participant,session,date,expName,psychopyVersion,OS,frameRate,space_press_continue.keys,space_press_continue.rt,space_press_continue_2.keys,space_press_continue_2.rt,space_press_continue_3.keys,space_press_continue_3.rt,space_press_continue_4.keys,space_press_continue_4.rt,space_press_continue_5.keys,space_press_continue_5.rt,space_press_continue_6.keys,space_press_continue_6.rt,prac_mask_loop_1.thisRepN,prac_mask_loop_1.thisTrialN,prac_mask_loop_1.thisN,prac_mask_loop_1.thisIndex,prac_mask_loop_1.ran,mask_name,prac_mask_loop_2.thisRepN,prac_mask_loop_2.thisTrialN,prac_mask_loop_2.thisN,prac_mask_loop_2.thisIndex,prac_mask_loop_2.ran,mouse_2.x,mouse_2.y,mouse_2.leftButton,mouse_2.midButton,mouse_2.rightButton,mouse_2.clicked_name,similarity,response_time,Pass,mouse_12.x,mouse_12.y,mouse_12.leftButton,mouse_12.midButton,mouse_12.rightButton,mouse_12.clicked_name,prac_loop.thisRepN,prac_loop.thisTrialN,prac_loop.thisN,prac_loop.thisIndex,prac_loop.ran,Pair_type,Image_num,Patch_1_loc,Patch_2_loc,Patch_1_info,Patch_2_info,Patch_1_name,Patch_2_name,mouse_1.x,mouse_1.y,mouse_1.leftButton,mouse_1.midButton,mouse_1.rightButton,mouse_1.time,mouse_1.clicked_name,space_press_continue_7.keys,space_press_continue_7.rt,mask_loop.thisRepN,mask_loop.thisTrialN,mask_loop.thisN,mask_loop.thisIndex,mask_loop.ran,mask_loop_2.thisRepN,mask_loop_2.thisTrialN,mask_loop_2.thisN,mask_loop_2.thisIndex,mask_loop_2.ran,mouse.x,mouse.y,mouse.leftButton,mouse.midButton,mouse.rightButton,mouse.clicked_name,trialNumber,mouse_11.x,mouse_11.y,mouse_11.leftButton,mouse_11.midButton,mouse_11.rightButton,mouse_11.clicked_name,first_pass_loop.thisRepN,first_pass_loop.thisTrialN,first_pass_loop.thisN,first_pass_loop.thisIndex,first_pass_loop.ran,mask_loop_3.thisRepN,mask_loop_3.thisTrialN,mask_loop_3.thisN,mask_loop_3.thisIndex,mask_loop_3.ran,mask_loop_4.thisRepN,mask_loop_4.thisTrialN,mask_loop_4.thisN,mask_loop_4.thisIndex,mask_loop_4.ran,mouse_3.x,mouse_3.y,mouse_3.leftButton,mouse_3.midButton,mouse_3.rightButton,mouse_3.clicked_name,double_pass_loop.thisRepN,double_pass_loop.thisTrialN,double_pass_loop.thisN,double_pass_loop.thisIndex,double_pass_loop.ran,space_exit.keys,space_exit.rt
152994,001,2022-11-13_17h26.41.407,Info_measure_main_exp,2022.2.2,Win32,61.15085917,,,,,,,,,,,,,,,,,,,,,,,,,,,,,,,,,,,,,,,,,,,,,,,,,,,,,,,,,,,,,,,,,,,,,,,,,,,,,,,,,,,,,,,,,,,,,,,,,,,,,,,,,,,,,,,
152994,001,2022-11-13_17h26.41.407,Info_measure_main_exp,2022.2.2,Win32,61.15085917,,,,,,,,,,,,,,,,,,,,,,,,,,,,,,,,,,,,,,,,,,,,,,,,,,,,,,,,,,,,,,,,,,,,,,,,,,,,,,,,,,,,,,,,,,,,,,,,,,,,,,,,,,,,,,,
152994,001,2022-11-13_17h26.41.407,Info_measure_main_exp,2022.2.2,Win32,61.15085917,space,13.9176,,,,,,,,,,,,,,,,,,,,,,,,,,,,,,,,,,,,,,,,,,,,,,,,,,,,,,,,,,,,,,,,,,,,,,,,,,,,,,,,,,,,,,,,,,,,,,,,,,,,,,,,,,,,,
152994,001,2022-11-13_17h26.41.407,Info_measure_main_exp,2022.2.2,Win32,61.15085917,,,space,18.7759,,,,,,,,,,,,,,,,,,,,,,,,,,,,,,,,,,,,,,,,,,,,,,,,,,,,,,,,,,,,,,,,,,,,,,,,,,,,,,,,,,,,,,,,,,,,,,,,,,,,,,,,,,,
152994,001,2022-11-13_17h26.41.407,Info_measure_main_exp,2022.2.2,Win32,61.15085917,,,,,space,12.5155,,,,,,,,,,,,,,,,,,,,,,,,,,,,,,,,,,,,,,,,,,,,,,,,,,,,,,,,,,,,,,,,,,,,,,,,,,,,,,,,,,,,,,,,,,,,,,,,,,,,,,,,,
152994,001,2022-11-13_17h26.41.407,Info_measure_main_exp,2022.2.2,Win32,61.15085917,,,,,,,space,23.644,,,,,,,,,,,,,,,,,,,,,,,,,,,,,,,,,,,,,,,,,,,,,,,,,,,,,,,,,,,,,,,,,,,,,,,,,,,,,,,,,,,,,,,,,,,,,,,,,,,,,,,
152994,001,2022-11-13_17h26.41.407,Info_measure_main_exp,2022.2.2,Win32,61.15085917,,,,,,,,,space,8.0886,,,,,,,,,,,,,,,,,,,,,,,,,,,,,,,,,,,,,,,,,,,,,,,,,,,,,,,,,,,,,,,,,,,,,,,,,,,,,,,,,,,,,,,,,,,,,,,,,,,,,
152994,001,2022-11-13_17h26.41.407,Info_measure_main_exp,2022.2.2,Win32,61.15085917,,,,,,,,,,,space,7.356,,,,,,,,,,,,,,,,,,,,,,,,,,,,,,,,,,,,,,,,,,,,,,,,,,,,,,,,,,,,,,,,,,,,,,,,,,,,,,,,,,,,,,,,,,,,,,,,,,,
152994,001,2022-11-13_17h26.41.407,Info_measure_main_exp,2022.2.2,Win32,61.15085917,,,,,,,,,,,,,0,0,0,1,1,masks/mask_002.jpg,,,,,,,,,,,,,,,,,,,,,,,,,,,,,,,,,,,,,,,,,,,,,,,,,,,,,,,,,,,,,,,,,,,,,,,,,,,,,,,,,,,,,,,,,,,,,
152994,001,2022-11-13_17h26.41.407,Info_measure_main_exp,2022.2.2,Win32,61.15085917,,,,,,,,,,,,,0,1,1,3,1,masks/mask_004.jpg,,,,,,,,,,,,,,,,,,,,,,,,,,,,,,,,,,,,,,,,,,,,,,,,,,,,,,,,,,,,,,,,,,,,,,,,,,,,,,,,,,,,,,,,,,,,,
152994,001,2022-11-13_17h26.41.407,Info_measure_main_exp,2022.2.2,Win32,61.15085917,,,,,,,,,,,,,0,2,2,2,1,masks/mask_003.jpg,,,,,,,,,,,,,,,,,,,,,,,,,,,,,,,,,,,,,,,,,,,,,,,,,,,,,,,,,,,,,,,,,,,,,,,,,,,,,,,,,,,,,,,,,,,,,
152994,001,2022-11-13_17h26.41.407,Info_measure_main_exp,2022.2.2,Win32,61.15085917,,,,,,,,,,,,,0,3,3,4,1,masks/mask_005.jpg,,,,,,,,,,,,,,,,,,,,,,,,,,,,,,,,,,,,,,,,,,,,,,,,,,,,,,,,,,,,,,,,,,,,,,,,,,,,,,,,,,,,,,,,,,,,,
152994,001,2022-11-13_17h26.41.407,Info_measure_main_exp,2022.2.2,Win32,61.15085917,,,,,,,,,,,,,0,4,4,0,1,masks/mask_001.jpg,,,,,,,,,,,,,,,,,,,,,,,,,,,,,,,,,,,,,,,,,,,,,,,,,,,,,,,,,,,,,,,,,,,,,,,,,,,,,,,,,,,,,,,,,,,,,
152994,001,2022-11-13_17h26.41.407,Info_measure_main_exp,2022.2.2,Win32,61.15085917,,,,,,,,,,,,,,,,,,masks/mask_003.jpg,0,0,0,2,1,,,,,,,,,,,,,,,,,,,,,,,,,,,,,,,,,,,,,,,,,,,,,,,,,,,,,,,,,,,,,,,,,,,,,,,,,,,,,,,,,,,,,,,,
152994,001,2022-11-13_17h26.41.407,Info_measure_main_exp,2022.2.2,Win32,61.15085917,,,,,,,,,,,,,,,,,,masks/mask_005.jpg,0,1,1,4,1,,,,,,,,,,,,,,,,,,,,,,,,,,,,,,,,,,,,,,,,,,,,,,,,,,,,,,,,,,,,,,,,,,,,,,,,,,,,,,,,,,,,,,,,
152994,001,2022-11-13_17h26.41.407,Info_measure_main_exp,2022.2.2,Win32,61.15085917,,,,,,,,,,,,,,,,,,masks/mask_004.jpg,0,2,2,3,1,,,,,,,,,,,,,,,,,,,,,,,,,,,,,,,,,,,,,,,,,,,,,,,,,,,,,,,,,,,,,,,,,,,,,,,,,,,,,,,,,,,,,,,,
152994,001,2022-11-13_17h26.41.407,Info_measure_main_exp,2022.2.2,Win32,61.15085917,,,,,,,,,,,,,,,,,,masks/mask_001.jpg,0,3,3,0,1,,,,,,,,,,,,,,,,,,,,,,,,,,,,,,,,,,,,,,,,,,,,,,,,,,,,,,,,,,,,,,,,,,,,,,,,,,,,,,,,,,,,,,,,
152994,001,2022-11-13_17h26.41.407,Info_measure_main_exp,2022.2.2,Win32,61.15085917,,,,,,,,,,,,,,,,,,masks/mask_002.jpg,0,4,4,1,1,,,,,,,,,,,,,,,,,,,,,,,,,,,,,,,,,,,,,,,,,,,,,,,,,,,,,,,,,,,,,,,,,,,,,,,,,,,,,,,,,,,,,,,,
152994,001,2022-11-13_17h26.41.407,Info_measure_main_exp,2022.2.2,Win32,61.15085917,,,,,,,,,,,,,,,,,,,,,,,,0.11328125,0.03125,1,0,0,response1disk,6,90.1065,1,-0.002604167,-0.00390625,1,0,0,center_square,0,0,0,2,1,0,131,5,5,2526,2526,prac_patch/patch0002526.jpg,prac_patch/patch0002526.jpg,,,,,,,,,,,,,,,,,,,,,,,,,,,,,,,,,,,,,,,,,,,,,,,,,,,,,,,,,,,,
152994,001,2022-11-13_17h26.41.407,Info_measure_main_exp,2022.2.2,Win32,61.15085917,,,,,,,,,,,,,0,0,0,3,1,masks/mask_004.jpg,,,,,,,,,,,,,,,,,,,,,,,,,,,,,,,,,,,,,,,,,,,,,,,,,,,,,,,,,,,,,,,,,,,,,,,,,,,,,,,,,,,,,,,,,,,,,
152994,001,2022-11-13_17h26.41.407,Info_measure_main_exp,2022.2.2,Win32,61.15085917,,,,,,,,,,,,,0,1,1,1,1,masks/mask_002.jpg,,,,,,,,,,,,,,,,,,,,,,,,,,,,,,,,,,,,,,,,,,,,,,,,,,,,,,,,,,,,,,,,,,,,,,,,,,,,,,,,,,,,,,,,,,,,,
152994,001,2022-11-13_17h26.41.407,Info_measure_main_exp,2022.2.2,Win32,61.15085917,,,,,,,,,,,,,0,2,2,2,1,masks/mask_003.jpg,,,,,,,,,,,,,,,,,,,,,,,,,,,,,,,,,,,,,,,,,,,,,,,,,,,,,,,,,,,,,,,,,,,,,,,,,,,,,,,,,,,,,,,,,,,,,
152994,001,2022-11-13_17h26.41.407,Info_measure_main_exp,2022.2.2,Win32,61.15085917,,,,,,,,,,,,,0,3,3,4,1,masks/mask_005.jpg,,,,,,,,,,,,,,,,,,,,,,,,,,,,,,,,,,,,,,,,,,,,,,,,,,,,,,,,,,,,,,,,,,,,,,,,,,,,,,,,,,,,,,,,,,,,,
152994,001,2022-11-13_17h26.41.407,Info_measure_main_exp,2022.2.2,Win32,61.15085917,,,,,,,,,,,,,0,4,4,0,1,masks/mask_001.jpg,,,,,,,,,,,,,,,,,,,,,,,,,,,,,,,,,,,,,,,,,,,,,,,,,,,,,,,,,,,,,,,,,,,,,,,,,,,,,,,,,,,,,,,,,,,,,
152994,001,2022-11-13_17h26.41.407,Info_measure_main_exp,2022.2.2,Win32,61.15085917,,,,,,,,,,,,,,,,,,masks/mask_001.jpg,0,0,0,0,1,,,,,,,,,,,,,,,,,,,,,,,,,,,,,,,,,,,,,,,,,,,,,,,,,,,,,,,,,,,,,,,,,,,,,,,,,,,,,,,,,,,,,,,,
152994,001,2022-11-13_17h26.41.407,Info_measure_main_exp,2022.2.2,Win32,61.15085917,,,,,,,,,,,,,,,,,,masks/mask_003.jpg,0,1,1,2,1,,,,,,,,,,,,,,,,,,,,,,,,,,,,,,,,,,,,,,,,,,,,,,,,,,,,,,,,,,,,,,,,,,,,,,,,,,,,,,,,,,,,,,,,
152994,001,2022-11-13_17h26.41.407,Info_measure_main_exp,2022.2.2,Win32,61.15085917,,,,,,,,,,,,,,,,,,masks/mask_005.jpg,0,2,2,4,1,,,,,,,,,,,,,,,,,,,,,,,,,,,,,,,,,,,,,,,,,,,,,,,,,,,,,,,,,,,,,,,,,,,,,,,,,,,,,,,,,,,,,,,,
152994,001,2022-11-13_17h26.41.407,Info_measure_main_exp,2022.2.2,Win32,61.15085917,,,,,,,,,,,,,,,,,,masks/mask_002.jpg,0,3,3,1,1,,,,,,,,,,,,,,,,,,,,,,,,,,,,,,,,,,,,,,,,,,,,,,,,,,,,,,,,,,,,,,,,,,,,,,,,,,,,,,,,,,,,,,,,
152994,001,2022-11-13_17h26.41.407,Info_measure_main_exp,2022.2.2,Win32,61.15085917,,,,,,,,,,,,,,,,,,masks/mask_004.jpg,0,4,4,3,1,,,,,,,,,,,,,,,,,,,,,,,,,,,,,,,,,,,,,,,,,,,,,,,,,,,,,,,,,,,,,,,,,,,,,,,,,,,,,,,,,,,,,,,,
152994,001,2022-11-13_17h26.41.407,Info_measure_main_exp,2022.2.2,Win32,61.15085917,,,,,,,,,,,,,,,,,,,,,,,,0.037760417,-0.13671875,1,0,0,response3disk,4,105.5803,1,-0.00390625,-0.00390625,1,0,0,center_square,0,1,1,0,1,0,131,5,5,2370,2406,prac_patch/patch0002370.jpg,prac_patch/patch0002406.jpg,,,,,,,,,,,,,,,,,,,,,,,,,,,,,,,,,,,,,,,,,,,,,,,,,,,,,,,,,,,,
152994,001,2022-11-13_17h26.41.407,Info_measure_main_exp,2022.2.2,Win32,61.15085917,,,,,,,,,,,,,0,0,0,4,1,masks/mask_005.jpg,,,,,,,,,,,,,,,,,,,,,,,,,,,,,,,,,,,,,,,,,,,,,,,,,,,,,,,,,,,,,,,,,,,,,,,,,,,,,,,,,,,,,,,,,,,,,
152994,001,2022-11-13_17h26.41.407,Info_measure_main_exp,2022.2.2,Win32,61.15085917,,,,,,,,,,,,,0,1,1,2,1,masks/mask_003.jpg,,,,,,,,,,,,,,,,,,,,,,,,,,,,,,,,,,,,,,,,,,,,,,,,,,,,,,,,,,,,,,,,,,,,,,,,,,,,,,,,,,,,,,,,,,,,,
152994,001,2022-11-13_17h26.41.407,Info_measure_main_exp,2022.2.2,Win32,61.15085917,,,,,,,,,,,,,0,2,2,1,1,masks/mask_002.jpg,,,,,,,,,,,,,,,,,,,,,,,,,,,,,,,,,,,,,,,,,,,,,,,,,,,,,,,,,,,,,,,,,,,,,,,,,,,,,,,,,,,,,,,,,,,,,
152994,001,2022-11-13_17h26.41.407,Info_measure_main_exp,2022.2.2,Win32,61.15085917,,,,,,,,,,,,,0,3,3,0,1,masks/mask_001.jpg,,,,,,,,,,,,,,,,,,,,,,,,,,,,,,,,,,,,,,,,,,,,,,,,,,,,,,,,,,,,,,,,,,,,,,,,,,,,,,,,,,,,,,,,,,,,,
152994,001,2022-11-13_17h26.41.407,Info_measure_main_exp,2022.2.2,Win32,61.15085917,,,,,,,,,,,,,0,4,4,3,1,masks/mask_004.jpg,,,,,,,,,,,,,,,,,,,,,,,,,,,,,,,,,,,,,,,,,,,,,,,,,,,,,,,,,,,,,,,,,,,,,,,,,,,,,,,,,,,,,,,,,,,,,
152994,001,2022-11-13_17h26.41.407,Info_measure_main_exp,2022.2.2,Win32,61.15085917,,,,,,,,,,,,,,,,,,masks/mask_004.jpg,0,0,0,3,1,,,,,,,,,,,,,,,,,,,,,,,,,,,,,,,,,,,,,,,,,,,,,,,,,,,,,,,,,,,,,,,,,,,,,,,,,,,,,,,,,,,,,,,,
152994,001,2022-11-13_17h26.41.407,Info_measure_main_exp,2022.2.2,Win32,61.15085917,,,,,,,,,,,,,,,,,,masks/mask_002.jpg,0,1,1,1,1,,,,,,,,,,,,,,,,,,,,,,,,,,,,,,,,,,,,,,,,,,,,,,,,,,,,,,,,,,,,,,,,,,,,,,,,,,,,,,,,,,,,,,,,
152994,001,2022-11-13_17h26.41.407,Info_measure_main_exp,2022.2.2,Win32,61.15085917,,,,,,,,,,,,,,,,,,masks/mask_001.jpg,0,2,2,0,1,,,,,,,,,,,,,,,,,,,,,,,,,,,,,,,,,,,,,,,,,,,,,,,,,,,,,,,,,,,,,,,,,,,,,,,,,,,,,,,,,,,,,,,,
152994,001,2022-11-13_17h26.41.407,Info_measure_main_exp,2022.2.2,Win32,61.15085917,,,,,,,,,,,,,,,,,,masks/mask_003.jpg,0,3,3,2,1,,,,,,,,,,,,,,,,,,,,,,,,,,,,,,,,,,,,,,,,,,,,,,,,,,,,,,,,,,,,,,,,,,,,,,,,,,,,,,,,,,,,,,,,
152994,001,2022-11-13_17h26.41.407,Info_measure_main_exp,2022.2.2,Win32,61.15085917,,,,,,,,,,,,,,,,,,masks/mask_005.jpg,0,4,4,4,1,,,,,,,,,,,,,,,,,,,,,,,,,,,,,,,,,,,,,,,,,,,,,,,,,,,,,,,,,,,,,,,,,,,,,,,,,,,,,,,,,,,,,,,,
152994,001,2022-11-13_17h26.41.407,Info_measure_main_exp,2022.2.2,Win32,61.15085917,,,,,,,,,,,,,,,,,,,,,,,,0.026041667,-0.109375,1,0,0,response3disk,4,116.5732,1,-0.005208333,0.0078125,1,0,0,center_square,0,2,2,1,1,0,131,5,5,2514,2490,prac_patch/patch0002514.jpg,prac_patch/patch0002490.jpg,,,,,,,,,,,,,,,,,,,,,,,,,,,,,,,,,,,,,,,,,,,,,,,,,,,,,,,,,,,,
152994,001,2022-11-13_17h26.41.407,Info_measure_main_exp,2022.2.2,Win32,61.15085917,,,,,,,,,,,,,,,,,,,,,,,,,,,,,,,,,,,,,,,,,,,,,,,,,,,,,,,,,,,space,4.0484,,,,,,,,,,,,,,,,,,,,,,,,,,,,,,,,,,,,,,,,,,,,,,,,,,,
152994,001,2022-11-13_17h26.41.407,Info_measure_main_exp,2022.2.2,Win32,61.15085917,,,,,,,,,,,,,,,,,,masks/mask_002.jpg,,,,,,,,,,,,,,,,,,,,,,,,,,,,,,,,,,,,,,,,,,,0,0,0,1,1,,,,,,,,,,,,,,,,,,,,,,,,,,,,,,,,,,,,,,,,,,,,,,
152994,001,2022-11-13_17h26.41.407,Info_measure_main_exp,2022.2.2,Win32,61.15085917,,,,,,,,,,,,,,,,,,masks/mask_003.jpg,,,,,,,,,,,,,,,,,,,,,,,,,,,,,,,,,,,,,,,,,,,0,1,1,2,1,,,,,,,,,,,,,,,,,,,,,,,,,,,,,,,,,,,,,,,,,,,,,,
152994,001,2022-11-13_17h26.41.407,Info_measure_main_exp,2022.2.2,Win32,61.15085917,,,,,,,,,,,,,,,,,,masks/mask_005.jpg,,,,,,,,,,,,,,,,,,,,,,,,,,,,,,,,,,,,,,,,,,,0,2,2,4,1,,,,,,,,,,,,,,,,,,,,,,,,,,,,,,,,,,,,,,,,,,,,,,
152994,001,2022-11-13_17h26.41.407,Info_measure_main_exp,2022.2.2,Win32,61.15085917,,,,,,,,,,,,,,,,,,masks/mask_001.jpg,,,,,,,,,,,,,,,,,,,,,,,,,,,,,,,,,,,,,,,,,,,0,3,3,0,1,,,,,,,,,,,,,,,,,,,,,,,,,,,,,,,,,,,,,,,,,,,,,,
152994,001,2022-11-13_17h26.41.407,Info_measure_main_exp,2022.2.2,Win32,61.15085917,,,,,,,,,,,,,,,,,,masks/mask_004.jpg,,,,,,,,,,,,,,,,,,,,,,,,,,,,,,,,,,,,,,,,,,,0,4,4,3,1,,,,,,,,,,,,,,,,,,,,,,,,,,,,,,,,,,,,,,,,,,,,,,
152994,001,2022-11-13_17h26.41.407,Info_measure_main_exp,2022.2.2,Win32,61.15085917,,,,,,,,,,,,,,,,,,masks/mask_003.jpg,,,,,,,,,,,,,,,,,,,,,,,,,,,,,,,,,,,,,,,,,,,,,,,,0,0,0,2,1,,,,,,,,,,,,,,,,,,,,,,,,,,,,,,,,,,,,,,,,,
152994,001,2022-11-13_17h26.41.407,Info_measure_main_exp,2022.2.2,Win32,61.15085917,,,,,,,,,,,,,,,,,,masks/mask_004.jpg,,,,,,,,,,,,,,,,,,,,,,,,,,,,,,,,,,,,,,,,,,,,,,,,0,1,1,3,1,,,,,,,,,,,,,,,,,,,,,,,,,,,,,,,,,,,,,,,,,
152994,001,2022-11-13_17h26.41.407,Info_measure_main_exp,2022.2.2,Win32,61.15085917,,,,,,,,,,,,,,,,,,masks/mask_005.jpg,,,,,,,,,,,,,,,,,,,,,,,,,,,,,,,,,,,,,,,,,,,,,,,,0,2,2,4,1,,,,,,,,,,,,,,,,,,,,,,,,,,,,,,,,,,,,,,,,,
152994,001,2022-11-13_17h26.41.407,Info_measure_main_exp,2022.2.2,Win32,61.15085917,,,,,,,,,,,,,,,,,,masks/mask_002.jpg,,,,,,,,,,,,,,,,,,,,,,,,,,,,,,,,,,,,,,,,,,,,,,,,0,3,3,1,1,,,,,,,,,,,,,,,,,,,,,,,,,,,,,,,,,,,,,,,,,
152994,001,2022-11-13_17h26.41.407,Info_measure_main_exp,2022.2.2,Win32,61.15085917,,,,,,,,,,,,,,,,,,masks/mask_001.jpg,,,,,,,,,,,,,,,,,,,,,,,,,,,,,,,,,,,,,,,,,,,,,,,,0,4,4,0,1,,,,,,,,,,,,,,,,,,,,,,,,,,,,,,,,,,,,,,,,,
152994,001,2022-11-13_17h26.41.407,Info_measure_main_exp,2022.2.2,Win32,61.15085917,,,,,,,,,,,,,,,,,,,,,,,,,,,,,,5,1.4219,1,,,,,,,,,,,,0,131,5,5,2250,2298,absent_patch/patch0002250.jpg,absent_patch/patch0002298.jpg,,,,,,,,,,,,,,,,,,,,0.115885417,-0.032552083,1,0,0,response3disk,1,-0.001302083,0.006510417,1,0,0,center_square,0,0,0,59,1,,,,,,,,,,,,,,,,,,,,,,,
152994,001,2022-11-13_17h26.41.407,Info_measure_main_exp,2022.2.2,Win32,61.15085917,,,,,,,,,,,,,,,,,,masks/mask_001.jpg,,,,,,,,,,,,,,,,,,,,,,,,,,,,,,,,,,,,,,,,,,,0,0,0,0,1,,,,,,,,,,,,,,,,,,,,,,,,,,,,,,,,,,,,,,,,,,,,,,
152994,001,2022-11-13_17h26.41.407,Info_measure_main_exp,2022.2.2,Win32,61.15085917,,,,,,,,,,,,,,,,,,masks/mask_002.jpg,,,,,,,,,,,,,,,,,,,,,,,,,,,,,,,,,,,,,,,,,,,0,1,1,1,1,,,,,,,,,,,,,,,,,,,,,,,,,,,,,,,,,,,,,,,,,,,,,,
152994,001,2022-11-13_17h26.41.407,Info_measure_main_exp,2022.2.2,Win32,61.15085917,,,,,,,,,,,,,,,,,,masks/mask_005.jpg,,,,,,,,,,,,,,,,,,,,,,,,,,,,,,,,,,,,,,,,,,,0,2,2,4,1,,,,,,,,,,,,,,,,,,,,,,,,,,,,,,,,,,,,,,,,,,,,,,
152994,001,2022-11-13_17h26.41.407,Info_measure_main_exp,2022.2.2,Win32,61.15085917,,,,,,,,,,,,,,,,,,masks/mask_003.jpg,,,,,,,,,,,,,,,,,,,,,,,,,,,,,,,,,,,,,,,,,,,0,3,3,2,1,,,,,,,,,,,,,,,,,,,,,,,,,,,,,,,,,,,,,,,,,,,,,,
152994,001,2022-11-13_17h26.41.407,Info_measure_main_exp,2022.2.2,Win32,61.15085917,,,,,,,,,,,,,,,,,,masks/mask_004.jpg,,,,,,,,,,,,,,,,,,,,,,,,,,,,,,,,,,,,,,,,,,,0,4,4,3,1,,,,,,,,,,,,,,,,,,,,,,,,,,,,,,,,,,,,,,,,,,,,,,
152994,001,2022-11-13_17h26.41.407,Info_measure_main_exp,2022.2.2,Win32,61.15085917,,,,,,,,,,,,,,,,,,masks/mask_001.jpg,,,,,,,,,,,,,,,,,,,,,,,,,,,,,,,,,,,,,,,,,,,,,,,,0,0,0,0,1,,,,,,,,,,,,,,,,,,,,,,,,,,,,,,,,,,,,,,,,,
152994,001,2022-11-13_17h26.41.407,Info_measure_main_exp,2022.2.2,Win32,61.15085917,,,,,,,,,,,,,,,,,,masks/mask_004.jpg,,,,,,,,,,,,,,,,,,,,,,,,,,,,,,,,,,,,,,,,,,,,,,,,0,1,1,3,1,,,,,,,,,,,,,,,,,,,,,,,,,,,,,,,,,,,,,,,,,
152994,001,2022-11-13_17h26.41.407,Info_measure_main_exp,2022.2.2,Win32,61.15085917,,,,,,,,,,,,,,,,,,masks/mask_002.jpg,,,,,,,,,,,,,,,,,,,,,,,,,,,,,,,,,,,,,,,,,,,,,,,,0,2,2,1,1,,,,,,,,,,,,,,,,,,,,,,,,,,,,,,,,,,,,,,,,,
152994,001,2022-11-13_17h26.41.407,Info_measure_main_exp,2022.2.2,Win32,61.15085917,,,,,,,,,,,,,,,,,,masks/mask_005.jpg,,,,,,,,,,,,,,,,,,,,,,,,,,,,,,,,,,,,,,,,,,,,,,,,0,3,3,4,1,,,,,,,,,,,,,,,,,,,,,,,,,,,,,,,,,,,,,,,,,
152994,001,2022-11-13_17h26.41.407,Info_measure_main_exp,2022.2.2,Win32,61.15085917,,,,,,,,,,,,,,,,,,masks/mask_003.jpg,,,,,,,,,,,,,,,,,,,,,,,,,,,,,,,,,,,,,,,,,,,,,,,,0,4,4,2,1,,,,,,,,,,,,,,,,,,,,,,,,,,,,,,,,,,,,,,,,,
152994,001,2022-11-13_17h26.41.407,Info_measure_main_exp,2022.2.2,Win32,61.15085917,,,,,,,,,,,,,,,,,,,,,,,,,,,,,,4,1.3659,1,,,,,,,,,,,,0,131,5,5,2082,2178,absent_patch/patch0002082.jpg,absent_patch/patch0002178.jpg,,,,,,,,,,,,,,,,,,,,0.071614583,-0.134114583,1,0,0,response3disk,2,-0.001302083,0.009114583,1,0,0,center_square,0,1,1,2,1,,,,,,,,,,,,,,,,,,,,,,,
152994,001,2022-11-13_17h26.41.407,Info_measure_main_exp,2022.2.2,Win32,61.15085917,,,,,,,,,,,,,,,,,,masks/mask_003.jpg,,,,,,,,,,,,,,,,,,,,,,,,,,,,,,,,,,,,,,,,,,,0,0,0,2,1,,,,,,,,,,,,,,,,,,,,,,,,,,,,,,,,,,,,,,,,,,,,,,
152994,001,2022-11-13_17h26.41.407,Info_measure_main_exp,2022.2.2,Win32,61.15085917,,,,,,,,,,,,,,,,,,masks/mask_002.jpg,,,,,,,,,,,,,,,,,,,,,,,,,,,,,,,,,,,,,,,,,,,0,1,1,1,1,,,,,,,,,,,,,,,,,,,,,,,,,,,,,,,,,,,,,,,,,,,,,,
152994,001,2022-11-13_17h26.41.407,Info_measure_main_exp,2022.2.2,Win32,61.15085917,,,,,,,,,,,,,,,,,,masks/mask_004.jpg,,,,,,,,,,,,,,,,,,,,,,,,,,,,,,,,,,,,,,,,,,,0,2,2,3,1,,,,,,,,,,,,,,,,,,,,,,,,,,,,,,,,,,,,,,,,,,,,,,
152994,001,2022-11-13_17h26.41.407,Info_measure_main_exp,2022.2.2,Win32,61.15085917,,,,,,,,,,,,,,,,,,masks/mask_005.jpg,,,,,,,,,,,,,,,,,,,,,,,,,,,,,,,,,,,,,,,,,,,0,3,3,4,1,,,,,,,,,,,,,,,,,,,,,,,,,,,,,,,,,,,,,,,,,,,,,,
152994,001,2022-11-13_17h26.41.407,Info_measure_main_exp,2022.2.2,Win32,61.15085917,,,,,,,,,,,,,,,,,,masks/mask_001.jpg,,,,,,,,,,,,,,,,,,,,,,,,,,,,,,,,,,,,,,,,,,,0,4,4,0,1,,,,,,,,,,,,,,,,,,,,,,,,,,,,,,,,,,,,,,,,,,,,,,
152994,001,2022-11-13_17h26.41.407,Info_measure_main_exp,2022.2.2,Win32,61.15085917,,,,,,,,,,,,,,,,,,masks/mask_004.jpg,,,,,,,,,,,,,,,,,,,,,,,,,,,,,,,,,,,,,,,,,,,,,,,,0,0,0,3,1,,,,,,,,,,,,,,,,,,,,,,,,,,,,,,,,,,,,,,,,,
152994,001,2022-11-13_17h26.41.407,Info_measure_main_exp,2022.2.2,Win32,61.15085917,,,,,,,,,,,,,,,,,,masks/mask_005.jpg,,,,,,,,,,,,,,,,,,,,,,,,,,,,,,,,,,,,,,,,,,,,,,,,0,1,1,4,1,,,,,,,,,,,,,,,,,,,,,,,,,,,,,,,,,,,,,,,,,
152994,001,2022-11-13_17h26.41.407,Info_measure_main_exp,2022.2.2,Win32,61.15085917,,,,,,,,,,,,,,,,,,masks/mask_003.jpg,,,,,,,,,,,,,,,,,,,,,,,,,,,,,,,,,,,,,,,,,,,,,,,,0,2,2,2,1,,,,,,,,,,,,,,,,,,,,,,,,,,,,,,,,,,,,,,,,,
152994,001,2022-11-13_17h26.41.407,Info_measure_main_exp,2022.2.2,Win32,61.15085917,,,,,,,,,,,,,,,,,,masks/mask_001.jpg,,,,,,,,,,,,,,,,,,,,,,,,,,,,,,,,,,,,,,,,,,,,,,,,0,3,3,0,1,,,,,,,,,,,,,,,,,,,,,,,,,,,,,,,,,,,,,,,,,
152994,001,2022-11-13_17h26.41.407,Info_measure_main_exp,2022.2.2,Win32,61.15085917,,,,,,,,,,,,,,,,,,masks/mask_002.jpg,,,,,,,,,,,,,,,,,,,,,,,,,,,,,,,,,,,,,,,,,,,,,,,,0,4,4,1,1,,,,,,,,,,,,,,,,,,,,,,,,,,,,,,,,,,,,,,,,,
152994,001,2022-11-13_17h26.41.407,Info_measure_main_exp,2022.2.2,Win32,61.15085917,,,,,,,,,,,,,,,,,,,,,,,,,,,,,,5,1.4164,1,,,,,,,,,,,,0,131,5,5,1950,2238,absent_patch/patch0001950.jpg,absent_patch/patch0002238.jpg,,,,,,,,,,,,,,,,,,,,0.126302083,-0.045572917,1,0,0,response3disk,3,-0.002604167,-0.00390625,1,0,0,center_square,0,2,2,8,1,,,,,,,,,,,,,,,,,,,,,,,
152994,001,2022-11-13_17h26.41.407,Info_measure_main_exp,2022.2.2,Win32,61.15085917,,,,,,,,,,,,,,,,,,masks/mask_004.jpg,,,,,,,,,,,,,,,,,,,,,,,,,,,,,,,,,,,,,,,,,,,0,0,0,3,1,,,,,,,,,,,,,,,,,,,,,,,,,,,,,,,,,,,,,,,,,,,,,,
152994,001,2022-11-13_17h26.41.407,Info_measure_main_exp,2022.2.2,Win32,61.15085917,,,,,,,,,,,,,,,,,,masks/mask_003.jpg,,,,,,,,,,,,,,,,,,,,,,,,,,,,,,,,,,,,,,,,,,,0,1,1,2,1,,,,,,,,,,,,,,,,,,,,,,,,,,,,,,,,,,,,,,,,,,,,,,
152994,001,2022-11-13_17h26.41.407,Info_measure_main_exp,2022.2.2,Win32,61.15085917,,,,,,,,,,,,,,,,,,masks/mask_002.jpg,,,,,,,,,,,,,,,,,,,,,,,,,,,,,,,,,,,,,,,,,,,0,2,2,1,1,,,,,,,,,,,,,,,,,,,,,,,,,,,,,,,,,,,,,,,,,,,,,,
152994,001,2022-11-13_17h26.41.407,Info_measure_main_exp,2022.2.2,Win32,61.15085917,,,,,,,,,,,,,,,,,,masks/mask_005.jpg,,,,,,,,,,,,,,,,,,,,,,,,,,,,,,,,,,,,,,,,,,,0,3,3,4,1,,,,,,,,,,,,,,,,,,,,,,,,,,,,,,,,,,,,,,,,,,,,,,
152994,001,2022-11-13_17h26.41.407,Info_measure_main_exp,2022.2.2,Win32,61.15085917,,,,,,,,,,,,,,,,,,masks/mask_001.jpg,,,,,,,,,,,,,,,,,,,,,,,,,,,,,,,,,,,,,,,,,,,0,4,4,0,1,,,,,,,,,,,,,,,,,,,,,,,,,,,,,,,,,,,,,,,,,,,,,,
152994,001,2022-11-13_17h26.41.407,Info_measure_main_exp,2022.2.2,Win32,61.15085917,,,,,,,,,,,,,,,,,,masks/mask_001.jpg,,,,,,,,,,,,,,,,,,,,,,,,,,,,,,,,,,,,,,,,,,,,,,,,0,0,0,0,1,,,,,,,,,,,,,,,,,,,,,,,,,,,,,,,,,,,,,,,,,
152994,001,2022-11-13_17h26.41.407,Info_measure_main_exp,2022.2.2,Win32,61.15085917,,,,,,,,,,,,,,,,,,masks/mask_004.jpg,,,,,,,,,,,,,,,,,,,,,,,,,,,,,,,,,,,,,,,,,,,,,,,,0,1,1,3,1,,,,,,,,,,,,,,,,,,,,,,,,,,,,,,,,,,,,,,,,,
152994,001,2022-11-13_17h26.41.407,Info_measure_main_exp,2022.2.2,Win32,61.15085917,,,,,,,,,,,,,,,,,,masks/mask_003.jpg,,,,,,,,,,,,,,,,,,,,,,,,,,,,,,,,,,,,,,,,,,,,,,,,0,2,2,2,1,,,,,,,,,,,,,,,,,,,,,,,,,,,,,,,,,,,,,,,,,
152994,001,2022-11-13_17h26.41.407,Info_measure_main_exp,2022.2.2,Win32,61.15085917,,,,,,,,,,,,,,,,,,masks/mask_002.jpg,,,,,,,,,,,,,,,,,,,,,,,,,,,,,,,,,,,,,,,,,,,,,,,,0,3,3,1,1,,,,,,,,,,,,,,,,,,,,,,,,,,,,,,,,,,,,,,,,,
152994,001,2022-11-13_17h26.41.407,Info_measure_main_exp,2022.2.2,Win32,61.15085917,,,,,,,,,,,,,,,,,,masks/mask_005.jpg,,,,,,,,,,,,,,,,,,,,,,,,,,,,,,,,,,,,,,,,,,,,,,,,0,4,4,4,1,,,,,,,,,,,,,,,,,,,,,,,,,,,,,,,,,,,,,,,,,
152994,001,2022-11-13_17h26.41.407,Info_measure_main_exp,2022.2.2,Win32,61.15085917,,,,,,,,,,,,,,,,,,,,,,,,,,,,,,4,1.4831,1,,,,,,,,,,,,0,131,5,5,2250,2166,absent_patch/patch0002250.jpg,absent_patch/patch0002166.jpg,,,,,,,,,,,,,,,,,,,,0.045572917,-0.118489583,1,0,0,response3disk,4,-0.01171875,0.014322917,1,0,0,center_square,0,3,3,60,1,,,,,,,,,,,,,,,,,,,,,,,
152994,001,2022-11-13_17h26.41.407,Info_measure_main_exp,2022.2.2,Win32,61.15085917,,,,,,,,,,,,,,,,,,masks/mask_003.jpg,,,,,,,,,,,,,,,,,,,,,,,,,,,,,,,,,,,,,,,,,,,0,0,0,2,1,,,,,,,,,,,,,,,,,,,,,,,,,,,,,,,,,,,,,,,,,,,,,,
152994,001,2022-11-13_17h26.41.407,Info_measure_main_exp,2022.2.2,Win32,61.15085917,,,,,,,,,,,,,,,,,,masks/mask_001.jpg,,,,,,,,,,,,,,,,,,,,,,,,,,,,,,,,,,,,,,,,,,,0,1,1,0,1,,,,,,,,,,,,,,,,,,,,,,,,,,,,,,,,,,,,,,,,,,,,,,
152994,001,2022-11-13_17h26.41.407,Info_measure_main_exp,2022.2.2,Win32,61.15085917,,,,,,,,,,,,,,,,,,masks/mask_005.jpg,,,,,,,,,,,,,,,,,,,,,,,,,,,,,,,,,,,,,,,,,,,0,2,2,4,1,,,,,,,,,,,,,,,,,,,,,,,,,,,,,,,,,,,,,,,,,,,,,,
152994,001,2022-11-13_17h26.41.407,Info_measure_main_exp,2022.2.2,Win32,61.15085917,,,,,,,,,,,,,,,,,,masks/mask_002.jpg,,,,,,,,,,,,,,,,,,,,,,,,,,,,,,,,,,,,,,,,,,,0,3,3,1,1,,,,,,,,,,,,,,,,,,,,,,,,,,,,,,,,,,,,,,,,,,,,,,
152994,001,2022-11-13_17h26.41.407,Info_measure_main_exp,2022.2.2,Win32,61.15085917,,,,,,,,,,,,,,,,,,masks/mask_004.jpg,,,,,,,,,,,,,,,,,,,,,,,,,,,,,,,,,,,,,,,,,,,0,4,4,3,1,,,,,,,,,,,,,,,,,,,,,,,,,,,,,,,,,,,,,,,,,,,,,,
152994,001,2022-11-13_17h26.41.407,Info_measure_main_exp,2022.2.2,Win32,61.15085917,,,,,,,,,,,,,,,,,,masks/mask_003.jpg,,,,,,,,,,,,,,,,,,,,,,,,,,,,,,,,,,,,,,,,,,,,,,,,0,0,0,2,1,,,,,,,,,,,,,,,,,,,,,,,,,,,,,,,,,,,,,,,,,
152994,001,2022-11-13_17h26.41.407,Info_measure_main_exp,2022.2.2,Win32,61.15085917,,,,,,,,,,,,,,,,,,masks/mask_001.jpg,,,,,,,,,,,,,,,,,,,,,,,,,,,,,,,,,,,,,,,,,,,,,,,,0,1,1,0,1,,,,,,,,,,,,,,,,,,,,,,,,,,,,,,,,,,,,,,,,,
152994,001,2022-11-13_17h26.41.407,Info_measure_main_exp,2022.2.2,Win32,61.15085917,,,,,,,,,,,,,,,,,,masks/mask_004.jpg,,,,,,,,,,,,,,,,,,,,,,,,,,,,,,,,,,,,,,,,,,,,,,,,0,2,2,3,1,,,,,,,,,,,,,,,,,,,,,,,,,,,,,,,,,,,,,,,,,
152994,001,2022-11-13_17h26.41.407,Info_measure_main_exp,2022.2.2,Win32,61.15085917,,,,,,,,,,,,,,,,,,masks/mask_002.jpg,,,,,,,,,,,,,,,,,,,,,,,,,,,,,,,,,,,,,,,,,,,,,,,,0,3,3,1,1,,,,,,,,,,,,,,,,,,,,,,,,,,,,,,,,,,,,,,,,,
152994,001,2022-11-13_17h26.41.407,Info_measure_main_exp,2022.2.2,Win32,61.15085917,,,,,,,,,,,,,,,,,,masks/mask_005.jpg,,,,,,,,,,,,,,,,,,,,,,,,,,,,,,,,,,,,,,,,,,,,,,,,0,4,4,4,1,,,,,,,,,,,,,,,,,,,,,,,,,,,,,,,,,,,,,,,,,
152994,001,2022-11-13_17h26.41.407,Info_measure_main_exp,2022.2.2,Win32,61.15085917,,,,,,,,,,,,,,,,,,,,,,,,,,,,,,4,1.4497,1,,,,,,,,,,,,0,131,5,5,1974,2298,absent_patch/patch0001974.jpg,absent_patch/patch0002298.jpg,,,,,,,,,,,,,,,,,,,,0.037760417,-0.079427083,1,0,0,response3disk,5,-0.001302083,-0.00390625,1,0,0,center_square,0,4,4,6,1,,,,,,,,,,,,,,,,,,,,,,,
152994,001,2022-11-13_17h26.41.407,Info_measure_main_exp,2022.2.2,Win32,61.15085917,,,,,,,,,,,,,,,,,,masks/mask_003.jpg,,,,,,,,,,,,,,,,,,,,,,,,,,,,,,,,,,,,,,,,,,,0,0,0,2,1,,,,,,,,,,,,,,,,,,,,,,,,,,,,,,,,,,,,,,,,,,,,,,
152994,001,2022-11-13_17h26.41.407,Info_measure_main_exp,2022.2.2,Win32,61.15085917,,,,,,,,,,,,,,,,,,masks/mask_001.jpg,,,,,,,,,,,,,,,,,,,,,,,,,,,,,,,,,,,,,,,,,,,0,1,1,0,1,,,,,,,,,,,,,,,,,,,,,,,,,,,,,,,,,,,,,,,,,,,,,,
152994,001,2022-11-13_17h26.41.407,Info_measure_main_exp,2022.2.2,Win32,61.15085917,,,,,,,,,,,,,,,,,,masks/mask_004.jpg,,,,,,,,,,,,,,,,,,,,,,,,,,,,,,,,,,,,,,,,,,,0,2,2,3,1,,,,,,,,,,,,,,,,,,,,,,,,,,,,,,,,,,,,,,,,,,,,,,
152994,001,2022-11-13_17h26.41.407,Info_measure_main_exp,2022.2.2,Win32,61.15085917,,,,,,,,,,,,,,,,,,masks/mask_005.jpg,,,,,,,,,,,,,,,,,,,,,,,,,,,,,,,,,,,,,,,,,,,0,3,3,4,1,,,,,,,,,,,,,,,,,,,,,,,,,,,,,,,,,,,,,,,,,,,,,,
152994,001,2022-11-13_17h26.41.407,Info_measure_main_exp,2022.2.2,Win32,61.15085917,,,,,,,,,,,,,,,,,,masks/mask_002.jpg,,,,,,,,,,,,,,,,,,,,,,,,,,,,,,,,,,,,,,,,,,,0,4,4,1,1,,,,,,,,,,,,,,,,,,,,,,,,,,,,,,,,,,,,,,,,,,,,,,
152994,001,2022-11-13_17h26.41.407,Info_measure_main_exp,2022.2.2,Win32,61.15085917,,,,,,,,,,,,,,,,,,masks/mask_005.jpg,,,,,,,,,,,,,,,,,,,,,,,,,,,,,,,,,,,,,,,,,,,,,,,,0,0,0,4,1,,,,,,,,,,,,,,,,,,,,,,,,,,,,,,,,,,,,,,,,,
152994,001,2022-11-13_17h26.41.407,Info_measure_main_exp,2022.2.2,Win32,61.15085917,,,,,,,,,,,,,,,,,,masks/mask_003.jpg,,,,,,,,,,,,,,,,,,,,,,,,,,,,,,,,,,,,,,,,,,,,,,,,0,1,1,2,1,,,,,,,,,,,,,,,,,,,,,,,,,,,,,,,,,,,,,,,,,
152994,001,2022-11-13_17h26.41.407,Info_measure_main_exp,2022.2.2,Win32,61.15085917,,,,,,,,,,,,,,,,,,masks/mask_002.jpg,,,,,,,,,,,,,,,,,,,,,,,,,,,,,,,,,,,,,,,,,,,,,,,,0,2,2,1,1,,,,,,,,,,,,,,,,,,,,,,,,,,,,,,,,,,,,,,,,,
152994,001,2022-11-13_17h26.41.407,Info_measure_main_exp,2022.2.2,Win32,61.15085917,,,,,,,,,,,,,,,,,,masks/mask_001.jpg,,,,,,,,,,,,,,,,,,,,,,,,,,,,,,,,,,,,,,,,,,,,,,,,0,3,3,0,1,,,,,,,,,,,,,,,,,,,,,,,,,,,,,,,,,,,,,,,,,
152994,001,2022-11-13_17h26.41.407,Info_measure_main_exp,2022.2.2,Win32,61.15085917,,,,,,,,,,,,,,,,,,masks/mask_004.jpg,,,,,,,,,,,,,,,,,,,,,,,,,,,,,,,,,,,,,,,,,,,,,,,,0,4,4,3,1,,,,,,,,,,,,,,,,,,,,,,,,,,,,,,,,,,,,,,,,,
152994,001,2022-11-13_17h26.41.407,Info_measure_main_exp,2022.2.2,Win32,61.15085917,,,,,,,,,,,,,,,,,,,,,,,,,,,,,,3,2.5999,1,,,,,,,,,,,,0,131,5,5,1974,2214,absent_patch/patch0001974.jpg,absent_patch/patch0002214.jpg,,,,,,,,,,,,,,,,,,,,-0.024739583,-0.145833333,1,0,0,response5disk,6,-0.006510417,0.0078125,1,0,0,center_square,0,5,5,24,1,,,,,,,,,,,,,,,,,,,,,,,
152994,001,2022-11-13_17h26.41.407,Info_measure_main_exp,2022.2.2,Win32,61.15085917,,,,,,,,,,,,,,,,,,masks/mask_005.jpg,,,,,,,,,,,,,,,,,,,,,,,,,,,,,,,,,,,,,,,,,,,0,0,0,4,1,,,,,,,,,,,,,,,,,,,,,,,,,,,,,,,,,,,,,,,,,,,,,,
152994,001,2022-11-13_17h26.41.407,Info_measure_main_exp,2022.2.2,Win32,61.15085917,,,,,,,,,,,,,,,,,,masks/mask_001.jpg,,,,,,,,,,,,,,,,,,,,,,,,,,,,,,,,,,,,,,,,,,,0,1,1,0,1,,,,,,,,,,,,,,,,,,,,,,,,,,,,,,,,,,,,,,,,,,,,,,
152994,001,2022-11-13_17h26.41.407,Info_measure_main_exp,2022.2.2,Win32,61.15085917,,,,,,,,,,,,,,,,,,masks/mask_003.jpg,,,,,,,,,,,,,,,,,,,,,,,,,,,,,,,,,,,,,,,,,,,0,2,2,2,1,,,,,,,,,,,,,,,,,,,,,,,,,,,,,,,,,,,,,,,,,,,,,,
152994,001,2022-11-13_17h26.41.407,Info_measure_main_exp,2022.2.2,Win32,61.15085917,,,,,,,,,,,,,,,,,,masks/mask_002.jpg,,,,,,,,,,,,,,,,,,,,,,,,,,,,,,,,,,,,,,,,,,,0,3,3,1,1,,,,,,,,,,,,,,,,,,,,,,,,,,,,,,,,,,,,,,,,,,,,,,
152994,001,2022-11-13_17h26.41.407,Info_measure_main_exp,2022.2.2,Win32,61.15085917,,,,,,,,,,,,,,,,,,masks/mask_004.jpg,,,,,,,,,,,,,,,,,,,,,,,,,,,,,,,,,,,,,,,,,,,0,4,4,3,1,,,,,,,,,,,,,,,,,,,,,,,,,,,,,,,,,,,,,,,,,,,,,,
152994,001,2022-11-13_17h26.41.407,Info_measure_main_exp,2022.2.2,Win32,61.15085917,,,,,,,,,,,,,,,,,,masks/mask_005.jpg,,,,,,,,,,,,,,,,,,,,,,,,,,,,,,,,,,,,,,,,,,,,,,,,0,0,0,4,1,,,,,,,,,,,,,,,,,,,,,,,,,,,,,,,,,,,,,,,,,
152994,001,2022-11-13_17h26.41.407,Info_measure_main_exp,2022.2.2,Win32,61.15085917,,,,,,,,,,,,,,,,,,masks/mask_001.jpg,,,,,,,,,,,,,,,,,,,,,,,,,,,,,,,,,,,,,,,,,,,,,,,,0,1,1,0,1,,,,,,,,,,,,,,,,,,,,,,,,,,,,,,,,,,,,,,,,,
152994,001,2022-11-13_17h26.41.407,Info_measure_main_exp,2022.2.2,Win32,61.15085917,,,,,,,,,,,,,,,,,,masks/mask_003.jpg,,,,,,,,,,,,,,,,,,,,,,,,,,,,,,,,,,,,,,,,,,,,,,,,0,2,2,2,1,,,,,,,,,,,,,,,,,,,,,,,,,,,,,,,,,,,,,,,,,
152994,001,2022-11-13_17h26.41.407,Info_measure_main_exp,2022.2.2,Win32,61.15085917,,,,,,,,,,,,,,,,,,masks/mask_002.jpg,,,,,,,,,,,,,,,,,,,,,,,,,,,,,,,,,,,,,,,,,,,,,,,,0,3,3,1,1,,,,,,,,,,,,,,,,,,,,,,,,,,,,,,,,,,,,,,,,,
152994,001,2022-11-13_17h26.41.407,Info_measure_main_exp,2022.2.2,Win32,61.15085917,,,,,,,,,,,,,,,,,,masks/mask_004.jpg,,,,,,,,,,,,,,,,,,,,,,,,,,,,,,,,,,,,,,,,,,,,,,,,0,4,4,3,1,,,,,,,,,,,,,,,,,,,,,,,,,,,,,,,,,,,,,,,,,
152994,001,2022-11-13_17h26.41.407,Info_measure_main_exp,2022.2.2,Win32,61.15085917,,,,,,,,,,,,,,,,,,,,,,,,,,,,,,2,1.3314,1,,,,,,,,,,,,1,131,5,5,1,2178,present_patch/cong_131_5_a.jpg,absent_patch/patch0002178.jpg,,,,,,,,,,,,,,,,,,,,-0.083333333,-0.0234375,1,0,0,response5disk,7,0.005208333,0.00390625,1,0,0,center_square,0,6,6,40,1,,,,,,,,,,,,,,,,,,,,,,,
152994,001,2022-11-13_17h26.41.407,Info_measure_main_exp,2022.2.2,Win32,61.15085917,,,,,,,,,,,,,,,,,,masks/mask_003.jpg,,,,,,,,,,,,,,,,,,,,,,,,,,,,,,,,,,,,,,,,,,,0,0,0,2,1,,,,,,,,,,,,,,,,,,,,,,,,,,,,,,,,,,,,,,,,,,,,,,
152994,001,2022-11-13_17h26.41.407,Info_measure_main_exp,2022.2.2,Win32,61.15085917,,,,,,,,,,,,,,,,,,masks/mask_002.jpg,,,,,,,,,,,,,,,,,,,,,,,,,,,,,,,,,,,,,,,,,,,0,1,1,1,1,,,,,,,,,,,,,,,,,,,,,,,,,,,,,,,,,,,,,,,,,,,,,,
152994,001,2022-11-13_17h26.41.407,Info_measure_main_exp,2022.2.2,Win32,61.15085917,,,,,,,,,,,,,,,,,,masks/mask_005.jpg,,,,,,,,,,,,,,,,,,,,,,,,,,,,,,,,,,,,,,,,,,,0,2,2,4,1,,,,,,,,,,,,,,,,,,,,,,,,,,,,,,,,,,,,,,,,,,,,,,
152994,001,2022-11-13_17h26.41.407,Info_measure_main_exp,2022.2.2,Win32,61.15085917,,,,,,,,,,,,,,,,,,masks/mask_001.jpg,,,,,,,,,,,,,,,,,,,,,,,,,,,,,,,,,,,,,,,,,,,0,3,3,0,1,,,,,,,,,,,,,,,,,,,,,,,,,,,,,,,,,,,,,,,,,,,,,,
152994,001,2022-11-13_17h26.41.407,Info_measure_main_exp,2022.2.2,Win32,61.15085917,,,,,,,,,,,,,,,,,,masks/mask_004.jpg,,,,,,,,,,,,,,,,,,,,,,,,,,,,,,,,,,,,,,,,,,,0,4,4,3,1,,,,,,,,,,,,,,,,,,,,,,,,,,,,,,,,,,,,,,,,,,,,,,
152994,001,2022-11-13_17h26.41.407,Info_measure_main_exp,2022.2.2,Win32,61.15085917,,,,,,,,,,,,,,,,,,masks/mask_005.jpg,,,,,,,,,,,,,,,,,,,,,,,,,,,,,,,,,,,,,,,,,,,,,,,,0,0,0,4,1,,,,,,,,,,,,,,,,,,,,,,,,,,,,,,,,,,,,,,,,,
152994,001,2022-11-13_17h26.41.407,Info_measure_main_exp,2022.2.2,Win32,61.15085917,,,,,,,,,,,,,,,,,,masks/mask_002.jpg,,,,,,,,,,,,,,,,,,,,,,,,,,,,,,,,,,,,,,,,,,,,,,,,0,1,1,1,1,,,,,,,,,,,,,,,,,,,,,,,,,,,,,,,,,,,,,,,,,
152994,001,2022-11-13_17h26.41.407,Info_measure_main_exp,2022.2.2,Win32,61.15085917,,,,,,,,,,,,,,,,,,masks/mask_001.jpg,,,,,,,,,,,,,,,,,,,,,,,,,,,,,,,,,,,,,,,,,,,,,,,,0,2,2,0,1,,,,,,,,,,,,,,,,,,,,,,,,,,,,,,,,,,,,,,,,,
152994,001,2022-11-13_17h26.41.407,Info_measure_main_exp,2022.2.2,Win32,61.15085917,,,,,,,,,,,,,,,,,,masks/mask_003.jpg,,,,,,,,,,,,,,,,,,,,,,,,,,,,,,,,,,,,,,,,,,,,,,,,0,3,3,2,1,,,,,,,,,,,,,,,,,,,,,,,,,,,,,,,,,,,,,,,,,
152994,001,2022-11-13_17h26.41.407,Info_measure_main_exp,2022.2.2,Win32,61.15085917,,,,,,,,,,,,,,,,,,masks/mask_004.jpg,,,,,,,,,,,,,,,,,,,,,,,,,,,,,,,,,,,,,,,,,,,,,,,,0,4,4,3,1,,,,,,,,,,,,,,,,,,,,,,,,,,,,,,,,,,,,,,,,,
152994,001,2022-11-13_17h26.41.407,Info_measure_main_exp,2022.2.2,Win32,61.15085917,,,,,,,,,,,,,,,,,,,,,,,,,,,,,,3,0.8502,1,,,,,,,,,,,,0,131,5,5,1974,2178,absent_patch/patch0001974.jpg,absent_patch/patch0002178.jpg,,,,,,,,,,,,,,,,,,,,-0.02734375,-0.091145833,1,0,0,response5disk,8,0.00390625,-0.001302083,1,0,0,center_square,0,7,7,44,1,,,,,,,,,,,,,,,,,,,,,,,
152994,001,2022-11-13_17h26.41.407,Info_measure_main_exp,2022.2.2,Win32,61.15085917,,,,,,,,,,,,,,,,,,masks/mask_004.jpg,,,,,,,,,,,,,,,,,,,,,,,,,,,,,,,,,,,,,,,,,,,0,0,0,3,1,,,,,,,,,,,,,,,,,,,,,,,,,,,,,,,,,,,,,,,,,,,,,,
152994,001,2022-11-13_17h26.41.407,Info_measure_main_exp,2022.2.2,Win32,61.15085917,,,,,,,,,,,,,,,,,,masks/mask_001.jpg,,,,,,,,,,,,,,,,,,,,,,,,,,,,,,,,,,,,,,,,,,,0,1,1,0,1,,,,,,,,,,,,,,,,,,,,,,,,,,,,,,,,,,,,,,,,,,,,,,
152994,001,2022-11-13_17h26.41.407,Info_measure_main_exp,2022.2.2,Win32,61.15085917,,,,,,,,,,,,,,,,,,masks/mask_005.jpg,,,,,,,,,,,,,,,,,,,,,,,,,,,,,,,,,,,,,,,,,,,0,2,2,4,1,,,,,,,,,,,,,,,,,,,,,,,,,,,,,,,,,,,,,,,,,,,,,,
152994,001,2022-11-13_17h26.41.407,Info_measure_main_exp,2022.2.2,Win32,61.15085917,,,,,,,,,,,,,,,,,,masks/mask_003.jpg,,,,,,,,,,,,,,,,,,,,,,,,,,,,,,,,,,,,,,,,,,,0,3,3,2,1,,,,,,,,,,,,,,,,,,,,,,,,,,,,,,,,,,,,,,,,,,,,,,
152994,001,2022-11-13_17h26.41.407,Info_measure_main_exp,2022.2.2,Win32,61.15085917,,,,,,,,,,,,,,,,,,masks/mask_002.jpg,,,,,,,,,,,,,,,,,,,,,,,,,,,,,,,,,,,,,,,,,,,0,4,4,1,1,,,,,,,,,,,,,,,,,,,,,,,,,,,,,,,,,,,,,,,,,,,,,,
152994,001,2022-11-13_17h26.41.407,Info_measure_main_exp,2022.2.2,Win32,61.15085917,,,,,,,,,,,,,,,,,,masks/mask_003.jpg,,,,,,,,,,,,,,,,,,,,,,,,,,,,,,,,,,,,,,,,,,,,,,,,0,0,0,2,1,,,,,,,,,,,,,,,,,,,,,,,,,,,,,,,,,,,,,,,,,
152994,001,2022-11-13_17h26.41.407,Info_measure_main_exp,2022.2.2,Win32,61.15085917,,,,,,,,,,,,,,,,,,masks/mask_005.jpg,,,,,,,,,,,,,,,,,,,,,,,,,,,,,,,,,,,,,,,,,,,,,,,,0,1,1,4,1,,,,,,,,,,,,,,,,,,,,,,,,,,,,,,,,,,,,,,,,,
152994,001,2022-11-13_17h26.41.407,Info_measure_main_exp,2022.2.2,Win32,61.15085917,,,,,,,,,,,,,,,,,,masks/mask_002.jpg,,,,,,,,,,,,,,,,,,,,,,,,,,,,,,,,,,,,,,,,,,,,,,,,0,2,2,1,1,,,,,,,,,,,,,,,,,,,,,,,,,,,,,,,,,,,,,,,,,
152994,001,2022-11-13_17h26.41.407,Info_measure_main_exp,2022.2.2,Win32,61.15085917,,,,,,,,,,,,,,,,,,masks/mask_004.jpg,,,,,,,,,,,,,,,,,,,,,,,,,,,,,,,,,,,,,,,,,,,,,,,,0,3,3,3,1,,,,,,,,,,,,,,,,,,,,,,,,,,,,,,,,,,,,,,,,,
152994,001,2022-11-13_17h26.41.407,Info_measure_main_exp,2022.2.2,Win32,61.15085917,,,,,,,,,,,,,,,,,,masks/mask_001.jpg,,,,,,,,,,,,,,,,,,,,,,,,,,,,,,,,,,,,,,,,,,,,,,,,0,4,4,0,1,,,,,,,,,,,,,,,,,,,,,,,,,,,,,,,,,,,,,,,,,
152994,001,2022-11-13_17h26.41.407,Info_measure_main_exp,2022.2.2,Win32,61.15085917,,,,,,,,,,,,,,,,,,,,,,,,,,,,,,2,0.819,1,,,,,,,,,,,,0,131,5,5,2178,1986,absent_patch/patch0002178.jpg,absent_patch/patch0001986.jpg,,,,,,,,,,,,,,,,,,,,-0.118489583,-0.045572917,1,0,0,response5disk,9,-0.00390625,0,1,0,0,center_square,0,8,8,46,1,,,,,,,,,,,,,,,,,,,,,,,
152994,001,2022-11-13_17h26.41.407,Info_measure_main_exp,2022.2.2,Win32,61.15085917,,,,,,,,,,,,,,,,,,masks/mask_003.jpg,,,,,,,,,,,,,,,,,,,,,,,,,,,,,,,,,,,,,,,,,,,0,0,0,2,1,,,,,,,,,,,,,,,,,,,,,,,,,,,,,,,,,,,,,,,,,,,,,,
152994,001,2022-11-13_17h26.41.407,Info_measure_main_exp,2022.2.2,Win32,61.15085917,,,,,,,,,,,,,,,,,,masks/mask_005.jpg,,,,,,,,,,,,,,,,,,,,,,,,,,,,,,,,,,,,,,,,,,,0,1,1,4,1,,,,,,,,,,,,,,,,,,,,,,,,,,,,,,,,,,,,,,,,,,,,,,
152994,001,2022-11-13_17h26.41.407,Info_measure_main_exp,2022.2.2,Win32,61.15085917,,,,,,,,,,,,,,,,,,masks/mask_004.jpg,,,,,,,,,,,,,,,,,,,,,,,,,,,,,,,,,,,,,,,,,,,0,2,2,3,1,,,,,,,,,,,,,,,,,,,,,,,,,,,,,,,,,,,,,,,,,,,,,,
152994,001,2022-11-13_17h26.41.407,Info_measure_main_exp,2022.2.2,Win32,61.15085917,,,,,,,,,,,,,,,,,,masks/mask_002.jpg,,,,,,,,,,,,,,,,,,,,,,,,,,,,,,,,,,,,,,,,,,,0,3,3,1,1,,,,,,,,,,,,,,,,,,,,,,,,,,,,,,,,,,,,,,,,,,,,,,
152994,001,2022-11-13_17h26.41.407,Info_measure_main_exp,2022.2.2,Win32,61.15085917,,,,,,,,,,,,,,,,,,masks/mask_001.jpg,,,,,,,,,,,,,,,,,,,,,,,,,,,,,,,,,,,,,,,,,,,0,4,4,0,1,,,,,,,,,,,,,,,,,,,,,,,,,,,,,,,,,,,,,,,,,,,,,,
152994,001,2022-11-13_17h26.41.407,Info_measure_main_exp,2022.2.2,Win32,61.15085917,,,,,,,,,,,,,,,,,,masks/mask_003.jpg,,,,,,,,,,,,,,,,,,,,,,,,,,,,,,,,,,,,,,,,,,,,,,,,0,0,0,2,1,,,,,,,,,,,,,,,,,,,,,,,,,,,,,,,,,,,,,,,,,
152994,001,2022-11-13_17h26.41.407,Info_measure_main_exp,2022.2.2,Win32,61.15085917,,,,,,,,,,,,,,,,,,masks/mask_005.jpg,,,,,,,,,,,,,,,,,,,,,,,,,,,,,,,,,,,,,,,,,,,,,,,,0,1,1,4,1,,,,,,,,,,,,,,,,,,,,,,,,,,,,,,,,,,,,,,,,,
152994,001,2022-11-13_17h26.41.407,Info_measure_main_exp,2022.2.2,Win32,61.15085917,,,,,,,,,,,,,,,,,,masks/mask_001.jpg,,,,,,,,,,,,,,,,,,,,,,,,,,,,,,,,,,,,,,,,,,,,,,,,0,2,2,0,1,,,,,,,,,,,,,,,,,,,,,,,,,,,,,,,,,,,,,,,,,
152994,001,2022-11-13_17h26.41.407,Info_measure_main_exp,2022.2.2,Win32,61.15085917,,,,,,,,,,,,,,,,,,masks/mask_002.jpg,,,,,,,,,,,,,,,,,,,,,,,,,,,,,,,,,,,,,,,,,,,,,,,,0,3,3,1,1,,,,,,,,,,,,,,,,,,,,,,,,,,,,,,,,,,,,,,,,,
152994,001,2022-11-13_17h26.41.407,Info_measure_main_exp,2022.2.2,Win32,61.15085917,,,,,,,,,,,,,,,,,,masks/mask_004.jpg,,,,,,,,,,,,,,,,,,,,,,,,,,,,,,,,,,,,,,,,,,,,,,,,0,4,4,3,1,,,,,,,,,,,,,,,,,,,,,,,,,,,,,,,,,,,,,,,,,
152994,001,2022-11-13_17h26.41.407,Info_measure_main_exp,2022.2.2,Win32,61.15085917,,,,,,,,,,,,,,,,,,,,,,,,,,,,,,4,1.167,1,,,,,,,,,,,,0,131,5,5,2298,2274,absent_patch/patch0002298.jpg,absent_patch/patch0002274.jpg,,,,,,,,,,,,,,,,,,,,0.02734375,-0.122395833,1,0,0,response3disk,10,0.0078125,-0.0078125,1,0,0,center_square,0,9,9,1,1,,,,,,,,,,,,,,,,,,,,,,,
152994,001,2022-11-13_17h26.41.407,Info_measure_main_exp,2022.2.2,Win32,61.15085917,,,,,,,,,,,,,,,,,,masks/mask_005.jpg,,,,,,,,,,,,,,,,,,,,,,,,,,,,,,,,,,,,,,,,,,,0,0,0,4,1,,,,,,,,,,,,,,,,,,,,,,,,,,,,,,,,,,,,,,,,,,,,,,
152994,001,2022-11-13_17h26.41.407,Info_measure_main_exp,2022.2.2,Win32,61.15085917,,,,,,,,,,,,,,,,,,masks/mask_002.jpg,,,,,,,,,,,,,,,,,,,,,,,,,,,,,,,,,,,,,,,,,,,0,1,1,1,1,,,,,,,,,,,,,,,,,,,,,,,,,,,,,,,,,,,,,,,,,,,,,,
152994,001,2022-11-13_17h26.41.407,Info_measure_main_exp,2022.2.2,Win32,61.15085917,,,,,,,,,,,,,,,,,,masks/mask_004.jpg,,,,,,,,,,,,,,,,,,,,,,,,,,,,,,,,,,,,,,,,,,,0,2,2,3,1,,,,,,,,,,,,,,,,,,,,,,,,,,,,,,,,,,,,,,,,,,,,,,
152994,001,2022-11-13_17h26.41.407,Info_measure_main_exp,2022.2.2,Win32,61.15085917,,,,,,,,,,,,,,,,,,masks/mask_001.jpg,,,,,,,,,,,,,,,,,,,,,,,,,,,,,,,,,,,,,,,,,,,0,3,3,0,1,,,,,,,,,,,,,,,,,,,,,,,,,,,,,,,,,,,,,,,,,,,,,,
152994,001,2022-11-13_17h26.41.407,Info_measure_main_exp,2022.2.2,Win32,61.15085917,,,,,,,,,,,,,,,,,,masks/mask_003.jpg,,,,,,,,,,,,,,,,,,,,,,,,,,,,,,,,,,,,,,,,,,,0,4,4,2,1,,,,,,,,,,,,,,,,,,,,,,,,,,,,,,,,,,,,,,,,,,,,,,
152994,001,2022-11-13_17h26.41.407,Info_measure_main_exp,2022.2.2,Win32,61.15085917,,,,,,,,,,,,,,,,,,masks/mask_002.jpg,,,,,,,,,,,,,,,,,,,,,,,,,,,,,,,,,,,,,,,,,,,,,,,,0,0,0,1,1,,,,,,,,,,,,,,,,,,,,,,,,,,,,,,,,,,,,,,,,,
152994,001,2022-11-13_17h26.41.407,Info_measure_main_exp,2022.2.2,Win32,61.15085917,,,,,,,,,,,,,,,,,,masks/mask_001.jpg,,,,,,,,,,,,,,,,,,,,,,,,,,,,,,,,,,,,,,,,,,,,,,,,0,1,1,0,1,,,,,,,,,,,,,,,,,,,,,,,,,,,,,,,,,,,,,,,,,
152994,001,2022-11-13_17h26.41.407,Info_measure_main_exp,2022.2.2,Win32,61.15085917,,,,,,,,,,,,,,,,,,masks/mask_005.jpg,,,,,,,,,,,,,,,,,,,,,,,,,,,,,,,,,,,,,,,,,,,,,,,,0,2,2,4,1,,,,,,,,,,,,,,,,,,,,,,,,,,,,,,,,,,,,,,,,,
152994,001,2022-11-13_17h26.41.407,Info_measure_main_exp,2022.2.2,Win32,61.15085917,,,,,,,,,,,,,,,,,,masks/mask_003.jpg,,,,,,,,,,,,,,,,,,,,,,,,,,,,,,,,,,,,,,,,,,,,,,,,0,3,3,2,1,,,,,,,,,,,,,,,,,,,,,,,,,,,,,,,,,,,,,,,,,
152994,001,2022-11-13_17h26.41.407,Info_measure_main_exp,2022.2.2,Win32,61.15085917,,,,,,,,,,,,,,,,,,masks/mask_004.jpg,,,,,,,,,,,,,,,,,,,,,,,,,,,,,,,,,,,,,,,,,,,,,,,,0,4,4,3,1,,,,,,,,,,,,,,,,,,,,,,,,,,,,,,,,,,,,,,,,,
152994,001,2022-11-13_17h26.41.407,Info_measure_main_exp,2022.2.2,Win32,61.15085917,,,,,,,,,,,,,,,,,,,,,,,,,,,,,,5,1.1,1,,,,,,,,,,,,0,131,5,5,2190,1974,absent_patch/patch0002190.jpg,absent_patch/patch0001974.jpg,,,,,,,,,,,,,,,,,,,,0.123697917,-0.022135417,1,0,0,response3disk,11,-0.005208333,0.0078125,1,0,0,center_square,0,10,10,119,1,,,,,,,,,,,,,,,,,,,,,,,
152994,001,2022-11-13_17h26.41.407,Info_measure_main_exp,2022.2.2,Win32,61.15085917,,,,,,,,,,,,,,,,,,masks/mask_002.jpg,,,,,,,,,,,,,,,,,,,,,,,,,,,,,,,,,,,,,,,,,,,0,0,0,1,1,,,,,,,,,,,,,,,,,,,,,,,,,,,,,,,,,,,,,,,,,,,,,,
152994,001,2022-11-13_17h26.41.407,Info_measure_main_exp,2022.2.2,Win32,61.15085917,,,,,,,,,,,,,,,,,,masks/mask_004.jpg,,,,,,,,,,,,,,,,,,,,,,,,,,,,,,,,,,,,,,,,,,,0,1,1,3,1,,,,,,,,,,,,,,,,,,,,,,,,,,,,,,,,,,,,,,,,,,,,,,
152994,001,2022-11-13_17h26.41.407,Info_measure_main_exp,2022.2.2,Win32,61.15085917,,,,,,,,,,,,,,,,,,masks/mask_005.jpg,,,,,,,,,,,,,,,,,,,,,,,,,,,,,,,,,,,,,,,,,,,0,2,2,4,1,,,,,,,,,,,,,,,,,,,,,,,,,,,,,,,,,,,,,,,,,,,,,,
152994,001,2022-11-13_17h26.41.407,Info_measure_main_exp,2022.2.2,Win32,61.15085917,,,,,,,,,,,,,,,,,,masks/mask_003.jpg,,,,,,,,,,,,,,,,,,,,,,,,,,,,,,,,,,,,,,,,,,,0,3,3,2,1,,,,,,,,,,,,,,,,,,,,,,,,,,,,,,,,,,,,,,,,,,,,,,
152994,001,2022-11-13_17h26.41.407,Info_measure_main_exp,2022.2.2,Win32,61.15085917,,,,,,,,,,,,,,,,,,masks/mask_001.jpg,,,,,,,,,,,,,,,,,,,,,,,,,,,,,,,,,,,,,,,,,,,0,4,4,0,1,,,,,,,,,,,,,,,,,,,,,,,,,,,,,,,,,,,,,,,,,,,,,,
152994,001,2022-11-13_17h26.41.407,Info_measure_main_exp,2022.2.2,Win32,61.15085917,,,,,,,,,,,,,,,,,,masks/mask_002.jpg,,,,,,,,,,,,,,,,,,,,,,,,,,,,,,,,,,,,,,,,,,,,,,,,0,0,0,1,1,,,,,,,,,,,,,,,,,,,,,,,,,,,,,,,,,,,,,,,,,
152994,001,2022-11-13_17h26.41.407,Info_measure_main_exp,2022.2.2,Win32,61.15085917,,,,,,,,,,,,,,,,,,masks/mask_005.jpg,,,,,,,,,,,,,,,,,,,,,,,,,,,,,,,,,,,,,,,,,,,,,,,,0,1,1,4,1,,,,,,,,,,,,,,,,,,,,,,,,,,,,,,,,,,,,,,,,,
152994,001,2022-11-13_17h26.41.407,Info_measure_main_exp,2022.2.2,Win32,61.15085917,,,,,,,,,,,,,,,,,,masks/mask_001.jpg,,,,,,,,,,,,,,,,,,,,,,,,,,,,,,,,,,,,,,,,,,,,,,,,0,2,2,0,1,,,,,,,,,,,,,,,,,,,,,,,,,,,,,,,,,,,,,,,,,
152994,001,2022-11-13_17h26.41.407,Info_measure_main_exp,2022.2.2,Win32,61.15085917,,,,,,,,,,,,,,,,,,masks/mask_003.jpg,,,,,,,,,,,,,,,,,,,,,,,,,,,,,,,,,,,,,,,,,,,,,,,,0,3,3,2,1,,,,,,,,,,,,,,,,,,,,,,,,,,,,,,,,,,,,,,,,,
152994,001,2022-11-13_17h26.41.407,Info_measure_main_exp,2022.2.2,Win32,61.15085917,,,,,,,,,,,,,,,,,,masks/mask_004.jpg,,,,,,,,,,,,,,,,,,,,,,,,,,,,,,,,,,,,,,,,,,,,,,,,0,4,4,3,1,,,,,,,,,,,,,,,,,,,,,,,,,,,,,,,,,,,,,,,,,
152994,001,2022-11-13_17h26.41.407,Info_measure_main_exp,2022.2.2,Win32,61.15085917,,,,,,,,,,,,,,,,,,,,,,,,,,,,,,5,0.8837,1,,,,,,,,,,,,0,131,5,5,2154,2190,absent_patch/patch0002154.jpg,absent_patch/patch0002190.jpg,,,,,,,,,,,,,,,,,,,,0.1015625,-0.018229167,1,0,0,response3disk,12,0.00390625,0.00390625,1,0,0,center_square,0,11,11,68,1,,,,,,,,,,,,,,,,,,,,,,,
152994,001,2022-11-13_17h26.41.407,Info_measure_main_exp,2022.2.2,Win32,61.15085917,,,,,,,,,,,,,,,,,,masks/mask_001.jpg,,,,,,,,,,,,,,,,,,,,,,,,,,,,,,,,,,,,,,,,,,,0,0,0,0,1,,,,,,,,,,,,,,,,,,,,,,,,,,,,,,,,,,,,,,,,,,,,,,
152994,001,2022-11-13_17h26.41.407,Info_measure_main_exp,2022.2.2,Win32,61.15085917,,,,,,,,,,,,,,,,,,masks/mask_005.jpg,,,,,,,,,,,,,,,,,,,,,,,,,,,,,,,,,,,,,,,,,,,0,1,1,4,1,,,,,,,,,,,,,,,,,,,,,,,,,,,,,,,,,,,,,,,,,,,,,,
152994,001,2022-11-13_17h26.41.407,Info_measure_main_exp,2022.2.2,Win32,61.15085917,,,,,,,,,,,,,,,,,,masks/mask_003.jpg,,,,,,,,,,,,,,,,,,,,,,,,,,,,,,,,,,,,,,,,,,,0,2,2,2,1,,,,,,,,,,,,,,,,,,,,,,,,,,,,,,,,,,,,,,,,,,,,,,
152994,001,2022-11-13_17h26.41.407,Info_measure_main_exp,2022.2.2,Win32,61.15085917,,,,,,,,,,,,,,,,,,masks/mask_002.jpg,,,,,,,,,,,,,,,,,,,,,,,,,,,,,,,,,,,,,,,,,,,0,3,3,1,1,,,,,,,,,,,,,,,,,,,,,,,,,,,,,,,,,,,,,,,,,,,,,,
152994,001,2022-11-13_17h26.41.407,Info_measure_main_exp,2022.2.2,Win32,61.15085917,,,,,,,,,,,,,,,,,,masks/mask_004.jpg,,,,,,,,,,,,,,,,,,,,,,,,,,,,,,,,,,,,,,,,,,,0,4,4,3,1,,,,,,,,,,,,,,,,,,,,,,,,,,,,,,,,,,,,,,,,,,,,,,
152994,001,2022-11-13_17h26.41.407,Info_measure_main_exp,2022.2.2,Win32,61.15085917,,,,,,,,,,,,,,,,,,masks/mask_001.jpg,,,,,,,,,,,,,,,,,,,,,,,,,,,,,,,,,,,,,,,,,,,,,,,,0,0,0,0,1,,,,,,,,,,,,,,,,,,,,,,,,,,,,,,,,,,,,,,,,,
152994,001,2022-11-13_17h26.41.407,Info_measure_main_exp,2022.2.2,Win32,61.15085917,,,,,,,,,,,,,,,,,,masks/mask_004.jpg,,,,,,,,,,,,,,,,,,,,,,,,,,,,,,,,,,,,,,,,,,,,,,,,0,1,1,3,1,,,,,,,,,,,,,,,,,,,,,,,,,,,,,,,,,,,,,,,,,
152994,001,2022-11-13_17h26.41.407,Info_measure_main_exp,2022.2.2,Win32,61.15085917,,,,,,,,,,,,,,,,,,masks/mask_003.jpg,,,,,,,,,,,,,,,,,,,,,,,,,,,,,,,,,,,,,,,,,,,,,,,,0,2,2,2,1,,,,,,,,,,,,,,,,,,,,,,,,,,,,,,,,,,,,,,,,,
152994,001,2022-11-13_17h26.41.407,Info_measure_main_exp,2022.2.2,Win32,61.15085917,,,,,,,,,,,,,,,,,,masks/mask_005.jpg,,,,,,,,,,,,,,,,,,,,,,,,,,,,,,,,,,,,,,,,,,,,,,,,0,3,3,4,1,,,,,,,,,,,,,,,,,,,,,,,,,,,,,,,,,,,,,,,,,
152994,001,2022-11-13_17h26.41.407,Info_measure_main_exp,2022.2.2,Win32,61.15085917,,,,,,,,,,,,,,,,,,masks/mask_002.jpg,,,,,,,,,,,,,,,,,,,,,,,,,,,,,,,,,,,,,,,,,,,,,,,,0,4,4,1,1,,,,,,,,,,,,,,,,,,,,,,,,,,,,,,,,,,,,,,,,,
152994,001,2022-11-13_17h26.41.407,Info_measure_main_exp,2022.2.2,Win32,61.15085917,,,,,,,,,,,,,,,,,,,,,,,,,,,,,,5,0.7788,1,,,,,,,,,,,,0,131,5,5,1986,1974,absent_patch/patch0001986.jpg,absent_patch/patch0001974.jpg,,,,,,,,,,,,,,,,,,,,0.122395833,-0.02734375,1,0,0,response3disk,13,0.006510417,0,1,0,0,center_square,0,12,12,25,1,,,,,,,,,,,,,,,,,,,,,,,
152994,001,2022-11-13_17h26.41.407,Info_measure_main_exp,2022.2.2,Win32,61.15085917,,,,,,,,,,,,,,,,,,masks/mask_002.jpg,,,,,,,,,,,,,,,,,,,,,,,,,,,,,,,,,,,,,,,,,,,0,0,0,1,1,,,,,,,,,,,,,,,,,,,,,,,,,,,,,,,,,,,,,,,,,,,,,,
152994,001,2022-11-13_17h26.41.407,Info_measure_main_exp,2022.2.2,Win32,61.15085917,,,,,,,,,,,,,,,,,,masks/mask_003.jpg,,,,,,,,,,,,,,,,,,,,,,,,,,,,,,,,,,,,,,,,,,,0,1,1,2,1,,,,,,,,,,,,,,,,,,,,,,,,,,,,,,,,,,,,,,,,,,,,,,
152994,001,2022-11-13_17h26.41.407,Info_measure_main_exp,2022.2.2,Win32,61.15085917,,,,,,,,,,,,,,,,,,masks/mask_001.jpg,,,,,,,,,,,,,,,,,,,,,,,,,,,,,,,,,,,,,,,,,,,0,2,2,0,1,,,,,,,,,,,,,,,,,,,,,,,,,,,,,,,,,,,,,,,,,,,,,,
152994,001,2022-11-13_17h26.41.407,Info_measure_main_exp,2022.2.2,Win32,61.15085917,,,,,,,,,,,,,,,,,,masks/mask_004.jpg,,,,,,,,,,,,,,,,,,,,,,,,,,,,,,,,,,,,,,,,,,,0,3,3,3,1,,,,,,,,,,,,,,,,,,,,,,,,,,,,,,,,,,,,,,,,,,,,,,
152994,001,2022-11-13_17h26.41.407,Info_measure_main_exp,2022.2.2,Win32,61.15085917,,,,,,,,,,,,,,,,,,masks/mask_005.jpg,,,,,,,,,,,,,,,,,,,,,,,,,,,,,,,,,,,,,,,,,,,0,4,4,4,1,,,,,,,,,,,,,,,,,,,,,,,,,,,,,,,,,,,,,,,,,,,,,,
152994,001,2022-11-13_17h26.41.407,Info_measure_main_exp,2022.2.2,Win32,61.15085917,,,,,,,,,,,,,,,,,,masks/mask_004.jpg,,,,,,,,,,,,,,,,,,,,,,,,,,,,,,,,,,,,,,,,,,,,,,,,0,0,0,3,1,,,,,,,,,,,,,,,,,,,,,,,,,,,,,,,,,,,,,,,,,
152994,001,2022-11-13_17h26.41.407,Info_measure_main_exp,2022.2.2,Win32,61.15085917,,,,,,,,,,,,,,,,,,masks/mask_001.jpg,,,,,,,,,,,,,,,,,,,,,,,,,,,,,,,,,,,,,,,,,,,,,,,,0,1,1,0,1,,,,,,,,,,,,,,,,,,,,,,,,,,,,,,,,,,,,,,,,,
152994,001,2022-11-13_17h26.41.407,Info_measure_main_exp,2022.2.2,Win32,61.15085917,,,,,,,,,,,,,,,,,,masks/mask_005.jpg,,,,,,,,,,,,,,,,,,,,,,,,,,,,,,,,,,,,,,,,,,,,,,,,0,2,2,4,1,,,,,,,,,,,,,,,,,,,,,,,,,,,,,,,,,,,,,,,,,
152994,001,2022-11-13_17h26.41.407,Info_measure_main_exp,2022.2.2,Win32,61.15085917,,,,,,,,,,,,,,,,,,masks/mask_002.jpg,,,,,,,,,,,,,,,,,,,,,,,,,,,,,,,,,,,,,,,,,,,,,,,,0,3,3,1,1,,,,,,,,,,,,,,,,,,,,,,,,,,,,,,,,,,,,,,,,,
152994,001,2022-11-13_17h26.41.407,Info_measure_main_exp,2022.2.2,Win32,61.15085917,,,,,,,,,,,,,,,,,,masks/mask_003.jpg,,,,,,,,,,,,,,,,,,,,,,,,,,,,,,,,,,,,,,,,,,,,,,,,0,4,4,2,1,,,,,,,,,,,,,,,,,,,,,,,,,,,,,,,,,,,,,,,,,
152994,001,2022-11-13_17h26.41.407,Info_measure_main_exp,2022.2.2,Win32,61.15085917,,,,,,,,,,,,,,,,,,,,,,,,,,,,,,2,1.0839,1,,,,,,,,,,,,0,131,5,5,1950,2082,absent_patch/patch0001950.jpg,absent_patch/patch0002082.jpg,,,,,,,,,,,,,,,,,,,,-0.125,-0.05859375,1,0,0,response5disk,14,0,0.001302083,1,0,0,center_square,0,13,13,12,1,,,,,,,,,,,,,,,,,,,,,,,
152994,001,2022-11-13_17h26.41.407,Info_measure_main_exp,2022.2.2,Win32,61.15085917,,,,,,,,,,,,,,,,,,masks/mask_003.jpg,,,,,,,,,,,,,,,,,,,,,,,,,,,,,,,,,,,,,,,,,,,0,0,0,2,1,,,,,,,,,,,,,,,,,,,,,,,,,,,,,,,,,,,,,,,,,,,,,,
152994,001,2022-11-13_17h26.41.407,Info_measure_main_exp,2022.2.2,Win32,61.15085917,,,,,,,,,,,,,,,,,,masks/mask_005.jpg,,,,,,,,,,,,,,,,,,,,,,,,,,,,,,,,,,,,,,,,,,,0,1,1,4,1,,,,,,,,,,,,,,,,,,,,,,,,,,,,,,,,,,,,,,,,,,,,,,
152994,001,2022-11-13_17h26.41.407,Info_measure_main_exp,2022.2.2,Win32,61.15085917,,,,,,,,,,,,,,,,,,masks/mask_002.jpg,,,,,,,,,,,,,,,,,,,,,,,,,,,,,,,,,,,,,,,,,,,0,2,2,1,1,,,,,,,,,,,,,,,,,,,,,,,,,,,,,,,,,,,,,,,,,,,,,,
152994,001,2022-11-13_17h26.41.407,Info_measure_main_exp,2022.2.2,Win32,61.15085917,,,,,,,,,,,,,,,,,,masks/mask_001.jpg,,,,,,,,,,,,,,,,,,,,,,,,,,,,,,,,,,,,,,,,,,,0,3,3,0,1,,,,,,,,,,,,,,,,,,,,,,,,,,,,,,,,,,,,,,,,,,,,,,
152994,001,2022-11-13_17h26.41.407,Info_measure_main_exp,2022.2.2,Win32,61.15085917,,,,,,,,,,,,,,,,,,masks/mask_004.jpg,,,,,,,,,,,,,,,,,,,,,,,,,,,,,,,,,,,,,,,,,,,0,4,4,3,1,,,,,,,,,,,,,,,,,,,,,,,,,,,,,,,,,,,,,,,,,,,,,,
152994,001,2022-11-13_17h26.41.407,Info_measure_main_exp,2022.2.2,Win32,61.15085917,,,,,,,,,,,,,,,,,,masks/mask_005.jpg,,,,,,,,,,,,,,,,,,,,,,,,,,,,,,,,,,,,,,,,,,,,,,,,0,0,0,4,1,,,,,,,,,,,,,,,,,,,,,,,,,,,,,,,,,,,,,,,,,
152994,001,2022-11-13_17h26.41.407,Info_measure_main_exp,2022.2.2,Win32,61.15085917,,,,,,,,,,,,,,,,,,masks/mask_001.jpg,,,,,,,,,,,,,,,,,,,,,,,,,,,,,,,,,,,,,,,,,,,,,,,,0,1,1,0,1,,,,,,,,,,,,,,,,,,,,,,,,,,,,,,,,,,,,,,,,,
152994,001,2022-11-13_17h26.41.407,Info_measure_main_exp,2022.2.2,Win32,61.15085917,,,,,,,,,,,,,,,,,,masks/mask_003.jpg,,,,,,,,,,,,,,,,,,,,,,,,,,,,,,,,,,,,,,,,,,,,,,,,0,2,2,2,1,,,,,,,,,,,,,,,,,,,,,,,,,,,,,,,,,,,,,,,,,
152994,001,2022-11-13_17h26.41.407,Info_measure_main_exp,2022.2.2,Win32,61.15085917,,,,,,,,,,,,,,,,,,masks/mask_002.jpg,,,,,,,,,,,,,,,,,,,,,,,,,,,,,,,,,,,,,,,,,,,,,,,,0,3,3,1,1,,,,,,,,,,,,,,,,,,,,,,,,,,,,,,,,,,,,,,,,,
152994,001,2022-11-13_17h26.41.407,Info_measure_main_exp,2022.2.2,Win32,61.15085917,,,,,,,,,,,,,,,,,,masks/mask_004.jpg,,,,,,,,,,,,,,,,,,,,,,,,,,,,,,,,,,,,,,,,,,,,,,,,0,4,4,3,1,,,,,,,,,,,,,,,,,,,,,,,,,,,,,,,,,,,,,,,,,
152994,001,2022-11-13_17h26.41.407,Info_measure_main_exp,2022.2.2,Win32,61.15085917,,,,,,,,,,,,,,,,,,,,,,,,,,,,,,5,1.2173,1,,,,,,,,,,,,0,131,5,5,2142,2082,absent_patch/patch0002142.jpg,absent_patch/patch0002082.jpg,,,,,,,,,,,,,,,,,,,,0.110677083,-0.065104167,1,0,0,response3disk,15,0.005208333,0.001302083,1,0,0,center_square,0,14,14,88,1,,,,,,,,,,,,,,,,,,,,,,,
152994,001,2022-11-13_17h26.41.407,Info_measure_main_exp,2022.2.2,Win32,61.15085917,,,,,,,,,,,,,,,,,,masks/mask_001.jpg,,,,,,,,,,,,,,,,,,,,,,,,,,,,,,,,,,,,,,,,,,,0,0,0,0,1,,,,,,,,,,,,,,,,,,,,,,,,,,,,,,,,,,,,,,,,,,,,,,
152994,001,2022-11-13_17h26.41.407,Info_measure_main_exp,2022.2.2,Win32,61.15085917,,,,,,,,,,,,,,,,,,masks/mask_003.jpg,,,,,,,,,,,,,,,,,,,,,,,,,,,,,,,,,,,,,,,,,,,0,1,1,2,1,,,,,,,,,,,,,,,,,,,,,,,,,,,,,,,,,,,,,,,,,,,,,,
152994,001,2022-11-13_17h26.41.407,Info_measure_main_exp,2022.2.2,Win32,61.15085917,,,,,,,,,,,,,,,,,,masks/mask_004.jpg,,,,,,,,,,,,,,,,,,,,,,,,,,,,,,,,,,,,,,,,,,,0,2,2,3,1,,,,,,,,,,,,,,,,,,,,,,,,,,,,,,,,,,,,,,,,,,,,,,
152994,001,2022-11-13_17h26.41.407,Info_measure_main_exp,2022.2.2,Win32,61.15085917,,,,,,,,,,,,,,,,,,masks/mask_002.jpg,,,,,,,,,,,,,,,,,,,,,,,,,,,,,,,,,,,,,,,,,,,0,3,3,1,1,,,,,,,,,,,,,,,,,,,,,,,,,,,,,,,,,,,,,,,,,,,,,,
152994,001,2022-11-13_17h26.41.407,Info_measure_main_exp,2022.2.2,Win32,61.15085917,,,,,,,,,,,,,,,,,,masks/mask_005.jpg,,,,,,,,,,,,,,,,,,,,,,,,,,,,,,,,,,,,,,,,,,,0,4,4,4,1,,,,,,,,,,,,,,,,,,,,,,,,,,,,,,,,,,,,,,,,,,,,,,
152994,001,2022-11-13_17h26.41.407,Info_measure_main_exp,2022.2.2,Win32,61.15085917,,,,,,,,,,,,,,,,,,masks/mask_004.jpg,,,,,,,,,,,,,,,,,,,,,,,,,,,,,,,,,,,,,,,,,,,,,,,,0,0,0,3,1,,,,,,,,,,,,,,,,,,,,,,,,,,,,,,,,,,,,,,,,,
152994,001,2022-11-13_17h26.41.407,Info_measure_main_exp,2022.2.2,Win32,61.15085917,,,,,,,,,,,,,,,,,,masks/mask_001.jpg,,,,,,,,,,,,,,,,,,,,,,,,,,,,,,,,,,,,,,,,,,,,,,,,0,1,1,0,1,,,,,,,,,,,,,,,,,,,,,,,,,,,,,,,,,,,,,,,,,
152994,001,2022-11-13_17h26.41.407,Info_measure_main_exp,2022.2.2,Win32,61.15085917,,,,,,,,,,,,,,,,,,masks/mask_003.jpg,,,,,,,,,,,,,,,,,,,,,,,,,,,,,,,,,,,,,,,,,,,,,,,,0,2,2,2,1,,,,,,,,,,,,,,,,,,,,,,,,,,,,,,,,,,,,,,,,,
152994,001,2022-11-13_17h26.41.407,Info_measure_main_exp,2022.2.2,Win32,61.15085917,,,,,,,,,,,,,,,,,,masks/mask_005.jpg,,,,,,,,,,,,,,,,,,,,,,,,,,,,,,,,,,,,,,,,,,,,,,,,0,3,3,4,1,,,,,,,,,,,,,,,,,,,,,,,,,,,,,,,,,,,,,,,,,
152994,001,2022-11-13_17h26.41.407,Info_measure_main_exp,2022.2.2,Win32,61.15085917,,,,,,,,,,,,,,,,,,masks/mask_002.jpg,,,,,,,,,,,,,,,,,,,,,,,,,,,,,,,,,,,,,,,,,,,,,,,,0,4,4,1,1,,,,,,,,,,,,,,,,,,,,,,,,,,,,,,,,,,,,,,,,,
152994,001,2022-11-13_17h26.41.407,Info_measure_main_exp,2022.2.2,Win32,61.15085917,,,,,,,,,,,,,,,,,,,,,,,,,,,,,,6,0.9546,1,,,,,,,,,,,,0,131,5,5,2166,2298,absent_patch/patch0002166.jpg,absent_patch/patch0002298.jpg,,,,,,,,,,,,,,,,,,,,0.12109375,0.05859375,1,0,0,response1disk,16,0,0.002604167,1,0,0,center_square,0,15,15,52,1,,,,,,,,,,,,,,,,,,,,,,,
152994,001,2022-11-13_17h26.41.407,Info_measure_main_exp,2022.2.2,Win32,61.15085917,,,,,,,,,,,,,,,,,,masks/mask_005.jpg,,,,,,,,,,,,,,,,,,,,,,,,,,,,,,,,,,,,,,,,,,,0,0,0,4,1,,,,,,,,,,,,,,,,,,,,,,,,,,,,,,,,,,,,,,,,,,,,,,
152994,001,2022-11-13_17h26.41.407,Info_measure_main_exp,2022.2.2,Win32,61.15085917,,,,,,,,,,,,,,,,,,masks/mask_001.jpg,,,,,,,,,,,,,,,,,,,,,,,,,,,,,,,,,,,,,,,,,,,0,1,1,0,1,,,,,,,,,,,,,,,,,,,,,,,,,,,,,,,,,,,,,,,,,,,,,,
152994,001,2022-11-13_17h26.41.407,Info_measure_main_exp,2022.2.2,Win32,61.15085917,,,,,,,,,,,,,,,,,,masks/mask_002.jpg,,,,,,,,,,,,,,,,,,,,,,,,,,,,,,,,,,,,,,,,,,,0,2,2,1,1,,,,,,,,,,,,,,,,,,,,,,,,,,,,,,,,,,,,,,,,,,,,,,
152994,001,2022-11-13_17h26.41.407,Info_measure_main_exp,2022.2.2,Win32,61.15085917,,,,,,,,,,,,,,,,,,masks/mask_004.jpg,,,,,,,,,,,,,,,,,,,,,,,,,,,,,,,,,,,,,,,,,,,0,3,3,3,1,,,,,,,,,,,,,,,,,,,,,,,,,,,,,,,,,,,,,,,,,,,,,,
152994,001,2022-11-13_17h26.41.407,Info_measure_main_exp,2022.2.2,Win32,61.15085917,,,,,,,,,,,,,,,,,,masks/mask_003.jpg,,,,,,,,,,,,,,,,,,,,,,,,,,,,,,,,,,,,,,,,,,,0,4,4,2,1,,,,,,,,,,,,,,,,,,,,,,,,,,,,,,,,,,,,,,,,,,,,,,
152994,001,2022-11-13_17h26.41.407,Info_measure_main_exp,2022.2.2,Win32,61.15085917,,,,,,,,,,,,,,,,,,masks/mask_004.jpg,,,,,,,,,,,,,,,,,,,,,,,,,,,,,,,,,,,,,,,,,,,,,,,,0,0,0,3,1,,,,,,,,,,,,,,,,,,,,,,,,,,,,,,,,,,,,,,,,,
152994,001,2022-11-13_17h26.41.407,Info_measure_main_exp,2022.2.2,Win32,61.15085917,,,,,,,,,,,,,,,,,,masks/mask_005.jpg,,,,,,,,,,,,,,,,,,,,,,,,,,,,,,,,,,,,,,,,,,,,,,,,0,1,1,4,1,,,,,,,,,,,,,,,,,,,,,,,,,,,,,,,,,,,,,,,,,
152994,001,2022-11-13_17h26.41.407,Info_measure_main_exp,2022.2.2,Win32,61.15085917,,,,,,,,,,,,,,,,,,masks/mask_002.jpg,,,,,,,,,,,,,,,,,,,,,,,,,,,,,,,,,,,,,,,,,,,,,,,,0,2,2,1,1,,,,,,,,,,,,,,,,,,,,,,,,,,,,,,,,,,,,,,,,,
152994,001,2022-11-13_17h26.41.407,Info_measure_main_exp,2022.2.2,Win32,61.15085917,,,,,,,,,,,,,,,,,,masks/mask_001.jpg,,,,,,,,,,,,,,,,,,,,,,,,,,,,,,,,,,,,,,,,,,,,,,,,0,3,3,0,1,,,,,,,,,,,,,,,,,,,,,,,,,,,,,,,,,,,,,,,,,
152994,001,2022-11-13_17h26.41.407,Info_measure_main_exp,2022.2.2,Win32,61.15085917,,,,,,,,,,,,,,,,,,masks/mask_003.jpg,,,,,,,,,,,,,,,,,,,,,,,,,,,,,,,,,,,,,,,,,,,,,,,,0,4,4,2,1,,,,,,,,,,,,,,,,,,,,,,,,,,,,,,,,,,,,,,,,,
152994,001,2022-11-13_17h26.41.407,Info_measure_main_exp,2022.2.2,Win32,61.15085917,,,,,,,,,,,,,,,,,,,,,,,,,,,,,,1,0.9168,1,,,,,,,,,,,,0,131,5,5,2154,2238,absent_patch/patch0002154.jpg,absent_patch/patch0002238.jpg,,,,,,,,,,,,,,,,,,,,-0.135416667,0.06640625,1,0,0,response7disk,17,0.006510417,-0.001302083,1,0,0,center_square,0,16,16,21,1,,,,,,,,,,,,,,,,,,,,,,,
152994,001,2022-11-13_17h26.41.407,Info_measure_main_exp,2022.2.2,Win32,61.15085917,,,,,,,,,,,,,,,,,,masks/mask_005.jpg,,,,,,,,,,,,,,,,,,,,,,,,,,,,,,,,,,,,,,,,,,,0,0,0,4,1,,,,,,,,,,,,,,,,,,,,,,,,,,,,,,,,,,,,,,,,,,,,,,
152994,001,2022-11-13_17h26.41.407,Info_measure_main_exp,2022.2.2,Win32,61.15085917,,,,,,,,,,,,,,,,,,masks/mask_004.jpg,,,,,,,,,,,,,,,,,,,,,,,,,,,,,,,,,,,,,,,,,,,0,1,1,3,1,,,,,,,,,,,,,,,,,,,,,,,,,,,,,,,,,,,,,,,,,,,,,,
152994,001,2022-11-13_17h26.41.407,Info_measure_main_exp,2022.2.2,Win32,61.15085917,,,,,,,,,,,,,,,,,,masks/mask_001.jpg,,,,,,,,,,,,,,,,,,,,,,,,,,,,,,,,,,,,,,,,,,,0,2,2,0,1,,,,,,,,,,,,,,,,,,,,,,,,,,,,,,,,,,,,,,,,,,,,,,
152994,001,2022-11-13_17h26.41.407,Info_measure_main_exp,2022.2.2,Win32,61.15085917,,,,,,,,,,,,,,,,,,masks/mask_003.jpg,,,,,,,,,,,,,,,,,,,,,,,,,,,,,,,,,,,,,,,,,,,0,3,3,2,1,,,,,,,,,,,,,,,,,,,,,,,,,,,,,,,,,,,,,,,,,,,,,,
152994,001,2022-11-13_17h26.41.407,Info_measure_main_exp,2022.2.2,Win32,61.15085917,,,,,,,,,,,,,,,,,,masks/mask_002.jpg,,,,,,,,,,,,,,,,,,,,,,,,,,,,,,,,,,,,,,,,,,,0,4,4,1,1,,,,,,,,,,,,,,,,,,,,,,,,,,,,,,,,,,,,,,,,,,,,,,
152994,001,2022-11-13_17h26.41.407,Info_measure_main_exp,2022.2.2,Win32,61.15085917,,,,,,,,,,,,,,,,,,masks/mask_003.jpg,,,,,,,,,,,,,,,,,,,,,,,,,,,,,,,,,,,,,,,,,,,,,,,,0,0,0,2,1,,,,,,,,,,,,,,,,,,,,,,,,,,,,,,,,,,,,,,,,,
152994,001,2022-11-13_17h26.41.407,Info_measure_main_exp,2022.2.2,Win32,61.15085917,,,,,,,,,,,,,,,,,,masks/mask_005.jpg,,,,,,,,,,,,,,,,,,,,,,,,,,,,,,,,,,,,,,,,,,,,,,,,0,1,1,4,1,,,,,,,,,,,,,,,,,,,,,,,,,,,,,,,,,,,,,,,,,
152994,001,2022-11-13_17h26.41.407,Info_measure_main_exp,2022.2.2,Win32,61.15085917,,,,,,,,,,,,,,,,,,masks/mask_001.jpg,,,,,,,,,,,,,,,,,,,,,,,,,,,,,,,,,,,,,,,,,,,,,,,,0,2,2,0,1,,,,,,,,,,,,,,,,,,,,,,,,,,,,,,,,,,,,,,,,,
152994,001,2022-11-13_17h26.41.407,Info_measure_main_exp,2022.2.2,Win32,61.15085917,,,,,,,,,,,,,,,,,,masks/mask_002.jpg,,,,,,,,,,,,,,,,,,,,,,,,,,,,,,,,,,,,,,,,,,,,,,,,0,3,3,1,1,,,,,,,,,,,,,,,,,,,,,,,,,,,,,,,,,,,,,,,,,
152994,001,2022-11-13_17h26.41.407,Info_measure_main_exp,2022.2.2,Win32,61.15085917,,,,,,,,,,,,,,,,,,masks/mask_004.jpg,,,,,,,,,,,,,,,,,,,,,,,,,,,,,,,,,,,,,,,,,,,,,,,,0,4,4,3,1,,,,,,,,,,,,,,,,,,,,,,,,,,,,,,,,,,,,,,,,,
152994,001,2022-11-13_17h26.41.407,Info_measure_main_exp,2022.2.2,Win32,61.15085917,,,,,,,,,,,,,,,,,,,,,,,,,,,,,,4,0.7847,1,,,,,,,,,,,,0,131,5,5,2178,2142,absent_patch/patch0002178.jpg,absent_patch/patch0002142.jpg,,,,,,,,,,,,,,,,,,,,0.044270833,-0.083333333,1,0,0,response3disk,18,0.00390625,0.009114583,1,0,0,center_square,0,17,17,41,1,,,,,,,,,,,,,,,,,,,,,,,
152994,001,2022-11-13_17h26.41.407,Info_measure_main_exp,2022.2.2,Win32,61.15085917,,,,,,,,,,,,,,,,,,masks/mask_001.jpg,,,,,,,,,,,,,,,,,,,,,,,,,,,,,,,,,,,,,,,,,,,0,0,0,0,1,,,,,,,,,,,,,,,,,,,,,,,,,,,,,,,,,,,,,,,,,,,,,,
152994,001,2022-11-13_17h26.41.407,Info_measure_main_exp,2022.2.2,Win32,61.15085917,,,,,,,,,,,,,,,,,,masks/mask_004.jpg,,,,,,,,,,,,,,,,,,,,,,,,,,,,,,,,,,,,,,,,,,,0,1,1,3,1,,,,,,,,,,,,,,,,,,,,,,,,,,,,,,,,,,,,,,,,,,,,,,
152994,001,2022-11-13_17h26.41.407,Info_measure_main_exp,2022.2.2,Win32,61.15085917,,,,,,,,,,,,,,,,,,masks/mask_002.jpg,,,,,,,,,,,,,,,,,,,,,,,,,,,,,,,,,,,,,,,,,,,0,2,2,1,1,,,,,,,,,,,,,,,,,,,,,,,,,,,,,,,,,,,,,,,,,,,,,,
152994,001,2022-11-13_17h26.41.407,Info_measure_main_exp,2022.2.2,Win32,61.15085917,,,,,,,,,,,,,,,,,,masks/mask_005.jpg,,,,,,,,,,,,,,,,,,,,,,,,,,,,,,,,,,,,,,,,,,,0,3,3,4,1,,,,,,,,,,,,,,,,,,,,,,,,,,,,,,,,,,,,,,,,,,,,,,
152994,001,2022-11-13_17h26.41.407,Info_measure_main_exp,2022.2.2,Win32,61.15085917,,,,,,,,,,,,,,,,,,masks/mask_003.jpg,,,,,,,,,,,,,,,,,,,,,,,,,,,,,,,,,,,,,,,,,,,0,4,4,2,1,,,,,,,,,,,,,,,,,,,,,,,,,,,,,,,,,,,,,,,,,,,,,,
152994,001,2022-11-13_17h26.41.407,Info_measure_main_exp,2022.2.2,Win32,61.15085917,,,,,,,,,,,,,,,,,,masks/mask_004.jpg,,,,,,,,,,,,,,,,,,,,,,,,,,,,,,,,,,,,,,,,,,,,,,,,0,0,0,3,1,,,,,,,,,,,,,,,,,,,,,,,,,,,,,,,,,,,,,,,,,
152994,001,2022-11-13_17h26.41.407,Info_measure_main_exp,2022.2.2,Win32,61.15085917,,,,,,,,,,,,,,,,,,masks/mask_005.jpg,,,,,,,,,,,,,,,,,,,,,,,,,,,,,,,,,,,,,,,,,,,,,,,,0,1,1,4,1,,,,,,,,,,,,,,,,,,,,,,,,,,,,,,,,,,,,,,,,,
152994,001,2022-11-13_17h26.41.407,Info_measure_main_exp,2022.2.2,Win32,61.15085917,,,,,,,,,,,,,,,,,,masks/mask_002.jpg,,,,,,,,,,,,,,,,,,,,,,,,,,,,,,,,,,,,,,,,,,,,,,,,0,2,2,1,1,,,,,,,,,,,,,,,,,,,,,,,,,,,,,,,,,,,,,,,,,
152994,001,2022-11-13_17h26.41.407,Info_measure_main_exp,2022.2.2,Win32,61.15085917,,,,,,,,,,,,,,,,,,masks/mask_003.jpg,,,,,,,,,,,,,,,,,,,,,,,,,,,,,,,,,,,,,,,,,,,,,,,,0,3,3,2,1,,,,,,,,,,,,,,,,,,,,,,,,,,,,,,,,,,,,,,,,,
152994,001,2022-11-13_17h26.41.407,Info_measure_main_exp,2022.2.2,Win32,61.15085917,,,,,,,,,,,,,,,,,,masks/mask_001.jpg,,,,,,,,,,,,,,,,,,,,,,,,,,,,,,,,,,,,,,,,,,,,,,,,0,4,4,0,1,,,,,,,,,,,,,,,,,,,,,,,,,,,,,,,,,,,,,,,,,
152994,001,2022-11-13_17h26.41.407,Info_measure_main_exp,2022.2.2,Win32,61.15085917,,,,,,,,,,,,,,,,,,,,,,,,,,,,,,6,0.7495,1,,,,,,,,,,,,0,131,5,5,2250,2214,absent_patch/patch0002250.jpg,absent_patch/patch0002214.jpg,,,,,,,,,,,,,,,,,,,,0.10546875,0.026041667,1,0,0,response1disk,19,0,-0.00390625,1,0,0,center_square,0,18,18,97,1,,,,,,,,,,,,,,,,,,,,,,,
152994,001,2022-11-13_17h26.41.407,Info_measure_main_exp,2022.2.2,Win32,61.15085917,,,,,,,,,,,,,,,,,,masks/mask_003.jpg,,,,,,,,,,,,,,,,,,,,,,,,,,,,,,,,,,,,,,,,,,,0,0,0,2,1,,,,,,,,,,,,,,,,,,,,,,,,,,,,,,,,,,,,,,,,,,,,,,
152994,001,2022-11-13_17h26.41.407,Info_measure_main_exp,2022.2.2,Win32,61.15085917,,,,,,,,,,,,,,,,,,masks/mask_001.jpg,,,,,,,,,,,,,,,,,,,,,,,,,,,,,,,,,,,,,,,,,,,0,1,1,0,1,,,,,,,,,,,,,,,,,,,,,,,,,,,,,,,,,,,,,,,,,,,,,,
152994,001,2022-11-13_17h26.41.407,Info_measure_main_exp,2022.2.2,Win32,61.15085917,,,,,,,,,,,,,,,,,,masks/mask_002.jpg,,,,,,,,,,,,,,,,,,,,,,,,,,,,,,,,,,,,,,,,,,,0,2,2,1,1,,,,,,,,,,,,,,,,,,,,,,,,,,,,,,,,,,,,,,,,,,,,,,
152994,001,2022-11-13_17h26.41.407,Info_measure_main_exp,2022.2.2,Win32,61.15085917,,,,,,,,,,,,,,,,,,masks/mask_004.jpg,,,,,,,,,,,,,,,,,,,,,,,,,,,,,,,,,,,,,,,,,,,0,3,3,3,1,,,,,,,,,,,,,,,,,,,,,,,,,,,,,,,,,,,,,,,,,,,,,,
152994,001,2022-11-13_17h26.41.407,Info_measure_main_exp,2022.2.2,Win32,61.15085917,,,,,,,,,,,,,,,,,,masks/mask_005.jpg,,,,,,,,,,,,,,,,,,,,,,,,,,,,,,,,,,,,,,,,,,,0,4,4,4,1,,,,,,,,,,,,,,,,,,,,,,,,,,,,,,,,,,,,,,,,,,,,,,
152994,001,2022-11-13_17h26.41.407,Info_measure_main_exp,2022.2.2,Win32,61.15085917,,,,,,,,,,,,,,,,,,masks/mask_004.jpg,,,,,,,,,,,,,,,,,,,,,,,,,,,,,,,,,,,,,,,,,,,,,,,,0,0,0,3,1,,,,,,,,,,,,,,,,,,,,,,,,,,,,,,,,,,,,,,,,,
152994,001,2022-11-13_17h26.41.407,Info_measure_main_exp,2022.2.2,Win32,61.15085917,,,,,,,,,,,,,,,,,,masks/mask_002.jpg,,,,,,,,,,,,,,,,,,,,,,,,,,,,,,,,,,,,,,,,,,,,,,,,0,1,1,1,1,,,,,,,,,,,,,,,,,,,,,,,,,,,,,,,,,,,,,,,,,
152994,001,2022-11-13_17h26.41.407,Info_measure_main_exp,2022.2.2,Win32,61.15085917,,,,,,,,,,,,,,,,,,masks/mask_005.jpg,,,,,,,,,,,,,,,,,,,,,,,,,,,,,,,,,,,,,,,,,,,,,,,,0,2,2,4,1,,,,,,,,,,,,,,,,,,,,,,,,,,,,,,,,,,,,,,,,,
152994,001,2022-11-13_17h26.41.407,Info_measure_main_exp,2022.2.2,Win32,61.15085917,,,,,,,,,,,,,,,,,,masks/mask_001.jpg,,,,,,,,,,,,,,,,,,,,,,,,,,,,,,,,,,,,,,,,,,,,,,,,0,3,3,0,1,,,,,,,,,,,,,,,,,,,,,,,,,,,,,,,,,,,,,,,,,
152994,001,2022-11-13_17h26.41.407,Info_measure_main_exp,2022.2.2,Win32,61.15085917,,,,,,,,,,,,,,,,,,masks/mask_003.jpg,,,,,,,,,,,,,,,,,,,,,,,,,,,,,,,,,,,,,,,,,,,,,,,,0,4,4,2,1,,,,,,,,,,,,,,,,,,,,,,,,,,,,,,,,,,,,,,,,,
152994,001,2022-11-13_17h26.41.407,Info_measure_main_exp,2022.2.2,Win32,61.15085917,,,,,,,,,,,,,,,,,,,,,,,,,,,,,,5,0.6625,1,,,,,,,,,,,,1,131,5,5,1,2214,present_patch/cong_131_5_a.jpg,absent_patch/patch0002214.jpg,,,,,,,,,,,,,,,,,,,,0.10546875,-0.032552083,1,0,0,response3disk,20,0.01171875,-0.00390625,1,0,0,center_square,0,19,19,4,1,,,,,,,,,,,,,,,,,,,,,,,
152994,001,2022-11-13_17h26.41.407,Info_measure_main_exp,2022.2.2,Win32,61.15085917,,,,,,,,,,,,,,,,,,masks/mask_003.jpg,,,,,,,,,,,,,,,,,,,,,,,,,,,,,,,,,,,,,,,,,,,0,0,0,2,1,,,,,,,,,,,,,,,,,,,,,,,,,,,,,,,,,,,,,,,,,,,,,,
152994,001,2022-11-13_17h26.41.407,Info_measure_main_exp,2022.2.2,Win32,61.15085917,,,,,,,,,,,,,,,,,,masks/mask_005.jpg,,,,,,,,,,,,,,,,,,,,,,,,,,,,,,,,,,,,,,,,,,,0,1,1,4,1,,,,,,,,,,,,,,,,,,,,,,,,,,,,,,,,,,,,,,,,,,,,,,
152994,001,2022-11-13_17h26.41.407,Info_measure_main_exp,2022.2.2,Win32,61.15085917,,,,,,,,,,,,,,,,,,masks/mask_001.jpg,,,,,,,,,,,,,,,,,,,,,,,,,,,,,,,,,,,,,,,,,,,0,2,2,0,1,,,,,,,,,,,,,,,,,,,,,,,,,,,,,,,,,,,,,,,,,,,,,,
152994,001,2022-11-13_17h26.41.407,Info_measure_main_exp,2022.2.2,Win32,61.15085917,,,,,,,,,,,,,,,,,,masks/mask_004.jpg,,,,,,,,,,,,,,,,,,,,,,,,,,,,,,,,,,,,,,,,,,,0,3,3,3,1,,,,,,,,,,,,,,,,,,,,,,,,,,,,,,,,,,,,,,,,,,,,,,
152994,001,2022-11-13_17h26.41.407,Info_measure_main_exp,2022.2.2,Win32,61.15085917,,,,,,,,,,,,,,,,,,masks/mask_002.jpg,,,,,,,,,,,,,,,,,,,,,,,,,,,,,,,,,,,,,,,,,,,0,4,4,1,1,,,,,,,,,,,,,,,,,,,,,,,,,,,,,,,,,,,,,,,,,,,,,,
152994,001,2022-11-13_17h26.41.407,Info_measure_main_exp,2022.2.2,Win32,61.15085917,,,,,,,,,,,,,,,,,,masks/mask_003.jpg,,,,,,,,,,,,,,,,,,,,,,,,,,,,,,,,,,,,,,,,,,,,,,,,0,0,0,2,1,,,,,,,,,,,,,,,,,,,,,,,,,,,,,,,,,,,,,,,,,
152994,001,2022-11-13_17h26.41.407,Info_measure_main_exp,2022.2.2,Win32,61.15085917,,,,,,,,,,,,,,,,,,masks/mask_001.jpg,,,,,,,,,,,,,,,,,,,,,,,,,,,,,,,,,,,,,,,,,,,,,,,,0,1,1,0,1,,,,,,,,,,,,,,,,,,,,,,,,,,,,,,,,,,,,,,,,,
152994,001,2022-11-13_17h26.41.407,Info_measure_main_exp,2022.2.2,Win32,61.15085917,,,,,,,,,,,,,,,,,,masks/mask_002.jpg,,,,,,,,,,,,,,,,,,,,,,,,,,,,,,,,,,,,,,,,,,,,,,,,0,2,2,1,1,,,,,,,,,,,,,,,,,,,,,,,,,,,,,,,,,,,,,,,,,
152994,001,2022-11-13_17h26.41.407,Info_measure_main_exp,2022.2.2,Win32,61.15085917,,,,,,,,,,,,,,,,,,masks/mask_005.jpg,,,,,,,,,,,,,,,,,,,,,,,,,,,,,,,,,,,,,,,,,,,,,,,,0,3,3,4,1,,,,,,,,,,,,,,,,,,,,,,,,,,,,,,,,,,,,,,,,,
152994,001,2022-11-13_17h26.41.407,Info_measure_main_exp,2022.2.2,Win32,61.15085917,,,,,,,,,,,,,,,,,,masks/mask_004.jpg,,,,,,,,,,,,,,,,,,,,,,,,,,,,,,,,,,,,,,,,,,,,,,,,0,4,4,3,1,,,,,,,,,,,,,,,,,,,,,,,,,,,,,,,,,,,,,,,,,
152994,001,2022-11-13_17h26.41.407,Info_measure_main_exp,2022.2.2,Win32,61.15085917,,,,,,,,,,,,,,,,,,,,,,,,,,,,,,5,1.5994,1,,,,,,,,,,,,0,131,5,5,2250,2178,absent_patch/patch0002250.jpg,absent_patch/patch0002178.jpg,,,,,,,,,,,,,,,,,,,,0.12890625,-0.022135417,1,0,0,response3disk,21,-0.001302083,0.00390625,1,0,0,center_square,0,20,20,48,1,,,,,,,,,,,,,,,,,,,,,,,
152994,001,2022-11-13_17h26.41.407,Info_measure_main_exp,2022.2.2,Win32,61.15085917,,,,,,,,,,,,,,,,,,masks/mask_003.jpg,,,,,,,,,,,,,,,,,,,,,,,,,,,,,,,,,,,,,,,,,,,0,0,0,2,1,,,,,,,,,,,,,,,,,,,,,,,,,,,,,,,,,,,,,,,,,,,,,,
152994,001,2022-11-13_17h26.41.407,Info_measure_main_exp,2022.2.2,Win32,61.15085917,,,,,,,,,,,,,,,,,,masks/mask_005.jpg,,,,,,,,,,,,,,,,,,,,,,,,,,,,,,,,,,,,,,,,,,,0,1,1,4,1,,,,,,,,,,,,,,,,,,,,,,,,,,,,,,,,,,,,,,,,,,,,,,
152994,001,2022-11-13_17h26.41.407,Info_measure_main_exp,2022.2.2,Win32,61.15085917,,,,,,,,,,,,,,,,,,masks/mask_001.jpg,,,,,,,,,,,,,,,,,,,,,,,,,,,,,,,,,,,,,,,,,,,0,2,2,0,1,,,,,,,,,,,,,,,,,,,,,,,,,,,,,,,,,,,,,,,,,,,,,,
152994,001,2022-11-13_17h26.41.407,Info_measure_main_exp,2022.2.2,Win32,61.15085917,,,,,,,,,,,,,,,,,,masks/mask_002.jpg,,,,,,,,,,,,,,,,,,,,,,,,,,,,,,,,,,,,,,,,,,,0,3,3,1,1,,,,,,,,,,,,,,,,,,,,,,,,,,,,,,,,,,,,,,,,,,,,,,
152994,001,2022-11-13_17h26.41.407,Info_measure_main_exp,2022.2.2,Win32,61.15085917,,,,,,,,,,,,,,,,,,masks/mask_004.jpg,,,,,,,,,,,,,,,,,,,,,,,,,,,,,,,,,,,,,,,,,,,0,4,4,3,1,,,,,,,,,,,,,,,,,,,,,,,,,,,,,,,,,,,,,,,,,,,,,,
152994,001,2022-11-13_17h26.41.407,Info_measure_main_exp,2022.2.2,Win32,61.15085917,,,,,,,,,,,,,,,,,,masks/mask_004.jpg,,,,,,,,,,,,,,,,,,,,,,,,,,,,,,,,,,,,,,,,,,,,,,,,0,0,0,3,1,,,,,,,,,,,,,,,,,,,,,,,,,,,,,,,,,,,,,,,,,
152994,001,2022-11-13_17h26.41.407,Info_measure_main_exp,2022.2.2,Win32,61.15085917,,,,,,,,,,,,,,,,,,masks/mask_002.jpg,,,,,,,,,,,,,,,,,,,,,,,,,,,,,,,,,,,,,,,,,,,,,,,,0,1,1,1,1,,,,,,,,,,,,,,,,,,,,,,,,,,,,,,,,,,,,,,,,,
152994,001,2022-11-13_17h26.41.407,Info_measure_main_exp,2022.2.2,Win32,61.15085917,,,,,,,,,,,,,,,,,,masks/mask_005.jpg,,,,,,,,,,,,,,,,,,,,,,,,,,,,,,,,,,,,,,,,,,,,,,,,0,2,2,4,1,,,,,,,,,,,,,,,,,,,,,,,,,,,,,,,,,,,,,,,,,
152994,001,2022-11-13_17h26.41.407,Info_measure_main_exp,2022.2.2,Win32,61.15085917,,,,,,,,,,,,,,,,,,masks/mask_003.jpg,,,,,,,,,,,,,,,,,,,,,,,,,,,,,,,,,,,,,,,,,,,,,,,,0,3,3,2,1,,,,,,,,,,,,,,,,,,,,,,,,,,,,,,,,,,,,,,,,,
152994,001,2022-11-13_17h26.41.407,Info_measure_main_exp,2022.2.2,Win32,61.15085917,,,,,,,,,,,,,,,,,,masks/mask_001.jpg,,,,,,,,,,,,,,,,,,,,,,,,,,,,,,,,,,,,,,,,,,,,,,,,0,4,4,0,1,,,,,,,,,,,,,,,,,,,,,,,,,,,,,,,,,,,,,,,,,
152994,001,2022-11-13_17h26.41.407,Info_measure_main_exp,2022.2.2,Win32,61.15085917,,,,,,,,,,,,,,,,,,,,,,,,,,,,,,5,0.6335,1,,,,,,,,,,,,0,131,5,5,1950,2214,absent_patch/patch0001950.jpg,absent_patch/patch0002214.jpg,,,,,,,,,,,,,,,,,,,,0.108072917,-0.014322917,1,0,0,response3disk,22,0.009114583,0.001302083,1,0,0,center_square,0,21,21,85,1,,,,,,,,,,,,,,,,,,,,,,,
152994,001,2022-11-13_17h26.41.407,Info_measure_main_exp,2022.2.2,Win32,61.15085917,,,,,,,,,,,,,,,,,,masks/mask_002.jpg,,,,,,,,,,,,,,,,,,,,,,,,,,,,,,,,,,,,,,,,,,,0,0,0,1,1,,,,,,,,,,,,,,,,,,,,,,,,,,,,,,,,,,,,,,,,,,,,,,
152994,001,2022-11-13_17h26.41.407,Info_measure_main_exp,2022.2.2,Win32,61.15085917,,,,,,,,,,,,,,,,,,masks/mask_004.jpg,,,,,,,,,,,,,,,,,,,,,,,,,,,,,,,,,,,,,,,,,,,0,1,1,3,1,,,,,,,,,,,,,,,,,,,,,,,,,,,,,,,,,,,,,,,,,,,,,,
152994,001,2022-11-13_17h26.41.407,Info_measure_main_exp,2022.2.2,Win32,61.15085917,,,,,,,,,,,,,,,,,,masks/mask_005.jpg,,,,,,,,,,,,,,,,,,,,,,,,,,,,,,,,,,,,,,,,,,,0,2,2,4,1,,,,,,,,,,,,,,,,,,,,,,,,,,,,,,,,,,,,,,,,,,,,,,
152994,001,2022-11-13_17h26.41.407,Info_measure_main_exp,2022.2.2,Win32,61.15085917,,,,,,,,,,,,,,,,,,masks/mask_003.jpg,,,,,,,,,,,,,,,,,,,,,,,,,,,,,,,,,,,,,,,,,,,0,3,3,2,1,,,,,,,,,,,,,,,,,,,,,,,,,,,,,,,,,,,,,,,,,,,,,,
152994,001,2022-11-13_17h26.41.407,Info_measure_main_exp,2022.2.2,Win32,61.15085917,,,,,,,,,,,,,,,,,,masks/mask_001.jpg,,,,,,,,,,,,,,,,,,,,,,,,,,,,,,,,,,,,,,,,,,,0,4,4,0,1,,,,,,,,,,,,,,,,,,,,,,,,,,,,,,,,,,,,,,,,,,,,,,
152994,001,2022-11-13_17h26.41.407,Info_measure_main_exp,2022.2.2,Win32,61.15085917,,,,,,,,,,,,,,,,,,masks/mask_003.jpg,,,,,,,,,,,,,,,,,,,,,,,,,,,,,,,,,,,,,,,,,,,,,,,,0,0,0,2,1,,,,,,,,,,,,,,,,,,,,,,,,,,,,,,,,,,,,,,,,,
152994,001,2022-11-13_17h26.41.407,Info_measure_main_exp,2022.2.2,Win32,61.15085917,,,,,,,,,,,,,,,,,,masks/mask_001.jpg,,,,,,,,,,,,,,,,,,,,,,,,,,,,,,,,,,,,,,,,,,,,,,,,0,1,1,0,1,,,,,,,,,,,,,,,,,,,,,,,,,,,,,,,,,,,,,,,,,
152994,001,2022-11-13_17h26.41.407,Info_measure_main_exp,2022.2.2,Win32,61.15085917,,,,,,,,,,,,,,,,,,masks/mask_002.jpg,,,,,,,,,,,,,,,,,,,,,,,,,,,,,,,,,,,,,,,,,,,,,,,,0,2,2,1,1,,,,,,,,,,,,,,,,,,,,,,,,,,,,,,,,,,,,,,,,,
152994,001,2022-11-13_17h26.41.407,Info_measure_main_exp,2022.2.2,Win32,61.15085917,,,,,,,,,,,,,,,,,,masks/mask_005.jpg,,,,,,,,,,,,,,,,,,,,,,,,,,,,,,,,,,,,,,,,,,,,,,,,0,3,3,4,1,,,,,,,,,,,,,,,,,,,,,,,,,,,,,,,,,,,,,,,,,
152994,001,2022-11-13_17h26.41.407,Info_measure_main_exp,2022.2.2,Win32,61.15085917,,,,,,,,,,,,,,,,,,masks/mask_004.jpg,,,,,,,,,,,,,,,,,,,,,,,,,,,,,,,,,,,,,,,,,,,,,,,,0,4,4,3,1,,,,,,,,,,,,,,,,,,,,,,,,,,,,,,,,,,,,,,,,,
152994,001,2022-11-13_17h26.41.407,Info_measure_main_exp,2022.2.2,Win32,61.15085917,,,,,,,,,,,,,,,,,,,,,,,,,,,,,,4,1.8,1,,,,,,,,,,,,0,131,5,5,2238,2298,absent_patch/patch0002238.jpg,absent_patch/patch0002298.jpg,,,,,,,,,,,,,,,,,,,,0.014322917,-0.115885417,1,0,0,response3disk,23,0.002604167,0.00390625,1,0,0,center_square,0,22,22,51,1,,,,,,,,,,,,,,,,,,,,,,,
152994,001,2022-11-13_17h26.41.407,Info_measure_main_exp,2022.2.2,Win32,61.15085917,,,,,,,,,,,,,,,,,,masks/mask_002.jpg,,,,,,,,,,,,,,,,,,,,,,,,,,,,,,,,,,,,,,,,,,,0,0,0,1,1,,,,,,,,,,,,,,,,,,,,,,,,,,,,,,,,,,,,,,,,,,,,,,
152994,001,2022-11-13_17h26.41.407,Info_measure_main_exp,2022.2.2,Win32,61.15085917,,,,,,,,,,,,,,,,,,masks/mask_003.jpg,,,,,,,,,,,,,,,,,,,,,,,,,,,,,,,,,,,,,,,,,,,0,1,1,2,1,,,,,,,,,,,,,,,,,,,,,,,,,,,,,,,,,,,,,,,,,,,,,,
152994,001,2022-11-13_17h26.41.407,Info_measure_main_exp,2022.2.2,Win32,61.15085917,,,,,,,,,,,,,,,,,,masks/mask_001.jpg,,,,,,,,,,,,,,,,,,,,,,,,,,,,,,,,,,,,,,,,,,,0,2,2,0,1,,,,,,,,,,,,,,,,,,,,,,,,,,,,,,,,,,,,,,,,,,,,,,
152994,001,2022-11-13_17h26.41.407,Info_measure_main_exp,2022.2.2,Win32,61.15085917,,,,,,,,,,,,,,,,,,masks/mask_005.jpg,,,,,,,,,,,,,,,,,,,,,,,,,,,,,,,,,,,,,,,,,,,0,3,3,4,1,,,,,,,,,,,,,,,,,,,,,,,,,,,,,,,,,,,,,,,,,,,,,,
152994,001,2022-11-13_17h26.41.407,Info_measure_main_exp,2022.2.2,Win32,61.15085917,,,,,,,,,,,,,,,,,,masks/mask_004.jpg,,,,,,,,,,,,,,,,,,,,,,,,,,,,,,,,,,,,,,,,,,,0,4,4,3,1,,,,,,,,,,,,,,,,,,,,,,,,,,,,,,,,,,,,,,,,,,,,,,
152994,001,2022-11-13_17h26.41.407,Info_measure_main_exp,2022.2.2,Win32,61.15085917,,,,,,,,,,,,,,,,,,masks/mask_001.jpg,,,,,,,,,,,,,,,,,,,,,,,,,,,,,,,,,,,,,,,,,,,,,,,,0,0,0,0,1,,,,,,,,,,,,,,,,,,,,,,,,,,,,,,,,,,,,,,,,,
152994,001,2022-11-13_17h26.41.407,Info_measure_main_exp,2022.2.2,Win32,61.15085917,,,,,,,,,,,,,,,,,,masks/mask_002.jpg,,,,,,,,,,,,,,,,,,,,,,,,,,,,,,,,,,,,,,,,,,,,,,,,0,1,1,1,1,,,,,,,,,,,,,,,,,,,,,,,,,,,,,,,,,,,,,,,,,
152994,001,2022-11-13_17h26.41.407,Info_measure_main_exp,2022.2.2,Win32,61.15085917,,,,,,,,,,,,,,,,,,masks/mask_003.jpg,,,,,,,,,,,,,,,,,,,,,,,,,,,,,,,,,,,,,,,,,,,,,,,,0,2,2,2,1,,,,,,,,,,,,,,,,,,,,,,,,,,,,,,,,,,,,,,,,,
152994,001,2022-11-13_17h26.41.407,Info_measure_main_exp,2022.2.2,Win32,61.15085917,,,,,,,,,,,,,,,,,,masks/mask_005.jpg,,,,,,,,,,,,,,,,,,,,,,,,,,,,,,,,,,,,,,,,,,,,,,,,0,3,3,4,1,,,,,,,,,,,,,,,,,,,,,,,,,,,,,,,,,,,,,,,,,
152994,001,2022-11-13_17h26.41.407,Info_measure_main_exp,2022.2.2,Win32,61.15085917,,,,,,,,,,,,,,,,,,masks/mask_004.jpg,,,,,,,,,,,,,,,,,,,,,,,,,,,,,,,,,,,,,,,,,,,,,,,,0,4,4,3,1,,,,,,,,,,,,,,,,,,,,,,,,,,,,,,,,,,,,,,,,,
152994,001,2022-11-13_17h26.41.407,Info_measure_main_exp,2022.2.2,Win32,61.15085917,,,,,,,,,,,,,,,,,,,,,,,,,,,,,,5,0.9835,1,,,,,,,,,,,,0,131,5,5,2190,2166,absent_patch/patch0002190.jpg,absent_patch/patch0002166.jpg,,,,,,,,,,,,,,,,,,,,0.1015625,-0.033854167,1,0,0,response3disk,24,0,-0.00390625,1,0,0,center_square,0,23,23,50,1,,,,,,,,,,,,,,,,,,,,,,,
152994,001,2022-11-13_17h26.41.407,Info_measure_main_exp,2022.2.2,Win32,61.15085917,,,,,,,,,,,,,,,,,,masks/mask_002.jpg,,,,,,,,,,,,,,,,,,,,,,,,,,,,,,,,,,,,,,,,,,,0,0,0,1,1,,,,,,,,,,,,,,,,,,,,,,,,,,,,,,,,,,,,,,,,,,,,,,
152994,001,2022-11-13_17h26.41.407,Info_measure_main_exp,2022.2.2,Win32,61.15085917,,,,,,,,,,,,,,,,,,masks/mask_003.jpg,,,,,,,,,,,,,,,,,,,,,,,,,,,,,,,,,,,,,,,,,,,0,1,1,2,1,,,,,,,,,,,,,,,,,,,,,,,,,,,,,,,,,,,,,,,,,,,,,,
152994,001,2022-11-13_17h26.41.407,Info_measure_main_exp,2022.2.2,Win32,61.15085917,,,,,,,,,,,,,,,,,,masks/mask_001.jpg,,,,,,,,,,,,,,,,,,,,,,,,,,,,,,,,,,,,,,,,,,,0,2,2,0,1,,,,,,,,,,,,,,,,,,,,,,,,,,,,,,,,,,,,,,,,,,,,,,
152994,001,2022-11-13_17h26.41.407,Info_measure_main_exp,2022.2.2,Win32,61.15085917,,,,,,,,,,,,,,,,,,masks/mask_005.jpg,,,,,,,,,,,,,,,,,,,,,,,,,,,,,,,,,,,,,,,,,,,0,3,3,4,1,,,,,,,,,,,,,,,,,,,,,,,,,,,,,,,,,,,,,,,,,,,,,,
152994,001,2022-11-13_17h26.41.407,Info_measure_main_exp,2022.2.2,Win32,61.15085917,,,,,,,,,,,,,,,,,,masks/mask_004.jpg,,,,,,,,,,,,,,,,,,,,,,,,,,,,,,,,,,,,,,,,,,,0,4,4,3,1,,,,,,,,,,,,,,,,,,,,,,,,,,,,,,,,,,,,,,,,,,,,,,
152994,001,2022-11-13_17h26.41.407,Info_measure_main_exp,2022.2.2,Win32,61.15085917,,,,,,,,,,,,,,,,,,masks/mask_005.jpg,,,,,,,,,,,,,,,,,,,,,,,,,,,,,,,,,,,,,,,,,,,,,,,,0,0,0,4,1,,,,,,,,,,,,,,,,,,,,,,,,,,,,,,,,,,,,,,,,,
152994,001,2022-11-13_17h26.41.407,Info_measure_main_exp,2022.2.2,Win32,61.15085917,,,,,,,,,,,,,,,,,,masks/mask_002.jpg,,,,,,,,,,,,,,,,,,,,,,,,,,,,,,,,,,,,,,,,,,,,,,,,0,1,1,1,1,,,,,,,,,,,,,,,,,,,,,,,,,,,,,,,,,,,,,,,,,
152994,001,2022-11-13_17h26.41.407,Info_measure_main_exp,2022.2.2,Win32,61.15085917,,,,,,,,,,,,,,,,,,masks/mask_003.jpg,,,,,,,,,,,,,,,,,,,,,,,,,,,,,,,,,,,,,,,,,,,,,,,,0,2,2,2,1,,,,,,,,,,,,,,,,,,,,,,,,,,,,,,,,,,,,,,,,,
152994,001,2022-11-13_17h26.41.407,Info_measure_main_exp,2022.2.2,Win32,61.15085917,,,,,,,,,,,,,,,,,,masks/mask_001.jpg,,,,,,,,,,,,,,,,,,,,,,,,,,,,,,,,,,,,,,,,,,,,,,,,0,3,3,0,1,,,,,,,,,,,,,,,,,,,,,,,,,,,,,,,,,,,,,,,,,
152994,001,2022-11-13_17h26.41.407,Info_measure_main_exp,2022.2.2,Win32,61.15085917,,,,,,,,,,,,,,,,,,masks/mask_004.jpg,,,,,,,,,,,,,,,,,,,,,,,,,,,,,,,,,,,,,,,,,,,,,,,,0,4,4,3,1,,,,,,,,,,,,,,,,,,,,,,,,,,,,,,,,,,,,,,,,,
152994,001,2022-11-13_17h26.41.407,Info_measure_main_exp,2022.2.2,Win32,61.15085917,,,,,,,,,,,,,,,,,,,,,,,,,,,,,,5,0.7456,1,,,,,,,,,,,,0,131,5,5,1974,2238,absent_patch/patch0001974.jpg,absent_patch/patch0002238.jpg,,,,,,,,,,,,,,,,,,,,0.0703125,-0.033854167,1,0,0,response3disk,25,0.006510417,0.001302083,1,0,0,center_square,0,24,24,95,1,,,,,,,,,,,,,,,,,,,,,,,
152994,001,2022-11-13_17h26.41.407,Info_measure_main_exp,2022.2.2,Win32,61.15085917,,,,,,,,,,,,,,,,,,masks/mask_005.jpg,,,,,,,,,,,,,,,,,,,,,,,,,,,,,,,,,,,,,,,,,,,0,0,0,4,1,,,,,,,,,,,,,,,,,,,,,,,,,,,,,,,,,,,,,,,,,,,,,,
152994,001,2022-11-13_17h26.41.407,Info_measure_main_exp,2022.2.2,Win32,61.15085917,,,,,,,,,,,,,,,,,,masks/mask_002.jpg,,,,,,,,,,,,,,,,,,,,,,,,,,,,,,,,,,,,,,,,,,,0,1,1,1,1,,,,,,,,,,,,,,,,,,,,,,,,,,,,,,,,,,,,,,,,,,,,,,
152994,001,2022-11-13_17h26.41.407,Info_measure_main_exp,2022.2.2,Win32,61.15085917,,,,,,,,,,,,,,,,,,masks/mask_003.jpg,,,,,,,,,,,,,,,,,,,,,,,,,,,,,,,,,,,,,,,,,,,0,2,2,2,1,,,,,,,,,,,,,,,,,,,,,,,,,,,,,,,,,,,,,,,,,,,,,,
152994,001,2022-11-13_17h26.41.407,Info_measure_main_exp,2022.2.2,Win32,61.15085917,,,,,,,,,,,,,,,,,,masks/mask_004.jpg,,,,,,,,,,,,,,,,,,,,,,,,,,,,,,,,,,,,,,,,,,,0,3,3,3,1,,,,,,,,,,,,,,,,,,,,,,,,,,,,,,,,,,,,,,,,,,,,,,
152994,001,2022-11-13_17h26.41.407,Info_measure_main_exp,2022.2.2,Win32,61.15085917,,,,,,,,,,,,,,,,,,masks/mask_001.jpg,,,,,,,,,,,,,,,,,,,,,,,,,,,,,,,,,,,,,,,,,,,0,4,4,0,1,,,,,,,,,,,,,,,,,,,,,,,,,,,,,,,,,,,,,,,,,,,,,,
152994,001,2022-11-13_17h26.41.407,Info_measure_main_exp,2022.2.2,Win32,61.15085917,,,,,,,,,,,,,,,,,,masks/mask_002.jpg,,,,,,,,,,,,,,,,,,,,,,,,,,,,,,,,,,,,,,,,,,,,,,,,0,0,0,1,1,,,,,,,,,,,,,,,,,,,,,,,,,,,,,,,,,,,,,,,,,
152994,001,2022-11-13_17h26.41.407,Info_measure_main_exp,2022.2.2,Win32,61.15085917,,,,,,,,,,,,,,,,,,masks/mask_005.jpg,,,,,,,,,,,,,,,,,,,,,,,,,,,,,,,,,,,,,,,,,,,,,,,,0,1,1,4,1,,,,,,,,,,,,,,,,,,,,,,,,,,,,,,,,,,,,,,,,,
152994,001,2022-11-13_17h26.41.407,Info_measure_main_exp,2022.2.2,Win32,61.15085917,,,,,,,,,,,,,,,,,,masks/mask_004.jpg,,,,,,,,,,,,,,,,,,,,,,,,,,,,,,,,,,,,,,,,,,,,,,,,0,2,2,3,1,,,,,,,,,,,,,,,,,,,,,,,,,,,,,,,,,,,,,,,,,
152994,001,2022-11-13_17h26.41.407,Info_measure_main_exp,2022.2.2,Win32,61.15085917,,,,,,,,,,,,,,,,,,masks/mask_001.jpg,,,,,,,,,,,,,,,,,,,,,,,,,,,,,,,,,,,,,,,,,,,,,,,,0,3,3,0,1,,,,,,,,,,,,,,,,,,,,,,,,,,,,,,,,,,,,,,,,,
152994,001,2022-11-13_17h26.41.407,Info_measure_main_exp,2022.2.2,Win32,61.15085917,,,,,,,,,,,,,,,,,,masks/mask_003.jpg,,,,,,,,,,,,,,,,,,,,,,,,,,,,,,,,,,,,,,,,,,,,,,,,0,4,4,2,1,,,,,,,,,,,,,,,,,,,,,,,,,,,,,,,,,,,,,,,,,
152994,001,2022-11-13_17h26.41.407,Info_measure_main_exp,2022.2.2,Win32,61.15085917,,,,,,,,,,,,,,,,,,,,,,,,,,,,,,4,1.2668,1,,,,,,,,,,,,0,131,5,5,2250,2238,absent_patch/patch0002250.jpg,absent_patch/patch0002238.jpg,,,,,,,,,,,,,,,,,,,,0.020833333,-0.106770833,1,0,0,response3disk,26,0.001302083,0.002604167,1,0,0,center_square,0,25,25,110,1,,,,,,,,,,,,,,,,,,,,,,,
152994,001,2022-11-13_17h26.41.407,Info_measure_main_exp,2022.2.2,Win32,61.15085917,,,,,,,,,,,,,,,,,,masks/mask_003.jpg,,,,,,,,,,,,,,,,,,,,,,,,,,,,,,,,,,,,,,,,,,,0,0,0,2,1,,,,,,,,,,,,,,,,,,,,,,,,,,,,,,,,,,,,,,,,,,,,,,
152994,001,2022-11-13_17h26.41.407,Info_measure_main_exp,2022.2.2,Win32,61.15085917,,,,,,,,,,,,,,,,,,masks/mask_005.jpg,,,,,,,,,,,,,,,,,,,,,,,,,,,,,,,,,,,,,,,,,,,0,1,1,4,1,,,,,,,,,,,,,,,,,,,,,,,,,,,,,,,,,,,,,,,,,,,,,,
152994,001,2022-11-13_17h26.41.407,Info_measure_main_exp,2022.2.2,Win32,61.15085917,,,,,,,,,,,,,,,,,,masks/mask_001.jpg,,,,,,,,,,,,,,,,,,,,,,,,,,,,,,,,,,,,,,,,,,,0,2,2,0,1,,,,,,,,,,,,,,,,,,,,,,,,,,,,,,,,,,,,,,,,,,,,,,
152994,001,2022-11-13_17h26.41.407,Info_measure_main_exp,2022.2.2,Win32,61.15085917,,,,,,,,,,,,,,,,,,masks/mask_002.jpg,,,,,,,,,,,,,,,,,,,,,,,,,,,,,,,,,,,,,,,,,,,0,3,3,1,1,,,,,,,,,,,,,,,,,,,,,,,,,,,,,,,,,,,,,,,,,,,,,,
152994,001,2022-11-13_17h26.41.407,Info_measure_main_exp,2022.2.2,Win32,61.15085917,,,,,,,,,,,,,,,,,,masks/mask_004.jpg,,,,,,,,,,,,,,,,,,,,,,,,,,,,,,,,,,,,,,,,,,,0,4,4,3,1,,,,,,,,,,,,,,,,,,,,,,,,,,,,,,,,,,,,,,,,,,,,,,
152994,001,2022-11-13_17h26.41.407,Info_measure_main_exp,2022.2.2,Win32,61.15085917,,,,,,,,,,,,,,,,,,masks/mask_004.jpg,,,,,,,,,,,,,,,,,,,,,,,,,,,,,,,,,,,,,,,,,,,,,,,,0,0,0,3,1,,,,,,,,,,,,,,,,,,,,,,,,,,,,,,,,,,,,,,,,,
152994,001,2022-11-13_17h26.41.407,Info_measure_main_exp,2022.2.2,Win32,61.15085917,,,,,,,,,,,,,,,,,,masks/mask_003.jpg,,,,,,,,,,,,,,,,,,,,,,,,,,,,,,,,,,,,,,,,,,,,,,,,0,1,1,2,1,,,,,,,,,,,,,,,,,,,,,,,,,,,,,,,,,,,,,,,,,
152994,001,2022-11-13_17h26.41.407,Info_measure_main_exp,2022.2.2,Win32,61.15085917,,,,,,,,,,,,,,,,,,masks/mask_002.jpg,,,,,,,,,,,,,,,,,,,,,,,,,,,,,,,,,,,,,,,,,,,,,,,,0,2,2,1,1,,,,,,,,,,,,,,,,,,,,,,,,,,,,,,,,,,,,,,,,,
152994,001,2022-11-13_17h26.41.407,Info_measure_main_exp,2022.2.2,Win32,61.15085917,,,,,,,,,,,,,,,,,,masks/mask_005.jpg,,,,,,,,,,,,,,,,,,,,,,,,,,,,,,,,,,,,,,,,,,,,,,,,0,3,3,4,1,,,,,,,,,,,,,,,,,,,,,,,,,,,,,,,,,,,,,,,,,
152994,001,2022-11-13_17h26.41.407,Info_measure_main_exp,2022.2.2,Win32,61.15085917,,,,,,,,,,,,,,,,,,masks/mask_001.jpg,,,,,,,,,,,,,,,,,,,,,,,,,,,,,,,,,,,,,,,,,,,,,,,,0,4,4,0,1,,,,,,,,,,,,,,,,,,,,,,,,,,,,,,,,,,,,,,,,,
152994,001,2022-11-13_17h26.41.407,Info_measure_main_exp,2022.2.2,Win32,61.15085917,,,,,,,,,,,,,,,,,,,,,,,,,,,,,,5,0.6784,1,,,,,,,,,,,,0,131,5,5,2190,1950,absent_patch/patch0002190.jpg,absent_patch/patch0001950.jpg,,,,,,,,,,,,,,,,,,,,0.09375,-0.040364583,1,0,0,response3disk,27,0.00390625,0.006510417,1,0,0,center_square,0,26,26,73,1,,,,,,,,,,,,,,,,,,,,,,,
152994,001,2022-11-13_17h26.41.407,Info_measure_main_exp,2022.2.2,Win32,61.15085917,,,,,,,,,,,,,,,,,,masks/mask_004.jpg,,,,,,,,,,,,,,,,,,,,,,,,,,,,,,,,,,,,,,,,,,,0,0,0,3,1,,,,,,,,,,,,,,,,,,,,,,,,,,,,,,,,,,,,,,,,,,,,,,
152994,001,2022-11-13_17h26.41.407,Info_measure_main_exp,2022.2.2,Win32,61.15085917,,,,,,,,,,,,,,,,,,masks/mask_003.jpg,,,,,,,,,,,,,,,,,,,,,,,,,,,,,,,,,,,,,,,,,,,0,1,1,2,1,,,,,,,,,,,,,,,,,,,,,,,,,,,,,,,,,,,,,,,,,,,,,,
152994,001,2022-11-13_17h26.41.407,Info_measure_main_exp,2022.2.2,Win32,61.15085917,,,,,,,,,,,,,,,,,,masks/mask_005.jpg,,,,,,,,,,,,,,,,,,,,,,,,,,,,,,,,,,,,,,,,,,,0,2,2,4,1,,,,,,,,,,,,,,,,,,,,,,,,,,,,,,,,,,,,,,,,,,,,,,
152994,001,2022-11-13_17h26.41.407,Info_measure_main_exp,2022.2.2,Win32,61.15085917,,,,,,,,,,,,,,,,,,masks/mask_001.jpg,,,,,,,,,,,,,,,,,,,,,,,,,,,,,,,,,,,,,,,,,,,0,3,3,0,1,,,,,,,,,,,,,,,,,,,,,,,,,,,,,,,,,,,,,,,,,,,,,,
152994,001,2022-11-13_17h26.41.407,Info_measure_main_exp,2022.2.2,Win32,61.15085917,,,,,,,,,,,,,,,,,,masks/mask_002.jpg,,,,,,,,,,,,,,,,,,,,,,,,,,,,,,,,,,,,,,,,,,,0,4,4,1,1,,,,,,,,,,,,,,,,,,,,,,,,,,,,,,,,,,,,,,,,,,,,,,
152994,001,2022-11-13_17h26.41.407,Info_measure_main_exp,2022.2.2,Win32,61.15085917,,,,,,,,,,,,,,,,,,masks/mask_005.jpg,,,,,,,,,,,,,,,,,,,,,,,,,,,,,,,,,,,,,,,,,,,,,,,,0,0,0,4,1,,,,,,,,,,,,,,,,,,,,,,,,,,,,,,,,,,,,,,,,,
152994,001,2022-11-13_17h26.41.407,Info_measure_main_exp,2022.2.2,Win32,61.15085917,,,,,,,,,,,,,,,,,,masks/mask_003.jpg,,,,,,,,,,,,,,,,,,,,,,,,,,,,,,,,,,,,,,,,,,,,,,,,0,1,1,2,1,,,,,,,,,,,,,,,,,,,,,,,,,,,,,,,,,,,,,,,,,
152994,001,2022-11-13_17h26.41.407,Info_measure_main_exp,2022.2.2,Win32,61.15085917,,,,,,,,,,,,,,,,,,masks/mask_004.jpg,,,,,,,,,,,,,,,,,,,,,,,,,,,,,,,,,,,,,,,,,,,,,,,,0,2,2,3,1,,,,,,,,,,,,,,,,,,,,,,,,,,,,,,,,,,,,,,,,,
152994,001,2022-11-13_17h26.41.407,Info_measure_main_exp,2022.2.2,Win32,61.15085917,,,,,,,,,,,,,,,,,,masks/mask_001.jpg,,,,,,,,,,,,,,,,,,,,,,,,,,,,,,,,,,,,,,,,,,,,,,,,0,3,3,0,1,,,,,,,,,,,,,,,,,,,,,,,,,,,,,,,,,,,,,,,,,
152994,001,2022-11-13_17h26.41.407,Info_measure_main_exp,2022.2.2,Win32,61.15085917,,,,,,,,,,,,,,,,,,masks/mask_002.jpg,,,,,,,,,,,,,,,,,,,,,,,,,,,,,,,,,,,,,,,,,,,,,,,,0,4,4,1,1,,,,,,,,,,,,,,,,,,,,,,,,,,,,,,,,,,,,,,,,,
152994,001,2022-11-13_17h26.41.407,Info_measure_main_exp,2022.2.2,Win32,61.15085917,,,,,,,,,,,,,,,,,,,,,,,,,,,,,,4,1.4619,1,,,,,,,,,,,,0,131,5,5,2082,2298,absent_patch/patch0002082.jpg,absent_patch/patch0002298.jpg,,,,,,,,,,,,,,,,,,,,0.04296875,-0.098958333,1,0,0,response3disk,28,0.001302083,0.0078125,1,0,0,center_square,0,27,27,107,1,,,,,,,,,,,,,,,,,,,,,,,
152994,001,2022-11-13_17h26.41.407,Info_measure_main_exp,2022.2.2,Win32,61.15085917,,,,,,,,,,,,,,,,,,masks/mask_005.jpg,,,,,,,,,,,,,,,,,,,,,,,,,,,,,,,,,,,,,,,,,,,0,0,0,4,1,,,,,,,,,,,,,,,,,,,,,,,,,,,,,,,,,,,,,,,,,,,,,,
152994,001,2022-11-13_17h26.41.407,Info_measure_main_exp,2022.2.2,Win32,61.15085917,,,,,,,,,,,,,,,,,,masks/mask_002.jpg,,,,,,,,,,,,,,,,,,,,,,,,,,,,,,,,,,,,,,,,,,,0,1,1,1,1,,,,,,,,,,,,,,,,,,,,,,,,,,,,,,,,,,,,,,,,,,,,,,
152994,001,2022-11-13_17h26.41.407,Info_measure_main_exp,2022.2.2,Win32,61.15085917,,,,,,,,,,,,,,,,,,masks/mask_003.jpg,,,,,,,,,,,,,,,,,,,,,,,,,,,,,,,,,,,,,,,,,,,0,2,2,2,1,,,,,,,,,,,,,,,,,,,,,,,,,,,,,,,,,,,,,,,,,,,,,,
152994,001,2022-11-13_17h26.41.407,Info_measure_main_exp,2022.2.2,Win32,61.15085917,,,,,,,,,,,,,,,,,,masks/mask_001.jpg,,,,,,,,,,,,,,,,,,,,,,,,,,,,,,,,,,,,,,,,,,,0,3,3,0,1,,,,,,,,,,,,,,,,,,,,,,,,,,,,,,,,,,,,,,,,,,,,,,
152994,001,2022-11-13_17h26.41.407,Info_measure_main_exp,2022.2.2,Win32,61.15085917,,,,,,,,,,,,,,,,,,masks/mask_004.jpg,,,,,,,,,,,,,,,,,,,,,,,,,,,,,,,,,,,,,,,,,,,0,4,4,3,1,,,,,,,,,,,,,,,,,,,,,,,,,,,,,,,,,,,,,,,,,,,,,,
152994,001,2022-11-13_17h26.41.407,Info_measure_main_exp,2022.2.2,Win32,61.15085917,,,,,,,,,,,,,,,,,,masks/mask_004.jpg,,,,,,,,,,,,,,,,,,,,,,,,,,,,,,,,,,,,,,,,,,,,,,,,0,0,0,3,1,,,,,,,,,,,,,,,,,,,,,,,,,,,,,,,,,,,,,,,,,
152994,001,2022-11-13_17h26.41.407,Info_measure_main_exp,2022.2.2,Win32,61.15085917,,,,,,,,,,,,,,,,,,masks/mask_001.jpg,,,,,,,,,,,,,,,,,,,,,,,,,,,,,,,,,,,,,,,,,,,,,,,,0,1,1,0,1,,,,,,,,,,,,,,,,,,,,,,,,,,,,,,,,,,,,,,,,,
152994,001,2022-11-13_17h26.41.407,Info_measure_main_exp,2022.2.2,Win32,61.15085917,,,,,,,,,,,,,,,,,,masks/mask_003.jpg,,,,,,,,,,,,,,,,,,,,,,,,,,,,,,,,,,,,,,,,,,,,,,,,0,2,2,2,1,,,,,,,,,,,,,,,,,,,,,,,,,,,,,,,,,,,,,,,,,
152994,001,2022-11-13_17h26.41.407,Info_measure_main_exp,2022.2.2,Win32,61.15085917,,,,,,,,,,,,,,,,,,masks/mask_002.jpg,,,,,,,,,,,,,,,,,,,,,,,,,,,,,,,,,,,,,,,,,,,,,,,,0,3,3,1,1,,,,,,,,,,,,,,,,,,,,,,,,,,,,,,,,,,,,,,,,,
152994,001,2022-11-13_17h26.41.407,Info_measure_main_exp,2022.2.2,Win32,61.15085917,,,,,,,,,,,,,,,,,,masks/mask_005.jpg,,,,,,,,,,,,,,,,,,,,,,,,,,,,,,,,,,,,,,,,,,,,,,,,0,4,4,4,1,,,,,,,,,,,,,,,,,,,,,,,,,,,,,,,,,,,,,,,,,
152994,001,2022-11-13_17h26.41.407,Info_measure_main_exp,2022.2.2,Win32,61.15085917,,,,,,,,,,,,,,,,,,,,,,,,,,,,,,2,1.0539,1,,,,,,,,,,,,1,131,5,5,1,2166,present_patch/cong_131_5_a.jpg,absent_patch/patch0002166.jpg,,,,,,,,,,,,,,,,,,,,-0.08984375,-0.06640625,1,0,0,response5disk,29,0.005208333,0,1,0,0,center_square,0,28,28,54,1,,,,,,,,,,,,,,,,,,,,,,,
152994,001,2022-11-13_17h26.41.407,Info_measure_main_exp,2022.2.2,Win32,61.15085917,,,,,,,,,,,,,,,,,,masks/mask_003.jpg,,,,,,,,,,,,,,,,,,,,,,,,,,,,,,,,,,,,,,,,,,,0,0,0,2,1,,,,,,,,,,,,,,,,,,,,,,,,,,,,,,,,,,,,,,,,,,,,,,
152994,001,2022-11-13_17h26.41.407,Info_measure_main_exp,2022.2.2,Win32,61.15085917,,,,,,,,,,,,,,,,,,masks/mask_004.jpg,,,,,,,,,,,,,,,,,,,,,,,,,,,,,,,,,,,,,,,,,,,0,1,1,3,1,,,,,,,,,,,,,,,,,,,,,,,,,,,,,,,,,,,,,,,,,,,,,,
152994,001,2022-11-13_17h26.41.407,Info_measure_main_exp,2022.2.2,Win32,61.15085917,,,,,,,,,,,,,,,,,,masks/mask_002.jpg,,,,,,,,,,,,,,,,,,,,,,,,,,,,,,,,,,,,,,,,,,,0,2,2,1,1,,,,,,,,,,,,,,,,,,,,,,,,,,,,,,,,,,,,,,,,,,,,,,
152994,001,2022-11-13_17h26.41.407,Info_measure_main_exp,2022.2.2,Win32,61.15085917,,,,,,,,,,,,,,,,,,masks/mask_005.jpg,,,,,,,,,,,,,,,,,,,,,,,,,,,,,,,,,,,,,,,,,,,0,3,3,4,1,,,,,,,,,,,,,,,,,,,,,,,,,,,,,,,,,,,,,,,,,,,,,,
152994,001,2022-11-13_17h26.41.407,Info_measure_main_exp,2022.2.2,Win32,61.15085917,,,,,,,,,,,,,,,,,,masks/mask_001.jpg,,,,,,,,,,,,,,,,,,,,,,,,,,,,,,,,,,,,,,,,,,,0,4,4,0,1,,,,,,,,,,,,,,,,,,,,,,,,,,,,,,,,,,,,,,,,,,,,,,
152994,001,2022-11-13_17h26.41.407,Info_measure_main_exp,2022.2.2,Win32,61.15085917,,,,,,,,,,,,,,,,,,masks/mask_003.jpg,,,,,,,,,,,,,,,,,,,,,,,,,,,,,,,,,,,,,,,,,,,,,,,,0,0,0,2,1,,,,,,,,,,,,,,,,,,,,,,,,,,,,,,,,,,,,,,,,,
152994,001,2022-11-13_17h26.41.407,Info_measure_main_exp,2022.2.2,Win32,61.15085917,,,,,,,,,,,,,,,,,,masks/mask_004.jpg,,,,,,,,,,,,,,,,,,,,,,,,,,,,,,,,,,,,,,,,,,,,,,,,0,1,1,3,1,,,,,,,,,,,,,,,,,,,,,,,,,,,,,,,,,,,,,,,,,
152994,001,2022-11-13_17h26.41.407,Info_measure_main_exp,2022.2.2,Win32,61.15085917,,,,,,,,,,,,,,,,,,masks/mask_002.jpg,,,,,,,,,,,,,,,,,,,,,,,,,,,,,,,,,,,,,,,,,,,,,,,,0,2,2,1,1,,,,,,,,,,,,,,,,,,,,,,,,,,,,,,,,,,,,,,,,,
152994,001,2022-11-13_17h26.41.407,Info_measure_main_exp,2022.2.2,Win32,61.15085917,,,,,,,,,,,,,,,,,,masks/mask_005.jpg,,,,,,,,,,,,,,,,,,,,,,,,,,,,,,,,,,,,,,,,,,,,,,,,0,3,3,4,1,,,,,,,,,,,,,,,,,,,,,,,,,,,,,,,,,,,,,,,,,
152994,001,2022-11-13_17h26.41.407,Info_measure_main_exp,2022.2.2,Win32,61.15085917,,,,,,,,,,,,,,,,,,masks/mask_001.jpg,,,,,,,,,,,,,,,,,,,,,,,,,,,,,,,,,,,,,,,,,,,,,,,,0,4,4,0,1,,,,,,,,,,,,,,,,,,,,,,,,,,,,,,,,,,,,,,,,,
152994,001,2022-11-13_17h26.41.407,Info_measure_main_exp,2022.2.2,Win32,61.15085917,,,,,,,,,,,,,,,,,,,,,,,,,,,,,,3,0.7138,1,,,,,,,,,,,,0,131,5,5,2274,2178,absent_patch/patch0002274.jpg,absent_patch/patch0002178.jpg,,,,,,,,,,,,,,,,,,,,-0.015625,-0.1015625,1,0,0,response5disk,30,-0.001302083,0.014322917,1,0,0,center_square,0,29,29,117,1,,,,,,,,,,,,,,,,,,,,,,,
152994,001,2022-11-13_17h26.41.407,Info_measure_main_exp,2022.2.2,Win32,61.15085917,,,,,,,,,,,,,,,,,,masks/mask_002.jpg,,,,,,,,,,,,,,,,,,,,,,,,,,,,,,,,,,,,,,,,,,,0,0,0,1,1,,,,,,,,,,,,,,,,,,,,,,,,,,,,,,,,,,,,,,,,,,,,,,
152994,001,2022-11-13_17h26.41.407,Info_measure_main_exp,2022.2.2,Win32,61.15085917,,,,,,,,,,,,,,,,,,masks/mask_001.jpg,,,,,,,,,,,,,,,,,,,,,,,,,,,,,,,,,,,,,,,,,,,0,1,1,0,1,,,,,,,,,,,,,,,,,,,,,,,,,,,,,,,,,,,,,,,,,,,,,,
152994,001,2022-11-13_17h26.41.407,Info_measure_main_exp,2022.2.2,Win32,61.15085917,,,,,,,,,,,,,,,,,,masks/mask_003.jpg,,,,,,,,,,,,,,,,,,,,,,,,,,,,,,,,,,,,,,,,,,,0,2,2,2,1,,,,,,,,,,,,,,,,,,,,,,,,,,,,,,,,,,,,,,,,,,,,,,
152994,001,2022-11-13_17h26.41.407,Info_measure_main_exp,2022.2.2,Win32,61.15085917,,,,,,,,,,,,,,,,,,masks/mask_005.jpg,,,,,,,,,,,,,,,,,,,,,,,,,,,,,,,,,,,,,,,,,,,0,3,3,4,1,,,,,,,,,,,,,,,,,,,,,,,,,,,,,,,,,,,,,,,,,,,,,,
152994,001,2022-11-13_17h26.41.407,Info_measure_main_exp,2022.2.2,Win32,61.15085917,,,,,,,,,,,,,,,,,,masks/mask_004.jpg,,,,,,,,,,,,,,,,,,,,,,,,,,,,,,,,,,,,,,,,,,,0,4,4,3,1,,,,,,,,,,,,,,,,,,,,,,,,,,,,,,,,,,,,,,,,,,,,,,
152994,001,2022-11-13_17h26.41.407,Info_measure_main_exp,2022.2.2,Win32,61.15085917,,,,,,,,,,,,,,,,,,masks/mask_003.jpg,,,,,,,,,,,,,,,,,,,,,,,,,,,,,,,,,,,,,,,,,,,,,,,,0,0,0,2,1,,,,,,,,,,,,,,,,,,,,,,,,,,,,,,,,,,,,,,,,,
152994,001,2022-11-13_17h26.41.407,Info_measure_main_exp,2022.2.2,Win32,61.15085917,,,,,,,,,,,,,,,,,,masks/mask_001.jpg,,,,,,,,,,,,,,,,,,,,,,,,,,,,,,,,,,,,,,,,,,,,,,,,0,1,1,0,1,,,,,,,,,,,,,,,,,,,,,,,,,,,,,,,,,,,,,,,,,
152994,001,2022-11-13_17h26.41.407,Info_measure_main_exp,2022.2.2,Win32,61.15085917,,,,,,,,,,,,,,,,,,masks/mask_002.jpg,,,,,,,,,,,,,,,,,,,,,,,,,,,,,,,,,,,,,,,,,,,,,,,,0,2,2,1,1,,,,,,,,,,,,,,,,,,,,,,,,,,,,,,,,,,,,,,,,,
152994,001,2022-11-13_17h26.41.407,Info_measure_main_exp,2022.2.2,Win32,61.15085917,,,,,,,,,,,,,,,,,,masks/mask_005.jpg,,,,,,,,,,,,,,,,,,,,,,,,,,,,,,,,,,,,,,,,,,,,,,,,0,3,3,4,1,,,,,,,,,,,,,,,,,,,,,,,,,,,,,,,,,,,,,,,,,
152994,001,2022-11-13_17h26.41.407,Info_measure_main_exp,2022.2.2,Win32,61.15085917,,,,,,,,,,,,,,,,,,masks/mask_004.jpg,,,,,,,,,,,,,,,,,,,,,,,,,,,,,,,,,,,,,,,,,,,,,,,,0,4,4,3,1,,,,,,,,,,,,,,,,,,,,,,,,,,,,,,,,,,,,,,,,,
152994,001,2022-11-13_17h26.41.407,Info_measure_main_exp,2022.2.2,Win32,61.15085917,,,,,,,,,,,,,,,,,,,,,,,,,,,,,,0,1.2347,1,,,,,,,,,,,,1,131,5,5,1,1,present_patch/cong_131_5_a.jpg,present_patch/cong_131_5_a.jpg,,,,,,,,,,,,,,,,,,,,-0.044270833,0.118489583,1,0,0,response7disk,31,-0.005208333,0,1,0,0,center_square,0,30,30,30,1,,,,,,,,,,,,,,,,,,,,,,,
152994,001,2022-11-13_17h26.41.407,Info_measure_main_exp,2022.2.2,Win32,61.15085917,,,,,,,,,,,,,,,,,,masks/mask_004.jpg,,,,,,,,,,,,,,,,,,,,,,,,,,,,,,,,,,,,,,,,,,,0,0,0,3,1,,,,,,,,,,,,,,,,,,,,,,,,,,,,,,,,,,,,,,,,,,,,,,
152994,001,2022-11-13_17h26.41.407,Info_measure_main_exp,2022.2.2,Win32,61.15085917,,,,,,,,,,,,,,,,,,masks/mask_005.jpg,,,,,,,,,,,,,,,,,,,,,,,,,,,,,,,,,,,,,,,,,,,0,1,1,4,1,,,,,,,,,,,,,,,,,,,,,,,,,,,,,,,,,,,,,,,,,,,,,,
152994,001,2022-11-13_17h26.41.407,Info_measure_main_exp,2022.2.2,Win32,61.15085917,,,,,,,,,,,,,,,,,,masks/mask_003.jpg,,,,,,,,,,,,,,,,,,,,,,,,,,,,,,,,,,,,,,,,,,,0,2,2,2,1,,,,,,,,,,,,,,,,,,,,,,,,,,,,,,,,,,,,,,,,,,,,,,
152994,001,2022-11-13_17h26.41.407,Info_measure_main_exp,2022.2.2,Win32,61.15085917,,,,,,,,,,,,,,,,,,masks/mask_002.jpg,,,,,,,,,,,,,,,,,,,,,,,,,,,,,,,,,,,,,,,,,,,0,3,3,1,1,,,,,,,,,,,,,,,,,,,,,,,,,,,,,,,,,,,,,,,,,,,,,,
152994,001,2022-11-13_17h26.41.407,Info_measure_main_exp,2022.2.2,Win32,61.15085917,,,,,,,,,,,,,,,,,,masks/mask_001.jpg,,,,,,,,,,,,,,,,,,,,,,,,,,,,,,,,,,,,,,,,,,,0,4,4,0,1,,,,,,,,,,,,,,,,,,,,,,,,,,,,,,,,,,,,,,,,,,,,,,
152994,001,2022-11-13_17h26.41.407,Info_measure_main_exp,2022.2.2,Win32,61.15085917,,,,,,,,,,,,,,,,,,masks/mask_005.jpg,,,,,,,,,,,,,,,,,,,,,,,,,,,,,,,,,,,,,,,,,,,,,,,,0,0,0,4,1,,,,,,,,,,,,,,,,,,,,,,,,,,,,,,,,,,,,,,,,,
152994,001,2022-11-13_17h26.41.407,Info_measure_main_exp,2022.2.2,Win32,61.15085917,,,,,,,,,,,,,,,,,,masks/mask_003.jpg,,,,,,,,,,,,,,,,,,,,,,,,,,,,,,,,,,,,,,,,,,,,,,,,0,1,1,2,1,,,,,,,,,,,,,,,,,,,,,,,,,,,,,,,,,,,,,,,,,
152994,001,2022-11-13_17h26.41.407,Info_measure_main_exp,2022.2.2,Win32,61.15085917,,,,,,,,,,,,,,,,,,masks/mask_001.jpg,,,,,,,,,,,,,,,,,,,,,,,,,,,,,,,,,,,,,,,,,,,,,,,,0,2,2,0,1,,,,,,,,,,,,,,,,,,,,,,,,,,,,,,,,,,,,,,,,,
152994,001,2022-11-13_17h26.41.407,Info_measure_main_exp,2022.2.2,Win32,61.15085917,,,,,,,,,,,,,,,,,,masks/mask_002.jpg,,,,,,,,,,,,,,,,,,,,,,,,,,,,,,,,,,,,,,,,,,,,,,,,0,3,3,1,1,,,,,,,,,,,,,,,,,,,,,,,,,,,,,,,,,,,,,,,,,
152994,001,2022-11-13_17h26.41.407,Info_measure_main_exp,2022.2.2,Win32,61.15085917,,,,,,,,,,,,,,,,,,masks/mask_004.jpg,,,,,,,,,,,,,,,,,,,,,,,,,,,,,,,,,,,,,,,,,,,,,,,,0,4,4,3,1,,,,,,,,,,,,,,,,,,,,,,,,,,,,,,,,,,,,,,,,,
152994,001,2022-11-13_17h26.41.407,Info_measure_main_exp,2022.2.2,Win32,61.15085917,,,,,,,,,,,,,,,,,,,,,,,,,,,,,,4,1.3548,1,,,,,,,,,,,,0,131,5,5,2250,2142,absent_patch/patch0002250.jpg,absent_patch/patch0002142.jpg,,,,,,,,,,,,,,,,,,,,0.046875,-0.102864583,1,0,0,response3disk,32,0.002604167,0.005208333,1,0,0,center_square,0,31,31,71,1,,,,,,,,,,,,,,,,,,,,,,,
152994,001,2022-11-13_17h26.41.407,Info_measure_main_exp,2022.2.2,Win32,61.15085917,,,,,,,,,,,,,,,,,,masks/mask_005.jpg,,,,,,,,,,,,,,,,,,,,,,,,,,,,,,,,,,,,,,,,,,,0,0,0,4,1,,,,,,,,,,,,,,,,,,,,,,,,,,,,,,,,,,,,,,,,,,,,,,
152994,001,2022-11-13_17h26.41.407,Info_measure_main_exp,2022.2.2,Win32,61.15085917,,,,,,,,,,,,,,,,,,masks/mask_004.jpg,,,,,,,,,,,,,,,,,,,,,,,,,,,,,,,,,,,,,,,,,,,0,1,1,3,1,,,,,,,,,,,,,,,,,,,,,,,,,,,,,,,,,,,,,,,,,,,,,,
152994,001,2022-11-13_17h26.41.407,Info_measure_main_exp,2022.2.2,Win32,61.15085917,,,,,,,,,,,,,,,,,,masks/mask_002.jpg,,,,,,,,,,,,,,,,,,,,,,,,,,,,,,,,,,,,,,,,,,,0,2,2,1,1,,,,,,,,,,,,,,,,,,,,,,,,,,,,,,,,,,,,,,,,,,,,,,
152994,001,2022-11-13_17h26.41.407,Info_measure_main_exp,2022.2.2,Win32,61.15085917,,,,,,,,,,,,,,,,,,masks/mask_003.jpg,,,,,,,,,,,,,,,,,,,,,,,,,,,,,,,,,,,,,,,,,,,0,3,3,2,1,,,,,,,,,,,,,,,,,,,,,,,,,,,,,,,,,,,,,,,,,,,,,,
152994,001,2022-11-13_17h26.41.407,Info_measure_main_exp,2022.2.2,Win32,61.15085917,,,,,,,,,,,,,,,,,,masks/mask_001.jpg,,,,,,,,,,,,,,,,,,,,,,,,,,,,,,,,,,,,,,,,,,,0,4,4,0,1,,,,,,,,,,,,,,,,,,,,,,,,,,,,,,,,,,,,,,,,,,,,,,
152994,001,2022-11-13_17h26.41.407,Info_measure_main_exp,2022.2.2,Win32,61.15085917,,,,,,,,,,,,,,,,,,masks/mask_004.jpg,,,,,,,,,,,,,,,,,,,,,,,,,,,,,,,,,,,,,,,,,,,,,,,,0,0,0,3,1,,,,,,,,,,,,,,,,,,,,,,,,,,,,,,,,,,,,,,,,,
152994,001,2022-11-13_17h26.41.407,Info_measure_main_exp,2022.2.2,Win32,61.15085917,,,,,,,,,,,,,,,,,,masks/mask_002.jpg,,,,,,,,,,,,,,,,,,,,,,,,,,,,,,,,,,,,,,,,,,,,,,,,0,1,1,1,1,,,,,,,,,,,,,,,,,,,,,,,,,,,,,,,,,,,,,,,,,
152994,001,2022-11-13_17h26.41.407,Info_measure_main_exp,2022.2.2,Win32,61.15085917,,,,,,,,,,,,,,,,,,masks/mask_001.jpg,,,,,,,,,,,,,,,,,,,,,,,,,,,,,,,,,,,,,,,,,,,,,,,,0,2,2,0,1,,,,,,,,,,,,,,,,,,,,,,,,,,,,,,,,,,,,,,,,,
152994,001,2022-11-13_17h26.41.407,Info_measure_main_exp,2022.2.2,Win32,61.15085917,,,,,,,,,,,,,,,,,,masks/mask_005.jpg,,,,,,,,,,,,,,,,,,,,,,,,,,,,,,,,,,,,,,,,,,,,,,,,0,3,3,4,1,,,,,,,,,,,,,,,,,,,,,,,,,,,,,,,,,,,,,,,,,
152994,001,2022-11-13_17h26.41.407,Info_measure_main_exp,2022.2.2,Win32,61.15085917,,,,,,,,,,,,,,,,,,masks/mask_003.jpg,,,,,,,,,,,,,,,,,,,,,,,,,,,,,,,,,,,,,,,,,,,,,,,,0,4,4,2,1,,,,,,,,,,,,,,,,,,,,,,,,,,,,,,,,,,,,,,,,,
152994,001,2022-11-13_17h26.41.407,Info_measure_main_exp,2022.2.2,Win32,61.15085917,,,,,,,,,,,,,,,,,,,,,,,,,,,,,,4,1.1126,1,,,,,,,,,,,,0,131,5,5,2298,1986,absent_patch/patch0002298.jpg,absent_patch/patch0001986.jpg,,,,,,,,,,,,,,,,,,,,0.037760417,-0.108072917,1,0,0,response3disk,33,-0.002604167,-0.0078125,1,0,0,center_square,0,32,32,32,1,,,,,,,,,,,,,,,,,,,,,,,
152994,001,2022-11-13_17h26.41.407,Info_measure_main_exp,2022.2.2,Win32,61.15085917,,,,,,,,,,,,,,,,,,masks/mask_001.jpg,,,,,,,,,,,,,,,,,,,,,,,,,,,,,,,,,,,,,,,,,,,0,0,0,0,1,,,,,,,,,,,,,,,,,,,,,,,,,,,,,,,,,,,,,,,,,,,,,,
152994,001,2022-11-13_17h26.41.407,Info_measure_main_exp,2022.2.2,Win32,61.15085917,,,,,,,,,,,,,,,,,,masks/mask_005.jpg,,,,,,,,,,,,,,,,,,,,,,,,,,,,,,,,,,,,,,,,,,,0,1,1,4,1,,,,,,,,,,,,,,,,,,,,,,,,,,,,,,,,,,,,,,,,,,,,,,
152994,001,2022-11-13_17h26.41.407,Info_measure_main_exp,2022.2.2,Win32,61.15085917,,,,,,,,,,,,,,,,,,masks/mask_003.jpg,,,,,,,,,,,,,,,,,,,,,,,,,,,,,,,,,,,,,,,,,,,0,2,2,2,1,,,,,,,,,,,,,,,,,,,,,,,,,,,,,,,,,,,,,,,,,,,,,,
152994,001,2022-11-13_17h26.41.407,Info_measure_main_exp,2022.2.2,Win32,61.15085917,,,,,,,,,,,,,,,,,,masks/mask_002.jpg,,,,,,,,,,,,,,,,,,,,,,,,,,,,,,,,,,,,,,,,,,,0,3,3,1,1,,,,,,,,,,,,,,,,,,,,,,,,,,,,,,,,,,,,,,,,,,,,,,
152994,001,2022-11-13_17h26.41.407,Info_measure_main_exp,2022.2.2,Win32,61.15085917,,,,,,,,,,,,,,,,,,masks/mask_004.jpg,,,,,,,,,,,,,,,,,,,,,,,,,,,,,,,,,,,,,,,,,,,0,4,4,3,1,,,,,,,,,,,,,,,,,,,,,,,,,,,,,,,,,,,,,,,,,,,,,,
152994,001,2022-11-13_17h26.41.407,Info_measure_main_exp,2022.2.2,Win32,61.15085917,,,,,,,,,,,,,,,,,,masks/mask_001.jpg,,,,,,,,,,,,,,,,,,,,,,,,,,,,,,,,,,,,,,,,,,,,,,,,0,0,0,0,1,,,,,,,,,,,,,,,,,,,,,,,,,,,,,,,,,,,,,,,,,
152994,001,2022-11-13_17h26.41.407,Info_measure_main_exp,2022.2.2,Win32,61.15085917,,,,,,,,,,,,,,,,,,masks/mask_002.jpg,,,,,,,,,,,,,,,,,,,,,,,,,,,,,,,,,,,,,,,,,,,,,,,,0,1,1,1,1,,,,,,,,,,,,,,,,,,,,,,,,,,,,,,,,,,,,,,,,,
152994,001,2022-11-13_17h26.41.407,Info_measure_main_exp,2022.2.2,Win32,61.15085917,,,,,,,,,,,,,,,,,,masks/mask_004.jpg,,,,,,,,,,,,,,,,,,,,,,,,,,,,,,,,,,,,,,,,,,,,,,,,0,2,2,3,1,,,,,,,,,,,,,,,,,,,,,,,,,,,,,,,,,,,,,,,,,
152994,001,2022-11-13_17h26.41.407,Info_measure_main_exp,2022.2.2,Win32,61.15085917,,,,,,,,,,,,,,,,,,masks/mask_005.jpg,,,,,,,,,,,,,,,,,,,,,,,,,,,,,,,,,,,,,,,,,,,,,,,,0,3,3,4,1,,,,,,,,,,,,,,,,,,,,,,,,,,,,,,,,,,,,,,,,,
152994,001,2022-11-13_17h26.41.407,Info_measure_main_exp,2022.2.2,Win32,61.15085917,,,,,,,,,,,,,,,,,,masks/mask_003.jpg,,,,,,,,,,,,,,,,,,,,,,,,,,,,,,,,,,,,,,,,,,,,,,,,0,4,4,2,1,,,,,,,,,,,,,,,,,,,,,,,,,,,,,,,,,,,,,,,,,
152994,001,2022-11-13_17h26.41.407,Info_measure_main_exp,2022.2.2,Win32,61.15085917,,,,,,,,,,,,,,,,,,,,,,,,,,,,,,0,0.9494,1,,,,,,,,,,,,0,131,5,5,2178,2178,absent_patch/patch0002178.jpg,absent_patch/patch0002178.jpg,,,,,,,,,,,,,,,,,,,,-0.0390625,0.127604167,1,0,0,response7disk,34,-0.001302083,0.01171875,1,0,0,center_square,0,33,33,98,1,,,,,,,,,,,,,,,,,,,,,,,
152994,001,2022-11-13_17h26.41.407,Info_measure_main_exp,2022.2.2,Win32,61.15085917,,,,,,,,,,,,,,,,,,masks/mask_004.jpg,,,,,,,,,,,,,,,,,,,,,,,,,,,,,,,,,,,,,,,,,,,0,0,0,3,1,,,,,,,,,,,,,,,,,,,,,,,,,,,,,,,,,,,,,,,,,,,,,,
152994,001,2022-11-13_17h26.41.407,Info_measure_main_exp,2022.2.2,Win32,61.15085917,,,,,,,,,,,,,,,,,,masks/mask_003.jpg,,,,,,,,,,,,,,,,,,,,,,,,,,,,,,,,,,,,,,,,,,,0,1,1,2,1,,,,,,,,,,,,,,,,,,,,,,,,,,,,,,,,,,,,,,,,,,,,,,
152994,001,2022-11-13_17h26.41.407,Info_measure_main_exp,2022.2.2,Win32,61.15085917,,,,,,,,,,,,,,,,,,masks/mask_005.jpg,,,,,,,,,,,,,,,,,,,,,,,,,,,,,,,,,,,,,,,,,,,0,2,2,4,1,,,,,,,,,,,,,,,,,,,,,,,,,,,,,,,,,,,,,,,,,,,,,,
152994,001,2022-11-13_17h26.41.407,Info_measure_main_exp,2022.2.2,Win32,61.15085917,,,,,,,,,,,,,,,,,,masks/mask_001.jpg,,,,,,,,,,,,,,,,,,,,,,,,,,,,,,,,,,,,,,,,,,,0,3,3,0,1,,,,,,,,,,,,,,,,,,,,,,,,,,,,,,,,,,,,,,,,,,,,,,
152994,001,2022-11-13_17h26.41.407,Info_measure_main_exp,2022.2.2,Win32,61.15085917,,,,,,,,,,,,,,,,,,masks/mask_002.jpg,,,,,,,,,,,,,,,,,,,,,,,,,,,,,,,,,,,,,,,,,,,0,4,4,1,1,,,,,,,,,,,,,,,,,,,,,,,,,,,,,,,,,,,,,,,,,,,,,,
152994,001,2022-11-13_17h26.41.407,Info_measure_main_exp,2022.2.2,Win32,61.15085917,,,,,,,,,,,,,,,,,,masks/mask_004.jpg,,,,,,,,,,,,,,,,,,,,,,,,,,,,,,,,,,,,,,,,,,,,,,,,0,0,0,3,1,,,,,,,,,,,,,,,,,,,,,,,,,,,,,,,,,,,,,,,,,
152994,001,2022-11-13_17h26.41.407,Info_measure_main_exp,2022.2.2,Win32,61.15085917,,,,,,,,,,,,,,,,,,masks/mask_003.jpg,,,,,,,,,,,,,,,,,,,,,,,,,,,,,,,,,,,,,,,,,,,,,,,,0,1,1,2,1,,,,,,,,,,,,,,,,,,,,,,,,,,,,,,,,,,,,,,,,,
152994,001,2022-11-13_17h26.41.407,Info_measure_main_exp,2022.2.2,Win32,61.15085917,,,,,,,,,,,,,,,,,,masks/mask_002.jpg,,,,,,,,,,,,,,,,,,,,,,,,,,,,,,,,,,,,,,,,,,,,,,,,0,2,2,1,1,,,,,,,,,,,,,,,,,,,,,,,,,,,,,,,,,,,,,,,,,
152994,001,2022-11-13_17h26.41.407,Info_measure_main_exp,2022.2.2,Win32,61.15085917,,,,,,,,,,,,,,,,,,masks/mask_005.jpg,,,,,,,,,,,,,,,,,,,,,,,,,,,,,,,,,,,,,,,,,,,,,,,,0,3,3,4,1,,,,,,,,,,,,,,,,,,,,,,,,,,,,,,,,,,,,,,,,,
