participant,session,date,expName,psychopyVersion,OS,frameRate,space_press_continue.keys,space_press_continue.rt,space_press_continue_2.keys,space_press_continue_2.rt,space_press_continue_3.keys,space_press_continue_3.rt,space_press_continue_4.keys,space_press_continue_4.rt,space_press_continue_5.keys,space_press_continue_5.rt,space_press_continue_6.keys,space_press_continue_6.rt,prac_mask_loop_1.thisRepN,prac_mask_loop_1.thisTrialN,prac_mask_loop_1.thisN,prac_mask_loop_1.thisIndex,prac_mask_loop_1.ran,mask_name,prac_mask_loop_2.thisRepN,prac_mask_loop_2.thisTrialN,prac_mask_loop_2.thisN,prac_mask_loop_2.thisIndex,prac_mask_loop_2.ran,mouse_2.x,mouse_2.y,mouse_2.leftButton,mouse_2.midButton,mouse_2.rightButton,mouse_2.clicked_name,similarity,response_time,Pass,mouse_12.x,mouse_12.y,mouse_12.leftButton,mouse_12.midButton,mouse_12.rightButton,mouse_12.clicked_name,prac_loop.thisRepN,prac_loop.thisTrialN,prac_loop.thisN,prac_loop.thisIndex,prac_loop.ran,Pair_type,Image_num,Patch_1_loc,Patch_2_loc,Patch_1_info,Patch_2_info,Patch_1_name,Patch_2_name,mouse_1.x,mouse_1.y,mouse_1.leftButton,mouse_1.midButton,mouse_1.rightButton,mouse_1.time,mouse_1.clicked_name,space_press_continue_7.keys,space_press_continue_7.rt,mask_loop.thisRepN,mask_loop.thisTrialN,mask_loop.thisN,mask_loop.thisIndex,mask_loop.ran,mask_loop_2.thisRepN,mask_loop_2.thisTrialN,mask_loop_2.thisN,mask_loop_2.thisIndex,mask_loop_2.ran,mouse.x,mouse.y,mouse.leftButton,mouse.midButton,mouse.rightButton,mouse.clicked_name,trialNumber,mouse_11.x,mouse_11.y,mouse_11.leftButton,mouse_11.midButton,mouse_11.rightButton,mouse_11.clicked_name,first_pass_loop.thisRepN,first_pass_loop.thisTrialN,first_pass_loop.thisN,first_pass_loop.thisIndex,first_pass_loop.ran,mask_loop_3.thisRepN,mask_loop_3.thisTrialN,mask_loop_3.thisN,mask_loop_3.thisIndex,mask_loop_3.ran,mask_loop_4.thisRepN,mask_loop_4.thisTrialN,mask_loop_4.thisN,mask_loop_4.thisIndex,mask_loop_4.ran,mouse_3.x,mouse_3.y,mouse_3.leftButton,mouse_3.midButton,mouse_3.rightButton,mouse_3.clicked_name,double_pass_loop.thisRepN,double_pass_loop.thisTrialN,double_pass_loop.thisN,double_pass_loop.thisIndex,double_pass_loop.ran,space_exit.keys,space_exit.rt
195386,001,2022-11-13_23h28.30.420,Info_measure_main_exp,2022.2.2,Win32,60.0528465,,,,,,,,,,,,,,,,,,,,,,,,,,,,,,,,,,,,,,,,,,,,,,,,,,,,,,,,,,,,,,,,,,,,,,,,,,,,,,,,,,,,,,,,,,,,,,,,,,,,,,,,,,,,,,,
195386,001,2022-11-13_23h28.30.420,Info_measure_main_exp,2022.2.2,Win32,60.0528465,,,,,,,,,,,,,,,,,,,,,,,,,,,,,,,,,,,,,,,,,,,,,,,,,,,,,,,,,,,,,,,,,,,,,,,,,,,,,,,,,,,,,,,,,,,,,,,,,,,,,,,,,,,,,,,
195386,001,2022-11-13_23h28.30.420,Info_measure_main_exp,2022.2.2,Win32,60.0528465,space,7.8803,,,,,,,,,,,,,,,,,,,,,,,,,,,,,,,,,,,,,,,,,,,,,,,,,,,,,,,,,,,,,,,,,,,,,,,,,,,,,,,,,,,,,,,,,,,,,,,,,,,,,,,,,,,,,
195386,001,2022-11-13_23h28.30.420,Info_measure_main_exp,2022.2.2,Win32,60.0528465,,,space,12.8871,,,,,,,,,,,,,,,,,,,,,,,,,,,,,,,,,,,,,,,,,,,,,,,,,,,,,,,,,,,,,,,,,,,,,,,,,,,,,,,,,,,,,,,,,,,,,,,,,,,,,,,,,,,
195386,001,2022-11-13_23h28.30.420,Info_measure_main_exp,2022.2.2,Win32,60.0528465,,,,,space,10.9635,,,,,,,,,,,,,,,,,,,,,,,,,,,,,,,,,,,,,,,,,,,,,,,,,,,,,,,,,,,,,,,,,,,,,,,,,,,,,,,,,,,,,,,,,,,,,,,,,,,,,,,,,
195386,001,2022-11-13_23h28.30.420,Info_measure_main_exp,2022.2.2,Win32,60.0528465,,,,,,,space,22.9672,,,,,,,,,,,,,,,,,,,,,,,,,,,,,,,,,,,,,,,,,,,,,,,,,,,,,,,,,,,,,,,,,,,,,,,,,,,,,,,,,,,,,,,,,,,,,,,,,,,,,,,
195386,001,2022-11-13_23h28.30.420,Info_measure_main_exp,2022.2.2,Win32,60.0528465,,,,,,,,,space,7.5121,,,,,,,,,,,,,,,,,,,,,,,,,,,,,,,,,,,,,,,,,,,,,,,,,,,,,,,,,,,,,,,,,,,,,,,,,,,,,,,,,,,,,,,,,,,,,,,,,,,,,
195386,001,2022-11-13_23h28.30.420,Info_measure_main_exp,2022.2.2,Win32,60.0528465,,,,,,,,,,,space,5.0819,,,,,,,,,,,,,,,,,,,,,,,,,,,,,,,,,,,,,,,,,,,,,,,,,,,,,,,,,,,,,,,,,,,,,,,,,,,,,,,,,,,,,,,,,,,,,,,,,,,
195386,001,2022-11-13_23h28.30.420,Info_measure_main_exp,2022.2.2,Win32,60.0528465,,,,,,,,,,,,,0,0,0,2,1,masks/mask_003.jpg,,,,,,,,,,,,,,,,,,,,,,,,,,,,,,,,,,,,,,,,,,,,,,,,,,,,,,,,,,,,,,,,,,,,,,,,,,,,,,,,,,,,,,,,,,,,,
195386,001,2022-11-13_23h28.30.420,Info_measure_main_exp,2022.2.2,Win32,60.0528465,,,,,,,,,,,,,0,1,1,1,1,masks/mask_002.jpg,,,,,,,,,,,,,,,,,,,,,,,,,,,,,,,,,,,,,,,,,,,,,,,,,,,,,,,,,,,,,,,,,,,,,,,,,,,,,,,,,,,,,,,,,,,,,
195386,001,2022-11-13_23h28.30.420,Info_measure_main_exp,2022.2.2,Win32,60.0528465,,,,,,,,,,,,,0,2,2,4,1,masks/mask_005.jpg,,,,,,,,,,,,,,,,,,,,,,,,,,,,,,,,,,,,,,,,,,,,,,,,,,,,,,,,,,,,,,,,,,,,,,,,,,,,,,,,,,,,,,,,,,,,,
195386,001,2022-11-13_23h28.30.420,Info_measure_main_exp,2022.2.2,Win32,60.0528465,,,,,,,,,,,,,0,3,3,3,1,masks/mask_004.jpg,,,,,,,,,,,,,,,,,,,,,,,,,,,,,,,,,,,,,,,,,,,,,,,,,,,,,,,,,,,,,,,,,,,,,,,,,,,,,,,,,,,,,,,,,,,,,
195386,001,2022-11-13_23h28.30.420,Info_measure_main_exp,2022.2.2,Win32,60.0528465,,,,,,,,,,,,,0,4,4,0,1,masks/mask_001.jpg,,,,,,,,,,,,,,,,,,,,,,,,,,,,,,,,,,,,,,,,,,,,,,,,,,,,,,,,,,,,,,,,,,,,,,,,,,,,,,,,,,,,,,,,,,,,,
195386,001,2022-11-13_23h28.30.420,Info_measure_main_exp,2022.2.2,Win32,60.0528465,,,,,,,,,,,,,,,,,,masks/mask_002.jpg,0,0,0,1,1,,,,,,,,,,,,,,,,,,,,,,,,,,,,,,,,,,,,,,,,,,,,,,,,,,,,,,,,,,,,,,,,,,,,,,,,,,,,,,,,,,,,,,,,
195386,001,2022-11-13_23h28.30.420,Info_measure_main_exp,2022.2.2,Win32,60.0528465,,,,,,,,,,,,,,,,,,masks/mask_005.jpg,0,1,1,4,1,,,,,,,,,,,,,,,,,,,,,,,,,,,,,,,,,,,,,,,,,,,,,,,,,,,,,,,,,,,,,,,,,,,,,,,,,,,,,,,,,,,,,,,,
195386,001,2022-11-13_23h28.30.420,Info_measure_main_exp,2022.2.2,Win32,60.0528465,,,,,,,,,,,,,,,,,,masks/mask_001.jpg,0,2,2,0,1,,,,,,,,,,,,,,,,,,,,,,,,,,,,,,,,,,,,,,,,,,,,,,,,,,,,,,,,,,,,,,,,,,,,,,,,,,,,,,,,,,,,,,,,
195386,001,2022-11-13_23h28.30.420,Info_measure_main_exp,2022.2.2,Win32,60.0528465,,,,,,,,,,,,,,,,,,masks/mask_003.jpg,0,3,3,2,1,,,,,,,,,,,,,,,,,,,,,,,,,,,,,,,,,,,,,,,,,,,,,,,,,,,,,,,,,,,,,,,,,,,,,,,,,,,,,,,,,,,,,,,,
195386,001,2022-11-13_23h28.30.420,Info_measure_main_exp,2022.2.2,Win32,60.0528465,,,,,,,,,,,,,,,,,,masks/mask_004.jpg,0,4,4,3,1,,,,,,,,,,,,,,,,,,,,,,,,,,,,,,,,,,,,,,,,,,,,,,,,,,,,,,,,,,,,,,,,,,,,,,,,,,,,,,,,,,,,,,,,
195386,001,2022-11-13_23h28.30.420,Info_measure_main_exp,2022.2.2,Win32,60.0528465,,,,,,,,,,,,,,,,,,,,,,,,0.051851838,0.171296296,1,0,0,response1disk,7,72.4389,1,0.000925912,-0.002777771,1,0,0,center_square,0,0,0,2,1,0,131,5,5,2526,2526,prac_patch/patch0002526.jpg,prac_patch/patch0002526.jpg,,,,,,,,,,,,,,,,,,,,,,,,,,,,,,,,,,,,,,,,,,,,,,,,,,,,,,,,,,,,
195386,001,2022-11-13_23h28.30.420,Info_measure_main_exp,2022.2.2,Win32,60.0528465,,,,,,,,,,,,,0,0,0,2,1,masks/mask_003.jpg,,,,,,,,,,,,,,,,,,,,,,,,,,,,,,,,,,,,,,,,,,,,,,,,,,,,,,,,,,,,,,,,,,,,,,,,,,,,,,,,,,,,,,,,,,,,,
195386,001,2022-11-13_23h28.30.420,Info_measure_main_exp,2022.2.2,Win32,60.0528465,,,,,,,,,,,,,0,1,1,4,1,masks/mask_005.jpg,,,,,,,,,,,,,,,,,,,,,,,,,,,,,,,,,,,,,,,,,,,,,,,,,,,,,,,,,,,,,,,,,,,,,,,,,,,,,,,,,,,,,,,,,,,,,
195386,001,2022-11-13_23h28.30.420,Info_measure_main_exp,2022.2.2,Win32,60.0528465,,,,,,,,,,,,,0,2,2,1,1,masks/mask_002.jpg,,,,,,,,,,,,,,,,,,,,,,,,,,,,,,,,,,,,,,,,,,,,,,,,,,,,,,,,,,,,,,,,,,,,,,,,,,,,,,,,,,,,,,,,,,,,,
195386,001,2022-11-13_23h28.30.420,Info_measure_main_exp,2022.2.2,Win32,60.0528465,,,,,,,,,,,,,0,3,3,3,1,masks/mask_004.jpg,,,,,,,,,,,,,,,,,,,,,,,,,,,,,,,,,,,,,,,,,,,,,,,,,,,,,,,,,,,,,,,,,,,,,,,,,,,,,,,,,,,,,,,,,,,,,
195386,001,2022-11-13_23h28.30.420,Info_measure_main_exp,2022.2.2,Win32,60.0528465,,,,,,,,,,,,,0,4,4,0,1,masks/mask_001.jpg,,,,,,,,,,,,,,,,,,,,,,,,,,,,,,,,,,,,,,,,,,,,,,,,,,,,,,,,,,,,,,,,,,,,,,,,,,,,,,,,,,,,,,,,,,,,,
195386,001,2022-11-13_23h28.30.420,Info_measure_main_exp,2022.2.2,Win32,60.0528465,,,,,,,,,,,,,,,,,,masks/mask_005.jpg,0,0,0,4,1,,,,,,,,,,,,,,,,,,,,,,,,,,,,,,,,,,,,,,,,,,,,,,,,,,,,,,,,,,,,,,,,,,,,,,,,,,,,,,,,,,,,,,,,
195386,001,2022-11-13_23h28.30.420,Info_measure_main_exp,2022.2.2,Win32,60.0528465,,,,,,,,,,,,,,,,,,masks/mask_001.jpg,0,1,1,0,1,,,,,,,,,,,,,,,,,,,,,,,,,,,,,,,,,,,,,,,,,,,,,,,,,,,,,,,,,,,,,,,,,,,,,,,,,,,,,,,,,,,,,,,,
195386,001,2022-11-13_23h28.30.420,Info_measure_main_exp,2022.2.2,Win32,60.0528465,,,,,,,,,,,,,,,,,,masks/mask_004.jpg,0,2,2,3,1,,,,,,,,,,,,,,,,,,,,,,,,,,,,,,,,,,,,,,,,,,,,,,,,,,,,,,,,,,,,,,,,,,,,,,,,,,,,,,,,,,,,,,,,
195386,001,2022-11-13_23h28.30.420,Info_measure_main_exp,2022.2.2,Win32,60.0528465,,,,,,,,,,,,,,,,,,masks/mask_003.jpg,0,3,3,2,1,,,,,,,,,,,,,,,,,,,,,,,,,,,,,,,,,,,,,,,,,,,,,,,,,,,,,,,,,,,,,,,,,,,,,,,,,,,,,,,,,,,,,,,,
195386,001,2022-11-13_23h28.30.420,Info_measure_main_exp,2022.2.2,Win32,60.0528465,,,,,,,,,,,,,,,,,,masks/mask_002.jpg,0,4,4,1,1,,,,,,,,,,,,,,,,,,,,,,,,,,,,,,,,,,,,,,,,,,,,,,,,,,,,,,,,,,,,,,,,,,,,,,,,,,,,,,,,,,,,,,,,
195386,001,2022-11-13_23h28.30.420,Info_measure_main_exp,2022.2.2,Win32,60.0528465,,,,,,,,,,,,,,,,,,,,,,,,0.143518519,-0.049074067,1,0,0,response3disk,5,85.9324,1,-0.009259259,-0.000925947,1,0,0,center_square,0,1,1,1,1,0,131,5,5,2514,2490,prac_patch/patch0002514.jpg,prac_patch/patch0002490.jpg,,,,,,,,,,,,,,,,,,,,,,,,,,,,,,,,,,,,,,,,,,,,,,,,,,,,,,,,,,,,
195386,001,2022-11-13_23h28.30.420,Info_measure_main_exp,2022.2.2,Win32,60.0528465,,,,,,,,,,,,,0,0,0,3,1,masks/mask_004.jpg,,,,,,,,,,,,,,,,,,,,,,,,,,,,,,,,,,,,,,,,,,,,,,,,,,,,,,,,,,,,,,,,,,,,,,,,,,,,,,,,,,,,,,,,,,,,,
195386,001,2022-11-13_23h28.30.420,Info_measure_main_exp,2022.2.2,Win32,60.0528465,,,,,,,,,,,,,0,1,1,0,1,masks/mask_001.jpg,,,,,,,,,,,,,,,,,,,,,,,,,,,,,,,,,,,,,,,,,,,,,,,,,,,,,,,,,,,,,,,,,,,,,,,,,,,,,,,,,,,,,,,,,,,,,
195386,001,2022-11-13_23h28.30.420,Info_measure_main_exp,2022.2.2,Win32,60.0528465,,,,,,,,,,,,,0,2,2,1,1,masks/mask_002.jpg,,,,,,,,,,,,,,,,,,,,,,,,,,,,,,,,,,,,,,,,,,,,,,,,,,,,,,,,,,,,,,,,,,,,,,,,,,,,,,,,,,,,,,,,,,,,,
195386,001,2022-11-13_23h28.30.420,Info_measure_main_exp,2022.2.2,Win32,60.0528465,,,,,,,,,,,,,0,3,3,4,1,masks/mask_005.jpg,,,,,,,,,,,,,,,,,,,,,,,,,,,,,,,,,,,,,,,,,,,,,,,,,,,,,,,,,,,,,,,,,,,,,,,,,,,,,,,,,,,,,,,,,,,,,
195386,001,2022-11-13_23h28.30.420,Info_measure_main_exp,2022.2.2,Win32,60.0528465,,,,,,,,,,,,,0,4,4,2,1,masks/mask_003.jpg,,,,,,,,,,,,,,,,,,,,,,,,,,,,,,,,,,,,,,,,,,,,,,,,,,,,,,,,,,,,,,,,,,,,,,,,,,,,,,,,,,,,,,,,,,,,,
195386,001,2022-11-13_23h28.30.420,Info_measure_main_exp,2022.2.2,Win32,60.0528465,,,,,,,,,,,,,,,,,,masks/mask_004.jpg,0,0,0,3,1,,,,,,,,,,,,,,,,,,,,,,,,,,,,,,,,,,,,,,,,,,,,,,,,,,,,,,,,,,,,,,,,,,,,,,,,,,,,,,,,,,,,,,,,
195386,001,2022-11-13_23h28.30.420,Info_measure_main_exp,2022.2.2,Win32,60.0528465,,,,,,,,,,,,,,,,,,masks/mask_005.jpg,0,1,1,4,1,,,,,,,,,,,,,,,,,,,,,,,,,,,,,,,,,,,,,,,,,,,,,,,,,,,,,,,,,,,,,,,,,,,,,,,,,,,,,,,,,,,,,,,,
195386,001,2022-11-13_23h28.30.420,Info_measure_main_exp,2022.2.2,Win32,60.0528465,,,,,,,,,,,,,,,,,,masks/mask_003.jpg,0,2,2,2,1,,,,,,,,,,,,,,,,,,,,,,,,,,,,,,,,,,,,,,,,,,,,,,,,,,,,,,,,,,,,,,,,,,,,,,,,,,,,,,,,,,,,,,,,
195386,001,2022-11-13_23h28.30.420,Info_measure_main_exp,2022.2.2,Win32,60.0528465,,,,,,,,,,,,,,,,,,masks/mask_001.jpg,0,3,3,0,1,,,,,,,,,,,,,,,,,,,,,,,,,,,,,,,,,,,,,,,,,,,,,,,,,,,,,,,,,,,,,,,,,,,,,,,,,,,,,,,,,,,,,,,,
195386,001,2022-11-13_23h28.30.420,Info_measure_main_exp,2022.2.2,Win32,60.0528465,,,,,,,,,,,,,,,,,,masks/mask_002.jpg,0,4,4,1,1,,,,,,,,,,,,,,,,,,,,,,,,,,,,,,,,,,,,,,,,,,,,,,,,,,,,,,,,,,,,,,,,,,,,,,,,,,,,,,,,,,,,,,,,
195386,001,2022-11-13_23h28.30.420,Info_measure_main_exp,2022.2.2,Win32,60.0528465,,,,,,,,,,,,,,,,,,,,,,,,0.054629644,0.147222201,1,0,0,response1disk,7,95.5609,1,-0.007407365,-0.00462963,1,0,0,center_square,0,2,2,0,1,0,131,5,5,2370,2406,prac_patch/patch0002370.jpg,prac_patch/patch0002406.jpg,,,,,,,,,,,,,,,,,,,,,,,,,,,,,,,,,,,,,,,,,,,,,,,,,,,,,,,,,,,,
195386,001,2022-11-13_23h28.30.420,Info_measure_main_exp,2022.2.2,Win32,60.0528465,,,,,,,,,,,,,,,,,,,,,,,,,,,,,,,,,,,,,,,,,,,,,,,,,,,,,,,,,,,space,2.1204,,,,,,,,,,,,,,,,,,,,,,,,,,,,,,,,,,,,,,,,,,,,,,,,,,,
195386,001,2022-11-13_23h28.30.420,Info_measure_main_exp,2022.2.2,Win32,60.0528465,,,,,,,,,,,,,,,,,,masks/mask_003.jpg,,,,,,,,,,,,,,,,,,,,,,,,,,,,,,,,,,,,,,,,,,,0,0,0,2,1,,,,,,,,,,,,,,,,,,,,,,,,,,,,,,,,,,,,,,,,,,,,,,
195386,001,2022-11-13_23h28.30.420,Info_measure_main_exp,2022.2.2,Win32,60.0528465,,,,,,,,,,,,,,,,,,masks/mask_001.jpg,,,,,,,,,,,,,,,,,,,,,,,,,,,,,,,,,,,,,,,,,,,0,1,1,0,1,,,,,,,,,,,,,,,,,,,,,,,,,,,,,,,,,,,,,,,,,,,,,,
195386,001,2022-11-13_23h28.30.420,Info_measure_main_exp,2022.2.2,Win32,60.0528465,,,,,,,,,,,,,,,,,,masks/mask_004.jpg,,,,,,,,,,,,,,,,,,,,,,,,,,,,,,,,,,,,,,,,,,,0,2,2,3,1,,,,,,,,,,,,,,,,,,,,,,,,,,,,,,,,,,,,,,,,,,,,,,
195386,001,2022-11-13_23h28.30.420,Info_measure_main_exp,2022.2.2,Win32,60.0528465,,,,,,,,,,,,,,,,,,masks/mask_002.jpg,,,,,,,,,,,,,,,,,,,,,,,,,,,,,,,,,,,,,,,,,,,0,3,3,1,1,,,,,,,,,,,,,,,,,,,,,,,,,,,,,,,,,,,,,,,,,,,,,,
195386,001,2022-11-13_23h28.30.420,Info_measure_main_exp,2022.2.2,Win32,60.0528465,,,,,,,,,,,,,,,,,,masks/mask_005.jpg,,,,,,,,,,,,,,,,,,,,,,,,,,,,,,,,,,,,,,,,,,,0,4,4,4,1,,,,,,,,,,,,,,,,,,,,,,,,,,,,,,,,,,,,,,,,,,,,,,
195386,001,2022-11-13_23h28.30.420,Info_measure_main_exp,2022.2.2,Win32,60.0528465,,,,,,,,,,,,,,,,,,masks/mask_005.jpg,,,,,,,,,,,,,,,,,,,,,,,,,,,,,,,,,,,,,,,,,,,,,,,,0,0,0,4,1,,,,,,,,,,,,,,,,,,,,,,,,,,,,,,,,,,,,,,,,,
195386,001,2022-11-13_23h28.30.420,Info_measure_main_exp,2022.2.2,Win32,60.0528465,,,,,,,,,,,,,,,,,,masks/mask_001.jpg,,,,,,,,,,,,,,,,,,,,,,,,,,,,,,,,,,,,,,,,,,,,,,,,0,1,1,0,1,,,,,,,,,,,,,,,,,,,,,,,,,,,,,,,,,,,,,,,,,
195386,001,2022-11-13_23h28.30.420,Info_measure_main_exp,2022.2.2,Win32,60.0528465,,,,,,,,,,,,,,,,,,masks/mask_004.jpg,,,,,,,,,,,,,,,,,,,,,,,,,,,,,,,,,,,,,,,,,,,,,,,,0,2,2,3,1,,,,,,,,,,,,,,,,,,,,,,,,,,,,,,,,,,,,,,,,,
195386,001,2022-11-13_23h28.30.420,Info_measure_main_exp,2022.2.2,Win32,60.0528465,,,,,,,,,,,,,,,,,,masks/mask_002.jpg,,,,,,,,,,,,,,,,,,,,,,,,,,,,,,,,,,,,,,,,,,,,,,,,0,3,3,1,1,,,,,,,,,,,,,,,,,,,,,,,,,,,,,,,,,,,,,,,,,
195386,001,2022-11-13_23h28.30.420,Info_measure_main_exp,2022.2.2,Win32,60.0528465,,,,,,,,,,,,,,,,,,masks/mask_003.jpg,,,,,,,,,,,,,,,,,,,,,,,,,,,,,,,,,,,,,,,,,,,,,,,,0,4,4,2,1,,,,,,,,,,,,,,,,,,,,,,,,,,,,,,,,,,,,,,,,,
195386,001,2022-11-13_23h28.30.420,Info_measure_main_exp,2022.2.2,Win32,60.0528465,,,,,,,,,,,,,,,,,,,,,,,,,,,,,,7,2.2325,1,,,,,,,,,,,,0,131,5,5,2178,2142,absent_patch/patch0002178.jpg,absent_patch/patch0002142.jpg,,,,,,,,,,,,,,,,,,,,0.050000014,0.098148134,1,0,0,response1disk,1,-0.002777735,0,1,0,0,center_square,0,0,0,41,1,,,,,,,,,,,,,,,,,,,,,,,
195386,001,2022-11-13_23h28.30.420,Info_measure_main_exp,2022.2.2,Win32,60.0528465,,,,,,,,,,,,,,,,,,masks/mask_002.jpg,,,,,,,,,,,,,,,,,,,,,,,,,,,,,,,,,,,,,,,,,,,0,0,0,1,1,,,,,,,,,,,,,,,,,,,,,,,,,,,,,,,,,,,,,,,,,,,,,,
195386,001,2022-11-13_23h28.30.420,Info_measure_main_exp,2022.2.2,Win32,60.0528465,,,,,,,,,,,,,,,,,,masks/mask_004.jpg,,,,,,,,,,,,,,,,,,,,,,,,,,,,,,,,,,,,,,,,,,,0,1,1,3,1,,,,,,,,,,,,,,,,,,,,,,,,,,,,,,,,,,,,,,,,,,,,,,
195386,001,2022-11-13_23h28.30.420,Info_measure_main_exp,2022.2.2,Win32,60.0528465,,,,,,,,,,,,,,,,,,masks/mask_001.jpg,,,,,,,,,,,,,,,,,,,,,,,,,,,,,,,,,,,,,,,,,,,0,2,2,0,1,,,,,,,,,,,,,,,,,,,,,,,,,,,,,,,,,,,,,,,,,,,,,,
195386,001,2022-11-13_23h28.30.420,Info_measure_main_exp,2022.2.2,Win32,60.0528465,,,,,,,,,,,,,,,,,,masks/mask_003.jpg,,,,,,,,,,,,,,,,,,,,,,,,,,,,,,,,,,,,,,,,,,,0,3,3,2,1,,,,,,,,,,,,,,,,,,,,,,,,,,,,,,,,,,,,,,,,,,,,,,
195386,001,2022-11-13_23h28.30.420,Info_measure_main_exp,2022.2.2,Win32,60.0528465,,,,,,,,,,,,,,,,,,masks/mask_005.jpg,,,,,,,,,,,,,,,,,,,,,,,,,,,,,,,,,,,,,,,,,,,0,4,4,4,1,,,,,,,,,,,,,,,,,,,,,,,,,,,,,,,,,,,,,,,,,,,,,,
195386,001,2022-11-13_23h28.30.420,Info_measure_main_exp,2022.2.2,Win32,60.0528465,,,,,,,,,,,,,,,,,,masks/mask_001.jpg,,,,,,,,,,,,,,,,,,,,,,,,,,,,,,,,,,,,,,,,,,,,,,,,0,0,0,0,1,,,,,,,,,,,,,,,,,,,,,,,,,,,,,,,,,,,,,,,,,
195386,001,2022-11-13_23h28.30.420,Info_measure_main_exp,2022.2.2,Win32,60.0528465,,,,,,,,,,,,,,,,,,masks/mask_005.jpg,,,,,,,,,,,,,,,,,,,,,,,,,,,,,,,,,,,,,,,,,,,,,,,,0,1,1,4,1,,,,,,,,,,,,,,,,,,,,,,,,,,,,,,,,,,,,,,,,,
195386,001,2022-11-13_23h28.30.420,Info_measure_main_exp,2022.2.2,Win32,60.0528465,,,,,,,,,,,,,,,,,,masks/mask_002.jpg,,,,,,,,,,,,,,,,,,,,,,,,,,,,,,,,,,,,,,,,,,,,,,,,0,2,2,1,1,,,,,,,,,,,,,,,,,,,,,,,,,,,,,,,,,,,,,,,,,
195386,001,2022-11-13_23h28.30.420,Info_measure_main_exp,2022.2.2,Win32,60.0528465,,,,,,,,,,,,,,,,,,masks/mask_003.jpg,,,,,,,,,,,,,,,,,,,,,,,,,,,,,,,,,,,,,,,,,,,,,,,,0,3,3,2,1,,,,,,,,,,,,,,,,,,,,,,,,,,,,,,,,,,,,,,,,,
195386,001,2022-11-13_23h28.30.420,Info_measure_main_exp,2022.2.2,Win32,60.0528465,,,,,,,,,,,,,,,,,,masks/mask_004.jpg,,,,,,,,,,,,,,,,,,,,,,,,,,,,,,,,,,,,,,,,,,,,,,,,0,4,4,3,1,,,,,,,,,,,,,,,,,,,,,,,,,,,,,,,,,,,,,,,,,
195386,001,2022-11-13_23h28.30.420,Info_measure_main_exp,2022.2.2,Win32,60.0528465,,,,,,,,,,,,,,,,,,,,,,,,,,,,,,3,1.8863,1,,,,,,,,,,,,0,131,5,5,2190,2178,absent_patch/patch0002190.jpg,absent_patch/patch0002178.jpg,,,,,,,,,,,,,,,,,,,,-0.005555541,-0.079629651,1,0,0,response5disk,2,0.00462963,0.00462963,1,0,0,center_square,0,1,1,14,1,,,,,,,,,,,,,,,,,,,,,,,
195386,001,2022-11-13_23h28.30.420,Info_measure_main_exp,2022.2.2,Win32,60.0528465,,,,,,,,,,,,,,,,,,masks/mask_002.jpg,,,,,,,,,,,,,,,,,,,,,,,,,,,,,,,,,,,,,,,,,,,0,0,0,1,1,,,,,,,,,,,,,,,,,,,,,,,,,,,,,,,,,,,,,,,,,,,,,,
195386,001,2022-11-13_23h28.30.420,Info_measure_main_exp,2022.2.2,Win32,60.0528465,,,,,,,,,,,,,,,,,,masks/mask_004.jpg,,,,,,,,,,,,,,,,,,,,,,,,,,,,,,,,,,,,,,,,,,,0,1,1,3,1,,,,,,,,,,,,,,,,,,,,,,,,,,,,,,,,,,,,,,,,,,,,,,
195386,001,2022-11-13_23h28.30.420,Info_measure_main_exp,2022.2.2,Win32,60.0528465,,,,,,,,,,,,,,,,,,masks/mask_003.jpg,,,,,,,,,,,,,,,,,,,,,,,,,,,,,,,,,,,,,,,,,,,0,2,2,2,1,,,,,,,,,,,,,,,,,,,,,,,,,,,,,,,,,,,,,,,,,,,,,,
195386,001,2022-11-13_23h28.30.420,Info_measure_main_exp,2022.2.2,Win32,60.0528465,,,,,,,,,,,,,,,,,,masks/mask_005.jpg,,,,,,,,,,,,,,,,,,,,,,,,,,,,,,,,,,,,,,,,,,,0,3,3,4,1,,,,,,,,,,,,,,,,,,,,,,,,,,,,,,,,,,,,,,,,,,,,,,
195386,001,2022-11-13_23h28.30.420,Info_measure_main_exp,2022.2.2,Win32,60.0528465,,,,,,,,,,,,,,,,,,masks/mask_001.jpg,,,,,,,,,,,,,,,,,,,,,,,,,,,,,,,,,,,,,,,,,,,0,4,4,0,1,,,,,,,,,,,,,,,,,,,,,,,,,,,,,,,,,,,,,,,,,,,,,,
195386,001,2022-11-13_23h28.30.420,Info_measure_main_exp,2022.2.2,Win32,60.0528465,,,,,,,,,,,,,,,,,,masks/mask_001.jpg,,,,,,,,,,,,,,,,,,,,,,,,,,,,,,,,,,,,,,,,,,,,,,,,0,0,0,0,1,,,,,,,,,,,,,,,,,,,,,,,,,,,,,,,,,,,,,,,,,
195386,001,2022-11-13_23h28.30.420,Info_measure_main_exp,2022.2.2,Win32,60.0528465,,,,,,,,,,,,,,,,,,masks/mask_003.jpg,,,,,,,,,,,,,,,,,,,,,,,,,,,,,,,,,,,,,,,,,,,,,,,,0,1,1,2,1,,,,,,,,,,,,,,,,,,,,,,,,,,,,,,,,,,,,,,,,,
195386,001,2022-11-13_23h28.30.420,Info_measure_main_exp,2022.2.2,Win32,60.0528465,,,,,,,,,,,,,,,,,,masks/mask_004.jpg,,,,,,,,,,,,,,,,,,,,,,,,,,,,,,,,,,,,,,,,,,,,,,,,0,2,2,3,1,,,,,,,,,,,,,,,,,,,,,,,,,,,,,,,,,,,,,,,,,
195386,001,2022-11-13_23h28.30.420,Info_measure_main_exp,2022.2.2,Win32,60.0528465,,,,,,,,,,,,,,,,,,masks/mask_002.jpg,,,,,,,,,,,,,,,,,,,,,,,,,,,,,,,,,,,,,,,,,,,,,,,,0,3,3,1,1,,,,,,,,,,,,,,,,,,,,,,,,,,,,,,,,,,,,,,,,,
195386,001,2022-11-13_23h28.30.420,Info_measure_main_exp,2022.2.2,Win32,60.0528465,,,,,,,,,,,,,,,,,,masks/mask_005.jpg,,,,,,,,,,,,,,,,,,,,,,,,,,,,,,,,,,,,,,,,,,,,,,,,0,4,4,4,1,,,,,,,,,,,,,,,,,,,,,,,,,,,,,,,,,,,,,,,,,
195386,001,2022-11-13_23h28.30.420,Info_measure_main_exp,2022.2.2,Win32,60.0528465,,,,,,,,,,,,,,,,,,,,,,,,,,,,,,7,1.016,1,,,,,,,,,,,,0,131,5,5,1950,2166,absent_patch/patch0001950.jpg,absent_patch/patch0002166.jpg,,,,,,,,,,,,,,,,,,,,0.073148162,0.140740748,1,0,0,response1disk,3,0,0.011111118,1,0,0,center_square,0,2,2,0,1,,,,,,,,,,,,,,,,,,,,,,,
195386,001,2022-11-13_23h28.30.420,Info_measure_main_exp,2022.2.2,Win32,60.0528465,,,,,,,,,,,,,,,,,,masks/mask_003.jpg,,,,,,,,,,,,,,,,,,,,,,,,,,,,,,,,,,,,,,,,,,,0,0,0,2,1,,,,,,,,,,,,,,,,,,,,,,,,,,,,,,,,,,,,,,,,,,,,,,
195386,001,2022-11-13_23h28.30.420,Info_measure_main_exp,2022.2.2,Win32,60.0528465,,,,,,,,,,,,,,,,,,masks/mask_004.jpg,,,,,,,,,,,,,,,,,,,,,,,,,,,,,,,,,,,,,,,,,,,0,1,1,3,1,,,,,,,,,,,,,,,,,,,,,,,,,,,,,,,,,,,,,,,,,,,,,,
195386,001,2022-11-13_23h28.30.420,Info_measure_main_exp,2022.2.2,Win32,60.0528465,,,,,,,,,,,,,,,,,,masks/mask_001.jpg,,,,,,,,,,,,,,,,,,,,,,,,,,,,,,,,,,,,,,,,,,,0,2,2,0,1,,,,,,,,,,,,,,,,,,,,,,,,,,,,,,,,,,,,,,,,,,,,,,
195386,001,2022-11-13_23h28.30.420,Info_measure_main_exp,2022.2.2,Win32,60.0528465,,,,,,,,,,,,,,,,,,masks/mask_002.jpg,,,,,,,,,,,,,,,,,,,,,,,,,,,,,,,,,,,,,,,,,,,0,3,3,1,1,,,,,,,,,,,,,,,,,,,,,,,,,,,,,,,,,,,,,,,,,,,,,,
195386,001,2022-11-13_23h28.30.420,Info_measure_main_exp,2022.2.2,Win32,60.0528465,,,,,,,,,,,,,,,,,,masks/mask_005.jpg,,,,,,,,,,,,,,,,,,,,,,,,,,,,,,,,,,,,,,,,,,,0,4,4,4,1,,,,,,,,,,,,,,,,,,,,,,,,,,,,,,,,,,,,,,,,,,,,,,
195386,001,2022-11-13_23h28.30.420,Info_measure_main_exp,2022.2.2,Win32,60.0528465,,,,,,,,,,,,,,,,,,masks/mask_002.jpg,,,,,,,,,,,,,,,,,,,,,,,,,,,,,,,,,,,,,,,,,,,,,,,,0,0,0,1,1,,,,,,,,,,,,,,,,,,,,,,,,,,,,,,,,,,,,,,,,,
195386,001,2022-11-13_23h28.30.420,Info_measure_main_exp,2022.2.2,Win32,60.0528465,,,,,,,,,,,,,,,,,,masks/mask_001.jpg,,,,,,,,,,,,,,,,,,,,,,,,,,,,,,,,,,,,,,,,,,,,,,,,0,1,1,0,1,,,,,,,,,,,,,,,,,,,,,,,,,,,,,,,,,,,,,,,,,
195386,001,2022-11-13_23h28.30.420,Info_measure_main_exp,2022.2.2,Win32,60.0528465,,,,,,,,,,,,,,,,,,masks/mask_003.jpg,,,,,,,,,,,,,,,,,,,,,,,,,,,,,,,,,,,,,,,,,,,,,,,,0,2,2,2,1,,,,,,,,,,,,,,,,,,,,,,,,,,,,,,,,,,,,,,,,,
195386,001,2022-11-13_23h28.30.420,Info_measure_main_exp,2022.2.2,Win32,60.0528465,,,,,,,,,,,,,,,,,,masks/mask_004.jpg,,,,,,,,,,,,,,,,,,,,,,,,,,,,,,,,,,,,,,,,,,,,,,,,0,3,3,3,1,,,,,,,,,,,,,,,,,,,,,,,,,,,,,,,,,,,,,,,,,
195386,001,2022-11-13_23h28.30.420,Info_measure_main_exp,2022.2.2,Win32,60.0528465,,,,,,,,,,,,,,,,,,masks/mask_005.jpg,,,,,,,,,,,,,,,,,,,,,,,,,,,,,,,,,,,,,,,,,,,,,,,,0,4,4,4,1,,,,,,,,,,,,,,,,,,,,,,,,,,,,,,,,,,,,,,,,,
195386,001,2022-11-13_23h28.30.420,Info_measure_main_exp,2022.2.2,Win32,60.0528465,,,,,,,,,,,,,,,,,,,,,,,,,,,,,,7,0.9831,1,,,,,,,,,,,,1,131,5,5,1950,1,absent_patch/patch0001950.jpg,present_patch/cong_131_5_a.jpg,,,,,,,,,,,,,,,,,,,,0.027777778,0.093518504,1,0,0,response1disk,4,-0.003703718,-0.014814836,1,0,0,center_square,0,3,3,39,1,,,,,,,,,,,,,,,,,,,,,,,
195386,001,2022-11-13_23h28.30.420,Info_measure_main_exp,2022.2.2,Win32,60.0528465,,,,,,,,,,,,,,,,,,masks/mask_002.jpg,,,,,,,,,,,,,,,,,,,,,,,,,,,,,,,,,,,,,,,,,,,0,0,0,1,1,,,,,,,,,,,,,,,,,,,,,,,,,,,,,,,,,,,,,,,,,,,,,,
195386,001,2022-11-13_23h28.30.420,Info_measure_main_exp,2022.2.2,Win32,60.0528465,,,,,,,,,,,,,,,,,,masks/mask_003.jpg,,,,,,,,,,,,,,,,,,,,,,,,,,,,,,,,,,,,,,,,,,,0,1,1,2,1,,,,,,,,,,,,,,,,,,,,,,,,,,,,,,,,,,,,,,,,,,,,,,
195386,001,2022-11-13_23h28.30.420,Info_measure_main_exp,2022.2.2,Win32,60.0528465,,,,,,,,,,,,,,,,,,masks/mask_001.jpg,,,,,,,,,,,,,,,,,,,,,,,,,,,,,,,,,,,,,,,,,,,0,2,2,0,1,,,,,,,,,,,,,,,,,,,,,,,,,,,,,,,,,,,,,,,,,,,,,,
195386,001,2022-11-13_23h28.30.420,Info_measure_main_exp,2022.2.2,Win32,60.0528465,,,,,,,,,,,,,,,,,,masks/mask_004.jpg,,,,,,,,,,,,,,,,,,,,,,,,,,,,,,,,,,,,,,,,,,,0,3,3,3,1,,,,,,,,,,,,,,,,,,,,,,,,,,,,,,,,,,,,,,,,,,,,,,
195386,001,2022-11-13_23h28.30.420,Info_measure_main_exp,2022.2.2,Win32,60.0528465,,,,,,,,,,,,,,,,,,masks/mask_005.jpg,,,,,,,,,,,,,,,,,,,,,,,,,,,,,,,,,,,,,,,,,,,0,4,4,4,1,,,,,,,,,,,,,,,,,,,,,,,,,,,,,,,,,,,,,,,,,,,,,,
195386,001,2022-11-13_23h28.30.420,Info_measure_main_exp,2022.2.2,Win32,60.0528465,,,,,,,,,,,,,,,,,,masks/mask_001.jpg,,,,,,,,,,,,,,,,,,,,,,,,,,,,,,,,,,,,,,,,,,,,,,,,0,0,0,0,1,,,,,,,,,,,,,,,,,,,,,,,,,,,,,,,,,,,,,,,,,
195386,001,2022-11-13_23h28.30.420,Info_measure_main_exp,2022.2.2,Win32,60.0528465,,,,,,,,,,,,,,,,,,masks/mask_005.jpg,,,,,,,,,,,,,,,,,,,,,,,,,,,,,,,,,,,,,,,,,,,,,,,,0,1,1,4,1,,,,,,,,,,,,,,,,,,,,,,,,,,,,,,,,,,,,,,,,,
195386,001,2022-11-13_23h28.30.420,Info_measure_main_exp,2022.2.2,Win32,60.0528465,,,,,,,,,,,,,,,,,,masks/mask_004.jpg,,,,,,,,,,,,,,,,,,,,,,,,,,,,,,,,,,,,,,,,,,,,,,,,0,2,2,3,1,,,,,,,,,,,,,,,,,,,,,,,,,,,,,,,,,,,,,,,,,
195386,001,2022-11-13_23h28.30.420,Info_measure_main_exp,2022.2.2,Win32,60.0528465,,,,,,,,,,,,,,,,,,masks/mask_002.jpg,,,,,,,,,,,,,,,,,,,,,,,,,,,,,,,,,,,,,,,,,,,,,,,,0,3,3,1,1,,,,,,,,,,,,,,,,,,,,,,,,,,,,,,,,,,,,,,,,,
195386,001,2022-11-13_23h28.30.420,Info_measure_main_exp,2022.2.2,Win32,60.0528465,,,,,,,,,,,,,,,,,,masks/mask_003.jpg,,,,,,,,,,,,,,,,,,,,,,,,,,,,,,,,,,,,,,,,,,,,,,,,0,4,4,2,1,,,,,,,,,,,,,,,,,,,,,,,,,,,,,,,,,,,,,,,,,
195386,001,2022-11-13_23h28.30.420,Info_measure_main_exp,2022.2.2,Win32,60.0528465,,,,,,,,,,,,,,,,,,,,,,,,,,,,,,7,1.7266,1,,,,,,,,,,,,0,131,5,5,2250,2298,absent_patch/patch0002250.jpg,absent_patch/patch0002298.jpg,,,,,,,,,,,,,,,,,,,,0.065740727,0.094444452,1,0,0,response1disk,5,0.011111153,-0.002777771,1,0,0,center_square,0,4,4,59,1,,,,,,,,,,,,,,,,,,,,,,,
195386,001,2022-11-13_23h28.30.420,Info_measure_main_exp,2022.2.2,Win32,60.0528465,,,,,,,,,,,,,,,,,,masks/mask_005.jpg,,,,,,,,,,,,,,,,,,,,,,,,,,,,,,,,,,,,,,,,,,,0,0,0,4,1,,,,,,,,,,,,,,,,,,,,,,,,,,,,,,,,,,,,,,,,,,,,,,
195386,001,2022-11-13_23h28.30.420,Info_measure_main_exp,2022.2.2,Win32,60.0528465,,,,,,,,,,,,,,,,,,masks/mask_001.jpg,,,,,,,,,,,,,,,,,,,,,,,,,,,,,,,,,,,,,,,,,,,0,1,1,0,1,,,,,,,,,,,,,,,,,,,,,,,,,,,,,,,,,,,,,,,,,,,,,,
195386,001,2022-11-13_23h28.30.420,Info_measure_main_exp,2022.2.2,Win32,60.0528465,,,,,,,,,,,,,,,,,,masks/mask_002.jpg,,,,,,,,,,,,,,,,,,,,,,,,,,,,,,,,,,,,,,,,,,,0,2,2,1,1,,,,,,,,,,,,,,,,,,,,,,,,,,,,,,,,,,,,,,,,,,,,,,
195386,001,2022-11-13_23h28.30.420,Info_measure_main_exp,2022.2.2,Win32,60.0528465,,,,,,,,,,,,,,,,,,masks/mask_003.jpg,,,,,,,,,,,,,,,,,,,,,,,,,,,,,,,,,,,,,,,,,,,0,3,3,2,1,,,,,,,,,,,,,,,,,,,,,,,,,,,,,,,,,,,,,,,,,,,,,,
195386,001,2022-11-13_23h28.30.420,Info_measure_main_exp,2022.2.2,Win32,60.0528465,,,,,,,,,,,,,,,,,,masks/mask_004.jpg,,,,,,,,,,,,,,,,,,,,,,,,,,,,,,,,,,,,,,,,,,,0,4,4,3,1,,,,,,,,,,,,,,,,,,,,,,,,,,,,,,,,,,,,,,,,,,,,,,
195386,001,2022-11-13_23h28.30.420,Info_measure_main_exp,2022.2.2,Win32,60.0528465,,,,,,,,,,,,,,,,,,masks/mask_001.jpg,,,,,,,,,,,,,,,,,,,,,,,,,,,,,,,,,,,,,,,,,,,,,,,,0,0,0,0,1,,,,,,,,,,,,,,,,,,,,,,,,,,,,,,,,,,,,,,,,,
195386,001,2022-11-13_23h28.30.420,Info_measure_main_exp,2022.2.2,Win32,60.0528465,,,,,,,,,,,,,,,,,,masks/mask_002.jpg,,,,,,,,,,,,,,,,,,,,,,,,,,,,,,,,,,,,,,,,,,,,,,,,0,1,1,1,1,,,,,,,,,,,,,,,,,,,,,,,,,,,,,,,,,,,,,,,,,
195386,001,2022-11-13_23h28.30.420,Info_measure_main_exp,2022.2.2,Win32,60.0528465,,,,,,,,,,,,,,,,,,masks/mask_003.jpg,,,,,,,,,,,,,,,,,,,,,,,,,,,,,,,,,,,,,,,,,,,,,,,,0,2,2,2,1,,,,,,,,,,,,,,,,,,,,,,,,,,,,,,,,,,,,,,,,,
195386,001,2022-11-13_23h28.30.420,Info_measure_main_exp,2022.2.2,Win32,60.0528465,,,,,,,,,,,,,,,,,,masks/mask_005.jpg,,,,,,,,,,,,,,,,,,,,,,,,,,,,,,,,,,,,,,,,,,,,,,,,0,3,3,4,1,,,,,,,,,,,,,,,,,,,,,,,,,,,,,,,,,,,,,,,,,
195386,001,2022-11-13_23h28.30.420,Info_measure_main_exp,2022.2.2,Win32,60.0528465,,,,,,,,,,,,,,,,,,masks/mask_004.jpg,,,,,,,,,,,,,,,,,,,,,,,,,,,,,,,,,,,,,,,,,,,,,,,,0,4,4,3,1,,,,,,,,,,,,,,,,,,,,,,,,,,,,,,,,,,,,,,,,,
195386,001,2022-11-13_23h28.30.420,Info_measure_main_exp,2022.2.2,Win32,60.0528465,,,,,,,,,,,,,,,,,,,,,,,,,,,,,,0,0.9997,1,,,,,,,,,,,,0,131,5,5,2166,2166,absent_patch/patch0002166.jpg,absent_patch/patch0002166.jpg,,,,,,,,,,,,,,,,,,,,-0.04814812,0.147222201,1,0,0,response7disk,6,-0.003703718,-0.000925947,1,0,0,center_square,0,5,5,42,1,,,,,,,,,,,,,,,,,,,,,,,
195386,001,2022-11-13_23h28.30.420,Info_measure_main_exp,2022.2.2,Win32,60.0528465,,,,,,,,,,,,,,,,,,masks/mask_004.jpg,,,,,,,,,,,,,,,,,,,,,,,,,,,,,,,,,,,,,,,,,,,0,0,0,3,1,,,,,,,,,,,,,,,,,,,,,,,,,,,,,,,,,,,,,,,,,,,,,,
195386,001,2022-11-13_23h28.30.420,Info_measure_main_exp,2022.2.2,Win32,60.0528465,,,,,,,,,,,,,,,,,,masks/mask_002.jpg,,,,,,,,,,,,,,,,,,,,,,,,,,,,,,,,,,,,,,,,,,,0,1,1,1,1,,,,,,,,,,,,,,,,,,,,,,,,,,,,,,,,,,,,,,,,,,,,,,
195386,001,2022-11-13_23h28.30.420,Info_measure_main_exp,2022.2.2,Win32,60.0528465,,,,,,,,,,,,,,,,,,masks/mask_001.jpg,,,,,,,,,,,,,,,,,,,,,,,,,,,,,,,,,,,,,,,,,,,0,2,2,0,1,,,,,,,,,,,,,,,,,,,,,,,,,,,,,,,,,,,,,,,,,,,,,,
195386,001,2022-11-13_23h28.30.420,Info_measure_main_exp,2022.2.2,Win32,60.0528465,,,,,,,,,,,,,,,,,,masks/mask_003.jpg,,,,,,,,,,,,,,,,,,,,,,,,,,,,,,,,,,,,,,,,,,,0,3,3,2,1,,,,,,,,,,,,,,,,,,,,,,,,,,,,,,,,,,,,,,,,,,,,,,
195386,001,2022-11-13_23h28.30.420,Info_measure_main_exp,2022.2.2,Win32,60.0528465,,,,,,,,,,,,,,,,,,masks/mask_005.jpg,,,,,,,,,,,,,,,,,,,,,,,,,,,,,,,,,,,,,,,,,,,0,4,4,4,1,,,,,,,,,,,,,,,,,,,,,,,,,,,,,,,,,,,,,,,,,,,,,,
195386,001,2022-11-13_23h28.30.420,Info_measure_main_exp,2022.2.2,Win32,60.0528465,,,,,,,,,,,,,,,,,,masks/mask_005.jpg,,,,,,,,,,,,,,,,,,,,,,,,,,,,,,,,,,,,,,,,,,,,,,,,0,0,0,4,1,,,,,,,,,,,,,,,,,,,,,,,,,,,,,,,,,,,,,,,,,
195386,001,2022-11-13_23h28.30.420,Info_measure_main_exp,2022.2.2,Win32,60.0528465,,,,,,,,,,,,,,,,,,masks/mask_003.jpg,,,,,,,,,,,,,,,,,,,,,,,,,,,,,,,,,,,,,,,,,,,,,,,,0,1,1,2,1,,,,,,,,,,,,,,,,,,,,,,,,,,,,,,,,,,,,,,,,,
195386,001,2022-11-13_23h28.30.420,Info_measure_main_exp,2022.2.2,Win32,60.0528465,,,,,,,,,,,,,,,,,,masks/mask_004.jpg,,,,,,,,,,,,,,,,,,,,,,,,,,,,,,,,,,,,,,,,,,,,,,,,0,2,2,3,1,,,,,,,,,,,,,,,,,,,,,,,,,,,,,,,,,,,,,,,,,
195386,001,2022-11-13_23h28.30.420,Info_measure_main_exp,2022.2.2,Win32,60.0528465,,,,,,,,,,,,,,,,,,masks/mask_002.jpg,,,,,,,,,,,,,,,,,,,,,,,,,,,,,,,,,,,,,,,,,,,,,,,,0,3,3,1,1,,,,,,,,,,,,,,,,,,,,,,,,,,,,,,,,,,,,,,,,,
195386,001,2022-11-13_23h28.30.420,Info_measure_main_exp,2022.2.2,Win32,60.0528465,,,,,,,,,,,,,,,,,,masks/mask_001.jpg,,,,,,,,,,,,,,,,,,,,,,,,,,,,,,,,,,,,,,,,,,,,,,,,0,4,4,0,1,,,,,,,,,,,,,,,,,,,,,,,,,,,,,,,,,,,,,,,,,
195386,001,2022-11-13_23h28.30.420,Info_measure_main_exp,2022.2.2,Win32,60.0528465,,,,,,,,,,,,,,,,,,,,,,,,,,,,,,7,1.0724,1,,,,,,,,,,,,0,131,5,5,2298,2142,absent_patch/patch0002298.jpg,absent_patch/patch0002142.jpg,,,,,,,,,,,,,,,,,,,,0.02870369,0.062037044,1,0,0,response1disk,7,-0.001851824,-0.002777771,1,0,0,center_square,0,6,6,49,1,,,,,,,,,,,,,,,,,,,,,,,
195386,001,2022-11-13_23h28.30.420,Info_measure_main_exp,2022.2.2,Win32,60.0528465,,,,,,,,,,,,,,,,,,masks/mask_004.jpg,,,,,,,,,,,,,,,,,,,,,,,,,,,,,,,,,,,,,,,,,,,0,0,0,3,1,,,,,,,,,,,,,,,,,,,,,,,,,,,,,,,,,,,,,,,,,,,,,,
195386,001,2022-11-13_23h28.30.420,Info_measure_main_exp,2022.2.2,Win32,60.0528465,,,,,,,,,,,,,,,,,,masks/mask_003.jpg,,,,,,,,,,,,,,,,,,,,,,,,,,,,,,,,,,,,,,,,,,,0,1,1,2,1,,,,,,,,,,,,,,,,,,,,,,,,,,,,,,,,,,,,,,,,,,,,,,
195386,001,2022-11-13_23h28.30.420,Info_measure_main_exp,2022.2.2,Win32,60.0528465,,,,,,,,,,,,,,,,,,masks/mask_002.jpg,,,,,,,,,,,,,,,,,,,,,,,,,,,,,,,,,,,,,,,,,,,0,2,2,1,1,,,,,,,,,,,,,,,,,,,,,,,,,,,,,,,,,,,,,,,,,,,,,,
195386,001,2022-11-13_23h28.30.420,Info_measure_main_exp,2022.2.2,Win32,60.0528465,,,,,,,,,,,,,,,,,,masks/mask_005.jpg,,,,,,,,,,,,,,,,,,,,,,,,,,,,,,,,,,,,,,,,,,,0,3,3,4,1,,,,,,,,,,,,,,,,,,,,,,,,,,,,,,,,,,,,,,,,,,,,,,
195386,001,2022-11-13_23h28.30.420,Info_measure_main_exp,2022.2.2,Win32,60.0528465,,,,,,,,,,,,,,,,,,masks/mask_001.jpg,,,,,,,,,,,,,,,,,,,,,,,,,,,,,,,,,,,,,,,,,,,0,4,4,0,1,,,,,,,,,,,,,,,,,,,,,,,,,,,,,,,,,,,,,,,,,,,,,,
195386,001,2022-11-13_23h28.30.420,Info_measure_main_exp,2022.2.2,Win32,60.0528465,,,,,,,,,,,,,,,,,,masks/mask_004.jpg,,,,,,,,,,,,,,,,,,,,,,,,,,,,,,,,,,,,,,,,,,,,,,,,0,0,0,3,1,,,,,,,,,,,,,,,,,,,,,,,,,,,,,,,,,,,,,,,,,
195386,001,2022-11-13_23h28.30.420,Info_measure_main_exp,2022.2.2,Win32,60.0528465,,,,,,,,,,,,,,,,,,masks/mask_003.jpg,,,,,,,,,,,,,,,,,,,,,,,,,,,,,,,,,,,,,,,,,,,,,,,,0,1,1,2,1,,,,,,,,,,,,,,,,,,,,,,,,,,,,,,,,,,,,,,,,,
195386,001,2022-11-13_23h28.30.420,Info_measure_main_exp,2022.2.2,Win32,60.0528465,,,,,,,,,,,,,,,,,,masks/mask_005.jpg,,,,,,,,,,,,,,,,,,,,,,,,,,,,,,,,,,,,,,,,,,,,,,,,0,2,2,4,1,,,,,,,,,,,,,,,,,,,,,,,,,,,,,,,,,,,,,,,,,
195386,001,2022-11-13_23h28.30.420,Info_measure_main_exp,2022.2.2,Win32,60.0528465,,,,,,,,,,,,,,,,,,masks/mask_002.jpg,,,,,,,,,,,,,,,,,,,,,,,,,,,,,,,,,,,,,,,,,,,,,,,,0,3,3,1,1,,,,,,,,,,,,,,,,,,,,,,,,,,,,,,,,,,,,,,,,,
195386,001,2022-11-13_23h28.30.420,Info_measure_main_exp,2022.2.2,Win32,60.0528465,,,,,,,,,,,,,,,,,,masks/mask_001.jpg,,,,,,,,,,,,,,,,,,,,,,,,,,,,,,,,,,,,,,,,,,,,,,,,0,4,4,0,1,,,,,,,,,,,,,,,,,,,,,,,,,,,,,,,,,,,,,,,,,
195386,001,2022-11-13_23h28.30.420,Info_measure_main_exp,2022.2.2,Win32,60.0528465,,,,,,,,,,,,,,,,,,,,,,,,,,,,,,5,1.9821,1,,,,,,,,,,,,0,131,5,5,2274,2082,absent_patch/patch0002274.jpg,absent_patch/patch0002082.jpg,,,,,,,,,,,,,,,,,,,,0.07685188,-0.008333347,1,0,0,response3disk,8,0.006481524,0.003703683,1,0,0,center_square,0,7,7,100,1,,,,,,,,,,,,,,,,,,,,,,,
195386,001,2022-11-13_23h28.30.420,Info_measure_main_exp,2022.2.2,Win32,60.0528465,,,,,,,,,,,,,,,,,,masks/mask_003.jpg,,,,,,,,,,,,,,,,,,,,,,,,,,,,,,,,,,,,,,,,,,,0,0,0,2,1,,,,,,,,,,,,,,,,,,,,,,,,,,,,,,,,,,,,,,,,,,,,,,
195386,001,2022-11-13_23h28.30.420,Info_measure_main_exp,2022.2.2,Win32,60.0528465,,,,,,,,,,,,,,,,,,masks/mask_005.jpg,,,,,,,,,,,,,,,,,,,,,,,,,,,,,,,,,,,,,,,,,,,0,1,1,4,1,,,,,,,,,,,,,,,,,,,,,,,,,,,,,,,,,,,,,,,,,,,,,,
195386,001,2022-11-13_23h28.30.420,Info_measure_main_exp,2022.2.2,Win32,60.0528465,,,,,,,,,,,,,,,,,,masks/mask_001.jpg,,,,,,,,,,,,,,,,,,,,,,,,,,,,,,,,,,,,,,,,,,,0,2,2,0,1,,,,,,,,,,,,,,,,,,,,,,,,,,,,,,,,,,,,,,,,,,,,,,
195386,001,2022-11-13_23h28.30.420,Info_measure_main_exp,2022.2.2,Win32,60.0528465,,,,,,,,,,,,,,,,,,masks/mask_002.jpg,,,,,,,,,,,,,,,,,,,,,,,,,,,,,,,,,,,,,,,,,,,0,3,3,1,1,,,,,,,,,,,,,,,,,,,,,,,,,,,,,,,,,,,,,,,,,,,,,,
195386,001,2022-11-13_23h28.30.420,Info_measure_main_exp,2022.2.2,Win32,60.0528465,,,,,,,,,,,,,,,,,,masks/mask_004.jpg,,,,,,,,,,,,,,,,,,,,,,,,,,,,,,,,,,,,,,,,,,,0,4,4,3,1,,,,,,,,,,,,,,,,,,,,,,,,,,,,,,,,,,,,,,,,,,,,,,
195386,001,2022-11-13_23h28.30.420,Info_measure_main_exp,2022.2.2,Win32,60.0528465,,,,,,,,,,,,,,,,,,masks/mask_002.jpg,,,,,,,,,,,,,,,,,,,,,,,,,,,,,,,,,,,,,,,,,,,,,,,,0,0,0,1,1,,,,,,,,,,,,,,,,,,,,,,,,,,,,,,,,,,,,,,,,,
195386,001,2022-11-13_23h28.30.420,Info_measure_main_exp,2022.2.2,Win32,60.0528465,,,,,,,,,,,,,,,,,,masks/mask_003.jpg,,,,,,,,,,,,,,,,,,,,,,,,,,,,,,,,,,,,,,,,,,,,,,,,0,1,1,2,1,,,,,,,,,,,,,,,,,,,,,,,,,,,,,,,,,,,,,,,,,
195386,001,2022-11-13_23h28.30.420,Info_measure_main_exp,2022.2.2,Win32,60.0528465,,,,,,,,,,,,,,,,,,masks/mask_005.jpg,,,,,,,,,,,,,,,,,,,,,,,,,,,,,,,,,,,,,,,,,,,,,,,,0,2,2,4,1,,,,,,,,,,,,,,,,,,,,,,,,,,,,,,,,,,,,,,,,,
195386,001,2022-11-13_23h28.30.420,Info_measure_main_exp,2022.2.2,Win32,60.0528465,,,,,,,,,,,,,,,,,,masks/mask_004.jpg,,,,,,,,,,,,,,,,,,,,,,,,,,,,,,,,,,,,,,,,,,,,,,,,0,3,3,3,1,,,,,,,,,,,,,,,,,,,,,,,,,,,,,,,,,,,,,,,,,
195386,001,2022-11-13_23h28.30.420,Info_measure_main_exp,2022.2.2,Win32,60.0528465,,,,,,,,,,,,,,,,,,masks/mask_001.jpg,,,,,,,,,,,,,,,,,,,,,,,,,,,,,,,,,,,,,,,,,,,,,,,,0,4,4,0,1,,,,,,,,,,,,,,,,,,,,,,,,,,,,,,,,,,,,,,,,,
195386,001,2022-11-13_23h28.30.420,Info_measure_main_exp,2022.2.2,Win32,60.0528465,,,,,,,,,,,,,,,,,,,,,,,,,,,,,,2,2.5483,1,,,,,,,,,,,,0,131,5,5,2142,2166,absent_patch/patch0002142.jpg,absent_patch/patch0002166.jpg,,,,,,,,,,,,,,,,,,,,-0.041666667,-0.037037037,1,0,0,response5disk,9,-0.012036995,-0.013888889,1,0,0,center_square,0,8,8,66,1,,,,,,,,,,,,,,,,,,,,,,,
195386,001,2022-11-13_23h28.30.420,Info_measure_main_exp,2022.2.2,Win32,60.0528465,,,,,,,,,,,,,,,,,,masks/mask_001.jpg,,,,,,,,,,,,,,,,,,,,,,,,,,,,,,,,,,,,,,,,,,,0,0,0,0,1,,,,,,,,,,,,,,,,,,,,,,,,,,,,,,,,,,,,,,,,,,,,,,
195386,001,2022-11-13_23h28.30.420,Info_measure_main_exp,2022.2.2,Win32,60.0528465,,,,,,,,,,,,,,,,,,masks/mask_003.jpg,,,,,,,,,,,,,,,,,,,,,,,,,,,,,,,,,,,,,,,,,,,0,1,1,2,1,,,,,,,,,,,,,,,,,,,,,,,,,,,,,,,,,,,,,,,,,,,,,,
195386,001,2022-11-13_23h28.30.420,Info_measure_main_exp,2022.2.2,Win32,60.0528465,,,,,,,,,,,,,,,,,,masks/mask_002.jpg,,,,,,,,,,,,,,,,,,,,,,,,,,,,,,,,,,,,,,,,,,,0,2,2,1,1,,,,,,,,,,,,,,,,,,,,,,,,,,,,,,,,,,,,,,,,,,,,,,
195386,001,2022-11-13_23h28.30.420,Info_measure_main_exp,2022.2.2,Win32,60.0528465,,,,,,,,,,,,,,,,,,masks/mask_004.jpg,,,,,,,,,,,,,,,,,,,,,,,,,,,,,,,,,,,,,,,,,,,0,3,3,3,1,,,,,,,,,,,,,,,,,,,,,,,,,,,,,,,,,,,,,,,,,,,,,,
195386,001,2022-11-13_23h28.30.420,Info_measure_main_exp,2022.2.2,Win32,60.0528465,,,,,,,,,,,,,,,,,,masks/mask_005.jpg,,,,,,,,,,,,,,,,,,,,,,,,,,,,,,,,,,,,,,,,,,,0,4,4,4,1,,,,,,,,,,,,,,,,,,,,,,,,,,,,,,,,,,,,,,,,,,,,,,
195386,001,2022-11-13_23h28.30.420,Info_measure_main_exp,2022.2.2,Win32,60.0528465,,,,,,,,,,,,,,,,,,masks/mask_004.jpg,,,,,,,,,,,,,,,,,,,,,,,,,,,,,,,,,,,,,,,,,,,,,,,,0,0,0,3,1,,,,,,,,,,,,,,,,,,,,,,,,,,,,,,,,,,,,,,,,,
195386,001,2022-11-13_23h28.30.420,Info_measure_main_exp,2022.2.2,Win32,60.0528465,,,,,,,,,,,,,,,,,,masks/mask_002.jpg,,,,,,,,,,,,,,,,,,,,,,,,,,,,,,,,,,,,,,,,,,,,,,,,0,1,1,1,1,,,,,,,,,,,,,,,,,,,,,,,,,,,,,,,,,,,,,,,,,
195386,001,2022-11-13_23h28.30.420,Info_measure_main_exp,2022.2.2,Win32,60.0528465,,,,,,,,,,,,,,,,,,masks/mask_001.jpg,,,,,,,,,,,,,,,,,,,,,,,,,,,,,,,,,,,,,,,,,,,,,,,,0,2,2,0,1,,,,,,,,,,,,,,,,,,,,,,,,,,,,,,,,,,,,,,,,,
195386,001,2022-11-13_23h28.30.420,Info_measure_main_exp,2022.2.2,Win32,60.0528465,,,,,,,,,,,,,,,,,,masks/mask_003.jpg,,,,,,,,,,,,,,,,,,,,,,,,,,,,,,,,,,,,,,,,,,,,,,,,0,3,3,2,1,,,,,,,,,,,,,,,,,,,,,,,,,,,,,,,,,,,,,,,,,
195386,001,2022-11-13_23h28.30.420,Info_measure_main_exp,2022.2.2,Win32,60.0528465,,,,,,,,,,,,,,,,,,masks/mask_005.jpg,,,,,,,,,,,,,,,,,,,,,,,,,,,,,,,,,,,,,,,,,,,,,,,,0,4,4,4,1,,,,,,,,,,,,,,,,,,,,,,,,,,,,,,,,,,,,,,,,,
195386,001,2022-11-13_23h28.30.420,Info_measure_main_exp,2022.2.2,Win32,60.0528465,,,,,,,,,,,,,,,,,,,,,,,,,,,,,,2,3.9318,1,,,,,,,,,,,,0,131,5,5,1950,2142,absent_patch/patch0001950.jpg,absent_patch/patch0002142.jpg,,,,,,,,,,,,,,,,,,,,-0.07222218,-0.043518526,1,0,0,response5disk,10,-0.007407365,-0.008333347,1,0,0,center_square,0,9,9,83,1,,,,,,,,,,,,,,,,,,,,,,,
195386,001,2022-11-13_23h28.30.420,Info_measure_main_exp,2022.2.2,Win32,60.0528465,,,,,,,,,,,,,,,,,,masks/mask_005.jpg,,,,,,,,,,,,,,,,,,,,,,,,,,,,,,,,,,,,,,,,,,,0,0,0,4,1,,,,,,,,,,,,,,,,,,,,,,,,,,,,,,,,,,,,,,,,,,,,,,
195386,001,2022-11-13_23h28.30.420,Info_measure_main_exp,2022.2.2,Win32,60.0528465,,,,,,,,,,,,,,,,,,masks/mask_002.jpg,,,,,,,,,,,,,,,,,,,,,,,,,,,,,,,,,,,,,,,,,,,0,1,1,1,1,,,,,,,,,,,,,,,,,,,,,,,,,,,,,,,,,,,,,,,,,,,,,,
195386,001,2022-11-13_23h28.30.420,Info_measure_main_exp,2022.2.2,Win32,60.0528465,,,,,,,,,,,,,,,,,,masks/mask_001.jpg,,,,,,,,,,,,,,,,,,,,,,,,,,,,,,,,,,,,,,,,,,,0,2,2,0,1,,,,,,,,,,,,,,,,,,,,,,,,,,,,,,,,,,,,,,,,,,,,,,
195386,001,2022-11-13_23h28.30.420,Info_measure_main_exp,2022.2.2,Win32,60.0528465,,,,,,,,,,,,,,,,,,masks/mask_004.jpg,,,,,,,,,,,,,,,,,,,,,,,,,,,,,,,,,,,,,,,,,,,0,3,3,3,1,,,,,,,,,,,,,,,,,,,,,,,,,,,,,,,,,,,,,,,,,,,,,,
195386,001,2022-11-13_23h28.30.420,Info_measure_main_exp,2022.2.2,Win32,60.0528465,,,,,,,,,,,,,,,,,,masks/mask_003.jpg,,,,,,,,,,,,,,,,,,,,,,,,,,,,,,,,,,,,,,,,,,,0,4,4,2,1,,,,,,,,,,,,,,,,,,,,,,,,,,,,,,,,,,,,,,,,,,,,,,
195386,001,2022-11-13_23h28.30.420,Info_measure_main_exp,2022.2.2,Win32,60.0528465,,,,,,,,,,,,,,,,,,masks/mask_003.jpg,,,,,,,,,,,,,,,,,,,,,,,,,,,,,,,,,,,,,,,,,,,,,,,,0,0,0,2,1,,,,,,,,,,,,,,,,,,,,,,,,,,,,,,,,,,,,,,,,,
195386,001,2022-11-13_23h28.30.420,Info_measure_main_exp,2022.2.2,Win32,60.0528465,,,,,,,,,,,,,,,,,,masks/mask_002.jpg,,,,,,,,,,,,,,,,,,,,,,,,,,,,,,,,,,,,,,,,,,,,,,,,0,1,1,1,1,,,,,,,,,,,,,,,,,,,,,,,,,,,,,,,,,,,,,,,,,
195386,001,2022-11-13_23h28.30.420,Info_measure_main_exp,2022.2.2,Win32,60.0528465,,,,,,,,,,,,,,,,,,masks/mask_004.jpg,,,,,,,,,,,,,,,,,,,,,,,,,,,,,,,,,,,,,,,,,,,,,,,,0,2,2,3,1,,,,,,,,,,,,,,,,,,,,,,,,,,,,,,,,,,,,,,,,,
195386,001,2022-11-13_23h28.30.420,Info_measure_main_exp,2022.2.2,Win32,60.0528465,,,,,,,,,,,,,,,,,,masks/mask_001.jpg,,,,,,,,,,,,,,,,,,,,,,,,,,,,,,,,,,,,,,,,,,,,,,,,0,3,3,0,1,,,,,,,,,,,,,,,,,,,,,,,,,,,,,,,,,,,,,,,,,
195386,001,2022-11-13_23h28.30.420,Info_measure_main_exp,2022.2.2,Win32,60.0528465,,,,,,,,,,,,,,,,,,masks/mask_005.jpg,,,,,,,,,,,,,,,,,,,,,,,,,,,,,,,,,,,,,,,,,,,,,,,,0,4,4,4,1,,,,,,,,,,,,,,,,,,,,,,,,,,,,,,,,,,,,,,,,,
195386,001,2022-11-13_23h28.30.420,Info_measure_main_exp,2022.2.2,Win32,60.0528465,,,,,,,,,,,,,,,,,,,,,,,,,,,,,,3,3.5767,1,,,,,,,,,,,,0,131,5,5,2250,2166,absent_patch/patch0002250.jpg,absent_patch/patch0002166.jpg,,,,,,,,,,,,,,,,,,,,-0.027777778,-0.08425928,1,0,0,response5disk,11,0.000925912,-0.003703718,1,0,0,center_square,0,10,10,60,1,,,,,,,,,,,,,,,,,,,,,,,
195386,001,2022-11-13_23h28.30.420,Info_measure_main_exp,2022.2.2,Win32,60.0528465,,,,,,,,,,,,,,,,,,masks/mask_005.jpg,,,,,,,,,,,,,,,,,,,,,,,,,,,,,,,,,,,,,,,,,,,0,0,0,4,1,,,,,,,,,,,,,,,,,,,,,,,,,,,,,,,,,,,,,,,,,,,,,,
195386,001,2022-11-13_23h28.30.420,Info_measure_main_exp,2022.2.2,Win32,60.0528465,,,,,,,,,,,,,,,,,,masks/mask_001.jpg,,,,,,,,,,,,,,,,,,,,,,,,,,,,,,,,,,,,,,,,,,,0,1,1,0,1,,,,,,,,,,,,,,,,,,,,,,,,,,,,,,,,,,,,,,,,,,,,,,
195386,001,2022-11-13_23h28.30.420,Info_measure_main_exp,2022.2.2,Win32,60.0528465,,,,,,,,,,,,,,,,,,masks/mask_002.jpg,,,,,,,,,,,,,,,,,,,,,,,,,,,,,,,,,,,,,,,,,,,0,2,2,1,1,,,,,,,,,,,,,,,,,,,,,,,,,,,,,,,,,,,,,,,,,,,,,,
195386,001,2022-11-13_23h28.30.420,Info_measure_main_exp,2022.2.2,Win32,60.0528465,,,,,,,,,,,,,,,,,,masks/mask_003.jpg,,,,,,,,,,,,,,,,,,,,,,,,,,,,,,,,,,,,,,,,,,,0,3,3,2,1,,,,,,,,,,,,,,,,,,,,,,,,,,,,,,,,,,,,,,,,,,,,,,
195386,001,2022-11-13_23h28.30.420,Info_measure_main_exp,2022.2.2,Win32,60.0528465,,,,,,,,,,,,,,,,,,masks/mask_004.jpg,,,,,,,,,,,,,,,,,,,,,,,,,,,,,,,,,,,,,,,,,,,0,4,4,3,1,,,,,,,,,,,,,,,,,,,,,,,,,,,,,,,,,,,,,,,,,,,,,,
195386,001,2022-11-13_23h28.30.420,Info_measure_main_exp,2022.2.2,Win32,60.0528465,,,,,,,,,,,,,,,,,,masks/mask_003.jpg,,,,,,,,,,,,,,,,,,,,,,,,,,,,,,,,,,,,,,,,,,,,,,,,0,0,0,2,1,,,,,,,,,,,,,,,,,,,,,,,,,,,,,,,,,,,,,,,,,
195386,001,2022-11-13_23h28.30.420,Info_measure_main_exp,2022.2.2,Win32,60.0528465,,,,,,,,,,,,,,,,,,masks/mask_005.jpg,,,,,,,,,,,,,,,,,,,,,,,,,,,,,,,,,,,,,,,,,,,,,,,,0,1,1,4,1,,,,,,,,,,,,,,,,,,,,,,,,,,,,,,,,,,,,,,,,,
195386,001,2022-11-13_23h28.30.420,Info_measure_main_exp,2022.2.2,Win32,60.0528465,,,,,,,,,,,,,,,,,,masks/mask_004.jpg,,,,,,,,,,,,,,,,,,,,,,,,,,,,,,,,,,,,,,,,,,,,,,,,0,2,2,3,1,,,,,,,,,,,,,,,,,,,,,,,,,,,,,,,,,,,,,,,,,
195386,001,2022-11-13_23h28.30.420,Info_measure_main_exp,2022.2.2,Win32,60.0528465,,,,,,,,,,,,,,,,,,masks/mask_001.jpg,,,,,,,,,,,,,,,,,,,,,,,,,,,,,,,,,,,,,,,,,,,,,,,,0,3,3,0,1,,,,,,,,,,,,,,,,,,,,,,,,,,,,,,,,,,,,,,,,,
195386,001,2022-11-13_23h28.30.420,Info_measure_main_exp,2022.2.2,Win32,60.0528465,,,,,,,,,,,,,,,,,,masks/mask_002.jpg,,,,,,,,,,,,,,,,,,,,,,,,,,,,,,,,,,,,,,,,,,,,,,,,0,4,4,1,1,,,,,,,,,,,,,,,,,,,,,,,,,,,,,,,,,,,,,,,,,
195386,001,2022-11-13_23h28.30.420,Info_measure_main_exp,2022.2.2,Win32,60.0528465,,,,,,,,,,,,,,,,,,,,,,,,,,,,,,7,0.883,1,,,,,,,,,,,,0,131,5,5,2214,2142,absent_patch/patch0002214.jpg,absent_patch/patch0002142.jpg,,,,,,,,,,,,,,,,,,,,0.060185185,0.110185164,1,0,0,response1disk,12,0.00462963,0.010185171,1,0,0,center_square,0,11,11,102,1,,,,,,,,,,,,,,,,,,,,,,,
195386,001,2022-11-13_23h28.30.420,Info_measure_main_exp,2022.2.2,Win32,60.0528465,,,,,,,,,,,,,,,,,,masks/mask_004.jpg,,,,,,,,,,,,,,,,,,,,,,,,,,,,,,,,,,,,,,,,,,,0,0,0,3,1,,,,,,,,,,,,,,,,,,,,,,,,,,,,,,,,,,,,,,,,,,,,,,
195386,001,2022-11-13_23h28.30.420,Info_measure_main_exp,2022.2.2,Win32,60.0528465,,,,,,,,,,,,,,,,,,masks/mask_005.jpg,,,,,,,,,,,,,,,,,,,,,,,,,,,,,,,,,,,,,,,,,,,0,1,1,4,1,,,,,,,,,,,,,,,,,,,,,,,,,,,,,,,,,,,,,,,,,,,,,,
195386,001,2022-11-13_23h28.30.420,Info_measure_main_exp,2022.2.2,Win32,60.0528465,,,,,,,,,,,,,,,,,,masks/mask_001.jpg,,,,,,,,,,,,,,,,,,,,,,,,,,,,,,,,,,,,,,,,,,,0,2,2,0,1,,,,,,,,,,,,,,,,,,,,,,,,,,,,,,,,,,,,,,,,,,,,,,
195386,001,2022-11-13_23h28.30.420,Info_measure_main_exp,2022.2.2,Win32,60.0528465,,,,,,,,,,,,,,,,,,masks/mask_002.jpg,,,,,,,,,,,,,,,,,,,,,,,,,,,,,,,,,,,,,,,,,,,0,3,3,1,1,,,,,,,,,,,,,,,,,,,,,,,,,,,,,,,,,,,,,,,,,,,,,,
195386,001,2022-11-13_23h28.30.420,Info_measure_main_exp,2022.2.2,Win32,60.0528465,,,,,,,,,,,,,,,,,,masks/mask_003.jpg,,,,,,,,,,,,,,,,,,,,,,,,,,,,,,,,,,,,,,,,,,,0,4,4,2,1,,,,,,,,,,,,,,,,,,,,,,,,,,,,,,,,,,,,,,,,,,,,,,
195386,001,2022-11-13_23h28.30.420,Info_measure_main_exp,2022.2.2,Win32,60.0528465,,,,,,,,,,,,,,,,,,masks/mask_003.jpg,,,,,,,,,,,,,,,,,,,,,,,,,,,,,,,,,,,,,,,,,,,,,,,,0,0,0,2,1,,,,,,,,,,,,,,,,,,,,,,,,,,,,,,,,,,,,,,,,,
195386,001,2022-11-13_23h28.30.420,Info_measure_main_exp,2022.2.2,Win32,60.0528465,,,,,,,,,,,,,,,,,,masks/mask_002.jpg,,,,,,,,,,,,,,,,,,,,,,,,,,,,,,,,,,,,,,,,,,,,,,,,0,1,1,1,1,,,,,,,,,,,,,,,,,,,,,,,,,,,,,,,,,,,,,,,,,
195386,001,2022-11-13_23h28.30.420,Info_measure_main_exp,2022.2.2,Win32,60.0528465,,,,,,,,,,,,,,,,,,masks/mask_001.jpg,,,,,,,,,,,,,,,,,,,,,,,,,,,,,,,,,,,,,,,,,,,,,,,,0,2,2,0,1,,,,,,,,,,,,,,,,,,,,,,,,,,,,,,,,,,,,,,,,,
195386,001,2022-11-13_23h28.30.420,Info_measure_main_exp,2022.2.2,Win32,60.0528465,,,,,,,,,,,,,,,,,,masks/mask_005.jpg,,,,,,,,,,,,,,,,,,,,,,,,,,,,,,,,,,,,,,,,,,,,,,,,0,3,3,4,1,,,,,,,,,,,,,,,,,,,,,,,,,,,,,,,,,,,,,,,,,
195386,001,2022-11-13_23h28.30.420,Info_measure_main_exp,2022.2.2,Win32,60.0528465,,,,,,,,,,,,,,,,,,masks/mask_004.jpg,,,,,,,,,,,,,,,,,,,,,,,,,,,,,,,,,,,,,,,,,,,,,,,,0,4,4,3,1,,,,,,,,,,,,,,,,,,,,,,,,,,,,,,,,,,,,,,,,,
195386,001,2022-11-13_23h28.30.420,Info_measure_main_exp,2022.2.2,Win32,60.0528465,,,,,,,,,,,,,,,,,,,,,,,,,,,,,,7,0.4997,1,,,,,,,,,,,,0,131,5,5,2190,1986,absent_patch/patch0002190.jpg,absent_patch/patch0001986.jpg,,,,,,,,,,,,,,,,,,,,0.029629672,0.105555534,1,0,0,response1disk,13,-0.001851824,0.011111118,1,0,0,center_square,0,12,12,111,1,,,,,,,,,,,,,,,,,,,,,,,
195386,001,2022-11-13_23h28.30.420,Info_measure_main_exp,2022.2.2,Win32,60.0528465,,,,,,,,,,,,,,,,,,masks/mask_003.jpg,,,,,,,,,,,,,,,,,,,,,,,,,,,,,,,,,,,,,,,,,,,0,0,0,2,1,,,,,,,,,,,,,,,,,,,,,,,,,,,,,,,,,,,,,,,,,,,,,,
195386,001,2022-11-13_23h28.30.420,Info_measure_main_exp,2022.2.2,Win32,60.0528465,,,,,,,,,,,,,,,,,,masks/mask_004.jpg,,,,,,,,,,,,,,,,,,,,,,,,,,,,,,,,,,,,,,,,,,,0,1,1,3,1,,,,,,,,,,,,,,,,,,,,,,,,,,,,,,,,,,,,,,,,,,,,,,
195386,001,2022-11-13_23h28.30.420,Info_measure_main_exp,2022.2.2,Win32,60.0528465,,,,,,,,,,,,,,,,,,masks/mask_001.jpg,,,,,,,,,,,,,,,,,,,,,,,,,,,,,,,,,,,,,,,,,,,0,2,2,0,1,,,,,,,,,,,,,,,,,,,,,,,,,,,,,,,,,,,,,,,,,,,,,,
195386,001,2022-11-13_23h28.30.420,Info_measure_main_exp,2022.2.2,Win32,60.0528465,,,,,,,,,,,,,,,,,,masks/mask_002.jpg,,,,,,,,,,,,,,,,,,,,,,,,,,,,,,,,,,,,,,,,,,,0,3,3,1,1,,,,,,,,,,,,,,,,,,,,,,,,,,,,,,,,,,,,,,,,,,,,,,
195386,001,2022-11-13_23h28.30.420,Info_measure_main_exp,2022.2.2,Win32,60.0528465,,,,,,,,,,,,,,,,,,masks/mask_005.jpg,,,,,,,,,,,,,,,,,,,,,,,,,,,,,,,,,,,,,,,,,,,0,4,4,4,1,,,,,,,,,,,,,,,,,,,,,,,,,,,,,,,,,,,,,,,,,,,,,,
195386,001,2022-11-13_23h28.30.420,Info_measure_main_exp,2022.2.2,Win32,60.0528465,,,,,,,,,,,,,,,,,,masks/mask_002.jpg,,,,,,,,,,,,,,,,,,,,,,,,,,,,,,,,,,,,,,,,,,,,,,,,0,0,0,1,1,,,,,,,,,,,,,,,,,,,,,,,,,,,,,,,,,,,,,,,,,
195386,001,2022-11-13_23h28.30.420,Info_measure_main_exp,2022.2.2,Win32,60.0528465,,,,,,,,,,,,,,,,,,masks/mask_004.jpg,,,,,,,,,,,,,,,,,,,,,,,,,,,,,,,,,,,,,,,,,,,,,,,,0,1,1,3,1,,,,,,,,,,,,,,,,,,,,,,,,,,,,,,,,,,,,,,,,,
195386,001,2022-11-13_23h28.30.420,Info_measure_main_exp,2022.2.2,Win32,60.0528465,,,,,,,,,,,,,,,,,,masks/mask_005.jpg,,,,,,,,,,,,,,,,,,,,,,,,,,,,,,,,,,,,,,,,,,,,,,,,0,2,2,4,1,,,,,,,,,,,,,,,,,,,,,,,,,,,,,,,,,,,,,,,,,
195386,001,2022-11-13_23h28.30.420,Info_measure_main_exp,2022.2.2,Win32,60.0528465,,,,,,,,,,,,,,,,,,masks/mask_003.jpg,,,,,,,,,,,,,,,,,,,,,,,,,,,,,,,,,,,,,,,,,,,,,,,,0,3,3,2,1,,,,,,,,,,,,,,,,,,,,,,,,,,,,,,,,,,,,,,,,,
195386,001,2022-11-13_23h28.30.420,Info_measure_main_exp,2022.2.2,Win32,60.0528465,,,,,,,,,,,,,,,,,,masks/mask_001.jpg,,,,,,,,,,,,,,,,,,,,,,,,,,,,,,,,,,,,,,,,,,,,,,,,0,4,4,0,1,,,,,,,,,,,,,,,,,,,,,,,,,,,,,,,,,,,,,,,,,
195386,001,2022-11-13_23h28.30.420,Info_measure_main_exp,2022.2.2,Win32,60.0528465,,,,,,,,,,,,,,,,,,,,,,,,,,,,,,5,1.3324,1,,,,,,,,,,,,0,131,5,5,2154,2214,absent_patch/patch0002154.jpg,absent_patch/patch0002214.jpg,,,,,,,,,,,,,,,,,,,,0.083333333,-0.053703697,1,0,0,response3disk,14,-0.013888889,-0.003703718,1,0,0,center_square,0,13,13,67,1,,,,,,,,,,,,,,,,,,,,,,,
195386,001,2022-11-13_23h28.30.420,Info_measure_main_exp,2022.2.2,Win32,60.0528465,,,,,,,,,,,,,,,,,,masks/mask_001.jpg,,,,,,,,,,,,,,,,,,,,,,,,,,,,,,,,,,,,,,,,,,,0,0,0,0,1,,,,,,,,,,,,,,,,,,,,,,,,,,,,,,,,,,,,,,,,,,,,,,
195386,001,2022-11-13_23h28.30.420,Info_measure_main_exp,2022.2.2,Win32,60.0528465,,,,,,,,,,,,,,,,,,masks/mask_003.jpg,,,,,,,,,,,,,,,,,,,,,,,,,,,,,,,,,,,,,,,,,,,0,1,1,2,1,,,,,,,,,,,,,,,,,,,,,,,,,,,,,,,,,,,,,,,,,,,,,,
195386,001,2022-11-13_23h28.30.420,Info_measure_main_exp,2022.2.2,Win32,60.0528465,,,,,,,,,,,,,,,,,,masks/mask_002.jpg,,,,,,,,,,,,,,,,,,,,,,,,,,,,,,,,,,,,,,,,,,,0,2,2,1,1,,,,,,,,,,,,,,,,,,,,,,,,,,,,,,,,,,,,,,,,,,,,,,
195386,001,2022-11-13_23h28.30.420,Info_measure_main_exp,2022.2.2,Win32,60.0528465,,,,,,,,,,,,,,,,,,masks/mask_004.jpg,,,,,,,,,,,,,,,,,,,,,,,,,,,,,,,,,,,,,,,,,,,0,3,3,3,1,,,,,,,,,,,,,,,,,,,,,,,,,,,,,,,,,,,,,,,,,,,,,,
195386,001,2022-11-13_23h28.30.420,Info_measure_main_exp,2022.2.2,Win32,60.0528465,,,,,,,,,,,,,,,,,,masks/mask_005.jpg,,,,,,,,,,,,,,,,,,,,,,,,,,,,,,,,,,,,,,,,,,,0,4,4,4,1,,,,,,,,,,,,,,,,,,,,,,,,,,,,,,,,,,,,,,,,,,,,,,
195386,001,2022-11-13_23h28.30.420,Info_measure_main_exp,2022.2.2,Win32,60.0528465,,,,,,,,,,,,,,,,,,masks/mask_001.jpg,,,,,,,,,,,,,,,,,,,,,,,,,,,,,,,,,,,,,,,,,,,,,,,,0,0,0,0,1,,,,,,,,,,,,,,,,,,,,,,,,,,,,,,,,,,,,,,,,,
195386,001,2022-11-13_23h28.30.420,Info_measure_main_exp,2022.2.2,Win32,60.0528465,,,,,,,,,,,,,,,,,,masks/mask_005.jpg,,,,,,,,,,,,,,,,,,,,,,,,,,,,,,,,,,,,,,,,,,,,,,,,0,1,1,4,1,,,,,,,,,,,,,,,,,,,,,,,,,,,,,,,,,,,,,,,,,
195386,001,2022-11-13_23h28.30.420,Info_measure_main_exp,2022.2.2,Win32,60.0528465,,,,,,,,,,,,,,,,,,masks/mask_004.jpg,,,,,,,,,,,,,,,,,,,,,,,,,,,,,,,,,,,,,,,,,,,,,,,,0,2,2,3,1,,,,,,,,,,,,,,,,,,,,,,,,,,,,,,,,,,,,,,,,,
195386,001,2022-11-13_23h28.30.420,Info_measure_main_exp,2022.2.2,Win32,60.0528465,,,,,,,,,,,,,,,,,,masks/mask_003.jpg,,,,,,,,,,,,,,,,,,,,,,,,,,,,,,,,,,,,,,,,,,,,,,,,0,3,3,2,1,,,,,,,,,,,,,,,,,,,,,,,,,,,,,,,,,,,,,,,,,
195386,001,2022-11-13_23h28.30.420,Info_measure_main_exp,2022.2.2,Win32,60.0528465,,,,,,,,,,,,,,,,,,masks/mask_002.jpg,,,,,,,,,,,,,,,,,,,,,,,,,,,,,,,,,,,,,,,,,,,,,,,,0,4,4,1,1,,,,,,,,,,,,,,,,,,,,,,,,,,,,,,,,,,,,,,,,,
195386,001,2022-11-13_23h28.30.420,Info_measure_main_exp,2022.2.2,Win32,60.0528465,,,,,,,,,,,,,,,,,,,,,,,,,,,,,,0,0.8333,1,,,,,,,,,,,,0,131,5,5,1986,1986,absent_patch/patch0001986.jpg,absent_patch/patch0001986.jpg,,,,,,,,,,,,,,,,,,,,-0.065740727,0.154629637,1,0,0,response7disk,15,0.005555541,0.01203703,1,0,0,center_square,0,14,14,19,1,,,,,,,,,,,,,,,,,,,,,,,
195386,001,2022-11-13_23h28.30.420,Info_measure_main_exp,2022.2.2,Win32,60.0528465,,,,,,,,,,,,,,,,,,masks/mask_003.jpg,,,,,,,,,,,,,,,,,,,,,,,,,,,,,,,,,,,,,,,,,,,0,0,0,2,1,,,,,,,,,,,,,,,,,,,,,,,,,,,,,,,,,,,,,,,,,,,,,,
195386,001,2022-11-13_23h28.30.420,Info_measure_main_exp,2022.2.2,Win32,60.0528465,,,,,,,,,,,,,,,,,,masks/mask_004.jpg,,,,,,,,,,,,,,,,,,,,,,,,,,,,,,,,,,,,,,,,,,,0,1,1,3,1,,,,,,,,,,,,,,,,,,,,,,,,,,,,,,,,,,,,,,,,,,,,,,
195386,001,2022-11-13_23h28.30.420,Info_measure_main_exp,2022.2.2,Win32,60.0528465,,,,,,,,,,,,,,,,,,masks/mask_002.jpg,,,,,,,,,,,,,,,,,,,,,,,,,,,,,,,,,,,,,,,,,,,0,2,2,1,1,,,,,,,,,,,,,,,,,,,,,,,,,,,,,,,,,,,,,,,,,,,,,,
195386,001,2022-11-13_23h28.30.420,Info_measure_main_exp,2022.2.2,Win32,60.0528465,,,,,,,,,,,,,,,,,,masks/mask_005.jpg,,,,,,,,,,,,,,,,,,,,,,,,,,,,,,,,,,,,,,,,,,,0,3,3,4,1,,,,,,,,,,,,,,,,,,,,,,,,,,,,,,,,,,,,,,,,,,,,,,
195386,001,2022-11-13_23h28.30.420,Info_measure_main_exp,2022.2.2,Win32,60.0528465,,,,,,,,,,,,,,,,,,masks/mask_001.jpg,,,,,,,,,,,,,,,,,,,,,,,,,,,,,,,,,,,,,,,,,,,0,4,4,0,1,,,,,,,,,,,,,,,,,,,,,,,,,,,,,,,,,,,,,,,,,,,,,,
195386,001,2022-11-13_23h28.30.420,Info_measure_main_exp,2022.2.2,Win32,60.0528465,,,,,,,,,,,,,,,,,,masks/mask_001.jpg,,,,,,,,,,,,,,,,,,,,,,,,,,,,,,,,,,,,,,,,,,,,,,,,0,0,0,0,1,,,,,,,,,,,,,,,,,,,,,,,,,,,,,,,,,,,,,,,,,
195386,001,2022-11-13_23h28.30.420,Info_measure_main_exp,2022.2.2,Win32,60.0528465,,,,,,,,,,,,,,,,,,masks/mask_003.jpg,,,,,,,,,,,,,,,,,,,,,,,,,,,,,,,,,,,,,,,,,,,,,,,,0,1,1,2,1,,,,,,,,,,,,,,,,,,,,,,,,,,,,,,,,,,,,,,,,,
195386,001,2022-11-13_23h28.30.420,Info_measure_main_exp,2022.2.2,Win32,60.0528465,,,,,,,,,,,,,,,,,,masks/mask_002.jpg,,,,,,,,,,,,,,,,,,,,,,,,,,,,,,,,,,,,,,,,,,,,,,,,0,2,2,1,1,,,,,,,,,,,,,,,,,,,,,,,,,,,,,,,,,,,,,,,,,
195386,001,2022-11-13_23h28.30.420,Info_measure_main_exp,2022.2.2,Win32,60.0528465,,,,,,,,,,,,,,,,,,masks/mask_005.jpg,,,,,,,,,,,,,,,,,,,,,,,,,,,,,,,,,,,,,,,,,,,,,,,,0,3,3,4,1,,,,,,,,,,,,,,,,,,,,,,,,,,,,,,,,,,,,,,,,,
195386,001,2022-11-13_23h28.30.420,Info_measure_main_exp,2022.2.2,Win32,60.0528465,,,,,,,,,,,,,,,,,,masks/mask_004.jpg,,,,,,,,,,,,,,,,,,,,,,,,,,,,,,,,,,,,,,,,,,,,,,,,0,4,4,3,1,,,,,,,,,,,,,,,,,,,,,,,,,,,,,,,,,,,,,,,,,
195386,001,2022-11-13_23h28.30.420,Info_measure_main_exp,2022.2.2,Win32,60.0528465,,,,,,,,,,,,,,,,,,,,,,,,,,,,,,6,2.4987,1,,,,,,,,,,,,0,131,5,5,1974,2250,absent_patch/patch0001974.jpg,absent_patch/patch0002250.jpg,,,,,,,,,,,,,,,,,,,,0.071296339,0.022222201,1,0,0,response1disk,16,-0.006481453,-0.000925947,1,0,0,center_square,0,15,15,55,1,,,,,,,,,,,,,,,,,,,,,,,
195386,001,2022-11-13_23h28.30.420,Info_measure_main_exp,2022.2.2,Win32,60.0528465,,,,,,,,,,,,,,,,,,masks/mask_005.jpg,,,,,,,,,,,,,,,,,,,,,,,,,,,,,,,,,,,,,,,,,,,0,0,0,4,1,,,,,,,,,,,,,,,,,,,,,,,,,,,,,,,,,,,,,,,,,,,,,,
195386,001,2022-11-13_23h28.30.420,Info_measure_main_exp,2022.2.2,Win32,60.0528465,,,,,,,,,,,,,,,,,,masks/mask_002.jpg,,,,,,,,,,,,,,,,,,,,,,,,,,,,,,,,,,,,,,,,,,,0,1,1,1,1,,,,,,,,,,,,,,,,,,,,,,,,,,,,,,,,,,,,,,,,,,,,,,
195386,001,2022-11-13_23h28.30.420,Info_measure_main_exp,2022.2.2,Win32,60.0528465,,,,,,,,,,,,,,,,,,masks/mask_004.jpg,,,,,,,,,,,,,,,,,,,,,,,,,,,,,,,,,,,,,,,,,,,0,2,2,3,1,,,,,,,,,,,,,,,,,,,,,,,,,,,,,,,,,,,,,,,,,,,,,,
195386,001,2022-11-13_23h28.30.420,Info_measure_main_exp,2022.2.2,Win32,60.0528465,,,,,,,,,,,,,,,,,,masks/mask_003.jpg,,,,,,,,,,,,,,,,,,,,,,,,,,,,,,,,,,,,,,,,,,,0,3,3,2,1,,,,,,,,,,,,,,,,,,,,,,,,,,,,,,,,,,,,,,,,,,,,,,
195386,001,2022-11-13_23h28.30.420,Info_measure_main_exp,2022.2.2,Win32,60.0528465,,,,,,,,,,,,,,,,,,masks/mask_001.jpg,,,,,,,,,,,,,,,,,,,,,,,,,,,,,,,,,,,,,,,,,,,0,4,4,0,1,,,,,,,,,,,,,,,,,,,,,,,,,,,,,,,,,,,,,,,,,,,,,,
195386,001,2022-11-13_23h28.30.420,Info_measure_main_exp,2022.2.2,Win32,60.0528465,,,,,,,,,,,,,,,,,,masks/mask_003.jpg,,,,,,,,,,,,,,,,,,,,,,,,,,,,,,,,,,,,,,,,,,,,,,,,0,0,0,2,1,,,,,,,,,,,,,,,,,,,,,,,,,,,,,,,,,,,,,,,,,
195386,001,2022-11-13_23h28.30.420,Info_measure_main_exp,2022.2.2,Win32,60.0528465,,,,,,,,,,,,,,,,,,masks/mask_002.jpg,,,,,,,,,,,,,,,,,,,,,,,,,,,,,,,,,,,,,,,,,,,,,,,,0,1,1,1,1,,,,,,,,,,,,,,,,,,,,,,,,,,,,,,,,,,,,,,,,,
195386,001,2022-11-13_23h28.30.420,Info_measure_main_exp,2022.2.2,Win32,60.0528465,,,,,,,,,,,,,,,,,,masks/mask_004.jpg,,,,,,,,,,,,,,,,,,,,,,,,,,,,,,,,,,,,,,,,,,,,,,,,0,2,2,3,1,,,,,,,,,,,,,,,,,,,,,,,,,,,,,,,,,,,,,,,,,
195386,001,2022-11-13_23h28.30.420,Info_measure_main_exp,2022.2.2,Win32,60.0528465,,,,,,,,,,,,,,,,,,masks/mask_005.jpg,,,,,,,,,,,,,,,,,,,,,,,,,,,,,,,,,,,,,,,,,,,,,,,,0,3,3,4,1,,,,,,,,,,,,,,,,,,,,,,,,,,,,,,,,,,,,,,,,,
195386,001,2022-11-13_23h28.30.420,Info_measure_main_exp,2022.2.2,Win32,60.0528465,,,,,,,,,,,,,,,,,,masks/mask_001.jpg,,,,,,,,,,,,,,,,,,,,,,,,,,,,,,,,,,,,,,,,,,,,,,,,0,4,4,0,1,,,,,,,,,,,,,,,,,,,,,,,,,,,,,,,,,,,,,,,,,
195386,001,2022-11-13_23h28.30.420,Info_measure_main_exp,2022.2.2,Win32,60.0528465,,,,,,,,,,,,,,,,,,,,,,,,,,,,,,6,0.8994,1,,,,,,,,,,,,0,131,5,5,2166,2154,absent_patch/patch0002166.jpg,absent_patch/patch0002154.jpg,,,,,,,,,,,,,,,,,,,,0.098148134,0.048148155,1,0,0,response1disk,17,0.011111153,0.008333312,1,0,0,center_square,0,16,16,79,1,,,,,,,,,,,,,,,,,,,,,,,
195386,001,2022-11-13_23h28.30.420,Info_measure_main_exp,2022.2.2,Win32,60.0528465,,,,,,,,,,,,,,,,,,masks/mask_001.jpg,,,,,,,,,,,,,,,,,,,,,,,,,,,,,,,,,,,,,,,,,,,0,0,0,0,1,,,,,,,,,,,,,,,,,,,,,,,,,,,,,,,,,,,,,,,,,,,,,,
195386,001,2022-11-13_23h28.30.420,Info_measure_main_exp,2022.2.2,Win32,60.0528465,,,,,,,,,,,,,,,,,,masks/mask_003.jpg,,,,,,,,,,,,,,,,,,,,,,,,,,,,,,,,,,,,,,,,,,,0,1,1,2,1,,,,,,,,,,,,,,,,,,,,,,,,,,,,,,,,,,,,,,,,,,,,,,
195386,001,2022-11-13_23h28.30.420,Info_measure_main_exp,2022.2.2,Win32,60.0528465,,,,,,,,,,,,,,,,,,masks/mask_004.jpg,,,,,,,,,,,,,,,,,,,,,,,,,,,,,,,,,,,,,,,,,,,0,2,2,3,1,,,,,,,,,,,,,,,,,,,,,,,,,,,,,,,,,,,,,,,,,,,,,,
195386,001,2022-11-13_23h28.30.420,Info_measure_main_exp,2022.2.2,Win32,60.0528465,,,,,,,,,,,,,,,,,,masks/mask_002.jpg,,,,,,,,,,,,,,,,,,,,,,,,,,,,,,,,,,,,,,,,,,,0,3,3,1,1,,,,,,,,,,,,,,,,,,,,,,,,,,,,,,,,,,,,,,,,,,,,,,
195386,001,2022-11-13_23h28.30.420,Info_measure_main_exp,2022.2.2,Win32,60.0528465,,,,,,,,,,,,,,,,,,masks/mask_005.jpg,,,,,,,,,,,,,,,,,,,,,,,,,,,,,,,,,,,,,,,,,,,0,4,4,4,1,,,,,,,,,,,,,,,,,,,,,,,,,,,,,,,,,,,,,,,,,,,,,,
195386,001,2022-11-13_23h28.30.420,Info_measure_main_exp,2022.2.2,Win32,60.0528465,,,,,,,,,,,,,,,,,,masks/mask_003.jpg,,,,,,,,,,,,,,,,,,,,,,,,,,,,,,,,,,,,,,,,,,,,,,,,0,0,0,2,1,,,,,,,,,,,,,,,,,,,,,,,,,,,,,,,,,,,,,,,,,
195386,001,2022-11-13_23h28.30.420,Info_measure_main_exp,2022.2.2,Win32,60.0528465,,,,,,,,,,,,,,,,,,masks/mask_002.jpg,,,,,,,,,,,,,,,,,,,,,,,,,,,,,,,,,,,,,,,,,,,,,,,,0,1,1,1,1,,,,,,,,,,,,,,,,,,,,,,,,,,,,,,,,,,,,,,,,,
195386,001,2022-11-13_23h28.30.420,Info_measure_main_exp,2022.2.2,Win32,60.0528465,,,,,,,,,,,,,,,,,,masks/mask_001.jpg,,,,,,,,,,,,,,,,,,,,,,,,,,,,,,,,,,,,,,,,,,,,,,,,0,2,2,0,1,,,,,,,,,,,,,,,,,,,,,,,,,,,,,,,,,,,,,,,,,
195386,001,2022-11-13_23h28.30.420,Info_measure_main_exp,2022.2.2,Win32,60.0528465,,,,,,,,,,,,,,,,,,masks/mask_004.jpg,,,,,,,,,,,,,,,,,,,,,,,,,,,,,,,,,,,,,,,,,,,,,,,,0,3,3,3,1,,,,,,,,,,,,,,,,,,,,,,,,,,,,,,,,,,,,,,,,,
195386,001,2022-11-13_23h28.30.420,Info_measure_main_exp,2022.2.2,Win32,60.0528465,,,,,,,,,,,,,,,,,,masks/mask_005.jpg,,,,,,,,,,,,,,,,,,,,,,,,,,,,,,,,,,,,,,,,,,,,,,,,0,4,4,4,1,,,,,,,,,,,,,,,,,,,,,,,,,,,,,,,,,,,,,,,,,
195386,001,2022-11-13_23h28.30.420,Info_measure_main_exp,2022.2.2,Win32,60.0528465,,,,,,,,,,,,,,,,,,,,,,,,,,,,,,5,1.0993,1,,,,,,,,,,,,0,131,5,5,2274,2250,absent_patch/patch0002274.jpg,absent_patch/patch0002250.jpg,,,,,,,,,,,,,,,,,,,,0.043518561,-0.019444466,1,0,0,response3disk,18,-0.012962977,-0.000925947,1,0,0,center_square,0,17,17,28,1,,,,,,,,,,,,,,,,,,,,,,,
195386,001,2022-11-13_23h28.30.420,Info_measure_main_exp,2022.2.2,Win32,60.0528465,,,,,,,,,,,,,,,,,,masks/mask_002.jpg,,,,,,,,,,,,,,,,,,,,,,,,,,,,,,,,,,,,,,,,,,,0,0,0,1,1,,,,,,,,,,,,,,,,,,,,,,,,,,,,,,,,,,,,,,,,,,,,,,
195386,001,2022-11-13_23h28.30.420,Info_measure_main_exp,2022.2.2,Win32,60.0528465,,,,,,,,,,,,,,,,,,masks/mask_005.jpg,,,,,,,,,,,,,,,,,,,,,,,,,,,,,,,,,,,,,,,,,,,0,1,1,4,1,,,,,,,,,,,,,,,,,,,,,,,,,,,,,,,,,,,,,,,,,,,,,,
195386,001,2022-11-13_23h28.30.420,Info_measure_main_exp,2022.2.2,Win32,60.0528465,,,,,,,,,,,,,,,,,,masks/mask_003.jpg,,,,,,,,,,,,,,,,,,,,,,,,,,,,,,,,,,,,,,,,,,,0,2,2,2,1,,,,,,,,,,,,,,,,,,,,,,,,,,,,,,,,,,,,,,,,,,,,,,
195386,001,2022-11-13_23h28.30.420,Info_measure_main_exp,2022.2.2,Win32,60.0528465,,,,,,,,,,,,,,,,,,masks/mask_001.jpg,,,,,,,,,,,,,,,,,,,,,,,,,,,,,,,,,,,,,,,,,,,0,3,3,0,1,,,,,,,,,,,,,,,,,,,,,,,,,,,,,,,,,,,,,,,,,,,,,,
195386,001,2022-11-13_23h28.30.420,Info_measure_main_exp,2022.2.2,Win32,60.0528465,,,,,,,,,,,,,,,,,,masks/mask_004.jpg,,,,,,,,,,,,,,,,,,,,,,,,,,,,,,,,,,,,,,,,,,,0,4,4,3,1,,,,,,,,,,,,,,,,,,,,,,,,,,,,,,,,,,,,,,,,,,,,,,
195386,001,2022-11-13_23h28.30.420,Info_measure_main_exp,2022.2.2,Win32,60.0528465,,,,,,,,,,,,,,,,,,masks/mask_005.jpg,,,,,,,,,,,,,,,,,,,,,,,,,,,,,,,,,,,,,,,,,,,,,,,,0,0,0,4,1,,,,,,,,,,,,,,,,,,,,,,,,,,,,,,,,,,,,,,,,,
195386,001,2022-11-13_23h28.30.420,Info_measure_main_exp,2022.2.2,Win32,60.0528465,,,,,,,,,,,,,,,,,,masks/mask_001.jpg,,,,,,,,,,,,,,,,,,,,,,,,,,,,,,,,,,,,,,,,,,,,,,,,0,1,1,0,1,,,,,,,,,,,,,,,,,,,,,,,,,,,,,,,,,,,,,,,,,
195386,001,2022-11-13_23h28.30.420,Info_measure_main_exp,2022.2.2,Win32,60.0528465,,,,,,,,,,,,,,,,,,masks/mask_003.jpg,,,,,,,,,,,,,,,,,,,,,,,,,,,,,,,,,,,,,,,,,,,,,,,,0,2,2,2,1,,,,,,,,,,,,,,,,,,,,,,,,,,,,,,,,,,,,,,,,,
195386,001,2022-11-13_23h28.30.420,Info_measure_main_exp,2022.2.2,Win32,60.0528465,,,,,,,,,,,,,,,,,,masks/mask_004.jpg,,,,,,,,,,,,,,,,,,,,,,,,,,,,,,,,,,,,,,,,,,,,,,,,0,3,3,3,1,,,,,,,,,,,,,,,,,,,,,,,,,,,,,,,,,,,,,,,,,
195386,001,2022-11-13_23h28.30.420,Info_measure_main_exp,2022.2.2,Win32,60.0528465,,,,,,,,,,,,,,,,,,masks/mask_002.jpg,,,,,,,,,,,,,,,,,,,,,,,,,,,,,,,,,,,,,,,,,,,,,,,,0,4,4,1,1,,,,,,,,,,,,,,,,,,,,,,,,,,,,,,,,,,,,,,,,,
195386,001,2022-11-13_23h28.30.420,Info_measure_main_exp,2022.2.2,Win32,60.0528465,,,,,,,,,,,,,,,,,,,,,,,,,,,,,,7,1.2493,1,,,,,,,,,,,,0,131,5,5,1974,2298,absent_patch/patch0001974.jpg,absent_patch/patch0002298.jpg,,,,,,,,,,,,,,,,,,,,0.02407406,0.049999979,1,0,0,response1disk,19,-0.001851824,-0.003703718,1,0,0,center_square,0,18,18,6,1,,,,,,,,,,,,,,,,,,,,,,,
195386,001,2022-11-13_23h28.30.420,Info_measure_main_exp,2022.2.2,Win32,60.0528465,,,,,,,,,,,,,,,,,,masks/mask_004.jpg,,,,,,,,,,,,,,,,,,,,,,,,,,,,,,,,,,,,,,,,,,,0,0,0,3,1,,,,,,,,,,,,,,,,,,,,,,,,,,,,,,,,,,,,,,,,,,,,,,
195386,001,2022-11-13_23h28.30.420,Info_measure_main_exp,2022.2.2,Win32,60.0528465,,,,,,,,,,,,,,,,,,masks/mask_002.jpg,,,,,,,,,,,,,,,,,,,,,,,,,,,,,,,,,,,,,,,,,,,0,1,1,1,1,,,,,,,,,,,,,,,,,,,,,,,,,,,,,,,,,,,,,,,,,,,,,,
195386,001,2022-11-13_23h28.30.420,Info_measure_main_exp,2022.2.2,Win32,60.0528465,,,,,,,,,,,,,,,,,,masks/mask_005.jpg,,,,,,,,,,,,,,,,,,,,,,,,,,,,,,,,,,,,,,,,,,,0,2,2,4,1,,,,,,,,,,,,,,,,,,,,,,,,,,,,,,,,,,,,,,,,,,,,,,
195386,001,2022-11-13_23h28.30.420,Info_measure_main_exp,2022.2.2,Win32,60.0528465,,,,,,,,,,,,,,,,,,masks/mask_001.jpg,,,,,,,,,,,,,,,,,,,,,,,,,,,,,,,,,,,,,,,,,,,0,3,3,0,1,,,,,,,,,,,,,,,,,,,,,,,,,,,,,,,,,,,,,,,,,,,,,,
195386,001,2022-11-13_23h28.30.420,Info_measure_main_exp,2022.2.2,Win32,60.0528465,,,,,,,,,,,,,,,,,,masks/mask_003.jpg,,,,,,,,,,,,,,,,,,,,,,,,,,,,,,,,,,,,,,,,,,,0,4,4,2,1,,,,,,,,,,,,,,,,,,,,,,,,,,,,,,,,,,,,,,,,,,,,,,
195386,001,2022-11-13_23h28.30.420,Info_measure_main_exp,2022.2.2,Win32,60.0528465,,,,,,,,,,,,,,,,,,masks/mask_003.jpg,,,,,,,,,,,,,,,,,,,,,,,,,,,,,,,,,,,,,,,,,,,,,,,,0,0,0,2,1,,,,,,,,,,,,,,,,,,,,,,,,,,,,,,,,,,,,,,,,,
195386,001,2022-11-13_23h28.30.420,Info_measure_main_exp,2022.2.2,Win32,60.0528465,,,,,,,,,,,,,,,,,,masks/mask_004.jpg,,,,,,,,,,,,,,,,,,,,,,,,,,,,,,,,,,,,,,,,,,,,,,,,0,1,1,3,1,,,,,,,,,,,,,,,,,,,,,,,,,,,,,,,,,,,,,,,,,
195386,001,2022-11-13_23h28.30.420,Info_measure_main_exp,2022.2.2,Win32,60.0528465,,,,,,,,,,,,,,,,,,masks/mask_005.jpg,,,,,,,,,,,,,,,,,,,,,,,,,,,,,,,,,,,,,,,,,,,,,,,,0,2,2,4,1,,,,,,,,,,,,,,,,,,,,,,,,,,,,,,,,,,,,,,,,,
195386,001,2022-11-13_23h28.30.420,Info_measure_main_exp,2022.2.2,Win32,60.0528465,,,,,,,,,,,,,,,,,,masks/mask_001.jpg,,,,,,,,,,,,,,,,,,,,,,,,,,,,,,,,,,,,,,,,,,,,,,,,0,3,3,0,1,,,,,,,,,,,,,,,,,,,,,,,,,,,,,,,,,,,,,,,,,
195386,001,2022-11-13_23h28.30.420,Info_measure_main_exp,2022.2.2,Win32,60.0528465,,,,,,,,,,,,,,,,,,masks/mask_002.jpg,,,,,,,,,,,,,,,,,,,,,,,,,,,,,,,,,,,,,,,,,,,,,,,,0,4,4,1,1,,,,,,,,,,,,,,,,,,,,,,,,,,,,,,,,,,,,,,,,,
195386,001,2022-11-13_23h28.30.420,Info_measure_main_exp,2022.2.2,Win32,60.0528465,,,,,,,,,,,,,,,,,,,,,,,,,,,,,,0,0.65,1,,,,,,,,,,,,0,131,5,5,1950,1950,absent_patch/patch0001950.jpg,absent_patch/patch0001950.jpg,,,,,,,,,,,,,,,,,,,,-0.042592578,0.110185164,1,0,0,response7disk,20,0.013888889,0.006481489,1,0,0,center_square,0,19,19,92,1,,,,,,,,,,,,,,,,,,,,,,,
195386,001,2022-11-13_23h28.30.420,Info_measure_main_exp,2022.2.2,Win32,60.0528465,,,,,,,,,,,,,,,,,,masks/mask_005.jpg,,,,,,,,,,,,,,,,,,,,,,,,,,,,,,,,,,,,,,,,,,,0,0,0,4,1,,,,,,,,,,,,,,,,,,,,,,,,,,,,,,,,,,,,,,,,,,,,,,
195386,001,2022-11-13_23h28.30.420,Info_measure_main_exp,2022.2.2,Win32,60.0528465,,,,,,,,,,,,,,,,,,masks/mask_003.jpg,,,,,,,,,,,,,,,,,,,,,,,,,,,,,,,,,,,,,,,,,,,0,1,1,2,1,,,,,,,,,,,,,,,,,,,,,,,,,,,,,,,,,,,,,,,,,,,,,,
195386,001,2022-11-13_23h28.30.420,Info_measure_main_exp,2022.2.2,Win32,60.0528465,,,,,,,,,,,,,,,,,,masks/mask_001.jpg,,,,,,,,,,,,,,,,,,,,,,,,,,,,,,,,,,,,,,,,,,,0,2,2,0,1,,,,,,,,,,,,,,,,,,,,,,,,,,,,,,,,,,,,,,,,,,,,,,
195386,001,2022-11-13_23h28.30.420,Info_measure_main_exp,2022.2.2,Win32,60.0528465,,,,,,,,,,,,,,,,,,masks/mask_002.jpg,,,,,,,,,,,,,,,,,,,,,,,,,,,,,,,,,,,,,,,,,,,0,3,3,1,1,,,,,,,,,,,,,,,,,,,,,,,,,,,,,,,,,,,,,,,,,,,,,,
195386,001,2022-11-13_23h28.30.420,Info_measure_main_exp,2022.2.2,Win32,60.0528465,,,,,,,,,,,,,,,,,,masks/mask_004.jpg,,,,,,,,,,,,,,,,,,,,,,,,,,,,,,,,,,,,,,,,,,,0,4,4,3,1,,,,,,,,,,,,,,,,,,,,,,,,,,,,,,,,,,,,,,,,,,,,,,
195386,001,2022-11-13_23h28.30.420,Info_measure_main_exp,2022.2.2,Win32,60.0528465,,,,,,,,,,,,,,,,,,masks/mask_002.jpg,,,,,,,,,,,,,,,,,,,,,,,,,,,,,,,,,,,,,,,,,,,,,,,,0,0,0,1,1,,,,,,,,,,,,,,,,,,,,,,,,,,,,,,,,,,,,,,,,,
195386,001,2022-11-13_23h28.30.420,Info_measure_main_exp,2022.2.2,Win32,60.0528465,,,,,,,,,,,,,,,,,,masks/mask_001.jpg,,,,,,,,,,,,,,,,,,,,,,,,,,,,,,,,,,,,,,,,,,,,,,,,0,1,1,0,1,,,,,,,,,,,,,,,,,,,,,,,,,,,,,,,,,,,,,,,,,
195386,001,2022-11-13_23h28.30.420,Info_measure_main_exp,2022.2.2,Win32,60.0528465,,,,,,,,,,,,,,,,,,masks/mask_003.jpg,,,,,,,,,,,,,,,,,,,,,,,,,,,,,,,,,,,,,,,,,,,,,,,,0,2,2,2,1,,,,,,,,,,,,,,,,,,,,,,,,,,,,,,,,,,,,,,,,,
195386,001,2022-11-13_23h28.30.420,Info_measure_main_exp,2022.2.2,Win32,60.0528465,,,,,,,,,,,,,,,,,,masks/mask_004.jpg,,,,,,,,,,,,,,,,,,,,,,,,,,,,,,,,,,,,,,,,,,,,,,,,0,3,3,3,1,,,,,,,,,,,,,,,,,,,,,,,,,,,,,,,,,,,,,,,,,
195386,001,2022-11-13_23h28.30.420,Info_measure_main_exp,2022.2.2,Win32,60.0528465,,,,,,,,,,,,,,,,,,masks/mask_005.jpg,,,,,,,,,,,,,,,,,,,,,,,,,,,,,,,,,,,,,,,,,,,,,,,,0,4,4,4,1,,,,,,,,,,,,,,,,,,,,,,,,,,,,,,,,,,,,,,,,,
195386,001,2022-11-13_23h28.30.420,Info_measure_main_exp,2022.2.2,Win32,60.0528465,,,,,,,,,,,,,,,,,,,,,,,,,,,,,,1,1.3662,1,,,,,,,,,,,,0,131,5,5,2142,2082,absent_patch/patch0002142.jpg,absent_patch/patch0002082.jpg,,,,,,,,,,,,,,,,,,,,-0.060185185,0.01666666,1,0,0,response7disk,21,0.008333347,-0.000925947,1,0,0,center_square,0,20,20,88,1,,,,,,,,,,,,,,,,,,,,,,,
195386,001,2022-11-13_23h28.30.420,Info_measure_main_exp,2022.2.2,Win32,60.0528465,,,,,,,,,,,,,,,,,,masks/mask_005.jpg,,,,,,,,,,,,,,,,,,,,,,,,,,,,,,,,,,,,,,,,,,,0,0,0,4,1,,,,,,,,,,,,,,,,,,,,,,,,,,,,,,,,,,,,,,,,,,,,,,
195386,001,2022-11-13_23h28.30.420,Info_measure_main_exp,2022.2.2,Win32,60.0528465,,,,,,,,,,,,,,,,,,masks/mask_002.jpg,,,,,,,,,,,,,,,,,,,,,,,,,,,,,,,,,,,,,,,,,,,0,1,1,1,1,,,,,,,,,,,,,,,,,,,,,,,,,,,,,,,,,,,,,,,,,,,,,,
195386,001,2022-11-13_23h28.30.420,Info_measure_main_exp,2022.2.2,Win32,60.0528465,,,,,,,,,,,,,,,,,,masks/mask_004.jpg,,,,,,,,,,,,,,,,,,,,,,,,,,,,,,,,,,,,,,,,,,,0,2,2,3,1,,,,,,,,,,,,,,,,,,,,,,,,,,,,,,,,,,,,,,,,,,,,,,
195386,001,2022-11-13_23h28.30.420,Info_measure_main_exp,2022.2.2,Win32,60.0528465,,,,,,,,,,,,,,,,,,masks/mask_003.jpg,,,,,,,,,,,,,,,,,,,,,,,,,,,,,,,,,,,,,,,,,,,0,3,3,2,1,,,,,,,,,,,,,,,,,,,,,,,,,,,,,,,,,,,,,,,,,,,,,,
195386,001,2022-11-13_23h28.30.420,Info_measure_main_exp,2022.2.2,Win32,60.0528465,,,,,,,,,,,,,,,,,,masks/mask_001.jpg,,,,,,,,,,,,,,,,,,,,,,,,,,,,,,,,,,,,,,,,,,,0,4,4,0,1,,,,,,,,,,,,,,,,,,,,,,,,,,,,,,,,,,,,,,,,,,,,,,
195386,001,2022-11-13_23h28.30.420,Info_measure_main_exp,2022.2.2,Win32,60.0528465,,,,,,,,,,,,,,,,,,masks/mask_003.jpg,,,,,,,,,,,,,,,,,,,,,,,,,,,,,,,,,,,,,,,,,,,,,,,,0,0,0,2,1,,,,,,,,,,,,,,,,,,,,,,,,,,,,,,,,,,,,,,,,,
195386,001,2022-11-13_23h28.30.420,Info_measure_main_exp,2022.2.2,Win32,60.0528465,,,,,,,,,,,,,,,,,,masks/mask_002.jpg,,,,,,,,,,,,,,,,,,,,,,,,,,,,,,,,,,,,,,,,,,,,,,,,0,1,1,1,1,,,,,,,,,,,,,,,,,,,,,,,,,,,,,,,,,,,,,,,,,
195386,001,2022-11-13_23h28.30.420,Info_measure_main_exp,2022.2.2,Win32,60.0528465,,,,,,,,,,,,,,,,,,masks/mask_004.jpg,,,,,,,,,,,,,,,,,,,,,,,,,,,,,,,,,,,,,,,,,,,,,,,,0,2,2,3,1,,,,,,,,,,,,,,,,,,,,,,,,,,,,,,,,,,,,,,,,,
195386,001,2022-11-13_23h28.30.420,Info_measure_main_exp,2022.2.2,Win32,60.0528465,,,,,,,,,,,,,,,,,,masks/mask_001.jpg,,,,,,,,,,,,,,,,,,,,,,,,,,,,,,,,,,,,,,,,,,,,,,,,0,3,3,0,1,,,,,,,,,,,,,,,,,,,,,,,,,,,,,,,,,,,,,,,,,
195386,001,2022-11-13_23h28.30.420,Info_measure_main_exp,2022.2.2,Win32,60.0528465,,,,,,,,,,,,,,,,,,masks/mask_005.jpg,,,,,,,,,,,,,,,,,,,,,,,,,,,,,,,,,,,,,,,,,,,,,,,,0,4,4,4,1,,,,,,,,,,,,,,,,,,,,,,,,,,,,,,,,,,,,,,,,,
195386,001,2022-11-13_23h28.30.420,Info_measure_main_exp,2022.2.2,Win32,60.0528465,,,,,,,,,,,,,,,,,,,,,,,,,,,,,,3,1.499,1,,,,,,,,,,,,1,131,5,5,1,1986,present_patch/cong_131_5_a.jpg,absent_patch/patch0001986.jpg,,,,,,,,,,,,,,,,,,,,-0.017592607,-0.036111125,1,0,0,response5disk,22,-0.002777735,-0.0074074,1,0,0,center_square,0,21,21,106,1,,,,,,,,,,,,,,,,,,,,,,,
195386,001,2022-11-13_23h28.30.420,Info_measure_main_exp,2022.2.2,Win32,60.0528465,,,,,,,,,,,,,,,,,,masks/mask_002.jpg,,,,,,,,,,,,,,,,,,,,,,,,,,,,,,,,,,,,,,,,,,,0,0,0,1,1,,,,,,,,,,,,,,,,,,,,,,,,,,,,,,,,,,,,,,,,,,,,,,
195386,001,2022-11-13_23h28.30.420,Info_measure_main_exp,2022.2.2,Win32,60.0528465,,,,,,,,,,,,,,,,,,masks/mask_005.jpg,,,,,,,,,,,,,,,,,,,,,,,,,,,,,,,,,,,,,,,,,,,0,1,1,4,1,,,,,,,,,,,,,,,,,,,,,,,,,,,,,,,,,,,,,,,,,,,,,,
195386,001,2022-11-13_23h28.30.420,Info_measure_main_exp,2022.2.2,Win32,60.0528465,,,,,,,,,,,,,,,,,,masks/mask_004.jpg,,,,,,,,,,,,,,,,,,,,,,,,,,,,,,,,,,,,,,,,,,,0,2,2,3,1,,,,,,,,,,,,,,,,,,,,,,,,,,,,,,,,,,,,,,,,,,,,,,
195386,001,2022-11-13_23h28.30.420,Info_measure_main_exp,2022.2.2,Win32,60.0528465,,,,,,,,,,,,,,,,,,masks/mask_003.jpg,,,,,,,,,,,,,,,,,,,,,,,,,,,,,,,,,,,,,,,,,,,0,3,3,2,1,,,,,,,,,,,,,,,,,,,,,,,,,,,,,,,,,,,,,,,,,,,,,,
195386,001,2022-11-13_23h28.30.420,Info_measure_main_exp,2022.2.2,Win32,60.0528465,,,,,,,,,,,,,,,,,,masks/mask_001.jpg,,,,,,,,,,,,,,,,,,,,,,,,,,,,,,,,,,,,,,,,,,,0,4,4,0,1,,,,,,,,,,,,,,,,,,,,,,,,,,,,,,,,,,,,,,,,,,,,,,
195386,001,2022-11-13_23h28.30.420,Info_measure_main_exp,2022.2.2,Win32,60.0528465,,,,,,,,,,,,,,,,,,masks/mask_005.jpg,,,,,,,,,,,,,,,,,,,,,,,,,,,,,,,,,,,,,,,,,,,,,,,,0,0,0,4,1,,,,,,,,,,,,,,,,,,,,,,,,,,,,,,,,,,,,,,,,,
195386,001,2022-11-13_23h28.30.420,Info_measure_main_exp,2022.2.2,Win32,60.0528465,,,,,,,,,,,,,,,,,,masks/mask_001.jpg,,,,,,,,,,,,,,,,,,,,,,,,,,,,,,,,,,,,,,,,,,,,,,,,0,1,1,0,1,,,,,,,,,,,,,,,,,,,,,,,,,,,,,,,,,,,,,,,,,
195386,001,2022-11-13_23h28.30.420,Info_measure_main_exp,2022.2.2,Win32,60.0528465,,,,,,,,,,,,,,,,,,masks/mask_002.jpg,,,,,,,,,,,,,,,,,,,,,,,,,,,,,,,,,,,,,,,,,,,,,,,,0,2,2,1,1,,,,,,,,,,,,,,,,,,,,,,,,,,,,,,,,,,,,,,,,,
195386,001,2022-11-13_23h28.30.420,Info_measure_main_exp,2022.2.2,Win32,60.0528465,,,,,,,,,,,,,,,,,,masks/mask_003.jpg,,,,,,,,,,,,,,,,,,,,,,,,,,,,,,,,,,,,,,,,,,,,,,,,0,3,3,2,1,,,,,,,,,,,,,,,,,,,,,,,,,,,,,,,,,,,,,,,,,
195386,001,2022-11-13_23h28.30.420,Info_measure_main_exp,2022.2.2,Win32,60.0528465,,,,,,,,,,,,,,,,,,masks/mask_004.jpg,,,,,,,,,,,,,,,,,,,,,,,,,,,,,,,,,,,,,,,,,,,,,,,,0,4,4,3,1,,,,,,,,,,,,,,,,,,,,,,,,,,,,,,,,,,,,,,,,,
195386,001,2022-11-13_23h28.30.420,Info_measure_main_exp,2022.2.2,Win32,60.0528465,,,,,,,,,,,,,,,,,,,,,,,,,,,,,,5,1.2162,1,,,,,,,,,,,,0,131,5,5,1986,2274,absent_patch/patch0001986.jpg,absent_patch/patch0002274.jpg,,,,,,,,,,,,,,,,,,,,0.08148151,-0.037037037,1,0,0,response3disk,23,0.011111153,-0.008333347,1,0,0,center_square,0,22,22,7,1,,,,,,,,,,,,,,,,,,,,,,,
195386,001,2022-11-13_23h28.30.420,Info_measure_main_exp,2022.2.2,Win32,60.0528465,,,,,,,,,,,,,,,,,,masks/mask_002.jpg,,,,,,,,,,,,,,,,,,,,,,,,,,,,,,,,,,,,,,,,,,,0,0,0,1,1,,,,,,,,,,,,,,,,,,,,,,,,,,,,,,,,,,,,,,,,,,,,,,
195386,001,2022-11-13_23h28.30.420,Info_measure_main_exp,2022.2.2,Win32,60.0528465,,,,,,,,,,,,,,,,,,masks/mask_001.jpg,,,,,,,,,,,,,,,,,,,,,,,,,,,,,,,,,,,,,,,,,,,0,1,1,0,1,,,,,,,,,,,,,,,,,,,,,,,,,,,,,,,,,,,,,,,,,,,,,,
195386,001,2022-11-13_23h28.30.420,Info_measure_main_exp,2022.2.2,Win32,60.0528465,,,,,,,,,,,,,,,,,,masks/mask_005.jpg,,,,,,,,,,,,,,,,,,,,,,,,,,,,,,,,,,,,,,,,,,,0,2,2,4,1,,,,,,,,,,,,,,,,,,,,,,,,,,,,,,,,,,,,,,,,,,,,,,
195386,001,2022-11-13_23h28.30.420,Info_measure_main_exp,2022.2.2,Win32,60.0528465,,,,,,,,,,,,,,,,,,masks/mask_004.jpg,,,,,,,,,,,,,,,,,,,,,,,,,,,,,,,,,,,,,,,,,,,0,3,3,3,1,,,,,,,,,,,,,,,,,,,,,,,,,,,,,,,,,,,,,,,,,,,,,,
195386,001,2022-11-13_23h28.30.420,Info_measure_main_exp,2022.2.2,Win32,60.0528465,,,,,,,,,,,,,,,,,,masks/mask_003.jpg,,,,,,,,,,,,,,,,,,,,,,,,,,,,,,,,,,,,,,,,,,,0,4,4,2,1,,,,,,,,,,,,,,,,,,,,,,,,,,,,,,,,,,,,,,,,,,,,,,
195386,001,2022-11-13_23h28.30.420,Info_measure_main_exp,2022.2.2,Win32,60.0528465,,,,,,,,,,,,,,,,,,masks/mask_004.jpg,,,,,,,,,,,,,,,,,,,,,,,,,,,,,,,,,,,,,,,,,,,,,,,,0,0,0,3,1,,,,,,,,,,,,,,,,,,,,,,,,,,,,,,,,,,,,,,,,,
195386,001,2022-11-13_23h28.30.420,Info_measure_main_exp,2022.2.2,Win32,60.0528465,,,,,,,,,,,,,,,,,,masks/mask_003.jpg,,,,,,,,,,,,,,,,,,,,,,,,,,,,,,,,,,,,,,,,,,,,,,,,0,1,1,2,1,,,,,,,,,,,,,,,,,,,,,,,,,,,,,,,,,,,,,,,,,
195386,001,2022-11-13_23h28.30.420,Info_measure_main_exp,2022.2.2,Win32,60.0528465,,,,,,,,,,,,,,,,,,masks/mask_002.jpg,,,,,,,,,,,,,,,,,,,,,,,,,,,,,,,,,,,,,,,,,,,,,,,,0,2,2,1,1,,,,,,,,,,,,,,,,,,,,,,,,,,,,,,,,,,,,,,,,,
195386,001,2022-11-13_23h28.30.420,Info_measure_main_exp,2022.2.2,Win32,60.0528465,,,,,,,,,,,,,,,,,,masks/mask_001.jpg,,,,,,,,,,,,,,,,,,,,,,,,,,,,,,,,,,,,,,,,,,,,,,,,0,3,3,0,1,,,,,,,,,,,,,,,,,,,,,,,,,,,,,,,,,,,,,,,,,
195386,001,2022-11-13_23h28.30.420,Info_measure_main_exp,2022.2.2,Win32,60.0528465,,,,,,,,,,,,,,,,,,masks/mask_005.jpg,,,,,,,,,,,,,,,,,,,,,,,,,,,,,,,,,,,,,,,,,,,,,,,,0,4,4,4,1,,,,,,,,,,,,,,,,,,,,,,,,,,,,,,,,,,,,,,,,,
195386,001,2022-11-13_23h28.30.420,Info_measure_main_exp,2022.2.2,Win32,60.0528465,,,,,,,,,,,,,,,,,,,,,,,,,,,,,,6,1.5104,1,,,,,,,,,,,,0,131,5,5,1974,2142,absent_patch/patch0001974.jpg,absent_patch/patch0002142.jpg,,,,,,,,,,,,,,,,,,,,0.128703718,0.03611109,1,0,0,response1disk,24,0.008333347,0.003703683,1,0,0,center_square,0,23,23,38,1,,,,,,,,,,,,,,,,,,,,,,,
195386,001,2022-11-13_23h28.30.420,Info_measure_main_exp,2022.2.2,Win32,60.0528465,,,,,,,,,,,,,,,,,,masks/mask_004.jpg,,,,,,,,,,,,,,,,,,,,,,,,,,,,,,,,,,,,,,,,,,,0,0,0,3,1,,,,,,,,,,,,,,,,,,,,,,,,,,,,,,,,,,,,,,,,,,,,,,
195386,001,2022-11-13_23h28.30.420,Info_measure_main_exp,2022.2.2,Win32,60.0528465,,,,,,,,,,,,,,,,,,masks/mask_002.jpg,,,,,,,,,,,,,,,,,,,,,,,,,,,,,,,,,,,,,,,,,,,0,1,1,1,1,,,,,,,,,,,,,,,,,,,,,,,,,,,,,,,,,,,,,,,,,,,,,,
195386,001,2022-11-13_23h28.30.420,Info_measure_main_exp,2022.2.2,Win32,60.0528465,,,,,,,,,,,,,,,,,,masks/mask_003.jpg,,,,,,,,,,,,,,,,,,,,,,,,,,,,,,,,,,,,,,,,,,,0,2,2,2,1,,,,,,,,,,,,,,,,,,,,,,,,,,,,,,,,,,,,,,,,,,,,,,
195386,001,2022-11-13_23h28.30.420,Info_measure_main_exp,2022.2.2,Win32,60.0528465,,,,,,,,,,,,,,,,,,masks/mask_005.jpg,,,,,,,,,,,,,,,,,,,,,,,,,,,,,,,,,,,,,,,,,,,0,3,3,4,1,,,,,,,,,,,,,,,,,,,,,,,,,,,,,,,,,,,,,,,,,,,,,,
195386,001,2022-11-13_23h28.30.420,Info_measure_main_exp,2022.2.2,Win32,60.0528465,,,,,,,,,,,,,,,,,,masks/mask_001.jpg,,,,,,,,,,,,,,,,,,,,,,,,,,,,,,,,,,,,,,,,,,,0,4,4,0,1,,,,,,,,,,,,,,,,,,,,,,,,,,,,,,,,,,,,,,,,,,,,,,
195386,001,2022-11-13_23h28.30.420,Info_measure_main_exp,2022.2.2,Win32,60.0528465,,,,,,,,,,,,,,,,,,masks/mask_005.jpg,,,,,,,,,,,,,,,,,,,,,,,,,,,,,,,,,,,,,,,,,,,,,,,,0,0,0,4,1,,,,,,,,,,,,,,,,,,,,,,,,,,,,,,,,,,,,,,,,,
195386,001,2022-11-13_23h28.30.420,Info_measure_main_exp,2022.2.2,Win32,60.0528465,,,,,,,,,,,,,,,,,,masks/mask_003.jpg,,,,,,,,,,,,,,,,,,,,,,,,,,,,,,,,,,,,,,,,,,,,,,,,0,1,1,2,1,,,,,,,,,,,,,,,,,,,,,,,,,,,,,,,,,,,,,,,,,
195386,001,2022-11-13_23h28.30.420,Info_measure_main_exp,2022.2.2,Win32,60.0528465,,,,,,,,,,,,,,,,,,masks/mask_001.jpg,,,,,,,,,,,,,,,,,,,,,,,,,,,,,,,,,,,,,,,,,,,,,,,,0,2,2,0,1,,,,,,,,,,,,,,,,,,,,,,,,,,,,,,,,,,,,,,,,,
195386,001,2022-11-13_23h28.30.420,Info_measure_main_exp,2022.2.2,Win32,60.0528465,,,,,,,,,,,,,,,,,,masks/mask_004.jpg,,,,,,,,,,,,,,,,,,,,,,,,,,,,,,,,,,,,,,,,,,,,,,,,0,3,3,3,1,,,,,,,,,,,,,,,,,,,,,,,,,,,,,,,,,,,,,,,,,
195386,001,2022-11-13_23h28.30.420,Info_measure_main_exp,2022.2.2,Win32,60.0528465,,,,,,,,,,,,,,,,,,masks/mask_002.jpg,,,,,,,,,,,,,,,,,,,,,,,,,,,,,,,,,,,,,,,,,,,,,,,,0,4,4,1,1,,,,,,,,,,,,,,,,,,,,,,,,,,,,,,,,,,,,,,,,,
195386,001,2022-11-13_23h28.30.420,Info_measure_main_exp,2022.2.2,Win32,60.0528465,,,,,,,,,,,,,,,,,,,,,,,,,,,,,,3,1.799,1,,,,,,,,,,,,0,131,5,5,2274,2154,absent_patch/patch0002274.jpg,absent_patch/patch0002154.jpg,,,,,,,,,,,,,,,,,,,,-0.035185143,-0.080555563,1,0,0,response5disk,25,0.003703718,0.006481489,1,0,0,center_square,0,24,24,23,1,,,,,,,,,,,,,,,,,,,,,,,
195386,001,2022-11-13_23h28.30.420,Info_measure_main_exp,2022.2.2,Win32,60.0528465,,,,,,,,,,,,,,,,,,masks/mask_002.jpg,,,,,,,,,,,,,,,,,,,,,,,,,,,,,,,,,,,,,,,,,,,0,0,0,1,1,,,,,,,,,,,,,,,,,,,,,,,,,,,,,,,,,,,,,,,,,,,,,,
195386,001,2022-11-13_23h28.30.420,Info_measure_main_exp,2022.2.2,Win32,60.0528465,,,,,,,,,,,,,,,,,,masks/mask_005.jpg,,,,,,,,,,,,,,,,,,,,,,,,,,,,,,,,,,,,,,,,,,,0,1,1,4,1,,,,,,,,,,,,,,,,,,,,,,,,,,,,,,,,,,,,,,,,,,,,,,
195386,001,2022-11-13_23h28.30.420,Info_measure_main_exp,2022.2.2,Win32,60.0528465,,,,,,,,,,,,,,,,,,masks/mask_004.jpg,,,,,,,,,,,,,,,,,,,,,,,,,,,,,,,,,,,,,,,,,,,0,2,2,3,1,,,,,,,,,,,,,,,,,,,,,,,,,,,,,,,,,,,,,,,,,,,,,,
195386,001,2022-11-13_23h28.30.420,Info_measure_main_exp,2022.2.2,Win32,60.0528465,,,,,,,,,,,,,,,,,,masks/mask_001.jpg,,,,,,,,,,,,,,,,,,,,,,,,,,,,,,,,,,,,,,,,,,,0,3,3,0,1,,,,,,,,,,,,,,,,,,,,,,,,,,,,,,,,,,,,,,,,,,,,,,
195386,001,2022-11-13_23h28.30.420,Info_measure_main_exp,2022.2.2,Win32,60.0528465,,,,,,,,,,,,,,,,,,masks/mask_003.jpg,,,,,,,,,,,,,,,,,,,,,,,,,,,,,,,,,,,,,,,,,,,0,4,4,2,1,,,,,,,,,,,,,,,,,,,,,,,,,,,,,,,,,,,,,,,,,,,,,,
195386,001,2022-11-13_23h28.30.420,Info_measure_main_exp,2022.2.2,Win32,60.0528465,,,,,,,,,,,,,,,,,,masks/mask_004.jpg,,,,,,,,,,,,,,,,,,,,,,,,,,,,,,,,,,,,,,,,,,,,,,,,0,0,0,3,1,,,,,,,,,,,,,,,,,,,,,,,,,,,,,,,,,,,,,,,,,
195386,001,2022-11-13_23h28.30.420,Info_measure_main_exp,2022.2.2,Win32,60.0528465,,,,,,,,,,,,,,,,,,masks/mask_002.jpg,,,,,,,,,,,,,,,,,,,,,,,,,,,,,,,,,,,,,,,,,,,,,,,,0,1,1,1,1,,,,,,,,,,,,,,,,,,,,,,,,,,,,,,,,,,,,,,,,,
195386,001,2022-11-13_23h28.30.420,Info_measure_main_exp,2022.2.2,Win32,60.0528465,,,,,,,,,,,,,,,,,,masks/mask_003.jpg,,,,,,,,,,,,,,,,,,,,,,,,,,,,,,,,,,,,,,,,,,,,,,,,0,2,2,2,1,,,,,,,,,,,,,,,,,,,,,,,,,,,,,,,,,,,,,,,,,
195386,001,2022-11-13_23h28.30.420,Info_measure_main_exp,2022.2.2,Win32,60.0528465,,,,,,,,,,,,,,,,,,masks/mask_005.jpg,,,,,,,,,,,,,,,,,,,,,,,,,,,,,,,,,,,,,,,,,,,,,,,,0,3,3,4,1,,,,,,,,,,,,,,,,,,,,,,,,,,,,,,,,,,,,,,,,,
195386,001,2022-11-13_23h28.30.420,Info_measure_main_exp,2022.2.2,Win32,60.0528465,,,,,,,,,,,,,,,,,,masks/mask_001.jpg,,,,,,,,,,,,,,,,,,,,,,,,,,,,,,,,,,,,,,,,,,,,,,,,0,4,4,0,1,,,,,,,,,,,,,,,,,,,,,,,,,,,,,,,,,,,,,,,,,
195386,001,2022-11-13_23h28.30.420,Info_measure_main_exp,2022.2.2,Win32,60.0528465,,,,,,,,,,,,,,,,,,,,,,,,,,,,,,7,0.8558,1,,,,,,,,,,,,0,131,5,5,2190,2250,absent_patch/patch0002190.jpg,absent_patch/patch0002250.jpg,,,,,,,,,,,,,,,,,,,,0.025925954,0.11296297,1,0,0,response1disk,26,0.009259259,-0.01203703,1,0,0,center_square,0,25,25,93,1,,,,,,,,,,,,,,,,,,,,,,,
195386,001,2022-11-13_23h28.30.420,Info_measure_main_exp,2022.2.2,Win32,60.0528465,,,,,,,,,,,,,,,,,,masks/mask_001.jpg,,,,,,,,,,,,,,,,,,,,,,,,,,,,,,,,,,,,,,,,,,,0,0,0,0,1,,,,,,,,,,,,,,,,,,,,,,,,,,,,,,,,,,,,,,,,,,,,,,
195386,001,2022-11-13_23h28.30.420,Info_measure_main_exp,2022.2.2,Win32,60.0528465,,,,,,,,,,,,,,,,,,masks/mask_002.jpg,,,,,,,,,,,,,,,,,,,,,,,,,,,,,,,,,,,,,,,,,,,0,1,1,1,1,,,,,,,,,,,,,,,,,,,,,,,,,,,,,,,,,,,,,,,,,,,,,,
195386,001,2022-11-13_23h28.30.420,Info_measure_main_exp,2022.2.2,Win32,60.0528465,,,,,,,,,,,,,,,,,,masks/mask_003.jpg,,,,,,,,,,,,,,,,,,,,,,,,,,,,,,,,,,,,,,,,,,,0,2,2,2,1,,,,,,,,,,,,,,,,,,,,,,,,,,,,,,,,,,,,,,,,,,,,,,
195386,001,2022-11-13_23h28.30.420,Info_measure_main_exp,2022.2.2,Win32,60.0528465,,,,,,,,,,,,,,,,,,masks/mask_005.jpg,,,,,,,,,,,,,,,,,,,,,,,,,,,,,,,,,,,,,,,,,,,0,3,3,4,1,,,,,,,,,,,,,,,,,,,,,,,,,,,,,,,,,,,,,,,,,,,,,,
195386,001,2022-11-13_23h28.30.420,Info_measure_main_exp,2022.2.2,Win32,60.0528465,,,,,,,,,,,,,,,,,,masks/mask_004.jpg,,,,,,,,,,,,,,,,,,,,,,,,,,,,,,,,,,,,,,,,,,,0,4,4,3,1,,,,,,,,,,,,,,,,,,,,,,,,,,,,,,,,,,,,,,,,,,,,,,
195386,001,2022-11-13_23h28.30.420,Info_measure_main_exp,2022.2.2,Win32,60.0528465,,,,,,,,,,,,,,,,,,masks/mask_001.jpg,,,,,,,,,,,,,,,,,,,,,,,,,,,,,,,,,,,,,,,,,,,,,,,,0,0,0,0,1,,,,,,,,,,,,,,,,,,,,,,,,,,,,,,,,,,,,,,,,,
195386,001,2022-11-13_23h28.30.420,Info_measure_main_exp,2022.2.2,Win32,60.0528465,,,,,,,,,,,,,,,,,,masks/mask_002.jpg,,,,,,,,,,,,,,,,,,,,,,,,,,,,,,,,,,,,,,,,,,,,,,,,0,1,1,1,1,,,,,,,,,,,,,,,,,,,,,,,,,,,,,,,,,,,,,,,,,
195386,001,2022-11-13_23h28.30.420,Info_measure_main_exp,2022.2.2,Win32,60.0528465,,,,,,,,,,,,,,,,,,masks/mask_004.jpg,,,,,,,,,,,,,,,,,,,,,,,,,,,,,,,,,,,,,,,,,,,,,,,,0,2,2,3,1,,,,,,,,,,,,,,,,,,,,,,,,,,,,,,,,,,,,,,,,,
195386,001,2022-11-13_23h28.30.420,Info_measure_main_exp,2022.2.2,Win32,60.0528465,,,,,,,,,,,,,,,,,,masks/mask_005.jpg,,,,,,,,,,,,,,,,,,,,,,,,,,,,,,,,,,,,,,,,,,,,,,,,0,3,3,4,1,,,,,,,,,,,,,,,,,,,,,,,,,,,,,,,,,,,,,,,,,
195386,001,2022-11-13_23h28.30.420,Info_measure_main_exp,2022.2.2,Win32,60.0528465,,,,,,,,,,,,,,,,,,masks/mask_003.jpg,,,,,,,,,,,,,,,,,,,,,,,,,,,,,,,,,,,,,,,,,,,,,,,,0,4,4,2,1,,,,,,,,,,,,,,,,,,,,,,,,,,,,,,,,,,,,,,,,,
195386,001,2022-11-13_23h28.30.420,Info_measure_main_exp,2022.2.2,Win32,60.0528465,,,,,,,,,,,,,,,,,,,,,,,,,,,,,,7,0.6448,1,,,,,,,,,,,,0,131,5,5,1986,1950,absent_patch/patch0001986.jpg,absent_patch/patch0001950.jpg,,,,,,,,,,,,,,,,,,,,0.064814815,0.137962942,1,0,0,response1disk,27,-0.002777735,0.0074074,1,0,0,center_square,0,26,26,15,1,,,,,,,,,,,,,,,,,,,,,,,
195386,001,2022-11-13_23h28.30.420,Info_measure_main_exp,2022.2.2,Win32,60.0528465,,,,,,,,,,,,,,,,,,masks/mask_003.jpg,,,,,,,,,,,,,,,,,,,,,,,,,,,,,,,,,,,,,,,,,,,0,0,0,2,1,,,,,,,,,,,,,,,,,,,,,,,,,,,,,,,,,,,,,,,,,,,,,,
195386,001,2022-11-13_23h28.30.420,Info_measure_main_exp,2022.2.2,Win32,60.0528465,,,,,,,,,,,,,,,,,,masks/mask_005.jpg,,,,,,,,,,,,,,,,,,,,,,,,,,,,,,,,,,,,,,,,,,,0,1,1,4,1,,,,,,,,,,,,,,,,,,,,,,,,,,,,,,,,,,,,,,,,,,,,,,
195386,001,2022-11-13_23h28.30.420,Info_measure_main_exp,2022.2.2,Win32,60.0528465,,,,,,,,,,,,,,,,,,masks/mask_001.jpg,,,,,,,,,,,,,,,,,,,,,,,,,,,,,,,,,,,,,,,,,,,0,2,2,0,1,,,,,,,,,,,,,,,,,,,,,,,,,,,,,,,,,,,,,,,,,,,,,,
195386,001,2022-11-13_23h28.30.420,Info_measure_main_exp,2022.2.2,Win32,60.0528465,,,,,,,,,,,,,,,,,,masks/mask_002.jpg,,,,,,,,,,,,,,,,,,,,,,,,,,,,,,,,,,,,,,,,,,,0,3,3,1,1,,,,,,,,,,,,,,,,,,,,,,,,,,,,,,,,,,,,,,,,,,,,,,
195386,001,2022-11-13_23h28.30.420,Info_measure_main_exp,2022.2.2,Win32,60.0528465,,,,,,,,,,,,,,,,,,masks/mask_004.jpg,,,,,,,,,,,,,,,,,,,,,,,,,,,,,,,,,,,,,,,,,,,0,4,4,3,1,,,,,,,,,,,,,,,,,,,,,,,,,,,,,,,,,,,,,,,,,,,,,,
195386,001,2022-11-13_23h28.30.420,Info_measure_main_exp,2022.2.2,Win32,60.0528465,,,,,,,,,,,,,,,,,,masks/mask_003.jpg,,,,,,,,,,,,,,,,,,,,,,,,,,,,,,,,,,,,,,,,,,,,,,,,0,0,0,2,1,,,,,,,,,,,,,,,,,,,,,,,,,,,,,,,,,,,,,,,,,
195386,001,2022-11-13_23h28.30.420,Info_measure_main_exp,2022.2.2,Win32,60.0528465,,,,,,,,,,,,,,,,,,masks/mask_005.jpg,,,,,,,,,,,,,,,,,,,,,,,,,,,,,,,,,,,,,,,,,,,,,,,,0,1,1,4,1,,,,,,,,,,,,,,,,,,,,,,,,,,,,,,,,,,,,,,,,,
195386,001,2022-11-13_23h28.30.420,Info_measure_main_exp,2022.2.2,Win32,60.0528465,,,,,,,,,,,,,,,,,,masks/mask_001.jpg,,,,,,,,,,,,,,,,,,,,,,,,,,,,,,,,,,,,,,,,,,,,,,,,0,2,2,0,1,,,,,,,,,,,,,,,,,,,,,,,,,,,,,,,,,,,,,,,,,
195386,001,2022-11-13_23h28.30.420,Info_measure_main_exp,2022.2.2,Win32,60.0528465,,,,,,,,,,,,,,,,,,masks/mask_002.jpg,,,,,,,,,,,,,,,,,,,,,,,,,,,,,,,,,,,,,,,,,,,,,,,,0,3,3,1,1,,,,,,,,,,,,,,,,,,,,,,,,,,,,,,,,,,,,,,,,,
195386,001,2022-11-13_23h28.30.420,Info_measure_main_exp,2022.2.2,Win32,60.0528465,,,,,,,,,,,,,,,,,,masks/mask_004.jpg,,,,,,,,,,,,,,,,,,,,,,,,,,,,,,,,,,,,,,,,,,,,,,,,0,4,4,3,1,,,,,,,,,,,,,,,,,,,,,,,,,,,,,,,,,,,,,,,,,
195386,001,2022-11-13_23h28.30.420,Info_measure_main_exp,2022.2.2,Win32,60.0528465,,,,,,,,,,,,,,,,,,,,,,,,,,,,,,7,0.5274,1,,,,,,,,,,,,1,131,5,5,2082,1,absent_patch/patch0002082.jpg,present_patch/cong_131_5_a.jpg,,,,,,,,,,,,,,,,,,,,0.016666695,0.131481489,1,0,0,response1disk,28,-0.00462963,-0.006481489,1,0,0,center_square,0,27,27,65,1,,,,,,,,,,,,,,,,,,,,,,,
195386,001,2022-11-13_23h28.30.420,Info_measure_main_exp,2022.2.2,Win32,60.0528465,,,,,,,,,,,,,,,,,,masks/mask_001.jpg,,,,,,,,,,,,,,,,,,,,,,,,,,,,,,,,,,,,,,,,,,,0,0,0,0,1,,,,,,,,,,,,,,,,,,,,,,,,,,,,,,,,,,,,,,,,,,,,,,
195386,001,2022-11-13_23h28.30.420,Info_measure_main_exp,2022.2.2,Win32,60.0528465,,,,,,,,,,,,,,,,,,masks/mask_002.jpg,,,,,,,,,,,,,,,,,,,,,,,,,,,,,,,,,,,,,,,,,,,0,1,1,1,1,,,,,,,,,,,,,,,,,,,,,,,,,,,,,,,,,,,,,,,,,,,,,,
195386,001,2022-11-13_23h28.30.420,Info_measure_main_exp,2022.2.2,Win32,60.0528465,,,,,,,,,,,,,,,,,,masks/mask_004.jpg,,,,,,,,,,,,,,,,,,,,,,,,,,,,,,,,,,,,,,,,,,,0,2,2,3,1,,,,,,,,,,,,,,,,,,,,,,,,,,,,,,,,,,,,,,,,,,,,,,
195386,001,2022-11-13_23h28.30.420,Info_measure_main_exp,2022.2.2,Win32,60.0528465,,,,,,,,,,,,,,,,,,masks/mask_005.jpg,,,,,,,,,,,,,,,,,,,,,,,,,,,,,,,,,,,,,,,,,,,0,3,3,4,1,,,,,,,,,,,,,,,,,,,,,,,,,,,,,,,,,,,,,,,,,,,,,,
195386,001,2022-11-13_23h28.30.420,Info_measure_main_exp,2022.2.2,Win32,60.0528465,,,,,,,,,,,,,,,,,,masks/mask_003.jpg,,,,,,,,,,,,,,,,,,,,,,,,,,,,,,,,,,,,,,,,,,,0,4,4,2,1,,,,,,,,,,,,,,,,,,,,,,,,,,,,,,,,,,,,,,,,,,,,,,
195386,001,2022-11-13_23h28.30.420,Info_measure_main_exp,2022.2.2,Win32,60.0528465,,,,,,,,,,,,,,,,,,masks/mask_003.jpg,,,,,,,,,,,,,,,,,,,,,,,,,,,,,,,,,,,,,,,,,,,,,,,,0,0,0,2,1,,,,,,,,,,,,,,,,,,,,,,,,,,,,,,,,,,,,,,,,,
195386,001,2022-11-13_23h28.30.420,Info_measure_main_exp,2022.2.2,Win32,60.0528465,,,,,,,,,,,,,,,,,,masks/mask_004.jpg,,,,,,,,,,,,,,,,,,,,,,,,,,,,,,,,,,,,,,,,,,,,,,,,0,1,1,3,1,,,,,,,,,,,,,,,,,,,,,,,,,,,,,,,,,,,,,,,,,
195386,001,2022-11-13_23h28.30.420,Info_measure_main_exp,2022.2.2,Win32,60.0528465,,,,,,,,,,,,,,,,,,masks/mask_001.jpg,,,,,,,,,,,,,,,,,,,,,,,,,,,,,,,,,,,,,,,,,,,,,,,,0,2,2,0,1,,,,,,,,,,,,,,,,,,,,,,,,,,,,,,,,,,,,,,,,,
195386,001,2022-11-13_23h28.30.420,Info_measure_main_exp,2022.2.2,Win32,60.0528465,,,,,,,,,,,,,,,,,,masks/mask_002.jpg,,,,,,,,,,,,,,,,,,,,,,,,,,,,,,,,,,,,,,,,,,,,,,,,0,3,3,1,1,,,,,,,,,,,,,,,,,,,,,,,,,,,,,,,,,,,,,,,,,
195386,001,2022-11-13_23h28.30.420,Info_measure_main_exp,2022.2.2,Win32,60.0528465,,,,,,,,,,,,,,,,,,masks/mask_005.jpg,,,,,,,,,,,,,,,,,,,,,,,,,,,,,,,,,,,,,,,,,,,,,,,,0,4,4,4,1,,,,,,,,,,,,,,,,,,,,,,,,,,,,,,,,,,,,,,,,,
195386,001,2022-11-13_23h28.30.420,Info_measure_main_exp,2022.2.2,Win32,60.0528465,,,,,,,,,,,,,,,,,,,,,,,,,,,,,,4,1.5659,1,,,,,,,,,,,,0,131,5,5,2274,2142,absent_patch/patch0002274.jpg,absent_patch/patch0002142.jpg,,,,,,,,,,,,,,,,,,,,0.025925954,-0.075925933,1,0,0,response3disk,29,0.011111153,-0.003703718,1,0,0,center_square,0,28,28,75,1,,,,,,,,,,,,,,,,,,,,,,,
195386,001,2022-11-13_23h28.30.420,Info_measure_main_exp,2022.2.2,Win32,60.0528465,,,,,,,,,,,,,,,,,,masks/mask_003.jpg,,,,,,,,,,,,,,,,,,,,,,,,,,,,,,,,,,,,,,,,,,,0,0,0,2,1,,,,,,,,,,,,,,,,,,,,,,,,,,,,,,,,,,,,,,,,,,,,,,
195386,001,2022-11-13_23h28.30.420,Info_measure_main_exp,2022.2.2,Win32,60.0528465,,,,,,,,,,,,,,,,,,masks/mask_002.jpg,,,,,,,,,,,,,,,,,,,,,,,,,,,,,,,,,,,,,,,,,,,0,1,1,1,1,,,,,,,,,,,,,,,,,,,,,,,,,,,,,,,,,,,,,,,,,,,,,,
195386,001,2022-11-13_23h28.30.420,Info_measure_main_exp,2022.2.2,Win32,60.0528465,,,,,,,,,,,,,,,,,,masks/mask_001.jpg,,,,,,,,,,,,,,,,,,,,,,,,,,,,,,,,,,,,,,,,,,,0,2,2,0,1,,,,,,,,,,,,,,,,,,,,,,,,,,,,,,,,,,,,,,,,,,,,,,
195386,001,2022-11-13_23h28.30.420,Info_measure_main_exp,2022.2.2,Win32,60.0528465,,,,,,,,,,,,,,,,,,masks/mask_005.jpg,,,,,,,,,,,,,,,,,,,,,,,,,,,,,,,,,,,,,,,,,,,0,3,3,4,1,,,,,,,,,,,,,,,,,,,,,,,,,,,,,,,,,,,,,,,,,,,,,,
195386,001,2022-11-13_23h28.30.420,Info_measure_main_exp,2022.2.2,Win32,60.0528465,,,,,,,,,,,,,,,,,,masks/mask_004.jpg,,,,,,,,,,,,,,,,,,,,,,,,,,,,,,,,,,,,,,,,,,,0,4,4,3,1,,,,,,,,,,,,,,,,,,,,,,,,,,,,,,,,,,,,,,,,,,,,,,
195386,001,2022-11-13_23h28.30.420,Info_measure_main_exp,2022.2.2,Win32,60.0528465,,,,,,,,,,,,,,,,,,masks/mask_003.jpg,,,,,,,,,,,,,,,,,,,,,,,,,,,,,,,,,,,,,,,,,,,,,,,,0,0,0,2,1,,,,,,,,,,,,,,,,,,,,,,,,,,,,,,,,,,,,,,,,,
195386,001,2022-11-13_23h28.30.420,Info_measure_main_exp,2022.2.2,Win32,60.0528465,,,,,,,,,,,,,,,,,,masks/mask_005.jpg,,,,,,,,,,,,,,,,,,,,,,,,,,,,,,,,,,,,,,,,,,,,,,,,0,1,1,4,1,,,,,,,,,,,,,,,,,,,,,,,,,,,,,,,,,,,,,,,,,
195386,001,2022-11-13_23h28.30.420,Info_measure_main_exp,2022.2.2,Win32,60.0528465,,,,,,,,,,,,,,,,,,masks/mask_001.jpg,,,,,,,,,,,,,,,,,,,,,,,,,,,,,,,,,,,,,,,,,,,,,,,,0,2,2,0,1,,,,,,,,,,,,,,,,,,,,,,,,,,,,,,,,,,,,,,,,,
195386,001,2022-11-13_23h28.30.420,Info_measure_main_exp,2022.2.2,Win32,60.0528465,,,,,,,,,,,,,,,,,,masks/mask_004.jpg,,,,,,,,,,,,,,,,,,,,,,,,,,,,,,,,,,,,,,,,,,,,,,,,0,3,3,3,1,,,,,,,,,,,,,,,,,,,,,,,,,,,,,,,,,,,,,,,,,
195386,001,2022-11-13_23h28.30.420,Info_measure_main_exp,2022.2.2,Win32,60.0528465,,,,,,,,,,,,,,,,,,masks/mask_002.jpg,,,,,,,,,,,,,,,,,,,,,,,,,,,,,,,,,,,,,,,,,,,,,,,,0,4,4,1,1,,,,,,,,,,,,,,,,,,,,,,,,,,,,,,,,,,,,,,,,,
195386,001,2022-11-13_23h28.30.420,Info_measure_main_exp,2022.2.2,Win32,60.0528465,,,,,,,,,,,,,,,,,,,,,,,,,,,,,,6,1.0163,1,,,,,,,,,,,,0,131,5,5,2274,1974,absent_patch/patch0002274.jpg,absent_patch/patch0001974.jpg,,,,,,,,,,,,,,,,,,,,0.089814857,0.038888896,1,0,0,response1disk,30,0.012962977,0.006481489,1,0,0,center_square,0,29,29,90,1,,,,,,,,,,,,,,,,,,,,,,,
195386,001,2022-11-13_23h28.30.420,Info_measure_main_exp,2022.2.2,Win32,60.0528465,,,,,,,,,,,,,,,,,,masks/mask_004.jpg,,,,,,,,,,,,,,,,,,,,,,,,,,,,,,,,,,,,,,,,,,,0,0,0,3,1,,,,,,,,,,,,,,,,,,,,,,,,,,,,,,,,,,,,,,,,,,,,,,
195386,001,2022-11-13_23h28.30.420,Info_measure_main_exp,2022.2.2,Win32,60.0528465,,,,,,,,,,,,,,,,,,masks/mask_002.jpg,,,,,,,,,,,,,,,,,,,,,,,,,,,,,,,,,,,,,,,,,,,0,1,1,1,1,,,,,,,,,,,,,,,,,,,,,,,,,,,,,,,,,,,,,,,,,,,,,,
195386,001,2022-11-13_23h28.30.420,Info_measure_main_exp,2022.2.2,Win32,60.0528465,,,,,,,,,,,,,,,,,,masks/mask_003.jpg,,,,,,,,,,,,,,,,,,,,,,,,,,,,,,,,,,,,,,,,,,,0,2,2,2,1,,,,,,,,,,,,,,,,,,,,,,,,,,,,,,,,,,,,,,,,,,,,,,
195386,001,2022-11-13_23h28.30.420,Info_measure_main_exp,2022.2.2,Win32,60.0528465,,,,,,,,,,,,,,,,,,masks/mask_001.jpg,,,,,,,,,,,,,,,,,,,,,,,,,,,,,,,,,,,,,,,,,,,0,3,3,0,1,,,,,,,,,,,,,,,,,,,,,,,,,,,,,,,,,,,,,,,,,,,,,,
195386,001,2022-11-13_23h28.30.420,Info_measure_main_exp,2022.2.2,Win32,60.0528465,,,,,,,,,,,,,,,,,,masks/mask_005.jpg,,,,,,,,,,,,,,,,,,,,,,,,,,,,,,,,,,,,,,,,,,,0,4,4,4,1,,,,,,,,,,,,,,,,,,,,,,,,,,,,,,,,,,,,,,,,,,,,,,
195386,001,2022-11-13_23h28.30.420,Info_measure_main_exp,2022.2.2,Win32,60.0528465,,,,,,,,,,,,,,,,,,masks/mask_002.jpg,,,,,,,,,,,,,,,,,,,,,,,,,,,,,,,,,,,,,,,,,,,,,,,,0,0,0,1,1,,,,,,,,,,,,,,,,,,,,,,,,,,,,,,,,,,,,,,,,,
195386,001,2022-11-13_23h28.30.420,Info_measure_main_exp,2022.2.2,Win32,60.0528465,,,,,,,,,,,,,,,,,,masks/mask_001.jpg,,,,,,,,,,,,,,,,,,,,,,,,,,,,,,,,,,,,,,,,,,,,,,,,0,1,1,0,1,,,,,,,,,,,,,,,,,,,,,,,,,,,,,,,,,,,,,,,,,
195386,001,2022-11-13_23h28.30.420,Info_measure_main_exp,2022.2.2,Win32,60.0528465,,,,,,,,,,,,,,,,,,masks/mask_005.jpg,,,,,,,,,,,,,,,,,,,,,,,,,,,,,,,,,,,,,,,,,,,,,,,,0,2,2,4,1,,,,,,,,,,,,,,,,,,,,,,,,,,,,,,,,,,,,,,,,,
195386,001,2022-11-13_23h28.30.420,Info_measure_main_exp,2022.2.2,Win32,60.0528465,,,,,,,,,,,,,,,,,,masks/mask_003.jpg,,,,,,,,,,,,,,,,,,,,,,,,,,,,,,,,,,,,,,,,,,,,,,,,0,3,3,2,1,,,,,,,,,,,,,,,,,,,,,,,,,,,,,,,,,,,,,,,,,
195386,001,2022-11-13_23h28.30.420,Info_measure_main_exp,2022.2.2,Win32,60.0528465,,,,,,,,,,,,,,,,,,masks/mask_004.jpg,,,,,,,,,,,,,,,,,,,,,,,,,,,,,,,,,,,,,,,,,,,,,,,,0,4,4,3,1,,,,,,,,,,,,,,,,,,,,,,,,,,,,,,,,,,,,,,,,,
195386,001,2022-11-13_23h28.30.420,Info_measure_main_exp,2022.2.2,Win32,60.0528465,,,,,,,,,,,,,,,,,,,,,,,,,,,,,,7,1.2993,1,,,,,,,,,,,,0,131,5,5,2298,2178,absent_patch/patch0002298.jpg,absent_patch/patch0002178.jpg,,,,,,,,,,,,,,,,,,,,0.043518561,0.099074081,1,0,0,response1disk,31,0.006481524,0.006481489,1,0,0,center_square,0,30,30,84,1,,,,,,,,,,,,,,,,,,,,,,,
195386,001,2022-11-13_23h28.30.420,Info_measure_main_exp,2022.2.2,Win32,60.0528465,,,,,,,,,,,,,,,,,,masks/mask_005.jpg,,,,,,,,,,,,,,,,,,,,,,,,,,,,,,,,,,,,,,,,,,,0,0,0,4,1,,,,,,,,,,,,,,,,,,,,,,,,,,,,,,,,,,,,,,,,,,,,,,
195386,001,2022-11-13_23h28.30.420,Info_measure_main_exp,2022.2.2,Win32,60.0528465,,,,,,,,,,,,,,,,,,masks/mask_001.jpg,,,,,,,,,,,,,,,,,,,,,,,,,,,,,,,,,,,,,,,,,,,0,1,1,0,1,,,,,,,,,,,,,,,,,,,,,,,,,,,,,,,,,,,,,,,,,,,,,,
195386,001,2022-11-13_23h28.30.420,Info_measure_main_exp,2022.2.2,Win32,60.0528465,,,,,,,,,,,,,,,,,,masks/mask_003.jpg,,,,,,,,,,,,,,,,,,,,,,,,,,,,,,,,,,,,,,,,,,,0,2,2,2,1,,,,,,,,,,,,,,,,,,,,,,,,,,,,,,,,,,,,,,,,,,,,,,
195386,001,2022-11-13_23h28.30.420,Info_measure_main_exp,2022.2.2,Win32,60.0528465,,,,,,,,,,,,,,,,,,masks/mask_002.jpg,,,,,,,,,,,,,,,,,,,,,,,,,,,,,,,,,,,,,,,,,,,0,3,3,1,1,,,,,,,,,,,,,,,,,,,,,,,,,,,,,,,,,,,,,,,,,,,,,,
195386,001,2022-11-13_23h28.30.420,Info_measure_main_exp,2022.2.2,Win32,60.0528465,,,,,,,,,,,,,,,,,,masks/mask_004.jpg,,,,,,,,,,,,,,,,,,,,,,,,,,,,,,,,,,,,,,,,,,,0,4,4,3,1,,,,,,,,,,,,,,,,,,,,,,,,,,,,,,,,,,,,,,,,,,,,,,
195386,001,2022-11-13_23h28.30.420,Info_measure_main_exp,2022.2.2,Win32,60.0528465,,,,,,,,,,,,,,,,,,masks/mask_005.jpg,,,,,,,,,,,,,,,,,,,,,,,,,,,,,,,,,,,,,,,,,,,,,,,,0,0,0,4,1,,,,,,,,,,,,,,,,,,,,,,,,,,,,,,,,,,,,,,,,,
195386,001,2022-11-13_23h28.30.420,Info_measure_main_exp,2022.2.2,Win32,60.0528465,,,,,,,,,,,,,,,,,,masks/mask_003.jpg,,,,,,,,,,,,,,,,,,,,,,,,,,,,,,,,,,,,,,,,,,,,,,,,0,1,1,2,1,,,,,,,,,,,,,,,,,,,,,,,,,,,,,,,,,,,,,,,,,
195386,001,2022-11-13_23h28.30.420,Info_measure_main_exp,2022.2.2,Win32,60.0528465,,,,,,,,,,,,,,,,,,masks/mask_002.jpg,,,,,,,,,,,,,,,,,,,,,,,,,,,,,,,,,,,,,,,,,,,,,,,,0,2,2,1,1,,,,,,,,,,,,,,,,,,,,,,,,,,,,,,,,,,,,,,,,,
195386,001,2022-11-13_23h28.30.420,Info_measure_main_exp,2022.2.2,Win32,60.0528465,,,,,,,,,,,,,,,,,,masks/mask_001.jpg,,,,,,,,,,,,,,,,,,,,,,,,,,,,,,,,,,,,,,,,,,,,,,,,0,3,3,0,1,,,,,,,,,,,,,,,,,,,,,,,,,,,,,,,,,,,,,,,,,
195386,001,2022-11-13_23h28.30.420,Info_measure_main_exp,2022.2.2,Win32,60.0528465,,,,,,,,,,,,,,,,,,masks/mask_004.jpg,,,,,,,,,,,,,,,,,,,,,,,,,,,,,,,,,,,,,,,,,,,,,,,,0,4,4,3,1,,,,,,,,,,,,,,,,,,,,,,,,,,,,,,,,,,,,,,,,,
195386,001,2022-11-13_23h28.30.420,Info_measure_main_exp,2022.2.2,Win32,60.0528465,,,,,,,,,,,,,,,,,,,,,,,,,,,,,,7,3.0318,1,,,,,,,,,,,,0,131,5,5,2238,2298,absent_patch/patch0002238.jpg,absent_patch/patch0002298.jpg,,,,,,,,,,,,,,,,,,,,0.090740769,0.125925912,1,0,0,response1disk,32,0.009259259,-0.000925947,1,0,0,center_square,0,31,31,51,1,,,,,,,,,,,,,,,,,,,,,,,
195386,001,2022-11-13_23h28.30.420,Info_measure_main_exp,2022.2.2,Win32,60.0528465,,,,,,,,,,,,,,,,,,masks/mask_001.jpg,,,,,,,,,,,,,,,,,,,,,,,,,,,,,,,,,,,,,,,,,,,0,0,0,0,1,,,,,,,,,,,,,,,,,,,,,,,,,,,,,,,,,,,,,,,,,,,,,,
195386,001,2022-11-13_23h28.30.420,Info_measure_main_exp,2022.2.2,Win32,60.0528465,,,,,,,,,,,,,,,,,,masks/mask_005.jpg,,,,,,,,,,,,,,,,,,,,,,,,,,,,,,,,,,,,,,,,,,,0,1,1,4,1,,,,,,,,,,,,,,,,,,,,,,,,,,,,,,,,,,,,,,,,,,,,,,
195386,001,2022-11-13_23h28.30.420,Info_measure_main_exp,2022.2.2,Win32,60.0528465,,,,,,,,,,,,,,,,,,masks/mask_002.jpg,,,,,,,,,,,,,,,,,,,,,,,,,,,,,,,,,,,,,,,,,,,0,2,2,1,1,,,,,,,,,,,,,,,,,,,,,,,,,,,,,,,,,,,,,,,,,,,,,,
195386,001,2022-11-13_23h28.30.420,Info_measure_main_exp,2022.2.2,Win32,60.0528465,,,,,,,,,,,,,,,,,,masks/mask_004.jpg,,,,,,,,,,,,,,,,,,,,,,,,,,,,,,,,,,,,,,,,,,,0,3,3,3,1,,,,,,,,,,,,,,,,,,,,,,,,,,,,,,,,,,,,,,,,,,,,,,
195386,001,2022-11-13_23h28.30.420,Info_measure_main_exp,2022.2.2,Win32,60.0528465,,,,,,,,,,,,,,,,,,masks/mask_003.jpg,,,,,,,,,,,,,,,,,,,,,,,,,,,,,,,,,,,,,,,,,,,0,4,4,2,1,,,,,,,,,,,,,,,,,,,,,,,,,,,,,,,,,,,,,,,,,,,,,,
195386,001,2022-11-13_23h28.30.420,Info_measure_main_exp,2022.2.2,Win32,60.0528465,,,,,,,,,,,,,,,,,,masks/mask_002.jpg,,,,,,,,,,,,,,,,,,,,,,,,,,,,,,,,,,,,,,,,,,,,,,,,0,0,0,1,1,,,,,,,,,,,,,,,,,,,,,,,,,,,,,,,,,,,,,,,,,
195386,001,2022-11-13_23h28.30.420,Info_measure_main_exp,2022.2.2,Win32,60.0528465,,,,,,,,,,,,,,,,,,masks/mask_001.jpg,,,,,,,,,,,,,,,,,,,,,,,,,,,,,,,,,,,,,,,,,,,,,,,,0,1,1,0,1,,,,,,,,,,,,,,,,,,,,,,,,,,,,,,,,,,,,,,,,,
195386,001,2022-11-13_23h28.30.420,Info_measure_main_exp,2022.2.2,Win32,60.0528465,,,,,,,,,,,,,,,,,,masks/mask_004.jpg,,,,,,,,,,,,,,,,,,,,,,,,,,,,,,,,,,,,,,,,,,,,,,,,0,2,2,3,1,,,,,,,,,,,,,,,,,,,,,,,,,,,,,,,,,,,,,,,,,
195386,001,2022-11-13_23h28.30.420,Info_measure_main_exp,2022.2.2,Win32,60.0528465,,,,,,,,,,,,,,,,,,masks/mask_005.jpg,,,,,,,,,,,,,,,,,,,,,,,,,,,,,,,,,,,,,,,,,,,,,,,,0,3,3,4,1,,,,,,,,,,,,,,,,,,,,,,,,,,,,,,,,,,,,,,,,,
195386,001,2022-11-13_23h28.30.420,Info_measure_main_exp,2022.2.2,Win32,60.0528465,,,,,,,,,,,,,,,,,,masks/mask_003.jpg,,,,,,,,,,,,,,,,,,,,,,,,,,,,,,,,,,,,,,,,,,,,,,,,0,4,4,2,1,,,,,,,,,,,,,,,,,,,,,,,,,,,,,,,,,,,,,,,,,
195386,001,2022-11-13_23h28.30.420,Info_measure_main_exp,2022.2.2,Win32,60.0528465,,,,,,,,,,,,,,,,,,,,,,,,,,,,,,7,0.577,1,,,,,,,,,,,,0,131,5,5,2142,2190,absent_patch/patch0002142.jpg,absent_patch/patch0002190.jpg,,,,,,,,,,,,,,,,,,,,0.078703704,0.10833334,1,0,0,response1disk,33,-0.010185171,-0.008333347,1,0,0,center_square,0,32,32,70,1,,,,,,,,,,,,,,,,,,,,,,,
195386,001,2022-11-13_23h28.30.420,Info_measure_main_exp,2022.2.2,Win32,60.0528465,,,,,,,,,,,,,,,,,,masks/mask_004.jpg,,,,,,,,,,,,,,,,,,,,,,,,,,,,,,,,,,,,,,,,,,,0,0,0,3,1,,,,,,,,,,,,,,,,,,,,,,,,,,,,,,,,,,,,,,,,,,,,,,
195386,001,2022-11-13_23h28.30.420,Info_measure_main_exp,2022.2.2,Win32,60.0528465,,,,,,,,,,,,,,,,,,masks/mask_003.jpg,,,,,,,,,,,,,,,,,,,,,,,,,,,,,,,,,,,,,,,,,,,0,1,1,2,1,,,,,,,,,,,,,,,,,,,,,,,,,,,,,,,,,,,,,,,,,,,,,,
195386,001,2022-11-13_23h28.30.420,Info_measure_main_exp,2022.2.2,Win32,60.0528465,,,,,,,,,,,,,,,,,,masks/mask_002.jpg,,,,,,,,,,,,,,,,,,,,,,,,,,,,,,,,,,,,,,,,,,,0,2,2,1,1,,,,,,,,,,,,,,,,,,,,,,,,,,,,,,,,,,,,,,,,,,,,,,
195386,001,2022-11-13_23h28.30.420,Info_measure_main_exp,2022.2.2,Win32,60.0528465,,,,,,,,,,,,,,,,,,masks/mask_001.jpg,,,,,,,,,,,,,,,,,,,,,,,,,,,,,,,,,,,,,,,,,,,0,3,3,0,1,,,,,,,,,,,,,,,,,,,,,,,,,,,,,,,,,,,,,,,,,,,,,,
195386,001,2022-11-13_23h28.30.420,Info_measure_main_exp,2022.2.2,Win32,60.0528465,,,,,,,,,,,,,,,,,,masks/mask_005.jpg,,,,,,,,,,,,,,,,,,,,,,,,,,,,,,,,,,,,,,,,,,,0,4,4,4,1,,,,,,,,,,,,,,,,,,,,,,,,,,,,,,,,,,,,,,,,,,,,,,
195386,001,2022-11-13_23h28.30.420,Info_measure_main_exp,2022.2.2,Win32,60.0528465,,,,,,,,,,,,,,,,,,masks/mask_002.jpg,,,,,,,,,,,,,,,,,,,,,,,,,,,,,,,,,,,,,,,,,,,,,,,,0,0,0,1,1,,,,,,,,,,,,,,,,,,,,,,,,,,,,,,,,,,,,,,,,,
195386,001,2022-11-13_23h28.30.420,Info_measure_main_exp,2022.2.2,Win32,60.0528465,,,,,,,,,,,,,,,,,,masks/mask_005.jpg,,,,,,,,,,,,,,,,,,,,,,,,,,,,,,,,,,,,,,,,,,,,,,,,0,1,1,4,1,,,,,,,,,,,,,,,,,,,,,,,,,,,,,,,,,,,,,,,,,
195386,001,2022-11-13_23h28.30.420,Info_measure_main_exp,2022.2.2,Win32,60.0528465,,,,,,,,,,,,,,,,,,masks/mask_003.jpg,,,,,,,,,,,,,,,,,,,,,,,,,,,,,,,,,,,,,,,,,,,,,,,,0,2,2,2,1,,,,,,,,,,,,,,,,,,,,,,,,,,,,,,,,,,,,,,,,,
195386,001,2022-11-13_23h28.30.420,Info_measure_main_exp,2022.2.2,Win32,60.0528465,,,,,,,,,,,,,,,,,,masks/mask_001.jpg,,,,,,,,,,,,,,,,,,,,,,,,,,,,,,,,,,,,,,,,,,,,,,,,0,3,3,0,1,,,,,,,,,,,,,,,,,,,,,,,,,,,,,,,,,,,,,,,,,
195386,001,2022-11-13_23h28.30.420,Info_measure_main_exp,2022.2.2,Win32,60.0528465,,,,,,,,,,,,,,,,,,masks/mask_004.jpg,,,,,,,,,,,,,,,,,,,,,,,,,,,,,,,,,,,,,,,,,,,,,,,,0,4,4,3,1,,,,,,,,,,,,,,,,,,,,,,,,,,,,,,,,,,,,,,,,,
195386,001,2022-11-13_23h28.30.420,Info_measure_main_exp,2022.2.2,Win32,60.0528465,,,,,,,,,,,,,,,,,,,,,,,,,,,,,,2,1.1327,1,,,,,,,,,,,,0,131,5,5,1974,2178,absent_patch/patch0001974.jpg,absent_patch/patch0002178.jpg,,,,,,,,,,,,,,,,,,,,-0.038888861,-0.022222236,1,0,0,response5disk,34,0.007407436,-0.00462963,1,0,0,center_square,0,33,33,44,1,,,,,,,,,,,,,,,,,,,,,,,
195386,001,2022-11-13_23h28.30.420,Info_measure_main_exp,2022.2.2,Win32,60.0528465,,,,,,,,,,,,,,,,,,masks/mask_001.jpg,,,,,,,,,,,,,,,,,,,,,,,,,,,,,,,,,,,,,,,,,,,0,0,0,0,1,,,,,,,,,,,,,,,,,,,,,,,,,,,,,,,,,,,,,,,,,,,,,,
195386,001,2022-11-13_23h28.30.420,Info_measure_main_exp,2022.2.2,Win32,60.0528465,,,,,,,,,,,,,,,,,,masks/mask_005.jpg,,,,,,,,,,,,,,,,,,,,,,,,,,,,,,,,,,,,,,,,,,,0,1,1,4,1,,,,,,,,,,,,,,,,,,,,,,,,,,,,,,,,,,,,,,,,,,,,,,
195386,001,2022-11-13_23h28.30.420,Info_measure_main_exp,2022.2.2,Win32,60.0528465,,,,,,,,,,,,,,,,,,masks/mask_003.jpg,,,,,,,,,,,,,,,,,,,,,,,,,,,,,,,,,,,,,,,,,,,0,2,2,2,1,,,,,,,,,,,,,,,,,,,,,,,,,,,,,,,,,,,,,,,,,,,,,,
195386,001,2022-11-13_23h28.30.420,Info_measure_main_exp,2022.2.2,Win32,60.0528465,,,,,,,,,,,,,,,,,,masks/mask_002.jpg,,,,,,,,,,,,,,,,,,,,,,,,,,,,,,,,,,,,,,,,,,,0,3,3,1,1,,,,,,,,,,,,,,,,,,,,,,,,,,,,,,,,,,,,,,,,,,,,,,
195386,001,2022-11-13_23h28.30.420,Info_measure_main_exp,2022.2.2,Win32,60.0528465,,,,,,,,,,,,,,,,,,masks/mask_004.jpg,,,,,,,,,,,,,,,,,,,,,,,,,,,,,,,,,,,,,,,,,,,0,4,4,3,1,,,,,,,,,,,,,,,,,,,,,,,,,,,,,,,,,,,,,,,,,,,,,,
195386,001,2022-11-13_23h28.30.420,Info_measure_main_exp,2022.2.2,Win32,60.0528465,,,,,,,,,,,,,,,,,,masks/mask_004.jpg,,,,,,,,,,,,,,,,,,,,,,,,,,,,,,,,,,,,,,,,,,,,,,,,0,0,0,3,1,,,,,,,,,,,,,,,,,,,,,,,,,,,,,,,,,,,,,,,,,
195386,001,2022-11-13_23h28.30.420,Info_measure_main_exp,2022.2.2,Win32,60.0528465,,,,,,,,,,,,,,,,,,masks/mask_001.jpg,,,,,,,,,,,,,,,,,,,,,,,,,,,,,,,,,,,,,,,,,,,,,,,,0,1,1,0,1,,,,,,,,,,,,,,,,,,,,,,,,,,,,,,,,,,,,,,,,,
195386,001,2022-11-13_23h28.30.420,Info_measure_main_exp,2022.2.2,Win32,60.0528465,,,,,,,,,,,,,,,,,,masks/mask_005.jpg,,,,,,,,,,,,,,,,,,,,,,,,,,,,,,,,,,,,,,,,,,,,,,,,0,2,2,4,1,,,,,,,,,,,,,,,,,,,,,,,,,,,,,,,,,,,,,,,,,
195386,001,2022-11-13_23h28.30.420,Info_measure_main_exp,2022.2.2,Win32,60.0528465,,,,,,,,,,,,,,,,,,masks/mask_002.jpg,,,,,,,,,,,,,,,,,,,,,,,,,,,,,,,,,,,,,,,,,,,,,,,,0,3,3,1,1,,,,,,,,,,,,,,,,,,,,,,,,,,,,,,,,,,,,,,,,,
195386,001,2022-11-13_23h28.30.420,Info_measure_main_exp,2022.2.2,Win32,60.0528465,,,,,,,,,,,,,,,,,,masks/mask_003.jpg,,,,,,,,,,,,,,,,,,,,,,,,,,,,,,,,,,,,,,,,,,,,,,,,0,4,4,2,1,,,,,,,,,,,,,,,,,,,,,,,,,,,,,,,,,,,,,,,,,
