participant,session,date,expName,psychopyVersion,OS,frameRate,space_press_continue.keys,space_press_continue.rt,space_press_continue_2.keys,space_press_continue_2.rt,space_press_continue_3.keys,space_press_continue_3.rt,space_press_continue_4.keys,space_press_continue_4.rt,space_press_continue_5.keys,space_press_continue_5.rt,space_press_continue_6.keys,space_press_continue_6.rt,prac_mask_loop_1.thisRepN,prac_mask_loop_1.thisTrialN,prac_mask_loop_1.thisN,prac_mask_loop_1.thisIndex,prac_mask_loop_1.ran,mask_name,prac_mask_loop_2.thisRepN,prac_mask_loop_2.thisTrialN,prac_mask_loop_2.thisN,prac_mask_loop_2.thisIndex,prac_mask_loop_2.ran,mouse_2.x,mouse_2.y,mouse_2.leftButton,mouse_2.midButton,mouse_2.rightButton,mouse_2.clicked_name,similarity,response_time,Pass,mouse_12.x,mouse_12.y,mouse_12.leftButton,mouse_12.midButton,mouse_12.rightButton,mouse_12.clicked_name,prac_loop.thisRepN,prac_loop.thisTrialN,prac_loop.thisN,prac_loop.thisIndex,prac_loop.ran,Pair_type,Image_num,Patch_1_loc,Patch_2_loc,Patch_1_info,Patch_2_info,Patch_1_name,Patch_2_name,mouse_1.x,mouse_1.y,mouse_1.leftButton,mouse_1.midButton,mouse_1.rightButton,mouse_1.time,mouse_1.clicked_name,space_press_continue_7.keys,space_press_continue_7.rt,mask_loop.thisRepN,mask_loop.thisTrialN,mask_loop.thisN,mask_loop.thisIndex,mask_loop.ran,mask_loop_2.thisRepN,mask_loop_2.thisTrialN,mask_loop_2.thisN,mask_loop_2.thisIndex,mask_loop_2.ran,mouse.x,mouse.y,mouse.leftButton,mouse.midButton,mouse.rightButton,mouse.clicked_name,trialNumber,mouse_11.x,mouse_11.y,mouse_11.leftButton,mouse_11.midButton,mouse_11.rightButton,mouse_11.clicked_name,first_pass_loop.thisRepN,first_pass_loop.thisTrialN,first_pass_loop.thisN,first_pass_loop.thisIndex,first_pass_loop.ran,mask_loop_3.thisRepN,mask_loop_3.thisTrialN,mask_loop_3.thisN,mask_loop_3.thisIndex,mask_loop_3.ran,mask_loop_4.thisRepN,mask_loop_4.thisTrialN,mask_loop_4.thisN,mask_loop_4.thisIndex,mask_loop_4.ran,mouse_3.x,mouse_3.y,mouse_3.leftButton,mouse_3.midButton,mouse_3.rightButton,mouse_3.clicked_name,double_pass_loop.thisRepN,double_pass_loop.thisTrialN,double_pass_loop.thisN,double_pass_loop.thisIndex,double_pass_loop.ran,space_exit.keys,space_exit.rt
376666,001,2022-11-13_17h30.32.794,Info_measure_main_exp,2022.2.2,Win32,60.33182504,,,,,,,,,,,,,,,,,,,,,,,,,,,,,,,,,,,,,,,,,,,,,,,,,,,,,,,,,,,,,,,,,,,,,,,,,,,,,,,,,,,,,,,,,,,,,,,,,,,,,,,,,,,,,,,
376666,001,2022-11-13_17h30.32.794,Info_measure_main_exp,2022.2.2,Win32,60.33182504,,,,,,,,,,,,,,,,,,,,,,,,,,,,,,,,,,,,,,,,,,,,,,,,,,,,,,,,,,,,,,,,,,,,,,,,,,,,,,,,,,,,,,,,,,,,,,,,,,,,,,,,,,,,,,,
376666,001,2022-11-13_17h30.32.794,Info_measure_main_exp,2022.2.2,Win32,60.33182504,space,36.8494,,,,,,,,,,,,,,,,,,,,,,,,,,,,,,,,,,,,,,,,,,,,,,,,,,,,,,,,,,,,,,,,,,,,,,,,,,,,,,,,,,,,,,,,,,,,,,,,,,,,,,,,,,,,,
376666,001,2022-11-13_17h30.32.794,Info_measure_main_exp,2022.2.2,Win32,60.33182504,,,space,11.3638,,,,,,,,,,,,,,,,,,,,,,,,,,,,,,,,,,,,,,,,,,,,,,,,,,,,,,,,,,,,,,,,,,,,,,,,,,,,,,,,,,,,,,,,,,,,,,,,,,,,,,,,,,,
376666,001,2022-11-13_17h30.32.794,Info_measure_main_exp,2022.2.2,Win32,60.33182504,,,,,space,10.2938,,,,,,,,,,,,,,,,,,,,,,,,,,,,,,,,,,,,,,,,,,,,,,,,,,,,,,,,,,,,,,,,,,,,,,,,,,,,,,,,,,,,,,,,,,,,,,,,,,,,,,,,,
376666,001,2022-11-13_17h30.32.794,Info_measure_main_exp,2022.2.2,Win32,60.33182504,,,,,,,space,141.2247,,,,,,,,,,,,,,,,,,,,,,,,,,,,,,,,,,,,,,,,,,,,,,,,,,,,,,,,,,,,,,,,,,,,,,,,,,,,,,,,,,,,,,,,,,,,,,,,,,,,,,,
376666,001,2022-11-13_17h30.32.794,Info_measure_main_exp,2022.2.2,Win32,60.33182504,,,,,,,,,space,7.8746,,,,,,,,,,,,,,,,,,,,,,,,,,,,,,,,,,,,,,,,,,,,,,,,,,,,,,,,,,,,,,,,,,,,,,,,,,,,,,,,,,,,,,,,,,,,,,,,,,,,,
376666,001,2022-11-13_17h30.32.794,Info_measure_main_exp,2022.2.2,Win32,60.33182504,,,,,,,,,,,space,4.7291,,,,,,,,,,,,,,,,,,,,,,,,,,,,,,,,,,,,,,,,,,,,,,,,,,,,,,,,,,,,,,,,,,,,,,,,,,,,,,,,,,,,,,,,,,,,,,,,,,,
376666,001,2022-11-13_17h30.32.794,Info_measure_main_exp,2022.2.2,Win32,60.33182504,,,,,,,,,,,,,0,0,0,3,1,masks/mask_004.jpg,,,,,,,,,,,,,,,,,,,,,,,,,,,,,,,,,,,,,,,,,,,,,,,,,,,,,,,,,,,,,,,,,,,,,,,,,,,,,,,,,,,,,,,,,,,,,
376666,001,2022-11-13_17h30.32.794,Info_measure_main_exp,2022.2.2,Win32,60.33182504,,,,,,,,,,,,,0,1,1,1,1,masks/mask_002.jpg,,,,,,,,,,,,,,,,,,,,,,,,,,,,,,,,,,,,,,,,,,,,,,,,,,,,,,,,,,,,,,,,,,,,,,,,,,,,,,,,,,,,,,,,,,,,,
376666,001,2022-11-13_17h30.32.794,Info_measure_main_exp,2022.2.2,Win32,60.33182504,,,,,,,,,,,,,0,2,2,2,1,masks/mask_003.jpg,,,,,,,,,,,,,,,,,,,,,,,,,,,,,,,,,,,,,,,,,,,,,,,,,,,,,,,,,,,,,,,,,,,,,,,,,,,,,,,,,,,,,,,,,,,,,
376666,001,2022-11-13_17h30.32.794,Info_measure_main_exp,2022.2.2,Win32,60.33182504,,,,,,,,,,,,,0,3,3,4,1,masks/mask_005.jpg,,,,,,,,,,,,,,,,,,,,,,,,,,,,,,,,,,,,,,,,,,,,,,,,,,,,,,,,,,,,,,,,,,,,,,,,,,,,,,,,,,,,,,,,,,,,,
376666,001,2022-11-13_17h30.32.794,Info_measure_main_exp,2022.2.2,Win32,60.33182504,,,,,,,,,,,,,0,4,4,0,1,masks/mask_001.jpg,,,,,,,,,,,,,,,,,,,,,,,,,,,,,,,,,,,,,,,,,,,,,,,,,,,,,,,,,,,,,,,,,,,,,,,,,,,,,,,,,,,,,,,,,,,,,
376666,001,2022-11-13_17h30.32.794,Info_measure_main_exp,2022.2.2,Win32,60.33182504,,,,,,,,,,,,,,,,,,masks/mask_002.jpg,0,0,0,1,1,,,,,,,,,,,,,,,,,,,,,,,,,,,,,,,,,,,,,,,,,,,,,,,,,,,,,,,,,,,,,,,,,,,,,,,,,,,,,,,,,,,,,,,,
376666,001,2022-11-13_17h30.32.794,Info_measure_main_exp,2022.2.2,Win32,60.33182504,,,,,,,,,,,,,,,,,,masks/mask_005.jpg,0,1,1,4,1,,,,,,,,,,,,,,,,,,,,,,,,,,,,,,,,,,,,,,,,,,,,,,,,,,,,,,,,,,,,,,,,,,,,,,,,,,,,,,,,,,,,,,,,
376666,001,2022-11-13_17h30.32.794,Info_measure_main_exp,2022.2.2,Win32,60.33182504,,,,,,,,,,,,,,,,,,masks/mask_004.jpg,0,2,2,3,1,,,,,,,,,,,,,,,,,,,,,,,,,,,,,,,,,,,,,,,,,,,,,,,,,,,,,,,,,,,,,,,,,,,,,,,,,,,,,,,,,,,,,,,,
376666,001,2022-11-13_17h30.32.794,Info_measure_main_exp,2022.2.2,Win32,60.33182504,,,,,,,,,,,,,,,,,,masks/mask_001.jpg,0,3,3,0,1,,,,,,,,,,,,,,,,,,,,,,,,,,,,,,,,,,,,,,,,,,,,,,,,,,,,,,,,,,,,,,,,,,,,,,,,,,,,,,,,,,,,,,,,
376666,001,2022-11-13_17h30.32.794,Info_measure_main_exp,2022.2.2,Win32,60.33182504,,,,,,,,,,,,,,,,,,masks/mask_003.jpg,0,4,4,2,1,,,,,,,,,,,,,,,,,,,,,,,,,,,,,,,,,,,,,,,,,,,,,,,,,,,,,,,,,,,,,,,,,,,,,,,,,,,,,,,,,,,,,,,,
376666,001,2022-11-13_17h30.32.794,Info_measure_main_exp,2022.2.2,Win32,60.33182504,,,,,,,,,,,,,,,,,,,,,,,,0.024739583,-0.141927083,1,0,0,response3disk,4,219.1206,1,-0.001302083,-0.002604167,1,0,0,center_square,0,0,0,0,1,0,131,5,5,2370,2406,prac_patch/patch0002370.jpg,prac_patch/patch0002406.jpg,,,,,,,,,,,,,,,,,,,,,,,,,,,,,,,,,,,,,,,,,,,,,,,,,,,,,,,,,,,,
376666,001,2022-11-13_17h30.32.794,Info_measure_main_exp,2022.2.2,Win32,60.33182504,,,,,,,,,,,,,0,0,0,2,1,masks/mask_003.jpg,,,,,,,,,,,,,,,,,,,,,,,,,,,,,,,,,,,,,,,,,,,,,,,,,,,,,,,,,,,,,,,,,,,,,,,,,,,,,,,,,,,,,,,,,,,,,
376666,001,2022-11-13_17h30.32.794,Info_measure_main_exp,2022.2.2,Win32,60.33182504,,,,,,,,,,,,,0,1,1,1,1,masks/mask_002.jpg,,,,,,,,,,,,,,,,,,,,,,,,,,,,,,,,,,,,,,,,,,,,,,,,,,,,,,,,,,,,,,,,,,,,,,,,,,,,,,,,,,,,,,,,,,,,,
376666,001,2022-11-13_17h30.32.794,Info_measure_main_exp,2022.2.2,Win32,60.33182504,,,,,,,,,,,,,0,2,2,0,1,masks/mask_001.jpg,,,,,,,,,,,,,,,,,,,,,,,,,,,,,,,,,,,,,,,,,,,,,,,,,,,,,,,,,,,,,,,,,,,,,,,,,,,,,,,,,,,,,,,,,,,,,
376666,001,2022-11-13_17h30.32.794,Info_measure_main_exp,2022.2.2,Win32,60.33182504,,,,,,,,,,,,,0,3,3,3,1,masks/mask_004.jpg,,,,,,,,,,,,,,,,,,,,,,,,,,,,,,,,,,,,,,,,,,,,,,,,,,,,,,,,,,,,,,,,,,,,,,,,,,,,,,,,,,,,,,,,,,,,,
376666,001,2022-11-13_17h30.32.794,Info_measure_main_exp,2022.2.2,Win32,60.33182504,,,,,,,,,,,,,0,4,4,4,1,masks/mask_005.jpg,,,,,,,,,,,,,,,,,,,,,,,,,,,,,,,,,,,,,,,,,,,,,,,,,,,,,,,,,,,,,,,,,,,,,,,,,,,,,,,,,,,,,,,,,,,,,
376666,001,2022-11-13_17h30.32.794,Info_measure_main_exp,2022.2.2,Win32,60.33182504,,,,,,,,,,,,,,,,,,masks/mask_003.jpg,0,0,0,2,1,,,,,,,,,,,,,,,,,,,,,,,,,,,,,,,,,,,,,,,,,,,,,,,,,,,,,,,,,,,,,,,,,,,,,,,,,,,,,,,,,,,,,,,,
376666,001,2022-11-13_17h30.32.794,Info_measure_main_exp,2022.2.2,Win32,60.33182504,,,,,,,,,,,,,,,,,,masks/mask_005.jpg,0,1,1,4,1,,,,,,,,,,,,,,,,,,,,,,,,,,,,,,,,,,,,,,,,,,,,,,,,,,,,,,,,,,,,,,,,,,,,,,,,,,,,,,,,,,,,,,,,
376666,001,2022-11-13_17h30.32.794,Info_measure_main_exp,2022.2.2,Win32,60.33182504,,,,,,,,,,,,,,,,,,masks/mask_002.jpg,0,2,2,1,1,,,,,,,,,,,,,,,,,,,,,,,,,,,,,,,,,,,,,,,,,,,,,,,,,,,,,,,,,,,,,,,,,,,,,,,,,,,,,,,,,,,,,,,,
376666,001,2022-11-13_17h30.32.794,Info_measure_main_exp,2022.2.2,Win32,60.33182504,,,,,,,,,,,,,,,,,,masks/mask_001.jpg,0,3,3,0,1,,,,,,,,,,,,,,,,,,,,,,,,,,,,,,,,,,,,,,,,,,,,,,,,,,,,,,,,,,,,,,,,,,,,,,,,,,,,,,,,,,,,,,,,
376666,001,2022-11-13_17h30.32.794,Info_measure_main_exp,2022.2.2,Win32,60.33182504,,,,,,,,,,,,,,,,,,masks/mask_004.jpg,0,4,4,3,1,,,,,,,,,,,,,,,,,,,,,,,,,,,,,,,,,,,,,,,,,,,,,,,,,,,,,,,,,,,,,,,,,,,,,,,,,,,,,,,,,,,,,,,,
376666,001,2022-11-13_17h30.32.794,Info_measure_main_exp,2022.2.2,Win32,60.33182504,,,,,,,,,,,,,,,,,,,,,,,,-0.00390625,0.001302083,1,0,0,response7disk,1,234.5161,1,-0.00390625,0.001302083,1,0,0,center_square,0,1,1,1,1,0,131,5,5,2514,2490,prac_patch/patch0002514.jpg,prac_patch/patch0002490.jpg,,,,,,,,,,,,,,,,,,,,,,,,,,,,,,,,,,,,,,,,,,,,,,,,,,,,,,,,,,,,
376666,001,2022-11-13_17h30.32.794,Info_measure_main_exp,2022.2.2,Win32,60.33182504,,,,,,,,,,,,,0,0,0,0,1,masks/mask_001.jpg,,,,,,,,,,,,,,,,,,,,,,,,,,,,,,,,,,,,,,,,,,,,,,,,,,,,,,,,,,,,,,,,,,,,,,,,,,,,,,,,,,,,,,,,,,,,,
376666,001,2022-11-13_17h30.32.794,Info_measure_main_exp,2022.2.2,Win32,60.33182504,,,,,,,,,,,,,0,1,1,3,1,masks/mask_004.jpg,,,,,,,,,,,,,,,,,,,,,,,,,,,,,,,,,,,,,,,,,,,,,,,,,,,,,,,,,,,,,,,,,,,,,,,,,,,,,,,,,,,,,,,,,,,,,
376666,001,2022-11-13_17h30.32.794,Info_measure_main_exp,2022.2.2,Win32,60.33182504,,,,,,,,,,,,,0,2,2,1,1,masks/mask_002.jpg,,,,,,,,,,,,,,,,,,,,,,,,,,,,,,,,,,,,,,,,,,,,,,,,,,,,,,,,,,,,,,,,,,,,,,,,,,,,,,,,,,,,,,,,,,,,,
376666,001,2022-11-13_17h30.32.794,Info_measure_main_exp,2022.2.2,Win32,60.33182504,,,,,,,,,,,,,0,3,3,2,1,masks/mask_003.jpg,,,,,,,,,,,,,,,,,,,,,,,,,,,,,,,,,,,,,,,,,,,,,,,,,,,,,,,,,,,,,,,,,,,,,,,,,,,,,,,,,,,,,,,,,,,,,
376666,001,2022-11-13_17h30.32.794,Info_measure_main_exp,2022.2.2,Win32,60.33182504,,,,,,,,,,,,,0,4,4,4,1,masks/mask_005.jpg,,,,,,,,,,,,,,,,,,,,,,,,,,,,,,,,,,,,,,,,,,,,,,,,,,,,,,,,,,,,,,,,,,,,,,,,,,,,,,,,,,,,,,,,,,,,,
376666,001,2022-11-13_17h30.32.794,Info_measure_main_exp,2022.2.2,Win32,60.33182504,,,,,,,,,,,,,,,,,,masks/mask_001.jpg,0,0,0,0,1,,,,,,,,,,,,,,,,,,,,,,,,,,,,,,,,,,,,,,,,,,,,,,,,,,,,,,,,,,,,,,,,,,,,,,,,,,,,,,,,,,,,,,,,
376666,001,2022-11-13_17h30.32.794,Info_measure_main_exp,2022.2.2,Win32,60.33182504,,,,,,,,,,,,,,,,,,masks/mask_004.jpg,0,1,1,3,1,,,,,,,,,,,,,,,,,,,,,,,,,,,,,,,,,,,,,,,,,,,,,,,,,,,,,,,,,,,,,,,,,,,,,,,,,,,,,,,,,,,,,,,,
376666,001,2022-11-13_17h30.32.794,Info_measure_main_exp,2022.2.2,Win32,60.33182504,,,,,,,,,,,,,,,,,,masks/mask_002.jpg,0,2,2,1,1,,,,,,,,,,,,,,,,,,,,,,,,,,,,,,,,,,,,,,,,,,,,,,,,,,,,,,,,,,,,,,,,,,,,,,,,,,,,,,,,,,,,,,,,
376666,001,2022-11-13_17h30.32.794,Info_measure_main_exp,2022.2.2,Win32,60.33182504,,,,,,,,,,,,,,,,,,masks/mask_003.jpg,0,3,3,2,1,,,,,,,,,,,,,,,,,,,,,,,,,,,,,,,,,,,,,,,,,,,,,,,,,,,,,,,,,,,,,,,,,,,,,,,,,,,,,,,,,,,,,,,,
376666,001,2022-11-13_17h30.32.794,Info_measure_main_exp,2022.2.2,Win32,60.33182504,,,,,,,,,,,,,,,,,,masks/mask_005.jpg,0,4,4,4,1,,,,,,,,,,,,,,,,,,,,,,,,,,,,,,,,,,,,,,,,,,,,,,,,,,,,,,,,,,,,,,,,,,,,,,,,,,,,,,,,,,,,,,,,
376666,001,2022-11-13_17h30.32.794,Info_measure_main_exp,2022.2.2,Win32,60.33182504,,,,,,,,,,,,,,,,,,,,,,,,0.015625,-0.0390625,1,0,0,response3disk,4,262.266,1,-0.00390625,-0.006510417,1,0,0,center_square,0,2,2,2,1,0,131,5,5,2526,2526,prac_patch/patch0002526.jpg,prac_patch/patch0002526.jpg,,,,,,,,,,,,,,,,,,,,,,,,,,,,,,,,,,,,,,,,,,,,,,,,,,,,,,,,,,,,
376666,001,2022-11-13_17h30.32.794,Info_measure_main_exp,2022.2.2,Win32,60.33182504,,,,,,,,,,,,,,,,,,,,,,,,,,,,,,,,,,,,,,,,,,,,,,,,,,,,,,,,,,,space,4.8769,,,,,,,,,,,,,,,,,,,,,,,,,,,,,,,,,,,,,,,,,,,,,,,,,,,
376666,001,2022-11-13_17h30.32.794,Info_measure_main_exp,2022.2.2,Win32,60.33182504,,,,,,,,,,,,,,,,,,masks/mask_005.jpg,,,,,,,,,,,,,,,,,,,,,,,,,,,,,,,,,,,,,,,,,,,0,0,0,4,1,,,,,,,,,,,,,,,,,,,,,,,,,,,,,,,,,,,,,,,,,,,,,,
376666,001,2022-11-13_17h30.32.794,Info_measure_main_exp,2022.2.2,Win32,60.33182504,,,,,,,,,,,,,,,,,,masks/mask_004.jpg,,,,,,,,,,,,,,,,,,,,,,,,,,,,,,,,,,,,,,,,,,,0,1,1,3,1,,,,,,,,,,,,,,,,,,,,,,,,,,,,,,,,,,,,,,,,,,,,,,
376666,001,2022-11-13_17h30.32.794,Info_measure_main_exp,2022.2.2,Win32,60.33182504,,,,,,,,,,,,,,,,,,masks/mask_003.jpg,,,,,,,,,,,,,,,,,,,,,,,,,,,,,,,,,,,,,,,,,,,0,2,2,2,1,,,,,,,,,,,,,,,,,,,,,,,,,,,,,,,,,,,,,,,,,,,,,,
376666,001,2022-11-13_17h30.32.794,Info_measure_main_exp,2022.2.2,Win32,60.33182504,,,,,,,,,,,,,,,,,,masks/mask_002.jpg,,,,,,,,,,,,,,,,,,,,,,,,,,,,,,,,,,,,,,,,,,,0,3,3,1,1,,,,,,,,,,,,,,,,,,,,,,,,,,,,,,,,,,,,,,,,,,,,,,
376666,001,2022-11-13_17h30.32.794,Info_measure_main_exp,2022.2.2,Win32,60.33182504,,,,,,,,,,,,,,,,,,masks/mask_001.jpg,,,,,,,,,,,,,,,,,,,,,,,,,,,,,,,,,,,,,,,,,,,0,4,4,0,1,,,,,,,,,,,,,,,,,,,,,,,,,,,,,,,,,,,,,,,,,,,,,,
376666,001,2022-11-13_17h30.32.794,Info_measure_main_exp,2022.2.2,Win32,60.33182504,,,,,,,,,,,,,,,,,,masks/mask_003.jpg,,,,,,,,,,,,,,,,,,,,,,,,,,,,,,,,,,,,,,,,,,,,,,,,0,0,0,2,1,,,,,,,,,,,,,,,,,,,,,,,,,,,,,,,,,,,,,,,,,
376666,001,2022-11-13_17h30.32.794,Info_measure_main_exp,2022.2.2,Win32,60.33182504,,,,,,,,,,,,,,,,,,masks/mask_004.jpg,,,,,,,,,,,,,,,,,,,,,,,,,,,,,,,,,,,,,,,,,,,,,,,,0,1,1,3,1,,,,,,,,,,,,,,,,,,,,,,,,,,,,,,,,,,,,,,,,,
376666,001,2022-11-13_17h30.32.794,Info_measure_main_exp,2022.2.2,Win32,60.33182504,,,,,,,,,,,,,,,,,,masks/mask_005.jpg,,,,,,,,,,,,,,,,,,,,,,,,,,,,,,,,,,,,,,,,,,,,,,,,0,2,2,4,1,,,,,,,,,,,,,,,,,,,,,,,,,,,,,,,,,,,,,,,,,
376666,001,2022-11-13_17h30.32.794,Info_measure_main_exp,2022.2.2,Win32,60.33182504,,,,,,,,,,,,,,,,,,masks/mask_002.jpg,,,,,,,,,,,,,,,,,,,,,,,,,,,,,,,,,,,,,,,,,,,,,,,,0,3,3,1,1,,,,,,,,,,,,,,,,,,,,,,,,,,,,,,,,,,,,,,,,,
376666,001,2022-11-13_17h30.32.794,Info_measure_main_exp,2022.2.2,Win32,60.33182504,,,,,,,,,,,,,,,,,,masks/mask_001.jpg,,,,,,,,,,,,,,,,,,,,,,,,,,,,,,,,,,,,,,,,,,,,,,,,0,4,4,0,1,,,,,,,,,,,,,,,,,,,,,,,,,,,,,,,,,,,,,,,,,
376666,001,2022-11-13_17h30.32.794,Info_measure_main_exp,2022.2.2,Win32,60.33182504,,,,,,,,,,,,,,,,,,,,,,,,,,,,,,0,1.283,1,,,,,,,,,,,,0,131,5,5,2214,2214,absent_patch/patch0002214.jpg,absent_patch/patch0002214.jpg,,,,,,,,,,,,,,,,,,,,-0.040364583,0.122395833,1,0,0,response7disk,1,-0.006510417,-0.002604167,1,0,0,center_square,0,0,0,115,1,,,,,,,,,,,,,,,,,,,,,,,
376666,001,2022-11-13_17h30.32.794,Info_measure_main_exp,2022.2.2,Win32,60.33182504,,,,,,,,,,,,,,,,,,masks/mask_003.jpg,,,,,,,,,,,,,,,,,,,,,,,,,,,,,,,,,,,,,,,,,,,0,0,0,2,1,,,,,,,,,,,,,,,,,,,,,,,,,,,,,,,,,,,,,,,,,,,,,,
376666,001,2022-11-13_17h30.32.794,Info_measure_main_exp,2022.2.2,Win32,60.33182504,,,,,,,,,,,,,,,,,,masks/mask_005.jpg,,,,,,,,,,,,,,,,,,,,,,,,,,,,,,,,,,,,,,,,,,,0,1,1,4,1,,,,,,,,,,,,,,,,,,,,,,,,,,,,,,,,,,,,,,,,,,,,,,
376666,001,2022-11-13_17h30.32.794,Info_measure_main_exp,2022.2.2,Win32,60.33182504,,,,,,,,,,,,,,,,,,masks/mask_002.jpg,,,,,,,,,,,,,,,,,,,,,,,,,,,,,,,,,,,,,,,,,,,0,2,2,1,1,,,,,,,,,,,,,,,,,,,,,,,,,,,,,,,,,,,,,,,,,,,,,,
376666,001,2022-11-13_17h30.32.794,Info_measure_main_exp,2022.2.2,Win32,60.33182504,,,,,,,,,,,,,,,,,,masks/mask_001.jpg,,,,,,,,,,,,,,,,,,,,,,,,,,,,,,,,,,,,,,,,,,,0,3,3,0,1,,,,,,,,,,,,,,,,,,,,,,,,,,,,,,,,,,,,,,,,,,,,,,
376666,001,2022-11-13_17h30.32.794,Info_measure_main_exp,2022.2.2,Win32,60.33182504,,,,,,,,,,,,,,,,,,masks/mask_004.jpg,,,,,,,,,,,,,,,,,,,,,,,,,,,,,,,,,,,,,,,,,,,0,4,4,3,1,,,,,,,,,,,,,,,,,,,,,,,,,,,,,,,,,,,,,,,,,,,,,,
376666,001,2022-11-13_17h30.32.794,Info_measure_main_exp,2022.2.2,Win32,60.33182504,,,,,,,,,,,,,,,,,,masks/mask_001.jpg,,,,,,,,,,,,,,,,,,,,,,,,,,,,,,,,,,,,,,,,,,,,,,,,0,0,0,0,1,,,,,,,,,,,,,,,,,,,,,,,,,,,,,,,,,,,,,,,,,
376666,001,2022-11-13_17h30.32.794,Info_measure_main_exp,2022.2.2,Win32,60.33182504,,,,,,,,,,,,,,,,,,masks/mask_004.jpg,,,,,,,,,,,,,,,,,,,,,,,,,,,,,,,,,,,,,,,,,,,,,,,,0,1,1,3,1,,,,,,,,,,,,,,,,,,,,,,,,,,,,,,,,,,,,,,,,,
376666,001,2022-11-13_17h30.32.794,Info_measure_main_exp,2022.2.2,Win32,60.33182504,,,,,,,,,,,,,,,,,,masks/mask_003.jpg,,,,,,,,,,,,,,,,,,,,,,,,,,,,,,,,,,,,,,,,,,,,,,,,0,2,2,2,1,,,,,,,,,,,,,,,,,,,,,,,,,,,,,,,,,,,,,,,,,
376666,001,2022-11-13_17h30.32.794,Info_measure_main_exp,2022.2.2,Win32,60.33182504,,,,,,,,,,,,,,,,,,masks/mask_002.jpg,,,,,,,,,,,,,,,,,,,,,,,,,,,,,,,,,,,,,,,,,,,,,,,,0,3,3,1,1,,,,,,,,,,,,,,,,,,,,,,,,,,,,,,,,,,,,,,,,,
376666,001,2022-11-13_17h30.32.794,Info_measure_main_exp,2022.2.2,Win32,60.33182504,,,,,,,,,,,,,,,,,,masks/mask_005.jpg,,,,,,,,,,,,,,,,,,,,,,,,,,,,,,,,,,,,,,,,,,,,,,,,0,4,4,4,1,,,,,,,,,,,,,,,,,,,,,,,,,,,,,,,,,,,,,,,,,
376666,001,2022-11-13_17h30.32.794,Info_measure_main_exp,2022.2.2,Win32,60.33182504,,,,,,,,,,,,,,,,,,,,,,,,,,,,,,3,3.7329,1,,,,,,,,,,,,0,131,5,5,2178,2238,absent_patch/patch0002178.jpg,absent_patch/patch0002238.jpg,,,,,,,,,,,,,,,,,,,,-0.0234375,-0.151041667,1,0,0,response5disk,2,-0.006510417,0.001302083,1,0,0,center_square,0,1,1,57,1,,,,,,,,,,,,,,,,,,,,,,,
376666,001,2022-11-13_17h30.32.794,Info_measure_main_exp,2022.2.2,Win32,60.33182504,,,,,,,,,,,,,,,,,,masks/mask_005.jpg,,,,,,,,,,,,,,,,,,,,,,,,,,,,,,,,,,,,,,,,,,,0,0,0,4,1,,,,,,,,,,,,,,,,,,,,,,,,,,,,,,,,,,,,,,,,,,,,,,
376666,001,2022-11-13_17h30.32.794,Info_measure_main_exp,2022.2.2,Win32,60.33182504,,,,,,,,,,,,,,,,,,masks/mask_002.jpg,,,,,,,,,,,,,,,,,,,,,,,,,,,,,,,,,,,,,,,,,,,0,1,1,1,1,,,,,,,,,,,,,,,,,,,,,,,,,,,,,,,,,,,,,,,,,,,,,,
376666,001,2022-11-13_17h30.32.794,Info_measure_main_exp,2022.2.2,Win32,60.33182504,,,,,,,,,,,,,,,,,,masks/mask_001.jpg,,,,,,,,,,,,,,,,,,,,,,,,,,,,,,,,,,,,,,,,,,,0,2,2,0,1,,,,,,,,,,,,,,,,,,,,,,,,,,,,,,,,,,,,,,,,,,,,,,
376666,001,2022-11-13_17h30.32.794,Info_measure_main_exp,2022.2.2,Win32,60.33182504,,,,,,,,,,,,,,,,,,masks/mask_003.jpg,,,,,,,,,,,,,,,,,,,,,,,,,,,,,,,,,,,,,,,,,,,0,3,3,2,1,,,,,,,,,,,,,,,,,,,,,,,,,,,,,,,,,,,,,,,,,,,,,,
376666,001,2022-11-13_17h30.32.794,Info_measure_main_exp,2022.2.2,Win32,60.33182504,,,,,,,,,,,,,,,,,,masks/mask_004.jpg,,,,,,,,,,,,,,,,,,,,,,,,,,,,,,,,,,,,,,,,,,,0,4,4,3,1,,,,,,,,,,,,,,,,,,,,,,,,,,,,,,,,,,,,,,,,,,,,,,
376666,001,2022-11-13_17h30.32.794,Info_measure_main_exp,2022.2.2,Win32,60.33182504,,,,,,,,,,,,,,,,,,masks/mask_002.jpg,,,,,,,,,,,,,,,,,,,,,,,,,,,,,,,,,,,,,,,,,,,,,,,,0,0,0,1,1,,,,,,,,,,,,,,,,,,,,,,,,,,,,,,,,,,,,,,,,,
376666,001,2022-11-13_17h30.32.794,Info_measure_main_exp,2022.2.2,Win32,60.33182504,,,,,,,,,,,,,,,,,,masks/mask_001.jpg,,,,,,,,,,,,,,,,,,,,,,,,,,,,,,,,,,,,,,,,,,,,,,,,0,1,1,0,1,,,,,,,,,,,,,,,,,,,,,,,,,,,,,,,,,,,,,,,,,
376666,001,2022-11-13_17h30.32.794,Info_measure_main_exp,2022.2.2,Win32,60.33182504,,,,,,,,,,,,,,,,,,masks/mask_003.jpg,,,,,,,,,,,,,,,,,,,,,,,,,,,,,,,,,,,,,,,,,,,,,,,,0,2,2,2,1,,,,,,,,,,,,,,,,,,,,,,,,,,,,,,,,,,,,,,,,,
376666,001,2022-11-13_17h30.32.794,Info_measure_main_exp,2022.2.2,Win32,60.33182504,,,,,,,,,,,,,,,,,,masks/mask_005.jpg,,,,,,,,,,,,,,,,,,,,,,,,,,,,,,,,,,,,,,,,,,,,,,,,0,3,3,4,1,,,,,,,,,,,,,,,,,,,,,,,,,,,,,,,,,,,,,,,,,
376666,001,2022-11-13_17h30.32.794,Info_measure_main_exp,2022.2.2,Win32,60.33182504,,,,,,,,,,,,,,,,,,masks/mask_004.jpg,,,,,,,,,,,,,,,,,,,,,,,,,,,,,,,,,,,,,,,,,,,,,,,,0,4,4,3,1,,,,,,,,,,,,,,,,,,,,,,,,,,,,,,,,,,,,,,,,,
376666,001,2022-11-13_17h30.32.794,Info_measure_main_exp,2022.2.2,Win32,60.33182504,,,,,,,,,,,,,,,,,,,,,,,,,,,,,,7,1.0296,1,,,,,,,,,,,,1,131,5,5,1,2214,present_patch/cong_131_5_a.jpg,absent_patch/patch0002214.jpg,,,,,,,,,,,,,,,,,,,,0.045572917,0.15625,1,0,0,response1disk,3,-0.005208333,0.002604167,1,0,0,center_square,0,2,2,4,1,,,,,,,,,,,,,,,,,,,,,,,
376666,001,2022-11-13_17h30.32.794,Info_measure_main_exp,2022.2.2,Win32,60.33182504,,,,,,,,,,,,,,,,,,masks/mask_004.jpg,,,,,,,,,,,,,,,,,,,,,,,,,,,,,,,,,,,,,,,,,,,0,0,0,3,1,,,,,,,,,,,,,,,,,,,,,,,,,,,,,,,,,,,,,,,,,,,,,,
376666,001,2022-11-13_17h30.32.794,Info_measure_main_exp,2022.2.2,Win32,60.33182504,,,,,,,,,,,,,,,,,,masks/mask_005.jpg,,,,,,,,,,,,,,,,,,,,,,,,,,,,,,,,,,,,,,,,,,,0,1,1,4,1,,,,,,,,,,,,,,,,,,,,,,,,,,,,,,,,,,,,,,,,,,,,,,
376666,001,2022-11-13_17h30.32.794,Info_measure_main_exp,2022.2.2,Win32,60.33182504,,,,,,,,,,,,,,,,,,masks/mask_001.jpg,,,,,,,,,,,,,,,,,,,,,,,,,,,,,,,,,,,,,,,,,,,0,2,2,0,1,,,,,,,,,,,,,,,,,,,,,,,,,,,,,,,,,,,,,,,,,,,,,,
376666,001,2022-11-13_17h30.32.794,Info_measure_main_exp,2022.2.2,Win32,60.33182504,,,,,,,,,,,,,,,,,,masks/mask_003.jpg,,,,,,,,,,,,,,,,,,,,,,,,,,,,,,,,,,,,,,,,,,,0,3,3,2,1,,,,,,,,,,,,,,,,,,,,,,,,,,,,,,,,,,,,,,,,,,,,,,
376666,001,2022-11-13_17h30.32.794,Info_measure_main_exp,2022.2.2,Win32,60.33182504,,,,,,,,,,,,,,,,,,masks/mask_002.jpg,,,,,,,,,,,,,,,,,,,,,,,,,,,,,,,,,,,,,,,,,,,0,4,4,1,1,,,,,,,,,,,,,,,,,,,,,,,,,,,,,,,,,,,,,,,,,,,,,,
376666,001,2022-11-13_17h30.32.794,Info_measure_main_exp,2022.2.2,Win32,60.33182504,,,,,,,,,,,,,,,,,,masks/mask_002.jpg,,,,,,,,,,,,,,,,,,,,,,,,,,,,,,,,,,,,,,,,,,,,,,,,0,0,0,1,1,,,,,,,,,,,,,,,,,,,,,,,,,,,,,,,,,,,,,,,,,
376666,001,2022-11-13_17h30.32.794,Info_measure_main_exp,2022.2.2,Win32,60.33182504,,,,,,,,,,,,,,,,,,masks/mask_003.jpg,,,,,,,,,,,,,,,,,,,,,,,,,,,,,,,,,,,,,,,,,,,,,,,,0,1,1,2,1,,,,,,,,,,,,,,,,,,,,,,,,,,,,,,,,,,,,,,,,,
376666,001,2022-11-13_17h30.32.794,Info_measure_main_exp,2022.2.2,Win32,60.33182504,,,,,,,,,,,,,,,,,,masks/mask_001.jpg,,,,,,,,,,,,,,,,,,,,,,,,,,,,,,,,,,,,,,,,,,,,,,,,0,2,2,0,1,,,,,,,,,,,,,,,,,,,,,,,,,,,,,,,,,,,,,,,,,
376666,001,2022-11-13_17h30.32.794,Info_measure_main_exp,2022.2.2,Win32,60.33182504,,,,,,,,,,,,,,,,,,masks/mask_005.jpg,,,,,,,,,,,,,,,,,,,,,,,,,,,,,,,,,,,,,,,,,,,,,,,,0,3,3,4,1,,,,,,,,,,,,,,,,,,,,,,,,,,,,,,,,,,,,,,,,,
376666,001,2022-11-13_17h30.32.794,Info_measure_main_exp,2022.2.2,Win32,60.33182504,,,,,,,,,,,,,,,,,,masks/mask_004.jpg,,,,,,,,,,,,,,,,,,,,,,,,,,,,,,,,,,,,,,,,,,,,,,,,0,4,4,3,1,,,,,,,,,,,,,,,,,,,,,,,,,,,,,,,,,,,,,,,,,
376666,001,2022-11-13_17h30.32.794,Info_measure_main_exp,2022.2.2,Win32,60.33182504,,,,,,,,,,,,,,,,,,,,,,,,,,,,,,0,1.0055,1,,,,,,,,,,,,0,131,5,5,2238,2238,absent_patch/patch0002238.jpg,absent_patch/patch0002238.jpg,,,,,,,,,,,,,,,,,,,,-0.05078125,0.135416667,1,0,0,response7disk,4,-0.001302083,-0.006510417,1,0,0,center_square,0,3,3,58,1,,,,,,,,,,,,,,,,,,,,,,,
376666,001,2022-11-13_17h30.32.794,Info_measure_main_exp,2022.2.2,Win32,60.33182504,,,,,,,,,,,,,,,,,,masks/mask_001.jpg,,,,,,,,,,,,,,,,,,,,,,,,,,,,,,,,,,,,,,,,,,,0,0,0,0,1,,,,,,,,,,,,,,,,,,,,,,,,,,,,,,,,,,,,,,,,,,,,,,
376666,001,2022-11-13_17h30.32.794,Info_measure_main_exp,2022.2.2,Win32,60.33182504,,,,,,,,,,,,,,,,,,masks/mask_005.jpg,,,,,,,,,,,,,,,,,,,,,,,,,,,,,,,,,,,,,,,,,,,0,1,1,4,1,,,,,,,,,,,,,,,,,,,,,,,,,,,,,,,,,,,,,,,,,,,,,,
376666,001,2022-11-13_17h30.32.794,Info_measure_main_exp,2022.2.2,Win32,60.33182504,,,,,,,,,,,,,,,,,,masks/mask_004.jpg,,,,,,,,,,,,,,,,,,,,,,,,,,,,,,,,,,,,,,,,,,,0,2,2,3,1,,,,,,,,,,,,,,,,,,,,,,,,,,,,,,,,,,,,,,,,,,,,,,
376666,001,2022-11-13_17h30.32.794,Info_measure_main_exp,2022.2.2,Win32,60.33182504,,,,,,,,,,,,,,,,,,masks/mask_003.jpg,,,,,,,,,,,,,,,,,,,,,,,,,,,,,,,,,,,,,,,,,,,0,3,3,2,1,,,,,,,,,,,,,,,,,,,,,,,,,,,,,,,,,,,,,,,,,,,,,,
376666,001,2022-11-13_17h30.32.794,Info_measure_main_exp,2022.2.2,Win32,60.33182504,,,,,,,,,,,,,,,,,,masks/mask_002.jpg,,,,,,,,,,,,,,,,,,,,,,,,,,,,,,,,,,,,,,,,,,,0,4,4,1,1,,,,,,,,,,,,,,,,,,,,,,,,,,,,,,,,,,,,,,,,,,,,,,
376666,001,2022-11-13_17h30.32.794,Info_measure_main_exp,2022.2.2,Win32,60.33182504,,,,,,,,,,,,,,,,,,masks/mask_004.jpg,,,,,,,,,,,,,,,,,,,,,,,,,,,,,,,,,,,,,,,,,,,,,,,,0,0,0,3,1,,,,,,,,,,,,,,,,,,,,,,,,,,,,,,,,,,,,,,,,,
376666,001,2022-11-13_17h30.32.794,Info_measure_main_exp,2022.2.2,Win32,60.33182504,,,,,,,,,,,,,,,,,,masks/mask_002.jpg,,,,,,,,,,,,,,,,,,,,,,,,,,,,,,,,,,,,,,,,,,,,,,,,0,1,1,1,1,,,,,,,,,,,,,,,,,,,,,,,,,,,,,,,,,,,,,,,,,
376666,001,2022-11-13_17h30.32.794,Info_measure_main_exp,2022.2.2,Win32,60.33182504,,,,,,,,,,,,,,,,,,masks/mask_005.jpg,,,,,,,,,,,,,,,,,,,,,,,,,,,,,,,,,,,,,,,,,,,,,,,,0,2,2,4,1,,,,,,,,,,,,,,,,,,,,,,,,,,,,,,,,,,,,,,,,,
376666,001,2022-11-13_17h30.32.794,Info_measure_main_exp,2022.2.2,Win32,60.33182504,,,,,,,,,,,,,,,,,,masks/mask_001.jpg,,,,,,,,,,,,,,,,,,,,,,,,,,,,,,,,,,,,,,,,,,,,,,,,0,3,3,0,1,,,,,,,,,,,,,,,,,,,,,,,,,,,,,,,,,,,,,,,,,
376666,001,2022-11-13_17h30.32.794,Info_measure_main_exp,2022.2.2,Win32,60.33182504,,,,,,,,,,,,,,,,,,masks/mask_003.jpg,,,,,,,,,,,,,,,,,,,,,,,,,,,,,,,,,,,,,,,,,,,,,,,,0,4,4,2,1,,,,,,,,,,,,,,,,,,,,,,,,,,,,,,,,,,,,,,,,,
376666,001,2022-11-13_17h30.32.794,Info_measure_main_exp,2022.2.2,Win32,60.33182504,,,,,,,,,,,,,,,,,,,,,,,,,,,,,,7,3.0284,1,,,,,,,,,,,,0,131,5,5,1974,2298,absent_patch/patch0001974.jpg,absent_patch/patch0002298.jpg,,,,,,,,,,,,,,,,,,,,0.020833333,0.079427083,1,0,0,response1disk,5,-0.00390625,0,1,0,0,center_square,0,4,4,6,1,,,,,,,,,,,,,,,,,,,,,,,
376666,001,2022-11-13_17h30.32.794,Info_measure_main_exp,2022.2.2,Win32,60.33182504,,,,,,,,,,,,,,,,,,masks/mask_004.jpg,,,,,,,,,,,,,,,,,,,,,,,,,,,,,,,,,,,,,,,,,,,0,0,0,3,1,,,,,,,,,,,,,,,,,,,,,,,,,,,,,,,,,,,,,,,,,,,,,,
376666,001,2022-11-13_17h30.32.794,Info_measure_main_exp,2022.2.2,Win32,60.33182504,,,,,,,,,,,,,,,,,,masks/mask_003.jpg,,,,,,,,,,,,,,,,,,,,,,,,,,,,,,,,,,,,,,,,,,,0,1,1,2,1,,,,,,,,,,,,,,,,,,,,,,,,,,,,,,,,,,,,,,,,,,,,,,
376666,001,2022-11-13_17h30.32.794,Info_measure_main_exp,2022.2.2,Win32,60.33182504,,,,,,,,,,,,,,,,,,masks/mask_001.jpg,,,,,,,,,,,,,,,,,,,,,,,,,,,,,,,,,,,,,,,,,,,0,2,2,0,1,,,,,,,,,,,,,,,,,,,,,,,,,,,,,,,,,,,,,,,,,,,,,,
376666,001,2022-11-13_17h30.32.794,Info_measure_main_exp,2022.2.2,Win32,60.33182504,,,,,,,,,,,,,,,,,,masks/mask_005.jpg,,,,,,,,,,,,,,,,,,,,,,,,,,,,,,,,,,,,,,,,,,,0,3,3,4,1,,,,,,,,,,,,,,,,,,,,,,,,,,,,,,,,,,,,,,,,,,,,,,
376666,001,2022-11-13_17h30.32.794,Info_measure_main_exp,2022.2.2,Win32,60.33182504,,,,,,,,,,,,,,,,,,masks/mask_002.jpg,,,,,,,,,,,,,,,,,,,,,,,,,,,,,,,,,,,,,,,,,,,0,4,4,1,1,,,,,,,,,,,,,,,,,,,,,,,,,,,,,,,,,,,,,,,,,,,,,,
376666,001,2022-11-13_17h30.32.794,Info_measure_main_exp,2022.2.2,Win32,60.33182504,,,,,,,,,,,,,,,,,,masks/mask_004.jpg,,,,,,,,,,,,,,,,,,,,,,,,,,,,,,,,,,,,,,,,,,,,,,,,0,0,0,3,1,,,,,,,,,,,,,,,,,,,,,,,,,,,,,,,,,,,,,,,,,
376666,001,2022-11-13_17h30.32.794,Info_measure_main_exp,2022.2.2,Win32,60.33182504,,,,,,,,,,,,,,,,,,masks/mask_002.jpg,,,,,,,,,,,,,,,,,,,,,,,,,,,,,,,,,,,,,,,,,,,,,,,,0,1,1,1,1,,,,,,,,,,,,,,,,,,,,,,,,,,,,,,,,,,,,,,,,,
376666,001,2022-11-13_17h30.32.794,Info_measure_main_exp,2022.2.2,Win32,60.33182504,,,,,,,,,,,,,,,,,,masks/mask_001.jpg,,,,,,,,,,,,,,,,,,,,,,,,,,,,,,,,,,,,,,,,,,,,,,,,0,2,2,0,1,,,,,,,,,,,,,,,,,,,,,,,,,,,,,,,,,,,,,,,,,
376666,001,2022-11-13_17h30.32.794,Info_measure_main_exp,2022.2.2,Win32,60.33182504,,,,,,,,,,,,,,,,,,masks/mask_003.jpg,,,,,,,,,,,,,,,,,,,,,,,,,,,,,,,,,,,,,,,,,,,,,,,,0,3,3,2,1,,,,,,,,,,,,,,,,,,,,,,,,,,,,,,,,,,,,,,,,,
376666,001,2022-11-13_17h30.32.794,Info_measure_main_exp,2022.2.2,Win32,60.33182504,,,,,,,,,,,,,,,,,,masks/mask_005.jpg,,,,,,,,,,,,,,,,,,,,,,,,,,,,,,,,,,,,,,,,,,,,,,,,0,4,4,4,1,,,,,,,,,,,,,,,,,,,,,,,,,,,,,,,,,,,,,,,,,
376666,001,2022-11-13_17h30.32.794,Info_measure_main_exp,2022.2.2,Win32,60.33182504,,,,,,,,,,,,,,,,,,,,,,,,,,,,,,0,2.0887,1,,,,,,,,,,,,0,131,5,5,2298,2190,absent_patch/patch0002298.jpg,absent_patch/patch0002190.jpg,,,,,,,,,,,,,,,,,,,,-0.033854167,0.080729167,1,0,0,response7disk,6,0.002604167,-0.002604167,1,0,0,center_square,0,5,5,20,1,,,,,,,,,,,,,,,,,,,,,,,
376666,001,2022-11-13_17h30.32.794,Info_measure_main_exp,2022.2.2,Win32,60.33182504,,,,,,,,,,,,,,,,,,masks/mask_003.jpg,,,,,,,,,,,,,,,,,,,,,,,,,,,,,,,,,,,,,,,,,,,0,0,0,2,1,,,,,,,,,,,,,,,,,,,,,,,,,,,,,,,,,,,,,,,,,,,,,,
376666,001,2022-11-13_17h30.32.794,Info_measure_main_exp,2022.2.2,Win32,60.33182504,,,,,,,,,,,,,,,,,,masks/mask_002.jpg,,,,,,,,,,,,,,,,,,,,,,,,,,,,,,,,,,,,,,,,,,,0,1,1,1,1,,,,,,,,,,,,,,,,,,,,,,,,,,,,,,,,,,,,,,,,,,,,,,
376666,001,2022-11-13_17h30.32.794,Info_measure_main_exp,2022.2.2,Win32,60.33182504,,,,,,,,,,,,,,,,,,masks/mask_001.jpg,,,,,,,,,,,,,,,,,,,,,,,,,,,,,,,,,,,,,,,,,,,0,2,2,0,1,,,,,,,,,,,,,,,,,,,,,,,,,,,,,,,,,,,,,,,,,,,,,,
376666,001,2022-11-13_17h30.32.794,Info_measure_main_exp,2022.2.2,Win32,60.33182504,,,,,,,,,,,,,,,,,,masks/mask_004.jpg,,,,,,,,,,,,,,,,,,,,,,,,,,,,,,,,,,,,,,,,,,,0,3,3,3,1,,,,,,,,,,,,,,,,,,,,,,,,,,,,,,,,,,,,,,,,,,,,,,
376666,001,2022-11-13_17h30.32.794,Info_measure_main_exp,2022.2.2,Win32,60.33182504,,,,,,,,,,,,,,,,,,masks/mask_005.jpg,,,,,,,,,,,,,,,,,,,,,,,,,,,,,,,,,,,,,,,,,,,0,4,4,4,1,,,,,,,,,,,,,,,,,,,,,,,,,,,,,,,,,,,,,,,,,,,,,,
376666,001,2022-11-13_17h30.32.794,Info_measure_main_exp,2022.2.2,Win32,60.33182504,,,,,,,,,,,,,,,,,,masks/mask_003.jpg,,,,,,,,,,,,,,,,,,,,,,,,,,,,,,,,,,,,,,,,,,,,,,,,0,0,0,2,1,,,,,,,,,,,,,,,,,,,,,,,,,,,,,,,,,,,,,,,,,
376666,001,2022-11-13_17h30.32.794,Info_measure_main_exp,2022.2.2,Win32,60.33182504,,,,,,,,,,,,,,,,,,masks/mask_001.jpg,,,,,,,,,,,,,,,,,,,,,,,,,,,,,,,,,,,,,,,,,,,,,,,,0,1,1,0,1,,,,,,,,,,,,,,,,,,,,,,,,,,,,,,,,,,,,,,,,,
376666,001,2022-11-13_17h30.32.794,Info_measure_main_exp,2022.2.2,Win32,60.33182504,,,,,,,,,,,,,,,,,,masks/mask_005.jpg,,,,,,,,,,,,,,,,,,,,,,,,,,,,,,,,,,,,,,,,,,,,,,,,0,2,2,4,1,,,,,,,,,,,,,,,,,,,,,,,,,,,,,,,,,,,,,,,,,
376666,001,2022-11-13_17h30.32.794,Info_measure_main_exp,2022.2.2,Win32,60.33182504,,,,,,,,,,,,,,,,,,masks/mask_004.jpg,,,,,,,,,,,,,,,,,,,,,,,,,,,,,,,,,,,,,,,,,,,,,,,,0,3,3,3,1,,,,,,,,,,,,,,,,,,,,,,,,,,,,,,,,,,,,,,,,,
376666,001,2022-11-13_17h30.32.794,Info_measure_main_exp,2022.2.2,Win32,60.33182504,,,,,,,,,,,,,,,,,,masks/mask_002.jpg,,,,,,,,,,,,,,,,,,,,,,,,,,,,,,,,,,,,,,,,,,,,,,,,0,4,4,1,1,,,,,,,,,,,,,,,,,,,,,,,,,,,,,,,,,,,,,,,,,
376666,001,2022-11-13_17h30.32.794,Info_measure_main_exp,2022.2.2,Win32,60.33182504,,,,,,,,,,,,,,,,,,,,,,,,,,,,,,7,1.0194,1,,,,,,,,,,,,0,131,5,5,2154,2214,absent_patch/patch0002154.jpg,absent_patch/patch0002214.jpg,,,,,,,,,,,,,,,,,,,,0.03125,0.069010417,1,0,0,response1disk,7,0.00390625,0.006510417,1,0,0,center_square,0,6,6,67,1,,,,,,,,,,,,,,,,,,,,,,,
376666,001,2022-11-13_17h30.32.794,Info_measure_main_exp,2022.2.2,Win32,60.33182504,,,,,,,,,,,,,,,,,,masks/mask_004.jpg,,,,,,,,,,,,,,,,,,,,,,,,,,,,,,,,,,,,,,,,,,,0,0,0,3,1,,,,,,,,,,,,,,,,,,,,,,,,,,,,,,,,,,,,,,,,,,,,,,
376666,001,2022-11-13_17h30.32.794,Info_measure_main_exp,2022.2.2,Win32,60.33182504,,,,,,,,,,,,,,,,,,masks/mask_005.jpg,,,,,,,,,,,,,,,,,,,,,,,,,,,,,,,,,,,,,,,,,,,0,1,1,4,1,,,,,,,,,,,,,,,,,,,,,,,,,,,,,,,,,,,,,,,,,,,,,,
376666,001,2022-11-13_17h30.32.794,Info_measure_main_exp,2022.2.2,Win32,60.33182504,,,,,,,,,,,,,,,,,,masks/mask_002.jpg,,,,,,,,,,,,,,,,,,,,,,,,,,,,,,,,,,,,,,,,,,,0,2,2,1,1,,,,,,,,,,,,,,,,,,,,,,,,,,,,,,,,,,,,,,,,,,,,,,
376666,001,2022-11-13_17h30.32.794,Info_measure_main_exp,2022.2.2,Win32,60.33182504,,,,,,,,,,,,,,,,,,masks/mask_001.jpg,,,,,,,,,,,,,,,,,,,,,,,,,,,,,,,,,,,,,,,,,,,0,3,3,0,1,,,,,,,,,,,,,,,,,,,,,,,,,,,,,,,,,,,,,,,,,,,,,,
376666,001,2022-11-13_17h30.32.794,Info_measure_main_exp,2022.2.2,Win32,60.33182504,,,,,,,,,,,,,,,,,,masks/mask_003.jpg,,,,,,,,,,,,,,,,,,,,,,,,,,,,,,,,,,,,,,,,,,,0,4,4,2,1,,,,,,,,,,,,,,,,,,,,,,,,,,,,,,,,,,,,,,,,,,,,,,
376666,001,2022-11-13_17h30.32.794,Info_measure_main_exp,2022.2.2,Win32,60.33182504,,,,,,,,,,,,,,,,,,masks/mask_001.jpg,,,,,,,,,,,,,,,,,,,,,,,,,,,,,,,,,,,,,,,,,,,,,,,,0,0,0,0,1,,,,,,,,,,,,,,,,,,,,,,,,,,,,,,,,,,,,,,,,,
376666,001,2022-11-13_17h30.32.794,Info_measure_main_exp,2022.2.2,Win32,60.33182504,,,,,,,,,,,,,,,,,,masks/mask_003.jpg,,,,,,,,,,,,,,,,,,,,,,,,,,,,,,,,,,,,,,,,,,,,,,,,0,1,1,2,1,,,,,,,,,,,,,,,,,,,,,,,,,,,,,,,,,,,,,,,,,
376666,001,2022-11-13_17h30.32.794,Info_measure_main_exp,2022.2.2,Win32,60.33182504,,,,,,,,,,,,,,,,,,masks/mask_002.jpg,,,,,,,,,,,,,,,,,,,,,,,,,,,,,,,,,,,,,,,,,,,,,,,,0,2,2,1,1,,,,,,,,,,,,,,,,,,,,,,,,,,,,,,,,,,,,,,,,,
376666,001,2022-11-13_17h30.32.794,Info_measure_main_exp,2022.2.2,Win32,60.33182504,,,,,,,,,,,,,,,,,,masks/mask_005.jpg,,,,,,,,,,,,,,,,,,,,,,,,,,,,,,,,,,,,,,,,,,,,,,,,0,3,3,4,1,,,,,,,,,,,,,,,,,,,,,,,,,,,,,,,,,,,,,,,,,
376666,001,2022-11-13_17h30.32.794,Info_measure_main_exp,2022.2.2,Win32,60.33182504,,,,,,,,,,,,,,,,,,masks/mask_004.jpg,,,,,,,,,,,,,,,,,,,,,,,,,,,,,,,,,,,,,,,,,,,,,,,,0,4,4,3,1,,,,,,,,,,,,,,,,,,,,,,,,,,,,,,,,,,,,,,,,,
376666,001,2022-11-13_17h30.32.794,Info_measure_main_exp,2022.2.2,Win32,60.33182504,,,,,,,,,,,,,,,,,,,,,,,,,,,,,,4,2.4658,1,,,,,,,,,,,,0,131,5,5,1974,2142,absent_patch/patch0001974.jpg,absent_patch/patch0002142.jpg,,,,,,,,,,,,,,,,,,,,0.018229167,-0.067708333,1,0,0,response3disk,8,-0.001302083,0.00390625,1,0,0,center_square,0,7,7,38,1,,,,,,,,,,,,,,,,,,,,,,,
376666,001,2022-11-13_17h30.32.794,Info_measure_main_exp,2022.2.2,Win32,60.33182504,,,,,,,,,,,,,,,,,,masks/mask_004.jpg,,,,,,,,,,,,,,,,,,,,,,,,,,,,,,,,,,,,,,,,,,,0,0,0,3,1,,,,,,,,,,,,,,,,,,,,,,,,,,,,,,,,,,,,,,,,,,,,,,
376666,001,2022-11-13_17h30.32.794,Info_measure_main_exp,2022.2.2,Win32,60.33182504,,,,,,,,,,,,,,,,,,masks/mask_005.jpg,,,,,,,,,,,,,,,,,,,,,,,,,,,,,,,,,,,,,,,,,,,0,1,1,4,1,,,,,,,,,,,,,,,,,,,,,,,,,,,,,,,,,,,,,,,,,,,,,,
376666,001,2022-11-13_17h30.32.794,Info_measure_main_exp,2022.2.2,Win32,60.33182504,,,,,,,,,,,,,,,,,,masks/mask_002.jpg,,,,,,,,,,,,,,,,,,,,,,,,,,,,,,,,,,,,,,,,,,,0,2,2,1,1,,,,,,,,,,,,,,,,,,,,,,,,,,,,,,,,,,,,,,,,,,,,,,
376666,001,2022-11-13_17h30.32.794,Info_measure_main_exp,2022.2.2,Win32,60.33182504,,,,,,,,,,,,,,,,,,masks/mask_003.jpg,,,,,,,,,,,,,,,,,,,,,,,,,,,,,,,,,,,,,,,,,,,0,3,3,2,1,,,,,,,,,,,,,,,,,,,,,,,,,,,,,,,,,,,,,,,,,,,,,,
376666,001,2022-11-13_17h30.32.794,Info_measure_main_exp,2022.2.2,Win32,60.33182504,,,,,,,,,,,,,,,,,,masks/mask_001.jpg,,,,,,,,,,,,,,,,,,,,,,,,,,,,,,,,,,,,,,,,,,,0,4,4,0,1,,,,,,,,,,,,,,,,,,,,,,,,,,,,,,,,,,,,,,,,,,,,,,
376666,001,2022-11-13_17h30.32.794,Info_measure_main_exp,2022.2.2,Win32,60.33182504,,,,,,,,,,,,,,,,,,masks/mask_004.jpg,,,,,,,,,,,,,,,,,,,,,,,,,,,,,,,,,,,,,,,,,,,,,,,,0,0,0,3,1,,,,,,,,,,,,,,,,,,,,,,,,,,,,,,,,,,,,,,,,,
376666,001,2022-11-13_17h30.32.794,Info_measure_main_exp,2022.2.2,Win32,60.33182504,,,,,,,,,,,,,,,,,,masks/mask_002.jpg,,,,,,,,,,,,,,,,,,,,,,,,,,,,,,,,,,,,,,,,,,,,,,,,0,1,1,1,1,,,,,,,,,,,,,,,,,,,,,,,,,,,,,,,,,,,,,,,,,
376666,001,2022-11-13_17h30.32.794,Info_measure_main_exp,2022.2.2,Win32,60.33182504,,,,,,,,,,,,,,,,,,masks/mask_005.jpg,,,,,,,,,,,,,,,,,,,,,,,,,,,,,,,,,,,,,,,,,,,,,,,,0,2,2,4,1,,,,,,,,,,,,,,,,,,,,,,,,,,,,,,,,,,,,,,,,,
376666,001,2022-11-13_17h30.32.794,Info_measure_main_exp,2022.2.2,Win32,60.33182504,,,,,,,,,,,,,,,,,,masks/mask_001.jpg,,,,,,,,,,,,,,,,,,,,,,,,,,,,,,,,,,,,,,,,,,,,,,,,0,3,3,0,1,,,,,,,,,,,,,,,,,,,,,,,,,,,,,,,,,,,,,,,,,
376666,001,2022-11-13_17h30.32.794,Info_measure_main_exp,2022.2.2,Win32,60.33182504,,,,,,,,,,,,,,,,,,masks/mask_003.jpg,,,,,,,,,,,,,,,,,,,,,,,,,,,,,,,,,,,,,,,,,,,,,,,,0,4,4,2,1,,,,,,,,,,,,,,,,,,,,,,,,,,,,,,,,,,,,,,,,,
376666,001,2022-11-13_17h30.32.794,Info_measure_main_exp,2022.2.2,Win32,60.33182504,,,,,,,,,,,,,,,,,,,,,,,,,,,,,,6,2.3877,1,,,,,,,,,,,,0,131,5,5,2082,2166,absent_patch/patch0002082.jpg,absent_patch/patch0002166.jpg,,,,,,,,,,,,,,,,,,,,0.048177083,0.03125,1,0,0,response1disk,9,-0.01171875,-0.001302083,1,0,0,center_square,0,8,8,43,1,,,,,,,,,,,,,,,,,,,,,,,
376666,001,2022-11-13_17h30.32.794,Info_measure_main_exp,2022.2.2,Win32,60.33182504,,,,,,,,,,,,,,,,,,masks/mask_002.jpg,,,,,,,,,,,,,,,,,,,,,,,,,,,,,,,,,,,,,,,,,,,0,0,0,1,1,,,,,,,,,,,,,,,,,,,,,,,,,,,,,,,,,,,,,,,,,,,,,,
376666,001,2022-11-13_17h30.32.794,Info_measure_main_exp,2022.2.2,Win32,60.33182504,,,,,,,,,,,,,,,,,,masks/mask_003.jpg,,,,,,,,,,,,,,,,,,,,,,,,,,,,,,,,,,,,,,,,,,,0,1,1,2,1,,,,,,,,,,,,,,,,,,,,,,,,,,,,,,,,,,,,,,,,,,,,,,
376666,001,2022-11-13_17h30.32.794,Info_measure_main_exp,2022.2.2,Win32,60.33182504,,,,,,,,,,,,,,,,,,masks/mask_004.jpg,,,,,,,,,,,,,,,,,,,,,,,,,,,,,,,,,,,,,,,,,,,0,2,2,3,1,,,,,,,,,,,,,,,,,,,,,,,,,,,,,,,,,,,,,,,,,,,,,,
376666,001,2022-11-13_17h30.32.794,Info_measure_main_exp,2022.2.2,Win32,60.33182504,,,,,,,,,,,,,,,,,,masks/mask_005.jpg,,,,,,,,,,,,,,,,,,,,,,,,,,,,,,,,,,,,,,,,,,,0,3,3,4,1,,,,,,,,,,,,,,,,,,,,,,,,,,,,,,,,,,,,,,,,,,,,,,
376666,001,2022-11-13_17h30.32.794,Info_measure_main_exp,2022.2.2,Win32,60.33182504,,,,,,,,,,,,,,,,,,masks/mask_001.jpg,,,,,,,,,,,,,,,,,,,,,,,,,,,,,,,,,,,,,,,,,,,0,4,4,0,1,,,,,,,,,,,,,,,,,,,,,,,,,,,,,,,,,,,,,,,,,,,,,,
376666,001,2022-11-13_17h30.32.794,Info_measure_main_exp,2022.2.2,Win32,60.33182504,,,,,,,,,,,,,,,,,,masks/mask_002.jpg,,,,,,,,,,,,,,,,,,,,,,,,,,,,,,,,,,,,,,,,,,,,,,,,0,0,0,1,1,,,,,,,,,,,,,,,,,,,,,,,,,,,,,,,,,,,,,,,,,
376666,001,2022-11-13_17h30.32.794,Info_measure_main_exp,2022.2.2,Win32,60.33182504,,,,,,,,,,,,,,,,,,masks/mask_004.jpg,,,,,,,,,,,,,,,,,,,,,,,,,,,,,,,,,,,,,,,,,,,,,,,,0,1,1,3,1,,,,,,,,,,,,,,,,,,,,,,,,,,,,,,,,,,,,,,,,,
376666,001,2022-11-13_17h30.32.794,Info_measure_main_exp,2022.2.2,Win32,60.33182504,,,,,,,,,,,,,,,,,,masks/mask_003.jpg,,,,,,,,,,,,,,,,,,,,,,,,,,,,,,,,,,,,,,,,,,,,,,,,0,2,2,2,1,,,,,,,,,,,,,,,,,,,,,,,,,,,,,,,,,,,,,,,,,
376666,001,2022-11-13_17h30.32.794,Info_measure_main_exp,2022.2.2,Win32,60.33182504,,,,,,,,,,,,,,,,,,masks/mask_005.jpg,,,,,,,,,,,,,,,,,,,,,,,,,,,,,,,,,,,,,,,,,,,,,,,,0,3,3,4,1,,,,,,,,,,,,,,,,,,,,,,,,,,,,,,,,,,,,,,,,,
376666,001,2022-11-13_17h30.32.794,Info_measure_main_exp,2022.2.2,Win32,60.33182504,,,,,,,,,,,,,,,,,,masks/mask_001.jpg,,,,,,,,,,,,,,,,,,,,,,,,,,,,,,,,,,,,,,,,,,,,,,,,0,4,4,0,1,,,,,,,,,,,,,,,,,,,,,,,,,,,,,,,,,,,,,,,,,
376666,001,2022-11-13_17h30.32.794,Info_measure_main_exp,2022.2.2,Win32,60.33182504,,,,,,,,,,,,,,,,,,,,,,,,,,,,,,4,1.7394,1,,,,,,,,,,,,1,131,5,5,2238,1,absent_patch/patch0002238.jpg,present_patch/cong_131_5_a.jpg,,,,,,,,,,,,,,,,,,,,0.0078125,-0.0390625,1,0,0,response3disk,10,-0.001302083,-0.010416667,1,0,0,center_square,0,9,9,104,1,,,,,,,,,,,,,,,,,,,,,,,
376666,001,2022-11-13_17h30.32.794,Info_measure_main_exp,2022.2.2,Win32,60.33182504,,,,,,,,,,,,,,,,,,masks/mask_001.jpg,,,,,,,,,,,,,,,,,,,,,,,,,,,,,,,,,,,,,,,,,,,0,0,0,0,1,,,,,,,,,,,,,,,,,,,,,,,,,,,,,,,,,,,,,,,,,,,,,,
376666,001,2022-11-13_17h30.32.794,Info_measure_main_exp,2022.2.2,Win32,60.33182504,,,,,,,,,,,,,,,,,,masks/mask_003.jpg,,,,,,,,,,,,,,,,,,,,,,,,,,,,,,,,,,,,,,,,,,,0,1,1,2,1,,,,,,,,,,,,,,,,,,,,,,,,,,,,,,,,,,,,,,,,,,,,,,
376666,001,2022-11-13_17h30.32.794,Info_measure_main_exp,2022.2.2,Win32,60.33182504,,,,,,,,,,,,,,,,,,masks/mask_002.jpg,,,,,,,,,,,,,,,,,,,,,,,,,,,,,,,,,,,,,,,,,,,0,2,2,1,1,,,,,,,,,,,,,,,,,,,,,,,,,,,,,,,,,,,,,,,,,,,,,,
376666,001,2022-11-13_17h30.32.794,Info_measure_main_exp,2022.2.2,Win32,60.33182504,,,,,,,,,,,,,,,,,,masks/mask_005.jpg,,,,,,,,,,,,,,,,,,,,,,,,,,,,,,,,,,,,,,,,,,,0,3,3,4,1,,,,,,,,,,,,,,,,,,,,,,,,,,,,,,,,,,,,,,,,,,,,,,
376666,001,2022-11-13_17h30.32.794,Info_measure_main_exp,2022.2.2,Win32,60.33182504,,,,,,,,,,,,,,,,,,masks/mask_004.jpg,,,,,,,,,,,,,,,,,,,,,,,,,,,,,,,,,,,,,,,,,,,0,4,4,3,1,,,,,,,,,,,,,,,,,,,,,,,,,,,,,,,,,,,,,,,,,,,,,,
376666,001,2022-11-13_17h30.32.794,Info_measure_main_exp,2022.2.2,Win32,60.33182504,,,,,,,,,,,,,,,,,,masks/mask_001.jpg,,,,,,,,,,,,,,,,,,,,,,,,,,,,,,,,,,,,,,,,,,,,,,,,0,0,0,0,1,,,,,,,,,,,,,,,,,,,,,,,,,,,,,,,,,,,,,,,,,
376666,001,2022-11-13_17h30.32.794,Info_measure_main_exp,2022.2.2,Win32,60.33182504,,,,,,,,,,,,,,,,,,masks/mask_002.jpg,,,,,,,,,,,,,,,,,,,,,,,,,,,,,,,,,,,,,,,,,,,,,,,,0,1,1,1,1,,,,,,,,,,,,,,,,,,,,,,,,,,,,,,,,,,,,,,,,,
376666,001,2022-11-13_17h30.32.794,Info_measure_main_exp,2022.2.2,Win32,60.33182504,,,,,,,,,,,,,,,,,,masks/mask_005.jpg,,,,,,,,,,,,,,,,,,,,,,,,,,,,,,,,,,,,,,,,,,,,,,,,0,2,2,4,1,,,,,,,,,,,,,,,,,,,,,,,,,,,,,,,,,,,,,,,,,
376666,001,2022-11-13_17h30.32.794,Info_measure_main_exp,2022.2.2,Win32,60.33182504,,,,,,,,,,,,,,,,,,masks/mask_003.jpg,,,,,,,,,,,,,,,,,,,,,,,,,,,,,,,,,,,,,,,,,,,,,,,,0,3,3,2,1,,,,,,,,,,,,,,,,,,,,,,,,,,,,,,,,,,,,,,,,,
376666,001,2022-11-13_17h30.32.794,Info_measure_main_exp,2022.2.2,Win32,60.33182504,,,,,,,,,,,,,,,,,,masks/mask_004.jpg,,,,,,,,,,,,,,,,,,,,,,,,,,,,,,,,,,,,,,,,,,,,,,,,0,4,4,3,1,,,,,,,,,,,,,,,,,,,,,,,,,,,,,,,,,,,,,,,,,
376666,001,2022-11-13_17h30.32.794,Info_measure_main_exp,2022.2.2,Win32,60.33182504,,,,,,,,,,,,,,,,,,,,,,,,,,,,,,5,2.4622,1,,,,,,,,,,,,0,131,5,5,1974,2178,absent_patch/patch0001974.jpg,absent_patch/patch0002178.jpg,,,,,,,,,,,,,,,,,,,,0.041666667,-0.029947917,1,0,0,response3disk,11,-0.009114583,0,1,0,0,center_square,0,10,10,44,1,,,,,,,,,,,,,,,,,,,,,,,
376666,001,2022-11-13_17h30.32.794,Info_measure_main_exp,2022.2.2,Win32,60.33182504,,,,,,,,,,,,,,,,,,masks/mask_005.jpg,,,,,,,,,,,,,,,,,,,,,,,,,,,,,,,,,,,,,,,,,,,0,0,0,4,1,,,,,,,,,,,,,,,,,,,,,,,,,,,,,,,,,,,,,,,,,,,,,,
376666,001,2022-11-13_17h30.32.794,Info_measure_main_exp,2022.2.2,Win32,60.33182504,,,,,,,,,,,,,,,,,,masks/mask_002.jpg,,,,,,,,,,,,,,,,,,,,,,,,,,,,,,,,,,,,,,,,,,,0,1,1,1,1,,,,,,,,,,,,,,,,,,,,,,,,,,,,,,,,,,,,,,,,,,,,,,
376666,001,2022-11-13_17h30.32.794,Info_measure_main_exp,2022.2.2,Win32,60.33182504,,,,,,,,,,,,,,,,,,masks/mask_001.jpg,,,,,,,,,,,,,,,,,,,,,,,,,,,,,,,,,,,,,,,,,,,0,2,2,0,1,,,,,,,,,,,,,,,,,,,,,,,,,,,,,,,,,,,,,,,,,,,,,,
376666,001,2022-11-13_17h30.32.794,Info_measure_main_exp,2022.2.2,Win32,60.33182504,,,,,,,,,,,,,,,,,,masks/mask_004.jpg,,,,,,,,,,,,,,,,,,,,,,,,,,,,,,,,,,,,,,,,,,,0,3,3,3,1,,,,,,,,,,,,,,,,,,,,,,,,,,,,,,,,,,,,,,,,,,,,,,
376666,001,2022-11-13_17h30.32.794,Info_measure_main_exp,2022.2.2,Win32,60.33182504,,,,,,,,,,,,,,,,,,masks/mask_003.jpg,,,,,,,,,,,,,,,,,,,,,,,,,,,,,,,,,,,,,,,,,,,0,4,4,2,1,,,,,,,,,,,,,,,,,,,,,,,,,,,,,,,,,,,,,,,,,,,,,,
376666,001,2022-11-13_17h30.32.794,Info_measure_main_exp,2022.2.2,Win32,60.33182504,,,,,,,,,,,,,,,,,,masks/mask_005.jpg,,,,,,,,,,,,,,,,,,,,,,,,,,,,,,,,,,,,,,,,,,,,,,,,0,0,0,4,1,,,,,,,,,,,,,,,,,,,,,,,,,,,,,,,,,,,,,,,,,
376666,001,2022-11-13_17h30.32.794,Info_measure_main_exp,2022.2.2,Win32,60.33182504,,,,,,,,,,,,,,,,,,masks/mask_001.jpg,,,,,,,,,,,,,,,,,,,,,,,,,,,,,,,,,,,,,,,,,,,,,,,,0,1,1,0,1,,,,,,,,,,,,,,,,,,,,,,,,,,,,,,,,,,,,,,,,,
376666,001,2022-11-13_17h30.32.794,Info_measure_main_exp,2022.2.2,Win32,60.33182504,,,,,,,,,,,,,,,,,,masks/mask_004.jpg,,,,,,,,,,,,,,,,,,,,,,,,,,,,,,,,,,,,,,,,,,,,,,,,0,2,2,3,1,,,,,,,,,,,,,,,,,,,,,,,,,,,,,,,,,,,,,,,,,
376666,001,2022-11-13_17h30.32.794,Info_measure_main_exp,2022.2.2,Win32,60.33182504,,,,,,,,,,,,,,,,,,masks/mask_002.jpg,,,,,,,,,,,,,,,,,,,,,,,,,,,,,,,,,,,,,,,,,,,,,,,,0,3,3,1,1,,,,,,,,,,,,,,,,,,,,,,,,,,,,,,,,,,,,,,,,,
376666,001,2022-11-13_17h30.32.794,Info_measure_main_exp,2022.2.2,Win32,60.33182504,,,,,,,,,,,,,,,,,,masks/mask_003.jpg,,,,,,,,,,,,,,,,,,,,,,,,,,,,,,,,,,,,,,,,,,,,,,,,0,4,4,2,1,,,,,,,,,,,,,,,,,,,,,,,,,,,,,,,,,,,,,,,,,
376666,001,2022-11-13_17h30.32.794,Info_measure_main_exp,2022.2.2,Win32,60.33182504,,,,,,,,,,,,,,,,,,,,,,,,,,,,,,7,1.1335,1,,,,,,,,,,,,0,131,5,5,2190,2214,absent_patch/patch0002190.jpg,absent_patch/patch0002214.jpg,,,,,,,,,,,,,,,,,,,,0.016927083,0.08203125,1,0,0,response1disk,12,0.00390625,-0.005208333,1,0,0,center_square,0,11,11,35,1,,,,,,,,,,,,,,,,,,,,,,,
376666,001,2022-11-13_17h30.32.794,Info_measure_main_exp,2022.2.2,Win32,60.33182504,,,,,,,,,,,,,,,,,,masks/mask_004.jpg,,,,,,,,,,,,,,,,,,,,,,,,,,,,,,,,,,,,,,,,,,,0,0,0,3,1,,,,,,,,,,,,,,,,,,,,,,,,,,,,,,,,,,,,,,,,,,,,,,
376666,001,2022-11-13_17h30.32.794,Info_measure_main_exp,2022.2.2,Win32,60.33182504,,,,,,,,,,,,,,,,,,masks/mask_002.jpg,,,,,,,,,,,,,,,,,,,,,,,,,,,,,,,,,,,,,,,,,,,0,1,1,1,1,,,,,,,,,,,,,,,,,,,,,,,,,,,,,,,,,,,,,,,,,,,,,,
376666,001,2022-11-13_17h30.32.794,Info_measure_main_exp,2022.2.2,Win32,60.33182504,,,,,,,,,,,,,,,,,,masks/mask_005.jpg,,,,,,,,,,,,,,,,,,,,,,,,,,,,,,,,,,,,,,,,,,,0,2,2,4,1,,,,,,,,,,,,,,,,,,,,,,,,,,,,,,,,,,,,,,,,,,,,,,
376666,001,2022-11-13_17h30.32.794,Info_measure_main_exp,2022.2.2,Win32,60.33182504,,,,,,,,,,,,,,,,,,masks/mask_003.jpg,,,,,,,,,,,,,,,,,,,,,,,,,,,,,,,,,,,,,,,,,,,0,3,3,2,1,,,,,,,,,,,,,,,,,,,,,,,,,,,,,,,,,,,,,,,,,,,,,,
376666,001,2022-11-13_17h30.32.794,Info_measure_main_exp,2022.2.2,Win32,60.33182504,,,,,,,,,,,,,,,,,,masks/mask_001.jpg,,,,,,,,,,,,,,,,,,,,,,,,,,,,,,,,,,,,,,,,,,,0,4,4,0,1,,,,,,,,,,,,,,,,,,,,,,,,,,,,,,,,,,,,,,,,,,,,,,
376666,001,2022-11-13_17h30.32.794,Info_measure_main_exp,2022.2.2,Win32,60.33182504,,,,,,,,,,,,,,,,,,masks/mask_004.jpg,,,,,,,,,,,,,,,,,,,,,,,,,,,,,,,,,,,,,,,,,,,,,,,,0,0,0,3,1,,,,,,,,,,,,,,,,,,,,,,,,,,,,,,,,,,,,,,,,,
376666,001,2022-11-13_17h30.32.794,Info_measure_main_exp,2022.2.2,Win32,60.33182504,,,,,,,,,,,,,,,,,,masks/mask_001.jpg,,,,,,,,,,,,,,,,,,,,,,,,,,,,,,,,,,,,,,,,,,,,,,,,0,1,1,0,1,,,,,,,,,,,,,,,,,,,,,,,,,,,,,,,,,,,,,,,,,
376666,001,2022-11-13_17h30.32.794,Info_measure_main_exp,2022.2.2,Win32,60.33182504,,,,,,,,,,,,,,,,,,masks/mask_002.jpg,,,,,,,,,,,,,,,,,,,,,,,,,,,,,,,,,,,,,,,,,,,,,,,,0,2,2,1,1,,,,,,,,,,,,,,,,,,,,,,,,,,,,,,,,,,,,,,,,,
376666,001,2022-11-13_17h30.32.794,Info_measure_main_exp,2022.2.2,Win32,60.33182504,,,,,,,,,,,,,,,,,,masks/mask_003.jpg,,,,,,,,,,,,,,,,,,,,,,,,,,,,,,,,,,,,,,,,,,,,,,,,0,3,3,2,1,,,,,,,,,,,,,,,,,,,,,,,,,,,,,,,,,,,,,,,,,
376666,001,2022-11-13_17h30.32.794,Info_measure_main_exp,2022.2.2,Win32,60.33182504,,,,,,,,,,,,,,,,,,masks/mask_005.jpg,,,,,,,,,,,,,,,,,,,,,,,,,,,,,,,,,,,,,,,,,,,,,,,,0,4,4,4,1,,,,,,,,,,,,,,,,,,,,,,,,,,,,,,,,,,,,,,,,,
376666,001,2022-11-13_17h30.32.794,Info_measure_main_exp,2022.2.2,Win32,60.33182504,,,,,,,,,,,,,,,,,,,,,,,,,,,,,,7,1.9787,1,,,,,,,,,,,,1,131,5,5,1,2142,present_patch/cong_131_5_a.jpg,absent_patch/patch0002142.jpg,,,,,,,,,,,,,,,,,,,,0.009114583,0.065104167,1,0,0,response1disk,13,0.001302083,-0.00390625,1,0,0,center_square,0,12,12,80,1,,,,,,,,,,,,,,,,,,,,,,,
376666,001,2022-11-13_17h30.32.794,Info_measure_main_exp,2022.2.2,Win32,60.33182504,,,,,,,,,,,,,,,,,,masks/mask_004.jpg,,,,,,,,,,,,,,,,,,,,,,,,,,,,,,,,,,,,,,,,,,,0,0,0,3,1,,,,,,,,,,,,,,,,,,,,,,,,,,,,,,,,,,,,,,,,,,,,,,
376666,001,2022-11-13_17h30.32.794,Info_measure_main_exp,2022.2.2,Win32,60.33182504,,,,,,,,,,,,,,,,,,masks/mask_005.jpg,,,,,,,,,,,,,,,,,,,,,,,,,,,,,,,,,,,,,,,,,,,0,1,1,4,1,,,,,,,,,,,,,,,,,,,,,,,,,,,,,,,,,,,,,,,,,,,,,,
376666,001,2022-11-13_17h30.32.794,Info_measure_main_exp,2022.2.2,Win32,60.33182504,,,,,,,,,,,,,,,,,,masks/mask_001.jpg,,,,,,,,,,,,,,,,,,,,,,,,,,,,,,,,,,,,,,,,,,,0,2,2,0,1,,,,,,,,,,,,,,,,,,,,,,,,,,,,,,,,,,,,,,,,,,,,,,
376666,001,2022-11-13_17h30.32.794,Info_measure_main_exp,2022.2.2,Win32,60.33182504,,,,,,,,,,,,,,,,,,masks/mask_002.jpg,,,,,,,,,,,,,,,,,,,,,,,,,,,,,,,,,,,,,,,,,,,0,3,3,1,1,,,,,,,,,,,,,,,,,,,,,,,,,,,,,,,,,,,,,,,,,,,,,,
376666,001,2022-11-13_17h30.32.794,Info_measure_main_exp,2022.2.2,Win32,60.33182504,,,,,,,,,,,,,,,,,,masks/mask_003.jpg,,,,,,,,,,,,,,,,,,,,,,,,,,,,,,,,,,,,,,,,,,,0,4,4,2,1,,,,,,,,,,,,,,,,,,,,,,,,,,,,,,,,,,,,,,,,,,,,,,
376666,001,2022-11-13_17h30.32.794,Info_measure_main_exp,2022.2.2,Win32,60.33182504,,,,,,,,,,,,,,,,,,masks/mask_002.jpg,,,,,,,,,,,,,,,,,,,,,,,,,,,,,,,,,,,,,,,,,,,,,,,,0,0,0,1,1,,,,,,,,,,,,,,,,,,,,,,,,,,,,,,,,,,,,,,,,,
376666,001,2022-11-13_17h30.32.794,Info_measure_main_exp,2022.2.2,Win32,60.33182504,,,,,,,,,,,,,,,,,,masks/mask_004.jpg,,,,,,,,,,,,,,,,,,,,,,,,,,,,,,,,,,,,,,,,,,,,,,,,0,1,1,3,1,,,,,,,,,,,,,,,,,,,,,,,,,,,,,,,,,,,,,,,,,
376666,001,2022-11-13_17h30.32.794,Info_measure_main_exp,2022.2.2,Win32,60.33182504,,,,,,,,,,,,,,,,,,masks/mask_003.jpg,,,,,,,,,,,,,,,,,,,,,,,,,,,,,,,,,,,,,,,,,,,,,,,,0,2,2,2,1,,,,,,,,,,,,,,,,,,,,,,,,,,,,,,,,,,,,,,,,,
376666,001,2022-11-13_17h30.32.794,Info_measure_main_exp,2022.2.2,Win32,60.33182504,,,,,,,,,,,,,,,,,,masks/mask_005.jpg,,,,,,,,,,,,,,,,,,,,,,,,,,,,,,,,,,,,,,,,,,,,,,,,0,3,3,4,1,,,,,,,,,,,,,,,,,,,,,,,,,,,,,,,,,,,,,,,,,
376666,001,2022-11-13_17h30.32.794,Info_measure_main_exp,2022.2.2,Win32,60.33182504,,,,,,,,,,,,,,,,,,masks/mask_001.jpg,,,,,,,,,,,,,,,,,,,,,,,,,,,,,,,,,,,,,,,,,,,,,,,,0,4,4,0,1,,,,,,,,,,,,,,,,,,,,,,,,,,,,,,,,,,,,,,,,,
376666,001,2022-11-13_17h30.32.794,Info_measure_main_exp,2022.2.2,Win32,60.33182504,,,,,,,,,,,,,,,,,,,,,,,,,,,,,,7,1.4334,1,,,,,,,,,,,,0,131,5,5,2250,2238,absent_patch/patch0002250.jpg,absent_patch/patch0002238.jpg,,,,,,,,,,,,,,,,,,,,0.0234375,0.053385417,1,0,0,response1disk,14,-0.005208333,-0.001302083,1,0,0,center_square,0,13,13,110,1,,,,,,,,,,,,,,,,,,,,,,,
376666,001,2022-11-13_17h30.32.794,Info_measure_main_exp,2022.2.2,Win32,60.33182504,,,,,,,,,,,,,,,,,,masks/mask_002.jpg,,,,,,,,,,,,,,,,,,,,,,,,,,,,,,,,,,,,,,,,,,,0,0,0,1,1,,,,,,,,,,,,,,,,,,,,,,,,,,,,,,,,,,,,,,,,,,,,,,
376666,001,2022-11-13_17h30.32.794,Info_measure_main_exp,2022.2.2,Win32,60.33182504,,,,,,,,,,,,,,,,,,masks/mask_001.jpg,,,,,,,,,,,,,,,,,,,,,,,,,,,,,,,,,,,,,,,,,,,0,1,1,0,1,,,,,,,,,,,,,,,,,,,,,,,,,,,,,,,,,,,,,,,,,,,,,,
376666,001,2022-11-13_17h30.32.794,Info_measure_main_exp,2022.2.2,Win32,60.33182504,,,,,,,,,,,,,,,,,,masks/mask_004.jpg,,,,,,,,,,,,,,,,,,,,,,,,,,,,,,,,,,,,,,,,,,,0,2,2,3,1,,,,,,,,,,,,,,,,,,,,,,,,,,,,,,,,,,,,,,,,,,,,,,
376666,001,2022-11-13_17h30.32.794,Info_measure_main_exp,2022.2.2,Win32,60.33182504,,,,,,,,,,,,,,,,,,masks/mask_003.jpg,,,,,,,,,,,,,,,,,,,,,,,,,,,,,,,,,,,,,,,,,,,0,3,3,2,1,,,,,,,,,,,,,,,,,,,,,,,,,,,,,,,,,,,,,,,,,,,,,,
376666,001,2022-11-13_17h30.32.794,Info_measure_main_exp,2022.2.2,Win32,60.33182504,,,,,,,,,,,,,,,,,,masks/mask_005.jpg,,,,,,,,,,,,,,,,,,,,,,,,,,,,,,,,,,,,,,,,,,,0,4,4,4,1,,,,,,,,,,,,,,,,,,,,,,,,,,,,,,,,,,,,,,,,,,,,,,
376666,001,2022-11-13_17h30.32.794,Info_measure_main_exp,2022.2.2,Win32,60.33182504,,,,,,,,,,,,,,,,,,masks/mask_002.jpg,,,,,,,,,,,,,,,,,,,,,,,,,,,,,,,,,,,,,,,,,,,,,,,,0,0,0,1,1,,,,,,,,,,,,,,,,,,,,,,,,,,,,,,,,,,,,,,,,,
376666,001,2022-11-13_17h30.32.794,Info_measure_main_exp,2022.2.2,Win32,60.33182504,,,,,,,,,,,,,,,,,,masks/mask_001.jpg,,,,,,,,,,,,,,,,,,,,,,,,,,,,,,,,,,,,,,,,,,,,,,,,0,1,1,0,1,,,,,,,,,,,,,,,,,,,,,,,,,,,,,,,,,,,,,,,,,
376666,001,2022-11-13_17h30.32.794,Info_measure_main_exp,2022.2.2,Win32,60.33182504,,,,,,,,,,,,,,,,,,masks/mask_004.jpg,,,,,,,,,,,,,,,,,,,,,,,,,,,,,,,,,,,,,,,,,,,,,,,,0,2,2,3,1,,,,,,,,,,,,,,,,,,,,,,,,,,,,,,,,,,,,,,,,,
376666,001,2022-11-13_17h30.32.794,Info_measure_main_exp,2022.2.2,Win32,60.33182504,,,,,,,,,,,,,,,,,,masks/mask_005.jpg,,,,,,,,,,,,,,,,,,,,,,,,,,,,,,,,,,,,,,,,,,,,,,,,0,3,3,4,1,,,,,,,,,,,,,,,,,,,,,,,,,,,,,,,,,,,,,,,,,
376666,001,2022-11-13_17h30.32.794,Info_measure_main_exp,2022.2.2,Win32,60.33182504,,,,,,,,,,,,,,,,,,masks/mask_003.jpg,,,,,,,,,,,,,,,,,,,,,,,,,,,,,,,,,,,,,,,,,,,,,,,,0,4,4,2,1,,,,,,,,,,,,,,,,,,,,,,,,,,,,,,,,,,,,,,,,,
376666,001,2022-11-13_17h30.32.794,Info_measure_main_exp,2022.2.2,Win32,60.33182504,,,,,,,,,,,,,,,,,,,,,,,,,,,,,,0,1.1822,1,,,,,,,,,,,,0,131,5,5,1974,1974,absent_patch/patch0001974.jpg,absent_patch/patch0001974.jpg,,,,,,,,,,,,,,,,,,,,-0.026041667,0.069010417,1,0,0,response7disk,15,0.002604167,-0.010416667,1,0,0,center_square,0,14,14,113,1,,,,,,,,,,,,,,,,,,,,,,,
376666,001,2022-11-13_17h30.32.794,Info_measure_main_exp,2022.2.2,Win32,60.33182504,,,,,,,,,,,,,,,,,,masks/mask_004.jpg,,,,,,,,,,,,,,,,,,,,,,,,,,,,,,,,,,,,,,,,,,,0,0,0,3,1,,,,,,,,,,,,,,,,,,,,,,,,,,,,,,,,,,,,,,,,,,,,,,
376666,001,2022-11-13_17h30.32.794,Info_measure_main_exp,2022.2.2,Win32,60.33182504,,,,,,,,,,,,,,,,,,masks/mask_003.jpg,,,,,,,,,,,,,,,,,,,,,,,,,,,,,,,,,,,,,,,,,,,0,1,1,2,1,,,,,,,,,,,,,,,,,,,,,,,,,,,,,,,,,,,,,,,,,,,,,,
376666,001,2022-11-13_17h30.32.794,Info_measure_main_exp,2022.2.2,Win32,60.33182504,,,,,,,,,,,,,,,,,,masks/mask_002.jpg,,,,,,,,,,,,,,,,,,,,,,,,,,,,,,,,,,,,,,,,,,,0,2,2,1,1,,,,,,,,,,,,,,,,,,,,,,,,,,,,,,,,,,,,,,,,,,,,,,
376666,001,2022-11-13_17h30.32.794,Info_measure_main_exp,2022.2.2,Win32,60.33182504,,,,,,,,,,,,,,,,,,masks/mask_001.jpg,,,,,,,,,,,,,,,,,,,,,,,,,,,,,,,,,,,,,,,,,,,0,3,3,0,1,,,,,,,,,,,,,,,,,,,,,,,,,,,,,,,,,,,,,,,,,,,,,,
376666,001,2022-11-13_17h30.32.794,Info_measure_main_exp,2022.2.2,Win32,60.33182504,,,,,,,,,,,,,,,,,,masks/mask_005.jpg,,,,,,,,,,,,,,,,,,,,,,,,,,,,,,,,,,,,,,,,,,,0,4,4,4,1,,,,,,,,,,,,,,,,,,,,,,,,,,,,,,,,,,,,,,,,,,,,,,
376666,001,2022-11-13_17h30.32.794,Info_measure_main_exp,2022.2.2,Win32,60.33182504,,,,,,,,,,,,,,,,,,masks/mask_003.jpg,,,,,,,,,,,,,,,,,,,,,,,,,,,,,,,,,,,,,,,,,,,,,,,,0,0,0,2,1,,,,,,,,,,,,,,,,,,,,,,,,,,,,,,,,,,,,,,,,,
376666,001,2022-11-13_17h30.32.794,Info_measure_main_exp,2022.2.2,Win32,60.33182504,,,,,,,,,,,,,,,,,,masks/mask_002.jpg,,,,,,,,,,,,,,,,,,,,,,,,,,,,,,,,,,,,,,,,,,,,,,,,0,1,1,1,1,,,,,,,,,,,,,,,,,,,,,,,,,,,,,,,,,,,,,,,,,
376666,001,2022-11-13_17h30.32.794,Info_measure_main_exp,2022.2.2,Win32,60.33182504,,,,,,,,,,,,,,,,,,masks/mask_004.jpg,,,,,,,,,,,,,,,,,,,,,,,,,,,,,,,,,,,,,,,,,,,,,,,,0,2,2,3,1,,,,,,,,,,,,,,,,,,,,,,,,,,,,,,,,,,,,,,,,,
376666,001,2022-11-13_17h30.32.794,Info_measure_main_exp,2022.2.2,Win32,60.33182504,,,,,,,,,,,,,,,,,,masks/mask_001.jpg,,,,,,,,,,,,,,,,,,,,,,,,,,,,,,,,,,,,,,,,,,,,,,,,0,3,3,0,1,,,,,,,,,,,,,,,,,,,,,,,,,,,,,,,,,,,,,,,,,
376666,001,2022-11-13_17h30.32.794,Info_measure_main_exp,2022.2.2,Win32,60.33182504,,,,,,,,,,,,,,,,,,masks/mask_005.jpg,,,,,,,,,,,,,,,,,,,,,,,,,,,,,,,,,,,,,,,,,,,,,,,,0,4,4,4,1,,,,,,,,,,,,,,,,,,,,,,,,,,,,,,,,,,,,,,,,,
376666,001,2022-11-13_17h30.32.794,Info_measure_main_exp,2022.2.2,Win32,60.33182504,,,,,,,,,,,,,,,,,,,,,,,,,,,,,,7,1.1501,1,,,,,,,,,,,,0,131,5,5,2274,2214,absent_patch/patch0002274.jpg,absent_patch/patch0002214.jpg,,,,,,,,,,,,,,,,,,,,0.016927083,0.06640625,1,0,0,response1disk,16,-0.00390625,0.002604167,1,0,0,center_square,0,15,15,11,1,,,,,,,,,,,,,,,,,,,,,,,
376666,001,2022-11-13_17h30.32.794,Info_measure_main_exp,2022.2.2,Win32,60.33182504,,,,,,,,,,,,,,,,,,masks/mask_002.jpg,,,,,,,,,,,,,,,,,,,,,,,,,,,,,,,,,,,,,,,,,,,0,0,0,1,1,,,,,,,,,,,,,,,,,,,,,,,,,,,,,,,,,,,,,,,,,,,,,,
376666,001,2022-11-13_17h30.32.794,Info_measure_main_exp,2022.2.2,Win32,60.33182504,,,,,,,,,,,,,,,,,,masks/mask_001.jpg,,,,,,,,,,,,,,,,,,,,,,,,,,,,,,,,,,,,,,,,,,,0,1,1,0,1,,,,,,,,,,,,,,,,,,,,,,,,,,,,,,,,,,,,,,,,,,,,,,
376666,001,2022-11-13_17h30.32.794,Info_measure_main_exp,2022.2.2,Win32,60.33182504,,,,,,,,,,,,,,,,,,masks/mask_005.jpg,,,,,,,,,,,,,,,,,,,,,,,,,,,,,,,,,,,,,,,,,,,0,2,2,4,1,,,,,,,,,,,,,,,,,,,,,,,,,,,,,,,,,,,,,,,,,,,,,,
376666,001,2022-11-13_17h30.32.794,Info_measure_main_exp,2022.2.2,Win32,60.33182504,,,,,,,,,,,,,,,,,,masks/mask_003.jpg,,,,,,,,,,,,,,,,,,,,,,,,,,,,,,,,,,,,,,,,,,,0,3,3,2,1,,,,,,,,,,,,,,,,,,,,,,,,,,,,,,,,,,,,,,,,,,,,,,
376666,001,2022-11-13_17h30.32.794,Info_measure_main_exp,2022.2.2,Win32,60.33182504,,,,,,,,,,,,,,,,,,masks/mask_004.jpg,,,,,,,,,,,,,,,,,,,,,,,,,,,,,,,,,,,,,,,,,,,0,4,4,3,1,,,,,,,,,,,,,,,,,,,,,,,,,,,,,,,,,,,,,,,,,,,,,,
376666,001,2022-11-13_17h30.32.794,Info_measure_main_exp,2022.2.2,Win32,60.33182504,,,,,,,,,,,,,,,,,,masks/mask_003.jpg,,,,,,,,,,,,,,,,,,,,,,,,,,,,,,,,,,,,,,,,,,,,,,,,0,0,0,2,1,,,,,,,,,,,,,,,,,,,,,,,,,,,,,,,,,,,,,,,,,
376666,001,2022-11-13_17h30.32.794,Info_measure_main_exp,2022.2.2,Win32,60.33182504,,,,,,,,,,,,,,,,,,masks/mask_005.jpg,,,,,,,,,,,,,,,,,,,,,,,,,,,,,,,,,,,,,,,,,,,,,,,,0,1,1,4,1,,,,,,,,,,,,,,,,,,,,,,,,,,,,,,,,,,,,,,,,,
376666,001,2022-11-13_17h30.32.794,Info_measure_main_exp,2022.2.2,Win32,60.33182504,,,,,,,,,,,,,,,,,,masks/mask_001.jpg,,,,,,,,,,,,,,,,,,,,,,,,,,,,,,,,,,,,,,,,,,,,,,,,0,2,2,0,1,,,,,,,,,,,,,,,,,,,,,,,,,,,,,,,,,,,,,,,,,
376666,001,2022-11-13_17h30.32.794,Info_measure_main_exp,2022.2.2,Win32,60.33182504,,,,,,,,,,,,,,,,,,masks/mask_004.jpg,,,,,,,,,,,,,,,,,,,,,,,,,,,,,,,,,,,,,,,,,,,,,,,,0,3,3,3,1,,,,,,,,,,,,,,,,,,,,,,,,,,,,,,,,,,,,,,,,,
376666,001,2022-11-13_17h30.32.794,Info_measure_main_exp,2022.2.2,Win32,60.33182504,,,,,,,,,,,,,,,,,,masks/mask_002.jpg,,,,,,,,,,,,,,,,,,,,,,,,,,,,,,,,,,,,,,,,,,,,,,,,0,4,4,1,1,,,,,,,,,,,,,,,,,,,,,,,,,,,,,,,,,,,,,,,,,
376666,001,2022-11-13_17h30.32.794,Info_measure_main_exp,2022.2.2,Win32,60.33182504,,,,,,,,,,,,,,,,,,,,,,,,,,,,,,7,1.1665,1,,,,,,,,,,,,0,131,5,5,2298,2274,absent_patch/patch0002298.jpg,absent_patch/patch0002274.jpg,,,,,,,,,,,,,,,,,,,,0.026041667,0.057291667,1,0,0,response1disk,17,-0.0078125,-0.009114583,1,0,0,center_square,0,16,16,1,1,,,,,,,,,,,,,,,,,,,,,,,
376666,001,2022-11-13_17h30.32.794,Info_measure_main_exp,2022.2.2,Win32,60.33182504,,,,,,,,,,,,,,,,,,masks/mask_003.jpg,,,,,,,,,,,,,,,,,,,,,,,,,,,,,,,,,,,,,,,,,,,0,0,0,2,1,,,,,,,,,,,,,,,,,,,,,,,,,,,,,,,,,,,,,,,,,,,,,,
376666,001,2022-11-13_17h30.32.794,Info_measure_main_exp,2022.2.2,Win32,60.33182504,,,,,,,,,,,,,,,,,,masks/mask_001.jpg,,,,,,,,,,,,,,,,,,,,,,,,,,,,,,,,,,,,,,,,,,,0,1,1,0,1,,,,,,,,,,,,,,,,,,,,,,,,,,,,,,,,,,,,,,,,,,,,,,
376666,001,2022-11-13_17h30.32.794,Info_measure_main_exp,2022.2.2,Win32,60.33182504,,,,,,,,,,,,,,,,,,masks/mask_005.jpg,,,,,,,,,,,,,,,,,,,,,,,,,,,,,,,,,,,,,,,,,,,0,2,2,4,1,,,,,,,,,,,,,,,,,,,,,,,,,,,,,,,,,,,,,,,,,,,,,,
376666,001,2022-11-13_17h30.32.794,Info_measure_main_exp,2022.2.2,Win32,60.33182504,,,,,,,,,,,,,,,,,,masks/mask_002.jpg,,,,,,,,,,,,,,,,,,,,,,,,,,,,,,,,,,,,,,,,,,,0,3,3,1,1,,,,,,,,,,,,,,,,,,,,,,,,,,,,,,,,,,,,,,,,,,,,,,
376666,001,2022-11-13_17h30.32.794,Info_measure_main_exp,2022.2.2,Win32,60.33182504,,,,,,,,,,,,,,,,,,masks/mask_004.jpg,,,,,,,,,,,,,,,,,,,,,,,,,,,,,,,,,,,,,,,,,,,0,4,4,3,1,,,,,,,,,,,,,,,,,,,,,,,,,,,,,,,,,,,,,,,,,,,,,,
376666,001,2022-11-13_17h30.32.794,Info_measure_main_exp,2022.2.2,Win32,60.33182504,,,,,,,,,,,,,,,,,,masks/mask_001.jpg,,,,,,,,,,,,,,,,,,,,,,,,,,,,,,,,,,,,,,,,,,,,,,,,0,0,0,0,1,,,,,,,,,,,,,,,,,,,,,,,,,,,,,,,,,,,,,,,,,
376666,001,2022-11-13_17h30.32.794,Info_measure_main_exp,2022.2.2,Win32,60.33182504,,,,,,,,,,,,,,,,,,masks/mask_003.jpg,,,,,,,,,,,,,,,,,,,,,,,,,,,,,,,,,,,,,,,,,,,,,,,,0,1,1,2,1,,,,,,,,,,,,,,,,,,,,,,,,,,,,,,,,,,,,,,,,,
376666,001,2022-11-13_17h30.32.794,Info_measure_main_exp,2022.2.2,Win32,60.33182504,,,,,,,,,,,,,,,,,,masks/mask_002.jpg,,,,,,,,,,,,,,,,,,,,,,,,,,,,,,,,,,,,,,,,,,,,,,,,0,2,2,1,1,,,,,,,,,,,,,,,,,,,,,,,,,,,,,,,,,,,,,,,,,
376666,001,2022-11-13_17h30.32.794,Info_measure_main_exp,2022.2.2,Win32,60.33182504,,,,,,,,,,,,,,,,,,masks/mask_004.jpg,,,,,,,,,,,,,,,,,,,,,,,,,,,,,,,,,,,,,,,,,,,,,,,,0,3,3,3,1,,,,,,,,,,,,,,,,,,,,,,,,,,,,,,,,,,,,,,,,,
376666,001,2022-11-13_17h30.32.794,Info_measure_main_exp,2022.2.2,Win32,60.33182504,,,,,,,,,,,,,,,,,,masks/mask_005.jpg,,,,,,,,,,,,,,,,,,,,,,,,,,,,,,,,,,,,,,,,,,,,,,,,0,4,4,4,1,,,,,,,,,,,,,,,,,,,,,,,,,,,,,,,,,,,,,,,,,
376666,001,2022-11-13_17h30.32.794,Info_measure_main_exp,2022.2.2,Win32,60.33182504,,,,,,,,,,,,,,,,,,,,,,,,,,,,,,0,0.9171,1,,,,,,,,,,,,0,131,5,5,1986,1986,absent_patch/patch0001986.jpg,absent_patch/patch0001986.jpg,,,,,,,,,,,,,,,,,,,,-0.0390625,0.083333333,1,0,0,response7disk,18,0,-0.009114583,1,0,0,center_square,0,17,17,19,1,,,,,,,,,,,,,,,,,,,,,,,
376666,001,2022-11-13_17h30.32.794,Info_measure_main_exp,2022.2.2,Win32,60.33182504,,,,,,,,,,,,,,,,,,masks/mask_004.jpg,,,,,,,,,,,,,,,,,,,,,,,,,,,,,,,,,,,,,,,,,,,0,0,0,3,1,,,,,,,,,,,,,,,,,,,,,,,,,,,,,,,,,,,,,,,,,,,,,,
376666,001,2022-11-13_17h30.32.794,Info_measure_main_exp,2022.2.2,Win32,60.33182504,,,,,,,,,,,,,,,,,,masks/mask_001.jpg,,,,,,,,,,,,,,,,,,,,,,,,,,,,,,,,,,,,,,,,,,,0,1,1,0,1,,,,,,,,,,,,,,,,,,,,,,,,,,,,,,,,,,,,,,,,,,,,,,
376666,001,2022-11-13_17h30.32.794,Info_measure_main_exp,2022.2.2,Win32,60.33182504,,,,,,,,,,,,,,,,,,masks/mask_003.jpg,,,,,,,,,,,,,,,,,,,,,,,,,,,,,,,,,,,,,,,,,,,0,2,2,2,1,,,,,,,,,,,,,,,,,,,,,,,,,,,,,,,,,,,,,,,,,,,,,,
376666,001,2022-11-13_17h30.32.794,Info_measure_main_exp,2022.2.2,Win32,60.33182504,,,,,,,,,,,,,,,,,,masks/mask_005.jpg,,,,,,,,,,,,,,,,,,,,,,,,,,,,,,,,,,,,,,,,,,,0,3,3,4,1,,,,,,,,,,,,,,,,,,,,,,,,,,,,,,,,,,,,,,,,,,,,,,
376666,001,2022-11-13_17h30.32.794,Info_measure_main_exp,2022.2.2,Win32,60.33182504,,,,,,,,,,,,,,,,,,masks/mask_002.jpg,,,,,,,,,,,,,,,,,,,,,,,,,,,,,,,,,,,,,,,,,,,0,4,4,1,1,,,,,,,,,,,,,,,,,,,,,,,,,,,,,,,,,,,,,,,,,,,,,,
376666,001,2022-11-13_17h30.32.794,Info_measure_main_exp,2022.2.2,Win32,60.33182504,,,,,,,,,,,,,,,,,,masks/mask_005.jpg,,,,,,,,,,,,,,,,,,,,,,,,,,,,,,,,,,,,,,,,,,,,,,,,0,0,0,4,1,,,,,,,,,,,,,,,,,,,,,,,,,,,,,,,,,,,,,,,,,
376666,001,2022-11-13_17h30.32.794,Info_measure_main_exp,2022.2.2,Win32,60.33182504,,,,,,,,,,,,,,,,,,masks/mask_004.jpg,,,,,,,,,,,,,,,,,,,,,,,,,,,,,,,,,,,,,,,,,,,,,,,,0,1,1,3,1,,,,,,,,,,,,,,,,,,,,,,,,,,,,,,,,,,,,,,,,,
376666,001,2022-11-13_17h30.32.794,Info_measure_main_exp,2022.2.2,Win32,60.33182504,,,,,,,,,,,,,,,,,,masks/mask_001.jpg,,,,,,,,,,,,,,,,,,,,,,,,,,,,,,,,,,,,,,,,,,,,,,,,0,2,2,0,1,,,,,,,,,,,,,,,,,,,,,,,,,,,,,,,,,,,,,,,,,
376666,001,2022-11-13_17h30.32.794,Info_measure_main_exp,2022.2.2,Win32,60.33182504,,,,,,,,,,,,,,,,,,masks/mask_003.jpg,,,,,,,,,,,,,,,,,,,,,,,,,,,,,,,,,,,,,,,,,,,,,,,,0,3,3,2,1,,,,,,,,,,,,,,,,,,,,,,,,,,,,,,,,,,,,,,,,,
376666,001,2022-11-13_17h30.32.794,Info_measure_main_exp,2022.2.2,Win32,60.33182504,,,,,,,,,,,,,,,,,,masks/mask_002.jpg,,,,,,,,,,,,,,,,,,,,,,,,,,,,,,,,,,,,,,,,,,,,,,,,0,4,4,1,1,,,,,,,,,,,,,,,,,,,,,,,,,,,,,,,,,,,,,,,,,
376666,001,2022-11-13_17h30.32.794,Info_measure_main_exp,2022.2.2,Win32,60.33182504,,,,,,,,,,,,,,,,,,,,,,,,,,,,,,7,1.1018,1,,,,,,,,,,,,1,131,5,5,1,1974,present_patch/cong_131_5_a.jpg,absent_patch/patch0001974.jpg,,,,,,,,,,,,,,,,,,,,0.016927083,0.0703125,1,0,0,response1disk,19,-0.00390625,-0.0078125,1,0,0,center_square,0,18,18,69,1,,,,,,,,,,,,,,,,,,,,,,,
376666,001,2022-11-13_17h30.32.794,Info_measure_main_exp,2022.2.2,Win32,60.33182504,,,,,,,,,,,,,,,,,,masks/mask_004.jpg,,,,,,,,,,,,,,,,,,,,,,,,,,,,,,,,,,,,,,,,,,,0,0,0,3,1,,,,,,,,,,,,,,,,,,,,,,,,,,,,,,,,,,,,,,,,,,,,,,
376666,001,2022-11-13_17h30.32.794,Info_measure_main_exp,2022.2.2,Win32,60.33182504,,,,,,,,,,,,,,,,,,masks/mask_003.jpg,,,,,,,,,,,,,,,,,,,,,,,,,,,,,,,,,,,,,,,,,,,0,1,1,2,1,,,,,,,,,,,,,,,,,,,,,,,,,,,,,,,,,,,,,,,,,,,,,,
376666,001,2022-11-13_17h30.32.794,Info_measure_main_exp,2022.2.2,Win32,60.33182504,,,,,,,,,,,,,,,,,,masks/mask_005.jpg,,,,,,,,,,,,,,,,,,,,,,,,,,,,,,,,,,,,,,,,,,,0,2,2,4,1,,,,,,,,,,,,,,,,,,,,,,,,,,,,,,,,,,,,,,,,,,,,,,
376666,001,2022-11-13_17h30.32.794,Info_measure_main_exp,2022.2.2,Win32,60.33182504,,,,,,,,,,,,,,,,,,masks/mask_001.jpg,,,,,,,,,,,,,,,,,,,,,,,,,,,,,,,,,,,,,,,,,,,0,3,3,0,1,,,,,,,,,,,,,,,,,,,,,,,,,,,,,,,,,,,,,,,,,,,,,,
376666,001,2022-11-13_17h30.32.794,Info_measure_main_exp,2022.2.2,Win32,60.33182504,,,,,,,,,,,,,,,,,,masks/mask_002.jpg,,,,,,,,,,,,,,,,,,,,,,,,,,,,,,,,,,,,,,,,,,,0,4,4,1,1,,,,,,,,,,,,,,,,,,,,,,,,,,,,,,,,,,,,,,,,,,,,,,
376666,001,2022-11-13_17h30.32.794,Info_measure_main_exp,2022.2.2,Win32,60.33182504,,,,,,,,,,,,,,,,,,masks/mask_001.jpg,,,,,,,,,,,,,,,,,,,,,,,,,,,,,,,,,,,,,,,,,,,,,,,,0,0,0,0,1,,,,,,,,,,,,,,,,,,,,,,,,,,,,,,,,,,,,,,,,,
376666,001,2022-11-13_17h30.32.794,Info_measure_main_exp,2022.2.2,Win32,60.33182504,,,,,,,,,,,,,,,,,,masks/mask_002.jpg,,,,,,,,,,,,,,,,,,,,,,,,,,,,,,,,,,,,,,,,,,,,,,,,0,1,1,1,1,,,,,,,,,,,,,,,,,,,,,,,,,,,,,,,,,,,,,,,,,
376666,001,2022-11-13_17h30.32.794,Info_measure_main_exp,2022.2.2,Win32,60.33182504,,,,,,,,,,,,,,,,,,masks/mask_003.jpg,,,,,,,,,,,,,,,,,,,,,,,,,,,,,,,,,,,,,,,,,,,,,,,,0,2,2,2,1,,,,,,,,,,,,,,,,,,,,,,,,,,,,,,,,,,,,,,,,,
376666,001,2022-11-13_17h30.32.794,Info_measure_main_exp,2022.2.2,Win32,60.33182504,,,,,,,,,,,,,,,,,,masks/mask_004.jpg,,,,,,,,,,,,,,,,,,,,,,,,,,,,,,,,,,,,,,,,,,,,,,,,0,3,3,3,1,,,,,,,,,,,,,,,,,,,,,,,,,,,,,,,,,,,,,,,,,
376666,001,2022-11-13_17h30.32.794,Info_measure_main_exp,2022.2.2,Win32,60.33182504,,,,,,,,,,,,,,,,,,masks/mask_005.jpg,,,,,,,,,,,,,,,,,,,,,,,,,,,,,,,,,,,,,,,,,,,,,,,,0,4,4,4,1,,,,,,,,,,,,,,,,,,,,,,,,,,,,,,,,,,,,,,,,,
376666,001,2022-11-13_17h30.32.794,Info_measure_main_exp,2022.2.2,Win32,60.33182504,,,,,,,,,,,,,,,,,,,,,,,,,,,,,,5,2.7833,1,,,,,,,,,,,,0,131,5,5,1950,2298,absent_patch/patch0001950.jpg,absent_patch/patch0002298.jpg,,,,,,,,,,,,,,,,,,,,0.061197917,-0.045572917,1,0,0,response3disk,20,0.001302083,-0.006510417,1,0,0,center_square,0,19,19,18,1,,,,,,,,,,,,,,,,,,,,,,,
376666,001,2022-11-13_17h30.32.794,Info_measure_main_exp,2022.2.2,Win32,60.33182504,,,,,,,,,,,,,,,,,,masks/mask_001.jpg,,,,,,,,,,,,,,,,,,,,,,,,,,,,,,,,,,,,,,,,,,,0,0,0,0,1,,,,,,,,,,,,,,,,,,,,,,,,,,,,,,,,,,,,,,,,,,,,,,
376666,001,2022-11-13_17h30.32.794,Info_measure_main_exp,2022.2.2,Win32,60.33182504,,,,,,,,,,,,,,,,,,masks/mask_005.jpg,,,,,,,,,,,,,,,,,,,,,,,,,,,,,,,,,,,,,,,,,,,0,1,1,4,1,,,,,,,,,,,,,,,,,,,,,,,,,,,,,,,,,,,,,,,,,,,,,,
376666,001,2022-11-13_17h30.32.794,Info_measure_main_exp,2022.2.2,Win32,60.33182504,,,,,,,,,,,,,,,,,,masks/mask_003.jpg,,,,,,,,,,,,,,,,,,,,,,,,,,,,,,,,,,,,,,,,,,,0,2,2,2,1,,,,,,,,,,,,,,,,,,,,,,,,,,,,,,,,,,,,,,,,,,,,,,
376666,001,2022-11-13_17h30.32.794,Info_measure_main_exp,2022.2.2,Win32,60.33182504,,,,,,,,,,,,,,,,,,masks/mask_002.jpg,,,,,,,,,,,,,,,,,,,,,,,,,,,,,,,,,,,,,,,,,,,0,3,3,1,1,,,,,,,,,,,,,,,,,,,,,,,,,,,,,,,,,,,,,,,,,,,,,,
376666,001,2022-11-13_17h30.32.794,Info_measure_main_exp,2022.2.2,Win32,60.33182504,,,,,,,,,,,,,,,,,,masks/mask_004.jpg,,,,,,,,,,,,,,,,,,,,,,,,,,,,,,,,,,,,,,,,,,,0,4,4,3,1,,,,,,,,,,,,,,,,,,,,,,,,,,,,,,,,,,,,,,,,,,,,,,
376666,001,2022-11-13_17h30.32.794,Info_measure_main_exp,2022.2.2,Win32,60.33182504,,,,,,,,,,,,,,,,,,masks/mask_005.jpg,,,,,,,,,,,,,,,,,,,,,,,,,,,,,,,,,,,,,,,,,,,,,,,,0,0,0,4,1,,,,,,,,,,,,,,,,,,,,,,,,,,,,,,,,,,,,,,,,,
376666,001,2022-11-13_17h30.32.794,Info_measure_main_exp,2022.2.2,Win32,60.33182504,,,,,,,,,,,,,,,,,,masks/mask_004.jpg,,,,,,,,,,,,,,,,,,,,,,,,,,,,,,,,,,,,,,,,,,,,,,,,0,1,1,3,1,,,,,,,,,,,,,,,,,,,,,,,,,,,,,,,,,,,,,,,,,
376666,001,2022-11-13_17h30.32.794,Info_measure_main_exp,2022.2.2,Win32,60.33182504,,,,,,,,,,,,,,,,,,masks/mask_002.jpg,,,,,,,,,,,,,,,,,,,,,,,,,,,,,,,,,,,,,,,,,,,,,,,,0,2,2,1,1,,,,,,,,,,,,,,,,,,,,,,,,,,,,,,,,,,,,,,,,,
376666,001,2022-11-13_17h30.32.794,Info_measure_main_exp,2022.2.2,Win32,60.33182504,,,,,,,,,,,,,,,,,,masks/mask_003.jpg,,,,,,,,,,,,,,,,,,,,,,,,,,,,,,,,,,,,,,,,,,,,,,,,0,3,3,2,1,,,,,,,,,,,,,,,,,,,,,,,,,,,,,,,,,,,,,,,,,
376666,001,2022-11-13_17h30.32.794,Info_measure_main_exp,2022.2.2,Win32,60.33182504,,,,,,,,,,,,,,,,,,masks/mask_001.jpg,,,,,,,,,,,,,,,,,,,,,,,,,,,,,,,,,,,,,,,,,,,,,,,,0,4,4,0,1,,,,,,,,,,,,,,,,,,,,,,,,,,,,,,,,,,,,,,,,,
376666,001,2022-11-13_17h30.32.794,Info_measure_main_exp,2022.2.2,Win32,60.33182504,,,,,,,,,,,,,,,,,,,,,,,,,,,,,,7,2.3793,1,,,,,,,,,,,,0,131,5,5,1950,2214,absent_patch/patch0001950.jpg,absent_patch/patch0002214.jpg,,,,,,,,,,,,,,,,,,,,0.026041667,0.055989583,1,0,0,response1disk,21,0.002604167,0,1,0,0,center_square,0,20,20,85,1,,,,,,,,,,,,,,,,,,,,,,,
376666,001,2022-11-13_17h30.32.794,Info_measure_main_exp,2022.2.2,Win32,60.33182504,,,,,,,,,,,,,,,,,,masks/mask_001.jpg,,,,,,,,,,,,,,,,,,,,,,,,,,,,,,,,,,,,,,,,,,,0,0,0,0,1,,,,,,,,,,,,,,,,,,,,,,,,,,,,,,,,,,,,,,,,,,,,,,
376666,001,2022-11-13_17h30.32.794,Info_measure_main_exp,2022.2.2,Win32,60.33182504,,,,,,,,,,,,,,,,,,masks/mask_003.jpg,,,,,,,,,,,,,,,,,,,,,,,,,,,,,,,,,,,,,,,,,,,0,1,1,2,1,,,,,,,,,,,,,,,,,,,,,,,,,,,,,,,,,,,,,,,,,,,,,,
376666,001,2022-11-13_17h30.32.794,Info_measure_main_exp,2022.2.2,Win32,60.33182504,,,,,,,,,,,,,,,,,,masks/mask_002.jpg,,,,,,,,,,,,,,,,,,,,,,,,,,,,,,,,,,,,,,,,,,,0,2,2,1,1,,,,,,,,,,,,,,,,,,,,,,,,,,,,,,,,,,,,,,,,,,,,,,
376666,001,2022-11-13_17h30.32.794,Info_measure_main_exp,2022.2.2,Win32,60.33182504,,,,,,,,,,,,,,,,,,masks/mask_004.jpg,,,,,,,,,,,,,,,,,,,,,,,,,,,,,,,,,,,,,,,,,,,0,3,3,3,1,,,,,,,,,,,,,,,,,,,,,,,,,,,,,,,,,,,,,,,,,,,,,,
376666,001,2022-11-13_17h30.32.794,Info_measure_main_exp,2022.2.2,Win32,60.33182504,,,,,,,,,,,,,,,,,,masks/mask_005.jpg,,,,,,,,,,,,,,,,,,,,,,,,,,,,,,,,,,,,,,,,,,,0,4,4,4,1,,,,,,,,,,,,,,,,,,,,,,,,,,,,,,,,,,,,,,,,,,,,,,
376666,001,2022-11-13_17h30.32.794,Info_measure_main_exp,2022.2.2,Win32,60.33182504,,,,,,,,,,,,,,,,,,masks/mask_005.jpg,,,,,,,,,,,,,,,,,,,,,,,,,,,,,,,,,,,,,,,,,,,,,,,,0,0,0,4,1,,,,,,,,,,,,,,,,,,,,,,,,,,,,,,,,,,,,,,,,,
376666,001,2022-11-13_17h30.32.794,Info_measure_main_exp,2022.2.2,Win32,60.33182504,,,,,,,,,,,,,,,,,,masks/mask_004.jpg,,,,,,,,,,,,,,,,,,,,,,,,,,,,,,,,,,,,,,,,,,,,,,,,0,1,1,3,1,,,,,,,,,,,,,,,,,,,,,,,,,,,,,,,,,,,,,,,,,
376666,001,2022-11-13_17h30.32.794,Info_measure_main_exp,2022.2.2,Win32,60.33182504,,,,,,,,,,,,,,,,,,masks/mask_003.jpg,,,,,,,,,,,,,,,,,,,,,,,,,,,,,,,,,,,,,,,,,,,,,,,,0,2,2,2,1,,,,,,,,,,,,,,,,,,,,,,,,,,,,,,,,,,,,,,,,,
376666,001,2022-11-13_17h30.32.794,Info_measure_main_exp,2022.2.2,Win32,60.33182504,,,,,,,,,,,,,,,,,,masks/mask_002.jpg,,,,,,,,,,,,,,,,,,,,,,,,,,,,,,,,,,,,,,,,,,,,,,,,0,3,3,1,1,,,,,,,,,,,,,,,,,,,,,,,,,,,,,,,,,,,,,,,,,
376666,001,2022-11-13_17h30.32.794,Info_measure_main_exp,2022.2.2,Win32,60.33182504,,,,,,,,,,,,,,,,,,masks/mask_001.jpg,,,,,,,,,,,,,,,,,,,,,,,,,,,,,,,,,,,,,,,,,,,,,,,,0,4,4,0,1,,,,,,,,,,,,,,,,,,,,,,,,,,,,,,,,,,,,,,,,,
376666,001,2022-11-13_17h30.32.794,Info_measure_main_exp,2022.2.2,Win32,60.33182504,,,,,,,,,,,,,,,,,,,,,,,,,,,,,,3,1.9296,1,,,,,,,,,,,,0,131,5,5,2082,2250,absent_patch/patch0002082.jpg,absent_patch/patch0002250.jpg,,,,,,,,,,,,,,,,,,,,-0.020833333,-0.059895833,1,0,0,response5disk,22,-0.005208333,-0.002604167,1,0,0,center_square,0,21,21,3,1,,,,,,,,,,,,,,,,,,,,,,,
376666,001,2022-11-13_17h30.32.794,Info_measure_main_exp,2022.2.2,Win32,60.33182504,,,,,,,,,,,,,,,,,,masks/mask_005.jpg,,,,,,,,,,,,,,,,,,,,,,,,,,,,,,,,,,,,,,,,,,,0,0,0,4,1,,,,,,,,,,,,,,,,,,,,,,,,,,,,,,,,,,,,,,,,,,,,,,
376666,001,2022-11-13_17h30.32.794,Info_measure_main_exp,2022.2.2,Win32,60.33182504,,,,,,,,,,,,,,,,,,masks/mask_002.jpg,,,,,,,,,,,,,,,,,,,,,,,,,,,,,,,,,,,,,,,,,,,0,1,1,1,1,,,,,,,,,,,,,,,,,,,,,,,,,,,,,,,,,,,,,,,,,,,,,,
376666,001,2022-11-13_17h30.32.794,Info_measure_main_exp,2022.2.2,Win32,60.33182504,,,,,,,,,,,,,,,,,,masks/mask_001.jpg,,,,,,,,,,,,,,,,,,,,,,,,,,,,,,,,,,,,,,,,,,,0,2,2,0,1,,,,,,,,,,,,,,,,,,,,,,,,,,,,,,,,,,,,,,,,,,,,,,
376666,001,2022-11-13_17h30.32.794,Info_measure_main_exp,2022.2.2,Win32,60.33182504,,,,,,,,,,,,,,,,,,masks/mask_004.jpg,,,,,,,,,,,,,,,,,,,,,,,,,,,,,,,,,,,,,,,,,,,0,3,3,3,1,,,,,,,,,,,,,,,,,,,,,,,,,,,,,,,,,,,,,,,,,,,,,,
376666,001,2022-11-13_17h30.32.794,Info_measure_main_exp,2022.2.2,Win32,60.33182504,,,,,,,,,,,,,,,,,,masks/mask_003.jpg,,,,,,,,,,,,,,,,,,,,,,,,,,,,,,,,,,,,,,,,,,,0,4,4,2,1,,,,,,,,,,,,,,,,,,,,,,,,,,,,,,,,,,,,,,,,,,,,,,
376666,001,2022-11-13_17h30.32.794,Info_measure_main_exp,2022.2.2,Win32,60.33182504,,,,,,,,,,,,,,,,,,masks/mask_002.jpg,,,,,,,,,,,,,,,,,,,,,,,,,,,,,,,,,,,,,,,,,,,,,,,,0,0,0,1,1,,,,,,,,,,,,,,,,,,,,,,,,,,,,,,,,,,,,,,,,,
376666,001,2022-11-13_17h30.32.794,Info_measure_main_exp,2022.2.2,Win32,60.33182504,,,,,,,,,,,,,,,,,,masks/mask_005.jpg,,,,,,,,,,,,,,,,,,,,,,,,,,,,,,,,,,,,,,,,,,,,,,,,0,1,1,4,1,,,,,,,,,,,,,,,,,,,,,,,,,,,,,,,,,,,,,,,,,
376666,001,2022-11-13_17h30.32.794,Info_measure_main_exp,2022.2.2,Win32,60.33182504,,,,,,,,,,,,,,,,,,masks/mask_001.jpg,,,,,,,,,,,,,,,,,,,,,,,,,,,,,,,,,,,,,,,,,,,,,,,,0,2,2,0,1,,,,,,,,,,,,,,,,,,,,,,,,,,,,,,,,,,,,,,,,,
376666,001,2022-11-13_17h30.32.794,Info_measure_main_exp,2022.2.2,Win32,60.33182504,,,,,,,,,,,,,,,,,,masks/mask_004.jpg,,,,,,,,,,,,,,,,,,,,,,,,,,,,,,,,,,,,,,,,,,,,,,,,0,3,3,3,1,,,,,,,,,,,,,,,,,,,,,,,,,,,,,,,,,,,,,,,,,
376666,001,2022-11-13_17h30.32.794,Info_measure_main_exp,2022.2.2,Win32,60.33182504,,,,,,,,,,,,,,,,,,masks/mask_003.jpg,,,,,,,,,,,,,,,,,,,,,,,,,,,,,,,,,,,,,,,,,,,,,,,,0,4,4,2,1,,,,,,,,,,,,,,,,,,,,,,,,,,,,,,,,,,,,,,,,,
376666,001,2022-11-13_17h30.32.794,Info_measure_main_exp,2022.2.2,Win32,60.33182504,,,,,,,,,,,,,,,,,,,,,,,,,,,,,,7,1.5441,1,,,,,,,,,,,,0,131,5,5,1986,1950,absent_patch/patch0001986.jpg,absent_patch/patch0001950.jpg,,,,,,,,,,,,,,,,,,,,0.018229167,0.04296875,1,0,0,response1disk,23,-0.005208333,-0.005208333,1,0,0,center_square,0,22,22,15,1,,,,,,,,,,,,,,,,,,,,,,,
376666,001,2022-11-13_17h30.32.794,Info_measure_main_exp,2022.2.2,Win32,60.33182504,,,,,,,,,,,,,,,,,,masks/mask_002.jpg,,,,,,,,,,,,,,,,,,,,,,,,,,,,,,,,,,,,,,,,,,,0,0,0,1,1,,,,,,,,,,,,,,,,,,,,,,,,,,,,,,,,,,,,,,,,,,,,,,
376666,001,2022-11-13_17h30.32.794,Info_measure_main_exp,2022.2.2,Win32,60.33182504,,,,,,,,,,,,,,,,,,masks/mask_005.jpg,,,,,,,,,,,,,,,,,,,,,,,,,,,,,,,,,,,,,,,,,,,0,1,1,4,1,,,,,,,,,,,,,,,,,,,,,,,,,,,,,,,,,,,,,,,,,,,,,,
376666,001,2022-11-13_17h30.32.794,Info_measure_main_exp,2022.2.2,Win32,60.33182504,,,,,,,,,,,,,,,,,,masks/mask_001.jpg,,,,,,,,,,,,,,,,,,,,,,,,,,,,,,,,,,,,,,,,,,,0,2,2,0,1,,,,,,,,,,,,,,,,,,,,,,,,,,,,,,,,,,,,,,,,,,,,,,
376666,001,2022-11-13_17h30.32.794,Info_measure_main_exp,2022.2.2,Win32,60.33182504,,,,,,,,,,,,,,,,,,masks/mask_004.jpg,,,,,,,,,,,,,,,,,,,,,,,,,,,,,,,,,,,,,,,,,,,0,3,3,3,1,,,,,,,,,,,,,,,,,,,,,,,,,,,,,,,,,,,,,,,,,,,,,,
376666,001,2022-11-13_17h30.32.794,Info_measure_main_exp,2022.2.2,Win32,60.33182504,,,,,,,,,,,,,,,,,,masks/mask_003.jpg,,,,,,,,,,,,,,,,,,,,,,,,,,,,,,,,,,,,,,,,,,,0,4,4,2,1,,,,,,,,,,,,,,,,,,,,,,,,,,,,,,,,,,,,,,,,,,,,,,
376666,001,2022-11-13_17h30.32.794,Info_measure_main_exp,2022.2.2,Win32,60.33182504,,,,,,,,,,,,,,,,,,masks/mask_001.jpg,,,,,,,,,,,,,,,,,,,,,,,,,,,,,,,,,,,,,,,,,,,,,,,,0,0,0,0,1,,,,,,,,,,,,,,,,,,,,,,,,,,,,,,,,,,,,,,,,,
376666,001,2022-11-13_17h30.32.794,Info_measure_main_exp,2022.2.2,Win32,60.33182504,,,,,,,,,,,,,,,,,,masks/mask_003.jpg,,,,,,,,,,,,,,,,,,,,,,,,,,,,,,,,,,,,,,,,,,,,,,,,0,1,1,2,1,,,,,,,,,,,,,,,,,,,,,,,,,,,,,,,,,,,,,,,,,
376666,001,2022-11-13_17h30.32.794,Info_measure_main_exp,2022.2.2,Win32,60.33182504,,,,,,,,,,,,,,,,,,masks/mask_005.jpg,,,,,,,,,,,,,,,,,,,,,,,,,,,,,,,,,,,,,,,,,,,,,,,,0,2,2,4,1,,,,,,,,,,,,,,,,,,,,,,,,,,,,,,,,,,,,,,,,,
376666,001,2022-11-13_17h30.32.794,Info_measure_main_exp,2022.2.2,Win32,60.33182504,,,,,,,,,,,,,,,,,,masks/mask_004.jpg,,,,,,,,,,,,,,,,,,,,,,,,,,,,,,,,,,,,,,,,,,,,,,,,0,3,3,3,1,,,,,,,,,,,,,,,,,,,,,,,,,,,,,,,,,,,,,,,,,
376666,001,2022-11-13_17h30.32.794,Info_measure_main_exp,2022.2.2,Win32,60.33182504,,,,,,,,,,,,,,,,,,masks/mask_002.jpg,,,,,,,,,,,,,,,,,,,,,,,,,,,,,,,,,,,,,,,,,,,,,,,,0,4,4,1,1,,,,,,,,,,,,,,,,,,,,,,,,,,,,,,,,,,,,,,,,,
376666,001,2022-11-13_17h30.32.794,Info_measure_main_exp,2022.2.2,Win32,60.33182504,,,,,,,,,,,,,,,,,,,,,,,,,,,,,,0,1.1883,1,,,,,,,,,,,,0,131,5,5,2142,2142,absent_patch/patch0002142.jpg,absent_patch/patch0002142.jpg,,,,,,,,,,,,,,,,,,,,-0.016927083,0.061197917,1,0,0,response7disk,24,-0.009114583,-0.00390625,1,0,0,center_square,0,23,23,13,1,,,,,,,,,,,,,,,,,,,,,,,
376666,001,2022-11-13_17h30.32.794,Info_measure_main_exp,2022.2.2,Win32,60.33182504,,,,,,,,,,,,,,,,,,masks/mask_003.jpg,,,,,,,,,,,,,,,,,,,,,,,,,,,,,,,,,,,,,,,,,,,0,0,0,2,1,,,,,,,,,,,,,,,,,,,,,,,,,,,,,,,,,,,,,,,,,,,,,,
376666,001,2022-11-13_17h30.32.794,Info_measure_main_exp,2022.2.2,Win32,60.33182504,,,,,,,,,,,,,,,,,,masks/mask_001.jpg,,,,,,,,,,,,,,,,,,,,,,,,,,,,,,,,,,,,,,,,,,,0,1,1,0,1,,,,,,,,,,,,,,,,,,,,,,,,,,,,,,,,,,,,,,,,,,,,,,
376666,001,2022-11-13_17h30.32.794,Info_measure_main_exp,2022.2.2,Win32,60.33182504,,,,,,,,,,,,,,,,,,masks/mask_004.jpg,,,,,,,,,,,,,,,,,,,,,,,,,,,,,,,,,,,,,,,,,,,0,2,2,3,1,,,,,,,,,,,,,,,,,,,,,,,,,,,,,,,,,,,,,,,,,,,,,,
376666,001,2022-11-13_17h30.32.794,Info_measure_main_exp,2022.2.2,Win32,60.33182504,,,,,,,,,,,,,,,,,,masks/mask_002.jpg,,,,,,,,,,,,,,,,,,,,,,,,,,,,,,,,,,,,,,,,,,,0,3,3,1,1,,,,,,,,,,,,,,,,,,,,,,,,,,,,,,,,,,,,,,,,,,,,,,
376666,001,2022-11-13_17h30.32.794,Info_measure_main_exp,2022.2.2,Win32,60.33182504,,,,,,,,,,,,,,,,,,masks/mask_005.jpg,,,,,,,,,,,,,,,,,,,,,,,,,,,,,,,,,,,,,,,,,,,0,4,4,4,1,,,,,,,,,,,,,,,,,,,,,,,,,,,,,,,,,,,,,,,,,,,,,,
376666,001,2022-11-13_17h30.32.794,Info_measure_main_exp,2022.2.2,Win32,60.33182504,,,,,,,,,,,,,,,,,,masks/mask_001.jpg,,,,,,,,,,,,,,,,,,,,,,,,,,,,,,,,,,,,,,,,,,,,,,,,0,0,0,0,1,,,,,,,,,,,,,,,,,,,,,,,,,,,,,,,,,,,,,,,,,
376666,001,2022-11-13_17h30.32.794,Info_measure_main_exp,2022.2.2,Win32,60.33182504,,,,,,,,,,,,,,,,,,masks/mask_005.jpg,,,,,,,,,,,,,,,,,,,,,,,,,,,,,,,,,,,,,,,,,,,,,,,,0,1,1,4,1,,,,,,,,,,,,,,,,,,,,,,,,,,,,,,,,,,,,,,,,,
376666,001,2022-11-13_17h30.32.794,Info_measure_main_exp,2022.2.2,Win32,60.33182504,,,,,,,,,,,,,,,,,,masks/mask_002.jpg,,,,,,,,,,,,,,,,,,,,,,,,,,,,,,,,,,,,,,,,,,,,,,,,0,2,2,1,1,,,,,,,,,,,,,,,,,,,,,,,,,,,,,,,,,,,,,,,,,
376666,001,2022-11-13_17h30.32.794,Info_measure_main_exp,2022.2.2,Win32,60.33182504,,,,,,,,,,,,,,,,,,masks/mask_003.jpg,,,,,,,,,,,,,,,,,,,,,,,,,,,,,,,,,,,,,,,,,,,,,,,,0,3,3,2,1,,,,,,,,,,,,,,,,,,,,,,,,,,,,,,,,,,,,,,,,,
376666,001,2022-11-13_17h30.32.794,Info_measure_main_exp,2022.2.2,Win32,60.33182504,,,,,,,,,,,,,,,,,,masks/mask_004.jpg,,,,,,,,,,,,,,,,,,,,,,,,,,,,,,,,,,,,,,,,,,,,,,,,0,4,4,3,1,,,,,,,,,,,,,,,,,,,,,,,,,,,,,,,,,,,,,,,,,
376666,001,2022-11-13_17h30.32.794,Info_measure_main_exp,2022.2.2,Win32,60.33182504,,,,,,,,,,,,,,,,,,,,,,,,,,,,,,7,1.8832,1,,,,,,,,,,,,0,131,5,5,2250,2298,absent_patch/patch0002250.jpg,absent_patch/patch0002298.jpg,,,,,,,,,,,,,,,,,,,,0.01953125,0.0546875,1,0,0,response1disk,25,0.006510417,0.005208333,1,0,0,center_square,0,24,24,59,1,,,,,,,,,,,,,,,,,,,,,,,
376666,001,2022-11-13_17h30.32.794,Info_measure_main_exp,2022.2.2,Win32,60.33182504,,,,,,,,,,,,,,,,,,masks/mask_001.jpg,,,,,,,,,,,,,,,,,,,,,,,,,,,,,,,,,,,,,,,,,,,0,0,0,0,1,,,,,,,,,,,,,,,,,,,,,,,,,,,,,,,,,,,,,,,,,,,,,,
376666,001,2022-11-13_17h30.32.794,Info_measure_main_exp,2022.2.2,Win32,60.33182504,,,,,,,,,,,,,,,,,,masks/mask_005.jpg,,,,,,,,,,,,,,,,,,,,,,,,,,,,,,,,,,,,,,,,,,,0,1,1,4,1,,,,,,,,,,,,,,,,,,,,,,,,,,,,,,,,,,,,,,,,,,,,,,
376666,001,2022-11-13_17h30.32.794,Info_measure_main_exp,2022.2.2,Win32,60.33182504,,,,,,,,,,,,,,,,,,masks/mask_002.jpg,,,,,,,,,,,,,,,,,,,,,,,,,,,,,,,,,,,,,,,,,,,0,2,2,1,1,,,,,,,,,,,,,,,,,,,,,,,,,,,,,,,,,,,,,,,,,,,,,,
376666,001,2022-11-13_17h30.32.794,Info_measure_main_exp,2022.2.2,Win32,60.33182504,,,,,,,,,,,,,,,,,,masks/mask_003.jpg,,,,,,,,,,,,,,,,,,,,,,,,,,,,,,,,,,,,,,,,,,,0,3,3,2,1,,,,,,,,,,,,,,,,,,,,,,,,,,,,,,,,,,,,,,,,,,,,,,
376666,001,2022-11-13_17h30.32.794,Info_measure_main_exp,2022.2.2,Win32,60.33182504,,,,,,,,,,,,,,,,,,masks/mask_004.jpg,,,,,,,,,,,,,,,,,,,,,,,,,,,,,,,,,,,,,,,,,,,0,4,4,3,1,,,,,,,,,,,,,,,,,,,,,,,,,,,,,,,,,,,,,,,,,,,,,,
376666,001,2022-11-13_17h30.32.794,Info_measure_main_exp,2022.2.2,Win32,60.33182504,,,,,,,,,,,,,,,,,,masks/mask_002.jpg,,,,,,,,,,,,,,,,,,,,,,,,,,,,,,,,,,,,,,,,,,,,,,,,0,0,0,1,1,,,,,,,,,,,,,,,,,,,,,,,,,,,,,,,,,,,,,,,,,
376666,001,2022-11-13_17h30.32.794,Info_measure_main_exp,2022.2.2,Win32,60.33182504,,,,,,,,,,,,,,,,,,masks/mask_001.jpg,,,,,,,,,,,,,,,,,,,,,,,,,,,,,,,,,,,,,,,,,,,,,,,,0,1,1,0,1,,,,,,,,,,,,,,,,,,,,,,,,,,,,,,,,,,,,,,,,,
376666,001,2022-11-13_17h30.32.794,Info_measure_main_exp,2022.2.2,Win32,60.33182504,,,,,,,,,,,,,,,,,,masks/mask_004.jpg,,,,,,,,,,,,,,,,,,,,,,,,,,,,,,,,,,,,,,,,,,,,,,,,0,2,2,3,1,,,,,,,,,,,,,,,,,,,,,,,,,,,,,,,,,,,,,,,,,
376666,001,2022-11-13_17h30.32.794,Info_measure_main_exp,2022.2.2,Win32,60.33182504,,,,,,,,,,,,,,,,,,masks/mask_003.jpg,,,,,,,,,,,,,,,,,,,,,,,,,,,,,,,,,,,,,,,,,,,,,,,,0,3,3,2,1,,,,,,,,,,,,,,,,,,,,,,,,,,,,,,,,,,,,,,,,,
376666,001,2022-11-13_17h30.32.794,Info_measure_main_exp,2022.2.2,Win32,60.33182504,,,,,,,,,,,,,,,,,,masks/mask_005.jpg,,,,,,,,,,,,,,,,,,,,,,,,,,,,,,,,,,,,,,,,,,,,,,,,0,4,4,4,1,,,,,,,,,,,,,,,,,,,,,,,,,,,,,,,,,,,,,,,,,
376666,001,2022-11-13_17h30.32.794,Info_measure_main_exp,2022.2.2,Win32,60.33182504,,,,,,,,,,,,,,,,,,,,,,,,,,,,,,7,1.0831,1,,,,,,,,,,,,1,131,5,5,1,2274,present_patch/cong_131_5_a.jpg,absent_patch/patch0002274.jpg,,,,,,,,,,,,,,,,,,,,0.01953125,0.065104167,1,0,0,response1disk,26,-0.00390625,-0.005208333,1,0,0,center_square,0,25,25,105,1,,,,,,,,,,,,,,,,,,,,,,,
376666,001,2022-11-13_17h30.32.794,Info_measure_main_exp,2022.2.2,Win32,60.33182504,,,,,,,,,,,,,,,,,,masks/mask_004.jpg,,,,,,,,,,,,,,,,,,,,,,,,,,,,,,,,,,,,,,,,,,,0,0,0,3,1,,,,,,,,,,,,,,,,,,,,,,,,,,,,,,,,,,,,,,,,,,,,,,
376666,001,2022-11-13_17h30.32.794,Info_measure_main_exp,2022.2.2,Win32,60.33182504,,,,,,,,,,,,,,,,,,masks/mask_003.jpg,,,,,,,,,,,,,,,,,,,,,,,,,,,,,,,,,,,,,,,,,,,0,1,1,2,1,,,,,,,,,,,,,,,,,,,,,,,,,,,,,,,,,,,,,,,,,,,,,,
376666,001,2022-11-13_17h30.32.794,Info_measure_main_exp,2022.2.2,Win32,60.33182504,,,,,,,,,,,,,,,,,,masks/mask_002.jpg,,,,,,,,,,,,,,,,,,,,,,,,,,,,,,,,,,,,,,,,,,,0,2,2,1,1,,,,,,,,,,,,,,,,,,,,,,,,,,,,,,,,,,,,,,,,,,,,,,
376666,001,2022-11-13_17h30.32.794,Info_measure_main_exp,2022.2.2,Win32,60.33182504,,,,,,,,,,,,,,,,,,masks/mask_005.jpg,,,,,,,,,,,,,,,,,,,,,,,,,,,,,,,,,,,,,,,,,,,0,3,3,4,1,,,,,,,,,,,,,,,,,,,,,,,,,,,,,,,,,,,,,,,,,,,,,,
376666,001,2022-11-13_17h30.32.794,Info_measure_main_exp,2022.2.2,Win32,60.33182504,,,,,,,,,,,,,,,,,,masks/mask_001.jpg,,,,,,,,,,,,,,,,,,,,,,,,,,,,,,,,,,,,,,,,,,,0,4,4,0,1,,,,,,,,,,,,,,,,,,,,,,,,,,,,,,,,,,,,,,,,,,,,,,
376666,001,2022-11-13_17h30.32.794,Info_measure_main_exp,2022.2.2,Win32,60.33182504,,,,,,,,,,,,,,,,,,masks/mask_004.jpg,,,,,,,,,,,,,,,,,,,,,,,,,,,,,,,,,,,,,,,,,,,,,,,,0,0,0,3,1,,,,,,,,,,,,,,,,,,,,,,,,,,,,,,,,,,,,,,,,,
376666,001,2022-11-13_17h30.32.794,Info_measure_main_exp,2022.2.2,Win32,60.33182504,,,,,,,,,,,,,,,,,,masks/mask_003.jpg,,,,,,,,,,,,,,,,,,,,,,,,,,,,,,,,,,,,,,,,,,,,,,,,0,1,1,2,1,,,,,,,,,,,,,,,,,,,,,,,,,,,,,,,,,,,,,,,,,
376666,001,2022-11-13_17h30.32.794,Info_measure_main_exp,2022.2.2,Win32,60.33182504,,,,,,,,,,,,,,,,,,masks/mask_001.jpg,,,,,,,,,,,,,,,,,,,,,,,,,,,,,,,,,,,,,,,,,,,,,,,,0,2,2,0,1,,,,,,,,,,,,,,,,,,,,,,,,,,,,,,,,,,,,,,,,,
376666,001,2022-11-13_17h30.32.794,Info_measure_main_exp,2022.2.2,Win32,60.33182504,,,,,,,,,,,,,,,,,,masks/mask_002.jpg,,,,,,,,,,,,,,,,,,,,,,,,,,,,,,,,,,,,,,,,,,,,,,,,0,3,3,1,1,,,,,,,,,,,,,,,,,,,,,,,,,,,,,,,,,,,,,,,,,
376666,001,2022-11-13_17h30.32.794,Info_measure_main_exp,2022.2.2,Win32,60.33182504,,,,,,,,,,,,,,,,,,masks/mask_005.jpg,,,,,,,,,,,,,,,,,,,,,,,,,,,,,,,,,,,,,,,,,,,,,,,,0,4,4,4,1,,,,,,,,,,,,,,,,,,,,,,,,,,,,,,,,,,,,,,,,,
376666,001,2022-11-13_17h30.32.794,Info_measure_main_exp,2022.2.2,Win32,60.33182504,,,,,,,,,,,,,,,,,,,,,,,,,,,,,,7,1.4323,1,,,,,,,,,,,,0,131,5,5,2190,2082,absent_patch/patch0002190.jpg,absent_patch/patch0002082.jpg,,,,,,,,,,,,,,,,,,,,0.020833333,0.0625,1,0,0,response1disk,27,0,0,1,0,0,center_square,0,26,26,112,1,,,,,,,,,,,,,,,,,,,,,,,
376666,001,2022-11-13_17h30.32.794,Info_measure_main_exp,2022.2.2,Win32,60.33182504,,,,,,,,,,,,,,,,,,masks/mask_002.jpg,,,,,,,,,,,,,,,,,,,,,,,,,,,,,,,,,,,,,,,,,,,0,0,0,1,1,,,,,,,,,,,,,,,,,,,,,,,,,,,,,,,,,,,,,,,,,,,,,,
376666,001,2022-11-13_17h30.32.794,Info_measure_main_exp,2022.2.2,Win32,60.33182504,,,,,,,,,,,,,,,,,,masks/mask_003.jpg,,,,,,,,,,,,,,,,,,,,,,,,,,,,,,,,,,,,,,,,,,,0,1,1,2,1,,,,,,,,,,,,,,,,,,,,,,,,,,,,,,,,,,,,,,,,,,,,,,
376666,001,2022-11-13_17h30.32.794,Info_measure_main_exp,2022.2.2,Win32,60.33182504,,,,,,,,,,,,,,,,,,masks/mask_004.jpg,,,,,,,,,,,,,,,,,,,,,,,,,,,,,,,,,,,,,,,,,,,0,2,2,3,1,,,,,,,,,,,,,,,,,,,,,,,,,,,,,,,,,,,,,,,,,,,,,,
376666,001,2022-11-13_17h30.32.794,Info_measure_main_exp,2022.2.2,Win32,60.33182504,,,,,,,,,,,,,,,,,,masks/mask_001.jpg,,,,,,,,,,,,,,,,,,,,,,,,,,,,,,,,,,,,,,,,,,,0,3,3,0,1,,,,,,,,,,,,,,,,,,,,,,,,,,,,,,,,,,,,,,,,,,,,,,
376666,001,2022-11-13_17h30.32.794,Info_measure_main_exp,2022.2.2,Win32,60.33182504,,,,,,,,,,,,,,,,,,masks/mask_005.jpg,,,,,,,,,,,,,,,,,,,,,,,,,,,,,,,,,,,,,,,,,,,0,4,4,4,1,,,,,,,,,,,,,,,,,,,,,,,,,,,,,,,,,,,,,,,,,,,,,,
376666,001,2022-11-13_17h30.32.794,Info_measure_main_exp,2022.2.2,Win32,60.33182504,,,,,,,,,,,,,,,,,,masks/mask_002.jpg,,,,,,,,,,,,,,,,,,,,,,,,,,,,,,,,,,,,,,,,,,,,,,,,0,0,0,1,1,,,,,,,,,,,,,,,,,,,,,,,,,,,,,,,,,,,,,,,,,
376666,001,2022-11-13_17h30.32.794,Info_measure_main_exp,2022.2.2,Win32,60.33182504,,,,,,,,,,,,,,,,,,masks/mask_003.jpg,,,,,,,,,,,,,,,,,,,,,,,,,,,,,,,,,,,,,,,,,,,,,,,,0,1,1,2,1,,,,,,,,,,,,,,,,,,,,,,,,,,,,,,,,,,,,,,,,,
376666,001,2022-11-13_17h30.32.794,Info_measure_main_exp,2022.2.2,Win32,60.33182504,,,,,,,,,,,,,,,,,,masks/mask_005.jpg,,,,,,,,,,,,,,,,,,,,,,,,,,,,,,,,,,,,,,,,,,,,,,,,0,2,2,4,1,,,,,,,,,,,,,,,,,,,,,,,,,,,,,,,,,,,,,,,,,
376666,001,2022-11-13_17h30.32.794,Info_measure_main_exp,2022.2.2,Win32,60.33182504,,,,,,,,,,,,,,,,,,masks/mask_001.jpg,,,,,,,,,,,,,,,,,,,,,,,,,,,,,,,,,,,,,,,,,,,,,,,,0,3,3,0,1,,,,,,,,,,,,,,,,,,,,,,,,,,,,,,,,,,,,,,,,,
376666,001,2022-11-13_17h30.32.794,Info_measure_main_exp,2022.2.2,Win32,60.33182504,,,,,,,,,,,,,,,,,,masks/mask_004.jpg,,,,,,,,,,,,,,,,,,,,,,,,,,,,,,,,,,,,,,,,,,,,,,,,0,4,4,3,1,,,,,,,,,,,,,,,,,,,,,,,,,,,,,,,,,,,,,,,,,
376666,001,2022-11-13_17h30.32.794,Info_measure_main_exp,2022.2.2,Win32,60.33182504,,,,,,,,,,,,,,,,,,,,,,,,,,,,,,7,1.0162,1,,,,,,,,,,,,0,131,5,5,2274,2178,absent_patch/patch0002274.jpg,absent_patch/patch0002178.jpg,,,,,,,,,,,,,,,,,,,,0.0234375,0.059895833,1,0,0,response1disk,28,-0.00390625,-0.002604167,1,0,0,center_square,0,27,27,117,1,,,,,,,,,,,,,,,,,,,,,,,
376666,001,2022-11-13_17h30.32.794,Info_measure_main_exp,2022.2.2,Win32,60.33182504,,,,,,,,,,,,,,,,,,masks/mask_003.jpg,,,,,,,,,,,,,,,,,,,,,,,,,,,,,,,,,,,,,,,,,,,0,0,0,2,1,,,,,,,,,,,,,,,,,,,,,,,,,,,,,,,,,,,,,,,,,,,,,,
376666,001,2022-11-13_17h30.32.794,Info_measure_main_exp,2022.2.2,Win32,60.33182504,,,,,,,,,,,,,,,,,,masks/mask_004.jpg,,,,,,,,,,,,,,,,,,,,,,,,,,,,,,,,,,,,,,,,,,,0,1,1,3,1,,,,,,,,,,,,,,,,,,,,,,,,,,,,,,,,,,,,,,,,,,,,,,
376666,001,2022-11-13_17h30.32.794,Info_measure_main_exp,2022.2.2,Win32,60.33182504,,,,,,,,,,,,,,,,,,masks/mask_001.jpg,,,,,,,,,,,,,,,,,,,,,,,,,,,,,,,,,,,,,,,,,,,0,2,2,0,1,,,,,,,,,,,,,,,,,,,,,,,,,,,,,,,,,,,,,,,,,,,,,,
376666,001,2022-11-13_17h30.32.794,Info_measure_main_exp,2022.2.2,Win32,60.33182504,,,,,,,,,,,,,,,,,,masks/mask_002.jpg,,,,,,,,,,,,,,,,,,,,,,,,,,,,,,,,,,,,,,,,,,,0,3,3,1,1,,,,,,,,,,,,,,,,,,,,,,,,,,,,,,,,,,,,,,,,,,,,,,
376666,001,2022-11-13_17h30.32.794,Info_measure_main_exp,2022.2.2,Win32,60.33182504,,,,,,,,,,,,,,,,,,masks/mask_005.jpg,,,,,,,,,,,,,,,,,,,,,,,,,,,,,,,,,,,,,,,,,,,0,4,4,4,1,,,,,,,,,,,,,,,,,,,,,,,,,,,,,,,,,,,,,,,,,,,,,,
376666,001,2022-11-13_17h30.32.794,Info_measure_main_exp,2022.2.2,Win32,60.33182504,,,,,,,,,,,,,,,,,,masks/mask_003.jpg,,,,,,,,,,,,,,,,,,,,,,,,,,,,,,,,,,,,,,,,,,,,,,,,0,0,0,2,1,,,,,,,,,,,,,,,,,,,,,,,,,,,,,,,,,,,,,,,,,
376666,001,2022-11-13_17h30.32.794,Info_measure_main_exp,2022.2.2,Win32,60.33182504,,,,,,,,,,,,,,,,,,masks/mask_002.jpg,,,,,,,,,,,,,,,,,,,,,,,,,,,,,,,,,,,,,,,,,,,,,,,,0,1,1,1,1,,,,,,,,,,,,,,,,,,,,,,,,,,,,,,,,,,,,,,,,,
376666,001,2022-11-13_17h30.32.794,Info_measure_main_exp,2022.2.2,Win32,60.33182504,,,,,,,,,,,,,,,,,,masks/mask_004.jpg,,,,,,,,,,,,,,,,,,,,,,,,,,,,,,,,,,,,,,,,,,,,,,,,0,2,2,3,1,,,,,,,,,,,,,,,,,,,,,,,,,,,,,,,,,,,,,,,,,
376666,001,2022-11-13_17h30.32.794,Info_measure_main_exp,2022.2.2,Win32,60.33182504,,,,,,,,,,,,,,,,,,masks/mask_005.jpg,,,,,,,,,,,,,,,,,,,,,,,,,,,,,,,,,,,,,,,,,,,,,,,,0,3,3,4,1,,,,,,,,,,,,,,,,,,,,,,,,,,,,,,,,,,,,,,,,,
376666,001,2022-11-13_17h30.32.794,Info_measure_main_exp,2022.2.2,Win32,60.33182504,,,,,,,,,,,,,,,,,,masks/mask_001.jpg,,,,,,,,,,,,,,,,,,,,,,,,,,,,,,,,,,,,,,,,,,,,,,,,0,4,4,0,1,,,,,,,,,,,,,,,,,,,,,,,,,,,,,,,,,,,,,,,,,
376666,001,2022-11-13_17h30.32.794,Info_measure_main_exp,2022.2.2,Win32,60.33182504,,,,,,,,,,,,,,,,,,,,,,,,,,,,,,0,1.0491,1,,,,,,,,,,,,0,131,5,5,2190,2190,absent_patch/patch0002190.jpg,absent_patch/patch0002190.jpg,,,,,,,,,,,,,,,,,,,,-0.040364583,0.095052083,1,0,0,response7disk,29,0.002604167,-0.009114583,1,0,0,center_square,0,28,28,86,1,,,,,,,,,,,,,,,,,,,,,,,
376666,001,2022-11-13_17h30.32.794,Info_measure_main_exp,2022.2.2,Win32,60.33182504,,,,,,,,,,,,,,,,,,masks/mask_001.jpg,,,,,,,,,,,,,,,,,,,,,,,,,,,,,,,,,,,,,,,,,,,0,0,0,0,1,,,,,,,,,,,,,,,,,,,,,,,,,,,,,,,,,,,,,,,,,,,,,,
376666,001,2022-11-13_17h30.32.794,Info_measure_main_exp,2022.2.2,Win32,60.33182504,,,,,,,,,,,,,,,,,,masks/mask_004.jpg,,,,,,,,,,,,,,,,,,,,,,,,,,,,,,,,,,,,,,,,,,,0,1,1,3,1,,,,,,,,,,,,,,,,,,,,,,,,,,,,,,,,,,,,,,,,,,,,,,
376666,001,2022-11-13_17h30.32.794,Info_measure_main_exp,2022.2.2,Win32,60.33182504,,,,,,,,,,,,,,,,,,masks/mask_002.jpg,,,,,,,,,,,,,,,,,,,,,,,,,,,,,,,,,,,,,,,,,,,0,2,2,1,1,,,,,,,,,,,,,,,,,,,,,,,,,,,,,,,,,,,,,,,,,,,,,,
376666,001,2022-11-13_17h30.32.794,Info_measure_main_exp,2022.2.2,Win32,60.33182504,,,,,,,,,,,,,,,,,,masks/mask_005.jpg,,,,,,,,,,,,,,,,,,,,,,,,,,,,,,,,,,,,,,,,,,,0,3,3,4,1,,,,,,,,,,,,,,,,,,,,,,,,,,,,,,,,,,,,,,,,,,,,,,
376666,001,2022-11-13_17h30.32.794,Info_measure_main_exp,2022.2.2,Win32,60.33182504,,,,,,,,,,,,,,,,,,masks/mask_003.jpg,,,,,,,,,,,,,,,,,,,,,,,,,,,,,,,,,,,,,,,,,,,0,4,4,2,1,,,,,,,,,,,,,,,,,,,,,,,,,,,,,,,,,,,,,,,,,,,,,,
376666,001,2022-11-13_17h30.32.794,Info_measure_main_exp,2022.2.2,Win32,60.33182504,,,,,,,,,,,,,,,,,,masks/mask_005.jpg,,,,,,,,,,,,,,,,,,,,,,,,,,,,,,,,,,,,,,,,,,,,,,,,0,0,0,4,1,,,,,,,,,,,,,,,,,,,,,,,,,,,,,,,,,,,,,,,,,
376666,001,2022-11-13_17h30.32.794,Info_measure_main_exp,2022.2.2,Win32,60.33182504,,,,,,,,,,,,,,,,,,masks/mask_002.jpg,,,,,,,,,,,,,,,,,,,,,,,,,,,,,,,,,,,,,,,,,,,,,,,,0,1,1,1,1,,,,,,,,,,,,,,,,,,,,,,,,,,,,,,,,,,,,,,,,,
376666,001,2022-11-13_17h30.32.794,Info_measure_main_exp,2022.2.2,Win32,60.33182504,,,,,,,,,,,,,,,,,,masks/mask_004.jpg,,,,,,,,,,,,,,,,,,,,,,,,,,,,,,,,,,,,,,,,,,,,,,,,0,2,2,3,1,,,,,,,,,,,,,,,,,,,,,,,,,,,,,,,,,,,,,,,,,
376666,001,2022-11-13_17h30.32.794,Info_measure_main_exp,2022.2.2,Win32,60.33182504,,,,,,,,,,,,,,,,,,masks/mask_001.jpg,,,,,,,,,,,,,,,,,,,,,,,,,,,,,,,,,,,,,,,,,,,,,,,,0,3,3,0,1,,,,,,,,,,,,,,,,,,,,,,,,,,,,,,,,,,,,,,,,,
376666,001,2022-11-13_17h30.32.794,Info_measure_main_exp,2022.2.2,Win32,60.33182504,,,,,,,,,,,,,,,,,,masks/mask_003.jpg,,,,,,,,,,,,,,,,,,,,,,,,,,,,,,,,,,,,,,,,,,,,,,,,0,4,4,2,1,,,,,,,,,,,,,,,,,,,,,,,,,,,,,,,,,,,,,,,,,
376666,001,2022-11-13_17h30.32.794,Info_measure_main_exp,2022.2.2,Win32,60.33182504,,,,,,,,,,,,,,,,,,,,,,,,,,,,,,0,0.9012,1,,,,,,,,,,,,0,131,5,5,2250,2250,absent_patch/patch0002250.jpg,absent_patch/patch0002250.jpg,,,,,,,,,,,,,,,,,,,,-0.036458333,0.110677083,1,0,0,response7disk,30,0,0.005208333,1,0,0,center_square,0,29,29,56,1,,,,,,,,,,,,,,,,,,,,,,,
376666,001,2022-11-13_17h30.32.794,Info_measure_main_exp,2022.2.2,Win32,60.33182504,,,,,,,,,,,,,,,,,,masks/mask_005.jpg,,,,,,,,,,,,,,,,,,,,,,,,,,,,,,,,,,,,,,,,,,,0,0,0,4,1,,,,,,,,,,,,,,,,,,,,,,,,,,,,,,,,,,,,,,,,,,,,,,
376666,001,2022-11-13_17h30.32.794,Info_measure_main_exp,2022.2.2,Win32,60.33182504,,,,,,,,,,,,,,,,,,masks/mask_003.jpg,,,,,,,,,,,,,,,,,,,,,,,,,,,,,,,,,,,,,,,,,,,0,1,1,2,1,,,,,,,,,,,,,,,,,,,,,,,,,,,,,,,,,,,,,,,,,,,,,,
376666,001,2022-11-13_17h30.32.794,Info_measure_main_exp,2022.2.2,Win32,60.33182504,,,,,,,,,,,,,,,,,,masks/mask_001.jpg,,,,,,,,,,,,,,,,,,,,,,,,,,,,,,,,,,,,,,,,,,,0,2,2,0,1,,,,,,,,,,,,,,,,,,,,,,,,,,,,,,,,,,,,,,,,,,,,,,
376666,001,2022-11-13_17h30.32.794,Info_measure_main_exp,2022.2.2,Win32,60.33182504,,,,,,,,,,,,,,,,,,masks/mask_004.jpg,,,,,,,,,,,,,,,,,,,,,,,,,,,,,,,,,,,,,,,,,,,0,3,3,3,1,,,,,,,,,,,,,,,,,,,,,,,,,,,,,,,,,,,,,,,,,,,,,,
376666,001,2022-11-13_17h30.32.794,Info_measure_main_exp,2022.2.2,Win32,60.33182504,,,,,,,,,,,,,,,,,,masks/mask_002.jpg,,,,,,,,,,,,,,,,,,,,,,,,,,,,,,,,,,,,,,,,,,,0,4,4,1,1,,,,,,,,,,,,,,,,,,,,,,,,,,,,,,,,,,,,,,,,,,,,,,
376666,001,2022-11-13_17h30.32.794,Info_measure_main_exp,2022.2.2,Win32,60.33182504,,,,,,,,,,,,,,,,,,masks/mask_001.jpg,,,,,,,,,,,,,,,,,,,,,,,,,,,,,,,,,,,,,,,,,,,,,,,,0,0,0,0,1,,,,,,,,,,,,,,,,,,,,,,,,,,,,,,,,,,,,,,,,,
376666,001,2022-11-13_17h30.32.794,Info_measure_main_exp,2022.2.2,Win32,60.33182504,,,,,,,,,,,,,,,,,,masks/mask_004.jpg,,,,,,,,,,,,,,,,,,,,,,,,,,,,,,,,,,,,,,,,,,,,,,,,0,1,1,3,1,,,,,,,,,,,,,,,,,,,,,,,,,,,,,,,,,,,,,,,,,
376666,001,2022-11-13_17h30.32.794,Info_measure_main_exp,2022.2.2,Win32,60.33182504,,,,,,,,,,,,,,,,,,masks/mask_003.jpg,,,,,,,,,,,,,,,,,,,,,,,,,,,,,,,,,,,,,,,,,,,,,,,,0,2,2,2,1,,,,,,,,,,,,,,,,,,,,,,,,,,,,,,,,,,,,,,,,,
376666,001,2022-11-13_17h30.32.794,Info_measure_main_exp,2022.2.2,Win32,60.33182504,,,,,,,,,,,,,,,,,,masks/mask_002.jpg,,,,,,,,,,,,,,,,,,,,,,,,,,,,,,,,,,,,,,,,,,,,,,,,0,3,3,1,1,,,,,,,,,,,,,,,,,,,,,,,,,,,,,,,,,,,,,,,,,
376666,001,2022-11-13_17h30.32.794,Info_measure_main_exp,2022.2.2,Win32,60.33182504,,,,,,,,,,,,,,,,,,masks/mask_005.jpg,,,,,,,,,,,,,,,,,,,,,,,,,,,,,,,,,,,,,,,,,,,,,,,,0,4,4,4,1,,,,,,,,,,,,,,,,,,,,,,,,,,,,,,,,,,,,,,,,,
376666,001,2022-11-13_17h30.32.794,Info_measure_main_exp,2022.2.2,Win32,60.33182504,,,,,,,,,,,,,,,,,,,,,,,,,,,,,,7,0.9666,1,,,,,,,,,,,,1,131,5,5,2250,1,absent_patch/patch0002250.jpg,present_patch/cong_131_5_a.jpg,,,,,,,,,,,,,,,,,,,,0.026041667,0.078125,1,0,0,response1disk,31,0,-0.006510417,1,0,0,center_square,0,30,30,5,1,,,,,,,,,,,,,,,,,,,,,,,
376666,001,2022-11-13_17h30.32.794,Info_measure_main_exp,2022.2.2,Win32,60.33182504,,,,,,,,,,,,,,,,,,masks/mask_001.jpg,,,,,,,,,,,,,,,,,,,,,,,,,,,,,,,,,,,,,,,,,,,0,0,0,0,1,,,,,,,,,,,,,,,,,,,,,,,,,,,,,,,,,,,,,,,,,,,,,,
376666,001,2022-11-13_17h30.32.794,Info_measure_main_exp,2022.2.2,Win32,60.33182504,,,,,,,,,,,,,,,,,,masks/mask_005.jpg,,,,,,,,,,,,,,,,,,,,,,,,,,,,,,,,,,,,,,,,,,,0,1,1,4,1,,,,,,,,,,,,,,,,,,,,,,,,,,,,,,,,,,,,,,,,,,,,,,
376666,001,2022-11-13_17h30.32.794,Info_measure_main_exp,2022.2.2,Win32,60.33182504,,,,,,,,,,,,,,,,,,masks/mask_003.jpg,,,,,,,,,,,,,,,,,,,,,,,,,,,,,,,,,,,,,,,,,,,0,2,2,2,1,,,,,,,,,,,,,,,,,,,,,,,,,,,,,,,,,,,,,,,,,,,,,,
376666,001,2022-11-13_17h30.32.794,Info_measure_main_exp,2022.2.2,Win32,60.33182504,,,,,,,,,,,,,,,,,,masks/mask_004.jpg,,,,,,,,,,,,,,,,,,,,,,,,,,,,,,,,,,,,,,,,,,,0,3,3,3,1,,,,,,,,,,,,,,,,,,,,,,,,,,,,,,,,,,,,,,,,,,,,,,
376666,001,2022-11-13_17h30.32.794,Info_measure_main_exp,2022.2.2,Win32,60.33182504,,,,,,,,,,,,,,,,,,masks/mask_002.jpg,,,,,,,,,,,,,,,,,,,,,,,,,,,,,,,,,,,,,,,,,,,0,4,4,1,1,,,,,,,,,,,,,,,,,,,,,,,,,,,,,,,,,,,,,,,,,,,,,,
376666,001,2022-11-13_17h30.32.794,Info_measure_main_exp,2022.2.2,Win32,60.33182504,,,,,,,,,,,,,,,,,,masks/mask_003.jpg,,,,,,,,,,,,,,,,,,,,,,,,,,,,,,,,,,,,,,,,,,,,,,,,0,0,0,2,1,,,,,,,,,,,,,,,,,,,,,,,,,,,,,,,,,,,,,,,,,
376666,001,2022-11-13_17h30.32.794,Info_measure_main_exp,2022.2.2,Win32,60.33182504,,,,,,,,,,,,,,,,,,masks/mask_005.jpg,,,,,,,,,,,,,,,,,,,,,,,,,,,,,,,,,,,,,,,,,,,,,,,,0,1,1,4,1,,,,,,,,,,,,,,,,,,,,,,,,,,,,,,,,,,,,,,,,,
376666,001,2022-11-13_17h30.32.794,Info_measure_main_exp,2022.2.2,Win32,60.33182504,,,,,,,,,,,,,,,,,,masks/mask_001.jpg,,,,,,,,,,,,,,,,,,,,,,,,,,,,,,,,,,,,,,,,,,,,,,,,0,2,2,0,1,,,,,,,,,,,,,,,,,,,,,,,,,,,,,,,,,,,,,,,,,
376666,001,2022-11-13_17h30.32.794,Info_measure_main_exp,2022.2.2,Win32,60.33182504,,,,,,,,,,,,,,,,,,masks/mask_002.jpg,,,,,,,,,,,,,,,,,,,,,,,,,,,,,,,,,,,,,,,,,,,,,,,,0,3,3,1,1,,,,,,,,,,,,,,,,,,,,,,,,,,,,,,,,,,,,,,,,,
376666,001,2022-11-13_17h30.32.794,Info_measure_main_exp,2022.2.2,Win32,60.33182504,,,,,,,,,,,,,,,,,,masks/mask_004.jpg,,,,,,,,,,,,,,,,,,,,,,,,,,,,,,,,,,,,,,,,,,,,,,,,0,4,4,3,1,,,,,,,,,,,,,,,,,,,,,,,,,,,,,,,,,,,,,,,,,
376666,001,2022-11-13_17h30.32.794,Info_measure_main_exp,2022.2.2,Win32,60.33182504,,,,,,,,,,,,,,,,,,,,,,,,,,,,,,7,2.2499,1,,,,,,,,,,,,0,131,5,5,2238,2166,absent_patch/patch0002238.jpg,absent_patch/patch0002166.jpg,,,,,,,,,,,,,,,,,,,,0.03515625,0.096354167,1,0,0,response1disk,32,-0.00390625,0.00390625,1,0,0,center_square,0,31,31,118,1,,,,,,,,,,,,,,,,,,,,,,,
376666,001,2022-11-13_17h30.32.794,Info_measure_main_exp,2022.2.2,Win32,60.33182504,,,,,,,,,,,,,,,,,,masks/mask_005.jpg,,,,,,,,,,,,,,,,,,,,,,,,,,,,,,,,,,,,,,,,,,,0,0,0,4,1,,,,,,,,,,,,,,,,,,,,,,,,,,,,,,,,,,,,,,,,,,,,,,
376666,001,2022-11-13_17h30.32.794,Info_measure_main_exp,2022.2.2,Win32,60.33182504,,,,,,,,,,,,,,,,,,masks/mask_003.jpg,,,,,,,,,,,,,,,,,,,,,,,,,,,,,,,,,,,,,,,,,,,0,1,1,2,1,,,,,,,,,,,,,,,,,,,,,,,,,,,,,,,,,,,,,,,,,,,,,,
376666,001,2022-11-13_17h30.32.794,Info_measure_main_exp,2022.2.2,Win32,60.33182504,,,,,,,,,,,,,,,,,,masks/mask_002.jpg,,,,,,,,,,,,,,,,,,,,,,,,,,,,,,,,,,,,,,,,,,,0,2,2,1,1,,,,,,,,,,,,,,,,,,,,,,,,,,,,,,,,,,,,,,,,,,,,,,
376666,001,2022-11-13_17h30.32.794,Info_measure_main_exp,2022.2.2,Win32,60.33182504,,,,,,,,,,,,,,,,,,masks/mask_004.jpg,,,,,,,,,,,,,,,,,,,,,,,,,,,,,,,,,,,,,,,,,,,0,3,3,3,1,,,,,,,,,,,,,,,,,,,,,,,,,,,,,,,,,,,,,,,,,,,,,,
376666,001,2022-11-13_17h30.32.794,Info_measure_main_exp,2022.2.2,Win32,60.33182504,,,,,,,,,,,,,,,,,,masks/mask_001.jpg,,,,,,,,,,,,,,,,,,,,,,,,,,,,,,,,,,,,,,,,,,,0,4,4,0,1,,,,,,,,,,,,,,,,,,,,,,,,,,,,,,,,,,,,,,,,,,,,,,
376666,001,2022-11-13_17h30.32.794,Info_measure_main_exp,2022.2.2,Win32,60.33182504,,,,,,,,,,,,,,,,,,masks/mask_003.jpg,,,,,,,,,,,,,,,,,,,,,,,,,,,,,,,,,,,,,,,,,,,,,,,,0,0,0,2,1,,,,,,,,,,,,,,,,,,,,,,,,,,,,,,,,,,,,,,,,,
376666,001,2022-11-13_17h30.32.794,Info_measure_main_exp,2022.2.2,Win32,60.33182504,,,,,,,,,,,,,,,,,,masks/mask_004.jpg,,,,,,,,,,,,,,,,,,,,,,,,,,,,,,,,,,,,,,,,,,,,,,,,0,1,1,3,1,,,,,,,,,,,,,,,,,,,,,,,,,,,,,,,,,,,,,,,,,
376666,001,2022-11-13_17h30.32.794,Info_measure_main_exp,2022.2.2,Win32,60.33182504,,,,,,,,,,,,,,,,,,masks/mask_001.jpg,,,,,,,,,,,,,,,,,,,,,,,,,,,,,,,,,,,,,,,,,,,,,,,,0,2,2,0,1,,,,,,,,,,,,,,,,,,,,,,,,,,,,,,,,,,,,,,,,,
376666,001,2022-11-13_17h30.32.794,Info_measure_main_exp,2022.2.2,Win32,60.33182504,,,,,,,,,,,,,,,,,,masks/mask_005.jpg,,,,,,,,,,,,,,,,,,,,,,,,,,,,,,,,,,,,,,,,,,,,,,,,0,3,3,4,1,,,,,,,,,,,,,,,,,,,,,,,,,,,,,,,,,,,,,,,,,
376666,001,2022-11-13_17h30.32.794,Info_measure_main_exp,2022.2.2,Win32,60.33182504,,,,,,,,,,,,,,,,,,masks/mask_002.jpg,,,,,,,,,,,,,,,,,,,,,,,,,,,,,,,,,,,,,,,,,,,,,,,,0,4,4,1,1,,,,,,,,,,,,,,,,,,,,,,,,,,,,,,,,,,,,,,,,,
376666,001,2022-11-13_17h30.32.794,Info_measure_main_exp,2022.2.2,Win32,60.33182504,,,,,,,,,,,,,,,,,,,,,,,,,,,,,,7,1.0831,1,,,,,,,,,,,,0,131,5,5,2190,2250,absent_patch/patch0002190.jpg,absent_patch/patch0002250.jpg,,,,,,,,,,,,,,,,,,,,0.040364583,0.057291667,1,0,0,response1disk,33,-0.009114583,-0.00390625,1,0,0,center_square,0,32,32,93,1,,,,,,,,,,,,,,,,,,,,,,,
376666,001,2022-11-13_17h30.32.794,Info_measure_main_exp,2022.2.2,Win32,60.33182504,,,,,,,,,,,,,,,,,,masks/mask_004.jpg,,,,,,,,,,,,,,,,,,,,,,,,,,,,,,,,,,,,,,,,,,,0,0,0,3,1,,,,,,,,,,,,,,,,,,,,,,,,,,,,,,,,,,,,,,,,,,,,,,
376666,001,2022-11-13_17h30.32.794,Info_measure_main_exp,2022.2.2,Win32,60.33182504,,,,,,,,,,,,,,,,,,masks/mask_002.jpg,,,,,,,,,,,,,,,,,,,,,,,,,,,,,,,,,,,,,,,,,,,0,1,1,1,1,,,,,,,,,,,,,,,,,,,,,,,,,,,,,,,,,,,,,,,,,,,,,,
376666,001,2022-11-13_17h30.32.794,Info_measure_main_exp,2022.2.2,Win32,60.33182504,,,,,,,,,,,,,,,,,,masks/mask_003.jpg,,,,,,,,,,,,,,,,,,,,,,,,,,,,,,,,,,,,,,,,,,,0,2,2,2,1,,,,,,,,,,,,,,,,,,,,,,,,,,,,,,,,,,,,,,,,,,,,,,
376666,001,2022-11-13_17h30.32.794,Info_measure_main_exp,2022.2.2,Win32,60.33182504,,,,,,,,,,,,,,,,,,masks/mask_005.jpg,,,,,,,,,,,,,,,,,,,,,,,,,,,,,,,,,,,,,,,,,,,0,3,3,4,1,,,,,,,,,,,,,,,,,,,,,,,,,,,,,,,,,,,,,,,,,,,,,,
376666,001,2022-11-13_17h30.32.794,Info_measure_main_exp,2022.2.2,Win32,60.33182504,,,,,,,,,,,,,,,,,,masks/mask_001.jpg,,,,,,,,,,,,,,,,,,,,,,,,,,,,,,,,,,,,,,,,,,,0,4,4,0,1,,,,,,,,,,,,,,,,,,,,,,,,,,,,,,,,,,,,,,,,,,,,,,
376666,001,2022-11-13_17h30.32.794,Info_measure_main_exp,2022.2.2,Win32,60.33182504,,,,,,,,,,,,,,,,,,masks/mask_005.jpg,,,,,,,,,,,,,,,,,,,,,,,,,,,,,,,,,,,,,,,,,,,,,,,,0,0,0,4,1,,,,,,,,,,,,,,,,,,,,,,,,,,,,,,,,,,,,,,,,,
376666,001,2022-11-13_17h30.32.794,Info_measure_main_exp,2022.2.2,Win32,60.33182504,,,,,,,,,,,,,,,,,,masks/mask_003.jpg,,,,,,,,,,,,,,,,,,,,,,,,,,,,,,,,,,,,,,,,,,,,,,,,0,1,1,2,1,,,,,,,,,,,,,,,,,,,,,,,,,,,,,,,,,,,,,,,,,
376666,001,2022-11-13_17h30.32.794,Info_measure_main_exp,2022.2.2,Win32,60.33182504,,,,,,,,,,,,,,,,,,masks/mask_002.jpg,,,,,,,,,,,,,,,,,,,,,,,,,,,,,,,,,,,,,,,,,,,,,,,,0,2,2,1,1,,,,,,,,,,,,,,,,,,,,,,,,,,,,,,,,,,,,,,,,,
376666,001,2022-11-13_17h30.32.794,Info_measure_main_exp,2022.2.2,Win32,60.33182504,,,,,,,,,,,,,,,,,,masks/mask_001.jpg,,,,,,,,,,,,,,,,,,,,,,,,,,,,,,,,,,,,,,,,,,,,,,,,0,3,3,0,1,,,,,,,,,,,,,,,,,,,,,,,,,,,,,,,,,,,,,,,,,
376666,001,2022-11-13_17h30.32.794,Info_measure_main_exp,2022.2.2,Win32,60.33182504,,,,,,,,,,,,,,,,,,masks/mask_004.jpg,,,,,,,,,,,,,,,,,,,,,,,,,,,,,,,,,,,,,,,,,,,,,,,,0,4,4,3,1,,,,,,,,,,,,,,,,,,,,,,,,,,,,,,,,,,,,,,,,,
376666,001,2022-11-13_17h30.32.794,Info_measure_main_exp,2022.2.2,Win32,60.33182504,,,,,,,,,,,,,,,,,,,,,,,,,,,,,,7,1.6333,1,,,,,,,,,,,,0,131,5,5,1986,2142,absent_patch/patch0001986.jpg,absent_patch/patch0002142.jpg,,,,,,,,,,,,,,,,,,,,0.01171875,0.07421875,1,0,0,response1disk,34,0,-0.005208333,1,0,0,center_square,0,33,33,76,1,,,,,,,,,,,,,,,,,,,,,,,
376666,001,2022-11-13_17h30.32.794,Info_measure_main_exp,2022.2.2,Win32,60.33182504,,,,,,,,,,,,,,,,,,masks/mask_004.jpg,,,,,,,,,,,,,,,,,,,,,,,,,,,,,,,,,,,,,,,,,,,0,0,0,3,1,,,,,,,,,,,,,,,,,,,,,,,,,,,,,,,,,,,,,,,,,,,,,,
376666,001,2022-11-13_17h30.32.794,Info_measure_main_exp,2022.2.2,Win32,60.33182504,,,,,,,,,,,,,,,,,,masks/mask_001.jpg,,,,,,,,,,,,,,,,,,,,,,,,,,,,,,,,,,,,,,,,,,,0,1,1,0,1,,,,,,,,,,,,,,,,,,,,,,,,,,,,,,,,,,,,,,,,,,,,,,
376666,001,2022-11-13_17h30.32.794,Info_measure_main_exp,2022.2.2,Win32,60.33182504,,,,,,,,,,,,,,,,,,masks/mask_005.jpg,,,,,,,,,,,,,,,,,,,,,,,,,,,,,,,,,,,,,,,,,,,0,2,2,4,1,,,,,,,,,,,,,,,,,,,,,,,,,,,,,,,,,,,,,,,,,,,,,,
376666,001,2022-11-13_17h30.32.794,Info_measure_main_exp,2022.2.2,Win32,60.33182504,,,,,,,,,,,,,,,,,,masks/mask_002.jpg,,,,,,,,,,,,,,,,,,,,,,,,,,,,,,,,,,,,,,,,,,,0,3,3,1,1,,,,,,,,,,,,,,,,,,,,,,,,,,,,,,,,,,,,,,,,,,,,,,
376666,001,2022-11-13_17h30.32.794,Info_measure_main_exp,2022.2.2,Win32,60.33182504,,,,,,,,,,,,,,,,,,masks/mask_003.jpg,,,,,,,,,,,,,,,,,,,,,,,,,,,,,,,,,,,,,,,,,,,0,4,4,2,1,,,,,,,,,,,,,,,,,,,,,,,,,,,,,,,,,,,,,,,,,,,,,,
376666,001,2022-11-13_17h30.32.794,Info_measure_main_exp,2022.2.2,Win32,60.33182504,,,,,,,,,,,,,,,,,,masks/mask_002.jpg,,,,,,,,,,,,,,,,,,,,,,,,,,,,,,,,,,,,,,,,,,,,,,,,0,0,0,1,1,,,,,,,,,,,,,,,,,,,,,,,,,,,,,,,,,,,,,,,,,
376666,001,2022-11-13_17h30.32.794,Info_measure_main_exp,2022.2.2,Win32,60.33182504,,,,,,,,,,,,,,,,,,masks/mask_003.jpg,,,,,,,,,,,,,,,,,,,,,,,,,,,,,,,,,,,,,,,,,,,,,,,,0,1,1,2,1,,,,,,,,,,,,,,,,,,,,,,,,,,,,,,,,,,,,,,,,,
376666,001,2022-11-13_17h30.32.794,Info_measure_main_exp,2022.2.2,Win32,60.33182504,,,,,,,,,,,,,,,,,,masks/mask_005.jpg,,,,,,,,,,,,,,,,,,,,,,,,,,,,,,,,,,,,,,,,,,,,,,,,0,2,2,4,1,,,,,,,,,,,,,,,,,,,,,,,,,,,,,,,,,,,,,,,,,
376666,001,2022-11-13_17h30.32.794,Info_measure_main_exp,2022.2.2,Win32,60.33182504,,,,,,,,,,,,,,,,,,masks/mask_004.jpg,,,,,,,,,,,,,,,,,,,,,,,,,,,,,,,,,,,,,,,,,,,,,,,,0,3,3,3,1,,,,,,,,,,,,,,,,,,,,,,,,,,,,,,,,,,,,,,,,,
