participant,session,date,expName,psychopyVersion,OS,frameRate,space_press_continue.keys,space_press_continue.rt,space_press_continue_2.keys,space_press_continue_2.rt,space_press_continue_3.keys,space_press_continue_3.rt,space_press_continue_4.keys,space_press_continue_4.rt,space_press_continue_5.keys,space_press_continue_5.rt,space_press_continue_6.keys,space_press_continue_6.rt,prac_mask_loop_1.thisRepN,prac_mask_loop_1.thisTrialN,prac_mask_loop_1.thisN,prac_mask_loop_1.thisIndex,prac_mask_loop_1.ran,mask_name,prac_mask_loop_2.thisRepN,prac_mask_loop_2.thisTrialN,prac_mask_loop_2.thisN,prac_mask_loop_2.thisIndex,prac_mask_loop_2.ran,mouse_2.x,mouse_2.y,mouse_2.leftButton,mouse_2.midButton,mouse_2.rightButton,mouse_2.clicked_name,similarity,response_time,Pass,mouse_12.x,mouse_12.y,mouse_12.leftButton,mouse_12.midButton,mouse_12.rightButton,mouse_12.clicked_name,prac_loop.thisRepN,prac_loop.thisTrialN,prac_loop.thisN,prac_loop.thisIndex,prac_loop.ran,Pair_type,Image_num,Patch_1_loc,Patch_2_loc,Patch_1_info,Patch_2_info,Patch_1_name,Patch_2_name,mouse_1.x,mouse_1.y,mouse_1.leftButton,mouse_1.midButton,mouse_1.rightButton,mouse_1.time,mouse_1.clicked_name,space_press_continue_7.keys,space_press_continue_7.rt,mask_loop.thisRepN,mask_loop.thisTrialN,mask_loop.thisN,mask_loop.thisIndex,mask_loop.ran,mask_loop_2.thisRepN,mask_loop_2.thisTrialN,mask_loop_2.thisN,mask_loop_2.thisIndex,mask_loop_2.ran,mouse.x,mouse.y,mouse.leftButton,mouse.midButton,mouse.rightButton,mouse.clicked_name,trialNumber,mouse_11.x,mouse_11.y,mouse_11.leftButton,mouse_11.midButton,mouse_11.rightButton,mouse_11.clicked_name,first_pass_loop.thisRepN,first_pass_loop.thisTrialN,first_pass_loop.thisN,first_pass_loop.thisIndex,first_pass_loop.ran,mask_loop_3.thisRepN,mask_loop_3.thisTrialN,mask_loop_3.thisN,mask_loop_3.thisIndex,mask_loop_3.ran,mask_loop_4.thisRepN,mask_loop_4.thisTrialN,mask_loop_4.thisN,mask_loop_4.thisIndex,mask_loop_4.ran,mouse_3.x,mouse_3.y,mouse_3.leftButton,mouse_3.midButton,mouse_3.rightButton,mouse_3.clicked_name,double_pass_loop.thisRepN,double_pass_loop.thisTrialN,double_pass_loop.thisN,double_pass_loop.thisIndex,double_pass_loop.ran,space_exit.keys,space_exit.rt
602988,001,2022-11-13_23h28.38.990,Info_measure_main_exp,2022.2.2,MacIntel,59.84082341,,,,,,,,,,,,,,,,,,,,,,,,,,,,,,,,,,,,,,,,,,,,,,,,,,,,,,,,,,,,,,,,,,,,,,,,,,,,,,,,,,,,,,,,,,,,,,,,,,,,,,,,,,,,,,,
602988,001,2022-11-13_23h28.38.990,Info_measure_main_exp,2022.2.2,MacIntel,59.84082341,,,,,,,,,,,,,,,,,,,,,,,,,,,,,,,,,,,,,,,,,,,,,,,,,,,,,,,,,,,,,,,,,,,,,,,,,,,,,,,,,,,,,,,,,,,,,,,,,,,,,,,,,,,,,,,
602988,001,2022-11-13_23h28.38.990,Info_measure_main_exp,2022.2.2,MacIntel,59.84082341,space,7.117,,,,,,,,,,,,,,,,,,,,,,,,,,,,,,,,,,,,,,,,,,,,,,,,,,,,,,,,,,,,,,,,,,,,,,,,,,,,,,,,,,,,,,,,,,,,,,,,,,,,,,,,,,,,,
602988,001,2022-11-13_23h28.38.990,Info_measure_main_exp,2022.2.2,MacIntel,59.84082341,,,space,8.3786,,,,,,,,,,,,,,,,,,,,,,,,,,,,,,,,,,,,,,,,,,,,,,,,,,,,,,,,,,,,,,,,,,,,,,,,,,,,,,,,,,,,,,,,,,,,,,,,,,,,,,,,,,,
602988,001,2022-11-13_23h28.38.990,Info_measure_main_exp,2022.2.2,MacIntel,59.84082341,,,,,space,4.8738,,,,,,,,,,,,,,,,,,,,,,,,,,,,,,,,,,,,,,,,,,,,,,,,,,,,,,,,,,,,,,,,,,,,,,,,,,,,,,,,,,,,,,,,,,,,,,,,,,,,,,,,,
602988,001,2022-11-13_23h28.38.990,Info_measure_main_exp,2022.2.2,MacIntel,59.84082341,,,,,,,space,15.365,,,,,,,,,,,,,,,,,,,,,,,,,,,,,,,,,,,,,,,,,,,,,,,,,,,,,,,,,,,,,,,,,,,,,,,,,,,,,,,,,,,,,,,,,,,,,,,,,,,,,,,
602988,001,2022-11-13_23h28.38.990,Info_measure_main_exp,2022.2.2,MacIntel,59.84082341,,,,,,,,,space,3.31,,,,,,,,,,,,,,,,,,,,,,,,,,,,,,,,,,,,,,,,,,,,,,,,,,,,,,,,,,,,,,,,,,,,,,,,,,,,,,,,,,,,,,,,,,,,,,,,,,,,,
602988,001,2022-11-13_23h28.38.990,Info_measure_main_exp,2022.2.2,MacIntel,59.84082341,,,,,,,,,,,space,548.9934,,,,,,,,,,,,,,,,,,,,,,,,,,,,,,,,,,,,,,,,,,,,,,,,,,,,,,,,,,,,,,,,,,,,,,,,,,,,,,,,,,,,,,,,,,,,,,,,,,,
602988,001,2022-11-13_23h28.38.990,Info_measure_main_exp,2022.2.2,MacIntel,59.84082341,,,,,,,,,,,,,0,0,0,2,1,masks/mask_003.jpg,,,,,,,,,,,,,,,,,,,,,,,,,,,,,,,,,,,,,,,,,,,,,,,,,,,,,,,,,,,,,,,,,,,,,,,,,,,,,,,,,,,,,,,,,,,,,
602988,001,2022-11-13_23h28.38.990,Info_measure_main_exp,2022.2.2,MacIntel,59.84082341,,,,,,,,,,,,,0,1,1,4,1,masks/mask_005.jpg,,,,,,,,,,,,,,,,,,,,,,,,,,,,,,,,,,,,,,,,,,,,,,,,,,,,,,,,,,,,,,,,,,,,,,,,,,,,,,,,,,,,,,,,,,,,,
602988,001,2022-11-13_23h28.38.990,Info_measure_main_exp,2022.2.2,MacIntel,59.84082341,,,,,,,,,,,,,0,2,2,1,1,masks/mask_002.jpg,,,,,,,,,,,,,,,,,,,,,,,,,,,,,,,,,,,,,,,,,,,,,,,,,,,,,,,,,,,,,,,,,,,,,,,,,,,,,,,,,,,,,,,,,,,,,
602988,001,2022-11-13_23h28.38.990,Info_measure_main_exp,2022.2.2,MacIntel,59.84082341,,,,,,,,,,,,,0,3,3,3,1,masks/mask_004.jpg,,,,,,,,,,,,,,,,,,,,,,,,,,,,,,,,,,,,,,,,,,,,,,,,,,,,,,,,,,,,,,,,,,,,,,,,,,,,,,,,,,,,,,,,,,,,,
602988,001,2022-11-13_23h28.38.990,Info_measure_main_exp,2022.2.2,MacIntel,59.84082341,,,,,,,,,,,,,0,4,4,0,1,masks/mask_001.jpg,,,,,,,,,,,,,,,,,,,,,,,,,,,,,,,,,,,,,,,,,,,,,,,,,,,,,,,,,,,,,,,,,,,,,,,,,,,,,,,,,,,,,,,,,,,,,
602988,001,2022-11-13_23h28.38.990,Info_measure_main_exp,2022.2.2,MacIntel,59.84082341,,,,,,,,,,,,,,,,,,masks/mask_002.jpg,0,0,0,1,1,,,,,,,,,,,,,,,,,,,,,,,,,,,,,,,,,,,,,,,,,,,,,,,,,,,,,,,,,,,,,,,,,,,,,,,,,,,,,,,,,,,,,,,,
602988,001,2022-11-13_23h28.38.990,Info_measure_main_exp,2022.2.2,MacIntel,59.84082341,,,,,,,,,,,,,,,,,,masks/mask_004.jpg,0,1,1,3,1,,,,,,,,,,,,,,,,,,,,,,,,,,,,,,,,,,,,,,,,,,,,,,,,,,,,,,,,,,,,,,,,,,,,,,,,,,,,,,,,,,,,,,,,
602988,001,2022-11-13_23h28.38.990,Info_measure_main_exp,2022.2.2,MacIntel,59.84082341,,,,,,,,,,,,,,,,,,masks/mask_003.jpg,0,2,2,2,1,,,,,,,,,,,,,,,,,,,,,,,,,,,,,,,,,,,,,,,,,,,,,,,,,,,,,,,,,,,,,,,,,,,,,,,,,,,,,,,,,,,,,,,,
602988,001,2022-11-13_23h28.38.990,Info_measure_main_exp,2022.2.2,MacIntel,59.84082341,,,,,,,,,,,,,,,,,,masks/mask_005.jpg,0,3,3,4,1,,,,,,,,,,,,,,,,,,,,,,,,,,,,,,,,,,,,,,,,,,,,,,,,,,,,,,,,,,,,,,,,,,,,,,,,,,,,,,,,,,,,,,,,
602988,001,2022-11-13_23h28.38.990,Info_measure_main_exp,2022.2.2,MacIntel,59.84082341,,,,,,,,,,,,,,,,,,masks/mask_001.jpg,0,4,4,0,1,,,,,,,,,,,,,,,,,,,,,,,,,,,,,,,,,,,,,,,,,,,,,,,,,,,,,,,,,,,,,,,,,,,,,,,,,,,,,,,,,,,,,,,,
602988,001,2022-11-13_23h28.38.990,Info_measure_main_exp,2022.2.2,MacIntel,59.84082341,,,,,,,,,,,,,,,,,,,,,,,,-0.1114126,-0.104007929,1,0,0,response5disk,2,594.8855,1,0.005627147,0.00525908,1,0,0,center_square,0,0,0,1,1,0,131,5,5,2514,2490,prac_patch/patch0002514.jpg,prac_patch/patch0002490.jpg,,,,,,,,,,,,,,,,,,,,,,,,,,,,,,,,,,,,,,,,,,,,,,,,,,,,,,,,,,,,
602988,001,2022-11-13_23h28.38.990,Info_measure_main_exp,2022.2.2,MacIntel,59.84082341,,,,,,,,,,,,,0,0,0,1,1,masks/mask_002.jpg,,,,,,,,,,,,,,,,,,,,,,,,,,,,,,,,,,,,,,,,,,,,,,,,,,,,,,,,,,,,,,,,,,,,,,,,,,,,,,,,,,,,,,,,,,,,,
602988,001,2022-11-13_23h28.38.990,Info_measure_main_exp,2022.2.2,MacIntel,59.84082341,,,,,,,,,,,,,0,1,1,0,1,masks/mask_001.jpg,,,,,,,,,,,,,,,,,,,,,,,,,,,,,,,,,,,,,,,,,,,,,,,,,,,,,,,,,,,,,,,,,,,,,,,,,,,,,,,,,,,,,,,,,,,,,
602988,001,2022-11-13_23h28.38.990,Info_measure_main_exp,2022.2.2,MacIntel,59.84082341,,,,,,,,,,,,,0,2,2,4,1,masks/mask_005.jpg,,,,,,,,,,,,,,,,,,,,,,,,,,,,,,,,,,,,,,,,,,,,,,,,,,,,,,,,,,,,,,,,,,,,,,,,,,,,,,,,,,,,,,,,,,,,,
602988,001,2022-11-13_23h28.38.990,Info_measure_main_exp,2022.2.2,MacIntel,59.84082341,,,,,,,,,,,,,0,3,3,3,1,masks/mask_004.jpg,,,,,,,,,,,,,,,,,,,,,,,,,,,,,,,,,,,,,,,,,,,,,,,,,,,,,,,,,,,,,,,,,,,,,,,,,,,,,,,,,,,,,,,,,,,,,
602988,001,2022-11-13_23h28.38.990,Info_measure_main_exp,2022.2.2,MacIntel,59.84082341,,,,,,,,,,,,,0,4,4,2,1,masks/mask_003.jpg,,,,,,,,,,,,,,,,,,,,,,,,,,,,,,,,,,,,,,,,,,,,,,,,,,,,,,,,,,,,,,,,,,,,,,,,,,,,,,,,,,,,,,,,,,,,,
602988,001,2022-11-13_23h28.38.990,Info_measure_main_exp,2022.2.2,MacIntel,59.84082341,,,,,,,,,,,,,,,,,,masks/mask_003.jpg,0,0,0,2,1,,,,,,,,,,,,,,,,,,,,,,,,,,,,,,,,,,,,,,,,,,,,,,,,,,,,,,,,,,,,,,,,,,,,,,,,,,,,,,,,,,,,,,,,
602988,001,2022-11-13_23h28.38.990,Info_measure_main_exp,2022.2.2,MacIntel,59.84082341,,,,,,,,,,,,,,,,,,masks/mask_005.jpg,0,1,1,4,1,,,,,,,,,,,,,,,,,,,,,,,,,,,,,,,,,,,,,,,,,,,,,,,,,,,,,,,,,,,,,,,,,,,,,,,,,,,,,,,,,,,,,,,,
602988,001,2022-11-13_23h28.38.990,Info_measure_main_exp,2022.2.2,MacIntel,59.84082341,,,,,,,,,,,,,,,,,,masks/mask_002.jpg,0,2,2,1,1,,,,,,,,,,,,,,,,,,,,,,,,,,,,,,,,,,,,,,,,,,,,,,,,,,,,,,,,,,,,,,,,,,,,,,,,,,,,,,,,,,,,,,,,
602988,001,2022-11-13_23h28.38.990,Info_measure_main_exp,2022.2.2,MacIntel,59.84082341,,,,,,,,,,,,,,,,,,masks/mask_004.jpg,0,3,3,3,1,,,,,,,,,,,,,,,,,,,,,,,,,,,,,,,,,,,,,,,,,,,,,,,,,,,,,,,,,,,,,,,,,,,,,,,,,,,,,,,,,,,,,,,,
602988,001,2022-11-13_23h28.38.990,Info_measure_main_exp,2022.2.2,MacIntel,59.84082341,,,,,,,,,,,,,,,,,,masks/mask_001.jpg,0,4,4,0,1,,,,,,,,,,,,,,,,,,,,,,,,,,,,,,,,,,,,,,,,,,,,,,,,,,,,,,,,,,,,,,,,,,,,,,,,,,,,,,,,,,,,,,,,
602988,001,2022-11-13_23h28.38.990,Info_measure_main_exp,2022.2.2,MacIntel,59.84082341,,,,,,,,,,,,,,,,,,,,,,,,0.070253321,0.171465391,1,0,0,response1disk,7,606.2548,1,0.001788895,0.000902802,1,0,0,center_square,0,1,1,0,1,0,131,5,5,2370,2406,prac_patch/patch0002370.jpg,prac_patch/patch0002406.jpg,,,,,,,,,,,,,,,,,,,,,,,,,,,,,,,,,,,,,,,,,,,,,,,,,,,,,,,,,,,,
602988,001,2022-11-13_23h28.38.990,Info_measure_main_exp,2022.2.2,MacIntel,59.84082341,,,,,,,,,,,,,0,0,0,4,1,masks/mask_005.jpg,,,,,,,,,,,,,,,,,,,,,,,,,,,,,,,,,,,,,,,,,,,,,,,,,,,,,,,,,,,,,,,,,,,,,,,,,,,,,,,,,,,,,,,,,,,,,
602988,001,2022-11-13_23h28.38.990,Info_measure_main_exp,2022.2.2,MacIntel,59.84082341,,,,,,,,,,,,,0,1,1,2,1,masks/mask_003.jpg,,,,,,,,,,,,,,,,,,,,,,,,,,,,,,,,,,,,,,,,,,,,,,,,,,,,,,,,,,,,,,,,,,,,,,,,,,,,,,,,,,,,,,,,,,,,,
602988,001,2022-11-13_23h28.38.990,Info_measure_main_exp,2022.2.2,MacIntel,59.84082341,,,,,,,,,,,,,0,2,2,1,1,masks/mask_002.jpg,,,,,,,,,,,,,,,,,,,,,,,,,,,,,,,,,,,,,,,,,,,,,,,,,,,,,,,,,,,,,,,,,,,,,,,,,,,,,,,,,,,,,,,,,,,,,
602988,001,2022-11-13_23h28.38.990,Info_measure_main_exp,2022.2.2,MacIntel,59.84082341,,,,,,,,,,,,,0,3,3,0,1,masks/mask_001.jpg,,,,,,,,,,,,,,,,,,,,,,,,,,,,,,,,,,,,,,,,,,,,,,,,,,,,,,,,,,,,,,,,,,,,,,,,,,,,,,,,,,,,,,,,,,,,,
602988,001,2022-11-13_23h28.38.990,Info_measure_main_exp,2022.2.2,MacIntel,59.84082341,,,,,,,,,,,,,0,4,4,3,1,masks/mask_004.jpg,,,,,,,,,,,,,,,,,,,,,,,,,,,,,,,,,,,,,,,,,,,,,,,,,,,,,,,,,,,,,,,,,,,,,,,,,,,,,,,,,,,,,,,,,,,,,
602988,001,2022-11-13_23h28.38.990,Info_measure_main_exp,2022.2.2,MacIntel,59.84082341,,,,,,,,,,,,,,,,,,masks/mask_004.jpg,0,0,0,3,1,,,,,,,,,,,,,,,,,,,,,,,,,,,,,,,,,,,,,,,,,,,,,,,,,,,,,,,,,,,,,,,,,,,,,,,,,,,,,,,,,,,,,,,,
602988,001,2022-11-13_23h28.38.990,Info_measure_main_exp,2022.2.2,MacIntel,59.84082341,,,,,,,,,,,,,,,,,,masks/mask_003.jpg,0,1,1,2,1,,,,,,,,,,,,,,,,,,,,,,,,,,,,,,,,,,,,,,,,,,,,,,,,,,,,,,,,,,,,,,,,,,,,,,,,,,,,,,,,,,,,,,,,
602988,001,2022-11-13_23h28.38.990,Info_measure_main_exp,2022.2.2,MacIntel,59.84082341,,,,,,,,,,,,,,,,,,masks/mask_005.jpg,0,2,2,4,1,,,,,,,,,,,,,,,,,,,,,,,,,,,,,,,,,,,,,,,,,,,,,,,,,,,,,,,,,,,,,,,,,,,,,,,,,,,,,,,,,,,,,,,,
602988,001,2022-11-13_23h28.38.990,Info_measure_main_exp,2022.2.2,MacIntel,59.84082341,,,,,,,,,,,,,,,,,,masks/mask_001.jpg,0,3,3,0,1,,,,,,,,,,,,,,,,,,,,,,,,,,,,,,,,,,,,,,,,,,,,,,,,,,,,,,,,,,,,,,,,,,,,,,,,,,,,,,,,,,,,,,,,
602988,001,2022-11-13_23h28.38.990,Info_measure_main_exp,2022.2.2,MacIntel,59.84082341,,,,,,,,,,,,,,,,,,masks/mask_002.jpg,0,4,4,1,1,,,,,,,,,,,,,,,,,,,,,,,,,,,,,,,,,,,,,,,,,,,,,,,,,,,,,,,,,,,,,,,,,,,,,,,,,,,,,,,,,,,,,,,,
602988,001,2022-11-13_23h28.38.990,Info_measure_main_exp,2022.2.2,MacIntel,59.84082341,,,,,,,,,,,,,,,,,,,,,,,,-0.059433157,0.145162217,1,0,0,response7disk,0,616.1823,1,0.004406367,0.007500749,1,0,0,center_square,0,2,2,2,1,0,131,5,5,2526,2526,prac_patch/patch0002526.jpg,prac_patch/patch0002526.jpg,,,,,,,,,,,,,,,,,,,,,,,,,,,,,,,,,,,,,,,,,,,,,,,,,,,,,,,,,,,,
602988,001,2022-11-13_23h28.38.990,Info_measure_main_exp,2022.2.2,MacIntel,59.84082341,,,,,,,,,,,,,,,,,,,,,,,,,,,,,,,,,,,,,,,,,,,,,,,,,,,,,,,,,,,space,7.5513,,,,,,,,,,,,,,,,,,,,,,,,,,,,,,,,,,,,,,,,,,,,,,,,,,,
602988,001,2022-11-13_23h28.38.990,Info_measure_main_exp,2022.2.2,MacIntel,59.84082341,,,,,,,,,,,,,,,,,,masks/mask_002.jpg,,,,,,,,,,,,,,,,,,,,,,,,,,,,,,,,,,,,,,,,,,,0,0,0,1,1,,,,,,,,,,,,,,,,,,,,,,,,,,,,,,,,,,,,,,,,,,,,,,
602988,001,2022-11-13_23h28.38.990,Info_measure_main_exp,2022.2.2,MacIntel,59.84082341,,,,,,,,,,,,,,,,,,masks/mask_001.jpg,,,,,,,,,,,,,,,,,,,,,,,,,,,,,,,,,,,,,,,,,,,0,1,1,0,1,,,,,,,,,,,,,,,,,,,,,,,,,,,,,,,,,,,,,,,,,,,,,,
602988,001,2022-11-13_23h28.38.990,Info_measure_main_exp,2022.2.2,MacIntel,59.84082341,,,,,,,,,,,,,,,,,,masks/mask_004.jpg,,,,,,,,,,,,,,,,,,,,,,,,,,,,,,,,,,,,,,,,,,,0,2,2,3,1,,,,,,,,,,,,,,,,,,,,,,,,,,,,,,,,,,,,,,,,,,,,,,
602988,001,2022-11-13_23h28.38.990,Info_measure_main_exp,2022.2.2,MacIntel,59.84082341,,,,,,,,,,,,,,,,,,masks/mask_003.jpg,,,,,,,,,,,,,,,,,,,,,,,,,,,,,,,,,,,,,,,,,,,0,3,3,2,1,,,,,,,,,,,,,,,,,,,,,,,,,,,,,,,,,,,,,,,,,,,,,,
602988,001,2022-11-13_23h28.38.990,Info_measure_main_exp,2022.2.2,MacIntel,59.84082341,,,,,,,,,,,,,,,,,,masks/mask_005.jpg,,,,,,,,,,,,,,,,,,,,,,,,,,,,,,,,,,,,,,,,,,,0,4,4,4,1,,,,,,,,,,,,,,,,,,,,,,,,,,,,,,,,,,,,,,,,,,,,,,
602988,001,2022-11-13_23h28.38.990,Info_measure_main_exp,2022.2.2,MacIntel,59.84082341,,,,,,,,,,,,,,,,,,masks/mask_003.jpg,,,,,,,,,,,,,,,,,,,,,,,,,,,,,,,,,,,,,,,,,,,,,,,,0,0,0,2,1,,,,,,,,,,,,,,,,,,,,,,,,,,,,,,,,,,,,,,,,,
602988,001,2022-11-13_23h28.38.990,Info_measure_main_exp,2022.2.2,MacIntel,59.84082341,,,,,,,,,,,,,,,,,,masks/mask_002.jpg,,,,,,,,,,,,,,,,,,,,,,,,,,,,,,,,,,,,,,,,,,,,,,,,0,1,1,1,1,,,,,,,,,,,,,,,,,,,,,,,,,,,,,,,,,,,,,,,,,
602988,001,2022-11-13_23h28.38.990,Info_measure_main_exp,2022.2.2,MacIntel,59.84082341,,,,,,,,,,,,,,,,,,masks/mask_005.jpg,,,,,,,,,,,,,,,,,,,,,,,,,,,,,,,,,,,,,,,,,,,,,,,,0,2,2,4,1,,,,,,,,,,,,,,,,,,,,,,,,,,,,,,,,,,,,,,,,,
602988,001,2022-11-13_23h28.38.990,Info_measure_main_exp,2022.2.2,MacIntel,59.84082341,,,,,,,,,,,,,,,,,,masks/mask_004.jpg,,,,,,,,,,,,,,,,,,,,,,,,,,,,,,,,,,,,,,,,,,,,,,,,0,3,3,3,1,,,,,,,,,,,,,,,,,,,,,,,,,,,,,,,,,,,,,,,,,
602988,001,2022-11-13_23h28.38.990,Info_measure_main_exp,2022.2.2,MacIntel,59.84082341,,,,,,,,,,,,,,,,,,masks/mask_001.jpg,,,,,,,,,,,,,,,,,,,,,,,,,,,,,,,,,,,,,,,,,,,,,,,,0,4,4,0,1,,,,,,,,,,,,,,,,,,,,,,,,,,,,,,,,,,,,,,,,,
602988,001,2022-11-13_23h28.38.990,Info_measure_main_exp,2022.2.2,MacIntel,59.84082341,,,,,,,,,,,,,,,,,,,,,,,,,,,,,,7,1.9208,1,,,,,,,,,,,,0,131,5,5,2190,2214,absent_patch/patch0002190.jpg,absent_patch/patch0002214.jpg,,,,,,,,,,,,,,,,,,,,0.028528172,0.087006582,1,0,0,response1disk,1,-0.002690034,-0.007623438,1,0,0,center_square,0,0,0,35,1,,,,,,,,,,,,,,,,,,,,,,,
602988,001,2022-11-13_23h28.38.990,Info_measure_main_exp,2022.2.2,MacIntel,59.84082341,,,,,,,,,,,,,,,,,,masks/mask_002.jpg,,,,,,,,,,,,,,,,,,,,,,,,,,,,,,,,,,,,,,,,,,,0,0,0,1,1,,,,,,,,,,,,,,,,,,,,,,,,,,,,,,,,,,,,,,,,,,,,,,
602988,001,2022-11-13_23h28.38.990,Info_measure_main_exp,2022.2.2,MacIntel,59.84082341,,,,,,,,,,,,,,,,,,masks/mask_001.jpg,,,,,,,,,,,,,,,,,,,,,,,,,,,,,,,,,,,,,,,,,,,0,1,1,0,1,,,,,,,,,,,,,,,,,,,,,,,,,,,,,,,,,,,,,,,,,,,,,,
602988,001,2022-11-13_23h28.38.990,Info_measure_main_exp,2022.2.2,MacIntel,59.84082341,,,,,,,,,,,,,,,,,,masks/mask_004.jpg,,,,,,,,,,,,,,,,,,,,,,,,,,,,,,,,,,,,,,,,,,,0,2,2,3,1,,,,,,,,,,,,,,,,,,,,,,,,,,,,,,,,,,,,,,,,,,,,,,
602988,001,2022-11-13_23h28.38.990,Info_measure_main_exp,2022.2.2,MacIntel,59.84082341,,,,,,,,,,,,,,,,,,masks/mask_003.jpg,,,,,,,,,,,,,,,,,,,,,,,,,,,,,,,,,,,,,,,,,,,0,3,3,2,1,,,,,,,,,,,,,,,,,,,,,,,,,,,,,,,,,,,,,,,,,,,,,,
602988,001,2022-11-13_23h28.38.990,Info_measure_main_exp,2022.2.2,MacIntel,59.84082341,,,,,,,,,,,,,,,,,,masks/mask_005.jpg,,,,,,,,,,,,,,,,,,,,,,,,,,,,,,,,,,,,,,,,,,,0,4,4,4,1,,,,,,,,,,,,,,,,,,,,,,,,,,,,,,,,,,,,,,,,,,,,,,
602988,001,2022-11-13_23h28.38.990,Info_measure_main_exp,2022.2.2,MacIntel,59.84082341,,,,,,,,,,,,,,,,,,masks/mask_005.jpg,,,,,,,,,,,,,,,,,,,,,,,,,,,,,,,,,,,,,,,,,,,,,,,,0,0,0,4,1,,,,,,,,,,,,,,,,,,,,,,,,,,,,,,,,,,,,,,,,,
602988,001,2022-11-13_23h28.38.990,Info_measure_main_exp,2022.2.2,MacIntel,59.84082341,,,,,,,,,,,,,,,,,,masks/mask_004.jpg,,,,,,,,,,,,,,,,,,,,,,,,,,,,,,,,,,,,,,,,,,,,,,,,0,1,1,3,1,,,,,,,,,,,,,,,,,,,,,,,,,,,,,,,,,,,,,,,,,
602988,001,2022-11-13_23h28.38.990,Info_measure_main_exp,2022.2.2,MacIntel,59.84082341,,,,,,,,,,,,,,,,,,masks/mask_001.jpg,,,,,,,,,,,,,,,,,,,,,,,,,,,,,,,,,,,,,,,,,,,,,,,,0,2,2,0,1,,,,,,,,,,,,,,,,,,,,,,,,,,,,,,,,,,,,,,,,,
602988,001,2022-11-13_23h28.38.990,Info_measure_main_exp,2022.2.2,MacIntel,59.84082341,,,,,,,,,,,,,,,,,,masks/mask_003.jpg,,,,,,,,,,,,,,,,,,,,,,,,,,,,,,,,,,,,,,,,,,,,,,,,0,3,3,2,1,,,,,,,,,,,,,,,,,,,,,,,,,,,,,,,,,,,,,,,,,
602988,001,2022-11-13_23h28.38.990,Info_measure_main_exp,2022.2.2,MacIntel,59.84082341,,,,,,,,,,,,,,,,,,masks/mask_002.jpg,,,,,,,,,,,,,,,,,,,,,,,,,,,,,,,,,,,,,,,,,,,,,,,,0,4,4,1,1,,,,,,,,,,,,,,,,,,,,,,,,,,,,,,,,,,,,,,,,,
602988,001,2022-11-13_23h28.38.990,Info_measure_main_exp,2022.2.2,MacIntel,59.84082341,,,,,,,,,,,,,,,,,,,,,,,,,,,,,,7,0.6857,1,,,,,,,,,,,,0,131,5,5,2250,2238,absent_patch/patch0002250.jpg,absent_patch/patch0002238.jpg,,,,,,,,,,,,,,,,,,,,0.077616606,0.13221352,1,0,0,response1disk,2,-0.000804287,0.005005502,1,0,0,center_square,0,1,1,110,1,,,,,,,,,,,,,,,,,,,,,,,
602988,001,2022-11-13_23h28.38.990,Info_measure_main_exp,2022.2.2,MacIntel,59.84082341,,,,,,,,,,,,,,,,,,masks/mask_002.jpg,,,,,,,,,,,,,,,,,,,,,,,,,,,,,,,,,,,,,,,,,,,0,0,0,1,1,,,,,,,,,,,,,,,,,,,,,,,,,,,,,,,,,,,,,,,,,,,,,,
602988,001,2022-11-13_23h28.38.990,Info_measure_main_exp,2022.2.2,MacIntel,59.84082341,,,,,,,,,,,,,,,,,,masks/mask_005.jpg,,,,,,,,,,,,,,,,,,,,,,,,,,,,,,,,,,,,,,,,,,,0,1,1,4,1,,,,,,,,,,,,,,,,,,,,,,,,,,,,,,,,,,,,,,,,,,,,,,
602988,001,2022-11-13_23h28.38.990,Info_measure_main_exp,2022.2.2,MacIntel,59.84082341,,,,,,,,,,,,,,,,,,masks/mask_003.jpg,,,,,,,,,,,,,,,,,,,,,,,,,,,,,,,,,,,,,,,,,,,0,2,2,2,1,,,,,,,,,,,,,,,,,,,,,,,,,,,,,,,,,,,,,,,,,,,,,,
602988,001,2022-11-13_23h28.38.990,Info_measure_main_exp,2022.2.2,MacIntel,59.84082341,,,,,,,,,,,,,,,,,,masks/mask_001.jpg,,,,,,,,,,,,,,,,,,,,,,,,,,,,,,,,,,,,,,,,,,,0,3,3,0,1,,,,,,,,,,,,,,,,,,,,,,,,,,,,,,,,,,,,,,,,,,,,,,
602988,001,2022-11-13_23h28.38.990,Info_measure_main_exp,2022.2.2,MacIntel,59.84082341,,,,,,,,,,,,,,,,,,masks/mask_004.jpg,,,,,,,,,,,,,,,,,,,,,,,,,,,,,,,,,,,,,,,,,,,0,4,4,3,1,,,,,,,,,,,,,,,,,,,,,,,,,,,,,,,,,,,,,,,,,,,,,,
602988,001,2022-11-13_23h28.38.990,Info_measure_main_exp,2022.2.2,MacIntel,59.84082341,,,,,,,,,,,,,,,,,,masks/mask_001.jpg,,,,,,,,,,,,,,,,,,,,,,,,,,,,,,,,,,,,,,,,,,,,,,,,0,0,0,0,1,,,,,,,,,,,,,,,,,,,,,,,,,,,,,,,,,,,,,,,,,
602988,001,2022-11-13_23h28.38.990,Info_measure_main_exp,2022.2.2,MacIntel,59.84082341,,,,,,,,,,,,,,,,,,masks/mask_004.jpg,,,,,,,,,,,,,,,,,,,,,,,,,,,,,,,,,,,,,,,,,,,,,,,,0,1,1,3,1,,,,,,,,,,,,,,,,,,,,,,,,,,,,,,,,,,,,,,,,,
602988,001,2022-11-13_23h28.38.990,Info_measure_main_exp,2022.2.2,MacIntel,59.84082341,,,,,,,,,,,,,,,,,,masks/mask_002.jpg,,,,,,,,,,,,,,,,,,,,,,,,,,,,,,,,,,,,,,,,,,,,,,,,0,2,2,1,1,,,,,,,,,,,,,,,,,,,,,,,,,,,,,,,,,,,,,,,,,
602988,001,2022-11-13_23h28.38.990,Info_measure_main_exp,2022.2.2,MacIntel,59.84082341,,,,,,,,,,,,,,,,,,masks/mask_003.jpg,,,,,,,,,,,,,,,,,,,,,,,,,,,,,,,,,,,,,,,,,,,,,,,,0,3,3,2,1,,,,,,,,,,,,,,,,,,,,,,,,,,,,,,,,,,,,,,,,,
602988,001,2022-11-13_23h28.38.990,Info_measure_main_exp,2022.2.2,MacIntel,59.84082341,,,,,,,,,,,,,,,,,,masks/mask_005.jpg,,,,,,,,,,,,,,,,,,,,,,,,,,,,,,,,,,,,,,,,,,,,,,,,0,4,4,4,1,,,,,,,,,,,,,,,,,,,,,,,,,,,,,,,,,,,,,,,,,
602988,001,2022-11-13_23h28.38.990,Info_measure_main_exp,2022.2.2,MacIntel,59.84082341,,,,,,,,,,,,,,,,,,,,,,,,,,,,,,5,2.2717,1,,,,,,,,,,,,0,131,5,5,1974,2142,absent_patch/patch0001974.jpg,absent_patch/patch0002142.jpg,,,,,,,,,,,,,,,,,,,,0.195676545,-0.04758112,1,0,0,response3disk,3,0.001782938,0.000899824,1,0,0,center_square,0,2,2,38,1,,,,,,,,,,,,,,,,,,,,,,,
602988,001,2022-11-13_23h28.38.990,Info_measure_main_exp,2022.2.2,MacIntel,59.84082341,,,,,,,,,,,,,,,,,,masks/mask_005.jpg,,,,,,,,,,,,,,,,,,,,,,,,,,,,,,,,,,,,,,,,,,,0,0,0,4,1,,,,,,,,,,,,,,,,,,,,,,,,,,,,,,,,,,,,,,,,,,,,,,
602988,001,2022-11-13_23h28.38.990,Info_measure_main_exp,2022.2.2,MacIntel,59.84082341,,,,,,,,,,,,,,,,,,masks/mask_002.jpg,,,,,,,,,,,,,,,,,,,,,,,,,,,,,,,,,,,,,,,,,,,0,1,1,1,1,,,,,,,,,,,,,,,,,,,,,,,,,,,,,,,,,,,,,,,,,,,,,,
602988,001,2022-11-13_23h28.38.990,Info_measure_main_exp,2022.2.2,MacIntel,59.84082341,,,,,,,,,,,,,,,,,,masks/mask_004.jpg,,,,,,,,,,,,,,,,,,,,,,,,,,,,,,,,,,,,,,,,,,,0,2,2,3,1,,,,,,,,,,,,,,,,,,,,,,,,,,,,,,,,,,,,,,,,,,,,,,
602988,001,2022-11-13_23h28.38.990,Info_measure_main_exp,2022.2.2,MacIntel,59.84082341,,,,,,,,,,,,,,,,,,masks/mask_003.jpg,,,,,,,,,,,,,,,,,,,,,,,,,,,,,,,,,,,,,,,,,,,0,3,3,2,1,,,,,,,,,,,,,,,,,,,,,,,,,,,,,,,,,,,,,,,,,,,,,,
602988,001,2022-11-13_23h28.38.990,Info_measure_main_exp,2022.2.2,MacIntel,59.84082341,,,,,,,,,,,,,,,,,,masks/mask_001.jpg,,,,,,,,,,,,,,,,,,,,,,,,,,,,,,,,,,,,,,,,,,,0,4,4,0,1,,,,,,,,,,,,,,,,,,,,,,,,,,,,,,,,,,,,,,,,,,,,,,
602988,001,2022-11-13_23h28.38.990,Info_measure_main_exp,2022.2.2,MacIntel,59.84082341,,,,,,,,,,,,,,,,,,masks/mask_003.jpg,,,,,,,,,,,,,,,,,,,,,,,,,,,,,,,,,,,,,,,,,,,,,,,,0,0,0,2,1,,,,,,,,,,,,,,,,,,,,,,,,,,,,,,,,,,,,,,,,,
602988,001,2022-11-13_23h28.38.990,Info_measure_main_exp,2022.2.2,MacIntel,59.84082341,,,,,,,,,,,,,,,,,,masks/mask_004.jpg,,,,,,,,,,,,,,,,,,,,,,,,,,,,,,,,,,,,,,,,,,,,,,,,0,1,1,3,1,,,,,,,,,,,,,,,,,,,,,,,,,,,,,,,,,,,,,,,,,
602988,001,2022-11-13_23h28.38.990,Info_measure_main_exp,2022.2.2,MacIntel,59.84082341,,,,,,,,,,,,,,,,,,masks/mask_005.jpg,,,,,,,,,,,,,,,,,,,,,,,,,,,,,,,,,,,,,,,,,,,,,,,,0,2,2,4,1,,,,,,,,,,,,,,,,,,,,,,,,,,,,,,,,,,,,,,,,,
602988,001,2022-11-13_23h28.38.990,Info_measure_main_exp,2022.2.2,MacIntel,59.84082341,,,,,,,,,,,,,,,,,,masks/mask_002.jpg,,,,,,,,,,,,,,,,,,,,,,,,,,,,,,,,,,,,,,,,,,,,,,,,0,3,3,1,1,,,,,,,,,,,,,,,,,,,,,,,,,,,,,,,,,,,,,,,,,
602988,001,2022-11-13_23h28.38.990,Info_measure_main_exp,2022.2.2,MacIntel,59.84082341,,,,,,,,,,,,,,,,,,masks/mask_001.jpg,,,,,,,,,,,,,,,,,,,,,,,,,,,,,,,,,,,,,,,,,,,,,,,,0,4,4,0,1,,,,,,,,,,,,,,,,,,,,,,,,,,,,,,,,,,,,,,,,,
602988,001,2022-11-13_23h28.38.990,Info_measure_main_exp,2022.2.2,MacIntel,59.84082341,,,,,,,,,,,,,,,,,,,,,,,,,,,,,,7,2.238,1,,,,,,,,,,,,0,131,5,5,2250,2298,absent_patch/patch0002250.jpg,absent_patch/patch0002298.jpg,,,,,,,,,,,,,,,,,,,,0.068017996,0.163063194,1,0,0,response1disk,4,0.005408225,-0.005944546,1,0,0,center_square,0,3,3,59,1,,,,,,,,,,,,,,,,,,,,,,,
602988,001,2022-11-13_23h28.38.990,Info_measure_main_exp,2022.2.2,MacIntel,59.84082341,,,,,,,,,,,,,,,,,,masks/mask_001.jpg,,,,,,,,,,,,,,,,,,,,,,,,,,,,,,,,,,,,,,,,,,,0,0,0,0,1,,,,,,,,,,,,,,,,,,,,,,,,,,,,,,,,,,,,,,,,,,,,,,
602988,001,2022-11-13_23h28.38.990,Info_measure_main_exp,2022.2.2,MacIntel,59.84082341,,,,,,,,,,,,,,,,,,masks/mask_003.jpg,,,,,,,,,,,,,,,,,,,,,,,,,,,,,,,,,,,,,,,,,,,0,1,1,2,1,,,,,,,,,,,,,,,,,,,,,,,,,,,,,,,,,,,,,,,,,,,,,,
602988,001,2022-11-13_23h28.38.990,Info_measure_main_exp,2022.2.2,MacIntel,59.84082341,,,,,,,,,,,,,,,,,,masks/mask_004.jpg,,,,,,,,,,,,,,,,,,,,,,,,,,,,,,,,,,,,,,,,,,,0,2,2,3,1,,,,,,,,,,,,,,,,,,,,,,,,,,,,,,,,,,,,,,,,,,,,,,
602988,001,2022-11-13_23h28.38.990,Info_measure_main_exp,2022.2.2,MacIntel,59.84082341,,,,,,,,,,,,,,,,,,masks/mask_002.jpg,,,,,,,,,,,,,,,,,,,,,,,,,,,,,,,,,,,,,,,,,,,0,3,3,1,1,,,,,,,,,,,,,,,,,,,,,,,,,,,,,,,,,,,,,,,,,,,,,,
602988,001,2022-11-13_23h28.38.990,Info_measure_main_exp,2022.2.2,MacIntel,59.84082341,,,,,,,,,,,,,,,,,,masks/mask_005.jpg,,,,,,,,,,,,,,,,,,,,,,,,,,,,,,,,,,,,,,,,,,,0,4,4,4,1,,,,,,,,,,,,,,,,,,,,,,,,,,,,,,,,,,,,,,,,,,,,,,
602988,001,2022-11-13_23h28.38.990,Info_measure_main_exp,2022.2.2,MacIntel,59.84082341,,,,,,,,,,,,,,,,,,masks/mask_004.jpg,,,,,,,,,,,,,,,,,,,,,,,,,,,,,,,,,,,,,,,,,,,,,,,,0,0,0,3,1,,,,,,,,,,,,,,,,,,,,,,,,,,,,,,,,,,,,,,,,,
602988,001,2022-11-13_23h28.38.990,Info_measure_main_exp,2022.2.2,MacIntel,59.84082341,,,,,,,,,,,,,,,,,,masks/mask_005.jpg,,,,,,,,,,,,,,,,,,,,,,,,,,,,,,,,,,,,,,,,,,,,,,,,0,1,1,4,1,,,,,,,,,,,,,,,,,,,,,,,,,,,,,,,,,,,,,,,,,
602988,001,2022-11-13_23h28.38.990,Info_measure_main_exp,2022.2.2,MacIntel,59.84082341,,,,,,,,,,,,,,,,,,masks/mask_001.jpg,,,,,,,,,,,,,,,,,,,,,,,,,,,,,,,,,,,,,,,,,,,,,,,,0,2,2,0,1,,,,,,,,,,,,,,,,,,,,,,,,,,,,,,,,,,,,,,,,,
602988,001,2022-11-13_23h28.38.990,Info_measure_main_exp,2022.2.2,MacIntel,59.84082341,,,,,,,,,,,,,,,,,,masks/mask_002.jpg,,,,,,,,,,,,,,,,,,,,,,,,,,,,,,,,,,,,,,,,,,,,,,,,0,3,3,1,1,,,,,,,,,,,,,,,,,,,,,,,,,,,,,,,,,,,,,,,,,
602988,001,2022-11-13_23h28.38.990,Info_measure_main_exp,2022.2.2,MacIntel,59.84082341,,,,,,,,,,,,,,,,,,masks/mask_003.jpg,,,,,,,,,,,,,,,,,,,,,,,,,,,,,,,,,,,,,,,,,,,,,,,,0,4,4,2,1,,,,,,,,,,,,,,,,,,,,,,,,,,,,,,,,,,,,,,,,,
602988,001,2022-11-13_23h28.38.990,Info_measure_main_exp,2022.2.2,MacIntel,59.84082341,,,,,,,,,,,,,,,,,,,,,,,,,,,,,,5,1.5718,1,,,,,,,,,,,,0,131,5,5,2166,2154,absent_patch/patch0002166.jpg,absent_patch/patch0002154.jpg,,,,,,,,,,,,,,,,,,,,0.110693715,-0.043266886,1,0,0,response3disk,5,-0.005172749,-0.001772882,1,0,0,center_square,0,4,4,79,1,,,,,,,,,,,,,,,,,,,,,,,
602988,001,2022-11-13_23h28.38.990,Info_measure_main_exp,2022.2.2,MacIntel,59.84082341,,,,,,,,,,,,,,,,,,masks/mask_003.jpg,,,,,,,,,,,,,,,,,,,,,,,,,,,,,,,,,,,,,,,,,,,0,0,0,2,1,,,,,,,,,,,,,,,,,,,,,,,,,,,,,,,,,,,,,,,,,,,,,,
602988,001,2022-11-13_23h28.38.990,Info_measure_main_exp,2022.2.2,MacIntel,59.84082341,,,,,,,,,,,,,,,,,,masks/mask_004.jpg,,,,,,,,,,,,,,,,,,,,,,,,,,,,,,,,,,,,,,,,,,,0,1,1,3,1,,,,,,,,,,,,,,,,,,,,,,,,,,,,,,,,,,,,,,,,,,,,,,
602988,001,2022-11-13_23h28.38.990,Info_measure_main_exp,2022.2.2,MacIntel,59.84082341,,,,,,,,,,,,,,,,,,masks/mask_001.jpg,,,,,,,,,,,,,,,,,,,,,,,,,,,,,,,,,,,,,,,,,,,0,2,2,0,1,,,,,,,,,,,,,,,,,,,,,,,,,,,,,,,,,,,,,,,,,,,,,,
602988,001,2022-11-13_23h28.38.990,Info_measure_main_exp,2022.2.2,MacIntel,59.84082341,,,,,,,,,,,,,,,,,,masks/mask_005.jpg,,,,,,,,,,,,,,,,,,,,,,,,,,,,,,,,,,,,,,,,,,,0,3,3,4,1,,,,,,,,,,,,,,,,,,,,,,,,,,,,,,,,,,,,,,,,,,,,,,
602988,001,2022-11-13_23h28.38.990,Info_measure_main_exp,2022.2.2,MacIntel,59.84082341,,,,,,,,,,,,,,,,,,masks/mask_002.jpg,,,,,,,,,,,,,,,,,,,,,,,,,,,,,,,,,,,,,,,,,,,0,4,4,1,1,,,,,,,,,,,,,,,,,,,,,,,,,,,,,,,,,,,,,,,,,,,,,,
602988,001,2022-11-13_23h28.38.990,Info_measure_main_exp,2022.2.2,MacIntel,59.84082341,,,,,,,,,,,,,,,,,,masks/mask_003.jpg,,,,,,,,,,,,,,,,,,,,,,,,,,,,,,,,,,,,,,,,,,,,,,,,0,0,0,2,1,,,,,,,,,,,,,,,,,,,,,,,,,,,,,,,,,,,,,,,,,
602988,001,2022-11-13_23h28.38.990,Info_measure_main_exp,2022.2.2,MacIntel,59.84082341,,,,,,,,,,,,,,,,,,masks/mask_002.jpg,,,,,,,,,,,,,,,,,,,,,,,,,,,,,,,,,,,,,,,,,,,,,,,,0,1,1,1,1,,,,,,,,,,,,,,,,,,,,,,,,,,,,,,,,,,,,,,,,,
602988,001,2022-11-13_23h28.38.990,Info_measure_main_exp,2022.2.2,MacIntel,59.84082341,,,,,,,,,,,,,,,,,,masks/mask_005.jpg,,,,,,,,,,,,,,,,,,,,,,,,,,,,,,,,,,,,,,,,,,,,,,,,0,2,2,4,1,,,,,,,,,,,,,,,,,,,,,,,,,,,,,,,,,,,,,,,,,
602988,001,2022-11-13_23h28.38.990,Info_measure_main_exp,2022.2.2,MacIntel,59.84082341,,,,,,,,,,,,,,,,,,masks/mask_001.jpg,,,,,,,,,,,,,,,,,,,,,,,,,,,,,,,,,,,,,,,,,,,,,,,,0,3,3,0,1,,,,,,,,,,,,,,,,,,,,,,,,,,,,,,,,,,,,,,,,,
602988,001,2022-11-13_23h28.38.990,Info_measure_main_exp,2022.2.2,MacIntel,59.84082341,,,,,,,,,,,,,,,,,,masks/mask_004.jpg,,,,,,,,,,,,,,,,,,,,,,,,,,,,,,,,,,,,,,,,,,,,,,,,0,4,4,3,1,,,,,,,,,,,,,,,,,,,,,,,,,,,,,,,,,,,,,,,,,
602988,001,2022-11-13_23h28.38.990,Info_measure_main_exp,2022.2.2,MacIntel,59.84082341,,,,,,,,,,,,,,,,,,,,,,,,,,,,,,5,1.3205,1,,,,,,,,,,,,0,131,5,5,2142,2190,absent_patch/patch0002142.jpg,absent_patch/patch0002190.jpg,,,,,,,,,,,,,,,,,,,,0.111525542,-0.047004806,1,0,0,response3disk,6,-0.010770887,-0.011858071,1,0,0,center_square,0,5,5,70,1,,,,,,,,,,,,,,,,,,,,,,,
602988,001,2022-11-13_23h28.38.990,Info_measure_main_exp,2022.2.2,MacIntel,59.84082341,,,,,,,,,,,,,,,,,,masks/mask_001.jpg,,,,,,,,,,,,,,,,,,,,,,,,,,,,,,,,,,,,,,,,,,,0,0,0,0,1,,,,,,,,,,,,,,,,,,,,,,,,,,,,,,,,,,,,,,,,,,,,,,
602988,001,2022-11-13_23h28.38.990,Info_measure_main_exp,2022.2.2,MacIntel,59.84082341,,,,,,,,,,,,,,,,,,masks/mask_003.jpg,,,,,,,,,,,,,,,,,,,,,,,,,,,,,,,,,,,,,,,,,,,0,1,1,2,1,,,,,,,,,,,,,,,,,,,,,,,,,,,,,,,,,,,,,,,,,,,,,,
602988,001,2022-11-13_23h28.38.990,Info_measure_main_exp,2022.2.2,MacIntel,59.84082341,,,,,,,,,,,,,,,,,,masks/mask_002.jpg,,,,,,,,,,,,,,,,,,,,,,,,,,,,,,,,,,,,,,,,,,,0,2,2,1,1,,,,,,,,,,,,,,,,,,,,,,,,,,,,,,,,,,,,,,,,,,,,,,
602988,001,2022-11-13_23h28.38.990,Info_measure_main_exp,2022.2.2,MacIntel,59.84082341,,,,,,,,,,,,,,,,,,masks/mask_004.jpg,,,,,,,,,,,,,,,,,,,,,,,,,,,,,,,,,,,,,,,,,,,0,3,3,3,1,,,,,,,,,,,,,,,,,,,,,,,,,,,,,,,,,,,,,,,,,,,,,,
602988,001,2022-11-13_23h28.38.990,Info_measure_main_exp,2022.2.2,MacIntel,59.84082341,,,,,,,,,,,,,,,,,,masks/mask_005.jpg,,,,,,,,,,,,,,,,,,,,,,,,,,,,,,,,,,,,,,,,,,,0,4,4,4,1,,,,,,,,,,,,,,,,,,,,,,,,,,,,,,,,,,,,,,,,,,,,,,
602988,001,2022-11-13_23h28.38.990,Info_measure_main_exp,2022.2.2,MacIntel,59.84082341,,,,,,,,,,,,,,,,,,masks/mask_001.jpg,,,,,,,,,,,,,,,,,,,,,,,,,,,,,,,,,,,,,,,,,,,,,,,,0,0,0,0,1,,,,,,,,,,,,,,,,,,,,,,,,,,,,,,,,,,,,,,,,,
602988,001,2022-11-13_23h28.38.990,Info_measure_main_exp,2022.2.2,MacIntel,59.84082341,,,,,,,,,,,,,,,,,,masks/mask_005.jpg,,,,,,,,,,,,,,,,,,,,,,,,,,,,,,,,,,,,,,,,,,,,,,,,0,1,1,4,1,,,,,,,,,,,,,,,,,,,,,,,,,,,,,,,,,,,,,,,,,
602988,001,2022-11-13_23h28.38.990,Info_measure_main_exp,2022.2.2,MacIntel,59.84082341,,,,,,,,,,,,,,,,,,masks/mask_004.jpg,,,,,,,,,,,,,,,,,,,,,,,,,,,,,,,,,,,,,,,,,,,,,,,,0,2,2,3,1,,,,,,,,,,,,,,,,,,,,,,,,,,,,,,,,,,,,,,,,,
602988,001,2022-11-13_23h28.38.990,Info_measure_main_exp,2022.2.2,MacIntel,59.84082341,,,,,,,,,,,,,,,,,,masks/mask_003.jpg,,,,,,,,,,,,,,,,,,,,,,,,,,,,,,,,,,,,,,,,,,,,,,,,0,3,3,2,1,,,,,,,,,,,,,,,,,,,,,,,,,,,,,,,,,,,,,,,,,
602988,001,2022-11-13_23h28.38.990,Info_measure_main_exp,2022.2.2,MacIntel,59.84082341,,,,,,,,,,,,,,,,,,masks/mask_002.jpg,,,,,,,,,,,,,,,,,,,,,,,,,,,,,,,,,,,,,,,,,,,,,,,,0,4,4,1,1,,,,,,,,,,,,,,,,,,,,,,,,,,,,,,,,,,,,,,,,,
602988,001,2022-11-13_23h28.38.990,Info_measure_main_exp,2022.2.2,MacIntel,59.84082341,,,,,,,,,,,,,,,,,,,,,,,,,,,,,,4,1.5206,1,,,,,,,,,,,,0,131,5,5,2082,2298,absent_patch/patch0002082.jpg,absent_patch/patch0002298.jpg,,,,,,,,,,,,,,,,,,,,0.032164522,-0.157479677,1,0,0,response3disk,7,0.002231458,-0.01111683,1,0,0,center_square,0,6,6,107,1,,,,,,,,,,,,,,,,,,,,,,,
602988,001,2022-11-13_23h28.38.990,Info_measure_main_exp,2022.2.2,MacIntel,59.84082341,,,,,,,,,,,,,,,,,,masks/mask_001.jpg,,,,,,,,,,,,,,,,,,,,,,,,,,,,,,,,,,,,,,,,,,,0,0,0,0,1,,,,,,,,,,,,,,,,,,,,,,,,,,,,,,,,,,,,,,,,,,,,,,
602988,001,2022-11-13_23h28.38.990,Info_measure_main_exp,2022.2.2,MacIntel,59.84082341,,,,,,,,,,,,,,,,,,masks/mask_004.jpg,,,,,,,,,,,,,,,,,,,,,,,,,,,,,,,,,,,,,,,,,,,0,1,1,3,1,,,,,,,,,,,,,,,,,,,,,,,,,,,,,,,,,,,,,,,,,,,,,,
602988,001,2022-11-13_23h28.38.990,Info_measure_main_exp,2022.2.2,MacIntel,59.84082341,,,,,,,,,,,,,,,,,,masks/mask_003.jpg,,,,,,,,,,,,,,,,,,,,,,,,,,,,,,,,,,,,,,,,,,,0,2,2,2,1,,,,,,,,,,,,,,,,,,,,,,,,,,,,,,,,,,,,,,,,,,,,,,
602988,001,2022-11-13_23h28.38.990,Info_measure_main_exp,2022.2.2,MacIntel,59.84082341,,,,,,,,,,,,,,,,,,masks/mask_002.jpg,,,,,,,,,,,,,,,,,,,,,,,,,,,,,,,,,,,,,,,,,,,0,3,3,1,1,,,,,,,,,,,,,,,,,,,,,,,,,,,,,,,,,,,,,,,,,,,,,,
602988,001,2022-11-13_23h28.38.990,Info_measure_main_exp,2022.2.2,MacIntel,59.84082341,,,,,,,,,,,,,,,,,,masks/mask_005.jpg,,,,,,,,,,,,,,,,,,,,,,,,,,,,,,,,,,,,,,,,,,,0,4,4,4,1,,,,,,,,,,,,,,,,,,,,,,,,,,,,,,,,,,,,,,,,,,,,,,
602988,001,2022-11-13_23h28.38.990,Info_measure_main_exp,2022.2.2,MacIntel,59.84082341,,,,,,,,,,,,,,,,,,masks/mask_005.jpg,,,,,,,,,,,,,,,,,,,,,,,,,,,,,,,,,,,,,,,,,,,,,,,,0,0,0,4,1,,,,,,,,,,,,,,,,,,,,,,,,,,,,,,,,,,,,,,,,,
602988,001,2022-11-13_23h28.38.990,Info_measure_main_exp,2022.2.2,MacIntel,59.84082341,,,,,,,,,,,,,,,,,,masks/mask_004.jpg,,,,,,,,,,,,,,,,,,,,,,,,,,,,,,,,,,,,,,,,,,,,,,,,0,1,1,3,1,,,,,,,,,,,,,,,,,,,,,,,,,,,,,,,,,,,,,,,,,
602988,001,2022-11-13_23h28.38.990,Info_measure_main_exp,2022.2.2,MacIntel,59.84082341,,,,,,,,,,,,,,,,,,masks/mask_003.jpg,,,,,,,,,,,,,,,,,,,,,,,,,,,,,,,,,,,,,,,,,,,,,,,,0,2,2,2,1,,,,,,,,,,,,,,,,,,,,,,,,,,,,,,,,,,,,,,,,,
602988,001,2022-11-13_23h28.38.990,Info_measure_main_exp,2022.2.2,MacIntel,59.84082341,,,,,,,,,,,,,,,,,,masks/mask_002.jpg,,,,,,,,,,,,,,,,,,,,,,,,,,,,,,,,,,,,,,,,,,,,,,,,0,3,3,1,1,,,,,,,,,,,,,,,,,,,,,,,,,,,,,,,,,,,,,,,,,
602988,001,2022-11-13_23h28.38.990,Info_measure_main_exp,2022.2.2,MacIntel,59.84082341,,,,,,,,,,,,,,,,,,masks/mask_001.jpg,,,,,,,,,,,,,,,,,,,,,,,,,,,,,,,,,,,,,,,,,,,,,,,,0,4,4,0,1,,,,,,,,,,,,,,,,,,,,,,,,,,,,,,,,,,,,,,,,,
602988,001,2022-11-13_23h28.38.990,Info_measure_main_exp,2022.2.2,MacIntel,59.84082341,,,,,,,,,,,,,,,,,,,,,,,,,,,,,,0,0.9193,1,,,,,,,,,,,,0,131,5,5,2154,2154,absent_patch/patch0002154.jpg,absent_patch/patch0002154.jpg,,,,,,,,,,,,,,,,,,,,-0.056613472,0.168008125,1,0,0,response7disk,8,0.002099331,-0.016095798,1,0,0,center_square,0,7,7,89,1,,,,,,,,,,,,,,,,,,,,,,,
602988,001,2022-11-13_23h28.38.990,Info_measure_main_exp,2022.2.2,MacIntel,59.84082341,,,,,,,,,,,,,,,,,,masks/mask_003.jpg,,,,,,,,,,,,,,,,,,,,,,,,,,,,,,,,,,,,,,,,,,,0,0,0,2,1,,,,,,,,,,,,,,,,,,,,,,,,,,,,,,,,,,,,,,,,,,,,,,
602988,001,2022-11-13_23h28.38.990,Info_measure_main_exp,2022.2.2,MacIntel,59.84082341,,,,,,,,,,,,,,,,,,masks/mask_001.jpg,,,,,,,,,,,,,,,,,,,,,,,,,,,,,,,,,,,,,,,,,,,0,1,1,0,1,,,,,,,,,,,,,,,,,,,,,,,,,,,,,,,,,,,,,,,,,,,,,,
602988,001,2022-11-13_23h28.38.990,Info_measure_main_exp,2022.2.2,MacIntel,59.84082341,,,,,,,,,,,,,,,,,,masks/mask_005.jpg,,,,,,,,,,,,,,,,,,,,,,,,,,,,,,,,,,,,,,,,,,,0,2,2,4,1,,,,,,,,,,,,,,,,,,,,,,,,,,,,,,,,,,,,,,,,,,,,,,
602988,001,2022-11-13_23h28.38.990,Info_measure_main_exp,2022.2.2,MacIntel,59.84082341,,,,,,,,,,,,,,,,,,masks/mask_004.jpg,,,,,,,,,,,,,,,,,,,,,,,,,,,,,,,,,,,,,,,,,,,0,3,3,3,1,,,,,,,,,,,,,,,,,,,,,,,,,,,,,,,,,,,,,,,,,,,,,,
602988,001,2022-11-13_23h28.38.990,Info_measure_main_exp,2022.2.2,MacIntel,59.84082341,,,,,,,,,,,,,,,,,,masks/mask_002.jpg,,,,,,,,,,,,,,,,,,,,,,,,,,,,,,,,,,,,,,,,,,,0,4,4,1,1,,,,,,,,,,,,,,,,,,,,,,,,,,,,,,,,,,,,,,,,,,,,,,
602988,001,2022-11-13_23h28.38.990,Info_measure_main_exp,2022.2.2,MacIntel,59.84082341,,,,,,,,,,,,,,,,,,masks/mask_005.jpg,,,,,,,,,,,,,,,,,,,,,,,,,,,,,,,,,,,,,,,,,,,,,,,,0,0,0,4,1,,,,,,,,,,,,,,,,,,,,,,,,,,,,,,,,,,,,,,,,,
602988,001,2022-11-13_23h28.38.990,Info_measure_main_exp,2022.2.2,MacIntel,59.84082341,,,,,,,,,,,,,,,,,,masks/mask_001.jpg,,,,,,,,,,,,,,,,,,,,,,,,,,,,,,,,,,,,,,,,,,,,,,,,0,1,1,0,1,,,,,,,,,,,,,,,,,,,,,,,,,,,,,,,,,,,,,,,,,
602988,001,2022-11-13_23h28.38.990,Info_measure_main_exp,2022.2.2,MacIntel,59.84082341,,,,,,,,,,,,,,,,,,masks/mask_004.jpg,,,,,,,,,,,,,,,,,,,,,,,,,,,,,,,,,,,,,,,,,,,,,,,,0,2,2,3,1,,,,,,,,,,,,,,,,,,,,,,,,,,,,,,,,,,,,,,,,,
602988,001,2022-11-13_23h28.38.990,Info_measure_main_exp,2022.2.2,MacIntel,59.84082341,,,,,,,,,,,,,,,,,,masks/mask_002.jpg,,,,,,,,,,,,,,,,,,,,,,,,,,,,,,,,,,,,,,,,,,,,,,,,0,3,3,1,1,,,,,,,,,,,,,,,,,,,,,,,,,,,,,,,,,,,,,,,,,
602988,001,2022-11-13_23h28.38.990,Info_measure_main_exp,2022.2.2,MacIntel,59.84082341,,,,,,,,,,,,,,,,,,masks/mask_003.jpg,,,,,,,,,,,,,,,,,,,,,,,,,,,,,,,,,,,,,,,,,,,,,,,,0,4,4,2,1,,,,,,,,,,,,,,,,,,,,,,,,,,,,,,,,,,,,,,,,,
602988,001,2022-11-13_23h28.38.990,Info_measure_main_exp,2022.2.2,MacIntel,59.84082341,,,,,,,,,,,,,,,,,,,,,,,,,,,,,,7,0.97,1,,,,,,,,,,,,0,131,5,5,2214,2166,absent_patch/patch0002214.jpg,absent_patch/patch0002166.jpg,,,,,,,,,,,,,,,,,,,,0.072022799,0.217050801,1,0,0,response1disk,9,0.006890088,0.006232471,1,0,0,center_square,0,8,8,109,1,,,,,,,,,,,,,,,,,,,,,,,
602988,001,2022-11-13_23h28.38.990,Info_measure_main_exp,2022.2.2,MacIntel,59.84082341,,,,,,,,,,,,,,,,,,masks/mask_002.jpg,,,,,,,,,,,,,,,,,,,,,,,,,,,,,,,,,,,,,,,,,,,0,0,0,1,1,,,,,,,,,,,,,,,,,,,,,,,,,,,,,,,,,,,,,,,,,,,,,,
602988,001,2022-11-13_23h28.38.990,Info_measure_main_exp,2022.2.2,MacIntel,59.84082341,,,,,,,,,,,,,,,,,,masks/mask_001.jpg,,,,,,,,,,,,,,,,,,,,,,,,,,,,,,,,,,,,,,,,,,,0,1,1,0,1,,,,,,,,,,,,,,,,,,,,,,,,,,,,,,,,,,,,,,,,,,,,,,
602988,001,2022-11-13_23h28.38.990,Info_measure_main_exp,2022.2.2,MacIntel,59.84082341,,,,,,,,,,,,,,,,,,masks/mask_004.jpg,,,,,,,,,,,,,,,,,,,,,,,,,,,,,,,,,,,,,,,,,,,0,2,2,3,1,,,,,,,,,,,,,,,,,,,,,,,,,,,,,,,,,,,,,,,,,,,,,,
602988,001,2022-11-13_23h28.38.990,Info_measure_main_exp,2022.2.2,MacIntel,59.84082341,,,,,,,,,,,,,,,,,,masks/mask_005.jpg,,,,,,,,,,,,,,,,,,,,,,,,,,,,,,,,,,,,,,,,,,,0,3,3,4,1,,,,,,,,,,,,,,,,,,,,,,,,,,,,,,,,,,,,,,,,,,,,,,
602988,001,2022-11-13_23h28.38.990,Info_measure_main_exp,2022.2.2,MacIntel,59.84082341,,,,,,,,,,,,,,,,,,masks/mask_003.jpg,,,,,,,,,,,,,,,,,,,,,,,,,,,,,,,,,,,,,,,,,,,0,4,4,2,1,,,,,,,,,,,,,,,,,,,,,,,,,,,,,,,,,,,,,,,,,,,,,,
602988,001,2022-11-13_23h28.38.990,Info_measure_main_exp,2022.2.2,MacIntel,59.84082341,,,,,,,,,,,,,,,,,,masks/mask_005.jpg,,,,,,,,,,,,,,,,,,,,,,,,,,,,,,,,,,,,,,,,,,,,,,,,0,0,0,4,1,,,,,,,,,,,,,,,,,,,,,,,,,,,,,,,,,,,,,,,,,
602988,001,2022-11-13_23h28.38.990,Info_measure_main_exp,2022.2.2,MacIntel,59.84082341,,,,,,,,,,,,,,,,,,masks/mask_001.jpg,,,,,,,,,,,,,,,,,,,,,,,,,,,,,,,,,,,,,,,,,,,,,,,,0,1,1,0,1,,,,,,,,,,,,,,,,,,,,,,,,,,,,,,,,,,,,,,,,,
602988,001,2022-11-13_23h28.38.990,Info_measure_main_exp,2022.2.2,MacIntel,59.84082341,,,,,,,,,,,,,,,,,,masks/mask_002.jpg,,,,,,,,,,,,,,,,,,,,,,,,,,,,,,,,,,,,,,,,,,,,,,,,0,2,2,1,1,,,,,,,,,,,,,,,,,,,,,,,,,,,,,,,,,,,,,,,,,
602988,001,2022-11-13_23h28.38.990,Info_measure_main_exp,2022.2.2,MacIntel,59.84082341,,,,,,,,,,,,,,,,,,masks/mask_004.jpg,,,,,,,,,,,,,,,,,,,,,,,,,,,,,,,,,,,,,,,,,,,,,,,,0,3,3,3,1,,,,,,,,,,,,,,,,,,,,,,,,,,,,,,,,,,,,,,,,,
602988,001,2022-11-13_23h28.38.990,Info_measure_main_exp,2022.2.2,MacIntel,59.84082341,,,,,,,,,,,,,,,,,,masks/mask_003.jpg,,,,,,,,,,,,,,,,,,,,,,,,,,,,,,,,,,,,,,,,,,,,,,,,0,4,4,2,1,,,,,,,,,,,,,,,,,,,,,,,,,,,,,,,,,,,,,,,,,
602988,001,2022-11-13_23h28.38.990,Info_measure_main_exp,2022.2.2,MacIntel,59.84082341,,,,,,,,,,,,,,,,,,,,,,,,,,,,,,2,2.5241,1,,,,,,,,,,,,0,131,5,5,2190,2178,absent_patch/patch0002190.jpg,absent_patch/patch0002178.jpg,,,,,,,,,,,,,,,,,,,,-0.152157009,-0.051836021,1,0,0,response5disk,10,0.002447208,-0.009205633,1,0,0,center_square,0,9,9,14,1,,,,,,,,,,,,,,,,,,,,,,,
602988,001,2022-11-13_23h28.38.990,Info_measure_main_exp,2022.2.2,MacIntel,59.84082341,,,,,,,,,,,,,,,,,,masks/mask_004.jpg,,,,,,,,,,,,,,,,,,,,,,,,,,,,,,,,,,,,,,,,,,,0,0,0,3,1,,,,,,,,,,,,,,,,,,,,,,,,,,,,,,,,,,,,,,,,,,,,,,
602988,001,2022-11-13_23h28.38.990,Info_measure_main_exp,2022.2.2,MacIntel,59.84082341,,,,,,,,,,,,,,,,,,masks/mask_003.jpg,,,,,,,,,,,,,,,,,,,,,,,,,,,,,,,,,,,,,,,,,,,0,1,1,2,1,,,,,,,,,,,,,,,,,,,,,,,,,,,,,,,,,,,,,,,,,,,,,,
602988,001,2022-11-13_23h28.38.990,Info_measure_main_exp,2022.2.2,MacIntel,59.84082341,,,,,,,,,,,,,,,,,,masks/mask_002.jpg,,,,,,,,,,,,,,,,,,,,,,,,,,,,,,,,,,,,,,,,,,,0,2,2,1,1,,,,,,,,,,,,,,,,,,,,,,,,,,,,,,,,,,,,,,,,,,,,,,
602988,001,2022-11-13_23h28.38.990,Info_measure_main_exp,2022.2.2,MacIntel,59.84082341,,,,,,,,,,,,,,,,,,masks/mask_001.jpg,,,,,,,,,,,,,,,,,,,,,,,,,,,,,,,,,,,,,,,,,,,0,3,3,0,1,,,,,,,,,,,,,,,,,,,,,,,,,,,,,,,,,,,,,,,,,,,,,,
602988,001,2022-11-13_23h28.38.990,Info_measure_main_exp,2022.2.2,MacIntel,59.84082341,,,,,,,,,,,,,,,,,,masks/mask_005.jpg,,,,,,,,,,,,,,,,,,,,,,,,,,,,,,,,,,,,,,,,,,,0,4,4,4,1,,,,,,,,,,,,,,,,,,,,,,,,,,,,,,,,,,,,,,,,,,,,,,
602988,001,2022-11-13_23h28.38.990,Info_measure_main_exp,2022.2.2,MacIntel,59.84082341,,,,,,,,,,,,,,,,,,masks/mask_005.jpg,,,,,,,,,,,,,,,,,,,,,,,,,,,,,,,,,,,,,,,,,,,,,,,,0,0,0,4,1,,,,,,,,,,,,,,,,,,,,,,,,,,,,,,,,,,,,,,,,,
602988,001,2022-11-13_23h28.38.990,Info_measure_main_exp,2022.2.2,MacIntel,59.84082341,,,,,,,,,,,,,,,,,,masks/mask_002.jpg,,,,,,,,,,,,,,,,,,,,,,,,,,,,,,,,,,,,,,,,,,,,,,,,0,1,1,1,1,,,,,,,,,,,,,,,,,,,,,,,,,,,,,,,,,,,,,,,,,
602988,001,2022-11-13_23h28.38.990,Info_measure_main_exp,2022.2.2,MacIntel,59.84082341,,,,,,,,,,,,,,,,,,masks/mask_003.jpg,,,,,,,,,,,,,,,,,,,,,,,,,,,,,,,,,,,,,,,,,,,,,,,,0,2,2,2,1,,,,,,,,,,,,,,,,,,,,,,,,,,,,,,,,,,,,,,,,,
602988,001,2022-11-13_23h28.38.990,Info_measure_main_exp,2022.2.2,MacIntel,59.84082341,,,,,,,,,,,,,,,,,,masks/mask_004.jpg,,,,,,,,,,,,,,,,,,,,,,,,,,,,,,,,,,,,,,,,,,,,,,,,0,3,3,3,1,,,,,,,,,,,,,,,,,,,,,,,,,,,,,,,,,,,,,,,,,
602988,001,2022-11-13_23h28.38.990,Info_measure_main_exp,2022.2.2,MacIntel,59.84082341,,,,,,,,,,,,,,,,,,masks/mask_001.jpg,,,,,,,,,,,,,,,,,,,,,,,,,,,,,,,,,,,,,,,,,,,,,,,,0,4,4,0,1,,,,,,,,,,,,,,,,,,,,,,,,,,,,,,,,,,,,,,,,,
602988,001,2022-11-13_23h28.38.990,Info_measure_main_exp,2022.2.2,MacIntel,59.84082341,,,,,,,,,,,,,,,,,,,,,,,,,,,,,,7,0.9524,1,,,,,,,,,,,,0,131,5,5,2082,2154,absent_patch/patch0002082.jpg,absent_patch/patch0002154.jpg,,,,,,,,,,,,,,,,,,,,0.060972961,0.134945791,1,0,0,response1disk,11,-0.003424776,0.011727723,1,0,0,center_square,0,10,10,33,1,,,,,,,,,,,,,,,,,,,,,,,
602988,001,2022-11-13_23h28.38.990,Info_measure_main_exp,2022.2.2,MacIntel,59.84082341,,,,,,,,,,,,,,,,,,masks/mask_001.jpg,,,,,,,,,,,,,,,,,,,,,,,,,,,,,,,,,,,,,,,,,,,0,0,0,0,1,,,,,,,,,,,,,,,,,,,,,,,,,,,,,,,,,,,,,,,,,,,,,,
602988,001,2022-11-13_23h28.38.990,Info_measure_main_exp,2022.2.2,MacIntel,59.84082341,,,,,,,,,,,,,,,,,,masks/mask_004.jpg,,,,,,,,,,,,,,,,,,,,,,,,,,,,,,,,,,,,,,,,,,,0,1,1,3,1,,,,,,,,,,,,,,,,,,,,,,,,,,,,,,,,,,,,,,,,,,,,,,
602988,001,2022-11-13_23h28.38.990,Info_measure_main_exp,2022.2.2,MacIntel,59.84082341,,,,,,,,,,,,,,,,,,masks/mask_005.jpg,,,,,,,,,,,,,,,,,,,,,,,,,,,,,,,,,,,,,,,,,,,0,2,2,4,1,,,,,,,,,,,,,,,,,,,,,,,,,,,,,,,,,,,,,,,,,,,,,,
602988,001,2022-11-13_23h28.38.990,Info_measure_main_exp,2022.2.2,MacIntel,59.84082341,,,,,,,,,,,,,,,,,,masks/mask_002.jpg,,,,,,,,,,,,,,,,,,,,,,,,,,,,,,,,,,,,,,,,,,,0,3,3,1,1,,,,,,,,,,,,,,,,,,,,,,,,,,,,,,,,,,,,,,,,,,,,,,
602988,001,2022-11-13_23h28.38.990,Info_measure_main_exp,2022.2.2,MacIntel,59.84082341,,,,,,,,,,,,,,,,,,masks/mask_003.jpg,,,,,,,,,,,,,,,,,,,,,,,,,,,,,,,,,,,,,,,,,,,0,4,4,2,1,,,,,,,,,,,,,,,,,,,,,,,,,,,,,,,,,,,,,,,,,,,,,,
602988,001,2022-11-13_23h28.38.990,Info_measure_main_exp,2022.2.2,MacIntel,59.84082341,,,,,,,,,,,,,,,,,,masks/mask_005.jpg,,,,,,,,,,,,,,,,,,,,,,,,,,,,,,,,,,,,,,,,,,,,,,,,0,0,0,4,1,,,,,,,,,,,,,,,,,,,,,,,,,,,,,,,,,,,,,,,,,
602988,001,2022-11-13_23h28.38.990,Info_measure_main_exp,2022.2.2,MacIntel,59.84082341,,,,,,,,,,,,,,,,,,masks/mask_003.jpg,,,,,,,,,,,,,,,,,,,,,,,,,,,,,,,,,,,,,,,,,,,,,,,,0,1,1,2,1,,,,,,,,,,,,,,,,,,,,,,,,,,,,,,,,,,,,,,,,,
602988,001,2022-11-13_23h28.38.990,Info_measure_main_exp,2022.2.2,MacIntel,59.84082341,,,,,,,,,,,,,,,,,,masks/mask_004.jpg,,,,,,,,,,,,,,,,,,,,,,,,,,,,,,,,,,,,,,,,,,,,,,,,0,2,2,3,1,,,,,,,,,,,,,,,,,,,,,,,,,,,,,,,,,,,,,,,,,
602988,001,2022-11-13_23h28.38.990,Info_measure_main_exp,2022.2.2,MacIntel,59.84082341,,,,,,,,,,,,,,,,,,masks/mask_001.jpg,,,,,,,,,,,,,,,,,,,,,,,,,,,,,,,,,,,,,,,,,,,,,,,,0,3,3,0,1,,,,,,,,,,,,,,,,,,,,,,,,,,,,,,,,,,,,,,,,,
602988,001,2022-11-13_23h28.38.990,Info_measure_main_exp,2022.2.2,MacIntel,59.84082341,,,,,,,,,,,,,,,,,,masks/mask_002.jpg,,,,,,,,,,,,,,,,,,,,,,,,,,,,,,,,,,,,,,,,,,,,,,,,0,4,4,1,1,,,,,,,,,,,,,,,,,,,,,,,,,,,,,,,,,,,,,,,,,
602988,001,2022-11-13_23h28.38.990,Info_measure_main_exp,2022.2.2,MacIntel,59.84082341,,,,,,,,,,,,,,,,,,,,,,,,,,,,,,5,2.0732,1,,,,,,,,,,,,0,131,5,5,2166,2298,absent_patch/patch0002166.jpg,absent_patch/patch0002298.jpg,,,,,,,,,,,,,,,,,,,,0.112400302,-0.018669099,1,0,0,response3disk,12,-0.004503064,-0.012774217,1,0,0,center_square,0,11,11,52,1,,,,,,,,,,,,,,,,,,,,,,,
602988,001,2022-11-13_23h28.38.990,Info_measure_main_exp,2022.2.2,MacIntel,59.84082341,,,,,,,,,,,,,,,,,,masks/mask_004.jpg,,,,,,,,,,,,,,,,,,,,,,,,,,,,,,,,,,,,,,,,,,,0,0,0,3,1,,,,,,,,,,,,,,,,,,,,,,,,,,,,,,,,,,,,,,,,,,,,,,
602988,001,2022-11-13_23h28.38.990,Info_measure_main_exp,2022.2.2,MacIntel,59.84082341,,,,,,,,,,,,,,,,,,masks/mask_005.jpg,,,,,,,,,,,,,,,,,,,,,,,,,,,,,,,,,,,,,,,,,,,0,1,1,4,1,,,,,,,,,,,,,,,,,,,,,,,,,,,,,,,,,,,,,,,,,,,,,,
602988,001,2022-11-13_23h28.38.990,Info_measure_main_exp,2022.2.2,MacIntel,59.84082341,,,,,,,,,,,,,,,,,,masks/mask_001.jpg,,,,,,,,,,,,,,,,,,,,,,,,,,,,,,,,,,,,,,,,,,,0,2,2,0,1,,,,,,,,,,,,,,,,,,,,,,,,,,,,,,,,,,,,,,,,,,,,,,
602988,001,2022-11-13_23h28.38.990,Info_measure_main_exp,2022.2.2,MacIntel,59.84082341,,,,,,,,,,,,,,,,,,masks/mask_002.jpg,,,,,,,,,,,,,,,,,,,,,,,,,,,,,,,,,,,,,,,,,,,0,3,3,1,1,,,,,,,,,,,,,,,,,,,,,,,,,,,,,,,,,,,,,,,,,,,,,,
602988,001,2022-11-13_23h28.38.990,Info_measure_main_exp,2022.2.2,MacIntel,59.84082341,,,,,,,,,,,,,,,,,,masks/mask_003.jpg,,,,,,,,,,,,,,,,,,,,,,,,,,,,,,,,,,,,,,,,,,,0,4,4,2,1,,,,,,,,,,,,,,,,,,,,,,,,,,,,,,,,,,,,,,,,,,,,,,
602988,001,2022-11-13_23h28.38.990,Info_measure_main_exp,2022.2.2,MacIntel,59.84082341,,,,,,,,,,,,,,,,,,masks/mask_002.jpg,,,,,,,,,,,,,,,,,,,,,,,,,,,,,,,,,,,,,,,,,,,,,,,,0,0,0,1,1,,,,,,,,,,,,,,,,,,,,,,,,,,,,,,,,,,,,,,,,,
602988,001,2022-11-13_23h28.38.990,Info_measure_main_exp,2022.2.2,MacIntel,59.84082341,,,,,,,,,,,,,,,,,,masks/mask_001.jpg,,,,,,,,,,,,,,,,,,,,,,,,,,,,,,,,,,,,,,,,,,,,,,,,0,1,1,0,1,,,,,,,,,,,,,,,,,,,,,,,,,,,,,,,,,,,,,,,,,
602988,001,2022-11-13_23h28.38.990,Info_measure_main_exp,2022.2.2,MacIntel,59.84082341,,,,,,,,,,,,,,,,,,masks/mask_004.jpg,,,,,,,,,,,,,,,,,,,,,,,,,,,,,,,,,,,,,,,,,,,,,,,,0,2,2,3,1,,,,,,,,,,,,,,,,,,,,,,,,,,,,,,,,,,,,,,,,,
602988,001,2022-11-13_23h28.38.990,Info_measure_main_exp,2022.2.2,MacIntel,59.84082341,,,,,,,,,,,,,,,,,,masks/mask_003.jpg,,,,,,,,,,,,,,,,,,,,,,,,,,,,,,,,,,,,,,,,,,,,,,,,0,3,3,2,1,,,,,,,,,,,,,,,,,,,,,,,,,,,,,,,,,,,,,,,,,
602988,001,2022-11-13_23h28.38.990,Info_measure_main_exp,2022.2.2,MacIntel,59.84082341,,,,,,,,,,,,,,,,,,masks/mask_005.jpg,,,,,,,,,,,,,,,,,,,,,,,,,,,,,,,,,,,,,,,,,,,,,,,,0,4,4,4,1,,,,,,,,,,,,,,,,,,,,,,,,,,,,,,,,,,,,,,,,,
602988,001,2022-11-13_23h28.38.990,Info_measure_main_exp,2022.2.2,MacIntel,59.84082341,,,,,,,,,,,,,,,,,,,,,,,,,,,,,,7,0.6852,1,,,,,,,,,,,,0,131,5,5,2274,2214,absent_patch/patch0002274.jpg,absent_patch/patch0002214.jpg,,,,,,,,,,,,,,,,,,,,0.058670179,0.158582719,1,0,0,response1disk,13,0.005833228,-0.003443884,1,0,0,center_square,0,12,12,11,1,,,,,,,,,,,,,,,,,,,,,,,
602988,001,2022-11-13_23h28.38.990,Info_measure_main_exp,2022.2.2,MacIntel,59.84082341,,,,,,,,,,,,,,,,,,masks/mask_005.jpg,,,,,,,,,,,,,,,,,,,,,,,,,,,,,,,,,,,,,,,,,,,0,0,0,4,1,,,,,,,,,,,,,,,,,,,,,,,,,,,,,,,,,,,,,,,,,,,,,,
602988,001,2022-11-13_23h28.38.990,Info_measure_main_exp,2022.2.2,MacIntel,59.84082341,,,,,,,,,,,,,,,,,,masks/mask_001.jpg,,,,,,,,,,,,,,,,,,,,,,,,,,,,,,,,,,,,,,,,,,,0,1,1,0,1,,,,,,,,,,,,,,,,,,,,,,,,,,,,,,,,,,,,,,,,,,,,,,
602988,001,2022-11-13_23h28.38.990,Info_measure_main_exp,2022.2.2,MacIntel,59.84082341,,,,,,,,,,,,,,,,,,masks/mask_003.jpg,,,,,,,,,,,,,,,,,,,,,,,,,,,,,,,,,,,,,,,,,,,0,2,2,2,1,,,,,,,,,,,,,,,,,,,,,,,,,,,,,,,,,,,,,,,,,,,,,,
602988,001,2022-11-13_23h28.38.990,Info_measure_main_exp,2022.2.2,MacIntel,59.84082341,,,,,,,,,,,,,,,,,,masks/mask_004.jpg,,,,,,,,,,,,,,,,,,,,,,,,,,,,,,,,,,,,,,,,,,,0,3,3,3,1,,,,,,,,,,,,,,,,,,,,,,,,,,,,,,,,,,,,,,,,,,,,,,
602988,001,2022-11-13_23h28.38.990,Info_measure_main_exp,2022.2.2,MacIntel,59.84082341,,,,,,,,,,,,,,,,,,masks/mask_002.jpg,,,,,,,,,,,,,,,,,,,,,,,,,,,,,,,,,,,,,,,,,,,0,4,4,1,1,,,,,,,,,,,,,,,,,,,,,,,,,,,,,,,,,,,,,,,,,,,,,,
602988,001,2022-11-13_23h28.38.990,Info_measure_main_exp,2022.2.2,MacIntel,59.84082341,,,,,,,,,,,,,,,,,,masks/mask_001.jpg,,,,,,,,,,,,,,,,,,,,,,,,,,,,,,,,,,,,,,,,,,,,,,,,0,0,0,0,1,,,,,,,,,,,,,,,,,,,,,,,,,,,,,,,,,,,,,,,,,
602988,001,2022-11-13_23h28.38.990,Info_measure_main_exp,2022.2.2,MacIntel,59.84082341,,,,,,,,,,,,,,,,,,masks/mask_004.jpg,,,,,,,,,,,,,,,,,,,,,,,,,,,,,,,,,,,,,,,,,,,,,,,,0,1,1,3,1,,,,,,,,,,,,,,,,,,,,,,,,,,,,,,,,,,,,,,,,,
602988,001,2022-11-13_23h28.38.990,Info_measure_main_exp,2022.2.2,MacIntel,59.84082341,,,,,,,,,,,,,,,,,,masks/mask_005.jpg,,,,,,,,,,,,,,,,,,,,,,,,,,,,,,,,,,,,,,,,,,,,,,,,0,2,2,4,1,,,,,,,,,,,,,,,,,,,,,,,,,,,,,,,,,,,,,,,,,
602988,001,2022-11-13_23h28.38.990,Info_measure_main_exp,2022.2.2,MacIntel,59.84082341,,,,,,,,,,,,,,,,,,masks/mask_002.jpg,,,,,,,,,,,,,,,,,,,,,,,,,,,,,,,,,,,,,,,,,,,,,,,,0,3,3,1,1,,,,,,,,,,,,,,,,,,,,,,,,,,,,,,,,,,,,,,,,,
602988,001,2022-11-13_23h28.38.990,Info_measure_main_exp,2022.2.2,MacIntel,59.84082341,,,,,,,,,,,,,,,,,,masks/mask_003.jpg,,,,,,,,,,,,,,,,,,,,,,,,,,,,,,,,,,,,,,,,,,,,,,,,0,4,4,2,1,,,,,,,,,,,,,,,,,,,,,,,,,,,,,,,,,,,,,,,,,
602988,001,2022-11-13_23h28.38.990,Info_measure_main_exp,2022.2.2,MacIntel,59.84082341,,,,,,,,,,,,,,,,,,,,,,,,,,,,,,7,0.764,1,,,,,,,,,,,,0,131,5,5,2178,2154,absent_patch/patch0002178.jpg,absent_patch/patch0002154.jpg,,,,,,,,,,,,,,,,,,,,0.06438536,0.18766512,1,0,0,response1disk,14,0.001976332,-0.004561778,1,0,0,center_square,0,13,13,63,1,,,,,,,,,,,,,,,,,,,,,,,
602988,001,2022-11-13_23h28.38.990,Info_measure_main_exp,2022.2.2,MacIntel,59.84082341,,,,,,,,,,,,,,,,,,masks/mask_001.jpg,,,,,,,,,,,,,,,,,,,,,,,,,,,,,,,,,,,,,,,,,,,0,0,0,0,1,,,,,,,,,,,,,,,,,,,,,,,,,,,,,,,,,,,,,,,,,,,,,,
602988,001,2022-11-13_23h28.38.990,Info_measure_main_exp,2022.2.2,MacIntel,59.84082341,,,,,,,,,,,,,,,,,,masks/mask_004.jpg,,,,,,,,,,,,,,,,,,,,,,,,,,,,,,,,,,,,,,,,,,,0,1,1,3,1,,,,,,,,,,,,,,,,,,,,,,,,,,,,,,,,,,,,,,,,,,,,,,
602988,001,2022-11-13_23h28.38.990,Info_measure_main_exp,2022.2.2,MacIntel,59.84082341,,,,,,,,,,,,,,,,,,masks/mask_002.jpg,,,,,,,,,,,,,,,,,,,,,,,,,,,,,,,,,,,,,,,,,,,0,2,2,1,1,,,,,,,,,,,,,,,,,,,,,,,,,,,,,,,,,,,,,,,,,,,,,,
602988,001,2022-11-13_23h28.38.990,Info_measure_main_exp,2022.2.2,MacIntel,59.84082341,,,,,,,,,,,,,,,,,,masks/mask_005.jpg,,,,,,,,,,,,,,,,,,,,,,,,,,,,,,,,,,,,,,,,,,,0,3,3,4,1,,,,,,,,,,,,,,,,,,,,,,,,,,,,,,,,,,,,,,,,,,,,,,
602988,001,2022-11-13_23h28.38.990,Info_measure_main_exp,2022.2.2,MacIntel,59.84082341,,,,,,,,,,,,,,,,,,masks/mask_003.jpg,,,,,,,,,,,,,,,,,,,,,,,,,,,,,,,,,,,,,,,,,,,0,4,4,2,1,,,,,,,,,,,,,,,,,,,,,,,,,,,,,,,,,,,,,,,,,,,,,,
602988,001,2022-11-13_23h28.38.990,Info_measure_main_exp,2022.2.2,MacIntel,59.84082341,,,,,,,,,,,,,,,,,,masks/mask_001.jpg,,,,,,,,,,,,,,,,,,,,,,,,,,,,,,,,,,,,,,,,,,,,,,,,0,0,0,0,1,,,,,,,,,,,,,,,,,,,,,,,,,,,,,,,,,,,,,,,,,
602988,001,2022-11-13_23h28.38.990,Info_measure_main_exp,2022.2.2,MacIntel,59.84082341,,,,,,,,,,,,,,,,,,masks/mask_004.jpg,,,,,,,,,,,,,,,,,,,,,,,,,,,,,,,,,,,,,,,,,,,,,,,,0,1,1,3,1,,,,,,,,,,,,,,,,,,,,,,,,,,,,,,,,,,,,,,,,,
602988,001,2022-11-13_23h28.38.990,Info_measure_main_exp,2022.2.2,MacIntel,59.84082341,,,,,,,,,,,,,,,,,,masks/mask_003.jpg,,,,,,,,,,,,,,,,,,,,,,,,,,,,,,,,,,,,,,,,,,,,,,,,0,2,2,2,1,,,,,,,,,,,,,,,,,,,,,,,,,,,,,,,,,,,,,,,,,
602988,001,2022-11-13_23h28.38.990,Info_measure_main_exp,2022.2.2,MacIntel,59.84082341,,,,,,,,,,,,,,,,,,masks/mask_002.jpg,,,,,,,,,,,,,,,,,,,,,,,,,,,,,,,,,,,,,,,,,,,,,,,,0,3,3,1,1,,,,,,,,,,,,,,,,,,,,,,,,,,,,,,,,,,,,,,,,,
602988,001,2022-11-13_23h28.38.990,Info_measure_main_exp,2022.2.2,MacIntel,59.84082341,,,,,,,,,,,,,,,,,,masks/mask_005.jpg,,,,,,,,,,,,,,,,,,,,,,,,,,,,,,,,,,,,,,,,,,,,,,,,0,4,4,4,1,,,,,,,,,,,,,,,,,,,,,,,,,,,,,,,,,,,,,,,,,
602988,001,2022-11-13_23h28.38.990,Info_measure_main_exp,2022.2.2,MacIntel,59.84082341,,,,,,,,,,,,,,,,,,,,,,,,,,,,,,7,1.2702,1,,,,,,,,,,,,0,131,5,5,2274,2250,absent_patch/patch0002274.jpg,absent_patch/patch0002250.jpg,,,,,,,,,,,,,,,,,,,,0.064644044,0.129946865,1,0,0,response1disk,15,-0.001520309,0.008664749,1,0,0,center_square,0,14,14,28,1,,,,,,,,,,,,,,,,,,,,,,,
602988,001,2022-11-13_23h28.38.990,Info_measure_main_exp,2022.2.2,MacIntel,59.84082341,,,,,,,,,,,,,,,,,,masks/mask_001.jpg,,,,,,,,,,,,,,,,,,,,,,,,,,,,,,,,,,,,,,,,,,,0,0,0,0,1,,,,,,,,,,,,,,,,,,,,,,,,,,,,,,,,,,,,,,,,,,,,,,
602988,001,2022-11-13_23h28.38.990,Info_measure_main_exp,2022.2.2,MacIntel,59.84082341,,,,,,,,,,,,,,,,,,masks/mask_005.jpg,,,,,,,,,,,,,,,,,,,,,,,,,,,,,,,,,,,,,,,,,,,0,1,1,4,1,,,,,,,,,,,,,,,,,,,,,,,,,,,,,,,,,,,,,,,,,,,,,,
602988,001,2022-11-13_23h28.38.990,Info_measure_main_exp,2022.2.2,MacIntel,59.84082341,,,,,,,,,,,,,,,,,,masks/mask_003.jpg,,,,,,,,,,,,,,,,,,,,,,,,,,,,,,,,,,,,,,,,,,,0,2,2,2,1,,,,,,,,,,,,,,,,,,,,,,,,,,,,,,,,,,,,,,,,,,,,,,
602988,001,2022-11-13_23h28.38.990,Info_measure_main_exp,2022.2.2,MacIntel,59.84082341,,,,,,,,,,,,,,,,,,masks/mask_004.jpg,,,,,,,,,,,,,,,,,,,,,,,,,,,,,,,,,,,,,,,,,,,0,3,3,3,1,,,,,,,,,,,,,,,,,,,,,,,,,,,,,,,,,,,,,,,,,,,,,,
602988,001,2022-11-13_23h28.38.990,Info_measure_main_exp,2022.2.2,MacIntel,59.84082341,,,,,,,,,,,,,,,,,,masks/mask_002.jpg,,,,,,,,,,,,,,,,,,,,,,,,,,,,,,,,,,,,,,,,,,,0,4,4,1,1,,,,,,,,,,,,,,,,,,,,,,,,,,,,,,,,,,,,,,,,,,,,,,
602988,001,2022-11-13_23h28.38.990,Info_measure_main_exp,2022.2.2,MacIntel,59.84082341,,,,,,,,,,,,,,,,,,masks/mask_005.jpg,,,,,,,,,,,,,,,,,,,,,,,,,,,,,,,,,,,,,,,,,,,,,,,,0,0,0,4,1,,,,,,,,,,,,,,,,,,,,,,,,,,,,,,,,,,,,,,,,,
602988,001,2022-11-13_23h28.38.990,Info_measure_main_exp,2022.2.2,MacIntel,59.84082341,,,,,,,,,,,,,,,,,,masks/mask_001.jpg,,,,,,,,,,,,,,,,,,,,,,,,,,,,,,,,,,,,,,,,,,,,,,,,0,1,1,0,1,,,,,,,,,,,,,,,,,,,,,,,,,,,,,,,,,,,,,,,,,
602988,001,2022-11-13_23h28.38.990,Info_measure_main_exp,2022.2.2,MacIntel,59.84082341,,,,,,,,,,,,,,,,,,masks/mask_004.jpg,,,,,,,,,,,,,,,,,,,,,,,,,,,,,,,,,,,,,,,,,,,,,,,,0,2,2,3,1,,,,,,,,,,,,,,,,,,,,,,,,,,,,,,,,,,,,,,,,,
602988,001,2022-11-13_23h28.38.990,Info_measure_main_exp,2022.2.2,MacIntel,59.84082341,,,,,,,,,,,,,,,,,,masks/mask_003.jpg,,,,,,,,,,,,,,,,,,,,,,,,,,,,,,,,,,,,,,,,,,,,,,,,0,3,3,2,1,,,,,,,,,,,,,,,,,,,,,,,,,,,,,,,,,,,,,,,,,
602988,001,2022-11-13_23h28.38.990,Info_measure_main_exp,2022.2.2,MacIntel,59.84082341,,,,,,,,,,,,,,,,,,masks/mask_002.jpg,,,,,,,,,,,,,,,,,,,,,,,,,,,,,,,,,,,,,,,,,,,,,,,,0,4,4,1,1,,,,,,,,,,,,,,,,,,,,,,,,,,,,,,,,,,,,,,,,,
602988,001,2022-11-13_23h28.38.990,Info_measure_main_exp,2022.2.2,MacIntel,59.84082341,,,,,,,,,,,,,,,,,,,,,,,,,,,,,,3,1.2702,1,,,,,,,,,,,,1,131,5,5,1,1986,present_patch/cong_131_5_a.jpg,absent_patch/patch0001986.jpg,,,,,,,,,,,,,,,,,,,,-0.049492395,-0.14757914,1,0,0,response5disk,16,0.001627217,-0.015189554,1,0,0,center_square,0,15,15,106,1,,,,,,,,,,,,,,,,,,,,,,,
602988,001,2022-11-13_23h28.38.990,Info_measure_main_exp,2022.2.2,MacIntel,59.84082341,,,,,,,,,,,,,,,,,,masks/mask_005.jpg,,,,,,,,,,,,,,,,,,,,,,,,,,,,,,,,,,,,,,,,,,,0,0,0,4,1,,,,,,,,,,,,,,,,,,,,,,,,,,,,,,,,,,,,,,,,,,,,,,
602988,001,2022-11-13_23h28.38.990,Info_measure_main_exp,2022.2.2,MacIntel,59.84082341,,,,,,,,,,,,,,,,,,masks/mask_001.jpg,,,,,,,,,,,,,,,,,,,,,,,,,,,,,,,,,,,,,,,,,,,0,1,1,0,1,,,,,,,,,,,,,,,,,,,,,,,,,,,,,,,,,,,,,,,,,,,,,,
602988,001,2022-11-13_23h28.38.990,Info_measure_main_exp,2022.2.2,MacIntel,59.84082341,,,,,,,,,,,,,,,,,,masks/mask_004.jpg,,,,,,,,,,,,,,,,,,,,,,,,,,,,,,,,,,,,,,,,,,,0,2,2,3,1,,,,,,,,,,,,,,,,,,,,,,,,,,,,,,,,,,,,,,,,,,,,,,
602988,001,2022-11-13_23h28.38.990,Info_measure_main_exp,2022.2.2,MacIntel,59.84082341,,,,,,,,,,,,,,,,,,masks/mask_002.jpg,,,,,,,,,,,,,,,,,,,,,,,,,,,,,,,,,,,,,,,,,,,0,3,3,1,1,,,,,,,,,,,,,,,,,,,,,,,,,,,,,,,,,,,,,,,,,,,,,,
602988,001,2022-11-13_23h28.38.990,Info_measure_main_exp,2022.2.2,MacIntel,59.84082341,,,,,,,,,,,,,,,,,,masks/mask_003.jpg,,,,,,,,,,,,,,,,,,,,,,,,,,,,,,,,,,,,,,,,,,,0,4,4,2,1,,,,,,,,,,,,,,,,,,,,,,,,,,,,,,,,,,,,,,,,,,,,,,
602988,001,2022-11-13_23h28.38.990,Info_measure_main_exp,2022.2.2,MacIntel,59.84082341,,,,,,,,,,,,,,,,,,masks/mask_005.jpg,,,,,,,,,,,,,,,,,,,,,,,,,,,,,,,,,,,,,,,,,,,,,,,,0,0,0,4,1,,,,,,,,,,,,,,,,,,,,,,,,,,,,,,,,,,,,,,,,,
602988,001,2022-11-13_23h28.38.990,Info_measure_main_exp,2022.2.2,MacIntel,59.84082341,,,,,,,,,,,,,,,,,,masks/mask_002.jpg,,,,,,,,,,,,,,,,,,,,,,,,,,,,,,,,,,,,,,,,,,,,,,,,0,1,1,1,1,,,,,,,,,,,,,,,,,,,,,,,,,,,,,,,,,,,,,,,,,
602988,001,2022-11-13_23h28.38.990,Info_measure_main_exp,2022.2.2,MacIntel,59.84082341,,,,,,,,,,,,,,,,,,masks/mask_003.jpg,,,,,,,,,,,,,,,,,,,,,,,,,,,,,,,,,,,,,,,,,,,,,,,,0,2,2,2,1,,,,,,,,,,,,,,,,,,,,,,,,,,,,,,,,,,,,,,,,,
602988,001,2022-11-13_23h28.38.990,Info_measure_main_exp,2022.2.2,MacIntel,59.84082341,,,,,,,,,,,,,,,,,,masks/mask_004.jpg,,,,,,,,,,,,,,,,,,,,,,,,,,,,,,,,,,,,,,,,,,,,,,,,0,3,3,3,1,,,,,,,,,,,,,,,,,,,,,,,,,,,,,,,,,,,,,,,,,
602988,001,2022-11-13_23h28.38.990,Info_measure_main_exp,2022.2.2,MacIntel,59.84082341,,,,,,,,,,,,,,,,,,masks/mask_001.jpg,,,,,,,,,,,,,,,,,,,,,,,,,,,,,,,,,,,,,,,,,,,,,,,,0,4,4,0,1,,,,,,,,,,,,,,,,,,,,,,,,,,,,,,,,,,,,,,,,,
602988,001,2022-11-13_23h28.38.990,Info_measure_main_exp,2022.2.2,MacIntel,59.84082341,,,,,,,,,,,,,,,,,,,,,,,,,,,,,,7,1.454,1,,,,,,,,,,,,0,131,5,5,2082,2238,absent_patch/patch0002082.jpg,absent_patch/patch0002238.jpg,,,,,,,,,,,,,,,,,,,,0.025264068,0.109882311,1,0,0,response1disk,17,0.008760285,0.001804018,1,0,0,center_square,0,16,16,22,1,,,,,,,,,,,,,,,,,,,,,,,
602988,001,2022-11-13_23h28.38.990,Info_measure_main_exp,2022.2.2,MacIntel,59.84082341,,,,,,,,,,,,,,,,,,masks/mask_003.jpg,,,,,,,,,,,,,,,,,,,,,,,,,,,,,,,,,,,,,,,,,,,0,0,0,2,1,,,,,,,,,,,,,,,,,,,,,,,,,,,,,,,,,,,,,,,,,,,,,,
602988,001,2022-11-13_23h28.38.990,Info_measure_main_exp,2022.2.2,MacIntel,59.84082341,,,,,,,,,,,,,,,,,,masks/mask_002.jpg,,,,,,,,,,,,,,,,,,,,,,,,,,,,,,,,,,,,,,,,,,,0,1,1,1,1,,,,,,,,,,,,,,,,,,,,,,,,,,,,,,,,,,,,,,,,,,,,,,
602988,001,2022-11-13_23h28.38.990,Info_measure_main_exp,2022.2.2,MacIntel,59.84082341,,,,,,,,,,,,,,,,,,masks/mask_004.jpg,,,,,,,,,,,,,,,,,,,,,,,,,,,,,,,,,,,,,,,,,,,0,2,2,3,1,,,,,,,,,,,,,,,,,,,,,,,,,,,,,,,,,,,,,,,,,,,,,,
602988,001,2022-11-13_23h28.38.990,Info_measure_main_exp,2022.2.2,MacIntel,59.84082341,,,,,,,,,,,,,,,,,,masks/mask_005.jpg,,,,,,,,,,,,,,,,,,,,,,,,,,,,,,,,,,,,,,,,,,,0,3,3,4,1,,,,,,,,,,,,,,,,,,,,,,,,,,,,,,,,,,,,,,,,,,,,,,
602988,001,2022-11-13_23h28.38.990,Info_measure_main_exp,2022.2.2,MacIntel,59.84082341,,,,,,,,,,,,,,,,,,masks/mask_001.jpg,,,,,,,,,,,,,,,,,,,,,,,,,,,,,,,,,,,,,,,,,,,0,4,4,0,1,,,,,,,,,,,,,,,,,,,,,,,,,,,,,,,,,,,,,,,,,,,,,,
602988,001,2022-11-13_23h28.38.990,Info_measure_main_exp,2022.2.2,MacIntel,59.84082341,,,,,,,,,,,,,,,,,,masks/mask_004.jpg,,,,,,,,,,,,,,,,,,,,,,,,,,,,,,,,,,,,,,,,,,,,,,,,0,0,0,3,1,,,,,,,,,,,,,,,,,,,,,,,,,,,,,,,,,,,,,,,,,
602988,001,2022-11-13_23h28.38.990,Info_measure_main_exp,2022.2.2,MacIntel,59.84082341,,,,,,,,,,,,,,,,,,masks/mask_002.jpg,,,,,,,,,,,,,,,,,,,,,,,,,,,,,,,,,,,,,,,,,,,,,,,,0,1,1,1,1,,,,,,,,,,,,,,,,,,,,,,,,,,,,,,,,,,,,,,,,,
602988,001,2022-11-13_23h28.38.990,Info_measure_main_exp,2022.2.2,MacIntel,59.84082341,,,,,,,,,,,,,,,,,,masks/mask_005.jpg,,,,,,,,,,,,,,,,,,,,,,,,,,,,,,,,,,,,,,,,,,,,,,,,0,2,2,4,1,,,,,,,,,,,,,,,,,,,,,,,,,,,,,,,,,,,,,,,,,
602988,001,2022-11-13_23h28.38.990,Info_measure_main_exp,2022.2.2,MacIntel,59.84082341,,,,,,,,,,,,,,,,,,masks/mask_001.jpg,,,,,,,,,,,,,,,,,,,,,,,,,,,,,,,,,,,,,,,,,,,,,,,,0,3,3,0,1,,,,,,,,,,,,,,,,,,,,,,,,,,,,,,,,,,,,,,,,,
602988,001,2022-11-13_23h28.38.990,Info_measure_main_exp,2022.2.2,MacIntel,59.84082341,,,,,,,,,,,,,,,,,,masks/mask_003.jpg,,,,,,,,,,,,,,,,,,,,,,,,,,,,,,,,,,,,,,,,,,,,,,,,0,4,4,2,1,,,,,,,,,,,,,,,,,,,,,,,,,,,,,,,,,,,,,,,,,
602988,001,2022-11-13_23h28.38.990,Info_measure_main_exp,2022.2.2,MacIntel,59.84082341,,,,,,,,,,,,,,,,,,,,,,,,,,,,,,5,2.1051,1,,,,,,,,,,,,0,131,5,5,1986,2238,absent_patch/patch0001986.jpg,absent_patch/patch0002238.jpg,,,,,,,,,,,,,,,,,,,,0.148445932,-0.025359991,1,0,0,response3disk,18,0.011145917,-0.005577793,1,0,0,center_square,0,17,17,31,1,,,,,,,,,,,,,,,,,,,,,,,
602988,001,2022-11-13_23h28.38.990,Info_measure_main_exp,2022.2.2,MacIntel,59.84082341,,,,,,,,,,,,,,,,,,masks/mask_002.jpg,,,,,,,,,,,,,,,,,,,,,,,,,,,,,,,,,,,,,,,,,,,0,0,0,1,1,,,,,,,,,,,,,,,,,,,,,,,,,,,,,,,,,,,,,,,,,,,,,,
602988,001,2022-11-13_23h28.38.990,Info_measure_main_exp,2022.2.2,MacIntel,59.84082341,,,,,,,,,,,,,,,,,,masks/mask_001.jpg,,,,,,,,,,,,,,,,,,,,,,,,,,,,,,,,,,,,,,,,,,,0,1,1,0,1,,,,,,,,,,,,,,,,,,,,,,,,,,,,,,,,,,,,,,,,,,,,,,
602988,001,2022-11-13_23h28.38.990,Info_measure_main_exp,2022.2.2,MacIntel,59.84082341,,,,,,,,,,,,,,,,,,masks/mask_004.jpg,,,,,,,,,,,,,,,,,,,,,,,,,,,,,,,,,,,,,,,,,,,0,2,2,3,1,,,,,,,,,,,,,,,,,,,,,,,,,,,,,,,,,,,,,,,,,,,,,,
602988,001,2022-11-13_23h28.38.990,Info_measure_main_exp,2022.2.2,MacIntel,59.84082341,,,,,,,,,,,,,,,,,,masks/mask_003.jpg,,,,,,,,,,,,,,,,,,,,,,,,,,,,,,,,,,,,,,,,,,,0,3,3,2,1,,,,,,,,,,,,,,,,,,,,,,,,,,,,,,,,,,,,,,,,,,,,,,
602988,001,2022-11-13_23h28.38.990,Info_measure_main_exp,2022.2.2,MacIntel,59.84082341,,,,,,,,,,,,,,,,,,masks/mask_005.jpg,,,,,,,,,,,,,,,,,,,,,,,,,,,,,,,,,,,,,,,,,,,0,4,4,4,1,,,,,,,,,,,,,,,,,,,,,,,,,,,,,,,,,,,,,,,,,,,,,,
602988,001,2022-11-13_23h28.38.990,Info_measure_main_exp,2022.2.2,MacIntel,59.84082341,,,,,,,,,,,,,,,,,,masks/mask_004.jpg,,,,,,,,,,,,,,,,,,,,,,,,,,,,,,,,,,,,,,,,,,,,,,,,0,0,0,3,1,,,,,,,,,,,,,,,,,,,,,,,,,,,,,,,,,,,,,,,,,
602988,001,2022-11-13_23h28.38.990,Info_measure_main_exp,2022.2.2,MacIntel,59.84082341,,,,,,,,,,,,,,,,,,masks/mask_003.jpg,,,,,,,,,,,,,,,,,,,,,,,,,,,,,,,,,,,,,,,,,,,,,,,,0,1,1,2,1,,,,,,,,,,,,,,,,,,,,,,,,,,,,,,,,,,,,,,,,,
602988,001,2022-11-13_23h28.38.990,Info_measure_main_exp,2022.2.2,MacIntel,59.84082341,,,,,,,,,,,,,,,,,,masks/mask_001.jpg,,,,,,,,,,,,,,,,,,,,,,,,,,,,,,,,,,,,,,,,,,,,,,,,0,2,2,0,1,,,,,,,,,,,,,,,,,,,,,,,,,,,,,,,,,,,,,,,,,
602988,001,2022-11-13_23h28.38.990,Info_measure_main_exp,2022.2.2,MacIntel,59.84082341,,,,,,,,,,,,,,,,,,masks/mask_002.jpg,,,,,,,,,,,,,,,,,,,,,,,,,,,,,,,,,,,,,,,,,,,,,,,,0,3,3,1,1,,,,,,,,,,,,,,,,,,,,,,,,,,,,,,,,,,,,,,,,,
602988,001,2022-11-13_23h28.38.990,Info_measure_main_exp,2022.2.2,MacIntel,59.84082341,,,,,,,,,,,,,,,,,,masks/mask_005.jpg,,,,,,,,,,,,,,,,,,,,,,,,,,,,,,,,,,,,,,,,,,,,,,,,0,4,4,4,1,,,,,,,,,,,,,,,,,,,,,,,,,,,,,,,,,,,,,,,,,
602988,001,2022-11-13_23h28.38.990,Info_measure_main_exp,2022.2.2,MacIntel,59.84082341,,,,,,,,,,,,,,,,,,,,,,,,,,,,,,0,0.5856,1,,,,,,,,,,,,0,131,5,5,2142,2142,absent_patch/patch0002142.jpg,absent_patch/patch0002142.jpg,,,,,,,,,,,,,,,,,,,,-0.047596669,0.142254499,1,0,0,response7disk,19,-0.00732917,0.001441404,1,0,0,center_square,0,18,18,13,1,,,,,,,,,,,,,,,,,,,,,,,
602988,001,2022-11-13_23h28.38.990,Info_measure_main_exp,2022.2.2,MacIntel,59.84082341,,,,,,,,,,,,,,,,,,masks/mask_005.jpg,,,,,,,,,,,,,,,,,,,,,,,,,,,,,,,,,,,,,,,,,,,0,0,0,4,1,,,,,,,,,,,,,,,,,,,,,,,,,,,,,,,,,,,,,,,,,,,,,,
602988,001,2022-11-13_23h28.38.990,Info_measure_main_exp,2022.2.2,MacIntel,59.84082341,,,,,,,,,,,,,,,,,,masks/mask_001.jpg,,,,,,,,,,,,,,,,,,,,,,,,,,,,,,,,,,,,,,,,,,,0,1,1,0,1,,,,,,,,,,,,,,,,,,,,,,,,,,,,,,,,,,,,,,,,,,,,,,
602988,001,2022-11-13_23h28.38.990,Info_measure_main_exp,2022.2.2,MacIntel,59.84082341,,,,,,,,,,,,,,,,,,masks/mask_004.jpg,,,,,,,,,,,,,,,,,,,,,,,,,,,,,,,,,,,,,,,,,,,0,2,2,3,1,,,,,,,,,,,,,,,,,,,,,,,,,,,,,,,,,,,,,,,,,,,,,,
602988,001,2022-11-13_23h28.38.990,Info_measure_main_exp,2022.2.2,MacIntel,59.84082341,,,,,,,,,,,,,,,,,,masks/mask_003.jpg,,,,,,,,,,,,,,,,,,,,,,,,,,,,,,,,,,,,,,,,,,,0,3,3,2,1,,,,,,,,,,,,,,,,,,,,,,,,,,,,,,,,,,,,,,,,,,,,,,
602988,001,2022-11-13_23h28.38.990,Info_measure_main_exp,2022.2.2,MacIntel,59.84082341,,,,,,,,,,,,,,,,,,masks/mask_002.jpg,,,,,,,,,,,,,,,,,,,,,,,,,,,,,,,,,,,,,,,,,,,0,4,4,1,1,,,,,,,,,,,,,,,,,,,,,,,,,,,,,,,,,,,,,,,,,,,,,,
602988,001,2022-11-13_23h28.38.990,Info_measure_main_exp,2022.2.2,MacIntel,59.84082341,,,,,,,,,,,,,,,,,,masks/mask_005.jpg,,,,,,,,,,,,,,,,,,,,,,,,,,,,,,,,,,,,,,,,,,,,,,,,0,0,0,4,1,,,,,,,,,,,,,,,,,,,,,,,,,,,,,,,,,,,,,,,,,
602988,001,2022-11-13_23h28.38.990,Info_measure_main_exp,2022.2.2,MacIntel,59.84082341,,,,,,,,,,,,,,,,,,masks/mask_002.jpg,,,,,,,,,,,,,,,,,,,,,,,,,,,,,,,,,,,,,,,,,,,,,,,,0,1,1,1,1,,,,,,,,,,,,,,,,,,,,,,,,,,,,,,,,,,,,,,,,,
602988,001,2022-11-13_23h28.38.990,Info_measure_main_exp,2022.2.2,MacIntel,59.84082341,,,,,,,,,,,,,,,,,,masks/mask_004.jpg,,,,,,,,,,,,,,,,,,,,,,,,,,,,,,,,,,,,,,,,,,,,,,,,0,2,2,3,1,,,,,,,,,,,,,,,,,,,,,,,,,,,,,,,,,,,,,,,,,
602988,001,2022-11-13_23h28.38.990,Info_measure_main_exp,2022.2.2,MacIntel,59.84082341,,,,,,,,,,,,,,,,,,masks/mask_001.jpg,,,,,,,,,,,,,,,,,,,,,,,,,,,,,,,,,,,,,,,,,,,,,,,,0,3,3,0,1,,,,,,,,,,,,,,,,,,,,,,,,,,,,,,,,,,,,,,,,,
602988,001,2022-11-13_23h28.38.990,Info_measure_main_exp,2022.2.2,MacIntel,59.84082341,,,,,,,,,,,,,,,,,,masks/mask_003.jpg,,,,,,,,,,,,,,,,,,,,,,,,,,,,,,,,,,,,,,,,,,,,,,,,0,4,4,2,1,,,,,,,,,,,,,,,,,,,,,,,,,,,,,,,,,,,,,,,,,
602988,001,2022-11-13_23h28.38.990,Info_measure_main_exp,2022.2.2,MacIntel,59.84082341,,,,,,,,,,,,,,,,,,,,,,,,,,,,,,7,1.8544,1,,,,,,,,,,,,0,131,5,5,2178,2238,absent_patch/patch0002178.jpg,absent_patch/patch0002238.jpg,,,,,,,,,,,,,,,,,,,,0.071593465,0.182893083,1,0,0,response1disk,20,0.006631095,0.006418903,1,0,0,center_square,0,19,19,57,1,,,,,,,,,,,,,,,,,,,,,,,
602988,001,2022-11-13_23h28.38.990,Info_measure_main_exp,2022.2.2,MacIntel,59.84082341,,,,,,,,,,,,,,,,,,masks/mask_003.jpg,,,,,,,,,,,,,,,,,,,,,,,,,,,,,,,,,,,,,,,,,,,0,0,0,2,1,,,,,,,,,,,,,,,,,,,,,,,,,,,,,,,,,,,,,,,,,,,,,,
602988,001,2022-11-13_23h28.38.990,Info_measure_main_exp,2022.2.2,MacIntel,59.84082341,,,,,,,,,,,,,,,,,,masks/mask_001.jpg,,,,,,,,,,,,,,,,,,,,,,,,,,,,,,,,,,,,,,,,,,,0,1,1,0,1,,,,,,,,,,,,,,,,,,,,,,,,,,,,,,,,,,,,,,,,,,,,,,
602988,001,2022-11-13_23h28.38.990,Info_measure_main_exp,2022.2.2,MacIntel,59.84082341,,,,,,,,,,,,,,,,,,masks/mask_002.jpg,,,,,,,,,,,,,,,,,,,,,,,,,,,,,,,,,,,,,,,,,,,0,2,2,1,1,,,,,,,,,,,,,,,,,,,,,,,,,,,,,,,,,,,,,,,,,,,,,,
602988,001,2022-11-13_23h28.38.990,Info_measure_main_exp,2022.2.2,MacIntel,59.84082341,,,,,,,,,,,,,,,,,,masks/mask_004.jpg,,,,,,,,,,,,,,,,,,,,,,,,,,,,,,,,,,,,,,,,,,,0,3,3,3,1,,,,,,,,,,,,,,,,,,,,,,,,,,,,,,,,,,,,,,,,,,,,,,
602988,001,2022-11-13_23h28.38.990,Info_measure_main_exp,2022.2.2,MacIntel,59.84082341,,,,,,,,,,,,,,,,,,masks/mask_005.jpg,,,,,,,,,,,,,,,,,,,,,,,,,,,,,,,,,,,,,,,,,,,0,4,4,4,1,,,,,,,,,,,,,,,,,,,,,,,,,,,,,,,,,,,,,,,,,,,,,,
602988,001,2022-11-13_23h28.38.990,Info_measure_main_exp,2022.2.2,MacIntel,59.84082341,,,,,,,,,,,,,,,,,,masks/mask_003.jpg,,,,,,,,,,,,,,,,,,,,,,,,,,,,,,,,,,,,,,,,,,,,,,,,0,0,0,2,1,,,,,,,,,,,,,,,,,,,,,,,,,,,,,,,,,,,,,,,,,
602988,001,2022-11-13_23h28.38.990,Info_measure_main_exp,2022.2.2,MacIntel,59.84082341,,,,,,,,,,,,,,,,,,masks/mask_004.jpg,,,,,,,,,,,,,,,,,,,,,,,,,,,,,,,,,,,,,,,,,,,,,,,,0,1,1,3,1,,,,,,,,,,,,,,,,,,,,,,,,,,,,,,,,,,,,,,,,,
602988,001,2022-11-13_23h28.38.990,Info_measure_main_exp,2022.2.2,MacIntel,59.84082341,,,,,,,,,,,,,,,,,,masks/mask_002.jpg,,,,,,,,,,,,,,,,,,,,,,,,,,,,,,,,,,,,,,,,,,,,,,,,0,2,2,1,1,,,,,,,,,,,,,,,,,,,,,,,,,,,,,,,,,,,,,,,,,
602988,001,2022-11-13_23h28.38.990,Info_measure_main_exp,2022.2.2,MacIntel,59.84082341,,,,,,,,,,,,,,,,,,masks/mask_005.jpg,,,,,,,,,,,,,,,,,,,,,,,,,,,,,,,,,,,,,,,,,,,,,,,,0,3,3,4,1,,,,,,,,,,,,,,,,,,,,,,,,,,,,,,,,,,,,,,,,,
602988,001,2022-11-13_23h28.38.990,Info_measure_main_exp,2022.2.2,MacIntel,59.84082341,,,,,,,,,,,,,,,,,,masks/mask_001.jpg,,,,,,,,,,,,,,,,,,,,,,,,,,,,,,,,,,,,,,,,,,,,,,,,0,4,4,0,1,,,,,,,,,,,,,,,,,,,,,,,,,,,,,,,,,,,,,,,,,
602988,001,2022-11-13_23h28.38.990,Info_measure_main_exp,2022.2.2,MacIntel,59.84082341,,,,,,,,,,,,,,,,,,,,,,,,,,,,,,4,1.4719,1,,,,,,,,,,,,0,131,5,5,1974,2298,absent_patch/patch0001974.jpg,absent_patch/patch0002298.jpg,,,,,,,,,,,,,,,,,,,,0.051373036,-0.114026126,1,0,0,response3disk,21,-0.000555814,-0.002786034,1,0,0,center_square,0,20,20,6,1,,,,,,,,,,,,,,,,,,,,,,,
602988,001,2022-11-13_23h28.38.990,Info_measure_main_exp,2022.2.2,MacIntel,59.84082341,,,,,,,,,,,,,,,,,,masks/mask_004.jpg,,,,,,,,,,,,,,,,,,,,,,,,,,,,,,,,,,,,,,,,,,,0,0,0,3,1,,,,,,,,,,,,,,,,,,,,,,,,,,,,,,,,,,,,,,,,,,,,,,
602988,001,2022-11-13_23h28.38.990,Info_measure_main_exp,2022.2.2,MacIntel,59.84082341,,,,,,,,,,,,,,,,,,masks/mask_003.jpg,,,,,,,,,,,,,,,,,,,,,,,,,,,,,,,,,,,,,,,,,,,0,1,1,2,1,,,,,,,,,,,,,,,,,,,,,,,,,,,,,,,,,,,,,,,,,,,,,,
602988,001,2022-11-13_23h28.38.990,Info_measure_main_exp,2022.2.2,MacIntel,59.84082341,,,,,,,,,,,,,,,,,,masks/mask_002.jpg,,,,,,,,,,,,,,,,,,,,,,,,,,,,,,,,,,,,,,,,,,,0,2,2,1,1,,,,,,,,,,,,,,,,,,,,,,,,,,,,,,,,,,,,,,,,,,,,,,
602988,001,2022-11-13_23h28.38.990,Info_measure_main_exp,2022.2.2,MacIntel,59.84082341,,,,,,,,,,,,,,,,,,masks/mask_005.jpg,,,,,,,,,,,,,,,,,,,,,,,,,,,,,,,,,,,,,,,,,,,0,3,3,4,1,,,,,,,,,,,,,,,,,,,,,,,,,,,,,,,,,,,,,,,,,,,,,,
602988,001,2022-11-13_23h28.38.990,Info_measure_main_exp,2022.2.2,MacIntel,59.84082341,,,,,,,,,,,,,,,,,,masks/mask_001.jpg,,,,,,,,,,,,,,,,,,,,,,,,,,,,,,,,,,,,,,,,,,,0,4,4,0,1,,,,,,,,,,,,,,,,,,,,,,,,,,,,,,,,,,,,,,,,,,,,,,
602988,001,2022-11-13_23h28.38.990,Info_measure_main_exp,2022.2.2,MacIntel,59.84082341,,,,,,,,,,,,,,,,,,masks/mask_001.jpg,,,,,,,,,,,,,,,,,,,,,,,,,,,,,,,,,,,,,,,,,,,,,,,,0,0,0,0,1,,,,,,,,,,,,,,,,,,,,,,,,,,,,,,,,,,,,,,,,,
602988,001,2022-11-13_23h28.38.990,Info_measure_main_exp,2022.2.2,MacIntel,59.84082341,,,,,,,,,,,,,,,,,,masks/mask_004.jpg,,,,,,,,,,,,,,,,,,,,,,,,,,,,,,,,,,,,,,,,,,,,,,,,0,1,1,3,1,,,,,,,,,,,,,,,,,,,,,,,,,,,,,,,,,,,,,,,,,
602988,001,2022-11-13_23h28.38.990,Info_measure_main_exp,2022.2.2,MacIntel,59.84082341,,,,,,,,,,,,,,,,,,masks/mask_002.jpg,,,,,,,,,,,,,,,,,,,,,,,,,,,,,,,,,,,,,,,,,,,,,,,,0,2,2,1,1,,,,,,,,,,,,,,,,,,,,,,,,,,,,,,,,,,,,,,,,,
602988,001,2022-11-13_23h28.38.990,Info_measure_main_exp,2022.2.2,MacIntel,59.84082341,,,,,,,,,,,,,,,,,,masks/mask_003.jpg,,,,,,,,,,,,,,,,,,,,,,,,,,,,,,,,,,,,,,,,,,,,,,,,0,3,3,2,1,,,,,,,,,,,,,,,,,,,,,,,,,,,,,,,,,,,,,,,,,
602988,001,2022-11-13_23h28.38.990,Info_measure_main_exp,2022.2.2,MacIntel,59.84082341,,,,,,,,,,,,,,,,,,masks/mask_005.jpg,,,,,,,,,,,,,,,,,,,,,,,,,,,,,,,,,,,,,,,,,,,,,,,,0,4,4,4,1,,,,,,,,,,,,,,,,,,,,,,,,,,,,,,,,,,,,,,,,,
602988,001,2022-11-13_23h28.38.990,Info_measure_main_exp,2022.2.2,MacIntel,59.84082341,,,,,,,,,,,,,,,,,,,,,,,,,,,,,,7,0.9035,1,,,,,,,,,,,,0,131,5,5,2154,2190,absent_patch/patch0002154.jpg,absent_patch/patch0002190.jpg,,,,,,,,,,,,,,,,,,,,0.076165609,0.106195447,1,0,0,response1disk,22,0.001269903,-0.001083393,1,0,0,center_square,0,21,21,68,1,,,,,,,,,,,,,,,,,,,,,,,
602988,001,2022-11-13_23h28.38.990,Info_measure_main_exp,2022.2.2,MacIntel,59.84082341,,,,,,,,,,,,,,,,,,masks/mask_003.jpg,,,,,,,,,,,,,,,,,,,,,,,,,,,,,,,,,,,,,,,,,,,0,0,0,2,1,,,,,,,,,,,,,,,,,,,,,,,,,,,,,,,,,,,,,,,,,,,,,,
602988,001,2022-11-13_23h28.38.990,Info_measure_main_exp,2022.2.2,MacIntel,59.84082341,,,,,,,,,,,,,,,,,,masks/mask_005.jpg,,,,,,,,,,,,,,,,,,,,,,,,,,,,,,,,,,,,,,,,,,,0,1,1,4,1,,,,,,,,,,,,,,,,,,,,,,,,,,,,,,,,,,,,,,,,,,,,,,
602988,001,2022-11-13_23h28.38.990,Info_measure_main_exp,2022.2.2,MacIntel,59.84082341,,,,,,,,,,,,,,,,,,masks/mask_001.jpg,,,,,,,,,,,,,,,,,,,,,,,,,,,,,,,,,,,,,,,,,,,0,2,2,0,1,,,,,,,,,,,,,,,,,,,,,,,,,,,,,,,,,,,,,,,,,,,,,,
602988,001,2022-11-13_23h28.38.990,Info_measure_main_exp,2022.2.2,MacIntel,59.84082341,,,,,,,,,,,,,,,,,,masks/mask_002.jpg,,,,,,,,,,,,,,,,,,,,,,,,,,,,,,,,,,,,,,,,,,,0,3,3,1,1,,,,,,,,,,,,,,,,,,,,,,,,,,,,,,,,,,,,,,,,,,,,,,
602988,001,2022-11-13_23h28.38.990,Info_measure_main_exp,2022.2.2,MacIntel,59.84082341,,,,,,,,,,,,,,,,,,masks/mask_004.jpg,,,,,,,,,,,,,,,,,,,,,,,,,,,,,,,,,,,,,,,,,,,0,4,4,3,1,,,,,,,,,,,,,,,,,,,,,,,,,,,,,,,,,,,,,,,,,,,,,,
602988,001,2022-11-13_23h28.38.990,Info_measure_main_exp,2022.2.2,MacIntel,59.84082341,,,,,,,,,,,,,,,,,,masks/mask_001.jpg,,,,,,,,,,,,,,,,,,,,,,,,,,,,,,,,,,,,,,,,,,,,,,,,0,0,0,0,1,,,,,,,,,,,,,,,,,,,,,,,,,,,,,,,,,,,,,,,,,
602988,001,2022-11-13_23h28.38.990,Info_measure_main_exp,2022.2.2,MacIntel,59.84082341,,,,,,,,,,,,,,,,,,masks/mask_002.jpg,,,,,,,,,,,,,,,,,,,,,,,,,,,,,,,,,,,,,,,,,,,,,,,,0,1,1,1,1,,,,,,,,,,,,,,,,,,,,,,,,,,,,,,,,,,,,,,,,,
602988,001,2022-11-13_23h28.38.990,Info_measure_main_exp,2022.2.2,MacIntel,59.84082341,,,,,,,,,,,,,,,,,,masks/mask_003.jpg,,,,,,,,,,,,,,,,,,,,,,,,,,,,,,,,,,,,,,,,,,,,,,,,0,2,2,2,1,,,,,,,,,,,,,,,,,,,,,,,,,,,,,,,,,,,,,,,,,
602988,001,2022-11-13_23h28.38.990,Info_measure_main_exp,2022.2.2,MacIntel,59.84082341,,,,,,,,,,,,,,,,,,masks/mask_004.jpg,,,,,,,,,,,,,,,,,,,,,,,,,,,,,,,,,,,,,,,,,,,,,,,,0,3,3,3,1,,,,,,,,,,,,,,,,,,,,,,,,,,,,,,,,,,,,,,,,,
602988,001,2022-11-13_23h28.38.990,Info_measure_main_exp,2022.2.2,MacIntel,59.84082341,,,,,,,,,,,,,,,,,,masks/mask_005.jpg,,,,,,,,,,,,,,,,,,,,,,,,,,,,,,,,,,,,,,,,,,,,,,,,0,4,4,4,1,,,,,,,,,,,,,,,,,,,,,,,,,,,,,,,,,,,,,,,,,
602988,001,2022-11-13_23h28.38.990,Info_measure_main_exp,2022.2.2,MacIntel,59.84082341,,,,,,,,,,,,,,,,,,,,,,,,,,,,,,4,5.8488,1,,,,,,,,,,,,0,131,5,5,2250,2142,absent_patch/patch0002250.jpg,absent_patch/patch0002142.jpg,,,,,,,,,,,,,,,,,,,,0.035472411,-0.06413913,1,0,0,response3disk,23,0.002022515,0.00226008,1,0,0,center_square,0,22,22,71,1,,,,,,,,,,,,,,,,,,,,,,,
602988,001,2022-11-13_23h28.38.990,Info_measure_main_exp,2022.2.2,MacIntel,59.84082341,,,,,,,,,,,,,,,,,,masks/mask_004.jpg,,,,,,,,,,,,,,,,,,,,,,,,,,,,,,,,,,,,,,,,,,,0,0,0,3,1,,,,,,,,,,,,,,,,,,,,,,,,,,,,,,,,,,,,,,,,,,,,,,
602988,001,2022-11-13_23h28.38.990,Info_measure_main_exp,2022.2.2,MacIntel,59.84082341,,,,,,,,,,,,,,,,,,masks/mask_001.jpg,,,,,,,,,,,,,,,,,,,,,,,,,,,,,,,,,,,,,,,,,,,0,1,1,0,1,,,,,,,,,,,,,,,,,,,,,,,,,,,,,,,,,,,,,,,,,,,,,,
602988,001,2022-11-13_23h28.38.990,Info_measure_main_exp,2022.2.2,MacIntel,59.84082341,,,,,,,,,,,,,,,,,,masks/mask_005.jpg,,,,,,,,,,,,,,,,,,,,,,,,,,,,,,,,,,,,,,,,,,,0,2,2,4,1,,,,,,,,,,,,,,,,,,,,,,,,,,,,,,,,,,,,,,,,,,,,,,
602988,001,2022-11-13_23h28.38.990,Info_measure_main_exp,2022.2.2,MacIntel,59.84082341,,,,,,,,,,,,,,,,,,masks/mask_003.jpg,,,,,,,,,,,,,,,,,,,,,,,,,,,,,,,,,,,,,,,,,,,0,3,3,2,1,,,,,,,,,,,,,,,,,,,,,,,,,,,,,,,,,,,,,,,,,,,,,,
602988,001,2022-11-13_23h28.38.990,Info_measure_main_exp,2022.2.2,MacIntel,59.84082341,,,,,,,,,,,,,,,,,,masks/mask_002.jpg,,,,,,,,,,,,,,,,,,,,,,,,,,,,,,,,,,,,,,,,,,,0,4,4,1,1,,,,,,,,,,,,,,,,,,,,,,,,,,,,,,,,,,,,,,,,,,,,,,
602988,001,2022-11-13_23h28.38.990,Info_measure_main_exp,2022.2.2,MacIntel,59.84082341,,,,,,,,,,,,,,,,,,masks/mask_004.jpg,,,,,,,,,,,,,,,,,,,,,,,,,,,,,,,,,,,,,,,,,,,,,,,,0,0,0,3,1,,,,,,,,,,,,,,,,,,,,,,,,,,,,,,,,,,,,,,,,,
602988,001,2022-11-13_23h28.38.990,Info_measure_main_exp,2022.2.2,MacIntel,59.84082341,,,,,,,,,,,,,,,,,,masks/mask_002.jpg,,,,,,,,,,,,,,,,,,,,,,,,,,,,,,,,,,,,,,,,,,,,,,,,0,1,1,1,1,,,,,,,,,,,,,,,,,,,,,,,,,,,,,,,,,,,,,,,,,
602988,001,2022-11-13_23h28.38.990,Info_measure_main_exp,2022.2.2,MacIntel,59.84082341,,,,,,,,,,,,,,,,,,masks/mask_001.jpg,,,,,,,,,,,,,,,,,,,,,,,,,,,,,,,,,,,,,,,,,,,,,,,,0,2,2,0,1,,,,,,,,,,,,,,,,,,,,,,,,,,,,,,,,,,,,,,,,,
602988,001,2022-11-13_23h28.38.990,Info_measure_main_exp,2022.2.2,MacIntel,59.84082341,,,,,,,,,,,,,,,,,,masks/mask_005.jpg,,,,,,,,,,,,,,,,,,,,,,,,,,,,,,,,,,,,,,,,,,,,,,,,0,3,3,4,1,,,,,,,,,,,,,,,,,,,,,,,,,,,,,,,,,,,,,,,,,
602988,001,2022-11-13_23h28.38.990,Info_measure_main_exp,2022.2.2,MacIntel,59.84082341,,,,,,,,,,,,,,,,,,masks/mask_003.jpg,,,,,,,,,,,,,,,,,,,,,,,,,,,,,,,,,,,,,,,,,,,,,,,,0,4,4,2,1,,,,,,,,,,,,,,,,,,,,,,,,,,,,,,,,,,,,,,,,,
602988,001,2022-11-13_23h28.38.990,Info_measure_main_exp,2022.2.2,MacIntel,59.84082341,,,,,,,,,,,,,,,,,,,,,,,,,,,,,,4,1.002,1,,,,,,,,,,,,0,131,5,5,2166,1986,absent_patch/patch0002166.jpg,absent_patch/patch0001986.jpg,,,,,,,,,,,,,,,,,,,,0.032681425,-0.086610357,1,0,0,response3disk,24,-0.003249639,-0.004649734,1,0,0,center_square,0,23,23,47,1,,,,,,,,,,,,,,,,,,,,,,,
602988,001,2022-11-13_23h28.38.990,Info_measure_main_exp,2022.2.2,MacIntel,59.84082341,,,,,,,,,,,,,,,,,,masks/mask_005.jpg,,,,,,,,,,,,,,,,,,,,,,,,,,,,,,,,,,,,,,,,,,,0,0,0,4,1,,,,,,,,,,,,,,,,,,,,,,,,,,,,,,,,,,,,,,,,,,,,,,
602988,001,2022-11-13_23h28.38.990,Info_measure_main_exp,2022.2.2,MacIntel,59.84082341,,,,,,,,,,,,,,,,,,masks/mask_004.jpg,,,,,,,,,,,,,,,,,,,,,,,,,,,,,,,,,,,,,,,,,,,0,1,1,3,1,,,,,,,,,,,,,,,,,,,,,,,,,,,,,,,,,,,,,,,,,,,,,,
602988,001,2022-11-13_23h28.38.990,Info_measure_main_exp,2022.2.2,MacIntel,59.84082341,,,,,,,,,,,,,,,,,,masks/mask_002.jpg,,,,,,,,,,,,,,,,,,,,,,,,,,,,,,,,,,,,,,,,,,,0,2,2,1,1,,,,,,,,,,,,,,,,,,,,,,,,,,,,,,,,,,,,,,,,,,,,,,
602988,001,2022-11-13_23h28.38.990,Info_measure_main_exp,2022.2.2,MacIntel,59.84082341,,,,,,,,,,,,,,,,,,masks/mask_001.jpg,,,,,,,,,,,,,,,,,,,,,,,,,,,,,,,,,,,,,,,,,,,0,3,3,0,1,,,,,,,,,,,,,,,,,,,,,,,,,,,,,,,,,,,,,,,,,,,,,,
602988,001,2022-11-13_23h28.38.990,Info_measure_main_exp,2022.2.2,MacIntel,59.84082341,,,,,,,,,,,,,,,,,,masks/mask_003.jpg,,,,,,,,,,,,,,,,,,,,,,,,,,,,,,,,,,,,,,,,,,,0,4,4,2,1,,,,,,,,,,,,,,,,,,,,,,,,,,,,,,,,,,,,,,,,,,,,,,
602988,001,2022-11-13_23h28.38.990,Info_measure_main_exp,2022.2.2,MacIntel,59.84082341,,,,,,,,,,,,,,,,,,masks/mask_003.jpg,,,,,,,,,,,,,,,,,,,,,,,,,,,,,,,,,,,,,,,,,,,,,,,,0,0,0,2,1,,,,,,,,,,,,,,,,,,,,,,,,,,,,,,,,,,,,,,,,,
602988,001,2022-11-13_23h28.38.990,Info_measure_main_exp,2022.2.2,MacIntel,59.84082341,,,,,,,,,,,,,,,,,,masks/mask_002.jpg,,,,,,,,,,,,,,,,,,,,,,,,,,,,,,,,,,,,,,,,,,,,,,,,0,1,1,1,1,,,,,,,,,,,,,,,,,,,,,,,,,,,,,,,,,,,,,,,,,
602988,001,2022-11-13_23h28.38.990,Info_measure_main_exp,2022.2.2,MacIntel,59.84082341,,,,,,,,,,,,,,,,,,masks/mask_001.jpg,,,,,,,,,,,,,,,,,,,,,,,,,,,,,,,,,,,,,,,,,,,,,,,,0,2,2,0,1,,,,,,,,,,,,,,,,,,,,,,,,,,,,,,,,,,,,,,,,,
602988,001,2022-11-13_23h28.38.990,Info_measure_main_exp,2022.2.2,MacIntel,59.84082341,,,,,,,,,,,,,,,,,,masks/mask_005.jpg,,,,,,,,,,,,,,,,,,,,,,,,,,,,,,,,,,,,,,,,,,,,,,,,0,3,3,4,1,,,,,,,,,,,,,,,,,,,,,,,,,,,,,,,,,,,,,,,,,
602988,001,2022-11-13_23h28.38.990,Info_measure_main_exp,2022.2.2,MacIntel,59.84082341,,,,,,,,,,,,,,,,,,masks/mask_004.jpg,,,,,,,,,,,,,,,,,,,,,,,,,,,,,,,,,,,,,,,,,,,,,,,,0,4,4,3,1,,,,,,,,,,,,,,,,,,,,,,,,,,,,,,,,,,,,,,,,,
602988,001,2022-11-13_23h28.38.990,Info_measure_main_exp,2022.2.2,MacIntel,59.84082341,,,,,,,,,,,,,,,,,,,,,,,,,,,,,,3,2.2083,1,,,,,,,,,,,,0,131,5,5,1974,2178,absent_patch/patch0001974.jpg,absent_patch/patch0002178.jpg,,,,,,,,,,,,,,,,,,,,-0.043216836,-0.102525525,1,0,0,response5disk,25,0.002484185,0.010144213,1,0,0,center_square,0,24,24,44,1,,,,,,,,,,,,,,,,,,,,,,,
602988,001,2022-11-13_23h28.38.990,Info_measure_main_exp,2022.2.2,MacIntel,59.84082341,,,,,,,,,,,,,,,,,,masks/mask_003.jpg,,,,,,,,,,,,,,,,,,,,,,,,,,,,,,,,,,,,,,,,,,,0,0,0,2,1,,,,,,,,,,,,,,,,,,,,,,,,,,,,,,,,,,,,,,,,,,,,,,
602988,001,2022-11-13_23h28.38.990,Info_measure_main_exp,2022.2.2,MacIntel,59.84082341,,,,,,,,,,,,,,,,,,masks/mask_001.jpg,,,,,,,,,,,,,,,,,,,,,,,,,,,,,,,,,,,,,,,,,,,0,1,1,0,1,,,,,,,,,,,,,,,,,,,,,,,,,,,,,,,,,,,,,,,,,,,,,,
602988,001,2022-11-13_23h28.38.990,Info_measure_main_exp,2022.2.2,MacIntel,59.84082341,,,,,,,,,,,,,,,,,,masks/mask_004.jpg,,,,,,,,,,,,,,,,,,,,,,,,,,,,,,,,,,,,,,,,,,,0,2,2,3,1,,,,,,,,,,,,,,,,,,,,,,,,,,,,,,,,,,,,,,,,,,,,,,
602988,001,2022-11-13_23h28.38.990,Info_measure_main_exp,2022.2.2,MacIntel,59.84082341,,,,,,,,,,,,,,,,,,masks/mask_002.jpg,,,,,,,,,,,,,,,,,,,,,,,,,,,,,,,,,,,,,,,,,,,0,3,3,1,1,,,,,,,,,,,,,,,,,,,,,,,,,,,,,,,,,,,,,,,,,,,,,,
602988,001,2022-11-13_23h28.38.990,Info_measure_main_exp,2022.2.2,MacIntel,59.84082341,,,,,,,,,,,,,,,,,,masks/mask_005.jpg,,,,,,,,,,,,,,,,,,,,,,,,,,,,,,,,,,,,,,,,,,,0,4,4,4,1,,,,,,,,,,,,,,,,,,,,,,,,,,,,,,,,,,,,,,,,,,,,,,
602988,001,2022-11-13_23h28.38.990,Info_measure_main_exp,2022.2.2,MacIntel,59.84082341,,,,,,,,,,,,,,,,,,masks/mask_004.jpg,,,,,,,,,,,,,,,,,,,,,,,,,,,,,,,,,,,,,,,,,,,,,,,,0,0,0,3,1,,,,,,,,,,,,,,,,,,,,,,,,,,,,,,,,,,,,,,,,,
602988,001,2022-11-13_23h28.38.990,Info_measure_main_exp,2022.2.2,MacIntel,59.84082341,,,,,,,,,,,,,,,,,,masks/mask_001.jpg,,,,,,,,,,,,,,,,,,,,,,,,,,,,,,,,,,,,,,,,,,,,,,,,0,1,1,0,1,,,,,,,,,,,,,,,,,,,,,,,,,,,,,,,,,,,,,,,,,
602988,001,2022-11-13_23h28.38.990,Info_measure_main_exp,2022.2.2,MacIntel,59.84082341,,,,,,,,,,,,,,,,,,masks/mask_003.jpg,,,,,,,,,,,,,,,,,,,,,,,,,,,,,,,,,,,,,,,,,,,,,,,,0,2,2,2,1,,,,,,,,,,,,,,,,,,,,,,,,,,,,,,,,,,,,,,,,,
602988,001,2022-11-13_23h28.38.990,Info_measure_main_exp,2022.2.2,MacIntel,59.84082341,,,,,,,,,,,,,,,,,,masks/mask_002.jpg,,,,,,,,,,,,,,,,,,,,,,,,,,,,,,,,,,,,,,,,,,,,,,,,0,3,3,1,1,,,,,,,,,,,,,,,,,,,,,,,,,,,,,,,,,,,,,,,,,
602988,001,2022-11-13_23h28.38.990,Info_measure_main_exp,2022.2.2,MacIntel,59.84082341,,,,,,,,,,,,,,,,,,masks/mask_005.jpg,,,,,,,,,,,,,,,,,,,,,,,,,,,,,,,,,,,,,,,,,,,,,,,,0,4,4,4,1,,,,,,,,,,,,,,,,,,,,,,,,,,,,,,,,,,,,,,,,,
602988,001,2022-11-13_23h28.38.990,Info_measure_main_exp,2022.2.2,MacIntel,59.84082341,,,,,,,,,,,,,,,,,,,,,,,,,,,,,,3,1.5704,1,,,,,,,,,,,,0,131,5,5,1950,2082,absent_patch/patch0001950.jpg,absent_patch/patch0002082.jpg,,,,,,,,,,,,,,,,,,,,-0.035235619,-0.100031902,1,0,0,response5disk,26,0.00394137,-0.006936154,1,0,0,center_square,0,25,25,12,1,,,,,,,,,,,,,,,,,,,,,,,
602988,001,2022-11-13_23h28.38.990,Info_measure_main_exp,2022.2.2,MacIntel,59.84082341,,,,,,,,,,,,,,,,,,masks/mask_005.jpg,,,,,,,,,,,,,,,,,,,,,,,,,,,,,,,,,,,,,,,,,,,0,0,0,4,1,,,,,,,,,,,,,,,,,,,,,,,,,,,,,,,,,,,,,,,,,,,,,,
602988,001,2022-11-13_23h28.38.990,Info_measure_main_exp,2022.2.2,MacIntel,59.84082341,,,,,,,,,,,,,,,,,,masks/mask_002.jpg,,,,,,,,,,,,,,,,,,,,,,,,,,,,,,,,,,,,,,,,,,,0,1,1,1,1,,,,,,,,,,,,,,,,,,,,,,,,,,,,,,,,,,,,,,,,,,,,,,
602988,001,2022-11-13_23h28.38.990,Info_measure_main_exp,2022.2.2,MacIntel,59.84082341,,,,,,,,,,,,,,,,,,masks/mask_003.jpg,,,,,,,,,,,,,,,,,,,,,,,,,,,,,,,,,,,,,,,,,,,0,2,2,2,1,,,,,,,,,,,,,,,,,,,,,,,,,,,,,,,,,,,,,,,,,,,,,,
602988,001,2022-11-13_23h28.38.990,Info_measure_main_exp,2022.2.2,MacIntel,59.84082341,,,,,,,,,,,,,,,,,,masks/mask_001.jpg,,,,,,,,,,,,,,,,,,,,,,,,,,,,,,,,,,,,,,,,,,,0,3,3,0,1,,,,,,,,,,,,,,,,,,,,,,,,,,,,,,,,,,,,,,,,,,,,,,
602988,001,2022-11-13_23h28.38.990,Info_measure_main_exp,2022.2.2,MacIntel,59.84082341,,,,,,,,,,,,,,,,,,masks/mask_004.jpg,,,,,,,,,,,,,,,,,,,,,,,,,,,,,,,,,,,,,,,,,,,0,4,4,3,1,,,,,,,,,,,,,,,,,,,,,,,,,,,,,,,,,,,,,,,,,,,,,,
602988,001,2022-11-13_23h28.38.990,Info_measure_main_exp,2022.2.2,MacIntel,59.84082341,,,,,,,,,,,,,,,,,,masks/mask_001.jpg,,,,,,,,,,,,,,,,,,,,,,,,,,,,,,,,,,,,,,,,,,,,,,,,0,0,0,0,1,,,,,,,,,,,,,,,,,,,,,,,,,,,,,,,,,,,,,,,,,
602988,001,2022-11-13_23h28.38.990,Info_measure_main_exp,2022.2.2,MacIntel,59.84082341,,,,,,,,,,,,,,,,,,masks/mask_002.jpg,,,,,,,,,,,,,,,,,,,,,,,,,,,,,,,,,,,,,,,,,,,,,,,,0,1,1,1,1,,,,,,,,,,,,,,,,,,,,,,,,,,,,,,,,,,,,,,,,,
602988,001,2022-11-13_23h28.38.990,Info_measure_main_exp,2022.2.2,MacIntel,59.84082341,,,,,,,,,,,,,,,,,,masks/mask_003.jpg,,,,,,,,,,,,,,,,,,,,,,,,,,,,,,,,,,,,,,,,,,,,,,,,0,2,2,2,1,,,,,,,,,,,,,,,,,,,,,,,,,,,,,,,,,,,,,,,,,
602988,001,2022-11-13_23h28.38.990,Info_measure_main_exp,2022.2.2,MacIntel,59.84082341,,,,,,,,,,,,,,,,,,masks/mask_004.jpg,,,,,,,,,,,,,,,,,,,,,,,,,,,,,,,,,,,,,,,,,,,,,,,,0,3,3,3,1,,,,,,,,,,,,,,,,,,,,,,,,,,,,,,,,,,,,,,,,,
602988,001,2022-11-13_23h28.38.990,Info_measure_main_exp,2022.2.2,MacIntel,59.84082341,,,,,,,,,,,,,,,,,,masks/mask_005.jpg,,,,,,,,,,,,,,,,,,,,,,,,,,,,,,,,,,,,,,,,,,,,,,,,0,4,4,4,1,,,,,,,,,,,,,,,,,,,,,,,,,,,,,,,,,,,,,,,,,
602988,001,2022-11-13_23h28.38.990,Info_measure_main_exp,2022.2.2,MacIntel,59.84082341,,,,,,,,,,,,,,,,,,,,,,,,,,,,,,0,1.0368,1,,,,,,,,,,,,0,131,5,5,2190,2190,absent_patch/patch0002190.jpg,absent_patch/patch0002190.jpg,,,,,,,,,,,,,,,,,,,,-0.05301557,0.118243509,1,0,0,response7disk,27,-0.013172841,-0.000115185,1,0,0,center_square,0,26,26,86,1,,,,,,,,,,,,,,,,,,,,,,,
602988,001,2022-11-13_23h28.38.990,Info_measure_main_exp,2022.2.2,MacIntel,59.84082341,,,,,,,,,,,,,,,,,,masks/mask_004.jpg,,,,,,,,,,,,,,,,,,,,,,,,,,,,,,,,,,,,,,,,,,,0,0,0,3,1,,,,,,,,,,,,,,,,,,,,,,,,,,,,,,,,,,,,,,,,,,,,,,
602988,001,2022-11-13_23h28.38.990,Info_measure_main_exp,2022.2.2,MacIntel,59.84082341,,,,,,,,,,,,,,,,,,masks/mask_005.jpg,,,,,,,,,,,,,,,,,,,,,,,,,,,,,,,,,,,,,,,,,,,0,1,1,4,1,,,,,,,,,,,,,,,,,,,,,,,,,,,,,,,,,,,,,,,,,,,,,,
602988,001,2022-11-13_23h28.38.990,Info_measure_main_exp,2022.2.2,MacIntel,59.84082341,,,,,,,,,,,,,,,,,,masks/mask_003.jpg,,,,,,,,,,,,,,,,,,,,,,,,,,,,,,,,,,,,,,,,,,,0,2,2,2,1,,,,,,,,,,,,,,,,,,,,,,,,,,,,,,,,,,,,,,,,,,,,,,
602988,001,2022-11-13_23h28.38.990,Info_measure_main_exp,2022.2.2,MacIntel,59.84082341,,,,,,,,,,,,,,,,,,masks/mask_001.jpg,,,,,,,,,,,,,,,,,,,,,,,,,,,,,,,,,,,,,,,,,,,0,3,3,0,1,,,,,,,,,,,,,,,,,,,,,,,,,,,,,,,,,,,,,,,,,,,,,,
602988,001,2022-11-13_23h28.38.990,Info_measure_main_exp,2022.2.2,MacIntel,59.84082341,,,,,,,,,,,,,,,,,,masks/mask_002.jpg,,,,,,,,,,,,,,,,,,,,,,,,,,,,,,,,,,,,,,,,,,,0,4,4,1,1,,,,,,,,,,,,,,,,,,,,,,,,,,,,,,,,,,,,,,,,,,,,,,
602988,001,2022-11-13_23h28.38.990,Info_measure_main_exp,2022.2.2,MacIntel,59.84082341,,,,,,,,,,,,,,,,,,masks/mask_004.jpg,,,,,,,,,,,,,,,,,,,,,,,,,,,,,,,,,,,,,,,,,,,,,,,,0,0,0,3,1,,,,,,,,,,,,,,,,,,,,,,,,,,,,,,,,,,,,,,,,,
602988,001,2022-11-13_23h28.38.990,Info_measure_main_exp,2022.2.2,MacIntel,59.84082341,,,,,,,,,,,,,,,,,,masks/mask_005.jpg,,,,,,,,,,,,,,,,,,,,,,,,,,,,,,,,,,,,,,,,,,,,,,,,0,1,1,4,1,,,,,,,,,,,,,,,,,,,,,,,,,,,,,,,,,,,,,,,,,
602988,001,2022-11-13_23h28.38.990,Info_measure_main_exp,2022.2.2,MacIntel,59.84082341,,,,,,,,,,,,,,,,,,masks/mask_002.jpg,,,,,,,,,,,,,,,,,,,,,,,,,,,,,,,,,,,,,,,,,,,,,,,,0,2,2,1,1,,,,,,,,,,,,,,,,,,,,,,,,,,,,,,,,,,,,,,,,,
602988,001,2022-11-13_23h28.38.990,Info_measure_main_exp,2022.2.2,MacIntel,59.84082341,,,,,,,,,,,,,,,,,,masks/mask_001.jpg,,,,,,,,,,,,,,,,,,,,,,,,,,,,,,,,,,,,,,,,,,,,,,,,0,3,3,0,1,,,,,,,,,,,,,,,,,,,,,,,,,,,,,,,,,,,,,,,,,
602988,001,2022-11-13_23h28.38.990,Info_measure_main_exp,2022.2.2,MacIntel,59.84082341,,,,,,,,,,,,,,,,,,masks/mask_003.jpg,,,,,,,,,,,,,,,,,,,,,,,,,,,,,,,,,,,,,,,,,,,,,,,,0,4,4,2,1,,,,,,,,,,,,,,,,,,,,,,,,,,,,,,,,,,,,,,,,,
602988,001,2022-11-13_23h28.38.990,Info_measure_main_exp,2022.2.2,MacIntel,59.84082341,,,,,,,,,,,,,,,,,,,,,,,,,,,,,,6,1.2038,1,,,,,,,,,,,,0,131,5,5,1950,2166,absent_patch/patch0001950.jpg,absent_patch/patch0002166.jpg,,,,,,,,,,,,,,,,,,,,0.119721194,0.06034795,1,0,0,response1disk,28,0.005183734,0.004614111,1,0,0,center_square,0,27,27,0,1,,,,,,,,,,,,,,,,,,,,,,,
602988,001,2022-11-13_23h28.38.990,Info_measure_main_exp,2022.2.2,MacIntel,59.84082341,,,,,,,,,,,,,,,,,,masks/mask_001.jpg,,,,,,,,,,,,,,,,,,,,,,,,,,,,,,,,,,,,,,,,,,,0,0,0,0,1,,,,,,,,,,,,,,,,,,,,,,,,,,,,,,,,,,,,,,,,,,,,,,
602988,001,2022-11-13_23h28.38.990,Info_measure_main_exp,2022.2.2,MacIntel,59.84082341,,,,,,,,,,,,,,,,,,masks/mask_005.jpg,,,,,,,,,,,,,,,,,,,,,,,,,,,,,,,,,,,,,,,,,,,0,1,1,4,1,,,,,,,,,,,,,,,,,,,,,,,,,,,,,,,,,,,,,,,,,,,,,,
602988,001,2022-11-13_23h28.38.990,Info_measure_main_exp,2022.2.2,MacIntel,59.84082341,,,,,,,,,,,,,,,,,,masks/mask_003.jpg,,,,,,,,,,,,,,,,,,,,,,,,,,,,,,,,,,,,,,,,,,,0,2,2,2,1,,,,,,,,,,,,,,,,,,,,,,,,,,,,,,,,,,,,,,,,,,,,,,
602988,001,2022-11-13_23h28.38.990,Info_measure_main_exp,2022.2.2,MacIntel,59.84082341,,,,,,,,,,,,,,,,,,masks/mask_004.jpg,,,,,,,,,,,,,,,,,,,,,,,,,,,,,,,,,,,,,,,,,,,0,3,3,3,1,,,,,,,,,,,,,,,,,,,,,,,,,,,,,,,,,,,,,,,,,,,,,,
602988,001,2022-11-13_23h28.38.990,Info_measure_main_exp,2022.2.2,MacIntel,59.84082341,,,,,,,,,,,,,,,,,,masks/mask_002.jpg,,,,,,,,,,,,,,,,,,,,,,,,,,,,,,,,,,,,,,,,,,,0,4,4,1,1,,,,,,,,,,,,,,,,,,,,,,,,,,,,,,,,,,,,,,,,,,,,,,
602988,001,2022-11-13_23h28.38.990,Info_measure_main_exp,2022.2.2,MacIntel,59.84082341,,,,,,,,,,,,,,,,,,masks/mask_001.jpg,,,,,,,,,,,,,,,,,,,,,,,,,,,,,,,,,,,,,,,,,,,,,,,,0,0,0,0,1,,,,,,,,,,,,,,,,,,,,,,,,,,,,,,,,,,,,,,,,,
602988,001,2022-11-13_23h28.38.990,Info_measure_main_exp,2022.2.2,MacIntel,59.84082341,,,,,,,,,,,,,,,,,,masks/mask_005.jpg,,,,,,,,,,,,,,,,,,,,,,,,,,,,,,,,,,,,,,,,,,,,,,,,0,1,1,4,1,,,,,,,,,,,,,,,,,,,,,,,,,,,,,,,,,,,,,,,,,
602988,001,2022-11-13_23h28.38.990,Info_measure_main_exp,2022.2.2,MacIntel,59.84082341,,,,,,,,,,,,,,,,,,masks/mask_002.jpg,,,,,,,,,,,,,,,,,,,,,,,,,,,,,,,,,,,,,,,,,,,,,,,,0,2,2,1,1,,,,,,,,,,,,,,,,,,,,,,,,,,,,,,,,,,,,,,,,,
602988,001,2022-11-13_23h28.38.990,Info_measure_main_exp,2022.2.2,MacIntel,59.84082341,,,,,,,,,,,,,,,,,,masks/mask_003.jpg,,,,,,,,,,,,,,,,,,,,,,,,,,,,,,,,,,,,,,,,,,,,,,,,0,3,3,2,1,,,,,,,,,,,,,,,,,,,,,,,,,,,,,,,,,,,,,,,,,
602988,001,2022-11-13_23h28.38.990,Info_measure_main_exp,2022.2.2,MacIntel,59.84082341,,,,,,,,,,,,,,,,,,masks/mask_004.jpg,,,,,,,,,,,,,,,,,,,,,,,,,,,,,,,,,,,,,,,,,,,,,,,,0,4,4,3,1,,,,,,,,,,,,,,,,,,,,,,,,,,,,,,,,,,,,,,,,,
602988,001,2022-11-13_23h28.38.990,Info_measure_main_exp,2022.2.2,MacIntel,59.84082341,,,,,,,,,,,,,,,,,,,,,,,,,,,,,,7,1.2184,1,,,,,,,,,,,,0,131,5,5,2298,2142,absent_patch/patch0002298.jpg,absent_patch/patch0002142.jpg,,,,,,,,,,,,,,,,,,,,0.060515545,0.136638066,1,0,0,response1disk,29,-0.006274785,0.009546316,1,0,0,center_square,0,28,28,49,1,,,,,,,,,,,,,,,,,,,,,,,
602988,001,2022-11-13_23h28.38.990,Info_measure_main_exp,2022.2.2,MacIntel,59.84082341,,,,,,,,,,,,,,,,,,masks/mask_004.jpg,,,,,,,,,,,,,,,,,,,,,,,,,,,,,,,,,,,,,,,,,,,0,0,0,3,1,,,,,,,,,,,,,,,,,,,,,,,,,,,,,,,,,,,,,,,,,,,,,,
602988,001,2022-11-13_23h28.38.990,Info_measure_main_exp,2022.2.2,MacIntel,59.84082341,,,,,,,,,,,,,,,,,,masks/mask_001.jpg,,,,,,,,,,,,,,,,,,,,,,,,,,,,,,,,,,,,,,,,,,,0,1,1,0,1,,,,,,,,,,,,,,,,,,,,,,,,,,,,,,,,,,,,,,,,,,,,,,
602988,001,2022-11-13_23h28.38.990,Info_measure_main_exp,2022.2.2,MacIntel,59.84082341,,,,,,,,,,,,,,,,,,masks/mask_002.jpg,,,,,,,,,,,,,,,,,,,,,,,,,,,,,,,,,,,,,,,,,,,0,2,2,1,1,,,,,,,,,,,,,,,,,,,,,,,,,,,,,,,,,,,,,,,,,,,,,,
602988,001,2022-11-13_23h28.38.990,Info_measure_main_exp,2022.2.2,MacIntel,59.84082341,,,,,,,,,,,,,,,,,,masks/mask_005.jpg,,,,,,,,,,,,,,,,,,,,,,,,,,,,,,,,,,,,,,,,,,,0,3,3,4,1,,,,,,,,,,,,,,,,,,,,,,,,,,,,,,,,,,,,,,,,,,,,,,
602988,001,2022-11-13_23h28.38.990,Info_measure_main_exp,2022.2.2,MacIntel,59.84082341,,,,,,,,,,,,,,,,,,masks/mask_003.jpg,,,,,,,,,,,,,,,,,,,,,,,,,,,,,,,,,,,,,,,,,,,0,4,4,2,1,,,,,,,,,,,,,,,,,,,,,,,,,,,,,,,,,,,,,,,,,,,,,,
602988,001,2022-11-13_23h28.38.990,Info_measure_main_exp,2022.2.2,MacIntel,59.84082341,,,,,,,,,,,,,,,,,,masks/mask_001.jpg,,,,,,,,,,,,,,,,,,,,,,,,,,,,,,,,,,,,,,,,,,,,,,,,0,0,0,0,1,,,,,,,,,,,,,,,,,,,,,,,,,,,,,,,,,,,,,,,,,
602988,001,2022-11-13_23h28.38.990,Info_measure_main_exp,2022.2.2,MacIntel,59.84082341,,,,,,,,,,,,,,,,,,masks/mask_005.jpg,,,,,,,,,,,,,,,,,,,,,,,,,,,,,,,,,,,,,,,,,,,,,,,,0,1,1,4,1,,,,,,,,,,,,,,,,,,,,,,,,,,,,,,,,,,,,,,,,,
602988,001,2022-11-13_23h28.38.990,Info_measure_main_exp,2022.2.2,MacIntel,59.84082341,,,,,,,,,,,,,,,,,,masks/mask_004.jpg,,,,,,,,,,,,,,,,,,,,,,,,,,,,,,,,,,,,,,,,,,,,,,,,0,2,2,3,1,,,,,,,,,,,,,,,,,,,,,,,,,,,,,,,,,,,,,,,,,
602988,001,2022-11-13_23h28.38.990,Info_measure_main_exp,2022.2.2,MacIntel,59.84082341,,,,,,,,,,,,,,,,,,masks/mask_003.jpg,,,,,,,,,,,,,,,,,,,,,,,,,,,,,,,,,,,,,,,,,,,,,,,,0,3,3,2,1,,,,,,,,,,,,,,,,,,,,,,,,,,,,,,,,,,,,,,,,,
602988,001,2022-11-13_23h28.38.990,Info_measure_main_exp,2022.2.2,MacIntel,59.84082341,,,,,,,,,,,,,,,,,,masks/mask_002.jpg,,,,,,,,,,,,,,,,,,,,,,,,,,,,,,,,,,,,,,,,,,,,,,,,0,4,4,1,1,,,,,,,,,,,,,,,,,,,,,,,,,,,,,,,,,,,,,,,,,
602988,001,2022-11-13_23h28.38.990,Info_measure_main_exp,2022.2.2,MacIntel,59.84082341,,,,,,,,,,,,,,,,,,,,,,,,,,,,,,0,0.5687,1,,,,,,,,,,,,0,131,5,5,2298,2298,absent_patch/patch0002298.jpg,absent_patch/patch0002298.jpg,,,,,,,,,,,,,,,,,,,,-0.031399996,0.091632026,1,0,0,response7disk,30,-0.001680594,0.008229767,1,0,0,center_square,0,29,29,37,1,,,,,,,,,,,,,,,,,,,,,,,
602988,001,2022-11-13_23h28.38.990,Info_measure_main_exp,2022.2.2,MacIntel,59.84082341,,,,,,,,,,,,,,,,,,masks/mask_004.jpg,,,,,,,,,,,,,,,,,,,,,,,,,,,,,,,,,,,,,,,,,,,0,0,0,3,1,,,,,,,,,,,,,,,,,,,,,,,,,,,,,,,,,,,,,,,,,,,,,,
602988,001,2022-11-13_23h28.38.990,Info_measure_main_exp,2022.2.2,MacIntel,59.84082341,,,,,,,,,,,,,,,,,,masks/mask_005.jpg,,,,,,,,,,,,,,,,,,,,,,,,,,,,,,,,,,,,,,,,,,,0,1,1,4,1,,,,,,,,,,,,,,,,,,,,,,,,,,,,,,,,,,,,,,,,,,,,,,
602988,001,2022-11-13_23h28.38.990,Info_measure_main_exp,2022.2.2,MacIntel,59.84082341,,,,,,,,,,,,,,,,,,masks/mask_003.jpg,,,,,,,,,,,,,,,,,,,,,,,,,,,,,,,,,,,,,,,,,,,0,2,2,2,1,,,,,,,,,,,,,,,,,,,,,,,,,,,,,,,,,,,,,,,,,,,,,,
602988,001,2022-11-13_23h28.38.990,Info_measure_main_exp,2022.2.2,MacIntel,59.84082341,,,,,,,,,,,,,,,,,,masks/mask_002.jpg,,,,,,,,,,,,,,,,,,,,,,,,,,,,,,,,,,,,,,,,,,,0,3,3,1,1,,,,,,,,,,,,,,,,,,,,,,,,,,,,,,,,,,,,,,,,,,,,,,
602988,001,2022-11-13_23h28.38.990,Info_measure_main_exp,2022.2.2,MacIntel,59.84082341,,,,,,,,,,,,,,,,,,masks/mask_001.jpg,,,,,,,,,,,,,,,,,,,,,,,,,,,,,,,,,,,,,,,,,,,0,4,4,0,1,,,,,,,,,,,,,,,,,,,,,,,,,,,,,,,,,,,,,,,,,,,,,,
602988,001,2022-11-13_23h28.38.990,Info_measure_main_exp,2022.2.2,MacIntel,59.84082341,,,,,,,,,,,,,,,,,,masks/mask_001.jpg,,,,,,,,,,,,,,,,,,,,,,,,,,,,,,,,,,,,,,,,,,,,,,,,0,0,0,0,1,,,,,,,,,,,,,,,,,,,,,,,,,,,,,,,,,,,,,,,,,
602988,001,2022-11-13_23h28.38.990,Info_measure_main_exp,2022.2.2,MacIntel,59.84082341,,,,,,,,,,,,,,,,,,masks/mask_004.jpg,,,,,,,,,,,,,,,,,,,,,,,,,,,,,,,,,,,,,,,,,,,,,,,,0,1,1,3,1,,,,,,,,,,,,,,,,,,,,,,,,,,,,,,,,,,,,,,,,,
602988,001,2022-11-13_23h28.38.990,Info_measure_main_exp,2022.2.2,MacIntel,59.84082341,,,,,,,,,,,,,,,,,,masks/mask_005.jpg,,,,,,,,,,,,,,,,,,,,,,,,,,,,,,,,,,,,,,,,,,,,,,,,0,2,2,4,1,,,,,,,,,,,,,,,,,,,,,,,,,,,,,,,,,,,,,,,,,
602988,001,2022-11-13_23h28.38.990,Info_measure_main_exp,2022.2.2,MacIntel,59.84082341,,,,,,,,,,,,,,,,,,masks/mask_002.jpg,,,,,,,,,,,,,,,,,,,,,,,,,,,,,,,,,,,,,,,,,,,,,,,,0,3,3,1,1,,,,,,,,,,,,,,,,,,,,,,,,,,,,,,,,,,,,,,,,,
602988,001,2022-11-13_23h28.38.990,Info_measure_main_exp,2022.2.2,MacIntel,59.84082341,,,,,,,,,,,,,,,,,,masks/mask_003.jpg,,,,,,,,,,,,,,,,,,,,,,,,,,,,,,,,,,,,,,,,,,,,,,,,0,4,4,2,1,,,,,,,,,,,,,,,,,,,,,,,,,,,,,,,,,,,,,,,,,
602988,001,2022-11-13_23h28.38.990,Info_measure_main_exp,2022.2.2,MacIntel,59.84082341,,,,,,,,,,,,,,,,,,,,,,,,,,,,,,7,1.3529,1,,,,,,,,,,,,0,131,5,5,2190,1950,absent_patch/patch0002190.jpg,absent_patch/patch0001950.jpg,,,,,,,,,,,,,,,,,,,,0.08274147,0.175462227,1,0,0,response1disk,31,0.003495868,0.006634344,1,0,0,center_square,0,30,30,73,1,,,,,,,,,,,,,,,,,,,,,,,
602988,001,2022-11-13_23h28.38.990,Info_measure_main_exp,2022.2.2,MacIntel,59.84082341,,,,,,,,,,,,,,,,,,masks/mask_002.jpg,,,,,,,,,,,,,,,,,,,,,,,,,,,,,,,,,,,,,,,,,,,0,0,0,1,1,,,,,,,,,,,,,,,,,,,,,,,,,,,,,,,,,,,,,,,,,,,,,,
602988,001,2022-11-13_23h28.38.990,Info_measure_main_exp,2022.2.2,MacIntel,59.84082341,,,,,,,,,,,,,,,,,,masks/mask_001.jpg,,,,,,,,,,,,,,,,,,,,,,,,,,,,,,,,,,,,,,,,,,,0,1,1,0,1,,,,,,,,,,,,,,,,,,,,,,,,,,,,,,,,,,,,,,,,,,,,,,
602988,001,2022-11-13_23h28.38.990,Info_measure_main_exp,2022.2.2,MacIntel,59.84082341,,,,,,,,,,,,,,,,,,masks/mask_003.jpg,,,,,,,,,,,,,,,,,,,,,,,,,,,,,,,,,,,,,,,,,,,0,2,2,2,1,,,,,,,,,,,,,,,,,,,,,,,,,,,,,,,,,,,,,,,,,,,,,,
602988,001,2022-11-13_23h28.38.990,Info_measure_main_exp,2022.2.2,MacIntel,59.84082341,,,,,,,,,,,,,,,,,,masks/mask_005.jpg,,,,,,,,,,,,,,,,,,,,,,,,,,,,,,,,,,,,,,,,,,,0,3,3,4,1,,,,,,,,,,,,,,,,,,,,,,,,,,,,,,,,,,,,,,,,,,,,,,
602988,001,2022-11-13_23h28.38.990,Info_measure_main_exp,2022.2.2,MacIntel,59.84082341,,,,,,,,,,,,,,,,,,masks/mask_004.jpg,,,,,,,,,,,,,,,,,,,,,,,,,,,,,,,,,,,,,,,,,,,0,4,4,3,1,,,,,,,,,,,,,,,,,,,,,,,,,,,,,,,,,,,,,,,,,,,,,,
602988,001,2022-11-13_23h28.38.990,Info_measure_main_exp,2022.2.2,MacIntel,59.84082341,,,,,,,,,,,,,,,,,,masks/mask_003.jpg,,,,,,,,,,,,,,,,,,,,,,,,,,,,,,,,,,,,,,,,,,,,,,,,0,0,0,2,1,,,,,,,,,,,,,,,,,,,,,,,,,,,,,,,,,,,,,,,,,
602988,001,2022-11-13_23h28.38.990,Info_measure_main_exp,2022.2.2,MacIntel,59.84082341,,,,,,,,,,,,,,,,,,masks/mask_005.jpg,,,,,,,,,,,,,,,,,,,,,,,,,,,,,,,,,,,,,,,,,,,,,,,,0,1,1,4,1,,,,,,,,,,,,,,,,,,,,,,,,,,,,,,,,,,,,,,,,,
602988,001,2022-11-13_23h28.38.990,Info_measure_main_exp,2022.2.2,MacIntel,59.84082341,,,,,,,,,,,,,,,,,,masks/mask_002.jpg,,,,,,,,,,,,,,,,,,,,,,,,,,,,,,,,,,,,,,,,,,,,,,,,0,2,2,1,1,,,,,,,,,,,,,,,,,,,,,,,,,,,,,,,,,,,,,,,,,
602988,001,2022-11-13_23h28.38.990,Info_measure_main_exp,2022.2.2,MacIntel,59.84082341,,,,,,,,,,,,,,,,,,masks/mask_004.jpg,,,,,,,,,,,,,,,,,,,,,,,,,,,,,,,,,,,,,,,,,,,,,,,,0,3,3,3,1,,,,,,,,,,,,,,,,,,,,,,,,,,,,,,,,,,,,,,,,,
602988,001,2022-11-13_23h28.38.990,Info_measure_main_exp,2022.2.2,MacIntel,59.84082341,,,,,,,,,,,,,,,,,,masks/mask_001.jpg,,,,,,,,,,,,,,,,,,,,,,,,,,,,,,,,,,,,,,,,,,,,,,,,0,4,4,0,1,,,,,,,,,,,,,,,,,,,,,,,,,,,,,,,,,,,,,,,,,
602988,001,2022-11-13_23h28.38.990,Info_measure_main_exp,2022.2.2,MacIntel,59.84082341,,,,,,,,,,,,,,,,,,,,,,,,,,,,,,0,0.5344,1,,,,,,,,,,,,0,131,5,5,2166,2166,absent_patch/patch0002166.jpg,absent_patch/patch0002166.jpg,,,,,,,,,,,,,,,,,,,,-0.049844527,0.135824573,1,0,0,response7disk,32,0.005257301,0.010191324,1,0,0,center_square,0,31,31,42,1,,,,,,,,,,,,,,,,,,,,,,,
602988,001,2022-11-13_23h28.38.990,Info_measure_main_exp,2022.2.2,MacIntel,59.84082341,,,,,,,,,,,,,,,,,,masks/mask_003.jpg,,,,,,,,,,,,,,,,,,,,,,,,,,,,,,,,,,,,,,,,,,,0,0,0,2,1,,,,,,,,,,,,,,,,,,,,,,,,,,,,,,,,,,,,,,,,,,,,,,
602988,001,2022-11-13_23h28.38.990,Info_measure_main_exp,2022.2.2,MacIntel,59.84082341,,,,,,,,,,,,,,,,,,masks/mask_001.jpg,,,,,,,,,,,,,,,,,,,,,,,,,,,,,,,,,,,,,,,,,,,0,1,1,0,1,,,,,,,,,,,,,,,,,,,,,,,,,,,,,,,,,,,,,,,,,,,,,,
602988,001,2022-11-13_23h28.38.990,Info_measure_main_exp,2022.2.2,MacIntel,59.84082341,,,,,,,,,,,,,,,,,,masks/mask_005.jpg,,,,,,,,,,,,,,,,,,,,,,,,,,,,,,,,,,,,,,,,,,,0,2,2,4,1,,,,,,,,,,,,,,,,,,,,,,,,,,,,,,,,,,,,,,,,,,,,,,
602988,001,2022-11-13_23h28.38.990,Info_measure_main_exp,2022.2.2,MacIntel,59.84082341,,,,,,,,,,,,,,,,,,masks/mask_004.jpg,,,,,,,,,,,,,,,,,,,,,,,,,,,,,,,,,,,,,,,,,,,0,3,3,3,1,,,,,,,,,,,,,,,,,,,,,,,,,,,,,,,,,,,,,,,,,,,,,,
602988,001,2022-11-13_23h28.38.990,Info_measure_main_exp,2022.2.2,MacIntel,59.84082341,,,,,,,,,,,,,,,,,,masks/mask_002.jpg,,,,,,,,,,,,,,,,,,,,,,,,,,,,,,,,,,,,,,,,,,,0,4,4,1,1,,,,,,,,,,,,,,,,,,,,,,,,,,,,,,,,,,,,,,,,,,,,,,
602988,001,2022-11-13_23h28.38.990,Info_measure_main_exp,2022.2.2,MacIntel,59.84082341,,,,,,,,,,,,,,,,,,masks/mask_001.jpg,,,,,,,,,,,,,,,,,,,,,,,,,,,,,,,,,,,,,,,,,,,,,,,,0,0,0,0,1,,,,,,,,,,,,,,,,,,,,,,,,,,,,,,,,,,,,,,,,,
602988,001,2022-11-13_23h28.38.990,Info_measure_main_exp,2022.2.2,MacIntel,59.84082341,,,,,,,,,,,,,,,,,,masks/mask_005.jpg,,,,,,,,,,,,,,,,,,,,,,,,,,,,,,,,,,,,,,,,,,,,,,,,0,1,1,4,1,,,,,,,,,,,,,,,,,,,,,,,,,,,,,,,,,,,,,,,,,
602988,001,2022-11-13_23h28.38.990,Info_measure_main_exp,2022.2.2,MacIntel,59.84082341,,,,,,,,,,,,,,,,,,masks/mask_004.jpg,,,,,,,,,,,,,,,,,,,,,,,,,,,,,,,,,,,,,,,,,,,,,,,,0,2,2,3,1,,,,,,,,,,,,,,,,,,,,,,,,,,,,,,,,,,,,,,,,,
602988,001,2022-11-13_23h28.38.990,Info_measure_main_exp,2022.2.2,MacIntel,59.84082341,,,,,,,,,,,,,,,,,,masks/mask_002.jpg,,,,,,,,,,,,,,,,,,,,,,,,,,,,,,,,,,,,,,,,,,,,,,,,0,3,3,1,1,,,,,,,,,,,,,,,,,,,,,,,,,,,,,,,,,,,,,,,,,
602988,001,2022-11-13_23h28.38.990,Info_measure_main_exp,2022.2.2,MacIntel,59.84082341,,,,,,,,,,,,,,,,,,masks/mask_003.jpg,,,,,,,,,,,,,,,,,,,,,,,,,,,,,,,,,,,,,,,,,,,,,,,,0,4,4,2,1,,,,,,,,,,,,,,,,,,,,,,,,,,,,,,,,,,,,,,,,,
602988,001,2022-11-13_23h28.38.990,Info_measure_main_exp,2022.2.2,MacIntel,59.84082341,,,,,,,,,,,,,,,,,,,,,,,,,,,,,,6,1.0527,1,,,,,,,,,,,,1,131,5,5,2190,1,absent_patch/patch0002190.jpg,present_patch/cong_131_5_a.jpg,,,,,,,,,,,,,,,,,,,,0.138987649,0.075849294,1,0,0,response1disk,33,-0.002510022,-0.004622581,1,0,0,center_square,0,32,32,64,1,,,,,,,,,,,,,,,,,,,,,,,
602988,001,2022-11-13_23h28.38.990,Info_measure_main_exp,2022.2.2,MacIntel,59.84082341,,,,,,,,,,,,,,,,,,masks/mask_005.jpg,,,,,,,,,,,,,,,,,,,,,,,,,,,,,,,,,,,,,,,,,,,0,0,0,4,1,,,,,,,,,,,,,,,,,,,,,,,,,,,,,,,,,,,,,,,,,,,,,,
602988,001,2022-11-13_23h28.38.990,Info_measure_main_exp,2022.2.2,MacIntel,59.84082341,,,,,,,,,,,,,,,,,,masks/mask_004.jpg,,,,,,,,,,,,,,,,,,,,,,,,,,,,,,,,,,,,,,,,,,,0,1,1,3,1,,,,,,,,,,,,,,,,,,,,,,,,,,,,,,,,,,,,,,,,,,,,,,
602988,001,2022-11-13_23h28.38.990,Info_measure_main_exp,2022.2.2,MacIntel,59.84082341,,,,,,,,,,,,,,,,,,masks/mask_001.jpg,,,,,,,,,,,,,,,,,,,,,,,,,,,,,,,,,,,,,,,,,,,0,2,2,0,1,,,,,,,,,,,,,,,,,,,,,,,,,,,,,,,,,,,,,,,,,,,,,,
602988,001,2022-11-13_23h28.38.990,Info_measure_main_exp,2022.2.2,MacIntel,59.84082341,,,,,,,,,,,,,,,,,,masks/mask_002.jpg,,,,,,,,,,,,,,,,,,,,,,,,,,,,,,,,,,,,,,,,,,,0,3,3,1,1,,,,,,,,,,,,,,,,,,,,,,,,,,,,,,,,,,,,,,,,,,,,,,
602988,001,2022-11-13_23h28.38.990,Info_measure_main_exp,2022.2.2,MacIntel,59.84082341,,,,,,,,,,,,,,,,,,masks/mask_003.jpg,,,,,,,,,,,,,,,,,,,,,,,,,,,,,,,,,,,,,,,,,,,0,4,4,2,1,,,,,,,,,,,,,,,,,,,,,,,,,,,,,,,,,,,,,,,,,,,,,,
602988,001,2022-11-13_23h28.38.990,Info_measure_main_exp,2022.2.2,MacIntel,59.84082341,,,,,,,,,,,,,,,,,,masks/mask_003.jpg,,,,,,,,,,,,,,,,,,,,,,,,,,,,,,,,,,,,,,,,,,,,,,,,0,0,0,2,1,,,,,,,,,,,,,,,,,,,,,,,,,,,,,,,,,,,,,,,,,
602988,001,2022-11-13_23h28.38.990,Info_measure_main_exp,2022.2.2,MacIntel,59.84082341,,,,,,,,,,,,,,,,,,masks/mask_005.jpg,,,,,,,,,,,,,,,,,,,,,,,,,,,,,,,,,,,,,,,,,,,,,,,,0,1,1,4,1,,,,,,,,,,,,,,,,,,,,,,,,,,,,,,,,,,,,,,,,,
602988,001,2022-11-13_23h28.38.990,Info_measure_main_exp,2022.2.2,MacIntel,59.84082341,,,,,,,,,,,,,,,,,,masks/mask_004.jpg,,,,,,,,,,,,,,,,,,,,,,,,,,,,,,,,,,,,,,,,,,,,,,,,0,2,2,3,1,,,,,,,,,,,,,,,,,,,,,,,,,,,,,,,,,,,,,,,,,
602988,001,2022-11-13_23h28.38.990,Info_measure_main_exp,2022.2.2,MacIntel,59.84082341,,,,,,,,,,,,,,,,,,masks/mask_002.jpg,,,,,,,,,,,,,,,,,,,,,,,,,,,,,,,,,,,,,,,,,,,,,,,,0,3,3,1,1,,,,,,,,,,,,,,,,,,,,,,,,,,,,,,,,,,,,,,,,,
602988,001,2022-11-13_23h28.38.990,Info_measure_main_exp,2022.2.2,MacIntel,59.84082341,,,,,,,,,,,,,,,,,,masks/mask_001.jpg,,,,,,,,,,,,,,,,,,,,,,,,,,,,,,,,,,,,,,,,,,,,,,,,0,4,4,0,1,,,,,,,,,,,,,,,,,,,,,,,,,,,,,,,,,,,,,,,,,
602988,001,2022-11-13_23h28.38.990,Info_measure_main_exp,2022.2.2,MacIntel,59.84082341,,,,,,,,,,,,,,,,,,,,,,,,,,,,,,6,0.7698,1,,,,,,,,,,,,1,131,5,5,1,2178,present_patch/cong_131_5_a.jpg,absent_patch/patch0002178.jpg,,,,,,,,,,,,,,,,,,,,0.128973783,0.066987902,1,0,0,response1disk,34,0.007968917,-0.001767312,1,0,0,center_square,0,33,33,40,1,,,,,,,,,,,,,,,,,,,,,,,
602988,001,2022-11-13_23h28.38.990,Info_measure_main_exp,2022.2.2,MacIntel,59.84082341,,,,,,,,,,,,,,,,,,masks/mask_004.jpg,,,,,,,,,,,,,,,,,,,,,,,,,,,,,,,,,,,,,,,,,,,0,0,0,3,1,,,,,,,,,,,,,,,,,,,,,,,,,,,,,,,,,,,,,,,,,,,,,,
602988,001,2022-11-13_23h28.38.990,Info_measure_main_exp,2022.2.2,MacIntel,59.84082341,,,,,,,,,,,,,,,,,,masks/mask_005.jpg,,,,,,,,,,,,,,,,,,,,,,,,,,,,,,,,,,,,,,,,,,,0,1,1,4,1,,,,,,,,,,,,,,,,,,,,,,,,,,,,,,,,,,,,,,,,,,,,,,
602988,001,2022-11-13_23h28.38.990,Info_measure_main_exp,2022.2.2,MacIntel,59.84082341,,,,,,,,,,,,,,,,,,masks/mask_003.jpg,,,,,,,,,,,,,,,,,,,,,,,,,,,,,,,,,,,,,,,,,,,0,2,2,2,1,,,,,,,,,,,,,,,,,,,,,,,,,,,,,,,,,,,,,,,,,,,,,,
