participant,session,date,expName,psychopyVersion,OS,frameRate,space_press_continue.keys,space_press_continue.rt,space_press_continue_2.keys,space_press_continue_2.rt,space_press_continue_3.keys,space_press_continue_3.rt,space_press_continue_4.keys,space_press_continue_4.rt,space_press_continue_5.keys,space_press_continue_5.rt,space_press_continue_6.keys,space_press_continue_6.rt,prac_mask_loop_1.thisRepN,prac_mask_loop_1.thisTrialN,prac_mask_loop_1.thisN,prac_mask_loop_1.thisIndex,prac_mask_loop_1.ran,mask_name,prac_mask_loop_2.thisRepN,prac_mask_loop_2.thisTrialN,prac_mask_loop_2.thisN,prac_mask_loop_2.thisIndex,prac_mask_loop_2.ran,mouse_2.x,mouse_2.y,mouse_2.leftButton,mouse_2.midButton,mouse_2.rightButton,mouse_2.clicked_name,similarity,response_time,Pass,mouse_12.x,mouse_12.y,mouse_12.leftButton,mouse_12.midButton,mouse_12.rightButton,mouse_12.clicked_name,prac_loop.thisRepN,prac_loop.thisTrialN,prac_loop.thisN,prac_loop.thisIndex,prac_loop.ran,Pair_type,Image_num,Patch_1_loc,Patch_2_loc,Patch_1_info,Patch_2_info,Patch_1_name,Patch_2_name,mouse_1.x,mouse_1.y,mouse_1.leftButton,mouse_1.midButton,mouse_1.rightButton,mouse_1.time,mouse_1.clicked_name,space_press_continue_7.keys,mask_loop.thisRepN,mask_loop.thisTrialN,mask_loop.thisN,mask_loop.thisIndex,mask_loop.ran,mask_loop_2.thisRepN,mask_loop_2.thisTrialN,mask_loop_2.thisN,mask_loop_2.thisIndex,mask_loop_2.ran,mouse.x,mouse.y,mouse.leftButton,mouse.midButton,mouse.rightButton,mouse.clicked_name,trialNumber,mouse_11.x,mouse_11.y,mouse_11.leftButton,mouse_11.midButton,mouse_11.rightButton,mouse_11.clicked_name,first_pass_loop.thisRepN,first_pass_loop.thisTrialN,first_pass_loop.thisN,first_pass_loop.thisIndex,first_pass_loop.ran,mask_loop_3.thisRepN,mask_loop_3.thisTrialN,mask_loop_3.thisN,mask_loop_3.thisIndex,mask_loop_3.ran,mask_loop_4.thisRepN,mask_loop_4.thisTrialN,mask_loop_4.thisN,mask_loop_4.thisIndex,mask_loop_4.ran,mouse_3.x,mouse_3.y,mouse_3.leftButton,mouse_3.midButton,mouse_3.rightButton,mouse_3.clicked_name,double_pass_loop.thisRepN,double_pass_loop.thisTrialN,double_pass_loop.thisN,double_pass_loop.thisIndex,double_pass_loop.ran,space_exit.keys,space_exit.rt
831559,001,2022-11-14_01h30.50.824,Info_measure_main_exp,2022.2.2,Win32,49.58104021,,,,,,,,,,,,,,,,,,,,,,,,,,,,,,,,,,,,,,,,,,,,,,,,,,,,,,,,,,,,,,,,,,,,,,,,,,,,,,,,,,,,,,,,,,,,,,,,,,,,,,,,,,,,,,
831559,001,2022-11-14_01h30.50.824,Info_measure_main_exp,2022.2.2,Win32,49.58104021,,,,,,,,,,,,,,,,,,,,,,,,,,,,,,,,,,,,,,,,,,,,,,,,,,,,,,,,,,,,,,,,,,,,,,,,,,,,,,,,,,,,,,,,,,,,,,,,,,,,,,,,,,,,,,
831559,001,2022-11-14_01h30.50.824,Info_measure_main_exp,2022.2.2,Win32,49.58104021,space,56.3035,,,,,,,,,,,,,,,,,,,,,,,,,,,,,,,,,,,,,,,,,,,,,,,,,,,,,,,,,,,,,,,,,,,,,,,,,,,,,,,,,,,,,,,,,,,,,,,,,,,,,,,,,,,,
831559,001,2022-11-14_01h30.50.824,Info_measure_main_exp,2022.2.2,Win32,49.58104021,,,space,39.0659,,,,,,,,,,,,,,,,,,,,,,,,,,,,,,,,,,,,,,,,,,,,,,,,,,,,,,,,,,,,,,,,,,,,,,,,,,,,,,,,,,,,,,,,,,,,,,,,,,,,,,,,,,
831559,001,2022-11-14_01h30.50.824,Info_measure_main_exp,2022.2.2,Win32,49.58104021,,,,,space,12.7244,,,,,,,,,,,,,,,,,,,,,,,,,,,,,,,,,,,,,,,,,,,,,,,,,,,,,,,,,,,,,,,,,,,,,,,,,,,,,,,,,,,,,,,,,,,,,,,,,,,,,,,,
831559,001,2022-11-14_01h30.50.824,Info_measure_main_exp,2022.2.2,Win32,49.58104021,,,,,,,space,37.4132,,,,,,,,,,,,,,,,,,,,,,,,,,,,,,,,,,,,,,,,,,,,,,,,,,,,,,,,,,,,,,,,,,,,,,,,,,,,,,,,,,,,,,,,,,,,,,,,,,,,,,
831559,001,2022-11-14_01h30.50.824,Info_measure_main_exp,2022.2.2,Win32,49.58104021,,,,,,,,,space,12.7555,,,,,,,,,,,,,,,,,,,,,,,,,,,,,,,,,,,,,,,,,,,,,,,,,,,,,,,,,,,,,,,,,,,,,,,,,,,,,,,,,,,,,,,,,,,,,,,,,,,,
831559,001,2022-11-14_01h30.50.824,Info_measure_main_exp,2022.2.2,Win32,49.58104021,,,,,,,,,,,space,7.4635,,,,,,,,,,,,,,,,,,,,,,,,,,,,,,,,,,,,,,,,,,,,,,,,,,,,,,,,,,,,,,,,,,,,,,,,,,,,,,,,,,,,,,,,,,,,,,,,,,
831559,001,2022-11-14_01h30.50.824,Info_measure_main_exp,2022.2.2,Win32,49.58104021,,,,,,,,,,,,,0,0,0,4,1,masks/mask_005.jpg,,,,,,,,,,,,,,,,,,,,,,,,,,,,,,,,,,,,,,,,,,,,,,,,,,,,,,,,,,,,,,,,,,,,,,,,,,,,,,,,,,,,,,,,,,,,
831559,001,2022-11-14_01h30.50.824,Info_measure_main_exp,2022.2.2,Win32,49.58104021,,,,,,,,,,,,,0,1,1,3,1,masks/mask_004.jpg,,,,,,,,,,,,,,,,,,,,,,,,,,,,,,,,,,,,,,,,,,,,,,,,,,,,,,,,,,,,,,,,,,,,,,,,,,,,,,,,,,,,,,,,,,,,
831559,001,2022-11-14_01h30.50.824,Info_measure_main_exp,2022.2.2,Win32,49.58104021,,,,,,,,,,,,,0,2,2,1,1,masks/mask_002.jpg,,,,,,,,,,,,,,,,,,,,,,,,,,,,,,,,,,,,,,,,,,,,,,,,,,,,,,,,,,,,,,,,,,,,,,,,,,,,,,,,,,,,,,,,,,,,
831559,001,2022-11-14_01h30.50.824,Info_measure_main_exp,2022.2.2,Win32,49.58104021,,,,,,,,,,,,,0,3,3,2,1,masks/mask_003.jpg,,,,,,,,,,,,,,,,,,,,,,,,,,,,,,,,,,,,,,,,,,,,,,,,,,,,,,,,,,,,,,,,,,,,,,,,,,,,,,,,,,,,,,,,,,,,
831559,001,2022-11-14_01h30.50.824,Info_measure_main_exp,2022.2.2,Win32,49.58104021,,,,,,,,,,,,,0,4,4,0,1,masks/mask_001.jpg,,,,,,,,,,,,,,,,,,,,,,,,,,,,,,,,,,,,,,,,,,,,,,,,,,,,,,,,,,,,,,,,,,,,,,,,,,,,,,,,,,,,,,,,,,,,
831559,001,2022-11-14_01h30.50.824,Info_measure_main_exp,2022.2.2,Win32,49.58104021,,,,,,,,,,,,,,,,,,masks/mask_002.jpg,0,0,0,1,1,,,,,,,,,,,,,,,,,,,,,,,,,,,,,,,,,,,,,,,,,,,,,,,,,,,,,,,,,,,,,,,,,,,,,,,,,,,,,,,,,,,,,,,
831559,001,2022-11-14_01h30.50.824,Info_measure_main_exp,2022.2.2,Win32,49.58104021,,,,,,,,,,,,,,,,,,masks/mask_001.jpg,0,1,1,0,1,,,,,,,,,,,,,,,,,,,,,,,,,,,,,,,,,,,,,,,,,,,,,,,,,,,,,,,,,,,,,,,,,,,,,,,,,,,,,,,,,,,,,,,
831559,001,2022-11-14_01h30.50.824,Info_measure_main_exp,2022.2.2,Win32,49.58104021,,,,,,,,,,,,,,,,,,masks/mask_005.jpg,0,2,2,4,1,,,,,,,,,,,,,,,,,,,,,,,,,,,,,,,,,,,,,,,,,,,,,,,,,,,,,,,,,,,,,,,,,,,,,,,,,,,,,,,,,,,,,,,
831559,001,2022-11-14_01h30.50.824,Info_measure_main_exp,2022.2.2,Win32,49.58104021,,,,,,,,,,,,,,,,,,masks/mask_003.jpg,0,3,3,2,1,,,,,,,,,,,,,,,,,,,,,,,,,,,,,,,,,,,,,,,,,,,,,,,,,,,,,,,,,,,,,,,,,,,,,,,,,,,,,,,,,,,,,,,
831559,001,2022-11-14_01h30.50.824,Info_measure_main_exp,2022.2.2,Win32,49.58104021,,,,,,,,,,,,,,,,,,masks/mask_004.jpg,0,4,4,3,1,,,,,,,,,,,,,,,,,,,,,,,,,,,,,,,,,,,,,,,,,,,,,,,,,,,,,,,,,,,,,,,,,,,,,,,,,,,,,,,,,,,,,,,
831559,001,2022-11-14_01h30.50.824,Info_measure_main_exp,2022.2.2,Win32,49.58104021,,,,,,,,,,,,,,,,,,,,,,,,-0.059895833,-0.126302083,1,0,0,response5disk,3,177.8317,1,0.00390625,0.001302083,1,0,0,center_square,0,0,0,2,1,0,131,5,5,2526,2526,prac_patch/patch0002526.jpg,prac_patch/patch0002526.jpg,,,,,,,,,,,,,,,,,,,,,,,,,,,,,,,,,,,,,,,,,,,,,,,,,,,,,,,,,,,
831559,001,2022-11-14_01h30.50.824,Info_measure_main_exp,2022.2.2,Win32,49.58104021,,,,,,,,,,,,,0,0,0,2,1,masks/mask_003.jpg,,,,,,,,,,,,,,,,,,,,,,,,,,,,,,,,,,,,,,,,,,,,,,,,,,,,,,,,,,,,,,,,,,,,,,,,,,,,,,,,,,,,,,,,,,,,
831559,001,2022-11-14_01h30.50.824,Info_measure_main_exp,2022.2.2,Win32,49.58104021,,,,,,,,,,,,,0,1,1,4,1,masks/mask_005.jpg,,,,,,,,,,,,,,,,,,,,,,,,,,,,,,,,,,,,,,,,,,,,,,,,,,,,,,,,,,,,,,,,,,,,,,,,,,,,,,,,,,,,,,,,,,,,
831559,001,2022-11-14_01h30.50.824,Info_measure_main_exp,2022.2.2,Win32,49.58104021,,,,,,,,,,,,,0,2,2,1,1,masks/mask_002.jpg,,,,,,,,,,,,,,,,,,,,,,,,,,,,,,,,,,,,,,,,,,,,,,,,,,,,,,,,,,,,,,,,,,,,,,,,,,,,,,,,,,,,,,,,,,,,
831559,001,2022-11-14_01h30.50.824,Info_measure_main_exp,2022.2.2,Win32,49.58104021,,,,,,,,,,,,,0,3,3,3,1,masks/mask_004.jpg,,,,,,,,,,,,,,,,,,,,,,,,,,,,,,,,,,,,,,,,,,,,,,,,,,,,,,,,,,,,,,,,,,,,,,,,,,,,,,,,,,,,,,,,,,,,
831559,001,2022-11-14_01h30.50.824,Info_measure_main_exp,2022.2.2,Win32,49.58104021,,,,,,,,,,,,,0,4,4,0,1,masks/mask_001.jpg,,,,,,,,,,,,,,,,,,,,,,,,,,,,,,,,,,,,,,,,,,,,,,,,,,,,,,,,,,,,,,,,,,,,,,,,,,,,,,,,,,,,,,,,,,,,
831559,001,2022-11-14_01h30.50.824,Info_measure_main_exp,2022.2.2,Win32,49.58104021,,,,,,,,,,,,,,,,,,masks/mask_004.jpg,0,0,0,3,1,,,,,,,,,,,,,,,,,,,,,,,,,,,,,,,,,,,,,,,,,,,,,,,,,,,,,,,,,,,,,,,,,,,,,,,,,,,,,,,,,,,,,,,
831559,001,2022-11-14_01h30.50.824,Info_measure_main_exp,2022.2.2,Win32,49.58104021,,,,,,,,,,,,,,,,,,masks/mask_005.jpg,0,1,1,4,1,,,,,,,,,,,,,,,,,,,,,,,,,,,,,,,,,,,,,,,,,,,,,,,,,,,,,,,,,,,,,,,,,,,,,,,,,,,,,,,,,,,,,,,
831559,001,2022-11-14_01h30.50.824,Info_measure_main_exp,2022.2.2,Win32,49.58104021,,,,,,,,,,,,,,,,,,masks/mask_002.jpg,0,2,2,1,1,,,,,,,,,,,,,,,,,,,,,,,,,,,,,,,,,,,,,,,,,,,,,,,,,,,,,,,,,,,,,,,,,,,,,,,,,,,,,,,,,,,,,,,
831559,001,2022-11-14_01h30.50.824,Info_measure_main_exp,2022.2.2,Win32,49.58104021,,,,,,,,,,,,,,,,,,masks/mask_003.jpg,0,3,3,2,1,,,,,,,,,,,,,,,,,,,,,,,,,,,,,,,,,,,,,,,,,,,,,,,,,,,,,,,,,,,,,,,,,,,,,,,,,,,,,,,,,,,,,,,
831559,001,2022-11-14_01h30.50.824,Info_measure_main_exp,2022.2.2,Win32,49.58104021,,,,,,,,,,,,,,,,,,masks/mask_001.jpg,0,4,4,0,1,,,,,,,,,,,,,,,,,,,,,,,,,,,,,,,,,,,,,,,,,,,,,,,,,,,,,,,,,,,,,,,,,,,,,,,,,,,,,,,,,,,,,,,
831559,001,2022-11-14_01h30.50.824,Info_measure_main_exp,2022.2.2,Win32,49.58104021,,,,,,,,,,,,,,,,,,,,,,,,0.052083333,-0.15625,1,0,0,response3disk,4,197.6808,1,0.00390625,-0.002604167,1,0,0,center_square,0,1,1,0,1,0,131,5,5,2370,2406,prac_patch/patch0002370.jpg,prac_patch/patch0002406.jpg,,,,,,,,,,,,,,,,,,,,,,,,,,,,,,,,,,,,,,,,,,,,,,,,,,,,,,,,,,,
831559,001,2022-11-14_01h30.50.824,Info_measure_main_exp,2022.2.2,Win32,49.58104021,,,,,,,,,,,,,0,0,0,2,1,masks/mask_003.jpg,,,,,,,,,,,,,,,,,,,,,,,,,,,,,,,,,,,,,,,,,,,,,,,,,,,,,,,,,,,,,,,,,,,,,,,,,,,,,,,,,,,,,,,,,,,,
831559,001,2022-11-14_01h30.50.824,Info_measure_main_exp,2022.2.2,Win32,49.58104021,,,,,,,,,,,,,0,1,1,3,1,masks/mask_004.jpg,,,,,,,,,,,,,,,,,,,,,,,,,,,,,,,,,,,,,,,,,,,,,,,,,,,,,,,,,,,,,,,,,,,,,,,,,,,,,,,,,,,,,,,,,,,,
831559,001,2022-11-14_01h30.50.824,Info_measure_main_exp,2022.2.2,Win32,49.58104021,,,,,,,,,,,,,0,2,2,4,1,masks/mask_005.jpg,,,,,,,,,,,,,,,,,,,,,,,,,,,,,,,,,,,,,,,,,,,,,,,,,,,,,,,,,,,,,,,,,,,,,,,,,,,,,,,,,,,,,,,,,,,,
831559,001,2022-11-14_01h30.50.824,Info_measure_main_exp,2022.2.2,Win32,49.58104021,,,,,,,,,,,,,0,3,3,0,1,masks/mask_001.jpg,,,,,,,,,,,,,,,,,,,,,,,,,,,,,,,,,,,,,,,,,,,,,,,,,,,,,,,,,,,,,,,,,,,,,,,,,,,,,,,,,,,,,,,,,,,,
831559,001,2022-11-14_01h30.50.824,Info_measure_main_exp,2022.2.2,Win32,49.58104021,,,,,,,,,,,,,0,4,4,1,1,masks/mask_002.jpg,,,,,,,,,,,,,,,,,,,,,,,,,,,,,,,,,,,,,,,,,,,,,,,,,,,,,,,,,,,,,,,,,,,,,,,,,,,,,,,,,,,,,,,,,,,,
831559,001,2022-11-14_01h30.50.824,Info_measure_main_exp,2022.2.2,Win32,49.58104021,,,,,,,,,,,,,,,,,,masks/mask_002.jpg,0,0,0,1,1,,,,,,,,,,,,,,,,,,,,,,,,,,,,,,,,,,,,,,,,,,,,,,,,,,,,,,,,,,,,,,,,,,,,,,,,,,,,,,,,,,,,,,,
831559,001,2022-11-14_01h30.50.824,Info_measure_main_exp,2022.2.2,Win32,49.58104021,,,,,,,,,,,,,,,,,,masks/mask_005.jpg,0,1,1,4,1,,,,,,,,,,,,,,,,,,,,,,,,,,,,,,,,,,,,,,,,,,,,,,,,,,,,,,,,,,,,,,,,,,,,,,,,,,,,,,,,,,,,,,,
831559,001,2022-11-14_01h30.50.824,Info_measure_main_exp,2022.2.2,Win32,49.58104021,,,,,,,,,,,,,,,,,,masks/mask_004.jpg,0,2,2,3,1,,,,,,,,,,,,,,,,,,,,,,,,,,,,,,,,,,,,,,,,,,,,,,,,,,,,,,,,,,,,,,,,,,,,,,,,,,,,,,,,,,,,,,,
831559,001,2022-11-14_01h30.50.824,Info_measure_main_exp,2022.2.2,Win32,49.58104021,,,,,,,,,,,,,,,,,,masks/mask_003.jpg,0,3,3,2,1,,,,,,,,,,,,,,,,,,,,,,,,,,,,,,,,,,,,,,,,,,,,,,,,,,,,,,,,,,,,,,,,,,,,,,,,,,,,,,,,,,,,,,,
831559,001,2022-11-14_01h30.50.824,Info_measure_main_exp,2022.2.2,Win32,49.58104021,,,,,,,,,,,,,,,,,,masks/mask_001.jpg,0,4,4,0,1,,,,,,,,,,,,,,,,,,,,,,,,,,,,,,,,,,,,,,,,,,,,,,,,,,,,,,,,,,,,,,,,,,,,,,,,,,,,,,,,,,,,,,,
831559,001,2022-11-14_01h30.50.824,Info_measure_main_exp,2022.2.2,Win32,49.58104021,,,,,,,,,,,,,,,,,,,,,,,,0.049479167,-0.096354167,1,0,0,response3disk,4,210.2797,1,0.001302083,0.002604167,1,0,0,center_square,0,2,2,1,1,0,131,5,5,2514,2490,prac_patch/patch0002514.jpg,prac_patch/patch0002490.jpg,,,,,,,,,,,,,,,,,,,,,,,,,,,,,,,,,,,,,,,,,,,,,,,,,,,,,,,,,,,
831559,001,2022-11-14_01h30.50.824,Info_measure_main_exp,2022.2.2,Win32,49.58104021,,,,,,,,,,,,,,,,,,,,,,,,,,,,,,,,,,,,,,,,,,,,,,,,,,,,0.001302083,0.002604167,1,0,0,0.1765,center_square,,,,,,,,,,,,,,,,,,,,,,,,,,,,,,,,,,,,,,,,,,,,,,,,,,,,
831559,001,2022-11-14_01h30.50.824,Info_measure_main_exp,2022.2.2,Win32,49.58104021,,,,,,,,,,,,,,,,,,masks/mask_005.jpg,,,,,,,,,,,,,,,,,,,,,,,,,,,,,,,,,,,,,,,,,,0,0,0,4,1,,,,,,,,,,,,,,,,,,,,,,,,,,,,,,,,,,,,,,,,,,,,,,
831559,001,2022-11-14_01h30.50.824,Info_measure_main_exp,2022.2.2,Win32,49.58104021,,,,,,,,,,,,,,,,,,masks/mask_002.jpg,,,,,,,,,,,,,,,,,,,,,,,,,,,,,,,,,,,,,,,,,,0,1,1,1,1,,,,,,,,,,,,,,,,,,,,,,,,,,,,,,,,,,,,,,,,,,,,,,
831559,001,2022-11-14_01h30.50.824,Info_measure_main_exp,2022.2.2,Win32,49.58104021,,,,,,,,,,,,,,,,,,masks/mask_004.jpg,,,,,,,,,,,,,,,,,,,,,,,,,,,,,,,,,,,,,,,,,,0,2,2,3,1,,,,,,,,,,,,,,,,,,,,,,,,,,,,,,,,,,,,,,,,,,,,,,
831559,001,2022-11-14_01h30.50.824,Info_measure_main_exp,2022.2.2,Win32,49.58104021,,,,,,,,,,,,,,,,,,masks/mask_003.jpg,,,,,,,,,,,,,,,,,,,,,,,,,,,,,,,,,,,,,,,,,,0,3,3,2,1,,,,,,,,,,,,,,,,,,,,,,,,,,,,,,,,,,,,,,,,,,,,,,
831559,001,2022-11-14_01h30.50.824,Info_measure_main_exp,2022.2.2,Win32,49.58104021,,,,,,,,,,,,,,,,,,masks/mask_001.jpg,,,,,,,,,,,,,,,,,,,,,,,,,,,,,,,,,,,,,,,,,,0,4,4,0,1,,,,,,,,,,,,,,,,,,,,,,,,,,,,,,,,,,,,,,,,,,,,,,
831559,001,2022-11-14_01h30.50.824,Info_measure_main_exp,2022.2.2,Win32,49.58104021,,,,,,,,,,,,,,,,,,masks/mask_001.jpg,,,,,,,,,,,,,,,,,,,,,,,,,,,,,,,,,,,,,,,,,,,,,,,0,0,0,0,1,,,,,,,,,,,,,,,,,,,,,,,,,,,,,,,,,,,,,,,,,
831559,001,2022-11-14_01h30.50.824,Info_measure_main_exp,2022.2.2,Win32,49.58104021,,,,,,,,,,,,,,,,,,masks/mask_005.jpg,,,,,,,,,,,,,,,,,,,,,,,,,,,,,,,,,,,,,,,,,,,,,,,0,1,1,4,1,,,,,,,,,,,,,,,,,,,,,,,,,,,,,,,,,,,,,,,,,
831559,001,2022-11-14_01h30.50.824,Info_measure_main_exp,2022.2.2,Win32,49.58104021,,,,,,,,,,,,,,,,,,masks/mask_002.jpg,,,,,,,,,,,,,,,,,,,,,,,,,,,,,,,,,,,,,,,,,,,,,,,0,2,2,1,1,,,,,,,,,,,,,,,,,,,,,,,,,,,,,,,,,,,,,,,,,
831559,001,2022-11-14_01h30.50.824,Info_measure_main_exp,2022.2.2,Win32,49.58104021,,,,,,,,,,,,,,,,,,masks/mask_004.jpg,,,,,,,,,,,,,,,,,,,,,,,,,,,,,,,,,,,,,,,,,,,,,,,0,3,3,3,1,,,,,,,,,,,,,,,,,,,,,,,,,,,,,,,,,,,,,,,,,
831559,001,2022-11-14_01h30.50.824,Info_measure_main_exp,2022.2.2,Win32,49.58104021,,,,,,,,,,,,,,,,,,masks/mask_003.jpg,,,,,,,,,,,,,,,,,,,,,,,,,,,,,,,,,,,,,,,,,,,,,,,0,4,4,2,1,,,,,,,,,,,,,,,,,,,,,,,,,,,,,,,,,,,,,,,,,
831559,001,2022-11-14_01h30.50.824,Info_measure_main_exp,2022.2.2,Win32,49.58104021,,,,,,,,,,,,,,,,,,,,,,,,,,,,,,7,3.0145,1,,,,,,,,,,,,1,131,5,5,1950,1,absent_patch/patch0001950.jpg,present_patch/cong_131_5_a.jpg,,,,,,,,,,,,,,,,,,,0.022135417,0.119791667,1,0,0,response1disk,1,-0.006510417,0.002604167,1,0,0,center_square,0,0,0,39,1,,,,,,,,,,,,,,,,,,,,,,,
831559,001,2022-11-14_01h30.50.824,Info_measure_main_exp,2022.2.2,Win32,49.58104021,,,,,,,,,,,,,,,,,,masks/mask_005.jpg,,,,,,,,,,,,,,,,,,,,,,,,,,,,,,,,,,,,,,,,,,0,0,0,4,1,,,,,,,,,,,,,,,,,,,,,,,,,,,,,,,,,,,,,,,,,,,,,,
831559,001,2022-11-14_01h30.50.824,Info_measure_main_exp,2022.2.2,Win32,49.58104021,,,,,,,,,,,,,,,,,,masks/mask_003.jpg,,,,,,,,,,,,,,,,,,,,,,,,,,,,,,,,,,,,,,,,,,0,1,1,2,1,,,,,,,,,,,,,,,,,,,,,,,,,,,,,,,,,,,,,,,,,,,,,,
831559,001,2022-11-14_01h30.50.824,Info_measure_main_exp,2022.2.2,Win32,49.58104021,,,,,,,,,,,,,,,,,,masks/mask_001.jpg,,,,,,,,,,,,,,,,,,,,,,,,,,,,,,,,,,,,,,,,,,0,2,2,0,1,,,,,,,,,,,,,,,,,,,,,,,,,,,,,,,,,,,,,,,,,,,,,,
831559,001,2022-11-14_01h30.50.824,Info_measure_main_exp,2022.2.2,Win32,49.58104021,,,,,,,,,,,,,,,,,,masks/mask_002.jpg,,,,,,,,,,,,,,,,,,,,,,,,,,,,,,,,,,,,,,,,,,0,3,3,1,1,,,,,,,,,,,,,,,,,,,,,,,,,,,,,,,,,,,,,,,,,,,,,,
831559,001,2022-11-14_01h30.50.824,Info_measure_main_exp,2022.2.2,Win32,49.58104021,,,,,,,,,,,,,,,,,,masks/mask_004.jpg,,,,,,,,,,,,,,,,,,,,,,,,,,,,,,,,,,,,,,,,,,0,4,4,3,1,,,,,,,,,,,,,,,,,,,,,,,,,,,,,,,,,,,,,,,,,,,,,,
831559,001,2022-11-14_01h30.50.824,Info_measure_main_exp,2022.2.2,Win32,49.58104021,,,,,,,,,,,,,,,,,,masks/mask_001.jpg,,,,,,,,,,,,,,,,,,,,,,,,,,,,,,,,,,,,,,,,,,,,,,,0,0,0,0,1,,,,,,,,,,,,,,,,,,,,,,,,,,,,,,,,,,,,,,,,,
831559,001,2022-11-14_01h30.50.824,Info_measure_main_exp,2022.2.2,Win32,49.58104021,,,,,,,,,,,,,,,,,,masks/mask_002.jpg,,,,,,,,,,,,,,,,,,,,,,,,,,,,,,,,,,,,,,,,,,,,,,,0,1,1,1,1,,,,,,,,,,,,,,,,,,,,,,,,,,,,,,,,,,,,,,,,,
831559,001,2022-11-14_01h30.50.824,Info_measure_main_exp,2022.2.2,Win32,49.58104021,,,,,,,,,,,,,,,,,,masks/mask_003.jpg,,,,,,,,,,,,,,,,,,,,,,,,,,,,,,,,,,,,,,,,,,,,,,,0,2,2,2,1,,,,,,,,,,,,,,,,,,,,,,,,,,,,,,,,,,,,,,,,,
831559,001,2022-11-14_01h30.50.824,Info_measure_main_exp,2022.2.2,Win32,49.58104021,,,,,,,,,,,,,,,,,,masks/mask_004.jpg,,,,,,,,,,,,,,,,,,,,,,,,,,,,,,,,,,,,,,,,,,,,,,,0,3,3,3,1,,,,,,,,,,,,,,,,,,,,,,,,,,,,,,,,,,,,,,,,,
831559,001,2022-11-14_01h30.50.824,Info_measure_main_exp,2022.2.2,Win32,49.58104021,,,,,,,,,,,,,,,,,,masks/mask_005.jpg,,,,,,,,,,,,,,,,,,,,,,,,,,,,,,,,,,,,,,,,,,,,,,,0,4,4,4,1,,,,,,,,,,,,,,,,,,,,,,,,,,,,,,,,,,,,,,,,,
831559,001,2022-11-14_01h30.50.824,Info_measure_main_exp,2022.2.2,Win32,49.58104021,,,,,,,,,,,,,,,,,,,,,,,,,,,,,,7,2.6489,1,,,,,,,,,,,,0,131,5,5,1986,2238,absent_patch/patch0001986.jpg,absent_patch/patch0002238.jpg,,,,,,,,,,,,,,,,,,,0.03515625,0.102864583,1,0,0,response1disk,2,0.005208333,-0.001302083,1,0,0,center_square,0,1,1,31,1,,,,,,,,,,,,,,,,,,,,,,,
831559,001,2022-11-14_01h30.50.824,Info_measure_main_exp,2022.2.2,Win32,49.58104021,,,,,,,,,,,,,,,,,,masks/mask_005.jpg,,,,,,,,,,,,,,,,,,,,,,,,,,,,,,,,,,,,,,,,,,0,0,0,4,1,,,,,,,,,,,,,,,,,,,,,,,,,,,,,,,,,,,,,,,,,,,,,,
831559,001,2022-11-14_01h30.50.824,Info_measure_main_exp,2022.2.2,Win32,49.58104021,,,,,,,,,,,,,,,,,,masks/mask_003.jpg,,,,,,,,,,,,,,,,,,,,,,,,,,,,,,,,,,,,,,,,,,0,1,1,2,1,,,,,,,,,,,,,,,,,,,,,,,,,,,,,,,,,,,,,,,,,,,,,,
831559,001,2022-11-14_01h30.50.824,Info_measure_main_exp,2022.2.2,Win32,49.58104021,,,,,,,,,,,,,,,,,,masks/mask_001.jpg,,,,,,,,,,,,,,,,,,,,,,,,,,,,,,,,,,,,,,,,,,0,2,2,0,1,,,,,,,,,,,,,,,,,,,,,,,,,,,,,,,,,,,,,,,,,,,,,,
831559,001,2022-11-14_01h30.50.824,Info_measure_main_exp,2022.2.2,Win32,49.58104021,,,,,,,,,,,,,,,,,,masks/mask_004.jpg,,,,,,,,,,,,,,,,,,,,,,,,,,,,,,,,,,,,,,,,,,0,3,3,3,1,,,,,,,,,,,,,,,,,,,,,,,,,,,,,,,,,,,,,,,,,,,,,,
831559,001,2022-11-14_01h30.50.824,Info_measure_main_exp,2022.2.2,Win32,49.58104021,,,,,,,,,,,,,,,,,,masks/mask_002.jpg,,,,,,,,,,,,,,,,,,,,,,,,,,,,,,,,,,,,,,,,,,0,4,4,1,1,,,,,,,,,,,,,,,,,,,,,,,,,,,,,,,,,,,,,,,,,,,,,,
831559,001,2022-11-14_01h30.50.824,Info_measure_main_exp,2022.2.2,Win32,49.58104021,,,,,,,,,,,,,,,,,,masks/mask_003.jpg,,,,,,,,,,,,,,,,,,,,,,,,,,,,,,,,,,,,,,,,,,,,,,,0,0,0,2,1,,,,,,,,,,,,,,,,,,,,,,,,,,,,,,,,,,,,,,,,,
831559,001,2022-11-14_01h30.50.824,Info_measure_main_exp,2022.2.2,Win32,49.58104021,,,,,,,,,,,,,,,,,,masks/mask_005.jpg,,,,,,,,,,,,,,,,,,,,,,,,,,,,,,,,,,,,,,,,,,,,,,,0,1,1,4,1,,,,,,,,,,,,,,,,,,,,,,,,,,,,,,,,,,,,,,,,,
831559,001,2022-11-14_01h30.50.824,Info_measure_main_exp,2022.2.2,Win32,49.58104021,,,,,,,,,,,,,,,,,,masks/mask_002.jpg,,,,,,,,,,,,,,,,,,,,,,,,,,,,,,,,,,,,,,,,,,,,,,,0,2,2,1,1,,,,,,,,,,,,,,,,,,,,,,,,,,,,,,,,,,,,,,,,,
831559,001,2022-11-14_01h30.50.824,Info_measure_main_exp,2022.2.2,Win32,49.58104021,,,,,,,,,,,,,,,,,,masks/mask_004.jpg,,,,,,,,,,,,,,,,,,,,,,,,,,,,,,,,,,,,,,,,,,,,,,,0,3,3,3,1,,,,,,,,,,,,,,,,,,,,,,,,,,,,,,,,,,,,,,,,,
831559,001,2022-11-14_01h30.50.824,Info_measure_main_exp,2022.2.2,Win32,49.58104021,,,,,,,,,,,,,,,,,,masks/mask_001.jpg,,,,,,,,,,,,,,,,,,,,,,,,,,,,,,,,,,,,,,,,,,,,,,,0,4,4,0,1,,,,,,,,,,,,,,,,,,,,,,,,,,,,,,,,,,,,,,,,,
831559,001,2022-11-14_01h30.50.824,Info_measure_main_exp,2022.2.2,Win32,49.58104021,,,,,,,,,,,,,,,,,,,,,,,,,,,,,,2,3.1687,1,,,,,,,,,,,,0,131,5,5,2250,2250,absent_patch/patch0002250.jpg,absent_patch/patch0002250.jpg,,,,,,,,,,,,,,,,,,,-0.125,-0.02734375,1,0,0,response5disk,3,0,0,1,0,0,center_square,0,2,2,56,1,,,,,,,,,,,,,,,,,,,,,,,
831559,001,2022-11-14_01h30.50.824,Info_measure_main_exp,2022.2.2,Win32,49.58104021,,,,,,,,,,,,,,,,,,masks/mask_001.jpg,,,,,,,,,,,,,,,,,,,,,,,,,,,,,,,,,,,,,,,,,,0,0,0,0,1,,,,,,,,,,,,,,,,,,,,,,,,,,,,,,,,,,,,,,,,,,,,,,
831559,001,2022-11-14_01h30.50.824,Info_measure_main_exp,2022.2.2,Win32,49.58104021,,,,,,,,,,,,,,,,,,masks/mask_004.jpg,,,,,,,,,,,,,,,,,,,,,,,,,,,,,,,,,,,,,,,,,,0,1,1,3,1,,,,,,,,,,,,,,,,,,,,,,,,,,,,,,,,,,,,,,,,,,,,,,
831559,001,2022-11-14_01h30.50.824,Info_measure_main_exp,2022.2.2,Win32,49.58104021,,,,,,,,,,,,,,,,,,masks/mask_002.jpg,,,,,,,,,,,,,,,,,,,,,,,,,,,,,,,,,,,,,,,,,,0,2,2,1,1,,,,,,,,,,,,,,,,,,,,,,,,,,,,,,,,,,,,,,,,,,,,,,
831559,001,2022-11-14_01h30.50.824,Info_measure_main_exp,2022.2.2,Win32,49.58104021,,,,,,,,,,,,,,,,,,masks/mask_005.jpg,,,,,,,,,,,,,,,,,,,,,,,,,,,,,,,,,,,,,,,,,,0,3,3,4,1,,,,,,,,,,,,,,,,,,,,,,,,,,,,,,,,,,,,,,,,,,,,,,
831559,001,2022-11-14_01h30.50.824,Info_measure_main_exp,2022.2.2,Win32,49.58104021,,,,,,,,,,,,,,,,,,masks/mask_003.jpg,,,,,,,,,,,,,,,,,,,,,,,,,,,,,,,,,,,,,,,,,,0,4,4,2,1,,,,,,,,,,,,,,,,,,,,,,,,,,,,,,,,,,,,,,,,,,,,,,
831559,001,2022-11-14_01h30.50.824,Info_measure_main_exp,2022.2.2,Win32,49.58104021,,,,,,,,,,,,,,,,,,masks/mask_002.jpg,,,,,,,,,,,,,,,,,,,,,,,,,,,,,,,,,,,,,,,,,,,,,,,0,0,0,1,1,,,,,,,,,,,,,,,,,,,,,,,,,,,,,,,,,,,,,,,,,
831559,001,2022-11-14_01h30.50.824,Info_measure_main_exp,2022.2.2,Win32,49.58104021,,,,,,,,,,,,,,,,,,masks/mask_005.jpg,,,,,,,,,,,,,,,,,,,,,,,,,,,,,,,,,,,,,,,,,,,,,,,0,1,1,4,1,,,,,,,,,,,,,,,,,,,,,,,,,,,,,,,,,,,,,,,,,
831559,001,2022-11-14_01h30.50.824,Info_measure_main_exp,2022.2.2,Win32,49.58104021,,,,,,,,,,,,,,,,,,masks/mask_003.jpg,,,,,,,,,,,,,,,,,,,,,,,,,,,,,,,,,,,,,,,,,,,,,,,0,2,2,2,1,,,,,,,,,,,,,,,,,,,,,,,,,,,,,,,,,,,,,,,,,
831559,001,2022-11-14_01h30.50.824,Info_measure_main_exp,2022.2.2,Win32,49.58104021,,,,,,,,,,,,,,,,,,masks/mask_004.jpg,,,,,,,,,,,,,,,,,,,,,,,,,,,,,,,,,,,,,,,,,,,,,,,0,3,3,3,1,,,,,,,,,,,,,,,,,,,,,,,,,,,,,,,,,,,,,,,,,
831559,001,2022-11-14_01h30.50.824,Info_measure_main_exp,2022.2.2,Win32,49.58104021,,,,,,,,,,,,,,,,,,masks/mask_001.jpg,,,,,,,,,,,,,,,,,,,,,,,,,,,,,,,,,,,,,,,,,,,,,,,0,4,4,0,1,,,,,,,,,,,,,,,,,,,,,,,,,,,,,,,,,,,,,,,,,
831559,001,2022-11-14_01h30.50.824,Info_measure_main_exp,2022.2.2,Win32,49.58104021,,,,,,,,,,,,,,,,,,,,,,,,,,,,,,6,2.2936,1,,,,,,,,,,,,0,131,5,5,2154,2298,absent_patch/patch0002154.jpg,absent_patch/patch0002298.jpg,,,,,,,,,,,,,,,,,,,0.100260417,0.05078125,1,0,0,response1disk,4,0.005208333,-0.00390625,1,0,0,center_square,0,3,3,27,1,,,,,,,,,,,,,,,,,,,,,,,
831559,001,2022-11-14_01h30.50.824,Info_measure_main_exp,2022.2.2,Win32,49.58104021,,,,,,,,,,,,,,,,,,masks/mask_002.jpg,,,,,,,,,,,,,,,,,,,,,,,,,,,,,,,,,,,,,,,,,,0,0,0,1,1,,,,,,,,,,,,,,,,,,,,,,,,,,,,,,,,,,,,,,,,,,,,,,
831559,001,2022-11-14_01h30.50.824,Info_measure_main_exp,2022.2.2,Win32,49.58104021,,,,,,,,,,,,,,,,,,masks/mask_003.jpg,,,,,,,,,,,,,,,,,,,,,,,,,,,,,,,,,,,,,,,,,,0,1,1,2,1,,,,,,,,,,,,,,,,,,,,,,,,,,,,,,,,,,,,,,,,,,,,,,
831559,001,2022-11-14_01h30.50.824,Info_measure_main_exp,2022.2.2,Win32,49.58104021,,,,,,,,,,,,,,,,,,masks/mask_004.jpg,,,,,,,,,,,,,,,,,,,,,,,,,,,,,,,,,,,,,,,,,,0,2,2,3,1,,,,,,,,,,,,,,,,,,,,,,,,,,,,,,,,,,,,,,,,,,,,,,
831559,001,2022-11-14_01h30.50.824,Info_measure_main_exp,2022.2.2,Win32,49.58104021,,,,,,,,,,,,,,,,,,masks/mask_001.jpg,,,,,,,,,,,,,,,,,,,,,,,,,,,,,,,,,,,,,,,,,,0,3,3,0,1,,,,,,,,,,,,,,,,,,,,,,,,,,,,,,,,,,,,,,,,,,,,,,
831559,001,2022-11-14_01h30.50.824,Info_measure_main_exp,2022.2.2,Win32,49.58104021,,,,,,,,,,,,,,,,,,masks/mask_005.jpg,,,,,,,,,,,,,,,,,,,,,,,,,,,,,,,,,,,,,,,,,,0,4,4,4,1,,,,,,,,,,,,,,,,,,,,,,,,,,,,,,,,,,,,,,,,,,,,,,
831559,001,2022-11-14_01h30.50.824,Info_measure_main_exp,2022.2.2,Win32,49.58104021,,,,,,,,,,,,,,,,,,masks/mask_002.jpg,,,,,,,,,,,,,,,,,,,,,,,,,,,,,,,,,,,,,,,,,,,,,,,0,0,0,1,1,,,,,,,,,,,,,,,,,,,,,,,,,,,,,,,,,,,,,,,,,
831559,001,2022-11-14_01h30.50.824,Info_measure_main_exp,2022.2.2,Win32,49.58104021,,,,,,,,,,,,,,,,,,masks/mask_005.jpg,,,,,,,,,,,,,,,,,,,,,,,,,,,,,,,,,,,,,,,,,,,,,,,0,1,1,4,1,,,,,,,,,,,,,,,,,,,,,,,,,,,,,,,,,,,,,,,,,
831559,001,2022-11-14_01h30.50.824,Info_measure_main_exp,2022.2.2,Win32,49.58104021,,,,,,,,,,,,,,,,,,masks/mask_003.jpg,,,,,,,,,,,,,,,,,,,,,,,,,,,,,,,,,,,,,,,,,,,,,,,0,2,2,2,1,,,,,,,,,,,,,,,,,,,,,,,,,,,,,,,,,,,,,,,,,
831559,001,2022-11-14_01h30.50.824,Info_measure_main_exp,2022.2.2,Win32,49.58104021,,,,,,,,,,,,,,,,,,masks/mask_001.jpg,,,,,,,,,,,,,,,,,,,,,,,,,,,,,,,,,,,,,,,,,,,,,,,0,3,3,0,1,,,,,,,,,,,,,,,,,,,,,,,,,,,,,,,,,,,,,,,,,
831559,001,2022-11-14_01h30.50.824,Info_measure_main_exp,2022.2.2,Win32,49.58104021,,,,,,,,,,,,,,,,,,masks/mask_004.jpg,,,,,,,,,,,,,,,,,,,,,,,,,,,,,,,,,,,,,,,,,,,,,,,0,4,4,3,1,,,,,,,,,,,,,,,,,,,,,,,,,,,,,,,,,,,,,,,,,
831559,001,2022-11-14_01h30.50.824,Info_measure_main_exp,2022.2.2,Win32,49.58104021,,,,,,,,,,,,,,,,,,,,,,,,,,,,,,7,3.6149,1,,,,,,,,,,,,1,131,5,5,2238,1,absent_patch/patch0002238.jpg,present_patch/cong_131_5_a.jpg,,,,,,,,,,,,,,,,,,,0.0546875,0.106770833,1,0,0,response1disk,5,-0.001302083,-0.00390625,1,0,0,center_square,0,4,4,104,1,,,,,,,,,,,,,,,,,,,,,,,
831559,001,2022-11-14_01h30.50.824,Info_measure_main_exp,2022.2.2,Win32,49.58104021,,,,,,,,,,,,,,,,,,masks/mask_001.jpg,,,,,,,,,,,,,,,,,,,,,,,,,,,,,,,,,,,,,,,,,,0,0,0,0,1,,,,,,,,,,,,,,,,,,,,,,,,,,,,,,,,,,,,,,,,,,,,,,
831559,001,2022-11-14_01h30.50.824,Info_measure_main_exp,2022.2.2,Win32,49.58104021,,,,,,,,,,,,,,,,,,masks/mask_003.jpg,,,,,,,,,,,,,,,,,,,,,,,,,,,,,,,,,,,,,,,,,,0,1,1,2,1,,,,,,,,,,,,,,,,,,,,,,,,,,,,,,,,,,,,,,,,,,,,,,
831559,001,2022-11-14_01h30.50.824,Info_measure_main_exp,2022.2.2,Win32,49.58104021,,,,,,,,,,,,,,,,,,masks/mask_002.jpg,,,,,,,,,,,,,,,,,,,,,,,,,,,,,,,,,,,,,,,,,,0,2,2,1,1,,,,,,,,,,,,,,,,,,,,,,,,,,,,,,,,,,,,,,,,,,,,,,
831559,001,2022-11-14_01h30.50.824,Info_measure_main_exp,2022.2.2,Win32,49.58104021,,,,,,,,,,,,,,,,,,masks/mask_004.jpg,,,,,,,,,,,,,,,,,,,,,,,,,,,,,,,,,,,,,,,,,,0,3,3,3,1,,,,,,,,,,,,,,,,,,,,,,,,,,,,,,,,,,,,,,,,,,,,,,
831559,001,2022-11-14_01h30.50.824,Info_measure_main_exp,2022.2.2,Win32,49.58104021,,,,,,,,,,,,,,,,,,masks/mask_005.jpg,,,,,,,,,,,,,,,,,,,,,,,,,,,,,,,,,,,,,,,,,,0,4,4,4,1,,,,,,,,,,,,,,,,,,,,,,,,,,,,,,,,,,,,,,,,,,,,,,
831559,001,2022-11-14_01h30.50.824,Info_measure_main_exp,2022.2.2,Win32,49.58104021,,,,,,,,,,,,,,,,,,masks/mask_002.jpg,,,,,,,,,,,,,,,,,,,,,,,,,,,,,,,,,,,,,,,,,,,,,,,0,0,0,1,1,,,,,,,,,,,,,,,,,,,,,,,,,,,,,,,,,,,,,,,,,
831559,001,2022-11-14_01h30.50.824,Info_measure_main_exp,2022.2.2,Win32,49.58104021,,,,,,,,,,,,,,,,,,masks/mask_001.jpg,,,,,,,,,,,,,,,,,,,,,,,,,,,,,,,,,,,,,,,,,,,,,,,0,1,1,0,1,,,,,,,,,,,,,,,,,,,,,,,,,,,,,,,,,,,,,,,,,
831559,001,2022-11-14_01h30.50.824,Info_measure_main_exp,2022.2.2,Win32,49.58104021,,,,,,,,,,,,,,,,,,masks/mask_003.jpg,,,,,,,,,,,,,,,,,,,,,,,,,,,,,,,,,,,,,,,,,,,,,,,0,2,2,2,1,,,,,,,,,,,,,,,,,,,,,,,,,,,,,,,,,,,,,,,,,
831559,001,2022-11-14_01h30.50.824,Info_measure_main_exp,2022.2.2,Win32,49.58104021,,,,,,,,,,,,,,,,,,masks/mask_004.jpg,,,,,,,,,,,,,,,,,,,,,,,,,,,,,,,,,,,,,,,,,,,,,,,0,3,3,3,1,,,,,,,,,,,,,,,,,,,,,,,,,,,,,,,,,,,,,,,,,
831559,001,2022-11-14_01h30.50.824,Info_measure_main_exp,2022.2.2,Win32,49.58104021,,,,,,,,,,,,,,,,,,masks/mask_005.jpg,,,,,,,,,,,,,,,,,,,,,,,,,,,,,,,,,,,,,,,,,,,,,,,0,4,4,4,1,,,,,,,,,,,,,,,,,,,,,,,,,,,,,,,,,,,,,,,,,
831559,001,2022-11-14_01h30.50.824,Info_measure_main_exp,2022.2.2,Win32,49.58104021,,,,,,,,,,,,,,,,,,,,,,,,,,,,,,6,2.1419,1,,,,,,,,,,,,0,131,5,5,1950,1950,absent_patch/patch0001950.jpg,absent_patch/patch0001950.jpg,,,,,,,,,,,,,,,,,,,0.088541667,0.033854167,1,0,0,response1disk,6,0.009114583,-0.00390625,1,0,0,center_square,0,5,5,92,1,,,,,,,,,,,,,,,,,,,,,,,
831559,001,2022-11-14_01h30.50.824,Info_measure_main_exp,2022.2.2,Win32,49.58104021,,,,,,,,,,,,,,,,,,masks/mask_001.jpg,,,,,,,,,,,,,,,,,,,,,,,,,,,,,,,,,,,,,,,,,,0,0,0,0,1,,,,,,,,,,,,,,,,,,,,,,,,,,,,,,,,,,,,,,,,,,,,,,
831559,001,2022-11-14_01h30.50.824,Info_measure_main_exp,2022.2.2,Win32,49.58104021,,,,,,,,,,,,,,,,,,masks/mask_004.jpg,,,,,,,,,,,,,,,,,,,,,,,,,,,,,,,,,,,,,,,,,,0,1,1,3,1,,,,,,,,,,,,,,,,,,,,,,,,,,,,,,,,,,,,,,,,,,,,,,
831559,001,2022-11-14_01h30.50.824,Info_measure_main_exp,2022.2.2,Win32,49.58104021,,,,,,,,,,,,,,,,,,masks/mask_003.jpg,,,,,,,,,,,,,,,,,,,,,,,,,,,,,,,,,,,,,,,,,,0,2,2,2,1,,,,,,,,,,,,,,,,,,,,,,,,,,,,,,,,,,,,,,,,,,,,,,
831559,001,2022-11-14_01h30.50.824,Info_measure_main_exp,2022.2.2,Win32,49.58104021,,,,,,,,,,,,,,,,,,masks/mask_005.jpg,,,,,,,,,,,,,,,,,,,,,,,,,,,,,,,,,,,,,,,,,,0,3,3,4,1,,,,,,,,,,,,,,,,,,,,,,,,,,,,,,,,,,,,,,,,,,,,,,
831559,001,2022-11-14_01h30.50.824,Info_measure_main_exp,2022.2.2,Win32,49.58104021,,,,,,,,,,,,,,,,,,masks/mask_002.jpg,,,,,,,,,,,,,,,,,,,,,,,,,,,,,,,,,,,,,,,,,,0,4,4,1,1,,,,,,,,,,,,,,,,,,,,,,,,,,,,,,,,,,,,,,,,,,,,,,
831559,001,2022-11-14_01h30.50.824,Info_measure_main_exp,2022.2.2,Win32,49.58104021,,,,,,,,,,,,,,,,,,masks/mask_002.jpg,,,,,,,,,,,,,,,,,,,,,,,,,,,,,,,,,,,,,,,,,,,,,,,0,0,0,1,1,,,,,,,,,,,,,,,,,,,,,,,,,,,,,,,,,,,,,,,,,
831559,001,2022-11-14_01h30.50.824,Info_measure_main_exp,2022.2.2,Win32,49.58104021,,,,,,,,,,,,,,,,,,masks/mask_005.jpg,,,,,,,,,,,,,,,,,,,,,,,,,,,,,,,,,,,,,,,,,,,,,,,0,1,1,4,1,,,,,,,,,,,,,,,,,,,,,,,,,,,,,,,,,,,,,,,,,
831559,001,2022-11-14_01h30.50.824,Info_measure_main_exp,2022.2.2,Win32,49.58104021,,,,,,,,,,,,,,,,,,masks/mask_001.jpg,,,,,,,,,,,,,,,,,,,,,,,,,,,,,,,,,,,,,,,,,,,,,,,0,2,2,0,1,,,,,,,,,,,,,,,,,,,,,,,,,,,,,,,,,,,,,,,,,
831559,001,2022-11-14_01h30.50.824,Info_measure_main_exp,2022.2.2,Win32,49.58104021,,,,,,,,,,,,,,,,,,masks/mask_003.jpg,,,,,,,,,,,,,,,,,,,,,,,,,,,,,,,,,,,,,,,,,,,,,,,0,3,3,2,1,,,,,,,,,,,,,,,,,,,,,,,,,,,,,,,,,,,,,,,,,
831559,001,2022-11-14_01h30.50.824,Info_measure_main_exp,2022.2.2,Win32,49.58104021,,,,,,,,,,,,,,,,,,masks/mask_004.jpg,,,,,,,,,,,,,,,,,,,,,,,,,,,,,,,,,,,,,,,,,,,,,,,0,4,4,3,1,,,,,,,,,,,,,,,,,,,,,,,,,,,,,,,,,,,,,,,,,
831559,001,2022-11-14_01h30.50.824,Info_measure_main_exp,2022.2.2,Win32,49.58104021,,,,,,,,,,,,,,,,,,,,,,,,,,,,,,7,2.6927,1,,,,,,,,,,,,0,131,5,5,1986,2142,absent_patch/patch0001986.jpg,absent_patch/patch0002142.jpg,,,,,,,,,,,,,,,,,,,0.046875,0.079427083,1,0,0,response1disk,7,-0.002604167,0.002604167,1,0,0,center_square,0,6,6,76,1,,,,,,,,,,,,,,,,,,,,,,,
831559,001,2022-11-14_01h30.50.824,Info_measure_main_exp,2022.2.2,Win32,49.58104021,,,,,,,,,,,,,,,,,,masks/mask_001.jpg,,,,,,,,,,,,,,,,,,,,,,,,,,,,,,,,,,,,,,,,,,0,0,0,0,1,,,,,,,,,,,,,,,,,,,,,,,,,,,,,,,,,,,,,,,,,,,,,,
831559,001,2022-11-14_01h30.50.824,Info_measure_main_exp,2022.2.2,Win32,49.58104021,,,,,,,,,,,,,,,,,,masks/mask_004.jpg,,,,,,,,,,,,,,,,,,,,,,,,,,,,,,,,,,,,,,,,,,0,1,1,3,1,,,,,,,,,,,,,,,,,,,,,,,,,,,,,,,,,,,,,,,,,,,,,,
831559,001,2022-11-14_01h30.50.824,Info_measure_main_exp,2022.2.2,Win32,49.58104021,,,,,,,,,,,,,,,,,,masks/mask_005.jpg,,,,,,,,,,,,,,,,,,,,,,,,,,,,,,,,,,,,,,,,,,0,2,2,4,1,,,,,,,,,,,,,,,,,,,,,,,,,,,,,,,,,,,,,,,,,,,,,,
831559,001,2022-11-14_01h30.50.824,Info_measure_main_exp,2022.2.2,Win32,49.58104021,,,,,,,,,,,,,,,,,,masks/mask_003.jpg,,,,,,,,,,,,,,,,,,,,,,,,,,,,,,,,,,,,,,,,,,0,3,3,2,1,,,,,,,,,,,,,,,,,,,,,,,,,,,,,,,,,,,,,,,,,,,,,,
831559,001,2022-11-14_01h30.50.824,Info_measure_main_exp,2022.2.2,Win32,49.58104021,,,,,,,,,,,,,,,,,,masks/mask_002.jpg,,,,,,,,,,,,,,,,,,,,,,,,,,,,,,,,,,,,,,,,,,0,4,4,1,1,,,,,,,,,,,,,,,,,,,,,,,,,,,,,,,,,,,,,,,,,,,,,,
831559,001,2022-11-14_01h30.50.824,Info_measure_main_exp,2022.2.2,Win32,49.58104021,,,,,,,,,,,,,,,,,,masks/mask_002.jpg,,,,,,,,,,,,,,,,,,,,,,,,,,,,,,,,,,,,,,,,,,,,,,,0,0,0,1,1,,,,,,,,,,,,,,,,,,,,,,,,,,,,,,,,,,,,,,,,,
831559,001,2022-11-14_01h30.50.824,Info_measure_main_exp,2022.2.2,Win32,49.58104021,,,,,,,,,,,,,,,,,,masks/mask_004.jpg,,,,,,,,,,,,,,,,,,,,,,,,,,,,,,,,,,,,,,,,,,,,,,,0,1,1,3,1,,,,,,,,,,,,,,,,,,,,,,,,,,,,,,,,,,,,,,,,,
831559,001,2022-11-14_01h30.50.824,Info_measure_main_exp,2022.2.2,Win32,49.58104021,,,,,,,,,,,,,,,,,,masks/mask_003.jpg,,,,,,,,,,,,,,,,,,,,,,,,,,,,,,,,,,,,,,,,,,,,,,,0,2,2,2,1,,,,,,,,,,,,,,,,,,,,,,,,,,,,,,,,,,,,,,,,,
831559,001,2022-11-14_01h30.50.824,Info_measure_main_exp,2022.2.2,Win32,49.58104021,,,,,,,,,,,,,,,,,,masks/mask_001.jpg,,,,,,,,,,,,,,,,,,,,,,,,,,,,,,,,,,,,,,,,,,,,,,,0,3,3,0,1,,,,,,,,,,,,,,,,,,,,,,,,,,,,,,,,,,,,,,,,,
831559,001,2022-11-14_01h30.50.824,Info_measure_main_exp,2022.2.2,Win32,49.58104021,,,,,,,,,,,,,,,,,,masks/mask_005.jpg,,,,,,,,,,,,,,,,,,,,,,,,,,,,,,,,,,,,,,,,,,,,,,,0,4,4,4,1,,,,,,,,,,,,,,,,,,,,,,,,,,,,,,,,,,,,,,,,,
831559,001,2022-11-14_01h30.50.824,Info_measure_main_exp,2022.2.2,Win32,49.58104021,,,,,,,,,,,,,,,,,,,,,,,,,,,,,,7,2.2437,1,,,,,,,,,,,,0,131,5,5,2082,2238,absent_patch/patch0002082.jpg,absent_patch/patch0002238.jpg,,,,,,,,,,,,,,,,,,,0.04296875,0.084635417,1,0,0,response1disk,8,0.00390625,-0.00390625,1,0,0,center_square,0,7,7,22,1,,,,,,,,,,,,,,,,,,,,,,,
831559,001,2022-11-14_01h30.50.824,Info_measure_main_exp,2022.2.2,Win32,49.58104021,,,,,,,,,,,,,,,,,,masks/mask_004.jpg,,,,,,,,,,,,,,,,,,,,,,,,,,,,,,,,,,,,,,,,,,0,0,0,3,1,,,,,,,,,,,,,,,,,,,,,,,,,,,,,,,,,,,,,,,,,,,,,,
831559,001,2022-11-14_01h30.50.824,Info_measure_main_exp,2022.2.2,Win32,49.58104021,,,,,,,,,,,,,,,,,,masks/mask_005.jpg,,,,,,,,,,,,,,,,,,,,,,,,,,,,,,,,,,,,,,,,,,0,1,1,4,1,,,,,,,,,,,,,,,,,,,,,,,,,,,,,,,,,,,,,,,,,,,,,,
831559,001,2022-11-14_01h30.50.824,Info_measure_main_exp,2022.2.2,Win32,49.58104021,,,,,,,,,,,,,,,,,,masks/mask_001.jpg,,,,,,,,,,,,,,,,,,,,,,,,,,,,,,,,,,,,,,,,,,0,2,2,0,1,,,,,,,,,,,,,,,,,,,,,,,,,,,,,,,,,,,,,,,,,,,,,,
831559,001,2022-11-14_01h30.50.824,Info_measure_main_exp,2022.2.2,Win32,49.58104021,,,,,,,,,,,,,,,,,,masks/mask_003.jpg,,,,,,,,,,,,,,,,,,,,,,,,,,,,,,,,,,,,,,,,,,0,3,3,2,1,,,,,,,,,,,,,,,,,,,,,,,,,,,,,,,,,,,,,,,,,,,,,,
831559,001,2022-11-14_01h30.50.824,Info_measure_main_exp,2022.2.2,Win32,49.58104021,,,,,,,,,,,,,,,,,,masks/mask_002.jpg,,,,,,,,,,,,,,,,,,,,,,,,,,,,,,,,,,,,,,,,,,0,4,4,1,1,,,,,,,,,,,,,,,,,,,,,,,,,,,,,,,,,,,,,,,,,,,,,,
831559,001,2022-11-14_01h30.50.824,Info_measure_main_exp,2022.2.2,Win32,49.58104021,,,,,,,,,,,,,,,,,,masks/mask_001.jpg,,,,,,,,,,,,,,,,,,,,,,,,,,,,,,,,,,,,,,,,,,,,,,,0,0,0,0,1,,,,,,,,,,,,,,,,,,,,,,,,,,,,,,,,,,,,,,,,,
831559,001,2022-11-14_01h30.50.824,Info_measure_main_exp,2022.2.2,Win32,49.58104021,,,,,,,,,,,,,,,,,,masks/mask_005.jpg,,,,,,,,,,,,,,,,,,,,,,,,,,,,,,,,,,,,,,,,,,,,,,,0,1,1,4,1,,,,,,,,,,,,,,,,,,,,,,,,,,,,,,,,,,,,,,,,,
831559,001,2022-11-14_01h30.50.824,Info_measure_main_exp,2022.2.2,Win32,49.58104021,,,,,,,,,,,,,,,,,,masks/mask_003.jpg,,,,,,,,,,,,,,,,,,,,,,,,,,,,,,,,,,,,,,,,,,,,,,,0,2,2,2,1,,,,,,,,,,,,,,,,,,,,,,,,,,,,,,,,,,,,,,,,,
831559,001,2022-11-14_01h30.50.824,Info_measure_main_exp,2022.2.2,Win32,49.58104021,,,,,,,,,,,,,,,,,,masks/mask_004.jpg,,,,,,,,,,,,,,,,,,,,,,,,,,,,,,,,,,,,,,,,,,,,,,,0,3,3,3,1,,,,,,,,,,,,,,,,,,,,,,,,,,,,,,,,,,,,,,,,,
831559,001,2022-11-14_01h30.50.824,Info_measure_main_exp,2022.2.2,Win32,49.58104021,,,,,,,,,,,,,,,,,,masks/mask_002.jpg,,,,,,,,,,,,,,,,,,,,,,,,,,,,,,,,,,,,,,,,,,,,,,,0,4,4,1,1,,,,,,,,,,,,,,,,,,,,,,,,,,,,,,,,,,,,,,,,,
831559,001,2022-11-14_01h30.50.824,Info_measure_main_exp,2022.2.2,Win32,49.58104021,,,,,,,,,,,,,,,,,,,,,,,,,,,,,,7,1.532,1,,,,,,,,,,,,0,131,5,5,2190,2190,absent_patch/patch0002190.jpg,absent_patch/patch0002190.jpg,,,,,,,,,,,,,,,,,,,0.0390625,0.095052083,1,0,0,response1disk,9,0.006510417,0.010416667,1,0,0,center_square,0,8,8,86,1,,,,,,,,,,,,,,,,,,,,,,,
831559,001,2022-11-14_01h30.50.824,Info_measure_main_exp,2022.2.2,Win32,49.58104021,,,,,,,,,,,,,,,,,,masks/mask_004.jpg,,,,,,,,,,,,,,,,,,,,,,,,,,,,,,,,,,,,,,,,,,0,0,0,3,1,,,,,,,,,,,,,,,,,,,,,,,,,,,,,,,,,,,,,,,,,,,,,,
831559,001,2022-11-14_01h30.50.824,Info_measure_main_exp,2022.2.2,Win32,49.58104021,,,,,,,,,,,,,,,,,,masks/mask_003.jpg,,,,,,,,,,,,,,,,,,,,,,,,,,,,,,,,,,,,,,,,,,0,1,1,2,1,,,,,,,,,,,,,,,,,,,,,,,,,,,,,,,,,,,,,,,,,,,,,,
831559,001,2022-11-14_01h30.50.824,Info_measure_main_exp,2022.2.2,Win32,49.58104021,,,,,,,,,,,,,,,,,,masks/mask_005.jpg,,,,,,,,,,,,,,,,,,,,,,,,,,,,,,,,,,,,,,,,,,0,2,2,4,1,,,,,,,,,,,,,,,,,,,,,,,,,,,,,,,,,,,,,,,,,,,,,,
831559,001,2022-11-14_01h30.50.824,Info_measure_main_exp,2022.2.2,Win32,49.58104021,,,,,,,,,,,,,,,,,,masks/mask_002.jpg,,,,,,,,,,,,,,,,,,,,,,,,,,,,,,,,,,,,,,,,,,0,3,3,1,1,,,,,,,,,,,,,,,,,,,,,,,,,,,,,,,,,,,,,,,,,,,,,,
831559,001,2022-11-14_01h30.50.824,Info_measure_main_exp,2022.2.2,Win32,49.58104021,,,,,,,,,,,,,,,,,,masks/mask_001.jpg,,,,,,,,,,,,,,,,,,,,,,,,,,,,,,,,,,,,,,,,,,0,4,4,0,1,,,,,,,,,,,,,,,,,,,,,,,,,,,,,,,,,,,,,,,,,,,,,,
831559,001,2022-11-14_01h30.50.824,Info_measure_main_exp,2022.2.2,Win32,49.58104021,,,,,,,,,,,,,,,,,,masks/mask_005.jpg,,,,,,,,,,,,,,,,,,,,,,,,,,,,,,,,,,,,,,,,,,,,,,,0,0,0,4,1,,,,,,,,,,,,,,,,,,,,,,,,,,,,,,,,,,,,,,,,,
831559,001,2022-11-14_01h30.50.824,Info_measure_main_exp,2022.2.2,Win32,49.58104021,,,,,,,,,,,,,,,,,,masks/mask_002.jpg,,,,,,,,,,,,,,,,,,,,,,,,,,,,,,,,,,,,,,,,,,,,,,,0,1,1,1,1,,,,,,,,,,,,,,,,,,,,,,,,,,,,,,,,,,,,,,,,,
831559,001,2022-11-14_01h30.50.824,Info_measure_main_exp,2022.2.2,Win32,49.58104021,,,,,,,,,,,,,,,,,,masks/mask_004.jpg,,,,,,,,,,,,,,,,,,,,,,,,,,,,,,,,,,,,,,,,,,,,,,,0,2,2,3,1,,,,,,,,,,,,,,,,,,,,,,,,,,,,,,,,,,,,,,,,,
831559,001,2022-11-14_01h30.50.824,Info_measure_main_exp,2022.2.2,Win32,49.58104021,,,,,,,,,,,,,,,,,,masks/mask_001.jpg,,,,,,,,,,,,,,,,,,,,,,,,,,,,,,,,,,,,,,,,,,,,,,,0,3,3,0,1,,,,,,,,,,,,,,,,,,,,,,,,,,,,,,,,,,,,,,,,,
831559,001,2022-11-14_01h30.50.824,Info_measure_main_exp,2022.2.2,Win32,49.58104021,,,,,,,,,,,,,,,,,,masks/mask_003.jpg,,,,,,,,,,,,,,,,,,,,,,,,,,,,,,,,,,,,,,,,,,,,,,,0,4,4,2,1,,,,,,,,,,,,,,,,,,,,,,,,,,,,,,,,,,,,,,,,,
831559,001,2022-11-14_01h30.50.824,Info_measure_main_exp,2022.2.2,Win32,49.58104021,,,,,,,,,,,,,,,,,,,,,,,,,,,,,,6,1.7049,1,,,,,,,,,,,,0,131,5,5,1974,2238,absent_patch/patch0001974.jpg,absent_patch/patch0002238.jpg,,,,,,,,,,,,,,,,,,,0.098958333,0.053385417,1,0,0,response1disk,10,0.005208333,0.002604167,1,0,0,center_square,0,9,9,95,1,,,,,,,,,,,,,,,,,,,,,,,
831559,001,2022-11-14_01h30.50.824,Info_measure_main_exp,2022.2.2,Win32,49.58104021,,,,,,,,,,,,,,,,,,masks/mask_004.jpg,,,,,,,,,,,,,,,,,,,,,,,,,,,,,,,,,,,,,,,,,,0,0,0,3,1,,,,,,,,,,,,,,,,,,,,,,,,,,,,,,,,,,,,,,,,,,,,,,
831559,001,2022-11-14_01h30.50.824,Info_measure_main_exp,2022.2.2,Win32,49.58104021,,,,,,,,,,,,,,,,,,masks/mask_001.jpg,,,,,,,,,,,,,,,,,,,,,,,,,,,,,,,,,,,,,,,,,,0,1,1,0,1,,,,,,,,,,,,,,,,,,,,,,,,,,,,,,,,,,,,,,,,,,,,,,
831559,001,2022-11-14_01h30.50.824,Info_measure_main_exp,2022.2.2,Win32,49.58104021,,,,,,,,,,,,,,,,,,masks/mask_002.jpg,,,,,,,,,,,,,,,,,,,,,,,,,,,,,,,,,,,,,,,,,,0,2,2,1,1,,,,,,,,,,,,,,,,,,,,,,,,,,,,,,,,,,,,,,,,,,,,,,
831559,001,2022-11-14_01h30.50.824,Info_measure_main_exp,2022.2.2,Win32,49.58104021,,,,,,,,,,,,,,,,,,masks/mask_003.jpg,,,,,,,,,,,,,,,,,,,,,,,,,,,,,,,,,,,,,,,,,,0,3,3,2,1,,,,,,,,,,,,,,,,,,,,,,,,,,,,,,,,,,,,,,,,,,,,,,
831559,001,2022-11-14_01h30.50.824,Info_measure_main_exp,2022.2.2,Win32,49.58104021,,,,,,,,,,,,,,,,,,masks/mask_005.jpg,,,,,,,,,,,,,,,,,,,,,,,,,,,,,,,,,,,,,,,,,,0,4,4,4,1,,,,,,,,,,,,,,,,,,,,,,,,,,,,,,,,,,,,,,,,,,,,,,
831559,001,2022-11-14_01h30.50.824,Info_measure_main_exp,2022.2.2,Win32,49.58104021,,,,,,,,,,,,,,,,,,masks/mask_003.jpg,,,,,,,,,,,,,,,,,,,,,,,,,,,,,,,,,,,,,,,,,,,,,,,0,0,0,2,1,,,,,,,,,,,,,,,,,,,,,,,,,,,,,,,,,,,,,,,,,
831559,001,2022-11-14_01h30.50.824,Info_measure_main_exp,2022.2.2,Win32,49.58104021,,,,,,,,,,,,,,,,,,masks/mask_001.jpg,,,,,,,,,,,,,,,,,,,,,,,,,,,,,,,,,,,,,,,,,,,,,,,0,1,1,0,1,,,,,,,,,,,,,,,,,,,,,,,,,,,,,,,,,,,,,,,,,
831559,001,2022-11-14_01h30.50.824,Info_measure_main_exp,2022.2.2,Win32,49.58104021,,,,,,,,,,,,,,,,,,masks/mask_004.jpg,,,,,,,,,,,,,,,,,,,,,,,,,,,,,,,,,,,,,,,,,,,,,,,0,2,2,3,1,,,,,,,,,,,,,,,,,,,,,,,,,,,,,,,,,,,,,,,,,
831559,001,2022-11-14_01h30.50.824,Info_measure_main_exp,2022.2.2,Win32,49.58104021,,,,,,,,,,,,,,,,,,masks/mask_005.jpg,,,,,,,,,,,,,,,,,,,,,,,,,,,,,,,,,,,,,,,,,,,,,,,0,3,3,4,1,,,,,,,,,,,,,,,,,,,,,,,,,,,,,,,,,,,,,,,,,
831559,001,2022-11-14_01h30.50.824,Info_measure_main_exp,2022.2.2,Win32,49.58104021,,,,,,,,,,,,,,,,,,masks/mask_002.jpg,,,,,,,,,,,,,,,,,,,,,,,,,,,,,,,,,,,,,,,,,,,,,,,0,4,4,1,1,,,,,,,,,,,,,,,,,,,,,,,,,,,,,,,,,,,,,,,,,
831559,001,2022-11-14_01h30.50.824,Info_measure_main_exp,2022.2.2,Win32,49.58104021,,,,,,,,,,,,,,,,,,,,,,,,,,,,,,5,1.6337,1,,,,,,,,,,,,1,131,5,5,1,2142,present_patch/cong_131_5_a.jpg,absent_patch/patch0002142.jpg,,,,,,,,,,,,,,,,,,,0.063802083,-0.010416667,1,0,0,response3disk,11,0.005208333,-0.001302083,1,0,0,center_square,0,10,10,80,1,,,,,,,,,,,,,,,,,,,,,,,
831559,001,2022-11-14_01h30.50.824,Info_measure_main_exp,2022.2.2,Win32,49.58104021,,,,,,,,,,,,,,,,,,masks/mask_004.jpg,,,,,,,,,,,,,,,,,,,,,,,,,,,,,,,,,,,,,,,,,,0,0,0,3,1,,,,,,,,,,,,,,,,,,,,,,,,,,,,,,,,,,,,,,,,,,,,,,
831559,001,2022-11-14_01h30.50.824,Info_measure_main_exp,2022.2.2,Win32,49.58104021,,,,,,,,,,,,,,,,,,masks/mask_005.jpg,,,,,,,,,,,,,,,,,,,,,,,,,,,,,,,,,,,,,,,,,,0,1,1,4,1,,,,,,,,,,,,,,,,,,,,,,,,,,,,,,,,,,,,,,,,,,,,,,
831559,001,2022-11-14_01h30.50.824,Info_measure_main_exp,2022.2.2,Win32,49.58104021,,,,,,,,,,,,,,,,,,masks/mask_002.jpg,,,,,,,,,,,,,,,,,,,,,,,,,,,,,,,,,,,,,,,,,,0,2,2,1,1,,,,,,,,,,,,,,,,,,,,,,,,,,,,,,,,,,,,,,,,,,,,,,
831559,001,2022-11-14_01h30.50.824,Info_measure_main_exp,2022.2.2,Win32,49.58104021,,,,,,,,,,,,,,,,,,masks/mask_001.jpg,,,,,,,,,,,,,,,,,,,,,,,,,,,,,,,,,,,,,,,,,,0,3,3,0,1,,,,,,,,,,,,,,,,,,,,,,,,,,,,,,,,,,,,,,,,,,,,,,
831559,001,2022-11-14_01h30.50.824,Info_measure_main_exp,2022.2.2,Win32,49.58104021,,,,,,,,,,,,,,,,,,masks/mask_003.jpg,,,,,,,,,,,,,,,,,,,,,,,,,,,,,,,,,,,,,,,,,,0,4,4,2,1,,,,,,,,,,,,,,,,,,,,,,,,,,,,,,,,,,,,,,,,,,,,,,
831559,001,2022-11-14_01h30.50.824,Info_measure_main_exp,2022.2.2,Win32,49.58104021,,,,,,,,,,,,,,,,,,masks/mask_004.jpg,,,,,,,,,,,,,,,,,,,,,,,,,,,,,,,,,,,,,,,,,,,,,,,0,0,0,3,1,,,,,,,,,,,,,,,,,,,,,,,,,,,,,,,,,,,,,,,,,
831559,001,2022-11-14_01h30.50.824,Info_measure_main_exp,2022.2.2,Win32,49.58104021,,,,,,,,,,,,,,,,,,masks/mask_003.jpg,,,,,,,,,,,,,,,,,,,,,,,,,,,,,,,,,,,,,,,,,,,,,,,0,1,1,2,1,,,,,,,,,,,,,,,,,,,,,,,,,,,,,,,,,,,,,,,,,
831559,001,2022-11-14_01h30.50.824,Info_measure_main_exp,2022.2.2,Win32,49.58104021,,,,,,,,,,,,,,,,,,masks/mask_005.jpg,,,,,,,,,,,,,,,,,,,,,,,,,,,,,,,,,,,,,,,,,,,,,,,0,2,2,4,1,,,,,,,,,,,,,,,,,,,,,,,,,,,,,,,,,,,,,,,,,
831559,001,2022-11-14_01h30.50.824,Info_measure_main_exp,2022.2.2,Win32,49.58104021,,,,,,,,,,,,,,,,,,masks/mask_001.jpg,,,,,,,,,,,,,,,,,,,,,,,,,,,,,,,,,,,,,,,,,,,,,,,0,3,3,0,1,,,,,,,,,,,,,,,,,,,,,,,,,,,,,,,,,,,,,,,,,
831559,001,2022-11-14_01h30.50.824,Info_measure_main_exp,2022.2.2,Win32,49.58104021,,,,,,,,,,,,,,,,,,masks/mask_002.jpg,,,,,,,,,,,,,,,,,,,,,,,,,,,,,,,,,,,,,,,,,,,,,,,0,4,4,1,1,,,,,,,,,,,,,,,,,,,,,,,,,,,,,,,,,,,,,,,,,
831559,001,2022-11-14_01h30.50.824,Info_measure_main_exp,2022.2.2,Win32,49.58104021,,,,,,,,,,,,,,,,,,,,,,,,,,,,,,3,2.6127,1,,,,,,,,,,,,0,131,5,5,2298,1986,absent_patch/patch0002298.jpg,absent_patch/patch0001986.jpg,,,,,,,,,,,,,,,,,,,-0.014322917,-0.07421875,1,0,0,response5disk,12,0.006510417,-0.005208333,1,0,0,center_square,0,11,11,32,1,,,,,,,,,,,,,,,,,,,,,,,
831559,001,2022-11-14_01h30.50.824,Info_measure_main_exp,2022.2.2,Win32,49.58104021,,,,,,,,,,,,,,,,,,masks/mask_004.jpg,,,,,,,,,,,,,,,,,,,,,,,,,,,,,,,,,,,,,,,,,,0,0,0,3,1,,,,,,,,,,,,,,,,,,,,,,,,,,,,,,,,,,,,,,,,,,,,,,
831559,001,2022-11-14_01h30.50.824,Info_measure_main_exp,2022.2.2,Win32,49.58104021,,,,,,,,,,,,,,,,,,masks/mask_003.jpg,,,,,,,,,,,,,,,,,,,,,,,,,,,,,,,,,,,,,,,,,,0,1,1,2,1,,,,,,,,,,,,,,,,,,,,,,,,,,,,,,,,,,,,,,,,,,,,,,
831559,001,2022-11-14_01h30.50.824,Info_measure_main_exp,2022.2.2,Win32,49.58104021,,,,,,,,,,,,,,,,,,masks/mask_001.jpg,,,,,,,,,,,,,,,,,,,,,,,,,,,,,,,,,,,,,,,,,,0,2,2,0,1,,,,,,,,,,,,,,,,,,,,,,,,,,,,,,,,,,,,,,,,,,,,,,
831559,001,2022-11-14_01h30.50.824,Info_measure_main_exp,2022.2.2,Win32,49.58104021,,,,,,,,,,,,,,,,,,masks/mask_002.jpg,,,,,,,,,,,,,,,,,,,,,,,,,,,,,,,,,,,,,,,,,,0,3,3,1,1,,,,,,,,,,,,,,,,,,,,,,,,,,,,,,,,,,,,,,,,,,,,,,
831559,001,2022-11-14_01h30.50.824,Info_measure_main_exp,2022.2.2,Win32,49.58104021,,,,,,,,,,,,,,,,,,masks/mask_005.jpg,,,,,,,,,,,,,,,,,,,,,,,,,,,,,,,,,,,,,,,,,,0,4,4,4,1,,,,,,,,,,,,,,,,,,,,,,,,,,,,,,,,,,,,,,,,,,,,,,
831559,001,2022-11-14_01h30.50.824,Info_measure_main_exp,2022.2.2,Win32,49.58104021,,,,,,,,,,,,,,,,,,masks/mask_002.jpg,,,,,,,,,,,,,,,,,,,,,,,,,,,,,,,,,,,,,,,,,,,,,,,0,0,0,1,1,,,,,,,,,,,,,,,,,,,,,,,,,,,,,,,,,,,,,,,,,
831559,001,2022-11-14_01h30.50.824,Info_measure_main_exp,2022.2.2,Win32,49.58104021,,,,,,,,,,,,,,,,,,masks/mask_001.jpg,,,,,,,,,,,,,,,,,,,,,,,,,,,,,,,,,,,,,,,,,,,,,,,0,1,1,0,1,,,,,,,,,,,,,,,,,,,,,,,,,,,,,,,,,,,,,,,,,
831559,001,2022-11-14_01h30.50.824,Info_measure_main_exp,2022.2.2,Win32,49.58104021,,,,,,,,,,,,,,,,,,masks/mask_003.jpg,,,,,,,,,,,,,,,,,,,,,,,,,,,,,,,,,,,,,,,,,,,,,,,0,2,2,2,1,,,,,,,,,,,,,,,,,,,,,,,,,,,,,,,,,,,,,,,,,
831559,001,2022-11-14_01h30.50.824,Info_measure_main_exp,2022.2.2,Win32,49.58104021,,,,,,,,,,,,,,,,,,masks/mask_004.jpg,,,,,,,,,,,,,,,,,,,,,,,,,,,,,,,,,,,,,,,,,,,,,,,0,3,3,3,1,,,,,,,,,,,,,,,,,,,,,,,,,,,,,,,,,,,,,,,,,
831559,001,2022-11-14_01h30.50.824,Info_measure_main_exp,2022.2.2,Win32,49.58104021,,,,,,,,,,,,,,,,,,masks/mask_005.jpg,,,,,,,,,,,,,,,,,,,,,,,,,,,,,,,,,,,,,,,,,,,,,,,0,4,4,4,1,,,,,,,,,,,,,,,,,,,,,,,,,,,,,,,,,,,,,,,,,
831559,001,2022-11-14_01h30.50.824,Info_measure_main_exp,2022.2.2,Win32,49.58104021,,,,,,,,,,,,,,,,,,,,,,,,,,,,,,7,1.3997,1,,,,,,,,,,,,0,131,5,5,2178,2166,absent_patch/patch0002178.jpg,absent_patch/patch0002166.jpg,,,,,,,,,,,,,,,,,,,0.026041667,0.069010417,1,0,0,response1disk,13,0.006510417,0.002604167,1,0,0,center_square,0,12,12,72,1,,,,,,,,,,,,,,,,,,,,,,,
831559,001,2022-11-14_01h30.50.824,Info_measure_main_exp,2022.2.2,Win32,49.58104021,,,,,,,,,,,,,,,,,,masks/mask_002.jpg,,,,,,,,,,,,,,,,,,,,,,,,,,,,,,,,,,,,,,,,,,0,0,0,1,1,,,,,,,,,,,,,,,,,,,,,,,,,,,,,,,,,,,,,,,,,,,,,,
831559,001,2022-11-14_01h30.50.824,Info_measure_main_exp,2022.2.2,Win32,49.58104021,,,,,,,,,,,,,,,,,,masks/mask_004.jpg,,,,,,,,,,,,,,,,,,,,,,,,,,,,,,,,,,,,,,,,,,0,1,1,3,1,,,,,,,,,,,,,,,,,,,,,,,,,,,,,,,,,,,,,,,,,,,,,,
831559,001,2022-11-14_01h30.50.824,Info_measure_main_exp,2022.2.2,Win32,49.58104021,,,,,,,,,,,,,,,,,,masks/mask_001.jpg,,,,,,,,,,,,,,,,,,,,,,,,,,,,,,,,,,,,,,,,,,0,2,2,0,1,,,,,,,,,,,,,,,,,,,,,,,,,,,,,,,,,,,,,,,,,,,,,,
831559,001,2022-11-14_01h30.50.824,Info_measure_main_exp,2022.2.2,Win32,49.58104021,,,,,,,,,,,,,,,,,,masks/mask_005.jpg,,,,,,,,,,,,,,,,,,,,,,,,,,,,,,,,,,,,,,,,,,0,3,3,4,1,,,,,,,,,,,,,,,,,,,,,,,,,,,,,,,,,,,,,,,,,,,,,,
831559,001,2022-11-14_01h30.50.824,Info_measure_main_exp,2022.2.2,Win32,49.58104021,,,,,,,,,,,,,,,,,,masks/mask_003.jpg,,,,,,,,,,,,,,,,,,,,,,,,,,,,,,,,,,,,,,,,,,0,4,4,2,1,,,,,,,,,,,,,,,,,,,,,,,,,,,,,,,,,,,,,,,,,,,,,,
831559,001,2022-11-14_01h30.50.824,Info_measure_main_exp,2022.2.2,Win32,49.58104021,,,,,,,,,,,,,,,,,,masks/mask_002.jpg,,,,,,,,,,,,,,,,,,,,,,,,,,,,,,,,,,,,,,,,,,,,,,,0,0,0,1,1,,,,,,,,,,,,,,,,,,,,,,,,,,,,,,,,,,,,,,,,,
831559,001,2022-11-14_01h30.50.824,Info_measure_main_exp,2022.2.2,Win32,49.58104021,,,,,,,,,,,,,,,,,,masks/mask_003.jpg,,,,,,,,,,,,,,,,,,,,,,,,,,,,,,,,,,,,,,,,,,,,,,,0,1,1,2,1,,,,,,,,,,,,,,,,,,,,,,,,,,,,,,,,,,,,,,,,,
831559,001,2022-11-14_01h30.50.824,Info_measure_main_exp,2022.2.2,Win32,49.58104021,,,,,,,,,,,,,,,,,,masks/mask_004.jpg,,,,,,,,,,,,,,,,,,,,,,,,,,,,,,,,,,,,,,,,,,,,,,,0,2,2,3,1,,,,,,,,,,,,,,,,,,,,,,,,,,,,,,,,,,,,,,,,,
831559,001,2022-11-14_01h30.50.824,Info_measure_main_exp,2022.2.2,Win32,49.58104021,,,,,,,,,,,,,,,,,,masks/mask_001.jpg,,,,,,,,,,,,,,,,,,,,,,,,,,,,,,,,,,,,,,,,,,,,,,,0,3,3,0,1,,,,,,,,,,,,,,,,,,,,,,,,,,,,,,,,,,,,,,,,,
831559,001,2022-11-14_01h30.50.824,Info_measure_main_exp,2022.2.2,Win32,49.58104021,,,,,,,,,,,,,,,,,,masks/mask_005.jpg,,,,,,,,,,,,,,,,,,,,,,,,,,,,,,,,,,,,,,,,,,,,,,,0,4,4,4,1,,,,,,,,,,,,,,,,,,,,,,,,,,,,,,,,,,,,,,,,,
831559,001,2022-11-14_01h30.50.824,Info_measure_main_exp,2022.2.2,Win32,49.58104021,,,,,,,,,,,,,,,,,,,,,,,,,,,,,,7,1.3655,1,,,,,,,,,,,,0,131,5,5,1974,2214,absent_patch/patch0001974.jpg,absent_patch/patch0002214.jpg,,,,,,,,,,,,,,,,,,,0.014322917,0.0546875,1,0,0,response1disk,14,0,0.00390625,1,0,0,center_square,0,13,13,24,1,,,,,,,,,,,,,,,,,,,,,,,
831559,001,2022-11-14_01h30.50.824,Info_measure_main_exp,2022.2.2,Win32,49.58104021,,,,,,,,,,,,,,,,,,masks/mask_005.jpg,,,,,,,,,,,,,,,,,,,,,,,,,,,,,,,,,,,,,,,,,,0,0,0,4,1,,,,,,,,,,,,,,,,,,,,,,,,,,,,,,,,,,,,,,,,,,,,,,
831559,001,2022-11-14_01h30.50.824,Info_measure_main_exp,2022.2.2,Win32,49.58104021,,,,,,,,,,,,,,,,,,masks/mask_001.jpg,,,,,,,,,,,,,,,,,,,,,,,,,,,,,,,,,,,,,,,,,,0,1,1,0,1,,,,,,,,,,,,,,,,,,,,,,,,,,,,,,,,,,,,,,,,,,,,,,
831559,001,2022-11-14_01h30.50.824,Info_measure_main_exp,2022.2.2,Win32,49.58104021,,,,,,,,,,,,,,,,,,masks/mask_004.jpg,,,,,,,,,,,,,,,,,,,,,,,,,,,,,,,,,,,,,,,,,,0,2,2,3,1,,,,,,,,,,,,,,,,,,,,,,,,,,,,,,,,,,,,,,,,,,,,,,
831559,001,2022-11-14_01h30.50.824,Info_measure_main_exp,2022.2.2,Win32,49.58104021,,,,,,,,,,,,,,,,,,masks/mask_002.jpg,,,,,,,,,,,,,,,,,,,,,,,,,,,,,,,,,,,,,,,,,,0,3,3,1,1,,,,,,,,,,,,,,,,,,,,,,,,,,,,,,,,,,,,,,,,,,,,,,
831559,001,2022-11-14_01h30.50.824,Info_measure_main_exp,2022.2.2,Win32,49.58104021,,,,,,,,,,,,,,,,,,masks/mask_003.jpg,,,,,,,,,,,,,,,,,,,,,,,,,,,,,,,,,,,,,,,,,,0,4,4,2,1,,,,,,,,,,,,,,,,,,,,,,,,,,,,,,,,,,,,,,,,,,,,,,
831559,001,2022-11-14_01h30.50.824,Info_measure_main_exp,2022.2.2,Win32,49.58104021,,,,,,,,,,,,,,,,,,masks/mask_004.jpg,,,,,,,,,,,,,,,,,,,,,,,,,,,,,,,,,,,,,,,,,,,,,,,0,0,0,3,1,,,,,,,,,,,,,,,,,,,,,,,,,,,,,,,,,,,,,,,,,
831559,001,2022-11-14_01h30.50.824,Info_measure_main_exp,2022.2.2,Win32,49.58104021,,,,,,,,,,,,,,,,,,masks/mask_005.jpg,,,,,,,,,,,,,,,,,,,,,,,,,,,,,,,,,,,,,,,,,,,,,,,0,1,1,4,1,,,,,,,,,,,,,,,,,,,,,,,,,,,,,,,,,,,,,,,,,
831559,001,2022-11-14_01h30.50.824,Info_measure_main_exp,2022.2.2,Win32,49.58104021,,,,,,,,,,,,,,,,,,masks/mask_002.jpg,,,,,,,,,,,,,,,,,,,,,,,,,,,,,,,,,,,,,,,,,,,,,,,0,2,2,1,1,,,,,,,,,,,,,,,,,,,,,,,,,,,,,,,,,,,,,,,,,
831559,001,2022-11-14_01h30.50.824,Info_measure_main_exp,2022.2.2,Win32,49.58104021,,,,,,,,,,,,,,,,,,masks/mask_001.jpg,,,,,,,,,,,,,,,,,,,,,,,,,,,,,,,,,,,,,,,,,,,,,,,0,3,3,0,1,,,,,,,,,,,,,,,,,,,,,,,,,,,,,,,,,,,,,,,,,
831559,001,2022-11-14_01h30.50.824,Info_measure_main_exp,2022.2.2,Win32,49.58104021,,,,,,,,,,,,,,,,,,masks/mask_003.jpg,,,,,,,,,,,,,,,,,,,,,,,,,,,,,,,,,,,,,,,,,,,,,,,0,4,4,2,1,,,,,,,,,,,,,,,,,,,,,,,,,,,,,,,,,,,,,,,,,
831559,001,2022-11-14_01h30.50.824,Info_measure_main_exp,2022.2.2,Win32,49.58104021,,,,,,,,,,,,,,,,,,,,,,,,,,,,,,6,1.5877,1,,,,,,,,,,,,0,131,5,5,2178,2154,absent_patch/patch0002178.jpg,absent_patch/patch0002154.jpg,,,,,,,,,,,,,,,,,,,0.075520833,0.041666667,1,0,0,response1disk,15,0.002604167,0.006510417,1,0,0,center_square,0,14,14,63,1,,,,,,,,,,,,,,,,,,,,,,,
831559,001,2022-11-14_01h30.50.824,Info_measure_main_exp,2022.2.2,Win32,49.58104021,,,,,,,,,,,,,,,,,,masks/mask_001.jpg,,,,,,,,,,,,,,,,,,,,,,,,,,,,,,,,,,,,,,,,,,0,0,0,0,1,,,,,,,,,,,,,,,,,,,,,,,,,,,,,,,,,,,,,,,,,,,,,,
831559,001,2022-11-14_01h30.50.824,Info_measure_main_exp,2022.2.2,Win32,49.58104021,,,,,,,,,,,,,,,,,,masks/mask_002.jpg,,,,,,,,,,,,,,,,,,,,,,,,,,,,,,,,,,,,,,,,,,0,1,1,1,1,,,,,,,,,,,,,,,,,,,,,,,,,,,,,,,,,,,,,,,,,,,,,,
831559,001,2022-11-14_01h30.50.824,Info_measure_main_exp,2022.2.2,Win32,49.58104021,,,,,,,,,,,,,,,,,,masks/mask_005.jpg,,,,,,,,,,,,,,,,,,,,,,,,,,,,,,,,,,,,,,,,,,0,2,2,4,1,,,,,,,,,,,,,,,,,,,,,,,,,,,,,,,,,,,,,,,,,,,,,,
831559,001,2022-11-14_01h30.50.824,Info_measure_main_exp,2022.2.2,Win32,49.58104021,,,,,,,,,,,,,,,,,,masks/mask_003.jpg,,,,,,,,,,,,,,,,,,,,,,,,,,,,,,,,,,,,,,,,,,0,3,3,2,1,,,,,,,,,,,,,,,,,,,,,,,,,,,,,,,,,,,,,,,,,,,,,,
831559,001,2022-11-14_01h30.50.824,Info_measure_main_exp,2022.2.2,Win32,49.58104021,,,,,,,,,,,,,,,,,,masks/mask_004.jpg,,,,,,,,,,,,,,,,,,,,,,,,,,,,,,,,,,,,,,,,,,0,4,4,3,1,,,,,,,,,,,,,,,,,,,,,,,,,,,,,,,,,,,,,,,,,,,,,,
831559,001,2022-11-14_01h30.50.824,Info_measure_main_exp,2022.2.2,Win32,49.58104021,,,,,,,,,,,,,,,,,,masks/mask_002.jpg,,,,,,,,,,,,,,,,,,,,,,,,,,,,,,,,,,,,,,,,,,,,,,,0,0,0,1,1,,,,,,,,,,,,,,,,,,,,,,,,,,,,,,,,,,,,,,,,,
831559,001,2022-11-14_01h30.50.824,Info_measure_main_exp,2022.2.2,Win32,49.58104021,,,,,,,,,,,,,,,,,,masks/mask_004.jpg,,,,,,,,,,,,,,,,,,,,,,,,,,,,,,,,,,,,,,,,,,,,,,,0,1,1,3,1,,,,,,,,,,,,,,,,,,,,,,,,,,,,,,,,,,,,,,,,,
831559,001,2022-11-14_01h30.50.824,Info_measure_main_exp,2022.2.2,Win32,49.58104021,,,,,,,,,,,,,,,,,,masks/mask_003.jpg,,,,,,,,,,,,,,,,,,,,,,,,,,,,,,,,,,,,,,,,,,,,,,,0,2,2,2,1,,,,,,,,,,,,,,,,,,,,,,,,,,,,,,,,,,,,,,,,,
831559,001,2022-11-14_01h30.50.824,Info_measure_main_exp,2022.2.2,Win32,49.58104021,,,,,,,,,,,,,,,,,,masks/mask_001.jpg,,,,,,,,,,,,,,,,,,,,,,,,,,,,,,,,,,,,,,,,,,,,,,,0,3,3,0,1,,,,,,,,,,,,,,,,,,,,,,,,,,,,,,,,,,,,,,,,,
831559,001,2022-11-14_01h30.50.824,Info_measure_main_exp,2022.2.2,Win32,49.58104021,,,,,,,,,,,,,,,,,,masks/mask_005.jpg,,,,,,,,,,,,,,,,,,,,,,,,,,,,,,,,,,,,,,,,,,,,,,,0,4,4,4,1,,,,,,,,,,,,,,,,,,,,,,,,,,,,,,,,,,,,,,,,,
831559,001,2022-11-14_01h30.50.824,Info_measure_main_exp,2022.2.2,Win32,49.58104021,,,,,,,,,,,,,,,,,,,,,,,,,,,,,,6,1.8301,1,,,,,,,,,,,,1,131,5,5,1,2214,present_patch/cong_131_5_a.jpg,absent_patch/patch0002214.jpg,,,,,,,,,,,,,,,,,,,0.061197917,0.028645833,1,0,0,response1disk,16,0.00390625,0.002604167,1,0,0,center_square,0,15,15,4,1,,,,,,,,,,,,,,,,,,,,,,,
831559,001,2022-11-14_01h30.50.824,Info_measure_main_exp,2022.2.2,Win32,49.58104021,,,,,,,,,,,,,,,,,,masks/mask_002.jpg,,,,,,,,,,,,,,,,,,,,,,,,,,,,,,,,,,,,,,,,,,0,0,0,1,1,,,,,,,,,,,,,,,,,,,,,,,,,,,,,,,,,,,,,,,,,,,,,,
831559,001,2022-11-14_01h30.50.824,Info_measure_main_exp,2022.2.2,Win32,49.58104021,,,,,,,,,,,,,,,,,,masks/mask_003.jpg,,,,,,,,,,,,,,,,,,,,,,,,,,,,,,,,,,,,,,,,,,0,1,1,2,1,,,,,,,,,,,,,,,,,,,,,,,,,,,,,,,,,,,,,,,,,,,,,,
831559,001,2022-11-14_01h30.50.824,Info_measure_main_exp,2022.2.2,Win32,49.58104021,,,,,,,,,,,,,,,,,,masks/mask_004.jpg,,,,,,,,,,,,,,,,,,,,,,,,,,,,,,,,,,,,,,,,,,0,2,2,3,1,,,,,,,,,,,,,,,,,,,,,,,,,,,,,,,,,,,,,,,,,,,,,,
831559,001,2022-11-14_01h30.50.824,Info_measure_main_exp,2022.2.2,Win32,49.58104021,,,,,,,,,,,,,,,,,,masks/mask_005.jpg,,,,,,,,,,,,,,,,,,,,,,,,,,,,,,,,,,,,,,,,,,0,3,3,4,1,,,,,,,,,,,,,,,,,,,,,,,,,,,,,,,,,,,,,,,,,,,,,,
831559,001,2022-11-14_01h30.50.824,Info_measure_main_exp,2022.2.2,Win32,49.58104021,,,,,,,,,,,,,,,,,,masks/mask_001.jpg,,,,,,,,,,,,,,,,,,,,,,,,,,,,,,,,,,,,,,,,,,0,4,4,0,1,,,,,,,,,,,,,,,,,,,,,,,,,,,,,,,,,,,,,,,,,,,,,,
831559,001,2022-11-14_01h30.50.824,Info_measure_main_exp,2022.2.2,Win32,49.58104021,,,,,,,,,,,,,,,,,,masks/mask_002.jpg,,,,,,,,,,,,,,,,,,,,,,,,,,,,,,,,,,,,,,,,,,,,,,,0,0,0,1,1,,,,,,,,,,,,,,,,,,,,,,,,,,,,,,,,,,,,,,,,,
831559,001,2022-11-14_01h30.50.824,Info_measure_main_exp,2022.2.2,Win32,49.58104021,,,,,,,,,,,,,,,,,,masks/mask_003.jpg,,,,,,,,,,,,,,,,,,,,,,,,,,,,,,,,,,,,,,,,,,,,,,,0,1,1,2,1,,,,,,,,,,,,,,,,,,,,,,,,,,,,,,,,,,,,,,,,,
831559,001,2022-11-14_01h30.50.824,Info_measure_main_exp,2022.2.2,Win32,49.58104021,,,,,,,,,,,,,,,,,,masks/mask_001.jpg,,,,,,,,,,,,,,,,,,,,,,,,,,,,,,,,,,,,,,,,,,,,,,,0,2,2,0,1,,,,,,,,,,,,,,,,,,,,,,,,,,,,,,,,,,,,,,,,,
831559,001,2022-11-14_01h30.50.824,Info_measure_main_exp,2022.2.2,Win32,49.58104021,,,,,,,,,,,,,,,,,,masks/mask_004.jpg,,,,,,,,,,,,,,,,,,,,,,,,,,,,,,,,,,,,,,,,,,,,,,,0,3,3,3,1,,,,,,,,,,,,,,,,,,,,,,,,,,,,,,,,,,,,,,,,,
831559,001,2022-11-14_01h30.50.824,Info_measure_main_exp,2022.2.2,Win32,49.58104021,,,,,,,,,,,,,,,,,,masks/mask_005.jpg,,,,,,,,,,,,,,,,,,,,,,,,,,,,,,,,,,,,,,,,,,,,,,,0,4,4,4,1,,,,,,,,,,,,,,,,,,,,,,,,,,,,,,,,,,,,,,,,,
831559,001,2022-11-14_01h30.50.824,Info_measure_main_exp,2022.2.2,Win32,49.58104021,,,,,,,,,,,,,,,,,,,,,,,,,,,,,,5,1.7277,1,,,,,,,,,,,,0,131,5,5,2274,2250,absent_patch/patch0002274.jpg,absent_patch/patch0002250.jpg,,,,,,,,,,,,,,,,,,,0.08203125,-0.036458333,1,0,0,response3disk,17,-0.002604167,0.001302083,1,0,0,center_square,0,16,16,28,1,,,,,,,,,,,,,,,,,,,,,,,
831559,001,2022-11-14_01h30.50.824,Info_measure_main_exp,2022.2.2,Win32,49.58104021,,,,,,,,,,,,,,,,,,masks/mask_004.jpg,,,,,,,,,,,,,,,,,,,,,,,,,,,,,,,,,,,,,,,,,,0,0,0,3,1,,,,,,,,,,,,,,,,,,,,,,,,,,,,,,,,,,,,,,,,,,,,,,
831559,001,2022-11-14_01h30.50.824,Info_measure_main_exp,2022.2.2,Win32,49.58104021,,,,,,,,,,,,,,,,,,masks/mask_001.jpg,,,,,,,,,,,,,,,,,,,,,,,,,,,,,,,,,,,,,,,,,,0,1,1,0,1,,,,,,,,,,,,,,,,,,,,,,,,,,,,,,,,,,,,,,,,,,,,,,
831559,001,2022-11-14_01h30.50.824,Info_measure_main_exp,2022.2.2,Win32,49.58104021,,,,,,,,,,,,,,,,,,masks/mask_002.jpg,,,,,,,,,,,,,,,,,,,,,,,,,,,,,,,,,,,,,,,,,,0,2,2,1,1,,,,,,,,,,,,,,,,,,,,,,,,,,,,,,,,,,,,,,,,,,,,,,
831559,001,2022-11-14_01h30.50.824,Info_measure_main_exp,2022.2.2,Win32,49.58104021,,,,,,,,,,,,,,,,,,masks/mask_005.jpg,,,,,,,,,,,,,,,,,,,,,,,,,,,,,,,,,,,,,,,,,,0,3,3,4,1,,,,,,,,,,,,,,,,,,,,,,,,,,,,,,,,,,,,,,,,,,,,,,
831559,001,2022-11-14_01h30.50.824,Info_measure_main_exp,2022.2.2,Win32,49.58104021,,,,,,,,,,,,,,,,,,masks/mask_003.jpg,,,,,,,,,,,,,,,,,,,,,,,,,,,,,,,,,,,,,,,,,,0,4,4,2,1,,,,,,,,,,,,,,,,,,,,,,,,,,,,,,,,,,,,,,,,,,,,,,
831559,001,2022-11-14_01h30.50.824,Info_measure_main_exp,2022.2.2,Win32,49.58104021,,,,,,,,,,,,,,,,,,masks/mask_005.jpg,,,,,,,,,,,,,,,,,,,,,,,,,,,,,,,,,,,,,,,,,,,,,,,0,0,0,4,1,,,,,,,,,,,,,,,,,,,,,,,,,,,,,,,,,,,,,,,,,
831559,001,2022-11-14_01h30.50.824,Info_measure_main_exp,2022.2.2,Win32,49.58104021,,,,,,,,,,,,,,,,,,masks/mask_004.jpg,,,,,,,,,,,,,,,,,,,,,,,,,,,,,,,,,,,,,,,,,,,,,,,0,1,1,3,1,,,,,,,,,,,,,,,,,,,,,,,,,,,,,,,,,,,,,,,,,
831559,001,2022-11-14_01h30.50.824,Info_measure_main_exp,2022.2.2,Win32,49.58104021,,,,,,,,,,,,,,,,,,masks/mask_003.jpg,,,,,,,,,,,,,,,,,,,,,,,,,,,,,,,,,,,,,,,,,,,,,,,0,2,2,2,1,,,,,,,,,,,,,,,,,,,,,,,,,,,,,,,,,,,,,,,,,
831559,001,2022-11-14_01h30.50.824,Info_measure_main_exp,2022.2.2,Win32,49.58104021,,,,,,,,,,,,,,,,,,masks/mask_002.jpg,,,,,,,,,,,,,,,,,,,,,,,,,,,,,,,,,,,,,,,,,,,,,,,0,3,3,1,1,,,,,,,,,,,,,,,,,,,,,,,,,,,,,,,,,,,,,,,,,
831559,001,2022-11-14_01h30.50.824,Info_measure_main_exp,2022.2.2,Win32,49.58104021,,,,,,,,,,,,,,,,,,masks/mask_001.jpg,,,,,,,,,,,,,,,,,,,,,,,,,,,,,,,,,,,,,,,,,,,,,,,0,4,4,0,1,,,,,,,,,,,,,,,,,,,,,,,,,,,,,,,,,,,,,,,,,
831559,001,2022-11-14_01h30.50.824,Info_measure_main_exp,2022.2.2,Win32,49.58104021,,,,,,,,,,,,,,,,,,,,,,,,,,,,,,6,2.8434,1,,,,,,,,,,,,1,131,5,5,1,2178,present_patch/cong_131_5_a.jpg,absent_patch/patch0002178.jpg,,,,,,,,,,,,,,,,,,,0.065104167,0.024739583,1,0,0,response1disk,18,0.006510417,0.005208333,1,0,0,center_square,0,17,17,40,1,,,,,,,,,,,,,,,,,,,,,,,
831559,001,2022-11-14_01h30.50.824,Info_measure_main_exp,2022.2.2,Win32,49.58104021,,,,,,,,,,,,,,,,,,masks/mask_003.jpg,,,,,,,,,,,,,,,,,,,,,,,,,,,,,,,,,,,,,,,,,,0,0,0,2,1,,,,,,,,,,,,,,,,,,,,,,,,,,,,,,,,,,,,,,,,,,,,,,
831559,001,2022-11-14_01h30.50.824,Info_measure_main_exp,2022.2.2,Win32,49.58104021,,,,,,,,,,,,,,,,,,masks/mask_004.jpg,,,,,,,,,,,,,,,,,,,,,,,,,,,,,,,,,,,,,,,,,,0,1,1,3,1,,,,,,,,,,,,,,,,,,,,,,,,,,,,,,,,,,,,,,,,,,,,,,
831559,001,2022-11-14_01h30.50.824,Info_measure_main_exp,2022.2.2,Win32,49.58104021,,,,,,,,,,,,,,,,,,masks/mask_005.jpg,,,,,,,,,,,,,,,,,,,,,,,,,,,,,,,,,,,,,,,,,,0,2,2,4,1,,,,,,,,,,,,,,,,,,,,,,,,,,,,,,,,,,,,,,,,,,,,,,
831559,001,2022-11-14_01h30.50.824,Info_measure_main_exp,2022.2.2,Win32,49.58104021,,,,,,,,,,,,,,,,,,masks/mask_002.jpg,,,,,,,,,,,,,,,,,,,,,,,,,,,,,,,,,,,,,,,,,,0,3,3,1,1,,,,,,,,,,,,,,,,,,,,,,,,,,,,,,,,,,,,,,,,,,,,,,
831559,001,2022-11-14_01h30.50.824,Info_measure_main_exp,2022.2.2,Win32,49.58104021,,,,,,,,,,,,,,,,,,masks/mask_001.jpg,,,,,,,,,,,,,,,,,,,,,,,,,,,,,,,,,,,,,,,,,,0,4,4,0,1,,,,,,,,,,,,,,,,,,,,,,,,,,,,,,,,,,,,,,,,,,,,,,
831559,001,2022-11-14_01h30.50.824,Info_measure_main_exp,2022.2.2,Win32,49.58104021,,,,,,,,,,,,,,,,,,masks/mask_003.jpg,,,,,,,,,,,,,,,,,,,,,,,,,,,,,,,,,,,,,,,,,,,,,,,0,0,0,2,1,,,,,,,,,,,,,,,,,,,,,,,,,,,,,,,,,,,,,,,,,
831559,001,2022-11-14_01h30.50.824,Info_measure_main_exp,2022.2.2,Win32,49.58104021,,,,,,,,,,,,,,,,,,masks/mask_002.jpg,,,,,,,,,,,,,,,,,,,,,,,,,,,,,,,,,,,,,,,,,,,,,,,0,1,1,1,1,,,,,,,,,,,,,,,,,,,,,,,,,,,,,,,,,,,,,,,,,
831559,001,2022-11-14_01h30.50.824,Info_measure_main_exp,2022.2.2,Win32,49.58104021,,,,,,,,,,,,,,,,,,masks/mask_001.jpg,,,,,,,,,,,,,,,,,,,,,,,,,,,,,,,,,,,,,,,,,,,,,,,0,2,2,0,1,,,,,,,,,,,,,,,,,,,,,,,,,,,,,,,,,,,,,,,,,
831559,001,2022-11-14_01h30.50.824,Info_measure_main_exp,2022.2.2,Win32,49.58104021,,,,,,,,,,,,,,,,,,masks/mask_004.jpg,,,,,,,,,,,,,,,,,,,,,,,,,,,,,,,,,,,,,,,,,,,,,,,0,3,3,3,1,,,,,,,,,,,,,,,,,,,,,,,,,,,,,,,,,,,,,,,,,
831559,001,2022-11-14_01h30.50.824,Info_measure_main_exp,2022.2.2,Win32,49.58104021,,,,,,,,,,,,,,,,,,masks/mask_005.jpg,,,,,,,,,,,,,,,,,,,,,,,,,,,,,,,,,,,,,,,,,,,,,,,0,4,4,4,1,,,,,,,,,,,,,,,,,,,,,,,,,,,,,,,,,,,,,,,,,
831559,001,2022-11-14_01h30.50.824,Info_measure_main_exp,2022.2.2,Win32,49.58104021,,,,,,,,,,,,,,,,,,,,,,,,,,,,,,6,2.1442,1,,,,,,,,,,,,0,131,5,5,2274,1950,absent_patch/patch0002274.jpg,absent_patch/patch0001950.jpg,,,,,,,,,,,,,,,,,,,0.057291667,0.005208333,1,0,0,response1disk,19,-0.005208333,-0.002604167,1,0,0,center_square,0,18,18,10,1,,,,,,,,,,,,,,,,,,,,,,,
831559,001,2022-11-14_01h30.50.824,Info_measure_main_exp,2022.2.2,Win32,49.58104021,,,,,,,,,,,,,,,,,,masks/mask_005.jpg,,,,,,,,,,,,,,,,,,,,,,,,,,,,,,,,,,,,,,,,,,0,0,0,4,1,,,,,,,,,,,,,,,,,,,,,,,,,,,,,,,,,,,,,,,,,,,,,,
831559,001,2022-11-14_01h30.50.824,Info_measure_main_exp,2022.2.2,Win32,49.58104021,,,,,,,,,,,,,,,,,,masks/mask_004.jpg,,,,,,,,,,,,,,,,,,,,,,,,,,,,,,,,,,,,,,,,,,0,1,1,3,1,,,,,,,,,,,,,,,,,,,,,,,,,,,,,,,,,,,,,,,,,,,,,,
831559,001,2022-11-14_01h30.50.824,Info_measure_main_exp,2022.2.2,Win32,49.58104021,,,,,,,,,,,,,,,,,,masks/mask_003.jpg,,,,,,,,,,,,,,,,,,,,,,,,,,,,,,,,,,,,,,,,,,0,2,2,2,1,,,,,,,,,,,,,,,,,,,,,,,,,,,,,,,,,,,,,,,,,,,,,,
831559,001,2022-11-14_01h30.50.824,Info_measure_main_exp,2022.2.2,Win32,49.58104021,,,,,,,,,,,,,,,,,,masks/mask_002.jpg,,,,,,,,,,,,,,,,,,,,,,,,,,,,,,,,,,,,,,,,,,0,3,3,1,1,,,,,,,,,,,,,,,,,,,,,,,,,,,,,,,,,,,,,,,,,,,,,,
831559,001,2022-11-14_01h30.50.824,Info_measure_main_exp,2022.2.2,Win32,49.58104021,,,,,,,,,,,,,,,,,,masks/mask_001.jpg,,,,,,,,,,,,,,,,,,,,,,,,,,,,,,,,,,,,,,,,,,0,4,4,0,1,,,,,,,,,,,,,,,,,,,,,,,,,,,,,,,,,,,,,,,,,,,,,,
831559,001,2022-11-14_01h30.50.824,Info_measure_main_exp,2022.2.2,Win32,49.58104021,,,,,,,,,,,,,,,,,,masks/mask_001.jpg,,,,,,,,,,,,,,,,,,,,,,,,,,,,,,,,,,,,,,,,,,,,,,,0,0,0,0,1,,,,,,,,,,,,,,,,,,,,,,,,,,,,,,,,,,,,,,,,,
831559,001,2022-11-14_01h30.50.824,Info_measure_main_exp,2022.2.2,Win32,49.58104021,,,,,,,,,,,,,,,,,,masks/mask_005.jpg,,,,,,,,,,,,,,,,,,,,,,,,,,,,,,,,,,,,,,,,,,,,,,,0,1,1,4,1,,,,,,,,,,,,,,,,,,,,,,,,,,,,,,,,,,,,,,,,,
831559,001,2022-11-14_01h30.50.824,Info_measure_main_exp,2022.2.2,Win32,49.58104021,,,,,,,,,,,,,,,,,,masks/mask_004.jpg,,,,,,,,,,,,,,,,,,,,,,,,,,,,,,,,,,,,,,,,,,,,,,,0,2,2,3,1,,,,,,,,,,,,,,,,,,,,,,,,,,,,,,,,,,,,,,,,,
831559,001,2022-11-14_01h30.50.824,Info_measure_main_exp,2022.2.2,Win32,49.58104021,,,,,,,,,,,,,,,,,,masks/mask_003.jpg,,,,,,,,,,,,,,,,,,,,,,,,,,,,,,,,,,,,,,,,,,,,,,,0,3,3,2,1,,,,,,,,,,,,,,,,,,,,,,,,,,,,,,,,,,,,,,,,,
831559,001,2022-11-14_01h30.50.824,Info_measure_main_exp,2022.2.2,Win32,49.58104021,,,,,,,,,,,,,,,,,,masks/mask_002.jpg,,,,,,,,,,,,,,,,,,,,,,,,,,,,,,,,,,,,,,,,,,,,,,,0,4,4,1,1,,,,,,,,,,,,,,,,,,,,,,,,,,,,,,,,,,,,,,,,,
831559,001,2022-11-14_01h30.50.824,Info_measure_main_exp,2022.2.2,Win32,49.58104021,,,,,,,,,,,,,,,,,,,,,,,,,,,,,,2,1.958,1,,,,,,,,,,,,0,131,5,5,2214,2178,absent_patch/patch0002214.jpg,absent_patch/patch0002178.jpg,,,,,,,,,,,,,,,,,,,-0.092447917,-0.0390625,1,0,0,response5disk,20,0.00390625,-0.005208333,1,0,0,center_square,0,19,19,62,1,,,,,,,,,,,,,,,,,,,,,,,
831559,001,2022-11-14_01h30.50.824,Info_measure_main_exp,2022.2.2,Win32,49.58104021,,,,,,,,,,,,,,,,,,masks/mask_004.jpg,,,,,,,,,,,,,,,,,,,,,,,,,,,,,,,,,,,,,,,,,,0,0,0,3,1,,,,,,,,,,,,,,,,,,,,,,,,,,,,,,,,,,,,,,,,,,,,,,
831559,001,2022-11-14_01h30.50.824,Info_measure_main_exp,2022.2.2,Win32,49.58104021,,,,,,,,,,,,,,,,,,masks/mask_003.jpg,,,,,,,,,,,,,,,,,,,,,,,,,,,,,,,,,,,,,,,,,,0,1,1,2,1,,,,,,,,,,,,,,,,,,,,,,,,,,,,,,,,,,,,,,,,,,,,,,
831559,001,2022-11-14_01h30.50.824,Info_measure_main_exp,2022.2.2,Win32,49.58104021,,,,,,,,,,,,,,,,,,masks/mask_001.jpg,,,,,,,,,,,,,,,,,,,,,,,,,,,,,,,,,,,,,,,,,,0,2,2,0,1,,,,,,,,,,,,,,,,,,,,,,,,,,,,,,,,,,,,,,,,,,,,,,
831559,001,2022-11-14_01h30.50.824,Info_measure_main_exp,2022.2.2,Win32,49.58104021,,,,,,,,,,,,,,,,,,masks/mask_005.jpg,,,,,,,,,,,,,,,,,,,,,,,,,,,,,,,,,,,,,,,,,,0,3,3,4,1,,,,,,,,,,,,,,,,,,,,,,,,,,,,,,,,,,,,,,,,,,,,,,
831559,001,2022-11-14_01h30.50.824,Info_measure_main_exp,2022.2.2,Win32,49.58104021,,,,,,,,,,,,,,,,,,masks/mask_002.jpg,,,,,,,,,,,,,,,,,,,,,,,,,,,,,,,,,,,,,,,,,,0,4,4,1,1,,,,,,,,,,,,,,,,,,,,,,,,,,,,,,,,,,,,,,,,,,,,,,
831559,001,2022-11-14_01h30.50.824,Info_measure_main_exp,2022.2.2,Win32,49.58104021,,,,,,,,,,,,,,,,,,masks/mask_004.jpg,,,,,,,,,,,,,,,,,,,,,,,,,,,,,,,,,,,,,,,,,,,,,,,0,0,0,3,1,,,,,,,,,,,,,,,,,,,,,,,,,,,,,,,,,,,,,,,,,
831559,001,2022-11-14_01h30.50.824,Info_measure_main_exp,2022.2.2,Win32,49.58104021,,,,,,,,,,,,,,,,,,masks/mask_005.jpg,,,,,,,,,,,,,,,,,,,,,,,,,,,,,,,,,,,,,,,,,,,,,,,0,1,1,4,1,,,,,,,,,,,,,,,,,,,,,,,,,,,,,,,,,,,,,,,,,
831559,001,2022-11-14_01h30.50.824,Info_measure_main_exp,2022.2.2,Win32,49.58104021,,,,,,,,,,,,,,,,,,masks/mask_002.jpg,,,,,,,,,,,,,,,,,,,,,,,,,,,,,,,,,,,,,,,,,,,,,,,0,2,2,1,1,,,,,,,,,,,,,,,,,,,,,,,,,,,,,,,,,,,,,,,,,
831559,001,2022-11-14_01h30.50.824,Info_measure_main_exp,2022.2.2,Win32,49.58104021,,,,,,,,,,,,,,,,,,masks/mask_003.jpg,,,,,,,,,,,,,,,,,,,,,,,,,,,,,,,,,,,,,,,,,,,,,,,0,3,3,2,1,,,,,,,,,,,,,,,,,,,,,,,,,,,,,,,,,,,,,,,,,
831559,001,2022-11-14_01h30.50.824,Info_measure_main_exp,2022.2.2,Win32,49.58104021,,,,,,,,,,,,,,,,,,masks/mask_001.jpg,,,,,,,,,,,,,,,,,,,,,,,,,,,,,,,,,,,,,,,,,,,,,,,0,4,4,0,1,,,,,,,,,,,,,,,,,,,,,,,,,,,,,,,,,,,,,,,,,
831559,001,2022-11-14_01h30.50.824,Info_measure_main_exp,2022.2.2,Win32,49.58104021,,,,,,,,,,,,,,,,,,,,,,,,,,,,,,3,2.8708,1,,,,,,,,,,,,0,131,5,5,1974,2298,absent_patch/patch0001974.jpg,absent_patch/patch0002298.jpg,,,,,,,,,,,,,,,,,,,-0.010416667,-0.05859375,1,0,0,response5disk,21,0.006510417,0.006510417,1,0,0,center_square,0,20,20,6,1,,,,,,,,,,,,,,,,,,,,,,,
831559,001,2022-11-14_01h30.50.824,Info_measure_main_exp,2022.2.2,Win32,49.58104021,,,,,,,,,,,,,,,,,,masks/mask_003.jpg,,,,,,,,,,,,,,,,,,,,,,,,,,,,,,,,,,,,,,,,,,0,0,0,2,1,,,,,,,,,,,,,,,,,,,,,,,,,,,,,,,,,,,,,,,,,,,,,,
831559,001,2022-11-14_01h30.50.824,Info_measure_main_exp,2022.2.2,Win32,49.58104021,,,,,,,,,,,,,,,,,,masks/mask_002.jpg,,,,,,,,,,,,,,,,,,,,,,,,,,,,,,,,,,,,,,,,,,0,1,1,1,1,,,,,,,,,,,,,,,,,,,,,,,,,,,,,,,,,,,,,,,,,,,,,,
831559,001,2022-11-14_01h30.50.824,Info_measure_main_exp,2022.2.2,Win32,49.58104021,,,,,,,,,,,,,,,,,,masks/mask_004.jpg,,,,,,,,,,,,,,,,,,,,,,,,,,,,,,,,,,,,,,,,,,0,2,2,3,1,,,,,,,,,,,,,,,,,,,,,,,,,,,,,,,,,,,,,,,,,,,,,,
831559,001,2022-11-14_01h30.50.824,Info_measure_main_exp,2022.2.2,Win32,49.58104021,,,,,,,,,,,,,,,,,,masks/mask_001.jpg,,,,,,,,,,,,,,,,,,,,,,,,,,,,,,,,,,,,,,,,,,0,3,3,0,1,,,,,,,,,,,,,,,,,,,,,,,,,,,,,,,,,,,,,,,,,,,,,,
831559,001,2022-11-14_01h30.50.824,Info_measure_main_exp,2022.2.2,Win32,49.58104021,,,,,,,,,,,,,,,,,,masks/mask_005.jpg,,,,,,,,,,,,,,,,,,,,,,,,,,,,,,,,,,,,,,,,,,0,4,4,4,1,,,,,,,,,,,,,,,,,,,,,,,,,,,,,,,,,,,,,,,,,,,,,,
831559,001,2022-11-14_01h30.50.824,Info_measure_main_exp,2022.2.2,Win32,49.58104021,,,,,,,,,,,,,,,,,,masks/mask_005.jpg,,,,,,,,,,,,,,,,,,,,,,,,,,,,,,,,,,,,,,,,,,,,,,,0,0,0,4,1,,,,,,,,,,,,,,,,,,,,,,,,,,,,,,,,,,,,,,,,,
831559,001,2022-11-14_01h30.50.824,Info_measure_main_exp,2022.2.2,Win32,49.58104021,,,,,,,,,,,,,,,,,,masks/mask_003.jpg,,,,,,,,,,,,,,,,,,,,,,,,,,,,,,,,,,,,,,,,,,,,,,,0,1,1,2,1,,,,,,,,,,,,,,,,,,,,,,,,,,,,,,,,,,,,,,,,,
831559,001,2022-11-14_01h30.50.824,Info_measure_main_exp,2022.2.2,Win32,49.58104021,,,,,,,,,,,,,,,,,,masks/mask_004.jpg,,,,,,,,,,,,,,,,,,,,,,,,,,,,,,,,,,,,,,,,,,,,,,,0,2,2,3,1,,,,,,,,,,,,,,,,,,,,,,,,,,,,,,,,,,,,,,,,,
831559,001,2022-11-14_01h30.50.824,Info_measure_main_exp,2022.2.2,Win32,49.58104021,,,,,,,,,,,,,,,,,,masks/mask_001.jpg,,,,,,,,,,,,,,,,,,,,,,,,,,,,,,,,,,,,,,,,,,,,,,,0,3,3,0,1,,,,,,,,,,,,,,,,,,,,,,,,,,,,,,,,,,,,,,,,,
831559,001,2022-11-14_01h30.50.824,Info_measure_main_exp,2022.2.2,Win32,49.58104021,,,,,,,,,,,,,,,,,,masks/mask_002.jpg,,,,,,,,,,,,,,,,,,,,,,,,,,,,,,,,,,,,,,,,,,,,,,,0,4,4,1,1,,,,,,,,,,,,,,,,,,,,,,,,,,,,,,,,,,,,,,,,,
831559,001,2022-11-14_01h30.50.824,Info_measure_main_exp,2022.2.2,Win32,49.58104021,,,,,,,,,,,,,,,,,,,,,,,,,,,,,,1,1.6067,1,,,,,,,,,,,,1,131,5,5,1,1,present_patch/cong_131_5_a.jpg,present_patch/cong_131_5_a.jpg,,,,,,,,,,,,,,,,,,,-0.06640625,0.033854167,1,0,0,response7disk,22,0.006510417,0.005208333,1,0,0,center_square,0,21,21,30,1,,,,,,,,,,,,,,,,,,,,,,,
831559,001,2022-11-14_01h30.50.824,Info_measure_main_exp,2022.2.2,Win32,49.58104021,,,,,,,,,,,,,,,,,,masks/mask_002.jpg,,,,,,,,,,,,,,,,,,,,,,,,,,,,,,,,,,,,,,,,,,0,0,0,1,1,,,,,,,,,,,,,,,,,,,,,,,,,,,,,,,,,,,,,,,,,,,,,,
831559,001,2022-11-14_01h30.50.824,Info_measure_main_exp,2022.2.2,Win32,49.58104021,,,,,,,,,,,,,,,,,,masks/mask_004.jpg,,,,,,,,,,,,,,,,,,,,,,,,,,,,,,,,,,,,,,,,,,0,1,1,3,1,,,,,,,,,,,,,,,,,,,,,,,,,,,,,,,,,,,,,,,,,,,,,,
831559,001,2022-11-14_01h30.50.824,Info_measure_main_exp,2022.2.2,Win32,49.58104021,,,,,,,,,,,,,,,,,,masks/mask_003.jpg,,,,,,,,,,,,,,,,,,,,,,,,,,,,,,,,,,,,,,,,,,0,2,2,2,1,,,,,,,,,,,,,,,,,,,,,,,,,,,,,,,,,,,,,,,,,,,,,,
831559,001,2022-11-14_01h30.50.824,Info_measure_main_exp,2022.2.2,Win32,49.58104021,,,,,,,,,,,,,,,,,,masks/mask_005.jpg,,,,,,,,,,,,,,,,,,,,,,,,,,,,,,,,,,,,,,,,,,0,3,3,4,1,,,,,,,,,,,,,,,,,,,,,,,,,,,,,,,,,,,,,,,,,,,,,,
831559,001,2022-11-14_01h30.50.824,Info_measure_main_exp,2022.2.2,Win32,49.58104021,,,,,,,,,,,,,,,,,,masks/mask_001.jpg,,,,,,,,,,,,,,,,,,,,,,,,,,,,,,,,,,,,,,,,,,0,4,4,0,1,,,,,,,,,,,,,,,,,,,,,,,,,,,,,,,,,,,,,,,,,,,,,,
831559,001,2022-11-14_01h30.50.824,Info_measure_main_exp,2022.2.2,Win32,49.58104021,,,,,,,,,,,,,,,,,,masks/mask_005.jpg,,,,,,,,,,,,,,,,,,,,,,,,,,,,,,,,,,,,,,,,,,,,,,,0,0,0,4,1,,,,,,,,,,,,,,,,,,,,,,,,,,,,,,,,,,,,,,,,,
831559,001,2022-11-14_01h30.50.824,Info_measure_main_exp,2022.2.2,Win32,49.58104021,,,,,,,,,,,,,,,,,,masks/mask_003.jpg,,,,,,,,,,,,,,,,,,,,,,,,,,,,,,,,,,,,,,,,,,,,,,,0,1,1,2,1,,,,,,,,,,,,,,,,,,,,,,,,,,,,,,,,,,,,,,,,,
831559,001,2022-11-14_01h30.50.824,Info_measure_main_exp,2022.2.2,Win32,49.58104021,,,,,,,,,,,,,,,,,,masks/mask_004.jpg,,,,,,,,,,,,,,,,,,,,,,,,,,,,,,,,,,,,,,,,,,,,,,,0,2,2,3,1,,,,,,,,,,,,,,,,,,,,,,,,,,,,,,,,,,,,,,,,,
831559,001,2022-11-14_01h30.50.824,Info_measure_main_exp,2022.2.2,Win32,49.58104021,,,,,,,,,,,,,,,,,,masks/mask_002.jpg,,,,,,,,,,,,,,,,,,,,,,,,,,,,,,,,,,,,,,,,,,,,,,,0,3,3,1,1,,,,,,,,,,,,,,,,,,,,,,,,,,,,,,,,,,,,,,,,,
831559,001,2022-11-14_01h30.50.824,Info_measure_main_exp,2022.2.2,Win32,49.58104021,,,,,,,,,,,,,,,,,,masks/mask_001.jpg,,,,,,,,,,,,,,,,,,,,,,,,,,,,,,,,,,,,,,,,,,,,,,,0,4,4,0,1,,,,,,,,,,,,,,,,,,,,,,,,,,,,,,,,,,,,,,,,,
831559,001,2022-11-14_01h30.50.824,Info_measure_main_exp,2022.2.2,Win32,49.58104021,,,,,,,,,,,,,,,,,,,,,,,,,,,,,,4,2.117,1,,,,,,,,,,,,1,131,5,5,2250,1,absent_patch/patch0002250.jpg,present_patch/cong_131_5_a.jpg,,,,,,,,,,,,,,,,,,,0.018229167,-0.071614583,1,0,0,response3disk,23,-0.010416667,0.0078125,1,0,0,center_square,0,22,22,5,1,,,,,,,,,,,,,,,,,,,,,,,
831559,001,2022-11-14_01h30.50.824,Info_measure_main_exp,2022.2.2,Win32,49.58104021,,,,,,,,,,,,,,,,,,masks/mask_003.jpg,,,,,,,,,,,,,,,,,,,,,,,,,,,,,,,,,,,,,,,,,,0,0,0,2,1,,,,,,,,,,,,,,,,,,,,,,,,,,,,,,,,,,,,,,,,,,,,,,
831559,001,2022-11-14_01h30.50.824,Info_measure_main_exp,2022.2.2,Win32,49.58104021,,,,,,,,,,,,,,,,,,masks/mask_005.jpg,,,,,,,,,,,,,,,,,,,,,,,,,,,,,,,,,,,,,,,,,,0,1,1,4,1,,,,,,,,,,,,,,,,,,,,,,,,,,,,,,,,,,,,,,,,,,,,,,
831559,001,2022-11-14_01h30.50.824,Info_measure_main_exp,2022.2.2,Win32,49.58104021,,,,,,,,,,,,,,,,,,masks/mask_002.jpg,,,,,,,,,,,,,,,,,,,,,,,,,,,,,,,,,,,,,,,,,,0,2,2,1,1,,,,,,,,,,,,,,,,,,,,,,,,,,,,,,,,,,,,,,,,,,,,,,
831559,001,2022-11-14_01h30.50.824,Info_measure_main_exp,2022.2.2,Win32,49.58104021,,,,,,,,,,,,,,,,,,masks/mask_001.jpg,,,,,,,,,,,,,,,,,,,,,,,,,,,,,,,,,,,,,,,,,,0,3,3,0,1,,,,,,,,,,,,,,,,,,,,,,,,,,,,,,,,,,,,,,,,,,,,,,
831559,001,2022-11-14_01h30.50.824,Info_measure_main_exp,2022.2.2,Win32,49.58104021,,,,,,,,,,,,,,,,,,masks/mask_004.jpg,,,,,,,,,,,,,,,,,,,,,,,,,,,,,,,,,,,,,,,,,,0,4,4,3,1,,,,,,,,,,,,,,,,,,,,,,,,,,,,,,,,,,,,,,,,,,,,,,
831559,001,2022-11-14_01h30.50.824,Info_measure_main_exp,2022.2.2,Win32,49.58104021,,,,,,,,,,,,,,,,,,masks/mask_002.jpg,,,,,,,,,,,,,,,,,,,,,,,,,,,,,,,,,,,,,,,,,,,,,,,0,0,0,1,1,,,,,,,,,,,,,,,,,,,,,,,,,,,,,,,,,,,,,,,,,
831559,001,2022-11-14_01h30.50.824,Info_measure_main_exp,2022.2.2,Win32,49.58104021,,,,,,,,,,,,,,,,,,masks/mask_001.jpg,,,,,,,,,,,,,,,,,,,,,,,,,,,,,,,,,,,,,,,,,,,,,,,0,1,1,0,1,,,,,,,,,,,,,,,,,,,,,,,,,,,,,,,,,,,,,,,,,
831559,001,2022-11-14_01h30.50.824,Info_measure_main_exp,2022.2.2,Win32,49.58104021,,,,,,,,,,,,,,,,,,masks/mask_003.jpg,,,,,,,,,,,,,,,,,,,,,,,,,,,,,,,,,,,,,,,,,,,,,,,0,2,2,2,1,,,,,,,,,,,,,,,,,,,,,,,,,,,,,,,,,,,,,,,,,
831559,001,2022-11-14_01h30.50.824,Info_measure_main_exp,2022.2.2,Win32,49.58104021,,,,,,,,,,,,,,,,,,masks/mask_004.jpg,,,,,,,,,,,,,,,,,,,,,,,,,,,,,,,,,,,,,,,,,,,,,,,0,3,3,3,1,,,,,,,,,,,,,,,,,,,,,,,,,,,,,,,,,,,,,,,,,
831559,001,2022-11-14_01h30.50.824,Info_measure_main_exp,2022.2.2,Win32,49.58104021,,,,,,,,,,,,,,,,,,masks/mask_005.jpg,,,,,,,,,,,,,,,,,,,,,,,,,,,,,,,,,,,,,,,,,,,,,,,0,4,4,4,1,,,,,,,,,,,,,,,,,,,,,,,,,,,,,,,,,,,,,,,,,
831559,001,2022-11-14_01h30.50.824,Info_measure_main_exp,2022.2.2,Win32,49.58104021,,,,,,,,,,,,,,,,,,,,,,,,,,,,,,5,1.4758,1,,,,,,,,,,,,0,131,5,5,2274,2238,absent_patch/patch0002274.jpg,absent_patch/patch0002238.jpg,,,,,,,,,,,,,,,,,,,0.08203125,-0.0234375,1,0,0,response3disk,24,0.006510417,0.001302083,1,0,0,center_square,0,23,23,91,1,,,,,,,,,,,,,,,,,,,,,,,
831559,001,2022-11-14_01h30.50.824,Info_measure_main_exp,2022.2.2,Win32,49.58104021,,,,,,,,,,,,,,,,,,masks/mask_002.jpg,,,,,,,,,,,,,,,,,,,,,,,,,,,,,,,,,,,,,,,,,,0,0,0,1,1,,,,,,,,,,,,,,,,,,,,,,,,,,,,,,,,,,,,,,,,,,,,,,
831559,001,2022-11-14_01h30.50.824,Info_measure_main_exp,2022.2.2,Win32,49.58104021,,,,,,,,,,,,,,,,,,masks/mask_005.jpg,,,,,,,,,,,,,,,,,,,,,,,,,,,,,,,,,,,,,,,,,,0,1,1,4,1,,,,,,,,,,,,,,,,,,,,,,,,,,,,,,,,,,,,,,,,,,,,,,
831559,001,2022-11-14_01h30.50.824,Info_measure_main_exp,2022.2.2,Win32,49.58104021,,,,,,,,,,,,,,,,,,masks/mask_003.jpg,,,,,,,,,,,,,,,,,,,,,,,,,,,,,,,,,,,,,,,,,,0,2,2,2,1,,,,,,,,,,,,,,,,,,,,,,,,,,,,,,,,,,,,,,,,,,,,,,
831559,001,2022-11-14_01h30.50.824,Info_measure_main_exp,2022.2.2,Win32,49.58104021,,,,,,,,,,,,,,,,,,masks/mask_001.jpg,,,,,,,,,,,,,,,,,,,,,,,,,,,,,,,,,,,,,,,,,,0,3,3,0,1,,,,,,,,,,,,,,,,,,,,,,,,,,,,,,,,,,,,,,,,,,,,,,
831559,001,2022-11-14_01h30.50.824,Info_measure_main_exp,2022.2.2,Win32,49.58104021,,,,,,,,,,,,,,,,,,masks/mask_004.jpg,,,,,,,,,,,,,,,,,,,,,,,,,,,,,,,,,,,,,,,,,,0,4,4,3,1,,,,,,,,,,,,,,,,,,,,,,,,,,,,,,,,,,,,,,,,,,,,,,
831559,001,2022-11-14_01h30.50.824,Info_measure_main_exp,2022.2.2,Win32,49.58104021,,,,,,,,,,,,,,,,,,masks/mask_001.jpg,,,,,,,,,,,,,,,,,,,,,,,,,,,,,,,,,,,,,,,,,,,,,,,0,0,0,0,1,,,,,,,,,,,,,,,,,,,,,,,,,,,,,,,,,,,,,,,,,
831559,001,2022-11-14_01h30.50.824,Info_measure_main_exp,2022.2.2,Win32,49.58104021,,,,,,,,,,,,,,,,,,masks/mask_004.jpg,,,,,,,,,,,,,,,,,,,,,,,,,,,,,,,,,,,,,,,,,,,,,,,0,1,1,3,1,,,,,,,,,,,,,,,,,,,,,,,,,,,,,,,,,,,,,,,,,
831559,001,2022-11-14_01h30.50.824,Info_measure_main_exp,2022.2.2,Win32,49.58104021,,,,,,,,,,,,,,,,,,masks/mask_003.jpg,,,,,,,,,,,,,,,,,,,,,,,,,,,,,,,,,,,,,,,,,,,,,,,0,2,2,2,1,,,,,,,,,,,,,,,,,,,,,,,,,,,,,,,,,,,,,,,,,
831559,001,2022-11-14_01h30.50.824,Info_measure_main_exp,2022.2.2,Win32,49.58104021,,,,,,,,,,,,,,,,,,masks/mask_005.jpg,,,,,,,,,,,,,,,,,,,,,,,,,,,,,,,,,,,,,,,,,,,,,,,0,3,3,4,1,,,,,,,,,,,,,,,,,,,,,,,,,,,,,,,,,,,,,,,,,
831559,001,2022-11-14_01h30.50.824,Info_measure_main_exp,2022.2.2,Win32,49.58104021,,,,,,,,,,,,,,,,,,masks/mask_002.jpg,,,,,,,,,,,,,,,,,,,,,,,,,,,,,,,,,,,,,,,,,,,,,,,0,4,4,1,1,,,,,,,,,,,,,,,,,,,,,,,,,,,,,,,,,,,,,,,,,
831559,001,2022-11-14_01h30.50.824,Info_measure_main_exp,2022.2.2,Win32,49.58104021,,,,,,,,,,,,,,,,,,,,,,,,,,,,,,5,1.7388,1,,,,,,,,,,,,0,131,5,5,2082,2166,absent_patch/patch0002082.jpg,absent_patch/patch0002166.jpg,,,,,,,,,,,,,,,,,,,0.04296875,-0.013020833,1,0,0,response3disk,25,-0.001302083,0.001302083,1,0,0,center_square,0,24,24,43,1,,,,,,,,,,,,,,,,,,,,,,,
831559,001,2022-11-14_01h30.50.824,Info_measure_main_exp,2022.2.2,Win32,49.58104021,,,,,,,,,,,,,,,,,,masks/mask_004.jpg,,,,,,,,,,,,,,,,,,,,,,,,,,,,,,,,,,,,,,,,,,0,0,0,3,1,,,,,,,,,,,,,,,,,,,,,,,,,,,,,,,,,,,,,,,,,,,,,,
831559,001,2022-11-14_01h30.50.824,Info_measure_main_exp,2022.2.2,Win32,49.58104021,,,,,,,,,,,,,,,,,,masks/mask_002.jpg,,,,,,,,,,,,,,,,,,,,,,,,,,,,,,,,,,,,,,,,,,0,1,1,1,1,,,,,,,,,,,,,,,,,,,,,,,,,,,,,,,,,,,,,,,,,,,,,,
831559,001,2022-11-14_01h30.50.824,Info_measure_main_exp,2022.2.2,Win32,49.58104021,,,,,,,,,,,,,,,,,,masks/mask_001.jpg,,,,,,,,,,,,,,,,,,,,,,,,,,,,,,,,,,,,,,,,,,0,2,2,0,1,,,,,,,,,,,,,,,,,,,,,,,,,,,,,,,,,,,,,,,,,,,,,,
831559,001,2022-11-14_01h30.50.824,Info_measure_main_exp,2022.2.2,Win32,49.58104021,,,,,,,,,,,,,,,,,,masks/mask_003.jpg,,,,,,,,,,,,,,,,,,,,,,,,,,,,,,,,,,,,,,,,,,0,3,3,2,1,,,,,,,,,,,,,,,,,,,,,,,,,,,,,,,,,,,,,,,,,,,,,,
831559,001,2022-11-14_01h30.50.824,Info_measure_main_exp,2022.2.2,Win32,49.58104021,,,,,,,,,,,,,,,,,,masks/mask_005.jpg,,,,,,,,,,,,,,,,,,,,,,,,,,,,,,,,,,,,,,,,,,0,4,4,4,1,,,,,,,,,,,,,,,,,,,,,,,,,,,,,,,,,,,,,,,,,,,,,,
831559,001,2022-11-14_01h30.50.824,Info_measure_main_exp,2022.2.2,Win32,49.58104021,,,,,,,,,,,,,,,,,,masks/mask_003.jpg,,,,,,,,,,,,,,,,,,,,,,,,,,,,,,,,,,,,,,,,,,,,,,,0,0,0,2,1,,,,,,,,,,,,,,,,,,,,,,,,,,,,,,,,,,,,,,,,,
831559,001,2022-11-14_01h30.50.824,Info_measure_main_exp,2022.2.2,Win32,49.58104021,,,,,,,,,,,,,,,,,,masks/mask_005.jpg,,,,,,,,,,,,,,,,,,,,,,,,,,,,,,,,,,,,,,,,,,,,,,,0,1,1,4,1,,,,,,,,,,,,,,,,,,,,,,,,,,,,,,,,,,,,,,,,,
831559,001,2022-11-14_01h30.50.824,Info_measure_main_exp,2022.2.2,Win32,49.58104021,,,,,,,,,,,,,,,,,,masks/mask_004.jpg,,,,,,,,,,,,,,,,,,,,,,,,,,,,,,,,,,,,,,,,,,,,,,,0,2,2,3,1,,,,,,,,,,,,,,,,,,,,,,,,,,,,,,,,,,,,,,,,,
831559,001,2022-11-14_01h30.50.824,Info_measure_main_exp,2022.2.2,Win32,49.58104021,,,,,,,,,,,,,,,,,,masks/mask_001.jpg,,,,,,,,,,,,,,,,,,,,,,,,,,,,,,,,,,,,,,,,,,,,,,,0,3,3,0,1,,,,,,,,,,,,,,,,,,,,,,,,,,,,,,,,,,,,,,,,,
831559,001,2022-11-14_01h30.50.824,Info_measure_main_exp,2022.2.2,Win32,49.58104021,,,,,,,,,,,,,,,,,,masks/mask_002.jpg,,,,,,,,,,,,,,,,,,,,,,,,,,,,,,,,,,,,,,,,,,,,,,,0,4,4,1,1,,,,,,,,,,,,,,,,,,,,,,,,,,,,,,,,,,,,,,,,,
831559,001,2022-11-14_01h30.50.824,Info_measure_main_exp,2022.2.2,Win32,49.58104021,,,,,,,,,,,,,,,,,,,,,,,,,,,,,,1,1.5867,1,,,,,,,,,,,,0,131,5,5,2238,2238,absent_patch/patch0002238.jpg,absent_patch/patch0002238.jpg,,,,,,,,,,,,,,,,,,,-0.075520833,0.049479167,1,0,0,response7disk,26,0,-0.002604167,1,0,0,center_square,0,25,25,58,1,,,,,,,,,,,,,,,,,,,,,,,
831559,001,2022-11-14_01h30.50.824,Info_measure_main_exp,2022.2.2,Win32,49.58104021,,,,,,,,,,,,,,,,,,masks/mask_002.jpg,,,,,,,,,,,,,,,,,,,,,,,,,,,,,,,,,,,,,,,,,,0,0,0,1,1,,,,,,,,,,,,,,,,,,,,,,,,,,,,,,,,,,,,,,,,,,,,,,
831559,001,2022-11-14_01h30.50.824,Info_measure_main_exp,2022.2.2,Win32,49.58104021,,,,,,,,,,,,,,,,,,masks/mask_003.jpg,,,,,,,,,,,,,,,,,,,,,,,,,,,,,,,,,,,,,,,,,,0,1,1,2,1,,,,,,,,,,,,,,,,,,,,,,,,,,,,,,,,,,,,,,,,,,,,,,
831559,001,2022-11-14_01h30.50.824,Info_measure_main_exp,2022.2.2,Win32,49.58104021,,,,,,,,,,,,,,,,,,masks/mask_004.jpg,,,,,,,,,,,,,,,,,,,,,,,,,,,,,,,,,,,,,,,,,,0,2,2,3,1,,,,,,,,,,,,,,,,,,,,,,,,,,,,,,,,,,,,,,,,,,,,,,
831559,001,2022-11-14_01h30.50.824,Info_measure_main_exp,2022.2.2,Win32,49.58104021,,,,,,,,,,,,,,,,,,masks/mask_001.jpg,,,,,,,,,,,,,,,,,,,,,,,,,,,,,,,,,,,,,,,,,,0,3,3,0,1,,,,,,,,,,,,,,,,,,,,,,,,,,,,,,,,,,,,,,,,,,,,,,
831559,001,2022-11-14_01h30.50.824,Info_measure_main_exp,2022.2.2,Win32,49.58104021,,,,,,,,,,,,,,,,,,masks/mask_005.jpg,,,,,,,,,,,,,,,,,,,,,,,,,,,,,,,,,,,,,,,,,,0,4,4,4,1,,,,,,,,,,,,,,,,,,,,,,,,,,,,,,,,,,,,,,,,,,,,,,
831559,001,2022-11-14_01h30.50.824,Info_measure_main_exp,2022.2.2,Win32,49.58104021,,,,,,,,,,,,,,,,,,masks/mask_002.jpg,,,,,,,,,,,,,,,,,,,,,,,,,,,,,,,,,,,,,,,,,,,,,,,0,0,0,1,1,,,,,,,,,,,,,,,,,,,,,,,,,,,,,,,,,,,,,,,,,
831559,001,2022-11-14_01h30.50.824,Info_measure_main_exp,2022.2.2,Win32,49.58104021,,,,,,,,,,,,,,,,,,masks/mask_005.jpg,,,,,,,,,,,,,,,,,,,,,,,,,,,,,,,,,,,,,,,,,,,,,,,0,1,1,4,1,,,,,,,,,,,,,,,,,,,,,,,,,,,,,,,,,,,,,,,,,
831559,001,2022-11-14_01h30.50.824,Info_measure_main_exp,2022.2.2,Win32,49.58104021,,,,,,,,,,,,,,,,,,masks/mask_003.jpg,,,,,,,,,,,,,,,,,,,,,,,,,,,,,,,,,,,,,,,,,,,,,,,0,2,2,2,1,,,,,,,,,,,,,,,,,,,,,,,,,,,,,,,,,,,,,,,,,
831559,001,2022-11-14_01h30.50.824,Info_measure_main_exp,2022.2.2,Win32,49.58104021,,,,,,,,,,,,,,,,,,masks/mask_004.jpg,,,,,,,,,,,,,,,,,,,,,,,,,,,,,,,,,,,,,,,,,,,,,,,0,3,3,3,1,,,,,,,,,,,,,,,,,,,,,,,,,,,,,,,,,,,,,,,,,
831559,001,2022-11-14_01h30.50.824,Info_measure_main_exp,2022.2.2,Win32,49.58104021,,,,,,,,,,,,,,,,,,masks/mask_001.jpg,,,,,,,,,,,,,,,,,,,,,,,,,,,,,,,,,,,,,,,,,,,,,,,0,4,4,0,1,,,,,,,,,,,,,,,,,,,,,,,,,,,,,,,,,,,,,,,,,
831559,001,2022-11-14_01h30.50.824,Info_measure_main_exp,2022.2.2,Win32,49.58104021,,,,,,,,,,,,,,,,,,,,,,,,,,,,,,4,3.0028,1,,,,,,,,,,,,0,131,5,5,2298,2214,absent_patch/patch0002298.jpg,absent_patch/patch0002214.jpg,,,,,,,,,,,,,,,,,,,0.016927083,-0.075520833,1,0,0,response3disk,27,0.005208333,0,1,0,0,center_square,0,26,26,99,1,,,,,,,,,,,,,,,,,,,,,,,
831559,001,2022-11-14_01h30.50.824,Info_measure_main_exp,2022.2.2,Win32,49.58104021,,,,,,,,,,,,,,,,,,masks/mask_003.jpg,,,,,,,,,,,,,,,,,,,,,,,,,,,,,,,,,,,,,,,,,,0,0,0,2,1,,,,,,,,,,,,,,,,,,,,,,,,,,,,,,,,,,,,,,,,,,,,,,
831559,001,2022-11-14_01h30.50.824,Info_measure_main_exp,2022.2.2,Win32,49.58104021,,,,,,,,,,,,,,,,,,masks/mask_005.jpg,,,,,,,,,,,,,,,,,,,,,,,,,,,,,,,,,,,,,,,,,,0,1,1,4,1,,,,,,,,,,,,,,,,,,,,,,,,,,,,,,,,,,,,,,,,,,,,,,
831559,001,2022-11-14_01h30.50.824,Info_measure_main_exp,2022.2.2,Win32,49.58104021,,,,,,,,,,,,,,,,,,masks/mask_004.jpg,,,,,,,,,,,,,,,,,,,,,,,,,,,,,,,,,,,,,,,,,,0,2,2,3,1,,,,,,,,,,,,,,,,,,,,,,,,,,,,,,,,,,,,,,,,,,,,,,
831559,001,2022-11-14_01h30.50.824,Info_measure_main_exp,2022.2.2,Win32,49.58104021,,,,,,,,,,,,,,,,,,masks/mask_002.jpg,,,,,,,,,,,,,,,,,,,,,,,,,,,,,,,,,,,,,,,,,,0,3,3,1,1,,,,,,,,,,,,,,,,,,,,,,,,,,,,,,,,,,,,,,,,,,,,,,
831559,001,2022-11-14_01h30.50.824,Info_measure_main_exp,2022.2.2,Win32,49.58104021,,,,,,,,,,,,,,,,,,masks/mask_001.jpg,,,,,,,,,,,,,,,,,,,,,,,,,,,,,,,,,,,,,,,,,,0,4,4,0,1,,,,,,,,,,,,,,,,,,,,,,,,,,,,,,,,,,,,,,,,,,,,,,
831559,001,2022-11-14_01h30.50.824,Info_measure_main_exp,2022.2.2,Win32,49.58104021,,,,,,,,,,,,,,,,,,masks/mask_002.jpg,,,,,,,,,,,,,,,,,,,,,,,,,,,,,,,,,,,,,,,,,,,,,,,0,0,0,1,1,,,,,,,,,,,,,,,,,,,,,,,,,,,,,,,,,,,,,,,,,
831559,001,2022-11-14_01h30.50.824,Info_measure_main_exp,2022.2.2,Win32,49.58104021,,,,,,,,,,,,,,,,,,masks/mask_004.jpg,,,,,,,,,,,,,,,,,,,,,,,,,,,,,,,,,,,,,,,,,,,,,,,0,1,1,3,1,,,,,,,,,,,,,,,,,,,,,,,,,,,,,,,,,,,,,,,,,
831559,001,2022-11-14_01h30.50.824,Info_measure_main_exp,2022.2.2,Win32,49.58104021,,,,,,,,,,,,,,,,,,masks/mask_005.jpg,,,,,,,,,,,,,,,,,,,,,,,,,,,,,,,,,,,,,,,,,,,,,,,0,2,2,4,1,,,,,,,,,,,,,,,,,,,,,,,,,,,,,,,,,,,,,,,,,
831559,001,2022-11-14_01h30.50.824,Info_measure_main_exp,2022.2.2,Win32,49.58104021,,,,,,,,,,,,,,,,,,masks/mask_001.jpg,,,,,,,,,,,,,,,,,,,,,,,,,,,,,,,,,,,,,,,,,,,,,,,0,3,3,0,1,,,,,,,,,,,,,,,,,,,,,,,,,,,,,,,,,,,,,,,,,
831559,001,2022-11-14_01h30.50.824,Info_measure_main_exp,2022.2.2,Win32,49.58104021,,,,,,,,,,,,,,,,,,masks/mask_003.jpg,,,,,,,,,,,,,,,,,,,,,,,,,,,,,,,,,,,,,,,,,,,,,,,0,4,4,2,1,,,,,,,,,,,,,,,,,,,,,,,,,,,,,,,,,,,,,,,,,
831559,001,2022-11-14_01h30.50.824,Info_measure_main_exp,2022.2.2,Win32,49.58104021,,,,,,,,,,,,,,,,,,,,,,,,,,,,,,4,1.9646,1,,,,,,,,,,,,0,131,5,5,2274,2154,absent_patch/patch0002274.jpg,absent_patch/patch0002154.jpg,,,,,,,,,,,,,,,,,,,0.022135417,-0.049479167,1,0,0,response3disk,28,0.001302083,0.005208333,1,0,0,center_square,0,27,27,23,1,,,,,,,,,,,,,,,,,,,,,,,
831559,001,2022-11-14_01h30.50.824,Info_measure_main_exp,2022.2.2,Win32,49.58104021,,,,,,,,,,,,,,,,,,masks/mask_004.jpg,,,,,,,,,,,,,,,,,,,,,,,,,,,,,,,,,,,,,,,,,,0,0,0,3,1,,,,,,,,,,,,,,,,,,,,,,,,,,,,,,,,,,,,,,,,,,,,,,
831559,001,2022-11-14_01h30.50.824,Info_measure_main_exp,2022.2.2,Win32,49.58104021,,,,,,,,,,,,,,,,,,masks/mask_002.jpg,,,,,,,,,,,,,,,,,,,,,,,,,,,,,,,,,,,,,,,,,,0,1,1,1,1,,,,,,,,,,,,,,,,,,,,,,,,,,,,,,,,,,,,,,,,,,,,,,
831559,001,2022-11-14_01h30.50.824,Info_measure_main_exp,2022.2.2,Win32,49.58104021,,,,,,,,,,,,,,,,,,masks/mask_003.jpg,,,,,,,,,,,,,,,,,,,,,,,,,,,,,,,,,,,,,,,,,,0,2,2,2,1,,,,,,,,,,,,,,,,,,,,,,,,,,,,,,,,,,,,,,,,,,,,,,
831559,001,2022-11-14_01h30.50.824,Info_measure_main_exp,2022.2.2,Win32,49.58104021,,,,,,,,,,,,,,,,,,masks/mask_001.jpg,,,,,,,,,,,,,,,,,,,,,,,,,,,,,,,,,,,,,,,,,,0,3,3,0,1,,,,,,,,,,,,,,,,,,,,,,,,,,,,,,,,,,,,,,,,,,,,,,
831559,001,2022-11-14_01h30.50.824,Info_measure_main_exp,2022.2.2,Win32,49.58104021,,,,,,,,,,,,,,,,,,masks/mask_005.jpg,,,,,,,,,,,,,,,,,,,,,,,,,,,,,,,,,,,,,,,,,,0,4,4,4,1,,,,,,,,,,,,,,,,,,,,,,,,,,,,,,,,,,,,,,,,,,,,,,
831559,001,2022-11-14_01h30.50.824,Info_measure_main_exp,2022.2.2,Win32,49.58104021,,,,,,,,,,,,,,,,,,masks/mask_001.jpg,,,,,,,,,,,,,,,,,,,,,,,,,,,,,,,,,,,,,,,,,,,,,,,0,0,0,0,1,,,,,,,,,,,,,,,,,,,,,,,,,,,,,,,,,,,,,,,,,
831559,001,2022-11-14_01h30.50.824,Info_measure_main_exp,2022.2.2,Win32,49.58104021,,,,,,,,,,,,,,,,,,masks/mask_003.jpg,,,,,,,,,,,,,,,,,,,,,,,,,,,,,,,,,,,,,,,,,,,,,,,0,1,1,2,1,,,,,,,,,,,,,,,,,,,,,,,,,,,,,,,,,,,,,,,,,
831559,001,2022-11-14_01h30.50.824,Info_measure_main_exp,2022.2.2,Win32,49.58104021,,,,,,,,,,,,,,,,,,masks/mask_002.jpg,,,,,,,,,,,,,,,,,,,,,,,,,,,,,,,,,,,,,,,,,,,,,,,0,2,2,1,1,,,,,,,,,,,,,,,,,,,,,,,,,,,,,,,,,,,,,,,,,
831559,001,2022-11-14_01h30.50.824,Info_measure_main_exp,2022.2.2,Win32,49.58104021,,,,,,,,,,,,,,,,,,masks/mask_004.jpg,,,,,,,,,,,,,,,,,,,,,,,,,,,,,,,,,,,,,,,,,,,,,,,0,3,3,3,1,,,,,,,,,,,,,,,,,,,,,,,,,,,,,,,,,,,,,,,,,
831559,001,2022-11-14_01h30.50.824,Info_measure_main_exp,2022.2.2,Win32,49.58104021,,,,,,,,,,,,,,,,,,masks/mask_005.jpg,,,,,,,,,,,,,,,,,,,,,,,,,,,,,,,,,,,,,,,,,,,,,,,0,4,4,4,1,,,,,,,,,,,,,,,,,,,,,,,,,,,,,,,,,,,,,,,,,
831559,001,2022-11-14_01h30.50.824,Info_measure_main_exp,2022.2.2,Win32,49.58104021,,,,,,,,,,,,,,,,,,,,,,,,,,,,,,5,2.8732,1,,,,,,,,,,,,0,131,5,5,2298,2190,absent_patch/patch0002298.jpg,absent_patch/patch0002190.jpg,,,,,,,,,,,,,,,,,,,0.040364583,-0.01171875,1,0,0,response3disk,29,0,0.002604167,1,0,0,center_square,0,28,28,20,1,,,,,,,,,,,,,,,,,,,,,,,
831559,001,2022-11-14_01h30.50.824,Info_measure_main_exp,2022.2.2,Win32,49.58104021,,,,,,,,,,,,,,,,,,masks/mask_003.jpg,,,,,,,,,,,,,,,,,,,,,,,,,,,,,,,,,,,,,,,,,,0,0,0,2,1,,,,,,,,,,,,,,,,,,,,,,,,,,,,,,,,,,,,,,,,,,,,,,
831559,001,2022-11-14_01h30.50.824,Info_measure_main_exp,2022.2.2,Win32,49.58104021,,,,,,,,,,,,,,,,,,masks/mask_005.jpg,,,,,,,,,,,,,,,,,,,,,,,,,,,,,,,,,,,,,,,,,,0,1,1,4,1,,,,,,,,,,,,,,,,,,,,,,,,,,,,,,,,,,,,,,,,,,,,,,
831559,001,2022-11-14_01h30.50.824,Info_measure_main_exp,2022.2.2,Win32,49.58104021,,,,,,,,,,,,,,,,,,masks/mask_002.jpg,,,,,,,,,,,,,,,,,,,,,,,,,,,,,,,,,,,,,,,,,,0,2,2,1,1,,,,,,,,,,,,,,,,,,,,,,,,,,,,,,,,,,,,,,,,,,,,,,
831559,001,2022-11-14_01h30.50.824,Info_measure_main_exp,2022.2.2,Win32,49.58104021,,,,,,,,,,,,,,,,,,masks/mask_004.jpg,,,,,,,,,,,,,,,,,,,,,,,,,,,,,,,,,,,,,,,,,,0,3,3,3,1,,,,,,,,,,,,,,,,,,,,,,,,,,,,,,,,,,,,,,,,,,,,,,
831559,001,2022-11-14_01h30.50.824,Info_measure_main_exp,2022.2.2,Win32,49.58104021,,,,,,,,,,,,,,,,,,masks/mask_001.jpg,,,,,,,,,,,,,,,,,,,,,,,,,,,,,,,,,,,,,,,,,,0,4,4,0,1,,,,,,,,,,,,,,,,,,,,,,,,,,,,,,,,,,,,,,,,,,,,,,
831559,001,2022-11-14_01h30.50.824,Info_measure_main_exp,2022.2.2,Win32,49.58104021,,,,,,,,,,,,,,,,,,masks/mask_002.jpg,,,,,,,,,,,,,,,,,,,,,,,,,,,,,,,,,,,,,,,,,,,,,,,0,0,0,1,1,,,,,,,,,,,,,,,,,,,,,,,,,,,,,,,,,,,,,,,,,
831559,001,2022-11-14_01h30.50.824,Info_measure_main_exp,2022.2.2,Win32,49.58104021,,,,,,,,,,,,,,,,,,masks/mask_004.jpg,,,,,,,,,,,,,,,,,,,,,,,,,,,,,,,,,,,,,,,,,,,,,,,0,1,1,3,1,,,,,,,,,,,,,,,,,,,,,,,,,,,,,,,,,,,,,,,,,
831559,001,2022-11-14_01h30.50.824,Info_measure_main_exp,2022.2.2,Win32,49.58104021,,,,,,,,,,,,,,,,,,masks/mask_005.jpg,,,,,,,,,,,,,,,,,,,,,,,,,,,,,,,,,,,,,,,,,,,,,,,0,2,2,4,1,,,,,,,,,,,,,,,,,,,,,,,,,,,,,,,,,,,,,,,,,
831559,001,2022-11-14_01h30.50.824,Info_measure_main_exp,2022.2.2,Win32,49.58104021,,,,,,,,,,,,,,,,,,masks/mask_003.jpg,,,,,,,,,,,,,,,,,,,,,,,,,,,,,,,,,,,,,,,,,,,,,,,0,3,3,2,1,,,,,,,,,,,,,,,,,,,,,,,,,,,,,,,,,,,,,,,,,
831559,001,2022-11-14_01h30.50.824,Info_measure_main_exp,2022.2.2,Win32,49.58104021,,,,,,,,,,,,,,,,,,masks/mask_001.jpg,,,,,,,,,,,,,,,,,,,,,,,,,,,,,,,,,,,,,,,,,,,,,,,0,4,4,0,1,,,,,,,,,,,,,,,,,,,,,,,,,,,,,,,,,,,,,,,,,
831559,001,2022-11-14_01h30.50.824,Info_measure_main_exp,2022.2.2,Win32,49.58104021,,,,,,,,,,,,,,,,,,,,,,,,,,,,,,3,1.8037,1,,,,,,,,,,,,0,131,5,5,1986,1974,absent_patch/patch0001986.jpg,absent_patch/patch0001974.jpg,,,,,,,,,,,,,,,,,,,-0.033854167,-0.057291667,1,0,0,response5disk,30,0.002604167,-0.001302083,1,0,0,center_square,0,29,29,25,1,,,,,,,,,,,,,,,,,,,,,,,
831559,001,2022-11-14_01h30.50.824,Info_measure_main_exp,2022.2.2,Win32,49.58104021,,,,,,,,,,,,,,,,,,masks/mask_003.jpg,,,,,,,,,,,,,,,,,,,,,,,,,,,,,,,,,,,,,,,,,,0,0,0,2,1,,,,,,,,,,,,,,,,,,,,,,,,,,,,,,,,,,,,,,,,,,,,,,
831559,001,2022-11-14_01h30.50.824,Info_measure_main_exp,2022.2.2,Win32,49.58104021,,,,,,,,,,,,,,,,,,masks/mask_002.jpg,,,,,,,,,,,,,,,,,,,,,,,,,,,,,,,,,,,,,,,,,,0,1,1,1,1,,,,,,,,,,,,,,,,,,,,,,,,,,,,,,,,,,,,,,,,,,,,,,
831559,001,2022-11-14_01h30.50.824,Info_measure_main_exp,2022.2.2,Win32,49.58104021,,,,,,,,,,,,,,,,,,masks/mask_004.jpg,,,,,,,,,,,,,,,,,,,,,,,,,,,,,,,,,,,,,,,,,,0,2,2,3,1,,,,,,,,,,,,,,,,,,,,,,,,,,,,,,,,,,,,,,,,,,,,,,
831559,001,2022-11-14_01h30.50.824,Info_measure_main_exp,2022.2.2,Win32,49.58104021,,,,,,,,,,,,,,,,,,masks/mask_001.jpg,,,,,,,,,,,,,,,,,,,,,,,,,,,,,,,,,,,,,,,,,,0,3,3,0,1,,,,,,,,,,,,,,,,,,,,,,,,,,,,,,,,,,,,,,,,,,,,,,
831559,001,2022-11-14_01h30.50.824,Info_measure_main_exp,2022.2.2,Win32,49.58104021,,,,,,,,,,,,,,,,,,masks/mask_005.jpg,,,,,,,,,,,,,,,,,,,,,,,,,,,,,,,,,,,,,,,,,,0,4,4,4,1,,,,,,,,,,,,,,,,,,,,,,,,,,,,,,,,,,,,,,,,,,,,,,
831559,001,2022-11-14_01h30.50.824,Info_measure_main_exp,2022.2.2,Win32,49.58104021,,,,,,,,,,,,,,,,,,masks/mask_005.jpg,,,,,,,,,,,,,,,,,,,,,,,,,,,,,,,,,,,,,,,,,,,,,,,0,0,0,4,1,,,,,,,,,,,,,,,,,,,,,,,,,,,,,,,,,,,,,,,,,
831559,001,2022-11-14_01h30.50.824,Info_measure_main_exp,2022.2.2,Win32,49.58104021,,,,,,,,,,,,,,,,,,masks/mask_001.jpg,,,,,,,,,,,,,,,,,,,,,,,,,,,,,,,,,,,,,,,,,,,,,,,0,1,1,0,1,,,,,,,,,,,,,,,,,,,,,,,,,,,,,,,,,,,,,,,,,
831559,001,2022-11-14_01h30.50.824,Info_measure_main_exp,2022.2.2,Win32,49.58104021,,,,,,,,,,,,,,,,,,masks/mask_002.jpg,,,,,,,,,,,,,,,,,,,,,,,,,,,,,,,,,,,,,,,,,,,,,,,0,2,2,1,1,,,,,,,,,,,,,,,,,,,,,,,,,,,,,,,,,,,,,,,,,
831559,001,2022-11-14_01h30.50.824,Info_measure_main_exp,2022.2.2,Win32,49.58104021,,,,,,,,,,,,,,,,,,masks/mask_004.jpg,,,,,,,,,,,,,,,,,,,,,,,,,,,,,,,,,,,,,,,,,,,,,,,0,3,3,3,1,,,,,,,,,,,,,,,,,,,,,,,,,,,,,,,,,,,,,,,,,
831559,001,2022-11-14_01h30.50.824,Info_measure_main_exp,2022.2.2,Win32,49.58104021,,,,,,,,,,,,,,,,,,masks/mask_003.jpg,,,,,,,,,,,,,,,,,,,,,,,,,,,,,,,,,,,,,,,,,,,,,,,0,4,4,2,1,,,,,,,,,,,,,,,,,,,,,,,,,,,,,,,,,,,,,,,,,
831559,001,2022-11-14_01h30.50.824,Info_measure_main_exp,2022.2.2,Win32,49.58104021,,,,,,,,,,,,,,,,,,,,,,,,,,,,,,6,1.7181,1,,,,,,,,,,,,0,131,5,5,2274,2190,absent_patch/patch0002274.jpg,absent_patch/patch0002190.jpg,,,,,,,,,,,,,,,,,,,0.07421875,0.05078125,1,0,0,response1disk,31,0.002604167,0.001302083,1,0,0,center_square,0,30,30,116,1,,,,,,,,,,,,,,,,,,,,,,,
831559,001,2022-11-14_01h30.50.824,Info_measure_main_exp,2022.2.2,Win32,49.58104021,,,,,,,,,,,,,,,,,,masks/mask_004.jpg,,,,,,,,,,,,,,,,,,,,,,,,,,,,,,,,,,,,,,,,,,0,0,0,3,1,,,,,,,,,,,,,,,,,,,,,,,,,,,,,,,,,,,,,,,,,,,,,,
831559,001,2022-11-14_01h30.50.824,Info_measure_main_exp,2022.2.2,Win32,49.58104021,,,,,,,,,,,,,,,,,,masks/mask_005.jpg,,,,,,,,,,,,,,,,,,,,,,,,,,,,,,,,,,,,,,,,,,0,1,1,4,1,,,,,,,,,,,,,,,,,,,,,,,,,,,,,,,,,,,,,,,,,,,,,,
831559,001,2022-11-14_01h30.50.824,Info_measure_main_exp,2022.2.2,Win32,49.58104021,,,,,,,,,,,,,,,,,,masks/mask_003.jpg,,,,,,,,,,,,,,,,,,,,,,,,,,,,,,,,,,,,,,,,,,0,2,2,2,1,,,,,,,,,,,,,,,,,,,,,,,,,,,,,,,,,,,,,,,,,,,,,,
831559,001,2022-11-14_01h30.50.824,Info_measure_main_exp,2022.2.2,Win32,49.58104021,,,,,,,,,,,,,,,,,,masks/mask_001.jpg,,,,,,,,,,,,,,,,,,,,,,,,,,,,,,,,,,,,,,,,,,0,3,3,0,1,,,,,,,,,,,,,,,,,,,,,,,,,,,,,,,,,,,,,,,,,,,,,,
831559,001,2022-11-14_01h30.50.824,Info_measure_main_exp,2022.2.2,Win32,49.58104021,,,,,,,,,,,,,,,,,,masks/mask_002.jpg,,,,,,,,,,,,,,,,,,,,,,,,,,,,,,,,,,,,,,,,,,0,4,4,1,1,,,,,,,,,,,,,,,,,,,,,,,,,,,,,,,,,,,,,,,,,,,,,,
831559,001,2022-11-14_01h30.50.824,Info_measure_main_exp,2022.2.2,Win32,49.58104021,,,,,,,,,,,,,,,,,,masks/mask_002.jpg,,,,,,,,,,,,,,,,,,,,,,,,,,,,,,,,,,,,,,,,,,,,,,,0,0,0,1,1,,,,,,,,,,,,,,,,,,,,,,,,,,,,,,,,,,,,,,,,,
831559,001,2022-11-14_01h30.50.824,Info_measure_main_exp,2022.2.2,Win32,49.58104021,,,,,,,,,,,,,,,,,,masks/mask_003.jpg,,,,,,,,,,,,,,,,,,,,,,,,,,,,,,,,,,,,,,,,,,,,,,,0,1,1,2,1,,,,,,,,,,,,,,,,,,,,,,,,,,,,,,,,,,,,,,,,,
831559,001,2022-11-14_01h30.50.824,Info_measure_main_exp,2022.2.2,Win32,49.58104021,,,,,,,,,,,,,,,,,,masks/mask_005.jpg,,,,,,,,,,,,,,,,,,,,,,,,,,,,,,,,,,,,,,,,,,,,,,,0,2,2,4,1,,,,,,,,,,,,,,,,,,,,,,,,,,,,,,,,,,,,,,,,,
831559,001,2022-11-14_01h30.50.824,Info_measure_main_exp,2022.2.2,Win32,49.58104021,,,,,,,,,,,,,,,,,,masks/mask_004.jpg,,,,,,,,,,,,,,,,,,,,,,,,,,,,,,,,,,,,,,,,,,,,,,,0,3,3,3,1,,,,,,,,,,,,,,,,,,,,,,,,,,,,,,,,,,,,,,,,,
831559,001,2022-11-14_01h30.50.824,Info_measure_main_exp,2022.2.2,Win32,49.58104021,,,,,,,,,,,,,,,,,,masks/mask_001.jpg,,,,,,,,,,,,,,,,,,,,,,,,,,,,,,,,,,,,,,,,,,,,,,,0,4,4,0,1,,,,,,,,,,,,,,,,,,,,,,,,,,,,,,,,,,,,,,,,,
831559,001,2022-11-14_01h30.50.824,Info_measure_main_exp,2022.2.2,Win32,49.58104021,,,,,,,,,,,,,,,,,,,,,,,,,,,,,,4,2.0131,1,,,,,,,,,,,,0,131,5,5,2190,1950,absent_patch/patch0002190.jpg,absent_patch/patch0001950.jpg,,,,,,,,,,,,,,,,,,,0.024739583,-0.065104167,1,0,0,response3disk,32,0.005208333,0.001302083,1,0,0,center_square,0,31,31,73,1,,,,,,,,,,,,,,,,,,,,,,,
831559,001,2022-11-14_01h30.50.824,Info_measure_main_exp,2022.2.2,Win32,49.58104021,,,,,,,,,,,,,,,,,,masks/mask_005.jpg,,,,,,,,,,,,,,,,,,,,,,,,,,,,,,,,,,,,,,,,,,0,0,0,4,1,,,,,,,,,,,,,,,,,,,,,,,,,,,,,,,,,,,,,,,,,,,,,,
831559,001,2022-11-14_01h30.50.824,Info_measure_main_exp,2022.2.2,Win32,49.58104021,,,,,,,,,,,,,,,,,,masks/mask_002.jpg,,,,,,,,,,,,,,,,,,,,,,,,,,,,,,,,,,,,,,,,,,0,1,1,1,1,,,,,,,,,,,,,,,,,,,,,,,,,,,,,,,,,,,,,,,,,,,,,,
831559,001,2022-11-14_01h30.50.824,Info_measure_main_exp,2022.2.2,Win32,49.58104021,,,,,,,,,,,,,,,,,,masks/mask_001.jpg,,,,,,,,,,,,,,,,,,,,,,,,,,,,,,,,,,,,,,,,,,0,2,2,0,1,,,,,,,,,,,,,,,,,,,,,,,,,,,,,,,,,,,,,,,,,,,,,,
831559,001,2022-11-14_01h30.50.824,Info_measure_main_exp,2022.2.2,Win32,49.58104021,,,,,,,,,,,,,,,,,,masks/mask_004.jpg,,,,,,,,,,,,,,,,,,,,,,,,,,,,,,,,,,,,,,,,,,0,3,3,3,1,,,,,,,,,,,,,,,,,,,,,,,,,,,,,,,,,,,,,,,,,,,,,,
831559,001,2022-11-14_01h30.50.824,Info_measure_main_exp,2022.2.2,Win32,49.58104021,,,,,,,,,,,,,,,,,,masks/mask_003.jpg,,,,,,,,,,,,,,,,,,,,,,,,,,,,,,,,,,,,,,,,,,0,4,4,2,1,,,,,,,,,,,,,,,,,,,,,,,,,,,,,,,,,,,,,,,,,,,,,,
831559,001,2022-11-14_01h30.50.824,Info_measure_main_exp,2022.2.2,Win32,49.58104021,,,,,,,,,,,,,,,,,,masks/mask_002.jpg,,,,,,,,,,,,,,,,,,,,,,,,,,,,,,,,,,,,,,,,,,,,,,,0,0,0,1,1,,,,,,,,,,,,,,,,,,,,,,,,,,,,,,,,,,,,,,,,,
831559,001,2022-11-14_01h30.50.824,Info_measure_main_exp,2022.2.2,Win32,49.58104021,,,,,,,,,,,,,,,,,,masks/mask_001.jpg,,,,,,,,,,,,,,,,,,,,,,,,,,,,,,,,,,,,,,,,,,,,,,,0,1,1,0,1,,,,,,,,,,,,,,,,,,,,,,,,,,,,,,,,,,,,,,,,,
831559,001,2022-11-14_01h30.50.824,Info_measure_main_exp,2022.2.2,Win32,49.58104021,,,,,,,,,,,,,,,,,,masks/mask_005.jpg,,,,,,,,,,,,,,,,,,,,,,,,,,,,,,,,,,,,,,,,,,,,,,,0,2,2,4,1,,,,,,,,,,,,,,,,,,,,,,,,,,,,,,,,,,,,,,,,,
831559,001,2022-11-14_01h30.50.824,Info_measure_main_exp,2022.2.2,Win32,49.58104021,,,,,,,,,,,,,,,,,,masks/mask_003.jpg,,,,,,,,,,,,,,,,,,,,,,,,,,,,,,,,,,,,,,,,,,,,,,,0,3,3,2,1,,,,,,,,,,,,,,,,,,,,,,,,,,,,,,,,,,,,,,,,,
831559,001,2022-11-14_01h30.50.824,Info_measure_main_exp,2022.2.2,Win32,49.58104021,,,,,,,,,,,,,,,,,,masks/mask_004.jpg,,,,,,,,,,,,,,,,,,,,,,,,,,,,,,,,,,,,,,,,,,,,,,,0,4,4,3,1,,,,,,,,,,,,,,,,,,,,,,,,,,,,,,,,,,,,,,,,,
831559,001,2022-11-14_01h30.50.824,Info_measure_main_exp,2022.2.2,Win32,49.58104021,,,,,,,,,,,,,,,,,,,,,,,,,,,,,,4,2.024,1,,,,,,,,,,,,0,131,5,5,1974,2142,absent_patch/patch0001974.jpg,absent_patch/patch0002142.jpg,,,,,,,,,,,,,,,,,,,0.013020833,-0.0390625,1,0,0,response3disk,33,0.00390625,0.002604167,1,0,0,center_square,0,32,32,38,1,,,,,,,,,,,,,,,,,,,,,,,
831559,001,2022-11-14_01h30.50.824,Info_measure_main_exp,2022.2.2,Win32,49.58104021,,,,,,,,,,,,,,,,,,masks/mask_001.jpg,,,,,,,,,,,,,,,,,,,,,,,,,,,,,,,,,,,,,,,,,,0,0,0,0,1,,,,,,,,,,,,,,,,,,,,,,,,,,,,,,,,,,,,,,,,,,,,,,
831559,001,2022-11-14_01h30.50.824,Info_measure_main_exp,2022.2.2,Win32,49.58104021,,,,,,,,,,,,,,,,,,masks/mask_005.jpg,,,,,,,,,,,,,,,,,,,,,,,,,,,,,,,,,,,,,,,,,,0,1,1,4,1,,,,,,,,,,,,,,,,,,,,,,,,,,,,,,,,,,,,,,,,,,,,,,
831559,001,2022-11-14_01h30.50.824,Info_measure_main_exp,2022.2.2,Win32,49.58104021,,,,,,,,,,,,,,,,,,masks/mask_002.jpg,,,,,,,,,,,,,,,,,,,,,,,,,,,,,,,,,,,,,,,,,,0,2,2,1,1,,,,,,,,,,,,,,,,,,,,,,,,,,,,,,,,,,,,,,,,,,,,,,
831559,001,2022-11-14_01h30.50.824,Info_measure_main_exp,2022.2.2,Win32,49.58104021,,,,,,,,,,,,,,,,,,masks/mask_004.jpg,,,,,,,,,,,,,,,,,,,,,,,,,,,,,,,,,,,,,,,,,,0,3,3,3,1,,,,,,,,,,,,,,,,,,,,,,,,,,,,,,,,,,,,,,,,,,,,,,
831559,001,2022-11-14_01h30.50.824,Info_measure_main_exp,2022.2.2,Win32,49.58104021,,,,,,,,,,,,,,,,,,masks/mask_003.jpg,,,,,,,,,,,,,,,,,,,,,,,,,,,,,,,,,,,,,,,,,,0,4,4,2,1,,,,,,,,,,,,,,,,,,,,,,,,,,,,,,,,,,,,,,,,,,,,,,
831559,001,2022-11-14_01h30.50.824,Info_measure_main_exp,2022.2.2,Win32,49.58104021,,,,,,,,,,,,,,,,,,masks/mask_004.jpg,,,,,,,,,,,,,,,,,,,,,,,,,,,,,,,,,,,,,,,,,,,,,,,0,0,0,3,1,,,,,,,,,,,,,,,,,,,,,,,,,,,,,,,,,,,,,,,,,
831559,001,2022-11-14_01h30.50.824,Info_measure_main_exp,2022.2.2,Win32,49.58104021,,,,,,,,,,,,,,,,,,masks/mask_002.jpg,,,,,,,,,,,,,,,,,,,,,,,,,,,,,,,,,,,,,,,,,,,,,,,0,1,1,1,1,,,,,,,,,,,,,,,,,,,,,,,,,,,,,,,,,,,,,,,,,
831559,001,2022-11-14_01h30.50.824,Info_measure_main_exp,2022.2.2,Win32,49.58104021,,,,,,,,,,,,,,,,,,masks/mask_003.jpg,,,,,,,,,,,,,,,,,,,,,,,,,,,,,,,,,,,,,,,,,,,,,,,0,2,2,2,1,,,,,,,,,,,,,,,,,,,,,,,,,,,,,,,,,,,,,,,,,
831559,001,2022-11-14_01h30.50.824,Info_measure_main_exp,2022.2.2,Win32,49.58104021,,,,,,,,,,,,,,,,,,masks/mask_005.jpg,,,,,,,,,,,,,,,,,,,,,,,,,,,,,,,,,,,,,,,,,,,,,,,0,3,3,4,1,,,,,,,,,,,,,,,,,,,,,,,,,,,,,,,,,,,,,,,,,
831559,001,2022-11-14_01h30.50.824,Info_measure_main_exp,2022.2.2,Win32,49.58104021,,,,,,,,,,,,,,,,,,masks/mask_001.jpg,,,,,,,,,,,,,,,,,,,,,,,,,,,,,,,,,,,,,,,,,,,,,,,0,4,4,0,1,,,,,,,,,,,,,,,,,,,,,,,,,,,,,,,,,,,,,,,,,
831559,001,2022-11-14_01h30.50.824,Info_measure_main_exp,2022.2.2,Win32,49.58104021,,,,,,,,,,,,,,,,,,,,,,,,,,,,,,4,1.3579,1,,,,,,,,,,,,0,131,5,5,2178,2238,absent_patch/patch0002178.jpg,absent_patch/patch0002238.jpg,,,,,,,,,,,,,,,,,,,0.040364583,-0.065104167,1,0,0,response3disk,34,0.0078125,-0.002604167,1,0,0,center_square,0,33,33,57,1,,,,,,,,,,,,,,,,,,,,,,,
831559,001,2022-11-14_01h30.50.824,Info_measure_main_exp,2022.2.2,Win32,49.58104021,,,,,,,,,,,,,,,,,,masks/mask_001.jpg,,,,,,,,,,,,,,,,,,,,,,,,,,,,,,,,,,,,,,,,,,0,0,0,0,1,,,,,,,,,,,,,,,,,,,,,,,,,,,,,,,,,,,,,,,,,,,,,,
831559,001,2022-11-14_01h30.50.824,Info_measure_main_exp,2022.2.2,Win32,49.58104021,,,,,,,,,,,,,,,,,,masks/mask_003.jpg,,,,,,,,,,,,,,,,,,,,,,,,,,,,,,,,,,,,,,,,,,0,1,1,2,1,,,,,,,,,,,,,,,,,,,,,,,,,,,,,,,,,,,,,,,,,,,,,,
831559,001,2022-11-14_01h30.50.824,Info_measure_main_exp,2022.2.2,Win32,49.58104021,,,,,,,,,,,,,,,,,,masks/mask_004.jpg,,,,,,,,,,,,,,,,,,,,,,,,,,,,,,,,,,,,,,,,,,0,2,2,3,1,,,,,,,,,,,,,,,,,,,,,,,,,,,,,,,,,,,,,,,,,,,,,,
831559,001,2022-11-14_01h30.50.824,Info_measure_main_exp,2022.2.2,Win32,49.58104021,,,,,,,,,,,,,,,,,,masks/mask_005.jpg,,,,,,,,,,,,,,,,,,,,,,,,,,,,,,,,,,,,,,,,,,0,3,3,4,1,,,,,,,,,,,,,,,,,,,,,,,,,,,,,,,,,,,,,,,,,,,,,,
831559,001,2022-11-14_01h30.50.824,Info_measure_main_exp,2022.2.2,Win32,49.58104021,,,,,,,,,,,,,,,,,,masks/mask_002.jpg,,,,,,,,,,,,,,,,,,,,,,,,,,,,,,,,,,,,,,,,,,0,4,4,1,1,,,,,,,,,,,,,,,,,,,,,,,,,,,,,,,,,,,,,,,,,,,,,,
831559,001,2022-11-14_01h30.50.824,Info_measure_main_exp,2022.2.2,Win32,49.58104021,,,,,,,,,,,,,,,,,,masks/mask_005.jpg,,,,,,,,,,,,,,,,,,,,,,,,,,,,,,,,,,,,,,,,,,,,,,,0,0,0,4,1,,,,,,,,,,,,,,,,,,,,,,,,,,,,,,,,,,,,,,,,,
831559,001,2022-11-14_01h30.50.824,Info_measure_main_exp,2022.2.2,Win32,49.58104021,,,,,,,,,,,,,,,,,,masks/mask_004.jpg,,,,,,,,,,,,,,,,,,,,,,,,,,,,,,,,,,,,,,,,,,,,,,,0,1,1,3,1,,,,,,,,,,,,,,,,,,,,,,,,,,,,,,,,,,,,,,,,,
831559,001,2022-11-14_01h30.50.824,Info_measure_main_exp,2022.2.2,Win32,49.58104021,,,,,,,,,,,,,,,,,,masks/mask_001.jpg,,,,,,,,,,,,,,,,,,,,,,,,,,,,,,,,,,,,,,,,,,,,,,,0,2,2,0,1,,,,,,,,,,,,,,,,,,,,,,,,,,,,,,,,,,,,,,,,,
831559,001,2022-11-14_01h30.50.824,Info_measure_main_exp,2022.2.2,Win32,49.58104021,,,,,,,,,,,,,,,,,,masks/mask_003.jpg,,,,,,,,,,,,,,,,,,,,,,,,,,,,,,,,,,,,,,,,,,,,,,,0,3,3,2,1,,,,,,,,,,,,,,,,,,,,,,,,,,,,,,,,,,,,,,,,,
831559,001,2022-11-14_01h30.50.824,Info_measure_main_exp,2022.2.2,Win32,49.58104021,,,,,,,,,,,,,,,,,,masks/mask_002.jpg,,,,,,,,,,,,,,,,,,,,,,,,,,,,,,,,,,,,,,,,,,,,,,,0,4,4,1,1,,,,,,,,,,,,,,,,,,,,,,,,,,,,,,,,,,,,,,,,,
