participant,session,date,expName,psychopyVersion,OS,frameRate,space_press_continue.keys,space_press_continue.rt,space_press_continue_2.keys,space_press_continue_2.rt,space_press_continue_3.keys,space_press_continue_3.rt,space_press_continue_4.keys,space_press_continue_4.rt,space_press_continue_5.keys,space_press_continue_5.rt,space_press_continue_6.keys,space_press_continue_6.rt,prac_mask_loop_1.thisRepN,prac_mask_loop_1.thisTrialN,prac_mask_loop_1.thisN,prac_mask_loop_1.thisIndex,prac_mask_loop_1.ran,mask_name,prac_mask_loop_2.thisRepN,prac_mask_loop_2.thisTrialN,prac_mask_loop_2.thisN,prac_mask_loop_2.thisIndex,prac_mask_loop_2.ran,mouse_2.x,mouse_2.y,mouse_2.leftButton,mouse_2.midButton,mouse_2.rightButton,mouse_2.clicked_name,similarity,response_time,Pass,mouse_12.x,mouse_12.y,mouse_12.leftButton,mouse_12.midButton,mouse_12.rightButton,mouse_12.clicked_name,prac_loop.thisRepN,prac_loop.thisTrialN,prac_loop.thisN,prac_loop.thisIndex,prac_loop.ran,Pair_type,Image_num,Patch_1_loc,Patch_2_loc,Patch_1_info,Patch_2_info,Patch_1_name,Patch_2_name,mouse_1.x,mouse_1.y,mouse_1.leftButton,mouse_1.midButton,mouse_1.rightButton,mouse_1.time,mouse_1.clicked_name,space_press_continue_7.keys,space_press_continue_7.rt,mask_loop.thisRepN,mask_loop.thisTrialN,mask_loop.thisN,mask_loop.thisIndex,mask_loop.ran,mask_loop_2.thisRepN,mask_loop_2.thisTrialN,mask_loop_2.thisN,mask_loop_2.thisIndex,mask_loop_2.ran,mouse.x,mouse.y,mouse.leftButton,mouse.midButton,mouse.rightButton,mouse.clicked_name,trialNumber,mouse_11.x,mouse_11.y,mouse_11.leftButton,mouse_11.midButton,mouse_11.rightButton,mouse_11.clicked_name,first_pass_loop.thisRepN,first_pass_loop.thisTrialN,first_pass_loop.thisN,first_pass_loop.thisIndex,first_pass_loop.ran,mask_loop_3.thisRepN,mask_loop_3.thisTrialN,mask_loop_3.thisN,mask_loop_3.thisIndex,mask_loop_3.ran,mask_loop_4.thisRepN,mask_loop_4.thisTrialN,mask_loop_4.thisN,mask_loop_4.thisIndex,mask_loop_4.ran,mouse_3.x,mouse_3.y,mouse_3.leftButton,mouse_3.midButton,mouse_3.rightButton,mouse_3.clicked_name,double_pass_loop.thisRepN,double_pass_loop.thisTrialN,double_pass_loop.thisN,double_pass_loop.thisIndex,double_pass_loop.ran,space_exit.keys,space_exit.rt
882314,001,2022-11-14_24h28.08.259,Info_measure_main_exp,2022.2.2,Win32,60.0528465,,,,,,,,,,,,,,,,,,,,,,,,,,,,,,,,,,,,,,,,,,,,,,,,,,,,,,,,,,,,,,,,,,,,,,,,,,,,,,,,,,,,,,,,,,,,,,,,,,,,,,,,,,,,,,,
882314,001,2022-11-14_24h28.08.259,Info_measure_main_exp,2022.2.2,Win32,60.0528465,,,,,,,,,,,,,,,,,,,,,,,,,,,,,,,,,,,,,,,,,,,,,,,,,,,,,,,,,,,,,,,,,,,,,,,,,,,,,,,,,,,,,,,,,,,,,,,,,,,,,,,,,,,,,,,
882314,001,2022-11-14_24h28.08.259,Info_measure_main_exp,2022.2.2,Win32,60.0528465,space,8.7228,,,,,,,,,,,,,,,,,,,,,,,,,,,,,,,,,,,,,,,,,,,,,,,,,,,,,,,,,,,,,,,,,,,,,,,,,,,,,,,,,,,,,,,,,,,,,,,,,,,,,,,,,,,,,
882314,001,2022-11-14_24h28.08.259,Info_measure_main_exp,2022.2.2,Win32,60.0528465,,,space,17.7968,,,,,,,,,,,,,,,,,,,,,,,,,,,,,,,,,,,,,,,,,,,,,,,,,,,,,,,,,,,,,,,,,,,,,,,,,,,,,,,,,,,,,,,,,,,,,,,,,,,,,,,,,,,
882314,001,2022-11-14_24h28.08.259,Info_measure_main_exp,2022.2.2,Win32,60.0528465,,,,,space,6.7926,,,,,,,,,,,,,,,,,,,,,,,,,,,,,,,,,,,,,,,,,,,,,,,,,,,,,,,,,,,,,,,,,,,,,,,,,,,,,,,,,,,,,,,,,,,,,,,,,,,,,,,,,
882314,001,2022-11-14_24h28.08.259,Info_measure_main_exp,2022.2.2,Win32,60.0528465,,,,,,,space,14.6426,,,,,,,,,,,,,,,,,,,,,,,,,,,,,,,,,,,,,,,,,,,,,,,,,,,,,,,,,,,,,,,,,,,,,,,,,,,,,,,,,,,,,,,,,,,,,,,,,,,,,,,
882314,001,2022-11-14_24h28.08.259,Info_measure_main_exp,2022.2.2,Win32,60.0528465,,,,,,,,,space,11.2019,,,,,,,,,,,,,,,,,,,,,,,,,,,,,,,,,,,,,,,,,,,,,,,,,,,,,,,,,,,,,,,,,,,,,,,,,,,,,,,,,,,,,,,,,,,,,,,,,,,,,
882314,001,2022-11-14_24h28.08.259,Info_measure_main_exp,2022.2.2,Win32,60.0528465,,,,,,,,,,,space,3.6901,,,,,,,,,,,,,,,,,,,,,,,,,,,,,,,,,,,,,,,,,,,,,,,,,,,,,,,,,,,,,,,,,,,,,,,,,,,,,,,,,,,,,,,,,,,,,,,,,,,
882314,001,2022-11-14_24h28.08.259,Info_measure_main_exp,2022.2.2,Win32,60.0528465,,,,,,,,,,,,,0,0,0,1,1,masks/mask_002.jpg,,,,,,,,,,,,,,,,,,,,,,,,,,,,,,,,,,,,,,,,,,,,,,,,,,,,,,,,,,,,,,,,,,,,,,,,,,,,,,,,,,,,,,,,,,,,,
882314,001,2022-11-14_24h28.08.259,Info_measure_main_exp,2022.2.2,Win32,60.0528465,,,,,,,,,,,,,0,1,1,3,1,masks/mask_004.jpg,,,,,,,,,,,,,,,,,,,,,,,,,,,,,,,,,,,,,,,,,,,,,,,,,,,,,,,,,,,,,,,,,,,,,,,,,,,,,,,,,,,,,,,,,,,,,
882314,001,2022-11-14_24h28.08.259,Info_measure_main_exp,2022.2.2,Win32,60.0528465,,,,,,,,,,,,,0,2,2,2,1,masks/mask_003.jpg,,,,,,,,,,,,,,,,,,,,,,,,,,,,,,,,,,,,,,,,,,,,,,,,,,,,,,,,,,,,,,,,,,,,,,,,,,,,,,,,,,,,,,,,,,,,,
882314,001,2022-11-14_24h28.08.259,Info_measure_main_exp,2022.2.2,Win32,60.0528465,,,,,,,,,,,,,0,3,3,0,1,masks/mask_001.jpg,,,,,,,,,,,,,,,,,,,,,,,,,,,,,,,,,,,,,,,,,,,,,,,,,,,,,,,,,,,,,,,,,,,,,,,,,,,,,,,,,,,,,,,,,,,,,
882314,001,2022-11-14_24h28.08.259,Info_measure_main_exp,2022.2.2,Win32,60.0528465,,,,,,,,,,,,,0,4,4,4,1,masks/mask_005.jpg,,,,,,,,,,,,,,,,,,,,,,,,,,,,,,,,,,,,,,,,,,,,,,,,,,,,,,,,,,,,,,,,,,,,,,,,,,,,,,,,,,,,,,,,,,,,,
882314,001,2022-11-14_24h28.08.259,Info_measure_main_exp,2022.2.2,Win32,60.0528465,,,,,,,,,,,,,,,,,,masks/mask_003.jpg,0,0,0,2,1,,,,,,,,,,,,,,,,,,,,,,,,,,,,,,,,,,,,,,,,,,,,,,,,,,,,,,,,,,,,,,,,,,,,,,,,,,,,,,,,,,,,,,,,
882314,001,2022-11-14_24h28.08.259,Info_measure_main_exp,2022.2.2,Win32,60.0528465,,,,,,,,,,,,,,,,,,masks/mask_002.jpg,0,1,1,1,1,,,,,,,,,,,,,,,,,,,,,,,,,,,,,,,,,,,,,,,,,,,,,,,,,,,,,,,,,,,,,,,,,,,,,,,,,,,,,,,,,,,,,,,,
882314,001,2022-11-14_24h28.08.259,Info_measure_main_exp,2022.2.2,Win32,60.0528465,,,,,,,,,,,,,,,,,,masks/mask_004.jpg,0,2,2,3,1,,,,,,,,,,,,,,,,,,,,,,,,,,,,,,,,,,,,,,,,,,,,,,,,,,,,,,,,,,,,,,,,,,,,,,,,,,,,,,,,,,,,,,,,
882314,001,2022-11-14_24h28.08.259,Info_measure_main_exp,2022.2.2,Win32,60.0528465,,,,,,,,,,,,,,,,,,masks/mask_005.jpg,0,3,3,4,1,,,,,,,,,,,,,,,,,,,,,,,,,,,,,,,,,,,,,,,,,,,,,,,,,,,,,,,,,,,,,,,,,,,,,,,,,,,,,,,,,,,,,,,,
882314,001,2022-11-14_24h28.08.259,Info_measure_main_exp,2022.2.2,Win32,60.0528465,,,,,,,,,,,,,,,,,,masks/mask_001.jpg,0,4,4,0,1,,,,,,,,,,,,,,,,,,,,,,,,,,,,,,,,,,,,,,,,,,,,,,,,,,,,,,,,,,,,,,,,,,,,,,,,,,,,,,,,,,,,,,,,
882314,001,2022-11-14_24h28.08.259,Info_measure_main_exp,2022.2.2,Win32,60.0528465,,,,,,,,,,,,,,,,,,,,,,,,0.050000014,-0.116666653,1,0,0,response3disk,4,67.6764,1,0,0.006481489,1,0,0,center_square,0,0,0,1,1,0,131,5,5,2514,2490,prac_patch/patch0002514.jpg,prac_patch/patch0002490.jpg,,,,,,,,,,,,,,,,,,,,,,,,,,,,,,,,,,,,,,,,,,,,,,,,,,,,,,,,,,,,
882314,001,2022-11-14_24h28.08.259,Info_measure_main_exp,2022.2.2,Win32,60.0528465,,,,,,,,,,,,,0,0,0,4,1,masks/mask_005.jpg,,,,,,,,,,,,,,,,,,,,,,,,,,,,,,,,,,,,,,,,,,,,,,,,,,,,,,,,,,,,,,,,,,,,,,,,,,,,,,,,,,,,,,,,,,,,,
882314,001,2022-11-14_24h28.08.259,Info_measure_main_exp,2022.2.2,Win32,60.0528465,,,,,,,,,,,,,0,1,1,2,1,masks/mask_003.jpg,,,,,,,,,,,,,,,,,,,,,,,,,,,,,,,,,,,,,,,,,,,,,,,,,,,,,,,,,,,,,,,,,,,,,,,,,,,,,,,,,,,,,,,,,,,,,
882314,001,2022-11-14_24h28.08.259,Info_measure_main_exp,2022.2.2,Win32,60.0528465,,,,,,,,,,,,,0,2,2,3,1,masks/mask_004.jpg,,,,,,,,,,,,,,,,,,,,,,,,,,,,,,,,,,,,,,,,,,,,,,,,,,,,,,,,,,,,,,,,,,,,,,,,,,,,,,,,,,,,,,,,,,,,,
882314,001,2022-11-14_24h28.08.259,Info_measure_main_exp,2022.2.2,Win32,60.0528465,,,,,,,,,,,,,0,3,3,1,1,masks/mask_002.jpg,,,,,,,,,,,,,,,,,,,,,,,,,,,,,,,,,,,,,,,,,,,,,,,,,,,,,,,,,,,,,,,,,,,,,,,,,,,,,,,,,,,,,,,,,,,,,
882314,001,2022-11-14_24h28.08.259,Info_measure_main_exp,2022.2.2,Win32,60.0528465,,,,,,,,,,,,,0,4,4,0,1,masks/mask_001.jpg,,,,,,,,,,,,,,,,,,,,,,,,,,,,,,,,,,,,,,,,,,,,,,,,,,,,,,,,,,,,,,,,,,,,,,,,,,,,,,,,,,,,,,,,,,,,,
882314,001,2022-11-14_24h28.08.259,Info_measure_main_exp,2022.2.2,Win32,60.0528465,,,,,,,,,,,,,,,,,,masks/mask_003.jpg,0,0,0,2,1,,,,,,,,,,,,,,,,,,,,,,,,,,,,,,,,,,,,,,,,,,,,,,,,,,,,,,,,,,,,,,,,,,,,,,,,,,,,,,,,,,,,,,,,
882314,001,2022-11-14_24h28.08.259,Info_measure_main_exp,2022.2.2,Win32,60.0528465,,,,,,,,,,,,,,,,,,masks/mask_005.jpg,0,1,1,4,1,,,,,,,,,,,,,,,,,,,,,,,,,,,,,,,,,,,,,,,,,,,,,,,,,,,,,,,,,,,,,,,,,,,,,,,,,,,,,,,,,,,,,,,,
882314,001,2022-11-14_24h28.08.259,Info_measure_main_exp,2022.2.2,Win32,60.0528465,,,,,,,,,,,,,,,,,,masks/mask_001.jpg,0,2,2,0,1,,,,,,,,,,,,,,,,,,,,,,,,,,,,,,,,,,,,,,,,,,,,,,,,,,,,,,,,,,,,,,,,,,,,,,,,,,,,,,,,,,,,,,,,
882314,001,2022-11-14_24h28.08.259,Info_measure_main_exp,2022.2.2,Win32,60.0528465,,,,,,,,,,,,,,,,,,masks/mask_002.jpg,0,3,3,1,1,,,,,,,,,,,,,,,,,,,,,,,,,,,,,,,,,,,,,,,,,,,,,,,,,,,,,,,,,,,,,,,,,,,,,,,,,,,,,,,,,,,,,,,,
882314,001,2022-11-14_24h28.08.259,Info_measure_main_exp,2022.2.2,Win32,60.0528465,,,,,,,,,,,,,,,,,,masks/mask_004.jpg,0,4,4,3,1,,,,,,,,,,,,,,,,,,,,,,,,,,,,,,,,,,,,,,,,,,,,,,,,,,,,,,,,,,,,,,,,,,,,,,,,,,,,,,,,,,,,,,,,
882314,001,2022-11-14_24h28.08.259,Info_measure_main_exp,2022.2.2,Win32,60.0528465,,,,,,,,,,,,,,,,,,,,,,,,0.05277782,0.14444443,1,0,0,response1disk,7,83.6421,1,-0.00462963,0.006481489,1,0,0,center_square,0,1,1,0,1,0,131,5,5,2370,2406,prac_patch/patch0002370.jpg,prac_patch/patch0002406.jpg,,,,,,,,,,,,,,,,,,,,,,,,,,,,,,,,,,,,,,,,,,,,,,,,,,,,,,,,,,,,
882314,001,2022-11-14_24h28.08.259,Info_measure_main_exp,2022.2.2,Win32,60.0528465,,,,,,,,,,,,,0,0,0,3,1,masks/mask_004.jpg,,,,,,,,,,,,,,,,,,,,,,,,,,,,,,,,,,,,,,,,,,,,,,,,,,,,,,,,,,,,,,,,,,,,,,,,,,,,,,,,,,,,,,,,,,,,,
882314,001,2022-11-14_24h28.08.259,Info_measure_main_exp,2022.2.2,Win32,60.0528465,,,,,,,,,,,,,0,1,1,0,1,masks/mask_001.jpg,,,,,,,,,,,,,,,,,,,,,,,,,,,,,,,,,,,,,,,,,,,,,,,,,,,,,,,,,,,,,,,,,,,,,,,,,,,,,,,,,,,,,,,,,,,,,
882314,001,2022-11-14_24h28.08.259,Info_measure_main_exp,2022.2.2,Win32,60.0528465,,,,,,,,,,,,,0,2,2,1,1,masks/mask_002.jpg,,,,,,,,,,,,,,,,,,,,,,,,,,,,,,,,,,,,,,,,,,,,,,,,,,,,,,,,,,,,,,,,,,,,,,,,,,,,,,,,,,,,,,,,,,,,,
882314,001,2022-11-14_24h28.08.259,Info_measure_main_exp,2022.2.2,Win32,60.0528465,,,,,,,,,,,,,0,3,3,4,1,masks/mask_005.jpg,,,,,,,,,,,,,,,,,,,,,,,,,,,,,,,,,,,,,,,,,,,,,,,,,,,,,,,,,,,,,,,,,,,,,,,,,,,,,,,,,,,,,,,,,,,,,
882314,001,2022-11-14_24h28.08.259,Info_measure_main_exp,2022.2.2,Win32,60.0528465,,,,,,,,,,,,,0,4,4,2,1,masks/mask_003.jpg,,,,,,,,,,,,,,,,,,,,,,,,,,,,,,,,,,,,,,,,,,,,,,,,,,,,,,,,,,,,,,,,,,,,,,,,,,,,,,,,,,,,,,,,,,,,,
882314,001,2022-11-14_24h28.08.259,Info_measure_main_exp,2022.2.2,Win32,60.0528465,,,,,,,,,,,,,,,,,,masks/mask_001.jpg,0,0,0,0,1,,,,,,,,,,,,,,,,,,,,,,,,,,,,,,,,,,,,,,,,,,,,,,,,,,,,,,,,,,,,,,,,,,,,,,,,,,,,,,,,,,,,,,,,
882314,001,2022-11-14_24h28.08.259,Info_measure_main_exp,2022.2.2,Win32,60.0528465,,,,,,,,,,,,,,,,,,masks/mask_005.jpg,0,1,1,4,1,,,,,,,,,,,,,,,,,,,,,,,,,,,,,,,,,,,,,,,,,,,,,,,,,,,,,,,,,,,,,,,,,,,,,,,,,,,,,,,,,,,,,,,,
882314,001,2022-11-14_24h28.08.259,Info_measure_main_exp,2022.2.2,Win32,60.0528465,,,,,,,,,,,,,,,,,,masks/mask_003.jpg,0,2,2,2,1,,,,,,,,,,,,,,,,,,,,,,,,,,,,,,,,,,,,,,,,,,,,,,,,,,,,,,,,,,,,,,,,,,,,,,,,,,,,,,,,,,,,,,,,
882314,001,2022-11-14_24h28.08.259,Info_measure_main_exp,2022.2.2,Win32,60.0528465,,,,,,,,,,,,,,,,,,masks/mask_002.jpg,0,3,3,1,1,,,,,,,,,,,,,,,,,,,,,,,,,,,,,,,,,,,,,,,,,,,,,,,,,,,,,,,,,,,,,,,,,,,,,,,,,,,,,,,,,,,,,,,,
882314,001,2022-11-14_24h28.08.259,Info_measure_main_exp,2022.2.2,Win32,60.0528465,,,,,,,,,,,,,,,,,,masks/mask_004.jpg,0,4,4,3,1,,,,,,,,,,,,,,,,,,,,,,,,,,,,,,,,,,,,,,,,,,,,,,,,,,,,,,,,,,,,,,,,,,,,,,,,,,,,,,,,,,,,,,,,
882314,001,2022-11-14_24h28.08.259,Info_measure_main_exp,2022.2.2,Win32,60.0528465,,,,,,,,,,,,,,,,,,,,,,,,-0.122222194,0.033333319,1,0,0,response7disk,1,93.1556,1,0.000925912,0.009259259,1,0,0,center_square,0,2,2,2,1,0,131,5,5,2526,2526,prac_patch/patch0002526.jpg,prac_patch/patch0002526.jpg,,,,,,,,,,,,,,,,,,,,,,,,,,,,,,,,,,,,,,,,,,,,,,,,,,,,,,,,,,,,
882314,001,2022-11-14_24h28.08.259,Info_measure_main_exp,2022.2.2,Win32,60.0528465,,,,,,,,,,,,,,,,,,,,,,,,,,,,,,,,,,,,,,,,,,,,,,,,,,,,,,,,,,,space,2.8666,,,,,,,,,,,,,,,,,,,,,,,,,,,,,,,,,,,,,,,,,,,,,,,,,,,
882314,001,2022-11-14_24h28.08.259,Info_measure_main_exp,2022.2.2,Win32,60.0528465,,,,,,,,,,,,,,,,,,masks/mask_003.jpg,,,,,,,,,,,,,,,,,,,,,,,,,,,,,,,,,,,,,,,,,,,0,0,0,2,1,,,,,,,,,,,,,,,,,,,,,,,,,,,,,,,,,,,,,,,,,,,,,,
882314,001,2022-11-14_24h28.08.259,Info_measure_main_exp,2022.2.2,Win32,60.0528465,,,,,,,,,,,,,,,,,,masks/mask_005.jpg,,,,,,,,,,,,,,,,,,,,,,,,,,,,,,,,,,,,,,,,,,,0,1,1,4,1,,,,,,,,,,,,,,,,,,,,,,,,,,,,,,,,,,,,,,,,,,,,,,
882314,001,2022-11-14_24h28.08.259,Info_measure_main_exp,2022.2.2,Win32,60.0528465,,,,,,,,,,,,,,,,,,masks/mask_004.jpg,,,,,,,,,,,,,,,,,,,,,,,,,,,,,,,,,,,,,,,,,,,0,2,2,3,1,,,,,,,,,,,,,,,,,,,,,,,,,,,,,,,,,,,,,,,,,,,,,,
882314,001,2022-11-14_24h28.08.259,Info_measure_main_exp,2022.2.2,Win32,60.0528465,,,,,,,,,,,,,,,,,,masks/mask_001.jpg,,,,,,,,,,,,,,,,,,,,,,,,,,,,,,,,,,,,,,,,,,,0,3,3,0,1,,,,,,,,,,,,,,,,,,,,,,,,,,,,,,,,,,,,,,,,,,,,,,
882314,001,2022-11-14_24h28.08.259,Info_measure_main_exp,2022.2.2,Win32,60.0528465,,,,,,,,,,,,,,,,,,masks/mask_002.jpg,,,,,,,,,,,,,,,,,,,,,,,,,,,,,,,,,,,,,,,,,,,0,4,4,1,1,,,,,,,,,,,,,,,,,,,,,,,,,,,,,,,,,,,,,,,,,,,,,,
882314,001,2022-11-14_24h28.08.259,Info_measure_main_exp,2022.2.2,Win32,60.0528465,,,,,,,,,,,,,,,,,,masks/mask_001.jpg,,,,,,,,,,,,,,,,,,,,,,,,,,,,,,,,,,,,,,,,,,,,,,,,0,0,0,0,1,,,,,,,,,,,,,,,,,,,,,,,,,,,,,,,,,,,,,,,,,
882314,001,2022-11-14_24h28.08.259,Info_measure_main_exp,2022.2.2,Win32,60.0528465,,,,,,,,,,,,,,,,,,masks/mask_002.jpg,,,,,,,,,,,,,,,,,,,,,,,,,,,,,,,,,,,,,,,,,,,,,,,,0,1,1,1,1,,,,,,,,,,,,,,,,,,,,,,,,,,,,,,,,,,,,,,,,,
882314,001,2022-11-14_24h28.08.259,Info_measure_main_exp,2022.2.2,Win32,60.0528465,,,,,,,,,,,,,,,,,,masks/mask_003.jpg,,,,,,,,,,,,,,,,,,,,,,,,,,,,,,,,,,,,,,,,,,,,,,,,0,2,2,2,1,,,,,,,,,,,,,,,,,,,,,,,,,,,,,,,,,,,,,,,,,
882314,001,2022-11-14_24h28.08.259,Info_measure_main_exp,2022.2.2,Win32,60.0528465,,,,,,,,,,,,,,,,,,masks/mask_005.jpg,,,,,,,,,,,,,,,,,,,,,,,,,,,,,,,,,,,,,,,,,,,,,,,,0,3,3,4,1,,,,,,,,,,,,,,,,,,,,,,,,,,,,,,,,,,,,,,,,,
882314,001,2022-11-14_24h28.08.259,Info_measure_main_exp,2022.2.2,Win32,60.0528465,,,,,,,,,,,,,,,,,,masks/mask_004.jpg,,,,,,,,,,,,,,,,,,,,,,,,,,,,,,,,,,,,,,,,,,,,,,,,0,4,4,3,1,,,,,,,,,,,,,,,,,,,,,,,,,,,,,,,,,,,,,,,,,
882314,001,2022-11-14_24h28.08.259,Info_measure_main_exp,2022.2.2,Win32,60.0528465,,,,,,,,,,,,,,,,,,,,,,,,,,,,,,6,1.1852,1,,,,,,,,,,,,0,131,5,5,2190,2250,absent_patch/patch0002190.jpg,absent_patch/patch0002250.jpg,,,,,,,,,,,,,,,,,,,,0.086111139,0.043518526,1,0,0,response1disk,1,-0.003703718,0.010185171,1,0,0,center_square,0,0,0,93,1,,,,,,,,,,,,,,,,,,,,,,,
882314,001,2022-11-14_24h28.08.259,Info_measure_main_exp,2022.2.2,Win32,60.0528465,,,,,,,,,,,,,,,,,,masks/mask_001.jpg,,,,,,,,,,,,,,,,,,,,,,,,,,,,,,,,,,,,,,,,,,,0,0,0,0,1,,,,,,,,,,,,,,,,,,,,,,,,,,,,,,,,,,,,,,,,,,,,,,
882314,001,2022-11-14_24h28.08.259,Info_measure_main_exp,2022.2.2,Win32,60.0528465,,,,,,,,,,,,,,,,,,masks/mask_005.jpg,,,,,,,,,,,,,,,,,,,,,,,,,,,,,,,,,,,,,,,,,,,0,1,1,4,1,,,,,,,,,,,,,,,,,,,,,,,,,,,,,,,,,,,,,,,,,,,,,,
882314,001,2022-11-14_24h28.08.259,Info_measure_main_exp,2022.2.2,Win32,60.0528465,,,,,,,,,,,,,,,,,,masks/mask_003.jpg,,,,,,,,,,,,,,,,,,,,,,,,,,,,,,,,,,,,,,,,,,,0,2,2,2,1,,,,,,,,,,,,,,,,,,,,,,,,,,,,,,,,,,,,,,,,,,,,,,
882314,001,2022-11-14_24h28.08.259,Info_measure_main_exp,2022.2.2,Win32,60.0528465,,,,,,,,,,,,,,,,,,masks/mask_002.jpg,,,,,,,,,,,,,,,,,,,,,,,,,,,,,,,,,,,,,,,,,,,0,3,3,1,1,,,,,,,,,,,,,,,,,,,,,,,,,,,,,,,,,,,,,,,,,,,,,,
882314,001,2022-11-14_24h28.08.259,Info_measure_main_exp,2022.2.2,Win32,60.0528465,,,,,,,,,,,,,,,,,,masks/mask_004.jpg,,,,,,,,,,,,,,,,,,,,,,,,,,,,,,,,,,,,,,,,,,,0,4,4,3,1,,,,,,,,,,,,,,,,,,,,,,,,,,,,,,,,,,,,,,,,,,,,,,
882314,001,2022-11-14_24h28.08.259,Info_measure_main_exp,2022.2.2,Win32,60.0528465,,,,,,,,,,,,,,,,,,masks/mask_005.jpg,,,,,,,,,,,,,,,,,,,,,,,,,,,,,,,,,,,,,,,,,,,,,,,,0,0,0,4,1,,,,,,,,,,,,,,,,,,,,,,,,,,,,,,,,,,,,,,,,,
882314,001,2022-11-14_24h28.08.259,Info_measure_main_exp,2022.2.2,Win32,60.0528465,,,,,,,,,,,,,,,,,,masks/mask_003.jpg,,,,,,,,,,,,,,,,,,,,,,,,,,,,,,,,,,,,,,,,,,,,,,,,0,1,1,2,1,,,,,,,,,,,,,,,,,,,,,,,,,,,,,,,,,,,,,,,,,
882314,001,2022-11-14_24h28.08.259,Info_measure_main_exp,2022.2.2,Win32,60.0528465,,,,,,,,,,,,,,,,,,masks/mask_001.jpg,,,,,,,,,,,,,,,,,,,,,,,,,,,,,,,,,,,,,,,,,,,,,,,,0,2,2,0,1,,,,,,,,,,,,,,,,,,,,,,,,,,,,,,,,,,,,,,,,,
882314,001,2022-11-14_24h28.08.259,Info_measure_main_exp,2022.2.2,Win32,60.0528465,,,,,,,,,,,,,,,,,,masks/mask_004.jpg,,,,,,,,,,,,,,,,,,,,,,,,,,,,,,,,,,,,,,,,,,,,,,,,0,3,3,3,1,,,,,,,,,,,,,,,,,,,,,,,,,,,,,,,,,,,,,,,,,
882314,001,2022-11-14_24h28.08.259,Info_measure_main_exp,2022.2.2,Win32,60.0528465,,,,,,,,,,,,,,,,,,masks/mask_002.jpg,,,,,,,,,,,,,,,,,,,,,,,,,,,,,,,,,,,,,,,,,,,,,,,,0,4,4,1,1,,,,,,,,,,,,,,,,,,,,,,,,,,,,,,,,,,,,,,,,,
882314,001,2022-11-14_24h28.08.259,Info_measure_main_exp,2022.2.2,Win32,60.0528465,,,,,,,,,,,,,,,,,,,,,,,,,,,,,,7,0.8496,1,,,,,,,,,,,,0,131,5,5,1974,2166,absent_patch/patch0001974.jpg,absent_patch/patch0002166.jpg,,,,,,,,,,,,,,,,,,,,0.042592578,0.099074081,1,0,0,response1disk,2,0.002777806,-0.0074074,1,0,0,center_square,0,1,1,77,1,,,,,,,,,,,,,,,,,,,,,,,
882314,001,2022-11-14_24h28.08.259,Info_measure_main_exp,2022.2.2,Win32,60.0528465,,,,,,,,,,,,,,,,,,masks/mask_003.jpg,,,,,,,,,,,,,,,,,,,,,,,,,,,,,,,,,,,,,,,,,,,0,0,0,2,1,,,,,,,,,,,,,,,,,,,,,,,,,,,,,,,,,,,,,,,,,,,,,,
882314,001,2022-11-14_24h28.08.259,Info_measure_main_exp,2022.2.2,Win32,60.0528465,,,,,,,,,,,,,,,,,,masks/mask_001.jpg,,,,,,,,,,,,,,,,,,,,,,,,,,,,,,,,,,,,,,,,,,,0,1,1,0,1,,,,,,,,,,,,,,,,,,,,,,,,,,,,,,,,,,,,,,,,,,,,,,
882314,001,2022-11-14_24h28.08.259,Info_measure_main_exp,2022.2.2,Win32,60.0528465,,,,,,,,,,,,,,,,,,masks/mask_005.jpg,,,,,,,,,,,,,,,,,,,,,,,,,,,,,,,,,,,,,,,,,,,0,2,2,4,1,,,,,,,,,,,,,,,,,,,,,,,,,,,,,,,,,,,,,,,,,,,,,,
882314,001,2022-11-14_24h28.08.259,Info_measure_main_exp,2022.2.2,Win32,60.0528465,,,,,,,,,,,,,,,,,,masks/mask_004.jpg,,,,,,,,,,,,,,,,,,,,,,,,,,,,,,,,,,,,,,,,,,,0,3,3,3,1,,,,,,,,,,,,,,,,,,,,,,,,,,,,,,,,,,,,,,,,,,,,,,
882314,001,2022-11-14_24h28.08.259,Info_measure_main_exp,2022.2.2,Win32,60.0528465,,,,,,,,,,,,,,,,,,masks/mask_002.jpg,,,,,,,,,,,,,,,,,,,,,,,,,,,,,,,,,,,,,,,,,,,0,4,4,1,1,,,,,,,,,,,,,,,,,,,,,,,,,,,,,,,,,,,,,,,,,,,,,,
882314,001,2022-11-14_24h28.08.259,Info_measure_main_exp,2022.2.2,Win32,60.0528465,,,,,,,,,,,,,,,,,,masks/mask_002.jpg,,,,,,,,,,,,,,,,,,,,,,,,,,,,,,,,,,,,,,,,,,,,,,,,0,0,0,1,1,,,,,,,,,,,,,,,,,,,,,,,,,,,,,,,,,,,,,,,,,
882314,001,2022-11-14_24h28.08.259,Info_measure_main_exp,2022.2.2,Win32,60.0528465,,,,,,,,,,,,,,,,,,masks/mask_001.jpg,,,,,,,,,,,,,,,,,,,,,,,,,,,,,,,,,,,,,,,,,,,,,,,,0,1,1,0,1,,,,,,,,,,,,,,,,,,,,,,,,,,,,,,,,,,,,,,,,,
882314,001,2022-11-14_24h28.08.259,Info_measure_main_exp,2022.2.2,Win32,60.0528465,,,,,,,,,,,,,,,,,,masks/mask_003.jpg,,,,,,,,,,,,,,,,,,,,,,,,,,,,,,,,,,,,,,,,,,,,,,,,0,2,2,2,1,,,,,,,,,,,,,,,,,,,,,,,,,,,,,,,,,,,,,,,,,
882314,001,2022-11-14_24h28.08.259,Info_measure_main_exp,2022.2.2,Win32,60.0528465,,,,,,,,,,,,,,,,,,masks/mask_004.jpg,,,,,,,,,,,,,,,,,,,,,,,,,,,,,,,,,,,,,,,,,,,,,,,,0,3,3,3,1,,,,,,,,,,,,,,,,,,,,,,,,,,,,,,,,,,,,,,,,,
882314,001,2022-11-14_24h28.08.259,Info_measure_main_exp,2022.2.2,Win32,60.0528465,,,,,,,,,,,,,,,,,,masks/mask_005.jpg,,,,,,,,,,,,,,,,,,,,,,,,,,,,,,,,,,,,,,,,,,,,,,,,0,4,4,4,1,,,,,,,,,,,,,,,,,,,,,,,,,,,,,,,,,,,,,,,,,
882314,001,2022-11-14_24h28.08.259,Info_measure_main_exp,2022.2.2,Win32,60.0528465,,,,,,,,,,,,,,,,,,,,,,,,,,,,,,7,0.5162,1,,,,,,,,,,,,0,131,5,5,2166,2298,absent_patch/patch0002166.jpg,absent_patch/patch0002298.jpg,,,,,,,,,,,,,,,,,,,,0.025000042,0.098148134,1,0,0,response1disk,3,0.011111153,-0.002777771,1,0,0,center_square,0,2,2,52,1,,,,,,,,,,,,,,,,,,,,,,,
882314,001,2022-11-14_24h28.08.259,Info_measure_main_exp,2022.2.2,Win32,60.0528465,,,,,,,,,,,,,,,,,,masks/mask_005.jpg,,,,,,,,,,,,,,,,,,,,,,,,,,,,,,,,,,,,,,,,,,,0,0,0,4,1,,,,,,,,,,,,,,,,,,,,,,,,,,,,,,,,,,,,,,,,,,,,,,
882314,001,2022-11-14_24h28.08.259,Info_measure_main_exp,2022.2.2,Win32,60.0528465,,,,,,,,,,,,,,,,,,masks/mask_003.jpg,,,,,,,,,,,,,,,,,,,,,,,,,,,,,,,,,,,,,,,,,,,0,1,1,2,1,,,,,,,,,,,,,,,,,,,,,,,,,,,,,,,,,,,,,,,,,,,,,,
882314,001,2022-11-14_24h28.08.259,Info_measure_main_exp,2022.2.2,Win32,60.0528465,,,,,,,,,,,,,,,,,,masks/mask_001.jpg,,,,,,,,,,,,,,,,,,,,,,,,,,,,,,,,,,,,,,,,,,,0,2,2,0,1,,,,,,,,,,,,,,,,,,,,,,,,,,,,,,,,,,,,,,,,,,,,,,
882314,001,2022-11-14_24h28.08.259,Info_measure_main_exp,2022.2.2,Win32,60.0528465,,,,,,,,,,,,,,,,,,masks/mask_004.jpg,,,,,,,,,,,,,,,,,,,,,,,,,,,,,,,,,,,,,,,,,,,0,3,3,3,1,,,,,,,,,,,,,,,,,,,,,,,,,,,,,,,,,,,,,,,,,,,,,,
882314,001,2022-11-14_24h28.08.259,Info_measure_main_exp,2022.2.2,Win32,60.0528465,,,,,,,,,,,,,,,,,,masks/mask_002.jpg,,,,,,,,,,,,,,,,,,,,,,,,,,,,,,,,,,,,,,,,,,,0,4,4,1,1,,,,,,,,,,,,,,,,,,,,,,,,,,,,,,,,,,,,,,,,,,,,,,
882314,001,2022-11-14_24h28.08.259,Info_measure_main_exp,2022.2.2,Win32,60.0528465,,,,,,,,,,,,,,,,,,masks/mask_003.jpg,,,,,,,,,,,,,,,,,,,,,,,,,,,,,,,,,,,,,,,,,,,,,,,,0,0,0,2,1,,,,,,,,,,,,,,,,,,,,,,,,,,,,,,,,,,,,,,,,,
882314,001,2022-11-14_24h28.08.259,Info_measure_main_exp,2022.2.2,Win32,60.0528465,,,,,,,,,,,,,,,,,,masks/mask_001.jpg,,,,,,,,,,,,,,,,,,,,,,,,,,,,,,,,,,,,,,,,,,,,,,,,0,1,1,0,1,,,,,,,,,,,,,,,,,,,,,,,,,,,,,,,,,,,,,,,,,
882314,001,2022-11-14_24h28.08.259,Info_measure_main_exp,2022.2.2,Win32,60.0528465,,,,,,,,,,,,,,,,,,masks/mask_005.jpg,,,,,,,,,,,,,,,,,,,,,,,,,,,,,,,,,,,,,,,,,,,,,,,,0,2,2,4,1,,,,,,,,,,,,,,,,,,,,,,,,,,,,,,,,,,,,,,,,,
882314,001,2022-11-14_24h28.08.259,Info_measure_main_exp,2022.2.2,Win32,60.0528465,,,,,,,,,,,,,,,,,,masks/mask_002.jpg,,,,,,,,,,,,,,,,,,,,,,,,,,,,,,,,,,,,,,,,,,,,,,,,0,3,3,1,1,,,,,,,,,,,,,,,,,,,,,,,,,,,,,,,,,,,,,,,,,
882314,001,2022-11-14_24h28.08.259,Info_measure_main_exp,2022.2.2,Win32,60.0528465,,,,,,,,,,,,,,,,,,masks/mask_004.jpg,,,,,,,,,,,,,,,,,,,,,,,,,,,,,,,,,,,,,,,,,,,,,,,,0,4,4,3,1,,,,,,,,,,,,,,,,,,,,,,,,,,,,,,,,,,,,,,,,,
882314,001,2022-11-14_24h28.08.259,Info_measure_main_exp,2022.2.2,Win32,60.0528465,,,,,,,,,,,,,,,,,,,,,,,,,,,,,,7,0.5338,1,,,,,,,,,,,,0,131,5,5,2238,2214,absent_patch/patch0002238.jpg,absent_patch/patch0002214.jpg,,,,,,,,,,,,,,,,,,,,0.031481496,0.081481474,1,0,0,response1disk,4,0.000925912,0.01203703,1,0,0,center_square,0,3,3,81,1,,,,,,,,,,,,,,,,,,,,,,,
882314,001,2022-11-14_24h28.08.259,Info_measure_main_exp,2022.2.2,Win32,60.0528465,,,,,,,,,,,,,,,,,,masks/mask_005.jpg,,,,,,,,,,,,,,,,,,,,,,,,,,,,,,,,,,,,,,,,,,,0,0,0,4,1,,,,,,,,,,,,,,,,,,,,,,,,,,,,,,,,,,,,,,,,,,,,,,
882314,001,2022-11-14_24h28.08.259,Info_measure_main_exp,2022.2.2,Win32,60.0528465,,,,,,,,,,,,,,,,,,masks/mask_003.jpg,,,,,,,,,,,,,,,,,,,,,,,,,,,,,,,,,,,,,,,,,,,0,1,1,2,1,,,,,,,,,,,,,,,,,,,,,,,,,,,,,,,,,,,,,,,,,,,,,,
882314,001,2022-11-14_24h28.08.259,Info_measure_main_exp,2022.2.2,Win32,60.0528465,,,,,,,,,,,,,,,,,,masks/mask_004.jpg,,,,,,,,,,,,,,,,,,,,,,,,,,,,,,,,,,,,,,,,,,,0,2,2,3,1,,,,,,,,,,,,,,,,,,,,,,,,,,,,,,,,,,,,,,,,,,,,,,
882314,001,2022-11-14_24h28.08.259,Info_measure_main_exp,2022.2.2,Win32,60.0528465,,,,,,,,,,,,,,,,,,masks/mask_001.jpg,,,,,,,,,,,,,,,,,,,,,,,,,,,,,,,,,,,,,,,,,,,0,3,3,0,1,,,,,,,,,,,,,,,,,,,,,,,,,,,,,,,,,,,,,,,,,,,,,,
882314,001,2022-11-14_24h28.08.259,Info_measure_main_exp,2022.2.2,Win32,60.0528465,,,,,,,,,,,,,,,,,,masks/mask_002.jpg,,,,,,,,,,,,,,,,,,,,,,,,,,,,,,,,,,,,,,,,,,,0,4,4,1,1,,,,,,,,,,,,,,,,,,,,,,,,,,,,,,,,,,,,,,,,,,,,,,
882314,001,2022-11-14_24h28.08.259,Info_measure_main_exp,2022.2.2,Win32,60.0528465,,,,,,,,,,,,,,,,,,masks/mask_005.jpg,,,,,,,,,,,,,,,,,,,,,,,,,,,,,,,,,,,,,,,,,,,,,,,,0,0,0,4,1,,,,,,,,,,,,,,,,,,,,,,,,,,,,,,,,,,,,,,,,,
882314,001,2022-11-14_24h28.08.259,Info_measure_main_exp,2022.2.2,Win32,60.0528465,,,,,,,,,,,,,,,,,,masks/mask_002.jpg,,,,,,,,,,,,,,,,,,,,,,,,,,,,,,,,,,,,,,,,,,,,,,,,0,1,1,1,1,,,,,,,,,,,,,,,,,,,,,,,,,,,,,,,,,,,,,,,,,
882314,001,2022-11-14_24h28.08.259,Info_measure_main_exp,2022.2.2,Win32,60.0528465,,,,,,,,,,,,,,,,,,masks/mask_004.jpg,,,,,,,,,,,,,,,,,,,,,,,,,,,,,,,,,,,,,,,,,,,,,,,,0,2,2,3,1,,,,,,,,,,,,,,,,,,,,,,,,,,,,,,,,,,,,,,,,,
882314,001,2022-11-14_24h28.08.259,Info_measure_main_exp,2022.2.2,Win32,60.0528465,,,,,,,,,,,,,,,,,,masks/mask_003.jpg,,,,,,,,,,,,,,,,,,,,,,,,,,,,,,,,,,,,,,,,,,,,,,,,0,3,3,2,1,,,,,,,,,,,,,,,,,,,,,,,,,,,,,,,,,,,,,,,,,
882314,001,2022-11-14_24h28.08.259,Info_measure_main_exp,2022.2.2,Win32,60.0528465,,,,,,,,,,,,,,,,,,masks/mask_001.jpg,,,,,,,,,,,,,,,,,,,,,,,,,,,,,,,,,,,,,,,,,,,,,,,,0,4,4,0,1,,,,,,,,,,,,,,,,,,,,,,,,,,,,,,,,,,,,,,,,,
882314,001,2022-11-14_24h28.08.259,Info_measure_main_exp,2022.2.2,Win32,60.0528465,,,,,,,,,,,,,,,,,,,,,,,,,,,,,,7,0.7318,1,,,,,,,,,,,,0,131,5,5,2214,2166,absent_patch/patch0002214.jpg,absent_patch/patch0002166.jpg,,,,,,,,,,,,,,,,,,,,0.01944443,0.069444444,1,0,0,response1disk,5,-0.011111083,0,1,0,0,center_square,0,4,4,109,1,,,,,,,,,,,,,,,,,,,,,,,
882314,001,2022-11-14_24h28.08.259,Info_measure_main_exp,2022.2.2,Win32,60.0528465,,,,,,,,,,,,,,,,,,masks/mask_004.jpg,,,,,,,,,,,,,,,,,,,,,,,,,,,,,,,,,,,,,,,,,,,0,0,0,3,1,,,,,,,,,,,,,,,,,,,,,,,,,,,,,,,,,,,,,,,,,,,,,,
882314,001,2022-11-14_24h28.08.259,Info_measure_main_exp,2022.2.2,Win32,60.0528465,,,,,,,,,,,,,,,,,,masks/mask_003.jpg,,,,,,,,,,,,,,,,,,,,,,,,,,,,,,,,,,,,,,,,,,,0,1,1,2,1,,,,,,,,,,,,,,,,,,,,,,,,,,,,,,,,,,,,,,,,,,,,,,
882314,001,2022-11-14_24h28.08.259,Info_measure_main_exp,2022.2.2,Win32,60.0528465,,,,,,,,,,,,,,,,,,masks/mask_002.jpg,,,,,,,,,,,,,,,,,,,,,,,,,,,,,,,,,,,,,,,,,,,0,2,2,1,1,,,,,,,,,,,,,,,,,,,,,,,,,,,,,,,,,,,,,,,,,,,,,,
882314,001,2022-11-14_24h28.08.259,Info_measure_main_exp,2022.2.2,Win32,60.0528465,,,,,,,,,,,,,,,,,,masks/mask_001.jpg,,,,,,,,,,,,,,,,,,,,,,,,,,,,,,,,,,,,,,,,,,,0,3,3,0,1,,,,,,,,,,,,,,,,,,,,,,,,,,,,,,,,,,,,,,,,,,,,,,
882314,001,2022-11-14_24h28.08.259,Info_measure_main_exp,2022.2.2,Win32,60.0528465,,,,,,,,,,,,,,,,,,masks/mask_005.jpg,,,,,,,,,,,,,,,,,,,,,,,,,,,,,,,,,,,,,,,,,,,0,4,4,4,1,,,,,,,,,,,,,,,,,,,,,,,,,,,,,,,,,,,,,,,,,,,,,,
882314,001,2022-11-14_24h28.08.259,Info_measure_main_exp,2022.2.2,Win32,60.0528465,,,,,,,,,,,,,,,,,,masks/mask_004.jpg,,,,,,,,,,,,,,,,,,,,,,,,,,,,,,,,,,,,,,,,,,,,,,,,0,0,0,3,1,,,,,,,,,,,,,,,,,,,,,,,,,,,,,,,,,,,,,,,,,
882314,001,2022-11-14_24h28.08.259,Info_measure_main_exp,2022.2.2,Win32,60.0528465,,,,,,,,,,,,,,,,,,masks/mask_001.jpg,,,,,,,,,,,,,,,,,,,,,,,,,,,,,,,,,,,,,,,,,,,,,,,,0,1,1,0,1,,,,,,,,,,,,,,,,,,,,,,,,,,,,,,,,,,,,,,,,,
882314,001,2022-11-14_24h28.08.259,Info_measure_main_exp,2022.2.2,Win32,60.0528465,,,,,,,,,,,,,,,,,,masks/mask_002.jpg,,,,,,,,,,,,,,,,,,,,,,,,,,,,,,,,,,,,,,,,,,,,,,,,0,2,2,1,1,,,,,,,,,,,,,,,,,,,,,,,,,,,,,,,,,,,,,,,,,
882314,001,2022-11-14_24h28.08.259,Info_measure_main_exp,2022.2.2,Win32,60.0528465,,,,,,,,,,,,,,,,,,masks/mask_005.jpg,,,,,,,,,,,,,,,,,,,,,,,,,,,,,,,,,,,,,,,,,,,,,,,,0,3,3,4,1,,,,,,,,,,,,,,,,,,,,,,,,,,,,,,,,,,,,,,,,,
882314,001,2022-11-14_24h28.08.259,Info_measure_main_exp,2022.2.2,Win32,60.0528465,,,,,,,,,,,,,,,,,,masks/mask_003.jpg,,,,,,,,,,,,,,,,,,,,,,,,,,,,,,,,,,,,,,,,,,,,,,,,0,4,4,2,1,,,,,,,,,,,,,,,,,,,,,,,,,,,,,,,,,,,,,,,,,
882314,001,2022-11-14_24h28.08.259,Info_measure_main_exp,2022.2.2,Win32,60.0528465,,,,,,,,,,,,,,,,,,,,,,,,,,,,,,5,1.7487,1,,,,,,,,,,,,0,131,5,5,1986,2238,absent_patch/patch0001986.jpg,absent_patch/patch0002238.jpg,,,,,,,,,,,,,,,,,,,,0.101851852,-0.034259266,1,0,0,response3disk,6,-0.006481453,0.003703683,1,0,0,center_square,0,5,5,31,1,,,,,,,,,,,,,,,,,,,,,,,
882314,001,2022-11-14_24h28.08.259,Info_measure_main_exp,2022.2.2,Win32,60.0528465,,,,,,,,,,,,,,,,,,masks/mask_004.jpg,,,,,,,,,,,,,,,,,,,,,,,,,,,,,,,,,,,,,,,,,,,0,0,0,3,1,,,,,,,,,,,,,,,,,,,,,,,,,,,,,,,,,,,,,,,,,,,,,,
882314,001,2022-11-14_24h28.08.259,Info_measure_main_exp,2022.2.2,Win32,60.0528465,,,,,,,,,,,,,,,,,,masks/mask_005.jpg,,,,,,,,,,,,,,,,,,,,,,,,,,,,,,,,,,,,,,,,,,,0,1,1,4,1,,,,,,,,,,,,,,,,,,,,,,,,,,,,,,,,,,,,,,,,,,,,,,
882314,001,2022-11-14_24h28.08.259,Info_measure_main_exp,2022.2.2,Win32,60.0528465,,,,,,,,,,,,,,,,,,masks/mask_002.jpg,,,,,,,,,,,,,,,,,,,,,,,,,,,,,,,,,,,,,,,,,,,0,2,2,1,1,,,,,,,,,,,,,,,,,,,,,,,,,,,,,,,,,,,,,,,,,,,,,,
882314,001,2022-11-14_24h28.08.259,Info_measure_main_exp,2022.2.2,Win32,60.0528465,,,,,,,,,,,,,,,,,,masks/mask_003.jpg,,,,,,,,,,,,,,,,,,,,,,,,,,,,,,,,,,,,,,,,,,,0,3,3,2,1,,,,,,,,,,,,,,,,,,,,,,,,,,,,,,,,,,,,,,,,,,,,,,
882314,001,2022-11-14_24h28.08.259,Info_measure_main_exp,2022.2.2,Win32,60.0528465,,,,,,,,,,,,,,,,,,masks/mask_001.jpg,,,,,,,,,,,,,,,,,,,,,,,,,,,,,,,,,,,,,,,,,,,0,4,4,0,1,,,,,,,,,,,,,,,,,,,,,,,,,,,,,,,,,,,,,,,,,,,,,,
882314,001,2022-11-14_24h28.08.259,Info_measure_main_exp,2022.2.2,Win32,60.0528465,,,,,,,,,,,,,,,,,,masks/mask_002.jpg,,,,,,,,,,,,,,,,,,,,,,,,,,,,,,,,,,,,,,,,,,,,,,,,0,0,0,1,1,,,,,,,,,,,,,,,,,,,,,,,,,,,,,,,,,,,,,,,,,
882314,001,2022-11-14_24h28.08.259,Info_measure_main_exp,2022.2.2,Win32,60.0528465,,,,,,,,,,,,,,,,,,masks/mask_001.jpg,,,,,,,,,,,,,,,,,,,,,,,,,,,,,,,,,,,,,,,,,,,,,,,,0,1,1,0,1,,,,,,,,,,,,,,,,,,,,,,,,,,,,,,,,,,,,,,,,,
882314,001,2022-11-14_24h28.08.259,Info_measure_main_exp,2022.2.2,Win32,60.0528465,,,,,,,,,,,,,,,,,,masks/mask_003.jpg,,,,,,,,,,,,,,,,,,,,,,,,,,,,,,,,,,,,,,,,,,,,,,,,0,2,2,2,1,,,,,,,,,,,,,,,,,,,,,,,,,,,,,,,,,,,,,,,,,
882314,001,2022-11-14_24h28.08.259,Info_measure_main_exp,2022.2.2,Win32,60.0528465,,,,,,,,,,,,,,,,,,masks/mask_004.jpg,,,,,,,,,,,,,,,,,,,,,,,,,,,,,,,,,,,,,,,,,,,,,,,,0,3,3,3,1,,,,,,,,,,,,,,,,,,,,,,,,,,,,,,,,,,,,,,,,,
882314,001,2022-11-14_24h28.08.259,Info_measure_main_exp,2022.2.2,Win32,60.0528465,,,,,,,,,,,,,,,,,,masks/mask_005.jpg,,,,,,,,,,,,,,,,,,,,,,,,,,,,,,,,,,,,,,,,,,,,,,,,0,4,4,4,1,,,,,,,,,,,,,,,,,,,,,,,,,,,,,,,,,,,,,,,,,
882314,001,2022-11-14_24h28.08.259,Info_measure_main_exp,2022.2.2,Win32,60.0528465,,,,,,,,,,,,,,,,,,,,,,,,,,,,,,7,0.5845,1,,,,,,,,,,,,1,131,5,5,1,2214,present_patch/cong_131_5_a.jpg,absent_patch/patch0002214.jpg,,,,,,,,,,,,,,,,,,,,0.040740755,0.092592593,1,0,0,response1disk,7,0.014814801,0.005555541,1,0,0,center_square,0,6,6,4,1,,,,,,,,,,,,,,,,,,,,,,,
882314,001,2022-11-14_24h28.08.259,Info_measure_main_exp,2022.2.2,Win32,60.0528465,,,,,,,,,,,,,,,,,,masks/mask_003.jpg,,,,,,,,,,,,,,,,,,,,,,,,,,,,,,,,,,,,,,,,,,,0,0,0,2,1,,,,,,,,,,,,,,,,,,,,,,,,,,,,,,,,,,,,,,,,,,,,,,
882314,001,2022-11-14_24h28.08.259,Info_measure_main_exp,2022.2.2,Win32,60.0528465,,,,,,,,,,,,,,,,,,masks/mask_001.jpg,,,,,,,,,,,,,,,,,,,,,,,,,,,,,,,,,,,,,,,,,,,0,1,1,0,1,,,,,,,,,,,,,,,,,,,,,,,,,,,,,,,,,,,,,,,,,,,,,,
882314,001,2022-11-14_24h28.08.259,Info_measure_main_exp,2022.2.2,Win32,60.0528465,,,,,,,,,,,,,,,,,,masks/mask_005.jpg,,,,,,,,,,,,,,,,,,,,,,,,,,,,,,,,,,,,,,,,,,,0,2,2,4,1,,,,,,,,,,,,,,,,,,,,,,,,,,,,,,,,,,,,,,,,,,,,,,
882314,001,2022-11-14_24h28.08.259,Info_measure_main_exp,2022.2.2,Win32,60.0528465,,,,,,,,,,,,,,,,,,masks/mask_004.jpg,,,,,,,,,,,,,,,,,,,,,,,,,,,,,,,,,,,,,,,,,,,0,3,3,3,1,,,,,,,,,,,,,,,,,,,,,,,,,,,,,,,,,,,,,,,,,,,,,,
882314,001,2022-11-14_24h28.08.259,Info_measure_main_exp,2022.2.2,Win32,60.0528465,,,,,,,,,,,,,,,,,,masks/mask_002.jpg,,,,,,,,,,,,,,,,,,,,,,,,,,,,,,,,,,,,,,,,,,,0,4,4,1,1,,,,,,,,,,,,,,,,,,,,,,,,,,,,,,,,,,,,,,,,,,,,,,
882314,001,2022-11-14_24h28.08.259,Info_measure_main_exp,2022.2.2,Win32,60.0528465,,,,,,,,,,,,,,,,,,masks/mask_004.jpg,,,,,,,,,,,,,,,,,,,,,,,,,,,,,,,,,,,,,,,,,,,,,,,,0,0,0,3,1,,,,,,,,,,,,,,,,,,,,,,,,,,,,,,,,,,,,,,,,,
882314,001,2022-11-14_24h28.08.259,Info_measure_main_exp,2022.2.2,Win32,60.0528465,,,,,,,,,,,,,,,,,,masks/mask_001.jpg,,,,,,,,,,,,,,,,,,,,,,,,,,,,,,,,,,,,,,,,,,,,,,,,0,1,1,0,1,,,,,,,,,,,,,,,,,,,,,,,,,,,,,,,,,,,,,,,,,
882314,001,2022-11-14_24h28.08.259,Info_measure_main_exp,2022.2.2,Win32,60.0528465,,,,,,,,,,,,,,,,,,masks/mask_005.jpg,,,,,,,,,,,,,,,,,,,,,,,,,,,,,,,,,,,,,,,,,,,,,,,,0,2,2,4,1,,,,,,,,,,,,,,,,,,,,,,,,,,,,,,,,,,,,,,,,,
882314,001,2022-11-14_24h28.08.259,Info_measure_main_exp,2022.2.2,Win32,60.0528465,,,,,,,,,,,,,,,,,,masks/mask_003.jpg,,,,,,,,,,,,,,,,,,,,,,,,,,,,,,,,,,,,,,,,,,,,,,,,0,3,3,2,1,,,,,,,,,,,,,,,,,,,,,,,,,,,,,,,,,,,,,,,,,
882314,001,2022-11-14_24h28.08.259,Info_measure_main_exp,2022.2.2,Win32,60.0528465,,,,,,,,,,,,,,,,,,masks/mask_002.jpg,,,,,,,,,,,,,,,,,,,,,,,,,,,,,,,,,,,,,,,,,,,,,,,,0,4,4,1,1,,,,,,,,,,,,,,,,,,,,,,,,,,,,,,,,,,,,,,,,,
882314,001,2022-11-14_24h28.08.259,Info_measure_main_exp,2022.2.2,Win32,60.0528465,,,,,,,,,,,,,,,,,,,,,,,,,,,,,,7,0.4503,1,,,,,,,,,,,,1,131,5,5,2082,1,absent_patch/patch0002082.jpg,present_patch/cong_131_5_a.jpg,,,,,,,,,,,,,,,,,,,,0.026851866,0.085185192,1,0,0,response1disk,8,0,0.006481489,1,0,0,center_square,0,7,7,65,1,,,,,,,,,,,,,,,,,,,,,,,
882314,001,2022-11-14_24h28.08.259,Info_measure_main_exp,2022.2.2,Win32,60.0528465,,,,,,,,,,,,,,,,,,masks/mask_003.jpg,,,,,,,,,,,,,,,,,,,,,,,,,,,,,,,,,,,,,,,,,,,0,0,0,2,1,,,,,,,,,,,,,,,,,,,,,,,,,,,,,,,,,,,,,,,,,,,,,,
882314,001,2022-11-14_24h28.08.259,Info_measure_main_exp,2022.2.2,Win32,60.0528465,,,,,,,,,,,,,,,,,,masks/mask_002.jpg,,,,,,,,,,,,,,,,,,,,,,,,,,,,,,,,,,,,,,,,,,,0,1,1,1,1,,,,,,,,,,,,,,,,,,,,,,,,,,,,,,,,,,,,,,,,,,,,,,
882314,001,2022-11-14_24h28.08.259,Info_measure_main_exp,2022.2.2,Win32,60.0528465,,,,,,,,,,,,,,,,,,masks/mask_005.jpg,,,,,,,,,,,,,,,,,,,,,,,,,,,,,,,,,,,,,,,,,,,0,2,2,4,1,,,,,,,,,,,,,,,,,,,,,,,,,,,,,,,,,,,,,,,,,,,,,,
882314,001,2022-11-14_24h28.08.259,Info_measure_main_exp,2022.2.2,Win32,60.0528465,,,,,,,,,,,,,,,,,,masks/mask_004.jpg,,,,,,,,,,,,,,,,,,,,,,,,,,,,,,,,,,,,,,,,,,,0,3,3,3,1,,,,,,,,,,,,,,,,,,,,,,,,,,,,,,,,,,,,,,,,,,,,,,
882314,001,2022-11-14_24h28.08.259,Info_measure_main_exp,2022.2.2,Win32,60.0528465,,,,,,,,,,,,,,,,,,masks/mask_001.jpg,,,,,,,,,,,,,,,,,,,,,,,,,,,,,,,,,,,,,,,,,,,0,4,4,0,1,,,,,,,,,,,,,,,,,,,,,,,,,,,,,,,,,,,,,,,,,,,,,,
882314,001,2022-11-14_24h28.08.259,Info_measure_main_exp,2022.2.2,Win32,60.0528465,,,,,,,,,,,,,,,,,,masks/mask_005.jpg,,,,,,,,,,,,,,,,,,,,,,,,,,,,,,,,,,,,,,,,,,,,,,,,0,0,0,4,1,,,,,,,,,,,,,,,,,,,,,,,,,,,,,,,,,,,,,,,,,
882314,001,2022-11-14_24h28.08.259,Info_measure_main_exp,2022.2.2,Win32,60.0528465,,,,,,,,,,,,,,,,,,masks/mask_004.jpg,,,,,,,,,,,,,,,,,,,,,,,,,,,,,,,,,,,,,,,,,,,,,,,,0,1,1,3,1,,,,,,,,,,,,,,,,,,,,,,,,,,,,,,,,,,,,,,,,,
882314,001,2022-11-14_24h28.08.259,Info_measure_main_exp,2022.2.2,Win32,60.0528465,,,,,,,,,,,,,,,,,,masks/mask_003.jpg,,,,,,,,,,,,,,,,,,,,,,,,,,,,,,,,,,,,,,,,,,,,,,,,0,2,2,2,1,,,,,,,,,,,,,,,,,,,,,,,,,,,,,,,,,,,,,,,,,
882314,001,2022-11-14_24h28.08.259,Info_measure_main_exp,2022.2.2,Win32,60.0528465,,,,,,,,,,,,,,,,,,masks/mask_001.jpg,,,,,,,,,,,,,,,,,,,,,,,,,,,,,,,,,,,,,,,,,,,,,,,,0,3,3,0,1,,,,,,,,,,,,,,,,,,,,,,,,,,,,,,,,,,,,,,,,,
882314,001,2022-11-14_24h28.08.259,Info_measure_main_exp,2022.2.2,Win32,60.0528465,,,,,,,,,,,,,,,,,,masks/mask_002.jpg,,,,,,,,,,,,,,,,,,,,,,,,,,,,,,,,,,,,,,,,,,,,,,,,0,4,4,1,1,,,,,,,,,,,,,,,,,,,,,,,,,,,,,,,,,,,,,,,,,
882314,001,2022-11-14_24h28.08.259,Info_measure_main_exp,2022.2.2,Win32,60.0528465,,,,,,,,,,,,,,,,,,,,,,,,,,,,,,0,0.7003,1,,,,,,,,,,,,0,131,5,5,2166,2166,absent_patch/patch0002166.jpg,absent_patch/patch0002166.jpg,,,,,,,,,,,,,,,,,,,,-0.037037037,0.081481474,1,0,0,response7disk,9,-0.002777735,-0.011111118,1,0,0,center_square,0,8,8,42,1,,,,,,,,,,,,,,,,,,,,,,,
882314,001,2022-11-14_24h28.08.259,Info_measure_main_exp,2022.2.2,Win32,60.0528465,,,,,,,,,,,,,,,,,,masks/mask_002.jpg,,,,,,,,,,,,,,,,,,,,,,,,,,,,,,,,,,,,,,,,,,,0,0,0,1,1,,,,,,,,,,,,,,,,,,,,,,,,,,,,,,,,,,,,,,,,,,,,,,
882314,001,2022-11-14_24h28.08.259,Info_measure_main_exp,2022.2.2,Win32,60.0528465,,,,,,,,,,,,,,,,,,masks/mask_004.jpg,,,,,,,,,,,,,,,,,,,,,,,,,,,,,,,,,,,,,,,,,,,0,1,1,3,1,,,,,,,,,,,,,,,,,,,,,,,,,,,,,,,,,,,,,,,,,,,,,,
882314,001,2022-11-14_24h28.08.259,Info_measure_main_exp,2022.2.2,Win32,60.0528465,,,,,,,,,,,,,,,,,,masks/mask_005.jpg,,,,,,,,,,,,,,,,,,,,,,,,,,,,,,,,,,,,,,,,,,,0,2,2,4,1,,,,,,,,,,,,,,,,,,,,,,,,,,,,,,,,,,,,,,,,,,,,,,
882314,001,2022-11-14_24h28.08.259,Info_measure_main_exp,2022.2.2,Win32,60.0528465,,,,,,,,,,,,,,,,,,masks/mask_001.jpg,,,,,,,,,,,,,,,,,,,,,,,,,,,,,,,,,,,,,,,,,,,0,3,3,0,1,,,,,,,,,,,,,,,,,,,,,,,,,,,,,,,,,,,,,,,,,,,,,,
882314,001,2022-11-14_24h28.08.259,Info_measure_main_exp,2022.2.2,Win32,60.0528465,,,,,,,,,,,,,,,,,,masks/mask_003.jpg,,,,,,,,,,,,,,,,,,,,,,,,,,,,,,,,,,,,,,,,,,,0,4,4,2,1,,,,,,,,,,,,,,,,,,,,,,,,,,,,,,,,,,,,,,,,,,,,,,
882314,001,2022-11-14_24h28.08.259,Info_measure_main_exp,2022.2.2,Win32,60.0528465,,,,,,,,,,,,,,,,,,masks/mask_004.jpg,,,,,,,,,,,,,,,,,,,,,,,,,,,,,,,,,,,,,,,,,,,,,,,,0,0,0,3,1,,,,,,,,,,,,,,,,,,,,,,,,,,,,,,,,,,,,,,,,,
882314,001,2022-11-14_24h28.08.259,Info_measure_main_exp,2022.2.2,Win32,60.0528465,,,,,,,,,,,,,,,,,,masks/mask_005.jpg,,,,,,,,,,,,,,,,,,,,,,,,,,,,,,,,,,,,,,,,,,,,,,,,0,1,1,4,1,,,,,,,,,,,,,,,,,,,,,,,,,,,,,,,,,,,,,,,,,
882314,001,2022-11-14_24h28.08.259,Info_measure_main_exp,2022.2.2,Win32,60.0528465,,,,,,,,,,,,,,,,,,masks/mask_003.jpg,,,,,,,,,,,,,,,,,,,,,,,,,,,,,,,,,,,,,,,,,,,,,,,,0,2,2,2,1,,,,,,,,,,,,,,,,,,,,,,,,,,,,,,,,,,,,,,,,,
882314,001,2022-11-14_24h28.08.259,Info_measure_main_exp,2022.2.2,Win32,60.0528465,,,,,,,,,,,,,,,,,,masks/mask_002.jpg,,,,,,,,,,,,,,,,,,,,,,,,,,,,,,,,,,,,,,,,,,,,,,,,0,3,3,1,1,,,,,,,,,,,,,,,,,,,,,,,,,,,,,,,,,,,,,,,,,
882314,001,2022-11-14_24h28.08.259,Info_measure_main_exp,2022.2.2,Win32,60.0528465,,,,,,,,,,,,,,,,,,masks/mask_001.jpg,,,,,,,,,,,,,,,,,,,,,,,,,,,,,,,,,,,,,,,,,,,,,,,,0,4,4,0,1,,,,,,,,,,,,,,,,,,,,,,,,,,,,,,,,,,,,,,,,,
882314,001,2022-11-14_24h28.08.259,Info_measure_main_exp,2022.2.2,Win32,60.0528465,,,,,,,,,,,,,,,,,,,,,,,,,,,,,,7,1.5005,1,,,,,,,,,,,,0,131,5,5,2154,2190,absent_patch/patch0002154.jpg,absent_patch/patch0002190.jpg,,,,,,,,,,,,,,,,,,,,0.058333362,0.16111109,1,0,0,response1disk,10,0.009259259,0.005555541,1,0,0,center_square,0,9,9,68,1,,,,,,,,,,,,,,,,,,,,,,,
882314,001,2022-11-14_24h28.08.259,Info_measure_main_exp,2022.2.2,Win32,60.0528465,,,,,,,,,,,,,,,,,,masks/mask_002.jpg,,,,,,,,,,,,,,,,,,,,,,,,,,,,,,,,,,,,,,,,,,,0,0,0,1,1,,,,,,,,,,,,,,,,,,,,,,,,,,,,,,,,,,,,,,,,,,,,,,
882314,001,2022-11-14_24h28.08.259,Info_measure_main_exp,2022.2.2,Win32,60.0528465,,,,,,,,,,,,,,,,,,masks/mask_005.jpg,,,,,,,,,,,,,,,,,,,,,,,,,,,,,,,,,,,,,,,,,,,0,1,1,4,1,,,,,,,,,,,,,,,,,,,,,,,,,,,,,,,,,,,,,,,,,,,,,,
882314,001,2022-11-14_24h28.08.259,Info_measure_main_exp,2022.2.2,Win32,60.0528465,,,,,,,,,,,,,,,,,,masks/mask_001.jpg,,,,,,,,,,,,,,,,,,,,,,,,,,,,,,,,,,,,,,,,,,,0,2,2,0,1,,,,,,,,,,,,,,,,,,,,,,,,,,,,,,,,,,,,,,,,,,,,,,
882314,001,2022-11-14_24h28.08.259,Info_measure_main_exp,2022.2.2,Win32,60.0528465,,,,,,,,,,,,,,,,,,masks/mask_004.jpg,,,,,,,,,,,,,,,,,,,,,,,,,,,,,,,,,,,,,,,,,,,0,3,3,3,1,,,,,,,,,,,,,,,,,,,,,,,,,,,,,,,,,,,,,,,,,,,,,,
882314,001,2022-11-14_24h28.08.259,Info_measure_main_exp,2022.2.2,Win32,60.0528465,,,,,,,,,,,,,,,,,,masks/mask_003.jpg,,,,,,,,,,,,,,,,,,,,,,,,,,,,,,,,,,,,,,,,,,,0,4,4,2,1,,,,,,,,,,,,,,,,,,,,,,,,,,,,,,,,,,,,,,,,,,,,,,
882314,001,2022-11-14_24h28.08.259,Info_measure_main_exp,2022.2.2,Win32,60.0528465,,,,,,,,,,,,,,,,,,masks/mask_005.jpg,,,,,,,,,,,,,,,,,,,,,,,,,,,,,,,,,,,,,,,,,,,,,,,,0,0,0,4,1,,,,,,,,,,,,,,,,,,,,,,,,,,,,,,,,,,,,,,,,,
882314,001,2022-11-14_24h28.08.259,Info_measure_main_exp,2022.2.2,Win32,60.0528465,,,,,,,,,,,,,,,,,,masks/mask_004.jpg,,,,,,,,,,,,,,,,,,,,,,,,,,,,,,,,,,,,,,,,,,,,,,,,0,1,1,3,1,,,,,,,,,,,,,,,,,,,,,,,,,,,,,,,,,,,,,,,,,
882314,001,2022-11-14_24h28.08.259,Info_measure_main_exp,2022.2.2,Win32,60.0528465,,,,,,,,,,,,,,,,,,masks/mask_003.jpg,,,,,,,,,,,,,,,,,,,,,,,,,,,,,,,,,,,,,,,,,,,,,,,,0,2,2,2,1,,,,,,,,,,,,,,,,,,,,,,,,,,,,,,,,,,,,,,,,,
882314,001,2022-11-14_24h28.08.259,Info_measure_main_exp,2022.2.2,Win32,60.0528465,,,,,,,,,,,,,,,,,,masks/mask_002.jpg,,,,,,,,,,,,,,,,,,,,,,,,,,,,,,,,,,,,,,,,,,,,,,,,0,3,3,1,1,,,,,,,,,,,,,,,,,,,,,,,,,,,,,,,,,,,,,,,,,
882314,001,2022-11-14_24h28.08.259,Info_measure_main_exp,2022.2.2,Win32,60.0528465,,,,,,,,,,,,,,,,,,masks/mask_001.jpg,,,,,,,,,,,,,,,,,,,,,,,,,,,,,,,,,,,,,,,,,,,,,,,,0,4,4,0,1,,,,,,,,,,,,,,,,,,,,,,,,,,,,,,,,,,,,,,,,,
882314,001,2022-11-14_24h28.08.259,Info_measure_main_exp,2022.2.2,Win32,60.0528465,,,,,,,,,,,,,,,,,,,,,,,,,,,,,,7,0.9999,1,,,,,,,,,,,,0,131,5,5,2250,2214,absent_patch/patch0002250.jpg,absent_patch/patch0002214.jpg,,,,,,,,,,,,,,,,,,,,0.065740727,0.111111111,1,0,0,response1disk,11,0.011111153,0.006481489,1,0,0,center_square,0,10,10,97,1,,,,,,,,,,,,,,,,,,,,,,,
882314,001,2022-11-14_24h28.08.259,Info_measure_main_exp,2022.2.2,Win32,60.0528465,,,,,,,,,,,,,,,,,,masks/mask_005.jpg,,,,,,,,,,,,,,,,,,,,,,,,,,,,,,,,,,,,,,,,,,,0,0,0,4,1,,,,,,,,,,,,,,,,,,,,,,,,,,,,,,,,,,,,,,,,,,,,,,
882314,001,2022-11-14_24h28.08.259,Info_measure_main_exp,2022.2.2,Win32,60.0528465,,,,,,,,,,,,,,,,,,masks/mask_004.jpg,,,,,,,,,,,,,,,,,,,,,,,,,,,,,,,,,,,,,,,,,,,0,1,1,3,1,,,,,,,,,,,,,,,,,,,,,,,,,,,,,,,,,,,,,,,,,,,,,,
882314,001,2022-11-14_24h28.08.259,Info_measure_main_exp,2022.2.2,Win32,60.0528465,,,,,,,,,,,,,,,,,,masks/mask_001.jpg,,,,,,,,,,,,,,,,,,,,,,,,,,,,,,,,,,,,,,,,,,,0,2,2,0,1,,,,,,,,,,,,,,,,,,,,,,,,,,,,,,,,,,,,,,,,,,,,,,
882314,001,2022-11-14_24h28.08.259,Info_measure_main_exp,2022.2.2,Win32,60.0528465,,,,,,,,,,,,,,,,,,masks/mask_002.jpg,,,,,,,,,,,,,,,,,,,,,,,,,,,,,,,,,,,,,,,,,,,0,3,3,1,1,,,,,,,,,,,,,,,,,,,,,,,,,,,,,,,,,,,,,,,,,,,,,,
882314,001,2022-11-14_24h28.08.259,Info_measure_main_exp,2022.2.2,Win32,60.0528465,,,,,,,,,,,,,,,,,,masks/mask_003.jpg,,,,,,,,,,,,,,,,,,,,,,,,,,,,,,,,,,,,,,,,,,,0,4,4,2,1,,,,,,,,,,,,,,,,,,,,,,,,,,,,,,,,,,,,,,,,,,,,,,
882314,001,2022-11-14_24h28.08.259,Info_measure_main_exp,2022.2.2,Win32,60.0528465,,,,,,,,,,,,,,,,,,masks/mask_003.jpg,,,,,,,,,,,,,,,,,,,,,,,,,,,,,,,,,,,,,,,,,,,,,,,,0,0,0,2,1,,,,,,,,,,,,,,,,,,,,,,,,,,,,,,,,,,,,,,,,,
882314,001,2022-11-14_24h28.08.259,Info_measure_main_exp,2022.2.2,Win32,60.0528465,,,,,,,,,,,,,,,,,,masks/mask_002.jpg,,,,,,,,,,,,,,,,,,,,,,,,,,,,,,,,,,,,,,,,,,,,,,,,0,1,1,1,1,,,,,,,,,,,,,,,,,,,,,,,,,,,,,,,,,,,,,,,,,
882314,001,2022-11-14_24h28.08.259,Info_measure_main_exp,2022.2.2,Win32,60.0528465,,,,,,,,,,,,,,,,,,masks/mask_005.jpg,,,,,,,,,,,,,,,,,,,,,,,,,,,,,,,,,,,,,,,,,,,,,,,,0,2,2,4,1,,,,,,,,,,,,,,,,,,,,,,,,,,,,,,,,,,,,,,,,,
882314,001,2022-11-14_24h28.08.259,Info_measure_main_exp,2022.2.2,Win32,60.0528465,,,,,,,,,,,,,,,,,,masks/mask_001.jpg,,,,,,,,,,,,,,,,,,,,,,,,,,,,,,,,,,,,,,,,,,,,,,,,0,3,3,0,1,,,,,,,,,,,,,,,,,,,,,,,,,,,,,,,,,,,,,,,,,
882314,001,2022-11-14_24h28.08.259,Info_measure_main_exp,2022.2.2,Win32,60.0528465,,,,,,,,,,,,,,,,,,masks/mask_004.jpg,,,,,,,,,,,,,,,,,,,,,,,,,,,,,,,,,,,,,,,,,,,,,,,,0,4,4,3,1,,,,,,,,,,,,,,,,,,,,,,,,,,,,,,,,,,,,,,,,,
882314,001,2022-11-14_24h28.08.259,Info_measure_main_exp,2022.2.2,Win32,60.0528465,,,,,,,,,,,,,,,,,,,,,,,,,,,,,,6,1.2345,1,,,,,,,,,,,,0,131,5,5,2142,2190,absent_patch/patch0002142.jpg,absent_patch/patch0002190.jpg,,,,,,,,,,,,,,,,,,,,0.100000028,0.041666667,1,0,0,response1disk,12,-0.008333347,0.008333312,1,0,0,center_square,0,11,11,70,1,,,,,,,,,,,,,,,,,,,,,,,
882314,001,2022-11-14_24h28.08.259,Info_measure_main_exp,2022.2.2,Win32,60.0528465,,,,,,,,,,,,,,,,,,masks/mask_001.jpg,,,,,,,,,,,,,,,,,,,,,,,,,,,,,,,,,,,,,,,,,,,0,0,0,0,1,,,,,,,,,,,,,,,,,,,,,,,,,,,,,,,,,,,,,,,,,,,,,,
882314,001,2022-11-14_24h28.08.259,Info_measure_main_exp,2022.2.2,Win32,60.0528465,,,,,,,,,,,,,,,,,,masks/mask_003.jpg,,,,,,,,,,,,,,,,,,,,,,,,,,,,,,,,,,,,,,,,,,,0,1,1,2,1,,,,,,,,,,,,,,,,,,,,,,,,,,,,,,,,,,,,,,,,,,,,,,
882314,001,2022-11-14_24h28.08.259,Info_measure_main_exp,2022.2.2,Win32,60.0528465,,,,,,,,,,,,,,,,,,masks/mask_002.jpg,,,,,,,,,,,,,,,,,,,,,,,,,,,,,,,,,,,,,,,,,,,0,2,2,1,1,,,,,,,,,,,,,,,,,,,,,,,,,,,,,,,,,,,,,,,,,,,,,,
882314,001,2022-11-14_24h28.08.259,Info_measure_main_exp,2022.2.2,Win32,60.0528465,,,,,,,,,,,,,,,,,,masks/mask_005.jpg,,,,,,,,,,,,,,,,,,,,,,,,,,,,,,,,,,,,,,,,,,,0,3,3,4,1,,,,,,,,,,,,,,,,,,,,,,,,,,,,,,,,,,,,,,,,,,,,,,
882314,001,2022-11-14_24h28.08.259,Info_measure_main_exp,2022.2.2,Win32,60.0528465,,,,,,,,,,,,,,,,,,masks/mask_004.jpg,,,,,,,,,,,,,,,,,,,,,,,,,,,,,,,,,,,,,,,,,,,0,4,4,3,1,,,,,,,,,,,,,,,,,,,,,,,,,,,,,,,,,,,,,,,,,,,,,,
882314,001,2022-11-14_24h28.08.259,Info_measure_main_exp,2022.2.2,Win32,60.0528465,,,,,,,,,,,,,,,,,,masks/mask_002.jpg,,,,,,,,,,,,,,,,,,,,,,,,,,,,,,,,,,,,,,,,,,,,,,,,0,0,0,1,1,,,,,,,,,,,,,,,,,,,,,,,,,,,,,,,,,,,,,,,,,
882314,001,2022-11-14_24h28.08.259,Info_measure_main_exp,2022.2.2,Win32,60.0528465,,,,,,,,,,,,,,,,,,masks/mask_003.jpg,,,,,,,,,,,,,,,,,,,,,,,,,,,,,,,,,,,,,,,,,,,,,,,,0,1,1,2,1,,,,,,,,,,,,,,,,,,,,,,,,,,,,,,,,,,,,,,,,,
882314,001,2022-11-14_24h28.08.259,Info_measure_main_exp,2022.2.2,Win32,60.0528465,,,,,,,,,,,,,,,,,,masks/mask_001.jpg,,,,,,,,,,,,,,,,,,,,,,,,,,,,,,,,,,,,,,,,,,,,,,,,0,2,2,0,1,,,,,,,,,,,,,,,,,,,,,,,,,,,,,,,,,,,,,,,,,
882314,001,2022-11-14_24h28.08.259,Info_measure_main_exp,2022.2.2,Win32,60.0528465,,,,,,,,,,,,,,,,,,masks/mask_005.jpg,,,,,,,,,,,,,,,,,,,,,,,,,,,,,,,,,,,,,,,,,,,,,,,,0,3,3,4,1,,,,,,,,,,,,,,,,,,,,,,,,,,,,,,,,,,,,,,,,,
882314,001,2022-11-14_24h28.08.259,Info_measure_main_exp,2022.2.2,Win32,60.0528465,,,,,,,,,,,,,,,,,,masks/mask_004.jpg,,,,,,,,,,,,,,,,,,,,,,,,,,,,,,,,,,,,,,,,,,,,,,,,0,4,4,3,1,,,,,,,,,,,,,,,,,,,,,,,,,,,,,,,,,,,,,,,,,
882314,001,2022-11-14_24h28.08.259,Info_measure_main_exp,2022.2.2,Win32,60.0528465,,,,,,,,,,,,,,,,,,,,,,,,,,,,,,7,0.5493,1,,,,,,,,,,,,0,131,5,5,2250,1986,absent_patch/patch0002250.jpg,absent_patch/patch0001986.jpg,,,,,,,,,,,,,,,,,,,,0.02870369,0.092592593,1,0,0,response1disk,13,0.012037065,0.000925912,1,0,0,center_square,0,12,12,29,1,,,,,,,,,,,,,,,,,,,,,,,
882314,001,2022-11-14_24h28.08.259,Info_measure_main_exp,2022.2.2,Win32,60.0528465,,,,,,,,,,,,,,,,,,masks/mask_003.jpg,,,,,,,,,,,,,,,,,,,,,,,,,,,,,,,,,,,,,,,,,,,0,0,0,2,1,,,,,,,,,,,,,,,,,,,,,,,,,,,,,,,,,,,,,,,,,,,,,,
882314,001,2022-11-14_24h28.08.259,Info_measure_main_exp,2022.2.2,Win32,60.0528465,,,,,,,,,,,,,,,,,,masks/mask_002.jpg,,,,,,,,,,,,,,,,,,,,,,,,,,,,,,,,,,,,,,,,,,,0,1,1,1,1,,,,,,,,,,,,,,,,,,,,,,,,,,,,,,,,,,,,,,,,,,,,,,
882314,001,2022-11-14_24h28.08.259,Info_measure_main_exp,2022.2.2,Win32,60.0528465,,,,,,,,,,,,,,,,,,masks/mask_001.jpg,,,,,,,,,,,,,,,,,,,,,,,,,,,,,,,,,,,,,,,,,,,0,2,2,0,1,,,,,,,,,,,,,,,,,,,,,,,,,,,,,,,,,,,,,,,,,,,,,,
882314,001,2022-11-14_24h28.08.259,Info_measure_main_exp,2022.2.2,Win32,60.0528465,,,,,,,,,,,,,,,,,,masks/mask_004.jpg,,,,,,,,,,,,,,,,,,,,,,,,,,,,,,,,,,,,,,,,,,,0,3,3,3,1,,,,,,,,,,,,,,,,,,,,,,,,,,,,,,,,,,,,,,,,,,,,,,
882314,001,2022-11-14_24h28.08.259,Info_measure_main_exp,2022.2.2,Win32,60.0528465,,,,,,,,,,,,,,,,,,masks/mask_005.jpg,,,,,,,,,,,,,,,,,,,,,,,,,,,,,,,,,,,,,,,,,,,0,4,4,4,1,,,,,,,,,,,,,,,,,,,,,,,,,,,,,,,,,,,,,,,,,,,,,,
882314,001,2022-11-14_24h28.08.259,Info_measure_main_exp,2022.2.2,Win32,60.0528465,,,,,,,,,,,,,,,,,,masks/mask_002.jpg,,,,,,,,,,,,,,,,,,,,,,,,,,,,,,,,,,,,,,,,,,,,,,,,0,0,0,1,1,,,,,,,,,,,,,,,,,,,,,,,,,,,,,,,,,,,,,,,,,
882314,001,2022-11-14_24h28.08.259,Info_measure_main_exp,2022.2.2,Win32,60.0528465,,,,,,,,,,,,,,,,,,masks/mask_005.jpg,,,,,,,,,,,,,,,,,,,,,,,,,,,,,,,,,,,,,,,,,,,,,,,,0,1,1,4,1,,,,,,,,,,,,,,,,,,,,,,,,,,,,,,,,,,,,,,,,,
882314,001,2022-11-14_24h28.08.259,Info_measure_main_exp,2022.2.2,Win32,60.0528465,,,,,,,,,,,,,,,,,,masks/mask_004.jpg,,,,,,,,,,,,,,,,,,,,,,,,,,,,,,,,,,,,,,,,,,,,,,,,0,2,2,3,1,,,,,,,,,,,,,,,,,,,,,,,,,,,,,,,,,,,,,,,,,
882314,001,2022-11-14_24h28.08.259,Info_measure_main_exp,2022.2.2,Win32,60.0528465,,,,,,,,,,,,,,,,,,masks/mask_003.jpg,,,,,,,,,,,,,,,,,,,,,,,,,,,,,,,,,,,,,,,,,,,,,,,,0,3,3,2,1,,,,,,,,,,,,,,,,,,,,,,,,,,,,,,,,,,,,,,,,,
882314,001,2022-11-14_24h28.08.259,Info_measure_main_exp,2022.2.2,Win32,60.0528465,,,,,,,,,,,,,,,,,,masks/mask_001.jpg,,,,,,,,,,,,,,,,,,,,,,,,,,,,,,,,,,,,,,,,,,,,,,,,0,4,4,0,1,,,,,,,,,,,,,,,,,,,,,,,,,,,,,,,,,,,,,,,,,
882314,001,2022-11-14_24h28.08.259,Info_measure_main_exp,2022.2.2,Win32,60.0528465,,,,,,,,,,,,,,,,,,,,,,,,,,,,,,6,1.0664,1,,,,,,,,,,,,0,131,5,5,2142,2154,absent_patch/patch0002142.jpg,absent_patch/patch0002154.jpg,,,,,,,,,,,,,,,,,,,,0.074999986,0.04074072,1,0,0,response1disk,14,-0.001851824,0.006481489,1,0,0,center_square,0,13,13,9,1,,,,,,,,,,,,,,,,,,,,,,,
882314,001,2022-11-14_24h28.08.259,Info_measure_main_exp,2022.2.2,Win32,60.0528465,,,,,,,,,,,,,,,,,,masks/mask_005.jpg,,,,,,,,,,,,,,,,,,,,,,,,,,,,,,,,,,,,,,,,,,,0,0,0,4,1,,,,,,,,,,,,,,,,,,,,,,,,,,,,,,,,,,,,,,,,,,,,,,
882314,001,2022-11-14_24h28.08.259,Info_measure_main_exp,2022.2.2,Win32,60.0528465,,,,,,,,,,,,,,,,,,masks/mask_002.jpg,,,,,,,,,,,,,,,,,,,,,,,,,,,,,,,,,,,,,,,,,,,0,1,1,1,1,,,,,,,,,,,,,,,,,,,,,,,,,,,,,,,,,,,,,,,,,,,,,,
882314,001,2022-11-14_24h28.08.259,Info_measure_main_exp,2022.2.2,Win32,60.0528465,,,,,,,,,,,,,,,,,,masks/mask_004.jpg,,,,,,,,,,,,,,,,,,,,,,,,,,,,,,,,,,,,,,,,,,,0,2,2,3,1,,,,,,,,,,,,,,,,,,,,,,,,,,,,,,,,,,,,,,,,,,,,,,
882314,001,2022-11-14_24h28.08.259,Info_measure_main_exp,2022.2.2,Win32,60.0528465,,,,,,,,,,,,,,,,,,masks/mask_003.jpg,,,,,,,,,,,,,,,,,,,,,,,,,,,,,,,,,,,,,,,,,,,0,3,3,2,1,,,,,,,,,,,,,,,,,,,,,,,,,,,,,,,,,,,,,,,,,,,,,,
882314,001,2022-11-14_24h28.08.259,Info_measure_main_exp,2022.2.2,Win32,60.0528465,,,,,,,,,,,,,,,,,,masks/mask_001.jpg,,,,,,,,,,,,,,,,,,,,,,,,,,,,,,,,,,,,,,,,,,,0,4,4,0,1,,,,,,,,,,,,,,,,,,,,,,,,,,,,,,,,,,,,,,,,,,,,,,
882314,001,2022-11-14_24h28.08.259,Info_measure_main_exp,2022.2.2,Win32,60.0528465,,,,,,,,,,,,,,,,,,masks/mask_002.jpg,,,,,,,,,,,,,,,,,,,,,,,,,,,,,,,,,,,,,,,,,,,,,,,,0,0,0,1,1,,,,,,,,,,,,,,,,,,,,,,,,,,,,,,,,,,,,,,,,,
882314,001,2022-11-14_24h28.08.259,Info_measure_main_exp,2022.2.2,Win32,60.0528465,,,,,,,,,,,,,,,,,,masks/mask_001.jpg,,,,,,,,,,,,,,,,,,,,,,,,,,,,,,,,,,,,,,,,,,,,,,,,0,1,1,0,1,,,,,,,,,,,,,,,,,,,,,,,,,,,,,,,,,,,,,,,,,
882314,001,2022-11-14_24h28.08.259,Info_measure_main_exp,2022.2.2,Win32,60.0528465,,,,,,,,,,,,,,,,,,masks/mask_004.jpg,,,,,,,,,,,,,,,,,,,,,,,,,,,,,,,,,,,,,,,,,,,,,,,,0,2,2,3,1,,,,,,,,,,,,,,,,,,,,,,,,,,,,,,,,,,,,,,,,,
882314,001,2022-11-14_24h28.08.259,Info_measure_main_exp,2022.2.2,Win32,60.0528465,,,,,,,,,,,,,,,,,,masks/mask_003.jpg,,,,,,,,,,,,,,,,,,,,,,,,,,,,,,,,,,,,,,,,,,,,,,,,0,3,3,2,1,,,,,,,,,,,,,,,,,,,,,,,,,,,,,,,,,,,,,,,,,
882314,001,2022-11-14_24h28.08.259,Info_measure_main_exp,2022.2.2,Win32,60.0528465,,,,,,,,,,,,,,,,,,masks/mask_005.jpg,,,,,,,,,,,,,,,,,,,,,,,,,,,,,,,,,,,,,,,,,,,,,,,,0,4,4,4,1,,,,,,,,,,,,,,,,,,,,,,,,,,,,,,,,,,,,,,,,,
882314,001,2022-11-14_24h28.08.259,Info_measure_main_exp,2022.2.2,Win32,60.0528465,,,,,,,,,,,,,,,,,,,,,,,,,,,,,,5,1.588,1,,,,,,,,,,,,0,131,5,5,1986,2142,absent_patch/patch0001986.jpg,absent_patch/patch0002142.jpg,,,,,,,,,,,,,,,,,,,,0.080555598,-0.032407407,1,0,0,response3disk,15,0.007407436,-0.008333347,1,0,0,center_square,0,14,14,76,1,,,,,,,,,,,,,,,,,,,,,,,
882314,001,2022-11-14_24h28.08.259,Info_measure_main_exp,2022.2.2,Win32,60.0528465,,,,,,,,,,,,,,,,,,masks/mask_002.jpg,,,,,,,,,,,,,,,,,,,,,,,,,,,,,,,,,,,,,,,,,,,0,0,0,1,1,,,,,,,,,,,,,,,,,,,,,,,,,,,,,,,,,,,,,,,,,,,,,,
882314,001,2022-11-14_24h28.08.259,Info_measure_main_exp,2022.2.2,Win32,60.0528465,,,,,,,,,,,,,,,,,,masks/mask_004.jpg,,,,,,,,,,,,,,,,,,,,,,,,,,,,,,,,,,,,,,,,,,,0,1,1,3,1,,,,,,,,,,,,,,,,,,,,,,,,,,,,,,,,,,,,,,,,,,,,,,
882314,001,2022-11-14_24h28.08.259,Info_measure_main_exp,2022.2.2,Win32,60.0528465,,,,,,,,,,,,,,,,,,masks/mask_001.jpg,,,,,,,,,,,,,,,,,,,,,,,,,,,,,,,,,,,,,,,,,,,0,2,2,0,1,,,,,,,,,,,,,,,,,,,,,,,,,,,,,,,,,,,,,,,,,,,,,,
882314,001,2022-11-14_24h28.08.259,Info_measure_main_exp,2022.2.2,Win32,60.0528465,,,,,,,,,,,,,,,,,,masks/mask_005.jpg,,,,,,,,,,,,,,,,,,,,,,,,,,,,,,,,,,,,,,,,,,,0,3,3,4,1,,,,,,,,,,,,,,,,,,,,,,,,,,,,,,,,,,,,,,,,,,,,,,
882314,001,2022-11-14_24h28.08.259,Info_measure_main_exp,2022.2.2,Win32,60.0528465,,,,,,,,,,,,,,,,,,masks/mask_003.jpg,,,,,,,,,,,,,,,,,,,,,,,,,,,,,,,,,,,,,,,,,,,0,4,4,2,1,,,,,,,,,,,,,,,,,,,,,,,,,,,,,,,,,,,,,,,,,,,,,,
882314,001,2022-11-14_24h28.08.259,Info_measure_main_exp,2022.2.2,Win32,60.0528465,,,,,,,,,,,,,,,,,,masks/mask_003.jpg,,,,,,,,,,,,,,,,,,,,,,,,,,,,,,,,,,,,,,,,,,,,,,,,0,0,0,2,1,,,,,,,,,,,,,,,,,,,,,,,,,,,,,,,,,,,,,,,,,
882314,001,2022-11-14_24h28.08.259,Info_measure_main_exp,2022.2.2,Win32,60.0528465,,,,,,,,,,,,,,,,,,masks/mask_002.jpg,,,,,,,,,,,,,,,,,,,,,,,,,,,,,,,,,,,,,,,,,,,,,,,,0,1,1,1,1,,,,,,,,,,,,,,,,,,,,,,,,,,,,,,,,,,,,,,,,,
882314,001,2022-11-14_24h28.08.259,Info_measure_main_exp,2022.2.2,Win32,60.0528465,,,,,,,,,,,,,,,,,,masks/mask_004.jpg,,,,,,,,,,,,,,,,,,,,,,,,,,,,,,,,,,,,,,,,,,,,,,,,0,2,2,3,1,,,,,,,,,,,,,,,,,,,,,,,,,,,,,,,,,,,,,,,,,
882314,001,2022-11-14_24h28.08.259,Info_measure_main_exp,2022.2.2,Win32,60.0528465,,,,,,,,,,,,,,,,,,masks/mask_005.jpg,,,,,,,,,,,,,,,,,,,,,,,,,,,,,,,,,,,,,,,,,,,,,,,,0,3,3,4,1,,,,,,,,,,,,,,,,,,,,,,,,,,,,,,,,,,,,,,,,,
882314,001,2022-11-14_24h28.08.259,Info_measure_main_exp,2022.2.2,Win32,60.0528465,,,,,,,,,,,,,,,,,,masks/mask_001.jpg,,,,,,,,,,,,,,,,,,,,,,,,,,,,,,,,,,,,,,,,,,,,,,,,0,4,4,0,1,,,,,,,,,,,,,,,,,,,,,,,,,,,,,,,,,,,,,,,,,
882314,001,2022-11-14_24h28.08.259,Info_measure_main_exp,2022.2.2,Win32,60.0528465,,,,,,,,,,,,,,,,,,,,,,,,,,,,,,6,0.7365,1,,,,,,,,,,,,0,131,5,5,1986,1950,absent_patch/patch0001986.jpg,absent_patch/patch0001950.jpg,,,,,,,,,,,,,,,,,,,,0.087037051,0.054629608,1,0,0,response1disk,16,0.001851894,-0.001851859,1,0,0,center_square,0,15,15,15,1,,,,,,,,,,,,,,,,,,,,,,,
882314,001,2022-11-14_24h28.08.259,Info_measure_main_exp,2022.2.2,Win32,60.0528465,,,,,,,,,,,,,,,,,,masks/mask_003.jpg,,,,,,,,,,,,,,,,,,,,,,,,,,,,,,,,,,,,,,,,,,,0,0,0,2,1,,,,,,,,,,,,,,,,,,,,,,,,,,,,,,,,,,,,,,,,,,,,,,
882314,001,2022-11-14_24h28.08.259,Info_measure_main_exp,2022.2.2,Win32,60.0528465,,,,,,,,,,,,,,,,,,masks/mask_002.jpg,,,,,,,,,,,,,,,,,,,,,,,,,,,,,,,,,,,,,,,,,,,0,1,1,1,1,,,,,,,,,,,,,,,,,,,,,,,,,,,,,,,,,,,,,,,,,,,,,,
882314,001,2022-11-14_24h28.08.259,Info_measure_main_exp,2022.2.2,Win32,60.0528465,,,,,,,,,,,,,,,,,,masks/mask_001.jpg,,,,,,,,,,,,,,,,,,,,,,,,,,,,,,,,,,,,,,,,,,,0,2,2,0,1,,,,,,,,,,,,,,,,,,,,,,,,,,,,,,,,,,,,,,,,,,,,,,
882314,001,2022-11-14_24h28.08.259,Info_measure_main_exp,2022.2.2,Win32,60.0528465,,,,,,,,,,,,,,,,,,masks/mask_004.jpg,,,,,,,,,,,,,,,,,,,,,,,,,,,,,,,,,,,,,,,,,,,0,3,3,3,1,,,,,,,,,,,,,,,,,,,,,,,,,,,,,,,,,,,,,,,,,,,,,,
882314,001,2022-11-14_24h28.08.259,Info_measure_main_exp,2022.2.2,Win32,60.0528465,,,,,,,,,,,,,,,,,,masks/mask_005.jpg,,,,,,,,,,,,,,,,,,,,,,,,,,,,,,,,,,,,,,,,,,,0,4,4,4,1,,,,,,,,,,,,,,,,,,,,,,,,,,,,,,,,,,,,,,,,,,,,,,
882314,001,2022-11-14_24h28.08.259,Info_measure_main_exp,2022.2.2,Win32,60.0528465,,,,,,,,,,,,,,,,,,masks/mask_004.jpg,,,,,,,,,,,,,,,,,,,,,,,,,,,,,,,,,,,,,,,,,,,,,,,,0,0,0,3,1,,,,,,,,,,,,,,,,,,,,,,,,,,,,,,,,,,,,,,,,,
882314,001,2022-11-14_24h28.08.259,Info_measure_main_exp,2022.2.2,Win32,60.0528465,,,,,,,,,,,,,,,,,,masks/mask_003.jpg,,,,,,,,,,,,,,,,,,,,,,,,,,,,,,,,,,,,,,,,,,,,,,,,0,1,1,2,1,,,,,,,,,,,,,,,,,,,,,,,,,,,,,,,,,,,,,,,,,
882314,001,2022-11-14_24h28.08.259,Info_measure_main_exp,2022.2.2,Win32,60.0528465,,,,,,,,,,,,,,,,,,masks/mask_005.jpg,,,,,,,,,,,,,,,,,,,,,,,,,,,,,,,,,,,,,,,,,,,,,,,,0,2,2,4,1,,,,,,,,,,,,,,,,,,,,,,,,,,,,,,,,,,,,,,,,,
882314,001,2022-11-14_24h28.08.259,Info_measure_main_exp,2022.2.2,Win32,60.0528465,,,,,,,,,,,,,,,,,,masks/mask_002.jpg,,,,,,,,,,,,,,,,,,,,,,,,,,,,,,,,,,,,,,,,,,,,,,,,0,3,3,1,1,,,,,,,,,,,,,,,,,,,,,,,,,,,,,,,,,,,,,,,,,
882314,001,2022-11-14_24h28.08.259,Info_measure_main_exp,2022.2.2,Win32,60.0528465,,,,,,,,,,,,,,,,,,masks/mask_001.jpg,,,,,,,,,,,,,,,,,,,,,,,,,,,,,,,,,,,,,,,,,,,,,,,,0,4,4,0,1,,,,,,,,,,,,,,,,,,,,,,,,,,,,,,,,,,,,,,,,,
882314,001,2022-11-14_24h28.08.259,Info_measure_main_exp,2022.2.2,Win32,60.0528465,,,,,,,,,,,,,,,,,,,,,,,,,,,,,,7,0.4341,1,,,,,,,,,,,,0,131,5,5,2214,2178,absent_patch/patch0002214.jpg,absent_patch/patch0002178.jpg,,,,,,,,,,,,,,,,,,,,0.021296325,0.085185192,1,0,0,response1disk,17,0.003703718,-0.011111118,1,0,0,center_square,0,16,16,62,1,,,,,,,,,,,,,,,,,,,,,,,
882314,001,2022-11-14_24h28.08.259,Info_measure_main_exp,2022.2.2,Win32,60.0528465,,,,,,,,,,,,,,,,,,masks/mask_001.jpg,,,,,,,,,,,,,,,,,,,,,,,,,,,,,,,,,,,,,,,,,,,0,0,0,0,1,,,,,,,,,,,,,,,,,,,,,,,,,,,,,,,,,,,,,,,,,,,,,,
882314,001,2022-11-14_24h28.08.259,Info_measure_main_exp,2022.2.2,Win32,60.0528465,,,,,,,,,,,,,,,,,,masks/mask_002.jpg,,,,,,,,,,,,,,,,,,,,,,,,,,,,,,,,,,,,,,,,,,,0,1,1,1,1,,,,,,,,,,,,,,,,,,,,,,,,,,,,,,,,,,,,,,,,,,,,,,
882314,001,2022-11-14_24h28.08.259,Info_measure_main_exp,2022.2.2,Win32,60.0528465,,,,,,,,,,,,,,,,,,masks/mask_003.jpg,,,,,,,,,,,,,,,,,,,,,,,,,,,,,,,,,,,,,,,,,,,0,2,2,2,1,,,,,,,,,,,,,,,,,,,,,,,,,,,,,,,,,,,,,,,,,,,,,,
882314,001,2022-11-14_24h28.08.259,Info_measure_main_exp,2022.2.2,Win32,60.0528465,,,,,,,,,,,,,,,,,,masks/mask_004.jpg,,,,,,,,,,,,,,,,,,,,,,,,,,,,,,,,,,,,,,,,,,,0,3,3,3,1,,,,,,,,,,,,,,,,,,,,,,,,,,,,,,,,,,,,,,,,,,,,,,
882314,001,2022-11-14_24h28.08.259,Info_measure_main_exp,2022.2.2,Win32,60.0528465,,,,,,,,,,,,,,,,,,masks/mask_005.jpg,,,,,,,,,,,,,,,,,,,,,,,,,,,,,,,,,,,,,,,,,,,0,4,4,4,1,,,,,,,,,,,,,,,,,,,,,,,,,,,,,,,,,,,,,,,,,,,,,,
882314,001,2022-11-14_24h28.08.259,Info_measure_main_exp,2022.2.2,Win32,60.0528465,,,,,,,,,,,,,,,,,,masks/mask_005.jpg,,,,,,,,,,,,,,,,,,,,,,,,,,,,,,,,,,,,,,,,,,,,,,,,0,0,0,4,1,,,,,,,,,,,,,,,,,,,,,,,,,,,,,,,,,,,,,,,,,
882314,001,2022-11-14_24h28.08.259,Info_measure_main_exp,2022.2.2,Win32,60.0528465,,,,,,,,,,,,,,,,,,masks/mask_004.jpg,,,,,,,,,,,,,,,,,,,,,,,,,,,,,,,,,,,,,,,,,,,,,,,,0,1,1,3,1,,,,,,,,,,,,,,,,,,,,,,,,,,,,,,,,,,,,,,,,,
882314,001,2022-11-14_24h28.08.259,Info_measure_main_exp,2022.2.2,Win32,60.0528465,,,,,,,,,,,,,,,,,,masks/mask_003.jpg,,,,,,,,,,,,,,,,,,,,,,,,,,,,,,,,,,,,,,,,,,,,,,,,0,2,2,2,1,,,,,,,,,,,,,,,,,,,,,,,,,,,,,,,,,,,,,,,,,
882314,001,2022-11-14_24h28.08.259,Info_measure_main_exp,2022.2.2,Win32,60.0528465,,,,,,,,,,,,,,,,,,masks/mask_002.jpg,,,,,,,,,,,,,,,,,,,,,,,,,,,,,,,,,,,,,,,,,,,,,,,,0,3,3,1,1,,,,,,,,,,,,,,,,,,,,,,,,,,,,,,,,,,,,,,,,,
882314,001,2022-11-14_24h28.08.259,Info_measure_main_exp,2022.2.2,Win32,60.0528465,,,,,,,,,,,,,,,,,,masks/mask_001.jpg,,,,,,,,,,,,,,,,,,,,,,,,,,,,,,,,,,,,,,,,,,,,,,,,0,4,4,0,1,,,,,,,,,,,,,,,,,,,,,,,,,,,,,,,,,,,,,,,,,
882314,001,2022-11-14_24h28.08.259,Info_measure_main_exp,2022.2.2,Win32,60.0528465,,,,,,,,,,,,,,,,,,,,,,,,,,,,,,6,0.5173,1,,,,,,,,,,,,0,131,5,5,2274,2250,absent_patch/patch0002274.jpg,absent_patch/patch0002250.jpg,,,,,,,,,,,,,,,,,,,,0.093518504,0.051851838,1,0,0,response1disk,18,-0.00462963,0.008333312,1,0,0,center_square,0,17,17,28,1,,,,,,,,,,,,,,,,,,,,,,,
882314,001,2022-11-14_24h28.08.259,Info_measure_main_exp,2022.2.2,Win32,60.0528465,,,,,,,,,,,,,,,,,,masks/mask_005.jpg,,,,,,,,,,,,,,,,,,,,,,,,,,,,,,,,,,,,,,,,,,,0,0,0,4,1,,,,,,,,,,,,,,,,,,,,,,,,,,,,,,,,,,,,,,,,,,,,,,
882314,001,2022-11-14_24h28.08.259,Info_measure_main_exp,2022.2.2,Win32,60.0528465,,,,,,,,,,,,,,,,,,masks/mask_002.jpg,,,,,,,,,,,,,,,,,,,,,,,,,,,,,,,,,,,,,,,,,,,0,1,1,1,1,,,,,,,,,,,,,,,,,,,,,,,,,,,,,,,,,,,,,,,,,,,,,,
882314,001,2022-11-14_24h28.08.259,Info_measure_main_exp,2022.2.2,Win32,60.0528465,,,,,,,,,,,,,,,,,,masks/mask_003.jpg,,,,,,,,,,,,,,,,,,,,,,,,,,,,,,,,,,,,,,,,,,,0,2,2,2,1,,,,,,,,,,,,,,,,,,,,,,,,,,,,,,,,,,,,,,,,,,,,,,
882314,001,2022-11-14_24h28.08.259,Info_measure_main_exp,2022.2.2,Win32,60.0528465,,,,,,,,,,,,,,,,,,masks/mask_001.jpg,,,,,,,,,,,,,,,,,,,,,,,,,,,,,,,,,,,,,,,,,,,0,3,3,0,1,,,,,,,,,,,,,,,,,,,,,,,,,,,,,,,,,,,,,,,,,,,,,,
882314,001,2022-11-14_24h28.08.259,Info_measure_main_exp,2022.2.2,Win32,60.0528465,,,,,,,,,,,,,,,,,,masks/mask_004.jpg,,,,,,,,,,,,,,,,,,,,,,,,,,,,,,,,,,,,,,,,,,,0,4,4,3,1,,,,,,,,,,,,,,,,,,,,,,,,,,,,,,,,,,,,,,,,,,,,,,
882314,001,2022-11-14_24h28.08.259,Info_measure_main_exp,2022.2.2,Win32,60.0528465,,,,,,,,,,,,,,,,,,masks/mask_001.jpg,,,,,,,,,,,,,,,,,,,,,,,,,,,,,,,,,,,,,,,,,,,,,,,,0,0,0,0,1,,,,,,,,,,,,,,,,,,,,,,,,,,,,,,,,,,,,,,,,,
882314,001,2022-11-14_24h28.08.259,Info_measure_main_exp,2022.2.2,Win32,60.0528465,,,,,,,,,,,,,,,,,,masks/mask_002.jpg,,,,,,,,,,,,,,,,,,,,,,,,,,,,,,,,,,,,,,,,,,,,,,,,0,1,1,1,1,,,,,,,,,,,,,,,,,,,,,,,,,,,,,,,,,,,,,,,,,
882314,001,2022-11-14_24h28.08.259,Info_measure_main_exp,2022.2.2,Win32,60.0528465,,,,,,,,,,,,,,,,,,masks/mask_005.jpg,,,,,,,,,,,,,,,,,,,,,,,,,,,,,,,,,,,,,,,,,,,,,,,,0,2,2,4,1,,,,,,,,,,,,,,,,,,,,,,,,,,,,,,,,,,,,,,,,,
882314,001,2022-11-14_24h28.08.259,Info_measure_main_exp,2022.2.2,Win32,60.0528465,,,,,,,,,,,,,,,,,,masks/mask_004.jpg,,,,,,,,,,,,,,,,,,,,,,,,,,,,,,,,,,,,,,,,,,,,,,,,0,3,3,3,1,,,,,,,,,,,,,,,,,,,,,,,,,,,,,,,,,,,,,,,,,
882314,001,2022-11-14_24h28.08.259,Info_measure_main_exp,2022.2.2,Win32,60.0528465,,,,,,,,,,,,,,,,,,masks/mask_003.jpg,,,,,,,,,,,,,,,,,,,,,,,,,,,,,,,,,,,,,,,,,,,,,,,,0,4,4,2,1,,,,,,,,,,,,,,,,,,,,,,,,,,,,,,,,,,,,,,,,,
882314,001,2022-11-14_24h28.08.259,Info_measure_main_exp,2022.2.2,Win32,60.0528465,,,,,,,,,,,,,,,,,,,,,,,,,,,,,,6,0.7506,1,,,,,,,,,,,,0,131,5,5,2298,2298,absent_patch/patch0002298.jpg,absent_patch/patch0002298.jpg,,,,,,,,,,,,,,,,,,,,0.065740727,0.03148146,1,0,0,response1disk,19,0.012037065,0.003703683,1,0,0,center_square,0,18,18,37,1,,,,,,,,,,,,,,,,,,,,,,,
882314,001,2022-11-14_24h28.08.259,Info_measure_main_exp,2022.2.2,Win32,60.0528465,,,,,,,,,,,,,,,,,,masks/mask_001.jpg,,,,,,,,,,,,,,,,,,,,,,,,,,,,,,,,,,,,,,,,,,,0,0,0,0,1,,,,,,,,,,,,,,,,,,,,,,,,,,,,,,,,,,,,,,,,,,,,,,
882314,001,2022-11-14_24h28.08.259,Info_measure_main_exp,2022.2.2,Win32,60.0528465,,,,,,,,,,,,,,,,,,masks/mask_002.jpg,,,,,,,,,,,,,,,,,,,,,,,,,,,,,,,,,,,,,,,,,,,0,1,1,1,1,,,,,,,,,,,,,,,,,,,,,,,,,,,,,,,,,,,,,,,,,,,,,,
882314,001,2022-11-14_24h28.08.259,Info_measure_main_exp,2022.2.2,Win32,60.0528465,,,,,,,,,,,,,,,,,,masks/mask_005.jpg,,,,,,,,,,,,,,,,,,,,,,,,,,,,,,,,,,,,,,,,,,,0,2,2,4,1,,,,,,,,,,,,,,,,,,,,,,,,,,,,,,,,,,,,,,,,,,,,,,
882314,001,2022-11-14_24h28.08.259,Info_measure_main_exp,2022.2.2,Win32,60.0528465,,,,,,,,,,,,,,,,,,masks/mask_004.jpg,,,,,,,,,,,,,,,,,,,,,,,,,,,,,,,,,,,,,,,,,,,0,3,3,3,1,,,,,,,,,,,,,,,,,,,,,,,,,,,,,,,,,,,,,,,,,,,,,,
882314,001,2022-11-14_24h28.08.259,Info_measure_main_exp,2022.2.2,Win32,60.0528465,,,,,,,,,,,,,,,,,,masks/mask_003.jpg,,,,,,,,,,,,,,,,,,,,,,,,,,,,,,,,,,,,,,,,,,,0,4,4,2,1,,,,,,,,,,,,,,,,,,,,,,,,,,,,,,,,,,,,,,,,,,,,,,
882314,001,2022-11-14_24h28.08.259,Info_measure_main_exp,2022.2.2,Win32,60.0528465,,,,,,,,,,,,,,,,,,masks/mask_005.jpg,,,,,,,,,,,,,,,,,,,,,,,,,,,,,,,,,,,,,,,,,,,,,,,,0,0,0,4,1,,,,,,,,,,,,,,,,,,,,,,,,,,,,,,,,,,,,,,,,,
882314,001,2022-11-14_24h28.08.259,Info_measure_main_exp,2022.2.2,Win32,60.0528465,,,,,,,,,,,,,,,,,,masks/mask_001.jpg,,,,,,,,,,,,,,,,,,,,,,,,,,,,,,,,,,,,,,,,,,,,,,,,0,1,1,0,1,,,,,,,,,,,,,,,,,,,,,,,,,,,,,,,,,,,,,,,,,
882314,001,2022-11-14_24h28.08.259,Info_measure_main_exp,2022.2.2,Win32,60.0528465,,,,,,,,,,,,,,,,,,masks/mask_003.jpg,,,,,,,,,,,,,,,,,,,,,,,,,,,,,,,,,,,,,,,,,,,,,,,,0,2,2,2,1,,,,,,,,,,,,,,,,,,,,,,,,,,,,,,,,,,,,,,,,,
882314,001,2022-11-14_24h28.08.259,Info_measure_main_exp,2022.2.2,Win32,60.0528465,,,,,,,,,,,,,,,,,,masks/mask_002.jpg,,,,,,,,,,,,,,,,,,,,,,,,,,,,,,,,,,,,,,,,,,,,,,,,0,3,3,1,1,,,,,,,,,,,,,,,,,,,,,,,,,,,,,,,,,,,,,,,,,
882314,001,2022-11-14_24h28.08.259,Info_measure_main_exp,2022.2.2,Win32,60.0528465,,,,,,,,,,,,,,,,,,masks/mask_004.jpg,,,,,,,,,,,,,,,,,,,,,,,,,,,,,,,,,,,,,,,,,,,,,,,,0,4,4,3,1,,,,,,,,,,,,,,,,,,,,,,,,,,,,,,,,,,,,,,,,,
882314,001,2022-11-14_24h28.08.259,Info_measure_main_exp,2022.2.2,Win32,60.0528465,,,,,,,,,,,,,,,,,,,,,,,,,,,,,,7,0.6609,1,,,,,,,,,,,,0,131,5,5,2298,1986,absent_patch/patch0002298.jpg,absent_patch/patch0001986.jpg,,,,,,,,,,,,,,,,,,,,0.041666667,0.106481481,1,0,0,response1disk,20,-0.010185171,0.006481489,1,0,0,center_square,0,19,19,32,1,,,,,,,,,,,,,,,,,,,,,,,
882314,001,2022-11-14_24h28.08.259,Info_measure_main_exp,2022.2.2,Win32,60.0528465,,,,,,,,,,,,,,,,,,masks/mask_004.jpg,,,,,,,,,,,,,,,,,,,,,,,,,,,,,,,,,,,,,,,,,,,0,0,0,3,1,,,,,,,,,,,,,,,,,,,,,,,,,,,,,,,,,,,,,,,,,,,,,,
882314,001,2022-11-14_24h28.08.259,Info_measure_main_exp,2022.2.2,Win32,60.0528465,,,,,,,,,,,,,,,,,,masks/mask_003.jpg,,,,,,,,,,,,,,,,,,,,,,,,,,,,,,,,,,,,,,,,,,,0,1,1,2,1,,,,,,,,,,,,,,,,,,,,,,,,,,,,,,,,,,,,,,,,,,,,,,
882314,001,2022-11-14_24h28.08.259,Info_measure_main_exp,2022.2.2,Win32,60.0528465,,,,,,,,,,,,,,,,,,masks/mask_001.jpg,,,,,,,,,,,,,,,,,,,,,,,,,,,,,,,,,,,,,,,,,,,0,2,2,0,1,,,,,,,,,,,,,,,,,,,,,,,,,,,,,,,,,,,,,,,,,,,,,,
882314,001,2022-11-14_24h28.08.259,Info_measure_main_exp,2022.2.2,Win32,60.0528465,,,,,,,,,,,,,,,,,,masks/mask_005.jpg,,,,,,,,,,,,,,,,,,,,,,,,,,,,,,,,,,,,,,,,,,,0,3,3,4,1,,,,,,,,,,,,,,,,,,,,,,,,,,,,,,,,,,,,,,,,,,,,,,
882314,001,2022-11-14_24h28.08.259,Info_measure_main_exp,2022.2.2,Win32,60.0528465,,,,,,,,,,,,,,,,,,masks/mask_002.jpg,,,,,,,,,,,,,,,,,,,,,,,,,,,,,,,,,,,,,,,,,,,0,4,4,1,1,,,,,,,,,,,,,,,,,,,,,,,,,,,,,,,,,,,,,,,,,,,,,,
882314,001,2022-11-14_24h28.08.259,Info_measure_main_exp,2022.2.2,Win32,60.0528465,,,,,,,,,,,,,,,,,,masks/mask_004.jpg,,,,,,,,,,,,,,,,,,,,,,,,,,,,,,,,,,,,,,,,,,,,,,,,0,0,0,3,1,,,,,,,,,,,,,,,,,,,,,,,,,,,,,,,,,,,,,,,,,
882314,001,2022-11-14_24h28.08.259,Info_measure_main_exp,2022.2.2,Win32,60.0528465,,,,,,,,,,,,,,,,,,masks/mask_002.jpg,,,,,,,,,,,,,,,,,,,,,,,,,,,,,,,,,,,,,,,,,,,,,,,,0,1,1,1,1,,,,,,,,,,,,,,,,,,,,,,,,,,,,,,,,,,,,,,,,,
882314,001,2022-11-14_24h28.08.259,Info_measure_main_exp,2022.2.2,Win32,60.0528465,,,,,,,,,,,,,,,,,,masks/mask_005.jpg,,,,,,,,,,,,,,,,,,,,,,,,,,,,,,,,,,,,,,,,,,,,,,,,0,2,2,4,1,,,,,,,,,,,,,,,,,,,,,,,,,,,,,,,,,,,,,,,,,
882314,001,2022-11-14_24h28.08.259,Info_measure_main_exp,2022.2.2,Win32,60.0528465,,,,,,,,,,,,,,,,,,masks/mask_003.jpg,,,,,,,,,,,,,,,,,,,,,,,,,,,,,,,,,,,,,,,,,,,,,,,,0,3,3,2,1,,,,,,,,,,,,,,,,,,,,,,,,,,,,,,,,,,,,,,,,,
882314,001,2022-11-14_24h28.08.259,Info_measure_main_exp,2022.2.2,Win32,60.0528465,,,,,,,,,,,,,,,,,,masks/mask_001.jpg,,,,,,,,,,,,,,,,,,,,,,,,,,,,,,,,,,,,,,,,,,,,,,,,0,4,4,0,1,,,,,,,,,,,,,,,,,,,,,,,,,,,,,,,,,,,,,,,,,
882314,001,2022-11-14_24h28.08.259,Info_measure_main_exp,2022.2.2,Win32,60.0528465,,,,,,,,,,,,,,,,,,,,,,,,,,,,,,0,0.6663,1,,,,,,,,,,,,0,131,5,5,2190,2190,absent_patch/patch0002190.jpg,absent_patch/patch0002190.jpg,,,,,,,,,,,,,,,,,,,,-0.055555556,0.126851859,1,0,0,response7disk,21,0.002777806,-0.00462963,1,0,0,center_square,0,20,20,86,1,,,,,,,,,,,,,,,,,,,,,,,
882314,001,2022-11-14_24h28.08.259,Info_measure_main_exp,2022.2.2,Win32,60.0528465,,,,,,,,,,,,,,,,,,masks/mask_003.jpg,,,,,,,,,,,,,,,,,,,,,,,,,,,,,,,,,,,,,,,,,,,0,0,0,2,1,,,,,,,,,,,,,,,,,,,,,,,,,,,,,,,,,,,,,,,,,,,,,,
882314,001,2022-11-14_24h28.08.259,Info_measure_main_exp,2022.2.2,Win32,60.0528465,,,,,,,,,,,,,,,,,,masks/mask_002.jpg,,,,,,,,,,,,,,,,,,,,,,,,,,,,,,,,,,,,,,,,,,,0,1,1,1,1,,,,,,,,,,,,,,,,,,,,,,,,,,,,,,,,,,,,,,,,,,,,,,
882314,001,2022-11-14_24h28.08.259,Info_measure_main_exp,2022.2.2,Win32,60.0528465,,,,,,,,,,,,,,,,,,masks/mask_004.jpg,,,,,,,,,,,,,,,,,,,,,,,,,,,,,,,,,,,,,,,,,,,0,2,2,3,1,,,,,,,,,,,,,,,,,,,,,,,,,,,,,,,,,,,,,,,,,,,,,,
882314,001,2022-11-14_24h28.08.259,Info_measure_main_exp,2022.2.2,Win32,60.0528465,,,,,,,,,,,,,,,,,,masks/mask_001.jpg,,,,,,,,,,,,,,,,,,,,,,,,,,,,,,,,,,,,,,,,,,,0,3,3,0,1,,,,,,,,,,,,,,,,,,,,,,,,,,,,,,,,,,,,,,,,,,,,,,
882314,001,2022-11-14_24h28.08.259,Info_measure_main_exp,2022.2.2,Win32,60.0528465,,,,,,,,,,,,,,,,,,masks/mask_005.jpg,,,,,,,,,,,,,,,,,,,,,,,,,,,,,,,,,,,,,,,,,,,0,4,4,4,1,,,,,,,,,,,,,,,,,,,,,,,,,,,,,,,,,,,,,,,,,,,,,,
882314,001,2022-11-14_24h28.08.259,Info_measure_main_exp,2022.2.2,Win32,60.0528465,,,,,,,,,,,,,,,,,,masks/mask_002.jpg,,,,,,,,,,,,,,,,,,,,,,,,,,,,,,,,,,,,,,,,,,,,,,,,0,0,0,1,1,,,,,,,,,,,,,,,,,,,,,,,,,,,,,,,,,,,,,,,,,
882314,001,2022-11-14_24h28.08.259,Info_measure_main_exp,2022.2.2,Win32,60.0528465,,,,,,,,,,,,,,,,,,masks/mask_003.jpg,,,,,,,,,,,,,,,,,,,,,,,,,,,,,,,,,,,,,,,,,,,,,,,,0,1,1,2,1,,,,,,,,,,,,,,,,,,,,,,,,,,,,,,,,,,,,,,,,,
882314,001,2022-11-14_24h28.08.259,Info_measure_main_exp,2022.2.2,Win32,60.0528465,,,,,,,,,,,,,,,,,,masks/mask_001.jpg,,,,,,,,,,,,,,,,,,,,,,,,,,,,,,,,,,,,,,,,,,,,,,,,0,2,2,0,1,,,,,,,,,,,,,,,,,,,,,,,,,,,,,,,,,,,,,,,,,
882314,001,2022-11-14_24h28.08.259,Info_measure_main_exp,2022.2.2,Win32,60.0528465,,,,,,,,,,,,,,,,,,masks/mask_005.jpg,,,,,,,,,,,,,,,,,,,,,,,,,,,,,,,,,,,,,,,,,,,,,,,,0,3,3,4,1,,,,,,,,,,,,,,,,,,,,,,,,,,,,,,,,,,,,,,,,,
882314,001,2022-11-14_24h28.08.259,Info_measure_main_exp,2022.2.2,Win32,60.0528465,,,,,,,,,,,,,,,,,,masks/mask_004.jpg,,,,,,,,,,,,,,,,,,,,,,,,,,,,,,,,,,,,,,,,,,,,,,,,0,4,4,3,1,,,,,,,,,,,,,,,,,,,,,,,,,,,,,,,,,,,,,,,,,
882314,001,2022-11-14_24h28.08.259,Info_measure_main_exp,2022.2.2,Win32,60.0528465,,,,,,,,,,,,,,,,,,,,,,,,,,,,,,7,0.9158,1,,,,,,,,,,,,0,131,5,5,2274,1950,absent_patch/patch0002274.jpg,absent_patch/patch0001950.jpg,,,,,,,,,,,,,,,,,,,,0.056481467,0.091666645,1,0,0,response1disk,22,0.007407436,0.006481489,1,0,0,center_square,0,21,21,10,1,,,,,,,,,,,,,,,,,,,,,,,
882314,001,2022-11-14_24h28.08.259,Info_measure_main_exp,2022.2.2,Win32,60.0528465,,,,,,,,,,,,,,,,,,masks/mask_003.jpg,,,,,,,,,,,,,,,,,,,,,,,,,,,,,,,,,,,,,,,,,,,0,0,0,2,1,,,,,,,,,,,,,,,,,,,,,,,,,,,,,,,,,,,,,,,,,,,,,,
882314,001,2022-11-14_24h28.08.259,Info_measure_main_exp,2022.2.2,Win32,60.0528465,,,,,,,,,,,,,,,,,,masks/mask_005.jpg,,,,,,,,,,,,,,,,,,,,,,,,,,,,,,,,,,,,,,,,,,,0,1,1,4,1,,,,,,,,,,,,,,,,,,,,,,,,,,,,,,,,,,,,,,,,,,,,,,
882314,001,2022-11-14_24h28.08.259,Info_measure_main_exp,2022.2.2,Win32,60.0528465,,,,,,,,,,,,,,,,,,masks/mask_002.jpg,,,,,,,,,,,,,,,,,,,,,,,,,,,,,,,,,,,,,,,,,,,0,2,2,1,1,,,,,,,,,,,,,,,,,,,,,,,,,,,,,,,,,,,,,,,,,,,,,,
882314,001,2022-11-14_24h28.08.259,Info_measure_main_exp,2022.2.2,Win32,60.0528465,,,,,,,,,,,,,,,,,,masks/mask_004.jpg,,,,,,,,,,,,,,,,,,,,,,,,,,,,,,,,,,,,,,,,,,,0,3,3,3,1,,,,,,,,,,,,,,,,,,,,,,,,,,,,,,,,,,,,,,,,,,,,,,
882314,001,2022-11-14_24h28.08.259,Info_measure_main_exp,2022.2.2,Win32,60.0528465,,,,,,,,,,,,,,,,,,masks/mask_001.jpg,,,,,,,,,,,,,,,,,,,,,,,,,,,,,,,,,,,,,,,,,,,0,4,4,0,1,,,,,,,,,,,,,,,,,,,,,,,,,,,,,,,,,,,,,,,,,,,,,,
882314,001,2022-11-14_24h28.08.259,Info_measure_main_exp,2022.2.2,Win32,60.0528465,,,,,,,,,,,,,,,,,,masks/mask_001.jpg,,,,,,,,,,,,,,,,,,,,,,,,,,,,,,,,,,,,,,,,,,,,,,,,0,0,0,0,1,,,,,,,,,,,,,,,,,,,,,,,,,,,,,,,,,,,,,,,,,
882314,001,2022-11-14_24h28.08.259,Info_measure_main_exp,2022.2.2,Win32,60.0528465,,,,,,,,,,,,,,,,,,masks/mask_004.jpg,,,,,,,,,,,,,,,,,,,,,,,,,,,,,,,,,,,,,,,,,,,,,,,,0,1,1,3,1,,,,,,,,,,,,,,,,,,,,,,,,,,,,,,,,,,,,,,,,,
882314,001,2022-11-14_24h28.08.259,Info_measure_main_exp,2022.2.2,Win32,60.0528465,,,,,,,,,,,,,,,,,,masks/mask_005.jpg,,,,,,,,,,,,,,,,,,,,,,,,,,,,,,,,,,,,,,,,,,,,,,,,0,2,2,4,1,,,,,,,,,,,,,,,,,,,,,,,,,,,,,,,,,,,,,,,,,
882314,001,2022-11-14_24h28.08.259,Info_measure_main_exp,2022.2.2,Win32,60.0528465,,,,,,,,,,,,,,,,,,masks/mask_003.jpg,,,,,,,,,,,,,,,,,,,,,,,,,,,,,,,,,,,,,,,,,,,,,,,,0,3,3,2,1,,,,,,,,,,,,,,,,,,,,,,,,,,,,,,,,,,,,,,,,,
882314,001,2022-11-14_24h28.08.259,Info_measure_main_exp,2022.2.2,Win32,60.0528465,,,,,,,,,,,,,,,,,,masks/mask_002.jpg,,,,,,,,,,,,,,,,,,,,,,,,,,,,,,,,,,,,,,,,,,,,,,,,0,4,4,1,1,,,,,,,,,,,,,,,,,,,,,,,,,,,,,,,,,,,,,,,,,
882314,001,2022-11-14_24h28.08.259,Info_measure_main_exp,2022.2.2,Win32,60.0528465,,,,,,,,,,,,,,,,,,,,,,,,,,,,,,0,0.4832,1,,,,,,,,,,,,0,131,5,5,2154,2154,absent_patch/patch0002154.jpg,absent_patch/patch0002154.jpg,,,,,,,,,,,,,,,,,,,,-0.063888903,0.109259252,1,0,0,response7disk,23,-0.002777735,-0.006481489,1,0,0,center_square,0,22,22,89,1,,,,,,,,,,,,,,,,,,,,,,,
882314,001,2022-11-14_24h28.08.259,Info_measure_main_exp,2022.2.2,Win32,60.0528465,,,,,,,,,,,,,,,,,,masks/mask_001.jpg,,,,,,,,,,,,,,,,,,,,,,,,,,,,,,,,,,,,,,,,,,,0,0,0,0,1,,,,,,,,,,,,,,,,,,,,,,,,,,,,,,,,,,,,,,,,,,,,,,
882314,001,2022-11-14_24h28.08.259,Info_measure_main_exp,2022.2.2,Win32,60.0528465,,,,,,,,,,,,,,,,,,masks/mask_002.jpg,,,,,,,,,,,,,,,,,,,,,,,,,,,,,,,,,,,,,,,,,,,0,1,1,1,1,,,,,,,,,,,,,,,,,,,,,,,,,,,,,,,,,,,,,,,,,,,,,,
882314,001,2022-11-14_24h28.08.259,Info_measure_main_exp,2022.2.2,Win32,60.0528465,,,,,,,,,,,,,,,,,,masks/mask_003.jpg,,,,,,,,,,,,,,,,,,,,,,,,,,,,,,,,,,,,,,,,,,,0,2,2,2,1,,,,,,,,,,,,,,,,,,,,,,,,,,,,,,,,,,,,,,,,,,,,,,
882314,001,2022-11-14_24h28.08.259,Info_measure_main_exp,2022.2.2,Win32,60.0528465,,,,,,,,,,,,,,,,,,masks/mask_005.jpg,,,,,,,,,,,,,,,,,,,,,,,,,,,,,,,,,,,,,,,,,,,0,3,3,4,1,,,,,,,,,,,,,,,,,,,,,,,,,,,,,,,,,,,,,,,,,,,,,,
882314,001,2022-11-14_24h28.08.259,Info_measure_main_exp,2022.2.2,Win32,60.0528465,,,,,,,,,,,,,,,,,,masks/mask_004.jpg,,,,,,,,,,,,,,,,,,,,,,,,,,,,,,,,,,,,,,,,,,,0,4,4,3,1,,,,,,,,,,,,,,,,,,,,,,,,,,,,,,,,,,,,,,,,,,,,,,
882314,001,2022-11-14_24h28.08.259,Info_measure_main_exp,2022.2.2,Win32,60.0528465,,,,,,,,,,,,,,,,,,masks/mask_002.jpg,,,,,,,,,,,,,,,,,,,,,,,,,,,,,,,,,,,,,,,,,,,,,,,,0,0,0,1,1,,,,,,,,,,,,,,,,,,,,,,,,,,,,,,,,,,,,,,,,,
882314,001,2022-11-14_24h28.08.259,Info_measure_main_exp,2022.2.2,Win32,60.0528465,,,,,,,,,,,,,,,,,,masks/mask_001.jpg,,,,,,,,,,,,,,,,,,,,,,,,,,,,,,,,,,,,,,,,,,,,,,,,0,1,1,0,1,,,,,,,,,,,,,,,,,,,,,,,,,,,,,,,,,,,,,,,,,
882314,001,2022-11-14_24h28.08.259,Info_measure_main_exp,2022.2.2,Win32,60.0528465,,,,,,,,,,,,,,,,,,masks/mask_004.jpg,,,,,,,,,,,,,,,,,,,,,,,,,,,,,,,,,,,,,,,,,,,,,,,,0,2,2,3,1,,,,,,,,,,,,,,,,,,,,,,,,,,,,,,,,,,,,,,,,,
882314,001,2022-11-14_24h28.08.259,Info_measure_main_exp,2022.2.2,Win32,60.0528465,,,,,,,,,,,,,,,,,,masks/mask_003.jpg,,,,,,,,,,,,,,,,,,,,,,,,,,,,,,,,,,,,,,,,,,,,,,,,0,3,3,2,1,,,,,,,,,,,,,,,,,,,,,,,,,,,,,,,,,,,,,,,,,
882314,001,2022-11-14_24h28.08.259,Info_measure_main_exp,2022.2.2,Win32,60.0528465,,,,,,,,,,,,,,,,,,masks/mask_005.jpg,,,,,,,,,,,,,,,,,,,,,,,,,,,,,,,,,,,,,,,,,,,,,,,,0,4,4,4,1,,,,,,,,,,,,,,,,,,,,,,,,,,,,,,,,,,,,,,,,,
882314,001,2022-11-14_24h28.08.259,Info_measure_main_exp,2022.2.2,Win32,60.0528465,,,,,,,,,,,,,,,,,,,,,,,,,,,,,,6,1.0637,1,,,,,,,,,,,,1,131,5,5,1,2142,present_patch/cong_131_5_a.jpg,absent_patch/patch0002142.jpg,,,,,,,,,,,,,,,,,,,,0.116666653,0.037037037,1,0,0,response1disk,24,0.010185171,-0.0074074,1,0,0,center_square,0,23,23,80,1,,,,,,,,,,,,,,,,,,,,,,,
882314,001,2022-11-14_24h28.08.259,Info_measure_main_exp,2022.2.2,Win32,60.0528465,,,,,,,,,,,,,,,,,,masks/mask_002.jpg,,,,,,,,,,,,,,,,,,,,,,,,,,,,,,,,,,,,,,,,,,,0,0,0,1,1,,,,,,,,,,,,,,,,,,,,,,,,,,,,,,,,,,,,,,,,,,,,,,
882314,001,2022-11-14_24h28.08.259,Info_measure_main_exp,2022.2.2,Win32,60.0528465,,,,,,,,,,,,,,,,,,masks/mask_004.jpg,,,,,,,,,,,,,,,,,,,,,,,,,,,,,,,,,,,,,,,,,,,0,1,1,3,1,,,,,,,,,,,,,,,,,,,,,,,,,,,,,,,,,,,,,,,,,,,,,,
882314,001,2022-11-14_24h28.08.259,Info_measure_main_exp,2022.2.2,Win32,60.0528465,,,,,,,,,,,,,,,,,,masks/mask_005.jpg,,,,,,,,,,,,,,,,,,,,,,,,,,,,,,,,,,,,,,,,,,,0,2,2,4,1,,,,,,,,,,,,,,,,,,,,,,,,,,,,,,,,,,,,,,,,,,,,,,
882314,001,2022-11-14_24h28.08.259,Info_measure_main_exp,2022.2.2,Win32,60.0528465,,,,,,,,,,,,,,,,,,masks/mask_003.jpg,,,,,,,,,,,,,,,,,,,,,,,,,,,,,,,,,,,,,,,,,,,0,3,3,2,1,,,,,,,,,,,,,,,,,,,,,,,,,,,,,,,,,,,,,,,,,,,,,,
882314,001,2022-11-14_24h28.08.259,Info_measure_main_exp,2022.2.2,Win32,60.0528465,,,,,,,,,,,,,,,,,,masks/mask_001.jpg,,,,,,,,,,,,,,,,,,,,,,,,,,,,,,,,,,,,,,,,,,,0,4,4,0,1,,,,,,,,,,,,,,,,,,,,,,,,,,,,,,,,,,,,,,,,,,,,,,
882314,001,2022-11-14_24h28.08.259,Info_measure_main_exp,2022.2.2,Win32,60.0528465,,,,,,,,,,,,,,,,,,masks/mask_001.jpg,,,,,,,,,,,,,,,,,,,,,,,,,,,,,,,,,,,,,,,,,,,,,,,,0,0,0,0,1,,,,,,,,,,,,,,,,,,,,,,,,,,,,,,,,,,,,,,,,,
882314,001,2022-11-14_24h28.08.259,Info_measure_main_exp,2022.2.2,Win32,60.0528465,,,,,,,,,,,,,,,,,,masks/mask_003.jpg,,,,,,,,,,,,,,,,,,,,,,,,,,,,,,,,,,,,,,,,,,,,,,,,0,1,1,2,1,,,,,,,,,,,,,,,,,,,,,,,,,,,,,,,,,,,,,,,,,
882314,001,2022-11-14_24h28.08.259,Info_measure_main_exp,2022.2.2,Win32,60.0528465,,,,,,,,,,,,,,,,,,masks/mask_002.jpg,,,,,,,,,,,,,,,,,,,,,,,,,,,,,,,,,,,,,,,,,,,,,,,,0,2,2,1,1,,,,,,,,,,,,,,,,,,,,,,,,,,,,,,,,,,,,,,,,,
882314,001,2022-11-14_24h28.08.259,Info_measure_main_exp,2022.2.2,Win32,60.0528465,,,,,,,,,,,,,,,,,,masks/mask_005.jpg,,,,,,,,,,,,,,,,,,,,,,,,,,,,,,,,,,,,,,,,,,,,,,,,0,3,3,4,1,,,,,,,,,,,,,,,,,,,,,,,,,,,,,,,,,,,,,,,,,
882314,001,2022-11-14_24h28.08.259,Info_measure_main_exp,2022.2.2,Win32,60.0528465,,,,,,,,,,,,,,,,,,masks/mask_004.jpg,,,,,,,,,,,,,,,,,,,,,,,,,,,,,,,,,,,,,,,,,,,,,,,,0,4,4,3,1,,,,,,,,,,,,,,,,,,,,,,,,,,,,,,,,,,,,,,,,,
882314,001,2022-11-14_24h28.08.259,Info_measure_main_exp,2022.2.2,Win32,60.0528465,,,,,,,,,,,,,,,,,,,,,,,,,,,,,,6,1.1007,1,,,,,,,,,,,,0,131,5,5,2142,2238,absent_patch/patch0002142.jpg,absent_patch/patch0002238.jpg,,,,,,,,,,,,,,,,,,,,0.087037051,0.035185178,1,0,0,response1disk,25,0.00462963,-0.010185206,1,0,0,center_square,0,24,24,101,1,,,,,,,,,,,,,,,,,,,,,,,
882314,001,2022-11-14_24h28.08.259,Info_measure_main_exp,2022.2.2,Win32,60.0528465,,,,,,,,,,,,,,,,,,masks/mask_002.jpg,,,,,,,,,,,,,,,,,,,,,,,,,,,,,,,,,,,,,,,,,,,0,0,0,1,1,,,,,,,,,,,,,,,,,,,,,,,,,,,,,,,,,,,,,,,,,,,,,,
882314,001,2022-11-14_24h28.08.259,Info_measure_main_exp,2022.2.2,Win32,60.0528465,,,,,,,,,,,,,,,,,,masks/mask_005.jpg,,,,,,,,,,,,,,,,,,,,,,,,,,,,,,,,,,,,,,,,,,,0,1,1,4,1,,,,,,,,,,,,,,,,,,,,,,,,,,,,,,,,,,,,,,,,,,,,,,
882314,001,2022-11-14_24h28.08.259,Info_measure_main_exp,2022.2.2,Win32,60.0528465,,,,,,,,,,,,,,,,,,masks/mask_001.jpg,,,,,,,,,,,,,,,,,,,,,,,,,,,,,,,,,,,,,,,,,,,0,2,2,0,1,,,,,,,,,,,,,,,,,,,,,,,,,,,,,,,,,,,,,,,,,,,,,,
882314,001,2022-11-14_24h28.08.259,Info_measure_main_exp,2022.2.2,Win32,60.0528465,,,,,,,,,,,,,,,,,,masks/mask_004.jpg,,,,,,,,,,,,,,,,,,,,,,,,,,,,,,,,,,,,,,,,,,,0,3,3,3,1,,,,,,,,,,,,,,,,,,,,,,,,,,,,,,,,,,,,,,,,,,,,,,
882314,001,2022-11-14_24h28.08.259,Info_measure_main_exp,2022.2.2,Win32,60.0528465,,,,,,,,,,,,,,,,,,masks/mask_003.jpg,,,,,,,,,,,,,,,,,,,,,,,,,,,,,,,,,,,,,,,,,,,0,4,4,2,1,,,,,,,,,,,,,,,,,,,,,,,,,,,,,,,,,,,,,,,,,,,,,,
882314,001,2022-11-14_24h28.08.259,Info_measure_main_exp,2022.2.2,Win32,60.0528465,,,,,,,,,,,,,,,,,,masks/mask_004.jpg,,,,,,,,,,,,,,,,,,,,,,,,,,,,,,,,,,,,,,,,,,,,,,,,0,0,0,3,1,,,,,,,,,,,,,,,,,,,,,,,,,,,,,,,,,,,,,,,,,
882314,001,2022-11-14_24h28.08.259,Info_measure_main_exp,2022.2.2,Win32,60.0528465,,,,,,,,,,,,,,,,,,masks/mask_001.jpg,,,,,,,,,,,,,,,,,,,,,,,,,,,,,,,,,,,,,,,,,,,,,,,,0,1,1,0,1,,,,,,,,,,,,,,,,,,,,,,,,,,,,,,,,,,,,,,,,,
882314,001,2022-11-14_24h28.08.259,Info_measure_main_exp,2022.2.2,Win32,60.0528465,,,,,,,,,,,,,,,,,,masks/mask_003.jpg,,,,,,,,,,,,,,,,,,,,,,,,,,,,,,,,,,,,,,,,,,,,,,,,0,2,2,2,1,,,,,,,,,,,,,,,,,,,,,,,,,,,,,,,,,,,,,,,,,
882314,001,2022-11-14_24h28.08.259,Info_measure_main_exp,2022.2.2,Win32,60.0528465,,,,,,,,,,,,,,,,,,masks/mask_005.jpg,,,,,,,,,,,,,,,,,,,,,,,,,,,,,,,,,,,,,,,,,,,,,,,,0,3,3,4,1,,,,,,,,,,,,,,,,,,,,,,,,,,,,,,,,,,,,,,,,,
882314,001,2022-11-14_24h28.08.259,Info_measure_main_exp,2022.2.2,Win32,60.0528465,,,,,,,,,,,,,,,,,,masks/mask_002.jpg,,,,,,,,,,,,,,,,,,,,,,,,,,,,,,,,,,,,,,,,,,,,,,,,0,4,4,1,1,,,,,,,,,,,,,,,,,,,,,,,,,,,,,,,,,,,,,,,,,
882314,001,2022-11-14_24h28.08.259,Info_measure_main_exp,2022.2.2,Win32,60.0528465,,,,,,,,,,,,,,,,,,,,,,,,,,,,,,4,3.5163,1,,,,,,,,,,,,0,131,5,5,2082,2178,absent_patch/patch0002082.jpg,absent_patch/patch0002178.jpg,,,,,,,,,,,,,,,,,,,,0.032407407,-0.106481481,1,0,0,response3disk,26,-0.001851824,0.00462963,1,0,0,center_square,0,25,25,2,1,,,,,,,,,,,,,,,,,,,,,,,
882314,001,2022-11-14_24h28.08.259,Info_measure_main_exp,2022.2.2,Win32,60.0528465,,,,,,,,,,,,,,,,,,masks/mask_004.jpg,,,,,,,,,,,,,,,,,,,,,,,,,,,,,,,,,,,,,,,,,,,0,0,0,3,1,,,,,,,,,,,,,,,,,,,,,,,,,,,,,,,,,,,,,,,,,,,,,,
882314,001,2022-11-14_24h28.08.259,Info_measure_main_exp,2022.2.2,Win32,60.0528465,,,,,,,,,,,,,,,,,,masks/mask_005.jpg,,,,,,,,,,,,,,,,,,,,,,,,,,,,,,,,,,,,,,,,,,,0,1,1,4,1,,,,,,,,,,,,,,,,,,,,,,,,,,,,,,,,,,,,,,,,,,,,,,
882314,001,2022-11-14_24h28.08.259,Info_measure_main_exp,2022.2.2,Win32,60.0528465,,,,,,,,,,,,,,,,,,masks/mask_002.jpg,,,,,,,,,,,,,,,,,,,,,,,,,,,,,,,,,,,,,,,,,,,0,2,2,1,1,,,,,,,,,,,,,,,,,,,,,,,,,,,,,,,,,,,,,,,,,,,,,,
882314,001,2022-11-14_24h28.08.259,Info_measure_main_exp,2022.2.2,Win32,60.0528465,,,,,,,,,,,,,,,,,,masks/mask_003.jpg,,,,,,,,,,,,,,,,,,,,,,,,,,,,,,,,,,,,,,,,,,,0,3,3,2,1,,,,,,,,,,,,,,,,,,,,,,,,,,,,,,,,,,,,,,,,,,,,,,
882314,001,2022-11-14_24h28.08.259,Info_measure_main_exp,2022.2.2,Win32,60.0528465,,,,,,,,,,,,,,,,,,masks/mask_001.jpg,,,,,,,,,,,,,,,,,,,,,,,,,,,,,,,,,,,,,,,,,,,0,4,4,0,1,,,,,,,,,,,,,,,,,,,,,,,,,,,,,,,,,,,,,,,,,,,,,,
882314,001,2022-11-14_24h28.08.259,Info_measure_main_exp,2022.2.2,Win32,60.0528465,,,,,,,,,,,,,,,,,,masks/mask_005.jpg,,,,,,,,,,,,,,,,,,,,,,,,,,,,,,,,,,,,,,,,,,,,,,,,0,0,0,4,1,,,,,,,,,,,,,,,,,,,,,,,,,,,,,,,,,,,,,,,,,
882314,001,2022-11-14_24h28.08.259,Info_measure_main_exp,2022.2.2,Win32,60.0528465,,,,,,,,,,,,,,,,,,masks/mask_004.jpg,,,,,,,,,,,,,,,,,,,,,,,,,,,,,,,,,,,,,,,,,,,,,,,,0,1,1,3,1,,,,,,,,,,,,,,,,,,,,,,,,,,,,,,,,,,,,,,,,,
882314,001,2022-11-14_24h28.08.259,Info_measure_main_exp,2022.2.2,Win32,60.0528465,,,,,,,,,,,,,,,,,,masks/mask_001.jpg,,,,,,,,,,,,,,,,,,,,,,,,,,,,,,,,,,,,,,,,,,,,,,,,0,2,2,0,1,,,,,,,,,,,,,,,,,,,,,,,,,,,,,,,,,,,,,,,,,
882314,001,2022-11-14_24h28.08.259,Info_measure_main_exp,2022.2.2,Win32,60.0528465,,,,,,,,,,,,,,,,,,masks/mask_003.jpg,,,,,,,,,,,,,,,,,,,,,,,,,,,,,,,,,,,,,,,,,,,,,,,,0,3,3,2,1,,,,,,,,,,,,,,,,,,,,,,,,,,,,,,,,,,,,,,,,,
882314,001,2022-11-14_24h28.08.259,Info_measure_main_exp,2022.2.2,Win32,60.0528465,,,,,,,,,,,,,,,,,,masks/mask_002.jpg,,,,,,,,,,,,,,,,,,,,,,,,,,,,,,,,,,,,,,,,,,,,,,,,0,4,4,1,1,,,,,,,,,,,,,,,,,,,,,,,,,,,,,,,,,,,,,,,,,
882314,001,2022-11-14_24h28.08.259,Info_measure_main_exp,2022.2.2,Win32,60.0528465,,,,,,,,,,,,,,,,,,,,,,,,,,,,,,4,1.9829,1,,,,,,,,,,,,0,131,5,5,2238,2166,absent_patch/patch0002238.jpg,absent_patch/patch0002166.jpg,,,,,,,,,,,,,,,,,,,,0.050925926,-0.099074116,1,0,0,response3disk,27,0.002777806,-0.0074074,1,0,0,center_square,0,26,26,118,1,,,,,,,,,,,,,,,,,,,,,,,
882314,001,2022-11-14_24h28.08.259,Info_measure_main_exp,2022.2.2,Win32,60.0528465,,,,,,,,,,,,,,,,,,masks/mask_005.jpg,,,,,,,,,,,,,,,,,,,,,,,,,,,,,,,,,,,,,,,,,,,0,0,0,4,1,,,,,,,,,,,,,,,,,,,,,,,,,,,,,,,,,,,,,,,,,,,,,,
882314,001,2022-11-14_24h28.08.259,Info_measure_main_exp,2022.2.2,Win32,60.0528465,,,,,,,,,,,,,,,,,,masks/mask_003.jpg,,,,,,,,,,,,,,,,,,,,,,,,,,,,,,,,,,,,,,,,,,,0,1,1,2,1,,,,,,,,,,,,,,,,,,,,,,,,,,,,,,,,,,,,,,,,,,,,,,
882314,001,2022-11-14_24h28.08.259,Info_measure_main_exp,2022.2.2,Win32,60.0528465,,,,,,,,,,,,,,,,,,masks/mask_004.jpg,,,,,,,,,,,,,,,,,,,,,,,,,,,,,,,,,,,,,,,,,,,0,2,2,3,1,,,,,,,,,,,,,,,,,,,,,,,,,,,,,,,,,,,,,,,,,,,,,,
882314,001,2022-11-14_24h28.08.259,Info_measure_main_exp,2022.2.2,Win32,60.0528465,,,,,,,,,,,,,,,,,,masks/mask_002.jpg,,,,,,,,,,,,,,,,,,,,,,,,,,,,,,,,,,,,,,,,,,,0,3,3,1,1,,,,,,,,,,,,,,,,,,,,,,,,,,,,,,,,,,,,,,,,,,,,,,
882314,001,2022-11-14_24h28.08.259,Info_measure_main_exp,2022.2.2,Win32,60.0528465,,,,,,,,,,,,,,,,,,masks/mask_001.jpg,,,,,,,,,,,,,,,,,,,,,,,,,,,,,,,,,,,,,,,,,,,0,4,4,0,1,,,,,,,,,,,,,,,,,,,,,,,,,,,,,,,,,,,,,,,,,,,,,,
882314,001,2022-11-14_24h28.08.259,Info_measure_main_exp,2022.2.2,Win32,60.0528465,,,,,,,,,,,,,,,,,,masks/mask_002.jpg,,,,,,,,,,,,,,,,,,,,,,,,,,,,,,,,,,,,,,,,,,,,,,,,0,0,0,1,1,,,,,,,,,,,,,,,,,,,,,,,,,,,,,,,,,,,,,,,,,
882314,001,2022-11-14_24h28.08.259,Info_measure_main_exp,2022.2.2,Win32,60.0528465,,,,,,,,,,,,,,,,,,masks/mask_004.jpg,,,,,,,,,,,,,,,,,,,,,,,,,,,,,,,,,,,,,,,,,,,,,,,,0,1,1,3,1,,,,,,,,,,,,,,,,,,,,,,,,,,,,,,,,,,,,,,,,,
882314,001,2022-11-14_24h28.08.259,Info_measure_main_exp,2022.2.2,Win32,60.0528465,,,,,,,,,,,,,,,,,,masks/mask_003.jpg,,,,,,,,,,,,,,,,,,,,,,,,,,,,,,,,,,,,,,,,,,,,,,,,0,2,2,2,1,,,,,,,,,,,,,,,,,,,,,,,,,,,,,,,,,,,,,,,,,
882314,001,2022-11-14_24h28.08.259,Info_measure_main_exp,2022.2.2,Win32,60.0528465,,,,,,,,,,,,,,,,,,masks/mask_005.jpg,,,,,,,,,,,,,,,,,,,,,,,,,,,,,,,,,,,,,,,,,,,,,,,,0,3,3,4,1,,,,,,,,,,,,,,,,,,,,,,,,,,,,,,,,,,,,,,,,,
882314,001,2022-11-14_24h28.08.259,Info_measure_main_exp,2022.2.2,Win32,60.0528465,,,,,,,,,,,,,,,,,,masks/mask_001.jpg,,,,,,,,,,,,,,,,,,,,,,,,,,,,,,,,,,,,,,,,,,,,,,,,0,4,4,0,1,,,,,,,,,,,,,,,,,,,,,,,,,,,,,,,,,,,,,,,,,
882314,001,2022-11-14_24h28.08.259,Info_measure_main_exp,2022.2.2,Win32,60.0528465,,,,,,,,,,,,,,,,,,,,,,,,,,,,,,6,1.4501,1,,,,,,,,,,,,0,131,5,5,2178,2238,absent_patch/patch0002178.jpg,absent_patch/patch0002238.jpg,,,,,,,,,,,,,,,,,,,,0.117592635,0.029629637,1,0,0,response1disk,28,-0.014814801,0.006481489,1,0,0,center_square,0,27,27,57,1,,,,,,,,,,,,,,,,,,,,,,,
882314,001,2022-11-14_24h28.08.259,Info_measure_main_exp,2022.2.2,Win32,60.0528465,,,,,,,,,,,,,,,,,,masks/mask_001.jpg,,,,,,,,,,,,,,,,,,,,,,,,,,,,,,,,,,,,,,,,,,,0,0,0,0,1,,,,,,,,,,,,,,,,,,,,,,,,,,,,,,,,,,,,,,,,,,,,,,
882314,001,2022-11-14_24h28.08.259,Info_measure_main_exp,2022.2.2,Win32,60.0528465,,,,,,,,,,,,,,,,,,masks/mask_002.jpg,,,,,,,,,,,,,,,,,,,,,,,,,,,,,,,,,,,,,,,,,,,0,1,1,1,1,,,,,,,,,,,,,,,,,,,,,,,,,,,,,,,,,,,,,,,,,,,,,,
882314,001,2022-11-14_24h28.08.259,Info_measure_main_exp,2022.2.2,Win32,60.0528465,,,,,,,,,,,,,,,,,,masks/mask_003.jpg,,,,,,,,,,,,,,,,,,,,,,,,,,,,,,,,,,,,,,,,,,,0,2,2,2,1,,,,,,,,,,,,,,,,,,,,,,,,,,,,,,,,,,,,,,,,,,,,,,
882314,001,2022-11-14_24h28.08.259,Info_measure_main_exp,2022.2.2,Win32,60.0528465,,,,,,,,,,,,,,,,,,masks/mask_005.jpg,,,,,,,,,,,,,,,,,,,,,,,,,,,,,,,,,,,,,,,,,,,0,3,3,4,1,,,,,,,,,,,,,,,,,,,,,,,,,,,,,,,,,,,,,,,,,,,,,,
882314,001,2022-11-14_24h28.08.259,Info_measure_main_exp,2022.2.2,Win32,60.0528465,,,,,,,,,,,,,,,,,,masks/mask_004.jpg,,,,,,,,,,,,,,,,,,,,,,,,,,,,,,,,,,,,,,,,,,,0,4,4,3,1,,,,,,,,,,,,,,,,,,,,,,,,,,,,,,,,,,,,,,,,,,,,,,
882314,001,2022-11-14_24h28.08.259,Info_measure_main_exp,2022.2.2,Win32,60.0528465,,,,,,,,,,,,,,,,,,masks/mask_003.jpg,,,,,,,,,,,,,,,,,,,,,,,,,,,,,,,,,,,,,,,,,,,,,,,,0,0,0,2,1,,,,,,,,,,,,,,,,,,,,,,,,,,,,,,,,,,,,,,,,,
882314,001,2022-11-14_24h28.08.259,Info_measure_main_exp,2022.2.2,Win32,60.0528465,,,,,,,,,,,,,,,,,,masks/mask_002.jpg,,,,,,,,,,,,,,,,,,,,,,,,,,,,,,,,,,,,,,,,,,,,,,,,0,1,1,1,1,,,,,,,,,,,,,,,,,,,,,,,,,,,,,,,,,,,,,,,,,
882314,001,2022-11-14_24h28.08.259,Info_measure_main_exp,2022.2.2,Win32,60.0528465,,,,,,,,,,,,,,,,,,masks/mask_004.jpg,,,,,,,,,,,,,,,,,,,,,,,,,,,,,,,,,,,,,,,,,,,,,,,,0,2,2,3,1,,,,,,,,,,,,,,,,,,,,,,,,,,,,,,,,,,,,,,,,,
882314,001,2022-11-14_24h28.08.259,Info_measure_main_exp,2022.2.2,Win32,60.0528465,,,,,,,,,,,,,,,,,,masks/mask_005.jpg,,,,,,,,,,,,,,,,,,,,,,,,,,,,,,,,,,,,,,,,,,,,,,,,0,3,3,4,1,,,,,,,,,,,,,,,,,,,,,,,,,,,,,,,,,,,,,,,,,
882314,001,2022-11-14_24h28.08.259,Info_measure_main_exp,2022.2.2,Win32,60.0528465,,,,,,,,,,,,,,,,,,masks/mask_001.jpg,,,,,,,,,,,,,,,,,,,,,,,,,,,,,,,,,,,,,,,,,,,,,,,,0,4,4,0,1,,,,,,,,,,,,,,,,,,,,,,,,,,,,,,,,,,,,,,,,,
882314,001,2022-11-14_24h28.08.259,Info_measure_main_exp,2022.2.2,Win32,60.0528465,,,,,,,,,,,,,,,,,,,,,,,,,,,,,,5,1.7335,1,,,,,,,,,,,,0,131,5,5,1974,2142,absent_patch/patch0001974.jpg,absent_patch/patch0002142.jpg,,,,,,,,,,,,,,,,,,,,0.098148134,-0.048148155,1,0,0,response3disk,29,0.001851894,0.002777771,1,0,0,center_square,0,28,28,38,1,,,,,,,,,,,,,,,,,,,,,,,
882314,001,2022-11-14_24h28.08.259,Info_measure_main_exp,2022.2.2,Win32,60.0528465,,,,,,,,,,,,,,,,,,masks/mask_004.jpg,,,,,,,,,,,,,,,,,,,,,,,,,,,,,,,,,,,,,,,,,,,0,0,0,3,1,,,,,,,,,,,,,,,,,,,,,,,,,,,,,,,,,,,,,,,,,,,,,,
882314,001,2022-11-14_24h28.08.259,Info_measure_main_exp,2022.2.2,Win32,60.0528465,,,,,,,,,,,,,,,,,,masks/mask_003.jpg,,,,,,,,,,,,,,,,,,,,,,,,,,,,,,,,,,,,,,,,,,,0,1,1,2,1,,,,,,,,,,,,,,,,,,,,,,,,,,,,,,,,,,,,,,,,,,,,,,
882314,001,2022-11-14_24h28.08.259,Info_measure_main_exp,2022.2.2,Win32,60.0528465,,,,,,,,,,,,,,,,,,masks/mask_005.jpg,,,,,,,,,,,,,,,,,,,,,,,,,,,,,,,,,,,,,,,,,,,0,2,2,4,1,,,,,,,,,,,,,,,,,,,,,,,,,,,,,,,,,,,,,,,,,,,,,,
882314,001,2022-11-14_24h28.08.259,Info_measure_main_exp,2022.2.2,Win32,60.0528465,,,,,,,,,,,,,,,,,,masks/mask_001.jpg,,,,,,,,,,,,,,,,,,,,,,,,,,,,,,,,,,,,,,,,,,,0,3,3,0,1,,,,,,,,,,,,,,,,,,,,,,,,,,,,,,,,,,,,,,,,,,,,,,
882314,001,2022-11-14_24h28.08.259,Info_measure_main_exp,2022.2.2,Win32,60.0528465,,,,,,,,,,,,,,,,,,masks/mask_002.jpg,,,,,,,,,,,,,,,,,,,,,,,,,,,,,,,,,,,,,,,,,,,0,4,4,1,1,,,,,,,,,,,,,,,,,,,,,,,,,,,,,,,,,,,,,,,,,,,,,,
882314,001,2022-11-14_24h28.08.259,Info_measure_main_exp,2022.2.2,Win32,60.0528465,,,,,,,,,,,,,,,,,,masks/mask_003.jpg,,,,,,,,,,,,,,,,,,,,,,,,,,,,,,,,,,,,,,,,,,,,,,,,0,0,0,2,1,,,,,,,,,,,,,,,,,,,,,,,,,,,,,,,,,,,,,,,,,
882314,001,2022-11-14_24h28.08.259,Info_measure_main_exp,2022.2.2,Win32,60.0528465,,,,,,,,,,,,,,,,,,masks/mask_002.jpg,,,,,,,,,,,,,,,,,,,,,,,,,,,,,,,,,,,,,,,,,,,,,,,,0,1,1,1,1,,,,,,,,,,,,,,,,,,,,,,,,,,,,,,,,,,,,,,,,,
882314,001,2022-11-14_24h28.08.259,Info_measure_main_exp,2022.2.2,Win32,60.0528465,,,,,,,,,,,,,,,,,,masks/mask_001.jpg,,,,,,,,,,,,,,,,,,,,,,,,,,,,,,,,,,,,,,,,,,,,,,,,0,2,2,0,1,,,,,,,,,,,,,,,,,,,,,,,,,,,,,,,,,,,,,,,,,
882314,001,2022-11-14_24h28.08.259,Info_measure_main_exp,2022.2.2,Win32,60.0528465,,,,,,,,,,,,,,,,,,masks/mask_005.jpg,,,,,,,,,,,,,,,,,,,,,,,,,,,,,,,,,,,,,,,,,,,,,,,,0,3,3,4,1,,,,,,,,,,,,,,,,,,,,,,,,,,,,,,,,,,,,,,,,,
882314,001,2022-11-14_24h28.08.259,Info_measure_main_exp,2022.2.2,Win32,60.0528465,,,,,,,,,,,,,,,,,,masks/mask_004.jpg,,,,,,,,,,,,,,,,,,,,,,,,,,,,,,,,,,,,,,,,,,,,,,,,0,4,4,3,1,,,,,,,,,,,,,,,,,,,,,,,,,,,,,,,,,,,,,,,,,
882314,001,2022-11-14_24h28.08.259,Info_measure_main_exp,2022.2.2,Win32,60.0528465,,,,,,,,,,,,,,,,,,,,,,,,,,,,,,7,0.8136,1,,,,,,,,,,,,0,131,5,5,1950,2166,absent_patch/patch0001950.jpg,absent_patch/patch0002166.jpg,,,,,,,,,,,,,,,,,,,,0.044444473,0.101851852,1,0,0,response1disk,30,-0.001851824,0.006481489,1,0,0,center_square,0,29,29,0,1,,,,,,,,,,,,,,,,,,,,,,,
882314,001,2022-11-14_24h28.08.259,Info_measure_main_exp,2022.2.2,Win32,60.0528465,,,,,,,,,,,,,,,,,,masks/mask_001.jpg,,,,,,,,,,,,,,,,,,,,,,,,,,,,,,,,,,,,,,,,,,,0,0,0,0,1,,,,,,,,,,,,,,,,,,,,,,,,,,,,,,,,,,,,,,,,,,,,,,
882314,001,2022-11-14_24h28.08.259,Info_measure_main_exp,2022.2.2,Win32,60.0528465,,,,,,,,,,,,,,,,,,masks/mask_002.jpg,,,,,,,,,,,,,,,,,,,,,,,,,,,,,,,,,,,,,,,,,,,0,1,1,1,1,,,,,,,,,,,,,,,,,,,,,,,,,,,,,,,,,,,,,,,,,,,,,,
882314,001,2022-11-14_24h28.08.259,Info_measure_main_exp,2022.2.2,Win32,60.0528465,,,,,,,,,,,,,,,,,,masks/mask_003.jpg,,,,,,,,,,,,,,,,,,,,,,,,,,,,,,,,,,,,,,,,,,,0,2,2,2,1,,,,,,,,,,,,,,,,,,,,,,,,,,,,,,,,,,,,,,,,,,,,,,
882314,001,2022-11-14_24h28.08.259,Info_measure_main_exp,2022.2.2,Win32,60.0528465,,,,,,,,,,,,,,,,,,masks/mask_005.jpg,,,,,,,,,,,,,,,,,,,,,,,,,,,,,,,,,,,,,,,,,,,0,3,3,4,1,,,,,,,,,,,,,,,,,,,,,,,,,,,,,,,,,,,,,,,,,,,,,,
882314,001,2022-11-14_24h28.08.259,Info_measure_main_exp,2022.2.2,Win32,60.0528465,,,,,,,,,,,,,,,,,,masks/mask_004.jpg,,,,,,,,,,,,,,,,,,,,,,,,,,,,,,,,,,,,,,,,,,,0,4,4,3,1,,,,,,,,,,,,,,,,,,,,,,,,,,,,,,,,,,,,,,,,,,,,,,
882314,001,2022-11-14_24h28.08.259,Info_measure_main_exp,2022.2.2,Win32,60.0528465,,,,,,,,,,,,,,,,,,masks/mask_005.jpg,,,,,,,,,,,,,,,,,,,,,,,,,,,,,,,,,,,,,,,,,,,,,,,,0,0,0,4,1,,,,,,,,,,,,,,,,,,,,,,,,,,,,,,,,,,,,,,,,,
882314,001,2022-11-14_24h28.08.259,Info_measure_main_exp,2022.2.2,Win32,60.0528465,,,,,,,,,,,,,,,,,,masks/mask_001.jpg,,,,,,,,,,,,,,,,,,,,,,,,,,,,,,,,,,,,,,,,,,,,,,,,0,1,1,0,1,,,,,,,,,,,,,,,,,,,,,,,,,,,,,,,,,,,,,,,,,
882314,001,2022-11-14_24h28.08.259,Info_measure_main_exp,2022.2.2,Win32,60.0528465,,,,,,,,,,,,,,,,,,masks/mask_004.jpg,,,,,,,,,,,,,,,,,,,,,,,,,,,,,,,,,,,,,,,,,,,,,,,,0,2,2,3,1,,,,,,,,,,,,,,,,,,,,,,,,,,,,,,,,,,,,,,,,,
882314,001,2022-11-14_24h28.08.259,Info_measure_main_exp,2022.2.2,Win32,60.0528465,,,,,,,,,,,,,,,,,,masks/mask_003.jpg,,,,,,,,,,,,,,,,,,,,,,,,,,,,,,,,,,,,,,,,,,,,,,,,0,3,3,2,1,,,,,,,,,,,,,,,,,,,,,,,,,,,,,,,,,,,,,,,,,
882314,001,2022-11-14_24h28.08.259,Info_measure_main_exp,2022.2.2,Win32,60.0528465,,,,,,,,,,,,,,,,,,masks/mask_002.jpg,,,,,,,,,,,,,,,,,,,,,,,,,,,,,,,,,,,,,,,,,,,,,,,,0,4,4,1,1,,,,,,,,,,,,,,,,,,,,,,,,,,,,,,,,,,,,,,,,,
882314,001,2022-11-14_24h28.08.259,Info_measure_main_exp,2022.2.2,Win32,60.0528465,,,,,,,,,,,,,,,,,,,,,,,,,,,,,,6,1.0002,1,,,,,,,,,,,,0,131,5,5,2190,2082,absent_patch/patch0002190.jpg,absent_patch/patch0002082.jpg,,,,,,,,,,,,,,,,,,,,0.125,0.048148155,1,0,0,response1disk,31,-0.008333347,-0.008333347,1,0,0,center_square,0,30,30,112,1,,,,,,,,,,,,,,,,,,,,,,,
882314,001,2022-11-14_24h28.08.259,Info_measure_main_exp,2022.2.2,Win32,60.0528465,,,,,,,,,,,,,,,,,,masks/mask_004.jpg,,,,,,,,,,,,,,,,,,,,,,,,,,,,,,,,,,,,,,,,,,,0,0,0,3,1,,,,,,,,,,,,,,,,,,,,,,,,,,,,,,,,,,,,,,,,,,,,,,
882314,001,2022-11-14_24h28.08.259,Info_measure_main_exp,2022.2.2,Win32,60.0528465,,,,,,,,,,,,,,,,,,masks/mask_005.jpg,,,,,,,,,,,,,,,,,,,,,,,,,,,,,,,,,,,,,,,,,,,0,1,1,4,1,,,,,,,,,,,,,,,,,,,,,,,,,,,,,,,,,,,,,,,,,,,,,,
882314,001,2022-11-14_24h28.08.259,Info_measure_main_exp,2022.2.2,Win32,60.0528465,,,,,,,,,,,,,,,,,,masks/mask_001.jpg,,,,,,,,,,,,,,,,,,,,,,,,,,,,,,,,,,,,,,,,,,,0,2,2,0,1,,,,,,,,,,,,,,,,,,,,,,,,,,,,,,,,,,,,,,,,,,,,,,
882314,001,2022-11-14_24h28.08.259,Info_measure_main_exp,2022.2.2,Win32,60.0528465,,,,,,,,,,,,,,,,,,masks/mask_002.jpg,,,,,,,,,,,,,,,,,,,,,,,,,,,,,,,,,,,,,,,,,,,0,3,3,1,1,,,,,,,,,,,,,,,,,,,,,,,,,,,,,,,,,,,,,,,,,,,,,,
882314,001,2022-11-14_24h28.08.259,Info_measure_main_exp,2022.2.2,Win32,60.0528465,,,,,,,,,,,,,,,,,,masks/mask_003.jpg,,,,,,,,,,,,,,,,,,,,,,,,,,,,,,,,,,,,,,,,,,,0,4,4,2,1,,,,,,,,,,,,,,,,,,,,,,,,,,,,,,,,,,,,,,,,,,,,,,
882314,001,2022-11-14_24h28.08.259,Info_measure_main_exp,2022.2.2,Win32,60.0528465,,,,,,,,,,,,,,,,,,masks/mask_002.jpg,,,,,,,,,,,,,,,,,,,,,,,,,,,,,,,,,,,,,,,,,,,,,,,,0,0,0,1,1,,,,,,,,,,,,,,,,,,,,,,,,,,,,,,,,,,,,,,,,,
882314,001,2022-11-14_24h28.08.259,Info_measure_main_exp,2022.2.2,Win32,60.0528465,,,,,,,,,,,,,,,,,,masks/mask_005.jpg,,,,,,,,,,,,,,,,,,,,,,,,,,,,,,,,,,,,,,,,,,,,,,,,0,1,1,4,1,,,,,,,,,,,,,,,,,,,,,,,,,,,,,,,,,,,,,,,,,
882314,001,2022-11-14_24h28.08.259,Info_measure_main_exp,2022.2.2,Win32,60.0528465,,,,,,,,,,,,,,,,,,masks/mask_003.jpg,,,,,,,,,,,,,,,,,,,,,,,,,,,,,,,,,,,,,,,,,,,,,,,,0,2,2,2,1,,,,,,,,,,,,,,,,,,,,,,,,,,,,,,,,,,,,,,,,,
882314,001,2022-11-14_24h28.08.259,Info_measure_main_exp,2022.2.2,Win32,60.0528465,,,,,,,,,,,,,,,,,,masks/mask_004.jpg,,,,,,,,,,,,,,,,,,,,,,,,,,,,,,,,,,,,,,,,,,,,,,,,0,3,3,3,1,,,,,,,,,,,,,,,,,,,,,,,,,,,,,,,,,,,,,,,,,
882314,001,2022-11-14_24h28.08.259,Info_measure_main_exp,2022.2.2,Win32,60.0528465,,,,,,,,,,,,,,,,,,masks/mask_001.jpg,,,,,,,,,,,,,,,,,,,,,,,,,,,,,,,,,,,,,,,,,,,,,,,,0,4,4,0,1,,,,,,,,,,,,,,,,,,,,,,,,,,,,,,,,,,,,,,,,,
882314,001,2022-11-14_24h28.08.259,Info_measure_main_exp,2022.2.2,Win32,60.0528465,,,,,,,,,,,,,,,,,,,,,,,,,,,,,,5,3.4793,1,,,,,,,,,,,,1,131,5,5,1,2274,present_patch/cong_131_5_a.jpg,absent_patch/patch0002274.jpg,,,,,,,,,,,,,,,,,,,,0.137037065,-0.055555556,1,0,0,response3disk,32,0,-0.00462963,1,0,0,center_square,0,31,31,105,1,,,,,,,,,,,,,,,,,,,,,,,
882314,001,2022-11-14_24h28.08.259,Info_measure_main_exp,2022.2.2,Win32,60.0528465,,,,,,,,,,,,,,,,,,masks/mask_005.jpg,,,,,,,,,,,,,,,,,,,,,,,,,,,,,,,,,,,,,,,,,,,0,0,0,4,1,,,,,,,,,,,,,,,,,,,,,,,,,,,,,,,,,,,,,,,,,,,,,,
882314,001,2022-11-14_24h28.08.259,Info_measure_main_exp,2022.2.2,Win32,60.0528465,,,,,,,,,,,,,,,,,,masks/mask_002.jpg,,,,,,,,,,,,,,,,,,,,,,,,,,,,,,,,,,,,,,,,,,,0,1,1,1,1,,,,,,,,,,,,,,,,,,,,,,,,,,,,,,,,,,,,,,,,,,,,,,
882314,001,2022-11-14_24h28.08.259,Info_measure_main_exp,2022.2.2,Win32,60.0528465,,,,,,,,,,,,,,,,,,masks/mask_003.jpg,,,,,,,,,,,,,,,,,,,,,,,,,,,,,,,,,,,,,,,,,,,0,2,2,2,1,,,,,,,,,,,,,,,,,,,,,,,,,,,,,,,,,,,,,,,,,,,,,,
882314,001,2022-11-14_24h28.08.259,Info_measure_main_exp,2022.2.2,Win32,60.0528465,,,,,,,,,,,,,,,,,,masks/mask_004.jpg,,,,,,,,,,,,,,,,,,,,,,,,,,,,,,,,,,,,,,,,,,,0,3,3,3,1,,,,,,,,,,,,,,,,,,,,,,,,,,,,,,,,,,,,,,,,,,,,,,
882314,001,2022-11-14_24h28.08.259,Info_measure_main_exp,2022.2.2,Win32,60.0528465,,,,,,,,,,,,,,,,,,masks/mask_001.jpg,,,,,,,,,,,,,,,,,,,,,,,,,,,,,,,,,,,,,,,,,,,0,4,4,0,1,,,,,,,,,,,,,,,,,,,,,,,,,,,,,,,,,,,,,,,,,,,,,,
882314,001,2022-11-14_24h28.08.259,Info_measure_main_exp,2022.2.2,Win32,60.0528465,,,,,,,,,,,,,,,,,,masks/mask_002.jpg,,,,,,,,,,,,,,,,,,,,,,,,,,,,,,,,,,,,,,,,,,,,,,,,0,0,0,1,1,,,,,,,,,,,,,,,,,,,,,,,,,,,,,,,,,,,,,,,,,
882314,001,2022-11-14_24h28.08.259,Info_measure_main_exp,2022.2.2,Win32,60.0528465,,,,,,,,,,,,,,,,,,masks/mask_001.jpg,,,,,,,,,,,,,,,,,,,,,,,,,,,,,,,,,,,,,,,,,,,,,,,,0,1,1,0,1,,,,,,,,,,,,,,,,,,,,,,,,,,,,,,,,,,,,,,,,,
882314,001,2022-11-14_24h28.08.259,Info_measure_main_exp,2022.2.2,Win32,60.0528465,,,,,,,,,,,,,,,,,,masks/mask_003.jpg,,,,,,,,,,,,,,,,,,,,,,,,,,,,,,,,,,,,,,,,,,,,,,,,0,2,2,2,1,,,,,,,,,,,,,,,,,,,,,,,,,,,,,,,,,,,,,,,,,
882314,001,2022-11-14_24h28.08.259,Info_measure_main_exp,2022.2.2,Win32,60.0528465,,,,,,,,,,,,,,,,,,masks/mask_004.jpg,,,,,,,,,,,,,,,,,,,,,,,,,,,,,,,,,,,,,,,,,,,,,,,,0,3,3,3,1,,,,,,,,,,,,,,,,,,,,,,,,,,,,,,,,,,,,,,,,,
882314,001,2022-11-14_24h28.08.259,Info_measure_main_exp,2022.2.2,Win32,60.0528465,,,,,,,,,,,,,,,,,,masks/mask_005.jpg,,,,,,,,,,,,,,,,,,,,,,,,,,,,,,,,,,,,,,,,,,,,,,,,0,4,4,4,1,,,,,,,,,,,,,,,,,,,,,,,,,,,,,,,,,,,,,,,,,
882314,001,2022-11-14_24h28.08.259,Info_measure_main_exp,2022.2.2,Win32,60.0528465,,,,,,,,,,,,,,,,,,,,,,,,,,,,,,3,2.1995,1,,,,,,,,,,,,0,131,5,5,2298,2190,absent_patch/patch0002298.jpg,absent_patch/patch0002190.jpg,,,,,,,,,,,,,,,,,,,,-0.039814772,-0.112963005,1,0,0,response5disk,33,-0.001851824,-0.006481489,1,0,0,center_square,0,32,32,20,1,,,,,,,,,,,,,,,,,,,,,,,
882314,001,2022-11-14_24h28.08.259,Info_measure_main_exp,2022.2.2,Win32,60.0528465,,,,,,,,,,,,,,,,,,masks/mask_003.jpg,,,,,,,,,,,,,,,,,,,,,,,,,,,,,,,,,,,,,,,,,,,0,0,0,2,1,,,,,,,,,,,,,,,,,,,,,,,,,,,,,,,,,,,,,,,,,,,,,,
882314,001,2022-11-14_24h28.08.259,Info_measure_main_exp,2022.2.2,Win32,60.0528465,,,,,,,,,,,,,,,,,,masks/mask_002.jpg,,,,,,,,,,,,,,,,,,,,,,,,,,,,,,,,,,,,,,,,,,,0,1,1,1,1,,,,,,,,,,,,,,,,,,,,,,,,,,,,,,,,,,,,,,,,,,,,,,
882314,001,2022-11-14_24h28.08.259,Info_measure_main_exp,2022.2.2,Win32,60.0528465,,,,,,,,,,,,,,,,,,masks/mask_005.jpg,,,,,,,,,,,,,,,,,,,,,,,,,,,,,,,,,,,,,,,,,,,0,2,2,4,1,,,,,,,,,,,,,,,,,,,,,,,,,,,,,,,,,,,,,,,,,,,,,,
882314,001,2022-11-14_24h28.08.259,Info_measure_main_exp,2022.2.2,Win32,60.0528465,,,,,,,,,,,,,,,,,,masks/mask_004.jpg,,,,,,,,,,,,,,,,,,,,,,,,,,,,,,,,,,,,,,,,,,,0,3,3,3,1,,,,,,,,,,,,,,,,,,,,,,,,,,,,,,,,,,,,,,,,,,,,,,
882314,001,2022-11-14_24h28.08.259,Info_measure_main_exp,2022.2.2,Win32,60.0528465,,,,,,,,,,,,,,,,,,masks/mask_001.jpg,,,,,,,,,,,,,,,,,,,,,,,,,,,,,,,,,,,,,,,,,,,0,4,4,0,1,,,,,,,,,,,,,,,,,,,,,,,,,,,,,,,,,,,,,,,,,,,,,,
882314,001,2022-11-14_24h28.08.259,Info_measure_main_exp,2022.2.2,Win32,60.0528465,,,,,,,,,,,,,,,,,,masks/mask_003.jpg,,,,,,,,,,,,,,,,,,,,,,,,,,,,,,,,,,,,,,,,,,,,,,,,0,0,0,2,1,,,,,,,,,,,,,,,,,,,,,,,,,,,,,,,,,,,,,,,,,
882314,001,2022-11-14_24h28.08.259,Info_measure_main_exp,2022.2.2,Win32,60.0528465,,,,,,,,,,,,,,,,,,masks/mask_004.jpg,,,,,,,,,,,,,,,,,,,,,,,,,,,,,,,,,,,,,,,,,,,,,,,,0,1,1,3,1,,,,,,,,,,,,,,,,,,,,,,,,,,,,,,,,,,,,,,,,,
882314,001,2022-11-14_24h28.08.259,Info_measure_main_exp,2022.2.2,Win32,60.0528465,,,,,,,,,,,,,,,,,,masks/mask_002.jpg,,,,,,,,,,,,,,,,,,,,,,,,,,,,,,,,,,,,,,,,,,,,,,,,0,2,2,1,1,,,,,,,,,,,,,,,,,,,,,,,,,,,,,,,,,,,,,,,,,
882314,001,2022-11-14_24h28.08.259,Info_measure_main_exp,2022.2.2,Win32,60.0528465,,,,,,,,,,,,,,,,,,masks/mask_001.jpg,,,,,,,,,,,,,,,,,,,,,,,,,,,,,,,,,,,,,,,,,,,,,,,,0,3,3,0,1,,,,,,,,,,,,,,,,,,,,,,,,,,,,,,,,,,,,,,,,,
882314,001,2022-11-14_24h28.08.259,Info_measure_main_exp,2022.2.2,Win32,60.0528465,,,,,,,,,,,,,,,,,,masks/mask_005.jpg,,,,,,,,,,,,,,,,,,,,,,,,,,,,,,,,,,,,,,,,,,,,,,,,0,4,4,4,1,,,,,,,,,,,,,,,,,,,,,,,,,,,,,,,,,,,,,,,,,
882314,001,2022-11-14_24h28.08.259,Info_measure_main_exp,2022.2.2,Win32,60.0528465,,,,,,,,,,,,,,,,,,,,,,,,,,,,,,4,1.437,1,,,,,,,,,,,,0,131,5,5,2274,2238,absent_patch/patch0002274.jpg,absent_patch/patch0002238.jpg,,,,,,,,,,,,,,,,,,,,0.020370413,-0.108333376,1,0,0,response3disk,34,-0.000925912,-0.0074074,1,0,0,center_square,0,33,33,91,1,,,,,,,,,,,,,,,,,,,,,,,
882314,001,2022-11-14_24h28.08.259,Info_measure_main_exp,2022.2.2,Win32,60.0528465,,,,,,,,,,,,,,,,,,masks/mask_005.jpg,,,,,,,,,,,,,,,,,,,,,,,,,,,,,,,,,,,,,,,,,,,0,0,0,4,1,,,,,,,,,,,,,,,,,,,,,,,,,,,,,,,,,,,,,,,,,,,,,,
882314,001,2022-11-14_24h28.08.259,Info_measure_main_exp,2022.2.2,Win32,60.0528465,,,,,,,,,,,,,,,,,,masks/mask_003.jpg,,,,,,,,,,,,,,,,,,,,,,,,,,,,,,,,,,,,,,,,,,,0,1,1,2,1,,,,,,,,,,,,,,,,,,,,,,,,,,,,,,,,,,,,,,,,,,,,,,
882314,001,2022-11-14_24h28.08.259,Info_measure_main_exp,2022.2.2,Win32,60.0528465,,,,,,,,,,,,,,,,,,masks/mask_002.jpg,,,,,,,,,,,,,,,,,,,,,,,,,,,,,,,,,,,,,,,,,,,0,2,2,1,1,,,,,,,,,,,,,,,,,,,,,,,,,,,,,,,,,,,,,,,,,,,,,,
882314,001,2022-11-14_24h28.08.259,Info_measure_main_exp,2022.2.2,Win32,60.0528465,,,,,,,,,,,,,,,,,,masks/mask_001.jpg,,,,,,,,,,,,,,,,,,,,,,,,,,,,,,,,,,,,,,,,,,,0,3,3,0,1,,,,,,,,,,,,,,,,,,,,,,,,,,,,,,,,,,,,,,,,,,,,,,
882314,001,2022-11-14_24h28.08.259,Info_measure_main_exp,2022.2.2,Win32,60.0528465,,,,,,,,,,,,,,,,,,masks/mask_004.jpg,,,,,,,,,,,,,,,,,,,,,,,,,,,,,,,,,,,,,,,,,,,0,4,4,3,1,,,,,,,,,,,,,,,,,,,,,,,,,,,,,,,,,,,,,,,,,,,,,,
882314,001,2022-11-14_24h28.08.259,Info_measure_main_exp,2022.2.2,Win32,60.0528465,,,,,,,,,,,,,,,,,,masks/mask_002.jpg,,,,,,,,,,,,,,,,,,,,,,,,,,,,,,,,,,,,,,,,,,,,,,,,0,0,0,1,1,,,,,,,,,,,,,,,,,,,,,,,,,,,,,,,,,,,,,,,,,
882314,001,2022-11-14_24h28.08.259,Info_measure_main_exp,2022.2.2,Win32,60.0528465,,,,,,,,,,,,,,,,,,masks/mask_005.jpg,,,,,,,,,,,,,,,,,,,,,,,,,,,,,,,,,,,,,,,,,,,,,,,,0,1,1,4,1,,,,,,,,,,,,,,,,,,,,,,,,,,,,,,,,,,,,,,,,,
882314,001,2022-11-14_24h28.08.259,Info_measure_main_exp,2022.2.2,Win32,60.0528465,,,,,,,,,,,,,,,,,,masks/mask_003.jpg,,,,,,,,,,,,,,,,,,,,,,,,,,,,,,,,,,,,,,,,,,,,,,,,0,2,2,2,1,,,,,,,,,,,,,,,,,,,,,,,,,,,,,,,,,,,,,,,,,
882314,001,2022-11-14_24h28.08.259,Info_measure_main_exp,2022.2.2,Win32,60.0528465,,,,,,,,,,,,,,,,,,masks/mask_004.jpg,,,,,,,,,,,,,,,,,,,,,,,,,,,,,,,,,,,,,,,,,,,,,,,,0,3,3,3,1,,,,,,,,,,,,,,,,,,,,,,,,,,,,,,,,,,,,,,,,,
882314,001,2022-11-14_24h28.08.259,Info_measure_main_exp,2022.2.2,Win32,60.0528465,,,,,,,,,,,,,,,,,,masks/mask_001.jpg,,,,,,,,,,,,,,,,,,,,,,,,,,,,,,,,,,,,,,,,,,,,,,,,0,4,4,0,1,,,,,,,,,,,,,,,,,,,,,,,,,,,,,,,,,,,,,,,,,
