participant,session,date,expName,psychopyVersion,OS,frameRate,space_press_continue.keys,space_press_continue.rt,space_press_continue_2.keys,space_press_continue_2.rt,space_press_continue_3.keys,space_press_continue_3.rt,space_press_continue_4.keys,space_press_continue_4.rt,space_press_continue_5.keys,space_press_continue_5.rt,space_press_continue_6.keys,space_press_continue_6.rt,prac_mask_loop_1.thisRepN,prac_mask_loop_1.thisTrialN,prac_mask_loop_1.thisN,prac_mask_loop_1.thisIndex,prac_mask_loop_1.ran,mask_name,prac_mask_loop_2.thisRepN,prac_mask_loop_2.thisTrialN,prac_mask_loop_2.thisN,prac_mask_loop_2.thisIndex,prac_mask_loop_2.ran,mouse_2.x,mouse_2.y,mouse_2.leftButton,mouse_2.midButton,mouse_2.rightButton,mouse_2.clicked_name,similarity,response_time,Pass,mouse_12.x,mouse_12.y,mouse_12.leftButton,mouse_12.midButton,mouse_12.rightButton,mouse_12.clicked_name,prac_loop.thisRepN,prac_loop.thisTrialN,prac_loop.thisN,prac_loop.thisIndex,prac_loop.ran,Pair_type,Image_num,Patch_1_loc,Patch_2_loc,Patch_1_info,Patch_2_info,Patch_1_name,Patch_2_name,mouse_1.x,mouse_1.y,mouse_1.leftButton,mouse_1.midButton,mouse_1.rightButton,mouse_1.time,mouse_1.clicked_name,space_press_continue_7.keys,space_press_continue_7.rt,mask_loop.thisRepN,mask_loop.thisTrialN,mask_loop.thisN,mask_loop.thisIndex,mask_loop.ran,mask_loop_2.thisRepN,mask_loop_2.thisTrialN,mask_loop_2.thisN,mask_loop_2.thisIndex,mask_loop_2.ran,mouse.x,mouse.y,mouse.leftButton,mouse.midButton,mouse.rightButton,mouse.clicked_name,trialNumber,mouse_11.x,mouse_11.y,mouse_11.leftButton,mouse_11.midButton,mouse_11.rightButton,mouse_11.clicked_name,first_pass_loop.thisRepN,first_pass_loop.thisTrialN,first_pass_loop.thisN,first_pass_loop.thisIndex,first_pass_loop.ran,mask_loop_3.thisRepN,mask_loop_3.thisTrialN,mask_loop_3.thisN,mask_loop_3.thisIndex,mask_loop_3.ran,mask_loop_4.thisRepN,mask_loop_4.thisTrialN,mask_loop_4.thisN,mask_loop_4.thisIndex,mask_loop_4.ran,mouse_3.x,mouse_3.y,mouse_3.leftButton,mouse_3.midButton,mouse_3.rightButton,mouse_3.clicked_name,double_pass_loop.thisRepN,double_pass_loop.thisTrialN,double_pass_loop.thisN,double_pass_loop.thisIndex,double_pass_loop.ran,space_exit.keys,space_exit.rt
889471,001,2022-11-13_17h37.59.965,Info_measure_main_exp,2022.2.2,Win32,59.86948452,,,,,,,,,,,,,,,,,,,,,,,,,,,,,,,,,,,,,,,,,,,,,,,,,,,,,,,,,,,,,,,,,,,,,,,,,,,,,,,,,,,,,,,,,,,,,,,,,,,,,,,,,,,,,,,
889471,001,2022-11-13_17h37.59.965,Info_measure_main_exp,2022.2.2,Win32,59.86948452,,,,,,,,,,,,,,,,,,,,,,,,,,,,,,,,,,,,,,,,,,,,,,,,,,,,,,,,,,,,,,,,,,,,,,,,,,,,,,,,,,,,,,,,,,,,,,,,,,,,,,,,,,,,,,,
889471,001,2022-11-13_17h37.59.965,Info_measure_main_exp,2022.2.2,Win32,59.86948452,space,7.7735,,,,,,,,,,,,,,,,,,,,,,,,,,,,,,,,,,,,,,,,,,,,,,,,,,,,,,,,,,,,,,,,,,,,,,,,,,,,,,,,,,,,,,,,,,,,,,,,,,,,,,,,,,,,,
889471,001,2022-11-13_17h37.59.965,Info_measure_main_exp,2022.2.2,Win32,59.86948452,,,space,16.0822,,,,,,,,,,,,,,,,,,,,,,,,,,,,,,,,,,,,,,,,,,,,,,,,,,,,,,,,,,,,,,,,,,,,,,,,,,,,,,,,,,,,,,,,,,,,,,,,,,,,,,,,,,,
889471,001,2022-11-13_17h37.59.965,Info_measure_main_exp,2022.2.2,Win32,59.86948452,,,,,space,9.9746,,,,,,,,,,,,,,,,,,,,,,,,,,,,,,,,,,,,,,,,,,,,,,,,,,,,,,,,,,,,,,,,,,,,,,,,,,,,,,,,,,,,,,,,,,,,,,,,,,,,,,,,,
889471,001,2022-11-13_17h37.59.965,Info_measure_main_exp,2022.2.2,Win32,59.86948452,,,,,,,space,34.0258,,,,,,,,,,,,,,,,,,,,,,,,,,,,,,,,,,,,,,,,,,,,,,,,,,,,,,,,,,,,,,,,,,,,,,,,,,,,,,,,,,,,,,,,,,,,,,,,,,,,,,,
889471,001,2022-11-13_17h37.59.965,Info_measure_main_exp,2022.2.2,Win32,59.86948452,,,,,,,,,space,8.8804,,,,,,,,,,,,,,,,,,,,,,,,,,,,,,,,,,,,,,,,,,,,,,,,,,,,,,,,,,,,,,,,,,,,,,,,,,,,,,,,,,,,,,,,,,,,,,,,,,,,,
889471,001,2022-11-13_17h37.59.965,Info_measure_main_exp,2022.2.2,Win32,59.86948452,,,,,,,,,,,space,8.968,,,,,,,,,,,,,,,,,,,,,,,,,,,,,,,,,,,,,,,,,,,,,,,,,,,,,,,,,,,,,,,,,,,,,,,,,,,,,,,,,,,,,,,,,,,,,,,,,,,
889471,001,2022-11-13_17h37.59.965,Info_measure_main_exp,2022.2.2,Win32,59.86948452,,,,,,,,,,,,,0,0,0,0,1,masks/mask_001.jpg,,,,,,,,,,,,,,,,,,,,,,,,,,,,,,,,,,,,,,,,,,,,,,,,,,,,,,,,,,,,,,,,,,,,,,,,,,,,,,,,,,,,,,,,,,,,,
889471,001,2022-11-13_17h37.59.965,Info_measure_main_exp,2022.2.2,Win32,59.86948452,,,,,,,,,,,,,0,1,1,2,1,masks/mask_003.jpg,,,,,,,,,,,,,,,,,,,,,,,,,,,,,,,,,,,,,,,,,,,,,,,,,,,,,,,,,,,,,,,,,,,,,,,,,,,,,,,,,,,,,,,,,,,,,
889471,001,2022-11-13_17h37.59.965,Info_measure_main_exp,2022.2.2,Win32,59.86948452,,,,,,,,,,,,,0,2,2,1,1,masks/mask_002.jpg,,,,,,,,,,,,,,,,,,,,,,,,,,,,,,,,,,,,,,,,,,,,,,,,,,,,,,,,,,,,,,,,,,,,,,,,,,,,,,,,,,,,,,,,,,,,,
889471,001,2022-11-13_17h37.59.965,Info_measure_main_exp,2022.2.2,Win32,59.86948452,,,,,,,,,,,,,0,3,3,4,1,masks/mask_005.jpg,,,,,,,,,,,,,,,,,,,,,,,,,,,,,,,,,,,,,,,,,,,,,,,,,,,,,,,,,,,,,,,,,,,,,,,,,,,,,,,,,,,,,,,,,,,,,
889471,001,2022-11-13_17h37.59.965,Info_measure_main_exp,2022.2.2,Win32,59.86948452,,,,,,,,,,,,,0,4,4,3,1,masks/mask_004.jpg,,,,,,,,,,,,,,,,,,,,,,,,,,,,,,,,,,,,,,,,,,,,,,,,,,,,,,,,,,,,,,,,,,,,,,,,,,,,,,,,,,,,,,,,,,,,,
889471,001,2022-11-13_17h37.59.965,Info_measure_main_exp,2022.2.2,Win32,59.86948452,,,,,,,,,,,,,,,,,,masks/mask_002.jpg,0,0,0,1,1,,,,,,,,,,,,,,,,,,,,,,,,,,,,,,,,,,,,,,,,,,,,,,,,,,,,,,,,,,,,,,,,,,,,,,,,,,,,,,,,,,,,,,,,
889471,001,2022-11-13_17h37.59.965,Info_measure_main_exp,2022.2.2,Win32,59.86948452,,,,,,,,,,,,,,,,,,masks/mask_001.jpg,0,1,1,0,1,,,,,,,,,,,,,,,,,,,,,,,,,,,,,,,,,,,,,,,,,,,,,,,,,,,,,,,,,,,,,,,,,,,,,,,,,,,,,,,,,,,,,,,,
889471,001,2022-11-13_17h37.59.965,Info_measure_main_exp,2022.2.2,Win32,59.86948452,,,,,,,,,,,,,,,,,,masks/mask_003.jpg,0,2,2,2,1,,,,,,,,,,,,,,,,,,,,,,,,,,,,,,,,,,,,,,,,,,,,,,,,,,,,,,,,,,,,,,,,,,,,,,,,,,,,,,,,,,,,,,,,
889471,001,2022-11-13_17h37.59.965,Info_measure_main_exp,2022.2.2,Win32,59.86948452,,,,,,,,,,,,,,,,,,masks/mask_005.jpg,0,3,3,4,1,,,,,,,,,,,,,,,,,,,,,,,,,,,,,,,,,,,,,,,,,,,,,,,,,,,,,,,,,,,,,,,,,,,,,,,,,,,,,,,,,,,,,,,,
889471,001,2022-11-13_17h37.59.965,Info_measure_main_exp,2022.2.2,Win32,59.86948452,,,,,,,,,,,,,,,,,,masks/mask_004.jpg,0,4,4,3,1,,,,,,,,,,,,,,,,,,,,,,,,,,,,,,,,,,,,,,,,,,,,,,,,,,,,,,,,,,,,,,,,,,,,,,,,,,,,,,,,,,,,,,,,
889471,001,2022-11-13_17h37.59.965,Info_measure_main_exp,2022.2.2,Win32,59.86948452,,,,,,,,,,,,,,,,,,,,,,,,-0.166666667,-0.034722222,1,0,0,response5disk,2,94.7101,1,-0.001388889,0.005555556,1,0,0,center_square,0,0,0,1,1,0,131,5,5,2514,2490,prac_patch/patch0002514.jpg,prac_patch/patch0002490.jpg,,,,,,,,,,,,,,,,,,,,,,,,,,,,,,,,,,,,,,,,,,,,,,,,,,,,,,,,,,,,
889471,001,2022-11-13_17h37.59.965,Info_measure_main_exp,2022.2.2,Win32,59.86948452,,,,,,,,,,,,,0,0,0,0,1,masks/mask_001.jpg,,,,,,,,,,,,,,,,,,,,,,,,,,,,,,,,,,,,,,,,,,,,,,,,,,,,,,,,,,,,,,,,,,,,,,,,,,,,,,,,,,,,,,,,,,,,,
889471,001,2022-11-13_17h37.59.965,Info_measure_main_exp,2022.2.2,Win32,59.86948452,,,,,,,,,,,,,0,1,1,1,1,masks/mask_002.jpg,,,,,,,,,,,,,,,,,,,,,,,,,,,,,,,,,,,,,,,,,,,,,,,,,,,,,,,,,,,,,,,,,,,,,,,,,,,,,,,,,,,,,,,,,,,,,
889471,001,2022-11-13_17h37.59.965,Info_measure_main_exp,2022.2.2,Win32,59.86948452,,,,,,,,,,,,,0,2,2,2,1,masks/mask_003.jpg,,,,,,,,,,,,,,,,,,,,,,,,,,,,,,,,,,,,,,,,,,,,,,,,,,,,,,,,,,,,,,,,,,,,,,,,,,,,,,,,,,,,,,,,,,,,,
889471,001,2022-11-13_17h37.59.965,Info_measure_main_exp,2022.2.2,Win32,59.86948452,,,,,,,,,,,,,0,3,3,3,1,masks/mask_004.jpg,,,,,,,,,,,,,,,,,,,,,,,,,,,,,,,,,,,,,,,,,,,,,,,,,,,,,,,,,,,,,,,,,,,,,,,,,,,,,,,,,,,,,,,,,,,,,
889471,001,2022-11-13_17h37.59.965,Info_measure_main_exp,2022.2.2,Win32,59.86948452,,,,,,,,,,,,,0,4,4,4,1,masks/mask_005.jpg,,,,,,,,,,,,,,,,,,,,,,,,,,,,,,,,,,,,,,,,,,,,,,,,,,,,,,,,,,,,,,,,,,,,,,,,,,,,,,,,,,,,,,,,,,,,,
889471,001,2022-11-13_17h37.59.965,Info_measure_main_exp,2022.2.2,Win32,59.86948452,,,,,,,,,,,,,,,,,,masks/mask_005.jpg,0,0,0,4,1,,,,,,,,,,,,,,,,,,,,,,,,,,,,,,,,,,,,,,,,,,,,,,,,,,,,,,,,,,,,,,,,,,,,,,,,,,,,,,,,,,,,,,,,
889471,001,2022-11-13_17h37.59.965,Info_measure_main_exp,2022.2.2,Win32,59.86948452,,,,,,,,,,,,,,,,,,masks/mask_003.jpg,0,1,1,2,1,,,,,,,,,,,,,,,,,,,,,,,,,,,,,,,,,,,,,,,,,,,,,,,,,,,,,,,,,,,,,,,,,,,,,,,,,,,,,,,,,,,,,,,,
889471,001,2022-11-13_17h37.59.965,Info_measure_main_exp,2022.2.2,Win32,59.86948452,,,,,,,,,,,,,,,,,,masks/mask_004.jpg,0,2,2,3,1,,,,,,,,,,,,,,,,,,,,,,,,,,,,,,,,,,,,,,,,,,,,,,,,,,,,,,,,,,,,,,,,,,,,,,,,,,,,,,,,,,,,,,,,
889471,001,2022-11-13_17h37.59.965,Info_measure_main_exp,2022.2.2,Win32,59.86948452,,,,,,,,,,,,,,,,,,masks/mask_002.jpg,0,3,3,1,1,,,,,,,,,,,,,,,,,,,,,,,,,,,,,,,,,,,,,,,,,,,,,,,,,,,,,,,,,,,,,,,,,,,,,,,,,,,,,,,,,,,,,,,,
889471,001,2022-11-13_17h37.59.965,Info_measure_main_exp,2022.2.2,Win32,59.86948452,,,,,,,,,,,,,,,,,,masks/mask_001.jpg,0,4,4,0,1,,,,,,,,,,,,,,,,,,,,,,,,,,,,,,,,,,,,,,,,,,,,,,,,,,,,,,,,,,,,,,,,,,,,,,,,,,,,,,,,,,,,,,,,
889471,001,2022-11-13_17h37.59.965,Info_measure_main_exp,2022.2.2,Win32,59.86948452,,,,,,,,,,,,,,,,,,,,,,,,-0.079166667,0.1625,1,0,0,response7disk,0,107.6418,1,-0.004166667,0.002777778,1,0,0,center_square,0,1,1,2,1,0,131,5,5,2526,2526,prac_patch/patch0002526.jpg,prac_patch/patch0002526.jpg,,,,,,,,,,,,,,,,,,,,,,,,,,,,,,,,,,,,,,,,,,,,,,,,,,,,,,,,,,,,
889471,001,2022-11-13_17h37.59.965,Info_measure_main_exp,2022.2.2,Win32,59.86948452,,,,,,,,,,,,,0,0,0,0,1,masks/mask_001.jpg,,,,,,,,,,,,,,,,,,,,,,,,,,,,,,,,,,,,,,,,,,,,,,,,,,,,,,,,,,,,,,,,,,,,,,,,,,,,,,,,,,,,,,,,,,,,,
889471,001,2022-11-13_17h37.59.965,Info_measure_main_exp,2022.2.2,Win32,59.86948452,,,,,,,,,,,,,0,1,1,2,1,masks/mask_003.jpg,,,,,,,,,,,,,,,,,,,,,,,,,,,,,,,,,,,,,,,,,,,,,,,,,,,,,,,,,,,,,,,,,,,,,,,,,,,,,,,,,,,,,,,,,,,,,
889471,001,2022-11-13_17h37.59.965,Info_measure_main_exp,2022.2.2,Win32,59.86948452,,,,,,,,,,,,,0,2,2,1,1,masks/mask_002.jpg,,,,,,,,,,,,,,,,,,,,,,,,,,,,,,,,,,,,,,,,,,,,,,,,,,,,,,,,,,,,,,,,,,,,,,,,,,,,,,,,,,,,,,,,,,,,,
889471,001,2022-11-13_17h37.59.965,Info_measure_main_exp,2022.2.2,Win32,59.86948452,,,,,,,,,,,,,0,3,3,3,1,masks/mask_004.jpg,,,,,,,,,,,,,,,,,,,,,,,,,,,,,,,,,,,,,,,,,,,,,,,,,,,,,,,,,,,,,,,,,,,,,,,,,,,,,,,,,,,,,,,,,,,,,
889471,001,2022-11-13_17h37.59.965,Info_measure_main_exp,2022.2.2,Win32,59.86948452,,,,,,,,,,,,,0,4,4,4,1,masks/mask_005.jpg,,,,,,,,,,,,,,,,,,,,,,,,,,,,,,,,,,,,,,,,,,,,,,,,,,,,,,,,,,,,,,,,,,,,,,,,,,,,,,,,,,,,,,,,,,,,,
889471,001,2022-11-13_17h37.59.965,Info_measure_main_exp,2022.2.2,Win32,59.86948452,,,,,,,,,,,,,,,,,,masks/mask_002.jpg,0,0,0,1,1,,,,,,,,,,,,,,,,,,,,,,,,,,,,,,,,,,,,,,,,,,,,,,,,,,,,,,,,,,,,,,,,,,,,,,,,,,,,,,,,,,,,,,,,
889471,001,2022-11-13_17h37.59.965,Info_measure_main_exp,2022.2.2,Win32,59.86948452,,,,,,,,,,,,,,,,,,masks/mask_004.jpg,0,1,1,3,1,,,,,,,,,,,,,,,,,,,,,,,,,,,,,,,,,,,,,,,,,,,,,,,,,,,,,,,,,,,,,,,,,,,,,,,,,,,,,,,,,,,,,,,,
889471,001,2022-11-13_17h37.59.965,Info_measure_main_exp,2022.2.2,Win32,59.86948452,,,,,,,,,,,,,,,,,,masks/mask_005.jpg,0,2,2,4,1,,,,,,,,,,,,,,,,,,,,,,,,,,,,,,,,,,,,,,,,,,,,,,,,,,,,,,,,,,,,,,,,,,,,,,,,,,,,,,,,,,,,,,,,
889471,001,2022-11-13_17h37.59.965,Info_measure_main_exp,2022.2.2,Win32,59.86948452,,,,,,,,,,,,,,,,,,masks/mask_003.jpg,0,3,3,2,1,,,,,,,,,,,,,,,,,,,,,,,,,,,,,,,,,,,,,,,,,,,,,,,,,,,,,,,,,,,,,,,,,,,,,,,,,,,,,,,,,,,,,,,,
889471,001,2022-11-13_17h37.59.965,Info_measure_main_exp,2022.2.2,Win32,59.86948452,,,,,,,,,,,,,,,,,,masks/mask_001.jpg,0,4,4,0,1,,,,,,,,,,,,,,,,,,,,,,,,,,,,,,,,,,,,,,,,,,,,,,,,,,,,,,,,,,,,,,,,,,,,,,,,,,,,,,,,,,,,,,,,
889471,001,2022-11-13_17h37.59.965,Info_measure_main_exp,2022.2.2,Win32,59.86948452,,,,,,,,,,,,,,,,,,,,,,,,0.169444444,0.052777778,1,0,0,response1disk,6,117.2812,1,0.002777778,0.006944444,1,0,0,center_square,0,2,2,0,1,0,131,5,5,2370,2406,prac_patch/patch0002370.jpg,prac_patch/patch0002406.jpg,,,,,,,,,,,,,,,,,,,,,,,,,,,,,,,,,,,,,,,,,,,,,,,,,,,,,,,,,,,,
889471,001,2022-11-13_17h37.59.965,Info_measure_main_exp,2022.2.2,Win32,59.86948452,,,,,,,,,,,,,,,,,,,,,,,,,,,,,,,,,,,,,,,,,,,,,,,,,,,,,,,,,,,space,4.7618,,,,,,,,,,,,,,,,,,,,,,,,,,,,,,,,,,,,,,,,,,,,,,,,,,,
889471,001,2022-11-13_17h37.59.965,Info_measure_main_exp,2022.2.2,Win32,59.86948452,,,,,,,,,,,,,,,,,,masks/mask_002.jpg,,,,,,,,,,,,,,,,,,,,,,,,,,,,,,,,,,,,,,,,,,,0,0,0,1,1,,,,,,,,,,,,,,,,,,,,,,,,,,,,,,,,,,,,,,,,,,,,,,
889471,001,2022-11-13_17h37.59.965,Info_measure_main_exp,2022.2.2,Win32,59.86948452,,,,,,,,,,,,,,,,,,masks/mask_004.jpg,,,,,,,,,,,,,,,,,,,,,,,,,,,,,,,,,,,,,,,,,,,0,1,1,3,1,,,,,,,,,,,,,,,,,,,,,,,,,,,,,,,,,,,,,,,,,,,,,,
889471,001,2022-11-13_17h37.59.965,Info_measure_main_exp,2022.2.2,Win32,59.86948452,,,,,,,,,,,,,,,,,,masks/mask_005.jpg,,,,,,,,,,,,,,,,,,,,,,,,,,,,,,,,,,,,,,,,,,,0,2,2,4,1,,,,,,,,,,,,,,,,,,,,,,,,,,,,,,,,,,,,,,,,,,,,,,
889471,001,2022-11-13_17h37.59.965,Info_measure_main_exp,2022.2.2,Win32,59.86948452,,,,,,,,,,,,,,,,,,masks/mask_001.jpg,,,,,,,,,,,,,,,,,,,,,,,,,,,,,,,,,,,,,,,,,,,0,3,3,0,1,,,,,,,,,,,,,,,,,,,,,,,,,,,,,,,,,,,,,,,,,,,,,,
889471,001,2022-11-13_17h37.59.965,Info_measure_main_exp,2022.2.2,Win32,59.86948452,,,,,,,,,,,,,,,,,,masks/mask_003.jpg,,,,,,,,,,,,,,,,,,,,,,,,,,,,,,,,,,,,,,,,,,,0,4,4,2,1,,,,,,,,,,,,,,,,,,,,,,,,,,,,,,,,,,,,,,,,,,,,,,
889471,001,2022-11-13_17h37.59.965,Info_measure_main_exp,2022.2.2,Win32,59.86948452,,,,,,,,,,,,,,,,,,masks/mask_002.jpg,,,,,,,,,,,,,,,,,,,,,,,,,,,,,,,,,,,,,,,,,,,,,,,,0,0,0,1,1,,,,,,,,,,,,,,,,,,,,,,,,,,,,,,,,,,,,,,,,,
889471,001,2022-11-13_17h37.59.965,Info_measure_main_exp,2022.2.2,Win32,59.86948452,,,,,,,,,,,,,,,,,,masks/mask_001.jpg,,,,,,,,,,,,,,,,,,,,,,,,,,,,,,,,,,,,,,,,,,,,,,,,0,1,1,0,1,,,,,,,,,,,,,,,,,,,,,,,,,,,,,,,,,,,,,,,,,
889471,001,2022-11-13_17h37.59.965,Info_measure_main_exp,2022.2.2,Win32,59.86948452,,,,,,,,,,,,,,,,,,masks/mask_003.jpg,,,,,,,,,,,,,,,,,,,,,,,,,,,,,,,,,,,,,,,,,,,,,,,,0,2,2,2,1,,,,,,,,,,,,,,,,,,,,,,,,,,,,,,,,,,,,,,,,,
889471,001,2022-11-13_17h37.59.965,Info_measure_main_exp,2022.2.2,Win32,59.86948452,,,,,,,,,,,,,,,,,,masks/mask_005.jpg,,,,,,,,,,,,,,,,,,,,,,,,,,,,,,,,,,,,,,,,,,,,,,,,0,3,3,4,1,,,,,,,,,,,,,,,,,,,,,,,,,,,,,,,,,,,,,,,,,
889471,001,2022-11-13_17h37.59.965,Info_measure_main_exp,2022.2.2,Win32,59.86948452,,,,,,,,,,,,,,,,,,masks/mask_004.jpg,,,,,,,,,,,,,,,,,,,,,,,,,,,,,,,,,,,,,,,,,,,,,,,,0,4,4,3,1,,,,,,,,,,,,,,,,,,,,,,,,,,,,,,,,,,,,,,,,,
889471,001,2022-11-13_17h37.59.965,Info_measure_main_exp,2022.2.2,Win32,59.86948452,,,,,,,,,,,,,,,,,,,,,,,,,,,,,,5,2.7024,1,,,,,,,,,,,,0,131,5,5,2238,2298,absent_patch/patch0002238.jpg,absent_patch/patch0002298.jpg,,,,,,,,,,,,,,,,,,,,0.176388889,-0.048611111,1,0,0,response3disk,1,-0.004166667,-0.001388889,1,0,0,center_square,0,0,0,51,1,,,,,,,,,,,,,,,,,,,,,,,
889471,001,2022-11-13_17h37.59.965,Info_measure_main_exp,2022.2.2,Win32,59.86948452,,,,,,,,,,,,,,,,,,masks/mask_005.jpg,,,,,,,,,,,,,,,,,,,,,,,,,,,,,,,,,,,,,,,,,,,0,0,0,4,1,,,,,,,,,,,,,,,,,,,,,,,,,,,,,,,,,,,,,,,,,,,,,,
889471,001,2022-11-13_17h37.59.965,Info_measure_main_exp,2022.2.2,Win32,59.86948452,,,,,,,,,,,,,,,,,,masks/mask_002.jpg,,,,,,,,,,,,,,,,,,,,,,,,,,,,,,,,,,,,,,,,,,,0,1,1,1,1,,,,,,,,,,,,,,,,,,,,,,,,,,,,,,,,,,,,,,,,,,,,,,
889471,001,2022-11-13_17h37.59.965,Info_measure_main_exp,2022.2.2,Win32,59.86948452,,,,,,,,,,,,,,,,,,masks/mask_003.jpg,,,,,,,,,,,,,,,,,,,,,,,,,,,,,,,,,,,,,,,,,,,0,2,2,2,1,,,,,,,,,,,,,,,,,,,,,,,,,,,,,,,,,,,,,,,,,,,,,,
889471,001,2022-11-13_17h37.59.965,Info_measure_main_exp,2022.2.2,Win32,59.86948452,,,,,,,,,,,,,,,,,,masks/mask_001.jpg,,,,,,,,,,,,,,,,,,,,,,,,,,,,,,,,,,,,,,,,,,,0,3,3,0,1,,,,,,,,,,,,,,,,,,,,,,,,,,,,,,,,,,,,,,,,,,,,,,
889471,001,2022-11-13_17h37.59.965,Info_measure_main_exp,2022.2.2,Win32,59.86948452,,,,,,,,,,,,,,,,,,masks/mask_004.jpg,,,,,,,,,,,,,,,,,,,,,,,,,,,,,,,,,,,,,,,,,,,0,4,4,3,1,,,,,,,,,,,,,,,,,,,,,,,,,,,,,,,,,,,,,,,,,,,,,,
889471,001,2022-11-13_17h37.59.965,Info_measure_main_exp,2022.2.2,Win32,59.86948452,,,,,,,,,,,,,,,,,,masks/mask_005.jpg,,,,,,,,,,,,,,,,,,,,,,,,,,,,,,,,,,,,,,,,,,,,,,,,0,0,0,4,1,,,,,,,,,,,,,,,,,,,,,,,,,,,,,,,,,,,,,,,,,
889471,001,2022-11-13_17h37.59.965,Info_measure_main_exp,2022.2.2,Win32,59.86948452,,,,,,,,,,,,,,,,,,masks/mask_003.jpg,,,,,,,,,,,,,,,,,,,,,,,,,,,,,,,,,,,,,,,,,,,,,,,,0,1,1,2,1,,,,,,,,,,,,,,,,,,,,,,,,,,,,,,,,,,,,,,,,,
889471,001,2022-11-13_17h37.59.965,Info_measure_main_exp,2022.2.2,Win32,59.86948452,,,,,,,,,,,,,,,,,,masks/mask_004.jpg,,,,,,,,,,,,,,,,,,,,,,,,,,,,,,,,,,,,,,,,,,,,,,,,0,2,2,3,1,,,,,,,,,,,,,,,,,,,,,,,,,,,,,,,,,,,,,,,,,
889471,001,2022-11-13_17h37.59.965,Info_measure_main_exp,2022.2.2,Win32,59.86948452,,,,,,,,,,,,,,,,,,masks/mask_002.jpg,,,,,,,,,,,,,,,,,,,,,,,,,,,,,,,,,,,,,,,,,,,,,,,,0,3,3,1,1,,,,,,,,,,,,,,,,,,,,,,,,,,,,,,,,,,,,,,,,,
889471,001,2022-11-13_17h37.59.965,Info_measure_main_exp,2022.2.2,Win32,59.86948452,,,,,,,,,,,,,,,,,,masks/mask_001.jpg,,,,,,,,,,,,,,,,,,,,,,,,,,,,,,,,,,,,,,,,,,,,,,,,0,4,4,0,1,,,,,,,,,,,,,,,,,,,,,,,,,,,,,,,,,,,,,,,,,
889471,001,2022-11-13_17h37.59.965,Info_measure_main_exp,2022.2.2,Win32,59.86948452,,,,,,,,,,,,,,,,,,,,,,,,,,,,,,6,3.4485,1,,,,,,,,,,,,0,131,5,5,1986,1974,absent_patch/patch0001986.jpg,absent_patch/patch0001974.jpg,,,,,,,,,,,,,,,,,,,,0.155555556,0.094444444,1,0,0,response1disk,2,0,-0.001388889,1,0,0,center_square,0,1,1,25,1,,,,,,,,,,,,,,,,,,,,,,,
889471,001,2022-11-13_17h37.59.965,Info_measure_main_exp,2022.2.2,Win32,59.86948452,,,,,,,,,,,,,,,,,,masks/mask_004.jpg,,,,,,,,,,,,,,,,,,,,,,,,,,,,,,,,,,,,,,,,,,,0,0,0,3,1,,,,,,,,,,,,,,,,,,,,,,,,,,,,,,,,,,,,,,,,,,,,,,
889471,001,2022-11-13_17h37.59.965,Info_measure_main_exp,2022.2.2,Win32,59.86948452,,,,,,,,,,,,,,,,,,masks/mask_001.jpg,,,,,,,,,,,,,,,,,,,,,,,,,,,,,,,,,,,,,,,,,,,0,1,1,0,1,,,,,,,,,,,,,,,,,,,,,,,,,,,,,,,,,,,,,,,,,,,,,,
889471,001,2022-11-13_17h37.59.965,Info_measure_main_exp,2022.2.2,Win32,59.86948452,,,,,,,,,,,,,,,,,,masks/mask_005.jpg,,,,,,,,,,,,,,,,,,,,,,,,,,,,,,,,,,,,,,,,,,,0,2,2,4,1,,,,,,,,,,,,,,,,,,,,,,,,,,,,,,,,,,,,,,,,,,,,,,
889471,001,2022-11-13_17h37.59.965,Info_measure_main_exp,2022.2.2,Win32,59.86948452,,,,,,,,,,,,,,,,,,masks/mask_003.jpg,,,,,,,,,,,,,,,,,,,,,,,,,,,,,,,,,,,,,,,,,,,0,3,3,2,1,,,,,,,,,,,,,,,,,,,,,,,,,,,,,,,,,,,,,,,,,,,,,,
889471,001,2022-11-13_17h37.59.965,Info_measure_main_exp,2022.2.2,Win32,59.86948452,,,,,,,,,,,,,,,,,,masks/mask_002.jpg,,,,,,,,,,,,,,,,,,,,,,,,,,,,,,,,,,,,,,,,,,,0,4,4,1,1,,,,,,,,,,,,,,,,,,,,,,,,,,,,,,,,,,,,,,,,,,,,,,
889471,001,2022-11-13_17h37.59.965,Info_measure_main_exp,2022.2.2,Win32,59.86948452,,,,,,,,,,,,,,,,,,masks/mask_003.jpg,,,,,,,,,,,,,,,,,,,,,,,,,,,,,,,,,,,,,,,,,,,,,,,,0,0,0,2,1,,,,,,,,,,,,,,,,,,,,,,,,,,,,,,,,,,,,,,,,,
889471,001,2022-11-13_17h37.59.965,Info_measure_main_exp,2022.2.2,Win32,59.86948452,,,,,,,,,,,,,,,,,,masks/mask_001.jpg,,,,,,,,,,,,,,,,,,,,,,,,,,,,,,,,,,,,,,,,,,,,,,,,0,1,1,0,1,,,,,,,,,,,,,,,,,,,,,,,,,,,,,,,,,,,,,,,,,
889471,001,2022-11-13_17h37.59.965,Info_measure_main_exp,2022.2.2,Win32,59.86948452,,,,,,,,,,,,,,,,,,masks/mask_002.jpg,,,,,,,,,,,,,,,,,,,,,,,,,,,,,,,,,,,,,,,,,,,,,,,,0,2,2,1,1,,,,,,,,,,,,,,,,,,,,,,,,,,,,,,,,,,,,,,,,,
889471,001,2022-11-13_17h37.59.965,Info_measure_main_exp,2022.2.2,Win32,59.86948452,,,,,,,,,,,,,,,,,,masks/mask_005.jpg,,,,,,,,,,,,,,,,,,,,,,,,,,,,,,,,,,,,,,,,,,,,,,,,0,3,3,4,1,,,,,,,,,,,,,,,,,,,,,,,,,,,,,,,,,,,,,,,,,
889471,001,2022-11-13_17h37.59.965,Info_measure_main_exp,2022.2.2,Win32,59.86948452,,,,,,,,,,,,,,,,,,masks/mask_004.jpg,,,,,,,,,,,,,,,,,,,,,,,,,,,,,,,,,,,,,,,,,,,,,,,,0,4,4,3,1,,,,,,,,,,,,,,,,,,,,,,,,,,,,,,,,,,,,,,,,,
889471,001,2022-11-13_17h37.59.965,Info_measure_main_exp,2022.2.2,Win32,59.86948452,,,,,,,,,,,,,,,,,,,,,,,,,,,,,,4,3.2356,1,,,,,,,,,,,,0,131,5,5,2178,2154,absent_patch/patch0002178.jpg,absent_patch/patch0002154.jpg,,,,,,,,,,,,,,,,,,,,0.036111111,-0.165277778,1,0,0,response3disk,3,0.002777778,0.004166667,1,0,0,center_square,0,2,2,63,1,,,,,,,,,,,,,,,,,,,,,,,
889471,001,2022-11-13_17h37.59.965,Info_measure_main_exp,2022.2.2,Win32,59.86948452,,,,,,,,,,,,,,,,,,masks/mask_001.jpg,,,,,,,,,,,,,,,,,,,,,,,,,,,,,,,,,,,,,,,,,,,0,0,0,0,1,,,,,,,,,,,,,,,,,,,,,,,,,,,,,,,,,,,,,,,,,,,,,,
889471,001,2022-11-13_17h37.59.965,Info_measure_main_exp,2022.2.2,Win32,59.86948452,,,,,,,,,,,,,,,,,,masks/mask_003.jpg,,,,,,,,,,,,,,,,,,,,,,,,,,,,,,,,,,,,,,,,,,,0,1,1,2,1,,,,,,,,,,,,,,,,,,,,,,,,,,,,,,,,,,,,,,,,,,,,,,
889471,001,2022-11-13_17h37.59.965,Info_measure_main_exp,2022.2.2,Win32,59.86948452,,,,,,,,,,,,,,,,,,masks/mask_002.jpg,,,,,,,,,,,,,,,,,,,,,,,,,,,,,,,,,,,,,,,,,,,0,2,2,1,1,,,,,,,,,,,,,,,,,,,,,,,,,,,,,,,,,,,,,,,,,,,,,,
889471,001,2022-11-13_17h37.59.965,Info_measure_main_exp,2022.2.2,Win32,59.86948452,,,,,,,,,,,,,,,,,,masks/mask_004.jpg,,,,,,,,,,,,,,,,,,,,,,,,,,,,,,,,,,,,,,,,,,,0,3,3,3,1,,,,,,,,,,,,,,,,,,,,,,,,,,,,,,,,,,,,,,,,,,,,,,
889471,001,2022-11-13_17h37.59.965,Info_measure_main_exp,2022.2.2,Win32,59.86948452,,,,,,,,,,,,,,,,,,masks/mask_005.jpg,,,,,,,,,,,,,,,,,,,,,,,,,,,,,,,,,,,,,,,,,,,0,4,4,4,1,,,,,,,,,,,,,,,,,,,,,,,,,,,,,,,,,,,,,,,,,,,,,,
889471,001,2022-11-13_17h37.59.965,Info_measure_main_exp,2022.2.2,Win32,59.86948452,,,,,,,,,,,,,,,,,,masks/mask_001.jpg,,,,,,,,,,,,,,,,,,,,,,,,,,,,,,,,,,,,,,,,,,,,,,,,0,0,0,0,1,,,,,,,,,,,,,,,,,,,,,,,,,,,,,,,,,,,,,,,,,
889471,001,2022-11-13_17h37.59.965,Info_measure_main_exp,2022.2.2,Win32,59.86948452,,,,,,,,,,,,,,,,,,masks/mask_003.jpg,,,,,,,,,,,,,,,,,,,,,,,,,,,,,,,,,,,,,,,,,,,,,,,,0,1,1,2,1,,,,,,,,,,,,,,,,,,,,,,,,,,,,,,,,,,,,,,,,,
889471,001,2022-11-13_17h37.59.965,Info_measure_main_exp,2022.2.2,Win32,59.86948452,,,,,,,,,,,,,,,,,,masks/mask_002.jpg,,,,,,,,,,,,,,,,,,,,,,,,,,,,,,,,,,,,,,,,,,,,,,,,0,2,2,1,1,,,,,,,,,,,,,,,,,,,,,,,,,,,,,,,,,,,,,,,,,
889471,001,2022-11-13_17h37.59.965,Info_measure_main_exp,2022.2.2,Win32,59.86948452,,,,,,,,,,,,,,,,,,masks/mask_004.jpg,,,,,,,,,,,,,,,,,,,,,,,,,,,,,,,,,,,,,,,,,,,,,,,,0,3,3,3,1,,,,,,,,,,,,,,,,,,,,,,,,,,,,,,,,,,,,,,,,,
889471,001,2022-11-13_17h37.59.965,Info_measure_main_exp,2022.2.2,Win32,59.86948452,,,,,,,,,,,,,,,,,,masks/mask_005.jpg,,,,,,,,,,,,,,,,,,,,,,,,,,,,,,,,,,,,,,,,,,,,,,,,0,4,4,4,1,,,,,,,,,,,,,,,,,,,,,,,,,,,,,,,,,,,,,,,,,
889471,001,2022-11-13_17h37.59.965,Info_measure_main_exp,2022.2.2,Win32,59.86948452,,,,,,,,,,,,,,,,,,,,,,,,,,,,,,6,2.2015,1,,,,,,,,,,,,0,131,5,5,2154,2250,absent_patch/patch0002154.jpg,absent_patch/patch0002250.jpg,,,,,,,,,,,,,,,,,,,,0.179166667,0.043055556,1,0,0,response1disk,4,0.005555556,0.005555556,1,0,0,center_square,0,3,3,108,1,,,,,,,,,,,,,,,,,,,,,,,
889471,001,2022-11-13_17h37.59.965,Info_measure_main_exp,2022.2.2,Win32,59.86948452,,,,,,,,,,,,,,,,,,masks/mask_001.jpg,,,,,,,,,,,,,,,,,,,,,,,,,,,,,,,,,,,,,,,,,,,0,0,0,0,1,,,,,,,,,,,,,,,,,,,,,,,,,,,,,,,,,,,,,,,,,,,,,,
889471,001,2022-11-13_17h37.59.965,Info_measure_main_exp,2022.2.2,Win32,59.86948452,,,,,,,,,,,,,,,,,,masks/mask_005.jpg,,,,,,,,,,,,,,,,,,,,,,,,,,,,,,,,,,,,,,,,,,,0,1,1,4,1,,,,,,,,,,,,,,,,,,,,,,,,,,,,,,,,,,,,,,,,,,,,,,
889471,001,2022-11-13_17h37.59.965,Info_measure_main_exp,2022.2.2,Win32,59.86948452,,,,,,,,,,,,,,,,,,masks/mask_003.jpg,,,,,,,,,,,,,,,,,,,,,,,,,,,,,,,,,,,,,,,,,,,0,2,2,2,1,,,,,,,,,,,,,,,,,,,,,,,,,,,,,,,,,,,,,,,,,,,,,,
889471,001,2022-11-13_17h37.59.965,Info_measure_main_exp,2022.2.2,Win32,59.86948452,,,,,,,,,,,,,,,,,,masks/mask_004.jpg,,,,,,,,,,,,,,,,,,,,,,,,,,,,,,,,,,,,,,,,,,,0,3,3,3,1,,,,,,,,,,,,,,,,,,,,,,,,,,,,,,,,,,,,,,,,,,,,,,
889471,001,2022-11-13_17h37.59.965,Info_measure_main_exp,2022.2.2,Win32,59.86948452,,,,,,,,,,,,,,,,,,masks/mask_002.jpg,,,,,,,,,,,,,,,,,,,,,,,,,,,,,,,,,,,,,,,,,,,0,4,4,1,1,,,,,,,,,,,,,,,,,,,,,,,,,,,,,,,,,,,,,,,,,,,,,,
889471,001,2022-11-13_17h37.59.965,Info_measure_main_exp,2022.2.2,Win32,59.86948452,,,,,,,,,,,,,,,,,,masks/mask_002.jpg,,,,,,,,,,,,,,,,,,,,,,,,,,,,,,,,,,,,,,,,,,,,,,,,0,0,0,1,1,,,,,,,,,,,,,,,,,,,,,,,,,,,,,,,,,,,,,,,,,
889471,001,2022-11-13_17h37.59.965,Info_measure_main_exp,2022.2.2,Win32,59.86948452,,,,,,,,,,,,,,,,,,masks/mask_001.jpg,,,,,,,,,,,,,,,,,,,,,,,,,,,,,,,,,,,,,,,,,,,,,,,,0,1,1,0,1,,,,,,,,,,,,,,,,,,,,,,,,,,,,,,,,,,,,,,,,,
889471,001,2022-11-13_17h37.59.965,Info_measure_main_exp,2022.2.2,Win32,59.86948452,,,,,,,,,,,,,,,,,,masks/mask_004.jpg,,,,,,,,,,,,,,,,,,,,,,,,,,,,,,,,,,,,,,,,,,,,,,,,0,2,2,3,1,,,,,,,,,,,,,,,,,,,,,,,,,,,,,,,,,,,,,,,,,
889471,001,2022-11-13_17h37.59.965,Info_measure_main_exp,2022.2.2,Win32,59.86948452,,,,,,,,,,,,,,,,,,masks/mask_003.jpg,,,,,,,,,,,,,,,,,,,,,,,,,,,,,,,,,,,,,,,,,,,,,,,,0,3,3,2,1,,,,,,,,,,,,,,,,,,,,,,,,,,,,,,,,,,,,,,,,,
889471,001,2022-11-13_17h37.59.965,Info_measure_main_exp,2022.2.2,Win32,59.86948452,,,,,,,,,,,,,,,,,,masks/mask_005.jpg,,,,,,,,,,,,,,,,,,,,,,,,,,,,,,,,,,,,,,,,,,,,,,,,0,4,4,4,1,,,,,,,,,,,,,,,,,,,,,,,,,,,,,,,,,,,,,,,,,
889471,001,2022-11-13_17h37.59.965,Info_measure_main_exp,2022.2.2,Win32,59.86948452,,,,,,,,,,,,,,,,,,,,,,,,,,,,,,6,1.786,1,,,,,,,,,,,,1,131,5,5,2190,1,absent_patch/patch0002190.jpg,present_patch/cong_131_5_a.jpg,,,,,,,,,,,,,,,,,,,,0.126388889,0.063888889,1,0,0,response1disk,5,0,0.004166667,1,0,0,center_square,0,4,4,64,1,,,,,,,,,,,,,,,,,,,,,,,
889471,001,2022-11-13_17h37.59.965,Info_measure_main_exp,2022.2.2,Win32,59.86948452,,,,,,,,,,,,,,,,,,masks/mask_001.jpg,,,,,,,,,,,,,,,,,,,,,,,,,,,,,,,,,,,,,,,,,,,0,0,0,0,1,,,,,,,,,,,,,,,,,,,,,,,,,,,,,,,,,,,,,,,,,,,,,,
889471,001,2022-11-13_17h37.59.965,Info_measure_main_exp,2022.2.2,Win32,59.86948452,,,,,,,,,,,,,,,,,,masks/mask_005.jpg,,,,,,,,,,,,,,,,,,,,,,,,,,,,,,,,,,,,,,,,,,,0,1,1,4,1,,,,,,,,,,,,,,,,,,,,,,,,,,,,,,,,,,,,,,,,,,,,,,
889471,001,2022-11-13_17h37.59.965,Info_measure_main_exp,2022.2.2,Win32,59.86948452,,,,,,,,,,,,,,,,,,masks/mask_003.jpg,,,,,,,,,,,,,,,,,,,,,,,,,,,,,,,,,,,,,,,,,,,0,2,2,2,1,,,,,,,,,,,,,,,,,,,,,,,,,,,,,,,,,,,,,,,,,,,,,,
889471,001,2022-11-13_17h37.59.965,Info_measure_main_exp,2022.2.2,Win32,59.86948452,,,,,,,,,,,,,,,,,,masks/mask_004.jpg,,,,,,,,,,,,,,,,,,,,,,,,,,,,,,,,,,,,,,,,,,,0,3,3,3,1,,,,,,,,,,,,,,,,,,,,,,,,,,,,,,,,,,,,,,,,,,,,,,
889471,001,2022-11-13_17h37.59.965,Info_measure_main_exp,2022.2.2,Win32,59.86948452,,,,,,,,,,,,,,,,,,masks/mask_002.jpg,,,,,,,,,,,,,,,,,,,,,,,,,,,,,,,,,,,,,,,,,,,0,4,4,1,1,,,,,,,,,,,,,,,,,,,,,,,,,,,,,,,,,,,,,,,,,,,,,,
889471,001,2022-11-13_17h37.59.965,Info_measure_main_exp,2022.2.2,Win32,59.86948452,,,,,,,,,,,,,,,,,,masks/mask_003.jpg,,,,,,,,,,,,,,,,,,,,,,,,,,,,,,,,,,,,,,,,,,,,,,,,0,0,0,2,1,,,,,,,,,,,,,,,,,,,,,,,,,,,,,,,,,,,,,,,,,
889471,001,2022-11-13_17h37.59.965,Info_measure_main_exp,2022.2.2,Win32,59.86948452,,,,,,,,,,,,,,,,,,masks/mask_005.jpg,,,,,,,,,,,,,,,,,,,,,,,,,,,,,,,,,,,,,,,,,,,,,,,,0,1,1,4,1,,,,,,,,,,,,,,,,,,,,,,,,,,,,,,,,,,,,,,,,,
889471,001,2022-11-13_17h37.59.965,Info_measure_main_exp,2022.2.2,Win32,59.86948452,,,,,,,,,,,,,,,,,,masks/mask_001.jpg,,,,,,,,,,,,,,,,,,,,,,,,,,,,,,,,,,,,,,,,,,,,,,,,0,2,2,0,1,,,,,,,,,,,,,,,,,,,,,,,,,,,,,,,,,,,,,,,,,
889471,001,2022-11-13_17h37.59.965,Info_measure_main_exp,2022.2.2,Win32,59.86948452,,,,,,,,,,,,,,,,,,masks/mask_002.jpg,,,,,,,,,,,,,,,,,,,,,,,,,,,,,,,,,,,,,,,,,,,,,,,,0,3,3,1,1,,,,,,,,,,,,,,,,,,,,,,,,,,,,,,,,,,,,,,,,,
889471,001,2022-11-13_17h37.59.965,Info_measure_main_exp,2022.2.2,Win32,59.86948452,,,,,,,,,,,,,,,,,,masks/mask_004.jpg,,,,,,,,,,,,,,,,,,,,,,,,,,,,,,,,,,,,,,,,,,,,,,,,0,4,4,3,1,,,,,,,,,,,,,,,,,,,,,,,,,,,,,,,,,,,,,,,,,
889471,001,2022-11-13_17h37.59.965,Info_measure_main_exp,2022.2.2,Win32,59.86948452,,,,,,,,,,,,,,,,,,,,,,,,,,,,,,3,1.2646,1,,,,,,,,,,,,0,131,5,5,2142,2082,absent_patch/patch0002142.jpg,absent_patch/patch0002082.jpg,,,,,,,,,,,,,,,,,,,,-0.041666667,-0.148611111,1,0,0,response5disk,6,0.006944444,0.009722222,1,0,0,center_square,0,5,5,88,1,,,,,,,,,,,,,,,,,,,,,,,
889471,001,2022-11-13_17h37.59.965,Info_measure_main_exp,2022.2.2,Win32,59.86948452,,,,,,,,,,,,,,,,,,masks/mask_005.jpg,,,,,,,,,,,,,,,,,,,,,,,,,,,,,,,,,,,,,,,,,,,0,0,0,4,1,,,,,,,,,,,,,,,,,,,,,,,,,,,,,,,,,,,,,,,,,,,,,,
889471,001,2022-11-13_17h37.59.965,Info_measure_main_exp,2022.2.2,Win32,59.86948452,,,,,,,,,,,,,,,,,,masks/mask_004.jpg,,,,,,,,,,,,,,,,,,,,,,,,,,,,,,,,,,,,,,,,,,,0,1,1,3,1,,,,,,,,,,,,,,,,,,,,,,,,,,,,,,,,,,,,,,,,,,,,,,
889471,001,2022-11-13_17h37.59.965,Info_measure_main_exp,2022.2.2,Win32,59.86948452,,,,,,,,,,,,,,,,,,masks/mask_003.jpg,,,,,,,,,,,,,,,,,,,,,,,,,,,,,,,,,,,,,,,,,,,0,2,2,2,1,,,,,,,,,,,,,,,,,,,,,,,,,,,,,,,,,,,,,,,,,,,,,,
889471,001,2022-11-13_17h37.59.965,Info_measure_main_exp,2022.2.2,Win32,59.86948452,,,,,,,,,,,,,,,,,,masks/mask_001.jpg,,,,,,,,,,,,,,,,,,,,,,,,,,,,,,,,,,,,,,,,,,,0,3,3,0,1,,,,,,,,,,,,,,,,,,,,,,,,,,,,,,,,,,,,,,,,,,,,,,
889471,001,2022-11-13_17h37.59.965,Info_measure_main_exp,2022.2.2,Win32,59.86948452,,,,,,,,,,,,,,,,,,masks/mask_002.jpg,,,,,,,,,,,,,,,,,,,,,,,,,,,,,,,,,,,,,,,,,,,0,4,4,1,1,,,,,,,,,,,,,,,,,,,,,,,,,,,,,,,,,,,,,,,,,,,,,,
889471,001,2022-11-13_17h37.59.965,Info_measure_main_exp,2022.2.2,Win32,59.86948452,,,,,,,,,,,,,,,,,,masks/mask_004.jpg,,,,,,,,,,,,,,,,,,,,,,,,,,,,,,,,,,,,,,,,,,,,,,,,0,0,0,3,1,,,,,,,,,,,,,,,,,,,,,,,,,,,,,,,,,,,,,,,,,
889471,001,2022-11-13_17h37.59.965,Info_measure_main_exp,2022.2.2,Win32,59.86948452,,,,,,,,,,,,,,,,,,masks/mask_005.jpg,,,,,,,,,,,,,,,,,,,,,,,,,,,,,,,,,,,,,,,,,,,,,,,,0,1,1,4,1,,,,,,,,,,,,,,,,,,,,,,,,,,,,,,,,,,,,,,,,,
889471,001,2022-11-13_17h37.59.965,Info_measure_main_exp,2022.2.2,Win32,59.86948452,,,,,,,,,,,,,,,,,,masks/mask_001.jpg,,,,,,,,,,,,,,,,,,,,,,,,,,,,,,,,,,,,,,,,,,,,,,,,0,2,2,0,1,,,,,,,,,,,,,,,,,,,,,,,,,,,,,,,,,,,,,,,,,
889471,001,2022-11-13_17h37.59.965,Info_measure_main_exp,2022.2.2,Win32,59.86948452,,,,,,,,,,,,,,,,,,masks/mask_002.jpg,,,,,,,,,,,,,,,,,,,,,,,,,,,,,,,,,,,,,,,,,,,,,,,,0,3,3,1,1,,,,,,,,,,,,,,,,,,,,,,,,,,,,,,,,,,,,,,,,,
889471,001,2022-11-13_17h37.59.965,Info_measure_main_exp,2022.2.2,Win32,59.86948452,,,,,,,,,,,,,,,,,,masks/mask_003.jpg,,,,,,,,,,,,,,,,,,,,,,,,,,,,,,,,,,,,,,,,,,,,,,,,0,4,4,2,1,,,,,,,,,,,,,,,,,,,,,,,,,,,,,,,,,,,,,,,,,
889471,001,2022-11-13_17h37.59.965,Info_measure_main_exp,2022.2.2,Win32,59.86948452,,,,,,,,,,,,,,,,,,,,,,,,,,,,,,0,1.4696,1,,,,,,,,,,,,0,131,5,5,2154,2154,absent_patch/patch0002154.jpg,absent_patch/patch0002154.jpg,,,,,,,,,,,,,,,,,,,,-0.041666667,0.134722222,1,0,0,response7disk,7,-0.002777778,0.001388889,1,0,0,center_square,0,6,6,89,1,,,,,,,,,,,,,,,,,,,,,,,
889471,001,2022-11-13_17h37.59.965,Info_measure_main_exp,2022.2.2,Win32,59.86948452,,,,,,,,,,,,,,,,,,masks/mask_001.jpg,,,,,,,,,,,,,,,,,,,,,,,,,,,,,,,,,,,,,,,,,,,0,0,0,0,1,,,,,,,,,,,,,,,,,,,,,,,,,,,,,,,,,,,,,,,,,,,,,,
889471,001,2022-11-13_17h37.59.965,Info_measure_main_exp,2022.2.2,Win32,59.86948452,,,,,,,,,,,,,,,,,,masks/mask_004.jpg,,,,,,,,,,,,,,,,,,,,,,,,,,,,,,,,,,,,,,,,,,,0,1,1,3,1,,,,,,,,,,,,,,,,,,,,,,,,,,,,,,,,,,,,,,,,,,,,,,
889471,001,2022-11-13_17h37.59.965,Info_measure_main_exp,2022.2.2,Win32,59.86948452,,,,,,,,,,,,,,,,,,masks/mask_003.jpg,,,,,,,,,,,,,,,,,,,,,,,,,,,,,,,,,,,,,,,,,,,0,2,2,2,1,,,,,,,,,,,,,,,,,,,,,,,,,,,,,,,,,,,,,,,,,,,,,,
889471,001,2022-11-13_17h37.59.965,Info_measure_main_exp,2022.2.2,Win32,59.86948452,,,,,,,,,,,,,,,,,,masks/mask_005.jpg,,,,,,,,,,,,,,,,,,,,,,,,,,,,,,,,,,,,,,,,,,,0,3,3,4,1,,,,,,,,,,,,,,,,,,,,,,,,,,,,,,,,,,,,,,,,,,,,,,
889471,001,2022-11-13_17h37.59.965,Info_measure_main_exp,2022.2.2,Win32,59.86948452,,,,,,,,,,,,,,,,,,masks/mask_002.jpg,,,,,,,,,,,,,,,,,,,,,,,,,,,,,,,,,,,,,,,,,,,0,4,4,1,1,,,,,,,,,,,,,,,,,,,,,,,,,,,,,,,,,,,,,,,,,,,,,,
889471,001,2022-11-13_17h37.59.965,Info_measure_main_exp,2022.2.2,Win32,59.86948452,,,,,,,,,,,,,,,,,,masks/mask_003.jpg,,,,,,,,,,,,,,,,,,,,,,,,,,,,,,,,,,,,,,,,,,,,,,,,0,0,0,2,1,,,,,,,,,,,,,,,,,,,,,,,,,,,,,,,,,,,,,,,,,
889471,001,2022-11-13_17h37.59.965,Info_measure_main_exp,2022.2.2,Win32,59.86948452,,,,,,,,,,,,,,,,,,masks/mask_004.jpg,,,,,,,,,,,,,,,,,,,,,,,,,,,,,,,,,,,,,,,,,,,,,,,,0,1,1,3,1,,,,,,,,,,,,,,,,,,,,,,,,,,,,,,,,,,,,,,,,,
889471,001,2022-11-13_17h37.59.965,Info_measure_main_exp,2022.2.2,Win32,59.86948452,,,,,,,,,,,,,,,,,,masks/mask_002.jpg,,,,,,,,,,,,,,,,,,,,,,,,,,,,,,,,,,,,,,,,,,,,,,,,0,2,2,1,1,,,,,,,,,,,,,,,,,,,,,,,,,,,,,,,,,,,,,,,,,
889471,001,2022-11-13_17h37.59.965,Info_measure_main_exp,2022.2.2,Win32,59.86948452,,,,,,,,,,,,,,,,,,masks/mask_005.jpg,,,,,,,,,,,,,,,,,,,,,,,,,,,,,,,,,,,,,,,,,,,,,,,,0,3,3,4,1,,,,,,,,,,,,,,,,,,,,,,,,,,,,,,,,,,,,,,,,,
889471,001,2022-11-13_17h37.59.965,Info_measure_main_exp,2022.2.2,Win32,59.86948452,,,,,,,,,,,,,,,,,,masks/mask_001.jpg,,,,,,,,,,,,,,,,,,,,,,,,,,,,,,,,,,,,,,,,,,,,,,,,0,4,4,0,1,,,,,,,,,,,,,,,,,,,,,,,,,,,,,,,,,,,,,,,,,
889471,001,2022-11-13_17h37.59.965,Info_measure_main_exp,2022.2.2,Win32,59.86948452,,,,,,,,,,,,,,,,,,,,,,,,,,,,,,5,2.4204,1,,,,,,,,,,,,0,131,5,5,1986,2142,absent_patch/patch0001986.jpg,absent_patch/patch0002142.jpg,,,,,,,,,,,,,,,,,,,,0.083333333,-0.051388889,1,0,0,response3disk,8,-0.006944444,0.002777778,1,0,0,center_square,0,7,7,76,1,,,,,,,,,,,,,,,,,,,,,,,
889471,001,2022-11-13_17h37.59.965,Info_measure_main_exp,2022.2.2,Win32,59.86948452,,,,,,,,,,,,,,,,,,masks/mask_003.jpg,,,,,,,,,,,,,,,,,,,,,,,,,,,,,,,,,,,,,,,,,,,0,0,0,2,1,,,,,,,,,,,,,,,,,,,,,,,,,,,,,,,,,,,,,,,,,,,,,,
889471,001,2022-11-13_17h37.59.965,Info_measure_main_exp,2022.2.2,Win32,59.86948452,,,,,,,,,,,,,,,,,,masks/mask_001.jpg,,,,,,,,,,,,,,,,,,,,,,,,,,,,,,,,,,,,,,,,,,,0,1,1,0,1,,,,,,,,,,,,,,,,,,,,,,,,,,,,,,,,,,,,,,,,,,,,,,
889471,001,2022-11-13_17h37.59.965,Info_measure_main_exp,2022.2.2,Win32,59.86948452,,,,,,,,,,,,,,,,,,masks/mask_004.jpg,,,,,,,,,,,,,,,,,,,,,,,,,,,,,,,,,,,,,,,,,,,0,2,2,3,1,,,,,,,,,,,,,,,,,,,,,,,,,,,,,,,,,,,,,,,,,,,,,,
889471,001,2022-11-13_17h37.59.965,Info_measure_main_exp,2022.2.2,Win32,59.86948452,,,,,,,,,,,,,,,,,,masks/mask_002.jpg,,,,,,,,,,,,,,,,,,,,,,,,,,,,,,,,,,,,,,,,,,,0,3,3,1,1,,,,,,,,,,,,,,,,,,,,,,,,,,,,,,,,,,,,,,,,,,,,,,
889471,001,2022-11-13_17h37.59.965,Info_measure_main_exp,2022.2.2,Win32,59.86948452,,,,,,,,,,,,,,,,,,masks/mask_005.jpg,,,,,,,,,,,,,,,,,,,,,,,,,,,,,,,,,,,,,,,,,,,0,4,4,4,1,,,,,,,,,,,,,,,,,,,,,,,,,,,,,,,,,,,,,,,,,,,,,,
889471,001,2022-11-13_17h37.59.965,Info_measure_main_exp,2022.2.2,Win32,59.86948452,,,,,,,,,,,,,,,,,,masks/mask_003.jpg,,,,,,,,,,,,,,,,,,,,,,,,,,,,,,,,,,,,,,,,,,,,,,,,0,0,0,2,1,,,,,,,,,,,,,,,,,,,,,,,,,,,,,,,,,,,,,,,,,
889471,001,2022-11-13_17h37.59.965,Info_measure_main_exp,2022.2.2,Win32,59.86948452,,,,,,,,,,,,,,,,,,masks/mask_001.jpg,,,,,,,,,,,,,,,,,,,,,,,,,,,,,,,,,,,,,,,,,,,,,,,,0,1,1,0,1,,,,,,,,,,,,,,,,,,,,,,,,,,,,,,,,,,,,,,,,,
889471,001,2022-11-13_17h37.59.965,Info_measure_main_exp,2022.2.2,Win32,59.86948452,,,,,,,,,,,,,,,,,,masks/mask_004.jpg,,,,,,,,,,,,,,,,,,,,,,,,,,,,,,,,,,,,,,,,,,,,,,,,0,2,2,3,1,,,,,,,,,,,,,,,,,,,,,,,,,,,,,,,,,,,,,,,,,
889471,001,2022-11-13_17h37.59.965,Info_measure_main_exp,2022.2.2,Win32,59.86948452,,,,,,,,,,,,,,,,,,masks/mask_002.jpg,,,,,,,,,,,,,,,,,,,,,,,,,,,,,,,,,,,,,,,,,,,,,,,,0,3,3,1,1,,,,,,,,,,,,,,,,,,,,,,,,,,,,,,,,,,,,,,,,,
889471,001,2022-11-13_17h37.59.965,Info_measure_main_exp,2022.2.2,Win32,59.86948452,,,,,,,,,,,,,,,,,,masks/mask_005.jpg,,,,,,,,,,,,,,,,,,,,,,,,,,,,,,,,,,,,,,,,,,,,,,,,0,4,4,4,1,,,,,,,,,,,,,,,,,,,,,,,,,,,,,,,,,,,,,,,,,
889471,001,2022-11-13_17h37.59.965,Info_measure_main_exp,2022.2.2,Win32,59.86948452,,,,,,,,,,,,,,,,,,,,,,,,,,,,,,6,2.0329,1,,,,,,,,,,,,0,131,5,5,1974,2166,absent_patch/patch0001974.jpg,absent_patch/patch0002166.jpg,,,,,,,,,,,,,,,,,,,,0.151388889,0.1,1,0,0,response1disk,9,-0.009722222,-0.004166667,1,0,0,center_square,0,8,8,77,1,,,,,,,,,,,,,,,,,,,,,,,
889471,001,2022-11-13_17h37.59.965,Info_measure_main_exp,2022.2.2,Win32,59.86948452,,,,,,,,,,,,,,,,,,masks/mask_005.jpg,,,,,,,,,,,,,,,,,,,,,,,,,,,,,,,,,,,,,,,,,,,0,0,0,4,1,,,,,,,,,,,,,,,,,,,,,,,,,,,,,,,,,,,,,,,,,,,,,,
889471,001,2022-11-13_17h37.59.965,Info_measure_main_exp,2022.2.2,Win32,59.86948452,,,,,,,,,,,,,,,,,,masks/mask_001.jpg,,,,,,,,,,,,,,,,,,,,,,,,,,,,,,,,,,,,,,,,,,,0,1,1,0,1,,,,,,,,,,,,,,,,,,,,,,,,,,,,,,,,,,,,,,,,,,,,,,
889471,001,2022-11-13_17h37.59.965,Info_measure_main_exp,2022.2.2,Win32,59.86948452,,,,,,,,,,,,,,,,,,masks/mask_002.jpg,,,,,,,,,,,,,,,,,,,,,,,,,,,,,,,,,,,,,,,,,,,0,2,2,1,1,,,,,,,,,,,,,,,,,,,,,,,,,,,,,,,,,,,,,,,,,,,,,,
889471,001,2022-11-13_17h37.59.965,Info_measure_main_exp,2022.2.2,Win32,59.86948452,,,,,,,,,,,,,,,,,,masks/mask_003.jpg,,,,,,,,,,,,,,,,,,,,,,,,,,,,,,,,,,,,,,,,,,,0,3,3,2,1,,,,,,,,,,,,,,,,,,,,,,,,,,,,,,,,,,,,,,,,,,,,,,
889471,001,2022-11-13_17h37.59.965,Info_measure_main_exp,2022.2.2,Win32,59.86948452,,,,,,,,,,,,,,,,,,masks/mask_004.jpg,,,,,,,,,,,,,,,,,,,,,,,,,,,,,,,,,,,,,,,,,,,0,4,4,3,1,,,,,,,,,,,,,,,,,,,,,,,,,,,,,,,,,,,,,,,,,,,,,,
889471,001,2022-11-13_17h37.59.965,Info_measure_main_exp,2022.2.2,Win32,59.86948452,,,,,,,,,,,,,,,,,,masks/mask_001.jpg,,,,,,,,,,,,,,,,,,,,,,,,,,,,,,,,,,,,,,,,,,,,,,,,0,0,0,0,1,,,,,,,,,,,,,,,,,,,,,,,,,,,,,,,,,,,,,,,,,
889471,001,2022-11-13_17h37.59.965,Info_measure_main_exp,2022.2.2,Win32,59.86948452,,,,,,,,,,,,,,,,,,masks/mask_002.jpg,,,,,,,,,,,,,,,,,,,,,,,,,,,,,,,,,,,,,,,,,,,,,,,,0,1,1,1,1,,,,,,,,,,,,,,,,,,,,,,,,,,,,,,,,,,,,,,,,,
889471,001,2022-11-13_17h37.59.965,Info_measure_main_exp,2022.2.2,Win32,59.86948452,,,,,,,,,,,,,,,,,,masks/mask_005.jpg,,,,,,,,,,,,,,,,,,,,,,,,,,,,,,,,,,,,,,,,,,,,,,,,0,2,2,4,1,,,,,,,,,,,,,,,,,,,,,,,,,,,,,,,,,,,,,,,,,
889471,001,2022-11-13_17h37.59.965,Info_measure_main_exp,2022.2.2,Win32,59.86948452,,,,,,,,,,,,,,,,,,masks/mask_004.jpg,,,,,,,,,,,,,,,,,,,,,,,,,,,,,,,,,,,,,,,,,,,,,,,,0,3,3,3,1,,,,,,,,,,,,,,,,,,,,,,,,,,,,,,,,,,,,,,,,,
889471,001,2022-11-13_17h37.59.965,Info_measure_main_exp,2022.2.2,Win32,59.86948452,,,,,,,,,,,,,,,,,,masks/mask_003.jpg,,,,,,,,,,,,,,,,,,,,,,,,,,,,,,,,,,,,,,,,,,,,,,,,0,4,4,2,1,,,,,,,,,,,,,,,,,,,,,,,,,,,,,,,,,,,,,,,,,
889471,001,2022-11-13_17h37.59.965,Info_measure_main_exp,2022.2.2,Win32,59.86948452,,,,,,,,,,,,,,,,,,,,,,,,,,,,,,7,2.0195,1,,,,,,,,,,,,1,131,5,5,2298,1,absent_patch/patch0002298.jpg,present_patch/cong_131_5_a.jpg,,,,,,,,,,,,,,,,,,,,0.104166667,0.141666667,1,0,0,response1disk,10,0.001388889,0.011111111,1,0,0,center_square,0,9,9,45,1,,,,,,,,,,,,,,,,,,,,,,,
889471,001,2022-11-13_17h37.59.965,Info_measure_main_exp,2022.2.2,Win32,59.86948452,,,,,,,,,,,,,,,,,,masks/mask_002.jpg,,,,,,,,,,,,,,,,,,,,,,,,,,,,,,,,,,,,,,,,,,,0,0,0,1,1,,,,,,,,,,,,,,,,,,,,,,,,,,,,,,,,,,,,,,,,,,,,,,
889471,001,2022-11-13_17h37.59.965,Info_measure_main_exp,2022.2.2,Win32,59.86948452,,,,,,,,,,,,,,,,,,masks/mask_003.jpg,,,,,,,,,,,,,,,,,,,,,,,,,,,,,,,,,,,,,,,,,,,0,1,1,2,1,,,,,,,,,,,,,,,,,,,,,,,,,,,,,,,,,,,,,,,,,,,,,,
889471,001,2022-11-13_17h37.59.965,Info_measure_main_exp,2022.2.2,Win32,59.86948452,,,,,,,,,,,,,,,,,,masks/mask_004.jpg,,,,,,,,,,,,,,,,,,,,,,,,,,,,,,,,,,,,,,,,,,,0,2,2,3,1,,,,,,,,,,,,,,,,,,,,,,,,,,,,,,,,,,,,,,,,,,,,,,
889471,001,2022-11-13_17h37.59.965,Info_measure_main_exp,2022.2.2,Win32,59.86948452,,,,,,,,,,,,,,,,,,masks/mask_001.jpg,,,,,,,,,,,,,,,,,,,,,,,,,,,,,,,,,,,,,,,,,,,0,3,3,0,1,,,,,,,,,,,,,,,,,,,,,,,,,,,,,,,,,,,,,,,,,,,,,,
889471,001,2022-11-13_17h37.59.965,Info_measure_main_exp,2022.2.2,Win32,59.86948452,,,,,,,,,,,,,,,,,,masks/mask_005.jpg,,,,,,,,,,,,,,,,,,,,,,,,,,,,,,,,,,,,,,,,,,,0,4,4,4,1,,,,,,,,,,,,,,,,,,,,,,,,,,,,,,,,,,,,,,,,,,,,,,
889471,001,2022-11-13_17h37.59.965,Info_measure_main_exp,2022.2.2,Win32,59.86948452,,,,,,,,,,,,,,,,,,masks/mask_005.jpg,,,,,,,,,,,,,,,,,,,,,,,,,,,,,,,,,,,,,,,,,,,,,,,,0,0,0,4,1,,,,,,,,,,,,,,,,,,,,,,,,,,,,,,,,,,,,,,,,,
889471,001,2022-11-13_17h37.59.965,Info_measure_main_exp,2022.2.2,Win32,59.86948452,,,,,,,,,,,,,,,,,,masks/mask_001.jpg,,,,,,,,,,,,,,,,,,,,,,,,,,,,,,,,,,,,,,,,,,,,,,,,0,1,1,0,1,,,,,,,,,,,,,,,,,,,,,,,,,,,,,,,,,,,,,,,,,
889471,001,2022-11-13_17h37.59.965,Info_measure_main_exp,2022.2.2,Win32,59.86948452,,,,,,,,,,,,,,,,,,masks/mask_003.jpg,,,,,,,,,,,,,,,,,,,,,,,,,,,,,,,,,,,,,,,,,,,,,,,,0,2,2,2,1,,,,,,,,,,,,,,,,,,,,,,,,,,,,,,,,,,,,,,,,,
889471,001,2022-11-13_17h37.59.965,Info_measure_main_exp,2022.2.2,Win32,59.86948452,,,,,,,,,,,,,,,,,,masks/mask_004.jpg,,,,,,,,,,,,,,,,,,,,,,,,,,,,,,,,,,,,,,,,,,,,,,,,0,3,3,3,1,,,,,,,,,,,,,,,,,,,,,,,,,,,,,,,,,,,,,,,,,
889471,001,2022-11-13_17h37.59.965,Info_measure_main_exp,2022.2.2,Win32,59.86948452,,,,,,,,,,,,,,,,,,masks/mask_002.jpg,,,,,,,,,,,,,,,,,,,,,,,,,,,,,,,,,,,,,,,,,,,,,,,,0,4,4,1,1,,,,,,,,,,,,,,,,,,,,,,,,,,,,,,,,,,,,,,,,,
889471,001,2022-11-13_17h37.59.965,Info_measure_main_exp,2022.2.2,Win32,59.86948452,,,,,,,,,,,,,,,,,,,,,,,,,,,,,,5,4.0357,1,,,,,,,,,,,,0,131,5,5,2214,2082,absent_patch/patch0002214.jpg,absent_patch/patch0002082.jpg,,,,,,,,,,,,,,,,,,,,0.152777778,-0.058333333,1,0,0,response3disk,11,0,0.005555556,1,0,0,center_square,0,10,10,103,1,,,,,,,,,,,,,,,,,,,,,,,
889471,001,2022-11-13_17h37.59.965,Info_measure_main_exp,2022.2.2,Win32,59.86948452,,,,,,,,,,,,,,,,,,masks/mask_005.jpg,,,,,,,,,,,,,,,,,,,,,,,,,,,,,,,,,,,,,,,,,,,0,0,0,4,1,,,,,,,,,,,,,,,,,,,,,,,,,,,,,,,,,,,,,,,,,,,,,,
889471,001,2022-11-13_17h37.59.965,Info_measure_main_exp,2022.2.2,Win32,59.86948452,,,,,,,,,,,,,,,,,,masks/mask_003.jpg,,,,,,,,,,,,,,,,,,,,,,,,,,,,,,,,,,,,,,,,,,,0,1,1,2,1,,,,,,,,,,,,,,,,,,,,,,,,,,,,,,,,,,,,,,,,,,,,,,
889471,001,2022-11-13_17h37.59.965,Info_measure_main_exp,2022.2.2,Win32,59.86948452,,,,,,,,,,,,,,,,,,masks/mask_001.jpg,,,,,,,,,,,,,,,,,,,,,,,,,,,,,,,,,,,,,,,,,,,0,2,2,0,1,,,,,,,,,,,,,,,,,,,,,,,,,,,,,,,,,,,,,,,,,,,,,,
889471,001,2022-11-13_17h37.59.965,Info_measure_main_exp,2022.2.2,Win32,59.86948452,,,,,,,,,,,,,,,,,,masks/mask_002.jpg,,,,,,,,,,,,,,,,,,,,,,,,,,,,,,,,,,,,,,,,,,,0,3,3,1,1,,,,,,,,,,,,,,,,,,,,,,,,,,,,,,,,,,,,,,,,,,,,,,
889471,001,2022-11-13_17h37.59.965,Info_measure_main_exp,2022.2.2,Win32,59.86948452,,,,,,,,,,,,,,,,,,masks/mask_004.jpg,,,,,,,,,,,,,,,,,,,,,,,,,,,,,,,,,,,,,,,,,,,0,4,4,3,1,,,,,,,,,,,,,,,,,,,,,,,,,,,,,,,,,,,,,,,,,,,,,,
889471,001,2022-11-13_17h37.59.965,Info_measure_main_exp,2022.2.2,Win32,59.86948452,,,,,,,,,,,,,,,,,,masks/mask_004.jpg,,,,,,,,,,,,,,,,,,,,,,,,,,,,,,,,,,,,,,,,,,,,,,,,0,0,0,3,1,,,,,,,,,,,,,,,,,,,,,,,,,,,,,,,,,,,,,,,,,
889471,001,2022-11-13_17h37.59.965,Info_measure_main_exp,2022.2.2,Win32,59.86948452,,,,,,,,,,,,,,,,,,masks/mask_005.jpg,,,,,,,,,,,,,,,,,,,,,,,,,,,,,,,,,,,,,,,,,,,,,,,,0,1,1,4,1,,,,,,,,,,,,,,,,,,,,,,,,,,,,,,,,,,,,,,,,,
889471,001,2022-11-13_17h37.59.965,Info_measure_main_exp,2022.2.2,Win32,59.86948452,,,,,,,,,,,,,,,,,,masks/mask_003.jpg,,,,,,,,,,,,,,,,,,,,,,,,,,,,,,,,,,,,,,,,,,,,,,,,0,2,2,2,1,,,,,,,,,,,,,,,,,,,,,,,,,,,,,,,,,,,,,,,,,
889471,001,2022-11-13_17h37.59.965,Info_measure_main_exp,2022.2.2,Win32,59.86948452,,,,,,,,,,,,,,,,,,masks/mask_002.jpg,,,,,,,,,,,,,,,,,,,,,,,,,,,,,,,,,,,,,,,,,,,,,,,,0,3,3,1,1,,,,,,,,,,,,,,,,,,,,,,,,,,,,,,,,,,,,,,,,,
889471,001,2022-11-13_17h37.59.965,Info_measure_main_exp,2022.2.2,Win32,59.86948452,,,,,,,,,,,,,,,,,,masks/mask_001.jpg,,,,,,,,,,,,,,,,,,,,,,,,,,,,,,,,,,,,,,,,,,,,,,,,0,4,4,0,1,,,,,,,,,,,,,,,,,,,,,,,,,,,,,,,,,,,,,,,,,
889471,001,2022-11-13_17h37.59.965,Info_measure_main_exp,2022.2.2,Win32,59.86948452,,,,,,,,,,,,,,,,,,,,,,,,,,,,,,3,2.3672,1,,,,,,,,,,,,0,131,5,5,2238,2166,absent_patch/patch0002238.jpg,absent_patch/patch0002166.jpg,,,,,,,,,,,,,,,,,,,,-0.091666667,-0.154166667,1,0,0,response5disk,12,-0.002777778,0.006944444,1,0,0,center_square,0,11,11,118,1,,,,,,,,,,,,,,,,,,,,,,,
889471,001,2022-11-13_17h37.59.965,Info_measure_main_exp,2022.2.2,Win32,59.86948452,,,,,,,,,,,,,,,,,,masks/mask_002.jpg,,,,,,,,,,,,,,,,,,,,,,,,,,,,,,,,,,,,,,,,,,,0,0,0,1,1,,,,,,,,,,,,,,,,,,,,,,,,,,,,,,,,,,,,,,,,,,,,,,
889471,001,2022-11-13_17h37.59.965,Info_measure_main_exp,2022.2.2,Win32,59.86948452,,,,,,,,,,,,,,,,,,masks/mask_003.jpg,,,,,,,,,,,,,,,,,,,,,,,,,,,,,,,,,,,,,,,,,,,0,1,1,2,1,,,,,,,,,,,,,,,,,,,,,,,,,,,,,,,,,,,,,,,,,,,,,,
889471,001,2022-11-13_17h37.59.965,Info_measure_main_exp,2022.2.2,Win32,59.86948452,,,,,,,,,,,,,,,,,,masks/mask_001.jpg,,,,,,,,,,,,,,,,,,,,,,,,,,,,,,,,,,,,,,,,,,,0,2,2,0,1,,,,,,,,,,,,,,,,,,,,,,,,,,,,,,,,,,,,,,,,,,,,,,
889471,001,2022-11-13_17h37.59.965,Info_measure_main_exp,2022.2.2,Win32,59.86948452,,,,,,,,,,,,,,,,,,masks/mask_004.jpg,,,,,,,,,,,,,,,,,,,,,,,,,,,,,,,,,,,,,,,,,,,0,3,3,3,1,,,,,,,,,,,,,,,,,,,,,,,,,,,,,,,,,,,,,,,,,,,,,,
889471,001,2022-11-13_17h37.59.965,Info_measure_main_exp,2022.2.2,Win32,59.86948452,,,,,,,,,,,,,,,,,,masks/mask_005.jpg,,,,,,,,,,,,,,,,,,,,,,,,,,,,,,,,,,,,,,,,,,,0,4,4,4,1,,,,,,,,,,,,,,,,,,,,,,,,,,,,,,,,,,,,,,,,,,,,,,
889471,001,2022-11-13_17h37.59.965,Info_measure_main_exp,2022.2.2,Win32,59.86948452,,,,,,,,,,,,,,,,,,masks/mask_002.jpg,,,,,,,,,,,,,,,,,,,,,,,,,,,,,,,,,,,,,,,,,,,,,,,,0,0,0,1,1,,,,,,,,,,,,,,,,,,,,,,,,,,,,,,,,,,,,,,,,,
889471,001,2022-11-13_17h37.59.965,Info_measure_main_exp,2022.2.2,Win32,59.86948452,,,,,,,,,,,,,,,,,,masks/mask_001.jpg,,,,,,,,,,,,,,,,,,,,,,,,,,,,,,,,,,,,,,,,,,,,,,,,0,1,1,0,1,,,,,,,,,,,,,,,,,,,,,,,,,,,,,,,,,,,,,,,,,
889471,001,2022-11-13_17h37.59.965,Info_measure_main_exp,2022.2.2,Win32,59.86948452,,,,,,,,,,,,,,,,,,masks/mask_004.jpg,,,,,,,,,,,,,,,,,,,,,,,,,,,,,,,,,,,,,,,,,,,,,,,,0,2,2,3,1,,,,,,,,,,,,,,,,,,,,,,,,,,,,,,,,,,,,,,,,,
889471,001,2022-11-13_17h37.59.965,Info_measure_main_exp,2022.2.2,Win32,59.86948452,,,,,,,,,,,,,,,,,,masks/mask_005.jpg,,,,,,,,,,,,,,,,,,,,,,,,,,,,,,,,,,,,,,,,,,,,,,,,0,3,3,4,1,,,,,,,,,,,,,,,,,,,,,,,,,,,,,,,,,,,,,,,,,
889471,001,2022-11-13_17h37.59.965,Info_measure_main_exp,2022.2.2,Win32,59.86948452,,,,,,,,,,,,,,,,,,masks/mask_003.jpg,,,,,,,,,,,,,,,,,,,,,,,,,,,,,,,,,,,,,,,,,,,,,,,,0,4,4,2,1,,,,,,,,,,,,,,,,,,,,,,,,,,,,,,,,,,,,,,,,,
889471,001,2022-11-13_17h37.59.965,Info_measure_main_exp,2022.2.2,Win32,59.86948452,,,,,,,,,,,,,,,,,,,,,,,,,,,,,,4,2.7679,1,,,,,,,,,,,,1,131,5,5,1,2214,present_patch/cong_131_5_a.jpg,absent_patch/patch0002214.jpg,,,,,,,,,,,,,,,,,,,,0.023611111,-0.1625,1,0,0,response3disk,13,0,0.006944444,1,0,0,center_square,0,12,12,4,1,,,,,,,,,,,,,,,,,,,,,,,
889471,001,2022-11-13_17h37.59.965,Info_measure_main_exp,2022.2.2,Win32,59.86948452,,,,,,,,,,,,,,,,,,masks/mask_001.jpg,,,,,,,,,,,,,,,,,,,,,,,,,,,,,,,,,,,,,,,,,,,0,0,0,0,1,,,,,,,,,,,,,,,,,,,,,,,,,,,,,,,,,,,,,,,,,,,,,,
889471,001,2022-11-13_17h37.59.965,Info_measure_main_exp,2022.2.2,Win32,59.86948452,,,,,,,,,,,,,,,,,,masks/mask_003.jpg,,,,,,,,,,,,,,,,,,,,,,,,,,,,,,,,,,,,,,,,,,,0,1,1,2,1,,,,,,,,,,,,,,,,,,,,,,,,,,,,,,,,,,,,,,,,,,,,,,
889471,001,2022-11-13_17h37.59.965,Info_measure_main_exp,2022.2.2,Win32,59.86948452,,,,,,,,,,,,,,,,,,masks/mask_005.jpg,,,,,,,,,,,,,,,,,,,,,,,,,,,,,,,,,,,,,,,,,,,0,2,2,4,1,,,,,,,,,,,,,,,,,,,,,,,,,,,,,,,,,,,,,,,,,,,,,,
889471,001,2022-11-13_17h37.59.965,Info_measure_main_exp,2022.2.2,Win32,59.86948452,,,,,,,,,,,,,,,,,,masks/mask_002.jpg,,,,,,,,,,,,,,,,,,,,,,,,,,,,,,,,,,,,,,,,,,,0,3,3,1,1,,,,,,,,,,,,,,,,,,,,,,,,,,,,,,,,,,,,,,,,,,,,,,
889471,001,2022-11-13_17h37.59.965,Info_measure_main_exp,2022.2.2,Win32,59.86948452,,,,,,,,,,,,,,,,,,masks/mask_004.jpg,,,,,,,,,,,,,,,,,,,,,,,,,,,,,,,,,,,,,,,,,,,0,4,4,3,1,,,,,,,,,,,,,,,,,,,,,,,,,,,,,,,,,,,,,,,,,,,,,,
889471,001,2022-11-13_17h37.59.965,Info_measure_main_exp,2022.2.2,Win32,59.86948452,,,,,,,,,,,,,,,,,,masks/mask_002.jpg,,,,,,,,,,,,,,,,,,,,,,,,,,,,,,,,,,,,,,,,,,,,,,,,0,0,0,1,1,,,,,,,,,,,,,,,,,,,,,,,,,,,,,,,,,,,,,,,,,
889471,001,2022-11-13_17h37.59.965,Info_measure_main_exp,2022.2.2,Win32,59.86948452,,,,,,,,,,,,,,,,,,masks/mask_003.jpg,,,,,,,,,,,,,,,,,,,,,,,,,,,,,,,,,,,,,,,,,,,,,,,,0,1,1,2,1,,,,,,,,,,,,,,,,,,,,,,,,,,,,,,,,,,,,,,,,,
889471,001,2022-11-13_17h37.59.965,Info_measure_main_exp,2022.2.2,Win32,59.86948452,,,,,,,,,,,,,,,,,,masks/mask_005.jpg,,,,,,,,,,,,,,,,,,,,,,,,,,,,,,,,,,,,,,,,,,,,,,,,0,2,2,4,1,,,,,,,,,,,,,,,,,,,,,,,,,,,,,,,,,,,,,,,,,
889471,001,2022-11-13_17h37.59.965,Info_measure_main_exp,2022.2.2,Win32,59.86948452,,,,,,,,,,,,,,,,,,masks/mask_001.jpg,,,,,,,,,,,,,,,,,,,,,,,,,,,,,,,,,,,,,,,,,,,,,,,,0,3,3,0,1,,,,,,,,,,,,,,,,,,,,,,,,,,,,,,,,,,,,,,,,,
889471,001,2022-11-13_17h37.59.965,Info_measure_main_exp,2022.2.2,Win32,59.86948452,,,,,,,,,,,,,,,,,,masks/mask_004.jpg,,,,,,,,,,,,,,,,,,,,,,,,,,,,,,,,,,,,,,,,,,,,,,,,0,4,4,3,1,,,,,,,,,,,,,,,,,,,,,,,,,,,,,,,,,,,,,,,,,
889471,001,2022-11-13_17h37.59.965,Info_measure_main_exp,2022.2.2,Win32,59.86948452,,,,,,,,,,,,,,,,,,,,,,,,,,,,,,0,1.1198,1,,,,,,,,,,,,0,131,5,5,2298,2298,absent_patch/patch0002298.jpg,absent_patch/patch0002298.jpg,,,,,,,,,,,,,,,,,,,,-0.076388889,0.188888889,1,0,0,response7disk,14,-0.005555556,-0.008333333,1,0,0,center_square,0,13,13,37,1,,,,,,,,,,,,,,,,,,,,,,,
889471,001,2022-11-13_17h37.59.965,Info_measure_main_exp,2022.2.2,Win32,59.86948452,,,,,,,,,,,,,,,,,,masks/mask_003.jpg,,,,,,,,,,,,,,,,,,,,,,,,,,,,,,,,,,,,,,,,,,,0,0,0,2,1,,,,,,,,,,,,,,,,,,,,,,,,,,,,,,,,,,,,,,,,,,,,,,
889471,001,2022-11-13_17h37.59.965,Info_measure_main_exp,2022.2.2,Win32,59.86948452,,,,,,,,,,,,,,,,,,masks/mask_002.jpg,,,,,,,,,,,,,,,,,,,,,,,,,,,,,,,,,,,,,,,,,,,0,1,1,1,1,,,,,,,,,,,,,,,,,,,,,,,,,,,,,,,,,,,,,,,,,,,,,,
889471,001,2022-11-13_17h37.59.965,Info_measure_main_exp,2022.2.2,Win32,59.86948452,,,,,,,,,,,,,,,,,,masks/mask_004.jpg,,,,,,,,,,,,,,,,,,,,,,,,,,,,,,,,,,,,,,,,,,,0,2,2,3,1,,,,,,,,,,,,,,,,,,,,,,,,,,,,,,,,,,,,,,,,,,,,,,
889471,001,2022-11-13_17h37.59.965,Info_measure_main_exp,2022.2.2,Win32,59.86948452,,,,,,,,,,,,,,,,,,masks/mask_001.jpg,,,,,,,,,,,,,,,,,,,,,,,,,,,,,,,,,,,,,,,,,,,0,3,3,0,1,,,,,,,,,,,,,,,,,,,,,,,,,,,,,,,,,,,,,,,,,,,,,,
889471,001,2022-11-13_17h37.59.965,Info_measure_main_exp,2022.2.2,Win32,59.86948452,,,,,,,,,,,,,,,,,,masks/mask_005.jpg,,,,,,,,,,,,,,,,,,,,,,,,,,,,,,,,,,,,,,,,,,,0,4,4,4,1,,,,,,,,,,,,,,,,,,,,,,,,,,,,,,,,,,,,,,,,,,,,,,
889471,001,2022-11-13_17h37.59.965,Info_measure_main_exp,2022.2.2,Win32,59.86948452,,,,,,,,,,,,,,,,,,masks/mask_004.jpg,,,,,,,,,,,,,,,,,,,,,,,,,,,,,,,,,,,,,,,,,,,,,,,,0,0,0,3,1,,,,,,,,,,,,,,,,,,,,,,,,,,,,,,,,,,,,,,,,,
889471,001,2022-11-13_17h37.59.965,Info_measure_main_exp,2022.2.2,Win32,59.86948452,,,,,,,,,,,,,,,,,,masks/mask_001.jpg,,,,,,,,,,,,,,,,,,,,,,,,,,,,,,,,,,,,,,,,,,,,,,,,0,1,1,0,1,,,,,,,,,,,,,,,,,,,,,,,,,,,,,,,,,,,,,,,,,
889471,001,2022-11-13_17h37.59.965,Info_measure_main_exp,2022.2.2,Win32,59.86948452,,,,,,,,,,,,,,,,,,masks/mask_005.jpg,,,,,,,,,,,,,,,,,,,,,,,,,,,,,,,,,,,,,,,,,,,,,,,,0,2,2,4,1,,,,,,,,,,,,,,,,,,,,,,,,,,,,,,,,,,,,,,,,,
889471,001,2022-11-13_17h37.59.965,Info_measure_main_exp,2022.2.2,Win32,59.86948452,,,,,,,,,,,,,,,,,,masks/mask_002.jpg,,,,,,,,,,,,,,,,,,,,,,,,,,,,,,,,,,,,,,,,,,,,,,,,0,3,3,1,1,,,,,,,,,,,,,,,,,,,,,,,,,,,,,,,,,,,,,,,,,
889471,001,2022-11-13_17h37.59.965,Info_measure_main_exp,2022.2.2,Win32,59.86948452,,,,,,,,,,,,,,,,,,masks/mask_003.jpg,,,,,,,,,,,,,,,,,,,,,,,,,,,,,,,,,,,,,,,,,,,,,,,,0,4,4,2,1,,,,,,,,,,,,,,,,,,,,,,,,,,,,,,,,,,,,,,,,,
889471,001,2022-11-13_17h37.59.965,Info_measure_main_exp,2022.2.2,Win32,59.86948452,,,,,,,,,,,,,,,,,,,,,,,,,,,,,,4,1.7138,1,,,,,,,,,,,,0,131,5,5,2178,2166,absent_patch/patch0002178.jpg,absent_patch/patch0002166.jpg,,,,,,,,,,,,,,,,,,,,0.05,-0.159722222,1,0,0,response3disk,15,-0.002777778,-0.002777778,1,0,0,center_square,0,14,14,72,1,,,,,,,,,,,,,,,,,,,,,,,
889471,001,2022-11-13_17h37.59.965,Info_measure_main_exp,2022.2.2,Win32,59.86948452,,,,,,,,,,,,,,,,,,masks/mask_004.jpg,,,,,,,,,,,,,,,,,,,,,,,,,,,,,,,,,,,,,,,,,,,0,0,0,3,1,,,,,,,,,,,,,,,,,,,,,,,,,,,,,,,,,,,,,,,,,,,,,,
889471,001,2022-11-13_17h37.59.965,Info_measure_main_exp,2022.2.2,Win32,59.86948452,,,,,,,,,,,,,,,,,,masks/mask_001.jpg,,,,,,,,,,,,,,,,,,,,,,,,,,,,,,,,,,,,,,,,,,,0,1,1,0,1,,,,,,,,,,,,,,,,,,,,,,,,,,,,,,,,,,,,,,,,,,,,,,
889471,001,2022-11-13_17h37.59.965,Info_measure_main_exp,2022.2.2,Win32,59.86948452,,,,,,,,,,,,,,,,,,masks/mask_005.jpg,,,,,,,,,,,,,,,,,,,,,,,,,,,,,,,,,,,,,,,,,,,0,2,2,4,1,,,,,,,,,,,,,,,,,,,,,,,,,,,,,,,,,,,,,,,,,,,,,,
889471,001,2022-11-13_17h37.59.965,Info_measure_main_exp,2022.2.2,Win32,59.86948452,,,,,,,,,,,,,,,,,,masks/mask_002.jpg,,,,,,,,,,,,,,,,,,,,,,,,,,,,,,,,,,,,,,,,,,,0,3,3,1,1,,,,,,,,,,,,,,,,,,,,,,,,,,,,,,,,,,,,,,,,,,,,,,
889471,001,2022-11-13_17h37.59.965,Info_measure_main_exp,2022.2.2,Win32,59.86948452,,,,,,,,,,,,,,,,,,masks/mask_003.jpg,,,,,,,,,,,,,,,,,,,,,,,,,,,,,,,,,,,,,,,,,,,0,4,4,2,1,,,,,,,,,,,,,,,,,,,,,,,,,,,,,,,,,,,,,,,,,,,,,,
889471,001,2022-11-13_17h37.59.965,Info_measure_main_exp,2022.2.2,Win32,59.86948452,,,,,,,,,,,,,,,,,,masks/mask_005.jpg,,,,,,,,,,,,,,,,,,,,,,,,,,,,,,,,,,,,,,,,,,,,,,,,0,0,0,4,1,,,,,,,,,,,,,,,,,,,,,,,,,,,,,,,,,,,,,,,,,
889471,001,2022-11-13_17h37.59.965,Info_measure_main_exp,2022.2.2,Win32,59.86948452,,,,,,,,,,,,,,,,,,masks/mask_001.jpg,,,,,,,,,,,,,,,,,,,,,,,,,,,,,,,,,,,,,,,,,,,,,,,,0,1,1,0,1,,,,,,,,,,,,,,,,,,,,,,,,,,,,,,,,,,,,,,,,,
889471,001,2022-11-13_17h37.59.965,Info_measure_main_exp,2022.2.2,Win32,59.86948452,,,,,,,,,,,,,,,,,,masks/mask_003.jpg,,,,,,,,,,,,,,,,,,,,,,,,,,,,,,,,,,,,,,,,,,,,,,,,0,2,2,2,1,,,,,,,,,,,,,,,,,,,,,,,,,,,,,,,,,,,,,,,,,
889471,001,2022-11-13_17h37.59.965,Info_measure_main_exp,2022.2.2,Win32,59.86948452,,,,,,,,,,,,,,,,,,masks/mask_004.jpg,,,,,,,,,,,,,,,,,,,,,,,,,,,,,,,,,,,,,,,,,,,,,,,,0,3,3,3,1,,,,,,,,,,,,,,,,,,,,,,,,,,,,,,,,,,,,,,,,,
889471,001,2022-11-13_17h37.59.965,Info_measure_main_exp,2022.2.2,Win32,59.86948452,,,,,,,,,,,,,,,,,,masks/mask_002.jpg,,,,,,,,,,,,,,,,,,,,,,,,,,,,,,,,,,,,,,,,,,,,,,,,0,4,4,1,1,,,,,,,,,,,,,,,,,,,,,,,,,,,,,,,,,,,,,,,,,
889471,001,2022-11-13_17h37.59.965,Info_measure_main_exp,2022.2.2,Win32,59.86948452,,,,,,,,,,,,,,,,,,,,,,,,,,,,,,4,1.3033,1,,,,,,,,,,,,0,131,5,5,2178,2238,absent_patch/patch0002178.jpg,absent_patch/patch0002238.jpg,,,,,,,,,,,,,,,,,,,,0.055555556,-0.159722222,1,0,0,response3disk,16,-0.006944444,0,1,0,0,center_square,0,15,15,57,1,,,,,,,,,,,,,,,,,,,,,,,
889471,001,2022-11-13_17h37.59.965,Info_measure_main_exp,2022.2.2,Win32,59.86948452,,,,,,,,,,,,,,,,,,masks/mask_005.jpg,,,,,,,,,,,,,,,,,,,,,,,,,,,,,,,,,,,,,,,,,,,0,0,0,4,1,,,,,,,,,,,,,,,,,,,,,,,,,,,,,,,,,,,,,,,,,,,,,,
889471,001,2022-11-13_17h37.59.965,Info_measure_main_exp,2022.2.2,Win32,59.86948452,,,,,,,,,,,,,,,,,,masks/mask_001.jpg,,,,,,,,,,,,,,,,,,,,,,,,,,,,,,,,,,,,,,,,,,,0,1,1,0,1,,,,,,,,,,,,,,,,,,,,,,,,,,,,,,,,,,,,,,,,,,,,,,
889471,001,2022-11-13_17h37.59.965,Info_measure_main_exp,2022.2.2,Win32,59.86948452,,,,,,,,,,,,,,,,,,masks/mask_004.jpg,,,,,,,,,,,,,,,,,,,,,,,,,,,,,,,,,,,,,,,,,,,0,2,2,3,1,,,,,,,,,,,,,,,,,,,,,,,,,,,,,,,,,,,,,,,,,,,,,,
889471,001,2022-11-13_17h37.59.965,Info_measure_main_exp,2022.2.2,Win32,59.86948452,,,,,,,,,,,,,,,,,,masks/mask_003.jpg,,,,,,,,,,,,,,,,,,,,,,,,,,,,,,,,,,,,,,,,,,,0,3,3,2,1,,,,,,,,,,,,,,,,,,,,,,,,,,,,,,,,,,,,,,,,,,,,,,
889471,001,2022-11-13_17h37.59.965,Info_measure_main_exp,2022.2.2,Win32,59.86948452,,,,,,,,,,,,,,,,,,masks/mask_002.jpg,,,,,,,,,,,,,,,,,,,,,,,,,,,,,,,,,,,,,,,,,,,0,4,4,1,1,,,,,,,,,,,,,,,,,,,,,,,,,,,,,,,,,,,,,,,,,,,,,,
889471,001,2022-11-13_17h37.59.965,Info_measure_main_exp,2022.2.2,Win32,59.86948452,,,,,,,,,,,,,,,,,,masks/mask_004.jpg,,,,,,,,,,,,,,,,,,,,,,,,,,,,,,,,,,,,,,,,,,,,,,,,0,0,0,3,1,,,,,,,,,,,,,,,,,,,,,,,,,,,,,,,,,,,,,,,,,
889471,001,2022-11-13_17h37.59.965,Info_measure_main_exp,2022.2.2,Win32,59.86948452,,,,,,,,,,,,,,,,,,masks/mask_005.jpg,,,,,,,,,,,,,,,,,,,,,,,,,,,,,,,,,,,,,,,,,,,,,,,,0,1,1,4,1,,,,,,,,,,,,,,,,,,,,,,,,,,,,,,,,,,,,,,,,,
889471,001,2022-11-13_17h37.59.965,Info_measure_main_exp,2022.2.2,Win32,59.86948452,,,,,,,,,,,,,,,,,,masks/mask_002.jpg,,,,,,,,,,,,,,,,,,,,,,,,,,,,,,,,,,,,,,,,,,,,,,,,0,2,2,1,1,,,,,,,,,,,,,,,,,,,,,,,,,,,,,,,,,,,,,,,,,
889471,001,2022-11-13_17h37.59.965,Info_measure_main_exp,2022.2.2,Win32,59.86948452,,,,,,,,,,,,,,,,,,masks/mask_003.jpg,,,,,,,,,,,,,,,,,,,,,,,,,,,,,,,,,,,,,,,,,,,,,,,,0,3,3,2,1,,,,,,,,,,,,,,,,,,,,,,,,,,,,,,,,,,,,,,,,,
889471,001,2022-11-13_17h37.59.965,Info_measure_main_exp,2022.2.2,Win32,59.86948452,,,,,,,,,,,,,,,,,,masks/mask_001.jpg,,,,,,,,,,,,,,,,,,,,,,,,,,,,,,,,,,,,,,,,,,,,,,,,0,4,4,0,1,,,,,,,,,,,,,,,,,,,,,,,,,,,,,,,,,,,,,,,,,
889471,001,2022-11-13_17h37.59.965,Info_measure_main_exp,2022.2.2,Win32,59.86948452,,,,,,,,,,,,,,,,,,,,,,,,,,,,,,6,2.7053,1,,,,,,,,,,,,1,131,5,5,1,1974,present_patch/cong_131_5_a.jpg,absent_patch/patch0001974.jpg,,,,,,,,,,,,,,,,,,,,0.141666667,0.061111111,1,0,0,response1disk,17,-0.001388889,-0.004166667,1,0,0,center_square,0,16,16,69,1,,,,,,,,,,,,,,,,,,,,,,,
889471,001,2022-11-13_17h37.59.965,Info_measure_main_exp,2022.2.2,Win32,59.86948452,,,,,,,,,,,,,,,,,,masks/mask_002.jpg,,,,,,,,,,,,,,,,,,,,,,,,,,,,,,,,,,,,,,,,,,,0,0,0,1,1,,,,,,,,,,,,,,,,,,,,,,,,,,,,,,,,,,,,,,,,,,,,,,
889471,001,2022-11-13_17h37.59.965,Info_measure_main_exp,2022.2.2,Win32,59.86948452,,,,,,,,,,,,,,,,,,masks/mask_004.jpg,,,,,,,,,,,,,,,,,,,,,,,,,,,,,,,,,,,,,,,,,,,0,1,1,3,1,,,,,,,,,,,,,,,,,,,,,,,,,,,,,,,,,,,,,,,,,,,,,,
889471,001,2022-11-13_17h37.59.965,Info_measure_main_exp,2022.2.2,Win32,59.86948452,,,,,,,,,,,,,,,,,,masks/mask_001.jpg,,,,,,,,,,,,,,,,,,,,,,,,,,,,,,,,,,,,,,,,,,,0,2,2,0,1,,,,,,,,,,,,,,,,,,,,,,,,,,,,,,,,,,,,,,,,,,,,,,
889471,001,2022-11-13_17h37.59.965,Info_measure_main_exp,2022.2.2,Win32,59.86948452,,,,,,,,,,,,,,,,,,masks/mask_005.jpg,,,,,,,,,,,,,,,,,,,,,,,,,,,,,,,,,,,,,,,,,,,0,3,3,4,1,,,,,,,,,,,,,,,,,,,,,,,,,,,,,,,,,,,,,,,,,,,,,,
889471,001,2022-11-13_17h37.59.965,Info_measure_main_exp,2022.2.2,Win32,59.86948452,,,,,,,,,,,,,,,,,,masks/mask_003.jpg,,,,,,,,,,,,,,,,,,,,,,,,,,,,,,,,,,,,,,,,,,,0,4,4,2,1,,,,,,,,,,,,,,,,,,,,,,,,,,,,,,,,,,,,,,,,,,,,,,
889471,001,2022-11-13_17h37.59.965,Info_measure_main_exp,2022.2.2,Win32,59.86948452,,,,,,,,,,,,,,,,,,masks/mask_004.jpg,,,,,,,,,,,,,,,,,,,,,,,,,,,,,,,,,,,,,,,,,,,,,,,,0,0,0,3,1,,,,,,,,,,,,,,,,,,,,,,,,,,,,,,,,,,,,,,,,,
889471,001,2022-11-13_17h37.59.965,Info_measure_main_exp,2022.2.2,Win32,59.86948452,,,,,,,,,,,,,,,,,,masks/mask_005.jpg,,,,,,,,,,,,,,,,,,,,,,,,,,,,,,,,,,,,,,,,,,,,,,,,0,1,1,4,1,,,,,,,,,,,,,,,,,,,,,,,,,,,,,,,,,,,,,,,,,
889471,001,2022-11-13_17h37.59.965,Info_measure_main_exp,2022.2.2,Win32,59.86948452,,,,,,,,,,,,,,,,,,masks/mask_003.jpg,,,,,,,,,,,,,,,,,,,,,,,,,,,,,,,,,,,,,,,,,,,,,,,,0,2,2,2,1,,,,,,,,,,,,,,,,,,,,,,,,,,,,,,,,,,,,,,,,,
889471,001,2022-11-13_17h37.59.965,Info_measure_main_exp,2022.2.2,Win32,59.86948452,,,,,,,,,,,,,,,,,,masks/mask_002.jpg,,,,,,,,,,,,,,,,,,,,,,,,,,,,,,,,,,,,,,,,,,,,,,,,0,3,3,1,1,,,,,,,,,,,,,,,,,,,,,,,,,,,,,,,,,,,,,,,,,
889471,001,2022-11-13_17h37.59.965,Info_measure_main_exp,2022.2.2,Win32,59.86948452,,,,,,,,,,,,,,,,,,masks/mask_001.jpg,,,,,,,,,,,,,,,,,,,,,,,,,,,,,,,,,,,,,,,,,,,,,,,,0,4,4,0,1,,,,,,,,,,,,,,,,,,,,,,,,,,,,,,,,,,,,,,,,,
889471,001,2022-11-13_17h37.59.965,Info_measure_main_exp,2022.2.2,Win32,59.86948452,,,,,,,,,,,,,,,,,,,,,,,,,,,,,,5,2.0771,1,,,,,,,,,,,,0,131,5,5,1950,2238,absent_patch/patch0001950.jpg,absent_patch/patch0002238.jpg,,,,,,,,,,,,,,,,,,,,0.143055556,-0.030555556,1,0,0,response3disk,18,-0.006944444,0.008333333,1,0,0,center_square,0,17,17,8,1,,,,,,,,,,,,,,,,,,,,,,,
889471,001,2022-11-13_17h37.59.965,Info_measure_main_exp,2022.2.2,Win32,59.86948452,,,,,,,,,,,,,,,,,,masks/mask_003.jpg,,,,,,,,,,,,,,,,,,,,,,,,,,,,,,,,,,,,,,,,,,,0,0,0,2,1,,,,,,,,,,,,,,,,,,,,,,,,,,,,,,,,,,,,,,,,,,,,,,
889471,001,2022-11-13_17h37.59.965,Info_measure_main_exp,2022.2.2,Win32,59.86948452,,,,,,,,,,,,,,,,,,masks/mask_004.jpg,,,,,,,,,,,,,,,,,,,,,,,,,,,,,,,,,,,,,,,,,,,0,1,1,3,1,,,,,,,,,,,,,,,,,,,,,,,,,,,,,,,,,,,,,,,,,,,,,,
889471,001,2022-11-13_17h37.59.965,Info_measure_main_exp,2022.2.2,Win32,59.86948452,,,,,,,,,,,,,,,,,,masks/mask_002.jpg,,,,,,,,,,,,,,,,,,,,,,,,,,,,,,,,,,,,,,,,,,,0,2,2,1,1,,,,,,,,,,,,,,,,,,,,,,,,,,,,,,,,,,,,,,,,,,,,,,
889471,001,2022-11-13_17h37.59.965,Info_measure_main_exp,2022.2.2,Win32,59.86948452,,,,,,,,,,,,,,,,,,masks/mask_005.jpg,,,,,,,,,,,,,,,,,,,,,,,,,,,,,,,,,,,,,,,,,,,0,3,3,4,1,,,,,,,,,,,,,,,,,,,,,,,,,,,,,,,,,,,,,,,,,,,,,,
889471,001,2022-11-13_17h37.59.965,Info_measure_main_exp,2022.2.2,Win32,59.86948452,,,,,,,,,,,,,,,,,,masks/mask_001.jpg,,,,,,,,,,,,,,,,,,,,,,,,,,,,,,,,,,,,,,,,,,,0,4,4,0,1,,,,,,,,,,,,,,,,,,,,,,,,,,,,,,,,,,,,,,,,,,,,,,
889471,001,2022-11-13_17h37.59.965,Info_measure_main_exp,2022.2.2,Win32,59.86948452,,,,,,,,,,,,,,,,,,masks/mask_001.jpg,,,,,,,,,,,,,,,,,,,,,,,,,,,,,,,,,,,,,,,,,,,,,,,,0,0,0,0,1,,,,,,,,,,,,,,,,,,,,,,,,,,,,,,,,,,,,,,,,,
889471,001,2022-11-13_17h37.59.965,Info_measure_main_exp,2022.2.2,Win32,59.86948452,,,,,,,,,,,,,,,,,,masks/mask_003.jpg,,,,,,,,,,,,,,,,,,,,,,,,,,,,,,,,,,,,,,,,,,,,,,,,0,1,1,2,1,,,,,,,,,,,,,,,,,,,,,,,,,,,,,,,,,,,,,,,,,
889471,001,2022-11-13_17h37.59.965,Info_measure_main_exp,2022.2.2,Win32,59.86948452,,,,,,,,,,,,,,,,,,masks/mask_004.jpg,,,,,,,,,,,,,,,,,,,,,,,,,,,,,,,,,,,,,,,,,,,,,,,,0,2,2,3,1,,,,,,,,,,,,,,,,,,,,,,,,,,,,,,,,,,,,,,,,,
889471,001,2022-11-13_17h37.59.965,Info_measure_main_exp,2022.2.2,Win32,59.86948452,,,,,,,,,,,,,,,,,,masks/mask_005.jpg,,,,,,,,,,,,,,,,,,,,,,,,,,,,,,,,,,,,,,,,,,,,,,,,0,3,3,4,1,,,,,,,,,,,,,,,,,,,,,,,,,,,,,,,,,,,,,,,,,
889471,001,2022-11-13_17h37.59.965,Info_measure_main_exp,2022.2.2,Win32,59.86948452,,,,,,,,,,,,,,,,,,masks/mask_002.jpg,,,,,,,,,,,,,,,,,,,,,,,,,,,,,,,,,,,,,,,,,,,,,,,,0,4,4,1,1,,,,,,,,,,,,,,,,,,,,,,,,,,,,,,,,,,,,,,,,,
889471,001,2022-11-13_17h37.59.965,Info_measure_main_exp,2022.2.2,Win32,59.86948452,,,,,,,,,,,,,,,,,,,,,,,,,,,,,,6,2.0531,1,,,,,,,,,,,,0,131,5,5,2250,2166,absent_patch/patch0002250.jpg,absent_patch/patch0002166.jpg,,,,,,,,,,,,,,,,,,,,0.165277778,0.026388889,1,0,0,response1disk,19,0.005555556,0.001388889,1,0,0,center_square,0,18,18,60,1,,,,,,,,,,,,,,,,,,,,,,,
889471,001,2022-11-13_17h37.59.965,Info_measure_main_exp,2022.2.2,Win32,59.86948452,,,,,,,,,,,,,,,,,,masks/mask_005.jpg,,,,,,,,,,,,,,,,,,,,,,,,,,,,,,,,,,,,,,,,,,,0,0,0,4,1,,,,,,,,,,,,,,,,,,,,,,,,,,,,,,,,,,,,,,,,,,,,,,
889471,001,2022-11-13_17h37.59.965,Info_measure_main_exp,2022.2.2,Win32,59.86948452,,,,,,,,,,,,,,,,,,masks/mask_001.jpg,,,,,,,,,,,,,,,,,,,,,,,,,,,,,,,,,,,,,,,,,,,0,1,1,0,1,,,,,,,,,,,,,,,,,,,,,,,,,,,,,,,,,,,,,,,,,,,,,,
889471,001,2022-11-13_17h37.59.965,Info_measure_main_exp,2022.2.2,Win32,59.86948452,,,,,,,,,,,,,,,,,,masks/mask_004.jpg,,,,,,,,,,,,,,,,,,,,,,,,,,,,,,,,,,,,,,,,,,,0,2,2,3,1,,,,,,,,,,,,,,,,,,,,,,,,,,,,,,,,,,,,,,,,,,,,,,
889471,001,2022-11-13_17h37.59.965,Info_measure_main_exp,2022.2.2,Win32,59.86948452,,,,,,,,,,,,,,,,,,masks/mask_002.jpg,,,,,,,,,,,,,,,,,,,,,,,,,,,,,,,,,,,,,,,,,,,0,3,3,1,1,,,,,,,,,,,,,,,,,,,,,,,,,,,,,,,,,,,,,,,,,,,,,,
889471,001,2022-11-13_17h37.59.965,Info_measure_main_exp,2022.2.2,Win32,59.86948452,,,,,,,,,,,,,,,,,,masks/mask_003.jpg,,,,,,,,,,,,,,,,,,,,,,,,,,,,,,,,,,,,,,,,,,,0,4,4,2,1,,,,,,,,,,,,,,,,,,,,,,,,,,,,,,,,,,,,,,,,,,,,,,
889471,001,2022-11-13_17h37.59.965,Info_measure_main_exp,2022.2.2,Win32,59.86948452,,,,,,,,,,,,,,,,,,masks/mask_005.jpg,,,,,,,,,,,,,,,,,,,,,,,,,,,,,,,,,,,,,,,,,,,,,,,,0,0,0,4,1,,,,,,,,,,,,,,,,,,,,,,,,,,,,,,,,,,,,,,,,,
889471,001,2022-11-13_17h37.59.965,Info_measure_main_exp,2022.2.2,Win32,59.86948452,,,,,,,,,,,,,,,,,,masks/mask_002.jpg,,,,,,,,,,,,,,,,,,,,,,,,,,,,,,,,,,,,,,,,,,,,,,,,0,1,1,1,1,,,,,,,,,,,,,,,,,,,,,,,,,,,,,,,,,,,,,,,,,
889471,001,2022-11-13_17h37.59.965,Info_measure_main_exp,2022.2.2,Win32,59.86948452,,,,,,,,,,,,,,,,,,masks/mask_004.jpg,,,,,,,,,,,,,,,,,,,,,,,,,,,,,,,,,,,,,,,,,,,,,,,,0,2,2,3,1,,,,,,,,,,,,,,,,,,,,,,,,,,,,,,,,,,,,,,,,,
889471,001,2022-11-13_17h37.59.965,Info_measure_main_exp,2022.2.2,Win32,59.86948452,,,,,,,,,,,,,,,,,,masks/mask_003.jpg,,,,,,,,,,,,,,,,,,,,,,,,,,,,,,,,,,,,,,,,,,,,,,,,0,3,3,2,1,,,,,,,,,,,,,,,,,,,,,,,,,,,,,,,,,,,,,,,,,
889471,001,2022-11-13_17h37.59.965,Info_measure_main_exp,2022.2.2,Win32,59.86948452,,,,,,,,,,,,,,,,,,masks/mask_001.jpg,,,,,,,,,,,,,,,,,,,,,,,,,,,,,,,,,,,,,,,,,,,,,,,,0,4,4,0,1,,,,,,,,,,,,,,,,,,,,,,,,,,,,,,,,,,,,,,,,,
889471,001,2022-11-13_17h37.59.965,Info_measure_main_exp,2022.2.2,Win32,59.86948452,,,,,,,,,,,,,,,,,,,,,,,,,,,,,,6,5.7183,1,,,,,,,,,,,,0,131,5,5,2238,2214,absent_patch/patch0002238.jpg,absent_patch/patch0002214.jpg,,,,,,,,,,,,,,,,,,,,0.148611111,0.027777778,1,0,0,response1disk,20,-0.001388889,0.002777778,1,0,0,center_square,0,19,19,81,1,,,,,,,,,,,,,,,,,,,,,,,
889471,001,2022-11-13_17h37.59.965,Info_measure_main_exp,2022.2.2,Win32,59.86948452,,,,,,,,,,,,,,,,,,masks/mask_002.jpg,,,,,,,,,,,,,,,,,,,,,,,,,,,,,,,,,,,,,,,,,,,0,0,0,1,1,,,,,,,,,,,,,,,,,,,,,,,,,,,,,,,,,,,,,,,,,,,,,,
889471,001,2022-11-13_17h37.59.965,Info_measure_main_exp,2022.2.2,Win32,59.86948452,,,,,,,,,,,,,,,,,,masks/mask_005.jpg,,,,,,,,,,,,,,,,,,,,,,,,,,,,,,,,,,,,,,,,,,,0,1,1,4,1,,,,,,,,,,,,,,,,,,,,,,,,,,,,,,,,,,,,,,,,,,,,,,
889471,001,2022-11-13_17h37.59.965,Info_measure_main_exp,2022.2.2,Win32,59.86948452,,,,,,,,,,,,,,,,,,masks/mask_003.jpg,,,,,,,,,,,,,,,,,,,,,,,,,,,,,,,,,,,,,,,,,,,0,2,2,2,1,,,,,,,,,,,,,,,,,,,,,,,,,,,,,,,,,,,,,,,,,,,,,,
889471,001,2022-11-13_17h37.59.965,Info_measure_main_exp,2022.2.2,Win32,59.86948452,,,,,,,,,,,,,,,,,,masks/mask_004.jpg,,,,,,,,,,,,,,,,,,,,,,,,,,,,,,,,,,,,,,,,,,,0,3,3,3,1,,,,,,,,,,,,,,,,,,,,,,,,,,,,,,,,,,,,,,,,,,,,,,
889471,001,2022-11-13_17h37.59.965,Info_measure_main_exp,2022.2.2,Win32,59.86948452,,,,,,,,,,,,,,,,,,masks/mask_001.jpg,,,,,,,,,,,,,,,,,,,,,,,,,,,,,,,,,,,,,,,,,,,0,4,4,0,1,,,,,,,,,,,,,,,,,,,,,,,,,,,,,,,,,,,,,,,,,,,,,,
889471,001,2022-11-13_17h37.59.965,Info_measure_main_exp,2022.2.2,Win32,59.86948452,,,,,,,,,,,,,,,,,,masks/mask_001.jpg,,,,,,,,,,,,,,,,,,,,,,,,,,,,,,,,,,,,,,,,,,,,,,,,0,0,0,0,1,,,,,,,,,,,,,,,,,,,,,,,,,,,,,,,,,,,,,,,,,
889471,001,2022-11-13_17h37.59.965,Info_measure_main_exp,2022.2.2,Win32,59.86948452,,,,,,,,,,,,,,,,,,masks/mask_005.jpg,,,,,,,,,,,,,,,,,,,,,,,,,,,,,,,,,,,,,,,,,,,,,,,,0,1,1,4,1,,,,,,,,,,,,,,,,,,,,,,,,,,,,,,,,,,,,,,,,,
889471,001,2022-11-13_17h37.59.965,Info_measure_main_exp,2022.2.2,Win32,59.86948452,,,,,,,,,,,,,,,,,,masks/mask_003.jpg,,,,,,,,,,,,,,,,,,,,,,,,,,,,,,,,,,,,,,,,,,,,,,,,0,2,2,2,1,,,,,,,,,,,,,,,,,,,,,,,,,,,,,,,,,,,,,,,,,
889471,001,2022-11-13_17h37.59.965,Info_measure_main_exp,2022.2.2,Win32,59.86948452,,,,,,,,,,,,,,,,,,masks/mask_004.jpg,,,,,,,,,,,,,,,,,,,,,,,,,,,,,,,,,,,,,,,,,,,,,,,,0,3,3,3,1,,,,,,,,,,,,,,,,,,,,,,,,,,,,,,,,,,,,,,,,,
889471,001,2022-11-13_17h37.59.965,Info_measure_main_exp,2022.2.2,Win32,59.86948452,,,,,,,,,,,,,,,,,,masks/mask_002.jpg,,,,,,,,,,,,,,,,,,,,,,,,,,,,,,,,,,,,,,,,,,,,,,,,0,4,4,1,1,,,,,,,,,,,,,,,,,,,,,,,,,,,,,,,,,,,,,,,,,
889471,001,2022-11-13_17h37.59.965,Info_measure_main_exp,2022.2.2,Win32,59.86948452,,,,,,,,,,,,,,,,,,,,,,,,,,,,,,6,1.8852,1,,,,,,,,,,,,0,131,5,5,2190,2238,absent_patch/patch0002190.jpg,absent_patch/patch0002238.jpg,,,,,,,,,,,,,,,,,,,,0.169444444,0.044444444,1,0,0,response1disk,21,0.001388889,0.008333333,1,0,0,center_square,0,20,20,53,1,,,,,,,,,,,,,,,,,,,,,,,
889471,001,2022-11-13_17h37.59.965,Info_measure_main_exp,2022.2.2,Win32,59.86948452,,,,,,,,,,,,,,,,,,masks/mask_002.jpg,,,,,,,,,,,,,,,,,,,,,,,,,,,,,,,,,,,,,,,,,,,0,0,0,1,1,,,,,,,,,,,,,,,,,,,,,,,,,,,,,,,,,,,,,,,,,,,,,,
889471,001,2022-11-13_17h37.59.965,Info_measure_main_exp,2022.2.2,Win32,59.86948452,,,,,,,,,,,,,,,,,,masks/mask_004.jpg,,,,,,,,,,,,,,,,,,,,,,,,,,,,,,,,,,,,,,,,,,,0,1,1,3,1,,,,,,,,,,,,,,,,,,,,,,,,,,,,,,,,,,,,,,,,,,,,,,
889471,001,2022-11-13_17h37.59.965,Info_measure_main_exp,2022.2.2,Win32,59.86948452,,,,,,,,,,,,,,,,,,masks/mask_005.jpg,,,,,,,,,,,,,,,,,,,,,,,,,,,,,,,,,,,,,,,,,,,0,2,2,4,1,,,,,,,,,,,,,,,,,,,,,,,,,,,,,,,,,,,,,,,,,,,,,,
889471,001,2022-11-13_17h37.59.965,Info_measure_main_exp,2022.2.2,Win32,59.86948452,,,,,,,,,,,,,,,,,,masks/mask_003.jpg,,,,,,,,,,,,,,,,,,,,,,,,,,,,,,,,,,,,,,,,,,,0,3,3,2,1,,,,,,,,,,,,,,,,,,,,,,,,,,,,,,,,,,,,,,,,,,,,,,
889471,001,2022-11-13_17h37.59.965,Info_measure_main_exp,2022.2.2,Win32,59.86948452,,,,,,,,,,,,,,,,,,masks/mask_001.jpg,,,,,,,,,,,,,,,,,,,,,,,,,,,,,,,,,,,,,,,,,,,0,4,4,0,1,,,,,,,,,,,,,,,,,,,,,,,,,,,,,,,,,,,,,,,,,,,,,,
889471,001,2022-11-13_17h37.59.965,Info_measure_main_exp,2022.2.2,Win32,59.86948452,,,,,,,,,,,,,,,,,,masks/mask_004.jpg,,,,,,,,,,,,,,,,,,,,,,,,,,,,,,,,,,,,,,,,,,,,,,,,0,0,0,3,1,,,,,,,,,,,,,,,,,,,,,,,,,,,,,,,,,,,,,,,,,
889471,001,2022-11-13_17h37.59.965,Info_measure_main_exp,2022.2.2,Win32,59.86948452,,,,,,,,,,,,,,,,,,masks/mask_002.jpg,,,,,,,,,,,,,,,,,,,,,,,,,,,,,,,,,,,,,,,,,,,,,,,,0,1,1,1,1,,,,,,,,,,,,,,,,,,,,,,,,,,,,,,,,,,,,,,,,,
889471,001,2022-11-13_17h37.59.965,Info_measure_main_exp,2022.2.2,Win32,59.86948452,,,,,,,,,,,,,,,,,,masks/mask_005.jpg,,,,,,,,,,,,,,,,,,,,,,,,,,,,,,,,,,,,,,,,,,,,,,,,0,2,2,4,1,,,,,,,,,,,,,,,,,,,,,,,,,,,,,,,,,,,,,,,,,
889471,001,2022-11-13_17h37.59.965,Info_measure_main_exp,2022.2.2,Win32,59.86948452,,,,,,,,,,,,,,,,,,masks/mask_003.jpg,,,,,,,,,,,,,,,,,,,,,,,,,,,,,,,,,,,,,,,,,,,,,,,,0,3,3,2,1,,,,,,,,,,,,,,,,,,,,,,,,,,,,,,,,,,,,,,,,,
889471,001,2022-11-13_17h37.59.965,Info_measure_main_exp,2022.2.2,Win32,59.86948452,,,,,,,,,,,,,,,,,,masks/mask_001.jpg,,,,,,,,,,,,,,,,,,,,,,,,,,,,,,,,,,,,,,,,,,,,,,,,0,4,4,0,1,,,,,,,,,,,,,,,,,,,,,,,,,,,,,,,,,,,,,,,,,
889471,001,2022-11-13_17h37.59.965,Info_measure_main_exp,2022.2.2,Win32,59.86948452,,,,,,,,,,,,,,,,,,,,,,,,,,,,,,3,2.299,1,,,,,,,,,,,,0,131,5,5,1950,2142,absent_patch/patch0001950.jpg,absent_patch/patch0002142.jpg,,,,,,,,,,,,,,,,,,,,-0.113888889,-0.1625,1,0,0,response5disk,22,0.002777778,0.011111111,1,0,0,center_square,0,21,21,83,1,,,,,,,,,,,,,,,,,,,,,,,
889471,001,2022-11-13_17h37.59.965,Info_measure_main_exp,2022.2.2,Win32,59.86948452,,,,,,,,,,,,,,,,,,masks/mask_005.jpg,,,,,,,,,,,,,,,,,,,,,,,,,,,,,,,,,,,,,,,,,,,0,0,0,4,1,,,,,,,,,,,,,,,,,,,,,,,,,,,,,,,,,,,,,,,,,,,,,,
889471,001,2022-11-13_17h37.59.965,Info_measure_main_exp,2022.2.2,Win32,59.86948452,,,,,,,,,,,,,,,,,,masks/mask_001.jpg,,,,,,,,,,,,,,,,,,,,,,,,,,,,,,,,,,,,,,,,,,,0,1,1,0,1,,,,,,,,,,,,,,,,,,,,,,,,,,,,,,,,,,,,,,,,,,,,,,
889471,001,2022-11-13_17h37.59.965,Info_measure_main_exp,2022.2.2,Win32,59.86948452,,,,,,,,,,,,,,,,,,masks/mask_004.jpg,,,,,,,,,,,,,,,,,,,,,,,,,,,,,,,,,,,,,,,,,,,0,2,2,3,1,,,,,,,,,,,,,,,,,,,,,,,,,,,,,,,,,,,,,,,,,,,,,,
889471,001,2022-11-13_17h37.59.965,Info_measure_main_exp,2022.2.2,Win32,59.86948452,,,,,,,,,,,,,,,,,,masks/mask_002.jpg,,,,,,,,,,,,,,,,,,,,,,,,,,,,,,,,,,,,,,,,,,,0,3,3,1,1,,,,,,,,,,,,,,,,,,,,,,,,,,,,,,,,,,,,,,,,,,,,,,
889471,001,2022-11-13_17h37.59.965,Info_measure_main_exp,2022.2.2,Win32,59.86948452,,,,,,,,,,,,,,,,,,masks/mask_003.jpg,,,,,,,,,,,,,,,,,,,,,,,,,,,,,,,,,,,,,,,,,,,0,4,4,2,1,,,,,,,,,,,,,,,,,,,,,,,,,,,,,,,,,,,,,,,,,,,,,,
889471,001,2022-11-13_17h37.59.965,Info_measure_main_exp,2022.2.2,Win32,59.86948452,,,,,,,,,,,,,,,,,,masks/mask_005.jpg,,,,,,,,,,,,,,,,,,,,,,,,,,,,,,,,,,,,,,,,,,,,,,,,0,0,0,4,1,,,,,,,,,,,,,,,,,,,,,,,,,,,,,,,,,,,,,,,,,
889471,001,2022-11-13_17h37.59.965,Info_measure_main_exp,2022.2.2,Win32,59.86948452,,,,,,,,,,,,,,,,,,masks/mask_003.jpg,,,,,,,,,,,,,,,,,,,,,,,,,,,,,,,,,,,,,,,,,,,,,,,,0,1,1,2,1,,,,,,,,,,,,,,,,,,,,,,,,,,,,,,,,,,,,,,,,,
889471,001,2022-11-13_17h37.59.965,Info_measure_main_exp,2022.2.2,Win32,59.86948452,,,,,,,,,,,,,,,,,,masks/mask_002.jpg,,,,,,,,,,,,,,,,,,,,,,,,,,,,,,,,,,,,,,,,,,,,,,,,0,2,2,1,1,,,,,,,,,,,,,,,,,,,,,,,,,,,,,,,,,,,,,,,,,
889471,001,2022-11-13_17h37.59.965,Info_measure_main_exp,2022.2.2,Win32,59.86948452,,,,,,,,,,,,,,,,,,masks/mask_001.jpg,,,,,,,,,,,,,,,,,,,,,,,,,,,,,,,,,,,,,,,,,,,,,,,,0,3,3,0,1,,,,,,,,,,,,,,,,,,,,,,,,,,,,,,,,,,,,,,,,,
889471,001,2022-11-13_17h37.59.965,Info_measure_main_exp,2022.2.2,Win32,59.86948452,,,,,,,,,,,,,,,,,,masks/mask_004.jpg,,,,,,,,,,,,,,,,,,,,,,,,,,,,,,,,,,,,,,,,,,,,,,,,0,4,4,3,1,,,,,,,,,,,,,,,,,,,,,,,,,,,,,,,,,,,,,,,,,
889471,001,2022-11-13_17h37.59.965,Info_measure_main_exp,2022.2.2,Win32,59.86948452,,,,,,,,,,,,,,,,,,,,,,,,,,,,,,4,2.6563,1,,,,,,,,,,,,0,131,5,5,2082,2298,absent_patch/patch0002082.jpg,absent_patch/patch0002298.jpg,,,,,,,,,,,,,,,,,,,,0.038888889,-0.120833333,1,0,0,response3disk,23,-0.0125,0.006944444,1,0,0,center_square,0,22,22,107,1,,,,,,,,,,,,,,,,,,,,,,,
889471,001,2022-11-13_17h37.59.965,Info_measure_main_exp,2022.2.2,Win32,59.86948452,,,,,,,,,,,,,,,,,,masks/mask_004.jpg,,,,,,,,,,,,,,,,,,,,,,,,,,,,,,,,,,,,,,,,,,,0,0,0,3,1,,,,,,,,,,,,,,,,,,,,,,,,,,,,,,,,,,,,,,,,,,,,,,
889471,001,2022-11-13_17h37.59.965,Info_measure_main_exp,2022.2.2,Win32,59.86948452,,,,,,,,,,,,,,,,,,masks/mask_003.jpg,,,,,,,,,,,,,,,,,,,,,,,,,,,,,,,,,,,,,,,,,,,0,1,1,2,1,,,,,,,,,,,,,,,,,,,,,,,,,,,,,,,,,,,,,,,,,,,,,,
889471,001,2022-11-13_17h37.59.965,Info_measure_main_exp,2022.2.2,Win32,59.86948452,,,,,,,,,,,,,,,,,,masks/mask_002.jpg,,,,,,,,,,,,,,,,,,,,,,,,,,,,,,,,,,,,,,,,,,,0,2,2,1,1,,,,,,,,,,,,,,,,,,,,,,,,,,,,,,,,,,,,,,,,,,,,,,
889471,001,2022-11-13_17h37.59.965,Info_measure_main_exp,2022.2.2,Win32,59.86948452,,,,,,,,,,,,,,,,,,masks/mask_001.jpg,,,,,,,,,,,,,,,,,,,,,,,,,,,,,,,,,,,,,,,,,,,0,3,3,0,1,,,,,,,,,,,,,,,,,,,,,,,,,,,,,,,,,,,,,,,,,,,,,,
889471,001,2022-11-13_17h37.59.965,Info_measure_main_exp,2022.2.2,Win32,59.86948452,,,,,,,,,,,,,,,,,,masks/mask_005.jpg,,,,,,,,,,,,,,,,,,,,,,,,,,,,,,,,,,,,,,,,,,,0,4,4,4,1,,,,,,,,,,,,,,,,,,,,,,,,,,,,,,,,,,,,,,,,,,,,,,
889471,001,2022-11-13_17h37.59.965,Info_measure_main_exp,2022.2.2,Win32,59.86948452,,,,,,,,,,,,,,,,,,masks/mask_002.jpg,,,,,,,,,,,,,,,,,,,,,,,,,,,,,,,,,,,,,,,,,,,,,,,,0,0,0,1,1,,,,,,,,,,,,,,,,,,,,,,,,,,,,,,,,,,,,,,,,,
889471,001,2022-11-13_17h37.59.965,Info_measure_main_exp,2022.2.2,Win32,59.86948452,,,,,,,,,,,,,,,,,,masks/mask_003.jpg,,,,,,,,,,,,,,,,,,,,,,,,,,,,,,,,,,,,,,,,,,,,,,,,0,1,1,2,1,,,,,,,,,,,,,,,,,,,,,,,,,,,,,,,,,,,,,,,,,
889471,001,2022-11-13_17h37.59.965,Info_measure_main_exp,2022.2.2,Win32,59.86948452,,,,,,,,,,,,,,,,,,masks/mask_004.jpg,,,,,,,,,,,,,,,,,,,,,,,,,,,,,,,,,,,,,,,,,,,,,,,,0,2,2,3,1,,,,,,,,,,,,,,,,,,,,,,,,,,,,,,,,,,,,,,,,,
889471,001,2022-11-13_17h37.59.965,Info_measure_main_exp,2022.2.2,Win32,59.86948452,,,,,,,,,,,,,,,,,,masks/mask_005.jpg,,,,,,,,,,,,,,,,,,,,,,,,,,,,,,,,,,,,,,,,,,,,,,,,0,3,3,4,1,,,,,,,,,,,,,,,,,,,,,,,,,,,,,,,,,,,,,,,,,
889471,001,2022-11-13_17h37.59.965,Info_measure_main_exp,2022.2.2,Win32,59.86948452,,,,,,,,,,,,,,,,,,masks/mask_001.jpg,,,,,,,,,,,,,,,,,,,,,,,,,,,,,,,,,,,,,,,,,,,,,,,,0,4,4,0,1,,,,,,,,,,,,,,,,,,,,,,,,,,,,,,,,,,,,,,,,,
889471,001,2022-11-13_17h37.59.965,Info_measure_main_exp,2022.2.2,Win32,59.86948452,,,,,,,,,,,,,,,,,,,,,,,,,,,,,,5,2.0328,1,,,,,,,,,,,,0,131,5,5,1950,2214,absent_patch/patch0001950.jpg,absent_patch/patch0002214.jpg,,,,,,,,,,,,,,,,,,,,0.147222222,-0.0375,1,0,0,response3disk,24,-0.006944444,0.008333333,1,0,0,center_square,0,23,23,85,1,,,,,,,,,,,,,,,,,,,,,,,
889471,001,2022-11-13_17h37.59.965,Info_measure_main_exp,2022.2.2,Win32,59.86948452,,,,,,,,,,,,,,,,,,masks/mask_001.jpg,,,,,,,,,,,,,,,,,,,,,,,,,,,,,,,,,,,,,,,,,,,0,0,0,0,1,,,,,,,,,,,,,,,,,,,,,,,,,,,,,,,,,,,,,,,,,,,,,,
889471,001,2022-11-13_17h37.59.965,Info_measure_main_exp,2022.2.2,Win32,59.86948452,,,,,,,,,,,,,,,,,,masks/mask_002.jpg,,,,,,,,,,,,,,,,,,,,,,,,,,,,,,,,,,,,,,,,,,,0,1,1,1,1,,,,,,,,,,,,,,,,,,,,,,,,,,,,,,,,,,,,,,,,,,,,,,
889471,001,2022-11-13_17h37.59.965,Info_measure_main_exp,2022.2.2,Win32,59.86948452,,,,,,,,,,,,,,,,,,masks/mask_004.jpg,,,,,,,,,,,,,,,,,,,,,,,,,,,,,,,,,,,,,,,,,,,0,2,2,3,1,,,,,,,,,,,,,,,,,,,,,,,,,,,,,,,,,,,,,,,,,,,,,,
889471,001,2022-11-13_17h37.59.965,Info_measure_main_exp,2022.2.2,Win32,59.86948452,,,,,,,,,,,,,,,,,,masks/mask_003.jpg,,,,,,,,,,,,,,,,,,,,,,,,,,,,,,,,,,,,,,,,,,,0,3,3,2,1,,,,,,,,,,,,,,,,,,,,,,,,,,,,,,,,,,,,,,,,,,,,,,
889471,001,2022-11-13_17h37.59.965,Info_measure_main_exp,2022.2.2,Win32,59.86948452,,,,,,,,,,,,,,,,,,masks/mask_005.jpg,,,,,,,,,,,,,,,,,,,,,,,,,,,,,,,,,,,,,,,,,,,0,4,4,4,1,,,,,,,,,,,,,,,,,,,,,,,,,,,,,,,,,,,,,,,,,,,,,,
889471,001,2022-11-13_17h37.59.965,Info_measure_main_exp,2022.2.2,Win32,59.86948452,,,,,,,,,,,,,,,,,,masks/mask_001.jpg,,,,,,,,,,,,,,,,,,,,,,,,,,,,,,,,,,,,,,,,,,,,,,,,0,0,0,0,1,,,,,,,,,,,,,,,,,,,,,,,,,,,,,,,,,,,,,,,,,
889471,001,2022-11-13_17h37.59.965,Info_measure_main_exp,2022.2.2,Win32,59.86948452,,,,,,,,,,,,,,,,,,masks/mask_002.jpg,,,,,,,,,,,,,,,,,,,,,,,,,,,,,,,,,,,,,,,,,,,,,,,,0,1,1,1,1,,,,,,,,,,,,,,,,,,,,,,,,,,,,,,,,,,,,,,,,,
889471,001,2022-11-13_17h37.59.965,Info_measure_main_exp,2022.2.2,Win32,59.86948452,,,,,,,,,,,,,,,,,,masks/mask_003.jpg,,,,,,,,,,,,,,,,,,,,,,,,,,,,,,,,,,,,,,,,,,,,,,,,0,2,2,2,1,,,,,,,,,,,,,,,,,,,,,,,,,,,,,,,,,,,,,,,,,
889471,001,2022-11-13_17h37.59.965,Info_measure_main_exp,2022.2.2,Win32,59.86948452,,,,,,,,,,,,,,,,,,masks/mask_004.jpg,,,,,,,,,,,,,,,,,,,,,,,,,,,,,,,,,,,,,,,,,,,,,,,,0,3,3,3,1,,,,,,,,,,,,,,,,,,,,,,,,,,,,,,,,,,,,,,,,,
889471,001,2022-11-13_17h37.59.965,Info_measure_main_exp,2022.2.2,Win32,59.86948452,,,,,,,,,,,,,,,,,,masks/mask_005.jpg,,,,,,,,,,,,,,,,,,,,,,,,,,,,,,,,,,,,,,,,,,,,,,,,0,4,4,4,1,,,,,,,,,,,,,,,,,,,,,,,,,,,,,,,,,,,,,,,,,
889471,001,2022-11-13_17h37.59.965,Info_measure_main_exp,2022.2.2,Win32,59.86948452,,,,,,,,,,,,,,,,,,,,,,,,,,,,,,0,0.7156,1,,,,,,,,,,,,0,131,5,5,2178,2178,absent_patch/patch0002178.jpg,absent_patch/patch0002178.jpg,,,,,,,,,,,,,,,,,,,,-0.05,0.136111111,1,0,0,response7disk,25,0,0.002777778,1,0,0,center_square,0,24,24,98,1,,,,,,,,,,,,,,,,,,,,,,,
889471,001,2022-11-13_17h37.59.965,Info_measure_main_exp,2022.2.2,Win32,59.86948452,,,,,,,,,,,,,,,,,,masks/mask_002.jpg,,,,,,,,,,,,,,,,,,,,,,,,,,,,,,,,,,,,,,,,,,,0,0,0,1,1,,,,,,,,,,,,,,,,,,,,,,,,,,,,,,,,,,,,,,,,,,,,,,
889471,001,2022-11-13_17h37.59.965,Info_measure_main_exp,2022.2.2,Win32,59.86948452,,,,,,,,,,,,,,,,,,masks/mask_001.jpg,,,,,,,,,,,,,,,,,,,,,,,,,,,,,,,,,,,,,,,,,,,0,1,1,0,1,,,,,,,,,,,,,,,,,,,,,,,,,,,,,,,,,,,,,,,,,,,,,,
889471,001,2022-11-13_17h37.59.965,Info_measure_main_exp,2022.2.2,Win32,59.86948452,,,,,,,,,,,,,,,,,,masks/mask_004.jpg,,,,,,,,,,,,,,,,,,,,,,,,,,,,,,,,,,,,,,,,,,,0,2,2,3,1,,,,,,,,,,,,,,,,,,,,,,,,,,,,,,,,,,,,,,,,,,,,,,
889471,001,2022-11-13_17h37.59.965,Info_measure_main_exp,2022.2.2,Win32,59.86948452,,,,,,,,,,,,,,,,,,masks/mask_003.jpg,,,,,,,,,,,,,,,,,,,,,,,,,,,,,,,,,,,,,,,,,,,0,3,3,2,1,,,,,,,,,,,,,,,,,,,,,,,,,,,,,,,,,,,,,,,,,,,,,,
889471,001,2022-11-13_17h37.59.965,Info_measure_main_exp,2022.2.2,Win32,59.86948452,,,,,,,,,,,,,,,,,,masks/mask_005.jpg,,,,,,,,,,,,,,,,,,,,,,,,,,,,,,,,,,,,,,,,,,,0,4,4,4,1,,,,,,,,,,,,,,,,,,,,,,,,,,,,,,,,,,,,,,,,,,,,,,
889471,001,2022-11-13_17h37.59.965,Info_measure_main_exp,2022.2.2,Win32,59.86948452,,,,,,,,,,,,,,,,,,masks/mask_005.jpg,,,,,,,,,,,,,,,,,,,,,,,,,,,,,,,,,,,,,,,,,,,,,,,,0,0,0,4,1,,,,,,,,,,,,,,,,,,,,,,,,,,,,,,,,,,,,,,,,,
889471,001,2022-11-13_17h37.59.965,Info_measure_main_exp,2022.2.2,Win32,59.86948452,,,,,,,,,,,,,,,,,,masks/mask_001.jpg,,,,,,,,,,,,,,,,,,,,,,,,,,,,,,,,,,,,,,,,,,,,,,,,0,1,1,0,1,,,,,,,,,,,,,,,,,,,,,,,,,,,,,,,,,,,,,,,,,
889471,001,2022-11-13_17h37.59.965,Info_measure_main_exp,2022.2.2,Win32,59.86948452,,,,,,,,,,,,,,,,,,masks/mask_002.jpg,,,,,,,,,,,,,,,,,,,,,,,,,,,,,,,,,,,,,,,,,,,,,,,,0,2,2,1,1,,,,,,,,,,,,,,,,,,,,,,,,,,,,,,,,,,,,,,,,,
889471,001,2022-11-13_17h37.59.965,Info_measure_main_exp,2022.2.2,Win32,59.86948452,,,,,,,,,,,,,,,,,,masks/mask_004.jpg,,,,,,,,,,,,,,,,,,,,,,,,,,,,,,,,,,,,,,,,,,,,,,,,0,3,3,3,1,,,,,,,,,,,,,,,,,,,,,,,,,,,,,,,,,,,,,,,,,
889471,001,2022-11-13_17h37.59.965,Info_measure_main_exp,2022.2.2,Win32,59.86948452,,,,,,,,,,,,,,,,,,masks/mask_003.jpg,,,,,,,,,,,,,,,,,,,,,,,,,,,,,,,,,,,,,,,,,,,,,,,,0,4,4,2,1,,,,,,,,,,,,,,,,,,,,,,,,,,,,,,,,,,,,,,,,,
889471,001,2022-11-13_17h37.59.965,Info_measure_main_exp,2022.2.2,Win32,59.86948452,,,,,,,,,,,,,,,,,,,,,,,,,,,,,,5,2.268,1,,,,,,,,,,,,0,131,5,5,2274,2178,absent_patch/patch0002274.jpg,absent_patch/patch0002178.jpg,,,,,,,,,,,,,,,,,,,,0.159722222,-0.040277778,1,0,0,response3disk,26,0.001388889,0.006944444,1,0,0,center_square,0,25,25,117,1,,,,,,,,,,,,,,,,,,,,,,,
889471,001,2022-11-13_17h37.59.965,Info_measure_main_exp,2022.2.2,Win32,59.86948452,,,,,,,,,,,,,,,,,,masks/mask_001.jpg,,,,,,,,,,,,,,,,,,,,,,,,,,,,,,,,,,,,,,,,,,,0,0,0,0,1,,,,,,,,,,,,,,,,,,,,,,,,,,,,,,,,,,,,,,,,,,,,,,
889471,001,2022-11-13_17h37.59.965,Info_measure_main_exp,2022.2.2,Win32,59.86948452,,,,,,,,,,,,,,,,,,masks/mask_004.jpg,,,,,,,,,,,,,,,,,,,,,,,,,,,,,,,,,,,,,,,,,,,0,1,1,3,1,,,,,,,,,,,,,,,,,,,,,,,,,,,,,,,,,,,,,,,,,,,,,,
889471,001,2022-11-13_17h37.59.965,Info_measure_main_exp,2022.2.2,Win32,59.86948452,,,,,,,,,,,,,,,,,,masks/mask_002.jpg,,,,,,,,,,,,,,,,,,,,,,,,,,,,,,,,,,,,,,,,,,,0,2,2,1,1,,,,,,,,,,,,,,,,,,,,,,,,,,,,,,,,,,,,,,,,,,,,,,
889471,001,2022-11-13_17h37.59.965,Info_measure_main_exp,2022.2.2,Win32,59.86948452,,,,,,,,,,,,,,,,,,masks/mask_003.jpg,,,,,,,,,,,,,,,,,,,,,,,,,,,,,,,,,,,,,,,,,,,0,3,3,2,1,,,,,,,,,,,,,,,,,,,,,,,,,,,,,,,,,,,,,,,,,,,,,,
889471,001,2022-11-13_17h37.59.965,Info_measure_main_exp,2022.2.2,Win32,59.86948452,,,,,,,,,,,,,,,,,,masks/mask_005.jpg,,,,,,,,,,,,,,,,,,,,,,,,,,,,,,,,,,,,,,,,,,,0,4,4,4,1,,,,,,,,,,,,,,,,,,,,,,,,,,,,,,,,,,,,,,,,,,,,,,
889471,001,2022-11-13_17h37.59.965,Info_measure_main_exp,2022.2.2,Win32,59.86948452,,,,,,,,,,,,,,,,,,masks/mask_003.jpg,,,,,,,,,,,,,,,,,,,,,,,,,,,,,,,,,,,,,,,,,,,,,,,,0,0,0,2,1,,,,,,,,,,,,,,,,,,,,,,,,,,,,,,,,,,,,,,,,,
889471,001,2022-11-13_17h37.59.965,Info_measure_main_exp,2022.2.2,Win32,59.86948452,,,,,,,,,,,,,,,,,,masks/mask_001.jpg,,,,,,,,,,,,,,,,,,,,,,,,,,,,,,,,,,,,,,,,,,,,,,,,0,1,1,0,1,,,,,,,,,,,,,,,,,,,,,,,,,,,,,,,,,,,,,,,,,
889471,001,2022-11-13_17h37.59.965,Info_measure_main_exp,2022.2.2,Win32,59.86948452,,,,,,,,,,,,,,,,,,masks/mask_004.jpg,,,,,,,,,,,,,,,,,,,,,,,,,,,,,,,,,,,,,,,,,,,,,,,,0,2,2,3,1,,,,,,,,,,,,,,,,,,,,,,,,,,,,,,,,,,,,,,,,,
889471,001,2022-11-13_17h37.59.965,Info_measure_main_exp,2022.2.2,Win32,59.86948452,,,,,,,,,,,,,,,,,,masks/mask_002.jpg,,,,,,,,,,,,,,,,,,,,,,,,,,,,,,,,,,,,,,,,,,,,,,,,0,3,3,1,1,,,,,,,,,,,,,,,,,,,,,,,,,,,,,,,,,,,,,,,,,
889471,001,2022-11-13_17h37.59.965,Info_measure_main_exp,2022.2.2,Win32,59.86948452,,,,,,,,,,,,,,,,,,masks/mask_005.jpg,,,,,,,,,,,,,,,,,,,,,,,,,,,,,,,,,,,,,,,,,,,,,,,,0,4,4,4,1,,,,,,,,,,,,,,,,,,,,,,,,,,,,,,,,,,,,,,,,,
889471,001,2022-11-13_17h37.59.965,Info_measure_main_exp,2022.2.2,Win32,59.86948452,,,,,,,,,,,,,,,,,,,,,,,,,,,,,,0,0.7001,1,,,,,,,,,,,,0,131,5,5,2238,2238,absent_patch/patch0002238.jpg,absent_patch/patch0002238.jpg,,,,,,,,,,,,,,,,,,,,-0.043055556,0.126388889,1,0,0,response7disk,27,0,0.008333333,1,0,0,center_square,0,26,26,58,1,,,,,,,,,,,,,,,,,,,,,,,
889471,001,2022-11-13_17h37.59.965,Info_measure_main_exp,2022.2.2,Win32,59.86948452,,,,,,,,,,,,,,,,,,masks/mask_002.jpg,,,,,,,,,,,,,,,,,,,,,,,,,,,,,,,,,,,,,,,,,,,0,0,0,1,1,,,,,,,,,,,,,,,,,,,,,,,,,,,,,,,,,,,,,,,,,,,,,,
889471,001,2022-11-13_17h37.59.965,Info_measure_main_exp,2022.2.2,Win32,59.86948452,,,,,,,,,,,,,,,,,,masks/mask_005.jpg,,,,,,,,,,,,,,,,,,,,,,,,,,,,,,,,,,,,,,,,,,,0,1,1,4,1,,,,,,,,,,,,,,,,,,,,,,,,,,,,,,,,,,,,,,,,,,,,,,
889471,001,2022-11-13_17h37.59.965,Info_measure_main_exp,2022.2.2,Win32,59.86948452,,,,,,,,,,,,,,,,,,masks/mask_003.jpg,,,,,,,,,,,,,,,,,,,,,,,,,,,,,,,,,,,,,,,,,,,0,2,2,2,1,,,,,,,,,,,,,,,,,,,,,,,,,,,,,,,,,,,,,,,,,,,,,,
889471,001,2022-11-13_17h37.59.965,Info_measure_main_exp,2022.2.2,Win32,59.86948452,,,,,,,,,,,,,,,,,,masks/mask_001.jpg,,,,,,,,,,,,,,,,,,,,,,,,,,,,,,,,,,,,,,,,,,,0,3,3,0,1,,,,,,,,,,,,,,,,,,,,,,,,,,,,,,,,,,,,,,,,,,,,,,
889471,001,2022-11-13_17h37.59.965,Info_measure_main_exp,2022.2.2,Win32,59.86948452,,,,,,,,,,,,,,,,,,masks/mask_004.jpg,,,,,,,,,,,,,,,,,,,,,,,,,,,,,,,,,,,,,,,,,,,0,4,4,3,1,,,,,,,,,,,,,,,,,,,,,,,,,,,,,,,,,,,,,,,,,,,,,,
889471,001,2022-11-13_17h37.59.965,Info_measure_main_exp,2022.2.2,Win32,59.86948452,,,,,,,,,,,,,,,,,,masks/mask_005.jpg,,,,,,,,,,,,,,,,,,,,,,,,,,,,,,,,,,,,,,,,,,,,,,,,0,0,0,4,1,,,,,,,,,,,,,,,,,,,,,,,,,,,,,,,,,,,,,,,,,
889471,001,2022-11-13_17h37.59.965,Info_measure_main_exp,2022.2.2,Win32,59.86948452,,,,,,,,,,,,,,,,,,masks/mask_004.jpg,,,,,,,,,,,,,,,,,,,,,,,,,,,,,,,,,,,,,,,,,,,,,,,,0,1,1,3,1,,,,,,,,,,,,,,,,,,,,,,,,,,,,,,,,,,,,,,,,,
889471,001,2022-11-13_17h37.59.965,Info_measure_main_exp,2022.2.2,Win32,59.86948452,,,,,,,,,,,,,,,,,,masks/mask_001.jpg,,,,,,,,,,,,,,,,,,,,,,,,,,,,,,,,,,,,,,,,,,,,,,,,0,2,2,0,1,,,,,,,,,,,,,,,,,,,,,,,,,,,,,,,,,,,,,,,,,
889471,001,2022-11-13_17h37.59.965,Info_measure_main_exp,2022.2.2,Win32,59.86948452,,,,,,,,,,,,,,,,,,masks/mask_003.jpg,,,,,,,,,,,,,,,,,,,,,,,,,,,,,,,,,,,,,,,,,,,,,,,,0,3,3,2,1,,,,,,,,,,,,,,,,,,,,,,,,,,,,,,,,,,,,,,,,,
889471,001,2022-11-13_17h37.59.965,Info_measure_main_exp,2022.2.2,Win32,59.86948452,,,,,,,,,,,,,,,,,,masks/mask_002.jpg,,,,,,,,,,,,,,,,,,,,,,,,,,,,,,,,,,,,,,,,,,,,,,,,0,4,4,1,1,,,,,,,,,,,,,,,,,,,,,,,,,,,,,,,,,,,,,,,,,
889471,001,2022-11-13_17h37.59.965,Info_measure_main_exp,2022.2.2,Win32,59.86948452,,,,,,,,,,,,,,,,,,,,,,,,,,,,,,0,0.7054,1,,,,,,,,,,,,0,131,5,5,2250,2250,absent_patch/patch0002250.jpg,absent_patch/patch0002250.jpg,,,,,,,,,,,,,,,,,,,,-0.043055556,0.126388889,1,0,0,response7disk,28,0.008333333,0.005555556,1,0,0,center_square,0,27,27,56,1,,,,,,,,,,,,,,,,,,,,,,,
889471,001,2022-11-13_17h37.59.965,Info_measure_main_exp,2022.2.2,Win32,59.86948452,,,,,,,,,,,,,,,,,,masks/mask_003.jpg,,,,,,,,,,,,,,,,,,,,,,,,,,,,,,,,,,,,,,,,,,,0,0,0,2,1,,,,,,,,,,,,,,,,,,,,,,,,,,,,,,,,,,,,,,,,,,,,,,
889471,001,2022-11-13_17h37.59.965,Info_measure_main_exp,2022.2.2,Win32,59.86948452,,,,,,,,,,,,,,,,,,masks/mask_001.jpg,,,,,,,,,,,,,,,,,,,,,,,,,,,,,,,,,,,,,,,,,,,0,1,1,0,1,,,,,,,,,,,,,,,,,,,,,,,,,,,,,,,,,,,,,,,,,,,,,,
889471,001,2022-11-13_17h37.59.965,Info_measure_main_exp,2022.2.2,Win32,59.86948452,,,,,,,,,,,,,,,,,,masks/mask_005.jpg,,,,,,,,,,,,,,,,,,,,,,,,,,,,,,,,,,,,,,,,,,,0,2,2,4,1,,,,,,,,,,,,,,,,,,,,,,,,,,,,,,,,,,,,,,,,,,,,,,
889471,001,2022-11-13_17h37.59.965,Info_measure_main_exp,2022.2.2,Win32,59.86948452,,,,,,,,,,,,,,,,,,masks/mask_004.jpg,,,,,,,,,,,,,,,,,,,,,,,,,,,,,,,,,,,,,,,,,,,0,3,3,3,1,,,,,,,,,,,,,,,,,,,,,,,,,,,,,,,,,,,,,,,,,,,,,,
889471,001,2022-11-13_17h37.59.965,Info_measure_main_exp,2022.2.2,Win32,59.86948452,,,,,,,,,,,,,,,,,,masks/mask_002.jpg,,,,,,,,,,,,,,,,,,,,,,,,,,,,,,,,,,,,,,,,,,,0,4,4,1,1,,,,,,,,,,,,,,,,,,,,,,,,,,,,,,,,,,,,,,,,,,,,,,
889471,001,2022-11-13_17h37.59.965,Info_measure_main_exp,2022.2.2,Win32,59.86948452,,,,,,,,,,,,,,,,,,masks/mask_004.jpg,,,,,,,,,,,,,,,,,,,,,,,,,,,,,,,,,,,,,,,,,,,,,,,,0,0,0,3,1,,,,,,,,,,,,,,,,,,,,,,,,,,,,,,,,,,,,,,,,,
889471,001,2022-11-13_17h37.59.965,Info_measure_main_exp,2022.2.2,Win32,59.86948452,,,,,,,,,,,,,,,,,,masks/mask_001.jpg,,,,,,,,,,,,,,,,,,,,,,,,,,,,,,,,,,,,,,,,,,,,,,,,0,1,1,0,1,,,,,,,,,,,,,,,,,,,,,,,,,,,,,,,,,,,,,,,,,
889471,001,2022-11-13_17h37.59.965,Info_measure_main_exp,2022.2.2,Win32,59.86948452,,,,,,,,,,,,,,,,,,masks/mask_002.jpg,,,,,,,,,,,,,,,,,,,,,,,,,,,,,,,,,,,,,,,,,,,,,,,,0,2,2,1,1,,,,,,,,,,,,,,,,,,,,,,,,,,,,,,,,,,,,,,,,,
889471,001,2022-11-13_17h37.59.965,Info_measure_main_exp,2022.2.2,Win32,59.86948452,,,,,,,,,,,,,,,,,,masks/mask_003.jpg,,,,,,,,,,,,,,,,,,,,,,,,,,,,,,,,,,,,,,,,,,,,,,,,0,3,3,2,1,,,,,,,,,,,,,,,,,,,,,,,,,,,,,,,,,,,,,,,,,
889471,001,2022-11-13_17h37.59.965,Info_measure_main_exp,2022.2.2,Win32,59.86948452,,,,,,,,,,,,,,,,,,masks/mask_005.jpg,,,,,,,,,,,,,,,,,,,,,,,,,,,,,,,,,,,,,,,,,,,,,,,,0,4,4,4,1,,,,,,,,,,,,,,,,,,,,,,,,,,,,,,,,,,,,,,,,,
889471,001,2022-11-13_17h37.59.965,Info_measure_main_exp,2022.2.2,Win32,59.86948452,,,,,,,,,,,,,,,,,,,,,,,,,,,,,,3,1.2831,1,,,,,,,,,,,,0,131,5,5,2154,2238,absent_patch/patch0002154.jpg,absent_patch/patch0002238.jpg,,,,,,,,,,,,,,,,,,,,-0.077777778,-0.125,1,0,0,response5disk,29,-0.001388889,0,1,0,0,center_square,0,28,28,21,1,,,,,,,,,,,,,,,,,,,,,,,
889471,001,2022-11-13_17h37.59.965,Info_measure_main_exp,2022.2.2,Win32,59.86948452,,,,,,,,,,,,,,,,,,masks/mask_001.jpg,,,,,,,,,,,,,,,,,,,,,,,,,,,,,,,,,,,,,,,,,,,0,0,0,0,1,,,,,,,,,,,,,,,,,,,,,,,,,,,,,,,,,,,,,,,,,,,,,,
889471,001,2022-11-13_17h37.59.965,Info_measure_main_exp,2022.2.2,Win32,59.86948452,,,,,,,,,,,,,,,,,,masks/mask_003.jpg,,,,,,,,,,,,,,,,,,,,,,,,,,,,,,,,,,,,,,,,,,,0,1,1,2,1,,,,,,,,,,,,,,,,,,,,,,,,,,,,,,,,,,,,,,,,,,,,,,
889471,001,2022-11-13_17h37.59.965,Info_measure_main_exp,2022.2.2,Win32,59.86948452,,,,,,,,,,,,,,,,,,masks/mask_004.jpg,,,,,,,,,,,,,,,,,,,,,,,,,,,,,,,,,,,,,,,,,,,0,2,2,3,1,,,,,,,,,,,,,,,,,,,,,,,,,,,,,,,,,,,,,,,,,,,,,,
889471,001,2022-11-13_17h37.59.965,Info_measure_main_exp,2022.2.2,Win32,59.86948452,,,,,,,,,,,,,,,,,,masks/mask_005.jpg,,,,,,,,,,,,,,,,,,,,,,,,,,,,,,,,,,,,,,,,,,,0,3,3,4,1,,,,,,,,,,,,,,,,,,,,,,,,,,,,,,,,,,,,,,,,,,,,,,
889471,001,2022-11-13_17h37.59.965,Info_measure_main_exp,2022.2.2,Win32,59.86948452,,,,,,,,,,,,,,,,,,masks/mask_002.jpg,,,,,,,,,,,,,,,,,,,,,,,,,,,,,,,,,,,,,,,,,,,0,4,4,1,1,,,,,,,,,,,,,,,,,,,,,,,,,,,,,,,,,,,,,,,,,,,,,,
889471,001,2022-11-13_17h37.59.965,Info_measure_main_exp,2022.2.2,Win32,59.86948452,,,,,,,,,,,,,,,,,,masks/mask_002.jpg,,,,,,,,,,,,,,,,,,,,,,,,,,,,,,,,,,,,,,,,,,,,,,,,0,0,0,1,1,,,,,,,,,,,,,,,,,,,,,,,,,,,,,,,,,,,,,,,,,
889471,001,2022-11-13_17h37.59.965,Info_measure_main_exp,2022.2.2,Win32,59.86948452,,,,,,,,,,,,,,,,,,masks/mask_004.jpg,,,,,,,,,,,,,,,,,,,,,,,,,,,,,,,,,,,,,,,,,,,,,,,,0,1,1,3,1,,,,,,,,,,,,,,,,,,,,,,,,,,,,,,,,,,,,,,,,,
889471,001,2022-11-13_17h37.59.965,Info_measure_main_exp,2022.2.2,Win32,59.86948452,,,,,,,,,,,,,,,,,,masks/mask_005.jpg,,,,,,,,,,,,,,,,,,,,,,,,,,,,,,,,,,,,,,,,,,,,,,,,0,2,2,4,1,,,,,,,,,,,,,,,,,,,,,,,,,,,,,,,,,,,,,,,,,
889471,001,2022-11-13_17h37.59.965,Info_measure_main_exp,2022.2.2,Win32,59.86948452,,,,,,,,,,,,,,,,,,masks/mask_001.jpg,,,,,,,,,,,,,,,,,,,,,,,,,,,,,,,,,,,,,,,,,,,,,,,,0,3,3,0,1,,,,,,,,,,,,,,,,,,,,,,,,,,,,,,,,,,,,,,,,,
889471,001,2022-11-13_17h37.59.965,Info_measure_main_exp,2022.2.2,Win32,59.86948452,,,,,,,,,,,,,,,,,,masks/mask_003.jpg,,,,,,,,,,,,,,,,,,,,,,,,,,,,,,,,,,,,,,,,,,,,,,,,0,4,4,2,1,,,,,,,,,,,,,,,,,,,,,,,,,,,,,,,,,,,,,,,,,
889471,001,2022-11-13_17h37.59.965,Info_measure_main_exp,2022.2.2,Win32,59.86948452,,,,,,,,,,,,,,,,,,,,,,,,,,,,,,4,1.8846,1,,,,,,,,,,,,1,131,5,5,1,1986,present_patch/cong_131_5_a.jpg,absent_patch/patch0001986.jpg,,,,,,,,,,,,,,,,,,,,0.034722222,-0.145833333,1,0,0,response3disk,30,-0.004166667,-0.004166667,1,0,0,center_square,0,29,29,106,1,,,,,,,,,,,,,,,,,,,,,,,
889471,001,2022-11-13_17h37.59.965,Info_measure_main_exp,2022.2.2,Win32,59.86948452,,,,,,,,,,,,,,,,,,masks/mask_004.jpg,,,,,,,,,,,,,,,,,,,,,,,,,,,,,,,,,,,,,,,,,,,0,0,0,3,1,,,,,,,,,,,,,,,,,,,,,,,,,,,,,,,,,,,,,,,,,,,,,,
889471,001,2022-11-13_17h37.59.965,Info_measure_main_exp,2022.2.2,Win32,59.86948452,,,,,,,,,,,,,,,,,,masks/mask_002.jpg,,,,,,,,,,,,,,,,,,,,,,,,,,,,,,,,,,,,,,,,,,,0,1,1,1,1,,,,,,,,,,,,,,,,,,,,,,,,,,,,,,,,,,,,,,,,,,,,,,
889471,001,2022-11-13_17h37.59.965,Info_measure_main_exp,2022.2.2,Win32,59.86948452,,,,,,,,,,,,,,,,,,masks/mask_005.jpg,,,,,,,,,,,,,,,,,,,,,,,,,,,,,,,,,,,,,,,,,,,0,2,2,4,1,,,,,,,,,,,,,,,,,,,,,,,,,,,,,,,,,,,,,,,,,,,,,,
889471,001,2022-11-13_17h37.59.965,Info_measure_main_exp,2022.2.2,Win32,59.86948452,,,,,,,,,,,,,,,,,,masks/mask_001.jpg,,,,,,,,,,,,,,,,,,,,,,,,,,,,,,,,,,,,,,,,,,,0,3,3,0,1,,,,,,,,,,,,,,,,,,,,,,,,,,,,,,,,,,,,,,,,,,,,,,
889471,001,2022-11-13_17h37.59.965,Info_measure_main_exp,2022.2.2,Win32,59.86948452,,,,,,,,,,,,,,,,,,masks/mask_003.jpg,,,,,,,,,,,,,,,,,,,,,,,,,,,,,,,,,,,,,,,,,,,0,4,4,2,1,,,,,,,,,,,,,,,,,,,,,,,,,,,,,,,,,,,,,,,,,,,,,,
889471,001,2022-11-13_17h37.59.965,Info_measure_main_exp,2022.2.2,Win32,59.86948452,,,,,,,,,,,,,,,,,,masks/mask_004.jpg,,,,,,,,,,,,,,,,,,,,,,,,,,,,,,,,,,,,,,,,,,,,,,,,0,0,0,3,1,,,,,,,,,,,,,,,,,,,,,,,,,,,,,,,,,,,,,,,,,
889471,001,2022-11-13_17h37.59.965,Info_measure_main_exp,2022.2.2,Win32,59.86948452,,,,,,,,,,,,,,,,,,masks/mask_005.jpg,,,,,,,,,,,,,,,,,,,,,,,,,,,,,,,,,,,,,,,,,,,,,,,,0,1,1,4,1,,,,,,,,,,,,,,,,,,,,,,,,,,,,,,,,,,,,,,,,,
889471,001,2022-11-13_17h37.59.965,Info_measure_main_exp,2022.2.2,Win32,59.86948452,,,,,,,,,,,,,,,,,,masks/mask_003.jpg,,,,,,,,,,,,,,,,,,,,,,,,,,,,,,,,,,,,,,,,,,,,,,,,0,2,2,2,1,,,,,,,,,,,,,,,,,,,,,,,,,,,,,,,,,,,,,,,,,
889471,001,2022-11-13_17h37.59.965,Info_measure_main_exp,2022.2.2,Win32,59.86948452,,,,,,,,,,,,,,,,,,masks/mask_001.jpg,,,,,,,,,,,,,,,,,,,,,,,,,,,,,,,,,,,,,,,,,,,,,,,,0,3,3,0,1,,,,,,,,,,,,,,,,,,,,,,,,,,,,,,,,,,,,,,,,,
889471,001,2022-11-13_17h37.59.965,Info_measure_main_exp,2022.2.2,Win32,59.86948452,,,,,,,,,,,,,,,,,,masks/mask_002.jpg,,,,,,,,,,,,,,,,,,,,,,,,,,,,,,,,,,,,,,,,,,,,,,,,0,4,4,1,1,,,,,,,,,,,,,,,,,,,,,,,,,,,,,,,,,,,,,,,,,
889471,001,2022-11-13_17h37.59.965,Info_measure_main_exp,2022.2.2,Win32,59.86948452,,,,,,,,,,,,,,,,,,,,,,,,,,,,,,6,1.1529,1,,,,,,,,,,,,0,131,5,5,2274,2250,absent_patch/patch0002274.jpg,absent_patch/patch0002250.jpg,,,,,,,,,,,,,,,,,,,,0.156944444,0.027777778,1,0,0,response1disk,31,0,0.008333333,1,0,0,center_square,0,30,30,28,1,,,,,,,,,,,,,,,,,,,,,,,
889471,001,2022-11-13_17h37.59.965,Info_measure_main_exp,2022.2.2,Win32,59.86948452,,,,,,,,,,,,,,,,,,masks/mask_001.jpg,,,,,,,,,,,,,,,,,,,,,,,,,,,,,,,,,,,,,,,,,,,0,0,0,0,1,,,,,,,,,,,,,,,,,,,,,,,,,,,,,,,,,,,,,,,,,,,,,,
889471,001,2022-11-13_17h37.59.965,Info_measure_main_exp,2022.2.2,Win32,59.86948452,,,,,,,,,,,,,,,,,,masks/mask_002.jpg,,,,,,,,,,,,,,,,,,,,,,,,,,,,,,,,,,,,,,,,,,,0,1,1,1,1,,,,,,,,,,,,,,,,,,,,,,,,,,,,,,,,,,,,,,,,,,,,,,
889471,001,2022-11-13_17h37.59.965,Info_measure_main_exp,2022.2.2,Win32,59.86948452,,,,,,,,,,,,,,,,,,masks/mask_005.jpg,,,,,,,,,,,,,,,,,,,,,,,,,,,,,,,,,,,,,,,,,,,0,2,2,4,1,,,,,,,,,,,,,,,,,,,,,,,,,,,,,,,,,,,,,,,,,,,,,,
889471,001,2022-11-13_17h37.59.965,Info_measure_main_exp,2022.2.2,Win32,59.86948452,,,,,,,,,,,,,,,,,,masks/mask_003.jpg,,,,,,,,,,,,,,,,,,,,,,,,,,,,,,,,,,,,,,,,,,,0,3,3,2,1,,,,,,,,,,,,,,,,,,,,,,,,,,,,,,,,,,,,,,,,,,,,,,
889471,001,2022-11-13_17h37.59.965,Info_measure_main_exp,2022.2.2,Win32,59.86948452,,,,,,,,,,,,,,,,,,masks/mask_004.jpg,,,,,,,,,,,,,,,,,,,,,,,,,,,,,,,,,,,,,,,,,,,0,4,4,3,1,,,,,,,,,,,,,,,,,,,,,,,,,,,,,,,,,,,,,,,,,,,,,,
889471,001,2022-11-13_17h37.59.965,Info_measure_main_exp,2022.2.2,Win32,59.86948452,,,,,,,,,,,,,,,,,,masks/mask_003.jpg,,,,,,,,,,,,,,,,,,,,,,,,,,,,,,,,,,,,,,,,,,,,,,,,0,0,0,2,1,,,,,,,,,,,,,,,,,,,,,,,,,,,,,,,,,,,,,,,,,
889471,001,2022-11-13_17h37.59.965,Info_measure_main_exp,2022.2.2,Win32,59.86948452,,,,,,,,,,,,,,,,,,masks/mask_005.jpg,,,,,,,,,,,,,,,,,,,,,,,,,,,,,,,,,,,,,,,,,,,,,,,,0,1,1,4,1,,,,,,,,,,,,,,,,,,,,,,,,,,,,,,,,,,,,,,,,,
889471,001,2022-11-13_17h37.59.965,Info_measure_main_exp,2022.2.2,Win32,59.86948452,,,,,,,,,,,,,,,,,,masks/mask_004.jpg,,,,,,,,,,,,,,,,,,,,,,,,,,,,,,,,,,,,,,,,,,,,,,,,0,2,2,3,1,,,,,,,,,,,,,,,,,,,,,,,,,,,,,,,,,,,,,,,,,
889471,001,2022-11-13_17h37.59.965,Info_measure_main_exp,2022.2.2,Win32,59.86948452,,,,,,,,,,,,,,,,,,masks/mask_002.jpg,,,,,,,,,,,,,,,,,,,,,,,,,,,,,,,,,,,,,,,,,,,,,,,,0,3,3,1,1,,,,,,,,,,,,,,,,,,,,,,,,,,,,,,,,,,,,,,,,,
889471,001,2022-11-13_17h37.59.965,Info_measure_main_exp,2022.2.2,Win32,59.86948452,,,,,,,,,,,,,,,,,,masks/mask_001.jpg,,,,,,,,,,,,,,,,,,,,,,,,,,,,,,,,,,,,,,,,,,,,,,,,0,4,4,0,1,,,,,,,,,,,,,,,,,,,,,,,,,,,,,,,,,,,,,,,,,
889471,001,2022-11-13_17h37.59.965,Info_measure_main_exp,2022.2.2,Win32,59.86948452,,,,,,,,,,,,,,,,,,,,,,,,,,,,,,5,1.3597,1,,,,,,,,,,,,0,131,5,5,2250,2178,absent_patch/patch0002250.jpg,absent_patch/patch0002178.jpg,,,,,,,,,,,,,,,,,,,,0.165277778,-0.0625,1,0,0,response3disk,32,0.005555556,0.002777778,1,0,0,center_square,0,31,31,48,1,,,,,,,,,,,,,,,,,,,,,,,
889471,001,2022-11-13_17h37.59.965,Info_measure_main_exp,2022.2.2,Win32,59.86948452,,,,,,,,,,,,,,,,,,masks/mask_004.jpg,,,,,,,,,,,,,,,,,,,,,,,,,,,,,,,,,,,,,,,,,,,0,0,0,3,1,,,,,,,,,,,,,,,,,,,,,,,,,,,,,,,,,,,,,,,,,,,,,,
889471,001,2022-11-13_17h37.59.965,Info_measure_main_exp,2022.2.2,Win32,59.86948452,,,,,,,,,,,,,,,,,,masks/mask_005.jpg,,,,,,,,,,,,,,,,,,,,,,,,,,,,,,,,,,,,,,,,,,,0,1,1,4,1,,,,,,,,,,,,,,,,,,,,,,,,,,,,,,,,,,,,,,,,,,,,,,
889471,001,2022-11-13_17h37.59.965,Info_measure_main_exp,2022.2.2,Win32,59.86948452,,,,,,,,,,,,,,,,,,masks/mask_002.jpg,,,,,,,,,,,,,,,,,,,,,,,,,,,,,,,,,,,,,,,,,,,0,2,2,1,1,,,,,,,,,,,,,,,,,,,,,,,,,,,,,,,,,,,,,,,,,,,,,,
889471,001,2022-11-13_17h37.59.965,Info_measure_main_exp,2022.2.2,Win32,59.86948452,,,,,,,,,,,,,,,,,,masks/mask_001.jpg,,,,,,,,,,,,,,,,,,,,,,,,,,,,,,,,,,,,,,,,,,,0,3,3,0,1,,,,,,,,,,,,,,,,,,,,,,,,,,,,,,,,,,,,,,,,,,,,,,
889471,001,2022-11-13_17h37.59.965,Info_measure_main_exp,2022.2.2,Win32,59.86948452,,,,,,,,,,,,,,,,,,masks/mask_003.jpg,,,,,,,,,,,,,,,,,,,,,,,,,,,,,,,,,,,,,,,,,,,0,4,4,2,1,,,,,,,,,,,,,,,,,,,,,,,,,,,,,,,,,,,,,,,,,,,,,,
889471,001,2022-11-13_17h37.59.965,Info_measure_main_exp,2022.2.2,Win32,59.86948452,,,,,,,,,,,,,,,,,,masks/mask_002.jpg,,,,,,,,,,,,,,,,,,,,,,,,,,,,,,,,,,,,,,,,,,,,,,,,0,0,0,1,1,,,,,,,,,,,,,,,,,,,,,,,,,,,,,,,,,,,,,,,,,
889471,001,2022-11-13_17h37.59.965,Info_measure_main_exp,2022.2.2,Win32,59.86948452,,,,,,,,,,,,,,,,,,masks/mask_001.jpg,,,,,,,,,,,,,,,,,,,,,,,,,,,,,,,,,,,,,,,,,,,,,,,,0,1,1,0,1,,,,,,,,,,,,,,,,,,,,,,,,,,,,,,,,,,,,,,,,,
889471,001,2022-11-13_17h37.59.965,Info_measure_main_exp,2022.2.2,Win32,59.86948452,,,,,,,,,,,,,,,,,,masks/mask_005.jpg,,,,,,,,,,,,,,,,,,,,,,,,,,,,,,,,,,,,,,,,,,,,,,,,0,2,2,4,1,,,,,,,,,,,,,,,,,,,,,,,,,,,,,,,,,,,,,,,,,
889471,001,2022-11-13_17h37.59.965,Info_measure_main_exp,2022.2.2,Win32,59.86948452,,,,,,,,,,,,,,,,,,masks/mask_003.jpg,,,,,,,,,,,,,,,,,,,,,,,,,,,,,,,,,,,,,,,,,,,,,,,,0,3,3,2,1,,,,,,,,,,,,,,,,,,,,,,,,,,,,,,,,,,,,,,,,,
889471,001,2022-11-13_17h37.59.965,Info_measure_main_exp,2022.2.2,Win32,59.86948452,,,,,,,,,,,,,,,,,,masks/mask_004.jpg,,,,,,,,,,,,,,,,,,,,,,,,,,,,,,,,,,,,,,,,,,,,,,,,0,4,4,3,1,,,,,,,,,,,,,,,,,,,,,,,,,,,,,,,,,,,,,,,,,
889471,001,2022-11-13_17h37.59.965,Info_measure_main_exp,2022.2.2,Win32,59.86948452,,,,,,,,,,,,,,,,,,,,,,,,,,,,,,4,2.8349,1,,,,,,,,,,,,0,131,5,5,2166,2154,absent_patch/patch0002166.jpg,absent_patch/patch0002154.jpg,,,,,,,,,,,,,,,,,,,,0.076388889,-0.1375,1,0,0,response3disk,33,0,0.009722222,1,0,0,center_square,0,32,32,79,1,,,,,,,,,,,,,,,,,,,,,,,
889471,001,2022-11-13_17h37.59.965,Info_measure_main_exp,2022.2.2,Win32,59.86948452,,,,,,,,,,,,,,,,,,masks/mask_003.jpg,,,,,,,,,,,,,,,,,,,,,,,,,,,,,,,,,,,,,,,,,,,0,0,0,2,1,,,,,,,,,,,,,,,,,,,,,,,,,,,,,,,,,,,,,,,,,,,,,,
889471,001,2022-11-13_17h37.59.965,Info_measure_main_exp,2022.2.2,Win32,59.86948452,,,,,,,,,,,,,,,,,,masks/mask_001.jpg,,,,,,,,,,,,,,,,,,,,,,,,,,,,,,,,,,,,,,,,,,,0,1,1,0,1,,,,,,,,,,,,,,,,,,,,,,,,,,,,,,,,,,,,,,,,,,,,,,
889471,001,2022-11-13_17h37.59.965,Info_measure_main_exp,2022.2.2,Win32,59.86948452,,,,,,,,,,,,,,,,,,masks/mask_002.jpg,,,,,,,,,,,,,,,,,,,,,,,,,,,,,,,,,,,,,,,,,,,0,2,2,1,1,,,,,,,,,,,,,,,,,,,,,,,,,,,,,,,,,,,,,,,,,,,,,,
889471,001,2022-11-13_17h37.59.965,Info_measure_main_exp,2022.2.2,Win32,59.86948452,,,,,,,,,,,,,,,,,,masks/mask_005.jpg,,,,,,,,,,,,,,,,,,,,,,,,,,,,,,,,,,,,,,,,,,,0,3,3,4,1,,,,,,,,,,,,,,,,,,,,,,,,,,,,,,,,,,,,,,,,,,,,,,
889471,001,2022-11-13_17h37.59.965,Info_measure_main_exp,2022.2.2,Win32,59.86948452,,,,,,,,,,,,,,,,,,masks/mask_004.jpg,,,,,,,,,,,,,,,,,,,,,,,,,,,,,,,,,,,,,,,,,,,0,4,4,3,1,,,,,,,,,,,,,,,,,,,,,,,,,,,,,,,,,,,,,,,,,,,,,,
889471,001,2022-11-13_17h37.59.965,Info_measure_main_exp,2022.2.2,Win32,59.86948452,,,,,,,,,,,,,,,,,,masks/mask_005.jpg,,,,,,,,,,,,,,,,,,,,,,,,,,,,,,,,,,,,,,,,,,,,,,,,0,0,0,4,1,,,,,,,,,,,,,,,,,,,,,,,,,,,,,,,,,,,,,,,,,
889471,001,2022-11-13_17h37.59.965,Info_measure_main_exp,2022.2.2,Win32,59.86948452,,,,,,,,,,,,,,,,,,masks/mask_004.jpg,,,,,,,,,,,,,,,,,,,,,,,,,,,,,,,,,,,,,,,,,,,,,,,,0,1,1,3,1,,,,,,,,,,,,,,,,,,,,,,,,,,,,,,,,,,,,,,,,,
889471,001,2022-11-13_17h37.59.965,Info_measure_main_exp,2022.2.2,Win32,59.86948452,,,,,,,,,,,,,,,,,,masks/mask_001.jpg,,,,,,,,,,,,,,,,,,,,,,,,,,,,,,,,,,,,,,,,,,,,,,,,0,2,2,0,1,,,,,,,,,,,,,,,,,,,,,,,,,,,,,,,,,,,,,,,,,
889471,001,2022-11-13_17h37.59.965,Info_measure_main_exp,2022.2.2,Win32,59.86948452,,,,,,,,,,,,,,,,,,masks/mask_003.jpg,,,,,,,,,,,,,,,,,,,,,,,,,,,,,,,,,,,,,,,,,,,,,,,,0,3,3,2,1,,,,,,,,,,,,,,,,,,,,,,,,,,,,,,,,,,,,,,,,,
889471,001,2022-11-13_17h37.59.965,Info_measure_main_exp,2022.2.2,Win32,59.86948452,,,,,,,,,,,,,,,,,,masks/mask_002.jpg,,,,,,,,,,,,,,,,,,,,,,,,,,,,,,,,,,,,,,,,,,,,,,,,0,4,4,1,1,,,,,,,,,,,,,,,,,,,,,,,,,,,,,,,,,,,,,,,,,
889471,001,2022-11-13_17h37.59.965,Info_measure_main_exp,2022.2.2,Win32,59.86948452,,,,,,,,,,,,,,,,,,,,,,,,,,,,,,5,1.9364,1,,,,,,,,,,,,0,131,5,5,2274,2082,absent_patch/patch0002274.jpg,absent_patch/patch0002082.jpg,,,,,,,,,,,,,,,,,,,,0.179166667,-0.043055556,1,0,0,response3disk,34,0.004166667,0,1,0,0,center_square,0,33,33,100,1,,,,,,,,,,,,,,,,,,,,,,,
889471,001,2022-11-13_17h37.59.965,Info_measure_main_exp,2022.2.2,Win32,59.86948452,,,,,,,,,,,,,,,,,,masks/mask_002.jpg,,,,,,,,,,,,,,,,,,,,,,,,,,,,,,,,,,,,,,,,,,,0,0,0,1,1,,,,,,,,,,,,,,,,,,,,,,,,,,,,,,,,,,,,,,,,,,,,,,
889471,001,2022-11-13_17h37.59.965,Info_measure_main_exp,2022.2.2,Win32,59.86948452,,,,,,,,,,,,,,,,,,masks/mask_003.jpg,,,,,,,,,,,,,,,,,,,,,,,,,,,,,,,,,,,,,,,,,,,0,1,1,2,1,,,,,,,,,,,,,,,,,,,,,,,,,,,,,,,,,,,,,,,,,,,,,,
889471,001,2022-11-13_17h37.59.965,Info_measure_main_exp,2022.2.2,Win32,59.86948452,,,,,,,,,,,,,,,,,,masks/mask_004.jpg,,,,,,,,,,,,,,,,,,,,,,,,,,,,,,,,,,,,,,,,,,,0,2,2,3,1,,,,,,,,,,,,,,,,,,,,,,,,,,,,,,,,,,,,,,,,,,,,,,
889471,001,2022-11-13_17h37.59.965,Info_measure_main_exp,2022.2.2,Win32,59.86948452,,,,,,,,,,,,,,,,,,masks/mask_001.jpg,,,,,,,,,,,,,,,,,,,,,,,,,,,,,,,,,,,,,,,,,,,0,3,3,0,1,,,,,,,,,,,,,,,,,,,,,,,,,,,,,,,,,,,,,,,,,,,,,,
889471,001,2022-11-13_17h37.59.965,Info_measure_main_exp,2022.2.2,Win32,59.86948452,,,,,,,,,,,,,,,,,,masks/mask_005.jpg,,,,,,,,,,,,,,,,,,,,,,,,,,,,,,,,,,,,,,,,,,,0,4,4,4,1,,,,,,,,,,,,,,,,,,,,,,,,,,,,,,,,,,,,,,,,,,,,,,
889471,001,2022-11-13_17h37.59.965,Info_measure_main_exp,2022.2.2,Win32,59.86948452,,,,,,,,,,,,,,,,,,masks/mask_003.jpg,,,,,,,,,,,,,,,,,,,,,,,,,,,,,,,,,,,,,,,,,,,,,,,,0,0,0,2,1,,,,,,,,,,,,,,,,,,,,,,,,,,,,,,,,,,,,,,,,,
889471,001,2022-11-13_17h37.59.965,Info_measure_main_exp,2022.2.2,Win32,59.86948452,,,,,,,,,,,,,,,,,,masks/mask_002.jpg,,,,,,,,,,,,,,,,,,,,,,,,,,,,,,,,,,,,,,,,,,,,,,,,0,1,1,1,1,,,,,,,,,,,,,,,,,,,,,,,,,,,,,,,,,,,,,,,,,
889471,001,2022-11-13_17h37.59.965,Info_measure_main_exp,2022.2.2,Win32,59.86948452,,,,,,,,,,,,,,,,,,masks/mask_005.jpg,,,,,,,,,,,,,,,,,,,,,,,,,,,,,,,,,,,,,,,,,,,,,,,,0,2,2,4,1,,,,,,,,,,,,,,,,,,,,,,,,,,,,,,,,,,,,,,,,,
889471,001,2022-11-13_17h37.59.965,Info_measure_main_exp,2022.2.2,Win32,59.86948452,,,,,,,,,,,,,,,,,,masks/mask_004.jpg,,,,,,,,,,,,,,,,,,,,,,,,,,,,,,,,,,,,,,,,,,,,,,,,0,3,3,3,1,,,,,,,,,,,,,,,,,,,,,,,,,,,,,,,,,,,,,,,,,
