participant,session,date,expName,psychopyVersion,OS,frameRate,space_press_continue.keys,space_press_continue.rt,space_press_continue_2.keys,space_press_continue_2.rt,space_press_continue_3.keys,space_press_continue_3.rt,space_press_continue_4.keys,space_press_continue_4.rt,space_press_continue_5.keys,space_press_continue_5.rt,space_press_continue_6.keys,space_press_continue_6.rt,prac_mask_loop_1.thisRepN,prac_mask_loop_1.thisTrialN,prac_mask_loop_1.thisN,prac_mask_loop_1.thisIndex,prac_mask_loop_1.ran,mask_name,prac_mask_loop_2.thisRepN,prac_mask_loop_2.thisTrialN,prac_mask_loop_2.thisN,prac_mask_loop_2.thisIndex,prac_mask_loop_2.ran,mouse_2.x,mouse_2.y,mouse_2.leftButton,mouse_2.midButton,mouse_2.rightButton,mouse_2.clicked_name,similarity,response_time,Pass,mouse_12.x,mouse_12.y,mouse_12.leftButton,mouse_12.midButton,mouse_12.rightButton,mouse_12.clicked_name,prac_loop.thisRepN,prac_loop.thisTrialN,prac_loop.thisN,prac_loop.thisIndex,prac_loop.ran,Pair_type,Image_num,Patch_1_loc,Patch_2_loc,Patch_1_info,Patch_2_info,Patch_1_name,Patch_2_name,mouse_1.x,mouse_1.y,mouse_1.leftButton,mouse_1.midButton,mouse_1.rightButton,mouse_1.time,mouse_1.clicked_name,space_press_continue_7.keys,space_press_continue_7.rt,mask_loop.thisRepN,mask_loop.thisTrialN,mask_loop.thisN,mask_loop.thisIndex,mask_loop.ran,mask_loop_2.thisRepN,mask_loop_2.thisTrialN,mask_loop_2.thisN,mask_loop_2.thisIndex,mask_loop_2.ran,mouse.x,mouse.y,mouse.leftButton,mouse.midButton,mouse.rightButton,mouse.clicked_name,trialNumber,mouse_11.x,mouse_11.y,mouse_11.leftButton,mouse_11.midButton,mouse_11.rightButton,mouse_11.clicked_name,first_pass_loop.thisRepN,first_pass_loop.thisTrialN,first_pass_loop.thisN,first_pass_loop.thisIndex,first_pass_loop.ran,mask_loop_3.thisRepN,mask_loop_3.thisTrialN,mask_loop_3.thisN,mask_loop_3.thisIndex,mask_loop_3.ran,mask_loop_4.thisRepN,mask_loop_4.thisTrialN,mask_loop_4.thisN,mask_loop_4.thisIndex,mask_loop_4.ran,mouse_3.x,mouse_3.y,mouse_3.leftButton,mouse_3.midButton,mouse_3.rightButton,mouse_3.clicked_name,double_pass_loop.thisRepN,double_pass_loop.thisTrialN,double_pass_loop.thisN,double_pass_loop.thisIndex,double_pass_loop.ran,space_exit.keys,space_exit.rt
934579,001,2022-11-14_24h26.25.492,Info_measure_main_exp,2022.2.2,Win32,60.24459305,,,,,,,,,,,,,,,,,,,,,,,,,,,,,,,,,,,,,,,,,,,,,,,,,,,,,,,,,,,,,,,,,,,,,,,,,,,,,,,,,,,,,,,,,,,,,,,,,,,,,,,,,,,,,,,
934579,001,2022-11-14_24h26.25.492,Info_measure_main_exp,2022.2.2,Win32,60.24459305,,,,,,,,,,,,,,,,,,,,,,,,,,,,,,,,,,,,,,,,,,,,,,,,,,,,,,,,,,,,,,,,,,,,,,,,,,,,,,,,,,,,,,,,,,,,,,,,,,,,,,,,,,,,,,,
934579,001,2022-11-14_24h26.25.492,Info_measure_main_exp,2022.2.2,Win32,60.24459305,space,35.1144,,,,,,,,,,,,,,,,,,,,,,,,,,,,,,,,,,,,,,,,,,,,,,,,,,,,,,,,,,,,,,,,,,,,,,,,,,,,,,,,,,,,,,,,,,,,,,,,,,,,,,,,,,,,,
934579,001,2022-11-14_24h26.25.492,Info_measure_main_exp,2022.2.2,Win32,60.24459305,,,space,13.5015,,,,,,,,,,,,,,,,,,,,,,,,,,,,,,,,,,,,,,,,,,,,,,,,,,,,,,,,,,,,,,,,,,,,,,,,,,,,,,,,,,,,,,,,,,,,,,,,,,,,,,,,,,,
934579,001,2022-11-14_24h26.25.492,Info_measure_main_exp,2022.2.2,Win32,60.24459305,,,,,space,6.0682,,,,,,,,,,,,,,,,,,,,,,,,,,,,,,,,,,,,,,,,,,,,,,,,,,,,,,,,,,,,,,,,,,,,,,,,,,,,,,,,,,,,,,,,,,,,,,,,,,,,,,,,,
934579,001,2022-11-14_24h26.25.492,Info_measure_main_exp,2022.2.2,Win32,60.24459305,,,,,,,space,33.3573,,,,,,,,,,,,,,,,,,,,,,,,,,,,,,,,,,,,,,,,,,,,,,,,,,,,,,,,,,,,,,,,,,,,,,,,,,,,,,,,,,,,,,,,,,,,,,,,,,,,,,,
934579,001,2022-11-14_24h26.25.492,Info_measure_main_exp,2022.2.2,Win32,60.24459305,,,,,,,,,space,14.2681,,,,,,,,,,,,,,,,,,,,,,,,,,,,,,,,,,,,,,,,,,,,,,,,,,,,,,,,,,,,,,,,,,,,,,,,,,,,,,,,,,,,,,,,,,,,,,,,,,,,,
934579,001,2022-11-14_24h26.25.492,Info_measure_main_exp,2022.2.2,Win32,60.24459305,,,,,,,,,,,space,4.426,,,,,,,,,,,,,,,,,,,,,,,,,,,,,,,,,,,,,,,,,,,,,,,,,,,,,,,,,,,,,,,,,,,,,,,,,,,,,,,,,,,,,,,,,,,,,,,,,,,
934579,001,2022-11-14_24h26.25.492,Info_measure_main_exp,2022.2.2,Win32,60.24459305,,,,,,,,,,,,,0,0,0,1,1,masks/mask_002.jpg,,,,,,,,,,,,,,,,,,,,,,,,,,,,,,,,,,,,,,,,,,,,,,,,,,,,,,,,,,,,,,,,,,,,,,,,,,,,,,,,,,,,,,,,,,,,,
934579,001,2022-11-14_24h26.25.492,Info_measure_main_exp,2022.2.2,Win32,60.24459305,,,,,,,,,,,,,0,1,1,2,1,masks/mask_003.jpg,,,,,,,,,,,,,,,,,,,,,,,,,,,,,,,,,,,,,,,,,,,,,,,,,,,,,,,,,,,,,,,,,,,,,,,,,,,,,,,,,,,,,,,,,,,,,
934579,001,2022-11-14_24h26.25.492,Info_measure_main_exp,2022.2.2,Win32,60.24459305,,,,,,,,,,,,,0,2,2,0,1,masks/mask_001.jpg,,,,,,,,,,,,,,,,,,,,,,,,,,,,,,,,,,,,,,,,,,,,,,,,,,,,,,,,,,,,,,,,,,,,,,,,,,,,,,,,,,,,,,,,,,,,,
934579,001,2022-11-14_24h26.25.492,Info_measure_main_exp,2022.2.2,Win32,60.24459305,,,,,,,,,,,,,0,3,3,4,1,masks/mask_005.jpg,,,,,,,,,,,,,,,,,,,,,,,,,,,,,,,,,,,,,,,,,,,,,,,,,,,,,,,,,,,,,,,,,,,,,,,,,,,,,,,,,,,,,,,,,,,,,
934579,001,2022-11-14_24h26.25.492,Info_measure_main_exp,2022.2.2,Win32,60.24459305,,,,,,,,,,,,,0,4,4,3,1,masks/mask_004.jpg,,,,,,,,,,,,,,,,,,,,,,,,,,,,,,,,,,,,,,,,,,,,,,,,,,,,,,,,,,,,,,,,,,,,,,,,,,,,,,,,,,,,,,,,,,,,,
934579,001,2022-11-14_24h26.25.492,Info_measure_main_exp,2022.2.2,Win32,60.24459305,,,,,,,,,,,,,,,,,,masks/mask_004.jpg,0,0,0,3,1,,,,,,,,,,,,,,,,,,,,,,,,,,,,,,,,,,,,,,,,,,,,,,,,,,,,,,,,,,,,,,,,,,,,,,,,,,,,,,,,,,,,,,,,
934579,001,2022-11-14_24h26.25.492,Info_measure_main_exp,2022.2.2,Win32,60.24459305,,,,,,,,,,,,,,,,,,masks/mask_005.jpg,0,1,1,4,1,,,,,,,,,,,,,,,,,,,,,,,,,,,,,,,,,,,,,,,,,,,,,,,,,,,,,,,,,,,,,,,,,,,,,,,,,,,,,,,,,,,,,,,,
934579,001,2022-11-14_24h26.25.492,Info_measure_main_exp,2022.2.2,Win32,60.24459305,,,,,,,,,,,,,,,,,,masks/mask_001.jpg,0,2,2,0,1,,,,,,,,,,,,,,,,,,,,,,,,,,,,,,,,,,,,,,,,,,,,,,,,,,,,,,,,,,,,,,,,,,,,,,,,,,,,,,,,,,,,,,,,
934579,001,2022-11-14_24h26.25.492,Info_measure_main_exp,2022.2.2,Win32,60.24459305,,,,,,,,,,,,,,,,,,masks/mask_003.jpg,0,3,3,2,1,,,,,,,,,,,,,,,,,,,,,,,,,,,,,,,,,,,,,,,,,,,,,,,,,,,,,,,,,,,,,,,,,,,,,,,,,,,,,,,,,,,,,,,,
934579,001,2022-11-14_24h26.25.492,Info_measure_main_exp,2022.2.2,Win32,60.24459305,,,,,,,,,,,,,,,,,,masks/mask_002.jpg,0,4,4,1,1,,,,,,,,,,,,,,,,,,,,,,,,,,,,,,,,,,,,,,,,,,,,,,,,,,,,,,,,,,,,,,,,,,,,,,,,,,,,,,,,,,,,,,,,
934579,001,2022-11-14_24h26.25.492,Info_measure_main_exp,2022.2.2,Win32,60.24459305,,,,,,,,,,,,,,,,,,,,,,,,-0.04814812,0.106481481,1,0,0,response7disk,0,114.7458,1,-0.007407365,-0.001851859,1,0,0,center_square,0,0,0,2,1,0,131,5,5,2526,2526,prac_patch/patch0002526.jpg,prac_patch/patch0002526.jpg,,,,,,,,,,,,,,,,,,,,,,,,,,,,,,,,,,,,,,,,,,,,,,,,,,,,,,,,,,,,
934579,001,2022-11-14_24h26.25.492,Info_measure_main_exp,2022.2.2,Win32,60.24459305,,,,,,,,,,,,,0,0,0,3,1,masks/mask_004.jpg,,,,,,,,,,,,,,,,,,,,,,,,,,,,,,,,,,,,,,,,,,,,,,,,,,,,,,,,,,,,,,,,,,,,,,,,,,,,,,,,,,,,,,,,,,,,,
934579,001,2022-11-14_24h26.25.492,Info_measure_main_exp,2022.2.2,Win32,60.24459305,,,,,,,,,,,,,0,1,1,1,1,masks/mask_002.jpg,,,,,,,,,,,,,,,,,,,,,,,,,,,,,,,,,,,,,,,,,,,,,,,,,,,,,,,,,,,,,,,,,,,,,,,,,,,,,,,,,,,,,,,,,,,,,
934579,001,2022-11-14_24h26.25.492,Info_measure_main_exp,2022.2.2,Win32,60.24459305,,,,,,,,,,,,,0,2,2,0,1,masks/mask_001.jpg,,,,,,,,,,,,,,,,,,,,,,,,,,,,,,,,,,,,,,,,,,,,,,,,,,,,,,,,,,,,,,,,,,,,,,,,,,,,,,,,,,,,,,,,,,,,,
934579,001,2022-11-14_24h26.25.492,Info_measure_main_exp,2022.2.2,Win32,60.24459305,,,,,,,,,,,,,0,3,3,2,1,masks/mask_003.jpg,,,,,,,,,,,,,,,,,,,,,,,,,,,,,,,,,,,,,,,,,,,,,,,,,,,,,,,,,,,,,,,,,,,,,,,,,,,,,,,,,,,,,,,,,,,,,
934579,001,2022-11-14_24h26.25.492,Info_measure_main_exp,2022.2.2,Win32,60.24459305,,,,,,,,,,,,,0,4,4,4,1,masks/mask_005.jpg,,,,,,,,,,,,,,,,,,,,,,,,,,,,,,,,,,,,,,,,,,,,,,,,,,,,,,,,,,,,,,,,,,,,,,,,,,,,,,,,,,,,,,,,,,,,,
934579,001,2022-11-14_24h26.25.492,Info_measure_main_exp,2022.2.2,Win32,60.24459305,,,,,,,,,,,,,,,,,,masks/mask_003.jpg,0,0,0,2,1,,,,,,,,,,,,,,,,,,,,,,,,,,,,,,,,,,,,,,,,,,,,,,,,,,,,,,,,,,,,,,,,,,,,,,,,,,,,,,,,,,,,,,,,
934579,001,2022-11-14_24h26.25.492,Info_measure_main_exp,2022.2.2,Win32,60.24459305,,,,,,,,,,,,,,,,,,masks/mask_005.jpg,0,1,1,4,1,,,,,,,,,,,,,,,,,,,,,,,,,,,,,,,,,,,,,,,,,,,,,,,,,,,,,,,,,,,,,,,,,,,,,,,,,,,,,,,,,,,,,,,,
934579,001,2022-11-14_24h26.25.492,Info_measure_main_exp,2022.2.2,Win32,60.24459305,,,,,,,,,,,,,,,,,,masks/mask_001.jpg,0,2,2,0,1,,,,,,,,,,,,,,,,,,,,,,,,,,,,,,,,,,,,,,,,,,,,,,,,,,,,,,,,,,,,,,,,,,,,,,,,,,,,,,,,,,,,,,,,
934579,001,2022-11-14_24h26.25.492,Info_measure_main_exp,2022.2.2,Win32,60.24459305,,,,,,,,,,,,,,,,,,masks/mask_004.jpg,0,3,3,3,1,,,,,,,,,,,,,,,,,,,,,,,,,,,,,,,,,,,,,,,,,,,,,,,,,,,,,,,,,,,,,,,,,,,,,,,,,,,,,,,,,,,,,,,,
934579,001,2022-11-14_24h26.25.492,Info_measure_main_exp,2022.2.2,Win32,60.24459305,,,,,,,,,,,,,,,,,,masks/mask_002.jpg,0,4,4,1,1,,,,,,,,,,,,,,,,,,,,,,,,,,,,,,,,,,,,,,,,,,,,,,,,,,,,,,,,,,,,,,,,,,,,,,,,,,,,,,,,,,,,,,,,
934579,001,2022-11-14_24h26.25.492,Info_measure_main_exp,2022.2.2,Win32,60.24459305,,,,,,,,,,,,,,,,,,,,,,,,0.042592578,0.100925905,1,0,0,response1disk,7,130.5356,1,-0.007407365,-0.003703718,1,0,0,center_square,0,1,1,0,1,0,131,5,5,2370,2406,prac_patch/patch0002370.jpg,prac_patch/patch0002406.jpg,,,,,,,,,,,,,,,,,,,,,,,,,,,,,,,,,,,,,,,,,,,,,,,,,,,,,,,,,,,,
934579,001,2022-11-14_24h26.25.492,Info_measure_main_exp,2022.2.2,Win32,60.24459305,,,,,,,,,,,,,0,0,0,0,1,masks/mask_001.jpg,,,,,,,,,,,,,,,,,,,,,,,,,,,,,,,,,,,,,,,,,,,,,,,,,,,,,,,,,,,,,,,,,,,,,,,,,,,,,,,,,,,,,,,,,,,,,
934579,001,2022-11-14_24h26.25.492,Info_measure_main_exp,2022.2.2,Win32,60.24459305,,,,,,,,,,,,,0,1,1,4,1,masks/mask_005.jpg,,,,,,,,,,,,,,,,,,,,,,,,,,,,,,,,,,,,,,,,,,,,,,,,,,,,,,,,,,,,,,,,,,,,,,,,,,,,,,,,,,,,,,,,,,,,,
934579,001,2022-11-14_24h26.25.492,Info_measure_main_exp,2022.2.2,Win32,60.24459305,,,,,,,,,,,,,0,2,2,2,1,masks/mask_003.jpg,,,,,,,,,,,,,,,,,,,,,,,,,,,,,,,,,,,,,,,,,,,,,,,,,,,,,,,,,,,,,,,,,,,,,,,,,,,,,,,,,,,,,,,,,,,,,
934579,001,2022-11-14_24h26.25.492,Info_measure_main_exp,2022.2.2,Win32,60.24459305,,,,,,,,,,,,,0,3,3,3,1,masks/mask_004.jpg,,,,,,,,,,,,,,,,,,,,,,,,,,,,,,,,,,,,,,,,,,,,,,,,,,,,,,,,,,,,,,,,,,,,,,,,,,,,,,,,,,,,,,,,,,,,,
934579,001,2022-11-14_24h26.25.492,Info_measure_main_exp,2022.2.2,Win32,60.24459305,,,,,,,,,,,,,0,4,4,1,1,masks/mask_002.jpg,,,,,,,,,,,,,,,,,,,,,,,,,,,,,,,,,,,,,,,,,,,,,,,,,,,,,,,,,,,,,,,,,,,,,,,,,,,,,,,,,,,,,,,,,,,,,
934579,001,2022-11-14_24h26.25.492,Info_measure_main_exp,2022.2.2,Win32,60.24459305,,,,,,,,,,,,,,,,,,masks/mask_003.jpg,0,0,0,2,1,,,,,,,,,,,,,,,,,,,,,,,,,,,,,,,,,,,,,,,,,,,,,,,,,,,,,,,,,,,,,,,,,,,,,,,,,,,,,,,,,,,,,,,,
934579,001,2022-11-14_24h26.25.492,Info_measure_main_exp,2022.2.2,Win32,60.24459305,,,,,,,,,,,,,,,,,,masks/mask_002.jpg,0,1,1,1,1,,,,,,,,,,,,,,,,,,,,,,,,,,,,,,,,,,,,,,,,,,,,,,,,,,,,,,,,,,,,,,,,,,,,,,,,,,,,,,,,,,,,,,,,
934579,001,2022-11-14_24h26.25.492,Info_measure_main_exp,2022.2.2,Win32,60.24459305,,,,,,,,,,,,,,,,,,masks/mask_001.jpg,0,2,2,0,1,,,,,,,,,,,,,,,,,,,,,,,,,,,,,,,,,,,,,,,,,,,,,,,,,,,,,,,,,,,,,,,,,,,,,,,,,,,,,,,,,,,,,,,,
934579,001,2022-11-14_24h26.25.492,Info_measure_main_exp,2022.2.2,Win32,60.24459305,,,,,,,,,,,,,,,,,,masks/mask_005.jpg,0,3,3,4,1,,,,,,,,,,,,,,,,,,,,,,,,,,,,,,,,,,,,,,,,,,,,,,,,,,,,,,,,,,,,,,,,,,,,,,,,,,,,,,,,,,,,,,,,
934579,001,2022-11-14_24h26.25.492,Info_measure_main_exp,2022.2.2,Win32,60.24459305,,,,,,,,,,,,,,,,,,masks/mask_004.jpg,0,4,4,3,1,,,,,,,,,,,,,,,,,,,,,,,,,,,,,,,,,,,,,,,,,,,,,,,,,,,,,,,,,,,,,,,,,,,,,,,,,,,,,,,,,,,,,,,,
934579,001,2022-11-14_24h26.25.492,Info_measure_main_exp,2022.2.2,Win32,60.24459305,,,,,,,,,,,,,,,,,,,,,,,,0.043518561,-0.136111153,1,0,0,response3disk,4,145.7303,1,-0.001851824,-0.006481489,1,0,0,center_square,0,2,2,1,1,0,131,5,5,2514,2490,prac_patch/patch0002514.jpg,prac_patch/patch0002490.jpg,,,,,,,,,,,,,,,,,,,,,,,,,,,,,,,,,,,,,,,,,,,,,,,,,,,,,,,,,,,,
934579,001,2022-11-14_24h26.25.492,Info_measure_main_exp,2022.2.2,Win32,60.24459305,,,,,,,,,,,,,,,,,,,,,,,,,,,,,,,,,,,,,,,,,,,,,,,,,,,,,,,,,,,space,2.8796,,,,,,,,,,,,,,,,,,,,,,,,,,,,,,,,,,,,,,,,,,,,,,,,,,,
934579,001,2022-11-14_24h26.25.492,Info_measure_main_exp,2022.2.2,Win32,60.24459305,,,,,,,,,,,,,,,,,,masks/mask_003.jpg,,,,,,,,,,,,,,,,,,,,,,,,,,,,,,,,,,,,,,,,,,,0,0,0,2,1,,,,,,,,,,,,,,,,,,,,,,,,,,,,,,,,,,,,,,,,,,,,,,
934579,001,2022-11-14_24h26.25.492,Info_measure_main_exp,2022.2.2,Win32,60.24459305,,,,,,,,,,,,,,,,,,masks/mask_002.jpg,,,,,,,,,,,,,,,,,,,,,,,,,,,,,,,,,,,,,,,,,,,0,1,1,1,1,,,,,,,,,,,,,,,,,,,,,,,,,,,,,,,,,,,,,,,,,,,,,,
934579,001,2022-11-14_24h26.25.492,Info_measure_main_exp,2022.2.2,Win32,60.24459305,,,,,,,,,,,,,,,,,,masks/mask_001.jpg,,,,,,,,,,,,,,,,,,,,,,,,,,,,,,,,,,,,,,,,,,,0,2,2,0,1,,,,,,,,,,,,,,,,,,,,,,,,,,,,,,,,,,,,,,,,,,,,,,
934579,001,2022-11-14_24h26.25.492,Info_measure_main_exp,2022.2.2,Win32,60.24459305,,,,,,,,,,,,,,,,,,masks/mask_005.jpg,,,,,,,,,,,,,,,,,,,,,,,,,,,,,,,,,,,,,,,,,,,0,3,3,4,1,,,,,,,,,,,,,,,,,,,,,,,,,,,,,,,,,,,,,,,,,,,,,,
934579,001,2022-11-14_24h26.25.492,Info_measure_main_exp,2022.2.2,Win32,60.24459305,,,,,,,,,,,,,,,,,,masks/mask_004.jpg,,,,,,,,,,,,,,,,,,,,,,,,,,,,,,,,,,,,,,,,,,,0,4,4,3,1,,,,,,,,,,,,,,,,,,,,,,,,,,,,,,,,,,,,,,,,,,,,,,
934579,001,2022-11-14_24h26.25.492,Info_measure_main_exp,2022.2.2,Win32,60.24459305,,,,,,,,,,,,,,,,,,masks/mask_005.jpg,,,,,,,,,,,,,,,,,,,,,,,,,,,,,,,,,,,,,,,,,,,,,,,,0,0,0,4,1,,,,,,,,,,,,,,,,,,,,,,,,,,,,,,,,,,,,,,,,,
934579,001,2022-11-14_24h26.25.492,Info_measure_main_exp,2022.2.2,Win32,60.24459305,,,,,,,,,,,,,,,,,,masks/mask_002.jpg,,,,,,,,,,,,,,,,,,,,,,,,,,,,,,,,,,,,,,,,,,,,,,,,0,1,1,1,1,,,,,,,,,,,,,,,,,,,,,,,,,,,,,,,,,,,,,,,,,
934579,001,2022-11-14_24h26.25.492,Info_measure_main_exp,2022.2.2,Win32,60.24459305,,,,,,,,,,,,,,,,,,masks/mask_004.jpg,,,,,,,,,,,,,,,,,,,,,,,,,,,,,,,,,,,,,,,,,,,,,,,,0,2,2,3,1,,,,,,,,,,,,,,,,,,,,,,,,,,,,,,,,,,,,,,,,,
934579,001,2022-11-14_24h26.25.492,Info_measure_main_exp,2022.2.2,Win32,60.24459305,,,,,,,,,,,,,,,,,,masks/mask_001.jpg,,,,,,,,,,,,,,,,,,,,,,,,,,,,,,,,,,,,,,,,,,,,,,,,0,3,3,0,1,,,,,,,,,,,,,,,,,,,,,,,,,,,,,,,,,,,,,,,,,
934579,001,2022-11-14_24h26.25.492,Info_measure_main_exp,2022.2.2,Win32,60.24459305,,,,,,,,,,,,,,,,,,masks/mask_003.jpg,,,,,,,,,,,,,,,,,,,,,,,,,,,,,,,,,,,,,,,,,,,,,,,,0,4,4,2,1,,,,,,,,,,,,,,,,,,,,,,,,,,,,,,,,,,,,,,,,,
934579,001,2022-11-14_24h26.25.492,Info_measure_main_exp,2022.2.2,Win32,60.24459305,,,,,,,,,,,,,,,,,,,,,,,,,,,,,,0,1.3663,1,,,,,,,,,,,,0,131,5,5,2166,2166,absent_patch/patch0002166.jpg,absent_patch/patch0002166.jpg,,,,,,,,,,,,,,,,,,,,-0.029629601,0.126851859,1,0,0,response7disk,1,0.002777806,0,1,0,0,center_square,0,0,0,42,1,,,,,,,,,,,,,,,,,,,,,,,
934579,001,2022-11-14_24h26.25.492,Info_measure_main_exp,2022.2.2,Win32,60.24459305,,,,,,,,,,,,,,,,,,masks/mask_004.jpg,,,,,,,,,,,,,,,,,,,,,,,,,,,,,,,,,,,,,,,,,,,0,0,0,3,1,,,,,,,,,,,,,,,,,,,,,,,,,,,,,,,,,,,,,,,,,,,,,,
934579,001,2022-11-14_24h26.25.492,Info_measure_main_exp,2022.2.2,Win32,60.24459305,,,,,,,,,,,,,,,,,,masks/mask_002.jpg,,,,,,,,,,,,,,,,,,,,,,,,,,,,,,,,,,,,,,,,,,,0,1,1,1,1,,,,,,,,,,,,,,,,,,,,,,,,,,,,,,,,,,,,,,,,,,,,,,
934579,001,2022-11-14_24h26.25.492,Info_measure_main_exp,2022.2.2,Win32,60.24459305,,,,,,,,,,,,,,,,,,masks/mask_003.jpg,,,,,,,,,,,,,,,,,,,,,,,,,,,,,,,,,,,,,,,,,,,0,2,2,2,1,,,,,,,,,,,,,,,,,,,,,,,,,,,,,,,,,,,,,,,,,,,,,,
934579,001,2022-11-14_24h26.25.492,Info_measure_main_exp,2022.2.2,Win32,60.24459305,,,,,,,,,,,,,,,,,,masks/mask_005.jpg,,,,,,,,,,,,,,,,,,,,,,,,,,,,,,,,,,,,,,,,,,,0,3,3,4,1,,,,,,,,,,,,,,,,,,,,,,,,,,,,,,,,,,,,,,,,,,,,,,
934579,001,2022-11-14_24h26.25.492,Info_measure_main_exp,2022.2.2,Win32,60.24459305,,,,,,,,,,,,,,,,,,masks/mask_001.jpg,,,,,,,,,,,,,,,,,,,,,,,,,,,,,,,,,,,,,,,,,,,0,4,4,0,1,,,,,,,,,,,,,,,,,,,,,,,,,,,,,,,,,,,,,,,,,,,,,,
934579,001,2022-11-14_24h26.25.492,Info_measure_main_exp,2022.2.2,Win32,60.24459305,,,,,,,,,,,,,,,,,,masks/mask_003.jpg,,,,,,,,,,,,,,,,,,,,,,,,,,,,,,,,,,,,,,,,,,,,,,,,0,0,0,2,1,,,,,,,,,,,,,,,,,,,,,,,,,,,,,,,,,,,,,,,,,
934579,001,2022-11-14_24h26.25.492,Info_measure_main_exp,2022.2.2,Win32,60.24459305,,,,,,,,,,,,,,,,,,masks/mask_001.jpg,,,,,,,,,,,,,,,,,,,,,,,,,,,,,,,,,,,,,,,,,,,,,,,,0,1,1,0,1,,,,,,,,,,,,,,,,,,,,,,,,,,,,,,,,,,,,,,,,,
934579,001,2022-11-14_24h26.25.492,Info_measure_main_exp,2022.2.2,Win32,60.24459305,,,,,,,,,,,,,,,,,,masks/mask_004.jpg,,,,,,,,,,,,,,,,,,,,,,,,,,,,,,,,,,,,,,,,,,,,,,,,0,2,2,3,1,,,,,,,,,,,,,,,,,,,,,,,,,,,,,,,,,,,,,,,,,
934579,001,2022-11-14_24h26.25.492,Info_measure_main_exp,2022.2.2,Win32,60.24459305,,,,,,,,,,,,,,,,,,masks/mask_002.jpg,,,,,,,,,,,,,,,,,,,,,,,,,,,,,,,,,,,,,,,,,,,,,,,,0,3,3,1,1,,,,,,,,,,,,,,,,,,,,,,,,,,,,,,,,,,,,,,,,,
934579,001,2022-11-14_24h26.25.492,Info_measure_main_exp,2022.2.2,Win32,60.24459305,,,,,,,,,,,,,,,,,,masks/mask_005.jpg,,,,,,,,,,,,,,,,,,,,,,,,,,,,,,,,,,,,,,,,,,,,,,,,0,4,4,4,1,,,,,,,,,,,,,,,,,,,,,,,,,,,,,,,,,,,,,,,,,
934579,001,2022-11-14_24h26.25.492,Info_measure_main_exp,2022.2.2,Win32,60.24459305,,,,,,,,,,,,,,,,,,,,,,,,,,,,,,7,1.6831,1,,,,,,,,,,,,0,131,5,5,2214,2142,absent_patch/patch0002214.jpg,absent_patch/patch0002142.jpg,,,,,,,,,,,,,,,,,,,,0.071296339,0.150925919,1,0,0,response1disk,2,-0.001851824,0.002777771,1,0,0,center_square,0,1,1,102,1,,,,,,,,,,,,,,,,,,,,,,,
934579,001,2022-11-14_24h26.25.492,Info_measure_main_exp,2022.2.2,Win32,60.24459305,,,,,,,,,,,,,,,,,,masks/mask_002.jpg,,,,,,,,,,,,,,,,,,,,,,,,,,,,,,,,,,,,,,,,,,,0,0,0,1,1,,,,,,,,,,,,,,,,,,,,,,,,,,,,,,,,,,,,,,,,,,,,,,
934579,001,2022-11-14_24h26.25.492,Info_measure_main_exp,2022.2.2,Win32,60.24459305,,,,,,,,,,,,,,,,,,masks/mask_003.jpg,,,,,,,,,,,,,,,,,,,,,,,,,,,,,,,,,,,,,,,,,,,0,1,1,2,1,,,,,,,,,,,,,,,,,,,,,,,,,,,,,,,,,,,,,,,,,,,,,,
934579,001,2022-11-14_24h26.25.492,Info_measure_main_exp,2022.2.2,Win32,60.24459305,,,,,,,,,,,,,,,,,,masks/mask_001.jpg,,,,,,,,,,,,,,,,,,,,,,,,,,,,,,,,,,,,,,,,,,,0,2,2,0,1,,,,,,,,,,,,,,,,,,,,,,,,,,,,,,,,,,,,,,,,,,,,,,
934579,001,2022-11-14_24h26.25.492,Info_measure_main_exp,2022.2.2,Win32,60.24459305,,,,,,,,,,,,,,,,,,masks/mask_004.jpg,,,,,,,,,,,,,,,,,,,,,,,,,,,,,,,,,,,,,,,,,,,0,3,3,3,1,,,,,,,,,,,,,,,,,,,,,,,,,,,,,,,,,,,,,,,,,,,,,,
934579,001,2022-11-14_24h26.25.492,Info_measure_main_exp,2022.2.2,Win32,60.24459305,,,,,,,,,,,,,,,,,,masks/mask_005.jpg,,,,,,,,,,,,,,,,,,,,,,,,,,,,,,,,,,,,,,,,,,,0,4,4,4,1,,,,,,,,,,,,,,,,,,,,,,,,,,,,,,,,,,,,,,,,,,,,,,
934579,001,2022-11-14_24h26.25.492,Info_measure_main_exp,2022.2.2,Win32,60.24459305,,,,,,,,,,,,,,,,,,masks/mask_005.jpg,,,,,,,,,,,,,,,,,,,,,,,,,,,,,,,,,,,,,,,,,,,,,,,,0,0,0,4,1,,,,,,,,,,,,,,,,,,,,,,,,,,,,,,,,,,,,,,,,,
934579,001,2022-11-14_24h26.25.492,Info_measure_main_exp,2022.2.2,Win32,60.24459305,,,,,,,,,,,,,,,,,,masks/mask_002.jpg,,,,,,,,,,,,,,,,,,,,,,,,,,,,,,,,,,,,,,,,,,,,,,,,0,1,1,1,1,,,,,,,,,,,,,,,,,,,,,,,,,,,,,,,,,,,,,,,,,
934579,001,2022-11-14_24h26.25.492,Info_measure_main_exp,2022.2.2,Win32,60.24459305,,,,,,,,,,,,,,,,,,masks/mask_003.jpg,,,,,,,,,,,,,,,,,,,,,,,,,,,,,,,,,,,,,,,,,,,,,,,,0,2,2,2,1,,,,,,,,,,,,,,,,,,,,,,,,,,,,,,,,,,,,,,,,,
934579,001,2022-11-14_24h26.25.492,Info_measure_main_exp,2022.2.2,Win32,60.24459305,,,,,,,,,,,,,,,,,,masks/mask_001.jpg,,,,,,,,,,,,,,,,,,,,,,,,,,,,,,,,,,,,,,,,,,,,,,,,0,3,3,0,1,,,,,,,,,,,,,,,,,,,,,,,,,,,,,,,,,,,,,,,,,
934579,001,2022-11-14_24h26.25.492,Info_measure_main_exp,2022.2.2,Win32,60.24459305,,,,,,,,,,,,,,,,,,masks/mask_004.jpg,,,,,,,,,,,,,,,,,,,,,,,,,,,,,,,,,,,,,,,,,,,,,,,,0,4,4,3,1,,,,,,,,,,,,,,,,,,,,,,,,,,,,,,,,,,,,,,,,,
934579,001,2022-11-14_24h26.25.492,Info_measure_main_exp,2022.2.2,Win32,60.24459305,,,,,,,,,,,,,,,,,,,,,,,,,,,,,,7,1.383,1,,,,,,,,,,,,0,131,5,5,2274,2142,absent_patch/patch0002274.jpg,absent_patch/patch0002142.jpg,,,,,,,,,,,,,,,,,,,,0.044444473,0.134259259,1,0,0,response1disk,3,-0.000925912,-0.002777771,1,0,0,center_square,0,2,2,75,1,,,,,,,,,,,,,,,,,,,,,,,
934579,001,2022-11-14_24h26.25.492,Info_measure_main_exp,2022.2.2,Win32,60.24459305,,,,,,,,,,,,,,,,,,masks/mask_002.jpg,,,,,,,,,,,,,,,,,,,,,,,,,,,,,,,,,,,,,,,,,,,0,0,0,1,1,,,,,,,,,,,,,,,,,,,,,,,,,,,,,,,,,,,,,,,,,,,,,,
934579,001,2022-11-14_24h26.25.492,Info_measure_main_exp,2022.2.2,Win32,60.24459305,,,,,,,,,,,,,,,,,,masks/mask_004.jpg,,,,,,,,,,,,,,,,,,,,,,,,,,,,,,,,,,,,,,,,,,,0,1,1,3,1,,,,,,,,,,,,,,,,,,,,,,,,,,,,,,,,,,,,,,,,,,,,,,
934579,001,2022-11-14_24h26.25.492,Info_measure_main_exp,2022.2.2,Win32,60.24459305,,,,,,,,,,,,,,,,,,masks/mask_001.jpg,,,,,,,,,,,,,,,,,,,,,,,,,,,,,,,,,,,,,,,,,,,0,2,2,0,1,,,,,,,,,,,,,,,,,,,,,,,,,,,,,,,,,,,,,,,,,,,,,,
934579,001,2022-11-14_24h26.25.492,Info_measure_main_exp,2022.2.2,Win32,60.24459305,,,,,,,,,,,,,,,,,,masks/mask_005.jpg,,,,,,,,,,,,,,,,,,,,,,,,,,,,,,,,,,,,,,,,,,,0,3,3,4,1,,,,,,,,,,,,,,,,,,,,,,,,,,,,,,,,,,,,,,,,,,,,,,
934579,001,2022-11-14_24h26.25.492,Info_measure_main_exp,2022.2.2,Win32,60.24459305,,,,,,,,,,,,,,,,,,masks/mask_003.jpg,,,,,,,,,,,,,,,,,,,,,,,,,,,,,,,,,,,,,,,,,,,0,4,4,2,1,,,,,,,,,,,,,,,,,,,,,,,,,,,,,,,,,,,,,,,,,,,,,,
934579,001,2022-11-14_24h26.25.492,Info_measure_main_exp,2022.2.2,Win32,60.24459305,,,,,,,,,,,,,,,,,,masks/mask_002.jpg,,,,,,,,,,,,,,,,,,,,,,,,,,,,,,,,,,,,,,,,,,,,,,,,0,0,0,1,1,,,,,,,,,,,,,,,,,,,,,,,,,,,,,,,,,,,,,,,,,
934579,001,2022-11-14_24h26.25.492,Info_measure_main_exp,2022.2.2,Win32,60.24459305,,,,,,,,,,,,,,,,,,masks/mask_003.jpg,,,,,,,,,,,,,,,,,,,,,,,,,,,,,,,,,,,,,,,,,,,,,,,,0,1,1,2,1,,,,,,,,,,,,,,,,,,,,,,,,,,,,,,,,,,,,,,,,,
934579,001,2022-11-14_24h26.25.492,Info_measure_main_exp,2022.2.2,Win32,60.24459305,,,,,,,,,,,,,,,,,,masks/mask_004.jpg,,,,,,,,,,,,,,,,,,,,,,,,,,,,,,,,,,,,,,,,,,,,,,,,0,2,2,3,1,,,,,,,,,,,,,,,,,,,,,,,,,,,,,,,,,,,,,,,,,
934579,001,2022-11-14_24h26.25.492,Info_measure_main_exp,2022.2.2,Win32,60.24459305,,,,,,,,,,,,,,,,,,masks/mask_001.jpg,,,,,,,,,,,,,,,,,,,,,,,,,,,,,,,,,,,,,,,,,,,,,,,,0,3,3,0,1,,,,,,,,,,,,,,,,,,,,,,,,,,,,,,,,,,,,,,,,,
934579,001,2022-11-14_24h26.25.492,Info_measure_main_exp,2022.2.2,Win32,60.24459305,,,,,,,,,,,,,,,,,,masks/mask_005.jpg,,,,,,,,,,,,,,,,,,,,,,,,,,,,,,,,,,,,,,,,,,,,,,,,0,4,4,4,1,,,,,,,,,,,,,,,,,,,,,,,,,,,,,,,,,,,,,,,,,
934579,001,2022-11-14_24h26.25.492,Info_measure_main_exp,2022.2.2,Win32,60.24459305,,,,,,,,,,,,,,,,,,,,,,,,,,,,,,7,0.8332,1,,,,,,,,,,,,1,131,5,5,2298,1,absent_patch/patch0002298.jpg,present_patch/cong_131_5_a.jpg,,,,,,,,,,,,,,,,,,,,0.042592578,0.118518511,1,0,0,response1disk,4,-0.012962977,-0.00462963,1,0,0,center_square,0,3,3,45,1,,,,,,,,,,,,,,,,,,,,,,,
934579,001,2022-11-14_24h26.25.492,Info_measure_main_exp,2022.2.2,Win32,60.24459305,,,,,,,,,,,,,,,,,,masks/mask_002.jpg,,,,,,,,,,,,,,,,,,,,,,,,,,,,,,,,,,,,,,,,,,,0,0,0,1,1,,,,,,,,,,,,,,,,,,,,,,,,,,,,,,,,,,,,,,,,,,,,,,
934579,001,2022-11-14_24h26.25.492,Info_measure_main_exp,2022.2.2,Win32,60.24459305,,,,,,,,,,,,,,,,,,masks/mask_005.jpg,,,,,,,,,,,,,,,,,,,,,,,,,,,,,,,,,,,,,,,,,,,0,1,1,4,1,,,,,,,,,,,,,,,,,,,,,,,,,,,,,,,,,,,,,,,,,,,,,,
934579,001,2022-11-14_24h26.25.492,Info_measure_main_exp,2022.2.2,Win32,60.24459305,,,,,,,,,,,,,,,,,,masks/mask_003.jpg,,,,,,,,,,,,,,,,,,,,,,,,,,,,,,,,,,,,,,,,,,,0,2,2,2,1,,,,,,,,,,,,,,,,,,,,,,,,,,,,,,,,,,,,,,,,,,,,,,
934579,001,2022-11-14_24h26.25.492,Info_measure_main_exp,2022.2.2,Win32,60.24459305,,,,,,,,,,,,,,,,,,masks/mask_001.jpg,,,,,,,,,,,,,,,,,,,,,,,,,,,,,,,,,,,,,,,,,,,0,3,3,0,1,,,,,,,,,,,,,,,,,,,,,,,,,,,,,,,,,,,,,,,,,,,,,,
934579,001,2022-11-14_24h26.25.492,Info_measure_main_exp,2022.2.2,Win32,60.24459305,,,,,,,,,,,,,,,,,,masks/mask_004.jpg,,,,,,,,,,,,,,,,,,,,,,,,,,,,,,,,,,,,,,,,,,,0,4,4,3,1,,,,,,,,,,,,,,,,,,,,,,,,,,,,,,,,,,,,,,,,,,,,,,
934579,001,2022-11-14_24h26.25.492,Info_measure_main_exp,2022.2.2,Win32,60.24459305,,,,,,,,,,,,,,,,,,masks/mask_002.jpg,,,,,,,,,,,,,,,,,,,,,,,,,,,,,,,,,,,,,,,,,,,,,,,,0,0,0,1,1,,,,,,,,,,,,,,,,,,,,,,,,,,,,,,,,,,,,,,,,,
934579,001,2022-11-14_24h26.25.492,Info_measure_main_exp,2022.2.2,Win32,60.24459305,,,,,,,,,,,,,,,,,,masks/mask_001.jpg,,,,,,,,,,,,,,,,,,,,,,,,,,,,,,,,,,,,,,,,,,,,,,,,0,1,1,0,1,,,,,,,,,,,,,,,,,,,,,,,,,,,,,,,,,,,,,,,,,
934579,001,2022-11-14_24h26.25.492,Info_measure_main_exp,2022.2.2,Win32,60.24459305,,,,,,,,,,,,,,,,,,masks/mask_004.jpg,,,,,,,,,,,,,,,,,,,,,,,,,,,,,,,,,,,,,,,,,,,,,,,,0,2,2,3,1,,,,,,,,,,,,,,,,,,,,,,,,,,,,,,,,,,,,,,,,,
934579,001,2022-11-14_24h26.25.492,Info_measure_main_exp,2022.2.2,Win32,60.24459305,,,,,,,,,,,,,,,,,,masks/mask_003.jpg,,,,,,,,,,,,,,,,,,,,,,,,,,,,,,,,,,,,,,,,,,,,,,,,0,3,3,2,1,,,,,,,,,,,,,,,,,,,,,,,,,,,,,,,,,,,,,,,,,
934579,001,2022-11-14_24h26.25.492,Info_measure_main_exp,2022.2.2,Win32,60.24459305,,,,,,,,,,,,,,,,,,masks/mask_005.jpg,,,,,,,,,,,,,,,,,,,,,,,,,,,,,,,,,,,,,,,,,,,,,,,,0,4,4,4,1,,,,,,,,,,,,,,,,,,,,,,,,,,,,,,,,,,,,,,,,,
934579,001,2022-11-14_24h26.25.492,Info_measure_main_exp,2022.2.2,Win32,60.24459305,,,,,,,,,,,,,,,,,,,,,,,,,,,,,,0,0.6494,1,,,,,,,,,,,,0,131,5,5,1986,1986,absent_patch/patch0001986.jpg,absent_patch/patch0001986.jpg,,,,,,,,,,,,,,,,,,,,-0.050925926,0.13703703,1,0,0,response7disk,5,-0.007407365,-0.006481489,1,0,0,center_square,0,4,4,19,1,,,,,,,,,,,,,,,,,,,,,,,
934579,001,2022-11-14_24h26.25.492,Info_measure_main_exp,2022.2.2,Win32,60.24459305,,,,,,,,,,,,,,,,,,masks/mask_003.jpg,,,,,,,,,,,,,,,,,,,,,,,,,,,,,,,,,,,,,,,,,,,0,0,0,2,1,,,,,,,,,,,,,,,,,,,,,,,,,,,,,,,,,,,,,,,,,,,,,,
934579,001,2022-11-14_24h26.25.492,Info_measure_main_exp,2022.2.2,Win32,60.24459305,,,,,,,,,,,,,,,,,,masks/mask_002.jpg,,,,,,,,,,,,,,,,,,,,,,,,,,,,,,,,,,,,,,,,,,,0,1,1,1,1,,,,,,,,,,,,,,,,,,,,,,,,,,,,,,,,,,,,,,,,,,,,,,
934579,001,2022-11-14_24h26.25.492,Info_measure_main_exp,2022.2.2,Win32,60.24459305,,,,,,,,,,,,,,,,,,masks/mask_001.jpg,,,,,,,,,,,,,,,,,,,,,,,,,,,,,,,,,,,,,,,,,,,0,2,2,0,1,,,,,,,,,,,,,,,,,,,,,,,,,,,,,,,,,,,,,,,,,,,,,,
934579,001,2022-11-14_24h26.25.492,Info_measure_main_exp,2022.2.2,Win32,60.24459305,,,,,,,,,,,,,,,,,,masks/mask_004.jpg,,,,,,,,,,,,,,,,,,,,,,,,,,,,,,,,,,,,,,,,,,,0,3,3,3,1,,,,,,,,,,,,,,,,,,,,,,,,,,,,,,,,,,,,,,,,,,,,,,
934579,001,2022-11-14_24h26.25.492,Info_measure_main_exp,2022.2.2,Win32,60.24459305,,,,,,,,,,,,,,,,,,masks/mask_005.jpg,,,,,,,,,,,,,,,,,,,,,,,,,,,,,,,,,,,,,,,,,,,0,4,4,4,1,,,,,,,,,,,,,,,,,,,,,,,,,,,,,,,,,,,,,,,,,,,,,,
934579,001,2022-11-14_24h26.25.492,Info_measure_main_exp,2022.2.2,Win32,60.24459305,,,,,,,,,,,,,,,,,,masks/mask_003.jpg,,,,,,,,,,,,,,,,,,,,,,,,,,,,,,,,,,,,,,,,,,,,,,,,0,0,0,2,1,,,,,,,,,,,,,,,,,,,,,,,,,,,,,,,,,,,,,,,,,
934579,001,2022-11-14_24h26.25.492,Info_measure_main_exp,2022.2.2,Win32,60.24459305,,,,,,,,,,,,,,,,,,masks/mask_002.jpg,,,,,,,,,,,,,,,,,,,,,,,,,,,,,,,,,,,,,,,,,,,,,,,,0,1,1,1,1,,,,,,,,,,,,,,,,,,,,,,,,,,,,,,,,,,,,,,,,,
934579,001,2022-11-14_24h26.25.492,Info_measure_main_exp,2022.2.2,Win32,60.24459305,,,,,,,,,,,,,,,,,,masks/mask_004.jpg,,,,,,,,,,,,,,,,,,,,,,,,,,,,,,,,,,,,,,,,,,,,,,,,0,2,2,3,1,,,,,,,,,,,,,,,,,,,,,,,,,,,,,,,,,,,,,,,,,
934579,001,2022-11-14_24h26.25.492,Info_measure_main_exp,2022.2.2,Win32,60.24459305,,,,,,,,,,,,,,,,,,masks/mask_005.jpg,,,,,,,,,,,,,,,,,,,,,,,,,,,,,,,,,,,,,,,,,,,,,,,,0,3,3,4,1,,,,,,,,,,,,,,,,,,,,,,,,,,,,,,,,,,,,,,,,,
934579,001,2022-11-14_24h26.25.492,Info_measure_main_exp,2022.2.2,Win32,60.24459305,,,,,,,,,,,,,,,,,,masks/mask_001.jpg,,,,,,,,,,,,,,,,,,,,,,,,,,,,,,,,,,,,,,,,,,,,,,,,0,4,4,0,1,,,,,,,,,,,,,,,,,,,,,,,,,,,,,,,,,,,,,,,,,
934579,001,2022-11-14_24h26.25.492,Info_measure_main_exp,2022.2.2,Win32,60.24459305,,,,,,,,,,,,,,,,,,,,,,,,,,,,,,7,0.5998,1,,,,,,,,,,,,0,131,5,5,2250,2298,absent_patch/patch0002250.jpg,absent_patch/patch0002298.jpg,,,,,,,,,,,,,,,,,,,,0.012962977,0.093518504,1,0,0,response1disk,6,-0.008333347,-0.001851859,1,0,0,center_square,0,5,5,59,1,,,,,,,,,,,,,,,,,,,,,,,
934579,001,2022-11-14_24h26.25.492,Info_measure_main_exp,2022.2.2,Win32,60.24459305,,,,,,,,,,,,,,,,,,masks/mask_003.jpg,,,,,,,,,,,,,,,,,,,,,,,,,,,,,,,,,,,,,,,,,,,0,0,0,2,1,,,,,,,,,,,,,,,,,,,,,,,,,,,,,,,,,,,,,,,,,,,,,,
934579,001,2022-11-14_24h26.25.492,Info_measure_main_exp,2022.2.2,Win32,60.24459305,,,,,,,,,,,,,,,,,,masks/mask_002.jpg,,,,,,,,,,,,,,,,,,,,,,,,,,,,,,,,,,,,,,,,,,,0,1,1,1,1,,,,,,,,,,,,,,,,,,,,,,,,,,,,,,,,,,,,,,,,,,,,,,
934579,001,2022-11-14_24h26.25.492,Info_measure_main_exp,2022.2.2,Win32,60.24459305,,,,,,,,,,,,,,,,,,masks/mask_005.jpg,,,,,,,,,,,,,,,,,,,,,,,,,,,,,,,,,,,,,,,,,,,0,2,2,4,1,,,,,,,,,,,,,,,,,,,,,,,,,,,,,,,,,,,,,,,,,,,,,,
934579,001,2022-11-14_24h26.25.492,Info_measure_main_exp,2022.2.2,Win32,60.24459305,,,,,,,,,,,,,,,,,,masks/mask_001.jpg,,,,,,,,,,,,,,,,,,,,,,,,,,,,,,,,,,,,,,,,,,,0,3,3,0,1,,,,,,,,,,,,,,,,,,,,,,,,,,,,,,,,,,,,,,,,,,,,,,
934579,001,2022-11-14_24h26.25.492,Info_measure_main_exp,2022.2.2,Win32,60.24459305,,,,,,,,,,,,,,,,,,masks/mask_004.jpg,,,,,,,,,,,,,,,,,,,,,,,,,,,,,,,,,,,,,,,,,,,0,4,4,3,1,,,,,,,,,,,,,,,,,,,,,,,,,,,,,,,,,,,,,,,,,,,,,,
934579,001,2022-11-14_24h26.25.492,Info_measure_main_exp,2022.2.2,Win32,60.24459305,,,,,,,,,,,,,,,,,,masks/mask_005.jpg,,,,,,,,,,,,,,,,,,,,,,,,,,,,,,,,,,,,,,,,,,,,,,,,0,0,0,4,1,,,,,,,,,,,,,,,,,,,,,,,,,,,,,,,,,,,,,,,,,
934579,001,2022-11-14_24h26.25.492,Info_measure_main_exp,2022.2.2,Win32,60.24459305,,,,,,,,,,,,,,,,,,masks/mask_001.jpg,,,,,,,,,,,,,,,,,,,,,,,,,,,,,,,,,,,,,,,,,,,,,,,,0,1,1,0,1,,,,,,,,,,,,,,,,,,,,,,,,,,,,,,,,,,,,,,,,,
934579,001,2022-11-14_24h26.25.492,Info_measure_main_exp,2022.2.2,Win32,60.24459305,,,,,,,,,,,,,,,,,,masks/mask_003.jpg,,,,,,,,,,,,,,,,,,,,,,,,,,,,,,,,,,,,,,,,,,,,,,,,0,2,2,2,1,,,,,,,,,,,,,,,,,,,,,,,,,,,,,,,,,,,,,,,,,
934579,001,2022-11-14_24h26.25.492,Info_measure_main_exp,2022.2.2,Win32,60.24459305,,,,,,,,,,,,,,,,,,masks/mask_002.jpg,,,,,,,,,,,,,,,,,,,,,,,,,,,,,,,,,,,,,,,,,,,,,,,,0,3,3,1,1,,,,,,,,,,,,,,,,,,,,,,,,,,,,,,,,,,,,,,,,,
934579,001,2022-11-14_24h26.25.492,Info_measure_main_exp,2022.2.2,Win32,60.24459305,,,,,,,,,,,,,,,,,,masks/mask_004.jpg,,,,,,,,,,,,,,,,,,,,,,,,,,,,,,,,,,,,,,,,,,,,,,,,0,4,4,3,1,,,,,,,,,,,,,,,,,,,,,,,,,,,,,,,,,,,,,,,,,
934579,001,2022-11-14_24h26.25.492,Info_measure_main_exp,2022.2.2,Win32,60.24459305,,,,,,,,,,,,,,,,,,,,,,,,,,,,,,6,3.9318,1,,,,,,,,,,,,0,131,5,5,1986,1974,absent_patch/patch0001986.jpg,absent_patch/patch0001974.jpg,,,,,,,,,,,,,,,,,,,,0.14444443,0.042592578,1,0,0,response1disk,7,0,0.009259259,1,0,0,center_square,0,6,6,25,1,,,,,,,,,,,,,,,,,,,,,,,
934579,001,2022-11-14_24h26.25.492,Info_measure_main_exp,2022.2.2,Win32,60.24459305,,,,,,,,,,,,,,,,,,masks/mask_005.jpg,,,,,,,,,,,,,,,,,,,,,,,,,,,,,,,,,,,,,,,,,,,0,0,0,4,1,,,,,,,,,,,,,,,,,,,,,,,,,,,,,,,,,,,,,,,,,,,,,,
934579,001,2022-11-14_24h26.25.492,Info_measure_main_exp,2022.2.2,Win32,60.24459305,,,,,,,,,,,,,,,,,,masks/mask_002.jpg,,,,,,,,,,,,,,,,,,,,,,,,,,,,,,,,,,,,,,,,,,,0,1,1,1,1,,,,,,,,,,,,,,,,,,,,,,,,,,,,,,,,,,,,,,,,,,,,,,
934579,001,2022-11-14_24h26.25.492,Info_measure_main_exp,2022.2.2,Win32,60.24459305,,,,,,,,,,,,,,,,,,masks/mask_001.jpg,,,,,,,,,,,,,,,,,,,,,,,,,,,,,,,,,,,,,,,,,,,0,2,2,0,1,,,,,,,,,,,,,,,,,,,,,,,,,,,,,,,,,,,,,,,,,,,,,,
934579,001,2022-11-14_24h26.25.492,Info_measure_main_exp,2022.2.2,Win32,60.24459305,,,,,,,,,,,,,,,,,,masks/mask_004.jpg,,,,,,,,,,,,,,,,,,,,,,,,,,,,,,,,,,,,,,,,,,,0,3,3,3,1,,,,,,,,,,,,,,,,,,,,,,,,,,,,,,,,,,,,,,,,,,,,,,
934579,001,2022-11-14_24h26.25.492,Info_measure_main_exp,2022.2.2,Win32,60.24459305,,,,,,,,,,,,,,,,,,masks/mask_003.jpg,,,,,,,,,,,,,,,,,,,,,,,,,,,,,,,,,,,,,,,,,,,0,4,4,2,1,,,,,,,,,,,,,,,,,,,,,,,,,,,,,,,,,,,,,,,,,,,,,,
934579,001,2022-11-14_24h26.25.492,Info_measure_main_exp,2022.2.2,Win32,60.24459305,,,,,,,,,,,,,,,,,,masks/mask_002.jpg,,,,,,,,,,,,,,,,,,,,,,,,,,,,,,,,,,,,,,,,,,,,,,,,0,0,0,1,1,,,,,,,,,,,,,,,,,,,,,,,,,,,,,,,,,,,,,,,,,
934579,001,2022-11-14_24h26.25.492,Info_measure_main_exp,2022.2.2,Win32,60.24459305,,,,,,,,,,,,,,,,,,masks/mask_004.jpg,,,,,,,,,,,,,,,,,,,,,,,,,,,,,,,,,,,,,,,,,,,,,,,,0,1,1,3,1,,,,,,,,,,,,,,,,,,,,,,,,,,,,,,,,,,,,,,,,,
934579,001,2022-11-14_24h26.25.492,Info_measure_main_exp,2022.2.2,Win32,60.24459305,,,,,,,,,,,,,,,,,,masks/mask_003.jpg,,,,,,,,,,,,,,,,,,,,,,,,,,,,,,,,,,,,,,,,,,,,,,,,0,2,2,2,1,,,,,,,,,,,,,,,,,,,,,,,,,,,,,,,,,,,,,,,,,
934579,001,2022-11-14_24h26.25.492,Info_measure_main_exp,2022.2.2,Win32,60.24459305,,,,,,,,,,,,,,,,,,masks/mask_001.jpg,,,,,,,,,,,,,,,,,,,,,,,,,,,,,,,,,,,,,,,,,,,,,,,,0,3,3,0,1,,,,,,,,,,,,,,,,,,,,,,,,,,,,,,,,,,,,,,,,,
934579,001,2022-11-14_24h26.25.492,Info_measure_main_exp,2022.2.2,Win32,60.24459305,,,,,,,,,,,,,,,,,,masks/mask_005.jpg,,,,,,,,,,,,,,,,,,,,,,,,,,,,,,,,,,,,,,,,,,,,,,,,0,4,4,4,1,,,,,,,,,,,,,,,,,,,,,,,,,,,,,,,,,,,,,,,,,
934579,001,2022-11-14_24h26.25.492,Info_measure_main_exp,2022.2.2,Win32,60.24459305,,,,,,,,,,,,,,,,,,,,,,,,,,,,,,7,0.6999,1,,,,,,,,,,,,0,131,5,5,2178,2142,absent_patch/patch0002178.jpg,absent_patch/patch0002142.jpg,,,,,,,,,,,,,,,,,,,,0.047222208,0.1175926,1,0,0,response1disk,8,-0.013888889,-0.013888889,1,0,0,center_square,0,7,7,41,1,,,,,,,,,,,,,,,,,,,,,,,
934579,001,2022-11-14_24h26.25.492,Info_measure_main_exp,2022.2.2,Win32,60.24459305,,,,,,,,,,,,,,,,,,masks/mask_001.jpg,,,,,,,,,,,,,,,,,,,,,,,,,,,,,,,,,,,,,,,,,,,0,0,0,0,1,,,,,,,,,,,,,,,,,,,,,,,,,,,,,,,,,,,,,,,,,,,,,,
934579,001,2022-11-14_24h26.25.492,Info_measure_main_exp,2022.2.2,Win32,60.24459305,,,,,,,,,,,,,,,,,,masks/mask_003.jpg,,,,,,,,,,,,,,,,,,,,,,,,,,,,,,,,,,,,,,,,,,,0,1,1,2,1,,,,,,,,,,,,,,,,,,,,,,,,,,,,,,,,,,,,,,,,,,,,,,
934579,001,2022-11-14_24h26.25.492,Info_measure_main_exp,2022.2.2,Win32,60.24459305,,,,,,,,,,,,,,,,,,masks/mask_005.jpg,,,,,,,,,,,,,,,,,,,,,,,,,,,,,,,,,,,,,,,,,,,0,2,2,4,1,,,,,,,,,,,,,,,,,,,,,,,,,,,,,,,,,,,,,,,,,,,,,,
934579,001,2022-11-14_24h26.25.492,Info_measure_main_exp,2022.2.2,Win32,60.24459305,,,,,,,,,,,,,,,,,,masks/mask_002.jpg,,,,,,,,,,,,,,,,,,,,,,,,,,,,,,,,,,,,,,,,,,,0,3,3,1,1,,,,,,,,,,,,,,,,,,,,,,,,,,,,,,,,,,,,,,,,,,,,,,
934579,001,2022-11-14_24h26.25.492,Info_measure_main_exp,2022.2.2,Win32,60.24459305,,,,,,,,,,,,,,,,,,masks/mask_004.jpg,,,,,,,,,,,,,,,,,,,,,,,,,,,,,,,,,,,,,,,,,,,0,4,4,3,1,,,,,,,,,,,,,,,,,,,,,,,,,,,,,,,,,,,,,,,,,,,,,,
934579,001,2022-11-14_24h26.25.492,Info_measure_main_exp,2022.2.2,Win32,60.24459305,,,,,,,,,,,,,,,,,,masks/mask_001.jpg,,,,,,,,,,,,,,,,,,,,,,,,,,,,,,,,,,,,,,,,,,,,,,,,0,0,0,0,1,,,,,,,,,,,,,,,,,,,,,,,,,,,,,,,,,,,,,,,,,
934579,001,2022-11-14_24h26.25.492,Info_measure_main_exp,2022.2.2,Win32,60.24459305,,,,,,,,,,,,,,,,,,masks/mask_002.jpg,,,,,,,,,,,,,,,,,,,,,,,,,,,,,,,,,,,,,,,,,,,,,,,,0,1,1,1,1,,,,,,,,,,,,,,,,,,,,,,,,,,,,,,,,,,,,,,,,,
934579,001,2022-11-14_24h26.25.492,Info_measure_main_exp,2022.2.2,Win32,60.24459305,,,,,,,,,,,,,,,,,,masks/mask_005.jpg,,,,,,,,,,,,,,,,,,,,,,,,,,,,,,,,,,,,,,,,,,,,,,,,0,2,2,4,1,,,,,,,,,,,,,,,,,,,,,,,,,,,,,,,,,,,,,,,,,
934579,001,2022-11-14_24h26.25.492,Info_measure_main_exp,2022.2.2,Win32,60.24459305,,,,,,,,,,,,,,,,,,masks/mask_003.jpg,,,,,,,,,,,,,,,,,,,,,,,,,,,,,,,,,,,,,,,,,,,,,,,,0,3,3,2,1,,,,,,,,,,,,,,,,,,,,,,,,,,,,,,,,,,,,,,,,,
934579,001,2022-11-14_24h26.25.492,Info_measure_main_exp,2022.2.2,Win32,60.24459305,,,,,,,,,,,,,,,,,,masks/mask_004.jpg,,,,,,,,,,,,,,,,,,,,,,,,,,,,,,,,,,,,,,,,,,,,,,,,0,4,4,3,1,,,,,,,,,,,,,,,,,,,,,,,,,,,,,,,,,,,,,,,,,
934579,001,2022-11-14_24h26.25.492,Info_measure_main_exp,2022.2.2,Win32,60.24459305,,,,,,,,,,,,,,,,,,,,,,,,,,,,,,7,0.6163,1,,,,,,,,,,,,0,131,5,5,2190,2250,absent_patch/patch0002190.jpg,absent_patch/patch0002250.jpg,,,,,,,,,,,,,,,,,,,,0.044444473,0.099074081,1,0,0,response1disk,9,0,-0.000925947,1,0,0,center_square,0,8,8,93,1,,,,,,,,,,,,,,,,,,,,,,,
934579,001,2022-11-14_24h26.25.492,Info_measure_main_exp,2022.2.2,Win32,60.24459305,,,,,,,,,,,,,,,,,,masks/mask_002.jpg,,,,,,,,,,,,,,,,,,,,,,,,,,,,,,,,,,,,,,,,,,,0,0,0,1,1,,,,,,,,,,,,,,,,,,,,,,,,,,,,,,,,,,,,,,,,,,,,,,
934579,001,2022-11-14_24h26.25.492,Info_measure_main_exp,2022.2.2,Win32,60.24459305,,,,,,,,,,,,,,,,,,masks/mask_004.jpg,,,,,,,,,,,,,,,,,,,,,,,,,,,,,,,,,,,,,,,,,,,0,1,1,3,1,,,,,,,,,,,,,,,,,,,,,,,,,,,,,,,,,,,,,,,,,,,,,,
934579,001,2022-11-14_24h26.25.492,Info_measure_main_exp,2022.2.2,Win32,60.24459305,,,,,,,,,,,,,,,,,,masks/mask_003.jpg,,,,,,,,,,,,,,,,,,,,,,,,,,,,,,,,,,,,,,,,,,,0,2,2,2,1,,,,,,,,,,,,,,,,,,,,,,,,,,,,,,,,,,,,,,,,,,,,,,
934579,001,2022-11-14_24h26.25.492,Info_measure_main_exp,2022.2.2,Win32,60.24459305,,,,,,,,,,,,,,,,,,masks/mask_005.jpg,,,,,,,,,,,,,,,,,,,,,,,,,,,,,,,,,,,,,,,,,,,0,3,3,4,1,,,,,,,,,,,,,,,,,,,,,,,,,,,,,,,,,,,,,,,,,,,,,,
934579,001,2022-11-14_24h26.25.492,Info_measure_main_exp,2022.2.2,Win32,60.24459305,,,,,,,,,,,,,,,,,,masks/mask_001.jpg,,,,,,,,,,,,,,,,,,,,,,,,,,,,,,,,,,,,,,,,,,,0,4,4,0,1,,,,,,,,,,,,,,,,,,,,,,,,,,,,,,,,,,,,,,,,,,,,,,
934579,001,2022-11-14_24h26.25.492,Info_measure_main_exp,2022.2.2,Win32,60.24459305,,,,,,,,,,,,,,,,,,masks/mask_005.jpg,,,,,,,,,,,,,,,,,,,,,,,,,,,,,,,,,,,,,,,,,,,,,,,,0,0,0,4,1,,,,,,,,,,,,,,,,,,,,,,,,,,,,,,,,,,,,,,,,,
934579,001,2022-11-14_24h26.25.492,Info_measure_main_exp,2022.2.2,Win32,60.24459305,,,,,,,,,,,,,,,,,,masks/mask_002.jpg,,,,,,,,,,,,,,,,,,,,,,,,,,,,,,,,,,,,,,,,,,,,,,,,0,1,1,1,1,,,,,,,,,,,,,,,,,,,,,,,,,,,,,,,,,,,,,,,,,
934579,001,2022-11-14_24h26.25.492,Info_measure_main_exp,2022.2.2,Win32,60.24459305,,,,,,,,,,,,,,,,,,masks/mask_004.jpg,,,,,,,,,,,,,,,,,,,,,,,,,,,,,,,,,,,,,,,,,,,,,,,,0,2,2,3,1,,,,,,,,,,,,,,,,,,,,,,,,,,,,,,,,,,,,,,,,,
934579,001,2022-11-14_24h26.25.492,Info_measure_main_exp,2022.2.2,Win32,60.24459305,,,,,,,,,,,,,,,,,,masks/mask_003.jpg,,,,,,,,,,,,,,,,,,,,,,,,,,,,,,,,,,,,,,,,,,,,,,,,0,3,3,2,1,,,,,,,,,,,,,,,,,,,,,,,,,,,,,,,,,,,,,,,,,
934579,001,2022-11-14_24h26.25.492,Info_measure_main_exp,2022.2.2,Win32,60.24459305,,,,,,,,,,,,,,,,,,masks/mask_001.jpg,,,,,,,,,,,,,,,,,,,,,,,,,,,,,,,,,,,,,,,,,,,,,,,,0,4,4,0,1,,,,,,,,,,,,,,,,,,,,,,,,,,,,,,,,,,,,,,,,,
934579,001,2022-11-14_24h26.25.492,Info_measure_main_exp,2022.2.2,Win32,60.24459305,,,,,,,,,,,,,,,,,,,,,,,,,,,,,,0,0.4832,1,,,,,,,,,,,,1,131,5,5,1,1,present_patch/cong_131_5_a.jpg,present_patch/cong_131_5_a.jpg,,,,,,,,,,,,,,,,,,,,-0.044444402,0.145370377,1,0,0,response7disk,10,0.002777806,-0.000925947,1,0,0,center_square,0,9,9,30,1,,,,,,,,,,,,,,,,,,,,,,,
934579,001,2022-11-14_24h26.25.492,Info_measure_main_exp,2022.2.2,Win32,60.24459305,,,,,,,,,,,,,,,,,,masks/mask_004.jpg,,,,,,,,,,,,,,,,,,,,,,,,,,,,,,,,,,,,,,,,,,,0,0,0,3,1,,,,,,,,,,,,,,,,,,,,,,,,,,,,,,,,,,,,,,,,,,,,,,
934579,001,2022-11-14_24h26.25.492,Info_measure_main_exp,2022.2.2,Win32,60.24459305,,,,,,,,,,,,,,,,,,masks/mask_003.jpg,,,,,,,,,,,,,,,,,,,,,,,,,,,,,,,,,,,,,,,,,,,0,1,1,2,1,,,,,,,,,,,,,,,,,,,,,,,,,,,,,,,,,,,,,,,,,,,,,,
934579,001,2022-11-14_24h26.25.492,Info_measure_main_exp,2022.2.2,Win32,60.24459305,,,,,,,,,,,,,,,,,,masks/mask_001.jpg,,,,,,,,,,,,,,,,,,,,,,,,,,,,,,,,,,,,,,,,,,,0,2,2,0,1,,,,,,,,,,,,,,,,,,,,,,,,,,,,,,,,,,,,,,,,,,,,,,
934579,001,2022-11-14_24h26.25.492,Info_measure_main_exp,2022.2.2,Win32,60.24459305,,,,,,,,,,,,,,,,,,masks/mask_002.jpg,,,,,,,,,,,,,,,,,,,,,,,,,,,,,,,,,,,,,,,,,,,0,3,3,1,1,,,,,,,,,,,,,,,,,,,,,,,,,,,,,,,,,,,,,,,,,,,,,,
934579,001,2022-11-14_24h26.25.492,Info_measure_main_exp,2022.2.2,Win32,60.24459305,,,,,,,,,,,,,,,,,,masks/mask_005.jpg,,,,,,,,,,,,,,,,,,,,,,,,,,,,,,,,,,,,,,,,,,,0,4,4,4,1,,,,,,,,,,,,,,,,,,,,,,,,,,,,,,,,,,,,,,,,,,,,,,
934579,001,2022-11-14_24h26.25.492,Info_measure_main_exp,2022.2.2,Win32,60.24459305,,,,,,,,,,,,,,,,,,masks/mask_002.jpg,,,,,,,,,,,,,,,,,,,,,,,,,,,,,,,,,,,,,,,,,,,,,,,,0,0,0,1,1,,,,,,,,,,,,,,,,,,,,,,,,,,,,,,,,,,,,,,,,,
934579,001,2022-11-14_24h26.25.492,Info_measure_main_exp,2022.2.2,Win32,60.24459305,,,,,,,,,,,,,,,,,,masks/mask_001.jpg,,,,,,,,,,,,,,,,,,,,,,,,,,,,,,,,,,,,,,,,,,,,,,,,0,1,1,0,1,,,,,,,,,,,,,,,,,,,,,,,,,,,,,,,,,,,,,,,,,
934579,001,2022-11-14_24h26.25.492,Info_measure_main_exp,2022.2.2,Win32,60.24459305,,,,,,,,,,,,,,,,,,masks/mask_004.jpg,,,,,,,,,,,,,,,,,,,,,,,,,,,,,,,,,,,,,,,,,,,,,,,,0,2,2,3,1,,,,,,,,,,,,,,,,,,,,,,,,,,,,,,,,,,,,,,,,,
934579,001,2022-11-14_24h26.25.492,Info_measure_main_exp,2022.2.2,Win32,60.24459305,,,,,,,,,,,,,,,,,,masks/mask_005.jpg,,,,,,,,,,,,,,,,,,,,,,,,,,,,,,,,,,,,,,,,,,,,,,,,0,3,3,4,1,,,,,,,,,,,,,,,,,,,,,,,,,,,,,,,,,,,,,,,,,
934579,001,2022-11-14_24h26.25.492,Info_measure_main_exp,2022.2.2,Win32,60.24459305,,,,,,,,,,,,,,,,,,masks/mask_003.jpg,,,,,,,,,,,,,,,,,,,,,,,,,,,,,,,,,,,,,,,,,,,,,,,,0,4,4,2,1,,,,,,,,,,,,,,,,,,,,,,,,,,,,,,,,,,,,,,,,,
934579,001,2022-11-14_24h26.25.492,Info_measure_main_exp,2022.2.2,Win32,60.24459305,,,,,,,,,,,,,,,,,,,,,,,,,,,,,,0,0.5496,1,,,,,,,,,,,,0,131,5,5,2298,2298,absent_patch/patch0002298.jpg,absent_patch/patch0002298.jpg,,,,,,,,,,,,,,,,,,,,-0.023148148,0.099074081,1,0,0,response7disk,11,-0.003703718,0.003703683,1,0,0,center_square,0,10,10,37,1,,,,,,,,,,,,,,,,,,,,,,,
934579,001,2022-11-14_24h26.25.492,Info_measure_main_exp,2022.2.2,Win32,60.24459305,,,,,,,,,,,,,,,,,,masks/mask_005.jpg,,,,,,,,,,,,,,,,,,,,,,,,,,,,,,,,,,,,,,,,,,,0,0,0,4,1,,,,,,,,,,,,,,,,,,,,,,,,,,,,,,,,,,,,,,,,,,,,,,
934579,001,2022-11-14_24h26.25.492,Info_measure_main_exp,2022.2.2,Win32,60.24459305,,,,,,,,,,,,,,,,,,masks/mask_003.jpg,,,,,,,,,,,,,,,,,,,,,,,,,,,,,,,,,,,,,,,,,,,0,1,1,2,1,,,,,,,,,,,,,,,,,,,,,,,,,,,,,,,,,,,,,,,,,,,,,,
934579,001,2022-11-14_24h26.25.492,Info_measure_main_exp,2022.2.2,Win32,60.24459305,,,,,,,,,,,,,,,,,,masks/mask_004.jpg,,,,,,,,,,,,,,,,,,,,,,,,,,,,,,,,,,,,,,,,,,,0,2,2,3,1,,,,,,,,,,,,,,,,,,,,,,,,,,,,,,,,,,,,,,,,,,,,,,
934579,001,2022-11-14_24h26.25.492,Info_measure_main_exp,2022.2.2,Win32,60.24459305,,,,,,,,,,,,,,,,,,masks/mask_002.jpg,,,,,,,,,,,,,,,,,,,,,,,,,,,,,,,,,,,,,,,,,,,0,3,3,1,1,,,,,,,,,,,,,,,,,,,,,,,,,,,,,,,,,,,,,,,,,,,,,,
934579,001,2022-11-14_24h26.25.492,Info_measure_main_exp,2022.2.2,Win32,60.24459305,,,,,,,,,,,,,,,,,,masks/mask_001.jpg,,,,,,,,,,,,,,,,,,,,,,,,,,,,,,,,,,,,,,,,,,,0,4,4,0,1,,,,,,,,,,,,,,,,,,,,,,,,,,,,,,,,,,,,,,,,,,,,,,
934579,001,2022-11-14_24h26.25.492,Info_measure_main_exp,2022.2.2,Win32,60.24459305,,,,,,,,,,,,,,,,,,masks/mask_004.jpg,,,,,,,,,,,,,,,,,,,,,,,,,,,,,,,,,,,,,,,,,,,,,,,,0,0,0,3,1,,,,,,,,,,,,,,,,,,,,,,,,,,,,,,,,,,,,,,,,,
934579,001,2022-11-14_24h26.25.492,Info_measure_main_exp,2022.2.2,Win32,60.24459305,,,,,,,,,,,,,,,,,,masks/mask_005.jpg,,,,,,,,,,,,,,,,,,,,,,,,,,,,,,,,,,,,,,,,,,,,,,,,0,1,1,4,1,,,,,,,,,,,,,,,,,,,,,,,,,,,,,,,,,,,,,,,,,
934579,001,2022-11-14_24h26.25.492,Info_measure_main_exp,2022.2.2,Win32,60.24459305,,,,,,,,,,,,,,,,,,masks/mask_003.jpg,,,,,,,,,,,,,,,,,,,,,,,,,,,,,,,,,,,,,,,,,,,,,,,,0,2,2,2,1,,,,,,,,,,,,,,,,,,,,,,,,,,,,,,,,,,,,,,,,,
934579,001,2022-11-14_24h26.25.492,Info_measure_main_exp,2022.2.2,Win32,60.24459305,,,,,,,,,,,,,,,,,,masks/mask_001.jpg,,,,,,,,,,,,,,,,,,,,,,,,,,,,,,,,,,,,,,,,,,,,,,,,0,3,3,0,1,,,,,,,,,,,,,,,,,,,,,,,,,,,,,,,,,,,,,,,,,
934579,001,2022-11-14_24h26.25.492,Info_measure_main_exp,2022.2.2,Win32,60.24459305,,,,,,,,,,,,,,,,,,masks/mask_002.jpg,,,,,,,,,,,,,,,,,,,,,,,,,,,,,,,,,,,,,,,,,,,,,,,,0,4,4,1,1,,,,,,,,,,,,,,,,,,,,,,,,,,,,,,,,,,,,,,,,,
934579,001,2022-11-14_24h26.25.492,Info_measure_main_exp,2022.2.2,Win32,60.24459305,,,,,,,,,,,,,,,,,,,,,,,,,,,,,,7,1.9327,1,,,,,,,,,,,,0,131,5,5,2154,2190,absent_patch/patch0002154.jpg,absent_patch/patch0002190.jpg,,,,,,,,,,,,,,,,,,,,0.037962949,0.103703711,1,0,0,response1disk,12,0,0.002777771,1,0,0,center_square,0,11,11,68,1,,,,,,,,,,,,,,,,,,,,,,,
934579,001,2022-11-14_24h26.25.492,Info_measure_main_exp,2022.2.2,Win32,60.24459305,,,,,,,,,,,,,,,,,,masks/mask_002.jpg,,,,,,,,,,,,,,,,,,,,,,,,,,,,,,,,,,,,,,,,,,,0,0,0,1,1,,,,,,,,,,,,,,,,,,,,,,,,,,,,,,,,,,,,,,,,,,,,,,
934579,001,2022-11-14_24h26.25.492,Info_measure_main_exp,2022.2.2,Win32,60.24459305,,,,,,,,,,,,,,,,,,masks/mask_003.jpg,,,,,,,,,,,,,,,,,,,,,,,,,,,,,,,,,,,,,,,,,,,0,1,1,2,1,,,,,,,,,,,,,,,,,,,,,,,,,,,,,,,,,,,,,,,,,,,,,,
934579,001,2022-11-14_24h26.25.492,Info_measure_main_exp,2022.2.2,Win32,60.24459305,,,,,,,,,,,,,,,,,,masks/mask_001.jpg,,,,,,,,,,,,,,,,,,,,,,,,,,,,,,,,,,,,,,,,,,,0,2,2,0,1,,,,,,,,,,,,,,,,,,,,,,,,,,,,,,,,,,,,,,,,,,,,,,
934579,001,2022-11-14_24h26.25.492,Info_measure_main_exp,2022.2.2,Win32,60.24459305,,,,,,,,,,,,,,,,,,masks/mask_004.jpg,,,,,,,,,,,,,,,,,,,,,,,,,,,,,,,,,,,,,,,,,,,0,3,3,3,1,,,,,,,,,,,,,,,,,,,,,,,,,,,,,,,,,,,,,,,,,,,,,,
934579,001,2022-11-14_24h26.25.492,Info_measure_main_exp,2022.2.2,Win32,60.24459305,,,,,,,,,,,,,,,,,,masks/mask_005.jpg,,,,,,,,,,,,,,,,,,,,,,,,,,,,,,,,,,,,,,,,,,,0,4,4,4,1,,,,,,,,,,,,,,,,,,,,,,,,,,,,,,,,,,,,,,,,,,,,,,
934579,001,2022-11-14_24h26.25.492,Info_measure_main_exp,2022.2.2,Win32,60.24459305,,,,,,,,,,,,,,,,,,masks/mask_002.jpg,,,,,,,,,,,,,,,,,,,,,,,,,,,,,,,,,,,,,,,,,,,,,,,,0,0,0,1,1,,,,,,,,,,,,,,,,,,,,,,,,,,,,,,,,,,,,,,,,,
934579,001,2022-11-14_24h26.25.492,Info_measure_main_exp,2022.2.2,Win32,60.24459305,,,,,,,,,,,,,,,,,,masks/mask_005.jpg,,,,,,,,,,,,,,,,,,,,,,,,,,,,,,,,,,,,,,,,,,,,,,,,0,1,1,4,1,,,,,,,,,,,,,,,,,,,,,,,,,,,,,,,,,,,,,,,,,
934579,001,2022-11-14_24h26.25.492,Info_measure_main_exp,2022.2.2,Win32,60.24459305,,,,,,,,,,,,,,,,,,masks/mask_004.jpg,,,,,,,,,,,,,,,,,,,,,,,,,,,,,,,,,,,,,,,,,,,,,,,,0,2,2,3,1,,,,,,,,,,,,,,,,,,,,,,,,,,,,,,,,,,,,,,,,,
934579,001,2022-11-14_24h26.25.492,Info_measure_main_exp,2022.2.2,Win32,60.24459305,,,,,,,,,,,,,,,,,,masks/mask_003.jpg,,,,,,,,,,,,,,,,,,,,,,,,,,,,,,,,,,,,,,,,,,,,,,,,0,3,3,2,1,,,,,,,,,,,,,,,,,,,,,,,,,,,,,,,,,,,,,,,,,
934579,001,2022-11-14_24h26.25.492,Info_measure_main_exp,2022.2.2,Win32,60.24459305,,,,,,,,,,,,,,,,,,masks/mask_001.jpg,,,,,,,,,,,,,,,,,,,,,,,,,,,,,,,,,,,,,,,,,,,,,,,,0,4,4,0,1,,,,,,,,,,,,,,,,,,,,,,,,,,,,,,,,,,,,,,,,,
934579,001,2022-11-14_24h26.25.492,Info_measure_main_exp,2022.2.2,Win32,60.24459305,,,,,,,,,,,,,,,,,,,,,,,,,,,,,,6,1.5995,1,,,,,,,,,,,,0,131,5,5,2082,1974,absent_patch/patch0002082.jpg,absent_patch/patch0001974.jpg,,,,,,,,,,,,,,,,,,,,0.10555557,0.042592578,1,0,0,response1disk,13,0.002777806,-0.008333347,1,0,0,center_square,0,12,12,26,1,,,,,,,,,,,,,,,,,,,,,,,
934579,001,2022-11-14_24h26.25.492,Info_measure_main_exp,2022.2.2,Win32,60.24459305,,,,,,,,,,,,,,,,,,masks/mask_002.jpg,,,,,,,,,,,,,,,,,,,,,,,,,,,,,,,,,,,,,,,,,,,0,0,0,1,1,,,,,,,,,,,,,,,,,,,,,,,,,,,,,,,,,,,,,,,,,,,,,,
934579,001,2022-11-14_24h26.25.492,Info_measure_main_exp,2022.2.2,Win32,60.24459305,,,,,,,,,,,,,,,,,,masks/mask_001.jpg,,,,,,,,,,,,,,,,,,,,,,,,,,,,,,,,,,,,,,,,,,,0,1,1,0,1,,,,,,,,,,,,,,,,,,,,,,,,,,,,,,,,,,,,,,,,,,,,,,
934579,001,2022-11-14_24h26.25.492,Info_measure_main_exp,2022.2.2,Win32,60.24459305,,,,,,,,,,,,,,,,,,masks/mask_004.jpg,,,,,,,,,,,,,,,,,,,,,,,,,,,,,,,,,,,,,,,,,,,0,2,2,3,1,,,,,,,,,,,,,,,,,,,,,,,,,,,,,,,,,,,,,,,,,,,,,,
934579,001,2022-11-14_24h26.25.492,Info_measure_main_exp,2022.2.2,Win32,60.24459305,,,,,,,,,,,,,,,,,,masks/mask_005.jpg,,,,,,,,,,,,,,,,,,,,,,,,,,,,,,,,,,,,,,,,,,,0,3,3,4,1,,,,,,,,,,,,,,,,,,,,,,,,,,,,,,,,,,,,,,,,,,,,,,
934579,001,2022-11-14_24h26.25.492,Info_measure_main_exp,2022.2.2,Win32,60.24459305,,,,,,,,,,,,,,,,,,masks/mask_003.jpg,,,,,,,,,,,,,,,,,,,,,,,,,,,,,,,,,,,,,,,,,,,0,4,4,2,1,,,,,,,,,,,,,,,,,,,,,,,,,,,,,,,,,,,,,,,,,,,,,,
934579,001,2022-11-14_24h26.25.492,Info_measure_main_exp,2022.2.2,Win32,60.24459305,,,,,,,,,,,,,,,,,,masks/mask_002.jpg,,,,,,,,,,,,,,,,,,,,,,,,,,,,,,,,,,,,,,,,,,,,,,,,0,0,0,1,1,,,,,,,,,,,,,,,,,,,,,,,,,,,,,,,,,,,,,,,,,
934579,001,2022-11-14_24h26.25.492,Info_measure_main_exp,2022.2.2,Win32,60.24459305,,,,,,,,,,,,,,,,,,masks/mask_001.jpg,,,,,,,,,,,,,,,,,,,,,,,,,,,,,,,,,,,,,,,,,,,,,,,,0,1,1,0,1,,,,,,,,,,,,,,,,,,,,,,,,,,,,,,,,,,,,,,,,,
934579,001,2022-11-14_24h26.25.492,Info_measure_main_exp,2022.2.2,Win32,60.24459305,,,,,,,,,,,,,,,,,,masks/mask_004.jpg,,,,,,,,,,,,,,,,,,,,,,,,,,,,,,,,,,,,,,,,,,,,,,,,0,2,2,3,1,,,,,,,,,,,,,,,,,,,,,,,,,,,,,,,,,,,,,,,,,
934579,001,2022-11-14_24h26.25.492,Info_measure_main_exp,2022.2.2,Win32,60.24459305,,,,,,,,,,,,,,,,,,masks/mask_005.jpg,,,,,,,,,,,,,,,,,,,,,,,,,,,,,,,,,,,,,,,,,,,,,,,,0,3,3,4,1,,,,,,,,,,,,,,,,,,,,,,,,,,,,,,,,,,,,,,,,,
934579,001,2022-11-14_24h26.25.492,Info_measure_main_exp,2022.2.2,Win32,60.24459305,,,,,,,,,,,,,,,,,,masks/mask_003.jpg,,,,,,,,,,,,,,,,,,,,,,,,,,,,,,,,,,,,,,,,,,,,,,,,0,4,4,2,1,,,,,,,,,,,,,,,,,,,,,,,,,,,,,,,,,,,,,,,,,
934579,001,2022-11-14_24h26.25.492,Info_measure_main_exp,2022.2.2,Win32,60.24459305,,,,,,,,,,,,,,,,,,,,,,,,,,,,,,7,0.8998,1,,,,,,,,,,,,0,131,5,5,2142,2190,absent_patch/patch0002142.jpg,absent_patch/patch0002190.jpg,,,,,,,,,,,,,,,,,,,,0.068518533,0.123148141,1,0,0,response1disk,14,0.010185171,-0.001851859,1,0,0,center_square,0,13,13,70,1,,,,,,,,,,,,,,,,,,,,,,,
934579,001,2022-11-14_24h26.25.492,Info_measure_main_exp,2022.2.2,Win32,60.24459305,,,,,,,,,,,,,,,,,,masks/mask_005.jpg,,,,,,,,,,,,,,,,,,,,,,,,,,,,,,,,,,,,,,,,,,,0,0,0,4,1,,,,,,,,,,,,,,,,,,,,,,,,,,,,,,,,,,,,,,,,,,,,,,
934579,001,2022-11-14_24h26.25.492,Info_measure_main_exp,2022.2.2,Win32,60.24459305,,,,,,,,,,,,,,,,,,masks/mask_004.jpg,,,,,,,,,,,,,,,,,,,,,,,,,,,,,,,,,,,,,,,,,,,0,1,1,3,1,,,,,,,,,,,,,,,,,,,,,,,,,,,,,,,,,,,,,,,,,,,,,,
934579,001,2022-11-14_24h26.25.492,Info_measure_main_exp,2022.2.2,Win32,60.24459305,,,,,,,,,,,,,,,,,,masks/mask_002.jpg,,,,,,,,,,,,,,,,,,,,,,,,,,,,,,,,,,,,,,,,,,,0,2,2,1,1,,,,,,,,,,,,,,,,,,,,,,,,,,,,,,,,,,,,,,,,,,,,,,
934579,001,2022-11-14_24h26.25.492,Info_measure_main_exp,2022.2.2,Win32,60.24459305,,,,,,,,,,,,,,,,,,masks/mask_001.jpg,,,,,,,,,,,,,,,,,,,,,,,,,,,,,,,,,,,,,,,,,,,0,3,3,0,1,,,,,,,,,,,,,,,,,,,,,,,,,,,,,,,,,,,,,,,,,,,,,,
934579,001,2022-11-14_24h26.25.492,Info_measure_main_exp,2022.2.2,Win32,60.24459305,,,,,,,,,,,,,,,,,,masks/mask_003.jpg,,,,,,,,,,,,,,,,,,,,,,,,,,,,,,,,,,,,,,,,,,,0,4,4,2,1,,,,,,,,,,,,,,,,,,,,,,,,,,,,,,,,,,,,,,,,,,,,,,
934579,001,2022-11-14_24h26.25.492,Info_measure_main_exp,2022.2.2,Win32,60.24459305,,,,,,,,,,,,,,,,,,masks/mask_003.jpg,,,,,,,,,,,,,,,,,,,,,,,,,,,,,,,,,,,,,,,,,,,,,,,,0,0,0,2,1,,,,,,,,,,,,,,,,,,,,,,,,,,,,,,,,,,,,,,,,,
934579,001,2022-11-14_24h26.25.492,Info_measure_main_exp,2022.2.2,Win32,60.24459305,,,,,,,,,,,,,,,,,,masks/mask_005.jpg,,,,,,,,,,,,,,,,,,,,,,,,,,,,,,,,,,,,,,,,,,,,,,,,0,1,1,4,1,,,,,,,,,,,,,,,,,,,,,,,,,,,,,,,,,,,,,,,,,
934579,001,2022-11-14_24h26.25.492,Info_measure_main_exp,2022.2.2,Win32,60.24459305,,,,,,,,,,,,,,,,,,masks/mask_001.jpg,,,,,,,,,,,,,,,,,,,,,,,,,,,,,,,,,,,,,,,,,,,,,,,,0,2,2,0,1,,,,,,,,,,,,,,,,,,,,,,,,,,,,,,,,,,,,,,,,,
934579,001,2022-11-14_24h26.25.492,Info_measure_main_exp,2022.2.2,Win32,60.24459305,,,,,,,,,,,,,,,,,,masks/mask_004.jpg,,,,,,,,,,,,,,,,,,,,,,,,,,,,,,,,,,,,,,,,,,,,,,,,0,3,3,3,1,,,,,,,,,,,,,,,,,,,,,,,,,,,,,,,,,,,,,,,,,
934579,001,2022-11-14_24h26.25.492,Info_measure_main_exp,2022.2.2,Win32,60.24459305,,,,,,,,,,,,,,,,,,masks/mask_002.jpg,,,,,,,,,,,,,,,,,,,,,,,,,,,,,,,,,,,,,,,,,,,,,,,,0,4,4,1,1,,,,,,,,,,,,,,,,,,,,,,,,,,,,,,,,,,,,,,,,,
934579,001,2022-11-14_24h26.25.492,Info_measure_main_exp,2022.2.2,Win32,60.24459305,,,,,,,,,,,,,,,,,,,,,,,,,,,,,,7,0.6328,1,,,,,,,,,,,,0,131,5,5,2298,2178,absent_patch/patch0002298.jpg,absent_patch/patch0002178.jpg,,,,,,,,,,,,,,,,,,,,0.056481467,0.116666653,1,0,0,response1disk,15,0.000925912,-0.00462963,1,0,0,center_square,0,14,14,84,1,,,,,,,,,,,,,,,,,,,,,,,
934579,001,2022-11-14_24h26.25.492,Info_measure_main_exp,2022.2.2,Win32,60.24459305,,,,,,,,,,,,,,,,,,masks/mask_001.jpg,,,,,,,,,,,,,,,,,,,,,,,,,,,,,,,,,,,,,,,,,,,0,0,0,0,1,,,,,,,,,,,,,,,,,,,,,,,,,,,,,,,,,,,,,,,,,,,,,,
934579,001,2022-11-14_24h26.25.492,Info_measure_main_exp,2022.2.2,Win32,60.24459305,,,,,,,,,,,,,,,,,,masks/mask_002.jpg,,,,,,,,,,,,,,,,,,,,,,,,,,,,,,,,,,,,,,,,,,,0,1,1,1,1,,,,,,,,,,,,,,,,,,,,,,,,,,,,,,,,,,,,,,,,,,,,,,
934579,001,2022-11-14_24h26.25.492,Info_measure_main_exp,2022.2.2,Win32,60.24459305,,,,,,,,,,,,,,,,,,masks/mask_004.jpg,,,,,,,,,,,,,,,,,,,,,,,,,,,,,,,,,,,,,,,,,,,0,2,2,3,1,,,,,,,,,,,,,,,,,,,,,,,,,,,,,,,,,,,,,,,,,,,,,,
934579,001,2022-11-14_24h26.25.492,Info_measure_main_exp,2022.2.2,Win32,60.24459305,,,,,,,,,,,,,,,,,,masks/mask_005.jpg,,,,,,,,,,,,,,,,,,,,,,,,,,,,,,,,,,,,,,,,,,,0,3,3,4,1,,,,,,,,,,,,,,,,,,,,,,,,,,,,,,,,,,,,,,,,,,,,,,
934579,001,2022-11-14_24h26.25.492,Info_measure_main_exp,2022.2.2,Win32,60.24459305,,,,,,,,,,,,,,,,,,masks/mask_003.jpg,,,,,,,,,,,,,,,,,,,,,,,,,,,,,,,,,,,,,,,,,,,0,4,4,2,1,,,,,,,,,,,,,,,,,,,,,,,,,,,,,,,,,,,,,,,,,,,,,,
934579,001,2022-11-14_24h26.25.492,Info_measure_main_exp,2022.2.2,Win32,60.24459305,,,,,,,,,,,,,,,,,,masks/mask_002.jpg,,,,,,,,,,,,,,,,,,,,,,,,,,,,,,,,,,,,,,,,,,,,,,,,0,0,0,1,1,,,,,,,,,,,,,,,,,,,,,,,,,,,,,,,,,,,,,,,,,
934579,001,2022-11-14_24h26.25.492,Info_measure_main_exp,2022.2.2,Win32,60.24459305,,,,,,,,,,,,,,,,,,masks/mask_001.jpg,,,,,,,,,,,,,,,,,,,,,,,,,,,,,,,,,,,,,,,,,,,,,,,,0,1,1,0,1,,,,,,,,,,,,,,,,,,,,,,,,,,,,,,,,,,,,,,,,,
934579,001,2022-11-14_24h26.25.492,Info_measure_main_exp,2022.2.2,Win32,60.24459305,,,,,,,,,,,,,,,,,,masks/mask_003.jpg,,,,,,,,,,,,,,,,,,,,,,,,,,,,,,,,,,,,,,,,,,,,,,,,0,2,2,2,1,,,,,,,,,,,,,,,,,,,,,,,,,,,,,,,,,,,,,,,,,
934579,001,2022-11-14_24h26.25.492,Info_measure_main_exp,2022.2.2,Win32,60.24459305,,,,,,,,,,,,,,,,,,masks/mask_004.jpg,,,,,,,,,,,,,,,,,,,,,,,,,,,,,,,,,,,,,,,,,,,,,,,,0,3,3,3,1,,,,,,,,,,,,,,,,,,,,,,,,,,,,,,,,,,,,,,,,,
934579,001,2022-11-14_24h26.25.492,Info_measure_main_exp,2022.2.2,Win32,60.24459305,,,,,,,,,,,,,,,,,,masks/mask_005.jpg,,,,,,,,,,,,,,,,,,,,,,,,,,,,,,,,,,,,,,,,,,,,,,,,0,4,4,4,1,,,,,,,,,,,,,,,,,,,,,,,,,,,,,,,,,,,,,,,,,
934579,001,2022-11-14_24h26.25.492,Info_measure_main_exp,2022.2.2,Win32,60.24459305,,,,,,,,,,,,,,,,,,,,,,,,,,,,,,7,0.5,1,,,,,,,,,,,,0,131,5,5,1974,2166,absent_patch/patch0001974.jpg,absent_patch/patch0002166.jpg,,,,,,,,,,,,,,,,,,,,0.050000014,0.11296297,1,0,0,response1disk,16,-0.000925912,-0.000925947,1,0,0,center_square,0,15,15,77,1,,,,,,,,,,,,,,,,,,,,,,,
934579,001,2022-11-14_24h26.25.492,Info_measure_main_exp,2022.2.2,Win32,60.24459305,,,,,,,,,,,,,,,,,,masks/mask_005.jpg,,,,,,,,,,,,,,,,,,,,,,,,,,,,,,,,,,,,,,,,,,,0,0,0,4,1,,,,,,,,,,,,,,,,,,,,,,,,,,,,,,,,,,,,,,,,,,,,,,
934579,001,2022-11-14_24h26.25.492,Info_measure_main_exp,2022.2.2,Win32,60.24459305,,,,,,,,,,,,,,,,,,masks/mask_001.jpg,,,,,,,,,,,,,,,,,,,,,,,,,,,,,,,,,,,,,,,,,,,0,1,1,0,1,,,,,,,,,,,,,,,,,,,,,,,,,,,,,,,,,,,,,,,,,,,,,,
934579,001,2022-11-14_24h26.25.492,Info_measure_main_exp,2022.2.2,Win32,60.24459305,,,,,,,,,,,,,,,,,,masks/mask_002.jpg,,,,,,,,,,,,,,,,,,,,,,,,,,,,,,,,,,,,,,,,,,,0,2,2,1,1,,,,,,,,,,,,,,,,,,,,,,,,,,,,,,,,,,,,,,,,,,,,,,
934579,001,2022-11-14_24h26.25.492,Info_measure_main_exp,2022.2.2,Win32,60.24459305,,,,,,,,,,,,,,,,,,masks/mask_003.jpg,,,,,,,,,,,,,,,,,,,,,,,,,,,,,,,,,,,,,,,,,,,0,3,3,2,1,,,,,,,,,,,,,,,,,,,,,,,,,,,,,,,,,,,,,,,,,,,,,,
934579,001,2022-11-14_24h26.25.492,Info_measure_main_exp,2022.2.2,Win32,60.24459305,,,,,,,,,,,,,,,,,,masks/mask_004.jpg,,,,,,,,,,,,,,,,,,,,,,,,,,,,,,,,,,,,,,,,,,,0,4,4,3,1,,,,,,,,,,,,,,,,,,,,,,,,,,,,,,,,,,,,,,,,,,,,,,
934579,001,2022-11-14_24h26.25.492,Info_measure_main_exp,2022.2.2,Win32,60.24459305,,,,,,,,,,,,,,,,,,masks/mask_001.jpg,,,,,,,,,,,,,,,,,,,,,,,,,,,,,,,,,,,,,,,,,,,,,,,,0,0,0,0,1,,,,,,,,,,,,,,,,,,,,,,,,,,,,,,,,,,,,,,,,,
934579,001,2022-11-14_24h26.25.492,Info_measure_main_exp,2022.2.2,Win32,60.24459305,,,,,,,,,,,,,,,,,,masks/mask_004.jpg,,,,,,,,,,,,,,,,,,,,,,,,,,,,,,,,,,,,,,,,,,,,,,,,0,1,1,3,1,,,,,,,,,,,,,,,,,,,,,,,,,,,,,,,,,,,,,,,,,
934579,001,2022-11-14_24h26.25.492,Info_measure_main_exp,2022.2.2,Win32,60.24459305,,,,,,,,,,,,,,,,,,masks/mask_002.jpg,,,,,,,,,,,,,,,,,,,,,,,,,,,,,,,,,,,,,,,,,,,,,,,,0,2,2,1,1,,,,,,,,,,,,,,,,,,,,,,,,,,,,,,,,,,,,,,,,,
934579,001,2022-11-14_24h26.25.492,Info_measure_main_exp,2022.2.2,Win32,60.24459305,,,,,,,,,,,,,,,,,,masks/mask_003.jpg,,,,,,,,,,,,,,,,,,,,,,,,,,,,,,,,,,,,,,,,,,,,,,,,0,3,3,2,1,,,,,,,,,,,,,,,,,,,,,,,,,,,,,,,,,,,,,,,,,
934579,001,2022-11-14_24h26.25.492,Info_measure_main_exp,2022.2.2,Win32,60.24459305,,,,,,,,,,,,,,,,,,masks/mask_005.jpg,,,,,,,,,,,,,,,,,,,,,,,,,,,,,,,,,,,,,,,,,,,,,,,,0,4,4,4,1,,,,,,,,,,,,,,,,,,,,,,,,,,,,,,,,,,,,,,,,,
934579,001,2022-11-14_24h26.25.492,Info_measure_main_exp,2022.2.2,Win32,60.24459305,,,,,,,,,,,,,,,,,,,,,,,,,,,,,,7,0.4833,1,,,,,,,,,,,,0,131,5,5,2250,1986,absent_patch/patch0002250.jpg,absent_patch/patch0001986.jpg,,,,,,,,,,,,,,,,,,,,0.026851866,0.081481474,1,0,0,response1disk,17,-0.002777735,-0.011111118,1,0,0,center_square,0,16,16,29,1,,,,,,,,,,,,,,,,,,,,,,,
934579,001,2022-11-14_24h26.25.492,Info_measure_main_exp,2022.2.2,Win32,60.24459305,,,,,,,,,,,,,,,,,,masks/mask_002.jpg,,,,,,,,,,,,,,,,,,,,,,,,,,,,,,,,,,,,,,,,,,,0,0,0,1,1,,,,,,,,,,,,,,,,,,,,,,,,,,,,,,,,,,,,,,,,,,,,,,
934579,001,2022-11-14_24h26.25.492,Info_measure_main_exp,2022.2.2,Win32,60.24459305,,,,,,,,,,,,,,,,,,masks/mask_001.jpg,,,,,,,,,,,,,,,,,,,,,,,,,,,,,,,,,,,,,,,,,,,0,1,1,0,1,,,,,,,,,,,,,,,,,,,,,,,,,,,,,,,,,,,,,,,,,,,,,,
934579,001,2022-11-14_24h26.25.492,Info_measure_main_exp,2022.2.2,Win32,60.24459305,,,,,,,,,,,,,,,,,,masks/mask_005.jpg,,,,,,,,,,,,,,,,,,,,,,,,,,,,,,,,,,,,,,,,,,,0,2,2,4,1,,,,,,,,,,,,,,,,,,,,,,,,,,,,,,,,,,,,,,,,,,,,,,
934579,001,2022-11-14_24h26.25.492,Info_measure_main_exp,2022.2.2,Win32,60.24459305,,,,,,,,,,,,,,,,,,masks/mask_004.jpg,,,,,,,,,,,,,,,,,,,,,,,,,,,,,,,,,,,,,,,,,,,0,3,3,3,1,,,,,,,,,,,,,,,,,,,,,,,,,,,,,,,,,,,,,,,,,,,,,,
934579,001,2022-11-14_24h26.25.492,Info_measure_main_exp,2022.2.2,Win32,60.24459305,,,,,,,,,,,,,,,,,,masks/mask_003.jpg,,,,,,,,,,,,,,,,,,,,,,,,,,,,,,,,,,,,,,,,,,,0,4,4,2,1,,,,,,,,,,,,,,,,,,,,,,,,,,,,,,,,,,,,,,,,,,,,,,
934579,001,2022-11-14_24h26.25.492,Info_measure_main_exp,2022.2.2,Win32,60.24459305,,,,,,,,,,,,,,,,,,masks/mask_005.jpg,,,,,,,,,,,,,,,,,,,,,,,,,,,,,,,,,,,,,,,,,,,,,,,,0,0,0,4,1,,,,,,,,,,,,,,,,,,,,,,,,,,,,,,,,,,,,,,,,,
934579,001,2022-11-14_24h26.25.492,Info_measure_main_exp,2022.2.2,Win32,60.24459305,,,,,,,,,,,,,,,,,,masks/mask_003.jpg,,,,,,,,,,,,,,,,,,,,,,,,,,,,,,,,,,,,,,,,,,,,,,,,0,1,1,2,1,,,,,,,,,,,,,,,,,,,,,,,,,,,,,,,,,,,,,,,,,
934579,001,2022-11-14_24h26.25.492,Info_measure_main_exp,2022.2.2,Win32,60.24459305,,,,,,,,,,,,,,,,,,masks/mask_004.jpg,,,,,,,,,,,,,,,,,,,,,,,,,,,,,,,,,,,,,,,,,,,,,,,,0,2,2,3,1,,,,,,,,,,,,,,,,,,,,,,,,,,,,,,,,,,,,,,,,,
934579,001,2022-11-14_24h26.25.492,Info_measure_main_exp,2022.2.2,Win32,60.24459305,,,,,,,,,,,,,,,,,,masks/mask_002.jpg,,,,,,,,,,,,,,,,,,,,,,,,,,,,,,,,,,,,,,,,,,,,,,,,0,3,3,1,1,,,,,,,,,,,,,,,,,,,,,,,,,,,,,,,,,,,,,,,,,
934579,001,2022-11-14_24h26.25.492,Info_measure_main_exp,2022.2.2,Win32,60.24459305,,,,,,,,,,,,,,,,,,masks/mask_001.jpg,,,,,,,,,,,,,,,,,,,,,,,,,,,,,,,,,,,,,,,,,,,,,,,,0,4,4,0,1,,,,,,,,,,,,,,,,,,,,,,,,,,,,,,,,,,,,,,,,,
934579,001,2022-11-14_24h26.25.492,Info_measure_main_exp,2022.2.2,Win32,60.24459305,,,,,,,,,,,,,,,,,,,,,,,,,,,,,,0,0.5332,1,,,,,,,,,,,,0,131,5,5,2214,2214,absent_patch/patch0002214.jpg,absent_patch/patch0002214.jpg,,,,,,,,,,,,,,,,,,,,-0.031481496,0.125,1,0,0,response7disk,18,-0.000925912,0.002777771,1,0,0,center_square,0,17,17,115,1,,,,,,,,,,,,,,,,,,,,,,,
934579,001,2022-11-14_24h26.25.492,Info_measure_main_exp,2022.2.2,Win32,60.24459305,,,,,,,,,,,,,,,,,,masks/mask_005.jpg,,,,,,,,,,,,,,,,,,,,,,,,,,,,,,,,,,,,,,,,,,,0,0,0,4,1,,,,,,,,,,,,,,,,,,,,,,,,,,,,,,,,,,,,,,,,,,,,,,
934579,001,2022-11-14_24h26.25.492,Info_measure_main_exp,2022.2.2,Win32,60.24459305,,,,,,,,,,,,,,,,,,masks/mask_004.jpg,,,,,,,,,,,,,,,,,,,,,,,,,,,,,,,,,,,,,,,,,,,0,1,1,3,1,,,,,,,,,,,,,,,,,,,,,,,,,,,,,,,,,,,,,,,,,,,,,,
934579,001,2022-11-14_24h26.25.492,Info_measure_main_exp,2022.2.2,Win32,60.24459305,,,,,,,,,,,,,,,,,,masks/mask_002.jpg,,,,,,,,,,,,,,,,,,,,,,,,,,,,,,,,,,,,,,,,,,,0,2,2,1,1,,,,,,,,,,,,,,,,,,,,,,,,,,,,,,,,,,,,,,,,,,,,,,
934579,001,2022-11-14_24h26.25.492,Info_measure_main_exp,2022.2.2,Win32,60.24459305,,,,,,,,,,,,,,,,,,masks/mask_003.jpg,,,,,,,,,,,,,,,,,,,,,,,,,,,,,,,,,,,,,,,,,,,0,3,3,2,1,,,,,,,,,,,,,,,,,,,,,,,,,,,,,,,,,,,,,,,,,,,,,,
934579,001,2022-11-14_24h26.25.492,Info_measure_main_exp,2022.2.2,Win32,60.24459305,,,,,,,,,,,,,,,,,,masks/mask_001.jpg,,,,,,,,,,,,,,,,,,,,,,,,,,,,,,,,,,,,,,,,,,,0,4,4,0,1,,,,,,,,,,,,,,,,,,,,,,,,,,,,,,,,,,,,,,,,,,,,,,
934579,001,2022-11-14_24h26.25.492,Info_measure_main_exp,2022.2.2,Win32,60.24459305,,,,,,,,,,,,,,,,,,masks/mask_004.jpg,,,,,,,,,,,,,,,,,,,,,,,,,,,,,,,,,,,,,,,,,,,,,,,,0,0,0,3,1,,,,,,,,,,,,,,,,,,,,,,,,,,,,,,,,,,,,,,,,,
934579,001,2022-11-14_24h26.25.492,Info_measure_main_exp,2022.2.2,Win32,60.24459305,,,,,,,,,,,,,,,,,,masks/mask_001.jpg,,,,,,,,,,,,,,,,,,,,,,,,,,,,,,,,,,,,,,,,,,,,,,,,0,1,1,0,1,,,,,,,,,,,,,,,,,,,,,,,,,,,,,,,,,,,,,,,,,
934579,001,2022-11-14_24h26.25.492,Info_measure_main_exp,2022.2.2,Win32,60.24459305,,,,,,,,,,,,,,,,,,masks/mask_005.jpg,,,,,,,,,,,,,,,,,,,,,,,,,,,,,,,,,,,,,,,,,,,,,,,,0,2,2,4,1,,,,,,,,,,,,,,,,,,,,,,,,,,,,,,,,,,,,,,,,,
934579,001,2022-11-14_24h26.25.492,Info_measure_main_exp,2022.2.2,Win32,60.24459305,,,,,,,,,,,,,,,,,,masks/mask_003.jpg,,,,,,,,,,,,,,,,,,,,,,,,,,,,,,,,,,,,,,,,,,,,,,,,0,3,3,2,1,,,,,,,,,,,,,,,,,,,,,,,,,,,,,,,,,,,,,,,,,
934579,001,2022-11-14_24h26.25.492,Info_measure_main_exp,2022.2.2,Win32,60.24459305,,,,,,,,,,,,,,,,,,masks/mask_002.jpg,,,,,,,,,,,,,,,,,,,,,,,,,,,,,,,,,,,,,,,,,,,,,,,,0,4,4,1,1,,,,,,,,,,,,,,,,,,,,,,,,,,,,,,,,,,,,,,,,,
934579,001,2022-11-14_24h26.25.492,Info_measure_main_exp,2022.2.2,Win32,60.24459305,,,,,,,,,,,,,,,,,,,,,,,,,,,,,,6,0.6996,1,,,,,,,,,,,,0,131,5,5,2142,2166,absent_patch/patch0002142.jpg,absent_patch/patch0002166.jpg,,,,,,,,,,,,,,,,,,,,0.083333333,0.042592578,1,0,0,response1disk,19,-0.013888889,-0.002777771,1,0,0,center_square,0,18,18,66,1,,,,,,,,,,,,,,,,,,,,,,,
934579,001,2022-11-14_24h26.25.492,Info_measure_main_exp,2022.2.2,Win32,60.24459305,,,,,,,,,,,,,,,,,,masks/mask_001.jpg,,,,,,,,,,,,,,,,,,,,,,,,,,,,,,,,,,,,,,,,,,,0,0,0,0,1,,,,,,,,,,,,,,,,,,,,,,,,,,,,,,,,,,,,,,,,,,,,,,
934579,001,2022-11-14_24h26.25.492,Info_measure_main_exp,2022.2.2,Win32,60.24459305,,,,,,,,,,,,,,,,,,masks/mask_003.jpg,,,,,,,,,,,,,,,,,,,,,,,,,,,,,,,,,,,,,,,,,,,0,1,1,2,1,,,,,,,,,,,,,,,,,,,,,,,,,,,,,,,,,,,,,,,,,,,,,,
934579,001,2022-11-14_24h26.25.492,Info_measure_main_exp,2022.2.2,Win32,60.24459305,,,,,,,,,,,,,,,,,,masks/mask_004.jpg,,,,,,,,,,,,,,,,,,,,,,,,,,,,,,,,,,,,,,,,,,,0,2,2,3,1,,,,,,,,,,,,,,,,,,,,,,,,,,,,,,,,,,,,,,,,,,,,,,
934579,001,2022-11-14_24h26.25.492,Info_measure_main_exp,2022.2.2,Win32,60.24459305,,,,,,,,,,,,,,,,,,masks/mask_005.jpg,,,,,,,,,,,,,,,,,,,,,,,,,,,,,,,,,,,,,,,,,,,0,3,3,4,1,,,,,,,,,,,,,,,,,,,,,,,,,,,,,,,,,,,,,,,,,,,,,,
934579,001,2022-11-14_24h26.25.492,Info_measure_main_exp,2022.2.2,Win32,60.24459305,,,,,,,,,,,,,,,,,,masks/mask_002.jpg,,,,,,,,,,,,,,,,,,,,,,,,,,,,,,,,,,,,,,,,,,,0,4,4,1,1,,,,,,,,,,,,,,,,,,,,,,,,,,,,,,,,,,,,,,,,,,,,,,
934579,001,2022-11-14_24h26.25.492,Info_measure_main_exp,2022.2.2,Win32,60.24459305,,,,,,,,,,,,,,,,,,masks/mask_005.jpg,,,,,,,,,,,,,,,,,,,,,,,,,,,,,,,,,,,,,,,,,,,,,,,,0,0,0,4,1,,,,,,,,,,,,,,,,,,,,,,,,,,,,,,,,,,,,,,,,,
934579,001,2022-11-14_24h26.25.492,Info_measure_main_exp,2022.2.2,Win32,60.24459305,,,,,,,,,,,,,,,,,,masks/mask_004.jpg,,,,,,,,,,,,,,,,,,,,,,,,,,,,,,,,,,,,,,,,,,,,,,,,0,1,1,3,1,,,,,,,,,,,,,,,,,,,,,,,,,,,,,,,,,,,,,,,,,
934579,001,2022-11-14_24h26.25.492,Info_measure_main_exp,2022.2.2,Win32,60.24459305,,,,,,,,,,,,,,,,,,masks/mask_003.jpg,,,,,,,,,,,,,,,,,,,,,,,,,,,,,,,,,,,,,,,,,,,,,,,,0,2,2,2,1,,,,,,,,,,,,,,,,,,,,,,,,,,,,,,,,,,,,,,,,,
934579,001,2022-11-14_24h26.25.492,Info_measure_main_exp,2022.2.2,Win32,60.24459305,,,,,,,,,,,,,,,,,,masks/mask_002.jpg,,,,,,,,,,,,,,,,,,,,,,,,,,,,,,,,,,,,,,,,,,,,,,,,0,3,3,1,1,,,,,,,,,,,,,,,,,,,,,,,,,,,,,,,,,,,,,,,,,
934579,001,2022-11-14_24h26.25.492,Info_measure_main_exp,2022.2.2,Win32,60.24459305,,,,,,,,,,,,,,,,,,masks/mask_001.jpg,,,,,,,,,,,,,,,,,,,,,,,,,,,,,,,,,,,,,,,,,,,,,,,,0,4,4,0,1,,,,,,,,,,,,,,,,,,,,,,,,,,,,,,,,,,,,,,,,,
934579,001,2022-11-14_24h26.25.492,Info_measure_main_exp,2022.2.2,Win32,60.24459305,,,,,,,,,,,,,,,,,,,,,,,,,,,,,,5,8.1136,1,,,,,,,,,,,,0,131,5,5,2274,1950,absent_patch/patch0002274.jpg,absent_patch/patch0001950.jpg,,,,,,,,,,,,,,,,,,,,0.151851866,-0.0074074,1,0,0,response3disk,20,0.005555541,-0.001851859,1,0,0,center_square,0,19,19,10,1,,,,,,,,,,,,,,,,,,,,,,,
934579,001,2022-11-14_24h26.25.492,Info_measure_main_exp,2022.2.2,Win32,60.24459305,,,,,,,,,,,,,,,,,,masks/mask_002.jpg,,,,,,,,,,,,,,,,,,,,,,,,,,,,,,,,,,,,,,,,,,,0,0,0,1,1,,,,,,,,,,,,,,,,,,,,,,,,,,,,,,,,,,,,,,,,,,,,,,
934579,001,2022-11-14_24h26.25.492,Info_measure_main_exp,2022.2.2,Win32,60.24459305,,,,,,,,,,,,,,,,,,masks/mask_005.jpg,,,,,,,,,,,,,,,,,,,,,,,,,,,,,,,,,,,,,,,,,,,0,1,1,4,1,,,,,,,,,,,,,,,,,,,,,,,,,,,,,,,,,,,,,,,,,,,,,,
934579,001,2022-11-14_24h26.25.492,Info_measure_main_exp,2022.2.2,Win32,60.24459305,,,,,,,,,,,,,,,,,,masks/mask_004.jpg,,,,,,,,,,,,,,,,,,,,,,,,,,,,,,,,,,,,,,,,,,,0,2,2,3,1,,,,,,,,,,,,,,,,,,,,,,,,,,,,,,,,,,,,,,,,,,,,,,
934579,001,2022-11-14_24h26.25.492,Info_measure_main_exp,2022.2.2,Win32,60.24459305,,,,,,,,,,,,,,,,,,masks/mask_003.jpg,,,,,,,,,,,,,,,,,,,,,,,,,,,,,,,,,,,,,,,,,,,0,3,3,2,1,,,,,,,,,,,,,,,,,,,,,,,,,,,,,,,,,,,,,,,,,,,,,,
934579,001,2022-11-14_24h26.25.492,Info_measure_main_exp,2022.2.2,Win32,60.24459305,,,,,,,,,,,,,,,,,,masks/mask_001.jpg,,,,,,,,,,,,,,,,,,,,,,,,,,,,,,,,,,,,,,,,,,,0,4,4,0,1,,,,,,,,,,,,,,,,,,,,,,,,,,,,,,,,,,,,,,,,,,,,,,
934579,001,2022-11-14_24h26.25.492,Info_measure_main_exp,2022.2.2,Win32,60.24459305,,,,,,,,,,,,,,,,,,masks/mask_001.jpg,,,,,,,,,,,,,,,,,,,,,,,,,,,,,,,,,,,,,,,,,,,,,,,,0,0,0,0,1,,,,,,,,,,,,,,,,,,,,,,,,,,,,,,,,,,,,,,,,,
934579,001,2022-11-14_24h26.25.492,Info_measure_main_exp,2022.2.2,Win32,60.24459305,,,,,,,,,,,,,,,,,,masks/mask_002.jpg,,,,,,,,,,,,,,,,,,,,,,,,,,,,,,,,,,,,,,,,,,,,,,,,0,1,1,1,1,,,,,,,,,,,,,,,,,,,,,,,,,,,,,,,,,,,,,,,,,
934579,001,2022-11-14_24h26.25.492,Info_measure_main_exp,2022.2.2,Win32,60.24459305,,,,,,,,,,,,,,,,,,masks/mask_003.jpg,,,,,,,,,,,,,,,,,,,,,,,,,,,,,,,,,,,,,,,,,,,,,,,,0,2,2,2,1,,,,,,,,,,,,,,,,,,,,,,,,,,,,,,,,,,,,,,,,,
934579,001,2022-11-14_24h26.25.492,Info_measure_main_exp,2022.2.2,Win32,60.24459305,,,,,,,,,,,,,,,,,,masks/mask_005.jpg,,,,,,,,,,,,,,,,,,,,,,,,,,,,,,,,,,,,,,,,,,,,,,,,0,3,3,4,1,,,,,,,,,,,,,,,,,,,,,,,,,,,,,,,,,,,,,,,,,
934579,001,2022-11-14_24h26.25.492,Info_measure_main_exp,2022.2.2,Win32,60.24459305,,,,,,,,,,,,,,,,,,masks/mask_004.jpg,,,,,,,,,,,,,,,,,,,,,,,,,,,,,,,,,,,,,,,,,,,,,,,,0,4,4,3,1,,,,,,,,,,,,,,,,,,,,,,,,,,,,,,,,,,,,,,,,,
934579,001,2022-11-14_24h26.25.492,Info_measure_main_exp,2022.2.2,Win32,60.24459305,,,,,,,,,,,,,,,,,,,,,,,,,,,,,,6,0.9498,1,,,,,,,,,,,,0,131,5,5,1974,2142,absent_patch/patch0001974.jpg,absent_patch/patch0002142.jpg,,,,,,,,,,,,,,,,,,,,0.07685188,0.021296289,1,0,0,response1disk,21,0.002777806,-0.00462963,1,0,0,center_square,0,20,20,38,1,,,,,,,,,,,,,,,,,,,,,,,
934579,001,2022-11-14_24h26.25.492,Info_measure_main_exp,2022.2.2,Win32,60.24459305,,,,,,,,,,,,,,,,,,masks/mask_001.jpg,,,,,,,,,,,,,,,,,,,,,,,,,,,,,,,,,,,,,,,,,,,0,0,0,0,1,,,,,,,,,,,,,,,,,,,,,,,,,,,,,,,,,,,,,,,,,,,,,,
934579,001,2022-11-14_24h26.25.492,Info_measure_main_exp,2022.2.2,Win32,60.24459305,,,,,,,,,,,,,,,,,,masks/mask_004.jpg,,,,,,,,,,,,,,,,,,,,,,,,,,,,,,,,,,,,,,,,,,,0,1,1,3,1,,,,,,,,,,,,,,,,,,,,,,,,,,,,,,,,,,,,,,,,,,,,,,
934579,001,2022-11-14_24h26.25.492,Info_measure_main_exp,2022.2.2,Win32,60.24459305,,,,,,,,,,,,,,,,,,masks/mask_005.jpg,,,,,,,,,,,,,,,,,,,,,,,,,,,,,,,,,,,,,,,,,,,0,2,2,4,1,,,,,,,,,,,,,,,,,,,,,,,,,,,,,,,,,,,,,,,,,,,,,,
934579,001,2022-11-14_24h26.25.492,Info_measure_main_exp,2022.2.2,Win32,60.24459305,,,,,,,,,,,,,,,,,,masks/mask_002.jpg,,,,,,,,,,,,,,,,,,,,,,,,,,,,,,,,,,,,,,,,,,,0,3,3,1,1,,,,,,,,,,,,,,,,,,,,,,,,,,,,,,,,,,,,,,,,,,,,,,
934579,001,2022-11-14_24h26.25.492,Info_measure_main_exp,2022.2.2,Win32,60.24459305,,,,,,,,,,,,,,,,,,masks/mask_003.jpg,,,,,,,,,,,,,,,,,,,,,,,,,,,,,,,,,,,,,,,,,,,0,4,4,2,1,,,,,,,,,,,,,,,,,,,,,,,,,,,,,,,,,,,,,,,,,,,,,,
934579,001,2022-11-14_24h26.25.492,Info_measure_main_exp,2022.2.2,Win32,60.24459305,,,,,,,,,,,,,,,,,,masks/mask_004.jpg,,,,,,,,,,,,,,,,,,,,,,,,,,,,,,,,,,,,,,,,,,,,,,,,0,0,0,3,1,,,,,,,,,,,,,,,,,,,,,,,,,,,,,,,,,,,,,,,,,
934579,001,2022-11-14_24h26.25.492,Info_measure_main_exp,2022.2.2,Win32,60.24459305,,,,,,,,,,,,,,,,,,masks/mask_005.jpg,,,,,,,,,,,,,,,,,,,,,,,,,,,,,,,,,,,,,,,,,,,,,,,,0,1,1,4,1,,,,,,,,,,,,,,,,,,,,,,,,,,,,,,,,,,,,,,,,,
934579,001,2022-11-14_24h26.25.492,Info_measure_main_exp,2022.2.2,Win32,60.24459305,,,,,,,,,,,,,,,,,,masks/mask_003.jpg,,,,,,,,,,,,,,,,,,,,,,,,,,,,,,,,,,,,,,,,,,,,,,,,0,2,2,2,1,,,,,,,,,,,,,,,,,,,,,,,,,,,,,,,,,,,,,,,,,
934579,001,2022-11-14_24h26.25.492,Info_measure_main_exp,2022.2.2,Win32,60.24459305,,,,,,,,,,,,,,,,,,masks/mask_002.jpg,,,,,,,,,,,,,,,,,,,,,,,,,,,,,,,,,,,,,,,,,,,,,,,,0,3,3,1,1,,,,,,,,,,,,,,,,,,,,,,,,,,,,,,,,,,,,,,,,,
934579,001,2022-11-14_24h26.25.492,Info_measure_main_exp,2022.2.2,Win32,60.24459305,,,,,,,,,,,,,,,,,,masks/mask_001.jpg,,,,,,,,,,,,,,,,,,,,,,,,,,,,,,,,,,,,,,,,,,,,,,,,0,4,4,0,1,,,,,,,,,,,,,,,,,,,,,,,,,,,,,,,,,,,,,,,,,
934579,001,2022-11-14_24h26.25.492,Info_measure_main_exp,2022.2.2,Win32,60.24459305,,,,,,,,,,,,,,,,,,,,,,,,,,,,,,7,0.6164,1,,,,,,,,,,,,0,131,5,5,2190,1986,absent_patch/patch0002190.jpg,absent_patch/patch0001986.jpg,,,,,,,,,,,,,,,,,,,,0.023148148,0.113888882,1,0,0,response1disk,22,-0.011111083,0.001851859,1,0,0,center_square,0,21,21,111,1,,,,,,,,,,,,,,,,,,,,,,,
934579,001,2022-11-14_24h26.25.492,Info_measure_main_exp,2022.2.2,Win32,60.24459305,,,,,,,,,,,,,,,,,,masks/mask_001.jpg,,,,,,,,,,,,,,,,,,,,,,,,,,,,,,,,,,,,,,,,,,,0,0,0,0,1,,,,,,,,,,,,,,,,,,,,,,,,,,,,,,,,,,,,,,,,,,,,,,
934579,001,2022-11-14_24h26.25.492,Info_measure_main_exp,2022.2.2,Win32,60.24459305,,,,,,,,,,,,,,,,,,masks/mask_004.jpg,,,,,,,,,,,,,,,,,,,,,,,,,,,,,,,,,,,,,,,,,,,0,1,1,3,1,,,,,,,,,,,,,,,,,,,,,,,,,,,,,,,,,,,,,,,,,,,,,,
934579,001,2022-11-14_24h26.25.492,Info_measure_main_exp,2022.2.2,Win32,60.24459305,,,,,,,,,,,,,,,,,,masks/mask_002.jpg,,,,,,,,,,,,,,,,,,,,,,,,,,,,,,,,,,,,,,,,,,,0,2,2,1,1,,,,,,,,,,,,,,,,,,,,,,,,,,,,,,,,,,,,,,,,,,,,,,
934579,001,2022-11-14_24h26.25.492,Info_measure_main_exp,2022.2.2,Win32,60.24459305,,,,,,,,,,,,,,,,,,masks/mask_003.jpg,,,,,,,,,,,,,,,,,,,,,,,,,,,,,,,,,,,,,,,,,,,0,3,3,2,1,,,,,,,,,,,,,,,,,,,,,,,,,,,,,,,,,,,,,,,,,,,,,,
934579,001,2022-11-14_24h26.25.492,Info_measure_main_exp,2022.2.2,Win32,60.24459305,,,,,,,,,,,,,,,,,,masks/mask_005.jpg,,,,,,,,,,,,,,,,,,,,,,,,,,,,,,,,,,,,,,,,,,,0,4,4,4,1,,,,,,,,,,,,,,,,,,,,,,,,,,,,,,,,,,,,,,,,,,,,,,
934579,001,2022-11-14_24h26.25.492,Info_measure_main_exp,2022.2.2,Win32,60.24459305,,,,,,,,,,,,,,,,,,masks/mask_001.jpg,,,,,,,,,,,,,,,,,,,,,,,,,,,,,,,,,,,,,,,,,,,,,,,,0,0,0,0,1,,,,,,,,,,,,,,,,,,,,,,,,,,,,,,,,,,,,,,,,,
934579,001,2022-11-14_24h26.25.492,Info_measure_main_exp,2022.2.2,Win32,60.24459305,,,,,,,,,,,,,,,,,,masks/mask_004.jpg,,,,,,,,,,,,,,,,,,,,,,,,,,,,,,,,,,,,,,,,,,,,,,,,0,1,1,3,1,,,,,,,,,,,,,,,,,,,,,,,,,,,,,,,,,,,,,,,,,
934579,001,2022-11-14_24h26.25.492,Info_measure_main_exp,2022.2.2,Win32,60.24459305,,,,,,,,,,,,,,,,,,masks/mask_005.jpg,,,,,,,,,,,,,,,,,,,,,,,,,,,,,,,,,,,,,,,,,,,,,,,,0,2,2,4,1,,,,,,,,,,,,,,,,,,,,,,,,,,,,,,,,,,,,,,,,,
934579,001,2022-11-14_24h26.25.492,Info_measure_main_exp,2022.2.2,Win32,60.24459305,,,,,,,,,,,,,,,,,,masks/mask_002.jpg,,,,,,,,,,,,,,,,,,,,,,,,,,,,,,,,,,,,,,,,,,,,,,,,0,3,3,1,1,,,,,,,,,,,,,,,,,,,,,,,,,,,,,,,,,,,,,,,,,
934579,001,2022-11-14_24h26.25.492,Info_measure_main_exp,2022.2.2,Win32,60.24459305,,,,,,,,,,,,,,,,,,masks/mask_003.jpg,,,,,,,,,,,,,,,,,,,,,,,,,,,,,,,,,,,,,,,,,,,,,,,,0,4,4,2,1,,,,,,,,,,,,,,,,,,,,,,,,,,,,,,,,,,,,,,,,,
934579,001,2022-11-14_24h26.25.492,Info_measure_main_exp,2022.2.2,Win32,60.24459305,,,,,,,,,,,,,,,,,,,,,,,,,,,,,,7,0.7164,1,,,,,,,,,,,,0,131,5,5,1950,2238,absent_patch/patch0001950.jpg,absent_patch/patch0002238.jpg,,,,,,,,,,,,,,,,,,,,0.058333362,0.099074081,1,0,0,response1disk,23,0.000925912,-0.011111118,1,0,0,center_square,0,22,22,8,1,,,,,,,,,,,,,,,,,,,,,,,
934579,001,2022-11-14_24h26.25.492,Info_measure_main_exp,2022.2.2,Win32,60.24459305,,,,,,,,,,,,,,,,,,masks/mask_004.jpg,,,,,,,,,,,,,,,,,,,,,,,,,,,,,,,,,,,,,,,,,,,0,0,0,3,1,,,,,,,,,,,,,,,,,,,,,,,,,,,,,,,,,,,,,,,,,,,,,,
934579,001,2022-11-14_24h26.25.492,Info_measure_main_exp,2022.2.2,Win32,60.24459305,,,,,,,,,,,,,,,,,,masks/mask_003.jpg,,,,,,,,,,,,,,,,,,,,,,,,,,,,,,,,,,,,,,,,,,,0,1,1,2,1,,,,,,,,,,,,,,,,,,,,,,,,,,,,,,,,,,,,,,,,,,,,,,
934579,001,2022-11-14_24h26.25.492,Info_measure_main_exp,2022.2.2,Win32,60.24459305,,,,,,,,,,,,,,,,,,masks/mask_001.jpg,,,,,,,,,,,,,,,,,,,,,,,,,,,,,,,,,,,,,,,,,,,0,2,2,0,1,,,,,,,,,,,,,,,,,,,,,,,,,,,,,,,,,,,,,,,,,,,,,,
934579,001,2022-11-14_24h26.25.492,Info_measure_main_exp,2022.2.2,Win32,60.24459305,,,,,,,,,,,,,,,,,,masks/mask_005.jpg,,,,,,,,,,,,,,,,,,,,,,,,,,,,,,,,,,,,,,,,,,,0,3,3,4,1,,,,,,,,,,,,,,,,,,,,,,,,,,,,,,,,,,,,,,,,,,,,,,
934579,001,2022-11-14_24h26.25.492,Info_measure_main_exp,2022.2.2,Win32,60.24459305,,,,,,,,,,,,,,,,,,masks/mask_002.jpg,,,,,,,,,,,,,,,,,,,,,,,,,,,,,,,,,,,,,,,,,,,0,4,4,1,1,,,,,,,,,,,,,,,,,,,,,,,,,,,,,,,,,,,,,,,,,,,,,,
934579,001,2022-11-14_24h26.25.492,Info_measure_main_exp,2022.2.2,Win32,60.24459305,,,,,,,,,,,,,,,,,,masks/mask_005.jpg,,,,,,,,,,,,,,,,,,,,,,,,,,,,,,,,,,,,,,,,,,,,,,,,0,0,0,4,1,,,,,,,,,,,,,,,,,,,,,,,,,,,,,,,,,,,,,,,,,
934579,001,2022-11-14_24h26.25.492,Info_measure_main_exp,2022.2.2,Win32,60.24459305,,,,,,,,,,,,,,,,,,masks/mask_001.jpg,,,,,,,,,,,,,,,,,,,,,,,,,,,,,,,,,,,,,,,,,,,,,,,,0,1,1,0,1,,,,,,,,,,,,,,,,,,,,,,,,,,,,,,,,,,,,,,,,,
934579,001,2022-11-14_24h26.25.492,Info_measure_main_exp,2022.2.2,Win32,60.24459305,,,,,,,,,,,,,,,,,,masks/mask_003.jpg,,,,,,,,,,,,,,,,,,,,,,,,,,,,,,,,,,,,,,,,,,,,,,,,0,2,2,2,1,,,,,,,,,,,,,,,,,,,,,,,,,,,,,,,,,,,,,,,,,
934579,001,2022-11-14_24h26.25.492,Info_measure_main_exp,2022.2.2,Win32,60.24459305,,,,,,,,,,,,,,,,,,masks/mask_002.jpg,,,,,,,,,,,,,,,,,,,,,,,,,,,,,,,,,,,,,,,,,,,,,,,,0,3,3,1,1,,,,,,,,,,,,,,,,,,,,,,,,,,,,,,,,,,,,,,,,,
934579,001,2022-11-14_24h26.25.492,Info_measure_main_exp,2022.2.2,Win32,60.24459305,,,,,,,,,,,,,,,,,,masks/mask_004.jpg,,,,,,,,,,,,,,,,,,,,,,,,,,,,,,,,,,,,,,,,,,,,,,,,0,4,4,3,1,,,,,,,,,,,,,,,,,,,,,,,,,,,,,,,,,,,,,,,,,
934579,001,2022-11-14_24h26.25.492,Info_measure_main_exp,2022.2.2,Win32,60.24459305,,,,,,,,,,,,,,,,,,,,,,,,,,,,,,6,0.8328,1,,,,,,,,,,,,1,131,5,5,1,1986,present_patch/cong_131_5_a.jpg,absent_patch/patch0001986.jpg,,,,,,,,,,,,,,,,,,,,0.092592593,0.055555556,1,0,0,response1disk,24,-0.012962977,0.000925912,1,0,0,center_square,0,23,23,106,1,,,,,,,,,,,,,,,,,,,,,,,
934579,001,2022-11-14_24h26.25.492,Info_measure_main_exp,2022.2.2,Win32,60.24459305,,,,,,,,,,,,,,,,,,masks/mask_001.jpg,,,,,,,,,,,,,,,,,,,,,,,,,,,,,,,,,,,,,,,,,,,0,0,0,0,1,,,,,,,,,,,,,,,,,,,,,,,,,,,,,,,,,,,,,,,,,,,,,,
934579,001,2022-11-14_24h26.25.492,Info_measure_main_exp,2022.2.2,Win32,60.24459305,,,,,,,,,,,,,,,,,,masks/mask_004.jpg,,,,,,,,,,,,,,,,,,,,,,,,,,,,,,,,,,,,,,,,,,,0,1,1,3,1,,,,,,,,,,,,,,,,,,,,,,,,,,,,,,,,,,,,,,,,,,,,,,
934579,001,2022-11-14_24h26.25.492,Info_measure_main_exp,2022.2.2,Win32,60.24459305,,,,,,,,,,,,,,,,,,masks/mask_002.jpg,,,,,,,,,,,,,,,,,,,,,,,,,,,,,,,,,,,,,,,,,,,0,2,2,1,1,,,,,,,,,,,,,,,,,,,,,,,,,,,,,,,,,,,,,,,,,,,,,,
934579,001,2022-11-14_24h26.25.492,Info_measure_main_exp,2022.2.2,Win32,60.24459305,,,,,,,,,,,,,,,,,,masks/mask_003.jpg,,,,,,,,,,,,,,,,,,,,,,,,,,,,,,,,,,,,,,,,,,,0,3,3,2,1,,,,,,,,,,,,,,,,,,,,,,,,,,,,,,,,,,,,,,,,,,,,,,
934579,001,2022-11-14_24h26.25.492,Info_measure_main_exp,2022.2.2,Win32,60.24459305,,,,,,,,,,,,,,,,,,masks/mask_005.jpg,,,,,,,,,,,,,,,,,,,,,,,,,,,,,,,,,,,,,,,,,,,0,4,4,4,1,,,,,,,,,,,,,,,,,,,,,,,,,,,,,,,,,,,,,,,,,,,,,,
934579,001,2022-11-14_24h26.25.492,Info_measure_main_exp,2022.2.2,Win32,60.24459305,,,,,,,,,,,,,,,,,,masks/mask_003.jpg,,,,,,,,,,,,,,,,,,,,,,,,,,,,,,,,,,,,,,,,,,,,,,,,0,0,0,2,1,,,,,,,,,,,,,,,,,,,,,,,,,,,,,,,,,,,,,,,,,
934579,001,2022-11-14_24h26.25.492,Info_measure_main_exp,2022.2.2,Win32,60.24459305,,,,,,,,,,,,,,,,,,masks/mask_004.jpg,,,,,,,,,,,,,,,,,,,,,,,,,,,,,,,,,,,,,,,,,,,,,,,,0,1,1,3,1,,,,,,,,,,,,,,,,,,,,,,,,,,,,,,,,,,,,,,,,,
934579,001,2022-11-14_24h26.25.492,Info_measure_main_exp,2022.2.2,Win32,60.24459305,,,,,,,,,,,,,,,,,,masks/mask_005.jpg,,,,,,,,,,,,,,,,,,,,,,,,,,,,,,,,,,,,,,,,,,,,,,,,0,2,2,4,1,,,,,,,,,,,,,,,,,,,,,,,,,,,,,,,,,,,,,,,,,
934579,001,2022-11-14_24h26.25.492,Info_measure_main_exp,2022.2.2,Win32,60.24459305,,,,,,,,,,,,,,,,,,masks/mask_001.jpg,,,,,,,,,,,,,,,,,,,,,,,,,,,,,,,,,,,,,,,,,,,,,,,,0,3,3,0,1,,,,,,,,,,,,,,,,,,,,,,,,,,,,,,,,,,,,,,,,,
934579,001,2022-11-14_24h26.25.492,Info_measure_main_exp,2022.2.2,Win32,60.24459305,,,,,,,,,,,,,,,,,,masks/mask_002.jpg,,,,,,,,,,,,,,,,,,,,,,,,,,,,,,,,,,,,,,,,,,,,,,,,0,4,4,1,1,,,,,,,,,,,,,,,,,,,,,,,,,,,,,,,,,,,,,,,,,
934579,001,2022-11-14_24h26.25.492,Info_measure_main_exp,2022.2.2,Win32,60.24459305,,,,,,,,,,,,,,,,,,,,,,,,,,,,,,7,1.2829,1,,,,,,,,,,,,0,131,5,5,1986,1950,absent_patch/patch0001986.jpg,absent_patch/patch0001950.jpg,,,,,,,,,,,,,,,,,,,,0.048148191,0.138888889,1,0,0,response1disk,25,0.001851894,-0.005555577,1,0,0,center_square,0,24,24,15,1,,,,,,,,,,,,,,,,,,,,,,,
934579,001,2022-11-14_24h26.25.492,Info_measure_main_exp,2022.2.2,Win32,60.24459305,,,,,,,,,,,,,,,,,,masks/mask_002.jpg,,,,,,,,,,,,,,,,,,,,,,,,,,,,,,,,,,,,,,,,,,,0,0,0,1,1,,,,,,,,,,,,,,,,,,,,,,,,,,,,,,,,,,,,,,,,,,,,,,
934579,001,2022-11-14_24h26.25.492,Info_measure_main_exp,2022.2.2,Win32,60.24459305,,,,,,,,,,,,,,,,,,masks/mask_004.jpg,,,,,,,,,,,,,,,,,,,,,,,,,,,,,,,,,,,,,,,,,,,0,1,1,3,1,,,,,,,,,,,,,,,,,,,,,,,,,,,,,,,,,,,,,,,,,,,,,,
934579,001,2022-11-14_24h26.25.492,Info_measure_main_exp,2022.2.2,Win32,60.24459305,,,,,,,,,,,,,,,,,,masks/mask_001.jpg,,,,,,,,,,,,,,,,,,,,,,,,,,,,,,,,,,,,,,,,,,,0,2,2,0,1,,,,,,,,,,,,,,,,,,,,,,,,,,,,,,,,,,,,,,,,,,,,,,
934579,001,2022-11-14_24h26.25.492,Info_measure_main_exp,2022.2.2,Win32,60.24459305,,,,,,,,,,,,,,,,,,masks/mask_005.jpg,,,,,,,,,,,,,,,,,,,,,,,,,,,,,,,,,,,,,,,,,,,0,3,3,4,1,,,,,,,,,,,,,,,,,,,,,,,,,,,,,,,,,,,,,,,,,,,,,,
934579,001,2022-11-14_24h26.25.492,Info_measure_main_exp,2022.2.2,Win32,60.24459305,,,,,,,,,,,,,,,,,,masks/mask_003.jpg,,,,,,,,,,,,,,,,,,,,,,,,,,,,,,,,,,,,,,,,,,,0,4,4,2,1,,,,,,,,,,,,,,,,,,,,,,,,,,,,,,,,,,,,,,,,,,,,,,
934579,001,2022-11-14_24h26.25.492,Info_measure_main_exp,2022.2.2,Win32,60.24459305,,,,,,,,,,,,,,,,,,masks/mask_005.jpg,,,,,,,,,,,,,,,,,,,,,,,,,,,,,,,,,,,,,,,,,,,,,,,,0,0,0,4,1,,,,,,,,,,,,,,,,,,,,,,,,,,,,,,,,,,,,,,,,,
934579,001,2022-11-14_24h26.25.492,Info_measure_main_exp,2022.2.2,Win32,60.24459305,,,,,,,,,,,,,,,,,,masks/mask_002.jpg,,,,,,,,,,,,,,,,,,,,,,,,,,,,,,,,,,,,,,,,,,,,,,,,0,1,1,1,1,,,,,,,,,,,,,,,,,,,,,,,,,,,,,,,,,,,,,,,,,
934579,001,2022-11-14_24h26.25.492,Info_measure_main_exp,2022.2.2,Win32,60.24459305,,,,,,,,,,,,,,,,,,masks/mask_003.jpg,,,,,,,,,,,,,,,,,,,,,,,,,,,,,,,,,,,,,,,,,,,,,,,,0,2,2,2,1,,,,,,,,,,,,,,,,,,,,,,,,,,,,,,,,,,,,,,,,,
934579,001,2022-11-14_24h26.25.492,Info_measure_main_exp,2022.2.2,Win32,60.24459305,,,,,,,,,,,,,,,,,,masks/mask_001.jpg,,,,,,,,,,,,,,,,,,,,,,,,,,,,,,,,,,,,,,,,,,,,,,,,0,3,3,0,1,,,,,,,,,,,,,,,,,,,,,,,,,,,,,,,,,,,,,,,,,
934579,001,2022-11-14_24h26.25.492,Info_measure_main_exp,2022.2.2,Win32,60.24459305,,,,,,,,,,,,,,,,,,masks/mask_004.jpg,,,,,,,,,,,,,,,,,,,,,,,,,,,,,,,,,,,,,,,,,,,,,,,,0,4,4,3,1,,,,,,,,,,,,,,,,,,,,,,,,,,,,,,,,,,,,,,,,,
934579,001,2022-11-14_24h26.25.492,Info_measure_main_exp,2022.2.2,Win32,60.24459305,,,,,,,,,,,,,,,,,,,,,,,,,,,,,,7,0.5664,1,,,,,,,,,,,,0,131,5,5,1974,2178,absent_patch/patch0001974.jpg,absent_patch/patch0002178.jpg,,,,,,,,,,,,,,,,,,,,0.074999986,0.10833334,1,0,0,response1disk,26,-0.00462963,-0.001851859,1,0,0,center_square,0,25,25,44,1,,,,,,,,,,,,,,,,,,,,,,,
934579,001,2022-11-14_24h26.25.492,Info_measure_main_exp,2022.2.2,Win32,60.24459305,,,,,,,,,,,,,,,,,,masks/mask_004.jpg,,,,,,,,,,,,,,,,,,,,,,,,,,,,,,,,,,,,,,,,,,,0,0,0,3,1,,,,,,,,,,,,,,,,,,,,,,,,,,,,,,,,,,,,,,,,,,,,,,
934579,001,2022-11-14_24h26.25.492,Info_measure_main_exp,2022.2.2,Win32,60.24459305,,,,,,,,,,,,,,,,,,masks/mask_003.jpg,,,,,,,,,,,,,,,,,,,,,,,,,,,,,,,,,,,,,,,,,,,0,1,1,2,1,,,,,,,,,,,,,,,,,,,,,,,,,,,,,,,,,,,,,,,,,,,,,,
934579,001,2022-11-14_24h26.25.492,Info_measure_main_exp,2022.2.2,Win32,60.24459305,,,,,,,,,,,,,,,,,,masks/mask_001.jpg,,,,,,,,,,,,,,,,,,,,,,,,,,,,,,,,,,,,,,,,,,,0,2,2,0,1,,,,,,,,,,,,,,,,,,,,,,,,,,,,,,,,,,,,,,,,,,,,,,
934579,001,2022-11-14_24h26.25.492,Info_measure_main_exp,2022.2.2,Win32,60.24459305,,,,,,,,,,,,,,,,,,masks/mask_005.jpg,,,,,,,,,,,,,,,,,,,,,,,,,,,,,,,,,,,,,,,,,,,0,3,3,4,1,,,,,,,,,,,,,,,,,,,,,,,,,,,,,,,,,,,,,,,,,,,,,,
934579,001,2022-11-14_24h26.25.492,Info_measure_main_exp,2022.2.2,Win32,60.24459305,,,,,,,,,,,,,,,,,,masks/mask_002.jpg,,,,,,,,,,,,,,,,,,,,,,,,,,,,,,,,,,,,,,,,,,,0,4,4,1,1,,,,,,,,,,,,,,,,,,,,,,,,,,,,,,,,,,,,,,,,,,,,,,
934579,001,2022-11-14_24h26.25.492,Info_measure_main_exp,2022.2.2,Win32,60.24459305,,,,,,,,,,,,,,,,,,masks/mask_005.jpg,,,,,,,,,,,,,,,,,,,,,,,,,,,,,,,,,,,,,,,,,,,,,,,,0,0,0,4,1,,,,,,,,,,,,,,,,,,,,,,,,,,,,,,,,,,,,,,,,,
934579,001,2022-11-14_24h26.25.492,Info_measure_main_exp,2022.2.2,Win32,60.24459305,,,,,,,,,,,,,,,,,,masks/mask_004.jpg,,,,,,,,,,,,,,,,,,,,,,,,,,,,,,,,,,,,,,,,,,,,,,,,0,1,1,3,1,,,,,,,,,,,,,,,,,,,,,,,,,,,,,,,,,,,,,,,,,
934579,001,2022-11-14_24h26.25.492,Info_measure_main_exp,2022.2.2,Win32,60.24459305,,,,,,,,,,,,,,,,,,masks/mask_003.jpg,,,,,,,,,,,,,,,,,,,,,,,,,,,,,,,,,,,,,,,,,,,,,,,,0,2,2,2,1,,,,,,,,,,,,,,,,,,,,,,,,,,,,,,,,,,,,,,,,,
934579,001,2022-11-14_24h26.25.492,Info_measure_main_exp,2022.2.2,Win32,60.24459305,,,,,,,,,,,,,,,,,,masks/mask_002.jpg,,,,,,,,,,,,,,,,,,,,,,,,,,,,,,,,,,,,,,,,,,,,,,,,0,3,3,1,1,,,,,,,,,,,,,,,,,,,,,,,,,,,,,,,,,,,,,,,,,
934579,001,2022-11-14_24h26.25.492,Info_measure_main_exp,2022.2.2,Win32,60.24459305,,,,,,,,,,,,,,,,,,masks/mask_001.jpg,,,,,,,,,,,,,,,,,,,,,,,,,,,,,,,,,,,,,,,,,,,,,,,,0,4,4,0,1,,,,,,,,,,,,,,,,,,,,,,,,,,,,,,,,,,,,,,,,,
934579,001,2022-11-14_24h26.25.492,Info_measure_main_exp,2022.2.2,Win32,60.24459305,,,,,,,,,,,,,,,,,,,,,,,,,,,,,,6,6.2315,1,,,,,,,,,,,,0,131,5,5,1986,2274,absent_patch/patch0001986.jpg,absent_patch/patch0002274.jpg,,,,,,,,,,,,,,,,,,,,0.087037051,0.037037037,1,0,0,response1disk,27,-0.001851824,0.00462963,1,0,0,center_square,0,26,26,7,1,,,,,,,,,,,,,,,,,,,,,,,
934579,001,2022-11-14_24h26.25.492,Info_measure_main_exp,2022.2.2,Win32,60.24459305,,,,,,,,,,,,,,,,,,masks/mask_003.jpg,,,,,,,,,,,,,,,,,,,,,,,,,,,,,,,,,,,,,,,,,,,0,0,0,2,1,,,,,,,,,,,,,,,,,,,,,,,,,,,,,,,,,,,,,,,,,,,,,,
934579,001,2022-11-14_24h26.25.492,Info_measure_main_exp,2022.2.2,Win32,60.24459305,,,,,,,,,,,,,,,,,,masks/mask_005.jpg,,,,,,,,,,,,,,,,,,,,,,,,,,,,,,,,,,,,,,,,,,,0,1,1,4,1,,,,,,,,,,,,,,,,,,,,,,,,,,,,,,,,,,,,,,,,,,,,,,
934579,001,2022-11-14_24h26.25.492,Info_measure_main_exp,2022.2.2,Win32,60.24459305,,,,,,,,,,,,,,,,,,masks/mask_002.jpg,,,,,,,,,,,,,,,,,,,,,,,,,,,,,,,,,,,,,,,,,,,0,2,2,1,1,,,,,,,,,,,,,,,,,,,,,,,,,,,,,,,,,,,,,,,,,,,,,,
934579,001,2022-11-14_24h26.25.492,Info_measure_main_exp,2022.2.2,Win32,60.24459305,,,,,,,,,,,,,,,,,,masks/mask_001.jpg,,,,,,,,,,,,,,,,,,,,,,,,,,,,,,,,,,,,,,,,,,,0,3,3,0,1,,,,,,,,,,,,,,,,,,,,,,,,,,,,,,,,,,,,,,,,,,,,,,
934579,001,2022-11-14_24h26.25.492,Info_measure_main_exp,2022.2.2,Win32,60.24459305,,,,,,,,,,,,,,,,,,masks/mask_004.jpg,,,,,,,,,,,,,,,,,,,,,,,,,,,,,,,,,,,,,,,,,,,0,4,4,3,1,,,,,,,,,,,,,,,,,,,,,,,,,,,,,,,,,,,,,,,,,,,,,,
934579,001,2022-11-14_24h26.25.492,Info_measure_main_exp,2022.2.2,Win32,60.24459305,,,,,,,,,,,,,,,,,,masks/mask_005.jpg,,,,,,,,,,,,,,,,,,,,,,,,,,,,,,,,,,,,,,,,,,,,,,,,0,0,0,4,1,,,,,,,,,,,,,,,,,,,,,,,,,,,,,,,,,,,,,,,,,
934579,001,2022-11-14_24h26.25.492,Info_measure_main_exp,2022.2.2,Win32,60.24459305,,,,,,,,,,,,,,,,,,masks/mask_004.jpg,,,,,,,,,,,,,,,,,,,,,,,,,,,,,,,,,,,,,,,,,,,,,,,,0,1,1,3,1,,,,,,,,,,,,,,,,,,,,,,,,,,,,,,,,,,,,,,,,,
934579,001,2022-11-14_24h26.25.492,Info_measure_main_exp,2022.2.2,Win32,60.24459305,,,,,,,,,,,,,,,,,,masks/mask_001.jpg,,,,,,,,,,,,,,,,,,,,,,,,,,,,,,,,,,,,,,,,,,,,,,,,0,2,2,0,1,,,,,,,,,,,,,,,,,,,,,,,,,,,,,,,,,,,,,,,,,
934579,001,2022-11-14_24h26.25.492,Info_measure_main_exp,2022.2.2,Win32,60.24459305,,,,,,,,,,,,,,,,,,masks/mask_003.jpg,,,,,,,,,,,,,,,,,,,,,,,,,,,,,,,,,,,,,,,,,,,,,,,,0,3,3,2,1,,,,,,,,,,,,,,,,,,,,,,,,,,,,,,,,,,,,,,,,,
934579,001,2022-11-14_24h26.25.492,Info_measure_main_exp,2022.2.2,Win32,60.24459305,,,,,,,,,,,,,,,,,,masks/mask_002.jpg,,,,,,,,,,,,,,,,,,,,,,,,,,,,,,,,,,,,,,,,,,,,,,,,0,4,4,1,1,,,,,,,,,,,,,,,,,,,,,,,,,,,,,,,,,,,,,,,,,
934579,001,2022-11-14_24h26.25.492,Info_measure_main_exp,2022.2.2,Win32,60.24459305,,,,,,,,,,,,,,,,,,,,,,,,,,,,,,7,0.6666,1,,,,,,,,,,,,0,131,5,5,2154,1950,absent_patch/patch0002154.jpg,absent_patch/patch0001950.jpg,,,,,,,,,,,,,,,,,,,,0.046296296,0.097222222,1,0,0,response1disk,28,-0.002777735,0.00462963,1,0,0,center_square,0,27,27,96,1,,,,,,,,,,,,,,,,,,,,,,,
934579,001,2022-11-14_24h26.25.492,Info_measure_main_exp,2022.2.2,Win32,60.24459305,,,,,,,,,,,,,,,,,,masks/mask_002.jpg,,,,,,,,,,,,,,,,,,,,,,,,,,,,,,,,,,,,,,,,,,,0,0,0,1,1,,,,,,,,,,,,,,,,,,,,,,,,,,,,,,,,,,,,,,,,,,,,,,
934579,001,2022-11-14_24h26.25.492,Info_measure_main_exp,2022.2.2,Win32,60.24459305,,,,,,,,,,,,,,,,,,masks/mask_005.jpg,,,,,,,,,,,,,,,,,,,,,,,,,,,,,,,,,,,,,,,,,,,0,1,1,4,1,,,,,,,,,,,,,,,,,,,,,,,,,,,,,,,,,,,,,,,,,,,,,,
934579,001,2022-11-14_24h26.25.492,Info_measure_main_exp,2022.2.2,Win32,60.24459305,,,,,,,,,,,,,,,,,,masks/mask_004.jpg,,,,,,,,,,,,,,,,,,,,,,,,,,,,,,,,,,,,,,,,,,,0,2,2,3,1,,,,,,,,,,,,,,,,,,,,,,,,,,,,,,,,,,,,,,,,,,,,,,
934579,001,2022-11-14_24h26.25.492,Info_measure_main_exp,2022.2.2,Win32,60.24459305,,,,,,,,,,,,,,,,,,masks/mask_001.jpg,,,,,,,,,,,,,,,,,,,,,,,,,,,,,,,,,,,,,,,,,,,0,3,3,0,1,,,,,,,,,,,,,,,,,,,,,,,,,,,,,,,,,,,,,,,,,,,,,,
934579,001,2022-11-14_24h26.25.492,Info_measure_main_exp,2022.2.2,Win32,60.24459305,,,,,,,,,,,,,,,,,,masks/mask_003.jpg,,,,,,,,,,,,,,,,,,,,,,,,,,,,,,,,,,,,,,,,,,,0,4,4,2,1,,,,,,,,,,,,,,,,,,,,,,,,,,,,,,,,,,,,,,,,,,,,,,
934579,001,2022-11-14_24h26.25.492,Info_measure_main_exp,2022.2.2,Win32,60.24459305,,,,,,,,,,,,,,,,,,masks/mask_003.jpg,,,,,,,,,,,,,,,,,,,,,,,,,,,,,,,,,,,,,,,,,,,,,,,,0,0,0,2,1,,,,,,,,,,,,,,,,,,,,,,,,,,,,,,,,,,,,,,,,,
934579,001,2022-11-14_24h26.25.492,Info_measure_main_exp,2022.2.2,Win32,60.24459305,,,,,,,,,,,,,,,,,,masks/mask_002.jpg,,,,,,,,,,,,,,,,,,,,,,,,,,,,,,,,,,,,,,,,,,,,,,,,0,1,1,1,1,,,,,,,,,,,,,,,,,,,,,,,,,,,,,,,,,,,,,,,,,
934579,001,2022-11-14_24h26.25.492,Info_measure_main_exp,2022.2.2,Win32,60.24459305,,,,,,,,,,,,,,,,,,masks/mask_005.jpg,,,,,,,,,,,,,,,,,,,,,,,,,,,,,,,,,,,,,,,,,,,,,,,,0,2,2,4,1,,,,,,,,,,,,,,,,,,,,,,,,,,,,,,,,,,,,,,,,,
934579,001,2022-11-14_24h26.25.492,Info_measure_main_exp,2022.2.2,Win32,60.24459305,,,,,,,,,,,,,,,,,,masks/mask_001.jpg,,,,,,,,,,,,,,,,,,,,,,,,,,,,,,,,,,,,,,,,,,,,,,,,0,3,3,0,1,,,,,,,,,,,,,,,,,,,,,,,,,,,,,,,,,,,,,,,,,
934579,001,2022-11-14_24h26.25.492,Info_measure_main_exp,2022.2.2,Win32,60.24459305,,,,,,,,,,,,,,,,,,masks/mask_004.jpg,,,,,,,,,,,,,,,,,,,,,,,,,,,,,,,,,,,,,,,,,,,,,,,,0,4,4,3,1,,,,,,,,,,,,,,,,,,,,,,,,,,,,,,,,,,,,,,,,,
934579,001,2022-11-14_24h26.25.492,Info_measure_main_exp,2022.2.2,Win32,60.24459305,,,,,,,,,,,,,,,,,,,,,,,,,,,,,,6,2.2329,1,,,,,,,,,,,,0,131,5,5,2154,2238,absent_patch/patch0002154.jpg,absent_patch/patch0002238.jpg,,,,,,,,,,,,,,,,,,,,0.082407422,0.034259266,1,0,0,response1disk,29,0.000925912,0,1,0,0,center_square,0,28,28,21,1,,,,,,,,,,,,,,,,,,,,,,,
934579,001,2022-11-14_24h26.25.492,Info_measure_main_exp,2022.2.2,Win32,60.24459305,,,,,,,,,,,,,,,,,,masks/mask_004.jpg,,,,,,,,,,,,,,,,,,,,,,,,,,,,,,,,,,,,,,,,,,,0,0,0,3,1,,,,,,,,,,,,,,,,,,,,,,,,,,,,,,,,,,,,,,,,,,,,,,
934579,001,2022-11-14_24h26.25.492,Info_measure_main_exp,2022.2.2,Win32,60.24459305,,,,,,,,,,,,,,,,,,masks/mask_005.jpg,,,,,,,,,,,,,,,,,,,,,,,,,,,,,,,,,,,,,,,,,,,0,1,1,4,1,,,,,,,,,,,,,,,,,,,,,,,,,,,,,,,,,,,,,,,,,,,,,,
934579,001,2022-11-14_24h26.25.492,Info_measure_main_exp,2022.2.2,Win32,60.24459305,,,,,,,,,,,,,,,,,,masks/mask_003.jpg,,,,,,,,,,,,,,,,,,,,,,,,,,,,,,,,,,,,,,,,,,,0,2,2,2,1,,,,,,,,,,,,,,,,,,,,,,,,,,,,,,,,,,,,,,,,,,,,,,
934579,001,2022-11-14_24h26.25.492,Info_measure_main_exp,2022.2.2,Win32,60.24459305,,,,,,,,,,,,,,,,,,masks/mask_002.jpg,,,,,,,,,,,,,,,,,,,,,,,,,,,,,,,,,,,,,,,,,,,0,3,3,1,1,,,,,,,,,,,,,,,,,,,,,,,,,,,,,,,,,,,,,,,,,,,,,,
934579,001,2022-11-14_24h26.25.492,Info_measure_main_exp,2022.2.2,Win32,60.24459305,,,,,,,,,,,,,,,,,,masks/mask_001.jpg,,,,,,,,,,,,,,,,,,,,,,,,,,,,,,,,,,,,,,,,,,,0,4,4,0,1,,,,,,,,,,,,,,,,,,,,,,,,,,,,,,,,,,,,,,,,,,,,,,
934579,001,2022-11-14_24h26.25.492,Info_measure_main_exp,2022.2.2,Win32,60.24459305,,,,,,,,,,,,,,,,,,masks/mask_005.jpg,,,,,,,,,,,,,,,,,,,,,,,,,,,,,,,,,,,,,,,,,,,,,,,,0,0,0,4,1,,,,,,,,,,,,,,,,,,,,,,,,,,,,,,,,,,,,,,,,,
934579,001,2022-11-14_24h26.25.492,Info_measure_main_exp,2022.2.2,Win32,60.24459305,,,,,,,,,,,,,,,,,,masks/mask_002.jpg,,,,,,,,,,,,,,,,,,,,,,,,,,,,,,,,,,,,,,,,,,,,,,,,0,1,1,1,1,,,,,,,,,,,,,,,,,,,,,,,,,,,,,,,,,,,,,,,,,
934579,001,2022-11-14_24h26.25.492,Info_measure_main_exp,2022.2.2,Win32,60.24459305,,,,,,,,,,,,,,,,,,masks/mask_004.jpg,,,,,,,,,,,,,,,,,,,,,,,,,,,,,,,,,,,,,,,,,,,,,,,,0,2,2,3,1,,,,,,,,,,,,,,,,,,,,,,,,,,,,,,,,,,,,,,,,,
934579,001,2022-11-14_24h26.25.492,Info_measure_main_exp,2022.2.2,Win32,60.24459305,,,,,,,,,,,,,,,,,,masks/mask_001.jpg,,,,,,,,,,,,,,,,,,,,,,,,,,,,,,,,,,,,,,,,,,,,,,,,0,3,3,0,1,,,,,,,,,,,,,,,,,,,,,,,,,,,,,,,,,,,,,,,,,
934579,001,2022-11-14_24h26.25.492,Info_measure_main_exp,2022.2.2,Win32,60.24459305,,,,,,,,,,,,,,,,,,masks/mask_003.jpg,,,,,,,,,,,,,,,,,,,,,,,,,,,,,,,,,,,,,,,,,,,,,,,,0,4,4,2,1,,,,,,,,,,,,,,,,,,,,,,,,,,,,,,,,,,,,,,,,,
934579,001,2022-11-14_24h26.25.492,Info_measure_main_exp,2022.2.2,Win32,60.24459305,,,,,,,,,,,,,,,,,,,,,,,,,,,,,,0,0.9994,1,,,,,,,,,,,,0,131,5,5,1986,2238,absent_patch/patch0001986.jpg,absent_patch/patch0002238.jpg,,,,,,,,,,,,,,,,,,,,-0.040740755,0.103703711,1,0,0,response7disk,30,0.012962977,0.006481489,1,0,0,center_square,0,29,29,31,1,,,,,,,,,,,,,,,,,,,,,,,
934579,001,2022-11-14_24h26.25.492,Info_measure_main_exp,2022.2.2,Win32,60.24459305,,,,,,,,,,,,,,,,,,masks/mask_002.jpg,,,,,,,,,,,,,,,,,,,,,,,,,,,,,,,,,,,,,,,,,,,0,0,0,1,1,,,,,,,,,,,,,,,,,,,,,,,,,,,,,,,,,,,,,,,,,,,,,,
934579,001,2022-11-14_24h26.25.492,Info_measure_main_exp,2022.2.2,Win32,60.24459305,,,,,,,,,,,,,,,,,,masks/mask_004.jpg,,,,,,,,,,,,,,,,,,,,,,,,,,,,,,,,,,,,,,,,,,,0,1,1,3,1,,,,,,,,,,,,,,,,,,,,,,,,,,,,,,,,,,,,,,,,,,,,,,
934579,001,2022-11-14_24h26.25.492,Info_measure_main_exp,2022.2.2,Win32,60.24459305,,,,,,,,,,,,,,,,,,masks/mask_003.jpg,,,,,,,,,,,,,,,,,,,,,,,,,,,,,,,,,,,,,,,,,,,0,2,2,2,1,,,,,,,,,,,,,,,,,,,,,,,,,,,,,,,,,,,,,,,,,,,,,,
934579,001,2022-11-14_24h26.25.492,Info_measure_main_exp,2022.2.2,Win32,60.24459305,,,,,,,,,,,,,,,,,,masks/mask_005.jpg,,,,,,,,,,,,,,,,,,,,,,,,,,,,,,,,,,,,,,,,,,,0,3,3,4,1,,,,,,,,,,,,,,,,,,,,,,,,,,,,,,,,,,,,,,,,,,,,,,
934579,001,2022-11-14_24h26.25.492,Info_measure_main_exp,2022.2.2,Win32,60.24459305,,,,,,,,,,,,,,,,,,masks/mask_001.jpg,,,,,,,,,,,,,,,,,,,,,,,,,,,,,,,,,,,,,,,,,,,0,4,4,0,1,,,,,,,,,,,,,,,,,,,,,,,,,,,,,,,,,,,,,,,,,,,,,,
934579,001,2022-11-14_24h26.25.492,Info_measure_main_exp,2022.2.2,Win32,60.24459305,,,,,,,,,,,,,,,,,,masks/mask_003.jpg,,,,,,,,,,,,,,,,,,,,,,,,,,,,,,,,,,,,,,,,,,,,,,,,0,0,0,2,1,,,,,,,,,,,,,,,,,,,,,,,,,,,,,,,,,,,,,,,,,
934579,001,2022-11-14_24h26.25.492,Info_measure_main_exp,2022.2.2,Win32,60.24459305,,,,,,,,,,,,,,,,,,masks/mask_005.jpg,,,,,,,,,,,,,,,,,,,,,,,,,,,,,,,,,,,,,,,,,,,,,,,,0,1,1,4,1,,,,,,,,,,,,,,,,,,,,,,,,,,,,,,,,,,,,,,,,,
934579,001,2022-11-14_24h26.25.492,Info_measure_main_exp,2022.2.2,Win32,60.24459305,,,,,,,,,,,,,,,,,,masks/mask_004.jpg,,,,,,,,,,,,,,,,,,,,,,,,,,,,,,,,,,,,,,,,,,,,,,,,0,2,2,3,1,,,,,,,,,,,,,,,,,,,,,,,,,,,,,,,,,,,,,,,,,
934579,001,2022-11-14_24h26.25.492,Info_measure_main_exp,2022.2.2,Win32,60.24459305,,,,,,,,,,,,,,,,,,masks/mask_002.jpg,,,,,,,,,,,,,,,,,,,,,,,,,,,,,,,,,,,,,,,,,,,,,,,,0,3,3,1,1,,,,,,,,,,,,,,,,,,,,,,,,,,,,,,,,,,,,,,,,,
934579,001,2022-11-14_24h26.25.492,Info_measure_main_exp,2022.2.2,Win32,60.24459305,,,,,,,,,,,,,,,,,,masks/mask_001.jpg,,,,,,,,,,,,,,,,,,,,,,,,,,,,,,,,,,,,,,,,,,,,,,,,0,4,4,0,1,,,,,,,,,,,,,,,,,,,,,,,,,,,,,,,,,,,,,,,,,
934579,001,2022-11-14_24h26.25.492,Info_measure_main_exp,2022.2.2,Win32,60.24459305,,,,,,,,,,,,,,,,,,,,,,,,,,,,,,4,5.2315,1,,,,,,,,,,,,0,131,5,5,2274,1974,absent_patch/patch0002274.jpg,absent_patch/patch0001974.jpg,,,,,,,,,,,,,,,,,,,,0.035185213,-0.107407393,1,0,0,response3disk,31,0.000925912,0.014814801,1,0,0,center_square,0,30,30,90,1,,,,,,,,,,,,,,,,,,,,,,,
934579,001,2022-11-14_24h26.25.492,Info_measure_main_exp,2022.2.2,Win32,60.24459305,,,,,,,,,,,,,,,,,,masks/mask_004.jpg,,,,,,,,,,,,,,,,,,,,,,,,,,,,,,,,,,,,,,,,,,,0,0,0,3,1,,,,,,,,,,,,,,,,,,,,,,,,,,,,,,,,,,,,,,,,,,,,,,
934579,001,2022-11-14_24h26.25.492,Info_measure_main_exp,2022.2.2,Win32,60.24459305,,,,,,,,,,,,,,,,,,masks/mask_003.jpg,,,,,,,,,,,,,,,,,,,,,,,,,,,,,,,,,,,,,,,,,,,0,1,1,2,1,,,,,,,,,,,,,,,,,,,,,,,,,,,,,,,,,,,,,,,,,,,,,,
934579,001,2022-11-14_24h26.25.492,Info_measure_main_exp,2022.2.2,Win32,60.24459305,,,,,,,,,,,,,,,,,,masks/mask_005.jpg,,,,,,,,,,,,,,,,,,,,,,,,,,,,,,,,,,,,,,,,,,,0,2,2,4,1,,,,,,,,,,,,,,,,,,,,,,,,,,,,,,,,,,,,,,,,,,,,,,
934579,001,2022-11-14_24h26.25.492,Info_measure_main_exp,2022.2.2,Win32,60.24459305,,,,,,,,,,,,,,,,,,masks/mask_001.jpg,,,,,,,,,,,,,,,,,,,,,,,,,,,,,,,,,,,,,,,,,,,0,3,3,0,1,,,,,,,,,,,,,,,,,,,,,,,,,,,,,,,,,,,,,,,,,,,,,,
934579,001,2022-11-14_24h26.25.492,Info_measure_main_exp,2022.2.2,Win32,60.24459305,,,,,,,,,,,,,,,,,,masks/mask_002.jpg,,,,,,,,,,,,,,,,,,,,,,,,,,,,,,,,,,,,,,,,,,,0,4,4,1,1,,,,,,,,,,,,,,,,,,,,,,,,,,,,,,,,,,,,,,,,,,,,,,
934579,001,2022-11-14_24h26.25.492,Info_measure_main_exp,2022.2.2,Win32,60.24459305,,,,,,,,,,,,,,,,,,masks/mask_002.jpg,,,,,,,,,,,,,,,,,,,,,,,,,,,,,,,,,,,,,,,,,,,,,,,,0,0,0,1,1,,,,,,,,,,,,,,,,,,,,,,,,,,,,,,,,,,,,,,,,,
934579,001,2022-11-14_24h26.25.492,Info_measure_main_exp,2022.2.2,Win32,60.24459305,,,,,,,,,,,,,,,,,,masks/mask_003.jpg,,,,,,,,,,,,,,,,,,,,,,,,,,,,,,,,,,,,,,,,,,,,,,,,0,1,1,2,1,,,,,,,,,,,,,,,,,,,,,,,,,,,,,,,,,,,,,,,,,
934579,001,2022-11-14_24h26.25.492,Info_measure_main_exp,2022.2.2,Win32,60.24459305,,,,,,,,,,,,,,,,,,masks/mask_004.jpg,,,,,,,,,,,,,,,,,,,,,,,,,,,,,,,,,,,,,,,,,,,,,,,,0,2,2,3,1,,,,,,,,,,,,,,,,,,,,,,,,,,,,,,,,,,,,,,,,,
934579,001,2022-11-14_24h26.25.492,Info_measure_main_exp,2022.2.2,Win32,60.24459305,,,,,,,,,,,,,,,,,,masks/mask_005.jpg,,,,,,,,,,,,,,,,,,,,,,,,,,,,,,,,,,,,,,,,,,,,,,,,0,3,3,4,1,,,,,,,,,,,,,,,,,,,,,,,,,,,,,,,,,,,,,,,,,
934579,001,2022-11-14_24h26.25.492,Info_measure_main_exp,2022.2.2,Win32,60.24459305,,,,,,,,,,,,,,,,,,masks/mask_001.jpg,,,,,,,,,,,,,,,,,,,,,,,,,,,,,,,,,,,,,,,,,,,,,,,,0,4,4,0,1,,,,,,,,,,,,,,,,,,,,,,,,,,,,,,,,,,,,,,,,,
934579,001,2022-11-14_24h26.25.492,Info_measure_main_exp,2022.2.2,Win32,60.24459305,,,,,,,,,,,,,,,,,,,,,,,,,,,,,,0,0.7661,1,,,,,,,,,,,,0,131,5,5,1974,1950,absent_patch/patch0001974.jpg,absent_patch/patch0001950.jpg,,,,,,,,,,,,,,,,,,,,-0.049074032,0.1324074,1,0,0,response7disk,32,0.002777806,0.001851859,1,0,0,center_square,0,31,31,17,1,,,,,,,,,,,,,,,,,,,,,,,
934579,001,2022-11-14_24h26.25.492,Info_measure_main_exp,2022.2.2,Win32,60.24459305,,,,,,,,,,,,,,,,,,masks/mask_001.jpg,,,,,,,,,,,,,,,,,,,,,,,,,,,,,,,,,,,,,,,,,,,0,0,0,0,1,,,,,,,,,,,,,,,,,,,,,,,,,,,,,,,,,,,,,,,,,,,,,,
934579,001,2022-11-14_24h26.25.492,Info_measure_main_exp,2022.2.2,Win32,60.24459305,,,,,,,,,,,,,,,,,,masks/mask_004.jpg,,,,,,,,,,,,,,,,,,,,,,,,,,,,,,,,,,,,,,,,,,,0,1,1,3,1,,,,,,,,,,,,,,,,,,,,,,,,,,,,,,,,,,,,,,,,,,,,,,
934579,001,2022-11-14_24h26.25.492,Info_measure_main_exp,2022.2.2,Win32,60.24459305,,,,,,,,,,,,,,,,,,masks/mask_005.jpg,,,,,,,,,,,,,,,,,,,,,,,,,,,,,,,,,,,,,,,,,,,0,2,2,4,1,,,,,,,,,,,,,,,,,,,,,,,,,,,,,,,,,,,,,,,,,,,,,,
934579,001,2022-11-14_24h26.25.492,Info_measure_main_exp,2022.2.2,Win32,60.24459305,,,,,,,,,,,,,,,,,,masks/mask_002.jpg,,,,,,,,,,,,,,,,,,,,,,,,,,,,,,,,,,,,,,,,,,,0,3,3,1,1,,,,,,,,,,,,,,,,,,,,,,,,,,,,,,,,,,,,,,,,,,,,,,
934579,001,2022-11-14_24h26.25.492,Info_measure_main_exp,2022.2.2,Win32,60.24459305,,,,,,,,,,,,,,,,,,masks/mask_003.jpg,,,,,,,,,,,,,,,,,,,,,,,,,,,,,,,,,,,,,,,,,,,0,4,4,2,1,,,,,,,,,,,,,,,,,,,,,,,,,,,,,,,,,,,,,,,,,,,,,,
934579,001,2022-11-14_24h26.25.492,Info_measure_main_exp,2022.2.2,Win32,60.24459305,,,,,,,,,,,,,,,,,,masks/mask_003.jpg,,,,,,,,,,,,,,,,,,,,,,,,,,,,,,,,,,,,,,,,,,,,,,,,0,0,0,2,1,,,,,,,,,,,,,,,,,,,,,,,,,,,,,,,,,,,,,,,,,
934579,001,2022-11-14_24h26.25.492,Info_measure_main_exp,2022.2.2,Win32,60.24459305,,,,,,,,,,,,,,,,,,masks/mask_002.jpg,,,,,,,,,,,,,,,,,,,,,,,,,,,,,,,,,,,,,,,,,,,,,,,,0,1,1,1,1,,,,,,,,,,,,,,,,,,,,,,,,,,,,,,,,,,,,,,,,,
934579,001,2022-11-14_24h26.25.492,Info_measure_main_exp,2022.2.2,Win32,60.24459305,,,,,,,,,,,,,,,,,,masks/mask_004.jpg,,,,,,,,,,,,,,,,,,,,,,,,,,,,,,,,,,,,,,,,,,,,,,,,0,2,2,3,1,,,,,,,,,,,,,,,,,,,,,,,,,,,,,,,,,,,,,,,,,
934579,001,2022-11-14_24h26.25.492,Info_measure_main_exp,2022.2.2,Win32,60.24459305,,,,,,,,,,,,,,,,,,masks/mask_001.jpg,,,,,,,,,,,,,,,,,,,,,,,,,,,,,,,,,,,,,,,,,,,,,,,,0,3,3,0,1,,,,,,,,,,,,,,,,,,,,,,,,,,,,,,,,,,,,,,,,,
934579,001,2022-11-14_24h26.25.492,Info_measure_main_exp,2022.2.2,Win32,60.24459305,,,,,,,,,,,,,,,,,,masks/mask_005.jpg,,,,,,,,,,,,,,,,,,,,,,,,,,,,,,,,,,,,,,,,,,,,,,,,0,4,4,4,1,,,,,,,,,,,,,,,,,,,,,,,,,,,,,,,,,,,,,,,,,
934579,001,2022-11-14_24h26.25.492,Info_measure_main_exp,2022.2.2,Win32,60.24459305,,,,,,,,,,,,,,,,,,,,,,,,,,,,,,7,1.9658,1,,,,,,,,,,,,0,131,5,5,2190,2178,absent_patch/patch0002190.jpg,absent_patch/patch0002178.jpg,,,,,,,,,,,,,,,,,,,,0.062962991,0.13703703,1,0,0,response1disk,33,-0.000925912,0.006481489,1,0,0,center_square,0,32,32,14,1,,,,,,,,,,,,,,,,,,,,,,,
934579,001,2022-11-14_24h26.25.492,Info_measure_main_exp,2022.2.2,Win32,60.24459305,,,,,,,,,,,,,,,,,,masks/mask_003.jpg,,,,,,,,,,,,,,,,,,,,,,,,,,,,,,,,,,,,,,,,,,,0,0,0,2,1,,,,,,,,,,,,,,,,,,,,,,,,,,,,,,,,,,,,,,,,,,,,,,
934579,001,2022-11-14_24h26.25.492,Info_measure_main_exp,2022.2.2,Win32,60.24459305,,,,,,,,,,,,,,,,,,masks/mask_002.jpg,,,,,,,,,,,,,,,,,,,,,,,,,,,,,,,,,,,,,,,,,,,0,1,1,1,1,,,,,,,,,,,,,,,,,,,,,,,,,,,,,,,,,,,,,,,,,,,,,,
934579,001,2022-11-14_24h26.25.492,Info_measure_main_exp,2022.2.2,Win32,60.24459305,,,,,,,,,,,,,,,,,,masks/mask_001.jpg,,,,,,,,,,,,,,,,,,,,,,,,,,,,,,,,,,,,,,,,,,,0,2,2,0,1,,,,,,,,,,,,,,,,,,,,,,,,,,,,,,,,,,,,,,,,,,,,,,
934579,001,2022-11-14_24h26.25.492,Info_measure_main_exp,2022.2.2,Win32,60.24459305,,,,,,,,,,,,,,,,,,masks/mask_005.jpg,,,,,,,,,,,,,,,,,,,,,,,,,,,,,,,,,,,,,,,,,,,0,3,3,4,1,,,,,,,,,,,,,,,,,,,,,,,,,,,,,,,,,,,,,,,,,,,,,,
934579,001,2022-11-14_24h26.25.492,Info_measure_main_exp,2022.2.2,Win32,60.24459305,,,,,,,,,,,,,,,,,,masks/mask_004.jpg,,,,,,,,,,,,,,,,,,,,,,,,,,,,,,,,,,,,,,,,,,,0,4,4,3,1,,,,,,,,,,,,,,,,,,,,,,,,,,,,,,,,,,,,,,,,,,,,,,
934579,001,2022-11-14_24h26.25.492,Info_measure_main_exp,2022.2.2,Win32,60.24459305,,,,,,,,,,,,,,,,,,masks/mask_003.jpg,,,,,,,,,,,,,,,,,,,,,,,,,,,,,,,,,,,,,,,,,,,,,,,,0,0,0,2,1,,,,,,,,,,,,,,,,,,,,,,,,,,,,,,,,,,,,,,,,,
934579,001,2022-11-14_24h26.25.492,Info_measure_main_exp,2022.2.2,Win32,60.24459305,,,,,,,,,,,,,,,,,,masks/mask_004.jpg,,,,,,,,,,,,,,,,,,,,,,,,,,,,,,,,,,,,,,,,,,,,,,,,0,1,1,3,1,,,,,,,,,,,,,,,,,,,,,,,,,,,,,,,,,,,,,,,,,
934579,001,2022-11-14_24h26.25.492,Info_measure_main_exp,2022.2.2,Win32,60.24459305,,,,,,,,,,,,,,,,,,masks/mask_005.jpg,,,,,,,,,,,,,,,,,,,,,,,,,,,,,,,,,,,,,,,,,,,,,,,,0,2,2,4,1,,,,,,,,,,,,,,,,,,,,,,,,,,,,,,,,,,,,,,,,,
934579,001,2022-11-14_24h26.25.492,Info_measure_main_exp,2022.2.2,Win32,60.24459305,,,,,,,,,,,,,,,,,,masks/mask_002.jpg,,,,,,,,,,,,,,,,,,,,,,,,,,,,,,,,,,,,,,,,,,,,,,,,0,3,3,1,1,,,,,,,,,,,,,,,,,,,,,,,,,,,,,,,,,,,,,,,,,
934579,001,2022-11-14_24h26.25.492,Info_measure_main_exp,2022.2.2,Win32,60.24459305,,,,,,,,,,,,,,,,,,masks/mask_001.jpg,,,,,,,,,,,,,,,,,,,,,,,,,,,,,,,,,,,,,,,,,,,,,,,,0,4,4,0,1,,,,,,,,,,,,,,,,,,,,,,,,,,,,,,,,,,,,,,,,,
934579,001,2022-11-14_24h26.25.492,Info_measure_main_exp,2022.2.2,Win32,60.24459305,,,,,,,,,,,,,,,,,,,,,,,,,,,,,,4,3.6325,1,,,,,,,,,,,,0,131,5,5,2250,1950,absent_patch/patch0002250.jpg,absent_patch/patch0001950.jpg,,,,,,,,,,,,,,,,,,,,0.065740727,-0.079629651,1,0,0,response3disk,34,0.001851894,0.001851859,1,0,0,center_square,0,33,33,16,1,,,,,,,,,,,,,,,,,,,,,,,
934579,001,2022-11-14_24h26.25.492,Info_measure_main_exp,2022.2.2,Win32,60.24459305,,,,,,,,,,,,,,,,,,masks/mask_001.jpg,,,,,,,,,,,,,,,,,,,,,,,,,,,,,,,,,,,,,,,,,,,0,0,0,0,1,,,,,,,,,,,,,,,,,,,,,,,,,,,,,,,,,,,,,,,,,,,,,,
934579,001,2022-11-14_24h26.25.492,Info_measure_main_exp,2022.2.2,Win32,60.24459305,,,,,,,,,,,,,,,,,,masks/mask_002.jpg,,,,,,,,,,,,,,,,,,,,,,,,,,,,,,,,,,,,,,,,,,,0,1,1,1,1,,,,,,,,,,,,,,,,,,,,,,,,,,,,,,,,,,,,,,,,,,,,,,
934579,001,2022-11-14_24h26.25.492,Info_measure_main_exp,2022.2.2,Win32,60.24459305,,,,,,,,,,,,,,,,,,masks/mask_005.jpg,,,,,,,,,,,,,,,,,,,,,,,,,,,,,,,,,,,,,,,,,,,0,2,2,4,1,,,,,,,,,,,,,,,,,,,,,,,,,,,,,,,,,,,,,,,,,,,,,,
934579,001,2022-11-14_24h26.25.492,Info_measure_main_exp,2022.2.2,Win32,60.24459305,,,,,,,,,,,,,,,,,,masks/mask_004.jpg,,,,,,,,,,,,,,,,,,,,,,,,,,,,,,,,,,,,,,,,,,,0,3,3,3,1,,,,,,,,,,,,,,,,,,,,,,,,,,,,,,,,,,,,,,,,,,,,,,
934579,001,2022-11-14_24h26.25.492,Info_measure_main_exp,2022.2.2,Win32,60.24459305,,,,,,,,,,,,,,,,,,masks/mask_003.jpg,,,,,,,,,,,,,,,,,,,,,,,,,,,,,,,,,,,,,,,,,,,0,4,4,2,1,,,,,,,,,,,,,,,,,,,,,,,,,,,,,,,,,,,,,,,,,,,,,,
934579,001,2022-11-14_24h26.25.492,Info_measure_main_exp,2022.2.2,Win32,60.24459305,,,,,,,,,,,,,,,,,,masks/mask_005.jpg,,,,,,,,,,,,,,,,,,,,,,,,,,,,,,,,,,,,,,,,,,,,,,,,0,0,0,4,1,,,,,,,,,,,,,,,,,,,,,,,,,,,,,,,,,,,,,,,,,
934579,001,2022-11-14_24h26.25.492,Info_measure_main_exp,2022.2.2,Win32,60.24459305,,,,,,,,,,,,,,,,,,masks/mask_003.jpg,,,,,,,,,,,,,,,,,,,,,,,,,,,,,,,,,,,,,,,,,,,,,,,,0,1,1,2,1,,,,,,,,,,,,,,,,,,,,,,,,,,,,,,,,,,,,,,,,,
934579,001,2022-11-14_24h26.25.492,Info_measure_main_exp,2022.2.2,Win32,60.24459305,,,,,,,,,,,,,,,,,,masks/mask_004.jpg,,,,,,,,,,,,,,,,,,,,,,,,,,,,,,,,,,,,,,,,,,,,,,,,0,2,2,3,1,,,,,,,,,,,,,,,,,,,,,,,,,,,,,,,,,,,,,,,,,
934579,001,2022-11-14_24h26.25.492,Info_measure_main_exp,2022.2.2,Win32,60.24459305,,,,,,,,,,,,,,,,,,masks/mask_002.jpg,,,,,,,,,,,,,,,,,,,,,,,,,,,,,,,,,,,,,,,,,,,,,,,,0,3,3,1,1,,,,,,,,,,,,,,,,,,,,,,,,,,,,,,,,,,,,,,,,,
