participant,session,date,expName,psychopyVersion,OS,frameRate,space_press_continue.keys,space_press_continue.rt,space_press_continue_2.keys,space_press_continue_2.rt,space_press_continue_3.keys,space_press_continue_3.rt,space_press_continue_4.keys,space_press_continue_4.rt,space_press_continue_5.keys,space_press_continue_5.rt,space_press_continue_6.keys,space_press_continue_6.rt,prac_mask_loop_1.thisRepN,prac_mask_loop_1.thisTrialN,prac_mask_loop_1.thisN,prac_mask_loop_1.thisIndex,prac_mask_loop_1.ran,mask_name,prac_mask_loop_2.thisRepN,prac_mask_loop_2.thisTrialN,prac_mask_loop_2.thisN,prac_mask_loop_2.thisIndex,prac_mask_loop_2.ran,mouse_2.x,mouse_2.y,mouse_2.leftButton,mouse_2.midButton,mouse_2.rightButton,mouse_2.clicked_name,similarity,response_time,Pass,mouse_12.x,mouse_12.y,mouse_12.leftButton,mouse_12.midButton,mouse_12.rightButton,mouse_12.clicked_name,prac_loop.thisRepN,prac_loop.thisTrialN,prac_loop.thisN,prac_loop.thisIndex,prac_loop.ran,Pair_type,Image_num,Patch_1_loc,Patch_2_loc,Patch_1_info,Patch_2_info,Patch_1_name,Patch_2_name,mouse_1.x,mouse_1.y,mouse_1.leftButton,mouse_1.midButton,mouse_1.rightButton,mouse_1.time,mouse_1.clicked_name,space_press_continue_7.keys,space_press_continue_7.rt,mask_loop.thisRepN,mask_loop.thisTrialN,mask_loop.thisN,mask_loop.thisIndex,mask_loop.ran,mask_loop_2.thisRepN,mask_loop_2.thisTrialN,mask_loop_2.thisN,mask_loop_2.thisIndex,mask_loop_2.ran,mouse.x,mouse.y,mouse.leftButton,mouse.midButton,mouse.rightButton,mouse.clicked_name,trialNumber,mouse_11.x,mouse_11.y,mouse_11.leftButton,mouse_11.midButton,mouse_11.rightButton,mouse_11.clicked_name,first_pass_loop.thisRepN,first_pass_loop.thisTrialN,first_pass_loop.thisN,first_pass_loop.thisIndex,first_pass_loop.ran,mask_loop_3.thisRepN,mask_loop_3.thisTrialN,mask_loop_3.thisN,mask_loop_3.thisIndex,mask_loop_3.ran,mask_loop_4.thisRepN,mask_loop_4.thisTrialN,mask_loop_4.thisN,mask_loop_4.thisIndex,mask_loop_4.ran,mouse_3.x,mouse_3.y,mouse_3.leftButton,mouse_3.midButton,mouse_3.rightButton,mouse_3.clicked_name,double_pass_loop.thisRepN,double_pass_loop.thisTrialN,double_pass_loop.thisN,double_pass_loop.thisIndex,double_pass_loop.ran,space_exit.keys,space_exit.rt
003492,001,2022-11-21_02h11.13.058,Info_measure_main_exp,2022.2.2,Win32,60.0132029,,,,,,,,,,,,,,,,,,,,,,,,,,,,,,,,,,,,,,,,,,,,,,,,,,,,,,,,,,,,,,,,,,,,,,,,,,,,,,,,,,,,,,,,,,,,,,,,,,,,,,,,,,,,,,,
003492,001,2022-11-21_02h11.13.058,Info_measure_main_exp,2022.2.2,Win32,60.0132029,,,,,,,,,,,,,,,,,,,,,,,,,,,,,,,,,,,,,,,,,,,,,,,,,,,,,,,,,,,,,,,,,,,,,,,,,,,,,,,,,,,,,,,,,,,,,,,,,,,,,,,,,,,,,,,
003492,001,2022-11-21_02h11.13.058,Info_measure_main_exp,2022.2.2,Win32,60.0132029,space,39.1162,,,,,,,,,,,,,,,,,,,,,,,,,,,,,,,,,,,,,,,,,,,,,,,,,,,,,,,,,,,,,,,,,,,,,,,,,,,,,,,,,,,,,,,,,,,,,,,,,,,,,,,,,,,,,
003492,001,2022-11-21_02h11.13.058,Info_measure_main_exp,2022.2.2,Win32,60.0132029,,,space,44.3219,,,,,,,,,,,,,,,,,,,,,,,,,,,,,,,,,,,,,,,,,,,,,,,,,,,,,,,,,,,,,,,,,,,,,,,,,,,,,,,,,,,,,,,,,,,,,,,,,,,,,,,,,,,
003492,001,2022-11-21_02h11.13.058,Info_measure_main_exp,2022.2.2,Win32,60.0132029,,,,,space,11.474,,,,,,,,,,,,,,,,,,,,,,,,,,,,,,,,,,,,,,,,,,,,,,,,,,,,,,,,,,,,,,,,,,,,,,,,,,,,,,,,,,,,,,,,,,,,,,,,,,,,,,,,,
003492,001,2022-11-21_02h11.13.058,Info_measure_main_exp,2022.2.2,Win32,60.0132029,,,,,,,space,31.8586,,,,,,,,,,,,,,,,,,,,,,,,,,,,,,,,,,,,,,,,,,,,,,,,,,,,,,,,,,,,,,,,,,,,,,,,,,,,,,,,,,,,,,,,,,,,,,,,,,,,,,,
003492,001,2022-11-21_02h11.13.058,Info_measure_main_exp,2022.2.2,Win32,60.0132029,,,,,,,,,space,13.6966,,,,,,,,,,,,,,,,,,,,,,,,,,,,,,,,,,,,,,,,,,,,,,,,,,,,,,,,,,,,,,,,,,,,,,,,,,,,,,,,,,,,,,,,,,,,,,,,,,,,,
003492,001,2022-11-21_02h11.13.058,Info_measure_main_exp,2022.2.2,Win32,60.0132029,,,,,,,,,,,space,3.9701,,,,,,,,,,,,,,,,,,,,,,,,,,,,,,,,,,,,,,,,,,,,,,,,,,,,,,,,,,,,,,,,,,,,,,,,,,,,,,,,,,,,,,,,,,,,,,,,,,,
003492,001,2022-11-21_02h11.13.058,Info_measure_main_exp,2022.2.2,Win32,60.0132029,,,,,,,,,,,,,0,0,0,1,1,masks/mask_002.jpg,,,,,,,,,,,,,,,,,,,,,,,,,,,,,,,,,,,,,,,,,,,,,,,,,,,,,,,,,,,,,,,,,,,,,,,,,,,,,,,,,,,,,,,,,,,,,
003492,001,2022-11-21_02h11.13.058,Info_measure_main_exp,2022.2.2,Win32,60.0132029,,,,,,,,,,,,,0,1,1,3,1,masks/mask_004.jpg,,,,,,,,,,,,,,,,,,,,,,,,,,,,,,,,,,,,,,,,,,,,,,,,,,,,,,,,,,,,,,,,,,,,,,,,,,,,,,,,,,,,,,,,,,,,,
003492,001,2022-11-21_02h11.13.058,Info_measure_main_exp,2022.2.2,Win32,60.0132029,,,,,,,,,,,,,0,2,2,2,1,masks/mask_003.jpg,,,,,,,,,,,,,,,,,,,,,,,,,,,,,,,,,,,,,,,,,,,,,,,,,,,,,,,,,,,,,,,,,,,,,,,,,,,,,,,,,,,,,,,,,,,,,
003492,001,2022-11-21_02h11.13.058,Info_measure_main_exp,2022.2.2,Win32,60.0132029,,,,,,,,,,,,,0,3,3,4,1,masks/mask_005.jpg,,,,,,,,,,,,,,,,,,,,,,,,,,,,,,,,,,,,,,,,,,,,,,,,,,,,,,,,,,,,,,,,,,,,,,,,,,,,,,,,,,,,,,,,,,,,,
003492,001,2022-11-21_02h11.13.058,Info_measure_main_exp,2022.2.2,Win32,60.0132029,,,,,,,,,,,,,0,4,4,0,1,masks/mask_001.jpg,,,,,,,,,,,,,,,,,,,,,,,,,,,,,,,,,,,,,,,,,,,,,,,,,,,,,,,,,,,,,,,,,,,,,,,,,,,,,,,,,,,,,,,,,,,,,
003492,001,2022-11-21_02h11.13.058,Info_measure_main_exp,2022.2.2,Win32,60.0132029,,,,,,,,,,,,,,,,,,masks/mask_005.jpg,0,0,0,4,1,,,,,,,,,,,,,,,,,,,,,,,,,,,,,,,,,,,,,,,,,,,,,,,,,,,,,,,,,,,,,,,,,,,,,,,,,,,,,,,,,,,,,,,,
003492,001,2022-11-21_02h11.13.058,Info_measure_main_exp,2022.2.2,Win32,60.0132029,,,,,,,,,,,,,,,,,,masks/mask_003.jpg,0,1,1,2,1,,,,,,,,,,,,,,,,,,,,,,,,,,,,,,,,,,,,,,,,,,,,,,,,,,,,,,,,,,,,,,,,,,,,,,,,,,,,,,,,,,,,,,,,
003492,001,2022-11-21_02h11.13.058,Info_measure_main_exp,2022.2.2,Win32,60.0132029,,,,,,,,,,,,,,,,,,masks/mask_004.jpg,0,2,2,3,1,,,,,,,,,,,,,,,,,,,,,,,,,,,,,,,,,,,,,,,,,,,,,,,,,,,,,,,,,,,,,,,,,,,,,,,,,,,,,,,,,,,,,,,,
003492,001,2022-11-21_02h11.13.058,Info_measure_main_exp,2022.2.2,Win32,60.0132029,,,,,,,,,,,,,,,,,,masks/mask_001.jpg,0,3,3,0,1,,,,,,,,,,,,,,,,,,,,,,,,,,,,,,,,,,,,,,,,,,,,,,,,,,,,,,,,,,,,,,,,,,,,,,,,,,,,,,,,,,,,,,,,
003492,001,2022-11-21_02h11.13.058,Info_measure_main_exp,2022.2.2,Win32,60.0132029,,,,,,,,,,,,,,,,,,masks/mask_002.jpg,0,4,4,1,1,,,,,,,,,,,,,,,,,,,,,,,,,,,,,,,,,,,,,,,,,,,,,,,,,,,,,,,,,,,,,,,,,,,,,,,,,,,,,,,,,,,,,,,,
003492,001,2022-11-21_02h11.13.058,Info_measure_main_exp,2022.2.2,Win32,60.0132029,,,,,,,,,,,,,,,,,,,,,,,,0.162963019,-0.037037065,1,0,0,response3disk,5,152.2096,1,0.004629686,-0.00648151,1,0,0,center_square,0,0,0,1,1,0,131,5,5,2514,2490,prac_patch/patch0002514.jpg,prac_patch/patch0002490.jpg,,,,,,,,,,,,,,,,,,,,,,,,,,,,,,,,,,,,,,,,,,,,,,,,,,,,,,,,,,,,
003492,001,2022-11-21_02h11.13.058,Info_measure_main_exp,2022.2.2,Win32,60.0132029,,,,,,,,,,,,,0,0,0,0,1,masks/mask_001.jpg,,,,,,,,,,,,,,,,,,,,,,,,,,,,,,,,,,,,,,,,,,,,,,,,,,,,,,,,,,,,,,,,,,,,,,,,,,,,,,,,,,,,,,,,,,,,,
003492,001,2022-11-21_02h11.13.058,Info_measure_main_exp,2022.2.2,Win32,60.0132029,,,,,,,,,,,,,0,1,1,4,1,masks/mask_005.jpg,,,,,,,,,,,,,,,,,,,,,,,,,,,,,,,,,,,,,,,,,,,,,,,,,,,,,,,,,,,,,,,,,,,,,,,,,,,,,,,,,,,,,,,,,,,,,
003492,001,2022-11-21_02h11.13.058,Info_measure_main_exp,2022.2.2,Win32,60.0132029,,,,,,,,,,,,,0,2,2,2,1,masks/mask_003.jpg,,,,,,,,,,,,,,,,,,,,,,,,,,,,,,,,,,,,,,,,,,,,,,,,,,,,,,,,,,,,,,,,,,,,,,,,,,,,,,,,,,,,,,,,,,,,,
003492,001,2022-11-21_02h11.13.058,Info_measure_main_exp,2022.2.2,Win32,60.0132029,,,,,,,,,,,,,0,3,3,3,1,masks/mask_004.jpg,,,,,,,,,,,,,,,,,,,,,,,,,,,,,,,,,,,,,,,,,,,,,,,,,,,,,,,,,,,,,,,,,,,,,,,,,,,,,,,,,,,,,,,,,,,,,
003492,001,2022-11-21_02h11.13.058,Info_measure_main_exp,2022.2.2,Win32,60.0132029,,,,,,,,,,,,,0,4,4,1,1,masks/mask_002.jpg,,,,,,,,,,,,,,,,,,,,,,,,,,,,,,,,,,,,,,,,,,,,,,,,,,,,,,,,,,,,,,,,,,,,,,,,,,,,,,,,,,,,,,,,,,,,,
003492,001,2022-11-21_02h11.13.058,Info_measure_main_exp,2022.2.2,Win32,60.0132029,,,,,,,,,,,,,,,,,,masks/mask_001.jpg,0,0,0,0,1,,,,,,,,,,,,,,,,,,,,,,,,,,,,,,,,,,,,,,,,,,,,,,,,,,,,,,,,,,,,,,,,,,,,,,,,,,,,,,,,,,,,,,,,
003492,001,2022-11-21_02h11.13.058,Info_measure_main_exp,2022.2.2,Win32,60.0132029,,,,,,,,,,,,,,,,,,masks/mask_003.jpg,0,1,1,2,1,,,,,,,,,,,,,,,,,,,,,,,,,,,,,,,,,,,,,,,,,,,,,,,,,,,,,,,,,,,,,,,,,,,,,,,,,,,,,,,,,,,,,,,,
003492,001,2022-11-21_02h11.13.058,Info_measure_main_exp,2022.2.2,Win32,60.0132029,,,,,,,,,,,,,,,,,,masks/mask_005.jpg,0,2,2,4,1,,,,,,,,,,,,,,,,,,,,,,,,,,,,,,,,,,,,,,,,,,,,,,,,,,,,,,,,,,,,,,,,,,,,,,,,,,,,,,,,,,,,,,,,
003492,001,2022-11-21_02h11.13.058,Info_measure_main_exp,2022.2.2,Win32,60.0132029,,,,,,,,,,,,,,,,,,masks/mask_004.jpg,0,3,3,3,1,,,,,,,,,,,,,,,,,,,,,,,,,,,,,,,,,,,,,,,,,,,,,,,,,,,,,,,,,,,,,,,,,,,,,,,,,,,,,,,,,,,,,,,,
003492,001,2022-11-21_02h11.13.058,Info_measure_main_exp,2022.2.2,Win32,60.0132029,,,,,,,,,,,,,,,,,,masks/mask_002.jpg,0,4,4,1,1,,,,,,,,,,,,,,,,,,,,,,,,,,,,,,,,,,,,,,,,,,,,,,,,,,,,,,,,,,,,,,,,,,,,,,,,,,,,,,,,,,,,,,,,
003492,001,2022-11-21_02h11.13.058,Info_measure_main_exp,2022.2.2,Win32,60.0132029,,,,,,,,,,,,,,,,,,,,,,,,0.034259288,0.117592578,1,0,0,response1disk,7,167.6984,1,0.004629686,0.012962935,1,0,0,center_square,0,1,1,0,1,0,131,5,5,2370,2406,prac_patch/patch0002370.jpg,prac_patch/patch0002406.jpg,,,,,,,,,,,,,,,,,,,,,,,,,,,,,,,,,,,,,,,,,,,,,,,,,,,,,,,,,,,,
003492,001,2022-11-21_02h11.13.058,Info_measure_main_exp,2022.2.2,Win32,60.0132029,,,,,,,,,,,,,0,0,0,0,1,masks/mask_001.jpg,,,,,,,,,,,,,,,,,,,,,,,,,,,,,,,,,,,,,,,,,,,,,,,,,,,,,,,,,,,,,,,,,,,,,,,,,,,,,,,,,,,,,,,,,,,,,
003492,001,2022-11-21_02h11.13.058,Info_measure_main_exp,2022.2.2,Win32,60.0132029,,,,,,,,,,,,,0,1,1,1,1,masks/mask_002.jpg,,,,,,,,,,,,,,,,,,,,,,,,,,,,,,,,,,,,,,,,,,,,,,,,,,,,,,,,,,,,,,,,,,,,,,,,,,,,,,,,,,,,,,,,,,,,,
003492,001,2022-11-21_02h11.13.058,Info_measure_main_exp,2022.2.2,Win32,60.0132029,,,,,,,,,,,,,0,2,2,2,1,masks/mask_003.jpg,,,,,,,,,,,,,,,,,,,,,,,,,,,,,,,,,,,,,,,,,,,,,,,,,,,,,,,,,,,,,,,,,,,,,,,,,,,,,,,,,,,,,,,,,,,,,
003492,001,2022-11-21_02h11.13.058,Info_measure_main_exp,2022.2.2,Win32,60.0132029,,,,,,,,,,,,,0,3,3,4,1,masks/mask_005.jpg,,,,,,,,,,,,,,,,,,,,,,,,,,,,,,,,,,,,,,,,,,,,,,,,,,,,,,,,,,,,,,,,,,,,,,,,,,,,,,,,,,,,,,,,,,,,,
003492,001,2022-11-21_02h11.13.058,Info_measure_main_exp,2022.2.2,Win32,60.0132029,,,,,,,,,,,,,0,4,4,3,1,masks/mask_004.jpg,,,,,,,,,,,,,,,,,,,,,,,,,,,,,,,,,,,,,,,,,,,,,,,,,,,,,,,,,,,,,,,,,,,,,,,,,,,,,,,,,,,,,,,,,,,,,
003492,001,2022-11-21_02h11.13.058,Info_measure_main_exp,2022.2.2,Win32,60.0132029,,,,,,,,,,,,,,,,,,masks/mask_002.jpg,0,0,0,1,1,,,,,,,,,,,,,,,,,,,,,,,,,,,,,,,,,,,,,,,,,,,,,,,,,,,,,,,,,,,,,,,,,,,,,,,,,,,,,,,,,,,,,,,,
003492,001,2022-11-21_02h11.13.058,Info_measure_main_exp,2022.2.2,Win32,60.0132029,,,,,,,,,,,,,,,,,,masks/mask_005.jpg,0,1,1,4,1,,,,,,,,,,,,,,,,,,,,,,,,,,,,,,,,,,,,,,,,,,,,,,,,,,,,,,,,,,,,,,,,,,,,,,,,,,,,,,,,,,,,,,,,
003492,001,2022-11-21_02h11.13.058,Info_measure_main_exp,2022.2.2,Win32,60.0132029,,,,,,,,,,,,,,,,,,masks/mask_001.jpg,0,2,2,0,1,,,,,,,,,,,,,,,,,,,,,,,,,,,,,,,,,,,,,,,,,,,,,,,,,,,,,,,,,,,,,,,,,,,,,,,,,,,,,,,,,,,,,,,,
003492,001,2022-11-21_02h11.13.058,Info_measure_main_exp,2022.2.2,Win32,60.0132029,,,,,,,,,,,,,,,,,,masks/mask_003.jpg,0,3,3,2,1,,,,,,,,,,,,,,,,,,,,,,,,,,,,,,,,,,,,,,,,,,,,,,,,,,,,,,,,,,,,,,,,,,,,,,,,,,,,,,,,,,,,,,,,
003492,001,2022-11-21_02h11.13.058,Info_measure_main_exp,2022.2.2,Win32,60.0132029,,,,,,,,,,,,,,,,,,masks/mask_004.jpg,0,4,4,3,1,,,,,,,,,,,,,,,,,,,,,,,,,,,,,,,,,,,,,,,,,,,,,,,,,,,,,,,,,,,,,,,,,,,,,,,,,,,,,,,,,,,,,,,,
003492,001,2022-11-21_02h11.13.058,Info_measure_main_exp,2022.2.2,Win32,60.0132029,,,,,,,,,,,,,,,,,,,,,,,,-0.035185157,0.073148134,1,0,0,response7disk,0,186.6107,1,0.00648151,0.001851824,1,0,0,center_square,0,2,2,2,1,0,131,5,5,2526,2526,prac_patch/patch0002526.jpg,prac_patch/patch0002526.jpg,,,,,,,,,,,,,,,,,,,,,,,,,,,,,,,,,,,,,,,,,,,,,,,,,,,,,,,,,,,,
003492,001,2022-11-21_02h11.13.058,Info_measure_main_exp,2022.2.2,Win32,60.0132029,,,,,,,,,,,,,,,,,,,,,,,,,,,,,,,,,,,,,,,,,,,,,,,,,,,,,,,,,,,space,3.1837,,,,,,,,,,,,,,,,,,,,,,,,,,,,,,,,,,,,,,,,,,,,,,,,,,,
003492,001,2022-11-21_02h11.13.058,Info_measure_main_exp,2022.2.2,Win32,60.0132029,,,,,,,,,,,,,,,,,,masks/mask_005.jpg,,,,,,,,,,,,,,,,,,,,,,,,,,,,,,,,,,,,,,,,,,,0,0,0,4,1,,,,,,,,,,,,,,,,,,,,,,,,,,,,,,,,,,,,,,,,,,,,,,
003492,001,2022-11-21_02h11.13.058,Info_measure_main_exp,2022.2.2,Win32,60.0132029,,,,,,,,,,,,,,,,,,masks/mask_001.jpg,,,,,,,,,,,,,,,,,,,,,,,,,,,,,,,,,,,,,,,,,,,0,1,1,0,1,,,,,,,,,,,,,,,,,,,,,,,,,,,,,,,,,,,,,,,,,,,,,,
003492,001,2022-11-21_02h11.13.058,Info_measure_main_exp,2022.2.2,Win32,60.0132029,,,,,,,,,,,,,,,,,,masks/mask_002.jpg,,,,,,,,,,,,,,,,,,,,,,,,,,,,,,,,,,,,,,,,,,,0,2,2,1,1,,,,,,,,,,,,,,,,,,,,,,,,,,,,,,,,,,,,,,,,,,,,,,
003492,001,2022-11-21_02h11.13.058,Info_measure_main_exp,2022.2.2,Win32,60.0132029,,,,,,,,,,,,,,,,,,masks/mask_003.jpg,,,,,,,,,,,,,,,,,,,,,,,,,,,,,,,,,,,,,,,,,,,0,3,3,2,1,,,,,,,,,,,,,,,,,,,,,,,,,,,,,,,,,,,,,,,,,,,,,,
003492,001,2022-11-21_02h11.13.058,Info_measure_main_exp,2022.2.2,Win32,60.0132029,,,,,,,,,,,,,,,,,,masks/mask_004.jpg,,,,,,,,,,,,,,,,,,,,,,,,,,,,,,,,,,,,,,,,,,,0,4,4,3,1,,,,,,,,,,,,,,,,,,,,,,,,,,,,,,,,,,,,,,,,,,,,,,
003492,001,2022-11-21_02h11.13.058,Info_measure_main_exp,2022.2.2,Win32,60.0132029,,,,,,,,,,,,,,,,,,masks/mask_004.jpg,,,,,,,,,,,,,,,,,,,,,,,,,,,,,,,,,,,,,,,,,,,,,,,,0,0,0,3,1,,,,,,,,,,,,,,,,,,,,,,,,,,,,,,,,,,,,,,,,,
003492,001,2022-11-21_02h11.13.058,Info_measure_main_exp,2022.2.2,Win32,60.0132029,,,,,,,,,,,,,,,,,,masks/mask_003.jpg,,,,,,,,,,,,,,,,,,,,,,,,,,,,,,,,,,,,,,,,,,,,,,,,0,1,1,2,1,,,,,,,,,,,,,,,,,,,,,,,,,,,,,,,,,,,,,,,,,
003492,001,2022-11-21_02h11.13.058,Info_measure_main_exp,2022.2.2,Win32,60.0132029,,,,,,,,,,,,,,,,,,masks/mask_002.jpg,,,,,,,,,,,,,,,,,,,,,,,,,,,,,,,,,,,,,,,,,,,,,,,,0,2,2,1,1,,,,,,,,,,,,,,,,,,,,,,,,,,,,,,,,,,,,,,,,,
003492,001,2022-11-21_02h11.13.058,Info_measure_main_exp,2022.2.2,Win32,60.0132029,,,,,,,,,,,,,,,,,,masks/mask_005.jpg,,,,,,,,,,,,,,,,,,,,,,,,,,,,,,,,,,,,,,,,,,,,,,,,0,3,3,4,1,,,,,,,,,,,,,,,,,,,,,,,,,,,,,,,,,,,,,,,,,
003492,001,2022-11-21_02h11.13.058,Info_measure_main_exp,2022.2.2,Win32,60.0132029,,,,,,,,,,,,,,,,,,masks/mask_001.jpg,,,,,,,,,,,,,,,,,,,,,,,,,,,,,,,,,,,,,,,,,,,,,,,,0,4,4,0,1,,,,,,,,,,,,,,,,,,,,,,,,,,,,,,,,,,,,,,,,,
003492,001,2022-11-21_02h11.13.058,Info_measure_main_exp,2022.2.2,Win32,60.0132029,,,,,,,,,,,,,,,,,,,,,,,,,,,,,,7,1.4257,1,,,,,,,,,,,,0,131,5,5,2298,1986,absent_patch/patch0002298.jpg,absent_patch/patch0001986.jpg,,,,,,,,,,,,,,,,,,,,0.033333333,0.10370369,1,0,0,response1disk,1,0.004629686,0.00370369,1,0,0,center_square,0,0,0,32,1,,,,,,,,,,,,,,,,,,,,,,,
003492,001,2022-11-21_02h11.13.058,Info_measure_main_exp,2022.2.2,Win32,60.0132029,,,,,,,,,,,,,,,,,,masks/mask_005.jpg,,,,,,,,,,,,,,,,,,,,,,,,,,,,,,,,,,,,,,,,,,,0,0,0,4,1,,,,,,,,,,,,,,,,,,,,,,,,,,,,,,,,,,,,,,,,,,,,,,
003492,001,2022-11-21_02h11.13.058,Info_measure_main_exp,2022.2.2,Win32,60.0132029,,,,,,,,,,,,,,,,,,masks/mask_002.jpg,,,,,,,,,,,,,,,,,,,,,,,,,,,,,,,,,,,,,,,,,,,0,1,1,1,1,,,,,,,,,,,,,,,,,,,,,,,,,,,,,,,,,,,,,,,,,,,,,,
003492,001,2022-11-21_02h11.13.058,Info_measure_main_exp,2022.2.2,Win32,60.0132029,,,,,,,,,,,,,,,,,,masks/mask_003.jpg,,,,,,,,,,,,,,,,,,,,,,,,,,,,,,,,,,,,,,,,,,,0,2,2,2,1,,,,,,,,,,,,,,,,,,,,,,,,,,,,,,,,,,,,,,,,,,,,,,
003492,001,2022-11-21_02h11.13.058,Info_measure_main_exp,2022.2.2,Win32,60.0132029,,,,,,,,,,,,,,,,,,masks/mask_001.jpg,,,,,,,,,,,,,,,,,,,,,,,,,,,,,,,,,,,,,,,,,,,0,3,3,0,1,,,,,,,,,,,,,,,,,,,,,,,,,,,,,,,,,,,,,,,,,,,,,,
003492,001,2022-11-21_02h11.13.058,Info_measure_main_exp,2022.2.2,Win32,60.0132029,,,,,,,,,,,,,,,,,,masks/mask_004.jpg,,,,,,,,,,,,,,,,,,,,,,,,,,,,,,,,,,,,,,,,,,,0,4,4,3,1,,,,,,,,,,,,,,,,,,,,,,,,,,,,,,,,,,,,,,,,,,,,,,
003492,001,2022-11-21_02h11.13.058,Info_measure_main_exp,2022.2.2,Win32,60.0132029,,,,,,,,,,,,,,,,,,masks/mask_004.jpg,,,,,,,,,,,,,,,,,,,,,,,,,,,,,,,,,,,,,,,,,,,,,,,,0,0,0,3,1,,,,,,,,,,,,,,,,,,,,,,,,,,,,,,,,,,,,,,,,,
003492,001,2022-11-21_02h11.13.058,Info_measure_main_exp,2022.2.2,Win32,60.0132029,,,,,,,,,,,,,,,,,,masks/mask_005.jpg,,,,,,,,,,,,,,,,,,,,,,,,,,,,,,,,,,,,,,,,,,,,,,,,0,1,1,4,1,,,,,,,,,,,,,,,,,,,,,,,,,,,,,,,,,,,,,,,,,
003492,001,2022-11-21_02h11.13.058,Info_measure_main_exp,2022.2.2,Win32,60.0132029,,,,,,,,,,,,,,,,,,masks/mask_003.jpg,,,,,,,,,,,,,,,,,,,,,,,,,,,,,,,,,,,,,,,,,,,,,,,,0,2,2,2,1,,,,,,,,,,,,,,,,,,,,,,,,,,,,,,,,,,,,,,,,,
003492,001,2022-11-21_02h11.13.058,Info_measure_main_exp,2022.2.2,Win32,60.0132029,,,,,,,,,,,,,,,,,,masks/mask_001.jpg,,,,,,,,,,,,,,,,,,,,,,,,,,,,,,,,,,,,,,,,,,,,,,,,0,3,3,0,1,,,,,,,,,,,,,,,,,,,,,,,,,,,,,,,,,,,,,,,,,
003492,001,2022-11-21_02h11.13.058,Info_measure_main_exp,2022.2.2,Win32,60.0132029,,,,,,,,,,,,,,,,,,masks/mask_002.jpg,,,,,,,,,,,,,,,,,,,,,,,,,,,,,,,,,,,,,,,,,,,,,,,,0,4,4,1,1,,,,,,,,,,,,,,,,,,,,,,,,,,,,,,,,,,,,,,,,,
003492,001,2022-11-21_02h11.13.058,Info_measure_main_exp,2022.2.2,Win32,60.0132029,,,,,,,,,,,,,,,,,,,,,,,,,,,,,,7,1.2091,1,,,,,,,,,,,,1,131,5,5,2082,1,absent_patch/patch0002082.jpg,present_patch/cong_131_5_a.jpg,,,,,,,,,,,,,,,,,,,,0.026851908,0.087962935,1,0,0,response1disk,2,0.010185242,-0.005555556,1,0,0,center_square,0,1,1,65,1,,,,,,,,,,,,,,,,,,,,,,,
003492,001,2022-11-21_02h11.13.058,Info_measure_main_exp,2022.2.2,Win32,60.0132029,,,,,,,,,,,,,,,,,,masks/mask_005.jpg,,,,,,,,,,,,,,,,,,,,,,,,,,,,,,,,,,,,,,,,,,,0,0,0,4,1,,,,,,,,,,,,,,,,,,,,,,,,,,,,,,,,,,,,,,,,,,,,,,
003492,001,2022-11-21_02h11.13.058,Info_measure_main_exp,2022.2.2,Win32,60.0132029,,,,,,,,,,,,,,,,,,masks/mask_004.jpg,,,,,,,,,,,,,,,,,,,,,,,,,,,,,,,,,,,,,,,,,,,0,1,1,3,1,,,,,,,,,,,,,,,,,,,,,,,,,,,,,,,,,,,,,,,,,,,,,,
003492,001,2022-11-21_02h11.13.058,Info_measure_main_exp,2022.2.2,Win32,60.0132029,,,,,,,,,,,,,,,,,,masks/mask_002.jpg,,,,,,,,,,,,,,,,,,,,,,,,,,,,,,,,,,,,,,,,,,,0,2,2,1,1,,,,,,,,,,,,,,,,,,,,,,,,,,,,,,,,,,,,,,,,,,,,,,
003492,001,2022-11-21_02h11.13.058,Info_measure_main_exp,2022.2.2,Win32,60.0132029,,,,,,,,,,,,,,,,,,masks/mask_003.jpg,,,,,,,,,,,,,,,,,,,,,,,,,,,,,,,,,,,,,,,,,,,0,3,3,2,1,,,,,,,,,,,,,,,,,,,,,,,,,,,,,,,,,,,,,,,,,,,,,,
003492,001,2022-11-21_02h11.13.058,Info_measure_main_exp,2022.2.2,Win32,60.0132029,,,,,,,,,,,,,,,,,,masks/mask_001.jpg,,,,,,,,,,,,,,,,,,,,,,,,,,,,,,,,,,,,,,,,,,,0,4,4,0,1,,,,,,,,,,,,,,,,,,,,,,,,,,,,,,,,,,,,,,,,,,,,,,
003492,001,2022-11-21_02h11.13.058,Info_measure_main_exp,2022.2.2,Win32,60.0132029,,,,,,,,,,,,,,,,,,masks/mask_005.jpg,,,,,,,,,,,,,,,,,,,,,,,,,,,,,,,,,,,,,,,,,,,,,,,,0,0,0,4,1,,,,,,,,,,,,,,,,,,,,,,,,,,,,,,,,,,,,,,,,,
003492,001,2022-11-21_02h11.13.058,Info_measure_main_exp,2022.2.2,Win32,60.0132029,,,,,,,,,,,,,,,,,,masks/mask_003.jpg,,,,,,,,,,,,,,,,,,,,,,,,,,,,,,,,,,,,,,,,,,,,,,,,0,1,1,2,1,,,,,,,,,,,,,,,,,,,,,,,,,,,,,,,,,,,,,,,,,
003492,001,2022-11-21_02h11.13.058,Info_measure_main_exp,2022.2.2,Win32,60.0132029,,,,,,,,,,,,,,,,,,masks/mask_002.jpg,,,,,,,,,,,,,,,,,,,,,,,,,,,,,,,,,,,,,,,,,,,,,,,,0,2,2,1,1,,,,,,,,,,,,,,,,,,,,,,,,,,,,,,,,,,,,,,,,,
003492,001,2022-11-21_02h11.13.058,Info_measure_main_exp,2022.2.2,Win32,60.0132029,,,,,,,,,,,,,,,,,,masks/mask_001.jpg,,,,,,,,,,,,,,,,,,,,,,,,,,,,,,,,,,,,,,,,,,,,,,,,0,3,3,0,1,,,,,,,,,,,,,,,,,,,,,,,,,,,,,,,,,,,,,,,,,
003492,001,2022-11-21_02h11.13.058,Info_measure_main_exp,2022.2.2,Win32,60.0132029,,,,,,,,,,,,,,,,,,masks/mask_004.jpg,,,,,,,,,,,,,,,,,,,,,,,,,,,,,,,,,,,,,,,,,,,,,,,,0,4,4,3,1,,,,,,,,,,,,,,,,,,,,,,,,,,,,,,,,,,,,,,,,,
003492,001,2022-11-21_02h11.13.058,Info_measure_main_exp,2022.2.2,Win32,60.0132029,,,,,,,,,,,,,,,,,,,,,,,,,,,,,,0,1.2537,1,,,,,,,,,,,,0,131,5,5,2250,2250,absent_patch/patch0002250.jpg,absent_patch/patch0002250.jpg,,,,,,,,,,,,,,,,,,,,-0.033333333,0.079629601,1,0,0,response7disk,3,-0.001851824,0.00370369,1,0,0,center_square,0,2,2,56,1,,,,,,,,,,,,,,,,,,,,,,,
003492,001,2022-11-21_02h11.13.058,Info_measure_main_exp,2022.2.2,Win32,60.0132029,,,,,,,,,,,,,,,,,,masks/mask_004.jpg,,,,,,,,,,,,,,,,,,,,,,,,,,,,,,,,,,,,,,,,,,,0,0,0,3,1,,,,,,,,,,,,,,,,,,,,,,,,,,,,,,,,,,,,,,,,,,,,,,
003492,001,2022-11-21_02h11.13.058,Info_measure_main_exp,2022.2.2,Win32,60.0132029,,,,,,,,,,,,,,,,,,masks/mask_002.jpg,,,,,,,,,,,,,,,,,,,,,,,,,,,,,,,,,,,,,,,,,,,0,1,1,1,1,,,,,,,,,,,,,,,,,,,,,,,,,,,,,,,,,,,,,,,,,,,,,,
003492,001,2022-11-21_02h11.13.058,Info_measure_main_exp,2022.2.2,Win32,60.0132029,,,,,,,,,,,,,,,,,,masks/mask_003.jpg,,,,,,,,,,,,,,,,,,,,,,,,,,,,,,,,,,,,,,,,,,,0,2,2,2,1,,,,,,,,,,,,,,,,,,,,,,,,,,,,,,,,,,,,,,,,,,,,,,
003492,001,2022-11-21_02h11.13.058,Info_measure_main_exp,2022.2.2,Win32,60.0132029,,,,,,,,,,,,,,,,,,masks/mask_001.jpg,,,,,,,,,,,,,,,,,,,,,,,,,,,,,,,,,,,,,,,,,,,0,3,3,0,1,,,,,,,,,,,,,,,,,,,,,,,,,,,,,,,,,,,,,,,,,,,,,,
003492,001,2022-11-21_02h11.13.058,Info_measure_main_exp,2022.2.2,Win32,60.0132029,,,,,,,,,,,,,,,,,,masks/mask_005.jpg,,,,,,,,,,,,,,,,,,,,,,,,,,,,,,,,,,,,,,,,,,,0,4,4,4,1,,,,,,,,,,,,,,,,,,,,,,,,,,,,,,,,,,,,,,,,,,,,,,
003492,001,2022-11-21_02h11.13.058,Info_measure_main_exp,2022.2.2,Win32,60.0132029,,,,,,,,,,,,,,,,,,masks/mask_002.jpg,,,,,,,,,,,,,,,,,,,,,,,,,,,,,,,,,,,,,,,,,,,,,,,,0,0,0,1,1,,,,,,,,,,,,,,,,,,,,,,,,,,,,,,,,,,,,,,,,,
003492,001,2022-11-21_02h11.13.058,Info_measure_main_exp,2022.2.2,Win32,60.0132029,,,,,,,,,,,,,,,,,,masks/mask_003.jpg,,,,,,,,,,,,,,,,,,,,,,,,,,,,,,,,,,,,,,,,,,,,,,,,0,1,1,2,1,,,,,,,,,,,,,,,,,,,,,,,,,,,,,,,,,,,,,,,,,
003492,001,2022-11-21_02h11.13.058,Info_measure_main_exp,2022.2.2,Win32,60.0132029,,,,,,,,,,,,,,,,,,masks/mask_004.jpg,,,,,,,,,,,,,,,,,,,,,,,,,,,,,,,,,,,,,,,,,,,,,,,,0,2,2,3,1,,,,,,,,,,,,,,,,,,,,,,,,,,,,,,,,,,,,,,,,,
003492,001,2022-11-21_02h11.13.058,Info_measure_main_exp,2022.2.2,Win32,60.0132029,,,,,,,,,,,,,,,,,,masks/mask_005.jpg,,,,,,,,,,,,,,,,,,,,,,,,,,,,,,,,,,,,,,,,,,,,,,,,0,3,3,4,1,,,,,,,,,,,,,,,,,,,,,,,,,,,,,,,,,,,,,,,,,
003492,001,2022-11-21_02h11.13.058,Info_measure_main_exp,2022.2.2,Win32,60.0132029,,,,,,,,,,,,,,,,,,masks/mask_001.jpg,,,,,,,,,,,,,,,,,,,,,,,,,,,,,,,,,,,,,,,,,,,,,,,,0,4,4,0,1,,,,,,,,,,,,,,,,,,,,,,,,,,,,,,,,,,,,,,,,,
003492,001,2022-11-21_02h11.13.058,Info_measure_main_exp,2022.2.2,Win32,60.0132029,,,,,,,,,,,,,,,,,,,,,,,,,,,,,,7,1.5034,1,,,,,,,,,,,,0,131,5,5,2190,2250,absent_patch/patch0002190.jpg,absent_patch/patch0002250.jpg,,,,,,,,,,,,,,,,,,,,0.037963019,0.113888889,1,0,0,response1disk,4,0.007407464,-0.000925954,1,0,0,center_square,0,3,3,93,1,,,,,,,,,,,,,,,,,,,,,,,
003492,001,2022-11-21_02h11.13.058,Info_measure_main_exp,2022.2.2,Win32,60.0132029,,,,,,,,,,,,,,,,,,masks/mask_002.jpg,,,,,,,,,,,,,,,,,,,,,,,,,,,,,,,,,,,,,,,,,,,0,0,0,1,1,,,,,,,,,,,,,,,,,,,,,,,,,,,,,,,,,,,,,,,,,,,,,,
003492,001,2022-11-21_02h11.13.058,Info_measure_main_exp,2022.2.2,Win32,60.0132029,,,,,,,,,,,,,,,,,,masks/mask_005.jpg,,,,,,,,,,,,,,,,,,,,,,,,,,,,,,,,,,,,,,,,,,,0,1,1,4,1,,,,,,,,,,,,,,,,,,,,,,,,,,,,,,,,,,,,,,,,,,,,,,
003492,001,2022-11-21_02h11.13.058,Info_measure_main_exp,2022.2.2,Win32,60.0132029,,,,,,,,,,,,,,,,,,masks/mask_003.jpg,,,,,,,,,,,,,,,,,,,,,,,,,,,,,,,,,,,,,,,,,,,0,2,2,2,1,,,,,,,,,,,,,,,,,,,,,,,,,,,,,,,,,,,,,,,,,,,,,,
003492,001,2022-11-21_02h11.13.058,Info_measure_main_exp,2022.2.2,Win32,60.0132029,,,,,,,,,,,,,,,,,,masks/mask_001.jpg,,,,,,,,,,,,,,,,,,,,,,,,,,,,,,,,,,,,,,,,,,,0,3,3,0,1,,,,,,,,,,,,,,,,,,,,,,,,,,,,,,,,,,,,,,,,,,,,,,
003492,001,2022-11-21_02h11.13.058,Info_measure_main_exp,2022.2.2,Win32,60.0132029,,,,,,,,,,,,,,,,,,masks/mask_004.jpg,,,,,,,,,,,,,,,,,,,,,,,,,,,,,,,,,,,,,,,,,,,0,4,4,3,1,,,,,,,,,,,,,,,,,,,,,,,,,,,,,,,,,,,,,,,,,,,,,,
003492,001,2022-11-21_02h11.13.058,Info_measure_main_exp,2022.2.2,Win32,60.0132029,,,,,,,,,,,,,,,,,,masks/mask_002.jpg,,,,,,,,,,,,,,,,,,,,,,,,,,,,,,,,,,,,,,,,,,,,,,,,0,0,0,1,1,,,,,,,,,,,,,,,,,,,,,,,,,,,,,,,,,,,,,,,,,
003492,001,2022-11-21_02h11.13.058,Info_measure_main_exp,2022.2.2,Win32,60.0132029,,,,,,,,,,,,,,,,,,masks/mask_004.jpg,,,,,,,,,,,,,,,,,,,,,,,,,,,,,,,,,,,,,,,,,,,,,,,,0,1,1,3,1,,,,,,,,,,,,,,,,,,,,,,,,,,,,,,,,,,,,,,,,,
003492,001,2022-11-21_02h11.13.058,Info_measure_main_exp,2022.2.2,Win32,60.0132029,,,,,,,,,,,,,,,,,,masks/mask_003.jpg,,,,,,,,,,,,,,,,,,,,,,,,,,,,,,,,,,,,,,,,,,,,,,,,0,2,2,2,1,,,,,,,,,,,,,,,,,,,,,,,,,,,,,,,,,,,,,,,,,
003492,001,2022-11-21_02h11.13.058,Info_measure_main_exp,2022.2.2,Win32,60.0132029,,,,,,,,,,,,,,,,,,masks/mask_005.jpg,,,,,,,,,,,,,,,,,,,,,,,,,,,,,,,,,,,,,,,,,,,,,,,,0,3,3,4,1,,,,,,,,,,,,,,,,,,,,,,,,,,,,,,,,,,,,,,,,,
003492,001,2022-11-21_02h11.13.058,Info_measure_main_exp,2022.2.2,Win32,60.0132029,,,,,,,,,,,,,,,,,,masks/mask_001.jpg,,,,,,,,,,,,,,,,,,,,,,,,,,,,,,,,,,,,,,,,,,,,,,,,0,4,4,0,1,,,,,,,,,,,,,,,,,,,,,,,,,,,,,,,,,,,,,,,,,
003492,001,2022-11-21_02h11.13.058,Info_measure_main_exp,2022.2.2,Win32,60.0132029,,,,,,,,,,,,,,,,,,,,,,,,,,,,,,7,1.288,1,,,,,,,,,,,,0,131,5,5,2274,2082,absent_patch/patch0002274.jpg,absent_patch/patch0002082.jpg,,,,,,,,,,,,,,,,,,,,0.041666667,0.084259245,1,0,0,response1disk,5,0.00648151,-0.003703732,1,0,0,center_square,0,4,4,100,1,,,,,,,,,,,,,,,,,,,,,,,
003492,001,2022-11-21_02h11.13.058,Info_measure_main_exp,2022.2.2,Win32,60.0132029,,,,,,,,,,,,,,,,,,masks/mask_001.jpg,,,,,,,,,,,,,,,,,,,,,,,,,,,,,,,,,,,,,,,,,,,0,0,0,0,1,,,,,,,,,,,,,,,,,,,,,,,,,,,,,,,,,,,,,,,,,,,,,,
003492,001,2022-11-21_02h11.13.058,Info_measure_main_exp,2022.2.2,Win32,60.0132029,,,,,,,,,,,,,,,,,,masks/mask_002.jpg,,,,,,,,,,,,,,,,,,,,,,,,,,,,,,,,,,,,,,,,,,,0,1,1,1,1,,,,,,,,,,,,,,,,,,,,,,,,,,,,,,,,,,,,,,,,,,,,,,
003492,001,2022-11-21_02h11.13.058,Info_measure_main_exp,2022.2.2,Win32,60.0132029,,,,,,,,,,,,,,,,,,masks/mask_003.jpg,,,,,,,,,,,,,,,,,,,,,,,,,,,,,,,,,,,,,,,,,,,0,2,2,2,1,,,,,,,,,,,,,,,,,,,,,,,,,,,,,,,,,,,,,,,,,,,,,,
003492,001,2022-11-21_02h11.13.058,Info_measure_main_exp,2022.2.2,Win32,60.0132029,,,,,,,,,,,,,,,,,,masks/mask_005.jpg,,,,,,,,,,,,,,,,,,,,,,,,,,,,,,,,,,,,,,,,,,,0,3,3,4,1,,,,,,,,,,,,,,,,,,,,,,,,,,,,,,,,,,,,,,,,,,,,,,
003492,001,2022-11-21_02h11.13.058,Info_measure_main_exp,2022.2.2,Win32,60.0132029,,,,,,,,,,,,,,,,,,masks/mask_004.jpg,,,,,,,,,,,,,,,,,,,,,,,,,,,,,,,,,,,,,,,,,,,0,4,4,3,1,,,,,,,,,,,,,,,,,,,,,,,,,,,,,,,,,,,,,,,,,,,,,,
003492,001,2022-11-21_02h11.13.058,Info_measure_main_exp,2022.2.2,Win32,60.0132029,,,,,,,,,,,,,,,,,,masks/mask_001.jpg,,,,,,,,,,,,,,,,,,,,,,,,,,,,,,,,,,,,,,,,,,,,,,,,0,0,0,0,1,,,,,,,,,,,,,,,,,,,,,,,,,,,,,,,,,,,,,,,,,
003492,001,2022-11-21_02h11.13.058,Info_measure_main_exp,2022.2.2,Win32,60.0132029,,,,,,,,,,,,,,,,,,masks/mask_002.jpg,,,,,,,,,,,,,,,,,,,,,,,,,,,,,,,,,,,,,,,,,,,,,,,,0,1,1,1,1,,,,,,,,,,,,,,,,,,,,,,,,,,,,,,,,,,,,,,,,,
003492,001,2022-11-21_02h11.13.058,Info_measure_main_exp,2022.2.2,Win32,60.0132029,,,,,,,,,,,,,,,,,,masks/mask_005.jpg,,,,,,,,,,,,,,,,,,,,,,,,,,,,,,,,,,,,,,,,,,,,,,,,0,2,2,4,1,,,,,,,,,,,,,,,,,,,,,,,,,,,,,,,,,,,,,,,,,
003492,001,2022-11-21_02h11.13.058,Info_measure_main_exp,2022.2.2,Win32,60.0132029,,,,,,,,,,,,,,,,,,masks/mask_003.jpg,,,,,,,,,,,,,,,,,,,,,,,,,,,,,,,,,,,,,,,,,,,,,,,,0,3,3,2,1,,,,,,,,,,,,,,,,,,,,,,,,,,,,,,,,,,,,,,,,,
003492,001,2022-11-21_02h11.13.058,Info_measure_main_exp,2022.2.2,Win32,60.0132029,,,,,,,,,,,,,,,,,,masks/mask_004.jpg,,,,,,,,,,,,,,,,,,,,,,,,,,,,,,,,,,,,,,,,,,,,,,,,0,4,4,3,1,,,,,,,,,,,,,,,,,,,,,,,,,,,,,,,,,,,,,,,,,
003492,001,2022-11-21_02h11.13.058,Info_measure_main_exp,2022.2.2,Win32,60.0132029,,,,,,,,,,,,,,,,,,,,,,,,,,,,,,6,2.0574,1,,,,,,,,,,,,0,131,5,5,1974,2250,absent_patch/patch0001974.jpg,absent_patch/patch0002250.jpg,,,,,,,,,,,,,,,,,,,,0.087963019,0.016666667,1,0,0,response1disk,6,0.007407464,0.006481467,1,0,0,center_square,0,5,5,55,1,,,,,,,,,,,,,,,,,,,,,,,
003492,001,2022-11-21_02h11.13.058,Info_measure_main_exp,2022.2.2,Win32,60.0132029,,,,,,,,,,,,,,,,,,masks/mask_005.jpg,,,,,,,,,,,,,,,,,,,,,,,,,,,,,,,,,,,,,,,,,,,0,0,0,4,1,,,,,,,,,,,,,,,,,,,,,,,,,,,,,,,,,,,,,,,,,,,,,,
003492,001,2022-11-21_02h11.13.058,Info_measure_main_exp,2022.2.2,Win32,60.0132029,,,,,,,,,,,,,,,,,,masks/mask_004.jpg,,,,,,,,,,,,,,,,,,,,,,,,,,,,,,,,,,,,,,,,,,,0,1,1,3,1,,,,,,,,,,,,,,,,,,,,,,,,,,,,,,,,,,,,,,,,,,,,,,
003492,001,2022-11-21_02h11.13.058,Info_measure_main_exp,2022.2.2,Win32,60.0132029,,,,,,,,,,,,,,,,,,masks/mask_003.jpg,,,,,,,,,,,,,,,,,,,,,,,,,,,,,,,,,,,,,,,,,,,0,2,2,2,1,,,,,,,,,,,,,,,,,,,,,,,,,,,,,,,,,,,,,,,,,,,,,,
003492,001,2022-11-21_02h11.13.058,Info_measure_main_exp,2022.2.2,Win32,60.0132029,,,,,,,,,,,,,,,,,,masks/mask_002.jpg,,,,,,,,,,,,,,,,,,,,,,,,,,,,,,,,,,,,,,,,,,,0,3,3,1,1,,,,,,,,,,,,,,,,,,,,,,,,,,,,,,,,,,,,,,,,,,,,,,
003492,001,2022-11-21_02h11.13.058,Info_measure_main_exp,2022.2.2,Win32,60.0132029,,,,,,,,,,,,,,,,,,masks/mask_001.jpg,,,,,,,,,,,,,,,,,,,,,,,,,,,,,,,,,,,,,,,,,,,0,4,4,0,1,,,,,,,,,,,,,,,,,,,,,,,,,,,,,,,,,,,,,,,,,,,,,,
003492,001,2022-11-21_02h11.13.058,Info_measure_main_exp,2022.2.2,Win32,60.0132029,,,,,,,,,,,,,,,,,,masks/mask_002.jpg,,,,,,,,,,,,,,,,,,,,,,,,,,,,,,,,,,,,,,,,,,,,,,,,0,0,0,1,1,,,,,,,,,,,,,,,,,,,,,,,,,,,,,,,,,,,,,,,,,
003492,001,2022-11-21_02h11.13.058,Info_measure_main_exp,2022.2.2,Win32,60.0132029,,,,,,,,,,,,,,,,,,masks/mask_003.jpg,,,,,,,,,,,,,,,,,,,,,,,,,,,,,,,,,,,,,,,,,,,,,,,,0,1,1,2,1,,,,,,,,,,,,,,,,,,,,,,,,,,,,,,,,,,,,,,,,,
003492,001,2022-11-21_02h11.13.058,Info_measure_main_exp,2022.2.2,Win32,60.0132029,,,,,,,,,,,,,,,,,,masks/mask_004.jpg,,,,,,,,,,,,,,,,,,,,,,,,,,,,,,,,,,,,,,,,,,,,,,,,0,2,2,3,1,,,,,,,,,,,,,,,,,,,,,,,,,,,,,,,,,,,,,,,,,
003492,001,2022-11-21_02h11.13.058,Info_measure_main_exp,2022.2.2,Win32,60.0132029,,,,,,,,,,,,,,,,,,masks/mask_001.jpg,,,,,,,,,,,,,,,,,,,,,,,,,,,,,,,,,,,,,,,,,,,,,,,,0,3,3,0,1,,,,,,,,,,,,,,,,,,,,,,,,,,,,,,,,,,,,,,,,,
003492,001,2022-11-21_02h11.13.058,Info_measure_main_exp,2022.2.2,Win32,60.0132029,,,,,,,,,,,,,,,,,,masks/mask_005.jpg,,,,,,,,,,,,,,,,,,,,,,,,,,,,,,,,,,,,,,,,,,,,,,,,0,4,4,4,1,,,,,,,,,,,,,,,,,,,,,,,,,,,,,,,,,,,,,,,,,
003492,001,2022-11-21_02h11.13.058,Info_measure_main_exp,2022.2.2,Win32,60.0132029,,,,,,,,,,,,,,,,,,,,,,,,,,,,,,7,1.2243,1,,,,,,,,,,,,0,131,5,5,1986,1974,absent_patch/patch0001986.jpg,absent_patch/patch0001974.jpg,,,,,,,,,,,,,,,,,,,,0.027777778,0.087037023,1,0,0,response1disk,7,0.00648151,0.004629601,1,0,0,center_square,0,6,6,25,1,,,,,,,,,,,,,,,,,,,,,,,
003492,001,2022-11-21_02h11.13.058,Info_measure_main_exp,2022.2.2,Win32,60.0132029,,,,,,,,,,,,,,,,,,masks/mask_001.jpg,,,,,,,,,,,,,,,,,,,,,,,,,,,,,,,,,,,,,,,,,,,0,0,0,0,1,,,,,,,,,,,,,,,,,,,,,,,,,,,,,,,,,,,,,,,,,,,,,,
003492,001,2022-11-21_02h11.13.058,Info_measure_main_exp,2022.2.2,Win32,60.0132029,,,,,,,,,,,,,,,,,,masks/mask_002.jpg,,,,,,,,,,,,,,,,,,,,,,,,,,,,,,,,,,,,,,,,,,,0,1,1,1,1,,,,,,,,,,,,,,,,,,,,,,,,,,,,,,,,,,,,,,,,,,,,,,
003492,001,2022-11-21_02h11.13.058,Info_measure_main_exp,2022.2.2,Win32,60.0132029,,,,,,,,,,,,,,,,,,masks/mask_004.jpg,,,,,,,,,,,,,,,,,,,,,,,,,,,,,,,,,,,,,,,,,,,0,2,2,3,1,,,,,,,,,,,,,,,,,,,,,,,,,,,,,,,,,,,,,,,,,,,,,,
003492,001,2022-11-21_02h11.13.058,Info_measure_main_exp,2022.2.2,Win32,60.0132029,,,,,,,,,,,,,,,,,,masks/mask_005.jpg,,,,,,,,,,,,,,,,,,,,,,,,,,,,,,,,,,,,,,,,,,,0,3,3,4,1,,,,,,,,,,,,,,,,,,,,,,,,,,,,,,,,,,,,,,,,,,,,,,
003492,001,2022-11-21_02h11.13.058,Info_measure_main_exp,2022.2.2,Win32,60.0132029,,,,,,,,,,,,,,,,,,masks/mask_003.jpg,,,,,,,,,,,,,,,,,,,,,,,,,,,,,,,,,,,,,,,,,,,0,4,4,2,1,,,,,,,,,,,,,,,,,,,,,,,,,,,,,,,,,,,,,,,,,,,,,,
003492,001,2022-11-21_02h11.13.058,Info_measure_main_exp,2022.2.2,Win32,60.0132029,,,,,,,,,,,,,,,,,,masks/mask_001.jpg,,,,,,,,,,,,,,,,,,,,,,,,,,,,,,,,,,,,,,,,,,,,,,,,0,0,0,0,1,,,,,,,,,,,,,,,,,,,,,,,,,,,,,,,,,,,,,,,,,
003492,001,2022-11-21_02h11.13.058,Info_measure_main_exp,2022.2.2,Win32,60.0132029,,,,,,,,,,,,,,,,,,masks/mask_004.jpg,,,,,,,,,,,,,,,,,,,,,,,,,,,,,,,,,,,,,,,,,,,,,,,,0,1,1,3,1,,,,,,,,,,,,,,,,,,,,,,,,,,,,,,,,,,,,,,,,,
003492,001,2022-11-21_02h11.13.058,Info_measure_main_exp,2022.2.2,Win32,60.0132029,,,,,,,,,,,,,,,,,,masks/mask_003.jpg,,,,,,,,,,,,,,,,,,,,,,,,,,,,,,,,,,,,,,,,,,,,,,,,0,2,2,2,1,,,,,,,,,,,,,,,,,,,,,,,,,,,,,,,,,,,,,,,,,
003492,001,2022-11-21_02h11.13.058,Info_measure_main_exp,2022.2.2,Win32,60.0132029,,,,,,,,,,,,,,,,,,masks/mask_005.jpg,,,,,,,,,,,,,,,,,,,,,,,,,,,,,,,,,,,,,,,,,,,,,,,,0,3,3,4,1,,,,,,,,,,,,,,,,,,,,,,,,,,,,,,,,,,,,,,,,,
003492,001,2022-11-21_02h11.13.058,Info_measure_main_exp,2022.2.2,Win32,60.0132029,,,,,,,,,,,,,,,,,,masks/mask_002.jpg,,,,,,,,,,,,,,,,,,,,,,,,,,,,,,,,,,,,,,,,,,,,,,,,0,4,4,1,1,,,,,,,,,,,,,,,,,,,,,,,,,,,,,,,,,,,,,,,,,
003492,001,2022-11-21_02h11.13.058,Info_measure_main_exp,2022.2.2,Win32,60.0132029,,,,,,,,,,,,,,,,,,,,,,,,,,,,,,7,1.2737,1,,,,,,,,,,,,0,131,5,5,2178,2166,absent_patch/patch0002178.jpg,absent_patch/patch0002166.jpg,,,,,,,,,,,,,,,,,,,,0.039814843,0.09351849,1,0,0,response1disk,8,-0.004629601,-0.012037065,1,0,0,center_square,0,7,7,72,1,,,,,,,,,,,,,,,,,,,,,,,
003492,001,2022-11-21_02h11.13.058,Info_measure_main_exp,2022.2.2,Win32,60.0132029,,,,,,,,,,,,,,,,,,masks/mask_003.jpg,,,,,,,,,,,,,,,,,,,,,,,,,,,,,,,,,,,,,,,,,,,0,0,0,2,1,,,,,,,,,,,,,,,,,,,,,,,,,,,,,,,,,,,,,,,,,,,,,,
003492,001,2022-11-21_02h11.13.058,Info_measure_main_exp,2022.2.2,Win32,60.0132029,,,,,,,,,,,,,,,,,,masks/mask_001.jpg,,,,,,,,,,,,,,,,,,,,,,,,,,,,,,,,,,,,,,,,,,,0,1,1,0,1,,,,,,,,,,,,,,,,,,,,,,,,,,,,,,,,,,,,,,,,,,,,,,
003492,001,2022-11-21_02h11.13.058,Info_measure_main_exp,2022.2.2,Win32,60.0132029,,,,,,,,,,,,,,,,,,masks/mask_004.jpg,,,,,,,,,,,,,,,,,,,,,,,,,,,,,,,,,,,,,,,,,,,0,2,2,3,1,,,,,,,,,,,,,,,,,,,,,,,,,,,,,,,,,,,,,,,,,,,,,,
003492,001,2022-11-21_02h11.13.058,Info_measure_main_exp,2022.2.2,Win32,60.0132029,,,,,,,,,,,,,,,,,,masks/mask_005.jpg,,,,,,,,,,,,,,,,,,,,,,,,,,,,,,,,,,,,,,,,,,,0,3,3,4,1,,,,,,,,,,,,,,,,,,,,,,,,,,,,,,,,,,,,,,,,,,,,,,
003492,001,2022-11-21_02h11.13.058,Info_measure_main_exp,2022.2.2,Win32,60.0132029,,,,,,,,,,,,,,,,,,masks/mask_002.jpg,,,,,,,,,,,,,,,,,,,,,,,,,,,,,,,,,,,,,,,,,,,0,4,4,1,1,,,,,,,,,,,,,,,,,,,,,,,,,,,,,,,,,,,,,,,,,,,,,,
003492,001,2022-11-21_02h11.13.058,Info_measure_main_exp,2022.2.2,Win32,60.0132029,,,,,,,,,,,,,,,,,,masks/mask_001.jpg,,,,,,,,,,,,,,,,,,,,,,,,,,,,,,,,,,,,,,,,,,,,,,,,0,0,0,0,1,,,,,,,,,,,,,,,,,,,,,,,,,,,,,,,,,,,,,,,,,
003492,001,2022-11-21_02h11.13.058,Info_measure_main_exp,2022.2.2,Win32,60.0132029,,,,,,,,,,,,,,,,,,masks/mask_002.jpg,,,,,,,,,,,,,,,,,,,,,,,,,,,,,,,,,,,,,,,,,,,,,,,,0,1,1,1,1,,,,,,,,,,,,,,,,,,,,,,,,,,,,,,,,,,,,,,,,,
003492,001,2022-11-21_02h11.13.058,Info_measure_main_exp,2022.2.2,Win32,60.0132029,,,,,,,,,,,,,,,,,,masks/mask_005.jpg,,,,,,,,,,,,,,,,,,,,,,,,,,,,,,,,,,,,,,,,,,,,,,,,0,2,2,4,1,,,,,,,,,,,,,,,,,,,,,,,,,,,,,,,,,,,,,,,,,
003492,001,2022-11-21_02h11.13.058,Info_measure_main_exp,2022.2.2,Win32,60.0132029,,,,,,,,,,,,,,,,,,masks/mask_003.jpg,,,,,,,,,,,,,,,,,,,,,,,,,,,,,,,,,,,,,,,,,,,,,,,,0,3,3,2,1,,,,,,,,,,,,,,,,,,,,,,,,,,,,,,,,,,,,,,,,,
003492,001,2022-11-21_02h11.13.058,Info_measure_main_exp,2022.2.2,Win32,60.0132029,,,,,,,,,,,,,,,,,,masks/mask_004.jpg,,,,,,,,,,,,,,,,,,,,,,,,,,,,,,,,,,,,,,,,,,,,,,,,0,4,4,3,1,,,,,,,,,,,,,,,,,,,,,,,,,,,,,,,,,,,,,,,,,
003492,001,2022-11-21_02h11.13.058,Info_measure_main_exp,2022.2.2,Win32,60.0132029,,,,,,,,,,,,,,,,,,,,,,,,,,,,,,5,1.7882,1,,,,,,,,,,,,0,131,5,5,2154,2238,absent_patch/patch0002154.jpg,absent_patch/patch0002238.jpg,,,,,,,,,,,,,,,,,,,,0.115740797,-0.043518533,1,0,0,response3disk,9,0.001851908,0.000925912,1,0,0,center_square,0,8,8,21,1,,,,,,,,,,,,,,,,,,,,,,,
003492,001,2022-11-21_02h11.13.058,Info_measure_main_exp,2022.2.2,Win32,60.0132029,,,,,,,,,,,,,,,,,,masks/mask_001.jpg,,,,,,,,,,,,,,,,,,,,,,,,,,,,,,,,,,,,,,,,,,,0,0,0,0,1,,,,,,,,,,,,,,,,,,,,,,,,,,,,,,,,,,,,,,,,,,,,,,
003492,001,2022-11-21_02h11.13.058,Info_measure_main_exp,2022.2.2,Win32,60.0132029,,,,,,,,,,,,,,,,,,masks/mask_003.jpg,,,,,,,,,,,,,,,,,,,,,,,,,,,,,,,,,,,,,,,,,,,0,1,1,2,1,,,,,,,,,,,,,,,,,,,,,,,,,,,,,,,,,,,,,,,,,,,,,,
003492,001,2022-11-21_02h11.13.058,Info_measure_main_exp,2022.2.2,Win32,60.0132029,,,,,,,,,,,,,,,,,,masks/mask_005.jpg,,,,,,,,,,,,,,,,,,,,,,,,,,,,,,,,,,,,,,,,,,,0,2,2,4,1,,,,,,,,,,,,,,,,,,,,,,,,,,,,,,,,,,,,,,,,,,,,,,
003492,001,2022-11-21_02h11.13.058,Info_measure_main_exp,2022.2.2,Win32,60.0132029,,,,,,,,,,,,,,,,,,masks/mask_004.jpg,,,,,,,,,,,,,,,,,,,,,,,,,,,,,,,,,,,,,,,,,,,0,3,3,3,1,,,,,,,,,,,,,,,,,,,,,,,,,,,,,,,,,,,,,,,,,,,,,,
003492,001,2022-11-21_02h11.13.058,Info_measure_main_exp,2022.2.2,Win32,60.0132029,,,,,,,,,,,,,,,,,,masks/mask_002.jpg,,,,,,,,,,,,,,,,,,,,,,,,,,,,,,,,,,,,,,,,,,,0,4,4,1,1,,,,,,,,,,,,,,,,,,,,,,,,,,,,,,,,,,,,,,,,,,,,,,
003492,001,2022-11-21_02h11.13.058,Info_measure_main_exp,2022.2.2,Win32,60.0132029,,,,,,,,,,,,,,,,,,masks/mask_001.jpg,,,,,,,,,,,,,,,,,,,,,,,,,,,,,,,,,,,,,,,,,,,,,,,,0,0,0,0,1,,,,,,,,,,,,,,,,,,,,,,,,,,,,,,,,,,,,,,,,,
003492,001,2022-11-21_02h11.13.058,Info_measure_main_exp,2022.2.2,Win32,60.0132029,,,,,,,,,,,,,,,,,,masks/mask_005.jpg,,,,,,,,,,,,,,,,,,,,,,,,,,,,,,,,,,,,,,,,,,,,,,,,0,1,1,4,1,,,,,,,,,,,,,,,,,,,,,,,,,,,,,,,,,,,,,,,,,
003492,001,2022-11-21_02h11.13.058,Info_measure_main_exp,2022.2.2,Win32,60.0132029,,,,,,,,,,,,,,,,,,masks/mask_003.jpg,,,,,,,,,,,,,,,,,,,,,,,,,,,,,,,,,,,,,,,,,,,,,,,,0,2,2,2,1,,,,,,,,,,,,,,,,,,,,,,,,,,,,,,,,,,,,,,,,,
003492,001,2022-11-21_02h11.13.058,Info_measure_main_exp,2022.2.2,Win32,60.0132029,,,,,,,,,,,,,,,,,,masks/mask_002.jpg,,,,,,,,,,,,,,,,,,,,,,,,,,,,,,,,,,,,,,,,,,,,,,,,0,3,3,1,1,,,,,,,,,,,,,,,,,,,,,,,,,,,,,,,,,,,,,,,,,
003492,001,2022-11-21_02h11.13.058,Info_measure_main_exp,2022.2.2,Win32,60.0132029,,,,,,,,,,,,,,,,,,masks/mask_004.jpg,,,,,,,,,,,,,,,,,,,,,,,,,,,,,,,,,,,,,,,,,,,,,,,,0,4,4,3,1,,,,,,,,,,,,,,,,,,,,,,,,,,,,,,,,,,,,,,,,,
003492,001,2022-11-21_02h11.13.058,Info_measure_main_exp,2022.2.2,Win32,60.0132029,,,,,,,,,,,,,,,,,,,,,,,,,,,,,,7,1.9328,1,,,,,,,,,,,,0,131,5,5,2250,2238,absent_patch/patch0002250.jpg,absent_patch/patch0002238.jpg,,,,,,,,,,,,,,,,,,,,0.024074131,0.085185157,1,0,0,response1disk,10,0.009259288,-0.005555556,1,0,0,center_square,0,9,9,110,1,,,,,,,,,,,,,,,,,,,,,,,
003492,001,2022-11-21_02h11.13.058,Info_measure_main_exp,2022.2.2,Win32,60.0132029,,,,,,,,,,,,,,,,,,masks/mask_004.jpg,,,,,,,,,,,,,,,,,,,,,,,,,,,,,,,,,,,,,,,,,,,0,0,0,3,1,,,,,,,,,,,,,,,,,,,,,,,,,,,,,,,,,,,,,,,,,,,,,,
003492,001,2022-11-21_02h11.13.058,Info_measure_main_exp,2022.2.2,Win32,60.0132029,,,,,,,,,,,,,,,,,,masks/mask_002.jpg,,,,,,,,,,,,,,,,,,,,,,,,,,,,,,,,,,,,,,,,,,,0,1,1,1,1,,,,,,,,,,,,,,,,,,,,,,,,,,,,,,,,,,,,,,,,,,,,,,
003492,001,2022-11-21_02h11.13.058,Info_measure_main_exp,2022.2.2,Win32,60.0132029,,,,,,,,,,,,,,,,,,masks/mask_005.jpg,,,,,,,,,,,,,,,,,,,,,,,,,,,,,,,,,,,,,,,,,,,0,2,2,4,1,,,,,,,,,,,,,,,,,,,,,,,,,,,,,,,,,,,,,,,,,,,,,,
003492,001,2022-11-21_02h11.13.058,Info_measure_main_exp,2022.2.2,Win32,60.0132029,,,,,,,,,,,,,,,,,,masks/mask_001.jpg,,,,,,,,,,,,,,,,,,,,,,,,,,,,,,,,,,,,,,,,,,,0,3,3,0,1,,,,,,,,,,,,,,,,,,,,,,,,,,,,,,,,,,,,,,,,,,,,,,
003492,001,2022-11-21_02h11.13.058,Info_measure_main_exp,2022.2.2,Win32,60.0132029,,,,,,,,,,,,,,,,,,masks/mask_003.jpg,,,,,,,,,,,,,,,,,,,,,,,,,,,,,,,,,,,,,,,,,,,0,4,4,2,1,,,,,,,,,,,,,,,,,,,,,,,,,,,,,,,,,,,,,,,,,,,,,,
003492,001,2022-11-21_02h11.13.058,Info_measure_main_exp,2022.2.2,Win32,60.0132029,,,,,,,,,,,,,,,,,,masks/mask_002.jpg,,,,,,,,,,,,,,,,,,,,,,,,,,,,,,,,,,,,,,,,,,,,,,,,0,0,0,1,1,,,,,,,,,,,,,,,,,,,,,,,,,,,,,,,,,,,,,,,,,
003492,001,2022-11-21_02h11.13.058,Info_measure_main_exp,2022.2.2,Win32,60.0132029,,,,,,,,,,,,,,,,,,masks/mask_004.jpg,,,,,,,,,,,,,,,,,,,,,,,,,,,,,,,,,,,,,,,,,,,,,,,,0,1,1,3,1,,,,,,,,,,,,,,,,,,,,,,,,,,,,,,,,,,,,,,,,,
003492,001,2022-11-21_02h11.13.058,Info_measure_main_exp,2022.2.2,Win32,60.0132029,,,,,,,,,,,,,,,,,,masks/mask_001.jpg,,,,,,,,,,,,,,,,,,,,,,,,,,,,,,,,,,,,,,,,,,,,,,,,0,2,2,0,1,,,,,,,,,,,,,,,,,,,,,,,,,,,,,,,,,,,,,,,,,
003492,001,2022-11-21_02h11.13.058,Info_measure_main_exp,2022.2.2,Win32,60.0132029,,,,,,,,,,,,,,,,,,masks/mask_003.jpg,,,,,,,,,,,,,,,,,,,,,,,,,,,,,,,,,,,,,,,,,,,,,,,,0,3,3,2,1,,,,,,,,,,,,,,,,,,,,,,,,,,,,,,,,,,,,,,,,,
003492,001,2022-11-21_02h11.13.058,Info_measure_main_exp,2022.2.2,Win32,60.0132029,,,,,,,,,,,,,,,,,,masks/mask_005.jpg,,,,,,,,,,,,,,,,,,,,,,,,,,,,,,,,,,,,,,,,,,,,,,,,0,4,4,4,1,,,,,,,,,,,,,,,,,,,,,,,,,,,,,,,,,,,,,,,,,
003492,001,2022-11-21_02h11.13.058,Info_measure_main_exp,2022.2.2,Win32,60.0132029,,,,,,,,,,,,,,,,,,,,,,,,,,,,,,0,1.2173,1,,,,,,,,,,,,0,131,5,5,2214,2214,absent_patch/patch0002214.jpg,absent_patch/patch0002214.jpg,,,,,,,,,,,,,,,,,,,,-0.04351849,0.086111111,1,0,0,response7disk,11,-0.004629601,0.009259245,1,0,0,center_square,0,10,10,115,1,,,,,,,,,,,,,,,,,,,,,,,
003492,001,2022-11-21_02h11.13.058,Info_measure_main_exp,2022.2.2,Win32,60.0132029,,,,,,,,,,,,,,,,,,masks/mask_001.jpg,,,,,,,,,,,,,,,,,,,,,,,,,,,,,,,,,,,,,,,,,,,0,0,0,0,1,,,,,,,,,,,,,,,,,,,,,,,,,,,,,,,,,,,,,,,,,,,,,,
003492,001,2022-11-21_02h11.13.058,Info_measure_main_exp,2022.2.2,Win32,60.0132029,,,,,,,,,,,,,,,,,,masks/mask_005.jpg,,,,,,,,,,,,,,,,,,,,,,,,,,,,,,,,,,,,,,,,,,,0,1,1,4,1,,,,,,,,,,,,,,,,,,,,,,,,,,,,,,,,,,,,,,,,,,,,,,
003492,001,2022-11-21_02h11.13.058,Info_measure_main_exp,2022.2.2,Win32,60.0132029,,,,,,,,,,,,,,,,,,masks/mask_002.jpg,,,,,,,,,,,,,,,,,,,,,,,,,,,,,,,,,,,,,,,,,,,0,2,2,1,1,,,,,,,,,,,,,,,,,,,,,,,,,,,,,,,,,,,,,,,,,,,,,,
003492,001,2022-11-21_02h11.13.058,Info_measure_main_exp,2022.2.2,Win32,60.0132029,,,,,,,,,,,,,,,,,,masks/mask_004.jpg,,,,,,,,,,,,,,,,,,,,,,,,,,,,,,,,,,,,,,,,,,,0,3,3,3,1,,,,,,,,,,,,,,,,,,,,,,,,,,,,,,,,,,,,,,,,,,,,,,
003492,001,2022-11-21_02h11.13.058,Info_measure_main_exp,2022.2.2,Win32,60.0132029,,,,,,,,,,,,,,,,,,masks/mask_003.jpg,,,,,,,,,,,,,,,,,,,,,,,,,,,,,,,,,,,,,,,,,,,0,4,4,2,1,,,,,,,,,,,,,,,,,,,,,,,,,,,,,,,,,,,,,,,,,,,,,,
003492,001,2022-11-21_02h11.13.058,Info_measure_main_exp,2022.2.2,Win32,60.0132029,,,,,,,,,,,,,,,,,,masks/mask_004.jpg,,,,,,,,,,,,,,,,,,,,,,,,,,,,,,,,,,,,,,,,,,,,,,,,0,0,0,3,1,,,,,,,,,,,,,,,,,,,,,,,,,,,,,,,,,,,,,,,,,
003492,001,2022-11-21_02h11.13.058,Info_measure_main_exp,2022.2.2,Win32,60.0132029,,,,,,,,,,,,,,,,,,masks/mask_003.jpg,,,,,,,,,,,,,,,,,,,,,,,,,,,,,,,,,,,,,,,,,,,,,,,,0,1,1,2,1,,,,,,,,,,,,,,,,,,,,,,,,,,,,,,,,,,,,,,,,,
003492,001,2022-11-21_02h11.13.058,Info_measure_main_exp,2022.2.2,Win32,60.0132029,,,,,,,,,,,,,,,,,,masks/mask_002.jpg,,,,,,,,,,,,,,,,,,,,,,,,,,,,,,,,,,,,,,,,,,,,,,,,0,2,2,1,1,,,,,,,,,,,,,,,,,,,,,,,,,,,,,,,,,,,,,,,,,
003492,001,2022-11-21_02h11.13.058,Info_measure_main_exp,2022.2.2,Win32,60.0132029,,,,,,,,,,,,,,,,,,masks/mask_005.jpg,,,,,,,,,,,,,,,,,,,,,,,,,,,,,,,,,,,,,,,,,,,,,,,,0,3,3,4,1,,,,,,,,,,,,,,,,,,,,,,,,,,,,,,,,,,,,,,,,,
003492,001,2022-11-21_02h11.13.058,Info_measure_main_exp,2022.2.2,Win32,60.0132029,,,,,,,,,,,,,,,,,,masks/mask_001.jpg,,,,,,,,,,,,,,,,,,,,,,,,,,,,,,,,,,,,,,,,,,,,,,,,0,4,4,0,1,,,,,,,,,,,,,,,,,,,,,,,,,,,,,,,,,,,,,,,,,
003492,001,2022-11-21_02h11.13.058,Info_measure_main_exp,2022.2.2,Win32,60.0132029,,,,,,,,,,,,,,,,,,,,,,,,,,,,,,3,3.8886,1,,,,,,,,,,,,0,131,5,5,1986,2238,absent_patch/patch0001986.jpg,absent_patch/patch0002238.jpg,,,,,,,,,,,,,,,,,,,,-0.077777778,-0.139814843,1,0,0,response5disk,12,0.000925954,0.009259245,1,0,0,center_square,0,11,11,31,1,,,,,,,,,,,,,,,,,,,,,,,
003492,001,2022-11-21_02h11.13.058,Info_measure_main_exp,2022.2.2,Win32,60.0132029,,,,,,,,,,,,,,,,,,masks/mask_001.jpg,,,,,,,,,,,,,,,,,,,,,,,,,,,,,,,,,,,,,,,,,,,0,0,0,0,1,,,,,,,,,,,,,,,,,,,,,,,,,,,,,,,,,,,,,,,,,,,,,,
003492,001,2022-11-21_02h11.13.058,Info_measure_main_exp,2022.2.2,Win32,60.0132029,,,,,,,,,,,,,,,,,,masks/mask_005.jpg,,,,,,,,,,,,,,,,,,,,,,,,,,,,,,,,,,,,,,,,,,,0,1,1,4,1,,,,,,,,,,,,,,,,,,,,,,,,,,,,,,,,,,,,,,,,,,,,,,
003492,001,2022-11-21_02h11.13.058,Info_measure_main_exp,2022.2.2,Win32,60.0132029,,,,,,,,,,,,,,,,,,masks/mask_004.jpg,,,,,,,,,,,,,,,,,,,,,,,,,,,,,,,,,,,,,,,,,,,0,2,2,3,1,,,,,,,,,,,,,,,,,,,,,,,,,,,,,,,,,,,,,,,,,,,,,,
003492,001,2022-11-21_02h11.13.058,Info_measure_main_exp,2022.2.2,Win32,60.0132029,,,,,,,,,,,,,,,,,,masks/mask_003.jpg,,,,,,,,,,,,,,,,,,,,,,,,,,,,,,,,,,,,,,,,,,,0,3,3,2,1,,,,,,,,,,,,,,,,,,,,,,,,,,,,,,,,,,,,,,,,,,,,,,
003492,001,2022-11-21_02h11.13.058,Info_measure_main_exp,2022.2.2,Win32,60.0132029,,,,,,,,,,,,,,,,,,masks/mask_002.jpg,,,,,,,,,,,,,,,,,,,,,,,,,,,,,,,,,,,,,,,,,,,0,4,4,1,1,,,,,,,,,,,,,,,,,,,,,,,,,,,,,,,,,,,,,,,,,,,,,,
003492,001,2022-11-21_02h11.13.058,Info_measure_main_exp,2022.2.2,Win32,60.0132029,,,,,,,,,,,,,,,,,,masks/mask_002.jpg,,,,,,,,,,,,,,,,,,,,,,,,,,,,,,,,,,,,,,,,,,,,,,,,0,0,0,1,1,,,,,,,,,,,,,,,,,,,,,,,,,,,,,,,,,,,,,,,,,
003492,001,2022-11-21_02h11.13.058,Info_measure_main_exp,2022.2.2,Win32,60.0132029,,,,,,,,,,,,,,,,,,masks/mask_001.jpg,,,,,,,,,,,,,,,,,,,,,,,,,,,,,,,,,,,,,,,,,,,,,,,,0,1,1,0,1,,,,,,,,,,,,,,,,,,,,,,,,,,,,,,,,,,,,,,,,,
003492,001,2022-11-21_02h11.13.058,Info_measure_main_exp,2022.2.2,Win32,60.0132029,,,,,,,,,,,,,,,,,,masks/mask_003.jpg,,,,,,,,,,,,,,,,,,,,,,,,,,,,,,,,,,,,,,,,,,,,,,,,0,2,2,2,1,,,,,,,,,,,,,,,,,,,,,,,,,,,,,,,,,,,,,,,,,
003492,001,2022-11-21_02h11.13.058,Info_measure_main_exp,2022.2.2,Win32,60.0132029,,,,,,,,,,,,,,,,,,masks/mask_004.jpg,,,,,,,,,,,,,,,,,,,,,,,,,,,,,,,,,,,,,,,,,,,,,,,,0,3,3,3,1,,,,,,,,,,,,,,,,,,,,,,,,,,,,,,,,,,,,,,,,,
003492,001,2022-11-21_02h11.13.058,Info_measure_main_exp,2022.2.2,Win32,60.0132029,,,,,,,,,,,,,,,,,,masks/mask_005.jpg,,,,,,,,,,,,,,,,,,,,,,,,,,,,,,,,,,,,,,,,,,,,,,,,0,4,4,4,1,,,,,,,,,,,,,,,,,,,,,,,,,,,,,,,,,,,,,,,,,
003492,001,2022-11-21_02h11.13.058,Info_measure_main_exp,2022.2.2,Win32,60.0132029,,,,,,,,,,,,,,,,,,,,,,,,,,,,,,7,2.0847,1,,,,,,,,,,,,0,131,5,5,1950,2238,absent_patch/patch0001950.jpg,absent_patch/patch0002238.jpg,,,,,,,,,,,,,,,,,,,,0.021296353,0.073148134,1,0,0,response1disk,13,0.002777778,-0.002777778,1,0,0,center_square,0,12,12,8,1,,,,,,,,,,,,,,,,,,,,,,,
003492,001,2022-11-21_02h11.13.058,Info_measure_main_exp,2022.2.2,Win32,60.0132029,,,,,,,,,,,,,,,,,,masks/mask_005.jpg,,,,,,,,,,,,,,,,,,,,,,,,,,,,,,,,,,,,,,,,,,,0,0,0,4,1,,,,,,,,,,,,,,,,,,,,,,,,,,,,,,,,,,,,,,,,,,,,,,
003492,001,2022-11-21_02h11.13.058,Info_measure_main_exp,2022.2.2,Win32,60.0132029,,,,,,,,,,,,,,,,,,masks/mask_004.jpg,,,,,,,,,,,,,,,,,,,,,,,,,,,,,,,,,,,,,,,,,,,0,1,1,3,1,,,,,,,,,,,,,,,,,,,,,,,,,,,,,,,,,,,,,,,,,,,,,,
003492,001,2022-11-21_02h11.13.058,Info_measure_main_exp,2022.2.2,Win32,60.0132029,,,,,,,,,,,,,,,,,,masks/mask_002.jpg,,,,,,,,,,,,,,,,,,,,,,,,,,,,,,,,,,,,,,,,,,,0,2,2,1,1,,,,,,,,,,,,,,,,,,,,,,,,,,,,,,,,,,,,,,,,,,,,,,
003492,001,2022-11-21_02h11.13.058,Info_measure_main_exp,2022.2.2,Win32,60.0132029,,,,,,,,,,,,,,,,,,masks/mask_001.jpg,,,,,,,,,,,,,,,,,,,,,,,,,,,,,,,,,,,,,,,,,,,0,3,3,0,1,,,,,,,,,,,,,,,,,,,,,,,,,,,,,,,,,,,,,,,,,,,,,,
003492,001,2022-11-21_02h11.13.058,Info_measure_main_exp,2022.2.2,Win32,60.0132029,,,,,,,,,,,,,,,,,,masks/mask_003.jpg,,,,,,,,,,,,,,,,,,,,,,,,,,,,,,,,,,,,,,,,,,,0,4,4,2,1,,,,,,,,,,,,,,,,,,,,,,,,,,,,,,,,,,,,,,,,,,,,,,
003492,001,2022-11-21_02h11.13.058,Info_measure_main_exp,2022.2.2,Win32,60.0132029,,,,,,,,,,,,,,,,,,masks/mask_005.jpg,,,,,,,,,,,,,,,,,,,,,,,,,,,,,,,,,,,,,,,,,,,,,,,,0,0,0,4,1,,,,,,,,,,,,,,,,,,,,,,,,,,,,,,,,,,,,,,,,,
003492,001,2022-11-21_02h11.13.058,Info_measure_main_exp,2022.2.2,Win32,60.0132029,,,,,,,,,,,,,,,,,,masks/mask_002.jpg,,,,,,,,,,,,,,,,,,,,,,,,,,,,,,,,,,,,,,,,,,,,,,,,0,1,1,1,1,,,,,,,,,,,,,,,,,,,,,,,,,,,,,,,,,,,,,,,,,
003492,001,2022-11-21_02h11.13.058,Info_measure_main_exp,2022.2.2,Win32,60.0132029,,,,,,,,,,,,,,,,,,masks/mask_001.jpg,,,,,,,,,,,,,,,,,,,,,,,,,,,,,,,,,,,,,,,,,,,,,,,,0,2,2,0,1,,,,,,,,,,,,,,,,,,,,,,,,,,,,,,,,,,,,,,,,,
003492,001,2022-11-21_02h11.13.058,Info_measure_main_exp,2022.2.2,Win32,60.0132029,,,,,,,,,,,,,,,,,,masks/mask_004.jpg,,,,,,,,,,,,,,,,,,,,,,,,,,,,,,,,,,,,,,,,,,,,,,,,0,3,3,3,1,,,,,,,,,,,,,,,,,,,,,,,,,,,,,,,,,,,,,,,,,
003492,001,2022-11-21_02h11.13.058,Info_measure_main_exp,2022.2.2,Win32,60.0132029,,,,,,,,,,,,,,,,,,masks/mask_003.jpg,,,,,,,,,,,,,,,,,,,,,,,,,,,,,,,,,,,,,,,,,,,,,,,,0,4,4,2,1,,,,,,,,,,,,,,,,,,,,,,,,,,,,,,,,,,,,,,,,,
003492,001,2022-11-21_02h11.13.058,Info_measure_main_exp,2022.2.2,Win32,60.0132029,,,,,,,,,,,,,,,,,,,,,,,,,,,,,,0,1.1357,1,,,,,,,,,,,,0,131,5,5,1986,1986,absent_patch/patch0001986.jpg,absent_patch/patch0001986.jpg,,,,,,,,,,,,,,,,,,,,-0.030555556,0.101851824,1,0,0,response7disk,14,-0.000925869,0.000925912,1,0,0,center_square,0,13,13,19,1,,,,,,,,,,,,,,,,,,,,,,,
003492,001,2022-11-21_02h11.13.058,Info_measure_main_exp,2022.2.2,Win32,60.0132029,,,,,,,,,,,,,,,,,,masks/mask_003.jpg,,,,,,,,,,,,,,,,,,,,,,,,,,,,,,,,,,,,,,,,,,,0,0,0,2,1,,,,,,,,,,,,,,,,,,,,,,,,,,,,,,,,,,,,,,,,,,,,,,
003492,001,2022-11-21_02h11.13.058,Info_measure_main_exp,2022.2.2,Win32,60.0132029,,,,,,,,,,,,,,,,,,masks/mask_005.jpg,,,,,,,,,,,,,,,,,,,,,,,,,,,,,,,,,,,,,,,,,,,0,1,1,4,1,,,,,,,,,,,,,,,,,,,,,,,,,,,,,,,,,,,,,,,,,,,,,,
003492,001,2022-11-21_02h11.13.058,Info_measure_main_exp,2022.2.2,Win32,60.0132029,,,,,,,,,,,,,,,,,,masks/mask_004.jpg,,,,,,,,,,,,,,,,,,,,,,,,,,,,,,,,,,,,,,,,,,,0,2,2,3,1,,,,,,,,,,,,,,,,,,,,,,,,,,,,,,,,,,,,,,,,,,,,,,
003492,001,2022-11-21_02h11.13.058,Info_measure_main_exp,2022.2.2,Win32,60.0132029,,,,,,,,,,,,,,,,,,masks/mask_002.jpg,,,,,,,,,,,,,,,,,,,,,,,,,,,,,,,,,,,,,,,,,,,0,3,3,1,1,,,,,,,,,,,,,,,,,,,,,,,,,,,,,,,,,,,,,,,,,,,,,,
003492,001,2022-11-21_02h11.13.058,Info_measure_main_exp,2022.2.2,Win32,60.0132029,,,,,,,,,,,,,,,,,,masks/mask_001.jpg,,,,,,,,,,,,,,,,,,,,,,,,,,,,,,,,,,,,,,,,,,,0,4,4,0,1,,,,,,,,,,,,,,,,,,,,,,,,,,,,,,,,,,,,,,,,,,,,,,
003492,001,2022-11-21_02h11.13.058,Info_measure_main_exp,2022.2.2,Win32,60.0132029,,,,,,,,,,,,,,,,,,masks/mask_004.jpg,,,,,,,,,,,,,,,,,,,,,,,,,,,,,,,,,,,,,,,,,,,,,,,,0,0,0,3,1,,,,,,,,,,,,,,,,,,,,,,,,,,,,,,,,,,,,,,,,,
003492,001,2022-11-21_02h11.13.058,Info_measure_main_exp,2022.2.2,Win32,60.0132029,,,,,,,,,,,,,,,,,,masks/mask_002.jpg,,,,,,,,,,,,,,,,,,,,,,,,,,,,,,,,,,,,,,,,,,,,,,,,0,1,1,1,1,,,,,,,,,,,,,,,,,,,,,,,,,,,,,,,,,,,,,,,,,
003492,001,2022-11-21_02h11.13.058,Info_measure_main_exp,2022.2.2,Win32,60.0132029,,,,,,,,,,,,,,,,,,masks/mask_001.jpg,,,,,,,,,,,,,,,,,,,,,,,,,,,,,,,,,,,,,,,,,,,,,,,,0,2,2,0,1,,,,,,,,,,,,,,,,,,,,,,,,,,,,,,,,,,,,,,,,,
003492,001,2022-11-21_02h11.13.058,Info_measure_main_exp,2022.2.2,Win32,60.0132029,,,,,,,,,,,,,,,,,,masks/mask_003.jpg,,,,,,,,,,,,,,,,,,,,,,,,,,,,,,,,,,,,,,,,,,,,,,,,0,3,3,2,1,,,,,,,,,,,,,,,,,,,,,,,,,,,,,,,,,,,,,,,,,
003492,001,2022-11-21_02h11.13.058,Info_measure_main_exp,2022.2.2,Win32,60.0132029,,,,,,,,,,,,,,,,,,masks/mask_005.jpg,,,,,,,,,,,,,,,,,,,,,,,,,,,,,,,,,,,,,,,,,,,,,,,,0,4,4,4,1,,,,,,,,,,,,,,,,,,,,,,,,,,,,,,,,,,,,,,,,,
003492,001,2022-11-21_02h11.13.058,Info_measure_main_exp,2022.2.2,Win32,60.0132029,,,,,,,,,,,,,,,,,,,,,,,,,,,,,,5,2.5482,1,,,,,,,,,,,,0,131,5,5,2214,2082,absent_patch/patch0002214.jpg,absent_patch/patch0002082.jpg,,,,,,,,,,,,,,,,,,,,0.073148176,-0.036111111,1,0,0,response3disk,15,0.003703732,0.00370369,1,0,0,center_square,0,14,14,103,1,,,,,,,,,,,,,,,,,,,,,,,
003492,001,2022-11-21_02h11.13.058,Info_measure_main_exp,2022.2.2,Win32,60.0132029,,,,,,,,,,,,,,,,,,masks/mask_005.jpg,,,,,,,,,,,,,,,,,,,,,,,,,,,,,,,,,,,,,,,,,,,0,0,0,4,1,,,,,,,,,,,,,,,,,,,,,,,,,,,,,,,,,,,,,,,,,,,,,,
003492,001,2022-11-21_02h11.13.058,Info_measure_main_exp,2022.2.2,Win32,60.0132029,,,,,,,,,,,,,,,,,,masks/mask_003.jpg,,,,,,,,,,,,,,,,,,,,,,,,,,,,,,,,,,,,,,,,,,,0,1,1,2,1,,,,,,,,,,,,,,,,,,,,,,,,,,,,,,,,,,,,,,,,,,,,,,
003492,001,2022-11-21_02h11.13.058,Info_measure_main_exp,2022.2.2,Win32,60.0132029,,,,,,,,,,,,,,,,,,masks/mask_001.jpg,,,,,,,,,,,,,,,,,,,,,,,,,,,,,,,,,,,,,,,,,,,0,2,2,0,1,,,,,,,,,,,,,,,,,,,,,,,,,,,,,,,,,,,,,,,,,,,,,,
003492,001,2022-11-21_02h11.13.058,Info_measure_main_exp,2022.2.2,Win32,60.0132029,,,,,,,,,,,,,,,,,,masks/mask_002.jpg,,,,,,,,,,,,,,,,,,,,,,,,,,,,,,,,,,,,,,,,,,,0,3,3,1,1,,,,,,,,,,,,,,,,,,,,,,,,,,,,,,,,,,,,,,,,,,,,,,
003492,001,2022-11-21_02h11.13.058,Info_measure_main_exp,2022.2.2,Win32,60.0132029,,,,,,,,,,,,,,,,,,masks/mask_004.jpg,,,,,,,,,,,,,,,,,,,,,,,,,,,,,,,,,,,,,,,,,,,0,4,4,3,1,,,,,,,,,,,,,,,,,,,,,,,,,,,,,,,,,,,,,,,,,,,,,,
003492,001,2022-11-21_02h11.13.058,Info_measure_main_exp,2022.2.2,Win32,60.0132029,,,,,,,,,,,,,,,,,,masks/mask_003.jpg,,,,,,,,,,,,,,,,,,,,,,,,,,,,,,,,,,,,,,,,,,,,,,,,0,0,0,2,1,,,,,,,,,,,,,,,,,,,,,,,,,,,,,,,,,,,,,,,,,
003492,001,2022-11-21_02h11.13.058,Info_measure_main_exp,2022.2.2,Win32,60.0132029,,,,,,,,,,,,,,,,,,masks/mask_002.jpg,,,,,,,,,,,,,,,,,,,,,,,,,,,,,,,,,,,,,,,,,,,,,,,,0,1,1,1,1,,,,,,,,,,,,,,,,,,,,,,,,,,,,,,,,,,,,,,,,,
003492,001,2022-11-21_02h11.13.058,Info_measure_main_exp,2022.2.2,Win32,60.0132029,,,,,,,,,,,,,,,,,,masks/mask_004.jpg,,,,,,,,,,,,,,,,,,,,,,,,,,,,,,,,,,,,,,,,,,,,,,,,0,2,2,3,1,,,,,,,,,,,,,,,,,,,,,,,,,,,,,,,,,,,,,,,,,
003492,001,2022-11-21_02h11.13.058,Info_measure_main_exp,2022.2.2,Win32,60.0132029,,,,,,,,,,,,,,,,,,masks/mask_001.jpg,,,,,,,,,,,,,,,,,,,,,,,,,,,,,,,,,,,,,,,,,,,,,,,,0,3,3,0,1,,,,,,,,,,,,,,,,,,,,,,,,,,,,,,,,,,,,,,,,,
003492,001,2022-11-21_02h11.13.058,Info_measure_main_exp,2022.2.2,Win32,60.0132029,,,,,,,,,,,,,,,,,,masks/mask_005.jpg,,,,,,,,,,,,,,,,,,,,,,,,,,,,,,,,,,,,,,,,,,,,,,,,0,4,4,4,1,,,,,,,,,,,,,,,,,,,,,,,,,,,,,,,,,,,,,,,,,
003492,001,2022-11-21_02h11.13.058,Info_measure_main_exp,2022.2.2,Win32,60.0132029,,,,,,,,,,,,,,,,,,,,,,,,,,,,,,7,1.732,1,,,,,,,,,,,,0,131,5,5,2154,2250,absent_patch/patch0002154.jpg,absent_patch/patch0002250.jpg,,,,,,,,,,,,,,,,,,,,0.043518575,0.107407379,1,0,0,response1disk,16,0.003703732,0.004629601,1,0,0,center_square,0,15,15,108,1,,,,,,,,,,,,,,,,,,,,,,,
003492,001,2022-11-21_02h11.13.058,Info_measure_main_exp,2022.2.2,Win32,60.0132029,,,,,,,,,,,,,,,,,,masks/mask_003.jpg,,,,,,,,,,,,,,,,,,,,,,,,,,,,,,,,,,,,,,,,,,,0,0,0,2,1,,,,,,,,,,,,,,,,,,,,,,,,,,,,,,,,,,,,,,,,,,,,,,
003492,001,2022-11-21_02h11.13.058,Info_measure_main_exp,2022.2.2,Win32,60.0132029,,,,,,,,,,,,,,,,,,masks/mask_001.jpg,,,,,,,,,,,,,,,,,,,,,,,,,,,,,,,,,,,,,,,,,,,0,1,1,0,1,,,,,,,,,,,,,,,,,,,,,,,,,,,,,,,,,,,,,,,,,,,,,,
003492,001,2022-11-21_02h11.13.058,Info_measure_main_exp,2022.2.2,Win32,60.0132029,,,,,,,,,,,,,,,,,,masks/mask_004.jpg,,,,,,,,,,,,,,,,,,,,,,,,,,,,,,,,,,,,,,,,,,,0,2,2,3,1,,,,,,,,,,,,,,,,,,,,,,,,,,,,,,,,,,,,,,,,,,,,,,
003492,001,2022-11-21_02h11.13.058,Info_measure_main_exp,2022.2.2,Win32,60.0132029,,,,,,,,,,,,,,,,,,masks/mask_005.jpg,,,,,,,,,,,,,,,,,,,,,,,,,,,,,,,,,,,,,,,,,,,0,3,3,4,1,,,,,,,,,,,,,,,,,,,,,,,,,,,,,,,,,,,,,,,,,,,,,,
003492,001,2022-11-21_02h11.13.058,Info_measure_main_exp,2022.2.2,Win32,60.0132029,,,,,,,,,,,,,,,,,,masks/mask_002.jpg,,,,,,,,,,,,,,,,,,,,,,,,,,,,,,,,,,,,,,,,,,,0,4,4,1,1,,,,,,,,,,,,,,,,,,,,,,,,,,,,,,,,,,,,,,,,,,,,,,
003492,001,2022-11-21_02h11.13.058,Info_measure_main_exp,2022.2.2,Win32,60.0132029,,,,,,,,,,,,,,,,,,masks/mask_002.jpg,,,,,,,,,,,,,,,,,,,,,,,,,,,,,,,,,,,,,,,,,,,,,,,,0,0,0,1,1,,,,,,,,,,,,,,,,,,,,,,,,,,,,,,,,,,,,,,,,,
003492,001,2022-11-21_02h11.13.058,Info_measure_main_exp,2022.2.2,Win32,60.0132029,,,,,,,,,,,,,,,,,,masks/mask_001.jpg,,,,,,,,,,,,,,,,,,,,,,,,,,,,,,,,,,,,,,,,,,,,,,,,0,1,1,0,1,,,,,,,,,,,,,,,,,,,,,,,,,,,,,,,,,,,,,,,,,
003492,001,2022-11-21_02h11.13.058,Info_measure_main_exp,2022.2.2,Win32,60.0132029,,,,,,,,,,,,,,,,,,masks/mask_004.jpg,,,,,,,,,,,,,,,,,,,,,,,,,,,,,,,,,,,,,,,,,,,,,,,,0,2,2,3,1,,,,,,,,,,,,,,,,,,,,,,,,,,,,,,,,,,,,,,,,,
003492,001,2022-11-21_02h11.13.058,Info_measure_main_exp,2022.2.2,Win32,60.0132029,,,,,,,,,,,,,,,,,,masks/mask_005.jpg,,,,,,,,,,,,,,,,,,,,,,,,,,,,,,,,,,,,,,,,,,,,,,,,0,3,3,4,1,,,,,,,,,,,,,,,,,,,,,,,,,,,,,,,,,,,,,,,,,
003492,001,2022-11-21_02h11.13.058,Info_measure_main_exp,2022.2.2,Win32,60.0132029,,,,,,,,,,,,,,,,,,masks/mask_003.jpg,,,,,,,,,,,,,,,,,,,,,,,,,,,,,,,,,,,,,,,,,,,,,,,,0,4,4,2,1,,,,,,,,,,,,,,,,,,,,,,,,,,,,,,,,,,,,,,,,,
003492,001,2022-11-21_02h11.13.058,Info_measure_main_exp,2022.2.2,Win32,60.0132029,,,,,,,,,,,,,,,,,,,,,,,,,,,,,,7,1.0163,1,,,,,,,,,,,,0,131,5,5,2082,2154,absent_patch/patch0002082.jpg,absent_patch/patch0002154.jpg,,,,,,,,,,,,,,,,,,,,0.026851908,0.109259245,1,0,0,response1disk,17,0.000925954,0,1,0,0,center_square,0,16,16,33,1,,,,,,,,,,,,,,,,,,,,,,,
003492,001,2022-11-21_02h11.13.058,Info_measure_main_exp,2022.2.2,Win32,60.0132029,,,,,,,,,,,,,,,,,,masks/mask_001.jpg,,,,,,,,,,,,,,,,,,,,,,,,,,,,,,,,,,,,,,,,,,,0,0,0,0,1,,,,,,,,,,,,,,,,,,,,,,,,,,,,,,,,,,,,,,,,,,,,,,
003492,001,2022-11-21_02h11.13.058,Info_measure_main_exp,2022.2.2,Win32,60.0132029,,,,,,,,,,,,,,,,,,masks/mask_005.jpg,,,,,,,,,,,,,,,,,,,,,,,,,,,,,,,,,,,,,,,,,,,0,1,1,4,1,,,,,,,,,,,,,,,,,,,,,,,,,,,,,,,,,,,,,,,,,,,,,,
003492,001,2022-11-21_02h11.13.058,Info_measure_main_exp,2022.2.2,Win32,60.0132029,,,,,,,,,,,,,,,,,,masks/mask_004.jpg,,,,,,,,,,,,,,,,,,,,,,,,,,,,,,,,,,,,,,,,,,,0,2,2,3,1,,,,,,,,,,,,,,,,,,,,,,,,,,,,,,,,,,,,,,,,,,,,,,
003492,001,2022-11-21_02h11.13.058,Info_measure_main_exp,2022.2.2,Win32,60.0132029,,,,,,,,,,,,,,,,,,masks/mask_002.jpg,,,,,,,,,,,,,,,,,,,,,,,,,,,,,,,,,,,,,,,,,,,0,3,3,1,1,,,,,,,,,,,,,,,,,,,,,,,,,,,,,,,,,,,,,,,,,,,,,,
003492,001,2022-11-21_02h11.13.058,Info_measure_main_exp,2022.2.2,Win32,60.0132029,,,,,,,,,,,,,,,,,,masks/mask_003.jpg,,,,,,,,,,,,,,,,,,,,,,,,,,,,,,,,,,,,,,,,,,,0,4,4,2,1,,,,,,,,,,,,,,,,,,,,,,,,,,,,,,,,,,,,,,,,,,,,,,
003492,001,2022-11-21_02h11.13.058,Info_measure_main_exp,2022.2.2,Win32,60.0132029,,,,,,,,,,,,,,,,,,masks/mask_005.jpg,,,,,,,,,,,,,,,,,,,,,,,,,,,,,,,,,,,,,,,,,,,,,,,,0,0,0,4,1,,,,,,,,,,,,,,,,,,,,,,,,,,,,,,,,,,,,,,,,,
003492,001,2022-11-21_02h11.13.058,Info_measure_main_exp,2022.2.2,Win32,60.0132029,,,,,,,,,,,,,,,,,,masks/mask_003.jpg,,,,,,,,,,,,,,,,,,,,,,,,,,,,,,,,,,,,,,,,,,,,,,,,0,1,1,2,1,,,,,,,,,,,,,,,,,,,,,,,,,,,,,,,,,,,,,,,,,
003492,001,2022-11-21_02h11.13.058,Info_measure_main_exp,2022.2.2,Win32,60.0132029,,,,,,,,,,,,,,,,,,masks/mask_004.jpg,,,,,,,,,,,,,,,,,,,,,,,,,,,,,,,,,,,,,,,,,,,,,,,,0,2,2,3,1,,,,,,,,,,,,,,,,,,,,,,,,,,,,,,,,,,,,,,,,,
003492,001,2022-11-21_02h11.13.058,Info_measure_main_exp,2022.2.2,Win32,60.0132029,,,,,,,,,,,,,,,,,,masks/mask_002.jpg,,,,,,,,,,,,,,,,,,,,,,,,,,,,,,,,,,,,,,,,,,,,,,,,0,3,3,1,1,,,,,,,,,,,,,,,,,,,,,,,,,,,,,,,,,,,,,,,,,
003492,001,2022-11-21_02h11.13.058,Info_measure_main_exp,2022.2.2,Win32,60.0132029,,,,,,,,,,,,,,,,,,masks/mask_001.jpg,,,,,,,,,,,,,,,,,,,,,,,,,,,,,,,,,,,,,,,,,,,,,,,,0,4,4,0,1,,,,,,,,,,,,,,,,,,,,,,,,,,,,,,,,,,,,,,,,,
003492,001,2022-11-21_02h11.13.058,Info_measure_main_exp,2022.2.2,Win32,60.0132029,,,,,,,,,,,,,,,,,,,,,,,,,,,,,,2,1.7882,1,,,,,,,,,,,,1,131,5,5,1,2154,present_patch/cong_131_5_a.jpg,absent_patch/patch0002154.jpg,,,,,,,,,,,,,,,,,,,,-0.079629601,-0.040740755,1,0,0,response5disk,18,0.00648151,0.009259245,1,0,0,center_square,0,17,17,87,1,,,,,,,,,,,,,,,,,,,,,,,
003492,001,2022-11-21_02h11.13.058,Info_measure_main_exp,2022.2.2,Win32,60.0132029,,,,,,,,,,,,,,,,,,masks/mask_004.jpg,,,,,,,,,,,,,,,,,,,,,,,,,,,,,,,,,,,,,,,,,,,0,0,0,3,1,,,,,,,,,,,,,,,,,,,,,,,,,,,,,,,,,,,,,,,,,,,,,,
003492,001,2022-11-21_02h11.13.058,Info_measure_main_exp,2022.2.2,Win32,60.0132029,,,,,,,,,,,,,,,,,,masks/mask_005.jpg,,,,,,,,,,,,,,,,,,,,,,,,,,,,,,,,,,,,,,,,,,,0,1,1,4,1,,,,,,,,,,,,,,,,,,,,,,,,,,,,,,,,,,,,,,,,,,,,,,
003492,001,2022-11-21_02h11.13.058,Info_measure_main_exp,2022.2.2,Win32,60.0132029,,,,,,,,,,,,,,,,,,masks/mask_001.jpg,,,,,,,,,,,,,,,,,,,,,,,,,,,,,,,,,,,,,,,,,,,0,2,2,0,1,,,,,,,,,,,,,,,,,,,,,,,,,,,,,,,,,,,,,,,,,,,,,,
003492,001,2022-11-21_02h11.13.058,Info_measure_main_exp,2022.2.2,Win32,60.0132029,,,,,,,,,,,,,,,,,,masks/mask_002.jpg,,,,,,,,,,,,,,,,,,,,,,,,,,,,,,,,,,,,,,,,,,,0,3,3,1,1,,,,,,,,,,,,,,,,,,,,,,,,,,,,,,,,,,,,,,,,,,,,,,
003492,001,2022-11-21_02h11.13.058,Info_measure_main_exp,2022.2.2,Win32,60.0132029,,,,,,,,,,,,,,,,,,masks/mask_003.jpg,,,,,,,,,,,,,,,,,,,,,,,,,,,,,,,,,,,,,,,,,,,0,4,4,2,1,,,,,,,,,,,,,,,,,,,,,,,,,,,,,,,,,,,,,,,,,,,,,,
003492,001,2022-11-21_02h11.13.058,Info_measure_main_exp,2022.2.2,Win32,60.0132029,,,,,,,,,,,,,,,,,,masks/mask_003.jpg,,,,,,,,,,,,,,,,,,,,,,,,,,,,,,,,,,,,,,,,,,,,,,,,0,0,0,2,1,,,,,,,,,,,,,,,,,,,,,,,,,,,,,,,,,,,,,,,,,
003492,001,2022-11-21_02h11.13.058,Info_measure_main_exp,2022.2.2,Win32,60.0132029,,,,,,,,,,,,,,,,,,masks/mask_002.jpg,,,,,,,,,,,,,,,,,,,,,,,,,,,,,,,,,,,,,,,,,,,,,,,,0,1,1,1,1,,,,,,,,,,,,,,,,,,,,,,,,,,,,,,,,,,,,,,,,,
003492,001,2022-11-21_02h11.13.058,Info_measure_main_exp,2022.2.2,Win32,60.0132029,,,,,,,,,,,,,,,,,,masks/mask_004.jpg,,,,,,,,,,,,,,,,,,,,,,,,,,,,,,,,,,,,,,,,,,,,,,,,0,2,2,3,1,,,,,,,,,,,,,,,,,,,,,,,,,,,,,,,,,,,,,,,,,
003492,001,2022-11-21_02h11.13.058,Info_measure_main_exp,2022.2.2,Win32,60.0132029,,,,,,,,,,,,,,,,,,masks/mask_001.jpg,,,,,,,,,,,,,,,,,,,,,,,,,,,,,,,,,,,,,,,,,,,,,,,,0,3,3,0,1,,,,,,,,,,,,,,,,,,,,,,,,,,,,,,,,,,,,,,,,,
003492,001,2022-11-21_02h11.13.058,Info_measure_main_exp,2022.2.2,Win32,60.0132029,,,,,,,,,,,,,,,,,,masks/mask_005.jpg,,,,,,,,,,,,,,,,,,,,,,,,,,,,,,,,,,,,,,,,,,,,,,,,0,4,4,4,1,,,,,,,,,,,,,,,,,,,,,,,,,,,,,,,,,,,,,,,,,
003492,001,2022-11-21_02h11.13.058,Info_measure_main_exp,2022.2.2,Win32,60.0132029,,,,,,,,,,,,,,,,,,,,,,,,,,,,,,0,0.927,1,,,,,,,,,,,,0,131,5,5,1950,1950,absent_patch/patch0001950.jpg,absent_patch/patch0001950.jpg,,,,,,,,,,,,,,,,,,,,-0.035185157,0.082407379,1,0,0,response7disk,19,0.00648151,-0.003703732,1,0,0,center_square,0,18,18,92,1,,,,,,,,,,,,,,,,,,,,,,,
003492,001,2022-11-21_02h11.13.058,Info_measure_main_exp,2022.2.2,Win32,60.0132029,,,,,,,,,,,,,,,,,,masks/mask_004.jpg,,,,,,,,,,,,,,,,,,,,,,,,,,,,,,,,,,,,,,,,,,,0,0,0,3,1,,,,,,,,,,,,,,,,,,,,,,,,,,,,,,,,,,,,,,,,,,,,,,
003492,001,2022-11-21_02h11.13.058,Info_measure_main_exp,2022.2.2,Win32,60.0132029,,,,,,,,,,,,,,,,,,masks/mask_003.jpg,,,,,,,,,,,,,,,,,,,,,,,,,,,,,,,,,,,,,,,,,,,0,1,1,2,1,,,,,,,,,,,,,,,,,,,,,,,,,,,,,,,,,,,,,,,,,,,,,,
003492,001,2022-11-21_02h11.13.058,Info_measure_main_exp,2022.2.2,Win32,60.0132029,,,,,,,,,,,,,,,,,,masks/mask_005.jpg,,,,,,,,,,,,,,,,,,,,,,,,,,,,,,,,,,,,,,,,,,,0,2,2,4,1,,,,,,,,,,,,,,,,,,,,,,,,,,,,,,,,,,,,,,,,,,,,,,
003492,001,2022-11-21_02h11.13.058,Info_measure_main_exp,2022.2.2,Win32,60.0132029,,,,,,,,,,,,,,,,,,masks/mask_002.jpg,,,,,,,,,,,,,,,,,,,,,,,,,,,,,,,,,,,,,,,,,,,0,3,3,1,1,,,,,,,,,,,,,,,,,,,,,,,,,,,,,,,,,,,,,,,,,,,,,,
003492,001,2022-11-21_02h11.13.058,Info_measure_main_exp,2022.2.2,Win32,60.0132029,,,,,,,,,,,,,,,,,,masks/mask_001.jpg,,,,,,,,,,,,,,,,,,,,,,,,,,,,,,,,,,,,,,,,,,,0,4,4,0,1,,,,,,,,,,,,,,,,,,,,,,,,,,,,,,,,,,,,,,,,,,,,,,
003492,001,2022-11-21_02h11.13.058,Info_measure_main_exp,2022.2.2,Win32,60.0132029,,,,,,,,,,,,,,,,,,masks/mask_004.jpg,,,,,,,,,,,,,,,,,,,,,,,,,,,,,,,,,,,,,,,,,,,,,,,,0,0,0,3,1,,,,,,,,,,,,,,,,,,,,,,,,,,,,,,,,,,,,,,,,,
003492,001,2022-11-21_02h11.13.058,Info_measure_main_exp,2022.2.2,Win32,60.0132029,,,,,,,,,,,,,,,,,,masks/mask_002.jpg,,,,,,,,,,,,,,,,,,,,,,,,,,,,,,,,,,,,,,,,,,,,,,,,0,1,1,1,1,,,,,,,,,,,,,,,,,,,,,,,,,,,,,,,,,,,,,,,,,
003492,001,2022-11-21_02h11.13.058,Info_measure_main_exp,2022.2.2,Win32,60.0132029,,,,,,,,,,,,,,,,,,masks/mask_005.jpg,,,,,,,,,,,,,,,,,,,,,,,,,,,,,,,,,,,,,,,,,,,,,,,,0,2,2,4,1,,,,,,,,,,,,,,,,,,,,,,,,,,,,,,,,,,,,,,,,,
003492,001,2022-11-21_02h11.13.058,Info_measure_main_exp,2022.2.2,Win32,60.0132029,,,,,,,,,,,,,,,,,,masks/mask_001.jpg,,,,,,,,,,,,,,,,,,,,,,,,,,,,,,,,,,,,,,,,,,,,,,,,0,3,3,0,1,,,,,,,,,,,,,,,,,,,,,,,,,,,,,,,,,,,,,,,,,
003492,001,2022-11-21_02h11.13.058,Info_measure_main_exp,2022.2.2,Win32,60.0132029,,,,,,,,,,,,,,,,,,masks/mask_003.jpg,,,,,,,,,,,,,,,,,,,,,,,,,,,,,,,,,,,,,,,,,,,,,,,,0,4,4,2,1,,,,,,,,,,,,,,,,,,,,,,,,,,,,,,,,,,,,,,,,,
003492,001,2022-11-21_02h11.13.058,Info_measure_main_exp,2022.2.2,Win32,60.0132029,,,,,,,,,,,,,,,,,,,,,,,,,,,,,,7,1.1026,1,,,,,,,,,,,,0,131,5,5,2082,1986,absent_patch/patch0002082.jpg,absent_patch/patch0001986.jpg,,,,,,,,,,,,,,,,,,,,0.03148151,0.073148134,1,0,0,response1disk,20,0.002777778,0.001851824,1,0,0,center_square,0,19,19,94,1,,,,,,,,,,,,,,,,,,,,,,,
003492,001,2022-11-21_02h11.13.058,Info_measure_main_exp,2022.2.2,Win32,60.0132029,,,,,,,,,,,,,,,,,,masks/mask_002.jpg,,,,,,,,,,,,,,,,,,,,,,,,,,,,,,,,,,,,,,,,,,,0,0,0,1,1,,,,,,,,,,,,,,,,,,,,,,,,,,,,,,,,,,,,,,,,,,,,,,
003492,001,2022-11-21_02h11.13.058,Info_measure_main_exp,2022.2.2,Win32,60.0132029,,,,,,,,,,,,,,,,,,masks/mask_001.jpg,,,,,,,,,,,,,,,,,,,,,,,,,,,,,,,,,,,,,,,,,,,0,1,1,0,1,,,,,,,,,,,,,,,,,,,,,,,,,,,,,,,,,,,,,,,,,,,,,,
003492,001,2022-11-21_02h11.13.058,Info_measure_main_exp,2022.2.2,Win32,60.0132029,,,,,,,,,,,,,,,,,,masks/mask_005.jpg,,,,,,,,,,,,,,,,,,,,,,,,,,,,,,,,,,,,,,,,,,,0,2,2,4,1,,,,,,,,,,,,,,,,,,,,,,,,,,,,,,,,,,,,,,,,,,,,,,
003492,001,2022-11-21_02h11.13.058,Info_measure_main_exp,2022.2.2,Win32,60.0132029,,,,,,,,,,,,,,,,,,masks/mask_004.jpg,,,,,,,,,,,,,,,,,,,,,,,,,,,,,,,,,,,,,,,,,,,0,3,3,3,1,,,,,,,,,,,,,,,,,,,,,,,,,,,,,,,,,,,,,,,,,,,,,,
003492,001,2022-11-21_02h11.13.058,Info_measure_main_exp,2022.2.2,Win32,60.0132029,,,,,,,,,,,,,,,,,,masks/mask_003.jpg,,,,,,,,,,,,,,,,,,,,,,,,,,,,,,,,,,,,,,,,,,,0,4,4,2,1,,,,,,,,,,,,,,,,,,,,,,,,,,,,,,,,,,,,,,,,,,,,,,
003492,001,2022-11-21_02h11.13.058,Info_measure_main_exp,2022.2.2,Win32,60.0132029,,,,,,,,,,,,,,,,,,masks/mask_004.jpg,,,,,,,,,,,,,,,,,,,,,,,,,,,,,,,,,,,,,,,,,,,,,,,,0,0,0,3,1,,,,,,,,,,,,,,,,,,,,,,,,,,,,,,,,,,,,,,,,,
003492,001,2022-11-21_02h11.13.058,Info_measure_main_exp,2022.2.2,Win32,60.0132029,,,,,,,,,,,,,,,,,,masks/mask_003.jpg,,,,,,,,,,,,,,,,,,,,,,,,,,,,,,,,,,,,,,,,,,,,,,,,0,1,1,2,1,,,,,,,,,,,,,,,,,,,,,,,,,,,,,,,,,,,,,,,,,
003492,001,2022-11-21_02h11.13.058,Info_measure_main_exp,2022.2.2,Win32,60.0132029,,,,,,,,,,,,,,,,,,masks/mask_002.jpg,,,,,,,,,,,,,,,,,,,,,,,,,,,,,,,,,,,,,,,,,,,,,,,,0,2,2,1,1,,,,,,,,,,,,,,,,,,,,,,,,,,,,,,,,,,,,,,,,,
003492,001,2022-11-21_02h11.13.058,Info_measure_main_exp,2022.2.2,Win32,60.0132029,,,,,,,,,,,,,,,,,,masks/mask_001.jpg,,,,,,,,,,,,,,,,,,,,,,,,,,,,,,,,,,,,,,,,,,,,,,,,0,3,3,0,1,,,,,,,,,,,,,,,,,,,,,,,,,,,,,,,,,,,,,,,,,
003492,001,2022-11-21_02h11.13.058,Info_measure_main_exp,2022.2.2,Win32,60.0132029,,,,,,,,,,,,,,,,,,masks/mask_005.jpg,,,,,,,,,,,,,,,,,,,,,,,,,,,,,,,,,,,,,,,,,,,,,,,,0,4,4,4,1,,,,,,,,,,,,,,,,,,,,,,,,,,,,,,,,,,,,,,,,,
003492,001,2022-11-21_02h11.13.058,Info_measure_main_exp,2022.2.2,Win32,60.0132029,,,,,,,,,,,,,,,,,,,,,,,,,,,,,,3,1.7835,1,,,,,,,,,,,,0,131,5,5,2238,2166,absent_patch/patch0002238.jpg,absent_patch/patch0002166.jpg,,,,,,,,,,,,,,,,,,,,-0.01851849,-0.074074088,1,0,0,response5disk,21,0.010185242,-0.000925954,1,0,0,center_square,0,20,20,118,1,,,,,,,,,,,,,,,,,,,,,,,
003492,001,2022-11-21_02h11.13.058,Info_measure_main_exp,2022.2.2,Win32,60.0132029,,,,,,,,,,,,,,,,,,masks/mask_003.jpg,,,,,,,,,,,,,,,,,,,,,,,,,,,,,,,,,,,,,,,,,,,0,0,0,2,1,,,,,,,,,,,,,,,,,,,,,,,,,,,,,,,,,,,,,,,,,,,,,,
003492,001,2022-11-21_02h11.13.058,Info_measure_main_exp,2022.2.2,Win32,60.0132029,,,,,,,,,,,,,,,,,,masks/mask_002.jpg,,,,,,,,,,,,,,,,,,,,,,,,,,,,,,,,,,,,,,,,,,,0,1,1,1,1,,,,,,,,,,,,,,,,,,,,,,,,,,,,,,,,,,,,,,,,,,,,,,
003492,001,2022-11-21_02h11.13.058,Info_measure_main_exp,2022.2.2,Win32,60.0132029,,,,,,,,,,,,,,,,,,masks/mask_004.jpg,,,,,,,,,,,,,,,,,,,,,,,,,,,,,,,,,,,,,,,,,,,0,2,2,3,1,,,,,,,,,,,,,,,,,,,,,,,,,,,,,,,,,,,,,,,,,,,,,,
003492,001,2022-11-21_02h11.13.058,Info_measure_main_exp,2022.2.2,Win32,60.0132029,,,,,,,,,,,,,,,,,,masks/mask_005.jpg,,,,,,,,,,,,,,,,,,,,,,,,,,,,,,,,,,,,,,,,,,,0,3,3,4,1,,,,,,,,,,,,,,,,,,,,,,,,,,,,,,,,,,,,,,,,,,,,,,
003492,001,2022-11-21_02h11.13.058,Info_measure_main_exp,2022.2.2,Win32,60.0132029,,,,,,,,,,,,,,,,,,masks/mask_001.jpg,,,,,,,,,,,,,,,,,,,,,,,,,,,,,,,,,,,,,,,,,,,0,4,4,0,1,,,,,,,,,,,,,,,,,,,,,,,,,,,,,,,,,,,,,,,,,,,,,,
003492,001,2022-11-21_02h11.13.058,Info_measure_main_exp,2022.2.2,Win32,60.0132029,,,,,,,,,,,,,,,,,,masks/mask_004.jpg,,,,,,,,,,,,,,,,,,,,,,,,,,,,,,,,,,,,,,,,,,,,,,,,0,0,0,3,1,,,,,,,,,,,,,,,,,,,,,,,,,,,,,,,,,,,,,,,,,
003492,001,2022-11-21_02h11.13.058,Info_measure_main_exp,2022.2.2,Win32,60.0132029,,,,,,,,,,,,,,,,,,masks/mask_003.jpg,,,,,,,,,,,,,,,,,,,,,,,,,,,,,,,,,,,,,,,,,,,,,,,,0,1,1,2,1,,,,,,,,,,,,,,,,,,,,,,,,,,,,,,,,,,,,,,,,,
003492,001,2022-11-21_02h11.13.058,Info_measure_main_exp,2022.2.2,Win32,60.0132029,,,,,,,,,,,,,,,,,,masks/mask_001.jpg,,,,,,,,,,,,,,,,,,,,,,,,,,,,,,,,,,,,,,,,,,,,,,,,0,2,2,0,1,,,,,,,,,,,,,,,,,,,,,,,,,,,,,,,,,,,,,,,,,
003492,001,2022-11-21_02h11.13.058,Info_measure_main_exp,2022.2.2,Win32,60.0132029,,,,,,,,,,,,,,,,,,masks/mask_005.jpg,,,,,,,,,,,,,,,,,,,,,,,,,,,,,,,,,,,,,,,,,,,,,,,,0,3,3,4,1,,,,,,,,,,,,,,,,,,,,,,,,,,,,,,,,,,,,,,,,,
003492,001,2022-11-21_02h11.13.058,Info_measure_main_exp,2022.2.2,Win32,60.0132029,,,,,,,,,,,,,,,,,,masks/mask_002.jpg,,,,,,,,,,,,,,,,,,,,,,,,,,,,,,,,,,,,,,,,,,,,,,,,0,4,4,1,1,,,,,,,,,,,,,,,,,,,,,,,,,,,,,,,,,,,,,,,,,
003492,001,2022-11-21_02h11.13.058,Info_measure_main_exp,2022.2.2,Win32,60.0132029,,,,,,,,,,,,,,,,,,,,,,,,,,,,,,7,1.173,1,,,,,,,,,,,,0,131,5,5,2154,1974,absent_patch/patch0002154.jpg,absent_patch/patch0001974.jpg,,,,,,,,,,,,,,,,,,,,0.030555556,0.079629601,1,0,0,response1disk,22,0,-0.007407422,1,0,0,center_square,0,21,21,82,1,,,,,,,,,,,,,,,,,,,,,,,
003492,001,2022-11-21_02h11.13.058,Info_measure_main_exp,2022.2.2,Win32,60.0132029,,,,,,,,,,,,,,,,,,masks/mask_001.jpg,,,,,,,,,,,,,,,,,,,,,,,,,,,,,,,,,,,,,,,,,,,0,0,0,0,1,,,,,,,,,,,,,,,,,,,,,,,,,,,,,,,,,,,,,,,,,,,,,,
003492,001,2022-11-21_02h11.13.058,Info_measure_main_exp,2022.2.2,Win32,60.0132029,,,,,,,,,,,,,,,,,,masks/mask_005.jpg,,,,,,,,,,,,,,,,,,,,,,,,,,,,,,,,,,,,,,,,,,,0,1,1,4,1,,,,,,,,,,,,,,,,,,,,,,,,,,,,,,,,,,,,,,,,,,,,,,
003492,001,2022-11-21_02h11.13.058,Info_measure_main_exp,2022.2.2,Win32,60.0132029,,,,,,,,,,,,,,,,,,masks/mask_003.jpg,,,,,,,,,,,,,,,,,,,,,,,,,,,,,,,,,,,,,,,,,,,0,2,2,2,1,,,,,,,,,,,,,,,,,,,,,,,,,,,,,,,,,,,,,,,,,,,,,,
003492,001,2022-11-21_02h11.13.058,Info_measure_main_exp,2022.2.2,Win32,60.0132029,,,,,,,,,,,,,,,,,,masks/mask_002.jpg,,,,,,,,,,,,,,,,,,,,,,,,,,,,,,,,,,,,,,,,,,,0,3,3,1,1,,,,,,,,,,,,,,,,,,,,,,,,,,,,,,,,,,,,,,,,,,,,,,
003492,001,2022-11-21_02h11.13.058,Info_measure_main_exp,2022.2.2,Win32,60.0132029,,,,,,,,,,,,,,,,,,masks/mask_004.jpg,,,,,,,,,,,,,,,,,,,,,,,,,,,,,,,,,,,,,,,,,,,0,4,4,3,1,,,,,,,,,,,,,,,,,,,,,,,,,,,,,,,,,,,,,,,,,,,,,,
003492,001,2022-11-21_02h11.13.058,Info_measure_main_exp,2022.2.2,Win32,60.0132029,,,,,,,,,,,,,,,,,,masks/mask_005.jpg,,,,,,,,,,,,,,,,,,,,,,,,,,,,,,,,,,,,,,,,,,,,,,,,0,0,0,4,1,,,,,,,,,,,,,,,,,,,,,,,,,,,,,,,,,,,,,,,,,
003492,001,2022-11-21_02h11.13.058,Info_measure_main_exp,2022.2.2,Win32,60.0132029,,,,,,,,,,,,,,,,,,masks/mask_004.jpg,,,,,,,,,,,,,,,,,,,,,,,,,,,,,,,,,,,,,,,,,,,,,,,,0,1,1,3,1,,,,,,,,,,,,,,,,,,,,,,,,,,,,,,,,,,,,,,,,,
003492,001,2022-11-21_02h11.13.058,Info_measure_main_exp,2022.2.2,Win32,60.0132029,,,,,,,,,,,,,,,,,,masks/mask_002.jpg,,,,,,,,,,,,,,,,,,,,,,,,,,,,,,,,,,,,,,,,,,,,,,,,0,2,2,1,1,,,,,,,,,,,,,,,,,,,,,,,,,,,,,,,,,,,,,,,,,
003492,001,2022-11-21_02h11.13.058,Info_measure_main_exp,2022.2.2,Win32,60.0132029,,,,,,,,,,,,,,,,,,masks/mask_001.jpg,,,,,,,,,,,,,,,,,,,,,,,,,,,,,,,,,,,,,,,,,,,,,,,,0,3,3,0,1,,,,,,,,,,,,,,,,,,,,,,,,,,,,,,,,,,,,,,,,,
003492,001,2022-11-21_02h11.13.058,Info_measure_main_exp,2022.2.2,Win32,60.0132029,,,,,,,,,,,,,,,,,,masks/mask_003.jpg,,,,,,,,,,,,,,,,,,,,,,,,,,,,,,,,,,,,,,,,,,,,,,,,0,4,4,2,1,,,,,,,,,,,,,,,,,,,,,,,,,,,,,,,,,,,,,,,,,
003492,001,2022-11-21_02h11.13.058,Info_measure_main_exp,2022.2.2,Win32,60.0132029,,,,,,,,,,,,,,,,,,,,,,,,,,,,,,7,3.6401,1,,,,,,,,,,,,1,131,5,5,1,2178,present_patch/cong_131_5_a.jpg,absent_patch/patch0002178.jpg,,,,,,,,,,,,,,,,,,,,0.029629686,0.074074046,1,0,0,response1disk,23,0.012037065,0.010185157,1,0,0,center_square,0,22,22,40,1,,,,,,,,,,,,,,,,,,,,,,,
003492,001,2022-11-21_02h11.13.058,Info_measure_main_exp,2022.2.2,Win32,60.0132029,,,,,,,,,,,,,,,,,,masks/mask_002.jpg,,,,,,,,,,,,,,,,,,,,,,,,,,,,,,,,,,,,,,,,,,,0,0,0,1,1,,,,,,,,,,,,,,,,,,,,,,,,,,,,,,,,,,,,,,,,,,,,,,
003492,001,2022-11-21_02h11.13.058,Info_measure_main_exp,2022.2.2,Win32,60.0132029,,,,,,,,,,,,,,,,,,masks/mask_001.jpg,,,,,,,,,,,,,,,,,,,,,,,,,,,,,,,,,,,,,,,,,,,0,1,1,0,1,,,,,,,,,,,,,,,,,,,,,,,,,,,,,,,,,,,,,,,,,,,,,,
003492,001,2022-11-21_02h11.13.058,Info_measure_main_exp,2022.2.2,Win32,60.0132029,,,,,,,,,,,,,,,,,,masks/mask_005.jpg,,,,,,,,,,,,,,,,,,,,,,,,,,,,,,,,,,,,,,,,,,,0,2,2,4,1,,,,,,,,,,,,,,,,,,,,,,,,,,,,,,,,,,,,,,,,,,,,,,
003492,001,2022-11-21_02h11.13.058,Info_measure_main_exp,2022.2.2,Win32,60.0132029,,,,,,,,,,,,,,,,,,masks/mask_004.jpg,,,,,,,,,,,,,,,,,,,,,,,,,,,,,,,,,,,,,,,,,,,0,3,3,3,1,,,,,,,,,,,,,,,,,,,,,,,,,,,,,,,,,,,,,,,,,,,,,,
003492,001,2022-11-21_02h11.13.058,Info_measure_main_exp,2022.2.2,Win32,60.0132029,,,,,,,,,,,,,,,,,,masks/mask_003.jpg,,,,,,,,,,,,,,,,,,,,,,,,,,,,,,,,,,,,,,,,,,,0,4,4,2,1,,,,,,,,,,,,,,,,,,,,,,,,,,,,,,,,,,,,,,,,,,,,,,
003492,001,2022-11-21_02h11.13.058,Info_measure_main_exp,2022.2.2,Win32,60.0132029,,,,,,,,,,,,,,,,,,masks/mask_003.jpg,,,,,,,,,,,,,,,,,,,,,,,,,,,,,,,,,,,,,,,,,,,,,,,,0,0,0,2,1,,,,,,,,,,,,,,,,,,,,,,,,,,,,,,,,,,,,,,,,,
003492,001,2022-11-21_02h11.13.058,Info_measure_main_exp,2022.2.2,Win32,60.0132029,,,,,,,,,,,,,,,,,,masks/mask_004.jpg,,,,,,,,,,,,,,,,,,,,,,,,,,,,,,,,,,,,,,,,,,,,,,,,0,1,1,3,1,,,,,,,,,,,,,,,,,,,,,,,,,,,,,,,,,,,,,,,,,
003492,001,2022-11-21_02h11.13.058,Info_measure_main_exp,2022.2.2,Win32,60.0132029,,,,,,,,,,,,,,,,,,masks/mask_002.jpg,,,,,,,,,,,,,,,,,,,,,,,,,,,,,,,,,,,,,,,,,,,,,,,,0,2,2,1,1,,,,,,,,,,,,,,,,,,,,,,,,,,,,,,,,,,,,,,,,,
003492,001,2022-11-21_02h11.13.058,Info_measure_main_exp,2022.2.2,Win32,60.0132029,,,,,,,,,,,,,,,,,,masks/mask_005.jpg,,,,,,,,,,,,,,,,,,,,,,,,,,,,,,,,,,,,,,,,,,,,,,,,0,3,3,4,1,,,,,,,,,,,,,,,,,,,,,,,,,,,,,,,,,,,,,,,,,
003492,001,2022-11-21_02h11.13.058,Info_measure_main_exp,2022.2.2,Win32,60.0132029,,,,,,,,,,,,,,,,,,masks/mask_001.jpg,,,,,,,,,,,,,,,,,,,,,,,,,,,,,,,,,,,,,,,,,,,,,,,,0,4,4,0,1,,,,,,,,,,,,,,,,,,,,,,,,,,,,,,,,,,,,,,,,,
003492,001,2022-11-21_02h11.13.058,Info_measure_main_exp,2022.2.2,Win32,60.0132029,,,,,,,,,,,,,,,,,,,,,,,,,,,,,,7,1.5034,1,,,,,,,,,,,,0,131,5,5,1950,2214,absent_patch/patch0001950.jpg,absent_patch/patch0002214.jpg,,,,,,,,,,,,,,,,,,,,0.032407464,0.079629601,1,0,0,response1disk,24,0.004629686,0.005555556,1,0,0,center_square,0,23,23,85,1,,,,,,,,,,,,,,,,,,,,,,,
003492,001,2022-11-21_02h11.13.058,Info_measure_main_exp,2022.2.2,Win32,60.0132029,,,,,,,,,,,,,,,,,,masks/mask_003.jpg,,,,,,,,,,,,,,,,,,,,,,,,,,,,,,,,,,,,,,,,,,,0,0,0,2,1,,,,,,,,,,,,,,,,,,,,,,,,,,,,,,,,,,,,,,,,,,,,,,
003492,001,2022-11-21_02h11.13.058,Info_measure_main_exp,2022.2.2,Win32,60.0132029,,,,,,,,,,,,,,,,,,masks/mask_004.jpg,,,,,,,,,,,,,,,,,,,,,,,,,,,,,,,,,,,,,,,,,,,0,1,1,3,1,,,,,,,,,,,,,,,,,,,,,,,,,,,,,,,,,,,,,,,,,,,,,,
003492,001,2022-11-21_02h11.13.058,Info_measure_main_exp,2022.2.2,Win32,60.0132029,,,,,,,,,,,,,,,,,,masks/mask_001.jpg,,,,,,,,,,,,,,,,,,,,,,,,,,,,,,,,,,,,,,,,,,,0,2,2,0,1,,,,,,,,,,,,,,,,,,,,,,,,,,,,,,,,,,,,,,,,,,,,,,
003492,001,2022-11-21_02h11.13.058,Info_measure_main_exp,2022.2.2,Win32,60.0132029,,,,,,,,,,,,,,,,,,masks/mask_005.jpg,,,,,,,,,,,,,,,,,,,,,,,,,,,,,,,,,,,,,,,,,,,0,3,3,4,1,,,,,,,,,,,,,,,,,,,,,,,,,,,,,,,,,,,,,,,,,,,,,,
003492,001,2022-11-21_02h11.13.058,Info_measure_main_exp,2022.2.2,Win32,60.0132029,,,,,,,,,,,,,,,,,,masks/mask_002.jpg,,,,,,,,,,,,,,,,,,,,,,,,,,,,,,,,,,,,,,,,,,,0,4,4,1,1,,,,,,,,,,,,,,,,,,,,,,,,,,,,,,,,,,,,,,,,,,,,,,
003492,001,2022-11-21_02h11.13.058,Info_measure_main_exp,2022.2.2,Win32,60.0132029,,,,,,,,,,,,,,,,,,masks/mask_002.jpg,,,,,,,,,,,,,,,,,,,,,,,,,,,,,,,,,,,,,,,,,,,,,,,,0,0,0,1,1,,,,,,,,,,,,,,,,,,,,,,,,,,,,,,,,,,,,,,,,,
003492,001,2022-11-21_02h11.13.058,Info_measure_main_exp,2022.2.2,Win32,60.0132029,,,,,,,,,,,,,,,,,,masks/mask_005.jpg,,,,,,,,,,,,,,,,,,,,,,,,,,,,,,,,,,,,,,,,,,,,,,,,0,1,1,4,1,,,,,,,,,,,,,,,,,,,,,,,,,,,,,,,,,,,,,,,,,
003492,001,2022-11-21_02h11.13.058,Info_measure_main_exp,2022.2.2,Win32,60.0132029,,,,,,,,,,,,,,,,,,masks/mask_003.jpg,,,,,,,,,,,,,,,,,,,,,,,,,,,,,,,,,,,,,,,,,,,,,,,,0,2,2,2,1,,,,,,,,,,,,,,,,,,,,,,,,,,,,,,,,,,,,,,,,,
003492,001,2022-11-21_02h11.13.058,Info_measure_main_exp,2022.2.2,Win32,60.0132029,,,,,,,,,,,,,,,,,,masks/mask_004.jpg,,,,,,,,,,,,,,,,,,,,,,,,,,,,,,,,,,,,,,,,,,,,,,,,0,3,3,3,1,,,,,,,,,,,,,,,,,,,,,,,,,,,,,,,,,,,,,,,,,
003492,001,2022-11-21_02h11.13.058,Info_measure_main_exp,2022.2.2,Win32,60.0132029,,,,,,,,,,,,,,,,,,masks/mask_001.jpg,,,,,,,,,,,,,,,,,,,,,,,,,,,,,,,,,,,,,,,,,,,,,,,,0,4,4,0,1,,,,,,,,,,,,,,,,,,,,,,,,,,,,,,,,,,,,,,,,,
003492,001,2022-11-21_02h11.13.058,Info_measure_main_exp,2022.2.2,Win32,60.0132029,,,,,,,,,,,,,,,,,,,,,,,,,,,,,,7,1.0212,1,,,,,,,,,,,,1,131,5,5,2190,1,absent_patch/patch0002190.jpg,present_patch/cong_131_5_a.jpg,,,,,,,,,,,,,,,,,,,,0.03148151,0.064814801,1,0,0,response1disk,25,0.013888889,-0.001851866,1,0,0,center_square,0,24,24,64,1,,,,,,,,,,,,,,,,,,,,,,,
003492,001,2022-11-21_02h11.13.058,Info_measure_main_exp,2022.2.2,Win32,60.0132029,,,,,,,,,,,,,,,,,,masks/mask_001.jpg,,,,,,,,,,,,,,,,,,,,,,,,,,,,,,,,,,,,,,,,,,,0,0,0,0,1,,,,,,,,,,,,,,,,,,,,,,,,,,,,,,,,,,,,,,,,,,,,,,
003492,001,2022-11-21_02h11.13.058,Info_measure_main_exp,2022.2.2,Win32,60.0132029,,,,,,,,,,,,,,,,,,masks/mask_002.jpg,,,,,,,,,,,,,,,,,,,,,,,,,,,,,,,,,,,,,,,,,,,0,1,1,1,1,,,,,,,,,,,,,,,,,,,,,,,,,,,,,,,,,,,,,,,,,,,,,,
003492,001,2022-11-21_02h11.13.058,Info_measure_main_exp,2022.2.2,Win32,60.0132029,,,,,,,,,,,,,,,,,,masks/mask_003.jpg,,,,,,,,,,,,,,,,,,,,,,,,,,,,,,,,,,,,,,,,,,,0,2,2,2,1,,,,,,,,,,,,,,,,,,,,,,,,,,,,,,,,,,,,,,,,,,,,,,
003492,001,2022-11-21_02h11.13.058,Info_measure_main_exp,2022.2.2,Win32,60.0132029,,,,,,,,,,,,,,,,,,masks/mask_004.jpg,,,,,,,,,,,,,,,,,,,,,,,,,,,,,,,,,,,,,,,,,,,0,3,3,3,1,,,,,,,,,,,,,,,,,,,,,,,,,,,,,,,,,,,,,,,,,,,,,,
003492,001,2022-11-21_02h11.13.058,Info_measure_main_exp,2022.2.2,Win32,60.0132029,,,,,,,,,,,,,,,,,,masks/mask_005.jpg,,,,,,,,,,,,,,,,,,,,,,,,,,,,,,,,,,,,,,,,,,,0,4,4,4,1,,,,,,,,,,,,,,,,,,,,,,,,,,,,,,,,,,,,,,,,,,,,,,
003492,001,2022-11-21_02h11.13.058,Info_measure_main_exp,2022.2.2,Win32,60.0132029,,,,,,,,,,,,,,,,,,masks/mask_004.jpg,,,,,,,,,,,,,,,,,,,,,,,,,,,,,,,,,,,,,,,,,,,,,,,,0,0,0,3,1,,,,,,,,,,,,,,,,,,,,,,,,,,,,,,,,,,,,,,,,,
003492,001,2022-11-21_02h11.13.058,Info_measure_main_exp,2022.2.2,Win32,60.0132029,,,,,,,,,,,,,,,,,,masks/mask_001.jpg,,,,,,,,,,,,,,,,,,,,,,,,,,,,,,,,,,,,,,,,,,,,,,,,0,1,1,0,1,,,,,,,,,,,,,,,,,,,,,,,,,,,,,,,,,,,,,,,,,
003492,001,2022-11-21_02h11.13.058,Info_measure_main_exp,2022.2.2,Win32,60.0132029,,,,,,,,,,,,,,,,,,masks/mask_002.jpg,,,,,,,,,,,,,,,,,,,,,,,,,,,,,,,,,,,,,,,,,,,,,,,,0,2,2,1,1,,,,,,,,,,,,,,,,,,,,,,,,,,,,,,,,,,,,,,,,,
003492,001,2022-11-21_02h11.13.058,Info_measure_main_exp,2022.2.2,Win32,60.0132029,,,,,,,,,,,,,,,,,,masks/mask_005.jpg,,,,,,,,,,,,,,,,,,,,,,,,,,,,,,,,,,,,,,,,,,,,,,,,0,3,3,4,1,,,,,,,,,,,,,,,,,,,,,,,,,,,,,,,,,,,,,,,,,
003492,001,2022-11-21_02h11.13.058,Info_measure_main_exp,2022.2.2,Win32,60.0132029,,,,,,,,,,,,,,,,,,masks/mask_003.jpg,,,,,,,,,,,,,,,,,,,,,,,,,,,,,,,,,,,,,,,,,,,,,,,,0,4,4,2,1,,,,,,,,,,,,,,,,,,,,,,,,,,,,,,,,,,,,,,,,,
003492,001,2022-11-21_02h11.13.058,Info_measure_main_exp,2022.2.2,Win32,60.0132029,,,,,,,,,,,,,,,,,,,,,,,,,,,,,,0,0.8231,1,,,,,,,,,,,,0,131,5,5,2082,2082,absent_patch/patch0002082.jpg,absent_patch/patch0002082.jpg,,,,,,,,,,,,,,,,,,,,-0.026851824,0.051851824,1,0,0,response7disk,26,-0.001851824,0,1,0,0,center_square,0,25,25,74,1,,,,,,,,,,,,,,,,,,,,,,,
003492,001,2022-11-21_02h11.13.058,Info_measure_main_exp,2022.2.2,Win32,60.0132029,,,,,,,,,,,,,,,,,,masks/mask_003.jpg,,,,,,,,,,,,,,,,,,,,,,,,,,,,,,,,,,,,,,,,,,,0,0,0,2,1,,,,,,,,,,,,,,,,,,,,,,,,,,,,,,,,,,,,,,,,,,,,,,
003492,001,2022-11-21_02h11.13.058,Info_measure_main_exp,2022.2.2,Win32,60.0132029,,,,,,,,,,,,,,,,,,masks/mask_005.jpg,,,,,,,,,,,,,,,,,,,,,,,,,,,,,,,,,,,,,,,,,,,0,1,1,4,1,,,,,,,,,,,,,,,,,,,,,,,,,,,,,,,,,,,,,,,,,,,,,,
003492,001,2022-11-21_02h11.13.058,Info_measure_main_exp,2022.2.2,Win32,60.0132029,,,,,,,,,,,,,,,,,,masks/mask_001.jpg,,,,,,,,,,,,,,,,,,,,,,,,,,,,,,,,,,,,,,,,,,,0,2,2,0,1,,,,,,,,,,,,,,,,,,,,,,,,,,,,,,,,,,,,,,,,,,,,,,
003492,001,2022-11-21_02h11.13.058,Info_measure_main_exp,2022.2.2,Win32,60.0132029,,,,,,,,,,,,,,,,,,masks/mask_002.jpg,,,,,,,,,,,,,,,,,,,,,,,,,,,,,,,,,,,,,,,,,,,0,3,3,1,1,,,,,,,,,,,,,,,,,,,,,,,,,,,,,,,,,,,,,,,,,,,,,,
003492,001,2022-11-21_02h11.13.058,Info_measure_main_exp,2022.2.2,Win32,60.0132029,,,,,,,,,,,,,,,,,,masks/mask_004.jpg,,,,,,,,,,,,,,,,,,,,,,,,,,,,,,,,,,,,,,,,,,,0,4,4,3,1,,,,,,,,,,,,,,,,,,,,,,,,,,,,,,,,,,,,,,,,,,,,,,
003492,001,2022-11-21_02h11.13.058,Info_measure_main_exp,2022.2.2,Win32,60.0132029,,,,,,,,,,,,,,,,,,masks/mask_001.jpg,,,,,,,,,,,,,,,,,,,,,,,,,,,,,,,,,,,,,,,,,,,,,,,,0,0,0,0,1,,,,,,,,,,,,,,,,,,,,,,,,,,,,,,,,,,,,,,,,,
003492,001,2022-11-21_02h11.13.058,Info_measure_main_exp,2022.2.2,Win32,60.0132029,,,,,,,,,,,,,,,,,,masks/mask_004.jpg,,,,,,,,,,,,,,,,,,,,,,,,,,,,,,,,,,,,,,,,,,,,,,,,0,1,1,3,1,,,,,,,,,,,,,,,,,,,,,,,,,,,,,,,,,,,,,,,,,
003492,001,2022-11-21_02h11.13.058,Info_measure_main_exp,2022.2.2,Win32,60.0132029,,,,,,,,,,,,,,,,,,masks/mask_003.jpg,,,,,,,,,,,,,,,,,,,,,,,,,,,,,,,,,,,,,,,,,,,,,,,,0,2,2,2,1,,,,,,,,,,,,,,,,,,,,,,,,,,,,,,,,,,,,,,,,,
003492,001,2022-11-21_02h11.13.058,Info_measure_main_exp,2022.2.2,Win32,60.0132029,,,,,,,,,,,,,,,,,,masks/mask_002.jpg,,,,,,,,,,,,,,,,,,,,,,,,,,,,,,,,,,,,,,,,,,,,,,,,0,3,3,1,1,,,,,,,,,,,,,,,,,,,,,,,,,,,,,,,,,,,,,,,,,
003492,001,2022-11-21_02h11.13.058,Info_measure_main_exp,2022.2.2,Win32,60.0132029,,,,,,,,,,,,,,,,,,masks/mask_005.jpg,,,,,,,,,,,,,,,,,,,,,,,,,,,,,,,,,,,,,,,,,,,,,,,,0,4,4,4,1,,,,,,,,,,,,,,,,,,,,,,,,,,,,,,,,,,,,,,,,,
003492,001,2022-11-21_02h11.13.058,Info_measure_main_exp,2022.2.2,Win32,60.0132029,,,,,,,,,,,,,,,,,,,,,,,,,,,,,,2,1.3392,1,,,,,,,,,,,,0,131,5,5,2298,2190,absent_patch/patch0002298.jpg,absent_patch/patch0002190.jpg,,,,,,,,,,,,,,,,,,,,-0.066666667,-0.022222222,1,0,0,response5disk,27,0.005555556,-0.009259288,1,0,0,center_square,0,26,26,20,1,,,,,,,,,,,,,,,,,,,,,,,
003492,001,2022-11-21_02h11.13.058,Info_measure_main_exp,2022.2.2,Win32,60.0132029,,,,,,,,,,,,,,,,,,masks/mask_001.jpg,,,,,,,,,,,,,,,,,,,,,,,,,,,,,,,,,,,,,,,,,,,0,0,0,0,1,,,,,,,,,,,,,,,,,,,,,,,,,,,,,,,,,,,,,,,,,,,,,,
003492,001,2022-11-21_02h11.13.058,Info_measure_main_exp,2022.2.2,Win32,60.0132029,,,,,,,,,,,,,,,,,,masks/mask_004.jpg,,,,,,,,,,,,,,,,,,,,,,,,,,,,,,,,,,,,,,,,,,,0,1,1,3,1,,,,,,,,,,,,,,,,,,,,,,,,,,,,,,,,,,,,,,,,,,,,,,
003492,001,2022-11-21_02h11.13.058,Info_measure_main_exp,2022.2.2,Win32,60.0132029,,,,,,,,,,,,,,,,,,masks/mask_002.jpg,,,,,,,,,,,,,,,,,,,,,,,,,,,,,,,,,,,,,,,,,,,0,2,2,1,1,,,,,,,,,,,,,,,,,,,,,,,,,,,,,,,,,,,,,,,,,,,,,,
003492,001,2022-11-21_02h11.13.058,Info_measure_main_exp,2022.2.2,Win32,60.0132029,,,,,,,,,,,,,,,,,,masks/mask_005.jpg,,,,,,,,,,,,,,,,,,,,,,,,,,,,,,,,,,,,,,,,,,,0,3,3,4,1,,,,,,,,,,,,,,,,,,,,,,,,,,,,,,,,,,,,,,,,,,,,,,
003492,001,2022-11-21_02h11.13.058,Info_measure_main_exp,2022.2.2,Win32,60.0132029,,,,,,,,,,,,,,,,,,masks/mask_003.jpg,,,,,,,,,,,,,,,,,,,,,,,,,,,,,,,,,,,,,,,,,,,0,4,4,2,1,,,,,,,,,,,,,,,,,,,,,,,,,,,,,,,,,,,,,,,,,,,,,,
003492,001,2022-11-21_02h11.13.058,Info_measure_main_exp,2022.2.2,Win32,60.0132029,,,,,,,,,,,,,,,,,,masks/mask_002.jpg,,,,,,,,,,,,,,,,,,,,,,,,,,,,,,,,,,,,,,,,,,,,,,,,0,0,0,1,1,,,,,,,,,,,,,,,,,,,,,,,,,,,,,,,,,,,,,,,,,
003492,001,2022-11-21_02h11.13.058,Info_measure_main_exp,2022.2.2,Win32,60.0132029,,,,,,,,,,,,,,,,,,masks/mask_003.jpg,,,,,,,,,,,,,,,,,,,,,,,,,,,,,,,,,,,,,,,,,,,,,,,,0,1,1,2,1,,,,,,,,,,,,,,,,,,,,,,,,,,,,,,,,,,,,,,,,,
003492,001,2022-11-21_02h11.13.058,Info_measure_main_exp,2022.2.2,Win32,60.0132029,,,,,,,,,,,,,,,,,,masks/mask_004.jpg,,,,,,,,,,,,,,,,,,,,,,,,,,,,,,,,,,,,,,,,,,,,,,,,0,2,2,3,1,,,,,,,,,,,,,,,,,,,,,,,,,,,,,,,,,,,,,,,,,
003492,001,2022-11-21_02h11.13.058,Info_measure_main_exp,2022.2.2,Win32,60.0132029,,,,,,,,,,,,,,,,,,masks/mask_005.jpg,,,,,,,,,,,,,,,,,,,,,,,,,,,,,,,,,,,,,,,,,,,,,,,,0,3,3,4,1,,,,,,,,,,,,,,,,,,,,,,,,,,,,,,,,,,,,,,,,,
003492,001,2022-11-21_02h11.13.058,Info_measure_main_exp,2022.2.2,Win32,60.0132029,,,,,,,,,,,,,,,,,,masks/mask_001.jpg,,,,,,,,,,,,,,,,,,,,,,,,,,,,,,,,,,,,,,,,,,,,,,,,0,4,4,0,1,,,,,,,,,,,,,,,,,,,,,,,,,,,,,,,,,,,,,,,,,
003492,001,2022-11-21_02h11.13.058,Info_measure_main_exp,2022.2.2,Win32,60.0132029,,,,,,,,,,,,,,,,,,,,,,,,,,,,,,7,1.118,1,,,,,,,,,,,,0,131,5,5,2178,2238,absent_patch/patch0002178.jpg,absent_patch/patch0002238.jpg,,,,,,,,,,,,,,,,,,,,0.025925954,0.067592578,1,0,0,response1disk,28,0.003703732,-0.00648151,1,0,0,center_square,0,27,27,57,1,,,,,,,,,,,,,,,,,,,,,,,
003492,001,2022-11-21_02h11.13.058,Info_measure_main_exp,2022.2.2,Win32,60.0132029,,,,,,,,,,,,,,,,,,masks/mask_003.jpg,,,,,,,,,,,,,,,,,,,,,,,,,,,,,,,,,,,,,,,,,,,0,0,0,2,1,,,,,,,,,,,,,,,,,,,,,,,,,,,,,,,,,,,,,,,,,,,,,,
003492,001,2022-11-21_02h11.13.058,Info_measure_main_exp,2022.2.2,Win32,60.0132029,,,,,,,,,,,,,,,,,,masks/mask_005.jpg,,,,,,,,,,,,,,,,,,,,,,,,,,,,,,,,,,,,,,,,,,,0,1,1,4,1,,,,,,,,,,,,,,,,,,,,,,,,,,,,,,,,,,,,,,,,,,,,,,
003492,001,2022-11-21_02h11.13.058,Info_measure_main_exp,2022.2.2,Win32,60.0132029,,,,,,,,,,,,,,,,,,masks/mask_002.jpg,,,,,,,,,,,,,,,,,,,,,,,,,,,,,,,,,,,,,,,,,,,0,2,2,1,1,,,,,,,,,,,,,,,,,,,,,,,,,,,,,,,,,,,,,,,,,,,,,,
003492,001,2022-11-21_02h11.13.058,Info_measure_main_exp,2022.2.2,Win32,60.0132029,,,,,,,,,,,,,,,,,,masks/mask_001.jpg,,,,,,,,,,,,,,,,,,,,,,,,,,,,,,,,,,,,,,,,,,,0,3,3,0,1,,,,,,,,,,,,,,,,,,,,,,,,,,,,,,,,,,,,,,,,,,,,,,
003492,001,2022-11-21_02h11.13.058,Info_measure_main_exp,2022.2.2,Win32,60.0132029,,,,,,,,,,,,,,,,,,masks/mask_004.jpg,,,,,,,,,,,,,,,,,,,,,,,,,,,,,,,,,,,,,,,,,,,0,4,4,3,1,,,,,,,,,,,,,,,,,,,,,,,,,,,,,,,,,,,,,,,,,,,,,,
003492,001,2022-11-21_02h11.13.058,Info_measure_main_exp,2022.2.2,Win32,60.0132029,,,,,,,,,,,,,,,,,,masks/mask_003.jpg,,,,,,,,,,,,,,,,,,,,,,,,,,,,,,,,,,,,,,,,,,,,,,,,0,0,0,2,1,,,,,,,,,,,,,,,,,,,,,,,,,,,,,,,,,,,,,,,,,
003492,001,2022-11-21_02h11.13.058,Info_measure_main_exp,2022.2.2,Win32,60.0132029,,,,,,,,,,,,,,,,,,masks/mask_002.jpg,,,,,,,,,,,,,,,,,,,,,,,,,,,,,,,,,,,,,,,,,,,,,,,,0,1,1,1,1,,,,,,,,,,,,,,,,,,,,,,,,,,,,,,,,,,,,,,,,,
003492,001,2022-11-21_02h11.13.058,Info_measure_main_exp,2022.2.2,Win32,60.0132029,,,,,,,,,,,,,,,,,,masks/mask_005.jpg,,,,,,,,,,,,,,,,,,,,,,,,,,,,,,,,,,,,,,,,,,,,,,,,0,2,2,4,1,,,,,,,,,,,,,,,,,,,,,,,,,,,,,,,,,,,,,,,,,
003492,001,2022-11-21_02h11.13.058,Info_measure_main_exp,2022.2.2,Win32,60.0132029,,,,,,,,,,,,,,,,,,masks/mask_001.jpg,,,,,,,,,,,,,,,,,,,,,,,,,,,,,,,,,,,,,,,,,,,,,,,,0,3,3,0,1,,,,,,,,,,,,,,,,,,,,,,,,,,,,,,,,,,,,,,,,,
003492,001,2022-11-21_02h11.13.058,Info_measure_main_exp,2022.2.2,Win32,60.0132029,,,,,,,,,,,,,,,,,,masks/mask_004.jpg,,,,,,,,,,,,,,,,,,,,,,,,,,,,,,,,,,,,,,,,,,,,,,,,0,4,4,3,1,,,,,,,,,,,,,,,,,,,,,,,,,,,,,,,,,,,,,,,,,
003492,001,2022-11-21_02h11.13.058,Info_measure_main_exp,2022.2.2,Win32,60.0132029,,,,,,,,,,,,,,,,,,,,,,,,,,,,,,7,2.3636,1,,,,,,,,,,,,0,131,5,5,2250,2178,absent_patch/patch0002250.jpg,absent_patch/patch0002178.jpg,,,,,,,,,,,,,,,,,,,,0.028703732,0.063888889,1,0,0,response1disk,29,0.002777778,0.005555556,1,0,0,center_square,0,28,28,48,1,,,,,,,,,,,,,,,,,,,,,,,
003492,001,2022-11-21_02h11.13.058,Info_measure_main_exp,2022.2.2,Win32,60.0132029,,,,,,,,,,,,,,,,,,masks/mask_001.jpg,,,,,,,,,,,,,,,,,,,,,,,,,,,,,,,,,,,,,,,,,,,0,0,0,0,1,,,,,,,,,,,,,,,,,,,,,,,,,,,,,,,,,,,,,,,,,,,,,,
003492,001,2022-11-21_02h11.13.058,Info_measure_main_exp,2022.2.2,Win32,60.0132029,,,,,,,,,,,,,,,,,,masks/mask_003.jpg,,,,,,,,,,,,,,,,,,,,,,,,,,,,,,,,,,,,,,,,,,,0,1,1,2,1,,,,,,,,,,,,,,,,,,,,,,,,,,,,,,,,,,,,,,,,,,,,,,
003492,001,2022-11-21_02h11.13.058,Info_measure_main_exp,2022.2.2,Win32,60.0132029,,,,,,,,,,,,,,,,,,masks/mask_002.jpg,,,,,,,,,,,,,,,,,,,,,,,,,,,,,,,,,,,,,,,,,,,0,2,2,1,1,,,,,,,,,,,,,,,,,,,,,,,,,,,,,,,,,,,,,,,,,,,,,,
003492,001,2022-11-21_02h11.13.058,Info_measure_main_exp,2022.2.2,Win32,60.0132029,,,,,,,,,,,,,,,,,,masks/mask_004.jpg,,,,,,,,,,,,,,,,,,,,,,,,,,,,,,,,,,,,,,,,,,,0,3,3,3,1,,,,,,,,,,,,,,,,,,,,,,,,,,,,,,,,,,,,,,,,,,,,,,
003492,001,2022-11-21_02h11.13.058,Info_measure_main_exp,2022.2.2,Win32,60.0132029,,,,,,,,,,,,,,,,,,masks/mask_005.jpg,,,,,,,,,,,,,,,,,,,,,,,,,,,,,,,,,,,,,,,,,,,0,4,4,4,1,,,,,,,,,,,,,,,,,,,,,,,,,,,,,,,,,,,,,,,,,,,,,,
003492,001,2022-11-21_02h11.13.058,Info_measure_main_exp,2022.2.2,Win32,60.0132029,,,,,,,,,,,,,,,,,,masks/mask_001.jpg,,,,,,,,,,,,,,,,,,,,,,,,,,,,,,,,,,,,,,,,,,,,,,,,0,0,0,0,1,,,,,,,,,,,,,,,,,,,,,,,,,,,,,,,,,,,,,,,,,
003492,001,2022-11-21_02h11.13.058,Info_measure_main_exp,2022.2.2,Win32,60.0132029,,,,,,,,,,,,,,,,,,masks/mask_004.jpg,,,,,,,,,,,,,,,,,,,,,,,,,,,,,,,,,,,,,,,,,,,,,,,,0,1,1,3,1,,,,,,,,,,,,,,,,,,,,,,,,,,,,,,,,,,,,,,,,,
003492,001,2022-11-21_02h11.13.058,Info_measure_main_exp,2022.2.2,Win32,60.0132029,,,,,,,,,,,,,,,,,,masks/mask_005.jpg,,,,,,,,,,,,,,,,,,,,,,,,,,,,,,,,,,,,,,,,,,,,,,,,0,2,2,4,1,,,,,,,,,,,,,,,,,,,,,,,,,,,,,,,,,,,,,,,,,
003492,001,2022-11-21_02h11.13.058,Info_measure_main_exp,2022.2.2,Win32,60.0132029,,,,,,,,,,,,,,,,,,masks/mask_003.jpg,,,,,,,,,,,,,,,,,,,,,,,,,,,,,,,,,,,,,,,,,,,,,,,,0,3,3,2,1,,,,,,,,,,,,,,,,,,,,,,,,,,,,,,,,,,,,,,,,,
003492,001,2022-11-21_02h11.13.058,Info_measure_main_exp,2022.2.2,Win32,60.0132029,,,,,,,,,,,,,,,,,,masks/mask_002.jpg,,,,,,,,,,,,,,,,,,,,,,,,,,,,,,,,,,,,,,,,,,,,,,,,0,4,4,1,1,,,,,,,,,,,,,,,,,,,,,,,,,,,,,,,,,,,,,,,,,
003492,001,2022-11-21_02h11.13.058,Info_measure_main_exp,2022.2.2,Win32,60.0132029,,,,,,,,,,,,,,,,,,,,,,,,,,,,,,0,1.066,1,,,,,,,,,,,,0,131,5,5,2298,2298,absent_patch/patch0002298.jpg,absent_patch/patch0002298.jpg,,,,,,,,,,,,,,,,,,,,-0.028703647,0.062037023,1,0,0,response7disk,30,-0.000925869,-0.001851866,1,0,0,center_square,0,29,29,37,1,,,,,,,,,,,,,,,,,,,,,,,
003492,001,2022-11-21_02h11.13.058,Info_measure_main_exp,2022.2.2,Win32,60.0132029,,,,,,,,,,,,,,,,,,masks/mask_001.jpg,,,,,,,,,,,,,,,,,,,,,,,,,,,,,,,,,,,,,,,,,,,0,0,0,0,1,,,,,,,,,,,,,,,,,,,,,,,,,,,,,,,,,,,,,,,,,,,,,,
003492,001,2022-11-21_02h11.13.058,Info_measure_main_exp,2022.2.2,Win32,60.0132029,,,,,,,,,,,,,,,,,,masks/mask_002.jpg,,,,,,,,,,,,,,,,,,,,,,,,,,,,,,,,,,,,,,,,,,,0,1,1,1,1,,,,,,,,,,,,,,,,,,,,,,,,,,,,,,,,,,,,,,,,,,,,,,
003492,001,2022-11-21_02h11.13.058,Info_measure_main_exp,2022.2.2,Win32,60.0132029,,,,,,,,,,,,,,,,,,masks/mask_004.jpg,,,,,,,,,,,,,,,,,,,,,,,,,,,,,,,,,,,,,,,,,,,0,2,2,3,1,,,,,,,,,,,,,,,,,,,,,,,,,,,,,,,,,,,,,,,,,,,,,,
003492,001,2022-11-21_02h11.13.058,Info_measure_main_exp,2022.2.2,Win32,60.0132029,,,,,,,,,,,,,,,,,,masks/mask_005.jpg,,,,,,,,,,,,,,,,,,,,,,,,,,,,,,,,,,,,,,,,,,,0,3,3,4,1,,,,,,,,,,,,,,,,,,,,,,,,,,,,,,,,,,,,,,,,,,,,,,
003492,001,2022-11-21_02h11.13.058,Info_measure_main_exp,2022.2.2,Win32,60.0132029,,,,,,,,,,,,,,,,,,masks/mask_003.jpg,,,,,,,,,,,,,,,,,,,,,,,,,,,,,,,,,,,,,,,,,,,0,4,4,2,1,,,,,,,,,,,,,,,,,,,,,,,,,,,,,,,,,,,,,,,,,,,,,,
003492,001,2022-11-21_02h11.13.058,Info_measure_main_exp,2022.2.2,Win32,60.0132029,,,,,,,,,,,,,,,,,,masks/mask_002.jpg,,,,,,,,,,,,,,,,,,,,,,,,,,,,,,,,,,,,,,,,,,,,,,,,0,0,0,1,1,,,,,,,,,,,,,,,,,,,,,,,,,,,,,,,,,,,,,,,,,
003492,001,2022-11-21_02h11.13.058,Info_measure_main_exp,2022.2.2,Win32,60.0132029,,,,,,,,,,,,,,,,,,masks/mask_003.jpg,,,,,,,,,,,,,,,,,,,,,,,,,,,,,,,,,,,,,,,,,,,,,,,,0,1,1,2,1,,,,,,,,,,,,,,,,,,,,,,,,,,,,,,,,,,,,,,,,,
003492,001,2022-11-21_02h11.13.058,Info_measure_main_exp,2022.2.2,Win32,60.0132029,,,,,,,,,,,,,,,,,,masks/mask_004.jpg,,,,,,,,,,,,,,,,,,,,,,,,,,,,,,,,,,,,,,,,,,,,,,,,0,2,2,3,1,,,,,,,,,,,,,,,,,,,,,,,,,,,,,,,,,,,,,,,,,
003492,001,2022-11-21_02h11.13.058,Info_measure_main_exp,2022.2.2,Win32,60.0132029,,,,,,,,,,,,,,,,,,masks/mask_005.jpg,,,,,,,,,,,,,,,,,,,,,,,,,,,,,,,,,,,,,,,,,,,,,,,,0,3,3,4,1,,,,,,,,,,,,,,,,,,,,,,,,,,,,,,,,,,,,,,,,,
003492,001,2022-11-21_02h11.13.058,Info_measure_main_exp,2022.2.2,Win32,60.0132029,,,,,,,,,,,,,,,,,,masks/mask_001.jpg,,,,,,,,,,,,,,,,,,,,,,,,,,,,,,,,,,,,,,,,,,,,,,,,0,4,4,0,1,,,,,,,,,,,,,,,,,,,,,,,,,,,,,,,,,,,,,,,,,
003492,001,2022-11-21_02h11.13.058,Info_measure_main_exp,2022.2.2,Win32,60.0132029,,,,,,,,,,,,,,,,,,,,,,,,,,,,,,7,2.6533,1,,,,,,,,,,,,0,131,5,5,2250,2214,absent_patch/patch0002250.jpg,absent_patch/patch0002214.jpg,,,,,,,,,,,,,,,,,,,,0.036111111,0.109259245,1,0,0,response1disk,31,0.001851908,0.015740712,1,0,0,center_square,0,30,30,97,1,,,,,,,,,,,,,,,,,,,,,,,
003492,001,2022-11-21_02h11.13.058,Info_measure_main_exp,2022.2.2,Win32,60.0132029,,,,,,,,,,,,,,,,,,masks/mask_005.jpg,,,,,,,,,,,,,,,,,,,,,,,,,,,,,,,,,,,,,,,,,,,0,0,0,4,1,,,,,,,,,,,,,,,,,,,,,,,,,,,,,,,,,,,,,,,,,,,,,,
003492,001,2022-11-21_02h11.13.058,Info_measure_main_exp,2022.2.2,Win32,60.0132029,,,,,,,,,,,,,,,,,,masks/mask_004.jpg,,,,,,,,,,,,,,,,,,,,,,,,,,,,,,,,,,,,,,,,,,,0,1,1,3,1,,,,,,,,,,,,,,,,,,,,,,,,,,,,,,,,,,,,,,,,,,,,,,
003492,001,2022-11-21_02h11.13.058,Info_measure_main_exp,2022.2.2,Win32,60.0132029,,,,,,,,,,,,,,,,,,masks/mask_003.jpg,,,,,,,,,,,,,,,,,,,,,,,,,,,,,,,,,,,,,,,,,,,0,2,2,2,1,,,,,,,,,,,,,,,,,,,,,,,,,,,,,,,,,,,,,,,,,,,,,,
003492,001,2022-11-21_02h11.13.058,Info_measure_main_exp,2022.2.2,Win32,60.0132029,,,,,,,,,,,,,,,,,,masks/mask_002.jpg,,,,,,,,,,,,,,,,,,,,,,,,,,,,,,,,,,,,,,,,,,,0,3,3,1,1,,,,,,,,,,,,,,,,,,,,,,,,,,,,,,,,,,,,,,,,,,,,,,
003492,001,2022-11-21_02h11.13.058,Info_measure_main_exp,2022.2.2,Win32,60.0132029,,,,,,,,,,,,,,,,,,masks/mask_001.jpg,,,,,,,,,,,,,,,,,,,,,,,,,,,,,,,,,,,,,,,,,,,0,4,4,0,1,,,,,,,,,,,,,,,,,,,,,,,,,,,,,,,,,,,,,,,,,,,,,,
003492,001,2022-11-21_02h11.13.058,Info_measure_main_exp,2022.2.2,Win32,60.0132029,,,,,,,,,,,,,,,,,,masks/mask_005.jpg,,,,,,,,,,,,,,,,,,,,,,,,,,,,,,,,,,,,,,,,,,,,,,,,0,0,0,4,1,,,,,,,,,,,,,,,,,,,,,,,,,,,,,,,,,,,,,,,,,
003492,001,2022-11-21_02h11.13.058,Info_measure_main_exp,2022.2.2,Win32,60.0132029,,,,,,,,,,,,,,,,,,masks/mask_004.jpg,,,,,,,,,,,,,,,,,,,,,,,,,,,,,,,,,,,,,,,,,,,,,,,,0,1,1,3,1,,,,,,,,,,,,,,,,,,,,,,,,,,,,,,,,,,,,,,,,,
003492,001,2022-11-21_02h11.13.058,Info_measure_main_exp,2022.2.2,Win32,60.0132029,,,,,,,,,,,,,,,,,,masks/mask_001.jpg,,,,,,,,,,,,,,,,,,,,,,,,,,,,,,,,,,,,,,,,,,,,,,,,0,2,2,0,1,,,,,,,,,,,,,,,,,,,,,,,,,,,,,,,,,,,,,,,,,
003492,001,2022-11-21_02h11.13.058,Info_measure_main_exp,2022.2.2,Win32,60.0132029,,,,,,,,,,,,,,,,,,masks/mask_002.jpg,,,,,,,,,,,,,,,,,,,,,,,,,,,,,,,,,,,,,,,,,,,,,,,,0,3,3,1,1,,,,,,,,,,,,,,,,,,,,,,,,,,,,,,,,,,,,,,,,,
003492,001,2022-11-21_02h11.13.058,Info_measure_main_exp,2022.2.2,Win32,60.0132029,,,,,,,,,,,,,,,,,,masks/mask_003.jpg,,,,,,,,,,,,,,,,,,,,,,,,,,,,,,,,,,,,,,,,,,,,,,,,0,4,4,2,1,,,,,,,,,,,,,,,,,,,,,,,,,,,,,,,,,,,,,,,,,
003492,001,2022-11-21_02h11.13.058,Info_measure_main_exp,2022.2.2,Win32,60.0132029,,,,,,,,,,,,,,,,,,,,,,,,,,,,,,6,1.4131,1,,,,,,,,,,,,0,131,5,5,2082,2298,absent_patch/patch0002082.jpg,absent_patch/patch0002298.jpg,,,,,,,,,,,,,,,,,,,,0.061111111,0.021296268,1,0,0,response1disk,32,-0.005555556,0.001851824,1,0,0,center_square,0,31,31,107,1,,,,,,,,,,,,,,,,,,,,,,,
003492,001,2022-11-21_02h11.13.058,Info_measure_main_exp,2022.2.2,Win32,60.0132029,,,,,,,,,,,,,,,,,,masks/mask_004.jpg,,,,,,,,,,,,,,,,,,,,,,,,,,,,,,,,,,,,,,,,,,,0,0,0,3,1,,,,,,,,,,,,,,,,,,,,,,,,,,,,,,,,,,,,,,,,,,,,,,
003492,001,2022-11-21_02h11.13.058,Info_measure_main_exp,2022.2.2,Win32,60.0132029,,,,,,,,,,,,,,,,,,masks/mask_005.jpg,,,,,,,,,,,,,,,,,,,,,,,,,,,,,,,,,,,,,,,,,,,0,1,1,4,1,,,,,,,,,,,,,,,,,,,,,,,,,,,,,,,,,,,,,,,,,,,,,,
003492,001,2022-11-21_02h11.13.058,Info_measure_main_exp,2022.2.2,Win32,60.0132029,,,,,,,,,,,,,,,,,,masks/mask_001.jpg,,,,,,,,,,,,,,,,,,,,,,,,,,,,,,,,,,,,,,,,,,,0,2,2,0,1,,,,,,,,,,,,,,,,,,,,,,,,,,,,,,,,,,,,,,,,,,,,,,
003492,001,2022-11-21_02h11.13.058,Info_measure_main_exp,2022.2.2,Win32,60.0132029,,,,,,,,,,,,,,,,,,masks/mask_003.jpg,,,,,,,,,,,,,,,,,,,,,,,,,,,,,,,,,,,,,,,,,,,0,3,3,2,1,,,,,,,,,,,,,,,,,,,,,,,,,,,,,,,,,,,,,,,,,,,,,,
003492,001,2022-11-21_02h11.13.058,Info_measure_main_exp,2022.2.2,Win32,60.0132029,,,,,,,,,,,,,,,,,,masks/mask_002.jpg,,,,,,,,,,,,,,,,,,,,,,,,,,,,,,,,,,,,,,,,,,,0,4,4,1,1,,,,,,,,,,,,,,,,,,,,,,,,,,,,,,,,,,,,,,,,,,,,,,
003492,001,2022-11-21_02h11.13.058,Info_measure_main_exp,2022.2.2,Win32,60.0132029,,,,,,,,,,,,,,,,,,masks/mask_004.jpg,,,,,,,,,,,,,,,,,,,,,,,,,,,,,,,,,,,,,,,,,,,,,,,,0,0,0,3,1,,,,,,,,,,,,,,,,,,,,,,,,,,,,,,,,,,,,,,,,,
003492,001,2022-11-21_02h11.13.058,Info_measure_main_exp,2022.2.2,Win32,60.0132029,,,,,,,,,,,,,,,,,,masks/mask_005.jpg,,,,,,,,,,,,,,,,,,,,,,,,,,,,,,,,,,,,,,,,,,,,,,,,0,1,1,4,1,,,,,,,,,,,,,,,,,,,,,,,,,,,,,,,,,,,,,,,,,
003492,001,2022-11-21_02h11.13.058,Info_measure_main_exp,2022.2.2,Win32,60.0132029,,,,,,,,,,,,,,,,,,masks/mask_003.jpg,,,,,,,,,,,,,,,,,,,,,,,,,,,,,,,,,,,,,,,,,,,,,,,,0,2,2,2,1,,,,,,,,,,,,,,,,,,,,,,,,,,,,,,,,,,,,,,,,,
003492,001,2022-11-21_02h11.13.058,Info_measure_main_exp,2022.2.2,Win32,60.0132029,,,,,,,,,,,,,,,,,,masks/mask_002.jpg,,,,,,,,,,,,,,,,,,,,,,,,,,,,,,,,,,,,,,,,,,,,,,,,0,3,3,1,1,,,,,,,,,,,,,,,,,,,,,,,,,,,,,,,,,,,,,,,,,
003492,001,2022-11-21_02h11.13.058,Info_measure_main_exp,2022.2.2,Win32,60.0132029,,,,,,,,,,,,,,,,,,masks/mask_001.jpg,,,,,,,,,,,,,,,,,,,,,,,,,,,,,,,,,,,,,,,,,,,,,,,,0,4,4,0,1,,,,,,,,,,,,,,,,,,,,,,,,,,,,,,,,,,,,,,,,,
003492,001,2022-11-21_02h11.13.058,Info_measure_main_exp,2022.2.2,Win32,60.0132029,,,,,,,,,,,,,,,,,,,,,,,,,,,,,,7,1.0026,1,,,,,,,,,,,,0,131,5,5,2238,2298,absent_patch/patch0002238.jpg,absent_patch/patch0002298.jpg,,,,,,,,,,,,,,,,,,,,0.024074131,0.057407379,1,0,0,response1disk,33,-0.004629601,-0.011111111,1,0,0,center_square,0,32,32,51,1,,,,,,,,,,,,,,,,,,,,,,,
003492,001,2022-11-21_02h11.13.058,Info_measure_main_exp,2022.2.2,Win32,60.0132029,,,,,,,,,,,,,,,,,,masks/mask_005.jpg,,,,,,,,,,,,,,,,,,,,,,,,,,,,,,,,,,,,,,,,,,,0,0,0,4,1,,,,,,,,,,,,,,,,,,,,,,,,,,,,,,,,,,,,,,,,,,,,,,
003492,001,2022-11-21_02h11.13.058,Info_measure_main_exp,2022.2.2,Win32,60.0132029,,,,,,,,,,,,,,,,,,masks/mask_003.jpg,,,,,,,,,,,,,,,,,,,,,,,,,,,,,,,,,,,,,,,,,,,0,1,1,2,1,,,,,,,,,,,,,,,,,,,,,,,,,,,,,,,,,,,,,,,,,,,,,,
003492,001,2022-11-21_02h11.13.058,Info_measure_main_exp,2022.2.2,Win32,60.0132029,,,,,,,,,,,,,,,,,,masks/mask_001.jpg,,,,,,,,,,,,,,,,,,,,,,,,,,,,,,,,,,,,,,,,,,,0,2,2,0,1,,,,,,,,,,,,,,,,,,,,,,,,,,,,,,,,,,,,,,,,,,,,,,
003492,001,2022-11-21_02h11.13.058,Info_measure_main_exp,2022.2.2,Win32,60.0132029,,,,,,,,,,,,,,,,,,masks/mask_002.jpg,,,,,,,,,,,,,,,,,,,,,,,,,,,,,,,,,,,,,,,,,,,0,3,3,1,1,,,,,,,,,,,,,,,,,,,,,,,,,,,,,,,,,,,,,,,,,,,,,,
003492,001,2022-11-21_02h11.13.058,Info_measure_main_exp,2022.2.2,Win32,60.0132029,,,,,,,,,,,,,,,,,,masks/mask_004.jpg,,,,,,,,,,,,,,,,,,,,,,,,,,,,,,,,,,,,,,,,,,,0,4,4,3,1,,,,,,,,,,,,,,,,,,,,,,,,,,,,,,,,,,,,,,,,,,,,,,
003492,001,2022-11-21_02h11.13.058,Info_measure_main_exp,2022.2.2,Win32,60.0132029,,,,,,,,,,,,,,,,,,masks/mask_003.jpg,,,,,,,,,,,,,,,,,,,,,,,,,,,,,,,,,,,,,,,,,,,,,,,,0,0,0,2,1,,,,,,,,,,,,,,,,,,,,,,,,,,,,,,,,,,,,,,,,,
003492,001,2022-11-21_02h11.13.058,Info_measure_main_exp,2022.2.2,Win32,60.0132029,,,,,,,,,,,,,,,,,,masks/mask_002.jpg,,,,,,,,,,,,,,,,,,,,,,,,,,,,,,,,,,,,,,,,,,,,,,,,0,1,1,1,1,,,,,,,,,,,,,,,,,,,,,,,,,,,,,,,,,,,,,,,,,
003492,001,2022-11-21_02h11.13.058,Info_measure_main_exp,2022.2.2,Win32,60.0132029,,,,,,,,,,,,,,,,,,masks/mask_004.jpg,,,,,,,,,,,,,,,,,,,,,,,,,,,,,,,,,,,,,,,,,,,,,,,,0,2,2,3,1,,,,,,,,,,,,,,,,,,,,,,,,,,,,,,,,,,,,,,,,,
003492,001,2022-11-21_02h11.13.058,Info_measure_main_exp,2022.2.2,Win32,60.0132029,,,,,,,,,,,,,,,,,,masks/mask_005.jpg,,,,,,,,,,,,,,,,,,,,,,,,,,,,,,,,,,,,,,,,,,,,,,,,0,3,3,4,1,,,,,,,,,,,,,,,,,,,,,,,,,,,,,,,,,,,,,,,,,
003492,001,2022-11-21_02h11.13.058,Info_measure_main_exp,2022.2.2,Win32,60.0132029,,,,,,,,,,,,,,,,,,masks/mask_001.jpg,,,,,,,,,,,,,,,,,,,,,,,,,,,,,,,,,,,,,,,,,,,,,,,,0,4,4,0,1,,,,,,,,,,,,,,,,,,,,,,,,,,,,,,,,,,,,,,,,,
003492,001,2022-11-21_02h11.13.058,Info_measure_main_exp,2022.2.2,Win32,60.0132029,,,,,,,,,,,,,,,,,,,,,,,,,,,,,,7,1.6078,1,,,,,,,,,,,,0,131,5,5,2298,2178,absent_patch/patch0002298.jpg,absent_patch/patch0002178.jpg,,,,,,,,,,,,,,,,,,,,0.036111111,0.07870369,1,0,0,response1disk,34,-0.001851824,0.000925912,1,0,0,center_square,0,33,33,84,1,,,,,,,,,,,,,,,,,,,,,,,
003492,001,2022-11-21_02h11.13.058,Info_measure_main_exp,2022.2.2,Win32,60.0132029,,,,,,,,,,,,,,,,,,masks/mask_001.jpg,,,,,,,,,,,,,,,,,,,,,,,,,,,,,,,,,,,,,,,,,,,0,0,0,0,1,,,,,,,,,,,,,,,,,,,,,,,,,,,,,,,,,,,,,,,,,,,,,,
003492,001,2022-11-21_02h11.13.058,Info_measure_main_exp,2022.2.2,Win32,60.0132029,,,,,,,,,,,,,,,,,,masks/mask_005.jpg,,,,,,,,,,,,,,,,,,,,,,,,,,,,,,,,,,,,,,,,,,,0,1,1,4,1,,,,,,,,,,,,,,,,,,,,,,,,,,,,,,,,,,,,,,,,,,,,,,
003492,001,2022-11-21_02h11.13.058,Info_measure_main_exp,2022.2.2,Win32,60.0132029,,,,,,,,,,,,,,,,,,masks/mask_002.jpg,,,,,,,,,,,,,,,,,,,,,,,,,,,,,,,,,,,,,,,,,,,0,2,2,1,1,,,,,,,,,,,,,,,,,,,,,,,,,,,,,,,,,,,,,,,,,,,,,,
003492,001,2022-11-21_02h11.13.058,Info_measure_main_exp,2022.2.2,Win32,60.0132029,,,,,,,,,,,,,,,,,,masks/mask_003.jpg,,,,,,,,,,,,,,,,,,,,,,,,,,,,,,,,,,,,,,,,,,,0,3,3,2,1,,,,,,,,,,,,,,,,,,,,,,,,,,,,,,,,,,,,,,,,,,,,,,
003492,001,2022-11-21_02h11.13.058,Info_measure_main_exp,2022.2.2,Win32,60.0132029,,,,,,,,,,,,,,,,,,masks/mask_004.jpg,,,,,,,,,,,,,,,,,,,,,,,,,,,,,,,,,,,,,,,,,,,0,4,4,3,1,,,,,,,,,,,,,,,,,,,,,,,,,,,,,,,,,,,,,,,,,,,,,,
003492,001,2022-11-21_02h11.13.058,Info_measure_main_exp,2022.2.2,Win32,60.0132029,,,,,,,,,,,,,,,,,,masks/mask_001.jpg,,,,,,,,,,,,,,,,,,,,,,,,,,,,,,,,,,,,,,,,,,,,,,,,0,0,0,0,1,,,,,,,,,,,,,,,,,,,,,,,,,,,,,,,,,,,,,,,,,
003492,001,2022-11-21_02h11.13.058,Info_measure_main_exp,2022.2.2,Win32,60.0132029,,,,,,,,,,,,,,,,,,masks/mask_004.jpg,,,,,,,,,,,,,,,,,,,,,,,,,,,,,,,,,,,,,,,,,,,,,,,,0,1,1,3,1,,,,,,,,,,,,,,,,,,,,,,,,,,,,,,,,,,,,,,,,,
003492,001,2022-11-21_02h11.13.058,Info_measure_main_exp,2022.2.2,Win32,60.0132029,,,,,,,,,,,,,,,,,,masks/mask_002.jpg,,,,,,,,,,,,,,,,,,,,,,,,,,,,,,,,,,,,,,,,,,,,,,,,0,2,2,1,1,,,,,,,,,,,,,,,,,,,,,,,,,,,,,,,,,,,,,,,,,
003492,001,2022-11-21_02h11.13.058,Info_measure_main_exp,2022.2.2,Win32,60.0132029,,,,,,,,,,,,,,,,,,masks/mask_003.jpg,,,,,,,,,,,,,,,,,,,,,,,,,,,,,,,,,,,,,,,,,,,,,,,,0,3,3,2,1,,,,,,,,,,,,,,,,,,,,,,,,,,,,,,,,,,,,,,,,,
003492,001,2022-11-21_02h11.13.058,Info_measure_main_exp,2022.2.2,Win32,60.0132029,,,,,,,,,,,,,,,,,,masks/mask_005.jpg,,,,,,,,,,,,,,,,,,,,,,,,,,,,,,,,,,,,,,,,,,,,,,,,0,4,4,4,1,,,,,,,,,,,,,,,,,,,,,,,,,,,,,,,,,,,,,,,,,
