participant,session,date,expName,psychopyVersion,OS,frameRate,space_press_continue.keys,space_press_continue.rt,space_press_continue_2.keys,space_press_continue_2.rt,space_press_continue_3.keys,space_press_continue_3.rt,space_press_continue_4.keys,space_press_continue_4.rt,space_press_continue_5.keys,space_press_continue_5.rt,space_press_continue_6.keys,space_press_continue_6.rt,prac_mask_loop_1.thisRepN,prac_mask_loop_1.thisTrialN,prac_mask_loop_1.thisN,prac_mask_loop_1.thisIndex,prac_mask_loop_1.ran,mask_name,prac_mask_loop_2.thisRepN,prac_mask_loop_2.thisTrialN,prac_mask_loop_2.thisN,prac_mask_loop_2.thisIndex,prac_mask_loop_2.ran,mouse_2.x,mouse_2.y,mouse_2.leftButton,mouse_2.midButton,mouse_2.rightButton,mouse_2.clicked_name,similarity,response_time,Pass,mouse_12.x,mouse_12.y,mouse_12.leftButton,mouse_12.midButton,mouse_12.rightButton,mouse_12.clicked_name,prac_loop.thisRepN,prac_loop.thisTrialN,prac_loop.thisN,prac_loop.thisIndex,prac_loop.ran,Pair_type,Image_num,Patch_1_loc,Patch_2_loc,Patch_1_info,Patch_2_info,Patch_1_name,Patch_2_name,mouse_1.x,mouse_1.y,mouse_1.leftButton,mouse_1.midButton,mouse_1.rightButton,mouse_1.time,mouse_1.clicked_name,space_press_continue_7.keys,space_press_continue_7.rt,mask_loop.thisRepN,mask_loop.thisTrialN,mask_loop.thisN,mask_loop.thisIndex,mask_loop.ran,mask_loop_2.thisRepN,mask_loop_2.thisTrialN,mask_loop_2.thisN,mask_loop_2.thisIndex,mask_loop_2.ran,mouse.x,mouse.y,mouse.leftButton,mouse.midButton,mouse.rightButton,mouse.clicked_name,trialNumber,mouse_11.x,mouse_11.y,mouse_11.leftButton,mouse_11.midButton,mouse_11.rightButton,mouse_11.clicked_name,first_pass_loop.thisRepN,first_pass_loop.thisTrialN,first_pass_loop.thisN,first_pass_loop.thisIndex,first_pass_loop.ran,mask_loop_3.thisRepN,mask_loop_3.thisTrialN,mask_loop_3.thisN,mask_loop_3.thisIndex,mask_loop_3.ran,mask_loop_4.thisRepN,mask_loop_4.thisTrialN,mask_loop_4.thisN,mask_loop_4.thisIndex,mask_loop_4.ran,mouse_3.x,mouse_3.y,mouse_3.leftButton,mouse_3.midButton,mouse_3.rightButton,mouse_3.clicked_name,double_pass_loop.thisRepN,double_pass_loop.thisTrialN,double_pass_loop.thisN,double_pass_loop.thisIndex,double_pass_loop.ran,space_exit.keys,space_exit.rt
004549,001,2022-11-20_23h57.02.351,Info_measure_main_exp,2022.2.2,Win32,165.0982334,,,,,,,,,,,,,,,,,,,,,,,,,,,,,,,,,,,,,,,,,,,,,,,,,,,,,,,,,,,,,,,,,,,,,,,,,,,,,,,,,,,,,,,,,,,,,,,,,,,,,,,,,,,,,,,
004549,001,2022-11-20_23h57.02.351,Info_measure_main_exp,2022.2.2,Win32,165.0982334,,,,,,,,,,,,,,,,,,,,,,,,,,,,,,,,,,,,,,,,,,,,,,,,,,,,,,,,,,,,,,,,,,,,,,,,,,,,,,,,,,,,,,,,,,,,,,,,,,,,,,,,,,,,,,,
004549,001,2022-11-20_23h57.02.351,Info_measure_main_exp,2022.2.2,Win32,165.0982334,space,9.4963,,,,,,,,,,,,,,,,,,,,,,,,,,,,,,,,,,,,,,,,,,,,,,,,,,,,,,,,,,,,,,,,,,,,,,,,,,,,,,,,,,,,,,,,,,,,,,,,,,,,,,,,,,,,,
004549,001,2022-11-20_23h57.02.351,Info_measure_main_exp,2022.2.2,Win32,165.0982334,,,space,19.5535,,,,,,,,,,,,,,,,,,,,,,,,,,,,,,,,,,,,,,,,,,,,,,,,,,,,,,,,,,,,,,,,,,,,,,,,,,,,,,,,,,,,,,,,,,,,,,,,,,,,,,,,,,,
004549,001,2022-11-20_23h57.02.351,Info_measure_main_exp,2022.2.2,Win32,165.0982334,,,,,space,7.8747,,,,,,,,,,,,,,,,,,,,,,,,,,,,,,,,,,,,,,,,,,,,,,,,,,,,,,,,,,,,,,,,,,,,,,,,,,,,,,,,,,,,,,,,,,,,,,,,,,,,,,,,,
004549,001,2022-11-20_23h57.02.351,Info_measure_main_exp,2022.2.2,Win32,165.0982334,,,,,,,space,29.1847,,,,,,,,,,,,,,,,,,,,,,,,,,,,,,,,,,,,,,,,,,,,,,,,,,,,,,,,,,,,,,,,,,,,,,,,,,,,,,,,,,,,,,,,,,,,,,,,,,,,,,,
004549,001,2022-11-20_23h57.02.351,Info_measure_main_exp,2022.2.2,Win32,165.0982334,,,,,,,,,space,6.6987,,,,,,,,,,,,,,,,,,,,,,,,,,,,,,,,,,,,,,,,,,,,,,,,,,,,,,,,,,,,,,,,,,,,,,,,,,,,,,,,,,,,,,,,,,,,,,,,,,,,,
004549,001,2022-11-20_23h57.02.351,Info_measure_main_exp,2022.2.2,Win32,165.0982334,,,,,,,,,,,space,4.3695,,,,,,,,,,,,,,,,,,,,,,,,,,,,,,,,,,,,,,,,,,,,,,,,,,,,,,,,,,,,,,,,,,,,,,,,,,,,,,,,,,,,,,,,,,,,,,,,,,,
004549,001,2022-11-20_23h57.02.351,Info_measure_main_exp,2022.2.2,Win32,165.0982334,,,,,,,,,,,,,0,0,0,4,1,masks/mask_005.jpg,,,,,,,,,,,,,,,,,,,,,,,,,,,,,,,,,,,,,,,,,,,,,,,,,,,,,,,,,,,,,,,,,,,,,,,,,,,,,,,,,,,,,,,,,,,,,
004549,001,2022-11-20_23h57.02.351,Info_measure_main_exp,2022.2.2,Win32,165.0982334,,,,,,,,,,,,,0,1,1,0,1,masks/mask_001.jpg,,,,,,,,,,,,,,,,,,,,,,,,,,,,,,,,,,,,,,,,,,,,,,,,,,,,,,,,,,,,,,,,,,,,,,,,,,,,,,,,,,,,,,,,,,,,,
004549,001,2022-11-20_23h57.02.351,Info_measure_main_exp,2022.2.2,Win32,165.0982334,,,,,,,,,,,,,0,2,2,3,1,masks/mask_004.jpg,,,,,,,,,,,,,,,,,,,,,,,,,,,,,,,,,,,,,,,,,,,,,,,,,,,,,,,,,,,,,,,,,,,,,,,,,,,,,,,,,,,,,,,,,,,,,
004549,001,2022-11-20_23h57.02.351,Info_measure_main_exp,2022.2.2,Win32,165.0982334,,,,,,,,,,,,,0,3,3,2,1,masks/mask_003.jpg,,,,,,,,,,,,,,,,,,,,,,,,,,,,,,,,,,,,,,,,,,,,,,,,,,,,,,,,,,,,,,,,,,,,,,,,,,,,,,,,,,,,,,,,,,,,,
004549,001,2022-11-20_23h57.02.351,Info_measure_main_exp,2022.2.2,Win32,165.0982334,,,,,,,,,,,,,0,4,4,1,1,masks/mask_002.jpg,,,,,,,,,,,,,,,,,,,,,,,,,,,,,,,,,,,,,,,,,,,,,,,,,,,,,,,,,,,,,,,,,,,,,,,,,,,,,,,,,,,,,,,,,,,,,
004549,001,2022-11-20_23h57.02.351,Info_measure_main_exp,2022.2.2,Win32,165.0982334,,,,,,,,,,,,,,,,,,masks/mask_001.jpg,0,0,0,0,1,,,,,,,,,,,,,,,,,,,,,,,,,,,,,,,,,,,,,,,,,,,,,,,,,,,,,,,,,,,,,,,,,,,,,,,,,,,,,,,,,,,,,,,,
004549,001,2022-11-20_23h57.02.351,Info_measure_main_exp,2022.2.2,Win32,165.0982334,,,,,,,,,,,,,,,,,,masks/mask_004.jpg,0,1,1,3,1,,,,,,,,,,,,,,,,,,,,,,,,,,,,,,,,,,,,,,,,,,,,,,,,,,,,,,,,,,,,,,,,,,,,,,,,,,,,,,,,,,,,,,,,
004549,001,2022-11-20_23h57.02.351,Info_measure_main_exp,2022.2.2,Win32,165.0982334,,,,,,,,,,,,,,,,,,masks/mask_003.jpg,0,2,2,2,1,,,,,,,,,,,,,,,,,,,,,,,,,,,,,,,,,,,,,,,,,,,,,,,,,,,,,,,,,,,,,,,,,,,,,,,,,,,,,,,,,,,,,,,,
004549,001,2022-11-20_23h57.02.351,Info_measure_main_exp,2022.2.2,Win32,165.0982334,,,,,,,,,,,,,,,,,,masks/mask_002.jpg,0,3,3,1,1,,,,,,,,,,,,,,,,,,,,,,,,,,,,,,,,,,,,,,,,,,,,,,,,,,,,,,,,,,,,,,,,,,,,,,,,,,,,,,,,,,,,,,,,
004549,001,2022-11-20_23h57.02.351,Info_measure_main_exp,2022.2.2,Win32,165.0982334,,,,,,,,,,,,,,,,,,masks/mask_005.jpg,0,4,4,4,1,,,,,,,,,,,,,,,,,,,,,,,,,,,,,,,,,,,,,,,,,,,,,,,,,,,,,,,,,,,,,,,,,,,,,,,,,,,,,,,,,,,,,,,,
004549,001,2022-11-20_23h57.02.351,Info_measure_main_exp,2022.2.2,Win32,165.0982334,,,,,,,,,,,,,,,,,,,,,,,,0.075925968,0.16574072,1,0,0,response1disk,7,80.8985,1,0.010185171,0.00462963,1,0,0,center_square,0,0,0,0,1,0,131,5,5,2370,2406,prac_patch/patch0002370.jpg,prac_patch/patch0002406.jpg,,,,,,,,,,,,,,,,,,,,,,,,,,,,,,,,,,,,,,,,,,,,,,,,,,,,,,,,,,,,
004549,001,2022-11-20_23h57.02.351,Info_measure_main_exp,2022.2.2,Win32,165.0982334,,,,,,,,,,,,,0,0,0,2,1,masks/mask_003.jpg,,,,,,,,,,,,,,,,,,,,,,,,,,,,,,,,,,,,,,,,,,,,,,,,,,,,,,,,,,,,,,,,,,,,,,,,,,,,,,,,,,,,,,,,,,,,,
004549,001,2022-11-20_23h57.02.351,Info_measure_main_exp,2022.2.2,Win32,165.0982334,,,,,,,,,,,,,0,1,1,4,1,masks/mask_005.jpg,,,,,,,,,,,,,,,,,,,,,,,,,,,,,,,,,,,,,,,,,,,,,,,,,,,,,,,,,,,,,,,,,,,,,,,,,,,,,,,,,,,,,,,,,,,,,
004549,001,2022-11-20_23h57.02.351,Info_measure_main_exp,2022.2.2,Win32,165.0982334,,,,,,,,,,,,,0,2,2,1,1,masks/mask_002.jpg,,,,,,,,,,,,,,,,,,,,,,,,,,,,,,,,,,,,,,,,,,,,,,,,,,,,,,,,,,,,,,,,,,,,,,,,,,,,,,,,,,,,,,,,,,,,,
004549,001,2022-11-20_23h57.02.351,Info_measure_main_exp,2022.2.2,Win32,165.0982334,,,,,,,,,,,,,0,3,3,3,1,masks/mask_004.jpg,,,,,,,,,,,,,,,,,,,,,,,,,,,,,,,,,,,,,,,,,,,,,,,,,,,,,,,,,,,,,,,,,,,,,,,,,,,,,,,,,,,,,,,,,,,,,
004549,001,2022-11-20_23h57.02.351,Info_measure_main_exp,2022.2.2,Win32,165.0982334,,,,,,,,,,,,,0,4,4,0,1,masks/mask_001.jpg,,,,,,,,,,,,,,,,,,,,,,,,,,,,,,,,,,,,,,,,,,,,,,,,,,,,,,,,,,,,,,,,,,,,,,,,,,,,,,,,,,,,,,,,,,,,,
004549,001,2022-11-20_23h57.02.351,Info_measure_main_exp,2022.2.2,Win32,165.0982334,,,,,,,,,,,,,,,,,,masks/mask_002.jpg,0,0,0,1,1,,,,,,,,,,,,,,,,,,,,,,,,,,,,,,,,,,,,,,,,,,,,,,,,,,,,,,,,,,,,,,,,,,,,,,,,,,,,,,,,,,,,,,,,
004549,001,2022-11-20_23h57.02.351,Info_measure_main_exp,2022.2.2,Win32,165.0982334,,,,,,,,,,,,,,,,,,masks/mask_004.jpg,0,1,1,3,1,,,,,,,,,,,,,,,,,,,,,,,,,,,,,,,,,,,,,,,,,,,,,,,,,,,,,,,,,,,,,,,,,,,,,,,,,,,,,,,,,,,,,,,,
004549,001,2022-11-20_23h57.02.351,Info_measure_main_exp,2022.2.2,Win32,165.0982334,,,,,,,,,,,,,,,,,,masks/mask_001.jpg,0,2,2,0,1,,,,,,,,,,,,,,,,,,,,,,,,,,,,,,,,,,,,,,,,,,,,,,,,,,,,,,,,,,,,,,,,,,,,,,,,,,,,,,,,,,,,,,,,
004549,001,2022-11-20_23h57.02.351,Info_measure_main_exp,2022.2.2,Win32,165.0982334,,,,,,,,,,,,,,,,,,masks/mask_003.jpg,0,3,3,2,1,,,,,,,,,,,,,,,,,,,,,,,,,,,,,,,,,,,,,,,,,,,,,,,,,,,,,,,,,,,,,,,,,,,,,,,,,,,,,,,,,,,,,,,,
004549,001,2022-11-20_23h57.02.351,Info_measure_main_exp,2022.2.2,Win32,165.0982334,,,,,,,,,,,,,,,,,,masks/mask_005.jpg,0,4,4,4,1,,,,,,,,,,,,,,,,,,,,,,,,,,,,,,,,,,,,,,,,,,,,,,,,,,,,,,,,,,,,,,,,,,,,,,,,,,,,,,,,,,,,,,,,
004549,001,2022-11-20_23h57.02.351,Info_measure_main_exp,2022.2.2,Win32,165.0982334,,,,,,,,,,,,,,,,,,,,,,,,-0.084259245,-0.108333376,1,0,0,response5disk,3,96.6125,1,0.007407436,0.01203703,1,0,0,center_square,0,1,1,1,1,0,131,5,5,2514,2490,prac_patch/patch0002514.jpg,prac_patch/patch0002490.jpg,,,,,,,,,,,,,,,,,,,,,,,,,,,,,,,,,,,,,,,,,,,,,,,,,,,,,,,,,,,,
004549,001,2022-11-20_23h57.02.351,Info_measure_main_exp,2022.2.2,Win32,165.0982334,,,,,,,,,,,,,0,0,0,3,1,masks/mask_004.jpg,,,,,,,,,,,,,,,,,,,,,,,,,,,,,,,,,,,,,,,,,,,,,,,,,,,,,,,,,,,,,,,,,,,,,,,,,,,,,,,,,,,,,,,,,,,,,
004549,001,2022-11-20_23h57.02.351,Info_measure_main_exp,2022.2.2,Win32,165.0982334,,,,,,,,,,,,,0,1,1,1,1,masks/mask_002.jpg,,,,,,,,,,,,,,,,,,,,,,,,,,,,,,,,,,,,,,,,,,,,,,,,,,,,,,,,,,,,,,,,,,,,,,,,,,,,,,,,,,,,,,,,,,,,,
004549,001,2022-11-20_23h57.02.351,Info_measure_main_exp,2022.2.2,Win32,165.0982334,,,,,,,,,,,,,0,2,2,4,1,masks/mask_005.jpg,,,,,,,,,,,,,,,,,,,,,,,,,,,,,,,,,,,,,,,,,,,,,,,,,,,,,,,,,,,,,,,,,,,,,,,,,,,,,,,,,,,,,,,,,,,,,
004549,001,2022-11-20_23h57.02.351,Info_measure_main_exp,2022.2.2,Win32,165.0982334,,,,,,,,,,,,,0,3,3,0,1,masks/mask_001.jpg,,,,,,,,,,,,,,,,,,,,,,,,,,,,,,,,,,,,,,,,,,,,,,,,,,,,,,,,,,,,,,,,,,,,,,,,,,,,,,,,,,,,,,,,,,,,,
004549,001,2022-11-20_23h57.02.351,Info_measure_main_exp,2022.2.2,Win32,165.0982334,,,,,,,,,,,,,0,4,4,2,1,masks/mask_003.jpg,,,,,,,,,,,,,,,,,,,,,,,,,,,,,,,,,,,,,,,,,,,,,,,,,,,,,,,,,,,,,,,,,,,,,,,,,,,,,,,,,,,,,,,,,,,,,
004549,001,2022-11-20_23h57.02.351,Info_measure_main_exp,2022.2.2,Win32,165.0982334,,,,,,,,,,,,,,,,,,masks/mask_004.jpg,0,0,0,3,1,,,,,,,,,,,,,,,,,,,,,,,,,,,,,,,,,,,,,,,,,,,,,,,,,,,,,,,,,,,,,,,,,,,,,,,,,,,,,,,,,,,,,,,,
004549,001,2022-11-20_23h57.02.351,Info_measure_main_exp,2022.2.2,Win32,165.0982334,,,,,,,,,,,,,,,,,,masks/mask_002.jpg,0,1,1,1,1,,,,,,,,,,,,,,,,,,,,,,,,,,,,,,,,,,,,,,,,,,,,,,,,,,,,,,,,,,,,,,,,,,,,,,,,,,,,,,,,,,,,,,,,
004549,001,2022-11-20_23h57.02.351,Info_measure_main_exp,2022.2.2,Win32,165.0982334,,,,,,,,,,,,,,,,,,masks/mask_005.jpg,0,2,2,4,1,,,,,,,,,,,,,,,,,,,,,,,,,,,,,,,,,,,,,,,,,,,,,,,,,,,,,,,,,,,,,,,,,,,,,,,,,,,,,,,,,,,,,,,,
004549,001,2022-11-20_23h57.02.351,Info_measure_main_exp,2022.2.2,Win32,165.0982334,,,,,,,,,,,,,,,,,,masks/mask_001.jpg,0,3,3,0,1,,,,,,,,,,,,,,,,,,,,,,,,,,,,,,,,,,,,,,,,,,,,,,,,,,,,,,,,,,,,,,,,,,,,,,,,,,,,,,,,,,,,,,,,
004549,001,2022-11-20_23h57.02.351,Info_measure_main_exp,2022.2.2,Win32,165.0982334,,,,,,,,,,,,,,,,,,masks/mask_003.jpg,0,4,4,2,1,,,,,,,,,,,,,,,,,,,,,,,,,,,,,,,,,,,,,,,,,,,,,,,,,,,,,,,,,,,,,,,,,,,,,,,,,,,,,,,,,,,,,,,,
004549,001,2022-11-20_23h57.02.351,Info_measure_main_exp,2022.2.2,Win32,165.0982334,,,,,,,,,,,,,,,,,,,,,,,,-0.109259217,0.041666667,1,0,0,response7disk,1,105.8548,1,0,0,1,0,0,center_square,0,2,2,2,1,0,131,5,5,2526,2526,prac_patch/patch0002526.jpg,prac_patch/patch0002526.jpg,,,,,,,,,,,,,,,,,,,,,,,,,,,,,,,,,,,,,,,,,,,,,,,,,,,,,,,,,,,,
004549,001,2022-11-20_23h57.02.351,Info_measure_main_exp,2022.2.2,Win32,165.0982334,,,,,,,,,,,,,,,,,,,,,,,,,,,,,,,,,,,,,,,,,,,,,,,,,,,,,,,,,,,space,4.4235,,,,,,,,,,,,,,,,,,,,,,,,,,,,,,,,,,,,,,,,,,,,,,,,,,,
004549,001,2022-11-20_23h57.02.351,Info_measure_main_exp,2022.2.2,Win32,165.0982334,,,,,,,,,,,,,,,,,,masks/mask_004.jpg,,,,,,,,,,,,,,,,,,,,,,,,,,,,,,,,,,,,,,,,,,,0,0,0,3,1,,,,,,,,,,,,,,,,,,,,,,,,,,,,,,,,,,,,,,,,,,,,,,
004549,001,2022-11-20_23h57.02.351,Info_measure_main_exp,2022.2.2,Win32,165.0982334,,,,,,,,,,,,,,,,,,masks/mask_002.jpg,,,,,,,,,,,,,,,,,,,,,,,,,,,,,,,,,,,,,,,,,,,0,1,1,1,1,,,,,,,,,,,,,,,,,,,,,,,,,,,,,,,,,,,,,,,,,,,,,,
004549,001,2022-11-20_23h57.02.351,Info_measure_main_exp,2022.2.2,Win32,165.0982334,,,,,,,,,,,,,,,,,,masks/mask_005.jpg,,,,,,,,,,,,,,,,,,,,,,,,,,,,,,,,,,,,,,,,,,,0,2,2,4,1,,,,,,,,,,,,,,,,,,,,,,,,,,,,,,,,,,,,,,,,,,,,,,
004549,001,2022-11-20_23h57.02.351,Info_measure_main_exp,2022.2.2,Win32,165.0982334,,,,,,,,,,,,,,,,,,masks/mask_001.jpg,,,,,,,,,,,,,,,,,,,,,,,,,,,,,,,,,,,,,,,,,,,0,3,3,0,1,,,,,,,,,,,,,,,,,,,,,,,,,,,,,,,,,,,,,,,,,,,,,,
004549,001,2022-11-20_23h57.02.351,Info_measure_main_exp,2022.2.2,Win32,165.0982334,,,,,,,,,,,,,,,,,,masks/mask_003.jpg,,,,,,,,,,,,,,,,,,,,,,,,,,,,,,,,,,,,,,,,,,,0,4,4,2,1,,,,,,,,,,,,,,,,,,,,,,,,,,,,,,,,,,,,,,,,,,,,,,
004549,001,2022-11-20_23h57.02.351,Info_measure_main_exp,2022.2.2,Win32,165.0982334,,,,,,,,,,,,,,,,,,masks/mask_005.jpg,,,,,,,,,,,,,,,,,,,,,,,,,,,,,,,,,,,,,,,,,,,,,,,,0,0,0,4,1,,,,,,,,,,,,,,,,,,,,,,,,,,,,,,,,,,,,,,,,,
004549,001,2022-11-20_23h57.02.351,Info_measure_main_exp,2022.2.2,Win32,165.0982334,,,,,,,,,,,,,,,,,,masks/mask_004.jpg,,,,,,,,,,,,,,,,,,,,,,,,,,,,,,,,,,,,,,,,,,,,,,,,0,1,1,3,1,,,,,,,,,,,,,,,,,,,,,,,,,,,,,,,,,,,,,,,,,
004549,001,2022-11-20_23h57.02.351,Info_measure_main_exp,2022.2.2,Win32,165.0982334,,,,,,,,,,,,,,,,,,masks/mask_001.jpg,,,,,,,,,,,,,,,,,,,,,,,,,,,,,,,,,,,,,,,,,,,,,,,,0,2,2,0,1,,,,,,,,,,,,,,,,,,,,,,,,,,,,,,,,,,,,,,,,,
004549,001,2022-11-20_23h57.02.351,Info_measure_main_exp,2022.2.2,Win32,165.0982334,,,,,,,,,,,,,,,,,,masks/mask_002.jpg,,,,,,,,,,,,,,,,,,,,,,,,,,,,,,,,,,,,,,,,,,,,,,,,0,3,3,1,1,,,,,,,,,,,,,,,,,,,,,,,,,,,,,,,,,,,,,,,,,
004549,001,2022-11-20_23h57.02.351,Info_measure_main_exp,2022.2.2,Win32,165.0982334,,,,,,,,,,,,,,,,,,masks/mask_003.jpg,,,,,,,,,,,,,,,,,,,,,,,,,,,,,,,,,,,,,,,,,,,,,,,,0,4,4,2,1,,,,,,,,,,,,,,,,,,,,,,,,,,,,,,,,,,,,,,,,,
004549,001,2022-11-20_23h57.02.351,Info_measure_main_exp,2022.2.2,Win32,165.0982334,,,,,,,,,,,,,,,,,,,,,,,,,,,,,,7,1.2544,1,,,,,,,,,,,,0,131,5,5,2154,1950,absent_patch/patch0002154.jpg,absent_patch/patch0001950.jpg,,,,,,,,,,,,,,,,,,,,0.069444444,0.123148141,1,0,0,response1disk,1,0.008333347,-0.002777771,1,0,0,center_square,0,0,0,96,1,,,,,,,,,,,,,,,,,,,,,,,
004549,001,2022-11-20_23h57.02.351,Info_measure_main_exp,2022.2.2,Win32,165.0982334,,,,,,,,,,,,,,,,,,masks/mask_005.jpg,,,,,,,,,,,,,,,,,,,,,,,,,,,,,,,,,,,,,,,,,,,0,0,0,4,1,,,,,,,,,,,,,,,,,,,,,,,,,,,,,,,,,,,,,,,,,,,,,,
004549,001,2022-11-20_23h57.02.351,Info_measure_main_exp,2022.2.2,Win32,165.0982334,,,,,,,,,,,,,,,,,,masks/mask_001.jpg,,,,,,,,,,,,,,,,,,,,,,,,,,,,,,,,,,,,,,,,,,,0,1,1,0,1,,,,,,,,,,,,,,,,,,,,,,,,,,,,,,,,,,,,,,,,,,,,,,
004549,001,2022-11-20_23h57.02.351,Info_measure_main_exp,2022.2.2,Win32,165.0982334,,,,,,,,,,,,,,,,,,masks/mask_002.jpg,,,,,,,,,,,,,,,,,,,,,,,,,,,,,,,,,,,,,,,,,,,0,2,2,1,1,,,,,,,,,,,,,,,,,,,,,,,,,,,,,,,,,,,,,,,,,,,,,,
004549,001,2022-11-20_23h57.02.351,Info_measure_main_exp,2022.2.2,Win32,165.0982334,,,,,,,,,,,,,,,,,,masks/mask_003.jpg,,,,,,,,,,,,,,,,,,,,,,,,,,,,,,,,,,,,,,,,,,,0,3,3,2,1,,,,,,,,,,,,,,,,,,,,,,,,,,,,,,,,,,,,,,,,,,,,,,
004549,001,2022-11-20_23h57.02.351,Info_measure_main_exp,2022.2.2,Win32,165.0982334,,,,,,,,,,,,,,,,,,masks/mask_004.jpg,,,,,,,,,,,,,,,,,,,,,,,,,,,,,,,,,,,,,,,,,,,0,4,4,3,1,,,,,,,,,,,,,,,,,,,,,,,,,,,,,,,,,,,,,,,,,,,,,,
004549,001,2022-11-20_23h57.02.351,Info_measure_main_exp,2022.2.2,Win32,165.0982334,,,,,,,,,,,,,,,,,,masks/mask_003.jpg,,,,,,,,,,,,,,,,,,,,,,,,,,,,,,,,,,,,,,,,,,,,,,,,0,0,0,2,1,,,,,,,,,,,,,,,,,,,,,,,,,,,,,,,,,,,,,,,,,
004549,001,2022-11-20_23h57.02.351,Info_measure_main_exp,2022.2.2,Win32,165.0982334,,,,,,,,,,,,,,,,,,masks/mask_005.jpg,,,,,,,,,,,,,,,,,,,,,,,,,,,,,,,,,,,,,,,,,,,,,,,,0,1,1,4,1,,,,,,,,,,,,,,,,,,,,,,,,,,,,,,,,,,,,,,,,,
004549,001,2022-11-20_23h57.02.351,Info_measure_main_exp,2022.2.2,Win32,165.0982334,,,,,,,,,,,,,,,,,,masks/mask_004.jpg,,,,,,,,,,,,,,,,,,,,,,,,,,,,,,,,,,,,,,,,,,,,,,,,0,2,2,3,1,,,,,,,,,,,,,,,,,,,,,,,,,,,,,,,,,,,,,,,,,
004549,001,2022-11-20_23h57.02.351,Info_measure_main_exp,2022.2.2,Win32,165.0982334,,,,,,,,,,,,,,,,,,masks/mask_002.jpg,,,,,,,,,,,,,,,,,,,,,,,,,,,,,,,,,,,,,,,,,,,,,,,,0,3,3,1,1,,,,,,,,,,,,,,,,,,,,,,,,,,,,,,,,,,,,,,,,,
004549,001,2022-11-20_23h57.02.351,Info_measure_main_exp,2022.2.2,Win32,165.0982334,,,,,,,,,,,,,,,,,,masks/mask_001.jpg,,,,,,,,,,,,,,,,,,,,,,,,,,,,,,,,,,,,,,,,,,,,,,,,0,4,4,0,1,,,,,,,,,,,,,,,,,,,,,,,,,,,,,,,,,,,,,,,,,
004549,001,2022-11-20_23h57.02.351,Info_measure_main_exp,2022.2.2,Win32,165.0982334,,,,,,,,,,,,,,,,,,,,,,,,,,,,,,7,0.8001,1,,,,,,,,,,,,0,131,5,5,2082,1986,absent_patch/patch0002082.jpg,absent_patch/patch0001986.jpg,,,,,,,,,,,,,,,,,,,,0.036111125,0.113888882,1,0,0,response1disk,2,0.011111153,-0.001851859,1,0,0,center_square,0,1,1,94,1,,,,,,,,,,,,,,,,,,,,,,,
004549,001,2022-11-20_23h57.02.351,Info_measure_main_exp,2022.2.2,Win32,165.0982334,,,,,,,,,,,,,,,,,,masks/mask_005.jpg,,,,,,,,,,,,,,,,,,,,,,,,,,,,,,,,,,,,,,,,,,,0,0,0,4,1,,,,,,,,,,,,,,,,,,,,,,,,,,,,,,,,,,,,,,,,,,,,,,
004549,001,2022-11-20_23h57.02.351,Info_measure_main_exp,2022.2.2,Win32,165.0982334,,,,,,,,,,,,,,,,,,masks/mask_002.jpg,,,,,,,,,,,,,,,,,,,,,,,,,,,,,,,,,,,,,,,,,,,0,1,1,1,1,,,,,,,,,,,,,,,,,,,,,,,,,,,,,,,,,,,,,,,,,,,,,,
004549,001,2022-11-20_23h57.02.351,Info_measure_main_exp,2022.2.2,Win32,165.0982334,,,,,,,,,,,,,,,,,,masks/mask_001.jpg,,,,,,,,,,,,,,,,,,,,,,,,,,,,,,,,,,,,,,,,,,,0,2,2,0,1,,,,,,,,,,,,,,,,,,,,,,,,,,,,,,,,,,,,,,,,,,,,,,
004549,001,2022-11-20_23h57.02.351,Info_measure_main_exp,2022.2.2,Win32,165.0982334,,,,,,,,,,,,,,,,,,masks/mask_003.jpg,,,,,,,,,,,,,,,,,,,,,,,,,,,,,,,,,,,,,,,,,,,0,3,3,2,1,,,,,,,,,,,,,,,,,,,,,,,,,,,,,,,,,,,,,,,,,,,,,,
004549,001,2022-11-20_23h57.02.351,Info_measure_main_exp,2022.2.2,Win32,165.0982334,,,,,,,,,,,,,,,,,,masks/mask_004.jpg,,,,,,,,,,,,,,,,,,,,,,,,,,,,,,,,,,,,,,,,,,,0,4,4,3,1,,,,,,,,,,,,,,,,,,,,,,,,,,,,,,,,,,,,,,,,,,,,,,
004549,001,2022-11-20_23h57.02.351,Info_measure_main_exp,2022.2.2,Win32,165.0982334,,,,,,,,,,,,,,,,,,masks/mask_005.jpg,,,,,,,,,,,,,,,,,,,,,,,,,,,,,,,,,,,,,,,,,,,,,,,,0,0,0,4,1,,,,,,,,,,,,,,,,,,,,,,,,,,,,,,,,,,,,,,,,,
004549,001,2022-11-20_23h57.02.351,Info_measure_main_exp,2022.2.2,Win32,165.0982334,,,,,,,,,,,,,,,,,,masks/mask_001.jpg,,,,,,,,,,,,,,,,,,,,,,,,,,,,,,,,,,,,,,,,,,,,,,,,0,1,1,0,1,,,,,,,,,,,,,,,,,,,,,,,,,,,,,,,,,,,,,,,,,
004549,001,2022-11-20_23h57.02.351,Info_measure_main_exp,2022.2.2,Win32,165.0982334,,,,,,,,,,,,,,,,,,masks/mask_002.jpg,,,,,,,,,,,,,,,,,,,,,,,,,,,,,,,,,,,,,,,,,,,,,,,,0,2,2,1,1,,,,,,,,,,,,,,,,,,,,,,,,,,,,,,,,,,,,,,,,,
004549,001,2022-11-20_23h57.02.351,Info_measure_main_exp,2022.2.2,Win32,165.0982334,,,,,,,,,,,,,,,,,,masks/mask_003.jpg,,,,,,,,,,,,,,,,,,,,,,,,,,,,,,,,,,,,,,,,,,,,,,,,0,3,3,2,1,,,,,,,,,,,,,,,,,,,,,,,,,,,,,,,,,,,,,,,,,
004549,001,2022-11-20_23h57.02.351,Info_measure_main_exp,2022.2.2,Win32,165.0982334,,,,,,,,,,,,,,,,,,masks/mask_004.jpg,,,,,,,,,,,,,,,,,,,,,,,,,,,,,,,,,,,,,,,,,,,,,,,,0,4,4,3,1,,,,,,,,,,,,,,,,,,,,,,,,,,,,,,,,,,,,,,,,,
004549,001,2022-11-20_23h57.02.351,Info_measure_main_exp,2022.2.2,Win32,165.0982334,,,,,,,,,,,,,,,,,,,,,,,,,,,,,,7,1.0666,1,,,,,,,,,,,,0,131,5,5,1986,1974,absent_patch/patch0001986.jpg,absent_patch/patch0001974.jpg,,,,,,,,,,,,,,,,,,,,0.027777778,0.091666645,1,0,0,response1disk,3,0.002777806,0.005555541,1,0,0,center_square,0,2,2,25,1,,,,,,,,,,,,,,,,,,,,,,,
004549,001,2022-11-20_23h57.02.351,Info_measure_main_exp,2022.2.2,Win32,165.0982334,,,,,,,,,,,,,,,,,,masks/mask_001.jpg,,,,,,,,,,,,,,,,,,,,,,,,,,,,,,,,,,,,,,,,,,,0,0,0,0,1,,,,,,,,,,,,,,,,,,,,,,,,,,,,,,,,,,,,,,,,,,,,,,
004549,001,2022-11-20_23h57.02.351,Info_measure_main_exp,2022.2.2,Win32,165.0982334,,,,,,,,,,,,,,,,,,masks/mask_005.jpg,,,,,,,,,,,,,,,,,,,,,,,,,,,,,,,,,,,,,,,,,,,0,1,1,4,1,,,,,,,,,,,,,,,,,,,,,,,,,,,,,,,,,,,,,,,,,,,,,,
004549,001,2022-11-20_23h57.02.351,Info_measure_main_exp,2022.2.2,Win32,165.0982334,,,,,,,,,,,,,,,,,,masks/mask_004.jpg,,,,,,,,,,,,,,,,,,,,,,,,,,,,,,,,,,,,,,,,,,,0,2,2,3,1,,,,,,,,,,,,,,,,,,,,,,,,,,,,,,,,,,,,,,,,,,,,,,
004549,001,2022-11-20_23h57.02.351,Info_measure_main_exp,2022.2.2,Win32,165.0982334,,,,,,,,,,,,,,,,,,masks/mask_003.jpg,,,,,,,,,,,,,,,,,,,,,,,,,,,,,,,,,,,,,,,,,,,0,3,3,2,1,,,,,,,,,,,,,,,,,,,,,,,,,,,,,,,,,,,,,,,,,,,,,,
004549,001,2022-11-20_23h57.02.351,Info_measure_main_exp,2022.2.2,Win32,165.0982334,,,,,,,,,,,,,,,,,,masks/mask_002.jpg,,,,,,,,,,,,,,,,,,,,,,,,,,,,,,,,,,,,,,,,,,,0,4,4,1,1,,,,,,,,,,,,,,,,,,,,,,,,,,,,,,,,,,,,,,,,,,,,,,
004549,001,2022-11-20_23h57.02.351,Info_measure_main_exp,2022.2.2,Win32,165.0982334,,,,,,,,,,,,,,,,,,masks/mask_002.jpg,,,,,,,,,,,,,,,,,,,,,,,,,,,,,,,,,,,,,,,,,,,,,,,,0,0,0,1,1,,,,,,,,,,,,,,,,,,,,,,,,,,,,,,,,,,,,,,,,,
004549,001,2022-11-20_23h57.02.351,Info_measure_main_exp,2022.2.2,Win32,165.0982334,,,,,,,,,,,,,,,,,,masks/mask_005.jpg,,,,,,,,,,,,,,,,,,,,,,,,,,,,,,,,,,,,,,,,,,,,,,,,0,1,1,4,1,,,,,,,,,,,,,,,,,,,,,,,,,,,,,,,,,,,,,,,,,
004549,001,2022-11-20_23h57.02.351,Info_measure_main_exp,2022.2.2,Win32,165.0982334,,,,,,,,,,,,,,,,,,masks/mask_004.jpg,,,,,,,,,,,,,,,,,,,,,,,,,,,,,,,,,,,,,,,,,,,,,,,,0,2,2,3,1,,,,,,,,,,,,,,,,,,,,,,,,,,,,,,,,,,,,,,,,,
004549,001,2022-11-20_23h57.02.351,Info_measure_main_exp,2022.2.2,Win32,165.0982334,,,,,,,,,,,,,,,,,,masks/mask_001.jpg,,,,,,,,,,,,,,,,,,,,,,,,,,,,,,,,,,,,,,,,,,,,,,,,0,3,3,0,1,,,,,,,,,,,,,,,,,,,,,,,,,,,,,,,,,,,,,,,,,
004549,001,2022-11-20_23h57.02.351,Info_measure_main_exp,2022.2.2,Win32,165.0982334,,,,,,,,,,,,,,,,,,masks/mask_003.jpg,,,,,,,,,,,,,,,,,,,,,,,,,,,,,,,,,,,,,,,,,,,,,,,,0,4,4,2,1,,,,,,,,,,,,,,,,,,,,,,,,,,,,,,,,,,,,,,,,,
004549,001,2022-11-20_23h57.02.351,Info_measure_main_exp,2022.2.2,Win32,165.0982334,,,,,,,,,,,,,,,,,,,,,,,,,,,,,,7,2.6547,1,,,,,,,,,,,,1,131,5,5,1,2274,present_patch/cong_131_5_a.jpg,absent_patch/patch0002274.jpg,,,,,,,,,,,,,,,,,,,,0.02870369,0.113888882,1,0,0,response1disk,4,0.001851894,0.011111118,1,0,0,center_square,0,3,3,105,1,,,,,,,,,,,,,,,,,,,,,,,
004549,001,2022-11-20_23h57.02.351,Info_measure_main_exp,2022.2.2,Win32,165.0982334,,,,,,,,,,,,,,,,,,masks/mask_004.jpg,,,,,,,,,,,,,,,,,,,,,,,,,,,,,,,,,,,,,,,,,,,0,0,0,3,1,,,,,,,,,,,,,,,,,,,,,,,,,,,,,,,,,,,,,,,,,,,,,,
004549,001,2022-11-20_23h57.02.351,Info_measure_main_exp,2022.2.2,Win32,165.0982334,,,,,,,,,,,,,,,,,,masks/mask_005.jpg,,,,,,,,,,,,,,,,,,,,,,,,,,,,,,,,,,,,,,,,,,,0,1,1,4,1,,,,,,,,,,,,,,,,,,,,,,,,,,,,,,,,,,,,,,,,,,,,,,
004549,001,2022-11-20_23h57.02.351,Info_measure_main_exp,2022.2.2,Win32,165.0982334,,,,,,,,,,,,,,,,,,masks/mask_001.jpg,,,,,,,,,,,,,,,,,,,,,,,,,,,,,,,,,,,,,,,,,,,0,2,2,0,1,,,,,,,,,,,,,,,,,,,,,,,,,,,,,,,,,,,,,,,,,,,,,,
004549,001,2022-11-20_23h57.02.351,Info_measure_main_exp,2022.2.2,Win32,165.0982334,,,,,,,,,,,,,,,,,,masks/mask_002.jpg,,,,,,,,,,,,,,,,,,,,,,,,,,,,,,,,,,,,,,,,,,,0,3,3,1,1,,,,,,,,,,,,,,,,,,,,,,,,,,,,,,,,,,,,,,,,,,,,,,
004549,001,2022-11-20_23h57.02.351,Info_measure_main_exp,2022.2.2,Win32,165.0982334,,,,,,,,,,,,,,,,,,masks/mask_003.jpg,,,,,,,,,,,,,,,,,,,,,,,,,,,,,,,,,,,,,,,,,,,0,4,4,2,1,,,,,,,,,,,,,,,,,,,,,,,,,,,,,,,,,,,,,,,,,,,,,,
004549,001,2022-11-20_23h57.02.351,Info_measure_main_exp,2022.2.2,Win32,165.0982334,,,,,,,,,,,,,,,,,,masks/mask_001.jpg,,,,,,,,,,,,,,,,,,,,,,,,,,,,,,,,,,,,,,,,,,,,,,,,0,0,0,0,1,,,,,,,,,,,,,,,,,,,,,,,,,,,,,,,,,,,,,,,,,
004549,001,2022-11-20_23h57.02.351,Info_measure_main_exp,2022.2.2,Win32,165.0982334,,,,,,,,,,,,,,,,,,masks/mask_005.jpg,,,,,,,,,,,,,,,,,,,,,,,,,,,,,,,,,,,,,,,,,,,,,,,,0,1,1,4,1,,,,,,,,,,,,,,,,,,,,,,,,,,,,,,,,,,,,,,,,,
004549,001,2022-11-20_23h57.02.351,Info_measure_main_exp,2022.2.2,Win32,165.0982334,,,,,,,,,,,,,,,,,,masks/mask_004.jpg,,,,,,,,,,,,,,,,,,,,,,,,,,,,,,,,,,,,,,,,,,,,,,,,0,2,2,3,1,,,,,,,,,,,,,,,,,,,,,,,,,,,,,,,,,,,,,,,,,
004549,001,2022-11-20_23h57.02.351,Info_measure_main_exp,2022.2.2,Win32,165.0982334,,,,,,,,,,,,,,,,,,masks/mask_002.jpg,,,,,,,,,,,,,,,,,,,,,,,,,,,,,,,,,,,,,,,,,,,,,,,,0,3,3,1,1,,,,,,,,,,,,,,,,,,,,,,,,,,,,,,,,,,,,,,,,,
004549,001,2022-11-20_23h57.02.351,Info_measure_main_exp,2022.2.2,Win32,165.0982334,,,,,,,,,,,,,,,,,,masks/mask_003.jpg,,,,,,,,,,,,,,,,,,,,,,,,,,,,,,,,,,,,,,,,,,,,,,,,0,4,4,2,1,,,,,,,,,,,,,,,,,,,,,,,,,,,,,,,,,,,,,,,,,
004549,001,2022-11-20_23h57.02.351,Info_measure_main_exp,2022.2.2,Win32,165.0982334,,,,,,,,,,,,,,,,,,,,,,,,,,,,,,6,1.9819,1,,,,,,,,,,,,0,131,5,5,2154,2214,absent_patch/patch0002154.jpg,absent_patch/patch0002214.jpg,,,,,,,,,,,,,,,,,,,,0.073148162,0.012962942,1,0,0,response1disk,5,-0.003703718,0.00462963,1,0,0,center_square,0,4,4,67,1,,,,,,,,,,,,,,,,,,,,,,,
004549,001,2022-11-20_23h57.02.351,Info_measure_main_exp,2022.2.2,Win32,165.0982334,,,,,,,,,,,,,,,,,,masks/mask_005.jpg,,,,,,,,,,,,,,,,,,,,,,,,,,,,,,,,,,,,,,,,,,,0,0,0,4,1,,,,,,,,,,,,,,,,,,,,,,,,,,,,,,,,,,,,,,,,,,,,,,
004549,001,2022-11-20_23h57.02.351,Info_measure_main_exp,2022.2.2,Win32,165.0982334,,,,,,,,,,,,,,,,,,masks/mask_002.jpg,,,,,,,,,,,,,,,,,,,,,,,,,,,,,,,,,,,,,,,,,,,0,1,1,1,1,,,,,,,,,,,,,,,,,,,,,,,,,,,,,,,,,,,,,,,,,,,,,,
004549,001,2022-11-20_23h57.02.351,Info_measure_main_exp,2022.2.2,Win32,165.0982334,,,,,,,,,,,,,,,,,,masks/mask_003.jpg,,,,,,,,,,,,,,,,,,,,,,,,,,,,,,,,,,,,,,,,,,,0,2,2,2,1,,,,,,,,,,,,,,,,,,,,,,,,,,,,,,,,,,,,,,,,,,,,,,
004549,001,2022-11-20_23h57.02.351,Info_measure_main_exp,2022.2.2,Win32,165.0982334,,,,,,,,,,,,,,,,,,masks/mask_001.jpg,,,,,,,,,,,,,,,,,,,,,,,,,,,,,,,,,,,,,,,,,,,0,3,3,0,1,,,,,,,,,,,,,,,,,,,,,,,,,,,,,,,,,,,,,,,,,,,,,,
004549,001,2022-11-20_23h57.02.351,Info_measure_main_exp,2022.2.2,Win32,165.0982334,,,,,,,,,,,,,,,,,,masks/mask_004.jpg,,,,,,,,,,,,,,,,,,,,,,,,,,,,,,,,,,,,,,,,,,,0,4,4,3,1,,,,,,,,,,,,,,,,,,,,,,,,,,,,,,,,,,,,,,,,,,,,,,
004549,001,2022-11-20_23h57.02.351,Info_measure_main_exp,2022.2.2,Win32,165.0982334,,,,,,,,,,,,,,,,,,masks/mask_001.jpg,,,,,,,,,,,,,,,,,,,,,,,,,,,,,,,,,,,,,,,,,,,,,,,,0,0,0,0,1,,,,,,,,,,,,,,,,,,,,,,,,,,,,,,,,,,,,,,,,,
004549,001,2022-11-20_23h57.02.351,Info_measure_main_exp,2022.2.2,Win32,165.0982334,,,,,,,,,,,,,,,,,,masks/mask_005.jpg,,,,,,,,,,,,,,,,,,,,,,,,,,,,,,,,,,,,,,,,,,,,,,,,0,1,1,4,1,,,,,,,,,,,,,,,,,,,,,,,,,,,,,,,,,,,,,,,,,
004549,001,2022-11-20_23h57.02.351,Info_measure_main_exp,2022.2.2,Win32,165.0982334,,,,,,,,,,,,,,,,,,masks/mask_003.jpg,,,,,,,,,,,,,,,,,,,,,,,,,,,,,,,,,,,,,,,,,,,,,,,,0,2,2,2,1,,,,,,,,,,,,,,,,,,,,,,,,,,,,,,,,,,,,,,,,,
004549,001,2022-11-20_23h57.02.351,Info_measure_main_exp,2022.2.2,Win32,165.0982334,,,,,,,,,,,,,,,,,,masks/mask_004.jpg,,,,,,,,,,,,,,,,,,,,,,,,,,,,,,,,,,,,,,,,,,,,,,,,0,3,3,3,1,,,,,,,,,,,,,,,,,,,,,,,,,,,,,,,,,,,,,,,,,
004549,001,2022-11-20_23h57.02.351,Info_measure_main_exp,2022.2.2,Win32,165.0982334,,,,,,,,,,,,,,,,,,masks/mask_002.jpg,,,,,,,,,,,,,,,,,,,,,,,,,,,,,,,,,,,,,,,,,,,,,,,,0,4,4,1,1,,,,,,,,,,,,,,,,,,,,,,,,,,,,,,,,,,,,,,,,,
004549,001,2022-11-20_23h57.02.351,Info_measure_main_exp,2022.2.2,Win32,165.0982334,,,,,,,,,,,,,,,,,,,,,,,,,,,,,,7,1.1699,1,,,,,,,,,,,,0,131,5,5,2082,2178,absent_patch/patch0002082.jpg,absent_patch/patch0002178.jpg,,,,,,,,,,,,,,,,,,,,0.048148191,0.085185192,1,0,0,response1disk,6,0.003703718,-0.003703718,1,0,0,center_square,0,5,5,2,1,,,,,,,,,,,,,,,,,,,,,,,
004549,001,2022-11-20_23h57.02.351,Info_measure_main_exp,2022.2.2,Win32,165.0982334,,,,,,,,,,,,,,,,,,masks/mask_003.jpg,,,,,,,,,,,,,,,,,,,,,,,,,,,,,,,,,,,,,,,,,,,0,0,0,2,1,,,,,,,,,,,,,,,,,,,,,,,,,,,,,,,,,,,,,,,,,,,,,,
004549,001,2022-11-20_23h57.02.351,Info_measure_main_exp,2022.2.2,Win32,165.0982334,,,,,,,,,,,,,,,,,,masks/mask_002.jpg,,,,,,,,,,,,,,,,,,,,,,,,,,,,,,,,,,,,,,,,,,,0,1,1,1,1,,,,,,,,,,,,,,,,,,,,,,,,,,,,,,,,,,,,,,,,,,,,,,
004549,001,2022-11-20_23h57.02.351,Info_measure_main_exp,2022.2.2,Win32,165.0982334,,,,,,,,,,,,,,,,,,masks/mask_004.jpg,,,,,,,,,,,,,,,,,,,,,,,,,,,,,,,,,,,,,,,,,,,0,2,2,3,1,,,,,,,,,,,,,,,,,,,,,,,,,,,,,,,,,,,,,,,,,,,,,,
004549,001,2022-11-20_23h57.02.351,Info_measure_main_exp,2022.2.2,Win32,165.0982334,,,,,,,,,,,,,,,,,,masks/mask_005.jpg,,,,,,,,,,,,,,,,,,,,,,,,,,,,,,,,,,,,,,,,,,,0,3,3,4,1,,,,,,,,,,,,,,,,,,,,,,,,,,,,,,,,,,,,,,,,,,,,,,
004549,001,2022-11-20_23h57.02.351,Info_measure_main_exp,2022.2.2,Win32,165.0982334,,,,,,,,,,,,,,,,,,masks/mask_001.jpg,,,,,,,,,,,,,,,,,,,,,,,,,,,,,,,,,,,,,,,,,,,0,4,4,0,1,,,,,,,,,,,,,,,,,,,,,,,,,,,,,,,,,,,,,,,,,,,,,,
004549,001,2022-11-20_23h57.02.351,Info_measure_main_exp,2022.2.2,Win32,165.0982334,,,,,,,,,,,,,,,,,,masks/mask_001.jpg,,,,,,,,,,,,,,,,,,,,,,,,,,,,,,,,,,,,,,,,,,,,,,,,0,0,0,0,1,,,,,,,,,,,,,,,,,,,,,,,,,,,,,,,,,,,,,,,,,
004549,001,2022-11-20_23h57.02.351,Info_measure_main_exp,2022.2.2,Win32,165.0982334,,,,,,,,,,,,,,,,,,masks/mask_003.jpg,,,,,,,,,,,,,,,,,,,,,,,,,,,,,,,,,,,,,,,,,,,,,,,,0,1,1,2,1,,,,,,,,,,,,,,,,,,,,,,,,,,,,,,,,,,,,,,,,,
004549,001,2022-11-20_23h57.02.351,Info_measure_main_exp,2022.2.2,Win32,165.0982334,,,,,,,,,,,,,,,,,,masks/mask_002.jpg,,,,,,,,,,,,,,,,,,,,,,,,,,,,,,,,,,,,,,,,,,,,,,,,0,2,2,1,1,,,,,,,,,,,,,,,,,,,,,,,,,,,,,,,,,,,,,,,,,
004549,001,2022-11-20_23h57.02.351,Info_measure_main_exp,2022.2.2,Win32,165.0982334,,,,,,,,,,,,,,,,,,masks/mask_004.jpg,,,,,,,,,,,,,,,,,,,,,,,,,,,,,,,,,,,,,,,,,,,,,,,,0,3,3,3,1,,,,,,,,,,,,,,,,,,,,,,,,,,,,,,,,,,,,,,,,,
004549,001,2022-11-20_23h57.02.351,Info_measure_main_exp,2022.2.2,Win32,165.0982334,,,,,,,,,,,,,,,,,,masks/mask_005.jpg,,,,,,,,,,,,,,,,,,,,,,,,,,,,,,,,,,,,,,,,,,,,,,,,0,4,4,4,1,,,,,,,,,,,,,,,,,,,,,,,,,,,,,,,,,,,,,,,,,
004549,001,2022-11-20_23h57.02.351,Info_measure_main_exp,2022.2.2,Win32,165.0982334,,,,,,,,,,,,,,,,,,,,,,,,,,,,,,7,1.1212,1,,,,,,,,,,,,0,131,5,5,2214,2142,absent_patch/patch0002214.jpg,absent_patch/patch0002142.jpg,,,,,,,,,,,,,,,,,,,,0.047222208,0.067592586,1,0,0,response1disk,7,-0.000925912,-0.006481489,1,0,0,center_square,0,6,6,102,1,,,,,,,,,,,,,,,,,,,,,,,
004549,001,2022-11-20_23h57.02.351,Info_measure_main_exp,2022.2.2,Win32,165.0982334,,,,,,,,,,,,,,,,,,masks/mask_002.jpg,,,,,,,,,,,,,,,,,,,,,,,,,,,,,,,,,,,,,,,,,,,0,0,0,1,1,,,,,,,,,,,,,,,,,,,,,,,,,,,,,,,,,,,,,,,,,,,,,,
004549,001,2022-11-20_23h57.02.351,Info_measure_main_exp,2022.2.2,Win32,165.0982334,,,,,,,,,,,,,,,,,,masks/mask_001.jpg,,,,,,,,,,,,,,,,,,,,,,,,,,,,,,,,,,,,,,,,,,,0,1,1,0,1,,,,,,,,,,,,,,,,,,,,,,,,,,,,,,,,,,,,,,,,,,,,,,
004549,001,2022-11-20_23h57.02.351,Info_measure_main_exp,2022.2.2,Win32,165.0982334,,,,,,,,,,,,,,,,,,masks/mask_004.jpg,,,,,,,,,,,,,,,,,,,,,,,,,,,,,,,,,,,,,,,,,,,0,2,2,3,1,,,,,,,,,,,,,,,,,,,,,,,,,,,,,,,,,,,,,,,,,,,,,,
004549,001,2022-11-20_23h57.02.351,Info_measure_main_exp,2022.2.2,Win32,165.0982334,,,,,,,,,,,,,,,,,,masks/mask_005.jpg,,,,,,,,,,,,,,,,,,,,,,,,,,,,,,,,,,,,,,,,,,,0,3,3,4,1,,,,,,,,,,,,,,,,,,,,,,,,,,,,,,,,,,,,,,,,,,,,,,
004549,001,2022-11-20_23h57.02.351,Info_measure_main_exp,2022.2.2,Win32,165.0982334,,,,,,,,,,,,,,,,,,masks/mask_003.jpg,,,,,,,,,,,,,,,,,,,,,,,,,,,,,,,,,,,,,,,,,,,0,4,4,2,1,,,,,,,,,,,,,,,,,,,,,,,,,,,,,,,,,,,,,,,,,,,,,,
004549,001,2022-11-20_23h57.02.351,Info_measure_main_exp,2022.2.2,Win32,165.0982334,,,,,,,,,,,,,,,,,,masks/mask_005.jpg,,,,,,,,,,,,,,,,,,,,,,,,,,,,,,,,,,,,,,,,,,,,,,,,0,0,0,4,1,,,,,,,,,,,,,,,,,,,,,,,,,,,,,,,,,,,,,,,,,
004549,001,2022-11-20_23h57.02.351,Info_measure_main_exp,2022.2.2,Win32,165.0982334,,,,,,,,,,,,,,,,,,masks/mask_004.jpg,,,,,,,,,,,,,,,,,,,,,,,,,,,,,,,,,,,,,,,,,,,,,,,,0,1,1,3,1,,,,,,,,,,,,,,,,,,,,,,,,,,,,,,,,,,,,,,,,,
004549,001,2022-11-20_23h57.02.351,Info_measure_main_exp,2022.2.2,Win32,165.0982334,,,,,,,,,,,,,,,,,,masks/mask_002.jpg,,,,,,,,,,,,,,,,,,,,,,,,,,,,,,,,,,,,,,,,,,,,,,,,0,2,2,1,1,,,,,,,,,,,,,,,,,,,,,,,,,,,,,,,,,,,,,,,,,
004549,001,2022-11-20_23h57.02.351,Info_measure_main_exp,2022.2.2,Win32,165.0982334,,,,,,,,,,,,,,,,,,masks/mask_003.jpg,,,,,,,,,,,,,,,,,,,,,,,,,,,,,,,,,,,,,,,,,,,,,,,,0,3,3,2,1,,,,,,,,,,,,,,,,,,,,,,,,,,,,,,,,,,,,,,,,,
004549,001,2022-11-20_23h57.02.351,Info_measure_main_exp,2022.2.2,Win32,165.0982334,,,,,,,,,,,,,,,,,,masks/mask_001.jpg,,,,,,,,,,,,,,,,,,,,,,,,,,,,,,,,,,,,,,,,,,,,,,,,0,4,4,0,1,,,,,,,,,,,,,,,,,,,,,,,,,,,,,,,,,,,,,,,,,
004549,001,2022-11-20_23h57.02.351,Info_measure_main_exp,2022.2.2,Win32,165.0982334,,,,,,,,,,,,,,,,,,,,,,,,,,,,,,7,0.8907,1,,,,,,,,,,,,1,131,5,5,2082,1,absent_patch/patch0002082.jpg,present_patch/cong_131_5_a.jpg,,,,,,,,,,,,,,,,,,,,0.029629672,0.061111097,1,0,0,response1disk,8,0.007407436,0.00462963,1,0,0,center_square,0,7,7,65,1,,,,,,,,,,,,,,,,,,,,,,,
004549,001,2022-11-20_23h57.02.351,Info_measure_main_exp,2022.2.2,Win32,165.0982334,,,,,,,,,,,,,,,,,,masks/mask_005.jpg,,,,,,,,,,,,,,,,,,,,,,,,,,,,,,,,,,,,,,,,,,,0,0,0,4,1,,,,,,,,,,,,,,,,,,,,,,,,,,,,,,,,,,,,,,,,,,,,,,
004549,001,2022-11-20_23h57.02.351,Info_measure_main_exp,2022.2.2,Win32,165.0982334,,,,,,,,,,,,,,,,,,masks/mask_004.jpg,,,,,,,,,,,,,,,,,,,,,,,,,,,,,,,,,,,,,,,,,,,0,1,1,3,1,,,,,,,,,,,,,,,,,,,,,,,,,,,,,,,,,,,,,,,,,,,,,,
004549,001,2022-11-20_23h57.02.351,Info_measure_main_exp,2022.2.2,Win32,165.0982334,,,,,,,,,,,,,,,,,,masks/mask_003.jpg,,,,,,,,,,,,,,,,,,,,,,,,,,,,,,,,,,,,,,,,,,,0,2,2,2,1,,,,,,,,,,,,,,,,,,,,,,,,,,,,,,,,,,,,,,,,,,,,,,
004549,001,2022-11-20_23h57.02.351,Info_measure_main_exp,2022.2.2,Win32,165.0982334,,,,,,,,,,,,,,,,,,masks/mask_002.jpg,,,,,,,,,,,,,,,,,,,,,,,,,,,,,,,,,,,,,,,,,,,0,3,3,1,1,,,,,,,,,,,,,,,,,,,,,,,,,,,,,,,,,,,,,,,,,,,,,,
004549,001,2022-11-20_23h57.02.351,Info_measure_main_exp,2022.2.2,Win32,165.0982334,,,,,,,,,,,,,,,,,,masks/mask_001.jpg,,,,,,,,,,,,,,,,,,,,,,,,,,,,,,,,,,,,,,,,,,,0,4,4,0,1,,,,,,,,,,,,,,,,,,,,,,,,,,,,,,,,,,,,,,,,,,,,,,
004549,001,2022-11-20_23h57.02.351,Info_measure_main_exp,2022.2.2,Win32,165.0982334,,,,,,,,,,,,,,,,,,masks/mask_005.jpg,,,,,,,,,,,,,,,,,,,,,,,,,,,,,,,,,,,,,,,,,,,,,,,,0,0,0,4,1,,,,,,,,,,,,,,,,,,,,,,,,,,,,,,,,,,,,,,,,,
004549,001,2022-11-20_23h57.02.351,Info_measure_main_exp,2022.2.2,Win32,165.0982334,,,,,,,,,,,,,,,,,,masks/mask_002.jpg,,,,,,,,,,,,,,,,,,,,,,,,,,,,,,,,,,,,,,,,,,,,,,,,0,1,1,1,1,,,,,,,,,,,,,,,,,,,,,,,,,,,,,,,,,,,,,,,,,
004549,001,2022-11-20_23h57.02.351,Info_measure_main_exp,2022.2.2,Win32,165.0982334,,,,,,,,,,,,,,,,,,masks/mask_004.jpg,,,,,,,,,,,,,,,,,,,,,,,,,,,,,,,,,,,,,,,,,,,,,,,,0,2,2,3,1,,,,,,,,,,,,,,,,,,,,,,,,,,,,,,,,,,,,,,,,,
004549,001,2022-11-20_23h57.02.351,Info_measure_main_exp,2022.2.2,Win32,165.0982334,,,,,,,,,,,,,,,,,,masks/mask_003.jpg,,,,,,,,,,,,,,,,,,,,,,,,,,,,,,,,,,,,,,,,,,,,,,,,0,3,3,2,1,,,,,,,,,,,,,,,,,,,,,,,,,,,,,,,,,,,,,,,,,
004549,001,2022-11-20_23h57.02.351,Info_measure_main_exp,2022.2.2,Win32,165.0982334,,,,,,,,,,,,,,,,,,masks/mask_001.jpg,,,,,,,,,,,,,,,,,,,,,,,,,,,,,,,,,,,,,,,,,,,,,,,,0,4,4,0,1,,,,,,,,,,,,,,,,,,,,,,,,,,,,,,,,,,,,,,,,,
004549,001,2022-11-20_23h57.02.351,Info_measure_main_exp,2022.2.2,Win32,165.0982334,,,,,,,,,,,,,,,,,,,,,,,,,,,,,,6,1.0848,1,,,,,,,,,,,,0,131,5,5,2190,2082,absent_patch/patch0002190.jpg,absent_patch/patch0002082.jpg,,,,,,,,,,,,,,,,,,,,0.064814815,0.021296289,1,0,0,response1disk,9,0,-0.010185206,1,0,0,center_square,0,8,8,112,1,,,,,,,,,,,,,,,,,,,,,,,
004549,001,2022-11-20_23h57.02.351,Info_measure_main_exp,2022.2.2,Win32,165.0982334,,,,,,,,,,,,,,,,,,masks/mask_002.jpg,,,,,,,,,,,,,,,,,,,,,,,,,,,,,,,,,,,,,,,,,,,0,0,0,1,1,,,,,,,,,,,,,,,,,,,,,,,,,,,,,,,,,,,,,,,,,,,,,,
004549,001,2022-11-20_23h57.02.351,Info_measure_main_exp,2022.2.2,Win32,165.0982334,,,,,,,,,,,,,,,,,,masks/mask_004.jpg,,,,,,,,,,,,,,,,,,,,,,,,,,,,,,,,,,,,,,,,,,,0,1,1,3,1,,,,,,,,,,,,,,,,,,,,,,,,,,,,,,,,,,,,,,,,,,,,,,
004549,001,2022-11-20_23h57.02.351,Info_measure_main_exp,2022.2.2,Win32,165.0982334,,,,,,,,,,,,,,,,,,masks/mask_001.jpg,,,,,,,,,,,,,,,,,,,,,,,,,,,,,,,,,,,,,,,,,,,0,2,2,0,1,,,,,,,,,,,,,,,,,,,,,,,,,,,,,,,,,,,,,,,,,,,,,,
004549,001,2022-11-20_23h57.02.351,Info_measure_main_exp,2022.2.2,Win32,165.0982334,,,,,,,,,,,,,,,,,,masks/mask_003.jpg,,,,,,,,,,,,,,,,,,,,,,,,,,,,,,,,,,,,,,,,,,,0,3,3,2,1,,,,,,,,,,,,,,,,,,,,,,,,,,,,,,,,,,,,,,,,,,,,,,
004549,001,2022-11-20_23h57.02.351,Info_measure_main_exp,2022.2.2,Win32,165.0982334,,,,,,,,,,,,,,,,,,masks/mask_005.jpg,,,,,,,,,,,,,,,,,,,,,,,,,,,,,,,,,,,,,,,,,,,0,4,4,4,1,,,,,,,,,,,,,,,,,,,,,,,,,,,,,,,,,,,,,,,,,,,,,,
004549,001,2022-11-20_23h57.02.351,Info_measure_main_exp,2022.2.2,Win32,165.0982334,,,,,,,,,,,,,,,,,,masks/mask_002.jpg,,,,,,,,,,,,,,,,,,,,,,,,,,,,,,,,,,,,,,,,,,,,,,,,0,0,0,1,1,,,,,,,,,,,,,,,,,,,,,,,,,,,,,,,,,,,,,,,,,
004549,001,2022-11-20_23h57.02.351,Info_measure_main_exp,2022.2.2,Win32,165.0982334,,,,,,,,,,,,,,,,,,masks/mask_005.jpg,,,,,,,,,,,,,,,,,,,,,,,,,,,,,,,,,,,,,,,,,,,,,,,,0,1,1,4,1,,,,,,,,,,,,,,,,,,,,,,,,,,,,,,,,,,,,,,,,,
004549,001,2022-11-20_23h57.02.351,Info_measure_main_exp,2022.2.2,Win32,165.0982334,,,,,,,,,,,,,,,,,,masks/mask_001.jpg,,,,,,,,,,,,,,,,,,,,,,,,,,,,,,,,,,,,,,,,,,,,,,,,0,2,2,0,1,,,,,,,,,,,,,,,,,,,,,,,,,,,,,,,,,,,,,,,,,
004549,001,2022-11-20_23h57.02.351,Info_measure_main_exp,2022.2.2,Win32,165.0982334,,,,,,,,,,,,,,,,,,masks/mask_003.jpg,,,,,,,,,,,,,,,,,,,,,,,,,,,,,,,,,,,,,,,,,,,,,,,,0,3,3,2,1,,,,,,,,,,,,,,,,,,,,,,,,,,,,,,,,,,,,,,,,,
004549,001,2022-11-20_23h57.02.351,Info_measure_main_exp,2022.2.2,Win32,165.0982334,,,,,,,,,,,,,,,,,,masks/mask_004.jpg,,,,,,,,,,,,,,,,,,,,,,,,,,,,,,,,,,,,,,,,,,,,,,,,0,4,4,3,1,,,,,,,,,,,,,,,,,,,,,,,,,,,,,,,,,,,,,,,,,
004549,001,2022-11-20_23h57.02.351,Info_measure_main_exp,2022.2.2,Win32,165.0982334,,,,,,,,,,,,,,,,,,,,,,,,,,,,,,0,0.9455,1,,,,,,,,,,,,0,131,5,5,2274,2274,absent_patch/patch0002274.jpg,absent_patch/patch0002274.jpg,,,,,,,,,,,,,,,,,,,,-0.039814772,0.083333333,1,0,0,response7disk,10,-0.003703718,0.00462963,1,0,0,center_square,0,9,9,114,1,,,,,,,,,,,,,,,,,,,,,,,
004549,001,2022-11-20_23h57.02.351,Info_measure_main_exp,2022.2.2,Win32,165.0982334,,,,,,,,,,,,,,,,,,masks/mask_002.jpg,,,,,,,,,,,,,,,,,,,,,,,,,,,,,,,,,,,,,,,,,,,0,0,0,1,1,,,,,,,,,,,,,,,,,,,,,,,,,,,,,,,,,,,,,,,,,,,,,,
004549,001,2022-11-20_23h57.02.351,Info_measure_main_exp,2022.2.2,Win32,165.0982334,,,,,,,,,,,,,,,,,,masks/mask_003.jpg,,,,,,,,,,,,,,,,,,,,,,,,,,,,,,,,,,,,,,,,,,,0,1,1,2,1,,,,,,,,,,,,,,,,,,,,,,,,,,,,,,,,,,,,,,,,,,,,,,
004549,001,2022-11-20_23h57.02.351,Info_measure_main_exp,2022.2.2,Win32,165.0982334,,,,,,,,,,,,,,,,,,masks/mask_001.jpg,,,,,,,,,,,,,,,,,,,,,,,,,,,,,,,,,,,,,,,,,,,0,2,2,0,1,,,,,,,,,,,,,,,,,,,,,,,,,,,,,,,,,,,,,,,,,,,,,,
004549,001,2022-11-20_23h57.02.351,Info_measure_main_exp,2022.2.2,Win32,165.0982334,,,,,,,,,,,,,,,,,,masks/mask_005.jpg,,,,,,,,,,,,,,,,,,,,,,,,,,,,,,,,,,,,,,,,,,,0,3,3,4,1,,,,,,,,,,,,,,,,,,,,,,,,,,,,,,,,,,,,,,,,,,,,,,
004549,001,2022-11-20_23h57.02.351,Info_measure_main_exp,2022.2.2,Win32,165.0982334,,,,,,,,,,,,,,,,,,masks/mask_004.jpg,,,,,,,,,,,,,,,,,,,,,,,,,,,,,,,,,,,,,,,,,,,0,4,4,3,1,,,,,,,,,,,,,,,,,,,,,,,,,,,,,,,,,,,,,,,,,,,,,,
004549,001,2022-11-20_23h57.02.351,Info_measure_main_exp,2022.2.2,Win32,165.0982334,,,,,,,,,,,,,,,,,,masks/mask_002.jpg,,,,,,,,,,,,,,,,,,,,,,,,,,,,,,,,,,,,,,,,,,,,,,,,0,0,0,1,1,,,,,,,,,,,,,,,,,,,,,,,,,,,,,,,,,,,,,,,,,
004549,001,2022-11-20_23h57.02.351,Info_measure_main_exp,2022.2.2,Win32,165.0982334,,,,,,,,,,,,,,,,,,masks/mask_001.jpg,,,,,,,,,,,,,,,,,,,,,,,,,,,,,,,,,,,,,,,,,,,,,,,,0,1,1,0,1,,,,,,,,,,,,,,,,,,,,,,,,,,,,,,,,,,,,,,,,,
004549,001,2022-11-20_23h57.02.351,Info_measure_main_exp,2022.2.2,Win32,165.0982334,,,,,,,,,,,,,,,,,,masks/mask_003.jpg,,,,,,,,,,,,,,,,,,,,,,,,,,,,,,,,,,,,,,,,,,,,,,,,0,2,2,2,1,,,,,,,,,,,,,,,,,,,,,,,,,,,,,,,,,,,,,,,,,
004549,001,2022-11-20_23h57.02.351,Info_measure_main_exp,2022.2.2,Win32,165.0982334,,,,,,,,,,,,,,,,,,masks/mask_004.jpg,,,,,,,,,,,,,,,,,,,,,,,,,,,,,,,,,,,,,,,,,,,,,,,,0,3,3,3,1,,,,,,,,,,,,,,,,,,,,,,,,,,,,,,,,,,,,,,,,,
004549,001,2022-11-20_23h57.02.351,Info_measure_main_exp,2022.2.2,Win32,165.0982334,,,,,,,,,,,,,,,,,,masks/mask_005.jpg,,,,,,,,,,,,,,,,,,,,,,,,,,,,,,,,,,,,,,,,,,,,,,,,0,4,4,4,1,,,,,,,,,,,,,,,,,,,,,,,,,,,,,,,,,,,,,,,,,
004549,001,2022-11-20_23h57.02.351,Info_measure_main_exp,2022.2.2,Win32,165.0982334,,,,,,,,,,,,,,,,,,,,,,,,,,,,,,7,1.8909,1,,,,,,,,,,,,0,131,5,5,2190,2214,absent_patch/patch0002190.jpg,absent_patch/patch0002214.jpg,,,,,,,,,,,,,,,,,,,,0.008333347,0.1175926,1,0,0,response1disk,11,-0.00462963,0.003703683,1,0,0,center_square,0,10,10,35,1,,,,,,,,,,,,,,,,,,,,,,,
004549,001,2022-11-20_23h57.02.351,Info_measure_main_exp,2022.2.2,Win32,165.0982334,,,,,,,,,,,,,,,,,,masks/mask_005.jpg,,,,,,,,,,,,,,,,,,,,,,,,,,,,,,,,,,,,,,,,,,,0,0,0,4,1,,,,,,,,,,,,,,,,,,,,,,,,,,,,,,,,,,,,,,,,,,,,,,
004549,001,2022-11-20_23h57.02.351,Info_measure_main_exp,2022.2.2,Win32,165.0982334,,,,,,,,,,,,,,,,,,masks/mask_002.jpg,,,,,,,,,,,,,,,,,,,,,,,,,,,,,,,,,,,,,,,,,,,0,1,1,1,1,,,,,,,,,,,,,,,,,,,,,,,,,,,,,,,,,,,,,,,,,,,,,,
004549,001,2022-11-20_23h57.02.351,Info_measure_main_exp,2022.2.2,Win32,165.0982334,,,,,,,,,,,,,,,,,,masks/mask_003.jpg,,,,,,,,,,,,,,,,,,,,,,,,,,,,,,,,,,,,,,,,,,,0,2,2,2,1,,,,,,,,,,,,,,,,,,,,,,,,,,,,,,,,,,,,,,,,,,,,,,
004549,001,2022-11-20_23h57.02.351,Info_measure_main_exp,2022.2.2,Win32,165.0982334,,,,,,,,,,,,,,,,,,masks/mask_004.jpg,,,,,,,,,,,,,,,,,,,,,,,,,,,,,,,,,,,,,,,,,,,0,3,3,3,1,,,,,,,,,,,,,,,,,,,,,,,,,,,,,,,,,,,,,,,,,,,,,,
004549,001,2022-11-20_23h57.02.351,Info_measure_main_exp,2022.2.2,Win32,165.0982334,,,,,,,,,,,,,,,,,,masks/mask_001.jpg,,,,,,,,,,,,,,,,,,,,,,,,,,,,,,,,,,,,,,,,,,,0,4,4,0,1,,,,,,,,,,,,,,,,,,,,,,,,,,,,,,,,,,,,,,,,,,,,,,
004549,001,2022-11-20_23h57.02.351,Info_measure_main_exp,2022.2.2,Win32,165.0982334,,,,,,,,,,,,,,,,,,masks/mask_001.jpg,,,,,,,,,,,,,,,,,,,,,,,,,,,,,,,,,,,,,,,,,,,,,,,,0,0,0,0,1,,,,,,,,,,,,,,,,,,,,,,,,,,,,,,,,,,,,,,,,,
004549,001,2022-11-20_23h57.02.351,Info_measure_main_exp,2022.2.2,Win32,165.0982334,,,,,,,,,,,,,,,,,,masks/mask_004.jpg,,,,,,,,,,,,,,,,,,,,,,,,,,,,,,,,,,,,,,,,,,,,,,,,0,1,1,3,1,,,,,,,,,,,,,,,,,,,,,,,,,,,,,,,,,,,,,,,,,
004549,001,2022-11-20_23h57.02.351,Info_measure_main_exp,2022.2.2,Win32,165.0982334,,,,,,,,,,,,,,,,,,masks/mask_003.jpg,,,,,,,,,,,,,,,,,,,,,,,,,,,,,,,,,,,,,,,,,,,,,,,,0,2,2,2,1,,,,,,,,,,,,,,,,,,,,,,,,,,,,,,,,,,,,,,,,,
004549,001,2022-11-20_23h57.02.351,Info_measure_main_exp,2022.2.2,Win32,165.0982334,,,,,,,,,,,,,,,,,,masks/mask_002.jpg,,,,,,,,,,,,,,,,,,,,,,,,,,,,,,,,,,,,,,,,,,,,,,,,0,3,3,1,1,,,,,,,,,,,,,,,,,,,,,,,,,,,,,,,,,,,,,,,,,
004549,001,2022-11-20_23h57.02.351,Info_measure_main_exp,2022.2.2,Win32,165.0982334,,,,,,,,,,,,,,,,,,masks/mask_005.jpg,,,,,,,,,,,,,,,,,,,,,,,,,,,,,,,,,,,,,,,,,,,,,,,,0,4,4,4,1,,,,,,,,,,,,,,,,,,,,,,,,,,,,,,,,,,,,,,,,,
004549,001,2022-11-20_23h57.02.351,Info_measure_main_exp,2022.2.2,Win32,165.0982334,,,,,,,,,,,,,,,,,,,,,,,,,,,,,,7,0.891,1,,,,,,,,,,,,0,131,5,5,2178,2166,absent_patch/patch0002178.jpg,absent_patch/patch0002166.jpg,,,,,,,,,,,,,,,,,,,,0.021296325,0.042592578,1,0,0,response1disk,12,0.009259259,-0.012962977,1,0,0,center_square,0,11,11,72,1,,,,,,,,,,,,,,,,,,,,,,,
004549,001,2022-11-20_23h57.02.351,Info_measure_main_exp,2022.2.2,Win32,165.0982334,,,,,,,,,,,,,,,,,,masks/mask_003.jpg,,,,,,,,,,,,,,,,,,,,,,,,,,,,,,,,,,,,,,,,,,,0,0,0,2,1,,,,,,,,,,,,,,,,,,,,,,,,,,,,,,,,,,,,,,,,,,,,,,
004549,001,2022-11-20_23h57.02.351,Info_measure_main_exp,2022.2.2,Win32,165.0982334,,,,,,,,,,,,,,,,,,masks/mask_004.jpg,,,,,,,,,,,,,,,,,,,,,,,,,,,,,,,,,,,,,,,,,,,0,1,1,3,1,,,,,,,,,,,,,,,,,,,,,,,,,,,,,,,,,,,,,,,,,,,,,,
004549,001,2022-11-20_23h57.02.351,Info_measure_main_exp,2022.2.2,Win32,165.0982334,,,,,,,,,,,,,,,,,,masks/mask_001.jpg,,,,,,,,,,,,,,,,,,,,,,,,,,,,,,,,,,,,,,,,,,,0,2,2,0,1,,,,,,,,,,,,,,,,,,,,,,,,,,,,,,,,,,,,,,,,,,,,,,
004549,001,2022-11-20_23h57.02.351,Info_measure_main_exp,2022.2.2,Win32,165.0982334,,,,,,,,,,,,,,,,,,masks/mask_005.jpg,,,,,,,,,,,,,,,,,,,,,,,,,,,,,,,,,,,,,,,,,,,0,3,3,4,1,,,,,,,,,,,,,,,,,,,,,,,,,,,,,,,,,,,,,,,,,,,,,,
004549,001,2022-11-20_23h57.02.351,Info_measure_main_exp,2022.2.2,Win32,165.0982334,,,,,,,,,,,,,,,,,,masks/mask_002.jpg,,,,,,,,,,,,,,,,,,,,,,,,,,,,,,,,,,,,,,,,,,,0,4,4,1,1,,,,,,,,,,,,,,,,,,,,,,,,,,,,,,,,,,,,,,,,,,,,,,
004549,001,2022-11-20_23h57.02.351,Info_measure_main_exp,2022.2.2,Win32,165.0982334,,,,,,,,,,,,,,,,,,masks/mask_005.jpg,,,,,,,,,,,,,,,,,,,,,,,,,,,,,,,,,,,,,,,,,,,,,,,,0,0,0,4,1,,,,,,,,,,,,,,,,,,,,,,,,,,,,,,,,,,,,,,,,,
004549,001,2022-11-20_23h57.02.351,Info_measure_main_exp,2022.2.2,Win32,165.0982334,,,,,,,,,,,,,,,,,,masks/mask_004.jpg,,,,,,,,,,,,,,,,,,,,,,,,,,,,,,,,,,,,,,,,,,,,,,,,0,1,1,3,1,,,,,,,,,,,,,,,,,,,,,,,,,,,,,,,,,,,,,,,,,
004549,001,2022-11-20_23h57.02.351,Info_measure_main_exp,2022.2.2,Win32,165.0982334,,,,,,,,,,,,,,,,,,masks/mask_001.jpg,,,,,,,,,,,,,,,,,,,,,,,,,,,,,,,,,,,,,,,,,,,,,,,,0,2,2,0,1,,,,,,,,,,,,,,,,,,,,,,,,,,,,,,,,,,,,,,,,,
004549,001,2022-11-20_23h57.02.351,Info_measure_main_exp,2022.2.2,Win32,165.0982334,,,,,,,,,,,,,,,,,,masks/mask_003.jpg,,,,,,,,,,,,,,,,,,,,,,,,,,,,,,,,,,,,,,,,,,,,,,,,0,3,3,2,1,,,,,,,,,,,,,,,,,,,,,,,,,,,,,,,,,,,,,,,,,
004549,001,2022-11-20_23h57.02.351,Info_measure_main_exp,2022.2.2,Win32,165.0982334,,,,,,,,,,,,,,,,,,masks/mask_002.jpg,,,,,,,,,,,,,,,,,,,,,,,,,,,,,,,,,,,,,,,,,,,,,,,,0,4,4,1,1,,,,,,,,,,,,,,,,,,,,,,,,,,,,,,,,,,,,,,,,,
004549,001,2022-11-20_23h57.02.351,Info_measure_main_exp,2022.2.2,Win32,165.0982334,,,,,,,,,,,,,,,,,,,,,,,,,,,,,,7,0.8122,1,,,,,,,,,,,,0,131,5,5,2274,1974,absent_patch/patch0002274.jpg,absent_patch/patch0001974.jpg,,,,,,,,,,,,,,,,,,,,0.050000014,0.092592593,1,0,0,response1disk,13,0.006481524,0.006481489,1,0,0,center_square,0,12,12,90,1,,,,,,,,,,,,,,,,,,,,,,,
004549,001,2022-11-20_23h57.02.351,Info_measure_main_exp,2022.2.2,Win32,165.0982334,,,,,,,,,,,,,,,,,,masks/mask_003.jpg,,,,,,,,,,,,,,,,,,,,,,,,,,,,,,,,,,,,,,,,,,,0,0,0,2,1,,,,,,,,,,,,,,,,,,,,,,,,,,,,,,,,,,,,,,,,,,,,,,
004549,001,2022-11-20_23h57.02.351,Info_measure_main_exp,2022.2.2,Win32,165.0982334,,,,,,,,,,,,,,,,,,masks/mask_004.jpg,,,,,,,,,,,,,,,,,,,,,,,,,,,,,,,,,,,,,,,,,,,0,1,1,3,1,,,,,,,,,,,,,,,,,,,,,,,,,,,,,,,,,,,,,,,,,,,,,,
004549,001,2022-11-20_23h57.02.351,Info_measure_main_exp,2022.2.2,Win32,165.0982334,,,,,,,,,,,,,,,,,,masks/mask_005.jpg,,,,,,,,,,,,,,,,,,,,,,,,,,,,,,,,,,,,,,,,,,,0,2,2,4,1,,,,,,,,,,,,,,,,,,,,,,,,,,,,,,,,,,,,,,,,,,,,,,
004549,001,2022-11-20_23h57.02.351,Info_measure_main_exp,2022.2.2,Win32,165.0982334,,,,,,,,,,,,,,,,,,masks/mask_001.jpg,,,,,,,,,,,,,,,,,,,,,,,,,,,,,,,,,,,,,,,,,,,0,3,3,0,1,,,,,,,,,,,,,,,,,,,,,,,,,,,,,,,,,,,,,,,,,,,,,,
004549,001,2022-11-20_23h57.02.351,Info_measure_main_exp,2022.2.2,Win32,165.0982334,,,,,,,,,,,,,,,,,,masks/mask_002.jpg,,,,,,,,,,,,,,,,,,,,,,,,,,,,,,,,,,,,,,,,,,,0,4,4,1,1,,,,,,,,,,,,,,,,,,,,,,,,,,,,,,,,,,,,,,,,,,,,,,
004549,001,2022-11-20_23h57.02.351,Info_measure_main_exp,2022.2.2,Win32,165.0982334,,,,,,,,,,,,,,,,,,masks/mask_002.jpg,,,,,,,,,,,,,,,,,,,,,,,,,,,,,,,,,,,,,,,,,,,,,,,,0,0,0,1,1,,,,,,,,,,,,,,,,,,,,,,,,,,,,,,,,,,,,,,,,,
004549,001,2022-11-20_23h57.02.351,Info_measure_main_exp,2022.2.2,Win32,165.0982334,,,,,,,,,,,,,,,,,,masks/mask_004.jpg,,,,,,,,,,,,,,,,,,,,,,,,,,,,,,,,,,,,,,,,,,,,,,,,0,1,1,3,1,,,,,,,,,,,,,,,,,,,,,,,,,,,,,,,,,,,,,,,,,
004549,001,2022-11-20_23h57.02.351,Info_measure_main_exp,2022.2.2,Win32,165.0982334,,,,,,,,,,,,,,,,,,masks/mask_001.jpg,,,,,,,,,,,,,,,,,,,,,,,,,,,,,,,,,,,,,,,,,,,,,,,,0,2,2,0,1,,,,,,,,,,,,,,,,,,,,,,,,,,,,,,,,,,,,,,,,,
004549,001,2022-11-20_23h57.02.351,Info_measure_main_exp,2022.2.2,Win32,165.0982334,,,,,,,,,,,,,,,,,,masks/mask_005.jpg,,,,,,,,,,,,,,,,,,,,,,,,,,,,,,,,,,,,,,,,,,,,,,,,0,3,3,4,1,,,,,,,,,,,,,,,,,,,,,,,,,,,,,,,,,,,,,,,,,
004549,001,2022-11-20_23h57.02.351,Info_measure_main_exp,2022.2.2,Win32,165.0982334,,,,,,,,,,,,,,,,,,masks/mask_003.jpg,,,,,,,,,,,,,,,,,,,,,,,,,,,,,,,,,,,,,,,,,,,,,,,,0,4,4,2,1,,,,,,,,,,,,,,,,,,,,,,,,,,,,,,,,,,,,,,,,,
004549,001,2022-11-20_23h57.02.351,Info_measure_main_exp,2022.2.2,Win32,165.0982334,,,,,,,,,,,,,,,,,,,,,,,,,,,,,,0,0.8608,1,,,,,,,,,,,,0,131,5,5,2082,2082,absent_patch/patch0002082.jpg,absent_patch/patch0002082.jpg,,,,,,,,,,,,,,,,,,,,-0.039814772,0.100925905,1,0,0,response7disk,14,-0.003703718,-0.0074074,1,0,0,center_square,0,13,13,74,1,,,,,,,,,,,,,,,,,,,,,,,
004549,001,2022-11-20_23h57.02.351,Info_measure_main_exp,2022.2.2,Win32,165.0982334,,,,,,,,,,,,,,,,,,masks/mask_004.jpg,,,,,,,,,,,,,,,,,,,,,,,,,,,,,,,,,,,,,,,,,,,0,0,0,3,1,,,,,,,,,,,,,,,,,,,,,,,,,,,,,,,,,,,,,,,,,,,,,,
004549,001,2022-11-20_23h57.02.351,Info_measure_main_exp,2022.2.2,Win32,165.0982334,,,,,,,,,,,,,,,,,,masks/mask_002.jpg,,,,,,,,,,,,,,,,,,,,,,,,,,,,,,,,,,,,,,,,,,,0,1,1,1,1,,,,,,,,,,,,,,,,,,,,,,,,,,,,,,,,,,,,,,,,,,,,,,
004549,001,2022-11-20_23h57.02.351,Info_measure_main_exp,2022.2.2,Win32,165.0982334,,,,,,,,,,,,,,,,,,masks/mask_003.jpg,,,,,,,,,,,,,,,,,,,,,,,,,,,,,,,,,,,,,,,,,,,0,2,2,2,1,,,,,,,,,,,,,,,,,,,,,,,,,,,,,,,,,,,,,,,,,,,,,,
004549,001,2022-11-20_23h57.02.351,Info_measure_main_exp,2022.2.2,Win32,165.0982334,,,,,,,,,,,,,,,,,,masks/mask_005.jpg,,,,,,,,,,,,,,,,,,,,,,,,,,,,,,,,,,,,,,,,,,,0,3,3,4,1,,,,,,,,,,,,,,,,,,,,,,,,,,,,,,,,,,,,,,,,,,,,,,
004549,001,2022-11-20_23h57.02.351,Info_measure_main_exp,2022.2.2,Win32,165.0982334,,,,,,,,,,,,,,,,,,masks/mask_001.jpg,,,,,,,,,,,,,,,,,,,,,,,,,,,,,,,,,,,,,,,,,,,0,4,4,0,1,,,,,,,,,,,,,,,,,,,,,,,,,,,,,,,,,,,,,,,,,,,,,,
004549,001,2022-11-20_23h57.02.351,Info_measure_main_exp,2022.2.2,Win32,165.0982334,,,,,,,,,,,,,,,,,,masks/mask_003.jpg,,,,,,,,,,,,,,,,,,,,,,,,,,,,,,,,,,,,,,,,,,,,,,,,0,0,0,2,1,,,,,,,,,,,,,,,,,,,,,,,,,,,,,,,,,,,,,,,,,
004549,001,2022-11-20_23h57.02.351,Info_measure_main_exp,2022.2.2,Win32,165.0982334,,,,,,,,,,,,,,,,,,masks/mask_004.jpg,,,,,,,,,,,,,,,,,,,,,,,,,,,,,,,,,,,,,,,,,,,,,,,,0,1,1,3,1,,,,,,,,,,,,,,,,,,,,,,,,,,,,,,,,,,,,,,,,,
004549,001,2022-11-20_23h57.02.351,Info_measure_main_exp,2022.2.2,Win32,165.0982334,,,,,,,,,,,,,,,,,,masks/mask_005.jpg,,,,,,,,,,,,,,,,,,,,,,,,,,,,,,,,,,,,,,,,,,,,,,,,0,2,2,4,1,,,,,,,,,,,,,,,,,,,,,,,,,,,,,,,,,,,,,,,,,
004549,001,2022-11-20_23h57.02.351,Info_measure_main_exp,2022.2.2,Win32,165.0982334,,,,,,,,,,,,,,,,,,masks/mask_001.jpg,,,,,,,,,,,,,,,,,,,,,,,,,,,,,,,,,,,,,,,,,,,,,,,,0,3,3,0,1,,,,,,,,,,,,,,,,,,,,,,,,,,,,,,,,,,,,,,,,,
004549,001,2022-11-20_23h57.02.351,Info_measure_main_exp,2022.2.2,Win32,165.0982334,,,,,,,,,,,,,,,,,,masks/mask_002.jpg,,,,,,,,,,,,,,,,,,,,,,,,,,,,,,,,,,,,,,,,,,,,,,,,0,4,4,1,1,,,,,,,,,,,,,,,,,,,,,,,,,,,,,,,,,,,,,,,,,
004549,001,2022-11-20_23h57.02.351,Info_measure_main_exp,2022.2.2,Win32,165.0982334,,,,,,,,,,,,,,,,,,,,,,,,,,,,,,7,0.9091,1,,,,,,,,,,,,0,131,5,5,2082,2238,absent_patch/patch0002082.jpg,absent_patch/patch0002238.jpg,,,,,,,,,,,,,,,,,,,,0.064814815,0.099999993,1,0,0,response1disk,15,0.003703718,-0.003703718,1,0,0,center_square,0,14,14,22,1,,,,,,,,,,,,,,,,,,,,,,,
004549,001,2022-11-20_23h57.02.351,Info_measure_main_exp,2022.2.2,Win32,165.0982334,,,,,,,,,,,,,,,,,,masks/mask_004.jpg,,,,,,,,,,,,,,,,,,,,,,,,,,,,,,,,,,,,,,,,,,,0,0,0,3,1,,,,,,,,,,,,,,,,,,,,,,,,,,,,,,,,,,,,,,,,,,,,,,
004549,001,2022-11-20_23h57.02.351,Info_measure_main_exp,2022.2.2,Win32,165.0982334,,,,,,,,,,,,,,,,,,masks/mask_002.jpg,,,,,,,,,,,,,,,,,,,,,,,,,,,,,,,,,,,,,,,,,,,0,1,1,1,1,,,,,,,,,,,,,,,,,,,,,,,,,,,,,,,,,,,,,,,,,,,,,,
004549,001,2022-11-20_23h57.02.351,Info_measure_main_exp,2022.2.2,Win32,165.0982334,,,,,,,,,,,,,,,,,,masks/mask_003.jpg,,,,,,,,,,,,,,,,,,,,,,,,,,,,,,,,,,,,,,,,,,,0,2,2,2,1,,,,,,,,,,,,,,,,,,,,,,,,,,,,,,,,,,,,,,,,,,,,,,
004549,001,2022-11-20_23h57.02.351,Info_measure_main_exp,2022.2.2,Win32,165.0982334,,,,,,,,,,,,,,,,,,masks/mask_005.jpg,,,,,,,,,,,,,,,,,,,,,,,,,,,,,,,,,,,,,,,,,,,0,3,3,4,1,,,,,,,,,,,,,,,,,,,,,,,,,,,,,,,,,,,,,,,,,,,,,,
004549,001,2022-11-20_23h57.02.351,Info_measure_main_exp,2022.2.2,Win32,165.0982334,,,,,,,,,,,,,,,,,,masks/mask_001.jpg,,,,,,,,,,,,,,,,,,,,,,,,,,,,,,,,,,,,,,,,,,,0,4,4,0,1,,,,,,,,,,,,,,,,,,,,,,,,,,,,,,,,,,,,,,,,,,,,,,
004549,001,2022-11-20_23h57.02.351,Info_measure_main_exp,2022.2.2,Win32,165.0982334,,,,,,,,,,,,,,,,,,masks/mask_005.jpg,,,,,,,,,,,,,,,,,,,,,,,,,,,,,,,,,,,,,,,,,,,,,,,,0,0,0,4,1,,,,,,,,,,,,,,,,,,,,,,,,,,,,,,,,,,,,,,,,,
004549,001,2022-11-20_23h57.02.351,Info_measure_main_exp,2022.2.2,Win32,165.0982334,,,,,,,,,,,,,,,,,,masks/mask_003.jpg,,,,,,,,,,,,,,,,,,,,,,,,,,,,,,,,,,,,,,,,,,,,,,,,0,1,1,2,1,,,,,,,,,,,,,,,,,,,,,,,,,,,,,,,,,,,,,,,,,
004549,001,2022-11-20_23h57.02.351,Info_measure_main_exp,2022.2.2,Win32,165.0982334,,,,,,,,,,,,,,,,,,masks/mask_004.jpg,,,,,,,,,,,,,,,,,,,,,,,,,,,,,,,,,,,,,,,,,,,,,,,,0,2,2,3,1,,,,,,,,,,,,,,,,,,,,,,,,,,,,,,,,,,,,,,,,,
004549,001,2022-11-20_23h57.02.351,Info_measure_main_exp,2022.2.2,Win32,165.0982334,,,,,,,,,,,,,,,,,,masks/mask_002.jpg,,,,,,,,,,,,,,,,,,,,,,,,,,,,,,,,,,,,,,,,,,,,,,,,0,3,3,1,1,,,,,,,,,,,,,,,,,,,,,,,,,,,,,,,,,,,,,,,,,
004549,001,2022-11-20_23h57.02.351,Info_measure_main_exp,2022.2.2,Win32,165.0982334,,,,,,,,,,,,,,,,,,masks/mask_001.jpg,,,,,,,,,,,,,,,,,,,,,,,,,,,,,,,,,,,,,,,,,,,,,,,,0,4,4,0,1,,,,,,,,,,,,,,,,,,,,,,,,,,,,,,,,,,,,,,,,,
004549,001,2022-11-20_23h57.02.351,Info_measure_main_exp,2022.2.2,Win32,165.0982334,,,,,,,,,,,,,,,,,,,,,,,,,,,,,,7,0.8,1,,,,,,,,,,,,0,131,5,5,1950,2238,absent_patch/patch0001950.jpg,absent_patch/patch0002238.jpg,,,,,,,,,,,,,,,,,,,,0.037037037,0.081481474,1,0,0,response1disk,16,0.000925912,0.001851859,1,0,0,center_square,0,15,15,8,1,,,,,,,,,,,,,,,,,,,,,,,
004549,001,2022-11-20_23h57.02.351,Info_measure_main_exp,2022.2.2,Win32,165.0982334,,,,,,,,,,,,,,,,,,masks/mask_004.jpg,,,,,,,,,,,,,,,,,,,,,,,,,,,,,,,,,,,,,,,,,,,0,0,0,3,1,,,,,,,,,,,,,,,,,,,,,,,,,,,,,,,,,,,,,,,,,,,,,,
004549,001,2022-11-20_23h57.02.351,Info_measure_main_exp,2022.2.2,Win32,165.0982334,,,,,,,,,,,,,,,,,,masks/mask_001.jpg,,,,,,,,,,,,,,,,,,,,,,,,,,,,,,,,,,,,,,,,,,,0,1,1,0,1,,,,,,,,,,,,,,,,,,,,,,,,,,,,,,,,,,,,,,,,,,,,,,
004549,001,2022-11-20_23h57.02.351,Info_measure_main_exp,2022.2.2,Win32,165.0982334,,,,,,,,,,,,,,,,,,masks/mask_005.jpg,,,,,,,,,,,,,,,,,,,,,,,,,,,,,,,,,,,,,,,,,,,0,2,2,4,1,,,,,,,,,,,,,,,,,,,,,,,,,,,,,,,,,,,,,,,,,,,,,,
004549,001,2022-11-20_23h57.02.351,Info_measure_main_exp,2022.2.2,Win32,165.0982334,,,,,,,,,,,,,,,,,,masks/mask_002.jpg,,,,,,,,,,,,,,,,,,,,,,,,,,,,,,,,,,,,,,,,,,,0,3,3,1,1,,,,,,,,,,,,,,,,,,,,,,,,,,,,,,,,,,,,,,,,,,,,,,
004549,001,2022-11-20_23h57.02.351,Info_measure_main_exp,2022.2.2,Win32,165.0982334,,,,,,,,,,,,,,,,,,masks/mask_003.jpg,,,,,,,,,,,,,,,,,,,,,,,,,,,,,,,,,,,,,,,,,,,0,4,4,2,1,,,,,,,,,,,,,,,,,,,,,,,,,,,,,,,,,,,,,,,,,,,,,,
004549,001,2022-11-20_23h57.02.351,Info_measure_main_exp,2022.2.2,Win32,165.0982334,,,,,,,,,,,,,,,,,,masks/mask_004.jpg,,,,,,,,,,,,,,,,,,,,,,,,,,,,,,,,,,,,,,,,,,,,,,,,0,0,0,3,1,,,,,,,,,,,,,,,,,,,,,,,,,,,,,,,,,,,,,,,,,
004549,001,2022-11-20_23h57.02.351,Info_measure_main_exp,2022.2.2,Win32,165.0982334,,,,,,,,,,,,,,,,,,masks/mask_002.jpg,,,,,,,,,,,,,,,,,,,,,,,,,,,,,,,,,,,,,,,,,,,,,,,,0,1,1,1,1,,,,,,,,,,,,,,,,,,,,,,,,,,,,,,,,,,,,,,,,,
004549,001,2022-11-20_23h57.02.351,Info_measure_main_exp,2022.2.2,Win32,165.0982334,,,,,,,,,,,,,,,,,,masks/mask_005.jpg,,,,,,,,,,,,,,,,,,,,,,,,,,,,,,,,,,,,,,,,,,,,,,,,0,2,2,4,1,,,,,,,,,,,,,,,,,,,,,,,,,,,,,,,,,,,,,,,,,
004549,001,2022-11-20_23h57.02.351,Info_measure_main_exp,2022.2.2,Win32,165.0982334,,,,,,,,,,,,,,,,,,masks/mask_001.jpg,,,,,,,,,,,,,,,,,,,,,,,,,,,,,,,,,,,,,,,,,,,,,,,,0,3,3,0,1,,,,,,,,,,,,,,,,,,,,,,,,,,,,,,,,,,,,,,,,,
004549,001,2022-11-20_23h57.02.351,Info_measure_main_exp,2022.2.2,Win32,165.0982334,,,,,,,,,,,,,,,,,,masks/mask_003.jpg,,,,,,,,,,,,,,,,,,,,,,,,,,,,,,,,,,,,,,,,,,,,,,,,0,4,4,2,1,,,,,,,,,,,,,,,,,,,,,,,,,,,,,,,,,,,,,,,,,
004549,001,2022-11-20_23h57.02.351,Info_measure_main_exp,2022.2.2,Win32,165.0982334,,,,,,,,,,,,,,,,,,,,,,,,,,,,,,7,1.0424,1,,,,,,,,,,,,0,131,5,5,2190,2238,absent_patch/patch0002190.jpg,absent_patch/patch0002238.jpg,,,,,,,,,,,,,,,,,,,,0.037962949,0.082407386,1,0,0,response1disk,17,0.00462963,0.002777771,1,0,0,center_square,0,16,16,53,1,,,,,,,,,,,,,,,,,,,,,,,
004549,001,2022-11-20_23h57.02.351,Info_measure_main_exp,2022.2.2,Win32,165.0982334,,,,,,,,,,,,,,,,,,masks/mask_005.jpg,,,,,,,,,,,,,,,,,,,,,,,,,,,,,,,,,,,,,,,,,,,0,0,0,4,1,,,,,,,,,,,,,,,,,,,,,,,,,,,,,,,,,,,,,,,,,,,,,,
004549,001,2022-11-20_23h57.02.351,Info_measure_main_exp,2022.2.2,Win32,165.0982334,,,,,,,,,,,,,,,,,,masks/mask_004.jpg,,,,,,,,,,,,,,,,,,,,,,,,,,,,,,,,,,,,,,,,,,,0,1,1,3,1,,,,,,,,,,,,,,,,,,,,,,,,,,,,,,,,,,,,,,,,,,,,,,
004549,001,2022-11-20_23h57.02.351,Info_measure_main_exp,2022.2.2,Win32,165.0982334,,,,,,,,,,,,,,,,,,masks/mask_003.jpg,,,,,,,,,,,,,,,,,,,,,,,,,,,,,,,,,,,,,,,,,,,0,2,2,2,1,,,,,,,,,,,,,,,,,,,,,,,,,,,,,,,,,,,,,,,,,,,,,,
004549,001,2022-11-20_23h57.02.351,Info_measure_main_exp,2022.2.2,Win32,165.0982334,,,,,,,,,,,,,,,,,,masks/mask_001.jpg,,,,,,,,,,,,,,,,,,,,,,,,,,,,,,,,,,,,,,,,,,,0,3,3,0,1,,,,,,,,,,,,,,,,,,,,,,,,,,,,,,,,,,,,,,,,,,,,,,
004549,001,2022-11-20_23h57.02.351,Info_measure_main_exp,2022.2.2,Win32,165.0982334,,,,,,,,,,,,,,,,,,masks/mask_002.jpg,,,,,,,,,,,,,,,,,,,,,,,,,,,,,,,,,,,,,,,,,,,0,4,4,1,1,,,,,,,,,,,,,,,,,,,,,,,,,,,,,,,,,,,,,,,,,,,,,,
004549,001,2022-11-20_23h57.02.351,Info_measure_main_exp,2022.2.2,Win32,165.0982334,,,,,,,,,,,,,,,,,,masks/mask_005.jpg,,,,,,,,,,,,,,,,,,,,,,,,,,,,,,,,,,,,,,,,,,,,,,,,0,0,0,4,1,,,,,,,,,,,,,,,,,,,,,,,,,,,,,,,,,,,,,,,,,
004549,001,2022-11-20_23h57.02.351,Info_measure_main_exp,2022.2.2,Win32,165.0982334,,,,,,,,,,,,,,,,,,masks/mask_002.jpg,,,,,,,,,,,,,,,,,,,,,,,,,,,,,,,,,,,,,,,,,,,,,,,,0,1,1,1,1,,,,,,,,,,,,,,,,,,,,,,,,,,,,,,,,,,,,,,,,,
004549,001,2022-11-20_23h57.02.351,Info_measure_main_exp,2022.2.2,Win32,165.0982334,,,,,,,,,,,,,,,,,,masks/mask_001.jpg,,,,,,,,,,,,,,,,,,,,,,,,,,,,,,,,,,,,,,,,,,,,,,,,0,2,2,0,1,,,,,,,,,,,,,,,,,,,,,,,,,,,,,,,,,,,,,,,,,
004549,001,2022-11-20_23h57.02.351,Info_measure_main_exp,2022.2.2,Win32,165.0982334,,,,,,,,,,,,,,,,,,masks/mask_003.jpg,,,,,,,,,,,,,,,,,,,,,,,,,,,,,,,,,,,,,,,,,,,,,,,,0,3,3,2,1,,,,,,,,,,,,,,,,,,,,,,,,,,,,,,,,,,,,,,,,,
004549,001,2022-11-20_23h57.02.351,Info_measure_main_exp,2022.2.2,Win32,165.0982334,,,,,,,,,,,,,,,,,,masks/mask_004.jpg,,,,,,,,,,,,,,,,,,,,,,,,,,,,,,,,,,,,,,,,,,,,,,,,0,4,4,3,1,,,,,,,,,,,,,,,,,,,,,,,,,,,,,,,,,,,,,,,,,
004549,001,2022-11-20_23h57.02.351,Info_measure_main_exp,2022.2.2,Win32,165.0982334,,,,,,,,,,,,,,,,,,,,,,,,,,,,,,6,1.8243,1,,,,,,,,,,,,0,131,5,5,2298,1986,absent_patch/patch0002298.jpg,absent_patch/patch0001986.jpg,,,,,,,,,,,,,,,,,,,,0.070370356,0.01944443,1,0,0,response1disk,18,-0.006481453,-0.005555577,1,0,0,center_square,0,17,17,32,1,,,,,,,,,,,,,,,,,,,,,,,
004549,001,2022-11-20_23h57.02.351,Info_measure_main_exp,2022.2.2,Win32,165.0982334,,,,,,,,,,,,,,,,,,masks/mask_002.jpg,,,,,,,,,,,,,,,,,,,,,,,,,,,,,,,,,,,,,,,,,,,0,0,0,1,1,,,,,,,,,,,,,,,,,,,,,,,,,,,,,,,,,,,,,,,,,,,,,,
004549,001,2022-11-20_23h57.02.351,Info_measure_main_exp,2022.2.2,Win32,165.0982334,,,,,,,,,,,,,,,,,,masks/mask_005.jpg,,,,,,,,,,,,,,,,,,,,,,,,,,,,,,,,,,,,,,,,,,,0,1,1,4,1,,,,,,,,,,,,,,,,,,,,,,,,,,,,,,,,,,,,,,,,,,,,,,
004549,001,2022-11-20_23h57.02.351,Info_measure_main_exp,2022.2.2,Win32,165.0982334,,,,,,,,,,,,,,,,,,masks/mask_004.jpg,,,,,,,,,,,,,,,,,,,,,,,,,,,,,,,,,,,,,,,,,,,0,2,2,3,1,,,,,,,,,,,,,,,,,,,,,,,,,,,,,,,,,,,,,,,,,,,,,,
004549,001,2022-11-20_23h57.02.351,Info_measure_main_exp,2022.2.2,Win32,165.0982334,,,,,,,,,,,,,,,,,,masks/mask_003.jpg,,,,,,,,,,,,,,,,,,,,,,,,,,,,,,,,,,,,,,,,,,,0,3,3,2,1,,,,,,,,,,,,,,,,,,,,,,,,,,,,,,,,,,,,,,,,,,,,,,
004549,001,2022-11-20_23h57.02.351,Info_measure_main_exp,2022.2.2,Win32,165.0982334,,,,,,,,,,,,,,,,,,masks/mask_001.jpg,,,,,,,,,,,,,,,,,,,,,,,,,,,,,,,,,,,,,,,,,,,0,4,4,0,1,,,,,,,,,,,,,,,,,,,,,,,,,,,,,,,,,,,,,,,,,,,,,,
004549,001,2022-11-20_23h57.02.351,Info_measure_main_exp,2022.2.2,Win32,165.0982334,,,,,,,,,,,,,,,,,,masks/mask_004.jpg,,,,,,,,,,,,,,,,,,,,,,,,,,,,,,,,,,,,,,,,,,,,,,,,0,0,0,3,1,,,,,,,,,,,,,,,,,,,,,,,,,,,,,,,,,,,,,,,,,
004549,001,2022-11-20_23h57.02.351,Info_measure_main_exp,2022.2.2,Win32,165.0982334,,,,,,,,,,,,,,,,,,masks/mask_002.jpg,,,,,,,,,,,,,,,,,,,,,,,,,,,,,,,,,,,,,,,,,,,,,,,,0,1,1,1,1,,,,,,,,,,,,,,,,,,,,,,,,,,,,,,,,,,,,,,,,,
004549,001,2022-11-20_23h57.02.351,Info_measure_main_exp,2022.2.2,Win32,165.0982334,,,,,,,,,,,,,,,,,,masks/mask_005.jpg,,,,,,,,,,,,,,,,,,,,,,,,,,,,,,,,,,,,,,,,,,,,,,,,0,2,2,4,1,,,,,,,,,,,,,,,,,,,,,,,,,,,,,,,,,,,,,,,,,
004549,001,2022-11-20_23h57.02.351,Info_measure_main_exp,2022.2.2,Win32,165.0982334,,,,,,,,,,,,,,,,,,masks/mask_001.jpg,,,,,,,,,,,,,,,,,,,,,,,,,,,,,,,,,,,,,,,,,,,,,,,,0,3,3,0,1,,,,,,,,,,,,,,,,,,,,,,,,,,,,,,,,,,,,,,,,,
004549,001,2022-11-20_23h57.02.351,Info_measure_main_exp,2022.2.2,Win32,165.0982334,,,,,,,,,,,,,,,,,,masks/mask_003.jpg,,,,,,,,,,,,,,,,,,,,,,,,,,,,,,,,,,,,,,,,,,,,,,,,0,4,4,2,1,,,,,,,,,,,,,,,,,,,,,,,,,,,,,,,,,,,,,,,,,
004549,001,2022-11-20_23h57.02.351,Info_measure_main_exp,2022.2.2,Win32,165.0982334,,,,,,,,,,,,,,,,,,,,,,,,,,,,,,7,0.7393,1,,,,,,,,,,,,1,131,5,5,1,2142,present_patch/cong_131_5_a.jpg,absent_patch/patch0002142.jpg,,,,,,,,,,,,,,,,,,,,0.047222208,0.098148134,1,0,0,response1disk,19,0.002777806,0.00462963,1,0,0,center_square,0,18,18,80,1,,,,,,,,,,,,,,,,,,,,,,,
004549,001,2022-11-20_23h57.02.351,Info_measure_main_exp,2022.2.2,Win32,165.0982334,,,,,,,,,,,,,,,,,,masks/mask_004.jpg,,,,,,,,,,,,,,,,,,,,,,,,,,,,,,,,,,,,,,,,,,,0,0,0,3,1,,,,,,,,,,,,,,,,,,,,,,,,,,,,,,,,,,,,,,,,,,,,,,
004549,001,2022-11-20_23h57.02.351,Info_measure_main_exp,2022.2.2,Win32,165.0982334,,,,,,,,,,,,,,,,,,masks/mask_001.jpg,,,,,,,,,,,,,,,,,,,,,,,,,,,,,,,,,,,,,,,,,,,0,1,1,0,1,,,,,,,,,,,,,,,,,,,,,,,,,,,,,,,,,,,,,,,,,,,,,,
004549,001,2022-11-20_23h57.02.351,Info_measure_main_exp,2022.2.2,Win32,165.0982334,,,,,,,,,,,,,,,,,,masks/mask_002.jpg,,,,,,,,,,,,,,,,,,,,,,,,,,,,,,,,,,,,,,,,,,,0,2,2,1,1,,,,,,,,,,,,,,,,,,,,,,,,,,,,,,,,,,,,,,,,,,,,,,
004549,001,2022-11-20_23h57.02.351,Info_measure_main_exp,2022.2.2,Win32,165.0982334,,,,,,,,,,,,,,,,,,masks/mask_003.jpg,,,,,,,,,,,,,,,,,,,,,,,,,,,,,,,,,,,,,,,,,,,0,3,3,2,1,,,,,,,,,,,,,,,,,,,,,,,,,,,,,,,,,,,,,,,,,,,,,,
004549,001,2022-11-20_23h57.02.351,Info_measure_main_exp,2022.2.2,Win32,165.0982334,,,,,,,,,,,,,,,,,,masks/mask_005.jpg,,,,,,,,,,,,,,,,,,,,,,,,,,,,,,,,,,,,,,,,,,,0,4,4,4,1,,,,,,,,,,,,,,,,,,,,,,,,,,,,,,,,,,,,,,,,,,,,,,
004549,001,2022-11-20_23h57.02.351,Info_measure_main_exp,2022.2.2,Win32,165.0982334,,,,,,,,,,,,,,,,,,masks/mask_002.jpg,,,,,,,,,,,,,,,,,,,,,,,,,,,,,,,,,,,,,,,,,,,,,,,,0,0,0,1,1,,,,,,,,,,,,,,,,,,,,,,,,,,,,,,,,,,,,,,,,,
004549,001,2022-11-20_23h57.02.351,Info_measure_main_exp,2022.2.2,Win32,165.0982334,,,,,,,,,,,,,,,,,,masks/mask_001.jpg,,,,,,,,,,,,,,,,,,,,,,,,,,,,,,,,,,,,,,,,,,,,,,,,0,1,1,0,1,,,,,,,,,,,,,,,,,,,,,,,,,,,,,,,,,,,,,,,,,
004549,001,2022-11-20_23h57.02.351,Info_measure_main_exp,2022.2.2,Win32,165.0982334,,,,,,,,,,,,,,,,,,masks/mask_003.jpg,,,,,,,,,,,,,,,,,,,,,,,,,,,,,,,,,,,,,,,,,,,,,,,,0,2,2,2,1,,,,,,,,,,,,,,,,,,,,,,,,,,,,,,,,,,,,,,,,,
004549,001,2022-11-20_23h57.02.351,Info_measure_main_exp,2022.2.2,Win32,165.0982334,,,,,,,,,,,,,,,,,,masks/mask_004.jpg,,,,,,,,,,,,,,,,,,,,,,,,,,,,,,,,,,,,,,,,,,,,,,,,0,3,3,3,1,,,,,,,,,,,,,,,,,,,,,,,,,,,,,,,,,,,,,,,,,
004549,001,2022-11-20_23h57.02.351,Info_measure_main_exp,2022.2.2,Win32,165.0982334,,,,,,,,,,,,,,,,,,masks/mask_005.jpg,,,,,,,,,,,,,,,,,,,,,,,,,,,,,,,,,,,,,,,,,,,,,,,,0,4,4,4,1,,,,,,,,,,,,,,,,,,,,,,,,,,,,,,,,,,,,,,,,,
004549,001,2022-11-20_23h57.02.351,Info_measure_main_exp,2022.2.2,Win32,165.0982334,,,,,,,,,,,,,,,,,,,,,,,,,,,,,,6,0.9879,1,,,,,,,,,,,,0,131,5,5,2166,1986,absent_patch/patch0002166.jpg,absent_patch/patch0001986.jpg,,,,,,,,,,,,,,,,,,,,0.050000014,0.020370377,1,0,0,response1disk,20,-0.001851824,-0.00462963,1,0,0,center_square,0,19,19,47,1,,,,,,,,,,,,,,,,,,,,,,,
004549,001,2022-11-20_23h57.02.351,Info_measure_main_exp,2022.2.2,Win32,165.0982334,,,,,,,,,,,,,,,,,,masks/mask_002.jpg,,,,,,,,,,,,,,,,,,,,,,,,,,,,,,,,,,,,,,,,,,,0,0,0,1,1,,,,,,,,,,,,,,,,,,,,,,,,,,,,,,,,,,,,,,,,,,,,,,
004549,001,2022-11-20_23h57.02.351,Info_measure_main_exp,2022.2.2,Win32,165.0982334,,,,,,,,,,,,,,,,,,masks/mask_004.jpg,,,,,,,,,,,,,,,,,,,,,,,,,,,,,,,,,,,,,,,,,,,0,1,1,3,1,,,,,,,,,,,,,,,,,,,,,,,,,,,,,,,,,,,,,,,,,,,,,,
004549,001,2022-11-20_23h57.02.351,Info_measure_main_exp,2022.2.2,Win32,165.0982334,,,,,,,,,,,,,,,,,,masks/mask_003.jpg,,,,,,,,,,,,,,,,,,,,,,,,,,,,,,,,,,,,,,,,,,,0,2,2,2,1,,,,,,,,,,,,,,,,,,,,,,,,,,,,,,,,,,,,,,,,,,,,,,
004549,001,2022-11-20_23h57.02.351,Info_measure_main_exp,2022.2.2,Win32,165.0982334,,,,,,,,,,,,,,,,,,masks/mask_001.jpg,,,,,,,,,,,,,,,,,,,,,,,,,,,,,,,,,,,,,,,,,,,0,3,3,0,1,,,,,,,,,,,,,,,,,,,,,,,,,,,,,,,,,,,,,,,,,,,,,,
004549,001,2022-11-20_23h57.02.351,Info_measure_main_exp,2022.2.2,Win32,165.0982334,,,,,,,,,,,,,,,,,,masks/mask_005.jpg,,,,,,,,,,,,,,,,,,,,,,,,,,,,,,,,,,,,,,,,,,,0,4,4,4,1,,,,,,,,,,,,,,,,,,,,,,,,,,,,,,,,,,,,,,,,,,,,,,
004549,001,2022-11-20_23h57.02.351,Info_measure_main_exp,2022.2.2,Win32,165.0982334,,,,,,,,,,,,,,,,,,masks/mask_005.jpg,,,,,,,,,,,,,,,,,,,,,,,,,,,,,,,,,,,,,,,,,,,,,,,,0,0,0,4,1,,,,,,,,,,,,,,,,,,,,,,,,,,,,,,,,,,,,,,,,,
004549,001,2022-11-20_23h57.02.351,Info_measure_main_exp,2022.2.2,Win32,165.0982334,,,,,,,,,,,,,,,,,,masks/mask_004.jpg,,,,,,,,,,,,,,,,,,,,,,,,,,,,,,,,,,,,,,,,,,,,,,,,0,1,1,3,1,,,,,,,,,,,,,,,,,,,,,,,,,,,,,,,,,,,,,,,,,
004549,001,2022-11-20_23h57.02.351,Info_measure_main_exp,2022.2.2,Win32,165.0982334,,,,,,,,,,,,,,,,,,masks/mask_001.jpg,,,,,,,,,,,,,,,,,,,,,,,,,,,,,,,,,,,,,,,,,,,,,,,,0,2,2,0,1,,,,,,,,,,,,,,,,,,,,,,,,,,,,,,,,,,,,,,,,,
004549,001,2022-11-20_23h57.02.351,Info_measure_main_exp,2022.2.2,Win32,165.0982334,,,,,,,,,,,,,,,,,,masks/mask_002.jpg,,,,,,,,,,,,,,,,,,,,,,,,,,,,,,,,,,,,,,,,,,,,,,,,0,3,3,1,1,,,,,,,,,,,,,,,,,,,,,,,,,,,,,,,,,,,,,,,,,
004549,001,2022-11-20_23h57.02.351,Info_measure_main_exp,2022.2.2,Win32,165.0982334,,,,,,,,,,,,,,,,,,masks/mask_003.jpg,,,,,,,,,,,,,,,,,,,,,,,,,,,,,,,,,,,,,,,,,,,,,,,,0,4,4,2,1,,,,,,,,,,,,,,,,,,,,,,,,,,,,,,,,,,,,,,,,,
004549,001,2022-11-20_23h57.02.351,Info_measure_main_exp,2022.2.2,Win32,165.0982334,,,,,,,,,,,,,,,,,,,,,,,,,,,,,,0,0.6729,1,,,,,,,,,,,,0,131,5,5,1974,1974,absent_patch/patch0001974.jpg,absent_patch/patch0001974.jpg,,,,,,,,,,,,,,,,,,,,-0.044444402,0.066666674,1,0,0,response7disk,21,0.002777806,-0.00462963,1,0,0,center_square,0,20,20,113,1,,,,,,,,,,,,,,,,,,,,,,,
004549,001,2022-11-20_23h57.02.351,Info_measure_main_exp,2022.2.2,Win32,165.0982334,,,,,,,,,,,,,,,,,,masks/mask_003.jpg,,,,,,,,,,,,,,,,,,,,,,,,,,,,,,,,,,,,,,,,,,,0,0,0,2,1,,,,,,,,,,,,,,,,,,,,,,,,,,,,,,,,,,,,,,,,,,,,,,
004549,001,2022-11-20_23h57.02.351,Info_measure_main_exp,2022.2.2,Win32,165.0982334,,,,,,,,,,,,,,,,,,masks/mask_002.jpg,,,,,,,,,,,,,,,,,,,,,,,,,,,,,,,,,,,,,,,,,,,0,1,1,1,1,,,,,,,,,,,,,,,,,,,,,,,,,,,,,,,,,,,,,,,,,,,,,,
004549,001,2022-11-20_23h57.02.351,Info_measure_main_exp,2022.2.2,Win32,165.0982334,,,,,,,,,,,,,,,,,,masks/mask_001.jpg,,,,,,,,,,,,,,,,,,,,,,,,,,,,,,,,,,,,,,,,,,,0,2,2,0,1,,,,,,,,,,,,,,,,,,,,,,,,,,,,,,,,,,,,,,,,,,,,,,
004549,001,2022-11-20_23h57.02.351,Info_measure_main_exp,2022.2.2,Win32,165.0982334,,,,,,,,,,,,,,,,,,masks/mask_004.jpg,,,,,,,,,,,,,,,,,,,,,,,,,,,,,,,,,,,,,,,,,,,0,3,3,3,1,,,,,,,,,,,,,,,,,,,,,,,,,,,,,,,,,,,,,,,,,,,,,,
004549,001,2022-11-20_23h57.02.351,Info_measure_main_exp,2022.2.2,Win32,165.0982334,,,,,,,,,,,,,,,,,,masks/mask_005.jpg,,,,,,,,,,,,,,,,,,,,,,,,,,,,,,,,,,,,,,,,,,,0,4,4,4,1,,,,,,,,,,,,,,,,,,,,,,,,,,,,,,,,,,,,,,,,,,,,,,
004549,001,2022-11-20_23h57.02.351,Info_measure_main_exp,2022.2.2,Win32,165.0982334,,,,,,,,,,,,,,,,,,masks/mask_001.jpg,,,,,,,,,,,,,,,,,,,,,,,,,,,,,,,,,,,,,,,,,,,,,,,,0,0,0,0,1,,,,,,,,,,,,,,,,,,,,,,,,,,,,,,,,,,,,,,,,,
004549,001,2022-11-20_23h57.02.351,Info_measure_main_exp,2022.2.2,Win32,165.0982334,,,,,,,,,,,,,,,,,,masks/mask_004.jpg,,,,,,,,,,,,,,,,,,,,,,,,,,,,,,,,,,,,,,,,,,,,,,,,0,1,1,3,1,,,,,,,,,,,,,,,,,,,,,,,,,,,,,,,,,,,,,,,,,
004549,001,2022-11-20_23h57.02.351,Info_measure_main_exp,2022.2.2,Win32,165.0982334,,,,,,,,,,,,,,,,,,masks/mask_003.jpg,,,,,,,,,,,,,,,,,,,,,,,,,,,,,,,,,,,,,,,,,,,,,,,,0,2,2,2,1,,,,,,,,,,,,,,,,,,,,,,,,,,,,,,,,,,,,,,,,,
004549,001,2022-11-20_23h57.02.351,Info_measure_main_exp,2022.2.2,Win32,165.0982334,,,,,,,,,,,,,,,,,,masks/mask_002.jpg,,,,,,,,,,,,,,,,,,,,,,,,,,,,,,,,,,,,,,,,,,,,,,,,0,3,3,1,1,,,,,,,,,,,,,,,,,,,,,,,,,,,,,,,,,,,,,,,,,
004549,001,2022-11-20_23h57.02.351,Info_measure_main_exp,2022.2.2,Win32,165.0982334,,,,,,,,,,,,,,,,,,masks/mask_005.jpg,,,,,,,,,,,,,,,,,,,,,,,,,,,,,,,,,,,,,,,,,,,,,,,,0,4,4,4,1,,,,,,,,,,,,,,,,,,,,,,,,,,,,,,,,,,,,,,,,,
004549,001,2022-11-20_23h57.02.351,Info_measure_main_exp,2022.2.2,Win32,165.0982334,,,,,,,,,,,,,,,,,,,,,,,,,,,,,,7,1.3514,1,,,,,,,,,,,,0,131,5,5,2190,2250,absent_patch/patch0002190.jpg,absent_patch/patch0002250.jpg,,,,,,,,,,,,,,,,,,,,0.037037037,0.084259245,1,0,0,response1disk,22,0.002777806,-0.001851859,1,0,0,center_square,0,21,21,93,1,,,,,,,,,,,,,,,,,,,,,,,
004549,001,2022-11-20_23h57.02.351,Info_measure_main_exp,2022.2.2,Win32,165.0982334,,,,,,,,,,,,,,,,,,masks/mask_005.jpg,,,,,,,,,,,,,,,,,,,,,,,,,,,,,,,,,,,,,,,,,,,0,0,0,4,1,,,,,,,,,,,,,,,,,,,,,,,,,,,,,,,,,,,,,,,,,,,,,,
004549,001,2022-11-20_23h57.02.351,Info_measure_main_exp,2022.2.2,Win32,165.0982334,,,,,,,,,,,,,,,,,,masks/mask_003.jpg,,,,,,,,,,,,,,,,,,,,,,,,,,,,,,,,,,,,,,,,,,,0,1,1,2,1,,,,,,,,,,,,,,,,,,,,,,,,,,,,,,,,,,,,,,,,,,,,,,
004549,001,2022-11-20_23h57.02.351,Info_measure_main_exp,2022.2.2,Win32,165.0982334,,,,,,,,,,,,,,,,,,masks/mask_004.jpg,,,,,,,,,,,,,,,,,,,,,,,,,,,,,,,,,,,,,,,,,,,0,2,2,3,1,,,,,,,,,,,,,,,,,,,,,,,,,,,,,,,,,,,,,,,,,,,,,,
004549,001,2022-11-20_23h57.02.351,Info_measure_main_exp,2022.2.2,Win32,165.0982334,,,,,,,,,,,,,,,,,,masks/mask_001.jpg,,,,,,,,,,,,,,,,,,,,,,,,,,,,,,,,,,,,,,,,,,,0,3,3,0,1,,,,,,,,,,,,,,,,,,,,,,,,,,,,,,,,,,,,,,,,,,,,,,
004549,001,2022-11-20_23h57.02.351,Info_measure_main_exp,2022.2.2,Win32,165.0982334,,,,,,,,,,,,,,,,,,masks/mask_002.jpg,,,,,,,,,,,,,,,,,,,,,,,,,,,,,,,,,,,,,,,,,,,0,4,4,1,1,,,,,,,,,,,,,,,,,,,,,,,,,,,,,,,,,,,,,,,,,,,,,,
004549,001,2022-11-20_23h57.02.351,Info_measure_main_exp,2022.2.2,Win32,165.0982334,,,,,,,,,,,,,,,,,,masks/mask_003.jpg,,,,,,,,,,,,,,,,,,,,,,,,,,,,,,,,,,,,,,,,,,,,,,,,0,0,0,2,1,,,,,,,,,,,,,,,,,,,,,,,,,,,,,,,,,,,,,,,,,
004549,001,2022-11-20_23h57.02.351,Info_measure_main_exp,2022.2.2,Win32,165.0982334,,,,,,,,,,,,,,,,,,masks/mask_002.jpg,,,,,,,,,,,,,,,,,,,,,,,,,,,,,,,,,,,,,,,,,,,,,,,,0,1,1,1,1,,,,,,,,,,,,,,,,,,,,,,,,,,,,,,,,,,,,,,,,,
004549,001,2022-11-20_23h57.02.351,Info_measure_main_exp,2022.2.2,Win32,165.0982334,,,,,,,,,,,,,,,,,,masks/mask_001.jpg,,,,,,,,,,,,,,,,,,,,,,,,,,,,,,,,,,,,,,,,,,,,,,,,0,2,2,0,1,,,,,,,,,,,,,,,,,,,,,,,,,,,,,,,,,,,,,,,,,
004549,001,2022-11-20_23h57.02.351,Info_measure_main_exp,2022.2.2,Win32,165.0982334,,,,,,,,,,,,,,,,,,masks/mask_005.jpg,,,,,,,,,,,,,,,,,,,,,,,,,,,,,,,,,,,,,,,,,,,,,,,,0,3,3,4,1,,,,,,,,,,,,,,,,,,,,,,,,,,,,,,,,,,,,,,,,,
004549,001,2022-11-20_23h57.02.351,Info_measure_main_exp,2022.2.2,Win32,165.0982334,,,,,,,,,,,,,,,,,,masks/mask_004.jpg,,,,,,,,,,,,,,,,,,,,,,,,,,,,,,,,,,,,,,,,,,,,,,,,0,4,4,3,1,,,,,,,,,,,,,,,,,,,,,,,,,,,,,,,,,,,,,,,,,
004549,001,2022-11-20_23h57.02.351,Info_measure_main_exp,2022.2.2,Win32,165.0982334,,,,,,,,,,,,,,,,,,,,,,,,,,,,,,7,0.7213,1,,,,,,,,,,,,0,131,5,5,2190,1974,absent_patch/patch0002190.jpg,absent_patch/patch0001974.jpg,,,,,,,,,,,,,,,,,,,,0.029629672,0.074074074,1,0,0,response1disk,23,-0.00462963,0.000925912,1,0,0,center_square,0,22,22,119,1,,,,,,,,,,,,,,,,,,,,,,,
004549,001,2022-11-20_23h57.02.351,Info_measure_main_exp,2022.2.2,Win32,165.0982334,,,,,,,,,,,,,,,,,,masks/mask_002.jpg,,,,,,,,,,,,,,,,,,,,,,,,,,,,,,,,,,,,,,,,,,,0,0,0,1,1,,,,,,,,,,,,,,,,,,,,,,,,,,,,,,,,,,,,,,,,,,,,,,
004549,001,2022-11-20_23h57.02.351,Info_measure_main_exp,2022.2.2,Win32,165.0982334,,,,,,,,,,,,,,,,,,masks/mask_004.jpg,,,,,,,,,,,,,,,,,,,,,,,,,,,,,,,,,,,,,,,,,,,0,1,1,3,1,,,,,,,,,,,,,,,,,,,,,,,,,,,,,,,,,,,,,,,,,,,,,,
004549,001,2022-11-20_23h57.02.351,Info_measure_main_exp,2022.2.2,Win32,165.0982334,,,,,,,,,,,,,,,,,,masks/mask_001.jpg,,,,,,,,,,,,,,,,,,,,,,,,,,,,,,,,,,,,,,,,,,,0,2,2,0,1,,,,,,,,,,,,,,,,,,,,,,,,,,,,,,,,,,,,,,,,,,,,,,
004549,001,2022-11-20_23h57.02.351,Info_measure_main_exp,2022.2.2,Win32,165.0982334,,,,,,,,,,,,,,,,,,masks/mask_003.jpg,,,,,,,,,,,,,,,,,,,,,,,,,,,,,,,,,,,,,,,,,,,0,3,3,2,1,,,,,,,,,,,,,,,,,,,,,,,,,,,,,,,,,,,,,,,,,,,,,,
004549,001,2022-11-20_23h57.02.351,Info_measure_main_exp,2022.2.2,Win32,165.0982334,,,,,,,,,,,,,,,,,,masks/mask_005.jpg,,,,,,,,,,,,,,,,,,,,,,,,,,,,,,,,,,,,,,,,,,,0,4,4,4,1,,,,,,,,,,,,,,,,,,,,,,,,,,,,,,,,,,,,,,,,,,,,,,
004549,001,2022-11-20_23h57.02.351,Info_measure_main_exp,2022.2.2,Win32,165.0982334,,,,,,,,,,,,,,,,,,masks/mask_001.jpg,,,,,,,,,,,,,,,,,,,,,,,,,,,,,,,,,,,,,,,,,,,,,,,,0,0,0,0,1,,,,,,,,,,,,,,,,,,,,,,,,,,,,,,,,,,,,,,,,,
004549,001,2022-11-20_23h57.02.351,Info_measure_main_exp,2022.2.2,Win32,165.0982334,,,,,,,,,,,,,,,,,,masks/mask_002.jpg,,,,,,,,,,,,,,,,,,,,,,,,,,,,,,,,,,,,,,,,,,,,,,,,0,1,1,1,1,,,,,,,,,,,,,,,,,,,,,,,,,,,,,,,,,,,,,,,,,
004549,001,2022-11-20_23h57.02.351,Info_measure_main_exp,2022.2.2,Win32,165.0982334,,,,,,,,,,,,,,,,,,masks/mask_004.jpg,,,,,,,,,,,,,,,,,,,,,,,,,,,,,,,,,,,,,,,,,,,,,,,,0,2,2,3,1,,,,,,,,,,,,,,,,,,,,,,,,,,,,,,,,,,,,,,,,,
004549,001,2022-11-20_23h57.02.351,Info_measure_main_exp,2022.2.2,Win32,165.0982334,,,,,,,,,,,,,,,,,,masks/mask_003.jpg,,,,,,,,,,,,,,,,,,,,,,,,,,,,,,,,,,,,,,,,,,,,,,,,0,3,3,2,1,,,,,,,,,,,,,,,,,,,,,,,,,,,,,,,,,,,,,,,,,
004549,001,2022-11-20_23h57.02.351,Info_measure_main_exp,2022.2.2,Win32,165.0982334,,,,,,,,,,,,,,,,,,masks/mask_005.jpg,,,,,,,,,,,,,,,,,,,,,,,,,,,,,,,,,,,,,,,,,,,,,,,,0,4,4,4,1,,,,,,,,,,,,,,,,,,,,,,,,,,,,,,,,,,,,,,,,,
004549,001,2022-11-20_23h57.02.351,Info_measure_main_exp,2022.2.2,Win32,165.0982334,,,,,,,,,,,,,,,,,,,,,,,,,,,,,,7,0.6242,1,,,,,,,,,,,,0,131,5,5,1950,2166,absent_patch/patch0001950.jpg,absent_patch/patch0002166.jpg,,,,,,,,,,,,,,,,,,,,0.016666695,0.044444437,1,0,0,response1disk,24,0.003703718,0.00462963,1,0,0,center_square,0,23,23,0,1,,,,,,,,,,,,,,,,,,,,,,,
004549,001,2022-11-20_23h57.02.351,Info_measure_main_exp,2022.2.2,Win32,165.0982334,,,,,,,,,,,,,,,,,,masks/mask_003.jpg,,,,,,,,,,,,,,,,,,,,,,,,,,,,,,,,,,,,,,,,,,,0,0,0,2,1,,,,,,,,,,,,,,,,,,,,,,,,,,,,,,,,,,,,,,,,,,,,,,
004549,001,2022-11-20_23h57.02.351,Info_measure_main_exp,2022.2.2,Win32,165.0982334,,,,,,,,,,,,,,,,,,masks/mask_002.jpg,,,,,,,,,,,,,,,,,,,,,,,,,,,,,,,,,,,,,,,,,,,0,1,1,1,1,,,,,,,,,,,,,,,,,,,,,,,,,,,,,,,,,,,,,,,,,,,,,,
004549,001,2022-11-20_23h57.02.351,Info_measure_main_exp,2022.2.2,Win32,165.0982334,,,,,,,,,,,,,,,,,,masks/mask_005.jpg,,,,,,,,,,,,,,,,,,,,,,,,,,,,,,,,,,,,,,,,,,,0,2,2,4,1,,,,,,,,,,,,,,,,,,,,,,,,,,,,,,,,,,,,,,,,,,,,,,
004549,001,2022-11-20_23h57.02.351,Info_measure_main_exp,2022.2.2,Win32,165.0982334,,,,,,,,,,,,,,,,,,masks/mask_001.jpg,,,,,,,,,,,,,,,,,,,,,,,,,,,,,,,,,,,,,,,,,,,0,3,3,0,1,,,,,,,,,,,,,,,,,,,,,,,,,,,,,,,,,,,,,,,,,,,,,,
004549,001,2022-11-20_23h57.02.351,Info_measure_main_exp,2022.2.2,Win32,165.0982334,,,,,,,,,,,,,,,,,,masks/mask_004.jpg,,,,,,,,,,,,,,,,,,,,,,,,,,,,,,,,,,,,,,,,,,,0,4,4,3,1,,,,,,,,,,,,,,,,,,,,,,,,,,,,,,,,,,,,,,,,,,,,,,
004549,001,2022-11-20_23h57.02.351,Info_measure_main_exp,2022.2.2,Win32,165.0982334,,,,,,,,,,,,,,,,,,masks/mask_005.jpg,,,,,,,,,,,,,,,,,,,,,,,,,,,,,,,,,,,,,,,,,,,,,,,,0,0,0,4,1,,,,,,,,,,,,,,,,,,,,,,,,,,,,,,,,,,,,,,,,,
004549,001,2022-11-20_23h57.02.351,Info_measure_main_exp,2022.2.2,Win32,165.0982334,,,,,,,,,,,,,,,,,,masks/mask_004.jpg,,,,,,,,,,,,,,,,,,,,,,,,,,,,,,,,,,,,,,,,,,,,,,,,0,1,1,3,1,,,,,,,,,,,,,,,,,,,,,,,,,,,,,,,,,,,,,,,,,
004549,001,2022-11-20_23h57.02.351,Info_measure_main_exp,2022.2.2,Win32,165.0982334,,,,,,,,,,,,,,,,,,masks/mask_001.jpg,,,,,,,,,,,,,,,,,,,,,,,,,,,,,,,,,,,,,,,,,,,,,,,,0,2,2,0,1,,,,,,,,,,,,,,,,,,,,,,,,,,,,,,,,,,,,,,,,,
004549,001,2022-11-20_23h57.02.351,Info_measure_main_exp,2022.2.2,Win32,165.0982334,,,,,,,,,,,,,,,,,,masks/mask_002.jpg,,,,,,,,,,,,,,,,,,,,,,,,,,,,,,,,,,,,,,,,,,,,,,,,0,3,3,1,1,,,,,,,,,,,,,,,,,,,,,,,,,,,,,,,,,,,,,,,,,
004549,001,2022-11-20_23h57.02.351,Info_measure_main_exp,2022.2.2,Win32,165.0982334,,,,,,,,,,,,,,,,,,masks/mask_003.jpg,,,,,,,,,,,,,,,,,,,,,,,,,,,,,,,,,,,,,,,,,,,,,,,,0,4,4,2,1,,,,,,,,,,,,,,,,,,,,,,,,,,,,,,,,,,,,,,,,,
004549,001,2022-11-20_23h57.02.351,Info_measure_main_exp,2022.2.2,Win32,165.0982334,,,,,,,,,,,,,,,,,,,,,,,,,,,,,,7,0.7334,1,,,,,,,,,,,,1,131,5,5,1,2214,present_patch/cong_131_5_a.jpg,absent_patch/patch0002214.jpg,,,,,,,,,,,,,,,,,,,,0.032407407,0.080555563,1,0,0,response1disk,25,0,-0.000925947,1,0,0,center_square,0,24,24,4,1,,,,,,,,,,,,,,,,,,,,,,,
004549,001,2022-11-20_23h57.02.351,Info_measure_main_exp,2022.2.2,Win32,165.0982334,,,,,,,,,,,,,,,,,,masks/mask_005.jpg,,,,,,,,,,,,,,,,,,,,,,,,,,,,,,,,,,,,,,,,,,,0,0,0,4,1,,,,,,,,,,,,,,,,,,,,,,,,,,,,,,,,,,,,,,,,,,,,,,
004549,001,2022-11-20_23h57.02.351,Info_measure_main_exp,2022.2.2,Win32,165.0982334,,,,,,,,,,,,,,,,,,masks/mask_003.jpg,,,,,,,,,,,,,,,,,,,,,,,,,,,,,,,,,,,,,,,,,,,0,1,1,2,1,,,,,,,,,,,,,,,,,,,,,,,,,,,,,,,,,,,,,,,,,,,,,,
004549,001,2022-11-20_23h57.02.351,Info_measure_main_exp,2022.2.2,Win32,165.0982334,,,,,,,,,,,,,,,,,,masks/mask_004.jpg,,,,,,,,,,,,,,,,,,,,,,,,,,,,,,,,,,,,,,,,,,,0,2,2,3,1,,,,,,,,,,,,,,,,,,,,,,,,,,,,,,,,,,,,,,,,,,,,,,
004549,001,2022-11-20_23h57.02.351,Info_measure_main_exp,2022.2.2,Win32,165.0982334,,,,,,,,,,,,,,,,,,masks/mask_001.jpg,,,,,,,,,,,,,,,,,,,,,,,,,,,,,,,,,,,,,,,,,,,0,3,3,0,1,,,,,,,,,,,,,,,,,,,,,,,,,,,,,,,,,,,,,,,,,,,,,,
004549,001,2022-11-20_23h57.02.351,Info_measure_main_exp,2022.2.2,Win32,165.0982334,,,,,,,,,,,,,,,,,,masks/mask_002.jpg,,,,,,,,,,,,,,,,,,,,,,,,,,,,,,,,,,,,,,,,,,,0,4,4,1,1,,,,,,,,,,,,,,,,,,,,,,,,,,,,,,,,,,,,,,,,,,,,,,
004549,001,2022-11-20_23h57.02.351,Info_measure_main_exp,2022.2.2,Win32,165.0982334,,,,,,,,,,,,,,,,,,masks/mask_001.jpg,,,,,,,,,,,,,,,,,,,,,,,,,,,,,,,,,,,,,,,,,,,,,,,,0,0,0,0,1,,,,,,,,,,,,,,,,,,,,,,,,,,,,,,,,,,,,,,,,,
004549,001,2022-11-20_23h57.02.351,Info_measure_main_exp,2022.2.2,Win32,165.0982334,,,,,,,,,,,,,,,,,,masks/mask_004.jpg,,,,,,,,,,,,,,,,,,,,,,,,,,,,,,,,,,,,,,,,,,,,,,,,0,1,1,3,1,,,,,,,,,,,,,,,,,,,,,,,,,,,,,,,,,,,,,,,,,
004549,001,2022-11-20_23h57.02.351,Info_measure_main_exp,2022.2.2,Win32,165.0982334,,,,,,,,,,,,,,,,,,masks/mask_003.jpg,,,,,,,,,,,,,,,,,,,,,,,,,,,,,,,,,,,,,,,,,,,,,,,,0,2,2,2,1,,,,,,,,,,,,,,,,,,,,,,,,,,,,,,,,,,,,,,,,,
004549,001,2022-11-20_23h57.02.351,Info_measure_main_exp,2022.2.2,Win32,165.0982334,,,,,,,,,,,,,,,,,,masks/mask_005.jpg,,,,,,,,,,,,,,,,,,,,,,,,,,,,,,,,,,,,,,,,,,,,,,,,0,3,3,4,1,,,,,,,,,,,,,,,,,,,,,,,,,,,,,,,,,,,,,,,,,
004549,001,2022-11-20_23h57.02.351,Info_measure_main_exp,2022.2.2,Win32,165.0982334,,,,,,,,,,,,,,,,,,masks/mask_002.jpg,,,,,,,,,,,,,,,,,,,,,,,,,,,,,,,,,,,,,,,,,,,,,,,,0,4,4,1,1,,,,,,,,,,,,,,,,,,,,,,,,,,,,,,,,,,,,,,,,,
004549,001,2022-11-20_23h57.02.351,Info_measure_main_exp,2022.2.2,Win32,165.0982334,,,,,,,,,,,,,,,,,,,,,,,,,,,,,,7,0.8364,1,,,,,,,,,,,,0,131,5,5,2250,1986,absent_patch/patch0002250.jpg,absent_patch/patch0001986.jpg,,,,,,,,,,,,,,,,,,,,0.025000042,0.057407414,1,0,0,response1disk,26,-0.002777735,0.000925912,1,0,0,center_square,0,25,25,29,1,,,,,,,,,,,,,,,,,,,,,,,
004549,001,2022-11-20_23h57.02.351,Info_measure_main_exp,2022.2.2,Win32,165.0982334,,,,,,,,,,,,,,,,,,masks/mask_005.jpg,,,,,,,,,,,,,,,,,,,,,,,,,,,,,,,,,,,,,,,,,,,0,0,0,4,1,,,,,,,,,,,,,,,,,,,,,,,,,,,,,,,,,,,,,,,,,,,,,,
004549,001,2022-11-20_23h57.02.351,Info_measure_main_exp,2022.2.2,Win32,165.0982334,,,,,,,,,,,,,,,,,,masks/mask_004.jpg,,,,,,,,,,,,,,,,,,,,,,,,,,,,,,,,,,,,,,,,,,,0,1,1,3,1,,,,,,,,,,,,,,,,,,,,,,,,,,,,,,,,,,,,,,,,,,,,,,
004549,001,2022-11-20_23h57.02.351,Info_measure_main_exp,2022.2.2,Win32,165.0982334,,,,,,,,,,,,,,,,,,masks/mask_002.jpg,,,,,,,,,,,,,,,,,,,,,,,,,,,,,,,,,,,,,,,,,,,0,2,2,1,1,,,,,,,,,,,,,,,,,,,,,,,,,,,,,,,,,,,,,,,,,,,,,,
004549,001,2022-11-20_23h57.02.351,Info_measure_main_exp,2022.2.2,Win32,165.0982334,,,,,,,,,,,,,,,,,,masks/mask_003.jpg,,,,,,,,,,,,,,,,,,,,,,,,,,,,,,,,,,,,,,,,,,,0,3,3,2,1,,,,,,,,,,,,,,,,,,,,,,,,,,,,,,,,,,,,,,,,,,,,,,
004549,001,2022-11-20_23h57.02.351,Info_measure_main_exp,2022.2.2,Win32,165.0982334,,,,,,,,,,,,,,,,,,masks/mask_001.jpg,,,,,,,,,,,,,,,,,,,,,,,,,,,,,,,,,,,,,,,,,,,0,4,4,0,1,,,,,,,,,,,,,,,,,,,,,,,,,,,,,,,,,,,,,,,,,,,,,,
004549,001,2022-11-20_23h57.02.351,Info_measure_main_exp,2022.2.2,Win32,165.0982334,,,,,,,,,,,,,,,,,,masks/mask_003.jpg,,,,,,,,,,,,,,,,,,,,,,,,,,,,,,,,,,,,,,,,,,,,,,,,0,0,0,2,1,,,,,,,,,,,,,,,,,,,,,,,,,,,,,,,,,,,,,,,,,
004549,001,2022-11-20_23h57.02.351,Info_measure_main_exp,2022.2.2,Win32,165.0982334,,,,,,,,,,,,,,,,,,masks/mask_002.jpg,,,,,,,,,,,,,,,,,,,,,,,,,,,,,,,,,,,,,,,,,,,,,,,,0,1,1,1,1,,,,,,,,,,,,,,,,,,,,,,,,,,,,,,,,,,,,,,,,,
004549,001,2022-11-20_23h57.02.351,Info_measure_main_exp,2022.2.2,Win32,165.0982334,,,,,,,,,,,,,,,,,,masks/mask_004.jpg,,,,,,,,,,,,,,,,,,,,,,,,,,,,,,,,,,,,,,,,,,,,,,,,0,2,2,3,1,,,,,,,,,,,,,,,,,,,,,,,,,,,,,,,,,,,,,,,,,
004549,001,2022-11-20_23h57.02.351,Info_measure_main_exp,2022.2.2,Win32,165.0982334,,,,,,,,,,,,,,,,,,masks/mask_005.jpg,,,,,,,,,,,,,,,,,,,,,,,,,,,,,,,,,,,,,,,,,,,,,,,,0,3,3,4,1,,,,,,,,,,,,,,,,,,,,,,,,,,,,,,,,,,,,,,,,,
004549,001,2022-11-20_23h57.02.351,Info_measure_main_exp,2022.2.2,Win32,165.0982334,,,,,,,,,,,,,,,,,,masks/mask_001.jpg,,,,,,,,,,,,,,,,,,,,,,,,,,,,,,,,,,,,,,,,,,,,,,,,0,4,4,0,1,,,,,,,,,,,,,,,,,,,,,,,,,,,,,,,,,,,,,,,,,
004549,001,2022-11-20_23h57.02.351,Info_measure_main_exp,2022.2.2,Win32,165.0982334,,,,,,,,,,,,,,,,,,,,,,,,,,,,,,7,0.7393,1,,,,,,,,,,,,0,131,5,5,2274,1950,absent_patch/patch0002274.jpg,absent_patch/patch0001950.jpg,,,,,,,,,,,,,,,,,,,,0.041666667,0.069444444,1,0,0,response1disk,27,0.000925912,-0.006481489,1,0,0,center_square,0,26,26,10,1,,,,,,,,,,,,,,,,,,,,,,,
004549,001,2022-11-20_23h57.02.351,Info_measure_main_exp,2022.2.2,Win32,165.0982334,,,,,,,,,,,,,,,,,,masks/mask_001.jpg,,,,,,,,,,,,,,,,,,,,,,,,,,,,,,,,,,,,,,,,,,,0,0,0,0,1,,,,,,,,,,,,,,,,,,,,,,,,,,,,,,,,,,,,,,,,,,,,,,
004549,001,2022-11-20_23h57.02.351,Info_measure_main_exp,2022.2.2,Win32,165.0982334,,,,,,,,,,,,,,,,,,masks/mask_004.jpg,,,,,,,,,,,,,,,,,,,,,,,,,,,,,,,,,,,,,,,,,,,0,1,1,3,1,,,,,,,,,,,,,,,,,,,,,,,,,,,,,,,,,,,,,,,,,,,,,,
004549,001,2022-11-20_23h57.02.351,Info_measure_main_exp,2022.2.2,Win32,165.0982334,,,,,,,,,,,,,,,,,,masks/mask_003.jpg,,,,,,,,,,,,,,,,,,,,,,,,,,,,,,,,,,,,,,,,,,,0,2,2,2,1,,,,,,,,,,,,,,,,,,,,,,,,,,,,,,,,,,,,,,,,,,,,,,
004549,001,2022-11-20_23h57.02.351,Info_measure_main_exp,2022.2.2,Win32,165.0982334,,,,,,,,,,,,,,,,,,masks/mask_005.jpg,,,,,,,,,,,,,,,,,,,,,,,,,,,,,,,,,,,,,,,,,,,0,3,3,4,1,,,,,,,,,,,,,,,,,,,,,,,,,,,,,,,,,,,,,,,,,,,,,,
004549,001,2022-11-20_23h57.02.351,Info_measure_main_exp,2022.2.2,Win32,165.0982334,,,,,,,,,,,,,,,,,,masks/mask_002.jpg,,,,,,,,,,,,,,,,,,,,,,,,,,,,,,,,,,,,,,,,,,,0,4,4,1,1,,,,,,,,,,,,,,,,,,,,,,,,,,,,,,,,,,,,,,,,,,,,,,
004549,001,2022-11-20_23h57.02.351,Info_measure_main_exp,2022.2.2,Win32,165.0982334,,,,,,,,,,,,,,,,,,masks/mask_005.jpg,,,,,,,,,,,,,,,,,,,,,,,,,,,,,,,,,,,,,,,,,,,,,,,,0,0,0,4,1,,,,,,,,,,,,,,,,,,,,,,,,,,,,,,,,,,,,,,,,,
004549,001,2022-11-20_23h57.02.351,Info_measure_main_exp,2022.2.2,Win32,165.0982334,,,,,,,,,,,,,,,,,,masks/mask_003.jpg,,,,,,,,,,,,,,,,,,,,,,,,,,,,,,,,,,,,,,,,,,,,,,,,0,1,1,2,1,,,,,,,,,,,,,,,,,,,,,,,,,,,,,,,,,,,,,,,,,
004549,001,2022-11-20_23h57.02.351,Info_measure_main_exp,2022.2.2,Win32,165.0982334,,,,,,,,,,,,,,,,,,masks/mask_002.jpg,,,,,,,,,,,,,,,,,,,,,,,,,,,,,,,,,,,,,,,,,,,,,,,,0,2,2,1,1,,,,,,,,,,,,,,,,,,,,,,,,,,,,,,,,,,,,,,,,,
004549,001,2022-11-20_23h57.02.351,Info_measure_main_exp,2022.2.2,Win32,165.0982334,,,,,,,,,,,,,,,,,,masks/mask_001.jpg,,,,,,,,,,,,,,,,,,,,,,,,,,,,,,,,,,,,,,,,,,,,,,,,0,3,3,0,1,,,,,,,,,,,,,,,,,,,,,,,,,,,,,,,,,,,,,,,,,
004549,001,2022-11-20_23h57.02.351,Info_measure_main_exp,2022.2.2,Win32,165.0982334,,,,,,,,,,,,,,,,,,masks/mask_004.jpg,,,,,,,,,,,,,,,,,,,,,,,,,,,,,,,,,,,,,,,,,,,,,,,,0,4,4,3,1,,,,,,,,,,,,,,,,,,,,,,,,,,,,,,,,,,,,,,,,,
004549,001,2022-11-20_23h57.02.351,Info_measure_main_exp,2022.2.2,Win32,165.0982334,,,,,,,,,,,,,,,,,,,,,,,,,,,,,,7,1.2062,1,,,,,,,,,,,,0,131,5,5,2274,2190,absent_patch/patch0002274.jpg,absent_patch/patch0002190.jpg,,,,,,,,,,,,,,,,,,,,0.043518561,0.087037016,1,0,0,response1disk,28,-0.002777735,-0.002777771,1,0,0,center_square,0,27,27,116,1,,,,,,,,,,,,,,,,,,,,,,,
004549,001,2022-11-20_23h57.02.351,Info_measure_main_exp,2022.2.2,Win32,165.0982334,,,,,,,,,,,,,,,,,,masks/mask_001.jpg,,,,,,,,,,,,,,,,,,,,,,,,,,,,,,,,,,,,,,,,,,,0,0,0,0,1,,,,,,,,,,,,,,,,,,,,,,,,,,,,,,,,,,,,,,,,,,,,,,
004549,001,2022-11-20_23h57.02.351,Info_measure_main_exp,2022.2.2,Win32,165.0982334,,,,,,,,,,,,,,,,,,masks/mask_003.jpg,,,,,,,,,,,,,,,,,,,,,,,,,,,,,,,,,,,,,,,,,,,0,1,1,2,1,,,,,,,,,,,,,,,,,,,,,,,,,,,,,,,,,,,,,,,,,,,,,,
004549,001,2022-11-20_23h57.02.351,Info_measure_main_exp,2022.2.2,Win32,165.0982334,,,,,,,,,,,,,,,,,,masks/mask_002.jpg,,,,,,,,,,,,,,,,,,,,,,,,,,,,,,,,,,,,,,,,,,,0,2,2,1,1,,,,,,,,,,,,,,,,,,,,,,,,,,,,,,,,,,,,,,,,,,,,,,
004549,001,2022-11-20_23h57.02.351,Info_measure_main_exp,2022.2.2,Win32,165.0982334,,,,,,,,,,,,,,,,,,masks/mask_005.jpg,,,,,,,,,,,,,,,,,,,,,,,,,,,,,,,,,,,,,,,,,,,0,3,3,4,1,,,,,,,,,,,,,,,,,,,,,,,,,,,,,,,,,,,,,,,,,,,,,,
004549,001,2022-11-20_23h57.02.351,Info_measure_main_exp,2022.2.2,Win32,165.0982334,,,,,,,,,,,,,,,,,,masks/mask_004.jpg,,,,,,,,,,,,,,,,,,,,,,,,,,,,,,,,,,,,,,,,,,,0,4,4,3,1,,,,,,,,,,,,,,,,,,,,,,,,,,,,,,,,,,,,,,,,,,,,,,
004549,001,2022-11-20_23h57.02.351,Info_measure_main_exp,2022.2.2,Win32,165.0982334,,,,,,,,,,,,,,,,,,masks/mask_005.jpg,,,,,,,,,,,,,,,,,,,,,,,,,,,,,,,,,,,,,,,,,,,,,,,,0,0,0,4,1,,,,,,,,,,,,,,,,,,,,,,,,,,,,,,,,,,,,,,,,,
004549,001,2022-11-20_23h57.02.351,Info_measure_main_exp,2022.2.2,Win32,165.0982334,,,,,,,,,,,,,,,,,,masks/mask_001.jpg,,,,,,,,,,,,,,,,,,,,,,,,,,,,,,,,,,,,,,,,,,,,,,,,0,1,1,0,1,,,,,,,,,,,,,,,,,,,,,,,,,,,,,,,,,,,,,,,,,
004549,001,2022-11-20_23h57.02.351,Info_measure_main_exp,2022.2.2,Win32,165.0982334,,,,,,,,,,,,,,,,,,masks/mask_002.jpg,,,,,,,,,,,,,,,,,,,,,,,,,,,,,,,,,,,,,,,,,,,,,,,,0,2,2,1,1,,,,,,,,,,,,,,,,,,,,,,,,,,,,,,,,,,,,,,,,,
004549,001,2022-11-20_23h57.02.351,Info_measure_main_exp,2022.2.2,Win32,165.0982334,,,,,,,,,,,,,,,,,,masks/mask_004.jpg,,,,,,,,,,,,,,,,,,,,,,,,,,,,,,,,,,,,,,,,,,,,,,,,0,3,3,3,1,,,,,,,,,,,,,,,,,,,,,,,,,,,,,,,,,,,,,,,,,
004549,001,2022-11-20_23h57.02.351,Info_measure_main_exp,2022.2.2,Win32,165.0982334,,,,,,,,,,,,,,,,,,masks/mask_003.jpg,,,,,,,,,,,,,,,,,,,,,,,,,,,,,,,,,,,,,,,,,,,,,,,,0,4,4,2,1,,,,,,,,,,,,,,,,,,,,,,,,,,,,,,,,,,,,,,,,,
004549,001,2022-11-20_23h57.02.351,Info_measure_main_exp,2022.2.2,Win32,165.0982334,,,,,,,,,,,,,,,,,,,,,,,,,,,,,,5,1.0365,1,,,,,,,,,,,,0,131,5,5,2298,2142,absent_patch/patch0002298.jpg,absent_patch/patch0002142.jpg,,,,,,,,,,,,,,,,,,,,0.079629616,-0.061111132,1,0,0,response3disk,29,0.009259259,0.005555541,1,0,0,center_square,0,28,28,49,1,,,,,,,,,,,,,,,,,,,,,,,
004549,001,2022-11-20_23h57.02.351,Info_measure_main_exp,2022.2.2,Win32,165.0982334,,,,,,,,,,,,,,,,,,masks/mask_005.jpg,,,,,,,,,,,,,,,,,,,,,,,,,,,,,,,,,,,,,,,,,,,0,0,0,4,1,,,,,,,,,,,,,,,,,,,,,,,,,,,,,,,,,,,,,,,,,,,,,,
004549,001,2022-11-20_23h57.02.351,Info_measure_main_exp,2022.2.2,Win32,165.0982334,,,,,,,,,,,,,,,,,,masks/mask_004.jpg,,,,,,,,,,,,,,,,,,,,,,,,,,,,,,,,,,,,,,,,,,,0,1,1,3,1,,,,,,,,,,,,,,,,,,,,,,,,,,,,,,,,,,,,,,,,,,,,,,
004549,001,2022-11-20_23h57.02.351,Info_measure_main_exp,2022.2.2,Win32,165.0982334,,,,,,,,,,,,,,,,,,masks/mask_001.jpg,,,,,,,,,,,,,,,,,,,,,,,,,,,,,,,,,,,,,,,,,,,0,2,2,0,1,,,,,,,,,,,,,,,,,,,,,,,,,,,,,,,,,,,,,,,,,,,,,,
004549,001,2022-11-20_23h57.02.351,Info_measure_main_exp,2022.2.2,Win32,165.0982334,,,,,,,,,,,,,,,,,,masks/mask_002.jpg,,,,,,,,,,,,,,,,,,,,,,,,,,,,,,,,,,,,,,,,,,,0,3,3,1,1,,,,,,,,,,,,,,,,,,,,,,,,,,,,,,,,,,,,,,,,,,,,,,
004549,001,2022-11-20_23h57.02.351,Info_measure_main_exp,2022.2.2,Win32,165.0982334,,,,,,,,,,,,,,,,,,masks/mask_003.jpg,,,,,,,,,,,,,,,,,,,,,,,,,,,,,,,,,,,,,,,,,,,0,4,4,2,1,,,,,,,,,,,,,,,,,,,,,,,,,,,,,,,,,,,,,,,,,,,,,,
004549,001,2022-11-20_23h57.02.351,Info_measure_main_exp,2022.2.2,Win32,165.0982334,,,,,,,,,,,,,,,,,,masks/mask_005.jpg,,,,,,,,,,,,,,,,,,,,,,,,,,,,,,,,,,,,,,,,,,,,,,,,0,0,0,4,1,,,,,,,,,,,,,,,,,,,,,,,,,,,,,,,,,,,,,,,,,
004549,001,2022-11-20_23h57.02.351,Info_measure_main_exp,2022.2.2,Win32,165.0982334,,,,,,,,,,,,,,,,,,masks/mask_002.jpg,,,,,,,,,,,,,,,,,,,,,,,,,,,,,,,,,,,,,,,,,,,,,,,,0,1,1,1,1,,,,,,,,,,,,,,,,,,,,,,,,,,,,,,,,,,,,,,,,,
004549,001,2022-11-20_23h57.02.351,Info_measure_main_exp,2022.2.2,Win32,165.0982334,,,,,,,,,,,,,,,,,,masks/mask_004.jpg,,,,,,,,,,,,,,,,,,,,,,,,,,,,,,,,,,,,,,,,,,,,,,,,0,2,2,3,1,,,,,,,,,,,,,,,,,,,,,,,,,,,,,,,,,,,,,,,,,
004549,001,2022-11-20_23h57.02.351,Info_measure_main_exp,2022.2.2,Win32,165.0982334,,,,,,,,,,,,,,,,,,masks/mask_003.jpg,,,,,,,,,,,,,,,,,,,,,,,,,,,,,,,,,,,,,,,,,,,,,,,,0,3,3,2,1,,,,,,,,,,,,,,,,,,,,,,,,,,,,,,,,,,,,,,,,,
004549,001,2022-11-20_23h57.02.351,Info_measure_main_exp,2022.2.2,Win32,165.0982334,,,,,,,,,,,,,,,,,,masks/mask_001.jpg,,,,,,,,,,,,,,,,,,,,,,,,,,,,,,,,,,,,,,,,,,,,,,,,0,4,4,0,1,,,,,,,,,,,,,,,,,,,,,,,,,,,,,,,,,,,,,,,,,
004549,001,2022-11-20_23h57.02.351,Info_measure_main_exp,2022.2.2,Win32,165.0982334,,,,,,,,,,,,,,,,,,,,,,,,,,,,,,6,0.8727,1,,,,,,,,,,,,0,131,5,5,2190,1950,absent_patch/patch0002190.jpg,absent_patch/patch0001950.jpg,,,,,,,,,,,,,,,,,,,,0.068518533,0.02407406,1,0,0,response1disk,30,0,-0.005555577,1,0,0,center_square,0,29,29,73,1,,,,,,,,,,,,,,,,,,,,,,,
004549,001,2022-11-20_23h57.02.351,Info_measure_main_exp,2022.2.2,Win32,165.0982334,,,,,,,,,,,,,,,,,,masks/mask_003.jpg,,,,,,,,,,,,,,,,,,,,,,,,,,,,,,,,,,,,,,,,,,,0,0,0,2,1,,,,,,,,,,,,,,,,,,,,,,,,,,,,,,,,,,,,,,,,,,,,,,
004549,001,2022-11-20_23h57.02.351,Info_measure_main_exp,2022.2.2,Win32,165.0982334,,,,,,,,,,,,,,,,,,masks/mask_004.jpg,,,,,,,,,,,,,,,,,,,,,,,,,,,,,,,,,,,,,,,,,,,0,1,1,3,1,,,,,,,,,,,,,,,,,,,,,,,,,,,,,,,,,,,,,,,,,,,,,,
004549,001,2022-11-20_23h57.02.351,Info_measure_main_exp,2022.2.2,Win32,165.0982334,,,,,,,,,,,,,,,,,,masks/mask_001.jpg,,,,,,,,,,,,,,,,,,,,,,,,,,,,,,,,,,,,,,,,,,,0,2,2,0,1,,,,,,,,,,,,,,,,,,,,,,,,,,,,,,,,,,,,,,,,,,,,,,
004549,001,2022-11-20_23h57.02.351,Info_measure_main_exp,2022.2.2,Win32,165.0982334,,,,,,,,,,,,,,,,,,masks/mask_005.jpg,,,,,,,,,,,,,,,,,,,,,,,,,,,,,,,,,,,,,,,,,,,0,3,3,4,1,,,,,,,,,,,,,,,,,,,,,,,,,,,,,,,,,,,,,,,,,,,,,,
004549,001,2022-11-20_23h57.02.351,Info_measure_main_exp,2022.2.2,Win32,165.0982334,,,,,,,,,,,,,,,,,,masks/mask_002.jpg,,,,,,,,,,,,,,,,,,,,,,,,,,,,,,,,,,,,,,,,,,,0,4,4,1,1,,,,,,,,,,,,,,,,,,,,,,,,,,,,,,,,,,,,,,,,,,,,,,
004549,001,2022-11-20_23h57.02.351,Info_measure_main_exp,2022.2.2,Win32,165.0982334,,,,,,,,,,,,,,,,,,masks/mask_001.jpg,,,,,,,,,,,,,,,,,,,,,,,,,,,,,,,,,,,,,,,,,,,,,,,,0,0,0,0,1,,,,,,,,,,,,,,,,,,,,,,,,,,,,,,,,,,,,,,,,,
004549,001,2022-11-20_23h57.02.351,Info_measure_main_exp,2022.2.2,Win32,165.0982334,,,,,,,,,,,,,,,,,,masks/mask_005.jpg,,,,,,,,,,,,,,,,,,,,,,,,,,,,,,,,,,,,,,,,,,,,,,,,0,1,1,4,1,,,,,,,,,,,,,,,,,,,,,,,,,,,,,,,,,,,,,,,,,
004549,001,2022-11-20_23h57.02.351,Info_measure_main_exp,2022.2.2,Win32,165.0982334,,,,,,,,,,,,,,,,,,masks/mask_003.jpg,,,,,,,,,,,,,,,,,,,,,,,,,,,,,,,,,,,,,,,,,,,,,,,,0,2,2,2,1,,,,,,,,,,,,,,,,,,,,,,,,,,,,,,,,,,,,,,,,,
004549,001,2022-11-20_23h57.02.351,Info_measure_main_exp,2022.2.2,Win32,165.0982334,,,,,,,,,,,,,,,,,,masks/mask_002.jpg,,,,,,,,,,,,,,,,,,,,,,,,,,,,,,,,,,,,,,,,,,,,,,,,0,3,3,1,1,,,,,,,,,,,,,,,,,,,,,,,,,,,,,,,,,,,,,,,,,
004549,001,2022-11-20_23h57.02.351,Info_measure_main_exp,2022.2.2,Win32,165.0982334,,,,,,,,,,,,,,,,,,masks/mask_004.jpg,,,,,,,,,,,,,,,,,,,,,,,,,,,,,,,,,,,,,,,,,,,,,,,,0,4,4,3,1,,,,,,,,,,,,,,,,,,,,,,,,,,,,,,,,,,,,,,,,,
004549,001,2022-11-20_23h57.02.351,Info_measure_main_exp,2022.2.2,Win32,165.0982334,,,,,,,,,,,,,,,,,,,,,,,,,,,,,,7,0.7636,1,,,,,,,,,,,,0,131,5,5,2274,2082,absent_patch/patch0002274.jpg,absent_patch/patch0002082.jpg,,,,,,,,,,,,,,,,,,,,0.058333362,0.12037037,1,0,0,response1disk,31,0,-0.002777771,1,0,0,center_square,0,30,30,100,1,,,,,,,,,,,,,,,,,,,,,,,
004549,001,2022-11-20_23h57.02.351,Info_measure_main_exp,2022.2.2,Win32,165.0982334,,,,,,,,,,,,,,,,,,masks/mask_005.jpg,,,,,,,,,,,,,,,,,,,,,,,,,,,,,,,,,,,,,,,,,,,0,0,0,4,1,,,,,,,,,,,,,,,,,,,,,,,,,,,,,,,,,,,,,,,,,,,,,,
004549,001,2022-11-20_23h57.02.351,Info_measure_main_exp,2022.2.2,Win32,165.0982334,,,,,,,,,,,,,,,,,,masks/mask_004.jpg,,,,,,,,,,,,,,,,,,,,,,,,,,,,,,,,,,,,,,,,,,,0,1,1,3,1,,,,,,,,,,,,,,,,,,,,,,,,,,,,,,,,,,,,,,,,,,,,,,
004549,001,2022-11-20_23h57.02.351,Info_measure_main_exp,2022.2.2,Win32,165.0982334,,,,,,,,,,,,,,,,,,masks/mask_003.jpg,,,,,,,,,,,,,,,,,,,,,,,,,,,,,,,,,,,,,,,,,,,0,2,2,2,1,,,,,,,,,,,,,,,,,,,,,,,,,,,,,,,,,,,,,,,,,,,,,,
004549,001,2022-11-20_23h57.02.351,Info_measure_main_exp,2022.2.2,Win32,165.0982334,,,,,,,,,,,,,,,,,,masks/mask_002.jpg,,,,,,,,,,,,,,,,,,,,,,,,,,,,,,,,,,,,,,,,,,,0,3,3,1,1,,,,,,,,,,,,,,,,,,,,,,,,,,,,,,,,,,,,,,,,,,,,,,
004549,001,2022-11-20_23h57.02.351,Info_measure_main_exp,2022.2.2,Win32,165.0982334,,,,,,,,,,,,,,,,,,masks/mask_001.jpg,,,,,,,,,,,,,,,,,,,,,,,,,,,,,,,,,,,,,,,,,,,0,4,4,0,1,,,,,,,,,,,,,,,,,,,,,,,,,,,,,,,,,,,,,,,,,,,,,,
004549,001,2022-11-20_23h57.02.351,Info_measure_main_exp,2022.2.2,Win32,165.0982334,,,,,,,,,,,,,,,,,,masks/mask_005.jpg,,,,,,,,,,,,,,,,,,,,,,,,,,,,,,,,,,,,,,,,,,,,,,,,0,0,0,4,1,,,,,,,,,,,,,,,,,,,,,,,,,,,,,,,,,,,,,,,,,
004549,001,2022-11-20_23h57.02.351,Info_measure_main_exp,2022.2.2,Win32,165.0982334,,,,,,,,,,,,,,,,,,masks/mask_003.jpg,,,,,,,,,,,,,,,,,,,,,,,,,,,,,,,,,,,,,,,,,,,,,,,,0,1,1,2,1,,,,,,,,,,,,,,,,,,,,,,,,,,,,,,,,,,,,,,,,,
004549,001,2022-11-20_23h57.02.351,Info_measure_main_exp,2022.2.2,Win32,165.0982334,,,,,,,,,,,,,,,,,,masks/mask_004.jpg,,,,,,,,,,,,,,,,,,,,,,,,,,,,,,,,,,,,,,,,,,,,,,,,0,2,2,3,1,,,,,,,,,,,,,,,,,,,,,,,,,,,,,,,,,,,,,,,,,
004549,001,2022-11-20_23h57.02.351,Info_measure_main_exp,2022.2.2,Win32,165.0982334,,,,,,,,,,,,,,,,,,masks/mask_001.jpg,,,,,,,,,,,,,,,,,,,,,,,,,,,,,,,,,,,,,,,,,,,,,,,,0,3,3,0,1,,,,,,,,,,,,,,,,,,,,,,,,,,,,,,,,,,,,,,,,,
004549,001,2022-11-20_23h57.02.351,Info_measure_main_exp,2022.2.2,Win32,165.0982334,,,,,,,,,,,,,,,,,,masks/mask_002.jpg,,,,,,,,,,,,,,,,,,,,,,,,,,,,,,,,,,,,,,,,,,,,,,,,0,4,4,1,1,,,,,,,,,,,,,,,,,,,,,,,,,,,,,,,,,,,,,,,,,
004549,001,2022-11-20_23h57.02.351,Info_measure_main_exp,2022.2.2,Win32,165.0982334,,,,,,,,,,,,,,,,,,,,,,,,,,,,,,0,0.7212,1,,,,,,,,,,,,0,131,5,5,2190,2190,absent_patch/patch0002190.jpg,absent_patch/patch0002190.jpg,,,,,,,,,,,,,,,,,,,,-0.006481453,0.060185185,1,0,0,response7disk,32,0.002777806,-0.009259259,1,0,0,center_square,0,31,31,86,1,,,,,,,,,,,,,,,,,,,,,,,
004549,001,2022-11-20_23h57.02.351,Info_measure_main_exp,2022.2.2,Win32,165.0982334,,,,,,,,,,,,,,,,,,masks/mask_005.jpg,,,,,,,,,,,,,,,,,,,,,,,,,,,,,,,,,,,,,,,,,,,0,0,0,4,1,,,,,,,,,,,,,,,,,,,,,,,,,,,,,,,,,,,,,,,,,,,,,,
004549,001,2022-11-20_23h57.02.351,Info_measure_main_exp,2022.2.2,Win32,165.0982334,,,,,,,,,,,,,,,,,,masks/mask_003.jpg,,,,,,,,,,,,,,,,,,,,,,,,,,,,,,,,,,,,,,,,,,,0,1,1,2,1,,,,,,,,,,,,,,,,,,,,,,,,,,,,,,,,,,,,,,,,,,,,,,
004549,001,2022-11-20_23h57.02.351,Info_measure_main_exp,2022.2.2,Win32,165.0982334,,,,,,,,,,,,,,,,,,masks/mask_001.jpg,,,,,,,,,,,,,,,,,,,,,,,,,,,,,,,,,,,,,,,,,,,0,2,2,0,1,,,,,,,,,,,,,,,,,,,,,,,,,,,,,,,,,,,,,,,,,,,,,,
004549,001,2022-11-20_23h57.02.351,Info_measure_main_exp,2022.2.2,Win32,165.0982334,,,,,,,,,,,,,,,,,,masks/mask_004.jpg,,,,,,,,,,,,,,,,,,,,,,,,,,,,,,,,,,,,,,,,,,,0,3,3,3,1,,,,,,,,,,,,,,,,,,,,,,,,,,,,,,,,,,,,,,,,,,,,,,
004549,001,2022-11-20_23h57.02.351,Info_measure_main_exp,2022.2.2,Win32,165.0982334,,,,,,,,,,,,,,,,,,masks/mask_002.jpg,,,,,,,,,,,,,,,,,,,,,,,,,,,,,,,,,,,,,,,,,,,0,4,4,1,1,,,,,,,,,,,,,,,,,,,,,,,,,,,,,,,,,,,,,,,,,,,,,,
004549,001,2022-11-20_23h57.02.351,Info_measure_main_exp,2022.2.2,Win32,165.0982334,,,,,,,,,,,,,,,,,,masks/mask_005.jpg,,,,,,,,,,,,,,,,,,,,,,,,,,,,,,,,,,,,,,,,,,,,,,,,0,0,0,4,1,,,,,,,,,,,,,,,,,,,,,,,,,,,,,,,,,,,,,,,,,
004549,001,2022-11-20_23h57.02.351,Info_measure_main_exp,2022.2.2,Win32,165.0982334,,,,,,,,,,,,,,,,,,masks/mask_002.jpg,,,,,,,,,,,,,,,,,,,,,,,,,,,,,,,,,,,,,,,,,,,,,,,,0,1,1,1,1,,,,,,,,,,,,,,,,,,,,,,,,,,,,,,,,,,,,,,,,,
004549,001,2022-11-20_23h57.02.351,Info_measure_main_exp,2022.2.2,Win32,165.0982334,,,,,,,,,,,,,,,,,,masks/mask_001.jpg,,,,,,,,,,,,,,,,,,,,,,,,,,,,,,,,,,,,,,,,,,,,,,,,0,2,2,0,1,,,,,,,,,,,,,,,,,,,,,,,,,,,,,,,,,,,,,,,,,
004549,001,2022-11-20_23h57.02.351,Info_measure_main_exp,2022.2.2,Win32,165.0982334,,,,,,,,,,,,,,,,,,masks/mask_003.jpg,,,,,,,,,,,,,,,,,,,,,,,,,,,,,,,,,,,,,,,,,,,,,,,,0,3,3,2,1,,,,,,,,,,,,,,,,,,,,,,,,,,,,,,,,,,,,,,,,,
004549,001,2022-11-20_23h57.02.351,Info_measure_main_exp,2022.2.2,Win32,165.0982334,,,,,,,,,,,,,,,,,,masks/mask_004.jpg,,,,,,,,,,,,,,,,,,,,,,,,,,,,,,,,,,,,,,,,,,,,,,,,0,4,4,3,1,,,,,,,,,,,,,,,,,,,,,,,,,,,,,,,,,,,,,,,,,
004549,001,2022-11-20_23h57.02.351,Info_measure_main_exp,2022.2.2,Win32,165.0982334,,,,,,,,,,,,,,,,,,,,,,,,,,,,,,0,0.6909,1,,,,,,,,,,,,0,131,5,5,2214,2214,absent_patch/patch0002214.jpg,absent_patch/patch0002214.jpg,,,,,,,,,,,,,,,,,,,,-0.051851838,0.082407386,1,0,0,response7disk,33,-0.008333347,0.003703683,1,0,0,center_square,0,32,32,115,1,,,,,,,,,,,,,,,,,,,,,,,
004549,001,2022-11-20_23h57.02.351,Info_measure_main_exp,2022.2.2,Win32,165.0982334,,,,,,,,,,,,,,,,,,masks/mask_001.jpg,,,,,,,,,,,,,,,,,,,,,,,,,,,,,,,,,,,,,,,,,,,0,0,0,0,1,,,,,,,,,,,,,,,,,,,,,,,,,,,,,,,,,,,,,,,,,,,,,,
004549,001,2022-11-20_23h57.02.351,Info_measure_main_exp,2022.2.2,Win32,165.0982334,,,,,,,,,,,,,,,,,,masks/mask_003.jpg,,,,,,,,,,,,,,,,,,,,,,,,,,,,,,,,,,,,,,,,,,,0,1,1,2,1,,,,,,,,,,,,,,,,,,,,,,,,,,,,,,,,,,,,,,,,,,,,,,
004549,001,2022-11-20_23h57.02.351,Info_measure_main_exp,2022.2.2,Win32,165.0982334,,,,,,,,,,,,,,,,,,masks/mask_004.jpg,,,,,,,,,,,,,,,,,,,,,,,,,,,,,,,,,,,,,,,,,,,0,2,2,3,1,,,,,,,,,,,,,,,,,,,,,,,,,,,,,,,,,,,,,,,,,,,,,,
004549,001,2022-11-20_23h57.02.351,Info_measure_main_exp,2022.2.2,Win32,165.0982334,,,,,,,,,,,,,,,,,,masks/mask_002.jpg,,,,,,,,,,,,,,,,,,,,,,,,,,,,,,,,,,,,,,,,,,,0,3,3,1,1,,,,,,,,,,,,,,,,,,,,,,,,,,,,,,,,,,,,,,,,,,,,,,
004549,001,2022-11-20_23h57.02.351,Info_measure_main_exp,2022.2.2,Win32,165.0982334,,,,,,,,,,,,,,,,,,masks/mask_005.jpg,,,,,,,,,,,,,,,,,,,,,,,,,,,,,,,,,,,,,,,,,,,0,4,4,4,1,,,,,,,,,,,,,,,,,,,,,,,,,,,,,,,,,,,,,,,,,,,,,,
004549,001,2022-11-20_23h57.02.351,Info_measure_main_exp,2022.2.2,Win32,165.0982334,,,,,,,,,,,,,,,,,,masks/mask_001.jpg,,,,,,,,,,,,,,,,,,,,,,,,,,,,,,,,,,,,,,,,,,,,,,,,0,0,0,0,1,,,,,,,,,,,,,,,,,,,,,,,,,,,,,,,,,,,,,,,,,
004549,001,2022-11-20_23h57.02.351,Info_measure_main_exp,2022.2.2,Win32,165.0982334,,,,,,,,,,,,,,,,,,masks/mask_003.jpg,,,,,,,,,,,,,,,,,,,,,,,,,,,,,,,,,,,,,,,,,,,,,,,,0,1,1,2,1,,,,,,,,,,,,,,,,,,,,,,,,,,,,,,,,,,,,,,,,,
004549,001,2022-11-20_23h57.02.351,Info_measure_main_exp,2022.2.2,Win32,165.0982334,,,,,,,,,,,,,,,,,,masks/mask_005.jpg,,,,,,,,,,,,,,,,,,,,,,,,,,,,,,,,,,,,,,,,,,,,,,,,0,2,2,4,1,,,,,,,,,,,,,,,,,,,,,,,,,,,,,,,,,,,,,,,,,
004549,001,2022-11-20_23h57.02.351,Info_measure_main_exp,2022.2.2,Win32,165.0982334,,,,,,,,,,,,,,,,,,masks/mask_004.jpg,,,,,,,,,,,,,,,,,,,,,,,,,,,,,,,,,,,,,,,,,,,,,,,,0,3,3,3,1,,,,,,,,,,,,,,,,,,,,,,,,,,,,,,,,,,,,,,,,,
004549,001,2022-11-20_23h57.02.351,Info_measure_main_exp,2022.2.2,Win32,165.0982334,,,,,,,,,,,,,,,,,,masks/mask_002.jpg,,,,,,,,,,,,,,,,,,,,,,,,,,,,,,,,,,,,,,,,,,,,,,,,0,4,4,1,1,,,,,,,,,,,,,,,,,,,,,,,,,,,,,,,,,,,,,,,,,
004549,001,2022-11-20_23h57.02.351,Info_measure_main_exp,2022.2.2,Win32,165.0982334,,,,,,,,,,,,,,,,,,,,,,,,,,,,,,0,0.703,1,,,,,,,,,,,,0,131,5,5,2250,2250,absent_patch/patch0002250.jpg,absent_patch/patch0002250.jpg,,,,,,,,,,,,,,,,,,,,-0.044444402,0.105555534,1,0,0,response7disk,34,-0.003703718,0,1,0,0,center_square,0,33,33,56,1,,,,,,,,,,,,,,,,,,,,,,,
004549,001,2022-11-20_23h57.02.351,Info_measure_main_exp,2022.2.2,Win32,165.0982334,,,,,,,,,,,,,,,,,,masks/mask_002.jpg,,,,,,,,,,,,,,,,,,,,,,,,,,,,,,,,,,,,,,,,,,,0,0,0,1,1,,,,,,,,,,,,,,,,,,,,,,,,,,,,,,,,,,,,,,,,,,,,,,
004549,001,2022-11-20_23h57.02.351,Info_measure_main_exp,2022.2.2,Win32,165.0982334,,,,,,,,,,,,,,,,,,masks/mask_001.jpg,,,,,,,,,,,,,,,,,,,,,,,,,,,,,,,,,,,,,,,,,,,0,1,1,0,1,,,,,,,,,,,,,,,,,,,,,,,,,,,,,,,,,,,,,,,,,,,,,,
004549,001,2022-11-20_23h57.02.351,Info_measure_main_exp,2022.2.2,Win32,165.0982334,,,,,,,,,,,,,,,,,,masks/mask_004.jpg,,,,,,,,,,,,,,,,,,,,,,,,,,,,,,,,,,,,,,,,,,,0,2,2,3,1,,,,,,,,,,,,,,,,,,,,,,,,,,,,,,,,,,,,,,,,,,,,,,
004549,001,2022-11-20_23h57.02.351,Info_measure_main_exp,2022.2.2,Win32,165.0982334,,,,,,,,,,,,,,,,,,masks/mask_005.jpg,,,,,,,,,,,,,,,,,,,,,,,,,,,,,,,,,,,,,,,,,,,0,3,3,4,1,,,,,,,,,,,,,,,,,,,,,,,,,,,,,,,,,,,,,,,,,,,,,,
004549,001,2022-11-20_23h57.02.351,Info_measure_main_exp,2022.2.2,Win32,165.0982334,,,,,,,,,,,,,,,,,,masks/mask_003.jpg,,,,,,,,,,,,,,,,,,,,,,,,,,,,,,,,,,,,,,,,,,,0,4,4,2,1,,,,,,,,,,,,,,,,,,,,,,,,,,,,,,,,,,,,,,,,,,,,,,
004549,001,2022-11-20_23h57.02.351,Info_measure_main_exp,2022.2.2,Win32,165.0982334,,,,,,,,,,,,,,,,,,masks/mask_003.jpg,,,,,,,,,,,,,,,,,,,,,,,,,,,,,,,,,,,,,,,,,,,,,,,,0,0,0,2,1,,,,,,,,,,,,,,,,,,,,,,,,,,,,,,,,,,,,,,,,,
004549,001,2022-11-20_23h57.02.351,Info_measure_main_exp,2022.2.2,Win32,165.0982334,,,,,,,,,,,,,,,,,,masks/mask_002.jpg,,,,,,,,,,,,,,,,,,,,,,,,,,,,,,,,,,,,,,,,,,,,,,,,0,1,1,1,1,,,,,,,,,,,,,,,,,,,,,,,,,,,,,,,,,,,,,,,,,
004549,001,2022-11-20_23h57.02.351,Info_measure_main_exp,2022.2.2,Win32,165.0982334,,,,,,,,,,,,,,,,,,masks/mask_001.jpg,,,,,,,,,,,,,,,,,,,,,,,,,,,,,,,,,,,,,,,,,,,,,,,,0,2,2,0,1,,,,,,,,,,,,,,,,,,,,,,,,,,,,,,,,,,,,,,,,,
004549,001,2022-11-20_23h57.02.351,Info_measure_main_exp,2022.2.2,Win32,165.0982334,,,,,,,,,,,,,,,,,,masks/mask_004.jpg,,,,,,,,,,,,,,,,,,,,,,,,,,,,,,,,,,,,,,,,,,,,,,,,0,3,3,3,1,,,,,,,,,,,,,,,,,,,,,,,,,,,,,,,,,,,,,,,,,
