participant,session,date,expName,psychopyVersion,OS,frameRate,space_press_continue.keys,space_press_continue.rt,space_press_continue_2.keys,space_press_continue_2.rt,space_press_continue_3.keys,space_press_continue_3.rt,space_press_continue_4.keys,space_press_continue_4.rt,space_press_continue_5.keys,space_press_continue_5.rt,space_press_continue_6.keys,space_press_continue_6.rt,prac_mask_loop_1.thisRepN,prac_mask_loop_1.thisTrialN,prac_mask_loop_1.thisN,prac_mask_loop_1.thisIndex,prac_mask_loop_1.ran,mask_name,prac_mask_loop_2.thisRepN,prac_mask_loop_2.thisTrialN,prac_mask_loop_2.thisN,prac_mask_loop_2.thisIndex,prac_mask_loop_2.ran,mouse_2.x,mouse_2.y,mouse_2.leftButton,mouse_2.midButton,mouse_2.rightButton,mouse_2.clicked_name,similarity,response_time,Pass,mouse_12.x,mouse_12.y,mouse_12.leftButton,mouse_12.midButton,mouse_12.rightButton,mouse_12.clicked_name,prac_loop.thisRepN,prac_loop.thisTrialN,prac_loop.thisN,prac_loop.thisIndex,prac_loop.ran,Pair_type,Image_num,Patch_1_loc,Patch_2_loc,Patch_1_info,Patch_2_info,Patch_1_name,Patch_2_name,mouse_1.x,mouse_1.y,mouse_1.leftButton,mouse_1.midButton,mouse_1.rightButton,mouse_1.time,mouse_1.clicked_name,space_press_continue_7.keys,space_press_continue_7.rt,mask_loop.thisRepN,mask_loop.thisTrialN,mask_loop.thisN,mask_loop.thisIndex,mask_loop.ran,mask_loop_2.thisRepN,mask_loop_2.thisTrialN,mask_loop_2.thisN,mask_loop_2.thisIndex,mask_loop_2.ran,mouse.x,mouse.y,mouse.leftButton,mouse.midButton,mouse.rightButton,mouse.clicked_name,trialNumber,mouse_11.x,mouse_11.y,mouse_11.leftButton,mouse_11.midButton,mouse_11.rightButton,mouse_11.clicked_name,first_pass_loop.thisRepN,first_pass_loop.thisTrialN,first_pass_loop.thisN,first_pass_loop.thisIndex,first_pass_loop.ran,mask_loop_3.thisRepN,mask_loop_3.thisTrialN,mask_loop_3.thisN,mask_loop_3.thisIndex,mask_loop_3.ran,mask_loop_4.thisRepN,mask_loop_4.thisTrialN,mask_loop_4.thisN,mask_loop_4.thisIndex,mask_loop_4.ran,mouse_3.x,mouse_3.y,mouse_3.leftButton,mouse_3.midButton,mouse_3.rightButton,mouse_3.clicked_name,double_pass_loop.thisRepN,double_pass_loop.thisTrialN,double_pass_loop.thisN,double_pass_loop.thisIndex,double_pass_loop.ran,space_exit.keys,space_exit.rt
007056,001,2022-11-14_24h27.03.596,Info_measure_main_exp,2022.2.2,Win32,59.86948452,,,,,,,,,,,,,,,,,,,,,,,,,,,,,,,,,,,,,,,,,,,,,,,,,,,,,,,,,,,,,,,,,,,,,,,,,,,,,,,,,,,,,,,,,,,,,,,,,,,,,,,,,,,,,,,
007056,001,2022-11-14_24h27.03.596,Info_measure_main_exp,2022.2.2,Win32,59.86948452,,,,,,,,,,,,,,,,,,,,,,,,,,,,,,,,,,,,,,,,,,,,,,,,,,,,,,,,,,,,,,,,,,,,,,,,,,,,,,,,,,,,,,,,,,,,,,,,,,,,,,,,,,,,,,,
007056,001,2022-11-14_24h27.03.596,Info_measure_main_exp,2022.2.2,Win32,59.86948452,space,20.2333,,,,,,,,,,,,,,,,,,,,,,,,,,,,,,,,,,,,,,,,,,,,,,,,,,,,,,,,,,,,,,,,,,,,,,,,,,,,,,,,,,,,,,,,,,,,,,,,,,,,,,,,,,,,,
007056,001,2022-11-14_24h27.03.596,Info_measure_main_exp,2022.2.2,Win32,59.86948452,,,space,14.1689,,,,,,,,,,,,,,,,,,,,,,,,,,,,,,,,,,,,,,,,,,,,,,,,,,,,,,,,,,,,,,,,,,,,,,,,,,,,,,,,,,,,,,,,,,,,,,,,,,,,,,,,,,,
007056,001,2022-11-14_24h27.03.596,Info_measure_main_exp,2022.2.2,Win32,59.86948452,,,,,space,10.9333,,,,,,,,,,,,,,,,,,,,,,,,,,,,,,,,,,,,,,,,,,,,,,,,,,,,,,,,,,,,,,,,,,,,,,,,,,,,,,,,,,,,,,,,,,,,,,,,,,,,,,,,,
007056,001,2022-11-14_24h27.03.596,Info_measure_main_exp,2022.2.2,Win32,59.86948452,,,,,,,space,37.528,,,,,,,,,,,,,,,,,,,,,,,,,,,,,,,,,,,,,,,,,,,,,,,,,,,,,,,,,,,,,,,,,,,,,,,,,,,,,,,,,,,,,,,,,,,,,,,,,,,,,,,
007056,001,2022-11-14_24h27.03.596,Info_measure_main_exp,2022.2.2,Win32,59.86948452,,,,,,,,,space,5.7767,,,,,,,,,,,,,,,,,,,,,,,,,,,,,,,,,,,,,,,,,,,,,,,,,,,,,,,,,,,,,,,,,,,,,,,,,,,,,,,,,,,,,,,,,,,,,,,,,,,,,
007056,001,2022-11-14_24h27.03.596,Info_measure_main_exp,2022.2.2,Win32,59.86948452,,,,,,,,,,,space,5.0342,,,,,,,,,,,,,,,,,,,,,,,,,,,,,,,,,,,,,,,,,,,,,,,,,,,,,,,,,,,,,,,,,,,,,,,,,,,,,,,,,,,,,,,,,,,,,,,,,,,
007056,001,2022-11-14_24h27.03.596,Info_measure_main_exp,2022.2.2,Win32,59.86948452,,,,,,,,,,,,,0,0,0,2,1,masks/mask_003.jpg,,,,,,,,,,,,,,,,,,,,,,,,,,,,,,,,,,,,,,,,,,,,,,,,,,,,,,,,,,,,,,,,,,,,,,,,,,,,,,,,,,,,,,,,,,,,,
007056,001,2022-11-14_24h27.03.596,Info_measure_main_exp,2022.2.2,Win32,59.86948452,,,,,,,,,,,,,0,1,1,4,1,masks/mask_005.jpg,,,,,,,,,,,,,,,,,,,,,,,,,,,,,,,,,,,,,,,,,,,,,,,,,,,,,,,,,,,,,,,,,,,,,,,,,,,,,,,,,,,,,,,,,,,,,
007056,001,2022-11-14_24h27.03.596,Info_measure_main_exp,2022.2.2,Win32,59.86948452,,,,,,,,,,,,,0,2,2,1,1,masks/mask_002.jpg,,,,,,,,,,,,,,,,,,,,,,,,,,,,,,,,,,,,,,,,,,,,,,,,,,,,,,,,,,,,,,,,,,,,,,,,,,,,,,,,,,,,,,,,,,,,,
007056,001,2022-11-14_24h27.03.596,Info_measure_main_exp,2022.2.2,Win32,59.86948452,,,,,,,,,,,,,0,3,3,3,1,masks/mask_004.jpg,,,,,,,,,,,,,,,,,,,,,,,,,,,,,,,,,,,,,,,,,,,,,,,,,,,,,,,,,,,,,,,,,,,,,,,,,,,,,,,,,,,,,,,,,,,,,
007056,001,2022-11-14_24h27.03.596,Info_measure_main_exp,2022.2.2,Win32,59.86948452,,,,,,,,,,,,,0,4,4,0,1,masks/mask_001.jpg,,,,,,,,,,,,,,,,,,,,,,,,,,,,,,,,,,,,,,,,,,,,,,,,,,,,,,,,,,,,,,,,,,,,,,,,,,,,,,,,,,,,,,,,,,,,,
007056,001,2022-11-14_24h27.03.596,Info_measure_main_exp,2022.2.2,Win32,59.86948452,,,,,,,,,,,,,,,,,,masks/mask_001.jpg,0,0,0,0,1,,,,,,,,,,,,,,,,,,,,,,,,,,,,,,,,,,,,,,,,,,,,,,,,,,,,,,,,,,,,,,,,,,,,,,,,,,,,,,,,,,,,,,,,
007056,001,2022-11-14_24h27.03.596,Info_measure_main_exp,2022.2.2,Win32,59.86948452,,,,,,,,,,,,,,,,,,masks/mask_002.jpg,0,1,1,1,1,,,,,,,,,,,,,,,,,,,,,,,,,,,,,,,,,,,,,,,,,,,,,,,,,,,,,,,,,,,,,,,,,,,,,,,,,,,,,,,,,,,,,,,,
007056,001,2022-11-14_24h27.03.596,Info_measure_main_exp,2022.2.2,Win32,59.86948452,,,,,,,,,,,,,,,,,,masks/mask_003.jpg,0,2,2,2,1,,,,,,,,,,,,,,,,,,,,,,,,,,,,,,,,,,,,,,,,,,,,,,,,,,,,,,,,,,,,,,,,,,,,,,,,,,,,,,,,,,,,,,,,
007056,001,2022-11-14_24h27.03.596,Info_measure_main_exp,2022.2.2,Win32,59.86948452,,,,,,,,,,,,,,,,,,masks/mask_005.jpg,0,3,3,4,1,,,,,,,,,,,,,,,,,,,,,,,,,,,,,,,,,,,,,,,,,,,,,,,,,,,,,,,,,,,,,,,,,,,,,,,,,,,,,,,,,,,,,,,,
007056,001,2022-11-14_24h27.03.596,Info_measure_main_exp,2022.2.2,Win32,59.86948452,,,,,,,,,,,,,,,,,,masks/mask_004.jpg,0,4,4,3,1,,,,,,,,,,,,,,,,,,,,,,,,,,,,,,,,,,,,,,,,,,,,,,,,,,,,,,,,,,,,,,,,,,,,,,,,,,,,,,,,,,,,,,,,
007056,001,2022-11-14_24h27.03.596,Info_measure_main_exp,2022.2.2,Win32,59.86948452,,,,,,,,,,,,,,,,,,,,,,,,-0.025555556,-0.143333333,1,0,0,response5disk,3,107.334,1,-0.006666667,-0.002222222,1,0,0,center_square,0,0,0,1,1,0,131,5,5,2514,2490,prac_patch/patch0002514.jpg,prac_patch/patch0002490.jpg,,,,,,,,,,,,,,,,,,,,,,,,,,,,,,,,,,,,,,,,,,,,,,,,,,,,,,,,,,,,
007056,001,2022-11-14_24h27.03.596,Info_measure_main_exp,2022.2.2,Win32,59.86948452,,,,,,,,,,,,,0,0,0,4,1,masks/mask_005.jpg,,,,,,,,,,,,,,,,,,,,,,,,,,,,,,,,,,,,,,,,,,,,,,,,,,,,,,,,,,,,,,,,,,,,,,,,,,,,,,,,,,,,,,,,,,,,,
007056,001,2022-11-14_24h27.03.596,Info_measure_main_exp,2022.2.2,Win32,59.86948452,,,,,,,,,,,,,0,1,1,3,1,masks/mask_004.jpg,,,,,,,,,,,,,,,,,,,,,,,,,,,,,,,,,,,,,,,,,,,,,,,,,,,,,,,,,,,,,,,,,,,,,,,,,,,,,,,,,,,,,,,,,,,,,
007056,001,2022-11-14_24h27.03.596,Info_measure_main_exp,2022.2.2,Win32,59.86948452,,,,,,,,,,,,,0,2,2,0,1,masks/mask_001.jpg,,,,,,,,,,,,,,,,,,,,,,,,,,,,,,,,,,,,,,,,,,,,,,,,,,,,,,,,,,,,,,,,,,,,,,,,,,,,,,,,,,,,,,,,,,,,,
007056,001,2022-11-14_24h27.03.596,Info_measure_main_exp,2022.2.2,Win32,59.86948452,,,,,,,,,,,,,0,3,3,1,1,masks/mask_002.jpg,,,,,,,,,,,,,,,,,,,,,,,,,,,,,,,,,,,,,,,,,,,,,,,,,,,,,,,,,,,,,,,,,,,,,,,,,,,,,,,,,,,,,,,,,,,,,
007056,001,2022-11-14_24h27.03.596,Info_measure_main_exp,2022.2.2,Win32,59.86948452,,,,,,,,,,,,,0,4,4,2,1,masks/mask_003.jpg,,,,,,,,,,,,,,,,,,,,,,,,,,,,,,,,,,,,,,,,,,,,,,,,,,,,,,,,,,,,,,,,,,,,,,,,,,,,,,,,,,,,,,,,,,,,,
007056,001,2022-11-14_24h27.03.596,Info_measure_main_exp,2022.2.2,Win32,59.86948452,,,,,,,,,,,,,,,,,,masks/mask_001.jpg,0,0,0,0,1,,,,,,,,,,,,,,,,,,,,,,,,,,,,,,,,,,,,,,,,,,,,,,,,,,,,,,,,,,,,,,,,,,,,,,,,,,,,,,,,,,,,,,,,
007056,001,2022-11-14_24h27.03.596,Info_measure_main_exp,2022.2.2,Win32,59.86948452,,,,,,,,,,,,,,,,,,masks/mask_005.jpg,0,1,1,4,1,,,,,,,,,,,,,,,,,,,,,,,,,,,,,,,,,,,,,,,,,,,,,,,,,,,,,,,,,,,,,,,,,,,,,,,,,,,,,,,,,,,,,,,,
007056,001,2022-11-14_24h27.03.596,Info_measure_main_exp,2022.2.2,Win32,59.86948452,,,,,,,,,,,,,,,,,,masks/mask_002.jpg,0,2,2,1,1,,,,,,,,,,,,,,,,,,,,,,,,,,,,,,,,,,,,,,,,,,,,,,,,,,,,,,,,,,,,,,,,,,,,,,,,,,,,,,,,,,,,,,,,
007056,001,2022-11-14_24h27.03.596,Info_measure_main_exp,2022.2.2,Win32,59.86948452,,,,,,,,,,,,,,,,,,masks/mask_003.jpg,0,3,3,2,1,,,,,,,,,,,,,,,,,,,,,,,,,,,,,,,,,,,,,,,,,,,,,,,,,,,,,,,,,,,,,,,,,,,,,,,,,,,,,,,,,,,,,,,,
007056,001,2022-11-14_24h27.03.596,Info_measure_main_exp,2022.2.2,Win32,59.86948452,,,,,,,,,,,,,,,,,,masks/mask_004.jpg,0,4,4,3,1,,,,,,,,,,,,,,,,,,,,,,,,,,,,,,,,,,,,,,,,,,,,,,,,,,,,,,,,,,,,,,,,,,,,,,,,,,,,,,,,,,,,,,,,
007056,001,2022-11-14_24h27.03.596,Info_measure_main_exp,2022.2.2,Win32,59.86948452,,,,,,,,,,,,,,,,,,,,,,,,-0.055555556,0.105555556,1,0,0,response7disk,0,121.3045,1,0,-0.008888889,1,0,0,center_square,0,1,1,2,1,0,131,5,5,2526,2526,prac_patch/patch0002526.jpg,prac_patch/patch0002526.jpg,,,,,,,,,,,,,,,,,,,,,,,,,,,,,,,,,,,,,,,,,,,,,,,,,,,,,,,,,,,,
007056,001,2022-11-14_24h27.03.596,Info_measure_main_exp,2022.2.2,Win32,59.86948452,,,,,,,,,,,,,0,0,0,4,1,masks/mask_005.jpg,,,,,,,,,,,,,,,,,,,,,,,,,,,,,,,,,,,,,,,,,,,,,,,,,,,,,,,,,,,,,,,,,,,,,,,,,,,,,,,,,,,,,,,,,,,,,
007056,001,2022-11-14_24h27.03.596,Info_measure_main_exp,2022.2.2,Win32,59.86948452,,,,,,,,,,,,,0,1,1,3,1,masks/mask_004.jpg,,,,,,,,,,,,,,,,,,,,,,,,,,,,,,,,,,,,,,,,,,,,,,,,,,,,,,,,,,,,,,,,,,,,,,,,,,,,,,,,,,,,,,,,,,,,,
007056,001,2022-11-14_24h27.03.596,Info_measure_main_exp,2022.2.2,Win32,59.86948452,,,,,,,,,,,,,0,2,2,2,1,masks/mask_003.jpg,,,,,,,,,,,,,,,,,,,,,,,,,,,,,,,,,,,,,,,,,,,,,,,,,,,,,,,,,,,,,,,,,,,,,,,,,,,,,,,,,,,,,,,,,,,,,
007056,001,2022-11-14_24h27.03.596,Info_measure_main_exp,2022.2.2,Win32,59.86948452,,,,,,,,,,,,,0,3,3,0,1,masks/mask_001.jpg,,,,,,,,,,,,,,,,,,,,,,,,,,,,,,,,,,,,,,,,,,,,,,,,,,,,,,,,,,,,,,,,,,,,,,,,,,,,,,,,,,,,,,,,,,,,,
007056,001,2022-11-14_24h27.03.596,Info_measure_main_exp,2022.2.2,Win32,59.86948452,,,,,,,,,,,,,0,4,4,1,1,masks/mask_002.jpg,,,,,,,,,,,,,,,,,,,,,,,,,,,,,,,,,,,,,,,,,,,,,,,,,,,,,,,,,,,,,,,,,,,,,,,,,,,,,,,,,,,,,,,,,,,,,
007056,001,2022-11-14_24h27.03.596,Info_measure_main_exp,2022.2.2,Win32,59.86948452,,,,,,,,,,,,,,,,,,masks/mask_005.jpg,0,0,0,4,1,,,,,,,,,,,,,,,,,,,,,,,,,,,,,,,,,,,,,,,,,,,,,,,,,,,,,,,,,,,,,,,,,,,,,,,,,,,,,,,,,,,,,,,,
007056,001,2022-11-14_24h27.03.596,Info_measure_main_exp,2022.2.2,Win32,59.86948452,,,,,,,,,,,,,,,,,,masks/mask_001.jpg,0,1,1,0,1,,,,,,,,,,,,,,,,,,,,,,,,,,,,,,,,,,,,,,,,,,,,,,,,,,,,,,,,,,,,,,,,,,,,,,,,,,,,,,,,,,,,,,,,
007056,001,2022-11-14_24h27.03.596,Info_measure_main_exp,2022.2.2,Win32,59.86948452,,,,,,,,,,,,,,,,,,masks/mask_002.jpg,0,2,2,1,1,,,,,,,,,,,,,,,,,,,,,,,,,,,,,,,,,,,,,,,,,,,,,,,,,,,,,,,,,,,,,,,,,,,,,,,,,,,,,,,,,,,,,,,,
007056,001,2022-11-14_24h27.03.596,Info_measure_main_exp,2022.2.2,Win32,59.86948452,,,,,,,,,,,,,,,,,,masks/mask_003.jpg,0,3,3,2,1,,,,,,,,,,,,,,,,,,,,,,,,,,,,,,,,,,,,,,,,,,,,,,,,,,,,,,,,,,,,,,,,,,,,,,,,,,,,,,,,,,,,,,,,
007056,001,2022-11-14_24h27.03.596,Info_measure_main_exp,2022.2.2,Win32,59.86948452,,,,,,,,,,,,,,,,,,masks/mask_004.jpg,0,4,4,3,1,,,,,,,,,,,,,,,,,,,,,,,,,,,,,,,,,,,,,,,,,,,,,,,,,,,,,,,,,,,,,,,,,,,,,,,,,,,,,,,,,,,,,,,,
007056,001,2022-11-14_24h27.03.596,Info_measure_main_exp,2022.2.2,Win32,59.86948452,,,,,,,,,,,,,,,,,,,,,,,,0.172222222,0.013333333,1,0,0,response1disk,6,132.7858,1,0,-0.005555556,1,0,0,center_square,0,2,2,0,1,0,131,5,5,2370,2406,prac_patch/patch0002370.jpg,prac_patch/patch0002406.jpg,,,,,,,,,,,,,,,,,,,,,,,,,,,,,,,,,,,,,,,,,,,,,,,,,,,,,,,,,,,,
007056,001,2022-11-14_24h27.03.596,Info_measure_main_exp,2022.2.2,Win32,59.86948452,,,,,,,,,,,,,,,,,,,,,,,,,,,,,,,,,,,,,,,,,,,,,,,,,,,,,,,,,,,space,3.2918,,,,,,,,,,,,,,,,,,,,,,,,,,,,,,,,,,,,,,,,,,,,,,,,,,,
007056,001,2022-11-14_24h27.03.596,Info_measure_main_exp,2022.2.2,Win32,59.86948452,,,,,,,,,,,,,,,,,,masks/mask_003.jpg,,,,,,,,,,,,,,,,,,,,,,,,,,,,,,,,,,,,,,,,,,,0,0,0,2,1,,,,,,,,,,,,,,,,,,,,,,,,,,,,,,,,,,,,,,,,,,,,,,
007056,001,2022-11-14_24h27.03.596,Info_measure_main_exp,2022.2.2,Win32,59.86948452,,,,,,,,,,,,,,,,,,masks/mask_005.jpg,,,,,,,,,,,,,,,,,,,,,,,,,,,,,,,,,,,,,,,,,,,0,1,1,4,1,,,,,,,,,,,,,,,,,,,,,,,,,,,,,,,,,,,,,,,,,,,,,,
007056,001,2022-11-14_24h27.03.596,Info_measure_main_exp,2022.2.2,Win32,59.86948452,,,,,,,,,,,,,,,,,,masks/mask_002.jpg,,,,,,,,,,,,,,,,,,,,,,,,,,,,,,,,,,,,,,,,,,,0,2,2,1,1,,,,,,,,,,,,,,,,,,,,,,,,,,,,,,,,,,,,,,,,,,,,,,
007056,001,2022-11-14_24h27.03.596,Info_measure_main_exp,2022.2.2,Win32,59.86948452,,,,,,,,,,,,,,,,,,masks/mask_001.jpg,,,,,,,,,,,,,,,,,,,,,,,,,,,,,,,,,,,,,,,,,,,0,3,3,0,1,,,,,,,,,,,,,,,,,,,,,,,,,,,,,,,,,,,,,,,,,,,,,,
007056,001,2022-11-14_24h27.03.596,Info_measure_main_exp,2022.2.2,Win32,59.86948452,,,,,,,,,,,,,,,,,,masks/mask_004.jpg,,,,,,,,,,,,,,,,,,,,,,,,,,,,,,,,,,,,,,,,,,,0,4,4,3,1,,,,,,,,,,,,,,,,,,,,,,,,,,,,,,,,,,,,,,,,,,,,,,
007056,001,2022-11-14_24h27.03.596,Info_measure_main_exp,2022.2.2,Win32,59.86948452,,,,,,,,,,,,,,,,,,masks/mask_004.jpg,,,,,,,,,,,,,,,,,,,,,,,,,,,,,,,,,,,,,,,,,,,,,,,,0,0,0,3,1,,,,,,,,,,,,,,,,,,,,,,,,,,,,,,,,,,,,,,,,,
007056,001,2022-11-14_24h27.03.596,Info_measure_main_exp,2022.2.2,Win32,59.86948452,,,,,,,,,,,,,,,,,,masks/mask_002.jpg,,,,,,,,,,,,,,,,,,,,,,,,,,,,,,,,,,,,,,,,,,,,,,,,0,1,1,1,1,,,,,,,,,,,,,,,,,,,,,,,,,,,,,,,,,,,,,,,,,
007056,001,2022-11-14_24h27.03.596,Info_measure_main_exp,2022.2.2,Win32,59.86948452,,,,,,,,,,,,,,,,,,masks/mask_005.jpg,,,,,,,,,,,,,,,,,,,,,,,,,,,,,,,,,,,,,,,,,,,,,,,,0,2,2,4,1,,,,,,,,,,,,,,,,,,,,,,,,,,,,,,,,,,,,,,,,,
007056,001,2022-11-14_24h27.03.596,Info_measure_main_exp,2022.2.2,Win32,59.86948452,,,,,,,,,,,,,,,,,,masks/mask_003.jpg,,,,,,,,,,,,,,,,,,,,,,,,,,,,,,,,,,,,,,,,,,,,,,,,0,3,3,2,1,,,,,,,,,,,,,,,,,,,,,,,,,,,,,,,,,,,,,,,,,
007056,001,2022-11-14_24h27.03.596,Info_measure_main_exp,2022.2.2,Win32,59.86948452,,,,,,,,,,,,,,,,,,masks/mask_001.jpg,,,,,,,,,,,,,,,,,,,,,,,,,,,,,,,,,,,,,,,,,,,,,,,,0,4,4,0,1,,,,,,,,,,,,,,,,,,,,,,,,,,,,,,,,,,,,,,,,,
007056,001,2022-11-14_24h27.03.596,Info_measure_main_exp,2022.2.2,Win32,59.86948452,,,,,,,,,,,,,,,,,,,,,,,,,,,,,,7,3.2279,1,,,,,,,,,,,,0,131,5,5,2178,2142,absent_patch/patch0002178.jpg,absent_patch/patch0002142.jpg,,,,,,,,,,,,,,,,,,,,0.082222222,0.118888889,1,0,0,response1disk,1,-0.007777778,0.007777778,1,0,0,center_square,0,0,0,41,1,,,,,,,,,,,,,,,,,,,,,,,
007056,001,2022-11-14_24h27.03.596,Info_measure_main_exp,2022.2.2,Win32,59.86948452,,,,,,,,,,,,,,,,,,masks/mask_002.jpg,,,,,,,,,,,,,,,,,,,,,,,,,,,,,,,,,,,,,,,,,,,0,0,0,1,1,,,,,,,,,,,,,,,,,,,,,,,,,,,,,,,,,,,,,,,,,,,,,,
007056,001,2022-11-14_24h27.03.596,Info_measure_main_exp,2022.2.2,Win32,59.86948452,,,,,,,,,,,,,,,,,,masks/mask_004.jpg,,,,,,,,,,,,,,,,,,,,,,,,,,,,,,,,,,,,,,,,,,,0,1,1,3,1,,,,,,,,,,,,,,,,,,,,,,,,,,,,,,,,,,,,,,,,,,,,,,
007056,001,2022-11-14_24h27.03.596,Info_measure_main_exp,2022.2.2,Win32,59.86948452,,,,,,,,,,,,,,,,,,masks/mask_003.jpg,,,,,,,,,,,,,,,,,,,,,,,,,,,,,,,,,,,,,,,,,,,0,2,2,2,1,,,,,,,,,,,,,,,,,,,,,,,,,,,,,,,,,,,,,,,,,,,,,,
007056,001,2022-11-14_24h27.03.596,Info_measure_main_exp,2022.2.2,Win32,59.86948452,,,,,,,,,,,,,,,,,,masks/mask_005.jpg,,,,,,,,,,,,,,,,,,,,,,,,,,,,,,,,,,,,,,,,,,,0,3,3,4,1,,,,,,,,,,,,,,,,,,,,,,,,,,,,,,,,,,,,,,,,,,,,,,
007056,001,2022-11-14_24h27.03.596,Info_measure_main_exp,2022.2.2,Win32,59.86948452,,,,,,,,,,,,,,,,,,masks/mask_001.jpg,,,,,,,,,,,,,,,,,,,,,,,,,,,,,,,,,,,,,,,,,,,0,4,4,0,1,,,,,,,,,,,,,,,,,,,,,,,,,,,,,,,,,,,,,,,,,,,,,,
007056,001,2022-11-14_24h27.03.596,Info_measure_main_exp,2022.2.2,Win32,59.86948452,,,,,,,,,,,,,,,,,,masks/mask_005.jpg,,,,,,,,,,,,,,,,,,,,,,,,,,,,,,,,,,,,,,,,,,,,,,,,0,0,0,4,1,,,,,,,,,,,,,,,,,,,,,,,,,,,,,,,,,,,,,,,,,
007056,001,2022-11-14_24h27.03.596,Info_measure_main_exp,2022.2.2,Win32,59.86948452,,,,,,,,,,,,,,,,,,masks/mask_002.jpg,,,,,,,,,,,,,,,,,,,,,,,,,,,,,,,,,,,,,,,,,,,,,,,,0,1,1,1,1,,,,,,,,,,,,,,,,,,,,,,,,,,,,,,,,,,,,,,,,,
007056,001,2022-11-14_24h27.03.596,Info_measure_main_exp,2022.2.2,Win32,59.86948452,,,,,,,,,,,,,,,,,,masks/mask_004.jpg,,,,,,,,,,,,,,,,,,,,,,,,,,,,,,,,,,,,,,,,,,,,,,,,0,2,2,3,1,,,,,,,,,,,,,,,,,,,,,,,,,,,,,,,,,,,,,,,,,
007056,001,2022-11-14_24h27.03.596,Info_measure_main_exp,2022.2.2,Win32,59.86948452,,,,,,,,,,,,,,,,,,masks/mask_001.jpg,,,,,,,,,,,,,,,,,,,,,,,,,,,,,,,,,,,,,,,,,,,,,,,,0,3,3,0,1,,,,,,,,,,,,,,,,,,,,,,,,,,,,,,,,,,,,,,,,,
007056,001,2022-11-14_24h27.03.596,Info_measure_main_exp,2022.2.2,Win32,59.86948452,,,,,,,,,,,,,,,,,,masks/mask_003.jpg,,,,,,,,,,,,,,,,,,,,,,,,,,,,,,,,,,,,,,,,,,,,,,,,0,4,4,2,1,,,,,,,,,,,,,,,,,,,,,,,,,,,,,,,,,,,,,,,,,
007056,001,2022-11-14_24h27.03.596,Info_measure_main_exp,2022.2.2,Win32,59.86948452,,,,,,,,,,,,,,,,,,,,,,,,,,,,,,7,1.0318,1,,,,,,,,,,,,0,131,5,5,2274,1974,absent_patch/patch0002274.jpg,absent_patch/patch0001974.jpg,,,,,,,,,,,,,,,,,,,,0.022222222,0.093333333,1,0,0,response1disk,2,0.001111111,-0.006666667,1,0,0,center_square,0,1,1,90,1,,,,,,,,,,,,,,,,,,,,,,,
007056,001,2022-11-14_24h27.03.596,Info_measure_main_exp,2022.2.2,Win32,59.86948452,,,,,,,,,,,,,,,,,,masks/mask_001.jpg,,,,,,,,,,,,,,,,,,,,,,,,,,,,,,,,,,,,,,,,,,,0,0,0,0,1,,,,,,,,,,,,,,,,,,,,,,,,,,,,,,,,,,,,,,,,,,,,,,
007056,001,2022-11-14_24h27.03.596,Info_measure_main_exp,2022.2.2,Win32,59.86948452,,,,,,,,,,,,,,,,,,masks/mask_004.jpg,,,,,,,,,,,,,,,,,,,,,,,,,,,,,,,,,,,,,,,,,,,0,1,1,3,1,,,,,,,,,,,,,,,,,,,,,,,,,,,,,,,,,,,,,,,,,,,,,,
007056,001,2022-11-14_24h27.03.596,Info_measure_main_exp,2022.2.2,Win32,59.86948452,,,,,,,,,,,,,,,,,,masks/mask_002.jpg,,,,,,,,,,,,,,,,,,,,,,,,,,,,,,,,,,,,,,,,,,,0,2,2,1,1,,,,,,,,,,,,,,,,,,,,,,,,,,,,,,,,,,,,,,,,,,,,,,
007056,001,2022-11-14_24h27.03.596,Info_measure_main_exp,2022.2.2,Win32,59.86948452,,,,,,,,,,,,,,,,,,masks/mask_005.jpg,,,,,,,,,,,,,,,,,,,,,,,,,,,,,,,,,,,,,,,,,,,0,3,3,4,1,,,,,,,,,,,,,,,,,,,,,,,,,,,,,,,,,,,,,,,,,,,,,,
007056,001,2022-11-14_24h27.03.596,Info_measure_main_exp,2022.2.2,Win32,59.86948452,,,,,,,,,,,,,,,,,,masks/mask_003.jpg,,,,,,,,,,,,,,,,,,,,,,,,,,,,,,,,,,,,,,,,,,,0,4,4,2,1,,,,,,,,,,,,,,,,,,,,,,,,,,,,,,,,,,,,,,,,,,,,,,
007056,001,2022-11-14_24h27.03.596,Info_measure_main_exp,2022.2.2,Win32,59.86948452,,,,,,,,,,,,,,,,,,masks/mask_004.jpg,,,,,,,,,,,,,,,,,,,,,,,,,,,,,,,,,,,,,,,,,,,,,,,,0,0,0,3,1,,,,,,,,,,,,,,,,,,,,,,,,,,,,,,,,,,,,,,,,,
007056,001,2022-11-14_24h27.03.596,Info_measure_main_exp,2022.2.2,Win32,59.86948452,,,,,,,,,,,,,,,,,,masks/mask_001.jpg,,,,,,,,,,,,,,,,,,,,,,,,,,,,,,,,,,,,,,,,,,,,,,,,0,1,1,0,1,,,,,,,,,,,,,,,,,,,,,,,,,,,,,,,,,,,,,,,,,
007056,001,2022-11-14_24h27.03.596,Info_measure_main_exp,2022.2.2,Win32,59.86948452,,,,,,,,,,,,,,,,,,masks/mask_003.jpg,,,,,,,,,,,,,,,,,,,,,,,,,,,,,,,,,,,,,,,,,,,,,,,,0,2,2,2,1,,,,,,,,,,,,,,,,,,,,,,,,,,,,,,,,,,,,,,,,,
007056,001,2022-11-14_24h27.03.596,Info_measure_main_exp,2022.2.2,Win32,59.86948452,,,,,,,,,,,,,,,,,,masks/mask_005.jpg,,,,,,,,,,,,,,,,,,,,,,,,,,,,,,,,,,,,,,,,,,,,,,,,0,3,3,4,1,,,,,,,,,,,,,,,,,,,,,,,,,,,,,,,,,,,,,,,,,
007056,001,2022-11-14_24h27.03.596,Info_measure_main_exp,2022.2.2,Win32,59.86948452,,,,,,,,,,,,,,,,,,masks/mask_002.jpg,,,,,,,,,,,,,,,,,,,,,,,,,,,,,,,,,,,,,,,,,,,,,,,,0,4,4,1,1,,,,,,,,,,,,,,,,,,,,,,,,,,,,,,,,,,,,,,,,,
007056,001,2022-11-14_24h27.03.596,Info_measure_main_exp,2022.2.2,Win32,59.86948452,,,,,,,,,,,,,,,,,,,,,,,,,,,,,,6,1.7495,1,,,,,,,,,,,,0,131,5,5,2142,2082,absent_patch/patch0002142.jpg,absent_patch/patch0002082.jpg,,,,,,,,,,,,,,,,,,,,0.036666667,0.016666667,1,0,0,response1disk,3,0.007777778,0.003333333,1,0,0,center_square,0,2,2,88,1,,,,,,,,,,,,,,,,,,,,,,,
007056,001,2022-11-14_24h27.03.596,Info_measure_main_exp,2022.2.2,Win32,59.86948452,,,,,,,,,,,,,,,,,,masks/mask_005.jpg,,,,,,,,,,,,,,,,,,,,,,,,,,,,,,,,,,,,,,,,,,,0,0,0,4,1,,,,,,,,,,,,,,,,,,,,,,,,,,,,,,,,,,,,,,,,,,,,,,
007056,001,2022-11-14_24h27.03.596,Info_measure_main_exp,2022.2.2,Win32,59.86948452,,,,,,,,,,,,,,,,,,masks/mask_004.jpg,,,,,,,,,,,,,,,,,,,,,,,,,,,,,,,,,,,,,,,,,,,0,1,1,3,1,,,,,,,,,,,,,,,,,,,,,,,,,,,,,,,,,,,,,,,,,,,,,,
007056,001,2022-11-14_24h27.03.596,Info_measure_main_exp,2022.2.2,Win32,59.86948452,,,,,,,,,,,,,,,,,,masks/mask_003.jpg,,,,,,,,,,,,,,,,,,,,,,,,,,,,,,,,,,,,,,,,,,,0,2,2,2,1,,,,,,,,,,,,,,,,,,,,,,,,,,,,,,,,,,,,,,,,,,,,,,
007056,001,2022-11-14_24h27.03.596,Info_measure_main_exp,2022.2.2,Win32,59.86948452,,,,,,,,,,,,,,,,,,masks/mask_001.jpg,,,,,,,,,,,,,,,,,,,,,,,,,,,,,,,,,,,,,,,,,,,0,3,3,0,1,,,,,,,,,,,,,,,,,,,,,,,,,,,,,,,,,,,,,,,,,,,,,,
007056,001,2022-11-14_24h27.03.596,Info_measure_main_exp,2022.2.2,Win32,59.86948452,,,,,,,,,,,,,,,,,,masks/mask_002.jpg,,,,,,,,,,,,,,,,,,,,,,,,,,,,,,,,,,,,,,,,,,,0,4,4,1,1,,,,,,,,,,,,,,,,,,,,,,,,,,,,,,,,,,,,,,,,,,,,,,
007056,001,2022-11-14_24h27.03.596,Info_measure_main_exp,2022.2.2,Win32,59.86948452,,,,,,,,,,,,,,,,,,masks/mask_004.jpg,,,,,,,,,,,,,,,,,,,,,,,,,,,,,,,,,,,,,,,,,,,,,,,,0,0,0,3,1,,,,,,,,,,,,,,,,,,,,,,,,,,,,,,,,,,,,,,,,,
007056,001,2022-11-14_24h27.03.596,Info_measure_main_exp,2022.2.2,Win32,59.86948452,,,,,,,,,,,,,,,,,,masks/mask_003.jpg,,,,,,,,,,,,,,,,,,,,,,,,,,,,,,,,,,,,,,,,,,,,,,,,0,1,1,2,1,,,,,,,,,,,,,,,,,,,,,,,,,,,,,,,,,,,,,,,,,
007056,001,2022-11-14_24h27.03.596,Info_measure_main_exp,2022.2.2,Win32,59.86948452,,,,,,,,,,,,,,,,,,masks/mask_002.jpg,,,,,,,,,,,,,,,,,,,,,,,,,,,,,,,,,,,,,,,,,,,,,,,,0,2,2,1,1,,,,,,,,,,,,,,,,,,,,,,,,,,,,,,,,,,,,,,,,,
007056,001,2022-11-14_24h27.03.596,Info_measure_main_exp,2022.2.2,Win32,59.86948452,,,,,,,,,,,,,,,,,,masks/mask_005.jpg,,,,,,,,,,,,,,,,,,,,,,,,,,,,,,,,,,,,,,,,,,,,,,,,0,3,3,4,1,,,,,,,,,,,,,,,,,,,,,,,,,,,,,,,,,,,,,,,,,
007056,001,2022-11-14_24h27.03.596,Info_measure_main_exp,2022.2.2,Win32,59.86948452,,,,,,,,,,,,,,,,,,masks/mask_001.jpg,,,,,,,,,,,,,,,,,,,,,,,,,,,,,,,,,,,,,,,,,,,,,,,,0,4,4,0,1,,,,,,,,,,,,,,,,,,,,,,,,,,,,,,,,,,,,,,,,,
007056,001,2022-11-14_24h27.03.596,Info_measure_main_exp,2022.2.2,Win32,59.86948452,,,,,,,,,,,,,,,,,,,,,,,,,,,,,,4,1.1325,1,,,,,,,,,,,,0,131,5,5,1974,2178,absent_patch/patch0001974.jpg,absent_patch/patch0002178.jpg,,,,,,,,,,,,,,,,,,,,0.025555556,-0.072222222,1,0,0,response3disk,4,0.004444444,0,1,0,0,center_square,0,3,3,44,1,,,,,,,,,,,,,,,,,,,,,,,
007056,001,2022-11-14_24h27.03.596,Info_measure_main_exp,2022.2.2,Win32,59.86948452,,,,,,,,,,,,,,,,,,masks/mask_004.jpg,,,,,,,,,,,,,,,,,,,,,,,,,,,,,,,,,,,,,,,,,,,0,0,0,3,1,,,,,,,,,,,,,,,,,,,,,,,,,,,,,,,,,,,,,,,,,,,,,,
007056,001,2022-11-14_24h27.03.596,Info_measure_main_exp,2022.2.2,Win32,59.86948452,,,,,,,,,,,,,,,,,,masks/mask_002.jpg,,,,,,,,,,,,,,,,,,,,,,,,,,,,,,,,,,,,,,,,,,,0,1,1,1,1,,,,,,,,,,,,,,,,,,,,,,,,,,,,,,,,,,,,,,,,,,,,,,
007056,001,2022-11-14_24h27.03.596,Info_measure_main_exp,2022.2.2,Win32,59.86948452,,,,,,,,,,,,,,,,,,masks/mask_001.jpg,,,,,,,,,,,,,,,,,,,,,,,,,,,,,,,,,,,,,,,,,,,0,2,2,0,1,,,,,,,,,,,,,,,,,,,,,,,,,,,,,,,,,,,,,,,,,,,,,,
007056,001,2022-11-14_24h27.03.596,Info_measure_main_exp,2022.2.2,Win32,59.86948452,,,,,,,,,,,,,,,,,,masks/mask_005.jpg,,,,,,,,,,,,,,,,,,,,,,,,,,,,,,,,,,,,,,,,,,,0,3,3,4,1,,,,,,,,,,,,,,,,,,,,,,,,,,,,,,,,,,,,,,,,,,,,,,
007056,001,2022-11-14_24h27.03.596,Info_measure_main_exp,2022.2.2,Win32,59.86948452,,,,,,,,,,,,,,,,,,masks/mask_003.jpg,,,,,,,,,,,,,,,,,,,,,,,,,,,,,,,,,,,,,,,,,,,0,4,4,2,1,,,,,,,,,,,,,,,,,,,,,,,,,,,,,,,,,,,,,,,,,,,,,,
007056,001,2022-11-14_24h27.03.596,Info_measure_main_exp,2022.2.2,Win32,59.86948452,,,,,,,,,,,,,,,,,,masks/mask_005.jpg,,,,,,,,,,,,,,,,,,,,,,,,,,,,,,,,,,,,,,,,,,,,,,,,0,0,0,4,1,,,,,,,,,,,,,,,,,,,,,,,,,,,,,,,,,,,,,,,,,
007056,001,2022-11-14_24h27.03.596,Info_measure_main_exp,2022.2.2,Win32,59.86948452,,,,,,,,,,,,,,,,,,masks/mask_001.jpg,,,,,,,,,,,,,,,,,,,,,,,,,,,,,,,,,,,,,,,,,,,,,,,,0,1,1,0,1,,,,,,,,,,,,,,,,,,,,,,,,,,,,,,,,,,,,,,,,,
007056,001,2022-11-14_24h27.03.596,Info_measure_main_exp,2022.2.2,Win32,59.86948452,,,,,,,,,,,,,,,,,,masks/mask_003.jpg,,,,,,,,,,,,,,,,,,,,,,,,,,,,,,,,,,,,,,,,,,,,,,,,0,2,2,2,1,,,,,,,,,,,,,,,,,,,,,,,,,,,,,,,,,,,,,,,,,
007056,001,2022-11-14_24h27.03.596,Info_measure_main_exp,2022.2.2,Win32,59.86948452,,,,,,,,,,,,,,,,,,masks/mask_002.jpg,,,,,,,,,,,,,,,,,,,,,,,,,,,,,,,,,,,,,,,,,,,,,,,,0,3,3,1,1,,,,,,,,,,,,,,,,,,,,,,,,,,,,,,,,,,,,,,,,,
007056,001,2022-11-14_24h27.03.596,Info_measure_main_exp,2022.2.2,Win32,59.86948452,,,,,,,,,,,,,,,,,,masks/mask_004.jpg,,,,,,,,,,,,,,,,,,,,,,,,,,,,,,,,,,,,,,,,,,,,,,,,0,4,4,3,1,,,,,,,,,,,,,,,,,,,,,,,,,,,,,,,,,,,,,,,,,
007056,001,2022-11-14_24h27.03.596,Info_measure_main_exp,2022.2.2,Win32,59.86948452,,,,,,,,,,,,,,,,,,,,,,,,,,,,,,5,2.75,1,,,,,,,,,,,,0,131,5,5,2250,2142,absent_patch/patch0002250.jpg,absent_patch/patch0002142.jpg,,,,,,,,,,,,,,,,,,,,0.023333333,-0.011111111,1,0,0,response3disk,5,0.006666667,-0.002222222,1,0,0,center_square,0,4,4,71,1,,,,,,,,,,,,,,,,,,,,,,,
007056,001,2022-11-14_24h27.03.596,Info_measure_main_exp,2022.2.2,Win32,59.86948452,,,,,,,,,,,,,,,,,,masks/mask_002.jpg,,,,,,,,,,,,,,,,,,,,,,,,,,,,,,,,,,,,,,,,,,,0,0,0,1,1,,,,,,,,,,,,,,,,,,,,,,,,,,,,,,,,,,,,,,,,,,,,,,
007056,001,2022-11-14_24h27.03.596,Info_measure_main_exp,2022.2.2,Win32,59.86948452,,,,,,,,,,,,,,,,,,masks/mask_003.jpg,,,,,,,,,,,,,,,,,,,,,,,,,,,,,,,,,,,,,,,,,,,0,1,1,2,1,,,,,,,,,,,,,,,,,,,,,,,,,,,,,,,,,,,,,,,,,,,,,,
007056,001,2022-11-14_24h27.03.596,Info_measure_main_exp,2022.2.2,Win32,59.86948452,,,,,,,,,,,,,,,,,,masks/mask_001.jpg,,,,,,,,,,,,,,,,,,,,,,,,,,,,,,,,,,,,,,,,,,,0,2,2,0,1,,,,,,,,,,,,,,,,,,,,,,,,,,,,,,,,,,,,,,,,,,,,,,
007056,001,2022-11-14_24h27.03.596,Info_measure_main_exp,2022.2.2,Win32,59.86948452,,,,,,,,,,,,,,,,,,masks/mask_004.jpg,,,,,,,,,,,,,,,,,,,,,,,,,,,,,,,,,,,,,,,,,,,0,3,3,3,1,,,,,,,,,,,,,,,,,,,,,,,,,,,,,,,,,,,,,,,,,,,,,,
007056,001,2022-11-14_24h27.03.596,Info_measure_main_exp,2022.2.2,Win32,59.86948452,,,,,,,,,,,,,,,,,,masks/mask_005.jpg,,,,,,,,,,,,,,,,,,,,,,,,,,,,,,,,,,,,,,,,,,,0,4,4,4,1,,,,,,,,,,,,,,,,,,,,,,,,,,,,,,,,,,,,,,,,,,,,,,
007056,001,2022-11-14_24h27.03.596,Info_measure_main_exp,2022.2.2,Win32,59.86948452,,,,,,,,,,,,,,,,,,masks/mask_003.jpg,,,,,,,,,,,,,,,,,,,,,,,,,,,,,,,,,,,,,,,,,,,,,,,,0,0,0,2,1,,,,,,,,,,,,,,,,,,,,,,,,,,,,,,,,,,,,,,,,,
007056,001,2022-11-14_24h27.03.596,Info_measure_main_exp,2022.2.2,Win32,59.86948452,,,,,,,,,,,,,,,,,,masks/mask_005.jpg,,,,,,,,,,,,,,,,,,,,,,,,,,,,,,,,,,,,,,,,,,,,,,,,0,1,1,4,1,,,,,,,,,,,,,,,,,,,,,,,,,,,,,,,,,,,,,,,,,
007056,001,2022-11-14_24h27.03.596,Info_measure_main_exp,2022.2.2,Win32,59.86948452,,,,,,,,,,,,,,,,,,masks/mask_004.jpg,,,,,,,,,,,,,,,,,,,,,,,,,,,,,,,,,,,,,,,,,,,,,,,,0,2,2,3,1,,,,,,,,,,,,,,,,,,,,,,,,,,,,,,,,,,,,,,,,,
007056,001,2022-11-14_24h27.03.596,Info_measure_main_exp,2022.2.2,Win32,59.86948452,,,,,,,,,,,,,,,,,,masks/mask_001.jpg,,,,,,,,,,,,,,,,,,,,,,,,,,,,,,,,,,,,,,,,,,,,,,,,0,3,3,0,1,,,,,,,,,,,,,,,,,,,,,,,,,,,,,,,,,,,,,,,,,
007056,001,2022-11-14_24h27.03.596,Info_measure_main_exp,2022.2.2,Win32,59.86948452,,,,,,,,,,,,,,,,,,masks/mask_002.jpg,,,,,,,,,,,,,,,,,,,,,,,,,,,,,,,,,,,,,,,,,,,,,,,,0,4,4,1,1,,,,,,,,,,,,,,,,,,,,,,,,,,,,,,,,,,,,,,,,,
007056,001,2022-11-14_24h27.03.596,Info_measure_main_exp,2022.2.2,Win32,59.86948452,,,,,,,,,,,,,,,,,,,,,,,,,,,,,,6,1.6664,1,,,,,,,,,,,,1,131,5,5,1950,1,absent_patch/patch0001950.jpg,present_patch/cong_131_5_a.jpg,,,,,,,,,,,,,,,,,,,,0.027777778,0.025555556,1,0,0,response1disk,6,0.008888889,0.008888889,1,0,0,center_square,0,5,5,39,1,,,,,,,,,,,,,,,,,,,,,,,
007056,001,2022-11-14_24h27.03.596,Info_measure_main_exp,2022.2.2,Win32,59.86948452,,,,,,,,,,,,,,,,,,masks/mask_002.jpg,,,,,,,,,,,,,,,,,,,,,,,,,,,,,,,,,,,,,,,,,,,0,0,0,1,1,,,,,,,,,,,,,,,,,,,,,,,,,,,,,,,,,,,,,,,,,,,,,,
007056,001,2022-11-14_24h27.03.596,Info_measure_main_exp,2022.2.2,Win32,59.86948452,,,,,,,,,,,,,,,,,,masks/mask_001.jpg,,,,,,,,,,,,,,,,,,,,,,,,,,,,,,,,,,,,,,,,,,,0,1,1,0,1,,,,,,,,,,,,,,,,,,,,,,,,,,,,,,,,,,,,,,,,,,,,,,
007056,001,2022-11-14_24h27.03.596,Info_measure_main_exp,2022.2.2,Win32,59.86948452,,,,,,,,,,,,,,,,,,masks/mask_005.jpg,,,,,,,,,,,,,,,,,,,,,,,,,,,,,,,,,,,,,,,,,,,0,2,2,4,1,,,,,,,,,,,,,,,,,,,,,,,,,,,,,,,,,,,,,,,,,,,,,,
007056,001,2022-11-14_24h27.03.596,Info_measure_main_exp,2022.2.2,Win32,59.86948452,,,,,,,,,,,,,,,,,,masks/mask_004.jpg,,,,,,,,,,,,,,,,,,,,,,,,,,,,,,,,,,,,,,,,,,,0,3,3,3,1,,,,,,,,,,,,,,,,,,,,,,,,,,,,,,,,,,,,,,,,,,,,,,
007056,001,2022-11-14_24h27.03.596,Info_measure_main_exp,2022.2.2,Win32,59.86948452,,,,,,,,,,,,,,,,,,masks/mask_003.jpg,,,,,,,,,,,,,,,,,,,,,,,,,,,,,,,,,,,,,,,,,,,0,4,4,2,1,,,,,,,,,,,,,,,,,,,,,,,,,,,,,,,,,,,,,,,,,,,,,,
007056,001,2022-11-14_24h27.03.596,Info_measure_main_exp,2022.2.2,Win32,59.86948452,,,,,,,,,,,,,,,,,,masks/mask_004.jpg,,,,,,,,,,,,,,,,,,,,,,,,,,,,,,,,,,,,,,,,,,,,,,,,0,0,0,3,1,,,,,,,,,,,,,,,,,,,,,,,,,,,,,,,,,,,,,,,,,
007056,001,2022-11-14_24h27.03.596,Info_measure_main_exp,2022.2.2,Win32,59.86948452,,,,,,,,,,,,,,,,,,masks/mask_002.jpg,,,,,,,,,,,,,,,,,,,,,,,,,,,,,,,,,,,,,,,,,,,,,,,,0,1,1,1,1,,,,,,,,,,,,,,,,,,,,,,,,,,,,,,,,,,,,,,,,,
007056,001,2022-11-14_24h27.03.596,Info_measure_main_exp,2022.2.2,Win32,59.86948452,,,,,,,,,,,,,,,,,,masks/mask_003.jpg,,,,,,,,,,,,,,,,,,,,,,,,,,,,,,,,,,,,,,,,,,,,,,,,0,2,2,2,1,,,,,,,,,,,,,,,,,,,,,,,,,,,,,,,,,,,,,,,,,
007056,001,2022-11-14_24h27.03.596,Info_measure_main_exp,2022.2.2,Win32,59.86948452,,,,,,,,,,,,,,,,,,masks/mask_001.jpg,,,,,,,,,,,,,,,,,,,,,,,,,,,,,,,,,,,,,,,,,,,,,,,,0,3,3,0,1,,,,,,,,,,,,,,,,,,,,,,,,,,,,,,,,,,,,,,,,,
007056,001,2022-11-14_24h27.03.596,Info_measure_main_exp,2022.2.2,Win32,59.86948452,,,,,,,,,,,,,,,,,,masks/mask_005.jpg,,,,,,,,,,,,,,,,,,,,,,,,,,,,,,,,,,,,,,,,,,,,,,,,0,4,4,4,1,,,,,,,,,,,,,,,,,,,,,,,,,,,,,,,,,,,,,,,,,
007056,001,2022-11-14_24h27.03.596,Info_measure_main_exp,2022.2.2,Win32,59.86948452,,,,,,,,,,,,,,,,,,,,,,,,,,,,,,5,1.6661,1,,,,,,,,,,,,0,131,5,5,2298,2178,absent_patch/patch0002298.jpg,absent_patch/patch0002178.jpg,,,,,,,,,,,,,,,,,,,,0.054444444,-0.03,1,0,0,response3disk,7,-0.003333333,-0.006666667,1,0,0,center_square,0,6,6,84,1,,,,,,,,,,,,,,,,,,,,,,,
007056,001,2022-11-14_24h27.03.596,Info_measure_main_exp,2022.2.2,Win32,59.86948452,,,,,,,,,,,,,,,,,,masks/mask_003.jpg,,,,,,,,,,,,,,,,,,,,,,,,,,,,,,,,,,,,,,,,,,,0,0,0,2,1,,,,,,,,,,,,,,,,,,,,,,,,,,,,,,,,,,,,,,,,,,,,,,
007056,001,2022-11-14_24h27.03.596,Info_measure_main_exp,2022.2.2,Win32,59.86948452,,,,,,,,,,,,,,,,,,masks/mask_005.jpg,,,,,,,,,,,,,,,,,,,,,,,,,,,,,,,,,,,,,,,,,,,0,1,1,4,1,,,,,,,,,,,,,,,,,,,,,,,,,,,,,,,,,,,,,,,,,,,,,,
007056,001,2022-11-14_24h27.03.596,Info_measure_main_exp,2022.2.2,Win32,59.86948452,,,,,,,,,,,,,,,,,,masks/mask_002.jpg,,,,,,,,,,,,,,,,,,,,,,,,,,,,,,,,,,,,,,,,,,,0,2,2,1,1,,,,,,,,,,,,,,,,,,,,,,,,,,,,,,,,,,,,,,,,,,,,,,
007056,001,2022-11-14_24h27.03.596,Info_measure_main_exp,2022.2.2,Win32,59.86948452,,,,,,,,,,,,,,,,,,masks/mask_004.jpg,,,,,,,,,,,,,,,,,,,,,,,,,,,,,,,,,,,,,,,,,,,0,3,3,3,1,,,,,,,,,,,,,,,,,,,,,,,,,,,,,,,,,,,,,,,,,,,,,,
007056,001,2022-11-14_24h27.03.596,Info_measure_main_exp,2022.2.2,Win32,59.86948452,,,,,,,,,,,,,,,,,,masks/mask_001.jpg,,,,,,,,,,,,,,,,,,,,,,,,,,,,,,,,,,,,,,,,,,,0,4,4,0,1,,,,,,,,,,,,,,,,,,,,,,,,,,,,,,,,,,,,,,,,,,,,,,
007056,001,2022-11-14_24h27.03.596,Info_measure_main_exp,2022.2.2,Win32,59.86948452,,,,,,,,,,,,,,,,,,masks/mask_003.jpg,,,,,,,,,,,,,,,,,,,,,,,,,,,,,,,,,,,,,,,,,,,,,,,,0,0,0,2,1,,,,,,,,,,,,,,,,,,,,,,,,,,,,,,,,,,,,,,,,,
007056,001,2022-11-14_24h27.03.596,Info_measure_main_exp,2022.2.2,Win32,59.86948452,,,,,,,,,,,,,,,,,,masks/mask_005.jpg,,,,,,,,,,,,,,,,,,,,,,,,,,,,,,,,,,,,,,,,,,,,,,,,0,1,1,4,1,,,,,,,,,,,,,,,,,,,,,,,,,,,,,,,,,,,,,,,,,
007056,001,2022-11-14_24h27.03.596,Info_measure_main_exp,2022.2.2,Win32,59.86948452,,,,,,,,,,,,,,,,,,masks/mask_004.jpg,,,,,,,,,,,,,,,,,,,,,,,,,,,,,,,,,,,,,,,,,,,,,,,,0,2,2,3,1,,,,,,,,,,,,,,,,,,,,,,,,,,,,,,,,,,,,,,,,,
007056,001,2022-11-14_24h27.03.596,Info_measure_main_exp,2022.2.2,Win32,59.86948452,,,,,,,,,,,,,,,,,,masks/mask_002.jpg,,,,,,,,,,,,,,,,,,,,,,,,,,,,,,,,,,,,,,,,,,,,,,,,0,3,3,1,1,,,,,,,,,,,,,,,,,,,,,,,,,,,,,,,,,,,,,,,,,
007056,001,2022-11-14_24h27.03.596,Info_measure_main_exp,2022.2.2,Win32,59.86948452,,,,,,,,,,,,,,,,,,masks/mask_001.jpg,,,,,,,,,,,,,,,,,,,,,,,,,,,,,,,,,,,,,,,,,,,,,,,,0,4,4,0,1,,,,,,,,,,,,,,,,,,,,,,,,,,,,,,,,,,,,,,,,,
007056,001,2022-11-14_24h27.03.596,Info_measure_main_exp,2022.2.2,Win32,59.86948452,,,,,,,,,,,,,,,,,,,,,,,,,,,,,,6,2.0007,1,,,,,,,,,,,,1,131,5,5,1,2142,present_patch/cong_131_5_a.jpg,absent_patch/patch0002142.jpg,,,,,,,,,,,,,,,,,,,,0.048888889,0.013333333,1,0,0,response1disk,8,0.005555556,0.002222222,1,0,0,center_square,0,7,7,80,1,,,,,,,,,,,,,,,,,,,,,,,
007056,001,2022-11-14_24h27.03.596,Info_measure_main_exp,2022.2.2,Win32,59.86948452,,,,,,,,,,,,,,,,,,masks/mask_005.jpg,,,,,,,,,,,,,,,,,,,,,,,,,,,,,,,,,,,,,,,,,,,0,0,0,4,1,,,,,,,,,,,,,,,,,,,,,,,,,,,,,,,,,,,,,,,,,,,,,,
007056,001,2022-11-14_24h27.03.596,Info_measure_main_exp,2022.2.2,Win32,59.86948452,,,,,,,,,,,,,,,,,,masks/mask_001.jpg,,,,,,,,,,,,,,,,,,,,,,,,,,,,,,,,,,,,,,,,,,,0,1,1,0,1,,,,,,,,,,,,,,,,,,,,,,,,,,,,,,,,,,,,,,,,,,,,,,
007056,001,2022-11-14_24h27.03.596,Info_measure_main_exp,2022.2.2,Win32,59.86948452,,,,,,,,,,,,,,,,,,masks/mask_002.jpg,,,,,,,,,,,,,,,,,,,,,,,,,,,,,,,,,,,,,,,,,,,0,2,2,1,1,,,,,,,,,,,,,,,,,,,,,,,,,,,,,,,,,,,,,,,,,,,,,,
007056,001,2022-11-14_24h27.03.596,Info_measure_main_exp,2022.2.2,Win32,59.86948452,,,,,,,,,,,,,,,,,,masks/mask_004.jpg,,,,,,,,,,,,,,,,,,,,,,,,,,,,,,,,,,,,,,,,,,,0,3,3,3,1,,,,,,,,,,,,,,,,,,,,,,,,,,,,,,,,,,,,,,,,,,,,,,
007056,001,2022-11-14_24h27.03.596,Info_measure_main_exp,2022.2.2,Win32,59.86948452,,,,,,,,,,,,,,,,,,masks/mask_003.jpg,,,,,,,,,,,,,,,,,,,,,,,,,,,,,,,,,,,,,,,,,,,0,4,4,2,1,,,,,,,,,,,,,,,,,,,,,,,,,,,,,,,,,,,,,,,,,,,,,,
007056,001,2022-11-14_24h27.03.596,Info_measure_main_exp,2022.2.2,Win32,59.86948452,,,,,,,,,,,,,,,,,,masks/mask_005.jpg,,,,,,,,,,,,,,,,,,,,,,,,,,,,,,,,,,,,,,,,,,,,,,,,0,0,0,4,1,,,,,,,,,,,,,,,,,,,,,,,,,,,,,,,,,,,,,,,,,
007056,001,2022-11-14_24h27.03.596,Info_measure_main_exp,2022.2.2,Win32,59.86948452,,,,,,,,,,,,,,,,,,masks/mask_003.jpg,,,,,,,,,,,,,,,,,,,,,,,,,,,,,,,,,,,,,,,,,,,,,,,,0,1,1,2,1,,,,,,,,,,,,,,,,,,,,,,,,,,,,,,,,,,,,,,,,,
007056,001,2022-11-14_24h27.03.596,Info_measure_main_exp,2022.2.2,Win32,59.86948452,,,,,,,,,,,,,,,,,,masks/mask_004.jpg,,,,,,,,,,,,,,,,,,,,,,,,,,,,,,,,,,,,,,,,,,,,,,,,0,2,2,3,1,,,,,,,,,,,,,,,,,,,,,,,,,,,,,,,,,,,,,,,,,
007056,001,2022-11-14_24h27.03.596,Info_measure_main_exp,2022.2.2,Win32,59.86948452,,,,,,,,,,,,,,,,,,masks/mask_002.jpg,,,,,,,,,,,,,,,,,,,,,,,,,,,,,,,,,,,,,,,,,,,,,,,,0,3,3,1,1,,,,,,,,,,,,,,,,,,,,,,,,,,,,,,,,,,,,,,,,,
007056,001,2022-11-14_24h27.03.596,Info_measure_main_exp,2022.2.2,Win32,59.86948452,,,,,,,,,,,,,,,,,,masks/mask_001.jpg,,,,,,,,,,,,,,,,,,,,,,,,,,,,,,,,,,,,,,,,,,,,,,,,0,4,4,0,1,,,,,,,,,,,,,,,,,,,,,,,,,,,,,,,,,,,,,,,,,
007056,001,2022-11-14_24h27.03.596,Info_measure_main_exp,2022.2.2,Win32,59.86948452,,,,,,,,,,,,,,,,,,,,,,,,,,,,,,0,1.6831,1,,,,,,,,,,,,0,131,5,5,2298,2298,absent_patch/patch0002298.jpg,absent_patch/patch0002298.jpg,,,,,,,,,,,,,,,,,,,,-0.045555556,0.136666667,1,0,0,response7disk,9,0.005555556,-0.006666667,1,0,0,center_square,0,8,8,37,1,,,,,,,,,,,,,,,,,,,,,,,
007056,001,2022-11-14_24h27.03.596,Info_measure_main_exp,2022.2.2,Win32,59.86948452,,,,,,,,,,,,,,,,,,masks/mask_002.jpg,,,,,,,,,,,,,,,,,,,,,,,,,,,,,,,,,,,,,,,,,,,0,0,0,1,1,,,,,,,,,,,,,,,,,,,,,,,,,,,,,,,,,,,,,,,,,,,,,,
007056,001,2022-11-14_24h27.03.596,Info_measure_main_exp,2022.2.2,Win32,59.86948452,,,,,,,,,,,,,,,,,,masks/mask_001.jpg,,,,,,,,,,,,,,,,,,,,,,,,,,,,,,,,,,,,,,,,,,,0,1,1,0,1,,,,,,,,,,,,,,,,,,,,,,,,,,,,,,,,,,,,,,,,,,,,,,
007056,001,2022-11-14_24h27.03.596,Info_measure_main_exp,2022.2.2,Win32,59.86948452,,,,,,,,,,,,,,,,,,masks/mask_003.jpg,,,,,,,,,,,,,,,,,,,,,,,,,,,,,,,,,,,,,,,,,,,0,2,2,2,1,,,,,,,,,,,,,,,,,,,,,,,,,,,,,,,,,,,,,,,,,,,,,,
007056,001,2022-11-14_24h27.03.596,Info_measure_main_exp,2022.2.2,Win32,59.86948452,,,,,,,,,,,,,,,,,,masks/mask_005.jpg,,,,,,,,,,,,,,,,,,,,,,,,,,,,,,,,,,,,,,,,,,,0,3,3,4,1,,,,,,,,,,,,,,,,,,,,,,,,,,,,,,,,,,,,,,,,,,,,,,
007056,001,2022-11-14_24h27.03.596,Info_measure_main_exp,2022.2.2,Win32,59.86948452,,,,,,,,,,,,,,,,,,masks/mask_004.jpg,,,,,,,,,,,,,,,,,,,,,,,,,,,,,,,,,,,,,,,,,,,0,4,4,3,1,,,,,,,,,,,,,,,,,,,,,,,,,,,,,,,,,,,,,,,,,,,,,,
007056,001,2022-11-14_24h27.03.596,Info_measure_main_exp,2022.2.2,Win32,59.86948452,,,,,,,,,,,,,,,,,,masks/mask_004.jpg,,,,,,,,,,,,,,,,,,,,,,,,,,,,,,,,,,,,,,,,,,,,,,,,0,0,0,3,1,,,,,,,,,,,,,,,,,,,,,,,,,,,,,,,,,,,,,,,,,
007056,001,2022-11-14_24h27.03.596,Info_measure_main_exp,2022.2.2,Win32,59.86948452,,,,,,,,,,,,,,,,,,masks/mask_005.jpg,,,,,,,,,,,,,,,,,,,,,,,,,,,,,,,,,,,,,,,,,,,,,,,,0,1,1,4,1,,,,,,,,,,,,,,,,,,,,,,,,,,,,,,,,,,,,,,,,,
007056,001,2022-11-14_24h27.03.596,Info_measure_main_exp,2022.2.2,Win32,59.86948452,,,,,,,,,,,,,,,,,,masks/mask_002.jpg,,,,,,,,,,,,,,,,,,,,,,,,,,,,,,,,,,,,,,,,,,,,,,,,0,2,2,1,1,,,,,,,,,,,,,,,,,,,,,,,,,,,,,,,,,,,,,,,,,
007056,001,2022-11-14_24h27.03.596,Info_measure_main_exp,2022.2.2,Win32,59.86948452,,,,,,,,,,,,,,,,,,masks/mask_001.jpg,,,,,,,,,,,,,,,,,,,,,,,,,,,,,,,,,,,,,,,,,,,,,,,,0,3,3,0,1,,,,,,,,,,,,,,,,,,,,,,,,,,,,,,,,,,,,,,,,,
007056,001,2022-11-14_24h27.03.596,Info_measure_main_exp,2022.2.2,Win32,59.86948452,,,,,,,,,,,,,,,,,,masks/mask_003.jpg,,,,,,,,,,,,,,,,,,,,,,,,,,,,,,,,,,,,,,,,,,,,,,,,0,4,4,2,1,,,,,,,,,,,,,,,,,,,,,,,,,,,,,,,,,,,,,,,,,
007056,001,2022-11-14_24h27.03.596,Info_measure_main_exp,2022.2.2,Win32,59.86948452,,,,,,,,,,,,,,,,,,,,,,,,,,,,,,5,1.8999,1,,,,,,,,,,,,0,131,5,5,2274,2250,absent_patch/patch0002274.jpg,absent_patch/patch0002250.jpg,,,,,,,,,,,,,,,,,,,,0.07,-0.04,1,0,0,response3disk,10,-0.001111111,0.002222222,1,0,0,center_square,0,9,9,28,1,,,,,,,,,,,,,,,,,,,,,,,
007056,001,2022-11-14_24h27.03.596,Info_measure_main_exp,2022.2.2,Win32,59.86948452,,,,,,,,,,,,,,,,,,masks/mask_004.jpg,,,,,,,,,,,,,,,,,,,,,,,,,,,,,,,,,,,,,,,,,,,0,0,0,3,1,,,,,,,,,,,,,,,,,,,,,,,,,,,,,,,,,,,,,,,,,,,,,,
007056,001,2022-11-14_24h27.03.596,Info_measure_main_exp,2022.2.2,Win32,59.86948452,,,,,,,,,,,,,,,,,,masks/mask_005.jpg,,,,,,,,,,,,,,,,,,,,,,,,,,,,,,,,,,,,,,,,,,,0,1,1,4,1,,,,,,,,,,,,,,,,,,,,,,,,,,,,,,,,,,,,,,,,,,,,,,
007056,001,2022-11-14_24h27.03.596,Info_measure_main_exp,2022.2.2,Win32,59.86948452,,,,,,,,,,,,,,,,,,masks/mask_001.jpg,,,,,,,,,,,,,,,,,,,,,,,,,,,,,,,,,,,,,,,,,,,0,2,2,0,1,,,,,,,,,,,,,,,,,,,,,,,,,,,,,,,,,,,,,,,,,,,,,,
007056,001,2022-11-14_24h27.03.596,Info_measure_main_exp,2022.2.2,Win32,59.86948452,,,,,,,,,,,,,,,,,,masks/mask_002.jpg,,,,,,,,,,,,,,,,,,,,,,,,,,,,,,,,,,,,,,,,,,,0,3,3,1,1,,,,,,,,,,,,,,,,,,,,,,,,,,,,,,,,,,,,,,,,,,,,,,
007056,001,2022-11-14_24h27.03.596,Info_measure_main_exp,2022.2.2,Win32,59.86948452,,,,,,,,,,,,,,,,,,masks/mask_003.jpg,,,,,,,,,,,,,,,,,,,,,,,,,,,,,,,,,,,,,,,,,,,0,4,4,2,1,,,,,,,,,,,,,,,,,,,,,,,,,,,,,,,,,,,,,,,,,,,,,,
007056,001,2022-11-14_24h27.03.596,Info_measure_main_exp,2022.2.2,Win32,59.86948452,,,,,,,,,,,,,,,,,,masks/mask_005.jpg,,,,,,,,,,,,,,,,,,,,,,,,,,,,,,,,,,,,,,,,,,,,,,,,0,0,0,4,1,,,,,,,,,,,,,,,,,,,,,,,,,,,,,,,,,,,,,,,,,
007056,001,2022-11-14_24h27.03.596,Info_measure_main_exp,2022.2.2,Win32,59.86948452,,,,,,,,,,,,,,,,,,masks/mask_002.jpg,,,,,,,,,,,,,,,,,,,,,,,,,,,,,,,,,,,,,,,,,,,,,,,,0,1,1,1,1,,,,,,,,,,,,,,,,,,,,,,,,,,,,,,,,,,,,,,,,,
007056,001,2022-11-14_24h27.03.596,Info_measure_main_exp,2022.2.2,Win32,59.86948452,,,,,,,,,,,,,,,,,,masks/mask_004.jpg,,,,,,,,,,,,,,,,,,,,,,,,,,,,,,,,,,,,,,,,,,,,,,,,0,2,2,3,1,,,,,,,,,,,,,,,,,,,,,,,,,,,,,,,,,,,,,,,,,
007056,001,2022-11-14_24h27.03.596,Info_measure_main_exp,2022.2.2,Win32,59.86948452,,,,,,,,,,,,,,,,,,masks/mask_003.jpg,,,,,,,,,,,,,,,,,,,,,,,,,,,,,,,,,,,,,,,,,,,,,,,,0,3,3,2,1,,,,,,,,,,,,,,,,,,,,,,,,,,,,,,,,,,,,,,,,,
007056,001,2022-11-14_24h27.03.596,Info_measure_main_exp,2022.2.2,Win32,59.86948452,,,,,,,,,,,,,,,,,,masks/mask_001.jpg,,,,,,,,,,,,,,,,,,,,,,,,,,,,,,,,,,,,,,,,,,,,,,,,0,4,4,0,1,,,,,,,,,,,,,,,,,,,,,,,,,,,,,,,,,,,,,,,,,
007056,001,2022-11-14_24h27.03.596,Info_measure_main_exp,2022.2.2,Win32,59.86948452,,,,,,,,,,,,,,,,,,,,,,,,,,,,,,0,0.6162,1,,,,,,,,,,,,1,131,5,5,1,1,present_patch/cong_131_5_a.jpg,present_patch/cong_131_5_a.jpg,,,,,,,,,,,,,,,,,,,,-0.031111111,0.096666667,1,0,0,response7disk,11,-0.005555556,0.01,1,0,0,center_square,0,10,10,30,1,,,,,,,,,,,,,,,,,,,,,,,
007056,001,2022-11-14_24h27.03.596,Info_measure_main_exp,2022.2.2,Win32,59.86948452,,,,,,,,,,,,,,,,,,masks/mask_004.jpg,,,,,,,,,,,,,,,,,,,,,,,,,,,,,,,,,,,,,,,,,,,0,0,0,3,1,,,,,,,,,,,,,,,,,,,,,,,,,,,,,,,,,,,,,,,,,,,,,,
007056,001,2022-11-14_24h27.03.596,Info_measure_main_exp,2022.2.2,Win32,59.86948452,,,,,,,,,,,,,,,,,,masks/mask_003.jpg,,,,,,,,,,,,,,,,,,,,,,,,,,,,,,,,,,,,,,,,,,,0,1,1,2,1,,,,,,,,,,,,,,,,,,,,,,,,,,,,,,,,,,,,,,,,,,,,,,
007056,001,2022-11-14_24h27.03.596,Info_measure_main_exp,2022.2.2,Win32,59.86948452,,,,,,,,,,,,,,,,,,masks/mask_002.jpg,,,,,,,,,,,,,,,,,,,,,,,,,,,,,,,,,,,,,,,,,,,0,2,2,1,1,,,,,,,,,,,,,,,,,,,,,,,,,,,,,,,,,,,,,,,,,,,,,,
007056,001,2022-11-14_24h27.03.596,Info_measure_main_exp,2022.2.2,Win32,59.86948452,,,,,,,,,,,,,,,,,,masks/mask_001.jpg,,,,,,,,,,,,,,,,,,,,,,,,,,,,,,,,,,,,,,,,,,,0,3,3,0,1,,,,,,,,,,,,,,,,,,,,,,,,,,,,,,,,,,,,,,,,,,,,,,
007056,001,2022-11-14_24h27.03.596,Info_measure_main_exp,2022.2.2,Win32,59.86948452,,,,,,,,,,,,,,,,,,masks/mask_005.jpg,,,,,,,,,,,,,,,,,,,,,,,,,,,,,,,,,,,,,,,,,,,0,4,4,4,1,,,,,,,,,,,,,,,,,,,,,,,,,,,,,,,,,,,,,,,,,,,,,,
007056,001,2022-11-14_24h27.03.596,Info_measure_main_exp,2022.2.2,Win32,59.86948452,,,,,,,,,,,,,,,,,,masks/mask_005.jpg,,,,,,,,,,,,,,,,,,,,,,,,,,,,,,,,,,,,,,,,,,,,,,,,0,0,0,4,1,,,,,,,,,,,,,,,,,,,,,,,,,,,,,,,,,,,,,,,,,
007056,001,2022-11-14_24h27.03.596,Info_measure_main_exp,2022.2.2,Win32,59.86948452,,,,,,,,,,,,,,,,,,masks/mask_002.jpg,,,,,,,,,,,,,,,,,,,,,,,,,,,,,,,,,,,,,,,,,,,,,,,,0,1,1,1,1,,,,,,,,,,,,,,,,,,,,,,,,,,,,,,,,,,,,,,,,,
007056,001,2022-11-14_24h27.03.596,Info_measure_main_exp,2022.2.2,Win32,59.86948452,,,,,,,,,,,,,,,,,,masks/mask_004.jpg,,,,,,,,,,,,,,,,,,,,,,,,,,,,,,,,,,,,,,,,,,,,,,,,0,2,2,3,1,,,,,,,,,,,,,,,,,,,,,,,,,,,,,,,,,,,,,,,,,
007056,001,2022-11-14_24h27.03.596,Info_measure_main_exp,2022.2.2,Win32,59.86948452,,,,,,,,,,,,,,,,,,masks/mask_001.jpg,,,,,,,,,,,,,,,,,,,,,,,,,,,,,,,,,,,,,,,,,,,,,,,,0,3,3,0,1,,,,,,,,,,,,,,,,,,,,,,,,,,,,,,,,,,,,,,,,,
007056,001,2022-11-14_24h27.03.596,Info_measure_main_exp,2022.2.2,Win32,59.86948452,,,,,,,,,,,,,,,,,,masks/mask_003.jpg,,,,,,,,,,,,,,,,,,,,,,,,,,,,,,,,,,,,,,,,,,,,,,,,0,4,4,2,1,,,,,,,,,,,,,,,,,,,,,,,,,,,,,,,,,,,,,,,,,
007056,001,2022-11-14_24h27.03.596,Info_measure_main_exp,2022.2.2,Win32,59.86948452,,,,,,,,,,,,,,,,,,,,,,,,,,,,,,3,1.8164,1,,,,,,,,,,,,0,131,5,5,2166,1986,absent_patch/patch0002166.jpg,absent_patch/patch0001986.jpg,,,,,,,,,,,,,,,,,,,,-0.014444444,-0.068888889,1,0,0,response5disk,12,0.001111111,-0.007777778,1,0,0,center_square,0,11,11,47,1,,,,,,,,,,,,,,,,,,,,,,,
007056,001,2022-11-14_24h27.03.596,Info_measure_main_exp,2022.2.2,Win32,59.86948452,,,,,,,,,,,,,,,,,,masks/mask_003.jpg,,,,,,,,,,,,,,,,,,,,,,,,,,,,,,,,,,,,,,,,,,,0,0,0,2,1,,,,,,,,,,,,,,,,,,,,,,,,,,,,,,,,,,,,,,,,,,,,,,
007056,001,2022-11-14_24h27.03.596,Info_measure_main_exp,2022.2.2,Win32,59.86948452,,,,,,,,,,,,,,,,,,masks/mask_001.jpg,,,,,,,,,,,,,,,,,,,,,,,,,,,,,,,,,,,,,,,,,,,0,1,1,0,1,,,,,,,,,,,,,,,,,,,,,,,,,,,,,,,,,,,,,,,,,,,,,,
007056,001,2022-11-14_24h27.03.596,Info_measure_main_exp,2022.2.2,Win32,59.86948452,,,,,,,,,,,,,,,,,,masks/mask_002.jpg,,,,,,,,,,,,,,,,,,,,,,,,,,,,,,,,,,,,,,,,,,,0,2,2,1,1,,,,,,,,,,,,,,,,,,,,,,,,,,,,,,,,,,,,,,,,,,,,,,
007056,001,2022-11-14_24h27.03.596,Info_measure_main_exp,2022.2.2,Win32,59.86948452,,,,,,,,,,,,,,,,,,masks/mask_005.jpg,,,,,,,,,,,,,,,,,,,,,,,,,,,,,,,,,,,,,,,,,,,0,3,3,4,1,,,,,,,,,,,,,,,,,,,,,,,,,,,,,,,,,,,,,,,,,,,,,,
007056,001,2022-11-14_24h27.03.596,Info_measure_main_exp,2022.2.2,Win32,59.86948452,,,,,,,,,,,,,,,,,,masks/mask_004.jpg,,,,,,,,,,,,,,,,,,,,,,,,,,,,,,,,,,,,,,,,,,,0,4,4,3,1,,,,,,,,,,,,,,,,,,,,,,,,,,,,,,,,,,,,,,,,,,,,,,
007056,001,2022-11-14_24h27.03.596,Info_measure_main_exp,2022.2.2,Win32,59.86948452,,,,,,,,,,,,,,,,,,masks/mask_001.jpg,,,,,,,,,,,,,,,,,,,,,,,,,,,,,,,,,,,,,,,,,,,,,,,,0,0,0,0,1,,,,,,,,,,,,,,,,,,,,,,,,,,,,,,,,,,,,,,,,,
007056,001,2022-11-14_24h27.03.596,Info_measure_main_exp,2022.2.2,Win32,59.86948452,,,,,,,,,,,,,,,,,,masks/mask_002.jpg,,,,,,,,,,,,,,,,,,,,,,,,,,,,,,,,,,,,,,,,,,,,,,,,0,1,1,1,1,,,,,,,,,,,,,,,,,,,,,,,,,,,,,,,,,,,,,,,,,
007056,001,2022-11-14_24h27.03.596,Info_measure_main_exp,2022.2.2,Win32,59.86948452,,,,,,,,,,,,,,,,,,masks/mask_004.jpg,,,,,,,,,,,,,,,,,,,,,,,,,,,,,,,,,,,,,,,,,,,,,,,,0,2,2,3,1,,,,,,,,,,,,,,,,,,,,,,,,,,,,,,,,,,,,,,,,,
007056,001,2022-11-14_24h27.03.596,Info_measure_main_exp,2022.2.2,Win32,59.86948452,,,,,,,,,,,,,,,,,,masks/mask_005.jpg,,,,,,,,,,,,,,,,,,,,,,,,,,,,,,,,,,,,,,,,,,,,,,,,0,3,3,4,1,,,,,,,,,,,,,,,,,,,,,,,,,,,,,,,,,,,,,,,,,
007056,001,2022-11-14_24h27.03.596,Info_measure_main_exp,2022.2.2,Win32,59.86948452,,,,,,,,,,,,,,,,,,masks/mask_003.jpg,,,,,,,,,,,,,,,,,,,,,,,,,,,,,,,,,,,,,,,,,,,,,,,,0,4,4,2,1,,,,,,,,,,,,,,,,,,,,,,,,,,,,,,,,,,,,,,,,,
007056,001,2022-11-14_24h27.03.596,Info_measure_main_exp,2022.2.2,Win32,59.86948452,,,,,,,,,,,,,,,,,,,,,,,,,,,,,,6,2.3996,1,,,,,,,,,,,,0,131,5,5,2250,2214,absent_patch/patch0002250.jpg,absent_patch/patch0002214.jpg,,,,,,,,,,,,,,,,,,,,0.05,0.022222222,1,0,0,response1disk,13,-0.008888889,-0.005555556,1,0,0,center_square,0,12,12,97,1,,,,,,,,,,,,,,,,,,,,,,,
007056,001,2022-11-14_24h27.03.596,Info_measure_main_exp,2022.2.2,Win32,59.86948452,,,,,,,,,,,,,,,,,,masks/mask_003.jpg,,,,,,,,,,,,,,,,,,,,,,,,,,,,,,,,,,,,,,,,,,,0,0,0,2,1,,,,,,,,,,,,,,,,,,,,,,,,,,,,,,,,,,,,,,,,,,,,,,
007056,001,2022-11-14_24h27.03.596,Info_measure_main_exp,2022.2.2,Win32,59.86948452,,,,,,,,,,,,,,,,,,masks/mask_002.jpg,,,,,,,,,,,,,,,,,,,,,,,,,,,,,,,,,,,,,,,,,,,0,1,1,1,1,,,,,,,,,,,,,,,,,,,,,,,,,,,,,,,,,,,,,,,,,,,,,,
007056,001,2022-11-14_24h27.03.596,Info_measure_main_exp,2022.2.2,Win32,59.86948452,,,,,,,,,,,,,,,,,,masks/mask_005.jpg,,,,,,,,,,,,,,,,,,,,,,,,,,,,,,,,,,,,,,,,,,,0,2,2,4,1,,,,,,,,,,,,,,,,,,,,,,,,,,,,,,,,,,,,,,,,,,,,,,
007056,001,2022-11-14_24h27.03.596,Info_measure_main_exp,2022.2.2,Win32,59.86948452,,,,,,,,,,,,,,,,,,masks/mask_004.jpg,,,,,,,,,,,,,,,,,,,,,,,,,,,,,,,,,,,,,,,,,,,0,3,3,3,1,,,,,,,,,,,,,,,,,,,,,,,,,,,,,,,,,,,,,,,,,,,,,,
007056,001,2022-11-14_24h27.03.596,Info_measure_main_exp,2022.2.2,Win32,59.86948452,,,,,,,,,,,,,,,,,,masks/mask_001.jpg,,,,,,,,,,,,,,,,,,,,,,,,,,,,,,,,,,,,,,,,,,,0,4,4,0,1,,,,,,,,,,,,,,,,,,,,,,,,,,,,,,,,,,,,,,,,,,,,,,
007056,001,2022-11-14_24h27.03.596,Info_measure_main_exp,2022.2.2,Win32,59.86948452,,,,,,,,,,,,,,,,,,masks/mask_005.jpg,,,,,,,,,,,,,,,,,,,,,,,,,,,,,,,,,,,,,,,,,,,,,,,,0,0,0,4,1,,,,,,,,,,,,,,,,,,,,,,,,,,,,,,,,,,,,,,,,,
007056,001,2022-11-14_24h27.03.596,Info_measure_main_exp,2022.2.2,Win32,59.86948452,,,,,,,,,,,,,,,,,,masks/mask_003.jpg,,,,,,,,,,,,,,,,,,,,,,,,,,,,,,,,,,,,,,,,,,,,,,,,0,1,1,2,1,,,,,,,,,,,,,,,,,,,,,,,,,,,,,,,,,,,,,,,,,
007056,001,2022-11-14_24h27.03.596,Info_measure_main_exp,2022.2.2,Win32,59.86948452,,,,,,,,,,,,,,,,,,masks/mask_002.jpg,,,,,,,,,,,,,,,,,,,,,,,,,,,,,,,,,,,,,,,,,,,,,,,,0,2,2,1,1,,,,,,,,,,,,,,,,,,,,,,,,,,,,,,,,,,,,,,,,,
007056,001,2022-11-14_24h27.03.596,Info_measure_main_exp,2022.2.2,Win32,59.86948452,,,,,,,,,,,,,,,,,,masks/mask_004.jpg,,,,,,,,,,,,,,,,,,,,,,,,,,,,,,,,,,,,,,,,,,,,,,,,0,3,3,3,1,,,,,,,,,,,,,,,,,,,,,,,,,,,,,,,,,,,,,,,,,
007056,001,2022-11-14_24h27.03.596,Info_measure_main_exp,2022.2.2,Win32,59.86948452,,,,,,,,,,,,,,,,,,masks/mask_001.jpg,,,,,,,,,,,,,,,,,,,,,,,,,,,,,,,,,,,,,,,,,,,,,,,,0,4,4,0,1,,,,,,,,,,,,,,,,,,,,,,,,,,,,,,,,,,,,,,,,,
007056,001,2022-11-14_24h27.03.596,Info_measure_main_exp,2022.2.2,Win32,59.86948452,,,,,,,,,,,,,,,,,,,,,,,,,,,,,,7,1.1172,1,,,,,,,,,,,,0,131,5,5,2154,2250,absent_patch/patch0002154.jpg,absent_patch/patch0002250.jpg,,,,,,,,,,,,,,,,,,,,0.014444444,0.033333333,1,0,0,response1disk,14,0.001111111,0.01,1,0,0,center_square,0,13,13,108,1,,,,,,,,,,,,,,,,,,,,,,,
007056,001,2022-11-14_24h27.03.596,Info_measure_main_exp,2022.2.2,Win32,59.86948452,,,,,,,,,,,,,,,,,,masks/mask_003.jpg,,,,,,,,,,,,,,,,,,,,,,,,,,,,,,,,,,,,,,,,,,,0,0,0,2,1,,,,,,,,,,,,,,,,,,,,,,,,,,,,,,,,,,,,,,,,,,,,,,
007056,001,2022-11-14_24h27.03.596,Info_measure_main_exp,2022.2.2,Win32,59.86948452,,,,,,,,,,,,,,,,,,masks/mask_001.jpg,,,,,,,,,,,,,,,,,,,,,,,,,,,,,,,,,,,,,,,,,,,0,1,1,0,1,,,,,,,,,,,,,,,,,,,,,,,,,,,,,,,,,,,,,,,,,,,,,,
007056,001,2022-11-14_24h27.03.596,Info_measure_main_exp,2022.2.2,Win32,59.86948452,,,,,,,,,,,,,,,,,,masks/mask_002.jpg,,,,,,,,,,,,,,,,,,,,,,,,,,,,,,,,,,,,,,,,,,,0,2,2,1,1,,,,,,,,,,,,,,,,,,,,,,,,,,,,,,,,,,,,,,,,,,,,,,
007056,001,2022-11-14_24h27.03.596,Info_measure_main_exp,2022.2.2,Win32,59.86948452,,,,,,,,,,,,,,,,,,masks/mask_004.jpg,,,,,,,,,,,,,,,,,,,,,,,,,,,,,,,,,,,,,,,,,,,0,3,3,3,1,,,,,,,,,,,,,,,,,,,,,,,,,,,,,,,,,,,,,,,,,,,,,,
007056,001,2022-11-14_24h27.03.596,Info_measure_main_exp,2022.2.2,Win32,59.86948452,,,,,,,,,,,,,,,,,,masks/mask_005.jpg,,,,,,,,,,,,,,,,,,,,,,,,,,,,,,,,,,,,,,,,,,,0,4,4,4,1,,,,,,,,,,,,,,,,,,,,,,,,,,,,,,,,,,,,,,,,,,,,,,
007056,001,2022-11-14_24h27.03.596,Info_measure_main_exp,2022.2.2,Win32,59.86948452,,,,,,,,,,,,,,,,,,masks/mask_003.jpg,,,,,,,,,,,,,,,,,,,,,,,,,,,,,,,,,,,,,,,,,,,,,,,,0,0,0,2,1,,,,,,,,,,,,,,,,,,,,,,,,,,,,,,,,,,,,,,,,,
007056,001,2022-11-14_24h27.03.596,Info_measure_main_exp,2022.2.2,Win32,59.86948452,,,,,,,,,,,,,,,,,,masks/mask_004.jpg,,,,,,,,,,,,,,,,,,,,,,,,,,,,,,,,,,,,,,,,,,,,,,,,0,1,1,3,1,,,,,,,,,,,,,,,,,,,,,,,,,,,,,,,,,,,,,,,,,
007056,001,2022-11-14_24h27.03.596,Info_measure_main_exp,2022.2.2,Win32,59.86948452,,,,,,,,,,,,,,,,,,masks/mask_002.jpg,,,,,,,,,,,,,,,,,,,,,,,,,,,,,,,,,,,,,,,,,,,,,,,,0,2,2,1,1,,,,,,,,,,,,,,,,,,,,,,,,,,,,,,,,,,,,,,,,,
007056,001,2022-11-14_24h27.03.596,Info_measure_main_exp,2022.2.2,Win32,59.86948452,,,,,,,,,,,,,,,,,,masks/mask_001.jpg,,,,,,,,,,,,,,,,,,,,,,,,,,,,,,,,,,,,,,,,,,,,,,,,0,3,3,0,1,,,,,,,,,,,,,,,,,,,,,,,,,,,,,,,,,,,,,,,,,
007056,001,2022-11-14_24h27.03.596,Info_measure_main_exp,2022.2.2,Win32,59.86948452,,,,,,,,,,,,,,,,,,masks/mask_005.jpg,,,,,,,,,,,,,,,,,,,,,,,,,,,,,,,,,,,,,,,,,,,,,,,,0,4,4,4,1,,,,,,,,,,,,,,,,,,,,,,,,,,,,,,,,,,,,,,,,,
007056,001,2022-11-14_24h27.03.596,Info_measure_main_exp,2022.2.2,Win32,59.86948452,,,,,,,,,,,,,,,,,,,,,,,,,,,,,,7,0.8999,1,,,,,,,,,,,,0,131,5,5,1950,2166,absent_patch/patch0001950.jpg,absent_patch/patch0002166.jpg,,,,,,,,,,,,,,,,,,,,0.014444444,0.04,1,0,0,response1disk,15,0,0,1,0,0,center_square,0,14,14,0,1,,,,,,,,,,,,,,,,,,,,,,,
007056,001,2022-11-14_24h27.03.596,Info_measure_main_exp,2022.2.2,Win32,59.86948452,,,,,,,,,,,,,,,,,,masks/mask_002.jpg,,,,,,,,,,,,,,,,,,,,,,,,,,,,,,,,,,,,,,,,,,,0,0,0,1,1,,,,,,,,,,,,,,,,,,,,,,,,,,,,,,,,,,,,,,,,,,,,,,
007056,001,2022-11-14_24h27.03.596,Info_measure_main_exp,2022.2.2,Win32,59.86948452,,,,,,,,,,,,,,,,,,masks/mask_001.jpg,,,,,,,,,,,,,,,,,,,,,,,,,,,,,,,,,,,,,,,,,,,0,1,1,0,1,,,,,,,,,,,,,,,,,,,,,,,,,,,,,,,,,,,,,,,,,,,,,,
007056,001,2022-11-14_24h27.03.596,Info_measure_main_exp,2022.2.2,Win32,59.86948452,,,,,,,,,,,,,,,,,,masks/mask_005.jpg,,,,,,,,,,,,,,,,,,,,,,,,,,,,,,,,,,,,,,,,,,,0,2,2,4,1,,,,,,,,,,,,,,,,,,,,,,,,,,,,,,,,,,,,,,,,,,,,,,
007056,001,2022-11-14_24h27.03.596,Info_measure_main_exp,2022.2.2,Win32,59.86948452,,,,,,,,,,,,,,,,,,masks/mask_003.jpg,,,,,,,,,,,,,,,,,,,,,,,,,,,,,,,,,,,,,,,,,,,0,3,3,2,1,,,,,,,,,,,,,,,,,,,,,,,,,,,,,,,,,,,,,,,,,,,,,,
007056,001,2022-11-14_24h27.03.596,Info_measure_main_exp,2022.2.2,Win32,59.86948452,,,,,,,,,,,,,,,,,,masks/mask_004.jpg,,,,,,,,,,,,,,,,,,,,,,,,,,,,,,,,,,,,,,,,,,,0,4,4,3,1,,,,,,,,,,,,,,,,,,,,,,,,,,,,,,,,,,,,,,,,,,,,,,
007056,001,2022-11-14_24h27.03.596,Info_measure_main_exp,2022.2.2,Win32,59.86948452,,,,,,,,,,,,,,,,,,masks/mask_005.jpg,,,,,,,,,,,,,,,,,,,,,,,,,,,,,,,,,,,,,,,,,,,,,,,,0,0,0,4,1,,,,,,,,,,,,,,,,,,,,,,,,,,,,,,,,,,,,,,,,,
007056,001,2022-11-14_24h27.03.596,Info_measure_main_exp,2022.2.2,Win32,59.86948452,,,,,,,,,,,,,,,,,,masks/mask_003.jpg,,,,,,,,,,,,,,,,,,,,,,,,,,,,,,,,,,,,,,,,,,,,,,,,0,1,1,2,1,,,,,,,,,,,,,,,,,,,,,,,,,,,,,,,,,,,,,,,,,
007056,001,2022-11-14_24h27.03.596,Info_measure_main_exp,2022.2.2,Win32,59.86948452,,,,,,,,,,,,,,,,,,masks/mask_004.jpg,,,,,,,,,,,,,,,,,,,,,,,,,,,,,,,,,,,,,,,,,,,,,,,,0,2,2,3,1,,,,,,,,,,,,,,,,,,,,,,,,,,,,,,,,,,,,,,,,,
007056,001,2022-11-14_24h27.03.596,Info_measure_main_exp,2022.2.2,Win32,59.86948452,,,,,,,,,,,,,,,,,,masks/mask_001.jpg,,,,,,,,,,,,,,,,,,,,,,,,,,,,,,,,,,,,,,,,,,,,,,,,0,3,3,0,1,,,,,,,,,,,,,,,,,,,,,,,,,,,,,,,,,,,,,,,,,
007056,001,2022-11-14_24h27.03.596,Info_measure_main_exp,2022.2.2,Win32,59.86948452,,,,,,,,,,,,,,,,,,masks/mask_002.jpg,,,,,,,,,,,,,,,,,,,,,,,,,,,,,,,,,,,,,,,,,,,,,,,,0,4,4,1,1,,,,,,,,,,,,,,,,,,,,,,,,,,,,,,,,,,,,,,,,,
007056,001,2022-11-14_24h27.03.596,Info_measure_main_exp,2022.2.2,Win32,59.86948452,,,,,,,,,,,,,,,,,,,,,,,,,,,,,,6,2.2323,1,,,,,,,,,,,,0,131,5,5,2298,2274,absent_patch/patch0002298.jpg,absent_patch/patch0002274.jpg,,,,,,,,,,,,,,,,,,,,0.071111111,0.008888889,1,0,0,response1disk,16,-0.002222222,-0.002222222,1,0,0,center_square,0,15,15,1,1,,,,,,,,,,,,,,,,,,,,,,,
007056,001,2022-11-14_24h27.03.596,Info_measure_main_exp,2022.2.2,Win32,59.86948452,,,,,,,,,,,,,,,,,,masks/mask_004.jpg,,,,,,,,,,,,,,,,,,,,,,,,,,,,,,,,,,,,,,,,,,,0,0,0,3,1,,,,,,,,,,,,,,,,,,,,,,,,,,,,,,,,,,,,,,,,,,,,,,
007056,001,2022-11-14_24h27.03.596,Info_measure_main_exp,2022.2.2,Win32,59.86948452,,,,,,,,,,,,,,,,,,masks/mask_005.jpg,,,,,,,,,,,,,,,,,,,,,,,,,,,,,,,,,,,,,,,,,,,0,1,1,4,1,,,,,,,,,,,,,,,,,,,,,,,,,,,,,,,,,,,,,,,,,,,,,,
007056,001,2022-11-14_24h27.03.596,Info_measure_main_exp,2022.2.2,Win32,59.86948452,,,,,,,,,,,,,,,,,,masks/mask_001.jpg,,,,,,,,,,,,,,,,,,,,,,,,,,,,,,,,,,,,,,,,,,,0,2,2,0,1,,,,,,,,,,,,,,,,,,,,,,,,,,,,,,,,,,,,,,,,,,,,,,
007056,001,2022-11-14_24h27.03.596,Info_measure_main_exp,2022.2.2,Win32,59.86948452,,,,,,,,,,,,,,,,,,masks/mask_003.jpg,,,,,,,,,,,,,,,,,,,,,,,,,,,,,,,,,,,,,,,,,,,0,3,3,2,1,,,,,,,,,,,,,,,,,,,,,,,,,,,,,,,,,,,,,,,,,,,,,,
007056,001,2022-11-14_24h27.03.596,Info_measure_main_exp,2022.2.2,Win32,59.86948452,,,,,,,,,,,,,,,,,,masks/mask_002.jpg,,,,,,,,,,,,,,,,,,,,,,,,,,,,,,,,,,,,,,,,,,,0,4,4,1,1,,,,,,,,,,,,,,,,,,,,,,,,,,,,,,,,,,,,,,,,,,,,,,
007056,001,2022-11-14_24h27.03.596,Info_measure_main_exp,2022.2.2,Win32,59.86948452,,,,,,,,,,,,,,,,,,masks/mask_002.jpg,,,,,,,,,,,,,,,,,,,,,,,,,,,,,,,,,,,,,,,,,,,,,,,,0,0,0,1,1,,,,,,,,,,,,,,,,,,,,,,,,,,,,,,,,,,,,,,,,,
007056,001,2022-11-14_24h27.03.596,Info_measure_main_exp,2022.2.2,Win32,59.86948452,,,,,,,,,,,,,,,,,,masks/mask_005.jpg,,,,,,,,,,,,,,,,,,,,,,,,,,,,,,,,,,,,,,,,,,,,,,,,0,1,1,4,1,,,,,,,,,,,,,,,,,,,,,,,,,,,,,,,,,,,,,,,,,
007056,001,2022-11-14_24h27.03.596,Info_measure_main_exp,2022.2.2,Win32,59.86948452,,,,,,,,,,,,,,,,,,masks/mask_004.jpg,,,,,,,,,,,,,,,,,,,,,,,,,,,,,,,,,,,,,,,,,,,,,,,,0,2,2,3,1,,,,,,,,,,,,,,,,,,,,,,,,,,,,,,,,,,,,,,,,,
007056,001,2022-11-14_24h27.03.596,Info_measure_main_exp,2022.2.2,Win32,59.86948452,,,,,,,,,,,,,,,,,,masks/mask_003.jpg,,,,,,,,,,,,,,,,,,,,,,,,,,,,,,,,,,,,,,,,,,,,,,,,0,3,3,2,1,,,,,,,,,,,,,,,,,,,,,,,,,,,,,,,,,,,,,,,,,
007056,001,2022-11-14_24h27.03.596,Info_measure_main_exp,2022.2.2,Win32,59.86948452,,,,,,,,,,,,,,,,,,masks/mask_001.jpg,,,,,,,,,,,,,,,,,,,,,,,,,,,,,,,,,,,,,,,,,,,,,,,,0,4,4,0,1,,,,,,,,,,,,,,,,,,,,,,,,,,,,,,,,,,,,,,,,,
007056,001,2022-11-14_24h27.03.596,Info_measure_main_exp,2022.2.2,Win32,59.86948452,,,,,,,,,,,,,,,,,,,,,,,,,,,,,,5,2.049,1,,,,,,,,,,,,0,131,5,5,2238,2166,absent_patch/patch0002238.jpg,absent_patch/patch0002166.jpg,,,,,,,,,,,,,,,,,,,,0.06,-0.022222222,1,0,0,response3disk,17,-0.003333333,0.008888889,1,0,0,center_square,0,16,16,118,1,,,,,,,,,,,,,,,,,,,,,,,
007056,001,2022-11-14_24h27.03.596,Info_measure_main_exp,2022.2.2,Win32,59.86948452,,,,,,,,,,,,,,,,,,masks/mask_002.jpg,,,,,,,,,,,,,,,,,,,,,,,,,,,,,,,,,,,,,,,,,,,0,0,0,1,1,,,,,,,,,,,,,,,,,,,,,,,,,,,,,,,,,,,,,,,,,,,,,,
007056,001,2022-11-14_24h27.03.596,Info_measure_main_exp,2022.2.2,Win32,59.86948452,,,,,,,,,,,,,,,,,,masks/mask_001.jpg,,,,,,,,,,,,,,,,,,,,,,,,,,,,,,,,,,,,,,,,,,,0,1,1,0,1,,,,,,,,,,,,,,,,,,,,,,,,,,,,,,,,,,,,,,,,,,,,,,
007056,001,2022-11-14_24h27.03.596,Info_measure_main_exp,2022.2.2,Win32,59.86948452,,,,,,,,,,,,,,,,,,masks/mask_003.jpg,,,,,,,,,,,,,,,,,,,,,,,,,,,,,,,,,,,,,,,,,,,0,2,2,2,1,,,,,,,,,,,,,,,,,,,,,,,,,,,,,,,,,,,,,,,,,,,,,,
007056,001,2022-11-14_24h27.03.596,Info_measure_main_exp,2022.2.2,Win32,59.86948452,,,,,,,,,,,,,,,,,,masks/mask_004.jpg,,,,,,,,,,,,,,,,,,,,,,,,,,,,,,,,,,,,,,,,,,,0,3,3,3,1,,,,,,,,,,,,,,,,,,,,,,,,,,,,,,,,,,,,,,,,,,,,,,
007056,001,2022-11-14_24h27.03.596,Info_measure_main_exp,2022.2.2,Win32,59.86948452,,,,,,,,,,,,,,,,,,masks/mask_005.jpg,,,,,,,,,,,,,,,,,,,,,,,,,,,,,,,,,,,,,,,,,,,0,4,4,4,1,,,,,,,,,,,,,,,,,,,,,,,,,,,,,,,,,,,,,,,,,,,,,,
007056,001,2022-11-14_24h27.03.596,Info_measure_main_exp,2022.2.2,Win32,59.86948452,,,,,,,,,,,,,,,,,,masks/mask_003.jpg,,,,,,,,,,,,,,,,,,,,,,,,,,,,,,,,,,,,,,,,,,,,,,,,0,0,0,2,1,,,,,,,,,,,,,,,,,,,,,,,,,,,,,,,,,,,,,,,,,
007056,001,2022-11-14_24h27.03.596,Info_measure_main_exp,2022.2.2,Win32,59.86948452,,,,,,,,,,,,,,,,,,masks/mask_004.jpg,,,,,,,,,,,,,,,,,,,,,,,,,,,,,,,,,,,,,,,,,,,,,,,,0,1,1,3,1,,,,,,,,,,,,,,,,,,,,,,,,,,,,,,,,,,,,,,,,,
007056,001,2022-11-14_24h27.03.596,Info_measure_main_exp,2022.2.2,Win32,59.86948452,,,,,,,,,,,,,,,,,,masks/mask_005.jpg,,,,,,,,,,,,,,,,,,,,,,,,,,,,,,,,,,,,,,,,,,,,,,,,0,2,2,4,1,,,,,,,,,,,,,,,,,,,,,,,,,,,,,,,,,,,,,,,,,
007056,001,2022-11-14_24h27.03.596,Info_measure_main_exp,2022.2.2,Win32,59.86948452,,,,,,,,,,,,,,,,,,masks/mask_002.jpg,,,,,,,,,,,,,,,,,,,,,,,,,,,,,,,,,,,,,,,,,,,,,,,,0,3,3,1,1,,,,,,,,,,,,,,,,,,,,,,,,,,,,,,,,,,,,,,,,,
007056,001,2022-11-14_24h27.03.596,Info_measure_main_exp,2022.2.2,Win32,59.86948452,,,,,,,,,,,,,,,,,,masks/mask_001.jpg,,,,,,,,,,,,,,,,,,,,,,,,,,,,,,,,,,,,,,,,,,,,,,,,0,4,4,0,1,,,,,,,,,,,,,,,,,,,,,,,,,,,,,,,,,,,,,,,,,
007056,001,2022-11-14_24h27.03.596,Info_measure_main_exp,2022.2.2,Win32,59.86948452,,,,,,,,,,,,,,,,,,,,,,,,,,,,,,2,1.7827,1,,,,,,,,,,,,0,131,5,5,1986,2154,absent_patch/patch0001986.jpg,absent_patch/patch0002154.jpg,,,,,,,,,,,,,,,,,,,,-0.127777778,-0.031111111,1,0,0,response5disk,18,0.005555556,0,1,0,0,center_square,0,17,17,36,1,,,,,,,,,,,,,,,,,,,,,,,
007056,001,2022-11-14_24h27.03.596,Info_measure_main_exp,2022.2.2,Win32,59.86948452,,,,,,,,,,,,,,,,,,masks/mask_001.jpg,,,,,,,,,,,,,,,,,,,,,,,,,,,,,,,,,,,,,,,,,,,0,0,0,0,1,,,,,,,,,,,,,,,,,,,,,,,,,,,,,,,,,,,,,,,,,,,,,,
007056,001,2022-11-14_24h27.03.596,Info_measure_main_exp,2022.2.2,Win32,59.86948452,,,,,,,,,,,,,,,,,,masks/mask_003.jpg,,,,,,,,,,,,,,,,,,,,,,,,,,,,,,,,,,,,,,,,,,,0,1,1,2,1,,,,,,,,,,,,,,,,,,,,,,,,,,,,,,,,,,,,,,,,,,,,,,
007056,001,2022-11-14_24h27.03.596,Info_measure_main_exp,2022.2.2,Win32,59.86948452,,,,,,,,,,,,,,,,,,masks/mask_002.jpg,,,,,,,,,,,,,,,,,,,,,,,,,,,,,,,,,,,,,,,,,,,0,2,2,1,1,,,,,,,,,,,,,,,,,,,,,,,,,,,,,,,,,,,,,,,,,,,,,,
007056,001,2022-11-14_24h27.03.596,Info_measure_main_exp,2022.2.2,Win32,59.86948452,,,,,,,,,,,,,,,,,,masks/mask_004.jpg,,,,,,,,,,,,,,,,,,,,,,,,,,,,,,,,,,,,,,,,,,,0,3,3,3,1,,,,,,,,,,,,,,,,,,,,,,,,,,,,,,,,,,,,,,,,,,,,,,
007056,001,2022-11-14_24h27.03.596,Info_measure_main_exp,2022.2.2,Win32,59.86948452,,,,,,,,,,,,,,,,,,masks/mask_005.jpg,,,,,,,,,,,,,,,,,,,,,,,,,,,,,,,,,,,,,,,,,,,0,4,4,4,1,,,,,,,,,,,,,,,,,,,,,,,,,,,,,,,,,,,,,,,,,,,,,,
007056,001,2022-11-14_24h27.03.596,Info_measure_main_exp,2022.2.2,Win32,59.86948452,,,,,,,,,,,,,,,,,,masks/mask_001.jpg,,,,,,,,,,,,,,,,,,,,,,,,,,,,,,,,,,,,,,,,,,,,,,,,0,0,0,0,1,,,,,,,,,,,,,,,,,,,,,,,,,,,,,,,,,,,,,,,,,
007056,001,2022-11-14_24h27.03.596,Info_measure_main_exp,2022.2.2,Win32,59.86948452,,,,,,,,,,,,,,,,,,masks/mask_002.jpg,,,,,,,,,,,,,,,,,,,,,,,,,,,,,,,,,,,,,,,,,,,,,,,,0,1,1,1,1,,,,,,,,,,,,,,,,,,,,,,,,,,,,,,,,,,,,,,,,,
007056,001,2022-11-14_24h27.03.596,Info_measure_main_exp,2022.2.2,Win32,59.86948452,,,,,,,,,,,,,,,,,,masks/mask_004.jpg,,,,,,,,,,,,,,,,,,,,,,,,,,,,,,,,,,,,,,,,,,,,,,,,0,2,2,3,1,,,,,,,,,,,,,,,,,,,,,,,,,,,,,,,,,,,,,,,,,
007056,001,2022-11-14_24h27.03.596,Info_measure_main_exp,2022.2.2,Win32,59.86948452,,,,,,,,,,,,,,,,,,masks/mask_003.jpg,,,,,,,,,,,,,,,,,,,,,,,,,,,,,,,,,,,,,,,,,,,,,,,,0,3,3,2,1,,,,,,,,,,,,,,,,,,,,,,,,,,,,,,,,,,,,,,,,,
007056,001,2022-11-14_24h27.03.596,Info_measure_main_exp,2022.2.2,Win32,59.86948452,,,,,,,,,,,,,,,,,,masks/mask_005.jpg,,,,,,,,,,,,,,,,,,,,,,,,,,,,,,,,,,,,,,,,,,,,,,,,0,4,4,4,1,,,,,,,,,,,,,,,,,,,,,,,,,,,,,,,,,,,,,,,,,
007056,001,2022-11-14_24h27.03.596,Info_measure_main_exp,2022.2.2,Win32,59.86948452,,,,,,,,,,,,,,,,,,,,,,,,,,,,,,6,2.0165,1,,,,,,,,,,,,0,131,5,5,2250,2298,absent_patch/patch0002250.jpg,absent_patch/patch0002298.jpg,,,,,,,,,,,,,,,,,,,,0.07,0.031111111,1,0,0,response1disk,19,0.004444444,0.005555556,1,0,0,center_square,0,18,18,59,1,,,,,,,,,,,,,,,,,,,,,,,
007056,001,2022-11-14_24h27.03.596,Info_measure_main_exp,2022.2.2,Win32,59.86948452,,,,,,,,,,,,,,,,,,masks/mask_002.jpg,,,,,,,,,,,,,,,,,,,,,,,,,,,,,,,,,,,,,,,,,,,0,0,0,1,1,,,,,,,,,,,,,,,,,,,,,,,,,,,,,,,,,,,,,,,,,,,,,,
007056,001,2022-11-14_24h27.03.596,Info_measure_main_exp,2022.2.2,Win32,59.86948452,,,,,,,,,,,,,,,,,,masks/mask_001.jpg,,,,,,,,,,,,,,,,,,,,,,,,,,,,,,,,,,,,,,,,,,,0,1,1,0,1,,,,,,,,,,,,,,,,,,,,,,,,,,,,,,,,,,,,,,,,,,,,,,
007056,001,2022-11-14_24h27.03.596,Info_measure_main_exp,2022.2.2,Win32,59.86948452,,,,,,,,,,,,,,,,,,masks/mask_005.jpg,,,,,,,,,,,,,,,,,,,,,,,,,,,,,,,,,,,,,,,,,,,0,2,2,4,1,,,,,,,,,,,,,,,,,,,,,,,,,,,,,,,,,,,,,,,,,,,,,,
007056,001,2022-11-14_24h27.03.596,Info_measure_main_exp,2022.2.2,Win32,59.86948452,,,,,,,,,,,,,,,,,,masks/mask_003.jpg,,,,,,,,,,,,,,,,,,,,,,,,,,,,,,,,,,,,,,,,,,,0,3,3,2,1,,,,,,,,,,,,,,,,,,,,,,,,,,,,,,,,,,,,,,,,,,,,,,
007056,001,2022-11-14_24h27.03.596,Info_measure_main_exp,2022.2.2,Win32,59.86948452,,,,,,,,,,,,,,,,,,masks/mask_004.jpg,,,,,,,,,,,,,,,,,,,,,,,,,,,,,,,,,,,,,,,,,,,0,4,4,3,1,,,,,,,,,,,,,,,,,,,,,,,,,,,,,,,,,,,,,,,,,,,,,,
007056,001,2022-11-14_24h27.03.596,Info_measure_main_exp,2022.2.2,Win32,59.86948452,,,,,,,,,,,,,,,,,,masks/mask_005.jpg,,,,,,,,,,,,,,,,,,,,,,,,,,,,,,,,,,,,,,,,,,,,,,,,0,0,0,4,1,,,,,,,,,,,,,,,,,,,,,,,,,,,,,,,,,,,,,,,,,
007056,001,2022-11-14_24h27.03.596,Info_measure_main_exp,2022.2.2,Win32,59.86948452,,,,,,,,,,,,,,,,,,masks/mask_002.jpg,,,,,,,,,,,,,,,,,,,,,,,,,,,,,,,,,,,,,,,,,,,,,,,,0,1,1,1,1,,,,,,,,,,,,,,,,,,,,,,,,,,,,,,,,,,,,,,,,,
007056,001,2022-11-14_24h27.03.596,Info_measure_main_exp,2022.2.2,Win32,59.86948452,,,,,,,,,,,,,,,,,,masks/mask_003.jpg,,,,,,,,,,,,,,,,,,,,,,,,,,,,,,,,,,,,,,,,,,,,,,,,0,2,2,2,1,,,,,,,,,,,,,,,,,,,,,,,,,,,,,,,,,,,,,,,,,
007056,001,2022-11-14_24h27.03.596,Info_measure_main_exp,2022.2.2,Win32,59.86948452,,,,,,,,,,,,,,,,,,masks/mask_004.jpg,,,,,,,,,,,,,,,,,,,,,,,,,,,,,,,,,,,,,,,,,,,,,,,,0,3,3,3,1,,,,,,,,,,,,,,,,,,,,,,,,,,,,,,,,,,,,,,,,,
007056,001,2022-11-14_24h27.03.596,Info_measure_main_exp,2022.2.2,Win32,59.86948452,,,,,,,,,,,,,,,,,,masks/mask_001.jpg,,,,,,,,,,,,,,,,,,,,,,,,,,,,,,,,,,,,,,,,,,,,,,,,0,4,4,0,1,,,,,,,,,,,,,,,,,,,,,,,,,,,,,,,,,,,,,,,,,
007056,001,2022-11-14_24h27.03.596,Info_measure_main_exp,2022.2.2,Win32,59.86948452,,,,,,,,,,,,,,,,,,,,,,,,,,,,,,6,2.0668,1,,,,,,,,,,,,0,131,5,5,2274,2178,absent_patch/patch0002274.jpg,absent_patch/patch0002178.jpg,,,,,,,,,,,,,,,,,,,,0.045555556,0.015555556,1,0,0,response1disk,20,0.006666667,0.002222222,1,0,0,center_square,0,19,19,117,1,,,,,,,,,,,,,,,,,,,,,,,
007056,001,2022-11-14_24h27.03.596,Info_measure_main_exp,2022.2.2,Win32,59.86948452,,,,,,,,,,,,,,,,,,masks/mask_003.jpg,,,,,,,,,,,,,,,,,,,,,,,,,,,,,,,,,,,,,,,,,,,0,0,0,2,1,,,,,,,,,,,,,,,,,,,,,,,,,,,,,,,,,,,,,,,,,,,,,,
007056,001,2022-11-14_24h27.03.596,Info_measure_main_exp,2022.2.2,Win32,59.86948452,,,,,,,,,,,,,,,,,,masks/mask_002.jpg,,,,,,,,,,,,,,,,,,,,,,,,,,,,,,,,,,,,,,,,,,,0,1,1,1,1,,,,,,,,,,,,,,,,,,,,,,,,,,,,,,,,,,,,,,,,,,,,,,
007056,001,2022-11-14_24h27.03.596,Info_measure_main_exp,2022.2.2,Win32,59.86948452,,,,,,,,,,,,,,,,,,masks/mask_005.jpg,,,,,,,,,,,,,,,,,,,,,,,,,,,,,,,,,,,,,,,,,,,0,2,2,4,1,,,,,,,,,,,,,,,,,,,,,,,,,,,,,,,,,,,,,,,,,,,,,,
007056,001,2022-11-14_24h27.03.596,Info_measure_main_exp,2022.2.2,Win32,59.86948452,,,,,,,,,,,,,,,,,,masks/mask_001.jpg,,,,,,,,,,,,,,,,,,,,,,,,,,,,,,,,,,,,,,,,,,,0,3,3,0,1,,,,,,,,,,,,,,,,,,,,,,,,,,,,,,,,,,,,,,,,,,,,,,
007056,001,2022-11-14_24h27.03.596,Info_measure_main_exp,2022.2.2,Win32,59.86948452,,,,,,,,,,,,,,,,,,masks/mask_004.jpg,,,,,,,,,,,,,,,,,,,,,,,,,,,,,,,,,,,,,,,,,,,0,4,4,3,1,,,,,,,,,,,,,,,,,,,,,,,,,,,,,,,,,,,,,,,,,,,,,,
007056,001,2022-11-14_24h27.03.596,Info_measure_main_exp,2022.2.2,Win32,59.86948452,,,,,,,,,,,,,,,,,,masks/mask_004.jpg,,,,,,,,,,,,,,,,,,,,,,,,,,,,,,,,,,,,,,,,,,,,,,,,0,0,0,3,1,,,,,,,,,,,,,,,,,,,,,,,,,,,,,,,,,,,,,,,,,
007056,001,2022-11-14_24h27.03.596,Info_measure_main_exp,2022.2.2,Win32,59.86948452,,,,,,,,,,,,,,,,,,masks/mask_005.jpg,,,,,,,,,,,,,,,,,,,,,,,,,,,,,,,,,,,,,,,,,,,,,,,,0,1,1,4,1,,,,,,,,,,,,,,,,,,,,,,,,,,,,,,,,,,,,,,,,,
007056,001,2022-11-14_24h27.03.596,Info_measure_main_exp,2022.2.2,Win32,59.86948452,,,,,,,,,,,,,,,,,,masks/mask_001.jpg,,,,,,,,,,,,,,,,,,,,,,,,,,,,,,,,,,,,,,,,,,,,,,,,0,2,2,0,1,,,,,,,,,,,,,,,,,,,,,,,,,,,,,,,,,,,,,,,,,
007056,001,2022-11-14_24h27.03.596,Info_measure_main_exp,2022.2.2,Win32,59.86948452,,,,,,,,,,,,,,,,,,masks/mask_002.jpg,,,,,,,,,,,,,,,,,,,,,,,,,,,,,,,,,,,,,,,,,,,,,,,,0,3,3,1,1,,,,,,,,,,,,,,,,,,,,,,,,,,,,,,,,,,,,,,,,,
007056,001,2022-11-14_24h27.03.596,Info_measure_main_exp,2022.2.2,Win32,59.86948452,,,,,,,,,,,,,,,,,,masks/mask_003.jpg,,,,,,,,,,,,,,,,,,,,,,,,,,,,,,,,,,,,,,,,,,,,,,,,0,4,4,2,1,,,,,,,,,,,,,,,,,,,,,,,,,,,,,,,,,,,,,,,,,
007056,001,2022-11-14_24h27.03.596,Info_measure_main_exp,2022.2.2,Win32,59.86948452,,,,,,,,,,,,,,,,,,,,,,,,,,,,,,6,1.0834,1,,,,,,,,,,,,0,131,5,5,1950,2298,absent_patch/patch0001950.jpg,absent_patch/patch0002298.jpg,,,,,,,,,,,,,,,,,,,,0.037777778,0.022222222,1,0,0,response1disk,21,0.002222222,0,1,0,0,center_square,0,20,20,18,1,,,,,,,,,,,,,,,,,,,,,,,
007056,001,2022-11-14_24h27.03.596,Info_measure_main_exp,2022.2.2,Win32,59.86948452,,,,,,,,,,,,,,,,,,masks/mask_002.jpg,,,,,,,,,,,,,,,,,,,,,,,,,,,,,,,,,,,,,,,,,,,0,0,0,1,1,,,,,,,,,,,,,,,,,,,,,,,,,,,,,,,,,,,,,,,,,,,,,,
007056,001,2022-11-14_24h27.03.596,Info_measure_main_exp,2022.2.2,Win32,59.86948452,,,,,,,,,,,,,,,,,,masks/mask_003.jpg,,,,,,,,,,,,,,,,,,,,,,,,,,,,,,,,,,,,,,,,,,,0,1,1,2,1,,,,,,,,,,,,,,,,,,,,,,,,,,,,,,,,,,,,,,,,,,,,,,
007056,001,2022-11-14_24h27.03.596,Info_measure_main_exp,2022.2.2,Win32,59.86948452,,,,,,,,,,,,,,,,,,masks/mask_004.jpg,,,,,,,,,,,,,,,,,,,,,,,,,,,,,,,,,,,,,,,,,,,0,2,2,3,1,,,,,,,,,,,,,,,,,,,,,,,,,,,,,,,,,,,,,,,,,,,,,,
007056,001,2022-11-14_24h27.03.596,Info_measure_main_exp,2022.2.2,Win32,59.86948452,,,,,,,,,,,,,,,,,,masks/mask_001.jpg,,,,,,,,,,,,,,,,,,,,,,,,,,,,,,,,,,,,,,,,,,,0,3,3,0,1,,,,,,,,,,,,,,,,,,,,,,,,,,,,,,,,,,,,,,,,,,,,,,
007056,001,2022-11-14_24h27.03.596,Info_measure_main_exp,2022.2.2,Win32,59.86948452,,,,,,,,,,,,,,,,,,masks/mask_005.jpg,,,,,,,,,,,,,,,,,,,,,,,,,,,,,,,,,,,,,,,,,,,0,4,4,4,1,,,,,,,,,,,,,,,,,,,,,,,,,,,,,,,,,,,,,,,,,,,,,,
007056,001,2022-11-14_24h27.03.596,Info_measure_main_exp,2022.2.2,Win32,59.86948452,,,,,,,,,,,,,,,,,,masks/mask_003.jpg,,,,,,,,,,,,,,,,,,,,,,,,,,,,,,,,,,,,,,,,,,,,,,,,0,0,0,2,1,,,,,,,,,,,,,,,,,,,,,,,,,,,,,,,,,,,,,,,,,
007056,001,2022-11-14_24h27.03.596,Info_measure_main_exp,2022.2.2,Win32,59.86948452,,,,,,,,,,,,,,,,,,masks/mask_005.jpg,,,,,,,,,,,,,,,,,,,,,,,,,,,,,,,,,,,,,,,,,,,,,,,,0,1,1,4,1,,,,,,,,,,,,,,,,,,,,,,,,,,,,,,,,,,,,,,,,,
007056,001,2022-11-14_24h27.03.596,Info_measure_main_exp,2022.2.2,Win32,59.86948452,,,,,,,,,,,,,,,,,,masks/mask_001.jpg,,,,,,,,,,,,,,,,,,,,,,,,,,,,,,,,,,,,,,,,,,,,,,,,0,2,2,0,1,,,,,,,,,,,,,,,,,,,,,,,,,,,,,,,,,,,,,,,,,
007056,001,2022-11-14_24h27.03.596,Info_measure_main_exp,2022.2.2,Win32,59.86948452,,,,,,,,,,,,,,,,,,masks/mask_002.jpg,,,,,,,,,,,,,,,,,,,,,,,,,,,,,,,,,,,,,,,,,,,,,,,,0,3,3,1,1,,,,,,,,,,,,,,,,,,,,,,,,,,,,,,,,,,,,,,,,,
007056,001,2022-11-14_24h27.03.596,Info_measure_main_exp,2022.2.2,Win32,59.86948452,,,,,,,,,,,,,,,,,,masks/mask_004.jpg,,,,,,,,,,,,,,,,,,,,,,,,,,,,,,,,,,,,,,,,,,,,,,,,0,4,4,3,1,,,,,,,,,,,,,,,,,,,,,,,,,,,,,,,,,,,,,,,,,
007056,001,2022-11-14_24h27.03.596,Info_measure_main_exp,2022.2.2,Win32,59.86948452,,,,,,,,,,,,,,,,,,,,,,,,,,,,,,7,1.6829,1,,,,,,,,,,,,0,131,5,5,2190,2238,absent_patch/patch0002190.jpg,absent_patch/patch0002238.jpg,,,,,,,,,,,,,,,,,,,,0.023333333,0.055555556,1,0,0,response1disk,22,-0.01,0.001111111,1,0,0,center_square,0,21,21,53,1,,,,,,,,,,,,,,,,,,,,,,,
007056,001,2022-11-14_24h27.03.596,Info_measure_main_exp,2022.2.2,Win32,59.86948452,,,,,,,,,,,,,,,,,,masks/mask_005.jpg,,,,,,,,,,,,,,,,,,,,,,,,,,,,,,,,,,,,,,,,,,,0,0,0,4,1,,,,,,,,,,,,,,,,,,,,,,,,,,,,,,,,,,,,,,,,,,,,,,
007056,001,2022-11-14_24h27.03.596,Info_measure_main_exp,2022.2.2,Win32,59.86948452,,,,,,,,,,,,,,,,,,masks/mask_002.jpg,,,,,,,,,,,,,,,,,,,,,,,,,,,,,,,,,,,,,,,,,,,0,1,1,1,1,,,,,,,,,,,,,,,,,,,,,,,,,,,,,,,,,,,,,,,,,,,,,,
007056,001,2022-11-14_24h27.03.596,Info_measure_main_exp,2022.2.2,Win32,59.86948452,,,,,,,,,,,,,,,,,,masks/mask_004.jpg,,,,,,,,,,,,,,,,,,,,,,,,,,,,,,,,,,,,,,,,,,,0,2,2,3,1,,,,,,,,,,,,,,,,,,,,,,,,,,,,,,,,,,,,,,,,,,,,,,
007056,001,2022-11-14_24h27.03.596,Info_measure_main_exp,2022.2.2,Win32,59.86948452,,,,,,,,,,,,,,,,,,masks/mask_001.jpg,,,,,,,,,,,,,,,,,,,,,,,,,,,,,,,,,,,,,,,,,,,0,3,3,0,1,,,,,,,,,,,,,,,,,,,,,,,,,,,,,,,,,,,,,,,,,,,,,,
007056,001,2022-11-14_24h27.03.596,Info_measure_main_exp,2022.2.2,Win32,59.86948452,,,,,,,,,,,,,,,,,,masks/mask_003.jpg,,,,,,,,,,,,,,,,,,,,,,,,,,,,,,,,,,,,,,,,,,,0,4,4,2,1,,,,,,,,,,,,,,,,,,,,,,,,,,,,,,,,,,,,,,,,,,,,,,
007056,001,2022-11-14_24h27.03.596,Info_measure_main_exp,2022.2.2,Win32,59.86948452,,,,,,,,,,,,,,,,,,masks/mask_003.jpg,,,,,,,,,,,,,,,,,,,,,,,,,,,,,,,,,,,,,,,,,,,,,,,,0,0,0,2,1,,,,,,,,,,,,,,,,,,,,,,,,,,,,,,,,,,,,,,,,,
007056,001,2022-11-14_24h27.03.596,Info_measure_main_exp,2022.2.2,Win32,59.86948452,,,,,,,,,,,,,,,,,,masks/mask_004.jpg,,,,,,,,,,,,,,,,,,,,,,,,,,,,,,,,,,,,,,,,,,,,,,,,0,1,1,3,1,,,,,,,,,,,,,,,,,,,,,,,,,,,,,,,,,,,,,,,,,
007056,001,2022-11-14_24h27.03.596,Info_measure_main_exp,2022.2.2,Win32,59.86948452,,,,,,,,,,,,,,,,,,masks/mask_002.jpg,,,,,,,,,,,,,,,,,,,,,,,,,,,,,,,,,,,,,,,,,,,,,,,,0,2,2,1,1,,,,,,,,,,,,,,,,,,,,,,,,,,,,,,,,,,,,,,,,,
007056,001,2022-11-14_24h27.03.596,Info_measure_main_exp,2022.2.2,Win32,59.86948452,,,,,,,,,,,,,,,,,,masks/mask_001.jpg,,,,,,,,,,,,,,,,,,,,,,,,,,,,,,,,,,,,,,,,,,,,,,,,0,3,3,0,1,,,,,,,,,,,,,,,,,,,,,,,,,,,,,,,,,,,,,,,,,
007056,001,2022-11-14_24h27.03.596,Info_measure_main_exp,2022.2.2,Win32,59.86948452,,,,,,,,,,,,,,,,,,masks/mask_005.jpg,,,,,,,,,,,,,,,,,,,,,,,,,,,,,,,,,,,,,,,,,,,,,,,,0,4,4,4,1,,,,,,,,,,,,,,,,,,,,,,,,,,,,,,,,,,,,,,,,,
007056,001,2022-11-14_24h27.03.596,Info_measure_main_exp,2022.2.2,Win32,59.86948452,,,,,,,,,,,,,,,,,,,,,,,,,,,,,,6,1.6341,1,,,,,,,,,,,,0,131,5,5,2142,2238,absent_patch/patch0002142.jpg,absent_patch/patch0002238.jpg,,,,,,,,,,,,,,,,,,,,0.063333333,0.01,1,0,0,response1disk,23,0.012222222,0.001111111,1,0,0,center_square,0,22,22,101,1,,,,,,,,,,,,,,,,,,,,,,,
007056,001,2022-11-14_24h27.03.596,Info_measure_main_exp,2022.2.2,Win32,59.86948452,,,,,,,,,,,,,,,,,,masks/mask_002.jpg,,,,,,,,,,,,,,,,,,,,,,,,,,,,,,,,,,,,,,,,,,,0,0,0,1,1,,,,,,,,,,,,,,,,,,,,,,,,,,,,,,,,,,,,,,,,,,,,,,
007056,001,2022-11-14_24h27.03.596,Info_measure_main_exp,2022.2.2,Win32,59.86948452,,,,,,,,,,,,,,,,,,masks/mask_004.jpg,,,,,,,,,,,,,,,,,,,,,,,,,,,,,,,,,,,,,,,,,,,0,1,1,3,1,,,,,,,,,,,,,,,,,,,,,,,,,,,,,,,,,,,,,,,,,,,,,,
007056,001,2022-11-14_24h27.03.596,Info_measure_main_exp,2022.2.2,Win32,59.86948452,,,,,,,,,,,,,,,,,,masks/mask_001.jpg,,,,,,,,,,,,,,,,,,,,,,,,,,,,,,,,,,,,,,,,,,,0,2,2,0,1,,,,,,,,,,,,,,,,,,,,,,,,,,,,,,,,,,,,,,,,,,,,,,
007056,001,2022-11-14_24h27.03.596,Info_measure_main_exp,2022.2.2,Win32,59.86948452,,,,,,,,,,,,,,,,,,masks/mask_003.jpg,,,,,,,,,,,,,,,,,,,,,,,,,,,,,,,,,,,,,,,,,,,0,3,3,2,1,,,,,,,,,,,,,,,,,,,,,,,,,,,,,,,,,,,,,,,,,,,,,,
007056,001,2022-11-14_24h27.03.596,Info_measure_main_exp,2022.2.2,Win32,59.86948452,,,,,,,,,,,,,,,,,,masks/mask_005.jpg,,,,,,,,,,,,,,,,,,,,,,,,,,,,,,,,,,,,,,,,,,,0,4,4,4,1,,,,,,,,,,,,,,,,,,,,,,,,,,,,,,,,,,,,,,,,,,,,,,
007056,001,2022-11-14_24h27.03.596,Info_measure_main_exp,2022.2.2,Win32,59.86948452,,,,,,,,,,,,,,,,,,masks/mask_003.jpg,,,,,,,,,,,,,,,,,,,,,,,,,,,,,,,,,,,,,,,,,,,,,,,,0,0,0,2,1,,,,,,,,,,,,,,,,,,,,,,,,,,,,,,,,,,,,,,,,,
007056,001,2022-11-14_24h27.03.596,Info_measure_main_exp,2022.2.2,Win32,59.86948452,,,,,,,,,,,,,,,,,,masks/mask_005.jpg,,,,,,,,,,,,,,,,,,,,,,,,,,,,,,,,,,,,,,,,,,,,,,,,0,1,1,4,1,,,,,,,,,,,,,,,,,,,,,,,,,,,,,,,,,,,,,,,,,
007056,001,2022-11-14_24h27.03.596,Info_measure_main_exp,2022.2.2,Win32,59.86948452,,,,,,,,,,,,,,,,,,masks/mask_004.jpg,,,,,,,,,,,,,,,,,,,,,,,,,,,,,,,,,,,,,,,,,,,,,,,,0,2,2,3,1,,,,,,,,,,,,,,,,,,,,,,,,,,,,,,,,,,,,,,,,,
007056,001,2022-11-14_24h27.03.596,Info_measure_main_exp,2022.2.2,Win32,59.86948452,,,,,,,,,,,,,,,,,,masks/mask_002.jpg,,,,,,,,,,,,,,,,,,,,,,,,,,,,,,,,,,,,,,,,,,,,,,,,0,3,3,1,1,,,,,,,,,,,,,,,,,,,,,,,,,,,,,,,,,,,,,,,,,
007056,001,2022-11-14_24h27.03.596,Info_measure_main_exp,2022.2.2,Win32,59.86948452,,,,,,,,,,,,,,,,,,masks/mask_001.jpg,,,,,,,,,,,,,,,,,,,,,,,,,,,,,,,,,,,,,,,,,,,,,,,,0,4,4,0,1,,,,,,,,,,,,,,,,,,,,,,,,,,,,,,,,,,,,,,,,,
007056,001,2022-11-14_24h27.03.596,Info_measure_main_exp,2022.2.2,Win32,59.86948452,,,,,,,,,,,,,,,,,,,,,,,,,,,,,,3,4.8671,1,,,,,,,,,,,,0,131,5,5,2178,2154,absent_patch/patch0002178.jpg,absent_patch/patch0002154.jpg,,,,,,,,,,,,,,,,,,,,-0.013333333,-0.132222222,1,0,0,response5disk,24,0.002222222,0.008888889,1,0,0,center_square,0,23,23,63,1,,,,,,,,,,,,,,,,,,,,,,,
007056,001,2022-11-14_24h27.03.596,Info_measure_main_exp,2022.2.2,Win32,59.86948452,,,,,,,,,,,,,,,,,,masks/mask_003.jpg,,,,,,,,,,,,,,,,,,,,,,,,,,,,,,,,,,,,,,,,,,,0,0,0,2,1,,,,,,,,,,,,,,,,,,,,,,,,,,,,,,,,,,,,,,,,,,,,,,
007056,001,2022-11-14_24h27.03.596,Info_measure_main_exp,2022.2.2,Win32,59.86948452,,,,,,,,,,,,,,,,,,masks/mask_002.jpg,,,,,,,,,,,,,,,,,,,,,,,,,,,,,,,,,,,,,,,,,,,0,1,1,1,1,,,,,,,,,,,,,,,,,,,,,,,,,,,,,,,,,,,,,,,,,,,,,,
007056,001,2022-11-14_24h27.03.596,Info_measure_main_exp,2022.2.2,Win32,59.86948452,,,,,,,,,,,,,,,,,,masks/mask_005.jpg,,,,,,,,,,,,,,,,,,,,,,,,,,,,,,,,,,,,,,,,,,,0,2,2,4,1,,,,,,,,,,,,,,,,,,,,,,,,,,,,,,,,,,,,,,,,,,,,,,
007056,001,2022-11-14_24h27.03.596,Info_measure_main_exp,2022.2.2,Win32,59.86948452,,,,,,,,,,,,,,,,,,masks/mask_001.jpg,,,,,,,,,,,,,,,,,,,,,,,,,,,,,,,,,,,,,,,,,,,0,3,3,0,1,,,,,,,,,,,,,,,,,,,,,,,,,,,,,,,,,,,,,,,,,,,,,,
007056,001,2022-11-14_24h27.03.596,Info_measure_main_exp,2022.2.2,Win32,59.86948452,,,,,,,,,,,,,,,,,,masks/mask_004.jpg,,,,,,,,,,,,,,,,,,,,,,,,,,,,,,,,,,,,,,,,,,,0,4,4,3,1,,,,,,,,,,,,,,,,,,,,,,,,,,,,,,,,,,,,,,,,,,,,,,
007056,001,2022-11-14_24h27.03.596,Info_measure_main_exp,2022.2.2,Win32,59.86948452,,,,,,,,,,,,,,,,,,masks/mask_005.jpg,,,,,,,,,,,,,,,,,,,,,,,,,,,,,,,,,,,,,,,,,,,,,,,,0,0,0,4,1,,,,,,,,,,,,,,,,,,,,,,,,,,,,,,,,,,,,,,,,,
007056,001,2022-11-14_24h27.03.596,Info_measure_main_exp,2022.2.2,Win32,59.86948452,,,,,,,,,,,,,,,,,,masks/mask_001.jpg,,,,,,,,,,,,,,,,,,,,,,,,,,,,,,,,,,,,,,,,,,,,,,,,0,1,1,0,1,,,,,,,,,,,,,,,,,,,,,,,,,,,,,,,,,,,,,,,,,
007056,001,2022-11-14_24h27.03.596,Info_measure_main_exp,2022.2.2,Win32,59.86948452,,,,,,,,,,,,,,,,,,masks/mask_003.jpg,,,,,,,,,,,,,,,,,,,,,,,,,,,,,,,,,,,,,,,,,,,,,,,,0,2,2,2,1,,,,,,,,,,,,,,,,,,,,,,,,,,,,,,,,,,,,,,,,,
007056,001,2022-11-14_24h27.03.596,Info_measure_main_exp,2022.2.2,Win32,59.86948452,,,,,,,,,,,,,,,,,,masks/mask_002.jpg,,,,,,,,,,,,,,,,,,,,,,,,,,,,,,,,,,,,,,,,,,,,,,,,0,3,3,1,1,,,,,,,,,,,,,,,,,,,,,,,,,,,,,,,,,,,,,,,,,
007056,001,2022-11-14_24h27.03.596,Info_measure_main_exp,2022.2.2,Win32,59.86948452,,,,,,,,,,,,,,,,,,masks/mask_004.jpg,,,,,,,,,,,,,,,,,,,,,,,,,,,,,,,,,,,,,,,,,,,,,,,,0,4,4,3,1,,,,,,,,,,,,,,,,,,,,,,,,,,,,,,,,,,,,,,,,,
007056,001,2022-11-14_24h27.03.596,Info_measure_main_exp,2022.2.2,Win32,59.86948452,,,,,,,,,,,,,,,,,,,,,,,,,,,,,,5,1.0178,1,,,,,,,,,,,,0,131,5,5,1974,2298,absent_patch/patch0001974.jpg,absent_patch/patch0002298.jpg,,,,,,,,,,,,,,,,,,,,0.061111111,-0.01,1,0,0,response3disk,25,0.007777778,-0.003333333,1,0,0,center_square,0,24,24,6,1,,,,,,,,,,,,,,,,,,,,,,,
007056,001,2022-11-14_24h27.03.596,Info_measure_main_exp,2022.2.2,Win32,59.86948452,,,,,,,,,,,,,,,,,,masks/mask_003.jpg,,,,,,,,,,,,,,,,,,,,,,,,,,,,,,,,,,,,,,,,,,,0,0,0,2,1,,,,,,,,,,,,,,,,,,,,,,,,,,,,,,,,,,,,,,,,,,,,,,
007056,001,2022-11-14_24h27.03.596,Info_measure_main_exp,2022.2.2,Win32,59.86948452,,,,,,,,,,,,,,,,,,masks/mask_005.jpg,,,,,,,,,,,,,,,,,,,,,,,,,,,,,,,,,,,,,,,,,,,0,1,1,4,1,,,,,,,,,,,,,,,,,,,,,,,,,,,,,,,,,,,,,,,,,,,,,,
007056,001,2022-11-14_24h27.03.596,Info_measure_main_exp,2022.2.2,Win32,59.86948452,,,,,,,,,,,,,,,,,,masks/mask_004.jpg,,,,,,,,,,,,,,,,,,,,,,,,,,,,,,,,,,,,,,,,,,,0,2,2,3,1,,,,,,,,,,,,,,,,,,,,,,,,,,,,,,,,,,,,,,,,,,,,,,
007056,001,2022-11-14_24h27.03.596,Info_measure_main_exp,2022.2.2,Win32,59.86948452,,,,,,,,,,,,,,,,,,masks/mask_001.jpg,,,,,,,,,,,,,,,,,,,,,,,,,,,,,,,,,,,,,,,,,,,0,3,3,0,1,,,,,,,,,,,,,,,,,,,,,,,,,,,,,,,,,,,,,,,,,,,,,,
007056,001,2022-11-14_24h27.03.596,Info_measure_main_exp,2022.2.2,Win32,59.86948452,,,,,,,,,,,,,,,,,,masks/mask_002.jpg,,,,,,,,,,,,,,,,,,,,,,,,,,,,,,,,,,,,,,,,,,,0,4,4,1,1,,,,,,,,,,,,,,,,,,,,,,,,,,,,,,,,,,,,,,,,,,,,,,
007056,001,2022-11-14_24h27.03.596,Info_measure_main_exp,2022.2.2,Win32,59.86948452,,,,,,,,,,,,,,,,,,masks/mask_002.jpg,,,,,,,,,,,,,,,,,,,,,,,,,,,,,,,,,,,,,,,,,,,,,,,,0,0,0,1,1,,,,,,,,,,,,,,,,,,,,,,,,,,,,,,,,,,,,,,,,,
007056,001,2022-11-14_24h27.03.596,Info_measure_main_exp,2022.2.2,Win32,59.86948452,,,,,,,,,,,,,,,,,,masks/mask_003.jpg,,,,,,,,,,,,,,,,,,,,,,,,,,,,,,,,,,,,,,,,,,,,,,,,0,1,1,2,1,,,,,,,,,,,,,,,,,,,,,,,,,,,,,,,,,,,,,,,,,
007056,001,2022-11-14_24h27.03.596,Info_measure_main_exp,2022.2.2,Win32,59.86948452,,,,,,,,,,,,,,,,,,masks/mask_005.jpg,,,,,,,,,,,,,,,,,,,,,,,,,,,,,,,,,,,,,,,,,,,,,,,,0,2,2,4,1,,,,,,,,,,,,,,,,,,,,,,,,,,,,,,,,,,,,,,,,,
007056,001,2022-11-14_24h27.03.596,Info_measure_main_exp,2022.2.2,Win32,59.86948452,,,,,,,,,,,,,,,,,,masks/mask_004.jpg,,,,,,,,,,,,,,,,,,,,,,,,,,,,,,,,,,,,,,,,,,,,,,,,0,3,3,3,1,,,,,,,,,,,,,,,,,,,,,,,,,,,,,,,,,,,,,,,,,
007056,001,2022-11-14_24h27.03.596,Info_measure_main_exp,2022.2.2,Win32,59.86948452,,,,,,,,,,,,,,,,,,masks/mask_001.jpg,,,,,,,,,,,,,,,,,,,,,,,,,,,,,,,,,,,,,,,,,,,,,,,,0,4,4,0,1,,,,,,,,,,,,,,,,,,,,,,,,,,,,,,,,,,,,,,,,,
007056,001,2022-11-14_24h27.03.596,Info_measure_main_exp,2022.2.2,Win32,59.86948452,,,,,,,,,,,,,,,,,,,,,,,,,,,,,,0,0.7166,1,,,,,,,,,,,,0,131,5,5,2154,2154,absent_patch/patch0002154.jpg,absent_patch/patch0002154.jpg,,,,,,,,,,,,,,,,,,,,-0.02,0.061111111,1,0,0,response7disk,26,0.002222222,0,1,0,0,center_square,0,25,25,89,1,,,,,,,,,,,,,,,,,,,,,,,
007056,001,2022-11-14_24h27.03.596,Info_measure_main_exp,2022.2.2,Win32,59.86948452,,,,,,,,,,,,,,,,,,masks/mask_005.jpg,,,,,,,,,,,,,,,,,,,,,,,,,,,,,,,,,,,,,,,,,,,0,0,0,4,1,,,,,,,,,,,,,,,,,,,,,,,,,,,,,,,,,,,,,,,,,,,,,,
007056,001,2022-11-14_24h27.03.596,Info_measure_main_exp,2022.2.2,Win32,59.86948452,,,,,,,,,,,,,,,,,,masks/mask_004.jpg,,,,,,,,,,,,,,,,,,,,,,,,,,,,,,,,,,,,,,,,,,,0,1,1,3,1,,,,,,,,,,,,,,,,,,,,,,,,,,,,,,,,,,,,,,,,,,,,,,
007056,001,2022-11-14_24h27.03.596,Info_measure_main_exp,2022.2.2,Win32,59.86948452,,,,,,,,,,,,,,,,,,masks/mask_003.jpg,,,,,,,,,,,,,,,,,,,,,,,,,,,,,,,,,,,,,,,,,,,0,2,2,2,1,,,,,,,,,,,,,,,,,,,,,,,,,,,,,,,,,,,,,,,,,,,,,,
007056,001,2022-11-14_24h27.03.596,Info_measure_main_exp,2022.2.2,Win32,59.86948452,,,,,,,,,,,,,,,,,,masks/mask_001.jpg,,,,,,,,,,,,,,,,,,,,,,,,,,,,,,,,,,,,,,,,,,,0,3,3,0,1,,,,,,,,,,,,,,,,,,,,,,,,,,,,,,,,,,,,,,,,,,,,,,
007056,001,2022-11-14_24h27.03.596,Info_measure_main_exp,2022.2.2,Win32,59.86948452,,,,,,,,,,,,,,,,,,masks/mask_002.jpg,,,,,,,,,,,,,,,,,,,,,,,,,,,,,,,,,,,,,,,,,,,0,4,4,1,1,,,,,,,,,,,,,,,,,,,,,,,,,,,,,,,,,,,,,,,,,,,,,,
007056,001,2022-11-14_24h27.03.596,Info_measure_main_exp,2022.2.2,Win32,59.86948452,,,,,,,,,,,,,,,,,,masks/mask_005.jpg,,,,,,,,,,,,,,,,,,,,,,,,,,,,,,,,,,,,,,,,,,,,,,,,0,0,0,4,1,,,,,,,,,,,,,,,,,,,,,,,,,,,,,,,,,,,,,,,,,
007056,001,2022-11-14_24h27.03.596,Info_measure_main_exp,2022.2.2,Win32,59.86948452,,,,,,,,,,,,,,,,,,masks/mask_001.jpg,,,,,,,,,,,,,,,,,,,,,,,,,,,,,,,,,,,,,,,,,,,,,,,,0,1,1,0,1,,,,,,,,,,,,,,,,,,,,,,,,,,,,,,,,,,,,,,,,,
007056,001,2022-11-14_24h27.03.596,Info_measure_main_exp,2022.2.2,Win32,59.86948452,,,,,,,,,,,,,,,,,,masks/mask_004.jpg,,,,,,,,,,,,,,,,,,,,,,,,,,,,,,,,,,,,,,,,,,,,,,,,0,2,2,3,1,,,,,,,,,,,,,,,,,,,,,,,,,,,,,,,,,,,,,,,,,
007056,001,2022-11-14_24h27.03.596,Info_measure_main_exp,2022.2.2,Win32,59.86948452,,,,,,,,,,,,,,,,,,masks/mask_002.jpg,,,,,,,,,,,,,,,,,,,,,,,,,,,,,,,,,,,,,,,,,,,,,,,,0,3,3,1,1,,,,,,,,,,,,,,,,,,,,,,,,,,,,,,,,,,,,,,,,,
007056,001,2022-11-14_24h27.03.596,Info_measure_main_exp,2022.2.2,Win32,59.86948452,,,,,,,,,,,,,,,,,,masks/mask_003.jpg,,,,,,,,,,,,,,,,,,,,,,,,,,,,,,,,,,,,,,,,,,,,,,,,0,4,4,2,1,,,,,,,,,,,,,,,,,,,,,,,,,,,,,,,,,,,,,,,,,
007056,001,2022-11-14_24h27.03.596,Info_measure_main_exp,2022.2.2,Win32,59.86948452,,,,,,,,,,,,,,,,,,,,,,,,,,,,,,7,1.4027,1,,,,,,,,,,,,1,131,5,5,1,1974,present_patch/cong_131_5_a.jpg,absent_patch/patch0001974.jpg,,,,,,,,,,,,,,,,,,,,0.038888889,0.058888889,1,0,0,response1disk,27,0.01,0.007777778,1,0,0,center_square,0,26,26,69,1,,,,,,,,,,,,,,,,,,,,,,,
007056,001,2022-11-14_24h27.03.596,Info_measure_main_exp,2022.2.2,Win32,59.86948452,,,,,,,,,,,,,,,,,,masks/mask_001.jpg,,,,,,,,,,,,,,,,,,,,,,,,,,,,,,,,,,,,,,,,,,,0,0,0,0,1,,,,,,,,,,,,,,,,,,,,,,,,,,,,,,,,,,,,,,,,,,,,,,
007056,001,2022-11-14_24h27.03.596,Info_measure_main_exp,2022.2.2,Win32,59.86948452,,,,,,,,,,,,,,,,,,masks/mask_003.jpg,,,,,,,,,,,,,,,,,,,,,,,,,,,,,,,,,,,,,,,,,,,0,1,1,2,1,,,,,,,,,,,,,,,,,,,,,,,,,,,,,,,,,,,,,,,,,,,,,,
007056,001,2022-11-14_24h27.03.596,Info_measure_main_exp,2022.2.2,Win32,59.86948452,,,,,,,,,,,,,,,,,,masks/mask_004.jpg,,,,,,,,,,,,,,,,,,,,,,,,,,,,,,,,,,,,,,,,,,,0,2,2,3,1,,,,,,,,,,,,,,,,,,,,,,,,,,,,,,,,,,,,,,,,,,,,,,
007056,001,2022-11-14_24h27.03.596,Info_measure_main_exp,2022.2.2,Win32,59.86948452,,,,,,,,,,,,,,,,,,masks/mask_005.jpg,,,,,,,,,,,,,,,,,,,,,,,,,,,,,,,,,,,,,,,,,,,0,3,3,4,1,,,,,,,,,,,,,,,,,,,,,,,,,,,,,,,,,,,,,,,,,,,,,,
007056,001,2022-11-14_24h27.03.596,Info_measure_main_exp,2022.2.2,Win32,59.86948452,,,,,,,,,,,,,,,,,,masks/mask_002.jpg,,,,,,,,,,,,,,,,,,,,,,,,,,,,,,,,,,,,,,,,,,,0,4,4,1,1,,,,,,,,,,,,,,,,,,,,,,,,,,,,,,,,,,,,,,,,,,,,,,
007056,001,2022-11-14_24h27.03.596,Info_measure_main_exp,2022.2.2,Win32,59.86948452,,,,,,,,,,,,,,,,,,masks/mask_001.jpg,,,,,,,,,,,,,,,,,,,,,,,,,,,,,,,,,,,,,,,,,,,,,,,,0,0,0,0,1,,,,,,,,,,,,,,,,,,,,,,,,,,,,,,,,,,,,,,,,,
007056,001,2022-11-14_24h27.03.596,Info_measure_main_exp,2022.2.2,Win32,59.86948452,,,,,,,,,,,,,,,,,,masks/mask_003.jpg,,,,,,,,,,,,,,,,,,,,,,,,,,,,,,,,,,,,,,,,,,,,,,,,0,1,1,2,1,,,,,,,,,,,,,,,,,,,,,,,,,,,,,,,,,,,,,,,,,
007056,001,2022-11-14_24h27.03.596,Info_measure_main_exp,2022.2.2,Win32,59.86948452,,,,,,,,,,,,,,,,,,masks/mask_004.jpg,,,,,,,,,,,,,,,,,,,,,,,,,,,,,,,,,,,,,,,,,,,,,,,,0,2,2,3,1,,,,,,,,,,,,,,,,,,,,,,,,,,,,,,,,,,,,,,,,,
007056,001,2022-11-14_24h27.03.596,Info_measure_main_exp,2022.2.2,Win32,59.86948452,,,,,,,,,,,,,,,,,,masks/mask_005.jpg,,,,,,,,,,,,,,,,,,,,,,,,,,,,,,,,,,,,,,,,,,,,,,,,0,3,3,4,1,,,,,,,,,,,,,,,,,,,,,,,,,,,,,,,,,,,,,,,,,
007056,001,2022-11-14_24h27.03.596,Info_measure_main_exp,2022.2.2,Win32,59.86948452,,,,,,,,,,,,,,,,,,masks/mask_002.jpg,,,,,,,,,,,,,,,,,,,,,,,,,,,,,,,,,,,,,,,,,,,,,,,,0,4,4,1,1,,,,,,,,,,,,,,,,,,,,,,,,,,,,,,,,,,,,,,,,,
007056,001,2022-11-14_24h27.03.596,Info_measure_main_exp,2022.2.2,Win32,59.86948452,,,,,,,,,,,,,,,,,,,,,,,,,,,,,,7,0.7227,1,,,,,,,,,,,,0,131,5,5,1986,1974,absent_patch/patch0001986.jpg,absent_patch/patch0001974.jpg,,,,,,,,,,,,,,,,,,,,0.017777778,0.066666667,1,0,0,response1disk,28,0.002222222,0.001111111,1,0,0,center_square,0,27,27,25,1,,,,,,,,,,,,,,,,,,,,,,,
007056,001,2022-11-14_24h27.03.596,Info_measure_main_exp,2022.2.2,Win32,59.86948452,,,,,,,,,,,,,,,,,,masks/mask_003.jpg,,,,,,,,,,,,,,,,,,,,,,,,,,,,,,,,,,,,,,,,,,,0,0,0,2,1,,,,,,,,,,,,,,,,,,,,,,,,,,,,,,,,,,,,,,,,,,,,,,
007056,001,2022-11-14_24h27.03.596,Info_measure_main_exp,2022.2.2,Win32,59.86948452,,,,,,,,,,,,,,,,,,masks/mask_002.jpg,,,,,,,,,,,,,,,,,,,,,,,,,,,,,,,,,,,,,,,,,,,0,1,1,1,1,,,,,,,,,,,,,,,,,,,,,,,,,,,,,,,,,,,,,,,,,,,,,,
007056,001,2022-11-14_24h27.03.596,Info_measure_main_exp,2022.2.2,Win32,59.86948452,,,,,,,,,,,,,,,,,,masks/mask_004.jpg,,,,,,,,,,,,,,,,,,,,,,,,,,,,,,,,,,,,,,,,,,,0,2,2,3,1,,,,,,,,,,,,,,,,,,,,,,,,,,,,,,,,,,,,,,,,,,,,,,
007056,001,2022-11-14_24h27.03.596,Info_measure_main_exp,2022.2.2,Win32,59.86948452,,,,,,,,,,,,,,,,,,masks/mask_001.jpg,,,,,,,,,,,,,,,,,,,,,,,,,,,,,,,,,,,,,,,,,,,0,3,3,0,1,,,,,,,,,,,,,,,,,,,,,,,,,,,,,,,,,,,,,,,,,,,,,,
007056,001,2022-11-14_24h27.03.596,Info_measure_main_exp,2022.2.2,Win32,59.86948452,,,,,,,,,,,,,,,,,,masks/mask_005.jpg,,,,,,,,,,,,,,,,,,,,,,,,,,,,,,,,,,,,,,,,,,,0,4,4,4,1,,,,,,,,,,,,,,,,,,,,,,,,,,,,,,,,,,,,,,,,,,,,,,
007056,001,2022-11-14_24h27.03.596,Info_measure_main_exp,2022.2.2,Win32,59.86948452,,,,,,,,,,,,,,,,,,masks/mask_005.jpg,,,,,,,,,,,,,,,,,,,,,,,,,,,,,,,,,,,,,,,,,,,,,,,,0,0,0,4,1,,,,,,,,,,,,,,,,,,,,,,,,,,,,,,,,,,,,,,,,,
007056,001,2022-11-14_24h27.03.596,Info_measure_main_exp,2022.2.2,Win32,59.86948452,,,,,,,,,,,,,,,,,,masks/mask_004.jpg,,,,,,,,,,,,,,,,,,,,,,,,,,,,,,,,,,,,,,,,,,,,,,,,0,1,1,3,1,,,,,,,,,,,,,,,,,,,,,,,,,,,,,,,,,,,,,,,,,
007056,001,2022-11-14_24h27.03.596,Info_measure_main_exp,2022.2.2,Win32,59.86948452,,,,,,,,,,,,,,,,,,masks/mask_003.jpg,,,,,,,,,,,,,,,,,,,,,,,,,,,,,,,,,,,,,,,,,,,,,,,,0,2,2,2,1,,,,,,,,,,,,,,,,,,,,,,,,,,,,,,,,,,,,,,,,,
007056,001,2022-11-14_24h27.03.596,Info_measure_main_exp,2022.2.2,Win32,59.86948452,,,,,,,,,,,,,,,,,,masks/mask_002.jpg,,,,,,,,,,,,,,,,,,,,,,,,,,,,,,,,,,,,,,,,,,,,,,,,0,3,3,1,1,,,,,,,,,,,,,,,,,,,,,,,,,,,,,,,,,,,,,,,,,
007056,001,2022-11-14_24h27.03.596,Info_measure_main_exp,2022.2.2,Win32,59.86948452,,,,,,,,,,,,,,,,,,masks/mask_001.jpg,,,,,,,,,,,,,,,,,,,,,,,,,,,,,,,,,,,,,,,,,,,,,,,,0,4,4,0,1,,,,,,,,,,,,,,,,,,,,,,,,,,,,,,,,,,,,,,,,,
007056,001,2022-11-14_24h27.03.596,Info_measure_main_exp,2022.2.2,Win32,59.86948452,,,,,,,,,,,,,,,,,,,,,,,,,,,,,,7,1.1684,1,,,,,,,,,,,,0,131,5,5,2214,2082,absent_patch/patch0002214.jpg,absent_patch/patch0002082.jpg,,,,,,,,,,,,,,,,,,,,0.045555556,0.063333333,1,0,0,response1disk,29,0.004444444,0.004444444,1,0,0,center_square,0,28,28,103,1,,,,,,,,,,,,,,,,,,,,,,,
007056,001,2022-11-14_24h27.03.596,Info_measure_main_exp,2022.2.2,Win32,59.86948452,,,,,,,,,,,,,,,,,,masks/mask_003.jpg,,,,,,,,,,,,,,,,,,,,,,,,,,,,,,,,,,,,,,,,,,,0,0,0,2,1,,,,,,,,,,,,,,,,,,,,,,,,,,,,,,,,,,,,,,,,,,,,,,
007056,001,2022-11-14_24h27.03.596,Info_measure_main_exp,2022.2.2,Win32,59.86948452,,,,,,,,,,,,,,,,,,masks/mask_002.jpg,,,,,,,,,,,,,,,,,,,,,,,,,,,,,,,,,,,,,,,,,,,0,1,1,1,1,,,,,,,,,,,,,,,,,,,,,,,,,,,,,,,,,,,,,,,,,,,,,,
007056,001,2022-11-14_24h27.03.596,Info_measure_main_exp,2022.2.2,Win32,59.86948452,,,,,,,,,,,,,,,,,,masks/mask_005.jpg,,,,,,,,,,,,,,,,,,,,,,,,,,,,,,,,,,,,,,,,,,,0,2,2,4,1,,,,,,,,,,,,,,,,,,,,,,,,,,,,,,,,,,,,,,,,,,,,,,
007056,001,2022-11-14_24h27.03.596,Info_measure_main_exp,2022.2.2,Win32,59.86948452,,,,,,,,,,,,,,,,,,masks/mask_001.jpg,,,,,,,,,,,,,,,,,,,,,,,,,,,,,,,,,,,,,,,,,,,0,3,3,0,1,,,,,,,,,,,,,,,,,,,,,,,,,,,,,,,,,,,,,,,,,,,,,,
007056,001,2022-11-14_24h27.03.596,Info_measure_main_exp,2022.2.2,Win32,59.86948452,,,,,,,,,,,,,,,,,,masks/mask_004.jpg,,,,,,,,,,,,,,,,,,,,,,,,,,,,,,,,,,,,,,,,,,,0,4,4,3,1,,,,,,,,,,,,,,,,,,,,,,,,,,,,,,,,,,,,,,,,,,,,,,
007056,001,2022-11-14_24h27.03.596,Info_measure_main_exp,2022.2.2,Win32,59.86948452,,,,,,,,,,,,,,,,,,masks/mask_005.jpg,,,,,,,,,,,,,,,,,,,,,,,,,,,,,,,,,,,,,,,,,,,,,,,,0,0,0,4,1,,,,,,,,,,,,,,,,,,,,,,,,,,,,,,,,,,,,,,,,,
007056,001,2022-11-14_24h27.03.596,Info_measure_main_exp,2022.2.2,Win32,59.86948452,,,,,,,,,,,,,,,,,,masks/mask_004.jpg,,,,,,,,,,,,,,,,,,,,,,,,,,,,,,,,,,,,,,,,,,,,,,,,0,1,1,3,1,,,,,,,,,,,,,,,,,,,,,,,,,,,,,,,,,,,,,,,,,
007056,001,2022-11-14_24h27.03.596,Info_measure_main_exp,2022.2.2,Win32,59.86948452,,,,,,,,,,,,,,,,,,masks/mask_002.jpg,,,,,,,,,,,,,,,,,,,,,,,,,,,,,,,,,,,,,,,,,,,,,,,,0,2,2,1,1,,,,,,,,,,,,,,,,,,,,,,,,,,,,,,,,,,,,,,,,,
007056,001,2022-11-14_24h27.03.596,Info_measure_main_exp,2022.2.2,Win32,59.86948452,,,,,,,,,,,,,,,,,,masks/mask_001.jpg,,,,,,,,,,,,,,,,,,,,,,,,,,,,,,,,,,,,,,,,,,,,,,,,0,3,3,0,1,,,,,,,,,,,,,,,,,,,,,,,,,,,,,,,,,,,,,,,,,
007056,001,2022-11-14_24h27.03.596,Info_measure_main_exp,2022.2.2,Win32,59.86948452,,,,,,,,,,,,,,,,,,masks/mask_003.jpg,,,,,,,,,,,,,,,,,,,,,,,,,,,,,,,,,,,,,,,,,,,,,,,,0,4,4,2,1,,,,,,,,,,,,,,,,,,,,,,,,,,,,,,,,,,,,,,,,,
007056,001,2022-11-14_24h27.03.596,Info_measure_main_exp,2022.2.2,Win32,59.86948452,,,,,,,,,,,,,,,,,,,,,,,,,,,,,,4,1.1617,1,,,,,,,,,,,,0,131,5,5,2274,2154,absent_patch/patch0002274.jpg,absent_patch/patch0002154.jpg,,,,,,,,,,,,,,,,,,,,0.007777778,-0.055555556,1,0,0,response3disk,30,0.003333333,-0.007777778,1,0,0,center_square,0,29,29,23,1,,,,,,,,,,,,,,,,,,,,,,,
007056,001,2022-11-14_24h27.03.596,Info_measure_main_exp,2022.2.2,Win32,59.86948452,,,,,,,,,,,,,,,,,,masks/mask_002.jpg,,,,,,,,,,,,,,,,,,,,,,,,,,,,,,,,,,,,,,,,,,,0,0,0,1,1,,,,,,,,,,,,,,,,,,,,,,,,,,,,,,,,,,,,,,,,,,,,,,
007056,001,2022-11-14_24h27.03.596,Info_measure_main_exp,2022.2.2,Win32,59.86948452,,,,,,,,,,,,,,,,,,masks/mask_004.jpg,,,,,,,,,,,,,,,,,,,,,,,,,,,,,,,,,,,,,,,,,,,0,1,1,3,1,,,,,,,,,,,,,,,,,,,,,,,,,,,,,,,,,,,,,,,,,,,,,,
007056,001,2022-11-14_24h27.03.596,Info_measure_main_exp,2022.2.2,Win32,59.86948452,,,,,,,,,,,,,,,,,,masks/mask_001.jpg,,,,,,,,,,,,,,,,,,,,,,,,,,,,,,,,,,,,,,,,,,,0,2,2,0,1,,,,,,,,,,,,,,,,,,,,,,,,,,,,,,,,,,,,,,,,,,,,,,
007056,001,2022-11-14_24h27.03.596,Info_measure_main_exp,2022.2.2,Win32,59.86948452,,,,,,,,,,,,,,,,,,masks/mask_005.jpg,,,,,,,,,,,,,,,,,,,,,,,,,,,,,,,,,,,,,,,,,,,0,3,3,4,1,,,,,,,,,,,,,,,,,,,,,,,,,,,,,,,,,,,,,,,,,,,,,,
007056,001,2022-11-14_24h27.03.596,Info_measure_main_exp,2022.2.2,Win32,59.86948452,,,,,,,,,,,,,,,,,,masks/mask_003.jpg,,,,,,,,,,,,,,,,,,,,,,,,,,,,,,,,,,,,,,,,,,,0,4,4,2,1,,,,,,,,,,,,,,,,,,,,,,,,,,,,,,,,,,,,,,,,,,,,,,
007056,001,2022-11-14_24h27.03.596,Info_measure_main_exp,2022.2.2,Win32,59.86948452,,,,,,,,,,,,,,,,,,masks/mask_003.jpg,,,,,,,,,,,,,,,,,,,,,,,,,,,,,,,,,,,,,,,,,,,,,,,,0,0,0,2,1,,,,,,,,,,,,,,,,,,,,,,,,,,,,,,,,,,,,,,,,,
007056,001,2022-11-14_24h27.03.596,Info_measure_main_exp,2022.2.2,Win32,59.86948452,,,,,,,,,,,,,,,,,,masks/mask_002.jpg,,,,,,,,,,,,,,,,,,,,,,,,,,,,,,,,,,,,,,,,,,,,,,,,0,1,1,1,1,,,,,,,,,,,,,,,,,,,,,,,,,,,,,,,,,,,,,,,,,
007056,001,2022-11-14_24h27.03.596,Info_measure_main_exp,2022.2.2,Win32,59.86948452,,,,,,,,,,,,,,,,,,masks/mask_005.jpg,,,,,,,,,,,,,,,,,,,,,,,,,,,,,,,,,,,,,,,,,,,,,,,,0,2,2,4,1,,,,,,,,,,,,,,,,,,,,,,,,,,,,,,,,,,,,,,,,,
007056,001,2022-11-14_24h27.03.596,Info_measure_main_exp,2022.2.2,Win32,59.86948452,,,,,,,,,,,,,,,,,,masks/mask_004.jpg,,,,,,,,,,,,,,,,,,,,,,,,,,,,,,,,,,,,,,,,,,,,,,,,0,3,3,3,1,,,,,,,,,,,,,,,,,,,,,,,,,,,,,,,,,,,,,,,,,
007056,001,2022-11-14_24h27.03.596,Info_measure_main_exp,2022.2.2,Win32,59.86948452,,,,,,,,,,,,,,,,,,masks/mask_001.jpg,,,,,,,,,,,,,,,,,,,,,,,,,,,,,,,,,,,,,,,,,,,,,,,,0,4,4,0,1,,,,,,,,,,,,,,,,,,,,,,,,,,,,,,,,,,,,,,,,,
007056,001,2022-11-14_24h27.03.596,Info_measure_main_exp,2022.2.2,Win32,59.86948452,,,,,,,,,,,,,,,,,,,,,,,,,,,,,,0,0.8116,1,,,,,,,,,,,,0,131,5,5,2142,2142,absent_patch/patch0002142.jpg,absent_patch/patch0002142.jpg,,,,,,,,,,,,,,,,,,,,-0.036666667,0.096666667,1,0,0,response7disk,31,-0.007777778,0.011111111,1,0,0,center_square,0,30,30,13,1,,,,,,,,,,,,,,,,,,,,,,,
007056,001,2022-11-14_24h27.03.596,Info_measure_main_exp,2022.2.2,Win32,59.86948452,,,,,,,,,,,,,,,,,,masks/mask_003.jpg,,,,,,,,,,,,,,,,,,,,,,,,,,,,,,,,,,,,,,,,,,,0,0,0,2,1,,,,,,,,,,,,,,,,,,,,,,,,,,,,,,,,,,,,,,,,,,,,,,
007056,001,2022-11-14_24h27.03.596,Info_measure_main_exp,2022.2.2,Win32,59.86948452,,,,,,,,,,,,,,,,,,masks/mask_002.jpg,,,,,,,,,,,,,,,,,,,,,,,,,,,,,,,,,,,,,,,,,,,0,1,1,1,1,,,,,,,,,,,,,,,,,,,,,,,,,,,,,,,,,,,,,,,,,,,,,,
007056,001,2022-11-14_24h27.03.596,Info_measure_main_exp,2022.2.2,Win32,59.86948452,,,,,,,,,,,,,,,,,,masks/mask_005.jpg,,,,,,,,,,,,,,,,,,,,,,,,,,,,,,,,,,,,,,,,,,,0,2,2,4,1,,,,,,,,,,,,,,,,,,,,,,,,,,,,,,,,,,,,,,,,,,,,,,
007056,001,2022-11-14_24h27.03.596,Info_measure_main_exp,2022.2.2,Win32,59.86948452,,,,,,,,,,,,,,,,,,masks/mask_004.jpg,,,,,,,,,,,,,,,,,,,,,,,,,,,,,,,,,,,,,,,,,,,0,3,3,3,1,,,,,,,,,,,,,,,,,,,,,,,,,,,,,,,,,,,,,,,,,,,,,,
007056,001,2022-11-14_24h27.03.596,Info_measure_main_exp,2022.2.2,Win32,59.86948452,,,,,,,,,,,,,,,,,,masks/mask_001.jpg,,,,,,,,,,,,,,,,,,,,,,,,,,,,,,,,,,,,,,,,,,,0,4,4,0,1,,,,,,,,,,,,,,,,,,,,,,,,,,,,,,,,,,,,,,,,,,,,,,
007056,001,2022-11-14_24h27.03.596,Info_measure_main_exp,2022.2.2,Win32,59.86948452,,,,,,,,,,,,,,,,,,masks/mask_002.jpg,,,,,,,,,,,,,,,,,,,,,,,,,,,,,,,,,,,,,,,,,,,,,,,,0,0,0,1,1,,,,,,,,,,,,,,,,,,,,,,,,,,,,,,,,,,,,,,,,,
007056,001,2022-11-14_24h27.03.596,Info_measure_main_exp,2022.2.2,Win32,59.86948452,,,,,,,,,,,,,,,,,,masks/mask_003.jpg,,,,,,,,,,,,,,,,,,,,,,,,,,,,,,,,,,,,,,,,,,,,,,,,0,1,1,2,1,,,,,,,,,,,,,,,,,,,,,,,,,,,,,,,,,,,,,,,,,
007056,001,2022-11-14_24h27.03.596,Info_measure_main_exp,2022.2.2,Win32,59.86948452,,,,,,,,,,,,,,,,,,masks/mask_001.jpg,,,,,,,,,,,,,,,,,,,,,,,,,,,,,,,,,,,,,,,,,,,,,,,,0,2,2,0,1,,,,,,,,,,,,,,,,,,,,,,,,,,,,,,,,,,,,,,,,,
007056,001,2022-11-14_24h27.03.596,Info_measure_main_exp,2022.2.2,Win32,59.86948452,,,,,,,,,,,,,,,,,,masks/mask_005.jpg,,,,,,,,,,,,,,,,,,,,,,,,,,,,,,,,,,,,,,,,,,,,,,,,0,3,3,4,1,,,,,,,,,,,,,,,,,,,,,,,,,,,,,,,,,,,,,,,,,
007056,001,2022-11-14_24h27.03.596,Info_measure_main_exp,2022.2.2,Win32,59.86948452,,,,,,,,,,,,,,,,,,masks/mask_004.jpg,,,,,,,,,,,,,,,,,,,,,,,,,,,,,,,,,,,,,,,,,,,,,,,,0,4,4,3,1,,,,,,,,,,,,,,,,,,,,,,,,,,,,,,,,,,,,,,,,,
007056,001,2022-11-14_24h27.03.596,Info_measure_main_exp,2022.2.2,Win32,59.86948452,,,,,,,,,,,,,,,,,,,,,,,,,,,,,,7,0.7244,1,,,,,,,,,,,,0,131,5,5,2190,1974,absent_patch/patch0002190.jpg,absent_patch/patch0001974.jpg,,,,,,,,,,,,,,,,,,,,0.024444444,0.057777778,1,0,0,response1disk,32,0.005555556,-0.008888889,1,0,0,center_square,0,31,31,119,1,,,,,,,,,,,,,,,,,,,,,,,
007056,001,2022-11-14_24h27.03.596,Info_measure_main_exp,2022.2.2,Win32,59.86948452,,,,,,,,,,,,,,,,,,masks/mask_004.jpg,,,,,,,,,,,,,,,,,,,,,,,,,,,,,,,,,,,,,,,,,,,0,0,0,3,1,,,,,,,,,,,,,,,,,,,,,,,,,,,,,,,,,,,,,,,,,,,,,,
007056,001,2022-11-14_24h27.03.596,Info_measure_main_exp,2022.2.2,Win32,59.86948452,,,,,,,,,,,,,,,,,,masks/mask_002.jpg,,,,,,,,,,,,,,,,,,,,,,,,,,,,,,,,,,,,,,,,,,,0,1,1,1,1,,,,,,,,,,,,,,,,,,,,,,,,,,,,,,,,,,,,,,,,,,,,,,
007056,001,2022-11-14_24h27.03.596,Info_measure_main_exp,2022.2.2,Win32,59.86948452,,,,,,,,,,,,,,,,,,masks/mask_003.jpg,,,,,,,,,,,,,,,,,,,,,,,,,,,,,,,,,,,,,,,,,,,0,2,2,2,1,,,,,,,,,,,,,,,,,,,,,,,,,,,,,,,,,,,,,,,,,,,,,,
007056,001,2022-11-14_24h27.03.596,Info_measure_main_exp,2022.2.2,Win32,59.86948452,,,,,,,,,,,,,,,,,,masks/mask_001.jpg,,,,,,,,,,,,,,,,,,,,,,,,,,,,,,,,,,,,,,,,,,,0,3,3,0,1,,,,,,,,,,,,,,,,,,,,,,,,,,,,,,,,,,,,,,,,,,,,,,
007056,001,2022-11-14_24h27.03.596,Info_measure_main_exp,2022.2.2,Win32,59.86948452,,,,,,,,,,,,,,,,,,masks/mask_005.jpg,,,,,,,,,,,,,,,,,,,,,,,,,,,,,,,,,,,,,,,,,,,0,4,4,4,1,,,,,,,,,,,,,,,,,,,,,,,,,,,,,,,,,,,,,,,,,,,,,,
007056,001,2022-11-14_24h27.03.596,Info_measure_main_exp,2022.2.2,Win32,59.86948452,,,,,,,,,,,,,,,,,,masks/mask_001.jpg,,,,,,,,,,,,,,,,,,,,,,,,,,,,,,,,,,,,,,,,,,,,,,,,0,0,0,0,1,,,,,,,,,,,,,,,,,,,,,,,,,,,,,,,,,,,,,,,,,
007056,001,2022-11-14_24h27.03.596,Info_measure_main_exp,2022.2.2,Win32,59.86948452,,,,,,,,,,,,,,,,,,masks/mask_003.jpg,,,,,,,,,,,,,,,,,,,,,,,,,,,,,,,,,,,,,,,,,,,,,,,,0,1,1,2,1,,,,,,,,,,,,,,,,,,,,,,,,,,,,,,,,,,,,,,,,,
007056,001,2022-11-14_24h27.03.596,Info_measure_main_exp,2022.2.2,Win32,59.86948452,,,,,,,,,,,,,,,,,,masks/mask_005.jpg,,,,,,,,,,,,,,,,,,,,,,,,,,,,,,,,,,,,,,,,,,,,,,,,0,2,2,4,1,,,,,,,,,,,,,,,,,,,,,,,,,,,,,,,,,,,,,,,,,
007056,001,2022-11-14_24h27.03.596,Info_measure_main_exp,2022.2.2,Win32,59.86948452,,,,,,,,,,,,,,,,,,masks/mask_004.jpg,,,,,,,,,,,,,,,,,,,,,,,,,,,,,,,,,,,,,,,,,,,,,,,,0,3,3,3,1,,,,,,,,,,,,,,,,,,,,,,,,,,,,,,,,,,,,,,,,,
007056,001,2022-11-14_24h27.03.596,Info_measure_main_exp,2022.2.2,Win32,59.86948452,,,,,,,,,,,,,,,,,,masks/mask_002.jpg,,,,,,,,,,,,,,,,,,,,,,,,,,,,,,,,,,,,,,,,,,,,,,,,0,4,4,1,1,,,,,,,,,,,,,,,,,,,,,,,,,,,,,,,,,,,,,,,,,
007056,001,2022-11-14_24h27.03.596,Info_measure_main_exp,2022.2.2,Win32,59.86948452,,,,,,,,,,,,,,,,,,,,,,,,,,,,,,7,1.1488,1,,,,,,,,,,,,1,131,5,5,2250,1,absent_patch/patch0002250.jpg,present_patch/cong_131_5_a.jpg,,,,,,,,,,,,,,,,,,,,0.048888889,0.081111111,1,0,0,response1disk,33,0.004444444,0.007777778,1,0,0,center_square,0,32,32,5,1,,,,,,,,,,,,,,,,,,,,,,,
007056,001,2022-11-14_24h27.03.596,Info_measure_main_exp,2022.2.2,Win32,59.86948452,,,,,,,,,,,,,,,,,,masks/mask_001.jpg,,,,,,,,,,,,,,,,,,,,,,,,,,,,,,,,,,,,,,,,,,,0,0,0,0,1,,,,,,,,,,,,,,,,,,,,,,,,,,,,,,,,,,,,,,,,,,,,,,
007056,001,2022-11-14_24h27.03.596,Info_measure_main_exp,2022.2.2,Win32,59.86948452,,,,,,,,,,,,,,,,,,masks/mask_005.jpg,,,,,,,,,,,,,,,,,,,,,,,,,,,,,,,,,,,,,,,,,,,0,1,1,4,1,,,,,,,,,,,,,,,,,,,,,,,,,,,,,,,,,,,,,,,,,,,,,,
007056,001,2022-11-14_24h27.03.596,Info_measure_main_exp,2022.2.2,Win32,59.86948452,,,,,,,,,,,,,,,,,,masks/mask_004.jpg,,,,,,,,,,,,,,,,,,,,,,,,,,,,,,,,,,,,,,,,,,,0,2,2,3,1,,,,,,,,,,,,,,,,,,,,,,,,,,,,,,,,,,,,,,,,,,,,,,
007056,001,2022-11-14_24h27.03.596,Info_measure_main_exp,2022.2.2,Win32,59.86948452,,,,,,,,,,,,,,,,,,masks/mask_003.jpg,,,,,,,,,,,,,,,,,,,,,,,,,,,,,,,,,,,,,,,,,,,0,3,3,2,1,,,,,,,,,,,,,,,,,,,,,,,,,,,,,,,,,,,,,,,,,,,,,,
007056,001,2022-11-14_24h27.03.596,Info_measure_main_exp,2022.2.2,Win32,59.86948452,,,,,,,,,,,,,,,,,,masks/mask_002.jpg,,,,,,,,,,,,,,,,,,,,,,,,,,,,,,,,,,,,,,,,,,,0,4,4,1,1,,,,,,,,,,,,,,,,,,,,,,,,,,,,,,,,,,,,,,,,,,,,,,
007056,001,2022-11-14_24h27.03.596,Info_measure_main_exp,2022.2.2,Win32,59.86948452,,,,,,,,,,,,,,,,,,masks/mask_001.jpg,,,,,,,,,,,,,,,,,,,,,,,,,,,,,,,,,,,,,,,,,,,,,,,,0,0,0,0,1,,,,,,,,,,,,,,,,,,,,,,,,,,,,,,,,,,,,,,,,,
007056,001,2022-11-14_24h27.03.596,Info_measure_main_exp,2022.2.2,Win32,59.86948452,,,,,,,,,,,,,,,,,,masks/mask_004.jpg,,,,,,,,,,,,,,,,,,,,,,,,,,,,,,,,,,,,,,,,,,,,,,,,0,1,1,3,1,,,,,,,,,,,,,,,,,,,,,,,,,,,,,,,,,,,,,,,,,
007056,001,2022-11-14_24h27.03.596,Info_measure_main_exp,2022.2.2,Win32,59.86948452,,,,,,,,,,,,,,,,,,masks/mask_003.jpg,,,,,,,,,,,,,,,,,,,,,,,,,,,,,,,,,,,,,,,,,,,,,,,,0,2,2,2,1,,,,,,,,,,,,,,,,,,,,,,,,,,,,,,,,,,,,,,,,,
007056,001,2022-11-14_24h27.03.596,Info_measure_main_exp,2022.2.2,Win32,59.86948452,,,,,,,,,,,,,,,,,,masks/mask_002.jpg,,,,,,,,,,,,,,,,,,,,,,,,,,,,,,,,,,,,,,,,,,,,,,,,0,3,3,1,1,,,,,,,,,,,,,,,,,,,,,,,,,,,,,,,,,,,,,,,,,
007056,001,2022-11-14_24h27.03.596,Info_measure_main_exp,2022.2.2,Win32,59.86948452,,,,,,,,,,,,,,,,,,masks/mask_005.jpg,,,,,,,,,,,,,,,,,,,,,,,,,,,,,,,,,,,,,,,,,,,,,,,,0,4,4,4,1,,,,,,,,,,,,,,,,,,,,,,,,,,,,,,,,,,,,,,,,,
007056,001,2022-11-14_24h27.03.596,Info_measure_main_exp,2022.2.2,Win32,59.86948452,,,,,,,,,,,,,,,,,,,,,,,,,,,,,,1,2.207,1,,,,,,,,,,,,0,131,5,5,2082,1974,absent_patch/patch0002082.jpg,absent_patch/patch0001974.jpg,,,,,,,,,,,,,,,,,,,,-0.124444444,0.028888889,1,0,0,response7disk,34,-0.002222222,-0.005555556,1,0,0,center_square,0,33,33,26,1,,,,,,,,,,,,,,,,,,,,,,,
007056,001,2022-11-14_24h27.03.596,Info_measure_main_exp,2022.2.2,Win32,59.86948452,,,,,,,,,,,,,,,,,,masks/mask_005.jpg,,,,,,,,,,,,,,,,,,,,,,,,,,,,,,,,,,,,,,,,,,,0,0,0,4,1,,,,,,,,,,,,,,,,,,,,,,,,,,,,,,,,,,,,,,,,,,,,,,
007056,001,2022-11-14_24h27.03.596,Info_measure_main_exp,2022.2.2,Win32,59.86948452,,,,,,,,,,,,,,,,,,masks/mask_003.jpg,,,,,,,,,,,,,,,,,,,,,,,,,,,,,,,,,,,,,,,,,,,0,1,1,2,1,,,,,,,,,,,,,,,,,,,,,,,,,,,,,,,,,,,,,,,,,,,,,,
007056,001,2022-11-14_24h27.03.596,Info_measure_main_exp,2022.2.2,Win32,59.86948452,,,,,,,,,,,,,,,,,,masks/mask_004.jpg,,,,,,,,,,,,,,,,,,,,,,,,,,,,,,,,,,,,,,,,,,,0,2,2,3,1,,,,,,,,,,,,,,,,,,,,,,,,,,,,,,,,,,,,,,,,,,,,,,
007056,001,2022-11-14_24h27.03.596,Info_measure_main_exp,2022.2.2,Win32,59.86948452,,,,,,,,,,,,,,,,,,masks/mask_001.jpg,,,,,,,,,,,,,,,,,,,,,,,,,,,,,,,,,,,,,,,,,,,0,3,3,0,1,,,,,,,,,,,,,,,,,,,,,,,,,,,,,,,,,,,,,,,,,,,,,,
007056,001,2022-11-14_24h27.03.596,Info_measure_main_exp,2022.2.2,Win32,59.86948452,,,,,,,,,,,,,,,,,,masks/mask_002.jpg,,,,,,,,,,,,,,,,,,,,,,,,,,,,,,,,,,,,,,,,,,,0,4,4,1,1,,,,,,,,,,,,,,,,,,,,,,,,,,,,,,,,,,,,,,,,,,,,,,
007056,001,2022-11-14_24h27.03.596,Info_measure_main_exp,2022.2.2,Win32,59.86948452,,,,,,,,,,,,,,,,,,masks/mask_002.jpg,,,,,,,,,,,,,,,,,,,,,,,,,,,,,,,,,,,,,,,,,,,,,,,,0,0,0,1,1,,,,,,,,,,,,,,,,,,,,,,,,,,,,,,,,,,,,,,,,,
007056,001,2022-11-14_24h27.03.596,Info_measure_main_exp,2022.2.2,Win32,59.86948452,,,,,,,,,,,,,,,,,,masks/mask_004.jpg,,,,,,,,,,,,,,,,,,,,,,,,,,,,,,,,,,,,,,,,,,,,,,,,0,1,1,3,1,,,,,,,,,,,,,,,,,,,,,,,,,,,,,,,,,,,,,,,,,
007056,001,2022-11-14_24h27.03.596,Info_measure_main_exp,2022.2.2,Win32,59.86948452,,,,,,,,,,,,,,,,,,masks/mask_001.jpg,,,,,,,,,,,,,,,,,,,,,,,,,,,,,,,,,,,,,,,,,,,,,,,,0,2,2,0,1,,,,,,,,,,,,,,,,,,,,,,,,,,,,,,,,,,,,,,,,,
007056,001,2022-11-14_24h27.03.596,Info_measure_main_exp,2022.2.2,Win32,59.86948452,,,,,,,,,,,,,,,,,,masks/mask_003.jpg,,,,,,,,,,,,,,,,,,,,,,,,,,,,,,,,,,,,,,,,,,,,,,,,0,3,3,2,1,,,,,,,,,,,,,,,,,,,,,,,,,,,,,,,,,,,,,,,,,
