participant,session,date,expName,psychopyVersion,OS,frameRate,space_press_continue.keys,space_press_continue.rt,space_press_continue_2.keys,space_press_continue_2.rt,space_press_continue_3.keys,space_press_continue_3.rt,space_press_continue_4.keys,space_press_continue_4.rt,space_press_continue_5.keys,space_press_continue_5.rt,space_press_continue_6.keys,space_press_continue_6.rt,prac_mask_loop_1.thisRepN,prac_mask_loop_1.thisTrialN,prac_mask_loop_1.thisN,prac_mask_loop_1.thisIndex,prac_mask_loop_1.ran,mask_name,prac_mask_loop_2.thisRepN,prac_mask_loop_2.thisTrialN,prac_mask_loop_2.thisN,prac_mask_loop_2.thisIndex,prac_mask_loop_2.ran,mouse_2.x,mouse_2.y,mouse_2.leftButton,mouse_2.midButton,mouse_2.rightButton,mouse_2.clicked_name,similarity,response_time,Pass,mouse_12.x,mouse_12.y,mouse_12.leftButton,mouse_12.midButton,mouse_12.rightButton,mouse_12.clicked_name,prac_loop.thisRepN,prac_loop.thisTrialN,prac_loop.thisN,prac_loop.thisIndex,prac_loop.ran,Pair_type,Image_num,Patch_1_loc,Patch_2_loc,Patch_1_info,Patch_2_info,Patch_1_name,Patch_2_name,mouse_1.x,mouse_1.y,mouse_1.leftButton,mouse_1.midButton,mouse_1.rightButton,mouse_1.time,mouse_1.clicked_name,space_press_continue_7.keys,space_press_continue_7.rt,mask_loop.thisRepN,mask_loop.thisTrialN,mask_loop.thisN,mask_loop.thisIndex,mask_loop.ran,mask_loop_2.thisRepN,mask_loop_2.thisTrialN,mask_loop_2.thisN,mask_loop_2.thisIndex,mask_loop_2.ran,mouse.x,mouse.y,mouse.leftButton,mouse.midButton,mouse.rightButton,mouse.clicked_name,trialNumber,mouse_11.x,mouse_11.y,mouse_11.leftButton,mouse_11.midButton,mouse_11.rightButton,mouse_11.clicked_name,first_pass_loop.thisRepN,first_pass_loop.thisTrialN,first_pass_loop.thisN,first_pass_loop.thisIndex,first_pass_loop.ran,mask_loop_3.thisRepN,mask_loop_3.thisTrialN,mask_loop_3.thisN,mask_loop_3.thisIndex,mask_loop_3.ran,mask_loop_4.thisRepN,mask_loop_4.thisTrialN,mask_loop_4.thisN,mask_loop_4.thisIndex,mask_loop_4.ran,mouse_3.x,mouse_3.y,mouse_3.leftButton,mouse_3.midButton,mouse_3.rightButton,mouse_3.clicked_name,double_pass_loop.thisRepN,double_pass_loop.thisTrialN,double_pass_loop.thisN,double_pass_loop.thisIndex,double_pass_loop.ran,space_exit.keys,space_exit.rt
017479,001,2022-11-20_17h50.26.870,Info_measure_main_exp,2022.2.2,Win32,19.89693388,,,,,,,,,,,,,,,,,,,,,,,,,,,,,,,,,,,,,,,,,,,,,,,,,,,,,,,,,,,,,,,,,,,,,,,,,,,,,,,,,,,,,,,,,,,,,,,,,,,,,,,,,,,,,,,
017479,001,2022-11-20_17h50.26.870,Info_measure_main_exp,2022.2.2,Win32,19.89693388,,,,,,,,,,,,,,,,,,,,,,,,,,,,,,,,,,,,,,,,,,,,,,,,,,,,,,,,,,,,,,,,,,,,,,,,,,,,,,,,,,,,,,,,,,,,,,,,,,,,,,,,,,,,,,,
017479,001,2022-11-20_17h50.26.870,Info_measure_main_exp,2022.2.2,Win32,19.89693388,space,11.9404,,,,,,,,,,,,,,,,,,,,,,,,,,,,,,,,,,,,,,,,,,,,,,,,,,,,,,,,,,,,,,,,,,,,,,,,,,,,,,,,,,,,,,,,,,,,,,,,,,,,,,,,,,,,,
017479,001,2022-11-20_17h50.26.870,Info_measure_main_exp,2022.2.2,Win32,19.89693388,,,space,21.2312,,,,,,,,,,,,,,,,,,,,,,,,,,,,,,,,,,,,,,,,,,,,,,,,,,,,,,,,,,,,,,,,,,,,,,,,,,,,,,,,,,,,,,,,,,,,,,,,,,,,,,,,,,,
017479,001,2022-11-20_17h50.26.870,Info_measure_main_exp,2022.2.2,Win32,19.89693388,,,,,space,6.4243,,,,,,,,,,,,,,,,,,,,,,,,,,,,,,,,,,,,,,,,,,,,,,,,,,,,,,,,,,,,,,,,,,,,,,,,,,,,,,,,,,,,,,,,,,,,,,,,,,,,,,,,,
017479,001,2022-11-20_17h50.26.870,Info_measure_main_exp,2022.2.2,Win32,19.89693388,,,,,,,space,15.2731,,,,,,,,,,,,,,,,,,,,,,,,,,,,,,,,,,,,,,,,,,,,,,,,,,,,,,,,,,,,,,,,,,,,,,,,,,,,,,,,,,,,,,,,,,,,,,,,,,,,,,,
017479,001,2022-11-20_17h50.26.870,Info_measure_main_exp,2022.2.2,Win32,19.89693388,,,,,,,,,space,12.0581,,,,,,,,,,,,,,,,,,,,,,,,,,,,,,,,,,,,,,,,,,,,,,,,,,,,,,,,,,,,,,,,,,,,,,,,,,,,,,,,,,,,,,,,,,,,,,,,,,,,,
017479,001,2022-11-20_17h50.26.870,Info_measure_main_exp,2022.2.2,Win32,19.89693388,,,,,,,,,,,space,5.5804,,,,,,,,,,,,,,,,,,,,,,,,,,,,,,,,,,,,,,,,,,,,,,,,,,,,,,,,,,,,,,,,,,,,,,,,,,,,,,,,,,,,,,,,,,,,,,,,,,,
017479,001,2022-11-20_17h50.26.870,Info_measure_main_exp,2022.2.2,Win32,19.89693388,,,,,,,,,,,,,0,0,0,2,1,masks/mask_003.jpg,,,,,,,,,,,,,,,,,,,,,,,,,,,,,,,,,,,,,,,,,,,,,,,,,,,,,,,,,,,,,,,,,,,,,,,,,,,,,,,,,,,,,,,,,,,,,
017479,001,2022-11-20_17h50.26.870,Info_measure_main_exp,2022.2.2,Win32,19.89693388,,,,,,,,,,,,,0,1,1,1,1,masks/mask_002.jpg,,,,,,,,,,,,,,,,,,,,,,,,,,,,,,,,,,,,,,,,,,,,,,,,,,,,,,,,,,,,,,,,,,,,,,,,,,,,,,,,,,,,,,,,,,,,,
017479,001,2022-11-20_17h50.26.870,Info_measure_main_exp,2022.2.2,Win32,19.89693388,,,,,,,,,,,,,0,2,2,4,1,masks/mask_005.jpg,,,,,,,,,,,,,,,,,,,,,,,,,,,,,,,,,,,,,,,,,,,,,,,,,,,,,,,,,,,,,,,,,,,,,,,,,,,,,,,,,,,,,,,,,,,,,
017479,001,2022-11-20_17h50.26.870,Info_measure_main_exp,2022.2.2,Win32,19.89693388,,,,,,,,,,,,,0,3,3,3,1,masks/mask_004.jpg,,,,,,,,,,,,,,,,,,,,,,,,,,,,,,,,,,,,,,,,,,,,,,,,,,,,,,,,,,,,,,,,,,,,,,,,,,,,,,,,,,,,,,,,,,,,,
017479,001,2022-11-20_17h50.26.870,Info_measure_main_exp,2022.2.2,Win32,19.89693388,,,,,,,,,,,,,0,4,4,0,1,masks/mask_001.jpg,,,,,,,,,,,,,,,,,,,,,,,,,,,,,,,,,,,,,,,,,,,,,,,,,,,,,,,,,,,,,,,,,,,,,,,,,,,,,,,,,,,,,,,,,,,,,
017479,001,2022-11-20_17h50.26.870,Info_measure_main_exp,2022.2.2,Win32,19.89693388,,,,,,,,,,,,,,,,,,masks/mask_003.jpg,0,0,0,2,1,,,,,,,,,,,,,,,,,,,,,,,,,,,,,,,,,,,,,,,,,,,,,,,,,,,,,,,,,,,,,,,,,,,,,,,,,,,,,,,,,,,,,,,,
017479,001,2022-11-20_17h50.26.870,Info_measure_main_exp,2022.2.2,Win32,19.89693388,,,,,,,,,,,,,,,,,,masks/mask_002.jpg,0,1,1,1,1,,,,,,,,,,,,,,,,,,,,,,,,,,,,,,,,,,,,,,,,,,,,,,,,,,,,,,,,,,,,,,,,,,,,,,,,,,,,,,,,,,,,,,,,
017479,001,2022-11-20_17h50.26.870,Info_measure_main_exp,2022.2.2,Win32,19.89693388,,,,,,,,,,,,,,,,,,masks/mask_004.jpg,0,2,2,3,1,,,,,,,,,,,,,,,,,,,,,,,,,,,,,,,,,,,,,,,,,,,,,,,,,,,,,,,,,,,,,,,,,,,,,,,,,,,,,,,,,,,,,,,,
017479,001,2022-11-20_17h50.26.870,Info_measure_main_exp,2022.2.2,Win32,19.89693388,,,,,,,,,,,,,,,,,,masks/mask_001.jpg,0,3,3,0,1,,,,,,,,,,,,,,,,,,,,,,,,,,,,,,,,,,,,,,,,,,,,,,,,,,,,,,,,,,,,,,,,,,,,,,,,,,,,,,,,,,,,,,,,
017479,001,2022-11-20_17h50.26.870,Info_measure_main_exp,2022.2.2,Win32,19.89693388,,,,,,,,,,,,,,,,,,masks/mask_005.jpg,0,4,4,4,1,,,,,,,,,,,,,,,,,,,,,,,,,,,,,,,,,,,,,,,,,,,,,,,,,,,,,,,,,,,,,,,,,,,,,,,,,,,,,,,,,,,,,,,,
017479,001,2022-11-20_17h50.26.870,Info_measure_main_exp,2022.2.2,Win32,19.89693388,,,,,,,,,,,,,,,,,,,,,,,,-0.139322917,0.045572917,1,0,0,response7disk,1,86.4877,1,0.002604167,-0.001302083,1,0,0,center_square,0,0,0,2,1,0,131,5,5,2526,2526,prac_patch/patch0002526.jpg,prac_patch/patch0002526.jpg,,,,,,,,,,,,,,,,,,,,,,,,,,,,,,,,,,,,,,,,,,,,,,,,,,,,,,,,,,,,
017479,001,2022-11-20_17h50.26.870,Info_measure_main_exp,2022.2.2,Win32,19.89693388,,,,,,,,,,,,,0,0,0,4,1,masks/mask_005.jpg,,,,,,,,,,,,,,,,,,,,,,,,,,,,,,,,,,,,,,,,,,,,,,,,,,,,,,,,,,,,,,,,,,,,,,,,,,,,,,,,,,,,,,,,,,,,,
017479,001,2022-11-20_17h50.26.870,Info_measure_main_exp,2022.2.2,Win32,19.89693388,,,,,,,,,,,,,0,1,1,1,1,masks/mask_002.jpg,,,,,,,,,,,,,,,,,,,,,,,,,,,,,,,,,,,,,,,,,,,,,,,,,,,,,,,,,,,,,,,,,,,,,,,,,,,,,,,,,,,,,,,,,,,,,
017479,001,2022-11-20_17h50.26.870,Info_measure_main_exp,2022.2.2,Win32,19.89693388,,,,,,,,,,,,,0,2,2,3,1,masks/mask_004.jpg,,,,,,,,,,,,,,,,,,,,,,,,,,,,,,,,,,,,,,,,,,,,,,,,,,,,,,,,,,,,,,,,,,,,,,,,,,,,,,,,,,,,,,,,,,,,,
017479,001,2022-11-20_17h50.26.870,Info_measure_main_exp,2022.2.2,Win32,19.89693388,,,,,,,,,,,,,0,3,3,2,1,masks/mask_003.jpg,,,,,,,,,,,,,,,,,,,,,,,,,,,,,,,,,,,,,,,,,,,,,,,,,,,,,,,,,,,,,,,,,,,,,,,,,,,,,,,,,,,,,,,,,,,,,
017479,001,2022-11-20_17h50.26.870,Info_measure_main_exp,2022.2.2,Win32,19.89693388,,,,,,,,,,,,,0,4,4,0,1,masks/mask_001.jpg,,,,,,,,,,,,,,,,,,,,,,,,,,,,,,,,,,,,,,,,,,,,,,,,,,,,,,,,,,,,,,,,,,,,,,,,,,,,,,,,,,,,,,,,,,,,,
017479,001,2022-11-20_17h50.26.870,Info_measure_main_exp,2022.2.2,Win32,19.89693388,,,,,,,,,,,,,,,,,,masks/mask_004.jpg,0,0,0,3,1,,,,,,,,,,,,,,,,,,,,,,,,,,,,,,,,,,,,,,,,,,,,,,,,,,,,,,,,,,,,,,,,,,,,,,,,,,,,,,,,,,,,,,,,
017479,001,2022-11-20_17h50.26.870,Info_measure_main_exp,2022.2.2,Win32,19.89693388,,,,,,,,,,,,,,,,,,masks/mask_003.jpg,0,1,1,2,1,,,,,,,,,,,,,,,,,,,,,,,,,,,,,,,,,,,,,,,,,,,,,,,,,,,,,,,,,,,,,,,,,,,,,,,,,,,,,,,,,,,,,,,,
017479,001,2022-11-20_17h50.26.870,Info_measure_main_exp,2022.2.2,Win32,19.89693388,,,,,,,,,,,,,,,,,,masks/mask_001.jpg,0,2,2,0,1,,,,,,,,,,,,,,,,,,,,,,,,,,,,,,,,,,,,,,,,,,,,,,,,,,,,,,,,,,,,,,,,,,,,,,,,,,,,,,,,,,,,,,,,
017479,001,2022-11-20_17h50.26.870,Info_measure_main_exp,2022.2.2,Win32,19.89693388,,,,,,,,,,,,,,,,,,masks/mask_005.jpg,0,3,3,4,1,,,,,,,,,,,,,,,,,,,,,,,,,,,,,,,,,,,,,,,,,,,,,,,,,,,,,,,,,,,,,,,,,,,,,,,,,,,,,,,,,,,,,,,,
017479,001,2022-11-20_17h50.26.870,Info_measure_main_exp,2022.2.2,Win32,19.89693388,,,,,,,,,,,,,,,,,,masks/mask_002.jpg,0,4,4,1,1,,,,,,,,,,,,,,,,,,,,,,,,,,,,,,,,,,,,,,,,,,,,,,,,,,,,,,,,,,,,,,,,,,,,,,,,,,,,,,,,,,,,,,,,
017479,001,2022-11-20_17h50.26.870,Info_measure_main_exp,2022.2.2,Win32,19.89693388,,,,,,,,,,,,,,,,,,,,,,,,0.15625,0.03515625,1,0,0,response1disk,6,102.8232,1,-0.002604167,0,1,0,0,center_square,0,1,1,0,1,0,131,5,5,2370,2406,prac_patch/patch0002370.jpg,prac_patch/patch0002406.jpg,,,,,,,,,,,,,,,,,,,,,,,,,,,,,,,,,,,,,,,,,,,,,,,,,,,,,,,,,,,,
017479,001,2022-11-20_17h50.26.870,Info_measure_main_exp,2022.2.2,Win32,19.89693388,,,,,,,,,,,,,0,0,0,2,1,masks/mask_003.jpg,,,,,,,,,,,,,,,,,,,,,,,,,,,,,,,,,,,,,,,,,,,,,,,,,,,,,,,,,,,,,,,,,,,,,,,,,,,,,,,,,,,,,,,,,,,,,
017479,001,2022-11-20_17h50.26.870,Info_measure_main_exp,2022.2.2,Win32,19.89693388,,,,,,,,,,,,,0,1,1,3,1,masks/mask_004.jpg,,,,,,,,,,,,,,,,,,,,,,,,,,,,,,,,,,,,,,,,,,,,,,,,,,,,,,,,,,,,,,,,,,,,,,,,,,,,,,,,,,,,,,,,,,,,,
017479,001,2022-11-20_17h50.26.870,Info_measure_main_exp,2022.2.2,Win32,19.89693388,,,,,,,,,,,,,0,2,2,1,1,masks/mask_002.jpg,,,,,,,,,,,,,,,,,,,,,,,,,,,,,,,,,,,,,,,,,,,,,,,,,,,,,,,,,,,,,,,,,,,,,,,,,,,,,,,,,,,,,,,,,,,,,
017479,001,2022-11-20_17h50.26.870,Info_measure_main_exp,2022.2.2,Win32,19.89693388,,,,,,,,,,,,,0,3,3,0,1,masks/mask_001.jpg,,,,,,,,,,,,,,,,,,,,,,,,,,,,,,,,,,,,,,,,,,,,,,,,,,,,,,,,,,,,,,,,,,,,,,,,,,,,,,,,,,,,,,,,,,,,,
017479,001,2022-11-20_17h50.26.870,Info_measure_main_exp,2022.2.2,Win32,19.89693388,,,,,,,,,,,,,0,4,4,4,1,masks/mask_005.jpg,,,,,,,,,,,,,,,,,,,,,,,,,,,,,,,,,,,,,,,,,,,,,,,,,,,,,,,,,,,,,,,,,,,,,,,,,,,,,,,,,,,,,,,,,,,,,
017479,001,2022-11-20_17h50.26.870,Info_measure_main_exp,2022.2.2,Win32,19.89693388,,,,,,,,,,,,,,,,,,masks/mask_003.jpg,0,0,0,2,1,,,,,,,,,,,,,,,,,,,,,,,,,,,,,,,,,,,,,,,,,,,,,,,,,,,,,,,,,,,,,,,,,,,,,,,,,,,,,,,,,,,,,,,,
017479,001,2022-11-20_17h50.26.870,Info_measure_main_exp,2022.2.2,Win32,19.89693388,,,,,,,,,,,,,,,,,,masks/mask_004.jpg,0,1,1,3,1,,,,,,,,,,,,,,,,,,,,,,,,,,,,,,,,,,,,,,,,,,,,,,,,,,,,,,,,,,,,,,,,,,,,,,,,,,,,,,,,,,,,,,,,
017479,001,2022-11-20_17h50.26.870,Info_measure_main_exp,2022.2.2,Win32,19.89693388,,,,,,,,,,,,,,,,,,masks/mask_005.jpg,0,2,2,4,1,,,,,,,,,,,,,,,,,,,,,,,,,,,,,,,,,,,,,,,,,,,,,,,,,,,,,,,,,,,,,,,,,,,,,,,,,,,,,,,,,,,,,,,,
017479,001,2022-11-20_17h50.26.870,Info_measure_main_exp,2022.2.2,Win32,19.89693388,,,,,,,,,,,,,,,,,,masks/mask_001.jpg,0,3,3,0,1,,,,,,,,,,,,,,,,,,,,,,,,,,,,,,,,,,,,,,,,,,,,,,,,,,,,,,,,,,,,,,,,,,,,,,,,,,,,,,,,,,,,,,,,
017479,001,2022-11-20_17h50.26.870,Info_measure_main_exp,2022.2.2,Win32,19.89693388,,,,,,,,,,,,,,,,,,masks/mask_002.jpg,0,4,4,1,1,,,,,,,,,,,,,,,,,,,,,,,,,,,,,,,,,,,,,,,,,,,,,,,,,,,,,,,,,,,,,,,,,,,,,,,,,,,,,,,,,,,,,,,,
017479,001,2022-11-20_17h50.26.870,Info_measure_main_exp,2022.2.2,Win32,19.89693388,,,,,,,,,,,,,,,,,,,,,,,,-0.046875,-0.1640625,1,0,0,response5disk,3,113.3564,1,0,-0.005208333,1,0,0,center_square,0,2,2,1,1,0,131,5,5,2514,2490,prac_patch/patch0002514.jpg,prac_patch/patch0002490.jpg,,,,,,,,,,,,,,,,,,,,,,,,,,,,,,,,,,,,,,,,,,,,,,,,,,,,,,,,,,,,
017479,001,2022-11-20_17h50.26.870,Info_measure_main_exp,2022.2.2,Win32,19.89693388,,,,,,,,,,,,,,,,,,,,,,,,,,,,,,,,,,,,,,,,,,,,,,,,,,,,,,,,,,,space,4.3588,,,,,,,,,,,,,,,,,,,,,,,,,,,,,,,,,,,,,,,,,,,,,,,,,,,
017479,001,2022-11-20_17h50.26.870,Info_measure_main_exp,2022.2.2,Win32,19.89693388,,,,,,,,,,,,,,,,,,masks/mask_002.jpg,,,,,,,,,,,,,,,,,,,,,,,,,,,,,,,,,,,,,,,,,,,0,0,0,1,1,,,,,,,,,,,,,,,,,,,,,,,,,,,,,,,,,,,,,,,,,,,,,,
017479,001,2022-11-20_17h50.26.870,Info_measure_main_exp,2022.2.2,Win32,19.89693388,,,,,,,,,,,,,,,,,,masks/mask_005.jpg,,,,,,,,,,,,,,,,,,,,,,,,,,,,,,,,,,,,,,,,,,,0,1,1,4,1,,,,,,,,,,,,,,,,,,,,,,,,,,,,,,,,,,,,,,,,,,,,,,
017479,001,2022-11-20_17h50.26.870,Info_measure_main_exp,2022.2.2,Win32,19.89693388,,,,,,,,,,,,,,,,,,masks/mask_001.jpg,,,,,,,,,,,,,,,,,,,,,,,,,,,,,,,,,,,,,,,,,,,0,2,2,0,1,,,,,,,,,,,,,,,,,,,,,,,,,,,,,,,,,,,,,,,,,,,,,,
017479,001,2022-11-20_17h50.26.870,Info_measure_main_exp,2022.2.2,Win32,19.89693388,,,,,,,,,,,,,,,,,,masks/mask_003.jpg,,,,,,,,,,,,,,,,,,,,,,,,,,,,,,,,,,,,,,,,,,,0,3,3,2,1,,,,,,,,,,,,,,,,,,,,,,,,,,,,,,,,,,,,,,,,,,,,,,
017479,001,2022-11-20_17h50.26.870,Info_measure_main_exp,2022.2.2,Win32,19.89693388,,,,,,,,,,,,,,,,,,masks/mask_004.jpg,,,,,,,,,,,,,,,,,,,,,,,,,,,,,,,,,,,,,,,,,,,0,4,4,3,1,,,,,,,,,,,,,,,,,,,,,,,,,,,,,,,,,,,,,,,,,,,,,,
017479,001,2022-11-20_17h50.26.870,Info_measure_main_exp,2022.2.2,Win32,19.89693388,,,,,,,,,,,,,,,,,,masks/mask_003.jpg,,,,,,,,,,,,,,,,,,,,,,,,,,,,,,,,,,,,,,,,,,,,,,,,0,0,0,2,1,,,,,,,,,,,,,,,,,,,,,,,,,,,,,,,,,,,,,,,,,
017479,001,2022-11-20_17h50.26.870,Info_measure_main_exp,2022.2.2,Win32,19.89693388,,,,,,,,,,,,,,,,,,masks/mask_005.jpg,,,,,,,,,,,,,,,,,,,,,,,,,,,,,,,,,,,,,,,,,,,,,,,,0,1,1,4,1,,,,,,,,,,,,,,,,,,,,,,,,,,,,,,,,,,,,,,,,,
017479,001,2022-11-20_17h50.26.870,Info_measure_main_exp,2022.2.2,Win32,19.89693388,,,,,,,,,,,,,,,,,,masks/mask_002.jpg,,,,,,,,,,,,,,,,,,,,,,,,,,,,,,,,,,,,,,,,,,,,,,,,0,2,2,1,1,,,,,,,,,,,,,,,,,,,,,,,,,,,,,,,,,,,,,,,,,
017479,001,2022-11-20_17h50.26.870,Info_measure_main_exp,2022.2.2,Win32,19.89693388,,,,,,,,,,,,,,,,,,masks/mask_004.jpg,,,,,,,,,,,,,,,,,,,,,,,,,,,,,,,,,,,,,,,,,,,,,,,,0,3,3,3,1,,,,,,,,,,,,,,,,,,,,,,,,,,,,,,,,,,,,,,,,,
017479,001,2022-11-20_17h50.26.870,Info_measure_main_exp,2022.2.2,Win32,19.89693388,,,,,,,,,,,,,,,,,,masks/mask_001.jpg,,,,,,,,,,,,,,,,,,,,,,,,,,,,,,,,,,,,,,,,,,,,,,,,0,4,4,0,1,,,,,,,,,,,,,,,,,,,,,,,,,,,,,,,,,,,,,,,,,
017479,001,2022-11-20_17h50.26.870,Info_measure_main_exp,2022.2.2,Win32,19.89693388,,,,,,,,,,,,,,,,,,,,,,,,,,,,,,6,2.7527,1,,,,,,,,,,,,0,131,5,5,2178,2238,absent_patch/patch0002178.jpg,absent_patch/patch0002238.jpg,,,,,,,,,,,,,,,,,,,,0.158854167,0.0390625,1,0,0,response1disk,1,0.001302083,0,1,0,0,center_square,0,0,0,57,1,,,,,,,,,,,,,,,,,,,,,,,
017479,001,2022-11-20_17h50.26.870,Info_measure_main_exp,2022.2.2,Win32,19.89693388,,,,,,,,,,,,,,,,,,masks/mask_004.jpg,,,,,,,,,,,,,,,,,,,,,,,,,,,,,,,,,,,,,,,,,,,0,0,0,3,1,,,,,,,,,,,,,,,,,,,,,,,,,,,,,,,,,,,,,,,,,,,,,,
017479,001,2022-11-20_17h50.26.870,Info_measure_main_exp,2022.2.2,Win32,19.89693388,,,,,,,,,,,,,,,,,,masks/mask_001.jpg,,,,,,,,,,,,,,,,,,,,,,,,,,,,,,,,,,,,,,,,,,,0,1,1,0,1,,,,,,,,,,,,,,,,,,,,,,,,,,,,,,,,,,,,,,,,,,,,,,
017479,001,2022-11-20_17h50.26.870,Info_measure_main_exp,2022.2.2,Win32,19.89693388,,,,,,,,,,,,,,,,,,masks/mask_005.jpg,,,,,,,,,,,,,,,,,,,,,,,,,,,,,,,,,,,,,,,,,,,0,2,2,4,1,,,,,,,,,,,,,,,,,,,,,,,,,,,,,,,,,,,,,,,,,,,,,,
017479,001,2022-11-20_17h50.26.870,Info_measure_main_exp,2022.2.2,Win32,19.89693388,,,,,,,,,,,,,,,,,,masks/mask_002.jpg,,,,,,,,,,,,,,,,,,,,,,,,,,,,,,,,,,,,,,,,,,,0,3,3,1,1,,,,,,,,,,,,,,,,,,,,,,,,,,,,,,,,,,,,,,,,,,,,,,
017479,001,2022-11-20_17h50.26.870,Info_measure_main_exp,2022.2.2,Win32,19.89693388,,,,,,,,,,,,,,,,,,masks/mask_003.jpg,,,,,,,,,,,,,,,,,,,,,,,,,,,,,,,,,,,,,,,,,,,0,4,4,2,1,,,,,,,,,,,,,,,,,,,,,,,,,,,,,,,,,,,,,,,,,,,,,,
017479,001,2022-11-20_17h50.26.870,Info_measure_main_exp,2022.2.2,Win32,19.89693388,,,,,,,,,,,,,,,,,,masks/mask_001.jpg,,,,,,,,,,,,,,,,,,,,,,,,,,,,,,,,,,,,,,,,,,,,,,,,0,0,0,0,1,,,,,,,,,,,,,,,,,,,,,,,,,,,,,,,,,,,,,,,,,
017479,001,2022-11-20_17h50.26.870,Info_measure_main_exp,2022.2.2,Win32,19.89693388,,,,,,,,,,,,,,,,,,masks/mask_003.jpg,,,,,,,,,,,,,,,,,,,,,,,,,,,,,,,,,,,,,,,,,,,,,,,,0,1,1,2,1,,,,,,,,,,,,,,,,,,,,,,,,,,,,,,,,,,,,,,,,,
017479,001,2022-11-20_17h50.26.870,Info_measure_main_exp,2022.2.2,Win32,19.89693388,,,,,,,,,,,,,,,,,,masks/mask_005.jpg,,,,,,,,,,,,,,,,,,,,,,,,,,,,,,,,,,,,,,,,,,,,,,,,0,2,2,4,1,,,,,,,,,,,,,,,,,,,,,,,,,,,,,,,,,,,,,,,,,
017479,001,2022-11-20_17h50.26.870,Info_measure_main_exp,2022.2.2,Win32,19.89693388,,,,,,,,,,,,,,,,,,masks/mask_002.jpg,,,,,,,,,,,,,,,,,,,,,,,,,,,,,,,,,,,,,,,,,,,,,,,,0,3,3,1,1,,,,,,,,,,,,,,,,,,,,,,,,,,,,,,,,,,,,,,,,,
017479,001,2022-11-20_17h50.26.870,Info_measure_main_exp,2022.2.2,Win32,19.89693388,,,,,,,,,,,,,,,,,,masks/mask_004.jpg,,,,,,,,,,,,,,,,,,,,,,,,,,,,,,,,,,,,,,,,,,,,,,,,0,4,4,3,1,,,,,,,,,,,,,,,,,,,,,,,,,,,,,,,,,,,,,,,,,
017479,001,2022-11-20_17h50.26.870,Info_measure_main_exp,2022.2.2,Win32,19.89693388,,,,,,,,,,,,,,,,,,,,,,,,,,,,,,7,1.8858,1,,,,,,,,,,,,0,131,5,5,2274,2250,absent_patch/patch0002274.jpg,absent_patch/patch0002250.jpg,,,,,,,,,,,,,,,,,,,,0.044270833,0.153645833,1,0,0,response1disk,2,0.001302083,-0.005208333,1,0,0,center_square,0,1,1,28,1,,,,,,,,,,,,,,,,,,,,,,,
017479,001,2022-11-20_17h50.26.870,Info_measure_main_exp,2022.2.2,Win32,19.89693388,,,,,,,,,,,,,,,,,,masks/mask_002.jpg,,,,,,,,,,,,,,,,,,,,,,,,,,,,,,,,,,,,,,,,,,,0,0,0,1,1,,,,,,,,,,,,,,,,,,,,,,,,,,,,,,,,,,,,,,,,,,,,,,
017479,001,2022-11-20_17h50.26.870,Info_measure_main_exp,2022.2.2,Win32,19.89693388,,,,,,,,,,,,,,,,,,masks/mask_005.jpg,,,,,,,,,,,,,,,,,,,,,,,,,,,,,,,,,,,,,,,,,,,0,1,1,4,1,,,,,,,,,,,,,,,,,,,,,,,,,,,,,,,,,,,,,,,,,,,,,,
017479,001,2022-11-20_17h50.26.870,Info_measure_main_exp,2022.2.2,Win32,19.89693388,,,,,,,,,,,,,,,,,,masks/mask_004.jpg,,,,,,,,,,,,,,,,,,,,,,,,,,,,,,,,,,,,,,,,,,,0,2,2,3,1,,,,,,,,,,,,,,,,,,,,,,,,,,,,,,,,,,,,,,,,,,,,,,
017479,001,2022-11-20_17h50.26.870,Info_measure_main_exp,2022.2.2,Win32,19.89693388,,,,,,,,,,,,,,,,,,masks/mask_003.jpg,,,,,,,,,,,,,,,,,,,,,,,,,,,,,,,,,,,,,,,,,,,0,3,3,2,1,,,,,,,,,,,,,,,,,,,,,,,,,,,,,,,,,,,,,,,,,,,,,,
017479,001,2022-11-20_17h50.26.870,Info_measure_main_exp,2022.2.2,Win32,19.89693388,,,,,,,,,,,,,,,,,,masks/mask_001.jpg,,,,,,,,,,,,,,,,,,,,,,,,,,,,,,,,,,,,,,,,,,,0,4,4,0,1,,,,,,,,,,,,,,,,,,,,,,,,,,,,,,,,,,,,,,,,,,,,,,
017479,001,2022-11-20_17h50.26.870,Info_measure_main_exp,2022.2.2,Win32,19.89693388,,,,,,,,,,,,,,,,,,masks/mask_003.jpg,,,,,,,,,,,,,,,,,,,,,,,,,,,,,,,,,,,,,,,,,,,,,,,,0,0,0,2,1,,,,,,,,,,,,,,,,,,,,,,,,,,,,,,,,,,,,,,,,,
017479,001,2022-11-20_17h50.26.870,Info_measure_main_exp,2022.2.2,Win32,19.89693388,,,,,,,,,,,,,,,,,,masks/mask_001.jpg,,,,,,,,,,,,,,,,,,,,,,,,,,,,,,,,,,,,,,,,,,,,,,,,0,1,1,0,1,,,,,,,,,,,,,,,,,,,,,,,,,,,,,,,,,,,,,,,,,
017479,001,2022-11-20_17h50.26.870,Info_measure_main_exp,2022.2.2,Win32,19.89693388,,,,,,,,,,,,,,,,,,masks/mask_004.jpg,,,,,,,,,,,,,,,,,,,,,,,,,,,,,,,,,,,,,,,,,,,,,,,,0,2,2,3,1,,,,,,,,,,,,,,,,,,,,,,,,,,,,,,,,,,,,,,,,,
017479,001,2022-11-20_17h50.26.870,Info_measure_main_exp,2022.2.2,Win32,19.89693388,,,,,,,,,,,,,,,,,,masks/mask_002.jpg,,,,,,,,,,,,,,,,,,,,,,,,,,,,,,,,,,,,,,,,,,,,,,,,0,3,3,1,1,,,,,,,,,,,,,,,,,,,,,,,,,,,,,,,,,,,,,,,,,
017479,001,2022-11-20_17h50.26.870,Info_measure_main_exp,2022.2.2,Win32,19.89693388,,,,,,,,,,,,,,,,,,masks/mask_005.jpg,,,,,,,,,,,,,,,,,,,,,,,,,,,,,,,,,,,,,,,,,,,,,,,,0,4,4,4,1,,,,,,,,,,,,,,,,,,,,,,,,,,,,,,,,,,,,,,,,,
017479,001,2022-11-20_17h50.26.870,Info_measure_main_exp,2022.2.2,Win32,19.89693388,,,,,,,,,,,,,,,,,,,,,,,,,,,,,,0,1.8789,1,,,,,,,,,,,,0,131,5,5,2190,2190,absent_patch/patch0002190.jpg,absent_patch/patch0002190.jpg,,,,,,,,,,,,,,,,,,,,-0.040364583,0.158854167,1,0,0,response7disk,3,0,0.001302083,1,0,0,center_square,0,2,2,86,1,,,,,,,,,,,,,,,,,,,,,,,
017479,001,2022-11-20_17h50.26.870,Info_measure_main_exp,2022.2.2,Win32,19.89693388,,,,,,,,,,,,,,,,,,masks/mask_005.jpg,,,,,,,,,,,,,,,,,,,,,,,,,,,,,,,,,,,,,,,,,,,0,0,0,4,1,,,,,,,,,,,,,,,,,,,,,,,,,,,,,,,,,,,,,,,,,,,,,,
017479,001,2022-11-20_17h50.26.870,Info_measure_main_exp,2022.2.2,Win32,19.89693388,,,,,,,,,,,,,,,,,,masks/mask_001.jpg,,,,,,,,,,,,,,,,,,,,,,,,,,,,,,,,,,,,,,,,,,,0,1,1,0,1,,,,,,,,,,,,,,,,,,,,,,,,,,,,,,,,,,,,,,,,,,,,,,
017479,001,2022-11-20_17h50.26.870,Info_measure_main_exp,2022.2.2,Win32,19.89693388,,,,,,,,,,,,,,,,,,masks/mask_002.jpg,,,,,,,,,,,,,,,,,,,,,,,,,,,,,,,,,,,,,,,,,,,0,2,2,1,1,,,,,,,,,,,,,,,,,,,,,,,,,,,,,,,,,,,,,,,,,,,,,,
017479,001,2022-11-20_17h50.26.870,Info_measure_main_exp,2022.2.2,Win32,19.89693388,,,,,,,,,,,,,,,,,,masks/mask_004.jpg,,,,,,,,,,,,,,,,,,,,,,,,,,,,,,,,,,,,,,,,,,,0,3,3,3,1,,,,,,,,,,,,,,,,,,,,,,,,,,,,,,,,,,,,,,,,,,,,,,
017479,001,2022-11-20_17h50.26.870,Info_measure_main_exp,2022.2.2,Win32,19.89693388,,,,,,,,,,,,,,,,,,masks/mask_003.jpg,,,,,,,,,,,,,,,,,,,,,,,,,,,,,,,,,,,,,,,,,,,0,4,4,2,1,,,,,,,,,,,,,,,,,,,,,,,,,,,,,,,,,,,,,,,,,,,,,,
017479,001,2022-11-20_17h50.26.870,Info_measure_main_exp,2022.2.2,Win32,19.89693388,,,,,,,,,,,,,,,,,,masks/mask_003.jpg,,,,,,,,,,,,,,,,,,,,,,,,,,,,,,,,,,,,,,,,,,,,,,,,0,0,0,2,1,,,,,,,,,,,,,,,,,,,,,,,,,,,,,,,,,,,,,,,,,
017479,001,2022-11-20_17h50.26.870,Info_measure_main_exp,2022.2.2,Win32,19.89693388,,,,,,,,,,,,,,,,,,masks/mask_004.jpg,,,,,,,,,,,,,,,,,,,,,,,,,,,,,,,,,,,,,,,,,,,,,,,,0,1,1,3,1,,,,,,,,,,,,,,,,,,,,,,,,,,,,,,,,,,,,,,,,,
017479,001,2022-11-20_17h50.26.870,Info_measure_main_exp,2022.2.2,Win32,19.89693388,,,,,,,,,,,,,,,,,,masks/mask_002.jpg,,,,,,,,,,,,,,,,,,,,,,,,,,,,,,,,,,,,,,,,,,,,,,,,0,2,2,1,1,,,,,,,,,,,,,,,,,,,,,,,,,,,,,,,,,,,,,,,,,
017479,001,2022-11-20_17h50.26.870,Info_measure_main_exp,2022.2.2,Win32,19.89693388,,,,,,,,,,,,,,,,,,masks/mask_001.jpg,,,,,,,,,,,,,,,,,,,,,,,,,,,,,,,,,,,,,,,,,,,,,,,,0,3,3,0,1,,,,,,,,,,,,,,,,,,,,,,,,,,,,,,,,,,,,,,,,,
017479,001,2022-11-20_17h50.26.870,Info_measure_main_exp,2022.2.2,Win32,19.89693388,,,,,,,,,,,,,,,,,,masks/mask_005.jpg,,,,,,,,,,,,,,,,,,,,,,,,,,,,,,,,,,,,,,,,,,,,,,,,0,4,4,4,1,,,,,,,,,,,,,,,,,,,,,,,,,,,,,,,,,,,,,,,,,
017479,001,2022-11-20_17h50.26.870,Info_measure_main_exp,2022.2.2,Win32,19.89693388,,,,,,,,,,,,,,,,,,,,,,,,,,,,,,7,2.0428,1,,,,,,,,,,,,0,131,5,5,2274,1974,absent_patch/patch0002274.jpg,absent_patch/patch0001974.jpg,,,,,,,,,,,,,,,,,,,,0.041666667,0.16015625,1,0,0,response1disk,4,0.001302083,0.00390625,1,0,0,center_square,0,3,3,90,1,,,,,,,,,,,,,,,,,,,,,,,
017479,001,2022-11-20_17h50.26.870,Info_measure_main_exp,2022.2.2,Win32,19.89693388,,,,,,,,,,,,,,,,,,masks/mask_001.jpg,,,,,,,,,,,,,,,,,,,,,,,,,,,,,,,,,,,,,,,,,,,0,0,0,0,1,,,,,,,,,,,,,,,,,,,,,,,,,,,,,,,,,,,,,,,,,,,,,,
017479,001,2022-11-20_17h50.26.870,Info_measure_main_exp,2022.2.2,Win32,19.89693388,,,,,,,,,,,,,,,,,,masks/mask_005.jpg,,,,,,,,,,,,,,,,,,,,,,,,,,,,,,,,,,,,,,,,,,,0,1,1,4,1,,,,,,,,,,,,,,,,,,,,,,,,,,,,,,,,,,,,,,,,,,,,,,
017479,001,2022-11-20_17h50.26.870,Info_measure_main_exp,2022.2.2,Win32,19.89693388,,,,,,,,,,,,,,,,,,masks/mask_004.jpg,,,,,,,,,,,,,,,,,,,,,,,,,,,,,,,,,,,,,,,,,,,0,2,2,3,1,,,,,,,,,,,,,,,,,,,,,,,,,,,,,,,,,,,,,,,,,,,,,,
017479,001,2022-11-20_17h50.26.870,Info_measure_main_exp,2022.2.2,Win32,19.89693388,,,,,,,,,,,,,,,,,,masks/mask_002.jpg,,,,,,,,,,,,,,,,,,,,,,,,,,,,,,,,,,,,,,,,,,,0,3,3,1,1,,,,,,,,,,,,,,,,,,,,,,,,,,,,,,,,,,,,,,,,,,,,,,
017479,001,2022-11-20_17h50.26.870,Info_measure_main_exp,2022.2.2,Win32,19.89693388,,,,,,,,,,,,,,,,,,masks/mask_003.jpg,,,,,,,,,,,,,,,,,,,,,,,,,,,,,,,,,,,,,,,,,,,0,4,4,2,1,,,,,,,,,,,,,,,,,,,,,,,,,,,,,,,,,,,,,,,,,,,,,,
017479,001,2022-11-20_17h50.26.870,Info_measure_main_exp,2022.2.2,Win32,19.89693388,,,,,,,,,,,,,,,,,,masks/mask_004.jpg,,,,,,,,,,,,,,,,,,,,,,,,,,,,,,,,,,,,,,,,,,,,,,,,0,0,0,3,1,,,,,,,,,,,,,,,,,,,,,,,,,,,,,,,,,,,,,,,,,
017479,001,2022-11-20_17h50.26.870,Info_measure_main_exp,2022.2.2,Win32,19.89693388,,,,,,,,,,,,,,,,,,masks/mask_001.jpg,,,,,,,,,,,,,,,,,,,,,,,,,,,,,,,,,,,,,,,,,,,,,,,,0,1,1,0,1,,,,,,,,,,,,,,,,,,,,,,,,,,,,,,,,,,,,,,,,,
017479,001,2022-11-20_17h50.26.870,Info_measure_main_exp,2022.2.2,Win32,19.89693388,,,,,,,,,,,,,,,,,,masks/mask_002.jpg,,,,,,,,,,,,,,,,,,,,,,,,,,,,,,,,,,,,,,,,,,,,,,,,0,2,2,1,1,,,,,,,,,,,,,,,,,,,,,,,,,,,,,,,,,,,,,,,,,
017479,001,2022-11-20_17h50.26.870,Info_measure_main_exp,2022.2.2,Win32,19.89693388,,,,,,,,,,,,,,,,,,masks/mask_003.jpg,,,,,,,,,,,,,,,,,,,,,,,,,,,,,,,,,,,,,,,,,,,,,,,,0,3,3,2,1,,,,,,,,,,,,,,,,,,,,,,,,,,,,,,,,,,,,,,,,,
017479,001,2022-11-20_17h50.26.870,Info_measure_main_exp,2022.2.2,Win32,19.89693388,,,,,,,,,,,,,,,,,,masks/mask_005.jpg,,,,,,,,,,,,,,,,,,,,,,,,,,,,,,,,,,,,,,,,,,,,,,,,0,4,4,4,1,,,,,,,,,,,,,,,,,,,,,,,,,,,,,,,,,,,,,,,,,
017479,001,2022-11-20_17h50.26.870,Info_measure_main_exp,2022.2.2,Win32,19.89693388,,,,,,,,,,,,,,,,,,,,,,,,,,,,,,3,3.978,1,,,,,,,,,,,,0,131,5,5,1950,2082,absent_patch/patch0001950.jpg,absent_patch/patch0002082.jpg,,,,,,,,,,,,,,,,,,,,-0.053385417,-0.161458333,1,0,0,response5disk,5,-0.001302083,0.002604167,1,0,0,center_square,0,4,4,12,1,,,,,,,,,,,,,,,,,,,,,,,
017479,001,2022-11-20_17h50.26.870,Info_measure_main_exp,2022.2.2,Win32,19.89693388,,,,,,,,,,,,,,,,,,masks/mask_005.jpg,,,,,,,,,,,,,,,,,,,,,,,,,,,,,,,,,,,,,,,,,,,0,0,0,4,1,,,,,,,,,,,,,,,,,,,,,,,,,,,,,,,,,,,,,,,,,,,,,,
017479,001,2022-11-20_17h50.26.870,Info_measure_main_exp,2022.2.2,Win32,19.89693388,,,,,,,,,,,,,,,,,,masks/mask_001.jpg,,,,,,,,,,,,,,,,,,,,,,,,,,,,,,,,,,,,,,,,,,,0,1,1,0,1,,,,,,,,,,,,,,,,,,,,,,,,,,,,,,,,,,,,,,,,,,,,,,
017479,001,2022-11-20_17h50.26.870,Info_measure_main_exp,2022.2.2,Win32,19.89693388,,,,,,,,,,,,,,,,,,masks/mask_003.jpg,,,,,,,,,,,,,,,,,,,,,,,,,,,,,,,,,,,,,,,,,,,0,2,2,2,1,,,,,,,,,,,,,,,,,,,,,,,,,,,,,,,,,,,,,,,,,,,,,,
017479,001,2022-11-20_17h50.26.870,Info_measure_main_exp,2022.2.2,Win32,19.89693388,,,,,,,,,,,,,,,,,,masks/mask_004.jpg,,,,,,,,,,,,,,,,,,,,,,,,,,,,,,,,,,,,,,,,,,,0,3,3,3,1,,,,,,,,,,,,,,,,,,,,,,,,,,,,,,,,,,,,,,,,,,,,,,
017479,001,2022-11-20_17h50.26.870,Info_measure_main_exp,2022.2.2,Win32,19.89693388,,,,,,,,,,,,,,,,,,masks/mask_002.jpg,,,,,,,,,,,,,,,,,,,,,,,,,,,,,,,,,,,,,,,,,,,0,4,4,1,1,,,,,,,,,,,,,,,,,,,,,,,,,,,,,,,,,,,,,,,,,,,,,,
017479,001,2022-11-20_17h50.26.870,Info_measure_main_exp,2022.2.2,Win32,19.89693388,,,,,,,,,,,,,,,,,,masks/mask_004.jpg,,,,,,,,,,,,,,,,,,,,,,,,,,,,,,,,,,,,,,,,,,,,,,,,0,0,0,3,1,,,,,,,,,,,,,,,,,,,,,,,,,,,,,,,,,,,,,,,,,
017479,001,2022-11-20_17h50.26.870,Info_measure_main_exp,2022.2.2,Win32,19.89693388,,,,,,,,,,,,,,,,,,masks/mask_003.jpg,,,,,,,,,,,,,,,,,,,,,,,,,,,,,,,,,,,,,,,,,,,,,,,,0,1,1,2,1,,,,,,,,,,,,,,,,,,,,,,,,,,,,,,,,,,,,,,,,,
017479,001,2022-11-20_17h50.26.870,Info_measure_main_exp,2022.2.2,Win32,19.89693388,,,,,,,,,,,,,,,,,,masks/mask_002.jpg,,,,,,,,,,,,,,,,,,,,,,,,,,,,,,,,,,,,,,,,,,,,,,,,0,2,2,1,1,,,,,,,,,,,,,,,,,,,,,,,,,,,,,,,,,,,,,,,,,
017479,001,2022-11-20_17h50.26.870,Info_measure_main_exp,2022.2.2,Win32,19.89693388,,,,,,,,,,,,,,,,,,masks/mask_001.jpg,,,,,,,,,,,,,,,,,,,,,,,,,,,,,,,,,,,,,,,,,,,,,,,,0,3,3,0,1,,,,,,,,,,,,,,,,,,,,,,,,,,,,,,,,,,,,,,,,,
017479,001,2022-11-20_17h50.26.870,Info_measure_main_exp,2022.2.2,Win32,19.89693388,,,,,,,,,,,,,,,,,,masks/mask_005.jpg,,,,,,,,,,,,,,,,,,,,,,,,,,,,,,,,,,,,,,,,,,,,,,,,0,4,4,4,1,,,,,,,,,,,,,,,,,,,,,,,,,,,,,,,,,,,,,,,,,
017479,001,2022-11-20_17h50.26.870,Info_measure_main_exp,2022.2.2,Win32,19.89693388,,,,,,,,,,,,,,,,,,,,,,,,,,,,,,4,4.7884,1,,,,,,,,,,,,0,131,5,5,2298,2214,absent_patch/patch0002298.jpg,absent_patch/patch0002214.jpg,,,,,,,,,,,,,,,,,,,,0.045572917,-0.15625,1,0,0,response3disk,6,0.005208333,0.001302083,1,0,0,center_square,0,5,5,99,1,,,,,,,,,,,,,,,,,,,,,,,
017479,001,2022-11-20_17h50.26.870,Info_measure_main_exp,2022.2.2,Win32,19.89693388,,,,,,,,,,,,,,,,,,masks/mask_003.jpg,,,,,,,,,,,,,,,,,,,,,,,,,,,,,,,,,,,,,,,,,,,0,0,0,2,1,,,,,,,,,,,,,,,,,,,,,,,,,,,,,,,,,,,,,,,,,,,,,,
017479,001,2022-11-20_17h50.26.870,Info_measure_main_exp,2022.2.2,Win32,19.89693388,,,,,,,,,,,,,,,,,,masks/mask_004.jpg,,,,,,,,,,,,,,,,,,,,,,,,,,,,,,,,,,,,,,,,,,,0,1,1,3,1,,,,,,,,,,,,,,,,,,,,,,,,,,,,,,,,,,,,,,,,,,,,,,
017479,001,2022-11-20_17h50.26.870,Info_measure_main_exp,2022.2.2,Win32,19.89693388,,,,,,,,,,,,,,,,,,masks/mask_001.jpg,,,,,,,,,,,,,,,,,,,,,,,,,,,,,,,,,,,,,,,,,,,0,2,2,0,1,,,,,,,,,,,,,,,,,,,,,,,,,,,,,,,,,,,,,,,,,,,,,,
017479,001,2022-11-20_17h50.26.870,Info_measure_main_exp,2022.2.2,Win32,19.89693388,,,,,,,,,,,,,,,,,,masks/mask_002.jpg,,,,,,,,,,,,,,,,,,,,,,,,,,,,,,,,,,,,,,,,,,,0,3,3,1,1,,,,,,,,,,,,,,,,,,,,,,,,,,,,,,,,,,,,,,,,,,,,,,
017479,001,2022-11-20_17h50.26.870,Info_measure_main_exp,2022.2.2,Win32,19.89693388,,,,,,,,,,,,,,,,,,masks/mask_005.jpg,,,,,,,,,,,,,,,,,,,,,,,,,,,,,,,,,,,,,,,,,,,0,4,4,4,1,,,,,,,,,,,,,,,,,,,,,,,,,,,,,,,,,,,,,,,,,,,,,,
017479,001,2022-11-20_17h50.26.870,Info_measure_main_exp,2022.2.2,Win32,19.89693388,,,,,,,,,,,,,,,,,,masks/mask_003.jpg,,,,,,,,,,,,,,,,,,,,,,,,,,,,,,,,,,,,,,,,,,,,,,,,0,0,0,2,1,,,,,,,,,,,,,,,,,,,,,,,,,,,,,,,,,,,,,,,,,
017479,001,2022-11-20_17h50.26.870,Info_measure_main_exp,2022.2.2,Win32,19.89693388,,,,,,,,,,,,,,,,,,masks/mask_001.jpg,,,,,,,,,,,,,,,,,,,,,,,,,,,,,,,,,,,,,,,,,,,,,,,,0,1,1,0,1,,,,,,,,,,,,,,,,,,,,,,,,,,,,,,,,,,,,,,,,,
017479,001,2022-11-20_17h50.26.870,Info_measure_main_exp,2022.2.2,Win32,19.89693388,,,,,,,,,,,,,,,,,,masks/mask_004.jpg,,,,,,,,,,,,,,,,,,,,,,,,,,,,,,,,,,,,,,,,,,,,,,,,0,2,2,3,1,,,,,,,,,,,,,,,,,,,,,,,,,,,,,,,,,,,,,,,,,
017479,001,2022-11-20_17h50.26.870,Info_measure_main_exp,2022.2.2,Win32,19.89693388,,,,,,,,,,,,,,,,,,masks/mask_002.jpg,,,,,,,,,,,,,,,,,,,,,,,,,,,,,,,,,,,,,,,,,,,,,,,,0,3,3,1,1,,,,,,,,,,,,,,,,,,,,,,,,,,,,,,,,,,,,,,,,,
017479,001,2022-11-20_17h50.26.870,Info_measure_main_exp,2022.2.2,Win32,19.89693388,,,,,,,,,,,,,,,,,,masks/mask_005.jpg,,,,,,,,,,,,,,,,,,,,,,,,,,,,,,,,,,,,,,,,,,,,,,,,0,4,4,4,1,,,,,,,,,,,,,,,,,,,,,,,,,,,,,,,,,,,,,,,,,
017479,001,2022-11-20_17h50.26.870,Info_measure_main_exp,2022.2.2,Win32,19.89693388,,,,,,,,,,,,,,,,,,,,,,,,,,,,,,5,5.4584,1,,,,,,,,,,,,1,131,5,5,1,2166,present_patch/cong_131_5_a.jpg,absent_patch/patch0002166.jpg,,,,,,,,,,,,,,,,,,,,0.134114583,-0.044270833,1,0,0,response3disk,7,0,0.001302083,1,0,0,center_square,0,6,6,54,1,,,,,,,,,,,,,,,,,,,,,,,
017479,001,2022-11-20_17h50.26.870,Info_measure_main_exp,2022.2.2,Win32,19.89693388,,,,,,,,,,,,,,,,,,masks/mask_003.jpg,,,,,,,,,,,,,,,,,,,,,,,,,,,,,,,,,,,,,,,,,,,0,0,0,2,1,,,,,,,,,,,,,,,,,,,,,,,,,,,,,,,,,,,,,,,,,,,,,,
017479,001,2022-11-20_17h50.26.870,Info_measure_main_exp,2022.2.2,Win32,19.89693388,,,,,,,,,,,,,,,,,,masks/mask_005.jpg,,,,,,,,,,,,,,,,,,,,,,,,,,,,,,,,,,,,,,,,,,,0,1,1,4,1,,,,,,,,,,,,,,,,,,,,,,,,,,,,,,,,,,,,,,,,,,,,,,
017479,001,2022-11-20_17h50.26.870,Info_measure_main_exp,2022.2.2,Win32,19.89693388,,,,,,,,,,,,,,,,,,masks/mask_001.jpg,,,,,,,,,,,,,,,,,,,,,,,,,,,,,,,,,,,,,,,,,,,0,2,2,0,1,,,,,,,,,,,,,,,,,,,,,,,,,,,,,,,,,,,,,,,,,,,,,,
017479,001,2022-11-20_17h50.26.870,Info_measure_main_exp,2022.2.2,Win32,19.89693388,,,,,,,,,,,,,,,,,,masks/mask_002.jpg,,,,,,,,,,,,,,,,,,,,,,,,,,,,,,,,,,,,,,,,,,,0,3,3,1,1,,,,,,,,,,,,,,,,,,,,,,,,,,,,,,,,,,,,,,,,,,,,,,
017479,001,2022-11-20_17h50.26.870,Info_measure_main_exp,2022.2.2,Win32,19.89693388,,,,,,,,,,,,,,,,,,masks/mask_004.jpg,,,,,,,,,,,,,,,,,,,,,,,,,,,,,,,,,,,,,,,,,,,0,4,4,3,1,,,,,,,,,,,,,,,,,,,,,,,,,,,,,,,,,,,,,,,,,,,,,,
017479,001,2022-11-20_17h50.26.870,Info_measure_main_exp,2022.2.2,Win32,19.89693388,,,,,,,,,,,,,,,,,,masks/mask_002.jpg,,,,,,,,,,,,,,,,,,,,,,,,,,,,,,,,,,,,,,,,,,,,,,,,0,0,0,1,1,,,,,,,,,,,,,,,,,,,,,,,,,,,,,,,,,,,,,,,,,
017479,001,2022-11-20_17h50.26.870,Info_measure_main_exp,2022.2.2,Win32,19.89693388,,,,,,,,,,,,,,,,,,masks/mask_001.jpg,,,,,,,,,,,,,,,,,,,,,,,,,,,,,,,,,,,,,,,,,,,,,,,,0,1,1,0,1,,,,,,,,,,,,,,,,,,,,,,,,,,,,,,,,,,,,,,,,,
017479,001,2022-11-20_17h50.26.870,Info_measure_main_exp,2022.2.2,Win32,19.89693388,,,,,,,,,,,,,,,,,,masks/mask_004.jpg,,,,,,,,,,,,,,,,,,,,,,,,,,,,,,,,,,,,,,,,,,,,,,,,0,2,2,3,1,,,,,,,,,,,,,,,,,,,,,,,,,,,,,,,,,,,,,,,,,
017479,001,2022-11-20_17h50.26.870,Info_measure_main_exp,2022.2.2,Win32,19.89693388,,,,,,,,,,,,,,,,,,masks/mask_005.jpg,,,,,,,,,,,,,,,,,,,,,,,,,,,,,,,,,,,,,,,,,,,,,,,,0,3,3,4,1,,,,,,,,,,,,,,,,,,,,,,,,,,,,,,,,,,,,,,,,,
017479,001,2022-11-20_17h50.26.870,Info_measure_main_exp,2022.2.2,Win32,19.89693388,,,,,,,,,,,,,,,,,,masks/mask_003.jpg,,,,,,,,,,,,,,,,,,,,,,,,,,,,,,,,,,,,,,,,,,,,,,,,0,4,4,2,1,,,,,,,,,,,,,,,,,,,,,,,,,,,,,,,,,,,,,,,,,
017479,001,2022-11-20_17h50.26.870,Info_measure_main_exp,2022.2.2,Win32,19.89693388,,,,,,,,,,,,,,,,,,,,,,,,,,,,,,7,2.0008,1,,,,,,,,,,,,0,131,5,5,2166,2298,absent_patch/patch0002166.jpg,absent_patch/patch0002298.jpg,,,,,,,,,,,,,,,,,,,,0.046875,0.166666667,1,0,0,response1disk,8,-0.001302083,0.002604167,1,0,0,center_square,0,7,7,52,1,,,,,,,,,,,,,,,,,,,,,,,
017479,001,2022-11-20_17h50.26.870,Info_measure_main_exp,2022.2.2,Win32,19.89693388,,,,,,,,,,,,,,,,,,masks/mask_004.jpg,,,,,,,,,,,,,,,,,,,,,,,,,,,,,,,,,,,,,,,,,,,0,0,0,3,1,,,,,,,,,,,,,,,,,,,,,,,,,,,,,,,,,,,,,,,,,,,,,,
017479,001,2022-11-20_17h50.26.870,Info_measure_main_exp,2022.2.2,Win32,19.89693388,,,,,,,,,,,,,,,,,,masks/mask_003.jpg,,,,,,,,,,,,,,,,,,,,,,,,,,,,,,,,,,,,,,,,,,,0,1,1,2,1,,,,,,,,,,,,,,,,,,,,,,,,,,,,,,,,,,,,,,,,,,,,,,
017479,001,2022-11-20_17h50.26.870,Info_measure_main_exp,2022.2.2,Win32,19.89693388,,,,,,,,,,,,,,,,,,masks/mask_001.jpg,,,,,,,,,,,,,,,,,,,,,,,,,,,,,,,,,,,,,,,,,,,0,2,2,0,1,,,,,,,,,,,,,,,,,,,,,,,,,,,,,,,,,,,,,,,,,,,,,,
017479,001,2022-11-20_17h50.26.870,Info_measure_main_exp,2022.2.2,Win32,19.89693388,,,,,,,,,,,,,,,,,,masks/mask_002.jpg,,,,,,,,,,,,,,,,,,,,,,,,,,,,,,,,,,,,,,,,,,,0,3,3,1,1,,,,,,,,,,,,,,,,,,,,,,,,,,,,,,,,,,,,,,,,,,,,,,
017479,001,2022-11-20_17h50.26.870,Info_measure_main_exp,2022.2.2,Win32,19.89693388,,,,,,,,,,,,,,,,,,masks/mask_005.jpg,,,,,,,,,,,,,,,,,,,,,,,,,,,,,,,,,,,,,,,,,,,0,4,4,4,1,,,,,,,,,,,,,,,,,,,,,,,,,,,,,,,,,,,,,,,,,,,,,,
017479,001,2022-11-20_17h50.26.870,Info_measure_main_exp,2022.2.2,Win32,19.89693388,,,,,,,,,,,,,,,,,,masks/mask_001.jpg,,,,,,,,,,,,,,,,,,,,,,,,,,,,,,,,,,,,,,,,,,,,,,,,0,0,0,0,1,,,,,,,,,,,,,,,,,,,,,,,,,,,,,,,,,,,,,,,,,
017479,001,2022-11-20_17h50.26.870,Info_measure_main_exp,2022.2.2,Win32,19.89693388,,,,,,,,,,,,,,,,,,masks/mask_002.jpg,,,,,,,,,,,,,,,,,,,,,,,,,,,,,,,,,,,,,,,,,,,,,,,,0,1,1,1,1,,,,,,,,,,,,,,,,,,,,,,,,,,,,,,,,,,,,,,,,,
017479,001,2022-11-20_17h50.26.870,Info_measure_main_exp,2022.2.2,Win32,19.89693388,,,,,,,,,,,,,,,,,,masks/mask_004.jpg,,,,,,,,,,,,,,,,,,,,,,,,,,,,,,,,,,,,,,,,,,,,,,,,0,2,2,3,1,,,,,,,,,,,,,,,,,,,,,,,,,,,,,,,,,,,,,,,,,
017479,001,2022-11-20_17h50.26.870,Info_measure_main_exp,2022.2.2,Win32,19.89693388,,,,,,,,,,,,,,,,,,masks/mask_005.jpg,,,,,,,,,,,,,,,,,,,,,,,,,,,,,,,,,,,,,,,,,,,,,,,,0,3,3,4,1,,,,,,,,,,,,,,,,,,,,,,,,,,,,,,,,,,,,,,,,,
017479,001,2022-11-20_17h50.26.870,Info_measure_main_exp,2022.2.2,Win32,19.89693388,,,,,,,,,,,,,,,,,,masks/mask_003.jpg,,,,,,,,,,,,,,,,,,,,,,,,,,,,,,,,,,,,,,,,,,,,,,,,0,4,4,2,1,,,,,,,,,,,,,,,,,,,,,,,,,,,,,,,,,,,,,,,,,
017479,001,2022-11-20_17h50.26.870,Info_measure_main_exp,2022.2.2,Win32,19.89693388,,,,,,,,,,,,,,,,,,,,,,,,,,,,,,7,1.7322,1,,,,,,,,,,,,0,131,5,5,2274,2178,absent_patch/patch0002274.jpg,absent_patch/patch0002178.jpg,,,,,,,,,,,,,,,,,,,,0.041666667,0.143229167,1,0,0,response1disk,9,-0.001302083,-0.001302083,1,0,0,center_square,0,8,8,117,1,,,,,,,,,,,,,,,,,,,,,,,
017479,001,2022-11-20_17h50.26.870,Info_measure_main_exp,2022.2.2,Win32,19.89693388,,,,,,,,,,,,,,,,,,masks/mask_003.jpg,,,,,,,,,,,,,,,,,,,,,,,,,,,,,,,,,,,,,,,,,,,0,0,0,2,1,,,,,,,,,,,,,,,,,,,,,,,,,,,,,,,,,,,,,,,,,,,,,,
017479,001,2022-11-20_17h50.26.870,Info_measure_main_exp,2022.2.2,Win32,19.89693388,,,,,,,,,,,,,,,,,,masks/mask_004.jpg,,,,,,,,,,,,,,,,,,,,,,,,,,,,,,,,,,,,,,,,,,,0,1,1,3,1,,,,,,,,,,,,,,,,,,,,,,,,,,,,,,,,,,,,,,,,,,,,,,
017479,001,2022-11-20_17h50.26.870,Info_measure_main_exp,2022.2.2,Win32,19.89693388,,,,,,,,,,,,,,,,,,masks/mask_002.jpg,,,,,,,,,,,,,,,,,,,,,,,,,,,,,,,,,,,,,,,,,,,0,2,2,1,1,,,,,,,,,,,,,,,,,,,,,,,,,,,,,,,,,,,,,,,,,,,,,,
017479,001,2022-11-20_17h50.26.870,Info_measure_main_exp,2022.2.2,Win32,19.89693388,,,,,,,,,,,,,,,,,,masks/mask_005.jpg,,,,,,,,,,,,,,,,,,,,,,,,,,,,,,,,,,,,,,,,,,,0,3,3,4,1,,,,,,,,,,,,,,,,,,,,,,,,,,,,,,,,,,,,,,,,,,,,,,
017479,001,2022-11-20_17h50.26.870,Info_measure_main_exp,2022.2.2,Win32,19.89693388,,,,,,,,,,,,,,,,,,masks/mask_001.jpg,,,,,,,,,,,,,,,,,,,,,,,,,,,,,,,,,,,,,,,,,,,0,4,4,0,1,,,,,,,,,,,,,,,,,,,,,,,,,,,,,,,,,,,,,,,,,,,,,,
017479,001,2022-11-20_17h50.26.870,Info_measure_main_exp,2022.2.2,Win32,19.89693388,,,,,,,,,,,,,,,,,,masks/mask_003.jpg,,,,,,,,,,,,,,,,,,,,,,,,,,,,,,,,,,,,,,,,,,,,,,,,0,0,0,2,1,,,,,,,,,,,,,,,,,,,,,,,,,,,,,,,,,,,,,,,,,
017479,001,2022-11-20_17h50.26.870,Info_measure_main_exp,2022.2.2,Win32,19.89693388,,,,,,,,,,,,,,,,,,masks/mask_002.jpg,,,,,,,,,,,,,,,,,,,,,,,,,,,,,,,,,,,,,,,,,,,,,,,,0,1,1,1,1,,,,,,,,,,,,,,,,,,,,,,,,,,,,,,,,,,,,,,,,,
017479,001,2022-11-20_17h50.26.870,Info_measure_main_exp,2022.2.2,Win32,19.89693388,,,,,,,,,,,,,,,,,,masks/mask_004.jpg,,,,,,,,,,,,,,,,,,,,,,,,,,,,,,,,,,,,,,,,,,,,,,,,0,2,2,3,1,,,,,,,,,,,,,,,,,,,,,,,,,,,,,,,,,,,,,,,,,
017479,001,2022-11-20_17h50.26.870,Info_measure_main_exp,2022.2.2,Win32,19.89693388,,,,,,,,,,,,,,,,,,masks/mask_005.jpg,,,,,,,,,,,,,,,,,,,,,,,,,,,,,,,,,,,,,,,,,,,,,,,,0,3,3,4,1,,,,,,,,,,,,,,,,,,,,,,,,,,,,,,,,,,,,,,,,,
017479,001,2022-11-20_17h50.26.870,Info_measure_main_exp,2022.2.2,Win32,19.89693388,,,,,,,,,,,,,,,,,,masks/mask_001.jpg,,,,,,,,,,,,,,,,,,,,,,,,,,,,,,,,,,,,,,,,,,,,,,,,0,4,4,0,1,,,,,,,,,,,,,,,,,,,,,,,,,,,,,,,,,,,,,,,,,
017479,001,2022-11-20_17h50.26.870,Info_measure_main_exp,2022.2.2,Win32,19.89693388,,,,,,,,,,,,,,,,,,,,,,,,,,,,,,4,6.0825,1,,,,,,,,,,,,0,131,5,5,2082,2238,absent_patch/patch0002082.jpg,absent_patch/patch0002238.jpg,,,,,,,,,,,,,,,,,,,,0.049479167,-0.15625,1,0,0,response3disk,10,0,-0.00390625,1,0,0,center_square,0,9,9,22,1,,,,,,,,,,,,,,,,,,,,,,,
017479,001,2022-11-20_17h50.26.870,Info_measure_main_exp,2022.2.2,Win32,19.89693388,,,,,,,,,,,,,,,,,,masks/mask_004.jpg,,,,,,,,,,,,,,,,,,,,,,,,,,,,,,,,,,,,,,,,,,,0,0,0,3,1,,,,,,,,,,,,,,,,,,,,,,,,,,,,,,,,,,,,,,,,,,,,,,
017479,001,2022-11-20_17h50.26.870,Info_measure_main_exp,2022.2.2,Win32,19.89693388,,,,,,,,,,,,,,,,,,masks/mask_002.jpg,,,,,,,,,,,,,,,,,,,,,,,,,,,,,,,,,,,,,,,,,,,0,1,1,1,1,,,,,,,,,,,,,,,,,,,,,,,,,,,,,,,,,,,,,,,,,,,,,,
017479,001,2022-11-20_17h50.26.870,Info_measure_main_exp,2022.2.2,Win32,19.89693388,,,,,,,,,,,,,,,,,,masks/mask_003.jpg,,,,,,,,,,,,,,,,,,,,,,,,,,,,,,,,,,,,,,,,,,,0,2,2,2,1,,,,,,,,,,,,,,,,,,,,,,,,,,,,,,,,,,,,,,,,,,,,,,
017479,001,2022-11-20_17h50.26.870,Info_measure_main_exp,2022.2.2,Win32,19.89693388,,,,,,,,,,,,,,,,,,masks/mask_001.jpg,,,,,,,,,,,,,,,,,,,,,,,,,,,,,,,,,,,,,,,,,,,0,3,3,0,1,,,,,,,,,,,,,,,,,,,,,,,,,,,,,,,,,,,,,,,,,,,,,,
017479,001,2022-11-20_17h50.26.870,Info_measure_main_exp,2022.2.2,Win32,19.89693388,,,,,,,,,,,,,,,,,,masks/mask_005.jpg,,,,,,,,,,,,,,,,,,,,,,,,,,,,,,,,,,,,,,,,,,,0,4,4,4,1,,,,,,,,,,,,,,,,,,,,,,,,,,,,,,,,,,,,,,,,,,,,,,
017479,001,2022-11-20_17h50.26.870,Info_measure_main_exp,2022.2.2,Win32,19.89693388,,,,,,,,,,,,,,,,,,masks/mask_002.jpg,,,,,,,,,,,,,,,,,,,,,,,,,,,,,,,,,,,,,,,,,,,,,,,,0,0,0,1,1,,,,,,,,,,,,,,,,,,,,,,,,,,,,,,,,,,,,,,,,,
017479,001,2022-11-20_17h50.26.870,Info_measure_main_exp,2022.2.2,Win32,19.89693388,,,,,,,,,,,,,,,,,,masks/mask_005.jpg,,,,,,,,,,,,,,,,,,,,,,,,,,,,,,,,,,,,,,,,,,,,,,,,0,1,1,4,1,,,,,,,,,,,,,,,,,,,,,,,,,,,,,,,,,,,,,,,,,
017479,001,2022-11-20_17h50.26.870,Info_measure_main_exp,2022.2.2,Win32,19.89693388,,,,,,,,,,,,,,,,,,masks/mask_003.jpg,,,,,,,,,,,,,,,,,,,,,,,,,,,,,,,,,,,,,,,,,,,,,,,,0,2,2,2,1,,,,,,,,,,,,,,,,,,,,,,,,,,,,,,,,,,,,,,,,,
017479,001,2022-11-20_17h50.26.870,Info_measure_main_exp,2022.2.2,Win32,19.89693388,,,,,,,,,,,,,,,,,,masks/mask_001.jpg,,,,,,,,,,,,,,,,,,,,,,,,,,,,,,,,,,,,,,,,,,,,,,,,0,3,3,0,1,,,,,,,,,,,,,,,,,,,,,,,,,,,,,,,,,,,,,,,,,
017479,001,2022-11-20_17h50.26.870,Info_measure_main_exp,2022.2.2,Win32,19.89693388,,,,,,,,,,,,,,,,,,masks/mask_004.jpg,,,,,,,,,,,,,,,,,,,,,,,,,,,,,,,,,,,,,,,,,,,,,,,,0,4,4,3,1,,,,,,,,,,,,,,,,,,,,,,,,,,,,,,,,,,,,,,,,,
017479,001,2022-11-20_17h50.26.870,Info_measure_main_exp,2022.2.2,Win32,19.89693388,,,,,,,,,,,,,,,,,,,,,,,,,,,,,,0,1.534,1,,,,,,,,,,,,0,131,5,5,2250,2250,absent_patch/patch0002250.jpg,absent_patch/patch0002250.jpg,,,,,,,,,,,,,,,,,,,,-0.040364583,0.157552083,1,0,0,response7disk,11,0.002604167,-0.001302083,1,0,0,center_square,0,10,10,56,1,,,,,,,,,,,,,,,,,,,,,,,
017479,001,2022-11-20_17h50.26.870,Info_measure_main_exp,2022.2.2,Win32,19.89693388,,,,,,,,,,,,,,,,,,masks/mask_005.jpg,,,,,,,,,,,,,,,,,,,,,,,,,,,,,,,,,,,,,,,,,,,0,0,0,4,1,,,,,,,,,,,,,,,,,,,,,,,,,,,,,,,,,,,,,,,,,,,,,,
017479,001,2022-11-20_17h50.26.870,Info_measure_main_exp,2022.2.2,Win32,19.89693388,,,,,,,,,,,,,,,,,,masks/mask_003.jpg,,,,,,,,,,,,,,,,,,,,,,,,,,,,,,,,,,,,,,,,,,,0,1,1,2,1,,,,,,,,,,,,,,,,,,,,,,,,,,,,,,,,,,,,,,,,,,,,,,
017479,001,2022-11-20_17h50.26.870,Info_measure_main_exp,2022.2.2,Win32,19.89693388,,,,,,,,,,,,,,,,,,masks/mask_004.jpg,,,,,,,,,,,,,,,,,,,,,,,,,,,,,,,,,,,,,,,,,,,0,2,2,3,1,,,,,,,,,,,,,,,,,,,,,,,,,,,,,,,,,,,,,,,,,,,,,,
017479,001,2022-11-20_17h50.26.870,Info_measure_main_exp,2022.2.2,Win32,19.89693388,,,,,,,,,,,,,,,,,,masks/mask_001.jpg,,,,,,,,,,,,,,,,,,,,,,,,,,,,,,,,,,,,,,,,,,,0,3,3,0,1,,,,,,,,,,,,,,,,,,,,,,,,,,,,,,,,,,,,,,,,,,,,,,
017479,001,2022-11-20_17h50.26.870,Info_measure_main_exp,2022.2.2,Win32,19.89693388,,,,,,,,,,,,,,,,,,masks/mask_002.jpg,,,,,,,,,,,,,,,,,,,,,,,,,,,,,,,,,,,,,,,,,,,0,4,4,1,1,,,,,,,,,,,,,,,,,,,,,,,,,,,,,,,,,,,,,,,,,,,,,,
017479,001,2022-11-20_17h50.26.870,Info_measure_main_exp,2022.2.2,Win32,19.89693388,,,,,,,,,,,,,,,,,,masks/mask_002.jpg,,,,,,,,,,,,,,,,,,,,,,,,,,,,,,,,,,,,,,,,,,,,,,,,0,0,0,1,1,,,,,,,,,,,,,,,,,,,,,,,,,,,,,,,,,,,,,,,,,
017479,001,2022-11-20_17h50.26.870,Info_measure_main_exp,2022.2.2,Win32,19.89693388,,,,,,,,,,,,,,,,,,masks/mask_001.jpg,,,,,,,,,,,,,,,,,,,,,,,,,,,,,,,,,,,,,,,,,,,,,,,,0,1,1,0,1,,,,,,,,,,,,,,,,,,,,,,,,,,,,,,,,,,,,,,,,,
017479,001,2022-11-20_17h50.26.870,Info_measure_main_exp,2022.2.2,Win32,19.89693388,,,,,,,,,,,,,,,,,,masks/mask_003.jpg,,,,,,,,,,,,,,,,,,,,,,,,,,,,,,,,,,,,,,,,,,,,,,,,0,2,2,2,1,,,,,,,,,,,,,,,,,,,,,,,,,,,,,,,,,,,,,,,,,
017479,001,2022-11-20_17h50.26.870,Info_measure_main_exp,2022.2.2,Win32,19.89693388,,,,,,,,,,,,,,,,,,masks/mask_005.jpg,,,,,,,,,,,,,,,,,,,,,,,,,,,,,,,,,,,,,,,,,,,,,,,,0,3,3,4,1,,,,,,,,,,,,,,,,,,,,,,,,,,,,,,,,,,,,,,,,,
017479,001,2022-11-20_17h50.26.870,Info_measure_main_exp,2022.2.2,Win32,19.89693388,,,,,,,,,,,,,,,,,,masks/mask_004.jpg,,,,,,,,,,,,,,,,,,,,,,,,,,,,,,,,,,,,,,,,,,,,,,,,0,4,4,3,1,,,,,,,,,,,,,,,,,,,,,,,,,,,,,,,,,,,,,,,,,
017479,001,2022-11-20_17h50.26.870,Info_measure_main_exp,2022.2.2,Win32,19.89693388,,,,,,,,,,,,,,,,,,,,,,,,,,,,,,3,4.941,1,,,,,,,,,,,,0,131,5,5,2238,2166,absent_patch/patch0002238.jpg,absent_patch/patch0002166.jpg,,,,,,,,,,,,,,,,,,,,-0.044270833,-0.157552083,1,0,0,response5disk,12,0,-0.005208333,1,0,0,center_square,0,11,11,118,1,,,,,,,,,,,,,,,,,,,,,,,
017479,001,2022-11-20_17h50.26.870,Info_measure_main_exp,2022.2.2,Win32,19.89693388,,,,,,,,,,,,,,,,,,masks/mask_003.jpg,,,,,,,,,,,,,,,,,,,,,,,,,,,,,,,,,,,,,,,,,,,0,0,0,2,1,,,,,,,,,,,,,,,,,,,,,,,,,,,,,,,,,,,,,,,,,,,,,,
017479,001,2022-11-20_17h50.26.870,Info_measure_main_exp,2022.2.2,Win32,19.89693388,,,,,,,,,,,,,,,,,,masks/mask_005.jpg,,,,,,,,,,,,,,,,,,,,,,,,,,,,,,,,,,,,,,,,,,,0,1,1,4,1,,,,,,,,,,,,,,,,,,,,,,,,,,,,,,,,,,,,,,,,,,,,,,
017479,001,2022-11-20_17h50.26.870,Info_measure_main_exp,2022.2.2,Win32,19.89693388,,,,,,,,,,,,,,,,,,masks/mask_001.jpg,,,,,,,,,,,,,,,,,,,,,,,,,,,,,,,,,,,,,,,,,,,0,2,2,0,1,,,,,,,,,,,,,,,,,,,,,,,,,,,,,,,,,,,,,,,,,,,,,,
017479,001,2022-11-20_17h50.26.870,Info_measure_main_exp,2022.2.2,Win32,19.89693388,,,,,,,,,,,,,,,,,,masks/mask_002.jpg,,,,,,,,,,,,,,,,,,,,,,,,,,,,,,,,,,,,,,,,,,,0,3,3,1,1,,,,,,,,,,,,,,,,,,,,,,,,,,,,,,,,,,,,,,,,,,,,,,
017479,001,2022-11-20_17h50.26.870,Info_measure_main_exp,2022.2.2,Win32,19.89693388,,,,,,,,,,,,,,,,,,masks/mask_004.jpg,,,,,,,,,,,,,,,,,,,,,,,,,,,,,,,,,,,,,,,,,,,0,4,4,3,1,,,,,,,,,,,,,,,,,,,,,,,,,,,,,,,,,,,,,,,,,,,,,,
017479,001,2022-11-20_17h50.26.870,Info_measure_main_exp,2022.2.2,Win32,19.89693388,,,,,,,,,,,,,,,,,,masks/mask_004.jpg,,,,,,,,,,,,,,,,,,,,,,,,,,,,,,,,,,,,,,,,,,,,,,,,0,0,0,3,1,,,,,,,,,,,,,,,,,,,,,,,,,,,,,,,,,,,,,,,,,
017479,001,2022-11-20_17h50.26.870,Info_measure_main_exp,2022.2.2,Win32,19.89693388,,,,,,,,,,,,,,,,,,masks/mask_001.jpg,,,,,,,,,,,,,,,,,,,,,,,,,,,,,,,,,,,,,,,,,,,,,,,,0,1,1,0,1,,,,,,,,,,,,,,,,,,,,,,,,,,,,,,,,,,,,,,,,,
017479,001,2022-11-20_17h50.26.870,Info_measure_main_exp,2022.2.2,Win32,19.89693388,,,,,,,,,,,,,,,,,,masks/mask_005.jpg,,,,,,,,,,,,,,,,,,,,,,,,,,,,,,,,,,,,,,,,,,,,,,,,0,2,2,4,1,,,,,,,,,,,,,,,,,,,,,,,,,,,,,,,,,,,,,,,,,
017479,001,2022-11-20_17h50.26.870,Info_measure_main_exp,2022.2.2,Win32,19.89693388,,,,,,,,,,,,,,,,,,masks/mask_003.jpg,,,,,,,,,,,,,,,,,,,,,,,,,,,,,,,,,,,,,,,,,,,,,,,,0,3,3,2,1,,,,,,,,,,,,,,,,,,,,,,,,,,,,,,,,,,,,,,,,,
017479,001,2022-11-20_17h50.26.870,Info_measure_main_exp,2022.2.2,Win32,19.89693388,,,,,,,,,,,,,,,,,,masks/mask_002.jpg,,,,,,,,,,,,,,,,,,,,,,,,,,,,,,,,,,,,,,,,,,,,,,,,0,4,4,1,1,,,,,,,,,,,,,,,,,,,,,,,,,,,,,,,,,,,,,,,,,
017479,001,2022-11-20_17h50.26.870,Info_measure_main_exp,2022.2.2,Win32,19.89693388,,,,,,,,,,,,,,,,,,,,,,,,,,,,,,4,7.6615,1,,,,,,,,,,,,0,131,5,5,2166,2154,absent_patch/patch0002166.jpg,absent_patch/patch0002154.jpg,,,,,,,,,,,,,,,,,,,,0.046875,-0.16796875,1,0,0,response3disk,13,-0.001302083,0.001302083,1,0,0,center_square,0,12,12,79,1,,,,,,,,,,,,,,,,,,,,,,,
017479,001,2022-11-20_17h50.26.870,Info_measure_main_exp,2022.2.2,Win32,19.89693388,,,,,,,,,,,,,,,,,,masks/mask_001.jpg,,,,,,,,,,,,,,,,,,,,,,,,,,,,,,,,,,,,,,,,,,,0,0,0,0,1,,,,,,,,,,,,,,,,,,,,,,,,,,,,,,,,,,,,,,,,,,,,,,
017479,001,2022-11-20_17h50.26.870,Info_measure_main_exp,2022.2.2,Win32,19.89693388,,,,,,,,,,,,,,,,,,masks/mask_005.jpg,,,,,,,,,,,,,,,,,,,,,,,,,,,,,,,,,,,,,,,,,,,0,1,1,4,1,,,,,,,,,,,,,,,,,,,,,,,,,,,,,,,,,,,,,,,,,,,,,,
017479,001,2022-11-20_17h50.26.870,Info_measure_main_exp,2022.2.2,Win32,19.89693388,,,,,,,,,,,,,,,,,,masks/mask_002.jpg,,,,,,,,,,,,,,,,,,,,,,,,,,,,,,,,,,,,,,,,,,,0,2,2,1,1,,,,,,,,,,,,,,,,,,,,,,,,,,,,,,,,,,,,,,,,,,,,,,
017479,001,2022-11-20_17h50.26.870,Info_measure_main_exp,2022.2.2,Win32,19.89693388,,,,,,,,,,,,,,,,,,masks/mask_003.jpg,,,,,,,,,,,,,,,,,,,,,,,,,,,,,,,,,,,,,,,,,,,0,3,3,2,1,,,,,,,,,,,,,,,,,,,,,,,,,,,,,,,,,,,,,,,,,,,,,,
017479,001,2022-11-20_17h50.26.870,Info_measure_main_exp,2022.2.2,Win32,19.89693388,,,,,,,,,,,,,,,,,,masks/mask_004.jpg,,,,,,,,,,,,,,,,,,,,,,,,,,,,,,,,,,,,,,,,,,,0,4,4,3,1,,,,,,,,,,,,,,,,,,,,,,,,,,,,,,,,,,,,,,,,,,,,,,
017479,001,2022-11-20_17h50.26.870,Info_measure_main_exp,2022.2.2,Win32,19.89693388,,,,,,,,,,,,,,,,,,masks/mask_004.jpg,,,,,,,,,,,,,,,,,,,,,,,,,,,,,,,,,,,,,,,,,,,,,,,,0,0,0,3,1,,,,,,,,,,,,,,,,,,,,,,,,,,,,,,,,,,,,,,,,,
017479,001,2022-11-20_17h50.26.870,Info_measure_main_exp,2022.2.2,Win32,19.89693388,,,,,,,,,,,,,,,,,,masks/mask_003.jpg,,,,,,,,,,,,,,,,,,,,,,,,,,,,,,,,,,,,,,,,,,,,,,,,0,1,1,2,1,,,,,,,,,,,,,,,,,,,,,,,,,,,,,,,,,,,,,,,,,
017479,001,2022-11-20_17h50.26.870,Info_measure_main_exp,2022.2.2,Win32,19.89693388,,,,,,,,,,,,,,,,,,masks/mask_005.jpg,,,,,,,,,,,,,,,,,,,,,,,,,,,,,,,,,,,,,,,,,,,,,,,,0,2,2,4,1,,,,,,,,,,,,,,,,,,,,,,,,,,,,,,,,,,,,,,,,,
017479,001,2022-11-20_17h50.26.870,Info_measure_main_exp,2022.2.2,Win32,19.89693388,,,,,,,,,,,,,,,,,,masks/mask_002.jpg,,,,,,,,,,,,,,,,,,,,,,,,,,,,,,,,,,,,,,,,,,,,,,,,0,3,3,1,1,,,,,,,,,,,,,,,,,,,,,,,,,,,,,,,,,,,,,,,,,
017479,001,2022-11-20_17h50.26.870,Info_measure_main_exp,2022.2.2,Win32,19.89693388,,,,,,,,,,,,,,,,,,masks/mask_001.jpg,,,,,,,,,,,,,,,,,,,,,,,,,,,,,,,,,,,,,,,,,,,,,,,,0,4,4,0,1,,,,,,,,,,,,,,,,,,,,,,,,,,,,,,,,,,,,,,,,,
017479,001,2022-11-20_17h50.26.870,Info_measure_main_exp,2022.2.2,Win32,19.89693388,,,,,,,,,,,,,,,,,,,,,,,,,,,,,,7,2.7977,1,,,,,,,,,,,,0,131,5,5,2274,1950,absent_patch/patch0002274.jpg,absent_patch/patch0001950.jpg,,,,,,,,,,,,,,,,,,,,0.045572917,0.16015625,1,0,0,response1disk,14,-0.002604167,0,1,0,0,center_square,0,13,13,10,1,,,,,,,,,,,,,,,,,,,,,,,
017479,001,2022-11-20_17h50.26.870,Info_measure_main_exp,2022.2.2,Win32,19.89693388,,,,,,,,,,,,,,,,,,masks/mask_004.jpg,,,,,,,,,,,,,,,,,,,,,,,,,,,,,,,,,,,,,,,,,,,0,0,0,3,1,,,,,,,,,,,,,,,,,,,,,,,,,,,,,,,,,,,,,,,,,,,,,,
017479,001,2022-11-20_17h50.26.870,Info_measure_main_exp,2022.2.2,Win32,19.89693388,,,,,,,,,,,,,,,,,,masks/mask_001.jpg,,,,,,,,,,,,,,,,,,,,,,,,,,,,,,,,,,,,,,,,,,,0,1,1,0,1,,,,,,,,,,,,,,,,,,,,,,,,,,,,,,,,,,,,,,,,,,,,,,
017479,001,2022-11-20_17h50.26.870,Info_measure_main_exp,2022.2.2,Win32,19.89693388,,,,,,,,,,,,,,,,,,masks/mask_005.jpg,,,,,,,,,,,,,,,,,,,,,,,,,,,,,,,,,,,,,,,,,,,0,2,2,4,1,,,,,,,,,,,,,,,,,,,,,,,,,,,,,,,,,,,,,,,,,,,,,,
017479,001,2022-11-20_17h50.26.870,Info_measure_main_exp,2022.2.2,Win32,19.89693388,,,,,,,,,,,,,,,,,,masks/mask_003.jpg,,,,,,,,,,,,,,,,,,,,,,,,,,,,,,,,,,,,,,,,,,,0,3,3,2,1,,,,,,,,,,,,,,,,,,,,,,,,,,,,,,,,,,,,,,,,,,,,,,
017479,001,2022-11-20_17h50.26.870,Info_measure_main_exp,2022.2.2,Win32,19.89693388,,,,,,,,,,,,,,,,,,masks/mask_002.jpg,,,,,,,,,,,,,,,,,,,,,,,,,,,,,,,,,,,,,,,,,,,0,4,4,1,1,,,,,,,,,,,,,,,,,,,,,,,,,,,,,,,,,,,,,,,,,,,,,,
017479,001,2022-11-20_17h50.26.870,Info_measure_main_exp,2022.2.2,Win32,19.89693388,,,,,,,,,,,,,,,,,,masks/mask_004.jpg,,,,,,,,,,,,,,,,,,,,,,,,,,,,,,,,,,,,,,,,,,,,,,,,0,0,0,3,1,,,,,,,,,,,,,,,,,,,,,,,,,,,,,,,,,,,,,,,,,
017479,001,2022-11-20_17h50.26.870,Info_measure_main_exp,2022.2.2,Win32,19.89693388,,,,,,,,,,,,,,,,,,masks/mask_003.jpg,,,,,,,,,,,,,,,,,,,,,,,,,,,,,,,,,,,,,,,,,,,,,,,,0,1,1,2,1,,,,,,,,,,,,,,,,,,,,,,,,,,,,,,,,,,,,,,,,,
017479,001,2022-11-20_17h50.26.870,Info_measure_main_exp,2022.2.2,Win32,19.89693388,,,,,,,,,,,,,,,,,,masks/mask_002.jpg,,,,,,,,,,,,,,,,,,,,,,,,,,,,,,,,,,,,,,,,,,,,,,,,0,2,2,1,1,,,,,,,,,,,,,,,,,,,,,,,,,,,,,,,,,,,,,,,,,
017479,001,2022-11-20_17h50.26.870,Info_measure_main_exp,2022.2.2,Win32,19.89693388,,,,,,,,,,,,,,,,,,masks/mask_001.jpg,,,,,,,,,,,,,,,,,,,,,,,,,,,,,,,,,,,,,,,,,,,,,,,,0,3,3,0,1,,,,,,,,,,,,,,,,,,,,,,,,,,,,,,,,,,,,,,,,,
017479,001,2022-11-20_17h50.26.870,Info_measure_main_exp,2022.2.2,Win32,19.89693388,,,,,,,,,,,,,,,,,,masks/mask_005.jpg,,,,,,,,,,,,,,,,,,,,,,,,,,,,,,,,,,,,,,,,,,,,,,,,0,4,4,4,1,,,,,,,,,,,,,,,,,,,,,,,,,,,,,,,,,,,,,,,,,
017479,001,2022-11-20_17h50.26.870,Info_measure_main_exp,2022.2.2,Win32,19.89693388,,,,,,,,,,,,,,,,,,,,,,,,,,,,,,7,1.5599,1,,,,,,,,,,,,0,131,5,5,2154,2250,absent_patch/patch0002154.jpg,absent_patch/patch0002250.jpg,,,,,,,,,,,,,,,,,,,,0.048177083,0.170572917,1,0,0,response1disk,15,0.001302083,0.00390625,1,0,0,center_square,0,14,14,108,1,,,,,,,,,,,,,,,,,,,,,,,
017479,001,2022-11-20_17h50.26.870,Info_measure_main_exp,2022.2.2,Win32,19.89693388,,,,,,,,,,,,,,,,,,masks/mask_002.jpg,,,,,,,,,,,,,,,,,,,,,,,,,,,,,,,,,,,,,,,,,,,0,0,0,1,1,,,,,,,,,,,,,,,,,,,,,,,,,,,,,,,,,,,,,,,,,,,,,,
017479,001,2022-11-20_17h50.26.870,Info_measure_main_exp,2022.2.2,Win32,19.89693388,,,,,,,,,,,,,,,,,,masks/mask_005.jpg,,,,,,,,,,,,,,,,,,,,,,,,,,,,,,,,,,,,,,,,,,,0,1,1,4,1,,,,,,,,,,,,,,,,,,,,,,,,,,,,,,,,,,,,,,,,,,,,,,
017479,001,2022-11-20_17h50.26.870,Info_measure_main_exp,2022.2.2,Win32,19.89693388,,,,,,,,,,,,,,,,,,masks/mask_001.jpg,,,,,,,,,,,,,,,,,,,,,,,,,,,,,,,,,,,,,,,,,,,0,2,2,0,1,,,,,,,,,,,,,,,,,,,,,,,,,,,,,,,,,,,,,,,,,,,,,,
017479,001,2022-11-20_17h50.26.870,Info_measure_main_exp,2022.2.2,Win32,19.89693388,,,,,,,,,,,,,,,,,,masks/mask_004.jpg,,,,,,,,,,,,,,,,,,,,,,,,,,,,,,,,,,,,,,,,,,,0,3,3,3,1,,,,,,,,,,,,,,,,,,,,,,,,,,,,,,,,,,,,,,,,,,,,,,
017479,001,2022-11-20_17h50.26.870,Info_measure_main_exp,2022.2.2,Win32,19.89693388,,,,,,,,,,,,,,,,,,masks/mask_003.jpg,,,,,,,,,,,,,,,,,,,,,,,,,,,,,,,,,,,,,,,,,,,0,4,4,2,1,,,,,,,,,,,,,,,,,,,,,,,,,,,,,,,,,,,,,,,,,,,,,,
017479,001,2022-11-20_17h50.26.870,Info_measure_main_exp,2022.2.2,Win32,19.89693388,,,,,,,,,,,,,,,,,,masks/mask_003.jpg,,,,,,,,,,,,,,,,,,,,,,,,,,,,,,,,,,,,,,,,,,,,,,,,0,0,0,2,1,,,,,,,,,,,,,,,,,,,,,,,,,,,,,,,,,,,,,,,,,
017479,001,2022-11-20_17h50.26.870,Info_measure_main_exp,2022.2.2,Win32,19.89693388,,,,,,,,,,,,,,,,,,masks/mask_002.jpg,,,,,,,,,,,,,,,,,,,,,,,,,,,,,,,,,,,,,,,,,,,,,,,,0,1,1,1,1,,,,,,,,,,,,,,,,,,,,,,,,,,,,,,,,,,,,,,,,,
017479,001,2022-11-20_17h50.26.870,Info_measure_main_exp,2022.2.2,Win32,19.89693388,,,,,,,,,,,,,,,,,,masks/mask_005.jpg,,,,,,,,,,,,,,,,,,,,,,,,,,,,,,,,,,,,,,,,,,,,,,,,0,2,2,4,1,,,,,,,,,,,,,,,,,,,,,,,,,,,,,,,,,,,,,,,,,
017479,001,2022-11-20_17h50.26.870,Info_measure_main_exp,2022.2.2,Win32,19.89693388,,,,,,,,,,,,,,,,,,masks/mask_004.jpg,,,,,,,,,,,,,,,,,,,,,,,,,,,,,,,,,,,,,,,,,,,,,,,,0,3,3,3,1,,,,,,,,,,,,,,,,,,,,,,,,,,,,,,,,,,,,,,,,,
017479,001,2022-11-20_17h50.26.870,Info_measure_main_exp,2022.2.2,Win32,19.89693388,,,,,,,,,,,,,,,,,,masks/mask_001.jpg,,,,,,,,,,,,,,,,,,,,,,,,,,,,,,,,,,,,,,,,,,,,,,,,0,4,4,0,1,,,,,,,,,,,,,,,,,,,,,,,,,,,,,,,,,,,,,,,,,
017479,001,2022-11-20_17h50.26.870,Info_measure_main_exp,2022.2.2,Win32,19.89693388,,,,,,,,,,,,,,,,,,,,,,,,,,,,,,2,2.4456,1,,,,,,,,,,,,0,131,5,5,1950,2238,absent_patch/patch0001950.jpg,absent_patch/patch0002238.jpg,,,,,,,,,,,,,,,,,,,,-0.1328125,-0.036458333,1,0,0,response5disk,16,-0.001302083,-0.001302083,1,0,0,center_square,0,15,15,8,1,,,,,,,,,,,,,,,,,,,,,,,
017479,001,2022-11-20_17h50.26.870,Info_measure_main_exp,2022.2.2,Win32,19.89693388,,,,,,,,,,,,,,,,,,masks/mask_004.jpg,,,,,,,,,,,,,,,,,,,,,,,,,,,,,,,,,,,,,,,,,,,0,0,0,3,1,,,,,,,,,,,,,,,,,,,,,,,,,,,,,,,,,,,,,,,,,,,,,,
017479,001,2022-11-20_17h50.26.870,Info_measure_main_exp,2022.2.2,Win32,19.89693388,,,,,,,,,,,,,,,,,,masks/mask_003.jpg,,,,,,,,,,,,,,,,,,,,,,,,,,,,,,,,,,,,,,,,,,,0,1,1,2,1,,,,,,,,,,,,,,,,,,,,,,,,,,,,,,,,,,,,,,,,,,,,,,
017479,001,2022-11-20_17h50.26.870,Info_measure_main_exp,2022.2.2,Win32,19.89693388,,,,,,,,,,,,,,,,,,masks/mask_001.jpg,,,,,,,,,,,,,,,,,,,,,,,,,,,,,,,,,,,,,,,,,,,0,2,2,0,1,,,,,,,,,,,,,,,,,,,,,,,,,,,,,,,,,,,,,,,,,,,,,,
017479,001,2022-11-20_17h50.26.870,Info_measure_main_exp,2022.2.2,Win32,19.89693388,,,,,,,,,,,,,,,,,,masks/mask_005.jpg,,,,,,,,,,,,,,,,,,,,,,,,,,,,,,,,,,,,,,,,,,,0,3,3,4,1,,,,,,,,,,,,,,,,,,,,,,,,,,,,,,,,,,,,,,,,,,,,,,
017479,001,2022-11-20_17h50.26.870,Info_measure_main_exp,2022.2.2,Win32,19.89693388,,,,,,,,,,,,,,,,,,masks/mask_002.jpg,,,,,,,,,,,,,,,,,,,,,,,,,,,,,,,,,,,,,,,,,,,0,4,4,1,1,,,,,,,,,,,,,,,,,,,,,,,,,,,,,,,,,,,,,,,,,,,,,,
017479,001,2022-11-20_17h50.26.870,Info_measure_main_exp,2022.2.2,Win32,19.89693388,,,,,,,,,,,,,,,,,,masks/mask_005.jpg,,,,,,,,,,,,,,,,,,,,,,,,,,,,,,,,,,,,,,,,,,,,,,,,0,0,0,4,1,,,,,,,,,,,,,,,,,,,,,,,,,,,,,,,,,,,,,,,,,
017479,001,2022-11-20_17h50.26.870,Info_measure_main_exp,2022.2.2,Win32,19.89693388,,,,,,,,,,,,,,,,,,masks/mask_004.jpg,,,,,,,,,,,,,,,,,,,,,,,,,,,,,,,,,,,,,,,,,,,,,,,,0,1,1,3,1,,,,,,,,,,,,,,,,,,,,,,,,,,,,,,,,,,,,,,,,,
017479,001,2022-11-20_17h50.26.870,Info_measure_main_exp,2022.2.2,Win32,19.89693388,,,,,,,,,,,,,,,,,,masks/mask_001.jpg,,,,,,,,,,,,,,,,,,,,,,,,,,,,,,,,,,,,,,,,,,,,,,,,0,2,2,0,1,,,,,,,,,,,,,,,,,,,,,,,,,,,,,,,,,,,,,,,,,
017479,001,2022-11-20_17h50.26.870,Info_measure_main_exp,2022.2.2,Win32,19.89693388,,,,,,,,,,,,,,,,,,masks/mask_002.jpg,,,,,,,,,,,,,,,,,,,,,,,,,,,,,,,,,,,,,,,,,,,,,,,,0,3,3,1,1,,,,,,,,,,,,,,,,,,,,,,,,,,,,,,,,,,,,,,,,,
017479,001,2022-11-20_17h50.26.870,Info_measure_main_exp,2022.2.2,Win32,19.89693388,,,,,,,,,,,,,,,,,,masks/mask_003.jpg,,,,,,,,,,,,,,,,,,,,,,,,,,,,,,,,,,,,,,,,,,,,,,,,0,4,4,2,1,,,,,,,,,,,,,,,,,,,,,,,,,,,,,,,,,,,,,,,,,
017479,001,2022-11-20_17h50.26.870,Info_measure_main_exp,2022.2.2,Win32,19.89693388,,,,,,,,,,,,,,,,,,,,,,,,,,,,,,2,5.0498,1,,,,,,,,,,,,1,131,5,5,1,2178,present_patch/cong_131_5_a.jpg,absent_patch/patch0002178.jpg,,,,,,,,,,,,,,,,,,,,-0.131510417,-0.03515625,1,0,0,response5disk,17,0,0.002604167,1,0,0,center_square,0,16,16,40,1,,,,,,,,,,,,,,,,,,,,,,,
017479,001,2022-11-20_17h50.26.870,Info_measure_main_exp,2022.2.2,Win32,19.89693388,,,,,,,,,,,,,,,,,,masks/mask_001.jpg,,,,,,,,,,,,,,,,,,,,,,,,,,,,,,,,,,,,,,,,,,,0,0,0,0,1,,,,,,,,,,,,,,,,,,,,,,,,,,,,,,,,,,,,,,,,,,,,,,
017479,001,2022-11-20_17h50.26.870,Info_measure_main_exp,2022.2.2,Win32,19.89693388,,,,,,,,,,,,,,,,,,masks/mask_005.jpg,,,,,,,,,,,,,,,,,,,,,,,,,,,,,,,,,,,,,,,,,,,0,1,1,4,1,,,,,,,,,,,,,,,,,,,,,,,,,,,,,,,,,,,,,,,,,,,,,,
017479,001,2022-11-20_17h50.26.870,Info_measure_main_exp,2022.2.2,Win32,19.89693388,,,,,,,,,,,,,,,,,,masks/mask_004.jpg,,,,,,,,,,,,,,,,,,,,,,,,,,,,,,,,,,,,,,,,,,,0,2,2,3,1,,,,,,,,,,,,,,,,,,,,,,,,,,,,,,,,,,,,,,,,,,,,,,
017479,001,2022-11-20_17h50.26.870,Info_measure_main_exp,2022.2.2,Win32,19.89693388,,,,,,,,,,,,,,,,,,masks/mask_002.jpg,,,,,,,,,,,,,,,,,,,,,,,,,,,,,,,,,,,,,,,,,,,0,3,3,1,1,,,,,,,,,,,,,,,,,,,,,,,,,,,,,,,,,,,,,,,,,,,,,,
017479,001,2022-11-20_17h50.26.870,Info_measure_main_exp,2022.2.2,Win32,19.89693388,,,,,,,,,,,,,,,,,,masks/mask_003.jpg,,,,,,,,,,,,,,,,,,,,,,,,,,,,,,,,,,,,,,,,,,,0,4,4,2,1,,,,,,,,,,,,,,,,,,,,,,,,,,,,,,,,,,,,,,,,,,,,,,
017479,001,2022-11-20_17h50.26.870,Info_measure_main_exp,2022.2.2,Win32,19.89693388,,,,,,,,,,,,,,,,,,masks/mask_004.jpg,,,,,,,,,,,,,,,,,,,,,,,,,,,,,,,,,,,,,,,,,,,,,,,,0,0,0,3,1,,,,,,,,,,,,,,,,,,,,,,,,,,,,,,,,,,,,,,,,,
017479,001,2022-11-20_17h50.26.870,Info_measure_main_exp,2022.2.2,Win32,19.89693388,,,,,,,,,,,,,,,,,,masks/mask_001.jpg,,,,,,,,,,,,,,,,,,,,,,,,,,,,,,,,,,,,,,,,,,,,,,,,0,1,1,0,1,,,,,,,,,,,,,,,,,,,,,,,,,,,,,,,,,,,,,,,,,
017479,001,2022-11-20_17h50.26.870,Info_measure_main_exp,2022.2.2,Win32,19.89693388,,,,,,,,,,,,,,,,,,masks/mask_002.jpg,,,,,,,,,,,,,,,,,,,,,,,,,,,,,,,,,,,,,,,,,,,,,,,,0,2,2,1,1,,,,,,,,,,,,,,,,,,,,,,,,,,,,,,,,,,,,,,,,,
017479,001,2022-11-20_17h50.26.870,Info_measure_main_exp,2022.2.2,Win32,19.89693388,,,,,,,,,,,,,,,,,,masks/mask_003.jpg,,,,,,,,,,,,,,,,,,,,,,,,,,,,,,,,,,,,,,,,,,,,,,,,0,3,3,2,1,,,,,,,,,,,,,,,,,,,,,,,,,,,,,,,,,,,,,,,,,
017479,001,2022-11-20_17h50.26.870,Info_measure_main_exp,2022.2.2,Win32,19.89693388,,,,,,,,,,,,,,,,,,masks/mask_005.jpg,,,,,,,,,,,,,,,,,,,,,,,,,,,,,,,,,,,,,,,,,,,,,,,,0,4,4,4,1,,,,,,,,,,,,,,,,,,,,,,,,,,,,,,,,,,,,,,,,,
017479,001,2022-11-20_17h50.26.870,Info_measure_main_exp,2022.2.2,Win32,19.89693388,,,,,,,,,,,,,,,,,,,,,,,,,,,,,,0,1.2549,1,,,,,,,,,,,,0,131,5,5,2166,2166,absent_patch/patch0002166.jpg,absent_patch/patch0002166.jpg,,,,,,,,,,,,,,,,,,,,-0.04296875,0.158854167,1,0,0,response7disk,18,-0.002604167,0.001302083,1,0,0,center_square,0,17,17,42,1,,,,,,,,,,,,,,,,,,,,,,,
017479,001,2022-11-20_17h50.26.870,Info_measure_main_exp,2022.2.2,Win32,19.89693388,,,,,,,,,,,,,,,,,,masks/mask_003.jpg,,,,,,,,,,,,,,,,,,,,,,,,,,,,,,,,,,,,,,,,,,,0,0,0,2,1,,,,,,,,,,,,,,,,,,,,,,,,,,,,,,,,,,,,,,,,,,,,,,
017479,001,2022-11-20_17h50.26.870,Info_measure_main_exp,2022.2.2,Win32,19.89693388,,,,,,,,,,,,,,,,,,masks/mask_002.jpg,,,,,,,,,,,,,,,,,,,,,,,,,,,,,,,,,,,,,,,,,,,0,1,1,1,1,,,,,,,,,,,,,,,,,,,,,,,,,,,,,,,,,,,,,,,,,,,,,,
017479,001,2022-11-20_17h50.26.870,Info_measure_main_exp,2022.2.2,Win32,19.89693388,,,,,,,,,,,,,,,,,,masks/mask_005.jpg,,,,,,,,,,,,,,,,,,,,,,,,,,,,,,,,,,,,,,,,,,,0,2,2,4,1,,,,,,,,,,,,,,,,,,,,,,,,,,,,,,,,,,,,,,,,,,,,,,
017479,001,2022-11-20_17h50.26.870,Info_measure_main_exp,2022.2.2,Win32,19.89693388,,,,,,,,,,,,,,,,,,masks/mask_004.jpg,,,,,,,,,,,,,,,,,,,,,,,,,,,,,,,,,,,,,,,,,,,0,3,3,3,1,,,,,,,,,,,,,,,,,,,,,,,,,,,,,,,,,,,,,,,,,,,,,,
017479,001,2022-11-20_17h50.26.870,Info_measure_main_exp,2022.2.2,Win32,19.89693388,,,,,,,,,,,,,,,,,,masks/mask_001.jpg,,,,,,,,,,,,,,,,,,,,,,,,,,,,,,,,,,,,,,,,,,,0,4,4,0,1,,,,,,,,,,,,,,,,,,,,,,,,,,,,,,,,,,,,,,,,,,,,,,
017479,001,2022-11-20_17h50.26.870,Info_measure_main_exp,2022.2.2,Win32,19.89693388,,,,,,,,,,,,,,,,,,masks/mask_003.jpg,,,,,,,,,,,,,,,,,,,,,,,,,,,,,,,,,,,,,,,,,,,,,,,,0,0,0,2,1,,,,,,,,,,,,,,,,,,,,,,,,,,,,,,,,,,,,,,,,,
017479,001,2022-11-20_17h50.26.870,Info_measure_main_exp,2022.2.2,Win32,19.89693388,,,,,,,,,,,,,,,,,,masks/mask_004.jpg,,,,,,,,,,,,,,,,,,,,,,,,,,,,,,,,,,,,,,,,,,,,,,,,0,1,1,3,1,,,,,,,,,,,,,,,,,,,,,,,,,,,,,,,,,,,,,,,,,
017479,001,2022-11-20_17h50.26.870,Info_measure_main_exp,2022.2.2,Win32,19.89693388,,,,,,,,,,,,,,,,,,masks/mask_005.jpg,,,,,,,,,,,,,,,,,,,,,,,,,,,,,,,,,,,,,,,,,,,,,,,,0,2,2,4,1,,,,,,,,,,,,,,,,,,,,,,,,,,,,,,,,,,,,,,,,,
017479,001,2022-11-20_17h50.26.870,Info_measure_main_exp,2022.2.2,Win32,19.89693388,,,,,,,,,,,,,,,,,,masks/mask_001.jpg,,,,,,,,,,,,,,,,,,,,,,,,,,,,,,,,,,,,,,,,,,,,,,,,0,3,3,0,1,,,,,,,,,,,,,,,,,,,,,,,,,,,,,,,,,,,,,,,,,
017479,001,2022-11-20_17h50.26.870,Info_measure_main_exp,2022.2.2,Win32,19.89693388,,,,,,,,,,,,,,,,,,masks/mask_002.jpg,,,,,,,,,,,,,,,,,,,,,,,,,,,,,,,,,,,,,,,,,,,,,,,,0,4,4,1,1,,,,,,,,,,,,,,,,,,,,,,,,,,,,,,,,,,,,,,,,,
017479,001,2022-11-20_17h50.26.870,Info_measure_main_exp,2022.2.2,Win32,19.89693388,,,,,,,,,,,,,,,,,,,,,,,,,,,,,,5,2.4851,1,,,,,,,,,,,,0,131,5,5,2082,2178,absent_patch/patch0002082.jpg,absent_patch/patch0002178.jpg,,,,,,,,,,,,,,,,,,,,0.134114583,-0.03125,1,0,0,response3disk,19,0.001302083,0.001302083,1,0,0,center_square,0,18,18,2,1,,,,,,,,,,,,,,,,,,,,,,,
017479,001,2022-11-20_17h50.26.870,Info_measure_main_exp,2022.2.2,Win32,19.89693388,,,,,,,,,,,,,,,,,,masks/mask_001.jpg,,,,,,,,,,,,,,,,,,,,,,,,,,,,,,,,,,,,,,,,,,,0,0,0,0,1,,,,,,,,,,,,,,,,,,,,,,,,,,,,,,,,,,,,,,,,,,,,,,
017479,001,2022-11-20_17h50.26.870,Info_measure_main_exp,2022.2.2,Win32,19.89693388,,,,,,,,,,,,,,,,,,masks/mask_004.jpg,,,,,,,,,,,,,,,,,,,,,,,,,,,,,,,,,,,,,,,,,,,0,1,1,3,1,,,,,,,,,,,,,,,,,,,,,,,,,,,,,,,,,,,,,,,,,,,,,,
017479,001,2022-11-20_17h50.26.870,Info_measure_main_exp,2022.2.2,Win32,19.89693388,,,,,,,,,,,,,,,,,,masks/mask_002.jpg,,,,,,,,,,,,,,,,,,,,,,,,,,,,,,,,,,,,,,,,,,,0,2,2,1,1,,,,,,,,,,,,,,,,,,,,,,,,,,,,,,,,,,,,,,,,,,,,,,
017479,001,2022-11-20_17h50.26.870,Info_measure_main_exp,2022.2.2,Win32,19.89693388,,,,,,,,,,,,,,,,,,masks/mask_005.jpg,,,,,,,,,,,,,,,,,,,,,,,,,,,,,,,,,,,,,,,,,,,0,3,3,4,1,,,,,,,,,,,,,,,,,,,,,,,,,,,,,,,,,,,,,,,,,,,,,,
017479,001,2022-11-20_17h50.26.870,Info_measure_main_exp,2022.2.2,Win32,19.89693388,,,,,,,,,,,,,,,,,,masks/mask_003.jpg,,,,,,,,,,,,,,,,,,,,,,,,,,,,,,,,,,,,,,,,,,,0,4,4,2,1,,,,,,,,,,,,,,,,,,,,,,,,,,,,,,,,,,,,,,,,,,,,,,
017479,001,2022-11-20_17h50.26.870,Info_measure_main_exp,2022.2.2,Win32,19.89693388,,,,,,,,,,,,,,,,,,masks/mask_001.jpg,,,,,,,,,,,,,,,,,,,,,,,,,,,,,,,,,,,,,,,,,,,,,,,,0,0,0,0,1,,,,,,,,,,,,,,,,,,,,,,,,,,,,,,,,,,,,,,,,,
017479,001,2022-11-20_17h50.26.870,Info_measure_main_exp,2022.2.2,Win32,19.89693388,,,,,,,,,,,,,,,,,,masks/mask_002.jpg,,,,,,,,,,,,,,,,,,,,,,,,,,,,,,,,,,,,,,,,,,,,,,,,0,1,1,1,1,,,,,,,,,,,,,,,,,,,,,,,,,,,,,,,,,,,,,,,,,
017479,001,2022-11-20_17h50.26.870,Info_measure_main_exp,2022.2.2,Win32,19.89693388,,,,,,,,,,,,,,,,,,masks/mask_004.jpg,,,,,,,,,,,,,,,,,,,,,,,,,,,,,,,,,,,,,,,,,,,,,,,,0,2,2,3,1,,,,,,,,,,,,,,,,,,,,,,,,,,,,,,,,,,,,,,,,,
017479,001,2022-11-20_17h50.26.870,Info_measure_main_exp,2022.2.2,Win32,19.89693388,,,,,,,,,,,,,,,,,,masks/mask_005.jpg,,,,,,,,,,,,,,,,,,,,,,,,,,,,,,,,,,,,,,,,,,,,,,,,0,3,3,4,1,,,,,,,,,,,,,,,,,,,,,,,,,,,,,,,,,,,,,,,,,
017479,001,2022-11-20_17h50.26.870,Info_measure_main_exp,2022.2.2,Win32,19.89693388,,,,,,,,,,,,,,,,,,masks/mask_003.jpg,,,,,,,,,,,,,,,,,,,,,,,,,,,,,,,,,,,,,,,,,,,,,,,,0,4,4,2,1,,,,,,,,,,,,,,,,,,,,,,,,,,,,,,,,,,,,,,,,,
017479,001,2022-11-20_17h50.26.870,Info_measure_main_exp,2022.2.2,Win32,19.89693388,,,,,,,,,,,,,,,,,,,,,,,,,,,,,,6,2.104,1,,,,,,,,,,,,0,131,5,5,2154,2214,absent_patch/patch0002154.jpg,absent_patch/patch0002214.jpg,,,,,,,,,,,,,,,,,,,,0.157552083,0.0390625,1,0,0,response1disk,20,0.002604167,0,1,0,0,center_square,0,19,19,67,1,,,,,,,,,,,,,,,,,,,,,,,
017479,001,2022-11-20_17h50.26.870,Info_measure_main_exp,2022.2.2,Win32,19.89693388,,,,,,,,,,,,,,,,,,masks/mask_001.jpg,,,,,,,,,,,,,,,,,,,,,,,,,,,,,,,,,,,,,,,,,,,0,0,0,0,1,,,,,,,,,,,,,,,,,,,,,,,,,,,,,,,,,,,,,,,,,,,,,,
017479,001,2022-11-20_17h50.26.870,Info_measure_main_exp,2022.2.2,Win32,19.89693388,,,,,,,,,,,,,,,,,,masks/mask_003.jpg,,,,,,,,,,,,,,,,,,,,,,,,,,,,,,,,,,,,,,,,,,,0,1,1,2,1,,,,,,,,,,,,,,,,,,,,,,,,,,,,,,,,,,,,,,,,,,,,,,
017479,001,2022-11-20_17h50.26.870,Info_measure_main_exp,2022.2.2,Win32,19.89693388,,,,,,,,,,,,,,,,,,masks/mask_005.jpg,,,,,,,,,,,,,,,,,,,,,,,,,,,,,,,,,,,,,,,,,,,0,2,2,4,1,,,,,,,,,,,,,,,,,,,,,,,,,,,,,,,,,,,,,,,,,,,,,,
017479,001,2022-11-20_17h50.26.870,Info_measure_main_exp,2022.2.2,Win32,19.89693388,,,,,,,,,,,,,,,,,,masks/mask_004.jpg,,,,,,,,,,,,,,,,,,,,,,,,,,,,,,,,,,,,,,,,,,,0,3,3,3,1,,,,,,,,,,,,,,,,,,,,,,,,,,,,,,,,,,,,,,,,,,,,,,
017479,001,2022-11-20_17h50.26.870,Info_measure_main_exp,2022.2.2,Win32,19.89693388,,,,,,,,,,,,,,,,,,masks/mask_002.jpg,,,,,,,,,,,,,,,,,,,,,,,,,,,,,,,,,,,,,,,,,,,0,4,4,1,1,,,,,,,,,,,,,,,,,,,,,,,,,,,,,,,,,,,,,,,,,,,,,,
017479,001,2022-11-20_17h50.26.870,Info_measure_main_exp,2022.2.2,Win32,19.89693388,,,,,,,,,,,,,,,,,,masks/mask_003.jpg,,,,,,,,,,,,,,,,,,,,,,,,,,,,,,,,,,,,,,,,,,,,,,,,0,0,0,2,1,,,,,,,,,,,,,,,,,,,,,,,,,,,,,,,,,,,,,,,,,
017479,001,2022-11-20_17h50.26.870,Info_measure_main_exp,2022.2.2,Win32,19.89693388,,,,,,,,,,,,,,,,,,masks/mask_002.jpg,,,,,,,,,,,,,,,,,,,,,,,,,,,,,,,,,,,,,,,,,,,,,,,,0,1,1,1,1,,,,,,,,,,,,,,,,,,,,,,,,,,,,,,,,,,,,,,,,,
017479,001,2022-11-20_17h50.26.870,Info_measure_main_exp,2022.2.2,Win32,19.89693388,,,,,,,,,,,,,,,,,,masks/mask_004.jpg,,,,,,,,,,,,,,,,,,,,,,,,,,,,,,,,,,,,,,,,,,,,,,,,0,2,2,3,1,,,,,,,,,,,,,,,,,,,,,,,,,,,,,,,,,,,,,,,,,
017479,001,2022-11-20_17h50.26.870,Info_measure_main_exp,2022.2.2,Win32,19.89693388,,,,,,,,,,,,,,,,,,masks/mask_005.jpg,,,,,,,,,,,,,,,,,,,,,,,,,,,,,,,,,,,,,,,,,,,,,,,,0,3,3,4,1,,,,,,,,,,,,,,,,,,,,,,,,,,,,,,,,,,,,,,,,,
017479,001,2022-11-20_17h50.26.870,Info_measure_main_exp,2022.2.2,Win32,19.89693388,,,,,,,,,,,,,,,,,,masks/mask_001.jpg,,,,,,,,,,,,,,,,,,,,,,,,,,,,,,,,,,,,,,,,,,,,,,,,0,4,4,0,1,,,,,,,,,,,,,,,,,,,,,,,,,,,,,,,,,,,,,,,,,
017479,001,2022-11-20_17h50.26.870,Info_measure_main_exp,2022.2.2,Win32,19.89693388,,,,,,,,,,,,,,,,,,,,,,,,,,,,,,6,2.856,1,,,,,,,,,,,,0,131,5,5,1986,2142,absent_patch/patch0001986.jpg,absent_patch/patch0002142.jpg,,,,,,,,,,,,,,,,,,,,0.157552083,0.04296875,1,0,0,response1disk,21,-0.001302083,0,1,0,0,center_square,0,20,20,76,1,,,,,,,,,,,,,,,,,,,,,,,
017479,001,2022-11-20_17h50.26.870,Info_measure_main_exp,2022.2.2,Win32,19.89693388,,,,,,,,,,,,,,,,,,masks/mask_003.jpg,,,,,,,,,,,,,,,,,,,,,,,,,,,,,,,,,,,,,,,,,,,0,0,0,2,1,,,,,,,,,,,,,,,,,,,,,,,,,,,,,,,,,,,,,,,,,,,,,,
017479,001,2022-11-20_17h50.26.870,Info_measure_main_exp,2022.2.2,Win32,19.89693388,,,,,,,,,,,,,,,,,,masks/mask_005.jpg,,,,,,,,,,,,,,,,,,,,,,,,,,,,,,,,,,,,,,,,,,,0,1,1,4,1,,,,,,,,,,,,,,,,,,,,,,,,,,,,,,,,,,,,,,,,,,,,,,
017479,001,2022-11-20_17h50.26.870,Info_measure_main_exp,2022.2.2,Win32,19.89693388,,,,,,,,,,,,,,,,,,masks/mask_001.jpg,,,,,,,,,,,,,,,,,,,,,,,,,,,,,,,,,,,,,,,,,,,0,2,2,0,1,,,,,,,,,,,,,,,,,,,,,,,,,,,,,,,,,,,,,,,,,,,,,,
017479,001,2022-11-20_17h50.26.870,Info_measure_main_exp,2022.2.2,Win32,19.89693388,,,,,,,,,,,,,,,,,,masks/mask_002.jpg,,,,,,,,,,,,,,,,,,,,,,,,,,,,,,,,,,,,,,,,,,,0,3,3,1,1,,,,,,,,,,,,,,,,,,,,,,,,,,,,,,,,,,,,,,,,,,,,,,
017479,001,2022-11-20_17h50.26.870,Info_measure_main_exp,2022.2.2,Win32,19.89693388,,,,,,,,,,,,,,,,,,masks/mask_004.jpg,,,,,,,,,,,,,,,,,,,,,,,,,,,,,,,,,,,,,,,,,,,0,4,4,3,1,,,,,,,,,,,,,,,,,,,,,,,,,,,,,,,,,,,,,,,,,,,,,,
017479,001,2022-11-20_17h50.26.870,Info_measure_main_exp,2022.2.2,Win32,19.89693388,,,,,,,,,,,,,,,,,,masks/mask_003.jpg,,,,,,,,,,,,,,,,,,,,,,,,,,,,,,,,,,,,,,,,,,,,,,,,0,0,0,2,1,,,,,,,,,,,,,,,,,,,,,,,,,,,,,,,,,,,,,,,,,
017479,001,2022-11-20_17h50.26.870,Info_measure_main_exp,2022.2.2,Win32,19.89693388,,,,,,,,,,,,,,,,,,masks/mask_001.jpg,,,,,,,,,,,,,,,,,,,,,,,,,,,,,,,,,,,,,,,,,,,,,,,,0,1,1,0,1,,,,,,,,,,,,,,,,,,,,,,,,,,,,,,,,,,,,,,,,,
017479,001,2022-11-20_17h50.26.870,Info_measure_main_exp,2022.2.2,Win32,19.89693388,,,,,,,,,,,,,,,,,,masks/mask_002.jpg,,,,,,,,,,,,,,,,,,,,,,,,,,,,,,,,,,,,,,,,,,,,,,,,0,2,2,1,1,,,,,,,,,,,,,,,,,,,,,,,,,,,,,,,,,,,,,,,,,
017479,001,2022-11-20_17h50.26.870,Info_measure_main_exp,2022.2.2,Win32,19.89693388,,,,,,,,,,,,,,,,,,masks/mask_005.jpg,,,,,,,,,,,,,,,,,,,,,,,,,,,,,,,,,,,,,,,,,,,,,,,,0,3,3,4,1,,,,,,,,,,,,,,,,,,,,,,,,,,,,,,,,,,,,,,,,,
017479,001,2022-11-20_17h50.26.870,Info_measure_main_exp,2022.2.2,Win32,19.89693388,,,,,,,,,,,,,,,,,,masks/mask_004.jpg,,,,,,,,,,,,,,,,,,,,,,,,,,,,,,,,,,,,,,,,,,,,,,,,0,4,4,3,1,,,,,,,,,,,,,,,,,,,,,,,,,,,,,,,,,,,,,,,,,
017479,001,2022-11-20_17h50.26.870,Info_measure_main_exp,2022.2.2,Win32,19.89693388,,,,,,,,,,,,,,,,,,,,,,,,,,,,,,7,1.419,1,,,,,,,,,,,,0,131,5,5,2250,2214,absent_patch/patch0002250.jpg,absent_patch/patch0002214.jpg,,,,,,,,,,,,,,,,,,,,0.044270833,0.153645833,1,0,0,response1disk,22,0.001302083,0,1,0,0,center_square,0,21,21,97,1,,,,,,,,,,,,,,,,,,,,,,,
017479,001,2022-11-20_17h50.26.870,Info_measure_main_exp,2022.2.2,Win32,19.89693388,,,,,,,,,,,,,,,,,,masks/mask_004.jpg,,,,,,,,,,,,,,,,,,,,,,,,,,,,,,,,,,,,,,,,,,,0,0,0,3,1,,,,,,,,,,,,,,,,,,,,,,,,,,,,,,,,,,,,,,,,,,,,,,
017479,001,2022-11-20_17h50.26.870,Info_measure_main_exp,2022.2.2,Win32,19.89693388,,,,,,,,,,,,,,,,,,masks/mask_003.jpg,,,,,,,,,,,,,,,,,,,,,,,,,,,,,,,,,,,,,,,,,,,0,1,1,2,1,,,,,,,,,,,,,,,,,,,,,,,,,,,,,,,,,,,,,,,,,,,,,,
017479,001,2022-11-20_17h50.26.870,Info_measure_main_exp,2022.2.2,Win32,19.89693388,,,,,,,,,,,,,,,,,,masks/mask_001.jpg,,,,,,,,,,,,,,,,,,,,,,,,,,,,,,,,,,,,,,,,,,,0,2,2,0,1,,,,,,,,,,,,,,,,,,,,,,,,,,,,,,,,,,,,,,,,,,,,,,
017479,001,2022-11-20_17h50.26.870,Info_measure_main_exp,2022.2.2,Win32,19.89693388,,,,,,,,,,,,,,,,,,masks/mask_002.jpg,,,,,,,,,,,,,,,,,,,,,,,,,,,,,,,,,,,,,,,,,,,0,3,3,1,1,,,,,,,,,,,,,,,,,,,,,,,,,,,,,,,,,,,,,,,,,,,,,,
017479,001,2022-11-20_17h50.26.870,Info_measure_main_exp,2022.2.2,Win32,19.89693388,,,,,,,,,,,,,,,,,,masks/mask_005.jpg,,,,,,,,,,,,,,,,,,,,,,,,,,,,,,,,,,,,,,,,,,,0,4,4,4,1,,,,,,,,,,,,,,,,,,,,,,,,,,,,,,,,,,,,,,,,,,,,,,
017479,001,2022-11-20_17h50.26.870,Info_measure_main_exp,2022.2.2,Win32,19.89693388,,,,,,,,,,,,,,,,,,masks/mask_002.jpg,,,,,,,,,,,,,,,,,,,,,,,,,,,,,,,,,,,,,,,,,,,,,,,,0,0,0,1,1,,,,,,,,,,,,,,,,,,,,,,,,,,,,,,,,,,,,,,,,,
017479,001,2022-11-20_17h50.26.870,Info_measure_main_exp,2022.2.2,Win32,19.89693388,,,,,,,,,,,,,,,,,,masks/mask_003.jpg,,,,,,,,,,,,,,,,,,,,,,,,,,,,,,,,,,,,,,,,,,,,,,,,0,1,1,2,1,,,,,,,,,,,,,,,,,,,,,,,,,,,,,,,,,,,,,,,,,
017479,001,2022-11-20_17h50.26.870,Info_measure_main_exp,2022.2.2,Win32,19.89693388,,,,,,,,,,,,,,,,,,masks/mask_004.jpg,,,,,,,,,,,,,,,,,,,,,,,,,,,,,,,,,,,,,,,,,,,,,,,,0,2,2,3,1,,,,,,,,,,,,,,,,,,,,,,,,,,,,,,,,,,,,,,,,,
017479,001,2022-11-20_17h50.26.870,Info_measure_main_exp,2022.2.2,Win32,19.89693388,,,,,,,,,,,,,,,,,,masks/mask_001.jpg,,,,,,,,,,,,,,,,,,,,,,,,,,,,,,,,,,,,,,,,,,,,,,,,0,3,3,0,1,,,,,,,,,,,,,,,,,,,,,,,,,,,,,,,,,,,,,,,,,
017479,001,2022-11-20_17h50.26.870,Info_measure_main_exp,2022.2.2,Win32,19.89693388,,,,,,,,,,,,,,,,,,masks/mask_005.jpg,,,,,,,,,,,,,,,,,,,,,,,,,,,,,,,,,,,,,,,,,,,,,,,,0,4,4,4,1,,,,,,,,,,,,,,,,,,,,,,,,,,,,,,,,,,,,,,,,,
017479,001,2022-11-20_17h50.26.870,Info_measure_main_exp,2022.2.2,Win32,19.89693388,,,,,,,,,,,,,,,,,,,,,,,,,,,,,,7,1.3025,1,,,,,,,,,,,,0,131,5,5,2190,1950,absent_patch/patch0002190.jpg,absent_patch/patch0001950.jpg,,,,,,,,,,,,,,,,,,,,0.049479167,0.154947917,1,0,0,response1disk,23,-0.002604167,-0.00390625,1,0,0,center_square,0,22,22,73,1,,,,,,,,,,,,,,,,,,,,,,,
017479,001,2022-11-20_17h50.26.870,Info_measure_main_exp,2022.2.2,Win32,19.89693388,,,,,,,,,,,,,,,,,,masks/mask_005.jpg,,,,,,,,,,,,,,,,,,,,,,,,,,,,,,,,,,,,,,,,,,,0,0,0,4,1,,,,,,,,,,,,,,,,,,,,,,,,,,,,,,,,,,,,,,,,,,,,,,
017479,001,2022-11-20_17h50.26.870,Info_measure_main_exp,2022.2.2,Win32,19.89693388,,,,,,,,,,,,,,,,,,masks/mask_004.jpg,,,,,,,,,,,,,,,,,,,,,,,,,,,,,,,,,,,,,,,,,,,0,1,1,3,1,,,,,,,,,,,,,,,,,,,,,,,,,,,,,,,,,,,,,,,,,,,,,,
017479,001,2022-11-20_17h50.26.870,Info_measure_main_exp,2022.2.2,Win32,19.89693388,,,,,,,,,,,,,,,,,,masks/mask_003.jpg,,,,,,,,,,,,,,,,,,,,,,,,,,,,,,,,,,,,,,,,,,,0,2,2,2,1,,,,,,,,,,,,,,,,,,,,,,,,,,,,,,,,,,,,,,,,,,,,,,
017479,001,2022-11-20_17h50.26.870,Info_measure_main_exp,2022.2.2,Win32,19.89693388,,,,,,,,,,,,,,,,,,masks/mask_002.jpg,,,,,,,,,,,,,,,,,,,,,,,,,,,,,,,,,,,,,,,,,,,0,3,3,1,1,,,,,,,,,,,,,,,,,,,,,,,,,,,,,,,,,,,,,,,,,,,,,,
017479,001,2022-11-20_17h50.26.870,Info_measure_main_exp,2022.2.2,Win32,19.89693388,,,,,,,,,,,,,,,,,,masks/mask_001.jpg,,,,,,,,,,,,,,,,,,,,,,,,,,,,,,,,,,,,,,,,,,,0,4,4,0,1,,,,,,,,,,,,,,,,,,,,,,,,,,,,,,,,,,,,,,,,,,,,,,
017479,001,2022-11-20_17h50.26.870,Info_measure_main_exp,2022.2.2,Win32,19.89693388,,,,,,,,,,,,,,,,,,masks/mask_001.jpg,,,,,,,,,,,,,,,,,,,,,,,,,,,,,,,,,,,,,,,,,,,,,,,,0,0,0,0,1,,,,,,,,,,,,,,,,,,,,,,,,,,,,,,,,,,,,,,,,,
017479,001,2022-11-20_17h50.26.870,Info_measure_main_exp,2022.2.2,Win32,19.89693388,,,,,,,,,,,,,,,,,,masks/mask_005.jpg,,,,,,,,,,,,,,,,,,,,,,,,,,,,,,,,,,,,,,,,,,,,,,,,0,1,1,4,1,,,,,,,,,,,,,,,,,,,,,,,,,,,,,,,,,,,,,,,,,
017479,001,2022-11-20_17h50.26.870,Info_measure_main_exp,2022.2.2,Win32,19.89693388,,,,,,,,,,,,,,,,,,masks/mask_004.jpg,,,,,,,,,,,,,,,,,,,,,,,,,,,,,,,,,,,,,,,,,,,,,,,,0,2,2,3,1,,,,,,,,,,,,,,,,,,,,,,,,,,,,,,,,,,,,,,,,,
017479,001,2022-11-20_17h50.26.870,Info_measure_main_exp,2022.2.2,Win32,19.89693388,,,,,,,,,,,,,,,,,,masks/mask_003.jpg,,,,,,,,,,,,,,,,,,,,,,,,,,,,,,,,,,,,,,,,,,,,,,,,0,3,3,2,1,,,,,,,,,,,,,,,,,,,,,,,,,,,,,,,,,,,,,,,,,
017479,001,2022-11-20_17h50.26.870,Info_measure_main_exp,2022.2.2,Win32,19.89693388,,,,,,,,,,,,,,,,,,masks/mask_002.jpg,,,,,,,,,,,,,,,,,,,,,,,,,,,,,,,,,,,,,,,,,,,,,,,,0,4,4,1,1,,,,,,,,,,,,,,,,,,,,,,,,,,,,,,,,,,,,,,,,,
017479,001,2022-11-20_17h50.26.870,Info_measure_main_exp,2022.2.2,Win32,19.89693388,,,,,,,,,,,,,,,,,,,,,,,,,,,,,,7,1.032,1,,,,,,,,,,,,0,131,5,5,2142,2166,absent_patch/patch0002142.jpg,absent_patch/patch0002166.jpg,,,,,,,,,,,,,,,,,,,,0.048177083,0.173177083,1,0,0,response1disk,24,-0.002604167,-0.00390625,1,0,0,center_square,0,23,23,66,1,,,,,,,,,,,,,,,,,,,,,,,
017479,001,2022-11-20_17h50.26.870,Info_measure_main_exp,2022.2.2,Win32,19.89693388,,,,,,,,,,,,,,,,,,masks/mask_003.jpg,,,,,,,,,,,,,,,,,,,,,,,,,,,,,,,,,,,,,,,,,,,0,0,0,2,1,,,,,,,,,,,,,,,,,,,,,,,,,,,,,,,,,,,,,,,,,,,,,,
017479,001,2022-11-20_17h50.26.870,Info_measure_main_exp,2022.2.2,Win32,19.89693388,,,,,,,,,,,,,,,,,,masks/mask_004.jpg,,,,,,,,,,,,,,,,,,,,,,,,,,,,,,,,,,,,,,,,,,,0,1,1,3,1,,,,,,,,,,,,,,,,,,,,,,,,,,,,,,,,,,,,,,,,,,,,,,
017479,001,2022-11-20_17h50.26.870,Info_measure_main_exp,2022.2.2,Win32,19.89693388,,,,,,,,,,,,,,,,,,masks/mask_001.jpg,,,,,,,,,,,,,,,,,,,,,,,,,,,,,,,,,,,,,,,,,,,0,2,2,0,1,,,,,,,,,,,,,,,,,,,,,,,,,,,,,,,,,,,,,,,,,,,,,,
017479,001,2022-11-20_17h50.26.870,Info_measure_main_exp,2022.2.2,Win32,19.89693388,,,,,,,,,,,,,,,,,,masks/mask_002.jpg,,,,,,,,,,,,,,,,,,,,,,,,,,,,,,,,,,,,,,,,,,,0,3,3,1,1,,,,,,,,,,,,,,,,,,,,,,,,,,,,,,,,,,,,,,,,,,,,,,
017479,001,2022-11-20_17h50.26.870,Info_measure_main_exp,2022.2.2,Win32,19.89693388,,,,,,,,,,,,,,,,,,masks/mask_005.jpg,,,,,,,,,,,,,,,,,,,,,,,,,,,,,,,,,,,,,,,,,,,0,4,4,4,1,,,,,,,,,,,,,,,,,,,,,,,,,,,,,,,,,,,,,,,,,,,,,,
017479,001,2022-11-20_17h50.26.870,Info_measure_main_exp,2022.2.2,Win32,19.89693388,,,,,,,,,,,,,,,,,,masks/mask_004.jpg,,,,,,,,,,,,,,,,,,,,,,,,,,,,,,,,,,,,,,,,,,,,,,,,0,0,0,3,1,,,,,,,,,,,,,,,,,,,,,,,,,,,,,,,,,,,,,,,,,
017479,001,2022-11-20_17h50.26.870,Info_measure_main_exp,2022.2.2,Win32,19.89693388,,,,,,,,,,,,,,,,,,masks/mask_005.jpg,,,,,,,,,,,,,,,,,,,,,,,,,,,,,,,,,,,,,,,,,,,,,,,,0,1,1,4,1,,,,,,,,,,,,,,,,,,,,,,,,,,,,,,,,,,,,,,,,,
017479,001,2022-11-20_17h50.26.870,Info_measure_main_exp,2022.2.2,Win32,19.89693388,,,,,,,,,,,,,,,,,,masks/mask_001.jpg,,,,,,,,,,,,,,,,,,,,,,,,,,,,,,,,,,,,,,,,,,,,,,,,0,2,2,0,1,,,,,,,,,,,,,,,,,,,,,,,,,,,,,,,,,,,,,,,,,
017479,001,2022-11-20_17h50.26.870,Info_measure_main_exp,2022.2.2,Win32,19.89693388,,,,,,,,,,,,,,,,,,masks/mask_003.jpg,,,,,,,,,,,,,,,,,,,,,,,,,,,,,,,,,,,,,,,,,,,,,,,,0,3,3,2,1,,,,,,,,,,,,,,,,,,,,,,,,,,,,,,,,,,,,,,,,,
017479,001,2022-11-20_17h50.26.870,Info_measure_main_exp,2022.2.2,Win32,19.89693388,,,,,,,,,,,,,,,,,,masks/mask_002.jpg,,,,,,,,,,,,,,,,,,,,,,,,,,,,,,,,,,,,,,,,,,,,,,,,0,4,4,1,1,,,,,,,,,,,,,,,,,,,,,,,,,,,,,,,,,,,,,,,,,
017479,001,2022-11-20_17h50.26.870,Info_measure_main_exp,2022.2.2,Win32,19.89693388,,,,,,,,,,,,,,,,,,,,,,,,,,,,,,0,0.9932,1,,,,,,,,,,,,0,131,5,5,1974,1974,absent_patch/patch0001974.jpg,absent_patch/patch0001974.jpg,,,,,,,,,,,,,,,,,,,,-0.036458333,0.153645833,1,0,0,response7disk,25,0.001302083,0.002604167,1,0,0,center_square,0,24,24,113,1,,,,,,,,,,,,,,,,,,,,,,,
017479,001,2022-11-20_17h50.26.870,Info_measure_main_exp,2022.2.2,Win32,19.89693388,,,,,,,,,,,,,,,,,,masks/mask_003.jpg,,,,,,,,,,,,,,,,,,,,,,,,,,,,,,,,,,,,,,,,,,,0,0,0,2,1,,,,,,,,,,,,,,,,,,,,,,,,,,,,,,,,,,,,,,,,,,,,,,
017479,001,2022-11-20_17h50.26.870,Info_measure_main_exp,2022.2.2,Win32,19.89693388,,,,,,,,,,,,,,,,,,masks/mask_005.jpg,,,,,,,,,,,,,,,,,,,,,,,,,,,,,,,,,,,,,,,,,,,0,1,1,4,1,,,,,,,,,,,,,,,,,,,,,,,,,,,,,,,,,,,,,,,,,,,,,,
017479,001,2022-11-20_17h50.26.870,Info_measure_main_exp,2022.2.2,Win32,19.89693388,,,,,,,,,,,,,,,,,,masks/mask_002.jpg,,,,,,,,,,,,,,,,,,,,,,,,,,,,,,,,,,,,,,,,,,,0,2,2,1,1,,,,,,,,,,,,,,,,,,,,,,,,,,,,,,,,,,,,,,,,,,,,,,
017479,001,2022-11-20_17h50.26.870,Info_measure_main_exp,2022.2.2,Win32,19.89693388,,,,,,,,,,,,,,,,,,masks/mask_004.jpg,,,,,,,,,,,,,,,,,,,,,,,,,,,,,,,,,,,,,,,,,,,0,3,3,3,1,,,,,,,,,,,,,,,,,,,,,,,,,,,,,,,,,,,,,,,,,,,,,,
017479,001,2022-11-20_17h50.26.870,Info_measure_main_exp,2022.2.2,Win32,19.89693388,,,,,,,,,,,,,,,,,,masks/mask_001.jpg,,,,,,,,,,,,,,,,,,,,,,,,,,,,,,,,,,,,,,,,,,,0,4,4,0,1,,,,,,,,,,,,,,,,,,,,,,,,,,,,,,,,,,,,,,,,,,,,,,
017479,001,2022-11-20_17h50.26.870,Info_measure_main_exp,2022.2.2,Win32,19.89693388,,,,,,,,,,,,,,,,,,masks/mask_001.jpg,,,,,,,,,,,,,,,,,,,,,,,,,,,,,,,,,,,,,,,,,,,,,,,,0,0,0,0,1,,,,,,,,,,,,,,,,,,,,,,,,,,,,,,,,,,,,,,,,,
017479,001,2022-11-20_17h50.26.870,Info_measure_main_exp,2022.2.2,Win32,19.89693388,,,,,,,,,,,,,,,,,,masks/mask_003.jpg,,,,,,,,,,,,,,,,,,,,,,,,,,,,,,,,,,,,,,,,,,,,,,,,0,1,1,2,1,,,,,,,,,,,,,,,,,,,,,,,,,,,,,,,,,,,,,,,,,
017479,001,2022-11-20_17h50.26.870,Info_measure_main_exp,2022.2.2,Win32,19.89693388,,,,,,,,,,,,,,,,,,masks/mask_002.jpg,,,,,,,,,,,,,,,,,,,,,,,,,,,,,,,,,,,,,,,,,,,,,,,,0,2,2,1,1,,,,,,,,,,,,,,,,,,,,,,,,,,,,,,,,,,,,,,,,,
017479,001,2022-11-20_17h50.26.870,Info_measure_main_exp,2022.2.2,Win32,19.89693388,,,,,,,,,,,,,,,,,,masks/mask_005.jpg,,,,,,,,,,,,,,,,,,,,,,,,,,,,,,,,,,,,,,,,,,,,,,,,0,3,3,4,1,,,,,,,,,,,,,,,,,,,,,,,,,,,,,,,,,,,,,,,,,
017479,001,2022-11-20_17h50.26.870,Info_measure_main_exp,2022.2.2,Win32,19.89693388,,,,,,,,,,,,,,,,,,masks/mask_004.jpg,,,,,,,,,,,,,,,,,,,,,,,,,,,,,,,,,,,,,,,,,,,,,,,,0,4,4,3,1,,,,,,,,,,,,,,,,,,,,,,,,,,,,,,,,,,,,,,,,,
017479,001,2022-11-20_17h50.26.870,Info_measure_main_exp,2022.2.2,Win32,19.89693388,,,,,,,,,,,,,,,,,,,,,,,,,,,,,,6,1.1718,1,,,,,,,,,,,,0,131,5,5,2142,2190,absent_patch/patch0002142.jpg,absent_patch/patch0002190.jpg,,,,,,,,,,,,,,,,,,,,0.153645833,0.032552083,1,0,0,response1disk,26,0.001302083,0.00390625,1,0,0,center_square,0,25,25,70,1,,,,,,,,,,,,,,,,,,,,,,,
017479,001,2022-11-20_17h50.26.870,Info_measure_main_exp,2022.2.2,Win32,19.89693388,,,,,,,,,,,,,,,,,,masks/mask_004.jpg,,,,,,,,,,,,,,,,,,,,,,,,,,,,,,,,,,,,,,,,,,,0,0,0,3,1,,,,,,,,,,,,,,,,,,,,,,,,,,,,,,,,,,,,,,,,,,,,,,
017479,001,2022-11-20_17h50.26.870,Info_measure_main_exp,2022.2.2,Win32,19.89693388,,,,,,,,,,,,,,,,,,masks/mask_003.jpg,,,,,,,,,,,,,,,,,,,,,,,,,,,,,,,,,,,,,,,,,,,0,1,1,2,1,,,,,,,,,,,,,,,,,,,,,,,,,,,,,,,,,,,,,,,,,,,,,,
017479,001,2022-11-20_17h50.26.870,Info_measure_main_exp,2022.2.2,Win32,19.89693388,,,,,,,,,,,,,,,,,,masks/mask_005.jpg,,,,,,,,,,,,,,,,,,,,,,,,,,,,,,,,,,,,,,,,,,,0,2,2,4,1,,,,,,,,,,,,,,,,,,,,,,,,,,,,,,,,,,,,,,,,,,,,,,
017479,001,2022-11-20_17h50.26.870,Info_measure_main_exp,2022.2.2,Win32,19.89693388,,,,,,,,,,,,,,,,,,masks/mask_001.jpg,,,,,,,,,,,,,,,,,,,,,,,,,,,,,,,,,,,,,,,,,,,0,3,3,0,1,,,,,,,,,,,,,,,,,,,,,,,,,,,,,,,,,,,,,,,,,,,,,,
017479,001,2022-11-20_17h50.26.870,Info_measure_main_exp,2022.2.2,Win32,19.89693388,,,,,,,,,,,,,,,,,,masks/mask_002.jpg,,,,,,,,,,,,,,,,,,,,,,,,,,,,,,,,,,,,,,,,,,,0,4,4,1,1,,,,,,,,,,,,,,,,,,,,,,,,,,,,,,,,,,,,,,,,,,,,,,
017479,001,2022-11-20_17h50.26.870,Info_measure_main_exp,2022.2.2,Win32,19.89693388,,,,,,,,,,,,,,,,,,masks/mask_004.jpg,,,,,,,,,,,,,,,,,,,,,,,,,,,,,,,,,,,,,,,,,,,,,,,,0,0,0,3,1,,,,,,,,,,,,,,,,,,,,,,,,,,,,,,,,,,,,,,,,,
017479,001,2022-11-20_17h50.26.870,Info_measure_main_exp,2022.2.2,Win32,19.89693388,,,,,,,,,,,,,,,,,,masks/mask_001.jpg,,,,,,,,,,,,,,,,,,,,,,,,,,,,,,,,,,,,,,,,,,,,,,,,0,1,1,0,1,,,,,,,,,,,,,,,,,,,,,,,,,,,,,,,,,,,,,,,,,
017479,001,2022-11-20_17h50.26.870,Info_measure_main_exp,2022.2.2,Win32,19.89693388,,,,,,,,,,,,,,,,,,masks/mask_002.jpg,,,,,,,,,,,,,,,,,,,,,,,,,,,,,,,,,,,,,,,,,,,,,,,,0,2,2,1,1,,,,,,,,,,,,,,,,,,,,,,,,,,,,,,,,,,,,,,,,,
017479,001,2022-11-20_17h50.26.870,Info_measure_main_exp,2022.2.2,Win32,19.89693388,,,,,,,,,,,,,,,,,,masks/mask_005.jpg,,,,,,,,,,,,,,,,,,,,,,,,,,,,,,,,,,,,,,,,,,,,,,,,0,3,3,4,1,,,,,,,,,,,,,,,,,,,,,,,,,,,,,,,,,,,,,,,,,
017479,001,2022-11-20_17h50.26.870,Info_measure_main_exp,2022.2.2,Win32,19.89693388,,,,,,,,,,,,,,,,,,masks/mask_003.jpg,,,,,,,,,,,,,,,,,,,,,,,,,,,,,,,,,,,,,,,,,,,,,,,,0,4,4,2,1,,,,,,,,,,,,,,,,,,,,,,,,,,,,,,,,,,,,,,,,,
017479,001,2022-11-20_17h50.26.870,Info_measure_main_exp,2022.2.2,Win32,19.89693388,,,,,,,,,,,,,,,,,,,,,,,,,,,,,,0,1.1245,1,,,,,,,,,,,,0,131,5,5,2298,2298,absent_patch/patch0002298.jpg,absent_patch/patch0002298.jpg,,,,,,,,,,,,,,,,,,,,-0.052083333,0.16015625,1,0,0,response7disk,27,0,0.0078125,1,0,0,center_square,0,26,26,37,1,,,,,,,,,,,,,,,,,,,,,,,
017479,001,2022-11-20_17h50.26.870,Info_measure_main_exp,2022.2.2,Win32,19.89693388,,,,,,,,,,,,,,,,,,masks/mask_003.jpg,,,,,,,,,,,,,,,,,,,,,,,,,,,,,,,,,,,,,,,,,,,0,0,0,2,1,,,,,,,,,,,,,,,,,,,,,,,,,,,,,,,,,,,,,,,,,,,,,,
017479,001,2022-11-20_17h50.26.870,Info_measure_main_exp,2022.2.2,Win32,19.89693388,,,,,,,,,,,,,,,,,,masks/mask_004.jpg,,,,,,,,,,,,,,,,,,,,,,,,,,,,,,,,,,,,,,,,,,,0,1,1,3,1,,,,,,,,,,,,,,,,,,,,,,,,,,,,,,,,,,,,,,,,,,,,,,
017479,001,2022-11-20_17h50.26.870,Info_measure_main_exp,2022.2.2,Win32,19.89693388,,,,,,,,,,,,,,,,,,masks/mask_005.jpg,,,,,,,,,,,,,,,,,,,,,,,,,,,,,,,,,,,,,,,,,,,0,2,2,4,1,,,,,,,,,,,,,,,,,,,,,,,,,,,,,,,,,,,,,,,,,,,,,,
017479,001,2022-11-20_17h50.26.870,Info_measure_main_exp,2022.2.2,Win32,19.89693388,,,,,,,,,,,,,,,,,,masks/mask_002.jpg,,,,,,,,,,,,,,,,,,,,,,,,,,,,,,,,,,,,,,,,,,,0,3,3,1,1,,,,,,,,,,,,,,,,,,,,,,,,,,,,,,,,,,,,,,,,,,,,,,
017479,001,2022-11-20_17h50.26.870,Info_measure_main_exp,2022.2.2,Win32,19.89693388,,,,,,,,,,,,,,,,,,masks/mask_001.jpg,,,,,,,,,,,,,,,,,,,,,,,,,,,,,,,,,,,,,,,,,,,0,4,4,0,1,,,,,,,,,,,,,,,,,,,,,,,,,,,,,,,,,,,,,,,,,,,,,,
017479,001,2022-11-20_17h50.26.870,Info_measure_main_exp,2022.2.2,Win32,19.89693388,,,,,,,,,,,,,,,,,,masks/mask_001.jpg,,,,,,,,,,,,,,,,,,,,,,,,,,,,,,,,,,,,,,,,,,,,,,,,0,0,0,0,1,,,,,,,,,,,,,,,,,,,,,,,,,,,,,,,,,,,,,,,,,
017479,001,2022-11-20_17h50.26.870,Info_measure_main_exp,2022.2.2,Win32,19.89693388,,,,,,,,,,,,,,,,,,masks/mask_005.jpg,,,,,,,,,,,,,,,,,,,,,,,,,,,,,,,,,,,,,,,,,,,,,,,,0,1,1,4,1,,,,,,,,,,,,,,,,,,,,,,,,,,,,,,,,,,,,,,,,,
017479,001,2022-11-20_17h50.26.870,Info_measure_main_exp,2022.2.2,Win32,19.89693388,,,,,,,,,,,,,,,,,,masks/mask_004.jpg,,,,,,,,,,,,,,,,,,,,,,,,,,,,,,,,,,,,,,,,,,,,,,,,0,2,2,3,1,,,,,,,,,,,,,,,,,,,,,,,,,,,,,,,,,,,,,,,,,
017479,001,2022-11-20_17h50.26.870,Info_measure_main_exp,2022.2.2,Win32,19.89693388,,,,,,,,,,,,,,,,,,masks/mask_003.jpg,,,,,,,,,,,,,,,,,,,,,,,,,,,,,,,,,,,,,,,,,,,,,,,,0,3,3,2,1,,,,,,,,,,,,,,,,,,,,,,,,,,,,,,,,,,,,,,,,,
017479,001,2022-11-20_17h50.26.870,Info_measure_main_exp,2022.2.2,Win32,19.89693388,,,,,,,,,,,,,,,,,,masks/mask_002.jpg,,,,,,,,,,,,,,,,,,,,,,,,,,,,,,,,,,,,,,,,,,,,,,,,0,4,4,1,1,,,,,,,,,,,,,,,,,,,,,,,,,,,,,,,,,,,,,,,,,
017479,001,2022-11-20_17h50.26.870,Info_measure_main_exp,2022.2.2,Win32,19.89693388,,,,,,,,,,,,,,,,,,,,,,,,,,,,,,0,1.002,1,,,,,,,,,,,,0,131,5,5,1950,1950,absent_patch/patch0001950.jpg,absent_patch/patch0001950.jpg,,,,,,,,,,,,,,,,,,,,-0.044270833,0.158854167,1,0,0,response7disk,28,-0.002604167,-0.002604167,1,0,0,center_square,0,27,27,92,1,,,,,,,,,,,,,,,,,,,,,,,
017479,001,2022-11-20_17h50.26.870,Info_measure_main_exp,2022.2.2,Win32,19.89693388,,,,,,,,,,,,,,,,,,masks/mask_001.jpg,,,,,,,,,,,,,,,,,,,,,,,,,,,,,,,,,,,,,,,,,,,0,0,0,0,1,,,,,,,,,,,,,,,,,,,,,,,,,,,,,,,,,,,,,,,,,,,,,,
017479,001,2022-11-20_17h50.26.870,Info_measure_main_exp,2022.2.2,Win32,19.89693388,,,,,,,,,,,,,,,,,,masks/mask_004.jpg,,,,,,,,,,,,,,,,,,,,,,,,,,,,,,,,,,,,,,,,,,,0,1,1,3,1,,,,,,,,,,,,,,,,,,,,,,,,,,,,,,,,,,,,,,,,,,,,,,
017479,001,2022-11-20_17h50.26.870,Info_measure_main_exp,2022.2.2,Win32,19.89693388,,,,,,,,,,,,,,,,,,masks/mask_003.jpg,,,,,,,,,,,,,,,,,,,,,,,,,,,,,,,,,,,,,,,,,,,0,2,2,2,1,,,,,,,,,,,,,,,,,,,,,,,,,,,,,,,,,,,,,,,,,,,,,,
017479,001,2022-11-20_17h50.26.870,Info_measure_main_exp,2022.2.2,Win32,19.89693388,,,,,,,,,,,,,,,,,,masks/mask_005.jpg,,,,,,,,,,,,,,,,,,,,,,,,,,,,,,,,,,,,,,,,,,,0,3,3,4,1,,,,,,,,,,,,,,,,,,,,,,,,,,,,,,,,,,,,,,,,,,,,,,
017479,001,2022-11-20_17h50.26.870,Info_measure_main_exp,2022.2.2,Win32,19.89693388,,,,,,,,,,,,,,,,,,masks/mask_002.jpg,,,,,,,,,,,,,,,,,,,,,,,,,,,,,,,,,,,,,,,,,,,0,4,4,1,1,,,,,,,,,,,,,,,,,,,,,,,,,,,,,,,,,,,,,,,,,,,,,,
017479,001,2022-11-20_17h50.26.870,Info_measure_main_exp,2022.2.2,Win32,19.89693388,,,,,,,,,,,,,,,,,,masks/mask_001.jpg,,,,,,,,,,,,,,,,,,,,,,,,,,,,,,,,,,,,,,,,,,,,,,,,0,0,0,0,1,,,,,,,,,,,,,,,,,,,,,,,,,,,,,,,,,,,,,,,,,
017479,001,2022-11-20_17h50.26.870,Info_measure_main_exp,2022.2.2,Win32,19.89693388,,,,,,,,,,,,,,,,,,masks/mask_004.jpg,,,,,,,,,,,,,,,,,,,,,,,,,,,,,,,,,,,,,,,,,,,,,,,,0,1,1,3,1,,,,,,,,,,,,,,,,,,,,,,,,,,,,,,,,,,,,,,,,,
017479,001,2022-11-20_17h50.26.870,Info_measure_main_exp,2022.2.2,Win32,19.89693388,,,,,,,,,,,,,,,,,,masks/mask_003.jpg,,,,,,,,,,,,,,,,,,,,,,,,,,,,,,,,,,,,,,,,,,,,,,,,0,2,2,2,1,,,,,,,,,,,,,,,,,,,,,,,,,,,,,,,,,,,,,,,,,
017479,001,2022-11-20_17h50.26.870,Info_measure_main_exp,2022.2.2,Win32,19.89693388,,,,,,,,,,,,,,,,,,masks/mask_005.jpg,,,,,,,,,,,,,,,,,,,,,,,,,,,,,,,,,,,,,,,,,,,,,,,,0,3,3,4,1,,,,,,,,,,,,,,,,,,,,,,,,,,,,,,,,,,,,,,,,,
017479,001,2022-11-20_17h50.26.870,Info_measure_main_exp,2022.2.2,Win32,19.89693388,,,,,,,,,,,,,,,,,,masks/mask_002.jpg,,,,,,,,,,,,,,,,,,,,,,,,,,,,,,,,,,,,,,,,,,,,,,,,0,4,4,1,1,,,,,,,,,,,,,,,,,,,,,,,,,,,,,,,,,,,,,,,,,
017479,001,2022-11-20_17h50.26.870,Info_measure_main_exp,2022.2.2,Win32,19.89693388,,,,,,,,,,,,,,,,,,,,,,,,,,,,,,6,2.0376,1,,,,,,,,,,,,1,131,5,5,1,2214,present_patch/cong_131_5_a.jpg,absent_patch/patch0002214.jpg,,,,,,,,,,,,,,,,,,,,0.1640625,0.024739583,1,0,0,response1disk,29,0.001302083,0,1,0,0,center_square,0,28,28,4,1,,,,,,,,,,,,,,,,,,,,,,,
017479,001,2022-11-20_17h50.26.870,Info_measure_main_exp,2022.2.2,Win32,19.89693388,,,,,,,,,,,,,,,,,,masks/mask_003.jpg,,,,,,,,,,,,,,,,,,,,,,,,,,,,,,,,,,,,,,,,,,,0,0,0,2,1,,,,,,,,,,,,,,,,,,,,,,,,,,,,,,,,,,,,,,,,,,,,,,
017479,001,2022-11-20_17h50.26.870,Info_measure_main_exp,2022.2.2,Win32,19.89693388,,,,,,,,,,,,,,,,,,masks/mask_004.jpg,,,,,,,,,,,,,,,,,,,,,,,,,,,,,,,,,,,,,,,,,,,0,1,1,3,1,,,,,,,,,,,,,,,,,,,,,,,,,,,,,,,,,,,,,,,,,,,,,,
017479,001,2022-11-20_17h50.26.870,Info_measure_main_exp,2022.2.2,Win32,19.89693388,,,,,,,,,,,,,,,,,,masks/mask_001.jpg,,,,,,,,,,,,,,,,,,,,,,,,,,,,,,,,,,,,,,,,,,,0,2,2,0,1,,,,,,,,,,,,,,,,,,,,,,,,,,,,,,,,,,,,,,,,,,,,,,
017479,001,2022-11-20_17h50.26.870,Info_measure_main_exp,2022.2.2,Win32,19.89693388,,,,,,,,,,,,,,,,,,masks/mask_005.jpg,,,,,,,,,,,,,,,,,,,,,,,,,,,,,,,,,,,,,,,,,,,0,3,3,4,1,,,,,,,,,,,,,,,,,,,,,,,,,,,,,,,,,,,,,,,,,,,,,,
017479,001,2022-11-20_17h50.26.870,Info_measure_main_exp,2022.2.2,Win32,19.89693388,,,,,,,,,,,,,,,,,,masks/mask_002.jpg,,,,,,,,,,,,,,,,,,,,,,,,,,,,,,,,,,,,,,,,,,,0,4,4,1,1,,,,,,,,,,,,,,,,,,,,,,,,,,,,,,,,,,,,,,,,,,,,,,
017479,001,2022-11-20_17h50.26.870,Info_measure_main_exp,2022.2.2,Win32,19.89693388,,,,,,,,,,,,,,,,,,masks/mask_001.jpg,,,,,,,,,,,,,,,,,,,,,,,,,,,,,,,,,,,,,,,,,,,,,,,,0,0,0,0,1,,,,,,,,,,,,,,,,,,,,,,,,,,,,,,,,,,,,,,,,,
017479,001,2022-11-20_17h50.26.870,Info_measure_main_exp,2022.2.2,Win32,19.89693388,,,,,,,,,,,,,,,,,,masks/mask_004.jpg,,,,,,,,,,,,,,,,,,,,,,,,,,,,,,,,,,,,,,,,,,,,,,,,0,1,1,3,1,,,,,,,,,,,,,,,,,,,,,,,,,,,,,,,,,,,,,,,,,
017479,001,2022-11-20_17h50.26.870,Info_measure_main_exp,2022.2.2,Win32,19.89693388,,,,,,,,,,,,,,,,,,masks/mask_002.jpg,,,,,,,,,,,,,,,,,,,,,,,,,,,,,,,,,,,,,,,,,,,,,,,,0,2,2,1,1,,,,,,,,,,,,,,,,,,,,,,,,,,,,,,,,,,,,,,,,,
017479,001,2022-11-20_17h50.26.870,Info_measure_main_exp,2022.2.2,Win32,19.89693388,,,,,,,,,,,,,,,,,,masks/mask_003.jpg,,,,,,,,,,,,,,,,,,,,,,,,,,,,,,,,,,,,,,,,,,,,,,,,0,3,3,2,1,,,,,,,,,,,,,,,,,,,,,,,,,,,,,,,,,,,,,,,,,
017479,001,2022-11-20_17h50.26.870,Info_measure_main_exp,2022.2.2,Win32,19.89693388,,,,,,,,,,,,,,,,,,masks/mask_005.jpg,,,,,,,,,,,,,,,,,,,,,,,,,,,,,,,,,,,,,,,,,,,,,,,,0,4,4,4,1,,,,,,,,,,,,,,,,,,,,,,,,,,,,,,,,,,,,,,,,,
017479,001,2022-11-20_17h50.26.870,Info_measure_main_exp,2022.2.2,Win32,19.89693388,,,,,,,,,,,,,,,,,,,,,,,,,,,,,,1,1.6223,1,,,,,,,,,,,,1,131,5,5,1,2154,present_patch/cong_131_5_a.jpg,absent_patch/patch0002154.jpg,,,,,,,,,,,,,,,,,,,,-0.13671875,0.04296875,1,0,0,response7disk,30,0.002604167,0,1,0,0,center_square,0,29,29,87,1,,,,,,,,,,,,,,,,,,,,,,,
017479,001,2022-11-20_17h50.26.870,Info_measure_main_exp,2022.2.2,Win32,19.89693388,,,,,,,,,,,,,,,,,,masks/mask_005.jpg,,,,,,,,,,,,,,,,,,,,,,,,,,,,,,,,,,,,,,,,,,,0,0,0,4,1,,,,,,,,,,,,,,,,,,,,,,,,,,,,,,,,,,,,,,,,,,,,,,
017479,001,2022-11-20_17h50.26.870,Info_measure_main_exp,2022.2.2,Win32,19.89693388,,,,,,,,,,,,,,,,,,masks/mask_001.jpg,,,,,,,,,,,,,,,,,,,,,,,,,,,,,,,,,,,,,,,,,,,0,1,1,0,1,,,,,,,,,,,,,,,,,,,,,,,,,,,,,,,,,,,,,,,,,,,,,,
017479,001,2022-11-20_17h50.26.870,Info_measure_main_exp,2022.2.2,Win32,19.89693388,,,,,,,,,,,,,,,,,,masks/mask_002.jpg,,,,,,,,,,,,,,,,,,,,,,,,,,,,,,,,,,,,,,,,,,,0,2,2,1,1,,,,,,,,,,,,,,,,,,,,,,,,,,,,,,,,,,,,,,,,,,,,,,
017479,001,2022-11-20_17h50.26.870,Info_measure_main_exp,2022.2.2,Win32,19.89693388,,,,,,,,,,,,,,,,,,masks/mask_004.jpg,,,,,,,,,,,,,,,,,,,,,,,,,,,,,,,,,,,,,,,,,,,0,3,3,3,1,,,,,,,,,,,,,,,,,,,,,,,,,,,,,,,,,,,,,,,,,,,,,,
017479,001,2022-11-20_17h50.26.870,Info_measure_main_exp,2022.2.2,Win32,19.89693388,,,,,,,,,,,,,,,,,,masks/mask_003.jpg,,,,,,,,,,,,,,,,,,,,,,,,,,,,,,,,,,,,,,,,,,,0,4,4,2,1,,,,,,,,,,,,,,,,,,,,,,,,,,,,,,,,,,,,,,,,,,,,,,
017479,001,2022-11-20_17h50.26.870,Info_measure_main_exp,2022.2.2,Win32,19.89693388,,,,,,,,,,,,,,,,,,masks/mask_003.jpg,,,,,,,,,,,,,,,,,,,,,,,,,,,,,,,,,,,,,,,,,,,,,,,,0,0,0,2,1,,,,,,,,,,,,,,,,,,,,,,,,,,,,,,,,,,,,,,,,,
017479,001,2022-11-20_17h50.26.870,Info_measure_main_exp,2022.2.2,Win32,19.89693388,,,,,,,,,,,,,,,,,,masks/mask_001.jpg,,,,,,,,,,,,,,,,,,,,,,,,,,,,,,,,,,,,,,,,,,,,,,,,0,1,1,0,1,,,,,,,,,,,,,,,,,,,,,,,,,,,,,,,,,,,,,,,,,
017479,001,2022-11-20_17h50.26.870,Info_measure_main_exp,2022.2.2,Win32,19.89693388,,,,,,,,,,,,,,,,,,masks/mask_004.jpg,,,,,,,,,,,,,,,,,,,,,,,,,,,,,,,,,,,,,,,,,,,,,,,,0,2,2,3,1,,,,,,,,,,,,,,,,,,,,,,,,,,,,,,,,,,,,,,,,,
017479,001,2022-11-20_17h50.26.870,Info_measure_main_exp,2022.2.2,Win32,19.89693388,,,,,,,,,,,,,,,,,,masks/mask_002.jpg,,,,,,,,,,,,,,,,,,,,,,,,,,,,,,,,,,,,,,,,,,,,,,,,0,3,3,1,1,,,,,,,,,,,,,,,,,,,,,,,,,,,,,,,,,,,,,,,,,
017479,001,2022-11-20_17h50.26.870,Info_measure_main_exp,2022.2.2,Win32,19.89693388,,,,,,,,,,,,,,,,,,masks/mask_005.jpg,,,,,,,,,,,,,,,,,,,,,,,,,,,,,,,,,,,,,,,,,,,,,,,,0,4,4,4,1,,,,,,,,,,,,,,,,,,,,,,,,,,,,,,,,,,,,,,,,,
017479,001,2022-11-20_17h50.26.870,Info_measure_main_exp,2022.2.2,Win32,19.89693388,,,,,,,,,,,,,,,,,,,,,,,,,,,,,,2,1.5314,1,,,,,,,,,,,,0,131,5,5,2142,2082,absent_patch/patch0002142.jpg,absent_patch/patch0002082.jpg,,,,,,,,,,,,,,,,,,,,-0.13671875,-0.049479167,1,0,0,response5disk,31,-0.002604167,0.005208333,1,0,0,center_square,0,30,30,88,1,,,,,,,,,,,,,,,,,,,,,,,
017479,001,2022-11-20_17h50.26.870,Info_measure_main_exp,2022.2.2,Win32,19.89693388,,,,,,,,,,,,,,,,,,masks/mask_004.jpg,,,,,,,,,,,,,,,,,,,,,,,,,,,,,,,,,,,,,,,,,,,0,0,0,3,1,,,,,,,,,,,,,,,,,,,,,,,,,,,,,,,,,,,,,,,,,,,,,,
017479,001,2022-11-20_17h50.26.870,Info_measure_main_exp,2022.2.2,Win32,19.89693388,,,,,,,,,,,,,,,,,,masks/mask_001.jpg,,,,,,,,,,,,,,,,,,,,,,,,,,,,,,,,,,,,,,,,,,,0,1,1,0,1,,,,,,,,,,,,,,,,,,,,,,,,,,,,,,,,,,,,,,,,,,,,,,
017479,001,2022-11-20_17h50.26.870,Info_measure_main_exp,2022.2.2,Win32,19.89693388,,,,,,,,,,,,,,,,,,masks/mask_002.jpg,,,,,,,,,,,,,,,,,,,,,,,,,,,,,,,,,,,,,,,,,,,0,2,2,1,1,,,,,,,,,,,,,,,,,,,,,,,,,,,,,,,,,,,,,,,,,,,,,,
017479,001,2022-11-20_17h50.26.870,Info_measure_main_exp,2022.2.2,Win32,19.89693388,,,,,,,,,,,,,,,,,,masks/mask_003.jpg,,,,,,,,,,,,,,,,,,,,,,,,,,,,,,,,,,,,,,,,,,,0,3,3,2,1,,,,,,,,,,,,,,,,,,,,,,,,,,,,,,,,,,,,,,,,,,,,,,
017479,001,2022-11-20_17h50.26.870,Info_measure_main_exp,2022.2.2,Win32,19.89693388,,,,,,,,,,,,,,,,,,masks/mask_005.jpg,,,,,,,,,,,,,,,,,,,,,,,,,,,,,,,,,,,,,,,,,,,0,4,4,4,1,,,,,,,,,,,,,,,,,,,,,,,,,,,,,,,,,,,,,,,,,,,,,,
017479,001,2022-11-20_17h50.26.870,Info_measure_main_exp,2022.2.2,Win32,19.89693388,,,,,,,,,,,,,,,,,,masks/mask_003.jpg,,,,,,,,,,,,,,,,,,,,,,,,,,,,,,,,,,,,,,,,,,,,,,,,0,0,0,2,1,,,,,,,,,,,,,,,,,,,,,,,,,,,,,,,,,,,,,,,,,
017479,001,2022-11-20_17h50.26.870,Info_measure_main_exp,2022.2.2,Win32,19.89693388,,,,,,,,,,,,,,,,,,masks/mask_004.jpg,,,,,,,,,,,,,,,,,,,,,,,,,,,,,,,,,,,,,,,,,,,,,,,,0,1,1,3,1,,,,,,,,,,,,,,,,,,,,,,,,,,,,,,,,,,,,,,,,,
017479,001,2022-11-20_17h50.26.870,Info_measure_main_exp,2022.2.2,Win32,19.89693388,,,,,,,,,,,,,,,,,,masks/mask_002.jpg,,,,,,,,,,,,,,,,,,,,,,,,,,,,,,,,,,,,,,,,,,,,,,,,0,2,2,1,1,,,,,,,,,,,,,,,,,,,,,,,,,,,,,,,,,,,,,,,,,
017479,001,2022-11-20_17h50.26.870,Info_measure_main_exp,2022.2.2,Win32,19.89693388,,,,,,,,,,,,,,,,,,masks/mask_001.jpg,,,,,,,,,,,,,,,,,,,,,,,,,,,,,,,,,,,,,,,,,,,,,,,,0,3,3,0,1,,,,,,,,,,,,,,,,,,,,,,,,,,,,,,,,,,,,,,,,,
017479,001,2022-11-20_17h50.26.870,Info_measure_main_exp,2022.2.2,Win32,19.89693388,,,,,,,,,,,,,,,,,,masks/mask_005.jpg,,,,,,,,,,,,,,,,,,,,,,,,,,,,,,,,,,,,,,,,,,,,,,,,0,4,4,4,1,,,,,,,,,,,,,,,,,,,,,,,,,,,,,,,,,,,,,,,,,
017479,001,2022-11-20_17h50.26.870,Info_measure_main_exp,2022.2.2,Win32,19.89693388,,,,,,,,,,,,,,,,,,,,,,,,,,,,,,0,0.959,1,,,,,,,,,,,,0,131,5,5,2238,2238,absent_patch/patch0002238.jpg,absent_patch/patch0002238.jpg,,,,,,,,,,,,,,,,,,,,-0.044270833,0.158854167,1,0,0,response7disk,32,0,0.001302083,1,0,0,center_square,0,31,31,58,1,,,,,,,,,,,,,,,,,,,,,,,
017479,001,2022-11-20_17h50.26.870,Info_measure_main_exp,2022.2.2,Win32,19.89693388,,,,,,,,,,,,,,,,,,masks/mask_005.jpg,,,,,,,,,,,,,,,,,,,,,,,,,,,,,,,,,,,,,,,,,,,0,0,0,4,1,,,,,,,,,,,,,,,,,,,,,,,,,,,,,,,,,,,,,,,,,,,,,,
017479,001,2022-11-20_17h50.26.870,Info_measure_main_exp,2022.2.2,Win32,19.89693388,,,,,,,,,,,,,,,,,,masks/mask_002.jpg,,,,,,,,,,,,,,,,,,,,,,,,,,,,,,,,,,,,,,,,,,,0,1,1,1,1,,,,,,,,,,,,,,,,,,,,,,,,,,,,,,,,,,,,,,,,,,,,,,
017479,001,2022-11-20_17h50.26.870,Info_measure_main_exp,2022.2.2,Win32,19.89693388,,,,,,,,,,,,,,,,,,masks/mask_004.jpg,,,,,,,,,,,,,,,,,,,,,,,,,,,,,,,,,,,,,,,,,,,0,2,2,3,1,,,,,,,,,,,,,,,,,,,,,,,,,,,,,,,,,,,,,,,,,,,,,,
017479,001,2022-11-20_17h50.26.870,Info_measure_main_exp,2022.2.2,Win32,19.89693388,,,,,,,,,,,,,,,,,,masks/mask_003.jpg,,,,,,,,,,,,,,,,,,,,,,,,,,,,,,,,,,,,,,,,,,,0,3,3,2,1,,,,,,,,,,,,,,,,,,,,,,,,,,,,,,,,,,,,,,,,,,,,,,
017479,001,2022-11-20_17h50.26.870,Info_measure_main_exp,2022.2.2,Win32,19.89693388,,,,,,,,,,,,,,,,,,masks/mask_001.jpg,,,,,,,,,,,,,,,,,,,,,,,,,,,,,,,,,,,,,,,,,,,0,4,4,0,1,,,,,,,,,,,,,,,,,,,,,,,,,,,,,,,,,,,,,,,,,,,,,,
017479,001,2022-11-20_17h50.26.870,Info_measure_main_exp,2022.2.2,Win32,19.89693388,,,,,,,,,,,,,,,,,,masks/mask_003.jpg,,,,,,,,,,,,,,,,,,,,,,,,,,,,,,,,,,,,,,,,,,,,,,,,0,0,0,2,1,,,,,,,,,,,,,,,,,,,,,,,,,,,,,,,,,,,,,,,,,
017479,001,2022-11-20_17h50.26.870,Info_measure_main_exp,2022.2.2,Win32,19.89693388,,,,,,,,,,,,,,,,,,masks/mask_004.jpg,,,,,,,,,,,,,,,,,,,,,,,,,,,,,,,,,,,,,,,,,,,,,,,,0,1,1,3,1,,,,,,,,,,,,,,,,,,,,,,,,,,,,,,,,,,,,,,,,,
017479,001,2022-11-20_17h50.26.870,Info_measure_main_exp,2022.2.2,Win32,19.89693388,,,,,,,,,,,,,,,,,,masks/mask_002.jpg,,,,,,,,,,,,,,,,,,,,,,,,,,,,,,,,,,,,,,,,,,,,,,,,0,2,2,1,1,,,,,,,,,,,,,,,,,,,,,,,,,,,,,,,,,,,,,,,,,
017479,001,2022-11-20_17h50.26.870,Info_measure_main_exp,2022.2.2,Win32,19.89693388,,,,,,,,,,,,,,,,,,masks/mask_001.jpg,,,,,,,,,,,,,,,,,,,,,,,,,,,,,,,,,,,,,,,,,,,,,,,,0,3,3,0,1,,,,,,,,,,,,,,,,,,,,,,,,,,,,,,,,,,,,,,,,,
017479,001,2022-11-20_17h50.26.870,Info_measure_main_exp,2022.2.2,Win32,19.89693388,,,,,,,,,,,,,,,,,,masks/mask_005.jpg,,,,,,,,,,,,,,,,,,,,,,,,,,,,,,,,,,,,,,,,,,,,,,,,0,4,4,4,1,,,,,,,,,,,,,,,,,,,,,,,,,,,,,,,,,,,,,,,,,
017479,001,2022-11-20_17h50.26.870,Info_measure_main_exp,2022.2.2,Win32,19.89693388,,,,,,,,,,,,,,,,,,,,,,,,,,,,,,2,1.8105,1,,,,,,,,,,,,0,131,5,5,1986,2154,absent_patch/patch0001986.jpg,absent_patch/patch0002154.jpg,,,,,,,,,,,,,,,,,,,,-0.1328125,-0.024739583,1,0,0,response5disk,33,0.001302083,0.002604167,1,0,0,center_square,0,32,32,36,1,,,,,,,,,,,,,,,,,,,,,,,
017479,001,2022-11-20_17h50.26.870,Info_measure_main_exp,2022.2.2,Win32,19.89693388,,,,,,,,,,,,,,,,,,masks/mask_003.jpg,,,,,,,,,,,,,,,,,,,,,,,,,,,,,,,,,,,,,,,,,,,0,0,0,2,1,,,,,,,,,,,,,,,,,,,,,,,,,,,,,,,,,,,,,,,,,,,,,,
017479,001,2022-11-20_17h50.26.870,Info_measure_main_exp,2022.2.2,Win32,19.89693388,,,,,,,,,,,,,,,,,,masks/mask_004.jpg,,,,,,,,,,,,,,,,,,,,,,,,,,,,,,,,,,,,,,,,,,,0,1,1,3,1,,,,,,,,,,,,,,,,,,,,,,,,,,,,,,,,,,,,,,,,,,,,,,
017479,001,2022-11-20_17h50.26.870,Info_measure_main_exp,2022.2.2,Win32,19.89693388,,,,,,,,,,,,,,,,,,masks/mask_005.jpg,,,,,,,,,,,,,,,,,,,,,,,,,,,,,,,,,,,,,,,,,,,0,2,2,4,1,,,,,,,,,,,,,,,,,,,,,,,,,,,,,,,,,,,,,,,,,,,,,,
017479,001,2022-11-20_17h50.26.870,Info_measure_main_exp,2022.2.2,Win32,19.89693388,,,,,,,,,,,,,,,,,,masks/mask_002.jpg,,,,,,,,,,,,,,,,,,,,,,,,,,,,,,,,,,,,,,,,,,,0,3,3,1,1,,,,,,,,,,,,,,,,,,,,,,,,,,,,,,,,,,,,,,,,,,,,,,
017479,001,2022-11-20_17h50.26.870,Info_measure_main_exp,2022.2.2,Win32,19.89693388,,,,,,,,,,,,,,,,,,masks/mask_001.jpg,,,,,,,,,,,,,,,,,,,,,,,,,,,,,,,,,,,,,,,,,,,0,4,4,0,1,,,,,,,,,,,,,,,,,,,,,,,,,,,,,,,,,,,,,,,,,,,,,,
017479,001,2022-11-20_17h50.26.870,Info_measure_main_exp,2022.2.2,Win32,19.89693388,,,,,,,,,,,,,,,,,,masks/mask_003.jpg,,,,,,,,,,,,,,,,,,,,,,,,,,,,,,,,,,,,,,,,,,,,,,,,0,0,0,2,1,,,,,,,,,,,,,,,,,,,,,,,,,,,,,,,,,,,,,,,,,
017479,001,2022-11-20_17h50.26.870,Info_measure_main_exp,2022.2.2,Win32,19.89693388,,,,,,,,,,,,,,,,,,masks/mask_002.jpg,,,,,,,,,,,,,,,,,,,,,,,,,,,,,,,,,,,,,,,,,,,,,,,,0,1,1,1,1,,,,,,,,,,,,,,,,,,,,,,,,,,,,,,,,,,,,,,,,,
017479,001,2022-11-20_17h50.26.870,Info_measure_main_exp,2022.2.2,Win32,19.89693388,,,,,,,,,,,,,,,,,,masks/mask_005.jpg,,,,,,,,,,,,,,,,,,,,,,,,,,,,,,,,,,,,,,,,,,,,,,,,0,2,2,4,1,,,,,,,,,,,,,,,,,,,,,,,,,,,,,,,,,,,,,,,,,
017479,001,2022-11-20_17h50.26.870,Info_measure_main_exp,2022.2.2,Win32,19.89693388,,,,,,,,,,,,,,,,,,masks/mask_001.jpg,,,,,,,,,,,,,,,,,,,,,,,,,,,,,,,,,,,,,,,,,,,,,,,,0,3,3,0,1,,,,,,,,,,,,,,,,,,,,,,,,,,,,,,,,,,,,,,,,,
017479,001,2022-11-20_17h50.26.870,Info_measure_main_exp,2022.2.2,Win32,19.89693388,,,,,,,,,,,,,,,,,,masks/mask_004.jpg,,,,,,,,,,,,,,,,,,,,,,,,,,,,,,,,,,,,,,,,,,,,,,,,0,4,4,3,1,,,,,,,,,,,,,,,,,,,,,,,,,,,,,,,,,,,,,,,,,
017479,001,2022-11-20_17h50.26.870,Info_measure_main_exp,2022.2.2,Win32,19.89693388,,,,,,,,,,,,,,,,,,,,,,,,,,,,,,1,1.409,1,,,,,,,,,,,,0,131,5,5,2082,1974,absent_patch/patch0002082.jpg,absent_patch/patch0001974.jpg,,,,,,,,,,,,,,,,,,,,-0.123697917,0.045572917,1,0,0,response7disk,34,-0.001302083,-0.002604167,1,0,0,center_square,0,33,33,26,1,,,,,,,,,,,,,,,,,,,,,,,
017479,001,2022-11-20_17h50.26.870,Info_measure_main_exp,2022.2.2,Win32,19.89693388,,,,,,,,,,,,,,,,,,masks/mask_002.jpg,,,,,,,,,,,,,,,,,,,,,,,,,,,,,,,,,,,,,,,,,,,0,0,0,1,1,,,,,,,,,,,,,,,,,,,,,,,,,,,,,,,,,,,,,,,,,,,,,,
017479,001,2022-11-20_17h50.26.870,Info_measure_main_exp,2022.2.2,Win32,19.89693388,,,,,,,,,,,,,,,,,,masks/mask_005.jpg,,,,,,,,,,,,,,,,,,,,,,,,,,,,,,,,,,,,,,,,,,,0,1,1,4,1,,,,,,,,,,,,,,,,,,,,,,,,,,,,,,,,,,,,,,,,,,,,,,
017479,001,2022-11-20_17h50.26.870,Info_measure_main_exp,2022.2.2,Win32,19.89693388,,,,,,,,,,,,,,,,,,masks/mask_004.jpg,,,,,,,,,,,,,,,,,,,,,,,,,,,,,,,,,,,,,,,,,,,0,2,2,3,1,,,,,,,,,,,,,,,,,,,,,,,,,,,,,,,,,,,,,,,,,,,,,,
017479,001,2022-11-20_17h50.26.870,Info_measure_main_exp,2022.2.2,Win32,19.89693388,,,,,,,,,,,,,,,,,,masks/mask_003.jpg,,,,,,,,,,,,,,,,,,,,,,,,,,,,,,,,,,,,,,,,,,,0,3,3,2,1,,,,,,,,,,,,,,,,,,,,,,,,,,,,,,,,,,,,,,,,,,,,,,
017479,001,2022-11-20_17h50.26.870,Info_measure_main_exp,2022.2.2,Win32,19.89693388,,,,,,,,,,,,,,,,,,masks/mask_001.jpg,,,,,,,,,,,,,,,,,,,,,,,,,,,,,,,,,,,,,,,,,,,0,4,4,0,1,,,,,,,,,,,,,,,,,,,,,,,,,,,,,,,,,,,,,,,,,,,,,,
017479,001,2022-11-20_17h50.26.870,Info_measure_main_exp,2022.2.2,Win32,19.89693388,,,,,,,,,,,,,,,,,,masks/mask_004.jpg,,,,,,,,,,,,,,,,,,,,,,,,,,,,,,,,,,,,,,,,,,,,,,,,0,0,0,3,1,,,,,,,,,,,,,,,,,,,,,,,,,,,,,,,,,,,,,,,,,
017479,001,2022-11-20_17h50.26.870,Info_measure_main_exp,2022.2.2,Win32,19.89693388,,,,,,,,,,,,,,,,,,masks/mask_003.jpg,,,,,,,,,,,,,,,,,,,,,,,,,,,,,,,,,,,,,,,,,,,,,,,,0,1,1,2,1,,,,,,,,,,,,,,,,,,,,,,,,,,,,,,,,,,,,,,,,,
017479,001,2022-11-20_17h50.26.870,Info_measure_main_exp,2022.2.2,Win32,19.89693388,,,,,,,,,,,,,,,,,,masks/mask_002.jpg,,,,,,,,,,,,,,,,,,,,,,,,,,,,,,,,,,,,,,,,,,,,,,,,0,2,2,1,1,,,,,,,,,,,,,,,,,,,,,,,,,,,,,,,,,,,,,,,,,
017479,001,2022-11-20_17h50.26.870,Info_measure_main_exp,2022.2.2,Win32,19.89693388,,,,,,,,,,,,,,,,,,masks/mask_005.jpg,,,,,,,,,,,,,,,,,,,,,,,,,,,,,,,,,,,,,,,,,,,,,,,,0,3,3,4,1,,,,,,,,,,,,,,,,,,,,,,,,,,,,,,,,,,,,,,,,,
017479,001,2022-11-20_17h50.26.870,Info_measure_main_exp,2022.2.2,Win32,19.89693388,,,,,,,,,,,,,,,,,,masks/mask_001.jpg,,,,,,,,,,,,,,,,,,,,,,,,,,,,,,,,,,,,,,,,,,,,,,,,0,4,4,0,1,,,,,,,,,,,,,,,,,,,,,,,,,,,,,,,,,,,,,,,,,
