participant,session,date,expName,psychopyVersion,OS,frameRate,space_press_continue.keys,space_press_continue.rt,space_press_continue_2.keys,space_press_continue_2.rt,space_press_continue_3.keys,space_press_continue_3.rt,space_press_continue_4.keys,space_press_continue_4.rt,space_press_continue_5.keys,space_press_continue_5.rt,space_press_continue_6.keys,space_press_continue_6.rt,prac_mask_loop_1.thisRepN,prac_mask_loop_1.thisTrialN,prac_mask_loop_1.thisN,prac_mask_loop_1.thisIndex,prac_mask_loop_1.ran,mask_name,prac_mask_loop_2.thisRepN,prac_mask_loop_2.thisTrialN,prac_mask_loop_2.thisN,prac_mask_loop_2.thisIndex,prac_mask_loop_2.ran,mouse_2.x,mouse_2.y,mouse_2.leftButton,mouse_2.midButton,mouse_2.rightButton,mouse_2.clicked_name,similarity,response_time,Pass,mouse_12.x,mouse_12.y,mouse_12.leftButton,mouse_12.midButton,mouse_12.rightButton,mouse_12.clicked_name,prac_loop.thisRepN,prac_loop.thisTrialN,prac_loop.thisN,prac_loop.thisIndex,prac_loop.ran,Pair_type,Image_num,Patch_1_loc,Patch_2_loc,Patch_1_info,Patch_2_info,Patch_1_name,Patch_2_name,mouse_1.x,mouse_1.y,mouse_1.leftButton,mouse_1.midButton,mouse_1.rightButton,mouse_1.time,mouse_1.clicked_name,space_press_continue_7.keys,space_press_continue_7.rt,mask_loop.thisRepN,mask_loop.thisTrialN,mask_loop.thisN,mask_loop.thisIndex,mask_loop.ran,mask_loop_2.thisRepN,mask_loop_2.thisTrialN,mask_loop_2.thisN,mask_loop_2.thisIndex,mask_loop_2.ran,mouse.x,mouse.y,mouse.leftButton,mouse.midButton,mouse.rightButton,mouse.clicked_name,trialNumber,mouse_11.x,mouse_11.y,mouse_11.leftButton,mouse_11.midButton,mouse_11.rightButton,mouse_11.clicked_name,first_pass_loop.thisRepN,first_pass_loop.thisTrialN,first_pass_loop.thisN,first_pass_loop.thisIndex,first_pass_loop.ran,mask_loop_3.thisRepN,mask_loop_3.thisTrialN,mask_loop_3.thisN,mask_loop_3.thisIndex,mask_loop_3.ran,mask_loop_4.thisRepN,mask_loop_4.thisTrialN,mask_loop_4.thisN,mask_loop_4.thisIndex,mask_loop_4.ran,mouse_3.x,mouse_3.y,mouse_3.leftButton,mouse_3.midButton,mouse_3.rightButton,mouse_3.clicked_name,double_pass_loop.thisRepN,double_pass_loop.thisTrialN,double_pass_loop.thisN,double_pass_loop.thisIndex,double_pass_loop.ran,space_exit.keys,space_exit.rt
020755,001,2022-11-21_00h52.34.440,Info_measure_main_exp,2022.2.2,Win32,60.0240096,,,,,,,,,,,,,,,,,,,,,,,,,,,,,,,,,,,,,,,,,,,,,,,,,,,,,,,,,,,,,,,,,,,,,,,,,,,,,,,,,,,,,,,,,,,,,,,,,,,,,,,,,,,,,,,
020755,001,2022-11-21_00h52.34.440,Info_measure_main_exp,2022.2.2,Win32,60.0240096,,,,,,,,,,,,,,,,,,,,,,,,,,,,,,,,,,,,,,,,,,,,,,,,,,,,,,,,,,,,,,,,,,,,,,,,,,,,,,,,,,,,,,,,,,,,,,,,,,,,,,,,,,,,,,,
020755,001,2022-11-21_00h52.34.440,Info_measure_main_exp,2022.2.2,Win32,60.0240096,space,6.442,,,,,,,,,,,,,,,,,,,,,,,,,,,,,,,,,,,,,,,,,,,,,,,,,,,,,,,,,,,,,,,,,,,,,,,,,,,,,,,,,,,,,,,,,,,,,,,,,,,,,,,,,,,,,
020755,001,2022-11-21_00h52.34.440,Info_measure_main_exp,2022.2.2,Win32,60.0240096,,,space,15.479,,,,,,,,,,,,,,,,,,,,,,,,,,,,,,,,,,,,,,,,,,,,,,,,,,,,,,,,,,,,,,,,,,,,,,,,,,,,,,,,,,,,,,,,,,,,,,,,,,,,,,,,,,,
020755,001,2022-11-21_00h52.34.440,Info_measure_main_exp,2022.2.2,Win32,60.0240096,,,,,space,3.474,,,,,,,,,,,,,,,,,,,,,,,,,,,,,,,,,,,,,,,,,,,,,,,,,,,,,,,,,,,,,,,,,,,,,,,,,,,,,,,,,,,,,,,,,,,,,,,,,,,,,,,,,
020755,001,2022-11-21_00h52.34.440,Info_measure_main_exp,2022.2.2,Win32,60.0240096,,,,,,,space,35.339,,,,,,,,,,,,,,,,,,,,,,,,,,,,,,,,,,,,,,,,,,,,,,,,,,,,,,,,,,,,,,,,,,,,,,,,,,,,,,,,,,,,,,,,,,,,,,,,,,,,,,,
020755,001,2022-11-21_00h52.34.440,Info_measure_main_exp,2022.2.2,Win32,60.0240096,,,,,,,,,space,3.315,,,,,,,,,,,,,,,,,,,,,,,,,,,,,,,,,,,,,,,,,,,,,,,,,,,,,,,,,,,,,,,,,,,,,,,,,,,,,,,,,,,,,,,,,,,,,,,,,,,,,
020755,001,2022-11-21_00h52.34.440,Info_measure_main_exp,2022.2.2,Win32,60.0240096,,,,,,,,,,,space,2.814,,,,,,,,,,,,,,,,,,,,,,,,,,,,,,,,,,,,,,,,,,,,,,,,,,,,,,,,,,,,,,,,,,,,,,,,,,,,,,,,,,,,,,,,,,,,,,,,,,,
020755,001,2022-11-21_00h52.34.440,Info_measure_main_exp,2022.2.2,Win32,60.0240096,,,,,,,,,,,,,0,0,0,2,1,masks/mask_003.jpg,,,,,,,,,,,,,,,,,,,,,,,,,,,,,,,,,,,,,,,,,,,,,,,,,,,,,,,,,,,,,,,,,,,,,,,,,,,,,,,,,,,,,,,,,,,,,
020755,001,2022-11-21_00h52.34.440,Info_measure_main_exp,2022.2.2,Win32,60.0240096,,,,,,,,,,,,,0,1,1,1,1,masks/mask_002.jpg,,,,,,,,,,,,,,,,,,,,,,,,,,,,,,,,,,,,,,,,,,,,,,,,,,,,,,,,,,,,,,,,,,,,,,,,,,,,,,,,,,,,,,,,,,,,,
020755,001,2022-11-21_00h52.34.440,Info_measure_main_exp,2022.2.2,Win32,60.0240096,,,,,,,,,,,,,0,2,2,0,1,masks/mask_001.jpg,,,,,,,,,,,,,,,,,,,,,,,,,,,,,,,,,,,,,,,,,,,,,,,,,,,,,,,,,,,,,,,,,,,,,,,,,,,,,,,,,,,,,,,,,,,,,
020755,001,2022-11-21_00h52.34.440,Info_measure_main_exp,2022.2.2,Win32,60.0240096,,,,,,,,,,,,,0,3,3,3,1,masks/mask_004.jpg,,,,,,,,,,,,,,,,,,,,,,,,,,,,,,,,,,,,,,,,,,,,,,,,,,,,,,,,,,,,,,,,,,,,,,,,,,,,,,,,,,,,,,,,,,,,,
020755,001,2022-11-21_00h52.34.440,Info_measure_main_exp,2022.2.2,Win32,60.0240096,,,,,,,,,,,,,0,4,4,4,1,masks/mask_005.jpg,,,,,,,,,,,,,,,,,,,,,,,,,,,,,,,,,,,,,,,,,,,,,,,,,,,,,,,,,,,,,,,,,,,,,,,,,,,,,,,,,,,,,,,,,,,,,
020755,001,2022-11-21_00h52.34.440,Info_measure_main_exp,2022.2.2,Win32,60.0240096,,,,,,,,,,,,,,,,,,masks/mask_002.jpg,0,0,0,1,1,,,,,,,,,,,,,,,,,,,,,,,,,,,,,,,,,,,,,,,,,,,,,,,,,,,,,,,,,,,,,,,,,,,,,,,,,,,,,,,,,,,,,,,,
020755,001,2022-11-21_00h52.34.440,Info_measure_main_exp,2022.2.2,Win32,60.0240096,,,,,,,,,,,,,,,,,,masks/mask_003.jpg,0,1,1,2,1,,,,,,,,,,,,,,,,,,,,,,,,,,,,,,,,,,,,,,,,,,,,,,,,,,,,,,,,,,,,,,,,,,,,,,,,,,,,,,,,,,,,,,,,
020755,001,2022-11-21_00h52.34.440,Info_measure_main_exp,2022.2.2,Win32,60.0240096,,,,,,,,,,,,,,,,,,masks/mask_001.jpg,0,2,2,0,1,,,,,,,,,,,,,,,,,,,,,,,,,,,,,,,,,,,,,,,,,,,,,,,,,,,,,,,,,,,,,,,,,,,,,,,,,,,,,,,,,,,,,,,,
020755,001,2022-11-21_00h52.34.440,Info_measure_main_exp,2022.2.2,Win32,60.0240096,,,,,,,,,,,,,,,,,,masks/mask_005.jpg,0,3,3,4,1,,,,,,,,,,,,,,,,,,,,,,,,,,,,,,,,,,,,,,,,,,,,,,,,,,,,,,,,,,,,,,,,,,,,,,,,,,,,,,,,,,,,,,,,
020755,001,2022-11-21_00h52.34.440,Info_measure_main_exp,2022.2.2,Win32,60.0240096,,,,,,,,,,,,,,,,,,masks/mask_004.jpg,0,4,4,3,1,,,,,,,,,,,,,,,,,,,,,,,,,,,,,,,,,,,,,,,,,,,,,,,,,,,,,,,,,,,,,,,,,,,,,,,,,,,,,,,,,,,,,,,,
020755,001,2022-11-21_00h52.34.440,Info_measure_main_exp,2022.2.2,Win32,60.0240096,,,,,,,,,,,,,,,,,,,,,,,,0.118055556,0.03587963,1,0,0,response1disk,6,71.081,1,0.00462963,0,1,0,0,center_square,0,0,0,0,1,0,131,5,5,2370,2406,prac_patch/patch0002370.jpg,prac_patch/patch0002406.jpg,,,,,,,,,,,,,,,,,,,,,,,,,,,,,,,,,,,,,,,,,,,,,,,,,,,,,,,,,,,,
020755,001,2022-11-21_00h52.34.440,Info_measure_main_exp,2022.2.2,Win32,60.0240096,,,,,,,,,,,,,0,0,0,3,1,masks/mask_004.jpg,,,,,,,,,,,,,,,,,,,,,,,,,,,,,,,,,,,,,,,,,,,,,,,,,,,,,,,,,,,,,,,,,,,,,,,,,,,,,,,,,,,,,,,,,,,,,
020755,001,2022-11-21_00h52.34.440,Info_measure_main_exp,2022.2.2,Win32,60.0240096,,,,,,,,,,,,,0,1,1,2,1,masks/mask_003.jpg,,,,,,,,,,,,,,,,,,,,,,,,,,,,,,,,,,,,,,,,,,,,,,,,,,,,,,,,,,,,,,,,,,,,,,,,,,,,,,,,,,,,,,,,,,,,,
020755,001,2022-11-21_00h52.34.440,Info_measure_main_exp,2022.2.2,Win32,60.0240096,,,,,,,,,,,,,0,2,2,4,1,masks/mask_005.jpg,,,,,,,,,,,,,,,,,,,,,,,,,,,,,,,,,,,,,,,,,,,,,,,,,,,,,,,,,,,,,,,,,,,,,,,,,,,,,,,,,,,,,,,,,,,,,
020755,001,2022-11-21_00h52.34.440,Info_measure_main_exp,2022.2.2,Win32,60.0240096,,,,,,,,,,,,,0,3,3,0,1,masks/mask_001.jpg,,,,,,,,,,,,,,,,,,,,,,,,,,,,,,,,,,,,,,,,,,,,,,,,,,,,,,,,,,,,,,,,,,,,,,,,,,,,,,,,,,,,,,,,,,,,,
020755,001,2022-11-21_00h52.34.440,Info_measure_main_exp,2022.2.2,Win32,60.0240096,,,,,,,,,,,,,0,4,4,1,1,masks/mask_002.jpg,,,,,,,,,,,,,,,,,,,,,,,,,,,,,,,,,,,,,,,,,,,,,,,,,,,,,,,,,,,,,,,,,,,,,,,,,,,,,,,,,,,,,,,,,,,,,
020755,001,2022-11-21_00h52.34.440,Info_measure_main_exp,2022.2.2,Win32,60.0240096,,,,,,,,,,,,,,,,,,masks/mask_002.jpg,0,0,0,1,1,,,,,,,,,,,,,,,,,,,,,,,,,,,,,,,,,,,,,,,,,,,,,,,,,,,,,,,,,,,,,,,,,,,,,,,,,,,,,,,,,,,,,,,,
020755,001,2022-11-21_00h52.34.440,Info_measure_main_exp,2022.2.2,Win32,60.0240096,,,,,,,,,,,,,,,,,,masks/mask_001.jpg,0,1,1,0,1,,,,,,,,,,,,,,,,,,,,,,,,,,,,,,,,,,,,,,,,,,,,,,,,,,,,,,,,,,,,,,,,,,,,,,,,,,,,,,,,,,,,,,,,
020755,001,2022-11-21_00h52.34.440,Info_measure_main_exp,2022.2.2,Win32,60.0240096,,,,,,,,,,,,,,,,,,masks/mask_005.jpg,0,2,2,4,1,,,,,,,,,,,,,,,,,,,,,,,,,,,,,,,,,,,,,,,,,,,,,,,,,,,,,,,,,,,,,,,,,,,,,,,,,,,,,,,,,,,,,,,,
020755,001,2022-11-21_00h52.34.440,Info_measure_main_exp,2022.2.2,Win32,60.0240096,,,,,,,,,,,,,,,,,,masks/mask_004.jpg,0,3,3,3,1,,,,,,,,,,,,,,,,,,,,,,,,,,,,,,,,,,,,,,,,,,,,,,,,,,,,,,,,,,,,,,,,,,,,,,,,,,,,,,,,,,,,,,,,
020755,001,2022-11-21_00h52.34.440,Info_measure_main_exp,2022.2.2,Win32,60.0240096,,,,,,,,,,,,,,,,,,masks/mask_003.jpg,0,4,4,2,1,,,,,,,,,,,,,,,,,,,,,,,,,,,,,,,,,,,,,,,,,,,,,,,,,,,,,,,,,,,,,,,,,,,,,,,,,,,,,,,,,,,,,,,,
020755,001,2022-11-21_00h52.34.440,Info_measure_main_exp,2022.2.2,Win32,60.0240096,,,,,,,,,,,,,,,,,,,,,,,,-0.074074074,0.128472222,1,0,0,response7disk,0,83.612,1,-0.006944444,-0.005787037,1,0,0,center_square,0,1,1,2,1,0,131,5,5,2526,2526,prac_patch/patch0002526.jpg,prac_patch/patch0002526.jpg,,,,,,,,,,,,,,,,,,,,,,,,,,,,,,,,,,,,,,,,,,,,,,,,,,,,,,,,,,,,
020755,001,2022-11-21_00h52.34.440,Info_measure_main_exp,2022.2.2,Win32,60.0240096,,,,,,,,,,,,,0,0,0,3,1,masks/mask_004.jpg,,,,,,,,,,,,,,,,,,,,,,,,,,,,,,,,,,,,,,,,,,,,,,,,,,,,,,,,,,,,,,,,,,,,,,,,,,,,,,,,,,,,,,,,,,,,,
020755,001,2022-11-21_00h52.34.440,Info_measure_main_exp,2022.2.2,Win32,60.0240096,,,,,,,,,,,,,0,1,1,1,1,masks/mask_002.jpg,,,,,,,,,,,,,,,,,,,,,,,,,,,,,,,,,,,,,,,,,,,,,,,,,,,,,,,,,,,,,,,,,,,,,,,,,,,,,,,,,,,,,,,,,,,,,
020755,001,2022-11-21_00h52.34.440,Info_measure_main_exp,2022.2.2,Win32,60.0240096,,,,,,,,,,,,,0,2,2,0,1,masks/mask_001.jpg,,,,,,,,,,,,,,,,,,,,,,,,,,,,,,,,,,,,,,,,,,,,,,,,,,,,,,,,,,,,,,,,,,,,,,,,,,,,,,,,,,,,,,,,,,,,,
020755,001,2022-11-21_00h52.34.440,Info_measure_main_exp,2022.2.2,Win32,60.0240096,,,,,,,,,,,,,0,3,3,2,1,masks/mask_003.jpg,,,,,,,,,,,,,,,,,,,,,,,,,,,,,,,,,,,,,,,,,,,,,,,,,,,,,,,,,,,,,,,,,,,,,,,,,,,,,,,,,,,,,,,,,,,,,
020755,001,2022-11-21_00h52.34.440,Info_measure_main_exp,2022.2.2,Win32,60.0240096,,,,,,,,,,,,,0,4,4,4,1,masks/mask_005.jpg,,,,,,,,,,,,,,,,,,,,,,,,,,,,,,,,,,,,,,,,,,,,,,,,,,,,,,,,,,,,,,,,,,,,,,,,,,,,,,,,,,,,,,,,,,,,,
020755,001,2022-11-21_00h52.34.440,Info_measure_main_exp,2022.2.2,Win32,60.0240096,,,,,,,,,,,,,,,,,,masks/mask_005.jpg,0,0,0,4,1,,,,,,,,,,,,,,,,,,,,,,,,,,,,,,,,,,,,,,,,,,,,,,,,,,,,,,,,,,,,,,,,,,,,,,,,,,,,,,,,,,,,,,,,
020755,001,2022-11-21_00h52.34.440,Info_measure_main_exp,2022.2.2,Win32,60.0240096,,,,,,,,,,,,,,,,,,masks/mask_004.jpg,0,1,1,3,1,,,,,,,,,,,,,,,,,,,,,,,,,,,,,,,,,,,,,,,,,,,,,,,,,,,,,,,,,,,,,,,,,,,,,,,,,,,,,,,,,,,,,,,,
020755,001,2022-11-21_00h52.34.440,Info_measure_main_exp,2022.2.2,Win32,60.0240096,,,,,,,,,,,,,,,,,,masks/mask_003.jpg,0,2,2,2,1,,,,,,,,,,,,,,,,,,,,,,,,,,,,,,,,,,,,,,,,,,,,,,,,,,,,,,,,,,,,,,,,,,,,,,,,,,,,,,,,,,,,,,,,
020755,001,2022-11-21_00h52.34.440,Info_measure_main_exp,2022.2.2,Win32,60.0240096,,,,,,,,,,,,,,,,,,masks/mask_002.jpg,0,3,3,1,1,,,,,,,,,,,,,,,,,,,,,,,,,,,,,,,,,,,,,,,,,,,,,,,,,,,,,,,,,,,,,,,,,,,,,,,,,,,,,,,,,,,,,,,,
020755,001,2022-11-21_00h52.34.440,Info_measure_main_exp,2022.2.2,Win32,60.0240096,,,,,,,,,,,,,,,,,,masks/mask_001.jpg,0,4,4,0,1,,,,,,,,,,,,,,,,,,,,,,,,,,,,,,,,,,,,,,,,,,,,,,,,,,,,,,,,,,,,,,,,,,,,,,,,,,,,,,,,,,,,,,,,
020755,001,2022-11-21_00h52.34.440,Info_measure_main_exp,2022.2.2,Win32,60.0240096,,,,,,,,,,,,,,,,,,,,,,,,0.046296296,-0.134259259,1,0,0,response3disk,4,91.645,1,0.006944444,-0.002314815,1,0,0,center_square,0,2,2,1,1,0,131,5,5,2514,2490,prac_patch/patch0002514.jpg,prac_patch/patch0002490.jpg,,,,,,,,,,,,,,,,,,,,,,,,,,,,,,,,,,,,,,,,,,,,,,,,,,,,,,,,,,,,
020755,001,2022-11-21_00h52.34.440,Info_measure_main_exp,2022.2.2,Win32,60.0240096,,,,,,,,,,,,,,,,,,,,,,,,,,,,,,,,,,,,,,,,,,,,,,,,,,,,,,,,,,,space,3.659,,,,,,,,,,,,,,,,,,,,,,,,,,,,,,,,,,,,,,,,,,,,,,,,,,,
020755,001,2022-11-21_00h52.34.440,Info_measure_main_exp,2022.2.2,Win32,60.0240096,,,,,,,,,,,,,,,,,,masks/mask_005.jpg,,,,,,,,,,,,,,,,,,,,,,,,,,,,,,,,,,,,,,,,,,,0,0,0,4,1,,,,,,,,,,,,,,,,,,,,,,,,,,,,,,,,,,,,,,,,,,,,,,
020755,001,2022-11-21_00h52.34.440,Info_measure_main_exp,2022.2.2,Win32,60.0240096,,,,,,,,,,,,,,,,,,masks/mask_004.jpg,,,,,,,,,,,,,,,,,,,,,,,,,,,,,,,,,,,,,,,,,,,0,1,1,3,1,,,,,,,,,,,,,,,,,,,,,,,,,,,,,,,,,,,,,,,,,,,,,,
020755,001,2022-11-21_00h52.34.440,Info_measure_main_exp,2022.2.2,Win32,60.0240096,,,,,,,,,,,,,,,,,,masks/mask_002.jpg,,,,,,,,,,,,,,,,,,,,,,,,,,,,,,,,,,,,,,,,,,,0,2,2,1,1,,,,,,,,,,,,,,,,,,,,,,,,,,,,,,,,,,,,,,,,,,,,,,
020755,001,2022-11-21_00h52.34.440,Info_measure_main_exp,2022.2.2,Win32,60.0240096,,,,,,,,,,,,,,,,,,masks/mask_003.jpg,,,,,,,,,,,,,,,,,,,,,,,,,,,,,,,,,,,,,,,,,,,0,3,3,2,1,,,,,,,,,,,,,,,,,,,,,,,,,,,,,,,,,,,,,,,,,,,,,,
020755,001,2022-11-21_00h52.34.440,Info_measure_main_exp,2022.2.2,Win32,60.0240096,,,,,,,,,,,,,,,,,,masks/mask_001.jpg,,,,,,,,,,,,,,,,,,,,,,,,,,,,,,,,,,,,,,,,,,,0,4,4,0,1,,,,,,,,,,,,,,,,,,,,,,,,,,,,,,,,,,,,,,,,,,,,,,
020755,001,2022-11-21_00h52.34.440,Info_measure_main_exp,2022.2.2,Win32,60.0240096,,,,,,,,,,,,,,,,,,masks/mask_004.jpg,,,,,,,,,,,,,,,,,,,,,,,,,,,,,,,,,,,,,,,,,,,,,,,,0,0,0,3,1,,,,,,,,,,,,,,,,,,,,,,,,,,,,,,,,,,,,,,,,,
020755,001,2022-11-21_00h52.34.440,Info_measure_main_exp,2022.2.2,Win32,60.0240096,,,,,,,,,,,,,,,,,,masks/mask_005.jpg,,,,,,,,,,,,,,,,,,,,,,,,,,,,,,,,,,,,,,,,,,,,,,,,0,1,1,4,1,,,,,,,,,,,,,,,,,,,,,,,,,,,,,,,,,,,,,,,,,
020755,001,2022-11-21_00h52.34.440,Info_measure_main_exp,2022.2.2,Win32,60.0240096,,,,,,,,,,,,,,,,,,masks/mask_001.jpg,,,,,,,,,,,,,,,,,,,,,,,,,,,,,,,,,,,,,,,,,,,,,,,,0,2,2,0,1,,,,,,,,,,,,,,,,,,,,,,,,,,,,,,,,,,,,,,,,,
020755,001,2022-11-21_00h52.34.440,Info_measure_main_exp,2022.2.2,Win32,60.0240096,,,,,,,,,,,,,,,,,,masks/mask_003.jpg,,,,,,,,,,,,,,,,,,,,,,,,,,,,,,,,,,,,,,,,,,,,,,,,0,3,3,2,1,,,,,,,,,,,,,,,,,,,,,,,,,,,,,,,,,,,,,,,,,
020755,001,2022-11-21_00h52.34.440,Info_measure_main_exp,2022.2.2,Win32,60.0240096,,,,,,,,,,,,,,,,,,masks/mask_002.jpg,,,,,,,,,,,,,,,,,,,,,,,,,,,,,,,,,,,,,,,,,,,,,,,,0,4,4,1,1,,,,,,,,,,,,,,,,,,,,,,,,,,,,,,,,,,,,,,,,,
020755,001,2022-11-21_00h52.34.440,Info_measure_main_exp,2022.2.2,Win32,60.0240096,,,,,,,,,,,,,,,,,,,,,,,,,,,,,,7,1.098,1,,,,,,,,,,,,0,131,5,5,2178,2154,absent_patch/patch0002178.jpg,absent_patch/patch0002154.jpg,,,,,,,,,,,,,,,,,,,,0.048611111,0.146990741,1,0,0,response1disk,1,-0.003472222,0.015046296,1,0,0,center_square,0,0,0,63,1,,,,,,,,,,,,,,,,,,,,,,,
020755,001,2022-11-21_00h52.34.440,Info_measure_main_exp,2022.2.2,Win32,60.0240096,,,,,,,,,,,,,,,,,,masks/mask_003.jpg,,,,,,,,,,,,,,,,,,,,,,,,,,,,,,,,,,,,,,,,,,,0,0,0,2,1,,,,,,,,,,,,,,,,,,,,,,,,,,,,,,,,,,,,,,,,,,,,,,
020755,001,2022-11-21_00h52.34.440,Info_measure_main_exp,2022.2.2,Win32,60.0240096,,,,,,,,,,,,,,,,,,masks/mask_004.jpg,,,,,,,,,,,,,,,,,,,,,,,,,,,,,,,,,,,,,,,,,,,0,1,1,3,1,,,,,,,,,,,,,,,,,,,,,,,,,,,,,,,,,,,,,,,,,,,,,,
020755,001,2022-11-21_00h52.34.440,Info_measure_main_exp,2022.2.2,Win32,60.0240096,,,,,,,,,,,,,,,,,,masks/mask_001.jpg,,,,,,,,,,,,,,,,,,,,,,,,,,,,,,,,,,,,,,,,,,,0,2,2,0,1,,,,,,,,,,,,,,,,,,,,,,,,,,,,,,,,,,,,,,,,,,,,,,
020755,001,2022-11-21_00h52.34.440,Info_measure_main_exp,2022.2.2,Win32,60.0240096,,,,,,,,,,,,,,,,,,masks/mask_002.jpg,,,,,,,,,,,,,,,,,,,,,,,,,,,,,,,,,,,,,,,,,,,0,3,3,1,1,,,,,,,,,,,,,,,,,,,,,,,,,,,,,,,,,,,,,,,,,,,,,,
020755,001,2022-11-21_00h52.34.440,Info_measure_main_exp,2022.2.2,Win32,60.0240096,,,,,,,,,,,,,,,,,,masks/mask_005.jpg,,,,,,,,,,,,,,,,,,,,,,,,,,,,,,,,,,,,,,,,,,,0,4,4,4,1,,,,,,,,,,,,,,,,,,,,,,,,,,,,,,,,,,,,,,,,,,,,,,
020755,001,2022-11-21_00h52.34.440,Info_measure_main_exp,2022.2.2,Win32,60.0240096,,,,,,,,,,,,,,,,,,masks/mask_004.jpg,,,,,,,,,,,,,,,,,,,,,,,,,,,,,,,,,,,,,,,,,,,,,,,,0,0,0,3,1,,,,,,,,,,,,,,,,,,,,,,,,,,,,,,,,,,,,,,,,,
020755,001,2022-11-21_00h52.34.440,Info_measure_main_exp,2022.2.2,Win32,60.0240096,,,,,,,,,,,,,,,,,,masks/mask_002.jpg,,,,,,,,,,,,,,,,,,,,,,,,,,,,,,,,,,,,,,,,,,,,,,,,0,1,1,1,1,,,,,,,,,,,,,,,,,,,,,,,,,,,,,,,,,,,,,,,,,
020755,001,2022-11-21_00h52.34.440,Info_measure_main_exp,2022.2.2,Win32,60.0240096,,,,,,,,,,,,,,,,,,masks/mask_005.jpg,,,,,,,,,,,,,,,,,,,,,,,,,,,,,,,,,,,,,,,,,,,,,,,,0,2,2,4,1,,,,,,,,,,,,,,,,,,,,,,,,,,,,,,,,,,,,,,,,,
020755,001,2022-11-21_00h52.34.440,Info_measure_main_exp,2022.2.2,Win32,60.0240096,,,,,,,,,,,,,,,,,,masks/mask_003.jpg,,,,,,,,,,,,,,,,,,,,,,,,,,,,,,,,,,,,,,,,,,,,,,,,0,3,3,2,1,,,,,,,,,,,,,,,,,,,,,,,,,,,,,,,,,,,,,,,,,
020755,001,2022-11-21_00h52.34.440,Info_measure_main_exp,2022.2.2,Win32,60.0240096,,,,,,,,,,,,,,,,,,masks/mask_001.jpg,,,,,,,,,,,,,,,,,,,,,,,,,,,,,,,,,,,,,,,,,,,,,,,,0,4,4,0,1,,,,,,,,,,,,,,,,,,,,,,,,,,,,,,,,,,,,,,,,,
020755,001,2022-11-21_00h52.34.440,Info_measure_main_exp,2022.2.2,Win32,60.0240096,,,,,,,,,,,,,,,,,,,,,,,,,,,,,,0,0.915,1,,,,,,,,,,,,0,131,5,5,2250,2250,absent_patch/patch0002250.jpg,absent_patch/patch0002250.jpg,,,,,,,,,,,,,,,,,,,,-0.043981481,0.127314815,1,0,0,response7disk,2,0,0.006944444,1,0,0,center_square,0,1,1,56,1,,,,,,,,,,,,,,,,,,,,,,,
020755,001,2022-11-21_00h52.34.440,Info_measure_main_exp,2022.2.2,Win32,60.0240096,,,,,,,,,,,,,,,,,,masks/mask_005.jpg,,,,,,,,,,,,,,,,,,,,,,,,,,,,,,,,,,,,,,,,,,,0,0,0,4,1,,,,,,,,,,,,,,,,,,,,,,,,,,,,,,,,,,,,,,,,,,,,,,
020755,001,2022-11-21_00h52.34.440,Info_measure_main_exp,2022.2.2,Win32,60.0240096,,,,,,,,,,,,,,,,,,masks/mask_003.jpg,,,,,,,,,,,,,,,,,,,,,,,,,,,,,,,,,,,,,,,,,,,0,1,1,2,1,,,,,,,,,,,,,,,,,,,,,,,,,,,,,,,,,,,,,,,,,,,,,,
020755,001,2022-11-21_00h52.34.440,Info_measure_main_exp,2022.2.2,Win32,60.0240096,,,,,,,,,,,,,,,,,,masks/mask_004.jpg,,,,,,,,,,,,,,,,,,,,,,,,,,,,,,,,,,,,,,,,,,,0,2,2,3,1,,,,,,,,,,,,,,,,,,,,,,,,,,,,,,,,,,,,,,,,,,,,,,
020755,001,2022-11-21_00h52.34.440,Info_measure_main_exp,2022.2.2,Win32,60.0240096,,,,,,,,,,,,,,,,,,masks/mask_001.jpg,,,,,,,,,,,,,,,,,,,,,,,,,,,,,,,,,,,,,,,,,,,0,3,3,0,1,,,,,,,,,,,,,,,,,,,,,,,,,,,,,,,,,,,,,,,,,,,,,,
020755,001,2022-11-21_00h52.34.440,Info_measure_main_exp,2022.2.2,Win32,60.0240096,,,,,,,,,,,,,,,,,,masks/mask_002.jpg,,,,,,,,,,,,,,,,,,,,,,,,,,,,,,,,,,,,,,,,,,,0,4,4,1,1,,,,,,,,,,,,,,,,,,,,,,,,,,,,,,,,,,,,,,,,,,,,,,
020755,001,2022-11-21_00h52.34.440,Info_measure_main_exp,2022.2.2,Win32,60.0240096,,,,,,,,,,,,,,,,,,masks/mask_001.jpg,,,,,,,,,,,,,,,,,,,,,,,,,,,,,,,,,,,,,,,,,,,,,,,,0,0,0,0,1,,,,,,,,,,,,,,,,,,,,,,,,,,,,,,,,,,,,,,,,,
020755,001,2022-11-21_00h52.34.440,Info_measure_main_exp,2022.2.2,Win32,60.0240096,,,,,,,,,,,,,,,,,,masks/mask_002.jpg,,,,,,,,,,,,,,,,,,,,,,,,,,,,,,,,,,,,,,,,,,,,,,,,0,1,1,1,1,,,,,,,,,,,,,,,,,,,,,,,,,,,,,,,,,,,,,,,,,
020755,001,2022-11-21_00h52.34.440,Info_measure_main_exp,2022.2.2,Win32,60.0240096,,,,,,,,,,,,,,,,,,masks/mask_003.jpg,,,,,,,,,,,,,,,,,,,,,,,,,,,,,,,,,,,,,,,,,,,,,,,,0,2,2,2,1,,,,,,,,,,,,,,,,,,,,,,,,,,,,,,,,,,,,,,,,,
020755,001,2022-11-21_00h52.34.440,Info_measure_main_exp,2022.2.2,Win32,60.0240096,,,,,,,,,,,,,,,,,,masks/mask_004.jpg,,,,,,,,,,,,,,,,,,,,,,,,,,,,,,,,,,,,,,,,,,,,,,,,0,3,3,3,1,,,,,,,,,,,,,,,,,,,,,,,,,,,,,,,,,,,,,,,,,
020755,001,2022-11-21_00h52.34.440,Info_measure_main_exp,2022.2.2,Win32,60.0240096,,,,,,,,,,,,,,,,,,masks/mask_005.jpg,,,,,,,,,,,,,,,,,,,,,,,,,,,,,,,,,,,,,,,,,,,,,,,,0,4,4,4,1,,,,,,,,,,,,,,,,,,,,,,,,,,,,,,,,,,,,,,,,,
020755,001,2022-11-21_00h52.34.440,Info_measure_main_exp,2022.2.2,Win32,60.0240096,,,,,,,,,,,,,,,,,,,,,,,,,,,,,,6,1.069,1,,,,,,,,,,,,0,131,5,5,2238,2166,absent_patch/patch0002238.jpg,absent_patch/patch0002166.jpg,,,,,,,,,,,,,,,,,,,,0.115740741,0.053240741,1,0,0,response1disk,3,-0.001157407,0,1,0,0,center_square,0,2,2,118,1,,,,,,,,,,,,,,,,,,,,,,,
020755,001,2022-11-21_00h52.34.440,Info_measure_main_exp,2022.2.2,Win32,60.0240096,,,,,,,,,,,,,,,,,,masks/mask_004.jpg,,,,,,,,,,,,,,,,,,,,,,,,,,,,,,,,,,,,,,,,,,,0,0,0,3,1,,,,,,,,,,,,,,,,,,,,,,,,,,,,,,,,,,,,,,,,,,,,,,
020755,001,2022-11-21_00h52.34.440,Info_measure_main_exp,2022.2.2,Win32,60.0240096,,,,,,,,,,,,,,,,,,masks/mask_002.jpg,,,,,,,,,,,,,,,,,,,,,,,,,,,,,,,,,,,,,,,,,,,0,1,1,1,1,,,,,,,,,,,,,,,,,,,,,,,,,,,,,,,,,,,,,,,,,,,,,,
020755,001,2022-11-21_00h52.34.440,Info_measure_main_exp,2022.2.2,Win32,60.0240096,,,,,,,,,,,,,,,,,,masks/mask_003.jpg,,,,,,,,,,,,,,,,,,,,,,,,,,,,,,,,,,,,,,,,,,,0,2,2,2,1,,,,,,,,,,,,,,,,,,,,,,,,,,,,,,,,,,,,,,,,,,,,,,
020755,001,2022-11-21_00h52.34.440,Info_measure_main_exp,2022.2.2,Win32,60.0240096,,,,,,,,,,,,,,,,,,masks/mask_005.jpg,,,,,,,,,,,,,,,,,,,,,,,,,,,,,,,,,,,,,,,,,,,0,3,3,4,1,,,,,,,,,,,,,,,,,,,,,,,,,,,,,,,,,,,,,,,,,,,,,,
020755,001,2022-11-21_00h52.34.440,Info_measure_main_exp,2022.2.2,Win32,60.0240096,,,,,,,,,,,,,,,,,,masks/mask_001.jpg,,,,,,,,,,,,,,,,,,,,,,,,,,,,,,,,,,,,,,,,,,,0,4,4,0,1,,,,,,,,,,,,,,,,,,,,,,,,,,,,,,,,,,,,,,,,,,,,,,
020755,001,2022-11-21_00h52.34.440,Info_measure_main_exp,2022.2.2,Win32,60.0240096,,,,,,,,,,,,,,,,,,masks/mask_004.jpg,,,,,,,,,,,,,,,,,,,,,,,,,,,,,,,,,,,,,,,,,,,,,,,,0,0,0,3,1,,,,,,,,,,,,,,,,,,,,,,,,,,,,,,,,,,,,,,,,,
020755,001,2022-11-21_00h52.34.440,Info_measure_main_exp,2022.2.2,Win32,60.0240096,,,,,,,,,,,,,,,,,,masks/mask_005.jpg,,,,,,,,,,,,,,,,,,,,,,,,,,,,,,,,,,,,,,,,,,,,,,,,0,1,1,4,1,,,,,,,,,,,,,,,,,,,,,,,,,,,,,,,,,,,,,,,,,
020755,001,2022-11-21_00h52.34.440,Info_measure_main_exp,2022.2.2,Win32,60.0240096,,,,,,,,,,,,,,,,,,masks/mask_003.jpg,,,,,,,,,,,,,,,,,,,,,,,,,,,,,,,,,,,,,,,,,,,,,,,,0,2,2,2,1,,,,,,,,,,,,,,,,,,,,,,,,,,,,,,,,,,,,,,,,,
020755,001,2022-11-21_00h52.34.440,Info_measure_main_exp,2022.2.2,Win32,60.0240096,,,,,,,,,,,,,,,,,,masks/mask_002.jpg,,,,,,,,,,,,,,,,,,,,,,,,,,,,,,,,,,,,,,,,,,,,,,,,0,3,3,1,1,,,,,,,,,,,,,,,,,,,,,,,,,,,,,,,,,,,,,,,,,
020755,001,2022-11-21_00h52.34.440,Info_measure_main_exp,2022.2.2,Win32,60.0240096,,,,,,,,,,,,,,,,,,masks/mask_001.jpg,,,,,,,,,,,,,,,,,,,,,,,,,,,,,,,,,,,,,,,,,,,,,,,,0,4,4,0,1,,,,,,,,,,,,,,,,,,,,,,,,,,,,,,,,,,,,,,,,,
020755,001,2022-11-21_00h52.34.440,Info_measure_main_exp,2022.2.2,Win32,60.0240096,,,,,,,,,,,,,,,,,,,,,,,,,,,,,,6,2.553,1,,,,,,,,,,,,0,131,5,5,2274,1974,absent_patch/patch0002274.jpg,absent_patch/patch0001974.jpg,,,,,,,,,,,,,,,,,,,,0.141203704,0.048611111,1,0,0,response1disk,4,0.002314815,-0.002314815,1,0,0,center_square,0,3,3,90,1,,,,,,,,,,,,,,,,,,,,,,,
020755,001,2022-11-21_00h52.34.440,Info_measure_main_exp,2022.2.2,Win32,60.0240096,,,,,,,,,,,,,,,,,,masks/mask_004.jpg,,,,,,,,,,,,,,,,,,,,,,,,,,,,,,,,,,,,,,,,,,,0,0,0,3,1,,,,,,,,,,,,,,,,,,,,,,,,,,,,,,,,,,,,,,,,,,,,,,
020755,001,2022-11-21_00h52.34.440,Info_measure_main_exp,2022.2.2,Win32,60.0240096,,,,,,,,,,,,,,,,,,masks/mask_001.jpg,,,,,,,,,,,,,,,,,,,,,,,,,,,,,,,,,,,,,,,,,,,0,1,1,0,1,,,,,,,,,,,,,,,,,,,,,,,,,,,,,,,,,,,,,,,,,,,,,,
020755,001,2022-11-21_00h52.34.440,Info_measure_main_exp,2022.2.2,Win32,60.0240096,,,,,,,,,,,,,,,,,,masks/mask_005.jpg,,,,,,,,,,,,,,,,,,,,,,,,,,,,,,,,,,,,,,,,,,,0,2,2,4,1,,,,,,,,,,,,,,,,,,,,,,,,,,,,,,,,,,,,,,,,,,,,,,
020755,001,2022-11-21_00h52.34.440,Info_measure_main_exp,2022.2.2,Win32,60.0240096,,,,,,,,,,,,,,,,,,masks/mask_003.jpg,,,,,,,,,,,,,,,,,,,,,,,,,,,,,,,,,,,,,,,,,,,0,3,3,2,1,,,,,,,,,,,,,,,,,,,,,,,,,,,,,,,,,,,,,,,,,,,,,,
020755,001,2022-11-21_00h52.34.440,Info_measure_main_exp,2022.2.2,Win32,60.0240096,,,,,,,,,,,,,,,,,,masks/mask_002.jpg,,,,,,,,,,,,,,,,,,,,,,,,,,,,,,,,,,,,,,,,,,,0,4,4,1,1,,,,,,,,,,,,,,,,,,,,,,,,,,,,,,,,,,,,,,,,,,,,,,
020755,001,2022-11-21_00h52.34.440,Info_measure_main_exp,2022.2.2,Win32,60.0240096,,,,,,,,,,,,,,,,,,masks/mask_004.jpg,,,,,,,,,,,,,,,,,,,,,,,,,,,,,,,,,,,,,,,,,,,,,,,,0,0,0,3,1,,,,,,,,,,,,,,,,,,,,,,,,,,,,,,,,,,,,,,,,,
020755,001,2022-11-21_00h52.34.440,Info_measure_main_exp,2022.2.2,Win32,60.0240096,,,,,,,,,,,,,,,,,,masks/mask_005.jpg,,,,,,,,,,,,,,,,,,,,,,,,,,,,,,,,,,,,,,,,,,,,,,,,0,1,1,4,1,,,,,,,,,,,,,,,,,,,,,,,,,,,,,,,,,,,,,,,,,
020755,001,2022-11-21_00h52.34.440,Info_measure_main_exp,2022.2.2,Win32,60.0240096,,,,,,,,,,,,,,,,,,masks/mask_002.jpg,,,,,,,,,,,,,,,,,,,,,,,,,,,,,,,,,,,,,,,,,,,,,,,,0,2,2,1,1,,,,,,,,,,,,,,,,,,,,,,,,,,,,,,,,,,,,,,,,,
020755,001,2022-11-21_00h52.34.440,Info_measure_main_exp,2022.2.2,Win32,60.0240096,,,,,,,,,,,,,,,,,,masks/mask_003.jpg,,,,,,,,,,,,,,,,,,,,,,,,,,,,,,,,,,,,,,,,,,,,,,,,0,3,3,2,1,,,,,,,,,,,,,,,,,,,,,,,,,,,,,,,,,,,,,,,,,
020755,001,2022-11-21_00h52.34.440,Info_measure_main_exp,2022.2.2,Win32,60.0240096,,,,,,,,,,,,,,,,,,masks/mask_001.jpg,,,,,,,,,,,,,,,,,,,,,,,,,,,,,,,,,,,,,,,,,,,,,,,,0,4,4,0,1,,,,,,,,,,,,,,,,,,,,,,,,,,,,,,,,,,,,,,,,,
020755,001,2022-11-21_00h52.34.440,Info_measure_main_exp,2022.2.2,Win32,60.0240096,,,,,,,,,,,,,,,,,,,,,,,,,,,,,,3,2.731,1,,,,,,,,,,,,0,131,5,5,2274,2238,absent_patch/patch0002274.jpg,absent_patch/patch0002238.jpg,,,,,,,,,,,,,,,,,,,,-0.030092593,-0.103009259,1,0,0,response5disk,5,0.00462963,0.00462963,1,0,0,center_square,0,4,4,91,1,,,,,,,,,,,,,,,,,,,,,,,
020755,001,2022-11-21_00h52.34.440,Info_measure_main_exp,2022.2.2,Win32,60.0240096,,,,,,,,,,,,,,,,,,masks/mask_004.jpg,,,,,,,,,,,,,,,,,,,,,,,,,,,,,,,,,,,,,,,,,,,0,0,0,3,1,,,,,,,,,,,,,,,,,,,,,,,,,,,,,,,,,,,,,,,,,,,,,,
020755,001,2022-11-21_00h52.34.440,Info_measure_main_exp,2022.2.2,Win32,60.0240096,,,,,,,,,,,,,,,,,,masks/mask_001.jpg,,,,,,,,,,,,,,,,,,,,,,,,,,,,,,,,,,,,,,,,,,,0,1,1,0,1,,,,,,,,,,,,,,,,,,,,,,,,,,,,,,,,,,,,,,,,,,,,,,
020755,001,2022-11-21_00h52.34.440,Info_measure_main_exp,2022.2.2,Win32,60.0240096,,,,,,,,,,,,,,,,,,masks/mask_003.jpg,,,,,,,,,,,,,,,,,,,,,,,,,,,,,,,,,,,,,,,,,,,0,2,2,2,1,,,,,,,,,,,,,,,,,,,,,,,,,,,,,,,,,,,,,,,,,,,,,,
020755,001,2022-11-21_00h52.34.440,Info_measure_main_exp,2022.2.2,Win32,60.0240096,,,,,,,,,,,,,,,,,,masks/mask_002.jpg,,,,,,,,,,,,,,,,,,,,,,,,,,,,,,,,,,,,,,,,,,,0,3,3,1,1,,,,,,,,,,,,,,,,,,,,,,,,,,,,,,,,,,,,,,,,,,,,,,
020755,001,2022-11-21_00h52.34.440,Info_measure_main_exp,2022.2.2,Win32,60.0240096,,,,,,,,,,,,,,,,,,masks/mask_005.jpg,,,,,,,,,,,,,,,,,,,,,,,,,,,,,,,,,,,,,,,,,,,0,4,4,4,1,,,,,,,,,,,,,,,,,,,,,,,,,,,,,,,,,,,,,,,,,,,,,,
020755,001,2022-11-21_00h52.34.440,Info_measure_main_exp,2022.2.2,Win32,60.0240096,,,,,,,,,,,,,,,,,,masks/mask_001.jpg,,,,,,,,,,,,,,,,,,,,,,,,,,,,,,,,,,,,,,,,,,,,,,,,0,0,0,0,1,,,,,,,,,,,,,,,,,,,,,,,,,,,,,,,,,,,,,,,,,
020755,001,2022-11-21_00h52.34.440,Info_measure_main_exp,2022.2.2,Win32,60.0240096,,,,,,,,,,,,,,,,,,masks/mask_002.jpg,,,,,,,,,,,,,,,,,,,,,,,,,,,,,,,,,,,,,,,,,,,,,,,,0,1,1,1,1,,,,,,,,,,,,,,,,,,,,,,,,,,,,,,,,,,,,,,,,,
020755,001,2022-11-21_00h52.34.440,Info_measure_main_exp,2022.2.2,Win32,60.0240096,,,,,,,,,,,,,,,,,,masks/mask_004.jpg,,,,,,,,,,,,,,,,,,,,,,,,,,,,,,,,,,,,,,,,,,,,,,,,0,2,2,3,1,,,,,,,,,,,,,,,,,,,,,,,,,,,,,,,,,,,,,,,,,
020755,001,2022-11-21_00h52.34.440,Info_measure_main_exp,2022.2.2,Win32,60.0240096,,,,,,,,,,,,,,,,,,masks/mask_003.jpg,,,,,,,,,,,,,,,,,,,,,,,,,,,,,,,,,,,,,,,,,,,,,,,,0,3,3,2,1,,,,,,,,,,,,,,,,,,,,,,,,,,,,,,,,,,,,,,,,,
020755,001,2022-11-21_00h52.34.440,Info_measure_main_exp,2022.2.2,Win32,60.0240096,,,,,,,,,,,,,,,,,,masks/mask_005.jpg,,,,,,,,,,,,,,,,,,,,,,,,,,,,,,,,,,,,,,,,,,,,,,,,0,4,4,4,1,,,,,,,,,,,,,,,,,,,,,,,,,,,,,,,,,,,,,,,,,
020755,001,2022-11-21_00h52.34.440,Info_measure_main_exp,2022.2.2,Win32,60.0240096,,,,,,,,,,,,,,,,,,,,,,,,,,,,,,6,2.082,1,,,,,,,,,,,,0,131,5,5,2274,2190,absent_patch/patch0002274.jpg,absent_patch/patch0002190.jpg,,,,,,,,,,,,,,,,,,,,0.06712963,0.030092593,1,0,0,response1disk,6,-0.006944444,0.005787037,1,0,0,center_square,0,5,5,116,1,,,,,,,,,,,,,,,,,,,,,,,
020755,001,2022-11-21_00h52.34.440,Info_measure_main_exp,2022.2.2,Win32,60.0240096,,,,,,,,,,,,,,,,,,masks/mask_004.jpg,,,,,,,,,,,,,,,,,,,,,,,,,,,,,,,,,,,,,,,,,,,0,0,0,3,1,,,,,,,,,,,,,,,,,,,,,,,,,,,,,,,,,,,,,,,,,,,,,,
020755,001,2022-11-21_00h52.34.440,Info_measure_main_exp,2022.2.2,Win32,60.0240096,,,,,,,,,,,,,,,,,,masks/mask_003.jpg,,,,,,,,,,,,,,,,,,,,,,,,,,,,,,,,,,,,,,,,,,,0,1,1,2,1,,,,,,,,,,,,,,,,,,,,,,,,,,,,,,,,,,,,,,,,,,,,,,
020755,001,2022-11-21_00h52.34.440,Info_measure_main_exp,2022.2.2,Win32,60.0240096,,,,,,,,,,,,,,,,,,masks/mask_002.jpg,,,,,,,,,,,,,,,,,,,,,,,,,,,,,,,,,,,,,,,,,,,0,2,2,1,1,,,,,,,,,,,,,,,,,,,,,,,,,,,,,,,,,,,,,,,,,,,,,,
020755,001,2022-11-21_00h52.34.440,Info_measure_main_exp,2022.2.2,Win32,60.0240096,,,,,,,,,,,,,,,,,,masks/mask_001.jpg,,,,,,,,,,,,,,,,,,,,,,,,,,,,,,,,,,,,,,,,,,,0,3,3,0,1,,,,,,,,,,,,,,,,,,,,,,,,,,,,,,,,,,,,,,,,,,,,,,
020755,001,2022-11-21_00h52.34.440,Info_measure_main_exp,2022.2.2,Win32,60.0240096,,,,,,,,,,,,,,,,,,masks/mask_005.jpg,,,,,,,,,,,,,,,,,,,,,,,,,,,,,,,,,,,,,,,,,,,0,4,4,4,1,,,,,,,,,,,,,,,,,,,,,,,,,,,,,,,,,,,,,,,,,,,,,,
020755,001,2022-11-21_00h52.34.440,Info_measure_main_exp,2022.2.2,Win32,60.0240096,,,,,,,,,,,,,,,,,,masks/mask_003.jpg,,,,,,,,,,,,,,,,,,,,,,,,,,,,,,,,,,,,,,,,,,,,,,,,0,0,0,2,1,,,,,,,,,,,,,,,,,,,,,,,,,,,,,,,,,,,,,,,,,
020755,001,2022-11-21_00h52.34.440,Info_measure_main_exp,2022.2.2,Win32,60.0240096,,,,,,,,,,,,,,,,,,masks/mask_001.jpg,,,,,,,,,,,,,,,,,,,,,,,,,,,,,,,,,,,,,,,,,,,,,,,,0,1,1,0,1,,,,,,,,,,,,,,,,,,,,,,,,,,,,,,,,,,,,,,,,,
020755,001,2022-11-21_00h52.34.440,Info_measure_main_exp,2022.2.2,Win32,60.0240096,,,,,,,,,,,,,,,,,,masks/mask_002.jpg,,,,,,,,,,,,,,,,,,,,,,,,,,,,,,,,,,,,,,,,,,,,,,,,0,2,2,1,1,,,,,,,,,,,,,,,,,,,,,,,,,,,,,,,,,,,,,,,,,
020755,001,2022-11-21_00h52.34.440,Info_measure_main_exp,2022.2.2,Win32,60.0240096,,,,,,,,,,,,,,,,,,masks/mask_004.jpg,,,,,,,,,,,,,,,,,,,,,,,,,,,,,,,,,,,,,,,,,,,,,,,,0,3,3,3,1,,,,,,,,,,,,,,,,,,,,,,,,,,,,,,,,,,,,,,,,,
020755,001,2022-11-21_00h52.34.440,Info_measure_main_exp,2022.2.2,Win32,60.0240096,,,,,,,,,,,,,,,,,,masks/mask_005.jpg,,,,,,,,,,,,,,,,,,,,,,,,,,,,,,,,,,,,,,,,,,,,,,,,0,4,4,4,1,,,,,,,,,,,,,,,,,,,,,,,,,,,,,,,,,,,,,,,,,
020755,001,2022-11-21_00h52.34.440,Info_measure_main_exp,2022.2.2,Win32,60.0240096,,,,,,,,,,,,,,,,,,,,,,,,,,,,,,0,1.15,1,,,,,,,,,,,,0,131,5,5,2190,2190,absent_patch/patch0002190.jpg,absent_patch/patch0002190.jpg,,,,,,,,,,,,,,,,,,,,-0.063657407,0.118055556,1,0,0,response7disk,7,-0.001157407,0.002314815,1,0,0,center_square,0,6,6,86,1,,,,,,,,,,,,,,,,,,,,,,,
020755,001,2022-11-21_00h52.34.440,Info_measure_main_exp,2022.2.2,Win32,60.0240096,,,,,,,,,,,,,,,,,,masks/mask_001.jpg,,,,,,,,,,,,,,,,,,,,,,,,,,,,,,,,,,,,,,,,,,,0,0,0,0,1,,,,,,,,,,,,,,,,,,,,,,,,,,,,,,,,,,,,,,,,,,,,,,
020755,001,2022-11-21_00h52.34.440,Info_measure_main_exp,2022.2.2,Win32,60.0240096,,,,,,,,,,,,,,,,,,masks/mask_003.jpg,,,,,,,,,,,,,,,,,,,,,,,,,,,,,,,,,,,,,,,,,,,0,1,1,2,1,,,,,,,,,,,,,,,,,,,,,,,,,,,,,,,,,,,,,,,,,,,,,,
020755,001,2022-11-21_00h52.34.440,Info_measure_main_exp,2022.2.2,Win32,60.0240096,,,,,,,,,,,,,,,,,,masks/mask_002.jpg,,,,,,,,,,,,,,,,,,,,,,,,,,,,,,,,,,,,,,,,,,,0,2,2,1,1,,,,,,,,,,,,,,,,,,,,,,,,,,,,,,,,,,,,,,,,,,,,,,
020755,001,2022-11-21_00h52.34.440,Info_measure_main_exp,2022.2.2,Win32,60.0240096,,,,,,,,,,,,,,,,,,masks/mask_005.jpg,,,,,,,,,,,,,,,,,,,,,,,,,,,,,,,,,,,,,,,,,,,0,3,3,4,1,,,,,,,,,,,,,,,,,,,,,,,,,,,,,,,,,,,,,,,,,,,,,,
020755,001,2022-11-21_00h52.34.440,Info_measure_main_exp,2022.2.2,Win32,60.0240096,,,,,,,,,,,,,,,,,,masks/mask_004.jpg,,,,,,,,,,,,,,,,,,,,,,,,,,,,,,,,,,,,,,,,,,,0,4,4,3,1,,,,,,,,,,,,,,,,,,,,,,,,,,,,,,,,,,,,,,,,,,,,,,
020755,001,2022-11-21_00h52.34.440,Info_measure_main_exp,2022.2.2,Win32,60.0240096,,,,,,,,,,,,,,,,,,masks/mask_005.jpg,,,,,,,,,,,,,,,,,,,,,,,,,,,,,,,,,,,,,,,,,,,,,,,,0,0,0,4,1,,,,,,,,,,,,,,,,,,,,,,,,,,,,,,,,,,,,,,,,,
020755,001,2022-11-21_00h52.34.440,Info_measure_main_exp,2022.2.2,Win32,60.0240096,,,,,,,,,,,,,,,,,,masks/mask_004.jpg,,,,,,,,,,,,,,,,,,,,,,,,,,,,,,,,,,,,,,,,,,,,,,,,0,1,1,3,1,,,,,,,,,,,,,,,,,,,,,,,,,,,,,,,,,,,,,,,,,
020755,001,2022-11-21_00h52.34.440,Info_measure_main_exp,2022.2.2,Win32,60.0240096,,,,,,,,,,,,,,,,,,masks/mask_002.jpg,,,,,,,,,,,,,,,,,,,,,,,,,,,,,,,,,,,,,,,,,,,,,,,,0,2,2,1,1,,,,,,,,,,,,,,,,,,,,,,,,,,,,,,,,,,,,,,,,,
020755,001,2022-11-21_00h52.34.440,Info_measure_main_exp,2022.2.2,Win32,60.0240096,,,,,,,,,,,,,,,,,,masks/mask_001.jpg,,,,,,,,,,,,,,,,,,,,,,,,,,,,,,,,,,,,,,,,,,,,,,,,0,3,3,0,1,,,,,,,,,,,,,,,,,,,,,,,,,,,,,,,,,,,,,,,,,
020755,001,2022-11-21_00h52.34.440,Info_measure_main_exp,2022.2.2,Win32,60.0240096,,,,,,,,,,,,,,,,,,masks/mask_003.jpg,,,,,,,,,,,,,,,,,,,,,,,,,,,,,,,,,,,,,,,,,,,,,,,,0,4,4,2,1,,,,,,,,,,,,,,,,,,,,,,,,,,,,,,,,,,,,,,,,,
020755,001,2022-11-21_00h52.34.440,Info_measure_main_exp,2022.2.2,Win32,60.0240096,,,,,,,,,,,,,,,,,,,,,,,,,,,,,,7,1.113,1,,,,,,,,,,,,0,131,5,5,2154,1950,absent_patch/patch0002154.jpg,absent_patch/patch0001950.jpg,,,,,,,,,,,,,,,,,,,,0.042824074,0.108796296,1,0,0,response1disk,8,0,0.002314815,1,0,0,center_square,0,7,7,96,1,,,,,,,,,,,,,,,,,,,,,,,
020755,001,2022-11-21_00h52.34.440,Info_measure_main_exp,2022.2.2,Win32,60.0240096,,,,,,,,,,,,,,,,,,masks/mask_002.jpg,,,,,,,,,,,,,,,,,,,,,,,,,,,,,,,,,,,,,,,,,,,0,0,0,1,1,,,,,,,,,,,,,,,,,,,,,,,,,,,,,,,,,,,,,,,,,,,,,,
020755,001,2022-11-21_00h52.34.440,Info_measure_main_exp,2022.2.2,Win32,60.0240096,,,,,,,,,,,,,,,,,,masks/mask_004.jpg,,,,,,,,,,,,,,,,,,,,,,,,,,,,,,,,,,,,,,,,,,,0,1,1,3,1,,,,,,,,,,,,,,,,,,,,,,,,,,,,,,,,,,,,,,,,,,,,,,
020755,001,2022-11-21_00h52.34.440,Info_measure_main_exp,2022.2.2,Win32,60.0240096,,,,,,,,,,,,,,,,,,masks/mask_001.jpg,,,,,,,,,,,,,,,,,,,,,,,,,,,,,,,,,,,,,,,,,,,0,2,2,0,1,,,,,,,,,,,,,,,,,,,,,,,,,,,,,,,,,,,,,,,,,,,,,,
020755,001,2022-11-21_00h52.34.440,Info_measure_main_exp,2022.2.2,Win32,60.0240096,,,,,,,,,,,,,,,,,,masks/mask_005.jpg,,,,,,,,,,,,,,,,,,,,,,,,,,,,,,,,,,,,,,,,,,,0,3,3,4,1,,,,,,,,,,,,,,,,,,,,,,,,,,,,,,,,,,,,,,,,,,,,,,
020755,001,2022-11-21_00h52.34.440,Info_measure_main_exp,2022.2.2,Win32,60.0240096,,,,,,,,,,,,,,,,,,masks/mask_003.jpg,,,,,,,,,,,,,,,,,,,,,,,,,,,,,,,,,,,,,,,,,,,0,4,4,2,1,,,,,,,,,,,,,,,,,,,,,,,,,,,,,,,,,,,,,,,,,,,,,,
020755,001,2022-11-21_00h52.34.440,Info_measure_main_exp,2022.2.2,Win32,60.0240096,,,,,,,,,,,,,,,,,,masks/mask_003.jpg,,,,,,,,,,,,,,,,,,,,,,,,,,,,,,,,,,,,,,,,,,,,,,,,0,0,0,2,1,,,,,,,,,,,,,,,,,,,,,,,,,,,,,,,,,,,,,,,,,
020755,001,2022-11-21_00h52.34.440,Info_measure_main_exp,2022.2.2,Win32,60.0240096,,,,,,,,,,,,,,,,,,masks/mask_002.jpg,,,,,,,,,,,,,,,,,,,,,,,,,,,,,,,,,,,,,,,,,,,,,,,,0,1,1,1,1,,,,,,,,,,,,,,,,,,,,,,,,,,,,,,,,,,,,,,,,,
020755,001,2022-11-21_00h52.34.440,Info_measure_main_exp,2022.2.2,Win32,60.0240096,,,,,,,,,,,,,,,,,,masks/mask_005.jpg,,,,,,,,,,,,,,,,,,,,,,,,,,,,,,,,,,,,,,,,,,,,,,,,0,2,2,4,1,,,,,,,,,,,,,,,,,,,,,,,,,,,,,,,,,,,,,,,,,
020755,001,2022-11-21_00h52.34.440,Info_measure_main_exp,2022.2.2,Win32,60.0240096,,,,,,,,,,,,,,,,,,masks/mask_001.jpg,,,,,,,,,,,,,,,,,,,,,,,,,,,,,,,,,,,,,,,,,,,,,,,,0,3,3,0,1,,,,,,,,,,,,,,,,,,,,,,,,,,,,,,,,,,,,,,,,,
020755,001,2022-11-21_00h52.34.440,Info_measure_main_exp,2022.2.2,Win32,60.0240096,,,,,,,,,,,,,,,,,,masks/mask_004.jpg,,,,,,,,,,,,,,,,,,,,,,,,,,,,,,,,,,,,,,,,,,,,,,,,0,4,4,3,1,,,,,,,,,,,,,,,,,,,,,,,,,,,,,,,,,,,,,,,,,
020755,001,2022-11-21_00h52.34.440,Info_measure_main_exp,2022.2.2,Win32,60.0240096,,,,,,,,,,,,,,,,,,,,,,,,,,,,,,1,1.298,1,,,,,,,,,,,,0,131,5,5,2142,2082,absent_patch/patch0002142.jpg,absent_patch/patch0002082.jpg,,,,,,,,,,,,,,,,,,,,-0.086805556,0.03125,1,0,0,response7disk,9,-0.005787037,-0.002314815,1,0,0,center_square,0,8,8,88,1,,,,,,,,,,,,,,,,,,,,,,,
020755,001,2022-11-21_00h52.34.440,Info_measure_main_exp,2022.2.2,Win32,60.0240096,,,,,,,,,,,,,,,,,,masks/mask_001.jpg,,,,,,,,,,,,,,,,,,,,,,,,,,,,,,,,,,,,,,,,,,,0,0,0,0,1,,,,,,,,,,,,,,,,,,,,,,,,,,,,,,,,,,,,,,,,,,,,,,
020755,001,2022-11-21_00h52.34.440,Info_measure_main_exp,2022.2.2,Win32,60.0240096,,,,,,,,,,,,,,,,,,masks/mask_004.jpg,,,,,,,,,,,,,,,,,,,,,,,,,,,,,,,,,,,,,,,,,,,0,1,1,3,1,,,,,,,,,,,,,,,,,,,,,,,,,,,,,,,,,,,,,,,,,,,,,,
020755,001,2022-11-21_00h52.34.440,Info_measure_main_exp,2022.2.2,Win32,60.0240096,,,,,,,,,,,,,,,,,,masks/mask_005.jpg,,,,,,,,,,,,,,,,,,,,,,,,,,,,,,,,,,,,,,,,,,,0,2,2,4,1,,,,,,,,,,,,,,,,,,,,,,,,,,,,,,,,,,,,,,,,,,,,,,
020755,001,2022-11-21_00h52.34.440,Info_measure_main_exp,2022.2.2,Win32,60.0240096,,,,,,,,,,,,,,,,,,masks/mask_003.jpg,,,,,,,,,,,,,,,,,,,,,,,,,,,,,,,,,,,,,,,,,,,0,3,3,2,1,,,,,,,,,,,,,,,,,,,,,,,,,,,,,,,,,,,,,,,,,,,,,,
020755,001,2022-11-21_00h52.34.440,Info_measure_main_exp,2022.2.2,Win32,60.0240096,,,,,,,,,,,,,,,,,,masks/mask_002.jpg,,,,,,,,,,,,,,,,,,,,,,,,,,,,,,,,,,,,,,,,,,,0,4,4,1,1,,,,,,,,,,,,,,,,,,,,,,,,,,,,,,,,,,,,,,,,,,,,,,
020755,001,2022-11-21_00h52.34.440,Info_measure_main_exp,2022.2.2,Win32,60.0240096,,,,,,,,,,,,,,,,,,masks/mask_004.jpg,,,,,,,,,,,,,,,,,,,,,,,,,,,,,,,,,,,,,,,,,,,,,,,,0,0,0,3,1,,,,,,,,,,,,,,,,,,,,,,,,,,,,,,,,,,,,,,,,,
020755,001,2022-11-21_00h52.34.440,Info_measure_main_exp,2022.2.2,Win32,60.0240096,,,,,,,,,,,,,,,,,,masks/mask_005.jpg,,,,,,,,,,,,,,,,,,,,,,,,,,,,,,,,,,,,,,,,,,,,,,,,0,1,1,4,1,,,,,,,,,,,,,,,,,,,,,,,,,,,,,,,,,,,,,,,,,
020755,001,2022-11-21_00h52.34.440,Info_measure_main_exp,2022.2.2,Win32,60.0240096,,,,,,,,,,,,,,,,,,masks/mask_001.jpg,,,,,,,,,,,,,,,,,,,,,,,,,,,,,,,,,,,,,,,,,,,,,,,,0,2,2,0,1,,,,,,,,,,,,,,,,,,,,,,,,,,,,,,,,,,,,,,,,,
020755,001,2022-11-21_00h52.34.440,Info_measure_main_exp,2022.2.2,Win32,60.0240096,,,,,,,,,,,,,,,,,,masks/mask_002.jpg,,,,,,,,,,,,,,,,,,,,,,,,,,,,,,,,,,,,,,,,,,,,,,,,0,3,3,1,1,,,,,,,,,,,,,,,,,,,,,,,,,,,,,,,,,,,,,,,,,
020755,001,2022-11-21_00h52.34.440,Info_measure_main_exp,2022.2.2,Win32,60.0240096,,,,,,,,,,,,,,,,,,masks/mask_003.jpg,,,,,,,,,,,,,,,,,,,,,,,,,,,,,,,,,,,,,,,,,,,,,,,,0,4,4,2,1,,,,,,,,,,,,,,,,,,,,,,,,,,,,,,,,,,,,,,,,,
020755,001,2022-11-21_00h52.34.440,Info_measure_main_exp,2022.2.2,Win32,60.0240096,,,,,,,,,,,,,,,,,,,,,,,,,,,,,,5,0.878,1,,,,,,,,,,,,0,131,5,5,1950,2238,absent_patch/patch0001950.jpg,absent_patch/patch0002238.jpg,,,,,,,,,,,,,,,,,,,,0.079861111,-0.020833333,1,0,0,response3disk,10,-0.006944444,0.006944444,1,0,0,center_square,0,9,9,8,1,,,,,,,,,,,,,,,,,,,,,,,
020755,001,2022-11-21_00h52.34.440,Info_measure_main_exp,2022.2.2,Win32,60.0240096,,,,,,,,,,,,,,,,,,masks/mask_003.jpg,,,,,,,,,,,,,,,,,,,,,,,,,,,,,,,,,,,,,,,,,,,0,0,0,2,1,,,,,,,,,,,,,,,,,,,,,,,,,,,,,,,,,,,,,,,,,,,,,,
020755,001,2022-11-21_00h52.34.440,Info_measure_main_exp,2022.2.2,Win32,60.0240096,,,,,,,,,,,,,,,,,,masks/mask_004.jpg,,,,,,,,,,,,,,,,,,,,,,,,,,,,,,,,,,,,,,,,,,,0,1,1,3,1,,,,,,,,,,,,,,,,,,,,,,,,,,,,,,,,,,,,,,,,,,,,,,
020755,001,2022-11-21_00h52.34.440,Info_measure_main_exp,2022.2.2,Win32,60.0240096,,,,,,,,,,,,,,,,,,masks/mask_002.jpg,,,,,,,,,,,,,,,,,,,,,,,,,,,,,,,,,,,,,,,,,,,0,2,2,1,1,,,,,,,,,,,,,,,,,,,,,,,,,,,,,,,,,,,,,,,,,,,,,,
020755,001,2022-11-21_00h52.34.440,Info_measure_main_exp,2022.2.2,Win32,60.0240096,,,,,,,,,,,,,,,,,,masks/mask_005.jpg,,,,,,,,,,,,,,,,,,,,,,,,,,,,,,,,,,,,,,,,,,,0,3,3,4,1,,,,,,,,,,,,,,,,,,,,,,,,,,,,,,,,,,,,,,,,,,,,,,
020755,001,2022-11-21_00h52.34.440,Info_measure_main_exp,2022.2.2,Win32,60.0240096,,,,,,,,,,,,,,,,,,masks/mask_001.jpg,,,,,,,,,,,,,,,,,,,,,,,,,,,,,,,,,,,,,,,,,,,0,4,4,0,1,,,,,,,,,,,,,,,,,,,,,,,,,,,,,,,,,,,,,,,,,,,,,,
020755,001,2022-11-21_00h52.34.440,Info_measure_main_exp,2022.2.2,Win32,60.0240096,,,,,,,,,,,,,,,,,,masks/mask_001.jpg,,,,,,,,,,,,,,,,,,,,,,,,,,,,,,,,,,,,,,,,,,,,,,,,0,0,0,0,1,,,,,,,,,,,,,,,,,,,,,,,,,,,,,,,,,,,,,,,,,
020755,001,2022-11-21_00h52.34.440,Info_measure_main_exp,2022.2.2,Win32,60.0240096,,,,,,,,,,,,,,,,,,masks/mask_002.jpg,,,,,,,,,,,,,,,,,,,,,,,,,,,,,,,,,,,,,,,,,,,,,,,,0,1,1,1,1,,,,,,,,,,,,,,,,,,,,,,,,,,,,,,,,,,,,,,,,,
020755,001,2022-11-21_00h52.34.440,Info_measure_main_exp,2022.2.2,Win32,60.0240096,,,,,,,,,,,,,,,,,,masks/mask_004.jpg,,,,,,,,,,,,,,,,,,,,,,,,,,,,,,,,,,,,,,,,,,,,,,,,0,2,2,3,1,,,,,,,,,,,,,,,,,,,,,,,,,,,,,,,,,,,,,,,,,
020755,001,2022-11-21_00h52.34.440,Info_measure_main_exp,2022.2.2,Win32,60.0240096,,,,,,,,,,,,,,,,,,masks/mask_003.jpg,,,,,,,,,,,,,,,,,,,,,,,,,,,,,,,,,,,,,,,,,,,,,,,,0,3,3,2,1,,,,,,,,,,,,,,,,,,,,,,,,,,,,,,,,,,,,,,,,,
020755,001,2022-11-21_00h52.34.440,Info_measure_main_exp,2022.2.2,Win32,60.0240096,,,,,,,,,,,,,,,,,,masks/mask_005.jpg,,,,,,,,,,,,,,,,,,,,,,,,,,,,,,,,,,,,,,,,,,,,,,,,0,4,4,4,1,,,,,,,,,,,,,,,,,,,,,,,,,,,,,,,,,,,,,,,,,
020755,001,2022-11-21_00h52.34.440,Info_measure_main_exp,2022.2.2,Win32,60.0240096,,,,,,,,,,,,,,,,,,,,,,,,,,,,,,0,1.209,1,,,,,,,,,,,,0,131,5,5,2166,2166,absent_patch/patch0002166.jpg,absent_patch/patch0002166.jpg,,,,,,,,,,,,,,,,,,,,-0.040509259,0.094907407,1,0,0,response7disk,11,-0.010416667,-0.002314815,1,0,0,center_square,0,10,10,42,1,,,,,,,,,,,,,,,,,,,,,,,
020755,001,2022-11-21_00h52.34.440,Info_measure_main_exp,2022.2.2,Win32,60.0240096,,,,,,,,,,,,,,,,,,masks/mask_003.jpg,,,,,,,,,,,,,,,,,,,,,,,,,,,,,,,,,,,,,,,,,,,0,0,0,2,1,,,,,,,,,,,,,,,,,,,,,,,,,,,,,,,,,,,,,,,,,,,,,,
020755,001,2022-11-21_00h52.34.440,Info_measure_main_exp,2022.2.2,Win32,60.0240096,,,,,,,,,,,,,,,,,,masks/mask_002.jpg,,,,,,,,,,,,,,,,,,,,,,,,,,,,,,,,,,,,,,,,,,,0,1,1,1,1,,,,,,,,,,,,,,,,,,,,,,,,,,,,,,,,,,,,,,,,,,,,,,
020755,001,2022-11-21_00h52.34.440,Info_measure_main_exp,2022.2.2,Win32,60.0240096,,,,,,,,,,,,,,,,,,masks/mask_005.jpg,,,,,,,,,,,,,,,,,,,,,,,,,,,,,,,,,,,,,,,,,,,0,2,2,4,1,,,,,,,,,,,,,,,,,,,,,,,,,,,,,,,,,,,,,,,,,,,,,,
020755,001,2022-11-21_00h52.34.440,Info_measure_main_exp,2022.2.2,Win32,60.0240096,,,,,,,,,,,,,,,,,,masks/mask_004.jpg,,,,,,,,,,,,,,,,,,,,,,,,,,,,,,,,,,,,,,,,,,,0,3,3,3,1,,,,,,,,,,,,,,,,,,,,,,,,,,,,,,,,,,,,,,,,,,,,,,
020755,001,2022-11-21_00h52.34.440,Info_measure_main_exp,2022.2.2,Win32,60.0240096,,,,,,,,,,,,,,,,,,masks/mask_001.jpg,,,,,,,,,,,,,,,,,,,,,,,,,,,,,,,,,,,,,,,,,,,0,4,4,0,1,,,,,,,,,,,,,,,,,,,,,,,,,,,,,,,,,,,,,,,,,,,,,,
020755,001,2022-11-21_00h52.34.440,Info_measure_main_exp,2022.2.2,Win32,60.0240096,,,,,,,,,,,,,,,,,,masks/mask_004.jpg,,,,,,,,,,,,,,,,,,,,,,,,,,,,,,,,,,,,,,,,,,,,,,,,0,0,0,3,1,,,,,,,,,,,,,,,,,,,,,,,,,,,,,,,,,,,,,,,,,
020755,001,2022-11-21_00h52.34.440,Info_measure_main_exp,2022.2.2,Win32,60.0240096,,,,,,,,,,,,,,,,,,masks/mask_005.jpg,,,,,,,,,,,,,,,,,,,,,,,,,,,,,,,,,,,,,,,,,,,,,,,,0,1,1,4,1,,,,,,,,,,,,,,,,,,,,,,,,,,,,,,,,,,,,,,,,,
020755,001,2022-11-21_00h52.34.440,Info_measure_main_exp,2022.2.2,Win32,60.0240096,,,,,,,,,,,,,,,,,,masks/mask_001.jpg,,,,,,,,,,,,,,,,,,,,,,,,,,,,,,,,,,,,,,,,,,,,,,,,0,2,2,0,1,,,,,,,,,,,,,,,,,,,,,,,,,,,,,,,,,,,,,,,,,
020755,001,2022-11-21_00h52.34.440,Info_measure_main_exp,2022.2.2,Win32,60.0240096,,,,,,,,,,,,,,,,,,masks/mask_003.jpg,,,,,,,,,,,,,,,,,,,,,,,,,,,,,,,,,,,,,,,,,,,,,,,,0,3,3,2,1,,,,,,,,,,,,,,,,,,,,,,,,,,,,,,,,,,,,,,,,,
020755,001,2022-11-21_00h52.34.440,Info_measure_main_exp,2022.2.2,Win32,60.0240096,,,,,,,,,,,,,,,,,,masks/mask_002.jpg,,,,,,,,,,,,,,,,,,,,,,,,,,,,,,,,,,,,,,,,,,,,,,,,0,4,4,1,1,,,,,,,,,,,,,,,,,,,,,,,,,,,,,,,,,,,,,,,,,
020755,001,2022-11-21_00h52.34.440,Info_measure_main_exp,2022.2.2,Win32,60.0240096,,,,,,,,,,,,,,,,,,,,,,,,,,,,,,7,1.493,1,,,,,,,,,,,,1,131,5,5,2082,1,absent_patch/patch0002082.jpg,present_patch/cong_131_5_a.jpg,,,,,,,,,,,,,,,,,,,,0.048611111,0.094907407,1,0,0,response1disk,12,0.006944444,-0.002314815,1,0,0,center_square,0,11,11,65,1,,,,,,,,,,,,,,,,,,,,,,,
020755,001,2022-11-21_00h52.34.440,Info_measure_main_exp,2022.2.2,Win32,60.0240096,,,,,,,,,,,,,,,,,,masks/mask_005.jpg,,,,,,,,,,,,,,,,,,,,,,,,,,,,,,,,,,,,,,,,,,,0,0,0,4,1,,,,,,,,,,,,,,,,,,,,,,,,,,,,,,,,,,,,,,,,,,,,,,
020755,001,2022-11-21_00h52.34.440,Info_measure_main_exp,2022.2.2,Win32,60.0240096,,,,,,,,,,,,,,,,,,masks/mask_002.jpg,,,,,,,,,,,,,,,,,,,,,,,,,,,,,,,,,,,,,,,,,,,0,1,1,1,1,,,,,,,,,,,,,,,,,,,,,,,,,,,,,,,,,,,,,,,,,,,,,,
020755,001,2022-11-21_00h52.34.440,Info_measure_main_exp,2022.2.2,Win32,60.0240096,,,,,,,,,,,,,,,,,,masks/mask_004.jpg,,,,,,,,,,,,,,,,,,,,,,,,,,,,,,,,,,,,,,,,,,,0,2,2,3,1,,,,,,,,,,,,,,,,,,,,,,,,,,,,,,,,,,,,,,,,,,,,,,
020755,001,2022-11-21_00h52.34.440,Info_measure_main_exp,2022.2.2,Win32,60.0240096,,,,,,,,,,,,,,,,,,masks/mask_003.jpg,,,,,,,,,,,,,,,,,,,,,,,,,,,,,,,,,,,,,,,,,,,0,3,3,2,1,,,,,,,,,,,,,,,,,,,,,,,,,,,,,,,,,,,,,,,,,,,,,,
020755,001,2022-11-21_00h52.34.440,Info_measure_main_exp,2022.2.2,Win32,60.0240096,,,,,,,,,,,,,,,,,,masks/mask_001.jpg,,,,,,,,,,,,,,,,,,,,,,,,,,,,,,,,,,,,,,,,,,,0,4,4,0,1,,,,,,,,,,,,,,,,,,,,,,,,,,,,,,,,,,,,,,,,,,,,,,
020755,001,2022-11-21_00h52.34.440,Info_measure_main_exp,2022.2.2,Win32,60.0240096,,,,,,,,,,,,,,,,,,masks/mask_004.jpg,,,,,,,,,,,,,,,,,,,,,,,,,,,,,,,,,,,,,,,,,,,,,,,,0,0,0,3,1,,,,,,,,,,,,,,,,,,,,,,,,,,,,,,,,,,,,,,,,,
020755,001,2022-11-21_00h52.34.440,Info_measure_main_exp,2022.2.2,Win32,60.0240096,,,,,,,,,,,,,,,,,,masks/mask_005.jpg,,,,,,,,,,,,,,,,,,,,,,,,,,,,,,,,,,,,,,,,,,,,,,,,0,1,1,4,1,,,,,,,,,,,,,,,,,,,,,,,,,,,,,,,,,,,,,,,,,
020755,001,2022-11-21_00h52.34.440,Info_measure_main_exp,2022.2.2,Win32,60.0240096,,,,,,,,,,,,,,,,,,masks/mask_003.jpg,,,,,,,,,,,,,,,,,,,,,,,,,,,,,,,,,,,,,,,,,,,,,,,,0,2,2,2,1,,,,,,,,,,,,,,,,,,,,,,,,,,,,,,,,,,,,,,,,,
020755,001,2022-11-21_00h52.34.440,Info_measure_main_exp,2022.2.2,Win32,60.0240096,,,,,,,,,,,,,,,,,,masks/mask_002.jpg,,,,,,,,,,,,,,,,,,,,,,,,,,,,,,,,,,,,,,,,,,,,,,,,0,3,3,1,1,,,,,,,,,,,,,,,,,,,,,,,,,,,,,,,,,,,,,,,,,
020755,001,2022-11-21_00h52.34.440,Info_measure_main_exp,2022.2.2,Win32,60.0240096,,,,,,,,,,,,,,,,,,masks/mask_001.jpg,,,,,,,,,,,,,,,,,,,,,,,,,,,,,,,,,,,,,,,,,,,,,,,,0,4,4,0,1,,,,,,,,,,,,,,,,,,,,,,,,,,,,,,,,,,,,,,,,,
020755,001,2022-11-21_00h52.34.440,Info_measure_main_exp,2022.2.2,Win32,60.0240096,,,,,,,,,,,,,,,,,,,,,,,,,,,,,,0,0.947,1,,,,,,,,,,,,0,131,5,5,2214,2214,absent_patch/patch0002214.jpg,absent_patch/patch0002214.jpg,,,,,,,,,,,,,,,,,,,,-0.053240741,0.076388889,1,0,0,response7disk,13,-0.003472222,-0.006944444,1,0,0,center_square,0,12,12,115,1,,,,,,,,,,,,,,,,,,,,,,,
020755,001,2022-11-21_00h52.34.440,Info_measure_main_exp,2022.2.2,Win32,60.0240096,,,,,,,,,,,,,,,,,,masks/mask_004.jpg,,,,,,,,,,,,,,,,,,,,,,,,,,,,,,,,,,,,,,,,,,,0,0,0,3,1,,,,,,,,,,,,,,,,,,,,,,,,,,,,,,,,,,,,,,,,,,,,,,
020755,001,2022-11-21_00h52.34.440,Info_measure_main_exp,2022.2.2,Win32,60.0240096,,,,,,,,,,,,,,,,,,masks/mask_005.jpg,,,,,,,,,,,,,,,,,,,,,,,,,,,,,,,,,,,,,,,,,,,0,1,1,4,1,,,,,,,,,,,,,,,,,,,,,,,,,,,,,,,,,,,,,,,,,,,,,,
020755,001,2022-11-21_00h52.34.440,Info_measure_main_exp,2022.2.2,Win32,60.0240096,,,,,,,,,,,,,,,,,,masks/mask_001.jpg,,,,,,,,,,,,,,,,,,,,,,,,,,,,,,,,,,,,,,,,,,,0,2,2,0,1,,,,,,,,,,,,,,,,,,,,,,,,,,,,,,,,,,,,,,,,,,,,,,
020755,001,2022-11-21_00h52.34.440,Info_measure_main_exp,2022.2.2,Win32,60.0240096,,,,,,,,,,,,,,,,,,masks/mask_003.jpg,,,,,,,,,,,,,,,,,,,,,,,,,,,,,,,,,,,,,,,,,,,0,3,3,2,1,,,,,,,,,,,,,,,,,,,,,,,,,,,,,,,,,,,,,,,,,,,,,,
020755,001,2022-11-21_00h52.34.440,Info_measure_main_exp,2022.2.2,Win32,60.0240096,,,,,,,,,,,,,,,,,,masks/mask_002.jpg,,,,,,,,,,,,,,,,,,,,,,,,,,,,,,,,,,,,,,,,,,,0,4,4,1,1,,,,,,,,,,,,,,,,,,,,,,,,,,,,,,,,,,,,,,,,,,,,,,
020755,001,2022-11-21_00h52.34.440,Info_measure_main_exp,2022.2.2,Win32,60.0240096,,,,,,,,,,,,,,,,,,masks/mask_001.jpg,,,,,,,,,,,,,,,,,,,,,,,,,,,,,,,,,,,,,,,,,,,,,,,,0,0,0,0,1,,,,,,,,,,,,,,,,,,,,,,,,,,,,,,,,,,,,,,,,,
020755,001,2022-11-21_00h52.34.440,Info_measure_main_exp,2022.2.2,Win32,60.0240096,,,,,,,,,,,,,,,,,,masks/mask_005.jpg,,,,,,,,,,,,,,,,,,,,,,,,,,,,,,,,,,,,,,,,,,,,,,,,0,1,1,4,1,,,,,,,,,,,,,,,,,,,,,,,,,,,,,,,,,,,,,,,,,
020755,001,2022-11-21_00h52.34.440,Info_measure_main_exp,2022.2.2,Win32,60.0240096,,,,,,,,,,,,,,,,,,masks/mask_004.jpg,,,,,,,,,,,,,,,,,,,,,,,,,,,,,,,,,,,,,,,,,,,,,,,,0,2,2,3,1,,,,,,,,,,,,,,,,,,,,,,,,,,,,,,,,,,,,,,,,,
020755,001,2022-11-21_00h52.34.440,Info_measure_main_exp,2022.2.2,Win32,60.0240096,,,,,,,,,,,,,,,,,,masks/mask_003.jpg,,,,,,,,,,,,,,,,,,,,,,,,,,,,,,,,,,,,,,,,,,,,,,,,0,3,3,2,1,,,,,,,,,,,,,,,,,,,,,,,,,,,,,,,,,,,,,,,,,
020755,001,2022-11-21_00h52.34.440,Info_measure_main_exp,2022.2.2,Win32,60.0240096,,,,,,,,,,,,,,,,,,masks/mask_002.jpg,,,,,,,,,,,,,,,,,,,,,,,,,,,,,,,,,,,,,,,,,,,,,,,,0,4,4,1,1,,,,,,,,,,,,,,,,,,,,,,,,,,,,,,,,,,,,,,,,,
020755,001,2022-11-21_00h52.34.440,Info_measure_main_exp,2022.2.2,Win32,60.0240096,,,,,,,,,,,,,,,,,,,,,,,,,,,,,,7,0.944,1,,,,,,,,,,,,0,131,5,5,2238,2214,absent_patch/patch0002238.jpg,absent_patch/patch0002214.jpg,,,,,,,,,,,,,,,,,,,,0.060185185,0.101851852,1,0,0,response1disk,14,-0.008101852,-0.001157407,1,0,0,center_square,0,13,13,81,1,,,,,,,,,,,,,,,,,,,,,,,
020755,001,2022-11-21_00h52.34.440,Info_measure_main_exp,2022.2.2,Win32,60.0240096,,,,,,,,,,,,,,,,,,masks/mask_004.jpg,,,,,,,,,,,,,,,,,,,,,,,,,,,,,,,,,,,,,,,,,,,0,0,0,3,1,,,,,,,,,,,,,,,,,,,,,,,,,,,,,,,,,,,,,,,,,,,,,,
020755,001,2022-11-21_00h52.34.440,Info_measure_main_exp,2022.2.2,Win32,60.0240096,,,,,,,,,,,,,,,,,,masks/mask_002.jpg,,,,,,,,,,,,,,,,,,,,,,,,,,,,,,,,,,,,,,,,,,,0,1,1,1,1,,,,,,,,,,,,,,,,,,,,,,,,,,,,,,,,,,,,,,,,,,,,,,
020755,001,2022-11-21_00h52.34.440,Info_measure_main_exp,2022.2.2,Win32,60.0240096,,,,,,,,,,,,,,,,,,masks/mask_003.jpg,,,,,,,,,,,,,,,,,,,,,,,,,,,,,,,,,,,,,,,,,,,0,2,2,2,1,,,,,,,,,,,,,,,,,,,,,,,,,,,,,,,,,,,,,,,,,,,,,,
020755,001,2022-11-21_00h52.34.440,Info_measure_main_exp,2022.2.2,Win32,60.0240096,,,,,,,,,,,,,,,,,,masks/mask_001.jpg,,,,,,,,,,,,,,,,,,,,,,,,,,,,,,,,,,,,,,,,,,,0,3,3,0,1,,,,,,,,,,,,,,,,,,,,,,,,,,,,,,,,,,,,,,,,,,,,,,
020755,001,2022-11-21_00h52.34.440,Info_measure_main_exp,2022.2.2,Win32,60.0240096,,,,,,,,,,,,,,,,,,masks/mask_005.jpg,,,,,,,,,,,,,,,,,,,,,,,,,,,,,,,,,,,,,,,,,,,0,4,4,4,1,,,,,,,,,,,,,,,,,,,,,,,,,,,,,,,,,,,,,,,,,,,,,,
020755,001,2022-11-21_00h52.34.440,Info_measure_main_exp,2022.2.2,Win32,60.0240096,,,,,,,,,,,,,,,,,,masks/mask_001.jpg,,,,,,,,,,,,,,,,,,,,,,,,,,,,,,,,,,,,,,,,,,,,,,,,0,0,0,0,1,,,,,,,,,,,,,,,,,,,,,,,,,,,,,,,,,,,,,,,,,
020755,001,2022-11-21_00h52.34.440,Info_measure_main_exp,2022.2.2,Win32,60.0240096,,,,,,,,,,,,,,,,,,masks/mask_005.jpg,,,,,,,,,,,,,,,,,,,,,,,,,,,,,,,,,,,,,,,,,,,,,,,,0,1,1,4,1,,,,,,,,,,,,,,,,,,,,,,,,,,,,,,,,,,,,,,,,,
020755,001,2022-11-21_00h52.34.440,Info_measure_main_exp,2022.2.2,Win32,60.0240096,,,,,,,,,,,,,,,,,,masks/mask_004.jpg,,,,,,,,,,,,,,,,,,,,,,,,,,,,,,,,,,,,,,,,,,,,,,,,0,2,2,3,1,,,,,,,,,,,,,,,,,,,,,,,,,,,,,,,,,,,,,,,,,
020755,001,2022-11-21_00h52.34.440,Info_measure_main_exp,2022.2.2,Win32,60.0240096,,,,,,,,,,,,,,,,,,masks/mask_003.jpg,,,,,,,,,,,,,,,,,,,,,,,,,,,,,,,,,,,,,,,,,,,,,,,,0,3,3,2,1,,,,,,,,,,,,,,,,,,,,,,,,,,,,,,,,,,,,,,,,,
020755,001,2022-11-21_00h52.34.440,Info_measure_main_exp,2022.2.2,Win32,60.0240096,,,,,,,,,,,,,,,,,,masks/mask_002.jpg,,,,,,,,,,,,,,,,,,,,,,,,,,,,,,,,,,,,,,,,,,,,,,,,0,4,4,1,1,,,,,,,,,,,,,,,,,,,,,,,,,,,,,,,,,,,,,,,,,
020755,001,2022-11-21_00h52.34.440,Info_measure_main_exp,2022.2.2,Win32,60.0240096,,,,,,,,,,,,,,,,,,,,,,,,,,,,,,4,2.999,1,,,,,,,,,,,,0,131,5,5,2214,2082,absent_patch/patch0002214.jpg,absent_patch/patch0002082.jpg,,,,,,,,,,,,,,,,,,,,0.045138889,-0.168981481,1,0,0,response3disk,15,0.003472222,0.003472222,1,0,0,center_square,0,14,14,103,1,,,,,,,,,,,,,,,,,,,,,,,
020755,001,2022-11-21_00h52.34.440,Info_measure_main_exp,2022.2.2,Win32,60.0240096,,,,,,,,,,,,,,,,,,masks/mask_003.jpg,,,,,,,,,,,,,,,,,,,,,,,,,,,,,,,,,,,,,,,,,,,0,0,0,2,1,,,,,,,,,,,,,,,,,,,,,,,,,,,,,,,,,,,,,,,,,,,,,,
020755,001,2022-11-21_00h52.34.440,Info_measure_main_exp,2022.2.2,Win32,60.0240096,,,,,,,,,,,,,,,,,,masks/mask_002.jpg,,,,,,,,,,,,,,,,,,,,,,,,,,,,,,,,,,,,,,,,,,,0,1,1,1,1,,,,,,,,,,,,,,,,,,,,,,,,,,,,,,,,,,,,,,,,,,,,,,
020755,001,2022-11-21_00h52.34.440,Info_measure_main_exp,2022.2.2,Win32,60.0240096,,,,,,,,,,,,,,,,,,masks/mask_005.jpg,,,,,,,,,,,,,,,,,,,,,,,,,,,,,,,,,,,,,,,,,,,0,2,2,4,1,,,,,,,,,,,,,,,,,,,,,,,,,,,,,,,,,,,,,,,,,,,,,,
020755,001,2022-11-21_00h52.34.440,Info_measure_main_exp,2022.2.2,Win32,60.0240096,,,,,,,,,,,,,,,,,,masks/mask_004.jpg,,,,,,,,,,,,,,,,,,,,,,,,,,,,,,,,,,,,,,,,,,,0,3,3,3,1,,,,,,,,,,,,,,,,,,,,,,,,,,,,,,,,,,,,,,,,,,,,,,
020755,001,2022-11-21_00h52.34.440,Info_measure_main_exp,2022.2.2,Win32,60.0240096,,,,,,,,,,,,,,,,,,masks/mask_001.jpg,,,,,,,,,,,,,,,,,,,,,,,,,,,,,,,,,,,,,,,,,,,0,4,4,0,1,,,,,,,,,,,,,,,,,,,,,,,,,,,,,,,,,,,,,,,,,,,,,,
020755,001,2022-11-21_00h52.34.440,Info_measure_main_exp,2022.2.2,Win32,60.0240096,,,,,,,,,,,,,,,,,,masks/mask_005.jpg,,,,,,,,,,,,,,,,,,,,,,,,,,,,,,,,,,,,,,,,,,,,,,,,0,0,0,4,1,,,,,,,,,,,,,,,,,,,,,,,,,,,,,,,,,,,,,,,,,
020755,001,2022-11-21_00h52.34.440,Info_measure_main_exp,2022.2.2,Win32,60.0240096,,,,,,,,,,,,,,,,,,masks/mask_002.jpg,,,,,,,,,,,,,,,,,,,,,,,,,,,,,,,,,,,,,,,,,,,,,,,,0,1,1,1,1,,,,,,,,,,,,,,,,,,,,,,,,,,,,,,,,,,,,,,,,,
020755,001,2022-11-21_00h52.34.440,Info_measure_main_exp,2022.2.2,Win32,60.0240096,,,,,,,,,,,,,,,,,,masks/mask_003.jpg,,,,,,,,,,,,,,,,,,,,,,,,,,,,,,,,,,,,,,,,,,,,,,,,0,2,2,2,1,,,,,,,,,,,,,,,,,,,,,,,,,,,,,,,,,,,,,,,,,
020755,001,2022-11-21_00h52.34.440,Info_measure_main_exp,2022.2.2,Win32,60.0240096,,,,,,,,,,,,,,,,,,masks/mask_004.jpg,,,,,,,,,,,,,,,,,,,,,,,,,,,,,,,,,,,,,,,,,,,,,,,,0,3,3,3,1,,,,,,,,,,,,,,,,,,,,,,,,,,,,,,,,,,,,,,,,,
020755,001,2022-11-21_00h52.34.440,Info_measure_main_exp,2022.2.2,Win32,60.0240096,,,,,,,,,,,,,,,,,,masks/mask_001.jpg,,,,,,,,,,,,,,,,,,,,,,,,,,,,,,,,,,,,,,,,,,,,,,,,0,4,4,0,1,,,,,,,,,,,,,,,,,,,,,,,,,,,,,,,,,,,,,,,,,
020755,001,2022-11-21_00h52.34.440,Info_measure_main_exp,2022.2.2,Win32,60.0240096,,,,,,,,,,,,,,,,,,,,,,,,,,,,,,4,2.058,1,,,,,,,,,,,,0,131,5,5,2274,2154,absent_patch/patch0002274.jpg,absent_patch/patch0002154.jpg,,,,,,,,,,,,,,,,,,,,0.049768519,-0.162037037,1,0,0,response3disk,16,0,-0.008101852,1,0,0,center_square,0,15,15,23,1,,,,,,,,,,,,,,,,,,,,,,,
020755,001,2022-11-21_00h52.34.440,Info_measure_main_exp,2022.2.2,Win32,60.0240096,,,,,,,,,,,,,,,,,,masks/mask_005.jpg,,,,,,,,,,,,,,,,,,,,,,,,,,,,,,,,,,,,,,,,,,,0,0,0,4,1,,,,,,,,,,,,,,,,,,,,,,,,,,,,,,,,,,,,,,,,,,,,,,
020755,001,2022-11-21_00h52.34.440,Info_measure_main_exp,2022.2.2,Win32,60.0240096,,,,,,,,,,,,,,,,,,masks/mask_004.jpg,,,,,,,,,,,,,,,,,,,,,,,,,,,,,,,,,,,,,,,,,,,0,1,1,3,1,,,,,,,,,,,,,,,,,,,,,,,,,,,,,,,,,,,,,,,,,,,,,,
020755,001,2022-11-21_00h52.34.440,Info_measure_main_exp,2022.2.2,Win32,60.0240096,,,,,,,,,,,,,,,,,,masks/mask_001.jpg,,,,,,,,,,,,,,,,,,,,,,,,,,,,,,,,,,,,,,,,,,,0,2,2,0,1,,,,,,,,,,,,,,,,,,,,,,,,,,,,,,,,,,,,,,,,,,,,,,
020755,001,2022-11-21_00h52.34.440,Info_measure_main_exp,2022.2.2,Win32,60.0240096,,,,,,,,,,,,,,,,,,masks/mask_002.jpg,,,,,,,,,,,,,,,,,,,,,,,,,,,,,,,,,,,,,,,,,,,0,3,3,1,1,,,,,,,,,,,,,,,,,,,,,,,,,,,,,,,,,,,,,,,,,,,,,,
020755,001,2022-11-21_00h52.34.440,Info_measure_main_exp,2022.2.2,Win32,60.0240096,,,,,,,,,,,,,,,,,,masks/mask_003.jpg,,,,,,,,,,,,,,,,,,,,,,,,,,,,,,,,,,,,,,,,,,,0,4,4,2,1,,,,,,,,,,,,,,,,,,,,,,,,,,,,,,,,,,,,,,,,,,,,,,
020755,001,2022-11-21_00h52.34.440,Info_measure_main_exp,2022.2.2,Win32,60.0240096,,,,,,,,,,,,,,,,,,masks/mask_002.jpg,,,,,,,,,,,,,,,,,,,,,,,,,,,,,,,,,,,,,,,,,,,,,,,,0,0,0,1,1,,,,,,,,,,,,,,,,,,,,,,,,,,,,,,,,,,,,,,,,,
020755,001,2022-11-21_00h52.34.440,Info_measure_main_exp,2022.2.2,Win32,60.0240096,,,,,,,,,,,,,,,,,,masks/mask_004.jpg,,,,,,,,,,,,,,,,,,,,,,,,,,,,,,,,,,,,,,,,,,,,,,,,0,1,1,3,1,,,,,,,,,,,,,,,,,,,,,,,,,,,,,,,,,,,,,,,,,
020755,001,2022-11-21_00h52.34.440,Info_measure_main_exp,2022.2.2,Win32,60.0240096,,,,,,,,,,,,,,,,,,masks/mask_005.jpg,,,,,,,,,,,,,,,,,,,,,,,,,,,,,,,,,,,,,,,,,,,,,,,,0,2,2,4,1,,,,,,,,,,,,,,,,,,,,,,,,,,,,,,,,,,,,,,,,,
020755,001,2022-11-21_00h52.34.440,Info_measure_main_exp,2022.2.2,Win32,60.0240096,,,,,,,,,,,,,,,,,,masks/mask_003.jpg,,,,,,,,,,,,,,,,,,,,,,,,,,,,,,,,,,,,,,,,,,,,,,,,0,3,3,2,1,,,,,,,,,,,,,,,,,,,,,,,,,,,,,,,,,,,,,,,,,
020755,001,2022-11-21_00h52.34.440,Info_measure_main_exp,2022.2.2,Win32,60.0240096,,,,,,,,,,,,,,,,,,masks/mask_001.jpg,,,,,,,,,,,,,,,,,,,,,,,,,,,,,,,,,,,,,,,,,,,,,,,,0,4,4,0,1,,,,,,,,,,,,,,,,,,,,,,,,,,,,,,,,,,,,,,,,,
020755,001,2022-11-21_00h52.34.440,Info_measure_main_exp,2022.2.2,Win32,60.0240096,,,,,,,,,,,,,,,,,,,,,,,,,,,,,,3,1.394,1,,,,,,,,,,,,0,131,5,5,2082,2298,absent_patch/patch0002082.jpg,absent_patch/patch0002298.jpg,,,,,,,,,,,,,,,,,,,,-0.06712963,-0.131944444,1,0,0,response5disk,17,-0.002314815,0.002314815,1,0,0,center_square,0,16,16,107,1,,,,,,,,,,,,,,,,,,,,,,,
020755,001,2022-11-21_00h52.34.440,Info_measure_main_exp,2022.2.2,Win32,60.0240096,,,,,,,,,,,,,,,,,,masks/mask_004.jpg,,,,,,,,,,,,,,,,,,,,,,,,,,,,,,,,,,,,,,,,,,,0,0,0,3,1,,,,,,,,,,,,,,,,,,,,,,,,,,,,,,,,,,,,,,,,,,,,,,
020755,001,2022-11-21_00h52.34.440,Info_measure_main_exp,2022.2.2,Win32,60.0240096,,,,,,,,,,,,,,,,,,masks/mask_005.jpg,,,,,,,,,,,,,,,,,,,,,,,,,,,,,,,,,,,,,,,,,,,0,1,1,4,1,,,,,,,,,,,,,,,,,,,,,,,,,,,,,,,,,,,,,,,,,,,,,,
020755,001,2022-11-21_00h52.34.440,Info_measure_main_exp,2022.2.2,Win32,60.0240096,,,,,,,,,,,,,,,,,,masks/mask_001.jpg,,,,,,,,,,,,,,,,,,,,,,,,,,,,,,,,,,,,,,,,,,,0,2,2,0,1,,,,,,,,,,,,,,,,,,,,,,,,,,,,,,,,,,,,,,,,,,,,,,
020755,001,2022-11-21_00h52.34.440,Info_measure_main_exp,2022.2.2,Win32,60.0240096,,,,,,,,,,,,,,,,,,masks/mask_003.jpg,,,,,,,,,,,,,,,,,,,,,,,,,,,,,,,,,,,,,,,,,,,0,3,3,2,1,,,,,,,,,,,,,,,,,,,,,,,,,,,,,,,,,,,,,,,,,,,,,,
020755,001,2022-11-21_00h52.34.440,Info_measure_main_exp,2022.2.2,Win32,60.0240096,,,,,,,,,,,,,,,,,,masks/mask_002.jpg,,,,,,,,,,,,,,,,,,,,,,,,,,,,,,,,,,,,,,,,,,,0,4,4,1,1,,,,,,,,,,,,,,,,,,,,,,,,,,,,,,,,,,,,,,,,,,,,,,
020755,001,2022-11-21_00h52.34.440,Info_measure_main_exp,2022.2.2,Win32,60.0240096,,,,,,,,,,,,,,,,,,masks/mask_003.jpg,,,,,,,,,,,,,,,,,,,,,,,,,,,,,,,,,,,,,,,,,,,,,,,,0,0,0,2,1,,,,,,,,,,,,,,,,,,,,,,,,,,,,,,,,,,,,,,,,,
020755,001,2022-11-21_00h52.34.440,Info_measure_main_exp,2022.2.2,Win32,60.0240096,,,,,,,,,,,,,,,,,,masks/mask_005.jpg,,,,,,,,,,,,,,,,,,,,,,,,,,,,,,,,,,,,,,,,,,,,,,,,0,1,1,4,1,,,,,,,,,,,,,,,,,,,,,,,,,,,,,,,,,,,,,,,,,
020755,001,2022-11-21_00h52.34.440,Info_measure_main_exp,2022.2.2,Win32,60.0240096,,,,,,,,,,,,,,,,,,masks/mask_004.jpg,,,,,,,,,,,,,,,,,,,,,,,,,,,,,,,,,,,,,,,,,,,,,,,,0,2,2,3,1,,,,,,,,,,,,,,,,,,,,,,,,,,,,,,,,,,,,,,,,,
020755,001,2022-11-21_00h52.34.440,Info_measure_main_exp,2022.2.2,Win32,60.0240096,,,,,,,,,,,,,,,,,,masks/mask_002.jpg,,,,,,,,,,,,,,,,,,,,,,,,,,,,,,,,,,,,,,,,,,,,,,,,0,3,3,1,1,,,,,,,,,,,,,,,,,,,,,,,,,,,,,,,,,,,,,,,,,
020755,001,2022-11-21_00h52.34.440,Info_measure_main_exp,2022.2.2,Win32,60.0240096,,,,,,,,,,,,,,,,,,masks/mask_001.jpg,,,,,,,,,,,,,,,,,,,,,,,,,,,,,,,,,,,,,,,,,,,,,,,,0,4,4,0,1,,,,,,,,,,,,,,,,,,,,,,,,,,,,,,,,,,,,,,,,,
020755,001,2022-11-21_00h52.34.440,Info_measure_main_exp,2022.2.2,Win32,60.0240096,,,,,,,,,,,,,,,,,,,,,,,,,,,,,,5,1.662,1,,,,,,,,,,,,0,131,5,5,1950,2166,absent_patch/patch0001950.jpg,absent_patch/patch0002166.jpg,,,,,,,,,,,,,,,,,,,,0.121527778,-0.049768519,1,0,0,response3disk,18,0.003472222,-0.006944444,1,0,0,center_square,0,17,17,0,1,,,,,,,,,,,,,,,,,,,,,,,
020755,001,2022-11-21_00h52.34.440,Info_measure_main_exp,2022.2.2,Win32,60.0240096,,,,,,,,,,,,,,,,,,masks/mask_004.jpg,,,,,,,,,,,,,,,,,,,,,,,,,,,,,,,,,,,,,,,,,,,0,0,0,3,1,,,,,,,,,,,,,,,,,,,,,,,,,,,,,,,,,,,,,,,,,,,,,,
020755,001,2022-11-21_00h52.34.440,Info_measure_main_exp,2022.2.2,Win32,60.0240096,,,,,,,,,,,,,,,,,,masks/mask_001.jpg,,,,,,,,,,,,,,,,,,,,,,,,,,,,,,,,,,,,,,,,,,,0,1,1,0,1,,,,,,,,,,,,,,,,,,,,,,,,,,,,,,,,,,,,,,,,,,,,,,
020755,001,2022-11-21_00h52.34.440,Info_measure_main_exp,2022.2.2,Win32,60.0240096,,,,,,,,,,,,,,,,,,masks/mask_005.jpg,,,,,,,,,,,,,,,,,,,,,,,,,,,,,,,,,,,,,,,,,,,0,2,2,4,1,,,,,,,,,,,,,,,,,,,,,,,,,,,,,,,,,,,,,,,,,,,,,,
020755,001,2022-11-21_00h52.34.440,Info_measure_main_exp,2022.2.2,Win32,60.0240096,,,,,,,,,,,,,,,,,,masks/mask_002.jpg,,,,,,,,,,,,,,,,,,,,,,,,,,,,,,,,,,,,,,,,,,,0,3,3,1,1,,,,,,,,,,,,,,,,,,,,,,,,,,,,,,,,,,,,,,,,,,,,,,
020755,001,2022-11-21_00h52.34.440,Info_measure_main_exp,2022.2.2,Win32,60.0240096,,,,,,,,,,,,,,,,,,masks/mask_003.jpg,,,,,,,,,,,,,,,,,,,,,,,,,,,,,,,,,,,,,,,,,,,0,4,4,2,1,,,,,,,,,,,,,,,,,,,,,,,,,,,,,,,,,,,,,,,,,,,,,,
020755,001,2022-11-21_00h52.34.440,Info_measure_main_exp,2022.2.2,Win32,60.0240096,,,,,,,,,,,,,,,,,,masks/mask_002.jpg,,,,,,,,,,,,,,,,,,,,,,,,,,,,,,,,,,,,,,,,,,,,,,,,0,0,0,1,1,,,,,,,,,,,,,,,,,,,,,,,,,,,,,,,,,,,,,,,,,
020755,001,2022-11-21_00h52.34.440,Info_measure_main_exp,2022.2.2,Win32,60.0240096,,,,,,,,,,,,,,,,,,masks/mask_003.jpg,,,,,,,,,,,,,,,,,,,,,,,,,,,,,,,,,,,,,,,,,,,,,,,,0,1,1,2,1,,,,,,,,,,,,,,,,,,,,,,,,,,,,,,,,,,,,,,,,,
020755,001,2022-11-21_00h52.34.440,Info_measure_main_exp,2022.2.2,Win32,60.0240096,,,,,,,,,,,,,,,,,,masks/mask_004.jpg,,,,,,,,,,,,,,,,,,,,,,,,,,,,,,,,,,,,,,,,,,,,,,,,0,2,2,3,1,,,,,,,,,,,,,,,,,,,,,,,,,,,,,,,,,,,,,,,,,
020755,001,2022-11-21_00h52.34.440,Info_measure_main_exp,2022.2.2,Win32,60.0240096,,,,,,,,,,,,,,,,,,masks/mask_001.jpg,,,,,,,,,,,,,,,,,,,,,,,,,,,,,,,,,,,,,,,,,,,,,,,,0,3,3,0,1,,,,,,,,,,,,,,,,,,,,,,,,,,,,,,,,,,,,,,,,,
020755,001,2022-11-21_00h52.34.440,Info_measure_main_exp,2022.2.2,Win32,60.0240096,,,,,,,,,,,,,,,,,,masks/mask_005.jpg,,,,,,,,,,,,,,,,,,,,,,,,,,,,,,,,,,,,,,,,,,,,,,,,0,4,4,4,1,,,,,,,,,,,,,,,,,,,,,,,,,,,,,,,,,,,,,,,,,
020755,001,2022-11-21_00h52.34.440,Info_measure_main_exp,2022.2.2,Win32,60.0240096,,,,,,,,,,,,,,,,,,,,,,,,,,,,,,6,2.391,1,,,,,,,,,,,,1,131,5,5,1,1974,present_patch/cong_131_5_a.jpg,absent_patch/patch0001974.jpg,,,,,,,,,,,,,,,,,,,,0.116898148,0.041666667,1,0,0,response1disk,19,0.006944444,0.003472222,1,0,0,center_square,0,18,18,69,1,,,,,,,,,,,,,,,,,,,,,,,
020755,001,2022-11-21_00h52.34.440,Info_measure_main_exp,2022.2.2,Win32,60.0240096,,,,,,,,,,,,,,,,,,masks/mask_003.jpg,,,,,,,,,,,,,,,,,,,,,,,,,,,,,,,,,,,,,,,,,,,0,0,0,2,1,,,,,,,,,,,,,,,,,,,,,,,,,,,,,,,,,,,,,,,,,,,,,,
020755,001,2022-11-21_00h52.34.440,Info_measure_main_exp,2022.2.2,Win32,60.0240096,,,,,,,,,,,,,,,,,,masks/mask_002.jpg,,,,,,,,,,,,,,,,,,,,,,,,,,,,,,,,,,,,,,,,,,,0,1,1,1,1,,,,,,,,,,,,,,,,,,,,,,,,,,,,,,,,,,,,,,,,,,,,,,
020755,001,2022-11-21_00h52.34.440,Info_measure_main_exp,2022.2.2,Win32,60.0240096,,,,,,,,,,,,,,,,,,masks/mask_004.jpg,,,,,,,,,,,,,,,,,,,,,,,,,,,,,,,,,,,,,,,,,,,0,2,2,3,1,,,,,,,,,,,,,,,,,,,,,,,,,,,,,,,,,,,,,,,,,,,,,,
020755,001,2022-11-21_00h52.34.440,Info_measure_main_exp,2022.2.2,Win32,60.0240096,,,,,,,,,,,,,,,,,,masks/mask_005.jpg,,,,,,,,,,,,,,,,,,,,,,,,,,,,,,,,,,,,,,,,,,,0,3,3,4,1,,,,,,,,,,,,,,,,,,,,,,,,,,,,,,,,,,,,,,,,,,,,,,
020755,001,2022-11-21_00h52.34.440,Info_measure_main_exp,2022.2.2,Win32,60.0240096,,,,,,,,,,,,,,,,,,masks/mask_001.jpg,,,,,,,,,,,,,,,,,,,,,,,,,,,,,,,,,,,,,,,,,,,0,4,4,0,1,,,,,,,,,,,,,,,,,,,,,,,,,,,,,,,,,,,,,,,,,,,,,,
020755,001,2022-11-21_00h52.34.440,Info_measure_main_exp,2022.2.2,Win32,60.0240096,,,,,,,,,,,,,,,,,,masks/mask_002.jpg,,,,,,,,,,,,,,,,,,,,,,,,,,,,,,,,,,,,,,,,,,,,,,,,0,0,0,1,1,,,,,,,,,,,,,,,,,,,,,,,,,,,,,,,,,,,,,,,,,
020755,001,2022-11-21_00h52.34.440,Info_measure_main_exp,2022.2.2,Win32,60.0240096,,,,,,,,,,,,,,,,,,masks/mask_004.jpg,,,,,,,,,,,,,,,,,,,,,,,,,,,,,,,,,,,,,,,,,,,,,,,,0,1,1,3,1,,,,,,,,,,,,,,,,,,,,,,,,,,,,,,,,,,,,,,,,,
020755,001,2022-11-21_00h52.34.440,Info_measure_main_exp,2022.2.2,Win32,60.0240096,,,,,,,,,,,,,,,,,,masks/mask_003.jpg,,,,,,,,,,,,,,,,,,,,,,,,,,,,,,,,,,,,,,,,,,,,,,,,0,2,2,2,1,,,,,,,,,,,,,,,,,,,,,,,,,,,,,,,,,,,,,,,,,
020755,001,2022-11-21_00h52.34.440,Info_measure_main_exp,2022.2.2,Win32,60.0240096,,,,,,,,,,,,,,,,,,masks/mask_001.jpg,,,,,,,,,,,,,,,,,,,,,,,,,,,,,,,,,,,,,,,,,,,,,,,,0,3,3,0,1,,,,,,,,,,,,,,,,,,,,,,,,,,,,,,,,,,,,,,,,,
020755,001,2022-11-21_00h52.34.440,Info_measure_main_exp,2022.2.2,Win32,60.0240096,,,,,,,,,,,,,,,,,,masks/mask_005.jpg,,,,,,,,,,,,,,,,,,,,,,,,,,,,,,,,,,,,,,,,,,,,,,,,0,4,4,4,1,,,,,,,,,,,,,,,,,,,,,,,,,,,,,,,,,,,,,,,,,
020755,001,2022-11-21_00h52.34.440,Info_measure_main_exp,2022.2.2,Win32,60.0240096,,,,,,,,,,,,,,,,,,,,,,,,,,,,,,6,0.983,1,,,,,,,,,,,,1,131,5,5,1,2214,present_patch/cong_131_5_a.jpg,absent_patch/patch0002214.jpg,,,,,,,,,,,,,,,,,,,,0.115740741,0.053240741,1,0,0,response1disk,20,-0.012731481,0.006944444,1,0,0,center_square,0,19,19,4,1,,,,,,,,,,,,,,,,,,,,,,,
020755,001,2022-11-21_00h52.34.440,Info_measure_main_exp,2022.2.2,Win32,60.0240096,,,,,,,,,,,,,,,,,,masks/mask_004.jpg,,,,,,,,,,,,,,,,,,,,,,,,,,,,,,,,,,,,,,,,,,,0,0,0,3,1,,,,,,,,,,,,,,,,,,,,,,,,,,,,,,,,,,,,,,,,,,,,,,
020755,001,2022-11-21_00h52.34.440,Info_measure_main_exp,2022.2.2,Win32,60.0240096,,,,,,,,,,,,,,,,,,masks/mask_002.jpg,,,,,,,,,,,,,,,,,,,,,,,,,,,,,,,,,,,,,,,,,,,0,1,1,1,1,,,,,,,,,,,,,,,,,,,,,,,,,,,,,,,,,,,,,,,,,,,,,,
020755,001,2022-11-21_00h52.34.440,Info_measure_main_exp,2022.2.2,Win32,60.0240096,,,,,,,,,,,,,,,,,,masks/mask_005.jpg,,,,,,,,,,,,,,,,,,,,,,,,,,,,,,,,,,,,,,,,,,,0,2,2,4,1,,,,,,,,,,,,,,,,,,,,,,,,,,,,,,,,,,,,,,,,,,,,,,
020755,001,2022-11-21_00h52.34.440,Info_measure_main_exp,2022.2.2,Win32,60.0240096,,,,,,,,,,,,,,,,,,masks/mask_003.jpg,,,,,,,,,,,,,,,,,,,,,,,,,,,,,,,,,,,,,,,,,,,0,3,3,2,1,,,,,,,,,,,,,,,,,,,,,,,,,,,,,,,,,,,,,,,,,,,,,,
020755,001,2022-11-21_00h52.34.440,Info_measure_main_exp,2022.2.2,Win32,60.0240096,,,,,,,,,,,,,,,,,,masks/mask_001.jpg,,,,,,,,,,,,,,,,,,,,,,,,,,,,,,,,,,,,,,,,,,,0,4,4,0,1,,,,,,,,,,,,,,,,,,,,,,,,,,,,,,,,,,,,,,,,,,,,,,
020755,001,2022-11-21_00h52.34.440,Info_measure_main_exp,2022.2.2,Win32,60.0240096,,,,,,,,,,,,,,,,,,masks/mask_003.jpg,,,,,,,,,,,,,,,,,,,,,,,,,,,,,,,,,,,,,,,,,,,,,,,,0,0,0,2,1,,,,,,,,,,,,,,,,,,,,,,,,,,,,,,,,,,,,,,,,,
020755,001,2022-11-21_00h52.34.440,Info_measure_main_exp,2022.2.2,Win32,60.0240096,,,,,,,,,,,,,,,,,,masks/mask_004.jpg,,,,,,,,,,,,,,,,,,,,,,,,,,,,,,,,,,,,,,,,,,,,,,,,0,1,1,3,1,,,,,,,,,,,,,,,,,,,,,,,,,,,,,,,,,,,,,,,,,
020755,001,2022-11-21_00h52.34.440,Info_measure_main_exp,2022.2.2,Win32,60.0240096,,,,,,,,,,,,,,,,,,masks/mask_005.jpg,,,,,,,,,,,,,,,,,,,,,,,,,,,,,,,,,,,,,,,,,,,,,,,,0,2,2,4,1,,,,,,,,,,,,,,,,,,,,,,,,,,,,,,,,,,,,,,,,,
020755,001,2022-11-21_00h52.34.440,Info_measure_main_exp,2022.2.2,Win32,60.0240096,,,,,,,,,,,,,,,,,,masks/mask_002.jpg,,,,,,,,,,,,,,,,,,,,,,,,,,,,,,,,,,,,,,,,,,,,,,,,0,3,3,1,1,,,,,,,,,,,,,,,,,,,,,,,,,,,,,,,,,,,,,,,,,
020755,001,2022-11-21_00h52.34.440,Info_measure_main_exp,2022.2.2,Win32,60.0240096,,,,,,,,,,,,,,,,,,masks/mask_001.jpg,,,,,,,,,,,,,,,,,,,,,,,,,,,,,,,,,,,,,,,,,,,,,,,,0,4,4,0,1,,,,,,,,,,,,,,,,,,,,,,,,,,,,,,,,,,,,,,,,,
020755,001,2022-11-21_00h52.34.440,Info_measure_main_exp,2022.2.2,Win32,60.0240096,,,,,,,,,,,,,,,,,,,,,,,,,,,,,,6,2.333,1,,,,,,,,,,,,0,131,5,5,2274,2250,absent_patch/patch0002274.jpg,absent_patch/patch0002250.jpg,,,,,,,,,,,,,,,,,,,,0.146990741,0.05787037,1,0,0,response1disk,21,0.003472222,-0.003472222,1,0,0,center_square,0,20,20,28,1,,,,,,,,,,,,,,,,,,,,,,,
020755,001,2022-11-21_00h52.34.440,Info_measure_main_exp,2022.2.2,Win32,60.0240096,,,,,,,,,,,,,,,,,,masks/mask_001.jpg,,,,,,,,,,,,,,,,,,,,,,,,,,,,,,,,,,,,,,,,,,,0,0,0,0,1,,,,,,,,,,,,,,,,,,,,,,,,,,,,,,,,,,,,,,,,,,,,,,
020755,001,2022-11-21_00h52.34.440,Info_measure_main_exp,2022.2.2,Win32,60.0240096,,,,,,,,,,,,,,,,,,masks/mask_005.jpg,,,,,,,,,,,,,,,,,,,,,,,,,,,,,,,,,,,,,,,,,,,0,1,1,4,1,,,,,,,,,,,,,,,,,,,,,,,,,,,,,,,,,,,,,,,,,,,,,,
020755,001,2022-11-21_00h52.34.440,Info_measure_main_exp,2022.2.2,Win32,60.0240096,,,,,,,,,,,,,,,,,,masks/mask_002.jpg,,,,,,,,,,,,,,,,,,,,,,,,,,,,,,,,,,,,,,,,,,,0,2,2,1,1,,,,,,,,,,,,,,,,,,,,,,,,,,,,,,,,,,,,,,,,,,,,,,
020755,001,2022-11-21_00h52.34.440,Info_measure_main_exp,2022.2.2,Win32,60.0240096,,,,,,,,,,,,,,,,,,masks/mask_003.jpg,,,,,,,,,,,,,,,,,,,,,,,,,,,,,,,,,,,,,,,,,,,0,3,3,2,1,,,,,,,,,,,,,,,,,,,,,,,,,,,,,,,,,,,,,,,,,,,,,,
020755,001,2022-11-21_00h52.34.440,Info_measure_main_exp,2022.2.2,Win32,60.0240096,,,,,,,,,,,,,,,,,,masks/mask_004.jpg,,,,,,,,,,,,,,,,,,,,,,,,,,,,,,,,,,,,,,,,,,,0,4,4,3,1,,,,,,,,,,,,,,,,,,,,,,,,,,,,,,,,,,,,,,,,,,,,,,
020755,001,2022-11-21_00h52.34.440,Info_measure_main_exp,2022.2.2,Win32,60.0240096,,,,,,,,,,,,,,,,,,masks/mask_005.jpg,,,,,,,,,,,,,,,,,,,,,,,,,,,,,,,,,,,,,,,,,,,,,,,,0,0,0,4,1,,,,,,,,,,,,,,,,,,,,,,,,,,,,,,,,,,,,,,,,,
020755,001,2022-11-21_00h52.34.440,Info_measure_main_exp,2022.2.2,Win32,60.0240096,,,,,,,,,,,,,,,,,,masks/mask_003.jpg,,,,,,,,,,,,,,,,,,,,,,,,,,,,,,,,,,,,,,,,,,,,,,,,0,1,1,2,1,,,,,,,,,,,,,,,,,,,,,,,,,,,,,,,,,,,,,,,,,
020755,001,2022-11-21_00h52.34.440,Info_measure_main_exp,2022.2.2,Win32,60.0240096,,,,,,,,,,,,,,,,,,masks/mask_004.jpg,,,,,,,,,,,,,,,,,,,,,,,,,,,,,,,,,,,,,,,,,,,,,,,,0,2,2,3,1,,,,,,,,,,,,,,,,,,,,,,,,,,,,,,,,,,,,,,,,,
020755,001,2022-11-21_00h52.34.440,Info_measure_main_exp,2022.2.2,Win32,60.0240096,,,,,,,,,,,,,,,,,,masks/mask_001.jpg,,,,,,,,,,,,,,,,,,,,,,,,,,,,,,,,,,,,,,,,,,,,,,,,0,3,3,0,1,,,,,,,,,,,,,,,,,,,,,,,,,,,,,,,,,,,,,,,,,
020755,001,2022-11-21_00h52.34.440,Info_measure_main_exp,2022.2.2,Win32,60.0240096,,,,,,,,,,,,,,,,,,masks/mask_002.jpg,,,,,,,,,,,,,,,,,,,,,,,,,,,,,,,,,,,,,,,,,,,,,,,,0,4,4,1,1,,,,,,,,,,,,,,,,,,,,,,,,,,,,,,,,,,,,,,,,,
020755,001,2022-11-21_00h52.34.440,Info_measure_main_exp,2022.2.2,Win32,60.0240096,,,,,,,,,,,,,,,,,,,,,,,,,,,,,,6,0.972,1,,,,,,,,,,,,0,131,5,5,2214,2166,absent_patch/patch0002214.jpg,absent_patch/patch0002166.jpg,,,,,,,,,,,,,,,,,,,,0.159722222,0.041666667,1,0,0,response1disk,22,0.002314815,-0.00462963,1,0,0,center_square,0,21,21,109,1,,,,,,,,,,,,,,,,,,,,,,,
020755,001,2022-11-21_00h52.34.440,Info_measure_main_exp,2022.2.2,Win32,60.0240096,,,,,,,,,,,,,,,,,,masks/mask_001.jpg,,,,,,,,,,,,,,,,,,,,,,,,,,,,,,,,,,,,,,,,,,,0,0,0,0,1,,,,,,,,,,,,,,,,,,,,,,,,,,,,,,,,,,,,,,,,,,,,,,
020755,001,2022-11-21_00h52.34.440,Info_measure_main_exp,2022.2.2,Win32,60.0240096,,,,,,,,,,,,,,,,,,masks/mask_004.jpg,,,,,,,,,,,,,,,,,,,,,,,,,,,,,,,,,,,,,,,,,,,0,1,1,3,1,,,,,,,,,,,,,,,,,,,,,,,,,,,,,,,,,,,,,,,,,,,,,,
020755,001,2022-11-21_00h52.34.440,Info_measure_main_exp,2022.2.2,Win32,60.0240096,,,,,,,,,,,,,,,,,,masks/mask_005.jpg,,,,,,,,,,,,,,,,,,,,,,,,,,,,,,,,,,,,,,,,,,,0,2,2,4,1,,,,,,,,,,,,,,,,,,,,,,,,,,,,,,,,,,,,,,,,,,,,,,
020755,001,2022-11-21_00h52.34.440,Info_measure_main_exp,2022.2.2,Win32,60.0240096,,,,,,,,,,,,,,,,,,masks/mask_002.jpg,,,,,,,,,,,,,,,,,,,,,,,,,,,,,,,,,,,,,,,,,,,0,3,3,1,1,,,,,,,,,,,,,,,,,,,,,,,,,,,,,,,,,,,,,,,,,,,,,,
020755,001,2022-11-21_00h52.34.440,Info_measure_main_exp,2022.2.2,Win32,60.0240096,,,,,,,,,,,,,,,,,,masks/mask_003.jpg,,,,,,,,,,,,,,,,,,,,,,,,,,,,,,,,,,,,,,,,,,,0,4,4,2,1,,,,,,,,,,,,,,,,,,,,,,,,,,,,,,,,,,,,,,,,,,,,,,
020755,001,2022-11-21_00h52.34.440,Info_measure_main_exp,2022.2.2,Win32,60.0240096,,,,,,,,,,,,,,,,,,masks/mask_001.jpg,,,,,,,,,,,,,,,,,,,,,,,,,,,,,,,,,,,,,,,,,,,,,,,,0,0,0,0,1,,,,,,,,,,,,,,,,,,,,,,,,,,,,,,,,,,,,,,,,,
020755,001,2022-11-21_00h52.34.440,Info_measure_main_exp,2022.2.2,Win32,60.0240096,,,,,,,,,,,,,,,,,,masks/mask_003.jpg,,,,,,,,,,,,,,,,,,,,,,,,,,,,,,,,,,,,,,,,,,,,,,,,0,1,1,2,1,,,,,,,,,,,,,,,,,,,,,,,,,,,,,,,,,,,,,,,,,
020755,001,2022-11-21_00h52.34.440,Info_measure_main_exp,2022.2.2,Win32,60.0240096,,,,,,,,,,,,,,,,,,masks/mask_004.jpg,,,,,,,,,,,,,,,,,,,,,,,,,,,,,,,,,,,,,,,,,,,,,,,,0,2,2,3,1,,,,,,,,,,,,,,,,,,,,,,,,,,,,,,,,,,,,,,,,,
020755,001,2022-11-21_00h52.34.440,Info_measure_main_exp,2022.2.2,Win32,60.0240096,,,,,,,,,,,,,,,,,,masks/mask_005.jpg,,,,,,,,,,,,,,,,,,,,,,,,,,,,,,,,,,,,,,,,,,,,,,,,0,3,3,4,1,,,,,,,,,,,,,,,,,,,,,,,,,,,,,,,,,,,,,,,,,
020755,001,2022-11-21_00h52.34.440,Info_measure_main_exp,2022.2.2,Win32,60.0240096,,,,,,,,,,,,,,,,,,masks/mask_002.jpg,,,,,,,,,,,,,,,,,,,,,,,,,,,,,,,,,,,,,,,,,,,,,,,,0,4,4,1,1,,,,,,,,,,,,,,,,,,,,,,,,,,,,,,,,,,,,,,,,,
020755,001,2022-11-21_00h52.34.440,Info_measure_main_exp,2022.2.2,Win32,60.0240096,,,,,,,,,,,,,,,,,,,,,,,,,,,,,,0,0.98,1,,,,,,,,,,,,0,131,5,5,2274,2274,absent_patch/patch0002274.jpg,absent_patch/patch0002274.jpg,,,,,,,,,,,,,,,,,,,,-0.034722222,0.134259259,1,0,0,response7disk,23,0,-0.008101852,1,0,0,center_square,0,22,22,114,1,,,,,,,,,,,,,,,,,,,,,,,
020755,001,2022-11-21_00h52.34.440,Info_measure_main_exp,2022.2.2,Win32,60.0240096,,,,,,,,,,,,,,,,,,masks/mask_001.jpg,,,,,,,,,,,,,,,,,,,,,,,,,,,,,,,,,,,,,,,,,,,0,0,0,0,1,,,,,,,,,,,,,,,,,,,,,,,,,,,,,,,,,,,,,,,,,,,,,,
020755,001,2022-11-21_00h52.34.440,Info_measure_main_exp,2022.2.2,Win32,60.0240096,,,,,,,,,,,,,,,,,,masks/mask_004.jpg,,,,,,,,,,,,,,,,,,,,,,,,,,,,,,,,,,,,,,,,,,,0,1,1,3,1,,,,,,,,,,,,,,,,,,,,,,,,,,,,,,,,,,,,,,,,,,,,,,
020755,001,2022-11-21_00h52.34.440,Info_measure_main_exp,2022.2.2,Win32,60.0240096,,,,,,,,,,,,,,,,,,masks/mask_002.jpg,,,,,,,,,,,,,,,,,,,,,,,,,,,,,,,,,,,,,,,,,,,0,2,2,1,1,,,,,,,,,,,,,,,,,,,,,,,,,,,,,,,,,,,,,,,,,,,,,,
020755,001,2022-11-21_00h52.34.440,Info_measure_main_exp,2022.2.2,Win32,60.0240096,,,,,,,,,,,,,,,,,,masks/mask_005.jpg,,,,,,,,,,,,,,,,,,,,,,,,,,,,,,,,,,,,,,,,,,,0,3,3,4,1,,,,,,,,,,,,,,,,,,,,,,,,,,,,,,,,,,,,,,,,,,,,,,
020755,001,2022-11-21_00h52.34.440,Info_measure_main_exp,2022.2.2,Win32,60.0240096,,,,,,,,,,,,,,,,,,masks/mask_003.jpg,,,,,,,,,,,,,,,,,,,,,,,,,,,,,,,,,,,,,,,,,,,0,4,4,2,1,,,,,,,,,,,,,,,,,,,,,,,,,,,,,,,,,,,,,,,,,,,,,,
020755,001,2022-11-21_00h52.34.440,Info_measure_main_exp,2022.2.2,Win32,60.0240096,,,,,,,,,,,,,,,,,,masks/mask_005.jpg,,,,,,,,,,,,,,,,,,,,,,,,,,,,,,,,,,,,,,,,,,,,,,,,0,0,0,4,1,,,,,,,,,,,,,,,,,,,,,,,,,,,,,,,,,,,,,,,,,
020755,001,2022-11-21_00h52.34.440,Info_measure_main_exp,2022.2.2,Win32,60.0240096,,,,,,,,,,,,,,,,,,masks/mask_003.jpg,,,,,,,,,,,,,,,,,,,,,,,,,,,,,,,,,,,,,,,,,,,,,,,,0,1,1,2,1,,,,,,,,,,,,,,,,,,,,,,,,,,,,,,,,,,,,,,,,,
020755,001,2022-11-21_00h52.34.440,Info_measure_main_exp,2022.2.2,Win32,60.0240096,,,,,,,,,,,,,,,,,,masks/mask_004.jpg,,,,,,,,,,,,,,,,,,,,,,,,,,,,,,,,,,,,,,,,,,,,,,,,0,2,2,3,1,,,,,,,,,,,,,,,,,,,,,,,,,,,,,,,,,,,,,,,,,
020755,001,2022-11-21_00h52.34.440,Info_measure_main_exp,2022.2.2,Win32,60.0240096,,,,,,,,,,,,,,,,,,masks/mask_001.jpg,,,,,,,,,,,,,,,,,,,,,,,,,,,,,,,,,,,,,,,,,,,,,,,,0,3,3,0,1,,,,,,,,,,,,,,,,,,,,,,,,,,,,,,,,,,,,,,,,,
020755,001,2022-11-21_00h52.34.440,Info_measure_main_exp,2022.2.2,Win32,60.0240096,,,,,,,,,,,,,,,,,,masks/mask_002.jpg,,,,,,,,,,,,,,,,,,,,,,,,,,,,,,,,,,,,,,,,,,,,,,,,0,4,4,1,1,,,,,,,,,,,,,,,,,,,,,,,,,,,,,,,,,,,,,,,,,
020755,001,2022-11-21_00h52.34.440,Info_measure_main_exp,2022.2.2,Win32,60.0240096,,,,,,,,,,,,,,,,,,,,,,,,,,,,,,3,1.298,1,,,,,,,,,,,,0,131,5,5,2154,2238,absent_patch/patch0002154.jpg,absent_patch/patch0002238.jpg,,,,,,,,,,,,,,,,,,,,-0.0625,-0.143518519,1,0,0,response5disk,24,0.001157407,0.00462963,1,0,0,center_square,0,23,23,21,1,,,,,,,,,,,,,,,,,,,,,,,
020755,001,2022-11-21_00h52.34.440,Info_measure_main_exp,2022.2.2,Win32,60.0240096,,,,,,,,,,,,,,,,,,masks/mask_003.jpg,,,,,,,,,,,,,,,,,,,,,,,,,,,,,,,,,,,,,,,,,,,0,0,0,2,1,,,,,,,,,,,,,,,,,,,,,,,,,,,,,,,,,,,,,,,,,,,,,,
020755,001,2022-11-21_00h52.34.440,Info_measure_main_exp,2022.2.2,Win32,60.0240096,,,,,,,,,,,,,,,,,,masks/mask_005.jpg,,,,,,,,,,,,,,,,,,,,,,,,,,,,,,,,,,,,,,,,,,,0,1,1,4,1,,,,,,,,,,,,,,,,,,,,,,,,,,,,,,,,,,,,,,,,,,,,,,
020755,001,2022-11-21_00h52.34.440,Info_measure_main_exp,2022.2.2,Win32,60.0240096,,,,,,,,,,,,,,,,,,masks/mask_002.jpg,,,,,,,,,,,,,,,,,,,,,,,,,,,,,,,,,,,,,,,,,,,0,2,2,1,1,,,,,,,,,,,,,,,,,,,,,,,,,,,,,,,,,,,,,,,,,,,,,,
020755,001,2022-11-21_00h52.34.440,Info_measure_main_exp,2022.2.2,Win32,60.0240096,,,,,,,,,,,,,,,,,,masks/mask_004.jpg,,,,,,,,,,,,,,,,,,,,,,,,,,,,,,,,,,,,,,,,,,,0,3,3,3,1,,,,,,,,,,,,,,,,,,,,,,,,,,,,,,,,,,,,,,,,,,,,,,
020755,001,2022-11-21_00h52.34.440,Info_measure_main_exp,2022.2.2,Win32,60.0240096,,,,,,,,,,,,,,,,,,masks/mask_001.jpg,,,,,,,,,,,,,,,,,,,,,,,,,,,,,,,,,,,,,,,,,,,0,4,4,0,1,,,,,,,,,,,,,,,,,,,,,,,,,,,,,,,,,,,,,,,,,,,,,,
020755,001,2022-11-21_00h52.34.440,Info_measure_main_exp,2022.2.2,Win32,60.0240096,,,,,,,,,,,,,,,,,,masks/mask_002.jpg,,,,,,,,,,,,,,,,,,,,,,,,,,,,,,,,,,,,,,,,,,,,,,,,0,0,0,1,1,,,,,,,,,,,,,,,,,,,,,,,,,,,,,,,,,,,,,,,,,
020755,001,2022-11-21_00h52.34.440,Info_measure_main_exp,2022.2.2,Win32,60.0240096,,,,,,,,,,,,,,,,,,masks/mask_003.jpg,,,,,,,,,,,,,,,,,,,,,,,,,,,,,,,,,,,,,,,,,,,,,,,,0,1,1,2,1,,,,,,,,,,,,,,,,,,,,,,,,,,,,,,,,,,,,,,,,,
020755,001,2022-11-21_00h52.34.440,Info_measure_main_exp,2022.2.2,Win32,60.0240096,,,,,,,,,,,,,,,,,,masks/mask_001.jpg,,,,,,,,,,,,,,,,,,,,,,,,,,,,,,,,,,,,,,,,,,,,,,,,0,2,2,0,1,,,,,,,,,,,,,,,,,,,,,,,,,,,,,,,,,,,,,,,,,
020755,001,2022-11-21_00h52.34.440,Info_measure_main_exp,2022.2.2,Win32,60.0240096,,,,,,,,,,,,,,,,,,masks/mask_005.jpg,,,,,,,,,,,,,,,,,,,,,,,,,,,,,,,,,,,,,,,,,,,,,,,,0,3,3,4,1,,,,,,,,,,,,,,,,,,,,,,,,,,,,,,,,,,,,,,,,,
020755,001,2022-11-21_00h52.34.440,Info_measure_main_exp,2022.2.2,Win32,60.0240096,,,,,,,,,,,,,,,,,,masks/mask_004.jpg,,,,,,,,,,,,,,,,,,,,,,,,,,,,,,,,,,,,,,,,,,,,,,,,0,4,4,3,1,,,,,,,,,,,,,,,,,,,,,,,,,,,,,,,,,,,,,,,,,
020755,001,2022-11-21_00h52.34.440,Info_measure_main_exp,2022.2.2,Win32,60.0240096,,,,,,,,,,,,,,,,,,,,,,,,,,,,,,6,1.281,1,,,,,,,,,,,,0,131,5,5,2178,2238,absent_patch/patch0002178.jpg,absent_patch/patch0002238.jpg,,,,,,,,,,,,,,,,,,,,0.133101852,0.025462963,1,0,0,response1disk,25,0.011574074,-0.010416667,1,0,0,center_square,0,24,24,57,1,,,,,,,,,,,,,,,,,,,,,,,
020755,001,2022-11-21_00h52.34.440,Info_measure_main_exp,2022.2.2,Win32,60.0240096,,,,,,,,,,,,,,,,,,masks/mask_002.jpg,,,,,,,,,,,,,,,,,,,,,,,,,,,,,,,,,,,,,,,,,,,0,0,0,1,1,,,,,,,,,,,,,,,,,,,,,,,,,,,,,,,,,,,,,,,,,,,,,,
020755,001,2022-11-21_00h52.34.440,Info_measure_main_exp,2022.2.2,Win32,60.0240096,,,,,,,,,,,,,,,,,,masks/mask_001.jpg,,,,,,,,,,,,,,,,,,,,,,,,,,,,,,,,,,,,,,,,,,,0,1,1,0,1,,,,,,,,,,,,,,,,,,,,,,,,,,,,,,,,,,,,,,,,,,,,,,
020755,001,2022-11-21_00h52.34.440,Info_measure_main_exp,2022.2.2,Win32,60.0240096,,,,,,,,,,,,,,,,,,masks/mask_005.jpg,,,,,,,,,,,,,,,,,,,,,,,,,,,,,,,,,,,,,,,,,,,0,2,2,4,1,,,,,,,,,,,,,,,,,,,,,,,,,,,,,,,,,,,,,,,,,,,,,,
020755,001,2022-11-21_00h52.34.440,Info_measure_main_exp,2022.2.2,Win32,60.0240096,,,,,,,,,,,,,,,,,,masks/mask_003.jpg,,,,,,,,,,,,,,,,,,,,,,,,,,,,,,,,,,,,,,,,,,,0,3,3,2,1,,,,,,,,,,,,,,,,,,,,,,,,,,,,,,,,,,,,,,,,,,,,,,
020755,001,2022-11-21_00h52.34.440,Info_measure_main_exp,2022.2.2,Win32,60.0240096,,,,,,,,,,,,,,,,,,masks/mask_004.jpg,,,,,,,,,,,,,,,,,,,,,,,,,,,,,,,,,,,,,,,,,,,0,4,4,3,1,,,,,,,,,,,,,,,,,,,,,,,,,,,,,,,,,,,,,,,,,,,,,,
020755,001,2022-11-21_00h52.34.440,Info_measure_main_exp,2022.2.2,Win32,60.0240096,,,,,,,,,,,,,,,,,,masks/mask_001.jpg,,,,,,,,,,,,,,,,,,,,,,,,,,,,,,,,,,,,,,,,,,,,,,,,0,0,0,0,1,,,,,,,,,,,,,,,,,,,,,,,,,,,,,,,,,,,,,,,,,
020755,001,2022-11-21_00h52.34.440,Info_measure_main_exp,2022.2.2,Win32,60.0240096,,,,,,,,,,,,,,,,,,masks/mask_003.jpg,,,,,,,,,,,,,,,,,,,,,,,,,,,,,,,,,,,,,,,,,,,,,,,,0,1,1,2,1,,,,,,,,,,,,,,,,,,,,,,,,,,,,,,,,,,,,,,,,,
020755,001,2022-11-21_00h52.34.440,Info_measure_main_exp,2022.2.2,Win32,60.0240096,,,,,,,,,,,,,,,,,,masks/mask_004.jpg,,,,,,,,,,,,,,,,,,,,,,,,,,,,,,,,,,,,,,,,,,,,,,,,0,2,2,3,1,,,,,,,,,,,,,,,,,,,,,,,,,,,,,,,,,,,,,,,,,
020755,001,2022-11-21_00h52.34.440,Info_measure_main_exp,2022.2.2,Win32,60.0240096,,,,,,,,,,,,,,,,,,masks/mask_005.jpg,,,,,,,,,,,,,,,,,,,,,,,,,,,,,,,,,,,,,,,,,,,,,,,,0,3,3,4,1,,,,,,,,,,,,,,,,,,,,,,,,,,,,,,,,,,,,,,,,,
020755,001,2022-11-21_00h52.34.440,Info_measure_main_exp,2022.2.2,Win32,60.0240096,,,,,,,,,,,,,,,,,,masks/mask_002.jpg,,,,,,,,,,,,,,,,,,,,,,,,,,,,,,,,,,,,,,,,,,,,,,,,0,4,4,1,1,,,,,,,,,,,,,,,,,,,,,,,,,,,,,,,,,,,,,,,,,
020755,001,2022-11-21_00h52.34.440,Info_measure_main_exp,2022.2.2,Win32,60.0240096,,,,,,,,,,,,,,,,,,,,,,,,,,,,,,6,0.918,1,,,,,,,,,,,,0,131,5,5,2190,2082,absent_patch/patch0002190.jpg,absent_patch/patch0002082.jpg,,,,,,,,,,,,,,,,,,,,0.12037037,0.045138889,1,0,0,response1disk,26,0.006944444,-0.00462963,1,0,0,center_square,0,25,25,112,1,,,,,,,,,,,,,,,,,,,,,,,
020755,001,2022-11-21_00h52.34.440,Info_measure_main_exp,2022.2.2,Win32,60.0240096,,,,,,,,,,,,,,,,,,masks/mask_003.jpg,,,,,,,,,,,,,,,,,,,,,,,,,,,,,,,,,,,,,,,,,,,0,0,0,2,1,,,,,,,,,,,,,,,,,,,,,,,,,,,,,,,,,,,,,,,,,,,,,,
020755,001,2022-11-21_00h52.34.440,Info_measure_main_exp,2022.2.2,Win32,60.0240096,,,,,,,,,,,,,,,,,,masks/mask_002.jpg,,,,,,,,,,,,,,,,,,,,,,,,,,,,,,,,,,,,,,,,,,,0,1,1,1,1,,,,,,,,,,,,,,,,,,,,,,,,,,,,,,,,,,,,,,,,,,,,,,
020755,001,2022-11-21_00h52.34.440,Info_measure_main_exp,2022.2.2,Win32,60.0240096,,,,,,,,,,,,,,,,,,masks/mask_001.jpg,,,,,,,,,,,,,,,,,,,,,,,,,,,,,,,,,,,,,,,,,,,0,2,2,0,1,,,,,,,,,,,,,,,,,,,,,,,,,,,,,,,,,,,,,,,,,,,,,,
020755,001,2022-11-21_00h52.34.440,Info_measure_main_exp,2022.2.2,Win32,60.0240096,,,,,,,,,,,,,,,,,,masks/mask_004.jpg,,,,,,,,,,,,,,,,,,,,,,,,,,,,,,,,,,,,,,,,,,,0,3,3,3,1,,,,,,,,,,,,,,,,,,,,,,,,,,,,,,,,,,,,,,,,,,,,,,
020755,001,2022-11-21_00h52.34.440,Info_measure_main_exp,2022.2.2,Win32,60.0240096,,,,,,,,,,,,,,,,,,masks/mask_005.jpg,,,,,,,,,,,,,,,,,,,,,,,,,,,,,,,,,,,,,,,,,,,0,4,4,4,1,,,,,,,,,,,,,,,,,,,,,,,,,,,,,,,,,,,,,,,,,,,,,,
020755,001,2022-11-21_00h52.34.440,Info_measure_main_exp,2022.2.2,Win32,60.0240096,,,,,,,,,,,,,,,,,,masks/mask_005.jpg,,,,,,,,,,,,,,,,,,,,,,,,,,,,,,,,,,,,,,,,,,,,,,,,0,0,0,4,1,,,,,,,,,,,,,,,,,,,,,,,,,,,,,,,,,,,,,,,,,
020755,001,2022-11-21_00h52.34.440,Info_measure_main_exp,2022.2.2,Win32,60.0240096,,,,,,,,,,,,,,,,,,masks/mask_001.jpg,,,,,,,,,,,,,,,,,,,,,,,,,,,,,,,,,,,,,,,,,,,,,,,,0,1,1,0,1,,,,,,,,,,,,,,,,,,,,,,,,,,,,,,,,,,,,,,,,,
020755,001,2022-11-21_00h52.34.440,Info_measure_main_exp,2022.2.2,Win32,60.0240096,,,,,,,,,,,,,,,,,,masks/mask_002.jpg,,,,,,,,,,,,,,,,,,,,,,,,,,,,,,,,,,,,,,,,,,,,,,,,0,2,2,1,1,,,,,,,,,,,,,,,,,,,,,,,,,,,,,,,,,,,,,,,,,
020755,001,2022-11-21_00h52.34.440,Info_measure_main_exp,2022.2.2,Win32,60.0240096,,,,,,,,,,,,,,,,,,masks/mask_004.jpg,,,,,,,,,,,,,,,,,,,,,,,,,,,,,,,,,,,,,,,,,,,,,,,,0,3,3,3,1,,,,,,,,,,,,,,,,,,,,,,,,,,,,,,,,,,,,,,,,,
020755,001,2022-11-21_00h52.34.440,Info_measure_main_exp,2022.2.2,Win32,60.0240096,,,,,,,,,,,,,,,,,,masks/mask_003.jpg,,,,,,,,,,,,,,,,,,,,,,,,,,,,,,,,,,,,,,,,,,,,,,,,0,4,4,2,1,,,,,,,,,,,,,,,,,,,,,,,,,,,,,,,,,,,,,,,,,
020755,001,2022-11-21_00h52.34.440,Info_measure_main_exp,2022.2.2,Win32,60.0240096,,,,,,,,,,,,,,,,,,,,,,,,,,,,,,6,1.382,1,,,,,,,,,,,,1,131,5,5,2298,1,absent_patch/patch0002298.jpg,present_patch/cong_131_5_a.jpg,,,,,,,,,,,,,,,,,,,,0.111111111,0.03125,1,0,0,response1disk,27,-0.002314815,0.006944444,1,0,0,center_square,0,26,26,45,1,,,,,,,,,,,,,,,,,,,,,,,
020755,001,2022-11-21_00h52.34.440,Info_measure_main_exp,2022.2.2,Win32,60.0240096,,,,,,,,,,,,,,,,,,masks/mask_004.jpg,,,,,,,,,,,,,,,,,,,,,,,,,,,,,,,,,,,,,,,,,,,0,0,0,3,1,,,,,,,,,,,,,,,,,,,,,,,,,,,,,,,,,,,,,,,,,,,,,,
020755,001,2022-11-21_00h52.34.440,Info_measure_main_exp,2022.2.2,Win32,60.0240096,,,,,,,,,,,,,,,,,,masks/mask_005.jpg,,,,,,,,,,,,,,,,,,,,,,,,,,,,,,,,,,,,,,,,,,,0,1,1,4,1,,,,,,,,,,,,,,,,,,,,,,,,,,,,,,,,,,,,,,,,,,,,,,
020755,001,2022-11-21_00h52.34.440,Info_measure_main_exp,2022.2.2,Win32,60.0240096,,,,,,,,,,,,,,,,,,masks/mask_001.jpg,,,,,,,,,,,,,,,,,,,,,,,,,,,,,,,,,,,,,,,,,,,0,2,2,0,1,,,,,,,,,,,,,,,,,,,,,,,,,,,,,,,,,,,,,,,,,,,,,,
020755,001,2022-11-21_00h52.34.440,Info_measure_main_exp,2022.2.2,Win32,60.0240096,,,,,,,,,,,,,,,,,,masks/mask_002.jpg,,,,,,,,,,,,,,,,,,,,,,,,,,,,,,,,,,,,,,,,,,,0,3,3,1,1,,,,,,,,,,,,,,,,,,,,,,,,,,,,,,,,,,,,,,,,,,,,,,
020755,001,2022-11-21_00h52.34.440,Info_measure_main_exp,2022.2.2,Win32,60.0240096,,,,,,,,,,,,,,,,,,masks/mask_003.jpg,,,,,,,,,,,,,,,,,,,,,,,,,,,,,,,,,,,,,,,,,,,0,4,4,2,1,,,,,,,,,,,,,,,,,,,,,,,,,,,,,,,,,,,,,,,,,,,,,,
020755,001,2022-11-21_00h52.34.440,Info_measure_main_exp,2022.2.2,Win32,60.0240096,,,,,,,,,,,,,,,,,,masks/mask_002.jpg,,,,,,,,,,,,,,,,,,,,,,,,,,,,,,,,,,,,,,,,,,,,,,,,0,0,0,1,1,,,,,,,,,,,,,,,,,,,,,,,,,,,,,,,,,,,,,,,,,
020755,001,2022-11-21_00h52.34.440,Info_measure_main_exp,2022.2.2,Win32,60.0240096,,,,,,,,,,,,,,,,,,masks/mask_004.jpg,,,,,,,,,,,,,,,,,,,,,,,,,,,,,,,,,,,,,,,,,,,,,,,,0,1,1,3,1,,,,,,,,,,,,,,,,,,,,,,,,,,,,,,,,,,,,,,,,,
020755,001,2022-11-21_00h52.34.440,Info_measure_main_exp,2022.2.2,Win32,60.0240096,,,,,,,,,,,,,,,,,,masks/mask_001.jpg,,,,,,,,,,,,,,,,,,,,,,,,,,,,,,,,,,,,,,,,,,,,,,,,0,2,2,0,1,,,,,,,,,,,,,,,,,,,,,,,,,,,,,,,,,,,,,,,,,
020755,001,2022-11-21_00h52.34.440,Info_measure_main_exp,2022.2.2,Win32,60.0240096,,,,,,,,,,,,,,,,,,masks/mask_003.jpg,,,,,,,,,,,,,,,,,,,,,,,,,,,,,,,,,,,,,,,,,,,,,,,,0,3,3,2,1,,,,,,,,,,,,,,,,,,,,,,,,,,,,,,,,,,,,,,,,,
020755,001,2022-11-21_00h52.34.440,Info_measure_main_exp,2022.2.2,Win32,60.0240096,,,,,,,,,,,,,,,,,,masks/mask_005.jpg,,,,,,,,,,,,,,,,,,,,,,,,,,,,,,,,,,,,,,,,,,,,,,,,0,4,4,4,1,,,,,,,,,,,,,,,,,,,,,,,,,,,,,,,,,,,,,,,,,
020755,001,2022-11-21_00h52.34.440,Info_measure_main_exp,2022.2.2,Win32,60.0240096,,,,,,,,,,,,,,,,,,,,,,,,,,,,,,0,0.88,1,,,,,,,,,,,,0,131,5,5,2082,2082,absent_patch/patch0002082.jpg,absent_patch/patch0002082.jpg,,,,,,,,,,,,,,,,,,,,-0.055555556,0.106481481,1,0,0,response7disk,28,-0.006944444,-0.006944444,1,0,0,center_square,0,27,27,74,1,,,,,,,,,,,,,,,,,,,,,,,
020755,001,2022-11-21_00h52.34.440,Info_measure_main_exp,2022.2.2,Win32,60.0240096,,,,,,,,,,,,,,,,,,masks/mask_004.jpg,,,,,,,,,,,,,,,,,,,,,,,,,,,,,,,,,,,,,,,,,,,0,0,0,3,1,,,,,,,,,,,,,,,,,,,,,,,,,,,,,,,,,,,,,,,,,,,,,,
020755,001,2022-11-21_00h52.34.440,Info_measure_main_exp,2022.2.2,Win32,60.0240096,,,,,,,,,,,,,,,,,,masks/mask_002.jpg,,,,,,,,,,,,,,,,,,,,,,,,,,,,,,,,,,,,,,,,,,,0,1,1,1,1,,,,,,,,,,,,,,,,,,,,,,,,,,,,,,,,,,,,,,,,,,,,,,
020755,001,2022-11-21_00h52.34.440,Info_measure_main_exp,2022.2.2,Win32,60.0240096,,,,,,,,,,,,,,,,,,masks/mask_001.jpg,,,,,,,,,,,,,,,,,,,,,,,,,,,,,,,,,,,,,,,,,,,0,2,2,0,1,,,,,,,,,,,,,,,,,,,,,,,,,,,,,,,,,,,,,,,,,,,,,,
020755,001,2022-11-21_00h52.34.440,Info_measure_main_exp,2022.2.2,Win32,60.0240096,,,,,,,,,,,,,,,,,,masks/mask_005.jpg,,,,,,,,,,,,,,,,,,,,,,,,,,,,,,,,,,,,,,,,,,,0,3,3,4,1,,,,,,,,,,,,,,,,,,,,,,,,,,,,,,,,,,,,,,,,,,,,,,
020755,001,2022-11-21_00h52.34.440,Info_measure_main_exp,2022.2.2,Win32,60.0240096,,,,,,,,,,,,,,,,,,masks/mask_003.jpg,,,,,,,,,,,,,,,,,,,,,,,,,,,,,,,,,,,,,,,,,,,0,4,4,2,1,,,,,,,,,,,,,,,,,,,,,,,,,,,,,,,,,,,,,,,,,,,,,,
020755,001,2022-11-21_00h52.34.440,Info_measure_main_exp,2022.2.2,Win32,60.0240096,,,,,,,,,,,,,,,,,,masks/mask_003.jpg,,,,,,,,,,,,,,,,,,,,,,,,,,,,,,,,,,,,,,,,,,,,,,,,0,0,0,2,1,,,,,,,,,,,,,,,,,,,,,,,,,,,,,,,,,,,,,,,,,
020755,001,2022-11-21_00h52.34.440,Info_measure_main_exp,2022.2.2,Win32,60.0240096,,,,,,,,,,,,,,,,,,masks/mask_002.jpg,,,,,,,,,,,,,,,,,,,,,,,,,,,,,,,,,,,,,,,,,,,,,,,,0,1,1,1,1,,,,,,,,,,,,,,,,,,,,,,,,,,,,,,,,,,,,,,,,,
020755,001,2022-11-21_00h52.34.440,Info_measure_main_exp,2022.2.2,Win32,60.0240096,,,,,,,,,,,,,,,,,,masks/mask_004.jpg,,,,,,,,,,,,,,,,,,,,,,,,,,,,,,,,,,,,,,,,,,,,,,,,0,2,2,3,1,,,,,,,,,,,,,,,,,,,,,,,,,,,,,,,,,,,,,,,,,
020755,001,2022-11-21_00h52.34.440,Info_measure_main_exp,2022.2.2,Win32,60.0240096,,,,,,,,,,,,,,,,,,masks/mask_005.jpg,,,,,,,,,,,,,,,,,,,,,,,,,,,,,,,,,,,,,,,,,,,,,,,,0,3,3,4,1,,,,,,,,,,,,,,,,,,,,,,,,,,,,,,,,,,,,,,,,,
020755,001,2022-11-21_00h52.34.440,Info_measure_main_exp,2022.2.2,Win32,60.0240096,,,,,,,,,,,,,,,,,,masks/mask_001.jpg,,,,,,,,,,,,,,,,,,,,,,,,,,,,,,,,,,,,,,,,,,,,,,,,0,4,4,0,1,,,,,,,,,,,,,,,,,,,,,,,,,,,,,,,,,,,,,,,,,
020755,001,2022-11-21_00h52.34.440,Info_measure_main_exp,2022.2.2,Win32,60.0240096,,,,,,,,,,,,,,,,,,,,,,,,,,,,,,3,1.28,1,,,,,,,,,,,,0,131,5,5,1986,2238,absent_patch/patch0001986.jpg,absent_patch/patch0002238.jpg,,,,,,,,,,,,,,,,,,,,-0.054398148,-0.121527778,1,0,0,response5disk,29,-0.00462963,0,1,0,0,center_square,0,28,28,31,1,,,,,,,,,,,,,,,,,,,,,,,
020755,001,2022-11-21_00h52.34.440,Info_measure_main_exp,2022.2.2,Win32,60.0240096,,,,,,,,,,,,,,,,,,masks/mask_004.jpg,,,,,,,,,,,,,,,,,,,,,,,,,,,,,,,,,,,,,,,,,,,0,0,0,3,1,,,,,,,,,,,,,,,,,,,,,,,,,,,,,,,,,,,,,,,,,,,,,,
020755,001,2022-11-21_00h52.34.440,Info_measure_main_exp,2022.2.2,Win32,60.0240096,,,,,,,,,,,,,,,,,,masks/mask_002.jpg,,,,,,,,,,,,,,,,,,,,,,,,,,,,,,,,,,,,,,,,,,,0,1,1,1,1,,,,,,,,,,,,,,,,,,,,,,,,,,,,,,,,,,,,,,,,,,,,,,
020755,001,2022-11-21_00h52.34.440,Info_measure_main_exp,2022.2.2,Win32,60.0240096,,,,,,,,,,,,,,,,,,masks/mask_003.jpg,,,,,,,,,,,,,,,,,,,,,,,,,,,,,,,,,,,,,,,,,,,0,2,2,2,1,,,,,,,,,,,,,,,,,,,,,,,,,,,,,,,,,,,,,,,,,,,,,,
020755,001,2022-11-21_00h52.34.440,Info_measure_main_exp,2022.2.2,Win32,60.0240096,,,,,,,,,,,,,,,,,,masks/mask_005.jpg,,,,,,,,,,,,,,,,,,,,,,,,,,,,,,,,,,,,,,,,,,,0,3,3,4,1,,,,,,,,,,,,,,,,,,,,,,,,,,,,,,,,,,,,,,,,,,,,,,
020755,001,2022-11-21_00h52.34.440,Info_measure_main_exp,2022.2.2,Win32,60.0240096,,,,,,,,,,,,,,,,,,masks/mask_001.jpg,,,,,,,,,,,,,,,,,,,,,,,,,,,,,,,,,,,,,,,,,,,0,4,4,0,1,,,,,,,,,,,,,,,,,,,,,,,,,,,,,,,,,,,,,,,,,,,,,,
020755,001,2022-11-21_00h52.34.440,Info_measure_main_exp,2022.2.2,Win32,60.0240096,,,,,,,,,,,,,,,,,,masks/mask_004.jpg,,,,,,,,,,,,,,,,,,,,,,,,,,,,,,,,,,,,,,,,,,,,,,,,0,0,0,3,1,,,,,,,,,,,,,,,,,,,,,,,,,,,,,,,,,,,,,,,,,
020755,001,2022-11-21_00h52.34.440,Info_measure_main_exp,2022.2.2,Win32,60.0240096,,,,,,,,,,,,,,,,,,masks/mask_002.jpg,,,,,,,,,,,,,,,,,,,,,,,,,,,,,,,,,,,,,,,,,,,,,,,,0,1,1,1,1,,,,,,,,,,,,,,,,,,,,,,,,,,,,,,,,,,,,,,,,,
020755,001,2022-11-21_00h52.34.440,Info_measure_main_exp,2022.2.2,Win32,60.0240096,,,,,,,,,,,,,,,,,,masks/mask_001.jpg,,,,,,,,,,,,,,,,,,,,,,,,,,,,,,,,,,,,,,,,,,,,,,,,0,2,2,0,1,,,,,,,,,,,,,,,,,,,,,,,,,,,,,,,,,,,,,,,,,
020755,001,2022-11-21_00h52.34.440,Info_measure_main_exp,2022.2.2,Win32,60.0240096,,,,,,,,,,,,,,,,,,masks/mask_003.jpg,,,,,,,,,,,,,,,,,,,,,,,,,,,,,,,,,,,,,,,,,,,,,,,,0,3,3,2,1,,,,,,,,,,,,,,,,,,,,,,,,,,,,,,,,,,,,,,,,,
020755,001,2022-11-21_00h52.34.440,Info_measure_main_exp,2022.2.2,Win32,60.0240096,,,,,,,,,,,,,,,,,,masks/mask_005.jpg,,,,,,,,,,,,,,,,,,,,,,,,,,,,,,,,,,,,,,,,,,,,,,,,0,4,4,4,1,,,,,,,,,,,,,,,,,,,,,,,,,,,,,,,,,,,,,,,,,
020755,001,2022-11-21_00h52.34.440,Info_measure_main_exp,2022.2.2,Win32,60.0240096,,,,,,,,,,,,,,,,,,,,,,,,,,,,,,0,0.689,1,,,,,,,,,,,,0,131,5,5,2154,2154,absent_patch/patch0002154.jpg,absent_patch/patch0002154.jpg,,,,,,,,,,,,,,,,,,,,-0.03125,0.122685185,1,0,0,response7disk,30,0.006944444,-0.008101852,1,0,0,center_square,0,29,29,89,1,,,,,,,,,,,,,,,,,,,,,,,
020755,001,2022-11-21_00h52.34.440,Info_measure_main_exp,2022.2.2,Win32,60.0240096,,,,,,,,,,,,,,,,,,masks/mask_005.jpg,,,,,,,,,,,,,,,,,,,,,,,,,,,,,,,,,,,,,,,,,,,0,0,0,4,1,,,,,,,,,,,,,,,,,,,,,,,,,,,,,,,,,,,,,,,,,,,,,,
020755,001,2022-11-21_00h52.34.440,Info_measure_main_exp,2022.2.2,Win32,60.0240096,,,,,,,,,,,,,,,,,,masks/mask_004.jpg,,,,,,,,,,,,,,,,,,,,,,,,,,,,,,,,,,,,,,,,,,,0,1,1,3,1,,,,,,,,,,,,,,,,,,,,,,,,,,,,,,,,,,,,,,,,,,,,,,
020755,001,2022-11-21_00h52.34.440,Info_measure_main_exp,2022.2.2,Win32,60.0240096,,,,,,,,,,,,,,,,,,masks/mask_002.jpg,,,,,,,,,,,,,,,,,,,,,,,,,,,,,,,,,,,,,,,,,,,0,2,2,1,1,,,,,,,,,,,,,,,,,,,,,,,,,,,,,,,,,,,,,,,,,,,,,,
020755,001,2022-11-21_00h52.34.440,Info_measure_main_exp,2022.2.2,Win32,60.0240096,,,,,,,,,,,,,,,,,,masks/mask_003.jpg,,,,,,,,,,,,,,,,,,,,,,,,,,,,,,,,,,,,,,,,,,,0,3,3,2,1,,,,,,,,,,,,,,,,,,,,,,,,,,,,,,,,,,,,,,,,,,,,,,
020755,001,2022-11-21_00h52.34.440,Info_measure_main_exp,2022.2.2,Win32,60.0240096,,,,,,,,,,,,,,,,,,masks/mask_001.jpg,,,,,,,,,,,,,,,,,,,,,,,,,,,,,,,,,,,,,,,,,,,0,4,4,0,1,,,,,,,,,,,,,,,,,,,,,,,,,,,,,,,,,,,,,,,,,,,,,,
020755,001,2022-11-21_00h52.34.440,Info_measure_main_exp,2022.2.2,Win32,60.0240096,,,,,,,,,,,,,,,,,,masks/mask_003.jpg,,,,,,,,,,,,,,,,,,,,,,,,,,,,,,,,,,,,,,,,,,,,,,,,0,0,0,2,1,,,,,,,,,,,,,,,,,,,,,,,,,,,,,,,,,,,,,,,,,
020755,001,2022-11-21_00h52.34.440,Info_measure_main_exp,2022.2.2,Win32,60.0240096,,,,,,,,,,,,,,,,,,masks/mask_005.jpg,,,,,,,,,,,,,,,,,,,,,,,,,,,,,,,,,,,,,,,,,,,,,,,,0,1,1,4,1,,,,,,,,,,,,,,,,,,,,,,,,,,,,,,,,,,,,,,,,,
020755,001,2022-11-21_00h52.34.440,Info_measure_main_exp,2022.2.2,Win32,60.0240096,,,,,,,,,,,,,,,,,,masks/mask_001.jpg,,,,,,,,,,,,,,,,,,,,,,,,,,,,,,,,,,,,,,,,,,,,,,,,0,2,2,0,1,,,,,,,,,,,,,,,,,,,,,,,,,,,,,,,,,,,,,,,,,
020755,001,2022-11-21_00h52.34.440,Info_measure_main_exp,2022.2.2,Win32,60.0240096,,,,,,,,,,,,,,,,,,masks/mask_002.jpg,,,,,,,,,,,,,,,,,,,,,,,,,,,,,,,,,,,,,,,,,,,,,,,,0,3,3,1,1,,,,,,,,,,,,,,,,,,,,,,,,,,,,,,,,,,,,,,,,,
020755,001,2022-11-21_00h52.34.440,Info_measure_main_exp,2022.2.2,Win32,60.0240096,,,,,,,,,,,,,,,,,,masks/mask_004.jpg,,,,,,,,,,,,,,,,,,,,,,,,,,,,,,,,,,,,,,,,,,,,,,,,0,4,4,3,1,,,,,,,,,,,,,,,,,,,,,,,,,,,,,,,,,,,,,,,,,
020755,001,2022-11-21_00h52.34.440,Info_measure_main_exp,2022.2.2,Win32,60.0240096,,,,,,,,,,,,,,,,,,,,,,,,,,,,,,5,3.266,1,,,,,,,,,,,,0,131,5,5,1974,2142,absent_patch/patch0001974.jpg,absent_patch/patch0002142.jpg,,,,,,,,,,,,,,,,,,,,0.167824074,-0.055555556,1,0,0,response3disk,31,0.010416667,-0.008101852,1,0,0,center_square,0,30,30,38,1,,,,,,,,,,,,,,,,,,,,,,,
020755,001,2022-11-21_00h52.34.440,Info_measure_main_exp,2022.2.2,Win32,60.0240096,,,,,,,,,,,,,,,,,,masks/mask_003.jpg,,,,,,,,,,,,,,,,,,,,,,,,,,,,,,,,,,,,,,,,,,,0,0,0,2,1,,,,,,,,,,,,,,,,,,,,,,,,,,,,,,,,,,,,,,,,,,,,,,
020755,001,2022-11-21_00h52.34.440,Info_measure_main_exp,2022.2.2,Win32,60.0240096,,,,,,,,,,,,,,,,,,masks/mask_005.jpg,,,,,,,,,,,,,,,,,,,,,,,,,,,,,,,,,,,,,,,,,,,0,1,1,4,1,,,,,,,,,,,,,,,,,,,,,,,,,,,,,,,,,,,,,,,,,,,,,,
020755,001,2022-11-21_00h52.34.440,Info_measure_main_exp,2022.2.2,Win32,60.0240096,,,,,,,,,,,,,,,,,,masks/mask_002.jpg,,,,,,,,,,,,,,,,,,,,,,,,,,,,,,,,,,,,,,,,,,,0,2,2,1,1,,,,,,,,,,,,,,,,,,,,,,,,,,,,,,,,,,,,,,,,,,,,,,
020755,001,2022-11-21_00h52.34.440,Info_measure_main_exp,2022.2.2,Win32,60.0240096,,,,,,,,,,,,,,,,,,masks/mask_001.jpg,,,,,,,,,,,,,,,,,,,,,,,,,,,,,,,,,,,,,,,,,,,0,3,3,0,1,,,,,,,,,,,,,,,,,,,,,,,,,,,,,,,,,,,,,,,,,,,,,,
020755,001,2022-11-21_00h52.34.440,Info_measure_main_exp,2022.2.2,Win32,60.0240096,,,,,,,,,,,,,,,,,,masks/mask_004.jpg,,,,,,,,,,,,,,,,,,,,,,,,,,,,,,,,,,,,,,,,,,,0,4,4,3,1,,,,,,,,,,,,,,,,,,,,,,,,,,,,,,,,,,,,,,,,,,,,,,
020755,001,2022-11-21_00h52.34.440,Info_measure_main_exp,2022.2.2,Win32,60.0240096,,,,,,,,,,,,,,,,,,masks/mask_002.jpg,,,,,,,,,,,,,,,,,,,,,,,,,,,,,,,,,,,,,,,,,,,,,,,,0,0,0,1,1,,,,,,,,,,,,,,,,,,,,,,,,,,,,,,,,,,,,,,,,,
020755,001,2022-11-21_00h52.34.440,Info_measure_main_exp,2022.2.2,Win32,60.0240096,,,,,,,,,,,,,,,,,,masks/mask_001.jpg,,,,,,,,,,,,,,,,,,,,,,,,,,,,,,,,,,,,,,,,,,,,,,,,0,1,1,0,1,,,,,,,,,,,,,,,,,,,,,,,,,,,,,,,,,,,,,,,,,
020755,001,2022-11-21_00h52.34.440,Info_measure_main_exp,2022.2.2,Win32,60.0240096,,,,,,,,,,,,,,,,,,masks/mask_005.jpg,,,,,,,,,,,,,,,,,,,,,,,,,,,,,,,,,,,,,,,,,,,,,,,,0,2,2,4,1,,,,,,,,,,,,,,,,,,,,,,,,,,,,,,,,,,,,,,,,,
020755,001,2022-11-21_00h52.34.440,Info_measure_main_exp,2022.2.2,Win32,60.0240096,,,,,,,,,,,,,,,,,,masks/mask_003.jpg,,,,,,,,,,,,,,,,,,,,,,,,,,,,,,,,,,,,,,,,,,,,,,,,0,3,3,2,1,,,,,,,,,,,,,,,,,,,,,,,,,,,,,,,,,,,,,,,,,
020755,001,2022-11-21_00h52.34.440,Info_measure_main_exp,2022.2.2,Win32,60.0240096,,,,,,,,,,,,,,,,,,masks/mask_004.jpg,,,,,,,,,,,,,,,,,,,,,,,,,,,,,,,,,,,,,,,,,,,,,,,,0,4,4,3,1,,,,,,,,,,,,,,,,,,,,,,,,,,,,,,,,,,,,,,,,,
020755,001,2022-11-21_00h52.34.440,Info_measure_main_exp,2022.2.2,Win32,60.0240096,,,,,,,,,,,,,,,,,,,,,,,,,,,,,,0,0.543,1,,,,,,,,,,,,0,131,5,5,2178,2178,absent_patch/patch0002178.jpg,absent_patch/patch0002178.jpg,,,,,,,,,,,,,,,,,,,,-0.081018519,0.134259259,1,0,0,response7disk,32,-0.005787037,-0.008101852,1,0,0,center_square,0,31,31,98,1,,,,,,,,,,,,,,,,,,,,,,,
020755,001,2022-11-21_00h52.34.440,Info_measure_main_exp,2022.2.2,Win32,60.0240096,,,,,,,,,,,,,,,,,,masks/mask_004.jpg,,,,,,,,,,,,,,,,,,,,,,,,,,,,,,,,,,,,,,,,,,,0,0,0,3,1,,,,,,,,,,,,,,,,,,,,,,,,,,,,,,,,,,,,,,,,,,,,,,
020755,001,2022-11-21_00h52.34.440,Info_measure_main_exp,2022.2.2,Win32,60.0240096,,,,,,,,,,,,,,,,,,masks/mask_001.jpg,,,,,,,,,,,,,,,,,,,,,,,,,,,,,,,,,,,,,,,,,,,0,1,1,0,1,,,,,,,,,,,,,,,,,,,,,,,,,,,,,,,,,,,,,,,,,,,,,,
020755,001,2022-11-21_00h52.34.440,Info_measure_main_exp,2022.2.2,Win32,60.0240096,,,,,,,,,,,,,,,,,,masks/mask_005.jpg,,,,,,,,,,,,,,,,,,,,,,,,,,,,,,,,,,,,,,,,,,,0,2,2,4,1,,,,,,,,,,,,,,,,,,,,,,,,,,,,,,,,,,,,,,,,,,,,,,
020755,001,2022-11-21_00h52.34.440,Info_measure_main_exp,2022.2.2,Win32,60.0240096,,,,,,,,,,,,,,,,,,masks/mask_002.jpg,,,,,,,,,,,,,,,,,,,,,,,,,,,,,,,,,,,,,,,,,,,0,3,3,1,1,,,,,,,,,,,,,,,,,,,,,,,,,,,,,,,,,,,,,,,,,,,,,,
020755,001,2022-11-21_00h52.34.440,Info_measure_main_exp,2022.2.2,Win32,60.0240096,,,,,,,,,,,,,,,,,,masks/mask_003.jpg,,,,,,,,,,,,,,,,,,,,,,,,,,,,,,,,,,,,,,,,,,,0,4,4,2,1,,,,,,,,,,,,,,,,,,,,,,,,,,,,,,,,,,,,,,,,,,,,,,
020755,001,2022-11-21_00h52.34.440,Info_measure_main_exp,2022.2.2,Win32,60.0240096,,,,,,,,,,,,,,,,,,masks/mask_005.jpg,,,,,,,,,,,,,,,,,,,,,,,,,,,,,,,,,,,,,,,,,,,,,,,,0,0,0,4,1,,,,,,,,,,,,,,,,,,,,,,,,,,,,,,,,,,,,,,,,,
020755,001,2022-11-21_00h52.34.440,Info_measure_main_exp,2022.2.2,Win32,60.0240096,,,,,,,,,,,,,,,,,,masks/mask_004.jpg,,,,,,,,,,,,,,,,,,,,,,,,,,,,,,,,,,,,,,,,,,,,,,,,0,1,1,3,1,,,,,,,,,,,,,,,,,,,,,,,,,,,,,,,,,,,,,,,,,
020755,001,2022-11-21_00h52.34.440,Info_measure_main_exp,2022.2.2,Win32,60.0240096,,,,,,,,,,,,,,,,,,masks/mask_001.jpg,,,,,,,,,,,,,,,,,,,,,,,,,,,,,,,,,,,,,,,,,,,,,,,,0,2,2,0,1,,,,,,,,,,,,,,,,,,,,,,,,,,,,,,,,,,,,,,,,,
020755,001,2022-11-21_00h52.34.440,Info_measure_main_exp,2022.2.2,Win32,60.0240096,,,,,,,,,,,,,,,,,,masks/mask_003.jpg,,,,,,,,,,,,,,,,,,,,,,,,,,,,,,,,,,,,,,,,,,,,,,,,0,3,3,2,1,,,,,,,,,,,,,,,,,,,,,,,,,,,,,,,,,,,,,,,,,
020755,001,2022-11-21_00h52.34.440,Info_measure_main_exp,2022.2.2,Win32,60.0240096,,,,,,,,,,,,,,,,,,masks/mask_002.jpg,,,,,,,,,,,,,,,,,,,,,,,,,,,,,,,,,,,,,,,,,,,,,,,,0,4,4,1,1,,,,,,,,,,,,,,,,,,,,,,,,,,,,,,,,,,,,,,,,,
020755,001,2022-11-21_00h52.34.440,Info_measure_main_exp,2022.2.2,Win32,60.0240096,,,,,,,,,,,,,,,,,,,,,,,,,,,,,,6,1.503,1,,,,,,,,,,,,0,131,5,5,2214,1986,absent_patch/patch0002214.jpg,absent_patch/patch0001986.jpg,,,,,,,,,,,,,,,,,,,,0.146990741,0.045138889,1,0,0,response1disk,33,0.012731481,0,1,0,0,center_square,0,32,32,34,1,,,,,,,,,,,,,,,,,,,,,,,
020755,001,2022-11-21_00h52.34.440,Info_measure_main_exp,2022.2.2,Win32,60.0240096,,,,,,,,,,,,,,,,,,masks/mask_002.jpg,,,,,,,,,,,,,,,,,,,,,,,,,,,,,,,,,,,,,,,,,,,0,0,0,1,1,,,,,,,,,,,,,,,,,,,,,,,,,,,,,,,,,,,,,,,,,,,,,,
020755,001,2022-11-21_00h52.34.440,Info_measure_main_exp,2022.2.2,Win32,60.0240096,,,,,,,,,,,,,,,,,,masks/mask_004.jpg,,,,,,,,,,,,,,,,,,,,,,,,,,,,,,,,,,,,,,,,,,,0,1,1,3,1,,,,,,,,,,,,,,,,,,,,,,,,,,,,,,,,,,,,,,,,,,,,,,
020755,001,2022-11-21_00h52.34.440,Info_measure_main_exp,2022.2.2,Win32,60.0240096,,,,,,,,,,,,,,,,,,masks/mask_001.jpg,,,,,,,,,,,,,,,,,,,,,,,,,,,,,,,,,,,,,,,,,,,0,2,2,0,1,,,,,,,,,,,,,,,,,,,,,,,,,,,,,,,,,,,,,,,,,,,,,,
020755,001,2022-11-21_00h52.34.440,Info_measure_main_exp,2022.2.2,Win32,60.0240096,,,,,,,,,,,,,,,,,,masks/mask_003.jpg,,,,,,,,,,,,,,,,,,,,,,,,,,,,,,,,,,,,,,,,,,,0,3,3,2,1,,,,,,,,,,,,,,,,,,,,,,,,,,,,,,,,,,,,,,,,,,,,,,
020755,001,2022-11-21_00h52.34.440,Info_measure_main_exp,2022.2.2,Win32,60.0240096,,,,,,,,,,,,,,,,,,masks/mask_005.jpg,,,,,,,,,,,,,,,,,,,,,,,,,,,,,,,,,,,,,,,,,,,0,4,4,4,1,,,,,,,,,,,,,,,,,,,,,,,,,,,,,,,,,,,,,,,,,,,,,,
020755,001,2022-11-21_00h52.34.440,Info_measure_main_exp,2022.2.2,Win32,60.0240096,,,,,,,,,,,,,,,,,,masks/mask_004.jpg,,,,,,,,,,,,,,,,,,,,,,,,,,,,,,,,,,,,,,,,,,,,,,,,0,0,0,3,1,,,,,,,,,,,,,,,,,,,,,,,,,,,,,,,,,,,,,,,,,
020755,001,2022-11-21_00h52.34.440,Info_measure_main_exp,2022.2.2,Win32,60.0240096,,,,,,,,,,,,,,,,,,masks/mask_003.jpg,,,,,,,,,,,,,,,,,,,,,,,,,,,,,,,,,,,,,,,,,,,,,,,,0,1,1,2,1,,,,,,,,,,,,,,,,,,,,,,,,,,,,,,,,,,,,,,,,,
020755,001,2022-11-21_00h52.34.440,Info_measure_main_exp,2022.2.2,Win32,60.0240096,,,,,,,,,,,,,,,,,,masks/mask_001.jpg,,,,,,,,,,,,,,,,,,,,,,,,,,,,,,,,,,,,,,,,,,,,,,,,0,2,2,0,1,,,,,,,,,,,,,,,,,,,,,,,,,,,,,,,,,,,,,,,,,
020755,001,2022-11-21_00h52.34.440,Info_measure_main_exp,2022.2.2,Win32,60.0240096,,,,,,,,,,,,,,,,,,masks/mask_005.jpg,,,,,,,,,,,,,,,,,,,,,,,,,,,,,,,,,,,,,,,,,,,,,,,,0,3,3,4,1,,,,,,,,,,,,,,,,,,,,,,,,,,,,,,,,,,,,,,,,,
020755,001,2022-11-21_00h52.34.440,Info_measure_main_exp,2022.2.2,Win32,60.0240096,,,,,,,,,,,,,,,,,,masks/mask_002.jpg,,,,,,,,,,,,,,,,,,,,,,,,,,,,,,,,,,,,,,,,,,,,,,,,0,4,4,1,1,,,,,,,,,,,,,,,,,,,,,,,,,,,,,,,,,,,,,,,,,
020755,001,2022-11-21_00h52.34.440,Info_measure_main_exp,2022.2.2,Win32,60.0240096,,,,,,,,,,,,,,,,,,,,,,,,,,,,,,4,3.163,1,,,,,,,,,,,,0,131,5,5,2298,2214,absent_patch/patch0002298.jpg,absent_patch/patch0002214.jpg,,,,,,,,,,,,,,,,,,,,0.052083333,-0.162037037,1,0,0,response3disk,34,0.003472222,-0.011574074,1,0,0,center_square,0,33,33,99,1,,,,,,,,,,,,,,,,,,,,,,,
020755,001,2022-11-21_00h52.34.440,Info_measure_main_exp,2022.2.2,Win32,60.0240096,,,,,,,,,,,,,,,,,,masks/mask_003.jpg,,,,,,,,,,,,,,,,,,,,,,,,,,,,,,,,,,,,,,,,,,,0,0,0,2,1,,,,,,,,,,,,,,,,,,,,,,,,,,,,,,,,,,,,,,,,,,,,,,
020755,001,2022-11-21_00h52.34.440,Info_measure_main_exp,2022.2.2,Win32,60.0240096,,,,,,,,,,,,,,,,,,masks/mask_002.jpg,,,,,,,,,,,,,,,,,,,,,,,,,,,,,,,,,,,,,,,,,,,0,1,1,1,1,,,,,,,,,,,,,,,,,,,,,,,,,,,,,,,,,,,,,,,,,,,,,,
020755,001,2022-11-21_00h52.34.440,Info_measure_main_exp,2022.2.2,Win32,60.0240096,,,,,,,,,,,,,,,,,,masks/mask_005.jpg,,,,,,,,,,,,,,,,,,,,,,,,,,,,,,,,,,,,,,,,,,,0,2,2,4,1,,,,,,,,,,,,,,,,,,,,,,,,,,,,,,,,,,,,,,,,,,,,,,
020755,001,2022-11-21_00h52.34.440,Info_measure_main_exp,2022.2.2,Win32,60.0240096,,,,,,,,,,,,,,,,,,masks/mask_001.jpg,,,,,,,,,,,,,,,,,,,,,,,,,,,,,,,,,,,,,,,,,,,0,3,3,0,1,,,,,,,,,,,,,,,,,,,,,,,,,,,,,,,,,,,,,,,,,,,,,,
020755,001,2022-11-21_00h52.34.440,Info_measure_main_exp,2022.2.2,Win32,60.0240096,,,,,,,,,,,,,,,,,,masks/mask_004.jpg,,,,,,,,,,,,,,,,,,,,,,,,,,,,,,,,,,,,,,,,,,,0,4,4,3,1,,,,,,,,,,,,,,,,,,,,,,,,,,,,,,,,,,,,,,,,,,,,,,
020755,001,2022-11-21_00h52.34.440,Info_measure_main_exp,2022.2.2,Win32,60.0240096,,,,,,,,,,,,,,,,,,masks/mask_003.jpg,,,,,,,,,,,,,,,,,,,,,,,,,,,,,,,,,,,,,,,,,,,,,,,,0,0,0,2,1,,,,,,,,,,,,,,,,,,,,,,,,,,,,,,,,,,,,,,,,,
020755,001,2022-11-21_00h52.34.440,Info_measure_main_exp,2022.2.2,Win32,60.0240096,,,,,,,,,,,,,,,,,,masks/mask_004.jpg,,,,,,,,,,,,,,,,,,,,,,,,,,,,,,,,,,,,,,,,,,,,,,,,0,1,1,3,1,,,,,,,,,,,,,,,,,,,,,,,,,,,,,,,,,,,,,,,,,
020755,001,2022-11-21_00h52.34.440,Info_measure_main_exp,2022.2.2,Win32,60.0240096,,,,,,,,,,,,,,,,,,masks/mask_001.jpg,,,,,,,,,,,,,,,,,,,,,,,,,,,,,,,,,,,,,,,,,,,,,,,,0,2,2,0,1,,,,,,,,,,,,,,,,,,,,,,,,,,,,,,,,,,,,,,,,,
020755,001,2022-11-21_00h52.34.440,Info_measure_main_exp,2022.2.2,Win32,60.0240096,,,,,,,,,,,,,,,,,,masks/mask_002.jpg,,,,,,,,,,,,,,,,,,,,,,,,,,,,,,,,,,,,,,,,,,,,,,,,0,3,3,1,1,,,,,,,,,,,,,,,,,,,,,,,,,,,,,,,,,,,,,,,,,
020755,001,2022-11-21_00h52.34.440,Info_measure_main_exp,2022.2.2,Win32,60.0240096,,,,,,,,,,,,,,,,,,masks/mask_005.jpg,,,,,,,,,,,,,,,,,,,,,,,,,,,,,,,,,,,,,,,,,,,,,,,,0,4,4,4,1,,,,,,,,,,,,,,,,,,,,,,,,,,,,,,,,,,,,,,,,,
