participant,session,date,expName,psychopyVersion,OS,frameRate,space_press_continue.keys,space_press_continue.rt,space_press_continue_2.keys,space_press_continue_2.rt,space_press_continue_3.keys,space_press_continue_3.rt,space_press_continue_4.keys,space_press_continue_4.rt,space_press_continue_5.keys,space_press_continue_5.rt,space_press_continue_6.keys,space_press_continue_6.rt,prac_mask_loop_1.thisRepN,prac_mask_loop_1.thisTrialN,prac_mask_loop_1.thisN,prac_mask_loop_1.thisIndex,prac_mask_loop_1.ran,mask_name,prac_mask_loop_2.thisRepN,prac_mask_loop_2.thisTrialN,prac_mask_loop_2.thisN,prac_mask_loop_2.thisIndex,prac_mask_loop_2.ran,mouse_2.x,mouse_2.y,mouse_2.leftButton,mouse_2.midButton,mouse_2.rightButton,mouse_2.clicked_name,similarity,response_time,Pass,mouse_12.x,mouse_12.y,mouse_12.leftButton,mouse_12.midButton,mouse_12.rightButton,mouse_12.clicked_name,prac_loop.thisRepN,prac_loop.thisTrialN,prac_loop.thisN,prac_loop.thisIndex,prac_loop.ran,Pair_type,Image_num,Patch_1_loc,Patch_2_loc,Patch_1_info,Patch_2_info,Patch_1_name,Patch_2_name,mouse_1.x,mouse_1.y,mouse_1.leftButton,mouse_1.midButton,mouse_1.rightButton,mouse_1.time,mouse_1.clicked_name,space_press_continue_7.keys,space_press_continue_7.rt,mask_loop.thisRepN,mask_loop.thisTrialN,mask_loop.thisN,mask_loop.thisIndex,mask_loop.ran,mask_loop_2.thisRepN,mask_loop_2.thisTrialN,mask_loop_2.thisN,mask_loop_2.thisIndex,mask_loop_2.ran,mouse.x,mouse.y,mouse.leftButton,mouse.midButton,mouse.rightButton,mouse.clicked_name,trialNumber,mouse_11.x,mouse_11.y,mouse_11.leftButton,mouse_11.midButton,mouse_11.rightButton,mouse_11.clicked_name,first_pass_loop.thisRepN,first_pass_loop.thisTrialN,first_pass_loop.thisN,first_pass_loop.thisIndex,first_pass_loop.ran,mask_loop_3.thisRepN,mask_loop_3.thisTrialN,mask_loop_3.thisN,mask_loop_3.thisIndex,mask_loop_3.ran,mask_loop_4.thisRepN,mask_loop_4.thisTrialN,mask_loop_4.thisN,mask_loop_4.thisIndex,mask_loop_4.ran,mouse_3.x,mouse_3.y,mouse_3.leftButton,mouse_3.midButton,mouse_3.rightButton,mouse_3.clicked_name,double_pass_loop.thisRepN,double_pass_loop.thisTrialN,double_pass_loop.thisN,double_pass_loop.thisIndex,double_pass_loop.ran,space_exit.keys,space_exit.rt
024271,001,2022-11-20_23h48.03.818,Info_measure_main_exp,2022.2.2,Linux x86_64,121.3150552,,,,,,,,,,,,,,,,,,,,,,,,,,,,,,,,,,,,,,,,,,,,,,,,,,,,,,,,,,,,,,,,,,,,,,,,,,,,,,,,,,,,,,,,,,,,,,,,,,,,,,,,,,,,,,,
024271,001,2022-11-20_23h48.03.818,Info_measure_main_exp,2022.2.2,Linux x86_64,121.3150552,,,,,,,,,,,,,,,,,,,,,,,,,,,,,,,,,,,,,,,,,,,,,,,,,,,,,,,,,,,,,,,,,,,,,,,,,,,,,,,,,,,,,,,,,,,,,,,,,,,,,,,,,,,,,,,
024271,001,2022-11-20_23h48.03.818,Info_measure_main_exp,2022.2.2,Linux x86_64,121.3150552,space,12.6805,,,,,,,,,,,,,,,,,,,,,,,,,,,,,,,,,,,,,,,,,,,,,,,,,,,,,,,,,,,,,,,,,,,,,,,,,,,,,,,,,,,,,,,,,,,,,,,,,,,,,,,,,,,,,
024271,001,2022-11-20_23h48.03.818,Info_measure_main_exp,2022.2.2,Linux x86_64,121.3150552,,,space,16.8493,,,,,,,,,,,,,,,,,,,,,,,,,,,,,,,,,,,,,,,,,,,,,,,,,,,,,,,,,,,,,,,,,,,,,,,,,,,,,,,,,,,,,,,,,,,,,,,,,,,,,,,,,,,
024271,001,2022-11-20_23h48.03.818,Info_measure_main_exp,2022.2.2,Linux x86_64,121.3150552,,,,,space,14.738,,,,,,,,,,,,,,,,,,,,,,,,,,,,,,,,,,,,,,,,,,,,,,,,,,,,,,,,,,,,,,,,,,,,,,,,,,,,,,,,,,,,,,,,,,,,,,,,,,,,,,,,,
024271,001,2022-11-20_23h48.03.818,Info_measure_main_exp,2022.2.2,Linux x86_64,121.3150552,,,,,,,space,39.6318,,,,,,,,,,,,,,,,,,,,,,,,,,,,,,,,,,,,,,,,,,,,,,,,,,,,,,,,,,,,,,,,,,,,,,,,,,,,,,,,,,,,,,,,,,,,,,,,,,,,,,,
024271,001,2022-11-20_23h48.03.818,Info_measure_main_exp,2022.2.2,Linux x86_64,121.3150552,,,,,,,,,space,11.4769,,,,,,,,,,,,,,,,,,,,,,,,,,,,,,,,,,,,,,,,,,,,,,,,,,,,,,,,,,,,,,,,,,,,,,,,,,,,,,,,,,,,,,,,,,,,,,,,,,,,,
024271,001,2022-11-20_23h48.03.818,Info_measure_main_exp,2022.2.2,Linux x86_64,121.3150552,,,,,,,,,,,space,6.9294,,,,,,,,,,,,,,,,,,,,,,,,,,,,,,,,,,,,,,,,,,,,,,,,,,,,,,,,,,,,,,,,,,,,,,,,,,,,,,,,,,,,,,,,,,,,,,,,,,,
024271,001,2022-11-20_23h48.03.818,Info_measure_main_exp,2022.2.2,Linux x86_64,121.3150552,,,,,,,,,,,,,0,0,0,3,1,masks/mask_004.jpg,,,,,,,,,,,,,,,,,,,,,,,,,,,,,,,,,,,,,,,,,,,,,,,,,,,,,,,,,,,,,,,,,,,,,,,,,,,,,,,,,,,,,,,,,,,,,
024271,001,2022-11-20_23h48.03.818,Info_measure_main_exp,2022.2.2,Linux x86_64,121.3150552,,,,,,,,,,,,,0,1,1,2,1,masks/mask_003.jpg,,,,,,,,,,,,,,,,,,,,,,,,,,,,,,,,,,,,,,,,,,,,,,,,,,,,,,,,,,,,,,,,,,,,,,,,,,,,,,,,,,,,,,,,,,,,,
024271,001,2022-11-20_23h48.03.818,Info_measure_main_exp,2022.2.2,Linux x86_64,121.3150552,,,,,,,,,,,,,0,2,2,4,1,masks/mask_005.jpg,,,,,,,,,,,,,,,,,,,,,,,,,,,,,,,,,,,,,,,,,,,,,,,,,,,,,,,,,,,,,,,,,,,,,,,,,,,,,,,,,,,,,,,,,,,,,
024271,001,2022-11-20_23h48.03.818,Info_measure_main_exp,2022.2.2,Linux x86_64,121.3150552,,,,,,,,,,,,,0,3,3,1,1,masks/mask_002.jpg,,,,,,,,,,,,,,,,,,,,,,,,,,,,,,,,,,,,,,,,,,,,,,,,,,,,,,,,,,,,,,,,,,,,,,,,,,,,,,,,,,,,,,,,,,,,,
024271,001,2022-11-20_23h48.03.818,Info_measure_main_exp,2022.2.2,Linux x86_64,121.3150552,,,,,,,,,,,,,0,4,4,0,1,masks/mask_001.jpg,,,,,,,,,,,,,,,,,,,,,,,,,,,,,,,,,,,,,,,,,,,,,,,,,,,,,,,,,,,,,,,,,,,,,,,,,,,,,,,,,,,,,,,,,,,,,
024271,001,2022-11-20_23h48.03.818,Info_measure_main_exp,2022.2.2,Linux x86_64,121.3150552,,,,,,,,,,,,,,,,,,masks/mask_001.jpg,0,0,0,0,1,,,,,,,,,,,,,,,,,,,,,,,,,,,,,,,,,,,,,,,,,,,,,,,,,,,,,,,,,,,,,,,,,,,,,,,,,,,,,,,,,,,,,,,,
024271,001,2022-11-20_23h48.03.818,Info_measure_main_exp,2022.2.2,Linux x86_64,121.3150552,,,,,,,,,,,,,,,,,,masks/mask_004.jpg,0,1,1,3,1,,,,,,,,,,,,,,,,,,,,,,,,,,,,,,,,,,,,,,,,,,,,,,,,,,,,,,,,,,,,,,,,,,,,,,,,,,,,,,,,,,,,,,,,
024271,001,2022-11-20_23h48.03.818,Info_measure_main_exp,2022.2.2,Linux x86_64,121.3150552,,,,,,,,,,,,,,,,,,masks/mask_005.jpg,0,2,2,4,1,,,,,,,,,,,,,,,,,,,,,,,,,,,,,,,,,,,,,,,,,,,,,,,,,,,,,,,,,,,,,,,,,,,,,,,,,,,,,,,,,,,,,,,,
024271,001,2022-11-20_23h48.03.818,Info_measure_main_exp,2022.2.2,Linux x86_64,121.3150552,,,,,,,,,,,,,,,,,,masks/mask_003.jpg,0,3,3,2,1,,,,,,,,,,,,,,,,,,,,,,,,,,,,,,,,,,,,,,,,,,,,,,,,,,,,,,,,,,,,,,,,,,,,,,,,,,,,,,,,,,,,,,,,
024271,001,2022-11-20_23h48.03.818,Info_measure_main_exp,2022.2.2,Linux x86_64,121.3150552,,,,,,,,,,,,,,,,,,masks/mask_002.jpg,0,4,4,1,1,,,,,,,,,,,,,,,,,,,,,,,,,,,,,,,,,,,,,,,,,,,,,,,,,,,,,,,,,,,,,,,,,,,,,,,,,,,,,,,,,,,,,,,,
024271,001,2022-11-20_23h48.03.818,Info_measure_main_exp,2022.2.2,Linux x86_64,121.3150552,,,,,,,,,,,,,,,,,,,,,,,,0.087962963,0.196296296,1,0,0,response1disk,7,106.0583,1,-0.008333333,0.006481481,1,0,0,center_square,0,0,0,2,1,0,131,5,5,2526,2526,prac_patch/patch0002526.jpg,prac_patch/patch0002526.jpg,,,,,,,,,,,,,,,,,,,,,,,,,,,,,,,,,,,,,,,,,,,,,,,,,,,,,,,,,,,,
024271,001,2022-11-20_23h48.03.818,Info_measure_main_exp,2022.2.2,Linux x86_64,121.3150552,,,,,,,,,,,,,0,0,0,3,1,masks/mask_004.jpg,,,,,,,,,,,,,,,,,,,,,,,,,,,,,,,,,,,,,,,,,,,,,,,,,,,,,,,,,,,,,,,,,,,,,,,,,,,,,,,,,,,,,,,,,,,,,
024271,001,2022-11-20_23h48.03.818,Info_measure_main_exp,2022.2.2,Linux x86_64,121.3150552,,,,,,,,,,,,,0,1,1,4,1,masks/mask_005.jpg,,,,,,,,,,,,,,,,,,,,,,,,,,,,,,,,,,,,,,,,,,,,,,,,,,,,,,,,,,,,,,,,,,,,,,,,,,,,,,,,,,,,,,,,,,,,,
024271,001,2022-11-20_23h48.03.818,Info_measure_main_exp,2022.2.2,Linux x86_64,121.3150552,,,,,,,,,,,,,0,2,2,1,1,masks/mask_002.jpg,,,,,,,,,,,,,,,,,,,,,,,,,,,,,,,,,,,,,,,,,,,,,,,,,,,,,,,,,,,,,,,,,,,,,,,,,,,,,,,,,,,,,,,,,,,,,
024271,001,2022-11-20_23h48.03.818,Info_measure_main_exp,2022.2.2,Linux x86_64,121.3150552,,,,,,,,,,,,,0,3,3,2,1,masks/mask_003.jpg,,,,,,,,,,,,,,,,,,,,,,,,,,,,,,,,,,,,,,,,,,,,,,,,,,,,,,,,,,,,,,,,,,,,,,,,,,,,,,,,,,,,,,,,,,,,,
024271,001,2022-11-20_23h48.03.818,Info_measure_main_exp,2022.2.2,Linux x86_64,121.3150552,,,,,,,,,,,,,0,4,4,0,1,masks/mask_001.jpg,,,,,,,,,,,,,,,,,,,,,,,,,,,,,,,,,,,,,,,,,,,,,,,,,,,,,,,,,,,,,,,,,,,,,,,,,,,,,,,,,,,,,,,,,,,,,
024271,001,2022-11-20_23h48.03.818,Info_measure_main_exp,2022.2.2,Linux x86_64,121.3150552,,,,,,,,,,,,,,,,,,masks/mask_002.jpg,0,0,0,1,1,,,,,,,,,,,,,,,,,,,,,,,,,,,,,,,,,,,,,,,,,,,,,,,,,,,,,,,,,,,,,,,,,,,,,,,,,,,,,,,,,,,,,,,,
024271,001,2022-11-20_23h48.03.818,Info_measure_main_exp,2022.2.2,Linux x86_64,121.3150552,,,,,,,,,,,,,,,,,,masks/mask_001.jpg,0,1,1,0,1,,,,,,,,,,,,,,,,,,,,,,,,,,,,,,,,,,,,,,,,,,,,,,,,,,,,,,,,,,,,,,,,,,,,,,,,,,,,,,,,,,,,,,,,
024271,001,2022-11-20_23h48.03.818,Info_measure_main_exp,2022.2.2,Linux x86_64,121.3150552,,,,,,,,,,,,,,,,,,masks/mask_004.jpg,0,2,2,3,1,,,,,,,,,,,,,,,,,,,,,,,,,,,,,,,,,,,,,,,,,,,,,,,,,,,,,,,,,,,,,,,,,,,,,,,,,,,,,,,,,,,,,,,,
024271,001,2022-11-20_23h48.03.818,Info_measure_main_exp,2022.2.2,Linux x86_64,121.3150552,,,,,,,,,,,,,,,,,,masks/mask_003.jpg,0,3,3,2,1,,,,,,,,,,,,,,,,,,,,,,,,,,,,,,,,,,,,,,,,,,,,,,,,,,,,,,,,,,,,,,,,,,,,,,,,,,,,,,,,,,,,,,,,
024271,001,2022-11-20_23h48.03.818,Info_measure_main_exp,2022.2.2,Linux x86_64,121.3150552,,,,,,,,,,,,,,,,,,masks/mask_005.jpg,0,4,4,4,1,,,,,,,,,,,,,,,,,,,,,,,,,,,,,,,,,,,,,,,,,,,,,,,,,,,,,,,,,,,,,,,,,,,,,,,,,,,,,,,,,,,,,,,,
024271,001,2022-11-20_23h48.03.818,Info_measure_main_exp,2022.2.2,Linux x86_64,121.3150552,,,,,,,,,,,,,,,,,,,,,,,,0.062037037,0.157407407,1,0,0,response1disk,7,119.4803,1,-0.00462963,0.009259259,1,0,0,center_square,0,1,1,0,1,0,131,5,5,2370,2406,prac_patch/patch0002370.jpg,prac_patch/patch0002406.jpg,,,,,,,,,,,,,,,,,,,,,,,,,,,,,,,,,,,,,,,,,,,,,,,,,,,,,,,,,,,,
024271,001,2022-11-20_23h48.03.818,Info_measure_main_exp,2022.2.2,Linux x86_64,121.3150552,,,,,,,,,,,,,0,0,0,2,1,masks/mask_003.jpg,,,,,,,,,,,,,,,,,,,,,,,,,,,,,,,,,,,,,,,,,,,,,,,,,,,,,,,,,,,,,,,,,,,,,,,,,,,,,,,,,,,,,,,,,,,,,
024271,001,2022-11-20_23h48.03.818,Info_measure_main_exp,2022.2.2,Linux x86_64,121.3150552,,,,,,,,,,,,,0,1,1,1,1,masks/mask_002.jpg,,,,,,,,,,,,,,,,,,,,,,,,,,,,,,,,,,,,,,,,,,,,,,,,,,,,,,,,,,,,,,,,,,,,,,,,,,,,,,,,,,,,,,,,,,,,,
024271,001,2022-11-20_23h48.03.818,Info_measure_main_exp,2022.2.2,Linux x86_64,121.3150552,,,,,,,,,,,,,0,2,2,4,1,masks/mask_005.jpg,,,,,,,,,,,,,,,,,,,,,,,,,,,,,,,,,,,,,,,,,,,,,,,,,,,,,,,,,,,,,,,,,,,,,,,,,,,,,,,,,,,,,,,,,,,,,
024271,001,2022-11-20_23h48.03.818,Info_measure_main_exp,2022.2.2,Linux x86_64,121.3150552,,,,,,,,,,,,,0,3,3,0,1,masks/mask_001.jpg,,,,,,,,,,,,,,,,,,,,,,,,,,,,,,,,,,,,,,,,,,,,,,,,,,,,,,,,,,,,,,,,,,,,,,,,,,,,,,,,,,,,,,,,,,,,,
024271,001,2022-11-20_23h48.03.818,Info_measure_main_exp,2022.2.2,Linux x86_64,121.3150552,,,,,,,,,,,,,0,4,4,3,1,masks/mask_004.jpg,,,,,,,,,,,,,,,,,,,,,,,,,,,,,,,,,,,,,,,,,,,,,,,,,,,,,,,,,,,,,,,,,,,,,,,,,,,,,,,,,,,,,,,,,,,,,
024271,001,2022-11-20_23h48.03.818,Info_measure_main_exp,2022.2.2,Linux x86_64,121.3150552,,,,,,,,,,,,,,,,,,masks/mask_002.jpg,0,0,0,1,1,,,,,,,,,,,,,,,,,,,,,,,,,,,,,,,,,,,,,,,,,,,,,,,,,,,,,,,,,,,,,,,,,,,,,,,,,,,,,,,,,,,,,,,,
024271,001,2022-11-20_23h48.03.818,Info_measure_main_exp,2022.2.2,Linux x86_64,121.3150552,,,,,,,,,,,,,,,,,,masks/mask_001.jpg,0,1,1,0,1,,,,,,,,,,,,,,,,,,,,,,,,,,,,,,,,,,,,,,,,,,,,,,,,,,,,,,,,,,,,,,,,,,,,,,,,,,,,,,,,,,,,,,,,
024271,001,2022-11-20_23h48.03.818,Info_measure_main_exp,2022.2.2,Linux x86_64,121.3150552,,,,,,,,,,,,,,,,,,masks/mask_004.jpg,0,2,2,3,1,,,,,,,,,,,,,,,,,,,,,,,,,,,,,,,,,,,,,,,,,,,,,,,,,,,,,,,,,,,,,,,,,,,,,,,,,,,,,,,,,,,,,,,,
024271,001,2022-11-20_23h48.03.818,Info_measure_main_exp,2022.2.2,Linux x86_64,121.3150552,,,,,,,,,,,,,,,,,,masks/mask_005.jpg,0,3,3,4,1,,,,,,,,,,,,,,,,,,,,,,,,,,,,,,,,,,,,,,,,,,,,,,,,,,,,,,,,,,,,,,,,,,,,,,,,,,,,,,,,,,,,,,,,
024271,001,2022-11-20_23h48.03.818,Info_measure_main_exp,2022.2.2,Linux x86_64,121.3150552,,,,,,,,,,,,,,,,,,masks/mask_003.jpg,0,4,4,2,1,,,,,,,,,,,,,,,,,,,,,,,,,,,,,,,,,,,,,,,,,,,,,,,,,,,,,,,,,,,,,,,,,,,,,,,,,,,,,,,,,,,,,,,,
024271,001,2022-11-20_23h48.03.818,Info_measure_main_exp,2022.2.2,Linux x86_64,121.3150552,,,,,,,,,,,,,,,,,,,,,,,,0.056481481,0.176851852,1,0,0,response1disk,7,131.3721,1,0.002777778,-0.005555556,1,0,0,center_square,0,2,2,1,1,0,131,5,5,2514,2490,prac_patch/patch0002514.jpg,prac_patch/patch0002490.jpg,,,,,,,,,,,,,,,,,,,,,,,,,,,,,,,,,,,,,,,,,,,,,,,,,,,,,,,,,,,,
024271,001,2022-11-20_23h48.03.818,Info_measure_main_exp,2022.2.2,Linux x86_64,121.3150552,,,,,,,,,,,,,,,,,,,,,,,,,,,,,,,,,,,,,,,,,,,,,,,,,,,,,,,,,,,space,2.7585,,,,,,,,,,,,,,,,,,,,,,,,,,,,,,,,,,,,,,,,,,,,,,,,,,,
024271,001,2022-11-20_23h48.03.818,Info_measure_main_exp,2022.2.2,Linux x86_64,121.3150552,,,,,,,,,,,,,,,,,,masks/mask_001.jpg,,,,,,,,,,,,,,,,,,,,,,,,,,,,,,,,,,,,,,,,,,,0,0,0,0,1,,,,,,,,,,,,,,,,,,,,,,,,,,,,,,,,,,,,,,,,,,,,,,
024271,001,2022-11-20_23h48.03.818,Info_measure_main_exp,2022.2.2,Linux x86_64,121.3150552,,,,,,,,,,,,,,,,,,masks/mask_003.jpg,,,,,,,,,,,,,,,,,,,,,,,,,,,,,,,,,,,,,,,,,,,0,1,1,2,1,,,,,,,,,,,,,,,,,,,,,,,,,,,,,,,,,,,,,,,,,,,,,,
024271,001,2022-11-20_23h48.03.818,Info_measure_main_exp,2022.2.2,Linux x86_64,121.3150552,,,,,,,,,,,,,,,,,,masks/mask_005.jpg,,,,,,,,,,,,,,,,,,,,,,,,,,,,,,,,,,,,,,,,,,,0,2,2,4,1,,,,,,,,,,,,,,,,,,,,,,,,,,,,,,,,,,,,,,,,,,,,,,
024271,001,2022-11-20_23h48.03.818,Info_measure_main_exp,2022.2.2,Linux x86_64,121.3150552,,,,,,,,,,,,,,,,,,masks/mask_004.jpg,,,,,,,,,,,,,,,,,,,,,,,,,,,,,,,,,,,,,,,,,,,0,3,3,3,1,,,,,,,,,,,,,,,,,,,,,,,,,,,,,,,,,,,,,,,,,,,,,,
024271,001,2022-11-20_23h48.03.818,Info_measure_main_exp,2022.2.2,Linux x86_64,121.3150552,,,,,,,,,,,,,,,,,,masks/mask_002.jpg,,,,,,,,,,,,,,,,,,,,,,,,,,,,,,,,,,,,,,,,,,,0,4,4,1,1,,,,,,,,,,,,,,,,,,,,,,,,,,,,,,,,,,,,,,,,,,,,,,
024271,001,2022-11-20_23h48.03.818,Info_measure_main_exp,2022.2.2,Linux x86_64,121.3150552,,,,,,,,,,,,,,,,,,masks/mask_004.jpg,,,,,,,,,,,,,,,,,,,,,,,,,,,,,,,,,,,,,,,,,,,,,,,,0,0,0,3,1,,,,,,,,,,,,,,,,,,,,,,,,,,,,,,,,,,,,,,,,,
024271,001,2022-11-20_23h48.03.818,Info_measure_main_exp,2022.2.2,Linux x86_64,121.3150552,,,,,,,,,,,,,,,,,,masks/mask_005.jpg,,,,,,,,,,,,,,,,,,,,,,,,,,,,,,,,,,,,,,,,,,,,,,,,0,1,1,4,1,,,,,,,,,,,,,,,,,,,,,,,,,,,,,,,,,,,,,,,,,
024271,001,2022-11-20_23h48.03.818,Info_measure_main_exp,2022.2.2,Linux x86_64,121.3150552,,,,,,,,,,,,,,,,,,masks/mask_002.jpg,,,,,,,,,,,,,,,,,,,,,,,,,,,,,,,,,,,,,,,,,,,,,,,,0,2,2,1,1,,,,,,,,,,,,,,,,,,,,,,,,,,,,,,,,,,,,,,,,,
024271,001,2022-11-20_23h48.03.818,Info_measure_main_exp,2022.2.2,Linux x86_64,121.3150552,,,,,,,,,,,,,,,,,,masks/mask_001.jpg,,,,,,,,,,,,,,,,,,,,,,,,,,,,,,,,,,,,,,,,,,,,,,,,0,3,3,0,1,,,,,,,,,,,,,,,,,,,,,,,,,,,,,,,,,,,,,,,,,
024271,001,2022-11-20_23h48.03.818,Info_measure_main_exp,2022.2.2,Linux x86_64,121.3150552,,,,,,,,,,,,,,,,,,masks/mask_003.jpg,,,,,,,,,,,,,,,,,,,,,,,,,,,,,,,,,,,,,,,,,,,,,,,,0,4,4,2,1,,,,,,,,,,,,,,,,,,,,,,,,,,,,,,,,,,,,,,,,,
024271,001,2022-11-20_23h48.03.818,Info_measure_main_exp,2022.2.2,Linux x86_64,121.3150552,,,,,,,,,,,,,,,,,,,,,,,,,,,,,,7,0.5401,1,,,,,,,,,,,,0,131,5,5,2250,2238,absent_patch/patch0002250.jpg,absent_patch/patch0002238.jpg,,,,,,,,,,,,,,,,,,,,0.074074074,0.150925926,1,0,0,response1disk,1,-0.003703704,0.001851852,1,0,0,center_square,0,0,0,110,1,,,,,,,,,,,,,,,,,,,,,,,
024271,001,2022-11-20_23h48.03.818,Info_measure_main_exp,2022.2.2,Linux x86_64,121.3150552,,,,,,,,,,,,,,,,,,masks/mask_001.jpg,,,,,,,,,,,,,,,,,,,,,,,,,,,,,,,,,,,,,,,,,,,0,0,0,0,1,,,,,,,,,,,,,,,,,,,,,,,,,,,,,,,,,,,,,,,,,,,,,,
024271,001,2022-11-20_23h48.03.818,Info_measure_main_exp,2022.2.2,Linux x86_64,121.3150552,,,,,,,,,,,,,,,,,,masks/mask_003.jpg,,,,,,,,,,,,,,,,,,,,,,,,,,,,,,,,,,,,,,,,,,,0,1,1,2,1,,,,,,,,,,,,,,,,,,,,,,,,,,,,,,,,,,,,,,,,,,,,,,
024271,001,2022-11-20_23h48.03.818,Info_measure_main_exp,2022.2.2,Linux x86_64,121.3150552,,,,,,,,,,,,,,,,,,masks/mask_004.jpg,,,,,,,,,,,,,,,,,,,,,,,,,,,,,,,,,,,,,,,,,,,0,2,2,3,1,,,,,,,,,,,,,,,,,,,,,,,,,,,,,,,,,,,,,,,,,,,,,,
024271,001,2022-11-20_23h48.03.818,Info_measure_main_exp,2022.2.2,Linux x86_64,121.3150552,,,,,,,,,,,,,,,,,,masks/mask_002.jpg,,,,,,,,,,,,,,,,,,,,,,,,,,,,,,,,,,,,,,,,,,,0,3,3,1,1,,,,,,,,,,,,,,,,,,,,,,,,,,,,,,,,,,,,,,,,,,,,,,
024271,001,2022-11-20_23h48.03.818,Info_measure_main_exp,2022.2.2,Linux x86_64,121.3150552,,,,,,,,,,,,,,,,,,masks/mask_005.jpg,,,,,,,,,,,,,,,,,,,,,,,,,,,,,,,,,,,,,,,,,,,0,4,4,4,1,,,,,,,,,,,,,,,,,,,,,,,,,,,,,,,,,,,,,,,,,,,,,,
024271,001,2022-11-20_23h48.03.818,Info_measure_main_exp,2022.2.2,Linux x86_64,121.3150552,,,,,,,,,,,,,,,,,,masks/mask_005.jpg,,,,,,,,,,,,,,,,,,,,,,,,,,,,,,,,,,,,,,,,,,,,,,,,0,0,0,4,1,,,,,,,,,,,,,,,,,,,,,,,,,,,,,,,,,,,,,,,,,
024271,001,2022-11-20_23h48.03.818,Info_measure_main_exp,2022.2.2,Linux x86_64,121.3150552,,,,,,,,,,,,,,,,,,masks/mask_003.jpg,,,,,,,,,,,,,,,,,,,,,,,,,,,,,,,,,,,,,,,,,,,,,,,,0,1,1,2,1,,,,,,,,,,,,,,,,,,,,,,,,,,,,,,,,,,,,,,,,,
024271,001,2022-11-20_23h48.03.818,Info_measure_main_exp,2022.2.2,Linux x86_64,121.3150552,,,,,,,,,,,,,,,,,,masks/mask_002.jpg,,,,,,,,,,,,,,,,,,,,,,,,,,,,,,,,,,,,,,,,,,,,,,,,0,2,2,1,1,,,,,,,,,,,,,,,,,,,,,,,,,,,,,,,,,,,,,,,,,
024271,001,2022-11-20_23h48.03.818,Info_measure_main_exp,2022.2.2,Linux x86_64,121.3150552,,,,,,,,,,,,,,,,,,masks/mask_004.jpg,,,,,,,,,,,,,,,,,,,,,,,,,,,,,,,,,,,,,,,,,,,,,,,,0,3,3,3,1,,,,,,,,,,,,,,,,,,,,,,,,,,,,,,,,,,,,,,,,,
024271,001,2022-11-20_23h48.03.818,Info_measure_main_exp,2022.2.2,Linux x86_64,121.3150552,,,,,,,,,,,,,,,,,,masks/mask_001.jpg,,,,,,,,,,,,,,,,,,,,,,,,,,,,,,,,,,,,,,,,,,,,,,,,0,4,4,0,1,,,,,,,,,,,,,,,,,,,,,,,,,,,,,,,,,,,,,,,,,
024271,001,2022-11-20_23h48.03.818,Info_measure_main_exp,2022.2.2,Linux x86_64,121.3150552,,,,,,,,,,,,,,,,,,,,,,,,,,,,,,7,0.7732,1,,,,,,,,,,,,1,131,5,5,2238,1,absent_patch/patch0002238.jpg,present_patch/cong_131_5_a.jpg,,,,,,,,,,,,,,,,,,,,0.069444444,0.17962963,1,0,0,response1disk,2,-0.001851852,0.005555556,1,0,0,center_square,0,1,1,104,1,,,,,,,,,,,,,,,,,,,,,,,
024271,001,2022-11-20_23h48.03.818,Info_measure_main_exp,2022.2.2,Linux x86_64,121.3150552,,,,,,,,,,,,,,,,,,masks/mask_002.jpg,,,,,,,,,,,,,,,,,,,,,,,,,,,,,,,,,,,,,,,,,,,0,0,0,1,1,,,,,,,,,,,,,,,,,,,,,,,,,,,,,,,,,,,,,,,,,,,,,,
024271,001,2022-11-20_23h48.03.818,Info_measure_main_exp,2022.2.2,Linux x86_64,121.3150552,,,,,,,,,,,,,,,,,,masks/mask_005.jpg,,,,,,,,,,,,,,,,,,,,,,,,,,,,,,,,,,,,,,,,,,,0,1,1,4,1,,,,,,,,,,,,,,,,,,,,,,,,,,,,,,,,,,,,,,,,,,,,,,
024271,001,2022-11-20_23h48.03.818,Info_measure_main_exp,2022.2.2,Linux x86_64,121.3150552,,,,,,,,,,,,,,,,,,masks/mask_001.jpg,,,,,,,,,,,,,,,,,,,,,,,,,,,,,,,,,,,,,,,,,,,0,2,2,0,1,,,,,,,,,,,,,,,,,,,,,,,,,,,,,,,,,,,,,,,,,,,,,,
024271,001,2022-11-20_23h48.03.818,Info_measure_main_exp,2022.2.2,Linux x86_64,121.3150552,,,,,,,,,,,,,,,,,,masks/mask_004.jpg,,,,,,,,,,,,,,,,,,,,,,,,,,,,,,,,,,,,,,,,,,,0,3,3,3,1,,,,,,,,,,,,,,,,,,,,,,,,,,,,,,,,,,,,,,,,,,,,,,
024271,001,2022-11-20_23h48.03.818,Info_measure_main_exp,2022.2.2,Linux x86_64,121.3150552,,,,,,,,,,,,,,,,,,masks/mask_003.jpg,,,,,,,,,,,,,,,,,,,,,,,,,,,,,,,,,,,,,,,,,,,0,4,4,2,1,,,,,,,,,,,,,,,,,,,,,,,,,,,,,,,,,,,,,,,,,,,,,,
024271,001,2022-11-20_23h48.03.818,Info_measure_main_exp,2022.2.2,Linux x86_64,121.3150552,,,,,,,,,,,,,,,,,,masks/mask_005.jpg,,,,,,,,,,,,,,,,,,,,,,,,,,,,,,,,,,,,,,,,,,,,,,,,0,0,0,4,1,,,,,,,,,,,,,,,,,,,,,,,,,,,,,,,,,,,,,,,,,
024271,001,2022-11-20_23h48.03.818,Info_measure_main_exp,2022.2.2,Linux x86_64,121.3150552,,,,,,,,,,,,,,,,,,masks/mask_004.jpg,,,,,,,,,,,,,,,,,,,,,,,,,,,,,,,,,,,,,,,,,,,,,,,,0,1,1,3,1,,,,,,,,,,,,,,,,,,,,,,,,,,,,,,,,,,,,,,,,,
024271,001,2022-11-20_23h48.03.818,Info_measure_main_exp,2022.2.2,Linux x86_64,121.3150552,,,,,,,,,,,,,,,,,,masks/mask_002.jpg,,,,,,,,,,,,,,,,,,,,,,,,,,,,,,,,,,,,,,,,,,,,,,,,0,2,2,1,1,,,,,,,,,,,,,,,,,,,,,,,,,,,,,,,,,,,,,,,,,
024271,001,2022-11-20_23h48.03.818,Info_measure_main_exp,2022.2.2,Linux x86_64,121.3150552,,,,,,,,,,,,,,,,,,masks/mask_003.jpg,,,,,,,,,,,,,,,,,,,,,,,,,,,,,,,,,,,,,,,,,,,,,,,,0,3,3,2,1,,,,,,,,,,,,,,,,,,,,,,,,,,,,,,,,,,,,,,,,,
024271,001,2022-11-20_23h48.03.818,Info_measure_main_exp,2022.2.2,Linux x86_64,121.3150552,,,,,,,,,,,,,,,,,,masks/mask_001.jpg,,,,,,,,,,,,,,,,,,,,,,,,,,,,,,,,,,,,,,,,,,,,,,,,0,4,4,0,1,,,,,,,,,,,,,,,,,,,,,,,,,,,,,,,,,,,,,,,,,
024271,001,2022-11-20_23h48.03.818,Info_measure_main_exp,2022.2.2,Linux x86_64,121.3150552,,,,,,,,,,,,,,,,,,,,,,,,,,,,,,0,0.8334,1,,,,,,,,,,,,1,131,5,5,1,1,present_patch/cong_131_5_a.jpg,present_patch/cong_131_5_a.jpg,,,,,,,,,,,,,,,,,,,,-0.050925926,0.177777778,1,0,0,response7disk,3,-0.003703704,0.009259259,1,0,0,center_square,0,2,2,30,1,,,,,,,,,,,,,,,,,,,,,,,
024271,001,2022-11-20_23h48.03.818,Info_measure_main_exp,2022.2.2,Linux x86_64,121.3150552,,,,,,,,,,,,,,,,,,masks/mask_001.jpg,,,,,,,,,,,,,,,,,,,,,,,,,,,,,,,,,,,,,,,,,,,0,0,0,0,1,,,,,,,,,,,,,,,,,,,,,,,,,,,,,,,,,,,,,,,,,,,,,,
024271,001,2022-11-20_23h48.03.818,Info_measure_main_exp,2022.2.2,Linux x86_64,121.3150552,,,,,,,,,,,,,,,,,,masks/mask_005.jpg,,,,,,,,,,,,,,,,,,,,,,,,,,,,,,,,,,,,,,,,,,,0,1,1,4,1,,,,,,,,,,,,,,,,,,,,,,,,,,,,,,,,,,,,,,,,,,,,,,
024271,001,2022-11-20_23h48.03.818,Info_measure_main_exp,2022.2.2,Linux x86_64,121.3150552,,,,,,,,,,,,,,,,,,masks/mask_004.jpg,,,,,,,,,,,,,,,,,,,,,,,,,,,,,,,,,,,,,,,,,,,0,2,2,3,1,,,,,,,,,,,,,,,,,,,,,,,,,,,,,,,,,,,,,,,,,,,,,,
024271,001,2022-11-20_23h48.03.818,Info_measure_main_exp,2022.2.2,Linux x86_64,121.3150552,,,,,,,,,,,,,,,,,,masks/mask_003.jpg,,,,,,,,,,,,,,,,,,,,,,,,,,,,,,,,,,,,,,,,,,,0,3,3,2,1,,,,,,,,,,,,,,,,,,,,,,,,,,,,,,,,,,,,,,,,,,,,,,
024271,001,2022-11-20_23h48.03.818,Info_measure_main_exp,2022.2.2,Linux x86_64,121.3150552,,,,,,,,,,,,,,,,,,masks/mask_002.jpg,,,,,,,,,,,,,,,,,,,,,,,,,,,,,,,,,,,,,,,,,,,0,4,4,1,1,,,,,,,,,,,,,,,,,,,,,,,,,,,,,,,,,,,,,,,,,,,,,,
024271,001,2022-11-20_23h48.03.818,Info_measure_main_exp,2022.2.2,Linux x86_64,121.3150552,,,,,,,,,,,,,,,,,,masks/mask_005.jpg,,,,,,,,,,,,,,,,,,,,,,,,,,,,,,,,,,,,,,,,,,,,,,,,0,0,0,4,1,,,,,,,,,,,,,,,,,,,,,,,,,,,,,,,,,,,,,,,,,
024271,001,2022-11-20_23h48.03.818,Info_measure_main_exp,2022.2.2,Linux x86_64,121.3150552,,,,,,,,,,,,,,,,,,masks/mask_003.jpg,,,,,,,,,,,,,,,,,,,,,,,,,,,,,,,,,,,,,,,,,,,,,,,,0,1,1,2,1,,,,,,,,,,,,,,,,,,,,,,,,,,,,,,,,,,,,,,,,,
024271,001,2022-11-20_23h48.03.818,Info_measure_main_exp,2022.2.2,Linux x86_64,121.3150552,,,,,,,,,,,,,,,,,,masks/mask_004.jpg,,,,,,,,,,,,,,,,,,,,,,,,,,,,,,,,,,,,,,,,,,,,,,,,0,2,2,3,1,,,,,,,,,,,,,,,,,,,,,,,,,,,,,,,,,,,,,,,,,
024271,001,2022-11-20_23h48.03.818,Info_measure_main_exp,2022.2.2,Linux x86_64,121.3150552,,,,,,,,,,,,,,,,,,masks/mask_001.jpg,,,,,,,,,,,,,,,,,,,,,,,,,,,,,,,,,,,,,,,,,,,,,,,,0,3,3,0,1,,,,,,,,,,,,,,,,,,,,,,,,,,,,,,,,,,,,,,,,,
024271,001,2022-11-20_23h48.03.818,Info_measure_main_exp,2022.2.2,Linux x86_64,121.3150552,,,,,,,,,,,,,,,,,,masks/mask_002.jpg,,,,,,,,,,,,,,,,,,,,,,,,,,,,,,,,,,,,,,,,,,,,,,,,0,4,4,1,1,,,,,,,,,,,,,,,,,,,,,,,,,,,,,,,,,,,,,,,,,
024271,001,2022-11-20_23h48.03.818,Info_measure_main_exp,2022.2.2,Linux x86_64,121.3150552,,,,,,,,,,,,,,,,,,,,,,,,,,,,,,0,0.5527,1,,,,,,,,,,,,0,131,5,5,1986,1986,absent_patch/patch0001986.jpg,absent_patch/patch0001986.jpg,,,,,,,,,,,,,,,,,,,,-0.113888889,0.15,1,0,0,response7disk,4,0.001851852,0.013888889,1,0,0,center_square,0,3,3,19,1,,,,,,,,,,,,,,,,,,,,,,,
024271,001,2022-11-20_23h48.03.818,Info_measure_main_exp,2022.2.2,Linux x86_64,121.3150552,,,,,,,,,,,,,,,,,,masks/mask_002.jpg,,,,,,,,,,,,,,,,,,,,,,,,,,,,,,,,,,,,,,,,,,,0,0,0,1,1,,,,,,,,,,,,,,,,,,,,,,,,,,,,,,,,,,,,,,,,,,,,,,
024271,001,2022-11-20_23h48.03.818,Info_measure_main_exp,2022.2.2,Linux x86_64,121.3150552,,,,,,,,,,,,,,,,,,masks/mask_003.jpg,,,,,,,,,,,,,,,,,,,,,,,,,,,,,,,,,,,,,,,,,,,0,1,1,2,1,,,,,,,,,,,,,,,,,,,,,,,,,,,,,,,,,,,,,,,,,,,,,,
024271,001,2022-11-20_23h48.03.818,Info_measure_main_exp,2022.2.2,Linux x86_64,121.3150552,,,,,,,,,,,,,,,,,,masks/mask_005.jpg,,,,,,,,,,,,,,,,,,,,,,,,,,,,,,,,,,,,,,,,,,,0,2,2,4,1,,,,,,,,,,,,,,,,,,,,,,,,,,,,,,,,,,,,,,,,,,,,,,
024271,001,2022-11-20_23h48.03.818,Info_measure_main_exp,2022.2.2,Linux x86_64,121.3150552,,,,,,,,,,,,,,,,,,masks/mask_001.jpg,,,,,,,,,,,,,,,,,,,,,,,,,,,,,,,,,,,,,,,,,,,0,3,3,0,1,,,,,,,,,,,,,,,,,,,,,,,,,,,,,,,,,,,,,,,,,,,,,,
024271,001,2022-11-20_23h48.03.818,Info_measure_main_exp,2022.2.2,Linux x86_64,121.3150552,,,,,,,,,,,,,,,,,,masks/mask_004.jpg,,,,,,,,,,,,,,,,,,,,,,,,,,,,,,,,,,,,,,,,,,,0,4,4,3,1,,,,,,,,,,,,,,,,,,,,,,,,,,,,,,,,,,,,,,,,,,,,,,
024271,001,2022-11-20_23h48.03.818,Info_measure_main_exp,2022.2.2,Linux x86_64,121.3150552,,,,,,,,,,,,,,,,,,masks/mask_005.jpg,,,,,,,,,,,,,,,,,,,,,,,,,,,,,,,,,,,,,,,,,,,,,,,,0,0,0,4,1,,,,,,,,,,,,,,,,,,,,,,,,,,,,,,,,,,,,,,,,,
024271,001,2022-11-20_23h48.03.818,Info_measure_main_exp,2022.2.2,Linux x86_64,121.3150552,,,,,,,,,,,,,,,,,,masks/mask_001.jpg,,,,,,,,,,,,,,,,,,,,,,,,,,,,,,,,,,,,,,,,,,,,,,,,0,1,1,0,1,,,,,,,,,,,,,,,,,,,,,,,,,,,,,,,,,,,,,,,,,
024271,001,2022-11-20_23h48.03.818,Info_measure_main_exp,2022.2.2,Linux x86_64,121.3150552,,,,,,,,,,,,,,,,,,masks/mask_002.jpg,,,,,,,,,,,,,,,,,,,,,,,,,,,,,,,,,,,,,,,,,,,,,,,,0,2,2,1,1,,,,,,,,,,,,,,,,,,,,,,,,,,,,,,,,,,,,,,,,,
024271,001,2022-11-20_23h48.03.818,Info_measure_main_exp,2022.2.2,Linux x86_64,121.3150552,,,,,,,,,,,,,,,,,,masks/mask_003.jpg,,,,,,,,,,,,,,,,,,,,,,,,,,,,,,,,,,,,,,,,,,,,,,,,0,3,3,2,1,,,,,,,,,,,,,,,,,,,,,,,,,,,,,,,,,,,,,,,,,
024271,001,2022-11-20_23h48.03.818,Info_measure_main_exp,2022.2.2,Linux x86_64,121.3150552,,,,,,,,,,,,,,,,,,masks/mask_004.jpg,,,,,,,,,,,,,,,,,,,,,,,,,,,,,,,,,,,,,,,,,,,,,,,,0,4,4,3,1,,,,,,,,,,,,,,,,,,,,,,,,,,,,,,,,,,,,,,,,,
024271,001,2022-11-20_23h48.03.818,Info_measure_main_exp,2022.2.2,Linux x86_64,121.3150552,,,,,,,,,,,,,,,,,,,,,,,,,,,,,,7,0.6557,1,,,,,,,,,,,,0,131,5,5,2250,2166,absent_patch/patch0002250.jpg,absent_patch/patch0002166.jpg,,,,,,,,,,,,,,,,,,,,0.12037037,0.173148148,1,0,0,response1disk,5,-0.006481481,0.002777778,1,0,0,center_square,0,4,4,60,1,,,,,,,,,,,,,,,,,,,,,,,
024271,001,2022-11-20_23h48.03.818,Info_measure_main_exp,2022.2.2,Linux x86_64,121.3150552,,,,,,,,,,,,,,,,,,masks/mask_003.jpg,,,,,,,,,,,,,,,,,,,,,,,,,,,,,,,,,,,,,,,,,,,0,0,0,2,1,,,,,,,,,,,,,,,,,,,,,,,,,,,,,,,,,,,,,,,,,,,,,,
024271,001,2022-11-20_23h48.03.818,Info_measure_main_exp,2022.2.2,Linux x86_64,121.3150552,,,,,,,,,,,,,,,,,,masks/mask_004.jpg,,,,,,,,,,,,,,,,,,,,,,,,,,,,,,,,,,,,,,,,,,,0,1,1,3,1,,,,,,,,,,,,,,,,,,,,,,,,,,,,,,,,,,,,,,,,,,,,,,
024271,001,2022-11-20_23h48.03.818,Info_measure_main_exp,2022.2.2,Linux x86_64,121.3150552,,,,,,,,,,,,,,,,,,masks/mask_005.jpg,,,,,,,,,,,,,,,,,,,,,,,,,,,,,,,,,,,,,,,,,,,0,2,2,4,1,,,,,,,,,,,,,,,,,,,,,,,,,,,,,,,,,,,,,,,,,,,,,,
024271,001,2022-11-20_23h48.03.818,Info_measure_main_exp,2022.2.2,Linux x86_64,121.3150552,,,,,,,,,,,,,,,,,,masks/mask_001.jpg,,,,,,,,,,,,,,,,,,,,,,,,,,,,,,,,,,,,,,,,,,,0,3,3,0,1,,,,,,,,,,,,,,,,,,,,,,,,,,,,,,,,,,,,,,,,,,,,,,
024271,001,2022-11-20_23h48.03.818,Info_measure_main_exp,2022.2.2,Linux x86_64,121.3150552,,,,,,,,,,,,,,,,,,masks/mask_002.jpg,,,,,,,,,,,,,,,,,,,,,,,,,,,,,,,,,,,,,,,,,,,0,4,4,1,1,,,,,,,,,,,,,,,,,,,,,,,,,,,,,,,,,,,,,,,,,,,,,,
024271,001,2022-11-20_23h48.03.818,Info_measure_main_exp,2022.2.2,Linux x86_64,121.3150552,,,,,,,,,,,,,,,,,,masks/mask_004.jpg,,,,,,,,,,,,,,,,,,,,,,,,,,,,,,,,,,,,,,,,,,,,,,,,0,0,0,3,1,,,,,,,,,,,,,,,,,,,,,,,,,,,,,,,,,,,,,,,,,
024271,001,2022-11-20_23h48.03.818,Info_measure_main_exp,2022.2.2,Linux x86_64,121.3150552,,,,,,,,,,,,,,,,,,masks/mask_003.jpg,,,,,,,,,,,,,,,,,,,,,,,,,,,,,,,,,,,,,,,,,,,,,,,,0,1,1,2,1,,,,,,,,,,,,,,,,,,,,,,,,,,,,,,,,,,,,,,,,,
024271,001,2022-11-20_23h48.03.818,Info_measure_main_exp,2022.2.2,Linux x86_64,121.3150552,,,,,,,,,,,,,,,,,,masks/mask_005.jpg,,,,,,,,,,,,,,,,,,,,,,,,,,,,,,,,,,,,,,,,,,,,,,,,0,2,2,4,1,,,,,,,,,,,,,,,,,,,,,,,,,,,,,,,,,,,,,,,,,
024271,001,2022-11-20_23h48.03.818,Info_measure_main_exp,2022.2.2,Linux x86_64,121.3150552,,,,,,,,,,,,,,,,,,masks/mask_001.jpg,,,,,,,,,,,,,,,,,,,,,,,,,,,,,,,,,,,,,,,,,,,,,,,,0,3,3,0,1,,,,,,,,,,,,,,,,,,,,,,,,,,,,,,,,,,,,,,,,,
024271,001,2022-11-20_23h48.03.818,Info_measure_main_exp,2022.2.2,Linux x86_64,121.3150552,,,,,,,,,,,,,,,,,,masks/mask_002.jpg,,,,,,,,,,,,,,,,,,,,,,,,,,,,,,,,,,,,,,,,,,,,,,,,0,4,4,1,1,,,,,,,,,,,,,,,,,,,,,,,,,,,,,,,,,,,,,,,,,
024271,001,2022-11-20_23h48.03.818,Info_measure_main_exp,2022.2.2,Linux x86_64,121.3150552,,,,,,,,,,,,,,,,,,,,,,,,,,,,,,7,0.6874,1,,,,,,,,,,,,0,131,5,5,2238,2214,absent_patch/patch0002238.jpg,absent_patch/patch0002214.jpg,,,,,,,,,,,,,,,,,,,,0.018518519,0.094444444,1,0,0,response1disk,6,-0.010185185,0.006481481,1,0,0,center_square,0,5,5,81,1,,,,,,,,,,,,,,,,,,,,,,,
024271,001,2022-11-20_23h48.03.818,Info_measure_main_exp,2022.2.2,Linux x86_64,121.3150552,,,,,,,,,,,,,,,,,,masks/mask_001.jpg,,,,,,,,,,,,,,,,,,,,,,,,,,,,,,,,,,,,,,,,,,,0,0,0,0,1,,,,,,,,,,,,,,,,,,,,,,,,,,,,,,,,,,,,,,,,,,,,,,
024271,001,2022-11-20_23h48.03.818,Info_measure_main_exp,2022.2.2,Linux x86_64,121.3150552,,,,,,,,,,,,,,,,,,masks/mask_004.jpg,,,,,,,,,,,,,,,,,,,,,,,,,,,,,,,,,,,,,,,,,,,0,1,1,3,1,,,,,,,,,,,,,,,,,,,,,,,,,,,,,,,,,,,,,,,,,,,,,,
024271,001,2022-11-20_23h48.03.818,Info_measure_main_exp,2022.2.2,Linux x86_64,121.3150552,,,,,,,,,,,,,,,,,,masks/mask_003.jpg,,,,,,,,,,,,,,,,,,,,,,,,,,,,,,,,,,,,,,,,,,,0,2,2,2,1,,,,,,,,,,,,,,,,,,,,,,,,,,,,,,,,,,,,,,,,,,,,,,
024271,001,2022-11-20_23h48.03.818,Info_measure_main_exp,2022.2.2,Linux x86_64,121.3150552,,,,,,,,,,,,,,,,,,masks/mask_002.jpg,,,,,,,,,,,,,,,,,,,,,,,,,,,,,,,,,,,,,,,,,,,0,3,3,1,1,,,,,,,,,,,,,,,,,,,,,,,,,,,,,,,,,,,,,,,,,,,,,,
024271,001,2022-11-20_23h48.03.818,Info_measure_main_exp,2022.2.2,Linux x86_64,121.3150552,,,,,,,,,,,,,,,,,,masks/mask_005.jpg,,,,,,,,,,,,,,,,,,,,,,,,,,,,,,,,,,,,,,,,,,,0,4,4,4,1,,,,,,,,,,,,,,,,,,,,,,,,,,,,,,,,,,,,,,,,,,,,,,
024271,001,2022-11-20_23h48.03.818,Info_measure_main_exp,2022.2.2,Linux x86_64,121.3150552,,,,,,,,,,,,,,,,,,masks/mask_002.jpg,,,,,,,,,,,,,,,,,,,,,,,,,,,,,,,,,,,,,,,,,,,,,,,,0,0,0,1,1,,,,,,,,,,,,,,,,,,,,,,,,,,,,,,,,,,,,,,,,,
024271,001,2022-11-20_23h48.03.818,Info_measure_main_exp,2022.2.2,Linux x86_64,121.3150552,,,,,,,,,,,,,,,,,,masks/mask_004.jpg,,,,,,,,,,,,,,,,,,,,,,,,,,,,,,,,,,,,,,,,,,,,,,,,0,1,1,3,1,,,,,,,,,,,,,,,,,,,,,,,,,,,,,,,,,,,,,,,,,
024271,001,2022-11-20_23h48.03.818,Info_measure_main_exp,2022.2.2,Linux x86_64,121.3150552,,,,,,,,,,,,,,,,,,masks/mask_003.jpg,,,,,,,,,,,,,,,,,,,,,,,,,,,,,,,,,,,,,,,,,,,,,,,,0,2,2,2,1,,,,,,,,,,,,,,,,,,,,,,,,,,,,,,,,,,,,,,,,,
024271,001,2022-11-20_23h48.03.818,Info_measure_main_exp,2022.2.2,Linux x86_64,121.3150552,,,,,,,,,,,,,,,,,,masks/mask_001.jpg,,,,,,,,,,,,,,,,,,,,,,,,,,,,,,,,,,,,,,,,,,,,,,,,0,3,3,0,1,,,,,,,,,,,,,,,,,,,,,,,,,,,,,,,,,,,,,,,,,
024271,001,2022-11-20_23h48.03.818,Info_measure_main_exp,2022.2.2,Linux x86_64,121.3150552,,,,,,,,,,,,,,,,,,masks/mask_005.jpg,,,,,,,,,,,,,,,,,,,,,,,,,,,,,,,,,,,,,,,,,,,,,,,,0,4,4,4,1,,,,,,,,,,,,,,,,,,,,,,,,,,,,,,,,,,,,,,,,,
024271,001,2022-11-20_23h48.03.818,Info_measure_main_exp,2022.2.2,Linux x86_64,121.3150552,,,,,,,,,,,,,,,,,,,,,,,,,,,,,,7,1.1574,1,,,,,,,,,,,,0,131,5,5,1986,2238,absent_patch/patch0001986.jpg,absent_patch/patch0002238.jpg,,,,,,,,,,,,,,,,,,,,0.099074074,0.141666667,1,0,0,response1disk,7,-0.012037037,0.011111111,1,0,0,center_square,0,6,6,31,1,,,,,,,,,,,,,,,,,,,,,,,
024271,001,2022-11-20_23h48.03.818,Info_measure_main_exp,2022.2.2,Linux x86_64,121.3150552,,,,,,,,,,,,,,,,,,masks/mask_005.jpg,,,,,,,,,,,,,,,,,,,,,,,,,,,,,,,,,,,,,,,,,,,0,0,0,4,1,,,,,,,,,,,,,,,,,,,,,,,,,,,,,,,,,,,,,,,,,,,,,,
024271,001,2022-11-20_23h48.03.818,Info_measure_main_exp,2022.2.2,Linux x86_64,121.3150552,,,,,,,,,,,,,,,,,,masks/mask_001.jpg,,,,,,,,,,,,,,,,,,,,,,,,,,,,,,,,,,,,,,,,,,,0,1,1,0,1,,,,,,,,,,,,,,,,,,,,,,,,,,,,,,,,,,,,,,,,,,,,,,
024271,001,2022-11-20_23h48.03.818,Info_measure_main_exp,2022.2.2,Linux x86_64,121.3150552,,,,,,,,,,,,,,,,,,masks/mask_004.jpg,,,,,,,,,,,,,,,,,,,,,,,,,,,,,,,,,,,,,,,,,,,0,2,2,3,1,,,,,,,,,,,,,,,,,,,,,,,,,,,,,,,,,,,,,,,,,,,,,,
024271,001,2022-11-20_23h48.03.818,Info_measure_main_exp,2022.2.2,Linux x86_64,121.3150552,,,,,,,,,,,,,,,,,,masks/mask_003.jpg,,,,,,,,,,,,,,,,,,,,,,,,,,,,,,,,,,,,,,,,,,,0,3,3,2,1,,,,,,,,,,,,,,,,,,,,,,,,,,,,,,,,,,,,,,,,,,,,,,
024271,001,2022-11-20_23h48.03.818,Info_measure_main_exp,2022.2.2,Linux x86_64,121.3150552,,,,,,,,,,,,,,,,,,masks/mask_002.jpg,,,,,,,,,,,,,,,,,,,,,,,,,,,,,,,,,,,,,,,,,,,0,4,4,1,1,,,,,,,,,,,,,,,,,,,,,,,,,,,,,,,,,,,,,,,,,,,,,,
024271,001,2022-11-20_23h48.03.818,Info_measure_main_exp,2022.2.2,Linux x86_64,121.3150552,,,,,,,,,,,,,,,,,,masks/mask_001.jpg,,,,,,,,,,,,,,,,,,,,,,,,,,,,,,,,,,,,,,,,,,,,,,,,0,0,0,0,1,,,,,,,,,,,,,,,,,,,,,,,,,,,,,,,,,,,,,,,,,
024271,001,2022-11-20_23h48.03.818,Info_measure_main_exp,2022.2.2,Linux x86_64,121.3150552,,,,,,,,,,,,,,,,,,masks/mask_005.jpg,,,,,,,,,,,,,,,,,,,,,,,,,,,,,,,,,,,,,,,,,,,,,,,,0,1,1,4,1,,,,,,,,,,,,,,,,,,,,,,,,,,,,,,,,,,,,,,,,,
024271,001,2022-11-20_23h48.03.818,Info_measure_main_exp,2022.2.2,Linux x86_64,121.3150552,,,,,,,,,,,,,,,,,,masks/mask_003.jpg,,,,,,,,,,,,,,,,,,,,,,,,,,,,,,,,,,,,,,,,,,,,,,,,0,2,2,2,1,,,,,,,,,,,,,,,,,,,,,,,,,,,,,,,,,,,,,,,,,
024271,001,2022-11-20_23h48.03.818,Info_measure_main_exp,2022.2.2,Linux x86_64,121.3150552,,,,,,,,,,,,,,,,,,masks/mask_004.jpg,,,,,,,,,,,,,,,,,,,,,,,,,,,,,,,,,,,,,,,,,,,,,,,,0,3,3,3,1,,,,,,,,,,,,,,,,,,,,,,,,,,,,,,,,,,,,,,,,,
024271,001,2022-11-20_23h48.03.818,Info_measure_main_exp,2022.2.2,Linux x86_64,121.3150552,,,,,,,,,,,,,,,,,,masks/mask_002.jpg,,,,,,,,,,,,,,,,,,,,,,,,,,,,,,,,,,,,,,,,,,,,,,,,0,4,4,1,1,,,,,,,,,,,,,,,,,,,,,,,,,,,,,,,,,,,,,,,,,
024271,001,2022-11-20_23h48.03.818,Info_measure_main_exp,2022.2.2,Linux x86_64,121.3150552,,,,,,,,,,,,,,,,,,,,,,,,,,,,,,7,0.5985,1,,,,,,,,,,,,1,131,5,5,2250,1,absent_patch/patch0002250.jpg,present_patch/cong_131_5_a.jpg,,,,,,,,,,,,,,,,,,,,0.041666667,0.076851852,1,0,0,response1disk,8,-0.000925926,-0.000925926,1,0,0,center_square,0,7,7,5,1,,,,,,,,,,,,,,,,,,,,,,,
024271,001,2022-11-20_23h48.03.818,Info_measure_main_exp,2022.2.2,Linux x86_64,121.3150552,,,,,,,,,,,,,,,,,,masks/mask_005.jpg,,,,,,,,,,,,,,,,,,,,,,,,,,,,,,,,,,,,,,,,,,,0,0,0,4,1,,,,,,,,,,,,,,,,,,,,,,,,,,,,,,,,,,,,,,,,,,,,,,
024271,001,2022-11-20_23h48.03.818,Info_measure_main_exp,2022.2.2,Linux x86_64,121.3150552,,,,,,,,,,,,,,,,,,masks/mask_003.jpg,,,,,,,,,,,,,,,,,,,,,,,,,,,,,,,,,,,,,,,,,,,0,1,1,2,1,,,,,,,,,,,,,,,,,,,,,,,,,,,,,,,,,,,,,,,,,,,,,,
024271,001,2022-11-20_23h48.03.818,Info_measure_main_exp,2022.2.2,Linux x86_64,121.3150552,,,,,,,,,,,,,,,,,,masks/mask_002.jpg,,,,,,,,,,,,,,,,,,,,,,,,,,,,,,,,,,,,,,,,,,,0,2,2,1,1,,,,,,,,,,,,,,,,,,,,,,,,,,,,,,,,,,,,,,,,,,,,,,
024271,001,2022-11-20_23h48.03.818,Info_measure_main_exp,2022.2.2,Linux x86_64,121.3150552,,,,,,,,,,,,,,,,,,masks/mask_004.jpg,,,,,,,,,,,,,,,,,,,,,,,,,,,,,,,,,,,,,,,,,,,0,3,3,3,1,,,,,,,,,,,,,,,,,,,,,,,,,,,,,,,,,,,,,,,,,,,,,,
024271,001,2022-11-20_23h48.03.818,Info_measure_main_exp,2022.2.2,Linux x86_64,121.3150552,,,,,,,,,,,,,,,,,,masks/mask_001.jpg,,,,,,,,,,,,,,,,,,,,,,,,,,,,,,,,,,,,,,,,,,,0,4,4,0,1,,,,,,,,,,,,,,,,,,,,,,,,,,,,,,,,,,,,,,,,,,,,,,
024271,001,2022-11-20_23h48.03.818,Info_measure_main_exp,2022.2.2,Linux x86_64,121.3150552,,,,,,,,,,,,,,,,,,masks/mask_004.jpg,,,,,,,,,,,,,,,,,,,,,,,,,,,,,,,,,,,,,,,,,,,,,,,,0,0,0,3,1,,,,,,,,,,,,,,,,,,,,,,,,,,,,,,,,,,,,,,,,,
024271,001,2022-11-20_23h48.03.818,Info_measure_main_exp,2022.2.2,Linux x86_64,121.3150552,,,,,,,,,,,,,,,,,,masks/mask_001.jpg,,,,,,,,,,,,,,,,,,,,,,,,,,,,,,,,,,,,,,,,,,,,,,,,0,1,1,0,1,,,,,,,,,,,,,,,,,,,,,,,,,,,,,,,,,,,,,,,,,
024271,001,2022-11-20_23h48.03.818,Info_measure_main_exp,2022.2.2,Linux x86_64,121.3150552,,,,,,,,,,,,,,,,,,masks/mask_003.jpg,,,,,,,,,,,,,,,,,,,,,,,,,,,,,,,,,,,,,,,,,,,,,,,,0,2,2,2,1,,,,,,,,,,,,,,,,,,,,,,,,,,,,,,,,,,,,,,,,,
024271,001,2022-11-20_23h48.03.818,Info_measure_main_exp,2022.2.2,Linux x86_64,121.3150552,,,,,,,,,,,,,,,,,,masks/mask_005.jpg,,,,,,,,,,,,,,,,,,,,,,,,,,,,,,,,,,,,,,,,,,,,,,,,0,3,3,4,1,,,,,,,,,,,,,,,,,,,,,,,,,,,,,,,,,,,,,,,,,
024271,001,2022-11-20_23h48.03.818,Info_measure_main_exp,2022.2.2,Linux x86_64,121.3150552,,,,,,,,,,,,,,,,,,masks/mask_002.jpg,,,,,,,,,,,,,,,,,,,,,,,,,,,,,,,,,,,,,,,,,,,,,,,,0,4,4,1,1,,,,,,,,,,,,,,,,,,,,,,,,,,,,,,,,,,,,,,,,,
024271,001,2022-11-20_23h48.03.818,Info_measure_main_exp,2022.2.2,Linux x86_64,121.3150552,,,,,,,,,,,,,,,,,,,,,,,,,,,,,,7,1.6725,1,,,,,,,,,,,,0,131,5,5,2082,2154,absent_patch/patch0002082.jpg,absent_patch/patch0002154.jpg,,,,,,,,,,,,,,,,,,,,0.023148148,0.112037037,1,0,0,response1disk,9,-0.003703704,-0.001851852,1,0,0,center_square,0,8,8,33,1,,,,,,,,,,,,,,,,,,,,,,,
024271,001,2022-11-20_23h48.03.818,Info_measure_main_exp,2022.2.2,Linux x86_64,121.3150552,,,,,,,,,,,,,,,,,,masks/mask_003.jpg,,,,,,,,,,,,,,,,,,,,,,,,,,,,,,,,,,,,,,,,,,,0,0,0,2,1,,,,,,,,,,,,,,,,,,,,,,,,,,,,,,,,,,,,,,,,,,,,,,
024271,001,2022-11-20_23h48.03.818,Info_measure_main_exp,2022.2.2,Linux x86_64,121.3150552,,,,,,,,,,,,,,,,,,masks/mask_005.jpg,,,,,,,,,,,,,,,,,,,,,,,,,,,,,,,,,,,,,,,,,,,0,1,1,4,1,,,,,,,,,,,,,,,,,,,,,,,,,,,,,,,,,,,,,,,,,,,,,,
024271,001,2022-11-20_23h48.03.818,Info_measure_main_exp,2022.2.2,Linux x86_64,121.3150552,,,,,,,,,,,,,,,,,,masks/mask_004.jpg,,,,,,,,,,,,,,,,,,,,,,,,,,,,,,,,,,,,,,,,,,,0,2,2,3,1,,,,,,,,,,,,,,,,,,,,,,,,,,,,,,,,,,,,,,,,,,,,,,
024271,001,2022-11-20_23h48.03.818,Info_measure_main_exp,2022.2.2,Linux x86_64,121.3150552,,,,,,,,,,,,,,,,,,masks/mask_001.jpg,,,,,,,,,,,,,,,,,,,,,,,,,,,,,,,,,,,,,,,,,,,0,3,3,0,1,,,,,,,,,,,,,,,,,,,,,,,,,,,,,,,,,,,,,,,,,,,,,,
024271,001,2022-11-20_23h48.03.818,Info_measure_main_exp,2022.2.2,Linux x86_64,121.3150552,,,,,,,,,,,,,,,,,,masks/mask_002.jpg,,,,,,,,,,,,,,,,,,,,,,,,,,,,,,,,,,,,,,,,,,,0,4,4,1,1,,,,,,,,,,,,,,,,,,,,,,,,,,,,,,,,,,,,,,,,,,,,,,
024271,001,2022-11-20_23h48.03.818,Info_measure_main_exp,2022.2.2,Linux x86_64,121.3150552,,,,,,,,,,,,,,,,,,masks/mask_005.jpg,,,,,,,,,,,,,,,,,,,,,,,,,,,,,,,,,,,,,,,,,,,,,,,,0,0,0,4,1,,,,,,,,,,,,,,,,,,,,,,,,,,,,,,,,,,,,,,,,,
024271,001,2022-11-20_23h48.03.818,Info_measure_main_exp,2022.2.2,Linux x86_64,121.3150552,,,,,,,,,,,,,,,,,,masks/mask_002.jpg,,,,,,,,,,,,,,,,,,,,,,,,,,,,,,,,,,,,,,,,,,,,,,,,0,1,1,1,1,,,,,,,,,,,,,,,,,,,,,,,,,,,,,,,,,,,,,,,,,
024271,001,2022-11-20_23h48.03.818,Info_measure_main_exp,2022.2.2,Linux x86_64,121.3150552,,,,,,,,,,,,,,,,,,masks/mask_003.jpg,,,,,,,,,,,,,,,,,,,,,,,,,,,,,,,,,,,,,,,,,,,,,,,,0,2,2,2,1,,,,,,,,,,,,,,,,,,,,,,,,,,,,,,,,,,,,,,,,,
024271,001,2022-11-20_23h48.03.818,Info_measure_main_exp,2022.2.2,Linux x86_64,121.3150552,,,,,,,,,,,,,,,,,,masks/mask_001.jpg,,,,,,,,,,,,,,,,,,,,,,,,,,,,,,,,,,,,,,,,,,,,,,,,0,3,3,0,1,,,,,,,,,,,,,,,,,,,,,,,,,,,,,,,,,,,,,,,,,
024271,001,2022-11-20_23h48.03.818,Info_measure_main_exp,2022.2.2,Linux x86_64,121.3150552,,,,,,,,,,,,,,,,,,masks/mask_004.jpg,,,,,,,,,,,,,,,,,,,,,,,,,,,,,,,,,,,,,,,,,,,,,,,,0,4,4,3,1,,,,,,,,,,,,,,,,,,,,,,,,,,,,,,,,,,,,,,,,,
024271,001,2022-11-20_23h48.03.818,Info_measure_main_exp,2022.2.2,Linux x86_64,121.3150552,,,,,,,,,,,,,,,,,,,,,,,,,,,,,,7,0.6891,1,,,,,,,,,,,,0,131,5,5,2154,1950,absent_patch/patch0002154.jpg,absent_patch/patch0001950.jpg,,,,,,,,,,,,,,,,,,,,0.038888889,0.063888889,1,0,0,response1disk,10,-0.012037037,-0.002777778,1,0,0,center_square,0,9,9,96,1,,,,,,,,,,,,,,,,,,,,,,,
024271,001,2022-11-20_23h48.03.818,Info_measure_main_exp,2022.2.2,Linux x86_64,121.3150552,,,,,,,,,,,,,,,,,,masks/mask_001.jpg,,,,,,,,,,,,,,,,,,,,,,,,,,,,,,,,,,,,,,,,,,,0,0,0,0,1,,,,,,,,,,,,,,,,,,,,,,,,,,,,,,,,,,,,,,,,,,,,,,
024271,001,2022-11-20_23h48.03.818,Info_measure_main_exp,2022.2.2,Linux x86_64,121.3150552,,,,,,,,,,,,,,,,,,masks/mask_002.jpg,,,,,,,,,,,,,,,,,,,,,,,,,,,,,,,,,,,,,,,,,,,0,1,1,1,1,,,,,,,,,,,,,,,,,,,,,,,,,,,,,,,,,,,,,,,,,,,,,,
024271,001,2022-11-20_23h48.03.818,Info_measure_main_exp,2022.2.2,Linux x86_64,121.3150552,,,,,,,,,,,,,,,,,,masks/mask_003.jpg,,,,,,,,,,,,,,,,,,,,,,,,,,,,,,,,,,,,,,,,,,,0,2,2,2,1,,,,,,,,,,,,,,,,,,,,,,,,,,,,,,,,,,,,,,,,,,,,,,
024271,001,2022-11-20_23h48.03.818,Info_measure_main_exp,2022.2.2,Linux x86_64,121.3150552,,,,,,,,,,,,,,,,,,masks/mask_005.jpg,,,,,,,,,,,,,,,,,,,,,,,,,,,,,,,,,,,,,,,,,,,0,3,3,4,1,,,,,,,,,,,,,,,,,,,,,,,,,,,,,,,,,,,,,,,,,,,,,,
024271,001,2022-11-20_23h48.03.818,Info_measure_main_exp,2022.2.2,Linux x86_64,121.3150552,,,,,,,,,,,,,,,,,,masks/mask_004.jpg,,,,,,,,,,,,,,,,,,,,,,,,,,,,,,,,,,,,,,,,,,,0,4,4,3,1,,,,,,,,,,,,,,,,,,,,,,,,,,,,,,,,,,,,,,,,,,,,,,
024271,001,2022-11-20_23h48.03.818,Info_measure_main_exp,2022.2.2,Linux x86_64,121.3150552,,,,,,,,,,,,,,,,,,masks/mask_002.jpg,,,,,,,,,,,,,,,,,,,,,,,,,,,,,,,,,,,,,,,,,,,,,,,,0,0,0,1,1,,,,,,,,,,,,,,,,,,,,,,,,,,,,,,,,,,,,,,,,,
024271,001,2022-11-20_23h48.03.818,Info_measure_main_exp,2022.2.2,Linux x86_64,121.3150552,,,,,,,,,,,,,,,,,,masks/mask_005.jpg,,,,,,,,,,,,,,,,,,,,,,,,,,,,,,,,,,,,,,,,,,,,,,,,0,1,1,4,1,,,,,,,,,,,,,,,,,,,,,,,,,,,,,,,,,,,,,,,,,
024271,001,2022-11-20_23h48.03.818,Info_measure_main_exp,2022.2.2,Linux x86_64,121.3150552,,,,,,,,,,,,,,,,,,masks/mask_003.jpg,,,,,,,,,,,,,,,,,,,,,,,,,,,,,,,,,,,,,,,,,,,,,,,,0,2,2,2,1,,,,,,,,,,,,,,,,,,,,,,,,,,,,,,,,,,,,,,,,,
024271,001,2022-11-20_23h48.03.818,Info_measure_main_exp,2022.2.2,Linux x86_64,121.3150552,,,,,,,,,,,,,,,,,,masks/mask_001.jpg,,,,,,,,,,,,,,,,,,,,,,,,,,,,,,,,,,,,,,,,,,,,,,,,0,3,3,0,1,,,,,,,,,,,,,,,,,,,,,,,,,,,,,,,,,,,,,,,,,
024271,001,2022-11-20_23h48.03.818,Info_measure_main_exp,2022.2.2,Linux x86_64,121.3150552,,,,,,,,,,,,,,,,,,masks/mask_004.jpg,,,,,,,,,,,,,,,,,,,,,,,,,,,,,,,,,,,,,,,,,,,,,,,,0,4,4,3,1,,,,,,,,,,,,,,,,,,,,,,,,,,,,,,,,,,,,,,,,,
024271,001,2022-11-20_23h48.03.818,Info_measure_main_exp,2022.2.2,Linux x86_64,121.3150552,,,,,,,,,,,,,,,,,,,,,,,,,,,,,,0,0.7596,1,,,,,,,,,,,,0,131,5,5,2082,2082,absent_patch/patch0002082.jpg,absent_patch/patch0002082.jpg,,,,,,,,,,,,,,,,,,,,-0.059259259,0.167592593,1,0,0,response7disk,11,-0.008333333,0.002777778,1,0,0,center_square,0,10,10,74,1,,,,,,,,,,,,,,,,,,,,,,,
024271,001,2022-11-20_23h48.03.818,Info_measure_main_exp,2022.2.2,Linux x86_64,121.3150552,,,,,,,,,,,,,,,,,,masks/mask_002.jpg,,,,,,,,,,,,,,,,,,,,,,,,,,,,,,,,,,,,,,,,,,,0,0,0,1,1,,,,,,,,,,,,,,,,,,,,,,,,,,,,,,,,,,,,,,,,,,,,,,
024271,001,2022-11-20_23h48.03.818,Info_measure_main_exp,2022.2.2,Linux x86_64,121.3150552,,,,,,,,,,,,,,,,,,masks/mask_005.jpg,,,,,,,,,,,,,,,,,,,,,,,,,,,,,,,,,,,,,,,,,,,0,1,1,4,1,,,,,,,,,,,,,,,,,,,,,,,,,,,,,,,,,,,,,,,,,,,,,,
024271,001,2022-11-20_23h48.03.818,Info_measure_main_exp,2022.2.2,Linux x86_64,121.3150552,,,,,,,,,,,,,,,,,,masks/mask_003.jpg,,,,,,,,,,,,,,,,,,,,,,,,,,,,,,,,,,,,,,,,,,,0,2,2,2,1,,,,,,,,,,,,,,,,,,,,,,,,,,,,,,,,,,,,,,,,,,,,,,
024271,001,2022-11-20_23h48.03.818,Info_measure_main_exp,2022.2.2,Linux x86_64,121.3150552,,,,,,,,,,,,,,,,,,masks/mask_004.jpg,,,,,,,,,,,,,,,,,,,,,,,,,,,,,,,,,,,,,,,,,,,0,3,3,3,1,,,,,,,,,,,,,,,,,,,,,,,,,,,,,,,,,,,,,,,,,,,,,,
024271,001,2022-11-20_23h48.03.818,Info_measure_main_exp,2022.2.2,Linux x86_64,121.3150552,,,,,,,,,,,,,,,,,,masks/mask_001.jpg,,,,,,,,,,,,,,,,,,,,,,,,,,,,,,,,,,,,,,,,,,,0,4,4,0,1,,,,,,,,,,,,,,,,,,,,,,,,,,,,,,,,,,,,,,,,,,,,,,
024271,001,2022-11-20_23h48.03.818,Info_measure_main_exp,2022.2.2,Linux x86_64,121.3150552,,,,,,,,,,,,,,,,,,masks/mask_005.jpg,,,,,,,,,,,,,,,,,,,,,,,,,,,,,,,,,,,,,,,,,,,,,,,,0,0,0,4,1,,,,,,,,,,,,,,,,,,,,,,,,,,,,,,,,,,,,,,,,,
024271,001,2022-11-20_23h48.03.818,Info_measure_main_exp,2022.2.2,Linux x86_64,121.3150552,,,,,,,,,,,,,,,,,,masks/mask_004.jpg,,,,,,,,,,,,,,,,,,,,,,,,,,,,,,,,,,,,,,,,,,,,,,,,0,1,1,3,1,,,,,,,,,,,,,,,,,,,,,,,,,,,,,,,,,,,,,,,,,
024271,001,2022-11-20_23h48.03.818,Info_measure_main_exp,2022.2.2,Linux x86_64,121.3150552,,,,,,,,,,,,,,,,,,masks/mask_003.jpg,,,,,,,,,,,,,,,,,,,,,,,,,,,,,,,,,,,,,,,,,,,,,,,,0,2,2,2,1,,,,,,,,,,,,,,,,,,,,,,,,,,,,,,,,,,,,,,,,,
024271,001,2022-11-20_23h48.03.818,Info_measure_main_exp,2022.2.2,Linux x86_64,121.3150552,,,,,,,,,,,,,,,,,,masks/mask_002.jpg,,,,,,,,,,,,,,,,,,,,,,,,,,,,,,,,,,,,,,,,,,,,,,,,0,3,3,1,1,,,,,,,,,,,,,,,,,,,,,,,,,,,,,,,,,,,,,,,,,
024271,001,2022-11-20_23h48.03.818,Info_measure_main_exp,2022.2.2,Linux x86_64,121.3150552,,,,,,,,,,,,,,,,,,masks/mask_001.jpg,,,,,,,,,,,,,,,,,,,,,,,,,,,,,,,,,,,,,,,,,,,,,,,,0,4,4,0,1,,,,,,,,,,,,,,,,,,,,,,,,,,,,,,,,,,,,,,,,,
024271,001,2022-11-20_23h48.03.818,Info_measure_main_exp,2022.2.2,Linux x86_64,121.3150552,,,,,,,,,,,,,,,,,,,,,,,,,,,,,,7,0.5255,1,,,,,,,,,,,,0,131,5,5,1950,2238,absent_patch/patch0001950.jpg,absent_patch/patch0002238.jpg,,,,,,,,,,,,,,,,,,,,0.017592593,0.094444444,1,0,0,response1disk,12,0.000925926,-0.005555556,1,0,0,center_square,0,11,11,8,1,,,,,,,,,,,,,,,,,,,,,,,
024271,001,2022-11-20_23h48.03.818,Info_measure_main_exp,2022.2.2,Linux x86_64,121.3150552,,,,,,,,,,,,,,,,,,masks/mask_004.jpg,,,,,,,,,,,,,,,,,,,,,,,,,,,,,,,,,,,,,,,,,,,0,0,0,3,1,,,,,,,,,,,,,,,,,,,,,,,,,,,,,,,,,,,,,,,,,,,,,,
024271,001,2022-11-20_23h48.03.818,Info_measure_main_exp,2022.2.2,Linux x86_64,121.3150552,,,,,,,,,,,,,,,,,,masks/mask_005.jpg,,,,,,,,,,,,,,,,,,,,,,,,,,,,,,,,,,,,,,,,,,,0,1,1,4,1,,,,,,,,,,,,,,,,,,,,,,,,,,,,,,,,,,,,,,,,,,,,,,
024271,001,2022-11-20_23h48.03.818,Info_measure_main_exp,2022.2.2,Linux x86_64,121.3150552,,,,,,,,,,,,,,,,,,masks/mask_003.jpg,,,,,,,,,,,,,,,,,,,,,,,,,,,,,,,,,,,,,,,,,,,0,2,2,2,1,,,,,,,,,,,,,,,,,,,,,,,,,,,,,,,,,,,,,,,,,,,,,,
024271,001,2022-11-20_23h48.03.818,Info_measure_main_exp,2022.2.2,Linux x86_64,121.3150552,,,,,,,,,,,,,,,,,,masks/mask_002.jpg,,,,,,,,,,,,,,,,,,,,,,,,,,,,,,,,,,,,,,,,,,,0,3,3,1,1,,,,,,,,,,,,,,,,,,,,,,,,,,,,,,,,,,,,,,,,,,,,,,
024271,001,2022-11-20_23h48.03.818,Info_measure_main_exp,2022.2.2,Linux x86_64,121.3150552,,,,,,,,,,,,,,,,,,masks/mask_001.jpg,,,,,,,,,,,,,,,,,,,,,,,,,,,,,,,,,,,,,,,,,,,0,4,4,0,1,,,,,,,,,,,,,,,,,,,,,,,,,,,,,,,,,,,,,,,,,,,,,,
024271,001,2022-11-20_23h48.03.818,Info_measure_main_exp,2022.2.2,Linux x86_64,121.3150552,,,,,,,,,,,,,,,,,,masks/mask_005.jpg,,,,,,,,,,,,,,,,,,,,,,,,,,,,,,,,,,,,,,,,,,,,,,,,0,0,0,4,1,,,,,,,,,,,,,,,,,,,,,,,,,,,,,,,,,,,,,,,,,
024271,001,2022-11-20_23h48.03.818,Info_measure_main_exp,2022.2.2,Linux x86_64,121.3150552,,,,,,,,,,,,,,,,,,masks/mask_002.jpg,,,,,,,,,,,,,,,,,,,,,,,,,,,,,,,,,,,,,,,,,,,,,,,,0,1,1,1,1,,,,,,,,,,,,,,,,,,,,,,,,,,,,,,,,,,,,,,,,,
024271,001,2022-11-20_23h48.03.818,Info_measure_main_exp,2022.2.2,Linux x86_64,121.3150552,,,,,,,,,,,,,,,,,,masks/mask_004.jpg,,,,,,,,,,,,,,,,,,,,,,,,,,,,,,,,,,,,,,,,,,,,,,,,0,2,2,3,1,,,,,,,,,,,,,,,,,,,,,,,,,,,,,,,,,,,,,,,,,
024271,001,2022-11-20_23h48.03.818,Info_measure_main_exp,2022.2.2,Linux x86_64,121.3150552,,,,,,,,,,,,,,,,,,masks/mask_001.jpg,,,,,,,,,,,,,,,,,,,,,,,,,,,,,,,,,,,,,,,,,,,,,,,,0,3,3,0,1,,,,,,,,,,,,,,,,,,,,,,,,,,,,,,,,,,,,,,,,,
024271,001,2022-11-20_23h48.03.818,Info_measure_main_exp,2022.2.2,Linux x86_64,121.3150552,,,,,,,,,,,,,,,,,,masks/mask_003.jpg,,,,,,,,,,,,,,,,,,,,,,,,,,,,,,,,,,,,,,,,,,,,,,,,0,4,4,2,1,,,,,,,,,,,,,,,,,,,,,,,,,,,,,,,,,,,,,,,,,
024271,001,2022-11-20_23h48.03.818,Info_measure_main_exp,2022.2.2,Linux x86_64,121.3150552,,,,,,,,,,,,,,,,,,,,,,,,,,,,,,7,1.4678,1,,,,,,,,,,,,0,131,5,5,2298,2274,absent_patch/patch0002298.jpg,absent_patch/patch0002274.jpg,,,,,,,,,,,,,,,,,,,,0.062037037,0.107407407,1,0,0,response1disk,13,-0.013888889,-0.001851852,1,0,0,center_square,0,12,12,1,1,,,,,,,,,,,,,,,,,,,,,,,
024271,001,2022-11-20_23h48.03.818,Info_measure_main_exp,2022.2.2,Linux x86_64,121.3150552,,,,,,,,,,,,,,,,,,masks/mask_004.jpg,,,,,,,,,,,,,,,,,,,,,,,,,,,,,,,,,,,,,,,,,,,0,0,0,3,1,,,,,,,,,,,,,,,,,,,,,,,,,,,,,,,,,,,,,,,,,,,,,,
024271,001,2022-11-20_23h48.03.818,Info_measure_main_exp,2022.2.2,Linux x86_64,121.3150552,,,,,,,,,,,,,,,,,,masks/mask_005.jpg,,,,,,,,,,,,,,,,,,,,,,,,,,,,,,,,,,,,,,,,,,,0,1,1,4,1,,,,,,,,,,,,,,,,,,,,,,,,,,,,,,,,,,,,,,,,,,,,,,
024271,001,2022-11-20_23h48.03.818,Info_measure_main_exp,2022.2.2,Linux x86_64,121.3150552,,,,,,,,,,,,,,,,,,masks/mask_003.jpg,,,,,,,,,,,,,,,,,,,,,,,,,,,,,,,,,,,,,,,,,,,0,2,2,2,1,,,,,,,,,,,,,,,,,,,,,,,,,,,,,,,,,,,,,,,,,,,,,,
024271,001,2022-11-20_23h48.03.818,Info_measure_main_exp,2022.2.2,Linux x86_64,121.3150552,,,,,,,,,,,,,,,,,,masks/mask_002.jpg,,,,,,,,,,,,,,,,,,,,,,,,,,,,,,,,,,,,,,,,,,,0,3,3,1,1,,,,,,,,,,,,,,,,,,,,,,,,,,,,,,,,,,,,,,,,,,,,,,
024271,001,2022-11-20_23h48.03.818,Info_measure_main_exp,2022.2.2,Linux x86_64,121.3150552,,,,,,,,,,,,,,,,,,masks/mask_001.jpg,,,,,,,,,,,,,,,,,,,,,,,,,,,,,,,,,,,,,,,,,,,0,4,4,0,1,,,,,,,,,,,,,,,,,,,,,,,,,,,,,,,,,,,,,,,,,,,,,,
024271,001,2022-11-20_23h48.03.818,Info_measure_main_exp,2022.2.2,Linux x86_64,121.3150552,,,,,,,,,,,,,,,,,,masks/mask_004.jpg,,,,,,,,,,,,,,,,,,,,,,,,,,,,,,,,,,,,,,,,,,,,,,,,0,0,0,3,1,,,,,,,,,,,,,,,,,,,,,,,,,,,,,,,,,,,,,,,,,
024271,001,2022-11-20_23h48.03.818,Info_measure_main_exp,2022.2.2,Linux x86_64,121.3150552,,,,,,,,,,,,,,,,,,masks/mask_002.jpg,,,,,,,,,,,,,,,,,,,,,,,,,,,,,,,,,,,,,,,,,,,,,,,,0,1,1,1,1,,,,,,,,,,,,,,,,,,,,,,,,,,,,,,,,,,,,,,,,,
024271,001,2022-11-20_23h48.03.818,Info_measure_main_exp,2022.2.2,Linux x86_64,121.3150552,,,,,,,,,,,,,,,,,,masks/mask_003.jpg,,,,,,,,,,,,,,,,,,,,,,,,,,,,,,,,,,,,,,,,,,,,,,,,0,2,2,2,1,,,,,,,,,,,,,,,,,,,,,,,,,,,,,,,,,,,,,,,,,
024271,001,2022-11-20_23h48.03.818,Info_measure_main_exp,2022.2.2,Linux x86_64,121.3150552,,,,,,,,,,,,,,,,,,masks/mask_001.jpg,,,,,,,,,,,,,,,,,,,,,,,,,,,,,,,,,,,,,,,,,,,,,,,,0,3,3,0,1,,,,,,,,,,,,,,,,,,,,,,,,,,,,,,,,,,,,,,,,,
024271,001,2022-11-20_23h48.03.818,Info_measure_main_exp,2022.2.2,Linux x86_64,121.3150552,,,,,,,,,,,,,,,,,,masks/mask_005.jpg,,,,,,,,,,,,,,,,,,,,,,,,,,,,,,,,,,,,,,,,,,,,,,,,0,4,4,4,1,,,,,,,,,,,,,,,,,,,,,,,,,,,,,,,,,,,,,,,,,
024271,001,2022-11-20_23h48.03.818,Info_measure_main_exp,2022.2.2,Linux x86_64,121.3150552,,,,,,,,,,,,,,,,,,,,,,,,,,,,,,7,0.5423,1,,,,,,,,,,,,0,131,5,5,2274,1950,absent_patch/patch0002274.jpg,absent_patch/patch0001950.jpg,,,,,,,,,,,,,,,,,,,,0.056481481,0.121296296,1,0,0,response1disk,14,0.002777778,-0.002777778,1,0,0,center_square,0,13,13,10,1,,,,,,,,,,,,,,,,,,,,,,,
024271,001,2022-11-20_23h48.03.818,Info_measure_main_exp,2022.2.2,Linux x86_64,121.3150552,,,,,,,,,,,,,,,,,,masks/mask_003.jpg,,,,,,,,,,,,,,,,,,,,,,,,,,,,,,,,,,,,,,,,,,,0,0,0,2,1,,,,,,,,,,,,,,,,,,,,,,,,,,,,,,,,,,,,,,,,,,,,,,
024271,001,2022-11-20_23h48.03.818,Info_measure_main_exp,2022.2.2,Linux x86_64,121.3150552,,,,,,,,,,,,,,,,,,masks/mask_004.jpg,,,,,,,,,,,,,,,,,,,,,,,,,,,,,,,,,,,,,,,,,,,0,1,1,3,1,,,,,,,,,,,,,,,,,,,,,,,,,,,,,,,,,,,,,,,,,,,,,,
024271,001,2022-11-20_23h48.03.818,Info_measure_main_exp,2022.2.2,Linux x86_64,121.3150552,,,,,,,,,,,,,,,,,,masks/mask_001.jpg,,,,,,,,,,,,,,,,,,,,,,,,,,,,,,,,,,,,,,,,,,,0,2,2,0,1,,,,,,,,,,,,,,,,,,,,,,,,,,,,,,,,,,,,,,,,,,,,,,
024271,001,2022-11-20_23h48.03.818,Info_measure_main_exp,2022.2.2,Linux x86_64,121.3150552,,,,,,,,,,,,,,,,,,masks/mask_002.jpg,,,,,,,,,,,,,,,,,,,,,,,,,,,,,,,,,,,,,,,,,,,0,3,3,1,1,,,,,,,,,,,,,,,,,,,,,,,,,,,,,,,,,,,,,,,,,,,,,,
024271,001,2022-11-20_23h48.03.818,Info_measure_main_exp,2022.2.2,Linux x86_64,121.3150552,,,,,,,,,,,,,,,,,,masks/mask_005.jpg,,,,,,,,,,,,,,,,,,,,,,,,,,,,,,,,,,,,,,,,,,,0,4,4,4,1,,,,,,,,,,,,,,,,,,,,,,,,,,,,,,,,,,,,,,,,,,,,,,
024271,001,2022-11-20_23h48.03.818,Info_measure_main_exp,2022.2.2,Linux x86_64,121.3150552,,,,,,,,,,,,,,,,,,masks/mask_001.jpg,,,,,,,,,,,,,,,,,,,,,,,,,,,,,,,,,,,,,,,,,,,,,,,,0,0,0,0,1,,,,,,,,,,,,,,,,,,,,,,,,,,,,,,,,,,,,,,,,,
024271,001,2022-11-20_23h48.03.818,Info_measure_main_exp,2022.2.2,Linux x86_64,121.3150552,,,,,,,,,,,,,,,,,,masks/mask_003.jpg,,,,,,,,,,,,,,,,,,,,,,,,,,,,,,,,,,,,,,,,,,,,,,,,0,1,1,2,1,,,,,,,,,,,,,,,,,,,,,,,,,,,,,,,,,,,,,,,,,
024271,001,2022-11-20_23h48.03.818,Info_measure_main_exp,2022.2.2,Linux x86_64,121.3150552,,,,,,,,,,,,,,,,,,masks/mask_005.jpg,,,,,,,,,,,,,,,,,,,,,,,,,,,,,,,,,,,,,,,,,,,,,,,,0,2,2,4,1,,,,,,,,,,,,,,,,,,,,,,,,,,,,,,,,,,,,,,,,,
024271,001,2022-11-20_23h48.03.818,Info_measure_main_exp,2022.2.2,Linux x86_64,121.3150552,,,,,,,,,,,,,,,,,,masks/mask_002.jpg,,,,,,,,,,,,,,,,,,,,,,,,,,,,,,,,,,,,,,,,,,,,,,,,0,3,3,1,1,,,,,,,,,,,,,,,,,,,,,,,,,,,,,,,,,,,,,,,,,
024271,001,2022-11-20_23h48.03.818,Info_measure_main_exp,2022.2.2,Linux x86_64,121.3150552,,,,,,,,,,,,,,,,,,masks/mask_004.jpg,,,,,,,,,,,,,,,,,,,,,,,,,,,,,,,,,,,,,,,,,,,,,,,,0,4,4,3,1,,,,,,,,,,,,,,,,,,,,,,,,,,,,,,,,,,,,,,,,,
024271,001,2022-11-20_23h48.03.818,Info_measure_main_exp,2022.2.2,Linux x86_64,121.3150552,,,,,,,,,,,,,,,,,,,,,,,,,,,,,,7,0.5934,1,,,,,,,,,,,,0,131,5,5,2274,2214,absent_patch/patch0002274.jpg,absent_patch/patch0002214.jpg,,,,,,,,,,,,,,,,,,,,0.098148148,0.164814815,1,0,0,response1disk,15,-0.003703704,-0.00462963,1,0,0,center_square,0,14,14,11,1,,,,,,,,,,,,,,,,,,,,,,,
024271,001,2022-11-20_23h48.03.818,Info_measure_main_exp,2022.2.2,Linux x86_64,121.3150552,,,,,,,,,,,,,,,,,,masks/mask_001.jpg,,,,,,,,,,,,,,,,,,,,,,,,,,,,,,,,,,,,,,,,,,,0,0,0,0,1,,,,,,,,,,,,,,,,,,,,,,,,,,,,,,,,,,,,,,,,,,,,,,
024271,001,2022-11-20_23h48.03.818,Info_measure_main_exp,2022.2.2,Linux x86_64,121.3150552,,,,,,,,,,,,,,,,,,masks/mask_004.jpg,,,,,,,,,,,,,,,,,,,,,,,,,,,,,,,,,,,,,,,,,,,0,1,1,3,1,,,,,,,,,,,,,,,,,,,,,,,,,,,,,,,,,,,,,,,,,,,,,,
024271,001,2022-11-20_23h48.03.818,Info_measure_main_exp,2022.2.2,Linux x86_64,121.3150552,,,,,,,,,,,,,,,,,,masks/mask_002.jpg,,,,,,,,,,,,,,,,,,,,,,,,,,,,,,,,,,,,,,,,,,,0,2,2,1,1,,,,,,,,,,,,,,,,,,,,,,,,,,,,,,,,,,,,,,,,,,,,,,
024271,001,2022-11-20_23h48.03.818,Info_measure_main_exp,2022.2.2,Linux x86_64,121.3150552,,,,,,,,,,,,,,,,,,masks/mask_005.jpg,,,,,,,,,,,,,,,,,,,,,,,,,,,,,,,,,,,,,,,,,,,0,3,3,4,1,,,,,,,,,,,,,,,,,,,,,,,,,,,,,,,,,,,,,,,,,,,,,,
024271,001,2022-11-20_23h48.03.818,Info_measure_main_exp,2022.2.2,Linux x86_64,121.3150552,,,,,,,,,,,,,,,,,,masks/mask_003.jpg,,,,,,,,,,,,,,,,,,,,,,,,,,,,,,,,,,,,,,,,,,,0,4,4,2,1,,,,,,,,,,,,,,,,,,,,,,,,,,,,,,,,,,,,,,,,,,,,,,
024271,001,2022-11-20_23h48.03.818,Info_measure_main_exp,2022.2.2,Linux x86_64,121.3150552,,,,,,,,,,,,,,,,,,masks/mask_001.jpg,,,,,,,,,,,,,,,,,,,,,,,,,,,,,,,,,,,,,,,,,,,,,,,,0,0,0,0,1,,,,,,,,,,,,,,,,,,,,,,,,,,,,,,,,,,,,,,,,,
024271,001,2022-11-20_23h48.03.818,Info_measure_main_exp,2022.2.2,Linux x86_64,121.3150552,,,,,,,,,,,,,,,,,,masks/mask_005.jpg,,,,,,,,,,,,,,,,,,,,,,,,,,,,,,,,,,,,,,,,,,,,,,,,0,1,1,4,1,,,,,,,,,,,,,,,,,,,,,,,,,,,,,,,,,,,,,,,,,
024271,001,2022-11-20_23h48.03.818,Info_measure_main_exp,2022.2.2,Linux x86_64,121.3150552,,,,,,,,,,,,,,,,,,masks/mask_004.jpg,,,,,,,,,,,,,,,,,,,,,,,,,,,,,,,,,,,,,,,,,,,,,,,,0,2,2,3,1,,,,,,,,,,,,,,,,,,,,,,,,,,,,,,,,,,,,,,,,,
024271,001,2022-11-20_23h48.03.818,Info_measure_main_exp,2022.2.2,Linux x86_64,121.3150552,,,,,,,,,,,,,,,,,,masks/mask_003.jpg,,,,,,,,,,,,,,,,,,,,,,,,,,,,,,,,,,,,,,,,,,,,,,,,0,3,3,2,1,,,,,,,,,,,,,,,,,,,,,,,,,,,,,,,,,,,,,,,,,
024271,001,2022-11-20_23h48.03.818,Info_measure_main_exp,2022.2.2,Linux x86_64,121.3150552,,,,,,,,,,,,,,,,,,masks/mask_002.jpg,,,,,,,,,,,,,,,,,,,,,,,,,,,,,,,,,,,,,,,,,,,,,,,,0,4,4,1,1,,,,,,,,,,,,,,,,,,,,,,,,,,,,,,,,,,,,,,,,,
024271,001,2022-11-20_23h48.03.818,Info_measure_main_exp,2022.2.2,Linux x86_64,121.3150552,,,,,,,,,,,,,,,,,,,,,,,,,,,,,,0,0.7166,1,,,,,,,,,,,,0,131,5,5,2298,2298,absent_patch/patch0002298.jpg,absent_patch/patch0002298.jpg,,,,,,,,,,,,,,,,,,,,-0.112037037,0.175925926,1,0,0,response7disk,16,0.00462963,-0.005555556,1,0,0,center_square,0,15,15,37,1,,,,,,,,,,,,,,,,,,,,,,,
024271,001,2022-11-20_23h48.03.818,Info_measure_main_exp,2022.2.2,Linux x86_64,121.3150552,,,,,,,,,,,,,,,,,,masks/mask_005.jpg,,,,,,,,,,,,,,,,,,,,,,,,,,,,,,,,,,,,,,,,,,,0,0,0,4,1,,,,,,,,,,,,,,,,,,,,,,,,,,,,,,,,,,,,,,,,,,,,,,
024271,001,2022-11-20_23h48.03.818,Info_measure_main_exp,2022.2.2,Linux x86_64,121.3150552,,,,,,,,,,,,,,,,,,masks/mask_002.jpg,,,,,,,,,,,,,,,,,,,,,,,,,,,,,,,,,,,,,,,,,,,0,1,1,1,1,,,,,,,,,,,,,,,,,,,,,,,,,,,,,,,,,,,,,,,,,,,,,,
024271,001,2022-11-20_23h48.03.818,Info_measure_main_exp,2022.2.2,Linux x86_64,121.3150552,,,,,,,,,,,,,,,,,,masks/mask_003.jpg,,,,,,,,,,,,,,,,,,,,,,,,,,,,,,,,,,,,,,,,,,,0,2,2,2,1,,,,,,,,,,,,,,,,,,,,,,,,,,,,,,,,,,,,,,,,,,,,,,
024271,001,2022-11-20_23h48.03.818,Info_measure_main_exp,2022.2.2,Linux x86_64,121.3150552,,,,,,,,,,,,,,,,,,masks/mask_004.jpg,,,,,,,,,,,,,,,,,,,,,,,,,,,,,,,,,,,,,,,,,,,0,3,3,3,1,,,,,,,,,,,,,,,,,,,,,,,,,,,,,,,,,,,,,,,,,,,,,,
024271,001,2022-11-20_23h48.03.818,Info_measure_main_exp,2022.2.2,Linux x86_64,121.3150552,,,,,,,,,,,,,,,,,,masks/mask_001.jpg,,,,,,,,,,,,,,,,,,,,,,,,,,,,,,,,,,,,,,,,,,,0,4,4,0,1,,,,,,,,,,,,,,,,,,,,,,,,,,,,,,,,,,,,,,,,,,,,,,
024271,001,2022-11-20_23h48.03.818,Info_measure_main_exp,2022.2.2,Linux x86_64,121.3150552,,,,,,,,,,,,,,,,,,masks/mask_005.jpg,,,,,,,,,,,,,,,,,,,,,,,,,,,,,,,,,,,,,,,,,,,,,,,,0,0,0,4,1,,,,,,,,,,,,,,,,,,,,,,,,,,,,,,,,,,,,,,,,,
024271,001,2022-11-20_23h48.03.818,Info_measure_main_exp,2022.2.2,Linux x86_64,121.3150552,,,,,,,,,,,,,,,,,,masks/mask_004.jpg,,,,,,,,,,,,,,,,,,,,,,,,,,,,,,,,,,,,,,,,,,,,,,,,0,1,1,3,1,,,,,,,,,,,,,,,,,,,,,,,,,,,,,,,,,,,,,,,,,
024271,001,2022-11-20_23h48.03.818,Info_measure_main_exp,2022.2.2,Linux x86_64,121.3150552,,,,,,,,,,,,,,,,,,masks/mask_002.jpg,,,,,,,,,,,,,,,,,,,,,,,,,,,,,,,,,,,,,,,,,,,,,,,,0,2,2,1,1,,,,,,,,,,,,,,,,,,,,,,,,,,,,,,,,,,,,,,,,,
024271,001,2022-11-20_23h48.03.818,Info_measure_main_exp,2022.2.2,Linux x86_64,121.3150552,,,,,,,,,,,,,,,,,,masks/mask_003.jpg,,,,,,,,,,,,,,,,,,,,,,,,,,,,,,,,,,,,,,,,,,,,,,,,0,3,3,2,1,,,,,,,,,,,,,,,,,,,,,,,,,,,,,,,,,,,,,,,,,
024271,001,2022-11-20_23h48.03.818,Info_measure_main_exp,2022.2.2,Linux x86_64,121.3150552,,,,,,,,,,,,,,,,,,masks/mask_001.jpg,,,,,,,,,,,,,,,,,,,,,,,,,,,,,,,,,,,,,,,,,,,,,,,,0,4,4,0,1,,,,,,,,,,,,,,,,,,,,,,,,,,,,,,,,,,,,,,,,,
024271,001,2022-11-20_23h48.03.818,Info_measure_main_exp,2022.2.2,Linux x86_64,121.3150552,,,,,,,,,,,,,,,,,,,,,,,,,,,,,,7,0.486,1,,,,,,,,,,,,0,131,5,5,2214,2142,absent_patch/patch0002214.jpg,absent_patch/patch0002142.jpg,,,,,,,,,,,,,,,,,,,,0.069444444,0.113888889,1,0,0,response1disk,17,0.012962963,-0.005555556,1,0,0,center_square,0,16,16,102,1,,,,,,,,,,,,,,,,,,,,,,,
024271,001,2022-11-20_23h48.03.818,Info_measure_main_exp,2022.2.2,Linux x86_64,121.3150552,,,,,,,,,,,,,,,,,,masks/mask_001.jpg,,,,,,,,,,,,,,,,,,,,,,,,,,,,,,,,,,,,,,,,,,,0,0,0,0,1,,,,,,,,,,,,,,,,,,,,,,,,,,,,,,,,,,,,,,,,,,,,,,
024271,001,2022-11-20_23h48.03.818,Info_measure_main_exp,2022.2.2,Linux x86_64,121.3150552,,,,,,,,,,,,,,,,,,masks/mask_005.jpg,,,,,,,,,,,,,,,,,,,,,,,,,,,,,,,,,,,,,,,,,,,0,1,1,4,1,,,,,,,,,,,,,,,,,,,,,,,,,,,,,,,,,,,,,,,,,,,,,,
024271,001,2022-11-20_23h48.03.818,Info_measure_main_exp,2022.2.2,Linux x86_64,121.3150552,,,,,,,,,,,,,,,,,,masks/mask_004.jpg,,,,,,,,,,,,,,,,,,,,,,,,,,,,,,,,,,,,,,,,,,,0,2,2,3,1,,,,,,,,,,,,,,,,,,,,,,,,,,,,,,,,,,,,,,,,,,,,,,
024271,001,2022-11-20_23h48.03.818,Info_measure_main_exp,2022.2.2,Linux x86_64,121.3150552,,,,,,,,,,,,,,,,,,masks/mask_003.jpg,,,,,,,,,,,,,,,,,,,,,,,,,,,,,,,,,,,,,,,,,,,0,3,3,2,1,,,,,,,,,,,,,,,,,,,,,,,,,,,,,,,,,,,,,,,,,,,,,,
024271,001,2022-11-20_23h48.03.818,Info_measure_main_exp,2022.2.2,Linux x86_64,121.3150552,,,,,,,,,,,,,,,,,,masks/mask_002.jpg,,,,,,,,,,,,,,,,,,,,,,,,,,,,,,,,,,,,,,,,,,,0,4,4,1,1,,,,,,,,,,,,,,,,,,,,,,,,,,,,,,,,,,,,,,,,,,,,,,
024271,001,2022-11-20_23h48.03.818,Info_measure_main_exp,2022.2.2,Linux x86_64,121.3150552,,,,,,,,,,,,,,,,,,masks/mask_001.jpg,,,,,,,,,,,,,,,,,,,,,,,,,,,,,,,,,,,,,,,,,,,,,,,,0,0,0,0,1,,,,,,,,,,,,,,,,,,,,,,,,,,,,,,,,,,,,,,,,,
024271,001,2022-11-20_23h48.03.818,Info_measure_main_exp,2022.2.2,Linux x86_64,121.3150552,,,,,,,,,,,,,,,,,,masks/mask_005.jpg,,,,,,,,,,,,,,,,,,,,,,,,,,,,,,,,,,,,,,,,,,,,,,,,0,1,1,4,1,,,,,,,,,,,,,,,,,,,,,,,,,,,,,,,,,,,,,,,,,
024271,001,2022-11-20_23h48.03.818,Info_measure_main_exp,2022.2.2,Linux x86_64,121.3150552,,,,,,,,,,,,,,,,,,masks/mask_004.jpg,,,,,,,,,,,,,,,,,,,,,,,,,,,,,,,,,,,,,,,,,,,,,,,,0,2,2,3,1,,,,,,,,,,,,,,,,,,,,,,,,,,,,,,,,,,,,,,,,,
024271,001,2022-11-20_23h48.03.818,Info_measure_main_exp,2022.2.2,Linux x86_64,121.3150552,,,,,,,,,,,,,,,,,,masks/mask_002.jpg,,,,,,,,,,,,,,,,,,,,,,,,,,,,,,,,,,,,,,,,,,,,,,,,0,3,3,1,1,,,,,,,,,,,,,,,,,,,,,,,,,,,,,,,,,,,,,,,,,
024271,001,2022-11-20_23h48.03.818,Info_measure_main_exp,2022.2.2,Linux x86_64,121.3150552,,,,,,,,,,,,,,,,,,masks/mask_003.jpg,,,,,,,,,,,,,,,,,,,,,,,,,,,,,,,,,,,,,,,,,,,,,,,,0,4,4,2,1,,,,,,,,,,,,,,,,,,,,,,,,,,,,,,,,,,,,,,,,,
024271,001,2022-11-20_23h48.03.818,Info_measure_main_exp,2022.2.2,Linux x86_64,121.3150552,,,,,,,,,,,,,,,,,,,,,,,,,,,,,,7,0.4505,1,,,,,,,,,,,,0,131,5,5,1974,2214,absent_patch/patch0001974.jpg,absent_patch/patch0002214.jpg,,,,,,,,,,,,,,,,,,,,0.010185185,0.092592593,1,0,0,response1disk,18,0,0,1,0,0,center_square,0,17,17,24,1,,,,,,,,,,,,,,,,,,,,,,,
024271,001,2022-11-20_23h48.03.818,Info_measure_main_exp,2022.2.2,Linux x86_64,121.3150552,,,,,,,,,,,,,,,,,,masks/mask_002.jpg,,,,,,,,,,,,,,,,,,,,,,,,,,,,,,,,,,,,,,,,,,,0,0,0,1,1,,,,,,,,,,,,,,,,,,,,,,,,,,,,,,,,,,,,,,,,,,,,,,
024271,001,2022-11-20_23h48.03.818,Info_measure_main_exp,2022.2.2,Linux x86_64,121.3150552,,,,,,,,,,,,,,,,,,masks/mask_001.jpg,,,,,,,,,,,,,,,,,,,,,,,,,,,,,,,,,,,,,,,,,,,0,1,1,0,1,,,,,,,,,,,,,,,,,,,,,,,,,,,,,,,,,,,,,,,,,,,,,,
024271,001,2022-11-20_23h48.03.818,Info_measure_main_exp,2022.2.2,Linux x86_64,121.3150552,,,,,,,,,,,,,,,,,,masks/mask_005.jpg,,,,,,,,,,,,,,,,,,,,,,,,,,,,,,,,,,,,,,,,,,,0,2,2,4,1,,,,,,,,,,,,,,,,,,,,,,,,,,,,,,,,,,,,,,,,,,,,,,
024271,001,2022-11-20_23h48.03.818,Info_measure_main_exp,2022.2.2,Linux x86_64,121.3150552,,,,,,,,,,,,,,,,,,masks/mask_003.jpg,,,,,,,,,,,,,,,,,,,,,,,,,,,,,,,,,,,,,,,,,,,0,3,3,2,1,,,,,,,,,,,,,,,,,,,,,,,,,,,,,,,,,,,,,,,,,,,,,,
024271,001,2022-11-20_23h48.03.818,Info_measure_main_exp,2022.2.2,Linux x86_64,121.3150552,,,,,,,,,,,,,,,,,,masks/mask_004.jpg,,,,,,,,,,,,,,,,,,,,,,,,,,,,,,,,,,,,,,,,,,,0,4,4,3,1,,,,,,,,,,,,,,,,,,,,,,,,,,,,,,,,,,,,,,,,,,,,,,
024271,001,2022-11-20_23h48.03.818,Info_measure_main_exp,2022.2.2,Linux x86_64,121.3150552,,,,,,,,,,,,,,,,,,masks/mask_004.jpg,,,,,,,,,,,,,,,,,,,,,,,,,,,,,,,,,,,,,,,,,,,,,,,,0,0,0,3,1,,,,,,,,,,,,,,,,,,,,,,,,,,,,,,,,,,,,,,,,,
024271,001,2022-11-20_23h48.03.818,Info_measure_main_exp,2022.2.2,Linux x86_64,121.3150552,,,,,,,,,,,,,,,,,,masks/mask_003.jpg,,,,,,,,,,,,,,,,,,,,,,,,,,,,,,,,,,,,,,,,,,,,,,,,0,1,1,2,1,,,,,,,,,,,,,,,,,,,,,,,,,,,,,,,,,,,,,,,,,
024271,001,2022-11-20_23h48.03.818,Info_measure_main_exp,2022.2.2,Linux x86_64,121.3150552,,,,,,,,,,,,,,,,,,masks/mask_002.jpg,,,,,,,,,,,,,,,,,,,,,,,,,,,,,,,,,,,,,,,,,,,,,,,,0,2,2,1,1,,,,,,,,,,,,,,,,,,,,,,,,,,,,,,,,,,,,,,,,,
024271,001,2022-11-20_23h48.03.818,Info_measure_main_exp,2022.2.2,Linux x86_64,121.3150552,,,,,,,,,,,,,,,,,,masks/mask_001.jpg,,,,,,,,,,,,,,,,,,,,,,,,,,,,,,,,,,,,,,,,,,,,,,,,0,3,3,0,1,,,,,,,,,,,,,,,,,,,,,,,,,,,,,,,,,,,,,,,,,
024271,001,2022-11-20_23h48.03.818,Info_measure_main_exp,2022.2.2,Linux x86_64,121.3150552,,,,,,,,,,,,,,,,,,masks/mask_005.jpg,,,,,,,,,,,,,,,,,,,,,,,,,,,,,,,,,,,,,,,,,,,,,,,,0,4,4,4,1,,,,,,,,,,,,,,,,,,,,,,,,,,,,,,,,,,,,,,,,,
024271,001,2022-11-20_23h48.03.818,Info_measure_main_exp,2022.2.2,Linux x86_64,121.3150552,,,,,,,,,,,,,,,,,,,,,,,,,,,,,,7,0.6252,1,,,,,,,,,,,,0,131,5,5,2214,2178,absent_patch/patch0002214.jpg,absent_patch/patch0002178.jpg,,,,,,,,,,,,,,,,,,,,0.037037037,0.077777778,1,0,0,response1disk,19,0.011111111,-0.014814815,1,0,0,center_square,0,18,18,62,1,,,,,,,,,,,,,,,,,,,,,,,
024271,001,2022-11-20_23h48.03.818,Info_measure_main_exp,2022.2.2,Linux x86_64,121.3150552,,,,,,,,,,,,,,,,,,masks/mask_001.jpg,,,,,,,,,,,,,,,,,,,,,,,,,,,,,,,,,,,,,,,,,,,0,0,0,0,1,,,,,,,,,,,,,,,,,,,,,,,,,,,,,,,,,,,,,,,,,,,,,,
024271,001,2022-11-20_23h48.03.818,Info_measure_main_exp,2022.2.2,Linux x86_64,121.3150552,,,,,,,,,,,,,,,,,,masks/mask_003.jpg,,,,,,,,,,,,,,,,,,,,,,,,,,,,,,,,,,,,,,,,,,,0,1,1,2,1,,,,,,,,,,,,,,,,,,,,,,,,,,,,,,,,,,,,,,,,,,,,,,
024271,001,2022-11-20_23h48.03.818,Info_measure_main_exp,2022.2.2,Linux x86_64,121.3150552,,,,,,,,,,,,,,,,,,masks/mask_005.jpg,,,,,,,,,,,,,,,,,,,,,,,,,,,,,,,,,,,,,,,,,,,0,2,2,4,1,,,,,,,,,,,,,,,,,,,,,,,,,,,,,,,,,,,,,,,,,,,,,,
024271,001,2022-11-20_23h48.03.818,Info_measure_main_exp,2022.2.2,Linux x86_64,121.3150552,,,,,,,,,,,,,,,,,,masks/mask_002.jpg,,,,,,,,,,,,,,,,,,,,,,,,,,,,,,,,,,,,,,,,,,,0,3,3,1,1,,,,,,,,,,,,,,,,,,,,,,,,,,,,,,,,,,,,,,,,,,,,,,
024271,001,2022-11-20_23h48.03.818,Info_measure_main_exp,2022.2.2,Linux x86_64,121.3150552,,,,,,,,,,,,,,,,,,masks/mask_004.jpg,,,,,,,,,,,,,,,,,,,,,,,,,,,,,,,,,,,,,,,,,,,0,4,4,3,1,,,,,,,,,,,,,,,,,,,,,,,,,,,,,,,,,,,,,,,,,,,,,,
024271,001,2022-11-20_23h48.03.818,Info_measure_main_exp,2022.2.2,Linux x86_64,121.3150552,,,,,,,,,,,,,,,,,,masks/mask_001.jpg,,,,,,,,,,,,,,,,,,,,,,,,,,,,,,,,,,,,,,,,,,,,,,,,0,0,0,0,1,,,,,,,,,,,,,,,,,,,,,,,,,,,,,,,,,,,,,,,,,
024271,001,2022-11-20_23h48.03.818,Info_measure_main_exp,2022.2.2,Linux x86_64,121.3150552,,,,,,,,,,,,,,,,,,masks/mask_003.jpg,,,,,,,,,,,,,,,,,,,,,,,,,,,,,,,,,,,,,,,,,,,,,,,,0,1,1,2,1,,,,,,,,,,,,,,,,,,,,,,,,,,,,,,,,,,,,,,,,,
024271,001,2022-11-20_23h48.03.818,Info_measure_main_exp,2022.2.2,Linux x86_64,121.3150552,,,,,,,,,,,,,,,,,,masks/mask_004.jpg,,,,,,,,,,,,,,,,,,,,,,,,,,,,,,,,,,,,,,,,,,,,,,,,0,2,2,3,1,,,,,,,,,,,,,,,,,,,,,,,,,,,,,,,,,,,,,,,,,
024271,001,2022-11-20_23h48.03.818,Info_measure_main_exp,2022.2.2,Linux x86_64,121.3150552,,,,,,,,,,,,,,,,,,masks/mask_002.jpg,,,,,,,,,,,,,,,,,,,,,,,,,,,,,,,,,,,,,,,,,,,,,,,,0,3,3,1,1,,,,,,,,,,,,,,,,,,,,,,,,,,,,,,,,,,,,,,,,,
024271,001,2022-11-20_23h48.03.818,Info_measure_main_exp,2022.2.2,Linux x86_64,121.3150552,,,,,,,,,,,,,,,,,,masks/mask_005.jpg,,,,,,,,,,,,,,,,,,,,,,,,,,,,,,,,,,,,,,,,,,,,,,,,0,4,4,4,1,,,,,,,,,,,,,,,,,,,,,,,,,,,,,,,,,,,,,,,,,
024271,001,2022-11-20_23h48.03.818,Info_measure_main_exp,2022.2.2,Linux x86_64,121.3150552,,,,,,,,,,,,,,,,,,,,,,,,,,,,,,7,0.5131,1,,,,,,,,,,,,0,131,5,5,1974,2166,absent_patch/patch0001974.jpg,absent_patch/patch0002166.jpg,,,,,,,,,,,,,,,,,,,,0.017592593,0.121296296,1,0,0,response1disk,20,0.001851852,0.000925926,1,0,0,center_square,0,19,19,77,1,,,,,,,,,,,,,,,,,,,,,,,
024271,001,2022-11-20_23h48.03.818,Info_measure_main_exp,2022.2.2,Linux x86_64,121.3150552,,,,,,,,,,,,,,,,,,masks/mask_001.jpg,,,,,,,,,,,,,,,,,,,,,,,,,,,,,,,,,,,,,,,,,,,0,0,0,0,1,,,,,,,,,,,,,,,,,,,,,,,,,,,,,,,,,,,,,,,,,,,,,,
024271,001,2022-11-20_23h48.03.818,Info_measure_main_exp,2022.2.2,Linux x86_64,121.3150552,,,,,,,,,,,,,,,,,,masks/mask_003.jpg,,,,,,,,,,,,,,,,,,,,,,,,,,,,,,,,,,,,,,,,,,,0,1,1,2,1,,,,,,,,,,,,,,,,,,,,,,,,,,,,,,,,,,,,,,,,,,,,,,
024271,001,2022-11-20_23h48.03.818,Info_measure_main_exp,2022.2.2,Linux x86_64,121.3150552,,,,,,,,,,,,,,,,,,masks/mask_005.jpg,,,,,,,,,,,,,,,,,,,,,,,,,,,,,,,,,,,,,,,,,,,0,2,2,4,1,,,,,,,,,,,,,,,,,,,,,,,,,,,,,,,,,,,,,,,,,,,,,,
024271,001,2022-11-20_23h48.03.818,Info_measure_main_exp,2022.2.2,Linux x86_64,121.3150552,,,,,,,,,,,,,,,,,,masks/mask_004.jpg,,,,,,,,,,,,,,,,,,,,,,,,,,,,,,,,,,,,,,,,,,,0,3,3,3,1,,,,,,,,,,,,,,,,,,,,,,,,,,,,,,,,,,,,,,,,,,,,,,
024271,001,2022-11-20_23h48.03.818,Info_measure_main_exp,2022.2.2,Linux x86_64,121.3150552,,,,,,,,,,,,,,,,,,masks/mask_002.jpg,,,,,,,,,,,,,,,,,,,,,,,,,,,,,,,,,,,,,,,,,,,0,4,4,1,1,,,,,,,,,,,,,,,,,,,,,,,,,,,,,,,,,,,,,,,,,,,,,,
024271,001,2022-11-20_23h48.03.818,Info_measure_main_exp,2022.2.2,Linux x86_64,121.3150552,,,,,,,,,,,,,,,,,,masks/mask_004.jpg,,,,,,,,,,,,,,,,,,,,,,,,,,,,,,,,,,,,,,,,,,,,,,,,0,0,0,3,1,,,,,,,,,,,,,,,,,,,,,,,,,,,,,,,,,,,,,,,,,
024271,001,2022-11-20_23h48.03.818,Info_measure_main_exp,2022.2.2,Linux x86_64,121.3150552,,,,,,,,,,,,,,,,,,masks/mask_001.jpg,,,,,,,,,,,,,,,,,,,,,,,,,,,,,,,,,,,,,,,,,,,,,,,,0,1,1,0,1,,,,,,,,,,,,,,,,,,,,,,,,,,,,,,,,,,,,,,,,,
024271,001,2022-11-20_23h48.03.818,Info_measure_main_exp,2022.2.2,Linux x86_64,121.3150552,,,,,,,,,,,,,,,,,,masks/mask_005.jpg,,,,,,,,,,,,,,,,,,,,,,,,,,,,,,,,,,,,,,,,,,,,,,,,0,2,2,4,1,,,,,,,,,,,,,,,,,,,,,,,,,,,,,,,,,,,,,,,,,
024271,001,2022-11-20_23h48.03.818,Info_measure_main_exp,2022.2.2,Linux x86_64,121.3150552,,,,,,,,,,,,,,,,,,masks/mask_003.jpg,,,,,,,,,,,,,,,,,,,,,,,,,,,,,,,,,,,,,,,,,,,,,,,,0,3,3,2,1,,,,,,,,,,,,,,,,,,,,,,,,,,,,,,,,,,,,,,,,,
024271,001,2022-11-20_23h48.03.818,Info_measure_main_exp,2022.2.2,Linux x86_64,121.3150552,,,,,,,,,,,,,,,,,,masks/mask_002.jpg,,,,,,,,,,,,,,,,,,,,,,,,,,,,,,,,,,,,,,,,,,,,,,,,0,4,4,1,1,,,,,,,,,,,,,,,,,,,,,,,,,,,,,,,,,,,,,,,,,
024271,001,2022-11-20_23h48.03.818,Info_measure_main_exp,2022.2.2,Linux x86_64,121.3150552,,,,,,,,,,,,,,,,,,,,,,,,,,,,,,7,0.6596,1,,,,,,,,,,,,0,131,5,5,2190,2250,absent_patch/patch0002190.jpg,absent_patch/patch0002250.jpg,,,,,,,,,,,,,,,,,,,,0.048148148,0.118518519,1,0,0,response1disk,21,0.010185185,0.002777778,1,0,0,center_square,0,20,20,93,1,,,,,,,,,,,,,,,,,,,,,,,
024271,001,2022-11-20_23h48.03.818,Info_measure_main_exp,2022.2.2,Linux x86_64,121.3150552,,,,,,,,,,,,,,,,,,masks/mask_002.jpg,,,,,,,,,,,,,,,,,,,,,,,,,,,,,,,,,,,,,,,,,,,0,0,0,1,1,,,,,,,,,,,,,,,,,,,,,,,,,,,,,,,,,,,,,,,,,,,,,,
024271,001,2022-11-20_23h48.03.818,Info_measure_main_exp,2022.2.2,Linux x86_64,121.3150552,,,,,,,,,,,,,,,,,,masks/mask_004.jpg,,,,,,,,,,,,,,,,,,,,,,,,,,,,,,,,,,,,,,,,,,,0,1,1,3,1,,,,,,,,,,,,,,,,,,,,,,,,,,,,,,,,,,,,,,,,,,,,,,
024271,001,2022-11-20_23h48.03.818,Info_measure_main_exp,2022.2.2,Linux x86_64,121.3150552,,,,,,,,,,,,,,,,,,masks/mask_001.jpg,,,,,,,,,,,,,,,,,,,,,,,,,,,,,,,,,,,,,,,,,,,0,2,2,0,1,,,,,,,,,,,,,,,,,,,,,,,,,,,,,,,,,,,,,,,,,,,,,,
024271,001,2022-11-20_23h48.03.818,Info_measure_main_exp,2022.2.2,Linux x86_64,121.3150552,,,,,,,,,,,,,,,,,,masks/mask_003.jpg,,,,,,,,,,,,,,,,,,,,,,,,,,,,,,,,,,,,,,,,,,,0,3,3,2,1,,,,,,,,,,,,,,,,,,,,,,,,,,,,,,,,,,,,,,,,,,,,,,
024271,001,2022-11-20_23h48.03.818,Info_measure_main_exp,2022.2.2,Linux x86_64,121.3150552,,,,,,,,,,,,,,,,,,masks/mask_005.jpg,,,,,,,,,,,,,,,,,,,,,,,,,,,,,,,,,,,,,,,,,,,0,4,4,4,1,,,,,,,,,,,,,,,,,,,,,,,,,,,,,,,,,,,,,,,,,,,,,,
024271,001,2022-11-20_23h48.03.818,Info_measure_main_exp,2022.2.2,Linux x86_64,121.3150552,,,,,,,,,,,,,,,,,,masks/mask_004.jpg,,,,,,,,,,,,,,,,,,,,,,,,,,,,,,,,,,,,,,,,,,,,,,,,0,0,0,3,1,,,,,,,,,,,,,,,,,,,,,,,,,,,,,,,,,,,,,,,,,
024271,001,2022-11-20_23h48.03.818,Info_measure_main_exp,2022.2.2,Linux x86_64,121.3150552,,,,,,,,,,,,,,,,,,masks/mask_003.jpg,,,,,,,,,,,,,,,,,,,,,,,,,,,,,,,,,,,,,,,,,,,,,,,,0,1,1,2,1,,,,,,,,,,,,,,,,,,,,,,,,,,,,,,,,,,,,,,,,,
024271,001,2022-11-20_23h48.03.818,Info_measure_main_exp,2022.2.2,Linux x86_64,121.3150552,,,,,,,,,,,,,,,,,,masks/mask_005.jpg,,,,,,,,,,,,,,,,,,,,,,,,,,,,,,,,,,,,,,,,,,,,,,,,0,2,2,4,1,,,,,,,,,,,,,,,,,,,,,,,,,,,,,,,,,,,,,,,,,
024271,001,2022-11-20_23h48.03.818,Info_measure_main_exp,2022.2.2,Linux x86_64,121.3150552,,,,,,,,,,,,,,,,,,masks/mask_002.jpg,,,,,,,,,,,,,,,,,,,,,,,,,,,,,,,,,,,,,,,,,,,,,,,,0,3,3,1,1,,,,,,,,,,,,,,,,,,,,,,,,,,,,,,,,,,,,,,,,,
024271,001,2022-11-20_23h48.03.818,Info_measure_main_exp,2022.2.2,Linux x86_64,121.3150552,,,,,,,,,,,,,,,,,,masks/mask_001.jpg,,,,,,,,,,,,,,,,,,,,,,,,,,,,,,,,,,,,,,,,,,,,,,,,0,4,4,0,1,,,,,,,,,,,,,,,,,,,,,,,,,,,,,,,,,,,,,,,,,
024271,001,2022-11-20_23h48.03.818,Info_measure_main_exp,2022.2.2,Linux x86_64,121.3150552,,,,,,,,,,,,,,,,,,,,,,,,,,,,,,7,0.6012,1,,,,,,,,,,,,0,131,5,5,2082,1974,absent_patch/patch0002082.jpg,absent_patch/patch0001974.jpg,,,,,,,,,,,,,,,,,,,,0.023148148,0.088888889,1,0,0,response1disk,22,-0.008333333,0.006481481,1,0,0,center_square,0,21,21,26,1,,,,,,,,,,,,,,,,,,,,,,,
024271,001,2022-11-20_23h48.03.818,Info_measure_main_exp,2022.2.2,Linux x86_64,121.3150552,,,,,,,,,,,,,,,,,,masks/mask_003.jpg,,,,,,,,,,,,,,,,,,,,,,,,,,,,,,,,,,,,,,,,,,,0,0,0,2,1,,,,,,,,,,,,,,,,,,,,,,,,,,,,,,,,,,,,,,,,,,,,,,
024271,001,2022-11-20_23h48.03.818,Info_measure_main_exp,2022.2.2,Linux x86_64,121.3150552,,,,,,,,,,,,,,,,,,masks/mask_002.jpg,,,,,,,,,,,,,,,,,,,,,,,,,,,,,,,,,,,,,,,,,,,0,1,1,1,1,,,,,,,,,,,,,,,,,,,,,,,,,,,,,,,,,,,,,,,,,,,,,,
024271,001,2022-11-20_23h48.03.818,Info_measure_main_exp,2022.2.2,Linux x86_64,121.3150552,,,,,,,,,,,,,,,,,,masks/mask_005.jpg,,,,,,,,,,,,,,,,,,,,,,,,,,,,,,,,,,,,,,,,,,,0,2,2,4,1,,,,,,,,,,,,,,,,,,,,,,,,,,,,,,,,,,,,,,,,,,,,,,
024271,001,2022-11-20_23h48.03.818,Info_measure_main_exp,2022.2.2,Linux x86_64,121.3150552,,,,,,,,,,,,,,,,,,masks/mask_004.jpg,,,,,,,,,,,,,,,,,,,,,,,,,,,,,,,,,,,,,,,,,,,0,3,3,3,1,,,,,,,,,,,,,,,,,,,,,,,,,,,,,,,,,,,,,,,,,,,,,,
024271,001,2022-11-20_23h48.03.818,Info_measure_main_exp,2022.2.2,Linux x86_64,121.3150552,,,,,,,,,,,,,,,,,,masks/mask_001.jpg,,,,,,,,,,,,,,,,,,,,,,,,,,,,,,,,,,,,,,,,,,,0,4,4,0,1,,,,,,,,,,,,,,,,,,,,,,,,,,,,,,,,,,,,,,,,,,,,,,
024271,001,2022-11-20_23h48.03.818,Info_measure_main_exp,2022.2.2,Linux x86_64,121.3150552,,,,,,,,,,,,,,,,,,masks/mask_003.jpg,,,,,,,,,,,,,,,,,,,,,,,,,,,,,,,,,,,,,,,,,,,,,,,,0,0,0,2,1,,,,,,,,,,,,,,,,,,,,,,,,,,,,,,,,,,,,,,,,,
024271,001,2022-11-20_23h48.03.818,Info_measure_main_exp,2022.2.2,Linux x86_64,121.3150552,,,,,,,,,,,,,,,,,,masks/mask_005.jpg,,,,,,,,,,,,,,,,,,,,,,,,,,,,,,,,,,,,,,,,,,,,,,,,0,1,1,4,1,,,,,,,,,,,,,,,,,,,,,,,,,,,,,,,,,,,,,,,,,
024271,001,2022-11-20_23h48.03.818,Info_measure_main_exp,2022.2.2,Linux x86_64,121.3150552,,,,,,,,,,,,,,,,,,masks/mask_001.jpg,,,,,,,,,,,,,,,,,,,,,,,,,,,,,,,,,,,,,,,,,,,,,,,,0,2,2,0,1,,,,,,,,,,,,,,,,,,,,,,,,,,,,,,,,,,,,,,,,,
024271,001,2022-11-20_23h48.03.818,Info_measure_main_exp,2022.2.2,Linux x86_64,121.3150552,,,,,,,,,,,,,,,,,,masks/mask_004.jpg,,,,,,,,,,,,,,,,,,,,,,,,,,,,,,,,,,,,,,,,,,,,,,,,0,3,3,3,1,,,,,,,,,,,,,,,,,,,,,,,,,,,,,,,,,,,,,,,,,
024271,001,2022-11-20_23h48.03.818,Info_measure_main_exp,2022.2.2,Linux x86_64,121.3150552,,,,,,,,,,,,,,,,,,masks/mask_002.jpg,,,,,,,,,,,,,,,,,,,,,,,,,,,,,,,,,,,,,,,,,,,,,,,,0,4,4,1,1,,,,,,,,,,,,,,,,,,,,,,,,,,,,,,,,,,,,,,,,,
024271,001,2022-11-20_23h48.03.818,Info_measure_main_exp,2022.2.2,Linux x86_64,121.3150552,,,,,,,,,,,,,,,,,,,,,,,,,,,,,,7,0.4575,1,,,,,,,,,,,,0,131,5,5,2082,2166,absent_patch/patch0002082.jpg,absent_patch/patch0002166.jpg,,,,,,,,,,,,,,,,,,,,0.073148148,0.076851852,1,0,0,response1disk,23,-0.005555556,0.003703704,1,0,0,center_square,0,22,22,43,1,,,,,,,,,,,,,,,,,,,,,,,
024271,001,2022-11-20_23h48.03.818,Info_measure_main_exp,2022.2.2,Linux x86_64,121.3150552,,,,,,,,,,,,,,,,,,masks/mask_001.jpg,,,,,,,,,,,,,,,,,,,,,,,,,,,,,,,,,,,,,,,,,,,0,0,0,0,1,,,,,,,,,,,,,,,,,,,,,,,,,,,,,,,,,,,,,,,,,,,,,,
024271,001,2022-11-20_23h48.03.818,Info_measure_main_exp,2022.2.2,Linux x86_64,121.3150552,,,,,,,,,,,,,,,,,,masks/mask_002.jpg,,,,,,,,,,,,,,,,,,,,,,,,,,,,,,,,,,,,,,,,,,,0,1,1,1,1,,,,,,,,,,,,,,,,,,,,,,,,,,,,,,,,,,,,,,,,,,,,,,
024271,001,2022-11-20_23h48.03.818,Info_measure_main_exp,2022.2.2,Linux x86_64,121.3150552,,,,,,,,,,,,,,,,,,masks/mask_003.jpg,,,,,,,,,,,,,,,,,,,,,,,,,,,,,,,,,,,,,,,,,,,0,2,2,2,1,,,,,,,,,,,,,,,,,,,,,,,,,,,,,,,,,,,,,,,,,,,,,,
024271,001,2022-11-20_23h48.03.818,Info_measure_main_exp,2022.2.2,Linux x86_64,121.3150552,,,,,,,,,,,,,,,,,,masks/mask_004.jpg,,,,,,,,,,,,,,,,,,,,,,,,,,,,,,,,,,,,,,,,,,,0,3,3,3,1,,,,,,,,,,,,,,,,,,,,,,,,,,,,,,,,,,,,,,,,,,,,,,
024271,001,2022-11-20_23h48.03.818,Info_measure_main_exp,2022.2.2,Linux x86_64,121.3150552,,,,,,,,,,,,,,,,,,masks/mask_005.jpg,,,,,,,,,,,,,,,,,,,,,,,,,,,,,,,,,,,,,,,,,,,0,4,4,4,1,,,,,,,,,,,,,,,,,,,,,,,,,,,,,,,,,,,,,,,,,,,,,,
024271,001,2022-11-20_23h48.03.818,Info_measure_main_exp,2022.2.2,Linux x86_64,121.3150552,,,,,,,,,,,,,,,,,,masks/mask_005.jpg,,,,,,,,,,,,,,,,,,,,,,,,,,,,,,,,,,,,,,,,,,,,,,,,0,0,0,4,1,,,,,,,,,,,,,,,,,,,,,,,,,,,,,,,,,,,,,,,,,
024271,001,2022-11-20_23h48.03.818,Info_measure_main_exp,2022.2.2,Linux x86_64,121.3150552,,,,,,,,,,,,,,,,,,masks/mask_003.jpg,,,,,,,,,,,,,,,,,,,,,,,,,,,,,,,,,,,,,,,,,,,,,,,,0,1,1,2,1,,,,,,,,,,,,,,,,,,,,,,,,,,,,,,,,,,,,,,,,,
024271,001,2022-11-20_23h48.03.818,Info_measure_main_exp,2022.2.2,Linux x86_64,121.3150552,,,,,,,,,,,,,,,,,,masks/mask_002.jpg,,,,,,,,,,,,,,,,,,,,,,,,,,,,,,,,,,,,,,,,,,,,,,,,0,2,2,1,1,,,,,,,,,,,,,,,,,,,,,,,,,,,,,,,,,,,,,,,,,
024271,001,2022-11-20_23h48.03.818,Info_measure_main_exp,2022.2.2,Linux x86_64,121.3150552,,,,,,,,,,,,,,,,,,masks/mask_001.jpg,,,,,,,,,,,,,,,,,,,,,,,,,,,,,,,,,,,,,,,,,,,,,,,,0,3,3,0,1,,,,,,,,,,,,,,,,,,,,,,,,,,,,,,,,,,,,,,,,,
024271,001,2022-11-20_23h48.03.818,Info_measure_main_exp,2022.2.2,Linux x86_64,121.3150552,,,,,,,,,,,,,,,,,,masks/mask_004.jpg,,,,,,,,,,,,,,,,,,,,,,,,,,,,,,,,,,,,,,,,,,,,,,,,0,4,4,3,1,,,,,,,,,,,,,,,,,,,,,,,,,,,,,,,,,,,,,,,,,
024271,001,2022-11-20_23h48.03.818,Info_measure_main_exp,2022.2.2,Linux x86_64,121.3150552,,,,,,,,,,,,,,,,,,,,,,,,,,,,,,7,0.6,1,,,,,,,,,,,,0,131,5,5,2190,2082,absent_patch/patch0002190.jpg,absent_patch/patch0002082.jpg,,,,,,,,,,,,,,,,,,,,0.04537037,0.118518519,1,0,0,response1disk,24,-0.00462963,0,1,0,0,center_square,0,23,23,112,1,,,,,,,,,,,,,,,,,,,,,,,
024271,001,2022-11-20_23h48.03.818,Info_measure_main_exp,2022.2.2,Linux x86_64,121.3150552,,,,,,,,,,,,,,,,,,masks/mask_003.jpg,,,,,,,,,,,,,,,,,,,,,,,,,,,,,,,,,,,,,,,,,,,0,0,0,2,1,,,,,,,,,,,,,,,,,,,,,,,,,,,,,,,,,,,,,,,,,,,,,,
024271,001,2022-11-20_23h48.03.818,Info_measure_main_exp,2022.2.2,Linux x86_64,121.3150552,,,,,,,,,,,,,,,,,,masks/mask_004.jpg,,,,,,,,,,,,,,,,,,,,,,,,,,,,,,,,,,,,,,,,,,,0,1,1,3,1,,,,,,,,,,,,,,,,,,,,,,,,,,,,,,,,,,,,,,,,,,,,,,
024271,001,2022-11-20_23h48.03.818,Info_measure_main_exp,2022.2.2,Linux x86_64,121.3150552,,,,,,,,,,,,,,,,,,masks/mask_002.jpg,,,,,,,,,,,,,,,,,,,,,,,,,,,,,,,,,,,,,,,,,,,0,2,2,1,1,,,,,,,,,,,,,,,,,,,,,,,,,,,,,,,,,,,,,,,,,,,,,,
024271,001,2022-11-20_23h48.03.818,Info_measure_main_exp,2022.2.2,Linux x86_64,121.3150552,,,,,,,,,,,,,,,,,,masks/mask_005.jpg,,,,,,,,,,,,,,,,,,,,,,,,,,,,,,,,,,,,,,,,,,,0,3,3,4,1,,,,,,,,,,,,,,,,,,,,,,,,,,,,,,,,,,,,,,,,,,,,,,
024271,001,2022-11-20_23h48.03.818,Info_measure_main_exp,2022.2.2,Linux x86_64,121.3150552,,,,,,,,,,,,,,,,,,masks/mask_001.jpg,,,,,,,,,,,,,,,,,,,,,,,,,,,,,,,,,,,,,,,,,,,0,4,4,0,1,,,,,,,,,,,,,,,,,,,,,,,,,,,,,,,,,,,,,,,,,,,,,,
024271,001,2022-11-20_23h48.03.818,Info_measure_main_exp,2022.2.2,Linux x86_64,121.3150552,,,,,,,,,,,,,,,,,,masks/mask_002.jpg,,,,,,,,,,,,,,,,,,,,,,,,,,,,,,,,,,,,,,,,,,,,,,,,0,0,0,1,1,,,,,,,,,,,,,,,,,,,,,,,,,,,,,,,,,,,,,,,,,
024271,001,2022-11-20_23h48.03.818,Info_measure_main_exp,2022.2.2,Linux x86_64,121.3150552,,,,,,,,,,,,,,,,,,masks/mask_003.jpg,,,,,,,,,,,,,,,,,,,,,,,,,,,,,,,,,,,,,,,,,,,,,,,,0,1,1,2,1,,,,,,,,,,,,,,,,,,,,,,,,,,,,,,,,,,,,,,,,,
024271,001,2022-11-20_23h48.03.818,Info_measure_main_exp,2022.2.2,Linux x86_64,121.3150552,,,,,,,,,,,,,,,,,,masks/mask_005.jpg,,,,,,,,,,,,,,,,,,,,,,,,,,,,,,,,,,,,,,,,,,,,,,,,0,2,2,4,1,,,,,,,,,,,,,,,,,,,,,,,,,,,,,,,,,,,,,,,,,
024271,001,2022-11-20_23h48.03.818,Info_measure_main_exp,2022.2.2,Linux x86_64,121.3150552,,,,,,,,,,,,,,,,,,masks/mask_004.jpg,,,,,,,,,,,,,,,,,,,,,,,,,,,,,,,,,,,,,,,,,,,,,,,,0,3,3,3,1,,,,,,,,,,,,,,,,,,,,,,,,,,,,,,,,,,,,,,,,,
024271,001,2022-11-20_23h48.03.818,Info_measure_main_exp,2022.2.2,Linux x86_64,121.3150552,,,,,,,,,,,,,,,,,,masks/mask_001.jpg,,,,,,,,,,,,,,,,,,,,,,,,,,,,,,,,,,,,,,,,,,,,,,,,0,4,4,0,1,,,,,,,,,,,,,,,,,,,,,,,,,,,,,,,,,,,,,,,,,
024271,001,2022-11-20_23h48.03.818,Info_measure_main_exp,2022.2.2,Linux x86_64,121.3150552,,,,,,,,,,,,,,,,,,,,,,,,,,,,,,7,0.6376,1,,,,,,,,,,,,0,131,5,5,1986,2142,absent_patch/patch0001986.jpg,absent_patch/patch0002142.jpg,,,,,,,,,,,,,,,,,,,,0.039814815,0.075,1,0,0,response1disk,25,-0.007407407,0.006481481,1,0,0,center_square,0,24,24,76,1,,,,,,,,,,,,,,,,,,,,,,,
024271,001,2022-11-20_23h48.03.818,Info_measure_main_exp,2022.2.2,Linux x86_64,121.3150552,,,,,,,,,,,,,,,,,,masks/mask_005.jpg,,,,,,,,,,,,,,,,,,,,,,,,,,,,,,,,,,,,,,,,,,,0,0,0,4,1,,,,,,,,,,,,,,,,,,,,,,,,,,,,,,,,,,,,,,,,,,,,,,
024271,001,2022-11-20_23h48.03.818,Info_measure_main_exp,2022.2.2,Linux x86_64,121.3150552,,,,,,,,,,,,,,,,,,masks/mask_002.jpg,,,,,,,,,,,,,,,,,,,,,,,,,,,,,,,,,,,,,,,,,,,0,1,1,1,1,,,,,,,,,,,,,,,,,,,,,,,,,,,,,,,,,,,,,,,,,,,,,,
024271,001,2022-11-20_23h48.03.818,Info_measure_main_exp,2022.2.2,Linux x86_64,121.3150552,,,,,,,,,,,,,,,,,,masks/mask_001.jpg,,,,,,,,,,,,,,,,,,,,,,,,,,,,,,,,,,,,,,,,,,,0,2,2,0,1,,,,,,,,,,,,,,,,,,,,,,,,,,,,,,,,,,,,,,,,,,,,,,
024271,001,2022-11-20_23h48.03.818,Info_measure_main_exp,2022.2.2,Linux x86_64,121.3150552,,,,,,,,,,,,,,,,,,masks/mask_003.jpg,,,,,,,,,,,,,,,,,,,,,,,,,,,,,,,,,,,,,,,,,,,0,3,3,2,1,,,,,,,,,,,,,,,,,,,,,,,,,,,,,,,,,,,,,,,,,,,,,,
024271,001,2022-11-20_23h48.03.818,Info_measure_main_exp,2022.2.2,Linux x86_64,121.3150552,,,,,,,,,,,,,,,,,,masks/mask_004.jpg,,,,,,,,,,,,,,,,,,,,,,,,,,,,,,,,,,,,,,,,,,,0,4,4,3,1,,,,,,,,,,,,,,,,,,,,,,,,,,,,,,,,,,,,,,,,,,,,,,
024271,001,2022-11-20_23h48.03.818,Info_measure_main_exp,2022.2.2,Linux x86_64,121.3150552,,,,,,,,,,,,,,,,,,masks/mask_002.jpg,,,,,,,,,,,,,,,,,,,,,,,,,,,,,,,,,,,,,,,,,,,,,,,,0,0,0,1,1,,,,,,,,,,,,,,,,,,,,,,,,,,,,,,,,,,,,,,,,,
024271,001,2022-11-20_23h48.03.818,Info_measure_main_exp,2022.2.2,Linux x86_64,121.3150552,,,,,,,,,,,,,,,,,,masks/mask_005.jpg,,,,,,,,,,,,,,,,,,,,,,,,,,,,,,,,,,,,,,,,,,,,,,,,0,1,1,4,1,,,,,,,,,,,,,,,,,,,,,,,,,,,,,,,,,,,,,,,,,
024271,001,2022-11-20_23h48.03.818,Info_measure_main_exp,2022.2.2,Linux x86_64,121.3150552,,,,,,,,,,,,,,,,,,masks/mask_001.jpg,,,,,,,,,,,,,,,,,,,,,,,,,,,,,,,,,,,,,,,,,,,,,,,,0,2,2,0,1,,,,,,,,,,,,,,,,,,,,,,,,,,,,,,,,,,,,,,,,,
024271,001,2022-11-20_23h48.03.818,Info_measure_main_exp,2022.2.2,Linux x86_64,121.3150552,,,,,,,,,,,,,,,,,,masks/mask_003.jpg,,,,,,,,,,,,,,,,,,,,,,,,,,,,,,,,,,,,,,,,,,,,,,,,0,3,3,2,1,,,,,,,,,,,,,,,,,,,,,,,,,,,,,,,,,,,,,,,,,
024271,001,2022-11-20_23h48.03.818,Info_measure_main_exp,2022.2.2,Linux x86_64,121.3150552,,,,,,,,,,,,,,,,,,masks/mask_004.jpg,,,,,,,,,,,,,,,,,,,,,,,,,,,,,,,,,,,,,,,,,,,,,,,,0,4,4,3,1,,,,,,,,,,,,,,,,,,,,,,,,,,,,,,,,,,,,,,,,,
024271,001,2022-11-20_23h48.03.818,Info_measure_main_exp,2022.2.2,Linux x86_64,121.3150552,,,,,,,,,,,,,,,,,,,,,,,,,,,,,,7,0.6091,1,,,,,,,,,,,,1,131,5,5,1,1974,present_patch/cong_131_5_a.jpg,absent_patch/patch0001974.jpg,,,,,,,,,,,,,,,,,,,,0.036111111,0.09537037,1,0,0,response1disk,26,0.006481481,0.005555556,1,0,0,center_square,0,25,25,69,1,,,,,,,,,,,,,,,,,,,,,,,
024271,001,2022-11-20_23h48.03.818,Info_measure_main_exp,2022.2.2,Linux x86_64,121.3150552,,,,,,,,,,,,,,,,,,masks/mask_001.jpg,,,,,,,,,,,,,,,,,,,,,,,,,,,,,,,,,,,,,,,,,,,0,0,0,0,1,,,,,,,,,,,,,,,,,,,,,,,,,,,,,,,,,,,,,,,,,,,,,,
024271,001,2022-11-20_23h48.03.818,Info_measure_main_exp,2022.2.2,Linux x86_64,121.3150552,,,,,,,,,,,,,,,,,,masks/mask_003.jpg,,,,,,,,,,,,,,,,,,,,,,,,,,,,,,,,,,,,,,,,,,,0,1,1,2,1,,,,,,,,,,,,,,,,,,,,,,,,,,,,,,,,,,,,,,,,,,,,,,
024271,001,2022-11-20_23h48.03.818,Info_measure_main_exp,2022.2.2,Linux x86_64,121.3150552,,,,,,,,,,,,,,,,,,masks/mask_004.jpg,,,,,,,,,,,,,,,,,,,,,,,,,,,,,,,,,,,,,,,,,,,0,2,2,3,1,,,,,,,,,,,,,,,,,,,,,,,,,,,,,,,,,,,,,,,,,,,,,,
024271,001,2022-11-20_23h48.03.818,Info_measure_main_exp,2022.2.2,Linux x86_64,121.3150552,,,,,,,,,,,,,,,,,,masks/mask_002.jpg,,,,,,,,,,,,,,,,,,,,,,,,,,,,,,,,,,,,,,,,,,,0,3,3,1,1,,,,,,,,,,,,,,,,,,,,,,,,,,,,,,,,,,,,,,,,,,,,,,
024271,001,2022-11-20_23h48.03.818,Info_measure_main_exp,2022.2.2,Linux x86_64,121.3150552,,,,,,,,,,,,,,,,,,masks/mask_005.jpg,,,,,,,,,,,,,,,,,,,,,,,,,,,,,,,,,,,,,,,,,,,0,4,4,4,1,,,,,,,,,,,,,,,,,,,,,,,,,,,,,,,,,,,,,,,,,,,,,,
024271,001,2022-11-20_23h48.03.818,Info_measure_main_exp,2022.2.2,Linux x86_64,121.3150552,,,,,,,,,,,,,,,,,,masks/mask_001.jpg,,,,,,,,,,,,,,,,,,,,,,,,,,,,,,,,,,,,,,,,,,,,,,,,0,0,0,0,1,,,,,,,,,,,,,,,,,,,,,,,,,,,,,,,,,,,,,,,,,
024271,001,2022-11-20_23h48.03.818,Info_measure_main_exp,2022.2.2,Linux x86_64,121.3150552,,,,,,,,,,,,,,,,,,masks/mask_002.jpg,,,,,,,,,,,,,,,,,,,,,,,,,,,,,,,,,,,,,,,,,,,,,,,,0,1,1,1,1,,,,,,,,,,,,,,,,,,,,,,,,,,,,,,,,,,,,,,,,,
024271,001,2022-11-20_23h48.03.818,Info_measure_main_exp,2022.2.2,Linux x86_64,121.3150552,,,,,,,,,,,,,,,,,,masks/mask_004.jpg,,,,,,,,,,,,,,,,,,,,,,,,,,,,,,,,,,,,,,,,,,,,,,,,0,2,2,3,1,,,,,,,,,,,,,,,,,,,,,,,,,,,,,,,,,,,,,,,,,
024271,001,2022-11-20_23h48.03.818,Info_measure_main_exp,2022.2.2,Linux x86_64,121.3150552,,,,,,,,,,,,,,,,,,masks/mask_005.jpg,,,,,,,,,,,,,,,,,,,,,,,,,,,,,,,,,,,,,,,,,,,,,,,,0,3,3,4,1,,,,,,,,,,,,,,,,,,,,,,,,,,,,,,,,,,,,,,,,,
024271,001,2022-11-20_23h48.03.818,Info_measure_main_exp,2022.2.2,Linux x86_64,121.3150552,,,,,,,,,,,,,,,,,,masks/mask_003.jpg,,,,,,,,,,,,,,,,,,,,,,,,,,,,,,,,,,,,,,,,,,,,,,,,0,4,4,2,1,,,,,,,,,,,,,,,,,,,,,,,,,,,,,,,,,,,,,,,,,
024271,001,2022-11-20_23h48.03.818,Info_measure_main_exp,2022.2.2,Linux x86_64,121.3150552,,,,,,,,,,,,,,,,,,,,,,,,,,,,,,0,0.6255,1,,,,,,,,,,,,0,131,5,5,2178,2178,absent_patch/patch0002178.jpg,absent_patch/patch0002178.jpg,,,,,,,,,,,,,,,,,,,,-0.036111111,0.106481481,1,0,0,response7disk,27,0.013888889,0,1,0,0,center_square,0,26,26,98,1,,,,,,,,,,,,,,,,,,,,,,,
024271,001,2022-11-20_23h48.03.818,Info_measure_main_exp,2022.2.2,Linux x86_64,121.3150552,,,,,,,,,,,,,,,,,,masks/mask_001.jpg,,,,,,,,,,,,,,,,,,,,,,,,,,,,,,,,,,,,,,,,,,,0,0,0,0,1,,,,,,,,,,,,,,,,,,,,,,,,,,,,,,,,,,,,,,,,,,,,,,
024271,001,2022-11-20_23h48.03.818,Info_measure_main_exp,2022.2.2,Linux x86_64,121.3150552,,,,,,,,,,,,,,,,,,masks/mask_004.jpg,,,,,,,,,,,,,,,,,,,,,,,,,,,,,,,,,,,,,,,,,,,0,1,1,3,1,,,,,,,,,,,,,,,,,,,,,,,,,,,,,,,,,,,,,,,,,,,,,,
024271,001,2022-11-20_23h48.03.818,Info_measure_main_exp,2022.2.2,Linux x86_64,121.3150552,,,,,,,,,,,,,,,,,,masks/mask_003.jpg,,,,,,,,,,,,,,,,,,,,,,,,,,,,,,,,,,,,,,,,,,,0,2,2,2,1,,,,,,,,,,,,,,,,,,,,,,,,,,,,,,,,,,,,,,,,,,,,,,
024271,001,2022-11-20_23h48.03.818,Info_measure_main_exp,2022.2.2,Linux x86_64,121.3150552,,,,,,,,,,,,,,,,,,masks/mask_005.jpg,,,,,,,,,,,,,,,,,,,,,,,,,,,,,,,,,,,,,,,,,,,0,3,3,4,1,,,,,,,,,,,,,,,,,,,,,,,,,,,,,,,,,,,,,,,,,,,,,,
024271,001,2022-11-20_23h48.03.818,Info_measure_main_exp,2022.2.2,Linux x86_64,121.3150552,,,,,,,,,,,,,,,,,,masks/mask_002.jpg,,,,,,,,,,,,,,,,,,,,,,,,,,,,,,,,,,,,,,,,,,,0,4,4,1,1,,,,,,,,,,,,,,,,,,,,,,,,,,,,,,,,,,,,,,,,,,,,,,
024271,001,2022-11-20_23h48.03.818,Info_measure_main_exp,2022.2.2,Linux x86_64,121.3150552,,,,,,,,,,,,,,,,,,masks/mask_004.jpg,,,,,,,,,,,,,,,,,,,,,,,,,,,,,,,,,,,,,,,,,,,,,,,,0,0,0,3,1,,,,,,,,,,,,,,,,,,,,,,,,,,,,,,,,,,,,,,,,,
024271,001,2022-11-20_23h48.03.818,Info_measure_main_exp,2022.2.2,Linux x86_64,121.3150552,,,,,,,,,,,,,,,,,,masks/mask_001.jpg,,,,,,,,,,,,,,,,,,,,,,,,,,,,,,,,,,,,,,,,,,,,,,,,0,1,1,0,1,,,,,,,,,,,,,,,,,,,,,,,,,,,,,,,,,,,,,,,,,
024271,001,2022-11-20_23h48.03.818,Info_measure_main_exp,2022.2.2,Linux x86_64,121.3150552,,,,,,,,,,,,,,,,,,masks/mask_005.jpg,,,,,,,,,,,,,,,,,,,,,,,,,,,,,,,,,,,,,,,,,,,,,,,,0,2,2,4,1,,,,,,,,,,,,,,,,,,,,,,,,,,,,,,,,,,,,,,,,,
024271,001,2022-11-20_23h48.03.818,Info_measure_main_exp,2022.2.2,Linux x86_64,121.3150552,,,,,,,,,,,,,,,,,,masks/mask_003.jpg,,,,,,,,,,,,,,,,,,,,,,,,,,,,,,,,,,,,,,,,,,,,,,,,0,3,3,2,1,,,,,,,,,,,,,,,,,,,,,,,,,,,,,,,,,,,,,,,,,
024271,001,2022-11-20_23h48.03.818,Info_measure_main_exp,2022.2.2,Linux x86_64,121.3150552,,,,,,,,,,,,,,,,,,masks/mask_002.jpg,,,,,,,,,,,,,,,,,,,,,,,,,,,,,,,,,,,,,,,,,,,,,,,,0,4,4,1,1,,,,,,,,,,,,,,,,,,,,,,,,,,,,,,,,,,,,,,,,,
024271,001,2022-11-20_23h48.03.818,Info_measure_main_exp,2022.2.2,Linux x86_64,121.3150552,,,,,,,,,,,,,,,,,,,,,,,,,,,,,,7,0.5646,1,,,,,,,,,,,,0,131,5,5,2142,2238,absent_patch/patch0002142.jpg,absent_patch/patch0002238.jpg,,,,,,,,,,,,,,,,,,,,0.024074074,0.07962963,1,0,0,response1disk,28,0.000925926,0.002777778,1,0,0,center_square,0,27,27,101,1,,,,,,,,,,,,,,,,,,,,,,,
024271,001,2022-11-20_23h48.03.818,Info_measure_main_exp,2022.2.2,Linux x86_64,121.3150552,,,,,,,,,,,,,,,,,,masks/mask_003.jpg,,,,,,,,,,,,,,,,,,,,,,,,,,,,,,,,,,,,,,,,,,,0,0,0,2,1,,,,,,,,,,,,,,,,,,,,,,,,,,,,,,,,,,,,,,,,,,,,,,
024271,001,2022-11-20_23h48.03.818,Info_measure_main_exp,2022.2.2,Linux x86_64,121.3150552,,,,,,,,,,,,,,,,,,masks/mask_001.jpg,,,,,,,,,,,,,,,,,,,,,,,,,,,,,,,,,,,,,,,,,,,0,1,1,0,1,,,,,,,,,,,,,,,,,,,,,,,,,,,,,,,,,,,,,,,,,,,,,,
024271,001,2022-11-20_23h48.03.818,Info_measure_main_exp,2022.2.2,Linux x86_64,121.3150552,,,,,,,,,,,,,,,,,,masks/mask_004.jpg,,,,,,,,,,,,,,,,,,,,,,,,,,,,,,,,,,,,,,,,,,,0,2,2,3,1,,,,,,,,,,,,,,,,,,,,,,,,,,,,,,,,,,,,,,,,,,,,,,
024271,001,2022-11-20_23h48.03.818,Info_measure_main_exp,2022.2.2,Linux x86_64,121.3150552,,,,,,,,,,,,,,,,,,masks/mask_002.jpg,,,,,,,,,,,,,,,,,,,,,,,,,,,,,,,,,,,,,,,,,,,0,3,3,1,1,,,,,,,,,,,,,,,,,,,,,,,,,,,,,,,,,,,,,,,,,,,,,,
024271,001,2022-11-20_23h48.03.818,Info_measure_main_exp,2022.2.2,Linux x86_64,121.3150552,,,,,,,,,,,,,,,,,,masks/mask_005.jpg,,,,,,,,,,,,,,,,,,,,,,,,,,,,,,,,,,,,,,,,,,,0,4,4,4,1,,,,,,,,,,,,,,,,,,,,,,,,,,,,,,,,,,,,,,,,,,,,,,
024271,001,2022-11-20_23h48.03.818,Info_measure_main_exp,2022.2.2,Linux x86_64,121.3150552,,,,,,,,,,,,,,,,,,masks/mask_002.jpg,,,,,,,,,,,,,,,,,,,,,,,,,,,,,,,,,,,,,,,,,,,,,,,,0,0,0,1,1,,,,,,,,,,,,,,,,,,,,,,,,,,,,,,,,,,,,,,,,,
024271,001,2022-11-20_23h48.03.818,Info_measure_main_exp,2022.2.2,Linux x86_64,121.3150552,,,,,,,,,,,,,,,,,,masks/mask_004.jpg,,,,,,,,,,,,,,,,,,,,,,,,,,,,,,,,,,,,,,,,,,,,,,,,0,1,1,3,1,,,,,,,,,,,,,,,,,,,,,,,,,,,,,,,,,,,,,,,,,
024271,001,2022-11-20_23h48.03.818,Info_measure_main_exp,2022.2.2,Linux x86_64,121.3150552,,,,,,,,,,,,,,,,,,masks/mask_003.jpg,,,,,,,,,,,,,,,,,,,,,,,,,,,,,,,,,,,,,,,,,,,,,,,,0,2,2,2,1,,,,,,,,,,,,,,,,,,,,,,,,,,,,,,,,,,,,,,,,,
024271,001,2022-11-20_23h48.03.818,Info_measure_main_exp,2022.2.2,Linux x86_64,121.3150552,,,,,,,,,,,,,,,,,,masks/mask_001.jpg,,,,,,,,,,,,,,,,,,,,,,,,,,,,,,,,,,,,,,,,,,,,,,,,0,3,3,0,1,,,,,,,,,,,,,,,,,,,,,,,,,,,,,,,,,,,,,,,,,
024271,001,2022-11-20_23h48.03.818,Info_measure_main_exp,2022.2.2,Linux x86_64,121.3150552,,,,,,,,,,,,,,,,,,masks/mask_005.jpg,,,,,,,,,,,,,,,,,,,,,,,,,,,,,,,,,,,,,,,,,,,,,,,,0,4,4,4,1,,,,,,,,,,,,,,,,,,,,,,,,,,,,,,,,,,,,,,,,,
024271,001,2022-11-20_23h48.03.818,Info_measure_main_exp,2022.2.2,Linux x86_64,121.3150552,,,,,,,,,,,,,,,,,,,,,,,,,,,,,,7,0.4987,1,,,,,,,,,,,,0,131,5,5,2298,2214,absent_patch/patch0002298.jpg,absent_patch/patch0002214.jpg,,,,,,,,,,,,,,,,,,,,0.036111111,0.087962963,1,0,0,response1disk,29,0.011111111,0.011111111,1,0,0,center_square,0,28,28,99,1,,,,,,,,,,,,,,,,,,,,,,,
024271,001,2022-11-20_23h48.03.818,Info_measure_main_exp,2022.2.2,Linux x86_64,121.3150552,,,,,,,,,,,,,,,,,,masks/mask_005.jpg,,,,,,,,,,,,,,,,,,,,,,,,,,,,,,,,,,,,,,,,,,,0,0,0,4,1,,,,,,,,,,,,,,,,,,,,,,,,,,,,,,,,,,,,,,,,,,,,,,
024271,001,2022-11-20_23h48.03.818,Info_measure_main_exp,2022.2.2,Linux x86_64,121.3150552,,,,,,,,,,,,,,,,,,masks/mask_002.jpg,,,,,,,,,,,,,,,,,,,,,,,,,,,,,,,,,,,,,,,,,,,0,1,1,1,1,,,,,,,,,,,,,,,,,,,,,,,,,,,,,,,,,,,,,,,,,,,,,,
024271,001,2022-11-20_23h48.03.818,Info_measure_main_exp,2022.2.2,Linux x86_64,121.3150552,,,,,,,,,,,,,,,,,,masks/mask_001.jpg,,,,,,,,,,,,,,,,,,,,,,,,,,,,,,,,,,,,,,,,,,,0,2,2,0,1,,,,,,,,,,,,,,,,,,,,,,,,,,,,,,,,,,,,,,,,,,,,,,
024271,001,2022-11-20_23h48.03.818,Info_measure_main_exp,2022.2.2,Linux x86_64,121.3150552,,,,,,,,,,,,,,,,,,masks/mask_004.jpg,,,,,,,,,,,,,,,,,,,,,,,,,,,,,,,,,,,,,,,,,,,0,3,3,3,1,,,,,,,,,,,,,,,,,,,,,,,,,,,,,,,,,,,,,,,,,,,,,,
024271,001,2022-11-20_23h48.03.818,Info_measure_main_exp,2022.2.2,Linux x86_64,121.3150552,,,,,,,,,,,,,,,,,,masks/mask_003.jpg,,,,,,,,,,,,,,,,,,,,,,,,,,,,,,,,,,,,,,,,,,,0,4,4,2,1,,,,,,,,,,,,,,,,,,,,,,,,,,,,,,,,,,,,,,,,,,,,,,
024271,001,2022-11-20_23h48.03.818,Info_measure_main_exp,2022.2.2,Linux x86_64,121.3150552,,,,,,,,,,,,,,,,,,masks/mask_004.jpg,,,,,,,,,,,,,,,,,,,,,,,,,,,,,,,,,,,,,,,,,,,,,,,,0,0,0,3,1,,,,,,,,,,,,,,,,,,,,,,,,,,,,,,,,,,,,,,,,,
024271,001,2022-11-20_23h48.03.818,Info_measure_main_exp,2022.2.2,Linux x86_64,121.3150552,,,,,,,,,,,,,,,,,,masks/mask_001.jpg,,,,,,,,,,,,,,,,,,,,,,,,,,,,,,,,,,,,,,,,,,,,,,,,0,1,1,0,1,,,,,,,,,,,,,,,,,,,,,,,,,,,,,,,,,,,,,,,,,
024271,001,2022-11-20_23h48.03.818,Info_measure_main_exp,2022.2.2,Linux x86_64,121.3150552,,,,,,,,,,,,,,,,,,masks/mask_003.jpg,,,,,,,,,,,,,,,,,,,,,,,,,,,,,,,,,,,,,,,,,,,,,,,,0,2,2,2,1,,,,,,,,,,,,,,,,,,,,,,,,,,,,,,,,,,,,,,,,,
024271,001,2022-11-20_23h48.03.818,Info_measure_main_exp,2022.2.2,Linux x86_64,121.3150552,,,,,,,,,,,,,,,,,,masks/mask_005.jpg,,,,,,,,,,,,,,,,,,,,,,,,,,,,,,,,,,,,,,,,,,,,,,,,0,3,3,4,1,,,,,,,,,,,,,,,,,,,,,,,,,,,,,,,,,,,,,,,,,
024271,001,2022-11-20_23h48.03.818,Info_measure_main_exp,2022.2.2,Linux x86_64,121.3150552,,,,,,,,,,,,,,,,,,masks/mask_002.jpg,,,,,,,,,,,,,,,,,,,,,,,,,,,,,,,,,,,,,,,,,,,,,,,,0,4,4,1,1,,,,,,,,,,,,,,,,,,,,,,,,,,,,,,,,,,,,,,,,,
024271,001,2022-11-20_23h48.03.818,Info_measure_main_exp,2022.2.2,Linux x86_64,121.3150552,,,,,,,,,,,,,,,,,,,,,,,,,,,,,,7,0.756,1,,,,,,,,,,,,0,131,5,5,2154,2238,absent_patch/patch0002154.jpg,absent_patch/patch0002238.jpg,,,,,,,,,,,,,,,,,,,,0.019444444,0.062037037,1,0,0,response1disk,30,0.001851852,0.00462963,1,0,0,center_square,0,29,29,21,1,,,,,,,,,,,,,,,,,,,,,,,
024271,001,2022-11-20_23h48.03.818,Info_measure_main_exp,2022.2.2,Linux x86_64,121.3150552,,,,,,,,,,,,,,,,,,masks/mask_005.jpg,,,,,,,,,,,,,,,,,,,,,,,,,,,,,,,,,,,,,,,,,,,0,0,0,4,1,,,,,,,,,,,,,,,,,,,,,,,,,,,,,,,,,,,,,,,,,,,,,,
024271,001,2022-11-20_23h48.03.818,Info_measure_main_exp,2022.2.2,Linux x86_64,121.3150552,,,,,,,,,,,,,,,,,,masks/mask_003.jpg,,,,,,,,,,,,,,,,,,,,,,,,,,,,,,,,,,,,,,,,,,,0,1,1,2,1,,,,,,,,,,,,,,,,,,,,,,,,,,,,,,,,,,,,,,,,,,,,,,
024271,001,2022-11-20_23h48.03.818,Info_measure_main_exp,2022.2.2,Linux x86_64,121.3150552,,,,,,,,,,,,,,,,,,masks/mask_004.jpg,,,,,,,,,,,,,,,,,,,,,,,,,,,,,,,,,,,,,,,,,,,0,2,2,3,1,,,,,,,,,,,,,,,,,,,,,,,,,,,,,,,,,,,,,,,,,,,,,,
024271,001,2022-11-20_23h48.03.818,Info_measure_main_exp,2022.2.2,Linux x86_64,121.3150552,,,,,,,,,,,,,,,,,,masks/mask_001.jpg,,,,,,,,,,,,,,,,,,,,,,,,,,,,,,,,,,,,,,,,,,,0,3,3,0,1,,,,,,,,,,,,,,,,,,,,,,,,,,,,,,,,,,,,,,,,,,,,,,
024271,001,2022-11-20_23h48.03.818,Info_measure_main_exp,2022.2.2,Linux x86_64,121.3150552,,,,,,,,,,,,,,,,,,masks/mask_002.jpg,,,,,,,,,,,,,,,,,,,,,,,,,,,,,,,,,,,,,,,,,,,0,4,4,1,1,,,,,,,,,,,,,,,,,,,,,,,,,,,,,,,,,,,,,,,,,,,,,,
024271,001,2022-11-20_23h48.03.818,Info_measure_main_exp,2022.2.2,Linux x86_64,121.3150552,,,,,,,,,,,,,,,,,,masks/mask_005.jpg,,,,,,,,,,,,,,,,,,,,,,,,,,,,,,,,,,,,,,,,,,,,,,,,0,0,0,4,1,,,,,,,,,,,,,,,,,,,,,,,,,,,,,,,,,,,,,,,,,
024271,001,2022-11-20_23h48.03.818,Info_measure_main_exp,2022.2.2,Linux x86_64,121.3150552,,,,,,,,,,,,,,,,,,masks/mask_004.jpg,,,,,,,,,,,,,,,,,,,,,,,,,,,,,,,,,,,,,,,,,,,,,,,,0,1,1,3,1,,,,,,,,,,,,,,,,,,,,,,,,,,,,,,,,,,,,,,,,,
024271,001,2022-11-20_23h48.03.818,Info_measure_main_exp,2022.2.2,Linux x86_64,121.3150552,,,,,,,,,,,,,,,,,,masks/mask_002.jpg,,,,,,,,,,,,,,,,,,,,,,,,,,,,,,,,,,,,,,,,,,,,,,,,0,2,2,1,1,,,,,,,,,,,,,,,,,,,,,,,,,,,,,,,,,,,,,,,,,
024271,001,2022-11-20_23h48.03.818,Info_measure_main_exp,2022.2.2,Linux x86_64,121.3150552,,,,,,,,,,,,,,,,,,masks/mask_001.jpg,,,,,,,,,,,,,,,,,,,,,,,,,,,,,,,,,,,,,,,,,,,,,,,,0,3,3,0,1,,,,,,,,,,,,,,,,,,,,,,,,,,,,,,,,,,,,,,,,,
024271,001,2022-11-20_23h48.03.818,Info_measure_main_exp,2022.2.2,Linux x86_64,121.3150552,,,,,,,,,,,,,,,,,,masks/mask_003.jpg,,,,,,,,,,,,,,,,,,,,,,,,,,,,,,,,,,,,,,,,,,,,,,,,0,4,4,2,1,,,,,,,,,,,,,,,,,,,,,,,,,,,,,,,,,,,,,,,,,
024271,001,2022-11-20_23h48.03.818,Info_measure_main_exp,2022.2.2,Linux x86_64,121.3150552,,,,,,,,,,,,,,,,,,,,,,,,,,,,,,7,0.7596,1,,,,,,,,,,,,0,131,5,5,2142,2190,absent_patch/patch0002142.jpg,absent_patch/patch0002190.jpg,,,,,,,,,,,,,,,,,,,,0.025925926,0.062037037,1,0,0,response1disk,31,-0.000925926,0.012037037,1,0,0,center_square,0,30,30,70,1,,,,,,,,,,,,,,,,,,,,,,,
024271,001,2022-11-20_23h48.03.818,Info_measure_main_exp,2022.2.2,Linux x86_64,121.3150552,,,,,,,,,,,,,,,,,,masks/mask_005.jpg,,,,,,,,,,,,,,,,,,,,,,,,,,,,,,,,,,,,,,,,,,,0,0,0,4,1,,,,,,,,,,,,,,,,,,,,,,,,,,,,,,,,,,,,,,,,,,,,,,
024271,001,2022-11-20_23h48.03.818,Info_measure_main_exp,2022.2.2,Linux x86_64,121.3150552,,,,,,,,,,,,,,,,,,masks/mask_004.jpg,,,,,,,,,,,,,,,,,,,,,,,,,,,,,,,,,,,,,,,,,,,0,1,1,3,1,,,,,,,,,,,,,,,,,,,,,,,,,,,,,,,,,,,,,,,,,,,,,,
024271,001,2022-11-20_23h48.03.818,Info_measure_main_exp,2022.2.2,Linux x86_64,121.3150552,,,,,,,,,,,,,,,,,,masks/mask_001.jpg,,,,,,,,,,,,,,,,,,,,,,,,,,,,,,,,,,,,,,,,,,,0,2,2,0,1,,,,,,,,,,,,,,,,,,,,,,,,,,,,,,,,,,,,,,,,,,,,,,
024271,001,2022-11-20_23h48.03.818,Info_measure_main_exp,2022.2.2,Linux x86_64,121.3150552,,,,,,,,,,,,,,,,,,masks/mask_002.jpg,,,,,,,,,,,,,,,,,,,,,,,,,,,,,,,,,,,,,,,,,,,0,3,3,1,1,,,,,,,,,,,,,,,,,,,,,,,,,,,,,,,,,,,,,,,,,,,,,,
024271,001,2022-11-20_23h48.03.818,Info_measure_main_exp,2022.2.2,Linux x86_64,121.3150552,,,,,,,,,,,,,,,,,,masks/mask_003.jpg,,,,,,,,,,,,,,,,,,,,,,,,,,,,,,,,,,,,,,,,,,,0,4,4,2,1,,,,,,,,,,,,,,,,,,,,,,,,,,,,,,,,,,,,,,,,,,,,,,
024271,001,2022-11-20_23h48.03.818,Info_measure_main_exp,2022.2.2,Linux x86_64,121.3150552,,,,,,,,,,,,,,,,,,masks/mask_001.jpg,,,,,,,,,,,,,,,,,,,,,,,,,,,,,,,,,,,,,,,,,,,,,,,,0,0,0,0,1,,,,,,,,,,,,,,,,,,,,,,,,,,,,,,,,,,,,,,,,,
024271,001,2022-11-20_23h48.03.818,Info_measure_main_exp,2022.2.2,Linux x86_64,121.3150552,,,,,,,,,,,,,,,,,,masks/mask_005.jpg,,,,,,,,,,,,,,,,,,,,,,,,,,,,,,,,,,,,,,,,,,,,,,,,0,1,1,4,1,,,,,,,,,,,,,,,,,,,,,,,,,,,,,,,,,,,,,,,,,
024271,001,2022-11-20_23h48.03.818,Info_measure_main_exp,2022.2.2,Linux x86_64,121.3150552,,,,,,,,,,,,,,,,,,masks/mask_003.jpg,,,,,,,,,,,,,,,,,,,,,,,,,,,,,,,,,,,,,,,,,,,,,,,,0,2,2,2,1,,,,,,,,,,,,,,,,,,,,,,,,,,,,,,,,,,,,,,,,,
024271,001,2022-11-20_23h48.03.818,Info_measure_main_exp,2022.2.2,Linux x86_64,121.3150552,,,,,,,,,,,,,,,,,,masks/mask_004.jpg,,,,,,,,,,,,,,,,,,,,,,,,,,,,,,,,,,,,,,,,,,,,,,,,0,3,3,3,1,,,,,,,,,,,,,,,,,,,,,,,,,,,,,,,,,,,,,,,,,
024271,001,2022-11-20_23h48.03.818,Info_measure_main_exp,2022.2.2,Linux x86_64,121.3150552,,,,,,,,,,,,,,,,,,masks/mask_002.jpg,,,,,,,,,,,,,,,,,,,,,,,,,,,,,,,,,,,,,,,,,,,,,,,,0,4,4,1,1,,,,,,,,,,,,,,,,,,,,,,,,,,,,,,,,,,,,,,,,,
024271,001,2022-11-20_23h48.03.818,Info_measure_main_exp,2022.2.2,Linux x86_64,121.3150552,,,,,,,,,,,,,,,,,,,,,,,,,,,,,,7,0.6162,1,,,,,,,,,,,,0,131,5,5,2190,2178,absent_patch/patch0002190.jpg,absent_patch/patch0002178.jpg,,,,,,,,,,,,,,,,,,,,0.022222222,0.058333333,1,0,0,response1disk,32,-0.000925926,0.003703704,1,0,0,center_square,0,31,31,14,1,,,,,,,,,,,,,,,,,,,,,,,
024271,001,2022-11-20_23h48.03.818,Info_measure_main_exp,2022.2.2,Linux x86_64,121.3150552,,,,,,,,,,,,,,,,,,masks/mask_003.jpg,,,,,,,,,,,,,,,,,,,,,,,,,,,,,,,,,,,,,,,,,,,0,0,0,2,1,,,,,,,,,,,,,,,,,,,,,,,,,,,,,,,,,,,,,,,,,,,,,,
024271,001,2022-11-20_23h48.03.818,Info_measure_main_exp,2022.2.2,Linux x86_64,121.3150552,,,,,,,,,,,,,,,,,,masks/mask_005.jpg,,,,,,,,,,,,,,,,,,,,,,,,,,,,,,,,,,,,,,,,,,,0,1,1,4,1,,,,,,,,,,,,,,,,,,,,,,,,,,,,,,,,,,,,,,,,,,,,,,
024271,001,2022-11-20_23h48.03.818,Info_measure_main_exp,2022.2.2,Linux x86_64,121.3150552,,,,,,,,,,,,,,,,,,masks/mask_001.jpg,,,,,,,,,,,,,,,,,,,,,,,,,,,,,,,,,,,,,,,,,,,0,2,2,0,1,,,,,,,,,,,,,,,,,,,,,,,,,,,,,,,,,,,,,,,,,,,,,,
024271,001,2022-11-20_23h48.03.818,Info_measure_main_exp,2022.2.2,Linux x86_64,121.3150552,,,,,,,,,,,,,,,,,,masks/mask_004.jpg,,,,,,,,,,,,,,,,,,,,,,,,,,,,,,,,,,,,,,,,,,,0,3,3,3,1,,,,,,,,,,,,,,,,,,,,,,,,,,,,,,,,,,,,,,,,,,,,,,
024271,001,2022-11-20_23h48.03.818,Info_measure_main_exp,2022.2.2,Linux x86_64,121.3150552,,,,,,,,,,,,,,,,,,masks/mask_002.jpg,,,,,,,,,,,,,,,,,,,,,,,,,,,,,,,,,,,,,,,,,,,0,4,4,1,1,,,,,,,,,,,,,,,,,,,,,,,,,,,,,,,,,,,,,,,,,,,,,,
024271,001,2022-11-20_23h48.03.818,Info_measure_main_exp,2022.2.2,Linux x86_64,121.3150552,,,,,,,,,,,,,,,,,,masks/mask_003.jpg,,,,,,,,,,,,,,,,,,,,,,,,,,,,,,,,,,,,,,,,,,,,,,,,0,0,0,2,1,,,,,,,,,,,,,,,,,,,,,,,,,,,,,,,,,,,,,,,,,
024271,001,2022-11-20_23h48.03.818,Info_measure_main_exp,2022.2.2,Linux x86_64,121.3150552,,,,,,,,,,,,,,,,,,masks/mask_004.jpg,,,,,,,,,,,,,,,,,,,,,,,,,,,,,,,,,,,,,,,,,,,,,,,,0,1,1,3,1,,,,,,,,,,,,,,,,,,,,,,,,,,,,,,,,,,,,,,,,,
024271,001,2022-11-20_23h48.03.818,Info_measure_main_exp,2022.2.2,Linux x86_64,121.3150552,,,,,,,,,,,,,,,,,,masks/mask_005.jpg,,,,,,,,,,,,,,,,,,,,,,,,,,,,,,,,,,,,,,,,,,,,,,,,0,2,2,4,1,,,,,,,,,,,,,,,,,,,,,,,,,,,,,,,,,,,,,,,,,
024271,001,2022-11-20_23h48.03.818,Info_measure_main_exp,2022.2.2,Linux x86_64,121.3150552,,,,,,,,,,,,,,,,,,masks/mask_002.jpg,,,,,,,,,,,,,,,,,,,,,,,,,,,,,,,,,,,,,,,,,,,,,,,,0,3,3,1,1,,,,,,,,,,,,,,,,,,,,,,,,,,,,,,,,,,,,,,,,,
024271,001,2022-11-20_23h48.03.818,Info_measure_main_exp,2022.2.2,Linux x86_64,121.3150552,,,,,,,,,,,,,,,,,,masks/mask_001.jpg,,,,,,,,,,,,,,,,,,,,,,,,,,,,,,,,,,,,,,,,,,,,,,,,0,4,4,0,1,,,,,,,,,,,,,,,,,,,,,,,,,,,,,,,,,,,,,,,,,
024271,001,2022-11-20_23h48.03.818,Info_measure_main_exp,2022.2.2,Linux x86_64,121.3150552,,,,,,,,,,,,,,,,,,,,,,,,,,,,,,7,0.6862,1,,,,,,,,,,,,0,131,5,5,1974,1950,absent_patch/patch0001974.jpg,absent_patch/patch0001950.jpg,,,,,,,,,,,,,,,,,,,,0.021296296,0.075,1,0,0,response1disk,33,-0.009259259,-0.001851852,1,0,0,center_square,0,32,32,17,1,,,,,,,,,,,,,,,,,,,,,,,
024271,001,2022-11-20_23h48.03.818,Info_measure_main_exp,2022.2.2,Linux x86_64,121.3150552,,,,,,,,,,,,,,,,,,masks/mask_003.jpg,,,,,,,,,,,,,,,,,,,,,,,,,,,,,,,,,,,,,,,,,,,0,0,0,2,1,,,,,,,,,,,,,,,,,,,,,,,,,,,,,,,,,,,,,,,,,,,,,,
024271,001,2022-11-20_23h48.03.818,Info_measure_main_exp,2022.2.2,Linux x86_64,121.3150552,,,,,,,,,,,,,,,,,,masks/mask_005.jpg,,,,,,,,,,,,,,,,,,,,,,,,,,,,,,,,,,,,,,,,,,,0,1,1,4,1,,,,,,,,,,,,,,,,,,,,,,,,,,,,,,,,,,,,,,,,,,,,,,
024271,001,2022-11-20_23h48.03.818,Info_measure_main_exp,2022.2.2,Linux x86_64,121.3150552,,,,,,,,,,,,,,,,,,masks/mask_002.jpg,,,,,,,,,,,,,,,,,,,,,,,,,,,,,,,,,,,,,,,,,,,0,2,2,1,1,,,,,,,,,,,,,,,,,,,,,,,,,,,,,,,,,,,,,,,,,,,,,,
024271,001,2022-11-20_23h48.03.818,Info_measure_main_exp,2022.2.2,Linux x86_64,121.3150552,,,,,,,,,,,,,,,,,,masks/mask_001.jpg,,,,,,,,,,,,,,,,,,,,,,,,,,,,,,,,,,,,,,,,,,,0,3,3,0,1,,,,,,,,,,,,,,,,,,,,,,,,,,,,,,,,,,,,,,,,,,,,,,
024271,001,2022-11-20_23h48.03.818,Info_measure_main_exp,2022.2.2,Linux x86_64,121.3150552,,,,,,,,,,,,,,,,,,masks/mask_004.jpg,,,,,,,,,,,,,,,,,,,,,,,,,,,,,,,,,,,,,,,,,,,0,4,4,3,1,,,,,,,,,,,,,,,,,,,,,,,,,,,,,,,,,,,,,,,,,,,,,,
024271,001,2022-11-20_23h48.03.818,Info_measure_main_exp,2022.2.2,Linux x86_64,121.3150552,,,,,,,,,,,,,,,,,,masks/mask_004.jpg,,,,,,,,,,,,,,,,,,,,,,,,,,,,,,,,,,,,,,,,,,,,,,,,0,0,0,3,1,,,,,,,,,,,,,,,,,,,,,,,,,,,,,,,,,,,,,,,,,
024271,001,2022-11-20_23h48.03.818,Info_measure_main_exp,2022.2.2,Linux x86_64,121.3150552,,,,,,,,,,,,,,,,,,masks/mask_005.jpg,,,,,,,,,,,,,,,,,,,,,,,,,,,,,,,,,,,,,,,,,,,,,,,,0,1,1,4,1,,,,,,,,,,,,,,,,,,,,,,,,,,,,,,,,,,,,,,,,,
