participant,session,date,expName,psychopyVersion,OS,frameRate,space_press_continue.keys,space_press_continue.rt,space_press_continue_2.keys,space_press_continue_2.rt,space_press_continue_3.keys,space_press_continue_3.rt,space_press_continue_4.keys,space_press_continue_4.rt,space_press_continue_5.keys,space_press_continue_5.rt,space_press_continue_6.keys,space_press_continue_6.rt,prac_mask_loop_1.thisRepN,prac_mask_loop_1.thisTrialN,prac_mask_loop_1.thisN,prac_mask_loop_1.thisIndex,prac_mask_loop_1.ran,mask_name,prac_mask_loop_2.thisRepN,prac_mask_loop_2.thisTrialN,prac_mask_loop_2.thisN,prac_mask_loop_2.thisIndex,prac_mask_loop_2.ran,mouse_2.x,mouse_2.y,mouse_2.leftButton,mouse_2.midButton,mouse_2.rightButton,mouse_2.clicked_name,similarity,response_time,Pass,mouse_12.x,mouse_12.y,mouse_12.leftButton,mouse_12.midButton,mouse_12.rightButton,mouse_12.clicked_name,prac_loop.thisRepN,prac_loop.thisTrialN,prac_loop.thisN,prac_loop.thisIndex,prac_loop.ran,Pair_type,Image_num,Patch_1_loc,Patch_2_loc,Patch_1_info,Patch_2_info,Patch_1_name,Patch_2_name,mouse_1.x,mouse_1.y,mouse_1.leftButton,mouse_1.midButton,mouse_1.rightButton,mouse_1.time,mouse_1.clicked_name,space_press_continue_7.keys,space_press_continue_7.rt,mask_loop.thisRepN,mask_loop.thisTrialN,mask_loop.thisN,mask_loop.thisIndex,mask_loop.ran,mask_loop_2.thisRepN,mask_loop_2.thisTrialN,mask_loop_2.thisN,mask_loop_2.thisIndex,mask_loop_2.ran,mouse.x,mouse.y,mouse.leftButton,mouse.midButton,mouse.rightButton,mouse.clicked_name,trialNumber,mouse_11.x,mouse_11.y,mouse_11.leftButton,mouse_11.midButton,mouse_11.rightButton,mouse_11.clicked_name,first_pass_loop.thisRepN,first_pass_loop.thisTrialN,first_pass_loop.thisN,first_pass_loop.thisIndex,first_pass_loop.ran,mask_loop_3.thisRepN,mask_loop_3.thisTrialN,mask_loop_3.thisN,mask_loop_3.thisIndex,mask_loop_3.ran,mask_loop_4.thisRepN,mask_loop_4.thisTrialN,mask_loop_4.thisN,mask_loop_4.thisIndex,mask_loop_4.ran,mouse_3.x,mouse_3.y,mouse_3.leftButton,mouse_3.midButton,mouse_3.rightButton,mouse_3.clicked_name,double_pass_loop.thisRepN,double_pass_loop.thisTrialN,double_pass_loop.thisN,double_pass_loop.thisIndex,double_pass_loop.ran,space_exit.keys,space_exit.rt
026963,001,2022-11-20_15h50.28.440,Info_measure_main_exp,2022.2.2,MacIntel,60.0024001,,,,,,,,,,,,,,,,,,,,,,,,,,,,,,,,,,,,,,,,,,,,,,,,,,,,,,,,,,,,,,,,,,,,,,,,,,,,,,,,,,,,,,,,,,,,,,,,,,,,,,,,,,,,,,,
026963,001,2022-11-20_15h50.28.440,Info_measure_main_exp,2022.2.2,MacIntel,60.0024001,,,,,,,,,,,,,,,,,,,,,,,,,,,,,,,,,,,,,,,,,,,,,,,,,,,,,,,,,,,,,,,,,,,,,,,,,,,,,,,,,,,,,,,,,,,,,,,,,,,,,,,,,,,,,,,
026963,001,2022-11-20_15h50.28.440,Info_measure_main_exp,2022.2.2,MacIntel,60.0024001,space,1.812,,,,,,,,,,,,,,,,,,,,,,,,,,,,,,,,,,,,,,,,,,,,,,,,,,,,,,,,,,,,,,,,,,,,,,,,,,,,,,,,,,,,,,,,,,,,,,,,,,,,,,,,,,,,,
026963,001,2022-11-20_15h50.28.440,Info_measure_main_exp,2022.2.2,MacIntel,60.0024001,,,space,7.4875,,,,,,,,,,,,,,,,,,,,,,,,,,,,,,,,,,,,,,,,,,,,,,,,,,,,,,,,,,,,,,,,,,,,,,,,,,,,,,,,,,,,,,,,,,,,,,,,,,,,,,,,,,,
026963,001,2022-11-20_15h50.28.440,Info_measure_main_exp,2022.2.2,MacIntel,60.0024001,,,,,space,4.0058,,,,,,,,,,,,,,,,,,,,,,,,,,,,,,,,,,,,,,,,,,,,,,,,,,,,,,,,,,,,,,,,,,,,,,,,,,,,,,,,,,,,,,,,,,,,,,,,,,,,,,,,,
026963,001,2022-11-20_15h50.28.440,Info_measure_main_exp,2022.2.2,MacIntel,60.0024001,,,,,,,space,6.5994,,,,,,,,,,,,,,,,,,,,,,,,,,,,,,,,,,,,,,,,,,,,,,,,,,,,,,,,,,,,,,,,,,,,,,,,,,,,,,,,,,,,,,,,,,,,,,,,,,,,,,,
026963,001,2022-11-20_15h50.28.440,Info_measure_main_exp,2022.2.2,MacIntel,60.0024001,,,,,,,,,space,3.7132,,,,,,,,,,,,,,,,,,,,,,,,,,,,,,,,,,,,,,,,,,,,,,,,,,,,,,,,,,,,,,,,,,,,,,,,,,,,,,,,,,,,,,,,,,,,,,,,,,,,,
026963,001,2022-11-20_15h50.28.440,Info_measure_main_exp,2022.2.2,MacIntel,60.0024001,,,,,,,,,,,space,5.8616,,,,,,,,,,,,,,,,,,,,,,,,,,,,,,,,,,,,,,,,,,,,,,,,,,,,,,,,,,,,,,,,,,,,,,,,,,,,,,,,,,,,,,,,,,,,,,,,,,,
026963,001,2022-11-20_15h50.28.440,Info_measure_main_exp,2022.2.2,MacIntel,60.0024001,,,,,,,,,,,,,0,0,0,4,1,masks/mask_005.jpg,,,,,,,,,,,,,,,,,,,,,,,,,,,,,,,,,,,,,,,,,,,,,,,,,,,,,,,,,,,,,,,,,,,,,,,,,,,,,,,,,,,,,,,,,,,,,
026963,001,2022-11-20_15h50.28.440,Info_measure_main_exp,2022.2.2,MacIntel,60.0024001,,,,,,,,,,,,,0,1,1,0,1,masks/mask_001.jpg,,,,,,,,,,,,,,,,,,,,,,,,,,,,,,,,,,,,,,,,,,,,,,,,,,,,,,,,,,,,,,,,,,,,,,,,,,,,,,,,,,,,,,,,,,,,,
026963,001,2022-11-20_15h50.28.440,Info_measure_main_exp,2022.2.2,MacIntel,60.0024001,,,,,,,,,,,,,0,2,2,3,1,masks/mask_004.jpg,,,,,,,,,,,,,,,,,,,,,,,,,,,,,,,,,,,,,,,,,,,,,,,,,,,,,,,,,,,,,,,,,,,,,,,,,,,,,,,,,,,,,,,,,,,,,
026963,001,2022-11-20_15h50.28.440,Info_measure_main_exp,2022.2.2,MacIntel,60.0024001,,,,,,,,,,,,,0,3,3,2,1,masks/mask_003.jpg,,,,,,,,,,,,,,,,,,,,,,,,,,,,,,,,,,,,,,,,,,,,,,,,,,,,,,,,,,,,,,,,,,,,,,,,,,,,,,,,,,,,,,,,,,,,,
026963,001,2022-11-20_15h50.28.440,Info_measure_main_exp,2022.2.2,MacIntel,60.0024001,,,,,,,,,,,,,0,4,4,1,1,masks/mask_002.jpg,,,,,,,,,,,,,,,,,,,,,,,,,,,,,,,,,,,,,,,,,,,,,,,,,,,,,,,,,,,,,,,,,,,,,,,,,,,,,,,,,,,,,,,,,,,,,
026963,001,2022-11-20_15h50.28.440,Info_measure_main_exp,2022.2.2,MacIntel,60.0024001,,,,,,,,,,,,,,,,,,masks/mask_004.jpg,0,0,0,3,1,,,,,,,,,,,,,,,,,,,,,,,,,,,,,,,,,,,,,,,,,,,,,,,,,,,,,,,,,,,,,,,,,,,,,,,,,,,,,,,,,,,,,,,,
026963,001,2022-11-20_15h50.28.440,Info_measure_main_exp,2022.2.2,MacIntel,60.0024001,,,,,,,,,,,,,,,,,,masks/mask_005.jpg,0,1,1,4,1,,,,,,,,,,,,,,,,,,,,,,,,,,,,,,,,,,,,,,,,,,,,,,,,,,,,,,,,,,,,,,,,,,,,,,,,,,,,,,,,,,,,,,,,
026963,001,2022-11-20_15h50.28.440,Info_measure_main_exp,2022.2.2,MacIntel,60.0024001,,,,,,,,,,,,,,,,,,masks/mask_003.jpg,0,2,2,2,1,,,,,,,,,,,,,,,,,,,,,,,,,,,,,,,,,,,,,,,,,,,,,,,,,,,,,,,,,,,,,,,,,,,,,,,,,,,,,,,,,,,,,,,,
026963,001,2022-11-20_15h50.28.440,Info_measure_main_exp,2022.2.2,MacIntel,60.0024001,,,,,,,,,,,,,,,,,,masks/mask_002.jpg,0,3,3,1,1,,,,,,,,,,,,,,,,,,,,,,,,,,,,,,,,,,,,,,,,,,,,,,,,,,,,,,,,,,,,,,,,,,,,,,,,,,,,,,,,,,,,,,,,
026963,001,2022-11-20_15h50.28.440,Info_measure_main_exp,2022.2.2,MacIntel,60.0024001,,,,,,,,,,,,,,,,,,masks/mask_001.jpg,0,4,4,0,1,,,,,,,,,,,,,,,,,,,,,,,,,,,,,,,,,,,,,,,,,,,,,,,,,,,,,,,,,,,,,,,,,,,,,,,,,,,,,,,,,,,,,,,,
026963,001,2022-11-20_15h50.28.440,Info_measure_main_exp,2022.2.2,MacIntel,60.0024001,,,,,,,,,,,,,,,,,,,,,,,,-0.058888889,-0.088181424,1,0,0,response5disk,3,33.639,1,0.002847222,0.001132812,1,0,0,center_square,0,0,0,2,1,0,131,5,5,2526,2526,prac_patch/patch0002526.jpg,prac_patch/patch0002526.jpg,,,,,,,,,,,,,,,,,,,,,,,,,,,,,,,,,,,,,,,,,,,,,,,,,,,,,,,,,,,,
026963,001,2022-11-20_15h50.28.440,Info_measure_main_exp,2022.2.2,MacIntel,60.0024001,,,,,,,,,,,,,0,0,0,1,1,masks/mask_002.jpg,,,,,,,,,,,,,,,,,,,,,,,,,,,,,,,,,,,,,,,,,,,,,,,,,,,,,,,,,,,,,,,,,,,,,,,,,,,,,,,,,,,,,,,,,,,,,
026963,001,2022-11-20_15h50.28.440,Info_measure_main_exp,2022.2.2,MacIntel,60.0024001,,,,,,,,,,,,,0,1,1,0,1,masks/mask_001.jpg,,,,,,,,,,,,,,,,,,,,,,,,,,,,,,,,,,,,,,,,,,,,,,,,,,,,,,,,,,,,,,,,,,,,,,,,,,,,,,,,,,,,,,,,,,,,,
026963,001,2022-11-20_15h50.28.440,Info_measure_main_exp,2022.2.2,MacIntel,60.0024001,,,,,,,,,,,,,0,2,2,3,1,masks/mask_004.jpg,,,,,,,,,,,,,,,,,,,,,,,,,,,,,,,,,,,,,,,,,,,,,,,,,,,,,,,,,,,,,,,,,,,,,,,,,,,,,,,,,,,,,,,,,,,,,
026963,001,2022-11-20_15h50.28.440,Info_measure_main_exp,2022.2.2,MacIntel,60.0024001,,,,,,,,,,,,,0,3,3,4,1,masks/mask_005.jpg,,,,,,,,,,,,,,,,,,,,,,,,,,,,,,,,,,,,,,,,,,,,,,,,,,,,,,,,,,,,,,,,,,,,,,,,,,,,,,,,,,,,,,,,,,,,,
026963,001,2022-11-20_15h50.28.440,Info_measure_main_exp,2022.2.2,MacIntel,60.0024001,,,,,,,,,,,,,0,4,4,2,1,masks/mask_003.jpg,,,,,,,,,,,,,,,,,,,,,,,,,,,,,,,,,,,,,,,,,,,,,,,,,,,,,,,,,,,,,,,,,,,,,,,,,,,,,,,,,,,,,,,,,,,,,
026963,001,2022-11-20_15h50.28.440,Info_measure_main_exp,2022.2.2,MacIntel,60.0024001,,,,,,,,,,,,,,,,,,masks/mask_003.jpg,0,0,0,2,1,,,,,,,,,,,,,,,,,,,,,,,,,,,,,,,,,,,,,,,,,,,,,,,,,,,,,,,,,,,,,,,,,,,,,,,,,,,,,,,,,,,,,,,,
026963,001,2022-11-20_15h50.28.440,Info_measure_main_exp,2022.2.2,MacIntel,60.0024001,,,,,,,,,,,,,,,,,,masks/mask_005.jpg,0,1,1,4,1,,,,,,,,,,,,,,,,,,,,,,,,,,,,,,,,,,,,,,,,,,,,,,,,,,,,,,,,,,,,,,,,,,,,,,,,,,,,,,,,,,,,,,,,
026963,001,2022-11-20_15h50.28.440,Info_measure_main_exp,2022.2.2,MacIntel,60.0024001,,,,,,,,,,,,,,,,,,masks/mask_004.jpg,0,2,2,3,1,,,,,,,,,,,,,,,,,,,,,,,,,,,,,,,,,,,,,,,,,,,,,,,,,,,,,,,,,,,,,,,,,,,,,,,,,,,,,,,,,,,,,,,,
026963,001,2022-11-20_15h50.28.440,Info_measure_main_exp,2022.2.2,MacIntel,60.0024001,,,,,,,,,,,,,,,,,,masks/mask_001.jpg,0,3,3,0,1,,,,,,,,,,,,,,,,,,,,,,,,,,,,,,,,,,,,,,,,,,,,,,,,,,,,,,,,,,,,,,,,,,,,,,,,,,,,,,,,,,,,,,,,
026963,001,2022-11-20_15h50.28.440,Info_measure_main_exp,2022.2.2,MacIntel,60.0024001,,,,,,,,,,,,,,,,,,masks/mask_002.jpg,0,4,4,1,1,,,,,,,,,,,,,,,,,,,,,,,,,,,,,,,,,,,,,,,,,,,,,,,,,,,,,,,,,,,,,,,,,,,,,,,,,,,,,,,,,,,,,,,,
026963,001,2022-11-20_15h50.28.440,Info_measure_main_exp,2022.2.2,MacIntel,60.0024001,,,,,,,,,,,,,,,,,,,,,,,,0.104548611,0.132465278,1,0,0,response1disk,7,45.5545,1,-0.005685764,6.51042E-05,1,0,0,center_square,0,1,1,1,1,0,131,5,5,2514,2490,prac_patch/patch0002514.jpg,prac_patch/patch0002490.jpg,,,,,,,,,,,,,,,,,,,,,,,,,,,,,,,,,,,,,,,,,,,,,,,,,,,,,,,,,,,,
026963,001,2022-11-20_15h50.28.440,Info_measure_main_exp,2022.2.2,MacIntel,60.0024001,,,,,,,,,,,,,0,0,0,1,1,masks/mask_002.jpg,,,,,,,,,,,,,,,,,,,,,,,,,,,,,,,,,,,,,,,,,,,,,,,,,,,,,,,,,,,,,,,,,,,,,,,,,,,,,,,,,,,,,,,,,,,,,
026963,001,2022-11-20_15h50.28.440,Info_measure_main_exp,2022.2.2,MacIntel,60.0024001,,,,,,,,,,,,,0,1,1,4,1,masks/mask_005.jpg,,,,,,,,,,,,,,,,,,,,,,,,,,,,,,,,,,,,,,,,,,,,,,,,,,,,,,,,,,,,,,,,,,,,,,,,,,,,,,,,,,,,,,,,,,,,,
026963,001,2022-11-20_15h50.28.440,Info_measure_main_exp,2022.2.2,MacIntel,60.0024001,,,,,,,,,,,,,0,2,2,2,1,masks/mask_003.jpg,,,,,,,,,,,,,,,,,,,,,,,,,,,,,,,,,,,,,,,,,,,,,,,,,,,,,,,,,,,,,,,,,,,,,,,,,,,,,,,,,,,,,,,,,,,,,
026963,001,2022-11-20_15h50.28.440,Info_measure_main_exp,2022.2.2,MacIntel,60.0024001,,,,,,,,,,,,,0,3,3,3,1,masks/mask_004.jpg,,,,,,,,,,,,,,,,,,,,,,,,,,,,,,,,,,,,,,,,,,,,,,,,,,,,,,,,,,,,,,,,,,,,,,,,,,,,,,,,,,,,,,,,,,,,,
026963,001,2022-11-20_15h50.28.440,Info_measure_main_exp,2022.2.2,MacIntel,60.0024001,,,,,,,,,,,,,0,4,4,0,1,masks/mask_001.jpg,,,,,,,,,,,,,,,,,,,,,,,,,,,,,,,,,,,,,,,,,,,,,,,,,,,,,,,,,,,,,,,,,,,,,,,,,,,,,,,,,,,,,,,,,,,,,
026963,001,2022-11-20_15h50.28.440,Info_measure_main_exp,2022.2.2,MacIntel,60.0024001,,,,,,,,,,,,,,,,,,masks/mask_004.jpg,0,0,0,3,1,,,,,,,,,,,,,,,,,,,,,,,,,,,,,,,,,,,,,,,,,,,,,,,,,,,,,,,,,,,,,,,,,,,,,,,,,,,,,,,,,,,,,,,,
026963,001,2022-11-20_15h50.28.440,Info_measure_main_exp,2022.2.2,MacIntel,60.0024001,,,,,,,,,,,,,,,,,,masks/mask_002.jpg,0,1,1,1,1,,,,,,,,,,,,,,,,,,,,,,,,,,,,,,,,,,,,,,,,,,,,,,,,,,,,,,,,,,,,,,,,,,,,,,,,,,,,,,,,,,,,,,,,
026963,001,2022-11-20_15h50.28.440,Info_measure_main_exp,2022.2.2,MacIntel,60.0024001,,,,,,,,,,,,,,,,,,masks/mask_005.jpg,0,2,2,4,1,,,,,,,,,,,,,,,,,,,,,,,,,,,,,,,,,,,,,,,,,,,,,,,,,,,,,,,,,,,,,,,,,,,,,,,,,,,,,,,,,,,,,,,,
026963,001,2022-11-20_15h50.28.440,Info_measure_main_exp,2022.2.2,MacIntel,60.0024001,,,,,,,,,,,,,,,,,,masks/mask_001.jpg,0,3,3,0,1,,,,,,,,,,,,,,,,,,,,,,,,,,,,,,,,,,,,,,,,,,,,,,,,,,,,,,,,,,,,,,,,,,,,,,,,,,,,,,,,,,,,,,,,
026963,001,2022-11-20_15h50.28.440,Info_measure_main_exp,2022.2.2,MacIntel,60.0024001,,,,,,,,,,,,,,,,,,masks/mask_003.jpg,0,4,4,2,1,,,,,,,,,,,,,,,,,,,,,,,,,,,,,,,,,,,,,,,,,,,,,,,,,,,,,,,,,,,,,,,,,,,,,,,,,,,,,,,,,,,,,,,,
026963,001,2022-11-20_15h50.28.440,Info_measure_main_exp,2022.2.2,MacIntel,60.0024001,,,,,,,,,,,,,,,,,,,,,,,,0.011875,-0.051987847,1,0,0,response3disk,4,55.0719,1,-0.003407118,0.002148438,1,0,0,center_square,0,2,2,0,1,0,131,5,5,2370,2406,prac_patch/patch0002370.jpg,prac_patch/patch0002406.jpg,,,,,,,,,,,,,,,,,,,,,,,,,,,,,,,,,,,,,,,,,,,,,,,,,,,,,,,,,,,,
026963,001,2022-11-20_15h50.28.440,Info_measure_main_exp,2022.2.2,MacIntel,60.0024001,,,,,,,,,,,,,,,,,,,,,,,,,,,,,,,,,,,,,,,,,,,,,,,,,,,,,,,,,,,space,1.2297,,,,,,,,,,,,,,,,,,,,,,,,,,,,,,,,,,,,,,,,,,,,,,,,,,,
026963,001,2022-11-20_15h50.28.440,Info_measure_main_exp,2022.2.2,MacIntel,60.0024001,,,,,,,,,,,,,,,,,,masks/mask_001.jpg,,,,,,,,,,,,,,,,,,,,,,,,,,,,,,,,,,,,,,,,,,,0,0,0,0,1,,,,,,,,,,,,,,,,,,,,,,,,,,,,,,,,,,,,,,,,,,,,,,
026963,001,2022-11-20_15h50.28.440,Info_measure_main_exp,2022.2.2,MacIntel,60.0024001,,,,,,,,,,,,,,,,,,masks/mask_003.jpg,,,,,,,,,,,,,,,,,,,,,,,,,,,,,,,,,,,,,,,,,,,0,1,1,2,1,,,,,,,,,,,,,,,,,,,,,,,,,,,,,,,,,,,,,,,,,,,,,,
026963,001,2022-11-20_15h50.28.440,Info_measure_main_exp,2022.2.2,MacIntel,60.0024001,,,,,,,,,,,,,,,,,,masks/mask_004.jpg,,,,,,,,,,,,,,,,,,,,,,,,,,,,,,,,,,,,,,,,,,,0,2,2,3,1,,,,,,,,,,,,,,,,,,,,,,,,,,,,,,,,,,,,,,,,,,,,,,
026963,001,2022-11-20_15h50.28.440,Info_measure_main_exp,2022.2.2,MacIntel,60.0024001,,,,,,,,,,,,,,,,,,masks/mask_005.jpg,,,,,,,,,,,,,,,,,,,,,,,,,,,,,,,,,,,,,,,,,,,0,3,3,4,1,,,,,,,,,,,,,,,,,,,,,,,,,,,,,,,,,,,,,,,,,,,,,,
026963,001,2022-11-20_15h50.28.440,Info_measure_main_exp,2022.2.2,MacIntel,60.0024001,,,,,,,,,,,,,,,,,,masks/mask_002.jpg,,,,,,,,,,,,,,,,,,,,,,,,,,,,,,,,,,,,,,,,,,,0,4,4,1,1,,,,,,,,,,,,,,,,,,,,,,,,,,,,,,,,,,,,,,,,,,,,,,
026963,001,2022-11-20_15h50.28.440,Info_measure_main_exp,2022.2.2,MacIntel,60.0024001,,,,,,,,,,,,,,,,,,masks/mask_005.jpg,,,,,,,,,,,,,,,,,,,,,,,,,,,,,,,,,,,,,,,,,,,,,,,,0,0,0,4,1,,,,,,,,,,,,,,,,,,,,,,,,,,,,,,,,,,,,,,,,,
026963,001,2022-11-20_15h50.28.440,Info_measure_main_exp,2022.2.2,MacIntel,60.0024001,,,,,,,,,,,,,,,,,,masks/mask_001.jpg,,,,,,,,,,,,,,,,,,,,,,,,,,,,,,,,,,,,,,,,,,,,,,,,0,1,1,0,1,,,,,,,,,,,,,,,,,,,,,,,,,,,,,,,,,,,,,,,,,
026963,001,2022-11-20_15h50.28.440,Info_measure_main_exp,2022.2.2,MacIntel,60.0024001,,,,,,,,,,,,,,,,,,masks/mask_003.jpg,,,,,,,,,,,,,,,,,,,,,,,,,,,,,,,,,,,,,,,,,,,,,,,,0,2,2,2,1,,,,,,,,,,,,,,,,,,,,,,,,,,,,,,,,,,,,,,,,,
026963,001,2022-11-20_15h50.28.440,Info_measure_main_exp,2022.2.2,MacIntel,60.0024001,,,,,,,,,,,,,,,,,,masks/mask_004.jpg,,,,,,,,,,,,,,,,,,,,,,,,,,,,,,,,,,,,,,,,,,,,,,,,0,3,3,3,1,,,,,,,,,,,,,,,,,,,,,,,,,,,,,,,,,,,,,,,,,
026963,001,2022-11-20_15h50.28.440,Info_measure_main_exp,2022.2.2,MacIntel,60.0024001,,,,,,,,,,,,,,,,,,masks/mask_002.jpg,,,,,,,,,,,,,,,,,,,,,,,,,,,,,,,,,,,,,,,,,,,,,,,,0,4,4,1,1,,,,,,,,,,,,,,,,,,,,,,,,,,,,,,,,,,,,,,,,,
026963,001,2022-11-20_15h50.28.440,Info_measure_main_exp,2022.2.2,MacIntel,60.0024001,,,,,,,,,,,,,,,,,,,,,,,,,,,,,,7,1.2514,1,,,,,,,,,,,,0,131,5,5,2082,2154,absent_patch/patch0002082.jpg,absent_patch/patch0002154.jpg,,,,,,,,,,,,,,,,,,,,0.056614583,0.123038194,1,0,0,response1disk,1,0.003632813,0.000177951,1,0,0,center_square,0,0,0,33,1,,,,,,,,,,,,,,,,,,,,,,,
026963,001,2022-11-20_15h50.28.440,Info_measure_main_exp,2022.2.2,MacIntel,60.0024001,,,,,,,,,,,,,,,,,,masks/mask_004.jpg,,,,,,,,,,,,,,,,,,,,,,,,,,,,,,,,,,,,,,,,,,,0,0,0,3,1,,,,,,,,,,,,,,,,,,,,,,,,,,,,,,,,,,,,,,,,,,,,,,
026963,001,2022-11-20_15h50.28.440,Info_measure_main_exp,2022.2.2,MacIntel,60.0024001,,,,,,,,,,,,,,,,,,masks/mask_002.jpg,,,,,,,,,,,,,,,,,,,,,,,,,,,,,,,,,,,,,,,,,,,0,1,1,1,1,,,,,,,,,,,,,,,,,,,,,,,,,,,,,,,,,,,,,,,,,,,,,,
026963,001,2022-11-20_15h50.28.440,Info_measure_main_exp,2022.2.2,MacIntel,60.0024001,,,,,,,,,,,,,,,,,,masks/mask_001.jpg,,,,,,,,,,,,,,,,,,,,,,,,,,,,,,,,,,,,,,,,,,,0,2,2,0,1,,,,,,,,,,,,,,,,,,,,,,,,,,,,,,,,,,,,,,,,,,,,,,
026963,001,2022-11-20_15h50.28.440,Info_measure_main_exp,2022.2.2,MacIntel,60.0024001,,,,,,,,,,,,,,,,,,masks/mask_005.jpg,,,,,,,,,,,,,,,,,,,,,,,,,,,,,,,,,,,,,,,,,,,0,3,3,4,1,,,,,,,,,,,,,,,,,,,,,,,,,,,,,,,,,,,,,,,,,,,,,,
026963,001,2022-11-20_15h50.28.440,Info_measure_main_exp,2022.2.2,MacIntel,60.0024001,,,,,,,,,,,,,,,,,,masks/mask_003.jpg,,,,,,,,,,,,,,,,,,,,,,,,,,,,,,,,,,,,,,,,,,,0,4,4,2,1,,,,,,,,,,,,,,,,,,,,,,,,,,,,,,,,,,,,,,,,,,,,,,
026963,001,2022-11-20_15h50.28.440,Info_measure_main_exp,2022.2.2,MacIntel,60.0024001,,,,,,,,,,,,,,,,,,masks/mask_005.jpg,,,,,,,,,,,,,,,,,,,,,,,,,,,,,,,,,,,,,,,,,,,,,,,,0,0,0,4,1,,,,,,,,,,,,,,,,,,,,,,,,,,,,,,,,,,,,,,,,,
026963,001,2022-11-20_15h50.28.440,Info_measure_main_exp,2022.2.2,MacIntel,60.0024001,,,,,,,,,,,,,,,,,,masks/mask_002.jpg,,,,,,,,,,,,,,,,,,,,,,,,,,,,,,,,,,,,,,,,,,,,,,,,0,1,1,1,1,,,,,,,,,,,,,,,,,,,,,,,,,,,,,,,,,,,,,,,,,
026963,001,2022-11-20_15h50.28.440,Info_measure_main_exp,2022.2.2,MacIntel,60.0024001,,,,,,,,,,,,,,,,,,masks/mask_001.jpg,,,,,,,,,,,,,,,,,,,,,,,,,,,,,,,,,,,,,,,,,,,,,,,,0,2,2,0,1,,,,,,,,,,,,,,,,,,,,,,,,,,,,,,,,,,,,,,,,,
026963,001,2022-11-20_15h50.28.440,Info_measure_main_exp,2022.2.2,MacIntel,60.0024001,,,,,,,,,,,,,,,,,,masks/mask_003.jpg,,,,,,,,,,,,,,,,,,,,,,,,,,,,,,,,,,,,,,,,,,,,,,,,0,3,3,2,1,,,,,,,,,,,,,,,,,,,,,,,,,,,,,,,,,,,,,,,,,
026963,001,2022-11-20_15h50.28.440,Info_measure_main_exp,2022.2.2,MacIntel,60.0024001,,,,,,,,,,,,,,,,,,masks/mask_004.jpg,,,,,,,,,,,,,,,,,,,,,,,,,,,,,,,,,,,,,,,,,,,,,,,,0,4,4,3,1,,,,,,,,,,,,,,,,,,,,,,,,,,,,,,,,,,,,,,,,,
026963,001,2022-11-20_15h50.28.440,Info_measure_main_exp,2022.2.2,MacIntel,60.0024001,,,,,,,,,,,,,,,,,,,,,,,,,,,,,,5,1.6995,1,,,,,,,,,,,,0,131,5,5,1950,2142,absent_patch/patch0001950.jpg,absent_patch/patch0002142.jpg,,,,,,,,,,,,,,,,,,,,0.063867188,-0.046762153,1,0,0,response3disk,2,0.004140625,-0.002178819,1,0,0,center_square,0,1,1,83,1,,,,,,,,,,,,,,,,,,,,,,,
026963,001,2022-11-20_15h50.28.440,Info_measure_main_exp,2022.2.2,MacIntel,60.0024001,,,,,,,,,,,,,,,,,,masks/mask_005.jpg,,,,,,,,,,,,,,,,,,,,,,,,,,,,,,,,,,,,,,,,,,,0,0,0,4,1,,,,,,,,,,,,,,,,,,,,,,,,,,,,,,,,,,,,,,,,,,,,,,
026963,001,2022-11-20_15h50.28.440,Info_measure_main_exp,2022.2.2,MacIntel,60.0024001,,,,,,,,,,,,,,,,,,masks/mask_001.jpg,,,,,,,,,,,,,,,,,,,,,,,,,,,,,,,,,,,,,,,,,,,0,1,1,0,1,,,,,,,,,,,,,,,,,,,,,,,,,,,,,,,,,,,,,,,,,,,,,,
026963,001,2022-11-20_15h50.28.440,Info_measure_main_exp,2022.2.2,MacIntel,60.0024001,,,,,,,,,,,,,,,,,,masks/mask_003.jpg,,,,,,,,,,,,,,,,,,,,,,,,,,,,,,,,,,,,,,,,,,,0,2,2,2,1,,,,,,,,,,,,,,,,,,,,,,,,,,,,,,,,,,,,,,,,,,,,,,
026963,001,2022-11-20_15h50.28.440,Info_measure_main_exp,2022.2.2,MacIntel,60.0024001,,,,,,,,,,,,,,,,,,masks/mask_002.jpg,,,,,,,,,,,,,,,,,,,,,,,,,,,,,,,,,,,,,,,,,,,0,3,3,1,1,,,,,,,,,,,,,,,,,,,,,,,,,,,,,,,,,,,,,,,,,,,,,,
026963,001,2022-11-20_15h50.28.440,Info_measure_main_exp,2022.2.2,MacIntel,60.0024001,,,,,,,,,,,,,,,,,,masks/mask_004.jpg,,,,,,,,,,,,,,,,,,,,,,,,,,,,,,,,,,,,,,,,,,,0,4,4,3,1,,,,,,,,,,,,,,,,,,,,,,,,,,,,,,,,,,,,,,,,,,,,,,
026963,001,2022-11-20_15h50.28.440,Info_measure_main_exp,2022.2.2,MacIntel,60.0024001,,,,,,,,,,,,,,,,,,masks/mask_001.jpg,,,,,,,,,,,,,,,,,,,,,,,,,,,,,,,,,,,,,,,,,,,,,,,,0,0,0,0,1,,,,,,,,,,,,,,,,,,,,,,,,,,,,,,,,,,,,,,,,,
026963,001,2022-11-20_15h50.28.440,Info_measure_main_exp,2022.2.2,MacIntel,60.0024001,,,,,,,,,,,,,,,,,,masks/mask_005.jpg,,,,,,,,,,,,,,,,,,,,,,,,,,,,,,,,,,,,,,,,,,,,,,,,0,1,1,4,1,,,,,,,,,,,,,,,,,,,,,,,,,,,,,,,,,,,,,,,,,
026963,001,2022-11-20_15h50.28.440,Info_measure_main_exp,2022.2.2,MacIntel,60.0024001,,,,,,,,,,,,,,,,,,masks/mask_002.jpg,,,,,,,,,,,,,,,,,,,,,,,,,,,,,,,,,,,,,,,,,,,,,,,,0,2,2,1,1,,,,,,,,,,,,,,,,,,,,,,,,,,,,,,,,,,,,,,,,,
026963,001,2022-11-20_15h50.28.440,Info_measure_main_exp,2022.2.2,MacIntel,60.0024001,,,,,,,,,,,,,,,,,,masks/mask_003.jpg,,,,,,,,,,,,,,,,,,,,,,,,,,,,,,,,,,,,,,,,,,,,,,,,0,3,3,2,1,,,,,,,,,,,,,,,,,,,,,,,,,,,,,,,,,,,,,,,,,
026963,001,2022-11-20_15h50.28.440,Info_measure_main_exp,2022.2.2,MacIntel,60.0024001,,,,,,,,,,,,,,,,,,masks/mask_004.jpg,,,,,,,,,,,,,,,,,,,,,,,,,,,,,,,,,,,,,,,,,,,,,,,,0,4,4,3,1,,,,,,,,,,,,,,,,,,,,,,,,,,,,,,,,,,,,,,,,,
026963,001,2022-11-20_15h50.28.440,Info_measure_main_exp,2022.2.2,MacIntel,60.0024001,,,,,,,,,,,,,,,,,,,,,,,,,,,,,,7,0.8165,1,,,,,,,,,,,,0,131,5,5,1950,2214,absent_patch/patch0001950.jpg,absent_patch/patch0002214.jpg,,,,,,,,,,,,,,,,,,,,0.031944444,0.109001736,1,0,0,response1disk,3,0.000238715,0.011367188,1,0,0,center_square,0,2,2,85,1,,,,,,,,,,,,,,,,,,,,,,,
026963,001,2022-11-20_15h50.28.440,Info_measure_main_exp,2022.2.2,MacIntel,60.0024001,,,,,,,,,,,,,,,,,,masks/mask_005.jpg,,,,,,,,,,,,,,,,,,,,,,,,,,,,,,,,,,,,,,,,,,,0,0,0,4,1,,,,,,,,,,,,,,,,,,,,,,,,,,,,,,,,,,,,,,,,,,,,,,
026963,001,2022-11-20_15h50.28.440,Info_measure_main_exp,2022.2.2,MacIntel,60.0024001,,,,,,,,,,,,,,,,,,masks/mask_004.jpg,,,,,,,,,,,,,,,,,,,,,,,,,,,,,,,,,,,,,,,,,,,0,1,1,3,1,,,,,,,,,,,,,,,,,,,,,,,,,,,,,,,,,,,,,,,,,,,,,,
026963,001,2022-11-20_15h50.28.440,Info_measure_main_exp,2022.2.2,MacIntel,60.0024001,,,,,,,,,,,,,,,,,,masks/mask_001.jpg,,,,,,,,,,,,,,,,,,,,,,,,,,,,,,,,,,,,,,,,,,,0,2,2,0,1,,,,,,,,,,,,,,,,,,,,,,,,,,,,,,,,,,,,,,,,,,,,,,
026963,001,2022-11-20_15h50.28.440,Info_measure_main_exp,2022.2.2,MacIntel,60.0024001,,,,,,,,,,,,,,,,,,masks/mask_003.jpg,,,,,,,,,,,,,,,,,,,,,,,,,,,,,,,,,,,,,,,,,,,0,3,3,2,1,,,,,,,,,,,,,,,,,,,,,,,,,,,,,,,,,,,,,,,,,,,,,,
026963,001,2022-11-20_15h50.28.440,Info_measure_main_exp,2022.2.2,MacIntel,60.0024001,,,,,,,,,,,,,,,,,,masks/mask_002.jpg,,,,,,,,,,,,,,,,,,,,,,,,,,,,,,,,,,,,,,,,,,,0,4,4,1,1,,,,,,,,,,,,,,,,,,,,,,,,,,,,,,,,,,,,,,,,,,,,,,
026963,001,2022-11-20_15h50.28.440,Info_measure_main_exp,2022.2.2,MacIntel,60.0024001,,,,,,,,,,,,,,,,,,masks/mask_003.jpg,,,,,,,,,,,,,,,,,,,,,,,,,,,,,,,,,,,,,,,,,,,,,,,,0,0,0,2,1,,,,,,,,,,,,,,,,,,,,,,,,,,,,,,,,,,,,,,,,,
026963,001,2022-11-20_15h50.28.440,Info_measure_main_exp,2022.2.2,MacIntel,60.0024001,,,,,,,,,,,,,,,,,,masks/mask_005.jpg,,,,,,,,,,,,,,,,,,,,,,,,,,,,,,,,,,,,,,,,,,,,,,,,0,1,1,4,1,,,,,,,,,,,,,,,,,,,,,,,,,,,,,,,,,,,,,,,,,
026963,001,2022-11-20_15h50.28.440,Info_measure_main_exp,2022.2.2,MacIntel,60.0024001,,,,,,,,,,,,,,,,,,masks/mask_002.jpg,,,,,,,,,,,,,,,,,,,,,,,,,,,,,,,,,,,,,,,,,,,,,,,,0,2,2,1,1,,,,,,,,,,,,,,,,,,,,,,,,,,,,,,,,,,,,,,,,,
026963,001,2022-11-20_15h50.28.440,Info_measure_main_exp,2022.2.2,MacIntel,60.0024001,,,,,,,,,,,,,,,,,,masks/mask_004.jpg,,,,,,,,,,,,,,,,,,,,,,,,,,,,,,,,,,,,,,,,,,,,,,,,0,3,3,3,1,,,,,,,,,,,,,,,,,,,,,,,,,,,,,,,,,,,,,,,,,
026963,001,2022-11-20_15h50.28.440,Info_measure_main_exp,2022.2.2,MacIntel,60.0024001,,,,,,,,,,,,,,,,,,masks/mask_001.jpg,,,,,,,,,,,,,,,,,,,,,,,,,,,,,,,,,,,,,,,,,,,,,,,,0,4,4,0,1,,,,,,,,,,,,,,,,,,,,,,,,,,,,,,,,,,,,,,,,,
026963,001,2022-11-20_15h50.28.440,Info_measure_main_exp,2022.2.2,MacIntel,60.0024001,,,,,,,,,,,,,,,,,,,,,,,,,,,,,,0,1.0161,1,,,,,,,,,,,,0,131,5,5,2238,2238,absent_patch/patch0002238.jpg,absent_patch/patch0002238.jpg,,,,,,,,,,,,,,,,,,,,-0.043159722,0.094114583,1,0,0,response7disk,4,-0.003381076,-0.004236111,1,0,0,center_square,0,3,3,58,1,,,,,,,,,,,,,,,,,,,,,,,
026963,001,2022-11-20_15h50.28.440,Info_measure_main_exp,2022.2.2,MacIntel,60.0024001,,,,,,,,,,,,,,,,,,masks/mask_003.jpg,,,,,,,,,,,,,,,,,,,,,,,,,,,,,,,,,,,,,,,,,,,0,0,0,2,1,,,,,,,,,,,,,,,,,,,,,,,,,,,,,,,,,,,,,,,,,,,,,,
026963,001,2022-11-20_15h50.28.440,Info_measure_main_exp,2022.2.2,MacIntel,60.0024001,,,,,,,,,,,,,,,,,,masks/mask_005.jpg,,,,,,,,,,,,,,,,,,,,,,,,,,,,,,,,,,,,,,,,,,,0,1,1,4,1,,,,,,,,,,,,,,,,,,,,,,,,,,,,,,,,,,,,,,,,,,,,,,
026963,001,2022-11-20_15h50.28.440,Info_measure_main_exp,2022.2.2,MacIntel,60.0024001,,,,,,,,,,,,,,,,,,masks/mask_001.jpg,,,,,,,,,,,,,,,,,,,,,,,,,,,,,,,,,,,,,,,,,,,0,2,2,0,1,,,,,,,,,,,,,,,,,,,,,,,,,,,,,,,,,,,,,,,,,,,,,,
026963,001,2022-11-20_15h50.28.440,Info_measure_main_exp,2022.2.2,MacIntel,60.0024001,,,,,,,,,,,,,,,,,,masks/mask_002.jpg,,,,,,,,,,,,,,,,,,,,,,,,,,,,,,,,,,,,,,,,,,,0,3,3,1,1,,,,,,,,,,,,,,,,,,,,,,,,,,,,,,,,,,,,,,,,,,,,,,
026963,001,2022-11-20_15h50.28.440,Info_measure_main_exp,2022.2.2,MacIntel,60.0024001,,,,,,,,,,,,,,,,,,masks/mask_004.jpg,,,,,,,,,,,,,,,,,,,,,,,,,,,,,,,,,,,,,,,,,,,0,4,4,3,1,,,,,,,,,,,,,,,,,,,,,,,,,,,,,,,,,,,,,,,,,,,,,,
026963,001,2022-11-20_15h50.28.440,Info_measure_main_exp,2022.2.2,MacIntel,60.0024001,,,,,,,,,,,,,,,,,,masks/mask_001.jpg,,,,,,,,,,,,,,,,,,,,,,,,,,,,,,,,,,,,,,,,,,,,,,,,0,0,0,0,1,,,,,,,,,,,,,,,,,,,,,,,,,,,,,,,,,,,,,,,,,
026963,001,2022-11-20_15h50.28.440,Info_measure_main_exp,2022.2.2,MacIntel,60.0024001,,,,,,,,,,,,,,,,,,masks/mask_003.jpg,,,,,,,,,,,,,,,,,,,,,,,,,,,,,,,,,,,,,,,,,,,,,,,,0,1,1,2,1,,,,,,,,,,,,,,,,,,,,,,,,,,,,,,,,,,,,,,,,,
026963,001,2022-11-20_15h50.28.440,Info_measure_main_exp,2022.2.2,MacIntel,60.0024001,,,,,,,,,,,,,,,,,,masks/mask_004.jpg,,,,,,,,,,,,,,,,,,,,,,,,,,,,,,,,,,,,,,,,,,,,,,,,0,2,2,3,1,,,,,,,,,,,,,,,,,,,,,,,,,,,,,,,,,,,,,,,,,
026963,001,2022-11-20_15h50.28.440,Info_measure_main_exp,2022.2.2,MacIntel,60.0024001,,,,,,,,,,,,,,,,,,masks/mask_005.jpg,,,,,,,,,,,,,,,,,,,,,,,,,,,,,,,,,,,,,,,,,,,,,,,,0,3,3,4,1,,,,,,,,,,,,,,,,,,,,,,,,,,,,,,,,,,,,,,,,,
026963,001,2022-11-20_15h50.28.440,Info_measure_main_exp,2022.2.2,MacIntel,60.0024001,,,,,,,,,,,,,,,,,,masks/mask_002.jpg,,,,,,,,,,,,,,,,,,,,,,,,,,,,,,,,,,,,,,,,,,,,,,,,0,4,4,1,1,,,,,,,,,,,,,,,,,,,,,,,,,,,,,,,,,,,,,,,,,
026963,001,2022-11-20_15h50.28.440,Info_measure_main_exp,2022.2.2,MacIntel,60.0024001,,,,,,,,,,,,,,,,,,,,,,,,,,,,,,4,2.8839,1,,,,,,,,,,,,0,131,5,5,2298,2190,absent_patch/patch0002298.jpg,absent_patch/patch0002190.jpg,,,,,,,,,,,,,,,,,,,,0.001002604,-0.108611111,1,0,0,response3disk,5,-0.002144097,-0.001545139,1,0,0,center_square,0,4,4,20,1,,,,,,,,,,,,,,,,,,,,,,,
026963,001,2022-11-20_15h50.28.440,Info_measure_main_exp,2022.2.2,MacIntel,60.0024001,,,,,,,,,,,,,,,,,,masks/mask_002.jpg,,,,,,,,,,,,,,,,,,,,,,,,,,,,,,,,,,,,,,,,,,,0,0,0,1,1,,,,,,,,,,,,,,,,,,,,,,,,,,,,,,,,,,,,,,,,,,,,,,
026963,001,2022-11-20_15h50.28.440,Info_measure_main_exp,2022.2.2,MacIntel,60.0024001,,,,,,,,,,,,,,,,,,masks/mask_004.jpg,,,,,,,,,,,,,,,,,,,,,,,,,,,,,,,,,,,,,,,,,,,0,1,1,3,1,,,,,,,,,,,,,,,,,,,,,,,,,,,,,,,,,,,,,,,,,,,,,,
026963,001,2022-11-20_15h50.28.440,Info_measure_main_exp,2022.2.2,MacIntel,60.0024001,,,,,,,,,,,,,,,,,,masks/mask_003.jpg,,,,,,,,,,,,,,,,,,,,,,,,,,,,,,,,,,,,,,,,,,,0,2,2,2,1,,,,,,,,,,,,,,,,,,,,,,,,,,,,,,,,,,,,,,,,,,,,,,
026963,001,2022-11-20_15h50.28.440,Info_measure_main_exp,2022.2.2,MacIntel,60.0024001,,,,,,,,,,,,,,,,,,masks/mask_001.jpg,,,,,,,,,,,,,,,,,,,,,,,,,,,,,,,,,,,,,,,,,,,0,3,3,0,1,,,,,,,,,,,,,,,,,,,,,,,,,,,,,,,,,,,,,,,,,,,,,,
026963,001,2022-11-20_15h50.28.440,Info_measure_main_exp,2022.2.2,MacIntel,60.0024001,,,,,,,,,,,,,,,,,,masks/mask_005.jpg,,,,,,,,,,,,,,,,,,,,,,,,,,,,,,,,,,,,,,,,,,,0,4,4,4,1,,,,,,,,,,,,,,,,,,,,,,,,,,,,,,,,,,,,,,,,,,,,,,
026963,001,2022-11-20_15h50.28.440,Info_measure_main_exp,2022.2.2,MacIntel,60.0024001,,,,,,,,,,,,,,,,,,masks/mask_002.jpg,,,,,,,,,,,,,,,,,,,,,,,,,,,,,,,,,,,,,,,,,,,,,,,,0,0,0,1,1,,,,,,,,,,,,,,,,,,,,,,,,,,,,,,,,,,,,,,,,,
026963,001,2022-11-20_15h50.28.440,Info_measure_main_exp,2022.2.2,MacIntel,60.0024001,,,,,,,,,,,,,,,,,,masks/mask_003.jpg,,,,,,,,,,,,,,,,,,,,,,,,,,,,,,,,,,,,,,,,,,,,,,,,0,1,1,2,1,,,,,,,,,,,,,,,,,,,,,,,,,,,,,,,,,,,,,,,,,
026963,001,2022-11-20_15h50.28.440,Info_measure_main_exp,2022.2.2,MacIntel,60.0024001,,,,,,,,,,,,,,,,,,masks/mask_001.jpg,,,,,,,,,,,,,,,,,,,,,,,,,,,,,,,,,,,,,,,,,,,,,,,,0,2,2,0,1,,,,,,,,,,,,,,,,,,,,,,,,,,,,,,,,,,,,,,,,,
026963,001,2022-11-20_15h50.28.440,Info_measure_main_exp,2022.2.2,MacIntel,60.0024001,,,,,,,,,,,,,,,,,,masks/mask_005.jpg,,,,,,,,,,,,,,,,,,,,,,,,,,,,,,,,,,,,,,,,,,,,,,,,0,3,3,4,1,,,,,,,,,,,,,,,,,,,,,,,,,,,,,,,,,,,,,,,,,
026963,001,2022-11-20_15h50.28.440,Info_measure_main_exp,2022.2.2,MacIntel,60.0024001,,,,,,,,,,,,,,,,,,masks/mask_004.jpg,,,,,,,,,,,,,,,,,,,,,,,,,,,,,,,,,,,,,,,,,,,,,,,,0,4,4,3,1,,,,,,,,,,,,,,,,,,,,,,,,,,,,,,,,,,,,,,,,,
026963,001,2022-11-20_15h50.28.440,Info_measure_main_exp,2022.2.2,MacIntel,60.0024001,,,,,,,,,,,,,,,,,,,,,,,,,,,,,,7,0.8659,1,,,,,,,,,,,,0,131,5,5,2190,1974,absent_patch/patch0002190.jpg,absent_patch/patch0001974.jpg,,,,,,,,,,,,,,,,,,,,0.072617187,0.12827691,1,0,0,response1disk,6,-0.009153646,-0.010902778,1,0,0,center_square,0,5,5,119,1,,,,,,,,,,,,,,,,,,,,,,,
026963,001,2022-11-20_15h50.28.440,Info_measure_main_exp,2022.2.2,MacIntel,60.0024001,,,,,,,,,,,,,,,,,,masks/mask_002.jpg,,,,,,,,,,,,,,,,,,,,,,,,,,,,,,,,,,,,,,,,,,,0,0,0,1,1,,,,,,,,,,,,,,,,,,,,,,,,,,,,,,,,,,,,,,,,,,,,,,
026963,001,2022-11-20_15h50.28.440,Info_measure_main_exp,2022.2.2,MacIntel,60.0024001,,,,,,,,,,,,,,,,,,masks/mask_005.jpg,,,,,,,,,,,,,,,,,,,,,,,,,,,,,,,,,,,,,,,,,,,0,1,1,4,1,,,,,,,,,,,,,,,,,,,,,,,,,,,,,,,,,,,,,,,,,,,,,,
026963,001,2022-11-20_15h50.28.440,Info_measure_main_exp,2022.2.2,MacIntel,60.0024001,,,,,,,,,,,,,,,,,,masks/mask_001.jpg,,,,,,,,,,,,,,,,,,,,,,,,,,,,,,,,,,,,,,,,,,,0,2,2,0,1,,,,,,,,,,,,,,,,,,,,,,,,,,,,,,,,,,,,,,,,,,,,,,
026963,001,2022-11-20_15h50.28.440,Info_measure_main_exp,2022.2.2,MacIntel,60.0024001,,,,,,,,,,,,,,,,,,masks/mask_003.jpg,,,,,,,,,,,,,,,,,,,,,,,,,,,,,,,,,,,,,,,,,,,0,3,3,2,1,,,,,,,,,,,,,,,,,,,,,,,,,,,,,,,,,,,,,,,,,,,,,,
026963,001,2022-11-20_15h50.28.440,Info_measure_main_exp,2022.2.2,MacIntel,60.0024001,,,,,,,,,,,,,,,,,,masks/mask_004.jpg,,,,,,,,,,,,,,,,,,,,,,,,,,,,,,,,,,,,,,,,,,,0,4,4,3,1,,,,,,,,,,,,,,,,,,,,,,,,,,,,,,,,,,,,,,,,,,,,,,
026963,001,2022-11-20_15h50.28.440,Info_measure_main_exp,2022.2.2,MacIntel,60.0024001,,,,,,,,,,,,,,,,,,masks/mask_005.jpg,,,,,,,,,,,,,,,,,,,,,,,,,,,,,,,,,,,,,,,,,,,,,,,,0,0,0,4,1,,,,,,,,,,,,,,,,,,,,,,,,,,,,,,,,,,,,,,,,,
026963,001,2022-11-20_15h50.28.440,Info_measure_main_exp,2022.2.2,MacIntel,60.0024001,,,,,,,,,,,,,,,,,,masks/mask_004.jpg,,,,,,,,,,,,,,,,,,,,,,,,,,,,,,,,,,,,,,,,,,,,,,,,0,1,1,3,1,,,,,,,,,,,,,,,,,,,,,,,,,,,,,,,,,,,,,,,,,
026963,001,2022-11-20_15h50.28.440,Info_measure_main_exp,2022.2.2,MacIntel,60.0024001,,,,,,,,,,,,,,,,,,masks/mask_002.jpg,,,,,,,,,,,,,,,,,,,,,,,,,,,,,,,,,,,,,,,,,,,,,,,,0,2,2,1,1,,,,,,,,,,,,,,,,,,,,,,,,,,,,,,,,,,,,,,,,,
026963,001,2022-11-20_15h50.28.440,Info_measure_main_exp,2022.2.2,MacIntel,60.0024001,,,,,,,,,,,,,,,,,,masks/mask_003.jpg,,,,,,,,,,,,,,,,,,,,,,,,,,,,,,,,,,,,,,,,,,,,,,,,0,3,3,2,1,,,,,,,,,,,,,,,,,,,,,,,,,,,,,,,,,,,,,,,,,
026963,001,2022-11-20_15h50.28.440,Info_measure_main_exp,2022.2.2,MacIntel,60.0024001,,,,,,,,,,,,,,,,,,masks/mask_001.jpg,,,,,,,,,,,,,,,,,,,,,,,,,,,,,,,,,,,,,,,,,,,,,,,,0,4,4,0,1,,,,,,,,,,,,,,,,,,,,,,,,,,,,,,,,,,,,,,,,,
026963,001,2022-11-20_15h50.28.440,Info_measure_main_exp,2022.2.2,MacIntel,60.0024001,,,,,,,,,,,,,,,,,,,,,,,,,,,,,,0,0.7835,1,,,,,,,,,,,,0,131,5,5,2178,2178,absent_patch/patch0002178.jpg,absent_patch/patch0002178.jpg,,,,,,,,,,,,,,,,,,,,-0.024730903,0.102934028,1,0,0,response7disk,7,-0.007460937,-0.004761285,1,0,0,center_square,0,6,6,98,1,,,,,,,,,,,,,,,,,,,,,,,
026963,001,2022-11-20_15h50.28.440,Info_measure_main_exp,2022.2.2,MacIntel,60.0024001,,,,,,,,,,,,,,,,,,masks/mask_002.jpg,,,,,,,,,,,,,,,,,,,,,,,,,,,,,,,,,,,,,,,,,,,0,0,0,1,1,,,,,,,,,,,,,,,,,,,,,,,,,,,,,,,,,,,,,,,,,,,,,,
026963,001,2022-11-20_15h50.28.440,Info_measure_main_exp,2022.2.2,MacIntel,60.0024001,,,,,,,,,,,,,,,,,,masks/mask_005.jpg,,,,,,,,,,,,,,,,,,,,,,,,,,,,,,,,,,,,,,,,,,,0,1,1,4,1,,,,,,,,,,,,,,,,,,,,,,,,,,,,,,,,,,,,,,,,,,,,,,
026963,001,2022-11-20_15h50.28.440,Info_measure_main_exp,2022.2.2,MacIntel,60.0024001,,,,,,,,,,,,,,,,,,masks/mask_004.jpg,,,,,,,,,,,,,,,,,,,,,,,,,,,,,,,,,,,,,,,,,,,0,2,2,3,1,,,,,,,,,,,,,,,,,,,,,,,,,,,,,,,,,,,,,,,,,,,,,,
026963,001,2022-11-20_15h50.28.440,Info_measure_main_exp,2022.2.2,MacIntel,60.0024001,,,,,,,,,,,,,,,,,,masks/mask_001.jpg,,,,,,,,,,,,,,,,,,,,,,,,,,,,,,,,,,,,,,,,,,,0,3,3,0,1,,,,,,,,,,,,,,,,,,,,,,,,,,,,,,,,,,,,,,,,,,,,,,
026963,001,2022-11-20_15h50.28.440,Info_measure_main_exp,2022.2.2,MacIntel,60.0024001,,,,,,,,,,,,,,,,,,masks/mask_003.jpg,,,,,,,,,,,,,,,,,,,,,,,,,,,,,,,,,,,,,,,,,,,0,4,4,2,1,,,,,,,,,,,,,,,,,,,,,,,,,,,,,,,,,,,,,,,,,,,,,,
026963,001,2022-11-20_15h50.28.440,Info_measure_main_exp,2022.2.2,MacIntel,60.0024001,,,,,,,,,,,,,,,,,,masks/mask_003.jpg,,,,,,,,,,,,,,,,,,,,,,,,,,,,,,,,,,,,,,,,,,,,,,,,0,0,0,2,1,,,,,,,,,,,,,,,,,,,,,,,,,,,,,,,,,,,,,,,,,
026963,001,2022-11-20_15h50.28.440,Info_measure_main_exp,2022.2.2,MacIntel,60.0024001,,,,,,,,,,,,,,,,,,masks/mask_005.jpg,,,,,,,,,,,,,,,,,,,,,,,,,,,,,,,,,,,,,,,,,,,,,,,,0,1,1,4,1,,,,,,,,,,,,,,,,,,,,,,,,,,,,,,,,,,,,,,,,,
026963,001,2022-11-20_15h50.28.440,Info_measure_main_exp,2022.2.2,MacIntel,60.0024001,,,,,,,,,,,,,,,,,,masks/mask_002.jpg,,,,,,,,,,,,,,,,,,,,,,,,,,,,,,,,,,,,,,,,,,,,,,,,0,2,2,1,1,,,,,,,,,,,,,,,,,,,,,,,,,,,,,,,,,,,,,,,,,
026963,001,2022-11-20_15h50.28.440,Info_measure_main_exp,2022.2.2,MacIntel,60.0024001,,,,,,,,,,,,,,,,,,masks/mask_004.jpg,,,,,,,,,,,,,,,,,,,,,,,,,,,,,,,,,,,,,,,,,,,,,,,,0,3,3,3,1,,,,,,,,,,,,,,,,,,,,,,,,,,,,,,,,,,,,,,,,,
026963,001,2022-11-20_15h50.28.440,Info_measure_main_exp,2022.2.2,MacIntel,60.0024001,,,,,,,,,,,,,,,,,,masks/mask_001.jpg,,,,,,,,,,,,,,,,,,,,,,,,,,,,,,,,,,,,,,,,,,,,,,,,0,4,4,0,1,,,,,,,,,,,,,,,,,,,,,,,,,,,,,,,,,,,,,,,,,
026963,001,2022-11-20_15h50.28.440,Info_measure_main_exp,2022.2.2,MacIntel,60.0024001,,,,,,,,,,,,,,,,,,,,,,,,,,,,,,6,1.6662,1,,,,,,,,,,,,0,131,5,5,2274,2190,absent_patch/patch0002274.jpg,absent_patch/patch0002190.jpg,,,,,,,,,,,,,,,,,,,,0.115564236,0.030920139,1,0,0,response1disk,8,0.014136285,-0.00640625,1,0,0,center_square,0,7,7,116,1,,,,,,,,,,,,,,,,,,,,,,,
026963,001,2022-11-20_15h50.28.440,Info_measure_main_exp,2022.2.2,MacIntel,60.0024001,,,,,,,,,,,,,,,,,,masks/mask_003.jpg,,,,,,,,,,,,,,,,,,,,,,,,,,,,,,,,,,,,,,,,,,,0,0,0,2,1,,,,,,,,,,,,,,,,,,,,,,,,,,,,,,,,,,,,,,,,,,,,,,
026963,001,2022-11-20_15h50.28.440,Info_measure_main_exp,2022.2.2,MacIntel,60.0024001,,,,,,,,,,,,,,,,,,masks/mask_001.jpg,,,,,,,,,,,,,,,,,,,,,,,,,,,,,,,,,,,,,,,,,,,0,1,1,0,1,,,,,,,,,,,,,,,,,,,,,,,,,,,,,,,,,,,,,,,,,,,,,,
026963,001,2022-11-20_15h50.28.440,Info_measure_main_exp,2022.2.2,MacIntel,60.0024001,,,,,,,,,,,,,,,,,,masks/mask_005.jpg,,,,,,,,,,,,,,,,,,,,,,,,,,,,,,,,,,,,,,,,,,,0,2,2,4,1,,,,,,,,,,,,,,,,,,,,,,,,,,,,,,,,,,,,,,,,,,,,,,
026963,001,2022-11-20_15h50.28.440,Info_measure_main_exp,2022.2.2,MacIntel,60.0024001,,,,,,,,,,,,,,,,,,masks/mask_004.jpg,,,,,,,,,,,,,,,,,,,,,,,,,,,,,,,,,,,,,,,,,,,0,3,3,3,1,,,,,,,,,,,,,,,,,,,,,,,,,,,,,,,,,,,,,,,,,,,,,,
026963,001,2022-11-20_15h50.28.440,Info_measure_main_exp,2022.2.2,MacIntel,60.0024001,,,,,,,,,,,,,,,,,,masks/mask_002.jpg,,,,,,,,,,,,,,,,,,,,,,,,,,,,,,,,,,,,,,,,,,,0,4,4,1,1,,,,,,,,,,,,,,,,,,,,,,,,,,,,,,,,,,,,,,,,,,,,,,
026963,001,2022-11-20_15h50.28.440,Info_measure_main_exp,2022.2.2,MacIntel,60.0024001,,,,,,,,,,,,,,,,,,masks/mask_003.jpg,,,,,,,,,,,,,,,,,,,,,,,,,,,,,,,,,,,,,,,,,,,,,,,,0,0,0,2,1,,,,,,,,,,,,,,,,,,,,,,,,,,,,,,,,,,,,,,,,,
026963,001,2022-11-20_15h50.28.440,Info_measure_main_exp,2022.2.2,MacIntel,60.0024001,,,,,,,,,,,,,,,,,,masks/mask_001.jpg,,,,,,,,,,,,,,,,,,,,,,,,,,,,,,,,,,,,,,,,,,,,,,,,0,1,1,0,1,,,,,,,,,,,,,,,,,,,,,,,,,,,,,,,,,,,,,,,,,
026963,001,2022-11-20_15h50.28.440,Info_measure_main_exp,2022.2.2,MacIntel,60.0024001,,,,,,,,,,,,,,,,,,masks/mask_005.jpg,,,,,,,,,,,,,,,,,,,,,,,,,,,,,,,,,,,,,,,,,,,,,,,,0,2,2,4,1,,,,,,,,,,,,,,,,,,,,,,,,,,,,,,,,,,,,,,,,,
026963,001,2022-11-20_15h50.28.440,Info_measure_main_exp,2022.2.2,MacIntel,60.0024001,,,,,,,,,,,,,,,,,,masks/mask_002.jpg,,,,,,,,,,,,,,,,,,,,,,,,,,,,,,,,,,,,,,,,,,,,,,,,0,3,3,1,1,,,,,,,,,,,,,,,,,,,,,,,,,,,,,,,,,,,,,,,,,
026963,001,2022-11-20_15h50.28.440,Info_measure_main_exp,2022.2.2,MacIntel,60.0024001,,,,,,,,,,,,,,,,,,masks/mask_004.jpg,,,,,,,,,,,,,,,,,,,,,,,,,,,,,,,,,,,,,,,,,,,,,,,,0,4,4,3,1,,,,,,,,,,,,,,,,,,,,,,,,,,,,,,,,,,,,,,,,,
026963,001,2022-11-20_15h50.28.440,Info_measure_main_exp,2022.2.2,MacIntel,60.0024001,,,,,,,,,,,,,,,,,,,,,,,,,,,,,,0,0.4679,1,,,,,,,,,,,,0,131,5,5,2298,2298,absent_patch/patch0002298.jpg,absent_patch/patch0002298.jpg,,,,,,,,,,,,,,,,,,,,-0.047291667,0.115664062,1,0,0,response7disk,9,0.002113715,-0.006102431,1,0,0,center_square,0,8,8,37,1,,,,,,,,,,,,,,,,,,,,,,,
026963,001,2022-11-20_15h50.28.440,Info_measure_main_exp,2022.2.2,MacIntel,60.0024001,,,,,,,,,,,,,,,,,,masks/mask_002.jpg,,,,,,,,,,,,,,,,,,,,,,,,,,,,,,,,,,,,,,,,,,,0,0,0,1,1,,,,,,,,,,,,,,,,,,,,,,,,,,,,,,,,,,,,,,,,,,,,,,
026963,001,2022-11-20_15h50.28.440,Info_measure_main_exp,2022.2.2,MacIntel,60.0024001,,,,,,,,,,,,,,,,,,masks/mask_003.jpg,,,,,,,,,,,,,,,,,,,,,,,,,,,,,,,,,,,,,,,,,,,0,1,1,2,1,,,,,,,,,,,,,,,,,,,,,,,,,,,,,,,,,,,,,,,,,,,,,,
026963,001,2022-11-20_15h50.28.440,Info_measure_main_exp,2022.2.2,MacIntel,60.0024001,,,,,,,,,,,,,,,,,,masks/mask_005.jpg,,,,,,,,,,,,,,,,,,,,,,,,,,,,,,,,,,,,,,,,,,,0,2,2,4,1,,,,,,,,,,,,,,,,,,,,,,,,,,,,,,,,,,,,,,,,,,,,,,
026963,001,2022-11-20_15h50.28.440,Info_measure_main_exp,2022.2.2,MacIntel,60.0024001,,,,,,,,,,,,,,,,,,masks/mask_001.jpg,,,,,,,,,,,,,,,,,,,,,,,,,,,,,,,,,,,,,,,,,,,0,3,3,0,1,,,,,,,,,,,,,,,,,,,,,,,,,,,,,,,,,,,,,,,,,,,,,,
026963,001,2022-11-20_15h50.28.440,Info_measure_main_exp,2022.2.2,MacIntel,60.0024001,,,,,,,,,,,,,,,,,,masks/mask_004.jpg,,,,,,,,,,,,,,,,,,,,,,,,,,,,,,,,,,,,,,,,,,,0,4,4,3,1,,,,,,,,,,,,,,,,,,,,,,,,,,,,,,,,,,,,,,,,,,,,,,
026963,001,2022-11-20_15h50.28.440,Info_measure_main_exp,2022.2.2,MacIntel,60.0024001,,,,,,,,,,,,,,,,,,masks/mask_005.jpg,,,,,,,,,,,,,,,,,,,,,,,,,,,,,,,,,,,,,,,,,,,,,,,,0,0,0,4,1,,,,,,,,,,,,,,,,,,,,,,,,,,,,,,,,,,,,,,,,,
026963,001,2022-11-20_15h50.28.440,Info_measure_main_exp,2022.2.2,MacIntel,60.0024001,,,,,,,,,,,,,,,,,,masks/mask_004.jpg,,,,,,,,,,,,,,,,,,,,,,,,,,,,,,,,,,,,,,,,,,,,,,,,0,1,1,3,1,,,,,,,,,,,,,,,,,,,,,,,,,,,,,,,,,,,,,,,,,
026963,001,2022-11-20_15h50.28.440,Info_measure_main_exp,2022.2.2,MacIntel,60.0024001,,,,,,,,,,,,,,,,,,masks/mask_001.jpg,,,,,,,,,,,,,,,,,,,,,,,,,,,,,,,,,,,,,,,,,,,,,,,,0,2,2,0,1,,,,,,,,,,,,,,,,,,,,,,,,,,,,,,,,,,,,,,,,,
026963,001,2022-11-20_15h50.28.440,Info_measure_main_exp,2022.2.2,MacIntel,60.0024001,,,,,,,,,,,,,,,,,,masks/mask_003.jpg,,,,,,,,,,,,,,,,,,,,,,,,,,,,,,,,,,,,,,,,,,,,,,,,0,3,3,2,1,,,,,,,,,,,,,,,,,,,,,,,,,,,,,,,,,,,,,,,,,
026963,001,2022-11-20_15h50.28.440,Info_measure_main_exp,2022.2.2,MacIntel,60.0024001,,,,,,,,,,,,,,,,,,masks/mask_002.jpg,,,,,,,,,,,,,,,,,,,,,,,,,,,,,,,,,,,,,,,,,,,,,,,,0,4,4,1,1,,,,,,,,,,,,,,,,,,,,,,,,,,,,,,,,,,,,,,,,,
026963,001,2022-11-20_15h50.28.440,Info_measure_main_exp,2022.2.2,MacIntel,60.0024001,,,,,,,,,,,,,,,,,,,,,,,,,,,,,,7,0.65,1,,,,,,,,,,,,0,131,5,5,2190,2214,absent_patch/patch0002190.jpg,absent_patch/patch0002214.jpg,,,,,,,,,,,,,,,,,,,,0.042161458,0.101753472,1,0,0,response1disk,10,0.009357639,0.001770833,1,0,0,center_square,0,9,9,35,1,,,,,,,,,,,,,,,,,,,,,,,
026963,001,2022-11-20_15h50.28.440,Info_measure_main_exp,2022.2.2,MacIntel,60.0024001,,,,,,,,,,,,,,,,,,masks/mask_004.jpg,,,,,,,,,,,,,,,,,,,,,,,,,,,,,,,,,,,,,,,,,,,0,0,0,3,1,,,,,,,,,,,,,,,,,,,,,,,,,,,,,,,,,,,,,,,,,,,,,,
026963,001,2022-11-20_15h50.28.440,Info_measure_main_exp,2022.2.2,MacIntel,60.0024001,,,,,,,,,,,,,,,,,,masks/mask_001.jpg,,,,,,,,,,,,,,,,,,,,,,,,,,,,,,,,,,,,,,,,,,,0,1,1,0,1,,,,,,,,,,,,,,,,,,,,,,,,,,,,,,,,,,,,,,,,,,,,,,
026963,001,2022-11-20_15h50.28.440,Info_measure_main_exp,2022.2.2,MacIntel,60.0024001,,,,,,,,,,,,,,,,,,masks/mask_003.jpg,,,,,,,,,,,,,,,,,,,,,,,,,,,,,,,,,,,,,,,,,,,0,2,2,2,1,,,,,,,,,,,,,,,,,,,,,,,,,,,,,,,,,,,,,,,,,,,,,,
026963,001,2022-11-20_15h50.28.440,Info_measure_main_exp,2022.2.2,MacIntel,60.0024001,,,,,,,,,,,,,,,,,,masks/mask_005.jpg,,,,,,,,,,,,,,,,,,,,,,,,,,,,,,,,,,,,,,,,,,,0,3,3,4,1,,,,,,,,,,,,,,,,,,,,,,,,,,,,,,,,,,,,,,,,,,,,,,
026963,001,2022-11-20_15h50.28.440,Info_measure_main_exp,2022.2.2,MacIntel,60.0024001,,,,,,,,,,,,,,,,,,masks/mask_002.jpg,,,,,,,,,,,,,,,,,,,,,,,,,,,,,,,,,,,,,,,,,,,0,4,4,1,1,,,,,,,,,,,,,,,,,,,,,,,,,,,,,,,,,,,,,,,,,,,,,,
026963,001,2022-11-20_15h50.28.440,Info_measure_main_exp,2022.2.2,MacIntel,60.0024001,,,,,,,,,,,,,,,,,,masks/mask_005.jpg,,,,,,,,,,,,,,,,,,,,,,,,,,,,,,,,,,,,,,,,,,,,,,,,0,0,0,4,1,,,,,,,,,,,,,,,,,,,,,,,,,,,,,,,,,,,,,,,,,
026963,001,2022-11-20_15h50.28.440,Info_measure_main_exp,2022.2.2,MacIntel,60.0024001,,,,,,,,,,,,,,,,,,masks/mask_004.jpg,,,,,,,,,,,,,,,,,,,,,,,,,,,,,,,,,,,,,,,,,,,,,,,,0,1,1,3,1,,,,,,,,,,,,,,,,,,,,,,,,,,,,,,,,,,,,,,,,,
026963,001,2022-11-20_15h50.28.440,Info_measure_main_exp,2022.2.2,MacIntel,60.0024001,,,,,,,,,,,,,,,,,,masks/mask_001.jpg,,,,,,,,,,,,,,,,,,,,,,,,,,,,,,,,,,,,,,,,,,,,,,,,0,2,2,0,1,,,,,,,,,,,,,,,,,,,,,,,,,,,,,,,,,,,,,,,,,
026963,001,2022-11-20_15h50.28.440,Info_measure_main_exp,2022.2.2,MacIntel,60.0024001,,,,,,,,,,,,,,,,,,masks/mask_002.jpg,,,,,,,,,,,,,,,,,,,,,,,,,,,,,,,,,,,,,,,,,,,,,,,,0,3,3,1,1,,,,,,,,,,,,,,,,,,,,,,,,,,,,,,,,,,,,,,,,,
026963,001,2022-11-20_15h50.28.440,Info_measure_main_exp,2022.2.2,MacIntel,60.0024001,,,,,,,,,,,,,,,,,,masks/mask_003.jpg,,,,,,,,,,,,,,,,,,,,,,,,,,,,,,,,,,,,,,,,,,,,,,,,0,4,4,2,1,,,,,,,,,,,,,,,,,,,,,,,,,,,,,,,,,,,,,,,,,
026963,001,2022-11-20_15h50.28.440,Info_measure_main_exp,2022.2.2,MacIntel,60.0024001,,,,,,,,,,,,,,,,,,,,,,,,,,,,,,4,1.3666,1,,,,,,,,,,,,0,131,5,5,2166,2154,absent_patch/patch0002166.jpg,absent_patch/patch0002154.jpg,,,,,,,,,,,,,,,,,,,,0.029388021,-0.116987847,1,0,0,response3disk,11,0.001293403,-0.000828993,1,0,0,center_square,0,10,10,79,1,,,,,,,,,,,,,,,,,,,,,,,
026963,001,2022-11-20_15h50.28.440,Info_measure_main_exp,2022.2.2,MacIntel,60.0024001,,,,,,,,,,,,,,,,,,masks/mask_002.jpg,,,,,,,,,,,,,,,,,,,,,,,,,,,,,,,,,,,,,,,,,,,0,0,0,1,1,,,,,,,,,,,,,,,,,,,,,,,,,,,,,,,,,,,,,,,,,,,,,,
026963,001,2022-11-20_15h50.28.440,Info_measure_main_exp,2022.2.2,MacIntel,60.0024001,,,,,,,,,,,,,,,,,,masks/mask_005.jpg,,,,,,,,,,,,,,,,,,,,,,,,,,,,,,,,,,,,,,,,,,,0,1,1,4,1,,,,,,,,,,,,,,,,,,,,,,,,,,,,,,,,,,,,,,,,,,,,,,
026963,001,2022-11-20_15h50.28.440,Info_measure_main_exp,2022.2.2,MacIntel,60.0024001,,,,,,,,,,,,,,,,,,masks/mask_003.jpg,,,,,,,,,,,,,,,,,,,,,,,,,,,,,,,,,,,,,,,,,,,0,2,2,2,1,,,,,,,,,,,,,,,,,,,,,,,,,,,,,,,,,,,,,,,,,,,,,,
026963,001,2022-11-20_15h50.28.440,Info_measure_main_exp,2022.2.2,MacIntel,60.0024001,,,,,,,,,,,,,,,,,,masks/mask_004.jpg,,,,,,,,,,,,,,,,,,,,,,,,,,,,,,,,,,,,,,,,,,,0,3,3,3,1,,,,,,,,,,,,,,,,,,,,,,,,,,,,,,,,,,,,,,,,,,,,,,
026963,001,2022-11-20_15h50.28.440,Info_measure_main_exp,2022.2.2,MacIntel,60.0024001,,,,,,,,,,,,,,,,,,masks/mask_001.jpg,,,,,,,,,,,,,,,,,,,,,,,,,,,,,,,,,,,,,,,,,,,0,4,4,0,1,,,,,,,,,,,,,,,,,,,,,,,,,,,,,,,,,,,,,,,,,,,,,,
026963,001,2022-11-20_15h50.28.440,Info_measure_main_exp,2022.2.2,MacIntel,60.0024001,,,,,,,,,,,,,,,,,,masks/mask_005.jpg,,,,,,,,,,,,,,,,,,,,,,,,,,,,,,,,,,,,,,,,,,,,,,,,0,0,0,4,1,,,,,,,,,,,,,,,,,,,,,,,,,,,,,,,,,,,,,,,,,
026963,001,2022-11-20_15h50.28.440,Info_measure_main_exp,2022.2.2,MacIntel,60.0024001,,,,,,,,,,,,,,,,,,masks/mask_004.jpg,,,,,,,,,,,,,,,,,,,,,,,,,,,,,,,,,,,,,,,,,,,,,,,,0,1,1,3,1,,,,,,,,,,,,,,,,,,,,,,,,,,,,,,,,,,,,,,,,,
026963,001,2022-11-20_15h50.28.440,Info_measure_main_exp,2022.2.2,MacIntel,60.0024001,,,,,,,,,,,,,,,,,,masks/mask_001.jpg,,,,,,,,,,,,,,,,,,,,,,,,,,,,,,,,,,,,,,,,,,,,,,,,0,2,2,0,1,,,,,,,,,,,,,,,,,,,,,,,,,,,,,,,,,,,,,,,,,
026963,001,2022-11-20_15h50.28.440,Info_measure_main_exp,2022.2.2,MacIntel,60.0024001,,,,,,,,,,,,,,,,,,masks/mask_003.jpg,,,,,,,,,,,,,,,,,,,,,,,,,,,,,,,,,,,,,,,,,,,,,,,,0,3,3,2,1,,,,,,,,,,,,,,,,,,,,,,,,,,,,,,,,,,,,,,,,,
026963,001,2022-11-20_15h50.28.440,Info_measure_main_exp,2022.2.2,MacIntel,60.0024001,,,,,,,,,,,,,,,,,,masks/mask_002.jpg,,,,,,,,,,,,,,,,,,,,,,,,,,,,,,,,,,,,,,,,,,,,,,,,0,4,4,1,1,,,,,,,,,,,,,,,,,,,,,,,,,,,,,,,,,,,,,,,,,
026963,001,2022-11-20_15h50.28.440,Info_measure_main_exp,2022.2.2,MacIntel,60.0024001,,,,,,,,,,,,,,,,,,,,,,,,,,,,,,4,3.0325,1,,,,,,,,,,,,1,131,5,5,1,1986,present_patch/cong_131_5_a.jpg,absent_patch/patch0001986.jpg,,,,,,,,,,,,,,,,,,,,0.015837674,-0.075121528,1,0,0,response3disk,12,0.004800347,0.000399306,1,0,0,center_square,0,11,11,106,1,,,,,,,,,,,,,,,,,,,,,,,
026963,001,2022-11-20_15h50.28.440,Info_measure_main_exp,2022.2.2,MacIntel,60.0024001,,,,,,,,,,,,,,,,,,masks/mask_005.jpg,,,,,,,,,,,,,,,,,,,,,,,,,,,,,,,,,,,,,,,,,,,0,0,0,4,1,,,,,,,,,,,,,,,,,,,,,,,,,,,,,,,,,,,,,,,,,,,,,,
026963,001,2022-11-20_15h50.28.440,Info_measure_main_exp,2022.2.2,MacIntel,60.0024001,,,,,,,,,,,,,,,,,,masks/mask_003.jpg,,,,,,,,,,,,,,,,,,,,,,,,,,,,,,,,,,,,,,,,,,,0,1,1,2,1,,,,,,,,,,,,,,,,,,,,,,,,,,,,,,,,,,,,,,,,,,,,,,
026963,001,2022-11-20_15h50.28.440,Info_measure_main_exp,2022.2.2,MacIntel,60.0024001,,,,,,,,,,,,,,,,,,masks/mask_001.jpg,,,,,,,,,,,,,,,,,,,,,,,,,,,,,,,,,,,,,,,,,,,0,2,2,0,1,,,,,,,,,,,,,,,,,,,,,,,,,,,,,,,,,,,,,,,,,,,,,,
026963,001,2022-11-20_15h50.28.440,Info_measure_main_exp,2022.2.2,MacIntel,60.0024001,,,,,,,,,,,,,,,,,,masks/mask_004.jpg,,,,,,,,,,,,,,,,,,,,,,,,,,,,,,,,,,,,,,,,,,,0,3,3,3,1,,,,,,,,,,,,,,,,,,,,,,,,,,,,,,,,,,,,,,,,,,,,,,
026963,001,2022-11-20_15h50.28.440,Info_measure_main_exp,2022.2.2,MacIntel,60.0024001,,,,,,,,,,,,,,,,,,masks/mask_002.jpg,,,,,,,,,,,,,,,,,,,,,,,,,,,,,,,,,,,,,,,,,,,0,4,4,1,1,,,,,,,,,,,,,,,,,,,,,,,,,,,,,,,,,,,,,,,,,,,,,,
026963,001,2022-11-20_15h50.28.440,Info_measure_main_exp,2022.2.2,MacIntel,60.0024001,,,,,,,,,,,,,,,,,,masks/mask_004.jpg,,,,,,,,,,,,,,,,,,,,,,,,,,,,,,,,,,,,,,,,,,,,,,,,0,0,0,3,1,,,,,,,,,,,,,,,,,,,,,,,,,,,,,,,,,,,,,,,,,
026963,001,2022-11-20_15h50.28.440,Info_measure_main_exp,2022.2.2,MacIntel,60.0024001,,,,,,,,,,,,,,,,,,masks/mask_001.jpg,,,,,,,,,,,,,,,,,,,,,,,,,,,,,,,,,,,,,,,,,,,,,,,,0,1,1,0,1,,,,,,,,,,,,,,,,,,,,,,,,,,,,,,,,,,,,,,,,,
026963,001,2022-11-20_15h50.28.440,Info_measure_main_exp,2022.2.2,MacIntel,60.0024001,,,,,,,,,,,,,,,,,,masks/mask_005.jpg,,,,,,,,,,,,,,,,,,,,,,,,,,,,,,,,,,,,,,,,,,,,,,,,0,2,2,4,1,,,,,,,,,,,,,,,,,,,,,,,,,,,,,,,,,,,,,,,,,
026963,001,2022-11-20_15h50.28.440,Info_measure_main_exp,2022.2.2,MacIntel,60.0024001,,,,,,,,,,,,,,,,,,masks/mask_003.jpg,,,,,,,,,,,,,,,,,,,,,,,,,,,,,,,,,,,,,,,,,,,,,,,,0,3,3,2,1,,,,,,,,,,,,,,,,,,,,,,,,,,,,,,,,,,,,,,,,,
026963,001,2022-11-20_15h50.28.440,Info_measure_main_exp,2022.2.2,MacIntel,60.0024001,,,,,,,,,,,,,,,,,,masks/mask_002.jpg,,,,,,,,,,,,,,,,,,,,,,,,,,,,,,,,,,,,,,,,,,,,,,,,0,4,4,1,1,,,,,,,,,,,,,,,,,,,,,,,,,,,,,,,,,,,,,,,,,
026963,001,2022-11-20_15h50.28.440,Info_measure_main_exp,2022.2.2,MacIntel,60.0024001,,,,,,,,,,,,,,,,,,,,,,,,,,,,,,2,3.9997,1,,,,,,,,,,,,0,131,5,5,2082,2298,absent_patch/patch0002082.jpg,absent_patch/patch0002298.jpg,,,,,,,,,,,,,,,,,,,,-0.076467014,-0.021332465,1,0,0,response5disk,13,0.001705729,-0.010763889,1,0,0,center_square,0,12,12,107,1,,,,,,,,,,,,,,,,,,,,,,,
026963,001,2022-11-20_15h50.28.440,Info_measure_main_exp,2022.2.2,MacIntel,60.0024001,,,,,,,,,,,,,,,,,,masks/mask_003.jpg,,,,,,,,,,,,,,,,,,,,,,,,,,,,,,,,,,,,,,,,,,,0,0,0,2,1,,,,,,,,,,,,,,,,,,,,,,,,,,,,,,,,,,,,,,,,,,,,,,
026963,001,2022-11-20_15h50.28.440,Info_measure_main_exp,2022.2.2,MacIntel,60.0024001,,,,,,,,,,,,,,,,,,masks/mask_002.jpg,,,,,,,,,,,,,,,,,,,,,,,,,,,,,,,,,,,,,,,,,,,0,1,1,1,1,,,,,,,,,,,,,,,,,,,,,,,,,,,,,,,,,,,,,,,,,,,,,,
026963,001,2022-11-20_15h50.28.440,Info_measure_main_exp,2022.2.2,MacIntel,60.0024001,,,,,,,,,,,,,,,,,,masks/mask_005.jpg,,,,,,,,,,,,,,,,,,,,,,,,,,,,,,,,,,,,,,,,,,,0,2,2,4,1,,,,,,,,,,,,,,,,,,,,,,,,,,,,,,,,,,,,,,,,,,,,,,
026963,001,2022-11-20_15h50.28.440,Info_measure_main_exp,2022.2.2,MacIntel,60.0024001,,,,,,,,,,,,,,,,,,masks/mask_004.jpg,,,,,,,,,,,,,,,,,,,,,,,,,,,,,,,,,,,,,,,,,,,0,3,3,3,1,,,,,,,,,,,,,,,,,,,,,,,,,,,,,,,,,,,,,,,,,,,,,,
026963,001,2022-11-20_15h50.28.440,Info_measure_main_exp,2022.2.2,MacIntel,60.0024001,,,,,,,,,,,,,,,,,,masks/mask_001.jpg,,,,,,,,,,,,,,,,,,,,,,,,,,,,,,,,,,,,,,,,,,,0,4,4,0,1,,,,,,,,,,,,,,,,,,,,,,,,,,,,,,,,,,,,,,,,,,,,,,
026963,001,2022-11-20_15h50.28.440,Info_measure_main_exp,2022.2.2,MacIntel,60.0024001,,,,,,,,,,,,,,,,,,masks/mask_003.jpg,,,,,,,,,,,,,,,,,,,,,,,,,,,,,,,,,,,,,,,,,,,,,,,,0,0,0,2,1,,,,,,,,,,,,,,,,,,,,,,,,,,,,,,,,,,,,,,,,,
026963,001,2022-11-20_15h50.28.440,Info_measure_main_exp,2022.2.2,MacIntel,60.0024001,,,,,,,,,,,,,,,,,,masks/mask_005.jpg,,,,,,,,,,,,,,,,,,,,,,,,,,,,,,,,,,,,,,,,,,,,,,,,0,1,1,4,1,,,,,,,,,,,,,,,,,,,,,,,,,,,,,,,,,,,,,,,,,
026963,001,2022-11-20_15h50.28.440,Info_measure_main_exp,2022.2.2,MacIntel,60.0024001,,,,,,,,,,,,,,,,,,masks/mask_001.jpg,,,,,,,,,,,,,,,,,,,,,,,,,,,,,,,,,,,,,,,,,,,,,,,,0,2,2,0,1,,,,,,,,,,,,,,,,,,,,,,,,,,,,,,,,,,,,,,,,,
026963,001,2022-11-20_15h50.28.440,Info_measure_main_exp,2022.2.2,MacIntel,60.0024001,,,,,,,,,,,,,,,,,,masks/mask_004.jpg,,,,,,,,,,,,,,,,,,,,,,,,,,,,,,,,,,,,,,,,,,,,,,,,0,3,3,3,1,,,,,,,,,,,,,,,,,,,,,,,,,,,,,,,,,,,,,,,,,
026963,001,2022-11-20_15h50.28.440,Info_measure_main_exp,2022.2.2,MacIntel,60.0024001,,,,,,,,,,,,,,,,,,masks/mask_002.jpg,,,,,,,,,,,,,,,,,,,,,,,,,,,,,,,,,,,,,,,,,,,,,,,,0,4,4,1,1,,,,,,,,,,,,,,,,,,,,,,,,,,,,,,,,,,,,,,,,,
026963,001,2022-11-20_15h50.28.440,Info_measure_main_exp,2022.2.2,MacIntel,60.0024001,,,,,,,,,,,,,,,,,,,,,,,,,,,,,,7,0.6507,1,,,,,,,,,,,,0,131,5,5,2274,2250,absent_patch/patch0002274.jpg,absent_patch/patch0002250.jpg,,,,,,,,,,,,,,,,,,,,0.043242188,0.119713542,1,0,0,response1disk,14,-0.003884549,0.010598958,1,0,0,center_square,0,13,13,28,1,,,,,,,,,,,,,,,,,,,,,,,
026963,001,2022-11-20_15h50.28.440,Info_measure_main_exp,2022.2.2,MacIntel,60.0024001,,,,,,,,,,,,,,,,,,masks/mask_005.jpg,,,,,,,,,,,,,,,,,,,,,,,,,,,,,,,,,,,,,,,,,,,0,0,0,4,1,,,,,,,,,,,,,,,,,,,,,,,,,,,,,,,,,,,,,,,,,,,,,,
026963,001,2022-11-20_15h50.28.440,Info_measure_main_exp,2022.2.2,MacIntel,60.0024001,,,,,,,,,,,,,,,,,,masks/mask_002.jpg,,,,,,,,,,,,,,,,,,,,,,,,,,,,,,,,,,,,,,,,,,,0,1,1,1,1,,,,,,,,,,,,,,,,,,,,,,,,,,,,,,,,,,,,,,,,,,,,,,
026963,001,2022-11-20_15h50.28.440,Info_measure_main_exp,2022.2.2,MacIntel,60.0024001,,,,,,,,,,,,,,,,,,masks/mask_003.jpg,,,,,,,,,,,,,,,,,,,,,,,,,,,,,,,,,,,,,,,,,,,0,2,2,2,1,,,,,,,,,,,,,,,,,,,,,,,,,,,,,,,,,,,,,,,,,,,,,,
026963,001,2022-11-20_15h50.28.440,Info_measure_main_exp,2022.2.2,MacIntel,60.0024001,,,,,,,,,,,,,,,,,,masks/mask_004.jpg,,,,,,,,,,,,,,,,,,,,,,,,,,,,,,,,,,,,,,,,,,,0,3,3,3,1,,,,,,,,,,,,,,,,,,,,,,,,,,,,,,,,,,,,,,,,,,,,,,
026963,001,2022-11-20_15h50.28.440,Info_measure_main_exp,2022.2.2,MacIntel,60.0024001,,,,,,,,,,,,,,,,,,masks/mask_001.jpg,,,,,,,,,,,,,,,,,,,,,,,,,,,,,,,,,,,,,,,,,,,0,4,4,0,1,,,,,,,,,,,,,,,,,,,,,,,,,,,,,,,,,,,,,,,,,,,,,,
026963,001,2022-11-20_15h50.28.440,Info_measure_main_exp,2022.2.2,MacIntel,60.0024001,,,,,,,,,,,,,,,,,,masks/mask_003.jpg,,,,,,,,,,,,,,,,,,,,,,,,,,,,,,,,,,,,,,,,,,,,,,,,0,0,0,2,1,,,,,,,,,,,,,,,,,,,,,,,,,,,,,,,,,,,,,,,,,
026963,001,2022-11-20_15h50.28.440,Info_measure_main_exp,2022.2.2,MacIntel,60.0024001,,,,,,,,,,,,,,,,,,masks/mask_005.jpg,,,,,,,,,,,,,,,,,,,,,,,,,,,,,,,,,,,,,,,,,,,,,,,,0,1,1,4,1,,,,,,,,,,,,,,,,,,,,,,,,,,,,,,,,,,,,,,,,,
026963,001,2022-11-20_15h50.28.440,Info_measure_main_exp,2022.2.2,MacIntel,60.0024001,,,,,,,,,,,,,,,,,,masks/mask_004.jpg,,,,,,,,,,,,,,,,,,,,,,,,,,,,,,,,,,,,,,,,,,,,,,,,0,2,2,3,1,,,,,,,,,,,,,,,,,,,,,,,,,,,,,,,,,,,,,,,,,
026963,001,2022-11-20_15h50.28.440,Info_measure_main_exp,2022.2.2,MacIntel,60.0024001,,,,,,,,,,,,,,,,,,masks/mask_001.jpg,,,,,,,,,,,,,,,,,,,,,,,,,,,,,,,,,,,,,,,,,,,,,,,,0,3,3,0,1,,,,,,,,,,,,,,,,,,,,,,,,,,,,,,,,,,,,,,,,,
026963,001,2022-11-20_15h50.28.440,Info_measure_main_exp,2022.2.2,MacIntel,60.0024001,,,,,,,,,,,,,,,,,,masks/mask_002.jpg,,,,,,,,,,,,,,,,,,,,,,,,,,,,,,,,,,,,,,,,,,,,,,,,0,4,4,1,1,,,,,,,,,,,,,,,,,,,,,,,,,,,,,,,,,,,,,,,,,
026963,001,2022-11-20_15h50.28.440,Info_measure_main_exp,2022.2.2,MacIntel,60.0024001,,,,,,,,,,,,,,,,,,,,,,,,,,,,,,7,1.3001,1,,,,,,,,,,,,0,131,5,5,2082,2238,absent_patch/patch0002082.jpg,absent_patch/patch0002238.jpg,,,,,,,,,,,,,,,,,,,,0.02499566,0.107955729,1,0,0,response1disk,15,-0.001901042,-0.000203993,1,0,0,center_square,0,14,14,22,1,,,,,,,,,,,,,,,,,,,,,,,
026963,001,2022-11-20_15h50.28.440,Info_measure_main_exp,2022.2.2,MacIntel,60.0024001,,,,,,,,,,,,,,,,,,masks/mask_002.jpg,,,,,,,,,,,,,,,,,,,,,,,,,,,,,,,,,,,,,,,,,,,0,0,0,1,1,,,,,,,,,,,,,,,,,,,,,,,,,,,,,,,,,,,,,,,,,,,,,,
026963,001,2022-11-20_15h50.28.440,Info_measure_main_exp,2022.2.2,MacIntel,60.0024001,,,,,,,,,,,,,,,,,,masks/mask_001.jpg,,,,,,,,,,,,,,,,,,,,,,,,,,,,,,,,,,,,,,,,,,,0,1,1,0,1,,,,,,,,,,,,,,,,,,,,,,,,,,,,,,,,,,,,,,,,,,,,,,
026963,001,2022-11-20_15h50.28.440,Info_measure_main_exp,2022.2.2,MacIntel,60.0024001,,,,,,,,,,,,,,,,,,masks/mask_003.jpg,,,,,,,,,,,,,,,,,,,,,,,,,,,,,,,,,,,,,,,,,,,0,2,2,2,1,,,,,,,,,,,,,,,,,,,,,,,,,,,,,,,,,,,,,,,,,,,,,,
026963,001,2022-11-20_15h50.28.440,Info_measure_main_exp,2022.2.2,MacIntel,60.0024001,,,,,,,,,,,,,,,,,,masks/mask_005.jpg,,,,,,,,,,,,,,,,,,,,,,,,,,,,,,,,,,,,,,,,,,,0,3,3,4,1,,,,,,,,,,,,,,,,,,,,,,,,,,,,,,,,,,,,,,,,,,,,,,
026963,001,2022-11-20_15h50.28.440,Info_measure_main_exp,2022.2.2,MacIntel,60.0024001,,,,,,,,,,,,,,,,,,masks/mask_004.jpg,,,,,,,,,,,,,,,,,,,,,,,,,,,,,,,,,,,,,,,,,,,0,4,4,3,1,,,,,,,,,,,,,,,,,,,,,,,,,,,,,,,,,,,,,,,,,,,,,,
026963,001,2022-11-20_15h50.28.440,Info_measure_main_exp,2022.2.2,MacIntel,60.0024001,,,,,,,,,,,,,,,,,,masks/mask_002.jpg,,,,,,,,,,,,,,,,,,,,,,,,,,,,,,,,,,,,,,,,,,,,,,,,0,0,0,1,1,,,,,,,,,,,,,,,,,,,,,,,,,,,,,,,,,,,,,,,,,
026963,001,2022-11-20_15h50.28.440,Info_measure_main_exp,2022.2.2,MacIntel,60.0024001,,,,,,,,,,,,,,,,,,masks/mask_004.jpg,,,,,,,,,,,,,,,,,,,,,,,,,,,,,,,,,,,,,,,,,,,,,,,,0,1,1,3,1,,,,,,,,,,,,,,,,,,,,,,,,,,,,,,,,,,,,,,,,,
026963,001,2022-11-20_15h50.28.440,Info_measure_main_exp,2022.2.2,MacIntel,60.0024001,,,,,,,,,,,,,,,,,,masks/mask_005.jpg,,,,,,,,,,,,,,,,,,,,,,,,,,,,,,,,,,,,,,,,,,,,,,,,0,2,2,4,1,,,,,,,,,,,,,,,,,,,,,,,,,,,,,,,,,,,,,,,,,
026963,001,2022-11-20_15h50.28.440,Info_measure_main_exp,2022.2.2,MacIntel,60.0024001,,,,,,,,,,,,,,,,,,masks/mask_001.jpg,,,,,,,,,,,,,,,,,,,,,,,,,,,,,,,,,,,,,,,,,,,,,,,,0,3,3,0,1,,,,,,,,,,,,,,,,,,,,,,,,,,,,,,,,,,,,,,,,,
026963,001,2022-11-20_15h50.28.440,Info_measure_main_exp,2022.2.2,MacIntel,60.0024001,,,,,,,,,,,,,,,,,,masks/mask_003.jpg,,,,,,,,,,,,,,,,,,,,,,,,,,,,,,,,,,,,,,,,,,,,,,,,0,4,4,2,1,,,,,,,,,,,,,,,,,,,,,,,,,,,,,,,,,,,,,,,,,
026963,001,2022-11-20_15h50.28.440,Info_measure_main_exp,2022.2.2,MacIntel,60.0024001,,,,,,,,,,,,,,,,,,,,,,,,,,,,,,0,0.4656,1,,,,,,,,,,,,0,131,5,5,2082,2082,absent_patch/patch0002082.jpg,absent_patch/patch0002082.jpg,,,,,,,,,,,,,,,,,,,,-0.053975694,0.126319444,1,0,0,response7disk,16,-0.006974826,0.016467014,1,0,0,center_square,0,15,15,74,1,,,,,,,,,,,,,,,,,,,,,,,
026963,001,2022-11-20_15h50.28.440,Info_measure_main_exp,2022.2.2,MacIntel,60.0024001,,,,,,,,,,,,,,,,,,masks/mask_002.jpg,,,,,,,,,,,,,,,,,,,,,,,,,,,,,,,,,,,,,,,,,,,0,0,0,1,1,,,,,,,,,,,,,,,,,,,,,,,,,,,,,,,,,,,,,,,,,,,,,,
026963,001,2022-11-20_15h50.28.440,Info_measure_main_exp,2022.2.2,MacIntel,60.0024001,,,,,,,,,,,,,,,,,,masks/mask_003.jpg,,,,,,,,,,,,,,,,,,,,,,,,,,,,,,,,,,,,,,,,,,,0,1,1,2,1,,,,,,,,,,,,,,,,,,,,,,,,,,,,,,,,,,,,,,,,,,,,,,
026963,001,2022-11-20_15h50.28.440,Info_measure_main_exp,2022.2.2,MacIntel,60.0024001,,,,,,,,,,,,,,,,,,masks/mask_004.jpg,,,,,,,,,,,,,,,,,,,,,,,,,,,,,,,,,,,,,,,,,,,0,2,2,3,1,,,,,,,,,,,,,,,,,,,,,,,,,,,,,,,,,,,,,,,,,,,,,,
026963,001,2022-11-20_15h50.28.440,Info_measure_main_exp,2022.2.2,MacIntel,60.0024001,,,,,,,,,,,,,,,,,,masks/mask_001.jpg,,,,,,,,,,,,,,,,,,,,,,,,,,,,,,,,,,,,,,,,,,,0,3,3,0,1,,,,,,,,,,,,,,,,,,,,,,,,,,,,,,,,,,,,,,,,,,,,,,
026963,001,2022-11-20_15h50.28.440,Info_measure_main_exp,2022.2.2,MacIntel,60.0024001,,,,,,,,,,,,,,,,,,masks/mask_005.jpg,,,,,,,,,,,,,,,,,,,,,,,,,,,,,,,,,,,,,,,,,,,0,4,4,4,1,,,,,,,,,,,,,,,,,,,,,,,,,,,,,,,,,,,,,,,,,,,,,,
026963,001,2022-11-20_15h50.28.440,Info_measure_main_exp,2022.2.2,MacIntel,60.0024001,,,,,,,,,,,,,,,,,,masks/mask_003.jpg,,,,,,,,,,,,,,,,,,,,,,,,,,,,,,,,,,,,,,,,,,,,,,,,0,0,0,2,1,,,,,,,,,,,,,,,,,,,,,,,,,,,,,,,,,,,,,,,,,
026963,001,2022-11-20_15h50.28.440,Info_measure_main_exp,2022.2.2,MacIntel,60.0024001,,,,,,,,,,,,,,,,,,masks/mask_002.jpg,,,,,,,,,,,,,,,,,,,,,,,,,,,,,,,,,,,,,,,,,,,,,,,,0,1,1,1,1,,,,,,,,,,,,,,,,,,,,,,,,,,,,,,,,,,,,,,,,,
026963,001,2022-11-20_15h50.28.440,Info_measure_main_exp,2022.2.2,MacIntel,60.0024001,,,,,,,,,,,,,,,,,,masks/mask_005.jpg,,,,,,,,,,,,,,,,,,,,,,,,,,,,,,,,,,,,,,,,,,,,,,,,0,2,2,4,1,,,,,,,,,,,,,,,,,,,,,,,,,,,,,,,,,,,,,,,,,
026963,001,2022-11-20_15h50.28.440,Info_measure_main_exp,2022.2.2,MacIntel,60.0024001,,,,,,,,,,,,,,,,,,masks/mask_004.jpg,,,,,,,,,,,,,,,,,,,,,,,,,,,,,,,,,,,,,,,,,,,,,,,,0,3,3,3,1,,,,,,,,,,,,,,,,,,,,,,,,,,,,,,,,,,,,,,,,,
026963,001,2022-11-20_15h50.28.440,Info_measure_main_exp,2022.2.2,MacIntel,60.0024001,,,,,,,,,,,,,,,,,,masks/mask_001.jpg,,,,,,,,,,,,,,,,,,,,,,,,,,,,,,,,,,,,,,,,,,,,,,,,0,4,4,0,1,,,,,,,,,,,,,,,,,,,,,,,,,,,,,,,,,,,,,,,,,
026963,001,2022-11-20_15h50.28.440,Info_measure_main_exp,2022.2.2,MacIntel,60.0024001,,,,,,,,,,,,,,,,,,,,,,,,,,,,,,7,0.8998,1,,,,,,,,,,,,0,131,5,5,2178,2166,absent_patch/patch0002178.jpg,absent_patch/patch0002166.jpg,,,,,,,,,,,,,,,,,,,,0.031679687,0.074622396,1,0,0,response1disk,17,0.006827257,0.001341146,1,0,0,center_square,0,16,16,72,1,,,,,,,,,,,,,,,,,,,,,,,
026963,001,2022-11-20_15h50.28.440,Info_measure_main_exp,2022.2.2,MacIntel,60.0024001,,,,,,,,,,,,,,,,,,masks/mask_004.jpg,,,,,,,,,,,,,,,,,,,,,,,,,,,,,,,,,,,,,,,,,,,0,0,0,3,1,,,,,,,,,,,,,,,,,,,,,,,,,,,,,,,,,,,,,,,,,,,,,,
026963,001,2022-11-20_15h50.28.440,Info_measure_main_exp,2022.2.2,MacIntel,60.0024001,,,,,,,,,,,,,,,,,,masks/mask_002.jpg,,,,,,,,,,,,,,,,,,,,,,,,,,,,,,,,,,,,,,,,,,,0,1,1,1,1,,,,,,,,,,,,,,,,,,,,,,,,,,,,,,,,,,,,,,,,,,,,,,
026963,001,2022-11-20_15h50.28.440,Info_measure_main_exp,2022.2.2,MacIntel,60.0024001,,,,,,,,,,,,,,,,,,masks/mask_005.jpg,,,,,,,,,,,,,,,,,,,,,,,,,,,,,,,,,,,,,,,,,,,0,2,2,4,1,,,,,,,,,,,,,,,,,,,,,,,,,,,,,,,,,,,,,,,,,,,,,,
026963,001,2022-11-20_15h50.28.440,Info_measure_main_exp,2022.2.2,MacIntel,60.0024001,,,,,,,,,,,,,,,,,,masks/mask_003.jpg,,,,,,,,,,,,,,,,,,,,,,,,,,,,,,,,,,,,,,,,,,,0,3,3,2,1,,,,,,,,,,,,,,,,,,,,,,,,,,,,,,,,,,,,,,,,,,,,,,
026963,001,2022-11-20_15h50.28.440,Info_measure_main_exp,2022.2.2,MacIntel,60.0024001,,,,,,,,,,,,,,,,,,masks/mask_001.jpg,,,,,,,,,,,,,,,,,,,,,,,,,,,,,,,,,,,,,,,,,,,0,4,4,0,1,,,,,,,,,,,,,,,,,,,,,,,,,,,,,,,,,,,,,,,,,,,,,,
026963,001,2022-11-20_15h50.28.440,Info_measure_main_exp,2022.2.2,MacIntel,60.0024001,,,,,,,,,,,,,,,,,,masks/mask_004.jpg,,,,,,,,,,,,,,,,,,,,,,,,,,,,,,,,,,,,,,,,,,,,,,,,0,0,0,3,1,,,,,,,,,,,,,,,,,,,,,,,,,,,,,,,,,,,,,,,,,
026963,001,2022-11-20_15h50.28.440,Info_measure_main_exp,2022.2.2,MacIntel,60.0024001,,,,,,,,,,,,,,,,,,masks/mask_003.jpg,,,,,,,,,,,,,,,,,,,,,,,,,,,,,,,,,,,,,,,,,,,,,,,,0,1,1,2,1,,,,,,,,,,,,,,,,,,,,,,,,,,,,,,,,,,,,,,,,,
026963,001,2022-11-20_15h50.28.440,Info_measure_main_exp,2022.2.2,MacIntel,60.0024001,,,,,,,,,,,,,,,,,,masks/mask_001.jpg,,,,,,,,,,,,,,,,,,,,,,,,,,,,,,,,,,,,,,,,,,,,,,,,0,2,2,0,1,,,,,,,,,,,,,,,,,,,,,,,,,,,,,,,,,,,,,,,,,
026963,001,2022-11-20_15h50.28.440,Info_measure_main_exp,2022.2.2,MacIntel,60.0024001,,,,,,,,,,,,,,,,,,masks/mask_005.jpg,,,,,,,,,,,,,,,,,,,,,,,,,,,,,,,,,,,,,,,,,,,,,,,,0,3,3,4,1,,,,,,,,,,,,,,,,,,,,,,,,,,,,,,,,,,,,,,,,,
026963,001,2022-11-20_15h50.28.440,Info_measure_main_exp,2022.2.2,MacIntel,60.0024001,,,,,,,,,,,,,,,,,,masks/mask_002.jpg,,,,,,,,,,,,,,,,,,,,,,,,,,,,,,,,,,,,,,,,,,,,,,,,0,4,4,1,1,,,,,,,,,,,,,,,,,,,,,,,,,,,,,,,,,,,,,,,,,
026963,001,2022-11-20_15h50.28.440,Info_measure_main_exp,2022.2.2,MacIntel,60.0024001,,,,,,,,,,,,,,,,,,,,,,,,,,,,,,0,2.1832,1,,,,,,,,,,,,0,131,5,5,2082,2178,absent_patch/patch0002082.jpg,absent_patch/patch0002178.jpg,,,,,,,,,,,,,,,,,,,,-0.027400174,0.078663194,1,0,0,response7disk,18,-0.0009375,-0.005538194,1,0,0,center_square,0,17,17,2,1,,,,,,,,,,,,,,,,,,,,,,,
026963,001,2022-11-20_15h50.28.440,Info_measure_main_exp,2022.2.2,MacIntel,60.0024001,,,,,,,,,,,,,,,,,,masks/mask_003.jpg,,,,,,,,,,,,,,,,,,,,,,,,,,,,,,,,,,,,,,,,,,,0,0,0,2,1,,,,,,,,,,,,,,,,,,,,,,,,,,,,,,,,,,,,,,,,,,,,,,
026963,001,2022-11-20_15h50.28.440,Info_measure_main_exp,2022.2.2,MacIntel,60.0024001,,,,,,,,,,,,,,,,,,masks/mask_004.jpg,,,,,,,,,,,,,,,,,,,,,,,,,,,,,,,,,,,,,,,,,,,0,1,1,3,1,,,,,,,,,,,,,,,,,,,,,,,,,,,,,,,,,,,,,,,,,,,,,,
026963,001,2022-11-20_15h50.28.440,Info_measure_main_exp,2022.2.2,MacIntel,60.0024001,,,,,,,,,,,,,,,,,,masks/mask_005.jpg,,,,,,,,,,,,,,,,,,,,,,,,,,,,,,,,,,,,,,,,,,,0,2,2,4,1,,,,,,,,,,,,,,,,,,,,,,,,,,,,,,,,,,,,,,,,,,,,,,
026963,001,2022-11-20_15h50.28.440,Info_measure_main_exp,2022.2.2,MacIntel,60.0024001,,,,,,,,,,,,,,,,,,masks/mask_002.jpg,,,,,,,,,,,,,,,,,,,,,,,,,,,,,,,,,,,,,,,,,,,0,3,3,1,1,,,,,,,,,,,,,,,,,,,,,,,,,,,,,,,,,,,,,,,,,,,,,,
026963,001,2022-11-20_15h50.28.440,Info_measure_main_exp,2022.2.2,MacIntel,60.0024001,,,,,,,,,,,,,,,,,,masks/mask_001.jpg,,,,,,,,,,,,,,,,,,,,,,,,,,,,,,,,,,,,,,,,,,,0,4,4,0,1,,,,,,,,,,,,,,,,,,,,,,,,,,,,,,,,,,,,,,,,,,,,,,
026963,001,2022-11-20_15h50.28.440,Info_measure_main_exp,2022.2.2,MacIntel,60.0024001,,,,,,,,,,,,,,,,,,masks/mask_001.jpg,,,,,,,,,,,,,,,,,,,,,,,,,,,,,,,,,,,,,,,,,,,,,,,,0,0,0,0,1,,,,,,,,,,,,,,,,,,,,,,,,,,,,,,,,,,,,,,,,,
026963,001,2022-11-20_15h50.28.440,Info_measure_main_exp,2022.2.2,MacIntel,60.0024001,,,,,,,,,,,,,,,,,,masks/mask_004.jpg,,,,,,,,,,,,,,,,,,,,,,,,,,,,,,,,,,,,,,,,,,,,,,,,0,1,1,3,1,,,,,,,,,,,,,,,,,,,,,,,,,,,,,,,,,,,,,,,,,
026963,001,2022-11-20_15h50.28.440,Info_measure_main_exp,2022.2.2,MacIntel,60.0024001,,,,,,,,,,,,,,,,,,masks/mask_002.jpg,,,,,,,,,,,,,,,,,,,,,,,,,,,,,,,,,,,,,,,,,,,,,,,,0,2,2,1,1,,,,,,,,,,,,,,,,,,,,,,,,,,,,,,,,,,,,,,,,,
026963,001,2022-11-20_15h50.28.440,Info_measure_main_exp,2022.2.2,MacIntel,60.0024001,,,,,,,,,,,,,,,,,,masks/mask_005.jpg,,,,,,,,,,,,,,,,,,,,,,,,,,,,,,,,,,,,,,,,,,,,,,,,0,3,3,4,1,,,,,,,,,,,,,,,,,,,,,,,,,,,,,,,,,,,,,,,,,
026963,001,2022-11-20_15h50.28.440,Info_measure_main_exp,2022.2.2,MacIntel,60.0024001,,,,,,,,,,,,,,,,,,masks/mask_003.jpg,,,,,,,,,,,,,,,,,,,,,,,,,,,,,,,,,,,,,,,,,,,,,,,,0,4,4,2,1,,,,,,,,,,,,,,,,,,,,,,,,,,,,,,,,,,,,,,,,,
026963,001,2022-11-20_15h50.28.440,Info_measure_main_exp,2022.2.2,MacIntel,60.0024001,,,,,,,,,,,,,,,,,,,,,,,,,,,,,,7,0.5661,1,,,,,,,,,,,,0,131,5,5,1974,2298,absent_patch/patch0001974.jpg,absent_patch/patch0002298.jpg,,,,,,,,,,,,,,,,,,,,0.014644097,0.098849826,1,0,0,response1disk,19,0.005907118,-0.007673611,1,0,0,center_square,0,18,18,6,1,,,,,,,,,,,,,,,,,,,,,,,
026963,001,2022-11-20_15h50.28.440,Info_measure_main_exp,2022.2.2,MacIntel,60.0024001,,,,,,,,,,,,,,,,,,masks/mask_001.jpg,,,,,,,,,,,,,,,,,,,,,,,,,,,,,,,,,,,,,,,,,,,0,0,0,0,1,,,,,,,,,,,,,,,,,,,,,,,,,,,,,,,,,,,,,,,,,,,,,,
026963,001,2022-11-20_15h50.28.440,Info_measure_main_exp,2022.2.2,MacIntel,60.0024001,,,,,,,,,,,,,,,,,,masks/mask_003.jpg,,,,,,,,,,,,,,,,,,,,,,,,,,,,,,,,,,,,,,,,,,,0,1,1,2,1,,,,,,,,,,,,,,,,,,,,,,,,,,,,,,,,,,,,,,,,,,,,,,
026963,001,2022-11-20_15h50.28.440,Info_measure_main_exp,2022.2.2,MacIntel,60.0024001,,,,,,,,,,,,,,,,,,masks/mask_002.jpg,,,,,,,,,,,,,,,,,,,,,,,,,,,,,,,,,,,,,,,,,,,0,2,2,1,1,,,,,,,,,,,,,,,,,,,,,,,,,,,,,,,,,,,,,,,,,,,,,,
026963,001,2022-11-20_15h50.28.440,Info_measure_main_exp,2022.2.2,MacIntel,60.0024001,,,,,,,,,,,,,,,,,,masks/mask_004.jpg,,,,,,,,,,,,,,,,,,,,,,,,,,,,,,,,,,,,,,,,,,,0,3,3,3,1,,,,,,,,,,,,,,,,,,,,,,,,,,,,,,,,,,,,,,,,,,,,,,
026963,001,2022-11-20_15h50.28.440,Info_measure_main_exp,2022.2.2,MacIntel,60.0024001,,,,,,,,,,,,,,,,,,masks/mask_005.jpg,,,,,,,,,,,,,,,,,,,,,,,,,,,,,,,,,,,,,,,,,,,0,4,4,4,1,,,,,,,,,,,,,,,,,,,,,,,,,,,,,,,,,,,,,,,,,,,,,,
026963,001,2022-11-20_15h50.28.440,Info_measure_main_exp,2022.2.2,MacIntel,60.0024001,,,,,,,,,,,,,,,,,,masks/mask_005.jpg,,,,,,,,,,,,,,,,,,,,,,,,,,,,,,,,,,,,,,,,,,,,,,,,0,0,0,4,1,,,,,,,,,,,,,,,,,,,,,,,,,,,,,,,,,,,,,,,,,
026963,001,2022-11-20_15h50.28.440,Info_measure_main_exp,2022.2.2,MacIntel,60.0024001,,,,,,,,,,,,,,,,,,masks/mask_003.jpg,,,,,,,,,,,,,,,,,,,,,,,,,,,,,,,,,,,,,,,,,,,,,,,,0,1,1,2,1,,,,,,,,,,,,,,,,,,,,,,,,,,,,,,,,,,,,,,,,,
026963,001,2022-11-20_15h50.28.440,Info_measure_main_exp,2022.2.2,MacIntel,60.0024001,,,,,,,,,,,,,,,,,,masks/mask_004.jpg,,,,,,,,,,,,,,,,,,,,,,,,,,,,,,,,,,,,,,,,,,,,,,,,0,2,2,3,1,,,,,,,,,,,,,,,,,,,,,,,,,,,,,,,,,,,,,,,,,
026963,001,2022-11-20_15h50.28.440,Info_measure_main_exp,2022.2.2,MacIntel,60.0024001,,,,,,,,,,,,,,,,,,masks/mask_001.jpg,,,,,,,,,,,,,,,,,,,,,,,,,,,,,,,,,,,,,,,,,,,,,,,,0,3,3,0,1,,,,,,,,,,,,,,,,,,,,,,,,,,,,,,,,,,,,,,,,,
026963,001,2022-11-20_15h50.28.440,Info_measure_main_exp,2022.2.2,MacIntel,60.0024001,,,,,,,,,,,,,,,,,,masks/mask_002.jpg,,,,,,,,,,,,,,,,,,,,,,,,,,,,,,,,,,,,,,,,,,,,,,,,0,4,4,1,1,,,,,,,,,,,,,,,,,,,,,,,,,,,,,,,,,,,,,,,,,
026963,001,2022-11-20_15h50.28.440,Info_measure_main_exp,2022.2.2,MacIntel,60.0024001,,,,,,,,,,,,,,,,,,,,,,,,,,,,,,7,0.3997,1,,,,,,,,,,,,0,131,5,5,2250,2298,absent_patch/patch0002250.jpg,absent_patch/patch0002298.jpg,,,,,,,,,,,,,,,,,,,,0.04218316,0.09625434,1,0,0,response1disk,20,0.008359375,0.003524306,1,0,0,center_square,0,19,19,59,1,,,,,,,,,,,,,,,,,,,,,,,
026963,001,2022-11-20_15h50.28.440,Info_measure_main_exp,2022.2.2,MacIntel,60.0024001,,,,,,,,,,,,,,,,,,masks/mask_002.jpg,,,,,,,,,,,,,,,,,,,,,,,,,,,,,,,,,,,,,,,,,,,0,0,0,1,1,,,,,,,,,,,,,,,,,,,,,,,,,,,,,,,,,,,,,,,,,,,,,,
026963,001,2022-11-20_15h50.28.440,Info_measure_main_exp,2022.2.2,MacIntel,60.0024001,,,,,,,,,,,,,,,,,,masks/mask_003.jpg,,,,,,,,,,,,,,,,,,,,,,,,,,,,,,,,,,,,,,,,,,,0,1,1,2,1,,,,,,,,,,,,,,,,,,,,,,,,,,,,,,,,,,,,,,,,,,,,,,
026963,001,2022-11-20_15h50.28.440,Info_measure_main_exp,2022.2.2,MacIntel,60.0024001,,,,,,,,,,,,,,,,,,masks/mask_004.jpg,,,,,,,,,,,,,,,,,,,,,,,,,,,,,,,,,,,,,,,,,,,0,2,2,3,1,,,,,,,,,,,,,,,,,,,,,,,,,,,,,,,,,,,,,,,,,,,,,,
026963,001,2022-11-20_15h50.28.440,Info_measure_main_exp,2022.2.2,MacIntel,60.0024001,,,,,,,,,,,,,,,,,,masks/mask_005.jpg,,,,,,,,,,,,,,,,,,,,,,,,,,,,,,,,,,,,,,,,,,,0,3,3,4,1,,,,,,,,,,,,,,,,,,,,,,,,,,,,,,,,,,,,,,,,,,,,,,
026963,001,2022-11-20_15h50.28.440,Info_measure_main_exp,2022.2.2,MacIntel,60.0024001,,,,,,,,,,,,,,,,,,masks/mask_001.jpg,,,,,,,,,,,,,,,,,,,,,,,,,,,,,,,,,,,,,,,,,,,0,4,4,0,1,,,,,,,,,,,,,,,,,,,,,,,,,,,,,,,,,,,,,,,,,,,,,,
026963,001,2022-11-20_15h50.28.440,Info_measure_main_exp,2022.2.2,MacIntel,60.0024001,,,,,,,,,,,,,,,,,,masks/mask_005.jpg,,,,,,,,,,,,,,,,,,,,,,,,,,,,,,,,,,,,,,,,,,,,,,,,0,0,0,4,1,,,,,,,,,,,,,,,,,,,,,,,,,,,,,,,,,,,,,,,,,
026963,001,2022-11-20_15h50.28.440,Info_measure_main_exp,2022.2.2,MacIntel,60.0024001,,,,,,,,,,,,,,,,,,masks/mask_004.jpg,,,,,,,,,,,,,,,,,,,,,,,,,,,,,,,,,,,,,,,,,,,,,,,,0,1,1,3,1,,,,,,,,,,,,,,,,,,,,,,,,,,,,,,,,,,,,,,,,,
026963,001,2022-11-20_15h50.28.440,Info_measure_main_exp,2022.2.2,MacIntel,60.0024001,,,,,,,,,,,,,,,,,,masks/mask_002.jpg,,,,,,,,,,,,,,,,,,,,,,,,,,,,,,,,,,,,,,,,,,,,,,,,0,2,2,1,1,,,,,,,,,,,,,,,,,,,,,,,,,,,,,,,,,,,,,,,,,
026963,001,2022-11-20_15h50.28.440,Info_measure_main_exp,2022.2.2,MacIntel,60.0024001,,,,,,,,,,,,,,,,,,masks/mask_003.jpg,,,,,,,,,,,,,,,,,,,,,,,,,,,,,,,,,,,,,,,,,,,,,,,,0,3,3,2,1,,,,,,,,,,,,,,,,,,,,,,,,,,,,,,,,,,,,,,,,,
026963,001,2022-11-20_15h50.28.440,Info_measure_main_exp,2022.2.2,MacIntel,60.0024001,,,,,,,,,,,,,,,,,,masks/mask_001.jpg,,,,,,,,,,,,,,,,,,,,,,,,,,,,,,,,,,,,,,,,,,,,,,,,0,4,4,0,1,,,,,,,,,,,,,,,,,,,,,,,,,,,,,,,,,,,,,,,,,
026963,001,2022-11-20_15h50.28.440,Info_measure_main_exp,2022.2.2,MacIntel,60.0024001,,,,,,,,,,,,,,,,,,,,,,,,,,,,,,7,2.1164,1,,,,,,,,,,,,0,131,5,5,2298,2142,absent_patch/patch0002298.jpg,absent_patch/patch0002142.jpg,,,,,,,,,,,,,,,,,,,,0.049570312,0.104835069,1,0,0,response1disk,21,0.009097222,0.002825521,1,0,0,center_square,0,20,20,49,1,,,,,,,,,,,,,,,,,,,,,,,
026963,001,2022-11-20_15h50.28.440,Info_measure_main_exp,2022.2.2,MacIntel,60.0024001,,,,,,,,,,,,,,,,,,masks/mask_005.jpg,,,,,,,,,,,,,,,,,,,,,,,,,,,,,,,,,,,,,,,,,,,0,0,0,4,1,,,,,,,,,,,,,,,,,,,,,,,,,,,,,,,,,,,,,,,,,,,,,,
026963,001,2022-11-20_15h50.28.440,Info_measure_main_exp,2022.2.2,MacIntel,60.0024001,,,,,,,,,,,,,,,,,,masks/mask_001.jpg,,,,,,,,,,,,,,,,,,,,,,,,,,,,,,,,,,,,,,,,,,,0,1,1,0,1,,,,,,,,,,,,,,,,,,,,,,,,,,,,,,,,,,,,,,,,,,,,,,
026963,001,2022-11-20_15h50.28.440,Info_measure_main_exp,2022.2.2,MacIntel,60.0024001,,,,,,,,,,,,,,,,,,masks/mask_003.jpg,,,,,,,,,,,,,,,,,,,,,,,,,,,,,,,,,,,,,,,,,,,0,2,2,2,1,,,,,,,,,,,,,,,,,,,,,,,,,,,,,,,,,,,,,,,,,,,,,,
026963,001,2022-11-20_15h50.28.440,Info_measure_main_exp,2022.2.2,MacIntel,60.0024001,,,,,,,,,,,,,,,,,,masks/mask_002.jpg,,,,,,,,,,,,,,,,,,,,,,,,,,,,,,,,,,,,,,,,,,,0,3,3,1,1,,,,,,,,,,,,,,,,,,,,,,,,,,,,,,,,,,,,,,,,,,,,,,
026963,001,2022-11-20_15h50.28.440,Info_measure_main_exp,2022.2.2,MacIntel,60.0024001,,,,,,,,,,,,,,,,,,masks/mask_004.jpg,,,,,,,,,,,,,,,,,,,,,,,,,,,,,,,,,,,,,,,,,,,0,4,4,3,1,,,,,,,,,,,,,,,,,,,,,,,,,,,,,,,,,,,,,,,,,,,,,,
026963,001,2022-11-20_15h50.28.440,Info_measure_main_exp,2022.2.2,MacIntel,60.0024001,,,,,,,,,,,,,,,,,,masks/mask_004.jpg,,,,,,,,,,,,,,,,,,,,,,,,,,,,,,,,,,,,,,,,,,,,,,,,0,0,0,3,1,,,,,,,,,,,,,,,,,,,,,,,,,,,,,,,,,,,,,,,,,
026963,001,2022-11-20_15h50.28.440,Info_measure_main_exp,2022.2.2,MacIntel,60.0024001,,,,,,,,,,,,,,,,,,masks/mask_005.jpg,,,,,,,,,,,,,,,,,,,,,,,,,,,,,,,,,,,,,,,,,,,,,,,,0,1,1,4,1,,,,,,,,,,,,,,,,,,,,,,,,,,,,,,,,,,,,,,,,,
026963,001,2022-11-20_15h50.28.440,Info_measure_main_exp,2022.2.2,MacIntel,60.0024001,,,,,,,,,,,,,,,,,,masks/mask_002.jpg,,,,,,,,,,,,,,,,,,,,,,,,,,,,,,,,,,,,,,,,,,,,,,,,0,2,2,1,1,,,,,,,,,,,,,,,,,,,,,,,,,,,,,,,,,,,,,,,,,
026963,001,2022-11-20_15h50.28.440,Info_measure_main_exp,2022.2.2,MacIntel,60.0024001,,,,,,,,,,,,,,,,,,masks/mask_001.jpg,,,,,,,,,,,,,,,,,,,,,,,,,,,,,,,,,,,,,,,,,,,,,,,,0,3,3,0,1,,,,,,,,,,,,,,,,,,,,,,,,,,,,,,,,,,,,,,,,,
026963,001,2022-11-20_15h50.28.440,Info_measure_main_exp,2022.2.2,MacIntel,60.0024001,,,,,,,,,,,,,,,,,,masks/mask_003.jpg,,,,,,,,,,,,,,,,,,,,,,,,,,,,,,,,,,,,,,,,,,,,,,,,0,4,4,2,1,,,,,,,,,,,,,,,,,,,,,,,,,,,,,,,,,,,,,,,,,
026963,001,2022-11-20_15h50.28.440,Info_measure_main_exp,2022.2.2,MacIntel,60.0024001,,,,,,,,,,,,,,,,,,,,,,,,,,,,,,5,1.2836,1,,,,,,,,,,,,0,131,5,5,2142,2082,absent_patch/patch0002142.jpg,absent_patch/patch0002082.jpg,,,,,,,,,,,,,,,,,,,,0.050095486,-0.027786458,1,0,0,response3disk,22,0.004791667,-0.000794271,1,0,0,center_square,0,21,21,88,1,,,,,,,,,,,,,,,,,,,,,,,
026963,001,2022-11-20_15h50.28.440,Info_measure_main_exp,2022.2.2,MacIntel,60.0024001,,,,,,,,,,,,,,,,,,masks/mask_003.jpg,,,,,,,,,,,,,,,,,,,,,,,,,,,,,,,,,,,,,,,,,,,0,0,0,2,1,,,,,,,,,,,,,,,,,,,,,,,,,,,,,,,,,,,,,,,,,,,,,,
026963,001,2022-11-20_15h50.28.440,Info_measure_main_exp,2022.2.2,MacIntel,60.0024001,,,,,,,,,,,,,,,,,,masks/mask_004.jpg,,,,,,,,,,,,,,,,,,,,,,,,,,,,,,,,,,,,,,,,,,,0,1,1,3,1,,,,,,,,,,,,,,,,,,,,,,,,,,,,,,,,,,,,,,,,,,,,,,
026963,001,2022-11-20_15h50.28.440,Info_measure_main_exp,2022.2.2,MacIntel,60.0024001,,,,,,,,,,,,,,,,,,masks/mask_001.jpg,,,,,,,,,,,,,,,,,,,,,,,,,,,,,,,,,,,,,,,,,,,0,2,2,0,1,,,,,,,,,,,,,,,,,,,,,,,,,,,,,,,,,,,,,,,,,,,,,,
026963,001,2022-11-20_15h50.28.440,Info_measure_main_exp,2022.2.2,MacIntel,60.0024001,,,,,,,,,,,,,,,,,,masks/mask_005.jpg,,,,,,,,,,,,,,,,,,,,,,,,,,,,,,,,,,,,,,,,,,,0,3,3,4,1,,,,,,,,,,,,,,,,,,,,,,,,,,,,,,,,,,,,,,,,,,,,,,
026963,001,2022-11-20_15h50.28.440,Info_measure_main_exp,2022.2.2,MacIntel,60.0024001,,,,,,,,,,,,,,,,,,masks/mask_002.jpg,,,,,,,,,,,,,,,,,,,,,,,,,,,,,,,,,,,,,,,,,,,0,4,4,1,1,,,,,,,,,,,,,,,,,,,,,,,,,,,,,,,,,,,,,,,,,,,,,,
026963,001,2022-11-20_15h50.28.440,Info_measure_main_exp,2022.2.2,MacIntel,60.0024001,,,,,,,,,,,,,,,,,,masks/mask_004.jpg,,,,,,,,,,,,,,,,,,,,,,,,,,,,,,,,,,,,,,,,,,,,,,,,0,0,0,3,1,,,,,,,,,,,,,,,,,,,,,,,,,,,,,,,,,,,,,,,,,
026963,001,2022-11-20_15h50.28.440,Info_measure_main_exp,2022.2.2,MacIntel,60.0024001,,,,,,,,,,,,,,,,,,masks/mask_005.jpg,,,,,,,,,,,,,,,,,,,,,,,,,,,,,,,,,,,,,,,,,,,,,,,,0,1,1,4,1,,,,,,,,,,,,,,,,,,,,,,,,,,,,,,,,,,,,,,,,,
026963,001,2022-11-20_15h50.28.440,Info_measure_main_exp,2022.2.2,MacIntel,60.0024001,,,,,,,,,,,,,,,,,,masks/mask_003.jpg,,,,,,,,,,,,,,,,,,,,,,,,,,,,,,,,,,,,,,,,,,,,,,,,0,2,2,2,1,,,,,,,,,,,,,,,,,,,,,,,,,,,,,,,,,,,,,,,,,
026963,001,2022-11-20_15h50.28.440,Info_measure_main_exp,2022.2.2,MacIntel,60.0024001,,,,,,,,,,,,,,,,,,masks/mask_001.jpg,,,,,,,,,,,,,,,,,,,,,,,,,,,,,,,,,,,,,,,,,,,,,,,,0,3,3,0,1,,,,,,,,,,,,,,,,,,,,,,,,,,,,,,,,,,,,,,,,,
026963,001,2022-11-20_15h50.28.440,Info_measure_main_exp,2022.2.2,MacIntel,60.0024001,,,,,,,,,,,,,,,,,,masks/mask_002.jpg,,,,,,,,,,,,,,,,,,,,,,,,,,,,,,,,,,,,,,,,,,,,,,,,0,4,4,1,1,,,,,,,,,,,,,,,,,,,,,,,,,,,,,,,,,,,,,,,,,
026963,001,2022-11-20_15h50.28.440,Info_measure_main_exp,2022.2.2,MacIntel,60.0024001,,,,,,,,,,,,,,,,,,,,,,,,,,,,,,7,0.4497,1,,,,,,,,,,,,0,131,5,5,2142,2238,absent_patch/patch0002142.jpg,absent_patch/patch0002238.jpg,,,,,,,,,,,,,,,,,,,,0.046206597,0.142408854,1,0,0,response1disk,23,-0.000842014,-0.001610243,1,0,0,center_square,0,22,22,101,1,,,,,,,,,,,,,,,,,,,,,,,
026963,001,2022-11-20_15h50.28.440,Info_measure_main_exp,2022.2.2,MacIntel,60.0024001,,,,,,,,,,,,,,,,,,masks/mask_001.jpg,,,,,,,,,,,,,,,,,,,,,,,,,,,,,,,,,,,,,,,,,,,0,0,0,0,1,,,,,,,,,,,,,,,,,,,,,,,,,,,,,,,,,,,,,,,,,,,,,,
026963,001,2022-11-20_15h50.28.440,Info_measure_main_exp,2022.2.2,MacIntel,60.0024001,,,,,,,,,,,,,,,,,,masks/mask_002.jpg,,,,,,,,,,,,,,,,,,,,,,,,,,,,,,,,,,,,,,,,,,,0,1,1,1,1,,,,,,,,,,,,,,,,,,,,,,,,,,,,,,,,,,,,,,,,,,,,,,
026963,001,2022-11-20_15h50.28.440,Info_measure_main_exp,2022.2.2,MacIntel,60.0024001,,,,,,,,,,,,,,,,,,masks/mask_005.jpg,,,,,,,,,,,,,,,,,,,,,,,,,,,,,,,,,,,,,,,,,,,0,2,2,4,1,,,,,,,,,,,,,,,,,,,,,,,,,,,,,,,,,,,,,,,,,,,,,,
026963,001,2022-11-20_15h50.28.440,Info_measure_main_exp,2022.2.2,MacIntel,60.0024001,,,,,,,,,,,,,,,,,,masks/mask_003.jpg,,,,,,,,,,,,,,,,,,,,,,,,,,,,,,,,,,,,,,,,,,,0,3,3,2,1,,,,,,,,,,,,,,,,,,,,,,,,,,,,,,,,,,,,,,,,,,,,,,
026963,001,2022-11-20_15h50.28.440,Info_measure_main_exp,2022.2.2,MacIntel,60.0024001,,,,,,,,,,,,,,,,,,masks/mask_004.jpg,,,,,,,,,,,,,,,,,,,,,,,,,,,,,,,,,,,,,,,,,,,0,4,4,3,1,,,,,,,,,,,,,,,,,,,,,,,,,,,,,,,,,,,,,,,,,,,,,,
026963,001,2022-11-20_15h50.28.440,Info_measure_main_exp,2022.2.2,MacIntel,60.0024001,,,,,,,,,,,,,,,,,,masks/mask_001.jpg,,,,,,,,,,,,,,,,,,,,,,,,,,,,,,,,,,,,,,,,,,,,,,,,0,0,0,0,1,,,,,,,,,,,,,,,,,,,,,,,,,,,,,,,,,,,,,,,,,
026963,001,2022-11-20_15h50.28.440,Info_measure_main_exp,2022.2.2,MacIntel,60.0024001,,,,,,,,,,,,,,,,,,masks/mask_003.jpg,,,,,,,,,,,,,,,,,,,,,,,,,,,,,,,,,,,,,,,,,,,,,,,,0,1,1,2,1,,,,,,,,,,,,,,,,,,,,,,,,,,,,,,,,,,,,,,,,,
026963,001,2022-11-20_15h50.28.440,Info_measure_main_exp,2022.2.2,MacIntel,60.0024001,,,,,,,,,,,,,,,,,,masks/mask_005.jpg,,,,,,,,,,,,,,,,,,,,,,,,,,,,,,,,,,,,,,,,,,,,,,,,0,2,2,4,1,,,,,,,,,,,,,,,,,,,,,,,,,,,,,,,,,,,,,,,,,
026963,001,2022-11-20_15h50.28.440,Info_measure_main_exp,2022.2.2,MacIntel,60.0024001,,,,,,,,,,,,,,,,,,masks/mask_002.jpg,,,,,,,,,,,,,,,,,,,,,,,,,,,,,,,,,,,,,,,,,,,,,,,,0,3,3,1,1,,,,,,,,,,,,,,,,,,,,,,,,,,,,,,,,,,,,,,,,,
026963,001,2022-11-20_15h50.28.440,Info_measure_main_exp,2022.2.2,MacIntel,60.0024001,,,,,,,,,,,,,,,,,,masks/mask_004.jpg,,,,,,,,,,,,,,,,,,,,,,,,,,,,,,,,,,,,,,,,,,,,,,,,0,4,4,3,1,,,,,,,,,,,,,,,,,,,,,,,,,,,,,,,,,,,,,,,,,
026963,001,2022-11-20_15h50.28.440,Info_measure_main_exp,2022.2.2,MacIntel,60.0024001,,,,,,,,,,,,,,,,,,,,,,,,,,,,,,7,0.4001,1,,,,,,,,,,,,0,131,5,5,2142,2190,absent_patch/patch0002142.jpg,absent_patch/patch0002190.jpg,,,,,,,,,,,,,,,,,,,,0.051215278,0.116888021,1,0,0,response1disk,24,0.007708333,-0.002834201,1,0,0,center_square,0,23,23,70,1,,,,,,,,,,,,,,,,,,,,,,,
026963,001,2022-11-20_15h50.28.440,Info_measure_main_exp,2022.2.2,MacIntel,60.0024001,,,,,,,,,,,,,,,,,,masks/mask_005.jpg,,,,,,,,,,,,,,,,,,,,,,,,,,,,,,,,,,,,,,,,,,,0,0,0,4,1,,,,,,,,,,,,,,,,,,,,,,,,,,,,,,,,,,,,,,,,,,,,,,
026963,001,2022-11-20_15h50.28.440,Info_measure_main_exp,2022.2.2,MacIntel,60.0024001,,,,,,,,,,,,,,,,,,masks/mask_004.jpg,,,,,,,,,,,,,,,,,,,,,,,,,,,,,,,,,,,,,,,,,,,0,1,1,3,1,,,,,,,,,,,,,,,,,,,,,,,,,,,,,,,,,,,,,,,,,,,,,,
026963,001,2022-11-20_15h50.28.440,Info_measure_main_exp,2022.2.2,MacIntel,60.0024001,,,,,,,,,,,,,,,,,,masks/mask_003.jpg,,,,,,,,,,,,,,,,,,,,,,,,,,,,,,,,,,,,,,,,,,,0,2,2,2,1,,,,,,,,,,,,,,,,,,,,,,,,,,,,,,,,,,,,,,,,,,,,,,
026963,001,2022-11-20_15h50.28.440,Info_measure_main_exp,2022.2.2,MacIntel,60.0024001,,,,,,,,,,,,,,,,,,masks/mask_001.jpg,,,,,,,,,,,,,,,,,,,,,,,,,,,,,,,,,,,,,,,,,,,0,3,3,0,1,,,,,,,,,,,,,,,,,,,,,,,,,,,,,,,,,,,,,,,,,,,,,,
026963,001,2022-11-20_15h50.28.440,Info_measure_main_exp,2022.2.2,MacIntel,60.0024001,,,,,,,,,,,,,,,,,,masks/mask_002.jpg,,,,,,,,,,,,,,,,,,,,,,,,,,,,,,,,,,,,,,,,,,,0,4,4,1,1,,,,,,,,,,,,,,,,,,,,,,,,,,,,,,,,,,,,,,,,,,,,,,
026963,001,2022-11-20_15h50.28.440,Info_measure_main_exp,2022.2.2,MacIntel,60.0024001,,,,,,,,,,,,,,,,,,masks/mask_004.jpg,,,,,,,,,,,,,,,,,,,,,,,,,,,,,,,,,,,,,,,,,,,,,,,,0,0,0,3,1,,,,,,,,,,,,,,,,,,,,,,,,,,,,,,,,,,,,,,,,,
026963,001,2022-11-20_15h50.28.440,Info_measure_main_exp,2022.2.2,MacIntel,60.0024001,,,,,,,,,,,,,,,,,,masks/mask_002.jpg,,,,,,,,,,,,,,,,,,,,,,,,,,,,,,,,,,,,,,,,,,,,,,,,0,1,1,1,1,,,,,,,,,,,,,,,,,,,,,,,,,,,,,,,,,,,,,,,,,
026963,001,2022-11-20_15h50.28.440,Info_measure_main_exp,2022.2.2,MacIntel,60.0024001,,,,,,,,,,,,,,,,,,masks/mask_005.jpg,,,,,,,,,,,,,,,,,,,,,,,,,,,,,,,,,,,,,,,,,,,,,,,,0,2,2,4,1,,,,,,,,,,,,,,,,,,,,,,,,,,,,,,,,,,,,,,,,,
026963,001,2022-11-20_15h50.28.440,Info_measure_main_exp,2022.2.2,MacIntel,60.0024001,,,,,,,,,,,,,,,,,,masks/mask_001.jpg,,,,,,,,,,,,,,,,,,,,,,,,,,,,,,,,,,,,,,,,,,,,,,,,0,3,3,0,1,,,,,,,,,,,,,,,,,,,,,,,,,,,,,,,,,,,,,,,,,
026963,001,2022-11-20_15h50.28.440,Info_measure_main_exp,2022.2.2,MacIntel,60.0024001,,,,,,,,,,,,,,,,,,masks/mask_003.jpg,,,,,,,,,,,,,,,,,,,,,,,,,,,,,,,,,,,,,,,,,,,,,,,,0,4,4,2,1,,,,,,,,,,,,,,,,,,,,,,,,,,,,,,,,,,,,,,,,,
026963,001,2022-11-20_15h50.28.440,Info_measure_main_exp,2022.2.2,MacIntel,60.0024001,,,,,,,,,,,,,,,,,,,,,,,,,,,,,,7,0.5337,1,,,,,,,,,,,,0,131,5,5,1974,2166,absent_patch/patch0001974.jpg,absent_patch/patch0002166.jpg,,,,,,,,,,,,,,,,,,,,0.034288194,0.098359375,1,0,0,response1disk,25,0.005438368,-0.000399306,1,0,0,center_square,0,24,24,77,1,,,,,,,,,,,,,,,,,,,,,,,
026963,001,2022-11-20_15h50.28.440,Info_measure_main_exp,2022.2.2,MacIntel,60.0024001,,,,,,,,,,,,,,,,,,masks/mask_005.jpg,,,,,,,,,,,,,,,,,,,,,,,,,,,,,,,,,,,,,,,,,,,0,0,0,4,1,,,,,,,,,,,,,,,,,,,,,,,,,,,,,,,,,,,,,,,,,,,,,,
026963,001,2022-11-20_15h50.28.440,Info_measure_main_exp,2022.2.2,MacIntel,60.0024001,,,,,,,,,,,,,,,,,,masks/mask_003.jpg,,,,,,,,,,,,,,,,,,,,,,,,,,,,,,,,,,,,,,,,,,,0,1,1,2,1,,,,,,,,,,,,,,,,,,,,,,,,,,,,,,,,,,,,,,,,,,,,,,
026963,001,2022-11-20_15h50.28.440,Info_measure_main_exp,2022.2.2,MacIntel,60.0024001,,,,,,,,,,,,,,,,,,masks/mask_004.jpg,,,,,,,,,,,,,,,,,,,,,,,,,,,,,,,,,,,,,,,,,,,0,2,2,3,1,,,,,,,,,,,,,,,,,,,,,,,,,,,,,,,,,,,,,,,,,,,,,,
026963,001,2022-11-20_15h50.28.440,Info_measure_main_exp,2022.2.2,MacIntel,60.0024001,,,,,,,,,,,,,,,,,,masks/mask_002.jpg,,,,,,,,,,,,,,,,,,,,,,,,,,,,,,,,,,,,,,,,,,,0,3,3,1,1,,,,,,,,,,,,,,,,,,,,,,,,,,,,,,,,,,,,,,,,,,,,,,
026963,001,2022-11-20_15h50.28.440,Info_measure_main_exp,2022.2.2,MacIntel,60.0024001,,,,,,,,,,,,,,,,,,masks/mask_001.jpg,,,,,,,,,,,,,,,,,,,,,,,,,,,,,,,,,,,,,,,,,,,0,4,4,0,1,,,,,,,,,,,,,,,,,,,,,,,,,,,,,,,,,,,,,,,,,,,,,,
026963,001,2022-11-20_15h50.28.440,Info_measure_main_exp,2022.2.2,MacIntel,60.0024001,,,,,,,,,,,,,,,,,,masks/mask_002.jpg,,,,,,,,,,,,,,,,,,,,,,,,,,,,,,,,,,,,,,,,,,,,,,,,0,0,0,1,1,,,,,,,,,,,,,,,,,,,,,,,,,,,,,,,,,,,,,,,,,
026963,001,2022-11-20_15h50.28.440,Info_measure_main_exp,2022.2.2,MacIntel,60.0024001,,,,,,,,,,,,,,,,,,masks/mask_001.jpg,,,,,,,,,,,,,,,,,,,,,,,,,,,,,,,,,,,,,,,,,,,,,,,,0,1,1,0,1,,,,,,,,,,,,,,,,,,,,,,,,,,,,,,,,,,,,,,,,,
026963,001,2022-11-20_15h50.28.440,Info_measure_main_exp,2022.2.2,MacIntel,60.0024001,,,,,,,,,,,,,,,,,,masks/mask_004.jpg,,,,,,,,,,,,,,,,,,,,,,,,,,,,,,,,,,,,,,,,,,,,,,,,0,2,2,3,1,,,,,,,,,,,,,,,,,,,,,,,,,,,,,,,,,,,,,,,,,
026963,001,2022-11-20_15h50.28.440,Info_measure_main_exp,2022.2.2,MacIntel,60.0024001,,,,,,,,,,,,,,,,,,masks/mask_003.jpg,,,,,,,,,,,,,,,,,,,,,,,,,,,,,,,,,,,,,,,,,,,,,,,,0,3,3,2,1,,,,,,,,,,,,,,,,,,,,,,,,,,,,,,,,,,,,,,,,,
026963,001,2022-11-20_15h50.28.440,Info_measure_main_exp,2022.2.2,MacIntel,60.0024001,,,,,,,,,,,,,,,,,,masks/mask_005.jpg,,,,,,,,,,,,,,,,,,,,,,,,,,,,,,,,,,,,,,,,,,,,,,,,0,4,4,4,1,,,,,,,,,,,,,,,,,,,,,,,,,,,,,,,,,,,,,,,,,
026963,001,2022-11-20_15h50.28.440,Info_measure_main_exp,2022.2.2,MacIntel,60.0024001,,,,,,,,,,,,,,,,,,,,,,,,,,,,,,3,1.2344,1,,,,,,,,,,,,0,131,5,5,1986,2274,absent_patch/patch0001986.jpg,absent_patch/patch0002274.jpg,,,,,,,,,,,,,,,,,,,,-0.054544271,-0.091467014,1,0,0,response5disk,26,0.005755208,-0.000868056,1,0,0,center_square,0,25,25,7,1,,,,,,,,,,,,,,,,,,,,,,,
026963,001,2022-11-20_15h50.28.440,Info_measure_main_exp,2022.2.2,MacIntel,60.0024001,,,,,,,,,,,,,,,,,,masks/mask_002.jpg,,,,,,,,,,,,,,,,,,,,,,,,,,,,,,,,,,,,,,,,,,,0,0,0,1,1,,,,,,,,,,,,,,,,,,,,,,,,,,,,,,,,,,,,,,,,,,,,,,
026963,001,2022-11-20_15h50.28.440,Info_measure_main_exp,2022.2.2,MacIntel,60.0024001,,,,,,,,,,,,,,,,,,masks/mask_003.jpg,,,,,,,,,,,,,,,,,,,,,,,,,,,,,,,,,,,,,,,,,,,0,1,1,2,1,,,,,,,,,,,,,,,,,,,,,,,,,,,,,,,,,,,,,,,,,,,,,,
026963,001,2022-11-20_15h50.28.440,Info_measure_main_exp,2022.2.2,MacIntel,60.0024001,,,,,,,,,,,,,,,,,,masks/mask_005.jpg,,,,,,,,,,,,,,,,,,,,,,,,,,,,,,,,,,,,,,,,,,,0,2,2,4,1,,,,,,,,,,,,,,,,,,,,,,,,,,,,,,,,,,,,,,,,,,,,,,
026963,001,2022-11-20_15h50.28.440,Info_measure_main_exp,2022.2.2,MacIntel,60.0024001,,,,,,,,,,,,,,,,,,masks/mask_001.jpg,,,,,,,,,,,,,,,,,,,,,,,,,,,,,,,,,,,,,,,,,,,0,3,3,0,1,,,,,,,,,,,,,,,,,,,,,,,,,,,,,,,,,,,,,,,,,,,,,,
026963,001,2022-11-20_15h50.28.440,Info_measure_main_exp,2022.2.2,MacIntel,60.0024001,,,,,,,,,,,,,,,,,,masks/mask_004.jpg,,,,,,,,,,,,,,,,,,,,,,,,,,,,,,,,,,,,,,,,,,,0,4,4,3,1,,,,,,,,,,,,,,,,,,,,,,,,,,,,,,,,,,,,,,,,,,,,,,
026963,001,2022-11-20_15h50.28.440,Info_measure_main_exp,2022.2.2,MacIntel,60.0024001,,,,,,,,,,,,,,,,,,masks/mask_001.jpg,,,,,,,,,,,,,,,,,,,,,,,,,,,,,,,,,,,,,,,,,,,,,,,,0,0,0,0,1,,,,,,,,,,,,,,,,,,,,,,,,,,,,,,,,,,,,,,,,,
026963,001,2022-11-20_15h50.28.440,Info_measure_main_exp,2022.2.2,MacIntel,60.0024001,,,,,,,,,,,,,,,,,,masks/mask_005.jpg,,,,,,,,,,,,,,,,,,,,,,,,,,,,,,,,,,,,,,,,,,,,,,,,0,1,1,4,1,,,,,,,,,,,,,,,,,,,,,,,,,,,,,,,,,,,,,,,,,
026963,001,2022-11-20_15h50.28.440,Info_measure_main_exp,2022.2.2,MacIntel,60.0024001,,,,,,,,,,,,,,,,,,masks/mask_003.jpg,,,,,,,,,,,,,,,,,,,,,,,,,,,,,,,,,,,,,,,,,,,,,,,,0,2,2,2,1,,,,,,,,,,,,,,,,,,,,,,,,,,,,,,,,,,,,,,,,,
026963,001,2022-11-20_15h50.28.440,Info_measure_main_exp,2022.2.2,MacIntel,60.0024001,,,,,,,,,,,,,,,,,,masks/mask_004.jpg,,,,,,,,,,,,,,,,,,,,,,,,,,,,,,,,,,,,,,,,,,,,,,,,0,3,3,3,1,,,,,,,,,,,,,,,,,,,,,,,,,,,,,,,,,,,,,,,,,
026963,001,2022-11-20_15h50.28.440,Info_measure_main_exp,2022.2.2,MacIntel,60.0024001,,,,,,,,,,,,,,,,,,masks/mask_002.jpg,,,,,,,,,,,,,,,,,,,,,,,,,,,,,,,,,,,,,,,,,,,,,,,,0,4,4,1,1,,,,,,,,,,,,,,,,,,,,,,,,,,,,,,,,,,,,,,,,,
026963,001,2022-11-20_15h50.28.440,Info_measure_main_exp,2022.2.2,MacIntel,60.0024001,,,,,,,,,,,,,,,,,,,,,,,,,,,,,,7,0.8833,1,,,,,,,,,,,,0,131,5,5,2214,1986,absent_patch/patch0002214.jpg,absent_patch/patch0001986.jpg,,,,,,,,,,,,,,,,,,,,0.037829861,0.0990625,1,0,0,response1disk,27,0.00453125,0.011167535,1,0,0,center_square,0,26,26,34,1,,,,,,,,,,,,,,,,,,,,,,,
026963,001,2022-11-20_15h50.28.440,Info_measure_main_exp,2022.2.2,MacIntel,60.0024001,,,,,,,,,,,,,,,,,,masks/mask_002.jpg,,,,,,,,,,,,,,,,,,,,,,,,,,,,,,,,,,,,,,,,,,,0,0,0,1,1,,,,,,,,,,,,,,,,,,,,,,,,,,,,,,,,,,,,,,,,,,,,,,
026963,001,2022-11-20_15h50.28.440,Info_measure_main_exp,2022.2.2,MacIntel,60.0024001,,,,,,,,,,,,,,,,,,masks/mask_003.jpg,,,,,,,,,,,,,,,,,,,,,,,,,,,,,,,,,,,,,,,,,,,0,1,1,2,1,,,,,,,,,,,,,,,,,,,,,,,,,,,,,,,,,,,,,,,,,,,,,,
026963,001,2022-11-20_15h50.28.440,Info_measure_main_exp,2022.2.2,MacIntel,60.0024001,,,,,,,,,,,,,,,,,,masks/mask_005.jpg,,,,,,,,,,,,,,,,,,,,,,,,,,,,,,,,,,,,,,,,,,,0,2,2,4,1,,,,,,,,,,,,,,,,,,,,,,,,,,,,,,,,,,,,,,,,,,,,,,
026963,001,2022-11-20_15h50.28.440,Info_measure_main_exp,2022.2.2,MacIntel,60.0024001,,,,,,,,,,,,,,,,,,masks/mask_001.jpg,,,,,,,,,,,,,,,,,,,,,,,,,,,,,,,,,,,,,,,,,,,0,3,3,0,1,,,,,,,,,,,,,,,,,,,,,,,,,,,,,,,,,,,,,,,,,,,,,,
026963,001,2022-11-20_15h50.28.440,Info_measure_main_exp,2022.2.2,MacIntel,60.0024001,,,,,,,,,,,,,,,,,,masks/mask_004.jpg,,,,,,,,,,,,,,,,,,,,,,,,,,,,,,,,,,,,,,,,,,,0,4,4,3,1,,,,,,,,,,,,,,,,,,,,,,,,,,,,,,,,,,,,,,,,,,,,,,
026963,001,2022-11-20_15h50.28.440,Info_measure_main_exp,2022.2.2,MacIntel,60.0024001,,,,,,,,,,,,,,,,,,masks/mask_005.jpg,,,,,,,,,,,,,,,,,,,,,,,,,,,,,,,,,,,,,,,,,,,,,,,,0,0,0,4,1,,,,,,,,,,,,,,,,,,,,,,,,,,,,,,,,,,,,,,,,,
026963,001,2022-11-20_15h50.28.440,Info_measure_main_exp,2022.2.2,MacIntel,60.0024001,,,,,,,,,,,,,,,,,,masks/mask_003.jpg,,,,,,,,,,,,,,,,,,,,,,,,,,,,,,,,,,,,,,,,,,,,,,,,0,1,1,2,1,,,,,,,,,,,,,,,,,,,,,,,,,,,,,,,,,,,,,,,,,
026963,001,2022-11-20_15h50.28.440,Info_measure_main_exp,2022.2.2,MacIntel,60.0024001,,,,,,,,,,,,,,,,,,masks/mask_001.jpg,,,,,,,,,,,,,,,,,,,,,,,,,,,,,,,,,,,,,,,,,,,,,,,,0,2,2,0,1,,,,,,,,,,,,,,,,,,,,,,,,,,,,,,,,,,,,,,,,,
026963,001,2022-11-20_15h50.28.440,Info_measure_main_exp,2022.2.2,MacIntel,60.0024001,,,,,,,,,,,,,,,,,,masks/mask_002.jpg,,,,,,,,,,,,,,,,,,,,,,,,,,,,,,,,,,,,,,,,,,,,,,,,0,3,3,1,1,,,,,,,,,,,,,,,,,,,,,,,,,,,,,,,,,,,,,,,,,
026963,001,2022-11-20_15h50.28.440,Info_measure_main_exp,2022.2.2,MacIntel,60.0024001,,,,,,,,,,,,,,,,,,masks/mask_004.jpg,,,,,,,,,,,,,,,,,,,,,,,,,,,,,,,,,,,,,,,,,,,,,,,,0,4,4,3,1,,,,,,,,,,,,,,,,,,,,,,,,,,,,,,,,,,,,,,,,,
026963,001,2022-11-20_15h50.28.440,Info_measure_main_exp,2022.2.2,MacIntel,60.0024001,,,,,,,,,,,,,,,,,,,,,,,,,,,,,,7,0.6996,1,,,,,,,,,,,,0,131,5,5,1950,2298,absent_patch/patch0001950.jpg,absent_patch/patch0002298.jpg,,,,,,,,,,,,,,,,,,,,0.053042535,0.103407118,1,0,0,response1disk,28,0.013580729,0.002057292,1,0,0,center_square,0,27,27,18,1,,,,,,,,,,,,,,,,,,,,,,,
026963,001,2022-11-20_15h50.28.440,Info_measure_main_exp,2022.2.2,MacIntel,60.0024001,,,,,,,,,,,,,,,,,,masks/mask_004.jpg,,,,,,,,,,,,,,,,,,,,,,,,,,,,,,,,,,,,,,,,,,,0,0,0,3,1,,,,,,,,,,,,,,,,,,,,,,,,,,,,,,,,,,,,,,,,,,,,,,
026963,001,2022-11-20_15h50.28.440,Info_measure_main_exp,2022.2.2,MacIntel,60.0024001,,,,,,,,,,,,,,,,,,masks/mask_003.jpg,,,,,,,,,,,,,,,,,,,,,,,,,,,,,,,,,,,,,,,,,,,0,1,1,2,1,,,,,,,,,,,,,,,,,,,,,,,,,,,,,,,,,,,,,,,,,,,,,,
026963,001,2022-11-20_15h50.28.440,Info_measure_main_exp,2022.2.2,MacIntel,60.0024001,,,,,,,,,,,,,,,,,,masks/mask_001.jpg,,,,,,,,,,,,,,,,,,,,,,,,,,,,,,,,,,,,,,,,,,,0,2,2,0,1,,,,,,,,,,,,,,,,,,,,,,,,,,,,,,,,,,,,,,,,,,,,,,
026963,001,2022-11-20_15h50.28.440,Info_measure_main_exp,2022.2.2,MacIntel,60.0024001,,,,,,,,,,,,,,,,,,masks/mask_002.jpg,,,,,,,,,,,,,,,,,,,,,,,,,,,,,,,,,,,,,,,,,,,0,3,3,1,1,,,,,,,,,,,,,,,,,,,,,,,,,,,,,,,,,,,,,,,,,,,,,,
026963,001,2022-11-20_15h50.28.440,Info_measure_main_exp,2022.2.2,MacIntel,60.0024001,,,,,,,,,,,,,,,,,,masks/mask_005.jpg,,,,,,,,,,,,,,,,,,,,,,,,,,,,,,,,,,,,,,,,,,,0,4,4,4,1,,,,,,,,,,,,,,,,,,,,,,,,,,,,,,,,,,,,,,,,,,,,,,
026963,001,2022-11-20_15h50.28.440,Info_measure_main_exp,2022.2.2,MacIntel,60.0024001,,,,,,,,,,,,,,,,,,masks/mask_001.jpg,,,,,,,,,,,,,,,,,,,,,,,,,,,,,,,,,,,,,,,,,,,,,,,,0,0,0,0,1,,,,,,,,,,,,,,,,,,,,,,,,,,,,,,,,,,,,,,,,,
026963,001,2022-11-20_15h50.28.440,Info_measure_main_exp,2022.2.2,MacIntel,60.0024001,,,,,,,,,,,,,,,,,,masks/mask_003.jpg,,,,,,,,,,,,,,,,,,,,,,,,,,,,,,,,,,,,,,,,,,,,,,,,0,1,1,2,1,,,,,,,,,,,,,,,,,,,,,,,,,,,,,,,,,,,,,,,,,
026963,001,2022-11-20_15h50.28.440,Info_measure_main_exp,2022.2.2,MacIntel,60.0024001,,,,,,,,,,,,,,,,,,masks/mask_004.jpg,,,,,,,,,,,,,,,,,,,,,,,,,,,,,,,,,,,,,,,,,,,,,,,,0,2,2,3,1,,,,,,,,,,,,,,,,,,,,,,,,,,,,,,,,,,,,,,,,,
026963,001,2022-11-20_15h50.28.440,Info_measure_main_exp,2022.2.2,MacIntel,60.0024001,,,,,,,,,,,,,,,,,,masks/mask_005.jpg,,,,,,,,,,,,,,,,,,,,,,,,,,,,,,,,,,,,,,,,,,,,,,,,0,3,3,4,1,,,,,,,,,,,,,,,,,,,,,,,,,,,,,,,,,,,,,,,,,
026963,001,2022-11-20_15h50.28.440,Info_measure_main_exp,2022.2.2,MacIntel,60.0024001,,,,,,,,,,,,,,,,,,masks/mask_002.jpg,,,,,,,,,,,,,,,,,,,,,,,,,,,,,,,,,,,,,,,,,,,,,,,,0,4,4,1,1,,,,,,,,,,,,,,,,,,,,,,,,,,,,,,,,,,,,,,,,,
026963,001,2022-11-20_15h50.28.440,Info_measure_main_exp,2022.2.2,MacIntel,60.0024001,,,,,,,,,,,,,,,,,,,,,,,,,,,,,,7,0.883,1,,,,,,,,,,,,0,131,5,5,2178,2154,absent_patch/patch0002178.jpg,absent_patch/patch0002154.jpg,,,,,,,,,,,,,,,,,,,,0.042335069,0.082335069,1,0,0,response1disk,29,0.005659722,0.006367187,1,0,0,center_square,0,28,28,63,1,,,,,,,,,,,,,,,,,,,,,,,
026963,001,2022-11-20_15h50.28.440,Info_measure_main_exp,2022.2.2,MacIntel,60.0024001,,,,,,,,,,,,,,,,,,masks/mask_005.jpg,,,,,,,,,,,,,,,,,,,,,,,,,,,,,,,,,,,,,,,,,,,0,0,0,4,1,,,,,,,,,,,,,,,,,,,,,,,,,,,,,,,,,,,,,,,,,,,,,,
026963,001,2022-11-20_15h50.28.440,Info_measure_main_exp,2022.2.2,MacIntel,60.0024001,,,,,,,,,,,,,,,,,,masks/mask_002.jpg,,,,,,,,,,,,,,,,,,,,,,,,,,,,,,,,,,,,,,,,,,,0,1,1,1,1,,,,,,,,,,,,,,,,,,,,,,,,,,,,,,,,,,,,,,,,,,,,,,
026963,001,2022-11-20_15h50.28.440,Info_measure_main_exp,2022.2.2,MacIntel,60.0024001,,,,,,,,,,,,,,,,,,masks/mask_003.jpg,,,,,,,,,,,,,,,,,,,,,,,,,,,,,,,,,,,,,,,,,,,0,2,2,2,1,,,,,,,,,,,,,,,,,,,,,,,,,,,,,,,,,,,,,,,,,,,,,,
026963,001,2022-11-20_15h50.28.440,Info_measure_main_exp,2022.2.2,MacIntel,60.0024001,,,,,,,,,,,,,,,,,,masks/mask_001.jpg,,,,,,,,,,,,,,,,,,,,,,,,,,,,,,,,,,,,,,,,,,,0,3,3,0,1,,,,,,,,,,,,,,,,,,,,,,,,,,,,,,,,,,,,,,,,,,,,,,
026963,001,2022-11-20_15h50.28.440,Info_measure_main_exp,2022.2.2,MacIntel,60.0024001,,,,,,,,,,,,,,,,,,masks/mask_004.jpg,,,,,,,,,,,,,,,,,,,,,,,,,,,,,,,,,,,,,,,,,,,0,4,4,3,1,,,,,,,,,,,,,,,,,,,,,,,,,,,,,,,,,,,,,,,,,,,,,,
026963,001,2022-11-20_15h50.28.440,Info_measure_main_exp,2022.2.2,MacIntel,60.0024001,,,,,,,,,,,,,,,,,,masks/mask_002.jpg,,,,,,,,,,,,,,,,,,,,,,,,,,,,,,,,,,,,,,,,,,,,,,,,0,0,0,1,1,,,,,,,,,,,,,,,,,,,,,,,,,,,,,,,,,,,,,,,,,
026963,001,2022-11-20_15h50.28.440,Info_measure_main_exp,2022.2.2,MacIntel,60.0024001,,,,,,,,,,,,,,,,,,masks/mask_004.jpg,,,,,,,,,,,,,,,,,,,,,,,,,,,,,,,,,,,,,,,,,,,,,,,,0,1,1,3,1,,,,,,,,,,,,,,,,,,,,,,,,,,,,,,,,,,,,,,,,,
026963,001,2022-11-20_15h50.28.440,Info_measure_main_exp,2022.2.2,MacIntel,60.0024001,,,,,,,,,,,,,,,,,,masks/mask_001.jpg,,,,,,,,,,,,,,,,,,,,,,,,,,,,,,,,,,,,,,,,,,,,,,,,0,2,2,0,1,,,,,,,,,,,,,,,,,,,,,,,,,,,,,,,,,,,,,,,,,
026963,001,2022-11-20_15h50.28.440,Info_measure_main_exp,2022.2.2,MacIntel,60.0024001,,,,,,,,,,,,,,,,,,masks/mask_003.jpg,,,,,,,,,,,,,,,,,,,,,,,,,,,,,,,,,,,,,,,,,,,,,,,,0,3,3,2,1,,,,,,,,,,,,,,,,,,,,,,,,,,,,,,,,,,,,,,,,,
026963,001,2022-11-20_15h50.28.440,Info_measure_main_exp,2022.2.2,MacIntel,60.0024001,,,,,,,,,,,,,,,,,,masks/mask_005.jpg,,,,,,,,,,,,,,,,,,,,,,,,,,,,,,,,,,,,,,,,,,,,,,,,0,4,4,4,1,,,,,,,,,,,,,,,,,,,,,,,,,,,,,,,,,,,,,,,,,
026963,001,2022-11-20_15h50.28.440,Info_measure_main_exp,2022.2.2,MacIntel,60.0024001,,,,,,,,,,,,,,,,,,,,,,,,,,,,,,7,0.8339,1,,,,,,,,,,,,0,131,5,5,2298,2214,absent_patch/patch0002298.jpg,absent_patch/patch0002214.jpg,,,,,,,,,,,,,,,,,,,,0.006506076,0.036987847,1,0,0,response1disk,30,-0.001362847,0.000746528,1,0,0,center_square,0,29,29,99,1,,,,,,,,,,,,,,,,,,,,,,,
026963,001,2022-11-20_15h50.28.440,Info_measure_main_exp,2022.2.2,MacIntel,60.0024001,,,,,,,,,,,,,,,,,,masks/mask_004.jpg,,,,,,,,,,,,,,,,,,,,,,,,,,,,,,,,,,,,,,,,,,,0,0,0,3,1,,,,,,,,,,,,,,,,,,,,,,,,,,,,,,,,,,,,,,,,,,,,,,
026963,001,2022-11-20_15h50.28.440,Info_measure_main_exp,2022.2.2,MacIntel,60.0024001,,,,,,,,,,,,,,,,,,masks/mask_003.jpg,,,,,,,,,,,,,,,,,,,,,,,,,,,,,,,,,,,,,,,,,,,0,1,1,2,1,,,,,,,,,,,,,,,,,,,,,,,,,,,,,,,,,,,,,,,,,,,,,,
026963,001,2022-11-20_15h50.28.440,Info_measure_main_exp,2022.2.2,MacIntel,60.0024001,,,,,,,,,,,,,,,,,,masks/mask_001.jpg,,,,,,,,,,,,,,,,,,,,,,,,,,,,,,,,,,,,,,,,,,,0,2,2,0,1,,,,,,,,,,,,,,,,,,,,,,,,,,,,,,,,,,,,,,,,,,,,,,
026963,001,2022-11-20_15h50.28.440,Info_measure_main_exp,2022.2.2,MacIntel,60.0024001,,,,,,,,,,,,,,,,,,masks/mask_005.jpg,,,,,,,,,,,,,,,,,,,,,,,,,,,,,,,,,,,,,,,,,,,0,3,3,4,1,,,,,,,,,,,,,,,,,,,,,,,,,,,,,,,,,,,,,,,,,,,,,,
026963,001,2022-11-20_15h50.28.440,Info_measure_main_exp,2022.2.2,MacIntel,60.0024001,,,,,,,,,,,,,,,,,,masks/mask_002.jpg,,,,,,,,,,,,,,,,,,,,,,,,,,,,,,,,,,,,,,,,,,,0,4,4,1,1,,,,,,,,,,,,,,,,,,,,,,,,,,,,,,,,,,,,,,,,,,,,,,
026963,001,2022-11-20_15h50.28.440,Info_measure_main_exp,2022.2.2,MacIntel,60.0024001,,,,,,,,,,,,,,,,,,masks/mask_001.jpg,,,,,,,,,,,,,,,,,,,,,,,,,,,,,,,,,,,,,,,,,,,,,,,,0,0,0,0,1,,,,,,,,,,,,,,,,,,,,,,,,,,,,,,,,,,,,,,,,,
026963,001,2022-11-20_15h50.28.440,Info_measure_main_exp,2022.2.2,MacIntel,60.0024001,,,,,,,,,,,,,,,,,,masks/mask_002.jpg,,,,,,,,,,,,,,,,,,,,,,,,,,,,,,,,,,,,,,,,,,,,,,,,0,1,1,1,1,,,,,,,,,,,,,,,,,,,,,,,,,,,,,,,,,,,,,,,,,
026963,001,2022-11-20_15h50.28.440,Info_measure_main_exp,2022.2.2,MacIntel,60.0024001,,,,,,,,,,,,,,,,,,masks/mask_005.jpg,,,,,,,,,,,,,,,,,,,,,,,,,,,,,,,,,,,,,,,,,,,,,,,,0,2,2,4,1,,,,,,,,,,,,,,,,,,,,,,,,,,,,,,,,,,,,,,,,,
026963,001,2022-11-20_15h50.28.440,Info_measure_main_exp,2022.2.2,MacIntel,60.0024001,,,,,,,,,,,,,,,,,,masks/mask_003.jpg,,,,,,,,,,,,,,,,,,,,,,,,,,,,,,,,,,,,,,,,,,,,,,,,0,3,3,2,1,,,,,,,,,,,,,,,,,,,,,,,,,,,,,,,,,,,,,,,,,
026963,001,2022-11-20_15h50.28.440,Info_measure_main_exp,2022.2.2,MacIntel,60.0024001,,,,,,,,,,,,,,,,,,masks/mask_004.jpg,,,,,,,,,,,,,,,,,,,,,,,,,,,,,,,,,,,,,,,,,,,,,,,,0,4,4,3,1,,,,,,,,,,,,,,,,,,,,,,,,,,,,,,,,,,,,,,,,,
026963,001,2022-11-20_15h50.28.440,Info_measure_main_exp,2022.2.2,MacIntel,60.0024001,,,,,,,,,,,,,,,,,,,,,,,,,,,,,,7,0.5668,1,,,,,,,,,,,,0,131,5,5,1950,2238,absent_patch/patch0001950.jpg,absent_patch/patch0002238.jpg,,,,,,,,,,,,,,,,,,,,0.043784722,0.099453125,1,0,0,response1disk,31,0.010876736,0.012673611,1,0,0,center_square,0,30,30,8,1,,,,,,,,,,,,,,,,,,,,,,,
026963,001,2022-11-20_15h50.28.440,Info_measure_main_exp,2022.2.2,MacIntel,60.0024001,,,,,,,,,,,,,,,,,,masks/mask_005.jpg,,,,,,,,,,,,,,,,,,,,,,,,,,,,,,,,,,,,,,,,,,,0,0,0,4,1,,,,,,,,,,,,,,,,,,,,,,,,,,,,,,,,,,,,,,,,,,,,,,
026963,001,2022-11-20_15h50.28.440,Info_measure_main_exp,2022.2.2,MacIntel,60.0024001,,,,,,,,,,,,,,,,,,masks/mask_003.jpg,,,,,,,,,,,,,,,,,,,,,,,,,,,,,,,,,,,,,,,,,,,0,1,1,2,1,,,,,,,,,,,,,,,,,,,,,,,,,,,,,,,,,,,,,,,,,,,,,,
026963,001,2022-11-20_15h50.28.440,Info_measure_main_exp,2022.2.2,MacIntel,60.0024001,,,,,,,,,,,,,,,,,,masks/mask_001.jpg,,,,,,,,,,,,,,,,,,,,,,,,,,,,,,,,,,,,,,,,,,,0,2,2,0,1,,,,,,,,,,,,,,,,,,,,,,,,,,,,,,,,,,,,,,,,,,,,,,
026963,001,2022-11-20_15h50.28.440,Info_measure_main_exp,2022.2.2,MacIntel,60.0024001,,,,,,,,,,,,,,,,,,masks/mask_002.jpg,,,,,,,,,,,,,,,,,,,,,,,,,,,,,,,,,,,,,,,,,,,0,3,3,1,1,,,,,,,,,,,,,,,,,,,,,,,,,,,,,,,,,,,,,,,,,,,,,,
026963,001,2022-11-20_15h50.28.440,Info_measure_main_exp,2022.2.2,MacIntel,60.0024001,,,,,,,,,,,,,,,,,,masks/mask_004.jpg,,,,,,,,,,,,,,,,,,,,,,,,,,,,,,,,,,,,,,,,,,,0,4,4,3,1,,,,,,,,,,,,,,,,,,,,,,,,,,,,,,,,,,,,,,,,,,,,,,
026963,001,2022-11-20_15h50.28.440,Info_measure_main_exp,2022.2.2,MacIntel,60.0024001,,,,,,,,,,,,,,,,,,masks/mask_005.jpg,,,,,,,,,,,,,,,,,,,,,,,,,,,,,,,,,,,,,,,,,,,,,,,,0,0,0,4,1,,,,,,,,,,,,,,,,,,,,,,,,,,,,,,,,,,,,,,,,,
026963,001,2022-11-20_15h50.28.440,Info_measure_main_exp,2022.2.2,MacIntel,60.0024001,,,,,,,,,,,,,,,,,,masks/mask_003.jpg,,,,,,,,,,,,,,,,,,,,,,,,,,,,,,,,,,,,,,,,,,,,,,,,0,1,1,2,1,,,,,,,,,,,,,,,,,,,,,,,,,,,,,,,,,,,,,,,,,
026963,001,2022-11-20_15h50.28.440,Info_measure_main_exp,2022.2.2,MacIntel,60.0024001,,,,,,,,,,,,,,,,,,masks/mask_001.jpg,,,,,,,,,,,,,,,,,,,,,,,,,,,,,,,,,,,,,,,,,,,,,,,,0,2,2,0,1,,,,,,,,,,,,,,,,,,,,,,,,,,,,,,,,,,,,,,,,,
026963,001,2022-11-20_15h50.28.440,Info_measure_main_exp,2022.2.2,MacIntel,60.0024001,,,,,,,,,,,,,,,,,,masks/mask_004.jpg,,,,,,,,,,,,,,,,,,,,,,,,,,,,,,,,,,,,,,,,,,,,,,,,0,3,3,3,1,,,,,,,,,,,,,,,,,,,,,,,,,,,,,,,,,,,,,,,,,
026963,001,2022-11-20_15h50.28.440,Info_measure_main_exp,2022.2.2,MacIntel,60.0024001,,,,,,,,,,,,,,,,,,masks/mask_002.jpg,,,,,,,,,,,,,,,,,,,,,,,,,,,,,,,,,,,,,,,,,,,,,,,,0,4,4,1,1,,,,,,,,,,,,,,,,,,,,,,,,,,,,,,,,,,,,,,,,,
026963,001,2022-11-20_15h50.28.440,Info_measure_main_exp,2022.2.2,MacIntel,60.0024001,,,,,,,,,,,,,,,,,,,,,,,,,,,,,,0,0.8324,1,,,,,,,,,,,,0,131,5,5,2154,2238,absent_patch/patch0002154.jpg,absent_patch/patch0002238.jpg,,,,,,,,,,,,,,,,,,,,-0.02359809,0.057838542,1,0,0,response7disk,32,-0.002013889,0.000863715,1,0,0,center_square,0,31,31,21,1,,,,,,,,,,,,,,,,,,,,,,,
026963,001,2022-11-20_15h50.28.440,Info_measure_main_exp,2022.2.2,MacIntel,60.0024001,,,,,,,,,,,,,,,,,,masks/mask_004.jpg,,,,,,,,,,,,,,,,,,,,,,,,,,,,,,,,,,,,,,,,,,,0,0,0,3,1,,,,,,,,,,,,,,,,,,,,,,,,,,,,,,,,,,,,,,,,,,,,,,
026963,001,2022-11-20_15h50.28.440,Info_measure_main_exp,2022.2.2,MacIntel,60.0024001,,,,,,,,,,,,,,,,,,masks/mask_005.jpg,,,,,,,,,,,,,,,,,,,,,,,,,,,,,,,,,,,,,,,,,,,0,1,1,4,1,,,,,,,,,,,,,,,,,,,,,,,,,,,,,,,,,,,,,,,,,,,,,,
026963,001,2022-11-20_15h50.28.440,Info_measure_main_exp,2022.2.2,MacIntel,60.0024001,,,,,,,,,,,,,,,,,,masks/mask_001.jpg,,,,,,,,,,,,,,,,,,,,,,,,,,,,,,,,,,,,,,,,,,,0,2,2,0,1,,,,,,,,,,,,,,,,,,,,,,,,,,,,,,,,,,,,,,,,,,,,,,
026963,001,2022-11-20_15h50.28.440,Info_measure_main_exp,2022.2.2,MacIntel,60.0024001,,,,,,,,,,,,,,,,,,masks/mask_002.jpg,,,,,,,,,,,,,,,,,,,,,,,,,,,,,,,,,,,,,,,,,,,0,3,3,1,1,,,,,,,,,,,,,,,,,,,,,,,,,,,,,,,,,,,,,,,,,,,,,,
026963,001,2022-11-20_15h50.28.440,Info_measure_main_exp,2022.2.2,MacIntel,60.0024001,,,,,,,,,,,,,,,,,,masks/mask_003.jpg,,,,,,,,,,,,,,,,,,,,,,,,,,,,,,,,,,,,,,,,,,,0,4,4,2,1,,,,,,,,,,,,,,,,,,,,,,,,,,,,,,,,,,,,,,,,,,,,,,
026963,001,2022-11-20_15h50.28.440,Info_measure_main_exp,2022.2.2,MacIntel,60.0024001,,,,,,,,,,,,,,,,,,masks/mask_001.jpg,,,,,,,,,,,,,,,,,,,,,,,,,,,,,,,,,,,,,,,,,,,,,,,,0,0,0,0,1,,,,,,,,,,,,,,,,,,,,,,,,,,,,,,,,,,,,,,,,,
026963,001,2022-11-20_15h50.28.440,Info_measure_main_exp,2022.2.2,MacIntel,60.0024001,,,,,,,,,,,,,,,,,,masks/mask_003.jpg,,,,,,,,,,,,,,,,,,,,,,,,,,,,,,,,,,,,,,,,,,,,,,,,0,1,1,2,1,,,,,,,,,,,,,,,,,,,,,,,,,,,,,,,,,,,,,,,,,
026963,001,2022-11-20_15h50.28.440,Info_measure_main_exp,2022.2.2,MacIntel,60.0024001,,,,,,,,,,,,,,,,,,masks/mask_004.jpg,,,,,,,,,,,,,,,,,,,,,,,,,,,,,,,,,,,,,,,,,,,,,,,,0,2,2,3,1,,,,,,,,,,,,,,,,,,,,,,,,,,,,,,,,,,,,,,,,,
026963,001,2022-11-20_15h50.28.440,Info_measure_main_exp,2022.2.2,MacIntel,60.0024001,,,,,,,,,,,,,,,,,,masks/mask_002.jpg,,,,,,,,,,,,,,,,,,,,,,,,,,,,,,,,,,,,,,,,,,,,,,,,0,3,3,1,1,,,,,,,,,,,,,,,,,,,,,,,,,,,,,,,,,,,,,,,,,
026963,001,2022-11-20_15h50.28.440,Info_measure_main_exp,2022.2.2,MacIntel,60.0024001,,,,,,,,,,,,,,,,,,masks/mask_005.jpg,,,,,,,,,,,,,,,,,,,,,,,,,,,,,,,,,,,,,,,,,,,,,,,,0,4,4,4,1,,,,,,,,,,,,,,,,,,,,,,,,,,,,,,,,,,,,,,,,,
026963,001,2022-11-20_15h50.28.440,Info_measure_main_exp,2022.2.2,MacIntel,60.0024001,,,,,,,,,,,,,,,,,,,,,,,,,,,,,,7,0.984,1,,,,,,,,,,,,0,131,5,5,2238,2166,absent_patch/patch0002238.jpg,absent_patch/patch0002166.jpg,,,,,,,,,,,,,,,,,,,,0.021276042,0.060269097,1,0,0,response1disk,33,0.005295139,0.001888021,1,0,0,center_square,0,32,32,118,1,,,,,,,,,,,,,,,,,,,,,,,
026963,001,2022-11-20_15h50.28.440,Info_measure_main_exp,2022.2.2,MacIntel,60.0024001,,,,,,,,,,,,,,,,,,masks/mask_004.jpg,,,,,,,,,,,,,,,,,,,,,,,,,,,,,,,,,,,,,,,,,,,0,0,0,3,1,,,,,,,,,,,,,,,,,,,,,,,,,,,,,,,,,,,,,,,,,,,,,,
026963,001,2022-11-20_15h50.28.440,Info_measure_main_exp,2022.2.2,MacIntel,60.0024001,,,,,,,,,,,,,,,,,,masks/mask_001.jpg,,,,,,,,,,,,,,,,,,,,,,,,,,,,,,,,,,,,,,,,,,,0,1,1,0,1,,,,,,,,,,,,,,,,,,,,,,,,,,,,,,,,,,,,,,,,,,,,,,
026963,001,2022-11-20_15h50.28.440,Info_measure_main_exp,2022.2.2,MacIntel,60.0024001,,,,,,,,,,,,,,,,,,masks/mask_003.jpg,,,,,,,,,,,,,,,,,,,,,,,,,,,,,,,,,,,,,,,,,,,0,2,2,2,1,,,,,,,,,,,,,,,,,,,,,,,,,,,,,,,,,,,,,,,,,,,,,,
026963,001,2022-11-20_15h50.28.440,Info_measure_main_exp,2022.2.2,MacIntel,60.0024001,,,,,,,,,,,,,,,,,,masks/mask_005.jpg,,,,,,,,,,,,,,,,,,,,,,,,,,,,,,,,,,,,,,,,,,,0,3,3,4,1,,,,,,,,,,,,,,,,,,,,,,,,,,,,,,,,,,,,,,,,,,,,,,
026963,001,2022-11-20_15h50.28.440,Info_measure_main_exp,2022.2.2,MacIntel,60.0024001,,,,,,,,,,,,,,,,,,masks/mask_002.jpg,,,,,,,,,,,,,,,,,,,,,,,,,,,,,,,,,,,,,,,,,,,0,4,4,1,1,,,,,,,,,,,,,,,,,,,,,,,,,,,,,,,,,,,,,,,,,,,,,,
026963,001,2022-11-20_15h50.28.440,Info_measure_main_exp,2022.2.2,MacIntel,60.0024001,,,,,,,,,,,,,,,,,,masks/mask_002.jpg,,,,,,,,,,,,,,,,,,,,,,,,,,,,,,,,,,,,,,,,,,,,,,,,0,0,0,1,1,,,,,,,,,,,,,,,,,,,,,,,,,,,,,,,,,,,,,,,,,
026963,001,2022-11-20_15h50.28.440,Info_measure_main_exp,2022.2.2,MacIntel,60.0024001,,,,,,,,,,,,,,,,,,masks/mask_005.jpg,,,,,,,,,,,,,,,,,,,,,,,,,,,,,,,,,,,,,,,,,,,,,,,,0,1,1,4,1,,,,,,,,,,,,,,,,,,,,,,,,,,,,,,,,,,,,,,,,,
026963,001,2022-11-20_15h50.28.440,Info_measure_main_exp,2022.2.2,MacIntel,60.0024001,,,,,,,,,,,,,,,,,,masks/mask_001.jpg,,,,,,,,,,,,,,,,,,,,,,,,,,,,,,,,,,,,,,,,,,,,,,,,0,2,2,0,1,,,,,,,,,,,,,,,,,,,,,,,,,,,,,,,,,,,,,,,,,
026963,001,2022-11-20_15h50.28.440,Info_measure_main_exp,2022.2.2,MacIntel,60.0024001,,,,,,,,,,,,,,,,,,masks/mask_003.jpg,,,,,,,,,,,,,,,,,,,,,,,,,,,,,,,,,,,,,,,,,,,,,,,,0,3,3,2,1,,,,,,,,,,,,,,,,,,,,,,,,,,,,,,,,,,,,,,,,,
026963,001,2022-11-20_15h50.28.440,Info_measure_main_exp,2022.2.2,MacIntel,60.0024001,,,,,,,,,,,,,,,,,,masks/mask_004.jpg,,,,,,,,,,,,,,,,,,,,,,,,,,,,,,,,,,,,,,,,,,,,,,,,0,4,4,3,1,,,,,,,,,,,,,,,,,,,,,,,,,,,,,,,,,,,,,,,,,
026963,001,2022-11-20_15h50.28.440,Info_measure_main_exp,2022.2.2,MacIntel,60.0024001,,,,,,,,,,,,,,,,,,,,,,,,,,,,,,7,0.5499,1,,,,,,,,,,,,0,131,5,5,2178,2238,absent_patch/patch0002178.jpg,absent_patch/patch0002238.jpg,,,,,,,,,,,,,,,,,,,,0.040447049,0.066332465,1,0,0,response1disk,34,-0.010034722,-0.006397569,1,0,0,center_square,0,33,33,57,1,,,,,,,,,,,,,,,,,,,,,,,
026963,001,2022-11-20_15h50.28.440,Info_measure_main_exp,2022.2.2,MacIntel,60.0024001,,,,,,,,,,,,,,,,,,masks/mask_004.jpg,,,,,,,,,,,,,,,,,,,,,,,,,,,,,,,,,,,,,,,,,,,0,0,0,3,1,,,,,,,,,,,,,,,,,,,,,,,,,,,,,,,,,,,,,,,,,,,,,,
026963,001,2022-11-20_15h50.28.440,Info_measure_main_exp,2022.2.2,MacIntel,60.0024001,,,,,,,,,,,,,,,,,,masks/mask_002.jpg,,,,,,,,,,,,,,,,,,,,,,,,,,,,,,,,,,,,,,,,,,,0,1,1,1,1,,,,,,,,,,,,,,,,,,,,,,,,,,,,,,,,,,,,,,,,,,,,,,
026963,001,2022-11-20_15h50.28.440,Info_measure_main_exp,2022.2.2,MacIntel,60.0024001,,,,,,,,,,,,,,,,,,masks/mask_005.jpg,,,,,,,,,,,,,,,,,,,,,,,,,,,,,,,,,,,,,,,,,,,0,2,2,4,1,,,,,,,,,,,,,,,,,,,,,,,,,,,,,,,,,,,,,,,,,,,,,,
026963,001,2022-11-20_15h50.28.440,Info_measure_main_exp,2022.2.2,MacIntel,60.0024001,,,,,,,,,,,,,,,,,,masks/mask_003.jpg,,,,,,,,,,,,,,,,,,,,,,,,,,,,,,,,,,,,,,,,,,,0,3,3,2,1,,,,,,,,,,,,,,,,,,,,,,,,,,,,,,,,,,,,,,,,,,,,,,
026963,001,2022-11-20_15h50.28.440,Info_measure_main_exp,2022.2.2,MacIntel,60.0024001,,,,,,,,,,,,,,,,,,masks/mask_001.jpg,,,,,,,,,,,,,,,,,,,,,,,,,,,,,,,,,,,,,,,,,,,0,4,4,0,1,,,,,,,,,,,,,,,,,,,,,,,,,,,,,,,,,,,,,,,,,,,,,,
