participant,session,date,expName,psychopyVersion,OS,frameRate,space_press_continue.keys,space_press_continue.rt,space_press_continue_2.keys,space_press_continue_2.rt,space_press_continue_3.keys,space_press_continue_3.rt,space_press_continue_4.keys,space_press_continue_4.rt,space_press_continue_5.keys,space_press_continue_5.rt,space_press_continue_6.keys,space_press_continue_6.rt,prac_mask_loop_1.thisRepN,prac_mask_loop_1.thisTrialN,prac_mask_loop_1.thisN,prac_mask_loop_1.thisIndex,prac_mask_loop_1.ran,mask_name,prac_mask_loop_2.thisRepN,prac_mask_loop_2.thisTrialN,prac_mask_loop_2.thisN,prac_mask_loop_2.thisIndex,prac_mask_loop_2.ran,mouse_2.x,mouse_2.y,mouse_2.leftButton,mouse_2.midButton,mouse_2.rightButton,mouse_2.clicked_name,similarity,response_time,Pass,mouse_12.x,mouse_12.y,mouse_12.leftButton,mouse_12.midButton,mouse_12.rightButton,mouse_12.clicked_name,prac_loop.thisRepN,prac_loop.thisTrialN,prac_loop.thisN,prac_loop.thisIndex,prac_loop.ran,Pair_type,Image_num,Patch_1_loc,Patch_2_loc,Patch_1_info,Patch_2_info,Patch_1_name,Patch_2_name,mouse_1.x,mouse_1.y,mouse_1.leftButton,mouse_1.midButton,mouse_1.rightButton,mouse_1.time,mouse_1.clicked_name,space_press_continue_7.keys,mask_loop.thisRepN,mask_loop.thisTrialN,mask_loop.thisN,mask_loop.thisIndex,mask_loop.ran,mask_loop_2.thisRepN,mask_loop_2.thisTrialN,mask_loop_2.thisN,mask_loop_2.thisIndex,mask_loop_2.ran,mouse.x,mouse.y,mouse.leftButton,mouse.midButton,mouse.rightButton,mouse.clicked_name,trialNumber,mouse_11.x,mouse_11.y,mouse_11.leftButton,mouse_11.midButton,mouse_11.rightButton,mouse_11.clicked_name,first_pass_loop.thisRepN,first_pass_loop.thisTrialN,first_pass_loop.thisN,first_pass_loop.thisIndex,first_pass_loop.ran,mask_loop_3.thisRepN,mask_loop_3.thisTrialN,mask_loop_3.thisN,mask_loop_3.thisIndex,mask_loop_3.ran,mask_loop_4.thisRepN,mask_loop_4.thisTrialN,mask_loop_4.thisN,mask_loop_4.thisIndex,mask_loop_4.ran,mouse_3.x,mouse_3.y,mouse_3.leftButton,mouse_3.midButton,mouse_3.rightButton,mouse_3.clicked_name,double_pass_loop.thisRepN,double_pass_loop.thisTrialN,double_pass_loop.thisN,double_pass_loop.thisIndex,double_pass_loop.ran,space_exit.keys,space_exit.rt
027882,001,2022-11-20_17h49.59.116,Info_measure_main_exp,2022.2.2,Win32,74.96251874,,,,,,,,,,,,,,,,,,,,,,,,,,,,,,,,,,,,,,,,,,,,,,,,,,,,,,,,,,,,,,,,,,,,,,,,,,,,,,,,,,,,,,,,,,,,,,,,,,,,,,,,,,,,,,
027882,001,2022-11-20_17h49.59.116,Info_measure_main_exp,2022.2.2,Win32,74.96251874,,,,,,,,,,,,,,,,,,,,,,,,,,,,,,,,,,,,,,,,,,,,,,,,,,,,,,,,,,,,,,,,,,,,,,,,,,,,,,,,,,,,,,,,,,,,,,,,,,,,,,,,,,,,,,
027882,001,2022-11-20_17h49.59.116,Info_measure_main_exp,2022.2.2,Win32,74.96251874,space,7.7002,,,,,,,,,,,,,,,,,,,,,,,,,,,,,,,,,,,,,,,,,,,,,,,,,,,,,,,,,,,,,,,,,,,,,,,,,,,,,,,,,,,,,,,,,,,,,,,,,,,,,,,,,,,,
027882,001,2022-11-20_17h49.59.116,Info_measure_main_exp,2022.2.2,Win32,74.96251874,,,space,17.2977,,,,,,,,,,,,,,,,,,,,,,,,,,,,,,,,,,,,,,,,,,,,,,,,,,,,,,,,,,,,,,,,,,,,,,,,,,,,,,,,,,,,,,,,,,,,,,,,,,,,,,,,,,
027882,001,2022-11-20_17h49.59.116,Info_measure_main_exp,2022.2.2,Win32,74.96251874,,,,,space,13.7716,,,,,,,,,,,,,,,,,,,,,,,,,,,,,,,,,,,,,,,,,,,,,,,,,,,,,,,,,,,,,,,,,,,,,,,,,,,,,,,,,,,,,,,,,,,,,,,,,,,,,,,,
027882,001,2022-11-20_17h49.59.116,Info_measure_main_exp,2022.2.2,Win32,74.96251874,,,,,,,space,15.822,,,,,,,,,,,,,,,,,,,,,,,,,,,,,,,,,,,,,,,,,,,,,,,,,,,,,,,,,,,,,,,,,,,,,,,,,,,,,,,,,,,,,,,,,,,,,,,,,,,,,,
027882,001,2022-11-20_17h49.59.116,Info_measure_main_exp,2022.2.2,Win32,74.96251874,,,,,,,,,space,7.0963,,,,,,,,,,,,,,,,,,,,,,,,,,,,,,,,,,,,,,,,,,,,,,,,,,,,,,,,,,,,,,,,,,,,,,,,,,,,,,,,,,,,,,,,,,,,,,,,,,,,
027882,001,2022-11-20_17h49.59.116,Info_measure_main_exp,2022.2.2,Win32,74.96251874,,,,,,,,,,,space,37.3189,,,,,,,,,,,,,,,,,,,,,,,,,,,,,,,,,,,,,,,,,,,,,,,,,,,,,,,,,,,,,,,,,,,,,,,,,,,,,,,,,,,,,,,,,,,,,,,,,,
027882,001,2022-11-20_17h49.59.116,Info_measure_main_exp,2022.2.2,Win32,74.96251874,,,,,,,,,,,,,0,0,0,2,1,masks/mask_003.jpg,,,,,,,,,,,,,,,,,,,,,,,,,,,,,,,,,,,,,,,,,,,,,,,,,,,,,,,,,,,,,,,,,,,,,,,,,,,,,,,,,,,,,,,,,,,,
027882,001,2022-11-20_17h49.59.116,Info_measure_main_exp,2022.2.2,Win32,74.96251874,,,,,,,,,,,,,0,1,1,1,1,masks/mask_002.jpg,,,,,,,,,,,,,,,,,,,,,,,,,,,,,,,,,,,,,,,,,,,,,,,,,,,,,,,,,,,,,,,,,,,,,,,,,,,,,,,,,,,,,,,,,,,,
027882,001,2022-11-20_17h49.59.116,Info_measure_main_exp,2022.2.2,Win32,74.96251874,,,,,,,,,,,,,0,2,2,0,1,masks/mask_001.jpg,,,,,,,,,,,,,,,,,,,,,,,,,,,,,,,,,,,,,,,,,,,,,,,,,,,,,,,,,,,,,,,,,,,,,,,,,,,,,,,,,,,,,,,,,,,,
027882,001,2022-11-20_17h49.59.116,Info_measure_main_exp,2022.2.2,Win32,74.96251874,,,,,,,,,,,,,0,3,3,3,1,masks/mask_004.jpg,,,,,,,,,,,,,,,,,,,,,,,,,,,,,,,,,,,,,,,,,,,,,,,,,,,,,,,,,,,,,,,,,,,,,,,,,,,,,,,,,,,,,,,,,,,,
027882,001,2022-11-20_17h49.59.116,Info_measure_main_exp,2022.2.2,Win32,74.96251874,,,,,,,,,,,,,0,4,4,4,1,masks/mask_005.jpg,,,,,,,,,,,,,,,,,,,,,,,,,,,,,,,,,,,,,,,,,,,,,,,,,,,,,,,,,,,,,,,,,,,,,,,,,,,,,,,,,,,,,,,,,,,,
027882,001,2022-11-20_17h49.59.116,Info_measure_main_exp,2022.2.2,Win32,74.96251874,,,,,,,,,,,,,,,,,,masks/mask_002.jpg,0,0,0,1,1,,,,,,,,,,,,,,,,,,,,,,,,,,,,,,,,,,,,,,,,,,,,,,,,,,,,,,,,,,,,,,,,,,,,,,,,,,,,,,,,,,,,,,,
027882,001,2022-11-20_17h49.59.116,Info_measure_main_exp,2022.2.2,Win32,74.96251874,,,,,,,,,,,,,,,,,,masks/mask_005.jpg,0,1,1,4,1,,,,,,,,,,,,,,,,,,,,,,,,,,,,,,,,,,,,,,,,,,,,,,,,,,,,,,,,,,,,,,,,,,,,,,,,,,,,,,,,,,,,,,,
027882,001,2022-11-20_17h49.59.116,Info_measure_main_exp,2022.2.2,Win32,74.96251874,,,,,,,,,,,,,,,,,,masks/mask_003.jpg,0,2,2,2,1,,,,,,,,,,,,,,,,,,,,,,,,,,,,,,,,,,,,,,,,,,,,,,,,,,,,,,,,,,,,,,,,,,,,,,,,,,,,,,,,,,,,,,,
027882,001,2022-11-20_17h49.59.116,Info_measure_main_exp,2022.2.2,Win32,74.96251874,,,,,,,,,,,,,,,,,,masks/mask_001.jpg,0,3,3,0,1,,,,,,,,,,,,,,,,,,,,,,,,,,,,,,,,,,,,,,,,,,,,,,,,,,,,,,,,,,,,,,,,,,,,,,,,,,,,,,,,,,,,,,,
027882,001,2022-11-20_17h49.59.116,Info_measure_main_exp,2022.2.2,Win32,74.96251874,,,,,,,,,,,,,,,,,,masks/mask_004.jpg,0,4,4,3,1,,,,,,,,,,,,,,,,,,,,,,,,,,,,,,,,,,,,,,,,,,,,,,,,,,,,,,,,,,,,,,,,,,,,,,,,,,,,,,,,,,,,,,,
027882,001,2022-11-20_17h49.59.116,Info_measure_main_exp,2022.2.2,Win32,74.96251874,,,,,,,,,,,,,,,,,,,,,,,,-0.07962963,0.12037037,1,0,0,response7disk,0,105.9507,1,-0.000925926,0.000925926,1,0,0,center_square,0,0,0,2,1,0,131,5,5,2526,2526,prac_patch/patch0002526.jpg,prac_patch/patch0002526.jpg,,,,,,,,,,,,,,,,,,,,,,,,,,,,,,,,,,,,,,,,,,,,,,,,,,,,,,,,,,,
027882,001,2022-11-20_17h49.59.116,Info_measure_main_exp,2022.2.2,Win32,74.96251874,,,,,,,,,,,,,0,0,0,4,1,masks/mask_005.jpg,,,,,,,,,,,,,,,,,,,,,,,,,,,,,,,,,,,,,,,,,,,,,,,,,,,,,,,,,,,,,,,,,,,,,,,,,,,,,,,,,,,,,,,,,,,,
027882,001,2022-11-20_17h49.59.116,Info_measure_main_exp,2022.2.2,Win32,74.96251874,,,,,,,,,,,,,0,1,1,1,1,masks/mask_002.jpg,,,,,,,,,,,,,,,,,,,,,,,,,,,,,,,,,,,,,,,,,,,,,,,,,,,,,,,,,,,,,,,,,,,,,,,,,,,,,,,,,,,,,,,,,,,,
027882,001,2022-11-20_17h49.59.116,Info_measure_main_exp,2022.2.2,Win32,74.96251874,,,,,,,,,,,,,0,2,2,2,1,masks/mask_003.jpg,,,,,,,,,,,,,,,,,,,,,,,,,,,,,,,,,,,,,,,,,,,,,,,,,,,,,,,,,,,,,,,,,,,,,,,,,,,,,,,,,,,,,,,,,,,,
027882,001,2022-11-20_17h49.59.116,Info_measure_main_exp,2022.2.2,Win32,74.96251874,,,,,,,,,,,,,0,3,3,0,1,masks/mask_001.jpg,,,,,,,,,,,,,,,,,,,,,,,,,,,,,,,,,,,,,,,,,,,,,,,,,,,,,,,,,,,,,,,,,,,,,,,,,,,,,,,,,,,,,,,,,,,,
027882,001,2022-11-20_17h49.59.116,Info_measure_main_exp,2022.2.2,Win32,74.96251874,,,,,,,,,,,,,0,4,4,3,1,masks/mask_004.jpg,,,,,,,,,,,,,,,,,,,,,,,,,,,,,,,,,,,,,,,,,,,,,,,,,,,,,,,,,,,,,,,,,,,,,,,,,,,,,,,,,,,,,,,,,,,,
027882,001,2022-11-20_17h49.59.116,Info_measure_main_exp,2022.2.2,Win32,74.96251874,,,,,,,,,,,,,,,,,,masks/mask_004.jpg,0,0,0,3,1,,,,,,,,,,,,,,,,,,,,,,,,,,,,,,,,,,,,,,,,,,,,,,,,,,,,,,,,,,,,,,,,,,,,,,,,,,,,,,,,,,,,,,,
027882,001,2022-11-20_17h49.59.116,Info_measure_main_exp,2022.2.2,Win32,74.96251874,,,,,,,,,,,,,,,,,,masks/mask_002.jpg,0,1,1,1,1,,,,,,,,,,,,,,,,,,,,,,,,,,,,,,,,,,,,,,,,,,,,,,,,,,,,,,,,,,,,,,,,,,,,,,,,,,,,,,,,,,,,,,,
027882,001,2022-11-20_17h49.59.116,Info_measure_main_exp,2022.2.2,Win32,74.96251874,,,,,,,,,,,,,,,,,,masks/mask_005.jpg,0,2,2,4,1,,,,,,,,,,,,,,,,,,,,,,,,,,,,,,,,,,,,,,,,,,,,,,,,,,,,,,,,,,,,,,,,,,,,,,,,,,,,,,,,,,,,,,,
027882,001,2022-11-20_17h49.59.116,Info_measure_main_exp,2022.2.2,Win32,74.96251874,,,,,,,,,,,,,,,,,,masks/mask_003.jpg,0,3,3,2,1,,,,,,,,,,,,,,,,,,,,,,,,,,,,,,,,,,,,,,,,,,,,,,,,,,,,,,,,,,,,,,,,,,,,,,,,,,,,,,,,,,,,,,,
027882,001,2022-11-20_17h49.59.116,Info_measure_main_exp,2022.2.2,Win32,74.96251874,,,,,,,,,,,,,,,,,,masks/mask_001.jpg,0,4,4,0,1,,,,,,,,,,,,,,,,,,,,,,,,,,,,,,,,,,,,,,,,,,,,,,,,,,,,,,,,,,,,,,,,,,,,,,,,,,,,,,,,,,,,,,,
027882,001,2022-11-20_17h49.59.116,Info_measure_main_exp,2022.2.2,Win32,74.96251874,,,,,,,,,,,,,,,,,,,,,,,,0.05,0.160185185,1,0,0,response1disk,7,117.6671,1,-0.000925926,0.003703704,1,0,0,center_square,0,1,1,1,1,0,131,5,5,2514,2490,prac_patch/patch0002514.jpg,prac_patch/patch0002490.jpg,,,,,,,,,,,,,,,,,,,,,,,,,,,,,,,,,,,,,,,,,,,,,,,,,,,,,,,,,,,
027882,001,2022-11-20_17h49.59.116,Info_measure_main_exp,2022.2.2,Win32,74.96251874,,,,,,,,,,,,,0,0,0,1,1,masks/mask_002.jpg,,,,,,,,,,,,,,,,,,,,,,,,,,,,,,,,,,,,,,,,,,,,,,,,,,,,,,,,,,,,,,,,,,,,,,,,,,,,,,,,,,,,,,,,,,,,
027882,001,2022-11-20_17h49.59.116,Info_measure_main_exp,2022.2.2,Win32,74.96251874,,,,,,,,,,,,,0,1,1,0,1,masks/mask_001.jpg,,,,,,,,,,,,,,,,,,,,,,,,,,,,,,,,,,,,,,,,,,,,,,,,,,,,,,,,,,,,,,,,,,,,,,,,,,,,,,,,,,,,,,,,,,,,
027882,001,2022-11-20_17h49.59.116,Info_measure_main_exp,2022.2.2,Win32,74.96251874,,,,,,,,,,,,,0,2,2,4,1,masks/mask_005.jpg,,,,,,,,,,,,,,,,,,,,,,,,,,,,,,,,,,,,,,,,,,,,,,,,,,,,,,,,,,,,,,,,,,,,,,,,,,,,,,,,,,,,,,,,,,,,
027882,001,2022-11-20_17h49.59.116,Info_measure_main_exp,2022.2.2,Win32,74.96251874,,,,,,,,,,,,,0,3,3,3,1,masks/mask_004.jpg,,,,,,,,,,,,,,,,,,,,,,,,,,,,,,,,,,,,,,,,,,,,,,,,,,,,,,,,,,,,,,,,,,,,,,,,,,,,,,,,,,,,,,,,,,,,
027882,001,2022-11-20_17h49.59.116,Info_measure_main_exp,2022.2.2,Win32,74.96251874,,,,,,,,,,,,,0,4,4,2,1,masks/mask_003.jpg,,,,,,,,,,,,,,,,,,,,,,,,,,,,,,,,,,,,,,,,,,,,,,,,,,,,,,,,,,,,,,,,,,,,,,,,,,,,,,,,,,,,,,,,,,,,
027882,001,2022-11-20_17h49.59.116,Info_measure_main_exp,2022.2.2,Win32,74.96251874,,,,,,,,,,,,,,,,,,masks/mask_004.jpg,0,0,0,3,1,,,,,,,,,,,,,,,,,,,,,,,,,,,,,,,,,,,,,,,,,,,,,,,,,,,,,,,,,,,,,,,,,,,,,,,,,,,,,,,,,,,,,,,
027882,001,2022-11-20_17h49.59.116,Info_measure_main_exp,2022.2.2,Win32,74.96251874,,,,,,,,,,,,,,,,,,masks/mask_001.jpg,0,1,1,0,1,,,,,,,,,,,,,,,,,,,,,,,,,,,,,,,,,,,,,,,,,,,,,,,,,,,,,,,,,,,,,,,,,,,,,,,,,,,,,,,,,,,,,,,
027882,001,2022-11-20_17h49.59.116,Info_measure_main_exp,2022.2.2,Win32,74.96251874,,,,,,,,,,,,,,,,,,masks/mask_002.jpg,0,2,2,1,1,,,,,,,,,,,,,,,,,,,,,,,,,,,,,,,,,,,,,,,,,,,,,,,,,,,,,,,,,,,,,,,,,,,,,,,,,,,,,,,,,,,,,,,
027882,001,2022-11-20_17h49.59.116,Info_measure_main_exp,2022.2.2,Win32,74.96251874,,,,,,,,,,,,,,,,,,masks/mask_005.jpg,0,3,3,4,1,,,,,,,,,,,,,,,,,,,,,,,,,,,,,,,,,,,,,,,,,,,,,,,,,,,,,,,,,,,,,,,,,,,,,,,,,,,,,,,,,,,,,,,
027882,001,2022-11-20_17h49.59.116,Info_measure_main_exp,2022.2.2,Win32,74.96251874,,,,,,,,,,,,,,,,,,masks/mask_003.jpg,0,4,4,2,1,,,,,,,,,,,,,,,,,,,,,,,,,,,,,,,,,,,,,,,,,,,,,,,,,,,,,,,,,,,,,,,,,,,,,,,,,,,,,,,,,,,,,,,
027882,001,2022-11-20_17h49.59.116,Info_measure_main_exp,2022.2.2,Win32,74.96251874,,,,,,,,,,,,,,,,,,,,,,,,0.134259259,0.030555556,1,0,0,response1disk,6,125.5905,1,0.000925926,0.002777778,1,0,0,center_square,0,2,2,0,1,0,131,5,5,2370,2406,prac_patch/patch0002370.jpg,prac_patch/patch0002406.jpg,,,,,,,,,,,,,,,,,,,,,,,,,,,,,,,,,,,,,,,,,,,,,,,,,,,,,,,,,,,
027882,001,2022-11-20_17h49.59.116,Info_measure_main_exp,2022.2.2,Win32,74.96251874,,,,,,,,,,,,,,,,,,,,,,,,,,,,,,,,,,,,,,,,,,,,,,,,,,,,0.000925926,0.002777778,1,0,0,3.307,center_square,,,,,,,,,,,,,,,,,,,,,,,,,,,,,,,,,,,,,,,,,,,,,,,,,,,,
027882,001,2022-11-20_17h49.59.116,Info_measure_main_exp,2022.2.2,Win32,74.96251874,,,,,,,,,,,,,,,,,,masks/mask_002.jpg,,,,,,,,,,,,,,,,,,,,,,,,,,,,,,,,,,,,,,,,,,0,0,0,1,1,,,,,,,,,,,,,,,,,,,,,,,,,,,,,,,,,,,,,,,,,,,,,,
027882,001,2022-11-20_17h49.59.116,Info_measure_main_exp,2022.2.2,Win32,74.96251874,,,,,,,,,,,,,,,,,,masks/mask_003.jpg,,,,,,,,,,,,,,,,,,,,,,,,,,,,,,,,,,,,,,,,,,0,1,1,2,1,,,,,,,,,,,,,,,,,,,,,,,,,,,,,,,,,,,,,,,,,,,,,,
027882,001,2022-11-20_17h49.59.116,Info_measure_main_exp,2022.2.2,Win32,74.96251874,,,,,,,,,,,,,,,,,,masks/mask_004.jpg,,,,,,,,,,,,,,,,,,,,,,,,,,,,,,,,,,,,,,,,,,0,2,2,3,1,,,,,,,,,,,,,,,,,,,,,,,,,,,,,,,,,,,,,,,,,,,,,,
027882,001,2022-11-20_17h49.59.116,Info_measure_main_exp,2022.2.2,Win32,74.96251874,,,,,,,,,,,,,,,,,,masks/mask_001.jpg,,,,,,,,,,,,,,,,,,,,,,,,,,,,,,,,,,,,,,,,,,0,3,3,0,1,,,,,,,,,,,,,,,,,,,,,,,,,,,,,,,,,,,,,,,,,,,,,,
027882,001,2022-11-20_17h49.59.116,Info_measure_main_exp,2022.2.2,Win32,74.96251874,,,,,,,,,,,,,,,,,,masks/mask_005.jpg,,,,,,,,,,,,,,,,,,,,,,,,,,,,,,,,,,,,,,,,,,0,4,4,4,1,,,,,,,,,,,,,,,,,,,,,,,,,,,,,,,,,,,,,,,,,,,,,,
027882,001,2022-11-20_17h49.59.116,Info_measure_main_exp,2022.2.2,Win32,74.96251874,,,,,,,,,,,,,,,,,,masks/mask_001.jpg,,,,,,,,,,,,,,,,,,,,,,,,,,,,,,,,,,,,,,,,,,,,,,,0,0,0,0,1,,,,,,,,,,,,,,,,,,,,,,,,,,,,,,,,,,,,,,,,,
027882,001,2022-11-20_17h49.59.116,Info_measure_main_exp,2022.2.2,Win32,74.96251874,,,,,,,,,,,,,,,,,,masks/mask_003.jpg,,,,,,,,,,,,,,,,,,,,,,,,,,,,,,,,,,,,,,,,,,,,,,,0,1,1,2,1,,,,,,,,,,,,,,,,,,,,,,,,,,,,,,,,,,,,,,,,,
027882,001,2022-11-20_17h49.59.116,Info_measure_main_exp,2022.2.2,Win32,74.96251874,,,,,,,,,,,,,,,,,,masks/mask_005.jpg,,,,,,,,,,,,,,,,,,,,,,,,,,,,,,,,,,,,,,,,,,,,,,,0,2,2,4,1,,,,,,,,,,,,,,,,,,,,,,,,,,,,,,,,,,,,,,,,,
027882,001,2022-11-20_17h49.59.116,Info_measure_main_exp,2022.2.2,Win32,74.96251874,,,,,,,,,,,,,,,,,,masks/mask_004.jpg,,,,,,,,,,,,,,,,,,,,,,,,,,,,,,,,,,,,,,,,,,,,,,,0,3,3,3,1,,,,,,,,,,,,,,,,,,,,,,,,,,,,,,,,,,,,,,,,,
027882,001,2022-11-20_17h49.59.116,Info_measure_main_exp,2022.2.2,Win32,74.96251874,,,,,,,,,,,,,,,,,,masks/mask_002.jpg,,,,,,,,,,,,,,,,,,,,,,,,,,,,,,,,,,,,,,,,,,,,,,,0,4,4,1,1,,,,,,,,,,,,,,,,,,,,,,,,,,,,,,,,,,,,,,,,,
027882,001,2022-11-20_17h49.59.116,Info_measure_main_exp,2022.2.2,Win32,74.96251874,,,,,,,,,,,,,,,,,,,,,,,,,,,,,,6,1.9476,1,,,,,,,,,,,,0,131,5,5,2250,2142,absent_patch/patch0002250.jpg,absent_patch/patch0002142.jpg,,,,,,,,,,,,,,,,,,,0.114814815,0.037037037,1,0,0,response1disk,1,0.008333333,-0.002777778,1,0,0,center_square,0,0,0,71,1,,,,,,,,,,,,,,,,,,,,,,,
027882,001,2022-11-20_17h49.59.116,Info_measure_main_exp,2022.2.2,Win32,74.96251874,,,,,,,,,,,,,,,,,,masks/mask_001.jpg,,,,,,,,,,,,,,,,,,,,,,,,,,,,,,,,,,,,,,,,,,0,0,0,0,1,,,,,,,,,,,,,,,,,,,,,,,,,,,,,,,,,,,,,,,,,,,,,,
027882,001,2022-11-20_17h49.59.116,Info_measure_main_exp,2022.2.2,Win32,74.96251874,,,,,,,,,,,,,,,,,,masks/mask_003.jpg,,,,,,,,,,,,,,,,,,,,,,,,,,,,,,,,,,,,,,,,,,0,1,1,2,1,,,,,,,,,,,,,,,,,,,,,,,,,,,,,,,,,,,,,,,,,,,,,,
027882,001,2022-11-20_17h49.59.116,Info_measure_main_exp,2022.2.2,Win32,74.96251874,,,,,,,,,,,,,,,,,,masks/mask_002.jpg,,,,,,,,,,,,,,,,,,,,,,,,,,,,,,,,,,,,,,,,,,0,2,2,1,1,,,,,,,,,,,,,,,,,,,,,,,,,,,,,,,,,,,,,,,,,,,,,,
027882,001,2022-11-20_17h49.59.116,Info_measure_main_exp,2022.2.2,Win32,74.96251874,,,,,,,,,,,,,,,,,,masks/mask_005.jpg,,,,,,,,,,,,,,,,,,,,,,,,,,,,,,,,,,,,,,,,,,0,3,3,4,1,,,,,,,,,,,,,,,,,,,,,,,,,,,,,,,,,,,,,,,,,,,,,,
027882,001,2022-11-20_17h49.59.116,Info_measure_main_exp,2022.2.2,Win32,74.96251874,,,,,,,,,,,,,,,,,,masks/mask_004.jpg,,,,,,,,,,,,,,,,,,,,,,,,,,,,,,,,,,,,,,,,,,0,4,4,3,1,,,,,,,,,,,,,,,,,,,,,,,,,,,,,,,,,,,,,,,,,,,,,,
027882,001,2022-11-20_17h49.59.116,Info_measure_main_exp,2022.2.2,Win32,74.96251874,,,,,,,,,,,,,,,,,,masks/mask_005.jpg,,,,,,,,,,,,,,,,,,,,,,,,,,,,,,,,,,,,,,,,,,,,,,,0,0,0,4,1,,,,,,,,,,,,,,,,,,,,,,,,,,,,,,,,,,,,,,,,,
027882,001,2022-11-20_17h49.59.116,Info_measure_main_exp,2022.2.2,Win32,74.96251874,,,,,,,,,,,,,,,,,,masks/mask_002.jpg,,,,,,,,,,,,,,,,,,,,,,,,,,,,,,,,,,,,,,,,,,,,,,,0,1,1,1,1,,,,,,,,,,,,,,,,,,,,,,,,,,,,,,,,,,,,,,,,,
027882,001,2022-11-20_17h49.59.116,Info_measure_main_exp,2022.2.2,Win32,74.96251874,,,,,,,,,,,,,,,,,,masks/mask_004.jpg,,,,,,,,,,,,,,,,,,,,,,,,,,,,,,,,,,,,,,,,,,,,,,,0,2,2,3,1,,,,,,,,,,,,,,,,,,,,,,,,,,,,,,,,,,,,,,,,,
027882,001,2022-11-20_17h49.59.116,Info_measure_main_exp,2022.2.2,Win32,74.96251874,,,,,,,,,,,,,,,,,,masks/mask_001.jpg,,,,,,,,,,,,,,,,,,,,,,,,,,,,,,,,,,,,,,,,,,,,,,,0,3,3,0,1,,,,,,,,,,,,,,,,,,,,,,,,,,,,,,,,,,,,,,,,,
027882,001,2022-11-20_17h49.59.116,Info_measure_main_exp,2022.2.2,Win32,74.96251874,,,,,,,,,,,,,,,,,,masks/mask_003.jpg,,,,,,,,,,,,,,,,,,,,,,,,,,,,,,,,,,,,,,,,,,,,,,,0,4,4,2,1,,,,,,,,,,,,,,,,,,,,,,,,,,,,,,,,,,,,,,,,,
027882,001,2022-11-20_17h49.59.116,Info_measure_main_exp,2022.2.2,Win32,74.96251874,,,,,,,,,,,,,,,,,,,,,,,,,,,,,,3,1.5339,1,,,,,,,,,,,,0,131,5,5,1974,2142,absent_patch/patch0001974.jpg,absent_patch/patch0002142.jpg,,,,,,,,,,,,,,,,,,,-0.080555556,-0.107407407,1,0,0,response5disk,2,-0.002777778,0.001851852,1,0,0,center_square,0,1,1,38,1,,,,,,,,,,,,,,,,,,,,,,,
027882,001,2022-11-20_17h49.59.116,Info_measure_main_exp,2022.2.2,Win32,74.96251874,,,,,,,,,,,,,,,,,,masks/mask_001.jpg,,,,,,,,,,,,,,,,,,,,,,,,,,,,,,,,,,,,,,,,,,0,0,0,0,1,,,,,,,,,,,,,,,,,,,,,,,,,,,,,,,,,,,,,,,,,,,,,,
027882,001,2022-11-20_17h49.59.116,Info_measure_main_exp,2022.2.2,Win32,74.96251874,,,,,,,,,,,,,,,,,,masks/mask_002.jpg,,,,,,,,,,,,,,,,,,,,,,,,,,,,,,,,,,,,,,,,,,0,1,1,1,1,,,,,,,,,,,,,,,,,,,,,,,,,,,,,,,,,,,,,,,,,,,,,,
027882,001,2022-11-20_17h49.59.116,Info_measure_main_exp,2022.2.2,Win32,74.96251874,,,,,,,,,,,,,,,,,,masks/mask_004.jpg,,,,,,,,,,,,,,,,,,,,,,,,,,,,,,,,,,,,,,,,,,0,2,2,3,1,,,,,,,,,,,,,,,,,,,,,,,,,,,,,,,,,,,,,,,,,,,,,,
027882,001,2022-11-20_17h49.59.116,Info_measure_main_exp,2022.2.2,Win32,74.96251874,,,,,,,,,,,,,,,,,,masks/mask_003.jpg,,,,,,,,,,,,,,,,,,,,,,,,,,,,,,,,,,,,,,,,,,0,3,3,2,1,,,,,,,,,,,,,,,,,,,,,,,,,,,,,,,,,,,,,,,,,,,,,,
027882,001,2022-11-20_17h49.59.116,Info_measure_main_exp,2022.2.2,Win32,74.96251874,,,,,,,,,,,,,,,,,,masks/mask_005.jpg,,,,,,,,,,,,,,,,,,,,,,,,,,,,,,,,,,,,,,,,,,0,4,4,4,1,,,,,,,,,,,,,,,,,,,,,,,,,,,,,,,,,,,,,,,,,,,,,,
027882,001,2022-11-20_17h49.59.116,Info_measure_main_exp,2022.2.2,Win32,74.96251874,,,,,,,,,,,,,,,,,,masks/mask_003.jpg,,,,,,,,,,,,,,,,,,,,,,,,,,,,,,,,,,,,,,,,,,,,,,,0,0,0,2,1,,,,,,,,,,,,,,,,,,,,,,,,,,,,,,,,,,,,,,,,,
027882,001,2022-11-20_17h49.59.116,Info_measure_main_exp,2022.2.2,Win32,74.96251874,,,,,,,,,,,,,,,,,,masks/mask_002.jpg,,,,,,,,,,,,,,,,,,,,,,,,,,,,,,,,,,,,,,,,,,,,,,,0,1,1,1,1,,,,,,,,,,,,,,,,,,,,,,,,,,,,,,,,,,,,,,,,,
027882,001,2022-11-20_17h49.59.116,Info_measure_main_exp,2022.2.2,Win32,74.96251874,,,,,,,,,,,,,,,,,,masks/mask_005.jpg,,,,,,,,,,,,,,,,,,,,,,,,,,,,,,,,,,,,,,,,,,,,,,,0,2,2,4,1,,,,,,,,,,,,,,,,,,,,,,,,,,,,,,,,,,,,,,,,,
027882,001,2022-11-20_17h49.59.116,Info_measure_main_exp,2022.2.2,Win32,74.96251874,,,,,,,,,,,,,,,,,,masks/mask_001.jpg,,,,,,,,,,,,,,,,,,,,,,,,,,,,,,,,,,,,,,,,,,,,,,,0,3,3,0,1,,,,,,,,,,,,,,,,,,,,,,,,,,,,,,,,,,,,,,,,,
027882,001,2022-11-20_17h49.59.116,Info_measure_main_exp,2022.2.2,Win32,74.96251874,,,,,,,,,,,,,,,,,,masks/mask_004.jpg,,,,,,,,,,,,,,,,,,,,,,,,,,,,,,,,,,,,,,,,,,,,,,,0,4,4,3,1,,,,,,,,,,,,,,,,,,,,,,,,,,,,,,,,,,,,,,,,,
027882,001,2022-11-20_17h49.59.116,Info_measure_main_exp,2022.2.2,Win32,74.96251874,,,,,,,,,,,,,,,,,,,,,,,,,,,,,,7,0.7733,1,,,,,,,,,,,,0,131,5,5,2142,2154,absent_patch/patch0002142.jpg,absent_patch/patch0002154.jpg,,,,,,,,,,,,,,,,,,,0.05462963,0.132407407,1,0,0,response1disk,3,0.001851852,0.003703704,1,0,0,center_square,0,2,2,9,1,,,,,,,,,,,,,,,,,,,,,,,
027882,001,2022-11-20_17h49.59.116,Info_measure_main_exp,2022.2.2,Win32,74.96251874,,,,,,,,,,,,,,,,,,masks/mask_005.jpg,,,,,,,,,,,,,,,,,,,,,,,,,,,,,,,,,,,,,,,,,,0,0,0,4,1,,,,,,,,,,,,,,,,,,,,,,,,,,,,,,,,,,,,,,,,,,,,,,
027882,001,2022-11-20_17h49.59.116,Info_measure_main_exp,2022.2.2,Win32,74.96251874,,,,,,,,,,,,,,,,,,masks/mask_001.jpg,,,,,,,,,,,,,,,,,,,,,,,,,,,,,,,,,,,,,,,,,,0,1,1,0,1,,,,,,,,,,,,,,,,,,,,,,,,,,,,,,,,,,,,,,,,,,,,,,
027882,001,2022-11-20_17h49.59.116,Info_measure_main_exp,2022.2.2,Win32,74.96251874,,,,,,,,,,,,,,,,,,masks/mask_004.jpg,,,,,,,,,,,,,,,,,,,,,,,,,,,,,,,,,,,,,,,,,,0,2,2,3,1,,,,,,,,,,,,,,,,,,,,,,,,,,,,,,,,,,,,,,,,,,,,,,
027882,001,2022-11-20_17h49.59.116,Info_measure_main_exp,2022.2.2,Win32,74.96251874,,,,,,,,,,,,,,,,,,masks/mask_002.jpg,,,,,,,,,,,,,,,,,,,,,,,,,,,,,,,,,,,,,,,,,,0,3,3,1,1,,,,,,,,,,,,,,,,,,,,,,,,,,,,,,,,,,,,,,,,,,,,,,
027882,001,2022-11-20_17h49.59.116,Info_measure_main_exp,2022.2.2,Win32,74.96251874,,,,,,,,,,,,,,,,,,masks/mask_003.jpg,,,,,,,,,,,,,,,,,,,,,,,,,,,,,,,,,,,,,,,,,,0,4,4,2,1,,,,,,,,,,,,,,,,,,,,,,,,,,,,,,,,,,,,,,,,,,,,,,
027882,001,2022-11-20_17h49.59.116,Info_measure_main_exp,2022.2.2,Win32,74.96251874,,,,,,,,,,,,,,,,,,masks/mask_001.jpg,,,,,,,,,,,,,,,,,,,,,,,,,,,,,,,,,,,,,,,,,,,,,,,0,0,0,0,1,,,,,,,,,,,,,,,,,,,,,,,,,,,,,,,,,,,,,,,,,
027882,001,2022-11-20_17h49.59.116,Info_measure_main_exp,2022.2.2,Win32,74.96251874,,,,,,,,,,,,,,,,,,masks/mask_004.jpg,,,,,,,,,,,,,,,,,,,,,,,,,,,,,,,,,,,,,,,,,,,,,,,0,1,1,3,1,,,,,,,,,,,,,,,,,,,,,,,,,,,,,,,,,,,,,,,,,
027882,001,2022-11-20_17h49.59.116,Info_measure_main_exp,2022.2.2,Win32,74.96251874,,,,,,,,,,,,,,,,,,masks/mask_005.jpg,,,,,,,,,,,,,,,,,,,,,,,,,,,,,,,,,,,,,,,,,,,,,,,0,2,2,4,1,,,,,,,,,,,,,,,,,,,,,,,,,,,,,,,,,,,,,,,,,
027882,001,2022-11-20_17h49.59.116,Info_measure_main_exp,2022.2.2,Win32,74.96251874,,,,,,,,,,,,,,,,,,masks/mask_003.jpg,,,,,,,,,,,,,,,,,,,,,,,,,,,,,,,,,,,,,,,,,,,,,,,0,3,3,2,1,,,,,,,,,,,,,,,,,,,,,,,,,,,,,,,,,,,,,,,,,
027882,001,2022-11-20_17h49.59.116,Info_measure_main_exp,2022.2.2,Win32,74.96251874,,,,,,,,,,,,,,,,,,masks/mask_002.jpg,,,,,,,,,,,,,,,,,,,,,,,,,,,,,,,,,,,,,,,,,,,,,,,0,4,4,1,1,,,,,,,,,,,,,,,,,,,,,,,,,,,,,,,,,,,,,,,,,
027882,001,2022-11-20_17h49.59.116,Info_measure_main_exp,2022.2.2,Win32,74.96251874,,,,,,,,,,,,,,,,,,,,,,,,,,,,,,6,1.6673,1,,,,,,,,,,,,0,131,5,5,2082,2166,absent_patch/patch0002082.jpg,absent_patch/patch0002166.jpg,,,,,,,,,,,,,,,,,,,0.142592593,0.04537037,1,0,0,response1disk,4,-0.006481481,0.003703704,1,0,0,center_square,0,3,3,43,1,,,,,,,,,,,,,,,,,,,,,,,
027882,001,2022-11-20_17h49.59.116,Info_measure_main_exp,2022.2.2,Win32,74.96251874,,,,,,,,,,,,,,,,,,masks/mask_003.jpg,,,,,,,,,,,,,,,,,,,,,,,,,,,,,,,,,,,,,,,,,,0,0,0,2,1,,,,,,,,,,,,,,,,,,,,,,,,,,,,,,,,,,,,,,,,,,,,,,
027882,001,2022-11-20_17h49.59.116,Info_measure_main_exp,2022.2.2,Win32,74.96251874,,,,,,,,,,,,,,,,,,masks/mask_001.jpg,,,,,,,,,,,,,,,,,,,,,,,,,,,,,,,,,,,,,,,,,,0,1,1,0,1,,,,,,,,,,,,,,,,,,,,,,,,,,,,,,,,,,,,,,,,,,,,,,
027882,001,2022-11-20_17h49.59.116,Info_measure_main_exp,2022.2.2,Win32,74.96251874,,,,,,,,,,,,,,,,,,masks/mask_004.jpg,,,,,,,,,,,,,,,,,,,,,,,,,,,,,,,,,,,,,,,,,,0,2,2,3,1,,,,,,,,,,,,,,,,,,,,,,,,,,,,,,,,,,,,,,,,,,,,,,
027882,001,2022-11-20_17h49.59.116,Info_measure_main_exp,2022.2.2,Win32,74.96251874,,,,,,,,,,,,,,,,,,masks/mask_005.jpg,,,,,,,,,,,,,,,,,,,,,,,,,,,,,,,,,,,,,,,,,,0,3,3,4,1,,,,,,,,,,,,,,,,,,,,,,,,,,,,,,,,,,,,,,,,,,,,,,
027882,001,2022-11-20_17h49.59.116,Info_measure_main_exp,2022.2.2,Win32,74.96251874,,,,,,,,,,,,,,,,,,masks/mask_002.jpg,,,,,,,,,,,,,,,,,,,,,,,,,,,,,,,,,,,,,,,,,,0,4,4,1,1,,,,,,,,,,,,,,,,,,,,,,,,,,,,,,,,,,,,,,,,,,,,,,
027882,001,2022-11-20_17h49.59.116,Info_measure_main_exp,2022.2.2,Win32,74.96251874,,,,,,,,,,,,,,,,,,masks/mask_001.jpg,,,,,,,,,,,,,,,,,,,,,,,,,,,,,,,,,,,,,,,,,,,,,,,0,0,0,0,1,,,,,,,,,,,,,,,,,,,,,,,,,,,,,,,,,,,,,,,,,
027882,001,2022-11-20_17h49.59.116,Info_measure_main_exp,2022.2.2,Win32,74.96251874,,,,,,,,,,,,,,,,,,masks/mask_003.jpg,,,,,,,,,,,,,,,,,,,,,,,,,,,,,,,,,,,,,,,,,,,,,,,0,1,1,2,1,,,,,,,,,,,,,,,,,,,,,,,,,,,,,,,,,,,,,,,,,
027882,001,2022-11-20_17h49.59.116,Info_measure_main_exp,2022.2.2,Win32,74.96251874,,,,,,,,,,,,,,,,,,masks/mask_002.jpg,,,,,,,,,,,,,,,,,,,,,,,,,,,,,,,,,,,,,,,,,,,,,,,0,2,2,1,1,,,,,,,,,,,,,,,,,,,,,,,,,,,,,,,,,,,,,,,,,
027882,001,2022-11-20_17h49.59.116,Info_measure_main_exp,2022.2.2,Win32,74.96251874,,,,,,,,,,,,,,,,,,masks/mask_005.jpg,,,,,,,,,,,,,,,,,,,,,,,,,,,,,,,,,,,,,,,,,,,,,,,0,3,3,4,1,,,,,,,,,,,,,,,,,,,,,,,,,,,,,,,,,,,,,,,,,
027882,001,2022-11-20_17h49.59.116,Info_measure_main_exp,2022.2.2,Win32,74.96251874,,,,,,,,,,,,,,,,,,masks/mask_004.jpg,,,,,,,,,,,,,,,,,,,,,,,,,,,,,,,,,,,,,,,,,,,,,,,0,4,4,3,1,,,,,,,,,,,,,,,,,,,,,,,,,,,,,,,,,,,,,,,,,
027882,001,2022-11-20_17h49.59.116,Info_measure_main_exp,2022.2.2,Win32,74.96251874,,,,,,,,,,,,,,,,,,,,,,,,,,,,,,0,1.0406,1,,,,,,,,,,,,0,131,5,5,2238,2238,absent_patch/patch0002238.jpg,absent_patch/patch0002238.jpg,,,,,,,,,,,,,,,,,,,-0.028703704,0.15,1,0,0,response7disk,5,0.000925926,0.002777778,1,0,0,center_square,0,4,4,58,1,,,,,,,,,,,,,,,,,,,,,,,
027882,001,2022-11-20_17h49.59.116,Info_measure_main_exp,2022.2.2,Win32,74.96251874,,,,,,,,,,,,,,,,,,masks/mask_004.jpg,,,,,,,,,,,,,,,,,,,,,,,,,,,,,,,,,,,,,,,,,,0,0,0,3,1,,,,,,,,,,,,,,,,,,,,,,,,,,,,,,,,,,,,,,,,,,,,,,
027882,001,2022-11-20_17h49.59.116,Info_measure_main_exp,2022.2.2,Win32,74.96251874,,,,,,,,,,,,,,,,,,masks/mask_002.jpg,,,,,,,,,,,,,,,,,,,,,,,,,,,,,,,,,,,,,,,,,,0,1,1,1,1,,,,,,,,,,,,,,,,,,,,,,,,,,,,,,,,,,,,,,,,,,,,,,
027882,001,2022-11-20_17h49.59.116,Info_measure_main_exp,2022.2.2,Win32,74.96251874,,,,,,,,,,,,,,,,,,masks/mask_003.jpg,,,,,,,,,,,,,,,,,,,,,,,,,,,,,,,,,,,,,,,,,,0,2,2,2,1,,,,,,,,,,,,,,,,,,,,,,,,,,,,,,,,,,,,,,,,,,,,,,
027882,001,2022-11-20_17h49.59.116,Info_measure_main_exp,2022.2.2,Win32,74.96251874,,,,,,,,,,,,,,,,,,masks/mask_005.jpg,,,,,,,,,,,,,,,,,,,,,,,,,,,,,,,,,,,,,,,,,,0,3,3,4,1,,,,,,,,,,,,,,,,,,,,,,,,,,,,,,,,,,,,,,,,,,,,,,
027882,001,2022-11-20_17h49.59.116,Info_measure_main_exp,2022.2.2,Win32,74.96251874,,,,,,,,,,,,,,,,,,masks/mask_001.jpg,,,,,,,,,,,,,,,,,,,,,,,,,,,,,,,,,,,,,,,,,,0,4,4,0,1,,,,,,,,,,,,,,,,,,,,,,,,,,,,,,,,,,,,,,,,,,,,,,
027882,001,2022-11-20_17h49.59.116,Info_measure_main_exp,2022.2.2,Win32,74.96251874,,,,,,,,,,,,,,,,,,masks/mask_004.jpg,,,,,,,,,,,,,,,,,,,,,,,,,,,,,,,,,,,,,,,,,,,,,,,0,0,0,3,1,,,,,,,,,,,,,,,,,,,,,,,,,,,,,,,,,,,,,,,,,
027882,001,2022-11-20_17h49.59.116,Info_measure_main_exp,2022.2.2,Win32,74.96251874,,,,,,,,,,,,,,,,,,masks/mask_002.jpg,,,,,,,,,,,,,,,,,,,,,,,,,,,,,,,,,,,,,,,,,,,,,,,0,1,1,1,1,,,,,,,,,,,,,,,,,,,,,,,,,,,,,,,,,,,,,,,,,
027882,001,2022-11-20_17h49.59.116,Info_measure_main_exp,2022.2.2,Win32,74.96251874,,,,,,,,,,,,,,,,,,masks/mask_005.jpg,,,,,,,,,,,,,,,,,,,,,,,,,,,,,,,,,,,,,,,,,,,,,,,0,2,2,4,1,,,,,,,,,,,,,,,,,,,,,,,,,,,,,,,,,,,,,,,,,
027882,001,2022-11-20_17h49.59.116,Info_measure_main_exp,2022.2.2,Win32,74.96251874,,,,,,,,,,,,,,,,,,masks/mask_001.jpg,,,,,,,,,,,,,,,,,,,,,,,,,,,,,,,,,,,,,,,,,,,,,,,0,3,3,0,1,,,,,,,,,,,,,,,,,,,,,,,,,,,,,,,,,,,,,,,,,
027882,001,2022-11-20_17h49.59.116,Info_measure_main_exp,2022.2.2,Win32,74.96251874,,,,,,,,,,,,,,,,,,masks/mask_003.jpg,,,,,,,,,,,,,,,,,,,,,,,,,,,,,,,,,,,,,,,,,,,,,,,0,4,4,2,1,,,,,,,,,,,,,,,,,,,,,,,,,,,,,,,,,,,,,,,,,
027882,001,2022-11-20_17h49.59.116,Info_measure_main_exp,2022.2.2,Win32,74.96251874,,,,,,,,,,,,,,,,,,,,,,,,,,,,,,4,1.2938,1,,,,,,,,,,,,1,131,5,5,2238,1,absent_patch/patch0002238.jpg,present_patch/cong_131_5_a.jpg,,,,,,,,,,,,,,,,,,,0.041666667,-0.163888889,1,0,0,response3disk,6,0.005555556,-0.002777778,1,0,0,center_square,0,5,5,104,1,,,,,,,,,,,,,,,,,,,,,,,
027882,001,2022-11-20_17h49.59.116,Info_measure_main_exp,2022.2.2,Win32,74.96251874,,,,,,,,,,,,,,,,,,masks/mask_001.jpg,,,,,,,,,,,,,,,,,,,,,,,,,,,,,,,,,,,,,,,,,,0,0,0,0,1,,,,,,,,,,,,,,,,,,,,,,,,,,,,,,,,,,,,,,,,,,,,,,
027882,001,2022-11-20_17h49.59.116,Info_measure_main_exp,2022.2.2,Win32,74.96251874,,,,,,,,,,,,,,,,,,masks/mask_003.jpg,,,,,,,,,,,,,,,,,,,,,,,,,,,,,,,,,,,,,,,,,,0,1,1,2,1,,,,,,,,,,,,,,,,,,,,,,,,,,,,,,,,,,,,,,,,,,,,,,
027882,001,2022-11-20_17h49.59.116,Info_measure_main_exp,2022.2.2,Win32,74.96251874,,,,,,,,,,,,,,,,,,masks/mask_002.jpg,,,,,,,,,,,,,,,,,,,,,,,,,,,,,,,,,,,,,,,,,,0,2,2,1,1,,,,,,,,,,,,,,,,,,,,,,,,,,,,,,,,,,,,,,,,,,,,,,
027882,001,2022-11-20_17h49.59.116,Info_measure_main_exp,2022.2.2,Win32,74.96251874,,,,,,,,,,,,,,,,,,masks/mask_005.jpg,,,,,,,,,,,,,,,,,,,,,,,,,,,,,,,,,,,,,,,,,,0,3,3,4,1,,,,,,,,,,,,,,,,,,,,,,,,,,,,,,,,,,,,,,,,,,,,,,
027882,001,2022-11-20_17h49.59.116,Info_measure_main_exp,2022.2.2,Win32,74.96251874,,,,,,,,,,,,,,,,,,masks/mask_004.jpg,,,,,,,,,,,,,,,,,,,,,,,,,,,,,,,,,,,,,,,,,,0,4,4,3,1,,,,,,,,,,,,,,,,,,,,,,,,,,,,,,,,,,,,,,,,,,,,,,
027882,001,2022-11-20_17h49.59.116,Info_measure_main_exp,2022.2.2,Win32,74.96251874,,,,,,,,,,,,,,,,,,masks/mask_002.jpg,,,,,,,,,,,,,,,,,,,,,,,,,,,,,,,,,,,,,,,,,,,,,,,0,0,0,1,1,,,,,,,,,,,,,,,,,,,,,,,,,,,,,,,,,,,,,,,,,
027882,001,2022-11-20_17h49.59.116,Info_measure_main_exp,2022.2.2,Win32,74.96251874,,,,,,,,,,,,,,,,,,masks/mask_003.jpg,,,,,,,,,,,,,,,,,,,,,,,,,,,,,,,,,,,,,,,,,,,,,,,0,1,1,2,1,,,,,,,,,,,,,,,,,,,,,,,,,,,,,,,,,,,,,,,,,
027882,001,2022-11-20_17h49.59.116,Info_measure_main_exp,2022.2.2,Win32,74.96251874,,,,,,,,,,,,,,,,,,masks/mask_004.jpg,,,,,,,,,,,,,,,,,,,,,,,,,,,,,,,,,,,,,,,,,,,,,,,0,2,2,3,1,,,,,,,,,,,,,,,,,,,,,,,,,,,,,,,,,,,,,,,,,
027882,001,2022-11-20_17h49.59.116,Info_measure_main_exp,2022.2.2,Win32,74.96251874,,,,,,,,,,,,,,,,,,masks/mask_005.jpg,,,,,,,,,,,,,,,,,,,,,,,,,,,,,,,,,,,,,,,,,,,,,,,0,3,3,4,1,,,,,,,,,,,,,,,,,,,,,,,,,,,,,,,,,,,,,,,,,
027882,001,2022-11-20_17h49.59.116,Info_measure_main_exp,2022.2.2,Win32,74.96251874,,,,,,,,,,,,,,,,,,masks/mask_001.jpg,,,,,,,,,,,,,,,,,,,,,,,,,,,,,,,,,,,,,,,,,,,,,,,0,4,4,0,1,,,,,,,,,,,,,,,,,,,,,,,,,,,,,,,,,,,,,,,,,
027882,001,2022-11-20_17h49.59.116,Info_measure_main_exp,2022.2.2,Win32,74.96251874,,,,,,,,,,,,,,,,,,,,,,,,,,,,,,7,1.2538,1,,,,,,,,,,,,0,131,5,5,2190,1974,absent_patch/patch0002190.jpg,absent_patch/patch0001974.jpg,,,,,,,,,,,,,,,,,,,0.046296296,0.165740741,1,0,0,response1disk,7,0.005555556,0.007407407,1,0,0,center_square,0,6,6,119,1,,,,,,,,,,,,,,,,,,,,,,,
027882,001,2022-11-20_17h49.59.116,Info_measure_main_exp,2022.2.2,Win32,74.96251874,,,,,,,,,,,,,,,,,,masks/mask_001.jpg,,,,,,,,,,,,,,,,,,,,,,,,,,,,,,,,,,,,,,,,,,0,0,0,0,1,,,,,,,,,,,,,,,,,,,,,,,,,,,,,,,,,,,,,,,,,,,,,,
027882,001,2022-11-20_17h49.59.116,Info_measure_main_exp,2022.2.2,Win32,74.96251874,,,,,,,,,,,,,,,,,,masks/mask_003.jpg,,,,,,,,,,,,,,,,,,,,,,,,,,,,,,,,,,,,,,,,,,0,1,1,2,1,,,,,,,,,,,,,,,,,,,,,,,,,,,,,,,,,,,,,,,,,,,,,,
027882,001,2022-11-20_17h49.59.116,Info_measure_main_exp,2022.2.2,Win32,74.96251874,,,,,,,,,,,,,,,,,,masks/mask_005.jpg,,,,,,,,,,,,,,,,,,,,,,,,,,,,,,,,,,,,,,,,,,0,2,2,4,1,,,,,,,,,,,,,,,,,,,,,,,,,,,,,,,,,,,,,,,,,,,,,,
027882,001,2022-11-20_17h49.59.116,Info_measure_main_exp,2022.2.2,Win32,74.96251874,,,,,,,,,,,,,,,,,,masks/mask_004.jpg,,,,,,,,,,,,,,,,,,,,,,,,,,,,,,,,,,,,,,,,,,0,3,3,3,1,,,,,,,,,,,,,,,,,,,,,,,,,,,,,,,,,,,,,,,,,,,,,,
027882,001,2022-11-20_17h49.59.116,Info_measure_main_exp,2022.2.2,Win32,74.96251874,,,,,,,,,,,,,,,,,,masks/mask_002.jpg,,,,,,,,,,,,,,,,,,,,,,,,,,,,,,,,,,,,,,,,,,0,4,4,1,1,,,,,,,,,,,,,,,,,,,,,,,,,,,,,,,,,,,,,,,,,,,,,,
027882,001,2022-11-20_17h49.59.116,Info_measure_main_exp,2022.2.2,Win32,74.96251874,,,,,,,,,,,,,,,,,,masks/mask_005.jpg,,,,,,,,,,,,,,,,,,,,,,,,,,,,,,,,,,,,,,,,,,,,,,,0,0,0,4,1,,,,,,,,,,,,,,,,,,,,,,,,,,,,,,,,,,,,,,,,,
027882,001,2022-11-20_17h49.59.116,Info_measure_main_exp,2022.2.2,Win32,74.96251874,,,,,,,,,,,,,,,,,,masks/mask_002.jpg,,,,,,,,,,,,,,,,,,,,,,,,,,,,,,,,,,,,,,,,,,,,,,,0,1,1,1,1,,,,,,,,,,,,,,,,,,,,,,,,,,,,,,,,,,,,,,,,,
027882,001,2022-11-20_17h49.59.116,Info_measure_main_exp,2022.2.2,Win32,74.96251874,,,,,,,,,,,,,,,,,,masks/mask_004.jpg,,,,,,,,,,,,,,,,,,,,,,,,,,,,,,,,,,,,,,,,,,,,,,,0,2,2,3,1,,,,,,,,,,,,,,,,,,,,,,,,,,,,,,,,,,,,,,,,,
027882,001,2022-11-20_17h49.59.116,Info_measure_main_exp,2022.2.2,Win32,74.96251874,,,,,,,,,,,,,,,,,,masks/mask_003.jpg,,,,,,,,,,,,,,,,,,,,,,,,,,,,,,,,,,,,,,,,,,,,,,,0,3,3,2,1,,,,,,,,,,,,,,,,,,,,,,,,,,,,,,,,,,,,,,,,,
027882,001,2022-11-20_17h49.59.116,Info_measure_main_exp,2022.2.2,Win32,74.96251874,,,,,,,,,,,,,,,,,,masks/mask_001.jpg,,,,,,,,,,,,,,,,,,,,,,,,,,,,,,,,,,,,,,,,,,,,,,,0,4,4,0,1,,,,,,,,,,,,,,,,,,,,,,,,,,,,,,,,,,,,,,,,,
027882,001,2022-11-20_17h49.59.116,Info_measure_main_exp,2022.2.2,Win32,74.96251874,,,,,,,,,,,,,,,,,,,,,,,,,,,,,,5,1.2539,1,,,,,,,,,,,,1,131,5,5,1,1986,present_patch/cong_131_5_a.jpg,absent_patch/patch0001986.jpg,,,,,,,,,,,,,,,,,,,0.115740741,-0.075925926,1,0,0,response3disk,8,-0.002777778,-0.00462963,1,0,0,center_square,0,7,7,106,1,,,,,,,,,,,,,,,,,,,,,,,
027882,001,2022-11-20_17h49.59.116,Info_measure_main_exp,2022.2.2,Win32,74.96251874,,,,,,,,,,,,,,,,,,masks/mask_003.jpg,,,,,,,,,,,,,,,,,,,,,,,,,,,,,,,,,,,,,,,,,,0,0,0,2,1,,,,,,,,,,,,,,,,,,,,,,,,,,,,,,,,,,,,,,,,,,,,,,
027882,001,2022-11-20_17h49.59.116,Info_measure_main_exp,2022.2.2,Win32,74.96251874,,,,,,,,,,,,,,,,,,masks/mask_004.jpg,,,,,,,,,,,,,,,,,,,,,,,,,,,,,,,,,,,,,,,,,,0,1,1,3,1,,,,,,,,,,,,,,,,,,,,,,,,,,,,,,,,,,,,,,,,,,,,,,
027882,001,2022-11-20_17h49.59.116,Info_measure_main_exp,2022.2.2,Win32,74.96251874,,,,,,,,,,,,,,,,,,masks/mask_002.jpg,,,,,,,,,,,,,,,,,,,,,,,,,,,,,,,,,,,,,,,,,,0,2,2,1,1,,,,,,,,,,,,,,,,,,,,,,,,,,,,,,,,,,,,,,,,,,,,,,
027882,001,2022-11-20_17h49.59.116,Info_measure_main_exp,2022.2.2,Win32,74.96251874,,,,,,,,,,,,,,,,,,masks/mask_001.jpg,,,,,,,,,,,,,,,,,,,,,,,,,,,,,,,,,,,,,,,,,,0,3,3,0,1,,,,,,,,,,,,,,,,,,,,,,,,,,,,,,,,,,,,,,,,,,,,,,
027882,001,2022-11-20_17h49.59.116,Info_measure_main_exp,2022.2.2,Win32,74.96251874,,,,,,,,,,,,,,,,,,masks/mask_005.jpg,,,,,,,,,,,,,,,,,,,,,,,,,,,,,,,,,,,,,,,,,,0,4,4,4,1,,,,,,,,,,,,,,,,,,,,,,,,,,,,,,,,,,,,,,,,,,,,,,
027882,001,2022-11-20_17h49.59.116,Info_measure_main_exp,2022.2.2,Win32,74.96251874,,,,,,,,,,,,,,,,,,masks/mask_005.jpg,,,,,,,,,,,,,,,,,,,,,,,,,,,,,,,,,,,,,,,,,,,,,,,0,0,0,4,1,,,,,,,,,,,,,,,,,,,,,,,,,,,,,,,,,,,,,,,,,
027882,001,2022-11-20_17h49.59.116,Info_measure_main_exp,2022.2.2,Win32,74.96251874,,,,,,,,,,,,,,,,,,masks/mask_004.jpg,,,,,,,,,,,,,,,,,,,,,,,,,,,,,,,,,,,,,,,,,,,,,,,0,1,1,3,1,,,,,,,,,,,,,,,,,,,,,,,,,,,,,,,,,,,,,,,,,
027882,001,2022-11-20_17h49.59.116,Info_measure_main_exp,2022.2.2,Win32,74.96251874,,,,,,,,,,,,,,,,,,masks/mask_001.jpg,,,,,,,,,,,,,,,,,,,,,,,,,,,,,,,,,,,,,,,,,,,,,,,0,2,2,0,1,,,,,,,,,,,,,,,,,,,,,,,,,,,,,,,,,,,,,,,,,
027882,001,2022-11-20_17h49.59.116,Info_measure_main_exp,2022.2.2,Win32,74.96251874,,,,,,,,,,,,,,,,,,masks/mask_002.jpg,,,,,,,,,,,,,,,,,,,,,,,,,,,,,,,,,,,,,,,,,,,,,,,0,3,3,1,1,,,,,,,,,,,,,,,,,,,,,,,,,,,,,,,,,,,,,,,,,
027882,001,2022-11-20_17h49.59.116,Info_measure_main_exp,2022.2.2,Win32,74.96251874,,,,,,,,,,,,,,,,,,masks/mask_003.jpg,,,,,,,,,,,,,,,,,,,,,,,,,,,,,,,,,,,,,,,,,,,,,,,0,4,4,2,1,,,,,,,,,,,,,,,,,,,,,,,,,,,,,,,,,,,,,,,,,
027882,001,2022-11-20_17h49.59.116,Info_measure_main_exp,2022.2.2,Win32,74.96251874,,,,,,,,,,,,,,,,,,,,,,,,,,,,,,4,1.2271,1,,,,,,,,,,,,0,131,5,5,2154,2238,absent_patch/patch0002154.jpg,absent_patch/patch0002238.jpg,,,,,,,,,,,,,,,,,,,0.023148148,-0.142592593,1,0,0,response3disk,9,-0.010185185,0.002777778,1,0,0,center_square,0,8,8,21,1,,,,,,,,,,,,,,,,,,,,,,,
027882,001,2022-11-20_17h49.59.116,Info_measure_main_exp,2022.2.2,Win32,74.96251874,,,,,,,,,,,,,,,,,,masks/mask_005.jpg,,,,,,,,,,,,,,,,,,,,,,,,,,,,,,,,,,,,,,,,,,0,0,0,4,1,,,,,,,,,,,,,,,,,,,,,,,,,,,,,,,,,,,,,,,,,,,,,,
027882,001,2022-11-20_17h49.59.116,Info_measure_main_exp,2022.2.2,Win32,74.96251874,,,,,,,,,,,,,,,,,,masks/mask_003.jpg,,,,,,,,,,,,,,,,,,,,,,,,,,,,,,,,,,,,,,,,,,0,1,1,2,1,,,,,,,,,,,,,,,,,,,,,,,,,,,,,,,,,,,,,,,,,,,,,,
027882,001,2022-11-20_17h49.59.116,Info_measure_main_exp,2022.2.2,Win32,74.96251874,,,,,,,,,,,,,,,,,,masks/mask_004.jpg,,,,,,,,,,,,,,,,,,,,,,,,,,,,,,,,,,,,,,,,,,0,2,2,3,1,,,,,,,,,,,,,,,,,,,,,,,,,,,,,,,,,,,,,,,,,,,,,,
027882,001,2022-11-20_17h49.59.116,Info_measure_main_exp,2022.2.2,Win32,74.96251874,,,,,,,,,,,,,,,,,,masks/mask_002.jpg,,,,,,,,,,,,,,,,,,,,,,,,,,,,,,,,,,,,,,,,,,0,3,3,1,1,,,,,,,,,,,,,,,,,,,,,,,,,,,,,,,,,,,,,,,,,,,,,,
027882,001,2022-11-20_17h49.59.116,Info_measure_main_exp,2022.2.2,Win32,74.96251874,,,,,,,,,,,,,,,,,,masks/mask_001.jpg,,,,,,,,,,,,,,,,,,,,,,,,,,,,,,,,,,,,,,,,,,0,4,4,0,1,,,,,,,,,,,,,,,,,,,,,,,,,,,,,,,,,,,,,,,,,,,,,,
027882,001,2022-11-20_17h49.59.116,Info_measure_main_exp,2022.2.2,Win32,74.96251874,,,,,,,,,,,,,,,,,,masks/mask_001.jpg,,,,,,,,,,,,,,,,,,,,,,,,,,,,,,,,,,,,,,,,,,,,,,,0,0,0,0,1,,,,,,,,,,,,,,,,,,,,,,,,,,,,,,,,,,,,,,,,,
027882,001,2022-11-20_17h49.59.116,Info_measure_main_exp,2022.2.2,Win32,74.96251874,,,,,,,,,,,,,,,,,,masks/mask_003.jpg,,,,,,,,,,,,,,,,,,,,,,,,,,,,,,,,,,,,,,,,,,,,,,,0,1,1,2,1,,,,,,,,,,,,,,,,,,,,,,,,,,,,,,,,,,,,,,,,,
027882,001,2022-11-20_17h49.59.116,Info_measure_main_exp,2022.2.2,Win32,74.96251874,,,,,,,,,,,,,,,,,,masks/mask_004.jpg,,,,,,,,,,,,,,,,,,,,,,,,,,,,,,,,,,,,,,,,,,,,,,,0,2,2,3,1,,,,,,,,,,,,,,,,,,,,,,,,,,,,,,,,,,,,,,,,,
027882,001,2022-11-20_17h49.59.116,Info_measure_main_exp,2022.2.2,Win32,74.96251874,,,,,,,,,,,,,,,,,,masks/mask_005.jpg,,,,,,,,,,,,,,,,,,,,,,,,,,,,,,,,,,,,,,,,,,,,,,,0,3,3,4,1,,,,,,,,,,,,,,,,,,,,,,,,,,,,,,,,,,,,,,,,,
027882,001,2022-11-20_17h49.59.116,Info_measure_main_exp,2022.2.2,Win32,74.96251874,,,,,,,,,,,,,,,,,,masks/mask_002.jpg,,,,,,,,,,,,,,,,,,,,,,,,,,,,,,,,,,,,,,,,,,,,,,,0,4,4,1,1,,,,,,,,,,,,,,,,,,,,,,,,,,,,,,,,,,,,,,,,,
027882,001,2022-11-20_17h49.59.116,Info_measure_main_exp,2022.2.2,Win32,74.96251874,,,,,,,,,,,,,,,,,,,,,,,,,,,,,,6,0.8936,1,,,,,,,,,,,,0,131,5,5,1950,2298,absent_patch/patch0001950.jpg,absent_patch/patch0002298.jpg,,,,,,,,,,,,,,,,,,,0.17962963,0.056481481,1,0,0,response1disk,10,-0.008333333,0.002777778,1,0,0,center_square,0,9,9,18,1,,,,,,,,,,,,,,,,,,,,,,,
027882,001,2022-11-20_17h49.59.116,Info_measure_main_exp,2022.2.2,Win32,74.96251874,,,,,,,,,,,,,,,,,,masks/mask_002.jpg,,,,,,,,,,,,,,,,,,,,,,,,,,,,,,,,,,,,,,,,,,0,0,0,1,1,,,,,,,,,,,,,,,,,,,,,,,,,,,,,,,,,,,,,,,,,,,,,,
027882,001,2022-11-20_17h49.59.116,Info_measure_main_exp,2022.2.2,Win32,74.96251874,,,,,,,,,,,,,,,,,,masks/mask_004.jpg,,,,,,,,,,,,,,,,,,,,,,,,,,,,,,,,,,,,,,,,,,0,1,1,3,1,,,,,,,,,,,,,,,,,,,,,,,,,,,,,,,,,,,,,,,,,,,,,,
027882,001,2022-11-20_17h49.59.116,Info_measure_main_exp,2022.2.2,Win32,74.96251874,,,,,,,,,,,,,,,,,,masks/mask_001.jpg,,,,,,,,,,,,,,,,,,,,,,,,,,,,,,,,,,,,,,,,,,0,2,2,0,1,,,,,,,,,,,,,,,,,,,,,,,,,,,,,,,,,,,,,,,,,,,,,,
027882,001,2022-11-20_17h49.59.116,Info_measure_main_exp,2022.2.2,Win32,74.96251874,,,,,,,,,,,,,,,,,,masks/mask_003.jpg,,,,,,,,,,,,,,,,,,,,,,,,,,,,,,,,,,,,,,,,,,0,3,3,2,1,,,,,,,,,,,,,,,,,,,,,,,,,,,,,,,,,,,,,,,,,,,,,,
027882,001,2022-11-20_17h49.59.116,Info_measure_main_exp,2022.2.2,Win32,74.96251874,,,,,,,,,,,,,,,,,,masks/mask_005.jpg,,,,,,,,,,,,,,,,,,,,,,,,,,,,,,,,,,,,,,,,,,0,4,4,4,1,,,,,,,,,,,,,,,,,,,,,,,,,,,,,,,,,,,,,,,,,,,,,,
027882,001,2022-11-20_17h49.59.116,Info_measure_main_exp,2022.2.2,Win32,74.96251874,,,,,,,,,,,,,,,,,,masks/mask_001.jpg,,,,,,,,,,,,,,,,,,,,,,,,,,,,,,,,,,,,,,,,,,,,,,,0,0,0,0,1,,,,,,,,,,,,,,,,,,,,,,,,,,,,,,,,,,,,,,,,,
027882,001,2022-11-20_17h49.59.116,Info_measure_main_exp,2022.2.2,Win32,74.96251874,,,,,,,,,,,,,,,,,,masks/mask_002.jpg,,,,,,,,,,,,,,,,,,,,,,,,,,,,,,,,,,,,,,,,,,,,,,,0,1,1,1,1,,,,,,,,,,,,,,,,,,,,,,,,,,,,,,,,,,,,,,,,,
027882,001,2022-11-20_17h49.59.116,Info_measure_main_exp,2022.2.2,Win32,74.96251874,,,,,,,,,,,,,,,,,,masks/mask_005.jpg,,,,,,,,,,,,,,,,,,,,,,,,,,,,,,,,,,,,,,,,,,,,,,,0,2,2,4,1,,,,,,,,,,,,,,,,,,,,,,,,,,,,,,,,,,,,,,,,,
027882,001,2022-11-20_17h49.59.116,Info_measure_main_exp,2022.2.2,Win32,74.96251874,,,,,,,,,,,,,,,,,,masks/mask_004.jpg,,,,,,,,,,,,,,,,,,,,,,,,,,,,,,,,,,,,,,,,,,,,,,,0,3,3,3,1,,,,,,,,,,,,,,,,,,,,,,,,,,,,,,,,,,,,,,,,,
027882,001,2022-11-20_17h49.59.116,Info_measure_main_exp,2022.2.2,Win32,74.96251874,,,,,,,,,,,,,,,,,,masks/mask_003.jpg,,,,,,,,,,,,,,,,,,,,,,,,,,,,,,,,,,,,,,,,,,,,,,,0,4,4,2,1,,,,,,,,,,,,,,,,,,,,,,,,,,,,,,,,,,,,,,,,,
027882,001,2022-11-20_17h49.59.116,Info_measure_main_exp,2022.2.2,Win32,74.96251874,,,,,,,,,,,,,,,,,,,,,,,,,,,,,,7,0.7738,1,,,,,,,,,,,,0,131,5,5,2190,1986,absent_patch/patch0002190.jpg,absent_patch/patch0001986.jpg,,,,,,,,,,,,,,,,,,,0.087037037,0.164814815,1,0,0,response1disk,11,0.007407407,0.005555556,1,0,0,center_square,0,10,10,111,1,,,,,,,,,,,,,,,,,,,,,,,
027882,001,2022-11-20_17h49.59.116,Info_measure_main_exp,2022.2.2,Win32,74.96251874,,,,,,,,,,,,,,,,,,masks/mask_004.jpg,,,,,,,,,,,,,,,,,,,,,,,,,,,,,,,,,,,,,,,,,,0,0,0,3,1,,,,,,,,,,,,,,,,,,,,,,,,,,,,,,,,,,,,,,,,,,,,,,
027882,001,2022-11-20_17h49.59.116,Info_measure_main_exp,2022.2.2,Win32,74.96251874,,,,,,,,,,,,,,,,,,masks/mask_003.jpg,,,,,,,,,,,,,,,,,,,,,,,,,,,,,,,,,,,,,,,,,,0,1,1,2,1,,,,,,,,,,,,,,,,,,,,,,,,,,,,,,,,,,,,,,,,,,,,,,
027882,001,2022-11-20_17h49.59.116,Info_measure_main_exp,2022.2.2,Win32,74.96251874,,,,,,,,,,,,,,,,,,masks/mask_001.jpg,,,,,,,,,,,,,,,,,,,,,,,,,,,,,,,,,,,,,,,,,,0,2,2,0,1,,,,,,,,,,,,,,,,,,,,,,,,,,,,,,,,,,,,,,,,,,,,,,
027882,001,2022-11-20_17h49.59.116,Info_measure_main_exp,2022.2.2,Win32,74.96251874,,,,,,,,,,,,,,,,,,masks/mask_005.jpg,,,,,,,,,,,,,,,,,,,,,,,,,,,,,,,,,,,,,,,,,,0,3,3,4,1,,,,,,,,,,,,,,,,,,,,,,,,,,,,,,,,,,,,,,,,,,,,,,
027882,001,2022-11-20_17h49.59.116,Info_measure_main_exp,2022.2.2,Win32,74.96251874,,,,,,,,,,,,,,,,,,masks/mask_002.jpg,,,,,,,,,,,,,,,,,,,,,,,,,,,,,,,,,,,,,,,,,,0,4,4,1,1,,,,,,,,,,,,,,,,,,,,,,,,,,,,,,,,,,,,,,,,,,,,,,
027882,001,2022-11-20_17h49.59.116,Info_measure_main_exp,2022.2.2,Win32,74.96251874,,,,,,,,,,,,,,,,,,masks/mask_004.jpg,,,,,,,,,,,,,,,,,,,,,,,,,,,,,,,,,,,,,,,,,,,,,,,0,0,0,3,1,,,,,,,,,,,,,,,,,,,,,,,,,,,,,,,,,,,,,,,,,
027882,001,2022-11-20_17h49.59.116,Info_measure_main_exp,2022.2.2,Win32,74.96251874,,,,,,,,,,,,,,,,,,masks/mask_005.jpg,,,,,,,,,,,,,,,,,,,,,,,,,,,,,,,,,,,,,,,,,,,,,,,0,1,1,4,1,,,,,,,,,,,,,,,,,,,,,,,,,,,,,,,,,,,,,,,,,
027882,001,2022-11-20_17h49.59.116,Info_measure_main_exp,2022.2.2,Win32,74.96251874,,,,,,,,,,,,,,,,,,masks/mask_001.jpg,,,,,,,,,,,,,,,,,,,,,,,,,,,,,,,,,,,,,,,,,,,,,,,0,2,2,0,1,,,,,,,,,,,,,,,,,,,,,,,,,,,,,,,,,,,,,,,,,
027882,001,2022-11-20_17h49.59.116,Info_measure_main_exp,2022.2.2,Win32,74.96251874,,,,,,,,,,,,,,,,,,masks/mask_002.jpg,,,,,,,,,,,,,,,,,,,,,,,,,,,,,,,,,,,,,,,,,,,,,,,0,3,3,1,1,,,,,,,,,,,,,,,,,,,,,,,,,,,,,,,,,,,,,,,,,
027882,001,2022-11-20_17h49.59.116,Info_measure_main_exp,2022.2.2,Win32,74.96251874,,,,,,,,,,,,,,,,,,masks/mask_003.jpg,,,,,,,,,,,,,,,,,,,,,,,,,,,,,,,,,,,,,,,,,,,,,,,0,4,4,2,1,,,,,,,,,,,,,,,,,,,,,,,,,,,,,,,,,,,,,,,,,
027882,001,2022-11-20_17h49.59.116,Info_measure_main_exp,2022.2.2,Win32,74.96251874,,,,,,,,,,,,,,,,,,,,,,,,,,,,,,0,0.7464,1,,,,,,,,,,,,0,131,5,5,2190,2190,absent_patch/patch0002190.jpg,absent_patch/patch0002190.jpg,,,,,,,,,,,,,,,,,,,-0.064814815,0.149074074,1,0,0,response7disk,12,0.00462963,-0.007407407,1,0,0,center_square,0,11,11,86,1,,,,,,,,,,,,,,,,,,,,,,,
027882,001,2022-11-20_17h49.59.116,Info_measure_main_exp,2022.2.2,Win32,74.96251874,,,,,,,,,,,,,,,,,,masks/mask_005.jpg,,,,,,,,,,,,,,,,,,,,,,,,,,,,,,,,,,,,,,,,,,0,0,0,4,1,,,,,,,,,,,,,,,,,,,,,,,,,,,,,,,,,,,,,,,,,,,,,,
027882,001,2022-11-20_17h49.59.116,Info_measure_main_exp,2022.2.2,Win32,74.96251874,,,,,,,,,,,,,,,,,,masks/mask_002.jpg,,,,,,,,,,,,,,,,,,,,,,,,,,,,,,,,,,,,,,,,,,0,1,1,1,1,,,,,,,,,,,,,,,,,,,,,,,,,,,,,,,,,,,,,,,,,,,,,,
027882,001,2022-11-20_17h49.59.116,Info_measure_main_exp,2022.2.2,Win32,74.96251874,,,,,,,,,,,,,,,,,,masks/mask_001.jpg,,,,,,,,,,,,,,,,,,,,,,,,,,,,,,,,,,,,,,,,,,0,2,2,0,1,,,,,,,,,,,,,,,,,,,,,,,,,,,,,,,,,,,,,,,,,,,,,,
027882,001,2022-11-20_17h49.59.116,Info_measure_main_exp,2022.2.2,Win32,74.96251874,,,,,,,,,,,,,,,,,,masks/mask_003.jpg,,,,,,,,,,,,,,,,,,,,,,,,,,,,,,,,,,,,,,,,,,0,3,3,2,1,,,,,,,,,,,,,,,,,,,,,,,,,,,,,,,,,,,,,,,,,,,,,,
027882,001,2022-11-20_17h49.59.116,Info_measure_main_exp,2022.2.2,Win32,74.96251874,,,,,,,,,,,,,,,,,,masks/mask_004.jpg,,,,,,,,,,,,,,,,,,,,,,,,,,,,,,,,,,,,,,,,,,0,4,4,3,1,,,,,,,,,,,,,,,,,,,,,,,,,,,,,,,,,,,,,,,,,,,,,,
027882,001,2022-11-20_17h49.59.116,Info_measure_main_exp,2022.2.2,Win32,74.96251874,,,,,,,,,,,,,,,,,,masks/mask_002.jpg,,,,,,,,,,,,,,,,,,,,,,,,,,,,,,,,,,,,,,,,,,,,,,,0,0,0,1,1,,,,,,,,,,,,,,,,,,,,,,,,,,,,,,,,,,,,,,,,,
027882,001,2022-11-20_17h49.59.116,Info_measure_main_exp,2022.2.2,Win32,74.96251874,,,,,,,,,,,,,,,,,,masks/mask_005.jpg,,,,,,,,,,,,,,,,,,,,,,,,,,,,,,,,,,,,,,,,,,,,,,,0,1,1,4,1,,,,,,,,,,,,,,,,,,,,,,,,,,,,,,,,,,,,,,,,,
027882,001,2022-11-20_17h49.59.116,Info_measure_main_exp,2022.2.2,Win32,74.96251874,,,,,,,,,,,,,,,,,,masks/mask_003.jpg,,,,,,,,,,,,,,,,,,,,,,,,,,,,,,,,,,,,,,,,,,,,,,,0,2,2,2,1,,,,,,,,,,,,,,,,,,,,,,,,,,,,,,,,,,,,,,,,,
027882,001,2022-11-20_17h49.59.116,Info_measure_main_exp,2022.2.2,Win32,74.96251874,,,,,,,,,,,,,,,,,,masks/mask_001.jpg,,,,,,,,,,,,,,,,,,,,,,,,,,,,,,,,,,,,,,,,,,,,,,,0,3,3,0,1,,,,,,,,,,,,,,,,,,,,,,,,,,,,,,,,,,,,,,,,,
027882,001,2022-11-20_17h49.59.116,Info_measure_main_exp,2022.2.2,Win32,74.96251874,,,,,,,,,,,,,,,,,,masks/mask_004.jpg,,,,,,,,,,,,,,,,,,,,,,,,,,,,,,,,,,,,,,,,,,,,,,,0,4,4,3,1,,,,,,,,,,,,,,,,,,,,,,,,,,,,,,,,,,,,,,,,,
027882,001,2022-11-20_17h49.59.116,Info_measure_main_exp,2022.2.2,Win32,74.96251874,,,,,,,,,,,,,,,,,,,,,,,,,,,,,,1,2.521,1,,,,,,,,,,,,0,131,5,5,2082,2154,absent_patch/patch0002082.jpg,absent_patch/patch0002154.jpg,,,,,,,,,,,,,,,,,,,-0.044444444,0.026851852,1,0,0,response7disk,13,-0.015740741,-0.001851852,1,0,0,center_square,0,12,12,33,1,,,,,,,,,,,,,,,,,,,,,,,
027882,001,2022-11-20_17h49.59.116,Info_measure_main_exp,2022.2.2,Win32,74.96251874,,,,,,,,,,,,,,,,,,masks/mask_005.jpg,,,,,,,,,,,,,,,,,,,,,,,,,,,,,,,,,,,,,,,,,,0,0,0,4,1,,,,,,,,,,,,,,,,,,,,,,,,,,,,,,,,,,,,,,,,,,,,,,
027882,001,2022-11-20_17h49.59.116,Info_measure_main_exp,2022.2.2,Win32,74.96251874,,,,,,,,,,,,,,,,,,masks/mask_001.jpg,,,,,,,,,,,,,,,,,,,,,,,,,,,,,,,,,,,,,,,,,,0,1,1,0,1,,,,,,,,,,,,,,,,,,,,,,,,,,,,,,,,,,,,,,,,,,,,,,
027882,001,2022-11-20_17h49.59.116,Info_measure_main_exp,2022.2.2,Win32,74.96251874,,,,,,,,,,,,,,,,,,masks/mask_004.jpg,,,,,,,,,,,,,,,,,,,,,,,,,,,,,,,,,,,,,,,,,,0,2,2,3,1,,,,,,,,,,,,,,,,,,,,,,,,,,,,,,,,,,,,,,,,,,,,,,
027882,001,2022-11-20_17h49.59.116,Info_measure_main_exp,2022.2.2,Win32,74.96251874,,,,,,,,,,,,,,,,,,masks/mask_003.jpg,,,,,,,,,,,,,,,,,,,,,,,,,,,,,,,,,,,,,,,,,,0,3,3,2,1,,,,,,,,,,,,,,,,,,,,,,,,,,,,,,,,,,,,,,,,,,,,,,
027882,001,2022-11-20_17h49.59.116,Info_measure_main_exp,2022.2.2,Win32,74.96251874,,,,,,,,,,,,,,,,,,masks/mask_002.jpg,,,,,,,,,,,,,,,,,,,,,,,,,,,,,,,,,,,,,,,,,,0,4,4,1,1,,,,,,,,,,,,,,,,,,,,,,,,,,,,,,,,,,,,,,,,,,,,,,
027882,001,2022-11-20_17h49.59.116,Info_measure_main_exp,2022.2.2,Win32,74.96251874,,,,,,,,,,,,,,,,,,masks/mask_005.jpg,,,,,,,,,,,,,,,,,,,,,,,,,,,,,,,,,,,,,,,,,,,,,,,0,0,0,4,1,,,,,,,,,,,,,,,,,,,,,,,,,,,,,,,,,,,,,,,,,
027882,001,2022-11-20_17h49.59.116,Info_measure_main_exp,2022.2.2,Win32,74.96251874,,,,,,,,,,,,,,,,,,masks/mask_003.jpg,,,,,,,,,,,,,,,,,,,,,,,,,,,,,,,,,,,,,,,,,,,,,,,0,1,1,2,1,,,,,,,,,,,,,,,,,,,,,,,,,,,,,,,,,,,,,,,,,
027882,001,2022-11-20_17h49.59.116,Info_measure_main_exp,2022.2.2,Win32,74.96251874,,,,,,,,,,,,,,,,,,masks/mask_002.jpg,,,,,,,,,,,,,,,,,,,,,,,,,,,,,,,,,,,,,,,,,,,,,,,0,2,2,1,1,,,,,,,,,,,,,,,,,,,,,,,,,,,,,,,,,,,,,,,,,
027882,001,2022-11-20_17h49.59.116,Info_measure_main_exp,2022.2.2,Win32,74.96251874,,,,,,,,,,,,,,,,,,masks/mask_001.jpg,,,,,,,,,,,,,,,,,,,,,,,,,,,,,,,,,,,,,,,,,,,,,,,0,3,3,0,1,,,,,,,,,,,,,,,,,,,,,,,,,,,,,,,,,,,,,,,,,
027882,001,2022-11-20_17h49.59.116,Info_measure_main_exp,2022.2.2,Win32,74.96251874,,,,,,,,,,,,,,,,,,masks/mask_004.jpg,,,,,,,,,,,,,,,,,,,,,,,,,,,,,,,,,,,,,,,,,,,,,,,0,4,4,3,1,,,,,,,,,,,,,,,,,,,,,,,,,,,,,,,,,,,,,,,,,
027882,001,2022-11-20_17h49.59.116,Info_measure_main_exp,2022.2.2,Win32,74.96251874,,,,,,,,,,,,,,,,,,,,,,,,,,,,,,0,0.6802,1,,,,,,,,,,,,0,131,5,5,1950,1950,absent_patch/patch0001950.jpg,absent_patch/patch0001950.jpg,,,,,,,,,,,,,,,,,,,-0.058333333,0.148148148,1,0,0,response7disk,14,-0.000925926,0.00462963,1,0,0,center_square,0,13,13,92,1,,,,,,,,,,,,,,,,,,,,,,,
027882,001,2022-11-20_17h49.59.116,Info_measure_main_exp,2022.2.2,Win32,74.96251874,,,,,,,,,,,,,,,,,,masks/mask_001.jpg,,,,,,,,,,,,,,,,,,,,,,,,,,,,,,,,,,,,,,,,,,0,0,0,0,1,,,,,,,,,,,,,,,,,,,,,,,,,,,,,,,,,,,,,,,,,,,,,,
027882,001,2022-11-20_17h49.59.116,Info_measure_main_exp,2022.2.2,Win32,74.96251874,,,,,,,,,,,,,,,,,,masks/mask_003.jpg,,,,,,,,,,,,,,,,,,,,,,,,,,,,,,,,,,,,,,,,,,0,1,1,2,1,,,,,,,,,,,,,,,,,,,,,,,,,,,,,,,,,,,,,,,,,,,,,,
027882,001,2022-11-20_17h49.59.116,Info_measure_main_exp,2022.2.2,Win32,74.96251874,,,,,,,,,,,,,,,,,,masks/mask_005.jpg,,,,,,,,,,,,,,,,,,,,,,,,,,,,,,,,,,,,,,,,,,0,2,2,4,1,,,,,,,,,,,,,,,,,,,,,,,,,,,,,,,,,,,,,,,,,,,,,,
027882,001,2022-11-20_17h49.59.116,Info_measure_main_exp,2022.2.2,Win32,74.96251874,,,,,,,,,,,,,,,,,,masks/mask_002.jpg,,,,,,,,,,,,,,,,,,,,,,,,,,,,,,,,,,,,,,,,,,0,3,3,1,1,,,,,,,,,,,,,,,,,,,,,,,,,,,,,,,,,,,,,,,,,,,,,,
027882,001,2022-11-20_17h49.59.116,Info_measure_main_exp,2022.2.2,Win32,74.96251874,,,,,,,,,,,,,,,,,,masks/mask_004.jpg,,,,,,,,,,,,,,,,,,,,,,,,,,,,,,,,,,,,,,,,,,0,4,4,3,1,,,,,,,,,,,,,,,,,,,,,,,,,,,,,,,,,,,,,,,,,,,,,,
027882,001,2022-11-20_17h49.59.116,Info_measure_main_exp,2022.2.2,Win32,74.96251874,,,,,,,,,,,,,,,,,,masks/mask_004.jpg,,,,,,,,,,,,,,,,,,,,,,,,,,,,,,,,,,,,,,,,,,,,,,,0,0,0,3,1,,,,,,,,,,,,,,,,,,,,,,,,,,,,,,,,,,,,,,,,,
027882,001,2022-11-20_17h49.59.116,Info_measure_main_exp,2022.2.2,Win32,74.96251874,,,,,,,,,,,,,,,,,,masks/mask_002.jpg,,,,,,,,,,,,,,,,,,,,,,,,,,,,,,,,,,,,,,,,,,,,,,,0,1,1,1,1,,,,,,,,,,,,,,,,,,,,,,,,,,,,,,,,,,,,,,,,,
027882,001,2022-11-20_17h49.59.116,Info_measure_main_exp,2022.2.2,Win32,74.96251874,,,,,,,,,,,,,,,,,,masks/mask_001.jpg,,,,,,,,,,,,,,,,,,,,,,,,,,,,,,,,,,,,,,,,,,,,,,,0,2,2,0,1,,,,,,,,,,,,,,,,,,,,,,,,,,,,,,,,,,,,,,,,,
027882,001,2022-11-20_17h49.59.116,Info_measure_main_exp,2022.2.2,Win32,74.96251874,,,,,,,,,,,,,,,,,,masks/mask_005.jpg,,,,,,,,,,,,,,,,,,,,,,,,,,,,,,,,,,,,,,,,,,,,,,,0,3,3,4,1,,,,,,,,,,,,,,,,,,,,,,,,,,,,,,,,,,,,,,,,,
027882,001,2022-11-20_17h49.59.116,Info_measure_main_exp,2022.2.2,Win32,74.96251874,,,,,,,,,,,,,,,,,,masks/mask_003.jpg,,,,,,,,,,,,,,,,,,,,,,,,,,,,,,,,,,,,,,,,,,,,,,,0,4,4,2,1,,,,,,,,,,,,,,,,,,,,,,,,,,,,,,,,,,,,,,,,,
027882,001,2022-11-20_17h49.59.116,Info_measure_main_exp,2022.2.2,Win32,74.96251874,,,,,,,,,,,,,,,,,,,,,,,,,,,,,,7,0.8002,1,,,,,,,,,,,,0,131,5,5,1974,2298,absent_patch/patch0001974.jpg,absent_patch/patch0002298.jpg,,,,,,,,,,,,,,,,,,,0.086111111,0.132407407,1,0,0,response1disk,15,0.003703704,0.012037037,1,0,0,center_square,0,14,14,6,1,,,,,,,,,,,,,,,,,,,,,,,
027882,001,2022-11-20_17h49.59.116,Info_measure_main_exp,2022.2.2,Win32,74.96251874,,,,,,,,,,,,,,,,,,masks/mask_001.jpg,,,,,,,,,,,,,,,,,,,,,,,,,,,,,,,,,,,,,,,,,,0,0,0,0,1,,,,,,,,,,,,,,,,,,,,,,,,,,,,,,,,,,,,,,,,,,,,,,
027882,001,2022-11-20_17h49.59.116,Info_measure_main_exp,2022.2.2,Win32,74.96251874,,,,,,,,,,,,,,,,,,masks/mask_003.jpg,,,,,,,,,,,,,,,,,,,,,,,,,,,,,,,,,,,,,,,,,,0,1,1,2,1,,,,,,,,,,,,,,,,,,,,,,,,,,,,,,,,,,,,,,,,,,,,,,
027882,001,2022-11-20_17h49.59.116,Info_measure_main_exp,2022.2.2,Win32,74.96251874,,,,,,,,,,,,,,,,,,masks/mask_005.jpg,,,,,,,,,,,,,,,,,,,,,,,,,,,,,,,,,,,,,,,,,,0,2,2,4,1,,,,,,,,,,,,,,,,,,,,,,,,,,,,,,,,,,,,,,,,,,,,,,
027882,001,2022-11-20_17h49.59.116,Info_measure_main_exp,2022.2.2,Win32,74.96251874,,,,,,,,,,,,,,,,,,masks/mask_002.jpg,,,,,,,,,,,,,,,,,,,,,,,,,,,,,,,,,,,,,,,,,,0,3,3,1,1,,,,,,,,,,,,,,,,,,,,,,,,,,,,,,,,,,,,,,,,,,,,,,
027882,001,2022-11-20_17h49.59.116,Info_measure_main_exp,2022.2.2,Win32,74.96251874,,,,,,,,,,,,,,,,,,masks/mask_004.jpg,,,,,,,,,,,,,,,,,,,,,,,,,,,,,,,,,,,,,,,,,,0,4,4,3,1,,,,,,,,,,,,,,,,,,,,,,,,,,,,,,,,,,,,,,,,,,,,,,
027882,001,2022-11-20_17h49.59.116,Info_measure_main_exp,2022.2.2,Win32,74.96251874,,,,,,,,,,,,,,,,,,masks/mask_004.jpg,,,,,,,,,,,,,,,,,,,,,,,,,,,,,,,,,,,,,,,,,,,,,,,0,0,0,3,1,,,,,,,,,,,,,,,,,,,,,,,,,,,,,,,,,,,,,,,,,
027882,001,2022-11-20_17h49.59.116,Info_measure_main_exp,2022.2.2,Win32,74.96251874,,,,,,,,,,,,,,,,,,masks/mask_003.jpg,,,,,,,,,,,,,,,,,,,,,,,,,,,,,,,,,,,,,,,,,,,,,,,0,1,1,2,1,,,,,,,,,,,,,,,,,,,,,,,,,,,,,,,,,,,,,,,,,
027882,001,2022-11-20_17h49.59.116,Info_measure_main_exp,2022.2.2,Win32,74.96251874,,,,,,,,,,,,,,,,,,masks/mask_001.jpg,,,,,,,,,,,,,,,,,,,,,,,,,,,,,,,,,,,,,,,,,,,,,,,0,2,2,0,1,,,,,,,,,,,,,,,,,,,,,,,,,,,,,,,,,,,,,,,,,
027882,001,2022-11-20_17h49.59.116,Info_measure_main_exp,2022.2.2,Win32,74.96251874,,,,,,,,,,,,,,,,,,masks/mask_005.jpg,,,,,,,,,,,,,,,,,,,,,,,,,,,,,,,,,,,,,,,,,,,,,,,0,3,3,4,1,,,,,,,,,,,,,,,,,,,,,,,,,,,,,,,,,,,,,,,,,
027882,001,2022-11-20_17h49.59.116,Info_measure_main_exp,2022.2.2,Win32,74.96251874,,,,,,,,,,,,,,,,,,masks/mask_002.jpg,,,,,,,,,,,,,,,,,,,,,,,,,,,,,,,,,,,,,,,,,,,,,,,0,4,4,1,1,,,,,,,,,,,,,,,,,,,,,,,,,,,,,,,,,,,,,,,,,
027882,001,2022-11-20_17h49.59.116,Info_measure_main_exp,2022.2.2,Win32,74.96251874,,,,,,,,,,,,,,,,,,,,,,,,,,,,,,6,0.7736,1,,,,,,,,,,,,0,131,5,5,2274,2190,absent_patch/patch0002274.jpg,absent_patch/patch0002190.jpg,,,,,,,,,,,,,,,,,,,0.137037037,0.039814815,1,0,0,response1disk,16,0.015740741,0.000925926,1,0,0,center_square,0,15,15,116,1,,,,,,,,,,,,,,,,,,,,,,,
027882,001,2022-11-20_17h49.59.116,Info_measure_main_exp,2022.2.2,Win32,74.96251874,,,,,,,,,,,,,,,,,,masks/mask_003.jpg,,,,,,,,,,,,,,,,,,,,,,,,,,,,,,,,,,,,,,,,,,0,0,0,2,1,,,,,,,,,,,,,,,,,,,,,,,,,,,,,,,,,,,,,,,,,,,,,,
027882,001,2022-11-20_17h49.59.116,Info_measure_main_exp,2022.2.2,Win32,74.96251874,,,,,,,,,,,,,,,,,,masks/mask_002.jpg,,,,,,,,,,,,,,,,,,,,,,,,,,,,,,,,,,,,,,,,,,0,1,1,1,1,,,,,,,,,,,,,,,,,,,,,,,,,,,,,,,,,,,,,,,,,,,,,,
027882,001,2022-11-20_17h49.59.116,Info_measure_main_exp,2022.2.2,Win32,74.96251874,,,,,,,,,,,,,,,,,,masks/mask_004.jpg,,,,,,,,,,,,,,,,,,,,,,,,,,,,,,,,,,,,,,,,,,0,2,2,3,1,,,,,,,,,,,,,,,,,,,,,,,,,,,,,,,,,,,,,,,,,,,,,,
027882,001,2022-11-20_17h49.59.116,Info_measure_main_exp,2022.2.2,Win32,74.96251874,,,,,,,,,,,,,,,,,,masks/mask_001.jpg,,,,,,,,,,,,,,,,,,,,,,,,,,,,,,,,,,,,,,,,,,0,3,3,0,1,,,,,,,,,,,,,,,,,,,,,,,,,,,,,,,,,,,,,,,,,,,,,,
027882,001,2022-11-20_17h49.59.116,Info_measure_main_exp,2022.2.2,Win32,74.96251874,,,,,,,,,,,,,,,,,,masks/mask_005.jpg,,,,,,,,,,,,,,,,,,,,,,,,,,,,,,,,,,,,,,,,,,0,4,4,4,1,,,,,,,,,,,,,,,,,,,,,,,,,,,,,,,,,,,,,,,,,,,,,,
027882,001,2022-11-20_17h49.59.116,Info_measure_main_exp,2022.2.2,Win32,74.96251874,,,,,,,,,,,,,,,,,,masks/mask_001.jpg,,,,,,,,,,,,,,,,,,,,,,,,,,,,,,,,,,,,,,,,,,,,,,,0,0,0,0,1,,,,,,,,,,,,,,,,,,,,,,,,,,,,,,,,,,,,,,,,,
027882,001,2022-11-20_17h49.59.116,Info_measure_main_exp,2022.2.2,Win32,74.96251874,,,,,,,,,,,,,,,,,,masks/mask_004.jpg,,,,,,,,,,,,,,,,,,,,,,,,,,,,,,,,,,,,,,,,,,,,,,,0,1,1,3,1,,,,,,,,,,,,,,,,,,,,,,,,,,,,,,,,,,,,,,,,,
027882,001,2022-11-20_17h49.59.116,Info_measure_main_exp,2022.2.2,Win32,74.96251874,,,,,,,,,,,,,,,,,,masks/mask_002.jpg,,,,,,,,,,,,,,,,,,,,,,,,,,,,,,,,,,,,,,,,,,,,,,,0,2,2,1,1,,,,,,,,,,,,,,,,,,,,,,,,,,,,,,,,,,,,,,,,,
027882,001,2022-11-20_17h49.59.116,Info_measure_main_exp,2022.2.2,Win32,74.96251874,,,,,,,,,,,,,,,,,,masks/mask_003.jpg,,,,,,,,,,,,,,,,,,,,,,,,,,,,,,,,,,,,,,,,,,,,,,,0,3,3,2,1,,,,,,,,,,,,,,,,,,,,,,,,,,,,,,,,,,,,,,,,,
027882,001,2022-11-20_17h49.59.116,Info_measure_main_exp,2022.2.2,Win32,74.96251874,,,,,,,,,,,,,,,,,,masks/mask_005.jpg,,,,,,,,,,,,,,,,,,,,,,,,,,,,,,,,,,,,,,,,,,,,,,,0,4,4,4,1,,,,,,,,,,,,,,,,,,,,,,,,,,,,,,,,,,,,,,,,,
027882,001,2022-11-20_17h49.59.116,Info_measure_main_exp,2022.2.2,Win32,74.96251874,,,,,,,,,,,,,,,,,,,,,,,,,,,,,,0,0.6403,1,,,,,,,,,,,,0,131,5,5,2082,2082,absent_patch/patch0002082.jpg,absent_patch/patch0002082.jpg,,,,,,,,,,,,,,,,,,,-0.07037037,0.126851852,1,0,0,response7disk,17,0.002777778,0.001851852,1,0,0,center_square,0,16,16,74,1,,,,,,,,,,,,,,,,,,,,,,,
027882,001,2022-11-20_17h49.59.116,Info_measure_main_exp,2022.2.2,Win32,74.96251874,,,,,,,,,,,,,,,,,,masks/mask_005.jpg,,,,,,,,,,,,,,,,,,,,,,,,,,,,,,,,,,,,,,,,,,0,0,0,4,1,,,,,,,,,,,,,,,,,,,,,,,,,,,,,,,,,,,,,,,,,,,,,,
027882,001,2022-11-20_17h49.59.116,Info_measure_main_exp,2022.2.2,Win32,74.96251874,,,,,,,,,,,,,,,,,,masks/mask_003.jpg,,,,,,,,,,,,,,,,,,,,,,,,,,,,,,,,,,,,,,,,,,0,1,1,2,1,,,,,,,,,,,,,,,,,,,,,,,,,,,,,,,,,,,,,,,,,,,,,,
027882,001,2022-11-20_17h49.59.116,Info_measure_main_exp,2022.2.2,Win32,74.96251874,,,,,,,,,,,,,,,,,,masks/mask_001.jpg,,,,,,,,,,,,,,,,,,,,,,,,,,,,,,,,,,,,,,,,,,0,2,2,0,1,,,,,,,,,,,,,,,,,,,,,,,,,,,,,,,,,,,,,,,,,,,,,,
027882,001,2022-11-20_17h49.59.116,Info_measure_main_exp,2022.2.2,Win32,74.96251874,,,,,,,,,,,,,,,,,,masks/mask_002.jpg,,,,,,,,,,,,,,,,,,,,,,,,,,,,,,,,,,,,,,,,,,0,3,3,1,1,,,,,,,,,,,,,,,,,,,,,,,,,,,,,,,,,,,,,,,,,,,,,,
027882,001,2022-11-20_17h49.59.116,Info_measure_main_exp,2022.2.2,Win32,74.96251874,,,,,,,,,,,,,,,,,,masks/mask_004.jpg,,,,,,,,,,,,,,,,,,,,,,,,,,,,,,,,,,,,,,,,,,0,4,4,3,1,,,,,,,,,,,,,,,,,,,,,,,,,,,,,,,,,,,,,,,,,,,,,,
027882,001,2022-11-20_17h49.59.116,Info_measure_main_exp,2022.2.2,Win32,74.96251874,,,,,,,,,,,,,,,,,,masks/mask_001.jpg,,,,,,,,,,,,,,,,,,,,,,,,,,,,,,,,,,,,,,,,,,,,,,,0,0,0,0,1,,,,,,,,,,,,,,,,,,,,,,,,,,,,,,,,,,,,,,,,,
027882,001,2022-11-20_17h49.59.116,Info_measure_main_exp,2022.2.2,Win32,74.96251874,,,,,,,,,,,,,,,,,,masks/mask_003.jpg,,,,,,,,,,,,,,,,,,,,,,,,,,,,,,,,,,,,,,,,,,,,,,,0,1,1,2,1,,,,,,,,,,,,,,,,,,,,,,,,,,,,,,,,,,,,,,,,,
027882,001,2022-11-20_17h49.59.116,Info_measure_main_exp,2022.2.2,Win32,74.96251874,,,,,,,,,,,,,,,,,,masks/mask_005.jpg,,,,,,,,,,,,,,,,,,,,,,,,,,,,,,,,,,,,,,,,,,,,,,,0,2,2,4,1,,,,,,,,,,,,,,,,,,,,,,,,,,,,,,,,,,,,,,,,,
027882,001,2022-11-20_17h49.59.116,Info_measure_main_exp,2022.2.2,Win32,74.96251874,,,,,,,,,,,,,,,,,,masks/mask_004.jpg,,,,,,,,,,,,,,,,,,,,,,,,,,,,,,,,,,,,,,,,,,,,,,,0,3,3,3,1,,,,,,,,,,,,,,,,,,,,,,,,,,,,,,,,,,,,,,,,,
027882,001,2022-11-20_17h49.59.116,Info_measure_main_exp,2022.2.2,Win32,74.96251874,,,,,,,,,,,,,,,,,,masks/mask_002.jpg,,,,,,,,,,,,,,,,,,,,,,,,,,,,,,,,,,,,,,,,,,,,,,,0,4,4,1,1,,,,,,,,,,,,,,,,,,,,,,,,,,,,,,,,,,,,,,,,,
027882,001,2022-11-20_17h49.59.116,Info_measure_main_exp,2022.2.2,Win32,74.96251874,,,,,,,,,,,,,,,,,,,,,,,,,,,,,,5,1.0671,1,,,,,,,,,,,,0,131,5,5,2274,1950,absent_patch/patch0002274.jpg,absent_patch/patch0001950.jpg,,,,,,,,,,,,,,,,,,,0.132407407,-0.036111111,1,0,0,response3disk,18,0.00462963,-0.006481481,1,0,0,center_square,0,17,17,10,1,,,,,,,,,,,,,,,,,,,,,,,
027882,001,2022-11-20_17h49.59.116,Info_measure_main_exp,2022.2.2,Win32,74.96251874,,,,,,,,,,,,,,,,,,masks/mask_001.jpg,,,,,,,,,,,,,,,,,,,,,,,,,,,,,,,,,,,,,,,,,,0,0,0,0,1,,,,,,,,,,,,,,,,,,,,,,,,,,,,,,,,,,,,,,,,,,,,,,
027882,001,2022-11-20_17h49.59.116,Info_measure_main_exp,2022.2.2,Win32,74.96251874,,,,,,,,,,,,,,,,,,masks/mask_002.jpg,,,,,,,,,,,,,,,,,,,,,,,,,,,,,,,,,,,,,,,,,,0,1,1,1,1,,,,,,,,,,,,,,,,,,,,,,,,,,,,,,,,,,,,,,,,,,,,,,
027882,001,2022-11-20_17h49.59.116,Info_measure_main_exp,2022.2.2,Win32,74.96251874,,,,,,,,,,,,,,,,,,masks/mask_005.jpg,,,,,,,,,,,,,,,,,,,,,,,,,,,,,,,,,,,,,,,,,,0,2,2,4,1,,,,,,,,,,,,,,,,,,,,,,,,,,,,,,,,,,,,,,,,,,,,,,
027882,001,2022-11-20_17h49.59.116,Info_measure_main_exp,2022.2.2,Win32,74.96251874,,,,,,,,,,,,,,,,,,masks/mask_004.jpg,,,,,,,,,,,,,,,,,,,,,,,,,,,,,,,,,,,,,,,,,,0,3,3,3,1,,,,,,,,,,,,,,,,,,,,,,,,,,,,,,,,,,,,,,,,,,,,,,
027882,001,2022-11-20_17h49.59.116,Info_measure_main_exp,2022.2.2,Win32,74.96251874,,,,,,,,,,,,,,,,,,masks/mask_003.jpg,,,,,,,,,,,,,,,,,,,,,,,,,,,,,,,,,,,,,,,,,,0,4,4,2,1,,,,,,,,,,,,,,,,,,,,,,,,,,,,,,,,,,,,,,,,,,,,,,
027882,001,2022-11-20_17h49.59.116,Info_measure_main_exp,2022.2.2,Win32,74.96251874,,,,,,,,,,,,,,,,,,masks/mask_004.jpg,,,,,,,,,,,,,,,,,,,,,,,,,,,,,,,,,,,,,,,,,,,,,,,0,0,0,3,1,,,,,,,,,,,,,,,,,,,,,,,,,,,,,,,,,,,,,,,,,
027882,001,2022-11-20_17h49.59.116,Info_measure_main_exp,2022.2.2,Win32,74.96251874,,,,,,,,,,,,,,,,,,masks/mask_003.jpg,,,,,,,,,,,,,,,,,,,,,,,,,,,,,,,,,,,,,,,,,,,,,,,0,1,1,2,1,,,,,,,,,,,,,,,,,,,,,,,,,,,,,,,,,,,,,,,,,
027882,001,2022-11-20_17h49.59.116,Info_measure_main_exp,2022.2.2,Win32,74.96251874,,,,,,,,,,,,,,,,,,masks/mask_001.jpg,,,,,,,,,,,,,,,,,,,,,,,,,,,,,,,,,,,,,,,,,,,,,,,0,2,2,0,1,,,,,,,,,,,,,,,,,,,,,,,,,,,,,,,,,,,,,,,,,
027882,001,2022-11-20_17h49.59.116,Info_measure_main_exp,2022.2.2,Win32,74.96251874,,,,,,,,,,,,,,,,,,masks/mask_002.jpg,,,,,,,,,,,,,,,,,,,,,,,,,,,,,,,,,,,,,,,,,,,,,,,0,3,3,1,1,,,,,,,,,,,,,,,,,,,,,,,,,,,,,,,,,,,,,,,,,
027882,001,2022-11-20_17h49.59.116,Info_measure_main_exp,2022.2.2,Win32,74.96251874,,,,,,,,,,,,,,,,,,masks/mask_005.jpg,,,,,,,,,,,,,,,,,,,,,,,,,,,,,,,,,,,,,,,,,,,,,,,0,4,4,4,1,,,,,,,,,,,,,,,,,,,,,,,,,,,,,,,,,,,,,,,,,
027882,001,2022-11-20_17h49.59.116,Info_measure_main_exp,2022.2.2,Win32,74.96251874,,,,,,,,,,,,,,,,,,,,,,,,,,,,,,5,1.0019,1,,,,,,,,,,,,0,131,5,5,1950,2082,absent_patch/patch0001950.jpg,absent_patch/patch0002082.jpg,,,,,,,,,,,,,,,,,,,0.07962963,-0.012962963,1,0,0,response3disk,19,-0.008333333,0,1,0,0,center_square,0,18,18,12,1,,,,,,,,,,,,,,,,,,,,,,,
027882,001,2022-11-20_17h49.59.116,Info_measure_main_exp,2022.2.2,Win32,74.96251874,,,,,,,,,,,,,,,,,,masks/mask_001.jpg,,,,,,,,,,,,,,,,,,,,,,,,,,,,,,,,,,,,,,,,,,0,0,0,0,1,,,,,,,,,,,,,,,,,,,,,,,,,,,,,,,,,,,,,,,,,,,,,,
027882,001,2022-11-20_17h49.59.116,Info_measure_main_exp,2022.2.2,Win32,74.96251874,,,,,,,,,,,,,,,,,,masks/mask_002.jpg,,,,,,,,,,,,,,,,,,,,,,,,,,,,,,,,,,,,,,,,,,0,1,1,1,1,,,,,,,,,,,,,,,,,,,,,,,,,,,,,,,,,,,,,,,,,,,,,,
027882,001,2022-11-20_17h49.59.116,Info_measure_main_exp,2022.2.2,Win32,74.96251874,,,,,,,,,,,,,,,,,,masks/mask_005.jpg,,,,,,,,,,,,,,,,,,,,,,,,,,,,,,,,,,,,,,,,,,0,2,2,4,1,,,,,,,,,,,,,,,,,,,,,,,,,,,,,,,,,,,,,,,,,,,,,,
027882,001,2022-11-20_17h49.59.116,Info_measure_main_exp,2022.2.2,Win32,74.96251874,,,,,,,,,,,,,,,,,,masks/mask_004.jpg,,,,,,,,,,,,,,,,,,,,,,,,,,,,,,,,,,,,,,,,,,0,3,3,3,1,,,,,,,,,,,,,,,,,,,,,,,,,,,,,,,,,,,,,,,,,,,,,,
027882,001,2022-11-20_17h49.59.116,Info_measure_main_exp,2022.2.2,Win32,74.96251874,,,,,,,,,,,,,,,,,,masks/mask_003.jpg,,,,,,,,,,,,,,,,,,,,,,,,,,,,,,,,,,,,,,,,,,0,4,4,2,1,,,,,,,,,,,,,,,,,,,,,,,,,,,,,,,,,,,,,,,,,,,,,,
027882,001,2022-11-20_17h49.59.116,Info_measure_main_exp,2022.2.2,Win32,74.96251874,,,,,,,,,,,,,,,,,,masks/mask_003.jpg,,,,,,,,,,,,,,,,,,,,,,,,,,,,,,,,,,,,,,,,,,,,,,,0,0,0,2,1,,,,,,,,,,,,,,,,,,,,,,,,,,,,,,,,,,,,,,,,,
027882,001,2022-11-20_17h49.59.116,Info_measure_main_exp,2022.2.2,Win32,74.96251874,,,,,,,,,,,,,,,,,,masks/mask_005.jpg,,,,,,,,,,,,,,,,,,,,,,,,,,,,,,,,,,,,,,,,,,,,,,,0,1,1,4,1,,,,,,,,,,,,,,,,,,,,,,,,,,,,,,,,,,,,,,,,,
027882,001,2022-11-20_17h49.59.116,Info_measure_main_exp,2022.2.2,Win32,74.96251874,,,,,,,,,,,,,,,,,,masks/mask_001.jpg,,,,,,,,,,,,,,,,,,,,,,,,,,,,,,,,,,,,,,,,,,,,,,,0,2,2,0,1,,,,,,,,,,,,,,,,,,,,,,,,,,,,,,,,,,,,,,,,,
027882,001,2022-11-20_17h49.59.116,Info_measure_main_exp,2022.2.2,Win32,74.96251874,,,,,,,,,,,,,,,,,,masks/mask_004.jpg,,,,,,,,,,,,,,,,,,,,,,,,,,,,,,,,,,,,,,,,,,,,,,,0,3,3,3,1,,,,,,,,,,,,,,,,,,,,,,,,,,,,,,,,,,,,,,,,,
027882,001,2022-11-20_17h49.59.116,Info_measure_main_exp,2022.2.2,Win32,74.96251874,,,,,,,,,,,,,,,,,,masks/mask_002.jpg,,,,,,,,,,,,,,,,,,,,,,,,,,,,,,,,,,,,,,,,,,,,,,,0,4,4,1,1,,,,,,,,,,,,,,,,,,,,,,,,,,,,,,,,,,,,,,,,,
027882,001,2022-11-20_17h49.59.116,Info_measure_main_exp,2022.2.2,Win32,74.96251874,,,,,,,,,,,,,,,,,,,,,,,,,,,,,,6,0.6536,1,,,,,,,,,,,,0,131,5,5,2214,2082,absent_patch/patch0002214.jpg,absent_patch/patch0002082.jpg,,,,,,,,,,,,,,,,,,,0.156481481,0.025,1,0,0,response1disk,20,0.002777778,-0.006481481,1,0,0,center_square,0,19,19,103,1,,,,,,,,,,,,,,,,,,,,,,,
027882,001,2022-11-20_17h49.59.116,Info_measure_main_exp,2022.2.2,Win32,74.96251874,,,,,,,,,,,,,,,,,,masks/mask_002.jpg,,,,,,,,,,,,,,,,,,,,,,,,,,,,,,,,,,,,,,,,,,0,0,0,1,1,,,,,,,,,,,,,,,,,,,,,,,,,,,,,,,,,,,,,,,,,,,,,,
027882,001,2022-11-20_17h49.59.116,Info_measure_main_exp,2022.2.2,Win32,74.96251874,,,,,,,,,,,,,,,,,,masks/mask_004.jpg,,,,,,,,,,,,,,,,,,,,,,,,,,,,,,,,,,,,,,,,,,0,1,1,3,1,,,,,,,,,,,,,,,,,,,,,,,,,,,,,,,,,,,,,,,,,,,,,,
027882,001,2022-11-20_17h49.59.116,Info_measure_main_exp,2022.2.2,Win32,74.96251874,,,,,,,,,,,,,,,,,,masks/mask_003.jpg,,,,,,,,,,,,,,,,,,,,,,,,,,,,,,,,,,,,,,,,,,0,2,2,2,1,,,,,,,,,,,,,,,,,,,,,,,,,,,,,,,,,,,,,,,,,,,,,,
027882,001,2022-11-20_17h49.59.116,Info_measure_main_exp,2022.2.2,Win32,74.96251874,,,,,,,,,,,,,,,,,,masks/mask_005.jpg,,,,,,,,,,,,,,,,,,,,,,,,,,,,,,,,,,,,,,,,,,0,3,3,4,1,,,,,,,,,,,,,,,,,,,,,,,,,,,,,,,,,,,,,,,,,,,,,,
027882,001,2022-11-20_17h49.59.116,Info_measure_main_exp,2022.2.2,Win32,74.96251874,,,,,,,,,,,,,,,,,,masks/mask_001.jpg,,,,,,,,,,,,,,,,,,,,,,,,,,,,,,,,,,,,,,,,,,0,4,4,0,1,,,,,,,,,,,,,,,,,,,,,,,,,,,,,,,,,,,,,,,,,,,,,,
027882,001,2022-11-20_17h49.59.116,Info_measure_main_exp,2022.2.2,Win32,74.96251874,,,,,,,,,,,,,,,,,,masks/mask_005.jpg,,,,,,,,,,,,,,,,,,,,,,,,,,,,,,,,,,,,,,,,,,,,,,,0,0,0,4,1,,,,,,,,,,,,,,,,,,,,,,,,,,,,,,,,,,,,,,,,,
027882,001,2022-11-20_17h49.59.116,Info_measure_main_exp,2022.2.2,Win32,74.96251874,,,,,,,,,,,,,,,,,,masks/mask_001.jpg,,,,,,,,,,,,,,,,,,,,,,,,,,,,,,,,,,,,,,,,,,,,,,,0,1,1,0,1,,,,,,,,,,,,,,,,,,,,,,,,,,,,,,,,,,,,,,,,,
027882,001,2022-11-20_17h49.59.116,Info_measure_main_exp,2022.2.2,Win32,74.96251874,,,,,,,,,,,,,,,,,,masks/mask_002.jpg,,,,,,,,,,,,,,,,,,,,,,,,,,,,,,,,,,,,,,,,,,,,,,,0,2,2,1,1,,,,,,,,,,,,,,,,,,,,,,,,,,,,,,,,,,,,,,,,,
027882,001,2022-11-20_17h49.59.116,Info_measure_main_exp,2022.2.2,Win32,74.96251874,,,,,,,,,,,,,,,,,,masks/mask_003.jpg,,,,,,,,,,,,,,,,,,,,,,,,,,,,,,,,,,,,,,,,,,,,,,,0,3,3,2,1,,,,,,,,,,,,,,,,,,,,,,,,,,,,,,,,,,,,,,,,,
027882,001,2022-11-20_17h49.59.116,Info_measure_main_exp,2022.2.2,Win32,74.96251874,,,,,,,,,,,,,,,,,,masks/mask_004.jpg,,,,,,,,,,,,,,,,,,,,,,,,,,,,,,,,,,,,,,,,,,,,,,,0,4,4,3,1,,,,,,,,,,,,,,,,,,,,,,,,,,,,,,,,,,,,,,,,,
027882,001,2022-11-20_17h49.59.116,Info_measure_main_exp,2022.2.2,Win32,74.96251874,,,,,,,,,,,,,,,,,,,,,,,,,,,,,,7,1.6007,1,,,,,,,,,,,,0,131,5,5,1974,2178,absent_patch/patch0001974.jpg,absent_patch/patch0002178.jpg,,,,,,,,,,,,,,,,,,,0.062962963,0.096296296,1,0,0,response1disk,21,-0.002777778,0.001851852,1,0,0,center_square,0,20,20,44,1,,,,,,,,,,,,,,,,,,,,,,,
027882,001,2022-11-20_17h49.59.116,Info_measure_main_exp,2022.2.2,Win32,74.96251874,,,,,,,,,,,,,,,,,,masks/mask_004.jpg,,,,,,,,,,,,,,,,,,,,,,,,,,,,,,,,,,,,,,,,,,0,0,0,3,1,,,,,,,,,,,,,,,,,,,,,,,,,,,,,,,,,,,,,,,,,,,,,,
027882,001,2022-11-20_17h49.59.116,Info_measure_main_exp,2022.2.2,Win32,74.96251874,,,,,,,,,,,,,,,,,,masks/mask_002.jpg,,,,,,,,,,,,,,,,,,,,,,,,,,,,,,,,,,,,,,,,,,0,1,1,1,1,,,,,,,,,,,,,,,,,,,,,,,,,,,,,,,,,,,,,,,,,,,,,,
027882,001,2022-11-20_17h49.59.116,Info_measure_main_exp,2022.2.2,Win32,74.96251874,,,,,,,,,,,,,,,,,,masks/mask_005.jpg,,,,,,,,,,,,,,,,,,,,,,,,,,,,,,,,,,,,,,,,,,0,2,2,4,1,,,,,,,,,,,,,,,,,,,,,,,,,,,,,,,,,,,,,,,,,,,,,,
027882,001,2022-11-20_17h49.59.116,Info_measure_main_exp,2022.2.2,Win32,74.96251874,,,,,,,,,,,,,,,,,,masks/mask_001.jpg,,,,,,,,,,,,,,,,,,,,,,,,,,,,,,,,,,,,,,,,,,0,3,3,0,1,,,,,,,,,,,,,,,,,,,,,,,,,,,,,,,,,,,,,,,,,,,,,,
027882,001,2022-11-20_17h49.59.116,Info_measure_main_exp,2022.2.2,Win32,74.96251874,,,,,,,,,,,,,,,,,,masks/mask_003.jpg,,,,,,,,,,,,,,,,,,,,,,,,,,,,,,,,,,,,,,,,,,0,4,4,2,1,,,,,,,,,,,,,,,,,,,,,,,,,,,,,,,,,,,,,,,,,,,,,,
027882,001,2022-11-20_17h49.59.116,Info_measure_main_exp,2022.2.2,Win32,74.96251874,,,,,,,,,,,,,,,,,,masks/mask_001.jpg,,,,,,,,,,,,,,,,,,,,,,,,,,,,,,,,,,,,,,,,,,,,,,,0,0,0,0,1,,,,,,,,,,,,,,,,,,,,,,,,,,,,,,,,,,,,,,,,,
027882,001,2022-11-20_17h49.59.116,Info_measure_main_exp,2022.2.2,Win32,74.96251874,,,,,,,,,,,,,,,,,,masks/mask_003.jpg,,,,,,,,,,,,,,,,,,,,,,,,,,,,,,,,,,,,,,,,,,,,,,,0,1,1,2,1,,,,,,,,,,,,,,,,,,,,,,,,,,,,,,,,,,,,,,,,,
027882,001,2022-11-20_17h49.59.116,Info_measure_main_exp,2022.2.2,Win32,74.96251874,,,,,,,,,,,,,,,,,,masks/mask_004.jpg,,,,,,,,,,,,,,,,,,,,,,,,,,,,,,,,,,,,,,,,,,,,,,,0,2,2,3,1,,,,,,,,,,,,,,,,,,,,,,,,,,,,,,,,,,,,,,,,,
027882,001,2022-11-20_17h49.59.116,Info_measure_main_exp,2022.2.2,Win32,74.96251874,,,,,,,,,,,,,,,,,,masks/mask_002.jpg,,,,,,,,,,,,,,,,,,,,,,,,,,,,,,,,,,,,,,,,,,,,,,,0,3,3,1,1,,,,,,,,,,,,,,,,,,,,,,,,,,,,,,,,,,,,,,,,,
027882,001,2022-11-20_17h49.59.116,Info_measure_main_exp,2022.2.2,Win32,74.96251874,,,,,,,,,,,,,,,,,,masks/mask_005.jpg,,,,,,,,,,,,,,,,,,,,,,,,,,,,,,,,,,,,,,,,,,,,,,,0,4,4,4,1,,,,,,,,,,,,,,,,,,,,,,,,,,,,,,,,,,,,,,,,,
027882,001,2022-11-20_17h49.59.116,Info_measure_main_exp,2022.2.2,Win32,74.96251874,,,,,,,,,,,,,,,,,,,,,,,,,,,,,,4,1.4538,1,,,,,,,,,,,,0,131,5,5,2298,2190,absent_patch/patch0002298.jpg,absent_patch/patch0002190.jpg,,,,,,,,,,,,,,,,,,,0.018518519,-0.115740741,1,0,0,response3disk,22,0.005555556,0.010185185,1,0,0,center_square,0,21,21,20,1,,,,,,,,,,,,,,,,,,,,,,,
027882,001,2022-11-20_17h49.59.116,Info_measure_main_exp,2022.2.2,Win32,74.96251874,,,,,,,,,,,,,,,,,,masks/mask_001.jpg,,,,,,,,,,,,,,,,,,,,,,,,,,,,,,,,,,,,,,,,,,0,0,0,0,1,,,,,,,,,,,,,,,,,,,,,,,,,,,,,,,,,,,,,,,,,,,,,,
027882,001,2022-11-20_17h49.59.116,Info_measure_main_exp,2022.2.2,Win32,74.96251874,,,,,,,,,,,,,,,,,,masks/mask_003.jpg,,,,,,,,,,,,,,,,,,,,,,,,,,,,,,,,,,,,,,,,,,0,1,1,2,1,,,,,,,,,,,,,,,,,,,,,,,,,,,,,,,,,,,,,,,,,,,,,,
027882,001,2022-11-20_17h49.59.116,Info_measure_main_exp,2022.2.2,Win32,74.96251874,,,,,,,,,,,,,,,,,,masks/mask_002.jpg,,,,,,,,,,,,,,,,,,,,,,,,,,,,,,,,,,,,,,,,,,0,2,2,1,1,,,,,,,,,,,,,,,,,,,,,,,,,,,,,,,,,,,,,,,,,,,,,,
027882,001,2022-11-20_17h49.59.116,Info_measure_main_exp,2022.2.2,Win32,74.96251874,,,,,,,,,,,,,,,,,,masks/mask_004.jpg,,,,,,,,,,,,,,,,,,,,,,,,,,,,,,,,,,,,,,,,,,0,3,3,3,1,,,,,,,,,,,,,,,,,,,,,,,,,,,,,,,,,,,,,,,,,,,,,,
027882,001,2022-11-20_17h49.59.116,Info_measure_main_exp,2022.2.2,Win32,74.96251874,,,,,,,,,,,,,,,,,,masks/mask_005.jpg,,,,,,,,,,,,,,,,,,,,,,,,,,,,,,,,,,,,,,,,,,0,4,4,4,1,,,,,,,,,,,,,,,,,,,,,,,,,,,,,,,,,,,,,,,,,,,,,,
027882,001,2022-11-20_17h49.59.116,Info_measure_main_exp,2022.2.2,Win32,74.96251874,,,,,,,,,,,,,,,,,,masks/mask_001.jpg,,,,,,,,,,,,,,,,,,,,,,,,,,,,,,,,,,,,,,,,,,,,,,,0,0,0,0,1,,,,,,,,,,,,,,,,,,,,,,,,,,,,,,,,,,,,,,,,,
027882,001,2022-11-20_17h49.59.116,Info_measure_main_exp,2022.2.2,Win32,74.96251874,,,,,,,,,,,,,,,,,,masks/mask_003.jpg,,,,,,,,,,,,,,,,,,,,,,,,,,,,,,,,,,,,,,,,,,,,,,,0,1,1,2,1,,,,,,,,,,,,,,,,,,,,,,,,,,,,,,,,,,,,,,,,,
027882,001,2022-11-20_17h49.59.116,Info_measure_main_exp,2022.2.2,Win32,74.96251874,,,,,,,,,,,,,,,,,,masks/mask_005.jpg,,,,,,,,,,,,,,,,,,,,,,,,,,,,,,,,,,,,,,,,,,,,,,,0,2,2,4,1,,,,,,,,,,,,,,,,,,,,,,,,,,,,,,,,,,,,,,,,,
027882,001,2022-11-20_17h49.59.116,Info_measure_main_exp,2022.2.2,Win32,74.96251874,,,,,,,,,,,,,,,,,,masks/mask_002.jpg,,,,,,,,,,,,,,,,,,,,,,,,,,,,,,,,,,,,,,,,,,,,,,,0,3,3,1,1,,,,,,,,,,,,,,,,,,,,,,,,,,,,,,,,,,,,,,,,,
027882,001,2022-11-20_17h49.59.116,Info_measure_main_exp,2022.2.2,Win32,74.96251874,,,,,,,,,,,,,,,,,,masks/mask_004.jpg,,,,,,,,,,,,,,,,,,,,,,,,,,,,,,,,,,,,,,,,,,,,,,,0,4,4,3,1,,,,,,,,,,,,,,,,,,,,,,,,,,,,,,,,,,,,,,,,,
027882,001,2022-11-20_17h49.59.116,Info_measure_main_exp,2022.2.2,Win32,74.96251874,,,,,,,,,,,,,,,,,,,,,,,,,,,,,,6,1.0537,1,,,,,,,,,,,,1,131,5,5,2250,1,absent_patch/patch0002250.jpg,present_patch/cong_131_5_a.jpg,,,,,,,,,,,,,,,,,,,0.091666667,0.032407407,1,0,0,response1disk,23,0.003703704,0.006481481,1,0,0,center_square,0,22,22,5,1,,,,,,,,,,,,,,,,,,,,,,,
027882,001,2022-11-20_17h49.59.116,Info_measure_main_exp,2022.2.2,Win32,74.96251874,,,,,,,,,,,,,,,,,,masks/mask_005.jpg,,,,,,,,,,,,,,,,,,,,,,,,,,,,,,,,,,,,,,,,,,0,0,0,4,1,,,,,,,,,,,,,,,,,,,,,,,,,,,,,,,,,,,,,,,,,,,,,,
027882,001,2022-11-20_17h49.59.116,Info_measure_main_exp,2022.2.2,Win32,74.96251874,,,,,,,,,,,,,,,,,,masks/mask_001.jpg,,,,,,,,,,,,,,,,,,,,,,,,,,,,,,,,,,,,,,,,,,0,1,1,0,1,,,,,,,,,,,,,,,,,,,,,,,,,,,,,,,,,,,,,,,,,,,,,,
027882,001,2022-11-20_17h49.59.116,Info_measure_main_exp,2022.2.2,Win32,74.96251874,,,,,,,,,,,,,,,,,,masks/mask_002.jpg,,,,,,,,,,,,,,,,,,,,,,,,,,,,,,,,,,,,,,,,,,0,2,2,1,1,,,,,,,,,,,,,,,,,,,,,,,,,,,,,,,,,,,,,,,,,,,,,,
027882,001,2022-11-20_17h49.59.116,Info_measure_main_exp,2022.2.2,Win32,74.96251874,,,,,,,,,,,,,,,,,,masks/mask_003.jpg,,,,,,,,,,,,,,,,,,,,,,,,,,,,,,,,,,,,,,,,,,0,3,3,2,1,,,,,,,,,,,,,,,,,,,,,,,,,,,,,,,,,,,,,,,,,,,,,,
027882,001,2022-11-20_17h49.59.116,Info_measure_main_exp,2022.2.2,Win32,74.96251874,,,,,,,,,,,,,,,,,,masks/mask_004.jpg,,,,,,,,,,,,,,,,,,,,,,,,,,,,,,,,,,,,,,,,,,0,4,4,3,1,,,,,,,,,,,,,,,,,,,,,,,,,,,,,,,,,,,,,,,,,,,,,,
027882,001,2022-11-20_17h49.59.116,Info_measure_main_exp,2022.2.2,Win32,74.96251874,,,,,,,,,,,,,,,,,,masks/mask_004.jpg,,,,,,,,,,,,,,,,,,,,,,,,,,,,,,,,,,,,,,,,,,,,,,,0,0,0,3,1,,,,,,,,,,,,,,,,,,,,,,,,,,,,,,,,,,,,,,,,,
027882,001,2022-11-20_17h49.59.116,Info_measure_main_exp,2022.2.2,Win32,74.96251874,,,,,,,,,,,,,,,,,,masks/mask_002.jpg,,,,,,,,,,,,,,,,,,,,,,,,,,,,,,,,,,,,,,,,,,,,,,,0,1,1,1,1,,,,,,,,,,,,,,,,,,,,,,,,,,,,,,,,,,,,,,,,,
027882,001,2022-11-20_17h49.59.116,Info_measure_main_exp,2022.2.2,Win32,74.96251874,,,,,,,,,,,,,,,,,,masks/mask_005.jpg,,,,,,,,,,,,,,,,,,,,,,,,,,,,,,,,,,,,,,,,,,,,,,,0,2,2,4,1,,,,,,,,,,,,,,,,,,,,,,,,,,,,,,,,,,,,,,,,,
027882,001,2022-11-20_17h49.59.116,Info_measure_main_exp,2022.2.2,Win32,74.96251874,,,,,,,,,,,,,,,,,,masks/mask_003.jpg,,,,,,,,,,,,,,,,,,,,,,,,,,,,,,,,,,,,,,,,,,,,,,,0,3,3,2,1,,,,,,,,,,,,,,,,,,,,,,,,,,,,,,,,,,,,,,,,,
027882,001,2022-11-20_17h49.59.116,Info_measure_main_exp,2022.2.2,Win32,74.96251874,,,,,,,,,,,,,,,,,,masks/mask_001.jpg,,,,,,,,,,,,,,,,,,,,,,,,,,,,,,,,,,,,,,,,,,,,,,,0,4,4,0,1,,,,,,,,,,,,,,,,,,,,,,,,,,,,,,,,,,,,,,,,,
027882,001,2022-11-20_17h49.59.116,Info_measure_main_exp,2022.2.2,Win32,74.96251874,,,,,,,,,,,,,,,,,,,,,,,,,,,,,,7,0.8404,1,,,,,,,,,,,,0,131,5,5,2250,2214,absent_patch/patch0002250.jpg,absent_patch/patch0002214.jpg,,,,,,,,,,,,,,,,,,,0.074074074,0.12962963,1,0,0,response1disk,24,0.00462963,0.003703704,1,0,0,center_square,0,23,23,97,1,,,,,,,,,,,,,,,,,,,,,,,
027882,001,2022-11-20_17h49.59.116,Info_measure_main_exp,2022.2.2,Win32,74.96251874,,,,,,,,,,,,,,,,,,masks/mask_005.jpg,,,,,,,,,,,,,,,,,,,,,,,,,,,,,,,,,,,,,,,,,,0,0,0,4,1,,,,,,,,,,,,,,,,,,,,,,,,,,,,,,,,,,,,,,,,,,,,,,
027882,001,2022-11-20_17h49.59.116,Info_measure_main_exp,2022.2.2,Win32,74.96251874,,,,,,,,,,,,,,,,,,masks/mask_004.jpg,,,,,,,,,,,,,,,,,,,,,,,,,,,,,,,,,,,,,,,,,,0,1,1,3,1,,,,,,,,,,,,,,,,,,,,,,,,,,,,,,,,,,,,,,,,,,,,,,
027882,001,2022-11-20_17h49.59.116,Info_measure_main_exp,2022.2.2,Win32,74.96251874,,,,,,,,,,,,,,,,,,masks/mask_001.jpg,,,,,,,,,,,,,,,,,,,,,,,,,,,,,,,,,,,,,,,,,,0,2,2,0,1,,,,,,,,,,,,,,,,,,,,,,,,,,,,,,,,,,,,,,,,,,,,,,
027882,001,2022-11-20_17h49.59.116,Info_measure_main_exp,2022.2.2,Win32,74.96251874,,,,,,,,,,,,,,,,,,masks/mask_002.jpg,,,,,,,,,,,,,,,,,,,,,,,,,,,,,,,,,,,,,,,,,,0,3,3,1,1,,,,,,,,,,,,,,,,,,,,,,,,,,,,,,,,,,,,,,,,,,,,,,
027882,001,2022-11-20_17h49.59.116,Info_measure_main_exp,2022.2.2,Win32,74.96251874,,,,,,,,,,,,,,,,,,masks/mask_003.jpg,,,,,,,,,,,,,,,,,,,,,,,,,,,,,,,,,,,,,,,,,,0,4,4,2,1,,,,,,,,,,,,,,,,,,,,,,,,,,,,,,,,,,,,,,,,,,,,,,
027882,001,2022-11-20_17h49.59.116,Info_measure_main_exp,2022.2.2,Win32,74.96251874,,,,,,,,,,,,,,,,,,masks/mask_004.jpg,,,,,,,,,,,,,,,,,,,,,,,,,,,,,,,,,,,,,,,,,,,,,,,0,0,0,3,1,,,,,,,,,,,,,,,,,,,,,,,,,,,,,,,,,,,,,,,,,
027882,001,2022-11-20_17h49.59.116,Info_measure_main_exp,2022.2.2,Win32,74.96251874,,,,,,,,,,,,,,,,,,masks/mask_002.jpg,,,,,,,,,,,,,,,,,,,,,,,,,,,,,,,,,,,,,,,,,,,,,,,0,1,1,1,1,,,,,,,,,,,,,,,,,,,,,,,,,,,,,,,,,,,,,,,,,
027882,001,2022-11-20_17h49.59.116,Info_measure_main_exp,2022.2.2,Win32,74.96251874,,,,,,,,,,,,,,,,,,masks/mask_003.jpg,,,,,,,,,,,,,,,,,,,,,,,,,,,,,,,,,,,,,,,,,,,,,,,0,2,2,2,1,,,,,,,,,,,,,,,,,,,,,,,,,,,,,,,,,,,,,,,,,
027882,001,2022-11-20_17h49.59.116,Info_measure_main_exp,2022.2.2,Win32,74.96251874,,,,,,,,,,,,,,,,,,masks/mask_005.jpg,,,,,,,,,,,,,,,,,,,,,,,,,,,,,,,,,,,,,,,,,,,,,,,0,3,3,4,1,,,,,,,,,,,,,,,,,,,,,,,,,,,,,,,,,,,,,,,,,
027882,001,2022-11-20_17h49.59.116,Info_measure_main_exp,2022.2.2,Win32,74.96251874,,,,,,,,,,,,,,,,,,masks/mask_001.jpg,,,,,,,,,,,,,,,,,,,,,,,,,,,,,,,,,,,,,,,,,,,,,,,0,4,4,0,1,,,,,,,,,,,,,,,,,,,,,,,,,,,,,,,,,,,,,,,,,
027882,001,2022-11-20_17h49.59.116,Info_measure_main_exp,2022.2.2,Win32,74.96251874,,,,,,,,,,,,,,,,,,,,,,,,,,,,,,6,1.1736,1,,,,,,,,,,,,0,131,5,5,1986,2274,absent_patch/patch0001986.jpg,absent_patch/patch0002274.jpg,,,,,,,,,,,,,,,,,,,0.099074074,0.024074074,1,0,0,response1disk,25,0.012962963,0.011111111,1,0,0,center_square,0,24,24,7,1,,,,,,,,,,,,,,,,,,,,,,,
027882,001,2022-11-20_17h49.59.116,Info_measure_main_exp,2022.2.2,Win32,74.96251874,,,,,,,,,,,,,,,,,,masks/mask_003.jpg,,,,,,,,,,,,,,,,,,,,,,,,,,,,,,,,,,,,,,,,,,0,0,0,2,1,,,,,,,,,,,,,,,,,,,,,,,,,,,,,,,,,,,,,,,,,,,,,,
027882,001,2022-11-20_17h49.59.116,Info_measure_main_exp,2022.2.2,Win32,74.96251874,,,,,,,,,,,,,,,,,,masks/mask_001.jpg,,,,,,,,,,,,,,,,,,,,,,,,,,,,,,,,,,,,,,,,,,0,1,1,0,1,,,,,,,,,,,,,,,,,,,,,,,,,,,,,,,,,,,,,,,,,,,,,,
027882,001,2022-11-20_17h49.59.116,Info_measure_main_exp,2022.2.2,Win32,74.96251874,,,,,,,,,,,,,,,,,,masks/mask_005.jpg,,,,,,,,,,,,,,,,,,,,,,,,,,,,,,,,,,,,,,,,,,0,2,2,4,1,,,,,,,,,,,,,,,,,,,,,,,,,,,,,,,,,,,,,,,,,,,,,,
027882,001,2022-11-20_17h49.59.116,Info_measure_main_exp,2022.2.2,Win32,74.96251874,,,,,,,,,,,,,,,,,,masks/mask_002.jpg,,,,,,,,,,,,,,,,,,,,,,,,,,,,,,,,,,,,,,,,,,0,3,3,1,1,,,,,,,,,,,,,,,,,,,,,,,,,,,,,,,,,,,,,,,,,,,,,,
027882,001,2022-11-20_17h49.59.116,Info_measure_main_exp,2022.2.2,Win32,74.96251874,,,,,,,,,,,,,,,,,,masks/mask_004.jpg,,,,,,,,,,,,,,,,,,,,,,,,,,,,,,,,,,,,,,,,,,0,4,4,3,1,,,,,,,,,,,,,,,,,,,,,,,,,,,,,,,,,,,,,,,,,,,,,,
027882,001,2022-11-20_17h49.59.116,Info_measure_main_exp,2022.2.2,Win32,74.96251874,,,,,,,,,,,,,,,,,,masks/mask_002.jpg,,,,,,,,,,,,,,,,,,,,,,,,,,,,,,,,,,,,,,,,,,,,,,,0,0,0,1,1,,,,,,,,,,,,,,,,,,,,,,,,,,,,,,,,,,,,,,,,,
027882,001,2022-11-20_17h49.59.116,Info_measure_main_exp,2022.2.2,Win32,74.96251874,,,,,,,,,,,,,,,,,,masks/mask_001.jpg,,,,,,,,,,,,,,,,,,,,,,,,,,,,,,,,,,,,,,,,,,,,,,,0,1,1,0,1,,,,,,,,,,,,,,,,,,,,,,,,,,,,,,,,,,,,,,,,,
027882,001,2022-11-20_17h49.59.116,Info_measure_main_exp,2022.2.2,Win32,74.96251874,,,,,,,,,,,,,,,,,,masks/mask_004.jpg,,,,,,,,,,,,,,,,,,,,,,,,,,,,,,,,,,,,,,,,,,,,,,,0,2,2,3,1,,,,,,,,,,,,,,,,,,,,,,,,,,,,,,,,,,,,,,,,,
027882,001,2022-11-20_17h49.59.116,Info_measure_main_exp,2022.2.2,Win32,74.96251874,,,,,,,,,,,,,,,,,,masks/mask_005.jpg,,,,,,,,,,,,,,,,,,,,,,,,,,,,,,,,,,,,,,,,,,,,,,,0,3,3,4,1,,,,,,,,,,,,,,,,,,,,,,,,,,,,,,,,,,,,,,,,,
027882,001,2022-11-20_17h49.59.116,Info_measure_main_exp,2022.2.2,Win32,74.96251874,,,,,,,,,,,,,,,,,,masks/mask_003.jpg,,,,,,,,,,,,,,,,,,,,,,,,,,,,,,,,,,,,,,,,,,,,,,,0,4,4,2,1,,,,,,,,,,,,,,,,,,,,,,,,,,,,,,,,,,,,,,,,,
027882,001,2022-11-20_17h49.59.116,Info_measure_main_exp,2022.2.2,Win32,74.96251874,,,,,,,,,,,,,,,,,,,,,,,,,,,,,,6,0.6802,1,,,,,,,,,,,,0,131,5,5,2250,1986,absent_patch/patch0002250.jpg,absent_patch/patch0001986.jpg,,,,,,,,,,,,,,,,,,,0.103703704,0.044444444,1,0,0,response1disk,26,0.007407407,-0.001851852,1,0,0,center_square,0,25,25,29,1,,,,,,,,,,,,,,,,,,,,,,,
027882,001,2022-11-20_17h49.59.116,Info_measure_main_exp,2022.2.2,Win32,74.96251874,,,,,,,,,,,,,,,,,,masks/mask_003.jpg,,,,,,,,,,,,,,,,,,,,,,,,,,,,,,,,,,,,,,,,,,0,0,0,2,1,,,,,,,,,,,,,,,,,,,,,,,,,,,,,,,,,,,,,,,,,,,,,,
027882,001,2022-11-20_17h49.59.116,Info_measure_main_exp,2022.2.2,Win32,74.96251874,,,,,,,,,,,,,,,,,,masks/mask_002.jpg,,,,,,,,,,,,,,,,,,,,,,,,,,,,,,,,,,,,,,,,,,0,1,1,1,1,,,,,,,,,,,,,,,,,,,,,,,,,,,,,,,,,,,,,,,,,,,,,,
027882,001,2022-11-20_17h49.59.116,Info_measure_main_exp,2022.2.2,Win32,74.96251874,,,,,,,,,,,,,,,,,,masks/mask_005.jpg,,,,,,,,,,,,,,,,,,,,,,,,,,,,,,,,,,,,,,,,,,0,2,2,4,1,,,,,,,,,,,,,,,,,,,,,,,,,,,,,,,,,,,,,,,,,,,,,,
027882,001,2022-11-20_17h49.59.116,Info_measure_main_exp,2022.2.2,Win32,74.96251874,,,,,,,,,,,,,,,,,,masks/mask_001.jpg,,,,,,,,,,,,,,,,,,,,,,,,,,,,,,,,,,,,,,,,,,0,3,3,0,1,,,,,,,,,,,,,,,,,,,,,,,,,,,,,,,,,,,,,,,,,,,,,,
027882,001,2022-11-20_17h49.59.116,Info_measure_main_exp,2022.2.2,Win32,74.96251874,,,,,,,,,,,,,,,,,,masks/mask_004.jpg,,,,,,,,,,,,,,,,,,,,,,,,,,,,,,,,,,,,,,,,,,0,4,4,3,1,,,,,,,,,,,,,,,,,,,,,,,,,,,,,,,,,,,,,,,,,,,,,,
027882,001,2022-11-20_17h49.59.116,Info_measure_main_exp,2022.2.2,Win32,74.96251874,,,,,,,,,,,,,,,,,,masks/mask_003.jpg,,,,,,,,,,,,,,,,,,,,,,,,,,,,,,,,,,,,,,,,,,,,,,,0,0,0,2,1,,,,,,,,,,,,,,,,,,,,,,,,,,,,,,,,,,,,,,,,,
027882,001,2022-11-20_17h49.59.116,Info_measure_main_exp,2022.2.2,Win32,74.96251874,,,,,,,,,,,,,,,,,,masks/mask_001.jpg,,,,,,,,,,,,,,,,,,,,,,,,,,,,,,,,,,,,,,,,,,,,,,,0,1,1,0,1,,,,,,,,,,,,,,,,,,,,,,,,,,,,,,,,,,,,,,,,,
027882,001,2022-11-20_17h49.59.116,Info_measure_main_exp,2022.2.2,Win32,74.96251874,,,,,,,,,,,,,,,,,,masks/mask_004.jpg,,,,,,,,,,,,,,,,,,,,,,,,,,,,,,,,,,,,,,,,,,,,,,,0,2,2,3,1,,,,,,,,,,,,,,,,,,,,,,,,,,,,,,,,,,,,,,,,,
027882,001,2022-11-20_17h49.59.116,Info_measure_main_exp,2022.2.2,Win32,74.96251874,,,,,,,,,,,,,,,,,,masks/mask_005.jpg,,,,,,,,,,,,,,,,,,,,,,,,,,,,,,,,,,,,,,,,,,,,,,,0,3,3,4,1,,,,,,,,,,,,,,,,,,,,,,,,,,,,,,,,,,,,,,,,,
027882,001,2022-11-20_17h49.59.116,Info_measure_main_exp,2022.2.2,Win32,74.96251874,,,,,,,,,,,,,,,,,,masks/mask_002.jpg,,,,,,,,,,,,,,,,,,,,,,,,,,,,,,,,,,,,,,,,,,,,,,,0,4,4,1,1,,,,,,,,,,,,,,,,,,,,,,,,,,,,,,,,,,,,,,,,,
027882,001,2022-11-20_17h49.59.116,Info_measure_main_exp,2022.2.2,Win32,74.96251874,,,,,,,,,,,,,,,,,,,,,,,,,,,,,,5,0.6134,1,,,,,,,,,,,,0,131,5,5,2082,2250,absent_patch/patch0002082.jpg,absent_patch/patch0002250.jpg,,,,,,,,,,,,,,,,,,,0.102777778,-0.030555556,1,0,0,response3disk,27,0.003703704,0.003703704,1,0,0,center_square,0,26,26,3,1,,,,,,,,,,,,,,,,,,,,,,,
027882,001,2022-11-20_17h49.59.116,Info_measure_main_exp,2022.2.2,Win32,74.96251874,,,,,,,,,,,,,,,,,,masks/mask_005.jpg,,,,,,,,,,,,,,,,,,,,,,,,,,,,,,,,,,,,,,,,,,0,0,0,4,1,,,,,,,,,,,,,,,,,,,,,,,,,,,,,,,,,,,,,,,,,,,,,,
027882,001,2022-11-20_17h49.59.116,Info_measure_main_exp,2022.2.2,Win32,74.96251874,,,,,,,,,,,,,,,,,,masks/mask_003.jpg,,,,,,,,,,,,,,,,,,,,,,,,,,,,,,,,,,,,,,,,,,0,1,1,2,1,,,,,,,,,,,,,,,,,,,,,,,,,,,,,,,,,,,,,,,,,,,,,,
027882,001,2022-11-20_17h49.59.116,Info_measure_main_exp,2022.2.2,Win32,74.96251874,,,,,,,,,,,,,,,,,,masks/mask_001.jpg,,,,,,,,,,,,,,,,,,,,,,,,,,,,,,,,,,,,,,,,,,0,2,2,0,1,,,,,,,,,,,,,,,,,,,,,,,,,,,,,,,,,,,,,,,,,,,,,,
027882,001,2022-11-20_17h49.59.116,Info_measure_main_exp,2022.2.2,Win32,74.96251874,,,,,,,,,,,,,,,,,,masks/mask_004.jpg,,,,,,,,,,,,,,,,,,,,,,,,,,,,,,,,,,,,,,,,,,0,3,3,3,1,,,,,,,,,,,,,,,,,,,,,,,,,,,,,,,,,,,,,,,,,,,,,,
027882,001,2022-11-20_17h49.59.116,Info_measure_main_exp,2022.2.2,Win32,74.96251874,,,,,,,,,,,,,,,,,,masks/mask_002.jpg,,,,,,,,,,,,,,,,,,,,,,,,,,,,,,,,,,,,,,,,,,0,4,4,1,1,,,,,,,,,,,,,,,,,,,,,,,,,,,,,,,,,,,,,,,,,,,,,,
027882,001,2022-11-20_17h49.59.116,Info_measure_main_exp,2022.2.2,Win32,74.96251874,,,,,,,,,,,,,,,,,,masks/mask_003.jpg,,,,,,,,,,,,,,,,,,,,,,,,,,,,,,,,,,,,,,,,,,,,,,,0,0,0,2,1,,,,,,,,,,,,,,,,,,,,,,,,,,,,,,,,,,,,,,,,,
027882,001,2022-11-20_17h49.59.116,Info_measure_main_exp,2022.2.2,Win32,74.96251874,,,,,,,,,,,,,,,,,,masks/mask_002.jpg,,,,,,,,,,,,,,,,,,,,,,,,,,,,,,,,,,,,,,,,,,,,,,,0,1,1,1,1,,,,,,,,,,,,,,,,,,,,,,,,,,,,,,,,,,,,,,,,,
027882,001,2022-11-20_17h49.59.116,Info_measure_main_exp,2022.2.2,Win32,74.96251874,,,,,,,,,,,,,,,,,,masks/mask_005.jpg,,,,,,,,,,,,,,,,,,,,,,,,,,,,,,,,,,,,,,,,,,,,,,,0,2,2,4,1,,,,,,,,,,,,,,,,,,,,,,,,,,,,,,,,,,,,,,,,,
027882,001,2022-11-20_17h49.59.116,Info_measure_main_exp,2022.2.2,Win32,74.96251874,,,,,,,,,,,,,,,,,,masks/mask_004.jpg,,,,,,,,,,,,,,,,,,,,,,,,,,,,,,,,,,,,,,,,,,,,,,,0,3,3,3,1,,,,,,,,,,,,,,,,,,,,,,,,,,,,,,,,,,,,,,,,,
027882,001,2022-11-20_17h49.59.116,Info_measure_main_exp,2022.2.2,Win32,74.96251874,,,,,,,,,,,,,,,,,,masks/mask_001.jpg,,,,,,,,,,,,,,,,,,,,,,,,,,,,,,,,,,,,,,,,,,,,,,,0,4,4,0,1,,,,,,,,,,,,,,,,,,,,,,,,,,,,,,,,,,,,,,,,,
027882,001,2022-11-20_17h49.59.116,Info_measure_main_exp,2022.2.2,Win32,74.96251874,,,,,,,,,,,,,,,,,,,,,,,,,,,,,,4,1.2936,1,,,,,,,,,,,,0,131,5,5,2190,2166,absent_patch/patch0002190.jpg,absent_patch/patch0002166.jpg,,,,,,,,,,,,,,,,,,,0.025925926,-0.049074074,1,0,0,response3disk,28,0.003703704,0.008333333,1,0,0,center_square,0,27,27,50,1,,,,,,,,,,,,,,,,,,,,,,,
027882,001,2022-11-20_17h49.59.116,Info_measure_main_exp,2022.2.2,Win32,74.96251874,,,,,,,,,,,,,,,,,,masks/mask_005.jpg,,,,,,,,,,,,,,,,,,,,,,,,,,,,,,,,,,,,,,,,,,0,0,0,4,1,,,,,,,,,,,,,,,,,,,,,,,,,,,,,,,,,,,,,,,,,,,,,,
027882,001,2022-11-20_17h49.59.116,Info_measure_main_exp,2022.2.2,Win32,74.96251874,,,,,,,,,,,,,,,,,,masks/mask_002.jpg,,,,,,,,,,,,,,,,,,,,,,,,,,,,,,,,,,,,,,,,,,0,1,1,1,1,,,,,,,,,,,,,,,,,,,,,,,,,,,,,,,,,,,,,,,,,,,,,,
027882,001,2022-11-20_17h49.59.116,Info_measure_main_exp,2022.2.2,Win32,74.96251874,,,,,,,,,,,,,,,,,,masks/mask_004.jpg,,,,,,,,,,,,,,,,,,,,,,,,,,,,,,,,,,,,,,,,,,0,2,2,3,1,,,,,,,,,,,,,,,,,,,,,,,,,,,,,,,,,,,,,,,,,,,,,,
027882,001,2022-11-20_17h49.59.116,Info_measure_main_exp,2022.2.2,Win32,74.96251874,,,,,,,,,,,,,,,,,,masks/mask_003.jpg,,,,,,,,,,,,,,,,,,,,,,,,,,,,,,,,,,,,,,,,,,0,3,3,2,1,,,,,,,,,,,,,,,,,,,,,,,,,,,,,,,,,,,,,,,,,,,,,,
027882,001,2022-11-20_17h49.59.116,Info_measure_main_exp,2022.2.2,Win32,74.96251874,,,,,,,,,,,,,,,,,,masks/mask_001.jpg,,,,,,,,,,,,,,,,,,,,,,,,,,,,,,,,,,,,,,,,,,0,4,4,0,1,,,,,,,,,,,,,,,,,,,,,,,,,,,,,,,,,,,,,,,,,,,,,,
027882,001,2022-11-20_17h49.59.116,Info_measure_main_exp,2022.2.2,Win32,74.96251874,,,,,,,,,,,,,,,,,,masks/mask_003.jpg,,,,,,,,,,,,,,,,,,,,,,,,,,,,,,,,,,,,,,,,,,,,,,,0,0,0,2,1,,,,,,,,,,,,,,,,,,,,,,,,,,,,,,,,,,,,,,,,,
027882,001,2022-11-20_17h49.59.116,Info_measure_main_exp,2022.2.2,Win32,74.96251874,,,,,,,,,,,,,,,,,,masks/mask_005.jpg,,,,,,,,,,,,,,,,,,,,,,,,,,,,,,,,,,,,,,,,,,,,,,,0,1,1,4,1,,,,,,,,,,,,,,,,,,,,,,,,,,,,,,,,,,,,,,,,,
027882,001,2022-11-20_17h49.59.116,Info_measure_main_exp,2022.2.2,Win32,74.96251874,,,,,,,,,,,,,,,,,,masks/mask_002.jpg,,,,,,,,,,,,,,,,,,,,,,,,,,,,,,,,,,,,,,,,,,,,,,,0,2,2,1,1,,,,,,,,,,,,,,,,,,,,,,,,,,,,,,,,,,,,,,,,,
027882,001,2022-11-20_17h49.59.116,Info_measure_main_exp,2022.2.2,Win32,74.96251874,,,,,,,,,,,,,,,,,,masks/mask_004.jpg,,,,,,,,,,,,,,,,,,,,,,,,,,,,,,,,,,,,,,,,,,,,,,,0,3,3,3,1,,,,,,,,,,,,,,,,,,,,,,,,,,,,,,,,,,,,,,,,,
027882,001,2022-11-20_17h49.59.116,Info_measure_main_exp,2022.2.2,Win32,74.96251874,,,,,,,,,,,,,,,,,,masks/mask_001.jpg,,,,,,,,,,,,,,,,,,,,,,,,,,,,,,,,,,,,,,,,,,,,,,,0,4,4,0,1,,,,,,,,,,,,,,,,,,,,,,,,,,,,,,,,,,,,,,,,,
027882,001,2022-11-20_17h49.59.116,Info_measure_main_exp,2022.2.2,Win32,74.96251874,,,,,,,,,,,,,,,,,,,,,,,,,,,,,,4,1.2137,1,,,,,,,,,,,,0,131,5,5,2178,2142,absent_patch/patch0002178.jpg,absent_patch/patch0002142.jpg,,,,,,,,,,,,,,,,,,,0.022222222,-0.065740741,1,0,0,response3disk,29,0.000925926,0,1,0,0,center_square,0,28,28,41,1,,,,,,,,,,,,,,,,,,,,,,,
027882,001,2022-11-20_17h49.59.116,Info_measure_main_exp,2022.2.2,Win32,74.96251874,,,,,,,,,,,,,,,,,,masks/mask_003.jpg,,,,,,,,,,,,,,,,,,,,,,,,,,,,,,,,,,,,,,,,,,0,0,0,2,1,,,,,,,,,,,,,,,,,,,,,,,,,,,,,,,,,,,,,,,,,,,,,,
027882,001,2022-11-20_17h49.59.116,Info_measure_main_exp,2022.2.2,Win32,74.96251874,,,,,,,,,,,,,,,,,,masks/mask_005.jpg,,,,,,,,,,,,,,,,,,,,,,,,,,,,,,,,,,,,,,,,,,0,1,1,4,1,,,,,,,,,,,,,,,,,,,,,,,,,,,,,,,,,,,,,,,,,,,,,,
027882,001,2022-11-20_17h49.59.116,Info_measure_main_exp,2022.2.2,Win32,74.96251874,,,,,,,,,,,,,,,,,,masks/mask_002.jpg,,,,,,,,,,,,,,,,,,,,,,,,,,,,,,,,,,,,,,,,,,0,2,2,1,1,,,,,,,,,,,,,,,,,,,,,,,,,,,,,,,,,,,,,,,,,,,,,,
027882,001,2022-11-20_17h49.59.116,Info_measure_main_exp,2022.2.2,Win32,74.96251874,,,,,,,,,,,,,,,,,,masks/mask_001.jpg,,,,,,,,,,,,,,,,,,,,,,,,,,,,,,,,,,,,,,,,,,0,3,3,0,1,,,,,,,,,,,,,,,,,,,,,,,,,,,,,,,,,,,,,,,,,,,,,,
027882,001,2022-11-20_17h49.59.116,Info_measure_main_exp,2022.2.2,Win32,74.96251874,,,,,,,,,,,,,,,,,,masks/mask_004.jpg,,,,,,,,,,,,,,,,,,,,,,,,,,,,,,,,,,,,,,,,,,0,4,4,3,1,,,,,,,,,,,,,,,,,,,,,,,,,,,,,,,,,,,,,,,,,,,,,,
027882,001,2022-11-20_17h49.59.116,Info_measure_main_exp,2022.2.2,Win32,74.96251874,,,,,,,,,,,,,,,,,,masks/mask_005.jpg,,,,,,,,,,,,,,,,,,,,,,,,,,,,,,,,,,,,,,,,,,,,,,,0,0,0,4,1,,,,,,,,,,,,,,,,,,,,,,,,,,,,,,,,,,,,,,,,,
027882,001,2022-11-20_17h49.59.116,Info_measure_main_exp,2022.2.2,Win32,74.96251874,,,,,,,,,,,,,,,,,,masks/mask_001.jpg,,,,,,,,,,,,,,,,,,,,,,,,,,,,,,,,,,,,,,,,,,,,,,,0,1,1,0,1,,,,,,,,,,,,,,,,,,,,,,,,,,,,,,,,,,,,,,,,,
027882,001,2022-11-20_17h49.59.116,Info_measure_main_exp,2022.2.2,Win32,74.96251874,,,,,,,,,,,,,,,,,,masks/mask_002.jpg,,,,,,,,,,,,,,,,,,,,,,,,,,,,,,,,,,,,,,,,,,,,,,,0,2,2,1,1,,,,,,,,,,,,,,,,,,,,,,,,,,,,,,,,,,,,,,,,,
027882,001,2022-11-20_17h49.59.116,Info_measure_main_exp,2022.2.2,Win32,74.96251874,,,,,,,,,,,,,,,,,,masks/mask_004.jpg,,,,,,,,,,,,,,,,,,,,,,,,,,,,,,,,,,,,,,,,,,,,,,,0,3,3,3,1,,,,,,,,,,,,,,,,,,,,,,,,,,,,,,,,,,,,,,,,,
027882,001,2022-11-20_17h49.59.116,Info_measure_main_exp,2022.2.2,Win32,74.96251874,,,,,,,,,,,,,,,,,,masks/mask_003.jpg,,,,,,,,,,,,,,,,,,,,,,,,,,,,,,,,,,,,,,,,,,,,,,,0,4,4,2,1,,,,,,,,,,,,,,,,,,,,,,,,,,,,,,,,,,,,,,,,,
027882,001,2022-11-20_17h49.59.116,Info_measure_main_exp,2022.2.2,Win32,74.96251874,,,,,,,,,,,,,,,,,,,,,,,,,,,,,,6,1.0936,1,,,,,,,,,,,,0,131,5,5,2250,2238,absent_patch/patch0002250.jpg,absent_patch/patch0002238.jpg,,,,,,,,,,,,,,,,,,,0.125925926,0.026851852,1,0,0,response1disk,30,0.001851852,-0.002777778,1,0,0,center_square,0,29,29,110,1,,,,,,,,,,,,,,,,,,,,,,,
027882,001,2022-11-20_17h49.59.116,Info_measure_main_exp,2022.2.2,Win32,74.96251874,,,,,,,,,,,,,,,,,,masks/mask_005.jpg,,,,,,,,,,,,,,,,,,,,,,,,,,,,,,,,,,,,,,,,,,0,0,0,4,1,,,,,,,,,,,,,,,,,,,,,,,,,,,,,,,,,,,,,,,,,,,,,,
027882,001,2022-11-20_17h49.59.116,Info_measure_main_exp,2022.2.2,Win32,74.96251874,,,,,,,,,,,,,,,,,,masks/mask_004.jpg,,,,,,,,,,,,,,,,,,,,,,,,,,,,,,,,,,,,,,,,,,0,1,1,3,1,,,,,,,,,,,,,,,,,,,,,,,,,,,,,,,,,,,,,,,,,,,,,,
027882,001,2022-11-20_17h49.59.116,Info_measure_main_exp,2022.2.2,Win32,74.96251874,,,,,,,,,,,,,,,,,,masks/mask_002.jpg,,,,,,,,,,,,,,,,,,,,,,,,,,,,,,,,,,,,,,,,,,0,2,2,1,1,,,,,,,,,,,,,,,,,,,,,,,,,,,,,,,,,,,,,,,,,,,,,,
027882,001,2022-11-20_17h49.59.116,Info_measure_main_exp,2022.2.2,Win32,74.96251874,,,,,,,,,,,,,,,,,,masks/mask_003.jpg,,,,,,,,,,,,,,,,,,,,,,,,,,,,,,,,,,,,,,,,,,0,3,3,2,1,,,,,,,,,,,,,,,,,,,,,,,,,,,,,,,,,,,,,,,,,,,,,,
027882,001,2022-11-20_17h49.59.116,Info_measure_main_exp,2022.2.2,Win32,74.96251874,,,,,,,,,,,,,,,,,,masks/mask_001.jpg,,,,,,,,,,,,,,,,,,,,,,,,,,,,,,,,,,,,,,,,,,0,4,4,0,1,,,,,,,,,,,,,,,,,,,,,,,,,,,,,,,,,,,,,,,,,,,,,,
027882,001,2022-11-20_17h49.59.116,Info_measure_main_exp,2022.2.2,Win32,74.96251874,,,,,,,,,,,,,,,,,,masks/mask_001.jpg,,,,,,,,,,,,,,,,,,,,,,,,,,,,,,,,,,,,,,,,,,,,,,,0,0,0,0,1,,,,,,,,,,,,,,,,,,,,,,,,,,,,,,,,,,,,,,,,,
027882,001,2022-11-20_17h49.59.116,Info_measure_main_exp,2022.2.2,Win32,74.96251874,,,,,,,,,,,,,,,,,,masks/mask_003.jpg,,,,,,,,,,,,,,,,,,,,,,,,,,,,,,,,,,,,,,,,,,,,,,,0,1,1,2,1,,,,,,,,,,,,,,,,,,,,,,,,,,,,,,,,,,,,,,,,,
027882,001,2022-11-20_17h49.59.116,Info_measure_main_exp,2022.2.2,Win32,74.96251874,,,,,,,,,,,,,,,,,,masks/mask_002.jpg,,,,,,,,,,,,,,,,,,,,,,,,,,,,,,,,,,,,,,,,,,,,,,,0,2,2,1,1,,,,,,,,,,,,,,,,,,,,,,,,,,,,,,,,,,,,,,,,,
027882,001,2022-11-20_17h49.59.116,Info_measure_main_exp,2022.2.2,Win32,74.96251874,,,,,,,,,,,,,,,,,,masks/mask_005.jpg,,,,,,,,,,,,,,,,,,,,,,,,,,,,,,,,,,,,,,,,,,,,,,,0,3,3,4,1,,,,,,,,,,,,,,,,,,,,,,,,,,,,,,,,,,,,,,,,,
027882,001,2022-11-20_17h49.59.116,Info_measure_main_exp,2022.2.2,Win32,74.96251874,,,,,,,,,,,,,,,,,,masks/mask_004.jpg,,,,,,,,,,,,,,,,,,,,,,,,,,,,,,,,,,,,,,,,,,,,,,,0,4,4,3,1,,,,,,,,,,,,,,,,,,,,,,,,,,,,,,,,,,,,,,,,,
027882,001,2022-11-20_17h49.59.116,Info_measure_main_exp,2022.2.2,Win32,74.96251874,,,,,,,,,,,,,,,,,,,,,,,,,,,,,,6,0.6403,1,,,,,,,,,,,,0,131,5,5,1950,2238,absent_patch/patch0001950.jpg,absent_patch/patch0002238.jpg,,,,,,,,,,,,,,,,,,,0.111111111,0.077777778,1,0,0,response1disk,31,0.013888889,0.000925926,1,0,0,center_square,0,30,30,8,1,,,,,,,,,,,,,,,,,,,,,,,
027882,001,2022-11-20_17h49.59.116,Info_measure_main_exp,2022.2.2,Win32,74.96251874,,,,,,,,,,,,,,,,,,masks/mask_002.jpg,,,,,,,,,,,,,,,,,,,,,,,,,,,,,,,,,,,,,,,,,,0,0,0,1,1,,,,,,,,,,,,,,,,,,,,,,,,,,,,,,,,,,,,,,,,,,,,,,
027882,001,2022-11-20_17h49.59.116,Info_measure_main_exp,2022.2.2,Win32,74.96251874,,,,,,,,,,,,,,,,,,masks/mask_001.jpg,,,,,,,,,,,,,,,,,,,,,,,,,,,,,,,,,,,,,,,,,,0,1,1,0,1,,,,,,,,,,,,,,,,,,,,,,,,,,,,,,,,,,,,,,,,,,,,,,
027882,001,2022-11-20_17h49.59.116,Info_measure_main_exp,2022.2.2,Win32,74.96251874,,,,,,,,,,,,,,,,,,masks/mask_003.jpg,,,,,,,,,,,,,,,,,,,,,,,,,,,,,,,,,,,,,,,,,,0,2,2,2,1,,,,,,,,,,,,,,,,,,,,,,,,,,,,,,,,,,,,,,,,,,,,,,
027882,001,2022-11-20_17h49.59.116,Info_measure_main_exp,2022.2.2,Win32,74.96251874,,,,,,,,,,,,,,,,,,masks/mask_004.jpg,,,,,,,,,,,,,,,,,,,,,,,,,,,,,,,,,,,,,,,,,,0,3,3,3,1,,,,,,,,,,,,,,,,,,,,,,,,,,,,,,,,,,,,,,,,,,,,,,
027882,001,2022-11-20_17h49.59.116,Info_measure_main_exp,2022.2.2,Win32,74.96251874,,,,,,,,,,,,,,,,,,masks/mask_005.jpg,,,,,,,,,,,,,,,,,,,,,,,,,,,,,,,,,,,,,,,,,,0,4,4,4,1,,,,,,,,,,,,,,,,,,,,,,,,,,,,,,,,,,,,,,,,,,,,,,
027882,001,2022-11-20_17h49.59.116,Info_measure_main_exp,2022.2.2,Win32,74.96251874,,,,,,,,,,,,,,,,,,masks/mask_005.jpg,,,,,,,,,,,,,,,,,,,,,,,,,,,,,,,,,,,,,,,,,,,,,,,0,0,0,4,1,,,,,,,,,,,,,,,,,,,,,,,,,,,,,,,,,,,,,,,,,
027882,001,2022-11-20_17h49.59.116,Info_measure_main_exp,2022.2.2,Win32,74.96251874,,,,,,,,,,,,,,,,,,masks/mask_001.jpg,,,,,,,,,,,,,,,,,,,,,,,,,,,,,,,,,,,,,,,,,,,,,,,0,1,1,0,1,,,,,,,,,,,,,,,,,,,,,,,,,,,,,,,,,,,,,,,,,
027882,001,2022-11-20_17h49.59.116,Info_measure_main_exp,2022.2.2,Win32,74.96251874,,,,,,,,,,,,,,,,,,masks/mask_004.jpg,,,,,,,,,,,,,,,,,,,,,,,,,,,,,,,,,,,,,,,,,,,,,,,0,2,2,3,1,,,,,,,,,,,,,,,,,,,,,,,,,,,,,,,,,,,,,,,,,
027882,001,2022-11-20_17h49.59.116,Info_measure_main_exp,2022.2.2,Win32,74.96251874,,,,,,,,,,,,,,,,,,masks/mask_003.jpg,,,,,,,,,,,,,,,,,,,,,,,,,,,,,,,,,,,,,,,,,,,,,,,0,3,3,2,1,,,,,,,,,,,,,,,,,,,,,,,,,,,,,,,,,,,,,,,,,
027882,001,2022-11-20_17h49.59.116,Info_measure_main_exp,2022.2.2,Win32,74.96251874,,,,,,,,,,,,,,,,,,masks/mask_002.jpg,,,,,,,,,,,,,,,,,,,,,,,,,,,,,,,,,,,,,,,,,,,,,,,0,4,4,1,1,,,,,,,,,,,,,,,,,,,,,,,,,,,,,,,,,,,,,,,,,
027882,001,2022-11-20_17h49.59.116,Info_measure_main_exp,2022.2.2,Win32,74.96251874,,,,,,,,,,,,,,,,,,,,,,,,,,,,,,5,0.9077,1,,,,,,,,,,,,0,131,5,5,2142,2190,absent_patch/patch0002142.jpg,absent_patch/patch0002190.jpg,,,,,,,,,,,,,,,,,,,0.087037037,-0.025925926,1,0,0,response3disk,32,0.000925926,0.001851852,1,0,0,center_square,0,31,31,70,1,,,,,,,,,,,,,,,,,,,,,,,
027882,001,2022-11-20_17h49.59.116,Info_measure_main_exp,2022.2.2,Win32,74.96251874,,,,,,,,,,,,,,,,,,masks/mask_005.jpg,,,,,,,,,,,,,,,,,,,,,,,,,,,,,,,,,,,,,,,,,,0,0,0,4,1,,,,,,,,,,,,,,,,,,,,,,,,,,,,,,,,,,,,,,,,,,,,,,
027882,001,2022-11-20_17h49.59.116,Info_measure_main_exp,2022.2.2,Win32,74.96251874,,,,,,,,,,,,,,,,,,masks/mask_002.jpg,,,,,,,,,,,,,,,,,,,,,,,,,,,,,,,,,,,,,,,,,,0,1,1,1,1,,,,,,,,,,,,,,,,,,,,,,,,,,,,,,,,,,,,,,,,,,,,,,
027882,001,2022-11-20_17h49.59.116,Info_measure_main_exp,2022.2.2,Win32,74.96251874,,,,,,,,,,,,,,,,,,masks/mask_004.jpg,,,,,,,,,,,,,,,,,,,,,,,,,,,,,,,,,,,,,,,,,,0,2,2,3,1,,,,,,,,,,,,,,,,,,,,,,,,,,,,,,,,,,,,,,,,,,,,,,
027882,001,2022-11-20_17h49.59.116,Info_measure_main_exp,2022.2.2,Win32,74.96251874,,,,,,,,,,,,,,,,,,masks/mask_003.jpg,,,,,,,,,,,,,,,,,,,,,,,,,,,,,,,,,,,,,,,,,,0,3,3,2,1,,,,,,,,,,,,,,,,,,,,,,,,,,,,,,,,,,,,,,,,,,,,,,
027882,001,2022-11-20_17h49.59.116,Info_measure_main_exp,2022.2.2,Win32,74.96251874,,,,,,,,,,,,,,,,,,masks/mask_001.jpg,,,,,,,,,,,,,,,,,,,,,,,,,,,,,,,,,,,,,,,,,,0,4,4,0,1,,,,,,,,,,,,,,,,,,,,,,,,,,,,,,,,,,,,,,,,,,,,,,
027882,001,2022-11-20_17h49.59.116,Info_measure_main_exp,2022.2.2,Win32,74.96251874,,,,,,,,,,,,,,,,,,masks/mask_003.jpg,,,,,,,,,,,,,,,,,,,,,,,,,,,,,,,,,,,,,,,,,,,,,,,0,0,0,2,1,,,,,,,,,,,,,,,,,,,,,,,,,,,,,,,,,,,,,,,,,
027882,001,2022-11-20_17h49.59.116,Info_measure_main_exp,2022.2.2,Win32,74.96251874,,,,,,,,,,,,,,,,,,masks/mask_004.jpg,,,,,,,,,,,,,,,,,,,,,,,,,,,,,,,,,,,,,,,,,,,,,,,0,1,1,3,1,,,,,,,,,,,,,,,,,,,,,,,,,,,,,,,,,,,,,,,,,
027882,001,2022-11-20_17h49.59.116,Info_measure_main_exp,2022.2.2,Win32,74.96251874,,,,,,,,,,,,,,,,,,masks/mask_005.jpg,,,,,,,,,,,,,,,,,,,,,,,,,,,,,,,,,,,,,,,,,,,,,,,0,2,2,4,1,,,,,,,,,,,,,,,,,,,,,,,,,,,,,,,,,,,,,,,,,
027882,001,2022-11-20_17h49.59.116,Info_measure_main_exp,2022.2.2,Win32,74.96251874,,,,,,,,,,,,,,,,,,masks/mask_002.jpg,,,,,,,,,,,,,,,,,,,,,,,,,,,,,,,,,,,,,,,,,,,,,,,0,3,3,1,1,,,,,,,,,,,,,,,,,,,,,,,,,,,,,,,,,,,,,,,,,
027882,001,2022-11-20_17h49.59.116,Info_measure_main_exp,2022.2.2,Win32,74.96251874,,,,,,,,,,,,,,,,,,masks/mask_001.jpg,,,,,,,,,,,,,,,,,,,,,,,,,,,,,,,,,,,,,,,,,,,,,,,0,4,4,0,1,,,,,,,,,,,,,,,,,,,,,,,,,,,,,,,,,,,,,,,,,
027882,001,2022-11-20_17h49.59.116,Info_measure_main_exp,2022.2.2,Win32,74.96251874,,,,,,,,,,,,,,,,,,,,,,,,,,,,,,7,0.5737,1,,,,,,,,,,,,0,131,5,5,2154,2298,absent_patch/patch0002154.jpg,absent_patch/patch0002298.jpg,,,,,,,,,,,,,,,,,,,0.038888889,0.125,1,0,0,response1disk,33,0.000925926,0.007407407,1,0,0,center_square,0,32,32,27,1,,,,,,,,,,,,,,,,,,,,,,,
027882,001,2022-11-20_17h49.59.116,Info_measure_main_exp,2022.2.2,Win32,74.96251874,,,,,,,,,,,,,,,,,,masks/mask_002.jpg,,,,,,,,,,,,,,,,,,,,,,,,,,,,,,,,,,,,,,,,,,0,0,0,1,1,,,,,,,,,,,,,,,,,,,,,,,,,,,,,,,,,,,,,,,,,,,,,,
027882,001,2022-11-20_17h49.59.116,Info_measure_main_exp,2022.2.2,Win32,74.96251874,,,,,,,,,,,,,,,,,,masks/mask_005.jpg,,,,,,,,,,,,,,,,,,,,,,,,,,,,,,,,,,,,,,,,,,0,1,1,4,1,,,,,,,,,,,,,,,,,,,,,,,,,,,,,,,,,,,,,,,,,,,,,,
027882,001,2022-11-20_17h49.59.116,Info_measure_main_exp,2022.2.2,Win32,74.96251874,,,,,,,,,,,,,,,,,,masks/mask_004.jpg,,,,,,,,,,,,,,,,,,,,,,,,,,,,,,,,,,,,,,,,,,0,2,2,3,1,,,,,,,,,,,,,,,,,,,,,,,,,,,,,,,,,,,,,,,,,,,,,,
027882,001,2022-11-20_17h49.59.116,Info_measure_main_exp,2022.2.2,Win32,74.96251874,,,,,,,,,,,,,,,,,,masks/mask_001.jpg,,,,,,,,,,,,,,,,,,,,,,,,,,,,,,,,,,,,,,,,,,0,3,3,0,1,,,,,,,,,,,,,,,,,,,,,,,,,,,,,,,,,,,,,,,,,,,,,,
027882,001,2022-11-20_17h49.59.116,Info_measure_main_exp,2022.2.2,Win32,74.96251874,,,,,,,,,,,,,,,,,,masks/mask_003.jpg,,,,,,,,,,,,,,,,,,,,,,,,,,,,,,,,,,,,,,,,,,0,4,4,2,1,,,,,,,,,,,,,,,,,,,,,,,,,,,,,,,,,,,,,,,,,,,,,,
027882,001,2022-11-20_17h49.59.116,Info_measure_main_exp,2022.2.2,Win32,74.96251874,,,,,,,,,,,,,,,,,,masks/mask_002.jpg,,,,,,,,,,,,,,,,,,,,,,,,,,,,,,,,,,,,,,,,,,,,,,,0,0,0,1,1,,,,,,,,,,,,,,,,,,,,,,,,,,,,,,,,,,,,,,,,,
027882,001,2022-11-20_17h49.59.116,Info_measure_main_exp,2022.2.2,Win32,74.96251874,,,,,,,,,,,,,,,,,,masks/mask_004.jpg,,,,,,,,,,,,,,,,,,,,,,,,,,,,,,,,,,,,,,,,,,,,,,,0,1,1,3,1,,,,,,,,,,,,,,,,,,,,,,,,,,,,,,,,,,,,,,,,,
027882,001,2022-11-20_17h49.59.116,Info_measure_main_exp,2022.2.2,Win32,74.96251874,,,,,,,,,,,,,,,,,,masks/mask_003.jpg,,,,,,,,,,,,,,,,,,,,,,,,,,,,,,,,,,,,,,,,,,,,,,,0,2,2,2,1,,,,,,,,,,,,,,,,,,,,,,,,,,,,,,,,,,,,,,,,,
027882,001,2022-11-20_17h49.59.116,Info_measure_main_exp,2022.2.2,Win32,74.96251874,,,,,,,,,,,,,,,,,,masks/mask_005.jpg,,,,,,,,,,,,,,,,,,,,,,,,,,,,,,,,,,,,,,,,,,,,,,,0,3,3,4,1,,,,,,,,,,,,,,,,,,,,,,,,,,,,,,,,,,,,,,,,,
027882,001,2022-11-20_17h49.59.116,Info_measure_main_exp,2022.2.2,Win32,74.96251874,,,,,,,,,,,,,,,,,,masks/mask_001.jpg,,,,,,,,,,,,,,,,,,,,,,,,,,,,,,,,,,,,,,,,,,,,,,,0,4,4,0,1,,,,,,,,,,,,,,,,,,,,,,,,,,,,,,,,,,,,,,,,,
027882,001,2022-11-20_17h49.59.116,Info_measure_main_exp,2022.2.2,Win32,74.96251874,,,,,,,,,,,,,,,,,,,,,,,,,,,,,,0,0.6801,1,,,,,,,,,,,,0,131,5,5,2154,2154,absent_patch/patch0002154.jpg,absent_patch/patch0002154.jpg,,,,,,,,,,,,,,,,,,,-0.04537037,0.148148148,1,0,0,response7disk,34,-0.012962963,0.003703704,1,0,0,center_square,0,33,33,89,1,,,,,,,,,,,,,,,,,,,,,,,
027882,001,2022-11-20_17h49.59.116,Info_measure_main_exp,2022.2.2,Win32,74.96251874,,,,,,,,,,,,,,,,,,masks/mask_005.jpg,,,,,,,,,,,,,,,,,,,,,,,,,,,,,,,,,,,,,,,,,,0,0,0,4,1,,,,,,,,,,,,,,,,,,,,,,,,,,,,,,,,,,,,,,,,,,,,,,
027882,001,2022-11-20_17h49.59.116,Info_measure_main_exp,2022.2.2,Win32,74.96251874,,,,,,,,,,,,,,,,,,masks/mask_002.jpg,,,,,,,,,,,,,,,,,,,,,,,,,,,,,,,,,,,,,,,,,,0,1,1,1,1,,,,,,,,,,,,,,,,,,,,,,,,,,,,,,,,,,,,,,,,,,,,,,
027882,001,2022-11-20_17h49.59.116,Info_measure_main_exp,2022.2.2,Win32,74.96251874,,,,,,,,,,,,,,,,,,masks/mask_001.jpg,,,,,,,,,,,,,,,,,,,,,,,,,,,,,,,,,,,,,,,,,,0,2,2,0,1,,,,,,,,,,,,,,,,,,,,,,,,,,,,,,,,,,,,,,,,,,,,,,
027882,001,2022-11-20_17h49.59.116,Info_measure_main_exp,2022.2.2,Win32,74.96251874,,,,,,,,,,,,,,,,,,masks/mask_003.jpg,,,,,,,,,,,,,,,,,,,,,,,,,,,,,,,,,,,,,,,,,,0,3,3,2,1,,,,,,,,,,,,,,,,,,,,,,,,,,,,,,,,,,,,,,,,,,,,,,
027882,001,2022-11-20_17h49.59.116,Info_measure_main_exp,2022.2.2,Win32,74.96251874,,,,,,,,,,,,,,,,,,masks/mask_004.jpg,,,,,,,,,,,,,,,,,,,,,,,,,,,,,,,,,,,,,,,,,,0,4,4,3,1,,,,,,,,,,,,,,,,,,,,,,,,,,,,,,,,,,,,,,,,,,,,,,
027882,001,2022-11-20_17h49.59.116,Info_measure_main_exp,2022.2.2,Win32,74.96251874,,,,,,,,,,,,,,,,,,masks/mask_004.jpg,,,,,,,,,,,,,,,,,,,,,,,,,,,,,,,,,,,,,,,,,,,,,,,0,0,0,3,1,,,,,,,,,,,,,,,,,,,,,,,,,,,,,,,,,,,,,,,,,
027882,001,2022-11-20_17h49.59.116,Info_measure_main_exp,2022.2.2,Win32,74.96251874,,,,,,,,,,,,,,,,,,masks/mask_002.jpg,,,,,,,,,,,,,,,,,,,,,,,,,,,,,,,,,,,,,,,,,,,,,,,0,1,1,1,1,,,,,,,,,,,,,,,,,,,,,,,,,,,,,,,,,,,,,,,,,
027882,001,2022-11-20_17h49.59.116,Info_measure_main_exp,2022.2.2,Win32,74.96251874,,,,,,,,,,,,,,,,,,masks/mask_001.jpg,,,,,,,,,,,,,,,,,,,,,,,,,,,,,,,,,,,,,,,,,,,,,,,0,2,2,0,1,,,,,,,,,,,,,,,,,,,,,,,,,,,,,,,,,,,,,,,,,
027882,001,2022-11-20_17h49.59.116,Info_measure_main_exp,2022.2.2,Win32,74.96251874,,,,,,,,,,,,,,,,,,masks/mask_003.jpg,,,,,,,,,,,,,,,,,,,,,,,,,,,,,,,,,,,,,,,,,,,,,,,0,3,3,2,1,,,,,,,,,,,,,,,,,,,,,,,,,,,,,,,,,,,,,,,,,
027882,001,2022-11-20_17h49.59.116,Info_measure_main_exp,2022.2.2,Win32,74.96251874,,,,,,,,,,,,,,,,,,masks/mask_005.jpg,,,,,,,,,,,,,,,,,,,,,,,,,,,,,,,,,,,,,,,,,,,,,,,0,4,4,4,1,,,,,,,,,,,,,,,,,,,,,,,,,,,,,,,,,,,,,,,,,
