participant,session,date,expName,psychopyVersion,OS,frameRate,space_press_continue.keys,space_press_continue.rt,space_press_continue_2.keys,space_press_continue_2.rt,space_press_continue_3.keys,space_press_continue_3.rt,space_press_continue_4.keys,space_press_continue_4.rt,space_press_continue_5.keys,space_press_continue_5.rt,space_press_continue_6.keys,space_press_continue_6.rt,prac_mask_loop_1.thisRepN,prac_mask_loop_1.thisTrialN,prac_mask_loop_1.thisN,prac_mask_loop_1.thisIndex,prac_mask_loop_1.ran,mask_name,prac_mask_loop_2.thisRepN,prac_mask_loop_2.thisTrialN,prac_mask_loop_2.thisN,prac_mask_loop_2.thisIndex,prac_mask_loop_2.ran,mouse_2.x,mouse_2.y,mouse_2.leftButton,mouse_2.midButton,mouse_2.rightButton,mouse_2.clicked_name,similarity,response_time,Pass,mouse_12.x,mouse_12.y,mouse_12.leftButton,mouse_12.midButton,mouse_12.rightButton,mouse_12.clicked_name,prac_loop.thisRepN,prac_loop.thisTrialN,prac_loop.thisN,prac_loop.thisIndex,prac_loop.ran,Pair_type,Image_num,Patch_1_loc,Patch_2_loc,Patch_1_info,Patch_2_info,Patch_1_name,Patch_2_name,mouse_1.x,mouse_1.y,mouse_1.leftButton,mouse_1.midButton,mouse_1.rightButton,mouse_1.time,mouse_1.clicked_name,space_press_continue_7.keys,space_press_continue_7.rt,mask_loop.thisRepN,mask_loop.thisTrialN,mask_loop.thisN,mask_loop.thisIndex,mask_loop.ran,mask_loop_2.thisRepN,mask_loop_2.thisTrialN,mask_loop_2.thisN,mask_loop_2.thisIndex,mask_loop_2.ran,mouse.x,mouse.y,mouse.leftButton,mouse.midButton,mouse.rightButton,mouse.clicked_name,trialNumber,mouse_11.x,mouse_11.y,mouse_11.leftButton,mouse_11.midButton,mouse_11.rightButton,mouse_11.clicked_name,first_pass_loop.thisRepN,first_pass_loop.thisTrialN,first_pass_loop.thisN,first_pass_loop.thisIndex,first_pass_loop.ran,mask_loop_3.thisRepN,mask_loop_3.thisTrialN,mask_loop_3.thisN,mask_loop_3.thisIndex,mask_loop_3.ran,mask_loop_4.thisRepN,mask_loop_4.thisTrialN,mask_loop_4.thisN,mask_loop_4.thisIndex,mask_loop_4.ran,mouse_3.x,mouse_3.y,mouse_3.leftButton,mouse_3.midButton,mouse_3.rightButton,mouse_3.clicked_name,double_pass_loop.thisRepN,double_pass_loop.thisTrialN,double_pass_loop.thisN,double_pass_loop.thisIndex,double_pass_loop.ran,space_exit.keys,space_exit.rt
029389,001,2022-11-20_17h55.42.999,Info_measure_main_exp,2022.2.2,Win32,59.99520038,,,,,,,,,,,,,,,,,,,,,,,,,,,,,,,,,,,,,,,,,,,,,,,,,,,,,,,,,,,,,,,,,,,,,,,,,,,,,,,,,,,,,,,,,,,,,,,,,,,,,,,,,,,,,,,
029389,001,2022-11-20_17h55.42.999,Info_measure_main_exp,2022.2.2,Win32,59.99520038,,,,,,,,,,,,,,,,,,,,,,,,,,,,,,,,,,,,,,,,,,,,,,,,,,,,,,,,,,,,,,,,,,,,,,,,,,,,,,,,,,,,,,,,,,,,,,,,,,,,,,,,,,,,,,,
029389,001,2022-11-20_17h55.42.999,Info_measure_main_exp,2022.2.2,Win32,59.99520038,space,8.1958,,,,,,,,,,,,,,,,,,,,,,,,,,,,,,,,,,,,,,,,,,,,,,,,,,,,,,,,,,,,,,,,,,,,,,,,,,,,,,,,,,,,,,,,,,,,,,,,,,,,,,,,,,,,,
029389,001,2022-11-20_17h55.42.999,Info_measure_main_exp,2022.2.2,Win32,59.99520038,,,space,26.9959,,,,,,,,,,,,,,,,,,,,,,,,,,,,,,,,,,,,,,,,,,,,,,,,,,,,,,,,,,,,,,,,,,,,,,,,,,,,,,,,,,,,,,,,,,,,,,,,,,,,,,,,,,,
029389,001,2022-11-20_17h55.42.999,Info_measure_main_exp,2022.2.2,Win32,59.99520038,,,,,space,5.6277,,,,,,,,,,,,,,,,,,,,,,,,,,,,,,,,,,,,,,,,,,,,,,,,,,,,,,,,,,,,,,,,,,,,,,,,,,,,,,,,,,,,,,,,,,,,,,,,,,,,,,,,,
029389,001,2022-11-20_17h55.42.999,Info_measure_main_exp,2022.2.2,Win32,59.99520038,,,,,,,space,15.2986,,,,,,,,,,,,,,,,,,,,,,,,,,,,,,,,,,,,,,,,,,,,,,,,,,,,,,,,,,,,,,,,,,,,,,,,,,,,,,,,,,,,,,,,,,,,,,,,,,,,,,,
029389,001,2022-11-20_17h55.42.999,Info_measure_main_exp,2022.2.2,Win32,59.99520038,,,,,,,,,space,8.6236,,,,,,,,,,,,,,,,,,,,,,,,,,,,,,,,,,,,,,,,,,,,,,,,,,,,,,,,,,,,,,,,,,,,,,,,,,,,,,,,,,,,,,,,,,,,,,,,,,,,,
029389,001,2022-11-20_17h55.42.999,Info_measure_main_exp,2022.2.2,Win32,59.99520038,,,,,,,,,,,space,16.8639,,,,,,,,,,,,,,,,,,,,,,,,,,,,,,,,,,,,,,,,,,,,,,,,,,,,,,,,,,,,,,,,,,,,,,,,,,,,,,,,,,,,,,,,,,,,,,,,,,,
029389,001,2022-11-20_17h55.42.999,Info_measure_main_exp,2022.2.2,Win32,59.99520038,,,,,,,,,,,,,0,0,0,4,1,masks/mask_005.jpg,,,,,,,,,,,,,,,,,,,,,,,,,,,,,,,,,,,,,,,,,,,,,,,,,,,,,,,,,,,,,,,,,,,,,,,,,,,,,,,,,,,,,,,,,,,,,
029389,001,2022-11-20_17h55.42.999,Info_measure_main_exp,2022.2.2,Win32,59.99520038,,,,,,,,,,,,,0,1,1,3,1,masks/mask_004.jpg,,,,,,,,,,,,,,,,,,,,,,,,,,,,,,,,,,,,,,,,,,,,,,,,,,,,,,,,,,,,,,,,,,,,,,,,,,,,,,,,,,,,,,,,,,,,,
029389,001,2022-11-20_17h55.42.999,Info_measure_main_exp,2022.2.2,Win32,59.99520038,,,,,,,,,,,,,0,2,2,1,1,masks/mask_002.jpg,,,,,,,,,,,,,,,,,,,,,,,,,,,,,,,,,,,,,,,,,,,,,,,,,,,,,,,,,,,,,,,,,,,,,,,,,,,,,,,,,,,,,,,,,,,,,
029389,001,2022-11-20_17h55.42.999,Info_measure_main_exp,2022.2.2,Win32,59.99520038,,,,,,,,,,,,,0,3,3,2,1,masks/mask_003.jpg,,,,,,,,,,,,,,,,,,,,,,,,,,,,,,,,,,,,,,,,,,,,,,,,,,,,,,,,,,,,,,,,,,,,,,,,,,,,,,,,,,,,,,,,,,,,,
029389,001,2022-11-20_17h55.42.999,Info_measure_main_exp,2022.2.2,Win32,59.99520038,,,,,,,,,,,,,0,4,4,0,1,masks/mask_001.jpg,,,,,,,,,,,,,,,,,,,,,,,,,,,,,,,,,,,,,,,,,,,,,,,,,,,,,,,,,,,,,,,,,,,,,,,,,,,,,,,,,,,,,,,,,,,,,
029389,001,2022-11-20_17h55.42.999,Info_measure_main_exp,2022.2.2,Win32,59.99520038,,,,,,,,,,,,,,,,,,masks/mask_003.jpg,0,0,0,2,1,,,,,,,,,,,,,,,,,,,,,,,,,,,,,,,,,,,,,,,,,,,,,,,,,,,,,,,,,,,,,,,,,,,,,,,,,,,,,,,,,,,,,,,,
029389,001,2022-11-20_17h55.42.999,Info_measure_main_exp,2022.2.2,Win32,59.99520038,,,,,,,,,,,,,,,,,,masks/mask_001.jpg,0,1,1,0,1,,,,,,,,,,,,,,,,,,,,,,,,,,,,,,,,,,,,,,,,,,,,,,,,,,,,,,,,,,,,,,,,,,,,,,,,,,,,,,,,,,,,,,,,
029389,001,2022-11-20_17h55.42.999,Info_measure_main_exp,2022.2.2,Win32,59.99520038,,,,,,,,,,,,,,,,,,masks/mask_004.jpg,0,2,2,3,1,,,,,,,,,,,,,,,,,,,,,,,,,,,,,,,,,,,,,,,,,,,,,,,,,,,,,,,,,,,,,,,,,,,,,,,,,,,,,,,,,,,,,,,,
029389,001,2022-11-20_17h55.42.999,Info_measure_main_exp,2022.2.2,Win32,59.99520038,,,,,,,,,,,,,,,,,,masks/mask_005.jpg,0,3,3,4,1,,,,,,,,,,,,,,,,,,,,,,,,,,,,,,,,,,,,,,,,,,,,,,,,,,,,,,,,,,,,,,,,,,,,,,,,,,,,,,,,,,,,,,,,
029389,001,2022-11-20_17h55.42.999,Info_measure_main_exp,2022.2.2,Win32,59.99520038,,,,,,,,,,,,,,,,,,masks/mask_002.jpg,0,4,4,1,1,,,,,,,,,,,,,,,,,,,,,,,,,,,,,,,,,,,,,,,,,,,,,,,,,,,,,,,,,,,,,,,,,,,,,,,,,,,,,,,,,,,,,,,,
029389,001,2022-11-20_17h55.42.999,Info_measure_main_exp,2022.2.2,Win32,59.99520038,,,,,,,,,,,,,,,,,,,,,,,,-0.052777778,-0.125925926,1,0,0,response5disk,3,87.8757,1,0.002777778,0,1,0,0,center_square,0,0,0,0,1,0,131,5,5,2370,2406,prac_patch/patch0002370.jpg,prac_patch/patch0002406.jpg,,,,,,,,,,,,,,,,,,,,,,,,,,,,,,,,,,,,,,,,,,,,,,,,,,,,,,,,,,,,
029389,001,2022-11-20_17h55.42.999,Info_measure_main_exp,2022.2.2,Win32,59.99520038,,,,,,,,,,,,,0,0,0,4,1,masks/mask_005.jpg,,,,,,,,,,,,,,,,,,,,,,,,,,,,,,,,,,,,,,,,,,,,,,,,,,,,,,,,,,,,,,,,,,,,,,,,,,,,,,,,,,,,,,,,,,,,,
029389,001,2022-11-20_17h55.42.999,Info_measure_main_exp,2022.2.2,Win32,59.99520038,,,,,,,,,,,,,0,1,1,2,1,masks/mask_003.jpg,,,,,,,,,,,,,,,,,,,,,,,,,,,,,,,,,,,,,,,,,,,,,,,,,,,,,,,,,,,,,,,,,,,,,,,,,,,,,,,,,,,,,,,,,,,,,
029389,001,2022-11-20_17h55.42.999,Info_measure_main_exp,2022.2.2,Win32,59.99520038,,,,,,,,,,,,,0,2,2,3,1,masks/mask_004.jpg,,,,,,,,,,,,,,,,,,,,,,,,,,,,,,,,,,,,,,,,,,,,,,,,,,,,,,,,,,,,,,,,,,,,,,,,,,,,,,,,,,,,,,,,,,,,,
029389,001,2022-11-20_17h55.42.999,Info_measure_main_exp,2022.2.2,Win32,59.99520038,,,,,,,,,,,,,0,3,3,1,1,masks/mask_002.jpg,,,,,,,,,,,,,,,,,,,,,,,,,,,,,,,,,,,,,,,,,,,,,,,,,,,,,,,,,,,,,,,,,,,,,,,,,,,,,,,,,,,,,,,,,,,,,
029389,001,2022-11-20_17h55.42.999,Info_measure_main_exp,2022.2.2,Win32,59.99520038,,,,,,,,,,,,,0,4,4,0,1,masks/mask_001.jpg,,,,,,,,,,,,,,,,,,,,,,,,,,,,,,,,,,,,,,,,,,,,,,,,,,,,,,,,,,,,,,,,,,,,,,,,,,,,,,,,,,,,,,,,,,,,,
029389,001,2022-11-20_17h55.42.999,Info_measure_main_exp,2022.2.2,Win32,59.99520038,,,,,,,,,,,,,,,,,,masks/mask_003.jpg,0,0,0,2,1,,,,,,,,,,,,,,,,,,,,,,,,,,,,,,,,,,,,,,,,,,,,,,,,,,,,,,,,,,,,,,,,,,,,,,,,,,,,,,,,,,,,,,,,
029389,001,2022-11-20_17h55.42.999,Info_measure_main_exp,2022.2.2,Win32,59.99520038,,,,,,,,,,,,,,,,,,masks/mask_005.jpg,0,1,1,4,1,,,,,,,,,,,,,,,,,,,,,,,,,,,,,,,,,,,,,,,,,,,,,,,,,,,,,,,,,,,,,,,,,,,,,,,,,,,,,,,,,,,,,,,,
029389,001,2022-11-20_17h55.42.999,Info_measure_main_exp,2022.2.2,Win32,59.99520038,,,,,,,,,,,,,,,,,,masks/mask_002.jpg,0,2,2,1,1,,,,,,,,,,,,,,,,,,,,,,,,,,,,,,,,,,,,,,,,,,,,,,,,,,,,,,,,,,,,,,,,,,,,,,,,,,,,,,,,,,,,,,,,
029389,001,2022-11-20_17h55.42.999,Info_measure_main_exp,2022.2.2,Win32,59.99520038,,,,,,,,,,,,,,,,,,masks/mask_004.jpg,0,3,3,3,1,,,,,,,,,,,,,,,,,,,,,,,,,,,,,,,,,,,,,,,,,,,,,,,,,,,,,,,,,,,,,,,,,,,,,,,,,,,,,,,,,,,,,,,,
029389,001,2022-11-20_17h55.42.999,Info_measure_main_exp,2022.2.2,Win32,59.99520038,,,,,,,,,,,,,,,,,,masks/mask_001.jpg,0,4,4,0,1,,,,,,,,,,,,,,,,,,,,,,,,,,,,,,,,,,,,,,,,,,,,,,,,,,,,,,,,,,,,,,,,,,,,,,,,,,,,,,,,,,,,,,,,
029389,001,2022-11-20_17h55.42.999,Info_measure_main_exp,2022.2.2,Win32,59.99520038,,,,,,,,,,,,,,,,,,,,,,,,-0.07962963,0.132407407,1,0,0,response7disk,0,109.6725,1,0.007407407,-0.002777778,1,0,0,center_square,0,1,1,2,1,0,131,5,5,2526,2526,prac_patch/patch0002526.jpg,prac_patch/patch0002526.jpg,,,,,,,,,,,,,,,,,,,,,,,,,,,,,,,,,,,,,,,,,,,,,,,,,,,,,,,,,,,,
029389,001,2022-11-20_17h55.42.999,Info_measure_main_exp,2022.2.2,Win32,59.99520038,,,,,,,,,,,,,0,0,0,3,1,masks/mask_004.jpg,,,,,,,,,,,,,,,,,,,,,,,,,,,,,,,,,,,,,,,,,,,,,,,,,,,,,,,,,,,,,,,,,,,,,,,,,,,,,,,,,,,,,,,,,,,,,
029389,001,2022-11-20_17h55.42.999,Info_measure_main_exp,2022.2.2,Win32,59.99520038,,,,,,,,,,,,,0,1,1,2,1,masks/mask_003.jpg,,,,,,,,,,,,,,,,,,,,,,,,,,,,,,,,,,,,,,,,,,,,,,,,,,,,,,,,,,,,,,,,,,,,,,,,,,,,,,,,,,,,,,,,,,,,,
029389,001,2022-11-20_17h55.42.999,Info_measure_main_exp,2022.2.2,Win32,59.99520038,,,,,,,,,,,,,0,2,2,1,1,masks/mask_002.jpg,,,,,,,,,,,,,,,,,,,,,,,,,,,,,,,,,,,,,,,,,,,,,,,,,,,,,,,,,,,,,,,,,,,,,,,,,,,,,,,,,,,,,,,,,,,,,
029389,001,2022-11-20_17h55.42.999,Info_measure_main_exp,2022.2.2,Win32,59.99520038,,,,,,,,,,,,,0,3,3,4,1,masks/mask_005.jpg,,,,,,,,,,,,,,,,,,,,,,,,,,,,,,,,,,,,,,,,,,,,,,,,,,,,,,,,,,,,,,,,,,,,,,,,,,,,,,,,,,,,,,,,,,,,,
029389,001,2022-11-20_17h55.42.999,Info_measure_main_exp,2022.2.2,Win32,59.99520038,,,,,,,,,,,,,0,4,4,0,1,masks/mask_001.jpg,,,,,,,,,,,,,,,,,,,,,,,,,,,,,,,,,,,,,,,,,,,,,,,,,,,,,,,,,,,,,,,,,,,,,,,,,,,,,,,,,,,,,,,,,,,,,
029389,001,2022-11-20_17h55.42.999,Info_measure_main_exp,2022.2.2,Win32,59.99520038,,,,,,,,,,,,,,,,,,masks/mask_004.jpg,0,0,0,3,1,,,,,,,,,,,,,,,,,,,,,,,,,,,,,,,,,,,,,,,,,,,,,,,,,,,,,,,,,,,,,,,,,,,,,,,,,,,,,,,,,,,,,,,,
029389,001,2022-11-20_17h55.42.999,Info_measure_main_exp,2022.2.2,Win32,59.99520038,,,,,,,,,,,,,,,,,,masks/mask_003.jpg,0,1,1,2,1,,,,,,,,,,,,,,,,,,,,,,,,,,,,,,,,,,,,,,,,,,,,,,,,,,,,,,,,,,,,,,,,,,,,,,,,,,,,,,,,,,,,,,,,
029389,001,2022-11-20_17h55.42.999,Info_measure_main_exp,2022.2.2,Win32,59.99520038,,,,,,,,,,,,,,,,,,masks/mask_002.jpg,0,2,2,1,1,,,,,,,,,,,,,,,,,,,,,,,,,,,,,,,,,,,,,,,,,,,,,,,,,,,,,,,,,,,,,,,,,,,,,,,,,,,,,,,,,,,,,,,,
029389,001,2022-11-20_17h55.42.999,Info_measure_main_exp,2022.2.2,Win32,59.99520038,,,,,,,,,,,,,,,,,,masks/mask_001.jpg,0,3,3,0,1,,,,,,,,,,,,,,,,,,,,,,,,,,,,,,,,,,,,,,,,,,,,,,,,,,,,,,,,,,,,,,,,,,,,,,,,,,,,,,,,,,,,,,,,
029389,001,2022-11-20_17h55.42.999,Info_measure_main_exp,2022.2.2,Win32,59.99520038,,,,,,,,,,,,,,,,,,masks/mask_005.jpg,0,4,4,4,1,,,,,,,,,,,,,,,,,,,,,,,,,,,,,,,,,,,,,,,,,,,,,,,,,,,,,,,,,,,,,,,,,,,,,,,,,,,,,,,,,,,,,,,,
029389,001,2022-11-20_17h55.42.999,Info_measure_main_exp,2022.2.2,Win32,59.99520038,,,,,,,,,,,,,,,,,,,,,,,,0.10462963,-0.062037037,1,0,0,response3disk,5,120.8392,1,0.002777778,0.009259259,1,0,0,center_square,0,2,2,1,1,0,131,5,5,2514,2490,prac_patch/patch0002514.jpg,prac_patch/patch0002490.jpg,,,,,,,,,,,,,,,,,,,,,,,,,,,,,,,,,,,,,,,,,,,,,,,,,,,,,,,,,,,,
029389,001,2022-11-20_17h55.42.999,Info_measure_main_exp,2022.2.2,Win32,59.99520038,,,,,,,,,,,,,,,,,,,,,,,,,,,,,,,,,,,,,,,,,,,,,,,,,,,,,,,,,,,space,1.8573,,,,,,,,,,,,,,,,,,,,,,,,,,,,,,,,,,,,,,,,,,,,,,,,,,,
029389,001,2022-11-20_17h55.42.999,Info_measure_main_exp,2022.2.2,Win32,59.99520038,,,,,,,,,,,,,,,,,,masks/mask_001.jpg,,,,,,,,,,,,,,,,,,,,,,,,,,,,,,,,,,,,,,,,,,,0,0,0,0,1,,,,,,,,,,,,,,,,,,,,,,,,,,,,,,,,,,,,,,,,,,,,,,
029389,001,2022-11-20_17h55.42.999,Info_measure_main_exp,2022.2.2,Win32,59.99520038,,,,,,,,,,,,,,,,,,masks/mask_002.jpg,,,,,,,,,,,,,,,,,,,,,,,,,,,,,,,,,,,,,,,,,,,0,1,1,1,1,,,,,,,,,,,,,,,,,,,,,,,,,,,,,,,,,,,,,,,,,,,,,,
029389,001,2022-11-20_17h55.42.999,Info_measure_main_exp,2022.2.2,Win32,59.99520038,,,,,,,,,,,,,,,,,,masks/mask_005.jpg,,,,,,,,,,,,,,,,,,,,,,,,,,,,,,,,,,,,,,,,,,,0,2,2,4,1,,,,,,,,,,,,,,,,,,,,,,,,,,,,,,,,,,,,,,,,,,,,,,
029389,001,2022-11-20_17h55.42.999,Info_measure_main_exp,2022.2.2,Win32,59.99520038,,,,,,,,,,,,,,,,,,masks/mask_004.jpg,,,,,,,,,,,,,,,,,,,,,,,,,,,,,,,,,,,,,,,,,,,0,3,3,3,1,,,,,,,,,,,,,,,,,,,,,,,,,,,,,,,,,,,,,,,,,,,,,,
029389,001,2022-11-20_17h55.42.999,Info_measure_main_exp,2022.2.2,Win32,59.99520038,,,,,,,,,,,,,,,,,,masks/mask_003.jpg,,,,,,,,,,,,,,,,,,,,,,,,,,,,,,,,,,,,,,,,,,,0,4,4,2,1,,,,,,,,,,,,,,,,,,,,,,,,,,,,,,,,,,,,,,,,,,,,,,
029389,001,2022-11-20_17h55.42.999,Info_measure_main_exp,2022.2.2,Win32,59.99520038,,,,,,,,,,,,,,,,,,masks/mask_004.jpg,,,,,,,,,,,,,,,,,,,,,,,,,,,,,,,,,,,,,,,,,,,,,,,,0,0,0,3,1,,,,,,,,,,,,,,,,,,,,,,,,,,,,,,,,,,,,,,,,,
029389,001,2022-11-20_17h55.42.999,Info_measure_main_exp,2022.2.2,Win32,59.99520038,,,,,,,,,,,,,,,,,,masks/mask_005.jpg,,,,,,,,,,,,,,,,,,,,,,,,,,,,,,,,,,,,,,,,,,,,,,,,0,1,1,4,1,,,,,,,,,,,,,,,,,,,,,,,,,,,,,,,,,,,,,,,,,
029389,001,2022-11-20_17h55.42.999,Info_measure_main_exp,2022.2.2,Win32,59.99520038,,,,,,,,,,,,,,,,,,masks/mask_003.jpg,,,,,,,,,,,,,,,,,,,,,,,,,,,,,,,,,,,,,,,,,,,,,,,,0,2,2,2,1,,,,,,,,,,,,,,,,,,,,,,,,,,,,,,,,,,,,,,,,,
029389,001,2022-11-20_17h55.42.999,Info_measure_main_exp,2022.2.2,Win32,59.99520038,,,,,,,,,,,,,,,,,,masks/mask_001.jpg,,,,,,,,,,,,,,,,,,,,,,,,,,,,,,,,,,,,,,,,,,,,,,,,0,3,3,0,1,,,,,,,,,,,,,,,,,,,,,,,,,,,,,,,,,,,,,,,,,
029389,001,2022-11-20_17h55.42.999,Info_measure_main_exp,2022.2.2,Win32,59.99520038,,,,,,,,,,,,,,,,,,masks/mask_002.jpg,,,,,,,,,,,,,,,,,,,,,,,,,,,,,,,,,,,,,,,,,,,,,,,,0,4,4,1,1,,,,,,,,,,,,,,,,,,,,,,,,,,,,,,,,,,,,,,,,,
029389,001,2022-11-20_17h55.42.999,Info_measure_main_exp,2022.2.2,Win32,59.99520038,,,,,,,,,,,,,,,,,,,,,,,,,,,,,,5,2.0334,1,,,,,,,,,,,,0,131,5,5,2298,2178,absent_patch/patch0002298.jpg,absent_patch/patch0002178.jpg,,,,,,,,,,,,,,,,,,,,0.080555556,-0.057407407,1,0,0,response3disk,1,-0.002777778,-0.005555556,1,0,0,center_square,0,0,0,84,1,,,,,,,,,,,,,,,,,,,,,,,
029389,001,2022-11-20_17h55.42.999,Info_measure_main_exp,2022.2.2,Win32,59.99520038,,,,,,,,,,,,,,,,,,masks/mask_003.jpg,,,,,,,,,,,,,,,,,,,,,,,,,,,,,,,,,,,,,,,,,,,0,0,0,2,1,,,,,,,,,,,,,,,,,,,,,,,,,,,,,,,,,,,,,,,,,,,,,,
029389,001,2022-11-20_17h55.42.999,Info_measure_main_exp,2022.2.2,Win32,59.99520038,,,,,,,,,,,,,,,,,,masks/mask_005.jpg,,,,,,,,,,,,,,,,,,,,,,,,,,,,,,,,,,,,,,,,,,,0,1,1,4,1,,,,,,,,,,,,,,,,,,,,,,,,,,,,,,,,,,,,,,,,,,,,,,
029389,001,2022-11-20_17h55.42.999,Info_measure_main_exp,2022.2.2,Win32,59.99520038,,,,,,,,,,,,,,,,,,masks/mask_001.jpg,,,,,,,,,,,,,,,,,,,,,,,,,,,,,,,,,,,,,,,,,,,0,2,2,0,1,,,,,,,,,,,,,,,,,,,,,,,,,,,,,,,,,,,,,,,,,,,,,,
029389,001,2022-11-20_17h55.42.999,Info_measure_main_exp,2022.2.2,Win32,59.99520038,,,,,,,,,,,,,,,,,,masks/mask_004.jpg,,,,,,,,,,,,,,,,,,,,,,,,,,,,,,,,,,,,,,,,,,,0,3,3,3,1,,,,,,,,,,,,,,,,,,,,,,,,,,,,,,,,,,,,,,,,,,,,,,
029389,001,2022-11-20_17h55.42.999,Info_measure_main_exp,2022.2.2,Win32,59.99520038,,,,,,,,,,,,,,,,,,masks/mask_002.jpg,,,,,,,,,,,,,,,,,,,,,,,,,,,,,,,,,,,,,,,,,,,0,4,4,1,1,,,,,,,,,,,,,,,,,,,,,,,,,,,,,,,,,,,,,,,,,,,,,,
029389,001,2022-11-20_17h55.42.999,Info_measure_main_exp,2022.2.2,Win32,59.99520038,,,,,,,,,,,,,,,,,,masks/mask_001.jpg,,,,,,,,,,,,,,,,,,,,,,,,,,,,,,,,,,,,,,,,,,,,,,,,0,0,0,0,1,,,,,,,,,,,,,,,,,,,,,,,,,,,,,,,,,,,,,,,,,
029389,001,2022-11-20_17h55.42.999,Info_measure_main_exp,2022.2.2,Win32,59.99520038,,,,,,,,,,,,,,,,,,masks/mask_003.jpg,,,,,,,,,,,,,,,,,,,,,,,,,,,,,,,,,,,,,,,,,,,,,,,,0,1,1,2,1,,,,,,,,,,,,,,,,,,,,,,,,,,,,,,,,,,,,,,,,,
029389,001,2022-11-20_17h55.42.999,Info_measure_main_exp,2022.2.2,Win32,59.99520038,,,,,,,,,,,,,,,,,,masks/mask_004.jpg,,,,,,,,,,,,,,,,,,,,,,,,,,,,,,,,,,,,,,,,,,,,,,,,0,2,2,3,1,,,,,,,,,,,,,,,,,,,,,,,,,,,,,,,,,,,,,,,,,
029389,001,2022-11-20_17h55.42.999,Info_measure_main_exp,2022.2.2,Win32,59.99520038,,,,,,,,,,,,,,,,,,masks/mask_005.jpg,,,,,,,,,,,,,,,,,,,,,,,,,,,,,,,,,,,,,,,,,,,,,,,,0,3,3,4,1,,,,,,,,,,,,,,,,,,,,,,,,,,,,,,,,,,,,,,,,,
029389,001,2022-11-20_17h55.42.999,Info_measure_main_exp,2022.2.2,Win32,59.99520038,,,,,,,,,,,,,,,,,,masks/mask_002.jpg,,,,,,,,,,,,,,,,,,,,,,,,,,,,,,,,,,,,,,,,,,,,,,,,0,4,4,1,1,,,,,,,,,,,,,,,,,,,,,,,,,,,,,,,,,,,,,,,,,
029389,001,2022-11-20_17h55.42.999,Info_measure_main_exp,2022.2.2,Win32,59.99520038,,,,,,,,,,,,,,,,,,,,,,,,,,,,,,5,2.5831,1,,,,,,,,,,,,0,131,5,5,2178,2142,absent_patch/patch0002178.jpg,absent_patch/patch0002142.jpg,,,,,,,,,,,,,,,,,,,,0.097222222,-0.043518519,1,0,0,response3disk,2,0,0.007407407,1,0,0,center_square,0,1,1,41,1,,,,,,,,,,,,,,,,,,,,,,,
029389,001,2022-11-20_17h55.42.999,Info_measure_main_exp,2022.2.2,Win32,59.99520038,,,,,,,,,,,,,,,,,,masks/mask_002.jpg,,,,,,,,,,,,,,,,,,,,,,,,,,,,,,,,,,,,,,,,,,,0,0,0,1,1,,,,,,,,,,,,,,,,,,,,,,,,,,,,,,,,,,,,,,,,,,,,,,
029389,001,2022-11-20_17h55.42.999,Info_measure_main_exp,2022.2.2,Win32,59.99520038,,,,,,,,,,,,,,,,,,masks/mask_003.jpg,,,,,,,,,,,,,,,,,,,,,,,,,,,,,,,,,,,,,,,,,,,0,1,1,2,1,,,,,,,,,,,,,,,,,,,,,,,,,,,,,,,,,,,,,,,,,,,,,,
029389,001,2022-11-20_17h55.42.999,Info_measure_main_exp,2022.2.2,Win32,59.99520038,,,,,,,,,,,,,,,,,,masks/mask_004.jpg,,,,,,,,,,,,,,,,,,,,,,,,,,,,,,,,,,,,,,,,,,,0,2,2,3,1,,,,,,,,,,,,,,,,,,,,,,,,,,,,,,,,,,,,,,,,,,,,,,
029389,001,2022-11-20_17h55.42.999,Info_measure_main_exp,2022.2.2,Win32,59.99520038,,,,,,,,,,,,,,,,,,masks/mask_001.jpg,,,,,,,,,,,,,,,,,,,,,,,,,,,,,,,,,,,,,,,,,,,0,3,3,0,1,,,,,,,,,,,,,,,,,,,,,,,,,,,,,,,,,,,,,,,,,,,,,,
029389,001,2022-11-20_17h55.42.999,Info_measure_main_exp,2022.2.2,Win32,59.99520038,,,,,,,,,,,,,,,,,,masks/mask_005.jpg,,,,,,,,,,,,,,,,,,,,,,,,,,,,,,,,,,,,,,,,,,,0,4,4,4,1,,,,,,,,,,,,,,,,,,,,,,,,,,,,,,,,,,,,,,,,,,,,,,
029389,001,2022-11-20_17h55.42.999,Info_measure_main_exp,2022.2.2,Win32,59.99520038,,,,,,,,,,,,,,,,,,masks/mask_005.jpg,,,,,,,,,,,,,,,,,,,,,,,,,,,,,,,,,,,,,,,,,,,,,,,,0,0,0,4,1,,,,,,,,,,,,,,,,,,,,,,,,,,,,,,,,,,,,,,,,,
029389,001,2022-11-20_17h55.42.999,Info_measure_main_exp,2022.2.2,Win32,59.99520038,,,,,,,,,,,,,,,,,,masks/mask_003.jpg,,,,,,,,,,,,,,,,,,,,,,,,,,,,,,,,,,,,,,,,,,,,,,,,0,1,1,2,1,,,,,,,,,,,,,,,,,,,,,,,,,,,,,,,,,,,,,,,,,
029389,001,2022-11-20_17h55.42.999,Info_measure_main_exp,2022.2.2,Win32,59.99520038,,,,,,,,,,,,,,,,,,masks/mask_002.jpg,,,,,,,,,,,,,,,,,,,,,,,,,,,,,,,,,,,,,,,,,,,,,,,,0,2,2,1,1,,,,,,,,,,,,,,,,,,,,,,,,,,,,,,,,,,,,,,,,,
029389,001,2022-11-20_17h55.42.999,Info_measure_main_exp,2022.2.2,Win32,59.99520038,,,,,,,,,,,,,,,,,,masks/mask_001.jpg,,,,,,,,,,,,,,,,,,,,,,,,,,,,,,,,,,,,,,,,,,,,,,,,0,3,3,0,1,,,,,,,,,,,,,,,,,,,,,,,,,,,,,,,,,,,,,,,,,
029389,001,2022-11-20_17h55.42.999,Info_measure_main_exp,2022.2.2,Win32,59.99520038,,,,,,,,,,,,,,,,,,masks/mask_004.jpg,,,,,,,,,,,,,,,,,,,,,,,,,,,,,,,,,,,,,,,,,,,,,,,,0,4,4,3,1,,,,,,,,,,,,,,,,,,,,,,,,,,,,,,,,,,,,,,,,,
029389,001,2022-11-20_17h55.42.999,Info_measure_main_exp,2022.2.2,Win32,59.99520038,,,,,,,,,,,,,,,,,,,,,,,,,,,,,,0,1.2501,1,,,,,,,,,,,,0,131,5,5,2154,2154,absent_patch/patch0002154.jpg,absent_patch/patch0002154.jpg,,,,,,,,,,,,,,,,,,,,-0.055555556,0.141666667,1,0,0,response7disk,3,-0.002777778,0.003703704,1,0,0,center_square,0,2,2,89,1,,,,,,,,,,,,,,,,,,,,,,,
029389,001,2022-11-20_17h55.42.999,Info_measure_main_exp,2022.2.2,Win32,59.99520038,,,,,,,,,,,,,,,,,,masks/mask_001.jpg,,,,,,,,,,,,,,,,,,,,,,,,,,,,,,,,,,,,,,,,,,,0,0,0,0,1,,,,,,,,,,,,,,,,,,,,,,,,,,,,,,,,,,,,,,,,,,,,,,
029389,001,2022-11-20_17h55.42.999,Info_measure_main_exp,2022.2.2,Win32,59.99520038,,,,,,,,,,,,,,,,,,masks/mask_004.jpg,,,,,,,,,,,,,,,,,,,,,,,,,,,,,,,,,,,,,,,,,,,0,1,1,3,1,,,,,,,,,,,,,,,,,,,,,,,,,,,,,,,,,,,,,,,,,,,,,,
029389,001,2022-11-20_17h55.42.999,Info_measure_main_exp,2022.2.2,Win32,59.99520038,,,,,,,,,,,,,,,,,,masks/mask_003.jpg,,,,,,,,,,,,,,,,,,,,,,,,,,,,,,,,,,,,,,,,,,,0,2,2,2,1,,,,,,,,,,,,,,,,,,,,,,,,,,,,,,,,,,,,,,,,,,,,,,
029389,001,2022-11-20_17h55.42.999,Info_measure_main_exp,2022.2.2,Win32,59.99520038,,,,,,,,,,,,,,,,,,masks/mask_002.jpg,,,,,,,,,,,,,,,,,,,,,,,,,,,,,,,,,,,,,,,,,,,0,3,3,1,1,,,,,,,,,,,,,,,,,,,,,,,,,,,,,,,,,,,,,,,,,,,,,,
029389,001,2022-11-20_17h55.42.999,Info_measure_main_exp,2022.2.2,Win32,59.99520038,,,,,,,,,,,,,,,,,,masks/mask_005.jpg,,,,,,,,,,,,,,,,,,,,,,,,,,,,,,,,,,,,,,,,,,,0,4,4,4,1,,,,,,,,,,,,,,,,,,,,,,,,,,,,,,,,,,,,,,,,,,,,,,
029389,001,2022-11-20_17h55.42.999,Info_measure_main_exp,2022.2.2,Win32,59.99520038,,,,,,,,,,,,,,,,,,masks/mask_003.jpg,,,,,,,,,,,,,,,,,,,,,,,,,,,,,,,,,,,,,,,,,,,,,,,,0,0,0,2,1,,,,,,,,,,,,,,,,,,,,,,,,,,,,,,,,,,,,,,,,,
029389,001,2022-11-20_17h55.42.999,Info_measure_main_exp,2022.2.2,Win32,59.99520038,,,,,,,,,,,,,,,,,,masks/mask_005.jpg,,,,,,,,,,,,,,,,,,,,,,,,,,,,,,,,,,,,,,,,,,,,,,,,0,1,1,4,1,,,,,,,,,,,,,,,,,,,,,,,,,,,,,,,,,,,,,,,,,
029389,001,2022-11-20_17h55.42.999,Info_measure_main_exp,2022.2.2,Win32,59.99520038,,,,,,,,,,,,,,,,,,masks/mask_001.jpg,,,,,,,,,,,,,,,,,,,,,,,,,,,,,,,,,,,,,,,,,,,,,,,,0,2,2,0,1,,,,,,,,,,,,,,,,,,,,,,,,,,,,,,,,,,,,,,,,,
029389,001,2022-11-20_17h55.42.999,Info_measure_main_exp,2022.2.2,Win32,59.99520038,,,,,,,,,,,,,,,,,,masks/mask_002.jpg,,,,,,,,,,,,,,,,,,,,,,,,,,,,,,,,,,,,,,,,,,,,,,,,0,3,3,1,1,,,,,,,,,,,,,,,,,,,,,,,,,,,,,,,,,,,,,,,,,
029389,001,2022-11-20_17h55.42.999,Info_measure_main_exp,2022.2.2,Win32,59.99520038,,,,,,,,,,,,,,,,,,masks/mask_004.jpg,,,,,,,,,,,,,,,,,,,,,,,,,,,,,,,,,,,,,,,,,,,,,,,,0,4,4,3,1,,,,,,,,,,,,,,,,,,,,,,,,,,,,,,,,,,,,,,,,,
029389,001,2022-11-20_17h55.42.999,Info_measure_main_exp,2022.2.2,Win32,59.99520038,,,,,,,,,,,,,,,,,,,,,,,,,,,,,,7,1.3168,1,,,,,,,,,,,,0,131,5,5,2082,2154,absent_patch/patch0002082.jpg,absent_patch/patch0002154.jpg,,,,,,,,,,,,,,,,,,,,0.061111111,0.100925926,1,0,0,response1disk,4,0.001851852,-0.000925926,1,0,0,center_square,0,3,3,33,1,,,,,,,,,,,,,,,,,,,,,,,
029389,001,2022-11-20_17h55.42.999,Info_measure_main_exp,2022.2.2,Win32,59.99520038,,,,,,,,,,,,,,,,,,masks/mask_002.jpg,,,,,,,,,,,,,,,,,,,,,,,,,,,,,,,,,,,,,,,,,,,0,0,0,1,1,,,,,,,,,,,,,,,,,,,,,,,,,,,,,,,,,,,,,,,,,,,,,,
029389,001,2022-11-20_17h55.42.999,Info_measure_main_exp,2022.2.2,Win32,59.99520038,,,,,,,,,,,,,,,,,,masks/mask_001.jpg,,,,,,,,,,,,,,,,,,,,,,,,,,,,,,,,,,,,,,,,,,,0,1,1,0,1,,,,,,,,,,,,,,,,,,,,,,,,,,,,,,,,,,,,,,,,,,,,,,
029389,001,2022-11-20_17h55.42.999,Info_measure_main_exp,2022.2.2,Win32,59.99520038,,,,,,,,,,,,,,,,,,masks/mask_005.jpg,,,,,,,,,,,,,,,,,,,,,,,,,,,,,,,,,,,,,,,,,,,0,2,2,4,1,,,,,,,,,,,,,,,,,,,,,,,,,,,,,,,,,,,,,,,,,,,,,,
029389,001,2022-11-20_17h55.42.999,Info_measure_main_exp,2022.2.2,Win32,59.99520038,,,,,,,,,,,,,,,,,,masks/mask_003.jpg,,,,,,,,,,,,,,,,,,,,,,,,,,,,,,,,,,,,,,,,,,,0,3,3,2,1,,,,,,,,,,,,,,,,,,,,,,,,,,,,,,,,,,,,,,,,,,,,,,
029389,001,2022-11-20_17h55.42.999,Info_measure_main_exp,2022.2.2,Win32,59.99520038,,,,,,,,,,,,,,,,,,masks/mask_004.jpg,,,,,,,,,,,,,,,,,,,,,,,,,,,,,,,,,,,,,,,,,,,0,4,4,3,1,,,,,,,,,,,,,,,,,,,,,,,,,,,,,,,,,,,,,,,,,,,,,,
029389,001,2022-11-20_17h55.42.999,Info_measure_main_exp,2022.2.2,Win32,59.99520038,,,,,,,,,,,,,,,,,,masks/mask_003.jpg,,,,,,,,,,,,,,,,,,,,,,,,,,,,,,,,,,,,,,,,,,,,,,,,0,0,0,2,1,,,,,,,,,,,,,,,,,,,,,,,,,,,,,,,,,,,,,,,,,
029389,001,2022-11-20_17h55.42.999,Info_measure_main_exp,2022.2.2,Win32,59.99520038,,,,,,,,,,,,,,,,,,masks/mask_002.jpg,,,,,,,,,,,,,,,,,,,,,,,,,,,,,,,,,,,,,,,,,,,,,,,,0,1,1,1,1,,,,,,,,,,,,,,,,,,,,,,,,,,,,,,,,,,,,,,,,,
029389,001,2022-11-20_17h55.42.999,Info_measure_main_exp,2022.2.2,Win32,59.99520038,,,,,,,,,,,,,,,,,,masks/mask_001.jpg,,,,,,,,,,,,,,,,,,,,,,,,,,,,,,,,,,,,,,,,,,,,,,,,0,2,2,0,1,,,,,,,,,,,,,,,,,,,,,,,,,,,,,,,,,,,,,,,,,
029389,001,2022-11-20_17h55.42.999,Info_measure_main_exp,2022.2.2,Win32,59.99520038,,,,,,,,,,,,,,,,,,masks/mask_005.jpg,,,,,,,,,,,,,,,,,,,,,,,,,,,,,,,,,,,,,,,,,,,,,,,,0,3,3,4,1,,,,,,,,,,,,,,,,,,,,,,,,,,,,,,,,,,,,,,,,,
029389,001,2022-11-20_17h55.42.999,Info_measure_main_exp,2022.2.2,Win32,59.99520038,,,,,,,,,,,,,,,,,,masks/mask_004.jpg,,,,,,,,,,,,,,,,,,,,,,,,,,,,,,,,,,,,,,,,,,,,,,,,0,4,4,3,1,,,,,,,,,,,,,,,,,,,,,,,,,,,,,,,,,,,,,,,,,
029389,001,2022-11-20_17h55.42.999,Info_measure_main_exp,2022.2.2,Win32,59.99520038,,,,,,,,,,,,,,,,,,,,,,,,,,,,,,6,1.3166,1,,,,,,,,,,,,0,131,5,5,2154,2250,absent_patch/patch0002154.jpg,absent_patch/patch0002250.jpg,,,,,,,,,,,,,,,,,,,,0.113888889,0.05462963,1,0,0,response1disk,5,0.003703704,0.003703704,1,0,0,center_square,0,4,4,108,1,,,,,,,,,,,,,,,,,,,,,,,
029389,001,2022-11-20_17h55.42.999,Info_measure_main_exp,2022.2.2,Win32,59.99520038,,,,,,,,,,,,,,,,,,masks/mask_003.jpg,,,,,,,,,,,,,,,,,,,,,,,,,,,,,,,,,,,,,,,,,,,0,0,0,2,1,,,,,,,,,,,,,,,,,,,,,,,,,,,,,,,,,,,,,,,,,,,,,,
029389,001,2022-11-20_17h55.42.999,Info_measure_main_exp,2022.2.2,Win32,59.99520038,,,,,,,,,,,,,,,,,,masks/mask_002.jpg,,,,,,,,,,,,,,,,,,,,,,,,,,,,,,,,,,,,,,,,,,,0,1,1,1,1,,,,,,,,,,,,,,,,,,,,,,,,,,,,,,,,,,,,,,,,,,,,,,
029389,001,2022-11-20_17h55.42.999,Info_measure_main_exp,2022.2.2,Win32,59.99520038,,,,,,,,,,,,,,,,,,masks/mask_004.jpg,,,,,,,,,,,,,,,,,,,,,,,,,,,,,,,,,,,,,,,,,,,0,2,2,3,1,,,,,,,,,,,,,,,,,,,,,,,,,,,,,,,,,,,,,,,,,,,,,,
029389,001,2022-11-20_17h55.42.999,Info_measure_main_exp,2022.2.2,Win32,59.99520038,,,,,,,,,,,,,,,,,,masks/mask_005.jpg,,,,,,,,,,,,,,,,,,,,,,,,,,,,,,,,,,,,,,,,,,,0,3,3,4,1,,,,,,,,,,,,,,,,,,,,,,,,,,,,,,,,,,,,,,,,,,,,,,
029389,001,2022-11-20_17h55.42.999,Info_measure_main_exp,2022.2.2,Win32,59.99520038,,,,,,,,,,,,,,,,,,masks/mask_001.jpg,,,,,,,,,,,,,,,,,,,,,,,,,,,,,,,,,,,,,,,,,,,0,4,4,0,1,,,,,,,,,,,,,,,,,,,,,,,,,,,,,,,,,,,,,,,,,,,,,,
029389,001,2022-11-20_17h55.42.999,Info_measure_main_exp,2022.2.2,Win32,59.99520038,,,,,,,,,,,,,,,,,,masks/mask_003.jpg,,,,,,,,,,,,,,,,,,,,,,,,,,,,,,,,,,,,,,,,,,,,,,,,0,0,0,2,1,,,,,,,,,,,,,,,,,,,,,,,,,,,,,,,,,,,,,,,,,
029389,001,2022-11-20_17h55.42.999,Info_measure_main_exp,2022.2.2,Win32,59.99520038,,,,,,,,,,,,,,,,,,masks/mask_005.jpg,,,,,,,,,,,,,,,,,,,,,,,,,,,,,,,,,,,,,,,,,,,,,,,,0,1,1,4,1,,,,,,,,,,,,,,,,,,,,,,,,,,,,,,,,,,,,,,,,,
029389,001,2022-11-20_17h55.42.999,Info_measure_main_exp,2022.2.2,Win32,59.99520038,,,,,,,,,,,,,,,,,,masks/mask_004.jpg,,,,,,,,,,,,,,,,,,,,,,,,,,,,,,,,,,,,,,,,,,,,,,,,0,2,2,3,1,,,,,,,,,,,,,,,,,,,,,,,,,,,,,,,,,,,,,,,,,
029389,001,2022-11-20_17h55.42.999,Info_measure_main_exp,2022.2.2,Win32,59.99520038,,,,,,,,,,,,,,,,,,masks/mask_002.jpg,,,,,,,,,,,,,,,,,,,,,,,,,,,,,,,,,,,,,,,,,,,,,,,,0,3,3,1,1,,,,,,,,,,,,,,,,,,,,,,,,,,,,,,,,,,,,,,,,,
029389,001,2022-11-20_17h55.42.999,Info_measure_main_exp,2022.2.2,Win32,59.99520038,,,,,,,,,,,,,,,,,,masks/mask_001.jpg,,,,,,,,,,,,,,,,,,,,,,,,,,,,,,,,,,,,,,,,,,,,,,,,0,4,4,0,1,,,,,,,,,,,,,,,,,,,,,,,,,,,,,,,,,,,,,,,,,
029389,001,2022-11-20_17h55.42.999,Info_measure_main_exp,2022.2.2,Win32,59.99520038,,,,,,,,,,,,,,,,,,,,,,,,,,,,,,0,0.9833,1,,,,,,,,,,,,0,131,5,5,1986,1986,absent_patch/patch0001986.jpg,absent_patch/patch0001986.jpg,,,,,,,,,,,,,,,,,,,,-0.040740741,0.089814815,1,0,0,response7disk,6,0.00462963,0.000925926,1,0,0,center_square,0,5,5,19,1,,,,,,,,,,,,,,,,,,,,,,,
029389,001,2022-11-20_17h55.42.999,Info_measure_main_exp,2022.2.2,Win32,59.99520038,,,,,,,,,,,,,,,,,,masks/mask_003.jpg,,,,,,,,,,,,,,,,,,,,,,,,,,,,,,,,,,,,,,,,,,,0,0,0,2,1,,,,,,,,,,,,,,,,,,,,,,,,,,,,,,,,,,,,,,,,,,,,,,
029389,001,2022-11-20_17h55.42.999,Info_measure_main_exp,2022.2.2,Win32,59.99520038,,,,,,,,,,,,,,,,,,masks/mask_004.jpg,,,,,,,,,,,,,,,,,,,,,,,,,,,,,,,,,,,,,,,,,,,0,1,1,3,1,,,,,,,,,,,,,,,,,,,,,,,,,,,,,,,,,,,,,,,,,,,,,,
029389,001,2022-11-20_17h55.42.999,Info_measure_main_exp,2022.2.2,Win32,59.99520038,,,,,,,,,,,,,,,,,,masks/mask_002.jpg,,,,,,,,,,,,,,,,,,,,,,,,,,,,,,,,,,,,,,,,,,,0,2,2,1,1,,,,,,,,,,,,,,,,,,,,,,,,,,,,,,,,,,,,,,,,,,,,,,
029389,001,2022-11-20_17h55.42.999,Info_measure_main_exp,2022.2.2,Win32,59.99520038,,,,,,,,,,,,,,,,,,masks/mask_005.jpg,,,,,,,,,,,,,,,,,,,,,,,,,,,,,,,,,,,,,,,,,,,0,3,3,4,1,,,,,,,,,,,,,,,,,,,,,,,,,,,,,,,,,,,,,,,,,,,,,,
029389,001,2022-11-20_17h55.42.999,Info_measure_main_exp,2022.2.2,Win32,59.99520038,,,,,,,,,,,,,,,,,,masks/mask_001.jpg,,,,,,,,,,,,,,,,,,,,,,,,,,,,,,,,,,,,,,,,,,,0,4,4,0,1,,,,,,,,,,,,,,,,,,,,,,,,,,,,,,,,,,,,,,,,,,,,,,
029389,001,2022-11-20_17h55.42.999,Info_measure_main_exp,2022.2.2,Win32,59.99520038,,,,,,,,,,,,,,,,,,masks/mask_002.jpg,,,,,,,,,,,,,,,,,,,,,,,,,,,,,,,,,,,,,,,,,,,,,,,,0,0,0,1,1,,,,,,,,,,,,,,,,,,,,,,,,,,,,,,,,,,,,,,,,,
029389,001,2022-11-20_17h55.42.999,Info_measure_main_exp,2022.2.2,Win32,59.99520038,,,,,,,,,,,,,,,,,,masks/mask_001.jpg,,,,,,,,,,,,,,,,,,,,,,,,,,,,,,,,,,,,,,,,,,,,,,,,0,1,1,0,1,,,,,,,,,,,,,,,,,,,,,,,,,,,,,,,,,,,,,,,,,
029389,001,2022-11-20_17h55.42.999,Info_measure_main_exp,2022.2.2,Win32,59.99520038,,,,,,,,,,,,,,,,,,masks/mask_003.jpg,,,,,,,,,,,,,,,,,,,,,,,,,,,,,,,,,,,,,,,,,,,,,,,,0,2,2,2,1,,,,,,,,,,,,,,,,,,,,,,,,,,,,,,,,,,,,,,,,,
029389,001,2022-11-20_17h55.42.999,Info_measure_main_exp,2022.2.2,Win32,59.99520038,,,,,,,,,,,,,,,,,,masks/mask_005.jpg,,,,,,,,,,,,,,,,,,,,,,,,,,,,,,,,,,,,,,,,,,,,,,,,0,3,3,4,1,,,,,,,,,,,,,,,,,,,,,,,,,,,,,,,,,,,,,,,,,
029389,001,2022-11-20_17h55.42.999,Info_measure_main_exp,2022.2.2,Win32,59.99520038,,,,,,,,,,,,,,,,,,masks/mask_004.jpg,,,,,,,,,,,,,,,,,,,,,,,,,,,,,,,,,,,,,,,,,,,,,,,,0,4,4,3,1,,,,,,,,,,,,,,,,,,,,,,,,,,,,,,,,,,,,,,,,,
029389,001,2022-11-20_17h55.42.999,Info_measure_main_exp,2022.2.2,Win32,59.99520038,,,,,,,,,,,,,,,,,,,,,,,,,,,,,,7,0.9667,1,,,,,,,,,,,,1,131,5,5,2190,1,absent_patch/patch0002190.jpg,present_patch/cong_131_5_a.jpg,,,,,,,,,,,,,,,,,,,,0.056481481,0.118518519,1,0,0,response1disk,7,0,0.00462963,1,0,0,center_square,0,6,6,64,1,,,,,,,,,,,,,,,,,,,,,,,
029389,001,2022-11-20_17h55.42.999,Info_measure_main_exp,2022.2.2,Win32,59.99520038,,,,,,,,,,,,,,,,,,masks/mask_003.jpg,,,,,,,,,,,,,,,,,,,,,,,,,,,,,,,,,,,,,,,,,,,0,0,0,2,1,,,,,,,,,,,,,,,,,,,,,,,,,,,,,,,,,,,,,,,,,,,,,,
029389,001,2022-11-20_17h55.42.999,Info_measure_main_exp,2022.2.2,Win32,59.99520038,,,,,,,,,,,,,,,,,,masks/mask_001.jpg,,,,,,,,,,,,,,,,,,,,,,,,,,,,,,,,,,,,,,,,,,,0,1,1,0,1,,,,,,,,,,,,,,,,,,,,,,,,,,,,,,,,,,,,,,,,,,,,,,
029389,001,2022-11-20_17h55.42.999,Info_measure_main_exp,2022.2.2,Win32,59.99520038,,,,,,,,,,,,,,,,,,masks/mask_004.jpg,,,,,,,,,,,,,,,,,,,,,,,,,,,,,,,,,,,,,,,,,,,0,2,2,3,1,,,,,,,,,,,,,,,,,,,,,,,,,,,,,,,,,,,,,,,,,,,,,,
029389,001,2022-11-20_17h55.42.999,Info_measure_main_exp,2022.2.2,Win32,59.99520038,,,,,,,,,,,,,,,,,,masks/mask_005.jpg,,,,,,,,,,,,,,,,,,,,,,,,,,,,,,,,,,,,,,,,,,,0,3,3,4,1,,,,,,,,,,,,,,,,,,,,,,,,,,,,,,,,,,,,,,,,,,,,,,
029389,001,2022-11-20_17h55.42.999,Info_measure_main_exp,2022.2.2,Win32,59.99520038,,,,,,,,,,,,,,,,,,masks/mask_002.jpg,,,,,,,,,,,,,,,,,,,,,,,,,,,,,,,,,,,,,,,,,,,0,4,4,1,1,,,,,,,,,,,,,,,,,,,,,,,,,,,,,,,,,,,,,,,,,,,,,,
029389,001,2022-11-20_17h55.42.999,Info_measure_main_exp,2022.2.2,Win32,59.99520038,,,,,,,,,,,,,,,,,,masks/mask_004.jpg,,,,,,,,,,,,,,,,,,,,,,,,,,,,,,,,,,,,,,,,,,,,,,,,0,0,0,3,1,,,,,,,,,,,,,,,,,,,,,,,,,,,,,,,,,,,,,,,,,
029389,001,2022-11-20_17h55.42.999,Info_measure_main_exp,2022.2.2,Win32,59.99520038,,,,,,,,,,,,,,,,,,masks/mask_005.jpg,,,,,,,,,,,,,,,,,,,,,,,,,,,,,,,,,,,,,,,,,,,,,,,,0,1,1,4,1,,,,,,,,,,,,,,,,,,,,,,,,,,,,,,,,,,,,,,,,,
029389,001,2022-11-20_17h55.42.999,Info_measure_main_exp,2022.2.2,Win32,59.99520038,,,,,,,,,,,,,,,,,,masks/mask_001.jpg,,,,,,,,,,,,,,,,,,,,,,,,,,,,,,,,,,,,,,,,,,,,,,,,0,2,2,0,1,,,,,,,,,,,,,,,,,,,,,,,,,,,,,,,,,,,,,,,,,
029389,001,2022-11-20_17h55.42.999,Info_measure_main_exp,2022.2.2,Win32,59.99520038,,,,,,,,,,,,,,,,,,masks/mask_002.jpg,,,,,,,,,,,,,,,,,,,,,,,,,,,,,,,,,,,,,,,,,,,,,,,,0,3,3,1,1,,,,,,,,,,,,,,,,,,,,,,,,,,,,,,,,,,,,,,,,,
029389,001,2022-11-20_17h55.42.999,Info_measure_main_exp,2022.2.2,Win32,59.99520038,,,,,,,,,,,,,,,,,,masks/mask_003.jpg,,,,,,,,,,,,,,,,,,,,,,,,,,,,,,,,,,,,,,,,,,,,,,,,0,4,4,2,1,,,,,,,,,,,,,,,,,,,,,,,,,,,,,,,,,,,,,,,,,
029389,001,2022-11-20_17h55.42.999,Info_measure_main_exp,2022.2.2,Win32,59.99520038,,,,,,,,,,,,,,,,,,,,,,,,,,,,,,5,2.2,1,,,,,,,,,,,,0,131,5,5,2082,2166,absent_patch/patch0002082.jpg,absent_patch/patch0002166.jpg,,,,,,,,,,,,,,,,,,,,0.098148148,-0.026851852,1,0,0,response3disk,8,0.007407407,-0.008333333,1,0,0,center_square,0,7,7,43,1,,,,,,,,,,,,,,,,,,,,,,,
029389,001,2022-11-20_17h55.42.999,Info_measure_main_exp,2022.2.2,Win32,59.99520038,,,,,,,,,,,,,,,,,,masks/mask_004.jpg,,,,,,,,,,,,,,,,,,,,,,,,,,,,,,,,,,,,,,,,,,,0,0,0,3,1,,,,,,,,,,,,,,,,,,,,,,,,,,,,,,,,,,,,,,,,,,,,,,
029389,001,2022-11-20_17h55.42.999,Info_measure_main_exp,2022.2.2,Win32,59.99520038,,,,,,,,,,,,,,,,,,masks/mask_001.jpg,,,,,,,,,,,,,,,,,,,,,,,,,,,,,,,,,,,,,,,,,,,0,1,1,0,1,,,,,,,,,,,,,,,,,,,,,,,,,,,,,,,,,,,,,,,,,,,,,,
029389,001,2022-11-20_17h55.42.999,Info_measure_main_exp,2022.2.2,Win32,59.99520038,,,,,,,,,,,,,,,,,,masks/mask_005.jpg,,,,,,,,,,,,,,,,,,,,,,,,,,,,,,,,,,,,,,,,,,,0,2,2,4,1,,,,,,,,,,,,,,,,,,,,,,,,,,,,,,,,,,,,,,,,,,,,,,
029389,001,2022-11-20_17h55.42.999,Info_measure_main_exp,2022.2.2,Win32,59.99520038,,,,,,,,,,,,,,,,,,masks/mask_002.jpg,,,,,,,,,,,,,,,,,,,,,,,,,,,,,,,,,,,,,,,,,,,0,3,3,1,1,,,,,,,,,,,,,,,,,,,,,,,,,,,,,,,,,,,,,,,,,,,,,,
029389,001,2022-11-20_17h55.42.999,Info_measure_main_exp,2022.2.2,Win32,59.99520038,,,,,,,,,,,,,,,,,,masks/mask_003.jpg,,,,,,,,,,,,,,,,,,,,,,,,,,,,,,,,,,,,,,,,,,,0,4,4,2,1,,,,,,,,,,,,,,,,,,,,,,,,,,,,,,,,,,,,,,,,,,,,,,
029389,001,2022-11-20_17h55.42.999,Info_measure_main_exp,2022.2.2,Win32,59.99520038,,,,,,,,,,,,,,,,,,masks/mask_001.jpg,,,,,,,,,,,,,,,,,,,,,,,,,,,,,,,,,,,,,,,,,,,,,,,,0,0,0,0,1,,,,,,,,,,,,,,,,,,,,,,,,,,,,,,,,,,,,,,,,,
029389,001,2022-11-20_17h55.42.999,Info_measure_main_exp,2022.2.2,Win32,59.99520038,,,,,,,,,,,,,,,,,,masks/mask_005.jpg,,,,,,,,,,,,,,,,,,,,,,,,,,,,,,,,,,,,,,,,,,,,,,,,0,1,1,4,1,,,,,,,,,,,,,,,,,,,,,,,,,,,,,,,,,,,,,,,,,
029389,001,2022-11-20_17h55.42.999,Info_measure_main_exp,2022.2.2,Win32,59.99520038,,,,,,,,,,,,,,,,,,masks/mask_002.jpg,,,,,,,,,,,,,,,,,,,,,,,,,,,,,,,,,,,,,,,,,,,,,,,,0,2,2,1,1,,,,,,,,,,,,,,,,,,,,,,,,,,,,,,,,,,,,,,,,,
029389,001,2022-11-20_17h55.42.999,Info_measure_main_exp,2022.2.2,Win32,59.99520038,,,,,,,,,,,,,,,,,,masks/mask_004.jpg,,,,,,,,,,,,,,,,,,,,,,,,,,,,,,,,,,,,,,,,,,,,,,,,0,3,3,3,1,,,,,,,,,,,,,,,,,,,,,,,,,,,,,,,,,,,,,,,,,
029389,001,2022-11-20_17h55.42.999,Info_measure_main_exp,2022.2.2,Win32,59.99520038,,,,,,,,,,,,,,,,,,masks/mask_003.jpg,,,,,,,,,,,,,,,,,,,,,,,,,,,,,,,,,,,,,,,,,,,,,,,,0,4,4,2,1,,,,,,,,,,,,,,,,,,,,,,,,,,,,,,,,,,,,,,,,,
029389,001,2022-11-20_17h55.42.999,Info_measure_main_exp,2022.2.2,Win32,59.99520038,,,,,,,,,,,,,,,,,,,,,,,,,,,,,,5,1.2834,1,,,,,,,,,,,,0,131,5,5,1950,2214,absent_patch/patch0001950.jpg,absent_patch/patch0002214.jpg,,,,,,,,,,,,,,,,,,,,0.105555556,-0.035185185,1,0,0,response3disk,9,-0.013888889,0.001851852,1,0,0,center_square,0,8,8,85,1,,,,,,,,,,,,,,,,,,,,,,,
029389,001,2022-11-20_17h55.42.999,Info_measure_main_exp,2022.2.2,Win32,59.99520038,,,,,,,,,,,,,,,,,,masks/mask_002.jpg,,,,,,,,,,,,,,,,,,,,,,,,,,,,,,,,,,,,,,,,,,,0,0,0,1,1,,,,,,,,,,,,,,,,,,,,,,,,,,,,,,,,,,,,,,,,,,,,,,
029389,001,2022-11-20_17h55.42.999,Info_measure_main_exp,2022.2.2,Win32,59.99520038,,,,,,,,,,,,,,,,,,masks/mask_001.jpg,,,,,,,,,,,,,,,,,,,,,,,,,,,,,,,,,,,,,,,,,,,0,1,1,0,1,,,,,,,,,,,,,,,,,,,,,,,,,,,,,,,,,,,,,,,,,,,,,,
029389,001,2022-11-20_17h55.42.999,Info_measure_main_exp,2022.2.2,Win32,59.99520038,,,,,,,,,,,,,,,,,,masks/mask_003.jpg,,,,,,,,,,,,,,,,,,,,,,,,,,,,,,,,,,,,,,,,,,,0,2,2,2,1,,,,,,,,,,,,,,,,,,,,,,,,,,,,,,,,,,,,,,,,,,,,,,
029389,001,2022-11-20_17h55.42.999,Info_measure_main_exp,2022.2.2,Win32,59.99520038,,,,,,,,,,,,,,,,,,masks/mask_004.jpg,,,,,,,,,,,,,,,,,,,,,,,,,,,,,,,,,,,,,,,,,,,0,3,3,3,1,,,,,,,,,,,,,,,,,,,,,,,,,,,,,,,,,,,,,,,,,,,,,,
029389,001,2022-11-20_17h55.42.999,Info_measure_main_exp,2022.2.2,Win32,59.99520038,,,,,,,,,,,,,,,,,,masks/mask_005.jpg,,,,,,,,,,,,,,,,,,,,,,,,,,,,,,,,,,,,,,,,,,,0,4,4,4,1,,,,,,,,,,,,,,,,,,,,,,,,,,,,,,,,,,,,,,,,,,,,,,
029389,001,2022-11-20_17h55.42.999,Info_measure_main_exp,2022.2.2,Win32,59.99520038,,,,,,,,,,,,,,,,,,masks/mask_005.jpg,,,,,,,,,,,,,,,,,,,,,,,,,,,,,,,,,,,,,,,,,,,,,,,,0,0,0,4,1,,,,,,,,,,,,,,,,,,,,,,,,,,,,,,,,,,,,,,,,,
029389,001,2022-11-20_17h55.42.999,Info_measure_main_exp,2022.2.2,Win32,59.99520038,,,,,,,,,,,,,,,,,,masks/mask_003.jpg,,,,,,,,,,,,,,,,,,,,,,,,,,,,,,,,,,,,,,,,,,,,,,,,0,1,1,2,1,,,,,,,,,,,,,,,,,,,,,,,,,,,,,,,,,,,,,,,,,
029389,001,2022-11-20_17h55.42.999,Info_measure_main_exp,2022.2.2,Win32,59.99520038,,,,,,,,,,,,,,,,,,masks/mask_004.jpg,,,,,,,,,,,,,,,,,,,,,,,,,,,,,,,,,,,,,,,,,,,,,,,,0,2,2,3,1,,,,,,,,,,,,,,,,,,,,,,,,,,,,,,,,,,,,,,,,,
029389,001,2022-11-20_17h55.42.999,Info_measure_main_exp,2022.2.2,Win32,59.99520038,,,,,,,,,,,,,,,,,,masks/mask_002.jpg,,,,,,,,,,,,,,,,,,,,,,,,,,,,,,,,,,,,,,,,,,,,,,,,0,3,3,1,1,,,,,,,,,,,,,,,,,,,,,,,,,,,,,,,,,,,,,,,,,
029389,001,2022-11-20_17h55.42.999,Info_measure_main_exp,2022.2.2,Win32,59.99520038,,,,,,,,,,,,,,,,,,masks/mask_001.jpg,,,,,,,,,,,,,,,,,,,,,,,,,,,,,,,,,,,,,,,,,,,,,,,,0,4,4,0,1,,,,,,,,,,,,,,,,,,,,,,,,,,,,,,,,,,,,,,,,,
029389,001,2022-11-20_17h55.42.999,Info_measure_main_exp,2022.2.2,Win32,59.99520038,,,,,,,,,,,,,,,,,,,,,,,,,,,,,,4,1.6167,1,,,,,,,,,,,,1,131,5,5,1,2274,present_patch/cong_131_5_a.jpg,absent_patch/patch0002274.jpg,,,,,,,,,,,,,,,,,,,,0.033333333,-0.07037037,1,0,0,response3disk,10,0.011111111,0.00462963,1,0,0,center_square,0,9,9,105,1,,,,,,,,,,,,,,,,,,,,,,,
029389,001,2022-11-20_17h55.42.999,Info_measure_main_exp,2022.2.2,Win32,59.99520038,,,,,,,,,,,,,,,,,,masks/mask_004.jpg,,,,,,,,,,,,,,,,,,,,,,,,,,,,,,,,,,,,,,,,,,,0,0,0,3,1,,,,,,,,,,,,,,,,,,,,,,,,,,,,,,,,,,,,,,,,,,,,,,
029389,001,2022-11-20_17h55.42.999,Info_measure_main_exp,2022.2.2,Win32,59.99520038,,,,,,,,,,,,,,,,,,masks/mask_003.jpg,,,,,,,,,,,,,,,,,,,,,,,,,,,,,,,,,,,,,,,,,,,0,1,1,2,1,,,,,,,,,,,,,,,,,,,,,,,,,,,,,,,,,,,,,,,,,,,,,,
029389,001,2022-11-20_17h55.42.999,Info_measure_main_exp,2022.2.2,Win32,59.99520038,,,,,,,,,,,,,,,,,,masks/mask_001.jpg,,,,,,,,,,,,,,,,,,,,,,,,,,,,,,,,,,,,,,,,,,,0,2,2,0,1,,,,,,,,,,,,,,,,,,,,,,,,,,,,,,,,,,,,,,,,,,,,,,
029389,001,2022-11-20_17h55.42.999,Info_measure_main_exp,2022.2.2,Win32,59.99520038,,,,,,,,,,,,,,,,,,masks/mask_002.jpg,,,,,,,,,,,,,,,,,,,,,,,,,,,,,,,,,,,,,,,,,,,0,3,3,1,1,,,,,,,,,,,,,,,,,,,,,,,,,,,,,,,,,,,,,,,,,,,,,,
029389,001,2022-11-20_17h55.42.999,Info_measure_main_exp,2022.2.2,Win32,59.99520038,,,,,,,,,,,,,,,,,,masks/mask_005.jpg,,,,,,,,,,,,,,,,,,,,,,,,,,,,,,,,,,,,,,,,,,,0,4,4,4,1,,,,,,,,,,,,,,,,,,,,,,,,,,,,,,,,,,,,,,,,,,,,,,
029389,001,2022-11-20_17h55.42.999,Info_measure_main_exp,2022.2.2,Win32,59.99520038,,,,,,,,,,,,,,,,,,masks/mask_002.jpg,,,,,,,,,,,,,,,,,,,,,,,,,,,,,,,,,,,,,,,,,,,,,,,,0,0,0,1,1,,,,,,,,,,,,,,,,,,,,,,,,,,,,,,,,,,,,,,,,,
029389,001,2022-11-20_17h55.42.999,Info_measure_main_exp,2022.2.2,Win32,59.99520038,,,,,,,,,,,,,,,,,,masks/mask_003.jpg,,,,,,,,,,,,,,,,,,,,,,,,,,,,,,,,,,,,,,,,,,,,,,,,0,1,1,2,1,,,,,,,,,,,,,,,,,,,,,,,,,,,,,,,,,,,,,,,,,
029389,001,2022-11-20_17h55.42.999,Info_measure_main_exp,2022.2.2,Win32,59.99520038,,,,,,,,,,,,,,,,,,masks/mask_005.jpg,,,,,,,,,,,,,,,,,,,,,,,,,,,,,,,,,,,,,,,,,,,,,,,,0,2,2,4,1,,,,,,,,,,,,,,,,,,,,,,,,,,,,,,,,,,,,,,,,,
029389,001,2022-11-20_17h55.42.999,Info_measure_main_exp,2022.2.2,Win32,59.99520038,,,,,,,,,,,,,,,,,,masks/mask_004.jpg,,,,,,,,,,,,,,,,,,,,,,,,,,,,,,,,,,,,,,,,,,,,,,,,0,3,3,3,1,,,,,,,,,,,,,,,,,,,,,,,,,,,,,,,,,,,,,,,,,
029389,001,2022-11-20_17h55.42.999,Info_measure_main_exp,2022.2.2,Win32,59.99520038,,,,,,,,,,,,,,,,,,masks/mask_001.jpg,,,,,,,,,,,,,,,,,,,,,,,,,,,,,,,,,,,,,,,,,,,,,,,,0,4,4,0,1,,,,,,,,,,,,,,,,,,,,,,,,,,,,,,,,,,,,,,,,,
029389,001,2022-11-20_17h55.42.999,Info_measure_main_exp,2022.2.2,Win32,59.99520038,,,,,,,,,,,,,,,,,,,,,,,,,,,,,,5,3.8998,1,,,,,,,,,,,,0,131,5,5,2274,2190,absent_patch/patch0002274.jpg,absent_patch/patch0002190.jpg,,,,,,,,,,,,,,,,,,,,0.077777778,-0.048148148,1,0,0,response3disk,11,0.002777778,0.007407407,1,0,0,center_square,0,10,10,116,1,,,,,,,,,,,,,,,,,,,,,,,
029389,001,2022-11-20_17h55.42.999,Info_measure_main_exp,2022.2.2,Win32,59.99520038,,,,,,,,,,,,,,,,,,masks/mask_005.jpg,,,,,,,,,,,,,,,,,,,,,,,,,,,,,,,,,,,,,,,,,,,0,0,0,4,1,,,,,,,,,,,,,,,,,,,,,,,,,,,,,,,,,,,,,,,,,,,,,,
029389,001,2022-11-20_17h55.42.999,Info_measure_main_exp,2022.2.2,Win32,59.99520038,,,,,,,,,,,,,,,,,,masks/mask_001.jpg,,,,,,,,,,,,,,,,,,,,,,,,,,,,,,,,,,,,,,,,,,,0,1,1,0,1,,,,,,,,,,,,,,,,,,,,,,,,,,,,,,,,,,,,,,,,,,,,,,
029389,001,2022-11-20_17h55.42.999,Info_measure_main_exp,2022.2.2,Win32,59.99520038,,,,,,,,,,,,,,,,,,masks/mask_002.jpg,,,,,,,,,,,,,,,,,,,,,,,,,,,,,,,,,,,,,,,,,,,0,2,2,1,1,,,,,,,,,,,,,,,,,,,,,,,,,,,,,,,,,,,,,,,,,,,,,,
029389,001,2022-11-20_17h55.42.999,Info_measure_main_exp,2022.2.2,Win32,59.99520038,,,,,,,,,,,,,,,,,,masks/mask_003.jpg,,,,,,,,,,,,,,,,,,,,,,,,,,,,,,,,,,,,,,,,,,,0,3,3,2,1,,,,,,,,,,,,,,,,,,,,,,,,,,,,,,,,,,,,,,,,,,,,,,
029389,001,2022-11-20_17h55.42.999,Info_measure_main_exp,2022.2.2,Win32,59.99520038,,,,,,,,,,,,,,,,,,masks/mask_004.jpg,,,,,,,,,,,,,,,,,,,,,,,,,,,,,,,,,,,,,,,,,,,0,4,4,3,1,,,,,,,,,,,,,,,,,,,,,,,,,,,,,,,,,,,,,,,,,,,,,,
029389,001,2022-11-20_17h55.42.999,Info_measure_main_exp,2022.2.2,Win32,59.99520038,,,,,,,,,,,,,,,,,,masks/mask_003.jpg,,,,,,,,,,,,,,,,,,,,,,,,,,,,,,,,,,,,,,,,,,,,,,,,0,0,0,2,1,,,,,,,,,,,,,,,,,,,,,,,,,,,,,,,,,,,,,,,,,
029389,001,2022-11-20_17h55.42.999,Info_measure_main_exp,2022.2.2,Win32,59.99520038,,,,,,,,,,,,,,,,,,masks/mask_002.jpg,,,,,,,,,,,,,,,,,,,,,,,,,,,,,,,,,,,,,,,,,,,,,,,,0,1,1,1,1,,,,,,,,,,,,,,,,,,,,,,,,,,,,,,,,,,,,,,,,,
029389,001,2022-11-20_17h55.42.999,Info_measure_main_exp,2022.2.2,Win32,59.99520038,,,,,,,,,,,,,,,,,,masks/mask_004.jpg,,,,,,,,,,,,,,,,,,,,,,,,,,,,,,,,,,,,,,,,,,,,,,,,0,2,2,3,1,,,,,,,,,,,,,,,,,,,,,,,,,,,,,,,,,,,,,,,,,
029389,001,2022-11-20_17h55.42.999,Info_measure_main_exp,2022.2.2,Win32,59.99520038,,,,,,,,,,,,,,,,,,masks/mask_005.jpg,,,,,,,,,,,,,,,,,,,,,,,,,,,,,,,,,,,,,,,,,,,,,,,,0,3,3,4,1,,,,,,,,,,,,,,,,,,,,,,,,,,,,,,,,,,,,,,,,,
029389,001,2022-11-20_17h55.42.999,Info_measure_main_exp,2022.2.2,Win32,59.99520038,,,,,,,,,,,,,,,,,,masks/mask_001.jpg,,,,,,,,,,,,,,,,,,,,,,,,,,,,,,,,,,,,,,,,,,,,,,,,0,4,4,0,1,,,,,,,,,,,,,,,,,,,,,,,,,,,,,,,,,,,,,,,,,
029389,001,2022-11-20_17h55.42.999,Info_measure_main_exp,2022.2.2,Win32,59.99520038,,,,,,,,,,,,,,,,,,,,,,,,,,,,,,4,5.4666,1,,,,,,,,,,,,0,131,5,5,1986,2274,absent_patch/patch0001986.jpg,absent_patch/patch0002274.jpg,,,,,,,,,,,,,,,,,,,,0.011111111,-0.106481481,1,0,0,response3disk,12,-0.013888889,0.002777778,1,0,0,center_square,0,11,11,7,1,,,,,,,,,,,,,,,,,,,,,,,
029389,001,2022-11-20_17h55.42.999,Info_measure_main_exp,2022.2.2,Win32,59.99520038,,,,,,,,,,,,,,,,,,masks/mask_003.jpg,,,,,,,,,,,,,,,,,,,,,,,,,,,,,,,,,,,,,,,,,,,0,0,0,2,1,,,,,,,,,,,,,,,,,,,,,,,,,,,,,,,,,,,,,,,,,,,,,,
029389,001,2022-11-20_17h55.42.999,Info_measure_main_exp,2022.2.2,Win32,59.99520038,,,,,,,,,,,,,,,,,,masks/mask_002.jpg,,,,,,,,,,,,,,,,,,,,,,,,,,,,,,,,,,,,,,,,,,,0,1,1,1,1,,,,,,,,,,,,,,,,,,,,,,,,,,,,,,,,,,,,,,,,,,,,,,
029389,001,2022-11-20_17h55.42.999,Info_measure_main_exp,2022.2.2,Win32,59.99520038,,,,,,,,,,,,,,,,,,masks/mask_001.jpg,,,,,,,,,,,,,,,,,,,,,,,,,,,,,,,,,,,,,,,,,,,0,2,2,0,1,,,,,,,,,,,,,,,,,,,,,,,,,,,,,,,,,,,,,,,,,,,,,,
029389,001,2022-11-20_17h55.42.999,Info_measure_main_exp,2022.2.2,Win32,59.99520038,,,,,,,,,,,,,,,,,,masks/mask_005.jpg,,,,,,,,,,,,,,,,,,,,,,,,,,,,,,,,,,,,,,,,,,,0,3,3,4,1,,,,,,,,,,,,,,,,,,,,,,,,,,,,,,,,,,,,,,,,,,,,,,
029389,001,2022-11-20_17h55.42.999,Info_measure_main_exp,2022.2.2,Win32,59.99520038,,,,,,,,,,,,,,,,,,masks/mask_004.jpg,,,,,,,,,,,,,,,,,,,,,,,,,,,,,,,,,,,,,,,,,,,0,4,4,3,1,,,,,,,,,,,,,,,,,,,,,,,,,,,,,,,,,,,,,,,,,,,,,,
029389,001,2022-11-20_17h55.42.999,Info_measure_main_exp,2022.2.2,Win32,59.99520038,,,,,,,,,,,,,,,,,,masks/mask_005.jpg,,,,,,,,,,,,,,,,,,,,,,,,,,,,,,,,,,,,,,,,,,,,,,,,0,0,0,4,1,,,,,,,,,,,,,,,,,,,,,,,,,,,,,,,,,,,,,,,,,
029389,001,2022-11-20_17h55.42.999,Info_measure_main_exp,2022.2.2,Win32,59.99520038,,,,,,,,,,,,,,,,,,masks/mask_001.jpg,,,,,,,,,,,,,,,,,,,,,,,,,,,,,,,,,,,,,,,,,,,,,,,,0,1,1,0,1,,,,,,,,,,,,,,,,,,,,,,,,,,,,,,,,,,,,,,,,,
029389,001,2022-11-20_17h55.42.999,Info_measure_main_exp,2022.2.2,Win32,59.99520038,,,,,,,,,,,,,,,,,,masks/mask_003.jpg,,,,,,,,,,,,,,,,,,,,,,,,,,,,,,,,,,,,,,,,,,,,,,,,0,2,2,2,1,,,,,,,,,,,,,,,,,,,,,,,,,,,,,,,,,,,,,,,,,
029389,001,2022-11-20_17h55.42.999,Info_measure_main_exp,2022.2.2,Win32,59.99520038,,,,,,,,,,,,,,,,,,masks/mask_002.jpg,,,,,,,,,,,,,,,,,,,,,,,,,,,,,,,,,,,,,,,,,,,,,,,,0,3,3,1,1,,,,,,,,,,,,,,,,,,,,,,,,,,,,,,,,,,,,,,,,,
029389,001,2022-11-20_17h55.42.999,Info_measure_main_exp,2022.2.2,Win32,59.99520038,,,,,,,,,,,,,,,,,,masks/mask_004.jpg,,,,,,,,,,,,,,,,,,,,,,,,,,,,,,,,,,,,,,,,,,,,,,,,0,4,4,3,1,,,,,,,,,,,,,,,,,,,,,,,,,,,,,,,,,,,,,,,,,
029389,001,2022-11-20_17h55.42.999,Info_measure_main_exp,2022.2.2,Win32,59.99520038,,,,,,,,,,,,,,,,,,,,,,,,,,,,,,7,1.4999,1,,,,,,,,,,,,1,131,5,5,1,1974,present_patch/cong_131_5_a.jpg,absent_patch/patch0001974.jpg,,,,,,,,,,,,,,,,,,,,0.076851852,0.142592593,1,0,0,response1disk,13,-0.000925926,-0.001851852,1,0,0,center_square,0,12,12,69,1,,,,,,,,,,,,,,,,,,,,,,,
029389,001,2022-11-20_17h55.42.999,Info_measure_main_exp,2022.2.2,Win32,59.99520038,,,,,,,,,,,,,,,,,,masks/mask_004.jpg,,,,,,,,,,,,,,,,,,,,,,,,,,,,,,,,,,,,,,,,,,,0,0,0,3,1,,,,,,,,,,,,,,,,,,,,,,,,,,,,,,,,,,,,,,,,,,,,,,
029389,001,2022-11-20_17h55.42.999,Info_measure_main_exp,2022.2.2,Win32,59.99520038,,,,,,,,,,,,,,,,,,masks/mask_003.jpg,,,,,,,,,,,,,,,,,,,,,,,,,,,,,,,,,,,,,,,,,,,0,1,1,2,1,,,,,,,,,,,,,,,,,,,,,,,,,,,,,,,,,,,,,,,,,,,,,,
029389,001,2022-11-20_17h55.42.999,Info_measure_main_exp,2022.2.2,Win32,59.99520038,,,,,,,,,,,,,,,,,,masks/mask_001.jpg,,,,,,,,,,,,,,,,,,,,,,,,,,,,,,,,,,,,,,,,,,,0,2,2,0,1,,,,,,,,,,,,,,,,,,,,,,,,,,,,,,,,,,,,,,,,,,,,,,
029389,001,2022-11-20_17h55.42.999,Info_measure_main_exp,2022.2.2,Win32,59.99520038,,,,,,,,,,,,,,,,,,masks/mask_002.jpg,,,,,,,,,,,,,,,,,,,,,,,,,,,,,,,,,,,,,,,,,,,0,3,3,1,1,,,,,,,,,,,,,,,,,,,,,,,,,,,,,,,,,,,,,,,,,,,,,,
029389,001,2022-11-20_17h55.42.999,Info_measure_main_exp,2022.2.2,Win32,59.99520038,,,,,,,,,,,,,,,,,,masks/mask_005.jpg,,,,,,,,,,,,,,,,,,,,,,,,,,,,,,,,,,,,,,,,,,,0,4,4,4,1,,,,,,,,,,,,,,,,,,,,,,,,,,,,,,,,,,,,,,,,,,,,,,
029389,001,2022-11-20_17h55.42.999,Info_measure_main_exp,2022.2.2,Win32,59.99520038,,,,,,,,,,,,,,,,,,masks/mask_005.jpg,,,,,,,,,,,,,,,,,,,,,,,,,,,,,,,,,,,,,,,,,,,,,,,,0,0,0,4,1,,,,,,,,,,,,,,,,,,,,,,,,,,,,,,,,,,,,,,,,,
029389,001,2022-11-20_17h55.42.999,Info_measure_main_exp,2022.2.2,Win32,59.99520038,,,,,,,,,,,,,,,,,,masks/mask_001.jpg,,,,,,,,,,,,,,,,,,,,,,,,,,,,,,,,,,,,,,,,,,,,,,,,0,1,1,0,1,,,,,,,,,,,,,,,,,,,,,,,,,,,,,,,,,,,,,,,,,
029389,001,2022-11-20_17h55.42.999,Info_measure_main_exp,2022.2.2,Win32,59.99520038,,,,,,,,,,,,,,,,,,masks/mask_003.jpg,,,,,,,,,,,,,,,,,,,,,,,,,,,,,,,,,,,,,,,,,,,,,,,,0,2,2,2,1,,,,,,,,,,,,,,,,,,,,,,,,,,,,,,,,,,,,,,,,,
029389,001,2022-11-20_17h55.42.999,Info_measure_main_exp,2022.2.2,Win32,59.99520038,,,,,,,,,,,,,,,,,,masks/mask_002.jpg,,,,,,,,,,,,,,,,,,,,,,,,,,,,,,,,,,,,,,,,,,,,,,,,0,3,3,1,1,,,,,,,,,,,,,,,,,,,,,,,,,,,,,,,,,,,,,,,,,
029389,001,2022-11-20_17h55.42.999,Info_measure_main_exp,2022.2.2,Win32,59.99520038,,,,,,,,,,,,,,,,,,masks/mask_004.jpg,,,,,,,,,,,,,,,,,,,,,,,,,,,,,,,,,,,,,,,,,,,,,,,,0,4,4,3,1,,,,,,,,,,,,,,,,,,,,,,,,,,,,,,,,,,,,,,,,,
029389,001,2022-11-20_17h55.42.999,Info_measure_main_exp,2022.2.2,Win32,59.99520038,,,,,,,,,,,,,,,,,,,,,,,,,,,,,,7,1.5165,1,,,,,,,,,,,,0,131,5,5,1950,2166,absent_patch/patch0001950.jpg,absent_patch/patch0002166.jpg,,,,,,,,,,,,,,,,,,,,0.067592593,0.110185185,1,0,0,response1disk,14,0.003703704,-0.012037037,1,0,0,center_square,0,13,13,0,1,,,,,,,,,,,,,,,,,,,,,,,
029389,001,2022-11-20_17h55.42.999,Info_measure_main_exp,2022.2.2,Win32,59.99520038,,,,,,,,,,,,,,,,,,masks/mask_004.jpg,,,,,,,,,,,,,,,,,,,,,,,,,,,,,,,,,,,,,,,,,,,0,0,0,3,1,,,,,,,,,,,,,,,,,,,,,,,,,,,,,,,,,,,,,,,,,,,,,,
029389,001,2022-11-20_17h55.42.999,Info_measure_main_exp,2022.2.2,Win32,59.99520038,,,,,,,,,,,,,,,,,,masks/mask_002.jpg,,,,,,,,,,,,,,,,,,,,,,,,,,,,,,,,,,,,,,,,,,,0,1,1,1,1,,,,,,,,,,,,,,,,,,,,,,,,,,,,,,,,,,,,,,,,,,,,,,
029389,001,2022-11-20_17h55.42.999,Info_measure_main_exp,2022.2.2,Win32,59.99520038,,,,,,,,,,,,,,,,,,masks/mask_001.jpg,,,,,,,,,,,,,,,,,,,,,,,,,,,,,,,,,,,,,,,,,,,0,2,2,0,1,,,,,,,,,,,,,,,,,,,,,,,,,,,,,,,,,,,,,,,,,,,,,,
029389,001,2022-11-20_17h55.42.999,Info_measure_main_exp,2022.2.2,Win32,59.99520038,,,,,,,,,,,,,,,,,,masks/mask_003.jpg,,,,,,,,,,,,,,,,,,,,,,,,,,,,,,,,,,,,,,,,,,,0,3,3,2,1,,,,,,,,,,,,,,,,,,,,,,,,,,,,,,,,,,,,,,,,,,,,,,
029389,001,2022-11-20_17h55.42.999,Info_measure_main_exp,2022.2.2,Win32,59.99520038,,,,,,,,,,,,,,,,,,masks/mask_005.jpg,,,,,,,,,,,,,,,,,,,,,,,,,,,,,,,,,,,,,,,,,,,0,4,4,4,1,,,,,,,,,,,,,,,,,,,,,,,,,,,,,,,,,,,,,,,,,,,,,,
029389,001,2022-11-20_17h55.42.999,Info_measure_main_exp,2022.2.2,Win32,59.99520038,,,,,,,,,,,,,,,,,,masks/mask_002.jpg,,,,,,,,,,,,,,,,,,,,,,,,,,,,,,,,,,,,,,,,,,,,,,,,0,0,0,1,1,,,,,,,,,,,,,,,,,,,,,,,,,,,,,,,,,,,,,,,,,
029389,001,2022-11-20_17h55.42.999,Info_measure_main_exp,2022.2.2,Win32,59.99520038,,,,,,,,,,,,,,,,,,masks/mask_005.jpg,,,,,,,,,,,,,,,,,,,,,,,,,,,,,,,,,,,,,,,,,,,,,,,,0,1,1,4,1,,,,,,,,,,,,,,,,,,,,,,,,,,,,,,,,,,,,,,,,,
029389,001,2022-11-20_17h55.42.999,Info_measure_main_exp,2022.2.2,Win32,59.99520038,,,,,,,,,,,,,,,,,,masks/mask_003.jpg,,,,,,,,,,,,,,,,,,,,,,,,,,,,,,,,,,,,,,,,,,,,,,,,0,2,2,2,1,,,,,,,,,,,,,,,,,,,,,,,,,,,,,,,,,,,,,,,,,
029389,001,2022-11-20_17h55.42.999,Info_measure_main_exp,2022.2.2,Win32,59.99520038,,,,,,,,,,,,,,,,,,masks/mask_001.jpg,,,,,,,,,,,,,,,,,,,,,,,,,,,,,,,,,,,,,,,,,,,,,,,,0,3,3,0,1,,,,,,,,,,,,,,,,,,,,,,,,,,,,,,,,,,,,,,,,,
029389,001,2022-11-20_17h55.42.999,Info_measure_main_exp,2022.2.2,Win32,59.99520038,,,,,,,,,,,,,,,,,,masks/mask_004.jpg,,,,,,,,,,,,,,,,,,,,,,,,,,,,,,,,,,,,,,,,,,,,,,,,0,4,4,3,1,,,,,,,,,,,,,,,,,,,,,,,,,,,,,,,,,,,,,,,,,
029389,001,2022-11-20_17h55.42.999,Info_measure_main_exp,2022.2.2,Win32,59.99520038,,,,,,,,,,,,,,,,,,,,,,,,,,,,,,3,2.4333,1,,,,,,,,,,,,0,131,5,5,1950,2178,absent_patch/patch0001950.jpg,absent_patch/patch0002178.jpg,,,,,,,,,,,,,,,,,,,,-0.042592593,-0.098148148,1,0,0,response5disk,15,0.011111111,0.003703704,1,0,0,center_square,0,14,14,61,1,,,,,,,,,,,,,,,,,,,,,,,
029389,001,2022-11-20_17h55.42.999,Info_measure_main_exp,2022.2.2,Win32,59.99520038,,,,,,,,,,,,,,,,,,masks/mask_003.jpg,,,,,,,,,,,,,,,,,,,,,,,,,,,,,,,,,,,,,,,,,,,0,0,0,2,1,,,,,,,,,,,,,,,,,,,,,,,,,,,,,,,,,,,,,,,,,,,,,,
029389,001,2022-11-20_17h55.42.999,Info_measure_main_exp,2022.2.2,Win32,59.99520038,,,,,,,,,,,,,,,,,,masks/mask_001.jpg,,,,,,,,,,,,,,,,,,,,,,,,,,,,,,,,,,,,,,,,,,,0,1,1,0,1,,,,,,,,,,,,,,,,,,,,,,,,,,,,,,,,,,,,,,,,,,,,,,
029389,001,2022-11-20_17h55.42.999,Info_measure_main_exp,2022.2.2,Win32,59.99520038,,,,,,,,,,,,,,,,,,masks/mask_002.jpg,,,,,,,,,,,,,,,,,,,,,,,,,,,,,,,,,,,,,,,,,,,0,2,2,1,1,,,,,,,,,,,,,,,,,,,,,,,,,,,,,,,,,,,,,,,,,,,,,,
029389,001,2022-11-20_17h55.42.999,Info_measure_main_exp,2022.2.2,Win32,59.99520038,,,,,,,,,,,,,,,,,,masks/mask_005.jpg,,,,,,,,,,,,,,,,,,,,,,,,,,,,,,,,,,,,,,,,,,,0,3,3,4,1,,,,,,,,,,,,,,,,,,,,,,,,,,,,,,,,,,,,,,,,,,,,,,
029389,001,2022-11-20_17h55.42.999,Info_measure_main_exp,2022.2.2,Win32,59.99520038,,,,,,,,,,,,,,,,,,masks/mask_004.jpg,,,,,,,,,,,,,,,,,,,,,,,,,,,,,,,,,,,,,,,,,,,0,4,4,3,1,,,,,,,,,,,,,,,,,,,,,,,,,,,,,,,,,,,,,,,,,,,,,,
029389,001,2022-11-20_17h55.42.999,Info_measure_main_exp,2022.2.2,Win32,59.99520038,,,,,,,,,,,,,,,,,,masks/mask_005.jpg,,,,,,,,,,,,,,,,,,,,,,,,,,,,,,,,,,,,,,,,,,,,,,,,0,0,0,4,1,,,,,,,,,,,,,,,,,,,,,,,,,,,,,,,,,,,,,,,,,
029389,001,2022-11-20_17h55.42.999,Info_measure_main_exp,2022.2.2,Win32,59.99520038,,,,,,,,,,,,,,,,,,masks/mask_004.jpg,,,,,,,,,,,,,,,,,,,,,,,,,,,,,,,,,,,,,,,,,,,,,,,,0,1,1,3,1,,,,,,,,,,,,,,,,,,,,,,,,,,,,,,,,,,,,,,,,,
029389,001,2022-11-20_17h55.42.999,Info_measure_main_exp,2022.2.2,Win32,59.99520038,,,,,,,,,,,,,,,,,,masks/mask_003.jpg,,,,,,,,,,,,,,,,,,,,,,,,,,,,,,,,,,,,,,,,,,,,,,,,0,2,2,2,1,,,,,,,,,,,,,,,,,,,,,,,,,,,,,,,,,,,,,,,,,
029389,001,2022-11-20_17h55.42.999,Info_measure_main_exp,2022.2.2,Win32,59.99520038,,,,,,,,,,,,,,,,,,masks/mask_001.jpg,,,,,,,,,,,,,,,,,,,,,,,,,,,,,,,,,,,,,,,,,,,,,,,,0,3,3,0,1,,,,,,,,,,,,,,,,,,,,,,,,,,,,,,,,,,,,,,,,,
029389,001,2022-11-20_17h55.42.999,Info_measure_main_exp,2022.2.2,Win32,59.99520038,,,,,,,,,,,,,,,,,,masks/mask_002.jpg,,,,,,,,,,,,,,,,,,,,,,,,,,,,,,,,,,,,,,,,,,,,,,,,0,4,4,1,1,,,,,,,,,,,,,,,,,,,,,,,,,,,,,,,,,,,,,,,,,
029389,001,2022-11-20_17h55.42.999,Info_measure_main_exp,2022.2.2,Win32,59.99520038,,,,,,,,,,,,,,,,,,,,,,,,,,,,,,5,1.9001,1,,,,,,,,,,,,0,131,5,5,2190,2178,absent_patch/patch0002190.jpg,absent_patch/patch0002178.jpg,,,,,,,,,,,,,,,,,,,,0.088888889,-0.046296296,1,0,0,response3disk,16,-0.002777778,0.003703704,1,0,0,center_square,0,15,15,14,1,,,,,,,,,,,,,,,,,,,,,,,
029389,001,2022-11-20_17h55.42.999,Info_measure_main_exp,2022.2.2,Win32,59.99520038,,,,,,,,,,,,,,,,,,masks/mask_005.jpg,,,,,,,,,,,,,,,,,,,,,,,,,,,,,,,,,,,,,,,,,,,0,0,0,4,1,,,,,,,,,,,,,,,,,,,,,,,,,,,,,,,,,,,,,,,,,,,,,,
029389,001,2022-11-20_17h55.42.999,Info_measure_main_exp,2022.2.2,Win32,59.99520038,,,,,,,,,,,,,,,,,,masks/mask_002.jpg,,,,,,,,,,,,,,,,,,,,,,,,,,,,,,,,,,,,,,,,,,,0,1,1,1,1,,,,,,,,,,,,,,,,,,,,,,,,,,,,,,,,,,,,,,,,,,,,,,
029389,001,2022-11-20_17h55.42.999,Info_measure_main_exp,2022.2.2,Win32,59.99520038,,,,,,,,,,,,,,,,,,masks/mask_003.jpg,,,,,,,,,,,,,,,,,,,,,,,,,,,,,,,,,,,,,,,,,,,0,2,2,2,1,,,,,,,,,,,,,,,,,,,,,,,,,,,,,,,,,,,,,,,,,,,,,,
029389,001,2022-11-20_17h55.42.999,Info_measure_main_exp,2022.2.2,Win32,59.99520038,,,,,,,,,,,,,,,,,,masks/mask_004.jpg,,,,,,,,,,,,,,,,,,,,,,,,,,,,,,,,,,,,,,,,,,,0,3,3,3,1,,,,,,,,,,,,,,,,,,,,,,,,,,,,,,,,,,,,,,,,,,,,,,
029389,001,2022-11-20_17h55.42.999,Info_measure_main_exp,2022.2.2,Win32,59.99520038,,,,,,,,,,,,,,,,,,masks/mask_001.jpg,,,,,,,,,,,,,,,,,,,,,,,,,,,,,,,,,,,,,,,,,,,0,4,4,0,1,,,,,,,,,,,,,,,,,,,,,,,,,,,,,,,,,,,,,,,,,,,,,,
029389,001,2022-11-20_17h55.42.999,Info_measure_main_exp,2022.2.2,Win32,59.99520038,,,,,,,,,,,,,,,,,,masks/mask_004.jpg,,,,,,,,,,,,,,,,,,,,,,,,,,,,,,,,,,,,,,,,,,,,,,,,0,0,0,3,1,,,,,,,,,,,,,,,,,,,,,,,,,,,,,,,,,,,,,,,,,
029389,001,2022-11-20_17h55.42.999,Info_measure_main_exp,2022.2.2,Win32,59.99520038,,,,,,,,,,,,,,,,,,masks/mask_001.jpg,,,,,,,,,,,,,,,,,,,,,,,,,,,,,,,,,,,,,,,,,,,,,,,,0,1,1,0,1,,,,,,,,,,,,,,,,,,,,,,,,,,,,,,,,,,,,,,,,,
029389,001,2022-11-20_17h55.42.999,Info_measure_main_exp,2022.2.2,Win32,59.99520038,,,,,,,,,,,,,,,,,,masks/mask_003.jpg,,,,,,,,,,,,,,,,,,,,,,,,,,,,,,,,,,,,,,,,,,,,,,,,0,2,2,2,1,,,,,,,,,,,,,,,,,,,,,,,,,,,,,,,,,,,,,,,,,
029389,001,2022-11-20_17h55.42.999,Info_measure_main_exp,2022.2.2,Win32,59.99520038,,,,,,,,,,,,,,,,,,masks/mask_002.jpg,,,,,,,,,,,,,,,,,,,,,,,,,,,,,,,,,,,,,,,,,,,,,,,,0,3,3,1,1,,,,,,,,,,,,,,,,,,,,,,,,,,,,,,,,,,,,,,,,,
029389,001,2022-11-20_17h55.42.999,Info_measure_main_exp,2022.2.2,Win32,59.99520038,,,,,,,,,,,,,,,,,,masks/mask_005.jpg,,,,,,,,,,,,,,,,,,,,,,,,,,,,,,,,,,,,,,,,,,,,,,,,0,4,4,4,1,,,,,,,,,,,,,,,,,,,,,,,,,,,,,,,,,,,,,,,,,
029389,001,2022-11-20_17h55.42.999,Info_measure_main_exp,2022.2.2,Win32,59.99520038,,,,,,,,,,,,,,,,,,,,,,,,,,,,,,6,4.1834,1,,,,,,,,,,,,0,131,5,5,2298,1986,absent_patch/patch0002298.jpg,absent_patch/patch0001986.jpg,,,,,,,,,,,,,,,,,,,,0.15,0.026851852,1,0,0,response1disk,17,0.005555556,0.007407407,1,0,0,center_square,0,16,16,32,1,,,,,,,,,,,,,,,,,,,,,,,
029389,001,2022-11-20_17h55.42.999,Info_measure_main_exp,2022.2.2,Win32,59.99520038,,,,,,,,,,,,,,,,,,masks/mask_001.jpg,,,,,,,,,,,,,,,,,,,,,,,,,,,,,,,,,,,,,,,,,,,0,0,0,0,1,,,,,,,,,,,,,,,,,,,,,,,,,,,,,,,,,,,,,,,,,,,,,,
029389,001,2022-11-20_17h55.42.999,Info_measure_main_exp,2022.2.2,Win32,59.99520038,,,,,,,,,,,,,,,,,,masks/mask_003.jpg,,,,,,,,,,,,,,,,,,,,,,,,,,,,,,,,,,,,,,,,,,,0,1,1,2,1,,,,,,,,,,,,,,,,,,,,,,,,,,,,,,,,,,,,,,,,,,,,,,
029389,001,2022-11-20_17h55.42.999,Info_measure_main_exp,2022.2.2,Win32,59.99520038,,,,,,,,,,,,,,,,,,masks/mask_002.jpg,,,,,,,,,,,,,,,,,,,,,,,,,,,,,,,,,,,,,,,,,,,0,2,2,1,1,,,,,,,,,,,,,,,,,,,,,,,,,,,,,,,,,,,,,,,,,,,,,,
029389,001,2022-11-20_17h55.42.999,Info_measure_main_exp,2022.2.2,Win32,59.99520038,,,,,,,,,,,,,,,,,,masks/mask_004.jpg,,,,,,,,,,,,,,,,,,,,,,,,,,,,,,,,,,,,,,,,,,,0,3,3,3,1,,,,,,,,,,,,,,,,,,,,,,,,,,,,,,,,,,,,,,,,,,,,,,
029389,001,2022-11-20_17h55.42.999,Info_measure_main_exp,2022.2.2,Win32,59.99520038,,,,,,,,,,,,,,,,,,masks/mask_005.jpg,,,,,,,,,,,,,,,,,,,,,,,,,,,,,,,,,,,,,,,,,,,0,4,4,4,1,,,,,,,,,,,,,,,,,,,,,,,,,,,,,,,,,,,,,,,,,,,,,,
029389,001,2022-11-20_17h55.42.999,Info_measure_main_exp,2022.2.2,Win32,59.99520038,,,,,,,,,,,,,,,,,,masks/mask_002.jpg,,,,,,,,,,,,,,,,,,,,,,,,,,,,,,,,,,,,,,,,,,,,,,,,0,0,0,1,1,,,,,,,,,,,,,,,,,,,,,,,,,,,,,,,,,,,,,,,,,
029389,001,2022-11-20_17h55.42.999,Info_measure_main_exp,2022.2.2,Win32,59.99520038,,,,,,,,,,,,,,,,,,masks/mask_005.jpg,,,,,,,,,,,,,,,,,,,,,,,,,,,,,,,,,,,,,,,,,,,,,,,,0,1,1,4,1,,,,,,,,,,,,,,,,,,,,,,,,,,,,,,,,,,,,,,,,,
029389,001,2022-11-20_17h55.42.999,Info_measure_main_exp,2022.2.2,Win32,59.99520038,,,,,,,,,,,,,,,,,,masks/mask_004.jpg,,,,,,,,,,,,,,,,,,,,,,,,,,,,,,,,,,,,,,,,,,,,,,,,0,2,2,3,1,,,,,,,,,,,,,,,,,,,,,,,,,,,,,,,,,,,,,,,,,
029389,001,2022-11-20_17h55.42.999,Info_measure_main_exp,2022.2.2,Win32,59.99520038,,,,,,,,,,,,,,,,,,masks/mask_003.jpg,,,,,,,,,,,,,,,,,,,,,,,,,,,,,,,,,,,,,,,,,,,,,,,,0,3,3,2,1,,,,,,,,,,,,,,,,,,,,,,,,,,,,,,,,,,,,,,,,,
029389,001,2022-11-20_17h55.42.999,Info_measure_main_exp,2022.2.2,Win32,59.99520038,,,,,,,,,,,,,,,,,,masks/mask_001.jpg,,,,,,,,,,,,,,,,,,,,,,,,,,,,,,,,,,,,,,,,,,,,,,,,0,4,4,0,1,,,,,,,,,,,,,,,,,,,,,,,,,,,,,,,,,,,,,,,,,
029389,001,2022-11-20_17h55.42.999,Info_measure_main_exp,2022.2.2,Win32,59.99520038,,,,,,,,,,,,,,,,,,,,,,,,,,,,,,7,0.8332,1,,,,,,,,,,,,0,131,5,5,2154,1950,absent_patch/patch0002154.jpg,absent_patch/patch0001950.jpg,,,,,,,,,,,,,,,,,,,,0.033333333,0.075925926,1,0,0,response1disk,18,-0.001851852,-0.001851852,1,0,0,center_square,0,17,17,96,1,,,,,,,,,,,,,,,,,,,,,,,
029389,001,2022-11-20_17h55.42.999,Info_measure_main_exp,2022.2.2,Win32,59.99520038,,,,,,,,,,,,,,,,,,masks/mask_003.jpg,,,,,,,,,,,,,,,,,,,,,,,,,,,,,,,,,,,,,,,,,,,0,0,0,2,1,,,,,,,,,,,,,,,,,,,,,,,,,,,,,,,,,,,,,,,,,,,,,,
029389,001,2022-11-20_17h55.42.999,Info_measure_main_exp,2022.2.2,Win32,59.99520038,,,,,,,,,,,,,,,,,,masks/mask_005.jpg,,,,,,,,,,,,,,,,,,,,,,,,,,,,,,,,,,,,,,,,,,,0,1,1,4,1,,,,,,,,,,,,,,,,,,,,,,,,,,,,,,,,,,,,,,,,,,,,,,
029389,001,2022-11-20_17h55.42.999,Info_measure_main_exp,2022.2.2,Win32,59.99520038,,,,,,,,,,,,,,,,,,masks/mask_001.jpg,,,,,,,,,,,,,,,,,,,,,,,,,,,,,,,,,,,,,,,,,,,0,2,2,0,1,,,,,,,,,,,,,,,,,,,,,,,,,,,,,,,,,,,,,,,,,,,,,,
029389,001,2022-11-20_17h55.42.999,Info_measure_main_exp,2022.2.2,Win32,59.99520038,,,,,,,,,,,,,,,,,,masks/mask_002.jpg,,,,,,,,,,,,,,,,,,,,,,,,,,,,,,,,,,,,,,,,,,,0,3,3,1,1,,,,,,,,,,,,,,,,,,,,,,,,,,,,,,,,,,,,,,,,,,,,,,
029389,001,2022-11-20_17h55.42.999,Info_measure_main_exp,2022.2.2,Win32,59.99520038,,,,,,,,,,,,,,,,,,masks/mask_004.jpg,,,,,,,,,,,,,,,,,,,,,,,,,,,,,,,,,,,,,,,,,,,0,4,4,3,1,,,,,,,,,,,,,,,,,,,,,,,,,,,,,,,,,,,,,,,,,,,,,,
029389,001,2022-11-20_17h55.42.999,Info_measure_main_exp,2022.2.2,Win32,59.99520038,,,,,,,,,,,,,,,,,,masks/mask_005.jpg,,,,,,,,,,,,,,,,,,,,,,,,,,,,,,,,,,,,,,,,,,,,,,,,0,0,0,4,1,,,,,,,,,,,,,,,,,,,,,,,,,,,,,,,,,,,,,,,,,
029389,001,2022-11-20_17h55.42.999,Info_measure_main_exp,2022.2.2,Win32,59.99520038,,,,,,,,,,,,,,,,,,masks/mask_004.jpg,,,,,,,,,,,,,,,,,,,,,,,,,,,,,,,,,,,,,,,,,,,,,,,,0,1,1,3,1,,,,,,,,,,,,,,,,,,,,,,,,,,,,,,,,,,,,,,,,,
029389,001,2022-11-20_17h55.42.999,Info_measure_main_exp,2022.2.2,Win32,59.99520038,,,,,,,,,,,,,,,,,,masks/mask_003.jpg,,,,,,,,,,,,,,,,,,,,,,,,,,,,,,,,,,,,,,,,,,,,,,,,0,2,2,2,1,,,,,,,,,,,,,,,,,,,,,,,,,,,,,,,,,,,,,,,,,
029389,001,2022-11-20_17h55.42.999,Info_measure_main_exp,2022.2.2,Win32,59.99520038,,,,,,,,,,,,,,,,,,masks/mask_001.jpg,,,,,,,,,,,,,,,,,,,,,,,,,,,,,,,,,,,,,,,,,,,,,,,,0,3,3,0,1,,,,,,,,,,,,,,,,,,,,,,,,,,,,,,,,,,,,,,,,,
029389,001,2022-11-20_17h55.42.999,Info_measure_main_exp,2022.2.2,Win32,59.99520038,,,,,,,,,,,,,,,,,,masks/mask_002.jpg,,,,,,,,,,,,,,,,,,,,,,,,,,,,,,,,,,,,,,,,,,,,,,,,0,4,4,1,1,,,,,,,,,,,,,,,,,,,,,,,,,,,,,,,,,,,,,,,,,
029389,001,2022-11-20_17h55.42.999,Info_measure_main_exp,2022.2.2,Win32,59.99520038,,,,,,,,,,,,,,,,,,,,,,,,,,,,,,6,1.5166,1,,,,,,,,,,,,0,131,5,5,2190,2214,absent_patch/patch0002190.jpg,absent_patch/patch0002214.jpg,,,,,,,,,,,,,,,,,,,,0.108333333,0.037962963,1,0,0,response1disk,19,-0.002777778,0.002777778,1,0,0,center_square,0,18,18,35,1,,,,,,,,,,,,,,,,,,,,,,,
029389,001,2022-11-20_17h55.42.999,Info_measure_main_exp,2022.2.2,Win32,59.99520038,,,,,,,,,,,,,,,,,,masks/mask_001.jpg,,,,,,,,,,,,,,,,,,,,,,,,,,,,,,,,,,,,,,,,,,,0,0,0,0,1,,,,,,,,,,,,,,,,,,,,,,,,,,,,,,,,,,,,,,,,,,,,,,
029389,001,2022-11-20_17h55.42.999,Info_measure_main_exp,2022.2.2,Win32,59.99520038,,,,,,,,,,,,,,,,,,masks/mask_004.jpg,,,,,,,,,,,,,,,,,,,,,,,,,,,,,,,,,,,,,,,,,,,0,1,1,3,1,,,,,,,,,,,,,,,,,,,,,,,,,,,,,,,,,,,,,,,,,,,,,,
029389,001,2022-11-20_17h55.42.999,Info_measure_main_exp,2022.2.2,Win32,59.99520038,,,,,,,,,,,,,,,,,,masks/mask_002.jpg,,,,,,,,,,,,,,,,,,,,,,,,,,,,,,,,,,,,,,,,,,,0,2,2,1,1,,,,,,,,,,,,,,,,,,,,,,,,,,,,,,,,,,,,,,,,,,,,,,
029389,001,2022-11-20_17h55.42.999,Info_measure_main_exp,2022.2.2,Win32,59.99520038,,,,,,,,,,,,,,,,,,masks/mask_003.jpg,,,,,,,,,,,,,,,,,,,,,,,,,,,,,,,,,,,,,,,,,,,0,3,3,2,1,,,,,,,,,,,,,,,,,,,,,,,,,,,,,,,,,,,,,,,,,,,,,,
029389,001,2022-11-20_17h55.42.999,Info_measure_main_exp,2022.2.2,Win32,59.99520038,,,,,,,,,,,,,,,,,,masks/mask_005.jpg,,,,,,,,,,,,,,,,,,,,,,,,,,,,,,,,,,,,,,,,,,,0,4,4,4,1,,,,,,,,,,,,,,,,,,,,,,,,,,,,,,,,,,,,,,,,,,,,,,
029389,001,2022-11-20_17h55.42.999,Info_measure_main_exp,2022.2.2,Win32,59.99520038,,,,,,,,,,,,,,,,,,masks/mask_002.jpg,,,,,,,,,,,,,,,,,,,,,,,,,,,,,,,,,,,,,,,,,,,,,,,,0,0,0,1,1,,,,,,,,,,,,,,,,,,,,,,,,,,,,,,,,,,,,,,,,,
029389,001,2022-11-20_17h55.42.999,Info_measure_main_exp,2022.2.2,Win32,59.99520038,,,,,,,,,,,,,,,,,,masks/mask_001.jpg,,,,,,,,,,,,,,,,,,,,,,,,,,,,,,,,,,,,,,,,,,,,,,,,0,1,1,0,1,,,,,,,,,,,,,,,,,,,,,,,,,,,,,,,,,,,,,,,,,
029389,001,2022-11-20_17h55.42.999,Info_measure_main_exp,2022.2.2,Win32,59.99520038,,,,,,,,,,,,,,,,,,masks/mask_005.jpg,,,,,,,,,,,,,,,,,,,,,,,,,,,,,,,,,,,,,,,,,,,,,,,,0,2,2,4,1,,,,,,,,,,,,,,,,,,,,,,,,,,,,,,,,,,,,,,,,,
029389,001,2022-11-20_17h55.42.999,Info_measure_main_exp,2022.2.2,Win32,59.99520038,,,,,,,,,,,,,,,,,,masks/mask_003.jpg,,,,,,,,,,,,,,,,,,,,,,,,,,,,,,,,,,,,,,,,,,,,,,,,0,3,3,2,1,,,,,,,,,,,,,,,,,,,,,,,,,,,,,,,,,,,,,,,,,
029389,001,2022-11-20_17h55.42.999,Info_measure_main_exp,2022.2.2,Win32,59.99520038,,,,,,,,,,,,,,,,,,masks/mask_004.jpg,,,,,,,,,,,,,,,,,,,,,,,,,,,,,,,,,,,,,,,,,,,,,,,,0,4,4,3,1,,,,,,,,,,,,,,,,,,,,,,,,,,,,,,,,,,,,,,,,,
029389,001,2022-11-20_17h55.42.999,Info_measure_main_exp,2022.2.2,Win32,59.99520038,,,,,,,,,,,,,,,,,,,,,,,,,,,,,,6,2.2333,1,,,,,,,,,,,,0,131,5,5,2154,2214,absent_patch/patch0002154.jpg,absent_patch/patch0002214.jpg,,,,,,,,,,,,,,,,,,,,0.098148148,0.035185185,1,0,0,response1disk,20,0.006481481,0.007407407,1,0,0,center_square,0,19,19,67,1,,,,,,,,,,,,,,,,,,,,,,,
029389,001,2022-11-20_17h55.42.999,Info_measure_main_exp,2022.2.2,Win32,59.99520038,,,,,,,,,,,,,,,,,,masks/mask_002.jpg,,,,,,,,,,,,,,,,,,,,,,,,,,,,,,,,,,,,,,,,,,,0,0,0,1,1,,,,,,,,,,,,,,,,,,,,,,,,,,,,,,,,,,,,,,,,,,,,,,
029389,001,2022-11-20_17h55.42.999,Info_measure_main_exp,2022.2.2,Win32,59.99520038,,,,,,,,,,,,,,,,,,masks/mask_005.jpg,,,,,,,,,,,,,,,,,,,,,,,,,,,,,,,,,,,,,,,,,,,0,1,1,4,1,,,,,,,,,,,,,,,,,,,,,,,,,,,,,,,,,,,,,,,,,,,,,,
029389,001,2022-11-20_17h55.42.999,Info_measure_main_exp,2022.2.2,Win32,59.99520038,,,,,,,,,,,,,,,,,,masks/mask_004.jpg,,,,,,,,,,,,,,,,,,,,,,,,,,,,,,,,,,,,,,,,,,,0,2,2,3,1,,,,,,,,,,,,,,,,,,,,,,,,,,,,,,,,,,,,,,,,,,,,,,
029389,001,2022-11-20_17h55.42.999,Info_measure_main_exp,2022.2.2,Win32,59.99520038,,,,,,,,,,,,,,,,,,masks/mask_003.jpg,,,,,,,,,,,,,,,,,,,,,,,,,,,,,,,,,,,,,,,,,,,0,3,3,2,1,,,,,,,,,,,,,,,,,,,,,,,,,,,,,,,,,,,,,,,,,,,,,,
029389,001,2022-11-20_17h55.42.999,Info_measure_main_exp,2022.2.2,Win32,59.99520038,,,,,,,,,,,,,,,,,,masks/mask_001.jpg,,,,,,,,,,,,,,,,,,,,,,,,,,,,,,,,,,,,,,,,,,,0,4,4,0,1,,,,,,,,,,,,,,,,,,,,,,,,,,,,,,,,,,,,,,,,,,,,,,
029389,001,2022-11-20_17h55.42.999,Info_measure_main_exp,2022.2.2,Win32,59.99520038,,,,,,,,,,,,,,,,,,masks/mask_001.jpg,,,,,,,,,,,,,,,,,,,,,,,,,,,,,,,,,,,,,,,,,,,,,,,,0,0,0,0,1,,,,,,,,,,,,,,,,,,,,,,,,,,,,,,,,,,,,,,,,,
029389,001,2022-11-20_17h55.42.999,Info_measure_main_exp,2022.2.2,Win32,59.99520038,,,,,,,,,,,,,,,,,,masks/mask_005.jpg,,,,,,,,,,,,,,,,,,,,,,,,,,,,,,,,,,,,,,,,,,,,,,,,0,1,1,4,1,,,,,,,,,,,,,,,,,,,,,,,,,,,,,,,,,,,,,,,,,
029389,001,2022-11-20_17h55.42.999,Info_measure_main_exp,2022.2.2,Win32,59.99520038,,,,,,,,,,,,,,,,,,masks/mask_002.jpg,,,,,,,,,,,,,,,,,,,,,,,,,,,,,,,,,,,,,,,,,,,,,,,,0,2,2,1,1,,,,,,,,,,,,,,,,,,,,,,,,,,,,,,,,,,,,,,,,,
029389,001,2022-11-20_17h55.42.999,Info_measure_main_exp,2022.2.2,Win32,59.99520038,,,,,,,,,,,,,,,,,,masks/mask_004.jpg,,,,,,,,,,,,,,,,,,,,,,,,,,,,,,,,,,,,,,,,,,,,,,,,0,3,3,3,1,,,,,,,,,,,,,,,,,,,,,,,,,,,,,,,,,,,,,,,,,
029389,001,2022-11-20_17h55.42.999,Info_measure_main_exp,2022.2.2,Win32,59.99520038,,,,,,,,,,,,,,,,,,masks/mask_003.jpg,,,,,,,,,,,,,,,,,,,,,,,,,,,,,,,,,,,,,,,,,,,,,,,,0,4,4,2,1,,,,,,,,,,,,,,,,,,,,,,,,,,,,,,,,,,,,,,,,,
029389,001,2022-11-20_17h55.42.999,Info_measure_main_exp,2022.2.2,Win32,59.99520038,,,,,,,,,,,,,,,,,,,,,,,,,,,,,,4,2.3166,1,,,,,,,,,,,,1,131,5,5,2238,1,absent_patch/patch0002238.jpg,present_patch/cong_131_5_a.jpg,,,,,,,,,,,,,,,,,,,,0.005555556,-0.099074074,1,0,0,response3disk,21,0.005555556,-0.001851852,1,0,0,center_square,0,20,20,104,1,,,,,,,,,,,,,,,,,,,,,,,
029389,001,2022-11-20_17h55.42.999,Info_measure_main_exp,2022.2.2,Win32,59.99520038,,,,,,,,,,,,,,,,,,masks/mask_003.jpg,,,,,,,,,,,,,,,,,,,,,,,,,,,,,,,,,,,,,,,,,,,0,0,0,2,1,,,,,,,,,,,,,,,,,,,,,,,,,,,,,,,,,,,,,,,,,,,,,,
029389,001,2022-11-20_17h55.42.999,Info_measure_main_exp,2022.2.2,Win32,59.99520038,,,,,,,,,,,,,,,,,,masks/mask_001.jpg,,,,,,,,,,,,,,,,,,,,,,,,,,,,,,,,,,,,,,,,,,,0,1,1,0,1,,,,,,,,,,,,,,,,,,,,,,,,,,,,,,,,,,,,,,,,,,,,,,
029389,001,2022-11-20_17h55.42.999,Info_measure_main_exp,2022.2.2,Win32,59.99520038,,,,,,,,,,,,,,,,,,masks/mask_002.jpg,,,,,,,,,,,,,,,,,,,,,,,,,,,,,,,,,,,,,,,,,,,0,2,2,1,1,,,,,,,,,,,,,,,,,,,,,,,,,,,,,,,,,,,,,,,,,,,,,,
029389,001,2022-11-20_17h55.42.999,Info_measure_main_exp,2022.2.2,Win32,59.99520038,,,,,,,,,,,,,,,,,,masks/mask_005.jpg,,,,,,,,,,,,,,,,,,,,,,,,,,,,,,,,,,,,,,,,,,,0,3,3,4,1,,,,,,,,,,,,,,,,,,,,,,,,,,,,,,,,,,,,,,,,,,,,,,
029389,001,2022-11-20_17h55.42.999,Info_measure_main_exp,2022.2.2,Win32,59.99520038,,,,,,,,,,,,,,,,,,masks/mask_004.jpg,,,,,,,,,,,,,,,,,,,,,,,,,,,,,,,,,,,,,,,,,,,0,4,4,3,1,,,,,,,,,,,,,,,,,,,,,,,,,,,,,,,,,,,,,,,,,,,,,,
029389,001,2022-11-20_17h55.42.999,Info_measure_main_exp,2022.2.2,Win32,59.99520038,,,,,,,,,,,,,,,,,,masks/mask_005.jpg,,,,,,,,,,,,,,,,,,,,,,,,,,,,,,,,,,,,,,,,,,,,,,,,0,0,0,4,1,,,,,,,,,,,,,,,,,,,,,,,,,,,,,,,,,,,,,,,,,
029389,001,2022-11-20_17h55.42.999,Info_measure_main_exp,2022.2.2,Win32,59.99520038,,,,,,,,,,,,,,,,,,masks/mask_004.jpg,,,,,,,,,,,,,,,,,,,,,,,,,,,,,,,,,,,,,,,,,,,,,,,,0,1,1,3,1,,,,,,,,,,,,,,,,,,,,,,,,,,,,,,,,,,,,,,,,,
029389,001,2022-11-20_17h55.42.999,Info_measure_main_exp,2022.2.2,Win32,59.99520038,,,,,,,,,,,,,,,,,,masks/mask_003.jpg,,,,,,,,,,,,,,,,,,,,,,,,,,,,,,,,,,,,,,,,,,,,,,,,0,2,2,2,1,,,,,,,,,,,,,,,,,,,,,,,,,,,,,,,,,,,,,,,,,
029389,001,2022-11-20_17h55.42.999,Info_measure_main_exp,2022.2.2,Win32,59.99520038,,,,,,,,,,,,,,,,,,masks/mask_001.jpg,,,,,,,,,,,,,,,,,,,,,,,,,,,,,,,,,,,,,,,,,,,,,,,,0,3,3,0,1,,,,,,,,,,,,,,,,,,,,,,,,,,,,,,,,,,,,,,,,,
029389,001,2022-11-20_17h55.42.999,Info_measure_main_exp,2022.2.2,Win32,59.99520038,,,,,,,,,,,,,,,,,,masks/mask_002.jpg,,,,,,,,,,,,,,,,,,,,,,,,,,,,,,,,,,,,,,,,,,,,,,,,0,4,4,1,1,,,,,,,,,,,,,,,,,,,,,,,,,,,,,,,,,,,,,,,,,
029389,001,2022-11-20_17h55.42.999,Info_measure_main_exp,2022.2.2,Win32,59.99520038,,,,,,,,,,,,,,,,,,,,,,,,,,,,,,0,0.8333,1,,,,,,,,,,,,0,131,5,5,2214,2214,absent_patch/patch0002214.jpg,absent_patch/patch0002214.jpg,,,,,,,,,,,,,,,,,,,,-0.023148148,0.119444444,1,0,0,response7disk,22,0.002777778,-0.001851852,1,0,0,center_square,0,21,21,115,1,,,,,,,,,,,,,,,,,,,,,,,
029389,001,2022-11-20_17h55.42.999,Info_measure_main_exp,2022.2.2,Win32,59.99520038,,,,,,,,,,,,,,,,,,masks/mask_004.jpg,,,,,,,,,,,,,,,,,,,,,,,,,,,,,,,,,,,,,,,,,,,0,0,0,3,1,,,,,,,,,,,,,,,,,,,,,,,,,,,,,,,,,,,,,,,,,,,,,,
029389,001,2022-11-20_17h55.42.999,Info_measure_main_exp,2022.2.2,Win32,59.99520038,,,,,,,,,,,,,,,,,,masks/mask_001.jpg,,,,,,,,,,,,,,,,,,,,,,,,,,,,,,,,,,,,,,,,,,,0,1,1,0,1,,,,,,,,,,,,,,,,,,,,,,,,,,,,,,,,,,,,,,,,,,,,,,
029389,001,2022-11-20_17h55.42.999,Info_measure_main_exp,2022.2.2,Win32,59.99520038,,,,,,,,,,,,,,,,,,masks/mask_005.jpg,,,,,,,,,,,,,,,,,,,,,,,,,,,,,,,,,,,,,,,,,,,0,2,2,4,1,,,,,,,,,,,,,,,,,,,,,,,,,,,,,,,,,,,,,,,,,,,,,,
029389,001,2022-11-20_17h55.42.999,Info_measure_main_exp,2022.2.2,Win32,59.99520038,,,,,,,,,,,,,,,,,,masks/mask_003.jpg,,,,,,,,,,,,,,,,,,,,,,,,,,,,,,,,,,,,,,,,,,,0,3,3,2,1,,,,,,,,,,,,,,,,,,,,,,,,,,,,,,,,,,,,,,,,,,,,,,
029389,001,2022-11-20_17h55.42.999,Info_measure_main_exp,2022.2.2,Win32,59.99520038,,,,,,,,,,,,,,,,,,masks/mask_002.jpg,,,,,,,,,,,,,,,,,,,,,,,,,,,,,,,,,,,,,,,,,,,0,4,4,1,1,,,,,,,,,,,,,,,,,,,,,,,,,,,,,,,,,,,,,,,,,,,,,,
029389,001,2022-11-20_17h55.42.999,Info_measure_main_exp,2022.2.2,Win32,59.99520038,,,,,,,,,,,,,,,,,,masks/mask_004.jpg,,,,,,,,,,,,,,,,,,,,,,,,,,,,,,,,,,,,,,,,,,,,,,,,0,0,0,3,1,,,,,,,,,,,,,,,,,,,,,,,,,,,,,,,,,,,,,,,,,
029389,001,2022-11-20_17h55.42.999,Info_measure_main_exp,2022.2.2,Win32,59.99520038,,,,,,,,,,,,,,,,,,masks/mask_001.jpg,,,,,,,,,,,,,,,,,,,,,,,,,,,,,,,,,,,,,,,,,,,,,,,,0,1,1,0,1,,,,,,,,,,,,,,,,,,,,,,,,,,,,,,,,,,,,,,,,,
029389,001,2022-11-20_17h55.42.999,Info_measure_main_exp,2022.2.2,Win32,59.99520038,,,,,,,,,,,,,,,,,,masks/mask_005.jpg,,,,,,,,,,,,,,,,,,,,,,,,,,,,,,,,,,,,,,,,,,,,,,,,0,2,2,4,1,,,,,,,,,,,,,,,,,,,,,,,,,,,,,,,,,,,,,,,,,
029389,001,2022-11-20_17h55.42.999,Info_measure_main_exp,2022.2.2,Win32,59.99520038,,,,,,,,,,,,,,,,,,masks/mask_002.jpg,,,,,,,,,,,,,,,,,,,,,,,,,,,,,,,,,,,,,,,,,,,,,,,,0,3,3,1,1,,,,,,,,,,,,,,,,,,,,,,,,,,,,,,,,,,,,,,,,,
029389,001,2022-11-20_17h55.42.999,Info_measure_main_exp,2022.2.2,Win32,59.99520038,,,,,,,,,,,,,,,,,,masks/mask_003.jpg,,,,,,,,,,,,,,,,,,,,,,,,,,,,,,,,,,,,,,,,,,,,,,,,0,4,4,2,1,,,,,,,,,,,,,,,,,,,,,,,,,,,,,,,,,,,,,,,,,
029389,001,2022-11-20_17h55.42.999,Info_measure_main_exp,2022.2.2,Win32,59.99520038,,,,,,,,,,,,,,,,,,,,,,,,,,,,,,6,1.85,1,,,,,,,,,,,,0,131,5,5,2190,2166,absent_patch/patch0002190.jpg,absent_patch/patch0002166.jpg,,,,,,,,,,,,,,,,,,,,0.111111111,0.036111111,1,0,0,response1disk,23,0.011111111,-0.006481481,1,0,0,center_square,0,22,22,50,1,,,,,,,,,,,,,,,,,,,,,,,
029389,001,2022-11-20_17h55.42.999,Info_measure_main_exp,2022.2.2,Win32,59.99520038,,,,,,,,,,,,,,,,,,masks/mask_004.jpg,,,,,,,,,,,,,,,,,,,,,,,,,,,,,,,,,,,,,,,,,,,0,0,0,3,1,,,,,,,,,,,,,,,,,,,,,,,,,,,,,,,,,,,,,,,,,,,,,,
029389,001,2022-11-20_17h55.42.999,Info_measure_main_exp,2022.2.2,Win32,59.99520038,,,,,,,,,,,,,,,,,,masks/mask_005.jpg,,,,,,,,,,,,,,,,,,,,,,,,,,,,,,,,,,,,,,,,,,,0,1,1,4,1,,,,,,,,,,,,,,,,,,,,,,,,,,,,,,,,,,,,,,,,,,,,,,
029389,001,2022-11-20_17h55.42.999,Info_measure_main_exp,2022.2.2,Win32,59.99520038,,,,,,,,,,,,,,,,,,masks/mask_001.jpg,,,,,,,,,,,,,,,,,,,,,,,,,,,,,,,,,,,,,,,,,,,0,2,2,0,1,,,,,,,,,,,,,,,,,,,,,,,,,,,,,,,,,,,,,,,,,,,,,,
029389,001,2022-11-20_17h55.42.999,Info_measure_main_exp,2022.2.2,Win32,59.99520038,,,,,,,,,,,,,,,,,,masks/mask_002.jpg,,,,,,,,,,,,,,,,,,,,,,,,,,,,,,,,,,,,,,,,,,,0,3,3,1,1,,,,,,,,,,,,,,,,,,,,,,,,,,,,,,,,,,,,,,,,,,,,,,
029389,001,2022-11-20_17h55.42.999,Info_measure_main_exp,2022.2.2,Win32,59.99520038,,,,,,,,,,,,,,,,,,masks/mask_003.jpg,,,,,,,,,,,,,,,,,,,,,,,,,,,,,,,,,,,,,,,,,,,0,4,4,2,1,,,,,,,,,,,,,,,,,,,,,,,,,,,,,,,,,,,,,,,,,,,,,,
029389,001,2022-11-20_17h55.42.999,Info_measure_main_exp,2022.2.2,Win32,59.99520038,,,,,,,,,,,,,,,,,,masks/mask_005.jpg,,,,,,,,,,,,,,,,,,,,,,,,,,,,,,,,,,,,,,,,,,,,,,,,0,0,0,4,1,,,,,,,,,,,,,,,,,,,,,,,,,,,,,,,,,,,,,,,,,
029389,001,2022-11-20_17h55.42.999,Info_measure_main_exp,2022.2.2,Win32,59.99520038,,,,,,,,,,,,,,,,,,masks/mask_004.jpg,,,,,,,,,,,,,,,,,,,,,,,,,,,,,,,,,,,,,,,,,,,,,,,,0,1,1,3,1,,,,,,,,,,,,,,,,,,,,,,,,,,,,,,,,,,,,,,,,,
029389,001,2022-11-20_17h55.42.999,Info_measure_main_exp,2022.2.2,Win32,59.99520038,,,,,,,,,,,,,,,,,,masks/mask_003.jpg,,,,,,,,,,,,,,,,,,,,,,,,,,,,,,,,,,,,,,,,,,,,,,,,0,2,2,2,1,,,,,,,,,,,,,,,,,,,,,,,,,,,,,,,,,,,,,,,,,
029389,001,2022-11-20_17h55.42.999,Info_measure_main_exp,2022.2.2,Win32,59.99520038,,,,,,,,,,,,,,,,,,masks/mask_002.jpg,,,,,,,,,,,,,,,,,,,,,,,,,,,,,,,,,,,,,,,,,,,,,,,,0,3,3,1,1,,,,,,,,,,,,,,,,,,,,,,,,,,,,,,,,,,,,,,,,,
029389,001,2022-11-20_17h55.42.999,Info_measure_main_exp,2022.2.2,Win32,59.99520038,,,,,,,,,,,,,,,,,,masks/mask_001.jpg,,,,,,,,,,,,,,,,,,,,,,,,,,,,,,,,,,,,,,,,,,,,,,,,0,4,4,0,1,,,,,,,,,,,,,,,,,,,,,,,,,,,,,,,,,,,,,,,,,
029389,001,2022-11-20_17h55.42.999,Info_measure_main_exp,2022.2.2,Win32,59.99520038,,,,,,,,,,,,,,,,,,,,,,,,,,,,,,5,2.7335,1,,,,,,,,,,,,0,131,5,5,2142,2166,absent_patch/patch0002142.jpg,absent_patch/patch0002166.jpg,,,,,,,,,,,,,,,,,,,,0.077777778,-0.042592593,1,0,0,response3disk,24,0.002777778,-0.002777778,1,0,0,center_square,0,23,23,66,1,,,,,,,,,,,,,,,,,,,,,,,
029389,001,2022-11-20_17h55.42.999,Info_measure_main_exp,2022.2.2,Win32,59.99520038,,,,,,,,,,,,,,,,,,masks/mask_001.jpg,,,,,,,,,,,,,,,,,,,,,,,,,,,,,,,,,,,,,,,,,,,0,0,0,0,1,,,,,,,,,,,,,,,,,,,,,,,,,,,,,,,,,,,,,,,,,,,,,,
029389,001,2022-11-20_17h55.42.999,Info_measure_main_exp,2022.2.2,Win32,59.99520038,,,,,,,,,,,,,,,,,,masks/mask_003.jpg,,,,,,,,,,,,,,,,,,,,,,,,,,,,,,,,,,,,,,,,,,,0,1,1,2,1,,,,,,,,,,,,,,,,,,,,,,,,,,,,,,,,,,,,,,,,,,,,,,
029389,001,2022-11-20_17h55.42.999,Info_measure_main_exp,2022.2.2,Win32,59.99520038,,,,,,,,,,,,,,,,,,masks/mask_002.jpg,,,,,,,,,,,,,,,,,,,,,,,,,,,,,,,,,,,,,,,,,,,0,2,2,1,1,,,,,,,,,,,,,,,,,,,,,,,,,,,,,,,,,,,,,,,,,,,,,,
029389,001,2022-11-20_17h55.42.999,Info_measure_main_exp,2022.2.2,Win32,59.99520038,,,,,,,,,,,,,,,,,,masks/mask_004.jpg,,,,,,,,,,,,,,,,,,,,,,,,,,,,,,,,,,,,,,,,,,,0,3,3,3,1,,,,,,,,,,,,,,,,,,,,,,,,,,,,,,,,,,,,,,,,,,,,,,
029389,001,2022-11-20_17h55.42.999,Info_measure_main_exp,2022.2.2,Win32,59.99520038,,,,,,,,,,,,,,,,,,masks/mask_005.jpg,,,,,,,,,,,,,,,,,,,,,,,,,,,,,,,,,,,,,,,,,,,0,4,4,4,1,,,,,,,,,,,,,,,,,,,,,,,,,,,,,,,,,,,,,,,,,,,,,,
029389,001,2022-11-20_17h55.42.999,Info_measure_main_exp,2022.2.2,Win32,59.99520038,,,,,,,,,,,,,,,,,,masks/mask_003.jpg,,,,,,,,,,,,,,,,,,,,,,,,,,,,,,,,,,,,,,,,,,,,,,,,0,0,0,2,1,,,,,,,,,,,,,,,,,,,,,,,,,,,,,,,,,,,,,,,,,
029389,001,2022-11-20_17h55.42.999,Info_measure_main_exp,2022.2.2,Win32,59.99520038,,,,,,,,,,,,,,,,,,masks/mask_004.jpg,,,,,,,,,,,,,,,,,,,,,,,,,,,,,,,,,,,,,,,,,,,,,,,,0,1,1,3,1,,,,,,,,,,,,,,,,,,,,,,,,,,,,,,,,,,,,,,,,,
029389,001,2022-11-20_17h55.42.999,Info_measure_main_exp,2022.2.2,Win32,59.99520038,,,,,,,,,,,,,,,,,,masks/mask_002.jpg,,,,,,,,,,,,,,,,,,,,,,,,,,,,,,,,,,,,,,,,,,,,,,,,0,2,2,1,1,,,,,,,,,,,,,,,,,,,,,,,,,,,,,,,,,,,,,,,,,
029389,001,2022-11-20_17h55.42.999,Info_measure_main_exp,2022.2.2,Win32,59.99520038,,,,,,,,,,,,,,,,,,masks/mask_005.jpg,,,,,,,,,,,,,,,,,,,,,,,,,,,,,,,,,,,,,,,,,,,,,,,,0,3,3,4,1,,,,,,,,,,,,,,,,,,,,,,,,,,,,,,,,,,,,,,,,,
029389,001,2022-11-20_17h55.42.999,Info_measure_main_exp,2022.2.2,Win32,59.99520038,,,,,,,,,,,,,,,,,,masks/mask_001.jpg,,,,,,,,,,,,,,,,,,,,,,,,,,,,,,,,,,,,,,,,,,,,,,,,0,4,4,0,1,,,,,,,,,,,,,,,,,,,,,,,,,,,,,,,,,,,,,,,,,
029389,001,2022-11-20_17h55.42.999,Info_measure_main_exp,2022.2.2,Win32,59.99520038,,,,,,,,,,,,,,,,,,,,,,,,,,,,,,4,2.4835,1,,,,,,,,,,,,0,131,5,5,1950,2142,absent_patch/patch0001950.jpg,absent_patch/patch0002142.jpg,,,,,,,,,,,,,,,,,,,,0.059259259,-0.097222222,1,0,0,response3disk,25,0.008333333,0.007407407,1,0,0,center_square,0,24,24,83,1,,,,,,,,,,,,,,,,,,,,,,,
029389,001,2022-11-20_17h55.42.999,Info_measure_main_exp,2022.2.2,Win32,59.99520038,,,,,,,,,,,,,,,,,,masks/mask_003.jpg,,,,,,,,,,,,,,,,,,,,,,,,,,,,,,,,,,,,,,,,,,,0,0,0,2,1,,,,,,,,,,,,,,,,,,,,,,,,,,,,,,,,,,,,,,,,,,,,,,
029389,001,2022-11-20_17h55.42.999,Info_measure_main_exp,2022.2.2,Win32,59.99520038,,,,,,,,,,,,,,,,,,masks/mask_002.jpg,,,,,,,,,,,,,,,,,,,,,,,,,,,,,,,,,,,,,,,,,,,0,1,1,1,1,,,,,,,,,,,,,,,,,,,,,,,,,,,,,,,,,,,,,,,,,,,,,,
029389,001,2022-11-20_17h55.42.999,Info_measure_main_exp,2022.2.2,Win32,59.99520038,,,,,,,,,,,,,,,,,,masks/mask_004.jpg,,,,,,,,,,,,,,,,,,,,,,,,,,,,,,,,,,,,,,,,,,,0,2,2,3,1,,,,,,,,,,,,,,,,,,,,,,,,,,,,,,,,,,,,,,,,,,,,,,
029389,001,2022-11-20_17h55.42.999,Info_measure_main_exp,2022.2.2,Win32,59.99520038,,,,,,,,,,,,,,,,,,masks/mask_005.jpg,,,,,,,,,,,,,,,,,,,,,,,,,,,,,,,,,,,,,,,,,,,0,3,3,4,1,,,,,,,,,,,,,,,,,,,,,,,,,,,,,,,,,,,,,,,,,,,,,,
029389,001,2022-11-20_17h55.42.999,Info_measure_main_exp,2022.2.2,Win32,59.99520038,,,,,,,,,,,,,,,,,,masks/mask_001.jpg,,,,,,,,,,,,,,,,,,,,,,,,,,,,,,,,,,,,,,,,,,,0,4,4,0,1,,,,,,,,,,,,,,,,,,,,,,,,,,,,,,,,,,,,,,,,,,,,,,
029389,001,2022-11-20_17h55.42.999,Info_measure_main_exp,2022.2.2,Win32,59.99520038,,,,,,,,,,,,,,,,,,masks/mask_004.jpg,,,,,,,,,,,,,,,,,,,,,,,,,,,,,,,,,,,,,,,,,,,,,,,,0,0,0,3,1,,,,,,,,,,,,,,,,,,,,,,,,,,,,,,,,,,,,,,,,,
029389,001,2022-11-20_17h55.42.999,Info_measure_main_exp,2022.2.2,Win32,59.99520038,,,,,,,,,,,,,,,,,,masks/mask_002.jpg,,,,,,,,,,,,,,,,,,,,,,,,,,,,,,,,,,,,,,,,,,,,,,,,0,1,1,1,1,,,,,,,,,,,,,,,,,,,,,,,,,,,,,,,,,,,,,,,,,
029389,001,2022-11-20_17h55.42.999,Info_measure_main_exp,2022.2.2,Win32,59.99520038,,,,,,,,,,,,,,,,,,masks/mask_003.jpg,,,,,,,,,,,,,,,,,,,,,,,,,,,,,,,,,,,,,,,,,,,,,,,,0,2,2,2,1,,,,,,,,,,,,,,,,,,,,,,,,,,,,,,,,,,,,,,,,,
029389,001,2022-11-20_17h55.42.999,Info_measure_main_exp,2022.2.2,Win32,59.99520038,,,,,,,,,,,,,,,,,,masks/mask_005.jpg,,,,,,,,,,,,,,,,,,,,,,,,,,,,,,,,,,,,,,,,,,,,,,,,0,3,3,4,1,,,,,,,,,,,,,,,,,,,,,,,,,,,,,,,,,,,,,,,,,
029389,001,2022-11-20_17h55.42.999,Info_measure_main_exp,2022.2.2,Win32,59.99520038,,,,,,,,,,,,,,,,,,masks/mask_001.jpg,,,,,,,,,,,,,,,,,,,,,,,,,,,,,,,,,,,,,,,,,,,,,,,,0,4,4,0,1,,,,,,,,,,,,,,,,,,,,,,,,,,,,,,,,,,,,,,,,,
029389,001,2022-11-20_17h55.42.999,Info_measure_main_exp,2022.2.2,Win32,59.99520038,,,,,,,,,,,,,,,,,,,,,,,,,,,,,,6,2.4665,1,,,,,,,,,,,,0,131,5,5,2214,2166,absent_patch/patch0002214.jpg,absent_patch/patch0002166.jpg,,,,,,,,,,,,,,,,,,,,0.119444444,0.02962963,1,0,0,response1disk,26,0.000925926,0.007407407,1,0,0,center_square,0,25,25,109,1,,,,,,,,,,,,,,,,,,,,,,,
029389,001,2022-11-20_17h55.42.999,Info_measure_main_exp,2022.2.2,Win32,59.99520038,,,,,,,,,,,,,,,,,,masks/mask_005.jpg,,,,,,,,,,,,,,,,,,,,,,,,,,,,,,,,,,,,,,,,,,,0,0,0,4,1,,,,,,,,,,,,,,,,,,,,,,,,,,,,,,,,,,,,,,,,,,,,,,
029389,001,2022-11-20_17h55.42.999,Info_measure_main_exp,2022.2.2,Win32,59.99520038,,,,,,,,,,,,,,,,,,masks/mask_003.jpg,,,,,,,,,,,,,,,,,,,,,,,,,,,,,,,,,,,,,,,,,,,0,1,1,2,1,,,,,,,,,,,,,,,,,,,,,,,,,,,,,,,,,,,,,,,,,,,,,,
029389,001,2022-11-20_17h55.42.999,Info_measure_main_exp,2022.2.2,Win32,59.99520038,,,,,,,,,,,,,,,,,,masks/mask_002.jpg,,,,,,,,,,,,,,,,,,,,,,,,,,,,,,,,,,,,,,,,,,,0,2,2,1,1,,,,,,,,,,,,,,,,,,,,,,,,,,,,,,,,,,,,,,,,,,,,,,
029389,001,2022-11-20_17h55.42.999,Info_measure_main_exp,2022.2.2,Win32,59.99520038,,,,,,,,,,,,,,,,,,masks/mask_004.jpg,,,,,,,,,,,,,,,,,,,,,,,,,,,,,,,,,,,,,,,,,,,0,3,3,3,1,,,,,,,,,,,,,,,,,,,,,,,,,,,,,,,,,,,,,,,,,,,,,,
029389,001,2022-11-20_17h55.42.999,Info_measure_main_exp,2022.2.2,Win32,59.99520038,,,,,,,,,,,,,,,,,,masks/mask_001.jpg,,,,,,,,,,,,,,,,,,,,,,,,,,,,,,,,,,,,,,,,,,,0,4,4,0,1,,,,,,,,,,,,,,,,,,,,,,,,,,,,,,,,,,,,,,,,,,,,,,
029389,001,2022-11-20_17h55.42.999,Info_measure_main_exp,2022.2.2,Win32,59.99520038,,,,,,,,,,,,,,,,,,masks/mask_001.jpg,,,,,,,,,,,,,,,,,,,,,,,,,,,,,,,,,,,,,,,,,,,,,,,,0,0,0,0,1,,,,,,,,,,,,,,,,,,,,,,,,,,,,,,,,,,,,,,,,,
029389,001,2022-11-20_17h55.42.999,Info_measure_main_exp,2022.2.2,Win32,59.99520038,,,,,,,,,,,,,,,,,,masks/mask_004.jpg,,,,,,,,,,,,,,,,,,,,,,,,,,,,,,,,,,,,,,,,,,,,,,,,0,1,1,3,1,,,,,,,,,,,,,,,,,,,,,,,,,,,,,,,,,,,,,,,,,
029389,001,2022-11-20_17h55.42.999,Info_measure_main_exp,2022.2.2,Win32,59.99520038,,,,,,,,,,,,,,,,,,masks/mask_003.jpg,,,,,,,,,,,,,,,,,,,,,,,,,,,,,,,,,,,,,,,,,,,,,,,,0,2,2,2,1,,,,,,,,,,,,,,,,,,,,,,,,,,,,,,,,,,,,,,,,,
029389,001,2022-11-20_17h55.42.999,Info_measure_main_exp,2022.2.2,Win32,59.99520038,,,,,,,,,,,,,,,,,,masks/mask_005.jpg,,,,,,,,,,,,,,,,,,,,,,,,,,,,,,,,,,,,,,,,,,,,,,,,0,3,3,4,1,,,,,,,,,,,,,,,,,,,,,,,,,,,,,,,,,,,,,,,,,
029389,001,2022-11-20_17h55.42.999,Info_measure_main_exp,2022.2.2,Win32,59.99520038,,,,,,,,,,,,,,,,,,masks/mask_002.jpg,,,,,,,,,,,,,,,,,,,,,,,,,,,,,,,,,,,,,,,,,,,,,,,,0,4,4,1,1,,,,,,,,,,,,,,,,,,,,,,,,,,,,,,,,,,,,,,,,,
029389,001,2022-11-20_17h55.42.999,Info_measure_main_exp,2022.2.2,Win32,59.99520038,,,,,,,,,,,,,,,,,,,,,,,,,,,,,,6,1.5002,1,,,,,,,,,,,,0,131,5,5,2274,2250,absent_patch/patch0002274.jpg,absent_patch/patch0002250.jpg,,,,,,,,,,,,,,,,,,,,0.082407407,0.05462963,1,0,0,response1disk,27,0.001851852,0.012962963,1,0,0,center_square,0,26,26,28,1,,,,,,,,,,,,,,,,,,,,,,,
029389,001,2022-11-20_17h55.42.999,Info_measure_main_exp,2022.2.2,Win32,59.99520038,,,,,,,,,,,,,,,,,,masks/mask_005.jpg,,,,,,,,,,,,,,,,,,,,,,,,,,,,,,,,,,,,,,,,,,,0,0,0,4,1,,,,,,,,,,,,,,,,,,,,,,,,,,,,,,,,,,,,,,,,,,,,,,
029389,001,2022-11-20_17h55.42.999,Info_measure_main_exp,2022.2.2,Win32,59.99520038,,,,,,,,,,,,,,,,,,masks/mask_002.jpg,,,,,,,,,,,,,,,,,,,,,,,,,,,,,,,,,,,,,,,,,,,0,1,1,1,1,,,,,,,,,,,,,,,,,,,,,,,,,,,,,,,,,,,,,,,,,,,,,,
029389,001,2022-11-20_17h55.42.999,Info_measure_main_exp,2022.2.2,Win32,59.99520038,,,,,,,,,,,,,,,,,,masks/mask_001.jpg,,,,,,,,,,,,,,,,,,,,,,,,,,,,,,,,,,,,,,,,,,,0,2,2,0,1,,,,,,,,,,,,,,,,,,,,,,,,,,,,,,,,,,,,,,,,,,,,,,
029389,001,2022-11-20_17h55.42.999,Info_measure_main_exp,2022.2.2,Win32,59.99520038,,,,,,,,,,,,,,,,,,masks/mask_003.jpg,,,,,,,,,,,,,,,,,,,,,,,,,,,,,,,,,,,,,,,,,,,0,3,3,2,1,,,,,,,,,,,,,,,,,,,,,,,,,,,,,,,,,,,,,,,,,,,,,,
029389,001,2022-11-20_17h55.42.999,Info_measure_main_exp,2022.2.2,Win32,59.99520038,,,,,,,,,,,,,,,,,,masks/mask_004.jpg,,,,,,,,,,,,,,,,,,,,,,,,,,,,,,,,,,,,,,,,,,,0,4,4,3,1,,,,,,,,,,,,,,,,,,,,,,,,,,,,,,,,,,,,,,,,,,,,,,
029389,001,2022-11-20_17h55.42.999,Info_measure_main_exp,2022.2.2,Win32,59.99520038,,,,,,,,,,,,,,,,,,masks/mask_003.jpg,,,,,,,,,,,,,,,,,,,,,,,,,,,,,,,,,,,,,,,,,,,,,,,,0,0,0,2,1,,,,,,,,,,,,,,,,,,,,,,,,,,,,,,,,,,,,,,,,,
029389,001,2022-11-20_17h55.42.999,Info_measure_main_exp,2022.2.2,Win32,59.99520038,,,,,,,,,,,,,,,,,,masks/mask_004.jpg,,,,,,,,,,,,,,,,,,,,,,,,,,,,,,,,,,,,,,,,,,,,,,,,0,1,1,3,1,,,,,,,,,,,,,,,,,,,,,,,,,,,,,,,,,,,,,,,,,
029389,001,2022-11-20_17h55.42.999,Info_measure_main_exp,2022.2.2,Win32,59.99520038,,,,,,,,,,,,,,,,,,masks/mask_001.jpg,,,,,,,,,,,,,,,,,,,,,,,,,,,,,,,,,,,,,,,,,,,,,,,,0,2,2,0,1,,,,,,,,,,,,,,,,,,,,,,,,,,,,,,,,,,,,,,,,,
029389,001,2022-11-20_17h55.42.999,Info_measure_main_exp,2022.2.2,Win32,59.99520038,,,,,,,,,,,,,,,,,,masks/mask_005.jpg,,,,,,,,,,,,,,,,,,,,,,,,,,,,,,,,,,,,,,,,,,,,,,,,0,3,3,4,1,,,,,,,,,,,,,,,,,,,,,,,,,,,,,,,,,,,,,,,,,
029389,001,2022-11-20_17h55.42.999,Info_measure_main_exp,2022.2.2,Win32,59.99520038,,,,,,,,,,,,,,,,,,masks/mask_002.jpg,,,,,,,,,,,,,,,,,,,,,,,,,,,,,,,,,,,,,,,,,,,,,,,,0,4,4,1,1,,,,,,,,,,,,,,,,,,,,,,,,,,,,,,,,,,,,,,,,,
029389,001,2022-11-20_17h55.42.999,Info_measure_main_exp,2022.2.2,Win32,59.99520038,,,,,,,,,,,,,,,,,,,,,,,,,,,,,,1,1.9332,1,,,,,,,,,,,,0,131,5,5,1974,1950,absent_patch/patch0001974.jpg,absent_patch/patch0001950.jpg,,,,,,,,,,,,,,,,,,,,-0.089814815,0.047222222,1,0,0,response7disk,28,0.000925926,0.00462963,1,0,0,center_square,0,27,27,17,1,,,,,,,,,,,,,,,,,,,,,,,
029389,001,2022-11-20_17h55.42.999,Info_measure_main_exp,2022.2.2,Win32,59.99520038,,,,,,,,,,,,,,,,,,masks/mask_004.jpg,,,,,,,,,,,,,,,,,,,,,,,,,,,,,,,,,,,,,,,,,,,0,0,0,3,1,,,,,,,,,,,,,,,,,,,,,,,,,,,,,,,,,,,,,,,,,,,,,,
029389,001,2022-11-20_17h55.42.999,Info_measure_main_exp,2022.2.2,Win32,59.99520038,,,,,,,,,,,,,,,,,,masks/mask_002.jpg,,,,,,,,,,,,,,,,,,,,,,,,,,,,,,,,,,,,,,,,,,,0,1,1,1,1,,,,,,,,,,,,,,,,,,,,,,,,,,,,,,,,,,,,,,,,,,,,,,
029389,001,2022-11-20_17h55.42.999,Info_measure_main_exp,2022.2.2,Win32,59.99520038,,,,,,,,,,,,,,,,,,masks/mask_003.jpg,,,,,,,,,,,,,,,,,,,,,,,,,,,,,,,,,,,,,,,,,,,0,2,2,2,1,,,,,,,,,,,,,,,,,,,,,,,,,,,,,,,,,,,,,,,,,,,,,,
029389,001,2022-11-20_17h55.42.999,Info_measure_main_exp,2022.2.2,Win32,59.99520038,,,,,,,,,,,,,,,,,,masks/mask_001.jpg,,,,,,,,,,,,,,,,,,,,,,,,,,,,,,,,,,,,,,,,,,,0,3,3,0,1,,,,,,,,,,,,,,,,,,,,,,,,,,,,,,,,,,,,,,,,,,,,,,
029389,001,2022-11-20_17h55.42.999,Info_measure_main_exp,2022.2.2,Win32,59.99520038,,,,,,,,,,,,,,,,,,masks/mask_005.jpg,,,,,,,,,,,,,,,,,,,,,,,,,,,,,,,,,,,,,,,,,,,0,4,4,4,1,,,,,,,,,,,,,,,,,,,,,,,,,,,,,,,,,,,,,,,,,,,,,,
029389,001,2022-11-20_17h55.42.999,Info_measure_main_exp,2022.2.2,Win32,59.99520038,,,,,,,,,,,,,,,,,,masks/mask_003.jpg,,,,,,,,,,,,,,,,,,,,,,,,,,,,,,,,,,,,,,,,,,,,,,,,0,0,0,2,1,,,,,,,,,,,,,,,,,,,,,,,,,,,,,,,,,,,,,,,,,
029389,001,2022-11-20_17h55.42.999,Info_measure_main_exp,2022.2.2,Win32,59.99520038,,,,,,,,,,,,,,,,,,masks/mask_005.jpg,,,,,,,,,,,,,,,,,,,,,,,,,,,,,,,,,,,,,,,,,,,,,,,,0,1,1,4,1,,,,,,,,,,,,,,,,,,,,,,,,,,,,,,,,,,,,,,,,,
029389,001,2022-11-20_17h55.42.999,Info_measure_main_exp,2022.2.2,Win32,59.99520038,,,,,,,,,,,,,,,,,,masks/mask_002.jpg,,,,,,,,,,,,,,,,,,,,,,,,,,,,,,,,,,,,,,,,,,,,,,,,0,2,2,1,1,,,,,,,,,,,,,,,,,,,,,,,,,,,,,,,,,,,,,,,,,
029389,001,2022-11-20_17h55.42.999,Info_measure_main_exp,2022.2.2,Win32,59.99520038,,,,,,,,,,,,,,,,,,masks/mask_004.jpg,,,,,,,,,,,,,,,,,,,,,,,,,,,,,,,,,,,,,,,,,,,,,,,,0,3,3,3,1,,,,,,,,,,,,,,,,,,,,,,,,,,,,,,,,,,,,,,,,,
029389,001,2022-11-20_17h55.42.999,Info_measure_main_exp,2022.2.2,Win32,59.99520038,,,,,,,,,,,,,,,,,,masks/mask_001.jpg,,,,,,,,,,,,,,,,,,,,,,,,,,,,,,,,,,,,,,,,,,,,,,,,0,4,4,0,1,,,,,,,,,,,,,,,,,,,,,,,,,,,,,,,,,,,,,,,,,
029389,001,2022-11-20_17h55.42.999,Info_measure_main_exp,2022.2.2,Win32,59.99520038,,,,,,,,,,,,,,,,,,,,,,,,,,,,,,5,1.7499,1,,,,,,,,,,,,0,131,5,5,1974,2298,absent_patch/patch0001974.jpg,absent_patch/patch0002298.jpg,,,,,,,,,,,,,,,,,,,,0.097222222,-0.062962963,1,0,0,response3disk,29,-0.002777778,0.006481481,1,0,0,center_square,0,28,28,6,1,,,,,,,,,,,,,,,,,,,,,,,
029389,001,2022-11-20_17h55.42.999,Info_measure_main_exp,2022.2.2,Win32,59.99520038,,,,,,,,,,,,,,,,,,masks/mask_005.jpg,,,,,,,,,,,,,,,,,,,,,,,,,,,,,,,,,,,,,,,,,,,0,0,0,4,1,,,,,,,,,,,,,,,,,,,,,,,,,,,,,,,,,,,,,,,,,,,,,,
029389,001,2022-11-20_17h55.42.999,Info_measure_main_exp,2022.2.2,Win32,59.99520038,,,,,,,,,,,,,,,,,,masks/mask_001.jpg,,,,,,,,,,,,,,,,,,,,,,,,,,,,,,,,,,,,,,,,,,,0,1,1,0,1,,,,,,,,,,,,,,,,,,,,,,,,,,,,,,,,,,,,,,,,,,,,,,
029389,001,2022-11-20_17h55.42.999,Info_measure_main_exp,2022.2.2,Win32,59.99520038,,,,,,,,,,,,,,,,,,masks/mask_004.jpg,,,,,,,,,,,,,,,,,,,,,,,,,,,,,,,,,,,,,,,,,,,0,2,2,3,1,,,,,,,,,,,,,,,,,,,,,,,,,,,,,,,,,,,,,,,,,,,,,,
029389,001,2022-11-20_17h55.42.999,Info_measure_main_exp,2022.2.2,Win32,59.99520038,,,,,,,,,,,,,,,,,,masks/mask_002.jpg,,,,,,,,,,,,,,,,,,,,,,,,,,,,,,,,,,,,,,,,,,,0,3,3,1,1,,,,,,,,,,,,,,,,,,,,,,,,,,,,,,,,,,,,,,,,,,,,,,
029389,001,2022-11-20_17h55.42.999,Info_measure_main_exp,2022.2.2,Win32,59.99520038,,,,,,,,,,,,,,,,,,masks/mask_003.jpg,,,,,,,,,,,,,,,,,,,,,,,,,,,,,,,,,,,,,,,,,,,0,4,4,2,1,,,,,,,,,,,,,,,,,,,,,,,,,,,,,,,,,,,,,,,,,,,,,,
029389,001,2022-11-20_17h55.42.999,Info_measure_main_exp,2022.2.2,Win32,59.99520038,,,,,,,,,,,,,,,,,,masks/mask_004.jpg,,,,,,,,,,,,,,,,,,,,,,,,,,,,,,,,,,,,,,,,,,,,,,,,0,0,0,3,1,,,,,,,,,,,,,,,,,,,,,,,,,,,,,,,,,,,,,,,,,
029389,001,2022-11-20_17h55.42.999,Info_measure_main_exp,2022.2.2,Win32,59.99520038,,,,,,,,,,,,,,,,,,masks/mask_002.jpg,,,,,,,,,,,,,,,,,,,,,,,,,,,,,,,,,,,,,,,,,,,,,,,,0,1,1,1,1,,,,,,,,,,,,,,,,,,,,,,,,,,,,,,,,,,,,,,,,,
029389,001,2022-11-20_17h55.42.999,Info_measure_main_exp,2022.2.2,Win32,59.99520038,,,,,,,,,,,,,,,,,,masks/mask_003.jpg,,,,,,,,,,,,,,,,,,,,,,,,,,,,,,,,,,,,,,,,,,,,,,,,0,2,2,2,1,,,,,,,,,,,,,,,,,,,,,,,,,,,,,,,,,,,,,,,,,
029389,001,2022-11-20_17h55.42.999,Info_measure_main_exp,2022.2.2,Win32,59.99520038,,,,,,,,,,,,,,,,,,masks/mask_001.jpg,,,,,,,,,,,,,,,,,,,,,,,,,,,,,,,,,,,,,,,,,,,,,,,,0,3,3,0,1,,,,,,,,,,,,,,,,,,,,,,,,,,,,,,,,,,,,,,,,,
029389,001,2022-11-20_17h55.42.999,Info_measure_main_exp,2022.2.2,Win32,59.99520038,,,,,,,,,,,,,,,,,,masks/mask_005.jpg,,,,,,,,,,,,,,,,,,,,,,,,,,,,,,,,,,,,,,,,,,,,,,,,0,4,4,4,1,,,,,,,,,,,,,,,,,,,,,,,,,,,,,,,,,,,,,,,,,
029389,001,2022-11-20_17h55.42.999,Info_measure_main_exp,2022.2.2,Win32,59.99520038,,,,,,,,,,,,,,,,,,,,,,,,,,,,,,6,1.0333,1,,,,,,,,,,,,0,131,5,5,2082,2250,absent_patch/patch0002082.jpg,absent_patch/patch0002250.jpg,,,,,,,,,,,,,,,,,,,,0.087037037,0.049074074,1,0,0,response1disk,30,-0.001851852,0.001851852,1,0,0,center_square,0,29,29,3,1,,,,,,,,,,,,,,,,,,,,,,,
029389,001,2022-11-20_17h55.42.999,Info_measure_main_exp,2022.2.2,Win32,59.99520038,,,,,,,,,,,,,,,,,,masks/mask_002.jpg,,,,,,,,,,,,,,,,,,,,,,,,,,,,,,,,,,,,,,,,,,,0,0,0,1,1,,,,,,,,,,,,,,,,,,,,,,,,,,,,,,,,,,,,,,,,,,,,,,
029389,001,2022-11-20_17h55.42.999,Info_measure_main_exp,2022.2.2,Win32,59.99520038,,,,,,,,,,,,,,,,,,masks/mask_001.jpg,,,,,,,,,,,,,,,,,,,,,,,,,,,,,,,,,,,,,,,,,,,0,1,1,0,1,,,,,,,,,,,,,,,,,,,,,,,,,,,,,,,,,,,,,,,,,,,,,,
029389,001,2022-11-20_17h55.42.999,Info_measure_main_exp,2022.2.2,Win32,59.99520038,,,,,,,,,,,,,,,,,,masks/mask_005.jpg,,,,,,,,,,,,,,,,,,,,,,,,,,,,,,,,,,,,,,,,,,,0,2,2,4,1,,,,,,,,,,,,,,,,,,,,,,,,,,,,,,,,,,,,,,,,,,,,,,
029389,001,2022-11-20_17h55.42.999,Info_measure_main_exp,2022.2.2,Win32,59.99520038,,,,,,,,,,,,,,,,,,masks/mask_003.jpg,,,,,,,,,,,,,,,,,,,,,,,,,,,,,,,,,,,,,,,,,,,0,3,3,2,1,,,,,,,,,,,,,,,,,,,,,,,,,,,,,,,,,,,,,,,,,,,,,,
029389,001,2022-11-20_17h55.42.999,Info_measure_main_exp,2022.2.2,Win32,59.99520038,,,,,,,,,,,,,,,,,,masks/mask_004.jpg,,,,,,,,,,,,,,,,,,,,,,,,,,,,,,,,,,,,,,,,,,,0,4,4,3,1,,,,,,,,,,,,,,,,,,,,,,,,,,,,,,,,,,,,,,,,,,,,,,
029389,001,2022-11-20_17h55.42.999,Info_measure_main_exp,2022.2.2,Win32,59.99520038,,,,,,,,,,,,,,,,,,masks/mask_001.jpg,,,,,,,,,,,,,,,,,,,,,,,,,,,,,,,,,,,,,,,,,,,,,,,,0,0,0,0,1,,,,,,,,,,,,,,,,,,,,,,,,,,,,,,,,,,,,,,,,,
029389,001,2022-11-20_17h55.42.999,Info_measure_main_exp,2022.2.2,Win32,59.99520038,,,,,,,,,,,,,,,,,,masks/mask_004.jpg,,,,,,,,,,,,,,,,,,,,,,,,,,,,,,,,,,,,,,,,,,,,,,,,0,1,1,3,1,,,,,,,,,,,,,,,,,,,,,,,,,,,,,,,,,,,,,,,,,
029389,001,2022-11-20_17h55.42.999,Info_measure_main_exp,2022.2.2,Win32,59.99520038,,,,,,,,,,,,,,,,,,masks/mask_003.jpg,,,,,,,,,,,,,,,,,,,,,,,,,,,,,,,,,,,,,,,,,,,,,,,,0,2,2,2,1,,,,,,,,,,,,,,,,,,,,,,,,,,,,,,,,,,,,,,,,,
029389,001,2022-11-20_17h55.42.999,Info_measure_main_exp,2022.2.2,Win32,59.99520038,,,,,,,,,,,,,,,,,,masks/mask_005.jpg,,,,,,,,,,,,,,,,,,,,,,,,,,,,,,,,,,,,,,,,,,,,,,,,0,3,3,4,1,,,,,,,,,,,,,,,,,,,,,,,,,,,,,,,,,,,,,,,,,
029389,001,2022-11-20_17h55.42.999,Info_measure_main_exp,2022.2.2,Win32,59.99520038,,,,,,,,,,,,,,,,,,masks/mask_002.jpg,,,,,,,,,,,,,,,,,,,,,,,,,,,,,,,,,,,,,,,,,,,,,,,,0,4,4,1,1,,,,,,,,,,,,,,,,,,,,,,,,,,,,,,,,,,,,,,,,,
029389,001,2022-11-20_17h55.42.999,Info_measure_main_exp,2022.2.2,Win32,59.99520038,,,,,,,,,,,,,,,,,,,,,,,,,,,,,,7,1.7834,1,,,,,,,,,,,,0,131,5,5,2250,2238,absent_patch/patch0002250.jpg,absent_patch/patch0002238.jpg,,,,,,,,,,,,,,,,,,,,0.044444444,0.078703704,1,0,0,response1disk,31,0.002777778,-0.002777778,1,0,0,center_square,0,30,30,110,1,,,,,,,,,,,,,,,,,,,,,,,
029389,001,2022-11-20_17h55.42.999,Info_measure_main_exp,2022.2.2,Win32,59.99520038,,,,,,,,,,,,,,,,,,masks/mask_005.jpg,,,,,,,,,,,,,,,,,,,,,,,,,,,,,,,,,,,,,,,,,,,0,0,0,4,1,,,,,,,,,,,,,,,,,,,,,,,,,,,,,,,,,,,,,,,,,,,,,,
029389,001,2022-11-20_17h55.42.999,Info_measure_main_exp,2022.2.2,Win32,59.99520038,,,,,,,,,,,,,,,,,,masks/mask_003.jpg,,,,,,,,,,,,,,,,,,,,,,,,,,,,,,,,,,,,,,,,,,,0,1,1,2,1,,,,,,,,,,,,,,,,,,,,,,,,,,,,,,,,,,,,,,,,,,,,,,
029389,001,2022-11-20_17h55.42.999,Info_measure_main_exp,2022.2.2,Win32,59.99520038,,,,,,,,,,,,,,,,,,masks/mask_004.jpg,,,,,,,,,,,,,,,,,,,,,,,,,,,,,,,,,,,,,,,,,,,0,2,2,3,1,,,,,,,,,,,,,,,,,,,,,,,,,,,,,,,,,,,,,,,,,,,,,,
029389,001,2022-11-20_17h55.42.999,Info_measure_main_exp,2022.2.2,Win32,59.99520038,,,,,,,,,,,,,,,,,,masks/mask_002.jpg,,,,,,,,,,,,,,,,,,,,,,,,,,,,,,,,,,,,,,,,,,,0,3,3,1,1,,,,,,,,,,,,,,,,,,,,,,,,,,,,,,,,,,,,,,,,,,,,,,
029389,001,2022-11-20_17h55.42.999,Info_measure_main_exp,2022.2.2,Win32,59.99520038,,,,,,,,,,,,,,,,,,masks/mask_001.jpg,,,,,,,,,,,,,,,,,,,,,,,,,,,,,,,,,,,,,,,,,,,0,4,4,0,1,,,,,,,,,,,,,,,,,,,,,,,,,,,,,,,,,,,,,,,,,,,,,,
029389,001,2022-11-20_17h55.42.999,Info_measure_main_exp,2022.2.2,Win32,59.99520038,,,,,,,,,,,,,,,,,,masks/mask_005.jpg,,,,,,,,,,,,,,,,,,,,,,,,,,,,,,,,,,,,,,,,,,,,,,,,0,0,0,4,1,,,,,,,,,,,,,,,,,,,,,,,,,,,,,,,,,,,,,,,,,
029389,001,2022-11-20_17h55.42.999,Info_measure_main_exp,2022.2.2,Win32,59.99520038,,,,,,,,,,,,,,,,,,masks/mask_003.jpg,,,,,,,,,,,,,,,,,,,,,,,,,,,,,,,,,,,,,,,,,,,,,,,,0,1,1,2,1,,,,,,,,,,,,,,,,,,,,,,,,,,,,,,,,,,,,,,,,,
029389,001,2022-11-20_17h55.42.999,Info_measure_main_exp,2022.2.2,Win32,59.99520038,,,,,,,,,,,,,,,,,,masks/mask_004.jpg,,,,,,,,,,,,,,,,,,,,,,,,,,,,,,,,,,,,,,,,,,,,,,,,0,2,2,3,1,,,,,,,,,,,,,,,,,,,,,,,,,,,,,,,,,,,,,,,,,
029389,001,2022-11-20_17h55.42.999,Info_measure_main_exp,2022.2.2,Win32,59.99520038,,,,,,,,,,,,,,,,,,masks/mask_001.jpg,,,,,,,,,,,,,,,,,,,,,,,,,,,,,,,,,,,,,,,,,,,,,,,,0,3,3,0,1,,,,,,,,,,,,,,,,,,,,,,,,,,,,,,,,,,,,,,,,,
029389,001,2022-11-20_17h55.42.999,Info_measure_main_exp,2022.2.2,Win32,59.99520038,,,,,,,,,,,,,,,,,,masks/mask_002.jpg,,,,,,,,,,,,,,,,,,,,,,,,,,,,,,,,,,,,,,,,,,,,,,,,0,4,4,1,1,,,,,,,,,,,,,,,,,,,,,,,,,,,,,,,,,,,,,,,,,
029389,001,2022-11-20_17h55.42.999,Info_measure_main_exp,2022.2.2,Win32,59.99520038,,,,,,,,,,,,,,,,,,,,,,,,,,,,,,5,1.0666,1,,,,,,,,,,,,0,131,5,5,2250,1950,absent_patch/patch0002250.jpg,absent_patch/patch0001950.jpg,,,,,,,,,,,,,,,,,,,,0.076851852,-0.049074074,1,0,0,response3disk,32,0.003703704,-0.007407407,1,0,0,center_square,0,31,31,16,1,,,,,,,,,,,,,,,,,,,,,,,
029389,001,2022-11-20_17h55.42.999,Info_measure_main_exp,2022.2.2,Win32,59.99520038,,,,,,,,,,,,,,,,,,masks/mask_001.jpg,,,,,,,,,,,,,,,,,,,,,,,,,,,,,,,,,,,,,,,,,,,0,0,0,0,1,,,,,,,,,,,,,,,,,,,,,,,,,,,,,,,,,,,,,,,,,,,,,,
029389,001,2022-11-20_17h55.42.999,Info_measure_main_exp,2022.2.2,Win32,59.99520038,,,,,,,,,,,,,,,,,,masks/mask_002.jpg,,,,,,,,,,,,,,,,,,,,,,,,,,,,,,,,,,,,,,,,,,,0,1,1,1,1,,,,,,,,,,,,,,,,,,,,,,,,,,,,,,,,,,,,,,,,,,,,,,
029389,001,2022-11-20_17h55.42.999,Info_measure_main_exp,2022.2.2,Win32,59.99520038,,,,,,,,,,,,,,,,,,masks/mask_003.jpg,,,,,,,,,,,,,,,,,,,,,,,,,,,,,,,,,,,,,,,,,,,0,2,2,2,1,,,,,,,,,,,,,,,,,,,,,,,,,,,,,,,,,,,,,,,,,,,,,,
029389,001,2022-11-20_17h55.42.999,Info_measure_main_exp,2022.2.2,Win32,59.99520038,,,,,,,,,,,,,,,,,,masks/mask_005.jpg,,,,,,,,,,,,,,,,,,,,,,,,,,,,,,,,,,,,,,,,,,,0,3,3,4,1,,,,,,,,,,,,,,,,,,,,,,,,,,,,,,,,,,,,,,,,,,,,,,
029389,001,2022-11-20_17h55.42.999,Info_measure_main_exp,2022.2.2,Win32,59.99520038,,,,,,,,,,,,,,,,,,masks/mask_004.jpg,,,,,,,,,,,,,,,,,,,,,,,,,,,,,,,,,,,,,,,,,,,0,4,4,3,1,,,,,,,,,,,,,,,,,,,,,,,,,,,,,,,,,,,,,,,,,,,,,,
029389,001,2022-11-20_17h55.42.999,Info_measure_main_exp,2022.2.2,Win32,59.99520038,,,,,,,,,,,,,,,,,,masks/mask_004.jpg,,,,,,,,,,,,,,,,,,,,,,,,,,,,,,,,,,,,,,,,,,,,,,,,0,0,0,3,1,,,,,,,,,,,,,,,,,,,,,,,,,,,,,,,,,,,,,,,,,
029389,001,2022-11-20_17h55.42.999,Info_measure_main_exp,2022.2.2,Win32,59.99520038,,,,,,,,,,,,,,,,,,masks/mask_001.jpg,,,,,,,,,,,,,,,,,,,,,,,,,,,,,,,,,,,,,,,,,,,,,,,,0,1,1,0,1,,,,,,,,,,,,,,,,,,,,,,,,,,,,,,,,,,,,,,,,,
029389,001,2022-11-20_17h55.42.999,Info_measure_main_exp,2022.2.2,Win32,59.99520038,,,,,,,,,,,,,,,,,,masks/mask_002.jpg,,,,,,,,,,,,,,,,,,,,,,,,,,,,,,,,,,,,,,,,,,,,,,,,0,2,2,1,1,,,,,,,,,,,,,,,,,,,,,,,,,,,,,,,,,,,,,,,,,
029389,001,2022-11-20_17h55.42.999,Info_measure_main_exp,2022.2.2,Win32,59.99520038,,,,,,,,,,,,,,,,,,masks/mask_003.jpg,,,,,,,,,,,,,,,,,,,,,,,,,,,,,,,,,,,,,,,,,,,,,,,,0,3,3,2,1,,,,,,,,,,,,,,,,,,,,,,,,,,,,,,,,,,,,,,,,,
029389,001,2022-11-20_17h55.42.999,Info_measure_main_exp,2022.2.2,Win32,59.99520038,,,,,,,,,,,,,,,,,,masks/mask_005.jpg,,,,,,,,,,,,,,,,,,,,,,,,,,,,,,,,,,,,,,,,,,,,,,,,0,4,4,4,1,,,,,,,,,,,,,,,,,,,,,,,,,,,,,,,,,,,,,,,,,
029389,001,2022-11-20_17h55.42.999,Info_measure_main_exp,2022.2.2,Win32,59.99520038,,,,,,,,,,,,,,,,,,,,,,,,,,,,,,3,3.1,1,,,,,,,,,,,,0,131,5,5,2082,2298,absent_patch/patch0002082.jpg,absent_patch/patch0002298.jpg,,,,,,,,,,,,,,,,,,,,-0.00462963,-0.111111111,1,0,0,response5disk,33,0.005555556,0.008333333,1,0,0,center_square,0,32,32,107,1,,,,,,,,,,,,,,,,,,,,,,,
029389,001,2022-11-20_17h55.42.999,Info_measure_main_exp,2022.2.2,Win32,59.99520038,,,,,,,,,,,,,,,,,,masks/mask_003.jpg,,,,,,,,,,,,,,,,,,,,,,,,,,,,,,,,,,,,,,,,,,,0,0,0,2,1,,,,,,,,,,,,,,,,,,,,,,,,,,,,,,,,,,,,,,,,,,,,,,
029389,001,2022-11-20_17h55.42.999,Info_measure_main_exp,2022.2.2,Win32,59.99520038,,,,,,,,,,,,,,,,,,masks/mask_005.jpg,,,,,,,,,,,,,,,,,,,,,,,,,,,,,,,,,,,,,,,,,,,0,1,1,4,1,,,,,,,,,,,,,,,,,,,,,,,,,,,,,,,,,,,,,,,,,,,,,,
029389,001,2022-11-20_17h55.42.999,Info_measure_main_exp,2022.2.2,Win32,59.99520038,,,,,,,,,,,,,,,,,,masks/mask_002.jpg,,,,,,,,,,,,,,,,,,,,,,,,,,,,,,,,,,,,,,,,,,,0,2,2,1,1,,,,,,,,,,,,,,,,,,,,,,,,,,,,,,,,,,,,,,,,,,,,,,
029389,001,2022-11-20_17h55.42.999,Info_measure_main_exp,2022.2.2,Win32,59.99520038,,,,,,,,,,,,,,,,,,masks/mask_004.jpg,,,,,,,,,,,,,,,,,,,,,,,,,,,,,,,,,,,,,,,,,,,0,3,3,3,1,,,,,,,,,,,,,,,,,,,,,,,,,,,,,,,,,,,,,,,,,,,,,,
029389,001,2022-11-20_17h55.42.999,Info_measure_main_exp,2022.2.2,Win32,59.99520038,,,,,,,,,,,,,,,,,,masks/mask_001.jpg,,,,,,,,,,,,,,,,,,,,,,,,,,,,,,,,,,,,,,,,,,,0,4,4,0,1,,,,,,,,,,,,,,,,,,,,,,,,,,,,,,,,,,,,,,,,,,,,,,
029389,001,2022-11-20_17h55.42.999,Info_measure_main_exp,2022.2.2,Win32,59.99520038,,,,,,,,,,,,,,,,,,masks/mask_002.jpg,,,,,,,,,,,,,,,,,,,,,,,,,,,,,,,,,,,,,,,,,,,,,,,,0,0,0,1,1,,,,,,,,,,,,,,,,,,,,,,,,,,,,,,,,,,,,,,,,,
029389,001,2022-11-20_17h55.42.999,Info_measure_main_exp,2022.2.2,Win32,59.99520038,,,,,,,,,,,,,,,,,,masks/mask_004.jpg,,,,,,,,,,,,,,,,,,,,,,,,,,,,,,,,,,,,,,,,,,,,,,,,0,1,1,3,1,,,,,,,,,,,,,,,,,,,,,,,,,,,,,,,,,,,,,,,,,
029389,001,2022-11-20_17h55.42.999,Info_measure_main_exp,2022.2.2,Win32,59.99520038,,,,,,,,,,,,,,,,,,masks/mask_005.jpg,,,,,,,,,,,,,,,,,,,,,,,,,,,,,,,,,,,,,,,,,,,,,,,,0,2,2,4,1,,,,,,,,,,,,,,,,,,,,,,,,,,,,,,,,,,,,,,,,,
029389,001,2022-11-20_17h55.42.999,Info_measure_main_exp,2022.2.2,Win32,59.99520038,,,,,,,,,,,,,,,,,,masks/mask_001.jpg,,,,,,,,,,,,,,,,,,,,,,,,,,,,,,,,,,,,,,,,,,,,,,,,0,3,3,0,1,,,,,,,,,,,,,,,,,,,,,,,,,,,,,,,,,,,,,,,,,
029389,001,2022-11-20_17h55.42.999,Info_measure_main_exp,2022.2.2,Win32,59.99520038,,,,,,,,,,,,,,,,,,masks/mask_003.jpg,,,,,,,,,,,,,,,,,,,,,,,,,,,,,,,,,,,,,,,,,,,,,,,,0,4,4,2,1,,,,,,,,,,,,,,,,,,,,,,,,,,,,,,,,,,,,,,,,,
029389,001,2022-11-20_17h55.42.999,Info_measure_main_exp,2022.2.2,Win32,59.99520038,,,,,,,,,,,,,,,,,,,,,,,,,,,,,,4,1.0832,1,,,,,,,,,,,,0,131,5,5,2214,2082,absent_patch/patch0002214.jpg,absent_patch/patch0002082.jpg,,,,,,,,,,,,,,,,,,,,0.019444444,-0.088888889,1,0,0,response3disk,34,-0.005555556,0.006481481,1,0,0,center_square,0,33,33,103,1,,,,,,,,,,,,,,,,,,,,,,,
029389,001,2022-11-20_17h55.42.999,Info_measure_main_exp,2022.2.2,Win32,59.99520038,,,,,,,,,,,,,,,,,,masks/mask_003.jpg,,,,,,,,,,,,,,,,,,,,,,,,,,,,,,,,,,,,,,,,,,,0,0,0,2,1,,,,,,,,,,,,,,,,,,,,,,,,,,,,,,,,,,,,,,,,,,,,,,
029389,001,2022-11-20_17h55.42.999,Info_measure_main_exp,2022.2.2,Win32,59.99520038,,,,,,,,,,,,,,,,,,masks/mask_001.jpg,,,,,,,,,,,,,,,,,,,,,,,,,,,,,,,,,,,,,,,,,,,0,1,1,0,1,,,,,,,,,,,,,,,,,,,,,,,,,,,,,,,,,,,,,,,,,,,,,,
029389,001,2022-11-20_17h55.42.999,Info_measure_main_exp,2022.2.2,Win32,59.99520038,,,,,,,,,,,,,,,,,,masks/mask_004.jpg,,,,,,,,,,,,,,,,,,,,,,,,,,,,,,,,,,,,,,,,,,,0,2,2,3,1,,,,,,,,,,,,,,,,,,,,,,,,,,,,,,,,,,,,,,,,,,,,,,
029389,001,2022-11-20_17h55.42.999,Info_measure_main_exp,2022.2.2,Win32,59.99520038,,,,,,,,,,,,,,,,,,masks/mask_005.jpg,,,,,,,,,,,,,,,,,,,,,,,,,,,,,,,,,,,,,,,,,,,0,3,3,4,1,,,,,,,,,,,,,,,,,,,,,,,,,,,,,,,,,,,,,,,,,,,,,,
029389,001,2022-11-20_17h55.42.999,Info_measure_main_exp,2022.2.2,Win32,59.99520038,,,,,,,,,,,,,,,,,,masks/mask_002.jpg,,,,,,,,,,,,,,,,,,,,,,,,,,,,,,,,,,,,,,,,,,,0,4,4,1,1,,,,,,,,,,,,,,,,,,,,,,,,,,,,,,,,,,,,,,,,,,,,,,
029389,001,2022-11-20_17h55.42.999,Info_measure_main_exp,2022.2.2,Win32,59.99520038,,,,,,,,,,,,,,,,,,masks/mask_001.jpg,,,,,,,,,,,,,,,,,,,,,,,,,,,,,,,,,,,,,,,,,,,,,,,,0,0,0,0,1,,,,,,,,,,,,,,,,,,,,,,,,,,,,,,,,,,,,,,,,,
029389,001,2022-11-20_17h55.42.999,Info_measure_main_exp,2022.2.2,Win32,59.99520038,,,,,,,,,,,,,,,,,,masks/mask_002.jpg,,,,,,,,,,,,,,,,,,,,,,,,,,,,,,,,,,,,,,,,,,,,,,,,0,1,1,1,1,,,,,,,,,,,,,,,,,,,,,,,,,,,,,,,,,,,,,,,,,
029389,001,2022-11-20_17h55.42.999,Info_measure_main_exp,2022.2.2,Win32,59.99520038,,,,,,,,,,,,,,,,,,masks/mask_005.jpg,,,,,,,,,,,,,,,,,,,,,,,,,,,,,,,,,,,,,,,,,,,,,,,,0,2,2,4,1,,,,,,,,,,,,,,,,,,,,,,,,,,,,,,,,,,,,,,,,,
029389,001,2022-11-20_17h55.42.999,Info_measure_main_exp,2022.2.2,Win32,59.99520038,,,,,,,,,,,,,,,,,,masks/mask_004.jpg,,,,,,,,,,,,,,,,,,,,,,,,,,,,,,,,,,,,,,,,,,,,,,,,0,3,3,3,1,,,,,,,,,,,,,,,,,,,,,,,,,,,,,,,,,,,,,,,,,
