participant,session,date,expName,psychopyVersion,OS,frameRate,space_press_continue.keys,space_press_continue.rt,space_press_continue_2.keys,space_press_continue_2.rt,space_press_continue_3.keys,space_press_continue_3.rt,space_press_continue_4.keys,space_press_continue_4.rt,space_press_continue_5.keys,space_press_continue_5.rt,space_press_continue_6.keys,space_press_continue_6.rt,prac_mask_loop_1.thisRepN,prac_mask_loop_1.thisTrialN,prac_mask_loop_1.thisN,prac_mask_loop_1.thisIndex,prac_mask_loop_1.ran,mask_name,prac_mask_loop_2.thisRepN,prac_mask_loop_2.thisTrialN,prac_mask_loop_2.thisN,prac_mask_loop_2.thisIndex,prac_mask_loop_2.ran,mouse_2.x,mouse_2.y,mouse_2.leftButton,mouse_2.midButton,mouse_2.rightButton,mouse_2.clicked_name,similarity,response_time,Pass,mouse_12.x,mouse_12.y,mouse_12.leftButton,mouse_12.midButton,mouse_12.rightButton,mouse_12.clicked_name,prac_loop.thisRepN,prac_loop.thisTrialN,prac_loop.thisN,prac_loop.thisIndex,prac_loop.ran,Pair_type,Image_num,Patch_1_loc,Patch_2_loc,Patch_1_info,Patch_2_info,Patch_1_name,Patch_2_name,mouse_1.x,mouse_1.y,mouse_1.leftButton,mouse_1.midButton,mouse_1.rightButton,mouse_1.time,mouse_1.clicked_name,space_press_continue_7.keys,space_press_continue_7.rt,mask_loop.thisRepN,mask_loop.thisTrialN,mask_loop.thisN,mask_loop.thisIndex,mask_loop.ran,mask_loop_2.thisRepN,mask_loop_2.thisTrialN,mask_loop_2.thisN,mask_loop_2.thisIndex,mask_loop_2.ran,mouse.x,mouse.y,mouse.leftButton,mouse.midButton,mouse.rightButton,mouse.clicked_name,trialNumber,mouse_11.x,mouse_11.y,mouse_11.leftButton,mouse_11.midButton,mouse_11.rightButton,mouse_11.clicked_name,first_pass_loop.thisRepN,first_pass_loop.thisTrialN,first_pass_loop.thisN,first_pass_loop.thisIndex,first_pass_loop.ran,mask_loop_3.thisRepN,mask_loop_3.thisTrialN,mask_loop_3.thisN,mask_loop_3.thisIndex,mask_loop_3.ran,mask_loop_4.thisRepN,mask_loop_4.thisTrialN,mask_loop_4.thisN,mask_loop_4.thisIndex,mask_loop_4.ran,mouse_3.x,mouse_3.y,mouse_3.leftButton,mouse_3.midButton,mouse_3.rightButton,mouse_3.clicked_name,double_pass_loop.thisRepN,double_pass_loop.thisTrialN,double_pass_loop.thisN,double_pass_loop.thisIndex,double_pass_loop.ran,space_exit.keys,space_exit.rt
029926,001,2022-11-21_24h56.57.355,Info_measure_main_exp,2022.2.2,Win32,61.2782646,,,,,,,,,,,,,,,,,,,,,,,,,,,,,,,,,,,,,,,,,,,,,,,,,,,,,,,,,,,,,,,,,,,,,,,,,,,,,,,,,,,,,,,,,,,,,,,,,,,,,,,,,,,,,,,
029926,001,2022-11-21_24h56.57.355,Info_measure_main_exp,2022.2.2,Win32,61.2782646,,,,,,,,,,,,,,,,,,,,,,,,,,,,,,,,,,,,,,,,,,,,,,,,,,,,,,,,,,,,,,,,,,,,,,,,,,,,,,,,,,,,,,,,,,,,,,,,,,,,,,,,,,,,,,,
029926,001,2022-11-21_24h56.57.355,Info_measure_main_exp,2022.2.2,Win32,61.2782646,space,14.5121,,,,,,,,,,,,,,,,,,,,,,,,,,,,,,,,,,,,,,,,,,,,,,,,,,,,,,,,,,,,,,,,,,,,,,,,,,,,,,,,,,,,,,,,,,,,,,,,,,,,,,,,,,,,,
029926,001,2022-11-21_24h56.57.355,Info_measure_main_exp,2022.2.2,Win32,61.2782646,,,space,20.1367,,,,,,,,,,,,,,,,,,,,,,,,,,,,,,,,,,,,,,,,,,,,,,,,,,,,,,,,,,,,,,,,,,,,,,,,,,,,,,,,,,,,,,,,,,,,,,,,,,,,,,,,,,,
029926,001,2022-11-21_24h56.57.355,Info_measure_main_exp,2022.2.2,Win32,61.2782646,,,,,space,6.1118,,,,,,,,,,,,,,,,,,,,,,,,,,,,,,,,,,,,,,,,,,,,,,,,,,,,,,,,,,,,,,,,,,,,,,,,,,,,,,,,,,,,,,,,,,,,,,,,,,,,,,,,,
029926,001,2022-11-21_24h56.57.355,Info_measure_main_exp,2022.2.2,Win32,61.2782646,,,,,,,space,10.685,,,,,,,,,,,,,,,,,,,,,,,,,,,,,,,,,,,,,,,,,,,,,,,,,,,,,,,,,,,,,,,,,,,,,,,,,,,,,,,,,,,,,,,,,,,,,,,,,,,,,,,
029926,001,2022-11-21_24h56.57.355,Info_measure_main_exp,2022.2.2,Win32,61.2782646,,,,,,,,,space,5.7134,,,,,,,,,,,,,,,,,,,,,,,,,,,,,,,,,,,,,,,,,,,,,,,,,,,,,,,,,,,,,,,,,,,,,,,,,,,,,,,,,,,,,,,,,,,,,,,,,,,,,
029926,001,2022-11-21_24h56.57.355,Info_measure_main_exp,2022.2.2,Win32,61.2782646,,,,,,,,,,,space,3.658,,,,,,,,,,,,,,,,,,,,,,,,,,,,,,,,,,,,,,,,,,,,,,,,,,,,,,,,,,,,,,,,,,,,,,,,,,,,,,,,,,,,,,,,,,,,,,,,,,,
029926,001,2022-11-21_24h56.57.355,Info_measure_main_exp,2022.2.2,Win32,61.2782646,,,,,,,,,,,,,0,0,0,0,1,masks/mask_001.jpg,,,,,,,,,,,,,,,,,,,,,,,,,,,,,,,,,,,,,,,,,,,,,,,,,,,,,,,,,,,,,,,,,,,,,,,,,,,,,,,,,,,,,,,,,,,,,
029926,001,2022-11-21_24h56.57.355,Info_measure_main_exp,2022.2.2,Win32,61.2782646,,,,,,,,,,,,,0,1,1,2,1,masks/mask_003.jpg,,,,,,,,,,,,,,,,,,,,,,,,,,,,,,,,,,,,,,,,,,,,,,,,,,,,,,,,,,,,,,,,,,,,,,,,,,,,,,,,,,,,,,,,,,,,,
029926,001,2022-11-21_24h56.57.355,Info_measure_main_exp,2022.2.2,Win32,61.2782646,,,,,,,,,,,,,0,2,2,4,1,masks/mask_005.jpg,,,,,,,,,,,,,,,,,,,,,,,,,,,,,,,,,,,,,,,,,,,,,,,,,,,,,,,,,,,,,,,,,,,,,,,,,,,,,,,,,,,,,,,,,,,,,
029926,001,2022-11-21_24h56.57.355,Info_measure_main_exp,2022.2.2,Win32,61.2782646,,,,,,,,,,,,,0,3,3,1,1,masks/mask_002.jpg,,,,,,,,,,,,,,,,,,,,,,,,,,,,,,,,,,,,,,,,,,,,,,,,,,,,,,,,,,,,,,,,,,,,,,,,,,,,,,,,,,,,,,,,,,,,,
029926,001,2022-11-21_24h56.57.355,Info_measure_main_exp,2022.2.2,Win32,61.2782646,,,,,,,,,,,,,0,4,4,3,1,masks/mask_004.jpg,,,,,,,,,,,,,,,,,,,,,,,,,,,,,,,,,,,,,,,,,,,,,,,,,,,,,,,,,,,,,,,,,,,,,,,,,,,,,,,,,,,,,,,,,,,,,
029926,001,2022-11-21_24h56.57.355,Info_measure_main_exp,2022.2.2,Win32,61.2782646,,,,,,,,,,,,,,,,,,masks/mask_004.jpg,0,0,0,3,1,,,,,,,,,,,,,,,,,,,,,,,,,,,,,,,,,,,,,,,,,,,,,,,,,,,,,,,,,,,,,,,,,,,,,,,,,,,,,,,,,,,,,,,,
029926,001,2022-11-21_24h56.57.355,Info_measure_main_exp,2022.2.2,Win32,61.2782646,,,,,,,,,,,,,,,,,,masks/mask_001.jpg,0,1,1,0,1,,,,,,,,,,,,,,,,,,,,,,,,,,,,,,,,,,,,,,,,,,,,,,,,,,,,,,,,,,,,,,,,,,,,,,,,,,,,,,,,,,,,,,,,
029926,001,2022-11-21_24h56.57.355,Info_measure_main_exp,2022.2.2,Win32,61.2782646,,,,,,,,,,,,,,,,,,masks/mask_003.jpg,0,2,2,2,1,,,,,,,,,,,,,,,,,,,,,,,,,,,,,,,,,,,,,,,,,,,,,,,,,,,,,,,,,,,,,,,,,,,,,,,,,,,,,,,,,,,,,,,,
029926,001,2022-11-21_24h56.57.355,Info_measure_main_exp,2022.2.2,Win32,61.2782646,,,,,,,,,,,,,,,,,,masks/mask_002.jpg,0,3,3,1,1,,,,,,,,,,,,,,,,,,,,,,,,,,,,,,,,,,,,,,,,,,,,,,,,,,,,,,,,,,,,,,,,,,,,,,,,,,,,,,,,,,,,,,,,
029926,001,2022-11-21_24h56.57.355,Info_measure_main_exp,2022.2.2,Win32,61.2782646,,,,,,,,,,,,,,,,,,masks/mask_005.jpg,0,4,4,4,1,,,,,,,,,,,,,,,,,,,,,,,,,,,,,,,,,,,,,,,,,,,,,,,,,,,,,,,,,,,,,,,,,,,,,,,,,,,,,,,,,,,,,,,,
029926,001,2022-11-21_24h56.57.355,Info_measure_main_exp,2022.2.2,Win32,61.2782646,,,,,,,,,,,,,,,,,,,,,,,,0.12109375,-0.059895833,1,0,0,response3disk,5,66.7407,1,0.001302083,0.00390625,1,0,0,center_square,0,0,0,2,1,0,131,5,5,2526,2526,prac_patch/patch0002526.jpg,prac_patch/patch0002526.jpg,,,,,,,,,,,,,,,,,,,,,,,,,,,,,,,,,,,,,,,,,,,,,,,,,,,,,,,,,,,,
029926,001,2022-11-21_24h56.57.355,Info_measure_main_exp,2022.2.2,Win32,61.2782646,,,,,,,,,,,,,0,0,0,3,1,masks/mask_004.jpg,,,,,,,,,,,,,,,,,,,,,,,,,,,,,,,,,,,,,,,,,,,,,,,,,,,,,,,,,,,,,,,,,,,,,,,,,,,,,,,,,,,,,,,,,,,,,
029926,001,2022-11-21_24h56.57.355,Info_measure_main_exp,2022.2.2,Win32,61.2782646,,,,,,,,,,,,,0,1,1,2,1,masks/mask_003.jpg,,,,,,,,,,,,,,,,,,,,,,,,,,,,,,,,,,,,,,,,,,,,,,,,,,,,,,,,,,,,,,,,,,,,,,,,,,,,,,,,,,,,,,,,,,,,,
029926,001,2022-11-21_24h56.57.355,Info_measure_main_exp,2022.2.2,Win32,61.2782646,,,,,,,,,,,,,0,2,2,1,1,masks/mask_002.jpg,,,,,,,,,,,,,,,,,,,,,,,,,,,,,,,,,,,,,,,,,,,,,,,,,,,,,,,,,,,,,,,,,,,,,,,,,,,,,,,,,,,,,,,,,,,,,
029926,001,2022-11-21_24h56.57.355,Info_measure_main_exp,2022.2.2,Win32,61.2782646,,,,,,,,,,,,,0,3,3,0,1,masks/mask_001.jpg,,,,,,,,,,,,,,,,,,,,,,,,,,,,,,,,,,,,,,,,,,,,,,,,,,,,,,,,,,,,,,,,,,,,,,,,,,,,,,,,,,,,,,,,,,,,,
029926,001,2022-11-21_24h56.57.355,Info_measure_main_exp,2022.2.2,Win32,61.2782646,,,,,,,,,,,,,0,4,4,4,1,masks/mask_005.jpg,,,,,,,,,,,,,,,,,,,,,,,,,,,,,,,,,,,,,,,,,,,,,,,,,,,,,,,,,,,,,,,,,,,,,,,,,,,,,,,,,,,,,,,,,,,,,
029926,001,2022-11-21_24h56.57.355,Info_measure_main_exp,2022.2.2,Win32,61.2782646,,,,,,,,,,,,,,,,,,masks/mask_005.jpg,0,0,0,4,1,,,,,,,,,,,,,,,,,,,,,,,,,,,,,,,,,,,,,,,,,,,,,,,,,,,,,,,,,,,,,,,,,,,,,,,,,,,,,,,,,,,,,,,,
029926,001,2022-11-21_24h56.57.355,Info_measure_main_exp,2022.2.2,Win32,61.2782646,,,,,,,,,,,,,,,,,,masks/mask_003.jpg,0,1,1,2,1,,,,,,,,,,,,,,,,,,,,,,,,,,,,,,,,,,,,,,,,,,,,,,,,,,,,,,,,,,,,,,,,,,,,,,,,,,,,,,,,,,,,,,,,
029926,001,2022-11-21_24h56.57.355,Info_measure_main_exp,2022.2.2,Win32,61.2782646,,,,,,,,,,,,,,,,,,masks/mask_004.jpg,0,2,2,3,1,,,,,,,,,,,,,,,,,,,,,,,,,,,,,,,,,,,,,,,,,,,,,,,,,,,,,,,,,,,,,,,,,,,,,,,,,,,,,,,,,,,,,,,,
029926,001,2022-11-21_24h56.57.355,Info_measure_main_exp,2022.2.2,Win32,61.2782646,,,,,,,,,,,,,,,,,,masks/mask_001.jpg,0,3,3,0,1,,,,,,,,,,,,,,,,,,,,,,,,,,,,,,,,,,,,,,,,,,,,,,,,,,,,,,,,,,,,,,,,,,,,,,,,,,,,,,,,,,,,,,,,
029926,001,2022-11-21_24h56.57.355,Info_measure_main_exp,2022.2.2,Win32,61.2782646,,,,,,,,,,,,,,,,,,masks/mask_002.jpg,0,4,4,1,1,,,,,,,,,,,,,,,,,,,,,,,,,,,,,,,,,,,,,,,,,,,,,,,,,,,,,,,,,,,,,,,,,,,,,,,,,,,,,,,,,,,,,,,,
029926,001,2022-11-21_24h56.57.355,Info_measure_main_exp,2022.2.2,Win32,61.2782646,,,,,,,,,,,,,,,,,,,,,,,,0.045572917,0.09765625,1,0,0,response1disk,7,78.5086,1,0,-0.002604167,1,0,0,center_square,0,1,1,0,1,0,131,5,5,2370,2406,prac_patch/patch0002370.jpg,prac_patch/patch0002406.jpg,,,,,,,,,,,,,,,,,,,,,,,,,,,,,,,,,,,,,,,,,,,,,,,,,,,,,,,,,,,,
029926,001,2022-11-21_24h56.57.355,Info_measure_main_exp,2022.2.2,Win32,61.2782646,,,,,,,,,,,,,0,0,0,3,1,masks/mask_004.jpg,,,,,,,,,,,,,,,,,,,,,,,,,,,,,,,,,,,,,,,,,,,,,,,,,,,,,,,,,,,,,,,,,,,,,,,,,,,,,,,,,,,,,,,,,,,,,
029926,001,2022-11-21_24h56.57.355,Info_measure_main_exp,2022.2.2,Win32,61.2782646,,,,,,,,,,,,,0,1,1,4,1,masks/mask_005.jpg,,,,,,,,,,,,,,,,,,,,,,,,,,,,,,,,,,,,,,,,,,,,,,,,,,,,,,,,,,,,,,,,,,,,,,,,,,,,,,,,,,,,,,,,,,,,,
029926,001,2022-11-21_24h56.57.355,Info_measure_main_exp,2022.2.2,Win32,61.2782646,,,,,,,,,,,,,0,2,2,1,1,masks/mask_002.jpg,,,,,,,,,,,,,,,,,,,,,,,,,,,,,,,,,,,,,,,,,,,,,,,,,,,,,,,,,,,,,,,,,,,,,,,,,,,,,,,,,,,,,,,,,,,,,
029926,001,2022-11-21_24h56.57.355,Info_measure_main_exp,2022.2.2,Win32,61.2782646,,,,,,,,,,,,,0,3,3,0,1,masks/mask_001.jpg,,,,,,,,,,,,,,,,,,,,,,,,,,,,,,,,,,,,,,,,,,,,,,,,,,,,,,,,,,,,,,,,,,,,,,,,,,,,,,,,,,,,,,,,,,,,,
029926,001,2022-11-21_24h56.57.355,Info_measure_main_exp,2022.2.2,Win32,61.2782646,,,,,,,,,,,,,0,4,4,2,1,masks/mask_003.jpg,,,,,,,,,,,,,,,,,,,,,,,,,,,,,,,,,,,,,,,,,,,,,,,,,,,,,,,,,,,,,,,,,,,,,,,,,,,,,,,,,,,,,,,,,,,,,
029926,001,2022-11-21_24h56.57.355,Info_measure_main_exp,2022.2.2,Win32,61.2782646,,,,,,,,,,,,,,,,,,masks/mask_005.jpg,0,0,0,4,1,,,,,,,,,,,,,,,,,,,,,,,,,,,,,,,,,,,,,,,,,,,,,,,,,,,,,,,,,,,,,,,,,,,,,,,,,,,,,,,,,,,,,,,,
029926,001,2022-11-21_24h56.57.355,Info_measure_main_exp,2022.2.2,Win32,61.2782646,,,,,,,,,,,,,,,,,,masks/mask_003.jpg,0,1,1,2,1,,,,,,,,,,,,,,,,,,,,,,,,,,,,,,,,,,,,,,,,,,,,,,,,,,,,,,,,,,,,,,,,,,,,,,,,,,,,,,,,,,,,,,,,
029926,001,2022-11-21_24h56.57.355,Info_measure_main_exp,2022.2.2,Win32,61.2782646,,,,,,,,,,,,,,,,,,masks/mask_002.jpg,0,2,2,1,1,,,,,,,,,,,,,,,,,,,,,,,,,,,,,,,,,,,,,,,,,,,,,,,,,,,,,,,,,,,,,,,,,,,,,,,,,,,,,,,,,,,,,,,,
029926,001,2022-11-21_24h56.57.355,Info_measure_main_exp,2022.2.2,Win32,61.2782646,,,,,,,,,,,,,,,,,,masks/mask_004.jpg,0,3,3,3,1,,,,,,,,,,,,,,,,,,,,,,,,,,,,,,,,,,,,,,,,,,,,,,,,,,,,,,,,,,,,,,,,,,,,,,,,,,,,,,,,,,,,,,,,
029926,001,2022-11-21_24h56.57.355,Info_measure_main_exp,2022.2.2,Win32,61.2782646,,,,,,,,,,,,,,,,,,masks/mask_001.jpg,0,4,4,0,1,,,,,,,,,,,,,,,,,,,,,,,,,,,,,,,,,,,,,,,,,,,,,,,,,,,,,,,,,,,,,,,,,,,,,,,,,,,,,,,,,,,,,,,,
029926,001,2022-11-21_24h56.57.355,Info_measure_main_exp,2022.2.2,Win32,61.2782646,,,,,,,,,,,,,,,,,,,,,,,,-0.010416667,-0.028645833,1,0,0,response5disk,3,91.8377,1,0.005208333,-0.001302083,1,0,0,center_square,0,2,2,1,1,0,131,5,5,2514,2490,prac_patch/patch0002514.jpg,prac_patch/patch0002490.jpg,,,,,,,,,,,,,,,,,,,,,,,,,,,,,,,,,,,,,,,,,,,,,,,,,,,,,,,,,,,,
029926,001,2022-11-21_24h56.57.355,Info_measure_main_exp,2022.2.2,Win32,61.2782646,,,,,,,,,,,,,,,,,,,,,,,,,,,,,,,,,,,,,,,,,,,,,,,,,,,,,,,,,,,space,2.0845,,,,,,,,,,,,,,,,,,,,,,,,,,,,,,,,,,,,,,,,,,,,,,,,,,,
029926,001,2022-11-21_24h56.57.355,Info_measure_main_exp,2022.2.2,Win32,61.2782646,,,,,,,,,,,,,,,,,,masks/mask_005.jpg,,,,,,,,,,,,,,,,,,,,,,,,,,,,,,,,,,,,,,,,,,,0,0,0,4,1,,,,,,,,,,,,,,,,,,,,,,,,,,,,,,,,,,,,,,,,,,,,,,
029926,001,2022-11-21_24h56.57.355,Info_measure_main_exp,2022.2.2,Win32,61.2782646,,,,,,,,,,,,,,,,,,masks/mask_001.jpg,,,,,,,,,,,,,,,,,,,,,,,,,,,,,,,,,,,,,,,,,,,0,1,1,0,1,,,,,,,,,,,,,,,,,,,,,,,,,,,,,,,,,,,,,,,,,,,,,,
029926,001,2022-11-21_24h56.57.355,Info_measure_main_exp,2022.2.2,Win32,61.2782646,,,,,,,,,,,,,,,,,,masks/mask_003.jpg,,,,,,,,,,,,,,,,,,,,,,,,,,,,,,,,,,,,,,,,,,,0,2,2,2,1,,,,,,,,,,,,,,,,,,,,,,,,,,,,,,,,,,,,,,,,,,,,,,
029926,001,2022-11-21_24h56.57.355,Info_measure_main_exp,2022.2.2,Win32,61.2782646,,,,,,,,,,,,,,,,,,masks/mask_002.jpg,,,,,,,,,,,,,,,,,,,,,,,,,,,,,,,,,,,,,,,,,,,0,3,3,1,1,,,,,,,,,,,,,,,,,,,,,,,,,,,,,,,,,,,,,,,,,,,,,,
029926,001,2022-11-21_24h56.57.355,Info_measure_main_exp,2022.2.2,Win32,61.2782646,,,,,,,,,,,,,,,,,,masks/mask_004.jpg,,,,,,,,,,,,,,,,,,,,,,,,,,,,,,,,,,,,,,,,,,,0,4,4,3,1,,,,,,,,,,,,,,,,,,,,,,,,,,,,,,,,,,,,,,,,,,,,,,
029926,001,2022-11-21_24h56.57.355,Info_measure_main_exp,2022.2.2,Win32,61.2782646,,,,,,,,,,,,,,,,,,masks/mask_001.jpg,,,,,,,,,,,,,,,,,,,,,,,,,,,,,,,,,,,,,,,,,,,,,,,,0,0,0,0,1,,,,,,,,,,,,,,,,,,,,,,,,,,,,,,,,,,,,,,,,,
029926,001,2022-11-21_24h56.57.355,Info_measure_main_exp,2022.2.2,Win32,61.2782646,,,,,,,,,,,,,,,,,,masks/mask_003.jpg,,,,,,,,,,,,,,,,,,,,,,,,,,,,,,,,,,,,,,,,,,,,,,,,0,1,1,2,1,,,,,,,,,,,,,,,,,,,,,,,,,,,,,,,,,,,,,,,,,
029926,001,2022-11-21_24h56.57.355,Info_measure_main_exp,2022.2.2,Win32,61.2782646,,,,,,,,,,,,,,,,,,masks/mask_002.jpg,,,,,,,,,,,,,,,,,,,,,,,,,,,,,,,,,,,,,,,,,,,,,,,,0,2,2,1,1,,,,,,,,,,,,,,,,,,,,,,,,,,,,,,,,,,,,,,,,,
029926,001,2022-11-21_24h56.57.355,Info_measure_main_exp,2022.2.2,Win32,61.2782646,,,,,,,,,,,,,,,,,,masks/mask_005.jpg,,,,,,,,,,,,,,,,,,,,,,,,,,,,,,,,,,,,,,,,,,,,,,,,0,3,3,4,1,,,,,,,,,,,,,,,,,,,,,,,,,,,,,,,,,,,,,,,,,
029926,001,2022-11-21_24h56.57.355,Info_measure_main_exp,2022.2.2,Win32,61.2782646,,,,,,,,,,,,,,,,,,masks/mask_004.jpg,,,,,,,,,,,,,,,,,,,,,,,,,,,,,,,,,,,,,,,,,,,,,,,,0,4,4,3,1,,,,,,,,,,,,,,,,,,,,,,,,,,,,,,,,,,,,,,,,,
029926,001,2022-11-21_24h56.57.355,Info_measure_main_exp,2022.2.2,Win32,61.2782646,,,,,,,,,,,,,,,,,,,,,,,,,,,,,,7,1.6172,1,,,,,,,,,,,,0,131,5,5,1974,2214,absent_patch/patch0001974.jpg,absent_patch/patch0002214.jpg,,,,,,,,,,,,,,,,,,,,0.02734375,0.1171875,1,0,0,response1disk,1,0,-0.005208333,1,0,0,center_square,0,0,0,24,1,,,,,,,,,,,,,,,,,,,,,,,
029926,001,2022-11-21_24h56.57.355,Info_measure_main_exp,2022.2.2,Win32,61.2782646,,,,,,,,,,,,,,,,,,masks/mask_005.jpg,,,,,,,,,,,,,,,,,,,,,,,,,,,,,,,,,,,,,,,,,,,0,0,0,4,1,,,,,,,,,,,,,,,,,,,,,,,,,,,,,,,,,,,,,,,,,,,,,,
029926,001,2022-11-21_24h56.57.355,Info_measure_main_exp,2022.2.2,Win32,61.2782646,,,,,,,,,,,,,,,,,,masks/mask_003.jpg,,,,,,,,,,,,,,,,,,,,,,,,,,,,,,,,,,,,,,,,,,,0,1,1,2,1,,,,,,,,,,,,,,,,,,,,,,,,,,,,,,,,,,,,,,,,,,,,,,
029926,001,2022-11-21_24h56.57.355,Info_measure_main_exp,2022.2.2,Win32,61.2782646,,,,,,,,,,,,,,,,,,masks/mask_002.jpg,,,,,,,,,,,,,,,,,,,,,,,,,,,,,,,,,,,,,,,,,,,0,2,2,1,1,,,,,,,,,,,,,,,,,,,,,,,,,,,,,,,,,,,,,,,,,,,,,,
029926,001,2022-11-21_24h56.57.355,Info_measure_main_exp,2022.2.2,Win32,61.2782646,,,,,,,,,,,,,,,,,,masks/mask_004.jpg,,,,,,,,,,,,,,,,,,,,,,,,,,,,,,,,,,,,,,,,,,,0,3,3,3,1,,,,,,,,,,,,,,,,,,,,,,,,,,,,,,,,,,,,,,,,,,,,,,
029926,001,2022-11-21_24h56.57.355,Info_measure_main_exp,2022.2.2,Win32,61.2782646,,,,,,,,,,,,,,,,,,masks/mask_001.jpg,,,,,,,,,,,,,,,,,,,,,,,,,,,,,,,,,,,,,,,,,,,0,4,4,0,1,,,,,,,,,,,,,,,,,,,,,,,,,,,,,,,,,,,,,,,,,,,,,,
029926,001,2022-11-21_24h56.57.355,Info_measure_main_exp,2022.2.2,Win32,61.2782646,,,,,,,,,,,,,,,,,,masks/mask_005.jpg,,,,,,,,,,,,,,,,,,,,,,,,,,,,,,,,,,,,,,,,,,,,,,,,0,0,0,4,1,,,,,,,,,,,,,,,,,,,,,,,,,,,,,,,,,,,,,,,,,
029926,001,2022-11-21_24h56.57.355,Info_measure_main_exp,2022.2.2,Win32,61.2782646,,,,,,,,,,,,,,,,,,masks/mask_001.jpg,,,,,,,,,,,,,,,,,,,,,,,,,,,,,,,,,,,,,,,,,,,,,,,,0,1,1,0,1,,,,,,,,,,,,,,,,,,,,,,,,,,,,,,,,,,,,,,,,,
029926,001,2022-11-21_24h56.57.355,Info_measure_main_exp,2022.2.2,Win32,61.2782646,,,,,,,,,,,,,,,,,,masks/mask_003.jpg,,,,,,,,,,,,,,,,,,,,,,,,,,,,,,,,,,,,,,,,,,,,,,,,0,2,2,2,1,,,,,,,,,,,,,,,,,,,,,,,,,,,,,,,,,,,,,,,,,
029926,001,2022-11-21_24h56.57.355,Info_measure_main_exp,2022.2.2,Win32,61.2782646,,,,,,,,,,,,,,,,,,masks/mask_002.jpg,,,,,,,,,,,,,,,,,,,,,,,,,,,,,,,,,,,,,,,,,,,,,,,,0,3,3,1,1,,,,,,,,,,,,,,,,,,,,,,,,,,,,,,,,,,,,,,,,,
029926,001,2022-11-21_24h56.57.355,Info_measure_main_exp,2022.2.2,Win32,61.2782646,,,,,,,,,,,,,,,,,,masks/mask_004.jpg,,,,,,,,,,,,,,,,,,,,,,,,,,,,,,,,,,,,,,,,,,,,,,,,0,4,4,3,1,,,,,,,,,,,,,,,,,,,,,,,,,,,,,,,,,,,,,,,,,
029926,001,2022-11-21_24h56.57.355,Info_measure_main_exp,2022.2.2,Win32,61.2782646,,,,,,,,,,,,,,,,,,,,,,,,,,,,,,5,1.3008,1,,,,,,,,,,,,0,131,5,5,1950,2142,absent_patch/patch0001950.jpg,absent_patch/patch0002142.jpg,,,,,,,,,,,,,,,,,,,,0.1015625,-0.06640625,1,0,0,response3disk,2,-0.01171875,0.006510417,1,0,0,center_square,0,1,1,83,1,,,,,,,,,,,,,,,,,,,,,,,
029926,001,2022-11-21_24h56.57.355,Info_measure_main_exp,2022.2.2,Win32,61.2782646,,,,,,,,,,,,,,,,,,masks/mask_001.jpg,,,,,,,,,,,,,,,,,,,,,,,,,,,,,,,,,,,,,,,,,,,0,0,0,0,1,,,,,,,,,,,,,,,,,,,,,,,,,,,,,,,,,,,,,,,,,,,,,,
029926,001,2022-11-21_24h56.57.355,Info_measure_main_exp,2022.2.2,Win32,61.2782646,,,,,,,,,,,,,,,,,,masks/mask_004.jpg,,,,,,,,,,,,,,,,,,,,,,,,,,,,,,,,,,,,,,,,,,,0,1,1,3,1,,,,,,,,,,,,,,,,,,,,,,,,,,,,,,,,,,,,,,,,,,,,,,
029926,001,2022-11-21_24h56.57.355,Info_measure_main_exp,2022.2.2,Win32,61.2782646,,,,,,,,,,,,,,,,,,masks/mask_003.jpg,,,,,,,,,,,,,,,,,,,,,,,,,,,,,,,,,,,,,,,,,,,0,2,2,2,1,,,,,,,,,,,,,,,,,,,,,,,,,,,,,,,,,,,,,,,,,,,,,,
029926,001,2022-11-21_24h56.57.355,Info_measure_main_exp,2022.2.2,Win32,61.2782646,,,,,,,,,,,,,,,,,,masks/mask_002.jpg,,,,,,,,,,,,,,,,,,,,,,,,,,,,,,,,,,,,,,,,,,,0,3,3,1,1,,,,,,,,,,,,,,,,,,,,,,,,,,,,,,,,,,,,,,,,,,,,,,
029926,001,2022-11-21_24h56.57.355,Info_measure_main_exp,2022.2.2,Win32,61.2782646,,,,,,,,,,,,,,,,,,masks/mask_005.jpg,,,,,,,,,,,,,,,,,,,,,,,,,,,,,,,,,,,,,,,,,,,0,4,4,4,1,,,,,,,,,,,,,,,,,,,,,,,,,,,,,,,,,,,,,,,,,,,,,,
029926,001,2022-11-21_24h56.57.355,Info_measure_main_exp,2022.2.2,Win32,61.2782646,,,,,,,,,,,,,,,,,,masks/mask_002.jpg,,,,,,,,,,,,,,,,,,,,,,,,,,,,,,,,,,,,,,,,,,,,,,,,0,0,0,1,1,,,,,,,,,,,,,,,,,,,,,,,,,,,,,,,,,,,,,,,,,
029926,001,2022-11-21_24h56.57.355,Info_measure_main_exp,2022.2.2,Win32,61.2782646,,,,,,,,,,,,,,,,,,masks/mask_004.jpg,,,,,,,,,,,,,,,,,,,,,,,,,,,,,,,,,,,,,,,,,,,,,,,,0,1,1,3,1,,,,,,,,,,,,,,,,,,,,,,,,,,,,,,,,,,,,,,,,,
029926,001,2022-11-21_24h56.57.355,Info_measure_main_exp,2022.2.2,Win32,61.2782646,,,,,,,,,,,,,,,,,,masks/mask_003.jpg,,,,,,,,,,,,,,,,,,,,,,,,,,,,,,,,,,,,,,,,,,,,,,,,0,2,2,2,1,,,,,,,,,,,,,,,,,,,,,,,,,,,,,,,,,,,,,,,,,
029926,001,2022-11-21_24h56.57.355,Info_measure_main_exp,2022.2.2,Win32,61.2782646,,,,,,,,,,,,,,,,,,masks/mask_005.jpg,,,,,,,,,,,,,,,,,,,,,,,,,,,,,,,,,,,,,,,,,,,,,,,,0,3,3,4,1,,,,,,,,,,,,,,,,,,,,,,,,,,,,,,,,,,,,,,,,,
029926,001,2022-11-21_24h56.57.355,Info_measure_main_exp,2022.2.2,Win32,61.2782646,,,,,,,,,,,,,,,,,,masks/mask_001.jpg,,,,,,,,,,,,,,,,,,,,,,,,,,,,,,,,,,,,,,,,,,,,,,,,0,4,4,0,1,,,,,,,,,,,,,,,,,,,,,,,,,,,,,,,,,,,,,,,,,
029926,001,2022-11-21_24h56.57.355,Info_measure_main_exp,2022.2.2,Win32,61.2782646,,,,,,,,,,,,,,,,,,,,,,,,,,,,,,0,1.8175,1,,,,,,,,,,,,0,131,5,5,2142,2142,absent_patch/patch0002142.jpg,absent_patch/patch0002142.jpg,,,,,,,,,,,,,,,,,,,,-0.026041667,0.12890625,1,0,0,response7disk,3,0.005208333,-0.002604167,1,0,0,center_square,0,2,2,13,1,,,,,,,,,,,,,,,,,,,,,,,
029926,001,2022-11-21_24h56.57.355,Info_measure_main_exp,2022.2.2,Win32,61.2782646,,,,,,,,,,,,,,,,,,masks/mask_002.jpg,,,,,,,,,,,,,,,,,,,,,,,,,,,,,,,,,,,,,,,,,,,0,0,0,1,1,,,,,,,,,,,,,,,,,,,,,,,,,,,,,,,,,,,,,,,,,,,,,,
029926,001,2022-11-21_24h56.57.355,Info_measure_main_exp,2022.2.2,Win32,61.2782646,,,,,,,,,,,,,,,,,,masks/mask_001.jpg,,,,,,,,,,,,,,,,,,,,,,,,,,,,,,,,,,,,,,,,,,,0,1,1,0,1,,,,,,,,,,,,,,,,,,,,,,,,,,,,,,,,,,,,,,,,,,,,,,
029926,001,2022-11-21_24h56.57.355,Info_measure_main_exp,2022.2.2,Win32,61.2782646,,,,,,,,,,,,,,,,,,masks/mask_005.jpg,,,,,,,,,,,,,,,,,,,,,,,,,,,,,,,,,,,,,,,,,,,0,2,2,4,1,,,,,,,,,,,,,,,,,,,,,,,,,,,,,,,,,,,,,,,,,,,,,,
029926,001,2022-11-21_24h56.57.355,Info_measure_main_exp,2022.2.2,Win32,61.2782646,,,,,,,,,,,,,,,,,,masks/mask_003.jpg,,,,,,,,,,,,,,,,,,,,,,,,,,,,,,,,,,,,,,,,,,,0,3,3,2,1,,,,,,,,,,,,,,,,,,,,,,,,,,,,,,,,,,,,,,,,,,,,,,
029926,001,2022-11-21_24h56.57.355,Info_measure_main_exp,2022.2.2,Win32,61.2782646,,,,,,,,,,,,,,,,,,masks/mask_004.jpg,,,,,,,,,,,,,,,,,,,,,,,,,,,,,,,,,,,,,,,,,,,0,4,4,3,1,,,,,,,,,,,,,,,,,,,,,,,,,,,,,,,,,,,,,,,,,,,,,,
029926,001,2022-11-21_24h56.57.355,Info_measure_main_exp,2022.2.2,Win32,61.2782646,,,,,,,,,,,,,,,,,,masks/mask_002.jpg,,,,,,,,,,,,,,,,,,,,,,,,,,,,,,,,,,,,,,,,,,,,,,,,0,0,0,1,1,,,,,,,,,,,,,,,,,,,,,,,,,,,,,,,,,,,,,,,,,
029926,001,2022-11-21_24h56.57.355,Info_measure_main_exp,2022.2.2,Win32,61.2782646,,,,,,,,,,,,,,,,,,masks/mask_001.jpg,,,,,,,,,,,,,,,,,,,,,,,,,,,,,,,,,,,,,,,,,,,,,,,,0,1,1,0,1,,,,,,,,,,,,,,,,,,,,,,,,,,,,,,,,,,,,,,,,,
029926,001,2022-11-21_24h56.57.355,Info_measure_main_exp,2022.2.2,Win32,61.2782646,,,,,,,,,,,,,,,,,,masks/mask_004.jpg,,,,,,,,,,,,,,,,,,,,,,,,,,,,,,,,,,,,,,,,,,,,,,,,0,2,2,3,1,,,,,,,,,,,,,,,,,,,,,,,,,,,,,,,,,,,,,,,,,
029926,001,2022-11-21_24h56.57.355,Info_measure_main_exp,2022.2.2,Win32,61.2782646,,,,,,,,,,,,,,,,,,masks/mask_003.jpg,,,,,,,,,,,,,,,,,,,,,,,,,,,,,,,,,,,,,,,,,,,,,,,,0,3,3,2,1,,,,,,,,,,,,,,,,,,,,,,,,,,,,,,,,,,,,,,,,,
029926,001,2022-11-21_24h56.57.355,Info_measure_main_exp,2022.2.2,Win32,61.2782646,,,,,,,,,,,,,,,,,,masks/mask_005.jpg,,,,,,,,,,,,,,,,,,,,,,,,,,,,,,,,,,,,,,,,,,,,,,,,0,4,4,4,1,,,,,,,,,,,,,,,,,,,,,,,,,,,,,,,,,,,,,,,,,
029926,001,2022-11-21_24h56.57.355,Info_measure_main_exp,2022.2.2,Win32,61.2782646,,,,,,,,,,,,,,,,,,,,,,,,,,,,,,7,1.3132,1,,,,,,,,,,,,0,131,5,5,1986,2142,absent_patch/patch0001986.jpg,absent_patch/patch0002142.jpg,,,,,,,,,,,,,,,,,,,,0.069010417,0.126302083,1,0,0,response1disk,4,-0.005208333,0,1,0,0,center_square,0,3,3,76,1,,,,,,,,,,,,,,,,,,,,,,,
029926,001,2022-11-21_24h56.57.355,Info_measure_main_exp,2022.2.2,Win32,61.2782646,,,,,,,,,,,,,,,,,,masks/mask_005.jpg,,,,,,,,,,,,,,,,,,,,,,,,,,,,,,,,,,,,,,,,,,,0,0,0,4,1,,,,,,,,,,,,,,,,,,,,,,,,,,,,,,,,,,,,,,,,,,,,,,
029926,001,2022-11-21_24h56.57.355,Info_measure_main_exp,2022.2.2,Win32,61.2782646,,,,,,,,,,,,,,,,,,masks/mask_002.jpg,,,,,,,,,,,,,,,,,,,,,,,,,,,,,,,,,,,,,,,,,,,0,1,1,1,1,,,,,,,,,,,,,,,,,,,,,,,,,,,,,,,,,,,,,,,,,,,,,,
029926,001,2022-11-21_24h56.57.355,Info_measure_main_exp,2022.2.2,Win32,61.2782646,,,,,,,,,,,,,,,,,,masks/mask_004.jpg,,,,,,,,,,,,,,,,,,,,,,,,,,,,,,,,,,,,,,,,,,,0,2,2,3,1,,,,,,,,,,,,,,,,,,,,,,,,,,,,,,,,,,,,,,,,,,,,,,
029926,001,2022-11-21_24h56.57.355,Info_measure_main_exp,2022.2.2,Win32,61.2782646,,,,,,,,,,,,,,,,,,masks/mask_003.jpg,,,,,,,,,,,,,,,,,,,,,,,,,,,,,,,,,,,,,,,,,,,0,3,3,2,1,,,,,,,,,,,,,,,,,,,,,,,,,,,,,,,,,,,,,,,,,,,,,,
029926,001,2022-11-21_24h56.57.355,Info_measure_main_exp,2022.2.2,Win32,61.2782646,,,,,,,,,,,,,,,,,,masks/mask_001.jpg,,,,,,,,,,,,,,,,,,,,,,,,,,,,,,,,,,,,,,,,,,,0,4,4,0,1,,,,,,,,,,,,,,,,,,,,,,,,,,,,,,,,,,,,,,,,,,,,,,
029926,001,2022-11-21_24h56.57.355,Info_measure_main_exp,2022.2.2,Win32,61.2782646,,,,,,,,,,,,,,,,,,masks/mask_003.jpg,,,,,,,,,,,,,,,,,,,,,,,,,,,,,,,,,,,,,,,,,,,,,,,,0,0,0,2,1,,,,,,,,,,,,,,,,,,,,,,,,,,,,,,,,,,,,,,,,,
029926,001,2022-11-21_24h56.57.355,Info_measure_main_exp,2022.2.2,Win32,61.2782646,,,,,,,,,,,,,,,,,,masks/mask_001.jpg,,,,,,,,,,,,,,,,,,,,,,,,,,,,,,,,,,,,,,,,,,,,,,,,0,1,1,0,1,,,,,,,,,,,,,,,,,,,,,,,,,,,,,,,,,,,,,,,,,
029926,001,2022-11-21_24h56.57.355,Info_measure_main_exp,2022.2.2,Win32,61.2782646,,,,,,,,,,,,,,,,,,masks/mask_002.jpg,,,,,,,,,,,,,,,,,,,,,,,,,,,,,,,,,,,,,,,,,,,,,,,,0,2,2,1,1,,,,,,,,,,,,,,,,,,,,,,,,,,,,,,,,,,,,,,,,,
029926,001,2022-11-21_24h56.57.355,Info_measure_main_exp,2022.2.2,Win32,61.2782646,,,,,,,,,,,,,,,,,,masks/mask_005.jpg,,,,,,,,,,,,,,,,,,,,,,,,,,,,,,,,,,,,,,,,,,,,,,,,0,3,3,4,1,,,,,,,,,,,,,,,,,,,,,,,,,,,,,,,,,,,,,,,,,
029926,001,2022-11-21_24h56.57.355,Info_measure_main_exp,2022.2.2,Win32,61.2782646,,,,,,,,,,,,,,,,,,masks/mask_004.jpg,,,,,,,,,,,,,,,,,,,,,,,,,,,,,,,,,,,,,,,,,,,,,,,,0,4,4,3,1,,,,,,,,,,,,,,,,,,,,,,,,,,,,,,,,,,,,,,,,,
029926,001,2022-11-21_24h56.57.355,Info_measure_main_exp,2022.2.2,Win32,61.2782646,,,,,,,,,,,,,,,,,,,,,,,,,,,,,,6,1.1217,1,,,,,,,,,,,,0,131,5,5,2190,2214,absent_patch/patch0002190.jpg,absent_patch/patch0002214.jpg,,,,,,,,,,,,,,,,,,,,0.096354167,0.0390625,1,0,0,response1disk,5,-0.002604167,0.00390625,1,0,0,center_square,0,4,4,35,1,,,,,,,,,,,,,,,,,,,,,,,
029926,001,2022-11-21_24h56.57.355,Info_measure_main_exp,2022.2.2,Win32,61.2782646,,,,,,,,,,,,,,,,,,masks/mask_003.jpg,,,,,,,,,,,,,,,,,,,,,,,,,,,,,,,,,,,,,,,,,,,0,0,0,2,1,,,,,,,,,,,,,,,,,,,,,,,,,,,,,,,,,,,,,,,,,,,,,,
029926,001,2022-11-21_24h56.57.355,Info_measure_main_exp,2022.2.2,Win32,61.2782646,,,,,,,,,,,,,,,,,,masks/mask_001.jpg,,,,,,,,,,,,,,,,,,,,,,,,,,,,,,,,,,,,,,,,,,,0,1,1,0,1,,,,,,,,,,,,,,,,,,,,,,,,,,,,,,,,,,,,,,,,,,,,,,
029926,001,2022-11-21_24h56.57.355,Info_measure_main_exp,2022.2.2,Win32,61.2782646,,,,,,,,,,,,,,,,,,masks/mask_002.jpg,,,,,,,,,,,,,,,,,,,,,,,,,,,,,,,,,,,,,,,,,,,0,2,2,1,1,,,,,,,,,,,,,,,,,,,,,,,,,,,,,,,,,,,,,,,,,,,,,,
029926,001,2022-11-21_24h56.57.355,Info_measure_main_exp,2022.2.2,Win32,61.2782646,,,,,,,,,,,,,,,,,,masks/mask_004.jpg,,,,,,,,,,,,,,,,,,,,,,,,,,,,,,,,,,,,,,,,,,,0,3,3,3,1,,,,,,,,,,,,,,,,,,,,,,,,,,,,,,,,,,,,,,,,,,,,,,
029926,001,2022-11-21_24h56.57.355,Info_measure_main_exp,2022.2.2,Win32,61.2782646,,,,,,,,,,,,,,,,,,masks/mask_005.jpg,,,,,,,,,,,,,,,,,,,,,,,,,,,,,,,,,,,,,,,,,,,0,4,4,4,1,,,,,,,,,,,,,,,,,,,,,,,,,,,,,,,,,,,,,,,,,,,,,,
029926,001,2022-11-21_24h56.57.355,Info_measure_main_exp,2022.2.2,Win32,61.2782646,,,,,,,,,,,,,,,,,,masks/mask_003.jpg,,,,,,,,,,,,,,,,,,,,,,,,,,,,,,,,,,,,,,,,,,,,,,,,0,0,0,2,1,,,,,,,,,,,,,,,,,,,,,,,,,,,,,,,,,,,,,,,,,
029926,001,2022-11-21_24h56.57.355,Info_measure_main_exp,2022.2.2,Win32,61.2782646,,,,,,,,,,,,,,,,,,masks/mask_001.jpg,,,,,,,,,,,,,,,,,,,,,,,,,,,,,,,,,,,,,,,,,,,,,,,,0,1,1,0,1,,,,,,,,,,,,,,,,,,,,,,,,,,,,,,,,,,,,,,,,,
029926,001,2022-11-21_24h56.57.355,Info_measure_main_exp,2022.2.2,Win32,61.2782646,,,,,,,,,,,,,,,,,,masks/mask_002.jpg,,,,,,,,,,,,,,,,,,,,,,,,,,,,,,,,,,,,,,,,,,,,,,,,0,2,2,1,1,,,,,,,,,,,,,,,,,,,,,,,,,,,,,,,,,,,,,,,,,
029926,001,2022-11-21_24h56.57.355,Info_measure_main_exp,2022.2.2,Win32,61.2782646,,,,,,,,,,,,,,,,,,masks/mask_005.jpg,,,,,,,,,,,,,,,,,,,,,,,,,,,,,,,,,,,,,,,,,,,,,,,,0,3,3,4,1,,,,,,,,,,,,,,,,,,,,,,,,,,,,,,,,,,,,,,,,,
029926,001,2022-11-21_24h56.57.355,Info_measure_main_exp,2022.2.2,Win32,61.2782646,,,,,,,,,,,,,,,,,,masks/mask_004.jpg,,,,,,,,,,,,,,,,,,,,,,,,,,,,,,,,,,,,,,,,,,,,,,,,0,4,4,3,1,,,,,,,,,,,,,,,,,,,,,,,,,,,,,,,,,,,,,,,,,
029926,001,2022-11-21_24h56.57.355,Info_measure_main_exp,2022.2.2,Win32,61.2782646,,,,,,,,,,,,,,,,,,,,,,,,,,,,,,4,1.3334,1,,,,,,,,,,,,0,131,5,5,2190,2178,absent_patch/patch0002190.jpg,absent_patch/patch0002178.jpg,,,,,,,,,,,,,,,,,,,,0.036458333,-0.065104167,1,0,0,response3disk,6,-0.00390625,-0.002604167,1,0,0,center_square,0,5,5,14,1,,,,,,,,,,,,,,,,,,,,,,,
029926,001,2022-11-21_24h56.57.355,Info_measure_main_exp,2022.2.2,Win32,61.2782646,,,,,,,,,,,,,,,,,,masks/mask_004.jpg,,,,,,,,,,,,,,,,,,,,,,,,,,,,,,,,,,,,,,,,,,,0,0,0,3,1,,,,,,,,,,,,,,,,,,,,,,,,,,,,,,,,,,,,,,,,,,,,,,
029926,001,2022-11-21_24h56.57.355,Info_measure_main_exp,2022.2.2,Win32,61.2782646,,,,,,,,,,,,,,,,,,masks/mask_005.jpg,,,,,,,,,,,,,,,,,,,,,,,,,,,,,,,,,,,,,,,,,,,0,1,1,4,1,,,,,,,,,,,,,,,,,,,,,,,,,,,,,,,,,,,,,,,,,,,,,,
029926,001,2022-11-21_24h56.57.355,Info_measure_main_exp,2022.2.2,Win32,61.2782646,,,,,,,,,,,,,,,,,,masks/mask_001.jpg,,,,,,,,,,,,,,,,,,,,,,,,,,,,,,,,,,,,,,,,,,,0,2,2,0,1,,,,,,,,,,,,,,,,,,,,,,,,,,,,,,,,,,,,,,,,,,,,,,
029926,001,2022-11-21_24h56.57.355,Info_measure_main_exp,2022.2.2,Win32,61.2782646,,,,,,,,,,,,,,,,,,masks/mask_003.jpg,,,,,,,,,,,,,,,,,,,,,,,,,,,,,,,,,,,,,,,,,,,0,3,3,2,1,,,,,,,,,,,,,,,,,,,,,,,,,,,,,,,,,,,,,,,,,,,,,,
029926,001,2022-11-21_24h56.57.355,Info_measure_main_exp,2022.2.2,Win32,61.2782646,,,,,,,,,,,,,,,,,,masks/mask_002.jpg,,,,,,,,,,,,,,,,,,,,,,,,,,,,,,,,,,,,,,,,,,,0,4,4,1,1,,,,,,,,,,,,,,,,,,,,,,,,,,,,,,,,,,,,,,,,,,,,,,
029926,001,2022-11-21_24h56.57.355,Info_measure_main_exp,2022.2.2,Win32,61.2782646,,,,,,,,,,,,,,,,,,masks/mask_005.jpg,,,,,,,,,,,,,,,,,,,,,,,,,,,,,,,,,,,,,,,,,,,,,,,,0,0,0,4,1,,,,,,,,,,,,,,,,,,,,,,,,,,,,,,,,,,,,,,,,,
029926,001,2022-11-21_24h56.57.355,Info_measure_main_exp,2022.2.2,Win32,61.2782646,,,,,,,,,,,,,,,,,,masks/mask_003.jpg,,,,,,,,,,,,,,,,,,,,,,,,,,,,,,,,,,,,,,,,,,,,,,,,0,1,1,2,1,,,,,,,,,,,,,,,,,,,,,,,,,,,,,,,,,,,,,,,,,
029926,001,2022-11-21_24h56.57.355,Info_measure_main_exp,2022.2.2,Win32,61.2782646,,,,,,,,,,,,,,,,,,masks/mask_002.jpg,,,,,,,,,,,,,,,,,,,,,,,,,,,,,,,,,,,,,,,,,,,,,,,,0,2,2,1,1,,,,,,,,,,,,,,,,,,,,,,,,,,,,,,,,,,,,,,,,,
029926,001,2022-11-21_24h56.57.355,Info_measure_main_exp,2022.2.2,Win32,61.2782646,,,,,,,,,,,,,,,,,,masks/mask_001.jpg,,,,,,,,,,,,,,,,,,,,,,,,,,,,,,,,,,,,,,,,,,,,,,,,0,3,3,0,1,,,,,,,,,,,,,,,,,,,,,,,,,,,,,,,,,,,,,,,,,
029926,001,2022-11-21_24h56.57.355,Info_measure_main_exp,2022.2.2,Win32,61.2782646,,,,,,,,,,,,,,,,,,masks/mask_004.jpg,,,,,,,,,,,,,,,,,,,,,,,,,,,,,,,,,,,,,,,,,,,,,,,,0,4,4,3,1,,,,,,,,,,,,,,,,,,,,,,,,,,,,,,,,,,,,,,,,,
029926,001,2022-11-21_24h56.57.355,Info_measure_main_exp,2022.2.2,Win32,61.2782646,,,,,,,,,,,,,,,,,,,,,,,,,,,,,,6,1.0015,1,,,,,,,,,,,,0,131,5,5,2274,2082,absent_patch/patch0002274.jpg,absent_patch/patch0002082.jpg,,,,,,,,,,,,,,,,,,,,0.102864583,0.014322917,1,0,0,response1disk,7,0.00390625,0,1,0,0,center_square,0,6,6,100,1,,,,,,,,,,,,,,,,,,,,,,,
029926,001,2022-11-21_24h56.57.355,Info_measure_main_exp,2022.2.2,Win32,61.2782646,,,,,,,,,,,,,,,,,,masks/mask_001.jpg,,,,,,,,,,,,,,,,,,,,,,,,,,,,,,,,,,,,,,,,,,,0,0,0,0,1,,,,,,,,,,,,,,,,,,,,,,,,,,,,,,,,,,,,,,,,,,,,,,
029926,001,2022-11-21_24h56.57.355,Info_measure_main_exp,2022.2.2,Win32,61.2782646,,,,,,,,,,,,,,,,,,masks/mask_004.jpg,,,,,,,,,,,,,,,,,,,,,,,,,,,,,,,,,,,,,,,,,,,0,1,1,3,1,,,,,,,,,,,,,,,,,,,,,,,,,,,,,,,,,,,,,,,,,,,,,,
029926,001,2022-11-21_24h56.57.355,Info_measure_main_exp,2022.2.2,Win32,61.2782646,,,,,,,,,,,,,,,,,,masks/mask_002.jpg,,,,,,,,,,,,,,,,,,,,,,,,,,,,,,,,,,,,,,,,,,,0,2,2,1,1,,,,,,,,,,,,,,,,,,,,,,,,,,,,,,,,,,,,,,,,,,,,,,
029926,001,2022-11-21_24h56.57.355,Info_measure_main_exp,2022.2.2,Win32,61.2782646,,,,,,,,,,,,,,,,,,masks/mask_003.jpg,,,,,,,,,,,,,,,,,,,,,,,,,,,,,,,,,,,,,,,,,,,0,3,3,2,1,,,,,,,,,,,,,,,,,,,,,,,,,,,,,,,,,,,,,,,,,,,,,,
029926,001,2022-11-21_24h56.57.355,Info_measure_main_exp,2022.2.2,Win32,61.2782646,,,,,,,,,,,,,,,,,,masks/mask_005.jpg,,,,,,,,,,,,,,,,,,,,,,,,,,,,,,,,,,,,,,,,,,,0,4,4,4,1,,,,,,,,,,,,,,,,,,,,,,,,,,,,,,,,,,,,,,,,,,,,,,
029926,001,2022-11-21_24h56.57.355,Info_measure_main_exp,2022.2.2,Win32,61.2782646,,,,,,,,,,,,,,,,,,masks/mask_002.jpg,,,,,,,,,,,,,,,,,,,,,,,,,,,,,,,,,,,,,,,,,,,,,,,,0,0,0,1,1,,,,,,,,,,,,,,,,,,,,,,,,,,,,,,,,,,,,,,,,,
029926,001,2022-11-21_24h56.57.355,Info_measure_main_exp,2022.2.2,Win32,61.2782646,,,,,,,,,,,,,,,,,,masks/mask_005.jpg,,,,,,,,,,,,,,,,,,,,,,,,,,,,,,,,,,,,,,,,,,,,,,,,0,1,1,4,1,,,,,,,,,,,,,,,,,,,,,,,,,,,,,,,,,,,,,,,,,
029926,001,2022-11-21_24h56.57.355,Info_measure_main_exp,2022.2.2,Win32,61.2782646,,,,,,,,,,,,,,,,,,masks/mask_004.jpg,,,,,,,,,,,,,,,,,,,,,,,,,,,,,,,,,,,,,,,,,,,,,,,,0,2,2,3,1,,,,,,,,,,,,,,,,,,,,,,,,,,,,,,,,,,,,,,,,,
029926,001,2022-11-21_24h56.57.355,Info_measure_main_exp,2022.2.2,Win32,61.2782646,,,,,,,,,,,,,,,,,,masks/mask_003.jpg,,,,,,,,,,,,,,,,,,,,,,,,,,,,,,,,,,,,,,,,,,,,,,,,0,3,3,2,1,,,,,,,,,,,,,,,,,,,,,,,,,,,,,,,,,,,,,,,,,
029926,001,2022-11-21_24h56.57.355,Info_measure_main_exp,2022.2.2,Win32,61.2782646,,,,,,,,,,,,,,,,,,masks/mask_001.jpg,,,,,,,,,,,,,,,,,,,,,,,,,,,,,,,,,,,,,,,,,,,,,,,,0,4,4,0,1,,,,,,,,,,,,,,,,,,,,,,,,,,,,,,,,,,,,,,,,,
029926,001,2022-11-21_24h56.57.355,Info_measure_main_exp,2022.2.2,Win32,61.2782646,,,,,,,,,,,,,,,,,,,,,,,,,,,,,,6,0.7628,1,,,,,,,,,,,,0,131,5,5,2178,2142,absent_patch/patch0002178.jpg,absent_patch/patch0002142.jpg,,,,,,,,,,,,,,,,,,,,0.141927083,0.029947917,1,0,0,response1disk,8,0.006510417,-0.0078125,1,0,0,center_square,0,7,7,41,1,,,,,,,,,,,,,,,,,,,,,,,
029926,001,2022-11-21_24h56.57.355,Info_measure_main_exp,2022.2.2,Win32,61.2782646,,,,,,,,,,,,,,,,,,masks/mask_002.jpg,,,,,,,,,,,,,,,,,,,,,,,,,,,,,,,,,,,,,,,,,,,0,0,0,1,1,,,,,,,,,,,,,,,,,,,,,,,,,,,,,,,,,,,,,,,,,,,,,,
029926,001,2022-11-21_24h56.57.355,Info_measure_main_exp,2022.2.2,Win32,61.2782646,,,,,,,,,,,,,,,,,,masks/mask_005.jpg,,,,,,,,,,,,,,,,,,,,,,,,,,,,,,,,,,,,,,,,,,,0,1,1,4,1,,,,,,,,,,,,,,,,,,,,,,,,,,,,,,,,,,,,,,,,,,,,,,
029926,001,2022-11-21_24h56.57.355,Info_measure_main_exp,2022.2.2,Win32,61.2782646,,,,,,,,,,,,,,,,,,masks/mask_004.jpg,,,,,,,,,,,,,,,,,,,,,,,,,,,,,,,,,,,,,,,,,,,0,2,2,3,1,,,,,,,,,,,,,,,,,,,,,,,,,,,,,,,,,,,,,,,,,,,,,,
029926,001,2022-11-21_24h56.57.355,Info_measure_main_exp,2022.2.2,Win32,61.2782646,,,,,,,,,,,,,,,,,,masks/mask_001.jpg,,,,,,,,,,,,,,,,,,,,,,,,,,,,,,,,,,,,,,,,,,,0,3,3,0,1,,,,,,,,,,,,,,,,,,,,,,,,,,,,,,,,,,,,,,,,,,,,,,
029926,001,2022-11-21_24h56.57.355,Info_measure_main_exp,2022.2.2,Win32,61.2782646,,,,,,,,,,,,,,,,,,masks/mask_003.jpg,,,,,,,,,,,,,,,,,,,,,,,,,,,,,,,,,,,,,,,,,,,0,4,4,2,1,,,,,,,,,,,,,,,,,,,,,,,,,,,,,,,,,,,,,,,,,,,,,,
029926,001,2022-11-21_24h56.57.355,Info_measure_main_exp,2022.2.2,Win32,61.2782646,,,,,,,,,,,,,,,,,,masks/mask_005.jpg,,,,,,,,,,,,,,,,,,,,,,,,,,,,,,,,,,,,,,,,,,,,,,,,0,0,0,4,1,,,,,,,,,,,,,,,,,,,,,,,,,,,,,,,,,,,,,,,,,
029926,001,2022-11-21_24h56.57.355,Info_measure_main_exp,2022.2.2,Win32,61.2782646,,,,,,,,,,,,,,,,,,masks/mask_003.jpg,,,,,,,,,,,,,,,,,,,,,,,,,,,,,,,,,,,,,,,,,,,,,,,,0,1,1,2,1,,,,,,,,,,,,,,,,,,,,,,,,,,,,,,,,,,,,,,,,,
029926,001,2022-11-21_24h56.57.355,Info_measure_main_exp,2022.2.2,Win32,61.2782646,,,,,,,,,,,,,,,,,,masks/mask_001.jpg,,,,,,,,,,,,,,,,,,,,,,,,,,,,,,,,,,,,,,,,,,,,,,,,0,2,2,0,1,,,,,,,,,,,,,,,,,,,,,,,,,,,,,,,,,,,,,,,,,
029926,001,2022-11-21_24h56.57.355,Info_measure_main_exp,2022.2.2,Win32,61.2782646,,,,,,,,,,,,,,,,,,masks/mask_002.jpg,,,,,,,,,,,,,,,,,,,,,,,,,,,,,,,,,,,,,,,,,,,,,,,,0,3,3,1,1,,,,,,,,,,,,,,,,,,,,,,,,,,,,,,,,,,,,,,,,,
029926,001,2022-11-21_24h56.57.355,Info_measure_main_exp,2022.2.2,Win32,61.2782646,,,,,,,,,,,,,,,,,,masks/mask_004.jpg,,,,,,,,,,,,,,,,,,,,,,,,,,,,,,,,,,,,,,,,,,,,,,,,0,4,4,3,1,,,,,,,,,,,,,,,,,,,,,,,,,,,,,,,,,,,,,,,,,
029926,001,2022-11-21_24h56.57.355,Info_measure_main_exp,2022.2.2,Win32,61.2782646,,,,,,,,,,,,,,,,,,,,,,,,,,,,,,7,0.98,1,,,,,,,,,,,,1,131,5,5,2238,1,absent_patch/patch0002238.jpg,present_patch/cong_131_5_a.jpg,,,,,,,,,,,,,,,,,,,,0.079427083,0.135416667,1,0,0,response1disk,9,-0.001302083,0.001302083,1,0,0,center_square,0,8,8,104,1,,,,,,,,,,,,,,,,,,,,,,,
029926,001,2022-11-21_24h56.57.355,Info_measure_main_exp,2022.2.2,Win32,61.2782646,,,,,,,,,,,,,,,,,,masks/mask_003.jpg,,,,,,,,,,,,,,,,,,,,,,,,,,,,,,,,,,,,,,,,,,,0,0,0,2,1,,,,,,,,,,,,,,,,,,,,,,,,,,,,,,,,,,,,,,,,,,,,,,
029926,001,2022-11-21_24h56.57.355,Info_measure_main_exp,2022.2.2,Win32,61.2782646,,,,,,,,,,,,,,,,,,masks/mask_004.jpg,,,,,,,,,,,,,,,,,,,,,,,,,,,,,,,,,,,,,,,,,,,0,1,1,3,1,,,,,,,,,,,,,,,,,,,,,,,,,,,,,,,,,,,,,,,,,,,,,,
029926,001,2022-11-21_24h56.57.355,Info_measure_main_exp,2022.2.2,Win32,61.2782646,,,,,,,,,,,,,,,,,,masks/mask_005.jpg,,,,,,,,,,,,,,,,,,,,,,,,,,,,,,,,,,,,,,,,,,,0,2,2,4,1,,,,,,,,,,,,,,,,,,,,,,,,,,,,,,,,,,,,,,,,,,,,,,
029926,001,2022-11-21_24h56.57.355,Info_measure_main_exp,2022.2.2,Win32,61.2782646,,,,,,,,,,,,,,,,,,masks/mask_002.jpg,,,,,,,,,,,,,,,,,,,,,,,,,,,,,,,,,,,,,,,,,,,0,3,3,1,1,,,,,,,,,,,,,,,,,,,,,,,,,,,,,,,,,,,,,,,,,,,,,,
029926,001,2022-11-21_24h56.57.355,Info_measure_main_exp,2022.2.2,Win32,61.2782646,,,,,,,,,,,,,,,,,,masks/mask_001.jpg,,,,,,,,,,,,,,,,,,,,,,,,,,,,,,,,,,,,,,,,,,,0,4,4,0,1,,,,,,,,,,,,,,,,,,,,,,,,,,,,,,,,,,,,,,,,,,,,,,
029926,001,2022-11-21_24h56.57.355,Info_measure_main_exp,2022.2.2,Win32,61.2782646,,,,,,,,,,,,,,,,,,masks/mask_002.jpg,,,,,,,,,,,,,,,,,,,,,,,,,,,,,,,,,,,,,,,,,,,,,,,,0,0,0,1,1,,,,,,,,,,,,,,,,,,,,,,,,,,,,,,,,,,,,,,,,,
029926,001,2022-11-21_24h56.57.355,Info_measure_main_exp,2022.2.2,Win32,61.2782646,,,,,,,,,,,,,,,,,,masks/mask_003.jpg,,,,,,,,,,,,,,,,,,,,,,,,,,,,,,,,,,,,,,,,,,,,,,,,0,1,1,2,1,,,,,,,,,,,,,,,,,,,,,,,,,,,,,,,,,,,,,,,,,
029926,001,2022-11-21_24h56.57.355,Info_measure_main_exp,2022.2.2,Win32,61.2782646,,,,,,,,,,,,,,,,,,masks/mask_005.jpg,,,,,,,,,,,,,,,,,,,,,,,,,,,,,,,,,,,,,,,,,,,,,,,,0,2,2,4,1,,,,,,,,,,,,,,,,,,,,,,,,,,,,,,,,,,,,,,,,,
029926,001,2022-11-21_24h56.57.355,Info_measure_main_exp,2022.2.2,Win32,61.2782646,,,,,,,,,,,,,,,,,,masks/mask_001.jpg,,,,,,,,,,,,,,,,,,,,,,,,,,,,,,,,,,,,,,,,,,,,,,,,0,3,3,0,1,,,,,,,,,,,,,,,,,,,,,,,,,,,,,,,,,,,,,,,,,
029926,001,2022-11-21_24h56.57.355,Info_measure_main_exp,2022.2.2,Win32,61.2782646,,,,,,,,,,,,,,,,,,masks/mask_004.jpg,,,,,,,,,,,,,,,,,,,,,,,,,,,,,,,,,,,,,,,,,,,,,,,,0,4,4,3,1,,,,,,,,,,,,,,,,,,,,,,,,,,,,,,,,,,,,,,,,,
029926,001,2022-11-21_24h56.57.355,Info_measure_main_exp,2022.2.2,Win32,61.2782646,,,,,,,,,,,,,,,,,,,,,,,,,,,,,,5,0.7382,1,,,,,,,,,,,,0,131,5,5,2298,2274,absent_patch/patch0002298.jpg,absent_patch/patch0002274.jpg,,,,,,,,,,,,,,,,,,,,0.072916667,-0.010416667,1,0,0,response3disk,10,0,-0.005208333,1,0,0,center_square,0,9,9,1,1,,,,,,,,,,,,,,,,,,,,,,,
029926,001,2022-11-21_24h56.57.355,Info_measure_main_exp,2022.2.2,Win32,61.2782646,,,,,,,,,,,,,,,,,,masks/mask_002.jpg,,,,,,,,,,,,,,,,,,,,,,,,,,,,,,,,,,,,,,,,,,,0,0,0,1,1,,,,,,,,,,,,,,,,,,,,,,,,,,,,,,,,,,,,,,,,,,,,,,
029926,001,2022-11-21_24h56.57.355,Info_measure_main_exp,2022.2.2,Win32,61.2782646,,,,,,,,,,,,,,,,,,masks/mask_005.jpg,,,,,,,,,,,,,,,,,,,,,,,,,,,,,,,,,,,,,,,,,,,0,1,1,4,1,,,,,,,,,,,,,,,,,,,,,,,,,,,,,,,,,,,,,,,,,,,,,,
029926,001,2022-11-21_24h56.57.355,Info_measure_main_exp,2022.2.2,Win32,61.2782646,,,,,,,,,,,,,,,,,,masks/mask_003.jpg,,,,,,,,,,,,,,,,,,,,,,,,,,,,,,,,,,,,,,,,,,,0,2,2,2,1,,,,,,,,,,,,,,,,,,,,,,,,,,,,,,,,,,,,,,,,,,,,,,
029926,001,2022-11-21_24h56.57.355,Info_measure_main_exp,2022.2.2,Win32,61.2782646,,,,,,,,,,,,,,,,,,masks/mask_001.jpg,,,,,,,,,,,,,,,,,,,,,,,,,,,,,,,,,,,,,,,,,,,0,3,3,0,1,,,,,,,,,,,,,,,,,,,,,,,,,,,,,,,,,,,,,,,,,,,,,,
029926,001,2022-11-21_24h56.57.355,Info_measure_main_exp,2022.2.2,Win32,61.2782646,,,,,,,,,,,,,,,,,,masks/mask_004.jpg,,,,,,,,,,,,,,,,,,,,,,,,,,,,,,,,,,,,,,,,,,,0,4,4,3,1,,,,,,,,,,,,,,,,,,,,,,,,,,,,,,,,,,,,,,,,,,,,,,
029926,001,2022-11-21_24h56.57.355,Info_measure_main_exp,2022.2.2,Win32,61.2782646,,,,,,,,,,,,,,,,,,masks/mask_003.jpg,,,,,,,,,,,,,,,,,,,,,,,,,,,,,,,,,,,,,,,,,,,,,,,,0,0,0,2,1,,,,,,,,,,,,,,,,,,,,,,,,,,,,,,,,,,,,,,,,,
029926,001,2022-11-21_24h56.57.355,Info_measure_main_exp,2022.2.2,Win32,61.2782646,,,,,,,,,,,,,,,,,,masks/mask_002.jpg,,,,,,,,,,,,,,,,,,,,,,,,,,,,,,,,,,,,,,,,,,,,,,,,0,1,1,1,1,,,,,,,,,,,,,,,,,,,,,,,,,,,,,,,,,,,,,,,,,
029926,001,2022-11-21_24h56.57.355,Info_measure_main_exp,2022.2.2,Win32,61.2782646,,,,,,,,,,,,,,,,,,masks/mask_001.jpg,,,,,,,,,,,,,,,,,,,,,,,,,,,,,,,,,,,,,,,,,,,,,,,,0,2,2,0,1,,,,,,,,,,,,,,,,,,,,,,,,,,,,,,,,,,,,,,,,,
029926,001,2022-11-21_24h56.57.355,Info_measure_main_exp,2022.2.2,Win32,61.2782646,,,,,,,,,,,,,,,,,,masks/mask_005.jpg,,,,,,,,,,,,,,,,,,,,,,,,,,,,,,,,,,,,,,,,,,,,,,,,0,3,3,4,1,,,,,,,,,,,,,,,,,,,,,,,,,,,,,,,,,,,,,,,,,
029926,001,2022-11-21_24h56.57.355,Info_measure_main_exp,2022.2.2,Win32,61.2782646,,,,,,,,,,,,,,,,,,masks/mask_004.jpg,,,,,,,,,,,,,,,,,,,,,,,,,,,,,,,,,,,,,,,,,,,,,,,,0,4,4,3,1,,,,,,,,,,,,,,,,,,,,,,,,,,,,,,,,,,,,,,,,,
029926,001,2022-11-21_24h56.57.355,Info_measure_main_exp,2022.2.2,Win32,61.2782646,,,,,,,,,,,,,,,,,,,,,,,,,,,,,,6,1.1814,1,,,,,,,,,,,,1,131,5,5,1,2274,present_patch/cong_131_5_a.jpg,absent_patch/patch0002274.jpg,,,,,,,,,,,,,,,,,,,,0.100260417,0.015625,1,0,0,response1disk,11,-0.002604167,-0.001302083,1,0,0,center_square,0,10,10,105,1,,,,,,,,,,,,,,,,,,,,,,,
029926,001,2022-11-21_24h56.57.355,Info_measure_main_exp,2022.2.2,Win32,61.2782646,,,,,,,,,,,,,,,,,,masks/mask_001.jpg,,,,,,,,,,,,,,,,,,,,,,,,,,,,,,,,,,,,,,,,,,,0,0,0,0,1,,,,,,,,,,,,,,,,,,,,,,,,,,,,,,,,,,,,,,,,,,,,,,
029926,001,2022-11-21_24h56.57.355,Info_measure_main_exp,2022.2.2,Win32,61.2782646,,,,,,,,,,,,,,,,,,masks/mask_002.jpg,,,,,,,,,,,,,,,,,,,,,,,,,,,,,,,,,,,,,,,,,,,0,1,1,1,1,,,,,,,,,,,,,,,,,,,,,,,,,,,,,,,,,,,,,,,,,,,,,,
029926,001,2022-11-21_24h56.57.355,Info_measure_main_exp,2022.2.2,Win32,61.2782646,,,,,,,,,,,,,,,,,,masks/mask_003.jpg,,,,,,,,,,,,,,,,,,,,,,,,,,,,,,,,,,,,,,,,,,,0,2,2,2,1,,,,,,,,,,,,,,,,,,,,,,,,,,,,,,,,,,,,,,,,,,,,,,
029926,001,2022-11-21_24h56.57.355,Info_measure_main_exp,2022.2.2,Win32,61.2782646,,,,,,,,,,,,,,,,,,masks/mask_004.jpg,,,,,,,,,,,,,,,,,,,,,,,,,,,,,,,,,,,,,,,,,,,0,3,3,3,1,,,,,,,,,,,,,,,,,,,,,,,,,,,,,,,,,,,,,,,,,,,,,,
029926,001,2022-11-21_24h56.57.355,Info_measure_main_exp,2022.2.2,Win32,61.2782646,,,,,,,,,,,,,,,,,,masks/mask_005.jpg,,,,,,,,,,,,,,,,,,,,,,,,,,,,,,,,,,,,,,,,,,,0,4,4,4,1,,,,,,,,,,,,,,,,,,,,,,,,,,,,,,,,,,,,,,,,,,,,,,
029926,001,2022-11-21_24h56.57.355,Info_measure_main_exp,2022.2.2,Win32,61.2782646,,,,,,,,,,,,,,,,,,masks/mask_002.jpg,,,,,,,,,,,,,,,,,,,,,,,,,,,,,,,,,,,,,,,,,,,,,,,,0,0,0,1,1,,,,,,,,,,,,,,,,,,,,,,,,,,,,,,,,,,,,,,,,,
029926,001,2022-11-21_24h56.57.355,Info_measure_main_exp,2022.2.2,Win32,61.2782646,,,,,,,,,,,,,,,,,,masks/mask_004.jpg,,,,,,,,,,,,,,,,,,,,,,,,,,,,,,,,,,,,,,,,,,,,,,,,0,1,1,3,1,,,,,,,,,,,,,,,,,,,,,,,,,,,,,,,,,,,,,,,,,
029926,001,2022-11-21_24h56.57.355,Info_measure_main_exp,2022.2.2,Win32,61.2782646,,,,,,,,,,,,,,,,,,masks/mask_003.jpg,,,,,,,,,,,,,,,,,,,,,,,,,,,,,,,,,,,,,,,,,,,,,,,,0,2,2,2,1,,,,,,,,,,,,,,,,,,,,,,,,,,,,,,,,,,,,,,,,,
029926,001,2022-11-21_24h56.57.355,Info_measure_main_exp,2022.2.2,Win32,61.2782646,,,,,,,,,,,,,,,,,,masks/mask_001.jpg,,,,,,,,,,,,,,,,,,,,,,,,,,,,,,,,,,,,,,,,,,,,,,,,0,3,3,0,1,,,,,,,,,,,,,,,,,,,,,,,,,,,,,,,,,,,,,,,,,
029926,001,2022-11-21_24h56.57.355,Info_measure_main_exp,2022.2.2,Win32,61.2782646,,,,,,,,,,,,,,,,,,masks/mask_005.jpg,,,,,,,,,,,,,,,,,,,,,,,,,,,,,,,,,,,,,,,,,,,,,,,,0,4,4,4,1,,,,,,,,,,,,,,,,,,,,,,,,,,,,,,,,,,,,,,,,,
029926,001,2022-11-21_24h56.57.355,Info_measure_main_exp,2022.2.2,Win32,61.2782646,,,,,,,,,,,,,,,,,,,,,,,,,,,,,,6,0.8879,1,,,,,,,,,,,,0,131,5,5,2298,2142,absent_patch/patch0002298.jpg,absent_patch/patch0002142.jpg,,,,,,,,,,,,,,,,,,,,0.0859375,0.015625,1,0,0,response1disk,12,-0.001302083,0.006510417,1,0,0,center_square,0,11,11,49,1,,,,,,,,,,,,,,,,,,,,,,,
029926,001,2022-11-21_24h56.57.355,Info_measure_main_exp,2022.2.2,Win32,61.2782646,,,,,,,,,,,,,,,,,,masks/mask_001.jpg,,,,,,,,,,,,,,,,,,,,,,,,,,,,,,,,,,,,,,,,,,,0,0,0,0,1,,,,,,,,,,,,,,,,,,,,,,,,,,,,,,,,,,,,,,,,,,,,,,
029926,001,2022-11-21_24h56.57.355,Info_measure_main_exp,2022.2.2,Win32,61.2782646,,,,,,,,,,,,,,,,,,masks/mask_003.jpg,,,,,,,,,,,,,,,,,,,,,,,,,,,,,,,,,,,,,,,,,,,0,1,1,2,1,,,,,,,,,,,,,,,,,,,,,,,,,,,,,,,,,,,,,,,,,,,,,,
029926,001,2022-11-21_24h56.57.355,Info_measure_main_exp,2022.2.2,Win32,61.2782646,,,,,,,,,,,,,,,,,,masks/mask_002.jpg,,,,,,,,,,,,,,,,,,,,,,,,,,,,,,,,,,,,,,,,,,,0,2,2,1,1,,,,,,,,,,,,,,,,,,,,,,,,,,,,,,,,,,,,,,,,,,,,,,
029926,001,2022-11-21_24h56.57.355,Info_measure_main_exp,2022.2.2,Win32,61.2782646,,,,,,,,,,,,,,,,,,masks/mask_005.jpg,,,,,,,,,,,,,,,,,,,,,,,,,,,,,,,,,,,,,,,,,,,0,3,3,4,1,,,,,,,,,,,,,,,,,,,,,,,,,,,,,,,,,,,,,,,,,,,,,,
029926,001,2022-11-21_24h56.57.355,Info_measure_main_exp,2022.2.2,Win32,61.2782646,,,,,,,,,,,,,,,,,,masks/mask_004.jpg,,,,,,,,,,,,,,,,,,,,,,,,,,,,,,,,,,,,,,,,,,,0,4,4,3,1,,,,,,,,,,,,,,,,,,,,,,,,,,,,,,,,,,,,,,,,,,,,,,
029926,001,2022-11-21_24h56.57.355,Info_measure_main_exp,2022.2.2,Win32,61.2782646,,,,,,,,,,,,,,,,,,masks/mask_002.jpg,,,,,,,,,,,,,,,,,,,,,,,,,,,,,,,,,,,,,,,,,,,,,,,,0,0,0,1,1,,,,,,,,,,,,,,,,,,,,,,,,,,,,,,,,,,,,,,,,,
029926,001,2022-11-21_24h56.57.355,Info_measure_main_exp,2022.2.2,Win32,61.2782646,,,,,,,,,,,,,,,,,,masks/mask_004.jpg,,,,,,,,,,,,,,,,,,,,,,,,,,,,,,,,,,,,,,,,,,,,,,,,0,1,1,3,1,,,,,,,,,,,,,,,,,,,,,,,,,,,,,,,,,,,,,,,,,
029926,001,2022-11-21_24h56.57.355,Info_measure_main_exp,2022.2.2,Win32,61.2782646,,,,,,,,,,,,,,,,,,masks/mask_003.jpg,,,,,,,,,,,,,,,,,,,,,,,,,,,,,,,,,,,,,,,,,,,,,,,,0,2,2,2,1,,,,,,,,,,,,,,,,,,,,,,,,,,,,,,,,,,,,,,,,,
029926,001,2022-11-21_24h56.57.355,Info_measure_main_exp,2022.2.2,Win32,61.2782646,,,,,,,,,,,,,,,,,,masks/mask_001.jpg,,,,,,,,,,,,,,,,,,,,,,,,,,,,,,,,,,,,,,,,,,,,,,,,0,3,3,0,1,,,,,,,,,,,,,,,,,,,,,,,,,,,,,,,,,,,,,,,,,
029926,001,2022-11-21_24h56.57.355,Info_measure_main_exp,2022.2.2,Win32,61.2782646,,,,,,,,,,,,,,,,,,masks/mask_005.jpg,,,,,,,,,,,,,,,,,,,,,,,,,,,,,,,,,,,,,,,,,,,,,,,,0,4,4,4,1,,,,,,,,,,,,,,,,,,,,,,,,,,,,,,,,,,,,,,,,,
029926,001,2022-11-21_24h56.57.355,Info_measure_main_exp,2022.2.2,Win32,61.2782646,,,,,,,,,,,,,,,,,,,,,,,,,,,,,,5,0.8503,1,,,,,,,,,,,,0,131,5,5,2082,1986,absent_patch/patch0002082.jpg,absent_patch/patch0001986.jpg,,,,,,,,,,,,,,,,,,,,0.041666667,-0.024739583,1,0,0,response3disk,13,-0.002604167,-0.002604167,1,0,0,center_square,0,12,12,94,1,,,,,,,,,,,,,,,,,,,,,,,
029926,001,2022-11-21_24h56.57.355,Info_measure_main_exp,2022.2.2,Win32,61.2782646,,,,,,,,,,,,,,,,,,masks/mask_001.jpg,,,,,,,,,,,,,,,,,,,,,,,,,,,,,,,,,,,,,,,,,,,0,0,0,0,1,,,,,,,,,,,,,,,,,,,,,,,,,,,,,,,,,,,,,,,,,,,,,,
029926,001,2022-11-21_24h56.57.355,Info_measure_main_exp,2022.2.2,Win32,61.2782646,,,,,,,,,,,,,,,,,,masks/mask_003.jpg,,,,,,,,,,,,,,,,,,,,,,,,,,,,,,,,,,,,,,,,,,,0,1,1,2,1,,,,,,,,,,,,,,,,,,,,,,,,,,,,,,,,,,,,,,,,,,,,,,
029926,001,2022-11-21_24h56.57.355,Info_measure_main_exp,2022.2.2,Win32,61.2782646,,,,,,,,,,,,,,,,,,masks/mask_002.jpg,,,,,,,,,,,,,,,,,,,,,,,,,,,,,,,,,,,,,,,,,,,0,2,2,1,1,,,,,,,,,,,,,,,,,,,,,,,,,,,,,,,,,,,,,,,,,,,,,,
029926,001,2022-11-21_24h56.57.355,Info_measure_main_exp,2022.2.2,Win32,61.2782646,,,,,,,,,,,,,,,,,,masks/mask_005.jpg,,,,,,,,,,,,,,,,,,,,,,,,,,,,,,,,,,,,,,,,,,,0,3,3,4,1,,,,,,,,,,,,,,,,,,,,,,,,,,,,,,,,,,,,,,,,,,,,,,
029926,001,2022-11-21_24h56.57.355,Info_measure_main_exp,2022.2.2,Win32,61.2782646,,,,,,,,,,,,,,,,,,masks/mask_004.jpg,,,,,,,,,,,,,,,,,,,,,,,,,,,,,,,,,,,,,,,,,,,0,4,4,3,1,,,,,,,,,,,,,,,,,,,,,,,,,,,,,,,,,,,,,,,,,,,,,,
029926,001,2022-11-21_24h56.57.355,Info_measure_main_exp,2022.2.2,Win32,61.2782646,,,,,,,,,,,,,,,,,,masks/mask_002.jpg,,,,,,,,,,,,,,,,,,,,,,,,,,,,,,,,,,,,,,,,,,,,,,,,0,0,0,1,1,,,,,,,,,,,,,,,,,,,,,,,,,,,,,,,,,,,,,,,,,
029926,001,2022-11-21_24h56.57.355,Info_measure_main_exp,2022.2.2,Win32,61.2782646,,,,,,,,,,,,,,,,,,masks/mask_004.jpg,,,,,,,,,,,,,,,,,,,,,,,,,,,,,,,,,,,,,,,,,,,,,,,,0,1,1,3,1,,,,,,,,,,,,,,,,,,,,,,,,,,,,,,,,,,,,,,,,,
029926,001,2022-11-21_24h56.57.355,Info_measure_main_exp,2022.2.2,Win32,61.2782646,,,,,,,,,,,,,,,,,,masks/mask_005.jpg,,,,,,,,,,,,,,,,,,,,,,,,,,,,,,,,,,,,,,,,,,,,,,,,0,2,2,4,1,,,,,,,,,,,,,,,,,,,,,,,,,,,,,,,,,,,,,,,,,
029926,001,2022-11-21_24h56.57.355,Info_measure_main_exp,2022.2.2,Win32,61.2782646,,,,,,,,,,,,,,,,,,masks/mask_003.jpg,,,,,,,,,,,,,,,,,,,,,,,,,,,,,,,,,,,,,,,,,,,,,,,,0,3,3,2,1,,,,,,,,,,,,,,,,,,,,,,,,,,,,,,,,,,,,,,,,,
029926,001,2022-11-21_24h56.57.355,Info_measure_main_exp,2022.2.2,Win32,61.2782646,,,,,,,,,,,,,,,,,,masks/mask_001.jpg,,,,,,,,,,,,,,,,,,,,,,,,,,,,,,,,,,,,,,,,,,,,,,,,0,4,4,0,1,,,,,,,,,,,,,,,,,,,,,,,,,,,,,,,,,,,,,,,,,
029926,001,2022-11-21_24h56.57.355,Info_measure_main_exp,2022.2.2,Win32,61.2782646,,,,,,,,,,,,,,,,,,,,,,,,,,,,,,6,2.5634,1,,,,,,,,,,,,0,131,5,5,1950,2166,absent_patch/patch0001950.jpg,absent_patch/patch0002166.jpg,,,,,,,,,,,,,,,,,,,,0.122395833,0.03515625,1,0,0,response1disk,14,0.00390625,0.005208333,1,0,0,center_square,0,13,13,0,1,,,,,,,,,,,,,,,,,,,,,,,
029926,001,2022-11-21_24h56.57.355,Info_measure_main_exp,2022.2.2,Win32,61.2782646,,,,,,,,,,,,,,,,,,masks/mask_002.jpg,,,,,,,,,,,,,,,,,,,,,,,,,,,,,,,,,,,,,,,,,,,0,0,0,1,1,,,,,,,,,,,,,,,,,,,,,,,,,,,,,,,,,,,,,,,,,,,,,,
029926,001,2022-11-21_24h56.57.355,Info_measure_main_exp,2022.2.2,Win32,61.2782646,,,,,,,,,,,,,,,,,,masks/mask_004.jpg,,,,,,,,,,,,,,,,,,,,,,,,,,,,,,,,,,,,,,,,,,,0,1,1,3,1,,,,,,,,,,,,,,,,,,,,,,,,,,,,,,,,,,,,,,,,,,,,,,
029926,001,2022-11-21_24h56.57.355,Info_measure_main_exp,2022.2.2,Win32,61.2782646,,,,,,,,,,,,,,,,,,masks/mask_005.jpg,,,,,,,,,,,,,,,,,,,,,,,,,,,,,,,,,,,,,,,,,,,0,2,2,4,1,,,,,,,,,,,,,,,,,,,,,,,,,,,,,,,,,,,,,,,,,,,,,,
029926,001,2022-11-21_24h56.57.355,Info_measure_main_exp,2022.2.2,Win32,61.2782646,,,,,,,,,,,,,,,,,,masks/mask_003.jpg,,,,,,,,,,,,,,,,,,,,,,,,,,,,,,,,,,,,,,,,,,,0,3,3,2,1,,,,,,,,,,,,,,,,,,,,,,,,,,,,,,,,,,,,,,,,,,,,,,
029926,001,2022-11-21_24h56.57.355,Info_measure_main_exp,2022.2.2,Win32,61.2782646,,,,,,,,,,,,,,,,,,masks/mask_001.jpg,,,,,,,,,,,,,,,,,,,,,,,,,,,,,,,,,,,,,,,,,,,0,4,4,0,1,,,,,,,,,,,,,,,,,,,,,,,,,,,,,,,,,,,,,,,,,,,,,,
029926,001,2022-11-21_24h56.57.355,Info_measure_main_exp,2022.2.2,Win32,61.2782646,,,,,,,,,,,,,,,,,,masks/mask_003.jpg,,,,,,,,,,,,,,,,,,,,,,,,,,,,,,,,,,,,,,,,,,,,,,,,0,0,0,2,1,,,,,,,,,,,,,,,,,,,,,,,,,,,,,,,,,,,,,,,,,
029926,001,2022-11-21_24h56.57.355,Info_measure_main_exp,2022.2.2,Win32,61.2782646,,,,,,,,,,,,,,,,,,masks/mask_005.jpg,,,,,,,,,,,,,,,,,,,,,,,,,,,,,,,,,,,,,,,,,,,,,,,,0,1,1,4,1,,,,,,,,,,,,,,,,,,,,,,,,,,,,,,,,,,,,,,,,,
029926,001,2022-11-21_24h56.57.355,Info_measure_main_exp,2022.2.2,Win32,61.2782646,,,,,,,,,,,,,,,,,,masks/mask_002.jpg,,,,,,,,,,,,,,,,,,,,,,,,,,,,,,,,,,,,,,,,,,,,,,,,0,2,2,1,1,,,,,,,,,,,,,,,,,,,,,,,,,,,,,,,,,,,,,,,,,
029926,001,2022-11-21_24h56.57.355,Info_measure_main_exp,2022.2.2,Win32,61.2782646,,,,,,,,,,,,,,,,,,masks/mask_001.jpg,,,,,,,,,,,,,,,,,,,,,,,,,,,,,,,,,,,,,,,,,,,,,,,,0,3,3,0,1,,,,,,,,,,,,,,,,,,,,,,,,,,,,,,,,,,,,,,,,,
029926,001,2022-11-21_24h56.57.355,Info_measure_main_exp,2022.2.2,Win32,61.2782646,,,,,,,,,,,,,,,,,,masks/mask_004.jpg,,,,,,,,,,,,,,,,,,,,,,,,,,,,,,,,,,,,,,,,,,,,,,,,0,4,4,3,1,,,,,,,,,,,,,,,,,,,,,,,,,,,,,,,,,,,,,,,,,
029926,001,2022-11-21_24h56.57.355,Info_measure_main_exp,2022.2.2,Win32,61.2782646,,,,,,,,,,,,,,,,,,,,,,,,,,,,,,7,0.9175,1,,,,,,,,,,,,0,131,5,5,2178,2166,absent_patch/patch0002178.jpg,absent_patch/patch0002166.jpg,,,,,,,,,,,,,,,,,,,,0.03125,0.072916667,1,0,0,response1disk,15,0.002604167,-0.005208333,1,0,0,center_square,0,14,14,72,1,,,,,,,,,,,,,,,,,,,,,,,
029926,001,2022-11-21_24h56.57.355,Info_measure_main_exp,2022.2.2,Win32,61.2782646,,,,,,,,,,,,,,,,,,masks/mask_001.jpg,,,,,,,,,,,,,,,,,,,,,,,,,,,,,,,,,,,,,,,,,,,0,0,0,0,1,,,,,,,,,,,,,,,,,,,,,,,,,,,,,,,,,,,,,,,,,,,,,,
029926,001,2022-11-21_24h56.57.355,Info_measure_main_exp,2022.2.2,Win32,61.2782646,,,,,,,,,,,,,,,,,,masks/mask_003.jpg,,,,,,,,,,,,,,,,,,,,,,,,,,,,,,,,,,,,,,,,,,,0,1,1,2,1,,,,,,,,,,,,,,,,,,,,,,,,,,,,,,,,,,,,,,,,,,,,,,
029926,001,2022-11-21_24h56.57.355,Info_measure_main_exp,2022.2.2,Win32,61.2782646,,,,,,,,,,,,,,,,,,masks/mask_005.jpg,,,,,,,,,,,,,,,,,,,,,,,,,,,,,,,,,,,,,,,,,,,0,2,2,4,1,,,,,,,,,,,,,,,,,,,,,,,,,,,,,,,,,,,,,,,,,,,,,,
029926,001,2022-11-21_24h56.57.355,Info_measure_main_exp,2022.2.2,Win32,61.2782646,,,,,,,,,,,,,,,,,,masks/mask_004.jpg,,,,,,,,,,,,,,,,,,,,,,,,,,,,,,,,,,,,,,,,,,,0,3,3,3,1,,,,,,,,,,,,,,,,,,,,,,,,,,,,,,,,,,,,,,,,,,,,,,
029926,001,2022-11-21_24h56.57.355,Info_measure_main_exp,2022.2.2,Win32,61.2782646,,,,,,,,,,,,,,,,,,masks/mask_002.jpg,,,,,,,,,,,,,,,,,,,,,,,,,,,,,,,,,,,,,,,,,,,0,4,4,1,1,,,,,,,,,,,,,,,,,,,,,,,,,,,,,,,,,,,,,,,,,,,,,,
029926,001,2022-11-21_24h56.57.355,Info_measure_main_exp,2022.2.2,Win32,61.2782646,,,,,,,,,,,,,,,,,,masks/mask_003.jpg,,,,,,,,,,,,,,,,,,,,,,,,,,,,,,,,,,,,,,,,,,,,,,,,0,0,0,2,1,,,,,,,,,,,,,,,,,,,,,,,,,,,,,,,,,,,,,,,,,
029926,001,2022-11-21_24h56.57.355,Info_measure_main_exp,2022.2.2,Win32,61.2782646,,,,,,,,,,,,,,,,,,masks/mask_002.jpg,,,,,,,,,,,,,,,,,,,,,,,,,,,,,,,,,,,,,,,,,,,,,,,,0,1,1,1,1,,,,,,,,,,,,,,,,,,,,,,,,,,,,,,,,,,,,,,,,,
029926,001,2022-11-21_24h56.57.355,Info_measure_main_exp,2022.2.2,Win32,61.2782646,,,,,,,,,,,,,,,,,,masks/mask_005.jpg,,,,,,,,,,,,,,,,,,,,,,,,,,,,,,,,,,,,,,,,,,,,,,,,0,2,2,4,1,,,,,,,,,,,,,,,,,,,,,,,,,,,,,,,,,,,,,,,,,
029926,001,2022-11-21_24h56.57.355,Info_measure_main_exp,2022.2.2,Win32,61.2782646,,,,,,,,,,,,,,,,,,masks/mask_001.jpg,,,,,,,,,,,,,,,,,,,,,,,,,,,,,,,,,,,,,,,,,,,,,,,,0,3,3,0,1,,,,,,,,,,,,,,,,,,,,,,,,,,,,,,,,,,,,,,,,,
029926,001,2022-11-21_24h56.57.355,Info_measure_main_exp,2022.2.2,Win32,61.2782646,,,,,,,,,,,,,,,,,,masks/mask_004.jpg,,,,,,,,,,,,,,,,,,,,,,,,,,,,,,,,,,,,,,,,,,,,,,,,0,4,4,3,1,,,,,,,,,,,,,,,,,,,,,,,,,,,,,,,,,,,,,,,,,
029926,001,2022-11-21_24h56.57.355,Info_measure_main_exp,2022.2.2,Win32,61.2782646,,,,,,,,,,,,,,,,,,,,,,,,,,,,,,7,0.9005,1,,,,,,,,,,,,1,131,5,5,1,2214,present_patch/cong_131_5_a.jpg,absent_patch/patch0002214.jpg,,,,,,,,,,,,,,,,,,,,0.01171875,0.079427083,1,0,0,response1disk,16,0.00390625,0.001302083,1,0,0,center_square,0,15,15,4,1,,,,,,,,,,,,,,,,,,,,,,,
029926,001,2022-11-21_24h56.57.355,Info_measure_main_exp,2022.2.2,Win32,61.2782646,,,,,,,,,,,,,,,,,,masks/mask_003.jpg,,,,,,,,,,,,,,,,,,,,,,,,,,,,,,,,,,,,,,,,,,,0,0,0,2,1,,,,,,,,,,,,,,,,,,,,,,,,,,,,,,,,,,,,,,,,,,,,,,
029926,001,2022-11-21_24h56.57.355,Info_measure_main_exp,2022.2.2,Win32,61.2782646,,,,,,,,,,,,,,,,,,masks/mask_004.jpg,,,,,,,,,,,,,,,,,,,,,,,,,,,,,,,,,,,,,,,,,,,0,1,1,3,1,,,,,,,,,,,,,,,,,,,,,,,,,,,,,,,,,,,,,,,,,,,,,,
029926,001,2022-11-21_24h56.57.355,Info_measure_main_exp,2022.2.2,Win32,61.2782646,,,,,,,,,,,,,,,,,,masks/mask_005.jpg,,,,,,,,,,,,,,,,,,,,,,,,,,,,,,,,,,,,,,,,,,,0,2,2,4,1,,,,,,,,,,,,,,,,,,,,,,,,,,,,,,,,,,,,,,,,,,,,,,
029926,001,2022-11-21_24h56.57.355,Info_measure_main_exp,2022.2.2,Win32,61.2782646,,,,,,,,,,,,,,,,,,masks/mask_001.jpg,,,,,,,,,,,,,,,,,,,,,,,,,,,,,,,,,,,,,,,,,,,0,3,3,0,1,,,,,,,,,,,,,,,,,,,,,,,,,,,,,,,,,,,,,,,,,,,,,,
029926,001,2022-11-21_24h56.57.355,Info_measure_main_exp,2022.2.2,Win32,61.2782646,,,,,,,,,,,,,,,,,,masks/mask_002.jpg,,,,,,,,,,,,,,,,,,,,,,,,,,,,,,,,,,,,,,,,,,,0,4,4,1,1,,,,,,,,,,,,,,,,,,,,,,,,,,,,,,,,,,,,,,,,,,,,,,
029926,001,2022-11-21_24h56.57.355,Info_measure_main_exp,2022.2.2,Win32,61.2782646,,,,,,,,,,,,,,,,,,masks/mask_005.jpg,,,,,,,,,,,,,,,,,,,,,,,,,,,,,,,,,,,,,,,,,,,,,,,,0,0,0,4,1,,,,,,,,,,,,,,,,,,,,,,,,,,,,,,,,,,,,,,,,,
029926,001,2022-11-21_24h56.57.355,Info_measure_main_exp,2022.2.2,Win32,61.2782646,,,,,,,,,,,,,,,,,,masks/mask_003.jpg,,,,,,,,,,,,,,,,,,,,,,,,,,,,,,,,,,,,,,,,,,,,,,,,0,1,1,2,1,,,,,,,,,,,,,,,,,,,,,,,,,,,,,,,,,,,,,,,,,
029926,001,2022-11-21_24h56.57.355,Info_measure_main_exp,2022.2.2,Win32,61.2782646,,,,,,,,,,,,,,,,,,masks/mask_001.jpg,,,,,,,,,,,,,,,,,,,,,,,,,,,,,,,,,,,,,,,,,,,,,,,,0,2,2,0,1,,,,,,,,,,,,,,,,,,,,,,,,,,,,,,,,,,,,,,,,,
029926,001,2022-11-21_24h56.57.355,Info_measure_main_exp,2022.2.2,Win32,61.2782646,,,,,,,,,,,,,,,,,,masks/mask_002.jpg,,,,,,,,,,,,,,,,,,,,,,,,,,,,,,,,,,,,,,,,,,,,,,,,0,3,3,1,1,,,,,,,,,,,,,,,,,,,,,,,,,,,,,,,,,,,,,,,,,
029926,001,2022-11-21_24h56.57.355,Info_measure_main_exp,2022.2.2,Win32,61.2782646,,,,,,,,,,,,,,,,,,masks/mask_004.jpg,,,,,,,,,,,,,,,,,,,,,,,,,,,,,,,,,,,,,,,,,,,,,,,,0,4,4,3,1,,,,,,,,,,,,,,,,,,,,,,,,,,,,,,,,,,,,,,,,,
029926,001,2022-11-21_24h56.57.355,Info_measure_main_exp,2022.2.2,Win32,61.2782646,,,,,,,,,,,,,,,,,,,,,,,,,,,,,,1,1.0674,1,,,,,,,,,,,,0,131,5,5,1974,1950,absent_patch/patch0001974.jpg,absent_patch/patch0001950.jpg,,,,,,,,,,,,,,,,,,,,-0.059895833,0.0390625,1,0,0,response7disk,17,0,-0.005208333,1,0,0,center_square,0,16,16,17,1,,,,,,,,,,,,,,,,,,,,,,,
029926,001,2022-11-21_24h56.57.355,Info_measure_main_exp,2022.2.2,Win32,61.2782646,,,,,,,,,,,,,,,,,,masks/mask_005.jpg,,,,,,,,,,,,,,,,,,,,,,,,,,,,,,,,,,,,,,,,,,,0,0,0,4,1,,,,,,,,,,,,,,,,,,,,,,,,,,,,,,,,,,,,,,,,,,,,,,
029926,001,2022-11-21_24h56.57.355,Info_measure_main_exp,2022.2.2,Win32,61.2782646,,,,,,,,,,,,,,,,,,masks/mask_002.jpg,,,,,,,,,,,,,,,,,,,,,,,,,,,,,,,,,,,,,,,,,,,0,1,1,1,1,,,,,,,,,,,,,,,,,,,,,,,,,,,,,,,,,,,,,,,,,,,,,,
029926,001,2022-11-21_24h56.57.355,Info_measure_main_exp,2022.2.2,Win32,61.2782646,,,,,,,,,,,,,,,,,,masks/mask_001.jpg,,,,,,,,,,,,,,,,,,,,,,,,,,,,,,,,,,,,,,,,,,,0,2,2,0,1,,,,,,,,,,,,,,,,,,,,,,,,,,,,,,,,,,,,,,,,,,,,,,
029926,001,2022-11-21_24h56.57.355,Info_measure_main_exp,2022.2.2,Win32,61.2782646,,,,,,,,,,,,,,,,,,masks/mask_004.jpg,,,,,,,,,,,,,,,,,,,,,,,,,,,,,,,,,,,,,,,,,,,0,3,3,3,1,,,,,,,,,,,,,,,,,,,,,,,,,,,,,,,,,,,,,,,,,,,,,,
029926,001,2022-11-21_24h56.57.355,Info_measure_main_exp,2022.2.2,Win32,61.2782646,,,,,,,,,,,,,,,,,,masks/mask_003.jpg,,,,,,,,,,,,,,,,,,,,,,,,,,,,,,,,,,,,,,,,,,,0,4,4,2,1,,,,,,,,,,,,,,,,,,,,,,,,,,,,,,,,,,,,,,,,,,,,,,
029926,001,2022-11-21_24h56.57.355,Info_measure_main_exp,2022.2.2,Win32,61.2782646,,,,,,,,,,,,,,,,,,masks/mask_005.jpg,,,,,,,,,,,,,,,,,,,,,,,,,,,,,,,,,,,,,,,,,,,,,,,,0,0,0,4,1,,,,,,,,,,,,,,,,,,,,,,,,,,,,,,,,,,,,,,,,,
029926,001,2022-11-21_24h56.57.355,Info_measure_main_exp,2022.2.2,Win32,61.2782646,,,,,,,,,,,,,,,,,,masks/mask_004.jpg,,,,,,,,,,,,,,,,,,,,,,,,,,,,,,,,,,,,,,,,,,,,,,,,0,1,1,3,1,,,,,,,,,,,,,,,,,,,,,,,,,,,,,,,,,,,,,,,,,
029926,001,2022-11-21_24h56.57.355,Info_measure_main_exp,2022.2.2,Win32,61.2782646,,,,,,,,,,,,,,,,,,masks/mask_001.jpg,,,,,,,,,,,,,,,,,,,,,,,,,,,,,,,,,,,,,,,,,,,,,,,,0,2,2,0,1,,,,,,,,,,,,,,,,,,,,,,,,,,,,,,,,,,,,,,,,,
029926,001,2022-11-21_24h56.57.355,Info_measure_main_exp,2022.2.2,Win32,61.2782646,,,,,,,,,,,,,,,,,,masks/mask_003.jpg,,,,,,,,,,,,,,,,,,,,,,,,,,,,,,,,,,,,,,,,,,,,,,,,0,3,3,2,1,,,,,,,,,,,,,,,,,,,,,,,,,,,,,,,,,,,,,,,,,
029926,001,2022-11-21_24h56.57.355,Info_measure_main_exp,2022.2.2,Win32,61.2782646,,,,,,,,,,,,,,,,,,masks/mask_002.jpg,,,,,,,,,,,,,,,,,,,,,,,,,,,,,,,,,,,,,,,,,,,,,,,,0,4,4,1,1,,,,,,,,,,,,,,,,,,,,,,,,,,,,,,,,,,,,,,,,,
029926,001,2022-11-21_24h56.57.355,Info_measure_main_exp,2022.2.2,Win32,61.2782646,,,,,,,,,,,,,,,,,,,,,,,,,,,,,,5,1.0182,1,,,,,,,,,,,,1,131,5,5,1,2142,present_patch/cong_131_5_a.jpg,absent_patch/patch0002142.jpg,,,,,,,,,,,,,,,,,,,,0.026041667,-0.013020833,1,0,0,response3disk,18,-0.002604167,0,1,0,0,center_square,0,17,17,80,1,,,,,,,,,,,,,,,,,,,,,,,
029926,001,2022-11-21_24h56.57.355,Info_measure_main_exp,2022.2.2,Win32,61.2782646,,,,,,,,,,,,,,,,,,masks/mask_002.jpg,,,,,,,,,,,,,,,,,,,,,,,,,,,,,,,,,,,,,,,,,,,0,0,0,1,1,,,,,,,,,,,,,,,,,,,,,,,,,,,,,,,,,,,,,,,,,,,,,,
029926,001,2022-11-21_24h56.57.355,Info_measure_main_exp,2022.2.2,Win32,61.2782646,,,,,,,,,,,,,,,,,,masks/mask_003.jpg,,,,,,,,,,,,,,,,,,,,,,,,,,,,,,,,,,,,,,,,,,,0,1,1,2,1,,,,,,,,,,,,,,,,,,,,,,,,,,,,,,,,,,,,,,,,,,,,,,
029926,001,2022-11-21_24h56.57.355,Info_measure_main_exp,2022.2.2,Win32,61.2782646,,,,,,,,,,,,,,,,,,masks/mask_005.jpg,,,,,,,,,,,,,,,,,,,,,,,,,,,,,,,,,,,,,,,,,,,0,2,2,4,1,,,,,,,,,,,,,,,,,,,,,,,,,,,,,,,,,,,,,,,,,,,,,,
029926,001,2022-11-21_24h56.57.355,Info_measure_main_exp,2022.2.2,Win32,61.2782646,,,,,,,,,,,,,,,,,,masks/mask_004.jpg,,,,,,,,,,,,,,,,,,,,,,,,,,,,,,,,,,,,,,,,,,,0,3,3,3,1,,,,,,,,,,,,,,,,,,,,,,,,,,,,,,,,,,,,,,,,,,,,,,
029926,001,2022-11-21_24h56.57.355,Info_measure_main_exp,2022.2.2,Win32,61.2782646,,,,,,,,,,,,,,,,,,masks/mask_001.jpg,,,,,,,,,,,,,,,,,,,,,,,,,,,,,,,,,,,,,,,,,,,0,4,4,0,1,,,,,,,,,,,,,,,,,,,,,,,,,,,,,,,,,,,,,,,,,,,,,,
029926,001,2022-11-21_24h56.57.355,Info_measure_main_exp,2022.2.2,Win32,61.2782646,,,,,,,,,,,,,,,,,,masks/mask_005.jpg,,,,,,,,,,,,,,,,,,,,,,,,,,,,,,,,,,,,,,,,,,,,,,,,0,0,0,4,1,,,,,,,,,,,,,,,,,,,,,,,,,,,,,,,,,,,,,,,,,
029926,001,2022-11-21_24h56.57.355,Info_measure_main_exp,2022.2.2,Win32,61.2782646,,,,,,,,,,,,,,,,,,masks/mask_004.jpg,,,,,,,,,,,,,,,,,,,,,,,,,,,,,,,,,,,,,,,,,,,,,,,,0,1,1,3,1,,,,,,,,,,,,,,,,,,,,,,,,,,,,,,,,,,,,,,,,,
029926,001,2022-11-21_24h56.57.355,Info_measure_main_exp,2022.2.2,Win32,61.2782646,,,,,,,,,,,,,,,,,,masks/mask_002.jpg,,,,,,,,,,,,,,,,,,,,,,,,,,,,,,,,,,,,,,,,,,,,,,,,0,2,2,1,1,,,,,,,,,,,,,,,,,,,,,,,,,,,,,,,,,,,,,,,,,
029926,001,2022-11-21_24h56.57.355,Info_measure_main_exp,2022.2.2,Win32,61.2782646,,,,,,,,,,,,,,,,,,masks/mask_001.jpg,,,,,,,,,,,,,,,,,,,,,,,,,,,,,,,,,,,,,,,,,,,,,,,,0,3,3,0,1,,,,,,,,,,,,,,,,,,,,,,,,,,,,,,,,,,,,,,,,,
029926,001,2022-11-21_24h56.57.355,Info_measure_main_exp,2022.2.2,Win32,61.2782646,,,,,,,,,,,,,,,,,,masks/mask_003.jpg,,,,,,,,,,,,,,,,,,,,,,,,,,,,,,,,,,,,,,,,,,,,,,,,0,4,4,2,1,,,,,,,,,,,,,,,,,,,,,,,,,,,,,,,,,,,,,,,,,
029926,001,2022-11-21_24h56.57.355,Info_measure_main_exp,2022.2.2,Win32,61.2782646,,,,,,,,,,,,,,,,,,,,,,,,,,,,,,7,0.7941,1,,,,,,,,,,,,1,131,5,5,2298,1,absent_patch/patch0002298.jpg,present_patch/cong_131_5_a.jpg,,,,,,,,,,,,,,,,,,,,0.016927083,0.06640625,1,0,0,response1disk,19,0.005208333,-0.001302083,1,0,0,center_square,0,18,18,45,1,,,,,,,,,,,,,,,,,,,,,,,
029926,001,2022-11-21_24h56.57.355,Info_measure_main_exp,2022.2.2,Win32,61.2782646,,,,,,,,,,,,,,,,,,masks/mask_004.jpg,,,,,,,,,,,,,,,,,,,,,,,,,,,,,,,,,,,,,,,,,,,0,0,0,3,1,,,,,,,,,,,,,,,,,,,,,,,,,,,,,,,,,,,,,,,,,,,,,,
029926,001,2022-11-21_24h56.57.355,Info_measure_main_exp,2022.2.2,Win32,61.2782646,,,,,,,,,,,,,,,,,,masks/mask_001.jpg,,,,,,,,,,,,,,,,,,,,,,,,,,,,,,,,,,,,,,,,,,,0,1,1,0,1,,,,,,,,,,,,,,,,,,,,,,,,,,,,,,,,,,,,,,,,,,,,,,
029926,001,2022-11-21_24h56.57.355,Info_measure_main_exp,2022.2.2,Win32,61.2782646,,,,,,,,,,,,,,,,,,masks/mask_002.jpg,,,,,,,,,,,,,,,,,,,,,,,,,,,,,,,,,,,,,,,,,,,0,2,2,1,1,,,,,,,,,,,,,,,,,,,,,,,,,,,,,,,,,,,,,,,,,,,,,,
029926,001,2022-11-21_24h56.57.355,Info_measure_main_exp,2022.2.2,Win32,61.2782646,,,,,,,,,,,,,,,,,,masks/mask_003.jpg,,,,,,,,,,,,,,,,,,,,,,,,,,,,,,,,,,,,,,,,,,,0,3,3,2,1,,,,,,,,,,,,,,,,,,,,,,,,,,,,,,,,,,,,,,,,,,,,,,
029926,001,2022-11-21_24h56.57.355,Info_measure_main_exp,2022.2.2,Win32,61.2782646,,,,,,,,,,,,,,,,,,masks/mask_005.jpg,,,,,,,,,,,,,,,,,,,,,,,,,,,,,,,,,,,,,,,,,,,0,4,4,4,1,,,,,,,,,,,,,,,,,,,,,,,,,,,,,,,,,,,,,,,,,,,,,,
029926,001,2022-11-21_24h56.57.355,Info_measure_main_exp,2022.2.2,Win32,61.2782646,,,,,,,,,,,,,,,,,,masks/mask_001.jpg,,,,,,,,,,,,,,,,,,,,,,,,,,,,,,,,,,,,,,,,,,,,,,,,0,0,0,0,1,,,,,,,,,,,,,,,,,,,,,,,,,,,,,,,,,,,,,,,,,
029926,001,2022-11-21_24h56.57.355,Info_measure_main_exp,2022.2.2,Win32,61.2782646,,,,,,,,,,,,,,,,,,masks/mask_005.jpg,,,,,,,,,,,,,,,,,,,,,,,,,,,,,,,,,,,,,,,,,,,,,,,,0,1,1,4,1,,,,,,,,,,,,,,,,,,,,,,,,,,,,,,,,,,,,,,,,,
029926,001,2022-11-21_24h56.57.355,Info_measure_main_exp,2022.2.2,Win32,61.2782646,,,,,,,,,,,,,,,,,,masks/mask_003.jpg,,,,,,,,,,,,,,,,,,,,,,,,,,,,,,,,,,,,,,,,,,,,,,,,0,2,2,2,1,,,,,,,,,,,,,,,,,,,,,,,,,,,,,,,,,,,,,,,,,
029926,001,2022-11-21_24h56.57.355,Info_measure_main_exp,2022.2.2,Win32,61.2782646,,,,,,,,,,,,,,,,,,masks/mask_004.jpg,,,,,,,,,,,,,,,,,,,,,,,,,,,,,,,,,,,,,,,,,,,,,,,,0,3,3,3,1,,,,,,,,,,,,,,,,,,,,,,,,,,,,,,,,,,,,,,,,,
029926,001,2022-11-21_24h56.57.355,Info_measure_main_exp,2022.2.2,Win32,61.2782646,,,,,,,,,,,,,,,,,,masks/mask_002.jpg,,,,,,,,,,,,,,,,,,,,,,,,,,,,,,,,,,,,,,,,,,,,,,,,0,4,4,1,1,,,,,,,,,,,,,,,,,,,,,,,,,,,,,,,,,,,,,,,,,
029926,001,2022-11-21_24h56.57.355,Info_measure_main_exp,2022.2.2,Win32,61.2782646,,,,,,,,,,,,,,,,,,,,,,,,,,,,,,6,1.088,1,,,,,,,,,,,,0,131,5,5,2250,2298,absent_patch/patch0002250.jpg,absent_patch/patch0002298.jpg,,,,,,,,,,,,,,,,,,,,0.102864583,0.049479167,1,0,0,response1disk,20,-0.005208333,0.002604167,1,0,0,center_square,0,19,19,59,1,,,,,,,,,,,,,,,,,,,,,,,
029926,001,2022-11-21_24h56.57.355,Info_measure_main_exp,2022.2.2,Win32,61.2782646,,,,,,,,,,,,,,,,,,masks/mask_001.jpg,,,,,,,,,,,,,,,,,,,,,,,,,,,,,,,,,,,,,,,,,,,0,0,0,0,1,,,,,,,,,,,,,,,,,,,,,,,,,,,,,,,,,,,,,,,,,,,,,,
029926,001,2022-11-21_24h56.57.355,Info_measure_main_exp,2022.2.2,Win32,61.2782646,,,,,,,,,,,,,,,,,,masks/mask_005.jpg,,,,,,,,,,,,,,,,,,,,,,,,,,,,,,,,,,,,,,,,,,,0,1,1,4,1,,,,,,,,,,,,,,,,,,,,,,,,,,,,,,,,,,,,,,,,,,,,,,
029926,001,2022-11-21_24h56.57.355,Info_measure_main_exp,2022.2.2,Win32,61.2782646,,,,,,,,,,,,,,,,,,masks/mask_003.jpg,,,,,,,,,,,,,,,,,,,,,,,,,,,,,,,,,,,,,,,,,,,0,2,2,2,1,,,,,,,,,,,,,,,,,,,,,,,,,,,,,,,,,,,,,,,,,,,,,,
029926,001,2022-11-21_24h56.57.355,Info_measure_main_exp,2022.2.2,Win32,61.2782646,,,,,,,,,,,,,,,,,,masks/mask_004.jpg,,,,,,,,,,,,,,,,,,,,,,,,,,,,,,,,,,,,,,,,,,,0,3,3,3,1,,,,,,,,,,,,,,,,,,,,,,,,,,,,,,,,,,,,,,,,,,,,,,
029926,001,2022-11-21_24h56.57.355,Info_measure_main_exp,2022.2.2,Win32,61.2782646,,,,,,,,,,,,,,,,,,masks/mask_002.jpg,,,,,,,,,,,,,,,,,,,,,,,,,,,,,,,,,,,,,,,,,,,0,4,4,1,1,,,,,,,,,,,,,,,,,,,,,,,,,,,,,,,,,,,,,,,,,,,,,,
029926,001,2022-11-21_24h56.57.355,Info_measure_main_exp,2022.2.2,Win32,61.2782646,,,,,,,,,,,,,,,,,,masks/mask_005.jpg,,,,,,,,,,,,,,,,,,,,,,,,,,,,,,,,,,,,,,,,,,,,,,,,0,0,0,4,1,,,,,,,,,,,,,,,,,,,,,,,,,,,,,,,,,,,,,,,,,
029926,001,2022-11-21_24h56.57.355,Info_measure_main_exp,2022.2.2,Win32,61.2782646,,,,,,,,,,,,,,,,,,masks/mask_004.jpg,,,,,,,,,,,,,,,,,,,,,,,,,,,,,,,,,,,,,,,,,,,,,,,,0,1,1,3,1,,,,,,,,,,,,,,,,,,,,,,,,,,,,,,,,,,,,,,,,,
029926,001,2022-11-21_24h56.57.355,Info_measure_main_exp,2022.2.2,Win32,61.2782646,,,,,,,,,,,,,,,,,,masks/mask_003.jpg,,,,,,,,,,,,,,,,,,,,,,,,,,,,,,,,,,,,,,,,,,,,,,,,0,2,2,2,1,,,,,,,,,,,,,,,,,,,,,,,,,,,,,,,,,,,,,,,,,
029926,001,2022-11-21_24h56.57.355,Info_measure_main_exp,2022.2.2,Win32,61.2782646,,,,,,,,,,,,,,,,,,masks/mask_002.jpg,,,,,,,,,,,,,,,,,,,,,,,,,,,,,,,,,,,,,,,,,,,,,,,,0,3,3,1,1,,,,,,,,,,,,,,,,,,,,,,,,,,,,,,,,,,,,,,,,,
029926,001,2022-11-21_24h56.57.355,Info_measure_main_exp,2022.2.2,Win32,61.2782646,,,,,,,,,,,,,,,,,,masks/mask_001.jpg,,,,,,,,,,,,,,,,,,,,,,,,,,,,,,,,,,,,,,,,,,,,,,,,0,4,4,0,1,,,,,,,,,,,,,,,,,,,,,,,,,,,,,,,,,,,,,,,,,
029926,001,2022-11-21_24h56.57.355,Info_measure_main_exp,2022.2.2,Win32,61.2782646,,,,,,,,,,,,,,,,,,,,,,,,,,,,,,7,0.7726,1,,,,,,,,,,,,0,131,5,5,1986,1950,absent_patch/patch0001986.jpg,absent_patch/patch0001950.jpg,,,,,,,,,,,,,,,,,,,,0.048177083,0.12109375,1,0,0,response1disk,21,0.002604167,0.006510417,1,0,0,center_square,0,20,20,15,1,,,,,,,,,,,,,,,,,,,,,,,
029926,001,2022-11-21_24h56.57.355,Info_measure_main_exp,2022.2.2,Win32,61.2782646,,,,,,,,,,,,,,,,,,masks/mask_003.jpg,,,,,,,,,,,,,,,,,,,,,,,,,,,,,,,,,,,,,,,,,,,0,0,0,2,1,,,,,,,,,,,,,,,,,,,,,,,,,,,,,,,,,,,,,,,,,,,,,,
029926,001,2022-11-21_24h56.57.355,Info_measure_main_exp,2022.2.2,Win32,61.2782646,,,,,,,,,,,,,,,,,,masks/mask_002.jpg,,,,,,,,,,,,,,,,,,,,,,,,,,,,,,,,,,,,,,,,,,,0,1,1,1,1,,,,,,,,,,,,,,,,,,,,,,,,,,,,,,,,,,,,,,,,,,,,,,
029926,001,2022-11-21_24h56.57.355,Info_measure_main_exp,2022.2.2,Win32,61.2782646,,,,,,,,,,,,,,,,,,masks/mask_001.jpg,,,,,,,,,,,,,,,,,,,,,,,,,,,,,,,,,,,,,,,,,,,0,2,2,0,1,,,,,,,,,,,,,,,,,,,,,,,,,,,,,,,,,,,,,,,,,,,,,,
029926,001,2022-11-21_24h56.57.355,Info_measure_main_exp,2022.2.2,Win32,61.2782646,,,,,,,,,,,,,,,,,,masks/mask_005.jpg,,,,,,,,,,,,,,,,,,,,,,,,,,,,,,,,,,,,,,,,,,,0,3,3,4,1,,,,,,,,,,,,,,,,,,,,,,,,,,,,,,,,,,,,,,,,,,,,,,
029926,001,2022-11-21_24h56.57.355,Info_measure_main_exp,2022.2.2,Win32,61.2782646,,,,,,,,,,,,,,,,,,masks/mask_004.jpg,,,,,,,,,,,,,,,,,,,,,,,,,,,,,,,,,,,,,,,,,,,0,4,4,3,1,,,,,,,,,,,,,,,,,,,,,,,,,,,,,,,,,,,,,,,,,,,,,,
029926,001,2022-11-21_24h56.57.355,Info_measure_main_exp,2022.2.2,Win32,61.2782646,,,,,,,,,,,,,,,,,,masks/mask_002.jpg,,,,,,,,,,,,,,,,,,,,,,,,,,,,,,,,,,,,,,,,,,,,,,,,0,0,0,1,1,,,,,,,,,,,,,,,,,,,,,,,,,,,,,,,,,,,,,,,,,
029926,001,2022-11-21_24h56.57.355,Info_measure_main_exp,2022.2.2,Win32,61.2782646,,,,,,,,,,,,,,,,,,masks/mask_004.jpg,,,,,,,,,,,,,,,,,,,,,,,,,,,,,,,,,,,,,,,,,,,,,,,,0,1,1,3,1,,,,,,,,,,,,,,,,,,,,,,,,,,,,,,,,,,,,,,,,,
029926,001,2022-11-21_24h56.57.355,Info_measure_main_exp,2022.2.2,Win32,61.2782646,,,,,,,,,,,,,,,,,,masks/mask_003.jpg,,,,,,,,,,,,,,,,,,,,,,,,,,,,,,,,,,,,,,,,,,,,,,,,0,2,2,2,1,,,,,,,,,,,,,,,,,,,,,,,,,,,,,,,,,,,,,,,,,
029926,001,2022-11-21_24h56.57.355,Info_measure_main_exp,2022.2.2,Win32,61.2782646,,,,,,,,,,,,,,,,,,masks/mask_001.jpg,,,,,,,,,,,,,,,,,,,,,,,,,,,,,,,,,,,,,,,,,,,,,,,,0,3,3,0,1,,,,,,,,,,,,,,,,,,,,,,,,,,,,,,,,,,,,,,,,,
029926,001,2022-11-21_24h56.57.355,Info_measure_main_exp,2022.2.2,Win32,61.2782646,,,,,,,,,,,,,,,,,,masks/mask_005.jpg,,,,,,,,,,,,,,,,,,,,,,,,,,,,,,,,,,,,,,,,,,,,,,,,0,4,4,4,1,,,,,,,,,,,,,,,,,,,,,,,,,,,,,,,,,,,,,,,,,
029926,001,2022-11-21_24h56.57.355,Info_measure_main_exp,2022.2.2,Win32,61.2782646,,,,,,,,,,,,,,,,,,,,,,,,,,,,,,7,0.7841,1,,,,,,,,,,,,0,131,5,5,2214,2178,absent_patch/patch0002214.jpg,absent_patch/patch0002178.jpg,,,,,,,,,,,,,,,,,,,,0.04296875,0.114583333,1,0,0,response1disk,22,0.002604167,0.002604167,1,0,0,center_square,0,21,21,62,1,,,,,,,,,,,,,,,,,,,,,,,
029926,001,2022-11-21_24h56.57.355,Info_measure_main_exp,2022.2.2,Win32,61.2782646,,,,,,,,,,,,,,,,,,masks/mask_003.jpg,,,,,,,,,,,,,,,,,,,,,,,,,,,,,,,,,,,,,,,,,,,0,0,0,2,1,,,,,,,,,,,,,,,,,,,,,,,,,,,,,,,,,,,,,,,,,,,,,,
029926,001,2022-11-21_24h56.57.355,Info_measure_main_exp,2022.2.2,Win32,61.2782646,,,,,,,,,,,,,,,,,,masks/mask_004.jpg,,,,,,,,,,,,,,,,,,,,,,,,,,,,,,,,,,,,,,,,,,,0,1,1,3,1,,,,,,,,,,,,,,,,,,,,,,,,,,,,,,,,,,,,,,,,,,,,,,
029926,001,2022-11-21_24h56.57.355,Info_measure_main_exp,2022.2.2,Win32,61.2782646,,,,,,,,,,,,,,,,,,masks/mask_001.jpg,,,,,,,,,,,,,,,,,,,,,,,,,,,,,,,,,,,,,,,,,,,0,2,2,0,1,,,,,,,,,,,,,,,,,,,,,,,,,,,,,,,,,,,,,,,,,,,,,,
029926,001,2022-11-21_24h56.57.355,Info_measure_main_exp,2022.2.2,Win32,61.2782646,,,,,,,,,,,,,,,,,,masks/mask_002.jpg,,,,,,,,,,,,,,,,,,,,,,,,,,,,,,,,,,,,,,,,,,,0,3,3,1,1,,,,,,,,,,,,,,,,,,,,,,,,,,,,,,,,,,,,,,,,,,,,,,
029926,001,2022-11-21_24h56.57.355,Info_measure_main_exp,2022.2.2,Win32,61.2782646,,,,,,,,,,,,,,,,,,masks/mask_005.jpg,,,,,,,,,,,,,,,,,,,,,,,,,,,,,,,,,,,,,,,,,,,0,4,4,4,1,,,,,,,,,,,,,,,,,,,,,,,,,,,,,,,,,,,,,,,,,,,,,,
029926,001,2022-11-21_24h56.57.355,Info_measure_main_exp,2022.2.2,Win32,61.2782646,,,,,,,,,,,,,,,,,,masks/mask_005.jpg,,,,,,,,,,,,,,,,,,,,,,,,,,,,,,,,,,,,,,,,,,,,,,,,0,0,0,4,1,,,,,,,,,,,,,,,,,,,,,,,,,,,,,,,,,,,,,,,,,
029926,001,2022-11-21_24h56.57.355,Info_measure_main_exp,2022.2.2,Win32,61.2782646,,,,,,,,,,,,,,,,,,masks/mask_002.jpg,,,,,,,,,,,,,,,,,,,,,,,,,,,,,,,,,,,,,,,,,,,,,,,,0,1,1,1,1,,,,,,,,,,,,,,,,,,,,,,,,,,,,,,,,,,,,,,,,,
029926,001,2022-11-21_24h56.57.355,Info_measure_main_exp,2022.2.2,Win32,61.2782646,,,,,,,,,,,,,,,,,,masks/mask_003.jpg,,,,,,,,,,,,,,,,,,,,,,,,,,,,,,,,,,,,,,,,,,,,,,,,0,2,2,2,1,,,,,,,,,,,,,,,,,,,,,,,,,,,,,,,,,,,,,,,,,
029926,001,2022-11-21_24h56.57.355,Info_measure_main_exp,2022.2.2,Win32,61.2782646,,,,,,,,,,,,,,,,,,masks/mask_001.jpg,,,,,,,,,,,,,,,,,,,,,,,,,,,,,,,,,,,,,,,,,,,,,,,,0,3,3,0,1,,,,,,,,,,,,,,,,,,,,,,,,,,,,,,,,,,,,,,,,,
029926,001,2022-11-21_24h56.57.355,Info_measure_main_exp,2022.2.2,Win32,61.2782646,,,,,,,,,,,,,,,,,,masks/mask_004.jpg,,,,,,,,,,,,,,,,,,,,,,,,,,,,,,,,,,,,,,,,,,,,,,,,0,4,4,3,1,,,,,,,,,,,,,,,,,,,,,,,,,,,,,,,,,,,,,,,,,
029926,001,2022-11-21_24h56.57.355,Info_measure_main_exp,2022.2.2,Win32,61.2782646,,,,,,,,,,,,,,,,,,,,,,,,,,,,,,3,1.2523,1,,,,,,,,,,,,0,131,5,5,2298,2190,absent_patch/patch0002298.jpg,absent_patch/patch0002190.jpg,,,,,,,,,,,,,,,,,,,,-0.037760417,-0.067708333,1,0,0,response5disk,23,-0.002604167,0.002604167,1,0,0,center_square,0,22,22,20,1,,,,,,,,,,,,,,,,,,,,,,,
029926,001,2022-11-21_24h56.57.355,Info_measure_main_exp,2022.2.2,Win32,61.2782646,,,,,,,,,,,,,,,,,,masks/mask_005.jpg,,,,,,,,,,,,,,,,,,,,,,,,,,,,,,,,,,,,,,,,,,,0,0,0,4,1,,,,,,,,,,,,,,,,,,,,,,,,,,,,,,,,,,,,,,,,,,,,,,
029926,001,2022-11-21_24h56.57.355,Info_measure_main_exp,2022.2.2,Win32,61.2782646,,,,,,,,,,,,,,,,,,masks/mask_001.jpg,,,,,,,,,,,,,,,,,,,,,,,,,,,,,,,,,,,,,,,,,,,0,1,1,0,1,,,,,,,,,,,,,,,,,,,,,,,,,,,,,,,,,,,,,,,,,,,,,,
029926,001,2022-11-21_24h56.57.355,Info_measure_main_exp,2022.2.2,Win32,61.2782646,,,,,,,,,,,,,,,,,,masks/mask_002.jpg,,,,,,,,,,,,,,,,,,,,,,,,,,,,,,,,,,,,,,,,,,,0,2,2,1,1,,,,,,,,,,,,,,,,,,,,,,,,,,,,,,,,,,,,,,,,,,,,,,
029926,001,2022-11-21_24h56.57.355,Info_measure_main_exp,2022.2.2,Win32,61.2782646,,,,,,,,,,,,,,,,,,masks/mask_004.jpg,,,,,,,,,,,,,,,,,,,,,,,,,,,,,,,,,,,,,,,,,,,0,3,3,3,1,,,,,,,,,,,,,,,,,,,,,,,,,,,,,,,,,,,,,,,,,,,,,,
029926,001,2022-11-21_24h56.57.355,Info_measure_main_exp,2022.2.2,Win32,61.2782646,,,,,,,,,,,,,,,,,,masks/mask_003.jpg,,,,,,,,,,,,,,,,,,,,,,,,,,,,,,,,,,,,,,,,,,,0,4,4,2,1,,,,,,,,,,,,,,,,,,,,,,,,,,,,,,,,,,,,,,,,,,,,,,
029926,001,2022-11-21_24h56.57.355,Info_measure_main_exp,2022.2.2,Win32,61.2782646,,,,,,,,,,,,,,,,,,masks/mask_005.jpg,,,,,,,,,,,,,,,,,,,,,,,,,,,,,,,,,,,,,,,,,,,,,,,,0,0,0,4,1,,,,,,,,,,,,,,,,,,,,,,,,,,,,,,,,,,,,,,,,,
029926,001,2022-11-21_24h56.57.355,Info_measure_main_exp,2022.2.2,Win32,61.2782646,,,,,,,,,,,,,,,,,,masks/mask_002.jpg,,,,,,,,,,,,,,,,,,,,,,,,,,,,,,,,,,,,,,,,,,,,,,,,0,1,1,1,1,,,,,,,,,,,,,,,,,,,,,,,,,,,,,,,,,,,,,,,,,
029926,001,2022-11-21_24h56.57.355,Info_measure_main_exp,2022.2.2,Win32,61.2782646,,,,,,,,,,,,,,,,,,masks/mask_004.jpg,,,,,,,,,,,,,,,,,,,,,,,,,,,,,,,,,,,,,,,,,,,,,,,,0,2,2,3,1,,,,,,,,,,,,,,,,,,,,,,,,,,,,,,,,,,,,,,,,,
029926,001,2022-11-21_24h56.57.355,Info_measure_main_exp,2022.2.2,Win32,61.2782646,,,,,,,,,,,,,,,,,,masks/mask_001.jpg,,,,,,,,,,,,,,,,,,,,,,,,,,,,,,,,,,,,,,,,,,,,,,,,0,3,3,0,1,,,,,,,,,,,,,,,,,,,,,,,,,,,,,,,,,,,,,,,,,
029926,001,2022-11-21_24h56.57.355,Info_measure_main_exp,2022.2.2,Win32,61.2782646,,,,,,,,,,,,,,,,,,masks/mask_003.jpg,,,,,,,,,,,,,,,,,,,,,,,,,,,,,,,,,,,,,,,,,,,,,,,,0,4,4,2,1,,,,,,,,,,,,,,,,,,,,,,,,,,,,,,,,,,,,,,,,,
029926,001,2022-11-21_24h56.57.355,Info_measure_main_exp,2022.2.2,Win32,61.2782646,,,,,,,,,,,,,,,,,,,,,,,,,,,,,,4,1.5186,1,,,,,,,,,,,,0,131,5,5,2214,2082,absent_patch/patch0002214.jpg,absent_patch/patch0002082.jpg,,,,,,,,,,,,,,,,,,,,0.016927083,-0.05078125,1,0,0,response3disk,24,0.00390625,-0.005208333,1,0,0,center_square,0,23,23,103,1,,,,,,,,,,,,,,,,,,,,,,,
029926,001,2022-11-21_24h56.57.355,Info_measure_main_exp,2022.2.2,Win32,61.2782646,,,,,,,,,,,,,,,,,,masks/mask_002.jpg,,,,,,,,,,,,,,,,,,,,,,,,,,,,,,,,,,,,,,,,,,,0,0,0,1,1,,,,,,,,,,,,,,,,,,,,,,,,,,,,,,,,,,,,,,,,,,,,,,
029926,001,2022-11-21_24h56.57.355,Info_measure_main_exp,2022.2.2,Win32,61.2782646,,,,,,,,,,,,,,,,,,masks/mask_001.jpg,,,,,,,,,,,,,,,,,,,,,,,,,,,,,,,,,,,,,,,,,,,0,1,1,0,1,,,,,,,,,,,,,,,,,,,,,,,,,,,,,,,,,,,,,,,,,,,,,,
029926,001,2022-11-21_24h56.57.355,Info_measure_main_exp,2022.2.2,Win32,61.2782646,,,,,,,,,,,,,,,,,,masks/mask_003.jpg,,,,,,,,,,,,,,,,,,,,,,,,,,,,,,,,,,,,,,,,,,,0,2,2,2,1,,,,,,,,,,,,,,,,,,,,,,,,,,,,,,,,,,,,,,,,,,,,,,
029926,001,2022-11-21_24h56.57.355,Info_measure_main_exp,2022.2.2,Win32,61.2782646,,,,,,,,,,,,,,,,,,masks/mask_005.jpg,,,,,,,,,,,,,,,,,,,,,,,,,,,,,,,,,,,,,,,,,,,0,3,3,4,1,,,,,,,,,,,,,,,,,,,,,,,,,,,,,,,,,,,,,,,,,,,,,,
029926,001,2022-11-21_24h56.57.355,Info_measure_main_exp,2022.2.2,Win32,61.2782646,,,,,,,,,,,,,,,,,,masks/mask_004.jpg,,,,,,,,,,,,,,,,,,,,,,,,,,,,,,,,,,,,,,,,,,,0,4,4,3,1,,,,,,,,,,,,,,,,,,,,,,,,,,,,,,,,,,,,,,,,,,,,,,
029926,001,2022-11-21_24h56.57.355,Info_measure_main_exp,2022.2.2,Win32,61.2782646,,,,,,,,,,,,,,,,,,masks/mask_003.jpg,,,,,,,,,,,,,,,,,,,,,,,,,,,,,,,,,,,,,,,,,,,,,,,,0,0,0,2,1,,,,,,,,,,,,,,,,,,,,,,,,,,,,,,,,,,,,,,,,,
029926,001,2022-11-21_24h56.57.355,Info_measure_main_exp,2022.2.2,Win32,61.2782646,,,,,,,,,,,,,,,,,,masks/mask_002.jpg,,,,,,,,,,,,,,,,,,,,,,,,,,,,,,,,,,,,,,,,,,,,,,,,0,1,1,1,1,,,,,,,,,,,,,,,,,,,,,,,,,,,,,,,,,,,,,,,,,
029926,001,2022-11-21_24h56.57.355,Info_measure_main_exp,2022.2.2,Win32,61.2782646,,,,,,,,,,,,,,,,,,masks/mask_004.jpg,,,,,,,,,,,,,,,,,,,,,,,,,,,,,,,,,,,,,,,,,,,,,,,,0,2,2,3,1,,,,,,,,,,,,,,,,,,,,,,,,,,,,,,,,,,,,,,,,,
029926,001,2022-11-21_24h56.57.355,Info_measure_main_exp,2022.2.2,Win32,61.2782646,,,,,,,,,,,,,,,,,,masks/mask_005.jpg,,,,,,,,,,,,,,,,,,,,,,,,,,,,,,,,,,,,,,,,,,,,,,,,0,3,3,4,1,,,,,,,,,,,,,,,,,,,,,,,,,,,,,,,,,,,,,,,,,
029926,001,2022-11-21_24h56.57.355,Info_measure_main_exp,2022.2.2,Win32,61.2782646,,,,,,,,,,,,,,,,,,masks/mask_001.jpg,,,,,,,,,,,,,,,,,,,,,,,,,,,,,,,,,,,,,,,,,,,,,,,,0,4,4,0,1,,,,,,,,,,,,,,,,,,,,,,,,,,,,,,,,,,,,,,,,,
029926,001,2022-11-21_24h56.57.355,Info_measure_main_exp,2022.2.2,Win32,61.2782646,,,,,,,,,,,,,,,,,,,,,,,,,,,,,,5,1.1398,1,,,,,,,,,,,,0,131,5,5,2274,2214,absent_patch/patch0002274.jpg,absent_patch/patch0002214.jpg,,,,,,,,,,,,,,,,,,,,0.0625,-0.018229167,1,0,0,response3disk,25,0.005208333,-0.005208333,1,0,0,center_square,0,24,24,11,1,,,,,,,,,,,,,,,,,,,,,,,
029926,001,2022-11-21_24h56.57.355,Info_measure_main_exp,2022.2.2,Win32,61.2782646,,,,,,,,,,,,,,,,,,masks/mask_005.jpg,,,,,,,,,,,,,,,,,,,,,,,,,,,,,,,,,,,,,,,,,,,0,0,0,4,1,,,,,,,,,,,,,,,,,,,,,,,,,,,,,,,,,,,,,,,,,,,,,,
029926,001,2022-11-21_24h56.57.355,Info_measure_main_exp,2022.2.2,Win32,61.2782646,,,,,,,,,,,,,,,,,,masks/mask_002.jpg,,,,,,,,,,,,,,,,,,,,,,,,,,,,,,,,,,,,,,,,,,,0,1,1,1,1,,,,,,,,,,,,,,,,,,,,,,,,,,,,,,,,,,,,,,,,,,,,,,
029926,001,2022-11-21_24h56.57.355,Info_measure_main_exp,2022.2.2,Win32,61.2782646,,,,,,,,,,,,,,,,,,masks/mask_003.jpg,,,,,,,,,,,,,,,,,,,,,,,,,,,,,,,,,,,,,,,,,,,0,2,2,2,1,,,,,,,,,,,,,,,,,,,,,,,,,,,,,,,,,,,,,,,,,,,,,,
029926,001,2022-11-21_24h56.57.355,Info_measure_main_exp,2022.2.2,Win32,61.2782646,,,,,,,,,,,,,,,,,,masks/mask_001.jpg,,,,,,,,,,,,,,,,,,,,,,,,,,,,,,,,,,,,,,,,,,,0,3,3,0,1,,,,,,,,,,,,,,,,,,,,,,,,,,,,,,,,,,,,,,,,,,,,,,
029926,001,2022-11-21_24h56.57.355,Info_measure_main_exp,2022.2.2,Win32,61.2782646,,,,,,,,,,,,,,,,,,masks/mask_004.jpg,,,,,,,,,,,,,,,,,,,,,,,,,,,,,,,,,,,,,,,,,,,0,4,4,3,1,,,,,,,,,,,,,,,,,,,,,,,,,,,,,,,,,,,,,,,,,,,,,,
029926,001,2022-11-21_24h56.57.355,Info_measure_main_exp,2022.2.2,Win32,61.2782646,,,,,,,,,,,,,,,,,,masks/mask_003.jpg,,,,,,,,,,,,,,,,,,,,,,,,,,,,,,,,,,,,,,,,,,,,,,,,0,0,0,2,1,,,,,,,,,,,,,,,,,,,,,,,,,,,,,,,,,,,,,,,,,
029926,001,2022-11-21_24h56.57.355,Info_measure_main_exp,2022.2.2,Win32,61.2782646,,,,,,,,,,,,,,,,,,masks/mask_001.jpg,,,,,,,,,,,,,,,,,,,,,,,,,,,,,,,,,,,,,,,,,,,,,,,,0,1,1,0,1,,,,,,,,,,,,,,,,,,,,,,,,,,,,,,,,,,,,,,,,,
029926,001,2022-11-21_24h56.57.355,Info_measure_main_exp,2022.2.2,Win32,61.2782646,,,,,,,,,,,,,,,,,,masks/mask_005.jpg,,,,,,,,,,,,,,,,,,,,,,,,,,,,,,,,,,,,,,,,,,,,,,,,0,2,2,4,1,,,,,,,,,,,,,,,,,,,,,,,,,,,,,,,,,,,,,,,,,
029926,001,2022-11-21_24h56.57.355,Info_measure_main_exp,2022.2.2,Win32,61.2782646,,,,,,,,,,,,,,,,,,masks/mask_004.jpg,,,,,,,,,,,,,,,,,,,,,,,,,,,,,,,,,,,,,,,,,,,,,,,,0,3,3,3,1,,,,,,,,,,,,,,,,,,,,,,,,,,,,,,,,,,,,,,,,,
029926,001,2022-11-21_24h56.57.355,Info_measure_main_exp,2022.2.2,Win32,61.2782646,,,,,,,,,,,,,,,,,,masks/mask_002.jpg,,,,,,,,,,,,,,,,,,,,,,,,,,,,,,,,,,,,,,,,,,,,,,,,0,4,4,1,1,,,,,,,,,,,,,,,,,,,,,,,,,,,,,,,,,,,,,,,,,
029926,001,2022-11-21_24h56.57.355,Info_measure_main_exp,2022.2.2,Win32,61.2782646,,,,,,,,,,,,,,,,,,,,,,,,,,,,,,0,0.8996,1,,,,,,,,,,,,0,131,5,5,2214,2214,absent_patch/patch0002214.jpg,absent_patch/patch0002214.jpg,,,,,,,,,,,,,,,,,,,,-0.067708333,0.1484375,1,0,0,response7disk,26,-0.005208333,0.006510417,1,0,0,center_square,0,25,25,115,1,,,,,,,,,,,,,,,,,,,,,,,
029926,001,2022-11-21_24h56.57.355,Info_measure_main_exp,2022.2.2,Win32,61.2782646,,,,,,,,,,,,,,,,,,masks/mask_002.jpg,,,,,,,,,,,,,,,,,,,,,,,,,,,,,,,,,,,,,,,,,,,0,0,0,1,1,,,,,,,,,,,,,,,,,,,,,,,,,,,,,,,,,,,,,,,,,,,,,,
029926,001,2022-11-21_24h56.57.355,Info_measure_main_exp,2022.2.2,Win32,61.2782646,,,,,,,,,,,,,,,,,,masks/mask_004.jpg,,,,,,,,,,,,,,,,,,,,,,,,,,,,,,,,,,,,,,,,,,,0,1,1,3,1,,,,,,,,,,,,,,,,,,,,,,,,,,,,,,,,,,,,,,,,,,,,,,
029926,001,2022-11-21_24h56.57.355,Info_measure_main_exp,2022.2.2,Win32,61.2782646,,,,,,,,,,,,,,,,,,masks/mask_003.jpg,,,,,,,,,,,,,,,,,,,,,,,,,,,,,,,,,,,,,,,,,,,0,2,2,2,1,,,,,,,,,,,,,,,,,,,,,,,,,,,,,,,,,,,,,,,,,,,,,,
029926,001,2022-11-21_24h56.57.355,Info_measure_main_exp,2022.2.2,Win32,61.2782646,,,,,,,,,,,,,,,,,,masks/mask_001.jpg,,,,,,,,,,,,,,,,,,,,,,,,,,,,,,,,,,,,,,,,,,,0,3,3,0,1,,,,,,,,,,,,,,,,,,,,,,,,,,,,,,,,,,,,,,,,,,,,,,
029926,001,2022-11-21_24h56.57.355,Info_measure_main_exp,2022.2.2,Win32,61.2782646,,,,,,,,,,,,,,,,,,masks/mask_005.jpg,,,,,,,,,,,,,,,,,,,,,,,,,,,,,,,,,,,,,,,,,,,0,4,4,4,1,,,,,,,,,,,,,,,,,,,,,,,,,,,,,,,,,,,,,,,,,,,,,,
029926,001,2022-11-21_24h56.57.355,Info_measure_main_exp,2022.2.2,Win32,61.2782646,,,,,,,,,,,,,,,,,,masks/mask_001.jpg,,,,,,,,,,,,,,,,,,,,,,,,,,,,,,,,,,,,,,,,,,,,,,,,0,0,0,0,1,,,,,,,,,,,,,,,,,,,,,,,,,,,,,,,,,,,,,,,,,
029926,001,2022-11-21_24h56.57.355,Info_measure_main_exp,2022.2.2,Win32,61.2782646,,,,,,,,,,,,,,,,,,masks/mask_005.jpg,,,,,,,,,,,,,,,,,,,,,,,,,,,,,,,,,,,,,,,,,,,,,,,,0,1,1,4,1,,,,,,,,,,,,,,,,,,,,,,,,,,,,,,,,,,,,,,,,,
029926,001,2022-11-21_24h56.57.355,Info_measure_main_exp,2022.2.2,Win32,61.2782646,,,,,,,,,,,,,,,,,,masks/mask_002.jpg,,,,,,,,,,,,,,,,,,,,,,,,,,,,,,,,,,,,,,,,,,,,,,,,0,2,2,1,1,,,,,,,,,,,,,,,,,,,,,,,,,,,,,,,,,,,,,,,,,
029926,001,2022-11-21_24h56.57.355,Info_measure_main_exp,2022.2.2,Win32,61.2782646,,,,,,,,,,,,,,,,,,masks/mask_004.jpg,,,,,,,,,,,,,,,,,,,,,,,,,,,,,,,,,,,,,,,,,,,,,,,,0,3,3,3,1,,,,,,,,,,,,,,,,,,,,,,,,,,,,,,,,,,,,,,,,,
029926,001,2022-11-21_24h56.57.355,Info_measure_main_exp,2022.2.2,Win32,61.2782646,,,,,,,,,,,,,,,,,,masks/mask_003.jpg,,,,,,,,,,,,,,,,,,,,,,,,,,,,,,,,,,,,,,,,,,,,,,,,0,4,4,2,1,,,,,,,,,,,,,,,,,,,,,,,,,,,,,,,,,,,,,,,,,
029926,001,2022-11-21_24h56.57.355,Info_measure_main_exp,2022.2.2,Win32,61.2782646,,,,,,,,,,,,,,,,,,,,,,,,,,,,,,6,0.8166,1,,,,,,,,,,,,0,131,5,5,2214,1986,absent_patch/patch0002214.jpg,absent_patch/patch0001986.jpg,,,,,,,,,,,,,,,,,,,,0.123697917,0.057291667,1,0,0,response1disk,27,0.002604167,0.002604167,1,0,0,center_square,0,26,26,34,1,,,,,,,,,,,,,,,,,,,,,,,
029926,001,2022-11-21_24h56.57.355,Info_measure_main_exp,2022.2.2,Win32,61.2782646,,,,,,,,,,,,,,,,,,masks/mask_005.jpg,,,,,,,,,,,,,,,,,,,,,,,,,,,,,,,,,,,,,,,,,,,0,0,0,4,1,,,,,,,,,,,,,,,,,,,,,,,,,,,,,,,,,,,,,,,,,,,,,,
029926,001,2022-11-21_24h56.57.355,Info_measure_main_exp,2022.2.2,Win32,61.2782646,,,,,,,,,,,,,,,,,,masks/mask_004.jpg,,,,,,,,,,,,,,,,,,,,,,,,,,,,,,,,,,,,,,,,,,,0,1,1,3,1,,,,,,,,,,,,,,,,,,,,,,,,,,,,,,,,,,,,,,,,,,,,,,
029926,001,2022-11-21_24h56.57.355,Info_measure_main_exp,2022.2.2,Win32,61.2782646,,,,,,,,,,,,,,,,,,masks/mask_003.jpg,,,,,,,,,,,,,,,,,,,,,,,,,,,,,,,,,,,,,,,,,,,0,2,2,2,1,,,,,,,,,,,,,,,,,,,,,,,,,,,,,,,,,,,,,,,,,,,,,,
029926,001,2022-11-21_24h56.57.355,Info_measure_main_exp,2022.2.2,Win32,61.2782646,,,,,,,,,,,,,,,,,,masks/mask_002.jpg,,,,,,,,,,,,,,,,,,,,,,,,,,,,,,,,,,,,,,,,,,,0,3,3,1,1,,,,,,,,,,,,,,,,,,,,,,,,,,,,,,,,,,,,,,,,,,,,,,
029926,001,2022-11-21_24h56.57.355,Info_measure_main_exp,2022.2.2,Win32,61.2782646,,,,,,,,,,,,,,,,,,masks/mask_001.jpg,,,,,,,,,,,,,,,,,,,,,,,,,,,,,,,,,,,,,,,,,,,0,4,4,0,1,,,,,,,,,,,,,,,,,,,,,,,,,,,,,,,,,,,,,,,,,,,,,,
029926,001,2022-11-21_24h56.57.355,Info_measure_main_exp,2022.2.2,Win32,61.2782646,,,,,,,,,,,,,,,,,,masks/mask_005.jpg,,,,,,,,,,,,,,,,,,,,,,,,,,,,,,,,,,,,,,,,,,,,,,,,0,0,0,4,1,,,,,,,,,,,,,,,,,,,,,,,,,,,,,,,,,,,,,,,,,
029926,001,2022-11-21_24h56.57.355,Info_measure_main_exp,2022.2.2,Win32,61.2782646,,,,,,,,,,,,,,,,,,masks/mask_002.jpg,,,,,,,,,,,,,,,,,,,,,,,,,,,,,,,,,,,,,,,,,,,,,,,,0,1,1,1,1,,,,,,,,,,,,,,,,,,,,,,,,,,,,,,,,,,,,,,,,,
029926,001,2022-11-21_24h56.57.355,Info_measure_main_exp,2022.2.2,Win32,61.2782646,,,,,,,,,,,,,,,,,,masks/mask_004.jpg,,,,,,,,,,,,,,,,,,,,,,,,,,,,,,,,,,,,,,,,,,,,,,,,0,2,2,3,1,,,,,,,,,,,,,,,,,,,,,,,,,,,,,,,,,,,,,,,,,
029926,001,2022-11-21_24h56.57.355,Info_measure_main_exp,2022.2.2,Win32,61.2782646,,,,,,,,,,,,,,,,,,masks/mask_003.jpg,,,,,,,,,,,,,,,,,,,,,,,,,,,,,,,,,,,,,,,,,,,,,,,,0,3,3,2,1,,,,,,,,,,,,,,,,,,,,,,,,,,,,,,,,,,,,,,,,,
029926,001,2022-11-21_24h56.57.355,Info_measure_main_exp,2022.2.2,Win32,61.2782646,,,,,,,,,,,,,,,,,,masks/mask_001.jpg,,,,,,,,,,,,,,,,,,,,,,,,,,,,,,,,,,,,,,,,,,,,,,,,0,4,4,0,1,,,,,,,,,,,,,,,,,,,,,,,,,,,,,,,,,,,,,,,,,
029926,001,2022-11-21_24h56.57.355,Info_measure_main_exp,2022.2.2,Win32,61.2782646,,,,,,,,,,,,,,,,,,,,,,,,,,,,,,7,0.7489,1,,,,,,,,,,,,0,131,5,5,1986,1974,absent_patch/patch0001986.jpg,absent_patch/patch0001974.jpg,,,,,,,,,,,,,,,,,,,,0.041666667,0.095052083,1,0,0,response1disk,28,0.002604167,0.010416667,1,0,0,center_square,0,27,27,25,1,,,,,,,,,,,,,,,,,,,,,,,
029926,001,2022-11-21_24h56.57.355,Info_measure_main_exp,2022.2.2,Win32,61.2782646,,,,,,,,,,,,,,,,,,masks/mask_001.jpg,,,,,,,,,,,,,,,,,,,,,,,,,,,,,,,,,,,,,,,,,,,0,0,0,0,1,,,,,,,,,,,,,,,,,,,,,,,,,,,,,,,,,,,,,,,,,,,,,,
029926,001,2022-11-21_24h56.57.355,Info_measure_main_exp,2022.2.2,Win32,61.2782646,,,,,,,,,,,,,,,,,,masks/mask_002.jpg,,,,,,,,,,,,,,,,,,,,,,,,,,,,,,,,,,,,,,,,,,,0,1,1,1,1,,,,,,,,,,,,,,,,,,,,,,,,,,,,,,,,,,,,,,,,,,,,,,
029926,001,2022-11-21_24h56.57.355,Info_measure_main_exp,2022.2.2,Win32,61.2782646,,,,,,,,,,,,,,,,,,masks/mask_004.jpg,,,,,,,,,,,,,,,,,,,,,,,,,,,,,,,,,,,,,,,,,,,0,2,2,3,1,,,,,,,,,,,,,,,,,,,,,,,,,,,,,,,,,,,,,,,,,,,,,,
029926,001,2022-11-21_24h56.57.355,Info_measure_main_exp,2022.2.2,Win32,61.2782646,,,,,,,,,,,,,,,,,,masks/mask_003.jpg,,,,,,,,,,,,,,,,,,,,,,,,,,,,,,,,,,,,,,,,,,,0,3,3,2,1,,,,,,,,,,,,,,,,,,,,,,,,,,,,,,,,,,,,,,,,,,,,,,
029926,001,2022-11-21_24h56.57.355,Info_measure_main_exp,2022.2.2,Win32,61.2782646,,,,,,,,,,,,,,,,,,masks/mask_005.jpg,,,,,,,,,,,,,,,,,,,,,,,,,,,,,,,,,,,,,,,,,,,0,4,4,4,1,,,,,,,,,,,,,,,,,,,,,,,,,,,,,,,,,,,,,,,,,,,,,,
029926,001,2022-11-21_24h56.57.355,Info_measure_main_exp,2022.2.2,Win32,61.2782646,,,,,,,,,,,,,,,,,,masks/mask_004.jpg,,,,,,,,,,,,,,,,,,,,,,,,,,,,,,,,,,,,,,,,,,,,,,,,0,0,0,3,1,,,,,,,,,,,,,,,,,,,,,,,,,,,,,,,,,,,,,,,,,
029926,001,2022-11-21_24h56.57.355,Info_measure_main_exp,2022.2.2,Win32,61.2782646,,,,,,,,,,,,,,,,,,masks/mask_003.jpg,,,,,,,,,,,,,,,,,,,,,,,,,,,,,,,,,,,,,,,,,,,,,,,,0,1,1,2,1,,,,,,,,,,,,,,,,,,,,,,,,,,,,,,,,,,,,,,,,,
029926,001,2022-11-21_24h56.57.355,Info_measure_main_exp,2022.2.2,Win32,61.2782646,,,,,,,,,,,,,,,,,,masks/mask_005.jpg,,,,,,,,,,,,,,,,,,,,,,,,,,,,,,,,,,,,,,,,,,,,,,,,0,2,2,4,1,,,,,,,,,,,,,,,,,,,,,,,,,,,,,,,,,,,,,,,,,
029926,001,2022-11-21_24h56.57.355,Info_measure_main_exp,2022.2.2,Win32,61.2782646,,,,,,,,,,,,,,,,,,masks/mask_002.jpg,,,,,,,,,,,,,,,,,,,,,,,,,,,,,,,,,,,,,,,,,,,,,,,,0,3,3,1,1,,,,,,,,,,,,,,,,,,,,,,,,,,,,,,,,,,,,,,,,,
029926,001,2022-11-21_24h56.57.355,Info_measure_main_exp,2022.2.2,Win32,61.2782646,,,,,,,,,,,,,,,,,,masks/mask_001.jpg,,,,,,,,,,,,,,,,,,,,,,,,,,,,,,,,,,,,,,,,,,,,,,,,0,4,4,0,1,,,,,,,,,,,,,,,,,,,,,,,,,,,,,,,,,,,,,,,,,
029926,001,2022-11-21_24h56.57.355,Info_measure_main_exp,2022.2.2,Win32,61.2782646,,,,,,,,,,,,,,,,,,,,,,,,,,,,,,3,0.9652,1,,,,,,,,,,,,0,131,5,5,2154,2238,absent_patch/patch0002154.jpg,absent_patch/patch0002238.jpg,,,,,,,,,,,,,,,,,,,,-0.015625,-0.061197917,1,0,0,response5disk,29,-0.002604167,0,1,0,0,center_square,0,28,28,21,1,,,,,,,,,,,,,,,,,,,,,,,
029926,001,2022-11-21_24h56.57.355,Info_measure_main_exp,2022.2.2,Win32,61.2782646,,,,,,,,,,,,,,,,,,masks/mask_004.jpg,,,,,,,,,,,,,,,,,,,,,,,,,,,,,,,,,,,,,,,,,,,0,0,0,3,1,,,,,,,,,,,,,,,,,,,,,,,,,,,,,,,,,,,,,,,,,,,,,,
029926,001,2022-11-21_24h56.57.355,Info_measure_main_exp,2022.2.2,Win32,61.2782646,,,,,,,,,,,,,,,,,,masks/mask_001.jpg,,,,,,,,,,,,,,,,,,,,,,,,,,,,,,,,,,,,,,,,,,,0,1,1,0,1,,,,,,,,,,,,,,,,,,,,,,,,,,,,,,,,,,,,,,,,,,,,,,
029926,001,2022-11-21_24h56.57.355,Info_measure_main_exp,2022.2.2,Win32,61.2782646,,,,,,,,,,,,,,,,,,masks/mask_002.jpg,,,,,,,,,,,,,,,,,,,,,,,,,,,,,,,,,,,,,,,,,,,0,2,2,1,1,,,,,,,,,,,,,,,,,,,,,,,,,,,,,,,,,,,,,,,,,,,,,,
029926,001,2022-11-21_24h56.57.355,Info_measure_main_exp,2022.2.2,Win32,61.2782646,,,,,,,,,,,,,,,,,,masks/mask_003.jpg,,,,,,,,,,,,,,,,,,,,,,,,,,,,,,,,,,,,,,,,,,,0,3,3,2,1,,,,,,,,,,,,,,,,,,,,,,,,,,,,,,,,,,,,,,,,,,,,,,
029926,001,2022-11-21_24h56.57.355,Info_measure_main_exp,2022.2.2,Win32,61.2782646,,,,,,,,,,,,,,,,,,masks/mask_005.jpg,,,,,,,,,,,,,,,,,,,,,,,,,,,,,,,,,,,,,,,,,,,0,4,4,4,1,,,,,,,,,,,,,,,,,,,,,,,,,,,,,,,,,,,,,,,,,,,,,,
029926,001,2022-11-21_24h56.57.355,Info_measure_main_exp,2022.2.2,Win32,61.2782646,,,,,,,,,,,,,,,,,,masks/mask_005.jpg,,,,,,,,,,,,,,,,,,,,,,,,,,,,,,,,,,,,,,,,,,,,,,,,0,0,0,4,1,,,,,,,,,,,,,,,,,,,,,,,,,,,,,,,,,,,,,,,,,
029926,001,2022-11-21_24h56.57.355,Info_measure_main_exp,2022.2.2,Win32,61.2782646,,,,,,,,,,,,,,,,,,masks/mask_003.jpg,,,,,,,,,,,,,,,,,,,,,,,,,,,,,,,,,,,,,,,,,,,,,,,,0,1,1,2,1,,,,,,,,,,,,,,,,,,,,,,,,,,,,,,,,,,,,,,,,,
029926,001,2022-11-21_24h56.57.355,Info_measure_main_exp,2022.2.2,Win32,61.2782646,,,,,,,,,,,,,,,,,,masks/mask_004.jpg,,,,,,,,,,,,,,,,,,,,,,,,,,,,,,,,,,,,,,,,,,,,,,,,0,2,2,3,1,,,,,,,,,,,,,,,,,,,,,,,,,,,,,,,,,,,,,,,,,
029926,001,2022-11-21_24h56.57.355,Info_measure_main_exp,2022.2.2,Win32,61.2782646,,,,,,,,,,,,,,,,,,masks/mask_001.jpg,,,,,,,,,,,,,,,,,,,,,,,,,,,,,,,,,,,,,,,,,,,,,,,,0,3,3,0,1,,,,,,,,,,,,,,,,,,,,,,,,,,,,,,,,,,,,,,,,,
029926,001,2022-11-21_24h56.57.355,Info_measure_main_exp,2022.2.2,Win32,61.2782646,,,,,,,,,,,,,,,,,,masks/mask_002.jpg,,,,,,,,,,,,,,,,,,,,,,,,,,,,,,,,,,,,,,,,,,,,,,,,0,4,4,1,1,,,,,,,,,,,,,,,,,,,,,,,,,,,,,,,,,,,,,,,,,
029926,001,2022-11-21_24h56.57.355,Info_measure_main_exp,2022.2.2,Win32,61.2782646,,,,,,,,,,,,,,,,,,,,,,,,,,,,,,5,1.0833,1,,,,,,,,,,,,1,131,5,5,1950,1,absent_patch/patch0001950.jpg,present_patch/cong_131_5_a.jpg,,,,,,,,,,,,,,,,,,,,0.161458333,-0.040364583,1,0,0,response3disk,30,0.00390625,0.002604167,1,0,0,center_square,0,29,29,39,1,,,,,,,,,,,,,,,,,,,,,,,
029926,001,2022-11-21_24h56.57.355,Info_measure_main_exp,2022.2.2,Win32,61.2782646,,,,,,,,,,,,,,,,,,masks/mask_002.jpg,,,,,,,,,,,,,,,,,,,,,,,,,,,,,,,,,,,,,,,,,,,0,0,0,1,1,,,,,,,,,,,,,,,,,,,,,,,,,,,,,,,,,,,,,,,,,,,,,,
029926,001,2022-11-21_24h56.57.355,Info_measure_main_exp,2022.2.2,Win32,61.2782646,,,,,,,,,,,,,,,,,,masks/mask_001.jpg,,,,,,,,,,,,,,,,,,,,,,,,,,,,,,,,,,,,,,,,,,,0,1,1,0,1,,,,,,,,,,,,,,,,,,,,,,,,,,,,,,,,,,,,,,,,,,,,,,
029926,001,2022-11-21_24h56.57.355,Info_measure_main_exp,2022.2.2,Win32,61.2782646,,,,,,,,,,,,,,,,,,masks/mask_004.jpg,,,,,,,,,,,,,,,,,,,,,,,,,,,,,,,,,,,,,,,,,,,0,2,2,3,1,,,,,,,,,,,,,,,,,,,,,,,,,,,,,,,,,,,,,,,,,,,,,,
029926,001,2022-11-21_24h56.57.355,Info_measure_main_exp,2022.2.2,Win32,61.2782646,,,,,,,,,,,,,,,,,,masks/mask_003.jpg,,,,,,,,,,,,,,,,,,,,,,,,,,,,,,,,,,,,,,,,,,,0,3,3,2,1,,,,,,,,,,,,,,,,,,,,,,,,,,,,,,,,,,,,,,,,,,,,,,
029926,001,2022-11-21_24h56.57.355,Info_measure_main_exp,2022.2.2,Win32,61.2782646,,,,,,,,,,,,,,,,,,masks/mask_005.jpg,,,,,,,,,,,,,,,,,,,,,,,,,,,,,,,,,,,,,,,,,,,0,4,4,4,1,,,,,,,,,,,,,,,,,,,,,,,,,,,,,,,,,,,,,,,,,,,,,,
029926,001,2022-11-21_24h56.57.355,Info_measure_main_exp,2022.2.2,Win32,61.2782646,,,,,,,,,,,,,,,,,,masks/mask_005.jpg,,,,,,,,,,,,,,,,,,,,,,,,,,,,,,,,,,,,,,,,,,,,,,,,0,0,0,4,1,,,,,,,,,,,,,,,,,,,,,,,,,,,,,,,,,,,,,,,,,
029926,001,2022-11-21_24h56.57.355,Info_measure_main_exp,2022.2.2,Win32,61.2782646,,,,,,,,,,,,,,,,,,masks/mask_003.jpg,,,,,,,,,,,,,,,,,,,,,,,,,,,,,,,,,,,,,,,,,,,,,,,,0,1,1,2,1,,,,,,,,,,,,,,,,,,,,,,,,,,,,,,,,,,,,,,,,,
029926,001,2022-11-21_24h56.57.355,Info_measure_main_exp,2022.2.2,Win32,61.2782646,,,,,,,,,,,,,,,,,,masks/mask_001.jpg,,,,,,,,,,,,,,,,,,,,,,,,,,,,,,,,,,,,,,,,,,,,,,,,0,2,2,0,1,,,,,,,,,,,,,,,,,,,,,,,,,,,,,,,,,,,,,,,,,
029926,001,2022-11-21_24h56.57.355,Info_measure_main_exp,2022.2.2,Win32,61.2782646,,,,,,,,,,,,,,,,,,masks/mask_004.jpg,,,,,,,,,,,,,,,,,,,,,,,,,,,,,,,,,,,,,,,,,,,,,,,,0,3,3,3,1,,,,,,,,,,,,,,,,,,,,,,,,,,,,,,,,,,,,,,,,,
029926,001,2022-11-21_24h56.57.355,Info_measure_main_exp,2022.2.2,Win32,61.2782646,,,,,,,,,,,,,,,,,,masks/mask_002.jpg,,,,,,,,,,,,,,,,,,,,,,,,,,,,,,,,,,,,,,,,,,,,,,,,0,4,4,1,1,,,,,,,,,,,,,,,,,,,,,,,,,,,,,,,,,,,,,,,,,
029926,001,2022-11-21_24h56.57.355,Info_measure_main_exp,2022.2.2,Win32,61.2782646,,,,,,,,,,,,,,,,,,,,,,,,,,,,,,7,0.83,1,,,,,,,,,,,,0,131,5,5,2142,2238,absent_patch/patch0002142.jpg,absent_patch/patch0002238.jpg,,,,,,,,,,,,,,,,,,,,0.053385417,0.134114583,1,0,0,response1disk,31,0.005208333,-0.001302083,1,0,0,center_square,0,30,30,101,1,,,,,,,,,,,,,,,,,,,,,,,
029926,001,2022-11-21_24h56.57.355,Info_measure_main_exp,2022.2.2,Win32,61.2782646,,,,,,,,,,,,,,,,,,masks/mask_005.jpg,,,,,,,,,,,,,,,,,,,,,,,,,,,,,,,,,,,,,,,,,,,0,0,0,4,1,,,,,,,,,,,,,,,,,,,,,,,,,,,,,,,,,,,,,,,,,,,,,,
029926,001,2022-11-21_24h56.57.355,Info_measure_main_exp,2022.2.2,Win32,61.2782646,,,,,,,,,,,,,,,,,,masks/mask_004.jpg,,,,,,,,,,,,,,,,,,,,,,,,,,,,,,,,,,,,,,,,,,,0,1,1,3,1,,,,,,,,,,,,,,,,,,,,,,,,,,,,,,,,,,,,,,,,,,,,,,
029926,001,2022-11-21_24h56.57.355,Info_measure_main_exp,2022.2.2,Win32,61.2782646,,,,,,,,,,,,,,,,,,masks/mask_003.jpg,,,,,,,,,,,,,,,,,,,,,,,,,,,,,,,,,,,,,,,,,,,0,2,2,2,1,,,,,,,,,,,,,,,,,,,,,,,,,,,,,,,,,,,,,,,,,,,,,,
029926,001,2022-11-21_24h56.57.355,Info_measure_main_exp,2022.2.2,Win32,61.2782646,,,,,,,,,,,,,,,,,,masks/mask_001.jpg,,,,,,,,,,,,,,,,,,,,,,,,,,,,,,,,,,,,,,,,,,,0,3,3,0,1,,,,,,,,,,,,,,,,,,,,,,,,,,,,,,,,,,,,,,,,,,,,,,
029926,001,2022-11-21_24h56.57.355,Info_measure_main_exp,2022.2.2,Win32,61.2782646,,,,,,,,,,,,,,,,,,masks/mask_002.jpg,,,,,,,,,,,,,,,,,,,,,,,,,,,,,,,,,,,,,,,,,,,0,4,4,1,1,,,,,,,,,,,,,,,,,,,,,,,,,,,,,,,,,,,,,,,,,,,,,,
029926,001,2022-11-21_24h56.57.355,Info_measure_main_exp,2022.2.2,Win32,61.2782646,,,,,,,,,,,,,,,,,,masks/mask_002.jpg,,,,,,,,,,,,,,,,,,,,,,,,,,,,,,,,,,,,,,,,,,,,,,,,0,0,0,1,1,,,,,,,,,,,,,,,,,,,,,,,,,,,,,,,,,,,,,,,,,
029926,001,2022-11-21_24h56.57.355,Info_measure_main_exp,2022.2.2,Win32,61.2782646,,,,,,,,,,,,,,,,,,masks/mask_003.jpg,,,,,,,,,,,,,,,,,,,,,,,,,,,,,,,,,,,,,,,,,,,,,,,,0,1,1,2,1,,,,,,,,,,,,,,,,,,,,,,,,,,,,,,,,,,,,,,,,,
029926,001,2022-11-21_24h56.57.355,Info_measure_main_exp,2022.2.2,Win32,61.2782646,,,,,,,,,,,,,,,,,,masks/mask_005.jpg,,,,,,,,,,,,,,,,,,,,,,,,,,,,,,,,,,,,,,,,,,,,,,,,0,2,2,4,1,,,,,,,,,,,,,,,,,,,,,,,,,,,,,,,,,,,,,,,,,
029926,001,2022-11-21_24h56.57.355,Info_measure_main_exp,2022.2.2,Win32,61.2782646,,,,,,,,,,,,,,,,,,masks/mask_001.jpg,,,,,,,,,,,,,,,,,,,,,,,,,,,,,,,,,,,,,,,,,,,,,,,,0,3,3,0,1,,,,,,,,,,,,,,,,,,,,,,,,,,,,,,,,,,,,,,,,,
029926,001,2022-11-21_24h56.57.355,Info_measure_main_exp,2022.2.2,Win32,61.2782646,,,,,,,,,,,,,,,,,,masks/mask_004.jpg,,,,,,,,,,,,,,,,,,,,,,,,,,,,,,,,,,,,,,,,,,,,,,,,0,4,4,3,1,,,,,,,,,,,,,,,,,,,,,,,,,,,,,,,,,,,,,,,,,
029926,001,2022-11-21_24h56.57.355,Info_measure_main_exp,2022.2.2,Win32,61.2782646,,,,,,,,,,,,,,,,,,,,,,,,,,,,,,6,0.9501,1,,,,,,,,,,,,0,131,5,5,2082,2166,absent_patch/patch0002082.jpg,absent_patch/patch0002166.jpg,,,,,,,,,,,,,,,,,,,,0.111979167,0.04296875,1,0,0,response1disk,32,0.005208333,-0.001302083,1,0,0,center_square,0,31,31,43,1,,,,,,,,,,,,,,,,,,,,,,,
029926,001,2022-11-21_24h56.57.355,Info_measure_main_exp,2022.2.2,Win32,61.2782646,,,,,,,,,,,,,,,,,,masks/mask_002.jpg,,,,,,,,,,,,,,,,,,,,,,,,,,,,,,,,,,,,,,,,,,,0,0,0,1,1,,,,,,,,,,,,,,,,,,,,,,,,,,,,,,,,,,,,,,,,,,,,,,
029926,001,2022-11-21_24h56.57.355,Info_measure_main_exp,2022.2.2,Win32,61.2782646,,,,,,,,,,,,,,,,,,masks/mask_003.jpg,,,,,,,,,,,,,,,,,,,,,,,,,,,,,,,,,,,,,,,,,,,0,1,1,2,1,,,,,,,,,,,,,,,,,,,,,,,,,,,,,,,,,,,,,,,,,,,,,,
029926,001,2022-11-21_24h56.57.355,Info_measure_main_exp,2022.2.2,Win32,61.2782646,,,,,,,,,,,,,,,,,,masks/mask_005.jpg,,,,,,,,,,,,,,,,,,,,,,,,,,,,,,,,,,,,,,,,,,,0,2,2,4,1,,,,,,,,,,,,,,,,,,,,,,,,,,,,,,,,,,,,,,,,,,,,,,
029926,001,2022-11-21_24h56.57.355,Info_measure_main_exp,2022.2.2,Win32,61.2782646,,,,,,,,,,,,,,,,,,masks/mask_001.jpg,,,,,,,,,,,,,,,,,,,,,,,,,,,,,,,,,,,,,,,,,,,0,3,3,0,1,,,,,,,,,,,,,,,,,,,,,,,,,,,,,,,,,,,,,,,,,,,,,,
029926,001,2022-11-21_24h56.57.355,Info_measure_main_exp,2022.2.2,Win32,61.2782646,,,,,,,,,,,,,,,,,,masks/mask_004.jpg,,,,,,,,,,,,,,,,,,,,,,,,,,,,,,,,,,,,,,,,,,,0,4,4,3,1,,,,,,,,,,,,,,,,,,,,,,,,,,,,,,,,,,,,,,,,,,,,,,
029926,001,2022-11-21_24h56.57.355,Info_measure_main_exp,2022.2.2,Win32,61.2782646,,,,,,,,,,,,,,,,,,masks/mask_005.jpg,,,,,,,,,,,,,,,,,,,,,,,,,,,,,,,,,,,,,,,,,,,,,,,,0,0,0,4,1,,,,,,,,,,,,,,,,,,,,,,,,,,,,,,,,,,,,,,,,,
029926,001,2022-11-21_24h56.57.355,Info_measure_main_exp,2022.2.2,Win32,61.2782646,,,,,,,,,,,,,,,,,,masks/mask_003.jpg,,,,,,,,,,,,,,,,,,,,,,,,,,,,,,,,,,,,,,,,,,,,,,,,0,1,1,2,1,,,,,,,,,,,,,,,,,,,,,,,,,,,,,,,,,,,,,,,,,
029926,001,2022-11-21_24h56.57.355,Info_measure_main_exp,2022.2.2,Win32,61.2782646,,,,,,,,,,,,,,,,,,masks/mask_002.jpg,,,,,,,,,,,,,,,,,,,,,,,,,,,,,,,,,,,,,,,,,,,,,,,,0,2,2,1,1,,,,,,,,,,,,,,,,,,,,,,,,,,,,,,,,,,,,,,,,,
029926,001,2022-11-21_24h56.57.355,Info_measure_main_exp,2022.2.2,Win32,61.2782646,,,,,,,,,,,,,,,,,,masks/mask_004.jpg,,,,,,,,,,,,,,,,,,,,,,,,,,,,,,,,,,,,,,,,,,,,,,,,0,3,3,3,1,,,,,,,,,,,,,,,,,,,,,,,,,,,,,,,,,,,,,,,,,
029926,001,2022-11-21_24h56.57.355,Info_measure_main_exp,2022.2.2,Win32,61.2782646,,,,,,,,,,,,,,,,,,masks/mask_001.jpg,,,,,,,,,,,,,,,,,,,,,,,,,,,,,,,,,,,,,,,,,,,,,,,,0,4,4,0,1,,,,,,,,,,,,,,,,,,,,,,,,,,,,,,,,,,,,,,,,,
029926,001,2022-11-21_24h56.57.355,Info_measure_main_exp,2022.2.2,Win32,61.2782646,,,,,,,,,,,,,,,,,,,,,,,,,,,,,,6,1.1165,1,,,,,,,,,,,,0,131,5,5,2274,1950,absent_patch/patch0002274.jpg,absent_patch/patch0001950.jpg,,,,,,,,,,,,,,,,,,,,0.139322917,0.045572917,1,0,0,response1disk,33,-0.001302083,0.006510417,1,0,0,center_square,0,32,32,10,1,,,,,,,,,,,,,,,,,,,,,,,
029926,001,2022-11-21_24h56.57.355,Info_measure_main_exp,2022.2.2,Win32,61.2782646,,,,,,,,,,,,,,,,,,masks/mask_003.jpg,,,,,,,,,,,,,,,,,,,,,,,,,,,,,,,,,,,,,,,,,,,0,0,0,2,1,,,,,,,,,,,,,,,,,,,,,,,,,,,,,,,,,,,,,,,,,,,,,,
029926,001,2022-11-21_24h56.57.355,Info_measure_main_exp,2022.2.2,Win32,61.2782646,,,,,,,,,,,,,,,,,,masks/mask_001.jpg,,,,,,,,,,,,,,,,,,,,,,,,,,,,,,,,,,,,,,,,,,,0,1,1,0,1,,,,,,,,,,,,,,,,,,,,,,,,,,,,,,,,,,,,,,,,,,,,,,
029926,001,2022-11-21_24h56.57.355,Info_measure_main_exp,2022.2.2,Win32,61.2782646,,,,,,,,,,,,,,,,,,masks/mask_005.jpg,,,,,,,,,,,,,,,,,,,,,,,,,,,,,,,,,,,,,,,,,,,0,2,2,4,1,,,,,,,,,,,,,,,,,,,,,,,,,,,,,,,,,,,,,,,,,,,,,,
029926,001,2022-11-21_24h56.57.355,Info_measure_main_exp,2022.2.2,Win32,61.2782646,,,,,,,,,,,,,,,,,,masks/mask_004.jpg,,,,,,,,,,,,,,,,,,,,,,,,,,,,,,,,,,,,,,,,,,,0,3,3,3,1,,,,,,,,,,,,,,,,,,,,,,,,,,,,,,,,,,,,,,,,,,,,,,
029926,001,2022-11-21_24h56.57.355,Info_measure_main_exp,2022.2.2,Win32,61.2782646,,,,,,,,,,,,,,,,,,masks/mask_002.jpg,,,,,,,,,,,,,,,,,,,,,,,,,,,,,,,,,,,,,,,,,,,0,4,4,1,1,,,,,,,,,,,,,,,,,,,,,,,,,,,,,,,,,,,,,,,,,,,,,,
029926,001,2022-11-21_24h56.57.355,Info_measure_main_exp,2022.2.2,Win32,61.2782646,,,,,,,,,,,,,,,,,,masks/mask_002.jpg,,,,,,,,,,,,,,,,,,,,,,,,,,,,,,,,,,,,,,,,,,,,,,,,0,0,0,1,1,,,,,,,,,,,,,,,,,,,,,,,,,,,,,,,,,,,,,,,,,
029926,001,2022-11-21_24h56.57.355,Info_measure_main_exp,2022.2.2,Win32,61.2782646,,,,,,,,,,,,,,,,,,masks/mask_005.jpg,,,,,,,,,,,,,,,,,,,,,,,,,,,,,,,,,,,,,,,,,,,,,,,,0,1,1,4,1,,,,,,,,,,,,,,,,,,,,,,,,,,,,,,,,,,,,,,,,,
029926,001,2022-11-21_24h56.57.355,Info_measure_main_exp,2022.2.2,Win32,61.2782646,,,,,,,,,,,,,,,,,,masks/mask_003.jpg,,,,,,,,,,,,,,,,,,,,,,,,,,,,,,,,,,,,,,,,,,,,,,,,0,2,2,2,1,,,,,,,,,,,,,,,,,,,,,,,,,,,,,,,,,,,,,,,,,
029926,001,2022-11-21_24h56.57.355,Info_measure_main_exp,2022.2.2,Win32,61.2782646,,,,,,,,,,,,,,,,,,masks/mask_004.jpg,,,,,,,,,,,,,,,,,,,,,,,,,,,,,,,,,,,,,,,,,,,,,,,,0,3,3,3,1,,,,,,,,,,,,,,,,,,,,,,,,,,,,,,,,,,,,,,,,,
029926,001,2022-11-21_24h56.57.355,Info_measure_main_exp,2022.2.2,Win32,61.2782646,,,,,,,,,,,,,,,,,,masks/mask_001.jpg,,,,,,,,,,,,,,,,,,,,,,,,,,,,,,,,,,,,,,,,,,,,,,,,0,4,4,0,1,,,,,,,,,,,,,,,,,,,,,,,,,,,,,,,,,,,,,,,,,
029926,001,2022-11-21_24h56.57.355,Info_measure_main_exp,2022.2.2,Win32,61.2782646,,,,,,,,,,,,,,,,,,,,,,,,,,,,,,0,0.7894,1,,,,,,,,,,,,0,131,5,5,2274,2274,absent_patch/patch0002274.jpg,absent_patch/patch0002274.jpg,,,,,,,,,,,,,,,,,,,,-0.053385417,0.110677083,1,0,0,response7disk,34,-0.002604167,0.0078125,1,0,0,center_square,0,33,33,114,1,,,,,,,,,,,,,,,,,,,,,,,
029926,001,2022-11-21_24h56.57.355,Info_measure_main_exp,2022.2.2,Win32,61.2782646,,,,,,,,,,,,,,,,,,masks/mask_003.jpg,,,,,,,,,,,,,,,,,,,,,,,,,,,,,,,,,,,,,,,,,,,0,0,0,2,1,,,,,,,,,,,,,,,,,,,,,,,,,,,,,,,,,,,,,,,,,,,,,,
029926,001,2022-11-21_24h56.57.355,Info_measure_main_exp,2022.2.2,Win32,61.2782646,,,,,,,,,,,,,,,,,,masks/mask_002.jpg,,,,,,,,,,,,,,,,,,,,,,,,,,,,,,,,,,,,,,,,,,,0,1,1,1,1,,,,,,,,,,,,,,,,,,,,,,,,,,,,,,,,,,,,,,,,,,,,,,
029926,001,2022-11-21_24h56.57.355,Info_measure_main_exp,2022.2.2,Win32,61.2782646,,,,,,,,,,,,,,,,,,masks/mask_005.jpg,,,,,,,,,,,,,,,,,,,,,,,,,,,,,,,,,,,,,,,,,,,0,2,2,4,1,,,,,,,,,,,,,,,,,,,,,,,,,,,,,,,,,,,,,,,,,,,,,,
029926,001,2022-11-21_24h56.57.355,Info_measure_main_exp,2022.2.2,Win32,61.2782646,,,,,,,,,,,,,,,,,,masks/mask_001.jpg,,,,,,,,,,,,,,,,,,,,,,,,,,,,,,,,,,,,,,,,,,,0,3,3,0,1,,,,,,,,,,,,,,,,,,,,,,,,,,,,,,,,,,,,,,,,,,,,,,
029926,001,2022-11-21_24h56.57.355,Info_measure_main_exp,2022.2.2,Win32,61.2782646,,,,,,,,,,,,,,,,,,masks/mask_004.jpg,,,,,,,,,,,,,,,,,,,,,,,,,,,,,,,,,,,,,,,,,,,0,4,4,3,1,,,,,,,,,,,,,,,,,,,,,,,,,,,,,,,,,,,,,,,,,,,,,,
029926,001,2022-11-21_24h56.57.355,Info_measure_main_exp,2022.2.2,Win32,61.2782646,,,,,,,,,,,,,,,,,,masks/mask_002.jpg,,,,,,,,,,,,,,,,,,,,,,,,,,,,,,,,,,,,,,,,,,,,,,,,0,0,0,1,1,,,,,,,,,,,,,,,,,,,,,,,,,,,,,,,,,,,,,,,,,
029926,001,2022-11-21_24h56.57.355,Info_measure_main_exp,2022.2.2,Win32,61.2782646,,,,,,,,,,,,,,,,,,masks/mask_004.jpg,,,,,,,,,,,,,,,,,,,,,,,,,,,,,,,,,,,,,,,,,,,,,,,,0,1,1,3,1,,,,,,,,,,,,,,,,,,,,,,,,,,,,,,,,,,,,,,,,,
029926,001,2022-11-21_24h56.57.355,Info_measure_main_exp,2022.2.2,Win32,61.2782646,,,,,,,,,,,,,,,,,,masks/mask_003.jpg,,,,,,,,,,,,,,,,,,,,,,,,,,,,,,,,,,,,,,,,,,,,,,,,0,2,2,2,1,,,,,,,,,,,,,,,,,,,,,,,,,,,,,,,,,,,,,,,,,
029926,001,2022-11-21_24h56.57.355,Info_measure_main_exp,2022.2.2,Win32,61.2782646,,,,,,,,,,,,,,,,,,masks/mask_001.jpg,,,,,,,,,,,,,,,,,,,,,,,,,,,,,,,,,,,,,,,,,,,,,,,,0,3,3,0,1,,,,,,,,,,,,,,,,,,,,,,,,,,,,,,,,,,,,,,,,,
029926,001,2022-11-21_24h56.57.355,Info_measure_main_exp,2022.2.2,Win32,61.2782646,,,,,,,,,,,,,,,,,,masks/mask_005.jpg,,,,,,,,,,,,,,,,,,,,,,,,,,,,,,,,,,,,,,,,,,,,,,,,0,4,4,4,1,,,,,,,,,,,,,,,,,,,,,,,,,,,,,,,,,,,,,,,,,
