participant,session,date,expName,psychopyVersion,OS,frameRate,space_press_continue.keys,space_press_continue.rt,space_press_continue_2.keys,space_press_continue_2.rt,space_press_continue_3.keys,space_press_continue_3.rt,space_press_continue_4.keys,space_press_continue_4.rt,space_press_continue_5.keys,space_press_continue_5.rt,space_press_continue_6.keys,space_press_continue_6.rt,prac_mask_loop_1.thisRepN,prac_mask_loop_1.thisTrialN,prac_mask_loop_1.thisN,prac_mask_loop_1.thisIndex,prac_mask_loop_1.ran,mask_name,prac_mask_loop_2.thisRepN,prac_mask_loop_2.thisTrialN,prac_mask_loop_2.thisN,prac_mask_loop_2.thisIndex,prac_mask_loop_2.ran,mouse_2.x,mouse_2.y,mouse_2.leftButton,mouse_2.midButton,mouse_2.rightButton,mouse_2.clicked_name,similarity,response_time,Pass,mouse_12.x,mouse_12.y,mouse_12.leftButton,mouse_12.midButton,mouse_12.rightButton,mouse_12.clicked_name,prac_loop.thisRepN,prac_loop.thisTrialN,prac_loop.thisN,prac_loop.thisIndex,prac_loop.ran,Pair_type,Image_num,Patch_1_loc,Patch_2_loc,Patch_1_info,Patch_2_info,Patch_1_name,Patch_2_name,mouse_1.x,mouse_1.y,mouse_1.leftButton,mouse_1.midButton,mouse_1.rightButton,mouse_1.time,mouse_1.clicked_name,space_press_continue_7.keys,space_press_continue_7.rt,mask_loop.thisRepN,mask_loop.thisTrialN,mask_loop.thisN,mask_loop.thisIndex,mask_loop.ran,mask_loop_2.thisRepN,mask_loop_2.thisTrialN,mask_loop_2.thisN,mask_loop_2.thisIndex,mask_loop_2.ran,mouse.x,mouse.y,mouse.leftButton,mouse.midButton,mouse.rightButton,mouse.clicked_name,trialNumber,mouse_11.x,mouse_11.y,mouse_11.leftButton,mouse_11.midButton,mouse_11.rightButton,mouse_11.clicked_name,first_pass_loop.thisRepN,first_pass_loop.thisTrialN,first_pass_loop.thisN,first_pass_loop.thisIndex,first_pass_loop.ran,mask_loop_3.thisRepN,mask_loop_3.thisTrialN,mask_loop_3.thisN,mask_loop_3.thisIndex,mask_loop_3.ran,mask_loop_4.thisRepN,mask_loop_4.thisTrialN,mask_loop_4.thisN,mask_loop_4.thisIndex,mask_loop_4.ran,mouse_3.x,mouse_3.y,mouse_3.leftButton,mouse_3.midButton,mouse_3.rightButton,mouse_3.clicked_name,double_pass_loop.thisRepN,double_pass_loop.thisTrialN,double_pass_loop.thisN,double_pass_loop.thisIndex,double_pass_loop.ran,space_exit.keys,space_exit.rt
035072,001,2022-11-21_24h55.25.382,Info_measure_main_exp,2022.2.2,Win32,60.08893162,,,,,,,,,,,,,,,,,,,,,,,,,,,,,,,,,,,,,,,,,,,,,,,,,,,,,,,,,,,,,,,,,,,,,,,,,,,,,,,,,,,,,,,,,,,,,,,,,,,,,,,,,,,,,,,
035072,001,2022-11-21_24h55.25.382,Info_measure_main_exp,2022.2.2,Win32,60.08893162,,,,,,,,,,,,,,,,,,,,,,,,,,,,,,,,,,,,,,,,,,,,,,,,,,,,,,,,,,,,,,,,,,,,,,,,,,,,,,,,,,,,,,,,,,,,,,,,,,,,,,,,,,,,,,,
035072,001,2022-11-21_24h55.25.382,Info_measure_main_exp,2022.2.2,Win32,60.08893162,space,4.9316,,,,,,,,,,,,,,,,,,,,,,,,,,,,,,,,,,,,,,,,,,,,,,,,,,,,,,,,,,,,,,,,,,,,,,,,,,,,,,,,,,,,,,,,,,,,,,,,,,,,,,,,,,,,,
035072,001,2022-11-21_24h55.25.382,Info_measure_main_exp,2022.2.2,Win32,60.08893162,,,space,13.1283,,,,,,,,,,,,,,,,,,,,,,,,,,,,,,,,,,,,,,,,,,,,,,,,,,,,,,,,,,,,,,,,,,,,,,,,,,,,,,,,,,,,,,,,,,,,,,,,,,,,,,,,,,,
035072,001,2022-11-21_24h55.25.382,Info_measure_main_exp,2022.2.2,Win32,60.08893162,,,,,space,5.3315,,,,,,,,,,,,,,,,,,,,,,,,,,,,,,,,,,,,,,,,,,,,,,,,,,,,,,,,,,,,,,,,,,,,,,,,,,,,,,,,,,,,,,,,,,,,,,,,,,,,,,,,,
035072,001,2022-11-21_24h55.25.382,Info_measure_main_exp,2022.2.2,Win32,60.08893162,,,,,,,space,21.7412,,,,,,,,,,,,,,,,,,,,,,,,,,,,,,,,,,,,,,,,,,,,,,,,,,,,,,,,,,,,,,,,,,,,,,,,,,,,,,,,,,,,,,,,,,,,,,,,,,,,,,,
035072,001,2022-11-21_24h55.25.382,Info_measure_main_exp,2022.2.2,Win32,60.08893162,,,,,,,,,space,7.132,,,,,,,,,,,,,,,,,,,,,,,,,,,,,,,,,,,,,,,,,,,,,,,,,,,,,,,,,,,,,,,,,,,,,,,,,,,,,,,,,,,,,,,,,,,,,,,,,,,,,
035072,001,2022-11-21_24h55.25.382,Info_measure_main_exp,2022.2.2,Win32,60.08893162,,,,,,,,,,,space,1.872,,,,,,,,,,,,,,,,,,,,,,,,,,,,,,,,,,,,,,,,,,,,,,,,,,,,,,,,,,,,,,,,,,,,,,,,,,,,,,,,,,,,,,,,,,,,,,,,,,,
035072,001,2022-11-21_24h55.25.382,Info_measure_main_exp,2022.2.2,Win32,60.08893162,,,,,,,,,,,,,0,0,0,2,1,masks/mask_003.jpg,,,,,,,,,,,,,,,,,,,,,,,,,,,,,,,,,,,,,,,,,,,,,,,,,,,,,,,,,,,,,,,,,,,,,,,,,,,,,,,,,,,,,,,,,,,,,
035072,001,2022-11-21_24h55.25.382,Info_measure_main_exp,2022.2.2,Win32,60.08893162,,,,,,,,,,,,,0,1,1,3,1,masks/mask_004.jpg,,,,,,,,,,,,,,,,,,,,,,,,,,,,,,,,,,,,,,,,,,,,,,,,,,,,,,,,,,,,,,,,,,,,,,,,,,,,,,,,,,,,,,,,,,,,,
035072,001,2022-11-21_24h55.25.382,Info_measure_main_exp,2022.2.2,Win32,60.08893162,,,,,,,,,,,,,0,2,2,0,1,masks/mask_001.jpg,,,,,,,,,,,,,,,,,,,,,,,,,,,,,,,,,,,,,,,,,,,,,,,,,,,,,,,,,,,,,,,,,,,,,,,,,,,,,,,,,,,,,,,,,,,,,
035072,001,2022-11-21_24h55.25.382,Info_measure_main_exp,2022.2.2,Win32,60.08893162,,,,,,,,,,,,,0,3,3,1,1,masks/mask_002.jpg,,,,,,,,,,,,,,,,,,,,,,,,,,,,,,,,,,,,,,,,,,,,,,,,,,,,,,,,,,,,,,,,,,,,,,,,,,,,,,,,,,,,,,,,,,,,,
035072,001,2022-11-21_24h55.25.382,Info_measure_main_exp,2022.2.2,Win32,60.08893162,,,,,,,,,,,,,0,4,4,4,1,masks/mask_005.jpg,,,,,,,,,,,,,,,,,,,,,,,,,,,,,,,,,,,,,,,,,,,,,,,,,,,,,,,,,,,,,,,,,,,,,,,,,,,,,,,,,,,,,,,,,,,,,
035072,001,2022-11-21_24h55.25.382,Info_measure_main_exp,2022.2.2,Win32,60.08893162,,,,,,,,,,,,,,,,,,masks/mask_005.jpg,0,0,0,4,1,,,,,,,,,,,,,,,,,,,,,,,,,,,,,,,,,,,,,,,,,,,,,,,,,,,,,,,,,,,,,,,,,,,,,,,,,,,,,,,,,,,,,,,,
035072,001,2022-11-21_24h55.25.382,Info_measure_main_exp,2022.2.2,Win32,60.08893162,,,,,,,,,,,,,,,,,,masks/mask_002.jpg,0,1,1,1,1,,,,,,,,,,,,,,,,,,,,,,,,,,,,,,,,,,,,,,,,,,,,,,,,,,,,,,,,,,,,,,,,,,,,,,,,,,,,,,,,,,,,,,,,
035072,001,2022-11-21_24h55.25.382,Info_measure_main_exp,2022.2.2,Win32,60.08893162,,,,,,,,,,,,,,,,,,masks/mask_001.jpg,0,2,2,0,1,,,,,,,,,,,,,,,,,,,,,,,,,,,,,,,,,,,,,,,,,,,,,,,,,,,,,,,,,,,,,,,,,,,,,,,,,,,,,,,,,,,,,,,,
035072,001,2022-11-21_24h55.25.382,Info_measure_main_exp,2022.2.2,Win32,60.08893162,,,,,,,,,,,,,,,,,,masks/mask_003.jpg,0,3,3,2,1,,,,,,,,,,,,,,,,,,,,,,,,,,,,,,,,,,,,,,,,,,,,,,,,,,,,,,,,,,,,,,,,,,,,,,,,,,,,,,,,,,,,,,,,
035072,001,2022-11-21_24h55.25.382,Info_measure_main_exp,2022.2.2,Win32,60.08893162,,,,,,,,,,,,,,,,,,masks/mask_004.jpg,0,4,4,3,1,,,,,,,,,,,,,,,,,,,,,,,,,,,,,,,,,,,,,,,,,,,,,,,,,,,,,,,,,,,,,,,,,,,,,,,,,,,,,,,,,,,,,,,,
035072,001,2022-11-21_24h55.25.382,Info_measure_main_exp,2022.2.2,Win32,60.08893162,,,,,,,,,,,,,,,,,,,,,,,,0.122222222,0.032407407,1,0,0,response1disk,6,64.29,1,-0.000925926,0.001851852,1,0,0,center_square,0,0,0,0,1,0,131,5,5,2370,2406,prac_patch/patch0002370.jpg,prac_patch/patch0002406.jpg,,,,,,,,,,,,,,,,,,,,,,,,,,,,,,,,,,,,,,,,,,,,,,,,,,,,,,,,,,,,
035072,001,2022-11-21_24h55.25.382,Info_measure_main_exp,2022.2.2,Win32,60.08893162,,,,,,,,,,,,,0,0,0,4,1,masks/mask_005.jpg,,,,,,,,,,,,,,,,,,,,,,,,,,,,,,,,,,,,,,,,,,,,,,,,,,,,,,,,,,,,,,,,,,,,,,,,,,,,,,,,,,,,,,,,,,,,,
035072,001,2022-11-21_24h55.25.382,Info_measure_main_exp,2022.2.2,Win32,60.08893162,,,,,,,,,,,,,0,1,1,2,1,masks/mask_003.jpg,,,,,,,,,,,,,,,,,,,,,,,,,,,,,,,,,,,,,,,,,,,,,,,,,,,,,,,,,,,,,,,,,,,,,,,,,,,,,,,,,,,,,,,,,,,,,
035072,001,2022-11-21_24h55.25.382,Info_measure_main_exp,2022.2.2,Win32,60.08893162,,,,,,,,,,,,,0,2,2,3,1,masks/mask_004.jpg,,,,,,,,,,,,,,,,,,,,,,,,,,,,,,,,,,,,,,,,,,,,,,,,,,,,,,,,,,,,,,,,,,,,,,,,,,,,,,,,,,,,,,,,,,,,,
035072,001,2022-11-21_24h55.25.382,Info_measure_main_exp,2022.2.2,Win32,60.08893162,,,,,,,,,,,,,0,3,3,0,1,masks/mask_001.jpg,,,,,,,,,,,,,,,,,,,,,,,,,,,,,,,,,,,,,,,,,,,,,,,,,,,,,,,,,,,,,,,,,,,,,,,,,,,,,,,,,,,,,,,,,,,,,
035072,001,2022-11-21_24h55.25.382,Info_measure_main_exp,2022.2.2,Win32,60.08893162,,,,,,,,,,,,,0,4,4,1,1,masks/mask_002.jpg,,,,,,,,,,,,,,,,,,,,,,,,,,,,,,,,,,,,,,,,,,,,,,,,,,,,,,,,,,,,,,,,,,,,,,,,,,,,,,,,,,,,,,,,,,,,,
035072,001,2022-11-21_24h55.25.382,Info_measure_main_exp,2022.2.2,Win32,60.08893162,,,,,,,,,,,,,,,,,,masks/mask_002.jpg,0,0,0,1,1,,,,,,,,,,,,,,,,,,,,,,,,,,,,,,,,,,,,,,,,,,,,,,,,,,,,,,,,,,,,,,,,,,,,,,,,,,,,,,,,,,,,,,,,
035072,001,2022-11-21_24h55.25.382,Info_measure_main_exp,2022.2.2,Win32,60.08893162,,,,,,,,,,,,,,,,,,masks/mask_001.jpg,0,1,1,0,1,,,,,,,,,,,,,,,,,,,,,,,,,,,,,,,,,,,,,,,,,,,,,,,,,,,,,,,,,,,,,,,,,,,,,,,,,,,,,,,,,,,,,,,,
035072,001,2022-11-21_24h55.25.382,Info_measure_main_exp,2022.2.2,Win32,60.08893162,,,,,,,,,,,,,,,,,,masks/mask_003.jpg,0,2,2,2,1,,,,,,,,,,,,,,,,,,,,,,,,,,,,,,,,,,,,,,,,,,,,,,,,,,,,,,,,,,,,,,,,,,,,,,,,,,,,,,,,,,,,,,,,
035072,001,2022-11-21_24h55.25.382,Info_measure_main_exp,2022.2.2,Win32,60.08893162,,,,,,,,,,,,,,,,,,masks/mask_004.jpg,0,3,3,3,1,,,,,,,,,,,,,,,,,,,,,,,,,,,,,,,,,,,,,,,,,,,,,,,,,,,,,,,,,,,,,,,,,,,,,,,,,,,,,,,,,,,,,,,,
035072,001,2022-11-21_24h55.25.382,Info_measure_main_exp,2022.2.2,Win32,60.08893162,,,,,,,,,,,,,,,,,,masks/mask_005.jpg,0,4,4,4,1,,,,,,,,,,,,,,,,,,,,,,,,,,,,,,,,,,,,,,,,,,,,,,,,,,,,,,,,,,,,,,,,,,,,,,,,,,,,,,,,,,,,,,,,
035072,001,2022-11-21_24h55.25.382,Info_measure_main_exp,2022.2.2,Win32,60.08893162,,,,,,,,,,,,,,,,,,,,,,,,-0.068518519,0.138888889,1,0,0,response7disk,0,74.2653,1,0,0.005555556,1,0,0,center_square,0,1,1,2,1,0,131,5,5,2526,2526,prac_patch/patch0002526.jpg,prac_patch/patch0002526.jpg,,,,,,,,,,,,,,,,,,,,,,,,,,,,,,,,,,,,,,,,,,,,,,,,,,,,,,,,,,,,
035072,001,2022-11-21_24h55.25.382,Info_measure_main_exp,2022.2.2,Win32,60.08893162,,,,,,,,,,,,,0,0,0,2,1,masks/mask_003.jpg,,,,,,,,,,,,,,,,,,,,,,,,,,,,,,,,,,,,,,,,,,,,,,,,,,,,,,,,,,,,,,,,,,,,,,,,,,,,,,,,,,,,,,,,,,,,,
035072,001,2022-11-21_24h55.25.382,Info_measure_main_exp,2022.2.2,Win32,60.08893162,,,,,,,,,,,,,0,1,1,3,1,masks/mask_004.jpg,,,,,,,,,,,,,,,,,,,,,,,,,,,,,,,,,,,,,,,,,,,,,,,,,,,,,,,,,,,,,,,,,,,,,,,,,,,,,,,,,,,,,,,,,,,,,
035072,001,2022-11-21_24h55.25.382,Info_measure_main_exp,2022.2.2,Win32,60.08893162,,,,,,,,,,,,,0,2,2,1,1,masks/mask_002.jpg,,,,,,,,,,,,,,,,,,,,,,,,,,,,,,,,,,,,,,,,,,,,,,,,,,,,,,,,,,,,,,,,,,,,,,,,,,,,,,,,,,,,,,,,,,,,,
035072,001,2022-11-21_24h55.25.382,Info_measure_main_exp,2022.2.2,Win32,60.08893162,,,,,,,,,,,,,0,3,3,4,1,masks/mask_005.jpg,,,,,,,,,,,,,,,,,,,,,,,,,,,,,,,,,,,,,,,,,,,,,,,,,,,,,,,,,,,,,,,,,,,,,,,,,,,,,,,,,,,,,,,,,,,,,
035072,001,2022-11-21_24h55.25.382,Info_measure_main_exp,2022.2.2,Win32,60.08893162,,,,,,,,,,,,,0,4,4,0,1,masks/mask_001.jpg,,,,,,,,,,,,,,,,,,,,,,,,,,,,,,,,,,,,,,,,,,,,,,,,,,,,,,,,,,,,,,,,,,,,,,,,,,,,,,,,,,,,,,,,,,,,,
035072,001,2022-11-21_24h55.25.382,Info_measure_main_exp,2022.2.2,Win32,60.08893162,,,,,,,,,,,,,,,,,,masks/mask_005.jpg,0,0,0,4,1,,,,,,,,,,,,,,,,,,,,,,,,,,,,,,,,,,,,,,,,,,,,,,,,,,,,,,,,,,,,,,,,,,,,,,,,,,,,,,,,,,,,,,,,
035072,001,2022-11-21_24h55.25.382,Info_measure_main_exp,2022.2.2,Win32,60.08893162,,,,,,,,,,,,,,,,,,masks/mask_002.jpg,0,1,1,1,1,,,,,,,,,,,,,,,,,,,,,,,,,,,,,,,,,,,,,,,,,,,,,,,,,,,,,,,,,,,,,,,,,,,,,,,,,,,,,,,,,,,,,,,,
035072,001,2022-11-21_24h55.25.382,Info_measure_main_exp,2022.2.2,Win32,60.08893162,,,,,,,,,,,,,,,,,,masks/mask_001.jpg,0,2,2,0,1,,,,,,,,,,,,,,,,,,,,,,,,,,,,,,,,,,,,,,,,,,,,,,,,,,,,,,,,,,,,,,,,,,,,,,,,,,,,,,,,,,,,,,,,
035072,001,2022-11-21_24h55.25.382,Info_measure_main_exp,2022.2.2,Win32,60.08893162,,,,,,,,,,,,,,,,,,masks/mask_003.jpg,0,3,3,2,1,,,,,,,,,,,,,,,,,,,,,,,,,,,,,,,,,,,,,,,,,,,,,,,,,,,,,,,,,,,,,,,,,,,,,,,,,,,,,,,,,,,,,,,,
035072,001,2022-11-21_24h55.25.382,Info_measure_main_exp,2022.2.2,Win32,60.08893162,,,,,,,,,,,,,,,,,,masks/mask_004.jpg,0,4,4,3,1,,,,,,,,,,,,,,,,,,,,,,,,,,,,,,,,,,,,,,,,,,,,,,,,,,,,,,,,,,,,,,,,,,,,,,,,,,,,,,,,,,,,,,,,
035072,001,2022-11-21_24h55.25.382,Info_measure_main_exp,2022.2.2,Win32,60.08893162,,,,,,,,,,,,,,,,,,,,,,,,0.012962963,-0.087962963,1,0,0,response3disk,4,84.8657,1,0.002777778,0.005555556,1,0,0,center_square,0,2,2,1,1,0,131,5,5,2514,2490,prac_patch/patch0002514.jpg,prac_patch/patch0002490.jpg,,,,,,,,,,,,,,,,,,,,,,,,,,,,,,,,,,,,,,,,,,,,,,,,,,,,,,,,,,,,
035072,001,2022-11-21_24h55.25.382,Info_measure_main_exp,2022.2.2,Win32,60.08893162,,,,,,,,,,,,,,,,,,,,,,,,,,,,,,,,,,,,,,,,,,,,,,,,,,,,,,,,,,,space,1.5547,,,,,,,,,,,,,,,,,,,,,,,,,,,,,,,,,,,,,,,,,,,,,,,,,,,
035072,001,2022-11-21_24h55.25.382,Info_measure_main_exp,2022.2.2,Win32,60.08893162,,,,,,,,,,,,,,,,,,masks/mask_005.jpg,,,,,,,,,,,,,,,,,,,,,,,,,,,,,,,,,,,,,,,,,,,0,0,0,4,1,,,,,,,,,,,,,,,,,,,,,,,,,,,,,,,,,,,,,,,,,,,,,,
035072,001,2022-11-21_24h55.25.382,Info_measure_main_exp,2022.2.2,Win32,60.08893162,,,,,,,,,,,,,,,,,,masks/mask_001.jpg,,,,,,,,,,,,,,,,,,,,,,,,,,,,,,,,,,,,,,,,,,,0,1,1,0,1,,,,,,,,,,,,,,,,,,,,,,,,,,,,,,,,,,,,,,,,,,,,,,
035072,001,2022-11-21_24h55.25.382,Info_measure_main_exp,2022.2.2,Win32,60.08893162,,,,,,,,,,,,,,,,,,masks/mask_004.jpg,,,,,,,,,,,,,,,,,,,,,,,,,,,,,,,,,,,,,,,,,,,0,2,2,3,1,,,,,,,,,,,,,,,,,,,,,,,,,,,,,,,,,,,,,,,,,,,,,,
035072,001,2022-11-21_24h55.25.382,Info_measure_main_exp,2022.2.2,Win32,60.08893162,,,,,,,,,,,,,,,,,,masks/mask_003.jpg,,,,,,,,,,,,,,,,,,,,,,,,,,,,,,,,,,,,,,,,,,,0,3,3,2,1,,,,,,,,,,,,,,,,,,,,,,,,,,,,,,,,,,,,,,,,,,,,,,
035072,001,2022-11-21_24h55.25.382,Info_measure_main_exp,2022.2.2,Win32,60.08893162,,,,,,,,,,,,,,,,,,masks/mask_002.jpg,,,,,,,,,,,,,,,,,,,,,,,,,,,,,,,,,,,,,,,,,,,0,4,4,1,1,,,,,,,,,,,,,,,,,,,,,,,,,,,,,,,,,,,,,,,,,,,,,,
035072,001,2022-11-21_24h55.25.382,Info_measure_main_exp,2022.2.2,Win32,60.08893162,,,,,,,,,,,,,,,,,,masks/mask_001.jpg,,,,,,,,,,,,,,,,,,,,,,,,,,,,,,,,,,,,,,,,,,,,,,,,0,0,0,0,1,,,,,,,,,,,,,,,,,,,,,,,,,,,,,,,,,,,,,,,,,
035072,001,2022-11-21_24h55.25.382,Info_measure_main_exp,2022.2.2,Win32,60.08893162,,,,,,,,,,,,,,,,,,masks/mask_004.jpg,,,,,,,,,,,,,,,,,,,,,,,,,,,,,,,,,,,,,,,,,,,,,,,,0,1,1,3,1,,,,,,,,,,,,,,,,,,,,,,,,,,,,,,,,,,,,,,,,,
035072,001,2022-11-21_24h55.25.382,Info_measure_main_exp,2022.2.2,Win32,60.08893162,,,,,,,,,,,,,,,,,,masks/mask_005.jpg,,,,,,,,,,,,,,,,,,,,,,,,,,,,,,,,,,,,,,,,,,,,,,,,0,2,2,4,1,,,,,,,,,,,,,,,,,,,,,,,,,,,,,,,,,,,,,,,,,
035072,001,2022-11-21_24h55.25.382,Info_measure_main_exp,2022.2.2,Win32,60.08893162,,,,,,,,,,,,,,,,,,masks/mask_003.jpg,,,,,,,,,,,,,,,,,,,,,,,,,,,,,,,,,,,,,,,,,,,,,,,,0,3,3,2,1,,,,,,,,,,,,,,,,,,,,,,,,,,,,,,,,,,,,,,,,,
035072,001,2022-11-21_24h55.25.382,Info_measure_main_exp,2022.2.2,Win32,60.08893162,,,,,,,,,,,,,,,,,,masks/mask_002.jpg,,,,,,,,,,,,,,,,,,,,,,,,,,,,,,,,,,,,,,,,,,,,,,,,0,4,4,1,1,,,,,,,,,,,,,,,,,,,,,,,,,,,,,,,,,,,,,,,,,
035072,001,2022-11-21_24h55.25.382,Info_measure_main_exp,2022.2.2,Win32,60.08893162,,,,,,,,,,,,,,,,,,,,,,,,,,,,,,7,1.1333,1,,,,,,,,,,,,0,131,5,5,2298,1986,absent_patch/patch0002298.jpg,absent_patch/patch0001986.jpg,,,,,,,,,,,,,,,,,,,,0.035185185,0.142592593,1,0,0,response1disk,1,-0.002777778,0.003703704,1,0,0,center_square,0,0,0,32,1,,,,,,,,,,,,,,,,,,,,,,,
035072,001,2022-11-21_24h55.25.382,Info_measure_main_exp,2022.2.2,Win32,60.08893162,,,,,,,,,,,,,,,,,,masks/mask_002.jpg,,,,,,,,,,,,,,,,,,,,,,,,,,,,,,,,,,,,,,,,,,,0,0,0,1,1,,,,,,,,,,,,,,,,,,,,,,,,,,,,,,,,,,,,,,,,,,,,,,
035072,001,2022-11-21_24h55.25.382,Info_measure_main_exp,2022.2.2,Win32,60.08893162,,,,,,,,,,,,,,,,,,masks/mask_005.jpg,,,,,,,,,,,,,,,,,,,,,,,,,,,,,,,,,,,,,,,,,,,0,1,1,4,1,,,,,,,,,,,,,,,,,,,,,,,,,,,,,,,,,,,,,,,,,,,,,,
035072,001,2022-11-21_24h55.25.382,Info_measure_main_exp,2022.2.2,Win32,60.08893162,,,,,,,,,,,,,,,,,,masks/mask_003.jpg,,,,,,,,,,,,,,,,,,,,,,,,,,,,,,,,,,,,,,,,,,,0,2,2,2,1,,,,,,,,,,,,,,,,,,,,,,,,,,,,,,,,,,,,,,,,,,,,,,
035072,001,2022-11-21_24h55.25.382,Info_measure_main_exp,2022.2.2,Win32,60.08893162,,,,,,,,,,,,,,,,,,masks/mask_004.jpg,,,,,,,,,,,,,,,,,,,,,,,,,,,,,,,,,,,,,,,,,,,0,3,3,3,1,,,,,,,,,,,,,,,,,,,,,,,,,,,,,,,,,,,,,,,,,,,,,,
035072,001,2022-11-21_24h55.25.382,Info_measure_main_exp,2022.2.2,Win32,60.08893162,,,,,,,,,,,,,,,,,,masks/mask_001.jpg,,,,,,,,,,,,,,,,,,,,,,,,,,,,,,,,,,,,,,,,,,,0,4,4,0,1,,,,,,,,,,,,,,,,,,,,,,,,,,,,,,,,,,,,,,,,,,,,,,
035072,001,2022-11-21_24h55.25.382,Info_measure_main_exp,2022.2.2,Win32,60.08893162,,,,,,,,,,,,,,,,,,masks/mask_004.jpg,,,,,,,,,,,,,,,,,,,,,,,,,,,,,,,,,,,,,,,,,,,,,,,,0,0,0,3,1,,,,,,,,,,,,,,,,,,,,,,,,,,,,,,,,,,,,,,,,,
035072,001,2022-11-21_24h55.25.382,Info_measure_main_exp,2022.2.2,Win32,60.08893162,,,,,,,,,,,,,,,,,,masks/mask_002.jpg,,,,,,,,,,,,,,,,,,,,,,,,,,,,,,,,,,,,,,,,,,,,,,,,0,1,1,1,1,,,,,,,,,,,,,,,,,,,,,,,,,,,,,,,,,,,,,,,,,
035072,001,2022-11-21_24h55.25.382,Info_measure_main_exp,2022.2.2,Win32,60.08893162,,,,,,,,,,,,,,,,,,masks/mask_005.jpg,,,,,,,,,,,,,,,,,,,,,,,,,,,,,,,,,,,,,,,,,,,,,,,,0,2,2,4,1,,,,,,,,,,,,,,,,,,,,,,,,,,,,,,,,,,,,,,,,,
035072,001,2022-11-21_24h55.25.382,Info_measure_main_exp,2022.2.2,Win32,60.08893162,,,,,,,,,,,,,,,,,,masks/mask_003.jpg,,,,,,,,,,,,,,,,,,,,,,,,,,,,,,,,,,,,,,,,,,,,,,,,0,3,3,2,1,,,,,,,,,,,,,,,,,,,,,,,,,,,,,,,,,,,,,,,,,
035072,001,2022-11-21_24h55.25.382,Info_measure_main_exp,2022.2.2,Win32,60.08893162,,,,,,,,,,,,,,,,,,masks/mask_001.jpg,,,,,,,,,,,,,,,,,,,,,,,,,,,,,,,,,,,,,,,,,,,,,,,,0,4,4,0,1,,,,,,,,,,,,,,,,,,,,,,,,,,,,,,,,,,,,,,,,,
035072,001,2022-11-21_24h55.25.382,Info_measure_main_exp,2022.2.2,Win32,60.08893162,,,,,,,,,,,,,,,,,,,,,,,,,,,,,,7,0.9665,1,,,,,,,,,,,,0,131,5,5,1950,2238,absent_patch/patch0001950.jpg,absent_patch/patch0002238.jpg,,,,,,,,,,,,,,,,,,,,0.048148148,0.108333333,1,0,0,response1disk,2,0.00462963,0.007407407,1,0,0,center_square,0,1,1,8,1,,,,,,,,,,,,,,,,,,,,,,,
035072,001,2022-11-21_24h55.25.382,Info_measure_main_exp,2022.2.2,Win32,60.08893162,,,,,,,,,,,,,,,,,,masks/mask_001.jpg,,,,,,,,,,,,,,,,,,,,,,,,,,,,,,,,,,,,,,,,,,,0,0,0,0,1,,,,,,,,,,,,,,,,,,,,,,,,,,,,,,,,,,,,,,,,,,,,,,
035072,001,2022-11-21_24h55.25.382,Info_measure_main_exp,2022.2.2,Win32,60.08893162,,,,,,,,,,,,,,,,,,masks/mask_003.jpg,,,,,,,,,,,,,,,,,,,,,,,,,,,,,,,,,,,,,,,,,,,0,1,1,2,1,,,,,,,,,,,,,,,,,,,,,,,,,,,,,,,,,,,,,,,,,,,,,,
035072,001,2022-11-21_24h55.25.382,Info_measure_main_exp,2022.2.2,Win32,60.08893162,,,,,,,,,,,,,,,,,,masks/mask_005.jpg,,,,,,,,,,,,,,,,,,,,,,,,,,,,,,,,,,,,,,,,,,,0,2,2,4,1,,,,,,,,,,,,,,,,,,,,,,,,,,,,,,,,,,,,,,,,,,,,,,
035072,001,2022-11-21_24h55.25.382,Info_measure_main_exp,2022.2.2,Win32,60.08893162,,,,,,,,,,,,,,,,,,masks/mask_002.jpg,,,,,,,,,,,,,,,,,,,,,,,,,,,,,,,,,,,,,,,,,,,0,3,3,1,1,,,,,,,,,,,,,,,,,,,,,,,,,,,,,,,,,,,,,,,,,,,,,,
035072,001,2022-11-21_24h55.25.382,Info_measure_main_exp,2022.2.2,Win32,60.08893162,,,,,,,,,,,,,,,,,,masks/mask_004.jpg,,,,,,,,,,,,,,,,,,,,,,,,,,,,,,,,,,,,,,,,,,,0,4,4,3,1,,,,,,,,,,,,,,,,,,,,,,,,,,,,,,,,,,,,,,,,,,,,,,
035072,001,2022-11-21_24h55.25.382,Info_measure_main_exp,2022.2.2,Win32,60.08893162,,,,,,,,,,,,,,,,,,masks/mask_004.jpg,,,,,,,,,,,,,,,,,,,,,,,,,,,,,,,,,,,,,,,,,,,,,,,,0,0,0,3,1,,,,,,,,,,,,,,,,,,,,,,,,,,,,,,,,,,,,,,,,,
035072,001,2022-11-21_24h55.25.382,Info_measure_main_exp,2022.2.2,Win32,60.08893162,,,,,,,,,,,,,,,,,,masks/mask_002.jpg,,,,,,,,,,,,,,,,,,,,,,,,,,,,,,,,,,,,,,,,,,,,,,,,0,1,1,1,1,,,,,,,,,,,,,,,,,,,,,,,,,,,,,,,,,,,,,,,,,
035072,001,2022-11-21_24h55.25.382,Info_measure_main_exp,2022.2.2,Win32,60.08893162,,,,,,,,,,,,,,,,,,masks/mask_005.jpg,,,,,,,,,,,,,,,,,,,,,,,,,,,,,,,,,,,,,,,,,,,,,,,,0,2,2,4,1,,,,,,,,,,,,,,,,,,,,,,,,,,,,,,,,,,,,,,,,,
035072,001,2022-11-21_24h55.25.382,Info_measure_main_exp,2022.2.2,Win32,60.08893162,,,,,,,,,,,,,,,,,,masks/mask_003.jpg,,,,,,,,,,,,,,,,,,,,,,,,,,,,,,,,,,,,,,,,,,,,,,,,0,3,3,2,1,,,,,,,,,,,,,,,,,,,,,,,,,,,,,,,,,,,,,,,,,
035072,001,2022-11-21_24h55.25.382,Info_measure_main_exp,2022.2.2,Win32,60.08893162,,,,,,,,,,,,,,,,,,masks/mask_001.jpg,,,,,,,,,,,,,,,,,,,,,,,,,,,,,,,,,,,,,,,,,,,,,,,,0,4,4,0,1,,,,,,,,,,,,,,,,,,,,,,,,,,,,,,,,,,,,,,,,,
035072,001,2022-11-21_24h55.25.382,Info_measure_main_exp,2022.2.2,Win32,60.08893162,,,,,,,,,,,,,,,,,,,,,,,,,,,,,,6,1.3665,1,,,,,,,,,,,,0,131,5,5,1974,2298,absent_patch/patch0001974.jpg,absent_patch/patch0002298.jpg,,,,,,,,,,,,,,,,,,,,0.103703704,0.053703704,1,0,0,response1disk,3,0.002777778,0.003703704,1,0,0,center_square,0,2,2,6,1,,,,,,,,,,,,,,,,,,,,,,,
035072,001,2022-11-21_24h55.25.382,Info_measure_main_exp,2022.2.2,Win32,60.08893162,,,,,,,,,,,,,,,,,,masks/mask_002.jpg,,,,,,,,,,,,,,,,,,,,,,,,,,,,,,,,,,,,,,,,,,,0,0,0,1,1,,,,,,,,,,,,,,,,,,,,,,,,,,,,,,,,,,,,,,,,,,,,,,
035072,001,2022-11-21_24h55.25.382,Info_measure_main_exp,2022.2.2,Win32,60.08893162,,,,,,,,,,,,,,,,,,masks/mask_003.jpg,,,,,,,,,,,,,,,,,,,,,,,,,,,,,,,,,,,,,,,,,,,0,1,1,2,1,,,,,,,,,,,,,,,,,,,,,,,,,,,,,,,,,,,,,,,,,,,,,,
035072,001,2022-11-21_24h55.25.382,Info_measure_main_exp,2022.2.2,Win32,60.08893162,,,,,,,,,,,,,,,,,,masks/mask_004.jpg,,,,,,,,,,,,,,,,,,,,,,,,,,,,,,,,,,,,,,,,,,,0,2,2,3,1,,,,,,,,,,,,,,,,,,,,,,,,,,,,,,,,,,,,,,,,,,,,,,
035072,001,2022-11-21_24h55.25.382,Info_measure_main_exp,2022.2.2,Win32,60.08893162,,,,,,,,,,,,,,,,,,masks/mask_005.jpg,,,,,,,,,,,,,,,,,,,,,,,,,,,,,,,,,,,,,,,,,,,0,3,3,4,1,,,,,,,,,,,,,,,,,,,,,,,,,,,,,,,,,,,,,,,,,,,,,,
035072,001,2022-11-21_24h55.25.382,Info_measure_main_exp,2022.2.2,Win32,60.08893162,,,,,,,,,,,,,,,,,,masks/mask_001.jpg,,,,,,,,,,,,,,,,,,,,,,,,,,,,,,,,,,,,,,,,,,,0,4,4,0,1,,,,,,,,,,,,,,,,,,,,,,,,,,,,,,,,,,,,,,,,,,,,,,
035072,001,2022-11-21_24h55.25.382,Info_measure_main_exp,2022.2.2,Win32,60.08893162,,,,,,,,,,,,,,,,,,masks/mask_003.jpg,,,,,,,,,,,,,,,,,,,,,,,,,,,,,,,,,,,,,,,,,,,,,,,,0,0,0,2,1,,,,,,,,,,,,,,,,,,,,,,,,,,,,,,,,,,,,,,,,,
035072,001,2022-11-21_24h55.25.382,Info_measure_main_exp,2022.2.2,Win32,60.08893162,,,,,,,,,,,,,,,,,,masks/mask_001.jpg,,,,,,,,,,,,,,,,,,,,,,,,,,,,,,,,,,,,,,,,,,,,,,,,0,1,1,0,1,,,,,,,,,,,,,,,,,,,,,,,,,,,,,,,,,,,,,,,,,
035072,001,2022-11-21_24h55.25.382,Info_measure_main_exp,2022.2.2,Win32,60.08893162,,,,,,,,,,,,,,,,,,masks/mask_004.jpg,,,,,,,,,,,,,,,,,,,,,,,,,,,,,,,,,,,,,,,,,,,,,,,,0,2,2,3,1,,,,,,,,,,,,,,,,,,,,,,,,,,,,,,,,,,,,,,,,,
035072,001,2022-11-21_24h55.25.382,Info_measure_main_exp,2022.2.2,Win32,60.08893162,,,,,,,,,,,,,,,,,,masks/mask_002.jpg,,,,,,,,,,,,,,,,,,,,,,,,,,,,,,,,,,,,,,,,,,,,,,,,0,3,3,1,1,,,,,,,,,,,,,,,,,,,,,,,,,,,,,,,,,,,,,,,,,
035072,001,2022-11-21_24h55.25.382,Info_measure_main_exp,2022.2.2,Win32,60.08893162,,,,,,,,,,,,,,,,,,masks/mask_005.jpg,,,,,,,,,,,,,,,,,,,,,,,,,,,,,,,,,,,,,,,,,,,,,,,,0,4,4,4,1,,,,,,,,,,,,,,,,,,,,,,,,,,,,,,,,,,,,,,,,,
035072,001,2022-11-21_24h55.25.382,Info_measure_main_exp,2022.2.2,Win32,60.08893162,,,,,,,,,,,,,,,,,,,,,,,,,,,,,,5,3.0169,1,,,,,,,,,,,,0,131,5,5,2250,2142,absent_patch/patch0002250.jpg,absent_patch/patch0002142.jpg,,,,,,,,,,,,,,,,,,,,0.10462963,-0.022222222,1,0,0,response3disk,4,0.001851852,-0.002777778,1,0,0,center_square,0,3,3,71,1,,,,,,,,,,,,,,,,,,,,,,,
035072,001,2022-11-21_24h55.25.382,Info_measure_main_exp,2022.2.2,Win32,60.08893162,,,,,,,,,,,,,,,,,,masks/mask_003.jpg,,,,,,,,,,,,,,,,,,,,,,,,,,,,,,,,,,,,,,,,,,,0,0,0,2,1,,,,,,,,,,,,,,,,,,,,,,,,,,,,,,,,,,,,,,,,,,,,,,
035072,001,2022-11-21_24h55.25.382,Info_measure_main_exp,2022.2.2,Win32,60.08893162,,,,,,,,,,,,,,,,,,masks/mask_002.jpg,,,,,,,,,,,,,,,,,,,,,,,,,,,,,,,,,,,,,,,,,,,0,1,1,1,1,,,,,,,,,,,,,,,,,,,,,,,,,,,,,,,,,,,,,,,,,,,,,,
035072,001,2022-11-21_24h55.25.382,Info_measure_main_exp,2022.2.2,Win32,60.08893162,,,,,,,,,,,,,,,,,,masks/mask_001.jpg,,,,,,,,,,,,,,,,,,,,,,,,,,,,,,,,,,,,,,,,,,,0,2,2,0,1,,,,,,,,,,,,,,,,,,,,,,,,,,,,,,,,,,,,,,,,,,,,,,
035072,001,2022-11-21_24h55.25.382,Info_measure_main_exp,2022.2.2,Win32,60.08893162,,,,,,,,,,,,,,,,,,masks/mask_004.jpg,,,,,,,,,,,,,,,,,,,,,,,,,,,,,,,,,,,,,,,,,,,0,3,3,3,1,,,,,,,,,,,,,,,,,,,,,,,,,,,,,,,,,,,,,,,,,,,,,,
035072,001,2022-11-21_24h55.25.382,Info_measure_main_exp,2022.2.2,Win32,60.08893162,,,,,,,,,,,,,,,,,,masks/mask_005.jpg,,,,,,,,,,,,,,,,,,,,,,,,,,,,,,,,,,,,,,,,,,,0,4,4,4,1,,,,,,,,,,,,,,,,,,,,,,,,,,,,,,,,,,,,,,,,,,,,,,
035072,001,2022-11-21_24h55.25.382,Info_measure_main_exp,2022.2.2,Win32,60.08893162,,,,,,,,,,,,,,,,,,masks/mask_003.jpg,,,,,,,,,,,,,,,,,,,,,,,,,,,,,,,,,,,,,,,,,,,,,,,,0,0,0,2,1,,,,,,,,,,,,,,,,,,,,,,,,,,,,,,,,,,,,,,,,,
035072,001,2022-11-21_24h55.25.382,Info_measure_main_exp,2022.2.2,Win32,60.08893162,,,,,,,,,,,,,,,,,,masks/mask_002.jpg,,,,,,,,,,,,,,,,,,,,,,,,,,,,,,,,,,,,,,,,,,,,,,,,0,1,1,1,1,,,,,,,,,,,,,,,,,,,,,,,,,,,,,,,,,,,,,,,,,
035072,001,2022-11-21_24h55.25.382,Info_measure_main_exp,2022.2.2,Win32,60.08893162,,,,,,,,,,,,,,,,,,masks/mask_004.jpg,,,,,,,,,,,,,,,,,,,,,,,,,,,,,,,,,,,,,,,,,,,,,,,,0,2,2,3,1,,,,,,,,,,,,,,,,,,,,,,,,,,,,,,,,,,,,,,,,,
035072,001,2022-11-21_24h55.25.382,Info_measure_main_exp,2022.2.2,Win32,60.08893162,,,,,,,,,,,,,,,,,,masks/mask_005.jpg,,,,,,,,,,,,,,,,,,,,,,,,,,,,,,,,,,,,,,,,,,,,,,,,0,3,3,4,1,,,,,,,,,,,,,,,,,,,,,,,,,,,,,,,,,,,,,,,,,
035072,001,2022-11-21_24h55.25.382,Info_measure_main_exp,2022.2.2,Win32,60.08893162,,,,,,,,,,,,,,,,,,masks/mask_001.jpg,,,,,,,,,,,,,,,,,,,,,,,,,,,,,,,,,,,,,,,,,,,,,,,,0,4,4,0,1,,,,,,,,,,,,,,,,,,,,,,,,,,,,,,,,,,,,,,,,,
035072,001,2022-11-21_24h55.25.382,Info_measure_main_exp,2022.2.2,Win32,60.08893162,,,,,,,,,,,,,,,,,,,,,,,,,,,,,,7,0.75,1,,,,,,,,,,,,0,131,5,5,2154,2298,absent_patch/patch0002154.jpg,absent_patch/patch0002298.jpg,,,,,,,,,,,,,,,,,,,,0.055555556,0.135185185,1,0,0,response1disk,5,0.000925926,0.000925926,1,0,0,center_square,0,4,4,27,1,,,,,,,,,,,,,,,,,,,,,,,
035072,001,2022-11-21_24h55.25.382,Info_measure_main_exp,2022.2.2,Win32,60.08893162,,,,,,,,,,,,,,,,,,masks/mask_002.jpg,,,,,,,,,,,,,,,,,,,,,,,,,,,,,,,,,,,,,,,,,,,0,0,0,1,1,,,,,,,,,,,,,,,,,,,,,,,,,,,,,,,,,,,,,,,,,,,,,,
035072,001,2022-11-21_24h55.25.382,Info_measure_main_exp,2022.2.2,Win32,60.08893162,,,,,,,,,,,,,,,,,,masks/mask_003.jpg,,,,,,,,,,,,,,,,,,,,,,,,,,,,,,,,,,,,,,,,,,,0,1,1,2,1,,,,,,,,,,,,,,,,,,,,,,,,,,,,,,,,,,,,,,,,,,,,,,
035072,001,2022-11-21_24h55.25.382,Info_measure_main_exp,2022.2.2,Win32,60.08893162,,,,,,,,,,,,,,,,,,masks/mask_001.jpg,,,,,,,,,,,,,,,,,,,,,,,,,,,,,,,,,,,,,,,,,,,0,2,2,0,1,,,,,,,,,,,,,,,,,,,,,,,,,,,,,,,,,,,,,,,,,,,,,,
035072,001,2022-11-21_24h55.25.382,Info_measure_main_exp,2022.2.2,Win32,60.08893162,,,,,,,,,,,,,,,,,,masks/mask_004.jpg,,,,,,,,,,,,,,,,,,,,,,,,,,,,,,,,,,,,,,,,,,,0,3,3,3,1,,,,,,,,,,,,,,,,,,,,,,,,,,,,,,,,,,,,,,,,,,,,,,
035072,001,2022-11-21_24h55.25.382,Info_measure_main_exp,2022.2.2,Win32,60.08893162,,,,,,,,,,,,,,,,,,masks/mask_005.jpg,,,,,,,,,,,,,,,,,,,,,,,,,,,,,,,,,,,,,,,,,,,0,4,4,4,1,,,,,,,,,,,,,,,,,,,,,,,,,,,,,,,,,,,,,,,,,,,,,,
035072,001,2022-11-21_24h55.25.382,Info_measure_main_exp,2022.2.2,Win32,60.08893162,,,,,,,,,,,,,,,,,,masks/mask_004.jpg,,,,,,,,,,,,,,,,,,,,,,,,,,,,,,,,,,,,,,,,,,,,,,,,0,0,0,3,1,,,,,,,,,,,,,,,,,,,,,,,,,,,,,,,,,,,,,,,,,
035072,001,2022-11-21_24h55.25.382,Info_measure_main_exp,2022.2.2,Win32,60.08893162,,,,,,,,,,,,,,,,,,masks/mask_001.jpg,,,,,,,,,,,,,,,,,,,,,,,,,,,,,,,,,,,,,,,,,,,,,,,,0,1,1,0,1,,,,,,,,,,,,,,,,,,,,,,,,,,,,,,,,,,,,,,,,,
035072,001,2022-11-21_24h55.25.382,Info_measure_main_exp,2022.2.2,Win32,60.08893162,,,,,,,,,,,,,,,,,,masks/mask_003.jpg,,,,,,,,,,,,,,,,,,,,,,,,,,,,,,,,,,,,,,,,,,,,,,,,0,2,2,2,1,,,,,,,,,,,,,,,,,,,,,,,,,,,,,,,,,,,,,,,,,
035072,001,2022-11-21_24h55.25.382,Info_measure_main_exp,2022.2.2,Win32,60.08893162,,,,,,,,,,,,,,,,,,masks/mask_005.jpg,,,,,,,,,,,,,,,,,,,,,,,,,,,,,,,,,,,,,,,,,,,,,,,,0,3,3,4,1,,,,,,,,,,,,,,,,,,,,,,,,,,,,,,,,,,,,,,,,,
035072,001,2022-11-21_24h55.25.382,Info_measure_main_exp,2022.2.2,Win32,60.08893162,,,,,,,,,,,,,,,,,,masks/mask_002.jpg,,,,,,,,,,,,,,,,,,,,,,,,,,,,,,,,,,,,,,,,,,,,,,,,0,4,4,1,1,,,,,,,,,,,,,,,,,,,,,,,,,,,,,,,,,,,,,,,,,
035072,001,2022-11-21_24h55.25.382,Info_measure_main_exp,2022.2.2,Win32,60.08893162,,,,,,,,,,,,,,,,,,,,,,,,,,,,,,3,2.5831,1,,,,,,,,,,,,0,131,5,5,2298,2142,absent_patch/patch0002298.jpg,absent_patch/patch0002142.jpg,,,,,,,,,,,,,,,,,,,,-0.028703704,-0.075,1,0,0,response5disk,6,-0.00462963,-0.00462963,1,0,0,center_square,0,5,5,49,1,,,,,,,,,,,,,,,,,,,,,,,
035072,001,2022-11-21_24h55.25.382,Info_measure_main_exp,2022.2.2,Win32,60.08893162,,,,,,,,,,,,,,,,,,masks/mask_002.jpg,,,,,,,,,,,,,,,,,,,,,,,,,,,,,,,,,,,,,,,,,,,0,0,0,1,1,,,,,,,,,,,,,,,,,,,,,,,,,,,,,,,,,,,,,,,,,,,,,,
035072,001,2022-11-21_24h55.25.382,Info_measure_main_exp,2022.2.2,Win32,60.08893162,,,,,,,,,,,,,,,,,,masks/mask_003.jpg,,,,,,,,,,,,,,,,,,,,,,,,,,,,,,,,,,,,,,,,,,,0,1,1,2,1,,,,,,,,,,,,,,,,,,,,,,,,,,,,,,,,,,,,,,,,,,,,,,
035072,001,2022-11-21_24h55.25.382,Info_measure_main_exp,2022.2.2,Win32,60.08893162,,,,,,,,,,,,,,,,,,masks/mask_004.jpg,,,,,,,,,,,,,,,,,,,,,,,,,,,,,,,,,,,,,,,,,,,0,2,2,3,1,,,,,,,,,,,,,,,,,,,,,,,,,,,,,,,,,,,,,,,,,,,,,,
035072,001,2022-11-21_24h55.25.382,Info_measure_main_exp,2022.2.2,Win32,60.08893162,,,,,,,,,,,,,,,,,,masks/mask_005.jpg,,,,,,,,,,,,,,,,,,,,,,,,,,,,,,,,,,,,,,,,,,,0,3,3,4,1,,,,,,,,,,,,,,,,,,,,,,,,,,,,,,,,,,,,,,,,,,,,,,
035072,001,2022-11-21_24h55.25.382,Info_measure_main_exp,2022.2.2,Win32,60.08893162,,,,,,,,,,,,,,,,,,masks/mask_001.jpg,,,,,,,,,,,,,,,,,,,,,,,,,,,,,,,,,,,,,,,,,,,0,4,4,0,1,,,,,,,,,,,,,,,,,,,,,,,,,,,,,,,,,,,,,,,,,,,,,,
035072,001,2022-11-21_24h55.25.382,Info_measure_main_exp,2022.2.2,Win32,60.08893162,,,,,,,,,,,,,,,,,,masks/mask_003.jpg,,,,,,,,,,,,,,,,,,,,,,,,,,,,,,,,,,,,,,,,,,,,,,,,0,0,0,2,1,,,,,,,,,,,,,,,,,,,,,,,,,,,,,,,,,,,,,,,,,
035072,001,2022-11-21_24h55.25.382,Info_measure_main_exp,2022.2.2,Win32,60.08893162,,,,,,,,,,,,,,,,,,masks/mask_005.jpg,,,,,,,,,,,,,,,,,,,,,,,,,,,,,,,,,,,,,,,,,,,,,,,,0,1,1,4,1,,,,,,,,,,,,,,,,,,,,,,,,,,,,,,,,,,,,,,,,,
035072,001,2022-11-21_24h55.25.382,Info_measure_main_exp,2022.2.2,Win32,60.08893162,,,,,,,,,,,,,,,,,,masks/mask_002.jpg,,,,,,,,,,,,,,,,,,,,,,,,,,,,,,,,,,,,,,,,,,,,,,,,0,2,2,1,1,,,,,,,,,,,,,,,,,,,,,,,,,,,,,,,,,,,,,,,,,
035072,001,2022-11-21_24h55.25.382,Info_measure_main_exp,2022.2.2,Win32,60.08893162,,,,,,,,,,,,,,,,,,masks/mask_001.jpg,,,,,,,,,,,,,,,,,,,,,,,,,,,,,,,,,,,,,,,,,,,,,,,,0,3,3,0,1,,,,,,,,,,,,,,,,,,,,,,,,,,,,,,,,,,,,,,,,,
035072,001,2022-11-21_24h55.25.382,Info_measure_main_exp,2022.2.2,Win32,60.08893162,,,,,,,,,,,,,,,,,,masks/mask_004.jpg,,,,,,,,,,,,,,,,,,,,,,,,,,,,,,,,,,,,,,,,,,,,,,,,0,4,4,3,1,,,,,,,,,,,,,,,,,,,,,,,,,,,,,,,,,,,,,,,,,
035072,001,2022-11-21_24h55.25.382,Info_measure_main_exp,2022.2.2,Win32,60.08893162,,,,,,,,,,,,,,,,,,,,,,,,,,,,,,7,1.1003,1,,,,,,,,,,,,0,131,5,5,2250,2214,absent_patch/patch0002250.jpg,absent_patch/patch0002214.jpg,,,,,,,,,,,,,,,,,,,,0.039814815,0.098148148,1,0,0,response1disk,7,0,0.000925926,1,0,0,center_square,0,6,6,97,1,,,,,,,,,,,,,,,,,,,,,,,
035072,001,2022-11-21_24h55.25.382,Info_measure_main_exp,2022.2.2,Win32,60.08893162,,,,,,,,,,,,,,,,,,masks/mask_003.jpg,,,,,,,,,,,,,,,,,,,,,,,,,,,,,,,,,,,,,,,,,,,0,0,0,2,1,,,,,,,,,,,,,,,,,,,,,,,,,,,,,,,,,,,,,,,,,,,,,,
035072,001,2022-11-21_24h55.25.382,Info_measure_main_exp,2022.2.2,Win32,60.08893162,,,,,,,,,,,,,,,,,,masks/mask_005.jpg,,,,,,,,,,,,,,,,,,,,,,,,,,,,,,,,,,,,,,,,,,,0,1,1,4,1,,,,,,,,,,,,,,,,,,,,,,,,,,,,,,,,,,,,,,,,,,,,,,
035072,001,2022-11-21_24h55.25.382,Info_measure_main_exp,2022.2.2,Win32,60.08893162,,,,,,,,,,,,,,,,,,masks/mask_002.jpg,,,,,,,,,,,,,,,,,,,,,,,,,,,,,,,,,,,,,,,,,,,0,2,2,1,1,,,,,,,,,,,,,,,,,,,,,,,,,,,,,,,,,,,,,,,,,,,,,,
035072,001,2022-11-21_24h55.25.382,Info_measure_main_exp,2022.2.2,Win32,60.08893162,,,,,,,,,,,,,,,,,,masks/mask_004.jpg,,,,,,,,,,,,,,,,,,,,,,,,,,,,,,,,,,,,,,,,,,,0,3,3,3,1,,,,,,,,,,,,,,,,,,,,,,,,,,,,,,,,,,,,,,,,,,,,,,
035072,001,2022-11-21_24h55.25.382,Info_measure_main_exp,2022.2.2,Win32,60.08893162,,,,,,,,,,,,,,,,,,masks/mask_001.jpg,,,,,,,,,,,,,,,,,,,,,,,,,,,,,,,,,,,,,,,,,,,0,4,4,0,1,,,,,,,,,,,,,,,,,,,,,,,,,,,,,,,,,,,,,,,,,,,,,,
035072,001,2022-11-21_24h55.25.382,Info_measure_main_exp,2022.2.2,Win32,60.08893162,,,,,,,,,,,,,,,,,,masks/mask_003.jpg,,,,,,,,,,,,,,,,,,,,,,,,,,,,,,,,,,,,,,,,,,,,,,,,0,0,0,2,1,,,,,,,,,,,,,,,,,,,,,,,,,,,,,,,,,,,,,,,,,
035072,001,2022-11-21_24h55.25.382,Info_measure_main_exp,2022.2.2,Win32,60.08893162,,,,,,,,,,,,,,,,,,masks/mask_004.jpg,,,,,,,,,,,,,,,,,,,,,,,,,,,,,,,,,,,,,,,,,,,,,,,,0,1,1,3,1,,,,,,,,,,,,,,,,,,,,,,,,,,,,,,,,,,,,,,,,,
035072,001,2022-11-21_24h55.25.382,Info_measure_main_exp,2022.2.2,Win32,60.08893162,,,,,,,,,,,,,,,,,,masks/mask_005.jpg,,,,,,,,,,,,,,,,,,,,,,,,,,,,,,,,,,,,,,,,,,,,,,,,0,2,2,4,1,,,,,,,,,,,,,,,,,,,,,,,,,,,,,,,,,,,,,,,,,
035072,001,2022-11-21_24h55.25.382,Info_measure_main_exp,2022.2.2,Win32,60.08893162,,,,,,,,,,,,,,,,,,masks/mask_001.jpg,,,,,,,,,,,,,,,,,,,,,,,,,,,,,,,,,,,,,,,,,,,,,,,,0,3,3,0,1,,,,,,,,,,,,,,,,,,,,,,,,,,,,,,,,,,,,,,,,,
035072,001,2022-11-21_24h55.25.382,Info_measure_main_exp,2022.2.2,Win32,60.08893162,,,,,,,,,,,,,,,,,,masks/mask_002.jpg,,,,,,,,,,,,,,,,,,,,,,,,,,,,,,,,,,,,,,,,,,,,,,,,0,4,4,1,1,,,,,,,,,,,,,,,,,,,,,,,,,,,,,,,,,,,,,,,,,
035072,001,2022-11-21_24h55.25.382,Info_measure_main_exp,2022.2.2,Win32,60.08893162,,,,,,,,,,,,,,,,,,,,,,,,,,,,,,4,4.2836,1,,,,,,,,,,,,0,131,5,5,2178,1986,absent_patch/patch0002178.jpg,absent_patch/patch0001986.jpg,,,,,,,,,,,,,,,,,,,,0.007407407,-0.099074074,1,0,0,response3disk,8,0.002777778,-0.008333333,1,0,0,center_square,0,7,7,46,1,,,,,,,,,,,,,,,,,,,,,,,
035072,001,2022-11-21_24h55.25.382,Info_measure_main_exp,2022.2.2,Win32,60.08893162,,,,,,,,,,,,,,,,,,masks/mask_005.jpg,,,,,,,,,,,,,,,,,,,,,,,,,,,,,,,,,,,,,,,,,,,0,0,0,4,1,,,,,,,,,,,,,,,,,,,,,,,,,,,,,,,,,,,,,,,,,,,,,,
035072,001,2022-11-21_24h55.25.382,Info_measure_main_exp,2022.2.2,Win32,60.08893162,,,,,,,,,,,,,,,,,,masks/mask_004.jpg,,,,,,,,,,,,,,,,,,,,,,,,,,,,,,,,,,,,,,,,,,,0,1,1,3,1,,,,,,,,,,,,,,,,,,,,,,,,,,,,,,,,,,,,,,,,,,,,,,
035072,001,2022-11-21_24h55.25.382,Info_measure_main_exp,2022.2.2,Win32,60.08893162,,,,,,,,,,,,,,,,,,masks/mask_003.jpg,,,,,,,,,,,,,,,,,,,,,,,,,,,,,,,,,,,,,,,,,,,0,2,2,2,1,,,,,,,,,,,,,,,,,,,,,,,,,,,,,,,,,,,,,,,,,,,,,,
035072,001,2022-11-21_24h55.25.382,Info_measure_main_exp,2022.2.2,Win32,60.08893162,,,,,,,,,,,,,,,,,,masks/mask_001.jpg,,,,,,,,,,,,,,,,,,,,,,,,,,,,,,,,,,,,,,,,,,,0,3,3,0,1,,,,,,,,,,,,,,,,,,,,,,,,,,,,,,,,,,,,,,,,,,,,,,
035072,001,2022-11-21_24h55.25.382,Info_measure_main_exp,2022.2.2,Win32,60.08893162,,,,,,,,,,,,,,,,,,masks/mask_002.jpg,,,,,,,,,,,,,,,,,,,,,,,,,,,,,,,,,,,,,,,,,,,0,4,4,1,1,,,,,,,,,,,,,,,,,,,,,,,,,,,,,,,,,,,,,,,,,,,,,,
035072,001,2022-11-21_24h55.25.382,Info_measure_main_exp,2022.2.2,Win32,60.08893162,,,,,,,,,,,,,,,,,,masks/mask_002.jpg,,,,,,,,,,,,,,,,,,,,,,,,,,,,,,,,,,,,,,,,,,,,,,,,0,0,0,1,1,,,,,,,,,,,,,,,,,,,,,,,,,,,,,,,,,,,,,,,,,
035072,001,2022-11-21_24h55.25.382,Info_measure_main_exp,2022.2.2,Win32,60.08893162,,,,,,,,,,,,,,,,,,masks/mask_003.jpg,,,,,,,,,,,,,,,,,,,,,,,,,,,,,,,,,,,,,,,,,,,,,,,,0,1,1,2,1,,,,,,,,,,,,,,,,,,,,,,,,,,,,,,,,,,,,,,,,,
035072,001,2022-11-21_24h55.25.382,Info_measure_main_exp,2022.2.2,Win32,60.08893162,,,,,,,,,,,,,,,,,,masks/mask_004.jpg,,,,,,,,,,,,,,,,,,,,,,,,,,,,,,,,,,,,,,,,,,,,,,,,0,2,2,3,1,,,,,,,,,,,,,,,,,,,,,,,,,,,,,,,,,,,,,,,,,
035072,001,2022-11-21_24h55.25.382,Info_measure_main_exp,2022.2.2,Win32,60.08893162,,,,,,,,,,,,,,,,,,masks/mask_001.jpg,,,,,,,,,,,,,,,,,,,,,,,,,,,,,,,,,,,,,,,,,,,,,,,,0,3,3,0,1,,,,,,,,,,,,,,,,,,,,,,,,,,,,,,,,,,,,,,,,,
035072,001,2022-11-21_24h55.25.382,Info_measure_main_exp,2022.2.2,Win32,60.08893162,,,,,,,,,,,,,,,,,,masks/mask_005.jpg,,,,,,,,,,,,,,,,,,,,,,,,,,,,,,,,,,,,,,,,,,,,,,,,0,4,4,4,1,,,,,,,,,,,,,,,,,,,,,,,,,,,,,,,,,,,,,,,,,
035072,001,2022-11-21_24h55.25.382,Info_measure_main_exp,2022.2.2,Win32,60.08893162,,,,,,,,,,,,,,,,,,,,,,,,,,,,,,7,0.65,1,,,,,,,,,,,,1,131,5,5,1,1974,present_patch/cong_131_5_a.jpg,absent_patch/patch0001974.jpg,,,,,,,,,,,,,,,,,,,,0.025,0.075925926,1,0,0,response1disk,9,-0.000925926,0.00462963,1,0,0,center_square,0,8,8,69,1,,,,,,,,,,,,,,,,,,,,,,,
035072,001,2022-11-21_24h55.25.382,Info_measure_main_exp,2022.2.2,Win32,60.08893162,,,,,,,,,,,,,,,,,,masks/mask_003.jpg,,,,,,,,,,,,,,,,,,,,,,,,,,,,,,,,,,,,,,,,,,,0,0,0,2,1,,,,,,,,,,,,,,,,,,,,,,,,,,,,,,,,,,,,,,,,,,,,,,
035072,001,2022-11-21_24h55.25.382,Info_measure_main_exp,2022.2.2,Win32,60.08893162,,,,,,,,,,,,,,,,,,masks/mask_002.jpg,,,,,,,,,,,,,,,,,,,,,,,,,,,,,,,,,,,,,,,,,,,0,1,1,1,1,,,,,,,,,,,,,,,,,,,,,,,,,,,,,,,,,,,,,,,,,,,,,,
035072,001,2022-11-21_24h55.25.382,Info_measure_main_exp,2022.2.2,Win32,60.08893162,,,,,,,,,,,,,,,,,,masks/mask_005.jpg,,,,,,,,,,,,,,,,,,,,,,,,,,,,,,,,,,,,,,,,,,,0,2,2,4,1,,,,,,,,,,,,,,,,,,,,,,,,,,,,,,,,,,,,,,,,,,,,,,
035072,001,2022-11-21_24h55.25.382,Info_measure_main_exp,2022.2.2,Win32,60.08893162,,,,,,,,,,,,,,,,,,masks/mask_004.jpg,,,,,,,,,,,,,,,,,,,,,,,,,,,,,,,,,,,,,,,,,,,0,3,3,3,1,,,,,,,,,,,,,,,,,,,,,,,,,,,,,,,,,,,,,,,,,,,,,,
035072,001,2022-11-21_24h55.25.382,Info_measure_main_exp,2022.2.2,Win32,60.08893162,,,,,,,,,,,,,,,,,,masks/mask_001.jpg,,,,,,,,,,,,,,,,,,,,,,,,,,,,,,,,,,,,,,,,,,,0,4,4,0,1,,,,,,,,,,,,,,,,,,,,,,,,,,,,,,,,,,,,,,,,,,,,,,
035072,001,2022-11-21_24h55.25.382,Info_measure_main_exp,2022.2.2,Win32,60.08893162,,,,,,,,,,,,,,,,,,masks/mask_001.jpg,,,,,,,,,,,,,,,,,,,,,,,,,,,,,,,,,,,,,,,,,,,,,,,,0,0,0,0,1,,,,,,,,,,,,,,,,,,,,,,,,,,,,,,,,,,,,,,,,,
035072,001,2022-11-21_24h55.25.382,Info_measure_main_exp,2022.2.2,Win32,60.08893162,,,,,,,,,,,,,,,,,,masks/mask_005.jpg,,,,,,,,,,,,,,,,,,,,,,,,,,,,,,,,,,,,,,,,,,,,,,,,0,1,1,4,1,,,,,,,,,,,,,,,,,,,,,,,,,,,,,,,,,,,,,,,,,
035072,001,2022-11-21_24h55.25.382,Info_measure_main_exp,2022.2.2,Win32,60.08893162,,,,,,,,,,,,,,,,,,masks/mask_002.jpg,,,,,,,,,,,,,,,,,,,,,,,,,,,,,,,,,,,,,,,,,,,,,,,,0,2,2,1,1,,,,,,,,,,,,,,,,,,,,,,,,,,,,,,,,,,,,,,,,,
035072,001,2022-11-21_24h55.25.382,Info_measure_main_exp,2022.2.2,Win32,60.08893162,,,,,,,,,,,,,,,,,,masks/mask_004.jpg,,,,,,,,,,,,,,,,,,,,,,,,,,,,,,,,,,,,,,,,,,,,,,,,0,3,3,3,1,,,,,,,,,,,,,,,,,,,,,,,,,,,,,,,,,,,,,,,,,
035072,001,2022-11-21_24h55.25.382,Info_measure_main_exp,2022.2.2,Win32,60.08893162,,,,,,,,,,,,,,,,,,masks/mask_003.jpg,,,,,,,,,,,,,,,,,,,,,,,,,,,,,,,,,,,,,,,,,,,,,,,,0,4,4,2,1,,,,,,,,,,,,,,,,,,,,,,,,,,,,,,,,,,,,,,,,,
035072,001,2022-11-21_24h55.25.382,Info_measure_main_exp,2022.2.2,Win32,60.08893162,,,,,,,,,,,,,,,,,,,,,,,,,,,,,,6,1.7357,1,,,,,,,,,,,,0,131,5,5,1950,2178,absent_patch/patch0001950.jpg,absent_patch/patch0002178.jpg,,,,,,,,,,,,,,,,,,,,0.039814815,0.027777778,1,0,0,response1disk,10,0.009259259,0.001851852,1,0,0,center_square,0,9,9,61,1,,,,,,,,,,,,,,,,,,,,,,,
035072,001,2022-11-21_24h55.25.382,Info_measure_main_exp,2022.2.2,Win32,60.08893162,,,,,,,,,,,,,,,,,,masks/mask_002.jpg,,,,,,,,,,,,,,,,,,,,,,,,,,,,,,,,,,,,,,,,,,,0,0,0,1,1,,,,,,,,,,,,,,,,,,,,,,,,,,,,,,,,,,,,,,,,,,,,,,
035072,001,2022-11-21_24h55.25.382,Info_measure_main_exp,2022.2.2,Win32,60.08893162,,,,,,,,,,,,,,,,,,masks/mask_001.jpg,,,,,,,,,,,,,,,,,,,,,,,,,,,,,,,,,,,,,,,,,,,0,1,1,0,1,,,,,,,,,,,,,,,,,,,,,,,,,,,,,,,,,,,,,,,,,,,,,,
035072,001,2022-11-21_24h55.25.382,Info_measure_main_exp,2022.2.2,Win32,60.08893162,,,,,,,,,,,,,,,,,,masks/mask_005.jpg,,,,,,,,,,,,,,,,,,,,,,,,,,,,,,,,,,,,,,,,,,,0,2,2,4,1,,,,,,,,,,,,,,,,,,,,,,,,,,,,,,,,,,,,,,,,,,,,,,
035072,001,2022-11-21_24h55.25.382,Info_measure_main_exp,2022.2.2,Win32,60.08893162,,,,,,,,,,,,,,,,,,masks/mask_003.jpg,,,,,,,,,,,,,,,,,,,,,,,,,,,,,,,,,,,,,,,,,,,0,3,3,2,1,,,,,,,,,,,,,,,,,,,,,,,,,,,,,,,,,,,,,,,,,,,,,,
035072,001,2022-11-21_24h55.25.382,Info_measure_main_exp,2022.2.2,Win32,60.08893162,,,,,,,,,,,,,,,,,,masks/mask_004.jpg,,,,,,,,,,,,,,,,,,,,,,,,,,,,,,,,,,,,,,,,,,,0,4,4,3,1,,,,,,,,,,,,,,,,,,,,,,,,,,,,,,,,,,,,,,,,,,,,,,
035072,001,2022-11-21_24h55.25.382,Info_measure_main_exp,2022.2.2,Win32,60.08893162,,,,,,,,,,,,,,,,,,masks/mask_002.jpg,,,,,,,,,,,,,,,,,,,,,,,,,,,,,,,,,,,,,,,,,,,,,,,,0,0,0,1,1,,,,,,,,,,,,,,,,,,,,,,,,,,,,,,,,,,,,,,,,,
035072,001,2022-11-21_24h55.25.382,Info_measure_main_exp,2022.2.2,Win32,60.08893162,,,,,,,,,,,,,,,,,,masks/mask_005.jpg,,,,,,,,,,,,,,,,,,,,,,,,,,,,,,,,,,,,,,,,,,,,,,,,0,1,1,4,1,,,,,,,,,,,,,,,,,,,,,,,,,,,,,,,,,,,,,,,,,
035072,001,2022-11-21_24h55.25.382,Info_measure_main_exp,2022.2.2,Win32,60.08893162,,,,,,,,,,,,,,,,,,masks/mask_004.jpg,,,,,,,,,,,,,,,,,,,,,,,,,,,,,,,,,,,,,,,,,,,,,,,,0,2,2,3,1,,,,,,,,,,,,,,,,,,,,,,,,,,,,,,,,,,,,,,,,,
035072,001,2022-11-21_24h55.25.382,Info_measure_main_exp,2022.2.2,Win32,60.08893162,,,,,,,,,,,,,,,,,,masks/mask_001.jpg,,,,,,,,,,,,,,,,,,,,,,,,,,,,,,,,,,,,,,,,,,,,,,,,0,3,3,0,1,,,,,,,,,,,,,,,,,,,,,,,,,,,,,,,,,,,,,,,,,
035072,001,2022-11-21_24h55.25.382,Info_measure_main_exp,2022.2.2,Win32,60.08893162,,,,,,,,,,,,,,,,,,masks/mask_003.jpg,,,,,,,,,,,,,,,,,,,,,,,,,,,,,,,,,,,,,,,,,,,,,,,,0,4,4,2,1,,,,,,,,,,,,,,,,,,,,,,,,,,,,,,,,,,,,,,,,,
035072,001,2022-11-21_24h55.25.382,Info_measure_main_exp,2022.2.2,Win32,60.08893162,,,,,,,,,,,,,,,,,,,,,,,,,,,,,,7,0.5996,1,,,,,,,,,,,,0,131,5,5,2142,2154,absent_patch/patch0002142.jpg,absent_patch/patch0002154.jpg,,,,,,,,,,,,,,,,,,,,0.027777778,0.089814815,1,0,0,response1disk,11,0,-0.000925926,1,0,0,center_square,0,10,10,9,1,,,,,,,,,,,,,,,,,,,,,,,
035072,001,2022-11-21_24h55.25.382,Info_measure_main_exp,2022.2.2,Win32,60.08893162,,,,,,,,,,,,,,,,,,masks/mask_003.jpg,,,,,,,,,,,,,,,,,,,,,,,,,,,,,,,,,,,,,,,,,,,0,0,0,2,1,,,,,,,,,,,,,,,,,,,,,,,,,,,,,,,,,,,,,,,,,,,,,,
035072,001,2022-11-21_24h55.25.382,Info_measure_main_exp,2022.2.2,Win32,60.08893162,,,,,,,,,,,,,,,,,,masks/mask_004.jpg,,,,,,,,,,,,,,,,,,,,,,,,,,,,,,,,,,,,,,,,,,,0,1,1,3,1,,,,,,,,,,,,,,,,,,,,,,,,,,,,,,,,,,,,,,,,,,,,,,
035072,001,2022-11-21_24h55.25.382,Info_measure_main_exp,2022.2.2,Win32,60.08893162,,,,,,,,,,,,,,,,,,masks/mask_001.jpg,,,,,,,,,,,,,,,,,,,,,,,,,,,,,,,,,,,,,,,,,,,0,2,2,0,1,,,,,,,,,,,,,,,,,,,,,,,,,,,,,,,,,,,,,,,,,,,,,,
035072,001,2022-11-21_24h55.25.382,Info_measure_main_exp,2022.2.2,Win32,60.08893162,,,,,,,,,,,,,,,,,,masks/mask_002.jpg,,,,,,,,,,,,,,,,,,,,,,,,,,,,,,,,,,,,,,,,,,,0,3,3,1,1,,,,,,,,,,,,,,,,,,,,,,,,,,,,,,,,,,,,,,,,,,,,,,
035072,001,2022-11-21_24h55.25.382,Info_measure_main_exp,2022.2.2,Win32,60.08893162,,,,,,,,,,,,,,,,,,masks/mask_005.jpg,,,,,,,,,,,,,,,,,,,,,,,,,,,,,,,,,,,,,,,,,,,0,4,4,4,1,,,,,,,,,,,,,,,,,,,,,,,,,,,,,,,,,,,,,,,,,,,,,,
035072,001,2022-11-21_24h55.25.382,Info_measure_main_exp,2022.2.2,Win32,60.08893162,,,,,,,,,,,,,,,,,,masks/mask_003.jpg,,,,,,,,,,,,,,,,,,,,,,,,,,,,,,,,,,,,,,,,,,,,,,,,0,0,0,2,1,,,,,,,,,,,,,,,,,,,,,,,,,,,,,,,,,,,,,,,,,
035072,001,2022-11-21_24h55.25.382,Info_measure_main_exp,2022.2.2,Win32,60.08893162,,,,,,,,,,,,,,,,,,masks/mask_004.jpg,,,,,,,,,,,,,,,,,,,,,,,,,,,,,,,,,,,,,,,,,,,,,,,,0,1,1,3,1,,,,,,,,,,,,,,,,,,,,,,,,,,,,,,,,,,,,,,,,,
035072,001,2022-11-21_24h55.25.382,Info_measure_main_exp,2022.2.2,Win32,60.08893162,,,,,,,,,,,,,,,,,,masks/mask_001.jpg,,,,,,,,,,,,,,,,,,,,,,,,,,,,,,,,,,,,,,,,,,,,,,,,0,2,2,0,1,,,,,,,,,,,,,,,,,,,,,,,,,,,,,,,,,,,,,,,,,
035072,001,2022-11-21_24h55.25.382,Info_measure_main_exp,2022.2.2,Win32,60.08893162,,,,,,,,,,,,,,,,,,masks/mask_002.jpg,,,,,,,,,,,,,,,,,,,,,,,,,,,,,,,,,,,,,,,,,,,,,,,,0,3,3,1,1,,,,,,,,,,,,,,,,,,,,,,,,,,,,,,,,,,,,,,,,,
035072,001,2022-11-21_24h55.25.382,Info_measure_main_exp,2022.2.2,Win32,60.08893162,,,,,,,,,,,,,,,,,,masks/mask_005.jpg,,,,,,,,,,,,,,,,,,,,,,,,,,,,,,,,,,,,,,,,,,,,,,,,0,4,4,4,1,,,,,,,,,,,,,,,,,,,,,,,,,,,,,,,,,,,,,,,,,
035072,001,2022-11-21_24h55.25.382,Info_measure_main_exp,2022.2.2,Win32,60.08893162,,,,,,,,,,,,,,,,,,,,,,,,,,,,,,0,1.4342,1,,,,,,,,,,,,0,131,5,5,2250,2250,absent_patch/patch0002250.jpg,absent_patch/patch0002250.jpg,,,,,,,,,,,,,,,,,,,,-0.057407407,0.162037037,1,0,0,response7disk,12,-0.000925926,0.006481481,1,0,0,center_square,0,11,11,56,1,,,,,,,,,,,,,,,,,,,,,,,
035072,001,2022-11-21_24h55.25.382,Info_measure_main_exp,2022.2.2,Win32,60.08893162,,,,,,,,,,,,,,,,,,masks/mask_003.jpg,,,,,,,,,,,,,,,,,,,,,,,,,,,,,,,,,,,,,,,,,,,0,0,0,2,1,,,,,,,,,,,,,,,,,,,,,,,,,,,,,,,,,,,,,,,,,,,,,,
035072,001,2022-11-21_24h55.25.382,Info_measure_main_exp,2022.2.2,Win32,60.08893162,,,,,,,,,,,,,,,,,,masks/mask_001.jpg,,,,,,,,,,,,,,,,,,,,,,,,,,,,,,,,,,,,,,,,,,,0,1,1,0,1,,,,,,,,,,,,,,,,,,,,,,,,,,,,,,,,,,,,,,,,,,,,,,
035072,001,2022-11-21_24h55.25.382,Info_measure_main_exp,2022.2.2,Win32,60.08893162,,,,,,,,,,,,,,,,,,masks/mask_005.jpg,,,,,,,,,,,,,,,,,,,,,,,,,,,,,,,,,,,,,,,,,,,0,2,2,4,1,,,,,,,,,,,,,,,,,,,,,,,,,,,,,,,,,,,,,,,,,,,,,,
035072,001,2022-11-21_24h55.25.382,Info_measure_main_exp,2022.2.2,Win32,60.08893162,,,,,,,,,,,,,,,,,,masks/mask_004.jpg,,,,,,,,,,,,,,,,,,,,,,,,,,,,,,,,,,,,,,,,,,,0,3,3,3,1,,,,,,,,,,,,,,,,,,,,,,,,,,,,,,,,,,,,,,,,,,,,,,
035072,001,2022-11-21_24h55.25.382,Info_measure_main_exp,2022.2.2,Win32,60.08893162,,,,,,,,,,,,,,,,,,masks/mask_002.jpg,,,,,,,,,,,,,,,,,,,,,,,,,,,,,,,,,,,,,,,,,,,0,4,4,1,1,,,,,,,,,,,,,,,,,,,,,,,,,,,,,,,,,,,,,,,,,,,,,,
035072,001,2022-11-21_24h55.25.382,Info_measure_main_exp,2022.2.2,Win32,60.08893162,,,,,,,,,,,,,,,,,,masks/mask_005.jpg,,,,,,,,,,,,,,,,,,,,,,,,,,,,,,,,,,,,,,,,,,,,,,,,0,0,0,4,1,,,,,,,,,,,,,,,,,,,,,,,,,,,,,,,,,,,,,,,,,
035072,001,2022-11-21_24h55.25.382,Info_measure_main_exp,2022.2.2,Win32,60.08893162,,,,,,,,,,,,,,,,,,masks/mask_003.jpg,,,,,,,,,,,,,,,,,,,,,,,,,,,,,,,,,,,,,,,,,,,,,,,,0,1,1,2,1,,,,,,,,,,,,,,,,,,,,,,,,,,,,,,,,,,,,,,,,,
035072,001,2022-11-21_24h55.25.382,Info_measure_main_exp,2022.2.2,Win32,60.08893162,,,,,,,,,,,,,,,,,,masks/mask_004.jpg,,,,,,,,,,,,,,,,,,,,,,,,,,,,,,,,,,,,,,,,,,,,,,,,0,2,2,3,1,,,,,,,,,,,,,,,,,,,,,,,,,,,,,,,,,,,,,,,,,
035072,001,2022-11-21_24h55.25.382,Info_measure_main_exp,2022.2.2,Win32,60.08893162,,,,,,,,,,,,,,,,,,masks/mask_002.jpg,,,,,,,,,,,,,,,,,,,,,,,,,,,,,,,,,,,,,,,,,,,,,,,,0,3,3,1,1,,,,,,,,,,,,,,,,,,,,,,,,,,,,,,,,,,,,,,,,,
035072,001,2022-11-21_24h55.25.382,Info_measure_main_exp,2022.2.2,Win32,60.08893162,,,,,,,,,,,,,,,,,,masks/mask_001.jpg,,,,,,,,,,,,,,,,,,,,,,,,,,,,,,,,,,,,,,,,,,,,,,,,0,4,4,0,1,,,,,,,,,,,,,,,,,,,,,,,,,,,,,,,,,,,,,,,,,
035072,001,2022-11-21_24h55.25.382,Info_measure_main_exp,2022.2.2,Win32,60.08893162,,,,,,,,,,,,,,,,,,,,,,,,,,,,,,7,1.2498,1,,,,,,,,,,,,0,131,5,5,1974,2250,absent_patch/patch0001974.jpg,absent_patch/patch0002250.jpg,,,,,,,,,,,,,,,,,,,,0.05462963,0.088888889,1,0,0,response1disk,13,0.008333333,0.005555556,1,0,0,center_square,0,12,12,55,1,,,,,,,,,,,,,,,,,,,,,,,
035072,001,2022-11-21_24h55.25.382,Info_measure_main_exp,2022.2.2,Win32,60.08893162,,,,,,,,,,,,,,,,,,masks/mask_005.jpg,,,,,,,,,,,,,,,,,,,,,,,,,,,,,,,,,,,,,,,,,,,0,0,0,4,1,,,,,,,,,,,,,,,,,,,,,,,,,,,,,,,,,,,,,,,,,,,,,,
035072,001,2022-11-21_24h55.25.382,Info_measure_main_exp,2022.2.2,Win32,60.08893162,,,,,,,,,,,,,,,,,,masks/mask_002.jpg,,,,,,,,,,,,,,,,,,,,,,,,,,,,,,,,,,,,,,,,,,,0,1,1,1,1,,,,,,,,,,,,,,,,,,,,,,,,,,,,,,,,,,,,,,,,,,,,,,
035072,001,2022-11-21_24h55.25.382,Info_measure_main_exp,2022.2.2,Win32,60.08893162,,,,,,,,,,,,,,,,,,masks/mask_003.jpg,,,,,,,,,,,,,,,,,,,,,,,,,,,,,,,,,,,,,,,,,,,0,2,2,2,1,,,,,,,,,,,,,,,,,,,,,,,,,,,,,,,,,,,,,,,,,,,,,,
035072,001,2022-11-21_24h55.25.382,Info_measure_main_exp,2022.2.2,Win32,60.08893162,,,,,,,,,,,,,,,,,,masks/mask_001.jpg,,,,,,,,,,,,,,,,,,,,,,,,,,,,,,,,,,,,,,,,,,,0,3,3,0,1,,,,,,,,,,,,,,,,,,,,,,,,,,,,,,,,,,,,,,,,,,,,,,
035072,001,2022-11-21_24h55.25.382,Info_measure_main_exp,2022.2.2,Win32,60.08893162,,,,,,,,,,,,,,,,,,masks/mask_004.jpg,,,,,,,,,,,,,,,,,,,,,,,,,,,,,,,,,,,,,,,,,,,0,4,4,3,1,,,,,,,,,,,,,,,,,,,,,,,,,,,,,,,,,,,,,,,,,,,,,,
035072,001,2022-11-21_24h55.25.382,Info_measure_main_exp,2022.2.2,Win32,60.08893162,,,,,,,,,,,,,,,,,,masks/mask_003.jpg,,,,,,,,,,,,,,,,,,,,,,,,,,,,,,,,,,,,,,,,,,,,,,,,0,0,0,2,1,,,,,,,,,,,,,,,,,,,,,,,,,,,,,,,,,,,,,,,,,
035072,001,2022-11-21_24h55.25.382,Info_measure_main_exp,2022.2.2,Win32,60.08893162,,,,,,,,,,,,,,,,,,masks/mask_004.jpg,,,,,,,,,,,,,,,,,,,,,,,,,,,,,,,,,,,,,,,,,,,,,,,,0,1,1,3,1,,,,,,,,,,,,,,,,,,,,,,,,,,,,,,,,,,,,,,,,,
035072,001,2022-11-21_24h55.25.382,Info_measure_main_exp,2022.2.2,Win32,60.08893162,,,,,,,,,,,,,,,,,,masks/mask_005.jpg,,,,,,,,,,,,,,,,,,,,,,,,,,,,,,,,,,,,,,,,,,,,,,,,0,2,2,4,1,,,,,,,,,,,,,,,,,,,,,,,,,,,,,,,,,,,,,,,,,
035072,001,2022-11-21_24h55.25.382,Info_measure_main_exp,2022.2.2,Win32,60.08893162,,,,,,,,,,,,,,,,,,masks/mask_002.jpg,,,,,,,,,,,,,,,,,,,,,,,,,,,,,,,,,,,,,,,,,,,,,,,,0,3,3,1,1,,,,,,,,,,,,,,,,,,,,,,,,,,,,,,,,,,,,,,,,,
035072,001,2022-11-21_24h55.25.382,Info_measure_main_exp,2022.2.2,Win32,60.08893162,,,,,,,,,,,,,,,,,,masks/mask_001.jpg,,,,,,,,,,,,,,,,,,,,,,,,,,,,,,,,,,,,,,,,,,,,,,,,0,4,4,0,1,,,,,,,,,,,,,,,,,,,,,,,,,,,,,,,,,,,,,,,,,
035072,001,2022-11-21_24h55.25.382,Info_measure_main_exp,2022.2.2,Win32,60.08893162,,,,,,,,,,,,,,,,,,,,,,,,,,,,,,5,3.5167,1,,,,,,,,,,,,0,131,5,5,1986,2274,absent_patch/patch0001986.jpg,absent_patch/patch0002274.jpg,,,,,,,,,,,,,,,,,,,,0.112037037,-0.02037037,1,0,0,response3disk,14,0.005555556,-0.005555556,1,0,0,center_square,0,13,13,7,1,,,,,,,,,,,,,,,,,,,,,,,
035072,001,2022-11-21_24h55.25.382,Info_measure_main_exp,2022.2.2,Win32,60.08893162,,,,,,,,,,,,,,,,,,masks/mask_001.jpg,,,,,,,,,,,,,,,,,,,,,,,,,,,,,,,,,,,,,,,,,,,0,0,0,0,1,,,,,,,,,,,,,,,,,,,,,,,,,,,,,,,,,,,,,,,,,,,,,,
035072,001,2022-11-21_24h55.25.382,Info_measure_main_exp,2022.2.2,Win32,60.08893162,,,,,,,,,,,,,,,,,,masks/mask_003.jpg,,,,,,,,,,,,,,,,,,,,,,,,,,,,,,,,,,,,,,,,,,,0,1,1,2,1,,,,,,,,,,,,,,,,,,,,,,,,,,,,,,,,,,,,,,,,,,,,,,
035072,001,2022-11-21_24h55.25.382,Info_measure_main_exp,2022.2.2,Win32,60.08893162,,,,,,,,,,,,,,,,,,masks/mask_005.jpg,,,,,,,,,,,,,,,,,,,,,,,,,,,,,,,,,,,,,,,,,,,0,2,2,4,1,,,,,,,,,,,,,,,,,,,,,,,,,,,,,,,,,,,,,,,,,,,,,,
035072,001,2022-11-21_24h55.25.382,Info_measure_main_exp,2022.2.2,Win32,60.08893162,,,,,,,,,,,,,,,,,,masks/mask_002.jpg,,,,,,,,,,,,,,,,,,,,,,,,,,,,,,,,,,,,,,,,,,,0,3,3,1,1,,,,,,,,,,,,,,,,,,,,,,,,,,,,,,,,,,,,,,,,,,,,,,
035072,001,2022-11-21_24h55.25.382,Info_measure_main_exp,2022.2.2,Win32,60.08893162,,,,,,,,,,,,,,,,,,masks/mask_004.jpg,,,,,,,,,,,,,,,,,,,,,,,,,,,,,,,,,,,,,,,,,,,0,4,4,3,1,,,,,,,,,,,,,,,,,,,,,,,,,,,,,,,,,,,,,,,,,,,,,,
035072,001,2022-11-21_24h55.25.382,Info_measure_main_exp,2022.2.2,Win32,60.08893162,,,,,,,,,,,,,,,,,,masks/mask_003.jpg,,,,,,,,,,,,,,,,,,,,,,,,,,,,,,,,,,,,,,,,,,,,,,,,0,0,0,2,1,,,,,,,,,,,,,,,,,,,,,,,,,,,,,,,,,,,,,,,,,
035072,001,2022-11-21_24h55.25.382,Info_measure_main_exp,2022.2.2,Win32,60.08893162,,,,,,,,,,,,,,,,,,masks/mask_004.jpg,,,,,,,,,,,,,,,,,,,,,,,,,,,,,,,,,,,,,,,,,,,,,,,,0,1,1,3,1,,,,,,,,,,,,,,,,,,,,,,,,,,,,,,,,,,,,,,,,,
035072,001,2022-11-21_24h55.25.382,Info_measure_main_exp,2022.2.2,Win32,60.08893162,,,,,,,,,,,,,,,,,,masks/mask_002.jpg,,,,,,,,,,,,,,,,,,,,,,,,,,,,,,,,,,,,,,,,,,,,,,,,0,2,2,1,1,,,,,,,,,,,,,,,,,,,,,,,,,,,,,,,,,,,,,,,,,
035072,001,2022-11-21_24h55.25.382,Info_measure_main_exp,2022.2.2,Win32,60.08893162,,,,,,,,,,,,,,,,,,masks/mask_001.jpg,,,,,,,,,,,,,,,,,,,,,,,,,,,,,,,,,,,,,,,,,,,,,,,,0,3,3,0,1,,,,,,,,,,,,,,,,,,,,,,,,,,,,,,,,,,,,,,,,,
035072,001,2022-11-21_24h55.25.382,Info_measure_main_exp,2022.2.2,Win32,60.08893162,,,,,,,,,,,,,,,,,,masks/mask_005.jpg,,,,,,,,,,,,,,,,,,,,,,,,,,,,,,,,,,,,,,,,,,,,,,,,0,4,4,4,1,,,,,,,,,,,,,,,,,,,,,,,,,,,,,,,,,,,,,,,,,
035072,001,2022-11-21_24h55.25.382,Info_measure_main_exp,2022.2.2,Win32,60.08893162,,,,,,,,,,,,,,,,,,,,,,,,,,,,,,7,0.5017,1,,,,,,,,,,,,0,131,5,5,2082,2154,absent_patch/patch0002082.jpg,absent_patch/patch0002154.jpg,,,,,,,,,,,,,,,,,,,,0.025925926,0.097222222,1,0,0,response1disk,15,0.000925926,0.006481481,1,0,0,center_square,0,14,14,33,1,,,,,,,,,,,,,,,,,,,,,,,
035072,001,2022-11-21_24h55.25.382,Info_measure_main_exp,2022.2.2,Win32,60.08893162,,,,,,,,,,,,,,,,,,masks/mask_005.jpg,,,,,,,,,,,,,,,,,,,,,,,,,,,,,,,,,,,,,,,,,,,0,0,0,4,1,,,,,,,,,,,,,,,,,,,,,,,,,,,,,,,,,,,,,,,,,,,,,,
035072,001,2022-11-21_24h55.25.382,Info_measure_main_exp,2022.2.2,Win32,60.08893162,,,,,,,,,,,,,,,,,,masks/mask_002.jpg,,,,,,,,,,,,,,,,,,,,,,,,,,,,,,,,,,,,,,,,,,,0,1,1,1,1,,,,,,,,,,,,,,,,,,,,,,,,,,,,,,,,,,,,,,,,,,,,,,
035072,001,2022-11-21_24h55.25.382,Info_measure_main_exp,2022.2.2,Win32,60.08893162,,,,,,,,,,,,,,,,,,masks/mask_004.jpg,,,,,,,,,,,,,,,,,,,,,,,,,,,,,,,,,,,,,,,,,,,0,2,2,3,1,,,,,,,,,,,,,,,,,,,,,,,,,,,,,,,,,,,,,,,,,,,,,,
035072,001,2022-11-21_24h55.25.382,Info_measure_main_exp,2022.2.2,Win32,60.08893162,,,,,,,,,,,,,,,,,,masks/mask_001.jpg,,,,,,,,,,,,,,,,,,,,,,,,,,,,,,,,,,,,,,,,,,,0,3,3,0,1,,,,,,,,,,,,,,,,,,,,,,,,,,,,,,,,,,,,,,,,,,,,,,
035072,001,2022-11-21_24h55.25.382,Info_measure_main_exp,2022.2.2,Win32,60.08893162,,,,,,,,,,,,,,,,,,masks/mask_003.jpg,,,,,,,,,,,,,,,,,,,,,,,,,,,,,,,,,,,,,,,,,,,0,4,4,2,1,,,,,,,,,,,,,,,,,,,,,,,,,,,,,,,,,,,,,,,,,,,,,,
035072,001,2022-11-21_24h55.25.382,Info_measure_main_exp,2022.2.2,Win32,60.08893162,,,,,,,,,,,,,,,,,,masks/mask_003.jpg,,,,,,,,,,,,,,,,,,,,,,,,,,,,,,,,,,,,,,,,,,,,,,,,0,0,0,2,1,,,,,,,,,,,,,,,,,,,,,,,,,,,,,,,,,,,,,,,,,
035072,001,2022-11-21_24h55.25.382,Info_measure_main_exp,2022.2.2,Win32,60.08893162,,,,,,,,,,,,,,,,,,masks/mask_001.jpg,,,,,,,,,,,,,,,,,,,,,,,,,,,,,,,,,,,,,,,,,,,,,,,,0,1,1,0,1,,,,,,,,,,,,,,,,,,,,,,,,,,,,,,,,,,,,,,,,,
035072,001,2022-11-21_24h55.25.382,Info_measure_main_exp,2022.2.2,Win32,60.08893162,,,,,,,,,,,,,,,,,,masks/mask_005.jpg,,,,,,,,,,,,,,,,,,,,,,,,,,,,,,,,,,,,,,,,,,,,,,,,0,2,2,4,1,,,,,,,,,,,,,,,,,,,,,,,,,,,,,,,,,,,,,,,,,
035072,001,2022-11-21_24h55.25.382,Info_measure_main_exp,2022.2.2,Win32,60.08893162,,,,,,,,,,,,,,,,,,masks/mask_004.jpg,,,,,,,,,,,,,,,,,,,,,,,,,,,,,,,,,,,,,,,,,,,,,,,,0,3,3,3,1,,,,,,,,,,,,,,,,,,,,,,,,,,,,,,,,,,,,,,,,,
035072,001,2022-11-21_24h55.25.382,Info_measure_main_exp,2022.2.2,Win32,60.08893162,,,,,,,,,,,,,,,,,,masks/mask_002.jpg,,,,,,,,,,,,,,,,,,,,,,,,,,,,,,,,,,,,,,,,,,,,,,,,0,4,4,1,1,,,,,,,,,,,,,,,,,,,,,,,,,,,,,,,,,,,,,,,,,
035072,001,2022-11-21_24h55.25.382,Info_measure_main_exp,2022.2.2,Win32,60.08893162,,,,,,,,,,,,,,,,,,,,,,,,,,,,,,7,1.2503,1,,,,,,,,,,,,0,131,5,5,1986,2142,absent_patch/patch0001986.jpg,absent_patch/patch0002142.jpg,,,,,,,,,,,,,,,,,,,,0.057407407,0.097222222,1,0,0,response1disk,16,0.006481481,0.003703704,1,0,0,center_square,0,15,15,76,1,,,,,,,,,,,,,,,,,,,,,,,
035072,001,2022-11-21_24h55.25.382,Info_measure_main_exp,2022.2.2,Win32,60.08893162,,,,,,,,,,,,,,,,,,masks/mask_005.jpg,,,,,,,,,,,,,,,,,,,,,,,,,,,,,,,,,,,,,,,,,,,0,0,0,4,1,,,,,,,,,,,,,,,,,,,,,,,,,,,,,,,,,,,,,,,,,,,,,,
035072,001,2022-11-21_24h55.25.382,Info_measure_main_exp,2022.2.2,Win32,60.08893162,,,,,,,,,,,,,,,,,,masks/mask_003.jpg,,,,,,,,,,,,,,,,,,,,,,,,,,,,,,,,,,,,,,,,,,,0,1,1,2,1,,,,,,,,,,,,,,,,,,,,,,,,,,,,,,,,,,,,,,,,,,,,,,
035072,001,2022-11-21_24h55.25.382,Info_measure_main_exp,2022.2.2,Win32,60.08893162,,,,,,,,,,,,,,,,,,masks/mask_002.jpg,,,,,,,,,,,,,,,,,,,,,,,,,,,,,,,,,,,,,,,,,,,0,2,2,1,1,,,,,,,,,,,,,,,,,,,,,,,,,,,,,,,,,,,,,,,,,,,,,,
035072,001,2022-11-21_24h55.25.382,Info_measure_main_exp,2022.2.2,Win32,60.08893162,,,,,,,,,,,,,,,,,,masks/mask_004.jpg,,,,,,,,,,,,,,,,,,,,,,,,,,,,,,,,,,,,,,,,,,,0,3,3,3,1,,,,,,,,,,,,,,,,,,,,,,,,,,,,,,,,,,,,,,,,,,,,,,
035072,001,2022-11-21_24h55.25.382,Info_measure_main_exp,2022.2.2,Win32,60.08893162,,,,,,,,,,,,,,,,,,masks/mask_001.jpg,,,,,,,,,,,,,,,,,,,,,,,,,,,,,,,,,,,,,,,,,,,0,4,4,0,1,,,,,,,,,,,,,,,,,,,,,,,,,,,,,,,,,,,,,,,,,,,,,,
035072,001,2022-11-21_24h55.25.382,Info_measure_main_exp,2022.2.2,Win32,60.08893162,,,,,,,,,,,,,,,,,,masks/mask_005.jpg,,,,,,,,,,,,,,,,,,,,,,,,,,,,,,,,,,,,,,,,,,,,,,,,0,0,0,4,1,,,,,,,,,,,,,,,,,,,,,,,,,,,,,,,,,,,,,,,,,
035072,001,2022-11-21_24h55.25.382,Info_measure_main_exp,2022.2.2,Win32,60.08893162,,,,,,,,,,,,,,,,,,masks/mask_004.jpg,,,,,,,,,,,,,,,,,,,,,,,,,,,,,,,,,,,,,,,,,,,,,,,,0,1,1,3,1,,,,,,,,,,,,,,,,,,,,,,,,,,,,,,,,,,,,,,,,,
035072,001,2022-11-21_24h55.25.382,Info_measure_main_exp,2022.2.2,Win32,60.08893162,,,,,,,,,,,,,,,,,,masks/mask_001.jpg,,,,,,,,,,,,,,,,,,,,,,,,,,,,,,,,,,,,,,,,,,,,,,,,0,2,2,0,1,,,,,,,,,,,,,,,,,,,,,,,,,,,,,,,,,,,,,,,,,
035072,001,2022-11-21_24h55.25.382,Info_measure_main_exp,2022.2.2,Win32,60.08893162,,,,,,,,,,,,,,,,,,masks/mask_002.jpg,,,,,,,,,,,,,,,,,,,,,,,,,,,,,,,,,,,,,,,,,,,,,,,,0,3,3,1,1,,,,,,,,,,,,,,,,,,,,,,,,,,,,,,,,,,,,,,,,,
035072,001,2022-11-21_24h55.25.382,Info_measure_main_exp,2022.2.2,Win32,60.08893162,,,,,,,,,,,,,,,,,,masks/mask_003.jpg,,,,,,,,,,,,,,,,,,,,,,,,,,,,,,,,,,,,,,,,,,,,,,,,0,4,4,2,1,,,,,,,,,,,,,,,,,,,,,,,,,,,,,,,,,,,,,,,,,
035072,001,2022-11-21_24h55.25.382,Info_measure_main_exp,2022.2.2,Win32,60.08893162,,,,,,,,,,,,,,,,,,,,,,,,,,,,,,6,4.8614,1,,,,,,,,,,,,0,131,5,5,1974,2238,absent_patch/patch0001974.jpg,absent_patch/patch0002238.jpg,,,,,,,,,,,,,,,,,,,,0.040740741,0.026851852,1,0,0,response1disk,17,0.006481481,-0.005555556,1,0,0,center_square,0,16,16,95,1,,,,,,,,,,,,,,,,,,,,,,,
035072,001,2022-11-21_24h55.25.382,Info_measure_main_exp,2022.2.2,Win32,60.08893162,,,,,,,,,,,,,,,,,,masks/mask_004.jpg,,,,,,,,,,,,,,,,,,,,,,,,,,,,,,,,,,,,,,,,,,,0,0,0,3,1,,,,,,,,,,,,,,,,,,,,,,,,,,,,,,,,,,,,,,,,,,,,,,
035072,001,2022-11-21_24h55.25.382,Info_measure_main_exp,2022.2.2,Win32,60.08893162,,,,,,,,,,,,,,,,,,masks/mask_005.jpg,,,,,,,,,,,,,,,,,,,,,,,,,,,,,,,,,,,,,,,,,,,0,1,1,4,1,,,,,,,,,,,,,,,,,,,,,,,,,,,,,,,,,,,,,,,,,,,,,,
035072,001,2022-11-21_24h55.25.382,Info_measure_main_exp,2022.2.2,Win32,60.08893162,,,,,,,,,,,,,,,,,,masks/mask_001.jpg,,,,,,,,,,,,,,,,,,,,,,,,,,,,,,,,,,,,,,,,,,,0,2,2,0,1,,,,,,,,,,,,,,,,,,,,,,,,,,,,,,,,,,,,,,,,,,,,,,
035072,001,2022-11-21_24h55.25.382,Info_measure_main_exp,2022.2.2,Win32,60.08893162,,,,,,,,,,,,,,,,,,masks/mask_003.jpg,,,,,,,,,,,,,,,,,,,,,,,,,,,,,,,,,,,,,,,,,,,0,3,3,2,1,,,,,,,,,,,,,,,,,,,,,,,,,,,,,,,,,,,,,,,,,,,,,,
035072,001,2022-11-21_24h55.25.382,Info_measure_main_exp,2022.2.2,Win32,60.08893162,,,,,,,,,,,,,,,,,,masks/mask_002.jpg,,,,,,,,,,,,,,,,,,,,,,,,,,,,,,,,,,,,,,,,,,,0,4,4,1,1,,,,,,,,,,,,,,,,,,,,,,,,,,,,,,,,,,,,,,,,,,,,,,
035072,001,2022-11-21_24h55.25.382,Info_measure_main_exp,2022.2.2,Win32,60.08893162,,,,,,,,,,,,,,,,,,masks/mask_003.jpg,,,,,,,,,,,,,,,,,,,,,,,,,,,,,,,,,,,,,,,,,,,,,,,,0,0,0,2,1,,,,,,,,,,,,,,,,,,,,,,,,,,,,,,,,,,,,,,,,,
035072,001,2022-11-21_24h55.25.382,Info_measure_main_exp,2022.2.2,Win32,60.08893162,,,,,,,,,,,,,,,,,,masks/mask_005.jpg,,,,,,,,,,,,,,,,,,,,,,,,,,,,,,,,,,,,,,,,,,,,,,,,0,1,1,4,1,,,,,,,,,,,,,,,,,,,,,,,,,,,,,,,,,,,,,,,,,
035072,001,2022-11-21_24h55.25.382,Info_measure_main_exp,2022.2.2,Win32,60.08893162,,,,,,,,,,,,,,,,,,masks/mask_001.jpg,,,,,,,,,,,,,,,,,,,,,,,,,,,,,,,,,,,,,,,,,,,,,,,,0,2,2,0,1,,,,,,,,,,,,,,,,,,,,,,,,,,,,,,,,,,,,,,,,,
035072,001,2022-11-21_24h55.25.382,Info_measure_main_exp,2022.2.2,Win32,60.08893162,,,,,,,,,,,,,,,,,,masks/mask_004.jpg,,,,,,,,,,,,,,,,,,,,,,,,,,,,,,,,,,,,,,,,,,,,,,,,0,3,3,3,1,,,,,,,,,,,,,,,,,,,,,,,,,,,,,,,,,,,,,,,,,
035072,001,2022-11-21_24h55.25.382,Info_measure_main_exp,2022.2.2,Win32,60.08893162,,,,,,,,,,,,,,,,,,masks/mask_002.jpg,,,,,,,,,,,,,,,,,,,,,,,,,,,,,,,,,,,,,,,,,,,,,,,,0,4,4,1,1,,,,,,,,,,,,,,,,,,,,,,,,,,,,,,,,,,,,,,,,,
035072,001,2022-11-21_24h55.25.382,Info_measure_main_exp,2022.2.2,Win32,60.08893162,,,,,,,,,,,,,,,,,,,,,,,,,,,,,,2,5.9835,1,,,,,,,,,,,,0,131,5,5,2250,1950,absent_patch/patch0002250.jpg,absent_patch/patch0001950.jpg,,,,,,,,,,,,,,,,,,,,-0.07962963,-0.02962963,1,0,0,response5disk,18,-0.003703704,0.007407407,1,0,0,center_square,0,17,17,16,1,,,,,,,,,,,,,,,,,,,,,,,
035072,001,2022-11-21_24h55.25.382,Info_measure_main_exp,2022.2.2,Win32,60.08893162,,,,,,,,,,,,,,,,,,masks/mask_005.jpg,,,,,,,,,,,,,,,,,,,,,,,,,,,,,,,,,,,,,,,,,,,0,0,0,4,1,,,,,,,,,,,,,,,,,,,,,,,,,,,,,,,,,,,,,,,,,,,,,,
035072,001,2022-11-21_24h55.25.382,Info_measure_main_exp,2022.2.2,Win32,60.08893162,,,,,,,,,,,,,,,,,,masks/mask_002.jpg,,,,,,,,,,,,,,,,,,,,,,,,,,,,,,,,,,,,,,,,,,,0,1,1,1,1,,,,,,,,,,,,,,,,,,,,,,,,,,,,,,,,,,,,,,,,,,,,,,
035072,001,2022-11-21_24h55.25.382,Info_measure_main_exp,2022.2.2,Win32,60.08893162,,,,,,,,,,,,,,,,,,masks/mask_001.jpg,,,,,,,,,,,,,,,,,,,,,,,,,,,,,,,,,,,,,,,,,,,0,2,2,0,1,,,,,,,,,,,,,,,,,,,,,,,,,,,,,,,,,,,,,,,,,,,,,,
035072,001,2022-11-21_24h55.25.382,Info_measure_main_exp,2022.2.2,Win32,60.08893162,,,,,,,,,,,,,,,,,,masks/mask_003.jpg,,,,,,,,,,,,,,,,,,,,,,,,,,,,,,,,,,,,,,,,,,,0,3,3,2,1,,,,,,,,,,,,,,,,,,,,,,,,,,,,,,,,,,,,,,,,,,,,,,
035072,001,2022-11-21_24h55.25.382,Info_measure_main_exp,2022.2.2,Win32,60.08893162,,,,,,,,,,,,,,,,,,masks/mask_004.jpg,,,,,,,,,,,,,,,,,,,,,,,,,,,,,,,,,,,,,,,,,,,0,4,4,3,1,,,,,,,,,,,,,,,,,,,,,,,,,,,,,,,,,,,,,,,,,,,,,,
035072,001,2022-11-21_24h55.25.382,Info_measure_main_exp,2022.2.2,Win32,60.08893162,,,,,,,,,,,,,,,,,,masks/mask_001.jpg,,,,,,,,,,,,,,,,,,,,,,,,,,,,,,,,,,,,,,,,,,,,,,,,0,0,0,0,1,,,,,,,,,,,,,,,,,,,,,,,,,,,,,,,,,,,,,,,,,
035072,001,2022-11-21_24h55.25.382,Info_measure_main_exp,2022.2.2,Win32,60.08893162,,,,,,,,,,,,,,,,,,masks/mask_003.jpg,,,,,,,,,,,,,,,,,,,,,,,,,,,,,,,,,,,,,,,,,,,,,,,,0,1,1,2,1,,,,,,,,,,,,,,,,,,,,,,,,,,,,,,,,,,,,,,,,,
035072,001,2022-11-21_24h55.25.382,Info_measure_main_exp,2022.2.2,Win32,60.08893162,,,,,,,,,,,,,,,,,,masks/mask_005.jpg,,,,,,,,,,,,,,,,,,,,,,,,,,,,,,,,,,,,,,,,,,,,,,,,0,2,2,4,1,,,,,,,,,,,,,,,,,,,,,,,,,,,,,,,,,,,,,,,,,
035072,001,2022-11-21_24h55.25.382,Info_measure_main_exp,2022.2.2,Win32,60.08893162,,,,,,,,,,,,,,,,,,masks/mask_004.jpg,,,,,,,,,,,,,,,,,,,,,,,,,,,,,,,,,,,,,,,,,,,,,,,,0,3,3,3,1,,,,,,,,,,,,,,,,,,,,,,,,,,,,,,,,,,,,,,,,,
035072,001,2022-11-21_24h55.25.382,Info_measure_main_exp,2022.2.2,Win32,60.08893162,,,,,,,,,,,,,,,,,,masks/mask_002.jpg,,,,,,,,,,,,,,,,,,,,,,,,,,,,,,,,,,,,,,,,,,,,,,,,0,4,4,1,1,,,,,,,,,,,,,,,,,,,,,,,,,,,,,,,,,,,,,,,,,
035072,001,2022-11-21_24h55.25.382,Info_measure_main_exp,2022.2.2,Win32,60.08893162,,,,,,,,,,,,,,,,,,,,,,,,,,,,,,7,0.6002,1,,,,,,,,,,,,0,131,5,5,2274,2082,absent_patch/patch0002274.jpg,absent_patch/patch0002082.jpg,,,,,,,,,,,,,,,,,,,,0.02037037,0.057407407,1,0,0,response1disk,19,0,0,1,0,0,center_square,0,18,18,100,1,,,,,,,,,,,,,,,,,,,,,,,
035072,001,2022-11-21_24h55.25.382,Info_measure_main_exp,2022.2.2,Win32,60.08893162,,,,,,,,,,,,,,,,,,masks/mask_003.jpg,,,,,,,,,,,,,,,,,,,,,,,,,,,,,,,,,,,,,,,,,,,0,0,0,2,1,,,,,,,,,,,,,,,,,,,,,,,,,,,,,,,,,,,,,,,,,,,,,,
035072,001,2022-11-21_24h55.25.382,Info_measure_main_exp,2022.2.2,Win32,60.08893162,,,,,,,,,,,,,,,,,,masks/mask_005.jpg,,,,,,,,,,,,,,,,,,,,,,,,,,,,,,,,,,,,,,,,,,,0,1,1,4,1,,,,,,,,,,,,,,,,,,,,,,,,,,,,,,,,,,,,,,,,,,,,,,
035072,001,2022-11-21_24h55.25.382,Info_measure_main_exp,2022.2.2,Win32,60.08893162,,,,,,,,,,,,,,,,,,masks/mask_001.jpg,,,,,,,,,,,,,,,,,,,,,,,,,,,,,,,,,,,,,,,,,,,0,2,2,0,1,,,,,,,,,,,,,,,,,,,,,,,,,,,,,,,,,,,,,,,,,,,,,,
035072,001,2022-11-21_24h55.25.382,Info_measure_main_exp,2022.2.2,Win32,60.08893162,,,,,,,,,,,,,,,,,,masks/mask_002.jpg,,,,,,,,,,,,,,,,,,,,,,,,,,,,,,,,,,,,,,,,,,,0,3,3,1,1,,,,,,,,,,,,,,,,,,,,,,,,,,,,,,,,,,,,,,,,,,,,,,
035072,001,2022-11-21_24h55.25.382,Info_measure_main_exp,2022.2.2,Win32,60.08893162,,,,,,,,,,,,,,,,,,masks/mask_004.jpg,,,,,,,,,,,,,,,,,,,,,,,,,,,,,,,,,,,,,,,,,,,0,4,4,3,1,,,,,,,,,,,,,,,,,,,,,,,,,,,,,,,,,,,,,,,,,,,,,,
035072,001,2022-11-21_24h55.25.382,Info_measure_main_exp,2022.2.2,Win32,60.08893162,,,,,,,,,,,,,,,,,,masks/mask_002.jpg,,,,,,,,,,,,,,,,,,,,,,,,,,,,,,,,,,,,,,,,,,,,,,,,0,0,0,1,1,,,,,,,,,,,,,,,,,,,,,,,,,,,,,,,,,,,,,,,,,
035072,001,2022-11-21_24h55.25.382,Info_measure_main_exp,2022.2.2,Win32,60.08893162,,,,,,,,,,,,,,,,,,masks/mask_003.jpg,,,,,,,,,,,,,,,,,,,,,,,,,,,,,,,,,,,,,,,,,,,,,,,,0,1,1,2,1,,,,,,,,,,,,,,,,,,,,,,,,,,,,,,,,,,,,,,,,,
035072,001,2022-11-21_24h55.25.382,Info_measure_main_exp,2022.2.2,Win32,60.08893162,,,,,,,,,,,,,,,,,,masks/mask_001.jpg,,,,,,,,,,,,,,,,,,,,,,,,,,,,,,,,,,,,,,,,,,,,,,,,0,2,2,0,1,,,,,,,,,,,,,,,,,,,,,,,,,,,,,,,,,,,,,,,,,
035072,001,2022-11-21_24h55.25.382,Info_measure_main_exp,2022.2.2,Win32,60.08893162,,,,,,,,,,,,,,,,,,masks/mask_005.jpg,,,,,,,,,,,,,,,,,,,,,,,,,,,,,,,,,,,,,,,,,,,,,,,,0,3,3,4,1,,,,,,,,,,,,,,,,,,,,,,,,,,,,,,,,,,,,,,,,,
035072,001,2022-11-21_24h55.25.382,Info_measure_main_exp,2022.2.2,Win32,60.08893162,,,,,,,,,,,,,,,,,,masks/mask_004.jpg,,,,,,,,,,,,,,,,,,,,,,,,,,,,,,,,,,,,,,,,,,,,,,,,0,4,4,3,1,,,,,,,,,,,,,,,,,,,,,,,,,,,,,,,,,,,,,,,,,
035072,001,2022-11-21_24h55.25.382,Info_measure_main_exp,2022.2.2,Win32,60.08893162,,,,,,,,,,,,,,,,,,,,,,,,,,,,,,7,0.7501,1,,,,,,,,,,,,0,131,5,5,2190,2214,absent_patch/patch0002190.jpg,absent_patch/patch0002214.jpg,,,,,,,,,,,,,,,,,,,,0.014814815,0.061111111,1,0,0,response1disk,20,-0.009259259,0.003703704,1,0,0,center_square,0,19,19,35,1,,,,,,,,,,,,,,,,,,,,,,,
035072,001,2022-11-21_24h55.25.382,Info_measure_main_exp,2022.2.2,Win32,60.08893162,,,,,,,,,,,,,,,,,,masks/mask_001.jpg,,,,,,,,,,,,,,,,,,,,,,,,,,,,,,,,,,,,,,,,,,,0,0,0,0,1,,,,,,,,,,,,,,,,,,,,,,,,,,,,,,,,,,,,,,,,,,,,,,
035072,001,2022-11-21_24h55.25.382,Info_measure_main_exp,2022.2.2,Win32,60.08893162,,,,,,,,,,,,,,,,,,masks/mask_004.jpg,,,,,,,,,,,,,,,,,,,,,,,,,,,,,,,,,,,,,,,,,,,0,1,1,3,1,,,,,,,,,,,,,,,,,,,,,,,,,,,,,,,,,,,,,,,,,,,,,,
035072,001,2022-11-21_24h55.25.382,Info_measure_main_exp,2022.2.2,Win32,60.08893162,,,,,,,,,,,,,,,,,,masks/mask_005.jpg,,,,,,,,,,,,,,,,,,,,,,,,,,,,,,,,,,,,,,,,,,,0,2,2,4,1,,,,,,,,,,,,,,,,,,,,,,,,,,,,,,,,,,,,,,,,,,,,,,
035072,001,2022-11-21_24h55.25.382,Info_measure_main_exp,2022.2.2,Win32,60.08893162,,,,,,,,,,,,,,,,,,masks/mask_003.jpg,,,,,,,,,,,,,,,,,,,,,,,,,,,,,,,,,,,,,,,,,,,0,3,3,2,1,,,,,,,,,,,,,,,,,,,,,,,,,,,,,,,,,,,,,,,,,,,,,,
035072,001,2022-11-21_24h55.25.382,Info_measure_main_exp,2022.2.2,Win32,60.08893162,,,,,,,,,,,,,,,,,,masks/mask_002.jpg,,,,,,,,,,,,,,,,,,,,,,,,,,,,,,,,,,,,,,,,,,,0,4,4,1,1,,,,,,,,,,,,,,,,,,,,,,,,,,,,,,,,,,,,,,,,,,,,,,
035072,001,2022-11-21_24h55.25.382,Info_measure_main_exp,2022.2.2,Win32,60.08893162,,,,,,,,,,,,,,,,,,masks/mask_005.jpg,,,,,,,,,,,,,,,,,,,,,,,,,,,,,,,,,,,,,,,,,,,,,,,,0,0,0,4,1,,,,,,,,,,,,,,,,,,,,,,,,,,,,,,,,,,,,,,,,,
035072,001,2022-11-21_24h55.25.382,Info_measure_main_exp,2022.2.2,Win32,60.08893162,,,,,,,,,,,,,,,,,,masks/mask_004.jpg,,,,,,,,,,,,,,,,,,,,,,,,,,,,,,,,,,,,,,,,,,,,,,,,0,1,1,3,1,,,,,,,,,,,,,,,,,,,,,,,,,,,,,,,,,,,,,,,,,
035072,001,2022-11-21_24h55.25.382,Info_measure_main_exp,2022.2.2,Win32,60.08893162,,,,,,,,,,,,,,,,,,masks/mask_002.jpg,,,,,,,,,,,,,,,,,,,,,,,,,,,,,,,,,,,,,,,,,,,,,,,,0,2,2,1,1,,,,,,,,,,,,,,,,,,,,,,,,,,,,,,,,,,,,,,,,,
035072,001,2022-11-21_24h55.25.382,Info_measure_main_exp,2022.2.2,Win32,60.08893162,,,,,,,,,,,,,,,,,,masks/mask_001.jpg,,,,,,,,,,,,,,,,,,,,,,,,,,,,,,,,,,,,,,,,,,,,,,,,0,3,3,0,1,,,,,,,,,,,,,,,,,,,,,,,,,,,,,,,,,,,,,,,,,
035072,001,2022-11-21_24h55.25.382,Info_measure_main_exp,2022.2.2,Win32,60.08893162,,,,,,,,,,,,,,,,,,masks/mask_003.jpg,,,,,,,,,,,,,,,,,,,,,,,,,,,,,,,,,,,,,,,,,,,,,,,,0,4,4,2,1,,,,,,,,,,,,,,,,,,,,,,,,,,,,,,,,,,,,,,,,,
035072,001,2022-11-21_24h55.25.382,Info_measure_main_exp,2022.2.2,Win32,60.08893162,,,,,,,,,,,,,,,,,,,,,,,,,,,,,,7,0.4506,1,,,,,,,,,,,,0,131,5,5,2238,2214,absent_patch/patch0002238.jpg,absent_patch/patch0002214.jpg,,,,,,,,,,,,,,,,,,,,0.040740741,0.09537037,1,0,0,response1disk,21,0.006481481,0.008333333,1,0,0,center_square,0,20,20,81,1,,,,,,,,,,,,,,,,,,,,,,,
035072,001,2022-11-21_24h55.25.382,Info_measure_main_exp,2022.2.2,Win32,60.08893162,,,,,,,,,,,,,,,,,,masks/mask_004.jpg,,,,,,,,,,,,,,,,,,,,,,,,,,,,,,,,,,,,,,,,,,,0,0,0,3,1,,,,,,,,,,,,,,,,,,,,,,,,,,,,,,,,,,,,,,,,,,,,,,
035072,001,2022-11-21_24h55.25.382,Info_measure_main_exp,2022.2.2,Win32,60.08893162,,,,,,,,,,,,,,,,,,masks/mask_003.jpg,,,,,,,,,,,,,,,,,,,,,,,,,,,,,,,,,,,,,,,,,,,0,1,1,2,1,,,,,,,,,,,,,,,,,,,,,,,,,,,,,,,,,,,,,,,,,,,,,,
035072,001,2022-11-21_24h55.25.382,Info_measure_main_exp,2022.2.2,Win32,60.08893162,,,,,,,,,,,,,,,,,,masks/mask_005.jpg,,,,,,,,,,,,,,,,,,,,,,,,,,,,,,,,,,,,,,,,,,,0,2,2,4,1,,,,,,,,,,,,,,,,,,,,,,,,,,,,,,,,,,,,,,,,,,,,,,
035072,001,2022-11-21_24h55.25.382,Info_measure_main_exp,2022.2.2,Win32,60.08893162,,,,,,,,,,,,,,,,,,masks/mask_002.jpg,,,,,,,,,,,,,,,,,,,,,,,,,,,,,,,,,,,,,,,,,,,0,3,3,1,1,,,,,,,,,,,,,,,,,,,,,,,,,,,,,,,,,,,,,,,,,,,,,,
035072,001,2022-11-21_24h55.25.382,Info_measure_main_exp,2022.2.2,Win32,60.08893162,,,,,,,,,,,,,,,,,,masks/mask_001.jpg,,,,,,,,,,,,,,,,,,,,,,,,,,,,,,,,,,,,,,,,,,,0,4,4,0,1,,,,,,,,,,,,,,,,,,,,,,,,,,,,,,,,,,,,,,,,,,,,,,
035072,001,2022-11-21_24h55.25.382,Info_measure_main_exp,2022.2.2,Win32,60.08893162,,,,,,,,,,,,,,,,,,masks/mask_002.jpg,,,,,,,,,,,,,,,,,,,,,,,,,,,,,,,,,,,,,,,,,,,,,,,,0,0,0,1,1,,,,,,,,,,,,,,,,,,,,,,,,,,,,,,,,,,,,,,,,,
035072,001,2022-11-21_24h55.25.382,Info_measure_main_exp,2022.2.2,Win32,60.08893162,,,,,,,,,,,,,,,,,,masks/mask_003.jpg,,,,,,,,,,,,,,,,,,,,,,,,,,,,,,,,,,,,,,,,,,,,,,,,0,1,1,2,1,,,,,,,,,,,,,,,,,,,,,,,,,,,,,,,,,,,,,,,,,
035072,001,2022-11-21_24h55.25.382,Info_measure_main_exp,2022.2.2,Win32,60.08893162,,,,,,,,,,,,,,,,,,masks/mask_001.jpg,,,,,,,,,,,,,,,,,,,,,,,,,,,,,,,,,,,,,,,,,,,,,,,,0,2,2,0,1,,,,,,,,,,,,,,,,,,,,,,,,,,,,,,,,,,,,,,,,,
035072,001,2022-11-21_24h55.25.382,Info_measure_main_exp,2022.2.2,Win32,60.08893162,,,,,,,,,,,,,,,,,,masks/mask_004.jpg,,,,,,,,,,,,,,,,,,,,,,,,,,,,,,,,,,,,,,,,,,,,,,,,0,3,3,3,1,,,,,,,,,,,,,,,,,,,,,,,,,,,,,,,,,,,,,,,,,
035072,001,2022-11-21_24h55.25.382,Info_measure_main_exp,2022.2.2,Win32,60.08893162,,,,,,,,,,,,,,,,,,masks/mask_005.jpg,,,,,,,,,,,,,,,,,,,,,,,,,,,,,,,,,,,,,,,,,,,,,,,,0,4,4,4,1,,,,,,,,,,,,,,,,,,,,,,,,,,,,,,,,,,,,,,,,,
035072,001,2022-11-21_24h55.25.382,Info_measure_main_exp,2022.2.2,Win32,60.08893162,,,,,,,,,,,,,,,,,,,,,,,,,,,,,,6,2.5337,1,,,,,,,,,,,,0,131,5,5,2082,2178,absent_patch/patch0002082.jpg,absent_patch/patch0002178.jpg,,,,,,,,,,,,,,,,,,,,0.125,0.016666667,1,0,0,response1disk,22,0.010185185,-0.000925926,1,0,0,center_square,0,21,21,2,1,,,,,,,,,,,,,,,,,,,,,,,
035072,001,2022-11-21_24h55.25.382,Info_measure_main_exp,2022.2.2,Win32,60.08893162,,,,,,,,,,,,,,,,,,masks/mask_005.jpg,,,,,,,,,,,,,,,,,,,,,,,,,,,,,,,,,,,,,,,,,,,0,0,0,4,1,,,,,,,,,,,,,,,,,,,,,,,,,,,,,,,,,,,,,,,,,,,,,,
035072,001,2022-11-21_24h55.25.382,Info_measure_main_exp,2022.2.2,Win32,60.08893162,,,,,,,,,,,,,,,,,,masks/mask_002.jpg,,,,,,,,,,,,,,,,,,,,,,,,,,,,,,,,,,,,,,,,,,,0,1,1,1,1,,,,,,,,,,,,,,,,,,,,,,,,,,,,,,,,,,,,,,,,,,,,,,
035072,001,2022-11-21_24h55.25.382,Info_measure_main_exp,2022.2.2,Win32,60.08893162,,,,,,,,,,,,,,,,,,masks/mask_004.jpg,,,,,,,,,,,,,,,,,,,,,,,,,,,,,,,,,,,,,,,,,,,0,2,2,3,1,,,,,,,,,,,,,,,,,,,,,,,,,,,,,,,,,,,,,,,,,,,,,,
035072,001,2022-11-21_24h55.25.382,Info_measure_main_exp,2022.2.2,Win32,60.08893162,,,,,,,,,,,,,,,,,,masks/mask_003.jpg,,,,,,,,,,,,,,,,,,,,,,,,,,,,,,,,,,,,,,,,,,,0,3,3,2,1,,,,,,,,,,,,,,,,,,,,,,,,,,,,,,,,,,,,,,,,,,,,,,
035072,001,2022-11-21_24h55.25.382,Info_measure_main_exp,2022.2.2,Win32,60.08893162,,,,,,,,,,,,,,,,,,masks/mask_001.jpg,,,,,,,,,,,,,,,,,,,,,,,,,,,,,,,,,,,,,,,,,,,0,4,4,0,1,,,,,,,,,,,,,,,,,,,,,,,,,,,,,,,,,,,,,,,,,,,,,,
035072,001,2022-11-21_24h55.25.382,Info_measure_main_exp,2022.2.2,Win32,60.08893162,,,,,,,,,,,,,,,,,,masks/mask_001.jpg,,,,,,,,,,,,,,,,,,,,,,,,,,,,,,,,,,,,,,,,,,,,,,,,0,0,0,0,1,,,,,,,,,,,,,,,,,,,,,,,,,,,,,,,,,,,,,,,,,
035072,001,2022-11-21_24h55.25.382,Info_measure_main_exp,2022.2.2,Win32,60.08893162,,,,,,,,,,,,,,,,,,masks/mask_003.jpg,,,,,,,,,,,,,,,,,,,,,,,,,,,,,,,,,,,,,,,,,,,,,,,,0,1,1,2,1,,,,,,,,,,,,,,,,,,,,,,,,,,,,,,,,,,,,,,,,,
035072,001,2022-11-21_24h55.25.382,Info_measure_main_exp,2022.2.2,Win32,60.08893162,,,,,,,,,,,,,,,,,,masks/mask_004.jpg,,,,,,,,,,,,,,,,,,,,,,,,,,,,,,,,,,,,,,,,,,,,,,,,0,2,2,3,1,,,,,,,,,,,,,,,,,,,,,,,,,,,,,,,,,,,,,,,,,
035072,001,2022-11-21_24h55.25.382,Info_measure_main_exp,2022.2.2,Win32,60.08893162,,,,,,,,,,,,,,,,,,masks/mask_005.jpg,,,,,,,,,,,,,,,,,,,,,,,,,,,,,,,,,,,,,,,,,,,,,,,,0,3,3,4,1,,,,,,,,,,,,,,,,,,,,,,,,,,,,,,,,,,,,,,,,,
035072,001,2022-11-21_24h55.25.382,Info_measure_main_exp,2022.2.2,Win32,60.08893162,,,,,,,,,,,,,,,,,,masks/mask_002.jpg,,,,,,,,,,,,,,,,,,,,,,,,,,,,,,,,,,,,,,,,,,,,,,,,0,4,4,1,1,,,,,,,,,,,,,,,,,,,,,,,,,,,,,,,,,,,,,,,,,
035072,001,2022-11-21_24h55.25.382,Info_measure_main_exp,2022.2.2,Win32,60.08893162,,,,,,,,,,,,,,,,,,,,,,,,,,,,,,0,0.7834,1,,,,,,,,,,,,0,131,5,5,2214,2214,absent_patch/patch0002214.jpg,absent_patch/patch0002214.jpg,,,,,,,,,,,,,,,,,,,,-0.04537037,0.147222222,1,0,0,response7disk,23,0.002777778,0.00462963,1,0,0,center_square,0,22,22,115,1,,,,,,,,,,,,,,,,,,,,,,,
035072,001,2022-11-21_24h55.25.382,Info_measure_main_exp,2022.2.2,Win32,60.08893162,,,,,,,,,,,,,,,,,,masks/mask_004.jpg,,,,,,,,,,,,,,,,,,,,,,,,,,,,,,,,,,,,,,,,,,,0,0,0,3,1,,,,,,,,,,,,,,,,,,,,,,,,,,,,,,,,,,,,,,,,,,,,,,
035072,001,2022-11-21_24h55.25.382,Info_measure_main_exp,2022.2.2,Win32,60.08893162,,,,,,,,,,,,,,,,,,masks/mask_003.jpg,,,,,,,,,,,,,,,,,,,,,,,,,,,,,,,,,,,,,,,,,,,0,1,1,2,1,,,,,,,,,,,,,,,,,,,,,,,,,,,,,,,,,,,,,,,,,,,,,,
035072,001,2022-11-21_24h55.25.382,Info_measure_main_exp,2022.2.2,Win32,60.08893162,,,,,,,,,,,,,,,,,,masks/mask_002.jpg,,,,,,,,,,,,,,,,,,,,,,,,,,,,,,,,,,,,,,,,,,,0,2,2,1,1,,,,,,,,,,,,,,,,,,,,,,,,,,,,,,,,,,,,,,,,,,,,,,
035072,001,2022-11-21_24h55.25.382,Info_measure_main_exp,2022.2.2,Win32,60.08893162,,,,,,,,,,,,,,,,,,masks/mask_001.jpg,,,,,,,,,,,,,,,,,,,,,,,,,,,,,,,,,,,,,,,,,,,0,3,3,0,1,,,,,,,,,,,,,,,,,,,,,,,,,,,,,,,,,,,,,,,,,,,,,,
035072,001,2022-11-21_24h55.25.382,Info_measure_main_exp,2022.2.2,Win32,60.08893162,,,,,,,,,,,,,,,,,,masks/mask_005.jpg,,,,,,,,,,,,,,,,,,,,,,,,,,,,,,,,,,,,,,,,,,,0,4,4,4,1,,,,,,,,,,,,,,,,,,,,,,,,,,,,,,,,,,,,,,,,,,,,,,
035072,001,2022-11-21_24h55.25.382,Info_measure_main_exp,2022.2.2,Win32,60.08893162,,,,,,,,,,,,,,,,,,masks/mask_002.jpg,,,,,,,,,,,,,,,,,,,,,,,,,,,,,,,,,,,,,,,,,,,,,,,,0,0,0,1,1,,,,,,,,,,,,,,,,,,,,,,,,,,,,,,,,,,,,,,,,,
035072,001,2022-11-21_24h55.25.382,Info_measure_main_exp,2022.2.2,Win32,60.08893162,,,,,,,,,,,,,,,,,,masks/mask_004.jpg,,,,,,,,,,,,,,,,,,,,,,,,,,,,,,,,,,,,,,,,,,,,,,,,0,1,1,3,1,,,,,,,,,,,,,,,,,,,,,,,,,,,,,,,,,,,,,,,,,
035072,001,2022-11-21_24h55.25.382,Info_measure_main_exp,2022.2.2,Win32,60.08893162,,,,,,,,,,,,,,,,,,masks/mask_003.jpg,,,,,,,,,,,,,,,,,,,,,,,,,,,,,,,,,,,,,,,,,,,,,,,,0,2,2,2,1,,,,,,,,,,,,,,,,,,,,,,,,,,,,,,,,,,,,,,,,,
035072,001,2022-11-21_24h55.25.382,Info_measure_main_exp,2022.2.2,Win32,60.08893162,,,,,,,,,,,,,,,,,,masks/mask_001.jpg,,,,,,,,,,,,,,,,,,,,,,,,,,,,,,,,,,,,,,,,,,,,,,,,0,3,3,0,1,,,,,,,,,,,,,,,,,,,,,,,,,,,,,,,,,,,,,,,,,
035072,001,2022-11-21_24h55.25.382,Info_measure_main_exp,2022.2.2,Win32,60.08893162,,,,,,,,,,,,,,,,,,masks/mask_005.jpg,,,,,,,,,,,,,,,,,,,,,,,,,,,,,,,,,,,,,,,,,,,,,,,,0,4,4,4,1,,,,,,,,,,,,,,,,,,,,,,,,,,,,,,,,,,,,,,,,,
035072,001,2022-11-21_24h55.25.382,Info_measure_main_exp,2022.2.2,Win32,60.08893162,,,,,,,,,,,,,,,,,,,,,,,,,,,,,,5,1.9498,1,,,,,,,,,,,,0,131,5,5,1950,2142,absent_patch/patch0001950.jpg,absent_patch/patch0002142.jpg,,,,,,,,,,,,,,,,,,,,0.084259259,-0.021296296,1,0,0,response3disk,24,0.001851852,0.001851852,1,0,0,center_square,0,23,23,83,1,,,,,,,,,,,,,,,,,,,,,,,
035072,001,2022-11-21_24h55.25.382,Info_measure_main_exp,2022.2.2,Win32,60.08893162,,,,,,,,,,,,,,,,,,masks/mask_002.jpg,,,,,,,,,,,,,,,,,,,,,,,,,,,,,,,,,,,,,,,,,,,0,0,0,1,1,,,,,,,,,,,,,,,,,,,,,,,,,,,,,,,,,,,,,,,,,,,,,,
035072,001,2022-11-21_24h55.25.382,Info_measure_main_exp,2022.2.2,Win32,60.08893162,,,,,,,,,,,,,,,,,,masks/mask_005.jpg,,,,,,,,,,,,,,,,,,,,,,,,,,,,,,,,,,,,,,,,,,,0,1,1,4,1,,,,,,,,,,,,,,,,,,,,,,,,,,,,,,,,,,,,,,,,,,,,,,
035072,001,2022-11-21_24h55.25.382,Info_measure_main_exp,2022.2.2,Win32,60.08893162,,,,,,,,,,,,,,,,,,masks/mask_003.jpg,,,,,,,,,,,,,,,,,,,,,,,,,,,,,,,,,,,,,,,,,,,0,2,2,2,1,,,,,,,,,,,,,,,,,,,,,,,,,,,,,,,,,,,,,,,,,,,,,,
035072,001,2022-11-21_24h55.25.382,Info_measure_main_exp,2022.2.2,Win32,60.08893162,,,,,,,,,,,,,,,,,,masks/mask_001.jpg,,,,,,,,,,,,,,,,,,,,,,,,,,,,,,,,,,,,,,,,,,,0,3,3,0,1,,,,,,,,,,,,,,,,,,,,,,,,,,,,,,,,,,,,,,,,,,,,,,
035072,001,2022-11-21_24h55.25.382,Info_measure_main_exp,2022.2.2,Win32,60.08893162,,,,,,,,,,,,,,,,,,masks/mask_004.jpg,,,,,,,,,,,,,,,,,,,,,,,,,,,,,,,,,,,,,,,,,,,0,4,4,3,1,,,,,,,,,,,,,,,,,,,,,,,,,,,,,,,,,,,,,,,,,,,,,,
035072,001,2022-11-21_24h55.25.382,Info_measure_main_exp,2022.2.2,Win32,60.08893162,,,,,,,,,,,,,,,,,,masks/mask_001.jpg,,,,,,,,,,,,,,,,,,,,,,,,,,,,,,,,,,,,,,,,,,,,,,,,0,0,0,0,1,,,,,,,,,,,,,,,,,,,,,,,,,,,,,,,,,,,,,,,,,
035072,001,2022-11-21_24h55.25.382,Info_measure_main_exp,2022.2.2,Win32,60.08893162,,,,,,,,,,,,,,,,,,masks/mask_002.jpg,,,,,,,,,,,,,,,,,,,,,,,,,,,,,,,,,,,,,,,,,,,,,,,,0,1,1,1,1,,,,,,,,,,,,,,,,,,,,,,,,,,,,,,,,,,,,,,,,,
035072,001,2022-11-21_24h55.25.382,Info_measure_main_exp,2022.2.2,Win32,60.08893162,,,,,,,,,,,,,,,,,,masks/mask_005.jpg,,,,,,,,,,,,,,,,,,,,,,,,,,,,,,,,,,,,,,,,,,,,,,,,0,2,2,4,1,,,,,,,,,,,,,,,,,,,,,,,,,,,,,,,,,,,,,,,,,
035072,001,2022-11-21_24h55.25.382,Info_measure_main_exp,2022.2.2,Win32,60.08893162,,,,,,,,,,,,,,,,,,masks/mask_003.jpg,,,,,,,,,,,,,,,,,,,,,,,,,,,,,,,,,,,,,,,,,,,,,,,,0,3,3,2,1,,,,,,,,,,,,,,,,,,,,,,,,,,,,,,,,,,,,,,,,,
035072,001,2022-11-21_24h55.25.382,Info_measure_main_exp,2022.2.2,Win32,60.08893162,,,,,,,,,,,,,,,,,,masks/mask_004.jpg,,,,,,,,,,,,,,,,,,,,,,,,,,,,,,,,,,,,,,,,,,,,,,,,0,4,4,3,1,,,,,,,,,,,,,,,,,,,,,,,,,,,,,,,,,,,,,,,,,
035072,001,2022-11-21_24h55.25.382,Info_measure_main_exp,2022.2.2,Win32,60.08893162,,,,,,,,,,,,,,,,,,,,,,,,,,,,,,0,0.649,1,,,,,,,,,,,,0,131,5,5,2142,2142,absent_patch/patch0002142.jpg,absent_patch/patch0002142.jpg,,,,,,,,,,,,,,,,,,,,-0.046296296,0.134259259,1,0,0,response7disk,25,-0.000925926,0.00462963,1,0,0,center_square,0,24,24,13,1,,,,,,,,,,,,,,,,,,,,,,,
035072,001,2022-11-21_24h55.25.382,Info_measure_main_exp,2022.2.2,Win32,60.08893162,,,,,,,,,,,,,,,,,,masks/mask_001.jpg,,,,,,,,,,,,,,,,,,,,,,,,,,,,,,,,,,,,,,,,,,,0,0,0,0,1,,,,,,,,,,,,,,,,,,,,,,,,,,,,,,,,,,,,,,,,,,,,,,
035072,001,2022-11-21_24h55.25.382,Info_measure_main_exp,2022.2.2,Win32,60.08893162,,,,,,,,,,,,,,,,,,masks/mask_003.jpg,,,,,,,,,,,,,,,,,,,,,,,,,,,,,,,,,,,,,,,,,,,0,1,1,2,1,,,,,,,,,,,,,,,,,,,,,,,,,,,,,,,,,,,,,,,,,,,,,,
035072,001,2022-11-21_24h55.25.382,Info_measure_main_exp,2022.2.2,Win32,60.08893162,,,,,,,,,,,,,,,,,,masks/mask_002.jpg,,,,,,,,,,,,,,,,,,,,,,,,,,,,,,,,,,,,,,,,,,,0,2,2,1,1,,,,,,,,,,,,,,,,,,,,,,,,,,,,,,,,,,,,,,,,,,,,,,
035072,001,2022-11-21_24h55.25.382,Info_measure_main_exp,2022.2.2,Win32,60.08893162,,,,,,,,,,,,,,,,,,masks/mask_005.jpg,,,,,,,,,,,,,,,,,,,,,,,,,,,,,,,,,,,,,,,,,,,0,3,3,4,1,,,,,,,,,,,,,,,,,,,,,,,,,,,,,,,,,,,,,,,,,,,,,,
035072,001,2022-11-21_24h55.25.382,Info_measure_main_exp,2022.2.2,Win32,60.08893162,,,,,,,,,,,,,,,,,,masks/mask_004.jpg,,,,,,,,,,,,,,,,,,,,,,,,,,,,,,,,,,,,,,,,,,,0,4,4,3,1,,,,,,,,,,,,,,,,,,,,,,,,,,,,,,,,,,,,,,,,,,,,,,
035072,001,2022-11-21_24h55.25.382,Info_measure_main_exp,2022.2.2,Win32,60.08893162,,,,,,,,,,,,,,,,,,masks/mask_004.jpg,,,,,,,,,,,,,,,,,,,,,,,,,,,,,,,,,,,,,,,,,,,,,,,,0,0,0,3,1,,,,,,,,,,,,,,,,,,,,,,,,,,,,,,,,,,,,,,,,,
035072,001,2022-11-21_24h55.25.382,Info_measure_main_exp,2022.2.2,Win32,60.08893162,,,,,,,,,,,,,,,,,,masks/mask_003.jpg,,,,,,,,,,,,,,,,,,,,,,,,,,,,,,,,,,,,,,,,,,,,,,,,0,1,1,2,1,,,,,,,,,,,,,,,,,,,,,,,,,,,,,,,,,,,,,,,,,
035072,001,2022-11-21_24h55.25.382,Info_measure_main_exp,2022.2.2,Win32,60.08893162,,,,,,,,,,,,,,,,,,masks/mask_005.jpg,,,,,,,,,,,,,,,,,,,,,,,,,,,,,,,,,,,,,,,,,,,,,,,,0,2,2,4,1,,,,,,,,,,,,,,,,,,,,,,,,,,,,,,,,,,,,,,,,,
035072,001,2022-11-21_24h55.25.382,Info_measure_main_exp,2022.2.2,Win32,60.08893162,,,,,,,,,,,,,,,,,,masks/mask_001.jpg,,,,,,,,,,,,,,,,,,,,,,,,,,,,,,,,,,,,,,,,,,,,,,,,0,3,3,0,1,,,,,,,,,,,,,,,,,,,,,,,,,,,,,,,,,,,,,,,,,
035072,001,2022-11-21_24h55.25.382,Info_measure_main_exp,2022.2.2,Win32,60.08893162,,,,,,,,,,,,,,,,,,masks/mask_002.jpg,,,,,,,,,,,,,,,,,,,,,,,,,,,,,,,,,,,,,,,,,,,,,,,,0,4,4,1,1,,,,,,,,,,,,,,,,,,,,,,,,,,,,,,,,,,,,,,,,,
035072,001,2022-11-21_24h55.25.382,Info_measure_main_exp,2022.2.2,Win32,60.08893162,,,,,,,,,,,,,,,,,,,,,,,,,,,,,,0,1.3833,1,,,,,,,,,,,,0,131,5,5,1950,1950,absent_patch/patch0001950.jpg,absent_patch/patch0001950.jpg,,,,,,,,,,,,,,,,,,,,-0.055555556,0.142592593,1,0,0,response7disk,26,-0.001851852,-0.000925926,1,0,0,center_square,0,25,25,92,1,,,,,,,,,,,,,,,,,,,,,,,
035072,001,2022-11-21_24h55.25.382,Info_measure_main_exp,2022.2.2,Win32,60.08893162,,,,,,,,,,,,,,,,,,masks/mask_003.jpg,,,,,,,,,,,,,,,,,,,,,,,,,,,,,,,,,,,,,,,,,,,0,0,0,2,1,,,,,,,,,,,,,,,,,,,,,,,,,,,,,,,,,,,,,,,,,,,,,,
035072,001,2022-11-21_24h55.25.382,Info_measure_main_exp,2022.2.2,Win32,60.08893162,,,,,,,,,,,,,,,,,,masks/mask_004.jpg,,,,,,,,,,,,,,,,,,,,,,,,,,,,,,,,,,,,,,,,,,,0,1,1,3,1,,,,,,,,,,,,,,,,,,,,,,,,,,,,,,,,,,,,,,,,,,,,,,
035072,001,2022-11-21_24h55.25.382,Info_measure_main_exp,2022.2.2,Win32,60.08893162,,,,,,,,,,,,,,,,,,masks/mask_002.jpg,,,,,,,,,,,,,,,,,,,,,,,,,,,,,,,,,,,,,,,,,,,0,2,2,1,1,,,,,,,,,,,,,,,,,,,,,,,,,,,,,,,,,,,,,,,,,,,,,,
035072,001,2022-11-21_24h55.25.382,Info_measure_main_exp,2022.2.2,Win32,60.08893162,,,,,,,,,,,,,,,,,,masks/mask_005.jpg,,,,,,,,,,,,,,,,,,,,,,,,,,,,,,,,,,,,,,,,,,,0,3,3,4,1,,,,,,,,,,,,,,,,,,,,,,,,,,,,,,,,,,,,,,,,,,,,,,
035072,001,2022-11-21_24h55.25.382,Info_measure_main_exp,2022.2.2,Win32,60.08893162,,,,,,,,,,,,,,,,,,masks/mask_001.jpg,,,,,,,,,,,,,,,,,,,,,,,,,,,,,,,,,,,,,,,,,,,0,4,4,0,1,,,,,,,,,,,,,,,,,,,,,,,,,,,,,,,,,,,,,,,,,,,,,,
035072,001,2022-11-21_24h55.25.382,Info_measure_main_exp,2022.2.2,Win32,60.08893162,,,,,,,,,,,,,,,,,,masks/mask_005.jpg,,,,,,,,,,,,,,,,,,,,,,,,,,,,,,,,,,,,,,,,,,,,,,,,0,0,0,4,1,,,,,,,,,,,,,,,,,,,,,,,,,,,,,,,,,,,,,,,,,
035072,001,2022-11-21_24h55.25.382,Info_measure_main_exp,2022.2.2,Win32,60.08893162,,,,,,,,,,,,,,,,,,masks/mask_003.jpg,,,,,,,,,,,,,,,,,,,,,,,,,,,,,,,,,,,,,,,,,,,,,,,,0,1,1,2,1,,,,,,,,,,,,,,,,,,,,,,,,,,,,,,,,,,,,,,,,,
035072,001,2022-11-21_24h55.25.382,Info_measure_main_exp,2022.2.2,Win32,60.08893162,,,,,,,,,,,,,,,,,,masks/mask_004.jpg,,,,,,,,,,,,,,,,,,,,,,,,,,,,,,,,,,,,,,,,,,,,,,,,0,2,2,3,1,,,,,,,,,,,,,,,,,,,,,,,,,,,,,,,,,,,,,,,,,
035072,001,2022-11-21_24h55.25.382,Info_measure_main_exp,2022.2.2,Win32,60.08893162,,,,,,,,,,,,,,,,,,masks/mask_002.jpg,,,,,,,,,,,,,,,,,,,,,,,,,,,,,,,,,,,,,,,,,,,,,,,,0,3,3,1,1,,,,,,,,,,,,,,,,,,,,,,,,,,,,,,,,,,,,,,,,,
035072,001,2022-11-21_24h55.25.382,Info_measure_main_exp,2022.2.2,Win32,60.08893162,,,,,,,,,,,,,,,,,,masks/mask_001.jpg,,,,,,,,,,,,,,,,,,,,,,,,,,,,,,,,,,,,,,,,,,,,,,,,0,4,4,0,1,,,,,,,,,,,,,,,,,,,,,,,,,,,,,,,,,,,,,,,,,
035072,001,2022-11-21_24h55.25.382,Info_measure_main_exp,2022.2.2,Win32,60.08893162,,,,,,,,,,,,,,,,,,,,,,,,,,,,,,2,1.9,1,,,,,,,,,,,,0,131,5,5,2190,2178,absent_patch/patch0002190.jpg,absent_patch/patch0002178.jpg,,,,,,,,,,,,,,,,,,,,-0.084259259,-0.012037037,1,0,0,response5disk,27,-0.009259259,0.005555556,1,0,0,center_square,0,26,26,14,1,,,,,,,,,,,,,,,,,,,,,,,
035072,001,2022-11-21_24h55.25.382,Info_measure_main_exp,2022.2.2,Win32,60.08893162,,,,,,,,,,,,,,,,,,masks/mask_004.jpg,,,,,,,,,,,,,,,,,,,,,,,,,,,,,,,,,,,,,,,,,,,0,0,0,3,1,,,,,,,,,,,,,,,,,,,,,,,,,,,,,,,,,,,,,,,,,,,,,,
035072,001,2022-11-21_24h55.25.382,Info_measure_main_exp,2022.2.2,Win32,60.08893162,,,,,,,,,,,,,,,,,,masks/mask_005.jpg,,,,,,,,,,,,,,,,,,,,,,,,,,,,,,,,,,,,,,,,,,,0,1,1,4,1,,,,,,,,,,,,,,,,,,,,,,,,,,,,,,,,,,,,,,,,,,,,,,
035072,001,2022-11-21_24h55.25.382,Info_measure_main_exp,2022.2.2,Win32,60.08893162,,,,,,,,,,,,,,,,,,masks/mask_003.jpg,,,,,,,,,,,,,,,,,,,,,,,,,,,,,,,,,,,,,,,,,,,0,2,2,2,1,,,,,,,,,,,,,,,,,,,,,,,,,,,,,,,,,,,,,,,,,,,,,,
035072,001,2022-11-21_24h55.25.382,Info_measure_main_exp,2022.2.2,Win32,60.08893162,,,,,,,,,,,,,,,,,,masks/mask_002.jpg,,,,,,,,,,,,,,,,,,,,,,,,,,,,,,,,,,,,,,,,,,,0,3,3,1,1,,,,,,,,,,,,,,,,,,,,,,,,,,,,,,,,,,,,,,,,,,,,,,
035072,001,2022-11-21_24h55.25.382,Info_measure_main_exp,2022.2.2,Win32,60.08893162,,,,,,,,,,,,,,,,,,masks/mask_001.jpg,,,,,,,,,,,,,,,,,,,,,,,,,,,,,,,,,,,,,,,,,,,0,4,4,0,1,,,,,,,,,,,,,,,,,,,,,,,,,,,,,,,,,,,,,,,,,,,,,,
035072,001,2022-11-21_24h55.25.382,Info_measure_main_exp,2022.2.2,Win32,60.08893162,,,,,,,,,,,,,,,,,,masks/mask_002.jpg,,,,,,,,,,,,,,,,,,,,,,,,,,,,,,,,,,,,,,,,,,,,,,,,0,0,0,1,1,,,,,,,,,,,,,,,,,,,,,,,,,,,,,,,,,,,,,,,,,
035072,001,2022-11-21_24h55.25.382,Info_measure_main_exp,2022.2.2,Win32,60.08893162,,,,,,,,,,,,,,,,,,masks/mask_003.jpg,,,,,,,,,,,,,,,,,,,,,,,,,,,,,,,,,,,,,,,,,,,,,,,,0,1,1,2,1,,,,,,,,,,,,,,,,,,,,,,,,,,,,,,,,,,,,,,,,,
035072,001,2022-11-21_24h55.25.382,Info_measure_main_exp,2022.2.2,Win32,60.08893162,,,,,,,,,,,,,,,,,,masks/mask_004.jpg,,,,,,,,,,,,,,,,,,,,,,,,,,,,,,,,,,,,,,,,,,,,,,,,0,2,2,3,1,,,,,,,,,,,,,,,,,,,,,,,,,,,,,,,,,,,,,,,,,
035072,001,2022-11-21_24h55.25.382,Info_measure_main_exp,2022.2.2,Win32,60.08893162,,,,,,,,,,,,,,,,,,masks/mask_001.jpg,,,,,,,,,,,,,,,,,,,,,,,,,,,,,,,,,,,,,,,,,,,,,,,,0,3,3,0,1,,,,,,,,,,,,,,,,,,,,,,,,,,,,,,,,,,,,,,,,,
035072,001,2022-11-21_24h55.25.382,Info_measure_main_exp,2022.2.2,Win32,60.08893162,,,,,,,,,,,,,,,,,,masks/mask_005.jpg,,,,,,,,,,,,,,,,,,,,,,,,,,,,,,,,,,,,,,,,,,,,,,,,0,4,4,4,1,,,,,,,,,,,,,,,,,,,,,,,,,,,,,,,,,,,,,,,,,
035072,001,2022-11-21_24h55.25.382,Info_measure_main_exp,2022.2.2,Win32,60.08893162,,,,,,,,,,,,,,,,,,,,,,,,,,,,,,7,0.7,1,,,,,,,,,,,,0,131,5,5,2298,2274,absent_patch/patch0002298.jpg,absent_patch/patch0002274.jpg,,,,,,,,,,,,,,,,,,,,0.047222222,0.096296296,1,0,0,response1disk,28,0.000925926,0.001851852,1,0,0,center_square,0,27,27,1,1,,,,,,,,,,,,,,,,,,,,,,,
035072,001,2022-11-21_24h55.25.382,Info_measure_main_exp,2022.2.2,Win32,60.08893162,,,,,,,,,,,,,,,,,,masks/mask_005.jpg,,,,,,,,,,,,,,,,,,,,,,,,,,,,,,,,,,,,,,,,,,,0,0,0,4,1,,,,,,,,,,,,,,,,,,,,,,,,,,,,,,,,,,,,,,,,,,,,,,
035072,001,2022-11-21_24h55.25.382,Info_measure_main_exp,2022.2.2,Win32,60.08893162,,,,,,,,,,,,,,,,,,masks/mask_002.jpg,,,,,,,,,,,,,,,,,,,,,,,,,,,,,,,,,,,,,,,,,,,0,1,1,1,1,,,,,,,,,,,,,,,,,,,,,,,,,,,,,,,,,,,,,,,,,,,,,,
035072,001,2022-11-21_24h55.25.382,Info_measure_main_exp,2022.2.2,Win32,60.08893162,,,,,,,,,,,,,,,,,,masks/mask_004.jpg,,,,,,,,,,,,,,,,,,,,,,,,,,,,,,,,,,,,,,,,,,,0,2,2,3,1,,,,,,,,,,,,,,,,,,,,,,,,,,,,,,,,,,,,,,,,,,,,,,
035072,001,2022-11-21_24h55.25.382,Info_measure_main_exp,2022.2.2,Win32,60.08893162,,,,,,,,,,,,,,,,,,masks/mask_001.jpg,,,,,,,,,,,,,,,,,,,,,,,,,,,,,,,,,,,,,,,,,,,0,3,3,0,1,,,,,,,,,,,,,,,,,,,,,,,,,,,,,,,,,,,,,,,,,,,,,,
035072,001,2022-11-21_24h55.25.382,Info_measure_main_exp,2022.2.2,Win32,60.08893162,,,,,,,,,,,,,,,,,,masks/mask_003.jpg,,,,,,,,,,,,,,,,,,,,,,,,,,,,,,,,,,,,,,,,,,,0,4,4,2,1,,,,,,,,,,,,,,,,,,,,,,,,,,,,,,,,,,,,,,,,,,,,,,
035072,001,2022-11-21_24h55.25.382,Info_measure_main_exp,2022.2.2,Win32,60.08893162,,,,,,,,,,,,,,,,,,masks/mask_004.jpg,,,,,,,,,,,,,,,,,,,,,,,,,,,,,,,,,,,,,,,,,,,,,,,,0,0,0,3,1,,,,,,,,,,,,,,,,,,,,,,,,,,,,,,,,,,,,,,,,,
035072,001,2022-11-21_24h55.25.382,Info_measure_main_exp,2022.2.2,Win32,60.08893162,,,,,,,,,,,,,,,,,,masks/mask_002.jpg,,,,,,,,,,,,,,,,,,,,,,,,,,,,,,,,,,,,,,,,,,,,,,,,0,1,1,1,1,,,,,,,,,,,,,,,,,,,,,,,,,,,,,,,,,,,,,,,,,
035072,001,2022-11-21_24h55.25.382,Info_measure_main_exp,2022.2.2,Win32,60.08893162,,,,,,,,,,,,,,,,,,masks/mask_001.jpg,,,,,,,,,,,,,,,,,,,,,,,,,,,,,,,,,,,,,,,,,,,,,,,,0,2,2,0,1,,,,,,,,,,,,,,,,,,,,,,,,,,,,,,,,,,,,,,,,,
035072,001,2022-11-21_24h55.25.382,Info_measure_main_exp,2022.2.2,Win32,60.08893162,,,,,,,,,,,,,,,,,,masks/mask_005.jpg,,,,,,,,,,,,,,,,,,,,,,,,,,,,,,,,,,,,,,,,,,,,,,,,0,3,3,4,1,,,,,,,,,,,,,,,,,,,,,,,,,,,,,,,,,,,,,,,,,
035072,001,2022-11-21_24h55.25.382,Info_measure_main_exp,2022.2.2,Win32,60.08893162,,,,,,,,,,,,,,,,,,masks/mask_003.jpg,,,,,,,,,,,,,,,,,,,,,,,,,,,,,,,,,,,,,,,,,,,,,,,,0,4,4,2,1,,,,,,,,,,,,,,,,,,,,,,,,,,,,,,,,,,,,,,,,,
035072,001,2022-11-21_24h55.25.382,Info_measure_main_exp,2022.2.2,Win32,60.08893162,,,,,,,,,,,,,,,,,,,,,,,,,,,,,,4,4.1001,1,,,,,,,,,,,,0,131,5,5,2166,1986,absent_patch/patch0002166.jpg,absent_patch/patch0001986.jpg,,,,,,,,,,,,,,,,,,,,0.009259259,-0.058333333,1,0,0,response3disk,29,0.003703704,-0.00462963,1,0,0,center_square,0,28,28,47,1,,,,,,,,,,,,,,,,,,,,,,,
035072,001,2022-11-21_24h55.25.382,Info_measure_main_exp,2022.2.2,Win32,60.08893162,,,,,,,,,,,,,,,,,,masks/mask_002.jpg,,,,,,,,,,,,,,,,,,,,,,,,,,,,,,,,,,,,,,,,,,,0,0,0,1,1,,,,,,,,,,,,,,,,,,,,,,,,,,,,,,,,,,,,,,,,,,,,,,
035072,001,2022-11-21_24h55.25.382,Info_measure_main_exp,2022.2.2,Win32,60.08893162,,,,,,,,,,,,,,,,,,masks/mask_004.jpg,,,,,,,,,,,,,,,,,,,,,,,,,,,,,,,,,,,,,,,,,,,0,1,1,3,1,,,,,,,,,,,,,,,,,,,,,,,,,,,,,,,,,,,,,,,,,,,,,,
035072,001,2022-11-21_24h55.25.382,Info_measure_main_exp,2022.2.2,Win32,60.08893162,,,,,,,,,,,,,,,,,,masks/mask_001.jpg,,,,,,,,,,,,,,,,,,,,,,,,,,,,,,,,,,,,,,,,,,,0,2,2,0,1,,,,,,,,,,,,,,,,,,,,,,,,,,,,,,,,,,,,,,,,,,,,,,
035072,001,2022-11-21_24h55.25.382,Info_measure_main_exp,2022.2.2,Win32,60.08893162,,,,,,,,,,,,,,,,,,masks/mask_005.jpg,,,,,,,,,,,,,,,,,,,,,,,,,,,,,,,,,,,,,,,,,,,0,3,3,4,1,,,,,,,,,,,,,,,,,,,,,,,,,,,,,,,,,,,,,,,,,,,,,,
035072,001,2022-11-21_24h55.25.382,Info_measure_main_exp,2022.2.2,Win32,60.08893162,,,,,,,,,,,,,,,,,,masks/mask_003.jpg,,,,,,,,,,,,,,,,,,,,,,,,,,,,,,,,,,,,,,,,,,,0,4,4,2,1,,,,,,,,,,,,,,,,,,,,,,,,,,,,,,,,,,,,,,,,,,,,,,
035072,001,2022-11-21_24h55.25.382,Info_measure_main_exp,2022.2.2,Win32,60.08893162,,,,,,,,,,,,,,,,,,masks/mask_003.jpg,,,,,,,,,,,,,,,,,,,,,,,,,,,,,,,,,,,,,,,,,,,,,,,,0,0,0,2,1,,,,,,,,,,,,,,,,,,,,,,,,,,,,,,,,,,,,,,,,,
035072,001,2022-11-21_24h55.25.382,Info_measure_main_exp,2022.2.2,Win32,60.08893162,,,,,,,,,,,,,,,,,,masks/mask_002.jpg,,,,,,,,,,,,,,,,,,,,,,,,,,,,,,,,,,,,,,,,,,,,,,,,0,1,1,1,1,,,,,,,,,,,,,,,,,,,,,,,,,,,,,,,,,,,,,,,,,
035072,001,2022-11-21_24h55.25.382,Info_measure_main_exp,2022.2.2,Win32,60.08893162,,,,,,,,,,,,,,,,,,masks/mask_005.jpg,,,,,,,,,,,,,,,,,,,,,,,,,,,,,,,,,,,,,,,,,,,,,,,,0,2,2,4,1,,,,,,,,,,,,,,,,,,,,,,,,,,,,,,,,,,,,,,,,,
035072,001,2022-11-21_24h55.25.382,Info_measure_main_exp,2022.2.2,Win32,60.08893162,,,,,,,,,,,,,,,,,,masks/mask_004.jpg,,,,,,,,,,,,,,,,,,,,,,,,,,,,,,,,,,,,,,,,,,,,,,,,0,3,3,3,1,,,,,,,,,,,,,,,,,,,,,,,,,,,,,,,,,,,,,,,,,
035072,001,2022-11-21_24h55.25.382,Info_measure_main_exp,2022.2.2,Win32,60.08893162,,,,,,,,,,,,,,,,,,masks/mask_001.jpg,,,,,,,,,,,,,,,,,,,,,,,,,,,,,,,,,,,,,,,,,,,,,,,,0,4,4,0,1,,,,,,,,,,,,,,,,,,,,,,,,,,,,,,,,,,,,,,,,,
035072,001,2022-11-21_24h55.25.382,Info_measure_main_exp,2022.2.2,Win32,60.08893162,,,,,,,,,,,,,,,,,,,,,,,,,,,,,,7,0.75,1,,,,,,,,,,,,1,131,5,5,2298,1,absent_patch/patch0002298.jpg,present_patch/cong_131_5_a.jpg,,,,,,,,,,,,,,,,,,,,0.030555556,0.096296296,1,0,0,response1disk,30,0.000925926,0.002777778,1,0,0,center_square,0,29,29,45,1,,,,,,,,,,,,,,,,,,,,,,,
035072,001,2022-11-21_24h55.25.382,Info_measure_main_exp,2022.2.2,Win32,60.08893162,,,,,,,,,,,,,,,,,,masks/mask_005.jpg,,,,,,,,,,,,,,,,,,,,,,,,,,,,,,,,,,,,,,,,,,,0,0,0,4,1,,,,,,,,,,,,,,,,,,,,,,,,,,,,,,,,,,,,,,,,,,,,,,
035072,001,2022-11-21_24h55.25.382,Info_measure_main_exp,2022.2.2,Win32,60.08893162,,,,,,,,,,,,,,,,,,masks/mask_001.jpg,,,,,,,,,,,,,,,,,,,,,,,,,,,,,,,,,,,,,,,,,,,0,1,1,0,1,,,,,,,,,,,,,,,,,,,,,,,,,,,,,,,,,,,,,,,,,,,,,,
035072,001,2022-11-21_24h55.25.382,Info_measure_main_exp,2022.2.2,Win32,60.08893162,,,,,,,,,,,,,,,,,,masks/mask_004.jpg,,,,,,,,,,,,,,,,,,,,,,,,,,,,,,,,,,,,,,,,,,,0,2,2,3,1,,,,,,,,,,,,,,,,,,,,,,,,,,,,,,,,,,,,,,,,,,,,,,
035072,001,2022-11-21_24h55.25.382,Info_measure_main_exp,2022.2.2,Win32,60.08893162,,,,,,,,,,,,,,,,,,masks/mask_003.jpg,,,,,,,,,,,,,,,,,,,,,,,,,,,,,,,,,,,,,,,,,,,0,3,3,2,1,,,,,,,,,,,,,,,,,,,,,,,,,,,,,,,,,,,,,,,,,,,,,,
035072,001,2022-11-21_24h55.25.382,Info_measure_main_exp,2022.2.2,Win32,60.08893162,,,,,,,,,,,,,,,,,,masks/mask_002.jpg,,,,,,,,,,,,,,,,,,,,,,,,,,,,,,,,,,,,,,,,,,,0,4,4,1,1,,,,,,,,,,,,,,,,,,,,,,,,,,,,,,,,,,,,,,,,,,,,,,
035072,001,2022-11-21_24h55.25.382,Info_measure_main_exp,2022.2.2,Win32,60.08893162,,,,,,,,,,,,,,,,,,masks/mask_003.jpg,,,,,,,,,,,,,,,,,,,,,,,,,,,,,,,,,,,,,,,,,,,,,,,,0,0,0,2,1,,,,,,,,,,,,,,,,,,,,,,,,,,,,,,,,,,,,,,,,,
035072,001,2022-11-21_24h55.25.382,Info_measure_main_exp,2022.2.2,Win32,60.08893162,,,,,,,,,,,,,,,,,,masks/mask_005.jpg,,,,,,,,,,,,,,,,,,,,,,,,,,,,,,,,,,,,,,,,,,,,,,,,0,1,1,4,1,,,,,,,,,,,,,,,,,,,,,,,,,,,,,,,,,,,,,,,,,
035072,001,2022-11-21_24h55.25.382,Info_measure_main_exp,2022.2.2,Win32,60.08893162,,,,,,,,,,,,,,,,,,masks/mask_001.jpg,,,,,,,,,,,,,,,,,,,,,,,,,,,,,,,,,,,,,,,,,,,,,,,,0,2,2,0,1,,,,,,,,,,,,,,,,,,,,,,,,,,,,,,,,,,,,,,,,,
035072,001,2022-11-21_24h55.25.382,Info_measure_main_exp,2022.2.2,Win32,60.08893162,,,,,,,,,,,,,,,,,,masks/mask_004.jpg,,,,,,,,,,,,,,,,,,,,,,,,,,,,,,,,,,,,,,,,,,,,,,,,0,3,3,3,1,,,,,,,,,,,,,,,,,,,,,,,,,,,,,,,,,,,,,,,,,
035072,001,2022-11-21_24h55.25.382,Info_measure_main_exp,2022.2.2,Win32,60.08893162,,,,,,,,,,,,,,,,,,masks/mask_002.jpg,,,,,,,,,,,,,,,,,,,,,,,,,,,,,,,,,,,,,,,,,,,,,,,,0,4,4,1,1,,,,,,,,,,,,,,,,,,,,,,,,,,,,,,,,,,,,,,,,,
035072,001,2022-11-21_24h55.25.382,Info_measure_main_exp,2022.2.2,Win32,60.08893162,,,,,,,,,,,,,,,,,,,,,,,,,,,,,,2,2.8332,1,,,,,,,,,,,,0,131,5,5,2178,2238,absent_patch/patch0002178.jpg,absent_patch/patch0002238.jpg,,,,,,,,,,,,,,,,,,,,-0.097222222,-0.010185185,1,0,0,response5disk,31,-0.010185185,-0.000925926,1,0,0,center_square,0,30,30,57,1,,,,,,,,,,,,,,,,,,,,,,,
035072,001,2022-11-21_24h55.25.382,Info_measure_main_exp,2022.2.2,Win32,60.08893162,,,,,,,,,,,,,,,,,,masks/mask_005.jpg,,,,,,,,,,,,,,,,,,,,,,,,,,,,,,,,,,,,,,,,,,,0,0,0,4,1,,,,,,,,,,,,,,,,,,,,,,,,,,,,,,,,,,,,,,,,,,,,,,
035072,001,2022-11-21_24h55.25.382,Info_measure_main_exp,2022.2.2,Win32,60.08893162,,,,,,,,,,,,,,,,,,masks/mask_002.jpg,,,,,,,,,,,,,,,,,,,,,,,,,,,,,,,,,,,,,,,,,,,0,1,1,1,1,,,,,,,,,,,,,,,,,,,,,,,,,,,,,,,,,,,,,,,,,,,,,,
035072,001,2022-11-21_24h55.25.382,Info_measure_main_exp,2022.2.2,Win32,60.08893162,,,,,,,,,,,,,,,,,,masks/mask_003.jpg,,,,,,,,,,,,,,,,,,,,,,,,,,,,,,,,,,,,,,,,,,,0,2,2,2,1,,,,,,,,,,,,,,,,,,,,,,,,,,,,,,,,,,,,,,,,,,,,,,
035072,001,2022-11-21_24h55.25.382,Info_measure_main_exp,2022.2.2,Win32,60.08893162,,,,,,,,,,,,,,,,,,masks/mask_001.jpg,,,,,,,,,,,,,,,,,,,,,,,,,,,,,,,,,,,,,,,,,,,0,3,3,0,1,,,,,,,,,,,,,,,,,,,,,,,,,,,,,,,,,,,,,,,,,,,,,,
035072,001,2022-11-21_24h55.25.382,Info_measure_main_exp,2022.2.2,Win32,60.08893162,,,,,,,,,,,,,,,,,,masks/mask_004.jpg,,,,,,,,,,,,,,,,,,,,,,,,,,,,,,,,,,,,,,,,,,,0,4,4,3,1,,,,,,,,,,,,,,,,,,,,,,,,,,,,,,,,,,,,,,,,,,,,,,
035072,001,2022-11-21_24h55.25.382,Info_measure_main_exp,2022.2.2,Win32,60.08893162,,,,,,,,,,,,,,,,,,masks/mask_004.jpg,,,,,,,,,,,,,,,,,,,,,,,,,,,,,,,,,,,,,,,,,,,,,,,,0,0,0,3,1,,,,,,,,,,,,,,,,,,,,,,,,,,,,,,,,,,,,,,,,,
035072,001,2022-11-21_24h55.25.382,Info_measure_main_exp,2022.2.2,Win32,60.08893162,,,,,,,,,,,,,,,,,,masks/mask_005.jpg,,,,,,,,,,,,,,,,,,,,,,,,,,,,,,,,,,,,,,,,,,,,,,,,0,1,1,4,1,,,,,,,,,,,,,,,,,,,,,,,,,,,,,,,,,,,,,,,,,
035072,001,2022-11-21_24h55.25.382,Info_measure_main_exp,2022.2.2,Win32,60.08893162,,,,,,,,,,,,,,,,,,masks/mask_003.jpg,,,,,,,,,,,,,,,,,,,,,,,,,,,,,,,,,,,,,,,,,,,,,,,,0,2,2,2,1,,,,,,,,,,,,,,,,,,,,,,,,,,,,,,,,,,,,,,,,,
035072,001,2022-11-21_24h55.25.382,Info_measure_main_exp,2022.2.2,Win32,60.08893162,,,,,,,,,,,,,,,,,,masks/mask_001.jpg,,,,,,,,,,,,,,,,,,,,,,,,,,,,,,,,,,,,,,,,,,,,,,,,0,3,3,0,1,,,,,,,,,,,,,,,,,,,,,,,,,,,,,,,,,,,,,,,,,
035072,001,2022-11-21_24h55.25.382,Info_measure_main_exp,2022.2.2,Win32,60.08893162,,,,,,,,,,,,,,,,,,masks/mask_002.jpg,,,,,,,,,,,,,,,,,,,,,,,,,,,,,,,,,,,,,,,,,,,,,,,,0,4,4,1,1,,,,,,,,,,,,,,,,,,,,,,,,,,,,,,,,,,,,,,,,,
035072,001,2022-11-21_24h55.25.382,Info_measure_main_exp,2022.2.2,Win32,60.08893162,,,,,,,,,,,,,,,,,,,,,,,,,,,,,,0,0.5336,1,,,,,,,,,,,,1,131,5,5,1,1,present_patch/cong_131_5_a.jpg,present_patch/cong_131_5_a.jpg,,,,,,,,,,,,,,,,,,,,-0.044444444,0.123148148,1,0,0,response7disk,32,-0.00462963,0.007407407,1,0,0,center_square,0,31,31,30,1,,,,,,,,,,,,,,,,,,,,,,,
035072,001,2022-11-21_24h55.25.382,Info_measure_main_exp,2022.2.2,Win32,60.08893162,,,,,,,,,,,,,,,,,,masks/mask_001.jpg,,,,,,,,,,,,,,,,,,,,,,,,,,,,,,,,,,,,,,,,,,,0,0,0,0,1,,,,,,,,,,,,,,,,,,,,,,,,,,,,,,,,,,,,,,,,,,,,,,
035072,001,2022-11-21_24h55.25.382,Info_measure_main_exp,2022.2.2,Win32,60.08893162,,,,,,,,,,,,,,,,,,masks/mask_003.jpg,,,,,,,,,,,,,,,,,,,,,,,,,,,,,,,,,,,,,,,,,,,0,1,1,2,1,,,,,,,,,,,,,,,,,,,,,,,,,,,,,,,,,,,,,,,,,,,,,,
035072,001,2022-11-21_24h55.25.382,Info_measure_main_exp,2022.2.2,Win32,60.08893162,,,,,,,,,,,,,,,,,,masks/mask_005.jpg,,,,,,,,,,,,,,,,,,,,,,,,,,,,,,,,,,,,,,,,,,,0,2,2,4,1,,,,,,,,,,,,,,,,,,,,,,,,,,,,,,,,,,,,,,,,,,,,,,
035072,001,2022-11-21_24h55.25.382,Info_measure_main_exp,2022.2.2,Win32,60.08893162,,,,,,,,,,,,,,,,,,masks/mask_002.jpg,,,,,,,,,,,,,,,,,,,,,,,,,,,,,,,,,,,,,,,,,,,0,3,3,1,1,,,,,,,,,,,,,,,,,,,,,,,,,,,,,,,,,,,,,,,,,,,,,,
035072,001,2022-11-21_24h55.25.382,Info_measure_main_exp,2022.2.2,Win32,60.08893162,,,,,,,,,,,,,,,,,,masks/mask_004.jpg,,,,,,,,,,,,,,,,,,,,,,,,,,,,,,,,,,,,,,,,,,,0,4,4,3,1,,,,,,,,,,,,,,,,,,,,,,,,,,,,,,,,,,,,,,,,,,,,,,
035072,001,2022-11-21_24h55.25.382,Info_measure_main_exp,2022.2.2,Win32,60.08893162,,,,,,,,,,,,,,,,,,masks/mask_001.jpg,,,,,,,,,,,,,,,,,,,,,,,,,,,,,,,,,,,,,,,,,,,,,,,,0,0,0,0,1,,,,,,,,,,,,,,,,,,,,,,,,,,,,,,,,,,,,,,,,,
035072,001,2022-11-21_24h55.25.382,Info_measure_main_exp,2022.2.2,Win32,60.08893162,,,,,,,,,,,,,,,,,,masks/mask_002.jpg,,,,,,,,,,,,,,,,,,,,,,,,,,,,,,,,,,,,,,,,,,,,,,,,0,1,1,1,1,,,,,,,,,,,,,,,,,,,,,,,,,,,,,,,,,,,,,,,,,
035072,001,2022-11-21_24h55.25.382,Info_measure_main_exp,2022.2.2,Win32,60.08893162,,,,,,,,,,,,,,,,,,masks/mask_003.jpg,,,,,,,,,,,,,,,,,,,,,,,,,,,,,,,,,,,,,,,,,,,,,,,,0,2,2,2,1,,,,,,,,,,,,,,,,,,,,,,,,,,,,,,,,,,,,,,,,,
035072,001,2022-11-21_24h55.25.382,Info_measure_main_exp,2022.2.2,Win32,60.08893162,,,,,,,,,,,,,,,,,,masks/mask_005.jpg,,,,,,,,,,,,,,,,,,,,,,,,,,,,,,,,,,,,,,,,,,,,,,,,0,3,3,4,1,,,,,,,,,,,,,,,,,,,,,,,,,,,,,,,,,,,,,,,,,
035072,001,2022-11-21_24h55.25.382,Info_measure_main_exp,2022.2.2,Win32,60.08893162,,,,,,,,,,,,,,,,,,masks/mask_004.jpg,,,,,,,,,,,,,,,,,,,,,,,,,,,,,,,,,,,,,,,,,,,,,,,,0,4,4,3,1,,,,,,,,,,,,,,,,,,,,,,,,,,,,,,,,,,,,,,,,,
035072,001,2022-11-21_24h55.25.382,Info_measure_main_exp,2022.2.2,Win32,60.08893162,,,,,,,,,,,,,,,,,,,,,,,,,,,,,,7,0.4832,1,,,,,,,,,,,,0,131,5,5,2082,2238,absent_patch/patch0002082.jpg,absent_patch/patch0002238.jpg,,,,,,,,,,,,,,,,,,,,0.040740741,0.105555556,1,0,0,response1disk,33,0.002777778,-0.000925926,1,0,0,center_square,0,32,32,22,1,,,,,,,,,,,,,,,,,,,,,,,
035072,001,2022-11-21_24h55.25.382,Info_measure_main_exp,2022.2.2,Win32,60.08893162,,,,,,,,,,,,,,,,,,masks/mask_005.jpg,,,,,,,,,,,,,,,,,,,,,,,,,,,,,,,,,,,,,,,,,,,0,0,0,4,1,,,,,,,,,,,,,,,,,,,,,,,,,,,,,,,,,,,,,,,,,,,,,,
035072,001,2022-11-21_24h55.25.382,Info_measure_main_exp,2022.2.2,Win32,60.08893162,,,,,,,,,,,,,,,,,,masks/mask_002.jpg,,,,,,,,,,,,,,,,,,,,,,,,,,,,,,,,,,,,,,,,,,,0,1,1,1,1,,,,,,,,,,,,,,,,,,,,,,,,,,,,,,,,,,,,,,,,,,,,,,
035072,001,2022-11-21_24h55.25.382,Info_measure_main_exp,2022.2.2,Win32,60.08893162,,,,,,,,,,,,,,,,,,masks/mask_003.jpg,,,,,,,,,,,,,,,,,,,,,,,,,,,,,,,,,,,,,,,,,,,0,2,2,2,1,,,,,,,,,,,,,,,,,,,,,,,,,,,,,,,,,,,,,,,,,,,,,,
035072,001,2022-11-21_24h55.25.382,Info_measure_main_exp,2022.2.2,Win32,60.08893162,,,,,,,,,,,,,,,,,,masks/mask_001.jpg,,,,,,,,,,,,,,,,,,,,,,,,,,,,,,,,,,,,,,,,,,,0,3,3,0,1,,,,,,,,,,,,,,,,,,,,,,,,,,,,,,,,,,,,,,,,,,,,,,
035072,001,2022-11-21_24h55.25.382,Info_measure_main_exp,2022.2.2,Win32,60.08893162,,,,,,,,,,,,,,,,,,masks/mask_004.jpg,,,,,,,,,,,,,,,,,,,,,,,,,,,,,,,,,,,,,,,,,,,0,4,4,3,1,,,,,,,,,,,,,,,,,,,,,,,,,,,,,,,,,,,,,,,,,,,,,,
035072,001,2022-11-21_24h55.25.382,Info_measure_main_exp,2022.2.2,Win32,60.08893162,,,,,,,,,,,,,,,,,,masks/mask_001.jpg,,,,,,,,,,,,,,,,,,,,,,,,,,,,,,,,,,,,,,,,,,,,,,,,0,0,0,0,1,,,,,,,,,,,,,,,,,,,,,,,,,,,,,,,,,,,,,,,,,
035072,001,2022-11-21_24h55.25.382,Info_measure_main_exp,2022.2.2,Win32,60.08893162,,,,,,,,,,,,,,,,,,masks/mask_005.jpg,,,,,,,,,,,,,,,,,,,,,,,,,,,,,,,,,,,,,,,,,,,,,,,,0,1,1,4,1,,,,,,,,,,,,,,,,,,,,,,,,,,,,,,,,,,,,,,,,,
035072,001,2022-11-21_24h55.25.382,Info_measure_main_exp,2022.2.2,Win32,60.08893162,,,,,,,,,,,,,,,,,,masks/mask_004.jpg,,,,,,,,,,,,,,,,,,,,,,,,,,,,,,,,,,,,,,,,,,,,,,,,0,2,2,3,1,,,,,,,,,,,,,,,,,,,,,,,,,,,,,,,,,,,,,,,,,
035072,001,2022-11-21_24h55.25.382,Info_measure_main_exp,2022.2.2,Win32,60.08893162,,,,,,,,,,,,,,,,,,masks/mask_002.jpg,,,,,,,,,,,,,,,,,,,,,,,,,,,,,,,,,,,,,,,,,,,,,,,,0,3,3,1,1,,,,,,,,,,,,,,,,,,,,,,,,,,,,,,,,,,,,,,,,,
035072,001,2022-11-21_24h55.25.382,Info_measure_main_exp,2022.2.2,Win32,60.08893162,,,,,,,,,,,,,,,,,,masks/mask_003.jpg,,,,,,,,,,,,,,,,,,,,,,,,,,,,,,,,,,,,,,,,,,,,,,,,0,4,4,2,1,,,,,,,,,,,,,,,,,,,,,,,,,,,,,,,,,,,,,,,,,
035072,001,2022-11-21_24h55.25.382,Info_measure_main_exp,2022.2.2,Win32,60.08893162,,,,,,,,,,,,,,,,,,,,,,,,,,,,,,6,1.2167,1,,,,,,,,,,,,0,131,5,5,1974,2142,absent_patch/patch0001974.jpg,absent_patch/patch0002142.jpg,,,,,,,,,,,,,,,,,,,,0.069444444,0.041666667,1,0,0,response1disk,34,0.006481481,-0.003703704,1,0,0,center_square,0,33,33,38,1,,,,,,,,,,,,,,,,,,,,,,,
035072,001,2022-11-21_24h55.25.382,Info_measure_main_exp,2022.2.2,Win32,60.08893162,,,,,,,,,,,,,,,,,,masks/mask_004.jpg,,,,,,,,,,,,,,,,,,,,,,,,,,,,,,,,,,,,,,,,,,,0,0,0,3,1,,,,,,,,,,,,,,,,,,,,,,,,,,,,,,,,,,,,,,,,,,,,,,
035072,001,2022-11-21_24h55.25.382,Info_measure_main_exp,2022.2.2,Win32,60.08893162,,,,,,,,,,,,,,,,,,masks/mask_005.jpg,,,,,,,,,,,,,,,,,,,,,,,,,,,,,,,,,,,,,,,,,,,0,1,1,4,1,,,,,,,,,,,,,,,,,,,,,,,,,,,,,,,,,,,,,,,,,,,,,,
035072,001,2022-11-21_24h55.25.382,Info_measure_main_exp,2022.2.2,Win32,60.08893162,,,,,,,,,,,,,,,,,,masks/mask_002.jpg,,,,,,,,,,,,,,,,,,,,,,,,,,,,,,,,,,,,,,,,,,,0,2,2,1,1,,,,,,,,,,,,,,,,,,,,,,,,,,,,,,,,,,,,,,,,,,,,,,
035072,001,2022-11-21_24h55.25.382,Info_measure_main_exp,2022.2.2,Win32,60.08893162,,,,,,,,,,,,,,,,,,masks/mask_003.jpg,,,,,,,,,,,,,,,,,,,,,,,,,,,,,,,,,,,,,,,,,,,0,3,3,2,1,,,,,,,,,,,,,,,,,,,,,,,,,,,,,,,,,,,,,,,,,,,,,,
035072,001,2022-11-21_24h55.25.382,Info_measure_main_exp,2022.2.2,Win32,60.08893162,,,,,,,,,,,,,,,,,,masks/mask_001.jpg,,,,,,,,,,,,,,,,,,,,,,,,,,,,,,,,,,,,,,,,,,,0,4,4,0,1,,,,,,,,,,,,,,,,,,,,,,,,,,,,,,,,,,,,,,,,,,,,,,
035072,001,2022-11-21_24h55.25.382,Info_measure_main_exp,2022.2.2,Win32,60.08893162,,,,,,,,,,,,,,,,,,masks/mask_001.jpg,,,,,,,,,,,,,,,,,,,,,,,,,,,,,,,,,,,,,,,,,,,,,,,,0,0,0,0,1,,,,,,,,,,,,,,,,,,,,,,,,,,,,,,,,,,,,,,,,,
035072,001,2022-11-21_24h55.25.382,Info_measure_main_exp,2022.2.2,Win32,60.08893162,,,,,,,,,,,,,,,,,,masks/mask_003.jpg,,,,,,,,,,,,,,,,,,,,,,,,,,,,,,,,,,,,,,,,,,,,,,,,0,1,1,2,1,,,,,,,,,,,,,,,,,,,,,,,,,,,,,,,,,,,,,,,,,
035072,001,2022-11-21_24h55.25.382,Info_measure_main_exp,2022.2.2,Win32,60.08893162,,,,,,,,,,,,,,,,,,masks/mask_004.jpg,,,,,,,,,,,,,,,,,,,,,,,,,,,,,,,,,,,,,,,,,,,,,,,,0,2,2,3,1,,,,,,,,,,,,,,,,,,,,,,,,,,,,,,,,,,,,,,,,,
035072,001,2022-11-21_24h55.25.382,Info_measure_main_exp,2022.2.2,Win32,60.08893162,,,,,,,,,,,,,,,,,,masks/mask_002.jpg,,,,,,,,,,,,,,,,,,,,,,,,,,,,,,,,,,,,,,,,,,,,,,,,0,3,3,1,1,,,,,,,,,,,,,,,,,,,,,,,,,,,,,,,,,,,,,,,,,
