participant,session,date,expName,psychopyVersion,OS,frameRate,space_press_continue.keys,space_press_continue.rt,space_press_continue_2.keys,space_press_continue_2.rt,space_press_continue_3.keys,space_press_continue_3.rt,space_press_continue_4.keys,space_press_continue_4.rt,space_press_continue_5.keys,space_press_continue_5.rt,space_press_continue_6.keys,space_press_continue_6.rt,prac_mask_loop_1.thisRepN,prac_mask_loop_1.thisTrialN,prac_mask_loop_1.thisN,prac_mask_loop_1.thisIndex,prac_mask_loop_1.ran,mask_name,prac_mask_loop_2.thisRepN,prac_mask_loop_2.thisTrialN,prac_mask_loop_2.thisN,prac_mask_loop_2.thisIndex,prac_mask_loop_2.ran,mouse_2.x,mouse_2.y,mouse_2.leftButton,mouse_2.midButton,mouse_2.rightButton,mouse_2.clicked_name,similarity,response_time,Pass,mouse_12.x,mouse_12.y,mouse_12.leftButton,mouse_12.midButton,mouse_12.rightButton,mouse_12.clicked_name,prac_loop.thisRepN,prac_loop.thisTrialN,prac_loop.thisN,prac_loop.thisIndex,prac_loop.ran,Pair_type,Image_num,Patch_1_loc,Patch_2_loc,Patch_1_info,Patch_2_info,Patch_1_name,Patch_2_name,mouse_1.x,mouse_1.y,mouse_1.leftButton,mouse_1.midButton,mouse_1.rightButton,mouse_1.time,mouse_1.clicked_name,space_press_continue_7.keys,space_press_continue_7.rt,mask_loop.thisRepN,mask_loop.thisTrialN,mask_loop.thisN,mask_loop.thisIndex,mask_loop.ran,mask_loop_2.thisRepN,mask_loop_2.thisTrialN,mask_loop_2.thisN,mask_loop_2.thisIndex,mask_loop_2.ran,mouse.x,mouse.y,mouse.leftButton,mouse.midButton,mouse.rightButton,mouse.clicked_name,trialNumber,mouse_11.x,mouse_11.y,mouse_11.leftButton,mouse_11.midButton,mouse_11.rightButton,mouse_11.clicked_name,first_pass_loop.thisRepN,first_pass_loop.thisTrialN,first_pass_loop.thisN,first_pass_loop.thisIndex,first_pass_loop.ran,mask_loop_3.thisRepN,mask_loop_3.thisTrialN,mask_loop_3.thisN,mask_loop_3.thisIndex,mask_loop_3.ran,mask_loop_4.thisRepN,mask_loop_4.thisTrialN,mask_loop_4.thisN,mask_loop_4.thisIndex,mask_loop_4.ran,mouse_3.x,mouse_3.y,mouse_3.leftButton,mouse_3.midButton,mouse_3.rightButton,mouse_3.clicked_name,double_pass_loop.thisRepN,double_pass_loop.thisTrialN,double_pass_loop.thisN,double_pass_loop.thisIndex,double_pass_loop.ran,space_exit.keys,space_exit.rt
037791,001,2022-11-20_17h49.40.187,Info_measure_main_exp,2022.2.2,Win32,59.95922773,,,,,,,,,,,,,,,,,,,,,,,,,,,,,,,,,,,,,,,,,,,,,,,,,,,,,,,,,,,,,,,,,,,,,,,,,,,,,,,,,,,,,,,,,,,,,,,,,,,,,,,,,,,,,,,
037791,001,2022-11-20_17h49.40.187,Info_measure_main_exp,2022.2.2,Win32,59.95922773,,,,,,,,,,,,,,,,,,,,,,,,,,,,,,,,,,,,,,,,,,,,,,,,,,,,,,,,,,,,,,,,,,,,,,,,,,,,,,,,,,,,,,,,,,,,,,,,,,,,,,,,,,,,,,,
037791,001,2022-11-20_17h49.40.187,Info_measure_main_exp,2022.2.2,Win32,59.95922773,space,5.2849,,,,,,,,,,,,,,,,,,,,,,,,,,,,,,,,,,,,,,,,,,,,,,,,,,,,,,,,,,,,,,,,,,,,,,,,,,,,,,,,,,,,,,,,,,,,,,,,,,,,,,,,,,,,,
037791,001,2022-11-20_17h49.40.187,Info_measure_main_exp,2022.2.2,Win32,59.95922773,,,space,53.0783,,,,,,,,,,,,,,,,,,,,,,,,,,,,,,,,,,,,,,,,,,,,,,,,,,,,,,,,,,,,,,,,,,,,,,,,,,,,,,,,,,,,,,,,,,,,,,,,,,,,,,,,,,,
037791,001,2022-11-20_17h49.40.187,Info_measure_main_exp,2022.2.2,Win32,59.95922773,,,,,space,11.1975,,,,,,,,,,,,,,,,,,,,,,,,,,,,,,,,,,,,,,,,,,,,,,,,,,,,,,,,,,,,,,,,,,,,,,,,,,,,,,,,,,,,,,,,,,,,,,,,,,,,,,,,,
037791,001,2022-11-20_17h49.40.187,Info_measure_main_exp,2022.2.2,Win32,59.95922773,,,,,,,space,18.7646,,,,,,,,,,,,,,,,,,,,,,,,,,,,,,,,,,,,,,,,,,,,,,,,,,,,,,,,,,,,,,,,,,,,,,,,,,,,,,,,,,,,,,,,,,,,,,,,,,,,,,,
037791,001,2022-11-20_17h49.40.187,Info_measure_main_exp,2022.2.2,Win32,59.95922773,,,,,,,,,space,12.8046,,,,,,,,,,,,,,,,,,,,,,,,,,,,,,,,,,,,,,,,,,,,,,,,,,,,,,,,,,,,,,,,,,,,,,,,,,,,,,,,,,,,,,,,,,,,,,,,,,,,,
037791,001,2022-11-20_17h49.40.187,Info_measure_main_exp,2022.2.2,Win32,59.95922773,,,,,,,,,,,space,3.3092,,,,,,,,,,,,,,,,,,,,,,,,,,,,,,,,,,,,,,,,,,,,,,,,,,,,,,,,,,,,,,,,,,,,,,,,,,,,,,,,,,,,,,,,,,,,,,,,,,,
037791,001,2022-11-20_17h49.40.187,Info_measure_main_exp,2022.2.2,Win32,59.95922773,,,,,,,,,,,,,0,0,0,1,1,masks/mask_002.jpg,,,,,,,,,,,,,,,,,,,,,,,,,,,,,,,,,,,,,,,,,,,,,,,,,,,,,,,,,,,,,,,,,,,,,,,,,,,,,,,,,,,,,,,,,,,,,
037791,001,2022-11-20_17h49.40.187,Info_measure_main_exp,2022.2.2,Win32,59.95922773,,,,,,,,,,,,,0,1,1,3,1,masks/mask_004.jpg,,,,,,,,,,,,,,,,,,,,,,,,,,,,,,,,,,,,,,,,,,,,,,,,,,,,,,,,,,,,,,,,,,,,,,,,,,,,,,,,,,,,,,,,,,,,,
037791,001,2022-11-20_17h49.40.187,Info_measure_main_exp,2022.2.2,Win32,59.95922773,,,,,,,,,,,,,0,2,2,2,1,masks/mask_003.jpg,,,,,,,,,,,,,,,,,,,,,,,,,,,,,,,,,,,,,,,,,,,,,,,,,,,,,,,,,,,,,,,,,,,,,,,,,,,,,,,,,,,,,,,,,,,,,
037791,001,2022-11-20_17h49.40.187,Info_measure_main_exp,2022.2.2,Win32,59.95922773,,,,,,,,,,,,,0,3,3,0,1,masks/mask_001.jpg,,,,,,,,,,,,,,,,,,,,,,,,,,,,,,,,,,,,,,,,,,,,,,,,,,,,,,,,,,,,,,,,,,,,,,,,,,,,,,,,,,,,,,,,,,,,,
037791,001,2022-11-20_17h49.40.187,Info_measure_main_exp,2022.2.2,Win32,59.95922773,,,,,,,,,,,,,0,4,4,4,1,masks/mask_005.jpg,,,,,,,,,,,,,,,,,,,,,,,,,,,,,,,,,,,,,,,,,,,,,,,,,,,,,,,,,,,,,,,,,,,,,,,,,,,,,,,,,,,,,,,,,,,,,
037791,001,2022-11-20_17h49.40.187,Info_measure_main_exp,2022.2.2,Win32,59.95922773,,,,,,,,,,,,,,,,,,masks/mask_003.jpg,0,0,0,2,1,,,,,,,,,,,,,,,,,,,,,,,,,,,,,,,,,,,,,,,,,,,,,,,,,,,,,,,,,,,,,,,,,,,,,,,,,,,,,,,,,,,,,,,,
037791,001,2022-11-20_17h49.40.187,Info_measure_main_exp,2022.2.2,Win32,59.95922773,,,,,,,,,,,,,,,,,,masks/mask_001.jpg,0,1,1,0,1,,,,,,,,,,,,,,,,,,,,,,,,,,,,,,,,,,,,,,,,,,,,,,,,,,,,,,,,,,,,,,,,,,,,,,,,,,,,,,,,,,,,,,,,
037791,001,2022-11-20_17h49.40.187,Info_measure_main_exp,2022.2.2,Win32,59.95922773,,,,,,,,,,,,,,,,,,masks/mask_004.jpg,0,2,2,3,1,,,,,,,,,,,,,,,,,,,,,,,,,,,,,,,,,,,,,,,,,,,,,,,,,,,,,,,,,,,,,,,,,,,,,,,,,,,,,,,,,,,,,,,,
037791,001,2022-11-20_17h49.40.187,Info_measure_main_exp,2022.2.2,Win32,59.95922773,,,,,,,,,,,,,,,,,,masks/mask_002.jpg,0,3,3,1,1,,,,,,,,,,,,,,,,,,,,,,,,,,,,,,,,,,,,,,,,,,,,,,,,,,,,,,,,,,,,,,,,,,,,,,,,,,,,,,,,,,,,,,,,
037791,001,2022-11-20_17h49.40.187,Info_measure_main_exp,2022.2.2,Win32,59.95922773,,,,,,,,,,,,,,,,,,masks/mask_005.jpg,0,4,4,4,1,,,,,,,,,,,,,,,,,,,,,,,,,,,,,,,,,,,,,,,,,,,,,,,,,,,,,,,,,,,,,,,,,,,,,,,,,,,,,,,,,,,,,,,,
037791,001,2022-11-20_17h49.40.187,Info_measure_main_exp,2022.2.2,Win32,59.95922773,,,,,,,,,,,,,,,,,,,,,,,,0.082407407,0.085185185,1,0,0,response1disk,7,114.6408,1,-0.000925926,0.006481481,1,0,0,center_square,0,0,0,0,1,0,131,5,5,2370,2406,prac_patch/patch0002370.jpg,prac_patch/patch0002406.jpg,,,,,,,,,,,,,,,,,,,,,,,,,,,,,,,,,,,,,,,,,,,,,,,,,,,,,,,,,,,,
037791,001,2022-11-20_17h49.40.187,Info_measure_main_exp,2022.2.2,Win32,59.95922773,,,,,,,,,,,,,0,0,0,2,1,masks/mask_003.jpg,,,,,,,,,,,,,,,,,,,,,,,,,,,,,,,,,,,,,,,,,,,,,,,,,,,,,,,,,,,,,,,,,,,,,,,,,,,,,,,,,,,,,,,,,,,,,
037791,001,2022-11-20_17h49.40.187,Info_measure_main_exp,2022.2.2,Win32,59.95922773,,,,,,,,,,,,,0,1,1,4,1,masks/mask_005.jpg,,,,,,,,,,,,,,,,,,,,,,,,,,,,,,,,,,,,,,,,,,,,,,,,,,,,,,,,,,,,,,,,,,,,,,,,,,,,,,,,,,,,,,,,,,,,,
037791,001,2022-11-20_17h49.40.187,Info_measure_main_exp,2022.2.2,Win32,59.95922773,,,,,,,,,,,,,0,2,2,0,1,masks/mask_001.jpg,,,,,,,,,,,,,,,,,,,,,,,,,,,,,,,,,,,,,,,,,,,,,,,,,,,,,,,,,,,,,,,,,,,,,,,,,,,,,,,,,,,,,,,,,,,,,
037791,001,2022-11-20_17h49.40.187,Info_measure_main_exp,2022.2.2,Win32,59.95922773,,,,,,,,,,,,,0,3,3,1,1,masks/mask_002.jpg,,,,,,,,,,,,,,,,,,,,,,,,,,,,,,,,,,,,,,,,,,,,,,,,,,,,,,,,,,,,,,,,,,,,,,,,,,,,,,,,,,,,,,,,,,,,,
037791,001,2022-11-20_17h49.40.187,Info_measure_main_exp,2022.2.2,Win32,59.95922773,,,,,,,,,,,,,0,4,4,3,1,masks/mask_004.jpg,,,,,,,,,,,,,,,,,,,,,,,,,,,,,,,,,,,,,,,,,,,,,,,,,,,,,,,,,,,,,,,,,,,,,,,,,,,,,,,,,,,,,,,,,,,,,
037791,001,2022-11-20_17h49.40.187,Info_measure_main_exp,2022.2.2,Win32,59.95922773,,,,,,,,,,,,,,,,,,masks/mask_001.jpg,0,0,0,0,1,,,,,,,,,,,,,,,,,,,,,,,,,,,,,,,,,,,,,,,,,,,,,,,,,,,,,,,,,,,,,,,,,,,,,,,,,,,,,,,,,,,,,,,,
037791,001,2022-11-20_17h49.40.187,Info_measure_main_exp,2022.2.2,Win32,59.95922773,,,,,,,,,,,,,,,,,,masks/mask_002.jpg,0,1,1,1,1,,,,,,,,,,,,,,,,,,,,,,,,,,,,,,,,,,,,,,,,,,,,,,,,,,,,,,,,,,,,,,,,,,,,,,,,,,,,,,,,,,,,,,,,
037791,001,2022-11-20_17h49.40.187,Info_measure_main_exp,2022.2.2,Win32,59.95922773,,,,,,,,,,,,,,,,,,masks/mask_003.jpg,0,2,2,2,1,,,,,,,,,,,,,,,,,,,,,,,,,,,,,,,,,,,,,,,,,,,,,,,,,,,,,,,,,,,,,,,,,,,,,,,,,,,,,,,,,,,,,,,,
037791,001,2022-11-20_17h49.40.187,Info_measure_main_exp,2022.2.2,Win32,59.95922773,,,,,,,,,,,,,,,,,,masks/mask_005.jpg,0,3,3,4,1,,,,,,,,,,,,,,,,,,,,,,,,,,,,,,,,,,,,,,,,,,,,,,,,,,,,,,,,,,,,,,,,,,,,,,,,,,,,,,,,,,,,,,,,
037791,001,2022-11-20_17h49.40.187,Info_measure_main_exp,2022.2.2,Win32,59.95922773,,,,,,,,,,,,,,,,,,masks/mask_004.jpg,0,4,4,3,1,,,,,,,,,,,,,,,,,,,,,,,,,,,,,,,,,,,,,,,,,,,,,,,,,,,,,,,,,,,,,,,,,,,,,,,,,,,,,,,,,,,,,,,,
037791,001,2022-11-20_17h49.40.187,Info_measure_main_exp,2022.2.2,Win32,59.95922773,,,,,,,,,,,,,,,,,,,,,,,,0.05,-0.025925926,1,0,0,response3disk,5,126.3161,1,-0.002777778,0.009259259,1,0,0,center_square,0,1,1,1,1,0,131,5,5,2514,2490,prac_patch/patch0002514.jpg,prac_patch/patch0002490.jpg,,,,,,,,,,,,,,,,,,,,,,,,,,,,,,,,,,,,,,,,,,,,,,,,,,,,,,,,,,,,
037791,001,2022-11-20_17h49.40.187,Info_measure_main_exp,2022.2.2,Win32,59.95922773,,,,,,,,,,,,,0,0,0,4,1,masks/mask_005.jpg,,,,,,,,,,,,,,,,,,,,,,,,,,,,,,,,,,,,,,,,,,,,,,,,,,,,,,,,,,,,,,,,,,,,,,,,,,,,,,,,,,,,,,,,,,,,,
037791,001,2022-11-20_17h49.40.187,Info_measure_main_exp,2022.2.2,Win32,59.95922773,,,,,,,,,,,,,0,1,1,3,1,masks/mask_004.jpg,,,,,,,,,,,,,,,,,,,,,,,,,,,,,,,,,,,,,,,,,,,,,,,,,,,,,,,,,,,,,,,,,,,,,,,,,,,,,,,,,,,,,,,,,,,,,
037791,001,2022-11-20_17h49.40.187,Info_measure_main_exp,2022.2.2,Win32,59.95922773,,,,,,,,,,,,,0,2,2,1,1,masks/mask_002.jpg,,,,,,,,,,,,,,,,,,,,,,,,,,,,,,,,,,,,,,,,,,,,,,,,,,,,,,,,,,,,,,,,,,,,,,,,,,,,,,,,,,,,,,,,,,,,,
037791,001,2022-11-20_17h49.40.187,Info_measure_main_exp,2022.2.2,Win32,59.95922773,,,,,,,,,,,,,0,3,3,0,1,masks/mask_001.jpg,,,,,,,,,,,,,,,,,,,,,,,,,,,,,,,,,,,,,,,,,,,,,,,,,,,,,,,,,,,,,,,,,,,,,,,,,,,,,,,,,,,,,,,,,,,,,
037791,001,2022-11-20_17h49.40.187,Info_measure_main_exp,2022.2.2,Win32,59.95922773,,,,,,,,,,,,,0,4,4,2,1,masks/mask_003.jpg,,,,,,,,,,,,,,,,,,,,,,,,,,,,,,,,,,,,,,,,,,,,,,,,,,,,,,,,,,,,,,,,,,,,,,,,,,,,,,,,,,,,,,,,,,,,,
037791,001,2022-11-20_17h49.40.187,Info_measure_main_exp,2022.2.2,Win32,59.95922773,,,,,,,,,,,,,,,,,,masks/mask_004.jpg,0,0,0,3,1,,,,,,,,,,,,,,,,,,,,,,,,,,,,,,,,,,,,,,,,,,,,,,,,,,,,,,,,,,,,,,,,,,,,,,,,,,,,,,,,,,,,,,,,
037791,001,2022-11-20_17h49.40.187,Info_measure_main_exp,2022.2.2,Win32,59.95922773,,,,,,,,,,,,,,,,,,masks/mask_003.jpg,0,1,1,2,1,,,,,,,,,,,,,,,,,,,,,,,,,,,,,,,,,,,,,,,,,,,,,,,,,,,,,,,,,,,,,,,,,,,,,,,,,,,,,,,,,,,,,,,,
037791,001,2022-11-20_17h49.40.187,Info_measure_main_exp,2022.2.2,Win32,59.95922773,,,,,,,,,,,,,,,,,,masks/mask_005.jpg,0,2,2,4,1,,,,,,,,,,,,,,,,,,,,,,,,,,,,,,,,,,,,,,,,,,,,,,,,,,,,,,,,,,,,,,,,,,,,,,,,,,,,,,,,,,,,,,,,
037791,001,2022-11-20_17h49.40.187,Info_measure_main_exp,2022.2.2,Win32,59.95922773,,,,,,,,,,,,,,,,,,masks/mask_001.jpg,0,3,3,0,1,,,,,,,,,,,,,,,,,,,,,,,,,,,,,,,,,,,,,,,,,,,,,,,,,,,,,,,,,,,,,,,,,,,,,,,,,,,,,,,,,,,,,,,,
037791,001,2022-11-20_17h49.40.187,Info_measure_main_exp,2022.2.2,Win32,59.95922773,,,,,,,,,,,,,,,,,,masks/mask_002.jpg,0,4,4,1,1,,,,,,,,,,,,,,,,,,,,,,,,,,,,,,,,,,,,,,,,,,,,,,,,,,,,,,,,,,,,,,,,,,,,,,,,,,,,,,,,,,,,,,,,
037791,001,2022-11-20_17h49.40.187,Info_measure_main_exp,2022.2.2,Win32,59.95922773,,,,,,,,,,,,,,,,,,,,,,,,-0.052777778,0.106481481,1,0,0,response7disk,0,138.3165,1,0.00462963,0,1,0,0,center_square,0,2,2,2,1,0,131,5,5,2526,2526,prac_patch/patch0002526.jpg,prac_patch/patch0002526.jpg,,,,,,,,,,,,,,,,,,,,,,,,,,,,,,,,,,,,,,,,,,,,,,,,,,,,,,,,,,,,
037791,001,2022-11-20_17h49.40.187,Info_measure_main_exp,2022.2.2,Win32,59.95922773,,,,,,,,,,,,,,,,,,,,,,,,,,,,,,,,,,,,,,,,,,,,,,,,,,,,,,,,,,,space,3.6454,,,,,,,,,,,,,,,,,,,,,,,,,,,,,,,,,,,,,,,,,,,,,,,,,,,
037791,001,2022-11-20_17h49.40.187,Info_measure_main_exp,2022.2.2,Win32,59.95922773,,,,,,,,,,,,,,,,,,masks/mask_002.jpg,,,,,,,,,,,,,,,,,,,,,,,,,,,,,,,,,,,,,,,,,,,0,0,0,1,1,,,,,,,,,,,,,,,,,,,,,,,,,,,,,,,,,,,,,,,,,,,,,,
037791,001,2022-11-20_17h49.40.187,Info_measure_main_exp,2022.2.2,Win32,59.95922773,,,,,,,,,,,,,,,,,,masks/mask_004.jpg,,,,,,,,,,,,,,,,,,,,,,,,,,,,,,,,,,,,,,,,,,,0,1,1,3,1,,,,,,,,,,,,,,,,,,,,,,,,,,,,,,,,,,,,,,,,,,,,,,
037791,001,2022-11-20_17h49.40.187,Info_measure_main_exp,2022.2.2,Win32,59.95922773,,,,,,,,,,,,,,,,,,masks/mask_001.jpg,,,,,,,,,,,,,,,,,,,,,,,,,,,,,,,,,,,,,,,,,,,0,2,2,0,1,,,,,,,,,,,,,,,,,,,,,,,,,,,,,,,,,,,,,,,,,,,,,,
037791,001,2022-11-20_17h49.40.187,Info_measure_main_exp,2022.2.2,Win32,59.95922773,,,,,,,,,,,,,,,,,,masks/mask_003.jpg,,,,,,,,,,,,,,,,,,,,,,,,,,,,,,,,,,,,,,,,,,,0,3,3,2,1,,,,,,,,,,,,,,,,,,,,,,,,,,,,,,,,,,,,,,,,,,,,,,
037791,001,2022-11-20_17h49.40.187,Info_measure_main_exp,2022.2.2,Win32,59.95922773,,,,,,,,,,,,,,,,,,masks/mask_005.jpg,,,,,,,,,,,,,,,,,,,,,,,,,,,,,,,,,,,,,,,,,,,0,4,4,4,1,,,,,,,,,,,,,,,,,,,,,,,,,,,,,,,,,,,,,,,,,,,,,,
037791,001,2022-11-20_17h49.40.187,Info_measure_main_exp,2022.2.2,Win32,59.95922773,,,,,,,,,,,,,,,,,,masks/mask_004.jpg,,,,,,,,,,,,,,,,,,,,,,,,,,,,,,,,,,,,,,,,,,,,,,,,0,0,0,3,1,,,,,,,,,,,,,,,,,,,,,,,,,,,,,,,,,,,,,,,,,
037791,001,2022-11-20_17h49.40.187,Info_measure_main_exp,2022.2.2,Win32,59.95922773,,,,,,,,,,,,,,,,,,masks/mask_002.jpg,,,,,,,,,,,,,,,,,,,,,,,,,,,,,,,,,,,,,,,,,,,,,,,,0,1,1,1,1,,,,,,,,,,,,,,,,,,,,,,,,,,,,,,,,,,,,,,,,,
037791,001,2022-11-20_17h49.40.187,Info_measure_main_exp,2022.2.2,Win32,59.95922773,,,,,,,,,,,,,,,,,,masks/mask_005.jpg,,,,,,,,,,,,,,,,,,,,,,,,,,,,,,,,,,,,,,,,,,,,,,,,0,2,2,4,1,,,,,,,,,,,,,,,,,,,,,,,,,,,,,,,,,,,,,,,,,
037791,001,2022-11-20_17h49.40.187,Info_measure_main_exp,2022.2.2,Win32,59.95922773,,,,,,,,,,,,,,,,,,masks/mask_001.jpg,,,,,,,,,,,,,,,,,,,,,,,,,,,,,,,,,,,,,,,,,,,,,,,,0,3,3,0,1,,,,,,,,,,,,,,,,,,,,,,,,,,,,,,,,,,,,,,,,,
037791,001,2022-11-20_17h49.40.187,Info_measure_main_exp,2022.2.2,Win32,59.95922773,,,,,,,,,,,,,,,,,,masks/mask_003.jpg,,,,,,,,,,,,,,,,,,,,,,,,,,,,,,,,,,,,,,,,,,,,,,,,0,4,4,2,1,,,,,,,,,,,,,,,,,,,,,,,,,,,,,,,,,,,,,,,,,
037791,001,2022-11-20_17h49.40.187,Info_measure_main_exp,2022.2.2,Win32,59.95922773,,,,,,,,,,,,,,,,,,,,,,,,,,,,,,5,2.6336,1,,,,,,,,,,,,0,131,5,5,2274,1950,absent_patch/patch0002274.jpg,absent_patch/patch0001950.jpg,,,,,,,,,,,,,,,,,,,,0.101851852,-0.031481481,1,0,0,response3disk,1,0.003703704,0.000925926,1,0,0,center_square,0,0,0,10,1,,,,,,,,,,,,,,,,,,,,,,,
037791,001,2022-11-20_17h49.40.187,Info_measure_main_exp,2022.2.2,Win32,59.95922773,,,,,,,,,,,,,,,,,,masks/mask_004.jpg,,,,,,,,,,,,,,,,,,,,,,,,,,,,,,,,,,,,,,,,,,,0,0,0,3,1,,,,,,,,,,,,,,,,,,,,,,,,,,,,,,,,,,,,,,,,,,,,,,
037791,001,2022-11-20_17h49.40.187,Info_measure_main_exp,2022.2.2,Win32,59.95922773,,,,,,,,,,,,,,,,,,masks/mask_001.jpg,,,,,,,,,,,,,,,,,,,,,,,,,,,,,,,,,,,,,,,,,,,0,1,1,0,1,,,,,,,,,,,,,,,,,,,,,,,,,,,,,,,,,,,,,,,,,,,,,,
037791,001,2022-11-20_17h49.40.187,Info_measure_main_exp,2022.2.2,Win32,59.95922773,,,,,,,,,,,,,,,,,,masks/mask_002.jpg,,,,,,,,,,,,,,,,,,,,,,,,,,,,,,,,,,,,,,,,,,,0,2,2,1,1,,,,,,,,,,,,,,,,,,,,,,,,,,,,,,,,,,,,,,,,,,,,,,
037791,001,2022-11-20_17h49.40.187,Info_measure_main_exp,2022.2.2,Win32,59.95922773,,,,,,,,,,,,,,,,,,masks/mask_003.jpg,,,,,,,,,,,,,,,,,,,,,,,,,,,,,,,,,,,,,,,,,,,0,3,3,2,1,,,,,,,,,,,,,,,,,,,,,,,,,,,,,,,,,,,,,,,,,,,,,,
037791,001,2022-11-20_17h49.40.187,Info_measure_main_exp,2022.2.2,Win32,59.95922773,,,,,,,,,,,,,,,,,,masks/mask_005.jpg,,,,,,,,,,,,,,,,,,,,,,,,,,,,,,,,,,,,,,,,,,,0,4,4,4,1,,,,,,,,,,,,,,,,,,,,,,,,,,,,,,,,,,,,,,,,,,,,,,
037791,001,2022-11-20_17h49.40.187,Info_measure_main_exp,2022.2.2,Win32,59.95922773,,,,,,,,,,,,,,,,,,masks/mask_004.jpg,,,,,,,,,,,,,,,,,,,,,,,,,,,,,,,,,,,,,,,,,,,,,,,,0,0,0,3,1,,,,,,,,,,,,,,,,,,,,,,,,,,,,,,,,,,,,,,,,,
037791,001,2022-11-20_17h49.40.187,Info_measure_main_exp,2022.2.2,Win32,59.95922773,,,,,,,,,,,,,,,,,,masks/mask_001.jpg,,,,,,,,,,,,,,,,,,,,,,,,,,,,,,,,,,,,,,,,,,,,,,,,0,1,1,0,1,,,,,,,,,,,,,,,,,,,,,,,,,,,,,,,,,,,,,,,,,
037791,001,2022-11-20_17h49.40.187,Info_measure_main_exp,2022.2.2,Win32,59.95922773,,,,,,,,,,,,,,,,,,masks/mask_005.jpg,,,,,,,,,,,,,,,,,,,,,,,,,,,,,,,,,,,,,,,,,,,,,,,,0,2,2,4,1,,,,,,,,,,,,,,,,,,,,,,,,,,,,,,,,,,,,,,,,,
037791,001,2022-11-20_17h49.40.187,Info_measure_main_exp,2022.2.2,Win32,59.95922773,,,,,,,,,,,,,,,,,,masks/mask_003.jpg,,,,,,,,,,,,,,,,,,,,,,,,,,,,,,,,,,,,,,,,,,,,,,,,0,3,3,2,1,,,,,,,,,,,,,,,,,,,,,,,,,,,,,,,,,,,,,,,,,
037791,001,2022-11-20_17h49.40.187,Info_measure_main_exp,2022.2.2,Win32,59.95922773,,,,,,,,,,,,,,,,,,masks/mask_002.jpg,,,,,,,,,,,,,,,,,,,,,,,,,,,,,,,,,,,,,,,,,,,,,,,,0,4,4,1,1,,,,,,,,,,,,,,,,,,,,,,,,,,,,,,,,,,,,,,,,,
037791,001,2022-11-20_17h49.40.187,Info_measure_main_exp,2022.2.2,Win32,59.95922773,,,,,,,,,,,,,,,,,,,,,,,,,,,,,,7,1.0499,1,,,,,,,,,,,,0,131,5,5,1974,2238,absent_patch/patch0001974.jpg,absent_patch/patch0002238.jpg,,,,,,,,,,,,,,,,,,,,0.02037037,0.077777778,1,0,0,response1disk,2,0,-0.012962963,1,0,0,center_square,0,1,1,95,1,,,,,,,,,,,,,,,,,,,,,,,
037791,001,2022-11-20_17h49.40.187,Info_measure_main_exp,2022.2.2,Win32,59.95922773,,,,,,,,,,,,,,,,,,masks/mask_004.jpg,,,,,,,,,,,,,,,,,,,,,,,,,,,,,,,,,,,,,,,,,,,0,0,0,3,1,,,,,,,,,,,,,,,,,,,,,,,,,,,,,,,,,,,,,,,,,,,,,,
037791,001,2022-11-20_17h49.40.187,Info_measure_main_exp,2022.2.2,Win32,59.95922773,,,,,,,,,,,,,,,,,,masks/mask_003.jpg,,,,,,,,,,,,,,,,,,,,,,,,,,,,,,,,,,,,,,,,,,,0,1,1,2,1,,,,,,,,,,,,,,,,,,,,,,,,,,,,,,,,,,,,,,,,,,,,,,
037791,001,2022-11-20_17h49.40.187,Info_measure_main_exp,2022.2.2,Win32,59.95922773,,,,,,,,,,,,,,,,,,masks/mask_005.jpg,,,,,,,,,,,,,,,,,,,,,,,,,,,,,,,,,,,,,,,,,,,0,2,2,4,1,,,,,,,,,,,,,,,,,,,,,,,,,,,,,,,,,,,,,,,,,,,,,,
037791,001,2022-11-20_17h49.40.187,Info_measure_main_exp,2022.2.2,Win32,59.95922773,,,,,,,,,,,,,,,,,,masks/mask_002.jpg,,,,,,,,,,,,,,,,,,,,,,,,,,,,,,,,,,,,,,,,,,,0,3,3,1,1,,,,,,,,,,,,,,,,,,,,,,,,,,,,,,,,,,,,,,,,,,,,,,
037791,001,2022-11-20_17h49.40.187,Info_measure_main_exp,2022.2.2,Win32,59.95922773,,,,,,,,,,,,,,,,,,masks/mask_001.jpg,,,,,,,,,,,,,,,,,,,,,,,,,,,,,,,,,,,,,,,,,,,0,4,4,0,1,,,,,,,,,,,,,,,,,,,,,,,,,,,,,,,,,,,,,,,,,,,,,,
037791,001,2022-11-20_17h49.40.187,Info_measure_main_exp,2022.2.2,Win32,59.95922773,,,,,,,,,,,,,,,,,,masks/mask_001.jpg,,,,,,,,,,,,,,,,,,,,,,,,,,,,,,,,,,,,,,,,,,,,,,,,0,0,0,0,1,,,,,,,,,,,,,,,,,,,,,,,,,,,,,,,,,,,,,,,,,
037791,001,2022-11-20_17h49.40.187,Info_measure_main_exp,2022.2.2,Win32,59.95922773,,,,,,,,,,,,,,,,,,masks/mask_005.jpg,,,,,,,,,,,,,,,,,,,,,,,,,,,,,,,,,,,,,,,,,,,,,,,,0,1,1,4,1,,,,,,,,,,,,,,,,,,,,,,,,,,,,,,,,,,,,,,,,,
037791,001,2022-11-20_17h49.40.187,Info_measure_main_exp,2022.2.2,Win32,59.95922773,,,,,,,,,,,,,,,,,,masks/mask_003.jpg,,,,,,,,,,,,,,,,,,,,,,,,,,,,,,,,,,,,,,,,,,,,,,,,0,2,2,2,1,,,,,,,,,,,,,,,,,,,,,,,,,,,,,,,,,,,,,,,,,
037791,001,2022-11-20_17h49.40.187,Info_measure_main_exp,2022.2.2,Win32,59.95922773,,,,,,,,,,,,,,,,,,masks/mask_004.jpg,,,,,,,,,,,,,,,,,,,,,,,,,,,,,,,,,,,,,,,,,,,,,,,,0,3,3,3,1,,,,,,,,,,,,,,,,,,,,,,,,,,,,,,,,,,,,,,,,,
037791,001,2022-11-20_17h49.40.187,Info_measure_main_exp,2022.2.2,Win32,59.95922773,,,,,,,,,,,,,,,,,,masks/mask_002.jpg,,,,,,,,,,,,,,,,,,,,,,,,,,,,,,,,,,,,,,,,,,,,,,,,0,4,4,1,1,,,,,,,,,,,,,,,,,,,,,,,,,,,,,,,,,,,,,,,,,
037791,001,2022-11-20_17h49.40.187,Info_measure_main_exp,2022.2.2,Win32,59.95922773,,,,,,,,,,,,,,,,,,,,,,,,,,,,,,5,1.7665,1,,,,,,,,,,,,0,131,5,5,1950,2082,absent_patch/patch0001950.jpg,absent_patch/patch0002082.jpg,,,,,,,,,,,,,,,,,,,,0.032407407,-0.018518519,1,0,0,response3disk,3,-0.000925926,-0.001851852,1,0,0,center_square,0,2,2,12,1,,,,,,,,,,,,,,,,,,,,,,,
037791,001,2022-11-20_17h49.40.187,Info_measure_main_exp,2022.2.2,Win32,59.95922773,,,,,,,,,,,,,,,,,,masks/mask_001.jpg,,,,,,,,,,,,,,,,,,,,,,,,,,,,,,,,,,,,,,,,,,,0,0,0,0,1,,,,,,,,,,,,,,,,,,,,,,,,,,,,,,,,,,,,,,,,,,,,,,
037791,001,2022-11-20_17h49.40.187,Info_measure_main_exp,2022.2.2,Win32,59.95922773,,,,,,,,,,,,,,,,,,masks/mask_005.jpg,,,,,,,,,,,,,,,,,,,,,,,,,,,,,,,,,,,,,,,,,,,0,1,1,4,1,,,,,,,,,,,,,,,,,,,,,,,,,,,,,,,,,,,,,,,,,,,,,,
037791,001,2022-11-20_17h49.40.187,Info_measure_main_exp,2022.2.2,Win32,59.95922773,,,,,,,,,,,,,,,,,,masks/mask_002.jpg,,,,,,,,,,,,,,,,,,,,,,,,,,,,,,,,,,,,,,,,,,,0,2,2,1,1,,,,,,,,,,,,,,,,,,,,,,,,,,,,,,,,,,,,,,,,,,,,,,
037791,001,2022-11-20_17h49.40.187,Info_measure_main_exp,2022.2.2,Win32,59.95922773,,,,,,,,,,,,,,,,,,masks/mask_003.jpg,,,,,,,,,,,,,,,,,,,,,,,,,,,,,,,,,,,,,,,,,,,0,3,3,2,1,,,,,,,,,,,,,,,,,,,,,,,,,,,,,,,,,,,,,,,,,,,,,,
037791,001,2022-11-20_17h49.40.187,Info_measure_main_exp,2022.2.2,Win32,59.95922773,,,,,,,,,,,,,,,,,,masks/mask_004.jpg,,,,,,,,,,,,,,,,,,,,,,,,,,,,,,,,,,,,,,,,,,,0,4,4,3,1,,,,,,,,,,,,,,,,,,,,,,,,,,,,,,,,,,,,,,,,,,,,,,
037791,001,2022-11-20_17h49.40.187,Info_measure_main_exp,2022.2.2,Win32,59.95922773,,,,,,,,,,,,,,,,,,masks/mask_001.jpg,,,,,,,,,,,,,,,,,,,,,,,,,,,,,,,,,,,,,,,,,,,,,,,,0,0,0,0,1,,,,,,,,,,,,,,,,,,,,,,,,,,,,,,,,,,,,,,,,,
037791,001,2022-11-20_17h49.40.187,Info_measure_main_exp,2022.2.2,Win32,59.95922773,,,,,,,,,,,,,,,,,,masks/mask_004.jpg,,,,,,,,,,,,,,,,,,,,,,,,,,,,,,,,,,,,,,,,,,,,,,,,0,1,1,3,1,,,,,,,,,,,,,,,,,,,,,,,,,,,,,,,,,,,,,,,,,
037791,001,2022-11-20_17h49.40.187,Info_measure_main_exp,2022.2.2,Win32,59.95922773,,,,,,,,,,,,,,,,,,masks/mask_003.jpg,,,,,,,,,,,,,,,,,,,,,,,,,,,,,,,,,,,,,,,,,,,,,,,,0,2,2,2,1,,,,,,,,,,,,,,,,,,,,,,,,,,,,,,,,,,,,,,,,,
037791,001,2022-11-20_17h49.40.187,Info_measure_main_exp,2022.2.2,Win32,59.95922773,,,,,,,,,,,,,,,,,,masks/mask_005.jpg,,,,,,,,,,,,,,,,,,,,,,,,,,,,,,,,,,,,,,,,,,,,,,,,0,3,3,4,1,,,,,,,,,,,,,,,,,,,,,,,,,,,,,,,,,,,,,,,,,
037791,001,2022-11-20_17h49.40.187,Info_measure_main_exp,2022.2.2,Win32,59.95922773,,,,,,,,,,,,,,,,,,masks/mask_002.jpg,,,,,,,,,,,,,,,,,,,,,,,,,,,,,,,,,,,,,,,,,,,,,,,,0,4,4,1,1,,,,,,,,,,,,,,,,,,,,,,,,,,,,,,,,,,,,,,,,,
037791,001,2022-11-20_17h49.40.187,Info_measure_main_exp,2022.2.2,Win32,59.95922773,,,,,,,,,,,,,,,,,,,,,,,,,,,,,,6,3.0499,1,,,,,,,,,,,,0,131,5,5,2190,2166,absent_patch/patch0002190.jpg,absent_patch/patch0002166.jpg,,,,,,,,,,,,,,,,,,,,0.086111111,0.034259259,1,0,0,response1disk,4,0.008333333,0,1,0,0,center_square,0,3,3,50,1,,,,,,,,,,,,,,,,,,,,,,,
037791,001,2022-11-20_17h49.40.187,Info_measure_main_exp,2022.2.2,Win32,59.95922773,,,,,,,,,,,,,,,,,,masks/mask_004.jpg,,,,,,,,,,,,,,,,,,,,,,,,,,,,,,,,,,,,,,,,,,,0,0,0,3,1,,,,,,,,,,,,,,,,,,,,,,,,,,,,,,,,,,,,,,,,,,,,,,
037791,001,2022-11-20_17h49.40.187,Info_measure_main_exp,2022.2.2,Win32,59.95922773,,,,,,,,,,,,,,,,,,masks/mask_002.jpg,,,,,,,,,,,,,,,,,,,,,,,,,,,,,,,,,,,,,,,,,,,0,1,1,1,1,,,,,,,,,,,,,,,,,,,,,,,,,,,,,,,,,,,,,,,,,,,,,,
037791,001,2022-11-20_17h49.40.187,Info_measure_main_exp,2022.2.2,Win32,59.95922773,,,,,,,,,,,,,,,,,,masks/mask_001.jpg,,,,,,,,,,,,,,,,,,,,,,,,,,,,,,,,,,,,,,,,,,,0,2,2,0,1,,,,,,,,,,,,,,,,,,,,,,,,,,,,,,,,,,,,,,,,,,,,,,
037791,001,2022-11-20_17h49.40.187,Info_measure_main_exp,2022.2.2,Win32,59.95922773,,,,,,,,,,,,,,,,,,masks/mask_003.jpg,,,,,,,,,,,,,,,,,,,,,,,,,,,,,,,,,,,,,,,,,,,0,3,3,2,1,,,,,,,,,,,,,,,,,,,,,,,,,,,,,,,,,,,,,,,,,,,,,,
037791,001,2022-11-20_17h49.40.187,Info_measure_main_exp,2022.2.2,Win32,59.95922773,,,,,,,,,,,,,,,,,,masks/mask_005.jpg,,,,,,,,,,,,,,,,,,,,,,,,,,,,,,,,,,,,,,,,,,,0,4,4,4,1,,,,,,,,,,,,,,,,,,,,,,,,,,,,,,,,,,,,,,,,,,,,,,
037791,001,2022-11-20_17h49.40.187,Info_measure_main_exp,2022.2.2,Win32,59.95922773,,,,,,,,,,,,,,,,,,masks/mask_003.jpg,,,,,,,,,,,,,,,,,,,,,,,,,,,,,,,,,,,,,,,,,,,,,,,,0,0,0,2,1,,,,,,,,,,,,,,,,,,,,,,,,,,,,,,,,,,,,,,,,,
037791,001,2022-11-20_17h49.40.187,Info_measure_main_exp,2022.2.2,Win32,59.95922773,,,,,,,,,,,,,,,,,,masks/mask_002.jpg,,,,,,,,,,,,,,,,,,,,,,,,,,,,,,,,,,,,,,,,,,,,,,,,0,1,1,1,1,,,,,,,,,,,,,,,,,,,,,,,,,,,,,,,,,,,,,,,,,
037791,001,2022-11-20_17h49.40.187,Info_measure_main_exp,2022.2.2,Win32,59.95922773,,,,,,,,,,,,,,,,,,masks/mask_001.jpg,,,,,,,,,,,,,,,,,,,,,,,,,,,,,,,,,,,,,,,,,,,,,,,,0,2,2,0,1,,,,,,,,,,,,,,,,,,,,,,,,,,,,,,,,,,,,,,,,,
037791,001,2022-11-20_17h49.40.187,Info_measure_main_exp,2022.2.2,Win32,59.95922773,,,,,,,,,,,,,,,,,,masks/mask_004.jpg,,,,,,,,,,,,,,,,,,,,,,,,,,,,,,,,,,,,,,,,,,,,,,,,0,3,3,3,1,,,,,,,,,,,,,,,,,,,,,,,,,,,,,,,,,,,,,,,,,
037791,001,2022-11-20_17h49.40.187,Info_measure_main_exp,2022.2.2,Win32,59.95922773,,,,,,,,,,,,,,,,,,masks/mask_005.jpg,,,,,,,,,,,,,,,,,,,,,,,,,,,,,,,,,,,,,,,,,,,,,,,,0,4,4,4,1,,,,,,,,,,,,,,,,,,,,,,,,,,,,,,,,,,,,,,,,,
037791,001,2022-11-20_17h49.40.187,Info_measure_main_exp,2022.2.2,Win32,59.95922773,,,,,,,,,,,,,,,,,,,,,,,,,,,,,,7,1.0165,1,,,,,,,,,,,,0,131,5,5,2238,2214,absent_patch/patch0002238.jpg,absent_patch/patch0002214.jpg,,,,,,,,,,,,,,,,,,,,0.062037037,0.12037037,1,0,0,response1disk,5,0.011111111,0.012962963,1,0,0,center_square,0,4,4,81,1,,,,,,,,,,,,,,,,,,,,,,,
037791,001,2022-11-20_17h49.40.187,Info_measure_main_exp,2022.2.2,Win32,59.95922773,,,,,,,,,,,,,,,,,,masks/mask_002.jpg,,,,,,,,,,,,,,,,,,,,,,,,,,,,,,,,,,,,,,,,,,,0,0,0,1,1,,,,,,,,,,,,,,,,,,,,,,,,,,,,,,,,,,,,,,,,,,,,,,
037791,001,2022-11-20_17h49.40.187,Info_measure_main_exp,2022.2.2,Win32,59.95922773,,,,,,,,,,,,,,,,,,masks/mask_005.jpg,,,,,,,,,,,,,,,,,,,,,,,,,,,,,,,,,,,,,,,,,,,0,1,1,4,1,,,,,,,,,,,,,,,,,,,,,,,,,,,,,,,,,,,,,,,,,,,,,,
037791,001,2022-11-20_17h49.40.187,Info_measure_main_exp,2022.2.2,Win32,59.95922773,,,,,,,,,,,,,,,,,,masks/mask_001.jpg,,,,,,,,,,,,,,,,,,,,,,,,,,,,,,,,,,,,,,,,,,,0,2,2,0,1,,,,,,,,,,,,,,,,,,,,,,,,,,,,,,,,,,,,,,,,,,,,,,
037791,001,2022-11-20_17h49.40.187,Info_measure_main_exp,2022.2.2,Win32,59.95922773,,,,,,,,,,,,,,,,,,masks/mask_004.jpg,,,,,,,,,,,,,,,,,,,,,,,,,,,,,,,,,,,,,,,,,,,0,3,3,3,1,,,,,,,,,,,,,,,,,,,,,,,,,,,,,,,,,,,,,,,,,,,,,,
037791,001,2022-11-20_17h49.40.187,Info_measure_main_exp,2022.2.2,Win32,59.95922773,,,,,,,,,,,,,,,,,,masks/mask_003.jpg,,,,,,,,,,,,,,,,,,,,,,,,,,,,,,,,,,,,,,,,,,,0,4,4,2,1,,,,,,,,,,,,,,,,,,,,,,,,,,,,,,,,,,,,,,,,,,,,,,
037791,001,2022-11-20_17h49.40.187,Info_measure_main_exp,2022.2.2,Win32,59.95922773,,,,,,,,,,,,,,,,,,masks/mask_003.jpg,,,,,,,,,,,,,,,,,,,,,,,,,,,,,,,,,,,,,,,,,,,,,,,,0,0,0,2,1,,,,,,,,,,,,,,,,,,,,,,,,,,,,,,,,,,,,,,,,,
037791,001,2022-11-20_17h49.40.187,Info_measure_main_exp,2022.2.2,Win32,59.95922773,,,,,,,,,,,,,,,,,,masks/mask_004.jpg,,,,,,,,,,,,,,,,,,,,,,,,,,,,,,,,,,,,,,,,,,,,,,,,0,1,1,3,1,,,,,,,,,,,,,,,,,,,,,,,,,,,,,,,,,,,,,,,,,
037791,001,2022-11-20_17h49.40.187,Info_measure_main_exp,2022.2.2,Win32,59.95922773,,,,,,,,,,,,,,,,,,masks/mask_001.jpg,,,,,,,,,,,,,,,,,,,,,,,,,,,,,,,,,,,,,,,,,,,,,,,,0,2,2,0,1,,,,,,,,,,,,,,,,,,,,,,,,,,,,,,,,,,,,,,,,,
037791,001,2022-11-20_17h49.40.187,Info_measure_main_exp,2022.2.2,Win32,59.95922773,,,,,,,,,,,,,,,,,,masks/mask_005.jpg,,,,,,,,,,,,,,,,,,,,,,,,,,,,,,,,,,,,,,,,,,,,,,,,0,3,3,4,1,,,,,,,,,,,,,,,,,,,,,,,,,,,,,,,,,,,,,,,,,
037791,001,2022-11-20_17h49.40.187,Info_measure_main_exp,2022.2.2,Win32,59.95922773,,,,,,,,,,,,,,,,,,masks/mask_002.jpg,,,,,,,,,,,,,,,,,,,,,,,,,,,,,,,,,,,,,,,,,,,,,,,,0,4,4,1,1,,,,,,,,,,,,,,,,,,,,,,,,,,,,,,,,,,,,,,,,,
037791,001,2022-11-20_17h49.40.187,Info_measure_main_exp,2022.2.2,Win32,59.95922773,,,,,,,,,,,,,,,,,,,,,,,,,,,,,,6,1.0999,1,,,,,,,,,,,,0,131,5,5,2298,2274,absent_patch/patch0002298.jpg,absent_patch/patch0002274.jpg,,,,,,,,,,,,,,,,,,,,0.119444444,0.051851852,1,0,0,response1disk,6,-0.00462963,-0.011111111,1,0,0,center_square,0,5,5,1,1,,,,,,,,,,,,,,,,,,,,,,,
037791,001,2022-11-20_17h49.40.187,Info_measure_main_exp,2022.2.2,Win32,59.95922773,,,,,,,,,,,,,,,,,,masks/mask_004.jpg,,,,,,,,,,,,,,,,,,,,,,,,,,,,,,,,,,,,,,,,,,,0,0,0,3,1,,,,,,,,,,,,,,,,,,,,,,,,,,,,,,,,,,,,,,,,,,,,,,
037791,001,2022-11-20_17h49.40.187,Info_measure_main_exp,2022.2.2,Win32,59.95922773,,,,,,,,,,,,,,,,,,masks/mask_001.jpg,,,,,,,,,,,,,,,,,,,,,,,,,,,,,,,,,,,,,,,,,,,0,1,1,0,1,,,,,,,,,,,,,,,,,,,,,,,,,,,,,,,,,,,,,,,,,,,,,,
037791,001,2022-11-20_17h49.40.187,Info_measure_main_exp,2022.2.2,Win32,59.95922773,,,,,,,,,,,,,,,,,,masks/mask_003.jpg,,,,,,,,,,,,,,,,,,,,,,,,,,,,,,,,,,,,,,,,,,,0,2,2,2,1,,,,,,,,,,,,,,,,,,,,,,,,,,,,,,,,,,,,,,,,,,,,,,
037791,001,2022-11-20_17h49.40.187,Info_measure_main_exp,2022.2.2,Win32,59.95922773,,,,,,,,,,,,,,,,,,masks/mask_005.jpg,,,,,,,,,,,,,,,,,,,,,,,,,,,,,,,,,,,,,,,,,,,0,3,3,4,1,,,,,,,,,,,,,,,,,,,,,,,,,,,,,,,,,,,,,,,,,,,,,,
037791,001,2022-11-20_17h49.40.187,Info_measure_main_exp,2022.2.2,Win32,59.95922773,,,,,,,,,,,,,,,,,,masks/mask_002.jpg,,,,,,,,,,,,,,,,,,,,,,,,,,,,,,,,,,,,,,,,,,,0,4,4,1,1,,,,,,,,,,,,,,,,,,,,,,,,,,,,,,,,,,,,,,,,,,,,,,
037791,001,2022-11-20_17h49.40.187,Info_measure_main_exp,2022.2.2,Win32,59.95922773,,,,,,,,,,,,,,,,,,masks/mask_004.jpg,,,,,,,,,,,,,,,,,,,,,,,,,,,,,,,,,,,,,,,,,,,,,,,,0,0,0,3,1,,,,,,,,,,,,,,,,,,,,,,,,,,,,,,,,,,,,,,,,,
037791,001,2022-11-20_17h49.40.187,Info_measure_main_exp,2022.2.2,Win32,59.95922773,,,,,,,,,,,,,,,,,,masks/mask_003.jpg,,,,,,,,,,,,,,,,,,,,,,,,,,,,,,,,,,,,,,,,,,,,,,,,0,1,1,2,1,,,,,,,,,,,,,,,,,,,,,,,,,,,,,,,,,,,,,,,,,
037791,001,2022-11-20_17h49.40.187,Info_measure_main_exp,2022.2.2,Win32,59.95922773,,,,,,,,,,,,,,,,,,masks/mask_002.jpg,,,,,,,,,,,,,,,,,,,,,,,,,,,,,,,,,,,,,,,,,,,,,,,,0,2,2,1,1,,,,,,,,,,,,,,,,,,,,,,,,,,,,,,,,,,,,,,,,,
037791,001,2022-11-20_17h49.40.187,Info_measure_main_exp,2022.2.2,Win32,59.95922773,,,,,,,,,,,,,,,,,,masks/mask_001.jpg,,,,,,,,,,,,,,,,,,,,,,,,,,,,,,,,,,,,,,,,,,,,,,,,0,3,3,0,1,,,,,,,,,,,,,,,,,,,,,,,,,,,,,,,,,,,,,,,,,
037791,001,2022-11-20_17h49.40.187,Info_measure_main_exp,2022.2.2,Win32,59.95922773,,,,,,,,,,,,,,,,,,masks/mask_005.jpg,,,,,,,,,,,,,,,,,,,,,,,,,,,,,,,,,,,,,,,,,,,,,,,,0,4,4,4,1,,,,,,,,,,,,,,,,,,,,,,,,,,,,,,,,,,,,,,,,,
037791,001,2022-11-20_17h49.40.187,Info_measure_main_exp,2022.2.2,Win32,59.95922773,,,,,,,,,,,,,,,,,,,,,,,,,,,,,,7,1.1167,1,,,,,,,,,,,,0,131,5,5,1950,2214,absent_patch/patch0001950.jpg,absent_patch/patch0002214.jpg,,,,,,,,,,,,,,,,,,,,0.02037037,0.075925926,1,0,0,response1disk,7,0.008333333,0.012962963,1,0,0,center_square,0,6,6,85,1,,,,,,,,,,,,,,,,,,,,,,,
037791,001,2022-11-20_17h49.40.187,Info_measure_main_exp,2022.2.2,Win32,59.95922773,,,,,,,,,,,,,,,,,,masks/mask_001.jpg,,,,,,,,,,,,,,,,,,,,,,,,,,,,,,,,,,,,,,,,,,,0,0,0,0,1,,,,,,,,,,,,,,,,,,,,,,,,,,,,,,,,,,,,,,,,,,,,,,
037791,001,2022-11-20_17h49.40.187,Info_measure_main_exp,2022.2.2,Win32,59.95922773,,,,,,,,,,,,,,,,,,masks/mask_005.jpg,,,,,,,,,,,,,,,,,,,,,,,,,,,,,,,,,,,,,,,,,,,0,1,1,4,1,,,,,,,,,,,,,,,,,,,,,,,,,,,,,,,,,,,,,,,,,,,,,,
037791,001,2022-11-20_17h49.40.187,Info_measure_main_exp,2022.2.2,Win32,59.95922773,,,,,,,,,,,,,,,,,,masks/mask_002.jpg,,,,,,,,,,,,,,,,,,,,,,,,,,,,,,,,,,,,,,,,,,,0,2,2,1,1,,,,,,,,,,,,,,,,,,,,,,,,,,,,,,,,,,,,,,,,,,,,,,
037791,001,2022-11-20_17h49.40.187,Info_measure_main_exp,2022.2.2,Win32,59.95922773,,,,,,,,,,,,,,,,,,masks/mask_004.jpg,,,,,,,,,,,,,,,,,,,,,,,,,,,,,,,,,,,,,,,,,,,0,3,3,3,1,,,,,,,,,,,,,,,,,,,,,,,,,,,,,,,,,,,,,,,,,,,,,,
037791,001,2022-11-20_17h49.40.187,Info_measure_main_exp,2022.2.2,Win32,59.95922773,,,,,,,,,,,,,,,,,,masks/mask_003.jpg,,,,,,,,,,,,,,,,,,,,,,,,,,,,,,,,,,,,,,,,,,,0,4,4,2,1,,,,,,,,,,,,,,,,,,,,,,,,,,,,,,,,,,,,,,,,,,,,,,
037791,001,2022-11-20_17h49.40.187,Info_measure_main_exp,2022.2.2,Win32,59.95922773,,,,,,,,,,,,,,,,,,masks/mask_005.jpg,,,,,,,,,,,,,,,,,,,,,,,,,,,,,,,,,,,,,,,,,,,,,,,,0,0,0,4,1,,,,,,,,,,,,,,,,,,,,,,,,,,,,,,,,,,,,,,,,,
037791,001,2022-11-20_17h49.40.187,Info_measure_main_exp,2022.2.2,Win32,59.95922773,,,,,,,,,,,,,,,,,,masks/mask_001.jpg,,,,,,,,,,,,,,,,,,,,,,,,,,,,,,,,,,,,,,,,,,,,,,,,0,1,1,0,1,,,,,,,,,,,,,,,,,,,,,,,,,,,,,,,,,,,,,,,,,
037791,001,2022-11-20_17h49.40.187,Info_measure_main_exp,2022.2.2,Win32,59.95922773,,,,,,,,,,,,,,,,,,masks/mask_003.jpg,,,,,,,,,,,,,,,,,,,,,,,,,,,,,,,,,,,,,,,,,,,,,,,,0,2,2,2,1,,,,,,,,,,,,,,,,,,,,,,,,,,,,,,,,,,,,,,,,,
037791,001,2022-11-20_17h49.40.187,Info_measure_main_exp,2022.2.2,Win32,59.95922773,,,,,,,,,,,,,,,,,,masks/mask_002.jpg,,,,,,,,,,,,,,,,,,,,,,,,,,,,,,,,,,,,,,,,,,,,,,,,0,3,3,1,1,,,,,,,,,,,,,,,,,,,,,,,,,,,,,,,,,,,,,,,,,
037791,001,2022-11-20_17h49.40.187,Info_measure_main_exp,2022.2.2,Win32,59.95922773,,,,,,,,,,,,,,,,,,masks/mask_004.jpg,,,,,,,,,,,,,,,,,,,,,,,,,,,,,,,,,,,,,,,,,,,,,,,,0,4,4,3,1,,,,,,,,,,,,,,,,,,,,,,,,,,,,,,,,,,,,,,,,,
037791,001,2022-11-20_17h49.40.187,Info_measure_main_exp,2022.2.2,Win32,59.95922773,,,,,,,,,,,,,,,,,,,,,,,,,,,,,,4,1.6999,1,,,,,,,,,,,,0,131,5,5,2178,2142,absent_patch/patch0002178.jpg,absent_patch/patch0002142.jpg,,,,,,,,,,,,,,,,,,,,0.076851852,-0.108333333,1,0,0,response3disk,8,0.005555556,-0.012962963,1,0,0,center_square,0,7,7,41,1,,,,,,,,,,,,,,,,,,,,,,,
037791,001,2022-11-20_17h49.40.187,Info_measure_main_exp,2022.2.2,Win32,59.95922773,,,,,,,,,,,,,,,,,,masks/mask_001.jpg,,,,,,,,,,,,,,,,,,,,,,,,,,,,,,,,,,,,,,,,,,,0,0,0,0,1,,,,,,,,,,,,,,,,,,,,,,,,,,,,,,,,,,,,,,,,,,,,,,
037791,001,2022-11-20_17h49.40.187,Info_measure_main_exp,2022.2.2,Win32,59.95922773,,,,,,,,,,,,,,,,,,masks/mask_004.jpg,,,,,,,,,,,,,,,,,,,,,,,,,,,,,,,,,,,,,,,,,,,0,1,1,3,1,,,,,,,,,,,,,,,,,,,,,,,,,,,,,,,,,,,,,,,,,,,,,,
037791,001,2022-11-20_17h49.40.187,Info_measure_main_exp,2022.2.2,Win32,59.95922773,,,,,,,,,,,,,,,,,,masks/mask_005.jpg,,,,,,,,,,,,,,,,,,,,,,,,,,,,,,,,,,,,,,,,,,,0,2,2,4,1,,,,,,,,,,,,,,,,,,,,,,,,,,,,,,,,,,,,,,,,,,,,,,
037791,001,2022-11-20_17h49.40.187,Info_measure_main_exp,2022.2.2,Win32,59.95922773,,,,,,,,,,,,,,,,,,masks/mask_002.jpg,,,,,,,,,,,,,,,,,,,,,,,,,,,,,,,,,,,,,,,,,,,0,3,3,1,1,,,,,,,,,,,,,,,,,,,,,,,,,,,,,,,,,,,,,,,,,,,,,,
037791,001,2022-11-20_17h49.40.187,Info_measure_main_exp,2022.2.2,Win32,59.95922773,,,,,,,,,,,,,,,,,,masks/mask_003.jpg,,,,,,,,,,,,,,,,,,,,,,,,,,,,,,,,,,,,,,,,,,,0,4,4,2,1,,,,,,,,,,,,,,,,,,,,,,,,,,,,,,,,,,,,,,,,,,,,,,
037791,001,2022-11-20_17h49.40.187,Info_measure_main_exp,2022.2.2,Win32,59.95922773,,,,,,,,,,,,,,,,,,masks/mask_003.jpg,,,,,,,,,,,,,,,,,,,,,,,,,,,,,,,,,,,,,,,,,,,,,,,,0,0,0,2,1,,,,,,,,,,,,,,,,,,,,,,,,,,,,,,,,,,,,,,,,,
037791,001,2022-11-20_17h49.40.187,Info_measure_main_exp,2022.2.2,Win32,59.95922773,,,,,,,,,,,,,,,,,,masks/mask_004.jpg,,,,,,,,,,,,,,,,,,,,,,,,,,,,,,,,,,,,,,,,,,,,,,,,0,1,1,3,1,,,,,,,,,,,,,,,,,,,,,,,,,,,,,,,,,,,,,,,,,
037791,001,2022-11-20_17h49.40.187,Info_measure_main_exp,2022.2.2,Win32,59.95922773,,,,,,,,,,,,,,,,,,masks/mask_001.jpg,,,,,,,,,,,,,,,,,,,,,,,,,,,,,,,,,,,,,,,,,,,,,,,,0,2,2,0,1,,,,,,,,,,,,,,,,,,,,,,,,,,,,,,,,,,,,,,,,,
037791,001,2022-11-20_17h49.40.187,Info_measure_main_exp,2022.2.2,Win32,59.95922773,,,,,,,,,,,,,,,,,,masks/mask_002.jpg,,,,,,,,,,,,,,,,,,,,,,,,,,,,,,,,,,,,,,,,,,,,,,,,0,3,3,1,1,,,,,,,,,,,,,,,,,,,,,,,,,,,,,,,,,,,,,,,,,
037791,001,2022-11-20_17h49.40.187,Info_measure_main_exp,2022.2.2,Win32,59.95922773,,,,,,,,,,,,,,,,,,masks/mask_005.jpg,,,,,,,,,,,,,,,,,,,,,,,,,,,,,,,,,,,,,,,,,,,,,,,,0,4,4,4,1,,,,,,,,,,,,,,,,,,,,,,,,,,,,,,,,,,,,,,,,,
037791,001,2022-11-20_17h49.40.187,Info_measure_main_exp,2022.2.2,Win32,59.95922773,,,,,,,,,,,,,,,,,,,,,,,,,,,,,,7,0.9667,1,,,,,,,,,,,,0,131,5,5,2154,2250,absent_patch/patch0002154.jpg,absent_patch/patch0002250.jpg,,,,,,,,,,,,,,,,,,,,0.02962963,0.099074074,1,0,0,response1disk,9,0.00462963,-0.003703704,1,0,0,center_square,0,8,8,108,1,,,,,,,,,,,,,,,,,,,,,,,
037791,001,2022-11-20_17h49.40.187,Info_measure_main_exp,2022.2.2,Win32,59.95922773,,,,,,,,,,,,,,,,,,masks/mask_003.jpg,,,,,,,,,,,,,,,,,,,,,,,,,,,,,,,,,,,,,,,,,,,0,0,0,2,1,,,,,,,,,,,,,,,,,,,,,,,,,,,,,,,,,,,,,,,,,,,,,,
037791,001,2022-11-20_17h49.40.187,Info_measure_main_exp,2022.2.2,Win32,59.95922773,,,,,,,,,,,,,,,,,,masks/mask_001.jpg,,,,,,,,,,,,,,,,,,,,,,,,,,,,,,,,,,,,,,,,,,,0,1,1,0,1,,,,,,,,,,,,,,,,,,,,,,,,,,,,,,,,,,,,,,,,,,,,,,
037791,001,2022-11-20_17h49.40.187,Info_measure_main_exp,2022.2.2,Win32,59.95922773,,,,,,,,,,,,,,,,,,masks/mask_004.jpg,,,,,,,,,,,,,,,,,,,,,,,,,,,,,,,,,,,,,,,,,,,0,2,2,3,1,,,,,,,,,,,,,,,,,,,,,,,,,,,,,,,,,,,,,,,,,,,,,,
037791,001,2022-11-20_17h49.40.187,Info_measure_main_exp,2022.2.2,Win32,59.95922773,,,,,,,,,,,,,,,,,,masks/mask_005.jpg,,,,,,,,,,,,,,,,,,,,,,,,,,,,,,,,,,,,,,,,,,,0,3,3,4,1,,,,,,,,,,,,,,,,,,,,,,,,,,,,,,,,,,,,,,,,,,,,,,
037791,001,2022-11-20_17h49.40.187,Info_measure_main_exp,2022.2.2,Win32,59.95922773,,,,,,,,,,,,,,,,,,masks/mask_002.jpg,,,,,,,,,,,,,,,,,,,,,,,,,,,,,,,,,,,,,,,,,,,0,4,4,1,1,,,,,,,,,,,,,,,,,,,,,,,,,,,,,,,,,,,,,,,,,,,,,,
037791,001,2022-11-20_17h49.40.187,Info_measure_main_exp,2022.2.2,Win32,59.95922773,,,,,,,,,,,,,,,,,,masks/mask_005.jpg,,,,,,,,,,,,,,,,,,,,,,,,,,,,,,,,,,,,,,,,,,,,,,,,0,0,0,4,1,,,,,,,,,,,,,,,,,,,,,,,,,,,,,,,,,,,,,,,,,
037791,001,2022-11-20_17h49.40.187,Info_measure_main_exp,2022.2.2,Win32,59.95922773,,,,,,,,,,,,,,,,,,masks/mask_002.jpg,,,,,,,,,,,,,,,,,,,,,,,,,,,,,,,,,,,,,,,,,,,,,,,,0,1,1,1,1,,,,,,,,,,,,,,,,,,,,,,,,,,,,,,,,,,,,,,,,,
037791,001,2022-11-20_17h49.40.187,Info_measure_main_exp,2022.2.2,Win32,59.95922773,,,,,,,,,,,,,,,,,,masks/mask_004.jpg,,,,,,,,,,,,,,,,,,,,,,,,,,,,,,,,,,,,,,,,,,,,,,,,0,2,2,3,1,,,,,,,,,,,,,,,,,,,,,,,,,,,,,,,,,,,,,,,,,
037791,001,2022-11-20_17h49.40.187,Info_measure_main_exp,2022.2.2,Win32,59.95922773,,,,,,,,,,,,,,,,,,masks/mask_001.jpg,,,,,,,,,,,,,,,,,,,,,,,,,,,,,,,,,,,,,,,,,,,,,,,,0,3,3,0,1,,,,,,,,,,,,,,,,,,,,,,,,,,,,,,,,,,,,,,,,,
037791,001,2022-11-20_17h49.40.187,Info_measure_main_exp,2022.2.2,Win32,59.95922773,,,,,,,,,,,,,,,,,,masks/mask_003.jpg,,,,,,,,,,,,,,,,,,,,,,,,,,,,,,,,,,,,,,,,,,,,,,,,0,4,4,2,1,,,,,,,,,,,,,,,,,,,,,,,,,,,,,,,,,,,,,,,,,
037791,001,2022-11-20_17h49.40.187,Info_measure_main_exp,2022.2.2,Win32,59.95922773,,,,,,,,,,,,,,,,,,,,,,,,,,,,,,6,1.3332,1,,,,,,,,,,,,0,131,5,5,2274,2214,absent_patch/patch0002274.jpg,absent_patch/patch0002214.jpg,,,,,,,,,,,,,,,,,,,,0.056481481,0.02962963,1,0,0,response1disk,10,0.011111111,0.000925926,1,0,0,center_square,0,9,9,11,1,,,,,,,,,,,,,,,,,,,,,,,
037791,001,2022-11-20_17h49.40.187,Info_measure_main_exp,2022.2.2,Win32,59.95922773,,,,,,,,,,,,,,,,,,masks/mask_003.jpg,,,,,,,,,,,,,,,,,,,,,,,,,,,,,,,,,,,,,,,,,,,0,0,0,2,1,,,,,,,,,,,,,,,,,,,,,,,,,,,,,,,,,,,,,,,,,,,,,,
037791,001,2022-11-20_17h49.40.187,Info_measure_main_exp,2022.2.2,Win32,59.95922773,,,,,,,,,,,,,,,,,,masks/mask_004.jpg,,,,,,,,,,,,,,,,,,,,,,,,,,,,,,,,,,,,,,,,,,,0,1,1,3,1,,,,,,,,,,,,,,,,,,,,,,,,,,,,,,,,,,,,,,,,,,,,,,
037791,001,2022-11-20_17h49.40.187,Info_measure_main_exp,2022.2.2,Win32,59.95922773,,,,,,,,,,,,,,,,,,masks/mask_001.jpg,,,,,,,,,,,,,,,,,,,,,,,,,,,,,,,,,,,,,,,,,,,0,2,2,0,1,,,,,,,,,,,,,,,,,,,,,,,,,,,,,,,,,,,,,,,,,,,,,,
037791,001,2022-11-20_17h49.40.187,Info_measure_main_exp,2022.2.2,Win32,59.95922773,,,,,,,,,,,,,,,,,,masks/mask_005.jpg,,,,,,,,,,,,,,,,,,,,,,,,,,,,,,,,,,,,,,,,,,,0,3,3,4,1,,,,,,,,,,,,,,,,,,,,,,,,,,,,,,,,,,,,,,,,,,,,,,
037791,001,2022-11-20_17h49.40.187,Info_measure_main_exp,2022.2.2,Win32,59.95922773,,,,,,,,,,,,,,,,,,masks/mask_002.jpg,,,,,,,,,,,,,,,,,,,,,,,,,,,,,,,,,,,,,,,,,,,0,4,4,1,1,,,,,,,,,,,,,,,,,,,,,,,,,,,,,,,,,,,,,,,,,,,,,,
037791,001,2022-11-20_17h49.40.187,Info_measure_main_exp,2022.2.2,Win32,59.95922773,,,,,,,,,,,,,,,,,,masks/mask_003.jpg,,,,,,,,,,,,,,,,,,,,,,,,,,,,,,,,,,,,,,,,,,,,,,,,0,0,0,2,1,,,,,,,,,,,,,,,,,,,,,,,,,,,,,,,,,,,,,,,,,
037791,001,2022-11-20_17h49.40.187,Info_measure_main_exp,2022.2.2,Win32,59.95922773,,,,,,,,,,,,,,,,,,masks/mask_004.jpg,,,,,,,,,,,,,,,,,,,,,,,,,,,,,,,,,,,,,,,,,,,,,,,,0,1,1,3,1,,,,,,,,,,,,,,,,,,,,,,,,,,,,,,,,,,,,,,,,,
037791,001,2022-11-20_17h49.40.187,Info_measure_main_exp,2022.2.2,Win32,59.95922773,,,,,,,,,,,,,,,,,,masks/mask_002.jpg,,,,,,,,,,,,,,,,,,,,,,,,,,,,,,,,,,,,,,,,,,,,,,,,0,2,2,1,1,,,,,,,,,,,,,,,,,,,,,,,,,,,,,,,,,,,,,,,,,
037791,001,2022-11-20_17h49.40.187,Info_measure_main_exp,2022.2.2,Win32,59.95922773,,,,,,,,,,,,,,,,,,masks/mask_005.jpg,,,,,,,,,,,,,,,,,,,,,,,,,,,,,,,,,,,,,,,,,,,,,,,,0,3,3,4,1,,,,,,,,,,,,,,,,,,,,,,,,,,,,,,,,,,,,,,,,,
037791,001,2022-11-20_17h49.40.187,Info_measure_main_exp,2022.2.2,Win32,59.95922773,,,,,,,,,,,,,,,,,,masks/mask_001.jpg,,,,,,,,,,,,,,,,,,,,,,,,,,,,,,,,,,,,,,,,,,,,,,,,0,4,4,0,1,,,,,,,,,,,,,,,,,,,,,,,,,,,,,,,,,,,,,,,,,
037791,001,2022-11-20_17h49.40.187,Info_measure_main_exp,2022.2.2,Win32,59.95922773,,,,,,,,,,,,,,,,,,,,,,,,,,,,,,1,1.7833,1,,,,,,,,,,,,0,131,5,5,1974,1950,absent_patch/patch0001974.jpg,absent_patch/patch0001950.jpg,,,,,,,,,,,,,,,,,,,,-0.030555556,0.02962963,1,0,0,response7disk,11,0.001851852,0.00462963,1,0,0,center_square,0,10,10,17,1,,,,,,,,,,,,,,,,,,,,,,,
037791,001,2022-11-20_17h49.40.187,Info_measure_main_exp,2022.2.2,Win32,59.95922773,,,,,,,,,,,,,,,,,,masks/mask_004.jpg,,,,,,,,,,,,,,,,,,,,,,,,,,,,,,,,,,,,,,,,,,,0,0,0,3,1,,,,,,,,,,,,,,,,,,,,,,,,,,,,,,,,,,,,,,,,,,,,,,
037791,001,2022-11-20_17h49.40.187,Info_measure_main_exp,2022.2.2,Win32,59.95922773,,,,,,,,,,,,,,,,,,masks/mask_002.jpg,,,,,,,,,,,,,,,,,,,,,,,,,,,,,,,,,,,,,,,,,,,0,1,1,1,1,,,,,,,,,,,,,,,,,,,,,,,,,,,,,,,,,,,,,,,,,,,,,,
037791,001,2022-11-20_17h49.40.187,Info_measure_main_exp,2022.2.2,Win32,59.95922773,,,,,,,,,,,,,,,,,,masks/mask_003.jpg,,,,,,,,,,,,,,,,,,,,,,,,,,,,,,,,,,,,,,,,,,,0,2,2,2,1,,,,,,,,,,,,,,,,,,,,,,,,,,,,,,,,,,,,,,,,,,,,,,
037791,001,2022-11-20_17h49.40.187,Info_measure_main_exp,2022.2.2,Win32,59.95922773,,,,,,,,,,,,,,,,,,masks/mask_001.jpg,,,,,,,,,,,,,,,,,,,,,,,,,,,,,,,,,,,,,,,,,,,0,3,3,0,1,,,,,,,,,,,,,,,,,,,,,,,,,,,,,,,,,,,,,,,,,,,,,,
037791,001,2022-11-20_17h49.40.187,Info_measure_main_exp,2022.2.2,Win32,59.95922773,,,,,,,,,,,,,,,,,,masks/mask_005.jpg,,,,,,,,,,,,,,,,,,,,,,,,,,,,,,,,,,,,,,,,,,,0,4,4,4,1,,,,,,,,,,,,,,,,,,,,,,,,,,,,,,,,,,,,,,,,,,,,,,
037791,001,2022-11-20_17h49.40.187,Info_measure_main_exp,2022.2.2,Win32,59.95922773,,,,,,,,,,,,,,,,,,masks/mask_003.jpg,,,,,,,,,,,,,,,,,,,,,,,,,,,,,,,,,,,,,,,,,,,,,,,,0,0,0,2,1,,,,,,,,,,,,,,,,,,,,,,,,,,,,,,,,,,,,,,,,,
037791,001,2022-11-20_17h49.40.187,Info_measure_main_exp,2022.2.2,Win32,59.95922773,,,,,,,,,,,,,,,,,,masks/mask_005.jpg,,,,,,,,,,,,,,,,,,,,,,,,,,,,,,,,,,,,,,,,,,,,,,,,0,1,1,4,1,,,,,,,,,,,,,,,,,,,,,,,,,,,,,,,,,,,,,,,,,
037791,001,2022-11-20_17h49.40.187,Info_measure_main_exp,2022.2.2,Win32,59.95922773,,,,,,,,,,,,,,,,,,masks/mask_002.jpg,,,,,,,,,,,,,,,,,,,,,,,,,,,,,,,,,,,,,,,,,,,,,,,,0,2,2,1,1,,,,,,,,,,,,,,,,,,,,,,,,,,,,,,,,,,,,,,,,,
037791,001,2022-11-20_17h49.40.187,Info_measure_main_exp,2022.2.2,Win32,59.95922773,,,,,,,,,,,,,,,,,,masks/mask_001.jpg,,,,,,,,,,,,,,,,,,,,,,,,,,,,,,,,,,,,,,,,,,,,,,,,0,3,3,0,1,,,,,,,,,,,,,,,,,,,,,,,,,,,,,,,,,,,,,,,,,
037791,001,2022-11-20_17h49.40.187,Info_measure_main_exp,2022.2.2,Win32,59.95922773,,,,,,,,,,,,,,,,,,masks/mask_004.jpg,,,,,,,,,,,,,,,,,,,,,,,,,,,,,,,,,,,,,,,,,,,,,,,,0,4,4,3,1,,,,,,,,,,,,,,,,,,,,,,,,,,,,,,,,,,,,,,,,,
037791,001,2022-11-20_17h49.40.187,Info_measure_main_exp,2022.2.2,Win32,59.95922773,,,,,,,,,,,,,,,,,,,,,,,,,,,,,,6,1.3164,1,,,,,,,,,,,,0,131,5,5,1974,2142,absent_patch/patch0001974.jpg,absent_patch/patch0002142.jpg,,,,,,,,,,,,,,,,,,,,0.062037037,0.00462963,1,0,0,response1disk,12,0.009259259,0.006481481,1,0,0,center_square,0,11,11,38,1,,,,,,,,,,,,,,,,,,,,,,,
037791,001,2022-11-20_17h49.40.187,Info_measure_main_exp,2022.2.2,Win32,59.95922773,,,,,,,,,,,,,,,,,,masks/mask_004.jpg,,,,,,,,,,,,,,,,,,,,,,,,,,,,,,,,,,,,,,,,,,,0,0,0,3,1,,,,,,,,,,,,,,,,,,,,,,,,,,,,,,,,,,,,,,,,,,,,,,
037791,001,2022-11-20_17h49.40.187,Info_measure_main_exp,2022.2.2,Win32,59.95922773,,,,,,,,,,,,,,,,,,masks/mask_005.jpg,,,,,,,,,,,,,,,,,,,,,,,,,,,,,,,,,,,,,,,,,,,0,1,1,4,1,,,,,,,,,,,,,,,,,,,,,,,,,,,,,,,,,,,,,,,,,,,,,,
037791,001,2022-11-20_17h49.40.187,Info_measure_main_exp,2022.2.2,Win32,59.95922773,,,,,,,,,,,,,,,,,,masks/mask_002.jpg,,,,,,,,,,,,,,,,,,,,,,,,,,,,,,,,,,,,,,,,,,,0,2,2,1,1,,,,,,,,,,,,,,,,,,,,,,,,,,,,,,,,,,,,,,,,,,,,,,
037791,001,2022-11-20_17h49.40.187,Info_measure_main_exp,2022.2.2,Win32,59.95922773,,,,,,,,,,,,,,,,,,masks/mask_001.jpg,,,,,,,,,,,,,,,,,,,,,,,,,,,,,,,,,,,,,,,,,,,0,3,3,0,1,,,,,,,,,,,,,,,,,,,,,,,,,,,,,,,,,,,,,,,,,,,,,,
037791,001,2022-11-20_17h49.40.187,Info_measure_main_exp,2022.2.2,Win32,59.95922773,,,,,,,,,,,,,,,,,,masks/mask_003.jpg,,,,,,,,,,,,,,,,,,,,,,,,,,,,,,,,,,,,,,,,,,,0,4,4,2,1,,,,,,,,,,,,,,,,,,,,,,,,,,,,,,,,,,,,,,,,,,,,,,
037791,001,2022-11-20_17h49.40.187,Info_measure_main_exp,2022.2.2,Win32,59.95922773,,,,,,,,,,,,,,,,,,masks/mask_003.jpg,,,,,,,,,,,,,,,,,,,,,,,,,,,,,,,,,,,,,,,,,,,,,,,,0,0,0,2,1,,,,,,,,,,,,,,,,,,,,,,,,,,,,,,,,,,,,,,,,,
037791,001,2022-11-20_17h49.40.187,Info_measure_main_exp,2022.2.2,Win32,59.95922773,,,,,,,,,,,,,,,,,,masks/mask_005.jpg,,,,,,,,,,,,,,,,,,,,,,,,,,,,,,,,,,,,,,,,,,,,,,,,0,1,1,4,1,,,,,,,,,,,,,,,,,,,,,,,,,,,,,,,,,,,,,,,,,
037791,001,2022-11-20_17h49.40.187,Info_measure_main_exp,2022.2.2,Win32,59.95922773,,,,,,,,,,,,,,,,,,masks/mask_004.jpg,,,,,,,,,,,,,,,,,,,,,,,,,,,,,,,,,,,,,,,,,,,,,,,,0,2,2,3,1,,,,,,,,,,,,,,,,,,,,,,,,,,,,,,,,,,,,,,,,,
037791,001,2022-11-20_17h49.40.187,Info_measure_main_exp,2022.2.2,Win32,59.95922773,,,,,,,,,,,,,,,,,,masks/mask_002.jpg,,,,,,,,,,,,,,,,,,,,,,,,,,,,,,,,,,,,,,,,,,,,,,,,0,3,3,1,1,,,,,,,,,,,,,,,,,,,,,,,,,,,,,,,,,,,,,,,,,
037791,001,2022-11-20_17h49.40.187,Info_measure_main_exp,2022.2.2,Win32,59.95922773,,,,,,,,,,,,,,,,,,masks/mask_001.jpg,,,,,,,,,,,,,,,,,,,,,,,,,,,,,,,,,,,,,,,,,,,,,,,,0,4,4,0,1,,,,,,,,,,,,,,,,,,,,,,,,,,,,,,,,,,,,,,,,,
037791,001,2022-11-20_17h49.40.187,Info_measure_main_exp,2022.2.2,Win32,59.95922773,,,,,,,,,,,,,,,,,,,,,,,,,,,,,,3,1.9333,1,,,,,,,,,,,,0,131,5,5,2238,2166,absent_patch/patch0002238.jpg,absent_patch/patch0002166.jpg,,,,,,,,,,,,,,,,,,,,-0.011111111,-0.037962963,1,0,0,response5disk,13,-0.007407407,-0.00462963,1,0,0,center_square,0,12,12,118,1,,,,,,,,,,,,,,,,,,,,,,,
037791,001,2022-11-20_17h49.40.187,Info_measure_main_exp,2022.2.2,Win32,59.95922773,,,,,,,,,,,,,,,,,,masks/mask_005.jpg,,,,,,,,,,,,,,,,,,,,,,,,,,,,,,,,,,,,,,,,,,,0,0,0,4,1,,,,,,,,,,,,,,,,,,,,,,,,,,,,,,,,,,,,,,,,,,,,,,
037791,001,2022-11-20_17h49.40.187,Info_measure_main_exp,2022.2.2,Win32,59.95922773,,,,,,,,,,,,,,,,,,masks/mask_003.jpg,,,,,,,,,,,,,,,,,,,,,,,,,,,,,,,,,,,,,,,,,,,0,1,1,2,1,,,,,,,,,,,,,,,,,,,,,,,,,,,,,,,,,,,,,,,,,,,,,,
037791,001,2022-11-20_17h49.40.187,Info_measure_main_exp,2022.2.2,Win32,59.95922773,,,,,,,,,,,,,,,,,,masks/mask_001.jpg,,,,,,,,,,,,,,,,,,,,,,,,,,,,,,,,,,,,,,,,,,,0,2,2,0,1,,,,,,,,,,,,,,,,,,,,,,,,,,,,,,,,,,,,,,,,,,,,,,
037791,001,2022-11-20_17h49.40.187,Info_measure_main_exp,2022.2.2,Win32,59.95922773,,,,,,,,,,,,,,,,,,masks/mask_002.jpg,,,,,,,,,,,,,,,,,,,,,,,,,,,,,,,,,,,,,,,,,,,0,3,3,1,1,,,,,,,,,,,,,,,,,,,,,,,,,,,,,,,,,,,,,,,,,,,,,,
037791,001,2022-11-20_17h49.40.187,Info_measure_main_exp,2022.2.2,Win32,59.95922773,,,,,,,,,,,,,,,,,,masks/mask_004.jpg,,,,,,,,,,,,,,,,,,,,,,,,,,,,,,,,,,,,,,,,,,,0,4,4,3,1,,,,,,,,,,,,,,,,,,,,,,,,,,,,,,,,,,,,,,,,,,,,,,
037791,001,2022-11-20_17h49.40.187,Info_measure_main_exp,2022.2.2,Win32,59.95922773,,,,,,,,,,,,,,,,,,masks/mask_001.jpg,,,,,,,,,,,,,,,,,,,,,,,,,,,,,,,,,,,,,,,,,,,,,,,,0,0,0,0,1,,,,,,,,,,,,,,,,,,,,,,,,,,,,,,,,,,,,,,,,,
037791,001,2022-11-20_17h49.40.187,Info_measure_main_exp,2022.2.2,Win32,59.95922773,,,,,,,,,,,,,,,,,,masks/mask_005.jpg,,,,,,,,,,,,,,,,,,,,,,,,,,,,,,,,,,,,,,,,,,,,,,,,0,1,1,4,1,,,,,,,,,,,,,,,,,,,,,,,,,,,,,,,,,,,,,,,,,
037791,001,2022-11-20_17h49.40.187,Info_measure_main_exp,2022.2.2,Win32,59.95922773,,,,,,,,,,,,,,,,,,masks/mask_004.jpg,,,,,,,,,,,,,,,,,,,,,,,,,,,,,,,,,,,,,,,,,,,,,,,,0,2,2,3,1,,,,,,,,,,,,,,,,,,,,,,,,,,,,,,,,,,,,,,,,,
037791,001,2022-11-20_17h49.40.187,Info_measure_main_exp,2022.2.2,Win32,59.95922773,,,,,,,,,,,,,,,,,,masks/mask_002.jpg,,,,,,,,,,,,,,,,,,,,,,,,,,,,,,,,,,,,,,,,,,,,,,,,0,3,3,1,1,,,,,,,,,,,,,,,,,,,,,,,,,,,,,,,,,,,,,,,,,
037791,001,2022-11-20_17h49.40.187,Info_measure_main_exp,2022.2.2,Win32,59.95922773,,,,,,,,,,,,,,,,,,masks/mask_003.jpg,,,,,,,,,,,,,,,,,,,,,,,,,,,,,,,,,,,,,,,,,,,,,,,,0,4,4,2,1,,,,,,,,,,,,,,,,,,,,,,,,,,,,,,,,,,,,,,,,,
037791,001,2022-11-20_17h49.40.187,Info_measure_main_exp,2022.2.2,Win32,59.95922773,,,,,,,,,,,,,,,,,,,,,,,,,,,,,,0,0.75,1,,,,,,,,,,,,0,131,5,5,2250,2250,absent_patch/patch0002250.jpg,absent_patch/patch0002250.jpg,,,,,,,,,,,,,,,,,,,,-0.034259259,0.083333333,1,0,0,response7disk,14,-0.015740741,0.012962963,1,0,0,center_square,0,13,13,56,1,,,,,,,,,,,,,,,,,,,,,,,
037791,001,2022-11-20_17h49.40.187,Info_measure_main_exp,2022.2.2,Win32,59.95922773,,,,,,,,,,,,,,,,,,masks/mask_005.jpg,,,,,,,,,,,,,,,,,,,,,,,,,,,,,,,,,,,,,,,,,,,0,0,0,4,1,,,,,,,,,,,,,,,,,,,,,,,,,,,,,,,,,,,,,,,,,,,,,,
037791,001,2022-11-20_17h49.40.187,Info_measure_main_exp,2022.2.2,Win32,59.95922773,,,,,,,,,,,,,,,,,,masks/mask_003.jpg,,,,,,,,,,,,,,,,,,,,,,,,,,,,,,,,,,,,,,,,,,,0,1,1,2,1,,,,,,,,,,,,,,,,,,,,,,,,,,,,,,,,,,,,,,,,,,,,,,
037791,001,2022-11-20_17h49.40.187,Info_measure_main_exp,2022.2.2,Win32,59.95922773,,,,,,,,,,,,,,,,,,masks/mask_001.jpg,,,,,,,,,,,,,,,,,,,,,,,,,,,,,,,,,,,,,,,,,,,0,2,2,0,1,,,,,,,,,,,,,,,,,,,,,,,,,,,,,,,,,,,,,,,,,,,,,,
037791,001,2022-11-20_17h49.40.187,Info_measure_main_exp,2022.2.2,Win32,59.95922773,,,,,,,,,,,,,,,,,,masks/mask_004.jpg,,,,,,,,,,,,,,,,,,,,,,,,,,,,,,,,,,,,,,,,,,,0,3,3,3,1,,,,,,,,,,,,,,,,,,,,,,,,,,,,,,,,,,,,,,,,,,,,,,
037791,001,2022-11-20_17h49.40.187,Info_measure_main_exp,2022.2.2,Win32,59.95922773,,,,,,,,,,,,,,,,,,masks/mask_002.jpg,,,,,,,,,,,,,,,,,,,,,,,,,,,,,,,,,,,,,,,,,,,0,4,4,1,1,,,,,,,,,,,,,,,,,,,,,,,,,,,,,,,,,,,,,,,,,,,,,,
037791,001,2022-11-20_17h49.40.187,Info_measure_main_exp,2022.2.2,Win32,59.95922773,,,,,,,,,,,,,,,,,,masks/mask_001.jpg,,,,,,,,,,,,,,,,,,,,,,,,,,,,,,,,,,,,,,,,,,,,,,,,0,0,0,0,1,,,,,,,,,,,,,,,,,,,,,,,,,,,,,,,,,,,,,,,,,
037791,001,2022-11-20_17h49.40.187,Info_measure_main_exp,2022.2.2,Win32,59.95922773,,,,,,,,,,,,,,,,,,masks/mask_005.jpg,,,,,,,,,,,,,,,,,,,,,,,,,,,,,,,,,,,,,,,,,,,,,,,,0,1,1,4,1,,,,,,,,,,,,,,,,,,,,,,,,,,,,,,,,,,,,,,,,,
037791,001,2022-11-20_17h49.40.187,Info_measure_main_exp,2022.2.2,Win32,59.95922773,,,,,,,,,,,,,,,,,,masks/mask_003.jpg,,,,,,,,,,,,,,,,,,,,,,,,,,,,,,,,,,,,,,,,,,,,,,,,0,2,2,2,1,,,,,,,,,,,,,,,,,,,,,,,,,,,,,,,,,,,,,,,,,
037791,001,2022-11-20_17h49.40.187,Info_measure_main_exp,2022.2.2,Win32,59.95922773,,,,,,,,,,,,,,,,,,masks/mask_004.jpg,,,,,,,,,,,,,,,,,,,,,,,,,,,,,,,,,,,,,,,,,,,,,,,,0,3,3,3,1,,,,,,,,,,,,,,,,,,,,,,,,,,,,,,,,,,,,,,,,,
037791,001,2022-11-20_17h49.40.187,Info_measure_main_exp,2022.2.2,Win32,59.95922773,,,,,,,,,,,,,,,,,,masks/mask_002.jpg,,,,,,,,,,,,,,,,,,,,,,,,,,,,,,,,,,,,,,,,,,,,,,,,0,4,4,1,1,,,,,,,,,,,,,,,,,,,,,,,,,,,,,,,,,,,,,,,,,
037791,001,2022-11-20_17h49.40.187,Info_measure_main_exp,2022.2.2,Win32,59.95922773,,,,,,,,,,,,,,,,,,,,,,,,,,,,,,7,1.7169,1,,,,,,,,,,,,0,131,5,5,2178,2166,absent_patch/patch0002178.jpg,absent_patch/patch0002166.jpg,,,,,,,,,,,,,,,,,,,,0.041666667,0.063888889,1,0,0,response1disk,15,0.012037037,0.001851852,1,0,0,center_square,0,14,14,72,1,,,,,,,,,,,,,,,,,,,,,,,
037791,001,2022-11-20_17h49.40.187,Info_measure_main_exp,2022.2.2,Win32,59.95922773,,,,,,,,,,,,,,,,,,masks/mask_002.jpg,,,,,,,,,,,,,,,,,,,,,,,,,,,,,,,,,,,,,,,,,,,0,0,0,1,1,,,,,,,,,,,,,,,,,,,,,,,,,,,,,,,,,,,,,,,,,,,,,,
037791,001,2022-11-20_17h49.40.187,Info_measure_main_exp,2022.2.2,Win32,59.95922773,,,,,,,,,,,,,,,,,,masks/mask_001.jpg,,,,,,,,,,,,,,,,,,,,,,,,,,,,,,,,,,,,,,,,,,,0,1,1,0,1,,,,,,,,,,,,,,,,,,,,,,,,,,,,,,,,,,,,,,,,,,,,,,
037791,001,2022-11-20_17h49.40.187,Info_measure_main_exp,2022.2.2,Win32,59.95922773,,,,,,,,,,,,,,,,,,masks/mask_003.jpg,,,,,,,,,,,,,,,,,,,,,,,,,,,,,,,,,,,,,,,,,,,0,2,2,2,1,,,,,,,,,,,,,,,,,,,,,,,,,,,,,,,,,,,,,,,,,,,,,,
037791,001,2022-11-20_17h49.40.187,Info_measure_main_exp,2022.2.2,Win32,59.95922773,,,,,,,,,,,,,,,,,,masks/mask_004.jpg,,,,,,,,,,,,,,,,,,,,,,,,,,,,,,,,,,,,,,,,,,,0,3,3,3,1,,,,,,,,,,,,,,,,,,,,,,,,,,,,,,,,,,,,,,,,,,,,,,
037791,001,2022-11-20_17h49.40.187,Info_measure_main_exp,2022.2.2,Win32,59.95922773,,,,,,,,,,,,,,,,,,masks/mask_005.jpg,,,,,,,,,,,,,,,,,,,,,,,,,,,,,,,,,,,,,,,,,,,0,4,4,4,1,,,,,,,,,,,,,,,,,,,,,,,,,,,,,,,,,,,,,,,,,,,,,,
037791,001,2022-11-20_17h49.40.187,Info_measure_main_exp,2022.2.2,Win32,59.95922773,,,,,,,,,,,,,,,,,,masks/mask_005.jpg,,,,,,,,,,,,,,,,,,,,,,,,,,,,,,,,,,,,,,,,,,,,,,,,0,0,0,4,1,,,,,,,,,,,,,,,,,,,,,,,,,,,,,,,,,,,,,,,,,
037791,001,2022-11-20_17h49.40.187,Info_measure_main_exp,2022.2.2,Win32,59.95922773,,,,,,,,,,,,,,,,,,masks/mask_004.jpg,,,,,,,,,,,,,,,,,,,,,,,,,,,,,,,,,,,,,,,,,,,,,,,,0,1,1,3,1,,,,,,,,,,,,,,,,,,,,,,,,,,,,,,,,,,,,,,,,,
037791,001,2022-11-20_17h49.40.187,Info_measure_main_exp,2022.2.2,Win32,59.95922773,,,,,,,,,,,,,,,,,,masks/mask_001.jpg,,,,,,,,,,,,,,,,,,,,,,,,,,,,,,,,,,,,,,,,,,,,,,,,0,2,2,0,1,,,,,,,,,,,,,,,,,,,,,,,,,,,,,,,,,,,,,,,,,
037791,001,2022-11-20_17h49.40.187,Info_measure_main_exp,2022.2.2,Win32,59.95922773,,,,,,,,,,,,,,,,,,masks/mask_002.jpg,,,,,,,,,,,,,,,,,,,,,,,,,,,,,,,,,,,,,,,,,,,,,,,,0,3,3,1,1,,,,,,,,,,,,,,,,,,,,,,,,,,,,,,,,,,,,,,,,,
037791,001,2022-11-20_17h49.40.187,Info_measure_main_exp,2022.2.2,Win32,59.95922773,,,,,,,,,,,,,,,,,,masks/mask_003.jpg,,,,,,,,,,,,,,,,,,,,,,,,,,,,,,,,,,,,,,,,,,,,,,,,0,4,4,2,1,,,,,,,,,,,,,,,,,,,,,,,,,,,,,,,,,,,,,,,,,
037791,001,2022-11-20_17h49.40.187,Info_measure_main_exp,2022.2.2,Win32,59.95922773,,,,,,,,,,,,,,,,,,,,,,,,,,,,,,0,0.5998,1,,,,,,,,,,,,0,131,5,5,1974,1974,absent_patch/patch0001974.jpg,absent_patch/patch0001974.jpg,,,,,,,,,,,,,,,,,,,,-0.041666667,0.091666667,1,0,0,response7disk,16,-0.011111111,0.000925926,1,0,0,center_square,0,15,15,113,1,,,,,,,,,,,,,,,,,,,,,,,
037791,001,2022-11-20_17h49.40.187,Info_measure_main_exp,2022.2.2,Win32,59.95922773,,,,,,,,,,,,,,,,,,masks/mask_001.jpg,,,,,,,,,,,,,,,,,,,,,,,,,,,,,,,,,,,,,,,,,,,0,0,0,0,1,,,,,,,,,,,,,,,,,,,,,,,,,,,,,,,,,,,,,,,,,,,,,,
037791,001,2022-11-20_17h49.40.187,Info_measure_main_exp,2022.2.2,Win32,59.95922773,,,,,,,,,,,,,,,,,,masks/mask_002.jpg,,,,,,,,,,,,,,,,,,,,,,,,,,,,,,,,,,,,,,,,,,,0,1,1,1,1,,,,,,,,,,,,,,,,,,,,,,,,,,,,,,,,,,,,,,,,,,,,,,
037791,001,2022-11-20_17h49.40.187,Info_measure_main_exp,2022.2.2,Win32,59.95922773,,,,,,,,,,,,,,,,,,masks/mask_005.jpg,,,,,,,,,,,,,,,,,,,,,,,,,,,,,,,,,,,,,,,,,,,0,2,2,4,1,,,,,,,,,,,,,,,,,,,,,,,,,,,,,,,,,,,,,,,,,,,,,,
037791,001,2022-11-20_17h49.40.187,Info_measure_main_exp,2022.2.2,Win32,59.95922773,,,,,,,,,,,,,,,,,,masks/mask_003.jpg,,,,,,,,,,,,,,,,,,,,,,,,,,,,,,,,,,,,,,,,,,,0,3,3,2,1,,,,,,,,,,,,,,,,,,,,,,,,,,,,,,,,,,,,,,,,,,,,,,
037791,001,2022-11-20_17h49.40.187,Info_measure_main_exp,2022.2.2,Win32,59.95922773,,,,,,,,,,,,,,,,,,masks/mask_004.jpg,,,,,,,,,,,,,,,,,,,,,,,,,,,,,,,,,,,,,,,,,,,0,4,4,3,1,,,,,,,,,,,,,,,,,,,,,,,,,,,,,,,,,,,,,,,,,,,,,,
037791,001,2022-11-20_17h49.40.187,Info_measure_main_exp,2022.2.2,Win32,59.95922773,,,,,,,,,,,,,,,,,,masks/mask_001.jpg,,,,,,,,,,,,,,,,,,,,,,,,,,,,,,,,,,,,,,,,,,,,,,,,0,0,0,0,1,,,,,,,,,,,,,,,,,,,,,,,,,,,,,,,,,,,,,,,,,
037791,001,2022-11-20_17h49.40.187,Info_measure_main_exp,2022.2.2,Win32,59.95922773,,,,,,,,,,,,,,,,,,masks/mask_004.jpg,,,,,,,,,,,,,,,,,,,,,,,,,,,,,,,,,,,,,,,,,,,,,,,,0,1,1,3,1,,,,,,,,,,,,,,,,,,,,,,,,,,,,,,,,,,,,,,,,,
037791,001,2022-11-20_17h49.40.187,Info_measure_main_exp,2022.2.2,Win32,59.95922773,,,,,,,,,,,,,,,,,,masks/mask_003.jpg,,,,,,,,,,,,,,,,,,,,,,,,,,,,,,,,,,,,,,,,,,,,,,,,0,2,2,2,1,,,,,,,,,,,,,,,,,,,,,,,,,,,,,,,,,,,,,,,,,
037791,001,2022-11-20_17h49.40.187,Info_measure_main_exp,2022.2.2,Win32,59.95922773,,,,,,,,,,,,,,,,,,masks/mask_005.jpg,,,,,,,,,,,,,,,,,,,,,,,,,,,,,,,,,,,,,,,,,,,,,,,,0,3,3,4,1,,,,,,,,,,,,,,,,,,,,,,,,,,,,,,,,,,,,,,,,,
037791,001,2022-11-20_17h49.40.187,Info_measure_main_exp,2022.2.2,Win32,59.95922773,,,,,,,,,,,,,,,,,,masks/mask_002.jpg,,,,,,,,,,,,,,,,,,,,,,,,,,,,,,,,,,,,,,,,,,,,,,,,0,4,4,1,1,,,,,,,,,,,,,,,,,,,,,,,,,,,,,,,,,,,,,,,,,
037791,001,2022-11-20_17h49.40.187,Info_measure_main_exp,2022.2.2,Win32,59.95922773,,,,,,,,,,,,,,,,,,,,,,,,,,,,,,0,0.7164,1,,,,,,,,,,,,0,131,5,5,2298,2298,absent_patch/patch0002298.jpg,absent_patch/patch0002298.jpg,,,,,,,,,,,,,,,,,,,,-0.047222222,0.10462963,1,0,0,response7disk,17,-0.003703704,0.007407407,1,0,0,center_square,0,16,16,37,1,,,,,,,,,,,,,,,,,,,,,,,
037791,001,2022-11-20_17h49.40.187,Info_measure_main_exp,2022.2.2,Win32,59.95922773,,,,,,,,,,,,,,,,,,masks/mask_004.jpg,,,,,,,,,,,,,,,,,,,,,,,,,,,,,,,,,,,,,,,,,,,0,0,0,3,1,,,,,,,,,,,,,,,,,,,,,,,,,,,,,,,,,,,,,,,,,,,,,,
037791,001,2022-11-20_17h49.40.187,Info_measure_main_exp,2022.2.2,Win32,59.95922773,,,,,,,,,,,,,,,,,,masks/mask_002.jpg,,,,,,,,,,,,,,,,,,,,,,,,,,,,,,,,,,,,,,,,,,,0,1,1,1,1,,,,,,,,,,,,,,,,,,,,,,,,,,,,,,,,,,,,,,,,,,,,,,
037791,001,2022-11-20_17h49.40.187,Info_measure_main_exp,2022.2.2,Win32,59.95922773,,,,,,,,,,,,,,,,,,masks/mask_001.jpg,,,,,,,,,,,,,,,,,,,,,,,,,,,,,,,,,,,,,,,,,,,0,2,2,0,1,,,,,,,,,,,,,,,,,,,,,,,,,,,,,,,,,,,,,,,,,,,,,,
037791,001,2022-11-20_17h49.40.187,Info_measure_main_exp,2022.2.2,Win32,59.95922773,,,,,,,,,,,,,,,,,,masks/mask_005.jpg,,,,,,,,,,,,,,,,,,,,,,,,,,,,,,,,,,,,,,,,,,,0,3,3,4,1,,,,,,,,,,,,,,,,,,,,,,,,,,,,,,,,,,,,,,,,,,,,,,
037791,001,2022-11-20_17h49.40.187,Info_measure_main_exp,2022.2.2,Win32,59.95922773,,,,,,,,,,,,,,,,,,masks/mask_003.jpg,,,,,,,,,,,,,,,,,,,,,,,,,,,,,,,,,,,,,,,,,,,0,4,4,2,1,,,,,,,,,,,,,,,,,,,,,,,,,,,,,,,,,,,,,,,,,,,,,,
037791,001,2022-11-20_17h49.40.187,Info_measure_main_exp,2022.2.2,Win32,59.95922773,,,,,,,,,,,,,,,,,,masks/mask_005.jpg,,,,,,,,,,,,,,,,,,,,,,,,,,,,,,,,,,,,,,,,,,,,,,,,0,0,0,4,1,,,,,,,,,,,,,,,,,,,,,,,,,,,,,,,,,,,,,,,,,
037791,001,2022-11-20_17h49.40.187,Info_measure_main_exp,2022.2.2,Win32,59.95922773,,,,,,,,,,,,,,,,,,masks/mask_001.jpg,,,,,,,,,,,,,,,,,,,,,,,,,,,,,,,,,,,,,,,,,,,,,,,,0,1,1,0,1,,,,,,,,,,,,,,,,,,,,,,,,,,,,,,,,,,,,,,,,,
037791,001,2022-11-20_17h49.40.187,Info_measure_main_exp,2022.2.2,Win32,59.95922773,,,,,,,,,,,,,,,,,,masks/mask_002.jpg,,,,,,,,,,,,,,,,,,,,,,,,,,,,,,,,,,,,,,,,,,,,,,,,0,2,2,1,1,,,,,,,,,,,,,,,,,,,,,,,,,,,,,,,,,,,,,,,,,
037791,001,2022-11-20_17h49.40.187,Info_measure_main_exp,2022.2.2,Win32,59.95922773,,,,,,,,,,,,,,,,,,masks/mask_004.jpg,,,,,,,,,,,,,,,,,,,,,,,,,,,,,,,,,,,,,,,,,,,,,,,,0,3,3,3,1,,,,,,,,,,,,,,,,,,,,,,,,,,,,,,,,,,,,,,,,,
037791,001,2022-11-20_17h49.40.187,Info_measure_main_exp,2022.2.2,Win32,59.95922773,,,,,,,,,,,,,,,,,,masks/mask_003.jpg,,,,,,,,,,,,,,,,,,,,,,,,,,,,,,,,,,,,,,,,,,,,,,,,0,4,4,2,1,,,,,,,,,,,,,,,,,,,,,,,,,,,,,,,,,,,,,,,,,
037791,001,2022-11-20_17h49.40.187,Info_measure_main_exp,2022.2.2,Win32,59.95922773,,,,,,,,,,,,,,,,,,,,,,,,,,,,,,3,2.8331,1,,,,,,,,,,,,0,131,5,5,1950,2178,absent_patch/patch0001950.jpg,absent_patch/patch0002178.jpg,,,,,,,,,,,,,,,,,,,,-0.048148148,-0.061111111,1,0,0,response5disk,18,-0.002777778,-0.010185185,1,0,0,center_square,0,17,17,61,1,,,,,,,,,,,,,,,,,,,,,,,
037791,001,2022-11-20_17h49.40.187,Info_measure_main_exp,2022.2.2,Win32,59.95922773,,,,,,,,,,,,,,,,,,masks/mask_002.jpg,,,,,,,,,,,,,,,,,,,,,,,,,,,,,,,,,,,,,,,,,,,0,0,0,1,1,,,,,,,,,,,,,,,,,,,,,,,,,,,,,,,,,,,,,,,,,,,,,,
037791,001,2022-11-20_17h49.40.187,Info_measure_main_exp,2022.2.2,Win32,59.95922773,,,,,,,,,,,,,,,,,,masks/mask_001.jpg,,,,,,,,,,,,,,,,,,,,,,,,,,,,,,,,,,,,,,,,,,,0,1,1,0,1,,,,,,,,,,,,,,,,,,,,,,,,,,,,,,,,,,,,,,,,,,,,,,
037791,001,2022-11-20_17h49.40.187,Info_measure_main_exp,2022.2.2,Win32,59.95922773,,,,,,,,,,,,,,,,,,masks/mask_005.jpg,,,,,,,,,,,,,,,,,,,,,,,,,,,,,,,,,,,,,,,,,,,0,2,2,4,1,,,,,,,,,,,,,,,,,,,,,,,,,,,,,,,,,,,,,,,,,,,,,,
037791,001,2022-11-20_17h49.40.187,Info_measure_main_exp,2022.2.2,Win32,59.95922773,,,,,,,,,,,,,,,,,,masks/mask_004.jpg,,,,,,,,,,,,,,,,,,,,,,,,,,,,,,,,,,,,,,,,,,,0,3,3,3,1,,,,,,,,,,,,,,,,,,,,,,,,,,,,,,,,,,,,,,,,,,,,,,
037791,001,2022-11-20_17h49.40.187,Info_measure_main_exp,2022.2.2,Win32,59.95922773,,,,,,,,,,,,,,,,,,masks/mask_003.jpg,,,,,,,,,,,,,,,,,,,,,,,,,,,,,,,,,,,,,,,,,,,0,4,4,2,1,,,,,,,,,,,,,,,,,,,,,,,,,,,,,,,,,,,,,,,,,,,,,,
037791,001,2022-11-20_17h49.40.187,Info_measure_main_exp,2022.2.2,Win32,59.95922773,,,,,,,,,,,,,,,,,,masks/mask_002.jpg,,,,,,,,,,,,,,,,,,,,,,,,,,,,,,,,,,,,,,,,,,,,,,,,0,0,0,1,1,,,,,,,,,,,,,,,,,,,,,,,,,,,,,,,,,,,,,,,,,
037791,001,2022-11-20_17h49.40.187,Info_measure_main_exp,2022.2.2,Win32,59.95922773,,,,,,,,,,,,,,,,,,masks/mask_004.jpg,,,,,,,,,,,,,,,,,,,,,,,,,,,,,,,,,,,,,,,,,,,,,,,,0,1,1,3,1,,,,,,,,,,,,,,,,,,,,,,,,,,,,,,,,,,,,,,,,,
037791,001,2022-11-20_17h49.40.187,Info_measure_main_exp,2022.2.2,Win32,59.95922773,,,,,,,,,,,,,,,,,,masks/mask_001.jpg,,,,,,,,,,,,,,,,,,,,,,,,,,,,,,,,,,,,,,,,,,,,,,,,0,2,2,0,1,,,,,,,,,,,,,,,,,,,,,,,,,,,,,,,,,,,,,,,,,
037791,001,2022-11-20_17h49.40.187,Info_measure_main_exp,2022.2.2,Win32,59.95922773,,,,,,,,,,,,,,,,,,masks/mask_005.jpg,,,,,,,,,,,,,,,,,,,,,,,,,,,,,,,,,,,,,,,,,,,,,,,,0,3,3,4,1,,,,,,,,,,,,,,,,,,,,,,,,,,,,,,,,,,,,,,,,,
037791,001,2022-11-20_17h49.40.187,Info_measure_main_exp,2022.2.2,Win32,59.95922773,,,,,,,,,,,,,,,,,,masks/mask_003.jpg,,,,,,,,,,,,,,,,,,,,,,,,,,,,,,,,,,,,,,,,,,,,,,,,0,4,4,2,1,,,,,,,,,,,,,,,,,,,,,,,,,,,,,,,,,,,,,,,,,
037791,001,2022-11-20_17h49.40.187,Info_measure_main_exp,2022.2.2,Win32,59.95922773,,,,,,,,,,,,,,,,,,,,,,,,,,,,,,4,1.4665,1,,,,,,,,,,,,0,131,5,5,2082,2298,absent_patch/patch0002082.jpg,absent_patch/patch0002298.jpg,,,,,,,,,,,,,,,,,,,,0.008333333,-0.047222222,1,0,0,response3disk,19,0.006481481,-0.012962963,1,0,0,center_square,0,18,18,107,1,,,,,,,,,,,,,,,,,,,,,,,
037791,001,2022-11-20_17h49.40.187,Info_measure_main_exp,2022.2.2,Win32,59.95922773,,,,,,,,,,,,,,,,,,masks/mask_002.jpg,,,,,,,,,,,,,,,,,,,,,,,,,,,,,,,,,,,,,,,,,,,0,0,0,1,1,,,,,,,,,,,,,,,,,,,,,,,,,,,,,,,,,,,,,,,,,,,,,,
037791,001,2022-11-20_17h49.40.187,Info_measure_main_exp,2022.2.2,Win32,59.95922773,,,,,,,,,,,,,,,,,,masks/mask_005.jpg,,,,,,,,,,,,,,,,,,,,,,,,,,,,,,,,,,,,,,,,,,,0,1,1,4,1,,,,,,,,,,,,,,,,,,,,,,,,,,,,,,,,,,,,,,,,,,,,,,
037791,001,2022-11-20_17h49.40.187,Info_measure_main_exp,2022.2.2,Win32,59.95922773,,,,,,,,,,,,,,,,,,masks/mask_004.jpg,,,,,,,,,,,,,,,,,,,,,,,,,,,,,,,,,,,,,,,,,,,0,2,2,3,1,,,,,,,,,,,,,,,,,,,,,,,,,,,,,,,,,,,,,,,,,,,,,,
037791,001,2022-11-20_17h49.40.187,Info_measure_main_exp,2022.2.2,Win32,59.95922773,,,,,,,,,,,,,,,,,,masks/mask_001.jpg,,,,,,,,,,,,,,,,,,,,,,,,,,,,,,,,,,,,,,,,,,,0,3,3,0,1,,,,,,,,,,,,,,,,,,,,,,,,,,,,,,,,,,,,,,,,,,,,,,
037791,001,2022-11-20_17h49.40.187,Info_measure_main_exp,2022.2.2,Win32,59.95922773,,,,,,,,,,,,,,,,,,masks/mask_003.jpg,,,,,,,,,,,,,,,,,,,,,,,,,,,,,,,,,,,,,,,,,,,0,4,4,2,1,,,,,,,,,,,,,,,,,,,,,,,,,,,,,,,,,,,,,,,,,,,,,,
037791,001,2022-11-20_17h49.40.187,Info_measure_main_exp,2022.2.2,Win32,59.95922773,,,,,,,,,,,,,,,,,,masks/mask_004.jpg,,,,,,,,,,,,,,,,,,,,,,,,,,,,,,,,,,,,,,,,,,,,,,,,0,0,0,3,1,,,,,,,,,,,,,,,,,,,,,,,,,,,,,,,,,,,,,,,,,
037791,001,2022-11-20_17h49.40.187,Info_measure_main_exp,2022.2.2,Win32,59.95922773,,,,,,,,,,,,,,,,,,masks/mask_001.jpg,,,,,,,,,,,,,,,,,,,,,,,,,,,,,,,,,,,,,,,,,,,,,,,,0,1,1,0,1,,,,,,,,,,,,,,,,,,,,,,,,,,,,,,,,,,,,,,,,,
037791,001,2022-11-20_17h49.40.187,Info_measure_main_exp,2022.2.2,Win32,59.95922773,,,,,,,,,,,,,,,,,,masks/mask_003.jpg,,,,,,,,,,,,,,,,,,,,,,,,,,,,,,,,,,,,,,,,,,,,,,,,0,2,2,2,1,,,,,,,,,,,,,,,,,,,,,,,,,,,,,,,,,,,,,,,,,
037791,001,2022-11-20_17h49.40.187,Info_measure_main_exp,2022.2.2,Win32,59.95922773,,,,,,,,,,,,,,,,,,masks/mask_005.jpg,,,,,,,,,,,,,,,,,,,,,,,,,,,,,,,,,,,,,,,,,,,,,,,,0,3,3,4,1,,,,,,,,,,,,,,,,,,,,,,,,,,,,,,,,,,,,,,,,,
037791,001,2022-11-20_17h49.40.187,Info_measure_main_exp,2022.2.2,Win32,59.95922773,,,,,,,,,,,,,,,,,,masks/mask_002.jpg,,,,,,,,,,,,,,,,,,,,,,,,,,,,,,,,,,,,,,,,,,,,,,,,0,4,4,1,1,,,,,,,,,,,,,,,,,,,,,,,,,,,,,,,,,,,,,,,,,
037791,001,2022-11-20_17h49.40.187,Info_measure_main_exp,2022.2.2,Win32,59.95922773,,,,,,,,,,,,,,,,,,,,,,,,,,,,,,6,1.5998,1,,,,,,,,,,,,0,131,5,5,2166,1986,absent_patch/patch0002166.jpg,absent_patch/patch0001986.jpg,,,,,,,,,,,,,,,,,,,,0.061111111,0.037962963,1,0,0,response1disk,20,0.005555556,-0.001851852,1,0,0,center_square,0,19,19,47,1,,,,,,,,,,,,,,,,,,,,,,,
037791,001,2022-11-20_17h49.40.187,Info_measure_main_exp,2022.2.2,Win32,59.95922773,,,,,,,,,,,,,,,,,,masks/mask_001.jpg,,,,,,,,,,,,,,,,,,,,,,,,,,,,,,,,,,,,,,,,,,,0,0,0,0,1,,,,,,,,,,,,,,,,,,,,,,,,,,,,,,,,,,,,,,,,,,,,,,
037791,001,2022-11-20_17h49.40.187,Info_measure_main_exp,2022.2.2,Win32,59.95922773,,,,,,,,,,,,,,,,,,masks/mask_005.jpg,,,,,,,,,,,,,,,,,,,,,,,,,,,,,,,,,,,,,,,,,,,0,1,1,4,1,,,,,,,,,,,,,,,,,,,,,,,,,,,,,,,,,,,,,,,,,,,,,,
037791,001,2022-11-20_17h49.40.187,Info_measure_main_exp,2022.2.2,Win32,59.95922773,,,,,,,,,,,,,,,,,,masks/mask_002.jpg,,,,,,,,,,,,,,,,,,,,,,,,,,,,,,,,,,,,,,,,,,,0,2,2,1,1,,,,,,,,,,,,,,,,,,,,,,,,,,,,,,,,,,,,,,,,,,,,,,
037791,001,2022-11-20_17h49.40.187,Info_measure_main_exp,2022.2.2,Win32,59.95922773,,,,,,,,,,,,,,,,,,masks/mask_003.jpg,,,,,,,,,,,,,,,,,,,,,,,,,,,,,,,,,,,,,,,,,,,0,3,3,2,1,,,,,,,,,,,,,,,,,,,,,,,,,,,,,,,,,,,,,,,,,,,,,,
037791,001,2022-11-20_17h49.40.187,Info_measure_main_exp,2022.2.2,Win32,59.95922773,,,,,,,,,,,,,,,,,,masks/mask_004.jpg,,,,,,,,,,,,,,,,,,,,,,,,,,,,,,,,,,,,,,,,,,,0,4,4,3,1,,,,,,,,,,,,,,,,,,,,,,,,,,,,,,,,,,,,,,,,,,,,,,
037791,001,2022-11-20_17h49.40.187,Info_measure_main_exp,2022.2.2,Win32,59.95922773,,,,,,,,,,,,,,,,,,masks/mask_004.jpg,,,,,,,,,,,,,,,,,,,,,,,,,,,,,,,,,,,,,,,,,,,,,,,,0,0,0,3,1,,,,,,,,,,,,,,,,,,,,,,,,,,,,,,,,,,,,,,,,,
037791,001,2022-11-20_17h49.40.187,Info_measure_main_exp,2022.2.2,Win32,59.95922773,,,,,,,,,,,,,,,,,,masks/mask_001.jpg,,,,,,,,,,,,,,,,,,,,,,,,,,,,,,,,,,,,,,,,,,,,,,,,0,1,1,0,1,,,,,,,,,,,,,,,,,,,,,,,,,,,,,,,,,,,,,,,,,
037791,001,2022-11-20_17h49.40.187,Info_measure_main_exp,2022.2.2,Win32,59.95922773,,,,,,,,,,,,,,,,,,masks/mask_005.jpg,,,,,,,,,,,,,,,,,,,,,,,,,,,,,,,,,,,,,,,,,,,,,,,,0,2,2,4,1,,,,,,,,,,,,,,,,,,,,,,,,,,,,,,,,,,,,,,,,,
037791,001,2022-11-20_17h49.40.187,Info_measure_main_exp,2022.2.2,Win32,59.95922773,,,,,,,,,,,,,,,,,,masks/mask_003.jpg,,,,,,,,,,,,,,,,,,,,,,,,,,,,,,,,,,,,,,,,,,,,,,,,0,3,3,2,1,,,,,,,,,,,,,,,,,,,,,,,,,,,,,,,,,,,,,,,,,
037791,001,2022-11-20_17h49.40.187,Info_measure_main_exp,2022.2.2,Win32,59.95922773,,,,,,,,,,,,,,,,,,masks/mask_002.jpg,,,,,,,,,,,,,,,,,,,,,,,,,,,,,,,,,,,,,,,,,,,,,,,,0,4,4,1,1,,,,,,,,,,,,,,,,,,,,,,,,,,,,,,,,,,,,,,,,,
037791,001,2022-11-20_17h49.40.187,Info_measure_main_exp,2022.2.2,Win32,59.95922773,,,,,,,,,,,,,,,,,,,,,,,,,,,,,,0,0.6332,1,,,,,,,,,,,,0,131,5,5,2190,2190,absent_patch/patch0002190.jpg,absent_patch/patch0002190.jpg,,,,,,,,,,,,,,,,,,,,-0.055555556,0.103703704,1,0,0,response7disk,21,-0.009259259,0.008333333,1,0,0,center_square,0,20,20,86,1,,,,,,,,,,,,,,,,,,,,,,,
037791,001,2022-11-20_17h49.40.187,Info_measure_main_exp,2022.2.2,Win32,59.95922773,,,,,,,,,,,,,,,,,,masks/mask_005.jpg,,,,,,,,,,,,,,,,,,,,,,,,,,,,,,,,,,,,,,,,,,,0,0,0,4,1,,,,,,,,,,,,,,,,,,,,,,,,,,,,,,,,,,,,,,,,,,,,,,
037791,001,2022-11-20_17h49.40.187,Info_measure_main_exp,2022.2.2,Win32,59.95922773,,,,,,,,,,,,,,,,,,masks/mask_001.jpg,,,,,,,,,,,,,,,,,,,,,,,,,,,,,,,,,,,,,,,,,,,0,1,1,0,1,,,,,,,,,,,,,,,,,,,,,,,,,,,,,,,,,,,,,,,,,,,,,,
037791,001,2022-11-20_17h49.40.187,Info_measure_main_exp,2022.2.2,Win32,59.95922773,,,,,,,,,,,,,,,,,,masks/mask_003.jpg,,,,,,,,,,,,,,,,,,,,,,,,,,,,,,,,,,,,,,,,,,,0,2,2,2,1,,,,,,,,,,,,,,,,,,,,,,,,,,,,,,,,,,,,,,,,,,,,,,
037791,001,2022-11-20_17h49.40.187,Info_measure_main_exp,2022.2.2,Win32,59.95922773,,,,,,,,,,,,,,,,,,masks/mask_002.jpg,,,,,,,,,,,,,,,,,,,,,,,,,,,,,,,,,,,,,,,,,,,0,3,3,1,1,,,,,,,,,,,,,,,,,,,,,,,,,,,,,,,,,,,,,,,,,,,,,,
037791,001,2022-11-20_17h49.40.187,Info_measure_main_exp,2022.2.2,Win32,59.95922773,,,,,,,,,,,,,,,,,,masks/mask_004.jpg,,,,,,,,,,,,,,,,,,,,,,,,,,,,,,,,,,,,,,,,,,,0,4,4,3,1,,,,,,,,,,,,,,,,,,,,,,,,,,,,,,,,,,,,,,,,,,,,,,
037791,001,2022-11-20_17h49.40.187,Info_measure_main_exp,2022.2.2,Win32,59.95922773,,,,,,,,,,,,,,,,,,masks/mask_003.jpg,,,,,,,,,,,,,,,,,,,,,,,,,,,,,,,,,,,,,,,,,,,,,,,,0,0,0,2,1,,,,,,,,,,,,,,,,,,,,,,,,,,,,,,,,,,,,,,,,,
037791,001,2022-11-20_17h49.40.187,Info_measure_main_exp,2022.2.2,Win32,59.95922773,,,,,,,,,,,,,,,,,,masks/mask_001.jpg,,,,,,,,,,,,,,,,,,,,,,,,,,,,,,,,,,,,,,,,,,,,,,,,0,1,1,0,1,,,,,,,,,,,,,,,,,,,,,,,,,,,,,,,,,,,,,,,,,
037791,001,2022-11-20_17h49.40.187,Info_measure_main_exp,2022.2.2,Win32,59.95922773,,,,,,,,,,,,,,,,,,masks/mask_002.jpg,,,,,,,,,,,,,,,,,,,,,,,,,,,,,,,,,,,,,,,,,,,,,,,,0,2,2,1,1,,,,,,,,,,,,,,,,,,,,,,,,,,,,,,,,,,,,,,,,,
037791,001,2022-11-20_17h49.40.187,Info_measure_main_exp,2022.2.2,Win32,59.95922773,,,,,,,,,,,,,,,,,,masks/mask_004.jpg,,,,,,,,,,,,,,,,,,,,,,,,,,,,,,,,,,,,,,,,,,,,,,,,0,3,3,3,1,,,,,,,,,,,,,,,,,,,,,,,,,,,,,,,,,,,,,,,,,
037791,001,2022-11-20_17h49.40.187,Info_measure_main_exp,2022.2.2,Win32,59.95922773,,,,,,,,,,,,,,,,,,masks/mask_005.jpg,,,,,,,,,,,,,,,,,,,,,,,,,,,,,,,,,,,,,,,,,,,,,,,,0,4,4,4,1,,,,,,,,,,,,,,,,,,,,,,,,,,,,,,,,,,,,,,,,,
037791,001,2022-11-20_17h49.40.187,Info_measure_main_exp,2022.2.2,Win32,59.95922773,,,,,,,,,,,,,,,,,,,,,,,,,,,,,,7,2.9499,1,,,,,,,,,,,,0,131,5,5,2250,2298,absent_patch/patch0002250.jpg,absent_patch/patch0002298.jpg,,,,,,,,,,,,,,,,,,,,0.011111111,0.103703704,1,0,0,response1disk,22,0.012962963,0.001851852,1,0,0,center_square,0,21,21,59,1,,,,,,,,,,,,,,,,,,,,,,,
037791,001,2022-11-20_17h49.40.187,Info_measure_main_exp,2022.2.2,Win32,59.95922773,,,,,,,,,,,,,,,,,,masks/mask_001.jpg,,,,,,,,,,,,,,,,,,,,,,,,,,,,,,,,,,,,,,,,,,,0,0,0,0,1,,,,,,,,,,,,,,,,,,,,,,,,,,,,,,,,,,,,,,,,,,,,,,
037791,001,2022-11-20_17h49.40.187,Info_measure_main_exp,2022.2.2,Win32,59.95922773,,,,,,,,,,,,,,,,,,masks/mask_005.jpg,,,,,,,,,,,,,,,,,,,,,,,,,,,,,,,,,,,,,,,,,,,0,1,1,4,1,,,,,,,,,,,,,,,,,,,,,,,,,,,,,,,,,,,,,,,,,,,,,,
037791,001,2022-11-20_17h49.40.187,Info_measure_main_exp,2022.2.2,Win32,59.95922773,,,,,,,,,,,,,,,,,,masks/mask_004.jpg,,,,,,,,,,,,,,,,,,,,,,,,,,,,,,,,,,,,,,,,,,,0,2,2,3,1,,,,,,,,,,,,,,,,,,,,,,,,,,,,,,,,,,,,,,,,,,,,,,
037791,001,2022-11-20_17h49.40.187,Info_measure_main_exp,2022.2.2,Win32,59.95922773,,,,,,,,,,,,,,,,,,masks/mask_003.jpg,,,,,,,,,,,,,,,,,,,,,,,,,,,,,,,,,,,,,,,,,,,0,3,3,2,1,,,,,,,,,,,,,,,,,,,,,,,,,,,,,,,,,,,,,,,,,,,,,,
037791,001,2022-11-20_17h49.40.187,Info_measure_main_exp,2022.2.2,Win32,59.95922773,,,,,,,,,,,,,,,,,,masks/mask_002.jpg,,,,,,,,,,,,,,,,,,,,,,,,,,,,,,,,,,,,,,,,,,,0,4,4,1,1,,,,,,,,,,,,,,,,,,,,,,,,,,,,,,,,,,,,,,,,,,,,,,
037791,001,2022-11-20_17h49.40.187,Info_measure_main_exp,2022.2.2,Win32,59.95922773,,,,,,,,,,,,,,,,,,masks/mask_002.jpg,,,,,,,,,,,,,,,,,,,,,,,,,,,,,,,,,,,,,,,,,,,,,,,,0,0,0,1,1,,,,,,,,,,,,,,,,,,,,,,,,,,,,,,,,,,,,,,,,,
037791,001,2022-11-20_17h49.40.187,Info_measure_main_exp,2022.2.2,Win32,59.95922773,,,,,,,,,,,,,,,,,,masks/mask_004.jpg,,,,,,,,,,,,,,,,,,,,,,,,,,,,,,,,,,,,,,,,,,,,,,,,0,1,1,3,1,,,,,,,,,,,,,,,,,,,,,,,,,,,,,,,,,,,,,,,,,
037791,001,2022-11-20_17h49.40.187,Info_measure_main_exp,2022.2.2,Win32,59.95922773,,,,,,,,,,,,,,,,,,masks/mask_001.jpg,,,,,,,,,,,,,,,,,,,,,,,,,,,,,,,,,,,,,,,,,,,,,,,,0,2,2,0,1,,,,,,,,,,,,,,,,,,,,,,,,,,,,,,,,,,,,,,,,,
037791,001,2022-11-20_17h49.40.187,Info_measure_main_exp,2022.2.2,Win32,59.95922773,,,,,,,,,,,,,,,,,,masks/mask_003.jpg,,,,,,,,,,,,,,,,,,,,,,,,,,,,,,,,,,,,,,,,,,,,,,,,0,3,3,2,1,,,,,,,,,,,,,,,,,,,,,,,,,,,,,,,,,,,,,,,,,
037791,001,2022-11-20_17h49.40.187,Info_measure_main_exp,2022.2.2,Win32,59.95922773,,,,,,,,,,,,,,,,,,masks/mask_005.jpg,,,,,,,,,,,,,,,,,,,,,,,,,,,,,,,,,,,,,,,,,,,,,,,,0,4,4,4,1,,,,,,,,,,,,,,,,,,,,,,,,,,,,,,,,,,,,,,,,,
037791,001,2022-11-20_17h49.40.187,Info_measure_main_exp,2022.2.2,Win32,59.95922773,,,,,,,,,,,,,,,,,,,,,,,,,,,,,,7,0.6332,1,,,,,,,,,,,,0,131,5,5,2082,2238,absent_patch/patch0002082.jpg,absent_patch/patch0002238.jpg,,,,,,,,,,,,,,,,,,,,0.022222222,0.037037037,1,0,0,response1disk,23,0.002777778,-0.009259259,1,0,0,center_square,0,22,22,22,1,,,,,,,,,,,,,,,,,,,,,,,
037791,001,2022-11-20_17h49.40.187,Info_measure_main_exp,2022.2.2,Win32,59.95922773,,,,,,,,,,,,,,,,,,masks/mask_003.jpg,,,,,,,,,,,,,,,,,,,,,,,,,,,,,,,,,,,,,,,,,,,0,0,0,2,1,,,,,,,,,,,,,,,,,,,,,,,,,,,,,,,,,,,,,,,,,,,,,,
037791,001,2022-11-20_17h49.40.187,Info_measure_main_exp,2022.2.2,Win32,59.95922773,,,,,,,,,,,,,,,,,,masks/mask_005.jpg,,,,,,,,,,,,,,,,,,,,,,,,,,,,,,,,,,,,,,,,,,,0,1,1,4,1,,,,,,,,,,,,,,,,,,,,,,,,,,,,,,,,,,,,,,,,,,,,,,
037791,001,2022-11-20_17h49.40.187,Info_measure_main_exp,2022.2.2,Win32,59.95922773,,,,,,,,,,,,,,,,,,masks/mask_004.jpg,,,,,,,,,,,,,,,,,,,,,,,,,,,,,,,,,,,,,,,,,,,0,2,2,3,1,,,,,,,,,,,,,,,,,,,,,,,,,,,,,,,,,,,,,,,,,,,,,,
037791,001,2022-11-20_17h49.40.187,Info_measure_main_exp,2022.2.2,Win32,59.95922773,,,,,,,,,,,,,,,,,,masks/mask_001.jpg,,,,,,,,,,,,,,,,,,,,,,,,,,,,,,,,,,,,,,,,,,,0,3,3,0,1,,,,,,,,,,,,,,,,,,,,,,,,,,,,,,,,,,,,,,,,,,,,,,
037791,001,2022-11-20_17h49.40.187,Info_measure_main_exp,2022.2.2,Win32,59.95922773,,,,,,,,,,,,,,,,,,masks/mask_002.jpg,,,,,,,,,,,,,,,,,,,,,,,,,,,,,,,,,,,,,,,,,,,0,4,4,1,1,,,,,,,,,,,,,,,,,,,,,,,,,,,,,,,,,,,,,,,,,,,,,,
037791,001,2022-11-20_17h49.40.187,Info_measure_main_exp,2022.2.2,Win32,59.95922773,,,,,,,,,,,,,,,,,,masks/mask_002.jpg,,,,,,,,,,,,,,,,,,,,,,,,,,,,,,,,,,,,,,,,,,,,,,,,0,0,0,1,1,,,,,,,,,,,,,,,,,,,,,,,,,,,,,,,,,,,,,,,,,
037791,001,2022-11-20_17h49.40.187,Info_measure_main_exp,2022.2.2,Win32,59.95922773,,,,,,,,,,,,,,,,,,masks/mask_003.jpg,,,,,,,,,,,,,,,,,,,,,,,,,,,,,,,,,,,,,,,,,,,,,,,,0,1,1,2,1,,,,,,,,,,,,,,,,,,,,,,,,,,,,,,,,,,,,,,,,,
037791,001,2022-11-20_17h49.40.187,Info_measure_main_exp,2022.2.2,Win32,59.95922773,,,,,,,,,,,,,,,,,,masks/mask_005.jpg,,,,,,,,,,,,,,,,,,,,,,,,,,,,,,,,,,,,,,,,,,,,,,,,0,2,2,4,1,,,,,,,,,,,,,,,,,,,,,,,,,,,,,,,,,,,,,,,,,
037791,001,2022-11-20_17h49.40.187,Info_measure_main_exp,2022.2.2,Win32,59.95922773,,,,,,,,,,,,,,,,,,masks/mask_004.jpg,,,,,,,,,,,,,,,,,,,,,,,,,,,,,,,,,,,,,,,,,,,,,,,,0,3,3,3,1,,,,,,,,,,,,,,,,,,,,,,,,,,,,,,,,,,,,,,,,,
037791,001,2022-11-20_17h49.40.187,Info_measure_main_exp,2022.2.2,Win32,59.95922773,,,,,,,,,,,,,,,,,,masks/mask_001.jpg,,,,,,,,,,,,,,,,,,,,,,,,,,,,,,,,,,,,,,,,,,,,,,,,0,4,4,0,1,,,,,,,,,,,,,,,,,,,,,,,,,,,,,,,,,,,,,,,,,
037791,001,2022-11-20_17h49.40.187,Info_measure_main_exp,2022.2.2,Win32,59.95922773,,,,,,,,,,,,,,,,,,,,,,,,,,,,,,6,3.5999,1,,,,,,,,,,,,0,131,5,5,1986,2274,absent_patch/patch0001986.jpg,absent_patch/patch0002274.jpg,,,,,,,,,,,,,,,,,,,,0.106481481,0.009259259,1,0,0,response1disk,24,0.006481481,-0.006481481,1,0,0,center_square,0,23,23,7,1,,,,,,,,,,,,,,,,,,,,,,,
037791,001,2022-11-20_17h49.40.187,Info_measure_main_exp,2022.2.2,Win32,59.95922773,,,,,,,,,,,,,,,,,,masks/mask_005.jpg,,,,,,,,,,,,,,,,,,,,,,,,,,,,,,,,,,,,,,,,,,,0,0,0,4,1,,,,,,,,,,,,,,,,,,,,,,,,,,,,,,,,,,,,,,,,,,,,,,
037791,001,2022-11-20_17h49.40.187,Info_measure_main_exp,2022.2.2,Win32,59.95922773,,,,,,,,,,,,,,,,,,masks/mask_003.jpg,,,,,,,,,,,,,,,,,,,,,,,,,,,,,,,,,,,,,,,,,,,0,1,1,2,1,,,,,,,,,,,,,,,,,,,,,,,,,,,,,,,,,,,,,,,,,,,,,,
037791,001,2022-11-20_17h49.40.187,Info_measure_main_exp,2022.2.2,Win32,59.95922773,,,,,,,,,,,,,,,,,,masks/mask_002.jpg,,,,,,,,,,,,,,,,,,,,,,,,,,,,,,,,,,,,,,,,,,,0,2,2,1,1,,,,,,,,,,,,,,,,,,,,,,,,,,,,,,,,,,,,,,,,,,,,,,
037791,001,2022-11-20_17h49.40.187,Info_measure_main_exp,2022.2.2,Win32,59.95922773,,,,,,,,,,,,,,,,,,masks/mask_001.jpg,,,,,,,,,,,,,,,,,,,,,,,,,,,,,,,,,,,,,,,,,,,0,3,3,0,1,,,,,,,,,,,,,,,,,,,,,,,,,,,,,,,,,,,,,,,,,,,,,,
037791,001,2022-11-20_17h49.40.187,Info_measure_main_exp,2022.2.2,Win32,59.95922773,,,,,,,,,,,,,,,,,,masks/mask_004.jpg,,,,,,,,,,,,,,,,,,,,,,,,,,,,,,,,,,,,,,,,,,,0,4,4,3,1,,,,,,,,,,,,,,,,,,,,,,,,,,,,,,,,,,,,,,,,,,,,,,
037791,001,2022-11-20_17h49.40.187,Info_measure_main_exp,2022.2.2,Win32,59.95922773,,,,,,,,,,,,,,,,,,masks/mask_005.jpg,,,,,,,,,,,,,,,,,,,,,,,,,,,,,,,,,,,,,,,,,,,,,,,,0,0,0,4,1,,,,,,,,,,,,,,,,,,,,,,,,,,,,,,,,,,,,,,,,,
037791,001,2022-11-20_17h49.40.187,Info_measure_main_exp,2022.2.2,Win32,59.95922773,,,,,,,,,,,,,,,,,,masks/mask_002.jpg,,,,,,,,,,,,,,,,,,,,,,,,,,,,,,,,,,,,,,,,,,,,,,,,0,1,1,1,1,,,,,,,,,,,,,,,,,,,,,,,,,,,,,,,,,,,,,,,,,
037791,001,2022-11-20_17h49.40.187,Info_measure_main_exp,2022.2.2,Win32,59.95922773,,,,,,,,,,,,,,,,,,masks/mask_003.jpg,,,,,,,,,,,,,,,,,,,,,,,,,,,,,,,,,,,,,,,,,,,,,,,,0,2,2,2,1,,,,,,,,,,,,,,,,,,,,,,,,,,,,,,,,,,,,,,,,,
037791,001,2022-11-20_17h49.40.187,Info_measure_main_exp,2022.2.2,Win32,59.95922773,,,,,,,,,,,,,,,,,,masks/mask_001.jpg,,,,,,,,,,,,,,,,,,,,,,,,,,,,,,,,,,,,,,,,,,,,,,,,0,3,3,0,1,,,,,,,,,,,,,,,,,,,,,,,,,,,,,,,,,,,,,,,,,
037791,001,2022-11-20_17h49.40.187,Info_measure_main_exp,2022.2.2,Win32,59.95922773,,,,,,,,,,,,,,,,,,masks/mask_004.jpg,,,,,,,,,,,,,,,,,,,,,,,,,,,,,,,,,,,,,,,,,,,,,,,,0,4,4,3,1,,,,,,,,,,,,,,,,,,,,,,,,,,,,,,,,,,,,,,,,,
037791,001,2022-11-20_17h49.40.187,Info_measure_main_exp,2022.2.2,Win32,59.95922773,,,,,,,,,,,,,,,,,,,,,,,,,,,,,,7,0.8831,1,,,,,,,,,,,,0,131,5,5,2274,2082,absent_patch/patch0002274.jpg,absent_patch/patch0002082.jpg,,,,,,,,,,,,,,,,,,,,0.042592593,0.092592593,1,0,0,response1disk,25,0.010185185,-0.003703704,1,0,0,center_square,0,24,24,100,1,,,,,,,,,,,,,,,,,,,,,,,
037791,001,2022-11-20_17h49.40.187,Info_measure_main_exp,2022.2.2,Win32,59.95922773,,,,,,,,,,,,,,,,,,masks/mask_001.jpg,,,,,,,,,,,,,,,,,,,,,,,,,,,,,,,,,,,,,,,,,,,0,0,0,0,1,,,,,,,,,,,,,,,,,,,,,,,,,,,,,,,,,,,,,,,,,,,,,,
037791,001,2022-11-20_17h49.40.187,Info_measure_main_exp,2022.2.2,Win32,59.95922773,,,,,,,,,,,,,,,,,,masks/mask_005.jpg,,,,,,,,,,,,,,,,,,,,,,,,,,,,,,,,,,,,,,,,,,,0,1,1,4,1,,,,,,,,,,,,,,,,,,,,,,,,,,,,,,,,,,,,,,,,,,,,,,
037791,001,2022-11-20_17h49.40.187,Info_measure_main_exp,2022.2.2,Win32,59.95922773,,,,,,,,,,,,,,,,,,masks/mask_002.jpg,,,,,,,,,,,,,,,,,,,,,,,,,,,,,,,,,,,,,,,,,,,0,2,2,1,1,,,,,,,,,,,,,,,,,,,,,,,,,,,,,,,,,,,,,,,,,,,,,,
037791,001,2022-11-20_17h49.40.187,Info_measure_main_exp,2022.2.2,Win32,59.95922773,,,,,,,,,,,,,,,,,,masks/mask_003.jpg,,,,,,,,,,,,,,,,,,,,,,,,,,,,,,,,,,,,,,,,,,,0,3,3,2,1,,,,,,,,,,,,,,,,,,,,,,,,,,,,,,,,,,,,,,,,,,,,,,
037791,001,2022-11-20_17h49.40.187,Info_measure_main_exp,2022.2.2,Win32,59.95922773,,,,,,,,,,,,,,,,,,masks/mask_004.jpg,,,,,,,,,,,,,,,,,,,,,,,,,,,,,,,,,,,,,,,,,,,0,4,4,3,1,,,,,,,,,,,,,,,,,,,,,,,,,,,,,,,,,,,,,,,,,,,,,,
037791,001,2022-11-20_17h49.40.187,Info_measure_main_exp,2022.2.2,Win32,59.95922773,,,,,,,,,,,,,,,,,,masks/mask_003.jpg,,,,,,,,,,,,,,,,,,,,,,,,,,,,,,,,,,,,,,,,,,,,,,,,0,0,0,2,1,,,,,,,,,,,,,,,,,,,,,,,,,,,,,,,,,,,,,,,,,
037791,001,2022-11-20_17h49.40.187,Info_measure_main_exp,2022.2.2,Win32,59.95922773,,,,,,,,,,,,,,,,,,masks/mask_004.jpg,,,,,,,,,,,,,,,,,,,,,,,,,,,,,,,,,,,,,,,,,,,,,,,,0,1,1,3,1,,,,,,,,,,,,,,,,,,,,,,,,,,,,,,,,,,,,,,,,,
037791,001,2022-11-20_17h49.40.187,Info_measure_main_exp,2022.2.2,Win32,59.95922773,,,,,,,,,,,,,,,,,,masks/mask_001.jpg,,,,,,,,,,,,,,,,,,,,,,,,,,,,,,,,,,,,,,,,,,,,,,,,0,2,2,0,1,,,,,,,,,,,,,,,,,,,,,,,,,,,,,,,,,,,,,,,,,
037791,001,2022-11-20_17h49.40.187,Info_measure_main_exp,2022.2.2,Win32,59.95922773,,,,,,,,,,,,,,,,,,masks/mask_005.jpg,,,,,,,,,,,,,,,,,,,,,,,,,,,,,,,,,,,,,,,,,,,,,,,,0,3,3,4,1,,,,,,,,,,,,,,,,,,,,,,,,,,,,,,,,,,,,,,,,,
037791,001,2022-11-20_17h49.40.187,Info_measure_main_exp,2022.2.2,Win32,59.95922773,,,,,,,,,,,,,,,,,,masks/mask_002.jpg,,,,,,,,,,,,,,,,,,,,,,,,,,,,,,,,,,,,,,,,,,,,,,,,0,4,4,1,1,,,,,,,,,,,,,,,,,,,,,,,,,,,,,,,,,,,,,,,,,
037791,001,2022-11-20_17h49.40.187,Info_measure_main_exp,2022.2.2,Win32,59.95922773,,,,,,,,,,,,,,,,,,,,,,,,,,,,,,7,1.4499,1,,,,,,,,,,,,1,131,5,5,1,2274,present_patch/cong_131_5_a.jpg,absent_patch/patch0002274.jpg,,,,,,,,,,,,,,,,,,,,0.042592593,0.07037037,1,0,0,response1disk,26,0.010185185,0.005555556,1,0,0,center_square,0,25,25,105,1,,,,,,,,,,,,,,,,,,,,,,,
037791,001,2022-11-20_17h49.40.187,Info_measure_main_exp,2022.2.2,Win32,59.95922773,,,,,,,,,,,,,,,,,,masks/mask_003.jpg,,,,,,,,,,,,,,,,,,,,,,,,,,,,,,,,,,,,,,,,,,,0,0,0,2,1,,,,,,,,,,,,,,,,,,,,,,,,,,,,,,,,,,,,,,,,,,,,,,
037791,001,2022-11-20_17h49.40.187,Info_measure_main_exp,2022.2.2,Win32,59.95922773,,,,,,,,,,,,,,,,,,masks/mask_005.jpg,,,,,,,,,,,,,,,,,,,,,,,,,,,,,,,,,,,,,,,,,,,0,1,1,4,1,,,,,,,,,,,,,,,,,,,,,,,,,,,,,,,,,,,,,,,,,,,,,,
037791,001,2022-11-20_17h49.40.187,Info_measure_main_exp,2022.2.2,Win32,59.95922773,,,,,,,,,,,,,,,,,,masks/mask_002.jpg,,,,,,,,,,,,,,,,,,,,,,,,,,,,,,,,,,,,,,,,,,,0,2,2,1,1,,,,,,,,,,,,,,,,,,,,,,,,,,,,,,,,,,,,,,,,,,,,,,
037791,001,2022-11-20_17h49.40.187,Info_measure_main_exp,2022.2.2,Win32,59.95922773,,,,,,,,,,,,,,,,,,masks/mask_004.jpg,,,,,,,,,,,,,,,,,,,,,,,,,,,,,,,,,,,,,,,,,,,0,3,3,3,1,,,,,,,,,,,,,,,,,,,,,,,,,,,,,,,,,,,,,,,,,,,,,,
037791,001,2022-11-20_17h49.40.187,Info_measure_main_exp,2022.2.2,Win32,59.95922773,,,,,,,,,,,,,,,,,,masks/mask_001.jpg,,,,,,,,,,,,,,,,,,,,,,,,,,,,,,,,,,,,,,,,,,,0,4,4,0,1,,,,,,,,,,,,,,,,,,,,,,,,,,,,,,,,,,,,,,,,,,,,,,
037791,001,2022-11-20_17h49.40.187,Info_measure_main_exp,2022.2.2,Win32,59.95922773,,,,,,,,,,,,,,,,,,masks/mask_003.jpg,,,,,,,,,,,,,,,,,,,,,,,,,,,,,,,,,,,,,,,,,,,,,,,,0,0,0,2,1,,,,,,,,,,,,,,,,,,,,,,,,,,,,,,,,,,,,,,,,,
037791,001,2022-11-20_17h49.40.187,Info_measure_main_exp,2022.2.2,Win32,59.95922773,,,,,,,,,,,,,,,,,,masks/mask_005.jpg,,,,,,,,,,,,,,,,,,,,,,,,,,,,,,,,,,,,,,,,,,,,,,,,0,1,1,4,1,,,,,,,,,,,,,,,,,,,,,,,,,,,,,,,,,,,,,,,,,
037791,001,2022-11-20_17h49.40.187,Info_measure_main_exp,2022.2.2,Win32,59.95922773,,,,,,,,,,,,,,,,,,masks/mask_002.jpg,,,,,,,,,,,,,,,,,,,,,,,,,,,,,,,,,,,,,,,,,,,,,,,,0,2,2,1,1,,,,,,,,,,,,,,,,,,,,,,,,,,,,,,,,,,,,,,,,,
037791,001,2022-11-20_17h49.40.187,Info_measure_main_exp,2022.2.2,Win32,59.95922773,,,,,,,,,,,,,,,,,,masks/mask_004.jpg,,,,,,,,,,,,,,,,,,,,,,,,,,,,,,,,,,,,,,,,,,,,,,,,0,3,3,3,1,,,,,,,,,,,,,,,,,,,,,,,,,,,,,,,,,,,,,,,,,
037791,001,2022-11-20_17h49.40.187,Info_measure_main_exp,2022.2.2,Win32,59.95922773,,,,,,,,,,,,,,,,,,masks/mask_001.jpg,,,,,,,,,,,,,,,,,,,,,,,,,,,,,,,,,,,,,,,,,,,,,,,,0,4,4,0,1,,,,,,,,,,,,,,,,,,,,,,,,,,,,,,,,,,,,,,,,,
037791,001,2022-11-20_17h49.40.187,Info_measure_main_exp,2022.2.2,Win32,59.95922773,,,,,,,,,,,,,,,,,,,,,,,,,,,,,,7,1.4497,1,,,,,,,,,,,,1,131,5,5,1,2142,present_patch/cong_131_5_a.jpg,absent_patch/patch0002142.jpg,,,,,,,,,,,,,,,,,,,,0.023148148,0.037962963,1,0,0,response1disk,27,-0.00462963,-0.012037037,1,0,0,center_square,0,26,26,80,1,,,,,,,,,,,,,,,,,,,,,,,
037791,001,2022-11-20_17h49.40.187,Info_measure_main_exp,2022.2.2,Win32,59.95922773,,,,,,,,,,,,,,,,,,masks/mask_005.jpg,,,,,,,,,,,,,,,,,,,,,,,,,,,,,,,,,,,,,,,,,,,0,0,0,4,1,,,,,,,,,,,,,,,,,,,,,,,,,,,,,,,,,,,,,,,,,,,,,,
037791,001,2022-11-20_17h49.40.187,Info_measure_main_exp,2022.2.2,Win32,59.95922773,,,,,,,,,,,,,,,,,,masks/mask_002.jpg,,,,,,,,,,,,,,,,,,,,,,,,,,,,,,,,,,,,,,,,,,,0,1,1,1,1,,,,,,,,,,,,,,,,,,,,,,,,,,,,,,,,,,,,,,,,,,,,,,
037791,001,2022-11-20_17h49.40.187,Info_measure_main_exp,2022.2.2,Win32,59.95922773,,,,,,,,,,,,,,,,,,masks/mask_001.jpg,,,,,,,,,,,,,,,,,,,,,,,,,,,,,,,,,,,,,,,,,,,0,2,2,0,1,,,,,,,,,,,,,,,,,,,,,,,,,,,,,,,,,,,,,,,,,,,,,,
037791,001,2022-11-20_17h49.40.187,Info_measure_main_exp,2022.2.2,Win32,59.95922773,,,,,,,,,,,,,,,,,,masks/mask_003.jpg,,,,,,,,,,,,,,,,,,,,,,,,,,,,,,,,,,,,,,,,,,,0,3,3,2,1,,,,,,,,,,,,,,,,,,,,,,,,,,,,,,,,,,,,,,,,,,,,,,
037791,001,2022-11-20_17h49.40.187,Info_measure_main_exp,2022.2.2,Win32,59.95922773,,,,,,,,,,,,,,,,,,masks/mask_004.jpg,,,,,,,,,,,,,,,,,,,,,,,,,,,,,,,,,,,,,,,,,,,0,4,4,3,1,,,,,,,,,,,,,,,,,,,,,,,,,,,,,,,,,,,,,,,,,,,,,,
037791,001,2022-11-20_17h49.40.187,Info_measure_main_exp,2022.2.2,Win32,59.95922773,,,,,,,,,,,,,,,,,,masks/mask_001.jpg,,,,,,,,,,,,,,,,,,,,,,,,,,,,,,,,,,,,,,,,,,,,,,,,0,0,0,0,1,,,,,,,,,,,,,,,,,,,,,,,,,,,,,,,,,,,,,,,,,
037791,001,2022-11-20_17h49.40.187,Info_measure_main_exp,2022.2.2,Win32,59.95922773,,,,,,,,,,,,,,,,,,masks/mask_002.jpg,,,,,,,,,,,,,,,,,,,,,,,,,,,,,,,,,,,,,,,,,,,,,,,,0,1,1,1,1,,,,,,,,,,,,,,,,,,,,,,,,,,,,,,,,,,,,,,,,,
037791,001,2022-11-20_17h49.40.187,Info_measure_main_exp,2022.2.2,Win32,59.95922773,,,,,,,,,,,,,,,,,,masks/mask_005.jpg,,,,,,,,,,,,,,,,,,,,,,,,,,,,,,,,,,,,,,,,,,,,,,,,0,2,2,4,1,,,,,,,,,,,,,,,,,,,,,,,,,,,,,,,,,,,,,,,,,
037791,001,2022-11-20_17h49.40.187,Info_measure_main_exp,2022.2.2,Win32,59.95922773,,,,,,,,,,,,,,,,,,masks/mask_003.jpg,,,,,,,,,,,,,,,,,,,,,,,,,,,,,,,,,,,,,,,,,,,,,,,,0,3,3,2,1,,,,,,,,,,,,,,,,,,,,,,,,,,,,,,,,,,,,,,,,,
037791,001,2022-11-20_17h49.40.187,Info_measure_main_exp,2022.2.2,Win32,59.95922773,,,,,,,,,,,,,,,,,,masks/mask_004.jpg,,,,,,,,,,,,,,,,,,,,,,,,,,,,,,,,,,,,,,,,,,,,,,,,0,4,4,3,1,,,,,,,,,,,,,,,,,,,,,,,,,,,,,,,,,,,,,,,,,
037791,001,2022-11-20_17h49.40.187,Info_measure_main_exp,2022.2.2,Win32,59.95922773,,,,,,,,,,,,,,,,,,,,,,,,,,,,,,7,0.783,1,,,,,,,,,,,,0,131,5,5,1950,2166,absent_patch/patch0001950.jpg,absent_patch/patch0002166.jpg,,,,,,,,,,,,,,,,,,,,0.041666667,0.074074074,1,0,0,response1disk,28,0.00462963,-0.000925926,1,0,0,center_square,0,27,27,0,1,,,,,,,,,,,,,,,,,,,,,,,
037791,001,2022-11-20_17h49.40.187,Info_measure_main_exp,2022.2.2,Win32,59.95922773,,,,,,,,,,,,,,,,,,masks/mask_003.jpg,,,,,,,,,,,,,,,,,,,,,,,,,,,,,,,,,,,,,,,,,,,0,0,0,2,1,,,,,,,,,,,,,,,,,,,,,,,,,,,,,,,,,,,,,,,,,,,,,,
037791,001,2022-11-20_17h49.40.187,Info_measure_main_exp,2022.2.2,Win32,59.95922773,,,,,,,,,,,,,,,,,,masks/mask_002.jpg,,,,,,,,,,,,,,,,,,,,,,,,,,,,,,,,,,,,,,,,,,,0,1,1,1,1,,,,,,,,,,,,,,,,,,,,,,,,,,,,,,,,,,,,,,,,,,,,,,
037791,001,2022-11-20_17h49.40.187,Info_measure_main_exp,2022.2.2,Win32,59.95922773,,,,,,,,,,,,,,,,,,masks/mask_004.jpg,,,,,,,,,,,,,,,,,,,,,,,,,,,,,,,,,,,,,,,,,,,0,2,2,3,1,,,,,,,,,,,,,,,,,,,,,,,,,,,,,,,,,,,,,,,,,,,,,,
037791,001,2022-11-20_17h49.40.187,Info_measure_main_exp,2022.2.2,Win32,59.95922773,,,,,,,,,,,,,,,,,,masks/mask_001.jpg,,,,,,,,,,,,,,,,,,,,,,,,,,,,,,,,,,,,,,,,,,,0,3,3,0,1,,,,,,,,,,,,,,,,,,,,,,,,,,,,,,,,,,,,,,,,,,,,,,
037791,001,2022-11-20_17h49.40.187,Info_measure_main_exp,2022.2.2,Win32,59.95922773,,,,,,,,,,,,,,,,,,masks/mask_005.jpg,,,,,,,,,,,,,,,,,,,,,,,,,,,,,,,,,,,,,,,,,,,0,4,4,4,1,,,,,,,,,,,,,,,,,,,,,,,,,,,,,,,,,,,,,,,,,,,,,,
037791,001,2022-11-20_17h49.40.187,Info_measure_main_exp,2022.2.2,Win32,59.95922773,,,,,,,,,,,,,,,,,,masks/mask_003.jpg,,,,,,,,,,,,,,,,,,,,,,,,,,,,,,,,,,,,,,,,,,,,,,,,0,0,0,2,1,,,,,,,,,,,,,,,,,,,,,,,,,,,,,,,,,,,,,,,,,
037791,001,2022-11-20_17h49.40.187,Info_measure_main_exp,2022.2.2,Win32,59.95922773,,,,,,,,,,,,,,,,,,masks/mask_001.jpg,,,,,,,,,,,,,,,,,,,,,,,,,,,,,,,,,,,,,,,,,,,,,,,,0,1,1,0,1,,,,,,,,,,,,,,,,,,,,,,,,,,,,,,,,,,,,,,,,,
037791,001,2022-11-20_17h49.40.187,Info_measure_main_exp,2022.2.2,Win32,59.95922773,,,,,,,,,,,,,,,,,,masks/mask_005.jpg,,,,,,,,,,,,,,,,,,,,,,,,,,,,,,,,,,,,,,,,,,,,,,,,0,2,2,4,1,,,,,,,,,,,,,,,,,,,,,,,,,,,,,,,,,,,,,,,,,
037791,001,2022-11-20_17h49.40.187,Info_measure_main_exp,2022.2.2,Win32,59.95922773,,,,,,,,,,,,,,,,,,masks/mask_004.jpg,,,,,,,,,,,,,,,,,,,,,,,,,,,,,,,,,,,,,,,,,,,,,,,,0,3,3,3,1,,,,,,,,,,,,,,,,,,,,,,,,,,,,,,,,,,,,,,,,,
037791,001,2022-11-20_17h49.40.187,Info_measure_main_exp,2022.2.2,Win32,59.95922773,,,,,,,,,,,,,,,,,,masks/mask_002.jpg,,,,,,,,,,,,,,,,,,,,,,,,,,,,,,,,,,,,,,,,,,,,,,,,0,4,4,1,1,,,,,,,,,,,,,,,,,,,,,,,,,,,,,,,,,,,,,,,,,
037791,001,2022-11-20_17h49.40.187,Info_measure_main_exp,2022.2.2,Win32,59.95922773,,,,,,,,,,,,,,,,,,,,,,,,,,,,,,7,1.1999,1,,,,,,,,,,,,0,131,5,5,1986,1950,absent_patch/patch0001986.jpg,absent_patch/patch0001950.jpg,,,,,,,,,,,,,,,,,,,,0.018518519,0.060185185,1,0,0,response1disk,29,0.010185185,0.00462963,1,0,0,center_square,0,28,28,15,1,,,,,,,,,,,,,,,,,,,,,,,
037791,001,2022-11-20_17h49.40.187,Info_measure_main_exp,2022.2.2,Win32,59.95922773,,,,,,,,,,,,,,,,,,masks/mask_005.jpg,,,,,,,,,,,,,,,,,,,,,,,,,,,,,,,,,,,,,,,,,,,0,0,0,4,1,,,,,,,,,,,,,,,,,,,,,,,,,,,,,,,,,,,,,,,,,,,,,,
037791,001,2022-11-20_17h49.40.187,Info_measure_main_exp,2022.2.2,Win32,59.95922773,,,,,,,,,,,,,,,,,,masks/mask_003.jpg,,,,,,,,,,,,,,,,,,,,,,,,,,,,,,,,,,,,,,,,,,,0,1,1,2,1,,,,,,,,,,,,,,,,,,,,,,,,,,,,,,,,,,,,,,,,,,,,,,
037791,001,2022-11-20_17h49.40.187,Info_measure_main_exp,2022.2.2,Win32,59.95922773,,,,,,,,,,,,,,,,,,masks/mask_004.jpg,,,,,,,,,,,,,,,,,,,,,,,,,,,,,,,,,,,,,,,,,,,0,2,2,3,1,,,,,,,,,,,,,,,,,,,,,,,,,,,,,,,,,,,,,,,,,,,,,,
037791,001,2022-11-20_17h49.40.187,Info_measure_main_exp,2022.2.2,Win32,59.95922773,,,,,,,,,,,,,,,,,,masks/mask_001.jpg,,,,,,,,,,,,,,,,,,,,,,,,,,,,,,,,,,,,,,,,,,,0,3,3,0,1,,,,,,,,,,,,,,,,,,,,,,,,,,,,,,,,,,,,,,,,,,,,,,
037791,001,2022-11-20_17h49.40.187,Info_measure_main_exp,2022.2.2,Win32,59.95922773,,,,,,,,,,,,,,,,,,masks/mask_002.jpg,,,,,,,,,,,,,,,,,,,,,,,,,,,,,,,,,,,,,,,,,,,0,4,4,1,1,,,,,,,,,,,,,,,,,,,,,,,,,,,,,,,,,,,,,,,,,,,,,,
037791,001,2022-11-20_17h49.40.187,Info_measure_main_exp,2022.2.2,Win32,59.95922773,,,,,,,,,,,,,,,,,,masks/mask_002.jpg,,,,,,,,,,,,,,,,,,,,,,,,,,,,,,,,,,,,,,,,,,,,,,,,0,0,0,1,1,,,,,,,,,,,,,,,,,,,,,,,,,,,,,,,,,,,,,,,,,
037791,001,2022-11-20_17h49.40.187,Info_measure_main_exp,2022.2.2,Win32,59.95922773,,,,,,,,,,,,,,,,,,masks/mask_001.jpg,,,,,,,,,,,,,,,,,,,,,,,,,,,,,,,,,,,,,,,,,,,,,,,,0,1,1,0,1,,,,,,,,,,,,,,,,,,,,,,,,,,,,,,,,,,,,,,,,,
037791,001,2022-11-20_17h49.40.187,Info_measure_main_exp,2022.2.2,Win32,59.95922773,,,,,,,,,,,,,,,,,,masks/mask_005.jpg,,,,,,,,,,,,,,,,,,,,,,,,,,,,,,,,,,,,,,,,,,,,,,,,0,2,2,4,1,,,,,,,,,,,,,,,,,,,,,,,,,,,,,,,,,,,,,,,,,
037791,001,2022-11-20_17h49.40.187,Info_measure_main_exp,2022.2.2,Win32,59.95922773,,,,,,,,,,,,,,,,,,masks/mask_003.jpg,,,,,,,,,,,,,,,,,,,,,,,,,,,,,,,,,,,,,,,,,,,,,,,,0,3,3,2,1,,,,,,,,,,,,,,,,,,,,,,,,,,,,,,,,,,,,,,,,,
037791,001,2022-11-20_17h49.40.187,Info_measure_main_exp,2022.2.2,Win32,59.95922773,,,,,,,,,,,,,,,,,,masks/mask_004.jpg,,,,,,,,,,,,,,,,,,,,,,,,,,,,,,,,,,,,,,,,,,,,,,,,0,4,4,3,1,,,,,,,,,,,,,,,,,,,,,,,,,,,,,,,,,,,,,,,,,
037791,001,2022-11-20_17h49.40.187,Info_measure_main_exp,2022.2.2,Win32,59.95922773,,,,,,,,,,,,,,,,,,,,,,,,,,,,,,7,0.7497,1,,,,,,,,,,,,0,131,5,5,2082,1986,absent_patch/patch0002082.jpg,absent_patch/patch0001986.jpg,,,,,,,,,,,,,,,,,,,,0.022222222,0.058333333,1,0,0,response1disk,30,0.010185185,-0.001851852,1,0,0,center_square,0,29,29,94,1,,,,,,,,,,,,,,,,,,,,,,,
037791,001,2022-11-20_17h49.40.187,Info_measure_main_exp,2022.2.2,Win32,59.95922773,,,,,,,,,,,,,,,,,,masks/mask_002.jpg,,,,,,,,,,,,,,,,,,,,,,,,,,,,,,,,,,,,,,,,,,,0,0,0,1,1,,,,,,,,,,,,,,,,,,,,,,,,,,,,,,,,,,,,,,,,,,,,,,
037791,001,2022-11-20_17h49.40.187,Info_measure_main_exp,2022.2.2,Win32,59.95922773,,,,,,,,,,,,,,,,,,masks/mask_004.jpg,,,,,,,,,,,,,,,,,,,,,,,,,,,,,,,,,,,,,,,,,,,0,1,1,3,1,,,,,,,,,,,,,,,,,,,,,,,,,,,,,,,,,,,,,,,,,,,,,,
037791,001,2022-11-20_17h49.40.187,Info_measure_main_exp,2022.2.2,Win32,59.95922773,,,,,,,,,,,,,,,,,,masks/mask_003.jpg,,,,,,,,,,,,,,,,,,,,,,,,,,,,,,,,,,,,,,,,,,,0,2,2,2,1,,,,,,,,,,,,,,,,,,,,,,,,,,,,,,,,,,,,,,,,,,,,,,
037791,001,2022-11-20_17h49.40.187,Info_measure_main_exp,2022.2.2,Win32,59.95922773,,,,,,,,,,,,,,,,,,masks/mask_005.jpg,,,,,,,,,,,,,,,,,,,,,,,,,,,,,,,,,,,,,,,,,,,0,3,3,4,1,,,,,,,,,,,,,,,,,,,,,,,,,,,,,,,,,,,,,,,,,,,,,,
037791,001,2022-11-20_17h49.40.187,Info_measure_main_exp,2022.2.2,Win32,59.95922773,,,,,,,,,,,,,,,,,,masks/mask_001.jpg,,,,,,,,,,,,,,,,,,,,,,,,,,,,,,,,,,,,,,,,,,,0,4,4,0,1,,,,,,,,,,,,,,,,,,,,,,,,,,,,,,,,,,,,,,,,,,,,,,
037791,001,2022-11-20_17h49.40.187,Info_measure_main_exp,2022.2.2,Win32,59.95922773,,,,,,,,,,,,,,,,,,masks/mask_002.jpg,,,,,,,,,,,,,,,,,,,,,,,,,,,,,,,,,,,,,,,,,,,,,,,,0,0,0,1,1,,,,,,,,,,,,,,,,,,,,,,,,,,,,,,,,,,,,,,,,,
037791,001,2022-11-20_17h49.40.187,Info_measure_main_exp,2022.2.2,Win32,59.95922773,,,,,,,,,,,,,,,,,,masks/mask_003.jpg,,,,,,,,,,,,,,,,,,,,,,,,,,,,,,,,,,,,,,,,,,,,,,,,0,1,1,2,1,,,,,,,,,,,,,,,,,,,,,,,,,,,,,,,,,,,,,,,,,
037791,001,2022-11-20_17h49.40.187,Info_measure_main_exp,2022.2.2,Win32,59.95922773,,,,,,,,,,,,,,,,,,masks/mask_001.jpg,,,,,,,,,,,,,,,,,,,,,,,,,,,,,,,,,,,,,,,,,,,,,,,,0,2,2,0,1,,,,,,,,,,,,,,,,,,,,,,,,,,,,,,,,,,,,,,,,,
037791,001,2022-11-20_17h49.40.187,Info_measure_main_exp,2022.2.2,Win32,59.95922773,,,,,,,,,,,,,,,,,,masks/mask_004.jpg,,,,,,,,,,,,,,,,,,,,,,,,,,,,,,,,,,,,,,,,,,,,,,,,0,3,3,3,1,,,,,,,,,,,,,,,,,,,,,,,,,,,,,,,,,,,,,,,,,
037791,001,2022-11-20_17h49.40.187,Info_measure_main_exp,2022.2.2,Win32,59.95922773,,,,,,,,,,,,,,,,,,masks/mask_005.jpg,,,,,,,,,,,,,,,,,,,,,,,,,,,,,,,,,,,,,,,,,,,,,,,,0,4,4,4,1,,,,,,,,,,,,,,,,,,,,,,,,,,,,,,,,,,,,,,,,,
037791,001,2022-11-20_17h49.40.187,Info_measure_main_exp,2022.2.2,Win32,59.95922773,,,,,,,,,,,,,,,,,,,,,,,,,,,,,,7,0.7831,1,,,,,,,,,,,,0,131,5,5,1974,2250,absent_patch/patch0001974.jpg,absent_patch/patch0002250.jpg,,,,,,,,,,,,,,,,,,,,0.040740741,0.07037037,1,0,0,response1disk,31,0.003703704,-0.010185185,1,0,0,center_square,0,30,30,55,1,,,,,,,,,,,,,,,,,,,,,,,
037791,001,2022-11-20_17h49.40.187,Info_measure_main_exp,2022.2.2,Win32,59.95922773,,,,,,,,,,,,,,,,,,masks/mask_002.jpg,,,,,,,,,,,,,,,,,,,,,,,,,,,,,,,,,,,,,,,,,,,0,0,0,1,1,,,,,,,,,,,,,,,,,,,,,,,,,,,,,,,,,,,,,,,,,,,,,,
037791,001,2022-11-20_17h49.40.187,Info_measure_main_exp,2022.2.2,Win32,59.95922773,,,,,,,,,,,,,,,,,,masks/mask_001.jpg,,,,,,,,,,,,,,,,,,,,,,,,,,,,,,,,,,,,,,,,,,,0,1,1,0,1,,,,,,,,,,,,,,,,,,,,,,,,,,,,,,,,,,,,,,,,,,,,,,
037791,001,2022-11-20_17h49.40.187,Info_measure_main_exp,2022.2.2,Win32,59.95922773,,,,,,,,,,,,,,,,,,masks/mask_005.jpg,,,,,,,,,,,,,,,,,,,,,,,,,,,,,,,,,,,,,,,,,,,0,2,2,4,1,,,,,,,,,,,,,,,,,,,,,,,,,,,,,,,,,,,,,,,,,,,,,,
037791,001,2022-11-20_17h49.40.187,Info_measure_main_exp,2022.2.2,Win32,59.95922773,,,,,,,,,,,,,,,,,,masks/mask_003.jpg,,,,,,,,,,,,,,,,,,,,,,,,,,,,,,,,,,,,,,,,,,,0,3,3,2,1,,,,,,,,,,,,,,,,,,,,,,,,,,,,,,,,,,,,,,,,,,,,,,
037791,001,2022-11-20_17h49.40.187,Info_measure_main_exp,2022.2.2,Win32,59.95922773,,,,,,,,,,,,,,,,,,masks/mask_004.jpg,,,,,,,,,,,,,,,,,,,,,,,,,,,,,,,,,,,,,,,,,,,0,4,4,3,1,,,,,,,,,,,,,,,,,,,,,,,,,,,,,,,,,,,,,,,,,,,,,,
037791,001,2022-11-20_17h49.40.187,Info_measure_main_exp,2022.2.2,Win32,59.95922773,,,,,,,,,,,,,,,,,,masks/mask_001.jpg,,,,,,,,,,,,,,,,,,,,,,,,,,,,,,,,,,,,,,,,,,,,,,,,0,0,0,0,1,,,,,,,,,,,,,,,,,,,,,,,,,,,,,,,,,,,,,,,,,
037791,001,2022-11-20_17h49.40.187,Info_measure_main_exp,2022.2.2,Win32,59.95922773,,,,,,,,,,,,,,,,,,masks/mask_002.jpg,,,,,,,,,,,,,,,,,,,,,,,,,,,,,,,,,,,,,,,,,,,,,,,,0,1,1,1,1,,,,,,,,,,,,,,,,,,,,,,,,,,,,,,,,,,,,,,,,,
037791,001,2022-11-20_17h49.40.187,Info_measure_main_exp,2022.2.2,Win32,59.95922773,,,,,,,,,,,,,,,,,,masks/mask_005.jpg,,,,,,,,,,,,,,,,,,,,,,,,,,,,,,,,,,,,,,,,,,,,,,,,0,2,2,4,1,,,,,,,,,,,,,,,,,,,,,,,,,,,,,,,,,,,,,,,,,
037791,001,2022-11-20_17h49.40.187,Info_measure_main_exp,2022.2.2,Win32,59.95922773,,,,,,,,,,,,,,,,,,masks/mask_004.jpg,,,,,,,,,,,,,,,,,,,,,,,,,,,,,,,,,,,,,,,,,,,,,,,,0,3,3,3,1,,,,,,,,,,,,,,,,,,,,,,,,,,,,,,,,,,,,,,,,,
037791,001,2022-11-20_17h49.40.187,Info_measure_main_exp,2022.2.2,Win32,59.95922773,,,,,,,,,,,,,,,,,,masks/mask_003.jpg,,,,,,,,,,,,,,,,,,,,,,,,,,,,,,,,,,,,,,,,,,,,,,,,0,4,4,2,1,,,,,,,,,,,,,,,,,,,,,,,,,,,,,,,,,,,,,,,,,
037791,001,2022-11-20_17h49.40.187,Info_measure_main_exp,2022.2.2,Win32,59.95922773,,,,,,,,,,,,,,,,,,,,,,,,,,,,,,5,2.6499,1,,,,,,,,,,,,0,131,5,5,2298,2190,absent_patch/patch0002298.jpg,absent_patch/patch0002190.jpg,,,,,,,,,,,,,,,,,,,,0.085185185,-0.053703704,1,0,0,response3disk,32,-0.000925926,-0.005555556,1,0,0,center_square,0,31,31,20,1,,,,,,,,,,,,,,,,,,,,,,,
037791,001,2022-11-20_17h49.40.187,Info_measure_main_exp,2022.2.2,Win32,59.95922773,,,,,,,,,,,,,,,,,,masks/mask_005.jpg,,,,,,,,,,,,,,,,,,,,,,,,,,,,,,,,,,,,,,,,,,,0,0,0,4,1,,,,,,,,,,,,,,,,,,,,,,,,,,,,,,,,,,,,,,,,,,,,,,
037791,001,2022-11-20_17h49.40.187,Info_measure_main_exp,2022.2.2,Win32,59.95922773,,,,,,,,,,,,,,,,,,masks/mask_004.jpg,,,,,,,,,,,,,,,,,,,,,,,,,,,,,,,,,,,,,,,,,,,0,1,1,3,1,,,,,,,,,,,,,,,,,,,,,,,,,,,,,,,,,,,,,,,,,,,,,,
037791,001,2022-11-20_17h49.40.187,Info_measure_main_exp,2022.2.2,Win32,59.95922773,,,,,,,,,,,,,,,,,,masks/mask_002.jpg,,,,,,,,,,,,,,,,,,,,,,,,,,,,,,,,,,,,,,,,,,,0,2,2,1,1,,,,,,,,,,,,,,,,,,,,,,,,,,,,,,,,,,,,,,,,,,,,,,
037791,001,2022-11-20_17h49.40.187,Info_measure_main_exp,2022.2.2,Win32,59.95922773,,,,,,,,,,,,,,,,,,masks/mask_001.jpg,,,,,,,,,,,,,,,,,,,,,,,,,,,,,,,,,,,,,,,,,,,0,3,3,0,1,,,,,,,,,,,,,,,,,,,,,,,,,,,,,,,,,,,,,,,,,,,,,,
037791,001,2022-11-20_17h49.40.187,Info_measure_main_exp,2022.2.2,Win32,59.95922773,,,,,,,,,,,,,,,,,,masks/mask_003.jpg,,,,,,,,,,,,,,,,,,,,,,,,,,,,,,,,,,,,,,,,,,,0,4,4,2,1,,,,,,,,,,,,,,,,,,,,,,,,,,,,,,,,,,,,,,,,,,,,,,
037791,001,2022-11-20_17h49.40.187,Info_measure_main_exp,2022.2.2,Win32,59.95922773,,,,,,,,,,,,,,,,,,masks/mask_004.jpg,,,,,,,,,,,,,,,,,,,,,,,,,,,,,,,,,,,,,,,,,,,,,,,,0,0,0,3,1,,,,,,,,,,,,,,,,,,,,,,,,,,,,,,,,,,,,,,,,,
037791,001,2022-11-20_17h49.40.187,Info_measure_main_exp,2022.2.2,Win32,59.95922773,,,,,,,,,,,,,,,,,,masks/mask_005.jpg,,,,,,,,,,,,,,,,,,,,,,,,,,,,,,,,,,,,,,,,,,,,,,,,0,1,1,4,1,,,,,,,,,,,,,,,,,,,,,,,,,,,,,,,,,,,,,,,,,
037791,001,2022-11-20_17h49.40.187,Info_measure_main_exp,2022.2.2,Win32,59.95922773,,,,,,,,,,,,,,,,,,masks/mask_003.jpg,,,,,,,,,,,,,,,,,,,,,,,,,,,,,,,,,,,,,,,,,,,,,,,,0,2,2,2,1,,,,,,,,,,,,,,,,,,,,,,,,,,,,,,,,,,,,,,,,,
037791,001,2022-11-20_17h49.40.187,Info_measure_main_exp,2022.2.2,Win32,59.95922773,,,,,,,,,,,,,,,,,,masks/mask_002.jpg,,,,,,,,,,,,,,,,,,,,,,,,,,,,,,,,,,,,,,,,,,,,,,,,0,3,3,1,1,,,,,,,,,,,,,,,,,,,,,,,,,,,,,,,,,,,,,,,,,
037791,001,2022-11-20_17h49.40.187,Info_measure_main_exp,2022.2.2,Win32,59.95922773,,,,,,,,,,,,,,,,,,masks/mask_001.jpg,,,,,,,,,,,,,,,,,,,,,,,,,,,,,,,,,,,,,,,,,,,,,,,,0,4,4,0,1,,,,,,,,,,,,,,,,,,,,,,,,,,,,,,,,,,,,,,,,,
037791,001,2022-11-20_17h49.40.187,Info_measure_main_exp,2022.2.2,Win32,59.95922773,,,,,,,,,,,,,,,,,,,,,,,,,,,,,,7,0.5333,1,,,,,,,,,,,,0,131,5,5,2142,2154,absent_patch/patch0002142.jpg,absent_patch/patch0002154.jpg,,,,,,,,,,,,,,,,,,,,0.023148148,0.047222222,1,0,0,response1disk,33,-0.005555556,0.00462963,1,0,0,center_square,0,32,32,9,1,,,,,,,,,,,,,,,,,,,,,,,
037791,001,2022-11-20_17h49.40.187,Info_measure_main_exp,2022.2.2,Win32,59.95922773,,,,,,,,,,,,,,,,,,masks/mask_002.jpg,,,,,,,,,,,,,,,,,,,,,,,,,,,,,,,,,,,,,,,,,,,0,0,0,1,1,,,,,,,,,,,,,,,,,,,,,,,,,,,,,,,,,,,,,,,,,,,,,,
037791,001,2022-11-20_17h49.40.187,Info_measure_main_exp,2022.2.2,Win32,59.95922773,,,,,,,,,,,,,,,,,,masks/mask_005.jpg,,,,,,,,,,,,,,,,,,,,,,,,,,,,,,,,,,,,,,,,,,,0,1,1,4,1,,,,,,,,,,,,,,,,,,,,,,,,,,,,,,,,,,,,,,,,,,,,,,
037791,001,2022-11-20_17h49.40.187,Info_measure_main_exp,2022.2.2,Win32,59.95922773,,,,,,,,,,,,,,,,,,masks/mask_004.jpg,,,,,,,,,,,,,,,,,,,,,,,,,,,,,,,,,,,,,,,,,,,0,2,2,3,1,,,,,,,,,,,,,,,,,,,,,,,,,,,,,,,,,,,,,,,,,,,,,,
037791,001,2022-11-20_17h49.40.187,Info_measure_main_exp,2022.2.2,Win32,59.95922773,,,,,,,,,,,,,,,,,,masks/mask_001.jpg,,,,,,,,,,,,,,,,,,,,,,,,,,,,,,,,,,,,,,,,,,,0,3,3,0,1,,,,,,,,,,,,,,,,,,,,,,,,,,,,,,,,,,,,,,,,,,,,,,
037791,001,2022-11-20_17h49.40.187,Info_measure_main_exp,2022.2.2,Win32,59.95922773,,,,,,,,,,,,,,,,,,masks/mask_003.jpg,,,,,,,,,,,,,,,,,,,,,,,,,,,,,,,,,,,,,,,,,,,0,4,4,2,1,,,,,,,,,,,,,,,,,,,,,,,,,,,,,,,,,,,,,,,,,,,,,,
037791,001,2022-11-20_17h49.40.187,Info_measure_main_exp,2022.2.2,Win32,59.95922773,,,,,,,,,,,,,,,,,,masks/mask_004.jpg,,,,,,,,,,,,,,,,,,,,,,,,,,,,,,,,,,,,,,,,,,,,,,,,0,0,0,3,1,,,,,,,,,,,,,,,,,,,,,,,,,,,,,,,,,,,,,,,,,
037791,001,2022-11-20_17h49.40.187,Info_measure_main_exp,2022.2.2,Win32,59.95922773,,,,,,,,,,,,,,,,,,masks/mask_003.jpg,,,,,,,,,,,,,,,,,,,,,,,,,,,,,,,,,,,,,,,,,,,,,,,,0,1,1,2,1,,,,,,,,,,,,,,,,,,,,,,,,,,,,,,,,,,,,,,,,,
037791,001,2022-11-20_17h49.40.187,Info_measure_main_exp,2022.2.2,Win32,59.95922773,,,,,,,,,,,,,,,,,,masks/mask_005.jpg,,,,,,,,,,,,,,,,,,,,,,,,,,,,,,,,,,,,,,,,,,,,,,,,0,2,2,4,1,,,,,,,,,,,,,,,,,,,,,,,,,,,,,,,,,,,,,,,,,
037791,001,2022-11-20_17h49.40.187,Info_measure_main_exp,2022.2.2,Win32,59.95922773,,,,,,,,,,,,,,,,,,masks/mask_002.jpg,,,,,,,,,,,,,,,,,,,,,,,,,,,,,,,,,,,,,,,,,,,,,,,,0,3,3,1,1,,,,,,,,,,,,,,,,,,,,,,,,,,,,,,,,,,,,,,,,,
037791,001,2022-11-20_17h49.40.187,Info_measure_main_exp,2022.2.2,Win32,59.95922773,,,,,,,,,,,,,,,,,,masks/mask_001.jpg,,,,,,,,,,,,,,,,,,,,,,,,,,,,,,,,,,,,,,,,,,,,,,,,0,4,4,0,1,,,,,,,,,,,,,,,,,,,,,,,,,,,,,,,,,,,,,,,,,
037791,001,2022-11-20_17h49.40.187,Info_measure_main_exp,2022.2.2,Win32,59.95922773,,,,,,,,,,,,,,,,,,,,,,,,,,,,,,7,0.5998,1,,,,,,,,,,,,0,131,5,5,2250,1950,absent_patch/patch0002250.jpg,absent_patch/patch0001950.jpg,,,,,,,,,,,,,,,,,,,,0.024074074,0.065740741,1,0,0,response1disk,34,0.00462963,0.002777778,1,0,0,center_square,0,33,33,16,1,,,,,,,,,,,,,,,,,,,,,,,
037791,001,2022-11-20_17h49.40.187,Info_measure_main_exp,2022.2.2,Win32,59.95922773,,,,,,,,,,,,,,,,,,masks/mask_002.jpg,,,,,,,,,,,,,,,,,,,,,,,,,,,,,,,,,,,,,,,,,,,0,0,0,1,1,,,,,,,,,,,,,,,,,,,,,,,,,,,,,,,,,,,,,,,,,,,,,,
037791,001,2022-11-20_17h49.40.187,Info_measure_main_exp,2022.2.2,Win32,59.95922773,,,,,,,,,,,,,,,,,,masks/mask_004.jpg,,,,,,,,,,,,,,,,,,,,,,,,,,,,,,,,,,,,,,,,,,,0,1,1,3,1,,,,,,,,,,,,,,,,,,,,,,,,,,,,,,,,,,,,,,,,,,,,,,
037791,001,2022-11-20_17h49.40.187,Info_measure_main_exp,2022.2.2,Win32,59.95922773,,,,,,,,,,,,,,,,,,masks/mask_003.jpg,,,,,,,,,,,,,,,,,,,,,,,,,,,,,,,,,,,,,,,,,,,0,2,2,2,1,,,,,,,,,,,,,,,,,,,,,,,,,,,,,,,,,,,,,,,,,,,,,,
037791,001,2022-11-20_17h49.40.187,Info_measure_main_exp,2022.2.2,Win32,59.95922773,,,,,,,,,,,,,,,,,,masks/mask_005.jpg,,,,,,,,,,,,,,,,,,,,,,,,,,,,,,,,,,,,,,,,,,,0,3,3,4,1,,,,,,,,,,,,,,,,,,,,,,,,,,,,,,,,,,,,,,,,,,,,,,
037791,001,2022-11-20_17h49.40.187,Info_measure_main_exp,2022.2.2,Win32,59.95922773,,,,,,,,,,,,,,,,,,masks/mask_001.jpg,,,,,,,,,,,,,,,,,,,,,,,,,,,,,,,,,,,,,,,,,,,0,4,4,0,1,,,,,,,,,,,,,,,,,,,,,,,,,,,,,,,,,,,,,,,,,,,,,,
037791,001,2022-11-20_17h49.40.187,Info_measure_main_exp,2022.2.2,Win32,59.95922773,,,,,,,,,,,,,,,,,,masks/mask_003.jpg,,,,,,,,,,,,,,,,,,,,,,,,,,,,,,,,,,,,,,,,,,,,,,,,0,0,0,2,1,,,,,,,,,,,,,,,,,,,,,,,,,,,,,,,,,,,,,,,,,
037791,001,2022-11-20_17h49.40.187,Info_measure_main_exp,2022.2.2,Win32,59.95922773,,,,,,,,,,,,,,,,,,masks/mask_004.jpg,,,,,,,,,,,,,,,,,,,,,,,,,,,,,,,,,,,,,,,,,,,,,,,,0,1,1,3,1,,,,,,,,,,,,,,,,,,,,,,,,,,,,,,,,,,,,,,,,,
037791,001,2022-11-20_17h49.40.187,Info_measure_main_exp,2022.2.2,Win32,59.95922773,,,,,,,,,,,,,,,,,,masks/mask_001.jpg,,,,,,,,,,,,,,,,,,,,,,,,,,,,,,,,,,,,,,,,,,,,,,,,0,2,2,0,1,,,,,,,,,,,,,,,,,,,,,,,,,,,,,,,,,,,,,,,,,
037791,001,2022-11-20_17h49.40.187,Info_measure_main_exp,2022.2.2,Win32,59.95922773,,,,,,,,,,,,,,,,,,masks/mask_005.jpg,,,,,,,,,,,,,,,,,,,,,,,,,,,,,,,,,,,,,,,,,,,,,,,,0,3,3,4,1,,,,,,,,,,,,,,,,,,,,,,,,,,,,,,,,,,,,,,,,,
