participant,session,date,expName,psychopyVersion,OS,frameRate,space_press_continue.keys,space_press_continue.rt,space_press_continue_2.keys,space_press_continue_2.rt,space_press_continue_3.keys,space_press_continue_3.rt,space_press_continue_4.keys,space_press_continue_4.rt,space_press_continue_5.keys,space_press_continue_5.rt,space_press_continue_6.keys,space_press_continue_6.rt,prac_mask_loop_1.thisRepN,prac_mask_loop_1.thisTrialN,prac_mask_loop_1.thisN,prac_mask_loop_1.thisIndex,prac_mask_loop_1.ran,mask_name,prac_mask_loop_2.thisRepN,prac_mask_loop_2.thisTrialN,prac_mask_loop_2.thisN,prac_mask_loop_2.thisIndex,prac_mask_loop_2.ran,mouse_2.x,mouse_2.y,mouse_2.leftButton,mouse_2.midButton,mouse_2.rightButton,mouse_2.clicked_name,similarity,response_time,Pass,mouse_12.x,mouse_12.y,mouse_12.leftButton,mouse_12.midButton,mouse_12.rightButton,mouse_12.clicked_name,prac_loop.thisRepN,prac_loop.thisTrialN,prac_loop.thisN,prac_loop.thisIndex,prac_loop.ran,Pair_type,Image_num,Patch_1_loc,Patch_2_loc,Patch_1_info,Patch_2_info,Patch_1_name,Patch_2_name,mouse_1.x,mouse_1.y,mouse_1.leftButton,mouse_1.midButton,mouse_1.rightButton,mouse_1.time,mouse_1.clicked_name,space_press_continue_7.keys,space_press_continue_7.rt,mask_loop.thisRepN,mask_loop.thisTrialN,mask_loop.thisN,mask_loop.thisIndex,mask_loop.ran,mask_loop_2.thisRepN,mask_loop_2.thisTrialN,mask_loop_2.thisN,mask_loop_2.thisIndex,mask_loop_2.ran,mouse.x,mouse.y,mouse.leftButton,mouse.midButton,mouse.rightButton,mouse.clicked_name,trialNumber,mouse_11.x,mouse_11.y,mouse_11.leftButton,mouse_11.midButton,mouse_11.rightButton,mouse_11.clicked_name,first_pass_loop.thisRepN,first_pass_loop.thisTrialN,first_pass_loop.thisN,first_pass_loop.thisIndex,first_pass_loop.ran,mask_loop_3.thisRepN,mask_loop_3.thisTrialN,mask_loop_3.thisN,mask_loop_3.thisIndex,mask_loop_3.ran,mask_loop_4.thisRepN,mask_loop_4.thisTrialN,mask_loop_4.thisN,mask_loop_4.thisIndex,mask_loop_4.ran,mouse_3.x,mouse_3.y,mouse_3.leftButton,mouse_3.midButton,mouse_3.rightButton,mouse_3.clicked_name,double_pass_loop.thisRepN,double_pass_loop.thisTrialN,double_pass_loop.thisN,double_pass_loop.thisIndex,double_pass_loop.ran,space_exit.keys,space_exit.rt
042437,001,2022-11-20_17h56.42.836,Info_measure_main_exp,2022.2.2,Win32,60.14675809,,,,,,,,,,,,,,,,,,,,,,,,,,,,,,,,,,,,,,,,,,,,,,,,,,,,,,,,,,,,,,,,,,,,,,,,,,,,,,,,,,,,,,,,,,,,,,,,,,,,,,,,,,,,,,,
042437,001,2022-11-20_17h56.42.836,Info_measure_main_exp,2022.2.2,Win32,60.14675809,,,,,,,,,,,,,,,,,,,,,,,,,,,,,,,,,,,,,,,,,,,,,,,,,,,,,,,,,,,,,,,,,,,,,,,,,,,,,,,,,,,,,,,,,,,,,,,,,,,,,,,,,,,,,,,
042437,001,2022-11-20_17h56.42.836,Info_measure_main_exp,2022.2.2,Win32,60.14675809,space,26.5317,,,,,,,,,,,,,,,,,,,,,,,,,,,,,,,,,,,,,,,,,,,,,,,,,,,,,,,,,,,,,,,,,,,,,,,,,,,,,,,,,,,,,,,,,,,,,,,,,,,,,,,,,,,,,
042437,001,2022-11-20_17h56.42.836,Info_measure_main_exp,2022.2.2,Win32,60.14675809,,,space,43.1908,,,,,,,,,,,,,,,,,,,,,,,,,,,,,,,,,,,,,,,,,,,,,,,,,,,,,,,,,,,,,,,,,,,,,,,,,,,,,,,,,,,,,,,,,,,,,,,,,,,,,,,,,,,
042437,001,2022-11-20_17h56.42.836,Info_measure_main_exp,2022.2.2,Win32,60.14675809,,,,,space,16.4695,,,,,,,,,,,,,,,,,,,,,,,,,,,,,,,,,,,,,,,,,,,,,,,,,,,,,,,,,,,,,,,,,,,,,,,,,,,,,,,,,,,,,,,,,,,,,,,,,,,,,,,,,
042437,001,2022-11-20_17h56.42.836,Info_measure_main_exp,2022.2.2,Win32,60.14675809,,,,,,,space,28.0003,,,,,,,,,,,,,,,,,,,,,,,,,,,,,,,,,,,,,,,,,,,,,,,,,,,,,,,,,,,,,,,,,,,,,,,,,,,,,,,,,,,,,,,,,,,,,,,,,,,,,,,
042437,001,2022-11-20_17h56.42.836,Info_measure_main_exp,2022.2.2,Win32,60.14675809,,,,,,,,,space,18.431,,,,,,,,,,,,,,,,,,,,,,,,,,,,,,,,,,,,,,,,,,,,,,,,,,,,,,,,,,,,,,,,,,,,,,,,,,,,,,,,,,,,,,,,,,,,,,,,,,,,,
042437,001,2022-11-20_17h56.42.836,Info_measure_main_exp,2022.2.2,Win32,60.14675809,,,,,,,,,,,space,7.0273,,,,,,,,,,,,,,,,,,,,,,,,,,,,,,,,,,,,,,,,,,,,,,,,,,,,,,,,,,,,,,,,,,,,,,,,,,,,,,,,,,,,,,,,,,,,,,,,,,,
042437,001,2022-11-20_17h56.42.836,Info_measure_main_exp,2022.2.2,Win32,60.14675809,,,,,,,,,,,,,0,0,0,1,1,masks/mask_002.jpg,,,,,,,,,,,,,,,,,,,,,,,,,,,,,,,,,,,,,,,,,,,,,,,,,,,,,,,,,,,,,,,,,,,,,,,,,,,,,,,,,,,,,,,,,,,,,
042437,001,2022-11-20_17h56.42.836,Info_measure_main_exp,2022.2.2,Win32,60.14675809,,,,,,,,,,,,,0,1,1,3,1,masks/mask_004.jpg,,,,,,,,,,,,,,,,,,,,,,,,,,,,,,,,,,,,,,,,,,,,,,,,,,,,,,,,,,,,,,,,,,,,,,,,,,,,,,,,,,,,,,,,,,,,,
042437,001,2022-11-20_17h56.42.836,Info_measure_main_exp,2022.2.2,Win32,60.14675809,,,,,,,,,,,,,0,2,2,4,1,masks/mask_005.jpg,,,,,,,,,,,,,,,,,,,,,,,,,,,,,,,,,,,,,,,,,,,,,,,,,,,,,,,,,,,,,,,,,,,,,,,,,,,,,,,,,,,,,,,,,,,,,
042437,001,2022-11-20_17h56.42.836,Info_measure_main_exp,2022.2.2,Win32,60.14675809,,,,,,,,,,,,,0,3,3,2,1,masks/mask_003.jpg,,,,,,,,,,,,,,,,,,,,,,,,,,,,,,,,,,,,,,,,,,,,,,,,,,,,,,,,,,,,,,,,,,,,,,,,,,,,,,,,,,,,,,,,,,,,,
042437,001,2022-11-20_17h56.42.836,Info_measure_main_exp,2022.2.2,Win32,60.14675809,,,,,,,,,,,,,0,4,4,0,1,masks/mask_001.jpg,,,,,,,,,,,,,,,,,,,,,,,,,,,,,,,,,,,,,,,,,,,,,,,,,,,,,,,,,,,,,,,,,,,,,,,,,,,,,,,,,,,,,,,,,,,,,
042437,001,2022-11-20_17h56.42.836,Info_measure_main_exp,2022.2.2,Win32,60.14675809,,,,,,,,,,,,,,,,,,masks/mask_004.jpg,0,0,0,3,1,,,,,,,,,,,,,,,,,,,,,,,,,,,,,,,,,,,,,,,,,,,,,,,,,,,,,,,,,,,,,,,,,,,,,,,,,,,,,,,,,,,,,,,,
042437,001,2022-11-20_17h56.42.836,Info_measure_main_exp,2022.2.2,Win32,60.14675809,,,,,,,,,,,,,,,,,,masks/mask_003.jpg,0,1,1,2,1,,,,,,,,,,,,,,,,,,,,,,,,,,,,,,,,,,,,,,,,,,,,,,,,,,,,,,,,,,,,,,,,,,,,,,,,,,,,,,,,,,,,,,,,
042437,001,2022-11-20_17h56.42.836,Info_measure_main_exp,2022.2.2,Win32,60.14675809,,,,,,,,,,,,,,,,,,masks/mask_001.jpg,0,2,2,0,1,,,,,,,,,,,,,,,,,,,,,,,,,,,,,,,,,,,,,,,,,,,,,,,,,,,,,,,,,,,,,,,,,,,,,,,,,,,,,,,,,,,,,,,,
042437,001,2022-11-20_17h56.42.836,Info_measure_main_exp,2022.2.2,Win32,60.14675809,,,,,,,,,,,,,,,,,,masks/mask_002.jpg,0,3,3,1,1,,,,,,,,,,,,,,,,,,,,,,,,,,,,,,,,,,,,,,,,,,,,,,,,,,,,,,,,,,,,,,,,,,,,,,,,,,,,,,,,,,,,,,,,
042437,001,2022-11-20_17h56.42.836,Info_measure_main_exp,2022.2.2,Win32,60.14675809,,,,,,,,,,,,,,,,,,masks/mask_005.jpg,0,4,4,4,1,,,,,,,,,,,,,,,,,,,,,,,,,,,,,,,,,,,,,,,,,,,,,,,,,,,,,,,,,,,,,,,,,,,,,,,,,,,,,,,,,,,,,,,,
042437,001,2022-11-20_17h56.42.836,Info_measure_main_exp,2022.2.2,Win32,60.14675809,,,,,,,,,,,,,,,,,,,,,,,,0.130555541,0.063888868,1,0,0,response1disk,6,144.1099,1,-0.00462963,-0.00462963,1,0,0,center_square,0,0,0,1,1,0,131,5,5,2514,2490,prac_patch/patch0002514.jpg,prac_patch/patch0002490.jpg,,,,,,,,,,,,,,,,,,,,,,,,,,,,,,,,,,,,,,,,,,,,,,,,,,,,,,,,,,,,
042437,001,2022-11-20_17h56.42.836,Info_measure_main_exp,2022.2.2,Win32,60.14675809,,,,,,,,,,,,,0,0,0,4,1,masks/mask_005.jpg,,,,,,,,,,,,,,,,,,,,,,,,,,,,,,,,,,,,,,,,,,,,,,,,,,,,,,,,,,,,,,,,,,,,,,,,,,,,,,,,,,,,,,,,,,,,,
042437,001,2022-11-20_17h56.42.836,Info_measure_main_exp,2022.2.2,Win32,60.14675809,,,,,,,,,,,,,0,1,1,0,1,masks/mask_001.jpg,,,,,,,,,,,,,,,,,,,,,,,,,,,,,,,,,,,,,,,,,,,,,,,,,,,,,,,,,,,,,,,,,,,,,,,,,,,,,,,,,,,,,,,,,,,,,
042437,001,2022-11-20_17h56.42.836,Info_measure_main_exp,2022.2.2,Win32,60.14675809,,,,,,,,,,,,,0,2,2,2,1,masks/mask_003.jpg,,,,,,,,,,,,,,,,,,,,,,,,,,,,,,,,,,,,,,,,,,,,,,,,,,,,,,,,,,,,,,,,,,,,,,,,,,,,,,,,,,,,,,,,,,,,,
042437,001,2022-11-20_17h56.42.836,Info_measure_main_exp,2022.2.2,Win32,60.14675809,,,,,,,,,,,,,0,3,3,1,1,masks/mask_002.jpg,,,,,,,,,,,,,,,,,,,,,,,,,,,,,,,,,,,,,,,,,,,,,,,,,,,,,,,,,,,,,,,,,,,,,,,,,,,,,,,,,,,,,,,,,,,,,
042437,001,2022-11-20_17h56.42.836,Info_measure_main_exp,2022.2.2,Win32,60.14675809,,,,,,,,,,,,,0,4,4,3,1,masks/mask_004.jpg,,,,,,,,,,,,,,,,,,,,,,,,,,,,,,,,,,,,,,,,,,,,,,,,,,,,,,,,,,,,,,,,,,,,,,,,,,,,,,,,,,,,,,,,,,,,,
042437,001,2022-11-20_17h56.42.836,Info_measure_main_exp,2022.2.2,Win32,60.14675809,,,,,,,,,,,,,,,,,,masks/mask_003.jpg,0,0,0,2,1,,,,,,,,,,,,,,,,,,,,,,,,,,,,,,,,,,,,,,,,,,,,,,,,,,,,,,,,,,,,,,,,,,,,,,,,,,,,,,,,,,,,,,,,
042437,001,2022-11-20_17h56.42.836,Info_measure_main_exp,2022.2.2,Win32,60.14675809,,,,,,,,,,,,,,,,,,masks/mask_001.jpg,0,1,1,0,1,,,,,,,,,,,,,,,,,,,,,,,,,,,,,,,,,,,,,,,,,,,,,,,,,,,,,,,,,,,,,,,,,,,,,,,,,,,,,,,,,,,,,,,,
042437,001,2022-11-20_17h56.42.836,Info_measure_main_exp,2022.2.2,Win32,60.14675809,,,,,,,,,,,,,,,,,,masks/mask_002.jpg,0,2,2,1,1,,,,,,,,,,,,,,,,,,,,,,,,,,,,,,,,,,,,,,,,,,,,,,,,,,,,,,,,,,,,,,,,,,,,,,,,,,,,,,,,,,,,,,,,
042437,001,2022-11-20_17h56.42.836,Info_measure_main_exp,2022.2.2,Win32,60.14675809,,,,,,,,,,,,,,,,,,masks/mask_005.jpg,0,3,3,4,1,,,,,,,,,,,,,,,,,,,,,,,,,,,,,,,,,,,,,,,,,,,,,,,,,,,,,,,,,,,,,,,,,,,,,,,,,,,,,,,,,,,,,,,,
042437,001,2022-11-20_17h56.42.836,Info_measure_main_exp,2022.2.2,Win32,60.14675809,,,,,,,,,,,,,,,,,,masks/mask_004.jpg,0,4,4,3,1,,,,,,,,,,,,,,,,,,,,,,,,,,,,,,,,,,,,,,,,,,,,,,,,,,,,,,,,,,,,,,,,,,,,,,,,,,,,,,,,,,,,,,,,
042437,001,2022-11-20_17h56.42.836,Info_measure_main_exp,2022.2.2,Win32,60.14675809,,,,,,,,,,,,,,,,,,,,,,,,0.040740755,-0.026851866,1,0,0,response3disk,5,158.2043,1,-0.001851824,-0.000925947,1,0,0,center_square,0,1,1,2,1,0,131,5,5,2526,2526,prac_patch/patch0002526.jpg,prac_patch/patch0002526.jpg,,,,,,,,,,,,,,,,,,,,,,,,,,,,,,,,,,,,,,,,,,,,,,,,,,,,,,,,,,,,
042437,001,2022-11-20_17h56.42.836,Info_measure_main_exp,2022.2.2,Win32,60.14675809,,,,,,,,,,,,,0,0,0,4,1,masks/mask_005.jpg,,,,,,,,,,,,,,,,,,,,,,,,,,,,,,,,,,,,,,,,,,,,,,,,,,,,,,,,,,,,,,,,,,,,,,,,,,,,,,,,,,,,,,,,,,,,,
042437,001,2022-11-20_17h56.42.836,Info_measure_main_exp,2022.2.2,Win32,60.14675809,,,,,,,,,,,,,0,1,1,2,1,masks/mask_003.jpg,,,,,,,,,,,,,,,,,,,,,,,,,,,,,,,,,,,,,,,,,,,,,,,,,,,,,,,,,,,,,,,,,,,,,,,,,,,,,,,,,,,,,,,,,,,,,
042437,001,2022-11-20_17h56.42.836,Info_measure_main_exp,2022.2.2,Win32,60.14675809,,,,,,,,,,,,,0,2,2,3,1,masks/mask_004.jpg,,,,,,,,,,,,,,,,,,,,,,,,,,,,,,,,,,,,,,,,,,,,,,,,,,,,,,,,,,,,,,,,,,,,,,,,,,,,,,,,,,,,,,,,,,,,,
042437,001,2022-11-20_17h56.42.836,Info_measure_main_exp,2022.2.2,Win32,60.14675809,,,,,,,,,,,,,0,3,3,0,1,masks/mask_001.jpg,,,,,,,,,,,,,,,,,,,,,,,,,,,,,,,,,,,,,,,,,,,,,,,,,,,,,,,,,,,,,,,,,,,,,,,,,,,,,,,,,,,,,,,,,,,,,
042437,001,2022-11-20_17h56.42.836,Info_measure_main_exp,2022.2.2,Win32,60.14675809,,,,,,,,,,,,,0,4,4,1,1,masks/mask_002.jpg,,,,,,,,,,,,,,,,,,,,,,,,,,,,,,,,,,,,,,,,,,,,,,,,,,,,,,,,,,,,,,,,,,,,,,,,,,,,,,,,,,,,,,,,,,,,,
042437,001,2022-11-20_17h56.42.836,Info_measure_main_exp,2022.2.2,Win32,60.14675809,,,,,,,,,,,,,,,,,,masks/mask_003.jpg,0,0,0,2,1,,,,,,,,,,,,,,,,,,,,,,,,,,,,,,,,,,,,,,,,,,,,,,,,,,,,,,,,,,,,,,,,,,,,,,,,,,,,,,,,,,,,,,,,
042437,001,2022-11-20_17h56.42.836,Info_measure_main_exp,2022.2.2,Win32,60.14675809,,,,,,,,,,,,,,,,,,masks/mask_004.jpg,0,1,1,3,1,,,,,,,,,,,,,,,,,,,,,,,,,,,,,,,,,,,,,,,,,,,,,,,,,,,,,,,,,,,,,,,,,,,,,,,,,,,,,,,,,,,,,,,,
042437,001,2022-11-20_17h56.42.836,Info_measure_main_exp,2022.2.2,Win32,60.14675809,,,,,,,,,,,,,,,,,,masks/mask_001.jpg,0,2,2,0,1,,,,,,,,,,,,,,,,,,,,,,,,,,,,,,,,,,,,,,,,,,,,,,,,,,,,,,,,,,,,,,,,,,,,,,,,,,,,,,,,,,,,,,,,
042437,001,2022-11-20_17h56.42.836,Info_measure_main_exp,2022.2.2,Win32,60.14675809,,,,,,,,,,,,,,,,,,masks/mask_002.jpg,0,3,3,1,1,,,,,,,,,,,,,,,,,,,,,,,,,,,,,,,,,,,,,,,,,,,,,,,,,,,,,,,,,,,,,,,,,,,,,,,,,,,,,,,,,,,,,,,,
042437,001,2022-11-20_17h56.42.836,Info_measure_main_exp,2022.2.2,Win32,60.14675809,,,,,,,,,,,,,,,,,,masks/mask_005.jpg,0,4,4,4,1,,,,,,,,,,,,,,,,,,,,,,,,,,,,,,,,,,,,,,,,,,,,,,,,,,,,,,,,,,,,,,,,,,,,,,,,,,,,,,,,,,,,,,,,
042437,001,2022-11-20_17h56.42.836,Info_measure_main_exp,2022.2.2,Win32,60.14675809,,,,,,,,,,,,,,,,,,,,,,,,0.078703704,0.017592571,1,0,0,response1disk,6,184.3833,1,0.001851894,0.001851859,1,0,0,center_square,0,2,2,0,1,0,131,5,5,2370,2406,prac_patch/patch0002370.jpg,prac_patch/patch0002406.jpg,,,,,,,,,,,,,,,,,,,,,,,,,,,,,,,,,,,,,,,,,,,,,,,,,,,,,,,,,,,,
042437,001,2022-11-20_17h56.42.836,Info_measure_main_exp,2022.2.2,Win32,60.14675809,,,,,,,,,,,,,,,,,,,,,,,,,,,,,,,,,,,,,,,,,,,,,,,,,,,,,,,,,,,space,4.1078,,,,,,,,,,,,,,,,,,,,,,,,,,,,,,,,,,,,,,,,,,,,,,,,,,,
042437,001,2022-11-20_17h56.42.836,Info_measure_main_exp,2022.2.2,Win32,60.14675809,,,,,,,,,,,,,,,,,,masks/mask_004.jpg,,,,,,,,,,,,,,,,,,,,,,,,,,,,,,,,,,,,,,,,,,,0,0,0,3,1,,,,,,,,,,,,,,,,,,,,,,,,,,,,,,,,,,,,,,,,,,,,,,
042437,001,2022-11-20_17h56.42.836,Info_measure_main_exp,2022.2.2,Win32,60.14675809,,,,,,,,,,,,,,,,,,masks/mask_002.jpg,,,,,,,,,,,,,,,,,,,,,,,,,,,,,,,,,,,,,,,,,,,0,1,1,1,1,,,,,,,,,,,,,,,,,,,,,,,,,,,,,,,,,,,,,,,,,,,,,,
042437,001,2022-11-20_17h56.42.836,Info_measure_main_exp,2022.2.2,Win32,60.14675809,,,,,,,,,,,,,,,,,,masks/mask_003.jpg,,,,,,,,,,,,,,,,,,,,,,,,,,,,,,,,,,,,,,,,,,,0,2,2,2,1,,,,,,,,,,,,,,,,,,,,,,,,,,,,,,,,,,,,,,,,,,,,,,
042437,001,2022-11-20_17h56.42.836,Info_measure_main_exp,2022.2.2,Win32,60.14675809,,,,,,,,,,,,,,,,,,masks/mask_005.jpg,,,,,,,,,,,,,,,,,,,,,,,,,,,,,,,,,,,,,,,,,,,0,3,3,4,1,,,,,,,,,,,,,,,,,,,,,,,,,,,,,,,,,,,,,,,,,,,,,,
042437,001,2022-11-20_17h56.42.836,Info_measure_main_exp,2022.2.2,Win32,60.14675809,,,,,,,,,,,,,,,,,,masks/mask_001.jpg,,,,,,,,,,,,,,,,,,,,,,,,,,,,,,,,,,,,,,,,,,,0,4,4,0,1,,,,,,,,,,,,,,,,,,,,,,,,,,,,,,,,,,,,,,,,,,,,,,
042437,001,2022-11-20_17h56.42.836,Info_measure_main_exp,2022.2.2,Win32,60.14675809,,,,,,,,,,,,,,,,,,masks/mask_002.jpg,,,,,,,,,,,,,,,,,,,,,,,,,,,,,,,,,,,,,,,,,,,,,,,,0,0,0,1,1,,,,,,,,,,,,,,,,,,,,,,,,,,,,,,,,,,,,,,,,,
042437,001,2022-11-20_17h56.42.836,Info_measure_main_exp,2022.2.2,Win32,60.14675809,,,,,,,,,,,,,,,,,,masks/mask_005.jpg,,,,,,,,,,,,,,,,,,,,,,,,,,,,,,,,,,,,,,,,,,,,,,,,0,1,1,4,1,,,,,,,,,,,,,,,,,,,,,,,,,,,,,,,,,,,,,,,,,
042437,001,2022-11-20_17h56.42.836,Info_measure_main_exp,2022.2.2,Win32,60.14675809,,,,,,,,,,,,,,,,,,masks/mask_004.jpg,,,,,,,,,,,,,,,,,,,,,,,,,,,,,,,,,,,,,,,,,,,,,,,,0,2,2,3,1,,,,,,,,,,,,,,,,,,,,,,,,,,,,,,,,,,,,,,,,,
042437,001,2022-11-20_17h56.42.836,Info_measure_main_exp,2022.2.2,Win32,60.14675809,,,,,,,,,,,,,,,,,,masks/mask_003.jpg,,,,,,,,,,,,,,,,,,,,,,,,,,,,,,,,,,,,,,,,,,,,,,,,0,3,3,2,1,,,,,,,,,,,,,,,,,,,,,,,,,,,,,,,,,,,,,,,,,
042437,001,2022-11-20_17h56.42.836,Info_measure_main_exp,2022.2.2,Win32,60.14675809,,,,,,,,,,,,,,,,,,masks/mask_001.jpg,,,,,,,,,,,,,,,,,,,,,,,,,,,,,,,,,,,,,,,,,,,,,,,,0,4,4,0,1,,,,,,,,,,,,,,,,,,,,,,,,,,,,,,,,,,,,,,,,,
042437,001,2022-11-20_17h56.42.836,Info_measure_main_exp,2022.2.2,Win32,60.14675809,,,,,,,,,,,,,,,,,,,,,,,,,,,,,,6,2.8923,1,,,,,,,,,,,,0,131,5,5,1974,2238,absent_patch/patch0001974.jpg,absent_patch/patch0002238.jpg,,,,,,,,,,,,,,,,,,,,0.095370399,0.01203703,1,0,0,response1disk,1,0.009259259,0.002777771,1,0,0,center_square,0,0,0,95,1,,,,,,,,,,,,,,,,,,,,,,,
042437,001,2022-11-20_17h56.42.836,Info_measure_main_exp,2022.2.2,Win32,60.14675809,,,,,,,,,,,,,,,,,,masks/mask_002.jpg,,,,,,,,,,,,,,,,,,,,,,,,,,,,,,,,,,,,,,,,,,,0,0,0,1,1,,,,,,,,,,,,,,,,,,,,,,,,,,,,,,,,,,,,,,,,,,,,,,
042437,001,2022-11-20_17h56.42.836,Info_measure_main_exp,2022.2.2,Win32,60.14675809,,,,,,,,,,,,,,,,,,masks/mask_003.jpg,,,,,,,,,,,,,,,,,,,,,,,,,,,,,,,,,,,,,,,,,,,0,1,1,2,1,,,,,,,,,,,,,,,,,,,,,,,,,,,,,,,,,,,,,,,,,,,,,,
042437,001,2022-11-20_17h56.42.836,Info_measure_main_exp,2022.2.2,Win32,60.14675809,,,,,,,,,,,,,,,,,,masks/mask_004.jpg,,,,,,,,,,,,,,,,,,,,,,,,,,,,,,,,,,,,,,,,,,,0,2,2,3,1,,,,,,,,,,,,,,,,,,,,,,,,,,,,,,,,,,,,,,,,,,,,,,
042437,001,2022-11-20_17h56.42.836,Info_measure_main_exp,2022.2.2,Win32,60.14675809,,,,,,,,,,,,,,,,,,masks/mask_005.jpg,,,,,,,,,,,,,,,,,,,,,,,,,,,,,,,,,,,,,,,,,,,0,3,3,4,1,,,,,,,,,,,,,,,,,,,,,,,,,,,,,,,,,,,,,,,,,,,,,,
042437,001,2022-11-20_17h56.42.836,Info_measure_main_exp,2022.2.2,Win32,60.14675809,,,,,,,,,,,,,,,,,,masks/mask_001.jpg,,,,,,,,,,,,,,,,,,,,,,,,,,,,,,,,,,,,,,,,,,,0,4,4,0,1,,,,,,,,,,,,,,,,,,,,,,,,,,,,,,,,,,,,,,,,,,,,,,
042437,001,2022-11-20_17h56.42.836,Info_measure_main_exp,2022.2.2,Win32,60.14675809,,,,,,,,,,,,,,,,,,masks/mask_003.jpg,,,,,,,,,,,,,,,,,,,,,,,,,,,,,,,,,,,,,,,,,,,,,,,,0,0,0,2,1,,,,,,,,,,,,,,,,,,,,,,,,,,,,,,,,,,,,,,,,,
042437,001,2022-11-20_17h56.42.836,Info_measure_main_exp,2022.2.2,Win32,60.14675809,,,,,,,,,,,,,,,,,,masks/mask_005.jpg,,,,,,,,,,,,,,,,,,,,,,,,,,,,,,,,,,,,,,,,,,,,,,,,0,1,1,4,1,,,,,,,,,,,,,,,,,,,,,,,,,,,,,,,,,,,,,,,,,
042437,001,2022-11-20_17h56.42.836,Info_measure_main_exp,2022.2.2,Win32,60.14675809,,,,,,,,,,,,,,,,,,masks/mask_001.jpg,,,,,,,,,,,,,,,,,,,,,,,,,,,,,,,,,,,,,,,,,,,,,,,,0,2,2,0,1,,,,,,,,,,,,,,,,,,,,,,,,,,,,,,,,,,,,,,,,,
042437,001,2022-11-20_17h56.42.836,Info_measure_main_exp,2022.2.2,Win32,60.14675809,,,,,,,,,,,,,,,,,,masks/mask_002.jpg,,,,,,,,,,,,,,,,,,,,,,,,,,,,,,,,,,,,,,,,,,,,,,,,0,3,3,1,1,,,,,,,,,,,,,,,,,,,,,,,,,,,,,,,,,,,,,,,,,
042437,001,2022-11-20_17h56.42.836,Info_measure_main_exp,2022.2.2,Win32,60.14675809,,,,,,,,,,,,,,,,,,masks/mask_004.jpg,,,,,,,,,,,,,,,,,,,,,,,,,,,,,,,,,,,,,,,,,,,,,,,,0,4,4,3,1,,,,,,,,,,,,,,,,,,,,,,,,,,,,,,,,,,,,,,,,,
042437,001,2022-11-20_17h56.42.836,Info_measure_main_exp,2022.2.2,Win32,60.14675809,,,,,,,,,,,,,,,,,,,,,,,,,,,,,,7,3.0646,1,,,,,,,,,,,,0,131,5,5,2250,2298,absent_patch/patch0002250.jpg,absent_patch/patch0002298.jpg,,,,,,,,,,,,,,,,,,,,0.010185171,0.033333319,1,0,0,response1disk,2,0.011111153,-0.002777771,1,0,0,center_square,0,1,1,59,1,,,,,,,,,,,,,,,,,,,,,,,
042437,001,2022-11-20_17h56.42.836,Info_measure_main_exp,2022.2.2,Win32,60.14675809,,,,,,,,,,,,,,,,,,masks/mask_002.jpg,,,,,,,,,,,,,,,,,,,,,,,,,,,,,,,,,,,,,,,,,,,0,0,0,1,1,,,,,,,,,,,,,,,,,,,,,,,,,,,,,,,,,,,,,,,,,,,,,,
042437,001,2022-11-20_17h56.42.836,Info_measure_main_exp,2022.2.2,Win32,60.14675809,,,,,,,,,,,,,,,,,,masks/mask_003.jpg,,,,,,,,,,,,,,,,,,,,,,,,,,,,,,,,,,,,,,,,,,,0,1,1,2,1,,,,,,,,,,,,,,,,,,,,,,,,,,,,,,,,,,,,,,,,,,,,,,
042437,001,2022-11-20_17h56.42.836,Info_measure_main_exp,2022.2.2,Win32,60.14675809,,,,,,,,,,,,,,,,,,masks/mask_001.jpg,,,,,,,,,,,,,,,,,,,,,,,,,,,,,,,,,,,,,,,,,,,0,2,2,0,1,,,,,,,,,,,,,,,,,,,,,,,,,,,,,,,,,,,,,,,,,,,,,,
042437,001,2022-11-20_17h56.42.836,Info_measure_main_exp,2022.2.2,Win32,60.14675809,,,,,,,,,,,,,,,,,,masks/mask_005.jpg,,,,,,,,,,,,,,,,,,,,,,,,,,,,,,,,,,,,,,,,,,,0,3,3,4,1,,,,,,,,,,,,,,,,,,,,,,,,,,,,,,,,,,,,,,,,,,,,,,
042437,001,2022-11-20_17h56.42.836,Info_measure_main_exp,2022.2.2,Win32,60.14675809,,,,,,,,,,,,,,,,,,masks/mask_004.jpg,,,,,,,,,,,,,,,,,,,,,,,,,,,,,,,,,,,,,,,,,,,0,4,4,3,1,,,,,,,,,,,,,,,,,,,,,,,,,,,,,,,,,,,,,,,,,,,,,,
042437,001,2022-11-20_17h56.42.836,Info_measure_main_exp,2022.2.2,Win32,60.14675809,,,,,,,,,,,,,,,,,,masks/mask_004.jpg,,,,,,,,,,,,,,,,,,,,,,,,,,,,,,,,,,,,,,,,,,,,,,,,0,0,0,3,1,,,,,,,,,,,,,,,,,,,,,,,,,,,,,,,,,,,,,,,,,
042437,001,2022-11-20_17h56.42.836,Info_measure_main_exp,2022.2.2,Win32,60.14675809,,,,,,,,,,,,,,,,,,masks/mask_005.jpg,,,,,,,,,,,,,,,,,,,,,,,,,,,,,,,,,,,,,,,,,,,,,,,,0,1,1,4,1,,,,,,,,,,,,,,,,,,,,,,,,,,,,,,,,,,,,,,,,,
042437,001,2022-11-20_17h56.42.836,Info_measure_main_exp,2022.2.2,Win32,60.14675809,,,,,,,,,,,,,,,,,,masks/mask_001.jpg,,,,,,,,,,,,,,,,,,,,,,,,,,,,,,,,,,,,,,,,,,,,,,,,0,2,2,0,1,,,,,,,,,,,,,,,,,,,,,,,,,,,,,,,,,,,,,,,,,
042437,001,2022-11-20_17h56.42.836,Info_measure_main_exp,2022.2.2,Win32,60.14675809,,,,,,,,,,,,,,,,,,masks/mask_003.jpg,,,,,,,,,,,,,,,,,,,,,,,,,,,,,,,,,,,,,,,,,,,,,,,,0,3,3,2,1,,,,,,,,,,,,,,,,,,,,,,,,,,,,,,,,,,,,,,,,,
042437,001,2022-11-20_17h56.42.836,Info_measure_main_exp,2022.2.2,Win32,60.14675809,,,,,,,,,,,,,,,,,,masks/mask_002.jpg,,,,,,,,,,,,,,,,,,,,,,,,,,,,,,,,,,,,,,,,,,,,,,,,0,4,4,1,1,,,,,,,,,,,,,,,,,,,,,,,,,,,,,,,,,,,,,,,,,
042437,001,2022-11-20_17h56.42.836,Info_measure_main_exp,2022.2.2,Win32,60.14675809,,,,,,,,,,,,,,,,,,,,,,,,,,,,,,3,2.4095,1,,,,,,,,,,,,0,131,5,5,2154,2154,absent_patch/patch0002154.jpg,absent_patch/patch0002154.jpg,,,,,,,,,,,,,,,,,,,,-0.014814801,-0.064814815,1,0,0,response5disk,3,-0.000925912,-0.000925947,1,0,0,center_square,0,2,2,89,1,,,,,,,,,,,,,,,,,,,,,,,
042437,001,2022-11-20_17h56.42.836,Info_measure_main_exp,2022.2.2,Win32,60.14675809,,,,,,,,,,,,,,,,,,masks/mask_005.jpg,,,,,,,,,,,,,,,,,,,,,,,,,,,,,,,,,,,,,,,,,,,0,0,0,4,1,,,,,,,,,,,,,,,,,,,,,,,,,,,,,,,,,,,,,,,,,,,,,,
042437,001,2022-11-20_17h56.42.836,Info_measure_main_exp,2022.2.2,Win32,60.14675809,,,,,,,,,,,,,,,,,,masks/mask_002.jpg,,,,,,,,,,,,,,,,,,,,,,,,,,,,,,,,,,,,,,,,,,,0,1,1,1,1,,,,,,,,,,,,,,,,,,,,,,,,,,,,,,,,,,,,,,,,,,,,,,
042437,001,2022-11-20_17h56.42.836,Info_measure_main_exp,2022.2.2,Win32,60.14675809,,,,,,,,,,,,,,,,,,masks/mask_003.jpg,,,,,,,,,,,,,,,,,,,,,,,,,,,,,,,,,,,,,,,,,,,0,2,2,2,1,,,,,,,,,,,,,,,,,,,,,,,,,,,,,,,,,,,,,,,,,,,,,,
042437,001,2022-11-20_17h56.42.836,Info_measure_main_exp,2022.2.2,Win32,60.14675809,,,,,,,,,,,,,,,,,,masks/mask_001.jpg,,,,,,,,,,,,,,,,,,,,,,,,,,,,,,,,,,,,,,,,,,,0,3,3,0,1,,,,,,,,,,,,,,,,,,,,,,,,,,,,,,,,,,,,,,,,,,,,,,
042437,001,2022-11-20_17h56.42.836,Info_measure_main_exp,2022.2.2,Win32,60.14675809,,,,,,,,,,,,,,,,,,masks/mask_004.jpg,,,,,,,,,,,,,,,,,,,,,,,,,,,,,,,,,,,,,,,,,,,0,4,4,3,1,,,,,,,,,,,,,,,,,,,,,,,,,,,,,,,,,,,,,,,,,,,,,,
042437,001,2022-11-20_17h56.42.836,Info_measure_main_exp,2022.2.2,Win32,60.14675809,,,,,,,,,,,,,,,,,,masks/mask_005.jpg,,,,,,,,,,,,,,,,,,,,,,,,,,,,,,,,,,,,,,,,,,,,,,,,0,0,0,4,1,,,,,,,,,,,,,,,,,,,,,,,,,,,,,,,,,,,,,,,,,
042437,001,2022-11-20_17h56.42.836,Info_measure_main_exp,2022.2.2,Win32,60.14675809,,,,,,,,,,,,,,,,,,masks/mask_002.jpg,,,,,,,,,,,,,,,,,,,,,,,,,,,,,,,,,,,,,,,,,,,,,,,,0,1,1,1,1,,,,,,,,,,,,,,,,,,,,,,,,,,,,,,,,,,,,,,,,,
042437,001,2022-11-20_17h56.42.836,Info_measure_main_exp,2022.2.2,Win32,60.14675809,,,,,,,,,,,,,,,,,,masks/mask_004.jpg,,,,,,,,,,,,,,,,,,,,,,,,,,,,,,,,,,,,,,,,,,,,,,,,0,2,2,3,1,,,,,,,,,,,,,,,,,,,,,,,,,,,,,,,,,,,,,,,,,
042437,001,2022-11-20_17h56.42.836,Info_measure_main_exp,2022.2.2,Win32,60.14675809,,,,,,,,,,,,,,,,,,masks/mask_003.jpg,,,,,,,,,,,,,,,,,,,,,,,,,,,,,,,,,,,,,,,,,,,,,,,,0,3,3,2,1,,,,,,,,,,,,,,,,,,,,,,,,,,,,,,,,,,,,,,,,,
042437,001,2022-11-20_17h56.42.836,Info_measure_main_exp,2022.2.2,Win32,60.14675809,,,,,,,,,,,,,,,,,,masks/mask_001.jpg,,,,,,,,,,,,,,,,,,,,,,,,,,,,,,,,,,,,,,,,,,,,,,,,0,4,4,0,1,,,,,,,,,,,,,,,,,,,,,,,,,,,,,,,,,,,,,,,,,
042437,001,2022-11-20_17h56.42.836,Info_measure_main_exp,2022.2.2,Win32,60.14675809,,,,,,,,,,,,,,,,,,,,,,,,,,,,,,4,1.1801,1,,,,,,,,,,,,0,131,5,5,1974,1950,absent_patch/patch0001974.jpg,absent_patch/patch0001950.jpg,,,,,,,,,,,,,,,,,,,,0.018518519,-0.057407414,1,0,0,response3disk,4,0,-0.00462963,1,0,0,center_square,0,3,3,17,1,,,,,,,,,,,,,,,,,,,,,,,
042437,001,2022-11-20_17h56.42.836,Info_measure_main_exp,2022.2.2,Win32,60.14675809,,,,,,,,,,,,,,,,,,masks/mask_005.jpg,,,,,,,,,,,,,,,,,,,,,,,,,,,,,,,,,,,,,,,,,,,0,0,0,4,1,,,,,,,,,,,,,,,,,,,,,,,,,,,,,,,,,,,,,,,,,,,,,,
042437,001,2022-11-20_17h56.42.836,Info_measure_main_exp,2022.2.2,Win32,60.14675809,,,,,,,,,,,,,,,,,,masks/mask_002.jpg,,,,,,,,,,,,,,,,,,,,,,,,,,,,,,,,,,,,,,,,,,,0,1,1,1,1,,,,,,,,,,,,,,,,,,,,,,,,,,,,,,,,,,,,,,,,,,,,,,
042437,001,2022-11-20_17h56.42.836,Info_measure_main_exp,2022.2.2,Win32,60.14675809,,,,,,,,,,,,,,,,,,masks/mask_004.jpg,,,,,,,,,,,,,,,,,,,,,,,,,,,,,,,,,,,,,,,,,,,0,2,2,3,1,,,,,,,,,,,,,,,,,,,,,,,,,,,,,,,,,,,,,,,,,,,,,,
042437,001,2022-11-20_17h56.42.836,Info_measure_main_exp,2022.2.2,Win32,60.14675809,,,,,,,,,,,,,,,,,,masks/mask_003.jpg,,,,,,,,,,,,,,,,,,,,,,,,,,,,,,,,,,,,,,,,,,,0,3,3,2,1,,,,,,,,,,,,,,,,,,,,,,,,,,,,,,,,,,,,,,,,,,,,,,
042437,001,2022-11-20_17h56.42.836,Info_measure_main_exp,2022.2.2,Win32,60.14675809,,,,,,,,,,,,,,,,,,masks/mask_001.jpg,,,,,,,,,,,,,,,,,,,,,,,,,,,,,,,,,,,,,,,,,,,0,4,4,0,1,,,,,,,,,,,,,,,,,,,,,,,,,,,,,,,,,,,,,,,,,,,,,,
042437,001,2022-11-20_17h56.42.836,Info_measure_main_exp,2022.2.2,Win32,60.14675809,,,,,,,,,,,,,,,,,,masks/mask_005.jpg,,,,,,,,,,,,,,,,,,,,,,,,,,,,,,,,,,,,,,,,,,,,,,,,0,0,0,4,1,,,,,,,,,,,,,,,,,,,,,,,,,,,,,,,,,,,,,,,,,
042437,001,2022-11-20_17h56.42.836,Info_measure_main_exp,2022.2.2,Win32,60.14675809,,,,,,,,,,,,,,,,,,masks/mask_003.jpg,,,,,,,,,,,,,,,,,,,,,,,,,,,,,,,,,,,,,,,,,,,,,,,,0,1,1,2,1,,,,,,,,,,,,,,,,,,,,,,,,,,,,,,,,,,,,,,,,,
042437,001,2022-11-20_17h56.42.836,Info_measure_main_exp,2022.2.2,Win32,60.14675809,,,,,,,,,,,,,,,,,,masks/mask_002.jpg,,,,,,,,,,,,,,,,,,,,,,,,,,,,,,,,,,,,,,,,,,,,,,,,0,2,2,1,1,,,,,,,,,,,,,,,,,,,,,,,,,,,,,,,,,,,,,,,,,
042437,001,2022-11-20_17h56.42.836,Info_measure_main_exp,2022.2.2,Win32,60.14675809,,,,,,,,,,,,,,,,,,masks/mask_004.jpg,,,,,,,,,,,,,,,,,,,,,,,,,,,,,,,,,,,,,,,,,,,,,,,,0,3,3,3,1,,,,,,,,,,,,,,,,,,,,,,,,,,,,,,,,,,,,,,,,,
042437,001,2022-11-20_17h56.42.836,Info_measure_main_exp,2022.2.2,Win32,60.14675809,,,,,,,,,,,,,,,,,,masks/mask_001.jpg,,,,,,,,,,,,,,,,,,,,,,,,,,,,,,,,,,,,,,,,,,,,,,,,0,4,4,0,1,,,,,,,,,,,,,,,,,,,,,,,,,,,,,,,,,,,,,,,,,
042437,001,2022-11-20_17h56.42.836,Info_measure_main_exp,2022.2.2,Win32,60.14675809,,,,,,,,,,,,,,,,,,,,,,,,,,,,,,5,1.8947,1,,,,,,,,,,,,1,131,5,5,1,1974,present_patch/cong_131_5_a.jpg,absent_patch/patch0001974.jpg,,,,,,,,,,,,,,,,,,,,0.037037037,-0.015740748,1,0,0,response3disk,5,0.00462963,-0.003703718,1,0,0,center_square,0,4,4,69,1,,,,,,,,,,,,,,,,,,,,,,,
042437,001,2022-11-20_17h56.42.836,Info_measure_main_exp,2022.2.2,Win32,60.14675809,,,,,,,,,,,,,,,,,,masks/mask_004.jpg,,,,,,,,,,,,,,,,,,,,,,,,,,,,,,,,,,,,,,,,,,,0,0,0,3,1,,,,,,,,,,,,,,,,,,,,,,,,,,,,,,,,,,,,,,,,,,,,,,
042437,001,2022-11-20_17h56.42.836,Info_measure_main_exp,2022.2.2,Win32,60.14675809,,,,,,,,,,,,,,,,,,masks/mask_001.jpg,,,,,,,,,,,,,,,,,,,,,,,,,,,,,,,,,,,,,,,,,,,0,1,1,0,1,,,,,,,,,,,,,,,,,,,,,,,,,,,,,,,,,,,,,,,,,,,,,,
042437,001,2022-11-20_17h56.42.836,Info_measure_main_exp,2022.2.2,Win32,60.14675809,,,,,,,,,,,,,,,,,,masks/mask_003.jpg,,,,,,,,,,,,,,,,,,,,,,,,,,,,,,,,,,,,,,,,,,,0,2,2,2,1,,,,,,,,,,,,,,,,,,,,,,,,,,,,,,,,,,,,,,,,,,,,,,
042437,001,2022-11-20_17h56.42.836,Info_measure_main_exp,2022.2.2,Win32,60.14675809,,,,,,,,,,,,,,,,,,masks/mask_005.jpg,,,,,,,,,,,,,,,,,,,,,,,,,,,,,,,,,,,,,,,,,,,0,3,3,4,1,,,,,,,,,,,,,,,,,,,,,,,,,,,,,,,,,,,,,,,,,,,,,,
042437,001,2022-11-20_17h56.42.836,Info_measure_main_exp,2022.2.2,Win32,60.14675809,,,,,,,,,,,,,,,,,,masks/mask_002.jpg,,,,,,,,,,,,,,,,,,,,,,,,,,,,,,,,,,,,,,,,,,,0,4,4,1,1,,,,,,,,,,,,,,,,,,,,,,,,,,,,,,,,,,,,,,,,,,,,,,
042437,001,2022-11-20_17h56.42.836,Info_measure_main_exp,2022.2.2,Win32,60.14675809,,,,,,,,,,,,,,,,,,masks/mask_004.jpg,,,,,,,,,,,,,,,,,,,,,,,,,,,,,,,,,,,,,,,,,,,,,,,,0,0,0,3,1,,,,,,,,,,,,,,,,,,,,,,,,,,,,,,,,,,,,,,,,,
042437,001,2022-11-20_17h56.42.836,Info_measure_main_exp,2022.2.2,Win32,60.14675809,,,,,,,,,,,,,,,,,,masks/mask_005.jpg,,,,,,,,,,,,,,,,,,,,,,,,,,,,,,,,,,,,,,,,,,,,,,,,0,1,1,4,1,,,,,,,,,,,,,,,,,,,,,,,,,,,,,,,,,,,,,,,,,
042437,001,2022-11-20_17h56.42.836,Info_measure_main_exp,2022.2.2,Win32,60.14675809,,,,,,,,,,,,,,,,,,masks/mask_002.jpg,,,,,,,,,,,,,,,,,,,,,,,,,,,,,,,,,,,,,,,,,,,,,,,,0,2,2,1,1,,,,,,,,,,,,,,,,,,,,,,,,,,,,,,,,,,,,,,,,,
042437,001,2022-11-20_17h56.42.836,Info_measure_main_exp,2022.2.2,Win32,60.14675809,,,,,,,,,,,,,,,,,,masks/mask_003.jpg,,,,,,,,,,,,,,,,,,,,,,,,,,,,,,,,,,,,,,,,,,,,,,,,0,3,3,2,1,,,,,,,,,,,,,,,,,,,,,,,,,,,,,,,,,,,,,,,,,
042437,001,2022-11-20_17h56.42.836,Info_measure_main_exp,2022.2.2,Win32,60.14675809,,,,,,,,,,,,,,,,,,masks/mask_001.jpg,,,,,,,,,,,,,,,,,,,,,,,,,,,,,,,,,,,,,,,,,,,,,,,,0,4,4,0,1,,,,,,,,,,,,,,,,,,,,,,,,,,,,,,,,,,,,,,,,,
042437,001,2022-11-20_17h56.42.836,Info_measure_main_exp,2022.2.2,Win32,60.14675809,,,,,,,,,,,,,,,,,,,,,,,,,,,,,,2,1.0417,1,,,,,,,,,,,,0,131,5,5,1974,2298,absent_patch/patch0001974.jpg,absent_patch/patch0002298.jpg,,,,,,,,,,,,,,,,,,,,-0.040740755,-0.023148148,1,0,0,response5disk,6,-0.005555541,0.002777771,1,0,0,center_square,0,5,5,6,1,,,,,,,,,,,,,,,,,,,,,,,
042437,001,2022-11-20_17h56.42.836,Info_measure_main_exp,2022.2.2,Win32,60.14675809,,,,,,,,,,,,,,,,,,masks/mask_001.jpg,,,,,,,,,,,,,,,,,,,,,,,,,,,,,,,,,,,,,,,,,,,0,0,0,0,1,,,,,,,,,,,,,,,,,,,,,,,,,,,,,,,,,,,,,,,,,,,,,,
042437,001,2022-11-20_17h56.42.836,Info_measure_main_exp,2022.2.2,Win32,60.14675809,,,,,,,,,,,,,,,,,,masks/mask_003.jpg,,,,,,,,,,,,,,,,,,,,,,,,,,,,,,,,,,,,,,,,,,,0,1,1,2,1,,,,,,,,,,,,,,,,,,,,,,,,,,,,,,,,,,,,,,,,,,,,,,
042437,001,2022-11-20_17h56.42.836,Info_measure_main_exp,2022.2.2,Win32,60.14675809,,,,,,,,,,,,,,,,,,masks/mask_004.jpg,,,,,,,,,,,,,,,,,,,,,,,,,,,,,,,,,,,,,,,,,,,0,2,2,3,1,,,,,,,,,,,,,,,,,,,,,,,,,,,,,,,,,,,,,,,,,,,,,,
042437,001,2022-11-20_17h56.42.836,Info_measure_main_exp,2022.2.2,Win32,60.14675809,,,,,,,,,,,,,,,,,,masks/mask_002.jpg,,,,,,,,,,,,,,,,,,,,,,,,,,,,,,,,,,,,,,,,,,,0,3,3,1,1,,,,,,,,,,,,,,,,,,,,,,,,,,,,,,,,,,,,,,,,,,,,,,
042437,001,2022-11-20_17h56.42.836,Info_measure_main_exp,2022.2.2,Win32,60.14675809,,,,,,,,,,,,,,,,,,masks/mask_005.jpg,,,,,,,,,,,,,,,,,,,,,,,,,,,,,,,,,,,,,,,,,,,0,4,4,4,1,,,,,,,,,,,,,,,,,,,,,,,,,,,,,,,,,,,,,,,,,,,,,,
042437,001,2022-11-20_17h56.42.836,Info_measure_main_exp,2022.2.2,Win32,60.14675809,,,,,,,,,,,,,,,,,,masks/mask_005.jpg,,,,,,,,,,,,,,,,,,,,,,,,,,,,,,,,,,,,,,,,,,,,,,,,0,0,0,4,1,,,,,,,,,,,,,,,,,,,,,,,,,,,,,,,,,,,,,,,,,
042437,001,2022-11-20_17h56.42.836,Info_measure_main_exp,2022.2.2,Win32,60.14675809,,,,,,,,,,,,,,,,,,masks/mask_002.jpg,,,,,,,,,,,,,,,,,,,,,,,,,,,,,,,,,,,,,,,,,,,,,,,,0,1,1,1,1,,,,,,,,,,,,,,,,,,,,,,,,,,,,,,,,,,,,,,,,,
042437,001,2022-11-20_17h56.42.836,Info_measure_main_exp,2022.2.2,Win32,60.14675809,,,,,,,,,,,,,,,,,,masks/mask_004.jpg,,,,,,,,,,,,,,,,,,,,,,,,,,,,,,,,,,,,,,,,,,,,,,,,0,2,2,3,1,,,,,,,,,,,,,,,,,,,,,,,,,,,,,,,,,,,,,,,,,
042437,001,2022-11-20_17h56.42.836,Info_measure_main_exp,2022.2.2,Win32,60.14675809,,,,,,,,,,,,,,,,,,masks/mask_003.jpg,,,,,,,,,,,,,,,,,,,,,,,,,,,,,,,,,,,,,,,,,,,,,,,,0,3,3,2,1,,,,,,,,,,,,,,,,,,,,,,,,,,,,,,,,,,,,,,,,,
042437,001,2022-11-20_17h56.42.836,Info_measure_main_exp,2022.2.2,Win32,60.14675809,,,,,,,,,,,,,,,,,,masks/mask_001.jpg,,,,,,,,,,,,,,,,,,,,,,,,,,,,,,,,,,,,,,,,,,,,,,,,0,4,4,0,1,,,,,,,,,,,,,,,,,,,,,,,,,,,,,,,,,,,,,,,,,
042437,001,2022-11-20_17h56.42.836,Info_measure_main_exp,2022.2.2,Win32,60.14675809,,,,,,,,,,,,,,,,,,,,,,,,,,,,,,7,3.5071,1,,,,,,,,,,,,0,131,5,5,2190,2178,absent_patch/patch0002190.jpg,absent_patch/patch0002178.jpg,,,,,,,,,,,,,,,,,,,,0.029629672,0.072222215,1,0,0,response1disk,7,-0.003703718,-0.000925947,1,0,0,center_square,0,6,6,14,1,,,,,,,,,,,,,,,,,,,,,,,
042437,001,2022-11-20_17h56.42.836,Info_measure_main_exp,2022.2.2,Win32,60.14675809,,,,,,,,,,,,,,,,,,masks/mask_003.jpg,,,,,,,,,,,,,,,,,,,,,,,,,,,,,,,,,,,,,,,,,,,0,0,0,2,1,,,,,,,,,,,,,,,,,,,,,,,,,,,,,,,,,,,,,,,,,,,,,,
042437,001,2022-11-20_17h56.42.836,Info_measure_main_exp,2022.2.2,Win32,60.14675809,,,,,,,,,,,,,,,,,,masks/mask_005.jpg,,,,,,,,,,,,,,,,,,,,,,,,,,,,,,,,,,,,,,,,,,,0,1,1,4,1,,,,,,,,,,,,,,,,,,,,,,,,,,,,,,,,,,,,,,,,,,,,,,
042437,001,2022-11-20_17h56.42.836,Info_measure_main_exp,2022.2.2,Win32,60.14675809,,,,,,,,,,,,,,,,,,masks/mask_001.jpg,,,,,,,,,,,,,,,,,,,,,,,,,,,,,,,,,,,,,,,,,,,0,2,2,0,1,,,,,,,,,,,,,,,,,,,,,,,,,,,,,,,,,,,,,,,,,,,,,,
042437,001,2022-11-20_17h56.42.836,Info_measure_main_exp,2022.2.2,Win32,60.14675809,,,,,,,,,,,,,,,,,,masks/mask_004.jpg,,,,,,,,,,,,,,,,,,,,,,,,,,,,,,,,,,,,,,,,,,,0,3,3,3,1,,,,,,,,,,,,,,,,,,,,,,,,,,,,,,,,,,,,,,,,,,,,,,
042437,001,2022-11-20_17h56.42.836,Info_measure_main_exp,2022.2.2,Win32,60.14675809,,,,,,,,,,,,,,,,,,masks/mask_002.jpg,,,,,,,,,,,,,,,,,,,,,,,,,,,,,,,,,,,,,,,,,,,0,4,4,1,1,,,,,,,,,,,,,,,,,,,,,,,,,,,,,,,,,,,,,,,,,,,,,,
042437,001,2022-11-20_17h56.42.836,Info_measure_main_exp,2022.2.2,Win32,60.14675809,,,,,,,,,,,,,,,,,,masks/mask_002.jpg,,,,,,,,,,,,,,,,,,,,,,,,,,,,,,,,,,,,,,,,,,,,,,,,0,0,0,1,1,,,,,,,,,,,,,,,,,,,,,,,,,,,,,,,,,,,,,,,,,
042437,001,2022-11-20_17h56.42.836,Info_measure_main_exp,2022.2.2,Win32,60.14675809,,,,,,,,,,,,,,,,,,masks/mask_004.jpg,,,,,,,,,,,,,,,,,,,,,,,,,,,,,,,,,,,,,,,,,,,,,,,,0,1,1,3,1,,,,,,,,,,,,,,,,,,,,,,,,,,,,,,,,,,,,,,,,,
042437,001,2022-11-20_17h56.42.836,Info_measure_main_exp,2022.2.2,Win32,60.14675809,,,,,,,,,,,,,,,,,,masks/mask_003.jpg,,,,,,,,,,,,,,,,,,,,,,,,,,,,,,,,,,,,,,,,,,,,,,,,0,2,2,2,1,,,,,,,,,,,,,,,,,,,,,,,,,,,,,,,,,,,,,,,,,
042437,001,2022-11-20_17h56.42.836,Info_measure_main_exp,2022.2.2,Win32,60.14675809,,,,,,,,,,,,,,,,,,masks/mask_005.jpg,,,,,,,,,,,,,,,,,,,,,,,,,,,,,,,,,,,,,,,,,,,,,,,,0,3,3,4,1,,,,,,,,,,,,,,,,,,,,,,,,,,,,,,,,,,,,,,,,,
042437,001,2022-11-20_17h56.42.836,Info_measure_main_exp,2022.2.2,Win32,60.14675809,,,,,,,,,,,,,,,,,,masks/mask_001.jpg,,,,,,,,,,,,,,,,,,,,,,,,,,,,,,,,,,,,,,,,,,,,,,,,0,4,4,0,1,,,,,,,,,,,,,,,,,,,,,,,,,,,,,,,,,,,,,,,,,
042437,001,2022-11-20_17h56.42.836,Info_measure_main_exp,2022.2.2,Win32,60.14675809,,,,,,,,,,,,,,,,,,,,,,,,,,,,,,1,1.5788,1,,,,,,,,,,,,0,131,5,5,2166,2166,absent_patch/patch0002166.jpg,absent_patch/patch0002166.jpg,,,,,,,,,,,,,,,,,,,,-0.046296296,0.01203703,1,0,0,response7disk,8,0.001851894,-0.0074074,1,0,0,center_square,0,7,7,42,1,,,,,,,,,,,,,,,,,,,,,,,
042437,001,2022-11-20_17h56.42.836,Info_measure_main_exp,2022.2.2,Win32,60.14675809,,,,,,,,,,,,,,,,,,masks/mask_005.jpg,,,,,,,,,,,,,,,,,,,,,,,,,,,,,,,,,,,,,,,,,,,0,0,0,4,1,,,,,,,,,,,,,,,,,,,,,,,,,,,,,,,,,,,,,,,,,,,,,,
042437,001,2022-11-20_17h56.42.836,Info_measure_main_exp,2022.2.2,Win32,60.14675809,,,,,,,,,,,,,,,,,,masks/mask_002.jpg,,,,,,,,,,,,,,,,,,,,,,,,,,,,,,,,,,,,,,,,,,,0,1,1,1,1,,,,,,,,,,,,,,,,,,,,,,,,,,,,,,,,,,,,,,,,,,,,,,
042437,001,2022-11-20_17h56.42.836,Info_measure_main_exp,2022.2.2,Win32,60.14675809,,,,,,,,,,,,,,,,,,masks/mask_003.jpg,,,,,,,,,,,,,,,,,,,,,,,,,,,,,,,,,,,,,,,,,,,0,2,2,2,1,,,,,,,,,,,,,,,,,,,,,,,,,,,,,,,,,,,,,,,,,,,,,,
042437,001,2022-11-20_17h56.42.836,Info_measure_main_exp,2022.2.2,Win32,60.14675809,,,,,,,,,,,,,,,,,,masks/mask_001.jpg,,,,,,,,,,,,,,,,,,,,,,,,,,,,,,,,,,,,,,,,,,,0,3,3,0,1,,,,,,,,,,,,,,,,,,,,,,,,,,,,,,,,,,,,,,,,,,,,,,
042437,001,2022-11-20_17h56.42.836,Info_measure_main_exp,2022.2.2,Win32,60.14675809,,,,,,,,,,,,,,,,,,masks/mask_004.jpg,,,,,,,,,,,,,,,,,,,,,,,,,,,,,,,,,,,,,,,,,,,0,4,4,3,1,,,,,,,,,,,,,,,,,,,,,,,,,,,,,,,,,,,,,,,,,,,,,,
042437,001,2022-11-20_17h56.42.836,Info_measure_main_exp,2022.2.2,Win32,60.14675809,,,,,,,,,,,,,,,,,,masks/mask_004.jpg,,,,,,,,,,,,,,,,,,,,,,,,,,,,,,,,,,,,,,,,,,,,,,,,0,0,0,3,1,,,,,,,,,,,,,,,,,,,,,,,,,,,,,,,,,,,,,,,,,
042437,001,2022-11-20_17h56.42.836,Info_measure_main_exp,2022.2.2,Win32,60.14675809,,,,,,,,,,,,,,,,,,masks/mask_002.jpg,,,,,,,,,,,,,,,,,,,,,,,,,,,,,,,,,,,,,,,,,,,,,,,,0,1,1,1,1,,,,,,,,,,,,,,,,,,,,,,,,,,,,,,,,,,,,,,,,,
042437,001,2022-11-20_17h56.42.836,Info_measure_main_exp,2022.2.2,Win32,60.14675809,,,,,,,,,,,,,,,,,,masks/mask_001.jpg,,,,,,,,,,,,,,,,,,,,,,,,,,,,,,,,,,,,,,,,,,,,,,,,0,2,2,0,1,,,,,,,,,,,,,,,,,,,,,,,,,,,,,,,,,,,,,,,,,
042437,001,2022-11-20_17h56.42.836,Info_measure_main_exp,2022.2.2,Win32,60.14675809,,,,,,,,,,,,,,,,,,masks/mask_005.jpg,,,,,,,,,,,,,,,,,,,,,,,,,,,,,,,,,,,,,,,,,,,,,,,,0,3,3,4,1,,,,,,,,,,,,,,,,,,,,,,,,,,,,,,,,,,,,,,,,,
042437,001,2022-11-20_17h56.42.836,Info_measure_main_exp,2022.2.2,Win32,60.14675809,,,,,,,,,,,,,,,,,,masks/mask_003.jpg,,,,,,,,,,,,,,,,,,,,,,,,,,,,,,,,,,,,,,,,,,,,,,,,0,4,4,2,1,,,,,,,,,,,,,,,,,,,,,,,,,,,,,,,,,,,,,,,,,
042437,001,2022-11-20_17h56.42.836,Info_measure_main_exp,2022.2.2,Win32,60.14675809,,,,,,,,,,,,,,,,,,,,,,,,,,,,,,6,1.3309,1,,,,,,,,,,,,0,131,5,5,1986,2142,absent_patch/patch0001986.jpg,absent_patch/patch0002142.jpg,,,,,,,,,,,,,,,,,,,,0.071296339,0.032407407,1,0,0,response1disk,9,-0.001851824,-0.009259259,1,0,0,center_square,0,8,8,76,1,,,,,,,,,,,,,,,,,,,,,,,
042437,001,2022-11-20_17h56.42.836,Info_measure_main_exp,2022.2.2,Win32,60.14675809,,,,,,,,,,,,,,,,,,masks/mask_005.jpg,,,,,,,,,,,,,,,,,,,,,,,,,,,,,,,,,,,,,,,,,,,0,0,0,4,1,,,,,,,,,,,,,,,,,,,,,,,,,,,,,,,,,,,,,,,,,,,,,,
042437,001,2022-11-20_17h56.42.836,Info_measure_main_exp,2022.2.2,Win32,60.14675809,,,,,,,,,,,,,,,,,,masks/mask_001.jpg,,,,,,,,,,,,,,,,,,,,,,,,,,,,,,,,,,,,,,,,,,,0,1,1,0,1,,,,,,,,,,,,,,,,,,,,,,,,,,,,,,,,,,,,,,,,,,,,,,
042437,001,2022-11-20_17h56.42.836,Info_measure_main_exp,2022.2.2,Win32,60.14675809,,,,,,,,,,,,,,,,,,masks/mask_003.jpg,,,,,,,,,,,,,,,,,,,,,,,,,,,,,,,,,,,,,,,,,,,0,2,2,2,1,,,,,,,,,,,,,,,,,,,,,,,,,,,,,,,,,,,,,,,,,,,,,,
042437,001,2022-11-20_17h56.42.836,Info_measure_main_exp,2022.2.2,Win32,60.14675809,,,,,,,,,,,,,,,,,,masks/mask_002.jpg,,,,,,,,,,,,,,,,,,,,,,,,,,,,,,,,,,,,,,,,,,,0,3,3,1,1,,,,,,,,,,,,,,,,,,,,,,,,,,,,,,,,,,,,,,,,,,,,,,
042437,001,2022-11-20_17h56.42.836,Info_measure_main_exp,2022.2.2,Win32,60.14675809,,,,,,,,,,,,,,,,,,masks/mask_004.jpg,,,,,,,,,,,,,,,,,,,,,,,,,,,,,,,,,,,,,,,,,,,0,4,4,3,1,,,,,,,,,,,,,,,,,,,,,,,,,,,,,,,,,,,,,,,,,,,,,,
042437,001,2022-11-20_17h56.42.836,Info_measure_main_exp,2022.2.2,Win32,60.14675809,,,,,,,,,,,,,,,,,,masks/mask_001.jpg,,,,,,,,,,,,,,,,,,,,,,,,,,,,,,,,,,,,,,,,,,,,,,,,0,0,0,0,1,,,,,,,,,,,,,,,,,,,,,,,,,,,,,,,,,,,,,,,,,
042437,001,2022-11-20_17h56.42.836,Info_measure_main_exp,2022.2.2,Win32,60.14675809,,,,,,,,,,,,,,,,,,masks/mask_003.jpg,,,,,,,,,,,,,,,,,,,,,,,,,,,,,,,,,,,,,,,,,,,,,,,,0,1,1,2,1,,,,,,,,,,,,,,,,,,,,,,,,,,,,,,,,,,,,,,,,,
042437,001,2022-11-20_17h56.42.836,Info_measure_main_exp,2022.2.2,Win32,60.14675809,,,,,,,,,,,,,,,,,,masks/mask_002.jpg,,,,,,,,,,,,,,,,,,,,,,,,,,,,,,,,,,,,,,,,,,,,,,,,0,2,2,1,1,,,,,,,,,,,,,,,,,,,,,,,,,,,,,,,,,,,,,,,,,
042437,001,2022-11-20_17h56.42.836,Info_measure_main_exp,2022.2.2,Win32,60.14675809,,,,,,,,,,,,,,,,,,masks/mask_005.jpg,,,,,,,,,,,,,,,,,,,,,,,,,,,,,,,,,,,,,,,,,,,,,,,,0,3,3,4,1,,,,,,,,,,,,,,,,,,,,,,,,,,,,,,,,,,,,,,,,,
042437,001,2022-11-20_17h56.42.836,Info_measure_main_exp,2022.2.2,Win32,60.14675809,,,,,,,,,,,,,,,,,,masks/mask_004.jpg,,,,,,,,,,,,,,,,,,,,,,,,,,,,,,,,,,,,,,,,,,,,,,,,0,4,4,3,1,,,,,,,,,,,,,,,,,,,,,,,,,,,,,,,,,,,,,,,,,
042437,001,2022-11-20_17h56.42.836,Info_measure_main_exp,2022.2.2,Win32,60.14675809,,,,,,,,,,,,,,,,,,,,,,,,,,,,,,6,1.0366,1,,,,,,,,,,,,0,131,5,5,2238,2214,absent_patch/patch0002238.jpg,absent_patch/patch0002214.jpg,,,,,,,,,,,,,,,,,,,,0.040740755,0.020370377,1,0,0,response1disk,10,0.000925912,-0.003703718,1,0,0,center_square,0,9,9,81,1,,,,,,,,,,,,,,,,,,,,,,,
042437,001,2022-11-20_17h56.42.836,Info_measure_main_exp,2022.2.2,Win32,60.14675809,,,,,,,,,,,,,,,,,,masks/mask_001.jpg,,,,,,,,,,,,,,,,,,,,,,,,,,,,,,,,,,,,,,,,,,,0,0,0,0,1,,,,,,,,,,,,,,,,,,,,,,,,,,,,,,,,,,,,,,,,,,,,,,
042437,001,2022-11-20_17h56.42.836,Info_measure_main_exp,2022.2.2,Win32,60.14675809,,,,,,,,,,,,,,,,,,masks/mask_002.jpg,,,,,,,,,,,,,,,,,,,,,,,,,,,,,,,,,,,,,,,,,,,0,1,1,1,1,,,,,,,,,,,,,,,,,,,,,,,,,,,,,,,,,,,,,,,,,,,,,,
042437,001,2022-11-20_17h56.42.836,Info_measure_main_exp,2022.2.2,Win32,60.14675809,,,,,,,,,,,,,,,,,,masks/mask_003.jpg,,,,,,,,,,,,,,,,,,,,,,,,,,,,,,,,,,,,,,,,,,,0,2,2,2,1,,,,,,,,,,,,,,,,,,,,,,,,,,,,,,,,,,,,,,,,,,,,,,
042437,001,2022-11-20_17h56.42.836,Info_measure_main_exp,2022.2.2,Win32,60.14675809,,,,,,,,,,,,,,,,,,masks/mask_004.jpg,,,,,,,,,,,,,,,,,,,,,,,,,,,,,,,,,,,,,,,,,,,0,3,3,3,1,,,,,,,,,,,,,,,,,,,,,,,,,,,,,,,,,,,,,,,,,,,,,,
042437,001,2022-11-20_17h56.42.836,Info_measure_main_exp,2022.2.2,Win32,60.14675809,,,,,,,,,,,,,,,,,,masks/mask_005.jpg,,,,,,,,,,,,,,,,,,,,,,,,,,,,,,,,,,,,,,,,,,,0,4,4,4,1,,,,,,,,,,,,,,,,,,,,,,,,,,,,,,,,,,,,,,,,,,,,,,
042437,001,2022-11-20_17h56.42.836,Info_measure_main_exp,2022.2.2,Win32,60.14675809,,,,,,,,,,,,,,,,,,masks/mask_002.jpg,,,,,,,,,,,,,,,,,,,,,,,,,,,,,,,,,,,,,,,,,,,,,,,,0,0,0,1,1,,,,,,,,,,,,,,,,,,,,,,,,,,,,,,,,,,,,,,,,,
042437,001,2022-11-20_17h56.42.836,Info_measure_main_exp,2022.2.2,Win32,60.14675809,,,,,,,,,,,,,,,,,,masks/mask_005.jpg,,,,,,,,,,,,,,,,,,,,,,,,,,,,,,,,,,,,,,,,,,,,,,,,0,1,1,4,1,,,,,,,,,,,,,,,,,,,,,,,,,,,,,,,,,,,,,,,,,
042437,001,2022-11-20_17h56.42.836,Info_measure_main_exp,2022.2.2,Win32,60.14675809,,,,,,,,,,,,,,,,,,masks/mask_003.jpg,,,,,,,,,,,,,,,,,,,,,,,,,,,,,,,,,,,,,,,,,,,,,,,,0,2,2,2,1,,,,,,,,,,,,,,,,,,,,,,,,,,,,,,,,,,,,,,,,,
042437,001,2022-11-20_17h56.42.836,Info_measure_main_exp,2022.2.2,Win32,60.14675809,,,,,,,,,,,,,,,,,,masks/mask_004.jpg,,,,,,,,,,,,,,,,,,,,,,,,,,,,,,,,,,,,,,,,,,,,,,,,0,3,3,3,1,,,,,,,,,,,,,,,,,,,,,,,,,,,,,,,,,,,,,,,,,
042437,001,2022-11-20_17h56.42.836,Info_measure_main_exp,2022.2.2,Win32,60.14675809,,,,,,,,,,,,,,,,,,masks/mask_001.jpg,,,,,,,,,,,,,,,,,,,,,,,,,,,,,,,,,,,,,,,,,,,,,,,,0,4,4,0,1,,,,,,,,,,,,,,,,,,,,,,,,,,,,,,,,,,,,,,,,,
042437,001,2022-11-20_17h56.42.836,Info_measure_main_exp,2022.2.2,Win32,60.14675809,,,,,,,,,,,,,,,,,,,,,,,,,,,,,,1,1.0142,1,,,,,,,,,,,,0,131,5,5,2082,2082,absent_patch/patch0002082.jpg,absent_patch/patch0002082.jpg,,,,,,,,,,,,,,,,,,,,-0.058333291,0.021296289,1,0,0,response7disk,11,-0.010185171,0.005555541,1,0,0,center_square,0,10,10,74,1,,,,,,,,,,,,,,,,,,,,,,,
042437,001,2022-11-20_17h56.42.836,Info_measure_main_exp,2022.2.2,Win32,60.14675809,,,,,,,,,,,,,,,,,,masks/mask_005.jpg,,,,,,,,,,,,,,,,,,,,,,,,,,,,,,,,,,,,,,,,,,,0,0,0,4,1,,,,,,,,,,,,,,,,,,,,,,,,,,,,,,,,,,,,,,,,,,,,,,
042437,001,2022-11-20_17h56.42.836,Info_measure_main_exp,2022.2.2,Win32,60.14675809,,,,,,,,,,,,,,,,,,masks/mask_002.jpg,,,,,,,,,,,,,,,,,,,,,,,,,,,,,,,,,,,,,,,,,,,0,1,1,1,1,,,,,,,,,,,,,,,,,,,,,,,,,,,,,,,,,,,,,,,,,,,,,,
042437,001,2022-11-20_17h56.42.836,Info_measure_main_exp,2022.2.2,Win32,60.14675809,,,,,,,,,,,,,,,,,,masks/mask_003.jpg,,,,,,,,,,,,,,,,,,,,,,,,,,,,,,,,,,,,,,,,,,,0,2,2,2,1,,,,,,,,,,,,,,,,,,,,,,,,,,,,,,,,,,,,,,,,,,,,,,
042437,001,2022-11-20_17h56.42.836,Info_measure_main_exp,2022.2.2,Win32,60.14675809,,,,,,,,,,,,,,,,,,masks/mask_001.jpg,,,,,,,,,,,,,,,,,,,,,,,,,,,,,,,,,,,,,,,,,,,0,3,3,0,1,,,,,,,,,,,,,,,,,,,,,,,,,,,,,,,,,,,,,,,,,,,,,,
042437,001,2022-11-20_17h56.42.836,Info_measure_main_exp,2022.2.2,Win32,60.14675809,,,,,,,,,,,,,,,,,,masks/mask_004.jpg,,,,,,,,,,,,,,,,,,,,,,,,,,,,,,,,,,,,,,,,,,,0,4,4,3,1,,,,,,,,,,,,,,,,,,,,,,,,,,,,,,,,,,,,,,,,,,,,,,
042437,001,2022-11-20_17h56.42.836,Info_measure_main_exp,2022.2.2,Win32,60.14675809,,,,,,,,,,,,,,,,,,masks/mask_001.jpg,,,,,,,,,,,,,,,,,,,,,,,,,,,,,,,,,,,,,,,,,,,,,,,,0,0,0,0,1,,,,,,,,,,,,,,,,,,,,,,,,,,,,,,,,,,,,,,,,,
042437,001,2022-11-20_17h56.42.836,Info_measure_main_exp,2022.2.2,Win32,60.14675809,,,,,,,,,,,,,,,,,,masks/mask_005.jpg,,,,,,,,,,,,,,,,,,,,,,,,,,,,,,,,,,,,,,,,,,,,,,,,0,1,1,4,1,,,,,,,,,,,,,,,,,,,,,,,,,,,,,,,,,,,,,,,,,
042437,001,2022-11-20_17h56.42.836,Info_measure_main_exp,2022.2.2,Win32,60.14675809,,,,,,,,,,,,,,,,,,masks/mask_004.jpg,,,,,,,,,,,,,,,,,,,,,,,,,,,,,,,,,,,,,,,,,,,,,,,,0,2,2,3,1,,,,,,,,,,,,,,,,,,,,,,,,,,,,,,,,,,,,,,,,,
042437,001,2022-11-20_17h56.42.836,Info_measure_main_exp,2022.2.2,Win32,60.14675809,,,,,,,,,,,,,,,,,,masks/mask_003.jpg,,,,,,,,,,,,,,,,,,,,,,,,,,,,,,,,,,,,,,,,,,,,,,,,0,3,3,2,1,,,,,,,,,,,,,,,,,,,,,,,,,,,,,,,,,,,,,,,,,
042437,001,2022-11-20_17h56.42.836,Info_measure_main_exp,2022.2.2,Win32,60.14675809,,,,,,,,,,,,,,,,,,masks/mask_002.jpg,,,,,,,,,,,,,,,,,,,,,,,,,,,,,,,,,,,,,,,,,,,,,,,,0,4,4,1,1,,,,,,,,,,,,,,,,,,,,,,,,,,,,,,,,,,,,,,,,,
042437,001,2022-11-20_17h56.42.836,Info_measure_main_exp,2022.2.2,Win32,60.14675809,,,,,,,,,,,,,,,,,,,,,,,,,,,,,,1,1.1584,1,,,,,,,,,,,,0,131,5,5,1950,2166,absent_patch/patch0001950.jpg,absent_patch/patch0002166.jpg,,,,,,,,,,,,,,,,,,,,-0.037037037,0.017592571,1,0,0,response7disk,12,0.000925912,0.003703683,1,0,0,center_square,0,11,11,0,1,,,,,,,,,,,,,,,,,,,,,,,
042437,001,2022-11-20_17h56.42.836,Info_measure_main_exp,2022.2.2,Win32,60.14675809,,,,,,,,,,,,,,,,,,masks/mask_001.jpg,,,,,,,,,,,,,,,,,,,,,,,,,,,,,,,,,,,,,,,,,,,0,0,0,0,1,,,,,,,,,,,,,,,,,,,,,,,,,,,,,,,,,,,,,,,,,,,,,,
042437,001,2022-11-20_17h56.42.836,Info_measure_main_exp,2022.2.2,Win32,60.14675809,,,,,,,,,,,,,,,,,,masks/mask_002.jpg,,,,,,,,,,,,,,,,,,,,,,,,,,,,,,,,,,,,,,,,,,,0,1,1,1,1,,,,,,,,,,,,,,,,,,,,,,,,,,,,,,,,,,,,,,,,,,,,,,
042437,001,2022-11-20_17h56.42.836,Info_measure_main_exp,2022.2.2,Win32,60.14675809,,,,,,,,,,,,,,,,,,masks/mask_004.jpg,,,,,,,,,,,,,,,,,,,,,,,,,,,,,,,,,,,,,,,,,,,0,2,2,3,1,,,,,,,,,,,,,,,,,,,,,,,,,,,,,,,,,,,,,,,,,,,,,,
042437,001,2022-11-20_17h56.42.836,Info_measure_main_exp,2022.2.2,Win32,60.14675809,,,,,,,,,,,,,,,,,,masks/mask_003.jpg,,,,,,,,,,,,,,,,,,,,,,,,,,,,,,,,,,,,,,,,,,,0,3,3,2,1,,,,,,,,,,,,,,,,,,,,,,,,,,,,,,,,,,,,,,,,,,,,,,
042437,001,2022-11-20_17h56.42.836,Info_measure_main_exp,2022.2.2,Win32,60.14675809,,,,,,,,,,,,,,,,,,masks/mask_005.jpg,,,,,,,,,,,,,,,,,,,,,,,,,,,,,,,,,,,,,,,,,,,0,4,4,4,1,,,,,,,,,,,,,,,,,,,,,,,,,,,,,,,,,,,,,,,,,,,,,,
042437,001,2022-11-20_17h56.42.836,Info_measure_main_exp,2022.2.2,Win32,60.14675809,,,,,,,,,,,,,,,,,,masks/mask_004.jpg,,,,,,,,,,,,,,,,,,,,,,,,,,,,,,,,,,,,,,,,,,,,,,,,0,0,0,3,1,,,,,,,,,,,,,,,,,,,,,,,,,,,,,,,,,,,,,,,,,
042437,001,2022-11-20_17h56.42.836,Info_measure_main_exp,2022.2.2,Win32,60.14675809,,,,,,,,,,,,,,,,,,masks/mask_002.jpg,,,,,,,,,,,,,,,,,,,,,,,,,,,,,,,,,,,,,,,,,,,,,,,,0,1,1,1,1,,,,,,,,,,,,,,,,,,,,,,,,,,,,,,,,,,,,,,,,,
042437,001,2022-11-20_17h56.42.836,Info_measure_main_exp,2022.2.2,Win32,60.14675809,,,,,,,,,,,,,,,,,,masks/mask_005.jpg,,,,,,,,,,,,,,,,,,,,,,,,,,,,,,,,,,,,,,,,,,,,,,,,0,2,2,4,1,,,,,,,,,,,,,,,,,,,,,,,,,,,,,,,,,,,,,,,,,
042437,001,2022-11-20_17h56.42.836,Info_measure_main_exp,2022.2.2,Win32,60.14675809,,,,,,,,,,,,,,,,,,masks/mask_003.jpg,,,,,,,,,,,,,,,,,,,,,,,,,,,,,,,,,,,,,,,,,,,,,,,,0,3,3,2,1,,,,,,,,,,,,,,,,,,,,,,,,,,,,,,,,,,,,,,,,,
042437,001,2022-11-20_17h56.42.836,Info_measure_main_exp,2022.2.2,Win32,60.14675809,,,,,,,,,,,,,,,,,,masks/mask_001.jpg,,,,,,,,,,,,,,,,,,,,,,,,,,,,,,,,,,,,,,,,,,,,,,,,0,4,4,0,1,,,,,,,,,,,,,,,,,,,,,,,,,,,,,,,,,,,,,,,,,
042437,001,2022-11-20_17h56.42.836,Info_measure_main_exp,2022.2.2,Win32,60.14675809,,,,,,,,,,,,,,,,,,,,,,,,,,,,,,1,1.2042,1,,,,,,,,,,,,0,131,5,5,1986,1986,absent_patch/patch0001986.jpg,absent_patch/patch0001986.jpg,,,,,,,,,,,,,,,,,,,,-0.033333319,0.01666666,1,0,0,response7disk,13,-0.003703718,0.001851859,1,0,0,center_square,0,12,12,19,1,,,,,,,,,,,,,,,,,,,,,,,
042437,001,2022-11-20_17h56.42.836,Info_measure_main_exp,2022.2.2,Win32,60.14675809,,,,,,,,,,,,,,,,,,masks/mask_004.jpg,,,,,,,,,,,,,,,,,,,,,,,,,,,,,,,,,,,,,,,,,,,0,0,0,3,1,,,,,,,,,,,,,,,,,,,,,,,,,,,,,,,,,,,,,,,,,,,,,,
042437,001,2022-11-20_17h56.42.836,Info_measure_main_exp,2022.2.2,Win32,60.14675809,,,,,,,,,,,,,,,,,,masks/mask_002.jpg,,,,,,,,,,,,,,,,,,,,,,,,,,,,,,,,,,,,,,,,,,,0,1,1,1,1,,,,,,,,,,,,,,,,,,,,,,,,,,,,,,,,,,,,,,,,,,,,,,
042437,001,2022-11-20_17h56.42.836,Info_measure_main_exp,2022.2.2,Win32,60.14675809,,,,,,,,,,,,,,,,,,masks/mask_005.jpg,,,,,,,,,,,,,,,,,,,,,,,,,,,,,,,,,,,,,,,,,,,0,2,2,4,1,,,,,,,,,,,,,,,,,,,,,,,,,,,,,,,,,,,,,,,,,,,,,,
042437,001,2022-11-20_17h56.42.836,Info_measure_main_exp,2022.2.2,Win32,60.14675809,,,,,,,,,,,,,,,,,,masks/mask_001.jpg,,,,,,,,,,,,,,,,,,,,,,,,,,,,,,,,,,,,,,,,,,,0,3,3,0,1,,,,,,,,,,,,,,,,,,,,,,,,,,,,,,,,,,,,,,,,,,,,,,
042437,001,2022-11-20_17h56.42.836,Info_measure_main_exp,2022.2.2,Win32,60.14675809,,,,,,,,,,,,,,,,,,masks/mask_003.jpg,,,,,,,,,,,,,,,,,,,,,,,,,,,,,,,,,,,,,,,,,,,0,4,4,2,1,,,,,,,,,,,,,,,,,,,,,,,,,,,,,,,,,,,,,,,,,,,,,,
042437,001,2022-11-20_17h56.42.836,Info_measure_main_exp,2022.2.2,Win32,60.14675809,,,,,,,,,,,,,,,,,,masks/mask_001.jpg,,,,,,,,,,,,,,,,,,,,,,,,,,,,,,,,,,,,,,,,,,,,,,,,0,0,0,0,1,,,,,,,,,,,,,,,,,,,,,,,,,,,,,,,,,,,,,,,,,
042437,001,2022-11-20_17h56.42.836,Info_measure_main_exp,2022.2.2,Win32,60.14675809,,,,,,,,,,,,,,,,,,masks/mask_002.jpg,,,,,,,,,,,,,,,,,,,,,,,,,,,,,,,,,,,,,,,,,,,,,,,,0,1,1,1,1,,,,,,,,,,,,,,,,,,,,,,,,,,,,,,,,,,,,,,,,,
042437,001,2022-11-20_17h56.42.836,Info_measure_main_exp,2022.2.2,Win32,60.14675809,,,,,,,,,,,,,,,,,,masks/mask_003.jpg,,,,,,,,,,,,,,,,,,,,,,,,,,,,,,,,,,,,,,,,,,,,,,,,0,2,2,2,1,,,,,,,,,,,,,,,,,,,,,,,,,,,,,,,,,,,,,,,,,
042437,001,2022-11-20_17h56.42.836,Info_measure_main_exp,2022.2.2,Win32,60.14675809,,,,,,,,,,,,,,,,,,masks/mask_005.jpg,,,,,,,,,,,,,,,,,,,,,,,,,,,,,,,,,,,,,,,,,,,,,,,,0,3,3,4,1,,,,,,,,,,,,,,,,,,,,,,,,,,,,,,,,,,,,,,,,,
042437,001,2022-11-20_17h56.42.836,Info_measure_main_exp,2022.2.2,Win32,60.14675809,,,,,,,,,,,,,,,,,,masks/mask_004.jpg,,,,,,,,,,,,,,,,,,,,,,,,,,,,,,,,,,,,,,,,,,,,,,,,0,4,4,3,1,,,,,,,,,,,,,,,,,,,,,,,,,,,,,,,,,,,,,,,,,
042437,001,2022-11-20_17h56.42.836,Info_measure_main_exp,2022.2.2,Win32,60.14675809,,,,,,,,,,,,,,,,,,,,,,,,,,,,,,7,0.964,1,,,,,,,,,,,,1,131,5,5,1,2142,present_patch/cong_131_5_a.jpg,absent_patch/patch0002142.jpg,,,,,,,,,,,,,,,,,,,,0.018518519,0.046296296,1,0,0,response1disk,14,-0.002777735,0.00462963,1,0,0,center_square,0,13,13,80,1,,,,,,,,,,,,,,,,,,,,,,,
042437,001,2022-11-20_17h56.42.836,Info_measure_main_exp,2022.2.2,Win32,60.14675809,,,,,,,,,,,,,,,,,,masks/mask_005.jpg,,,,,,,,,,,,,,,,,,,,,,,,,,,,,,,,,,,,,,,,,,,0,0,0,4,1,,,,,,,,,,,,,,,,,,,,,,,,,,,,,,,,,,,,,,,,,,,,,,
042437,001,2022-11-20_17h56.42.836,Info_measure_main_exp,2022.2.2,Win32,60.14675809,,,,,,,,,,,,,,,,,,masks/mask_001.jpg,,,,,,,,,,,,,,,,,,,,,,,,,,,,,,,,,,,,,,,,,,,0,1,1,0,1,,,,,,,,,,,,,,,,,,,,,,,,,,,,,,,,,,,,,,,,,,,,,,
042437,001,2022-11-20_17h56.42.836,Info_measure_main_exp,2022.2.2,Win32,60.14675809,,,,,,,,,,,,,,,,,,masks/mask_004.jpg,,,,,,,,,,,,,,,,,,,,,,,,,,,,,,,,,,,,,,,,,,,0,2,2,3,1,,,,,,,,,,,,,,,,,,,,,,,,,,,,,,,,,,,,,,,,,,,,,,
042437,001,2022-11-20_17h56.42.836,Info_measure_main_exp,2022.2.2,Win32,60.14675809,,,,,,,,,,,,,,,,,,masks/mask_003.jpg,,,,,,,,,,,,,,,,,,,,,,,,,,,,,,,,,,,,,,,,,,,0,3,3,2,1,,,,,,,,,,,,,,,,,,,,,,,,,,,,,,,,,,,,,,,,,,,,,,
042437,001,2022-11-20_17h56.42.836,Info_measure_main_exp,2022.2.2,Win32,60.14675809,,,,,,,,,,,,,,,,,,masks/mask_002.jpg,,,,,,,,,,,,,,,,,,,,,,,,,,,,,,,,,,,,,,,,,,,0,4,4,1,1,,,,,,,,,,,,,,,,,,,,,,,,,,,,,,,,,,,,,,,,,,,,,,
042437,001,2022-11-20_17h56.42.836,Info_measure_main_exp,2022.2.2,Win32,60.14675809,,,,,,,,,,,,,,,,,,masks/mask_003.jpg,,,,,,,,,,,,,,,,,,,,,,,,,,,,,,,,,,,,,,,,,,,,,,,,0,0,0,2,1,,,,,,,,,,,,,,,,,,,,,,,,,,,,,,,,,,,,,,,,,
042437,001,2022-11-20_17h56.42.836,Info_measure_main_exp,2022.2.2,Win32,60.14675809,,,,,,,,,,,,,,,,,,masks/mask_005.jpg,,,,,,,,,,,,,,,,,,,,,,,,,,,,,,,,,,,,,,,,,,,,,,,,0,1,1,4,1,,,,,,,,,,,,,,,,,,,,,,,,,,,,,,,,,,,,,,,,,
042437,001,2022-11-20_17h56.42.836,Info_measure_main_exp,2022.2.2,Win32,60.14675809,,,,,,,,,,,,,,,,,,masks/mask_001.jpg,,,,,,,,,,,,,,,,,,,,,,,,,,,,,,,,,,,,,,,,,,,,,,,,0,2,2,0,1,,,,,,,,,,,,,,,,,,,,,,,,,,,,,,,,,,,,,,,,,
042437,001,2022-11-20_17h56.42.836,Info_measure_main_exp,2022.2.2,Win32,60.14675809,,,,,,,,,,,,,,,,,,masks/mask_004.jpg,,,,,,,,,,,,,,,,,,,,,,,,,,,,,,,,,,,,,,,,,,,,,,,,0,3,3,3,1,,,,,,,,,,,,,,,,,,,,,,,,,,,,,,,,,,,,,,,,,
042437,001,2022-11-20_17h56.42.836,Info_measure_main_exp,2022.2.2,Win32,60.14675809,,,,,,,,,,,,,,,,,,masks/mask_002.jpg,,,,,,,,,,,,,,,,,,,,,,,,,,,,,,,,,,,,,,,,,,,,,,,,0,4,4,1,1,,,,,,,,,,,,,,,,,,,,,,,,,,,,,,,,,,,,,,,,,
042437,001,2022-11-20_17h56.42.836,Info_measure_main_exp,2022.2.2,Win32,60.14675809,,,,,,,,,,,,,,,,,,,,,,,,,,,,,,7,1.8391,1,,,,,,,,,,,,0,131,5,5,2142,2238,absent_patch/patch0002142.jpg,absent_patch/patch0002238.jpg,,,,,,,,,,,,,,,,,,,,0.05277782,0.074074074,1,0,0,response1disk,15,0.00462963,-0.000925947,1,0,0,center_square,0,14,14,101,1,,,,,,,,,,,,,,,,,,,,,,,
042437,001,2022-11-20_17h56.42.836,Info_measure_main_exp,2022.2.2,Win32,60.14675809,,,,,,,,,,,,,,,,,,masks/mask_005.jpg,,,,,,,,,,,,,,,,,,,,,,,,,,,,,,,,,,,,,,,,,,,0,0,0,4,1,,,,,,,,,,,,,,,,,,,,,,,,,,,,,,,,,,,,,,,,,,,,,,
042437,001,2022-11-20_17h56.42.836,Info_measure_main_exp,2022.2.2,Win32,60.14675809,,,,,,,,,,,,,,,,,,masks/mask_001.jpg,,,,,,,,,,,,,,,,,,,,,,,,,,,,,,,,,,,,,,,,,,,0,1,1,0,1,,,,,,,,,,,,,,,,,,,,,,,,,,,,,,,,,,,,,,,,,,,,,,
042437,001,2022-11-20_17h56.42.836,Info_measure_main_exp,2022.2.2,Win32,60.14675809,,,,,,,,,,,,,,,,,,masks/mask_004.jpg,,,,,,,,,,,,,,,,,,,,,,,,,,,,,,,,,,,,,,,,,,,0,2,2,3,1,,,,,,,,,,,,,,,,,,,,,,,,,,,,,,,,,,,,,,,,,,,,,,
042437,001,2022-11-20_17h56.42.836,Info_measure_main_exp,2022.2.2,Win32,60.14675809,,,,,,,,,,,,,,,,,,masks/mask_003.jpg,,,,,,,,,,,,,,,,,,,,,,,,,,,,,,,,,,,,,,,,,,,0,3,3,2,1,,,,,,,,,,,,,,,,,,,,,,,,,,,,,,,,,,,,,,,,,,,,,,
042437,001,2022-11-20_17h56.42.836,Info_measure_main_exp,2022.2.2,Win32,60.14675809,,,,,,,,,,,,,,,,,,masks/mask_002.jpg,,,,,,,,,,,,,,,,,,,,,,,,,,,,,,,,,,,,,,,,,,,0,4,4,1,1,,,,,,,,,,,,,,,,,,,,,,,,,,,,,,,,,,,,,,,,,,,,,,
042437,001,2022-11-20_17h56.42.836,Info_measure_main_exp,2022.2.2,Win32,60.14675809,,,,,,,,,,,,,,,,,,masks/mask_003.jpg,,,,,,,,,,,,,,,,,,,,,,,,,,,,,,,,,,,,,,,,,,,,,,,,0,0,0,2,1,,,,,,,,,,,,,,,,,,,,,,,,,,,,,,,,,,,,,,,,,
042437,001,2022-11-20_17h56.42.836,Info_measure_main_exp,2022.2.2,Win32,60.14675809,,,,,,,,,,,,,,,,,,masks/mask_005.jpg,,,,,,,,,,,,,,,,,,,,,,,,,,,,,,,,,,,,,,,,,,,,,,,,0,1,1,4,1,,,,,,,,,,,,,,,,,,,,,,,,,,,,,,,,,,,,,,,,,
042437,001,2022-11-20_17h56.42.836,Info_measure_main_exp,2022.2.2,Win32,60.14675809,,,,,,,,,,,,,,,,,,masks/mask_001.jpg,,,,,,,,,,,,,,,,,,,,,,,,,,,,,,,,,,,,,,,,,,,,,,,,0,2,2,0,1,,,,,,,,,,,,,,,,,,,,,,,,,,,,,,,,,,,,,,,,,
042437,001,2022-11-20_17h56.42.836,Info_measure_main_exp,2022.2.2,Win32,60.14675809,,,,,,,,,,,,,,,,,,masks/mask_002.jpg,,,,,,,,,,,,,,,,,,,,,,,,,,,,,,,,,,,,,,,,,,,,,,,,0,3,3,1,1,,,,,,,,,,,,,,,,,,,,,,,,,,,,,,,,,,,,,,,,,
042437,001,2022-11-20_17h56.42.836,Info_measure_main_exp,2022.2.2,Win32,60.14675809,,,,,,,,,,,,,,,,,,masks/mask_004.jpg,,,,,,,,,,,,,,,,,,,,,,,,,,,,,,,,,,,,,,,,,,,,,,,,0,4,4,3,1,,,,,,,,,,,,,,,,,,,,,,,,,,,,,,,,,,,,,,,,,
042437,001,2022-11-20_17h56.42.836,Info_measure_main_exp,2022.2.2,Win32,60.14675809,,,,,,,,,,,,,,,,,,,,,,,,,,,,,,7,0.7981,1,,,,,,,,,,,,0,131,5,5,1986,2238,absent_patch/patch0001986.jpg,absent_patch/patch0002238.jpg,,,,,,,,,,,,,,,,,,,,0.046296296,0.11296297,1,0,0,response1disk,16,0.008333347,0.009259259,1,0,0,center_square,0,15,15,31,1,,,,,,,,,,,,,,,,,,,,,,,
042437,001,2022-11-20_17h56.42.836,Info_measure_main_exp,2022.2.2,Win32,60.14675809,,,,,,,,,,,,,,,,,,masks/mask_001.jpg,,,,,,,,,,,,,,,,,,,,,,,,,,,,,,,,,,,,,,,,,,,0,0,0,0,1,,,,,,,,,,,,,,,,,,,,,,,,,,,,,,,,,,,,,,,,,,,,,,
042437,001,2022-11-20_17h56.42.836,Info_measure_main_exp,2022.2.2,Win32,60.14675809,,,,,,,,,,,,,,,,,,masks/mask_004.jpg,,,,,,,,,,,,,,,,,,,,,,,,,,,,,,,,,,,,,,,,,,,0,1,1,3,1,,,,,,,,,,,,,,,,,,,,,,,,,,,,,,,,,,,,,,,,,,,,,,
042437,001,2022-11-20_17h56.42.836,Info_measure_main_exp,2022.2.2,Win32,60.14675809,,,,,,,,,,,,,,,,,,masks/mask_002.jpg,,,,,,,,,,,,,,,,,,,,,,,,,,,,,,,,,,,,,,,,,,,0,2,2,1,1,,,,,,,,,,,,,,,,,,,,,,,,,,,,,,,,,,,,,,,,,,,,,,
042437,001,2022-11-20_17h56.42.836,Info_measure_main_exp,2022.2.2,Win32,60.14675809,,,,,,,,,,,,,,,,,,masks/mask_005.jpg,,,,,,,,,,,,,,,,,,,,,,,,,,,,,,,,,,,,,,,,,,,0,3,3,4,1,,,,,,,,,,,,,,,,,,,,,,,,,,,,,,,,,,,,,,,,,,,,,,
042437,001,2022-11-20_17h56.42.836,Info_measure_main_exp,2022.2.2,Win32,60.14675809,,,,,,,,,,,,,,,,,,masks/mask_003.jpg,,,,,,,,,,,,,,,,,,,,,,,,,,,,,,,,,,,,,,,,,,,0,4,4,2,1,,,,,,,,,,,,,,,,,,,,,,,,,,,,,,,,,,,,,,,,,,,,,,
042437,001,2022-11-20_17h56.42.836,Info_measure_main_exp,2022.2.2,Win32,60.14675809,,,,,,,,,,,,,,,,,,masks/mask_003.jpg,,,,,,,,,,,,,,,,,,,,,,,,,,,,,,,,,,,,,,,,,,,,,,,,0,0,0,2,1,,,,,,,,,,,,,,,,,,,,,,,,,,,,,,,,,,,,,,,,,
042437,001,2022-11-20_17h56.42.836,Info_measure_main_exp,2022.2.2,Win32,60.14675809,,,,,,,,,,,,,,,,,,masks/mask_005.jpg,,,,,,,,,,,,,,,,,,,,,,,,,,,,,,,,,,,,,,,,,,,,,,,,0,1,1,4,1,,,,,,,,,,,,,,,,,,,,,,,,,,,,,,,,,,,,,,,,,
042437,001,2022-11-20_17h56.42.836,Info_measure_main_exp,2022.2.2,Win32,60.14675809,,,,,,,,,,,,,,,,,,masks/mask_002.jpg,,,,,,,,,,,,,,,,,,,,,,,,,,,,,,,,,,,,,,,,,,,,,,,,0,2,2,1,1,,,,,,,,,,,,,,,,,,,,,,,,,,,,,,,,,,,,,,,,,
042437,001,2022-11-20_17h56.42.836,Info_measure_main_exp,2022.2.2,Win32,60.14675809,,,,,,,,,,,,,,,,,,masks/mask_004.jpg,,,,,,,,,,,,,,,,,,,,,,,,,,,,,,,,,,,,,,,,,,,,,,,,0,3,3,3,1,,,,,,,,,,,,,,,,,,,,,,,,,,,,,,,,,,,,,,,,,
042437,001,2022-11-20_17h56.42.836,Info_measure_main_exp,2022.2.2,Win32,60.14675809,,,,,,,,,,,,,,,,,,masks/mask_001.jpg,,,,,,,,,,,,,,,,,,,,,,,,,,,,,,,,,,,,,,,,,,,,,,,,0,4,4,0,1,,,,,,,,,,,,,,,,,,,,,,,,,,,,,,,,,,,,,,,,,
042437,001,2022-11-20_17h56.42.836,Info_measure_main_exp,2022.2.2,Win32,60.14675809,,,,,,,,,,,,,,,,,,,,,,,,,,,,,,0,1.0085,1,,,,,,,,,,,,0,131,5,5,2298,2274,absent_patch/patch0002298.jpg,absent_patch/patch0002274.jpg,,,,,,,,,,,,,,,,,,,,-0.020370342,0.044444437,1,0,0,response7disk,17,-0.009259259,-0.006481489,1,0,0,center_square,0,16,16,1,1,,,,,,,,,,,,,,,,,,,,,,,
042437,001,2022-11-20_17h56.42.836,Info_measure_main_exp,2022.2.2,Win32,60.14675809,,,,,,,,,,,,,,,,,,masks/mask_002.jpg,,,,,,,,,,,,,,,,,,,,,,,,,,,,,,,,,,,,,,,,,,,0,0,0,1,1,,,,,,,,,,,,,,,,,,,,,,,,,,,,,,,,,,,,,,,,,,,,,,
042437,001,2022-11-20_17h56.42.836,Info_measure_main_exp,2022.2.2,Win32,60.14675809,,,,,,,,,,,,,,,,,,masks/mask_003.jpg,,,,,,,,,,,,,,,,,,,,,,,,,,,,,,,,,,,,,,,,,,,0,1,1,2,1,,,,,,,,,,,,,,,,,,,,,,,,,,,,,,,,,,,,,,,,,,,,,,
042437,001,2022-11-20_17h56.42.836,Info_measure_main_exp,2022.2.2,Win32,60.14675809,,,,,,,,,,,,,,,,,,masks/mask_001.jpg,,,,,,,,,,,,,,,,,,,,,,,,,,,,,,,,,,,,,,,,,,,0,2,2,0,1,,,,,,,,,,,,,,,,,,,,,,,,,,,,,,,,,,,,,,,,,,,,,,
042437,001,2022-11-20_17h56.42.836,Info_measure_main_exp,2022.2.2,Win32,60.14675809,,,,,,,,,,,,,,,,,,masks/mask_005.jpg,,,,,,,,,,,,,,,,,,,,,,,,,,,,,,,,,,,,,,,,,,,0,3,3,4,1,,,,,,,,,,,,,,,,,,,,,,,,,,,,,,,,,,,,,,,,,,,,,,
042437,001,2022-11-20_17h56.42.836,Info_measure_main_exp,2022.2.2,Win32,60.14675809,,,,,,,,,,,,,,,,,,masks/mask_004.jpg,,,,,,,,,,,,,,,,,,,,,,,,,,,,,,,,,,,,,,,,,,,0,4,4,3,1,,,,,,,,,,,,,,,,,,,,,,,,,,,,,,,,,,,,,,,,,,,,,,
042437,001,2022-11-20_17h56.42.836,Info_measure_main_exp,2022.2.2,Win32,60.14675809,,,,,,,,,,,,,,,,,,masks/mask_005.jpg,,,,,,,,,,,,,,,,,,,,,,,,,,,,,,,,,,,,,,,,,,,,,,,,0,0,0,4,1,,,,,,,,,,,,,,,,,,,,,,,,,,,,,,,,,,,,,,,,,
042437,001,2022-11-20_17h56.42.836,Info_measure_main_exp,2022.2.2,Win32,60.14675809,,,,,,,,,,,,,,,,,,masks/mask_003.jpg,,,,,,,,,,,,,,,,,,,,,,,,,,,,,,,,,,,,,,,,,,,,,,,,0,1,1,2,1,,,,,,,,,,,,,,,,,,,,,,,,,,,,,,,,,,,,,,,,,
042437,001,2022-11-20_17h56.42.836,Info_measure_main_exp,2022.2.2,Win32,60.14675809,,,,,,,,,,,,,,,,,,masks/mask_001.jpg,,,,,,,,,,,,,,,,,,,,,,,,,,,,,,,,,,,,,,,,,,,,,,,,0,2,2,0,1,,,,,,,,,,,,,,,,,,,,,,,,,,,,,,,,,,,,,,,,,
042437,001,2022-11-20_17h56.42.836,Info_measure_main_exp,2022.2.2,Win32,60.14675809,,,,,,,,,,,,,,,,,,masks/mask_004.jpg,,,,,,,,,,,,,,,,,,,,,,,,,,,,,,,,,,,,,,,,,,,,,,,,0,3,3,3,1,,,,,,,,,,,,,,,,,,,,,,,,,,,,,,,,,,,,,,,,,
042437,001,2022-11-20_17h56.42.836,Info_measure_main_exp,2022.2.2,Win32,60.14675809,,,,,,,,,,,,,,,,,,masks/mask_002.jpg,,,,,,,,,,,,,,,,,,,,,,,,,,,,,,,,,,,,,,,,,,,,,,,,0,4,4,1,1,,,,,,,,,,,,,,,,,,,,,,,,,,,,,,,,,,,,,,,,,
042437,001,2022-11-20_17h56.42.836,Info_measure_main_exp,2022.2.2,Win32,60.14675809,,,,,,,,,,,,,,,,,,,,,,,,,,,,,,4,0.914,1,,,,,,,,,,,,1,131,5,5,1,2178,present_patch/cong_131_5_a.jpg,absent_patch/patch0002178.jpg,,,,,,,,,,,,,,,,,,,,0.018518519,-0.075000021,1,0,0,response3disk,18,0.012962977,-0.002777771,1,0,0,center_square,0,17,17,40,1,,,,,,,,,,,,,,,,,,,,,,,
042437,001,2022-11-20_17h56.42.836,Info_measure_main_exp,2022.2.2,Win32,60.14675809,,,,,,,,,,,,,,,,,,masks/mask_001.jpg,,,,,,,,,,,,,,,,,,,,,,,,,,,,,,,,,,,,,,,,,,,0,0,0,0,1,,,,,,,,,,,,,,,,,,,,,,,,,,,,,,,,,,,,,,,,,,,,,,
042437,001,2022-11-20_17h56.42.836,Info_measure_main_exp,2022.2.2,Win32,60.14675809,,,,,,,,,,,,,,,,,,masks/mask_005.jpg,,,,,,,,,,,,,,,,,,,,,,,,,,,,,,,,,,,,,,,,,,,0,1,1,4,1,,,,,,,,,,,,,,,,,,,,,,,,,,,,,,,,,,,,,,,,,,,,,,
042437,001,2022-11-20_17h56.42.836,Info_measure_main_exp,2022.2.2,Win32,60.14675809,,,,,,,,,,,,,,,,,,masks/mask_003.jpg,,,,,,,,,,,,,,,,,,,,,,,,,,,,,,,,,,,,,,,,,,,0,2,2,2,1,,,,,,,,,,,,,,,,,,,,,,,,,,,,,,,,,,,,,,,,,,,,,,
042437,001,2022-11-20_17h56.42.836,Info_measure_main_exp,2022.2.2,Win32,60.14675809,,,,,,,,,,,,,,,,,,masks/mask_004.jpg,,,,,,,,,,,,,,,,,,,,,,,,,,,,,,,,,,,,,,,,,,,0,3,3,3,1,,,,,,,,,,,,,,,,,,,,,,,,,,,,,,,,,,,,,,,,,,,,,,
042437,001,2022-11-20_17h56.42.836,Info_measure_main_exp,2022.2.2,Win32,60.14675809,,,,,,,,,,,,,,,,,,masks/mask_002.jpg,,,,,,,,,,,,,,,,,,,,,,,,,,,,,,,,,,,,,,,,,,,0,4,4,1,1,,,,,,,,,,,,,,,,,,,,,,,,,,,,,,,,,,,,,,,,,,,,,,
042437,001,2022-11-20_17h56.42.836,Info_measure_main_exp,2022.2.2,Win32,60.14675809,,,,,,,,,,,,,,,,,,masks/mask_005.jpg,,,,,,,,,,,,,,,,,,,,,,,,,,,,,,,,,,,,,,,,,,,,,,,,0,0,0,4,1,,,,,,,,,,,,,,,,,,,,,,,,,,,,,,,,,,,,,,,,,
042437,001,2022-11-20_17h56.42.836,Info_measure_main_exp,2022.2.2,Win32,60.14675809,,,,,,,,,,,,,,,,,,masks/mask_001.jpg,,,,,,,,,,,,,,,,,,,,,,,,,,,,,,,,,,,,,,,,,,,,,,,,0,1,1,0,1,,,,,,,,,,,,,,,,,,,,,,,,,,,,,,,,,,,,,,,,,
042437,001,2022-11-20_17h56.42.836,Info_measure_main_exp,2022.2.2,Win32,60.14675809,,,,,,,,,,,,,,,,,,masks/mask_004.jpg,,,,,,,,,,,,,,,,,,,,,,,,,,,,,,,,,,,,,,,,,,,,,,,,0,2,2,3,1,,,,,,,,,,,,,,,,,,,,,,,,,,,,,,,,,,,,,,,,,
042437,001,2022-11-20_17h56.42.836,Info_measure_main_exp,2022.2.2,Win32,60.14675809,,,,,,,,,,,,,,,,,,masks/mask_002.jpg,,,,,,,,,,,,,,,,,,,,,,,,,,,,,,,,,,,,,,,,,,,,,,,,0,3,3,1,1,,,,,,,,,,,,,,,,,,,,,,,,,,,,,,,,,,,,,,,,,
042437,001,2022-11-20_17h56.42.836,Info_measure_main_exp,2022.2.2,Win32,60.14675809,,,,,,,,,,,,,,,,,,masks/mask_003.jpg,,,,,,,,,,,,,,,,,,,,,,,,,,,,,,,,,,,,,,,,,,,,,,,,0,4,4,2,1,,,,,,,,,,,,,,,,,,,,,,,,,,,,,,,,,,,,,,,,,
042437,001,2022-11-20_17h56.42.836,Info_measure_main_exp,2022.2.2,Win32,60.14675809,,,,,,,,,,,,,,,,,,,,,,,,,,,,,,1,1.8568,1,,,,,,,,,,,,0,131,5,5,2178,2142,absent_patch/patch0002178.jpg,absent_patch/patch0002142.jpg,,,,,,,,,,,,,,,,,,,,-0.07222218,0.044444437,1,0,0,response7disk,19,-0.012962977,0.000925912,1,0,0,center_square,0,18,18,41,1,,,,,,,,,,,,,,,,,,,,,,,
042437,001,2022-11-20_17h56.42.836,Info_measure_main_exp,2022.2.2,Win32,60.14675809,,,,,,,,,,,,,,,,,,masks/mask_001.jpg,,,,,,,,,,,,,,,,,,,,,,,,,,,,,,,,,,,,,,,,,,,0,0,0,0,1,,,,,,,,,,,,,,,,,,,,,,,,,,,,,,,,,,,,,,,,,,,,,,
042437,001,2022-11-20_17h56.42.836,Info_measure_main_exp,2022.2.2,Win32,60.14675809,,,,,,,,,,,,,,,,,,masks/mask_005.jpg,,,,,,,,,,,,,,,,,,,,,,,,,,,,,,,,,,,,,,,,,,,0,1,1,4,1,,,,,,,,,,,,,,,,,,,,,,,,,,,,,,,,,,,,,,,,,,,,,,
042437,001,2022-11-20_17h56.42.836,Info_measure_main_exp,2022.2.2,Win32,60.14675809,,,,,,,,,,,,,,,,,,masks/mask_002.jpg,,,,,,,,,,,,,,,,,,,,,,,,,,,,,,,,,,,,,,,,,,,0,2,2,1,1,,,,,,,,,,,,,,,,,,,,,,,,,,,,,,,,,,,,,,,,,,,,,,
042437,001,2022-11-20_17h56.42.836,Info_measure_main_exp,2022.2.2,Win32,60.14675809,,,,,,,,,,,,,,,,,,masks/mask_004.jpg,,,,,,,,,,,,,,,,,,,,,,,,,,,,,,,,,,,,,,,,,,,0,3,3,3,1,,,,,,,,,,,,,,,,,,,,,,,,,,,,,,,,,,,,,,,,,,,,,,
042437,001,2022-11-20_17h56.42.836,Info_measure_main_exp,2022.2.2,Win32,60.14675809,,,,,,,,,,,,,,,,,,masks/mask_003.jpg,,,,,,,,,,,,,,,,,,,,,,,,,,,,,,,,,,,,,,,,,,,0,4,4,2,1,,,,,,,,,,,,,,,,,,,,,,,,,,,,,,,,,,,,,,,,,,,,,,
042437,001,2022-11-20_17h56.42.836,Info_measure_main_exp,2022.2.2,Win32,60.14675809,,,,,,,,,,,,,,,,,,masks/mask_004.jpg,,,,,,,,,,,,,,,,,,,,,,,,,,,,,,,,,,,,,,,,,,,,,,,,0,0,0,3,1,,,,,,,,,,,,,,,,,,,,,,,,,,,,,,,,,,,,,,,,,
042437,001,2022-11-20_17h56.42.836,Info_measure_main_exp,2022.2.2,Win32,60.14675809,,,,,,,,,,,,,,,,,,masks/mask_003.jpg,,,,,,,,,,,,,,,,,,,,,,,,,,,,,,,,,,,,,,,,,,,,,,,,0,1,1,2,1,,,,,,,,,,,,,,,,,,,,,,,,,,,,,,,,,,,,,,,,,
042437,001,2022-11-20_17h56.42.836,Info_measure_main_exp,2022.2.2,Win32,60.14675809,,,,,,,,,,,,,,,,,,masks/mask_002.jpg,,,,,,,,,,,,,,,,,,,,,,,,,,,,,,,,,,,,,,,,,,,,,,,,0,2,2,1,1,,,,,,,,,,,,,,,,,,,,,,,,,,,,,,,,,,,,,,,,,
042437,001,2022-11-20_17h56.42.836,Info_measure_main_exp,2022.2.2,Win32,60.14675809,,,,,,,,,,,,,,,,,,masks/mask_001.jpg,,,,,,,,,,,,,,,,,,,,,,,,,,,,,,,,,,,,,,,,,,,,,,,,0,3,3,0,1,,,,,,,,,,,,,,,,,,,,,,,,,,,,,,,,,,,,,,,,,
042437,001,2022-11-20_17h56.42.836,Info_measure_main_exp,2022.2.2,Win32,60.14675809,,,,,,,,,,,,,,,,,,masks/mask_005.jpg,,,,,,,,,,,,,,,,,,,,,,,,,,,,,,,,,,,,,,,,,,,,,,,,0,4,4,4,1,,,,,,,,,,,,,,,,,,,,,,,,,,,,,,,,,,,,,,,,,
042437,001,2022-11-20_17h56.42.836,Info_measure_main_exp,2022.2.2,Win32,60.14675809,,,,,,,,,,,,,,,,,,,,,,,,,,,,,,4,0.6758,1,,,,,,,,,,,,0,131,5,5,2190,1974,absent_patch/patch0002190.jpg,absent_patch/patch0001974.jpg,,,,,,,,,,,,,,,,,,,,0.011111153,-0.042592614,1,0,0,response3disk,20,0.002777806,0,1,0,0,center_square,0,19,19,119,1,,,,,,,,,,,,,,,,,,,,,,,
042437,001,2022-11-20_17h56.42.836,Info_measure_main_exp,2022.2.2,Win32,60.14675809,,,,,,,,,,,,,,,,,,masks/mask_004.jpg,,,,,,,,,,,,,,,,,,,,,,,,,,,,,,,,,,,,,,,,,,,0,0,0,3,1,,,,,,,,,,,,,,,,,,,,,,,,,,,,,,,,,,,,,,,,,,,,,,
042437,001,2022-11-20_17h56.42.836,Info_measure_main_exp,2022.2.2,Win32,60.14675809,,,,,,,,,,,,,,,,,,masks/mask_001.jpg,,,,,,,,,,,,,,,,,,,,,,,,,,,,,,,,,,,,,,,,,,,0,1,1,0,1,,,,,,,,,,,,,,,,,,,,,,,,,,,,,,,,,,,,,,,,,,,,,,
042437,001,2022-11-20_17h56.42.836,Info_measure_main_exp,2022.2.2,Win32,60.14675809,,,,,,,,,,,,,,,,,,masks/mask_003.jpg,,,,,,,,,,,,,,,,,,,,,,,,,,,,,,,,,,,,,,,,,,,0,2,2,2,1,,,,,,,,,,,,,,,,,,,,,,,,,,,,,,,,,,,,,,,,,,,,,,
042437,001,2022-11-20_17h56.42.836,Info_measure_main_exp,2022.2.2,Win32,60.14675809,,,,,,,,,,,,,,,,,,masks/mask_005.jpg,,,,,,,,,,,,,,,,,,,,,,,,,,,,,,,,,,,,,,,,,,,0,3,3,4,1,,,,,,,,,,,,,,,,,,,,,,,,,,,,,,,,,,,,,,,,,,,,,,
042437,001,2022-11-20_17h56.42.836,Info_measure_main_exp,2022.2.2,Win32,60.14675809,,,,,,,,,,,,,,,,,,masks/mask_002.jpg,,,,,,,,,,,,,,,,,,,,,,,,,,,,,,,,,,,,,,,,,,,0,4,4,1,1,,,,,,,,,,,,,,,,,,,,,,,,,,,,,,,,,,,,,,,,,,,,,,
042437,001,2022-11-20_17h56.42.836,Info_measure_main_exp,2022.2.2,Win32,60.14675809,,,,,,,,,,,,,,,,,,masks/mask_002.jpg,,,,,,,,,,,,,,,,,,,,,,,,,,,,,,,,,,,,,,,,,,,,,,,,0,0,0,1,1,,,,,,,,,,,,,,,,,,,,,,,,,,,,,,,,,,,,,,,,,
042437,001,2022-11-20_17h56.42.836,Info_measure_main_exp,2022.2.2,Win32,60.14675809,,,,,,,,,,,,,,,,,,masks/mask_001.jpg,,,,,,,,,,,,,,,,,,,,,,,,,,,,,,,,,,,,,,,,,,,,,,,,0,1,1,0,1,,,,,,,,,,,,,,,,,,,,,,,,,,,,,,,,,,,,,,,,,
042437,001,2022-11-20_17h56.42.836,Info_measure_main_exp,2022.2.2,Win32,60.14675809,,,,,,,,,,,,,,,,,,masks/mask_005.jpg,,,,,,,,,,,,,,,,,,,,,,,,,,,,,,,,,,,,,,,,,,,,,,,,0,2,2,4,1,,,,,,,,,,,,,,,,,,,,,,,,,,,,,,,,,,,,,,,,,
042437,001,2022-11-20_17h56.42.836,Info_measure_main_exp,2022.2.2,Win32,60.14675809,,,,,,,,,,,,,,,,,,masks/mask_003.jpg,,,,,,,,,,,,,,,,,,,,,,,,,,,,,,,,,,,,,,,,,,,,,,,,0,3,3,2,1,,,,,,,,,,,,,,,,,,,,,,,,,,,,,,,,,,,,,,,,,
042437,001,2022-11-20_17h56.42.836,Info_measure_main_exp,2022.2.2,Win32,60.14675809,,,,,,,,,,,,,,,,,,masks/mask_004.jpg,,,,,,,,,,,,,,,,,,,,,,,,,,,,,,,,,,,,,,,,,,,,,,,,0,4,4,3,1,,,,,,,,,,,,,,,,,,,,,,,,,,,,,,,,,,,,,,,,,
042437,001,2022-11-20_17h56.42.836,Info_measure_main_exp,2022.2.2,Win32,60.14675809,,,,,,,,,,,,,,,,,,,,,,,,,,,,,,7,1.324,1,,,,,,,,,,,,0,131,5,5,2142,2166,absent_patch/patch0002142.jpg,absent_patch/patch0002166.jpg,,,,,,,,,,,,,,,,,,,,0.038888931,0.039814808,1,0,0,response1disk,21,0,0.00462963,1,0,0,center_square,0,20,20,66,1,,,,,,,,,,,,,,,,,,,,,,,
042437,001,2022-11-20_17h56.42.836,Info_measure_main_exp,2022.2.2,Win32,60.14675809,,,,,,,,,,,,,,,,,,masks/mask_005.jpg,,,,,,,,,,,,,,,,,,,,,,,,,,,,,,,,,,,,,,,,,,,0,0,0,4,1,,,,,,,,,,,,,,,,,,,,,,,,,,,,,,,,,,,,,,,,,,,,,,
042437,001,2022-11-20_17h56.42.836,Info_measure_main_exp,2022.2.2,Win32,60.14675809,,,,,,,,,,,,,,,,,,masks/mask_004.jpg,,,,,,,,,,,,,,,,,,,,,,,,,,,,,,,,,,,,,,,,,,,0,1,1,3,1,,,,,,,,,,,,,,,,,,,,,,,,,,,,,,,,,,,,,,,,,,,,,,
042437,001,2022-11-20_17h56.42.836,Info_measure_main_exp,2022.2.2,Win32,60.14675809,,,,,,,,,,,,,,,,,,masks/mask_003.jpg,,,,,,,,,,,,,,,,,,,,,,,,,,,,,,,,,,,,,,,,,,,0,2,2,2,1,,,,,,,,,,,,,,,,,,,,,,,,,,,,,,,,,,,,,,,,,,,,,,
042437,001,2022-11-20_17h56.42.836,Info_measure_main_exp,2022.2.2,Win32,60.14675809,,,,,,,,,,,,,,,,,,masks/mask_001.jpg,,,,,,,,,,,,,,,,,,,,,,,,,,,,,,,,,,,,,,,,,,,0,3,3,0,1,,,,,,,,,,,,,,,,,,,,,,,,,,,,,,,,,,,,,,,,,,,,,,
042437,001,2022-11-20_17h56.42.836,Info_measure_main_exp,2022.2.2,Win32,60.14675809,,,,,,,,,,,,,,,,,,masks/mask_002.jpg,,,,,,,,,,,,,,,,,,,,,,,,,,,,,,,,,,,,,,,,,,,0,4,4,1,1,,,,,,,,,,,,,,,,,,,,,,,,,,,,,,,,,,,,,,,,,,,,,,
042437,001,2022-11-20_17h56.42.836,Info_measure_main_exp,2022.2.2,Win32,60.14675809,,,,,,,,,,,,,,,,,,masks/mask_003.jpg,,,,,,,,,,,,,,,,,,,,,,,,,,,,,,,,,,,,,,,,,,,,,,,,0,0,0,2,1,,,,,,,,,,,,,,,,,,,,,,,,,,,,,,,,,,,,,,,,,
042437,001,2022-11-20_17h56.42.836,Info_measure_main_exp,2022.2.2,Win32,60.14675809,,,,,,,,,,,,,,,,,,masks/mask_004.jpg,,,,,,,,,,,,,,,,,,,,,,,,,,,,,,,,,,,,,,,,,,,,,,,,0,1,1,3,1,,,,,,,,,,,,,,,,,,,,,,,,,,,,,,,,,,,,,,,,,
042437,001,2022-11-20_17h56.42.836,Info_measure_main_exp,2022.2.2,Win32,60.14675809,,,,,,,,,,,,,,,,,,masks/mask_005.jpg,,,,,,,,,,,,,,,,,,,,,,,,,,,,,,,,,,,,,,,,,,,,,,,,0,2,2,4,1,,,,,,,,,,,,,,,,,,,,,,,,,,,,,,,,,,,,,,,,,
042437,001,2022-11-20_17h56.42.836,Info_measure_main_exp,2022.2.2,Win32,60.14675809,,,,,,,,,,,,,,,,,,masks/mask_002.jpg,,,,,,,,,,,,,,,,,,,,,,,,,,,,,,,,,,,,,,,,,,,,,,,,0,3,3,1,1,,,,,,,,,,,,,,,,,,,,,,,,,,,,,,,,,,,,,,,,,
042437,001,2022-11-20_17h56.42.836,Info_measure_main_exp,2022.2.2,Win32,60.14675809,,,,,,,,,,,,,,,,,,masks/mask_001.jpg,,,,,,,,,,,,,,,,,,,,,,,,,,,,,,,,,,,,,,,,,,,,,,,,0,4,4,0,1,,,,,,,,,,,,,,,,,,,,,,,,,,,,,,,,,,,,,,,,,
042437,001,2022-11-20_17h56.42.836,Info_measure_main_exp,2022.2.2,Win32,60.14675809,,,,,,,,,,,,,,,,,,,,,,,,,,,,,,6,1.9559,1,,,,,,,,,,,,0,131,5,5,2190,1986,absent_patch/patch0002190.jpg,absent_patch/patch0001986.jpg,,,,,,,,,,,,,,,,,,,,0.027777778,0.026851831,1,0,0,response1disk,22,0.005555541,0,1,0,0,center_square,0,21,21,111,1,,,,,,,,,,,,,,,,,,,,,,,
042437,001,2022-11-20_17h56.42.836,Info_measure_main_exp,2022.2.2,Win32,60.14675809,,,,,,,,,,,,,,,,,,masks/mask_004.jpg,,,,,,,,,,,,,,,,,,,,,,,,,,,,,,,,,,,,,,,,,,,0,0,0,3,1,,,,,,,,,,,,,,,,,,,,,,,,,,,,,,,,,,,,,,,,,,,,,,
042437,001,2022-11-20_17h56.42.836,Info_measure_main_exp,2022.2.2,Win32,60.14675809,,,,,,,,,,,,,,,,,,masks/mask_001.jpg,,,,,,,,,,,,,,,,,,,,,,,,,,,,,,,,,,,,,,,,,,,0,1,1,0,1,,,,,,,,,,,,,,,,,,,,,,,,,,,,,,,,,,,,,,,,,,,,,,
042437,001,2022-11-20_17h56.42.836,Info_measure_main_exp,2022.2.2,Win32,60.14675809,,,,,,,,,,,,,,,,,,masks/mask_005.jpg,,,,,,,,,,,,,,,,,,,,,,,,,,,,,,,,,,,,,,,,,,,0,2,2,4,1,,,,,,,,,,,,,,,,,,,,,,,,,,,,,,,,,,,,,,,,,,,,,,
042437,001,2022-11-20_17h56.42.836,Info_measure_main_exp,2022.2.2,Win32,60.14675809,,,,,,,,,,,,,,,,,,masks/mask_003.jpg,,,,,,,,,,,,,,,,,,,,,,,,,,,,,,,,,,,,,,,,,,,0,3,3,2,1,,,,,,,,,,,,,,,,,,,,,,,,,,,,,,,,,,,,,,,,,,,,,,
042437,001,2022-11-20_17h56.42.836,Info_measure_main_exp,2022.2.2,Win32,60.14675809,,,,,,,,,,,,,,,,,,masks/mask_002.jpg,,,,,,,,,,,,,,,,,,,,,,,,,,,,,,,,,,,,,,,,,,,0,4,4,1,1,,,,,,,,,,,,,,,,,,,,,,,,,,,,,,,,,,,,,,,,,,,,,,
042437,001,2022-11-20_17h56.42.836,Info_measure_main_exp,2022.2.2,Win32,60.14675809,,,,,,,,,,,,,,,,,,masks/mask_002.jpg,,,,,,,,,,,,,,,,,,,,,,,,,,,,,,,,,,,,,,,,,,,,,,,,0,0,0,1,1,,,,,,,,,,,,,,,,,,,,,,,,,,,,,,,,,,,,,,,,,
042437,001,2022-11-20_17h56.42.836,Info_measure_main_exp,2022.2.2,Win32,60.14675809,,,,,,,,,,,,,,,,,,masks/mask_004.jpg,,,,,,,,,,,,,,,,,,,,,,,,,,,,,,,,,,,,,,,,,,,,,,,,0,1,1,3,1,,,,,,,,,,,,,,,,,,,,,,,,,,,,,,,,,,,,,,,,,
042437,001,2022-11-20_17h56.42.836,Info_measure_main_exp,2022.2.2,Win32,60.14675809,,,,,,,,,,,,,,,,,,masks/mask_003.jpg,,,,,,,,,,,,,,,,,,,,,,,,,,,,,,,,,,,,,,,,,,,,,,,,0,2,2,2,1,,,,,,,,,,,,,,,,,,,,,,,,,,,,,,,,,,,,,,,,,
042437,001,2022-11-20_17h56.42.836,Info_measure_main_exp,2022.2.2,Win32,60.14675809,,,,,,,,,,,,,,,,,,masks/mask_001.jpg,,,,,,,,,,,,,,,,,,,,,,,,,,,,,,,,,,,,,,,,,,,,,,,,0,3,3,0,1,,,,,,,,,,,,,,,,,,,,,,,,,,,,,,,,,,,,,,,,,
042437,001,2022-11-20_17h56.42.836,Info_measure_main_exp,2022.2.2,Win32,60.14675809,,,,,,,,,,,,,,,,,,masks/mask_005.jpg,,,,,,,,,,,,,,,,,,,,,,,,,,,,,,,,,,,,,,,,,,,,,,,,0,4,4,4,1,,,,,,,,,,,,,,,,,,,,,,,,,,,,,,,,,,,,,,,,,
042437,001,2022-11-20_17h56.42.836,Info_measure_main_exp,2022.2.2,Win32,60.14675809,,,,,,,,,,,,,,,,,,,,,,,,,,,,,,6,0.9697,1,,,,,,,,,,,,0,131,5,5,2250,2238,absent_patch/patch0002250.jpg,absent_patch/patch0002238.jpg,,,,,,,,,,,,,,,,,,,,0.018518519,0.014814801,1,0,0,response1disk,23,-0.001851824,-0.009259259,1,0,0,center_square,0,22,22,110,1,,,,,,,,,,,,,,,,,,,,,,,
042437,001,2022-11-20_17h56.42.836,Info_measure_main_exp,2022.2.2,Win32,60.14675809,,,,,,,,,,,,,,,,,,masks/mask_002.jpg,,,,,,,,,,,,,,,,,,,,,,,,,,,,,,,,,,,,,,,,,,,0,0,0,1,1,,,,,,,,,,,,,,,,,,,,,,,,,,,,,,,,,,,,,,,,,,,,,,
042437,001,2022-11-20_17h56.42.836,Info_measure_main_exp,2022.2.2,Win32,60.14675809,,,,,,,,,,,,,,,,,,masks/mask_001.jpg,,,,,,,,,,,,,,,,,,,,,,,,,,,,,,,,,,,,,,,,,,,0,1,1,0,1,,,,,,,,,,,,,,,,,,,,,,,,,,,,,,,,,,,,,,,,,,,,,,
042437,001,2022-11-20_17h56.42.836,Info_measure_main_exp,2022.2.2,Win32,60.14675809,,,,,,,,,,,,,,,,,,masks/mask_005.jpg,,,,,,,,,,,,,,,,,,,,,,,,,,,,,,,,,,,,,,,,,,,0,2,2,4,1,,,,,,,,,,,,,,,,,,,,,,,,,,,,,,,,,,,,,,,,,,,,,,
042437,001,2022-11-20_17h56.42.836,Info_measure_main_exp,2022.2.2,Win32,60.14675809,,,,,,,,,,,,,,,,,,masks/mask_003.jpg,,,,,,,,,,,,,,,,,,,,,,,,,,,,,,,,,,,,,,,,,,,0,3,3,2,1,,,,,,,,,,,,,,,,,,,,,,,,,,,,,,,,,,,,,,,,,,,,,,
042437,001,2022-11-20_17h56.42.836,Info_measure_main_exp,2022.2.2,Win32,60.14675809,,,,,,,,,,,,,,,,,,masks/mask_004.jpg,,,,,,,,,,,,,,,,,,,,,,,,,,,,,,,,,,,,,,,,,,,0,4,4,3,1,,,,,,,,,,,,,,,,,,,,,,,,,,,,,,,,,,,,,,,,,,,,,,
042437,001,2022-11-20_17h56.42.836,Info_measure_main_exp,2022.2.2,Win32,60.14675809,,,,,,,,,,,,,,,,,,masks/mask_004.jpg,,,,,,,,,,,,,,,,,,,,,,,,,,,,,,,,,,,,,,,,,,,,,,,,0,0,0,3,1,,,,,,,,,,,,,,,,,,,,,,,,,,,,,,,,,,,,,,,,,
042437,001,2022-11-20_17h56.42.836,Info_measure_main_exp,2022.2.2,Win32,60.14675809,,,,,,,,,,,,,,,,,,masks/mask_001.jpg,,,,,,,,,,,,,,,,,,,,,,,,,,,,,,,,,,,,,,,,,,,,,,,,0,1,1,0,1,,,,,,,,,,,,,,,,,,,,,,,,,,,,,,,,,,,,,,,,,
042437,001,2022-11-20_17h56.42.836,Info_measure_main_exp,2022.2.2,Win32,60.14675809,,,,,,,,,,,,,,,,,,masks/mask_005.jpg,,,,,,,,,,,,,,,,,,,,,,,,,,,,,,,,,,,,,,,,,,,,,,,,0,2,2,4,1,,,,,,,,,,,,,,,,,,,,,,,,,,,,,,,,,,,,,,,,,
042437,001,2022-11-20_17h56.42.836,Info_measure_main_exp,2022.2.2,Win32,60.14675809,,,,,,,,,,,,,,,,,,masks/mask_002.jpg,,,,,,,,,,,,,,,,,,,,,,,,,,,,,,,,,,,,,,,,,,,,,,,,0,3,3,1,1,,,,,,,,,,,,,,,,,,,,,,,,,,,,,,,,,,,,,,,,,
042437,001,2022-11-20_17h56.42.836,Info_measure_main_exp,2022.2.2,Win32,60.14675809,,,,,,,,,,,,,,,,,,masks/mask_003.jpg,,,,,,,,,,,,,,,,,,,,,,,,,,,,,,,,,,,,,,,,,,,,,,,,0,4,4,2,1,,,,,,,,,,,,,,,,,,,,,,,,,,,,,,,,,,,,,,,,,
042437,001,2022-11-20_17h56.42.836,Info_measure_main_exp,2022.2.2,Win32,60.14675809,,,,,,,,,,,,,,,,,,,,,,,,,,,,,,6,0.8813,1,,,,,,,,,,,,0,131,5,5,2190,2166,absent_patch/patch0002190.jpg,absent_patch/patch0002166.jpg,,,,,,,,,,,,,,,,,,,,0.032407407,0.013888889,1,0,0,response1disk,24,0.000925912,-0.012962977,1,0,0,center_square,0,23,23,50,1,,,,,,,,,,,,,,,,,,,,,,,
042437,001,2022-11-20_17h56.42.836,Info_measure_main_exp,2022.2.2,Win32,60.14675809,,,,,,,,,,,,,,,,,,masks/mask_004.jpg,,,,,,,,,,,,,,,,,,,,,,,,,,,,,,,,,,,,,,,,,,,0,0,0,3,1,,,,,,,,,,,,,,,,,,,,,,,,,,,,,,,,,,,,,,,,,,,,,,
042437,001,2022-11-20_17h56.42.836,Info_measure_main_exp,2022.2.2,Win32,60.14675809,,,,,,,,,,,,,,,,,,masks/mask_003.jpg,,,,,,,,,,,,,,,,,,,,,,,,,,,,,,,,,,,,,,,,,,,0,1,1,2,1,,,,,,,,,,,,,,,,,,,,,,,,,,,,,,,,,,,,,,,,,,,,,,
042437,001,2022-11-20_17h56.42.836,Info_measure_main_exp,2022.2.2,Win32,60.14675809,,,,,,,,,,,,,,,,,,masks/mask_002.jpg,,,,,,,,,,,,,,,,,,,,,,,,,,,,,,,,,,,,,,,,,,,0,2,2,1,1,,,,,,,,,,,,,,,,,,,,,,,,,,,,,,,,,,,,,,,,,,,,,,
042437,001,2022-11-20_17h56.42.836,Info_measure_main_exp,2022.2.2,Win32,60.14675809,,,,,,,,,,,,,,,,,,masks/mask_001.jpg,,,,,,,,,,,,,,,,,,,,,,,,,,,,,,,,,,,,,,,,,,,0,3,3,0,1,,,,,,,,,,,,,,,,,,,,,,,,,,,,,,,,,,,,,,,,,,,,,,
042437,001,2022-11-20_17h56.42.836,Info_measure_main_exp,2022.2.2,Win32,60.14675809,,,,,,,,,,,,,,,,,,masks/mask_005.jpg,,,,,,,,,,,,,,,,,,,,,,,,,,,,,,,,,,,,,,,,,,,0,4,4,4,1,,,,,,,,,,,,,,,,,,,,,,,,,,,,,,,,,,,,,,,,,,,,,,
042437,001,2022-11-20_17h56.42.836,Info_measure_main_exp,2022.2.2,Win32,60.14675809,,,,,,,,,,,,,,,,,,masks/mask_001.jpg,,,,,,,,,,,,,,,,,,,,,,,,,,,,,,,,,,,,,,,,,,,,,,,,0,0,0,0,1,,,,,,,,,,,,,,,,,,,,,,,,,,,,,,,,,,,,,,,,,
042437,001,2022-11-20_17h56.42.836,Info_measure_main_exp,2022.2.2,Win32,60.14675809,,,,,,,,,,,,,,,,,,masks/mask_003.jpg,,,,,,,,,,,,,,,,,,,,,,,,,,,,,,,,,,,,,,,,,,,,,,,,0,1,1,2,1,,,,,,,,,,,,,,,,,,,,,,,,,,,,,,,,,,,,,,,,,
042437,001,2022-11-20_17h56.42.836,Info_measure_main_exp,2022.2.2,Win32,60.14675809,,,,,,,,,,,,,,,,,,masks/mask_005.jpg,,,,,,,,,,,,,,,,,,,,,,,,,,,,,,,,,,,,,,,,,,,,,,,,0,2,2,4,1,,,,,,,,,,,,,,,,,,,,,,,,,,,,,,,,,,,,,,,,,
042437,001,2022-11-20_17h56.42.836,Info_measure_main_exp,2022.2.2,Win32,60.14675809,,,,,,,,,,,,,,,,,,masks/mask_004.jpg,,,,,,,,,,,,,,,,,,,,,,,,,,,,,,,,,,,,,,,,,,,,,,,,0,3,3,3,1,,,,,,,,,,,,,,,,,,,,,,,,,,,,,,,,,,,,,,,,,
042437,001,2022-11-20_17h56.42.836,Info_measure_main_exp,2022.2.2,Win32,60.14675809,,,,,,,,,,,,,,,,,,masks/mask_002.jpg,,,,,,,,,,,,,,,,,,,,,,,,,,,,,,,,,,,,,,,,,,,,,,,,0,4,4,1,1,,,,,,,,,,,,,,,,,,,,,,,,,,,,,,,,,,,,,,,,,
042437,001,2022-11-20_17h56.42.836,Info_measure_main_exp,2022.2.2,Win32,60.14675809,,,,,,,,,,,,,,,,,,,,,,,,,,,,,,1,1.208,1,,,,,,,,,,,,0,131,5,5,1950,2082,absent_patch/patch0001950.jpg,absent_patch/patch0002082.jpg,,,,,,,,,,,,,,,,,,,,-0.047222208,0.010185171,1,0,0,response7disk,25,-0.005555541,-0.00462963,1,0,0,center_square,0,24,24,12,1,,,,,,,,,,,,,,,,,,,,,,,
042437,001,2022-11-20_17h56.42.836,Info_measure_main_exp,2022.2.2,Win32,60.14675809,,,,,,,,,,,,,,,,,,masks/mask_005.jpg,,,,,,,,,,,,,,,,,,,,,,,,,,,,,,,,,,,,,,,,,,,0,0,0,4,1,,,,,,,,,,,,,,,,,,,,,,,,,,,,,,,,,,,,,,,,,,,,,,
042437,001,2022-11-20_17h56.42.836,Info_measure_main_exp,2022.2.2,Win32,60.14675809,,,,,,,,,,,,,,,,,,masks/mask_004.jpg,,,,,,,,,,,,,,,,,,,,,,,,,,,,,,,,,,,,,,,,,,,0,1,1,3,1,,,,,,,,,,,,,,,,,,,,,,,,,,,,,,,,,,,,,,,,,,,,,,
042437,001,2022-11-20_17h56.42.836,Info_measure_main_exp,2022.2.2,Win32,60.14675809,,,,,,,,,,,,,,,,,,masks/mask_003.jpg,,,,,,,,,,,,,,,,,,,,,,,,,,,,,,,,,,,,,,,,,,,0,2,2,2,1,,,,,,,,,,,,,,,,,,,,,,,,,,,,,,,,,,,,,,,,,,,,,,
042437,001,2022-11-20_17h56.42.836,Info_measure_main_exp,2022.2.2,Win32,60.14675809,,,,,,,,,,,,,,,,,,masks/mask_002.jpg,,,,,,,,,,,,,,,,,,,,,,,,,,,,,,,,,,,,,,,,,,,0,3,3,1,1,,,,,,,,,,,,,,,,,,,,,,,,,,,,,,,,,,,,,,,,,,,,,,
042437,001,2022-11-20_17h56.42.836,Info_measure_main_exp,2022.2.2,Win32,60.14675809,,,,,,,,,,,,,,,,,,masks/mask_001.jpg,,,,,,,,,,,,,,,,,,,,,,,,,,,,,,,,,,,,,,,,,,,0,4,4,0,1,,,,,,,,,,,,,,,,,,,,,,,,,,,,,,,,,,,,,,,,,,,,,,
042437,001,2022-11-20_17h56.42.836,Info_measure_main_exp,2022.2.2,Win32,60.14675809,,,,,,,,,,,,,,,,,,masks/mask_005.jpg,,,,,,,,,,,,,,,,,,,,,,,,,,,,,,,,,,,,,,,,,,,,,,,,0,0,0,4,1,,,,,,,,,,,,,,,,,,,,,,,,,,,,,,,,,,,,,,,,,
042437,001,2022-11-20_17h56.42.836,Info_measure_main_exp,2022.2.2,Win32,60.14675809,,,,,,,,,,,,,,,,,,masks/mask_001.jpg,,,,,,,,,,,,,,,,,,,,,,,,,,,,,,,,,,,,,,,,,,,,,,,,0,1,1,0,1,,,,,,,,,,,,,,,,,,,,,,,,,,,,,,,,,,,,,,,,,
042437,001,2022-11-20_17h56.42.836,Info_measure_main_exp,2022.2.2,Win32,60.14675809,,,,,,,,,,,,,,,,,,masks/mask_003.jpg,,,,,,,,,,,,,,,,,,,,,,,,,,,,,,,,,,,,,,,,,,,,,,,,0,2,2,2,1,,,,,,,,,,,,,,,,,,,,,,,,,,,,,,,,,,,,,,,,,
042437,001,2022-11-20_17h56.42.836,Info_measure_main_exp,2022.2.2,Win32,60.14675809,,,,,,,,,,,,,,,,,,masks/mask_002.jpg,,,,,,,,,,,,,,,,,,,,,,,,,,,,,,,,,,,,,,,,,,,,,,,,0,3,3,1,1,,,,,,,,,,,,,,,,,,,,,,,,,,,,,,,,,,,,,,,,,
042437,001,2022-11-20_17h56.42.836,Info_measure_main_exp,2022.2.2,Win32,60.14675809,,,,,,,,,,,,,,,,,,masks/mask_004.jpg,,,,,,,,,,,,,,,,,,,,,,,,,,,,,,,,,,,,,,,,,,,,,,,,0,4,4,3,1,,,,,,,,,,,,,,,,,,,,,,,,,,,,,,,,,,,,,,,,,
042437,001,2022-11-20_17h56.42.836,Info_measure_main_exp,2022.2.2,Win32,60.14675809,,,,,,,,,,,,,,,,,,,,,,,,,,,,,,3,2.2769,1,,,,,,,,,,,,0,131,5,5,2274,2082,absent_patch/patch0002274.jpg,absent_patch/patch0002082.jpg,,,,,,,,,,,,,,,,,,,,-0.04351849,-0.073148162,1,0,0,response5disk,26,0.00462963,-0.000925947,1,0,0,center_square,0,25,25,100,1,,,,,,,,,,,,,,,,,,,,,,,
042437,001,2022-11-20_17h56.42.836,Info_measure_main_exp,2022.2.2,Win32,60.14675809,,,,,,,,,,,,,,,,,,masks/mask_004.jpg,,,,,,,,,,,,,,,,,,,,,,,,,,,,,,,,,,,,,,,,,,,0,0,0,3,1,,,,,,,,,,,,,,,,,,,,,,,,,,,,,,,,,,,,,,,,,,,,,,
042437,001,2022-11-20_17h56.42.836,Info_measure_main_exp,2022.2.2,Win32,60.14675809,,,,,,,,,,,,,,,,,,masks/mask_001.jpg,,,,,,,,,,,,,,,,,,,,,,,,,,,,,,,,,,,,,,,,,,,0,1,1,0,1,,,,,,,,,,,,,,,,,,,,,,,,,,,,,,,,,,,,,,,,,,,,,,
042437,001,2022-11-20_17h56.42.836,Info_measure_main_exp,2022.2.2,Win32,60.14675809,,,,,,,,,,,,,,,,,,masks/mask_005.jpg,,,,,,,,,,,,,,,,,,,,,,,,,,,,,,,,,,,,,,,,,,,0,2,2,4,1,,,,,,,,,,,,,,,,,,,,,,,,,,,,,,,,,,,,,,,,,,,,,,
042437,001,2022-11-20_17h56.42.836,Info_measure_main_exp,2022.2.2,Win32,60.14675809,,,,,,,,,,,,,,,,,,masks/mask_003.jpg,,,,,,,,,,,,,,,,,,,,,,,,,,,,,,,,,,,,,,,,,,,0,3,3,2,1,,,,,,,,,,,,,,,,,,,,,,,,,,,,,,,,,,,,,,,,,,,,,,
042437,001,2022-11-20_17h56.42.836,Info_measure_main_exp,2022.2.2,Win32,60.14675809,,,,,,,,,,,,,,,,,,masks/mask_002.jpg,,,,,,,,,,,,,,,,,,,,,,,,,,,,,,,,,,,,,,,,,,,0,4,4,1,1,,,,,,,,,,,,,,,,,,,,,,,,,,,,,,,,,,,,,,,,,,,,,,
042437,001,2022-11-20_17h56.42.836,Info_measure_main_exp,2022.2.2,Win32,60.14675809,,,,,,,,,,,,,,,,,,masks/mask_001.jpg,,,,,,,,,,,,,,,,,,,,,,,,,,,,,,,,,,,,,,,,,,,,,,,,0,0,0,0,1,,,,,,,,,,,,,,,,,,,,,,,,,,,,,,,,,,,,,,,,,
042437,001,2022-11-20_17h56.42.836,Info_measure_main_exp,2022.2.2,Win32,60.14675809,,,,,,,,,,,,,,,,,,masks/mask_005.jpg,,,,,,,,,,,,,,,,,,,,,,,,,,,,,,,,,,,,,,,,,,,,,,,,0,1,1,4,1,,,,,,,,,,,,,,,,,,,,,,,,,,,,,,,,,,,,,,,,,
042437,001,2022-11-20_17h56.42.836,Info_measure_main_exp,2022.2.2,Win32,60.14675809,,,,,,,,,,,,,,,,,,masks/mask_002.jpg,,,,,,,,,,,,,,,,,,,,,,,,,,,,,,,,,,,,,,,,,,,,,,,,0,2,2,1,1,,,,,,,,,,,,,,,,,,,,,,,,,,,,,,,,,,,,,,,,,
042437,001,2022-11-20_17h56.42.836,Info_measure_main_exp,2022.2.2,Win32,60.14675809,,,,,,,,,,,,,,,,,,masks/mask_003.jpg,,,,,,,,,,,,,,,,,,,,,,,,,,,,,,,,,,,,,,,,,,,,,,,,0,3,3,2,1,,,,,,,,,,,,,,,,,,,,,,,,,,,,,,,,,,,,,,,,,
042437,001,2022-11-20_17h56.42.836,Info_measure_main_exp,2022.2.2,Win32,60.14675809,,,,,,,,,,,,,,,,,,masks/mask_004.jpg,,,,,,,,,,,,,,,,,,,,,,,,,,,,,,,,,,,,,,,,,,,,,,,,0,4,4,3,1,,,,,,,,,,,,,,,,,,,,,,,,,,,,,,,,,,,,,,,,,
042437,001,2022-11-20_17h56.42.836,Info_measure_main_exp,2022.2.2,Win32,60.14675809,,,,,,,,,,,,,,,,,,,,,,,,,,,,,,6,1.2632,1,,,,,,,,,,,,1,131,5,5,1,2154,present_patch/cong_131_5_a.jpg,absent_patch/patch0002154.jpg,,,,,,,,,,,,,,,,,,,,0.055555556,0.052777785,1,0,0,response1disk,27,0.002777806,-0.000925947,1,0,0,center_square,0,26,26,87,1,,,,,,,,,,,,,,,,,,,,,,,
042437,001,2022-11-20_17h56.42.836,Info_measure_main_exp,2022.2.2,Win32,60.14675809,,,,,,,,,,,,,,,,,,masks/mask_003.jpg,,,,,,,,,,,,,,,,,,,,,,,,,,,,,,,,,,,,,,,,,,,0,0,0,2,1,,,,,,,,,,,,,,,,,,,,,,,,,,,,,,,,,,,,,,,,,,,,,,
042437,001,2022-11-20_17h56.42.836,Info_measure_main_exp,2022.2.2,Win32,60.14675809,,,,,,,,,,,,,,,,,,masks/mask_002.jpg,,,,,,,,,,,,,,,,,,,,,,,,,,,,,,,,,,,,,,,,,,,0,1,1,1,1,,,,,,,,,,,,,,,,,,,,,,,,,,,,,,,,,,,,,,,,,,,,,,
042437,001,2022-11-20_17h56.42.836,Info_measure_main_exp,2022.2.2,Win32,60.14675809,,,,,,,,,,,,,,,,,,masks/mask_004.jpg,,,,,,,,,,,,,,,,,,,,,,,,,,,,,,,,,,,,,,,,,,,0,2,2,3,1,,,,,,,,,,,,,,,,,,,,,,,,,,,,,,,,,,,,,,,,,,,,,,
042437,001,2022-11-20_17h56.42.836,Info_measure_main_exp,2022.2.2,Win32,60.14675809,,,,,,,,,,,,,,,,,,masks/mask_001.jpg,,,,,,,,,,,,,,,,,,,,,,,,,,,,,,,,,,,,,,,,,,,0,3,3,0,1,,,,,,,,,,,,,,,,,,,,,,,,,,,,,,,,,,,,,,,,,,,,,,
042437,001,2022-11-20_17h56.42.836,Info_measure_main_exp,2022.2.2,Win32,60.14675809,,,,,,,,,,,,,,,,,,masks/mask_005.jpg,,,,,,,,,,,,,,,,,,,,,,,,,,,,,,,,,,,,,,,,,,,0,4,4,4,1,,,,,,,,,,,,,,,,,,,,,,,,,,,,,,,,,,,,,,,,,,,,,,
042437,001,2022-11-20_17h56.42.836,Info_measure_main_exp,2022.2.2,Win32,60.14675809,,,,,,,,,,,,,,,,,,masks/mask_003.jpg,,,,,,,,,,,,,,,,,,,,,,,,,,,,,,,,,,,,,,,,,,,,,,,,0,0,0,2,1,,,,,,,,,,,,,,,,,,,,,,,,,,,,,,,,,,,,,,,,,
042437,001,2022-11-20_17h56.42.836,Info_measure_main_exp,2022.2.2,Win32,60.14675809,,,,,,,,,,,,,,,,,,masks/mask_001.jpg,,,,,,,,,,,,,,,,,,,,,,,,,,,,,,,,,,,,,,,,,,,,,,,,0,1,1,0,1,,,,,,,,,,,,,,,,,,,,,,,,,,,,,,,,,,,,,,,,,
042437,001,2022-11-20_17h56.42.836,Info_measure_main_exp,2022.2.2,Win32,60.14675809,,,,,,,,,,,,,,,,,,masks/mask_002.jpg,,,,,,,,,,,,,,,,,,,,,,,,,,,,,,,,,,,,,,,,,,,,,,,,0,2,2,1,1,,,,,,,,,,,,,,,,,,,,,,,,,,,,,,,,,,,,,,,,,
042437,001,2022-11-20_17h56.42.836,Info_measure_main_exp,2022.2.2,Win32,60.14675809,,,,,,,,,,,,,,,,,,masks/mask_005.jpg,,,,,,,,,,,,,,,,,,,,,,,,,,,,,,,,,,,,,,,,,,,,,,,,0,3,3,4,1,,,,,,,,,,,,,,,,,,,,,,,,,,,,,,,,,,,,,,,,,
042437,001,2022-11-20_17h56.42.836,Info_measure_main_exp,2022.2.2,Win32,60.14675809,,,,,,,,,,,,,,,,,,masks/mask_004.jpg,,,,,,,,,,,,,,,,,,,,,,,,,,,,,,,,,,,,,,,,,,,,,,,,0,4,4,3,1,,,,,,,,,,,,,,,,,,,,,,,,,,,,,,,,,,,,,,,,,
042437,001,2022-11-20_17h56.42.836,Info_measure_main_exp,2022.2.2,Win32,60.14675809,,,,,,,,,,,,,,,,,,,,,,,,,,,,,,0,1.1574,1,,,,,,,,,,,,0,131,5,5,2178,2178,absent_patch/patch0002178.jpg,absent_patch/patch0002178.jpg,,,,,,,,,,,,,,,,,,,,-0.050925926,0.078703704,1,0,0,response7disk,28,-0.003703718,0.001851859,1,0,0,center_square,0,27,27,98,1,,,,,,,,,,,,,,,,,,,,,,,
042437,001,2022-11-20_17h56.42.836,Info_measure_main_exp,2022.2.2,Win32,60.14675809,,,,,,,,,,,,,,,,,,masks/mask_004.jpg,,,,,,,,,,,,,,,,,,,,,,,,,,,,,,,,,,,,,,,,,,,0,0,0,3,1,,,,,,,,,,,,,,,,,,,,,,,,,,,,,,,,,,,,,,,,,,,,,,
042437,001,2022-11-20_17h56.42.836,Info_measure_main_exp,2022.2.2,Win32,60.14675809,,,,,,,,,,,,,,,,,,masks/mask_001.jpg,,,,,,,,,,,,,,,,,,,,,,,,,,,,,,,,,,,,,,,,,,,0,1,1,0,1,,,,,,,,,,,,,,,,,,,,,,,,,,,,,,,,,,,,,,,,,,,,,,
042437,001,2022-11-20_17h56.42.836,Info_measure_main_exp,2022.2.2,Win32,60.14675809,,,,,,,,,,,,,,,,,,masks/mask_002.jpg,,,,,,,,,,,,,,,,,,,,,,,,,,,,,,,,,,,,,,,,,,,0,2,2,1,1,,,,,,,,,,,,,,,,,,,,,,,,,,,,,,,,,,,,,,,,,,,,,,
042437,001,2022-11-20_17h56.42.836,Info_measure_main_exp,2022.2.2,Win32,60.14675809,,,,,,,,,,,,,,,,,,masks/mask_003.jpg,,,,,,,,,,,,,,,,,,,,,,,,,,,,,,,,,,,,,,,,,,,0,3,3,2,1,,,,,,,,,,,,,,,,,,,,,,,,,,,,,,,,,,,,,,,,,,,,,,
042437,001,2022-11-20_17h56.42.836,Info_measure_main_exp,2022.2.2,Win32,60.14675809,,,,,,,,,,,,,,,,,,masks/mask_005.jpg,,,,,,,,,,,,,,,,,,,,,,,,,,,,,,,,,,,,,,,,,,,0,4,4,4,1,,,,,,,,,,,,,,,,,,,,,,,,,,,,,,,,,,,,,,,,,,,,,,
042437,001,2022-11-20_17h56.42.836,Info_measure_main_exp,2022.2.2,Win32,60.14675809,,,,,,,,,,,,,,,,,,masks/mask_004.jpg,,,,,,,,,,,,,,,,,,,,,,,,,,,,,,,,,,,,,,,,,,,,,,,,0,0,0,3,1,,,,,,,,,,,,,,,,,,,,,,,,,,,,,,,,,,,,,,,,,
042437,001,2022-11-20_17h56.42.836,Info_measure_main_exp,2022.2.2,Win32,60.14675809,,,,,,,,,,,,,,,,,,masks/mask_005.jpg,,,,,,,,,,,,,,,,,,,,,,,,,,,,,,,,,,,,,,,,,,,,,,,,0,1,1,4,1,,,,,,,,,,,,,,,,,,,,,,,,,,,,,,,,,,,,,,,,,
042437,001,2022-11-20_17h56.42.836,Info_measure_main_exp,2022.2.2,Win32,60.14675809,,,,,,,,,,,,,,,,,,masks/mask_003.jpg,,,,,,,,,,,,,,,,,,,,,,,,,,,,,,,,,,,,,,,,,,,,,,,,0,2,2,2,1,,,,,,,,,,,,,,,,,,,,,,,,,,,,,,,,,,,,,,,,,
042437,001,2022-11-20_17h56.42.836,Info_measure_main_exp,2022.2.2,Win32,60.14675809,,,,,,,,,,,,,,,,,,masks/mask_002.jpg,,,,,,,,,,,,,,,,,,,,,,,,,,,,,,,,,,,,,,,,,,,,,,,,0,3,3,1,1,,,,,,,,,,,,,,,,,,,,,,,,,,,,,,,,,,,,,,,,,
042437,001,2022-11-20_17h56.42.836,Info_measure_main_exp,2022.2.2,Win32,60.14675809,,,,,,,,,,,,,,,,,,masks/mask_001.jpg,,,,,,,,,,,,,,,,,,,,,,,,,,,,,,,,,,,,,,,,,,,,,,,,0,4,4,0,1,,,,,,,,,,,,,,,,,,,,,,,,,,,,,,,,,,,,,,,,,
042437,001,2022-11-20_17h56.42.836,Info_measure_main_exp,2022.2.2,Win32,60.14675809,,,,,,,,,,,,,,,,,,,,,,,,,,,,,,2,1.9276,1,,,,,,,,,,,,0,131,5,5,2082,2298,absent_patch/patch0002082.jpg,absent_patch/patch0002298.jpg,,,,,,,,,,,,,,,,,,,,-0.050925926,-0.01666666,1,0,0,response5disk,29,0.000925912,-0.0074074,1,0,0,center_square,0,28,28,107,1,,,,,,,,,,,,,,,,,,,,,,,
042437,001,2022-11-20_17h56.42.836,Info_measure_main_exp,2022.2.2,Win32,60.14675809,,,,,,,,,,,,,,,,,,masks/mask_003.jpg,,,,,,,,,,,,,,,,,,,,,,,,,,,,,,,,,,,,,,,,,,,0,0,0,2,1,,,,,,,,,,,,,,,,,,,,,,,,,,,,,,,,,,,,,,,,,,,,,,
042437,001,2022-11-20_17h56.42.836,Info_measure_main_exp,2022.2.2,Win32,60.14675809,,,,,,,,,,,,,,,,,,masks/mask_001.jpg,,,,,,,,,,,,,,,,,,,,,,,,,,,,,,,,,,,,,,,,,,,0,1,1,0,1,,,,,,,,,,,,,,,,,,,,,,,,,,,,,,,,,,,,,,,,,,,,,,
042437,001,2022-11-20_17h56.42.836,Info_measure_main_exp,2022.2.2,Win32,60.14675809,,,,,,,,,,,,,,,,,,masks/mask_004.jpg,,,,,,,,,,,,,,,,,,,,,,,,,,,,,,,,,,,,,,,,,,,0,2,2,3,1,,,,,,,,,,,,,,,,,,,,,,,,,,,,,,,,,,,,,,,,,,,,,,
042437,001,2022-11-20_17h56.42.836,Info_measure_main_exp,2022.2.2,Win32,60.14675809,,,,,,,,,,,,,,,,,,masks/mask_005.jpg,,,,,,,,,,,,,,,,,,,,,,,,,,,,,,,,,,,,,,,,,,,0,3,3,4,1,,,,,,,,,,,,,,,,,,,,,,,,,,,,,,,,,,,,,,,,,,,,,,
042437,001,2022-11-20_17h56.42.836,Info_measure_main_exp,2022.2.2,Win32,60.14675809,,,,,,,,,,,,,,,,,,masks/mask_002.jpg,,,,,,,,,,,,,,,,,,,,,,,,,,,,,,,,,,,,,,,,,,,0,4,4,1,1,,,,,,,,,,,,,,,,,,,,,,,,,,,,,,,,,,,,,,,,,,,,,,
042437,001,2022-11-20_17h56.42.836,Info_measure_main_exp,2022.2.2,Win32,60.14675809,,,,,,,,,,,,,,,,,,masks/mask_003.jpg,,,,,,,,,,,,,,,,,,,,,,,,,,,,,,,,,,,,,,,,,,,,,,,,0,0,0,2,1,,,,,,,,,,,,,,,,,,,,,,,,,,,,,,,,,,,,,,,,,
042437,001,2022-11-20_17h56.42.836,Info_measure_main_exp,2022.2.2,Win32,60.14675809,,,,,,,,,,,,,,,,,,masks/mask_004.jpg,,,,,,,,,,,,,,,,,,,,,,,,,,,,,,,,,,,,,,,,,,,,,,,,0,1,1,3,1,,,,,,,,,,,,,,,,,,,,,,,,,,,,,,,,,,,,,,,,,
042437,001,2022-11-20_17h56.42.836,Info_measure_main_exp,2022.2.2,Win32,60.14675809,,,,,,,,,,,,,,,,,,masks/mask_005.jpg,,,,,,,,,,,,,,,,,,,,,,,,,,,,,,,,,,,,,,,,,,,,,,,,0,2,2,4,1,,,,,,,,,,,,,,,,,,,,,,,,,,,,,,,,,,,,,,,,,
042437,001,2022-11-20_17h56.42.836,Info_measure_main_exp,2022.2.2,Win32,60.14675809,,,,,,,,,,,,,,,,,,masks/mask_002.jpg,,,,,,,,,,,,,,,,,,,,,,,,,,,,,,,,,,,,,,,,,,,,,,,,0,3,3,1,1,,,,,,,,,,,,,,,,,,,,,,,,,,,,,,,,,,,,,,,,,
042437,001,2022-11-20_17h56.42.836,Info_measure_main_exp,2022.2.2,Win32,60.14675809,,,,,,,,,,,,,,,,,,masks/mask_001.jpg,,,,,,,,,,,,,,,,,,,,,,,,,,,,,,,,,,,,,,,,,,,,,,,,0,4,4,0,1,,,,,,,,,,,,,,,,,,,,,,,,,,,,,,,,,,,,,,,,,
042437,001,2022-11-20_17h56.42.836,Info_measure_main_exp,2022.2.2,Win32,60.14675809,,,,,,,,,,,,,,,,,,,,,,,,,,,,,,7,1.6622,1,,,,,,,,,,,,1,131,5,5,2082,1,absent_patch/patch0002082.jpg,present_patch/cong_131_5_a.jpg,,,,,,,,,,,,,,,,,,,,0.037037037,0.071296303,1,0,0,response1disk,30,-0.00462963,0.0074074,1,0,0,center_square,0,29,29,65,1,,,,,,,,,,,,,,,,,,,,,,,
042437,001,2022-11-20_17h56.42.836,Info_measure_main_exp,2022.2.2,Win32,60.14675809,,,,,,,,,,,,,,,,,,masks/mask_003.jpg,,,,,,,,,,,,,,,,,,,,,,,,,,,,,,,,,,,,,,,,,,,0,0,0,2,1,,,,,,,,,,,,,,,,,,,,,,,,,,,,,,,,,,,,,,,,,,,,,,
042437,001,2022-11-20_17h56.42.836,Info_measure_main_exp,2022.2.2,Win32,60.14675809,,,,,,,,,,,,,,,,,,masks/mask_001.jpg,,,,,,,,,,,,,,,,,,,,,,,,,,,,,,,,,,,,,,,,,,,0,1,1,0,1,,,,,,,,,,,,,,,,,,,,,,,,,,,,,,,,,,,,,,,,,,,,,,
042437,001,2022-11-20_17h56.42.836,Info_measure_main_exp,2022.2.2,Win32,60.14675809,,,,,,,,,,,,,,,,,,masks/mask_002.jpg,,,,,,,,,,,,,,,,,,,,,,,,,,,,,,,,,,,,,,,,,,,0,2,2,1,1,,,,,,,,,,,,,,,,,,,,,,,,,,,,,,,,,,,,,,,,,,,,,,
042437,001,2022-11-20_17h56.42.836,Info_measure_main_exp,2022.2.2,Win32,60.14675809,,,,,,,,,,,,,,,,,,masks/mask_005.jpg,,,,,,,,,,,,,,,,,,,,,,,,,,,,,,,,,,,,,,,,,,,0,3,3,4,1,,,,,,,,,,,,,,,,,,,,,,,,,,,,,,,,,,,,,,,,,,,,,,
042437,001,2022-11-20_17h56.42.836,Info_measure_main_exp,2022.2.2,Win32,60.14675809,,,,,,,,,,,,,,,,,,masks/mask_004.jpg,,,,,,,,,,,,,,,,,,,,,,,,,,,,,,,,,,,,,,,,,,,0,4,4,3,1,,,,,,,,,,,,,,,,,,,,,,,,,,,,,,,,,,,,,,,,,,,,,,
042437,001,2022-11-20_17h56.42.836,Info_measure_main_exp,2022.2.2,Win32,60.14675809,,,,,,,,,,,,,,,,,,masks/mask_005.jpg,,,,,,,,,,,,,,,,,,,,,,,,,,,,,,,,,,,,,,,,,,,,,,,,0,0,0,4,1,,,,,,,,,,,,,,,,,,,,,,,,,,,,,,,,,,,,,,,,,
042437,001,2022-11-20_17h56.42.836,Info_measure_main_exp,2022.2.2,Win32,60.14675809,,,,,,,,,,,,,,,,,,masks/mask_001.jpg,,,,,,,,,,,,,,,,,,,,,,,,,,,,,,,,,,,,,,,,,,,,,,,,0,1,1,0,1,,,,,,,,,,,,,,,,,,,,,,,,,,,,,,,,,,,,,,,,,
042437,001,2022-11-20_17h56.42.836,Info_measure_main_exp,2022.2.2,Win32,60.14675809,,,,,,,,,,,,,,,,,,masks/mask_004.jpg,,,,,,,,,,,,,,,,,,,,,,,,,,,,,,,,,,,,,,,,,,,,,,,,0,2,2,3,1,,,,,,,,,,,,,,,,,,,,,,,,,,,,,,,,,,,,,,,,,
042437,001,2022-11-20_17h56.42.836,Info_measure_main_exp,2022.2.2,Win32,60.14675809,,,,,,,,,,,,,,,,,,masks/mask_002.jpg,,,,,,,,,,,,,,,,,,,,,,,,,,,,,,,,,,,,,,,,,,,,,,,,0,3,3,1,1,,,,,,,,,,,,,,,,,,,,,,,,,,,,,,,,,,,,,,,,,
042437,001,2022-11-20_17h56.42.836,Info_measure_main_exp,2022.2.2,Win32,60.14675809,,,,,,,,,,,,,,,,,,masks/mask_003.jpg,,,,,,,,,,,,,,,,,,,,,,,,,,,,,,,,,,,,,,,,,,,,,,,,0,4,4,2,1,,,,,,,,,,,,,,,,,,,,,,,,,,,,,,,,,,,,,,,,,
042437,001,2022-11-20_17h56.42.836,Info_measure_main_exp,2022.2.2,Win32,60.14675809,,,,,,,,,,,,,,,,,,,,,,,,,,,,,,1,1.5351,1,,,,,,,,,,,,0,131,5,5,2166,2154,absent_patch/patch0002166.jpg,absent_patch/patch0002154.jpg,,,,,,,,,,,,,,,,,,,,-0.051851838,0.02870369,1,0,0,response7disk,31,-0.002777735,-0.009259259,1,0,0,center_square,0,30,30,79,1,,,,,,,,,,,,,,,,,,,,,,,
042437,001,2022-11-20_17h56.42.836,Info_measure_main_exp,2022.2.2,Win32,60.14675809,,,,,,,,,,,,,,,,,,masks/mask_002.jpg,,,,,,,,,,,,,,,,,,,,,,,,,,,,,,,,,,,,,,,,,,,0,0,0,1,1,,,,,,,,,,,,,,,,,,,,,,,,,,,,,,,,,,,,,,,,,,,,,,
042437,001,2022-11-20_17h56.42.836,Info_measure_main_exp,2022.2.2,Win32,60.14675809,,,,,,,,,,,,,,,,,,masks/mask_001.jpg,,,,,,,,,,,,,,,,,,,,,,,,,,,,,,,,,,,,,,,,,,,0,1,1,0,1,,,,,,,,,,,,,,,,,,,,,,,,,,,,,,,,,,,,,,,,,,,,,,
042437,001,2022-11-20_17h56.42.836,Info_measure_main_exp,2022.2.2,Win32,60.14675809,,,,,,,,,,,,,,,,,,masks/mask_005.jpg,,,,,,,,,,,,,,,,,,,,,,,,,,,,,,,,,,,,,,,,,,,0,2,2,4,1,,,,,,,,,,,,,,,,,,,,,,,,,,,,,,,,,,,,,,,,,,,,,,
042437,001,2022-11-20_17h56.42.836,Info_measure_main_exp,2022.2.2,Win32,60.14675809,,,,,,,,,,,,,,,,,,masks/mask_004.jpg,,,,,,,,,,,,,,,,,,,,,,,,,,,,,,,,,,,,,,,,,,,0,3,3,3,1,,,,,,,,,,,,,,,,,,,,,,,,,,,,,,,,,,,,,,,,,,,,,,
042437,001,2022-11-20_17h56.42.836,Info_measure_main_exp,2022.2.2,Win32,60.14675809,,,,,,,,,,,,,,,,,,masks/mask_003.jpg,,,,,,,,,,,,,,,,,,,,,,,,,,,,,,,,,,,,,,,,,,,0,4,4,2,1,,,,,,,,,,,,,,,,,,,,,,,,,,,,,,,,,,,,,,,,,,,,,,
042437,001,2022-11-20_17h56.42.836,Info_measure_main_exp,2022.2.2,Win32,60.14675809,,,,,,,,,,,,,,,,,,masks/mask_002.jpg,,,,,,,,,,,,,,,,,,,,,,,,,,,,,,,,,,,,,,,,,,,,,,,,0,0,0,1,1,,,,,,,,,,,,,,,,,,,,,,,,,,,,,,,,,,,,,,,,,
042437,001,2022-11-20_17h56.42.836,Info_measure_main_exp,2022.2.2,Win32,60.14675809,,,,,,,,,,,,,,,,,,masks/mask_003.jpg,,,,,,,,,,,,,,,,,,,,,,,,,,,,,,,,,,,,,,,,,,,,,,,,0,1,1,2,1,,,,,,,,,,,,,,,,,,,,,,,,,,,,,,,,,,,,,,,,,
042437,001,2022-11-20_17h56.42.836,Info_measure_main_exp,2022.2.2,Win32,60.14675809,,,,,,,,,,,,,,,,,,masks/mask_005.jpg,,,,,,,,,,,,,,,,,,,,,,,,,,,,,,,,,,,,,,,,,,,,,,,,0,2,2,4,1,,,,,,,,,,,,,,,,,,,,,,,,,,,,,,,,,,,,,,,,,
042437,001,2022-11-20_17h56.42.836,Info_measure_main_exp,2022.2.2,Win32,60.14675809,,,,,,,,,,,,,,,,,,masks/mask_001.jpg,,,,,,,,,,,,,,,,,,,,,,,,,,,,,,,,,,,,,,,,,,,,,,,,0,3,3,0,1,,,,,,,,,,,,,,,,,,,,,,,,,,,,,,,,,,,,,,,,,
042437,001,2022-11-20_17h56.42.836,Info_measure_main_exp,2022.2.2,Win32,60.14675809,,,,,,,,,,,,,,,,,,masks/mask_004.jpg,,,,,,,,,,,,,,,,,,,,,,,,,,,,,,,,,,,,,,,,,,,,,,,,0,4,4,3,1,,,,,,,,,,,,,,,,,,,,,,,,,,,,,,,,,,,,,,,,,
042437,001,2022-11-20_17h56.42.836,Info_measure_main_exp,2022.2.2,Win32,60.14675809,,,,,,,,,,,,,,,,,,,,,,,,,,,,,,6,1.0139,1,,,,,,,,,,,,0,131,5,5,2190,2238,absent_patch/patch0002190.jpg,absent_patch/patch0002238.jpg,,,,,,,,,,,,,,,,,,,,0.053703732,0.042592578,1,0,0,response1disk,32,0.008333347,-0.011111118,1,0,0,center_square,0,31,31,53,1,,,,,,,,,,,,,,,,,,,,,,,
042437,001,2022-11-20_17h56.42.836,Info_measure_main_exp,2022.2.2,Win32,60.14675809,,,,,,,,,,,,,,,,,,masks/mask_002.jpg,,,,,,,,,,,,,,,,,,,,,,,,,,,,,,,,,,,,,,,,,,,0,0,0,1,1,,,,,,,,,,,,,,,,,,,,,,,,,,,,,,,,,,,,,,,,,,,,,,
042437,001,2022-11-20_17h56.42.836,Info_measure_main_exp,2022.2.2,Win32,60.14675809,,,,,,,,,,,,,,,,,,masks/mask_003.jpg,,,,,,,,,,,,,,,,,,,,,,,,,,,,,,,,,,,,,,,,,,,0,1,1,2,1,,,,,,,,,,,,,,,,,,,,,,,,,,,,,,,,,,,,,,,,,,,,,,
042437,001,2022-11-20_17h56.42.836,Info_measure_main_exp,2022.2.2,Win32,60.14675809,,,,,,,,,,,,,,,,,,masks/mask_004.jpg,,,,,,,,,,,,,,,,,,,,,,,,,,,,,,,,,,,,,,,,,,,0,2,2,3,1,,,,,,,,,,,,,,,,,,,,,,,,,,,,,,,,,,,,,,,,,,,,,,
042437,001,2022-11-20_17h56.42.836,Info_measure_main_exp,2022.2.2,Win32,60.14675809,,,,,,,,,,,,,,,,,,masks/mask_005.jpg,,,,,,,,,,,,,,,,,,,,,,,,,,,,,,,,,,,,,,,,,,,0,3,3,4,1,,,,,,,,,,,,,,,,,,,,,,,,,,,,,,,,,,,,,,,,,,,,,,
042437,001,2022-11-20_17h56.42.836,Info_measure_main_exp,2022.2.2,Win32,60.14675809,,,,,,,,,,,,,,,,,,masks/mask_001.jpg,,,,,,,,,,,,,,,,,,,,,,,,,,,,,,,,,,,,,,,,,,,0,4,4,0,1,,,,,,,,,,,,,,,,,,,,,,,,,,,,,,,,,,,,,,,,,,,,,,
042437,001,2022-11-20_17h56.42.836,Info_measure_main_exp,2022.2.2,Win32,60.14675809,,,,,,,,,,,,,,,,,,masks/mask_005.jpg,,,,,,,,,,,,,,,,,,,,,,,,,,,,,,,,,,,,,,,,,,,,,,,,0,0,0,4,1,,,,,,,,,,,,,,,,,,,,,,,,,,,,,,,,,,,,,,,,,
042437,001,2022-11-20_17h56.42.836,Info_measure_main_exp,2022.2.2,Win32,60.14675809,,,,,,,,,,,,,,,,,,masks/mask_002.jpg,,,,,,,,,,,,,,,,,,,,,,,,,,,,,,,,,,,,,,,,,,,,,,,,0,1,1,1,1,,,,,,,,,,,,,,,,,,,,,,,,,,,,,,,,,,,,,,,,,
042437,001,2022-11-20_17h56.42.836,Info_measure_main_exp,2022.2.2,Win32,60.14675809,,,,,,,,,,,,,,,,,,masks/mask_004.jpg,,,,,,,,,,,,,,,,,,,,,,,,,,,,,,,,,,,,,,,,,,,,,,,,0,2,2,3,1,,,,,,,,,,,,,,,,,,,,,,,,,,,,,,,,,,,,,,,,,
042437,001,2022-11-20_17h56.42.836,Info_measure_main_exp,2022.2.2,Win32,60.14675809,,,,,,,,,,,,,,,,,,masks/mask_003.jpg,,,,,,,,,,,,,,,,,,,,,,,,,,,,,,,,,,,,,,,,,,,,,,,,0,3,3,2,1,,,,,,,,,,,,,,,,,,,,,,,,,,,,,,,,,,,,,,,,,
042437,001,2022-11-20_17h56.42.836,Info_measure_main_exp,2022.2.2,Win32,60.14675809,,,,,,,,,,,,,,,,,,masks/mask_001.jpg,,,,,,,,,,,,,,,,,,,,,,,,,,,,,,,,,,,,,,,,,,,,,,,,0,4,4,0,1,,,,,,,,,,,,,,,,,,,,,,,,,,,,,,,,,,,,,,,,,
042437,001,2022-11-20_17h56.42.836,Info_measure_main_exp,2022.2.2,Win32,60.14675809,,,,,,,,,,,,,,,,,,,,,,,,,,,,,,7,1.0366,1,,,,,,,,,,,,0,131,5,5,2274,2238,absent_patch/patch0002274.jpg,absent_patch/patch0002238.jpg,,,,,,,,,,,,,,,,,,,,0.032407407,0.062962956,1,0,0,response1disk,33,0.006481524,0.00462963,1,0,0,center_square,0,32,32,91,1,,,,,,,,,,,,,,,,,,,,,,,
042437,001,2022-11-20_17h56.42.836,Info_measure_main_exp,2022.2.2,Win32,60.14675809,,,,,,,,,,,,,,,,,,masks/mask_003.jpg,,,,,,,,,,,,,,,,,,,,,,,,,,,,,,,,,,,,,,,,,,,0,0,0,2,1,,,,,,,,,,,,,,,,,,,,,,,,,,,,,,,,,,,,,,,,,,,,,,
042437,001,2022-11-20_17h56.42.836,Info_measure_main_exp,2022.2.2,Win32,60.14675809,,,,,,,,,,,,,,,,,,masks/mask_002.jpg,,,,,,,,,,,,,,,,,,,,,,,,,,,,,,,,,,,,,,,,,,,0,1,1,1,1,,,,,,,,,,,,,,,,,,,,,,,,,,,,,,,,,,,,,,,,,,,,,,
042437,001,2022-11-20_17h56.42.836,Info_measure_main_exp,2022.2.2,Win32,60.14675809,,,,,,,,,,,,,,,,,,masks/mask_004.jpg,,,,,,,,,,,,,,,,,,,,,,,,,,,,,,,,,,,,,,,,,,,0,2,2,3,1,,,,,,,,,,,,,,,,,,,,,,,,,,,,,,,,,,,,,,,,,,,,,,
042437,001,2022-11-20_17h56.42.836,Info_measure_main_exp,2022.2.2,Win32,60.14675809,,,,,,,,,,,,,,,,,,masks/mask_001.jpg,,,,,,,,,,,,,,,,,,,,,,,,,,,,,,,,,,,,,,,,,,,0,3,3,0,1,,,,,,,,,,,,,,,,,,,,,,,,,,,,,,,,,,,,,,,,,,,,,,
042437,001,2022-11-20_17h56.42.836,Info_measure_main_exp,2022.2.2,Win32,60.14675809,,,,,,,,,,,,,,,,,,masks/mask_005.jpg,,,,,,,,,,,,,,,,,,,,,,,,,,,,,,,,,,,,,,,,,,,0,4,4,4,1,,,,,,,,,,,,,,,,,,,,,,,,,,,,,,,,,,,,,,,,,,,,,,
042437,001,2022-11-20_17h56.42.836,Info_measure_main_exp,2022.2.2,Win32,60.14675809,,,,,,,,,,,,,,,,,,masks/mask_003.jpg,,,,,,,,,,,,,,,,,,,,,,,,,,,,,,,,,,,,,,,,,,,,,,,,0,0,0,2,1,,,,,,,,,,,,,,,,,,,,,,,,,,,,,,,,,,,,,,,,,
042437,001,2022-11-20_17h56.42.836,Info_measure_main_exp,2022.2.2,Win32,60.14675809,,,,,,,,,,,,,,,,,,masks/mask_004.jpg,,,,,,,,,,,,,,,,,,,,,,,,,,,,,,,,,,,,,,,,,,,,,,,,0,1,1,3,1,,,,,,,,,,,,,,,,,,,,,,,,,,,,,,,,,,,,,,,,,
042437,001,2022-11-20_17h56.42.836,Info_measure_main_exp,2022.2.2,Win32,60.14675809,,,,,,,,,,,,,,,,,,masks/mask_005.jpg,,,,,,,,,,,,,,,,,,,,,,,,,,,,,,,,,,,,,,,,,,,,,,,,0,2,2,4,1,,,,,,,,,,,,,,,,,,,,,,,,,,,,,,,,,,,,,,,,,
042437,001,2022-11-20_17h56.42.836,Info_measure_main_exp,2022.2.2,Win32,60.14675809,,,,,,,,,,,,,,,,,,masks/mask_001.jpg,,,,,,,,,,,,,,,,,,,,,,,,,,,,,,,,,,,,,,,,,,,,,,,,0,3,3,0,1,,,,,,,,,,,,,,,,,,,,,,,,,,,,,,,,,,,,,,,,,
042437,001,2022-11-20_17h56.42.836,Info_measure_main_exp,2022.2.2,Win32,60.14675809,,,,,,,,,,,,,,,,,,masks/mask_002.jpg,,,,,,,,,,,,,,,,,,,,,,,,,,,,,,,,,,,,,,,,,,,,,,,,0,4,4,1,1,,,,,,,,,,,,,,,,,,,,,,,,,,,,,,,,,,,,,,,,,
042437,001,2022-11-20_17h56.42.836,Info_measure_main_exp,2022.2.2,Win32,60.14675809,,,,,,,,,,,,,,,,,,,,,,,,,,,,,,4,0.8809,1,,,,,,,,,,,,0,131,5,5,2142,2142,absent_patch/patch0002142.jpg,absent_patch/patch0002142.jpg,,,,,,,,,,,,,,,,,,,,0.015740783,-0.079629651,1,0,0,response3disk,34,-0.003703718,0.006481489,1,0,0,center_square,0,33,33,13,1,,,,,,,,,,,,,,,,,,,,,,,
042437,001,2022-11-20_17h56.42.836,Info_measure_main_exp,2022.2.2,Win32,60.14675809,,,,,,,,,,,,,,,,,,masks/mask_002.jpg,,,,,,,,,,,,,,,,,,,,,,,,,,,,,,,,,,,,,,,,,,,0,0,0,1,1,,,,,,,,,,,,,,,,,,,,,,,,,,,,,,,,,,,,,,,,,,,,,,
042437,001,2022-11-20_17h56.42.836,Info_measure_main_exp,2022.2.2,Win32,60.14675809,,,,,,,,,,,,,,,,,,masks/mask_001.jpg,,,,,,,,,,,,,,,,,,,,,,,,,,,,,,,,,,,,,,,,,,,0,1,1,0,1,,,,,,,,,,,,,,,,,,,,,,,,,,,,,,,,,,,,,,,,,,,,,,
042437,001,2022-11-20_17h56.42.836,Info_measure_main_exp,2022.2.2,Win32,60.14675809,,,,,,,,,,,,,,,,,,masks/mask_005.jpg,,,,,,,,,,,,,,,,,,,,,,,,,,,,,,,,,,,,,,,,,,,0,2,2,4,1,,,,,,,,,,,,,,,,,,,,,,,,,,,,,,,,,,,,,,,,,,,,,,
042437,001,2022-11-20_17h56.42.836,Info_measure_main_exp,2022.2.2,Win32,60.14675809,,,,,,,,,,,,,,,,,,masks/mask_004.jpg,,,,,,,,,,,,,,,,,,,,,,,,,,,,,,,,,,,,,,,,,,,0,3,3,3,1,,,,,,,,,,,,,,,,,,,,,,,,,,,,,,,,,,,,,,,,,,,,,,
042437,001,2022-11-20_17h56.42.836,Info_measure_main_exp,2022.2.2,Win32,60.14675809,,,,,,,,,,,,,,,,,,masks/mask_003.jpg,,,,,,,,,,,,,,,,,,,,,,,,,,,,,,,,,,,,,,,,,,,0,4,4,2,1,,,,,,,,,,,,,,,,,,,,,,,,,,,,,,,,,,,,,,,,,,,,,,
042437,001,2022-11-20_17h56.42.836,Info_measure_main_exp,2022.2.2,Win32,60.14675809,,,,,,,,,,,,,,,,,,masks/mask_002.jpg,,,,,,,,,,,,,,,,,,,,,,,,,,,,,,,,,,,,,,,,,,,,,,,,0,0,0,1,1,,,,,,,,,,,,,,,,,,,,,,,,,,,,,,,,,,,,,,,,,
042437,001,2022-11-20_17h56.42.836,Info_measure_main_exp,2022.2.2,Win32,60.14675809,,,,,,,,,,,,,,,,,,masks/mask_005.jpg,,,,,,,,,,,,,,,,,,,,,,,,,,,,,,,,,,,,,,,,,,,,,,,,0,1,1,4,1,,,,,,,,,,,,,,,,,,,,,,,,,,,,,,,,,,,,,,,,,
042437,001,2022-11-20_17h56.42.836,Info_measure_main_exp,2022.2.2,Win32,60.14675809,,,,,,,,,,,,,,,,,,masks/mask_001.jpg,,,,,,,,,,,,,,,,,,,,,,,,,,,,,,,,,,,,,,,,,,,,,,,,0,2,2,0,1,,,,,,,,,,,,,,,,,,,,,,,,,,,,,,,,,,,,,,,,,
042437,001,2022-11-20_17h56.42.836,Info_measure_main_exp,2022.2.2,Win32,60.14675809,,,,,,,,,,,,,,,,,,masks/mask_003.jpg,,,,,,,,,,,,,,,,,,,,,,,,,,,,,,,,,,,,,,,,,,,,,,,,0,3,3,2,1,,,,,,,,,,,,,,,,,,,,,,,,,,,,,,,,,,,,,,,,,
