participant,session,date,expName,psychopyVersion,OS,frameRate,space_press_continue.keys,space_press_continue.rt,space_press_continue_2.keys,space_press_continue_2.rt,space_press_continue_3.keys,space_press_continue_3.rt,space_press_continue_4.keys,space_press_continue_4.rt,space_press_continue_5.keys,space_press_continue_5.rt,space_press_continue_6.keys,space_press_continue_6.rt,prac_mask_loop_1.thisRepN,prac_mask_loop_1.thisTrialN,prac_mask_loop_1.thisN,prac_mask_loop_1.thisIndex,prac_mask_loop_1.ran,mask_name,prac_mask_loop_2.thisRepN,prac_mask_loop_2.thisTrialN,prac_mask_loop_2.thisN,prac_mask_loop_2.thisIndex,prac_mask_loop_2.ran,mouse_2.x,mouse_2.y,mouse_2.leftButton,mouse_2.midButton,mouse_2.rightButton,mouse_2.clicked_name,similarity,response_time,Pass,mouse_12.x,mouse_12.y,mouse_12.leftButton,mouse_12.midButton,mouse_12.rightButton,mouse_12.clicked_name,prac_loop.thisRepN,prac_loop.thisTrialN,prac_loop.thisN,prac_loop.thisIndex,prac_loop.ran,Pair_type,Image_num,Patch_1_loc,Patch_2_loc,Patch_1_info,Patch_2_info,Patch_1_name,Patch_2_name,mouse_1.x,mouse_1.y,mouse_1.leftButton,mouse_1.midButton,mouse_1.rightButton,mouse_1.time,mouse_1.clicked_name,space_press_continue_7.keys,space_press_continue_7.rt,mask_loop.thisRepN,mask_loop.thisTrialN,mask_loop.thisN,mask_loop.thisIndex,mask_loop.ran,mask_loop_2.thisRepN,mask_loop_2.thisTrialN,mask_loop_2.thisN,mask_loop_2.thisIndex,mask_loop_2.ran,mouse.x,mouse.y,mouse.leftButton,mouse.midButton,mouse.rightButton,mouse.clicked_name,trialNumber,mouse_11.x,mouse_11.y,mouse_11.leftButton,mouse_11.midButton,mouse_11.rightButton,mouse_11.clicked_name,first_pass_loop.thisRepN,first_pass_loop.thisTrialN,first_pass_loop.thisN,first_pass_loop.thisIndex,first_pass_loop.ran,mask_loop_3.thisRepN,mask_loop_3.thisTrialN,mask_loop_3.thisN,mask_loop_3.thisIndex,mask_loop_3.ran,mask_loop_4.thisRepN,mask_loop_4.thisTrialN,mask_loop_4.thisN,mask_loop_4.thisIndex,mask_loop_4.ran,mouse_3.x,mouse_3.y,mouse_3.leftButton,mouse_3.midButton,mouse_3.rightButton,mouse_3.clicked_name,double_pass_loop.thisRepN,double_pass_loop.thisTrialN,double_pass_loop.thisN,double_pass_loop.thisIndex,double_pass_loop.ran,space_exit.keys,space_exit.rt
050853,001,2022-11-21_02h30.34.133,Info_measure_main_exp,2022.2.2,Win32,59.93048064,,,,,,,,,,,,,,,,,,,,,,,,,,,,,,,,,,,,,,,,,,,,,,,,,,,,,,,,,,,,,,,,,,,,,,,,,,,,,,,,,,,,,,,,,,,,,,,,,,,,,,,,,,,,,,,
050853,001,2022-11-21_02h30.34.133,Info_measure_main_exp,2022.2.2,Win32,59.93048064,,,,,,,,,,,,,,,,,,,,,,,,,,,,,,,,,,,,,,,,,,,,,,,,,,,,,,,,,,,,,,,,,,,,,,,,,,,,,,,,,,,,,,,,,,,,,,,,,,,,,,,,,,,,,,,
050853,001,2022-11-21_02h30.34.133,Info_measure_main_exp,2022.2.2,Win32,59.93048064,space,10.8755,,,,,,,,,,,,,,,,,,,,,,,,,,,,,,,,,,,,,,,,,,,,,,,,,,,,,,,,,,,,,,,,,,,,,,,,,,,,,,,,,,,,,,,,,,,,,,,,,,,,,,,,,,,,,
050853,001,2022-11-21_02h30.34.133,Info_measure_main_exp,2022.2.2,Win32,59.93048064,,,space,39.5635,,,,,,,,,,,,,,,,,,,,,,,,,,,,,,,,,,,,,,,,,,,,,,,,,,,,,,,,,,,,,,,,,,,,,,,,,,,,,,,,,,,,,,,,,,,,,,,,,,,,,,,,,,,
050853,001,2022-11-21_02h30.34.133,Info_measure_main_exp,2022.2.2,Win32,59.93048064,,,,,space,16.3349,,,,,,,,,,,,,,,,,,,,,,,,,,,,,,,,,,,,,,,,,,,,,,,,,,,,,,,,,,,,,,,,,,,,,,,,,,,,,,,,,,,,,,,,,,,,,,,,,,,,,,,,,
050853,001,2022-11-21_02h30.34.133,Info_measure_main_exp,2022.2.2,Win32,59.93048064,,,,,,,space,22.6649,,,,,,,,,,,,,,,,,,,,,,,,,,,,,,,,,,,,,,,,,,,,,,,,,,,,,,,,,,,,,,,,,,,,,,,,,,,,,,,,,,,,,,,,,,,,,,,,,,,,,,,
050853,001,2022-11-21_02h30.34.133,Info_measure_main_exp,2022.2.2,Win32,59.93048064,,,,,,,,,space,10.3439,,,,,,,,,,,,,,,,,,,,,,,,,,,,,,,,,,,,,,,,,,,,,,,,,,,,,,,,,,,,,,,,,,,,,,,,,,,,,,,,,,,,,,,,,,,,,,,,,,,,,
050853,001,2022-11-21_02h30.34.133,Info_measure_main_exp,2022.2.2,Win32,59.93048064,,,,,,,,,,,space,8.7383,,,,,,,,,,,,,,,,,,,,,,,,,,,,,,,,,,,,,,,,,,,,,,,,,,,,,,,,,,,,,,,,,,,,,,,,,,,,,,,,,,,,,,,,,,,,,,,,,,,
050853,001,2022-11-21_02h30.34.133,Info_measure_main_exp,2022.2.2,Win32,59.93048064,,,,,,,,,,,,,0,0,0,2,1,masks/mask_003.jpg,,,,,,,,,,,,,,,,,,,,,,,,,,,,,,,,,,,,,,,,,,,,,,,,,,,,,,,,,,,,,,,,,,,,,,,,,,,,,,,,,,,,,,,,,,,,,
050853,001,2022-11-21_02h30.34.133,Info_measure_main_exp,2022.2.2,Win32,59.93048064,,,,,,,,,,,,,0,1,1,3,1,masks/mask_004.jpg,,,,,,,,,,,,,,,,,,,,,,,,,,,,,,,,,,,,,,,,,,,,,,,,,,,,,,,,,,,,,,,,,,,,,,,,,,,,,,,,,,,,,,,,,,,,,
050853,001,2022-11-21_02h30.34.133,Info_measure_main_exp,2022.2.2,Win32,59.93048064,,,,,,,,,,,,,0,2,2,1,1,masks/mask_002.jpg,,,,,,,,,,,,,,,,,,,,,,,,,,,,,,,,,,,,,,,,,,,,,,,,,,,,,,,,,,,,,,,,,,,,,,,,,,,,,,,,,,,,,,,,,,,,,
050853,001,2022-11-21_02h30.34.133,Info_measure_main_exp,2022.2.2,Win32,59.93048064,,,,,,,,,,,,,0,3,3,0,1,masks/mask_001.jpg,,,,,,,,,,,,,,,,,,,,,,,,,,,,,,,,,,,,,,,,,,,,,,,,,,,,,,,,,,,,,,,,,,,,,,,,,,,,,,,,,,,,,,,,,,,,,
050853,001,2022-11-21_02h30.34.133,Info_measure_main_exp,2022.2.2,Win32,59.93048064,,,,,,,,,,,,,0,4,4,4,1,masks/mask_005.jpg,,,,,,,,,,,,,,,,,,,,,,,,,,,,,,,,,,,,,,,,,,,,,,,,,,,,,,,,,,,,,,,,,,,,,,,,,,,,,,,,,,,,,,,,,,,,,
050853,001,2022-11-21_02h30.34.133,Info_measure_main_exp,2022.2.2,Win32,59.93048064,,,,,,,,,,,,,,,,,,masks/mask_001.jpg,0,0,0,0,1,,,,,,,,,,,,,,,,,,,,,,,,,,,,,,,,,,,,,,,,,,,,,,,,,,,,,,,,,,,,,,,,,,,,,,,,,,,,,,,,,,,,,,,,
050853,001,2022-11-21_02h30.34.133,Info_measure_main_exp,2022.2.2,Win32,59.93048064,,,,,,,,,,,,,,,,,,masks/mask_005.jpg,0,1,1,4,1,,,,,,,,,,,,,,,,,,,,,,,,,,,,,,,,,,,,,,,,,,,,,,,,,,,,,,,,,,,,,,,,,,,,,,,,,,,,,,,,,,,,,,,,
050853,001,2022-11-21_02h30.34.133,Info_measure_main_exp,2022.2.2,Win32,59.93048064,,,,,,,,,,,,,,,,,,masks/mask_003.jpg,0,2,2,2,1,,,,,,,,,,,,,,,,,,,,,,,,,,,,,,,,,,,,,,,,,,,,,,,,,,,,,,,,,,,,,,,,,,,,,,,,,,,,,,,,,,,,,,,,
050853,001,2022-11-21_02h30.34.133,Info_measure_main_exp,2022.2.2,Win32,59.93048064,,,,,,,,,,,,,,,,,,masks/mask_002.jpg,0,3,3,1,1,,,,,,,,,,,,,,,,,,,,,,,,,,,,,,,,,,,,,,,,,,,,,,,,,,,,,,,,,,,,,,,,,,,,,,,,,,,,,,,,,,,,,,,,
050853,001,2022-11-21_02h30.34.133,Info_measure_main_exp,2022.2.2,Win32,59.93048064,,,,,,,,,,,,,,,,,,masks/mask_004.jpg,0,4,4,3,1,,,,,,,,,,,,,,,,,,,,,,,,,,,,,,,,,,,,,,,,,,,,,,,,,,,,,,,,,,,,,,,,,,,,,,,,,,,,,,,,,,,,,,,,
050853,001,2022-11-21_02h30.34.133,Info_measure_main_exp,2022.2.2,Win32,59.93048064,,,,,,,,,,,,,,,,,,,,,,,,-0.144944209,0.091172267,1,0,0,response7disk,1,123.2489,1,-0.002502003,-0.008722262,1,0,0,center_square,0,0,0,2,1,0,131,5,5,2526,2526,prac_patch/patch0002526.jpg,prac_patch/patch0002526.jpg,,,,,,,,,,,,,,,,,,,,,,,,,,,,,,,,,,,,,,,,,,,,,,,,,,,,,,,,,,,,
050853,001,2022-11-21_02h30.34.133,Info_measure_main_exp,2022.2.2,Win32,59.93048064,,,,,,,,,,,,,0,0,0,2,1,masks/mask_003.jpg,,,,,,,,,,,,,,,,,,,,,,,,,,,,,,,,,,,,,,,,,,,,,,,,,,,,,,,,,,,,,,,,,,,,,,,,,,,,,,,,,,,,,,,,,,,,,
050853,001,2022-11-21_02h30.34.133,Info_measure_main_exp,2022.2.2,Win32,59.93048064,,,,,,,,,,,,,0,1,1,4,1,masks/mask_005.jpg,,,,,,,,,,,,,,,,,,,,,,,,,,,,,,,,,,,,,,,,,,,,,,,,,,,,,,,,,,,,,,,,,,,,,,,,,,,,,,,,,,,,,,,,,,,,,
050853,001,2022-11-21_02h30.34.133,Info_measure_main_exp,2022.2.2,Win32,59.93048064,,,,,,,,,,,,,0,2,2,1,1,masks/mask_002.jpg,,,,,,,,,,,,,,,,,,,,,,,,,,,,,,,,,,,,,,,,,,,,,,,,,,,,,,,,,,,,,,,,,,,,,,,,,,,,,,,,,,,,,,,,,,,,,
050853,001,2022-11-21_02h30.34.133,Info_measure_main_exp,2022.2.2,Win32,59.93048064,,,,,,,,,,,,,0,3,3,3,1,masks/mask_004.jpg,,,,,,,,,,,,,,,,,,,,,,,,,,,,,,,,,,,,,,,,,,,,,,,,,,,,,,,,,,,,,,,,,,,,,,,,,,,,,,,,,,,,,,,,,,,,,
050853,001,2022-11-21_02h30.34.133,Info_measure_main_exp,2022.2.2,Win32,59.93048064,,,,,,,,,,,,,0,4,4,0,1,masks/mask_001.jpg,,,,,,,,,,,,,,,,,,,,,,,,,,,,,,,,,,,,,,,,,,,,,,,,,,,,,,,,,,,,,,,,,,,,,,,,,,,,,,,,,,,,,,,,,,,,,
050853,001,2022-11-21_02h30.34.133,Info_measure_main_exp,2022.2.2,Win32,59.93048064,,,,,,,,,,,,,,,,,,masks/mask_004.jpg,0,0,0,3,1,,,,,,,,,,,,,,,,,,,,,,,,,,,,,,,,,,,,,,,,,,,,,,,,,,,,,,,,,,,,,,,,,,,,,,,,,,,,,,,,,,,,,,,,
050853,001,2022-11-21_02h30.34.133,Info_measure_main_exp,2022.2.2,Win32,59.93048064,,,,,,,,,,,,,,,,,,masks/mask_005.jpg,0,1,1,4,1,,,,,,,,,,,,,,,,,,,,,,,,,,,,,,,,,,,,,,,,,,,,,,,,,,,,,,,,,,,,,,,,,,,,,,,,,,,,,,,,,,,,,,,,
050853,001,2022-11-21_02h30.34.133,Info_measure_main_exp,2022.2.2,Win32,59.93048064,,,,,,,,,,,,,,,,,,masks/mask_002.jpg,0,2,2,1,1,,,,,,,,,,,,,,,,,,,,,,,,,,,,,,,,,,,,,,,,,,,,,,,,,,,,,,,,,,,,,,,,,,,,,,,,,,,,,,,,,,,,,,,,
050853,001,2022-11-21_02h30.34.133,Info_measure_main_exp,2022.2.2,Win32,59.93048064,,,,,,,,,,,,,,,,,,masks/mask_001.jpg,0,3,3,0,1,,,,,,,,,,,,,,,,,,,,,,,,,,,,,,,,,,,,,,,,,,,,,,,,,,,,,,,,,,,,,,,,,,,,,,,,,,,,,,,,,,,,,,,,
050853,001,2022-11-21_02h30.34.133,Info_measure_main_exp,2022.2.2,Win32,59.93048064,,,,,,,,,,,,,,,,,,masks/mask_003.jpg,0,4,4,2,1,,,,,,,,,,,,,,,,,,,,,,,,,,,,,,,,,,,,,,,,,,,,,,,,,,,,,,,,,,,,,,,,,,,,,,,,,,,,,,,,,,,,,,,,
050853,001,2022-11-21_02h30.34.133,Info_measure_main_exp,2022.2.2,Win32,59.93048064,,,,,,,,,,,,,,,,,,,,,,,,0.124216131,0.174417735,1,0,0,response1disk,7,135.3234,1,0.005822528,0.002377113,1,0,0,center_square,0,1,1,0,1,0,131,5,5,2370,2406,prac_patch/patch0002370.jpg,prac_patch/patch0002406.jpg,,,,,,,,,,,,,,,,,,,,,,,,,,,,,,,,,,,,,,,,,,,,,,,,,,,,,,,,,,,,
050853,001,2022-11-21_02h30.34.133,Info_measure_main_exp,2022.2.2,Win32,59.93048064,,,,,,,,,,,,,0,0,0,0,1,masks/mask_001.jpg,,,,,,,,,,,,,,,,,,,,,,,,,,,,,,,,,,,,,,,,,,,,,,,,,,,,,,,,,,,,,,,,,,,,,,,,,,,,,,,,,,,,,,,,,,,,,
050853,001,2022-11-21_02h30.34.133,Info_measure_main_exp,2022.2.2,Win32,59.93048064,,,,,,,,,,,,,0,1,1,3,1,masks/mask_004.jpg,,,,,,,,,,,,,,,,,,,,,,,,,,,,,,,,,,,,,,,,,,,,,,,,,,,,,,,,,,,,,,,,,,,,,,,,,,,,,,,,,,,,,,,,,,,,,
050853,001,2022-11-21_02h30.34.133,Info_measure_main_exp,2022.2.2,Win32,59.93048064,,,,,,,,,,,,,0,2,2,4,1,masks/mask_005.jpg,,,,,,,,,,,,,,,,,,,,,,,,,,,,,,,,,,,,,,,,,,,,,,,,,,,,,,,,,,,,,,,,,,,,,,,,,,,,,,,,,,,,,,,,,,,,,
050853,001,2022-11-21_02h30.34.133,Info_measure_main_exp,2022.2.2,Win32,59.93048064,,,,,,,,,,,,,0,3,3,1,1,masks/mask_002.jpg,,,,,,,,,,,,,,,,,,,,,,,,,,,,,,,,,,,,,,,,,,,,,,,,,,,,,,,,,,,,,,,,,,,,,,,,,,,,,,,,,,,,,,,,,,,,,
050853,001,2022-11-21_02h30.34.133,Info_measure_main_exp,2022.2.2,Win32,59.93048064,,,,,,,,,,,,,0,4,4,2,1,masks/mask_003.jpg,,,,,,,,,,,,,,,,,,,,,,,,,,,,,,,,,,,,,,,,,,,,,,,,,,,,,,,,,,,,,,,,,,,,,,,,,,,,,,,,,,,,,,,,,,,,,
050853,001,2022-11-21_02h30.34.133,Info_measure_main_exp,2022.2.2,Win32,59.93048064,,,,,,,,,,,,,,,,,,masks/mask_004.jpg,0,0,0,3,1,,,,,,,,,,,,,,,,,,,,,,,,,,,,,,,,,,,,,,,,,,,,,,,,,,,,,,,,,,,,,,,,,,,,,,,,,,,,,,,,,,,,,,,,
050853,001,2022-11-21_02h30.34.133,Info_measure_main_exp,2022.2.2,Win32,59.93048064,,,,,,,,,,,,,,,,,,masks/mask_002.jpg,0,1,1,1,1,,,,,,,,,,,,,,,,,,,,,,,,,,,,,,,,,,,,,,,,,,,,,,,,,,,,,,,,,,,,,,,,,,,,,,,,,,,,,,,,,,,,,,,,
050853,001,2022-11-21_02h30.34.133,Info_measure_main_exp,2022.2.2,Win32,59.93048064,,,,,,,,,,,,,,,,,,masks/mask_003.jpg,0,2,2,2,1,,,,,,,,,,,,,,,,,,,,,,,,,,,,,,,,,,,,,,,,,,,,,,,,,,,,,,,,,,,,,,,,,,,,,,,,,,,,,,,,,,,,,,,,
050853,001,2022-11-21_02h30.34.133,Info_measure_main_exp,2022.2.2,Win32,59.93048064,,,,,,,,,,,,,,,,,,masks/mask_005.jpg,0,3,3,4,1,,,,,,,,,,,,,,,,,,,,,,,,,,,,,,,,,,,,,,,,,,,,,,,,,,,,,,,,,,,,,,,,,,,,,,,,,,,,,,,,,,,,,,,,
050853,001,2022-11-21_02h30.34.133,Info_measure_main_exp,2022.2.2,Win32,59.93048064,,,,,,,,,,,,,,,,,,masks/mask_001.jpg,0,4,4,0,1,,,,,,,,,,,,,,,,,,,,,,,,,,,,,,,,,,,,,,,,,,,,,,,,,,,,,,,,,,,,,,,,,,,,,,,,,,,,,,,,,,,,,,,,
050853,001,2022-11-21_02h30.34.133,Info_measure_main_exp,2022.2.2,Win32,59.93048064,,,,,,,,,,,,,,,,,,,,,,,,0.157514318,0.100421788,1,0,0,response1disk,6,144.1405,1,0.001197893,-0.007797335,1,0,0,center_square,0,2,2,1,1,0,131,5,5,2514,2490,prac_patch/patch0002514.jpg,prac_patch/patch0002490.jpg,,,,,,,,,,,,,,,,,,,,,,,,,,,,,,,,,,,,,,,,,,,,,,,,,,,,,,,,,,,,
050853,001,2022-11-21_02h30.34.133,Info_measure_main_exp,2022.2.2,Win32,59.93048064,,,,,,,,,,,,,,,,,,,,,,,,,,,,,,,,,,,,,,,,,,,,,,,,,,,,,,,,,,,space,2.3807,,,,,,,,,,,,,,,,,,,,,,,,,,,,,,,,,,,,,,,,,,,,,,,,,,,
050853,001,2022-11-21_02h30.34.133,Info_measure_main_exp,2022.2.2,Win32,59.93048064,,,,,,,,,,,,,,,,,,masks/mask_001.jpg,,,,,,,,,,,,,,,,,,,,,,,,,,,,,,,,,,,,,,,,,,,0,0,0,0,1,,,,,,,,,,,,,,,,,,,,,,,,,,,,,,,,,,,,,,,,,,,,,,
050853,001,2022-11-21_02h30.34.133,Info_measure_main_exp,2022.2.2,Win32,59.93048064,,,,,,,,,,,,,,,,,,masks/mask_004.jpg,,,,,,,,,,,,,,,,,,,,,,,,,,,,,,,,,,,,,,,,,,,0,1,1,3,1,,,,,,,,,,,,,,,,,,,,,,,,,,,,,,,,,,,,,,,,,,,,,,
050853,001,2022-11-21_02h30.34.133,Info_measure_main_exp,2022.2.2,Win32,59.93048064,,,,,,,,,,,,,,,,,,masks/mask_005.jpg,,,,,,,,,,,,,,,,,,,,,,,,,,,,,,,,,,,,,,,,,,,0,2,2,4,1,,,,,,,,,,,,,,,,,,,,,,,,,,,,,,,,,,,,,,,,,,,,,,
050853,001,2022-11-21_02h30.34.133,Info_measure_main_exp,2022.2.2,Win32,59.93048064,,,,,,,,,,,,,,,,,,masks/mask_003.jpg,,,,,,,,,,,,,,,,,,,,,,,,,,,,,,,,,,,,,,,,,,,0,3,3,2,1,,,,,,,,,,,,,,,,,,,,,,,,,,,,,,,,,,,,,,,,,,,,,,
050853,001,2022-11-21_02h30.34.133,Info_measure_main_exp,2022.2.2,Win32,59.93048064,,,,,,,,,,,,,,,,,,masks/mask_002.jpg,,,,,,,,,,,,,,,,,,,,,,,,,,,,,,,,,,,,,,,,,,,0,4,4,1,1,,,,,,,,,,,,,,,,,,,,,,,,,,,,,,,,,,,,,,,,,,,,,,
050853,001,2022-11-21_02h30.34.133,Info_measure_main_exp,2022.2.2,Win32,59.93048064,,,,,,,,,,,,,,,,,,masks/mask_001.jpg,,,,,,,,,,,,,,,,,,,,,,,,,,,,,,,,,,,,,,,,,,,,,,,,0,0,0,0,1,,,,,,,,,,,,,,,,,,,,,,,,,,,,,,,,,,,,,,,,,
050853,001,2022-11-21_02h30.34.133,Info_measure_main_exp,2022.2.2,Win32,59.93048064,,,,,,,,,,,,,,,,,,masks/mask_004.jpg,,,,,,,,,,,,,,,,,,,,,,,,,,,,,,,,,,,,,,,,,,,,,,,,0,1,1,3,1,,,,,,,,,,,,,,,,,,,,,,,,,,,,,,,,,,,,,,,,,
050853,001,2022-11-21_02h30.34.133,Info_measure_main_exp,2022.2.2,Win32,59.93048064,,,,,,,,,,,,,,,,,,masks/mask_005.jpg,,,,,,,,,,,,,,,,,,,,,,,,,,,,,,,,,,,,,,,,,,,,,,,,0,2,2,4,1,,,,,,,,,,,,,,,,,,,,,,,,,,,,,,,,,,,,,,,,,
050853,001,2022-11-21_02h30.34.133,Info_measure_main_exp,2022.2.2,Win32,59.93048064,,,,,,,,,,,,,,,,,,masks/mask_003.jpg,,,,,,,,,,,,,,,,,,,,,,,,,,,,,,,,,,,,,,,,,,,,,,,,0,3,3,2,1,,,,,,,,,,,,,,,,,,,,,,,,,,,,,,,,,,,,,,,,,
050853,001,2022-11-21_02h30.34.133,Info_measure_main_exp,2022.2.2,Win32,59.93048064,,,,,,,,,,,,,,,,,,masks/mask_002.jpg,,,,,,,,,,,,,,,,,,,,,,,,,,,,,,,,,,,,,,,,,,,,,,,,0,4,4,1,1,,,,,,,,,,,,,,,,,,,,,,,,,,,,,,,,,,,,,,,,,
050853,001,2022-11-21_02h30.34.133,Info_measure_main_exp,2022.2.2,Win32,59.93048064,,,,,,,,,,,,,,,,,,,,,,,,,,,,,,7,1.0171,1,,,,,,,,,,,,0,131,5,5,2214,2166,absent_patch/patch0002214.jpg,absent_patch/patch0002166.jpg,,,,,,,,,,,,,,,,,,,,0.115891537,0.180892349,1,0,0,response1disk,1,-0.001577013,-0.000397731,1,0,0,center_square,0,0,0,109,1,,,,,,,,,,,,,,,,,,,,,,,
050853,001,2022-11-21_02h30.34.133,Info_measure_main_exp,2022.2.2,Win32,59.93048064,,,,,,,,,,,,,,,,,,masks/mask_003.jpg,,,,,,,,,,,,,,,,,,,,,,,,,,,,,,,,,,,,,,,,,,,0,0,0,2,1,,,,,,,,,,,,,,,,,,,,,,,,,,,,,,,,,,,,,,,,,,,,,,
050853,001,2022-11-21_02h30.34.133,Info_measure_main_exp,2022.2.2,Win32,59.93048064,,,,,,,,,,,,,,,,,,masks/mask_001.jpg,,,,,,,,,,,,,,,,,,,,,,,,,,,,,,,,,,,,,,,,,,,0,1,1,0,1,,,,,,,,,,,,,,,,,,,,,,,,,,,,,,,,,,,,,,,,,,,,,,
050853,001,2022-11-21_02h30.34.133,Info_measure_main_exp,2022.2.2,Win32,59.93048064,,,,,,,,,,,,,,,,,,masks/mask_005.jpg,,,,,,,,,,,,,,,,,,,,,,,,,,,,,,,,,,,,,,,,,,,0,2,2,4,1,,,,,,,,,,,,,,,,,,,,,,,,,,,,,,,,,,,,,,,,,,,,,,
050853,001,2022-11-21_02h30.34.133,Info_measure_main_exp,2022.2.2,Win32,59.93048064,,,,,,,,,,,,,,,,,,masks/mask_002.jpg,,,,,,,,,,,,,,,,,,,,,,,,,,,,,,,,,,,,,,,,,,,0,3,3,1,1,,,,,,,,,,,,,,,,,,,,,,,,,,,,,,,,,,,,,,,,,,,,,,
050853,001,2022-11-21_02h30.34.133,Info_measure_main_exp,2022.2.2,Win32,59.93048064,,,,,,,,,,,,,,,,,,masks/mask_004.jpg,,,,,,,,,,,,,,,,,,,,,,,,,,,,,,,,,,,,,,,,,,,0,4,4,3,1,,,,,,,,,,,,,,,,,,,,,,,,,,,,,,,,,,,,,,,,,,,,,,
050853,001,2022-11-21_02h30.34.133,Info_measure_main_exp,2022.2.2,Win32,59.93048064,,,,,,,,,,,,,,,,,,masks/mask_005.jpg,,,,,,,,,,,,,,,,,,,,,,,,,,,,,,,,,,,,,,,,,,,,,,,,0,0,0,4,1,,,,,,,,,,,,,,,,,,,,,,,,,,,,,,,,,,,,,,,,,
050853,001,2022-11-21_02h30.34.133,Info_measure_main_exp,2022.2.2,Win32,59.93048064,,,,,,,,,,,,,,,,,,masks/mask_002.jpg,,,,,,,,,,,,,,,,,,,,,,,,,,,,,,,,,,,,,,,,,,,,,,,,0,1,1,1,1,,,,,,,,,,,,,,,,,,,,,,,,,,,,,,,,,,,,,,,,,
050853,001,2022-11-21_02h30.34.133,Info_measure_main_exp,2022.2.2,Win32,59.93048064,,,,,,,,,,,,,,,,,,masks/mask_003.jpg,,,,,,,,,,,,,,,,,,,,,,,,,,,,,,,,,,,,,,,,,,,,,,,,0,2,2,2,1,,,,,,,,,,,,,,,,,,,,,,,,,,,,,,,,,,,,,,,,,
050853,001,2022-11-21_02h30.34.133,Info_measure_main_exp,2022.2.2,Win32,59.93048064,,,,,,,,,,,,,,,,,,masks/mask_001.jpg,,,,,,,,,,,,,,,,,,,,,,,,,,,,,,,,,,,,,,,,,,,,,,,,0,3,3,0,1,,,,,,,,,,,,,,,,,,,,,,,,,,,,,,,,,,,,,,,,,
050853,001,2022-11-21_02h30.34.133,Info_measure_main_exp,2022.2.2,Win32,59.93048064,,,,,,,,,,,,,,,,,,masks/mask_004.jpg,,,,,,,,,,,,,,,,,,,,,,,,,,,,,,,,,,,,,,,,,,,,,,,,0,4,4,3,1,,,,,,,,,,,,,,,,,,,,,,,,,,,,,,,,,,,,,,,,,
050853,001,2022-11-21_02h30.34.133,Info_measure_main_exp,2022.2.2,Win32,59.93048064,,,,,,,,,,,,,,,,,,,,,,,,,,,,,,3,3.0501,1,,,,,,,,,,,,1,131,5,5,1,2274,present_patch/cong_131_5_a.jpg,absent_patch/patch0002274.jpg,,,,,,,,,,,,,,,,,,,,-0.051524325,-0.116941354,1,0,0,response5disk,2,-0.005276846,-0.003172575,1,0,0,center_square,0,1,1,105,1,,,,,,,,,,,,,,,,,,,,,,,
050853,001,2022-11-21_02h30.34.133,Info_measure_main_exp,2022.2.2,Win32,59.93048064,,,,,,,,,,,,,,,,,,masks/mask_005.jpg,,,,,,,,,,,,,,,,,,,,,,,,,,,,,,,,,,,,,,,,,,,0,0,0,4,1,,,,,,,,,,,,,,,,,,,,,,,,,,,,,,,,,,,,,,,,,,,,,,
050853,001,2022-11-21_02h30.34.133,Info_measure_main_exp,2022.2.2,Win32,59.93048064,,,,,,,,,,,,,,,,,,masks/mask_004.jpg,,,,,,,,,,,,,,,,,,,,,,,,,,,,,,,,,,,,,,,,,,,0,1,1,3,1,,,,,,,,,,,,,,,,,,,,,,,,,,,,,,,,,,,,,,,,,,,,,,
050853,001,2022-11-21_02h30.34.133,Info_measure_main_exp,2022.2.2,Win32,59.93048064,,,,,,,,,,,,,,,,,,masks/mask_003.jpg,,,,,,,,,,,,,,,,,,,,,,,,,,,,,,,,,,,,,,,,,,,0,2,2,2,1,,,,,,,,,,,,,,,,,,,,,,,,,,,,,,,,,,,,,,,,,,,,,,
050853,001,2022-11-21_02h30.34.133,Info_measure_main_exp,2022.2.2,Win32,59.93048064,,,,,,,,,,,,,,,,,,masks/mask_001.jpg,,,,,,,,,,,,,,,,,,,,,,,,,,,,,,,,,,,,,,,,,,,0,3,3,0,1,,,,,,,,,,,,,,,,,,,,,,,,,,,,,,,,,,,,,,,,,,,,,,
050853,001,2022-11-21_02h30.34.133,Info_measure_main_exp,2022.2.2,Win32,59.93048064,,,,,,,,,,,,,,,,,,masks/mask_002.jpg,,,,,,,,,,,,,,,,,,,,,,,,,,,,,,,,,,,,,,,,,,,0,4,4,1,1,,,,,,,,,,,,,,,,,,,,,,,,,,,,,,,,,,,,,,,,,,,,,,
050853,001,2022-11-21_02h30.34.133,Info_measure_main_exp,2022.2.2,Win32,59.93048064,,,,,,,,,,,,,,,,,,masks/mask_001.jpg,,,,,,,,,,,,,,,,,,,,,,,,,,,,,,,,,,,,,,,,,,,,,,,,0,0,0,0,1,,,,,,,,,,,,,,,,,,,,,,,,,,,,,,,,,,,,,,,,,
050853,001,2022-11-21_02h30.34.133,Info_measure_main_exp,2022.2.2,Win32,59.93048064,,,,,,,,,,,,,,,,,,masks/mask_002.jpg,,,,,,,,,,,,,,,,,,,,,,,,,,,,,,,,,,,,,,,,,,,,,,,,0,1,1,1,1,,,,,,,,,,,,,,,,,,,,,,,,,,,,,,,,,,,,,,,,,
050853,001,2022-11-21_02h30.34.133,Info_measure_main_exp,2022.2.2,Win32,59.93048064,,,,,,,,,,,,,,,,,,masks/mask_003.jpg,,,,,,,,,,,,,,,,,,,,,,,,,,,,,,,,,,,,,,,,,,,,,,,,0,2,2,2,1,,,,,,,,,,,,,,,,,,,,,,,,,,,,,,,,,,,,,,,,,
050853,001,2022-11-21_02h30.34.133,Info_measure_main_exp,2022.2.2,Win32,59.93048064,,,,,,,,,,,,,,,,,,masks/mask_004.jpg,,,,,,,,,,,,,,,,,,,,,,,,,,,,,,,,,,,,,,,,,,,,,,,,0,3,3,3,1,,,,,,,,,,,,,,,,,,,,,,,,,,,,,,,,,,,,,,,,,
050853,001,2022-11-21_02h30.34.133,Info_measure_main_exp,2022.2.2,Win32,59.93048064,,,,,,,,,,,,,,,,,,masks/mask_005.jpg,,,,,,,,,,,,,,,,,,,,,,,,,,,,,,,,,,,,,,,,,,,,,,,,0,4,4,4,1,,,,,,,,,,,,,,,,,,,,,,,,,,,,,,,,,,,,,,,,,
050853,001,2022-11-21_02h30.34.133,Info_measure_main_exp,2022.2.2,Win32,59.93048064,,,,,,,,,,,,,,,,,,,,,,,,,,,,,,7,0.9684,1,,,,,,,,,,,,0,131,5,5,2250,2298,absent_patch/patch0002250.jpg,absent_patch/patch0002298.jpg,,,,,,,,,,,,,,,,,,,,0.092767798,0.1309451,1,0,0,response1disk,3,0.011372341,-0.001322689,1,0,0,center_square,0,2,2,59,1,,,,,,,,,,,,,,,,,,,,,,,
050853,001,2022-11-21_02h30.34.133,Info_measure_main_exp,2022.2.2,Win32,59.93048064,,,,,,,,,,,,,,,,,,masks/mask_005.jpg,,,,,,,,,,,,,,,,,,,,,,,,,,,,,,,,,,,,,,,,,,,0,0,0,4,1,,,,,,,,,,,,,,,,,,,,,,,,,,,,,,,,,,,,,,,,,,,,,,
050853,001,2022-11-21_02h30.34.133,Info_measure_main_exp,2022.2.2,Win32,59.93048064,,,,,,,,,,,,,,,,,,masks/mask_001.jpg,,,,,,,,,,,,,,,,,,,,,,,,,,,,,,,,,,,,,,,,,,,0,1,1,0,1,,,,,,,,,,,,,,,,,,,,,,,,,,,,,,,,,,,,,,,,,,,,,,
050853,001,2022-11-21_02h30.34.133,Info_measure_main_exp,2022.2.2,Win32,59.93048064,,,,,,,,,,,,,,,,,,masks/mask_002.jpg,,,,,,,,,,,,,,,,,,,,,,,,,,,,,,,,,,,,,,,,,,,0,2,2,1,1,,,,,,,,,,,,,,,,,,,,,,,,,,,,,,,,,,,,,,,,,,,,,,
050853,001,2022-11-21_02h30.34.133,Info_measure_main_exp,2022.2.2,Win32,59.93048064,,,,,,,,,,,,,,,,,,masks/mask_004.jpg,,,,,,,,,,,,,,,,,,,,,,,,,,,,,,,,,,,,,,,,,,,0,3,3,3,1,,,,,,,,,,,,,,,,,,,,,,,,,,,,,,,,,,,,,,,,,,,,,,
050853,001,2022-11-21_02h30.34.133,Info_measure_main_exp,2022.2.2,Win32,59.93048064,,,,,,,,,,,,,,,,,,masks/mask_003.jpg,,,,,,,,,,,,,,,,,,,,,,,,,,,,,,,,,,,,,,,,,,,0,4,4,2,1,,,,,,,,,,,,,,,,,,,,,,,,,,,,,,,,,,,,,,,,,,,,,,
050853,001,2022-11-21_02h30.34.133,Info_measure_main_exp,2022.2.2,Win32,59.93048064,,,,,,,,,,,,,,,,,,masks/mask_001.jpg,,,,,,,,,,,,,,,,,,,,,,,,,,,,,,,,,,,,,,,,,,,,,,,,0,0,0,0,1,,,,,,,,,,,,,,,,,,,,,,,,,,,,,,,,,,,,,,,,,
050853,001,2022-11-21_02h30.34.133,Info_measure_main_exp,2022.2.2,Win32,59.93048064,,,,,,,,,,,,,,,,,,masks/mask_002.jpg,,,,,,,,,,,,,,,,,,,,,,,,,,,,,,,,,,,,,,,,,,,,,,,,0,1,1,1,1,,,,,,,,,,,,,,,,,,,,,,,,,,,,,,,,,,,,,,,,,
050853,001,2022-11-21_02h30.34.133,Info_measure_main_exp,2022.2.2,Win32,59.93048064,,,,,,,,,,,,,,,,,,masks/mask_005.jpg,,,,,,,,,,,,,,,,,,,,,,,,,,,,,,,,,,,,,,,,,,,,,,,,0,2,2,4,1,,,,,,,,,,,,,,,,,,,,,,,,,,,,,,,,,,,,,,,,,
050853,001,2022-11-21_02h30.34.133,Info_measure_main_exp,2022.2.2,Win32,59.93048064,,,,,,,,,,,,,,,,,,masks/mask_003.jpg,,,,,,,,,,,,,,,,,,,,,,,,,,,,,,,,,,,,,,,,,,,,,,,,0,3,3,2,1,,,,,,,,,,,,,,,,,,,,,,,,,,,,,,,,,,,,,,,,,
050853,001,2022-11-21_02h30.34.133,Info_measure_main_exp,2022.2.2,Win32,59.93048064,,,,,,,,,,,,,,,,,,masks/mask_004.jpg,,,,,,,,,,,,,,,,,,,,,,,,,,,,,,,,,,,,,,,,,,,,,,,,0,4,4,3,1,,,,,,,,,,,,,,,,,,,,,,,,,,,,,,,,,,,,,,,,,
050853,001,2022-11-21_02h30.34.133,Info_measure_main_exp,2022.2.2,Win32,59.93048064,,,,,,,,,,,,,,,,,,,,,,,,,,,,,,5,3.5668,1,,,,,,,,,,,,0,131,5,5,2082,2298,absent_patch/patch0002082.jpg,absent_patch/patch0002298.jpg,,,,,,,,,,,,,,,,,,,,0.109416923,-0.044795293,1,0,0,response3disk,4,0.000272841,0.002377113,1,0,0,center_square,0,3,3,107,1,,,,,,,,,,,,,,,,,,,,,,,
050853,001,2022-11-21_02h30.34.133,Info_measure_main_exp,2022.2.2,Win32,59.93048064,,,,,,,,,,,,,,,,,,masks/mask_005.jpg,,,,,,,,,,,,,,,,,,,,,,,,,,,,,,,,,,,,,,,,,,,0,0,0,4,1,,,,,,,,,,,,,,,,,,,,,,,,,,,,,,,,,,,,,,,,,,,,,,
050853,001,2022-11-21_02h30.34.133,Info_measure_main_exp,2022.2.2,Win32,59.93048064,,,,,,,,,,,,,,,,,,masks/mask_004.jpg,,,,,,,,,,,,,,,,,,,,,,,,,,,,,,,,,,,,,,,,,,,0,1,1,3,1,,,,,,,,,,,,,,,,,,,,,,,,,,,,,,,,,,,,,,,,,,,,,,
050853,001,2022-11-21_02h30.34.133,Info_measure_main_exp,2022.2.2,Win32,59.93048064,,,,,,,,,,,,,,,,,,masks/mask_002.jpg,,,,,,,,,,,,,,,,,,,,,,,,,,,,,,,,,,,,,,,,,,,0,2,2,1,1,,,,,,,,,,,,,,,,,,,,,,,,,,,,,,,,,,,,,,,,,,,,,,
050853,001,2022-11-21_02h30.34.133,Info_measure_main_exp,2022.2.2,Win32,59.93048064,,,,,,,,,,,,,,,,,,masks/mask_003.jpg,,,,,,,,,,,,,,,,,,,,,,,,,,,,,,,,,,,,,,,,,,,0,3,3,2,1,,,,,,,,,,,,,,,,,,,,,,,,,,,,,,,,,,,,,,,,,,,,,,
050853,001,2022-11-21_02h30.34.133,Info_measure_main_exp,2022.2.2,Win32,59.93048064,,,,,,,,,,,,,,,,,,masks/mask_001.jpg,,,,,,,,,,,,,,,,,,,,,,,,,,,,,,,,,,,,,,,,,,,0,4,4,0,1,,,,,,,,,,,,,,,,,,,,,,,,,,,,,,,,,,,,,,,,,,,,,,
050853,001,2022-11-21_02h30.34.133,Info_measure_main_exp,2022.2.2,Win32,59.93048064,,,,,,,,,,,,,,,,,,masks/mask_005.jpg,,,,,,,,,,,,,,,,,,,,,,,,,,,,,,,,,,,,,,,,,,,,,,,,0,0,0,4,1,,,,,,,,,,,,,,,,,,,,,,,,,,,,,,,,,,,,,,,,,
050853,001,2022-11-21_02h30.34.133,Info_measure_main_exp,2022.2.2,Win32,59.93048064,,,,,,,,,,,,,,,,,,masks/mask_002.jpg,,,,,,,,,,,,,,,,,,,,,,,,,,,,,,,,,,,,,,,,,,,,,,,,0,1,1,1,1,,,,,,,,,,,,,,,,,,,,,,,,,,,,,,,,,,,,,,,,,
050853,001,2022-11-21_02h30.34.133,Info_measure_main_exp,2022.2.2,Win32,59.93048064,,,,,,,,,,,,,,,,,,masks/mask_001.jpg,,,,,,,,,,,,,,,,,,,,,,,,,,,,,,,,,,,,,,,,,,,,,,,,0,2,2,0,1,,,,,,,,,,,,,,,,,,,,,,,,,,,,,,,,,,,,,,,,,
050853,001,2022-11-21_02h30.34.133,Info_measure_main_exp,2022.2.2,Win32,59.93048064,,,,,,,,,,,,,,,,,,masks/mask_004.jpg,,,,,,,,,,,,,,,,,,,,,,,,,,,,,,,,,,,,,,,,,,,,,,,,0,3,3,3,1,,,,,,,,,,,,,,,,,,,,,,,,,,,,,,,,,,,,,,,,,
050853,001,2022-11-21_02h30.34.133,Info_measure_main_exp,2022.2.2,Win32,59.93048064,,,,,,,,,,,,,,,,,,masks/mask_003.jpg,,,,,,,,,,,,,,,,,,,,,,,,,,,,,,,,,,,,,,,,,,,,,,,,0,4,4,2,1,,,,,,,,,,,,,,,,,,,,,,,,,,,,,,,,,,,,,,,,,
050853,001,2022-11-21_02h30.34.133,Info_measure_main_exp,2022.2.2,Win32,59.93048064,,,,,,,,,,,,,,,,,,,,,,,,,,,,,,7,1.2335,1,,,,,,,,,,,,1,131,5,5,2082,1,absent_patch/patch0002082.jpg,present_patch/cong_131_5_a.jpg,,,,,,,,,,,,,,,,,,,,0.073343892,0.162393402,1,0,0,response1disk,5,0.002122758,0.005151956,1,0,0,center_square,0,4,4,65,1,,,,,,,,,,,,,,,,,,,,,,,
050853,001,2022-11-21_02h30.34.133,Info_measure_main_exp,2022.2.2,Win32,59.93048064,,,,,,,,,,,,,,,,,,masks/mask_003.jpg,,,,,,,,,,,,,,,,,,,,,,,,,,,,,,,,,,,,,,,,,,,0,0,0,2,1,,,,,,,,,,,,,,,,,,,,,,,,,,,,,,,,,,,,,,,,,,,,,,
050853,001,2022-11-21_02h30.34.133,Info_measure_main_exp,2022.2.2,Win32,59.93048064,,,,,,,,,,,,,,,,,,masks/mask_001.jpg,,,,,,,,,,,,,,,,,,,,,,,,,,,,,,,,,,,,,,,,,,,0,1,1,0,1,,,,,,,,,,,,,,,,,,,,,,,,,,,,,,,,,,,,,,,,,,,,,,
050853,001,2022-11-21_02h30.34.133,Info_measure_main_exp,2022.2.2,Win32,59.93048064,,,,,,,,,,,,,,,,,,masks/mask_004.jpg,,,,,,,,,,,,,,,,,,,,,,,,,,,,,,,,,,,,,,,,,,,0,2,2,3,1,,,,,,,,,,,,,,,,,,,,,,,,,,,,,,,,,,,,,,,,,,,,,,
050853,001,2022-11-21_02h30.34.133,Info_measure_main_exp,2022.2.2,Win32,59.93048064,,,,,,,,,,,,,,,,,,masks/mask_005.jpg,,,,,,,,,,,,,,,,,,,,,,,,,,,,,,,,,,,,,,,,,,,0,3,3,4,1,,,,,,,,,,,,,,,,,,,,,,,,,,,,,,,,,,,,,,,,,,,,,,
050853,001,2022-11-21_02h30.34.133,Info_measure_main_exp,2022.2.2,Win32,59.93048064,,,,,,,,,,,,,,,,,,masks/mask_002.jpg,,,,,,,,,,,,,,,,,,,,,,,,,,,,,,,,,,,,,,,,,,,0,4,4,1,1,,,,,,,,,,,,,,,,,,,,,,,,,,,,,,,,,,,,,,,,,,,,,,
050853,001,2022-11-21_02h30.34.133,Info_measure_main_exp,2022.2.2,Win32,59.93048064,,,,,,,,,,,,,,,,,,masks/mask_004.jpg,,,,,,,,,,,,,,,,,,,,,,,,,,,,,,,,,,,,,,,,,,,,,,,,0,0,0,3,1,,,,,,,,,,,,,,,,,,,,,,,,,,,,,,,,,,,,,,,,,
050853,001,2022-11-21_02h30.34.133,Info_measure_main_exp,2022.2.2,Win32,59.93048064,,,,,,,,,,,,,,,,,,masks/mask_003.jpg,,,,,,,,,,,,,,,,,,,,,,,,,,,,,,,,,,,,,,,,,,,,,,,,0,1,1,2,1,,,,,,,,,,,,,,,,,,,,,,,,,,,,,,,,,,,,,,,,,
050853,001,2022-11-21_02h30.34.133,Info_measure_main_exp,2022.2.2,Win32,59.93048064,,,,,,,,,,,,,,,,,,masks/mask_002.jpg,,,,,,,,,,,,,,,,,,,,,,,,,,,,,,,,,,,,,,,,,,,,,,,,0,2,2,1,1,,,,,,,,,,,,,,,,,,,,,,,,,,,,,,,,,,,,,,,,,
050853,001,2022-11-21_02h30.34.133,Info_measure_main_exp,2022.2.2,Win32,59.93048064,,,,,,,,,,,,,,,,,,masks/mask_005.jpg,,,,,,,,,,,,,,,,,,,,,,,,,,,,,,,,,,,,,,,,,,,,,,,,0,3,3,4,1,,,,,,,,,,,,,,,,,,,,,,,,,,,,,,,,,,,,,,,,,
050853,001,2022-11-21_02h30.34.133,Info_measure_main_exp,2022.2.2,Win32,59.93048064,,,,,,,,,,,,,,,,,,masks/mask_001.jpg,,,,,,,,,,,,,,,,,,,,,,,,,,,,,,,,,,,,,,,,,,,,,,,,0,4,4,0,1,,,,,,,,,,,,,,,,,,,,,,,,,,,,,,,,,,,,,,,,,
050853,001,2022-11-21_02h30.34.133,Info_measure_main_exp,2022.2.2,Win32,59.93048064,,,,,,,,,,,,,,,,,,,,,,,,,,,,,,6,1.1668,1,,,,,,,,,,,,0,131,5,5,2214,2082,absent_patch/patch0002214.jpg,absent_patch/patch0002082.jpg,,,,,,,,,,,,,,,,,,,,0.156589328,0.04030006,1,0,0,response1disk,6,-0.007126763,-0.005947419,1,0,0,center_square,0,5,5,103,1,,,,,,,,,,,,,,,,,,,,,,,
050853,001,2022-11-21_02h30.34.133,Info_measure_main_exp,2022.2.2,Win32,59.93048064,,,,,,,,,,,,,,,,,,masks/mask_003.jpg,,,,,,,,,,,,,,,,,,,,,,,,,,,,,,,,,,,,,,,,,,,0,0,0,2,1,,,,,,,,,,,,,,,,,,,,,,,,,,,,,,,,,,,,,,,,,,,,,,
050853,001,2022-11-21_02h30.34.133,Info_measure_main_exp,2022.2.2,Win32,59.93048064,,,,,,,,,,,,,,,,,,masks/mask_002.jpg,,,,,,,,,,,,,,,,,,,,,,,,,,,,,,,,,,,,,,,,,,,0,1,1,1,1,,,,,,,,,,,,,,,,,,,,,,,,,,,,,,,,,,,,,,,,,,,,,,
050853,001,2022-11-21_02h30.34.133,Info_measure_main_exp,2022.2.2,Win32,59.93048064,,,,,,,,,,,,,,,,,,masks/mask_004.jpg,,,,,,,,,,,,,,,,,,,,,,,,,,,,,,,,,,,,,,,,,,,0,2,2,3,1,,,,,,,,,,,,,,,,,,,,,,,,,,,,,,,,,,,,,,,,,,,,,,
050853,001,2022-11-21_02h30.34.133,Info_measure_main_exp,2022.2.2,Win32,59.93048064,,,,,,,,,,,,,,,,,,masks/mask_001.jpg,,,,,,,,,,,,,,,,,,,,,,,,,,,,,,,,,,,,,,,,,,,0,3,3,0,1,,,,,,,,,,,,,,,,,,,,,,,,,,,,,,,,,,,,,,,,,,,,,,
050853,001,2022-11-21_02h30.34.133,Info_measure_main_exp,2022.2.2,Win32,59.93048064,,,,,,,,,,,,,,,,,,masks/mask_005.jpg,,,,,,,,,,,,,,,,,,,,,,,,,,,,,,,,,,,,,,,,,,,0,4,4,4,1,,,,,,,,,,,,,,,,,,,,,,,,,,,,,,,,,,,,,,,,,,,,,,
050853,001,2022-11-21_02h30.34.133,Info_measure_main_exp,2022.2.2,Win32,59.93048064,,,,,,,,,,,,,,,,,,masks/mask_005.jpg,,,,,,,,,,,,,,,,,,,,,,,,,,,,,,,,,,,,,,,,,,,,,,,,0,0,0,4,1,,,,,,,,,,,,,,,,,,,,,,,,,,,,,,,,,,,,,,,,,
050853,001,2022-11-21_02h30.34.133,Info_measure_main_exp,2022.2.2,Win32,59.93048064,,,,,,,,,,,,,,,,,,masks/mask_002.jpg,,,,,,,,,,,,,,,,,,,,,,,,,,,,,,,,,,,,,,,,,,,,,,,,0,1,1,1,1,,,,,,,,,,,,,,,,,,,,,,,,,,,,,,,,,,,,,,,,,
050853,001,2022-11-21_02h30.34.133,Info_measure_main_exp,2022.2.2,Win32,59.93048064,,,,,,,,,,,,,,,,,,masks/mask_004.jpg,,,,,,,,,,,,,,,,,,,,,,,,,,,,,,,,,,,,,,,,,,,,,,,,0,2,2,3,1,,,,,,,,,,,,,,,,,,,,,,,,,,,,,,,,,,,,,,,,,
050853,001,2022-11-21_02h30.34.133,Info_measure_main_exp,2022.2.2,Win32,59.93048064,,,,,,,,,,,,,,,,,,masks/mask_001.jpg,,,,,,,,,,,,,,,,,,,,,,,,,,,,,,,,,,,,,,,,,,,,,,,,0,3,3,0,1,,,,,,,,,,,,,,,,,,,,,,,,,,,,,,,,,,,,,,,,,
050853,001,2022-11-21_02h30.34.133,Info_measure_main_exp,2022.2.2,Win32,59.93048064,,,,,,,,,,,,,,,,,,masks/mask_003.jpg,,,,,,,,,,,,,,,,,,,,,,,,,,,,,,,,,,,,,,,,,,,,,,,,0,4,4,2,1,,,,,,,,,,,,,,,,,,,,,,,,,,,,,,,,,,,,,,,,,
050853,001,2022-11-21_02h30.34.133,Info_measure_main_exp,2022.2.2,Win32,59.93048064,,,,,,,,,,,,,,,,,,,,,,,,,,,,,,5,3.2667,1,,,,,,,,,,,,0,131,5,5,2190,2178,absent_patch/patch0002190.jpg,absent_patch/patch0002178.jpg,,,,,,,,,,,,,,,,,,,,0.113116693,-0.05589473,1,0,0,response3disk,7,-0.006201773,0.001452186,1,0,0,center_square,0,6,6,14,1,,,,,,,,,,,,,,,,,,,,,,,
050853,001,2022-11-21_02h30.34.133,Info_measure_main_exp,2022.2.2,Win32,59.93048064,,,,,,,,,,,,,,,,,,masks/mask_001.jpg,,,,,,,,,,,,,,,,,,,,,,,,,,,,,,,,,,,,,,,,,,,0,0,0,0,1,,,,,,,,,,,,,,,,,,,,,,,,,,,,,,,,,,,,,,,,,,,,,,
050853,001,2022-11-21_02h30.34.133,Info_measure_main_exp,2022.2.2,Win32,59.93048064,,,,,,,,,,,,,,,,,,masks/mask_005.jpg,,,,,,,,,,,,,,,,,,,,,,,,,,,,,,,,,,,,,,,,,,,0,1,1,4,1,,,,,,,,,,,,,,,,,,,,,,,,,,,,,,,,,,,,,,,,,,,,,,
050853,001,2022-11-21_02h30.34.133,Info_measure_main_exp,2022.2.2,Win32,59.93048064,,,,,,,,,,,,,,,,,,masks/mask_004.jpg,,,,,,,,,,,,,,,,,,,,,,,,,,,,,,,,,,,,,,,,,,,0,2,2,3,1,,,,,,,,,,,,,,,,,,,,,,,,,,,,,,,,,,,,,,,,,,,,,,
050853,001,2022-11-21_02h30.34.133,Info_measure_main_exp,2022.2.2,Win32,59.93048064,,,,,,,,,,,,,,,,,,masks/mask_003.jpg,,,,,,,,,,,,,,,,,,,,,,,,,,,,,,,,,,,,,,,,,,,0,3,3,2,1,,,,,,,,,,,,,,,,,,,,,,,,,,,,,,,,,,,,,,,,,,,,,,
050853,001,2022-11-21_02h30.34.133,Info_measure_main_exp,2022.2.2,Win32,59.93048064,,,,,,,,,,,,,,,,,,masks/mask_002.jpg,,,,,,,,,,,,,,,,,,,,,,,,,,,,,,,,,,,,,,,,,,,0,4,4,1,1,,,,,,,,,,,,,,,,,,,,,,,,,,,,,,,,,,,,,,,,,,,,,,
050853,001,2022-11-21_02h30.34.133,Info_measure_main_exp,2022.2.2,Win32,59.93048064,,,,,,,,,,,,,,,,,,masks/mask_001.jpg,,,,,,,,,,,,,,,,,,,,,,,,,,,,,,,,,,,,,,,,,,,,,,,,0,0,0,0,1,,,,,,,,,,,,,,,,,,,,,,,,,,,,,,,,,,,,,,,,,
050853,001,2022-11-21_02h30.34.133,Info_measure_main_exp,2022.2.2,Win32,59.93048064,,,,,,,,,,,,,,,,,,masks/mask_002.jpg,,,,,,,,,,,,,,,,,,,,,,,,,,,,,,,,,,,,,,,,,,,,,,,,0,1,1,1,1,,,,,,,,,,,,,,,,,,,,,,,,,,,,,,,,,,,,,,,,,
050853,001,2022-11-21_02h30.34.133,Info_measure_main_exp,2022.2.2,Win32,59.93048064,,,,,,,,,,,,,,,,,,masks/mask_004.jpg,,,,,,,,,,,,,,,,,,,,,,,,,,,,,,,,,,,,,,,,,,,,,,,,0,2,2,3,1,,,,,,,,,,,,,,,,,,,,,,,,,,,,,,,,,,,,,,,,,
050853,001,2022-11-21_02h30.34.133,Info_measure_main_exp,2022.2.2,Win32,59.93048064,,,,,,,,,,,,,,,,,,masks/mask_005.jpg,,,,,,,,,,,,,,,,,,,,,,,,,,,,,,,,,,,,,,,,,,,,,,,,0,3,3,4,1,,,,,,,,,,,,,,,,,,,,,,,,,,,,,,,,,,,,,,,,,
050853,001,2022-11-21_02h30.34.133,Info_measure_main_exp,2022.2.2,Win32,59.93048064,,,,,,,,,,,,,,,,,,masks/mask_003.jpg,,,,,,,,,,,,,,,,,,,,,,,,,,,,,,,,,,,,,,,,,,,,,,,,0,4,4,2,1,,,,,,,,,,,,,,,,,,,,,,,,,,,,,,,,,,,,,,,,,
050853,001,2022-11-21_02h30.34.133,Info_measure_main_exp,2022.2.2,Win32,59.93048064,,,,,,,,,,,,,,,,,,,,,,,,,,,,,,6,1.6006,1,,,,,,,,,,,,0,131,5,5,1974,1950,absent_patch/patch0001974.jpg,absent_patch/patch0001950.jpg,,,,,,,,,,,,,,,,,,,,0.157514318,0.04030006,1,0,0,response1disk,8,-0.001577013,-0.004097533,1,0,0,center_square,0,7,7,17,1,,,,,,,,,,,,,,,,,,,,,,,
050853,001,2022-11-21_02h30.34.133,Info_measure_main_exp,2022.2.2,Win32,59.93048064,,,,,,,,,,,,,,,,,,masks/mask_002.jpg,,,,,,,,,,,,,,,,,,,,,,,,,,,,,,,,,,,,,,,,,,,0,0,0,1,1,,,,,,,,,,,,,,,,,,,,,,,,,,,,,,,,,,,,,,,,,,,,,,
050853,001,2022-11-21_02h30.34.133,Info_measure_main_exp,2022.2.2,Win32,59.93048064,,,,,,,,,,,,,,,,,,masks/mask_004.jpg,,,,,,,,,,,,,,,,,,,,,,,,,,,,,,,,,,,,,,,,,,,0,1,1,3,1,,,,,,,,,,,,,,,,,,,,,,,,,,,,,,,,,,,,,,,,,,,,,,
050853,001,2022-11-21_02h30.34.133,Info_measure_main_exp,2022.2.2,Win32,59.93048064,,,,,,,,,,,,,,,,,,masks/mask_001.jpg,,,,,,,,,,,,,,,,,,,,,,,,,,,,,,,,,,,,,,,,,,,0,2,2,0,1,,,,,,,,,,,,,,,,,,,,,,,,,,,,,,,,,,,,,,,,,,,,,,
050853,001,2022-11-21_02h30.34.133,Info_measure_main_exp,2022.2.2,Win32,59.93048064,,,,,,,,,,,,,,,,,,masks/mask_005.jpg,,,,,,,,,,,,,,,,,,,,,,,,,,,,,,,,,,,,,,,,,,,0,3,3,4,1,,,,,,,,,,,,,,,,,,,,,,,,,,,,,,,,,,,,,,,,,,,,,,
050853,001,2022-11-21_02h30.34.133,Info_measure_main_exp,2022.2.2,Win32,59.93048064,,,,,,,,,,,,,,,,,,masks/mask_003.jpg,,,,,,,,,,,,,,,,,,,,,,,,,,,,,,,,,,,,,,,,,,,0,4,4,2,1,,,,,,,,,,,,,,,,,,,,,,,,,,,,,,,,,,,,,,,,,,,,,,
050853,001,2022-11-21_02h30.34.133,Info_measure_main_exp,2022.2.2,Win32,59.93048064,,,,,,,,,,,,,,,,,,masks/mask_003.jpg,,,,,,,,,,,,,,,,,,,,,,,,,,,,,,,,,,,,,,,,,,,,,,,,0,0,0,2,1,,,,,,,,,,,,,,,,,,,,,,,,,,,,,,,,,,,,,,,,,
050853,001,2022-11-21_02h30.34.133,Info_measure_main_exp,2022.2.2,Win32,59.93048064,,,,,,,,,,,,,,,,,,masks/mask_001.jpg,,,,,,,,,,,,,,,,,,,,,,,,,,,,,,,,,,,,,,,,,,,,,,,,0,1,1,0,1,,,,,,,,,,,,,,,,,,,,,,,,,,,,,,,,,,,,,,,,,
050853,001,2022-11-21_02h30.34.133,Info_measure_main_exp,2022.2.2,Win32,59.93048064,,,,,,,,,,,,,,,,,,masks/mask_004.jpg,,,,,,,,,,,,,,,,,,,,,,,,,,,,,,,,,,,,,,,,,,,,,,,,0,2,2,3,1,,,,,,,,,,,,,,,,,,,,,,,,,,,,,,,,,,,,,,,,,
050853,001,2022-11-21_02h30.34.133,Info_measure_main_exp,2022.2.2,Win32,59.93048064,,,,,,,,,,,,,,,,,,masks/mask_002.jpg,,,,,,,,,,,,,,,,,,,,,,,,,,,,,,,,,,,,,,,,,,,,,,,,0,3,3,1,1,,,,,,,,,,,,,,,,,,,,,,,,,,,,,,,,,,,,,,,,,
050853,001,2022-11-21_02h30.34.133,Info_measure_main_exp,2022.2.2,Win32,59.93048064,,,,,,,,,,,,,,,,,,masks/mask_005.jpg,,,,,,,,,,,,,,,,,,,,,,,,,,,,,,,,,,,,,,,,,,,,,,,,0,4,4,4,1,,,,,,,,,,,,,,,,,,,,,,,,,,,,,,,,,,,,,,,,,
050853,001,2022-11-21_02h30.34.133,Info_measure_main_exp,2022.2.2,Win32,59.93048064,,,,,,,,,,,,,,,,,,,,,,,,,,,,,,3,4.9841,1,,,,,,,,,,,,1,131,5,5,1,2154,present_patch/cong_131_5_a.jpg,absent_patch/patch0002154.jpg,,,,,,,,,,,,,,,,,,,,-0.053374242,-0.128965719,1,0,0,response5disk,9,0.003972674,0.001452186,1,0,0,center_square,0,8,8,87,1,,,,,,,,,,,,,,,,,,,,,,,
050853,001,2022-11-21_02h30.34.133,Info_measure_main_exp,2022.2.2,Win32,59.93048064,,,,,,,,,,,,,,,,,,masks/mask_001.jpg,,,,,,,,,,,,,,,,,,,,,,,,,,,,,,,,,,,,,,,,,,,0,0,0,0,1,,,,,,,,,,,,,,,,,,,,,,,,,,,,,,,,,,,,,,,,,,,,,,
050853,001,2022-11-21_02h30.34.133,Info_measure_main_exp,2022.2.2,Win32,59.93048064,,,,,,,,,,,,,,,,,,masks/mask_003.jpg,,,,,,,,,,,,,,,,,,,,,,,,,,,,,,,,,,,,,,,,,,,0,1,1,2,1,,,,,,,,,,,,,,,,,,,,,,,,,,,,,,,,,,,,,,,,,,,,,,
050853,001,2022-11-21_02h30.34.133,Info_measure_main_exp,2022.2.2,Win32,59.93048064,,,,,,,,,,,,,,,,,,masks/mask_005.jpg,,,,,,,,,,,,,,,,,,,,,,,,,,,,,,,,,,,,,,,,,,,0,2,2,4,1,,,,,,,,,,,,,,,,,,,,,,,,,,,,,,,,,,,,,,,,,,,,,,
050853,001,2022-11-21_02h30.34.133,Info_measure_main_exp,2022.2.2,Win32,59.93048064,,,,,,,,,,,,,,,,,,masks/mask_002.jpg,,,,,,,,,,,,,,,,,,,,,,,,,,,,,,,,,,,,,,,,,,,0,3,3,1,1,,,,,,,,,,,,,,,,,,,,,,,,,,,,,,,,,,,,,,,,,,,,,,
050853,001,2022-11-21_02h30.34.133,Info_measure_main_exp,2022.2.2,Win32,59.93048064,,,,,,,,,,,,,,,,,,masks/mask_004.jpg,,,,,,,,,,,,,,,,,,,,,,,,,,,,,,,,,,,,,,,,,,,0,4,4,3,1,,,,,,,,,,,,,,,,,,,,,,,,,,,,,,,,,,,,,,,,,,,,,,
050853,001,2022-11-21_02h30.34.133,Info_measure_main_exp,2022.2.2,Win32,59.93048064,,,,,,,,,,,,,,,,,,masks/mask_004.jpg,,,,,,,,,,,,,,,,,,,,,,,,,,,,,,,,,,,,,,,,,,,,,,,,0,0,0,3,1,,,,,,,,,,,,,,,,,,,,,,,,,,,,,,,,,,,,,,,,,
050853,001,2022-11-21_02h30.34.133,Info_measure_main_exp,2022.2.2,Win32,59.93048064,,,,,,,,,,,,,,,,,,masks/mask_003.jpg,,,,,,,,,,,,,,,,,,,,,,,,,,,,,,,,,,,,,,,,,,,,,,,,0,1,1,2,1,,,,,,,,,,,,,,,,,,,,,,,,,,,,,,,,,,,,,,,,,
050853,001,2022-11-21_02h30.34.133,Info_measure_main_exp,2022.2.2,Win32,59.93048064,,,,,,,,,,,,,,,,,,masks/mask_002.jpg,,,,,,,,,,,,,,,,,,,,,,,,,,,,,,,,,,,,,,,,,,,,,,,,0,2,2,1,1,,,,,,,,,,,,,,,,,,,,,,,,,,,,,,,,,,,,,,,,,
050853,001,2022-11-21_02h30.34.133,Info_measure_main_exp,2022.2.2,Win32,59.93048064,,,,,,,,,,,,,,,,,,masks/mask_005.jpg,,,,,,,,,,,,,,,,,,,,,,,,,,,,,,,,,,,,,,,,,,,,,,,,0,3,3,4,1,,,,,,,,,,,,,,,,,,,,,,,,,,,,,,,,,,,,,,,,,
050853,001,2022-11-21_02h30.34.133,Info_measure_main_exp,2022.2.2,Win32,59.93048064,,,,,,,,,,,,,,,,,,masks/mask_001.jpg,,,,,,,,,,,,,,,,,,,,,,,,,,,,,,,,,,,,,,,,,,,,,,,,0,4,4,0,1,,,,,,,,,,,,,,,,,,,,,,,,,,,,,,,,,,,,,,,,,
050853,001,2022-11-21_02h30.34.133,Info_measure_main_exp,2022.2.2,Win32,59.93048064,,,,,,,,,,,,,,,,,,,,,,,,,,,,,,6,1.2335,1,,,,,,,,,,,,0,131,5,5,2154,2214,absent_patch/patch0002154.jpg,absent_patch/patch0002214.jpg,,,,,,,,,,,,,,,,,,,,0.109416923,0.069898445,1,0,0,response1disk,10,0.005822528,0.007926831,1,0,0,center_square,0,9,9,67,1,,,,,,,,,,,,,,,,,,,,,,,
050853,001,2022-11-21_02h30.34.133,Info_measure_main_exp,2022.2.2,Win32,59.93048064,,,,,,,,,,,,,,,,,,masks/mask_002.jpg,,,,,,,,,,,,,,,,,,,,,,,,,,,,,,,,,,,,,,,,,,,0,0,0,1,1,,,,,,,,,,,,,,,,,,,,,,,,,,,,,,,,,,,,,,,,,,,,,,
050853,001,2022-11-21_02h30.34.133,Info_measure_main_exp,2022.2.2,Win32,59.93048064,,,,,,,,,,,,,,,,,,masks/mask_004.jpg,,,,,,,,,,,,,,,,,,,,,,,,,,,,,,,,,,,,,,,,,,,0,1,1,3,1,,,,,,,,,,,,,,,,,,,,,,,,,,,,,,,,,,,,,,,,,,,,,,
050853,001,2022-11-21_02h30.34.133,Info_measure_main_exp,2022.2.2,Win32,59.93048064,,,,,,,,,,,,,,,,,,masks/mask_005.jpg,,,,,,,,,,,,,,,,,,,,,,,,,,,,,,,,,,,,,,,,,,,0,2,2,4,1,,,,,,,,,,,,,,,,,,,,,,,,,,,,,,,,,,,,,,,,,,,,,,
050853,001,2022-11-21_02h30.34.133,Info_measure_main_exp,2022.2.2,Win32,59.93048064,,,,,,,,,,,,,,,,,,masks/mask_003.jpg,,,,,,,,,,,,,,,,,,,,,,,,,,,,,,,,,,,,,,,,,,,0,3,3,2,1,,,,,,,,,,,,,,,,,,,,,,,,,,,,,,,,,,,,,,,,,,,,,,
050853,001,2022-11-21_02h30.34.133,Info_measure_main_exp,2022.2.2,Win32,59.93048064,,,,,,,,,,,,,,,,,,masks/mask_001.jpg,,,,,,,,,,,,,,,,,,,,,,,,,,,,,,,,,,,,,,,,,,,0,4,4,0,1,,,,,,,,,,,,,,,,,,,,,,,,,,,,,,,,,,,,,,,,,,,,,,
050853,001,2022-11-21_02h30.34.133,Info_measure_main_exp,2022.2.2,Win32,59.93048064,,,,,,,,,,,,,,,,,,masks/mask_002.jpg,,,,,,,,,,,,,,,,,,,,,,,,,,,,,,,,,,,,,,,,,,,,,,,,0,0,0,1,1,,,,,,,,,,,,,,,,,,,,,,,,,,,,,,,,,,,,,,,,,
050853,001,2022-11-21_02h30.34.133,Info_measure_main_exp,2022.2.2,Win32,59.93048064,,,,,,,,,,,,,,,,,,masks/mask_003.jpg,,,,,,,,,,,,,,,,,,,,,,,,,,,,,,,,,,,,,,,,,,,,,,,,0,1,1,2,1,,,,,,,,,,,,,,,,,,,,,,,,,,,,,,,,,,,,,,,,,
050853,001,2022-11-21_02h30.34.133,Info_measure_main_exp,2022.2.2,Win32,59.93048064,,,,,,,,,,,,,,,,,,masks/mask_001.jpg,,,,,,,,,,,,,,,,,,,,,,,,,,,,,,,,,,,,,,,,,,,,,,,,0,2,2,0,1,,,,,,,,,,,,,,,,,,,,,,,,,,,,,,,,,,,,,,,,,
050853,001,2022-11-21_02h30.34.133,Info_measure_main_exp,2022.2.2,Win32,59.93048064,,,,,,,,,,,,,,,,,,masks/mask_005.jpg,,,,,,,,,,,,,,,,,,,,,,,,,,,,,,,,,,,,,,,,,,,,,,,,0,3,3,4,1,,,,,,,,,,,,,,,,,,,,,,,,,,,,,,,,,,,,,,,,,
050853,001,2022-11-21_02h30.34.133,Info_measure_main_exp,2022.2.2,Win32,59.93048064,,,,,,,,,,,,,,,,,,masks/mask_004.jpg,,,,,,,,,,,,,,,,,,,,,,,,,,,,,,,,,,,,,,,,,,,,,,,,0,4,4,3,1,,,,,,,,,,,,,,,,,,,,,,,,,,,,,,,,,,,,,,,,,
050853,001,2022-11-21_02h30.34.133,Info_measure_main_exp,2022.2.2,Win32,59.93048064,,,,,,,,,,,,,,,,,,,,,,,,,,,,,,7,0.8668,1,,,,,,,,,,,,0,131,5,5,2298,2274,absent_patch/patch0002298.jpg,absent_patch/patch0002274.jpg,,,,,,,,,,,,,,,,,,,,0.080743496,0.148519152,1,0,0,response1disk,11,-0.007126763,-0.004097533,1,0,0,center_square,0,10,10,1,1,,,,,,,,,,,,,,,,,,,,,,,
050853,001,2022-11-21_02h30.34.133,Info_measure_main_exp,2022.2.2,Win32,59.93048064,,,,,,,,,,,,,,,,,,masks/mask_004.jpg,,,,,,,,,,,,,,,,,,,,,,,,,,,,,,,,,,,,,,,,,,,0,0,0,3,1,,,,,,,,,,,,,,,,,,,,,,,,,,,,,,,,,,,,,,,,,,,,,,
050853,001,2022-11-21_02h30.34.133,Info_measure_main_exp,2022.2.2,Win32,59.93048064,,,,,,,,,,,,,,,,,,masks/mask_005.jpg,,,,,,,,,,,,,,,,,,,,,,,,,,,,,,,,,,,,,,,,,,,0,1,1,4,1,,,,,,,,,,,,,,,,,,,,,,,,,,,,,,,,,,,,,,,,,,,,,,
050853,001,2022-11-21_02h30.34.133,Info_measure_main_exp,2022.2.2,Win32,59.93048064,,,,,,,,,,,,,,,,,,masks/mask_002.jpg,,,,,,,,,,,,,,,,,,,,,,,,,,,,,,,,,,,,,,,,,,,0,2,2,1,1,,,,,,,,,,,,,,,,,,,,,,,,,,,,,,,,,,,,,,,,,,,,,,
050853,001,2022-11-21_02h30.34.133,Info_measure_main_exp,2022.2.2,Win32,59.93048064,,,,,,,,,,,,,,,,,,masks/mask_003.jpg,,,,,,,,,,,,,,,,,,,,,,,,,,,,,,,,,,,,,,,,,,,0,3,3,2,1,,,,,,,,,,,,,,,,,,,,,,,,,,,,,,,,,,,,,,,,,,,,,,
050853,001,2022-11-21_02h30.34.133,Info_measure_main_exp,2022.2.2,Win32,59.93048064,,,,,,,,,,,,,,,,,,masks/mask_001.jpg,,,,,,,,,,,,,,,,,,,,,,,,,,,,,,,,,,,,,,,,,,,0,4,4,0,1,,,,,,,,,,,,,,,,,,,,,,,,,,,,,,,,,,,,,,,,,,,,,,
050853,001,2022-11-21_02h30.34.133,Info_measure_main_exp,2022.2.2,Win32,59.93048064,,,,,,,,,,,,,,,,,,masks/mask_001.jpg,,,,,,,,,,,,,,,,,,,,,,,,,,,,,,,,,,,,,,,,,,,,,,,,0,0,0,0,1,,,,,,,,,,,,,,,,,,,,,,,,,,,,,,,,,,,,,,,,,
050853,001,2022-11-21_02h30.34.133,Info_measure_main_exp,2022.2.2,Win32,59.93048064,,,,,,,,,,,,,,,,,,masks/mask_005.jpg,,,,,,,,,,,,,,,,,,,,,,,,,,,,,,,,,,,,,,,,,,,,,,,,0,1,1,4,1,,,,,,,,,,,,,,,,,,,,,,,,,,,,,,,,,,,,,,,,,
050853,001,2022-11-21_02h30.34.133,Info_measure_main_exp,2022.2.2,Win32,59.93048064,,,,,,,,,,,,,,,,,,masks/mask_002.jpg,,,,,,,,,,,,,,,,,,,,,,,,,,,,,,,,,,,,,,,,,,,,,,,,0,2,2,1,1,,,,,,,,,,,,,,,,,,,,,,,,,,,,,,,,,,,,,,,,,
050853,001,2022-11-21_02h30.34.133,Info_measure_main_exp,2022.2.2,Win32,59.93048064,,,,,,,,,,,,,,,,,,masks/mask_003.jpg,,,,,,,,,,,,,,,,,,,,,,,,,,,,,,,,,,,,,,,,,,,,,,,,0,3,3,2,1,,,,,,,,,,,,,,,,,,,,,,,,,,,,,,,,,,,,,,,,,
050853,001,2022-11-21_02h30.34.133,Info_measure_main_exp,2022.2.2,Win32,59.93048064,,,,,,,,,,,,,,,,,,masks/mask_004.jpg,,,,,,,,,,,,,,,,,,,,,,,,,,,,,,,,,,,,,,,,,,,,,,,,0,4,4,3,1,,,,,,,,,,,,,,,,,,,,,,,,,,,,,,,,,,,,,,,,,
050853,001,2022-11-21_02h30.34.133,Info_measure_main_exp,2022.2.2,Win32,59.93048064,,,,,,,,,,,,,,,,,,,,,,,,,,,,,,5,2.0501,1,,,,,,,,,,,,0,131,5,5,1950,2178,absent_patch/patch0001950.jpg,absent_patch/patch0002178.jpg,,,,,,,,,,,,,,,,,,,,0.140865193,-0.045720345,1,0,0,response3disk,12,-0.00805169,0.001452186,1,0,0,center_square,0,11,11,61,1,,,,,,,,,,,,,,,,,,,,,,,
050853,001,2022-11-21_02h30.34.133,Info_measure_main_exp,2022.2.2,Win32,59.93048064,,,,,,,,,,,,,,,,,,masks/mask_002.jpg,,,,,,,,,,,,,,,,,,,,,,,,,,,,,,,,,,,,,,,,,,,0,0,0,1,1,,,,,,,,,,,,,,,,,,,,,,,,,,,,,,,,,,,,,,,,,,,,,,
050853,001,2022-11-21_02h30.34.133,Info_measure_main_exp,2022.2.2,Win32,59.93048064,,,,,,,,,,,,,,,,,,masks/mask_004.jpg,,,,,,,,,,,,,,,,,,,,,,,,,,,,,,,,,,,,,,,,,,,0,1,1,3,1,,,,,,,,,,,,,,,,,,,,,,,,,,,,,,,,,,,,,,,,,,,,,,
050853,001,2022-11-21_02h30.34.133,Info_measure_main_exp,2022.2.2,Win32,59.93048064,,,,,,,,,,,,,,,,,,masks/mask_001.jpg,,,,,,,,,,,,,,,,,,,,,,,,,,,,,,,,,,,,,,,,,,,0,2,2,0,1,,,,,,,,,,,,,,,,,,,,,,,,,,,,,,,,,,,,,,,,,,,,,,
050853,001,2022-11-21_02h30.34.133,Info_measure_main_exp,2022.2.2,Win32,59.93048064,,,,,,,,,,,,,,,,,,masks/mask_005.jpg,,,,,,,,,,,,,,,,,,,,,,,,,,,,,,,,,,,,,,,,,,,0,3,3,4,1,,,,,,,,,,,,,,,,,,,,,,,,,,,,,,,,,,,,,,,,,,,,,,
050853,001,2022-11-21_02h30.34.133,Info_measure_main_exp,2022.2.2,Win32,59.93048064,,,,,,,,,,,,,,,,,,masks/mask_003.jpg,,,,,,,,,,,,,,,,,,,,,,,,,,,,,,,,,,,,,,,,,,,0,4,4,2,1,,,,,,,,,,,,,,,,,,,,,,,,,,,,,,,,,,,,,,,,,,,,,,
050853,001,2022-11-21_02h30.34.133,Info_measure_main_exp,2022.2.2,Win32,59.93048064,,,,,,,,,,,,,,,,,,masks/mask_003.jpg,,,,,,,,,,,,,,,,,,,,,,,,,,,,,,,,,,,,,,,,,,,,,,,,0,0,0,2,1,,,,,,,,,,,,,,,,,,,,,,,,,,,,,,,,,,,,,,,,,
050853,001,2022-11-21_02h30.34.133,Info_measure_main_exp,2022.2.2,Win32,59.93048064,,,,,,,,,,,,,,,,,,masks/mask_002.jpg,,,,,,,,,,,,,,,,,,,,,,,,,,,,,,,,,,,,,,,,,,,,,,,,0,1,1,1,1,,,,,,,,,,,,,,,,,,,,,,,,,,,,,,,,,,,,,,,,,
050853,001,2022-11-21_02h30.34.133,Info_measure_main_exp,2022.2.2,Win32,59.93048064,,,,,,,,,,,,,,,,,,masks/mask_005.jpg,,,,,,,,,,,,,,,,,,,,,,,,,,,,,,,,,,,,,,,,,,,,,,,,0,2,2,4,1,,,,,,,,,,,,,,,,,,,,,,,,,,,,,,,,,,,,,,,,,
050853,001,2022-11-21_02h30.34.133,Info_measure_main_exp,2022.2.2,Win32,59.93048064,,,,,,,,,,,,,,,,,,masks/mask_004.jpg,,,,,,,,,,,,,,,,,,,,,,,,,,,,,,,,,,,,,,,,,,,,,,,,0,3,3,3,1,,,,,,,,,,,,,,,,,,,,,,,,,,,,,,,,,,,,,,,,,
050853,001,2022-11-21_02h30.34.133,Info_measure_main_exp,2022.2.2,Win32,59.93048064,,,,,,,,,,,,,,,,,,masks/mask_001.jpg,,,,,,,,,,,,,,,,,,,,,,,,,,,,,,,,,,,,,,,,,,,,,,,,0,4,4,0,1,,,,,,,,,,,,,,,,,,,,,,,,,,,,,,,,,,,,,,,,,
050853,001,2022-11-21_02h30.34.133,Info_measure_main_exp,2022.2.2,Win32,59.93048064,,,,,,,,,,,,,,,,,,,,,,,,,,,,,,7,1.5669,1,,,,,,,,,,,,1,131,5,5,2250,1,absent_patch/patch0002250.jpg,present_patch/cong_131_5_a.jpg,,,,,,,,,,,,,,,,,,,,0.05576984,0.106896434,1,0,0,response1disk,13,-0.008976554,-0.012422064,1,0,0,center_square,0,12,12,5,1,,,,,,,,,,,,,,,,,,,,,,,
050853,001,2022-11-21_02h30.34.133,Info_measure_main_exp,2022.2.2,Win32,59.93048064,,,,,,,,,,,,,,,,,,masks/mask_005.jpg,,,,,,,,,,,,,,,,,,,,,,,,,,,,,,,,,,,,,,,,,,,0,0,0,4,1,,,,,,,,,,,,,,,,,,,,,,,,,,,,,,,,,,,,,,,,,,,,,,
050853,001,2022-11-21_02h30.34.133,Info_measure_main_exp,2022.2.2,Win32,59.93048064,,,,,,,,,,,,,,,,,,masks/mask_003.jpg,,,,,,,,,,,,,,,,,,,,,,,,,,,,,,,,,,,,,,,,,,,0,1,1,2,1,,,,,,,,,,,,,,,,,,,,,,,,,,,,,,,,,,,,,,,,,,,,,,
050853,001,2022-11-21_02h30.34.133,Info_measure_main_exp,2022.2.2,Win32,59.93048064,,,,,,,,,,,,,,,,,,masks/mask_004.jpg,,,,,,,,,,,,,,,,,,,,,,,,,,,,,,,,,,,,,,,,,,,0,2,2,3,1,,,,,,,,,,,,,,,,,,,,,,,,,,,,,,,,,,,,,,,,,,,,,,
050853,001,2022-11-21_02h30.34.133,Info_measure_main_exp,2022.2.2,Win32,59.93048064,,,,,,,,,,,,,,,,,,masks/mask_002.jpg,,,,,,,,,,,,,,,,,,,,,,,,,,,,,,,,,,,,,,,,,,,0,3,3,1,1,,,,,,,,,,,,,,,,,,,,,,,,,,,,,,,,,,,,,,,,,,,,,,
050853,001,2022-11-21_02h30.34.133,Info_measure_main_exp,2022.2.2,Win32,59.93048064,,,,,,,,,,,,,,,,,,masks/mask_001.jpg,,,,,,,,,,,,,,,,,,,,,,,,,,,,,,,,,,,,,,,,,,,0,4,4,0,1,,,,,,,,,,,,,,,,,,,,,,,,,,,,,,,,,,,,,,,,,,,,,,
050853,001,2022-11-21_02h30.34.133,Info_measure_main_exp,2022.2.2,Win32,59.93048064,,,,,,,,,,,,,,,,,,masks/mask_001.jpg,,,,,,,,,,,,,,,,,,,,,,,,,,,,,,,,,,,,,,,,,,,,,,,,0,0,0,0,1,,,,,,,,,,,,,,,,,,,,,,,,,,,,,,,,,,,,,,,,,
050853,001,2022-11-21_02h30.34.133,Info_measure_main_exp,2022.2.2,Win32,59.93048064,,,,,,,,,,,,,,,,,,masks/mask_005.jpg,,,,,,,,,,,,,,,,,,,,,,,,,,,,,,,,,,,,,,,,,,,,,,,,0,1,1,4,1,,,,,,,,,,,,,,,,,,,,,,,,,,,,,,,,,,,,,,,,,
050853,001,2022-11-21_02h30.34.133,Info_measure_main_exp,2022.2.2,Win32,59.93048064,,,,,,,,,,,,,,,,,,masks/mask_004.jpg,,,,,,,,,,,,,,,,,,,,,,,,,,,,,,,,,,,,,,,,,,,,,,,,0,2,2,3,1,,,,,,,,,,,,,,,,,,,,,,,,,,,,,,,,,,,,,,,,,
050853,001,2022-11-21_02h30.34.133,Info_measure_main_exp,2022.2.2,Win32,59.93048064,,,,,,,,,,,,,,,,,,masks/mask_003.jpg,,,,,,,,,,,,,,,,,,,,,,,,,,,,,,,,,,,,,,,,,,,,,,,,0,3,3,2,1,,,,,,,,,,,,,,,,,,,,,,,,,,,,,,,,,,,,,,,,,
050853,001,2022-11-21_02h30.34.133,Info_measure_main_exp,2022.2.2,Win32,59.93048064,,,,,,,,,,,,,,,,,,masks/mask_002.jpg,,,,,,,,,,,,,,,,,,,,,,,,,,,,,,,,,,,,,,,,,,,,,,,,0,4,4,1,1,,,,,,,,,,,,,,,,,,,,,,,,,,,,,,,,,,,,,,,,,
050853,001,2022-11-21_02h30.34.133,Info_measure_main_exp,2022.2.2,Win32,59.93048064,,,,,,,,,,,,,,,,,,,,,,,,,,,,,,7,0.8334,1,,,,,,,,,,,,0,131,5,5,2190,1986,absent_patch/patch0002190.jpg,absent_patch/patch0001986.jpg,,,,,,,,,,,,,,,,,,,,0.069644059,0.147594193,1,0,0,response1disk,14,0.003972674,-0.007797335,1,0,0,center_square,0,13,13,111,1,,,,,,,,,,,,,,,,,,,,,,,
050853,001,2022-11-21_02h30.34.133,Info_measure_main_exp,2022.2.2,Win32,59.93048064,,,,,,,,,,,,,,,,,,masks/mask_002.jpg,,,,,,,,,,,,,,,,,,,,,,,,,,,,,,,,,,,,,,,,,,,0,0,0,1,1,,,,,,,,,,,,,,,,,,,,,,,,,,,,,,,,,,,,,,,,,,,,,,
050853,001,2022-11-21_02h30.34.133,Info_measure_main_exp,2022.2.2,Win32,59.93048064,,,,,,,,,,,,,,,,,,masks/mask_004.jpg,,,,,,,,,,,,,,,,,,,,,,,,,,,,,,,,,,,,,,,,,,,0,1,1,3,1,,,,,,,,,,,,,,,,,,,,,,,,,,,,,,,,,,,,,,,,,,,,,,
050853,001,2022-11-21_02h30.34.133,Info_measure_main_exp,2022.2.2,Win32,59.93048064,,,,,,,,,,,,,,,,,,masks/mask_001.jpg,,,,,,,,,,,,,,,,,,,,,,,,,,,,,,,,,,,,,,,,,,,0,2,2,0,1,,,,,,,,,,,,,,,,,,,,,,,,,,,,,,,,,,,,,,,,,,,,,,
050853,001,2022-11-21_02h30.34.133,Info_measure_main_exp,2022.2.2,Win32,59.93048064,,,,,,,,,,,,,,,,,,masks/mask_005.jpg,,,,,,,,,,,,,,,,,,,,,,,,,,,,,,,,,,,,,,,,,,,0,3,3,4,1,,,,,,,,,,,,,,,,,,,,,,,,,,,,,,,,,,,,,,,,,,,,,,
050853,001,2022-11-21_02h30.34.133,Info_measure_main_exp,2022.2.2,Win32,59.93048064,,,,,,,,,,,,,,,,,,masks/mask_003.jpg,,,,,,,,,,,,,,,,,,,,,,,,,,,,,,,,,,,,,,,,,,,0,4,4,2,1,,,,,,,,,,,,,,,,,,,,,,,,,,,,,,,,,,,,,,,,,,,,,,
050853,001,2022-11-21_02h30.34.133,Info_measure_main_exp,2022.2.2,Win32,59.93048064,,,,,,,,,,,,,,,,,,masks/mask_001.jpg,,,,,,,,,,,,,,,,,,,,,,,,,,,,,,,,,,,,,,,,,,,,,,,,0,0,0,0,1,,,,,,,,,,,,,,,,,,,,,,,,,,,,,,,,,,,,,,,,,
050853,001,2022-11-21_02h30.34.133,Info_measure_main_exp,2022.2.2,Win32,59.93048064,,,,,,,,,,,,,,,,,,masks/mask_005.jpg,,,,,,,,,,,,,,,,,,,,,,,,,,,,,,,,,,,,,,,,,,,,,,,,0,1,1,4,1,,,,,,,,,,,,,,,,,,,,,,,,,,,,,,,,,,,,,,,,,
050853,001,2022-11-21_02h30.34.133,Info_measure_main_exp,2022.2.2,Win32,59.93048064,,,,,,,,,,,,,,,,,,masks/mask_003.jpg,,,,,,,,,,,,,,,,,,,,,,,,,,,,,,,,,,,,,,,,,,,,,,,,0,2,2,2,1,,,,,,,,,,,,,,,,,,,,,,,,,,,,,,,,,,,,,,,,,
050853,001,2022-11-21_02h30.34.133,Info_measure_main_exp,2022.2.2,Win32,59.93048064,,,,,,,,,,,,,,,,,,masks/mask_004.jpg,,,,,,,,,,,,,,,,,,,,,,,,,,,,,,,,,,,,,,,,,,,,,,,,0,3,3,3,1,,,,,,,,,,,,,,,,,,,,,,,,,,,,,,,,,,,,,,,,,
050853,001,2022-11-21_02h30.34.133,Info_measure_main_exp,2022.2.2,Win32,59.93048064,,,,,,,,,,,,,,,,,,masks/mask_002.jpg,,,,,,,,,,,,,,,,,,,,,,,,,,,,,,,,,,,,,,,,,,,,,,,,0,4,4,1,1,,,,,,,,,,,,,,,,,,,,,,,,,,,,,,,,,,,,,,,,,
050853,001,2022-11-21_02h30.34.133,Info_measure_main_exp,2022.2.2,Win32,59.93048064,,,,,,,,,,,,,,,,,,,,,,,,,,,,,,6,1.0335,1,,,,,,,,,,,,1,131,5,5,1,2142,present_patch/cong_131_5_a.jpg,absent_patch/patch0002142.jpg,,,,,,,,,,,,,,,,,,,,0.0881431,0.031975466,1,0,0,response1disk,15,-0.011751398,0.007926831,1,0,0,center_square,0,14,14,80,1,,,,,,,,,,,,,,,,,,,,,,,
050853,001,2022-11-21_02h30.34.133,Info_measure_main_exp,2022.2.2,Win32,59.93048064,,,,,,,,,,,,,,,,,,masks/mask_003.jpg,,,,,,,,,,,,,,,,,,,,,,,,,,,,,,,,,,,,,,,,,,,0,0,0,2,1,,,,,,,,,,,,,,,,,,,,,,,,,,,,,,,,,,,,,,,,,,,,,,
050853,001,2022-11-21_02h30.34.133,Info_measure_main_exp,2022.2.2,Win32,59.93048064,,,,,,,,,,,,,,,,,,masks/mask_002.jpg,,,,,,,,,,,,,,,,,,,,,,,,,,,,,,,,,,,,,,,,,,,0,1,1,1,1,,,,,,,,,,,,,,,,,,,,,,,,,,,,,,,,,,,,,,,,,,,,,,
050853,001,2022-11-21_02h30.34.133,Info_measure_main_exp,2022.2.2,Win32,59.93048064,,,,,,,,,,,,,,,,,,masks/mask_001.jpg,,,,,,,,,,,,,,,,,,,,,,,,,,,,,,,,,,,,,,,,,,,0,2,2,0,1,,,,,,,,,,,,,,,,,,,,,,,,,,,,,,,,,,,,,,,,,,,,,,
050853,001,2022-11-21_02h30.34.133,Info_measure_main_exp,2022.2.2,Win32,59.93048064,,,,,,,,,,,,,,,,,,masks/mask_005.jpg,,,,,,,,,,,,,,,,,,,,,,,,,,,,,,,,,,,,,,,,,,,0,3,3,4,1,,,,,,,,,,,,,,,,,,,,,,,,,,,,,,,,,,,,,,,,,,,,,,
050853,001,2022-11-21_02h30.34.133,Info_measure_main_exp,2022.2.2,Win32,59.93048064,,,,,,,,,,,,,,,,,,masks/mask_004.jpg,,,,,,,,,,,,,,,,,,,,,,,,,,,,,,,,,,,,,,,,,,,0,4,4,3,1,,,,,,,,,,,,,,,,,,,,,,,,,,,,,,,,,,,,,,,,,,,,,,
050853,001,2022-11-21_02h30.34.133,Info_measure_main_exp,2022.2.2,Win32,59.93048064,,,,,,,,,,,,,,,,,,masks/mask_004.jpg,,,,,,,,,,,,,,,,,,,,,,,,,,,,,,,,,,,,,,,,,,,,,,,,0,0,0,3,1,,,,,,,,,,,,,,,,,,,,,,,,,,,,,,,,,,,,,,,,,
050853,001,2022-11-21_02h30.34.133,Info_measure_main_exp,2022.2.2,Win32,59.93048064,,,,,,,,,,,,,,,,,,masks/mask_005.jpg,,,,,,,,,,,,,,,,,,,,,,,,,,,,,,,,,,,,,,,,,,,,,,,,0,1,1,4,1,,,,,,,,,,,,,,,,,,,,,,,,,,,,,,,,,,,,,,,,,
050853,001,2022-11-21_02h30.34.133,Info_measure_main_exp,2022.2.2,Win32,59.93048064,,,,,,,,,,,,,,,,,,masks/mask_001.jpg,,,,,,,,,,,,,,,,,,,,,,,,,,,,,,,,,,,,,,,,,,,,,,,,0,2,2,0,1,,,,,,,,,,,,,,,,,,,,,,,,,,,,,,,,,,,,,,,,,
050853,001,2022-11-21_02h30.34.133,Info_measure_main_exp,2022.2.2,Win32,59.93048064,,,,,,,,,,,,,,,,,,masks/mask_002.jpg,,,,,,,,,,,,,,,,,,,,,,,,,,,,,,,,,,,,,,,,,,,,,,,,0,3,3,1,1,,,,,,,,,,,,,,,,,,,,,,,,,,,,,,,,,,,,,,,,,
050853,001,2022-11-21_02h30.34.133,Info_measure_main_exp,2022.2.2,Win32,59.93048064,,,,,,,,,,,,,,,,,,masks/mask_003.jpg,,,,,,,,,,,,,,,,,,,,,,,,,,,,,,,,,,,,,,,,,,,,,,,,0,4,4,2,1,,,,,,,,,,,,,,,,,,,,,,,,,,,,,,,,,,,,,,,,,
050853,001,2022-11-21_02h30.34.133,Info_measure_main_exp,2022.2.2,Win32,59.93048064,,,,,,,,,,,,,,,,,,,,,,,,,,,,,,0,1.6168,1,,,,,,,,,,,,0,131,5,5,1974,1974,absent_patch/patch0001974.jpg,absent_patch/patch0001974.jpg,,,,,,,,,,,,,,,,,,,,-0.058923929,0.173492808,1,0,0,response7disk,16,-0.001577013,0.007001873,1,0,0,center_square,0,15,15,113,1,,,,,,,,,,,,,,,,,,,,,,,
050853,001,2022-11-21_02h30.34.133,Info_measure_main_exp,2022.2.2,Win32,59.93048064,,,,,,,,,,,,,,,,,,masks/mask_004.jpg,,,,,,,,,,,,,,,,,,,,,,,,,,,,,,,,,,,,,,,,,,,0,0,0,3,1,,,,,,,,,,,,,,,,,,,,,,,,,,,,,,,,,,,,,,,,,,,,,,
050853,001,2022-11-21_02h30.34.133,Info_measure_main_exp,2022.2.2,Win32,59.93048064,,,,,,,,,,,,,,,,,,masks/mask_003.jpg,,,,,,,,,,,,,,,,,,,,,,,,,,,,,,,,,,,,,,,,,,,0,1,1,2,1,,,,,,,,,,,,,,,,,,,,,,,,,,,,,,,,,,,,,,,,,,,,,,
050853,001,2022-11-21_02h30.34.133,Info_measure_main_exp,2022.2.2,Win32,59.93048064,,,,,,,,,,,,,,,,,,masks/mask_002.jpg,,,,,,,,,,,,,,,,,,,,,,,,,,,,,,,,,,,,,,,,,,,0,2,2,1,1,,,,,,,,,,,,,,,,,,,,,,,,,,,,,,,,,,,,,,,,,,,,,,
050853,001,2022-11-21_02h30.34.133,Info_measure_main_exp,2022.2.2,Win32,59.93048064,,,,,,,,,,,,,,,,,,masks/mask_001.jpg,,,,,,,,,,,,,,,,,,,,,,,,,,,,,,,,,,,,,,,,,,,0,3,3,0,1,,,,,,,,,,,,,,,,,,,,,,,,,,,,,,,,,,,,,,,,,,,,,,
050853,001,2022-11-21_02h30.34.133,Info_measure_main_exp,2022.2.2,Win32,59.93048064,,,,,,,,,,,,,,,,,,masks/mask_005.jpg,,,,,,,,,,,,,,,,,,,,,,,,,,,,,,,,,,,,,,,,,,,0,4,4,4,1,,,,,,,,,,,,,,,,,,,,,,,,,,,,,,,,,,,,,,,,,,,,,,
050853,001,2022-11-21_02h30.34.133,Info_measure_main_exp,2022.2.2,Win32,59.93048064,,,,,,,,,,,,,,,,,,masks/mask_001.jpg,,,,,,,,,,,,,,,,,,,,,,,,,,,,,,,,,,,,,,,,,,,,,,,,0,0,0,0,1,,,,,,,,,,,,,,,,,,,,,,,,,,,,,,,,,,,,,,,,,
050853,001,2022-11-21_02h30.34.133,Info_measure_main_exp,2022.2.2,Win32,59.93048064,,,,,,,,,,,,,,,,,,masks/mask_004.jpg,,,,,,,,,,,,,,,,,,,,,,,,,,,,,,,,,,,,,,,,,,,,,,,,0,1,1,3,1,,,,,,,,,,,,,,,,,,,,,,,,,,,,,,,,,,,,,,,,,
050853,001,2022-11-21_02h30.34.133,Info_measure_main_exp,2022.2.2,Win32,59.93048064,,,,,,,,,,,,,,,,,,masks/mask_002.jpg,,,,,,,,,,,,,,,,,,,,,,,,,,,,,,,,,,,,,,,,,,,,,,,,0,2,2,1,1,,,,,,,,,,,,,,,,,,,,,,,,,,,,,,,,,,,,,,,,,
050853,001,2022-11-21_02h30.34.133,Info_measure_main_exp,2022.2.2,Win32,59.93048064,,,,,,,,,,,,,,,,,,masks/mask_003.jpg,,,,,,,,,,,,,,,,,,,,,,,,,,,,,,,,,,,,,,,,,,,,,,,,0,3,3,2,1,,,,,,,,,,,,,,,,,,,,,,,,,,,,,,,,,,,,,,,,,
050853,001,2022-11-21_02h30.34.133,Info_measure_main_exp,2022.2.2,Win32,59.93048064,,,,,,,,,,,,,,,,,,masks/mask_005.jpg,,,,,,,,,,,,,,,,,,,,,,,,,,,,,,,,,,,,,,,,,,,,,,,,0,4,4,4,1,,,,,,,,,,,,,,,,,,,,,,,,,,,,,,,,,,,,,,,,,
050853,001,2022-11-21_02h30.34.133,Info_measure_main_exp,2022.2.2,Win32,59.93048064,,,,,,,,,,,,,,,,,,,,,,,,,,,,,,5,1.3501,1,,,,,,,,,,,,0,131,5,5,1950,2298,absent_patch/patch0001950.jpg,absent_patch/patch0002298.jpg,,,,,,,,,,,,,,,,,,,,0.145489953,-0.039245605,1,0,0,response3disk,17,-0.016376221,0.008851758,1,0,0,center_square,0,16,16,18,1,,,,,,,,,,,,,,,,,,,,,,,
050853,001,2022-11-21_02h30.34.133,Info_measure_main_exp,2022.2.2,Win32,59.93048064,,,,,,,,,,,,,,,,,,masks/mask_001.jpg,,,,,,,,,,,,,,,,,,,,,,,,,,,,,,,,,,,,,,,,,,,0,0,0,0,1,,,,,,,,,,,,,,,,,,,,,,,,,,,,,,,,,,,,,,,,,,,,,,
050853,001,2022-11-21_02h30.34.133,Info_measure_main_exp,2022.2.2,Win32,59.93048064,,,,,,,,,,,,,,,,,,masks/mask_004.jpg,,,,,,,,,,,,,,,,,,,,,,,,,,,,,,,,,,,,,,,,,,,0,1,1,3,1,,,,,,,,,,,,,,,,,,,,,,,,,,,,,,,,,,,,,,,,,,,,,,
050853,001,2022-11-21_02h30.34.133,Info_measure_main_exp,2022.2.2,Win32,59.93048064,,,,,,,,,,,,,,,,,,masks/mask_003.jpg,,,,,,,,,,,,,,,,,,,,,,,,,,,,,,,,,,,,,,,,,,,0,2,2,2,1,,,,,,,,,,,,,,,,,,,,,,,,,,,,,,,,,,,,,,,,,,,,,,
050853,001,2022-11-21_02h30.34.133,Info_measure_main_exp,2022.2.2,Win32,59.93048064,,,,,,,,,,,,,,,,,,masks/mask_005.jpg,,,,,,,,,,,,,,,,,,,,,,,,,,,,,,,,,,,,,,,,,,,0,3,3,4,1,,,,,,,,,,,,,,,,,,,,,,,,,,,,,,,,,,,,,,,,,,,,,,
050853,001,2022-11-21_02h30.34.133,Info_measure_main_exp,2022.2.2,Win32,59.93048064,,,,,,,,,,,,,,,,,,masks/mask_002.jpg,,,,,,,,,,,,,,,,,,,,,,,,,,,,,,,,,,,,,,,,,,,0,4,4,1,1,,,,,,,,,,,,,,,,,,,,,,,,,,,,,,,,,,,,,,,,,,,,,,
050853,001,2022-11-21_02h30.34.133,Info_measure_main_exp,2022.2.2,Win32,59.93048064,,,,,,,,,,,,,,,,,,masks/mask_001.jpg,,,,,,,,,,,,,,,,,,,,,,,,,,,,,,,,,,,,,,,,,,,,,,,,0,0,0,0,1,,,,,,,,,,,,,,,,,,,,,,,,,,,,,,,,,,,,,,,,,
050853,001,2022-11-21_02h30.34.133,Info_measure_main_exp,2022.2.2,Win32,59.93048064,,,,,,,,,,,,,,,,,,masks/mask_004.jpg,,,,,,,,,,,,,,,,,,,,,,,,,,,,,,,,,,,,,,,,,,,,,,,,0,1,1,3,1,,,,,,,,,,,,,,,,,,,,,,,,,,,,,,,,,,,,,,,,,
050853,001,2022-11-21_02h30.34.133,Info_measure_main_exp,2022.2.2,Win32,59.93048064,,,,,,,,,,,,,,,,,,masks/mask_005.jpg,,,,,,,,,,,,,,,,,,,,,,,,,,,,,,,,,,,,,,,,,,,,,,,,0,2,2,4,1,,,,,,,,,,,,,,,,,,,,,,,,,,,,,,,,,,,,,,,,,
050853,001,2022-11-21_02h30.34.133,Info_measure_main_exp,2022.2.2,Win32,59.93048064,,,,,,,,,,,,,,,,,,masks/mask_003.jpg,,,,,,,,,,,,,,,,,,,,,,,,,,,,,,,,,,,,,,,,,,,,,,,,0,3,3,2,1,,,,,,,,,,,,,,,,,,,,,,,,,,,,,,,,,,,,,,,,,
050853,001,2022-11-21_02h30.34.133,Info_measure_main_exp,2022.2.2,Win32,59.93048064,,,,,,,,,,,,,,,,,,masks/mask_002.jpg,,,,,,,,,,,,,,,,,,,,,,,,,,,,,,,,,,,,,,,,,,,,,,,,0,4,4,1,1,,,,,,,,,,,,,,,,,,,,,,,,,,,,,,,,,,,,,,,,,
050853,001,2022-11-21_02h30.34.133,Info_measure_main_exp,2022.2.2,Win32,59.93048064,,,,,,,,,,,,,,,,,,,,,,,,,,,,,,0,1.0335,1,,,,,,,,,,,,0,131,5,5,2238,2238,absent_patch/patch0002238.jpg,absent_patch/patch0002238.jpg,,,,,,,,,,,,,,,,,,,,-0.038575033,0.124470423,1,0,0,response7disk,18,0.000272841,0.003302071,1,0,0,center_square,0,17,17,58,1,,,,,,,,,,,,,,,,,,,,,,,
050853,001,2022-11-21_02h30.34.133,Info_measure_main_exp,2022.2.2,Win32,59.93048064,,,,,,,,,,,,,,,,,,masks/mask_003.jpg,,,,,,,,,,,,,,,,,,,,,,,,,,,,,,,,,,,,,,,,,,,0,0,0,2,1,,,,,,,,,,,,,,,,,,,,,,,,,,,,,,,,,,,,,,,,,,,,,,
050853,001,2022-11-21_02h30.34.133,Info_measure_main_exp,2022.2.2,Win32,59.93048064,,,,,,,,,,,,,,,,,,masks/mask_004.jpg,,,,,,,,,,,,,,,,,,,,,,,,,,,,,,,,,,,,,,,,,,,0,1,1,3,1,,,,,,,,,,,,,,,,,,,,,,,,,,,,,,,,,,,,,,,,,,,,,,
050853,001,2022-11-21_02h30.34.133,Info_measure_main_exp,2022.2.2,Win32,59.93048064,,,,,,,,,,,,,,,,,,masks/mask_001.jpg,,,,,,,,,,,,,,,,,,,,,,,,,,,,,,,,,,,,,,,,,,,0,2,2,0,1,,,,,,,,,,,,,,,,,,,,,,,,,,,,,,,,,,,,,,,,,,,,,,
050853,001,2022-11-21_02h30.34.133,Info_measure_main_exp,2022.2.2,Win32,59.93048064,,,,,,,,,,,,,,,,,,masks/mask_002.jpg,,,,,,,,,,,,,,,,,,,,,,,,,,,,,,,,,,,,,,,,,,,0,3,3,1,1,,,,,,,,,,,,,,,,,,,,,,,,,,,,,,,,,,,,,,,,,,,,,,
050853,001,2022-11-21_02h30.34.133,Info_measure_main_exp,2022.2.2,Win32,59.93048064,,,,,,,,,,,,,,,,,,masks/mask_005.jpg,,,,,,,,,,,,,,,,,,,,,,,,,,,,,,,,,,,,,,,,,,,0,4,4,4,1,,,,,,,,,,,,,,,,,,,,,,,,,,,,,,,,,,,,,,,,,,,,,,
050853,001,2022-11-21_02h30.34.133,Info_measure_main_exp,2022.2.2,Win32,59.93048064,,,,,,,,,,,,,,,,,,masks/mask_002.jpg,,,,,,,,,,,,,,,,,,,,,,,,,,,,,,,,,,,,,,,,,,,,,,,,0,0,0,1,1,,,,,,,,,,,,,,,,,,,,,,,,,,,,,,,,,,,,,,,,,
050853,001,2022-11-21_02h30.34.133,Info_measure_main_exp,2022.2.2,Win32,59.93048064,,,,,,,,,,,,,,,,,,masks/mask_001.jpg,,,,,,,,,,,,,,,,,,,,,,,,,,,,,,,,,,,,,,,,,,,,,,,,0,1,1,0,1,,,,,,,,,,,,,,,,,,,,,,,,,,,,,,,,,,,,,,,,,
050853,001,2022-11-21_02h30.34.133,Info_measure_main_exp,2022.2.2,Win32,59.93048064,,,,,,,,,,,,,,,,,,masks/mask_005.jpg,,,,,,,,,,,,,,,,,,,,,,,,,,,,,,,,,,,,,,,,,,,,,,,,0,2,2,4,1,,,,,,,,,,,,,,,,,,,,,,,,,,,,,,,,,,,,,,,,,
050853,001,2022-11-21_02h30.34.133,Info_measure_main_exp,2022.2.2,Win32,59.93048064,,,,,,,,,,,,,,,,,,masks/mask_003.jpg,,,,,,,,,,,,,,,,,,,,,,,,,,,,,,,,,,,,,,,,,,,,,,,,0,3,3,2,1,,,,,,,,,,,,,,,,,,,,,,,,,,,,,,,,,,,,,,,,,
050853,001,2022-11-21_02h30.34.133,Info_measure_main_exp,2022.2.2,Win32,59.93048064,,,,,,,,,,,,,,,,,,masks/mask_004.jpg,,,,,,,,,,,,,,,,,,,,,,,,,,,,,,,,,,,,,,,,,,,,,,,,0,4,4,3,1,,,,,,,,,,,,,,,,,,,,,,,,,,,,,,,,,,,,,,,,,
050853,001,2022-11-21_02h30.34.133,Info_measure_main_exp,2022.2.2,Win32,59.93048064,,,,,,,,,,,,,,,,,,,,,,,,,,,,,,7,1.0835,1,,,,,,,,,,,,0,131,5,5,2214,2178,absent_patch/patch0002214.jpg,absent_patch/patch0002178.jpg,,,,,,,,,,,,,,,,,,,,0.070569048,0.117995777,1,0,0,response1disk,19,0.003972674,0.001452186,1,0,0,center_square,0,18,18,62,1,,,,,,,,,,,,,,,,,,,,,,,
050853,001,2022-11-21_02h30.34.133,Info_measure_main_exp,2022.2.2,Win32,59.93048064,,,,,,,,,,,,,,,,,,masks/mask_003.jpg,,,,,,,,,,,,,,,,,,,,,,,,,,,,,,,,,,,,,,,,,,,0,0,0,2,1,,,,,,,,,,,,,,,,,,,,,,,,,,,,,,,,,,,,,,,,,,,,,,
050853,001,2022-11-21_02h30.34.133,Info_measure_main_exp,2022.2.2,Win32,59.93048064,,,,,,,,,,,,,,,,,,masks/mask_005.jpg,,,,,,,,,,,,,,,,,,,,,,,,,,,,,,,,,,,,,,,,,,,0,1,1,4,1,,,,,,,,,,,,,,,,,,,,,,,,,,,,,,,,,,,,,,,,,,,,,,
050853,001,2022-11-21_02h30.34.133,Info_measure_main_exp,2022.2.2,Win32,59.93048064,,,,,,,,,,,,,,,,,,masks/mask_004.jpg,,,,,,,,,,,,,,,,,,,,,,,,,,,,,,,,,,,,,,,,,,,0,2,2,3,1,,,,,,,,,,,,,,,,,,,,,,,,,,,,,,,,,,,,,,,,,,,,,,
050853,001,2022-11-21_02h30.34.133,Info_measure_main_exp,2022.2.2,Win32,59.93048064,,,,,,,,,,,,,,,,,,masks/mask_002.jpg,,,,,,,,,,,,,,,,,,,,,,,,,,,,,,,,,,,,,,,,,,,0,3,3,1,1,,,,,,,,,,,,,,,,,,,,,,,,,,,,,,,,,,,,,,,,,,,,,,
050853,001,2022-11-21_02h30.34.133,Info_measure_main_exp,2022.2.2,Win32,59.93048064,,,,,,,,,,,,,,,,,,masks/mask_001.jpg,,,,,,,,,,,,,,,,,,,,,,,,,,,,,,,,,,,,,,,,,,,0,4,4,0,1,,,,,,,,,,,,,,,,,,,,,,,,,,,,,,,,,,,,,,,,,,,,,,
050853,001,2022-11-21_02h30.34.133,Info_measure_main_exp,2022.2.2,Win32,59.93048064,,,,,,,,,,,,,,,,,,masks/mask_002.jpg,,,,,,,,,,,,,,,,,,,,,,,,,,,,,,,,,,,,,,,,,,,,,,,,0,0,0,1,1,,,,,,,,,,,,,,,,,,,,,,,,,,,,,,,,,,,,,,,,,
050853,001,2022-11-21_02h30.34.133,Info_measure_main_exp,2022.2.2,Win32,59.93048064,,,,,,,,,,,,,,,,,,masks/mask_005.jpg,,,,,,,,,,,,,,,,,,,,,,,,,,,,,,,,,,,,,,,,,,,,,,,,0,1,1,4,1,,,,,,,,,,,,,,,,,,,,,,,,,,,,,,,,,,,,,,,,,
050853,001,2022-11-21_02h30.34.133,Info_measure_main_exp,2022.2.2,Win32,59.93048064,,,,,,,,,,,,,,,,,,masks/mask_001.jpg,,,,,,,,,,,,,,,,,,,,,,,,,,,,,,,,,,,,,,,,,,,,,,,,0,2,2,0,1,,,,,,,,,,,,,,,,,,,,,,,,,,,,,,,,,,,,,,,,,
050853,001,2022-11-21_02h30.34.133,Info_measure_main_exp,2022.2.2,Win32,59.93048064,,,,,,,,,,,,,,,,,,masks/mask_003.jpg,,,,,,,,,,,,,,,,,,,,,,,,,,,,,,,,,,,,,,,,,,,,,,,,0,3,3,2,1,,,,,,,,,,,,,,,,,,,,,,,,,,,,,,,,,,,,,,,,,
050853,001,2022-11-21_02h30.34.133,Info_measure_main_exp,2022.2.2,Win32,59.93048064,,,,,,,,,,,,,,,,,,masks/mask_004.jpg,,,,,,,,,,,,,,,,,,,,,,,,,,,,,,,,,,,,,,,,,,,,,,,,0,4,4,3,1,,,,,,,,,,,,,,,,,,,,,,,,,,,,,,,,,,,,,,,,,
050853,001,2022-11-21_02h30.34.133,Info_measure_main_exp,2022.2.2,Win32,59.93048064,,,,,,,,,,,,,,,,,,,,,,,,,,,,,,6,1.1502,1,,,,,,,,,,,,0,131,5,5,2082,2166,absent_patch/patch0002082.jpg,absent_patch/patch0002166.jpg,,,,,,,,,,,,,,,,,,,,0.080743496,0.03105057,1,0,0,response1disk,20,-0.013601378,-0.003172575,1,0,0,center_square,0,19,19,43,1,,,,,,,,,,,,,,,,,,,,,,,
050853,001,2022-11-21_02h30.34.133,Info_measure_main_exp,2022.2.2,Win32,59.93048064,,,,,,,,,,,,,,,,,,masks/mask_005.jpg,,,,,,,,,,,,,,,,,,,,,,,,,,,,,,,,,,,,,,,,,,,0,0,0,4,1,,,,,,,,,,,,,,,,,,,,,,,,,,,,,,,,,,,,,,,,,,,,,,
050853,001,2022-11-21_02h30.34.133,Info_measure_main_exp,2022.2.2,Win32,59.93048064,,,,,,,,,,,,,,,,,,masks/mask_003.jpg,,,,,,,,,,,,,,,,,,,,,,,,,,,,,,,,,,,,,,,,,,,0,1,1,2,1,,,,,,,,,,,,,,,,,,,,,,,,,,,,,,,,,,,,,,,,,,,,,,
050853,001,2022-11-21_02h30.34.133,Info_measure_main_exp,2022.2.2,Win32,59.93048064,,,,,,,,,,,,,,,,,,masks/mask_002.jpg,,,,,,,,,,,,,,,,,,,,,,,,,,,,,,,,,,,,,,,,,,,0,2,2,1,1,,,,,,,,,,,,,,,,,,,,,,,,,,,,,,,,,,,,,,,,,,,,,,
050853,001,2022-11-21_02h30.34.133,Info_measure_main_exp,2022.2.2,Win32,59.93048064,,,,,,,,,,,,,,,,,,masks/mask_004.jpg,,,,,,,,,,,,,,,,,,,,,,,,,,,,,,,,,,,,,,,,,,,0,3,3,3,1,,,,,,,,,,,,,,,,,,,,,,,,,,,,,,,,,,,,,,,,,,,,,,
050853,001,2022-11-21_02h30.34.133,Info_measure_main_exp,2022.2.2,Win32,59.93048064,,,,,,,,,,,,,,,,,,masks/mask_001.jpg,,,,,,,,,,,,,,,,,,,,,,,,,,,,,,,,,,,,,,,,,,,0,4,4,0,1,,,,,,,,,,,,,,,,,,,,,,,,,,,,,,,,,,,,,,,,,,,,,,
050853,001,2022-11-21_02h30.34.133,Info_measure_main_exp,2022.2.2,Win32,59.93048064,,,,,,,,,,,,,,,,,,masks/mask_005.jpg,,,,,,,,,,,,,,,,,,,,,,,,,,,,,,,,,,,,,,,,,,,,,,,,0,0,0,4,1,,,,,,,,,,,,,,,,,,,,,,,,,,,,,,,,,,,,,,,,,
050853,001,2022-11-21_02h30.34.133,Info_measure_main_exp,2022.2.2,Win32,59.93048064,,,,,,,,,,,,,,,,,,masks/mask_002.jpg,,,,,,,,,,,,,,,,,,,,,,,,,,,,,,,,,,,,,,,,,,,,,,,,0,1,1,1,1,,,,,,,,,,,,,,,,,,,,,,,,,,,,,,,,,,,,,,,,,
050853,001,2022-11-21_02h30.34.133,Info_measure_main_exp,2022.2.2,Win32,59.93048064,,,,,,,,,,,,,,,,,,masks/mask_001.jpg,,,,,,,,,,,,,,,,,,,,,,,,,,,,,,,,,,,,,,,,,,,,,,,,0,2,2,0,1,,,,,,,,,,,,,,,,,,,,,,,,,,,,,,,,,,,,,,,,,
050853,001,2022-11-21_02h30.34.133,Info_measure_main_exp,2022.2.2,Win32,59.93048064,,,,,,,,,,,,,,,,,,masks/mask_004.jpg,,,,,,,,,,,,,,,,,,,,,,,,,,,,,,,,,,,,,,,,,,,,,,,,0,3,3,3,1,,,,,,,,,,,,,,,,,,,,,,,,,,,,,,,,,,,,,,,,,
050853,001,2022-11-21_02h30.34.133,Info_measure_main_exp,2022.2.2,Win32,59.93048064,,,,,,,,,,,,,,,,,,masks/mask_003.jpg,,,,,,,,,,,,,,,,,,,,,,,,,,,,,,,,,,,,,,,,,,,,,,,,0,4,4,2,1,,,,,,,,,,,,,,,,,,,,,,,,,,,,,,,,,,,,,,,,,
050853,001,2022-11-21_02h30.34.133,Info_measure_main_exp,2022.2.2,Win32,59.93048064,,,,,,,,,,,,,,,,,,,,,,,,,,,,,,7,1.2502,1,,,,,,,,,,,,0,131,5,5,2250,2166,absent_patch/patch0002250.jpg,absent_patch/patch0002166.jpg,,,,,,,,,,,,,,,,,,,,0.049295163,0.093022184,1,0,0,response1disk,21,-0.005276846,-0.002247616,1,0,0,center_square,0,20,20,60,1,,,,,,,,,,,,,,,,,,,,,,,
050853,001,2022-11-21_02h30.34.133,Info_measure_main_exp,2022.2.2,Win32,59.93048064,,,,,,,,,,,,,,,,,,masks/mask_001.jpg,,,,,,,,,,,,,,,,,,,,,,,,,,,,,,,,,,,,,,,,,,,0,0,0,0,1,,,,,,,,,,,,,,,,,,,,,,,,,,,,,,,,,,,,,,,,,,,,,,
050853,001,2022-11-21_02h30.34.133,Info_measure_main_exp,2022.2.2,Win32,59.93048064,,,,,,,,,,,,,,,,,,masks/mask_004.jpg,,,,,,,,,,,,,,,,,,,,,,,,,,,,,,,,,,,,,,,,,,,0,1,1,3,1,,,,,,,,,,,,,,,,,,,,,,,,,,,,,,,,,,,,,,,,,,,,,,
050853,001,2022-11-21_02h30.34.133,Info_measure_main_exp,2022.2.2,Win32,59.93048064,,,,,,,,,,,,,,,,,,masks/mask_003.jpg,,,,,,,,,,,,,,,,,,,,,,,,,,,,,,,,,,,,,,,,,,,0,2,2,2,1,,,,,,,,,,,,,,,,,,,,,,,,,,,,,,,,,,,,,,,,,,,,,,
050853,001,2022-11-21_02h30.34.133,Info_measure_main_exp,2022.2.2,Win32,59.93048064,,,,,,,,,,,,,,,,,,masks/mask_002.jpg,,,,,,,,,,,,,,,,,,,,,,,,,,,,,,,,,,,,,,,,,,,0,3,3,1,1,,,,,,,,,,,,,,,,,,,,,,,,,,,,,,,,,,,,,,,,,,,,,,
050853,001,2022-11-21_02h30.34.133,Info_measure_main_exp,2022.2.2,Win32,59.93048064,,,,,,,,,,,,,,,,,,masks/mask_005.jpg,,,,,,,,,,,,,,,,,,,,,,,,,,,,,,,,,,,,,,,,,,,0,4,4,4,1,,,,,,,,,,,,,,,,,,,,,,,,,,,,,,,,,,,,,,,,,,,,,,
050853,001,2022-11-21_02h30.34.133,Info_measure_main_exp,2022.2.2,Win32,59.93048064,,,,,,,,,,,,,,,,,,masks/mask_005.jpg,,,,,,,,,,,,,,,,,,,,,,,,,,,,,,,,,,,,,,,,,,,,,,,,0,0,0,4,1,,,,,,,,,,,,,,,,,,,,,,,,,,,,,,,,,,,,,,,,,
050853,001,2022-11-21_02h30.34.133,Info_measure_main_exp,2022.2.2,Win32,59.93048064,,,,,,,,,,,,,,,,,,masks/mask_002.jpg,,,,,,,,,,,,,,,,,,,,,,,,,,,,,,,,,,,,,,,,,,,,,,,,0,1,1,1,1,,,,,,,,,,,,,,,,,,,,,,,,,,,,,,,,,,,,,,,,,
050853,001,2022-11-21_02h30.34.133,Info_measure_main_exp,2022.2.2,Win32,59.93048064,,,,,,,,,,,,,,,,,,masks/mask_003.jpg,,,,,,,,,,,,,,,,,,,,,,,,,,,,,,,,,,,,,,,,,,,,,,,,0,2,2,2,1,,,,,,,,,,,,,,,,,,,,,,,,,,,,,,,,,,,,,,,,,
050853,001,2022-11-21_02h30.34.133,Info_measure_main_exp,2022.2.2,Win32,59.93048064,,,,,,,,,,,,,,,,,,masks/mask_004.jpg,,,,,,,,,,,,,,,,,,,,,,,,,,,,,,,,,,,,,,,,,,,,,,,,0,3,3,3,1,,,,,,,,,,,,,,,,,,,,,,,,,,,,,,,,,,,,,,,,,
050853,001,2022-11-21_02h30.34.133,Info_measure_main_exp,2022.2.2,Win32,59.93048064,,,,,,,,,,,,,,,,,,masks/mask_001.jpg,,,,,,,,,,,,,,,,,,,,,,,,,,,,,,,,,,,,,,,,,,,,,,,,0,4,4,0,1,,,,,,,,,,,,,,,,,,,,,,,,,,,,,,,,,,,,,,,,,
050853,001,2022-11-21_02h30.34.133,Info_measure_main_exp,2022.2.2,Win32,59.93048064,,,,,,,,,,,,,,,,,,,,,,,,,,,,,,7,1.05,1,,,,,,,,,,,,0,131,5,5,1974,2166,absent_patch/patch0001974.jpg,absent_patch/patch0002166.jpg,,,,,,,,,,,,,,,,,,,,0.029871257,0.074523174,1,0,0,response1disk,22,-0.001577013,0.007001873,1,0,0,center_square,0,21,21,77,1,,,,,,,,,,,,,,,,,,,,,,,
050853,001,2022-11-21_02h30.34.133,Info_measure_main_exp,2022.2.2,Win32,59.93048064,,,,,,,,,,,,,,,,,,masks/mask_001.jpg,,,,,,,,,,,,,,,,,,,,,,,,,,,,,,,,,,,,,,,,,,,0,0,0,0,1,,,,,,,,,,,,,,,,,,,,,,,,,,,,,,,,,,,,,,,,,,,,,,
050853,001,2022-11-21_02h30.34.133,Info_measure_main_exp,2022.2.2,Win32,59.93048064,,,,,,,,,,,,,,,,,,masks/mask_003.jpg,,,,,,,,,,,,,,,,,,,,,,,,,,,,,,,,,,,,,,,,,,,0,1,1,2,1,,,,,,,,,,,,,,,,,,,,,,,,,,,,,,,,,,,,,,,,,,,,,,
050853,001,2022-11-21_02h30.34.133,Info_measure_main_exp,2022.2.2,Win32,59.93048064,,,,,,,,,,,,,,,,,,masks/mask_002.jpg,,,,,,,,,,,,,,,,,,,,,,,,,,,,,,,,,,,,,,,,,,,0,2,2,1,1,,,,,,,,,,,,,,,,,,,,,,,,,,,,,,,,,,,,,,,,,,,,,,
050853,001,2022-11-21_02h30.34.133,Info_measure_main_exp,2022.2.2,Win32,59.93048064,,,,,,,,,,,,,,,,,,masks/mask_004.jpg,,,,,,,,,,,,,,,,,,,,,,,,,,,,,,,,,,,,,,,,,,,0,3,3,3,1,,,,,,,,,,,,,,,,,,,,,,,,,,,,,,,,,,,,,,,,,,,,,,
050853,001,2022-11-21_02h30.34.133,Info_measure_main_exp,2022.2.2,Win32,59.93048064,,,,,,,,,,,,,,,,,,masks/mask_005.jpg,,,,,,,,,,,,,,,,,,,,,,,,,,,,,,,,,,,,,,,,,,,0,4,4,4,1,,,,,,,,,,,,,,,,,,,,,,,,,,,,,,,,,,,,,,,,,,,,,,
050853,001,2022-11-21_02h30.34.133,Info_measure_main_exp,2022.2.2,Win32,59.93048064,,,,,,,,,,,,,,,,,,masks/mask_002.jpg,,,,,,,,,,,,,,,,,,,,,,,,,,,,,,,,,,,,,,,,,,,,,,,,0,0,0,1,1,,,,,,,,,,,,,,,,,,,,,,,,,,,,,,,,,,,,,,,,,
050853,001,2022-11-21_02h30.34.133,Info_measure_main_exp,2022.2.2,Win32,59.93048064,,,,,,,,,,,,,,,,,,masks/mask_001.jpg,,,,,,,,,,,,,,,,,,,,,,,,,,,,,,,,,,,,,,,,,,,,,,,,0,1,1,0,1,,,,,,,,,,,,,,,,,,,,,,,,,,,,,,,,,,,,,,,,,
050853,001,2022-11-21_02h30.34.133,Info_measure_main_exp,2022.2.2,Win32,59.93048064,,,,,,,,,,,,,,,,,,masks/mask_005.jpg,,,,,,,,,,,,,,,,,,,,,,,,,,,,,,,,,,,,,,,,,,,,,,,,0,2,2,4,1,,,,,,,,,,,,,,,,,,,,,,,,,,,,,,,,,,,,,,,,,
050853,001,2022-11-21_02h30.34.133,Info_measure_main_exp,2022.2.2,Win32,59.93048064,,,,,,,,,,,,,,,,,,masks/mask_003.jpg,,,,,,,,,,,,,,,,,,,,,,,,,,,,,,,,,,,,,,,,,,,,,,,,0,3,3,2,1,,,,,,,,,,,,,,,,,,,,,,,,,,,,,,,,,,,,,,,,,
050853,001,2022-11-21_02h30.34.133,Info_measure_main_exp,2022.2.2,Win32,59.93048064,,,,,,,,,,,,,,,,,,masks/mask_004.jpg,,,,,,,,,,,,,,,,,,,,,,,,,,,,,,,,,,,,,,,,,,,,,,,,0,4,4,3,1,,,,,,,,,,,,,,,,,,,,,,,,,,,,,,,,,,,,,,,,,
050853,001,2022-11-21_02h30.34.133,Info_measure_main_exp,2022.2.2,Win32,59.93048064,,,,,,,,,,,,,,,,,,,,,,,,,,,,,,0,0.7835,1,,,,,,,,,,,,0,131,5,5,2250,2250,absent_patch/patch0002250.jpg,absent_patch/patch0002250.jpg,,,,,,,,,,,,,,,,,,,,-0.03949996,0.096721986,1,0,0,response7disk,23,-0.00342693,-0.000397731,1,0,0,center_square,0,22,22,56,1,,,,,,,,,,,,,,,,,,,,,,,
050853,001,2022-11-21_02h30.34.133,Info_measure_main_exp,2022.2.2,Win32,59.93048064,,,,,,,,,,,,,,,,,,masks/mask_004.jpg,,,,,,,,,,,,,,,,,,,,,,,,,,,,,,,,,,,,,,,,,,,0,0,0,3,1,,,,,,,,,,,,,,,,,,,,,,,,,,,,,,,,,,,,,,,,,,,,,,
050853,001,2022-11-21_02h30.34.133,Info_measure_main_exp,2022.2.2,Win32,59.93048064,,,,,,,,,,,,,,,,,,masks/mask_005.jpg,,,,,,,,,,,,,,,,,,,,,,,,,,,,,,,,,,,,,,,,,,,0,1,1,4,1,,,,,,,,,,,,,,,,,,,,,,,,,,,,,,,,,,,,,,,,,,,,,,
050853,001,2022-11-21_02h30.34.133,Info_measure_main_exp,2022.2.2,Win32,59.93048064,,,,,,,,,,,,,,,,,,masks/mask_003.jpg,,,,,,,,,,,,,,,,,,,,,,,,,,,,,,,,,,,,,,,,,,,0,2,2,2,1,,,,,,,,,,,,,,,,,,,,,,,,,,,,,,,,,,,,,,,,,,,,,,
050853,001,2022-11-21_02h30.34.133,Info_measure_main_exp,2022.2.2,Win32,59.93048064,,,,,,,,,,,,,,,,,,masks/mask_001.jpg,,,,,,,,,,,,,,,,,,,,,,,,,,,,,,,,,,,,,,,,,,,0,3,3,0,1,,,,,,,,,,,,,,,,,,,,,,,,,,,,,,,,,,,,,,,,,,,,,,
050853,001,2022-11-21_02h30.34.133,Info_measure_main_exp,2022.2.2,Win32,59.93048064,,,,,,,,,,,,,,,,,,masks/mask_002.jpg,,,,,,,,,,,,,,,,,,,,,,,,,,,,,,,,,,,,,,,,,,,0,4,4,1,1,,,,,,,,,,,,,,,,,,,,,,,,,,,,,,,,,,,,,,,,,,,,,,
050853,001,2022-11-21_02h30.34.133,Info_measure_main_exp,2022.2.2,Win32,59.93048064,,,,,,,,,,,,,,,,,,masks/mask_004.jpg,,,,,,,,,,,,,,,,,,,,,,,,,,,,,,,,,,,,,,,,,,,,,,,,0,0,0,3,1,,,,,,,,,,,,,,,,,,,,,,,,,,,,,,,,,,,,,,,,,
050853,001,2022-11-21_02h30.34.133,Info_measure_main_exp,2022.2.2,Win32,59.93048064,,,,,,,,,,,,,,,,,,masks/mask_005.jpg,,,,,,,,,,,,,,,,,,,,,,,,,,,,,,,,,,,,,,,,,,,,,,,,0,1,1,4,1,,,,,,,,,,,,,,,,,,,,,,,,,,,,,,,,,,,,,,,,,
050853,001,2022-11-21_02h30.34.133,Info_measure_main_exp,2022.2.2,Win32,59.93048064,,,,,,,,,,,,,,,,,,masks/mask_003.jpg,,,,,,,,,,,,,,,,,,,,,,,,,,,,,,,,,,,,,,,,,,,,,,,,0,2,2,2,1,,,,,,,,,,,,,,,,,,,,,,,,,,,,,,,,,,,,,,,,,
050853,001,2022-11-21_02h30.34.133,Info_measure_main_exp,2022.2.2,Win32,59.93048064,,,,,,,,,,,,,,,,,,masks/mask_001.jpg,,,,,,,,,,,,,,,,,,,,,,,,,,,,,,,,,,,,,,,,,,,,,,,,0,3,3,0,1,,,,,,,,,,,,,,,,,,,,,,,,,,,,,,,,,,,,,,,,,
050853,001,2022-11-21_02h30.34.133,Info_measure_main_exp,2022.2.2,Win32,59.93048064,,,,,,,,,,,,,,,,,,masks/mask_002.jpg,,,,,,,,,,,,,,,,,,,,,,,,,,,,,,,,,,,,,,,,,,,,,,,,0,4,4,1,1,,,,,,,,,,,,,,,,,,,,,,,,,,,,,,,,,,,,,,,,,
050853,001,2022-11-21_02h30.34.133,Info_measure_main_exp,2022.2.2,Win32,59.93048064,,,,,,,,,,,,,,,,,,,,,,,,,,,,,,6,1.0668,1,,,,,,,,,,,,0,131,5,5,2142,2082,absent_patch/patch0002142.jpg,absent_patch/patch0002082.jpg,,,,,,,,,,,,,,,,,,,,0.066869215,0.031975466,1,0,0,response1disk,24,0.000272841,-0.004097533,1,0,0,center_square,0,23,23,88,1,,,,,,,,,,,,,,,,,,,,,,,
050853,001,2022-11-21_02h30.34.133,Info_measure_main_exp,2022.2.2,Win32,59.93048064,,,,,,,,,,,,,,,,,,masks/mask_003.jpg,,,,,,,,,,,,,,,,,,,,,,,,,,,,,,,,,,,,,,,,,,,0,0,0,2,1,,,,,,,,,,,,,,,,,,,,,,,,,,,,,,,,,,,,,,,,,,,,,,
050853,001,2022-11-21_02h30.34.133,Info_measure_main_exp,2022.2.2,Win32,59.93048064,,,,,,,,,,,,,,,,,,masks/mask_005.jpg,,,,,,,,,,,,,,,,,,,,,,,,,,,,,,,,,,,,,,,,,,,0,1,1,4,1,,,,,,,,,,,,,,,,,,,,,,,,,,,,,,,,,,,,,,,,,,,,,,
050853,001,2022-11-21_02h30.34.133,Info_measure_main_exp,2022.2.2,Win32,59.93048064,,,,,,,,,,,,,,,,,,masks/mask_002.jpg,,,,,,,,,,,,,,,,,,,,,,,,,,,,,,,,,,,,,,,,,,,0,2,2,1,1,,,,,,,,,,,,,,,,,,,,,,,,,,,,,,,,,,,,,,,,,,,,,,
050853,001,2022-11-21_02h30.34.133,Info_measure_main_exp,2022.2.2,Win32,59.93048064,,,,,,,,,,,,,,,,,,masks/mask_004.jpg,,,,,,,,,,,,,,,,,,,,,,,,,,,,,,,,,,,,,,,,,,,0,3,3,3,1,,,,,,,,,,,,,,,,,,,,,,,,,,,,,,,,,,,,,,,,,,,,,,
050853,001,2022-11-21_02h30.34.133,Info_measure_main_exp,2022.2.2,Win32,59.93048064,,,,,,,,,,,,,,,,,,masks/mask_001.jpg,,,,,,,,,,,,,,,,,,,,,,,,,,,,,,,,,,,,,,,,,,,0,4,4,0,1,,,,,,,,,,,,,,,,,,,,,,,,,,,,,,,,,,,,,,,,,,,,,,
050853,001,2022-11-21_02h30.34.133,Info_measure_main_exp,2022.2.2,Win32,59.93048064,,,,,,,,,,,,,,,,,,masks/mask_005.jpg,,,,,,,,,,,,,,,,,,,,,,,,,,,,,,,,,,,,,,,,,,,,,,,,0,0,0,4,1,,,,,,,,,,,,,,,,,,,,,,,,,,,,,,,,,,,,,,,,,
050853,001,2022-11-21_02h30.34.133,Info_measure_main_exp,2022.2.2,Win32,59.93048064,,,,,,,,,,,,,,,,,,masks/mask_002.jpg,,,,,,,,,,,,,,,,,,,,,,,,,,,,,,,,,,,,,,,,,,,,,,,,0,1,1,1,1,,,,,,,,,,,,,,,,,,,,,,,,,,,,,,,,,,,,,,,,,
050853,001,2022-11-21_02h30.34.133,Info_measure_main_exp,2022.2.2,Win32,59.93048064,,,,,,,,,,,,,,,,,,masks/mask_003.jpg,,,,,,,,,,,,,,,,,,,,,,,,,,,,,,,,,,,,,,,,,,,,,,,,0,2,2,2,1,,,,,,,,,,,,,,,,,,,,,,,,,,,,,,,,,,,,,,,,,
050853,001,2022-11-21_02h30.34.133,Info_measure_main_exp,2022.2.2,Win32,59.93048064,,,,,,,,,,,,,,,,,,masks/mask_004.jpg,,,,,,,,,,,,,,,,,,,,,,,,,,,,,,,,,,,,,,,,,,,,,,,,0,3,3,3,1,,,,,,,,,,,,,,,,,,,,,,,,,,,,,,,,,,,,,,,,,
050853,001,2022-11-21_02h30.34.133,Info_measure_main_exp,2022.2.2,Win32,59.93048064,,,,,,,,,,,,,,,,,,masks/mask_001.jpg,,,,,,,,,,,,,,,,,,,,,,,,,,,,,,,,,,,,,,,,,,,,,,,,0,4,4,0,1,,,,,,,,,,,,,,,,,,,,,,,,,,,,,,,,,,,,,,,,,
050853,001,2022-11-21_02h30.34.133,Info_measure_main_exp,2022.2.2,Win32,59.93048064,,,,,,,,,,,,,,,,,,,,,,,,,,,,,,0,0.5835,1,,,,,,,,,,,,0,131,5,5,1986,1986,absent_patch/patch0001986.jpg,absent_patch/patch0001986.jpg,,,,,,,,,,,,,,,,,,,,-0.029325513,0.10412159,1,0,0,response7disk,25,0.005822528,-0.008722262,1,0,0,center_square,0,24,24,19,1,,,,,,,,,,,,,,,,,,,,,,,
050853,001,2022-11-21_02h30.34.133,Info_measure_main_exp,2022.2.2,Win32,59.93048064,,,,,,,,,,,,,,,,,,masks/mask_005.jpg,,,,,,,,,,,,,,,,,,,,,,,,,,,,,,,,,,,,,,,,,,,0,0,0,4,1,,,,,,,,,,,,,,,,,,,,,,,,,,,,,,,,,,,,,,,,,,,,,,
050853,001,2022-11-21_02h30.34.133,Info_measure_main_exp,2022.2.2,Win32,59.93048064,,,,,,,,,,,,,,,,,,masks/mask_004.jpg,,,,,,,,,,,,,,,,,,,,,,,,,,,,,,,,,,,,,,,,,,,0,1,1,3,1,,,,,,,,,,,,,,,,,,,,,,,,,,,,,,,,,,,,,,,,,,,,,,
050853,001,2022-11-21_02h30.34.133,Info_measure_main_exp,2022.2.2,Win32,59.93048064,,,,,,,,,,,,,,,,,,masks/mask_003.jpg,,,,,,,,,,,,,,,,,,,,,,,,,,,,,,,,,,,,,,,,,,,0,2,2,2,1,,,,,,,,,,,,,,,,,,,,,,,,,,,,,,,,,,,,,,,,,,,,,,
050853,001,2022-11-21_02h30.34.133,Info_measure_main_exp,2022.2.2,Win32,59.93048064,,,,,,,,,,,,,,,,,,masks/mask_002.jpg,,,,,,,,,,,,,,,,,,,,,,,,,,,,,,,,,,,,,,,,,,,0,3,3,1,1,,,,,,,,,,,,,,,,,,,,,,,,,,,,,,,,,,,,,,,,,,,,,,
050853,001,2022-11-21_02h30.34.133,Info_measure_main_exp,2022.2.2,Win32,59.93048064,,,,,,,,,,,,,,,,,,masks/mask_001.jpg,,,,,,,,,,,,,,,,,,,,,,,,,,,,,,,,,,,,,,,,,,,0,4,4,0,1,,,,,,,,,,,,,,,,,,,,,,,,,,,,,,,,,,,,,,,,,,,,,,
050853,001,2022-11-21_02h30.34.133,Info_measure_main_exp,2022.2.2,Win32,59.93048064,,,,,,,,,,,,,,,,,,masks/mask_003.jpg,,,,,,,,,,,,,,,,,,,,,,,,,,,,,,,,,,,,,,,,,,,,,,,,0,0,0,2,1,,,,,,,,,,,,,,,,,,,,,,,,,,,,,,,,,,,,,,,,,
050853,001,2022-11-21_02h30.34.133,Info_measure_main_exp,2022.2.2,Win32,59.93048064,,,,,,,,,,,,,,,,,,masks/mask_002.jpg,,,,,,,,,,,,,,,,,,,,,,,,,,,,,,,,,,,,,,,,,,,,,,,,0,1,1,1,1,,,,,,,,,,,,,,,,,,,,,,,,,,,,,,,,,,,,,,,,,
050853,001,2022-11-21_02h30.34.133,Info_measure_main_exp,2022.2.2,Win32,59.93048064,,,,,,,,,,,,,,,,,,masks/mask_001.jpg,,,,,,,,,,,,,,,,,,,,,,,,,,,,,,,,,,,,,,,,,,,,,,,,0,2,2,0,1,,,,,,,,,,,,,,,,,,,,,,,,,,,,,,,,,,,,,,,,,
050853,001,2022-11-21_02h30.34.133,Info_measure_main_exp,2022.2.2,Win32,59.93048064,,,,,,,,,,,,,,,,,,masks/mask_005.jpg,,,,,,,,,,,,,,,,,,,,,,,,,,,,,,,,,,,,,,,,,,,,,,,,0,3,3,4,1,,,,,,,,,,,,,,,,,,,,,,,,,,,,,,,,,,,,,,,,,
050853,001,2022-11-21_02h30.34.133,Info_measure_main_exp,2022.2.2,Win32,59.93048064,,,,,,,,,,,,,,,,,,masks/mask_004.jpg,,,,,,,,,,,,,,,,,,,,,,,,,,,,,,,,,,,,,,,,,,,,,,,,0,4,4,3,1,,,,,,,,,,,,,,,,,,,,,,,,,,,,,,,,,,,,,,,,,
050853,001,2022-11-21_02h30.34.133,Info_measure_main_exp,2022.2.2,Win32,59.93048064,,,,,,,,,,,,,,,,,,,,,,,,,,,,,,6,1.5834,1,,,,,,,,,,,,0,131,5,5,2250,2178,absent_patch/patch0002250.jpg,absent_patch/patch0002178.jpg,,,,,,,,,,,,,,,,,,,,0.142715109,0.022726008,1,0,0,response1disk,26,-0.006201773,0.002377113,1,0,0,center_square,0,25,25,48,1,,,,,,,,,,,,,,,,,,,,,,,
050853,001,2022-11-21_02h30.34.133,Info_measure_main_exp,2022.2.2,Win32,59.93048064,,,,,,,,,,,,,,,,,,masks/mask_005.jpg,,,,,,,,,,,,,,,,,,,,,,,,,,,,,,,,,,,,,,,,,,,0,0,0,4,1,,,,,,,,,,,,,,,,,,,,,,,,,,,,,,,,,,,,,,,,,,,,,,
050853,001,2022-11-21_02h30.34.133,Info_measure_main_exp,2022.2.2,Win32,59.93048064,,,,,,,,,,,,,,,,,,masks/mask_002.jpg,,,,,,,,,,,,,,,,,,,,,,,,,,,,,,,,,,,,,,,,,,,0,1,1,1,1,,,,,,,,,,,,,,,,,,,,,,,,,,,,,,,,,,,,,,,,,,,,,,
050853,001,2022-11-21_02h30.34.133,Info_measure_main_exp,2022.2.2,Win32,59.93048064,,,,,,,,,,,,,,,,,,masks/mask_003.jpg,,,,,,,,,,,,,,,,,,,,,,,,,,,,,,,,,,,,,,,,,,,0,2,2,2,1,,,,,,,,,,,,,,,,,,,,,,,,,,,,,,,,,,,,,,,,,,,,,,
050853,001,2022-11-21_02h30.34.133,Info_measure_main_exp,2022.2.2,Win32,59.93048064,,,,,,,,,,,,,,,,,,masks/mask_004.jpg,,,,,,,,,,,,,,,,,,,,,,,,,,,,,,,,,,,,,,,,,,,0,3,3,3,1,,,,,,,,,,,,,,,,,,,,,,,,,,,,,,,,,,,,,,,,,,,,,,
050853,001,2022-11-21_02h30.34.133,Info_measure_main_exp,2022.2.2,Win32,59.93048064,,,,,,,,,,,,,,,,,,masks/mask_001.jpg,,,,,,,,,,,,,,,,,,,,,,,,,,,,,,,,,,,,,,,,,,,0,4,4,0,1,,,,,,,,,,,,,,,,,,,,,,,,,,,,,,,,,,,,,,,,,,,,,,
050853,001,2022-11-21_02h30.34.133,Info_measure_main_exp,2022.2.2,Win32,59.93048064,,,,,,,,,,,,,,,,,,masks/mask_005.jpg,,,,,,,,,,,,,,,,,,,,,,,,,,,,,,,,,,,,,,,,,,,,,,,,0,0,0,4,1,,,,,,,,,,,,,,,,,,,,,,,,,,,,,,,,,,,,,,,,,
050853,001,2022-11-21_02h30.34.133,Info_measure_main_exp,2022.2.2,Win32,59.93048064,,,,,,,,,,,,,,,,,,masks/mask_001.jpg,,,,,,,,,,,,,,,,,,,,,,,,,,,,,,,,,,,,,,,,,,,,,,,,0,1,1,0,1,,,,,,,,,,,,,,,,,,,,,,,,,,,,,,,,,,,,,,,,,
050853,001,2022-11-21_02h30.34.133,Info_measure_main_exp,2022.2.2,Win32,59.93048064,,,,,,,,,,,,,,,,,,masks/mask_004.jpg,,,,,,,,,,,,,,,,,,,,,,,,,,,,,,,,,,,,,,,,,,,,,,,,0,2,2,3,1,,,,,,,,,,,,,,,,,,,,,,,,,,,,,,,,,,,,,,,,,
050853,001,2022-11-21_02h30.34.133,Info_measure_main_exp,2022.2.2,Win32,59.93048064,,,,,,,,,,,,,,,,,,masks/mask_003.jpg,,,,,,,,,,,,,,,,,,,,,,,,,,,,,,,,,,,,,,,,,,,,,,,,0,3,3,2,1,,,,,,,,,,,,,,,,,,,,,,,,,,,,,,,,,,,,,,,,,
050853,001,2022-11-21_02h30.34.133,Info_measure_main_exp,2022.2.2,Win32,59.93048064,,,,,,,,,,,,,,,,,,masks/mask_002.jpg,,,,,,,,,,,,,,,,,,,,,,,,,,,,,,,,,,,,,,,,,,,,,,,,0,4,4,1,1,,,,,,,,,,,,,,,,,,,,,,,,,,,,,,,,,,,,,,,,,
050853,001,2022-11-21_02h30.34.133,Info_measure_main_exp,2022.2.2,Win32,59.93048064,,,,,,,,,,,,,,,,,,,,,,,,,,,,,,6,1.1668,1,,,,,,,,,,,,0,131,5,5,2238,2166,absent_patch/patch0002238.jpg,absent_patch/patch0002166.jpg,,,,,,,,,,,,,,,,,,,,0.126990974,0.02180105,1,0,0,response1disk,27,0.002122758,-0.001322689,1,0,0,center_square,0,26,26,118,1,,,,,,,,,,,,,,,,,,,,,,,
050853,001,2022-11-21_02h30.34.133,Info_measure_main_exp,2022.2.2,Win32,59.93048064,,,,,,,,,,,,,,,,,,masks/mask_005.jpg,,,,,,,,,,,,,,,,,,,,,,,,,,,,,,,,,,,,,,,,,,,0,0,0,4,1,,,,,,,,,,,,,,,,,,,,,,,,,,,,,,,,,,,,,,,,,,,,,,
050853,001,2022-11-21_02h30.34.133,Info_measure_main_exp,2022.2.2,Win32,59.93048064,,,,,,,,,,,,,,,,,,masks/mask_001.jpg,,,,,,,,,,,,,,,,,,,,,,,,,,,,,,,,,,,,,,,,,,,0,1,1,0,1,,,,,,,,,,,,,,,,,,,,,,,,,,,,,,,,,,,,,,,,,,,,,,
050853,001,2022-11-21_02h30.34.133,Info_measure_main_exp,2022.2.2,Win32,59.93048064,,,,,,,,,,,,,,,,,,masks/mask_002.jpg,,,,,,,,,,,,,,,,,,,,,,,,,,,,,,,,,,,,,,,,,,,0,2,2,1,1,,,,,,,,,,,,,,,,,,,,,,,,,,,,,,,,,,,,,,,,,,,,,,
050853,001,2022-11-21_02h30.34.133,Info_measure_main_exp,2022.2.2,Win32,59.93048064,,,,,,,,,,,,,,,,,,masks/mask_004.jpg,,,,,,,,,,,,,,,,,,,,,,,,,,,,,,,,,,,,,,,,,,,0,3,3,3,1,,,,,,,,,,,,,,,,,,,,,,,,,,,,,,,,,,,,,,,,,,,,,,
050853,001,2022-11-21_02h30.34.133,Info_measure_main_exp,2022.2.2,Win32,59.93048064,,,,,,,,,,,,,,,,,,masks/mask_003.jpg,,,,,,,,,,,,,,,,,,,,,,,,,,,,,,,,,,,,,,,,,,,0,4,4,2,1,,,,,,,,,,,,,,,,,,,,,,,,,,,,,,,,,,,,,,,,,,,,,,
050853,001,2022-11-21_02h30.34.133,Info_measure_main_exp,2022.2.2,Win32,59.93048064,,,,,,,,,,,,,,,,,,masks/mask_004.jpg,,,,,,,,,,,,,,,,,,,,,,,,,,,,,,,,,,,,,,,,,,,,,,,,0,0,0,3,1,,,,,,,,,,,,,,,,,,,,,,,,,,,,,,,,,,,,,,,,,
050853,001,2022-11-21_02h30.34.133,Info_measure_main_exp,2022.2.2,Win32,59.93048064,,,,,,,,,,,,,,,,,,masks/mask_005.jpg,,,,,,,,,,,,,,,,,,,,,,,,,,,,,,,,,,,,,,,,,,,,,,,,0,1,1,4,1,,,,,,,,,,,,,,,,,,,,,,,,,,,,,,,,,,,,,,,,,
050853,001,2022-11-21_02h30.34.133,Info_measure_main_exp,2022.2.2,Win32,59.93048064,,,,,,,,,,,,,,,,,,masks/mask_001.jpg,,,,,,,,,,,,,,,,,,,,,,,,,,,,,,,,,,,,,,,,,,,,,,,,0,2,2,0,1,,,,,,,,,,,,,,,,,,,,,,,,,,,,,,,,,,,,,,,,,
050853,001,2022-11-21_02h30.34.133,Info_measure_main_exp,2022.2.2,Win32,59.93048064,,,,,,,,,,,,,,,,,,masks/mask_002.jpg,,,,,,,,,,,,,,,,,,,,,,,,,,,,,,,,,,,,,,,,,,,,,,,,0,3,3,1,1,,,,,,,,,,,,,,,,,,,,,,,,,,,,,,,,,,,,,,,,,
050853,001,2022-11-21_02h30.34.133,Info_measure_main_exp,2022.2.2,Win32,59.93048064,,,,,,,,,,,,,,,,,,masks/mask_003.jpg,,,,,,,,,,,,,,,,,,,,,,,,,,,,,,,,,,,,,,,,,,,,,,,,0,4,4,2,1,,,,,,,,,,,,,,,,,,,,,,,,,,,,,,,,,,,,,,,,,
050853,001,2022-11-21_02h30.34.133,Info_measure_main_exp,2022.2.2,Win32,59.93048064,,,,,,,,,,,,,,,,,,,,,,,,,,,,,,0,0.7002,1,,,,,,,,,,,,0,131,5,5,2166,2166,absent_patch/patch0002166.jpg,absent_patch/patch0002166.jpg,,,,,,,,,,,,,,,,,,,,-0.026550669,0.084697622,1,0,0,response7disk,28,0.004897601,-0.004097533,1,0,0,center_square,0,27,27,42,1,,,,,,,,,,,,,,,,,,,,,,,
050853,001,2022-11-21_02h30.34.133,Info_measure_main_exp,2022.2.2,Win32,59.93048064,,,,,,,,,,,,,,,,,,masks/mask_002.jpg,,,,,,,,,,,,,,,,,,,,,,,,,,,,,,,,,,,,,,,,,,,0,0,0,1,1,,,,,,,,,,,,,,,,,,,,,,,,,,,,,,,,,,,,,,,,,,,,,,
050853,001,2022-11-21_02h30.34.133,Info_measure_main_exp,2022.2.2,Win32,59.93048064,,,,,,,,,,,,,,,,,,masks/mask_004.jpg,,,,,,,,,,,,,,,,,,,,,,,,,,,,,,,,,,,,,,,,,,,0,1,1,3,1,,,,,,,,,,,,,,,,,,,,,,,,,,,,,,,,,,,,,,,,,,,,,,
050853,001,2022-11-21_02h30.34.133,Info_measure_main_exp,2022.2.2,Win32,59.93048064,,,,,,,,,,,,,,,,,,masks/mask_003.jpg,,,,,,,,,,,,,,,,,,,,,,,,,,,,,,,,,,,,,,,,,,,0,2,2,2,1,,,,,,,,,,,,,,,,,,,,,,,,,,,,,,,,,,,,,,,,,,,,,,
050853,001,2022-11-21_02h30.34.133,Info_measure_main_exp,2022.2.2,Win32,59.93048064,,,,,,,,,,,,,,,,,,masks/mask_005.jpg,,,,,,,,,,,,,,,,,,,,,,,,,,,,,,,,,,,,,,,,,,,0,3,3,4,1,,,,,,,,,,,,,,,,,,,,,,,,,,,,,,,,,,,,,,,,,,,,,,
050853,001,2022-11-21_02h30.34.133,Info_measure_main_exp,2022.2.2,Win32,59.93048064,,,,,,,,,,,,,,,,,,masks/mask_001.jpg,,,,,,,,,,,,,,,,,,,,,,,,,,,,,,,,,,,,,,,,,,,0,4,4,0,1,,,,,,,,,,,,,,,,,,,,,,,,,,,,,,,,,,,,,,,,,,,,,,
050853,001,2022-11-21_02h30.34.133,Info_measure_main_exp,2022.2.2,Win32,59.93048064,,,,,,,,,,,,,,,,,,masks/mask_005.jpg,,,,,,,,,,,,,,,,,,,,,,,,,,,,,,,,,,,,,,,,,,,,,,,,0,0,0,4,1,,,,,,,,,,,,,,,,,,,,,,,,,,,,,,,,,,,,,,,,,
050853,001,2022-11-21_02h30.34.133,Info_measure_main_exp,2022.2.2,Win32,59.93048064,,,,,,,,,,,,,,,,,,masks/mask_003.jpg,,,,,,,,,,,,,,,,,,,,,,,,,,,,,,,,,,,,,,,,,,,,,,,,0,1,1,2,1,,,,,,,,,,,,,,,,,,,,,,,,,,,,,,,,,,,,,,,,,
050853,001,2022-11-21_02h30.34.133,Info_measure_main_exp,2022.2.2,Win32,59.93048064,,,,,,,,,,,,,,,,,,masks/mask_002.jpg,,,,,,,,,,,,,,,,,,,,,,,,,,,,,,,,,,,,,,,,,,,,,,,,0,2,2,1,1,,,,,,,,,,,,,,,,,,,,,,,,,,,,,,,,,,,,,,,,,
050853,001,2022-11-21_02h30.34.133,Info_measure_main_exp,2022.2.2,Win32,59.93048064,,,,,,,,,,,,,,,,,,masks/mask_001.jpg,,,,,,,,,,,,,,,,,,,,,,,,,,,,,,,,,,,,,,,,,,,,,,,,0,3,3,0,1,,,,,,,,,,,,,,,,,,,,,,,,,,,,,,,,,,,,,,,,,
050853,001,2022-11-21_02h30.34.133,Info_measure_main_exp,2022.2.2,Win32,59.93048064,,,,,,,,,,,,,,,,,,masks/mask_004.jpg,,,,,,,,,,,,,,,,,,,,,,,,,,,,,,,,,,,,,,,,,,,,,,,,0,4,4,3,1,,,,,,,,,,,,,,,,,,,,,,,,,,,,,,,,,,,,,,,,,
050853,001,2022-11-21_02h30.34.133,Info_measure_main_exp,2022.2.2,Win32,59.93048064,,,,,,,,,,,,,,,,,,,,,,,,,,,,,,6,1.0334,1,,,,,,,,,,,,0,131,5,5,2190,2082,absent_patch/patch0002190.jpg,absent_patch/patch0002082.jpg,,,,,,,,,,,,,,,,,,,,0.103867235,0.02642581,1,0,0,response1disk,29,-0.005276846,-0.000397731,1,0,0,center_square,0,28,28,112,1,,,,,,,,,,,,,,,,,,,,,,,
050853,001,2022-11-21_02h30.34.133,Info_measure_main_exp,2022.2.2,Win32,59.93048064,,,,,,,,,,,,,,,,,,masks/mask_004.jpg,,,,,,,,,,,,,,,,,,,,,,,,,,,,,,,,,,,,,,,,,,,0,0,0,3,1,,,,,,,,,,,,,,,,,,,,,,,,,,,,,,,,,,,,,,,,,,,,,,
050853,001,2022-11-21_02h30.34.133,Info_measure_main_exp,2022.2.2,Win32,59.93048064,,,,,,,,,,,,,,,,,,masks/mask_005.jpg,,,,,,,,,,,,,,,,,,,,,,,,,,,,,,,,,,,,,,,,,,,0,1,1,4,1,,,,,,,,,,,,,,,,,,,,,,,,,,,,,,,,,,,,,,,,,,,,,,
050853,001,2022-11-21_02h30.34.133,Info_measure_main_exp,2022.2.2,Win32,59.93048064,,,,,,,,,,,,,,,,,,masks/mask_003.jpg,,,,,,,,,,,,,,,,,,,,,,,,,,,,,,,,,,,,,,,,,,,0,2,2,2,1,,,,,,,,,,,,,,,,,,,,,,,,,,,,,,,,,,,,,,,,,,,,,,
050853,001,2022-11-21_02h30.34.133,Info_measure_main_exp,2022.2.2,Win32,59.93048064,,,,,,,,,,,,,,,,,,masks/mask_001.jpg,,,,,,,,,,,,,,,,,,,,,,,,,,,,,,,,,,,,,,,,,,,0,3,3,0,1,,,,,,,,,,,,,,,,,,,,,,,,,,,,,,,,,,,,,,,,,,,,,,
050853,001,2022-11-21_02h30.34.133,Info_measure_main_exp,2022.2.2,Win32,59.93048064,,,,,,,,,,,,,,,,,,masks/mask_002.jpg,,,,,,,,,,,,,,,,,,,,,,,,,,,,,,,,,,,,,,,,,,,0,4,4,1,1,,,,,,,,,,,,,,,,,,,,,,,,,,,,,,,,,,,,,,,,,,,,,,
050853,001,2022-11-21_02h30.34.133,Info_measure_main_exp,2022.2.2,Win32,59.93048064,,,,,,,,,,,,,,,,,,masks/mask_003.jpg,,,,,,,,,,,,,,,,,,,,,,,,,,,,,,,,,,,,,,,,,,,,,,,,0,0,0,2,1,,,,,,,,,,,,,,,,,,,,,,,,,,,,,,,,,,,,,,,,,
050853,001,2022-11-21_02h30.34.133,Info_measure_main_exp,2022.2.2,Win32,59.93048064,,,,,,,,,,,,,,,,,,masks/mask_004.jpg,,,,,,,,,,,,,,,,,,,,,,,,,,,,,,,,,,,,,,,,,,,,,,,,0,1,1,3,1,,,,,,,,,,,,,,,,,,,,,,,,,,,,,,,,,,,,,,,,,
050853,001,2022-11-21_02h30.34.133,Info_measure_main_exp,2022.2.2,Win32,59.93048064,,,,,,,,,,,,,,,,,,masks/mask_001.jpg,,,,,,,,,,,,,,,,,,,,,,,,,,,,,,,,,,,,,,,,,,,,,,,,0,2,2,0,1,,,,,,,,,,,,,,,,,,,,,,,,,,,,,,,,,,,,,,,,,
050853,001,2022-11-21_02h30.34.133,Info_measure_main_exp,2022.2.2,Win32,59.93048064,,,,,,,,,,,,,,,,,,masks/mask_005.jpg,,,,,,,,,,,,,,,,,,,,,,,,,,,,,,,,,,,,,,,,,,,,,,,,0,3,3,4,1,,,,,,,,,,,,,,,,,,,,,,,,,,,,,,,,,,,,,,,,,
050853,001,2022-11-21_02h30.34.133,Info_measure_main_exp,2022.2.2,Win32,59.93048064,,,,,,,,,,,,,,,,,,masks/mask_002.jpg,,,,,,,,,,,,,,,,,,,,,,,,,,,,,,,,,,,,,,,,,,,,,,,,0,4,4,1,1,,,,,,,,,,,,,,,,,,,,,,,,,,,,,,,,,,,,,,,,,
050853,001,2022-11-21_02h30.34.133,Info_measure_main_exp,2022.2.2,Win32,59.93048064,,,,,,,,,,,,,,,,,,,,,,,,,,,,,,7,0.8334,1,,,,,,,,,,,,0,131,5,5,2238,2298,absent_patch/patch0002238.jpg,absent_patch/patch0002298.jpg,,,,,,,,,,,,,,,,,,,,0.045595392,0.096721986,1,0,0,response1disk,30,-0.001577013,-0.005022492,1,0,0,center_square,0,29,29,51,1,,,,,,,,,,,,,,,,,,,,,,,
050853,001,2022-11-21_02h30.34.133,Info_measure_main_exp,2022.2.2,Win32,59.93048064,,,,,,,,,,,,,,,,,,masks/mask_002.jpg,,,,,,,,,,,,,,,,,,,,,,,,,,,,,,,,,,,,,,,,,,,0,0,0,1,1,,,,,,,,,,,,,,,,,,,,,,,,,,,,,,,,,,,,,,,,,,,,,,
050853,001,2022-11-21_02h30.34.133,Info_measure_main_exp,2022.2.2,Win32,59.93048064,,,,,,,,,,,,,,,,,,masks/mask_001.jpg,,,,,,,,,,,,,,,,,,,,,,,,,,,,,,,,,,,,,,,,,,,0,1,1,0,1,,,,,,,,,,,,,,,,,,,,,,,,,,,,,,,,,,,,,,,,,,,,,,
050853,001,2022-11-21_02h30.34.133,Info_measure_main_exp,2022.2.2,Win32,59.93048064,,,,,,,,,,,,,,,,,,masks/mask_003.jpg,,,,,,,,,,,,,,,,,,,,,,,,,,,,,,,,,,,,,,,,,,,0,2,2,2,1,,,,,,,,,,,,,,,,,,,,,,,,,,,,,,,,,,,,,,,,,,,,,,
050853,001,2022-11-21_02h30.34.133,Info_measure_main_exp,2022.2.2,Win32,59.93048064,,,,,,,,,,,,,,,,,,masks/mask_005.jpg,,,,,,,,,,,,,,,,,,,,,,,,,,,,,,,,,,,,,,,,,,,0,3,3,4,1,,,,,,,,,,,,,,,,,,,,,,,,,,,,,,,,,,,,,,,,,,,,,,
050853,001,2022-11-21_02h30.34.133,Info_measure_main_exp,2022.2.2,Win32,59.93048064,,,,,,,,,,,,,,,,,,masks/mask_004.jpg,,,,,,,,,,,,,,,,,,,,,,,,,,,,,,,,,,,,,,,,,,,0,4,4,3,1,,,,,,,,,,,,,,,,,,,,,,,,,,,,,,,,,,,,,,,,,,,,,,
050853,001,2022-11-21_02h30.34.133,Info_measure_main_exp,2022.2.2,Win32,59.93048064,,,,,,,,,,,,,,,,,,masks/mask_003.jpg,,,,,,,,,,,,,,,,,,,,,,,,,,,,,,,,,,,,,,,,,,,,,,,,0,0,0,2,1,,,,,,,,,,,,,,,,,,,,,,,,,,,,,,,,,,,,,,,,,
050853,001,2022-11-21_02h30.34.133,Info_measure_main_exp,2022.2.2,Win32,59.93048064,,,,,,,,,,,,,,,,,,masks/mask_002.jpg,,,,,,,,,,,,,,,,,,,,,,,,,,,,,,,,,,,,,,,,,,,,,,,,0,1,1,1,1,,,,,,,,,,,,,,,,,,,,,,,,,,,,,,,,,,,,,,,,,
050853,001,2022-11-21_02h30.34.133,Info_measure_main_exp,2022.2.2,Win32,59.93048064,,,,,,,,,,,,,,,,,,masks/mask_001.jpg,,,,,,,,,,,,,,,,,,,,,,,,,,,,,,,,,,,,,,,,,,,,,,,,0,2,2,0,1,,,,,,,,,,,,,,,,,,,,,,,,,,,,,,,,,,,,,,,,,
050853,001,2022-11-21_02h30.34.133,Info_measure_main_exp,2022.2.2,Win32,59.93048064,,,,,,,,,,,,,,,,,,masks/mask_005.jpg,,,,,,,,,,,,,,,,,,,,,,,,,,,,,,,,,,,,,,,,,,,,,,,,0,3,3,4,1,,,,,,,,,,,,,,,,,,,,,,,,,,,,,,,,,,,,,,,,,
050853,001,2022-11-21_02h30.34.133,Info_measure_main_exp,2022.2.2,Win32,59.93048064,,,,,,,,,,,,,,,,,,masks/mask_004.jpg,,,,,,,,,,,,,,,,,,,,,,,,,,,,,,,,,,,,,,,,,,,,,,,,0,4,4,3,1,,,,,,,,,,,,,,,,,,,,,,,,,,,,,,,,,,,,,,,,,
050853,001,2022-11-21_02h30.34.133,Info_measure_main_exp,2022.2.2,Win32,59.93048064,,,,,,,,,,,,,,,,,,,,,,,,,,,,,,5,1.7999,1,,,,,,,,,,,,0,131,5,5,2298,2142,absent_patch/patch0002298.jpg,absent_patch/patch0002142.jpg,,,,,,,,,,,,,,,,,,,,0.094617714,-0.034620845,1,0,0,response3disk,31,0.006747518,0.002377113,1,0,0,center_square,0,30,30,49,1,,,,,,,,,,,,,,,,,,,,,,,
050853,001,2022-11-21_02h30.34.133,Info_measure_main_exp,2022.2.2,Win32,59.93048064,,,,,,,,,,,,,,,,,,masks/mask_005.jpg,,,,,,,,,,,,,,,,,,,,,,,,,,,,,,,,,,,,,,,,,,,0,0,0,4,1,,,,,,,,,,,,,,,,,,,,,,,,,,,,,,,,,,,,,,,,,,,,,,
050853,001,2022-11-21_02h30.34.133,Info_measure_main_exp,2022.2.2,Win32,59.93048064,,,,,,,,,,,,,,,,,,masks/mask_001.jpg,,,,,,,,,,,,,,,,,,,,,,,,,,,,,,,,,,,,,,,,,,,0,1,1,0,1,,,,,,,,,,,,,,,,,,,,,,,,,,,,,,,,,,,,,,,,,,,,,,
050853,001,2022-11-21_02h30.34.133,Info_measure_main_exp,2022.2.2,Win32,59.93048064,,,,,,,,,,,,,,,,,,masks/mask_002.jpg,,,,,,,,,,,,,,,,,,,,,,,,,,,,,,,,,,,,,,,,,,,0,2,2,1,1,,,,,,,,,,,,,,,,,,,,,,,,,,,,,,,,,,,,,,,,,,,,,,
050853,001,2022-11-21_02h30.34.133,Info_measure_main_exp,2022.2.2,Win32,59.93048064,,,,,,,,,,,,,,,,,,masks/mask_003.jpg,,,,,,,,,,,,,,,,,,,,,,,,,,,,,,,,,,,,,,,,,,,0,3,3,2,1,,,,,,,,,,,,,,,,,,,,,,,,,,,,,,,,,,,,,,,,,,,,,,
050853,001,2022-11-21_02h30.34.133,Info_measure_main_exp,2022.2.2,Win32,59.93048064,,,,,,,,,,,,,,,,,,masks/mask_004.jpg,,,,,,,,,,,,,,,,,,,,,,,,,,,,,,,,,,,,,,,,,,,0,4,4,3,1,,,,,,,,,,,,,,,,,,,,,,,,,,,,,,,,,,,,,,,,,,,,,,
050853,001,2022-11-21_02h30.34.133,Info_measure_main_exp,2022.2.2,Win32,59.93048064,,,,,,,,,,,,,,,,,,masks/mask_002.jpg,,,,,,,,,,,,,,,,,,,,,,,,,,,,,,,,,,,,,,,,,,,,,,,,0,0,0,1,1,,,,,,,,,,,,,,,,,,,,,,,,,,,,,,,,,,,,,,,,,
050853,001,2022-11-21_02h30.34.133,Info_measure_main_exp,2022.2.2,Win32,59.93048064,,,,,,,,,,,,,,,,,,masks/mask_001.jpg,,,,,,,,,,,,,,,,,,,,,,,,,,,,,,,,,,,,,,,,,,,,,,,,0,1,1,0,1,,,,,,,,,,,,,,,,,,,,,,,,,,,,,,,,,,,,,,,,,
050853,001,2022-11-21_02h30.34.133,Info_measure_main_exp,2022.2.2,Win32,59.93048064,,,,,,,,,,,,,,,,,,masks/mask_003.jpg,,,,,,,,,,,,,,,,,,,,,,,,,,,,,,,,,,,,,,,,,,,,,,,,0,2,2,2,1,,,,,,,,,,,,,,,,,,,,,,,,,,,,,,,,,,,,,,,,,
050853,001,2022-11-21_02h30.34.133,Info_measure_main_exp,2022.2.2,Win32,59.93048064,,,,,,,,,,,,,,,,,,masks/mask_005.jpg,,,,,,,,,,,,,,,,,,,,,,,,,,,,,,,,,,,,,,,,,,,,,,,,0,3,3,4,1,,,,,,,,,,,,,,,,,,,,,,,,,,,,,,,,,,,,,,,,,
050853,001,2022-11-21_02h30.34.133,Info_measure_main_exp,2022.2.2,Win32,59.93048064,,,,,,,,,,,,,,,,,,masks/mask_004.jpg,,,,,,,,,,,,,,,,,,,,,,,,,,,,,,,,,,,,,,,,,,,,,,,,0,4,4,3,1,,,,,,,,,,,,,,,,,,,,,,,,,,,,,,,,,,,,,,,,,
050853,001,2022-11-21_02h30.34.133,Info_measure_main_exp,2022.2.2,Win32,59.93048064,,,,,,,,,,,,,,,,,,,,,,,,,,,,,,7,0.7008,1,,,,,,,,,,,,0,131,5,5,2178,2166,absent_patch/patch0002178.jpg,absent_patch/patch0002166.jpg,,,,,,,,,,,,,,,,,,,,0.036345872,0.074523174,1,0,0,response1disk,32,-0.002502003,-0.005947419,1,0,0,center_square,0,31,31,72,1,,,,,,,,,,,,,,,,,,,,,,,
050853,001,2022-11-21_02h30.34.133,Info_measure_main_exp,2022.2.2,Win32,59.93048064,,,,,,,,,,,,,,,,,,masks/mask_001.jpg,,,,,,,,,,,,,,,,,,,,,,,,,,,,,,,,,,,,,,,,,,,0,0,0,0,1,,,,,,,,,,,,,,,,,,,,,,,,,,,,,,,,,,,,,,,,,,,,,,
050853,001,2022-11-21_02h30.34.133,Info_measure_main_exp,2022.2.2,Win32,59.93048064,,,,,,,,,,,,,,,,,,masks/mask_005.jpg,,,,,,,,,,,,,,,,,,,,,,,,,,,,,,,,,,,,,,,,,,,0,1,1,4,1,,,,,,,,,,,,,,,,,,,,,,,,,,,,,,,,,,,,,,,,,,,,,,
050853,001,2022-11-21_02h30.34.133,Info_measure_main_exp,2022.2.2,Win32,59.93048064,,,,,,,,,,,,,,,,,,masks/mask_004.jpg,,,,,,,,,,,,,,,,,,,,,,,,,,,,,,,,,,,,,,,,,,,0,2,2,3,1,,,,,,,,,,,,,,,,,,,,,,,,,,,,,,,,,,,,,,,,,,,,,,
050853,001,2022-11-21_02h30.34.133,Info_measure_main_exp,2022.2.2,Win32,59.93048064,,,,,,,,,,,,,,,,,,masks/mask_002.jpg,,,,,,,,,,,,,,,,,,,,,,,,,,,,,,,,,,,,,,,,,,,0,3,3,1,1,,,,,,,,,,,,,,,,,,,,,,,,,,,,,,,,,,,,,,,,,,,,,,
050853,001,2022-11-21_02h30.34.133,Info_measure_main_exp,2022.2.2,Win32,59.93048064,,,,,,,,,,,,,,,,,,masks/mask_003.jpg,,,,,,,,,,,,,,,,,,,,,,,,,,,,,,,,,,,,,,,,,,,0,4,4,2,1,,,,,,,,,,,,,,,,,,,,,,,,,,,,,,,,,,,,,,,,,,,,,,
050853,001,2022-11-21_02h30.34.133,Info_measure_main_exp,2022.2.2,Win32,59.93048064,,,,,,,,,,,,,,,,,,masks/mask_003.jpg,,,,,,,,,,,,,,,,,,,,,,,,,,,,,,,,,,,,,,,,,,,,,,,,0,0,0,2,1,,,,,,,,,,,,,,,,,,,,,,,,,,,,,,,,,,,,,,,,,
050853,001,2022-11-21_02h30.34.133,Info_measure_main_exp,2022.2.2,Win32,59.93048064,,,,,,,,,,,,,,,,,,masks/mask_002.jpg,,,,,,,,,,,,,,,,,,,,,,,,,,,,,,,,,,,,,,,,,,,,,,,,0,1,1,1,1,,,,,,,,,,,,,,,,,,,,,,,,,,,,,,,,,,,,,,,,,
050853,001,2022-11-21_02h30.34.133,Info_measure_main_exp,2022.2.2,Win32,59.93048064,,,,,,,,,,,,,,,,,,masks/mask_001.jpg,,,,,,,,,,,,,,,,,,,,,,,,,,,,,,,,,,,,,,,,,,,,,,,,0,2,2,0,1,,,,,,,,,,,,,,,,,,,,,,,,,,,,,,,,,,,,,,,,,
050853,001,2022-11-21_02h30.34.133,Info_measure_main_exp,2022.2.2,Win32,59.93048064,,,,,,,,,,,,,,,,,,masks/mask_005.jpg,,,,,,,,,,,,,,,,,,,,,,,,,,,,,,,,,,,,,,,,,,,,,,,,0,3,3,4,1,,,,,,,,,,,,,,,,,,,,,,,,,,,,,,,,,,,,,,,,,
050853,001,2022-11-21_02h30.34.133,Info_measure_main_exp,2022.2.2,Win32,59.93048064,,,,,,,,,,,,,,,,,,masks/mask_004.jpg,,,,,,,,,,,,,,,,,,,,,,,,,,,,,,,,,,,,,,,,,,,,,,,,0,4,4,3,1,,,,,,,,,,,,,,,,,,,,,,,,,,,,,,,,,,,,,,,,,
050853,001,2022-11-21_02h30.34.133,Info_measure_main_exp,2022.2.2,Win32,59.93048064,,,,,,,,,,,,,,,,,,,,,,,,,,,,,,7,0.6683,1,,,,,,,,,,,,0,131,5,5,2154,2190,absent_patch/patch0002154.jpg,absent_patch/patch0002190.jpg,,,,,,,,,,,,,,,,,,,,0.018771882,0.078222945,1,0,0,response1disk,33,-0.001577013,0.000527227,1,0,0,center_square,0,32,32,68,1,,,,,,,,,,,,,,,,,,,,,,,
050853,001,2022-11-21_02h30.34.133,Info_measure_main_exp,2022.2.2,Win32,59.93048064,,,,,,,,,,,,,,,,,,masks/mask_001.jpg,,,,,,,,,,,,,,,,,,,,,,,,,,,,,,,,,,,,,,,,,,,0,0,0,0,1,,,,,,,,,,,,,,,,,,,,,,,,,,,,,,,,,,,,,,,,,,,,,,
050853,001,2022-11-21_02h30.34.133,Info_measure_main_exp,2022.2.2,Win32,59.93048064,,,,,,,,,,,,,,,,,,masks/mask_002.jpg,,,,,,,,,,,,,,,,,,,,,,,,,,,,,,,,,,,,,,,,,,,0,1,1,1,1,,,,,,,,,,,,,,,,,,,,,,,,,,,,,,,,,,,,,,,,,,,,,,
050853,001,2022-11-21_02h30.34.133,Info_measure_main_exp,2022.2.2,Win32,59.93048064,,,,,,,,,,,,,,,,,,masks/mask_003.jpg,,,,,,,,,,,,,,,,,,,,,,,,,,,,,,,,,,,,,,,,,,,0,2,2,2,1,,,,,,,,,,,,,,,,,,,,,,,,,,,,,,,,,,,,,,,,,,,,,,
050853,001,2022-11-21_02h30.34.133,Info_measure_main_exp,2022.2.2,Win32,59.93048064,,,,,,,,,,,,,,,,,,masks/mask_004.jpg,,,,,,,,,,,,,,,,,,,,,,,,,,,,,,,,,,,,,,,,,,,0,3,3,3,1,,,,,,,,,,,,,,,,,,,,,,,,,,,,,,,,,,,,,,,,,,,,,,
050853,001,2022-11-21_02h30.34.133,Info_measure_main_exp,2022.2.2,Win32,59.93048064,,,,,,,,,,,,,,,,,,masks/mask_005.jpg,,,,,,,,,,,,,,,,,,,,,,,,,,,,,,,,,,,,,,,,,,,0,4,4,4,1,,,,,,,,,,,,,,,,,,,,,,,,,,,,,,,,,,,,,,,,,,,,,,
050853,001,2022-11-21_02h30.34.133,Info_measure_main_exp,2022.2.2,Win32,59.93048064,,,,,,,,,,,,,,,,,,masks/mask_002.jpg,,,,,,,,,,,,,,,,,,,,,,,,,,,,,,,,,,,,,,,,,,,,,,,,0,0,0,1,1,,,,,,,,,,,,,,,,,,,,,,,,,,,,,,,,,,,,,,,,,
050853,001,2022-11-21_02h30.34.133,Info_measure_main_exp,2022.2.2,Win32,59.93048064,,,,,,,,,,,,,,,,,,masks/mask_003.jpg,,,,,,,,,,,,,,,,,,,,,,,,,,,,,,,,,,,,,,,,,,,,,,,,0,1,1,2,1,,,,,,,,,,,,,,,,,,,,,,,,,,,,,,,,,,,,,,,,,
050853,001,2022-11-21_02h30.34.133,Info_measure_main_exp,2022.2.2,Win32,59.93048064,,,,,,,,,,,,,,,,,,masks/mask_005.jpg,,,,,,,,,,,,,,,,,,,,,,,,,,,,,,,,,,,,,,,,,,,,,,,,0,2,2,4,1,,,,,,,,,,,,,,,,,,,,,,,,,,,,,,,,,,,,,,,,,
050853,001,2022-11-21_02h30.34.133,Info_measure_main_exp,2022.2.2,Win32,59.93048064,,,,,,,,,,,,,,,,,,masks/mask_004.jpg,,,,,,,,,,,,,,,,,,,,,,,,,,,,,,,,,,,,,,,,,,,,,,,,0,3,3,3,1,,,,,,,,,,,,,,,,,,,,,,,,,,,,,,,,,,,,,,,,,
050853,001,2022-11-21_02h30.34.133,Info_measure_main_exp,2022.2.2,Win32,59.93048064,,,,,,,,,,,,,,,,,,masks/mask_001.jpg,,,,,,,,,,,,,,,,,,,,,,,,,,,,,,,,,,,,,,,,,,,,,,,,0,4,4,0,1,,,,,,,,,,,,,,,,,,,,,,,,,,,,,,,,,,,,,,,,,
050853,001,2022-11-21_02h30.34.133,Info_measure_main_exp,2022.2.2,Win32,59.93048064,,,,,,,,,,,,,,,,,,,,,,,,,,,,,,7,1.5335,1,,,,,,,,,,,,0,131,5,5,2082,2238,absent_patch/patch0002082.jpg,absent_patch/patch0002238.jpg,,,,,,,,,,,,,,,,,,,,0.042820549,0.093947142,1,0,0,response1disk,34,0.004897601,-0.005947419,1,0,0,center_square,0,33,33,22,1,,,,,,,,,,,,,,,,,,,,,,,
050853,001,2022-11-21_02h30.34.133,Info_measure_main_exp,2022.2.2,Win32,59.93048064,,,,,,,,,,,,,,,,,,masks/mask_005.jpg,,,,,,,,,,,,,,,,,,,,,,,,,,,,,,,,,,,,,,,,,,,0,0,0,4,1,,,,,,,,,,,,,,,,,,,,,,,,,,,,,,,,,,,,,,,,,,,,,,
050853,001,2022-11-21_02h30.34.133,Info_measure_main_exp,2022.2.2,Win32,59.93048064,,,,,,,,,,,,,,,,,,masks/mask_004.jpg,,,,,,,,,,,,,,,,,,,,,,,,,,,,,,,,,,,,,,,,,,,0,1,1,3,1,,,,,,,,,,,,,,,,,,,,,,,,,,,,,,,,,,,,,,,,,,,,,,
050853,001,2022-11-21_02h30.34.133,Info_measure_main_exp,2022.2.2,Win32,59.93048064,,,,,,,,,,,,,,,,,,masks/mask_001.jpg,,,,,,,,,,,,,,,,,,,,,,,,,,,,,,,,,,,,,,,,,,,0,2,2,0,1,,,,,,,,,,,,,,,,,,,,,,,,,,,,,,,,,,,,,,,,,,,,,,
050853,001,2022-11-21_02h30.34.133,Info_measure_main_exp,2022.2.2,Win32,59.93048064,,,,,,,,,,,,,,,,,,masks/mask_003.jpg,,,,,,,,,,,,,,,,,,,,,,,,,,,,,,,,,,,,,,,,,,,0,3,3,2,1,,,,,,,,,,,,,,,,,,,,,,,,,,,,,,,,,,,,,,,,,,,,,,
050853,001,2022-11-21_02h30.34.133,Info_measure_main_exp,2022.2.2,Win32,59.93048064,,,,,,,,,,,,,,,,,,masks/mask_002.jpg,,,,,,,,,,,,,,,,,,,,,,,,,,,,,,,,,,,,,,,,,,,0,4,4,1,1,,,,,,,,,,,,,,,,,,,,,,,,,,,,,,,,,,,,,,,,,,,,,,
050853,001,2022-11-21_02h30.34.133,Info_measure_main_exp,2022.2.2,Win32,59.93048064,,,,,,,,,,,,,,,,,,masks/mask_005.jpg,,,,,,,,,,,,,,,,,,,,,,,,,,,,,,,,,,,,,,,,,,,,,,,,0,0,0,4,1,,,,,,,,,,,,,,,,,,,,,,,,,,,,,,,,,,,,,,,,,
050853,001,2022-11-21_02h30.34.133,Info_measure_main_exp,2022.2.2,Win32,59.93048064,,,,,,,,,,,,,,,,,,masks/mask_004.jpg,,,,,,,,,,,,,,,,,,,,,,,,,,,,,,,,,,,,,,,,,,,,,,,,0,1,1,3,1,,,,,,,,,,,,,,,,,,,,,,,,,,,,,,,,,,,,,,,,,
050853,001,2022-11-21_02h30.34.133,Info_measure_main_exp,2022.2.2,Win32,59.93048064,,,,,,,,,,,,,,,,,,masks/mask_003.jpg,,,,,,,,,,,,,,,,,,,,,,,,,,,,,,,,,,,,,,,,,,,,,,,,0,2,2,2,1,,,,,,,,,,,,,,,,,,,,,,,,,,,,,,,,,,,,,,,,,
050853,001,2022-11-21_02h30.34.133,Info_measure_main_exp,2022.2.2,Win32,59.93048064,,,,,,,,,,,,,,,,,,masks/mask_001.jpg,,,,,,,,,,,,,,,,,,,,,,,,,,,,,,,,,,,,,,,,,,,,,,,,0,3,3,0,1,,,,,,,,,,,,,,,,,,,,,,,,,,,,,,,,,,,,,,,,,
