participant,session,date,expName,psychopyVersion,OS,frameRate,space_press_continue.keys,space_press_continue.rt,space_press_continue_2.keys,space_press_continue_2.rt,space_press_continue_3.keys,space_press_continue_3.rt,space_press_continue_4.keys,space_press_continue_4.rt,space_press_continue_5.keys,space_press_continue_5.rt,space_press_continue_6.keys,space_press_continue_6.rt,prac_mask_loop_1.thisRepN,prac_mask_loop_1.thisTrialN,prac_mask_loop_1.thisN,prac_mask_loop_1.thisIndex,prac_mask_loop_1.ran,mask_name,prac_mask_loop_2.thisRepN,prac_mask_loop_2.thisTrialN,prac_mask_loop_2.thisN,prac_mask_loop_2.thisIndex,prac_mask_loop_2.ran,mouse_2.x,mouse_2.y,mouse_2.leftButton,mouse_2.midButton,mouse_2.rightButton,mouse_2.clicked_name,similarity,response_time,Pass,mouse_12.x,mouse_12.y,mouse_12.leftButton,mouse_12.midButton,mouse_12.rightButton,mouse_12.clicked_name,prac_loop.thisRepN,prac_loop.thisTrialN,prac_loop.thisN,prac_loop.thisIndex,prac_loop.ran,Pair_type,Image_num,Patch_1_loc,Patch_2_loc,Patch_1_info,Patch_2_info,Patch_1_name,Patch_2_name,mouse_1.x,mouse_1.y,mouse_1.leftButton,mouse_1.midButton,mouse_1.rightButton,mouse_1.time,mouse_1.clicked_name,space_press_continue_7.keys,space_press_continue_7.rt,mask_loop.thisRepN,mask_loop.thisTrialN,mask_loop.thisN,mask_loop.thisIndex,mask_loop.ran,mask_loop_2.thisRepN,mask_loop_2.thisTrialN,mask_loop_2.thisN,mask_loop_2.thisIndex,mask_loop_2.ran,mouse.x,mouse.y,mouse.leftButton,mouse.midButton,mouse.rightButton,mouse.clicked_name,trialNumber,mouse_11.x,mouse_11.y,mouse_11.leftButton,mouse_11.midButton,mouse_11.rightButton,mouse_11.clicked_name,first_pass_loop.thisRepN,first_pass_loop.thisTrialN,first_pass_loop.thisN,first_pass_loop.thisIndex,first_pass_loop.ran,mask_loop_3.thisRepN,mask_loop_3.thisTrialN,mask_loop_3.thisN,mask_loop_3.thisIndex,mask_loop_3.ran,mask_loop_4.thisRepN,mask_loop_4.thisTrialN,mask_loop_4.thisN,mask_loop_4.thisIndex,mask_loop_4.ran,mouse_3.x,mouse_3.y,mouse_3.leftButton,mouse_3.midButton,mouse_3.rightButton,mouse_3.clicked_name,double_pass_loop.thisRepN,double_pass_loop.thisTrialN,double_pass_loop.thisN,double_pass_loop.thisIndex,double_pass_loop.ran,space_exit.keys,space_exit.rt
062690,001,2022-11-14_01h26.56.284,Info_measure_main_exp,2022.2.2,Win32,60.53268765,,,,,,,,,,,,,,,,,,,,,,,,,,,,,,,,,,,,,,,,,,,,,,,,,,,,,,,,,,,,,,,,,,,,,,,,,,,,,,,,,,,,,,,,,,,,,,,,,,,,,,,,,,,,,,,
062690,001,2022-11-14_01h26.56.284,Info_measure_main_exp,2022.2.2,Win32,60.53268765,,,,,,,,,,,,,,,,,,,,,,,,,,,,,,,,,,,,,,,,,,,,,,,,,,,,,,,,,,,,,,,,,,,,,,,,,,,,,,,,,,,,,,,,,,,,,,,,,,,,,,,,,,,,,,,
062690,001,2022-11-14_01h26.56.284,Info_measure_main_exp,2022.2.2,Win32,60.53268765,space,10.0251,,,,,,,,,,,,,,,,,,,,,,,,,,,,,,,,,,,,,,,,,,,,,,,,,,,,,,,,,,,,,,,,,,,,,,,,,,,,,,,,,,,,,,,,,,,,,,,,,,,,,,,,,,,,,
062690,001,2022-11-14_01h26.56.284,Info_measure_main_exp,2022.2.2,Win32,60.53268765,,,space,10.304,,,,,,,,,,,,,,,,,,,,,,,,,,,,,,,,,,,,,,,,,,,,,,,,,,,,,,,,,,,,,,,,,,,,,,,,,,,,,,,,,,,,,,,,,,,,,,,,,,,,,,,,,,,
062690,001,2022-11-14_01h26.56.284,Info_measure_main_exp,2022.2.2,Win32,60.53268765,,,,,space,5.9927,,,,,,,,,,,,,,,,,,,,,,,,,,,,,,,,,,,,,,,,,,,,,,,,,,,,,,,,,,,,,,,,,,,,,,,,,,,,,,,,,,,,,,,,,,,,,,,,,,,,,,,,,
062690,001,2022-11-14_01h26.56.284,Info_measure_main_exp,2022.2.2,Win32,60.53268765,,,,,,,space,41.3617,,,,,,,,,,,,,,,,,,,,,,,,,,,,,,,,,,,,,,,,,,,,,,,,,,,,,,,,,,,,,,,,,,,,,,,,,,,,,,,,,,,,,,,,,,,,,,,,,,,,,,,
062690,001,2022-11-14_01h26.56.284,Info_measure_main_exp,2022.2.2,Win32,60.53268765,,,,,,,,,space,5.335,,,,,,,,,,,,,,,,,,,,,,,,,,,,,,,,,,,,,,,,,,,,,,,,,,,,,,,,,,,,,,,,,,,,,,,,,,,,,,,,,,,,,,,,,,,,,,,,,,,,,
062690,001,2022-11-14_01h26.56.284,Info_measure_main_exp,2022.2.2,Win32,60.53268765,,,,,,,,,,,space,2.7985,,,,,,,,,,,,,,,,,,,,,,,,,,,,,,,,,,,,,,,,,,,,,,,,,,,,,,,,,,,,,,,,,,,,,,,,,,,,,,,,,,,,,,,,,,,,,,,,,,,
062690,001,2022-11-14_01h26.56.284,Info_measure_main_exp,2022.2.2,Win32,60.53268765,,,,,,,,,,,,,0,0,0,1,1,masks/mask_002.jpg,,,,,,,,,,,,,,,,,,,,,,,,,,,,,,,,,,,,,,,,,,,,,,,,,,,,,,,,,,,,,,,,,,,,,,,,,,,,,,,,,,,,,,,,,,,,,
062690,001,2022-11-14_01h26.56.284,Info_measure_main_exp,2022.2.2,Win32,60.53268765,,,,,,,,,,,,,0,1,1,0,1,masks/mask_001.jpg,,,,,,,,,,,,,,,,,,,,,,,,,,,,,,,,,,,,,,,,,,,,,,,,,,,,,,,,,,,,,,,,,,,,,,,,,,,,,,,,,,,,,,,,,,,,,
062690,001,2022-11-14_01h26.56.284,Info_measure_main_exp,2022.2.2,Win32,60.53268765,,,,,,,,,,,,,0,2,2,3,1,masks/mask_004.jpg,,,,,,,,,,,,,,,,,,,,,,,,,,,,,,,,,,,,,,,,,,,,,,,,,,,,,,,,,,,,,,,,,,,,,,,,,,,,,,,,,,,,,,,,,,,,,
062690,001,2022-11-14_01h26.56.284,Info_measure_main_exp,2022.2.2,Win32,60.53268765,,,,,,,,,,,,,0,3,3,2,1,masks/mask_003.jpg,,,,,,,,,,,,,,,,,,,,,,,,,,,,,,,,,,,,,,,,,,,,,,,,,,,,,,,,,,,,,,,,,,,,,,,,,,,,,,,,,,,,,,,,,,,,,
062690,001,2022-11-14_01h26.56.284,Info_measure_main_exp,2022.2.2,Win32,60.53268765,,,,,,,,,,,,,0,4,4,4,1,masks/mask_005.jpg,,,,,,,,,,,,,,,,,,,,,,,,,,,,,,,,,,,,,,,,,,,,,,,,,,,,,,,,,,,,,,,,,,,,,,,,,,,,,,,,,,,,,,,,,,,,,
062690,001,2022-11-14_01h26.56.284,Info_measure_main_exp,2022.2.2,Win32,60.53268765,,,,,,,,,,,,,,,,,,masks/mask_005.jpg,0,0,0,4,1,,,,,,,,,,,,,,,,,,,,,,,,,,,,,,,,,,,,,,,,,,,,,,,,,,,,,,,,,,,,,,,,,,,,,,,,,,,,,,,,,,,,,,,,
062690,001,2022-11-14_01h26.56.284,Info_measure_main_exp,2022.2.2,Win32,60.53268765,,,,,,,,,,,,,,,,,,masks/mask_004.jpg,0,1,1,3,1,,,,,,,,,,,,,,,,,,,,,,,,,,,,,,,,,,,,,,,,,,,,,,,,,,,,,,,,,,,,,,,,,,,,,,,,,,,,,,,,,,,,,,,,
062690,001,2022-11-14_01h26.56.284,Info_measure_main_exp,2022.2.2,Win32,60.53268765,,,,,,,,,,,,,,,,,,masks/mask_001.jpg,0,2,2,0,1,,,,,,,,,,,,,,,,,,,,,,,,,,,,,,,,,,,,,,,,,,,,,,,,,,,,,,,,,,,,,,,,,,,,,,,,,,,,,,,,,,,,,,,,
062690,001,2022-11-14_01h26.56.284,Info_measure_main_exp,2022.2.2,Win32,60.53268765,,,,,,,,,,,,,,,,,,masks/mask_003.jpg,0,3,3,2,1,,,,,,,,,,,,,,,,,,,,,,,,,,,,,,,,,,,,,,,,,,,,,,,,,,,,,,,,,,,,,,,,,,,,,,,,,,,,,,,,,,,,,,,,
062690,001,2022-11-14_01h26.56.284,Info_measure_main_exp,2022.2.2,Win32,60.53268765,,,,,,,,,,,,,,,,,,masks/mask_002.jpg,0,4,4,1,1,,,,,,,,,,,,,,,,,,,,,,,,,,,,,,,,,,,,,,,,,,,,,,,,,,,,,,,,,,,,,,,,,,,,,,,,,,,,,,,,,,,,,,,,
062690,001,2022-11-14_01h26.56.284,Info_measure_main_exp,2022.2.2,Win32,60.53268765,,,,,,,,,,,,,,,,,,,,,,,,-0.063888903,0.13703703,1,0,0,response7disk,0,83.1631,1,-0.00462963,0,1,0,0,center_square,0,0,0,2,1,0,131,5,5,2526,2526,prac_patch/patch0002526.jpg,prac_patch/patch0002526.jpg,,,,,,,,,,,,,,,,,,,,,,,,,,,,,,,,,,,,,,,,,,,,,,,,,,,,,,,,,,,,
062690,001,2022-11-14_01h26.56.284,Info_measure_main_exp,2022.2.2,Win32,60.53268765,,,,,,,,,,,,,0,0,0,3,1,masks/mask_004.jpg,,,,,,,,,,,,,,,,,,,,,,,,,,,,,,,,,,,,,,,,,,,,,,,,,,,,,,,,,,,,,,,,,,,,,,,,,,,,,,,,,,,,,,,,,,,,,
062690,001,2022-11-14_01h26.56.284,Info_measure_main_exp,2022.2.2,Win32,60.53268765,,,,,,,,,,,,,0,1,1,0,1,masks/mask_001.jpg,,,,,,,,,,,,,,,,,,,,,,,,,,,,,,,,,,,,,,,,,,,,,,,,,,,,,,,,,,,,,,,,,,,,,,,,,,,,,,,,,,,,,,,,,,,,,
062690,001,2022-11-14_01h26.56.284,Info_measure_main_exp,2022.2.2,Win32,60.53268765,,,,,,,,,,,,,0,2,2,2,1,masks/mask_003.jpg,,,,,,,,,,,,,,,,,,,,,,,,,,,,,,,,,,,,,,,,,,,,,,,,,,,,,,,,,,,,,,,,,,,,,,,,,,,,,,,,,,,,,,,,,,,,,
062690,001,2022-11-14_01h26.56.284,Info_measure_main_exp,2022.2.2,Win32,60.53268765,,,,,,,,,,,,,0,3,3,1,1,masks/mask_002.jpg,,,,,,,,,,,,,,,,,,,,,,,,,,,,,,,,,,,,,,,,,,,,,,,,,,,,,,,,,,,,,,,,,,,,,,,,,,,,,,,,,,,,,,,,,,,,,
062690,001,2022-11-14_01h26.56.284,Info_measure_main_exp,2022.2.2,Win32,60.53268765,,,,,,,,,,,,,0,4,4,4,1,masks/mask_005.jpg,,,,,,,,,,,,,,,,,,,,,,,,,,,,,,,,,,,,,,,,,,,,,,,,,,,,,,,,,,,,,,,,,,,,,,,,,,,,,,,,,,,,,,,,,,,,,
062690,001,2022-11-14_01h26.56.284,Info_measure_main_exp,2022.2.2,Win32,60.53268765,,,,,,,,,,,,,,,,,,masks/mask_002.jpg,0,0,0,1,1,,,,,,,,,,,,,,,,,,,,,,,,,,,,,,,,,,,,,,,,,,,,,,,,,,,,,,,,,,,,,,,,,,,,,,,,,,,,,,,,,,,,,,,,
062690,001,2022-11-14_01h26.56.284,Info_measure_main_exp,2022.2.2,Win32,60.53268765,,,,,,,,,,,,,,,,,,masks/mask_005.jpg,0,1,1,4,1,,,,,,,,,,,,,,,,,,,,,,,,,,,,,,,,,,,,,,,,,,,,,,,,,,,,,,,,,,,,,,,,,,,,,,,,,,,,,,,,,,,,,,,,
062690,001,2022-11-14_01h26.56.284,Info_measure_main_exp,2022.2.2,Win32,60.53268765,,,,,,,,,,,,,,,,,,masks/mask_001.jpg,0,2,2,0,1,,,,,,,,,,,,,,,,,,,,,,,,,,,,,,,,,,,,,,,,,,,,,,,,,,,,,,,,,,,,,,,,,,,,,,,,,,,,,,,,,,,,,,,,
062690,001,2022-11-14_01h26.56.284,Info_measure_main_exp,2022.2.2,Win32,60.53268765,,,,,,,,,,,,,,,,,,masks/mask_004.jpg,0,3,3,3,1,,,,,,,,,,,,,,,,,,,,,,,,,,,,,,,,,,,,,,,,,,,,,,,,,,,,,,,,,,,,,,,,,,,,,,,,,,,,,,,,,,,,,,,,
062690,001,2022-11-14_01h26.56.284,Info_measure_main_exp,2022.2.2,Win32,60.53268765,,,,,,,,,,,,,,,,,,masks/mask_003.jpg,0,4,4,2,1,,,,,,,,,,,,,,,,,,,,,,,,,,,,,,,,,,,,,,,,,,,,,,,,,,,,,,,,,,,,,,,,,,,,,,,,,,,,,,,,,,,,,,,,
062690,001,2022-11-14_01h26.56.284,Info_measure_main_exp,2022.2.2,Win32,60.53268765,,,,,,,,,,,,,,,,,,,,,,,,0.049074102,0.150000007,1,0,0,response1disk,7,92.8353,1,-0.001851824,0.003703683,1,0,0,center_square,0,1,1,1,1,0,131,5,5,2514,2490,prac_patch/patch0002514.jpg,prac_patch/patch0002490.jpg,,,,,,,,,,,,,,,,,,,,,,,,,,,,,,,,,,,,,,,,,,,,,,,,,,,,,,,,,,,,
062690,001,2022-11-14_01h26.56.284,Info_measure_main_exp,2022.2.2,Win32,60.53268765,,,,,,,,,,,,,0,0,0,1,1,masks/mask_002.jpg,,,,,,,,,,,,,,,,,,,,,,,,,,,,,,,,,,,,,,,,,,,,,,,,,,,,,,,,,,,,,,,,,,,,,,,,,,,,,,,,,,,,,,,,,,,,,
062690,001,2022-11-14_01h26.56.284,Info_measure_main_exp,2022.2.2,Win32,60.53268765,,,,,,,,,,,,,0,1,1,2,1,masks/mask_003.jpg,,,,,,,,,,,,,,,,,,,,,,,,,,,,,,,,,,,,,,,,,,,,,,,,,,,,,,,,,,,,,,,,,,,,,,,,,,,,,,,,,,,,,,,,,,,,,
062690,001,2022-11-14_01h26.56.284,Info_measure_main_exp,2022.2.2,Win32,60.53268765,,,,,,,,,,,,,0,2,2,0,1,masks/mask_001.jpg,,,,,,,,,,,,,,,,,,,,,,,,,,,,,,,,,,,,,,,,,,,,,,,,,,,,,,,,,,,,,,,,,,,,,,,,,,,,,,,,,,,,,,,,,,,,,
062690,001,2022-11-14_01h26.56.284,Info_measure_main_exp,2022.2.2,Win32,60.53268765,,,,,,,,,,,,,0,3,3,4,1,masks/mask_005.jpg,,,,,,,,,,,,,,,,,,,,,,,,,,,,,,,,,,,,,,,,,,,,,,,,,,,,,,,,,,,,,,,,,,,,,,,,,,,,,,,,,,,,,,,,,,,,,
062690,001,2022-11-14_01h26.56.284,Info_measure_main_exp,2022.2.2,Win32,60.53268765,,,,,,,,,,,,,0,4,4,3,1,masks/mask_004.jpg,,,,,,,,,,,,,,,,,,,,,,,,,,,,,,,,,,,,,,,,,,,,,,,,,,,,,,,,,,,,,,,,,,,,,,,,,,,,,,,,,,,,,,,,,,,,,
062690,001,2022-11-14_01h26.56.284,Info_measure_main_exp,2022.2.2,Win32,60.53268765,,,,,,,,,,,,,,,,,,masks/mask_005.jpg,0,0,0,4,1,,,,,,,,,,,,,,,,,,,,,,,,,,,,,,,,,,,,,,,,,,,,,,,,,,,,,,,,,,,,,,,,,,,,,,,,,,,,,,,,,,,,,,,,
062690,001,2022-11-14_01h26.56.284,Info_measure_main_exp,2022.2.2,Win32,60.53268765,,,,,,,,,,,,,,,,,,masks/mask_002.jpg,0,1,1,1,1,,,,,,,,,,,,,,,,,,,,,,,,,,,,,,,,,,,,,,,,,,,,,,,,,,,,,,,,,,,,,,,,,,,,,,,,,,,,,,,,,,,,,,,,
062690,001,2022-11-14_01h26.56.284,Info_measure_main_exp,2022.2.2,Win32,60.53268765,,,,,,,,,,,,,,,,,,masks/mask_003.jpg,0,2,2,2,1,,,,,,,,,,,,,,,,,,,,,,,,,,,,,,,,,,,,,,,,,,,,,,,,,,,,,,,,,,,,,,,,,,,,,,,,,,,,,,,,,,,,,,,,
062690,001,2022-11-14_01h26.56.284,Info_measure_main_exp,2022.2.2,Win32,60.53268765,,,,,,,,,,,,,,,,,,masks/mask_001.jpg,0,3,3,0,1,,,,,,,,,,,,,,,,,,,,,,,,,,,,,,,,,,,,,,,,,,,,,,,,,,,,,,,,,,,,,,,,,,,,,,,,,,,,,,,,,,,,,,,,
062690,001,2022-11-14_01h26.56.284,Info_measure_main_exp,2022.2.2,Win32,60.53268765,,,,,,,,,,,,,,,,,,masks/mask_004.jpg,0,4,4,3,1,,,,,,,,,,,,,,,,,,,,,,,,,,,,,,,,,,,,,,,,,,,,,,,,,,,,,,,,,,,,,,,,,,,,,,,,,,,,,,,,,,,,,,,,
062690,001,2022-11-14_01h26.56.284,Info_measure_main_exp,2022.2.2,Win32,60.53268765,,,,,,,,,,,,,,,,,,,,,,,,0.109259288,-0.063888903,1,0,0,response3disk,5,102.8913,1,0,0.00462963,1,0,0,center_square,0,2,2,0,1,0,131,5,5,2370,2406,prac_patch/patch0002370.jpg,prac_patch/patch0002406.jpg,,,,,,,,,,,,,,,,,,,,,,,,,,,,,,,,,,,,,,,,,,,,,,,,,,,,,,,,,,,,
062690,001,2022-11-14_01h26.56.284,Info_measure_main_exp,2022.2.2,Win32,60.53268765,,,,,,,,,,,,,,,,,,,,,,,,,,,,,,,,,,,,,,,,,,,,,,,,,,,,,,,,,,,space,1.9264,,,,,,,,,,,,,,,,,,,,,,,,,,,,,,,,,,,,,,,,,,,,,,,,,,,
062690,001,2022-11-14_01h26.56.284,Info_measure_main_exp,2022.2.2,Win32,60.53268765,,,,,,,,,,,,,,,,,,masks/mask_002.jpg,,,,,,,,,,,,,,,,,,,,,,,,,,,,,,,,,,,,,,,,,,,0,0,0,1,1,,,,,,,,,,,,,,,,,,,,,,,,,,,,,,,,,,,,,,,,,,,,,,
062690,001,2022-11-14_01h26.56.284,Info_measure_main_exp,2022.2.2,Win32,60.53268765,,,,,,,,,,,,,,,,,,masks/mask_004.jpg,,,,,,,,,,,,,,,,,,,,,,,,,,,,,,,,,,,,,,,,,,,0,1,1,3,1,,,,,,,,,,,,,,,,,,,,,,,,,,,,,,,,,,,,,,,,,,,,,,
062690,001,2022-11-14_01h26.56.284,Info_measure_main_exp,2022.2.2,Win32,60.53268765,,,,,,,,,,,,,,,,,,masks/mask_005.jpg,,,,,,,,,,,,,,,,,,,,,,,,,,,,,,,,,,,,,,,,,,,0,2,2,4,1,,,,,,,,,,,,,,,,,,,,,,,,,,,,,,,,,,,,,,,,,,,,,,
062690,001,2022-11-14_01h26.56.284,Info_measure_main_exp,2022.2.2,Win32,60.53268765,,,,,,,,,,,,,,,,,,masks/mask_003.jpg,,,,,,,,,,,,,,,,,,,,,,,,,,,,,,,,,,,,,,,,,,,0,3,3,2,1,,,,,,,,,,,,,,,,,,,,,,,,,,,,,,,,,,,,,,,,,,,,,,
062690,001,2022-11-14_01h26.56.284,Info_measure_main_exp,2022.2.2,Win32,60.53268765,,,,,,,,,,,,,,,,,,masks/mask_001.jpg,,,,,,,,,,,,,,,,,,,,,,,,,,,,,,,,,,,,,,,,,,,0,4,4,0,1,,,,,,,,,,,,,,,,,,,,,,,,,,,,,,,,,,,,,,,,,,,,,,
062690,001,2022-11-14_01h26.56.284,Info_measure_main_exp,2022.2.2,Win32,60.53268765,,,,,,,,,,,,,,,,,,masks/mask_003.jpg,,,,,,,,,,,,,,,,,,,,,,,,,,,,,,,,,,,,,,,,,,,,,,,,0,0,0,2,1,,,,,,,,,,,,,,,,,,,,,,,,,,,,,,,,,,,,,,,,,
062690,001,2022-11-14_01h26.56.284,Info_measure_main_exp,2022.2.2,Win32,60.53268765,,,,,,,,,,,,,,,,,,masks/mask_001.jpg,,,,,,,,,,,,,,,,,,,,,,,,,,,,,,,,,,,,,,,,,,,,,,,,0,1,1,0,1,,,,,,,,,,,,,,,,,,,,,,,,,,,,,,,,,,,,,,,,,
062690,001,2022-11-14_01h26.56.284,Info_measure_main_exp,2022.2.2,Win32,60.53268765,,,,,,,,,,,,,,,,,,masks/mask_005.jpg,,,,,,,,,,,,,,,,,,,,,,,,,,,,,,,,,,,,,,,,,,,,,,,,0,2,2,4,1,,,,,,,,,,,,,,,,,,,,,,,,,,,,,,,,,,,,,,,,,
062690,001,2022-11-14_01h26.56.284,Info_measure_main_exp,2022.2.2,Win32,60.53268765,,,,,,,,,,,,,,,,,,masks/mask_002.jpg,,,,,,,,,,,,,,,,,,,,,,,,,,,,,,,,,,,,,,,,,,,,,,,,0,3,3,1,1,,,,,,,,,,,,,,,,,,,,,,,,,,,,,,,,,,,,,,,,,
062690,001,2022-11-14_01h26.56.284,Info_measure_main_exp,2022.2.2,Win32,60.53268765,,,,,,,,,,,,,,,,,,masks/mask_004.jpg,,,,,,,,,,,,,,,,,,,,,,,,,,,,,,,,,,,,,,,,,,,,,,,,0,4,4,3,1,,,,,,,,,,,,,,,,,,,,,,,,,,,,,,,,,,,,,,,,,
062690,001,2022-11-14_01h26.56.284,Info_measure_main_exp,2022.2.2,Win32,60.53268765,,,,,,,,,,,,,,,,,,,,,,,,,,,,,,1,1.6785,1,,,,,,,,,,,,0,131,5,5,1974,1950,absent_patch/patch0001974.jpg,absent_patch/patch0001950.jpg,,,,,,,,,,,,,,,,,,,,-0.131481453,0.015740748,1,0,0,response7disk,1,0.001851894,-0.002777771,1,0,0,center_square,0,0,0,17,1,,,,,,,,,,,,,,,,,,,,,,,
062690,001,2022-11-14_01h26.56.284,Info_measure_main_exp,2022.2.2,Win32,60.53268765,,,,,,,,,,,,,,,,,,masks/mask_005.jpg,,,,,,,,,,,,,,,,,,,,,,,,,,,,,,,,,,,,,,,,,,,0,0,0,4,1,,,,,,,,,,,,,,,,,,,,,,,,,,,,,,,,,,,,,,,,,,,,,,
062690,001,2022-11-14_01h26.56.284,Info_measure_main_exp,2022.2.2,Win32,60.53268765,,,,,,,,,,,,,,,,,,masks/mask_002.jpg,,,,,,,,,,,,,,,,,,,,,,,,,,,,,,,,,,,,,,,,,,,0,1,1,1,1,,,,,,,,,,,,,,,,,,,,,,,,,,,,,,,,,,,,,,,,,,,,,,
062690,001,2022-11-14_01h26.56.284,Info_measure_main_exp,2022.2.2,Win32,60.53268765,,,,,,,,,,,,,,,,,,masks/mask_001.jpg,,,,,,,,,,,,,,,,,,,,,,,,,,,,,,,,,,,,,,,,,,,0,2,2,0,1,,,,,,,,,,,,,,,,,,,,,,,,,,,,,,,,,,,,,,,,,,,,,,
062690,001,2022-11-14_01h26.56.284,Info_measure_main_exp,2022.2.2,Win32,60.53268765,,,,,,,,,,,,,,,,,,masks/mask_004.jpg,,,,,,,,,,,,,,,,,,,,,,,,,,,,,,,,,,,,,,,,,,,0,3,3,3,1,,,,,,,,,,,,,,,,,,,,,,,,,,,,,,,,,,,,,,,,,,,,,,
062690,001,2022-11-14_01h26.56.284,Info_measure_main_exp,2022.2.2,Win32,60.53268765,,,,,,,,,,,,,,,,,,masks/mask_003.jpg,,,,,,,,,,,,,,,,,,,,,,,,,,,,,,,,,,,,,,,,,,,0,4,4,2,1,,,,,,,,,,,,,,,,,,,,,,,,,,,,,,,,,,,,,,,,,,,,,,
062690,001,2022-11-14_01h26.56.284,Info_measure_main_exp,2022.2.2,Win32,60.53268765,,,,,,,,,,,,,,,,,,masks/mask_005.jpg,,,,,,,,,,,,,,,,,,,,,,,,,,,,,,,,,,,,,,,,,,,,,,,,0,0,0,4,1,,,,,,,,,,,,,,,,,,,,,,,,,,,,,,,,,,,,,,,,,
062690,001,2022-11-14_01h26.56.284,Info_measure_main_exp,2022.2.2,Win32,60.53268765,,,,,,,,,,,,,,,,,,masks/mask_001.jpg,,,,,,,,,,,,,,,,,,,,,,,,,,,,,,,,,,,,,,,,,,,,,,,,0,1,1,0,1,,,,,,,,,,,,,,,,,,,,,,,,,,,,,,,,,,,,,,,,,
062690,001,2022-11-14_01h26.56.284,Info_measure_main_exp,2022.2.2,Win32,60.53268765,,,,,,,,,,,,,,,,,,masks/mask_004.jpg,,,,,,,,,,,,,,,,,,,,,,,,,,,,,,,,,,,,,,,,,,,,,,,,0,2,2,3,1,,,,,,,,,,,,,,,,,,,,,,,,,,,,,,,,,,,,,,,,,
062690,001,2022-11-14_01h26.56.284,Info_measure_main_exp,2022.2.2,Win32,60.53268765,,,,,,,,,,,,,,,,,,masks/mask_002.jpg,,,,,,,,,,,,,,,,,,,,,,,,,,,,,,,,,,,,,,,,,,,,,,,,0,3,3,1,1,,,,,,,,,,,,,,,,,,,,,,,,,,,,,,,,,,,,,,,,,
062690,001,2022-11-14_01h26.56.284,Info_measure_main_exp,2022.2.2,Win32,60.53268765,,,,,,,,,,,,,,,,,,masks/mask_003.jpg,,,,,,,,,,,,,,,,,,,,,,,,,,,,,,,,,,,,,,,,,,,,,,,,0,4,4,2,1,,,,,,,,,,,,,,,,,,,,,,,,,,,,,,,,,,,,,,,,,
062690,001,2022-11-14_01h26.56.284,Info_measure_main_exp,2022.2.2,Win32,60.53268765,,,,,,,,,,,,,,,,,,,,,,,,,,,,,,7,1.7114,1,,,,,,,,,,,,0,131,5,5,2274,1950,absent_patch/patch0002274.jpg,absent_patch/patch0001950.jpg,,,,,,,,,,,,,,,,,,,,0.056481467,0.1324074,1,0,0,response1disk,2,0.001851894,0.008333312,1,0,0,center_square,0,1,1,10,1,,,,,,,,,,,,,,,,,,,,,,,
062690,001,2022-11-14_01h26.56.284,Info_measure_main_exp,2022.2.2,Win32,60.53268765,,,,,,,,,,,,,,,,,,masks/mask_005.jpg,,,,,,,,,,,,,,,,,,,,,,,,,,,,,,,,,,,,,,,,,,,0,0,0,4,1,,,,,,,,,,,,,,,,,,,,,,,,,,,,,,,,,,,,,,,,,,,,,,
062690,001,2022-11-14_01h26.56.284,Info_measure_main_exp,2022.2.2,Win32,60.53268765,,,,,,,,,,,,,,,,,,masks/mask_003.jpg,,,,,,,,,,,,,,,,,,,,,,,,,,,,,,,,,,,,,,,,,,,0,1,1,2,1,,,,,,,,,,,,,,,,,,,,,,,,,,,,,,,,,,,,,,,,,,,,,,
062690,001,2022-11-14_01h26.56.284,Info_measure_main_exp,2022.2.2,Win32,60.53268765,,,,,,,,,,,,,,,,,,masks/mask_001.jpg,,,,,,,,,,,,,,,,,,,,,,,,,,,,,,,,,,,,,,,,,,,0,2,2,0,1,,,,,,,,,,,,,,,,,,,,,,,,,,,,,,,,,,,,,,,,,,,,,,
062690,001,2022-11-14_01h26.56.284,Info_measure_main_exp,2022.2.2,Win32,60.53268765,,,,,,,,,,,,,,,,,,masks/mask_004.jpg,,,,,,,,,,,,,,,,,,,,,,,,,,,,,,,,,,,,,,,,,,,0,3,3,3,1,,,,,,,,,,,,,,,,,,,,,,,,,,,,,,,,,,,,,,,,,,,,,,
062690,001,2022-11-14_01h26.56.284,Info_measure_main_exp,2022.2.2,Win32,60.53268765,,,,,,,,,,,,,,,,,,masks/mask_002.jpg,,,,,,,,,,,,,,,,,,,,,,,,,,,,,,,,,,,,,,,,,,,0,4,4,1,1,,,,,,,,,,,,,,,,,,,,,,,,,,,,,,,,,,,,,,,,,,,,,,
062690,001,2022-11-14_01h26.56.284,Info_measure_main_exp,2022.2.2,Win32,60.53268765,,,,,,,,,,,,,,,,,,masks/mask_001.jpg,,,,,,,,,,,,,,,,,,,,,,,,,,,,,,,,,,,,,,,,,,,,,,,,0,0,0,0,1,,,,,,,,,,,,,,,,,,,,,,,,,,,,,,,,,,,,,,,,,
062690,001,2022-11-14_01h26.56.284,Info_measure_main_exp,2022.2.2,Win32,60.53268765,,,,,,,,,,,,,,,,,,masks/mask_003.jpg,,,,,,,,,,,,,,,,,,,,,,,,,,,,,,,,,,,,,,,,,,,,,,,,0,1,1,2,1,,,,,,,,,,,,,,,,,,,,,,,,,,,,,,,,,,,,,,,,,
062690,001,2022-11-14_01h26.56.284,Info_measure_main_exp,2022.2.2,Win32,60.53268765,,,,,,,,,,,,,,,,,,masks/mask_004.jpg,,,,,,,,,,,,,,,,,,,,,,,,,,,,,,,,,,,,,,,,,,,,,,,,0,2,2,3,1,,,,,,,,,,,,,,,,,,,,,,,,,,,,,,,,,,,,,,,,,
062690,001,2022-11-14_01h26.56.284,Info_measure_main_exp,2022.2.2,Win32,60.53268765,,,,,,,,,,,,,,,,,,masks/mask_002.jpg,,,,,,,,,,,,,,,,,,,,,,,,,,,,,,,,,,,,,,,,,,,,,,,,0,3,3,1,1,,,,,,,,,,,,,,,,,,,,,,,,,,,,,,,,,,,,,,,,,
062690,001,2022-11-14_01h26.56.284,Info_measure_main_exp,2022.2.2,Win32,60.53268765,,,,,,,,,,,,,,,,,,masks/mask_005.jpg,,,,,,,,,,,,,,,,,,,,,,,,,,,,,,,,,,,,,,,,,,,,,,,,0,4,4,4,1,,,,,,,,,,,,,,,,,,,,,,,,,,,,,,,,,,,,,,,,,
062690,001,2022-11-14_01h26.56.284,Info_measure_main_exp,2022.2.2,Win32,60.53268765,,,,,,,,,,,,,,,,,,,,,,,,,,,,,,7,1.03,1,,,,,,,,,,,,0,131,5,5,1974,2166,absent_patch/patch0001974.jpg,absent_patch/patch0002166.jpg,,,,,,,,,,,,,,,,,,,,0.055555556,0.125925912,1,0,0,response1disk,3,-0.00462963,0.0074074,1,0,0,center_square,0,2,2,77,1,,,,,,,,,,,,,,,,,,,,,,,
062690,001,2022-11-14_01h26.56.284,Info_measure_main_exp,2022.2.2,Win32,60.53268765,,,,,,,,,,,,,,,,,,masks/mask_005.jpg,,,,,,,,,,,,,,,,,,,,,,,,,,,,,,,,,,,,,,,,,,,0,0,0,4,1,,,,,,,,,,,,,,,,,,,,,,,,,,,,,,,,,,,,,,,,,,,,,,
062690,001,2022-11-14_01h26.56.284,Info_measure_main_exp,2022.2.2,Win32,60.53268765,,,,,,,,,,,,,,,,,,masks/mask_002.jpg,,,,,,,,,,,,,,,,,,,,,,,,,,,,,,,,,,,,,,,,,,,0,1,1,1,1,,,,,,,,,,,,,,,,,,,,,,,,,,,,,,,,,,,,,,,,,,,,,,
062690,001,2022-11-14_01h26.56.284,Info_measure_main_exp,2022.2.2,Win32,60.53268765,,,,,,,,,,,,,,,,,,masks/mask_003.jpg,,,,,,,,,,,,,,,,,,,,,,,,,,,,,,,,,,,,,,,,,,,0,2,2,2,1,,,,,,,,,,,,,,,,,,,,,,,,,,,,,,,,,,,,,,,,,,,,,,
062690,001,2022-11-14_01h26.56.284,Info_measure_main_exp,2022.2.2,Win32,60.53268765,,,,,,,,,,,,,,,,,,masks/mask_004.jpg,,,,,,,,,,,,,,,,,,,,,,,,,,,,,,,,,,,,,,,,,,,0,3,3,3,1,,,,,,,,,,,,,,,,,,,,,,,,,,,,,,,,,,,,,,,,,,,,,,
062690,001,2022-11-14_01h26.56.284,Info_measure_main_exp,2022.2.2,Win32,60.53268765,,,,,,,,,,,,,,,,,,masks/mask_001.jpg,,,,,,,,,,,,,,,,,,,,,,,,,,,,,,,,,,,,,,,,,,,0,4,4,0,1,,,,,,,,,,,,,,,,,,,,,,,,,,,,,,,,,,,,,,,,,,,,,,
062690,001,2022-11-14_01h26.56.284,Info_measure_main_exp,2022.2.2,Win32,60.53268765,,,,,,,,,,,,,,,,,,masks/mask_005.jpg,,,,,,,,,,,,,,,,,,,,,,,,,,,,,,,,,,,,,,,,,,,,,,,,0,0,0,4,1,,,,,,,,,,,,,,,,,,,,,,,,,,,,,,,,,,,,,,,,,
062690,001,2022-11-14_01h26.56.284,Info_measure_main_exp,2022.2.2,Win32,60.53268765,,,,,,,,,,,,,,,,,,masks/mask_003.jpg,,,,,,,,,,,,,,,,,,,,,,,,,,,,,,,,,,,,,,,,,,,,,,,,0,1,1,2,1,,,,,,,,,,,,,,,,,,,,,,,,,,,,,,,,,,,,,,,,,
062690,001,2022-11-14_01h26.56.284,Info_measure_main_exp,2022.2.2,Win32,60.53268765,,,,,,,,,,,,,,,,,,masks/mask_001.jpg,,,,,,,,,,,,,,,,,,,,,,,,,,,,,,,,,,,,,,,,,,,,,,,,0,2,2,0,1,,,,,,,,,,,,,,,,,,,,,,,,,,,,,,,,,,,,,,,,,
062690,001,2022-11-14_01h26.56.284,Info_measure_main_exp,2022.2.2,Win32,60.53268765,,,,,,,,,,,,,,,,,,masks/mask_002.jpg,,,,,,,,,,,,,,,,,,,,,,,,,,,,,,,,,,,,,,,,,,,,,,,,0,3,3,1,1,,,,,,,,,,,,,,,,,,,,,,,,,,,,,,,,,,,,,,,,,
062690,001,2022-11-14_01h26.56.284,Info_measure_main_exp,2022.2.2,Win32,60.53268765,,,,,,,,,,,,,,,,,,masks/mask_004.jpg,,,,,,,,,,,,,,,,,,,,,,,,,,,,,,,,,,,,,,,,,,,,,,,,0,4,4,3,1,,,,,,,,,,,,,,,,,,,,,,,,,,,,,,,,,,,,,,,,,
062690,001,2022-11-14_01h26.56.284,Info_measure_main_exp,2022.2.2,Win32,60.53268765,,,,,,,,,,,,,,,,,,,,,,,,,,,,,,4,6.0831,1,,,,,,,,,,,,0,131,5,5,2298,1986,absent_patch/patch0002298.jpg,absent_patch/patch0001986.jpg,,,,,,,,,,,,,,,,,,,,0.088888875,-0.10092594,1,0,0,response3disk,4,0.008333347,-0.000925947,1,0,0,center_square,0,3,3,32,1,,,,,,,,,,,,,,,,,,,,,,,
062690,001,2022-11-14_01h26.56.284,Info_measure_main_exp,2022.2.2,Win32,60.53268765,,,,,,,,,,,,,,,,,,masks/mask_003.jpg,,,,,,,,,,,,,,,,,,,,,,,,,,,,,,,,,,,,,,,,,,,0,0,0,2,1,,,,,,,,,,,,,,,,,,,,,,,,,,,,,,,,,,,,,,,,,,,,,,
062690,001,2022-11-14_01h26.56.284,Info_measure_main_exp,2022.2.2,Win32,60.53268765,,,,,,,,,,,,,,,,,,masks/mask_005.jpg,,,,,,,,,,,,,,,,,,,,,,,,,,,,,,,,,,,,,,,,,,,0,1,1,4,1,,,,,,,,,,,,,,,,,,,,,,,,,,,,,,,,,,,,,,,,,,,,,,
062690,001,2022-11-14_01h26.56.284,Info_measure_main_exp,2022.2.2,Win32,60.53268765,,,,,,,,,,,,,,,,,,masks/mask_004.jpg,,,,,,,,,,,,,,,,,,,,,,,,,,,,,,,,,,,,,,,,,,,0,2,2,3,1,,,,,,,,,,,,,,,,,,,,,,,,,,,,,,,,,,,,,,,,,,,,,,
062690,001,2022-11-14_01h26.56.284,Info_measure_main_exp,2022.2.2,Win32,60.53268765,,,,,,,,,,,,,,,,,,masks/mask_002.jpg,,,,,,,,,,,,,,,,,,,,,,,,,,,,,,,,,,,,,,,,,,,0,3,3,1,1,,,,,,,,,,,,,,,,,,,,,,,,,,,,,,,,,,,,,,,,,,,,,,
062690,001,2022-11-14_01h26.56.284,Info_measure_main_exp,2022.2.2,Win32,60.53268765,,,,,,,,,,,,,,,,,,masks/mask_001.jpg,,,,,,,,,,,,,,,,,,,,,,,,,,,,,,,,,,,,,,,,,,,0,4,4,0,1,,,,,,,,,,,,,,,,,,,,,,,,,,,,,,,,,,,,,,,,,,,,,,
062690,001,2022-11-14_01h26.56.284,Info_measure_main_exp,2022.2.2,Win32,60.53268765,,,,,,,,,,,,,,,,,,masks/mask_001.jpg,,,,,,,,,,,,,,,,,,,,,,,,,,,,,,,,,,,,,,,,,,,,,,,,0,0,0,0,1,,,,,,,,,,,,,,,,,,,,,,,,,,,,,,,,,,,,,,,,,
062690,001,2022-11-14_01h26.56.284,Info_measure_main_exp,2022.2.2,Win32,60.53268765,,,,,,,,,,,,,,,,,,masks/mask_002.jpg,,,,,,,,,,,,,,,,,,,,,,,,,,,,,,,,,,,,,,,,,,,,,,,,0,1,1,1,1,,,,,,,,,,,,,,,,,,,,,,,,,,,,,,,,,,,,,,,,,
062690,001,2022-11-14_01h26.56.284,Info_measure_main_exp,2022.2.2,Win32,60.53268765,,,,,,,,,,,,,,,,,,masks/mask_005.jpg,,,,,,,,,,,,,,,,,,,,,,,,,,,,,,,,,,,,,,,,,,,,,,,,0,2,2,4,1,,,,,,,,,,,,,,,,,,,,,,,,,,,,,,,,,,,,,,,,,
062690,001,2022-11-14_01h26.56.284,Info_measure_main_exp,2022.2.2,Win32,60.53268765,,,,,,,,,,,,,,,,,,masks/mask_003.jpg,,,,,,,,,,,,,,,,,,,,,,,,,,,,,,,,,,,,,,,,,,,,,,,,0,3,3,2,1,,,,,,,,,,,,,,,,,,,,,,,,,,,,,,,,,,,,,,,,,
062690,001,2022-11-14_01h26.56.284,Info_measure_main_exp,2022.2.2,Win32,60.53268765,,,,,,,,,,,,,,,,,,masks/mask_004.jpg,,,,,,,,,,,,,,,,,,,,,,,,,,,,,,,,,,,,,,,,,,,,,,,,0,4,4,3,1,,,,,,,,,,,,,,,,,,,,,,,,,,,,,,,,,,,,,,,,,
062690,001,2022-11-14_01h26.56.284,Info_measure_main_exp,2022.2.2,Win32,60.53268765,,,,,,,,,,,,,,,,,,,,,,,,,,,,,,2,1.8112,1,,,,,,,,,,,,0,131,5,5,1950,2142,absent_patch/patch0001950.jpg,absent_patch/patch0002142.jpg,,,,,,,,,,,,,,,,,,,,-0.094444416,-0.050000014,1,0,0,response5disk,5,-0.001851824,0.003703683,1,0,0,center_square,0,4,4,83,1,,,,,,,,,,,,,,,,,,,,,,,
062690,001,2022-11-14_01h26.56.284,Info_measure_main_exp,2022.2.2,Win32,60.53268765,,,,,,,,,,,,,,,,,,masks/mask_002.jpg,,,,,,,,,,,,,,,,,,,,,,,,,,,,,,,,,,,,,,,,,,,0,0,0,1,1,,,,,,,,,,,,,,,,,,,,,,,,,,,,,,,,,,,,,,,,,,,,,,
062690,001,2022-11-14_01h26.56.284,Info_measure_main_exp,2022.2.2,Win32,60.53268765,,,,,,,,,,,,,,,,,,masks/mask_005.jpg,,,,,,,,,,,,,,,,,,,,,,,,,,,,,,,,,,,,,,,,,,,0,1,1,4,1,,,,,,,,,,,,,,,,,,,,,,,,,,,,,,,,,,,,,,,,,,,,,,
062690,001,2022-11-14_01h26.56.284,Info_measure_main_exp,2022.2.2,Win32,60.53268765,,,,,,,,,,,,,,,,,,masks/mask_001.jpg,,,,,,,,,,,,,,,,,,,,,,,,,,,,,,,,,,,,,,,,,,,0,2,2,0,1,,,,,,,,,,,,,,,,,,,,,,,,,,,,,,,,,,,,,,,,,,,,,,
062690,001,2022-11-14_01h26.56.284,Info_measure_main_exp,2022.2.2,Win32,60.53268765,,,,,,,,,,,,,,,,,,masks/mask_003.jpg,,,,,,,,,,,,,,,,,,,,,,,,,,,,,,,,,,,,,,,,,,,0,3,3,2,1,,,,,,,,,,,,,,,,,,,,,,,,,,,,,,,,,,,,,,,,,,,,,,
062690,001,2022-11-14_01h26.56.284,Info_measure_main_exp,2022.2.2,Win32,60.53268765,,,,,,,,,,,,,,,,,,masks/mask_004.jpg,,,,,,,,,,,,,,,,,,,,,,,,,,,,,,,,,,,,,,,,,,,0,4,4,3,1,,,,,,,,,,,,,,,,,,,,,,,,,,,,,,,,,,,,,,,,,,,,,,
062690,001,2022-11-14_01h26.56.284,Info_measure_main_exp,2022.2.2,Win32,60.53268765,,,,,,,,,,,,,,,,,,masks/mask_003.jpg,,,,,,,,,,,,,,,,,,,,,,,,,,,,,,,,,,,,,,,,,,,,,,,,0,0,0,2,1,,,,,,,,,,,,,,,,,,,,,,,,,,,,,,,,,,,,,,,,,
062690,001,2022-11-14_01h26.56.284,Info_measure_main_exp,2022.2.2,Win32,60.53268765,,,,,,,,,,,,,,,,,,masks/mask_005.jpg,,,,,,,,,,,,,,,,,,,,,,,,,,,,,,,,,,,,,,,,,,,,,,,,0,1,1,4,1,,,,,,,,,,,,,,,,,,,,,,,,,,,,,,,,,,,,,,,,,
062690,001,2022-11-14_01h26.56.284,Info_measure_main_exp,2022.2.2,Win32,60.53268765,,,,,,,,,,,,,,,,,,masks/mask_001.jpg,,,,,,,,,,,,,,,,,,,,,,,,,,,,,,,,,,,,,,,,,,,,,,,,0,2,2,0,1,,,,,,,,,,,,,,,,,,,,,,,,,,,,,,,,,,,,,,,,,
062690,001,2022-11-14_01h26.56.284,Info_measure_main_exp,2022.2.2,Win32,60.53268765,,,,,,,,,,,,,,,,,,masks/mask_002.jpg,,,,,,,,,,,,,,,,,,,,,,,,,,,,,,,,,,,,,,,,,,,,,,,,0,3,3,1,1,,,,,,,,,,,,,,,,,,,,,,,,,,,,,,,,,,,,,,,,,
062690,001,2022-11-14_01h26.56.284,Info_measure_main_exp,2022.2.2,Win32,60.53268765,,,,,,,,,,,,,,,,,,masks/mask_004.jpg,,,,,,,,,,,,,,,,,,,,,,,,,,,,,,,,,,,,,,,,,,,,,,,,0,4,4,3,1,,,,,,,,,,,,,,,,,,,,,,,,,,,,,,,,,,,,,,,,,
062690,001,2022-11-14_01h26.56.284,Info_measure_main_exp,2022.2.2,Win32,60.53268765,,,,,,,,,,,,,,,,,,,,,,,,,,,,,,5,1.9776,1,,,,,,,,,,,,0,131,5,5,2166,2298,absent_patch/patch0002166.jpg,absent_patch/patch0002298.jpg,,,,,,,,,,,,,,,,,,,,0.089814857,-0.037037037,1,0,0,response3disk,6,-0.010185171,0.000925912,1,0,0,center_square,0,5,5,52,1,,,,,,,,,,,,,,,,,,,,,,,
062690,001,2022-11-14_01h26.56.284,Info_measure_main_exp,2022.2.2,Win32,60.53268765,,,,,,,,,,,,,,,,,,masks/mask_001.jpg,,,,,,,,,,,,,,,,,,,,,,,,,,,,,,,,,,,,,,,,,,,0,0,0,0,1,,,,,,,,,,,,,,,,,,,,,,,,,,,,,,,,,,,,,,,,,,,,,,
062690,001,2022-11-14_01h26.56.284,Info_measure_main_exp,2022.2.2,Win32,60.53268765,,,,,,,,,,,,,,,,,,masks/mask_002.jpg,,,,,,,,,,,,,,,,,,,,,,,,,,,,,,,,,,,,,,,,,,,0,1,1,1,1,,,,,,,,,,,,,,,,,,,,,,,,,,,,,,,,,,,,,,,,,,,,,,
062690,001,2022-11-14_01h26.56.284,Info_measure_main_exp,2022.2.2,Win32,60.53268765,,,,,,,,,,,,,,,,,,masks/mask_005.jpg,,,,,,,,,,,,,,,,,,,,,,,,,,,,,,,,,,,,,,,,,,,0,2,2,4,1,,,,,,,,,,,,,,,,,,,,,,,,,,,,,,,,,,,,,,,,,,,,,,
062690,001,2022-11-14_01h26.56.284,Info_measure_main_exp,2022.2.2,Win32,60.53268765,,,,,,,,,,,,,,,,,,masks/mask_004.jpg,,,,,,,,,,,,,,,,,,,,,,,,,,,,,,,,,,,,,,,,,,,0,3,3,3,1,,,,,,,,,,,,,,,,,,,,,,,,,,,,,,,,,,,,,,,,,,,,,,
062690,001,2022-11-14_01h26.56.284,Info_measure_main_exp,2022.2.2,Win32,60.53268765,,,,,,,,,,,,,,,,,,masks/mask_003.jpg,,,,,,,,,,,,,,,,,,,,,,,,,,,,,,,,,,,,,,,,,,,0,4,4,2,1,,,,,,,,,,,,,,,,,,,,,,,,,,,,,,,,,,,,,,,,,,,,,,
062690,001,2022-11-14_01h26.56.284,Info_measure_main_exp,2022.2.2,Win32,60.53268765,,,,,,,,,,,,,,,,,,masks/mask_001.jpg,,,,,,,,,,,,,,,,,,,,,,,,,,,,,,,,,,,,,,,,,,,,,,,,0,0,0,0,1,,,,,,,,,,,,,,,,,,,,,,,,,,,,,,,,,,,,,,,,,
062690,001,2022-11-14_01h26.56.284,Info_measure_main_exp,2022.2.2,Win32,60.53268765,,,,,,,,,,,,,,,,,,masks/mask_004.jpg,,,,,,,,,,,,,,,,,,,,,,,,,,,,,,,,,,,,,,,,,,,,,,,,0,1,1,3,1,,,,,,,,,,,,,,,,,,,,,,,,,,,,,,,,,,,,,,,,,
062690,001,2022-11-14_01h26.56.284,Info_measure_main_exp,2022.2.2,Win32,60.53268765,,,,,,,,,,,,,,,,,,masks/mask_005.jpg,,,,,,,,,,,,,,,,,,,,,,,,,,,,,,,,,,,,,,,,,,,,,,,,0,2,2,4,1,,,,,,,,,,,,,,,,,,,,,,,,,,,,,,,,,,,,,,,,,
062690,001,2022-11-14_01h26.56.284,Info_measure_main_exp,2022.2.2,Win32,60.53268765,,,,,,,,,,,,,,,,,,masks/mask_003.jpg,,,,,,,,,,,,,,,,,,,,,,,,,,,,,,,,,,,,,,,,,,,,,,,,0,3,3,2,1,,,,,,,,,,,,,,,,,,,,,,,,,,,,,,,,,,,,,,,,,
062690,001,2022-11-14_01h26.56.284,Info_measure_main_exp,2022.2.2,Win32,60.53268765,,,,,,,,,,,,,,,,,,masks/mask_002.jpg,,,,,,,,,,,,,,,,,,,,,,,,,,,,,,,,,,,,,,,,,,,,,,,,0,4,4,1,1,,,,,,,,,,,,,,,,,,,,,,,,,,,,,,,,,,,,,,,,,
062690,001,2022-11-14_01h26.56.284,Info_measure_main_exp,2022.2.2,Win32,60.53268765,,,,,,,,,,,,,,,,,,,,,,,,,,,,,,4,2.5429,1,,,,,,,,,,,,0,131,5,5,2250,2178,absent_patch/patch0002250.jpg,absent_patch/patch0002178.jpg,,,,,,,,,,,,,,,,,,,,0.05740745,-0.101851852,1,0,0,response3disk,7,-0.005555541,0.000925912,1,0,0,center_square,0,6,6,48,1,,,,,,,,,,,,,,,,,,,,,,,
062690,001,2022-11-14_01h26.56.284,Info_measure_main_exp,2022.2.2,Win32,60.53268765,,,,,,,,,,,,,,,,,,masks/mask_001.jpg,,,,,,,,,,,,,,,,,,,,,,,,,,,,,,,,,,,,,,,,,,,0,0,0,0,1,,,,,,,,,,,,,,,,,,,,,,,,,,,,,,,,,,,,,,,,,,,,,,
062690,001,2022-11-14_01h26.56.284,Info_measure_main_exp,2022.2.2,Win32,60.53268765,,,,,,,,,,,,,,,,,,masks/mask_002.jpg,,,,,,,,,,,,,,,,,,,,,,,,,,,,,,,,,,,,,,,,,,,0,1,1,1,1,,,,,,,,,,,,,,,,,,,,,,,,,,,,,,,,,,,,,,,,,,,,,,
062690,001,2022-11-14_01h26.56.284,Info_measure_main_exp,2022.2.2,Win32,60.53268765,,,,,,,,,,,,,,,,,,masks/mask_003.jpg,,,,,,,,,,,,,,,,,,,,,,,,,,,,,,,,,,,,,,,,,,,0,2,2,2,1,,,,,,,,,,,,,,,,,,,,,,,,,,,,,,,,,,,,,,,,,,,,,,
062690,001,2022-11-14_01h26.56.284,Info_measure_main_exp,2022.2.2,Win32,60.53268765,,,,,,,,,,,,,,,,,,masks/mask_004.jpg,,,,,,,,,,,,,,,,,,,,,,,,,,,,,,,,,,,,,,,,,,,0,3,3,3,1,,,,,,,,,,,,,,,,,,,,,,,,,,,,,,,,,,,,,,,,,,,,,,
062690,001,2022-11-14_01h26.56.284,Info_measure_main_exp,2022.2.2,Win32,60.53268765,,,,,,,,,,,,,,,,,,masks/mask_005.jpg,,,,,,,,,,,,,,,,,,,,,,,,,,,,,,,,,,,,,,,,,,,0,4,4,4,1,,,,,,,,,,,,,,,,,,,,,,,,,,,,,,,,,,,,,,,,,,,,,,
062690,001,2022-11-14_01h26.56.284,Info_measure_main_exp,2022.2.2,Win32,60.53268765,,,,,,,,,,,,,,,,,,masks/mask_004.jpg,,,,,,,,,,,,,,,,,,,,,,,,,,,,,,,,,,,,,,,,,,,,,,,,0,0,0,3,1,,,,,,,,,,,,,,,,,,,,,,,,,,,,,,,,,,,,,,,,,
062690,001,2022-11-14_01h26.56.284,Info_measure_main_exp,2022.2.2,Win32,60.53268765,,,,,,,,,,,,,,,,,,masks/mask_003.jpg,,,,,,,,,,,,,,,,,,,,,,,,,,,,,,,,,,,,,,,,,,,,,,,,0,1,1,2,1,,,,,,,,,,,,,,,,,,,,,,,,,,,,,,,,,,,,,,,,,
062690,001,2022-11-14_01h26.56.284,Info_measure_main_exp,2022.2.2,Win32,60.53268765,,,,,,,,,,,,,,,,,,masks/mask_001.jpg,,,,,,,,,,,,,,,,,,,,,,,,,,,,,,,,,,,,,,,,,,,,,,,,0,2,2,0,1,,,,,,,,,,,,,,,,,,,,,,,,,,,,,,,,,,,,,,,,,
062690,001,2022-11-14_01h26.56.284,Info_measure_main_exp,2022.2.2,Win32,60.53268765,,,,,,,,,,,,,,,,,,masks/mask_002.jpg,,,,,,,,,,,,,,,,,,,,,,,,,,,,,,,,,,,,,,,,,,,,,,,,0,3,3,1,1,,,,,,,,,,,,,,,,,,,,,,,,,,,,,,,,,,,,,,,,,
062690,001,2022-11-14_01h26.56.284,Info_measure_main_exp,2022.2.2,Win32,60.53268765,,,,,,,,,,,,,,,,,,masks/mask_005.jpg,,,,,,,,,,,,,,,,,,,,,,,,,,,,,,,,,,,,,,,,,,,,,,,,0,4,4,4,1,,,,,,,,,,,,,,,,,,,,,,,,,,,,,,,,,,,,,,,,,
062690,001,2022-11-14_01h26.56.284,Info_measure_main_exp,2022.2.2,Win32,60.53268765,,,,,,,,,,,,,,,,,,,,,,,,,,,,,,4,3.9559,1,,,,,,,,,,,,0,131,5,5,1986,2142,absent_patch/patch0001986.jpg,absent_patch/patch0002142.jpg,,,,,,,,,,,,,,,,,,,,0.062037079,-0.127777806,1,0,0,response3disk,8,-0.003703718,0.009259259,1,0,0,center_square,0,7,7,76,1,,,,,,,,,,,,,,,,,,,,,,,
062690,001,2022-11-14_01h26.56.284,Info_measure_main_exp,2022.2.2,Win32,60.53268765,,,,,,,,,,,,,,,,,,masks/mask_005.jpg,,,,,,,,,,,,,,,,,,,,,,,,,,,,,,,,,,,,,,,,,,,0,0,0,4,1,,,,,,,,,,,,,,,,,,,,,,,,,,,,,,,,,,,,,,,,,,,,,,
062690,001,2022-11-14_01h26.56.284,Info_measure_main_exp,2022.2.2,Win32,60.53268765,,,,,,,,,,,,,,,,,,masks/mask_003.jpg,,,,,,,,,,,,,,,,,,,,,,,,,,,,,,,,,,,,,,,,,,,0,1,1,2,1,,,,,,,,,,,,,,,,,,,,,,,,,,,,,,,,,,,,,,,,,,,,,,
062690,001,2022-11-14_01h26.56.284,Info_measure_main_exp,2022.2.2,Win32,60.53268765,,,,,,,,,,,,,,,,,,masks/mask_001.jpg,,,,,,,,,,,,,,,,,,,,,,,,,,,,,,,,,,,,,,,,,,,0,2,2,0,1,,,,,,,,,,,,,,,,,,,,,,,,,,,,,,,,,,,,,,,,,,,,,,
062690,001,2022-11-14_01h26.56.284,Info_measure_main_exp,2022.2.2,Win32,60.53268765,,,,,,,,,,,,,,,,,,masks/mask_002.jpg,,,,,,,,,,,,,,,,,,,,,,,,,,,,,,,,,,,,,,,,,,,0,3,3,1,1,,,,,,,,,,,,,,,,,,,,,,,,,,,,,,,,,,,,,,,,,,,,,,
062690,001,2022-11-14_01h26.56.284,Info_measure_main_exp,2022.2.2,Win32,60.53268765,,,,,,,,,,,,,,,,,,masks/mask_004.jpg,,,,,,,,,,,,,,,,,,,,,,,,,,,,,,,,,,,,,,,,,,,0,4,4,3,1,,,,,,,,,,,,,,,,,,,,,,,,,,,,,,,,,,,,,,,,,,,,,,
062690,001,2022-11-14_01h26.56.284,Info_measure_main_exp,2022.2.2,Win32,60.53268765,,,,,,,,,,,,,,,,,,masks/mask_001.jpg,,,,,,,,,,,,,,,,,,,,,,,,,,,,,,,,,,,,,,,,,,,,,,,,0,0,0,0,1,,,,,,,,,,,,,,,,,,,,,,,,,,,,,,,,,,,,,,,,,
062690,001,2022-11-14_01h26.56.284,Info_measure_main_exp,2022.2.2,Win32,60.53268765,,,,,,,,,,,,,,,,,,masks/mask_004.jpg,,,,,,,,,,,,,,,,,,,,,,,,,,,,,,,,,,,,,,,,,,,,,,,,0,1,1,3,1,,,,,,,,,,,,,,,,,,,,,,,,,,,,,,,,,,,,,,,,,
062690,001,2022-11-14_01h26.56.284,Info_measure_main_exp,2022.2.2,Win32,60.53268765,,,,,,,,,,,,,,,,,,masks/mask_002.jpg,,,,,,,,,,,,,,,,,,,,,,,,,,,,,,,,,,,,,,,,,,,,,,,,0,2,2,1,1,,,,,,,,,,,,,,,,,,,,,,,,,,,,,,,,,,,,,,,,,
062690,001,2022-11-14_01h26.56.284,Info_measure_main_exp,2022.2.2,Win32,60.53268765,,,,,,,,,,,,,,,,,,masks/mask_005.jpg,,,,,,,,,,,,,,,,,,,,,,,,,,,,,,,,,,,,,,,,,,,,,,,,0,3,3,4,1,,,,,,,,,,,,,,,,,,,,,,,,,,,,,,,,,,,,,,,,,
062690,001,2022-11-14_01h26.56.284,Info_measure_main_exp,2022.2.2,Win32,60.53268765,,,,,,,,,,,,,,,,,,masks/mask_003.jpg,,,,,,,,,,,,,,,,,,,,,,,,,,,,,,,,,,,,,,,,,,,,,,,,0,4,4,2,1,,,,,,,,,,,,,,,,,,,,,,,,,,,,,,,,,,,,,,,,,
062690,001,2022-11-14_01h26.56.284,Info_measure_main_exp,2022.2.2,Win32,60.53268765,,,,,,,,,,,,,,,,,,,,,,,,,,,,,,5,3.224,1,,,,,,,,,,,,0,131,5,5,2142,2154,absent_patch/patch0002142.jpg,absent_patch/patch0002154.jpg,,,,,,,,,,,,,,,,,,,,0.09629631,-0.066666674,1,0,0,response3disk,9,0.00462963,0.01203703,1,0,0,center_square,0,8,8,9,1,,,,,,,,,,,,,,,,,,,,,,,
062690,001,2022-11-14_01h26.56.284,Info_measure_main_exp,2022.2.2,Win32,60.53268765,,,,,,,,,,,,,,,,,,masks/mask_004.jpg,,,,,,,,,,,,,,,,,,,,,,,,,,,,,,,,,,,,,,,,,,,0,0,0,3,1,,,,,,,,,,,,,,,,,,,,,,,,,,,,,,,,,,,,,,,,,,,,,,
062690,001,2022-11-14_01h26.56.284,Info_measure_main_exp,2022.2.2,Win32,60.53268765,,,,,,,,,,,,,,,,,,masks/mask_001.jpg,,,,,,,,,,,,,,,,,,,,,,,,,,,,,,,,,,,,,,,,,,,0,1,1,0,1,,,,,,,,,,,,,,,,,,,,,,,,,,,,,,,,,,,,,,,,,,,,,,
062690,001,2022-11-14_01h26.56.284,Info_measure_main_exp,2022.2.2,Win32,60.53268765,,,,,,,,,,,,,,,,,,masks/mask_002.jpg,,,,,,,,,,,,,,,,,,,,,,,,,,,,,,,,,,,,,,,,,,,0,2,2,1,1,,,,,,,,,,,,,,,,,,,,,,,,,,,,,,,,,,,,,,,,,,,,,,
062690,001,2022-11-14_01h26.56.284,Info_measure_main_exp,2022.2.2,Win32,60.53268765,,,,,,,,,,,,,,,,,,masks/mask_005.jpg,,,,,,,,,,,,,,,,,,,,,,,,,,,,,,,,,,,,,,,,,,,0,3,3,4,1,,,,,,,,,,,,,,,,,,,,,,,,,,,,,,,,,,,,,,,,,,,,,,
062690,001,2022-11-14_01h26.56.284,Info_measure_main_exp,2022.2.2,Win32,60.53268765,,,,,,,,,,,,,,,,,,masks/mask_003.jpg,,,,,,,,,,,,,,,,,,,,,,,,,,,,,,,,,,,,,,,,,,,0,4,4,2,1,,,,,,,,,,,,,,,,,,,,,,,,,,,,,,,,,,,,,,,,,,,,,,
062690,001,2022-11-14_01h26.56.284,Info_measure_main_exp,2022.2.2,Win32,60.53268765,,,,,,,,,,,,,,,,,,masks/mask_001.jpg,,,,,,,,,,,,,,,,,,,,,,,,,,,,,,,,,,,,,,,,,,,,,,,,0,0,0,0,1,,,,,,,,,,,,,,,,,,,,,,,,,,,,,,,,,,,,,,,,,
062690,001,2022-11-14_01h26.56.284,Info_measure_main_exp,2022.2.2,Win32,60.53268765,,,,,,,,,,,,,,,,,,masks/mask_004.jpg,,,,,,,,,,,,,,,,,,,,,,,,,,,,,,,,,,,,,,,,,,,,,,,,0,1,1,3,1,,,,,,,,,,,,,,,,,,,,,,,,,,,,,,,,,,,,,,,,,
062690,001,2022-11-14_01h26.56.284,Info_measure_main_exp,2022.2.2,Win32,60.53268765,,,,,,,,,,,,,,,,,,masks/mask_003.jpg,,,,,,,,,,,,,,,,,,,,,,,,,,,,,,,,,,,,,,,,,,,,,,,,0,2,2,2,1,,,,,,,,,,,,,,,,,,,,,,,,,,,,,,,,,,,,,,,,,
062690,001,2022-11-14_01h26.56.284,Info_measure_main_exp,2022.2.2,Win32,60.53268765,,,,,,,,,,,,,,,,,,masks/mask_002.jpg,,,,,,,,,,,,,,,,,,,,,,,,,,,,,,,,,,,,,,,,,,,,,,,,0,3,3,1,1,,,,,,,,,,,,,,,,,,,,,,,,,,,,,,,,,,,,,,,,,
062690,001,2022-11-14_01h26.56.284,Info_measure_main_exp,2022.2.2,Win32,60.53268765,,,,,,,,,,,,,,,,,,masks/mask_005.jpg,,,,,,,,,,,,,,,,,,,,,,,,,,,,,,,,,,,,,,,,,,,,,,,,0,4,4,4,1,,,,,,,,,,,,,,,,,,,,,,,,,,,,,,,,,,,,,,,,,
062690,001,2022-11-14_01h26.56.284,Info_measure_main_exp,2022.2.2,Win32,60.53268765,,,,,,,,,,,,,,,,,,,,,,,,,,,,,,1,1.7448,1,,,,,,,,,,,,1,131,5,5,1,2154,present_patch/cong_131_5_a.jpg,absent_patch/patch0002154.jpg,,,,,,,,,,,,,,,,,,,,-0.102777764,0.027777778,1,0,0,response7disk,10,-0.00462963,0.002777771,1,0,0,center_square,0,9,9,87,1,,,,,,,,,,,,,,,,,,,,,,,
062690,001,2022-11-14_01h26.56.284,Info_measure_main_exp,2022.2.2,Win32,60.53268765,,,,,,,,,,,,,,,,,,masks/mask_002.jpg,,,,,,,,,,,,,,,,,,,,,,,,,,,,,,,,,,,,,,,,,,,0,0,0,1,1,,,,,,,,,,,,,,,,,,,,,,,,,,,,,,,,,,,,,,,,,,,,,,
062690,001,2022-11-14_01h26.56.284,Info_measure_main_exp,2022.2.2,Win32,60.53268765,,,,,,,,,,,,,,,,,,masks/mask_003.jpg,,,,,,,,,,,,,,,,,,,,,,,,,,,,,,,,,,,,,,,,,,,0,1,1,2,1,,,,,,,,,,,,,,,,,,,,,,,,,,,,,,,,,,,,,,,,,,,,,,
062690,001,2022-11-14_01h26.56.284,Info_measure_main_exp,2022.2.2,Win32,60.53268765,,,,,,,,,,,,,,,,,,masks/mask_004.jpg,,,,,,,,,,,,,,,,,,,,,,,,,,,,,,,,,,,,,,,,,,,0,2,2,3,1,,,,,,,,,,,,,,,,,,,,,,,,,,,,,,,,,,,,,,,,,,,,,,
062690,001,2022-11-14_01h26.56.284,Info_measure_main_exp,2022.2.2,Win32,60.53268765,,,,,,,,,,,,,,,,,,masks/mask_001.jpg,,,,,,,,,,,,,,,,,,,,,,,,,,,,,,,,,,,,,,,,,,,0,3,3,0,1,,,,,,,,,,,,,,,,,,,,,,,,,,,,,,,,,,,,,,,,,,,,,,
062690,001,2022-11-14_01h26.56.284,Info_measure_main_exp,2022.2.2,Win32,60.53268765,,,,,,,,,,,,,,,,,,masks/mask_005.jpg,,,,,,,,,,,,,,,,,,,,,,,,,,,,,,,,,,,,,,,,,,,0,4,4,4,1,,,,,,,,,,,,,,,,,,,,,,,,,,,,,,,,,,,,,,,,,,,,,,
062690,001,2022-11-14_01h26.56.284,Info_measure_main_exp,2022.2.2,Win32,60.53268765,,,,,,,,,,,,,,,,,,masks/mask_002.jpg,,,,,,,,,,,,,,,,,,,,,,,,,,,,,,,,,,,,,,,,,,,,,,,,0,0,0,1,1,,,,,,,,,,,,,,,,,,,,,,,,,,,,,,,,,,,,,,,,,
062690,001,2022-11-14_01h26.56.284,Info_measure_main_exp,2022.2.2,Win32,60.53268765,,,,,,,,,,,,,,,,,,masks/mask_004.jpg,,,,,,,,,,,,,,,,,,,,,,,,,,,,,,,,,,,,,,,,,,,,,,,,0,1,1,3,1,,,,,,,,,,,,,,,,,,,,,,,,,,,,,,,,,,,,,,,,,
062690,001,2022-11-14_01h26.56.284,Info_measure_main_exp,2022.2.2,Win32,60.53268765,,,,,,,,,,,,,,,,,,masks/mask_001.jpg,,,,,,,,,,,,,,,,,,,,,,,,,,,,,,,,,,,,,,,,,,,,,,,,0,2,2,0,1,,,,,,,,,,,,,,,,,,,,,,,,,,,,,,,,,,,,,,,,,
062690,001,2022-11-14_01h26.56.284,Info_measure_main_exp,2022.2.2,Win32,60.53268765,,,,,,,,,,,,,,,,,,masks/mask_003.jpg,,,,,,,,,,,,,,,,,,,,,,,,,,,,,,,,,,,,,,,,,,,,,,,,0,3,3,2,1,,,,,,,,,,,,,,,,,,,,,,,,,,,,,,,,,,,,,,,,,
062690,001,2022-11-14_01h26.56.284,Info_measure_main_exp,2022.2.2,Win32,60.53268765,,,,,,,,,,,,,,,,,,masks/mask_005.jpg,,,,,,,,,,,,,,,,,,,,,,,,,,,,,,,,,,,,,,,,,,,,,,,,0,4,4,4,1,,,,,,,,,,,,,,,,,,,,,,,,,,,,,,,,,,,,,,,,,
062690,001,2022-11-14_01h26.56.284,Info_measure_main_exp,2022.2.2,Win32,60.53268765,,,,,,,,,,,,,,,,,,,,,,,,,,,,,,5,2.3101,1,,,,,,,,,,,,1,131,5,5,1,2142,present_patch/cong_131_5_a.jpg,absent_patch/patch0002142.jpg,,,,,,,,,,,,,,,,,,,,0.090740769,-0.048148155,1,0,0,response3disk,11,-0.012036995,-0.002777771,1,0,0,center_square,0,10,10,80,1,,,,,,,,,,,,,,,,,,,,,,,
062690,001,2022-11-14_01h26.56.284,Info_measure_main_exp,2022.2.2,Win32,60.53268765,,,,,,,,,,,,,,,,,,masks/mask_001.jpg,,,,,,,,,,,,,,,,,,,,,,,,,,,,,,,,,,,,,,,,,,,0,0,0,0,1,,,,,,,,,,,,,,,,,,,,,,,,,,,,,,,,,,,,,,,,,,,,,,
062690,001,2022-11-14_01h26.56.284,Info_measure_main_exp,2022.2.2,Win32,60.53268765,,,,,,,,,,,,,,,,,,masks/mask_004.jpg,,,,,,,,,,,,,,,,,,,,,,,,,,,,,,,,,,,,,,,,,,,0,1,1,3,1,,,,,,,,,,,,,,,,,,,,,,,,,,,,,,,,,,,,,,,,,,,,,,
062690,001,2022-11-14_01h26.56.284,Info_measure_main_exp,2022.2.2,Win32,60.53268765,,,,,,,,,,,,,,,,,,masks/mask_005.jpg,,,,,,,,,,,,,,,,,,,,,,,,,,,,,,,,,,,,,,,,,,,0,2,2,4,1,,,,,,,,,,,,,,,,,,,,,,,,,,,,,,,,,,,,,,,,,,,,,,
062690,001,2022-11-14_01h26.56.284,Info_measure_main_exp,2022.2.2,Win32,60.53268765,,,,,,,,,,,,,,,,,,masks/mask_003.jpg,,,,,,,,,,,,,,,,,,,,,,,,,,,,,,,,,,,,,,,,,,,0,3,3,2,1,,,,,,,,,,,,,,,,,,,,,,,,,,,,,,,,,,,,,,,,,,,,,,
062690,001,2022-11-14_01h26.56.284,Info_measure_main_exp,2022.2.2,Win32,60.53268765,,,,,,,,,,,,,,,,,,masks/mask_002.jpg,,,,,,,,,,,,,,,,,,,,,,,,,,,,,,,,,,,,,,,,,,,0,4,4,1,1,,,,,,,,,,,,,,,,,,,,,,,,,,,,,,,,,,,,,,,,,,,,,,
062690,001,2022-11-14_01h26.56.284,Info_measure_main_exp,2022.2.2,Win32,60.53268765,,,,,,,,,,,,,,,,,,masks/mask_005.jpg,,,,,,,,,,,,,,,,,,,,,,,,,,,,,,,,,,,,,,,,,,,,,,,,0,0,0,4,1,,,,,,,,,,,,,,,,,,,,,,,,,,,,,,,,,,,,,,,,,
062690,001,2022-11-14_01h26.56.284,Info_measure_main_exp,2022.2.2,Win32,60.53268765,,,,,,,,,,,,,,,,,,masks/mask_004.jpg,,,,,,,,,,,,,,,,,,,,,,,,,,,,,,,,,,,,,,,,,,,,,,,,0,1,1,3,1,,,,,,,,,,,,,,,,,,,,,,,,,,,,,,,,,,,,,,,,,
062690,001,2022-11-14_01h26.56.284,Info_measure_main_exp,2022.2.2,Win32,60.53268765,,,,,,,,,,,,,,,,,,masks/mask_001.jpg,,,,,,,,,,,,,,,,,,,,,,,,,,,,,,,,,,,,,,,,,,,,,,,,0,2,2,0,1,,,,,,,,,,,,,,,,,,,,,,,,,,,,,,,,,,,,,,,,,
062690,001,2022-11-14_01h26.56.284,Info_measure_main_exp,2022.2.2,Win32,60.53268765,,,,,,,,,,,,,,,,,,masks/mask_002.jpg,,,,,,,,,,,,,,,,,,,,,,,,,,,,,,,,,,,,,,,,,,,,,,,,0,3,3,1,1,,,,,,,,,,,,,,,,,,,,,,,,,,,,,,,,,,,,,,,,,
062690,001,2022-11-14_01h26.56.284,Info_measure_main_exp,2022.2.2,Win32,60.53268765,,,,,,,,,,,,,,,,,,masks/mask_003.jpg,,,,,,,,,,,,,,,,,,,,,,,,,,,,,,,,,,,,,,,,,,,,,,,,0,4,4,2,1,,,,,,,,,,,,,,,,,,,,,,,,,,,,,,,,,,,,,,,,,
062690,001,2022-11-14_01h26.56.284,Info_measure_main_exp,2022.2.2,Win32,60.53268765,,,,,,,,,,,,,,,,,,,,,,,,,,,,,,4,3.0747,1,,,,,,,,,,,,0,131,5,5,2082,2250,absent_patch/patch0002082.jpg,absent_patch/patch0002250.jpg,,,,,,,,,,,,,,,,,,,,0.062037079,-0.114814829,1,0,0,response3disk,12,-0.000925912,0.0074074,1,0,0,center_square,0,11,11,3,1,,,,,,,,,,,,,,,,,,,,,,,
062690,001,2022-11-14_01h26.56.284,Info_measure_main_exp,2022.2.2,Win32,60.53268765,,,,,,,,,,,,,,,,,,masks/mask_002.jpg,,,,,,,,,,,,,,,,,,,,,,,,,,,,,,,,,,,,,,,,,,,0,0,0,1,1,,,,,,,,,,,,,,,,,,,,,,,,,,,,,,,,,,,,,,,,,,,,,,
062690,001,2022-11-14_01h26.56.284,Info_measure_main_exp,2022.2.2,Win32,60.53268765,,,,,,,,,,,,,,,,,,masks/mask_003.jpg,,,,,,,,,,,,,,,,,,,,,,,,,,,,,,,,,,,,,,,,,,,0,1,1,2,1,,,,,,,,,,,,,,,,,,,,,,,,,,,,,,,,,,,,,,,,,,,,,,
062690,001,2022-11-14_01h26.56.284,Info_measure_main_exp,2022.2.2,Win32,60.53268765,,,,,,,,,,,,,,,,,,masks/mask_001.jpg,,,,,,,,,,,,,,,,,,,,,,,,,,,,,,,,,,,,,,,,,,,0,2,2,0,1,,,,,,,,,,,,,,,,,,,,,,,,,,,,,,,,,,,,,,,,,,,,,,
062690,001,2022-11-14_01h26.56.284,Info_measure_main_exp,2022.2.2,Win32,60.53268765,,,,,,,,,,,,,,,,,,masks/mask_005.jpg,,,,,,,,,,,,,,,,,,,,,,,,,,,,,,,,,,,,,,,,,,,0,3,3,4,1,,,,,,,,,,,,,,,,,,,,,,,,,,,,,,,,,,,,,,,,,,,,,,
062690,001,2022-11-14_01h26.56.284,Info_measure_main_exp,2022.2.2,Win32,60.53268765,,,,,,,,,,,,,,,,,,masks/mask_004.jpg,,,,,,,,,,,,,,,,,,,,,,,,,,,,,,,,,,,,,,,,,,,0,4,4,3,1,,,,,,,,,,,,,,,,,,,,,,,,,,,,,,,,,,,,,,,,,,,,,,
062690,001,2022-11-14_01h26.56.284,Info_measure_main_exp,2022.2.2,Win32,60.53268765,,,,,,,,,,,,,,,,,,masks/mask_005.jpg,,,,,,,,,,,,,,,,,,,,,,,,,,,,,,,,,,,,,,,,,,,,,,,,0,0,0,4,1,,,,,,,,,,,,,,,,,,,,,,,,,,,,,,,,,,,,,,,,,
062690,001,2022-11-14_01h26.56.284,Info_measure_main_exp,2022.2.2,Win32,60.53268765,,,,,,,,,,,,,,,,,,masks/mask_003.jpg,,,,,,,,,,,,,,,,,,,,,,,,,,,,,,,,,,,,,,,,,,,,,,,,0,1,1,2,1,,,,,,,,,,,,,,,,,,,,,,,,,,,,,,,,,,,,,,,,,
062690,001,2022-11-14_01h26.56.284,Info_measure_main_exp,2022.2.2,Win32,60.53268765,,,,,,,,,,,,,,,,,,masks/mask_004.jpg,,,,,,,,,,,,,,,,,,,,,,,,,,,,,,,,,,,,,,,,,,,,,,,,0,2,2,3,1,,,,,,,,,,,,,,,,,,,,,,,,,,,,,,,,,,,,,,,,,
062690,001,2022-11-14_01h26.56.284,Info_measure_main_exp,2022.2.2,Win32,60.53268765,,,,,,,,,,,,,,,,,,masks/mask_001.jpg,,,,,,,,,,,,,,,,,,,,,,,,,,,,,,,,,,,,,,,,,,,,,,,,0,3,3,0,1,,,,,,,,,,,,,,,,,,,,,,,,,,,,,,,,,,,,,,,,,
062690,001,2022-11-14_01h26.56.284,Info_measure_main_exp,2022.2.2,Win32,60.53268765,,,,,,,,,,,,,,,,,,masks/mask_002.jpg,,,,,,,,,,,,,,,,,,,,,,,,,,,,,,,,,,,,,,,,,,,,,,,,0,4,4,1,1,,,,,,,,,,,,,,,,,,,,,,,,,,,,,,,,,,,,,,,,,
062690,001,2022-11-14_01h26.56.284,Info_measure_main_exp,2022.2.2,Win32,60.53268765,,,,,,,,,,,,,,,,,,,,,,,,,,,,,,7,1.4124,1,,,,,,,,,,,,0,131,5,5,2082,2178,absent_patch/patch0002082.jpg,absent_patch/patch0002178.jpg,,,,,,,,,,,,,,,,,,,,0.033333319,0.122222229,1,0,0,response1disk,13,-0.001851824,-0.009259259,1,0,0,center_square,0,12,12,2,1,,,,,,,,,,,,,,,,,,,,,,,
062690,001,2022-11-14_01h26.56.284,Info_measure_main_exp,2022.2.2,Win32,60.53268765,,,,,,,,,,,,,,,,,,masks/mask_003.jpg,,,,,,,,,,,,,,,,,,,,,,,,,,,,,,,,,,,,,,,,,,,0,0,0,2,1,,,,,,,,,,,,,,,,,,,,,,,,,,,,,,,,,,,,,,,,,,,,,,
062690,001,2022-11-14_01h26.56.284,Info_measure_main_exp,2022.2.2,Win32,60.53268765,,,,,,,,,,,,,,,,,,masks/mask_001.jpg,,,,,,,,,,,,,,,,,,,,,,,,,,,,,,,,,,,,,,,,,,,0,1,1,0,1,,,,,,,,,,,,,,,,,,,,,,,,,,,,,,,,,,,,,,,,,,,,,,
062690,001,2022-11-14_01h26.56.284,Info_measure_main_exp,2022.2.2,Win32,60.53268765,,,,,,,,,,,,,,,,,,masks/mask_002.jpg,,,,,,,,,,,,,,,,,,,,,,,,,,,,,,,,,,,,,,,,,,,0,2,2,1,1,,,,,,,,,,,,,,,,,,,,,,,,,,,,,,,,,,,,,,,,,,,,,,
062690,001,2022-11-14_01h26.56.284,Info_measure_main_exp,2022.2.2,Win32,60.53268765,,,,,,,,,,,,,,,,,,masks/mask_004.jpg,,,,,,,,,,,,,,,,,,,,,,,,,,,,,,,,,,,,,,,,,,,0,3,3,3,1,,,,,,,,,,,,,,,,,,,,,,,,,,,,,,,,,,,,,,,,,,,,,,
062690,001,2022-11-14_01h26.56.284,Info_measure_main_exp,2022.2.2,Win32,60.53268765,,,,,,,,,,,,,,,,,,masks/mask_005.jpg,,,,,,,,,,,,,,,,,,,,,,,,,,,,,,,,,,,,,,,,,,,0,4,4,4,1,,,,,,,,,,,,,,,,,,,,,,,,,,,,,,,,,,,,,,,,,,,,,,
062690,001,2022-11-14_01h26.56.284,Info_measure_main_exp,2022.2.2,Win32,60.53268765,,,,,,,,,,,,,,,,,,masks/mask_005.jpg,,,,,,,,,,,,,,,,,,,,,,,,,,,,,,,,,,,,,,,,,,,,,,,,0,0,0,4,1,,,,,,,,,,,,,,,,,,,,,,,,,,,,,,,,,,,,,,,,,
062690,001,2022-11-14_01h26.56.284,Info_measure_main_exp,2022.2.2,Win32,60.53268765,,,,,,,,,,,,,,,,,,masks/mask_001.jpg,,,,,,,,,,,,,,,,,,,,,,,,,,,,,,,,,,,,,,,,,,,,,,,,0,1,1,0,1,,,,,,,,,,,,,,,,,,,,,,,,,,,,,,,,,,,,,,,,,
062690,001,2022-11-14_01h26.56.284,Info_measure_main_exp,2022.2.2,Win32,60.53268765,,,,,,,,,,,,,,,,,,masks/mask_002.jpg,,,,,,,,,,,,,,,,,,,,,,,,,,,,,,,,,,,,,,,,,,,,,,,,0,2,2,1,1,,,,,,,,,,,,,,,,,,,,,,,,,,,,,,,,,,,,,,,,,
062690,001,2022-11-14_01h26.56.284,Info_measure_main_exp,2022.2.2,Win32,60.53268765,,,,,,,,,,,,,,,,,,masks/mask_004.jpg,,,,,,,,,,,,,,,,,,,,,,,,,,,,,,,,,,,,,,,,,,,,,,,,0,3,3,3,1,,,,,,,,,,,,,,,,,,,,,,,,,,,,,,,,,,,,,,,,,
062690,001,2022-11-14_01h26.56.284,Info_measure_main_exp,2022.2.2,Win32,60.53268765,,,,,,,,,,,,,,,,,,masks/mask_003.jpg,,,,,,,,,,,,,,,,,,,,,,,,,,,,,,,,,,,,,,,,,,,,,,,,0,4,4,2,1,,,,,,,,,,,,,,,,,,,,,,,,,,,,,,,,,,,,,,,,,
062690,001,2022-11-14_01h26.56.284,Info_measure_main_exp,2022.2.2,Win32,60.53268765,,,,,,,,,,,,,,,,,,,,,,,,,,,,,,3,1.5948,1,,,,,,,,,,,,0,131,5,5,1986,2274,absent_patch/patch0001986.jpg,absent_patch/patch0002274.jpg,,,,,,,,,,,,,,,,,,,,-0.081481439,-0.101851852,1,0,0,response5disk,14,-0.003703718,-0.002777771,1,0,0,center_square,0,13,13,7,1,,,,,,,,,,,,,,,,,,,,,,,
062690,001,2022-11-14_01h26.56.284,Info_measure_main_exp,2022.2.2,Win32,60.53268765,,,,,,,,,,,,,,,,,,masks/mask_002.jpg,,,,,,,,,,,,,,,,,,,,,,,,,,,,,,,,,,,,,,,,,,,0,0,0,1,1,,,,,,,,,,,,,,,,,,,,,,,,,,,,,,,,,,,,,,,,,,,,,,
062690,001,2022-11-14_01h26.56.284,Info_measure_main_exp,2022.2.2,Win32,60.53268765,,,,,,,,,,,,,,,,,,masks/mask_004.jpg,,,,,,,,,,,,,,,,,,,,,,,,,,,,,,,,,,,,,,,,,,,0,1,1,3,1,,,,,,,,,,,,,,,,,,,,,,,,,,,,,,,,,,,,,,,,,,,,,,
062690,001,2022-11-14_01h26.56.284,Info_measure_main_exp,2022.2.2,Win32,60.53268765,,,,,,,,,,,,,,,,,,masks/mask_005.jpg,,,,,,,,,,,,,,,,,,,,,,,,,,,,,,,,,,,,,,,,,,,0,2,2,4,1,,,,,,,,,,,,,,,,,,,,,,,,,,,,,,,,,,,,,,,,,,,,,,
062690,001,2022-11-14_01h26.56.284,Info_measure_main_exp,2022.2.2,Win32,60.53268765,,,,,,,,,,,,,,,,,,masks/mask_001.jpg,,,,,,,,,,,,,,,,,,,,,,,,,,,,,,,,,,,,,,,,,,,0,3,3,0,1,,,,,,,,,,,,,,,,,,,,,,,,,,,,,,,,,,,,,,,,,,,,,,
062690,001,2022-11-14_01h26.56.284,Info_measure_main_exp,2022.2.2,Win32,60.53268765,,,,,,,,,,,,,,,,,,masks/mask_003.jpg,,,,,,,,,,,,,,,,,,,,,,,,,,,,,,,,,,,,,,,,,,,0,4,4,2,1,,,,,,,,,,,,,,,,,,,,,,,,,,,,,,,,,,,,,,,,,,,,,,
062690,001,2022-11-14_01h26.56.284,Info_measure_main_exp,2022.2.2,Win32,60.53268765,,,,,,,,,,,,,,,,,,masks/mask_001.jpg,,,,,,,,,,,,,,,,,,,,,,,,,,,,,,,,,,,,,,,,,,,,,,,,0,0,0,0,1,,,,,,,,,,,,,,,,,,,,,,,,,,,,,,,,,,,,,,,,,
062690,001,2022-11-14_01h26.56.284,Info_measure_main_exp,2022.2.2,Win32,60.53268765,,,,,,,,,,,,,,,,,,masks/mask_002.jpg,,,,,,,,,,,,,,,,,,,,,,,,,,,,,,,,,,,,,,,,,,,,,,,,0,1,1,1,1,,,,,,,,,,,,,,,,,,,,,,,,,,,,,,,,,,,,,,,,,
062690,001,2022-11-14_01h26.56.284,Info_measure_main_exp,2022.2.2,Win32,60.53268765,,,,,,,,,,,,,,,,,,masks/mask_005.jpg,,,,,,,,,,,,,,,,,,,,,,,,,,,,,,,,,,,,,,,,,,,,,,,,0,2,2,4,1,,,,,,,,,,,,,,,,,,,,,,,,,,,,,,,,,,,,,,,,,
062690,001,2022-11-14_01h26.56.284,Info_measure_main_exp,2022.2.2,Win32,60.53268765,,,,,,,,,,,,,,,,,,masks/mask_004.jpg,,,,,,,,,,,,,,,,,,,,,,,,,,,,,,,,,,,,,,,,,,,,,,,,0,3,3,3,1,,,,,,,,,,,,,,,,,,,,,,,,,,,,,,,,,,,,,,,,,
062690,001,2022-11-14_01h26.56.284,Info_measure_main_exp,2022.2.2,Win32,60.53268765,,,,,,,,,,,,,,,,,,masks/mask_003.jpg,,,,,,,,,,,,,,,,,,,,,,,,,,,,,,,,,,,,,,,,,,,,,,,,0,4,4,2,1,,,,,,,,,,,,,,,,,,,,,,,,,,,,,,,,,,,,,,,,,
062690,001,2022-11-14_01h26.56.284,Info_measure_main_exp,2022.2.2,Win32,60.53268765,,,,,,,,,,,,,,,,,,,,,,,,,,,,,,4,1.462,1,,,,,,,,,,,,0,131,5,5,2190,2214,absent_patch/patch0002190.jpg,absent_patch/patch0002214.jpg,,,,,,,,,,,,,,,,,,,,0.020370413,-0.110185199,1,0,0,response3disk,15,0.010185171,-0.002777771,1,0,0,center_square,0,14,14,35,1,,,,,,,,,,,,,,,,,,,,,,,
062690,001,2022-11-14_01h26.56.284,Info_measure_main_exp,2022.2.2,Win32,60.53268765,,,,,,,,,,,,,,,,,,masks/mask_002.jpg,,,,,,,,,,,,,,,,,,,,,,,,,,,,,,,,,,,,,,,,,,,0,0,0,1,1,,,,,,,,,,,,,,,,,,,,,,,,,,,,,,,,,,,,,,,,,,,,,,
062690,001,2022-11-14_01h26.56.284,Info_measure_main_exp,2022.2.2,Win32,60.53268765,,,,,,,,,,,,,,,,,,masks/mask_003.jpg,,,,,,,,,,,,,,,,,,,,,,,,,,,,,,,,,,,,,,,,,,,0,1,1,2,1,,,,,,,,,,,,,,,,,,,,,,,,,,,,,,,,,,,,,,,,,,,,,,
062690,001,2022-11-14_01h26.56.284,Info_measure_main_exp,2022.2.2,Win32,60.53268765,,,,,,,,,,,,,,,,,,masks/mask_001.jpg,,,,,,,,,,,,,,,,,,,,,,,,,,,,,,,,,,,,,,,,,,,0,2,2,0,1,,,,,,,,,,,,,,,,,,,,,,,,,,,,,,,,,,,,,,,,,,,,,,
062690,001,2022-11-14_01h26.56.284,Info_measure_main_exp,2022.2.2,Win32,60.53268765,,,,,,,,,,,,,,,,,,masks/mask_005.jpg,,,,,,,,,,,,,,,,,,,,,,,,,,,,,,,,,,,,,,,,,,,0,3,3,4,1,,,,,,,,,,,,,,,,,,,,,,,,,,,,,,,,,,,,,,,,,,,,,,
062690,001,2022-11-14_01h26.56.284,Info_measure_main_exp,2022.2.2,Win32,60.53268765,,,,,,,,,,,,,,,,,,masks/mask_004.jpg,,,,,,,,,,,,,,,,,,,,,,,,,,,,,,,,,,,,,,,,,,,0,4,4,3,1,,,,,,,,,,,,,,,,,,,,,,,,,,,,,,,,,,,,,,,,,,,,,,
062690,001,2022-11-14_01h26.56.284,Info_measure_main_exp,2022.2.2,Win32,60.53268765,,,,,,,,,,,,,,,,,,masks/mask_003.jpg,,,,,,,,,,,,,,,,,,,,,,,,,,,,,,,,,,,,,,,,,,,,,,,,0,0,0,2,1,,,,,,,,,,,,,,,,,,,,,,,,,,,,,,,,,,,,,,,,,
062690,001,2022-11-14_01h26.56.284,Info_measure_main_exp,2022.2.2,Win32,60.53268765,,,,,,,,,,,,,,,,,,masks/mask_001.jpg,,,,,,,,,,,,,,,,,,,,,,,,,,,,,,,,,,,,,,,,,,,,,,,,0,1,1,0,1,,,,,,,,,,,,,,,,,,,,,,,,,,,,,,,,,,,,,,,,,
062690,001,2022-11-14_01h26.56.284,Info_measure_main_exp,2022.2.2,Win32,60.53268765,,,,,,,,,,,,,,,,,,masks/mask_005.jpg,,,,,,,,,,,,,,,,,,,,,,,,,,,,,,,,,,,,,,,,,,,,,,,,0,2,2,4,1,,,,,,,,,,,,,,,,,,,,,,,,,,,,,,,,,,,,,,,,,
062690,001,2022-11-14_01h26.56.284,Info_measure_main_exp,2022.2.2,Win32,60.53268765,,,,,,,,,,,,,,,,,,masks/mask_004.jpg,,,,,,,,,,,,,,,,,,,,,,,,,,,,,,,,,,,,,,,,,,,,,,,,0,3,3,3,1,,,,,,,,,,,,,,,,,,,,,,,,,,,,,,,,,,,,,,,,,
062690,001,2022-11-14_01h26.56.284,Info_measure_main_exp,2022.2.2,Win32,60.53268765,,,,,,,,,,,,,,,,,,masks/mask_002.jpg,,,,,,,,,,,,,,,,,,,,,,,,,,,,,,,,,,,,,,,,,,,,,,,,0,4,4,1,1,,,,,,,,,,,,,,,,,,,,,,,,,,,,,,,,,,,,,,,,,
062690,001,2022-11-14_01h26.56.284,Info_measure_main_exp,2022.2.2,Win32,60.53268765,,,,,,,,,,,,,,,,,,,,,,,,,,,,,,5,2.1765,1,,,,,,,,,,,,0,131,5,5,2154,2214,absent_patch/patch0002154.jpg,absent_patch/patch0002214.jpg,,,,,,,,,,,,,,,,,,,,0.130555541,-0.005555577,1,0,0,response3disk,16,-0.003703718,-0.005555577,1,0,0,center_square,0,15,15,67,1,,,,,,,,,,,,,,,,,,,,,,,
062690,001,2022-11-14_01h26.56.284,Info_measure_main_exp,2022.2.2,Win32,60.53268765,,,,,,,,,,,,,,,,,,masks/mask_001.jpg,,,,,,,,,,,,,,,,,,,,,,,,,,,,,,,,,,,,,,,,,,,0,0,0,0,1,,,,,,,,,,,,,,,,,,,,,,,,,,,,,,,,,,,,,,,,,,,,,,
062690,001,2022-11-14_01h26.56.284,Info_measure_main_exp,2022.2.2,Win32,60.53268765,,,,,,,,,,,,,,,,,,masks/mask_003.jpg,,,,,,,,,,,,,,,,,,,,,,,,,,,,,,,,,,,,,,,,,,,0,1,1,2,1,,,,,,,,,,,,,,,,,,,,,,,,,,,,,,,,,,,,,,,,,,,,,,
062690,001,2022-11-14_01h26.56.284,Info_measure_main_exp,2022.2.2,Win32,60.53268765,,,,,,,,,,,,,,,,,,masks/mask_002.jpg,,,,,,,,,,,,,,,,,,,,,,,,,,,,,,,,,,,,,,,,,,,0,2,2,1,1,,,,,,,,,,,,,,,,,,,,,,,,,,,,,,,,,,,,,,,,,,,,,,
062690,001,2022-11-14_01h26.56.284,Info_measure_main_exp,2022.2.2,Win32,60.53268765,,,,,,,,,,,,,,,,,,masks/mask_005.jpg,,,,,,,,,,,,,,,,,,,,,,,,,,,,,,,,,,,,,,,,,,,0,3,3,4,1,,,,,,,,,,,,,,,,,,,,,,,,,,,,,,,,,,,,,,,,,,,,,,
062690,001,2022-11-14_01h26.56.284,Info_measure_main_exp,2022.2.2,Win32,60.53268765,,,,,,,,,,,,,,,,,,masks/mask_004.jpg,,,,,,,,,,,,,,,,,,,,,,,,,,,,,,,,,,,,,,,,,,,0,4,4,3,1,,,,,,,,,,,,,,,,,,,,,,,,,,,,,,,,,,,,,,,,,,,,,,
062690,001,2022-11-14_01h26.56.284,Info_measure_main_exp,2022.2.2,Win32,60.53268765,,,,,,,,,,,,,,,,,,masks/mask_001.jpg,,,,,,,,,,,,,,,,,,,,,,,,,,,,,,,,,,,,,,,,,,,,,,,,0,0,0,0,1,,,,,,,,,,,,,,,,,,,,,,,,,,,,,,,,,,,,,,,,,
062690,001,2022-11-14_01h26.56.284,Info_measure_main_exp,2022.2.2,Win32,60.53268765,,,,,,,,,,,,,,,,,,masks/mask_002.jpg,,,,,,,,,,,,,,,,,,,,,,,,,,,,,,,,,,,,,,,,,,,,,,,,0,1,1,1,1,,,,,,,,,,,,,,,,,,,,,,,,,,,,,,,,,,,,,,,,,
062690,001,2022-11-14_01h26.56.284,Info_measure_main_exp,2022.2.2,Win32,60.53268765,,,,,,,,,,,,,,,,,,masks/mask_003.jpg,,,,,,,,,,,,,,,,,,,,,,,,,,,,,,,,,,,,,,,,,,,,,,,,0,2,2,2,1,,,,,,,,,,,,,,,,,,,,,,,,,,,,,,,,,,,,,,,,,
062690,001,2022-11-14_01h26.56.284,Info_measure_main_exp,2022.2.2,Win32,60.53268765,,,,,,,,,,,,,,,,,,masks/mask_004.jpg,,,,,,,,,,,,,,,,,,,,,,,,,,,,,,,,,,,,,,,,,,,,,,,,0,3,3,3,1,,,,,,,,,,,,,,,,,,,,,,,,,,,,,,,,,,,,,,,,,
062690,001,2022-11-14_01h26.56.284,Info_measure_main_exp,2022.2.2,Win32,60.53268765,,,,,,,,,,,,,,,,,,masks/mask_005.jpg,,,,,,,,,,,,,,,,,,,,,,,,,,,,,,,,,,,,,,,,,,,,,,,,0,4,4,4,1,,,,,,,,,,,,,,,,,,,,,,,,,,,,,,,,,,,,,,,,,
062690,001,2022-11-14_01h26.56.284,Info_measure_main_exp,2022.2.2,Win32,60.53268765,,,,,,,,,,,,,,,,,,,,,,,,,,,,,,2,1.8949,1,,,,,,,,,,,,0,131,5,5,2190,1950,absent_patch/patch0002190.jpg,absent_patch/patch0001950.jpg,,,,,,,,,,,,,,,,,,,,-0.130555541,-0.037962984,1,0,0,response5disk,17,-0.001851824,-0.0074074,1,0,0,center_square,0,16,16,73,1,,,,,,,,,,,,,,,,,,,,,,,
062690,001,2022-11-14_01h26.56.284,Info_measure_main_exp,2022.2.2,Win32,60.53268765,,,,,,,,,,,,,,,,,,masks/mask_004.jpg,,,,,,,,,,,,,,,,,,,,,,,,,,,,,,,,,,,,,,,,,,,0,0,0,3,1,,,,,,,,,,,,,,,,,,,,,,,,,,,,,,,,,,,,,,,,,,,,,,
062690,001,2022-11-14_01h26.56.284,Info_measure_main_exp,2022.2.2,Win32,60.53268765,,,,,,,,,,,,,,,,,,masks/mask_003.jpg,,,,,,,,,,,,,,,,,,,,,,,,,,,,,,,,,,,,,,,,,,,0,1,1,2,1,,,,,,,,,,,,,,,,,,,,,,,,,,,,,,,,,,,,,,,,,,,,,,
062690,001,2022-11-14_01h26.56.284,Info_measure_main_exp,2022.2.2,Win32,60.53268765,,,,,,,,,,,,,,,,,,masks/mask_002.jpg,,,,,,,,,,,,,,,,,,,,,,,,,,,,,,,,,,,,,,,,,,,0,2,2,1,1,,,,,,,,,,,,,,,,,,,,,,,,,,,,,,,,,,,,,,,,,,,,,,
062690,001,2022-11-14_01h26.56.284,Info_measure_main_exp,2022.2.2,Win32,60.53268765,,,,,,,,,,,,,,,,,,masks/mask_005.jpg,,,,,,,,,,,,,,,,,,,,,,,,,,,,,,,,,,,,,,,,,,,0,3,3,4,1,,,,,,,,,,,,,,,,,,,,,,,,,,,,,,,,,,,,,,,,,,,,,,
062690,001,2022-11-14_01h26.56.284,Info_measure_main_exp,2022.2.2,Win32,60.53268765,,,,,,,,,,,,,,,,,,masks/mask_001.jpg,,,,,,,,,,,,,,,,,,,,,,,,,,,,,,,,,,,,,,,,,,,0,4,4,0,1,,,,,,,,,,,,,,,,,,,,,,,,,,,,,,,,,,,,,,,,,,,,,,
062690,001,2022-11-14_01h26.56.284,Info_measure_main_exp,2022.2.2,Win32,60.53268765,,,,,,,,,,,,,,,,,,masks/mask_002.jpg,,,,,,,,,,,,,,,,,,,,,,,,,,,,,,,,,,,,,,,,,,,,,,,,0,0,0,1,1,,,,,,,,,,,,,,,,,,,,,,,,,,,,,,,,,,,,,,,,,
062690,001,2022-11-14_01h26.56.284,Info_measure_main_exp,2022.2.2,Win32,60.53268765,,,,,,,,,,,,,,,,,,masks/mask_004.jpg,,,,,,,,,,,,,,,,,,,,,,,,,,,,,,,,,,,,,,,,,,,,,,,,0,1,1,3,1,,,,,,,,,,,,,,,,,,,,,,,,,,,,,,,,,,,,,,,,,
062690,001,2022-11-14_01h26.56.284,Info_measure_main_exp,2022.2.2,Win32,60.53268765,,,,,,,,,,,,,,,,,,masks/mask_005.jpg,,,,,,,,,,,,,,,,,,,,,,,,,,,,,,,,,,,,,,,,,,,,,,,,0,2,2,4,1,,,,,,,,,,,,,,,,,,,,,,,,,,,,,,,,,,,,,,,,,
062690,001,2022-11-14_01h26.56.284,Info_measure_main_exp,2022.2.2,Win32,60.53268765,,,,,,,,,,,,,,,,,,masks/mask_003.jpg,,,,,,,,,,,,,,,,,,,,,,,,,,,,,,,,,,,,,,,,,,,,,,,,0,3,3,2,1,,,,,,,,,,,,,,,,,,,,,,,,,,,,,,,,,,,,,,,,,
062690,001,2022-11-14_01h26.56.284,Info_measure_main_exp,2022.2.2,Win32,60.53268765,,,,,,,,,,,,,,,,,,masks/mask_001.jpg,,,,,,,,,,,,,,,,,,,,,,,,,,,,,,,,,,,,,,,,,,,,,,,,0,4,4,0,1,,,,,,,,,,,,,,,,,,,,,,,,,,,,,,,,,,,,,,,,,
062690,001,2022-11-14_01h26.56.284,Info_measure_main_exp,2022.2.2,Win32,60.53268765,,,,,,,,,,,,,,,,,,,,,,,,,,,,,,4,1.7448,1,,,,,,,,,,,,0,131,5,5,2250,2142,absent_patch/patch0002250.jpg,absent_patch/patch0002142.jpg,,,,,,,,,,,,,,,,,,,,0.050000014,-0.101851852,1,0,0,response3disk,18,-0.002777735,0,1,0,0,center_square,0,17,17,71,1,,,,,,,,,,,,,,,,,,,,,,,
062690,001,2022-11-14_01h26.56.284,Info_measure_main_exp,2022.2.2,Win32,60.53268765,,,,,,,,,,,,,,,,,,masks/mask_001.jpg,,,,,,,,,,,,,,,,,,,,,,,,,,,,,,,,,,,,,,,,,,,0,0,0,0,1,,,,,,,,,,,,,,,,,,,,,,,,,,,,,,,,,,,,,,,,,,,,,,
062690,001,2022-11-14_01h26.56.284,Info_measure_main_exp,2022.2.2,Win32,60.53268765,,,,,,,,,,,,,,,,,,masks/mask_005.jpg,,,,,,,,,,,,,,,,,,,,,,,,,,,,,,,,,,,,,,,,,,,0,1,1,4,1,,,,,,,,,,,,,,,,,,,,,,,,,,,,,,,,,,,,,,,,,,,,,,
062690,001,2022-11-14_01h26.56.284,Info_measure_main_exp,2022.2.2,Win32,60.53268765,,,,,,,,,,,,,,,,,,masks/mask_003.jpg,,,,,,,,,,,,,,,,,,,,,,,,,,,,,,,,,,,,,,,,,,,0,2,2,2,1,,,,,,,,,,,,,,,,,,,,,,,,,,,,,,,,,,,,,,,,,,,,,,
062690,001,2022-11-14_01h26.56.284,Info_measure_main_exp,2022.2.2,Win32,60.53268765,,,,,,,,,,,,,,,,,,masks/mask_004.jpg,,,,,,,,,,,,,,,,,,,,,,,,,,,,,,,,,,,,,,,,,,,0,3,3,3,1,,,,,,,,,,,,,,,,,,,,,,,,,,,,,,,,,,,,,,,,,,,,,,
062690,001,2022-11-14_01h26.56.284,Info_measure_main_exp,2022.2.2,Win32,60.53268765,,,,,,,,,,,,,,,,,,masks/mask_002.jpg,,,,,,,,,,,,,,,,,,,,,,,,,,,,,,,,,,,,,,,,,,,0,4,4,1,1,,,,,,,,,,,,,,,,,,,,,,,,,,,,,,,,,,,,,,,,,,,,,,
062690,001,2022-11-14_01h26.56.284,Info_measure_main_exp,2022.2.2,Win32,60.53268765,,,,,,,,,,,,,,,,,,masks/mask_004.jpg,,,,,,,,,,,,,,,,,,,,,,,,,,,,,,,,,,,,,,,,,,,,,,,,0,0,0,3,1,,,,,,,,,,,,,,,,,,,,,,,,,,,,,,,,,,,,,,,,,
062690,001,2022-11-14_01h26.56.284,Info_measure_main_exp,2022.2.2,Win32,60.53268765,,,,,,,,,,,,,,,,,,masks/mask_005.jpg,,,,,,,,,,,,,,,,,,,,,,,,,,,,,,,,,,,,,,,,,,,,,,,,0,1,1,4,1,,,,,,,,,,,,,,,,,,,,,,,,,,,,,,,,,,,,,,,,,
062690,001,2022-11-14_01h26.56.284,Info_measure_main_exp,2022.2.2,Win32,60.53268765,,,,,,,,,,,,,,,,,,masks/mask_001.jpg,,,,,,,,,,,,,,,,,,,,,,,,,,,,,,,,,,,,,,,,,,,,,,,,0,2,2,0,1,,,,,,,,,,,,,,,,,,,,,,,,,,,,,,,,,,,,,,,,,
062690,001,2022-11-14_01h26.56.284,Info_measure_main_exp,2022.2.2,Win32,60.53268765,,,,,,,,,,,,,,,,,,masks/mask_003.jpg,,,,,,,,,,,,,,,,,,,,,,,,,,,,,,,,,,,,,,,,,,,,,,,,0,3,3,2,1,,,,,,,,,,,,,,,,,,,,,,,,,,,,,,,,,,,,,,,,,
062690,001,2022-11-14_01h26.56.284,Info_measure_main_exp,2022.2.2,Win32,60.53268765,,,,,,,,,,,,,,,,,,masks/mask_002.jpg,,,,,,,,,,,,,,,,,,,,,,,,,,,,,,,,,,,,,,,,,,,,,,,,0,4,4,1,1,,,,,,,,,,,,,,,,,,,,,,,,,,,,,,,,,,,,,,,,,
062690,001,2022-11-14_01h26.56.284,Info_measure_main_exp,2022.2.2,Win32,60.53268765,,,,,,,,,,,,,,,,,,,,,,,,,,,,,,1,1.3293,1,,,,,,,,,,,,1,131,5,5,1,1986,present_patch/cong_131_5_a.jpg,absent_patch/patch0001986.jpg,,,,,,,,,,,,,,,,,,,,-0.076851809,0.01944443,1,0,0,response7disk,19,-0.006481453,0.002777771,1,0,0,center_square,0,18,18,106,1,,,,,,,,,,,,,,,,,,,,,,,
062690,001,2022-11-14_01h26.56.284,Info_measure_main_exp,2022.2.2,Win32,60.53268765,,,,,,,,,,,,,,,,,,masks/mask_005.jpg,,,,,,,,,,,,,,,,,,,,,,,,,,,,,,,,,,,,,,,,,,,0,0,0,4,1,,,,,,,,,,,,,,,,,,,,,,,,,,,,,,,,,,,,,,,,,,,,,,
062690,001,2022-11-14_01h26.56.284,Info_measure_main_exp,2022.2.2,Win32,60.53268765,,,,,,,,,,,,,,,,,,masks/mask_003.jpg,,,,,,,,,,,,,,,,,,,,,,,,,,,,,,,,,,,,,,,,,,,0,1,1,2,1,,,,,,,,,,,,,,,,,,,,,,,,,,,,,,,,,,,,,,,,,,,,,,
062690,001,2022-11-14_01h26.56.284,Info_measure_main_exp,2022.2.2,Win32,60.53268765,,,,,,,,,,,,,,,,,,masks/mask_001.jpg,,,,,,,,,,,,,,,,,,,,,,,,,,,,,,,,,,,,,,,,,,,0,2,2,0,1,,,,,,,,,,,,,,,,,,,,,,,,,,,,,,,,,,,,,,,,,,,,,,
062690,001,2022-11-14_01h26.56.284,Info_measure_main_exp,2022.2.2,Win32,60.53268765,,,,,,,,,,,,,,,,,,masks/mask_002.jpg,,,,,,,,,,,,,,,,,,,,,,,,,,,,,,,,,,,,,,,,,,,0,3,3,1,1,,,,,,,,,,,,,,,,,,,,,,,,,,,,,,,,,,,,,,,,,,,,,,
062690,001,2022-11-14_01h26.56.284,Info_measure_main_exp,2022.2.2,Win32,60.53268765,,,,,,,,,,,,,,,,,,masks/mask_004.jpg,,,,,,,,,,,,,,,,,,,,,,,,,,,,,,,,,,,,,,,,,,,0,4,4,3,1,,,,,,,,,,,,,,,,,,,,,,,,,,,,,,,,,,,,,,,,,,,,,,
062690,001,2022-11-14_01h26.56.284,Info_measure_main_exp,2022.2.2,Win32,60.53268765,,,,,,,,,,,,,,,,,,masks/mask_004.jpg,,,,,,,,,,,,,,,,,,,,,,,,,,,,,,,,,,,,,,,,,,,,,,,,0,0,0,3,1,,,,,,,,,,,,,,,,,,,,,,,,,,,,,,,,,,,,,,,,,
062690,001,2022-11-14_01h26.56.284,Info_measure_main_exp,2022.2.2,Win32,60.53268765,,,,,,,,,,,,,,,,,,masks/mask_003.jpg,,,,,,,,,,,,,,,,,,,,,,,,,,,,,,,,,,,,,,,,,,,,,,,,0,1,1,2,1,,,,,,,,,,,,,,,,,,,,,,,,,,,,,,,,,,,,,,,,,
062690,001,2022-11-14_01h26.56.284,Info_measure_main_exp,2022.2.2,Win32,60.53268765,,,,,,,,,,,,,,,,,,masks/mask_005.jpg,,,,,,,,,,,,,,,,,,,,,,,,,,,,,,,,,,,,,,,,,,,,,,,,0,2,2,4,1,,,,,,,,,,,,,,,,,,,,,,,,,,,,,,,,,,,,,,,,,
062690,001,2022-11-14_01h26.56.284,Info_measure_main_exp,2022.2.2,Win32,60.53268765,,,,,,,,,,,,,,,,,,masks/mask_001.jpg,,,,,,,,,,,,,,,,,,,,,,,,,,,,,,,,,,,,,,,,,,,,,,,,0,3,3,0,1,,,,,,,,,,,,,,,,,,,,,,,,,,,,,,,,,,,,,,,,,
062690,001,2022-11-14_01h26.56.284,Info_measure_main_exp,2022.2.2,Win32,60.53268765,,,,,,,,,,,,,,,,,,masks/mask_002.jpg,,,,,,,,,,,,,,,,,,,,,,,,,,,,,,,,,,,,,,,,,,,,,,,,0,4,4,1,1,,,,,,,,,,,,,,,,,,,,,,,,,,,,,,,,,,,,,,,,,
062690,001,2022-11-14_01h26.56.284,Info_measure_main_exp,2022.2.2,Win32,60.53268765,,,,,,,,,,,,,,,,,,,,,,,,,,,,,,5,1.1307,1,,,,,,,,,,,,0,131,5,5,1974,2238,absent_patch/patch0001974.jpg,absent_patch/patch0002238.jpg,,,,,,,,,,,,,,,,,,,,0.125925912,-0.070370392,1,0,0,response3disk,20,0.008333347,0.000925912,1,0,0,center_square,0,19,19,95,1,,,,,,,,,,,,,,,,,,,,,,,
062690,001,2022-11-14_01h26.56.284,Info_measure_main_exp,2022.2.2,Win32,60.53268765,,,,,,,,,,,,,,,,,,masks/mask_003.jpg,,,,,,,,,,,,,,,,,,,,,,,,,,,,,,,,,,,,,,,,,,,0,0,0,2,1,,,,,,,,,,,,,,,,,,,,,,,,,,,,,,,,,,,,,,,,,,,,,,
062690,001,2022-11-14_01h26.56.284,Info_measure_main_exp,2022.2.2,Win32,60.53268765,,,,,,,,,,,,,,,,,,masks/mask_002.jpg,,,,,,,,,,,,,,,,,,,,,,,,,,,,,,,,,,,,,,,,,,,0,1,1,1,1,,,,,,,,,,,,,,,,,,,,,,,,,,,,,,,,,,,,,,,,,,,,,,
062690,001,2022-11-14_01h26.56.284,Info_measure_main_exp,2022.2.2,Win32,60.53268765,,,,,,,,,,,,,,,,,,masks/mask_001.jpg,,,,,,,,,,,,,,,,,,,,,,,,,,,,,,,,,,,,,,,,,,,0,2,2,0,1,,,,,,,,,,,,,,,,,,,,,,,,,,,,,,,,,,,,,,,,,,,,,,
062690,001,2022-11-14_01h26.56.284,Info_measure_main_exp,2022.2.2,Win32,60.53268765,,,,,,,,,,,,,,,,,,masks/mask_004.jpg,,,,,,,,,,,,,,,,,,,,,,,,,,,,,,,,,,,,,,,,,,,0,3,3,3,1,,,,,,,,,,,,,,,,,,,,,,,,,,,,,,,,,,,,,,,,,,,,,,
062690,001,2022-11-14_01h26.56.284,Info_measure_main_exp,2022.2.2,Win32,60.53268765,,,,,,,,,,,,,,,,,,masks/mask_005.jpg,,,,,,,,,,,,,,,,,,,,,,,,,,,,,,,,,,,,,,,,,,,0,4,4,4,1,,,,,,,,,,,,,,,,,,,,,,,,,,,,,,,,,,,,,,,,,,,,,,
062690,001,2022-11-14_01h26.56.284,Info_measure_main_exp,2022.2.2,Win32,60.53268765,,,,,,,,,,,,,,,,,,masks/mask_001.jpg,,,,,,,,,,,,,,,,,,,,,,,,,,,,,,,,,,,,,,,,,,,,,,,,0,0,0,0,1,,,,,,,,,,,,,,,,,,,,,,,,,,,,,,,,,,,,,,,,,
062690,001,2022-11-14_01h26.56.284,Info_measure_main_exp,2022.2.2,Win32,60.53268765,,,,,,,,,,,,,,,,,,masks/mask_005.jpg,,,,,,,,,,,,,,,,,,,,,,,,,,,,,,,,,,,,,,,,,,,,,,,,0,1,1,4,1,,,,,,,,,,,,,,,,,,,,,,,,,,,,,,,,,,,,,,,,,
062690,001,2022-11-14_01h26.56.284,Info_measure_main_exp,2022.2.2,Win32,60.53268765,,,,,,,,,,,,,,,,,,masks/mask_004.jpg,,,,,,,,,,,,,,,,,,,,,,,,,,,,,,,,,,,,,,,,,,,,,,,,0,2,2,3,1,,,,,,,,,,,,,,,,,,,,,,,,,,,,,,,,,,,,,,,,,
062690,001,2022-11-14_01h26.56.284,Info_measure_main_exp,2022.2.2,Win32,60.53268765,,,,,,,,,,,,,,,,,,masks/mask_002.jpg,,,,,,,,,,,,,,,,,,,,,,,,,,,,,,,,,,,,,,,,,,,,,,,,0,3,3,1,1,,,,,,,,,,,,,,,,,,,,,,,,,,,,,,,,,,,,,,,,,
062690,001,2022-11-14_01h26.56.284,Info_measure_main_exp,2022.2.2,Win32,60.53268765,,,,,,,,,,,,,,,,,,masks/mask_003.jpg,,,,,,,,,,,,,,,,,,,,,,,,,,,,,,,,,,,,,,,,,,,,,,,,0,4,4,2,1,,,,,,,,,,,,,,,,,,,,,,,,,,,,,,,,,,,,,,,,,
062690,001,2022-11-14_01h26.56.284,Info_measure_main_exp,2022.2.2,Win32,60.53268765,,,,,,,,,,,,,,,,,,,,,,,,,,,,,,5,1.8784,1,,,,,,,,,,,,1,131,5,5,2298,1,absent_patch/patch0002298.jpg,present_patch/cong_131_5_a.jpg,,,,,,,,,,,,,,,,,,,,0.087962963,-0.050925926,1,0,0,response3disk,21,-0.007407365,-0.003703718,1,0,0,center_square,0,20,20,45,1,,,,,,,,,,,,,,,,,,,,,,,
062690,001,2022-11-14_01h26.56.284,Info_measure_main_exp,2022.2.2,Win32,60.53268765,,,,,,,,,,,,,,,,,,masks/mask_004.jpg,,,,,,,,,,,,,,,,,,,,,,,,,,,,,,,,,,,,,,,,,,,0,0,0,3,1,,,,,,,,,,,,,,,,,,,,,,,,,,,,,,,,,,,,,,,,,,,,,,
062690,001,2022-11-14_01h26.56.284,Info_measure_main_exp,2022.2.2,Win32,60.53268765,,,,,,,,,,,,,,,,,,masks/mask_001.jpg,,,,,,,,,,,,,,,,,,,,,,,,,,,,,,,,,,,,,,,,,,,0,1,1,0,1,,,,,,,,,,,,,,,,,,,,,,,,,,,,,,,,,,,,,,,,,,,,,,
062690,001,2022-11-14_01h26.56.284,Info_measure_main_exp,2022.2.2,Win32,60.53268765,,,,,,,,,,,,,,,,,,masks/mask_005.jpg,,,,,,,,,,,,,,,,,,,,,,,,,,,,,,,,,,,,,,,,,,,0,2,2,4,1,,,,,,,,,,,,,,,,,,,,,,,,,,,,,,,,,,,,,,,,,,,,,,
062690,001,2022-11-14_01h26.56.284,Info_measure_main_exp,2022.2.2,Win32,60.53268765,,,,,,,,,,,,,,,,,,masks/mask_002.jpg,,,,,,,,,,,,,,,,,,,,,,,,,,,,,,,,,,,,,,,,,,,0,3,3,1,1,,,,,,,,,,,,,,,,,,,,,,,,,,,,,,,,,,,,,,,,,,,,,,
062690,001,2022-11-14_01h26.56.284,Info_measure_main_exp,2022.2.2,Win32,60.53268765,,,,,,,,,,,,,,,,,,masks/mask_003.jpg,,,,,,,,,,,,,,,,,,,,,,,,,,,,,,,,,,,,,,,,,,,0,4,4,2,1,,,,,,,,,,,,,,,,,,,,,,,,,,,,,,,,,,,,,,,,,,,,,,
062690,001,2022-11-14_01h26.56.284,Info_measure_main_exp,2022.2.2,Win32,60.53268765,,,,,,,,,,,,,,,,,,masks/mask_004.jpg,,,,,,,,,,,,,,,,,,,,,,,,,,,,,,,,,,,,,,,,,,,,,,,,0,0,0,3,1,,,,,,,,,,,,,,,,,,,,,,,,,,,,,,,,,,,,,,,,,
062690,001,2022-11-14_01h26.56.284,Info_measure_main_exp,2022.2.2,Win32,60.53268765,,,,,,,,,,,,,,,,,,masks/mask_001.jpg,,,,,,,,,,,,,,,,,,,,,,,,,,,,,,,,,,,,,,,,,,,,,,,,0,1,1,0,1,,,,,,,,,,,,,,,,,,,,,,,,,,,,,,,,,,,,,,,,,
062690,001,2022-11-14_01h26.56.284,Info_measure_main_exp,2022.2.2,Win32,60.53268765,,,,,,,,,,,,,,,,,,masks/mask_003.jpg,,,,,,,,,,,,,,,,,,,,,,,,,,,,,,,,,,,,,,,,,,,,,,,,0,2,2,2,1,,,,,,,,,,,,,,,,,,,,,,,,,,,,,,,,,,,,,,,,,
062690,001,2022-11-14_01h26.56.284,Info_measure_main_exp,2022.2.2,Win32,60.53268765,,,,,,,,,,,,,,,,,,masks/mask_002.jpg,,,,,,,,,,,,,,,,,,,,,,,,,,,,,,,,,,,,,,,,,,,,,,,,0,3,3,1,1,,,,,,,,,,,,,,,,,,,,,,,,,,,,,,,,,,,,,,,,,
062690,001,2022-11-14_01h26.56.284,Info_measure_main_exp,2022.2.2,Win32,60.53268765,,,,,,,,,,,,,,,,,,masks/mask_005.jpg,,,,,,,,,,,,,,,,,,,,,,,,,,,,,,,,,,,,,,,,,,,,,,,,0,4,4,4,1,,,,,,,,,,,,,,,,,,,,,,,,,,,,,,,,,,,,,,,,,
062690,001,2022-11-14_01h26.56.284,Info_measure_main_exp,2022.2.2,Win32,60.53268765,,,,,,,,,,,,,,,,,,,,,,,,,,,,,,2,1.1635,1,,,,,,,,,,,,0,131,5,5,2274,2238,absent_patch/patch0002274.jpg,absent_patch/patch0002238.jpg,,,,,,,,,,,,,,,,,,,,-0.107407393,-0.058333326,1,0,0,response5disk,22,0.00462963,0.000925912,1,0,0,center_square,0,21,21,91,1,,,,,,,,,,,,,,,,,,,,,,,
062690,001,2022-11-14_01h26.56.284,Info_measure_main_exp,2022.2.2,Win32,60.53268765,,,,,,,,,,,,,,,,,,masks/mask_001.jpg,,,,,,,,,,,,,,,,,,,,,,,,,,,,,,,,,,,,,,,,,,,0,0,0,0,1,,,,,,,,,,,,,,,,,,,,,,,,,,,,,,,,,,,,,,,,,,,,,,
062690,001,2022-11-14_01h26.56.284,Info_measure_main_exp,2022.2.2,Win32,60.53268765,,,,,,,,,,,,,,,,,,masks/mask_004.jpg,,,,,,,,,,,,,,,,,,,,,,,,,,,,,,,,,,,,,,,,,,,0,1,1,3,1,,,,,,,,,,,,,,,,,,,,,,,,,,,,,,,,,,,,,,,,,,,,,,
062690,001,2022-11-14_01h26.56.284,Info_measure_main_exp,2022.2.2,Win32,60.53268765,,,,,,,,,,,,,,,,,,masks/mask_002.jpg,,,,,,,,,,,,,,,,,,,,,,,,,,,,,,,,,,,,,,,,,,,0,2,2,1,1,,,,,,,,,,,,,,,,,,,,,,,,,,,,,,,,,,,,,,,,,,,,,,
062690,001,2022-11-14_01h26.56.284,Info_measure_main_exp,2022.2.2,Win32,60.53268765,,,,,,,,,,,,,,,,,,masks/mask_005.jpg,,,,,,,,,,,,,,,,,,,,,,,,,,,,,,,,,,,,,,,,,,,0,3,3,4,1,,,,,,,,,,,,,,,,,,,,,,,,,,,,,,,,,,,,,,,,,,,,,,
062690,001,2022-11-14_01h26.56.284,Info_measure_main_exp,2022.2.2,Win32,60.53268765,,,,,,,,,,,,,,,,,,masks/mask_003.jpg,,,,,,,,,,,,,,,,,,,,,,,,,,,,,,,,,,,,,,,,,,,0,4,4,2,1,,,,,,,,,,,,,,,,,,,,,,,,,,,,,,,,,,,,,,,,,,,,,,
062690,001,2022-11-14_01h26.56.284,Info_measure_main_exp,2022.2.2,Win32,60.53268765,,,,,,,,,,,,,,,,,,masks/mask_002.jpg,,,,,,,,,,,,,,,,,,,,,,,,,,,,,,,,,,,,,,,,,,,,,,,,0,0,0,1,1,,,,,,,,,,,,,,,,,,,,,,,,,,,,,,,,,,,,,,,,,
062690,001,2022-11-14_01h26.56.284,Info_measure_main_exp,2022.2.2,Win32,60.53268765,,,,,,,,,,,,,,,,,,masks/mask_004.jpg,,,,,,,,,,,,,,,,,,,,,,,,,,,,,,,,,,,,,,,,,,,,,,,,0,1,1,3,1,,,,,,,,,,,,,,,,,,,,,,,,,,,,,,,,,,,,,,,,,
062690,001,2022-11-14_01h26.56.284,Info_measure_main_exp,2022.2.2,Win32,60.53268765,,,,,,,,,,,,,,,,,,masks/mask_001.jpg,,,,,,,,,,,,,,,,,,,,,,,,,,,,,,,,,,,,,,,,,,,,,,,,0,2,2,0,1,,,,,,,,,,,,,,,,,,,,,,,,,,,,,,,,,,,,,,,,,
062690,001,2022-11-14_01h26.56.284,Info_measure_main_exp,2022.2.2,Win32,60.53268765,,,,,,,,,,,,,,,,,,masks/mask_005.jpg,,,,,,,,,,,,,,,,,,,,,,,,,,,,,,,,,,,,,,,,,,,,,,,,0,3,3,4,1,,,,,,,,,,,,,,,,,,,,,,,,,,,,,,,,,,,,,,,,,
062690,001,2022-11-14_01h26.56.284,Info_measure_main_exp,2022.2.2,Win32,60.53268765,,,,,,,,,,,,,,,,,,masks/mask_003.jpg,,,,,,,,,,,,,,,,,,,,,,,,,,,,,,,,,,,,,,,,,,,,,,,,0,4,4,2,1,,,,,,,,,,,,,,,,,,,,,,,,,,,,,,,,,,,,,,,,,
062690,001,2022-11-14_01h26.56.284,Info_measure_main_exp,2022.2.2,Win32,60.53268765,,,,,,,,,,,,,,,,,,,,,,,,,,,,,,6,1.6122,1,,,,,,,,,,,,0,131,5,5,1986,1950,absent_patch/patch0001986.jpg,absent_patch/patch0001950.jpg,,,,,,,,,,,,,,,,,,,,0.10555557,0.038888896,1,0,0,response1disk,23,0.007407436,0.010185171,1,0,0,center_square,0,22,22,15,1,,,,,,,,,,,,,,,,,,,,,,,
062690,001,2022-11-14_01h26.56.284,Info_measure_main_exp,2022.2.2,Win32,60.53268765,,,,,,,,,,,,,,,,,,masks/mask_002.jpg,,,,,,,,,,,,,,,,,,,,,,,,,,,,,,,,,,,,,,,,,,,0,0,0,1,1,,,,,,,,,,,,,,,,,,,,,,,,,,,,,,,,,,,,,,,,,,,,,,
062690,001,2022-11-14_01h26.56.284,Info_measure_main_exp,2022.2.2,Win32,60.53268765,,,,,,,,,,,,,,,,,,masks/mask_005.jpg,,,,,,,,,,,,,,,,,,,,,,,,,,,,,,,,,,,,,,,,,,,0,1,1,4,1,,,,,,,,,,,,,,,,,,,,,,,,,,,,,,,,,,,,,,,,,,,,,,
062690,001,2022-11-14_01h26.56.284,Info_measure_main_exp,2022.2.2,Win32,60.53268765,,,,,,,,,,,,,,,,,,masks/mask_004.jpg,,,,,,,,,,,,,,,,,,,,,,,,,,,,,,,,,,,,,,,,,,,0,2,2,3,1,,,,,,,,,,,,,,,,,,,,,,,,,,,,,,,,,,,,,,,,,,,,,,
062690,001,2022-11-14_01h26.56.284,Info_measure_main_exp,2022.2.2,Win32,60.53268765,,,,,,,,,,,,,,,,,,masks/mask_003.jpg,,,,,,,,,,,,,,,,,,,,,,,,,,,,,,,,,,,,,,,,,,,0,3,3,2,1,,,,,,,,,,,,,,,,,,,,,,,,,,,,,,,,,,,,,,,,,,,,,,
062690,001,2022-11-14_01h26.56.284,Info_measure_main_exp,2022.2.2,Win32,60.53268765,,,,,,,,,,,,,,,,,,masks/mask_001.jpg,,,,,,,,,,,,,,,,,,,,,,,,,,,,,,,,,,,,,,,,,,,0,4,4,0,1,,,,,,,,,,,,,,,,,,,,,,,,,,,,,,,,,,,,,,,,,,,,,,
062690,001,2022-11-14_01h26.56.284,Info_measure_main_exp,2022.2.2,Win32,60.53268765,,,,,,,,,,,,,,,,,,masks/mask_002.jpg,,,,,,,,,,,,,,,,,,,,,,,,,,,,,,,,,,,,,,,,,,,,,,,,0,0,0,1,1,,,,,,,,,,,,,,,,,,,,,,,,,,,,,,,,,,,,,,,,,
062690,001,2022-11-14_01h26.56.284,Info_measure_main_exp,2022.2.2,Win32,60.53268765,,,,,,,,,,,,,,,,,,masks/mask_005.jpg,,,,,,,,,,,,,,,,,,,,,,,,,,,,,,,,,,,,,,,,,,,,,,,,0,1,1,4,1,,,,,,,,,,,,,,,,,,,,,,,,,,,,,,,,,,,,,,,,,
062690,001,2022-11-14_01h26.56.284,Info_measure_main_exp,2022.2.2,Win32,60.53268765,,,,,,,,,,,,,,,,,,masks/mask_001.jpg,,,,,,,,,,,,,,,,,,,,,,,,,,,,,,,,,,,,,,,,,,,,,,,,0,2,2,0,1,,,,,,,,,,,,,,,,,,,,,,,,,,,,,,,,,,,,,,,,,
062690,001,2022-11-14_01h26.56.284,Info_measure_main_exp,2022.2.2,Win32,60.53268765,,,,,,,,,,,,,,,,,,masks/mask_003.jpg,,,,,,,,,,,,,,,,,,,,,,,,,,,,,,,,,,,,,,,,,,,,,,,,0,3,3,2,1,,,,,,,,,,,,,,,,,,,,,,,,,,,,,,,,,,,,,,,,,
062690,001,2022-11-14_01h26.56.284,Info_measure_main_exp,2022.2.2,Win32,60.53268765,,,,,,,,,,,,,,,,,,masks/mask_004.jpg,,,,,,,,,,,,,,,,,,,,,,,,,,,,,,,,,,,,,,,,,,,,,,,,0,4,4,3,1,,,,,,,,,,,,,,,,,,,,,,,,,,,,,,,,,,,,,,,,,
062690,001,2022-11-14_01h26.56.284,Info_measure_main_exp,2022.2.2,Win32,60.53268765,,,,,,,,,,,,,,,,,,,,,,,,,,,,,,5,2.3602,1,,,,,,,,,,,,0,131,5,5,2214,2166,absent_patch/patch0002214.jpg,absent_patch/patch0002166.jpg,,,,,,,,,,,,,,,,,,,,0.12962963,-0.038888896,1,0,0,response3disk,24,0.011111153,0.008333312,1,0,0,center_square,0,23,23,109,1,,,,,,,,,,,,,,,,,,,,,,,
062690,001,2022-11-14_01h26.56.284,Info_measure_main_exp,2022.2.2,Win32,60.53268765,,,,,,,,,,,,,,,,,,masks/mask_002.jpg,,,,,,,,,,,,,,,,,,,,,,,,,,,,,,,,,,,,,,,,,,,0,0,0,1,1,,,,,,,,,,,,,,,,,,,,,,,,,,,,,,,,,,,,,,,,,,,,,,
062690,001,2022-11-14_01h26.56.284,Info_measure_main_exp,2022.2.2,Win32,60.53268765,,,,,,,,,,,,,,,,,,masks/mask_005.jpg,,,,,,,,,,,,,,,,,,,,,,,,,,,,,,,,,,,,,,,,,,,0,1,1,4,1,,,,,,,,,,,,,,,,,,,,,,,,,,,,,,,,,,,,,,,,,,,,,,
062690,001,2022-11-14_01h26.56.284,Info_measure_main_exp,2022.2.2,Win32,60.53268765,,,,,,,,,,,,,,,,,,masks/mask_003.jpg,,,,,,,,,,,,,,,,,,,,,,,,,,,,,,,,,,,,,,,,,,,0,2,2,2,1,,,,,,,,,,,,,,,,,,,,,,,,,,,,,,,,,,,,,,,,,,,,,,
062690,001,2022-11-14_01h26.56.284,Info_measure_main_exp,2022.2.2,Win32,60.53268765,,,,,,,,,,,,,,,,,,masks/mask_001.jpg,,,,,,,,,,,,,,,,,,,,,,,,,,,,,,,,,,,,,,,,,,,0,3,3,0,1,,,,,,,,,,,,,,,,,,,,,,,,,,,,,,,,,,,,,,,,,,,,,,
062690,001,2022-11-14_01h26.56.284,Info_measure_main_exp,2022.2.2,Win32,60.53268765,,,,,,,,,,,,,,,,,,masks/mask_004.jpg,,,,,,,,,,,,,,,,,,,,,,,,,,,,,,,,,,,,,,,,,,,0,4,4,3,1,,,,,,,,,,,,,,,,,,,,,,,,,,,,,,,,,,,,,,,,,,,,,,
062690,001,2022-11-14_01h26.56.284,Info_measure_main_exp,2022.2.2,Win32,60.53268765,,,,,,,,,,,,,,,,,,masks/mask_003.jpg,,,,,,,,,,,,,,,,,,,,,,,,,,,,,,,,,,,,,,,,,,,,,,,,0,0,0,2,1,,,,,,,,,,,,,,,,,,,,,,,,,,,,,,,,,,,,,,,,,
062690,001,2022-11-14_01h26.56.284,Info_measure_main_exp,2022.2.2,Win32,60.53268765,,,,,,,,,,,,,,,,,,masks/mask_002.jpg,,,,,,,,,,,,,,,,,,,,,,,,,,,,,,,,,,,,,,,,,,,,,,,,0,1,1,1,1,,,,,,,,,,,,,,,,,,,,,,,,,,,,,,,,,,,,,,,,,
062690,001,2022-11-14_01h26.56.284,Info_measure_main_exp,2022.2.2,Win32,60.53268765,,,,,,,,,,,,,,,,,,masks/mask_001.jpg,,,,,,,,,,,,,,,,,,,,,,,,,,,,,,,,,,,,,,,,,,,,,,,,0,2,2,0,1,,,,,,,,,,,,,,,,,,,,,,,,,,,,,,,,,,,,,,,,,
062690,001,2022-11-14_01h26.56.284,Info_measure_main_exp,2022.2.2,Win32,60.53268765,,,,,,,,,,,,,,,,,,masks/mask_004.jpg,,,,,,,,,,,,,,,,,,,,,,,,,,,,,,,,,,,,,,,,,,,,,,,,0,3,3,3,1,,,,,,,,,,,,,,,,,,,,,,,,,,,,,,,,,,,,,,,,,
062690,001,2022-11-14_01h26.56.284,Info_measure_main_exp,2022.2.2,Win32,60.53268765,,,,,,,,,,,,,,,,,,masks/mask_005.jpg,,,,,,,,,,,,,,,,,,,,,,,,,,,,,,,,,,,,,,,,,,,,,,,,0,4,4,4,1,,,,,,,,,,,,,,,,,,,,,,,,,,,,,,,,,,,,,,,,,
062690,001,2022-11-14_01h26.56.284,Info_measure_main_exp,2022.2.2,Win32,60.53268765,,,,,,,,,,,,,,,,,,,,,,,,,,,,,,6,1.9277,1,,,,,,,,,,,,0,131,5,5,2274,2142,absent_patch/patch0002274.jpg,absent_patch/patch0002142.jpg,,,,,,,,,,,,,,,,,,,,0.146296325,0.049074067,1,0,0,response1disk,25,-0.007407365,-0.0074074,1,0,0,center_square,0,24,24,75,1,,,,,,,,,,,,,,,,,,,,,,,
062690,001,2022-11-14_01h26.56.284,Info_measure_main_exp,2022.2.2,Win32,60.53268765,,,,,,,,,,,,,,,,,,masks/mask_003.jpg,,,,,,,,,,,,,,,,,,,,,,,,,,,,,,,,,,,,,,,,,,,0,0,0,2,1,,,,,,,,,,,,,,,,,,,,,,,,,,,,,,,,,,,,,,,,,,,,,,
062690,001,2022-11-14_01h26.56.284,Info_measure_main_exp,2022.2.2,Win32,60.53268765,,,,,,,,,,,,,,,,,,masks/mask_001.jpg,,,,,,,,,,,,,,,,,,,,,,,,,,,,,,,,,,,,,,,,,,,0,1,1,0,1,,,,,,,,,,,,,,,,,,,,,,,,,,,,,,,,,,,,,,,,,,,,,,
062690,001,2022-11-14_01h26.56.284,Info_measure_main_exp,2022.2.2,Win32,60.53268765,,,,,,,,,,,,,,,,,,masks/mask_004.jpg,,,,,,,,,,,,,,,,,,,,,,,,,,,,,,,,,,,,,,,,,,,0,2,2,3,1,,,,,,,,,,,,,,,,,,,,,,,,,,,,,,,,,,,,,,,,,,,,,,
062690,001,2022-11-14_01h26.56.284,Info_measure_main_exp,2022.2.2,Win32,60.53268765,,,,,,,,,,,,,,,,,,masks/mask_005.jpg,,,,,,,,,,,,,,,,,,,,,,,,,,,,,,,,,,,,,,,,,,,0,3,3,4,1,,,,,,,,,,,,,,,,,,,,,,,,,,,,,,,,,,,,,,,,,,,,,,
062690,001,2022-11-14_01h26.56.284,Info_measure_main_exp,2022.2.2,Win32,60.53268765,,,,,,,,,,,,,,,,,,masks/mask_002.jpg,,,,,,,,,,,,,,,,,,,,,,,,,,,,,,,,,,,,,,,,,,,0,4,4,1,1,,,,,,,,,,,,,,,,,,,,,,,,,,,,,,,,,,,,,,,,,,,,,,
062690,001,2022-11-14_01h26.56.284,Info_measure_main_exp,2022.2.2,Win32,60.53268765,,,,,,,,,,,,,,,,,,masks/mask_002.jpg,,,,,,,,,,,,,,,,,,,,,,,,,,,,,,,,,,,,,,,,,,,,,,,,0,0,0,1,1,,,,,,,,,,,,,,,,,,,,,,,,,,,,,,,,,,,,,,,,,
062690,001,2022-11-14_01h26.56.284,Info_measure_main_exp,2022.2.2,Win32,60.53268765,,,,,,,,,,,,,,,,,,masks/mask_004.jpg,,,,,,,,,,,,,,,,,,,,,,,,,,,,,,,,,,,,,,,,,,,,,,,,0,1,1,3,1,,,,,,,,,,,,,,,,,,,,,,,,,,,,,,,,,,,,,,,,,
062690,001,2022-11-14_01h26.56.284,Info_measure_main_exp,2022.2.2,Win32,60.53268765,,,,,,,,,,,,,,,,,,masks/mask_001.jpg,,,,,,,,,,,,,,,,,,,,,,,,,,,,,,,,,,,,,,,,,,,,,,,,0,2,2,0,1,,,,,,,,,,,,,,,,,,,,,,,,,,,,,,,,,,,,,,,,,
062690,001,2022-11-14_01h26.56.284,Info_measure_main_exp,2022.2.2,Win32,60.53268765,,,,,,,,,,,,,,,,,,masks/mask_003.jpg,,,,,,,,,,,,,,,,,,,,,,,,,,,,,,,,,,,,,,,,,,,,,,,,0,3,3,2,1,,,,,,,,,,,,,,,,,,,,,,,,,,,,,,,,,,,,,,,,,
062690,001,2022-11-14_01h26.56.284,Info_measure_main_exp,2022.2.2,Win32,60.53268765,,,,,,,,,,,,,,,,,,masks/mask_005.jpg,,,,,,,,,,,,,,,,,,,,,,,,,,,,,,,,,,,,,,,,,,,,,,,,0,4,4,4,1,,,,,,,,,,,,,,,,,,,,,,,,,,,,,,,,,,,,,,,,,
062690,001,2022-11-14_01h26.56.284,Info_measure_main_exp,2022.2.2,Win32,60.53268765,,,,,,,,,,,,,,,,,,,,,,,,,,,,,,0,1.2961,1,,,,,,,,,,,,0,131,5,5,2190,2190,absent_patch/patch0002190.jpg,absent_patch/patch0002190.jpg,,,,,,,,,,,,,,,,,,,,-0.062962921,0.121296282,1,0,0,response7disk,26,-0.002777735,-0.005555577,1,0,0,center_square,0,25,25,86,1,,,,,,,,,,,,,,,,,,,,,,,
062690,001,2022-11-14_01h26.56.284,Info_measure_main_exp,2022.2.2,Win32,60.53268765,,,,,,,,,,,,,,,,,,masks/mask_005.jpg,,,,,,,,,,,,,,,,,,,,,,,,,,,,,,,,,,,,,,,,,,,0,0,0,4,1,,,,,,,,,,,,,,,,,,,,,,,,,,,,,,,,,,,,,,,,,,,,,,
062690,001,2022-11-14_01h26.56.284,Info_measure_main_exp,2022.2.2,Win32,60.53268765,,,,,,,,,,,,,,,,,,masks/mask_003.jpg,,,,,,,,,,,,,,,,,,,,,,,,,,,,,,,,,,,,,,,,,,,0,1,1,2,1,,,,,,,,,,,,,,,,,,,,,,,,,,,,,,,,,,,,,,,,,,,,,,
062690,001,2022-11-14_01h26.56.284,Info_measure_main_exp,2022.2.2,Win32,60.53268765,,,,,,,,,,,,,,,,,,masks/mask_002.jpg,,,,,,,,,,,,,,,,,,,,,,,,,,,,,,,,,,,,,,,,,,,0,2,2,1,1,,,,,,,,,,,,,,,,,,,,,,,,,,,,,,,,,,,,,,,,,,,,,,
062690,001,2022-11-14_01h26.56.284,Info_measure_main_exp,2022.2.2,Win32,60.53268765,,,,,,,,,,,,,,,,,,masks/mask_001.jpg,,,,,,,,,,,,,,,,,,,,,,,,,,,,,,,,,,,,,,,,,,,0,3,3,0,1,,,,,,,,,,,,,,,,,,,,,,,,,,,,,,,,,,,,,,,,,,,,,,
062690,001,2022-11-14_01h26.56.284,Info_measure_main_exp,2022.2.2,Win32,60.53268765,,,,,,,,,,,,,,,,,,masks/mask_004.jpg,,,,,,,,,,,,,,,,,,,,,,,,,,,,,,,,,,,,,,,,,,,0,4,4,3,1,,,,,,,,,,,,,,,,,,,,,,,,,,,,,,,,,,,,,,,,,,,,,,
062690,001,2022-11-14_01h26.56.284,Info_measure_main_exp,2022.2.2,Win32,60.53268765,,,,,,,,,,,,,,,,,,masks/mask_005.jpg,,,,,,,,,,,,,,,,,,,,,,,,,,,,,,,,,,,,,,,,,,,,,,,,0,0,0,4,1,,,,,,,,,,,,,,,,,,,,,,,,,,,,,,,,,,,,,,,,,
062690,001,2022-11-14_01h26.56.284,Info_measure_main_exp,2022.2.2,Win32,60.53268765,,,,,,,,,,,,,,,,,,masks/mask_001.jpg,,,,,,,,,,,,,,,,,,,,,,,,,,,,,,,,,,,,,,,,,,,,,,,,0,1,1,0,1,,,,,,,,,,,,,,,,,,,,,,,,,,,,,,,,,,,,,,,,,
062690,001,2022-11-14_01h26.56.284,Info_measure_main_exp,2022.2.2,Win32,60.53268765,,,,,,,,,,,,,,,,,,masks/mask_004.jpg,,,,,,,,,,,,,,,,,,,,,,,,,,,,,,,,,,,,,,,,,,,,,,,,0,2,2,3,1,,,,,,,,,,,,,,,,,,,,,,,,,,,,,,,,,,,,,,,,,
062690,001,2022-11-14_01h26.56.284,Info_measure_main_exp,2022.2.2,Win32,60.53268765,,,,,,,,,,,,,,,,,,masks/mask_002.jpg,,,,,,,,,,,,,,,,,,,,,,,,,,,,,,,,,,,,,,,,,,,,,,,,0,3,3,1,1,,,,,,,,,,,,,,,,,,,,,,,,,,,,,,,,,,,,,,,,,
062690,001,2022-11-14_01h26.56.284,Info_measure_main_exp,2022.2.2,Win32,60.53268765,,,,,,,,,,,,,,,,,,masks/mask_003.jpg,,,,,,,,,,,,,,,,,,,,,,,,,,,,,,,,,,,,,,,,,,,,,,,,0,4,4,2,1,,,,,,,,,,,,,,,,,,,,,,,,,,,,,,,,,,,,,,,,,
062690,001,2022-11-14_01h26.56.284,Info_measure_main_exp,2022.2.2,Win32,60.53268765,,,,,,,,,,,,,,,,,,,,,,,,,,,,,,2,1.2128,1,,,,,,,,,,,,0,131,5,5,2298,2190,absent_patch/patch0002298.jpg,absent_patch/patch0002190.jpg,,,,,,,,,,,,,,,,,,,,-0.135185171,-0.042592614,1,0,0,response5disk,27,0.007407436,0.001851859,1,0,0,center_square,0,26,26,20,1,,,,,,,,,,,,,,,,,,,,,,,
062690,001,2022-11-14_01h26.56.284,Info_measure_main_exp,2022.2.2,Win32,60.53268765,,,,,,,,,,,,,,,,,,masks/mask_002.jpg,,,,,,,,,,,,,,,,,,,,,,,,,,,,,,,,,,,,,,,,,,,0,0,0,1,1,,,,,,,,,,,,,,,,,,,,,,,,,,,,,,,,,,,,,,,,,,,,,,
062690,001,2022-11-14_01h26.56.284,Info_measure_main_exp,2022.2.2,Win32,60.53268765,,,,,,,,,,,,,,,,,,masks/mask_001.jpg,,,,,,,,,,,,,,,,,,,,,,,,,,,,,,,,,,,,,,,,,,,0,1,1,0,1,,,,,,,,,,,,,,,,,,,,,,,,,,,,,,,,,,,,,,,,,,,,,,
062690,001,2022-11-14_01h26.56.284,Info_measure_main_exp,2022.2.2,Win32,60.53268765,,,,,,,,,,,,,,,,,,masks/mask_005.jpg,,,,,,,,,,,,,,,,,,,,,,,,,,,,,,,,,,,,,,,,,,,0,2,2,4,1,,,,,,,,,,,,,,,,,,,,,,,,,,,,,,,,,,,,,,,,,,,,,,
062690,001,2022-11-14_01h26.56.284,Info_measure_main_exp,2022.2.2,Win32,60.53268765,,,,,,,,,,,,,,,,,,masks/mask_004.jpg,,,,,,,,,,,,,,,,,,,,,,,,,,,,,,,,,,,,,,,,,,,0,3,3,3,1,,,,,,,,,,,,,,,,,,,,,,,,,,,,,,,,,,,,,,,,,,,,,,
062690,001,2022-11-14_01h26.56.284,Info_measure_main_exp,2022.2.2,Win32,60.53268765,,,,,,,,,,,,,,,,,,masks/mask_003.jpg,,,,,,,,,,,,,,,,,,,,,,,,,,,,,,,,,,,,,,,,,,,0,4,4,2,1,,,,,,,,,,,,,,,,,,,,,,,,,,,,,,,,,,,,,,,,,,,,,,
062690,001,2022-11-14_01h26.56.284,Info_measure_main_exp,2022.2.2,Win32,60.53268765,,,,,,,,,,,,,,,,,,masks/mask_004.jpg,,,,,,,,,,,,,,,,,,,,,,,,,,,,,,,,,,,,,,,,,,,,,,,,0,0,0,3,1,,,,,,,,,,,,,,,,,,,,,,,,,,,,,,,,,,,,,,,,,
062690,001,2022-11-14_01h26.56.284,Info_measure_main_exp,2022.2.2,Win32,60.53268765,,,,,,,,,,,,,,,,,,masks/mask_002.jpg,,,,,,,,,,,,,,,,,,,,,,,,,,,,,,,,,,,,,,,,,,,,,,,,0,1,1,1,1,,,,,,,,,,,,,,,,,,,,,,,,,,,,,,,,,,,,,,,,,
062690,001,2022-11-14_01h26.56.284,Info_measure_main_exp,2022.2.2,Win32,60.53268765,,,,,,,,,,,,,,,,,,masks/mask_005.jpg,,,,,,,,,,,,,,,,,,,,,,,,,,,,,,,,,,,,,,,,,,,,,,,,0,2,2,4,1,,,,,,,,,,,,,,,,,,,,,,,,,,,,,,,,,,,,,,,,,
062690,001,2022-11-14_01h26.56.284,Info_measure_main_exp,2022.2.2,Win32,60.53268765,,,,,,,,,,,,,,,,,,masks/mask_001.jpg,,,,,,,,,,,,,,,,,,,,,,,,,,,,,,,,,,,,,,,,,,,,,,,,0,3,3,0,1,,,,,,,,,,,,,,,,,,,,,,,,,,,,,,,,,,,,,,,,,
062690,001,2022-11-14_01h26.56.284,Info_measure_main_exp,2022.2.2,Win32,60.53268765,,,,,,,,,,,,,,,,,,masks/mask_003.jpg,,,,,,,,,,,,,,,,,,,,,,,,,,,,,,,,,,,,,,,,,,,,,,,,0,4,4,2,1,,,,,,,,,,,,,,,,,,,,,,,,,,,,,,,,,,,,,,,,,
062690,001,2022-11-14_01h26.56.284,Info_measure_main_exp,2022.2.2,Win32,60.53268765,,,,,,,,,,,,,,,,,,,,,,,,,,,,,,7,1.0796,1,,,,,,,,,,,,0,131,5,5,2154,1974,absent_patch/patch0002154.jpg,absent_patch/patch0001974.jpg,,,,,,,,,,,,,,,,,,,,0.025000042,0.099999993,1,0,0,response1disk,28,0.00462963,0.00462963,1,0,0,center_square,0,27,27,82,1,,,,,,,,,,,,,,,,,,,,,,,
062690,001,2022-11-14_01h26.56.284,Info_measure_main_exp,2022.2.2,Win32,60.53268765,,,,,,,,,,,,,,,,,,masks/mask_004.jpg,,,,,,,,,,,,,,,,,,,,,,,,,,,,,,,,,,,,,,,,,,,0,0,0,3,1,,,,,,,,,,,,,,,,,,,,,,,,,,,,,,,,,,,,,,,,,,,,,,
062690,001,2022-11-14_01h26.56.284,Info_measure_main_exp,2022.2.2,Win32,60.53268765,,,,,,,,,,,,,,,,,,masks/mask_003.jpg,,,,,,,,,,,,,,,,,,,,,,,,,,,,,,,,,,,,,,,,,,,0,1,1,2,1,,,,,,,,,,,,,,,,,,,,,,,,,,,,,,,,,,,,,,,,,,,,,,
062690,001,2022-11-14_01h26.56.284,Info_measure_main_exp,2022.2.2,Win32,60.53268765,,,,,,,,,,,,,,,,,,masks/mask_002.jpg,,,,,,,,,,,,,,,,,,,,,,,,,,,,,,,,,,,,,,,,,,,0,2,2,1,1,,,,,,,,,,,,,,,,,,,,,,,,,,,,,,,,,,,,,,,,,,,,,,
062690,001,2022-11-14_01h26.56.284,Info_measure_main_exp,2022.2.2,Win32,60.53268765,,,,,,,,,,,,,,,,,,masks/mask_005.jpg,,,,,,,,,,,,,,,,,,,,,,,,,,,,,,,,,,,,,,,,,,,0,3,3,4,1,,,,,,,,,,,,,,,,,,,,,,,,,,,,,,,,,,,,,,,,,,,,,,
062690,001,2022-11-14_01h26.56.284,Info_measure_main_exp,2022.2.2,Win32,60.53268765,,,,,,,,,,,,,,,,,,masks/mask_001.jpg,,,,,,,,,,,,,,,,,,,,,,,,,,,,,,,,,,,,,,,,,,,0,4,4,0,1,,,,,,,,,,,,,,,,,,,,,,,,,,,,,,,,,,,,,,,,,,,,,,
062690,001,2022-11-14_01h26.56.284,Info_measure_main_exp,2022.2.2,Win32,60.53268765,,,,,,,,,,,,,,,,,,masks/mask_003.jpg,,,,,,,,,,,,,,,,,,,,,,,,,,,,,,,,,,,,,,,,,,,,,,,,0,0,0,2,1,,,,,,,,,,,,,,,,,,,,,,,,,,,,,,,,,,,,,,,,,
062690,001,2022-11-14_01h26.56.284,Info_measure_main_exp,2022.2.2,Win32,60.53268765,,,,,,,,,,,,,,,,,,masks/mask_002.jpg,,,,,,,,,,,,,,,,,,,,,,,,,,,,,,,,,,,,,,,,,,,,,,,,0,1,1,1,1,,,,,,,,,,,,,,,,,,,,,,,,,,,,,,,,,,,,,,,,,
062690,001,2022-11-14_01h26.56.284,Info_measure_main_exp,2022.2.2,Win32,60.53268765,,,,,,,,,,,,,,,,,,masks/mask_005.jpg,,,,,,,,,,,,,,,,,,,,,,,,,,,,,,,,,,,,,,,,,,,,,,,,0,2,2,4,1,,,,,,,,,,,,,,,,,,,,,,,,,,,,,,,,,,,,,,,,,
062690,001,2022-11-14_01h26.56.284,Info_measure_main_exp,2022.2.2,Win32,60.53268765,,,,,,,,,,,,,,,,,,masks/mask_001.jpg,,,,,,,,,,,,,,,,,,,,,,,,,,,,,,,,,,,,,,,,,,,,,,,,0,3,3,0,1,,,,,,,,,,,,,,,,,,,,,,,,,,,,,,,,,,,,,,,,,
062690,001,2022-11-14_01h26.56.284,Info_measure_main_exp,2022.2.2,Win32,60.53268765,,,,,,,,,,,,,,,,,,masks/mask_004.jpg,,,,,,,,,,,,,,,,,,,,,,,,,,,,,,,,,,,,,,,,,,,,,,,,0,4,4,3,1,,,,,,,,,,,,,,,,,,,,,,,,,,,,,,,,,,,,,,,,,
062690,001,2022-11-14_01h26.56.284,Info_measure_main_exp,2022.2.2,Win32,60.53268765,,,,,,,,,,,,,,,,,,,,,,,,,,,,,,3,1.1303,1,,,,,,,,,,,,0,131,5,5,2190,2082,absent_patch/patch0002190.jpg,absent_patch/patch0002082.jpg,,,,,,,,,,,,,,,,,,,,-0.063888903,-0.083333333,1,0,0,response5disk,29,-0.007407365,-0.008333347,1,0,0,center_square,0,28,28,112,1,,,,,,,,,,,,,,,,,,,,,,,
062690,001,2022-11-14_01h26.56.284,Info_measure_main_exp,2022.2.2,Win32,60.53268765,,,,,,,,,,,,,,,,,,masks/mask_003.jpg,,,,,,,,,,,,,,,,,,,,,,,,,,,,,,,,,,,,,,,,,,,0,0,0,2,1,,,,,,,,,,,,,,,,,,,,,,,,,,,,,,,,,,,,,,,,,,,,,,
062690,001,2022-11-14_01h26.56.284,Info_measure_main_exp,2022.2.2,Win32,60.53268765,,,,,,,,,,,,,,,,,,masks/mask_001.jpg,,,,,,,,,,,,,,,,,,,,,,,,,,,,,,,,,,,,,,,,,,,0,1,1,0,1,,,,,,,,,,,,,,,,,,,,,,,,,,,,,,,,,,,,,,,,,,,,,,
062690,001,2022-11-14_01h26.56.284,Info_measure_main_exp,2022.2.2,Win32,60.53268765,,,,,,,,,,,,,,,,,,masks/mask_005.jpg,,,,,,,,,,,,,,,,,,,,,,,,,,,,,,,,,,,,,,,,,,,0,2,2,4,1,,,,,,,,,,,,,,,,,,,,,,,,,,,,,,,,,,,,,,,,,,,,,,
062690,001,2022-11-14_01h26.56.284,Info_measure_main_exp,2022.2.2,Win32,60.53268765,,,,,,,,,,,,,,,,,,masks/mask_002.jpg,,,,,,,,,,,,,,,,,,,,,,,,,,,,,,,,,,,,,,,,,,,0,3,3,1,1,,,,,,,,,,,,,,,,,,,,,,,,,,,,,,,,,,,,,,,,,,,,,,
062690,001,2022-11-14_01h26.56.284,Info_measure_main_exp,2022.2.2,Win32,60.53268765,,,,,,,,,,,,,,,,,,masks/mask_004.jpg,,,,,,,,,,,,,,,,,,,,,,,,,,,,,,,,,,,,,,,,,,,0,4,4,3,1,,,,,,,,,,,,,,,,,,,,,,,,,,,,,,,,,,,,,,,,,,,,,,
062690,001,2022-11-14_01h26.56.284,Info_measure_main_exp,2022.2.2,Win32,60.53268765,,,,,,,,,,,,,,,,,,masks/mask_001.jpg,,,,,,,,,,,,,,,,,,,,,,,,,,,,,,,,,,,,,,,,,,,,,,,,0,0,0,0,1,,,,,,,,,,,,,,,,,,,,,,,,,,,,,,,,,,,,,,,,,
062690,001,2022-11-14_01h26.56.284,Info_measure_main_exp,2022.2.2,Win32,60.53268765,,,,,,,,,,,,,,,,,,masks/mask_002.jpg,,,,,,,,,,,,,,,,,,,,,,,,,,,,,,,,,,,,,,,,,,,,,,,,0,1,1,1,1,,,,,,,,,,,,,,,,,,,,,,,,,,,,,,,,,,,,,,,,,
062690,001,2022-11-14_01h26.56.284,Info_measure_main_exp,2022.2.2,Win32,60.53268765,,,,,,,,,,,,,,,,,,masks/mask_005.jpg,,,,,,,,,,,,,,,,,,,,,,,,,,,,,,,,,,,,,,,,,,,,,,,,0,2,2,4,1,,,,,,,,,,,,,,,,,,,,,,,,,,,,,,,,,,,,,,,,,
062690,001,2022-11-14_01h26.56.284,Info_measure_main_exp,2022.2.2,Win32,60.53268765,,,,,,,,,,,,,,,,,,masks/mask_004.jpg,,,,,,,,,,,,,,,,,,,,,,,,,,,,,,,,,,,,,,,,,,,,,,,,0,3,3,3,1,,,,,,,,,,,,,,,,,,,,,,,,,,,,,,,,,,,,,,,,,
062690,001,2022-11-14_01h26.56.284,Info_measure_main_exp,2022.2.2,Win32,60.53268765,,,,,,,,,,,,,,,,,,masks/mask_003.jpg,,,,,,,,,,,,,,,,,,,,,,,,,,,,,,,,,,,,,,,,,,,,,,,,0,4,4,2,1,,,,,,,,,,,,,,,,,,,,,,,,,,,,,,,,,,,,,,,,,
062690,001,2022-11-14_01h26.56.284,Info_measure_main_exp,2022.2.2,Win32,60.53268765,,,,,,,,,,,,,,,,,,,,,,,,,,,,,,1,1.1629,1,,,,,,,,,,,,0,131,5,5,1986,2154,absent_patch/patch0001986.jpg,absent_patch/patch0002154.jpg,,,,,,,,,,,,,,,,,,,,-0.111111111,0.017592571,1,0,0,response7disk,30,-0.000925912,-0.005555577,1,0,0,center_square,0,29,29,36,1,,,,,,,,,,,,,,,,,,,,,,,
062690,001,2022-11-14_01h26.56.284,Info_measure_main_exp,2022.2.2,Win32,60.53268765,,,,,,,,,,,,,,,,,,masks/mask_004.jpg,,,,,,,,,,,,,,,,,,,,,,,,,,,,,,,,,,,,,,,,,,,0,0,0,3,1,,,,,,,,,,,,,,,,,,,,,,,,,,,,,,,,,,,,,,,,,,,,,,
062690,001,2022-11-14_01h26.56.284,Info_measure_main_exp,2022.2.2,Win32,60.53268765,,,,,,,,,,,,,,,,,,masks/mask_005.jpg,,,,,,,,,,,,,,,,,,,,,,,,,,,,,,,,,,,,,,,,,,,0,1,1,4,1,,,,,,,,,,,,,,,,,,,,,,,,,,,,,,,,,,,,,,,,,,,,,,
062690,001,2022-11-14_01h26.56.284,Info_measure_main_exp,2022.2.2,Win32,60.53268765,,,,,,,,,,,,,,,,,,masks/mask_002.jpg,,,,,,,,,,,,,,,,,,,,,,,,,,,,,,,,,,,,,,,,,,,0,2,2,1,1,,,,,,,,,,,,,,,,,,,,,,,,,,,,,,,,,,,,,,,,,,,,,,
062690,001,2022-11-14_01h26.56.284,Info_measure_main_exp,2022.2.2,Win32,60.53268765,,,,,,,,,,,,,,,,,,masks/mask_001.jpg,,,,,,,,,,,,,,,,,,,,,,,,,,,,,,,,,,,,,,,,,,,0,3,3,0,1,,,,,,,,,,,,,,,,,,,,,,,,,,,,,,,,,,,,,,,,,,,,,,
062690,001,2022-11-14_01h26.56.284,Info_measure_main_exp,2022.2.2,Win32,60.53268765,,,,,,,,,,,,,,,,,,masks/mask_003.jpg,,,,,,,,,,,,,,,,,,,,,,,,,,,,,,,,,,,,,,,,,,,0,4,4,2,1,,,,,,,,,,,,,,,,,,,,,,,,,,,,,,,,,,,,,,,,,,,,,,
062690,001,2022-11-14_01h26.56.284,Info_measure_main_exp,2022.2.2,Win32,60.53268765,,,,,,,,,,,,,,,,,,masks/mask_005.jpg,,,,,,,,,,,,,,,,,,,,,,,,,,,,,,,,,,,,,,,,,,,,,,,,0,0,0,4,1,,,,,,,,,,,,,,,,,,,,,,,,,,,,,,,,,,,,,,,,,
062690,001,2022-11-14_01h26.56.284,Info_measure_main_exp,2022.2.2,Win32,60.53268765,,,,,,,,,,,,,,,,,,masks/mask_002.jpg,,,,,,,,,,,,,,,,,,,,,,,,,,,,,,,,,,,,,,,,,,,,,,,,0,1,1,1,1,,,,,,,,,,,,,,,,,,,,,,,,,,,,,,,,,,,,,,,,,
062690,001,2022-11-14_01h26.56.284,Info_measure_main_exp,2022.2.2,Win32,60.53268765,,,,,,,,,,,,,,,,,,masks/mask_003.jpg,,,,,,,,,,,,,,,,,,,,,,,,,,,,,,,,,,,,,,,,,,,,,,,,0,2,2,2,1,,,,,,,,,,,,,,,,,,,,,,,,,,,,,,,,,,,,,,,,,
062690,001,2022-11-14_01h26.56.284,Info_measure_main_exp,2022.2.2,Win32,60.53268765,,,,,,,,,,,,,,,,,,masks/mask_001.jpg,,,,,,,,,,,,,,,,,,,,,,,,,,,,,,,,,,,,,,,,,,,,,,,,0,3,3,0,1,,,,,,,,,,,,,,,,,,,,,,,,,,,,,,,,,,,,,,,,,
062690,001,2022-11-14_01h26.56.284,Info_measure_main_exp,2022.2.2,Win32,60.53268765,,,,,,,,,,,,,,,,,,masks/mask_004.jpg,,,,,,,,,,,,,,,,,,,,,,,,,,,,,,,,,,,,,,,,,,,,,,,,0,4,4,3,1,,,,,,,,,,,,,,,,,,,,,,,,,,,,,,,,,,,,,,,,,
062690,001,2022-11-14_01h26.56.284,Info_measure_main_exp,2022.2.2,Win32,60.53268765,,,,,,,,,,,,,,,,,,,,,,,,,,,,,,2,1.0967,1,,,,,,,,,,,,0,131,5,5,2082,2298,absent_patch/patch0002082.jpg,absent_patch/patch0002298.jpg,,,,,,,,,,,,,,,,,,,,-0.112037023,-0.036111125,1,0,0,response5disk,31,0.005555541,0.003703683,1,0,0,center_square,0,30,30,107,1,,,,,,,,,,,,,,,,,,,,,,,
062690,001,2022-11-14_01h26.56.284,Info_measure_main_exp,2022.2.2,Win32,60.53268765,,,,,,,,,,,,,,,,,,masks/mask_002.jpg,,,,,,,,,,,,,,,,,,,,,,,,,,,,,,,,,,,,,,,,,,,0,0,0,1,1,,,,,,,,,,,,,,,,,,,,,,,,,,,,,,,,,,,,,,,,,,,,,,
062690,001,2022-11-14_01h26.56.284,Info_measure_main_exp,2022.2.2,Win32,60.53268765,,,,,,,,,,,,,,,,,,masks/mask_005.jpg,,,,,,,,,,,,,,,,,,,,,,,,,,,,,,,,,,,,,,,,,,,0,1,1,4,1,,,,,,,,,,,,,,,,,,,,,,,,,,,,,,,,,,,,,,,,,,,,,,
062690,001,2022-11-14_01h26.56.284,Info_measure_main_exp,2022.2.2,Win32,60.53268765,,,,,,,,,,,,,,,,,,masks/mask_001.jpg,,,,,,,,,,,,,,,,,,,,,,,,,,,,,,,,,,,,,,,,,,,0,2,2,0,1,,,,,,,,,,,,,,,,,,,,,,,,,,,,,,,,,,,,,,,,,,,,,,
062690,001,2022-11-14_01h26.56.284,Info_measure_main_exp,2022.2.2,Win32,60.53268765,,,,,,,,,,,,,,,,,,masks/mask_004.jpg,,,,,,,,,,,,,,,,,,,,,,,,,,,,,,,,,,,,,,,,,,,0,3,3,3,1,,,,,,,,,,,,,,,,,,,,,,,,,,,,,,,,,,,,,,,,,,,,,,
062690,001,2022-11-14_01h26.56.284,Info_measure_main_exp,2022.2.2,Win32,60.53268765,,,,,,,,,,,,,,,,,,masks/mask_003.jpg,,,,,,,,,,,,,,,,,,,,,,,,,,,,,,,,,,,,,,,,,,,0,4,4,2,1,,,,,,,,,,,,,,,,,,,,,,,,,,,,,,,,,,,,,,,,,,,,,,
062690,001,2022-11-14_01h26.56.284,Info_measure_main_exp,2022.2.2,Win32,60.53268765,,,,,,,,,,,,,,,,,,masks/mask_002.jpg,,,,,,,,,,,,,,,,,,,,,,,,,,,,,,,,,,,,,,,,,,,,,,,,0,0,0,1,1,,,,,,,,,,,,,,,,,,,,,,,,,,,,,,,,,,,,,,,,,
062690,001,2022-11-14_01h26.56.284,Info_measure_main_exp,2022.2.2,Win32,60.53268765,,,,,,,,,,,,,,,,,,masks/mask_001.jpg,,,,,,,,,,,,,,,,,,,,,,,,,,,,,,,,,,,,,,,,,,,,,,,,0,1,1,0,1,,,,,,,,,,,,,,,,,,,,,,,,,,,,,,,,,,,,,,,,,
062690,001,2022-11-14_01h26.56.284,Info_measure_main_exp,2022.2.2,Win32,60.53268765,,,,,,,,,,,,,,,,,,masks/mask_005.jpg,,,,,,,,,,,,,,,,,,,,,,,,,,,,,,,,,,,,,,,,,,,,,,,,0,2,2,4,1,,,,,,,,,,,,,,,,,,,,,,,,,,,,,,,,,,,,,,,,,
062690,001,2022-11-14_01h26.56.284,Info_measure_main_exp,2022.2.2,Win32,60.53268765,,,,,,,,,,,,,,,,,,masks/mask_003.jpg,,,,,,,,,,,,,,,,,,,,,,,,,,,,,,,,,,,,,,,,,,,,,,,,0,3,3,2,1,,,,,,,,,,,,,,,,,,,,,,,,,,,,,,,,,,,,,,,,,
062690,001,2022-11-14_01h26.56.284,Info_measure_main_exp,2022.2.2,Win32,60.53268765,,,,,,,,,,,,,,,,,,masks/mask_004.jpg,,,,,,,,,,,,,,,,,,,,,,,,,,,,,,,,,,,,,,,,,,,,,,,,0,4,4,3,1,,,,,,,,,,,,,,,,,,,,,,,,,,,,,,,,,,,,,,,,,
062690,001,2022-11-14_01h26.56.284,Info_measure_main_exp,2022.2.2,Win32,60.53268765,,,,,,,,,,,,,,,,,,,,,,,,,,,,,,2,1.1467,1,,,,,,,,,,,,0,131,5,5,1986,2238,absent_patch/patch0001986.jpg,absent_patch/patch0002238.jpg,,,,,,,,,,,,,,,,,,,,-0.137036995,-0.047222243,1,0,0,response5disk,32,0.002777806,-0.000925947,1,0,0,center_square,0,31,31,31,1,,,,,,,,,,,,,,,,,,,,,,,
062690,001,2022-11-14_01h26.56.284,Info_measure_main_exp,2022.2.2,Win32,60.53268765,,,,,,,,,,,,,,,,,,masks/mask_001.jpg,,,,,,,,,,,,,,,,,,,,,,,,,,,,,,,,,,,,,,,,,,,0,0,0,0,1,,,,,,,,,,,,,,,,,,,,,,,,,,,,,,,,,,,,,,,,,,,,,,
062690,001,2022-11-14_01h26.56.284,Info_measure_main_exp,2022.2.2,Win32,60.53268765,,,,,,,,,,,,,,,,,,masks/mask_005.jpg,,,,,,,,,,,,,,,,,,,,,,,,,,,,,,,,,,,,,,,,,,,0,1,1,4,1,,,,,,,,,,,,,,,,,,,,,,,,,,,,,,,,,,,,,,,,,,,,,,
062690,001,2022-11-14_01h26.56.284,Info_measure_main_exp,2022.2.2,Win32,60.53268765,,,,,,,,,,,,,,,,,,masks/mask_004.jpg,,,,,,,,,,,,,,,,,,,,,,,,,,,,,,,,,,,,,,,,,,,0,2,2,3,1,,,,,,,,,,,,,,,,,,,,,,,,,,,,,,,,,,,,,,,,,,,,,,
062690,001,2022-11-14_01h26.56.284,Info_measure_main_exp,2022.2.2,Win32,60.53268765,,,,,,,,,,,,,,,,,,masks/mask_002.jpg,,,,,,,,,,,,,,,,,,,,,,,,,,,,,,,,,,,,,,,,,,,0,3,3,1,1,,,,,,,,,,,,,,,,,,,,,,,,,,,,,,,,,,,,,,,,,,,,,,
062690,001,2022-11-14_01h26.56.284,Info_measure_main_exp,2022.2.2,Win32,60.53268765,,,,,,,,,,,,,,,,,,masks/mask_003.jpg,,,,,,,,,,,,,,,,,,,,,,,,,,,,,,,,,,,,,,,,,,,0,4,4,2,1,,,,,,,,,,,,,,,,,,,,,,,,,,,,,,,,,,,,,,,,,,,,,,
062690,001,2022-11-14_01h26.56.284,Info_measure_main_exp,2022.2.2,Win32,60.53268765,,,,,,,,,,,,,,,,,,masks/mask_002.jpg,,,,,,,,,,,,,,,,,,,,,,,,,,,,,,,,,,,,,,,,,,,,,,,,0,0,0,1,1,,,,,,,,,,,,,,,,,,,,,,,,,,,,,,,,,,,,,,,,,
062690,001,2022-11-14_01h26.56.284,Info_measure_main_exp,2022.2.2,Win32,60.53268765,,,,,,,,,,,,,,,,,,masks/mask_004.jpg,,,,,,,,,,,,,,,,,,,,,,,,,,,,,,,,,,,,,,,,,,,,,,,,0,1,1,3,1,,,,,,,,,,,,,,,,,,,,,,,,,,,,,,,,,,,,,,,,,
062690,001,2022-11-14_01h26.56.284,Info_measure_main_exp,2022.2.2,Win32,60.53268765,,,,,,,,,,,,,,,,,,masks/mask_005.jpg,,,,,,,,,,,,,,,,,,,,,,,,,,,,,,,,,,,,,,,,,,,,,,,,0,2,2,4,1,,,,,,,,,,,,,,,,,,,,,,,,,,,,,,,,,,,,,,,,,
062690,001,2022-11-14_01h26.56.284,Info_measure_main_exp,2022.2.2,Win32,60.53268765,,,,,,,,,,,,,,,,,,masks/mask_001.jpg,,,,,,,,,,,,,,,,,,,,,,,,,,,,,,,,,,,,,,,,,,,,,,,,0,3,3,0,1,,,,,,,,,,,,,,,,,,,,,,,,,,,,,,,,,,,,,,,,,
062690,001,2022-11-14_01h26.56.284,Info_measure_main_exp,2022.2.2,Win32,60.53268765,,,,,,,,,,,,,,,,,,masks/mask_003.jpg,,,,,,,,,,,,,,,,,,,,,,,,,,,,,,,,,,,,,,,,,,,,,,,,0,4,4,2,1,,,,,,,,,,,,,,,,,,,,,,,,,,,,,,,,,,,,,,,,,
062690,001,2022-11-14_01h26.56.284,Info_measure_main_exp,2022.2.2,Win32,60.53268765,,,,,,,,,,,,,,,,,,,,,,,,,,,,,,5,0.9638,1,,,,,,,,,,,,1,131,5,5,2082,1,absent_patch/patch0002082.jpg,present_patch/cong_131_5_a.jpg,,,,,,,,,,,,,,,,,,,,0.109259288,-0.061111132,1,0,0,response3disk,33,0.00462963,-0.006481489,1,0,0,center_square,0,32,32,65,1,,,,,,,,,,,,,,,,,,,,,,,
062690,001,2022-11-14_01h26.56.284,Info_measure_main_exp,2022.2.2,Win32,60.53268765,,,,,,,,,,,,,,,,,,masks/mask_003.jpg,,,,,,,,,,,,,,,,,,,,,,,,,,,,,,,,,,,,,,,,,,,0,0,0,2,1,,,,,,,,,,,,,,,,,,,,,,,,,,,,,,,,,,,,,,,,,,,,,,
062690,001,2022-11-14_01h26.56.284,Info_measure_main_exp,2022.2.2,Win32,60.53268765,,,,,,,,,,,,,,,,,,masks/mask_005.jpg,,,,,,,,,,,,,,,,,,,,,,,,,,,,,,,,,,,,,,,,,,,0,1,1,4,1,,,,,,,,,,,,,,,,,,,,,,,,,,,,,,,,,,,,,,,,,,,,,,
062690,001,2022-11-14_01h26.56.284,Info_measure_main_exp,2022.2.2,Win32,60.53268765,,,,,,,,,,,,,,,,,,masks/mask_002.jpg,,,,,,,,,,,,,,,,,,,,,,,,,,,,,,,,,,,,,,,,,,,0,2,2,1,1,,,,,,,,,,,,,,,,,,,,,,,,,,,,,,,,,,,,,,,,,,,,,,
062690,001,2022-11-14_01h26.56.284,Info_measure_main_exp,2022.2.2,Win32,60.53268765,,,,,,,,,,,,,,,,,,masks/mask_001.jpg,,,,,,,,,,,,,,,,,,,,,,,,,,,,,,,,,,,,,,,,,,,0,3,3,0,1,,,,,,,,,,,,,,,,,,,,,,,,,,,,,,,,,,,,,,,,,,,,,,
062690,001,2022-11-14_01h26.56.284,Info_measure_main_exp,2022.2.2,Win32,60.53268765,,,,,,,,,,,,,,,,,,masks/mask_004.jpg,,,,,,,,,,,,,,,,,,,,,,,,,,,,,,,,,,,,,,,,,,,0,4,4,3,1,,,,,,,,,,,,,,,,,,,,,,,,,,,,,,,,,,,,,,,,,,,,,,
062690,001,2022-11-14_01h26.56.284,Info_measure_main_exp,2022.2.2,Win32,60.53268765,,,,,,,,,,,,,,,,,,masks/mask_005.jpg,,,,,,,,,,,,,,,,,,,,,,,,,,,,,,,,,,,,,,,,,,,,,,,,0,0,0,4,1,,,,,,,,,,,,,,,,,,,,,,,,,,,,,,,,,,,,,,,,,
062690,001,2022-11-14_01h26.56.284,Info_measure_main_exp,2022.2.2,Win32,60.53268765,,,,,,,,,,,,,,,,,,masks/mask_001.jpg,,,,,,,,,,,,,,,,,,,,,,,,,,,,,,,,,,,,,,,,,,,,,,,,0,1,1,0,1,,,,,,,,,,,,,,,,,,,,,,,,,,,,,,,,,,,,,,,,,
062690,001,2022-11-14_01h26.56.284,Info_measure_main_exp,2022.2.2,Win32,60.53268765,,,,,,,,,,,,,,,,,,masks/mask_002.jpg,,,,,,,,,,,,,,,,,,,,,,,,,,,,,,,,,,,,,,,,,,,,,,,,0,2,2,1,1,,,,,,,,,,,,,,,,,,,,,,,,,,,,,,,,,,,,,,,,,
062690,001,2022-11-14_01h26.56.284,Info_measure_main_exp,2022.2.2,Win32,60.53268765,,,,,,,,,,,,,,,,,,masks/mask_003.jpg,,,,,,,,,,,,,,,,,,,,,,,,,,,,,,,,,,,,,,,,,,,,,,,,0,3,3,2,1,,,,,,,,,,,,,,,,,,,,,,,,,,,,,,,,,,,,,,,,,
062690,001,2022-11-14_01h26.56.284,Info_measure_main_exp,2022.2.2,Win32,60.53268765,,,,,,,,,,,,,,,,,,masks/mask_004.jpg,,,,,,,,,,,,,,,,,,,,,,,,,,,,,,,,,,,,,,,,,,,,,,,,0,4,4,3,1,,,,,,,,,,,,,,,,,,,,,,,,,,,,,,,,,,,,,,,,,
062690,001,2022-11-14_01h26.56.284,Info_measure_main_exp,2022.2.2,Win32,60.53268765,,,,,,,,,,,,,,,,,,,,,,,,,,,,,,6,1.9777,1,,,,,,,,,,,,0,131,5,5,2082,1986,absent_patch/patch0002082.jpg,absent_patch/patch0001986.jpg,,,,,,,,,,,,,,,,,,,,0.112963005,0.049999979,1,0,0,response1disk,34,0.001851894,0.0074074,1,0,0,center_square,0,33,33,94,1,,,,,,,,,,,,,,,,,,,,,,,
062690,001,2022-11-14_01h26.56.284,Info_measure_main_exp,2022.2.2,Win32,60.53268765,,,,,,,,,,,,,,,,,,masks/mask_005.jpg,,,,,,,,,,,,,,,,,,,,,,,,,,,,,,,,,,,,,,,,,,,0,0,0,4,1,,,,,,,,,,,,,,,,,,,,,,,,,,,,,,,,,,,,,,,,,,,,,,
062690,001,2022-11-14_01h26.56.284,Info_measure_main_exp,2022.2.2,Win32,60.53268765,,,,,,,,,,,,,,,,,,masks/mask_002.jpg,,,,,,,,,,,,,,,,,,,,,,,,,,,,,,,,,,,,,,,,,,,0,1,1,1,1,,,,,,,,,,,,,,,,,,,,,,,,,,,,,,,,,,,,,,,,,,,,,,
062690,001,2022-11-14_01h26.56.284,Info_measure_main_exp,2022.2.2,Win32,60.53268765,,,,,,,,,,,,,,,,,,masks/mask_003.jpg,,,,,,,,,,,,,,,,,,,,,,,,,,,,,,,,,,,,,,,,,,,0,2,2,2,1,,,,,,,,,,,,,,,,,,,,,,,,,,,,,,,,,,,,,,,,,,,,,,
062690,001,2022-11-14_01h26.56.284,Info_measure_main_exp,2022.2.2,Win32,60.53268765,,,,,,,,,,,,,,,,,,masks/mask_001.jpg,,,,,,,,,,,,,,,,,,,,,,,,,,,,,,,,,,,,,,,,,,,0,3,3,0,1,,,,,,,,,,,,,,,,,,,,,,,,,,,,,,,,,,,,,,,,,,,,,,
062690,001,2022-11-14_01h26.56.284,Info_measure_main_exp,2022.2.2,Win32,60.53268765,,,,,,,,,,,,,,,,,,masks/mask_004.jpg,,,,,,,,,,,,,,,,,,,,,,,,,,,,,,,,,,,,,,,,,,,0,4,4,3,1,,,,,,,,,,,,,,,,,,,,,,,,,,,,,,,,,,,,,,,,,,,,,,
062690,001,2022-11-14_01h26.56.284,Info_measure_main_exp,2022.2.2,Win32,60.53268765,,,,,,,,,,,,,,,,,,masks/mask_004.jpg,,,,,,,,,,,,,,,,,,,,,,,,,,,,,,,,,,,,,,,,,,,,,,,,0,0,0,3,1,,,,,,,,,,,,,,,,,,,,,,,,,,,,,,,,,,,,,,,,,
062690,001,2022-11-14_01h26.56.284,Info_measure_main_exp,2022.2.2,Win32,60.53268765,,,,,,,,,,,,,,,,,,masks/mask_003.jpg,,,,,,,,,,,,,,,,,,,,,,,,,,,,,,,,,,,,,,,,,,,,,,,,0,1,1,2,1,,,,,,,,,,,,,,,,,,,,,,,,,,,,,,,,,,,,,,,,,
062690,001,2022-11-14_01h26.56.284,Info_measure_main_exp,2022.2.2,Win32,60.53268765,,,,,,,,,,,,,,,,,,masks/mask_005.jpg,,,,,,,,,,,,,,,,,,,,,,,,,,,,,,,,,,,,,,,,,,,,,,,,0,2,2,4,1,,,,,,,,,,,,,,,,,,,,,,,,,,,,,,,,,,,,,,,,,
062690,001,2022-11-14_01h26.56.284,Info_measure_main_exp,2022.2.2,Win32,60.53268765,,,,,,,,,,,,,,,,,,masks/mask_001.jpg,,,,,,,,,,,,,,,,,,,,,,,,,,,,,,,,,,,,,,,,,,,,,,,,0,3,3,0,1,,,,,,,,,,,,,,,,,,,,,,,,,,,,,,,,,,,,,,,,,
