participant,session,date,expName,psychopyVersion,OS,frameRate,space_press_continue.keys,space_press_continue.rt,space_press_continue_2.keys,space_press_continue_2.rt,space_press_continue_3.keys,space_press_continue_3.rt,space_press_continue_4.keys,space_press_continue_4.rt,space_press_continue_5.keys,space_press_continue_5.rt,space_press_continue_6.keys,space_press_continue_6.rt,prac_mask_loop_1.thisRepN,prac_mask_loop_1.thisTrialN,prac_mask_loop_1.thisN,prac_mask_loop_1.thisIndex,prac_mask_loop_1.ran,mask_name,prac_mask_loop_2.thisRepN,prac_mask_loop_2.thisTrialN,prac_mask_loop_2.thisN,prac_mask_loop_2.thisIndex,prac_mask_loop_2.ran,mouse_2.x,mouse_2.y,mouse_2.leftButton,mouse_2.midButton,mouse_2.rightButton,mouse_2.clicked_name,similarity,response_time,Pass,mouse_12.x,mouse_12.y,mouse_12.leftButton,mouse_12.midButton,mouse_12.rightButton,mouse_12.clicked_name,prac_loop.thisRepN,prac_loop.thisTrialN,prac_loop.thisN,prac_loop.thisIndex,prac_loop.ran,Pair_type,Image_num,Patch_1_loc,Patch_2_loc,Patch_1_info,Patch_2_info,Patch_1_name,Patch_2_name,mouse_1.x,mouse_1.y,mouse_1.leftButton,mouse_1.midButton,mouse_1.rightButton,mouse_1.time,mouse_1.clicked_name,space_press_continue_7.keys,space_press_continue_7.rt,mask_loop.thisRepN,mask_loop.thisTrialN,mask_loop.thisN,mask_loop.thisIndex,mask_loop.ran,mask_loop_2.thisRepN,mask_loop_2.thisTrialN,mask_loop_2.thisN,mask_loop_2.thisIndex,mask_loop_2.ran,mouse.x,mouse.y,mouse.leftButton,mouse.midButton,mouse.rightButton,mouse.clicked_name,trialNumber,mouse_11.x,mouse_11.y,mouse_11.leftButton,mouse_11.midButton,mouse_11.rightButton,mouse_11.clicked_name,first_pass_loop.thisRepN,first_pass_loop.thisTrialN,first_pass_loop.thisN,first_pass_loop.thisIndex,first_pass_loop.ran,mask_loop_3.thisRepN,mask_loop_3.thisTrialN,mask_loop_3.thisN,mask_loop_3.thisIndex,mask_loop_3.ran,mask_loop_4.thisRepN,mask_loop_4.thisTrialN,mask_loop_4.thisN,mask_loop_4.thisIndex,mask_loop_4.ran,mouse_3.x,mouse_3.y,mouse_3.leftButton,mouse_3.midButton,mouse_3.rightButton,mouse_3.clicked_name,double_pass_loop.thisRepN,double_pass_loop.thisTrialN,double_pass_loop.thisN,double_pass_loop.thisIndex,double_pass_loop.ran,space_exit.keys,space_exit.rt
063041,001,2022-11-13_17h33.24.414,Info_measure_main_exp,2022.2.2,Win32,60.85316132,,,,,,,,,,,,,,,,,,,,,,,,,,,,,,,,,,,,,,,,,,,,,,,,,,,,,,,,,,,,,,,,,,,,,,,,,,,,,,,,,,,,,,,,,,,,,,,,,,,,,,,,,,,,,,,
063041,001,2022-11-13_17h33.24.414,Info_measure_main_exp,2022.2.2,Win32,60.85316132,,,,,,,,,,,,,,,,,,,,,,,,,,,,,,,,,,,,,,,,,,,,,,,,,,,,,,,,,,,,,,,,,,,,,,,,,,,,,,,,,,,,,,,,,,,,,,,,,,,,,,,,,,,,,,,
063041,001,2022-11-13_17h33.24.414,Info_measure_main_exp,2022.2.2,Win32,60.85316132,space,10.2438,,,,,,,,,,,,,,,,,,,,,,,,,,,,,,,,,,,,,,,,,,,,,,,,,,,,,,,,,,,,,,,,,,,,,,,,,,,,,,,,,,,,,,,,,,,,,,,,,,,,,,,,,,,,,
063041,001,2022-11-13_17h33.24.414,Info_measure_main_exp,2022.2.2,Win32,60.85316132,,,space,20.579,,,,,,,,,,,,,,,,,,,,,,,,,,,,,,,,,,,,,,,,,,,,,,,,,,,,,,,,,,,,,,,,,,,,,,,,,,,,,,,,,,,,,,,,,,,,,,,,,,,,,,,,,,,
063041,001,2022-11-13_17h33.24.414,Info_measure_main_exp,2022.2.2,Win32,60.85316132,,,,,space,12.7917,,,,,,,,,,,,,,,,,,,,,,,,,,,,,,,,,,,,,,,,,,,,,,,,,,,,,,,,,,,,,,,,,,,,,,,,,,,,,,,,,,,,,,,,,,,,,,,,,,,,,,,,,
063041,001,2022-11-13_17h33.24.414,Info_measure_main_exp,2022.2.2,Win32,60.85316132,,,,,,,space,24.864,,,,,,,,,,,,,,,,,,,,,,,,,,,,,,,,,,,,,,,,,,,,,,,,,,,,,,,,,,,,,,,,,,,,,,,,,,,,,,,,,,,,,,,,,,,,,,,,,,,,,,,
063041,001,2022-11-13_17h33.24.414,Info_measure_main_exp,2022.2.2,Win32,60.85316132,,,,,,,,,space,6.6713,,,,,,,,,,,,,,,,,,,,,,,,,,,,,,,,,,,,,,,,,,,,,,,,,,,,,,,,,,,,,,,,,,,,,,,,,,,,,,,,,,,,,,,,,,,,,,,,,,,,,
063041,001,2022-11-13_17h33.24.414,Info_measure_main_exp,2022.2.2,Win32,60.85316132,,,,,,,,,,,space,4.2547,,,,,,,,,,,,,,,,,,,,,,,,,,,,,,,,,,,,,,,,,,,,,,,,,,,,,,,,,,,,,,,,,,,,,,,,,,,,,,,,,,,,,,,,,,,,,,,,,,,
063041,001,2022-11-13_17h33.24.414,Info_measure_main_exp,2022.2.2,Win32,60.85316132,,,,,,,,,,,,,0,0,0,0,1,masks/mask_001.jpg,,,,,,,,,,,,,,,,,,,,,,,,,,,,,,,,,,,,,,,,,,,,,,,,,,,,,,,,,,,,,,,,,,,,,,,,,,,,,,,,,,,,,,,,,,,,,
063041,001,2022-11-13_17h33.24.414,Info_measure_main_exp,2022.2.2,Win32,60.85316132,,,,,,,,,,,,,0,1,1,1,1,masks/mask_002.jpg,,,,,,,,,,,,,,,,,,,,,,,,,,,,,,,,,,,,,,,,,,,,,,,,,,,,,,,,,,,,,,,,,,,,,,,,,,,,,,,,,,,,,,,,,,,,,
063041,001,2022-11-13_17h33.24.414,Info_measure_main_exp,2022.2.2,Win32,60.85316132,,,,,,,,,,,,,0,2,2,2,1,masks/mask_003.jpg,,,,,,,,,,,,,,,,,,,,,,,,,,,,,,,,,,,,,,,,,,,,,,,,,,,,,,,,,,,,,,,,,,,,,,,,,,,,,,,,,,,,,,,,,,,,,
063041,001,2022-11-13_17h33.24.414,Info_measure_main_exp,2022.2.2,Win32,60.85316132,,,,,,,,,,,,,0,3,3,4,1,masks/mask_005.jpg,,,,,,,,,,,,,,,,,,,,,,,,,,,,,,,,,,,,,,,,,,,,,,,,,,,,,,,,,,,,,,,,,,,,,,,,,,,,,,,,,,,,,,,,,,,,,
063041,001,2022-11-13_17h33.24.414,Info_measure_main_exp,2022.2.2,Win32,60.85316132,,,,,,,,,,,,,0,4,4,3,1,masks/mask_004.jpg,,,,,,,,,,,,,,,,,,,,,,,,,,,,,,,,,,,,,,,,,,,,,,,,,,,,,,,,,,,,,,,,,,,,,,,,,,,,,,,,,,,,,,,,,,,,,
063041,001,2022-11-13_17h33.24.414,Info_measure_main_exp,2022.2.2,Win32,60.85316132,,,,,,,,,,,,,,,,,,masks/mask_004.jpg,0,0,0,3,1,,,,,,,,,,,,,,,,,,,,,,,,,,,,,,,,,,,,,,,,,,,,,,,,,,,,,,,,,,,,,,,,,,,,,,,,,,,,,,,,,,,,,,,,
063041,001,2022-11-13_17h33.24.414,Info_measure_main_exp,2022.2.2,Win32,60.85316132,,,,,,,,,,,,,,,,,,masks/mask_005.jpg,0,1,1,4,1,,,,,,,,,,,,,,,,,,,,,,,,,,,,,,,,,,,,,,,,,,,,,,,,,,,,,,,,,,,,,,,,,,,,,,,,,,,,,,,,,,,,,,,,
063041,001,2022-11-13_17h33.24.414,Info_measure_main_exp,2022.2.2,Win32,60.85316132,,,,,,,,,,,,,,,,,,masks/mask_002.jpg,0,2,2,1,1,,,,,,,,,,,,,,,,,,,,,,,,,,,,,,,,,,,,,,,,,,,,,,,,,,,,,,,,,,,,,,,,,,,,,,,,,,,,,,,,,,,,,,,,
063041,001,2022-11-13_17h33.24.414,Info_measure_main_exp,2022.2.2,Win32,60.85316132,,,,,,,,,,,,,,,,,,masks/mask_001.jpg,0,3,3,0,1,,,,,,,,,,,,,,,,,,,,,,,,,,,,,,,,,,,,,,,,,,,,,,,,,,,,,,,,,,,,,,,,,,,,,,,,,,,,,,,,,,,,,,,,
063041,001,2022-11-13_17h33.24.414,Info_measure_main_exp,2022.2.2,Win32,60.85316132,,,,,,,,,,,,,,,,,,masks/mask_003.jpg,0,4,4,2,1,,,,,,,,,,,,,,,,,,,,,,,,,,,,,,,,,,,,,,,,,,,,,,,,,,,,,,,,,,,,,,,,,,,,,,,,,,,,,,,,,,,,,,,,
063041,001,2022-11-13_17h33.24.414,Info_measure_main_exp,2022.2.2,Win32,60.85316132,,,,,,,,,,,,,,,,,,,,,,,,0.053703704,0.151851852,1,0,0,response1disk,7,88.0665,1,0.005555556,0,1,0,0,center_square,0,0,0,1,1,0,131,5,5,2514,2490,prac_patch/patch0002514.jpg,prac_patch/patch0002490.jpg,,,,,,,,,,,,,,,,,,,,,,,,,,,,,,,,,,,,,,,,,,,,,,,,,,,,,,,,,,,,
063041,001,2022-11-13_17h33.24.414,Info_measure_main_exp,2022.2.2,Win32,60.85316132,,,,,,,,,,,,,0,0,0,3,1,masks/mask_004.jpg,,,,,,,,,,,,,,,,,,,,,,,,,,,,,,,,,,,,,,,,,,,,,,,,,,,,,,,,,,,,,,,,,,,,,,,,,,,,,,,,,,,,,,,,,,,,,
063041,001,2022-11-13_17h33.24.414,Info_measure_main_exp,2022.2.2,Win32,60.85316132,,,,,,,,,,,,,0,1,1,2,1,masks/mask_003.jpg,,,,,,,,,,,,,,,,,,,,,,,,,,,,,,,,,,,,,,,,,,,,,,,,,,,,,,,,,,,,,,,,,,,,,,,,,,,,,,,,,,,,,,,,,,,,,
063041,001,2022-11-13_17h33.24.414,Info_measure_main_exp,2022.2.2,Win32,60.85316132,,,,,,,,,,,,,0,2,2,4,1,masks/mask_005.jpg,,,,,,,,,,,,,,,,,,,,,,,,,,,,,,,,,,,,,,,,,,,,,,,,,,,,,,,,,,,,,,,,,,,,,,,,,,,,,,,,,,,,,,,,,,,,,
063041,001,2022-11-13_17h33.24.414,Info_measure_main_exp,2022.2.2,Win32,60.85316132,,,,,,,,,,,,,0,3,3,1,1,masks/mask_002.jpg,,,,,,,,,,,,,,,,,,,,,,,,,,,,,,,,,,,,,,,,,,,,,,,,,,,,,,,,,,,,,,,,,,,,,,,,,,,,,,,,,,,,,,,,,,,,,
063041,001,2022-11-13_17h33.24.414,Info_measure_main_exp,2022.2.2,Win32,60.85316132,,,,,,,,,,,,,0,4,4,0,1,masks/mask_001.jpg,,,,,,,,,,,,,,,,,,,,,,,,,,,,,,,,,,,,,,,,,,,,,,,,,,,,,,,,,,,,,,,,,,,,,,,,,,,,,,,,,,,,,,,,,,,,,
063041,001,2022-11-13_17h33.24.414,Info_measure_main_exp,2022.2.2,Win32,60.85316132,,,,,,,,,,,,,,,,,,masks/mask_003.jpg,0,0,0,2,1,,,,,,,,,,,,,,,,,,,,,,,,,,,,,,,,,,,,,,,,,,,,,,,,,,,,,,,,,,,,,,,,,,,,,,,,,,,,,,,,,,,,,,,,
063041,001,2022-11-13_17h33.24.414,Info_measure_main_exp,2022.2.2,Win32,60.85316132,,,,,,,,,,,,,,,,,,masks/mask_005.jpg,0,1,1,4,1,,,,,,,,,,,,,,,,,,,,,,,,,,,,,,,,,,,,,,,,,,,,,,,,,,,,,,,,,,,,,,,,,,,,,,,,,,,,,,,,,,,,,,,,
063041,001,2022-11-13_17h33.24.414,Info_measure_main_exp,2022.2.2,Win32,60.85316132,,,,,,,,,,,,,,,,,,masks/mask_004.jpg,0,2,2,3,1,,,,,,,,,,,,,,,,,,,,,,,,,,,,,,,,,,,,,,,,,,,,,,,,,,,,,,,,,,,,,,,,,,,,,,,,,,,,,,,,,,,,,,,,
063041,001,2022-11-13_17h33.24.414,Info_measure_main_exp,2022.2.2,Win32,60.85316132,,,,,,,,,,,,,,,,,,masks/mask_001.jpg,0,3,3,0,1,,,,,,,,,,,,,,,,,,,,,,,,,,,,,,,,,,,,,,,,,,,,,,,,,,,,,,,,,,,,,,,,,,,,,,,,,,,,,,,,,,,,,,,,
063041,001,2022-11-13_17h33.24.414,Info_measure_main_exp,2022.2.2,Win32,60.85316132,,,,,,,,,,,,,,,,,,masks/mask_002.jpg,0,4,4,1,1,,,,,,,,,,,,,,,,,,,,,,,,,,,,,,,,,,,,,,,,,,,,,,,,,,,,,,,,,,,,,,,,,,,,,,,,,,,,,,,,,,,,,,,,
063041,001,2022-11-13_17h33.24.414,Info_measure_main_exp,2022.2.2,Win32,60.85316132,,,,,,,,,,,,,,,,,,,,,,,,-0.047222222,0.097222222,1,0,0,response7disk,0,99.2595,1,0.003703704,-0.003703704,1,0,0,center_square,0,1,1,2,1,0,131,5,5,2526,2526,prac_patch/patch0002526.jpg,prac_patch/patch0002526.jpg,,,,,,,,,,,,,,,,,,,,,,,,,,,,,,,,,,,,,,,,,,,,,,,,,,,,,,,,,,,,
063041,001,2022-11-13_17h33.24.414,Info_measure_main_exp,2022.2.2,Win32,60.85316132,,,,,,,,,,,,,0,0,0,0,1,masks/mask_001.jpg,,,,,,,,,,,,,,,,,,,,,,,,,,,,,,,,,,,,,,,,,,,,,,,,,,,,,,,,,,,,,,,,,,,,,,,,,,,,,,,,,,,,,,,,,,,,,
063041,001,2022-11-13_17h33.24.414,Info_measure_main_exp,2022.2.2,Win32,60.85316132,,,,,,,,,,,,,0,1,1,1,1,masks/mask_002.jpg,,,,,,,,,,,,,,,,,,,,,,,,,,,,,,,,,,,,,,,,,,,,,,,,,,,,,,,,,,,,,,,,,,,,,,,,,,,,,,,,,,,,,,,,,,,,,
063041,001,2022-11-13_17h33.24.414,Info_measure_main_exp,2022.2.2,Win32,60.85316132,,,,,,,,,,,,,0,2,2,3,1,masks/mask_004.jpg,,,,,,,,,,,,,,,,,,,,,,,,,,,,,,,,,,,,,,,,,,,,,,,,,,,,,,,,,,,,,,,,,,,,,,,,,,,,,,,,,,,,,,,,,,,,,
063041,001,2022-11-13_17h33.24.414,Info_measure_main_exp,2022.2.2,Win32,60.85316132,,,,,,,,,,,,,0,3,3,4,1,masks/mask_005.jpg,,,,,,,,,,,,,,,,,,,,,,,,,,,,,,,,,,,,,,,,,,,,,,,,,,,,,,,,,,,,,,,,,,,,,,,,,,,,,,,,,,,,,,,,,,,,,
063041,001,2022-11-13_17h33.24.414,Info_measure_main_exp,2022.2.2,Win32,60.85316132,,,,,,,,,,,,,0,4,4,2,1,masks/mask_003.jpg,,,,,,,,,,,,,,,,,,,,,,,,,,,,,,,,,,,,,,,,,,,,,,,,,,,,,,,,,,,,,,,,,,,,,,,,,,,,,,,,,,,,,,,,,,,,,
063041,001,2022-11-13_17h33.24.414,Info_measure_main_exp,2022.2.2,Win32,60.85316132,,,,,,,,,,,,,,,,,,masks/mask_001.jpg,0,0,0,0,1,,,,,,,,,,,,,,,,,,,,,,,,,,,,,,,,,,,,,,,,,,,,,,,,,,,,,,,,,,,,,,,,,,,,,,,,,,,,,,,,,,,,,,,,
063041,001,2022-11-13_17h33.24.414,Info_measure_main_exp,2022.2.2,Win32,60.85316132,,,,,,,,,,,,,,,,,,masks/mask_003.jpg,0,1,1,2,1,,,,,,,,,,,,,,,,,,,,,,,,,,,,,,,,,,,,,,,,,,,,,,,,,,,,,,,,,,,,,,,,,,,,,,,,,,,,,,,,,,,,,,,,
063041,001,2022-11-13_17h33.24.414,Info_measure_main_exp,2022.2.2,Win32,60.85316132,,,,,,,,,,,,,,,,,,masks/mask_002.jpg,0,2,2,1,1,,,,,,,,,,,,,,,,,,,,,,,,,,,,,,,,,,,,,,,,,,,,,,,,,,,,,,,,,,,,,,,,,,,,,,,,,,,,,,,,,,,,,,,,
063041,001,2022-11-13_17h33.24.414,Info_measure_main_exp,2022.2.2,Win32,60.85316132,,,,,,,,,,,,,,,,,,masks/mask_004.jpg,0,3,3,3,1,,,,,,,,,,,,,,,,,,,,,,,,,,,,,,,,,,,,,,,,,,,,,,,,,,,,,,,,,,,,,,,,,,,,,,,,,,,,,,,,,,,,,,,,
063041,001,2022-11-13_17h33.24.414,Info_measure_main_exp,2022.2.2,Win32,60.85316132,,,,,,,,,,,,,,,,,,masks/mask_005.jpg,0,4,4,4,1,,,,,,,,,,,,,,,,,,,,,,,,,,,,,,,,,,,,,,,,,,,,,,,,,,,,,,,,,,,,,,,,,,,,,,,,,,,,,,,,,,,,,,,,
063041,001,2022-11-13_17h33.24.414,Info_measure_main_exp,2022.2.2,Win32,60.85316132,,,,,,,,,,,,,,,,,,,,,,,,0.038888889,0.023148148,1,0,0,response1disk,6,112.2445,1,0.002777778,0.001851852,1,0,0,center_square,0,2,2,0,1,0,131,5,5,2370,2406,prac_patch/patch0002370.jpg,prac_patch/patch0002406.jpg,,,,,,,,,,,,,,,,,,,,,,,,,,,,,,,,,,,,,,,,,,,,,,,,,,,,,,,,,,,,
063041,001,2022-11-13_17h33.24.414,Info_measure_main_exp,2022.2.2,Win32,60.85316132,,,,,,,,,,,,,,,,,,,,,,,,,,,,,,,,,,,,,,,,,,,,,,,,,,,,,,,,,,,space,2.5466,,,,,,,,,,,,,,,,,,,,,,,,,,,,,,,,,,,,,,,,,,,,,,,,,,,
063041,001,2022-11-13_17h33.24.414,Info_measure_main_exp,2022.2.2,Win32,60.85316132,,,,,,,,,,,,,,,,,,masks/mask_002.jpg,,,,,,,,,,,,,,,,,,,,,,,,,,,,,,,,,,,,,,,,,,,0,0,0,1,1,,,,,,,,,,,,,,,,,,,,,,,,,,,,,,,,,,,,,,,,,,,,,,
063041,001,2022-11-13_17h33.24.414,Info_measure_main_exp,2022.2.2,Win32,60.85316132,,,,,,,,,,,,,,,,,,masks/mask_001.jpg,,,,,,,,,,,,,,,,,,,,,,,,,,,,,,,,,,,,,,,,,,,0,1,1,0,1,,,,,,,,,,,,,,,,,,,,,,,,,,,,,,,,,,,,,,,,,,,,,,
063041,001,2022-11-13_17h33.24.414,Info_measure_main_exp,2022.2.2,Win32,60.85316132,,,,,,,,,,,,,,,,,,masks/mask_005.jpg,,,,,,,,,,,,,,,,,,,,,,,,,,,,,,,,,,,,,,,,,,,0,2,2,4,1,,,,,,,,,,,,,,,,,,,,,,,,,,,,,,,,,,,,,,,,,,,,,,
063041,001,2022-11-13_17h33.24.414,Info_measure_main_exp,2022.2.2,Win32,60.85316132,,,,,,,,,,,,,,,,,,masks/mask_003.jpg,,,,,,,,,,,,,,,,,,,,,,,,,,,,,,,,,,,,,,,,,,,0,3,3,2,1,,,,,,,,,,,,,,,,,,,,,,,,,,,,,,,,,,,,,,,,,,,,,,
063041,001,2022-11-13_17h33.24.414,Info_measure_main_exp,2022.2.2,Win32,60.85316132,,,,,,,,,,,,,,,,,,masks/mask_004.jpg,,,,,,,,,,,,,,,,,,,,,,,,,,,,,,,,,,,,,,,,,,,0,4,4,3,1,,,,,,,,,,,,,,,,,,,,,,,,,,,,,,,,,,,,,,,,,,,,,,
063041,001,2022-11-13_17h33.24.414,Info_measure_main_exp,2022.2.2,Win32,60.85316132,,,,,,,,,,,,,,,,,,masks/mask_005.jpg,,,,,,,,,,,,,,,,,,,,,,,,,,,,,,,,,,,,,,,,,,,,,,,,0,0,0,4,1,,,,,,,,,,,,,,,,,,,,,,,,,,,,,,,,,,,,,,,,,
063041,001,2022-11-13_17h33.24.414,Info_measure_main_exp,2022.2.2,Win32,60.85316132,,,,,,,,,,,,,,,,,,masks/mask_001.jpg,,,,,,,,,,,,,,,,,,,,,,,,,,,,,,,,,,,,,,,,,,,,,,,,0,1,1,0,1,,,,,,,,,,,,,,,,,,,,,,,,,,,,,,,,,,,,,,,,,
063041,001,2022-11-13_17h33.24.414,Info_measure_main_exp,2022.2.2,Win32,60.85316132,,,,,,,,,,,,,,,,,,masks/mask_004.jpg,,,,,,,,,,,,,,,,,,,,,,,,,,,,,,,,,,,,,,,,,,,,,,,,0,2,2,3,1,,,,,,,,,,,,,,,,,,,,,,,,,,,,,,,,,,,,,,,,,
063041,001,2022-11-13_17h33.24.414,Info_measure_main_exp,2022.2.2,Win32,60.85316132,,,,,,,,,,,,,,,,,,masks/mask_003.jpg,,,,,,,,,,,,,,,,,,,,,,,,,,,,,,,,,,,,,,,,,,,,,,,,0,3,3,2,1,,,,,,,,,,,,,,,,,,,,,,,,,,,,,,,,,,,,,,,,,
063041,001,2022-11-13_17h33.24.414,Info_measure_main_exp,2022.2.2,Win32,60.85316132,,,,,,,,,,,,,,,,,,masks/mask_002.jpg,,,,,,,,,,,,,,,,,,,,,,,,,,,,,,,,,,,,,,,,,,,,,,,,0,4,4,1,1,,,,,,,,,,,,,,,,,,,,,,,,,,,,,,,,,,,,,,,,,
063041,001,2022-11-13_17h33.24.414,Info_measure_main_exp,2022.2.2,Win32,60.85316132,,,,,,,,,,,,,,,,,,,,,,,,,,,,,,0,2.0888,1,,,,,,,,,,,,0,131,5,5,2214,2214,absent_patch/patch0002214.jpg,absent_patch/patch0002214.jpg,,,,,,,,,,,,,,,,,,,,-0.032407407,0.093518519,1,0,0,response7disk,1,0.000925926,0.00462963,1,0,0,center_square,0,0,0,115,1,,,,,,,,,,,,,,,,,,,,,,,
063041,001,2022-11-13_17h33.24.414,Info_measure_main_exp,2022.2.2,Win32,60.85316132,,,,,,,,,,,,,,,,,,masks/mask_001.jpg,,,,,,,,,,,,,,,,,,,,,,,,,,,,,,,,,,,,,,,,,,,0,0,0,0,1,,,,,,,,,,,,,,,,,,,,,,,,,,,,,,,,,,,,,,,,,,,,,,
063041,001,2022-11-13_17h33.24.414,Info_measure_main_exp,2022.2.2,Win32,60.85316132,,,,,,,,,,,,,,,,,,masks/mask_004.jpg,,,,,,,,,,,,,,,,,,,,,,,,,,,,,,,,,,,,,,,,,,,0,1,1,3,1,,,,,,,,,,,,,,,,,,,,,,,,,,,,,,,,,,,,,,,,,,,,,,
063041,001,2022-11-13_17h33.24.414,Info_measure_main_exp,2022.2.2,Win32,60.85316132,,,,,,,,,,,,,,,,,,masks/mask_002.jpg,,,,,,,,,,,,,,,,,,,,,,,,,,,,,,,,,,,,,,,,,,,0,2,2,1,1,,,,,,,,,,,,,,,,,,,,,,,,,,,,,,,,,,,,,,,,,,,,,,
063041,001,2022-11-13_17h33.24.414,Info_measure_main_exp,2022.2.2,Win32,60.85316132,,,,,,,,,,,,,,,,,,masks/mask_005.jpg,,,,,,,,,,,,,,,,,,,,,,,,,,,,,,,,,,,,,,,,,,,0,3,3,4,1,,,,,,,,,,,,,,,,,,,,,,,,,,,,,,,,,,,,,,,,,,,,,,
063041,001,2022-11-13_17h33.24.414,Info_measure_main_exp,2022.2.2,Win32,60.85316132,,,,,,,,,,,,,,,,,,masks/mask_003.jpg,,,,,,,,,,,,,,,,,,,,,,,,,,,,,,,,,,,,,,,,,,,0,4,4,2,1,,,,,,,,,,,,,,,,,,,,,,,,,,,,,,,,,,,,,,,,,,,,,,
063041,001,2022-11-13_17h33.24.414,Info_measure_main_exp,2022.2.2,Win32,60.85316132,,,,,,,,,,,,,,,,,,masks/mask_005.jpg,,,,,,,,,,,,,,,,,,,,,,,,,,,,,,,,,,,,,,,,,,,,,,,,0,0,0,4,1,,,,,,,,,,,,,,,,,,,,,,,,,,,,,,,,,,,,,,,,,
063041,001,2022-11-13_17h33.24.414,Info_measure_main_exp,2022.2.2,Win32,60.85316132,,,,,,,,,,,,,,,,,,masks/mask_002.jpg,,,,,,,,,,,,,,,,,,,,,,,,,,,,,,,,,,,,,,,,,,,,,,,,0,1,1,1,1,,,,,,,,,,,,,,,,,,,,,,,,,,,,,,,,,,,,,,,,,
063041,001,2022-11-13_17h33.24.414,Info_measure_main_exp,2022.2.2,Win32,60.85316132,,,,,,,,,,,,,,,,,,masks/mask_004.jpg,,,,,,,,,,,,,,,,,,,,,,,,,,,,,,,,,,,,,,,,,,,,,,,,0,2,2,3,1,,,,,,,,,,,,,,,,,,,,,,,,,,,,,,,,,,,,,,,,,
063041,001,2022-11-13_17h33.24.414,Info_measure_main_exp,2022.2.2,Win32,60.85316132,,,,,,,,,,,,,,,,,,masks/mask_001.jpg,,,,,,,,,,,,,,,,,,,,,,,,,,,,,,,,,,,,,,,,,,,,,,,,0,3,3,0,1,,,,,,,,,,,,,,,,,,,,,,,,,,,,,,,,,,,,,,,,,
063041,001,2022-11-13_17h33.24.414,Info_measure_main_exp,2022.2.2,Win32,60.85316132,,,,,,,,,,,,,,,,,,masks/mask_003.jpg,,,,,,,,,,,,,,,,,,,,,,,,,,,,,,,,,,,,,,,,,,,,,,,,0,4,4,2,1,,,,,,,,,,,,,,,,,,,,,,,,,,,,,,,,,,,,,,,,,
063041,001,2022-11-13_17h33.24.414,Info_measure_main_exp,2022.2.2,Win32,60.85316132,,,,,,,,,,,,,,,,,,,,,,,,,,,,,,4,5.8623,1,,,,,,,,,,,,0,131,5,5,2190,2082,absent_patch/patch0002190.jpg,absent_patch/patch0002082.jpg,,,,,,,,,,,,,,,,,,,,0.015740741,-0.053703704,1,0,0,response3disk,2,-0.002777778,-0.000925926,1,0,0,center_square,0,1,1,112,1,,,,,,,,,,,,,,,,,,,,,,,
063041,001,2022-11-13_17h33.24.414,Info_measure_main_exp,2022.2.2,Win32,60.85316132,,,,,,,,,,,,,,,,,,masks/mask_004.jpg,,,,,,,,,,,,,,,,,,,,,,,,,,,,,,,,,,,,,,,,,,,0,0,0,3,1,,,,,,,,,,,,,,,,,,,,,,,,,,,,,,,,,,,,,,,,,,,,,,
063041,001,2022-11-13_17h33.24.414,Info_measure_main_exp,2022.2.2,Win32,60.85316132,,,,,,,,,,,,,,,,,,masks/mask_002.jpg,,,,,,,,,,,,,,,,,,,,,,,,,,,,,,,,,,,,,,,,,,,0,1,1,1,1,,,,,,,,,,,,,,,,,,,,,,,,,,,,,,,,,,,,,,,,,,,,,,
063041,001,2022-11-13_17h33.24.414,Info_measure_main_exp,2022.2.2,Win32,60.85316132,,,,,,,,,,,,,,,,,,masks/mask_003.jpg,,,,,,,,,,,,,,,,,,,,,,,,,,,,,,,,,,,,,,,,,,,0,2,2,2,1,,,,,,,,,,,,,,,,,,,,,,,,,,,,,,,,,,,,,,,,,,,,,,
063041,001,2022-11-13_17h33.24.414,Info_measure_main_exp,2022.2.2,Win32,60.85316132,,,,,,,,,,,,,,,,,,masks/mask_001.jpg,,,,,,,,,,,,,,,,,,,,,,,,,,,,,,,,,,,,,,,,,,,0,3,3,0,1,,,,,,,,,,,,,,,,,,,,,,,,,,,,,,,,,,,,,,,,,,,,,,
063041,001,2022-11-13_17h33.24.414,Info_measure_main_exp,2022.2.2,Win32,60.85316132,,,,,,,,,,,,,,,,,,masks/mask_005.jpg,,,,,,,,,,,,,,,,,,,,,,,,,,,,,,,,,,,,,,,,,,,0,4,4,4,1,,,,,,,,,,,,,,,,,,,,,,,,,,,,,,,,,,,,,,,,,,,,,,
063041,001,2022-11-13_17h33.24.414,Info_measure_main_exp,2022.2.2,Win32,60.85316132,,,,,,,,,,,,,,,,,,masks/mask_005.jpg,,,,,,,,,,,,,,,,,,,,,,,,,,,,,,,,,,,,,,,,,,,,,,,,0,0,0,4,1,,,,,,,,,,,,,,,,,,,,,,,,,,,,,,,,,,,,,,,,,
063041,001,2022-11-13_17h33.24.414,Info_measure_main_exp,2022.2.2,Win32,60.85316132,,,,,,,,,,,,,,,,,,masks/mask_004.jpg,,,,,,,,,,,,,,,,,,,,,,,,,,,,,,,,,,,,,,,,,,,,,,,,0,1,1,3,1,,,,,,,,,,,,,,,,,,,,,,,,,,,,,,,,,,,,,,,,,
063041,001,2022-11-13_17h33.24.414,Info_measure_main_exp,2022.2.2,Win32,60.85316132,,,,,,,,,,,,,,,,,,masks/mask_002.jpg,,,,,,,,,,,,,,,,,,,,,,,,,,,,,,,,,,,,,,,,,,,,,,,,0,2,2,1,1,,,,,,,,,,,,,,,,,,,,,,,,,,,,,,,,,,,,,,,,,
063041,001,2022-11-13_17h33.24.414,Info_measure_main_exp,2022.2.2,Win32,60.85316132,,,,,,,,,,,,,,,,,,masks/mask_001.jpg,,,,,,,,,,,,,,,,,,,,,,,,,,,,,,,,,,,,,,,,,,,,,,,,0,3,3,0,1,,,,,,,,,,,,,,,,,,,,,,,,,,,,,,,,,,,,,,,,,
063041,001,2022-11-13_17h33.24.414,Info_measure_main_exp,2022.2.2,Win32,60.85316132,,,,,,,,,,,,,,,,,,masks/mask_003.jpg,,,,,,,,,,,,,,,,,,,,,,,,,,,,,,,,,,,,,,,,,,,,,,,,0,4,4,2,1,,,,,,,,,,,,,,,,,,,,,,,,,,,,,,,,,,,,,,,,,
063041,001,2022-11-13_17h33.24.414,Info_measure_main_exp,2022.2.2,Win32,60.85316132,,,,,,,,,,,,,,,,,,,,,,,,,,,,,,3,2.9171,1,,,,,,,,,,,,0,131,5,5,2298,2190,absent_patch/patch0002298.jpg,absent_patch/patch0002190.jpg,,,,,,,,,,,,,,,,,,,,-0.011111111,-0.034259259,1,0,0,response5disk,3,-0.000925926,-0.00462963,1,0,0,center_square,0,2,2,20,1,,,,,,,,,,,,,,,,,,,,,,,
063041,001,2022-11-13_17h33.24.414,Info_measure_main_exp,2022.2.2,Win32,60.85316132,,,,,,,,,,,,,,,,,,masks/mask_003.jpg,,,,,,,,,,,,,,,,,,,,,,,,,,,,,,,,,,,,,,,,,,,0,0,0,2,1,,,,,,,,,,,,,,,,,,,,,,,,,,,,,,,,,,,,,,,,,,,,,,
063041,001,2022-11-13_17h33.24.414,Info_measure_main_exp,2022.2.2,Win32,60.85316132,,,,,,,,,,,,,,,,,,masks/mask_004.jpg,,,,,,,,,,,,,,,,,,,,,,,,,,,,,,,,,,,,,,,,,,,0,1,1,3,1,,,,,,,,,,,,,,,,,,,,,,,,,,,,,,,,,,,,,,,,,,,,,,
063041,001,2022-11-13_17h33.24.414,Info_measure_main_exp,2022.2.2,Win32,60.85316132,,,,,,,,,,,,,,,,,,masks/mask_005.jpg,,,,,,,,,,,,,,,,,,,,,,,,,,,,,,,,,,,,,,,,,,,0,2,2,4,1,,,,,,,,,,,,,,,,,,,,,,,,,,,,,,,,,,,,,,,,,,,,,,
063041,001,2022-11-13_17h33.24.414,Info_measure_main_exp,2022.2.2,Win32,60.85316132,,,,,,,,,,,,,,,,,,masks/mask_002.jpg,,,,,,,,,,,,,,,,,,,,,,,,,,,,,,,,,,,,,,,,,,,0,3,3,1,1,,,,,,,,,,,,,,,,,,,,,,,,,,,,,,,,,,,,,,,,,,,,,,
063041,001,2022-11-13_17h33.24.414,Info_measure_main_exp,2022.2.2,Win32,60.85316132,,,,,,,,,,,,,,,,,,masks/mask_001.jpg,,,,,,,,,,,,,,,,,,,,,,,,,,,,,,,,,,,,,,,,,,,0,4,4,0,1,,,,,,,,,,,,,,,,,,,,,,,,,,,,,,,,,,,,,,,,,,,,,,
063041,001,2022-11-13_17h33.24.414,Info_measure_main_exp,2022.2.2,Win32,60.85316132,,,,,,,,,,,,,,,,,,masks/mask_004.jpg,,,,,,,,,,,,,,,,,,,,,,,,,,,,,,,,,,,,,,,,,,,,,,,,0,0,0,3,1,,,,,,,,,,,,,,,,,,,,,,,,,,,,,,,,,,,,,,,,,
063041,001,2022-11-13_17h33.24.414,Info_measure_main_exp,2022.2.2,Win32,60.85316132,,,,,,,,,,,,,,,,,,masks/mask_003.jpg,,,,,,,,,,,,,,,,,,,,,,,,,,,,,,,,,,,,,,,,,,,,,,,,0,1,1,2,1,,,,,,,,,,,,,,,,,,,,,,,,,,,,,,,,,,,,,,,,,
063041,001,2022-11-13_17h33.24.414,Info_measure_main_exp,2022.2.2,Win32,60.85316132,,,,,,,,,,,,,,,,,,masks/mask_005.jpg,,,,,,,,,,,,,,,,,,,,,,,,,,,,,,,,,,,,,,,,,,,,,,,,0,2,2,4,1,,,,,,,,,,,,,,,,,,,,,,,,,,,,,,,,,,,,,,,,,
063041,001,2022-11-13_17h33.24.414,Info_measure_main_exp,2022.2.2,Win32,60.85316132,,,,,,,,,,,,,,,,,,masks/mask_002.jpg,,,,,,,,,,,,,,,,,,,,,,,,,,,,,,,,,,,,,,,,,,,,,,,,0,3,3,1,1,,,,,,,,,,,,,,,,,,,,,,,,,,,,,,,,,,,,,,,,,
063041,001,2022-11-13_17h33.24.414,Info_measure_main_exp,2022.2.2,Win32,60.85316132,,,,,,,,,,,,,,,,,,masks/mask_001.jpg,,,,,,,,,,,,,,,,,,,,,,,,,,,,,,,,,,,,,,,,,,,,,,,,0,4,4,0,1,,,,,,,,,,,,,,,,,,,,,,,,,,,,,,,,,,,,,,,,,
063041,001,2022-11-13_17h33.24.414,Info_measure_main_exp,2022.2.2,Win32,60.85316132,,,,,,,,,,,,,,,,,,,,,,,,,,,,,,6,1.9333,1,,,,,,,,,,,,0,131,5,5,2298,2142,absent_patch/patch0002298.jpg,absent_patch/patch0002142.jpg,,,,,,,,,,,,,,,,,,,,0.027777778,0.009259259,1,0,0,response1disk,4,-0.00462963,-0.007407407,1,0,0,center_square,0,3,3,49,1,,,,,,,,,,,,,,,,,,,,,,,
063041,001,2022-11-13_17h33.24.414,Info_measure_main_exp,2022.2.2,Win32,60.85316132,,,,,,,,,,,,,,,,,,masks/mask_005.jpg,,,,,,,,,,,,,,,,,,,,,,,,,,,,,,,,,,,,,,,,,,,0,0,0,4,1,,,,,,,,,,,,,,,,,,,,,,,,,,,,,,,,,,,,,,,,,,,,,,
063041,001,2022-11-13_17h33.24.414,Info_measure_main_exp,2022.2.2,Win32,60.85316132,,,,,,,,,,,,,,,,,,masks/mask_003.jpg,,,,,,,,,,,,,,,,,,,,,,,,,,,,,,,,,,,,,,,,,,,0,1,1,2,1,,,,,,,,,,,,,,,,,,,,,,,,,,,,,,,,,,,,,,,,,,,,,,
063041,001,2022-11-13_17h33.24.414,Info_measure_main_exp,2022.2.2,Win32,60.85316132,,,,,,,,,,,,,,,,,,masks/mask_002.jpg,,,,,,,,,,,,,,,,,,,,,,,,,,,,,,,,,,,,,,,,,,,0,2,2,1,1,,,,,,,,,,,,,,,,,,,,,,,,,,,,,,,,,,,,,,,,,,,,,,
063041,001,2022-11-13_17h33.24.414,Info_measure_main_exp,2022.2.2,Win32,60.85316132,,,,,,,,,,,,,,,,,,masks/mask_001.jpg,,,,,,,,,,,,,,,,,,,,,,,,,,,,,,,,,,,,,,,,,,,0,3,3,0,1,,,,,,,,,,,,,,,,,,,,,,,,,,,,,,,,,,,,,,,,,,,,,,
063041,001,2022-11-13_17h33.24.414,Info_measure_main_exp,2022.2.2,Win32,60.85316132,,,,,,,,,,,,,,,,,,masks/mask_004.jpg,,,,,,,,,,,,,,,,,,,,,,,,,,,,,,,,,,,,,,,,,,,0,4,4,3,1,,,,,,,,,,,,,,,,,,,,,,,,,,,,,,,,,,,,,,,,,,,,,,
063041,001,2022-11-13_17h33.24.414,Info_measure_main_exp,2022.2.2,Win32,60.85316132,,,,,,,,,,,,,,,,,,masks/mask_002.jpg,,,,,,,,,,,,,,,,,,,,,,,,,,,,,,,,,,,,,,,,,,,,,,,,0,0,0,1,1,,,,,,,,,,,,,,,,,,,,,,,,,,,,,,,,,,,,,,,,,
063041,001,2022-11-13_17h33.24.414,Info_measure_main_exp,2022.2.2,Win32,60.85316132,,,,,,,,,,,,,,,,,,masks/mask_005.jpg,,,,,,,,,,,,,,,,,,,,,,,,,,,,,,,,,,,,,,,,,,,,,,,,0,1,1,4,1,,,,,,,,,,,,,,,,,,,,,,,,,,,,,,,,,,,,,,,,,
063041,001,2022-11-13_17h33.24.414,Info_measure_main_exp,2022.2.2,Win32,60.85316132,,,,,,,,,,,,,,,,,,masks/mask_003.jpg,,,,,,,,,,,,,,,,,,,,,,,,,,,,,,,,,,,,,,,,,,,,,,,,0,2,2,2,1,,,,,,,,,,,,,,,,,,,,,,,,,,,,,,,,,,,,,,,,,
063041,001,2022-11-13_17h33.24.414,Info_measure_main_exp,2022.2.2,Win32,60.85316132,,,,,,,,,,,,,,,,,,masks/mask_004.jpg,,,,,,,,,,,,,,,,,,,,,,,,,,,,,,,,,,,,,,,,,,,,,,,,0,3,3,3,1,,,,,,,,,,,,,,,,,,,,,,,,,,,,,,,,,,,,,,,,,
063041,001,2022-11-13_17h33.24.414,Info_measure_main_exp,2022.2.2,Win32,60.85316132,,,,,,,,,,,,,,,,,,masks/mask_001.jpg,,,,,,,,,,,,,,,,,,,,,,,,,,,,,,,,,,,,,,,,,,,,,,,,0,4,4,0,1,,,,,,,,,,,,,,,,,,,,,,,,,,,,,,,,,,,,,,,,,
063041,001,2022-11-13_17h33.24.414,Info_measure_main_exp,2022.2.2,Win32,60.85316132,,,,,,,,,,,,,,,,,,,,,,,,,,,,,,3,2.5575,1,,,,,,,,,,,,0,131,5,5,2274,2154,absent_patch/patch0002274.jpg,absent_patch/patch0002154.jpg,,,,,,,,,,,,,,,,,,,,-0.015740741,-0.025,1,0,0,response5disk,5,-0.002777778,-0.003703704,1,0,0,center_square,0,4,4,23,1,,,,,,,,,,,,,,,,,,,,,,,
063041,001,2022-11-13_17h33.24.414,Info_measure_main_exp,2022.2.2,Win32,60.85316132,,,,,,,,,,,,,,,,,,masks/mask_003.jpg,,,,,,,,,,,,,,,,,,,,,,,,,,,,,,,,,,,,,,,,,,,0,0,0,2,1,,,,,,,,,,,,,,,,,,,,,,,,,,,,,,,,,,,,,,,,,,,,,,
063041,001,2022-11-13_17h33.24.414,Info_measure_main_exp,2022.2.2,Win32,60.85316132,,,,,,,,,,,,,,,,,,masks/mask_005.jpg,,,,,,,,,,,,,,,,,,,,,,,,,,,,,,,,,,,,,,,,,,,0,1,1,4,1,,,,,,,,,,,,,,,,,,,,,,,,,,,,,,,,,,,,,,,,,,,,,,
063041,001,2022-11-13_17h33.24.414,Info_measure_main_exp,2022.2.2,Win32,60.85316132,,,,,,,,,,,,,,,,,,masks/mask_002.jpg,,,,,,,,,,,,,,,,,,,,,,,,,,,,,,,,,,,,,,,,,,,0,2,2,1,1,,,,,,,,,,,,,,,,,,,,,,,,,,,,,,,,,,,,,,,,,,,,,,
063041,001,2022-11-13_17h33.24.414,Info_measure_main_exp,2022.2.2,Win32,60.85316132,,,,,,,,,,,,,,,,,,masks/mask_001.jpg,,,,,,,,,,,,,,,,,,,,,,,,,,,,,,,,,,,,,,,,,,,0,3,3,0,1,,,,,,,,,,,,,,,,,,,,,,,,,,,,,,,,,,,,,,,,,,,,,,
063041,001,2022-11-13_17h33.24.414,Info_measure_main_exp,2022.2.2,Win32,60.85316132,,,,,,,,,,,,,,,,,,masks/mask_004.jpg,,,,,,,,,,,,,,,,,,,,,,,,,,,,,,,,,,,,,,,,,,,0,4,4,3,1,,,,,,,,,,,,,,,,,,,,,,,,,,,,,,,,,,,,,,,,,,,,,,
063041,001,2022-11-13_17h33.24.414,Info_measure_main_exp,2022.2.2,Win32,60.85316132,,,,,,,,,,,,,,,,,,masks/mask_002.jpg,,,,,,,,,,,,,,,,,,,,,,,,,,,,,,,,,,,,,,,,,,,,,,,,0,0,0,1,1,,,,,,,,,,,,,,,,,,,,,,,,,,,,,,,,,,,,,,,,,
063041,001,2022-11-13_17h33.24.414,Info_measure_main_exp,2022.2.2,Win32,60.85316132,,,,,,,,,,,,,,,,,,masks/mask_001.jpg,,,,,,,,,,,,,,,,,,,,,,,,,,,,,,,,,,,,,,,,,,,,,,,,0,1,1,0,1,,,,,,,,,,,,,,,,,,,,,,,,,,,,,,,,,,,,,,,,,
063041,001,2022-11-13_17h33.24.414,Info_measure_main_exp,2022.2.2,Win32,60.85316132,,,,,,,,,,,,,,,,,,masks/mask_004.jpg,,,,,,,,,,,,,,,,,,,,,,,,,,,,,,,,,,,,,,,,,,,,,,,,0,2,2,3,1,,,,,,,,,,,,,,,,,,,,,,,,,,,,,,,,,,,,,,,,,
063041,001,2022-11-13_17h33.24.414,Info_measure_main_exp,2022.2.2,Win32,60.85316132,,,,,,,,,,,,,,,,,,masks/mask_003.jpg,,,,,,,,,,,,,,,,,,,,,,,,,,,,,,,,,,,,,,,,,,,,,,,,0,3,3,2,1,,,,,,,,,,,,,,,,,,,,,,,,,,,,,,,,,,,,,,,,,
063041,001,2022-11-13_17h33.24.414,Info_measure_main_exp,2022.2.2,Win32,60.85316132,,,,,,,,,,,,,,,,,,masks/mask_005.jpg,,,,,,,,,,,,,,,,,,,,,,,,,,,,,,,,,,,,,,,,,,,,,,,,0,4,4,4,1,,,,,,,,,,,,,,,,,,,,,,,,,,,,,,,,,,,,,,,,,
063041,001,2022-11-13_17h33.24.414,Info_measure_main_exp,2022.2.2,Win32,60.85316132,,,,,,,,,,,,,,,,,,,,,,,,,,,,,,7,0.9498,1,,,,,,,,,,,,0,131,5,5,2190,1950,absent_patch/patch0002190.jpg,absent_patch/patch0001950.jpg,,,,,,,,,,,,,,,,,,,,0.016666667,0.049074074,1,0,0,response1disk,6,0.009259259,0.003703704,1,0,0,center_square,0,5,5,73,1,,,,,,,,,,,,,,,,,,,,,,,
063041,001,2022-11-13_17h33.24.414,Info_measure_main_exp,2022.2.2,Win32,60.85316132,,,,,,,,,,,,,,,,,,masks/mask_002.jpg,,,,,,,,,,,,,,,,,,,,,,,,,,,,,,,,,,,,,,,,,,,0,0,0,1,1,,,,,,,,,,,,,,,,,,,,,,,,,,,,,,,,,,,,,,,,,,,,,,
063041,001,2022-11-13_17h33.24.414,Info_measure_main_exp,2022.2.2,Win32,60.85316132,,,,,,,,,,,,,,,,,,masks/mask_003.jpg,,,,,,,,,,,,,,,,,,,,,,,,,,,,,,,,,,,,,,,,,,,0,1,1,2,1,,,,,,,,,,,,,,,,,,,,,,,,,,,,,,,,,,,,,,,,,,,,,,
063041,001,2022-11-13_17h33.24.414,Info_measure_main_exp,2022.2.2,Win32,60.85316132,,,,,,,,,,,,,,,,,,masks/mask_001.jpg,,,,,,,,,,,,,,,,,,,,,,,,,,,,,,,,,,,,,,,,,,,0,2,2,0,1,,,,,,,,,,,,,,,,,,,,,,,,,,,,,,,,,,,,,,,,,,,,,,
063041,001,2022-11-13_17h33.24.414,Info_measure_main_exp,2022.2.2,Win32,60.85316132,,,,,,,,,,,,,,,,,,masks/mask_005.jpg,,,,,,,,,,,,,,,,,,,,,,,,,,,,,,,,,,,,,,,,,,,0,3,3,4,1,,,,,,,,,,,,,,,,,,,,,,,,,,,,,,,,,,,,,,,,,,,,,,
063041,001,2022-11-13_17h33.24.414,Info_measure_main_exp,2022.2.2,Win32,60.85316132,,,,,,,,,,,,,,,,,,masks/mask_004.jpg,,,,,,,,,,,,,,,,,,,,,,,,,,,,,,,,,,,,,,,,,,,0,4,4,3,1,,,,,,,,,,,,,,,,,,,,,,,,,,,,,,,,,,,,,,,,,,,,,,
063041,001,2022-11-13_17h33.24.414,Info_measure_main_exp,2022.2.2,Win32,60.85316132,,,,,,,,,,,,,,,,,,masks/mask_002.jpg,,,,,,,,,,,,,,,,,,,,,,,,,,,,,,,,,,,,,,,,,,,,,,,,0,0,0,1,1,,,,,,,,,,,,,,,,,,,,,,,,,,,,,,,,,,,,,,,,,
063041,001,2022-11-13_17h33.24.414,Info_measure_main_exp,2022.2.2,Win32,60.85316132,,,,,,,,,,,,,,,,,,masks/mask_003.jpg,,,,,,,,,,,,,,,,,,,,,,,,,,,,,,,,,,,,,,,,,,,,,,,,0,1,1,2,1,,,,,,,,,,,,,,,,,,,,,,,,,,,,,,,,,,,,,,,,,
063041,001,2022-11-13_17h33.24.414,Info_measure_main_exp,2022.2.2,Win32,60.85316132,,,,,,,,,,,,,,,,,,masks/mask_005.jpg,,,,,,,,,,,,,,,,,,,,,,,,,,,,,,,,,,,,,,,,,,,,,,,,0,2,2,4,1,,,,,,,,,,,,,,,,,,,,,,,,,,,,,,,,,,,,,,,,,
063041,001,2022-11-13_17h33.24.414,Info_measure_main_exp,2022.2.2,Win32,60.85316132,,,,,,,,,,,,,,,,,,masks/mask_001.jpg,,,,,,,,,,,,,,,,,,,,,,,,,,,,,,,,,,,,,,,,,,,,,,,,0,3,3,0,1,,,,,,,,,,,,,,,,,,,,,,,,,,,,,,,,,,,,,,,,,
063041,001,2022-11-13_17h33.24.414,Info_measure_main_exp,2022.2.2,Win32,60.85316132,,,,,,,,,,,,,,,,,,masks/mask_004.jpg,,,,,,,,,,,,,,,,,,,,,,,,,,,,,,,,,,,,,,,,,,,,,,,,0,4,4,3,1,,,,,,,,,,,,,,,,,,,,,,,,,,,,,,,,,,,,,,,,,
063041,001,2022-11-13_17h33.24.414,Info_measure_main_exp,2022.2.2,Win32,60.85316132,,,,,,,,,,,,,,,,,,,,,,,,,,,,,,7,0.7406,1,,,,,,,,,,,,0,131,5,5,2178,2166,absent_patch/patch0002178.jpg,absent_patch/patch0002166.jpg,,,,,,,,,,,,,,,,,,,,0.018518519,0.057407407,1,0,0,response1disk,7,-0.008333333,-0.00462963,1,0,0,center_square,0,6,6,72,1,,,,,,,,,,,,,,,,,,,,,,,
063041,001,2022-11-13_17h33.24.414,Info_measure_main_exp,2022.2.2,Win32,60.85316132,,,,,,,,,,,,,,,,,,masks/mask_005.jpg,,,,,,,,,,,,,,,,,,,,,,,,,,,,,,,,,,,,,,,,,,,0,0,0,4,1,,,,,,,,,,,,,,,,,,,,,,,,,,,,,,,,,,,,,,,,,,,,,,
063041,001,2022-11-13_17h33.24.414,Info_measure_main_exp,2022.2.2,Win32,60.85316132,,,,,,,,,,,,,,,,,,masks/mask_004.jpg,,,,,,,,,,,,,,,,,,,,,,,,,,,,,,,,,,,,,,,,,,,0,1,1,3,1,,,,,,,,,,,,,,,,,,,,,,,,,,,,,,,,,,,,,,,,,,,,,,
063041,001,2022-11-13_17h33.24.414,Info_measure_main_exp,2022.2.2,Win32,60.85316132,,,,,,,,,,,,,,,,,,masks/mask_001.jpg,,,,,,,,,,,,,,,,,,,,,,,,,,,,,,,,,,,,,,,,,,,0,2,2,0,1,,,,,,,,,,,,,,,,,,,,,,,,,,,,,,,,,,,,,,,,,,,,,,
063041,001,2022-11-13_17h33.24.414,Info_measure_main_exp,2022.2.2,Win32,60.85316132,,,,,,,,,,,,,,,,,,masks/mask_002.jpg,,,,,,,,,,,,,,,,,,,,,,,,,,,,,,,,,,,,,,,,,,,0,3,3,1,1,,,,,,,,,,,,,,,,,,,,,,,,,,,,,,,,,,,,,,,,,,,,,,
063041,001,2022-11-13_17h33.24.414,Info_measure_main_exp,2022.2.2,Win32,60.85316132,,,,,,,,,,,,,,,,,,masks/mask_003.jpg,,,,,,,,,,,,,,,,,,,,,,,,,,,,,,,,,,,,,,,,,,,0,4,4,2,1,,,,,,,,,,,,,,,,,,,,,,,,,,,,,,,,,,,,,,,,,,,,,,
063041,001,2022-11-13_17h33.24.414,Info_measure_main_exp,2022.2.2,Win32,60.85316132,,,,,,,,,,,,,,,,,,masks/mask_005.jpg,,,,,,,,,,,,,,,,,,,,,,,,,,,,,,,,,,,,,,,,,,,,,,,,0,0,0,4,1,,,,,,,,,,,,,,,,,,,,,,,,,,,,,,,,,,,,,,,,,
063041,001,2022-11-13_17h33.24.414,Info_measure_main_exp,2022.2.2,Win32,60.85316132,,,,,,,,,,,,,,,,,,masks/mask_002.jpg,,,,,,,,,,,,,,,,,,,,,,,,,,,,,,,,,,,,,,,,,,,,,,,,0,1,1,1,1,,,,,,,,,,,,,,,,,,,,,,,,,,,,,,,,,,,,,,,,,
063041,001,2022-11-13_17h33.24.414,Info_measure_main_exp,2022.2.2,Win32,60.85316132,,,,,,,,,,,,,,,,,,masks/mask_001.jpg,,,,,,,,,,,,,,,,,,,,,,,,,,,,,,,,,,,,,,,,,,,,,,,,0,2,2,0,1,,,,,,,,,,,,,,,,,,,,,,,,,,,,,,,,,,,,,,,,,
063041,001,2022-11-13_17h33.24.414,Info_measure_main_exp,2022.2.2,Win32,60.85316132,,,,,,,,,,,,,,,,,,masks/mask_003.jpg,,,,,,,,,,,,,,,,,,,,,,,,,,,,,,,,,,,,,,,,,,,,,,,,0,3,3,2,1,,,,,,,,,,,,,,,,,,,,,,,,,,,,,,,,,,,,,,,,,
063041,001,2022-11-13_17h33.24.414,Info_measure_main_exp,2022.2.2,Win32,60.85316132,,,,,,,,,,,,,,,,,,masks/mask_004.jpg,,,,,,,,,,,,,,,,,,,,,,,,,,,,,,,,,,,,,,,,,,,,,,,,0,4,4,3,1,,,,,,,,,,,,,,,,,,,,,,,,,,,,,,,,,,,,,,,,,
063041,001,2022-11-13_17h33.24.414,Info_measure_main_exp,2022.2.2,Win32,60.85316132,,,,,,,,,,,,,,,,,,,,,,,,,,,,,,7,0.9339,1,,,,,,,,,,,,0,131,5,5,2154,2250,absent_patch/patch0002154.jpg,absent_patch/patch0002250.jpg,,,,,,,,,,,,,,,,,,,,0.034259259,0.056481481,1,0,0,response1disk,8,0,0,1,0,0,center_square,0,7,7,108,1,,,,,,,,,,,,,,,,,,,,,,,
063041,001,2022-11-13_17h33.24.414,Info_measure_main_exp,2022.2.2,Win32,60.85316132,,,,,,,,,,,,,,,,,,masks/mask_005.jpg,,,,,,,,,,,,,,,,,,,,,,,,,,,,,,,,,,,,,,,,,,,0,0,0,4,1,,,,,,,,,,,,,,,,,,,,,,,,,,,,,,,,,,,,,,,,,,,,,,
063041,001,2022-11-13_17h33.24.414,Info_measure_main_exp,2022.2.2,Win32,60.85316132,,,,,,,,,,,,,,,,,,masks/mask_003.jpg,,,,,,,,,,,,,,,,,,,,,,,,,,,,,,,,,,,,,,,,,,,0,1,1,2,1,,,,,,,,,,,,,,,,,,,,,,,,,,,,,,,,,,,,,,,,,,,,,,
063041,001,2022-11-13_17h33.24.414,Info_measure_main_exp,2022.2.2,Win32,60.85316132,,,,,,,,,,,,,,,,,,masks/mask_001.jpg,,,,,,,,,,,,,,,,,,,,,,,,,,,,,,,,,,,,,,,,,,,0,2,2,0,1,,,,,,,,,,,,,,,,,,,,,,,,,,,,,,,,,,,,,,,,,,,,,,
063041,001,2022-11-13_17h33.24.414,Info_measure_main_exp,2022.2.2,Win32,60.85316132,,,,,,,,,,,,,,,,,,masks/mask_002.jpg,,,,,,,,,,,,,,,,,,,,,,,,,,,,,,,,,,,,,,,,,,,0,3,3,1,1,,,,,,,,,,,,,,,,,,,,,,,,,,,,,,,,,,,,,,,,,,,,,,
063041,001,2022-11-13_17h33.24.414,Info_measure_main_exp,2022.2.2,Win32,60.85316132,,,,,,,,,,,,,,,,,,masks/mask_004.jpg,,,,,,,,,,,,,,,,,,,,,,,,,,,,,,,,,,,,,,,,,,,0,4,4,3,1,,,,,,,,,,,,,,,,,,,,,,,,,,,,,,,,,,,,,,,,,,,,,,
063041,001,2022-11-13_17h33.24.414,Info_measure_main_exp,2022.2.2,Win32,60.85316132,,,,,,,,,,,,,,,,,,masks/mask_004.jpg,,,,,,,,,,,,,,,,,,,,,,,,,,,,,,,,,,,,,,,,,,,,,,,,0,0,0,3,1,,,,,,,,,,,,,,,,,,,,,,,,,,,,,,,,,,,,,,,,,
063041,001,2022-11-13_17h33.24.414,Info_measure_main_exp,2022.2.2,Win32,60.85316132,,,,,,,,,,,,,,,,,,masks/mask_005.jpg,,,,,,,,,,,,,,,,,,,,,,,,,,,,,,,,,,,,,,,,,,,,,,,,0,1,1,4,1,,,,,,,,,,,,,,,,,,,,,,,,,,,,,,,,,,,,,,,,,
063041,001,2022-11-13_17h33.24.414,Info_measure_main_exp,2022.2.2,Win32,60.85316132,,,,,,,,,,,,,,,,,,masks/mask_003.jpg,,,,,,,,,,,,,,,,,,,,,,,,,,,,,,,,,,,,,,,,,,,,,,,,0,2,2,2,1,,,,,,,,,,,,,,,,,,,,,,,,,,,,,,,,,,,,,,,,,
063041,001,2022-11-13_17h33.24.414,Info_measure_main_exp,2022.2.2,Win32,60.85316132,,,,,,,,,,,,,,,,,,masks/mask_001.jpg,,,,,,,,,,,,,,,,,,,,,,,,,,,,,,,,,,,,,,,,,,,,,,,,0,3,3,0,1,,,,,,,,,,,,,,,,,,,,,,,,,,,,,,,,,,,,,,,,,
063041,001,2022-11-13_17h33.24.414,Info_measure_main_exp,2022.2.2,Win32,60.85316132,,,,,,,,,,,,,,,,,,masks/mask_002.jpg,,,,,,,,,,,,,,,,,,,,,,,,,,,,,,,,,,,,,,,,,,,,,,,,0,4,4,1,1,,,,,,,,,,,,,,,,,,,,,,,,,,,,,,,,,,,,,,,,,
063041,001,2022-11-13_17h33.24.414,Info_measure_main_exp,2022.2.2,Win32,60.85316132,,,,,,,,,,,,,,,,,,,,,,,,,,,,,,6,2.0661,1,,,,,,,,,,,,0,131,5,5,2166,2298,absent_patch/patch0002166.jpg,absent_patch/patch0002298.jpg,,,,,,,,,,,,,,,,,,,,0.030555556,0.014814815,1,0,0,response1disk,9,-0.003703704,-0.005555556,1,0,0,center_square,0,8,8,52,1,,,,,,,,,,,,,,,,,,,,,,,
063041,001,2022-11-13_17h33.24.414,Info_measure_main_exp,2022.2.2,Win32,60.85316132,,,,,,,,,,,,,,,,,,masks/mask_001.jpg,,,,,,,,,,,,,,,,,,,,,,,,,,,,,,,,,,,,,,,,,,,0,0,0,0,1,,,,,,,,,,,,,,,,,,,,,,,,,,,,,,,,,,,,,,,,,,,,,,
063041,001,2022-11-13_17h33.24.414,Info_measure_main_exp,2022.2.2,Win32,60.85316132,,,,,,,,,,,,,,,,,,masks/mask_003.jpg,,,,,,,,,,,,,,,,,,,,,,,,,,,,,,,,,,,,,,,,,,,0,1,1,2,1,,,,,,,,,,,,,,,,,,,,,,,,,,,,,,,,,,,,,,,,,,,,,,
063041,001,2022-11-13_17h33.24.414,Info_measure_main_exp,2022.2.2,Win32,60.85316132,,,,,,,,,,,,,,,,,,masks/mask_002.jpg,,,,,,,,,,,,,,,,,,,,,,,,,,,,,,,,,,,,,,,,,,,0,2,2,1,1,,,,,,,,,,,,,,,,,,,,,,,,,,,,,,,,,,,,,,,,,,,,,,
063041,001,2022-11-13_17h33.24.414,Info_measure_main_exp,2022.2.2,Win32,60.85316132,,,,,,,,,,,,,,,,,,masks/mask_004.jpg,,,,,,,,,,,,,,,,,,,,,,,,,,,,,,,,,,,,,,,,,,,0,3,3,3,1,,,,,,,,,,,,,,,,,,,,,,,,,,,,,,,,,,,,,,,,,,,,,,
063041,001,2022-11-13_17h33.24.414,Info_measure_main_exp,2022.2.2,Win32,60.85316132,,,,,,,,,,,,,,,,,,masks/mask_005.jpg,,,,,,,,,,,,,,,,,,,,,,,,,,,,,,,,,,,,,,,,,,,0,4,4,4,1,,,,,,,,,,,,,,,,,,,,,,,,,,,,,,,,,,,,,,,,,,,,,,
063041,001,2022-11-13_17h33.24.414,Info_measure_main_exp,2022.2.2,Win32,60.85316132,,,,,,,,,,,,,,,,,,masks/mask_002.jpg,,,,,,,,,,,,,,,,,,,,,,,,,,,,,,,,,,,,,,,,,,,,,,,,0,0,0,1,1,,,,,,,,,,,,,,,,,,,,,,,,,,,,,,,,,,,,,,,,,
063041,001,2022-11-13_17h33.24.414,Info_measure_main_exp,2022.2.2,Win32,60.85316132,,,,,,,,,,,,,,,,,,masks/mask_003.jpg,,,,,,,,,,,,,,,,,,,,,,,,,,,,,,,,,,,,,,,,,,,,,,,,0,1,1,2,1,,,,,,,,,,,,,,,,,,,,,,,,,,,,,,,,,,,,,,,,,
063041,001,2022-11-13_17h33.24.414,Info_measure_main_exp,2022.2.2,Win32,60.85316132,,,,,,,,,,,,,,,,,,masks/mask_005.jpg,,,,,,,,,,,,,,,,,,,,,,,,,,,,,,,,,,,,,,,,,,,,,,,,0,2,2,4,1,,,,,,,,,,,,,,,,,,,,,,,,,,,,,,,,,,,,,,,,,
063041,001,2022-11-13_17h33.24.414,Info_measure_main_exp,2022.2.2,Win32,60.85316132,,,,,,,,,,,,,,,,,,masks/mask_004.jpg,,,,,,,,,,,,,,,,,,,,,,,,,,,,,,,,,,,,,,,,,,,,,,,,0,3,3,3,1,,,,,,,,,,,,,,,,,,,,,,,,,,,,,,,,,,,,,,,,,
063041,001,2022-11-13_17h33.24.414,Info_measure_main_exp,2022.2.2,Win32,60.85316132,,,,,,,,,,,,,,,,,,masks/mask_001.jpg,,,,,,,,,,,,,,,,,,,,,,,,,,,,,,,,,,,,,,,,,,,,,,,,0,4,4,0,1,,,,,,,,,,,,,,,,,,,,,,,,,,,,,,,,,,,,,,,,,
063041,001,2022-11-13_17h33.24.414,Info_measure_main_exp,2022.2.2,Win32,60.85316132,,,,,,,,,,,,,,,,,,,,,,,,,,,,,,7,0.9345,1,,,,,,,,,,,,1,131,5,5,1,2178,present_patch/cong_131_5_a.jpg,absent_patch/patch0002178.jpg,,,,,,,,,,,,,,,,,,,,0.015740741,0.033333333,1,0,0,response1disk,10,0.005555556,0.005555556,1,0,0,center_square,0,9,9,40,1,,,,,,,,,,,,,,,,,,,,,,,
063041,001,2022-11-13_17h33.24.414,Info_measure_main_exp,2022.2.2,Win32,60.85316132,,,,,,,,,,,,,,,,,,masks/mask_003.jpg,,,,,,,,,,,,,,,,,,,,,,,,,,,,,,,,,,,,,,,,,,,0,0,0,2,1,,,,,,,,,,,,,,,,,,,,,,,,,,,,,,,,,,,,,,,,,,,,,,
063041,001,2022-11-13_17h33.24.414,Info_measure_main_exp,2022.2.2,Win32,60.85316132,,,,,,,,,,,,,,,,,,masks/mask_002.jpg,,,,,,,,,,,,,,,,,,,,,,,,,,,,,,,,,,,,,,,,,,,0,1,1,1,1,,,,,,,,,,,,,,,,,,,,,,,,,,,,,,,,,,,,,,,,,,,,,,
063041,001,2022-11-13_17h33.24.414,Info_measure_main_exp,2022.2.2,Win32,60.85316132,,,,,,,,,,,,,,,,,,masks/mask_004.jpg,,,,,,,,,,,,,,,,,,,,,,,,,,,,,,,,,,,,,,,,,,,0,2,2,3,1,,,,,,,,,,,,,,,,,,,,,,,,,,,,,,,,,,,,,,,,,,,,,,
063041,001,2022-11-13_17h33.24.414,Info_measure_main_exp,2022.2.2,Win32,60.85316132,,,,,,,,,,,,,,,,,,masks/mask_005.jpg,,,,,,,,,,,,,,,,,,,,,,,,,,,,,,,,,,,,,,,,,,,0,3,3,4,1,,,,,,,,,,,,,,,,,,,,,,,,,,,,,,,,,,,,,,,,,,,,,,
063041,001,2022-11-13_17h33.24.414,Info_measure_main_exp,2022.2.2,Win32,60.85316132,,,,,,,,,,,,,,,,,,masks/mask_001.jpg,,,,,,,,,,,,,,,,,,,,,,,,,,,,,,,,,,,,,,,,,,,0,4,4,0,1,,,,,,,,,,,,,,,,,,,,,,,,,,,,,,,,,,,,,,,,,,,,,,
063041,001,2022-11-13_17h33.24.414,Info_measure_main_exp,2022.2.2,Win32,60.85316132,,,,,,,,,,,,,,,,,,masks/mask_001.jpg,,,,,,,,,,,,,,,,,,,,,,,,,,,,,,,,,,,,,,,,,,,,,,,,0,0,0,0,1,,,,,,,,,,,,,,,,,,,,,,,,,,,,,,,,,,,,,,,,,
063041,001,2022-11-13_17h33.24.414,Info_measure_main_exp,2022.2.2,Win32,60.85316132,,,,,,,,,,,,,,,,,,masks/mask_005.jpg,,,,,,,,,,,,,,,,,,,,,,,,,,,,,,,,,,,,,,,,,,,,,,,,0,1,1,4,1,,,,,,,,,,,,,,,,,,,,,,,,,,,,,,,,,,,,,,,,,
063041,001,2022-11-13_17h33.24.414,Info_measure_main_exp,2022.2.2,Win32,60.85316132,,,,,,,,,,,,,,,,,,masks/mask_003.jpg,,,,,,,,,,,,,,,,,,,,,,,,,,,,,,,,,,,,,,,,,,,,,,,,0,2,2,2,1,,,,,,,,,,,,,,,,,,,,,,,,,,,,,,,,,,,,,,,,,
063041,001,2022-11-13_17h33.24.414,Info_measure_main_exp,2022.2.2,Win32,60.85316132,,,,,,,,,,,,,,,,,,masks/mask_004.jpg,,,,,,,,,,,,,,,,,,,,,,,,,,,,,,,,,,,,,,,,,,,,,,,,0,3,3,3,1,,,,,,,,,,,,,,,,,,,,,,,,,,,,,,,,,,,,,,,,,
063041,001,2022-11-13_17h33.24.414,Info_measure_main_exp,2022.2.2,Win32,60.85316132,,,,,,,,,,,,,,,,,,masks/mask_002.jpg,,,,,,,,,,,,,,,,,,,,,,,,,,,,,,,,,,,,,,,,,,,,,,,,0,4,4,1,1,,,,,,,,,,,,,,,,,,,,,,,,,,,,,,,,,,,,,,,,,
063041,001,2022-11-13_17h33.24.414,Info_measure_main_exp,2022.2.2,Win32,60.85316132,,,,,,,,,,,,,,,,,,,,,,,,,,,,,,0,0.9167,1,,,,,,,,,,,,0,131,5,5,2082,2082,absent_patch/patch0002082.jpg,absent_patch/patch0002082.jpg,,,,,,,,,,,,,,,,,,,,-0.012037037,0.047222222,1,0,0,response7disk,11,-0.005555556,-0.005555556,1,0,0,center_square,0,10,10,74,1,,,,,,,,,,,,,,,,,,,,,,,
063041,001,2022-11-13_17h33.24.414,Info_measure_main_exp,2022.2.2,Win32,60.85316132,,,,,,,,,,,,,,,,,,masks/mask_001.jpg,,,,,,,,,,,,,,,,,,,,,,,,,,,,,,,,,,,,,,,,,,,0,0,0,0,1,,,,,,,,,,,,,,,,,,,,,,,,,,,,,,,,,,,,,,,,,,,,,,
063041,001,2022-11-13_17h33.24.414,Info_measure_main_exp,2022.2.2,Win32,60.85316132,,,,,,,,,,,,,,,,,,masks/mask_005.jpg,,,,,,,,,,,,,,,,,,,,,,,,,,,,,,,,,,,,,,,,,,,0,1,1,4,1,,,,,,,,,,,,,,,,,,,,,,,,,,,,,,,,,,,,,,,,,,,,,,
063041,001,2022-11-13_17h33.24.414,Info_measure_main_exp,2022.2.2,Win32,60.85316132,,,,,,,,,,,,,,,,,,masks/mask_004.jpg,,,,,,,,,,,,,,,,,,,,,,,,,,,,,,,,,,,,,,,,,,,0,2,2,3,1,,,,,,,,,,,,,,,,,,,,,,,,,,,,,,,,,,,,,,,,,,,,,,
063041,001,2022-11-13_17h33.24.414,Info_measure_main_exp,2022.2.2,Win32,60.85316132,,,,,,,,,,,,,,,,,,masks/mask_003.jpg,,,,,,,,,,,,,,,,,,,,,,,,,,,,,,,,,,,,,,,,,,,0,3,3,2,1,,,,,,,,,,,,,,,,,,,,,,,,,,,,,,,,,,,,,,,,,,,,,,
063041,001,2022-11-13_17h33.24.414,Info_measure_main_exp,2022.2.2,Win32,60.85316132,,,,,,,,,,,,,,,,,,masks/mask_002.jpg,,,,,,,,,,,,,,,,,,,,,,,,,,,,,,,,,,,,,,,,,,,0,4,4,1,1,,,,,,,,,,,,,,,,,,,,,,,,,,,,,,,,,,,,,,,,,,,,,,
063041,001,2022-11-13_17h33.24.414,Info_measure_main_exp,2022.2.2,Win32,60.85316132,,,,,,,,,,,,,,,,,,masks/mask_002.jpg,,,,,,,,,,,,,,,,,,,,,,,,,,,,,,,,,,,,,,,,,,,,,,,,0,0,0,1,1,,,,,,,,,,,,,,,,,,,,,,,,,,,,,,,,,,,,,,,,,
063041,001,2022-11-13_17h33.24.414,Info_measure_main_exp,2022.2.2,Win32,60.85316132,,,,,,,,,,,,,,,,,,masks/mask_005.jpg,,,,,,,,,,,,,,,,,,,,,,,,,,,,,,,,,,,,,,,,,,,,,,,,0,1,1,4,1,,,,,,,,,,,,,,,,,,,,,,,,,,,,,,,,,,,,,,,,,
063041,001,2022-11-13_17h33.24.414,Info_measure_main_exp,2022.2.2,Win32,60.85316132,,,,,,,,,,,,,,,,,,masks/mask_003.jpg,,,,,,,,,,,,,,,,,,,,,,,,,,,,,,,,,,,,,,,,,,,,,,,,0,2,2,2,1,,,,,,,,,,,,,,,,,,,,,,,,,,,,,,,,,,,,,,,,,
063041,001,2022-11-13_17h33.24.414,Info_measure_main_exp,2022.2.2,Win32,60.85316132,,,,,,,,,,,,,,,,,,masks/mask_004.jpg,,,,,,,,,,,,,,,,,,,,,,,,,,,,,,,,,,,,,,,,,,,,,,,,0,3,3,3,1,,,,,,,,,,,,,,,,,,,,,,,,,,,,,,,,,,,,,,,,,
063041,001,2022-11-13_17h33.24.414,Info_measure_main_exp,2022.2.2,Win32,60.85316132,,,,,,,,,,,,,,,,,,masks/mask_001.jpg,,,,,,,,,,,,,,,,,,,,,,,,,,,,,,,,,,,,,,,,,,,,,,,,0,4,4,0,1,,,,,,,,,,,,,,,,,,,,,,,,,,,,,,,,,,,,,,,,,
063041,001,2022-11-13_17h33.24.414,Info_measure_main_exp,2022.2.2,Win32,60.85316132,,,,,,,,,,,,,,,,,,,,,,,,,,,,,,7,1.3326,1,,,,,,,,,,,,0,131,5,5,2214,2142,absent_patch/patch0002214.jpg,absent_patch/patch0002142.jpg,,,,,,,,,,,,,,,,,,,,0.022222222,0.037037037,1,0,0,response1disk,12,-0.001851852,-0.002777778,1,0,0,center_square,0,11,11,102,1,,,,,,,,,,,,,,,,,,,,,,,
063041,001,2022-11-13_17h33.24.414,Info_measure_main_exp,2022.2.2,Win32,60.85316132,,,,,,,,,,,,,,,,,,masks/mask_005.jpg,,,,,,,,,,,,,,,,,,,,,,,,,,,,,,,,,,,,,,,,,,,0,0,0,4,1,,,,,,,,,,,,,,,,,,,,,,,,,,,,,,,,,,,,,,,,,,,,,,
063041,001,2022-11-13_17h33.24.414,Info_measure_main_exp,2022.2.2,Win32,60.85316132,,,,,,,,,,,,,,,,,,masks/mask_003.jpg,,,,,,,,,,,,,,,,,,,,,,,,,,,,,,,,,,,,,,,,,,,0,1,1,2,1,,,,,,,,,,,,,,,,,,,,,,,,,,,,,,,,,,,,,,,,,,,,,,
063041,001,2022-11-13_17h33.24.414,Info_measure_main_exp,2022.2.2,Win32,60.85316132,,,,,,,,,,,,,,,,,,masks/mask_004.jpg,,,,,,,,,,,,,,,,,,,,,,,,,,,,,,,,,,,,,,,,,,,0,2,2,3,1,,,,,,,,,,,,,,,,,,,,,,,,,,,,,,,,,,,,,,,,,,,,,,
063041,001,2022-11-13_17h33.24.414,Info_measure_main_exp,2022.2.2,Win32,60.85316132,,,,,,,,,,,,,,,,,,masks/mask_002.jpg,,,,,,,,,,,,,,,,,,,,,,,,,,,,,,,,,,,,,,,,,,,0,3,3,1,1,,,,,,,,,,,,,,,,,,,,,,,,,,,,,,,,,,,,,,,,,,,,,,
063041,001,2022-11-13_17h33.24.414,Info_measure_main_exp,2022.2.2,Win32,60.85316132,,,,,,,,,,,,,,,,,,masks/mask_001.jpg,,,,,,,,,,,,,,,,,,,,,,,,,,,,,,,,,,,,,,,,,,,0,4,4,0,1,,,,,,,,,,,,,,,,,,,,,,,,,,,,,,,,,,,,,,,,,,,,,,
063041,001,2022-11-13_17h33.24.414,Info_measure_main_exp,2022.2.2,Win32,60.85316132,,,,,,,,,,,,,,,,,,masks/mask_001.jpg,,,,,,,,,,,,,,,,,,,,,,,,,,,,,,,,,,,,,,,,,,,,,,,,0,0,0,0,1,,,,,,,,,,,,,,,,,,,,,,,,,,,,,,,,,,,,,,,,,
063041,001,2022-11-13_17h33.24.414,Info_measure_main_exp,2022.2.2,Win32,60.85316132,,,,,,,,,,,,,,,,,,masks/mask_003.jpg,,,,,,,,,,,,,,,,,,,,,,,,,,,,,,,,,,,,,,,,,,,,,,,,0,1,1,2,1,,,,,,,,,,,,,,,,,,,,,,,,,,,,,,,,,,,,,,,,,
063041,001,2022-11-13_17h33.24.414,Info_measure_main_exp,2022.2.2,Win32,60.85316132,,,,,,,,,,,,,,,,,,masks/mask_005.jpg,,,,,,,,,,,,,,,,,,,,,,,,,,,,,,,,,,,,,,,,,,,,,,,,0,2,2,4,1,,,,,,,,,,,,,,,,,,,,,,,,,,,,,,,,,,,,,,,,,
063041,001,2022-11-13_17h33.24.414,Info_measure_main_exp,2022.2.2,Win32,60.85316132,,,,,,,,,,,,,,,,,,masks/mask_002.jpg,,,,,,,,,,,,,,,,,,,,,,,,,,,,,,,,,,,,,,,,,,,,,,,,0,3,3,1,1,,,,,,,,,,,,,,,,,,,,,,,,,,,,,,,,,,,,,,,,,
063041,001,2022-11-13_17h33.24.414,Info_measure_main_exp,2022.2.2,Win32,60.85316132,,,,,,,,,,,,,,,,,,masks/mask_004.jpg,,,,,,,,,,,,,,,,,,,,,,,,,,,,,,,,,,,,,,,,,,,,,,,,0,4,4,3,1,,,,,,,,,,,,,,,,,,,,,,,,,,,,,,,,,,,,,,,,,
063041,001,2022-11-13_17h33.24.414,Info_measure_main_exp,2022.2.2,Win32,60.85316132,,,,,,,,,,,,,,,,,,,,,,,,,,,,,,5,1.8792,1,,,,,,,,,,,,0,131,5,5,1974,2250,absent_patch/patch0001974.jpg,absent_patch/patch0002250.jpg,,,,,,,,,,,,,,,,,,,,0.017592593,-0.011111111,1,0,0,response3disk,13,-0.002777778,-0.000925926,1,0,0,center_square,0,12,12,55,1,,,,,,,,,,,,,,,,,,,,,,,
063041,001,2022-11-13_17h33.24.414,Info_measure_main_exp,2022.2.2,Win32,60.85316132,,,,,,,,,,,,,,,,,,masks/mask_005.jpg,,,,,,,,,,,,,,,,,,,,,,,,,,,,,,,,,,,,,,,,,,,0,0,0,4,1,,,,,,,,,,,,,,,,,,,,,,,,,,,,,,,,,,,,,,,,,,,,,,
063041,001,2022-11-13_17h33.24.414,Info_measure_main_exp,2022.2.2,Win32,60.85316132,,,,,,,,,,,,,,,,,,masks/mask_004.jpg,,,,,,,,,,,,,,,,,,,,,,,,,,,,,,,,,,,,,,,,,,,0,1,1,3,1,,,,,,,,,,,,,,,,,,,,,,,,,,,,,,,,,,,,,,,,,,,,,,
063041,001,2022-11-13_17h33.24.414,Info_measure_main_exp,2022.2.2,Win32,60.85316132,,,,,,,,,,,,,,,,,,masks/mask_003.jpg,,,,,,,,,,,,,,,,,,,,,,,,,,,,,,,,,,,,,,,,,,,0,2,2,2,1,,,,,,,,,,,,,,,,,,,,,,,,,,,,,,,,,,,,,,,,,,,,,,
063041,001,2022-11-13_17h33.24.414,Info_measure_main_exp,2022.2.2,Win32,60.85316132,,,,,,,,,,,,,,,,,,masks/mask_001.jpg,,,,,,,,,,,,,,,,,,,,,,,,,,,,,,,,,,,,,,,,,,,0,3,3,0,1,,,,,,,,,,,,,,,,,,,,,,,,,,,,,,,,,,,,,,,,,,,,,,
063041,001,2022-11-13_17h33.24.414,Info_measure_main_exp,2022.2.2,Win32,60.85316132,,,,,,,,,,,,,,,,,,masks/mask_002.jpg,,,,,,,,,,,,,,,,,,,,,,,,,,,,,,,,,,,,,,,,,,,0,4,4,1,1,,,,,,,,,,,,,,,,,,,,,,,,,,,,,,,,,,,,,,,,,,,,,,
063041,001,2022-11-13_17h33.24.414,Info_measure_main_exp,2022.2.2,Win32,60.85316132,,,,,,,,,,,,,,,,,,masks/mask_004.jpg,,,,,,,,,,,,,,,,,,,,,,,,,,,,,,,,,,,,,,,,,,,,,,,,0,0,0,3,1,,,,,,,,,,,,,,,,,,,,,,,,,,,,,,,,,,,,,,,,,
063041,001,2022-11-13_17h33.24.414,Info_measure_main_exp,2022.2.2,Win32,60.85316132,,,,,,,,,,,,,,,,,,masks/mask_001.jpg,,,,,,,,,,,,,,,,,,,,,,,,,,,,,,,,,,,,,,,,,,,,,,,,0,1,1,0,1,,,,,,,,,,,,,,,,,,,,,,,,,,,,,,,,,,,,,,,,,
063041,001,2022-11-13_17h33.24.414,Info_measure_main_exp,2022.2.2,Win32,60.85316132,,,,,,,,,,,,,,,,,,masks/mask_002.jpg,,,,,,,,,,,,,,,,,,,,,,,,,,,,,,,,,,,,,,,,,,,,,,,,0,2,2,1,1,,,,,,,,,,,,,,,,,,,,,,,,,,,,,,,,,,,,,,,,,
063041,001,2022-11-13_17h33.24.414,Info_measure_main_exp,2022.2.2,Win32,60.85316132,,,,,,,,,,,,,,,,,,masks/mask_005.jpg,,,,,,,,,,,,,,,,,,,,,,,,,,,,,,,,,,,,,,,,,,,,,,,,0,3,3,4,1,,,,,,,,,,,,,,,,,,,,,,,,,,,,,,,,,,,,,,,,,
063041,001,2022-11-13_17h33.24.414,Info_measure_main_exp,2022.2.2,Win32,60.85316132,,,,,,,,,,,,,,,,,,masks/mask_003.jpg,,,,,,,,,,,,,,,,,,,,,,,,,,,,,,,,,,,,,,,,,,,,,,,,0,4,4,2,1,,,,,,,,,,,,,,,,,,,,,,,,,,,,,,,,,,,,,,,,,
063041,001,2022-11-13_17h33.24.414,Info_measure_main_exp,2022.2.2,Win32,60.85316132,,,,,,,,,,,,,,,,,,,,,,,,,,,,,,0,2.034,1,,,,,,,,,,,,0,131,5,5,1974,1974,absent_patch/patch0001974.jpg,absent_patch/patch0001974.jpg,,,,,,,,,,,,,,,,,,,,-0.008333333,0.032407407,1,0,0,response7disk,14,-0.007407407,-0.000925926,1,0,0,center_square,0,13,13,113,1,,,,,,,,,,,,,,,,,,,,,,,
063041,001,2022-11-13_17h33.24.414,Info_measure_main_exp,2022.2.2,Win32,60.85316132,,,,,,,,,,,,,,,,,,masks/mask_005.jpg,,,,,,,,,,,,,,,,,,,,,,,,,,,,,,,,,,,,,,,,,,,0,0,0,4,1,,,,,,,,,,,,,,,,,,,,,,,,,,,,,,,,,,,,,,,,,,,,,,
063041,001,2022-11-13_17h33.24.414,Info_measure_main_exp,2022.2.2,Win32,60.85316132,,,,,,,,,,,,,,,,,,masks/mask_001.jpg,,,,,,,,,,,,,,,,,,,,,,,,,,,,,,,,,,,,,,,,,,,0,1,1,0,1,,,,,,,,,,,,,,,,,,,,,,,,,,,,,,,,,,,,,,,,,,,,,,
063041,001,2022-11-13_17h33.24.414,Info_measure_main_exp,2022.2.2,Win32,60.85316132,,,,,,,,,,,,,,,,,,masks/mask_003.jpg,,,,,,,,,,,,,,,,,,,,,,,,,,,,,,,,,,,,,,,,,,,0,2,2,2,1,,,,,,,,,,,,,,,,,,,,,,,,,,,,,,,,,,,,,,,,,,,,,,
063041,001,2022-11-13_17h33.24.414,Info_measure_main_exp,2022.2.2,Win32,60.85316132,,,,,,,,,,,,,,,,,,masks/mask_004.jpg,,,,,,,,,,,,,,,,,,,,,,,,,,,,,,,,,,,,,,,,,,,0,3,3,3,1,,,,,,,,,,,,,,,,,,,,,,,,,,,,,,,,,,,,,,,,,,,,,,
063041,001,2022-11-13_17h33.24.414,Info_measure_main_exp,2022.2.2,Win32,60.85316132,,,,,,,,,,,,,,,,,,masks/mask_002.jpg,,,,,,,,,,,,,,,,,,,,,,,,,,,,,,,,,,,,,,,,,,,0,4,4,1,1,,,,,,,,,,,,,,,,,,,,,,,,,,,,,,,,,,,,,,,,,,,,,,
063041,001,2022-11-13_17h33.24.414,Info_measure_main_exp,2022.2.2,Win32,60.85316132,,,,,,,,,,,,,,,,,,masks/mask_005.jpg,,,,,,,,,,,,,,,,,,,,,,,,,,,,,,,,,,,,,,,,,,,,,,,,0,0,0,4,1,,,,,,,,,,,,,,,,,,,,,,,,,,,,,,,,,,,,,,,,,
063041,001,2022-11-13_17h33.24.414,Info_measure_main_exp,2022.2.2,Win32,60.85316132,,,,,,,,,,,,,,,,,,masks/mask_003.jpg,,,,,,,,,,,,,,,,,,,,,,,,,,,,,,,,,,,,,,,,,,,,,,,,0,1,1,2,1,,,,,,,,,,,,,,,,,,,,,,,,,,,,,,,,,,,,,,,,,
063041,001,2022-11-13_17h33.24.414,Info_measure_main_exp,2022.2.2,Win32,60.85316132,,,,,,,,,,,,,,,,,,masks/mask_004.jpg,,,,,,,,,,,,,,,,,,,,,,,,,,,,,,,,,,,,,,,,,,,,,,,,0,2,2,3,1,,,,,,,,,,,,,,,,,,,,,,,,,,,,,,,,,,,,,,,,,
063041,001,2022-11-13_17h33.24.414,Info_measure_main_exp,2022.2.2,Win32,60.85316132,,,,,,,,,,,,,,,,,,masks/mask_001.jpg,,,,,,,,,,,,,,,,,,,,,,,,,,,,,,,,,,,,,,,,,,,,,,,,0,3,3,0,1,,,,,,,,,,,,,,,,,,,,,,,,,,,,,,,,,,,,,,,,,
063041,001,2022-11-13_17h33.24.414,Info_measure_main_exp,2022.2.2,Win32,60.85316132,,,,,,,,,,,,,,,,,,masks/mask_002.jpg,,,,,,,,,,,,,,,,,,,,,,,,,,,,,,,,,,,,,,,,,,,,,,,,0,4,4,1,1,,,,,,,,,,,,,,,,,,,,,,,,,,,,,,,,,,,,,,,,,
063041,001,2022-11-13_17h33.24.414,Info_measure_main_exp,2022.2.2,Win32,60.85316132,,,,,,,,,,,,,,,,,,,,,,,,,,,,,,0,0.783,1,,,,,,,,,,,,1,131,5,5,1,1,present_patch/cong_131_5_a.jpg,present_patch/cong_131_5_a.jpg,,,,,,,,,,,,,,,,,,,,-0.022222222,0.046296296,1,0,0,response7disk,15,-0.007407407,-0.000925926,1,0,0,center_square,0,14,14,30,1,,,,,,,,,,,,,,,,,,,,,,,
063041,001,2022-11-13_17h33.24.414,Info_measure_main_exp,2022.2.2,Win32,60.85316132,,,,,,,,,,,,,,,,,,masks/mask_003.jpg,,,,,,,,,,,,,,,,,,,,,,,,,,,,,,,,,,,,,,,,,,,0,0,0,2,1,,,,,,,,,,,,,,,,,,,,,,,,,,,,,,,,,,,,,,,,,,,,,,
063041,001,2022-11-13_17h33.24.414,Info_measure_main_exp,2022.2.2,Win32,60.85316132,,,,,,,,,,,,,,,,,,masks/mask_002.jpg,,,,,,,,,,,,,,,,,,,,,,,,,,,,,,,,,,,,,,,,,,,0,1,1,1,1,,,,,,,,,,,,,,,,,,,,,,,,,,,,,,,,,,,,,,,,,,,,,,
063041,001,2022-11-13_17h33.24.414,Info_measure_main_exp,2022.2.2,Win32,60.85316132,,,,,,,,,,,,,,,,,,masks/mask_001.jpg,,,,,,,,,,,,,,,,,,,,,,,,,,,,,,,,,,,,,,,,,,,0,2,2,0,1,,,,,,,,,,,,,,,,,,,,,,,,,,,,,,,,,,,,,,,,,,,,,,
063041,001,2022-11-13_17h33.24.414,Info_measure_main_exp,2022.2.2,Win32,60.85316132,,,,,,,,,,,,,,,,,,masks/mask_004.jpg,,,,,,,,,,,,,,,,,,,,,,,,,,,,,,,,,,,,,,,,,,,0,3,3,3,1,,,,,,,,,,,,,,,,,,,,,,,,,,,,,,,,,,,,,,,,,,,,,,
063041,001,2022-11-13_17h33.24.414,Info_measure_main_exp,2022.2.2,Win32,60.85316132,,,,,,,,,,,,,,,,,,masks/mask_005.jpg,,,,,,,,,,,,,,,,,,,,,,,,,,,,,,,,,,,,,,,,,,,0,4,4,4,1,,,,,,,,,,,,,,,,,,,,,,,,,,,,,,,,,,,,,,,,,,,,,,
063041,001,2022-11-13_17h33.24.414,Info_measure_main_exp,2022.2.2,Win32,60.85316132,,,,,,,,,,,,,,,,,,masks/mask_005.jpg,,,,,,,,,,,,,,,,,,,,,,,,,,,,,,,,,,,,,,,,,,,,,,,,0,0,0,4,1,,,,,,,,,,,,,,,,,,,,,,,,,,,,,,,,,,,,,,,,,
063041,001,2022-11-13_17h33.24.414,Info_measure_main_exp,2022.2.2,Win32,60.85316132,,,,,,,,,,,,,,,,,,masks/mask_001.jpg,,,,,,,,,,,,,,,,,,,,,,,,,,,,,,,,,,,,,,,,,,,,,,,,0,1,1,0,1,,,,,,,,,,,,,,,,,,,,,,,,,,,,,,,,,,,,,,,,,
063041,001,2022-11-13_17h33.24.414,Info_measure_main_exp,2022.2.2,Win32,60.85316132,,,,,,,,,,,,,,,,,,masks/mask_004.jpg,,,,,,,,,,,,,,,,,,,,,,,,,,,,,,,,,,,,,,,,,,,,,,,,0,2,2,3,1,,,,,,,,,,,,,,,,,,,,,,,,,,,,,,,,,,,,,,,,,
063041,001,2022-11-13_17h33.24.414,Info_measure_main_exp,2022.2.2,Win32,60.85316132,,,,,,,,,,,,,,,,,,masks/mask_003.jpg,,,,,,,,,,,,,,,,,,,,,,,,,,,,,,,,,,,,,,,,,,,,,,,,0,3,3,2,1,,,,,,,,,,,,,,,,,,,,,,,,,,,,,,,,,,,,,,,,,
063041,001,2022-11-13_17h33.24.414,Info_measure_main_exp,2022.2.2,Win32,60.85316132,,,,,,,,,,,,,,,,,,masks/mask_002.jpg,,,,,,,,,,,,,,,,,,,,,,,,,,,,,,,,,,,,,,,,,,,,,,,,0,4,4,1,1,,,,,,,,,,,,,,,,,,,,,,,,,,,,,,,,,,,,,,,,,
063041,001,2022-11-13_17h33.24.414,Info_measure_main_exp,2022.2.2,Win32,60.85316132,,,,,,,,,,,,,,,,,,,,,,,,,,,,,,0,0.9335,1,,,,,,,,,,,,0,131,5,5,2274,2274,absent_patch/patch0002274.jpg,absent_patch/patch0002274.jpg,,,,,,,,,,,,,,,,,,,,-0.015740741,0.059259259,1,0,0,response7disk,16,-0.006481481,-0.005555556,1,0,0,center_square,0,15,15,114,1,,,,,,,,,,,,,,,,,,,,,,,
063041,001,2022-11-13_17h33.24.414,Info_measure_main_exp,2022.2.2,Win32,60.85316132,,,,,,,,,,,,,,,,,,masks/mask_002.jpg,,,,,,,,,,,,,,,,,,,,,,,,,,,,,,,,,,,,,,,,,,,0,0,0,1,1,,,,,,,,,,,,,,,,,,,,,,,,,,,,,,,,,,,,,,,,,,,,,,
063041,001,2022-11-13_17h33.24.414,Info_measure_main_exp,2022.2.2,Win32,60.85316132,,,,,,,,,,,,,,,,,,masks/mask_001.jpg,,,,,,,,,,,,,,,,,,,,,,,,,,,,,,,,,,,,,,,,,,,0,1,1,0,1,,,,,,,,,,,,,,,,,,,,,,,,,,,,,,,,,,,,,,,,,,,,,,
063041,001,2022-11-13_17h33.24.414,Info_measure_main_exp,2022.2.2,Win32,60.85316132,,,,,,,,,,,,,,,,,,masks/mask_004.jpg,,,,,,,,,,,,,,,,,,,,,,,,,,,,,,,,,,,,,,,,,,,0,2,2,3,1,,,,,,,,,,,,,,,,,,,,,,,,,,,,,,,,,,,,,,,,,,,,,,
063041,001,2022-11-13_17h33.24.414,Info_measure_main_exp,2022.2.2,Win32,60.85316132,,,,,,,,,,,,,,,,,,masks/mask_003.jpg,,,,,,,,,,,,,,,,,,,,,,,,,,,,,,,,,,,,,,,,,,,0,3,3,2,1,,,,,,,,,,,,,,,,,,,,,,,,,,,,,,,,,,,,,,,,,,,,,,
063041,001,2022-11-13_17h33.24.414,Info_measure_main_exp,2022.2.2,Win32,60.85316132,,,,,,,,,,,,,,,,,,masks/mask_005.jpg,,,,,,,,,,,,,,,,,,,,,,,,,,,,,,,,,,,,,,,,,,,0,4,4,4,1,,,,,,,,,,,,,,,,,,,,,,,,,,,,,,,,,,,,,,,,,,,,,,
063041,001,2022-11-13_17h33.24.414,Info_measure_main_exp,2022.2.2,Win32,60.85316132,,,,,,,,,,,,,,,,,,masks/mask_005.jpg,,,,,,,,,,,,,,,,,,,,,,,,,,,,,,,,,,,,,,,,,,,,,,,,0,0,0,4,1,,,,,,,,,,,,,,,,,,,,,,,,,,,,,,,,,,,,,,,,,
063041,001,2022-11-13_17h33.24.414,Info_measure_main_exp,2022.2.2,Win32,60.85316132,,,,,,,,,,,,,,,,,,masks/mask_002.jpg,,,,,,,,,,,,,,,,,,,,,,,,,,,,,,,,,,,,,,,,,,,,,,,,0,1,1,1,1,,,,,,,,,,,,,,,,,,,,,,,,,,,,,,,,,,,,,,,,,
063041,001,2022-11-13_17h33.24.414,Info_measure_main_exp,2022.2.2,Win32,60.85316132,,,,,,,,,,,,,,,,,,masks/mask_003.jpg,,,,,,,,,,,,,,,,,,,,,,,,,,,,,,,,,,,,,,,,,,,,,,,,0,2,2,2,1,,,,,,,,,,,,,,,,,,,,,,,,,,,,,,,,,,,,,,,,,
063041,001,2022-11-13_17h33.24.414,Info_measure_main_exp,2022.2.2,Win32,60.85316132,,,,,,,,,,,,,,,,,,masks/mask_004.jpg,,,,,,,,,,,,,,,,,,,,,,,,,,,,,,,,,,,,,,,,,,,,,,,,0,3,3,3,1,,,,,,,,,,,,,,,,,,,,,,,,,,,,,,,,,,,,,,,,,
063041,001,2022-11-13_17h33.24.414,Info_measure_main_exp,2022.2.2,Win32,60.85316132,,,,,,,,,,,,,,,,,,masks/mask_001.jpg,,,,,,,,,,,,,,,,,,,,,,,,,,,,,,,,,,,,,,,,,,,,,,,,0,4,4,0,1,,,,,,,,,,,,,,,,,,,,,,,,,,,,,,,,,,,,,,,,,
063041,001,2022-11-13_17h33.24.414,Info_measure_main_exp,2022.2.2,Win32,60.85316132,,,,,,,,,,,,,,,,,,,,,,,,,,,,,,7,1.024,1,,,,,,,,,,,,0,131,5,5,1974,2178,absent_patch/patch0001974.jpg,absent_patch/patch0002178.jpg,,,,,,,,,,,,,,,,,,,,0.009259259,0.023148148,1,0,0,response1disk,17,0.001851852,0.000925926,1,0,0,center_square,0,16,16,44,1,,,,,,,,,,,,,,,,,,,,,,,
063041,001,2022-11-13_17h33.24.414,Info_measure_main_exp,2022.2.2,Win32,60.85316132,,,,,,,,,,,,,,,,,,masks/mask_003.jpg,,,,,,,,,,,,,,,,,,,,,,,,,,,,,,,,,,,,,,,,,,,0,0,0,2,1,,,,,,,,,,,,,,,,,,,,,,,,,,,,,,,,,,,,,,,,,,,,,,
063041,001,2022-11-13_17h33.24.414,Info_measure_main_exp,2022.2.2,Win32,60.85316132,,,,,,,,,,,,,,,,,,masks/mask_004.jpg,,,,,,,,,,,,,,,,,,,,,,,,,,,,,,,,,,,,,,,,,,,0,1,1,3,1,,,,,,,,,,,,,,,,,,,,,,,,,,,,,,,,,,,,,,,,,,,,,,
063041,001,2022-11-13_17h33.24.414,Info_measure_main_exp,2022.2.2,Win32,60.85316132,,,,,,,,,,,,,,,,,,masks/mask_002.jpg,,,,,,,,,,,,,,,,,,,,,,,,,,,,,,,,,,,,,,,,,,,0,2,2,1,1,,,,,,,,,,,,,,,,,,,,,,,,,,,,,,,,,,,,,,,,,,,,,,
063041,001,2022-11-13_17h33.24.414,Info_measure_main_exp,2022.2.2,Win32,60.85316132,,,,,,,,,,,,,,,,,,masks/mask_001.jpg,,,,,,,,,,,,,,,,,,,,,,,,,,,,,,,,,,,,,,,,,,,0,3,3,0,1,,,,,,,,,,,,,,,,,,,,,,,,,,,,,,,,,,,,,,,,,,,,,,
063041,001,2022-11-13_17h33.24.414,Info_measure_main_exp,2022.2.2,Win32,60.85316132,,,,,,,,,,,,,,,,,,masks/mask_005.jpg,,,,,,,,,,,,,,,,,,,,,,,,,,,,,,,,,,,,,,,,,,,0,4,4,4,1,,,,,,,,,,,,,,,,,,,,,,,,,,,,,,,,,,,,,,,,,,,,,,
063041,001,2022-11-13_17h33.24.414,Info_measure_main_exp,2022.2.2,Win32,60.85316132,,,,,,,,,,,,,,,,,,masks/mask_003.jpg,,,,,,,,,,,,,,,,,,,,,,,,,,,,,,,,,,,,,,,,,,,,,,,,0,0,0,2,1,,,,,,,,,,,,,,,,,,,,,,,,,,,,,,,,,,,,,,,,,
063041,001,2022-11-13_17h33.24.414,Info_measure_main_exp,2022.2.2,Win32,60.85316132,,,,,,,,,,,,,,,,,,masks/mask_005.jpg,,,,,,,,,,,,,,,,,,,,,,,,,,,,,,,,,,,,,,,,,,,,,,,,0,1,1,4,1,,,,,,,,,,,,,,,,,,,,,,,,,,,,,,,,,,,,,,,,,
063041,001,2022-11-13_17h33.24.414,Info_measure_main_exp,2022.2.2,Win32,60.85316132,,,,,,,,,,,,,,,,,,masks/mask_002.jpg,,,,,,,,,,,,,,,,,,,,,,,,,,,,,,,,,,,,,,,,,,,,,,,,0,2,2,1,1,,,,,,,,,,,,,,,,,,,,,,,,,,,,,,,,,,,,,,,,,
063041,001,2022-11-13_17h33.24.414,Info_measure_main_exp,2022.2.2,Win32,60.85316132,,,,,,,,,,,,,,,,,,masks/mask_001.jpg,,,,,,,,,,,,,,,,,,,,,,,,,,,,,,,,,,,,,,,,,,,,,,,,0,3,3,0,1,,,,,,,,,,,,,,,,,,,,,,,,,,,,,,,,,,,,,,,,,
063041,001,2022-11-13_17h33.24.414,Info_measure_main_exp,2022.2.2,Win32,60.85316132,,,,,,,,,,,,,,,,,,masks/mask_004.jpg,,,,,,,,,,,,,,,,,,,,,,,,,,,,,,,,,,,,,,,,,,,,,,,,0,4,4,3,1,,,,,,,,,,,,,,,,,,,,,,,,,,,,,,,,,,,,,,,,,
063041,001,2022-11-13_17h33.24.414,Info_measure_main_exp,2022.2.2,Win32,60.85316132,,,,,,,,,,,,,,,,,,,,,,,,,,,,,,6,1.3706,1,,,,,,,,,,,,0,131,5,5,2298,2178,absent_patch/patch0002298.jpg,absent_patch/patch0002178.jpg,,,,,,,,,,,,,,,,,,,,0.033333333,0.007407407,1,0,0,response1disk,18,-0.002777778,-0.00462963,1,0,0,center_square,0,17,17,84,1,,,,,,,,,,,,,,,,,,,,,,,
063041,001,2022-11-13_17h33.24.414,Info_measure_main_exp,2022.2.2,Win32,60.85316132,,,,,,,,,,,,,,,,,,masks/mask_004.jpg,,,,,,,,,,,,,,,,,,,,,,,,,,,,,,,,,,,,,,,,,,,0,0,0,3,1,,,,,,,,,,,,,,,,,,,,,,,,,,,,,,,,,,,,,,,,,,,,,,
063041,001,2022-11-13_17h33.24.414,Info_measure_main_exp,2022.2.2,Win32,60.85316132,,,,,,,,,,,,,,,,,,masks/mask_002.jpg,,,,,,,,,,,,,,,,,,,,,,,,,,,,,,,,,,,,,,,,,,,0,1,1,1,1,,,,,,,,,,,,,,,,,,,,,,,,,,,,,,,,,,,,,,,,,,,,,,
063041,001,2022-11-13_17h33.24.414,Info_measure_main_exp,2022.2.2,Win32,60.85316132,,,,,,,,,,,,,,,,,,masks/mask_003.jpg,,,,,,,,,,,,,,,,,,,,,,,,,,,,,,,,,,,,,,,,,,,0,2,2,2,1,,,,,,,,,,,,,,,,,,,,,,,,,,,,,,,,,,,,,,,,,,,,,,
063041,001,2022-11-13_17h33.24.414,Info_measure_main_exp,2022.2.2,Win32,60.85316132,,,,,,,,,,,,,,,,,,masks/mask_001.jpg,,,,,,,,,,,,,,,,,,,,,,,,,,,,,,,,,,,,,,,,,,,0,3,3,0,1,,,,,,,,,,,,,,,,,,,,,,,,,,,,,,,,,,,,,,,,,,,,,,
063041,001,2022-11-13_17h33.24.414,Info_measure_main_exp,2022.2.2,Win32,60.85316132,,,,,,,,,,,,,,,,,,masks/mask_005.jpg,,,,,,,,,,,,,,,,,,,,,,,,,,,,,,,,,,,,,,,,,,,0,4,4,4,1,,,,,,,,,,,,,,,,,,,,,,,,,,,,,,,,,,,,,,,,,,,,,,
063041,001,2022-11-13_17h33.24.414,Info_measure_main_exp,2022.2.2,Win32,60.85316132,,,,,,,,,,,,,,,,,,masks/mask_003.jpg,,,,,,,,,,,,,,,,,,,,,,,,,,,,,,,,,,,,,,,,,,,,,,,,0,0,0,2,1,,,,,,,,,,,,,,,,,,,,,,,,,,,,,,,,,,,,,,,,,
063041,001,2022-11-13_17h33.24.414,Info_measure_main_exp,2022.2.2,Win32,60.85316132,,,,,,,,,,,,,,,,,,masks/mask_002.jpg,,,,,,,,,,,,,,,,,,,,,,,,,,,,,,,,,,,,,,,,,,,,,,,,0,1,1,1,1,,,,,,,,,,,,,,,,,,,,,,,,,,,,,,,,,,,,,,,,,
063041,001,2022-11-13_17h33.24.414,Info_measure_main_exp,2022.2.2,Win32,60.85316132,,,,,,,,,,,,,,,,,,masks/mask_004.jpg,,,,,,,,,,,,,,,,,,,,,,,,,,,,,,,,,,,,,,,,,,,,,,,,0,2,2,3,1,,,,,,,,,,,,,,,,,,,,,,,,,,,,,,,,,,,,,,,,,
063041,001,2022-11-13_17h33.24.414,Info_measure_main_exp,2022.2.2,Win32,60.85316132,,,,,,,,,,,,,,,,,,masks/mask_001.jpg,,,,,,,,,,,,,,,,,,,,,,,,,,,,,,,,,,,,,,,,,,,,,,,,0,3,3,0,1,,,,,,,,,,,,,,,,,,,,,,,,,,,,,,,,,,,,,,,,,
063041,001,2022-11-13_17h33.24.414,Info_measure_main_exp,2022.2.2,Win32,60.85316132,,,,,,,,,,,,,,,,,,masks/mask_005.jpg,,,,,,,,,,,,,,,,,,,,,,,,,,,,,,,,,,,,,,,,,,,,,,,,0,4,4,4,1,,,,,,,,,,,,,,,,,,,,,,,,,,,,,,,,,,,,,,,,,
063041,001,2022-11-13_17h33.24.414,Info_measure_main_exp,2022.2.2,Win32,60.85316132,,,,,,,,,,,,,,,,,,,,,,,,,,,,,,7,0.7332,1,,,,,,,,,,,,0,131,5,5,2178,1986,absent_patch/patch0002178.jpg,absent_patch/patch0001986.jpg,,,,,,,,,,,,,,,,,,,,0.010185185,0.041666667,1,0,0,response1disk,19,0.008333333,0,1,0,0,center_square,0,18,18,46,1,,,,,,,,,,,,,,,,,,,,,,,
063041,001,2022-11-13_17h33.24.414,Info_measure_main_exp,2022.2.2,Win32,60.85316132,,,,,,,,,,,,,,,,,,masks/mask_003.jpg,,,,,,,,,,,,,,,,,,,,,,,,,,,,,,,,,,,,,,,,,,,0,0,0,2,1,,,,,,,,,,,,,,,,,,,,,,,,,,,,,,,,,,,,,,,,,,,,,,
063041,001,2022-11-13_17h33.24.414,Info_measure_main_exp,2022.2.2,Win32,60.85316132,,,,,,,,,,,,,,,,,,masks/mask_005.jpg,,,,,,,,,,,,,,,,,,,,,,,,,,,,,,,,,,,,,,,,,,,0,1,1,4,1,,,,,,,,,,,,,,,,,,,,,,,,,,,,,,,,,,,,,,,,,,,,,,
063041,001,2022-11-13_17h33.24.414,Info_measure_main_exp,2022.2.2,Win32,60.85316132,,,,,,,,,,,,,,,,,,masks/mask_004.jpg,,,,,,,,,,,,,,,,,,,,,,,,,,,,,,,,,,,,,,,,,,,0,2,2,3,1,,,,,,,,,,,,,,,,,,,,,,,,,,,,,,,,,,,,,,,,,,,,,,
063041,001,2022-11-13_17h33.24.414,Info_measure_main_exp,2022.2.2,Win32,60.85316132,,,,,,,,,,,,,,,,,,masks/mask_002.jpg,,,,,,,,,,,,,,,,,,,,,,,,,,,,,,,,,,,,,,,,,,,0,3,3,1,1,,,,,,,,,,,,,,,,,,,,,,,,,,,,,,,,,,,,,,,,,,,,,,
063041,001,2022-11-13_17h33.24.414,Info_measure_main_exp,2022.2.2,Win32,60.85316132,,,,,,,,,,,,,,,,,,masks/mask_001.jpg,,,,,,,,,,,,,,,,,,,,,,,,,,,,,,,,,,,,,,,,,,,0,4,4,0,1,,,,,,,,,,,,,,,,,,,,,,,,,,,,,,,,,,,,,,,,,,,,,,
063041,001,2022-11-13_17h33.24.414,Info_measure_main_exp,2022.2.2,Win32,60.85316132,,,,,,,,,,,,,,,,,,masks/mask_003.jpg,,,,,,,,,,,,,,,,,,,,,,,,,,,,,,,,,,,,,,,,,,,,,,,,0,0,0,2,1,,,,,,,,,,,,,,,,,,,,,,,,,,,,,,,,,,,,,,,,,
063041,001,2022-11-13_17h33.24.414,Info_measure_main_exp,2022.2.2,Win32,60.85316132,,,,,,,,,,,,,,,,,,masks/mask_002.jpg,,,,,,,,,,,,,,,,,,,,,,,,,,,,,,,,,,,,,,,,,,,,,,,,0,1,1,1,1,,,,,,,,,,,,,,,,,,,,,,,,,,,,,,,,,,,,,,,,,
063041,001,2022-11-13_17h33.24.414,Info_measure_main_exp,2022.2.2,Win32,60.85316132,,,,,,,,,,,,,,,,,,masks/mask_001.jpg,,,,,,,,,,,,,,,,,,,,,,,,,,,,,,,,,,,,,,,,,,,,,,,,0,2,2,0,1,,,,,,,,,,,,,,,,,,,,,,,,,,,,,,,,,,,,,,,,,
063041,001,2022-11-13_17h33.24.414,Info_measure_main_exp,2022.2.2,Win32,60.85316132,,,,,,,,,,,,,,,,,,masks/mask_005.jpg,,,,,,,,,,,,,,,,,,,,,,,,,,,,,,,,,,,,,,,,,,,,,,,,0,3,3,4,1,,,,,,,,,,,,,,,,,,,,,,,,,,,,,,,,,,,,,,,,,
063041,001,2022-11-13_17h33.24.414,Info_measure_main_exp,2022.2.2,Win32,60.85316132,,,,,,,,,,,,,,,,,,masks/mask_004.jpg,,,,,,,,,,,,,,,,,,,,,,,,,,,,,,,,,,,,,,,,,,,,,,,,0,4,4,3,1,,,,,,,,,,,,,,,,,,,,,,,,,,,,,,,,,,,,,,,,,
063041,001,2022-11-13_17h33.24.414,Info_measure_main_exp,2022.2.2,Win32,60.85316132,,,,,,,,,,,,,,,,,,,,,,,,,,,,,,7,1.2229,1,,,,,,,,,,,,0,131,5,5,2298,2274,absent_patch/patch0002298.jpg,absent_patch/patch0002274.jpg,,,,,,,,,,,,,,,,,,,,0.018518519,0.048148148,1,0,0,response1disk,20,0.003703704,-0.001851852,1,0,0,center_square,0,19,19,1,1,,,,,,,,,,,,,,,,,,,,,,,
063041,001,2022-11-13_17h33.24.414,Info_measure_main_exp,2022.2.2,Win32,60.85316132,,,,,,,,,,,,,,,,,,masks/mask_001.jpg,,,,,,,,,,,,,,,,,,,,,,,,,,,,,,,,,,,,,,,,,,,0,0,0,0,1,,,,,,,,,,,,,,,,,,,,,,,,,,,,,,,,,,,,,,,,,,,,,,
063041,001,2022-11-13_17h33.24.414,Info_measure_main_exp,2022.2.2,Win32,60.85316132,,,,,,,,,,,,,,,,,,masks/mask_002.jpg,,,,,,,,,,,,,,,,,,,,,,,,,,,,,,,,,,,,,,,,,,,0,1,1,1,1,,,,,,,,,,,,,,,,,,,,,,,,,,,,,,,,,,,,,,,,,,,,,,
063041,001,2022-11-13_17h33.24.414,Info_measure_main_exp,2022.2.2,Win32,60.85316132,,,,,,,,,,,,,,,,,,masks/mask_005.jpg,,,,,,,,,,,,,,,,,,,,,,,,,,,,,,,,,,,,,,,,,,,0,2,2,4,1,,,,,,,,,,,,,,,,,,,,,,,,,,,,,,,,,,,,,,,,,,,,,,
063041,001,2022-11-13_17h33.24.414,Info_measure_main_exp,2022.2.2,Win32,60.85316132,,,,,,,,,,,,,,,,,,masks/mask_004.jpg,,,,,,,,,,,,,,,,,,,,,,,,,,,,,,,,,,,,,,,,,,,0,3,3,3,1,,,,,,,,,,,,,,,,,,,,,,,,,,,,,,,,,,,,,,,,,,,,,,
063041,001,2022-11-13_17h33.24.414,Info_measure_main_exp,2022.2.2,Win32,60.85316132,,,,,,,,,,,,,,,,,,masks/mask_003.jpg,,,,,,,,,,,,,,,,,,,,,,,,,,,,,,,,,,,,,,,,,,,0,4,4,2,1,,,,,,,,,,,,,,,,,,,,,,,,,,,,,,,,,,,,,,,,,,,,,,
063041,001,2022-11-13_17h33.24.414,Info_measure_main_exp,2022.2.2,Win32,60.85316132,,,,,,,,,,,,,,,,,,masks/mask_005.jpg,,,,,,,,,,,,,,,,,,,,,,,,,,,,,,,,,,,,,,,,,,,,,,,,0,0,0,4,1,,,,,,,,,,,,,,,,,,,,,,,,,,,,,,,,,,,,,,,,,
063041,001,2022-11-13_17h33.24.414,Info_measure_main_exp,2022.2.2,Win32,60.85316132,,,,,,,,,,,,,,,,,,masks/mask_001.jpg,,,,,,,,,,,,,,,,,,,,,,,,,,,,,,,,,,,,,,,,,,,,,,,,0,1,1,0,1,,,,,,,,,,,,,,,,,,,,,,,,,,,,,,,,,,,,,,,,,
063041,001,2022-11-13_17h33.24.414,Info_measure_main_exp,2022.2.2,Win32,60.85316132,,,,,,,,,,,,,,,,,,masks/mask_004.jpg,,,,,,,,,,,,,,,,,,,,,,,,,,,,,,,,,,,,,,,,,,,,,,,,0,2,2,3,1,,,,,,,,,,,,,,,,,,,,,,,,,,,,,,,,,,,,,,,,,
063041,001,2022-11-13_17h33.24.414,Info_measure_main_exp,2022.2.2,Win32,60.85316132,,,,,,,,,,,,,,,,,,masks/mask_003.jpg,,,,,,,,,,,,,,,,,,,,,,,,,,,,,,,,,,,,,,,,,,,,,,,,0,3,3,2,1,,,,,,,,,,,,,,,,,,,,,,,,,,,,,,,,,,,,,,,,,
063041,001,2022-11-13_17h33.24.414,Info_measure_main_exp,2022.2.2,Win32,60.85316132,,,,,,,,,,,,,,,,,,masks/mask_002.jpg,,,,,,,,,,,,,,,,,,,,,,,,,,,,,,,,,,,,,,,,,,,,,,,,0,4,4,1,1,,,,,,,,,,,,,,,,,,,,,,,,,,,,,,,,,,,,,,,,,
063041,001,2022-11-13_17h33.24.414,Info_measure_main_exp,2022.2.2,Win32,60.85316132,,,,,,,,,,,,,,,,,,,,,,,,,,,,,,7,1.3737,1,,,,,,,,,,,,0,131,5,5,2190,2166,absent_patch/patch0002190.jpg,absent_patch/patch0002166.jpg,,,,,,,,,,,,,,,,,,,,0.013888889,0.046296296,1,0,0,response1disk,21,-0.002777778,-0.007407407,1,0,0,center_square,0,20,20,50,1,,,,,,,,,,,,,,,,,,,,,,,
063041,001,2022-11-13_17h33.24.414,Info_measure_main_exp,2022.2.2,Win32,60.85316132,,,,,,,,,,,,,,,,,,masks/mask_003.jpg,,,,,,,,,,,,,,,,,,,,,,,,,,,,,,,,,,,,,,,,,,,0,0,0,2,1,,,,,,,,,,,,,,,,,,,,,,,,,,,,,,,,,,,,,,,,,,,,,,
063041,001,2022-11-13_17h33.24.414,Info_measure_main_exp,2022.2.2,Win32,60.85316132,,,,,,,,,,,,,,,,,,masks/mask_002.jpg,,,,,,,,,,,,,,,,,,,,,,,,,,,,,,,,,,,,,,,,,,,0,1,1,1,1,,,,,,,,,,,,,,,,,,,,,,,,,,,,,,,,,,,,,,,,,,,,,,
063041,001,2022-11-13_17h33.24.414,Info_measure_main_exp,2022.2.2,Win32,60.85316132,,,,,,,,,,,,,,,,,,masks/mask_005.jpg,,,,,,,,,,,,,,,,,,,,,,,,,,,,,,,,,,,,,,,,,,,0,2,2,4,1,,,,,,,,,,,,,,,,,,,,,,,,,,,,,,,,,,,,,,,,,,,,,,
063041,001,2022-11-13_17h33.24.414,Info_measure_main_exp,2022.2.2,Win32,60.85316132,,,,,,,,,,,,,,,,,,masks/mask_001.jpg,,,,,,,,,,,,,,,,,,,,,,,,,,,,,,,,,,,,,,,,,,,0,3,3,0,1,,,,,,,,,,,,,,,,,,,,,,,,,,,,,,,,,,,,,,,,,,,,,,
063041,001,2022-11-13_17h33.24.414,Info_measure_main_exp,2022.2.2,Win32,60.85316132,,,,,,,,,,,,,,,,,,masks/mask_004.jpg,,,,,,,,,,,,,,,,,,,,,,,,,,,,,,,,,,,,,,,,,,,0,4,4,3,1,,,,,,,,,,,,,,,,,,,,,,,,,,,,,,,,,,,,,,,,,,,,,,
063041,001,2022-11-13_17h33.24.414,Info_measure_main_exp,2022.2.2,Win32,60.85316132,,,,,,,,,,,,,,,,,,masks/mask_005.jpg,,,,,,,,,,,,,,,,,,,,,,,,,,,,,,,,,,,,,,,,,,,,,,,,0,0,0,4,1,,,,,,,,,,,,,,,,,,,,,,,,,,,,,,,,,,,,,,,,,
063041,001,2022-11-13_17h33.24.414,Info_measure_main_exp,2022.2.2,Win32,60.85316132,,,,,,,,,,,,,,,,,,masks/mask_003.jpg,,,,,,,,,,,,,,,,,,,,,,,,,,,,,,,,,,,,,,,,,,,,,,,,0,1,1,2,1,,,,,,,,,,,,,,,,,,,,,,,,,,,,,,,,,,,,,,,,,
063041,001,2022-11-13_17h33.24.414,Info_measure_main_exp,2022.2.2,Win32,60.85316132,,,,,,,,,,,,,,,,,,masks/mask_004.jpg,,,,,,,,,,,,,,,,,,,,,,,,,,,,,,,,,,,,,,,,,,,,,,,,0,2,2,3,1,,,,,,,,,,,,,,,,,,,,,,,,,,,,,,,,,,,,,,,,,
063041,001,2022-11-13_17h33.24.414,Info_measure_main_exp,2022.2.2,Win32,60.85316132,,,,,,,,,,,,,,,,,,masks/mask_002.jpg,,,,,,,,,,,,,,,,,,,,,,,,,,,,,,,,,,,,,,,,,,,,,,,,0,3,3,1,1,,,,,,,,,,,,,,,,,,,,,,,,,,,,,,,,,,,,,,,,,
063041,001,2022-11-13_17h33.24.414,Info_measure_main_exp,2022.2.2,Win32,60.85316132,,,,,,,,,,,,,,,,,,masks/mask_001.jpg,,,,,,,,,,,,,,,,,,,,,,,,,,,,,,,,,,,,,,,,,,,,,,,,0,4,4,0,1,,,,,,,,,,,,,,,,,,,,,,,,,,,,,,,,,,,,,,,,,
063041,001,2022-11-13_17h33.24.414,Info_measure_main_exp,2022.2.2,Win32,60.85316132,,,,,,,,,,,,,,,,,,,,,,,,,,,,,,7,0.8006,1,,,,,,,,,,,,0,131,5,5,1986,1950,absent_patch/patch0001986.jpg,absent_patch/patch0001950.jpg,,,,,,,,,,,,,,,,,,,,0.007407407,0.039814815,1,0,0,response1disk,22,-0.001851852,-0.006481481,1,0,0,center_square,0,21,21,15,1,,,,,,,,,,,,,,,,,,,,,,,
063041,001,2022-11-13_17h33.24.414,Info_measure_main_exp,2022.2.2,Win32,60.85316132,,,,,,,,,,,,,,,,,,masks/mask_001.jpg,,,,,,,,,,,,,,,,,,,,,,,,,,,,,,,,,,,,,,,,,,,0,0,0,0,1,,,,,,,,,,,,,,,,,,,,,,,,,,,,,,,,,,,,,,,,,,,,,,
063041,001,2022-11-13_17h33.24.414,Info_measure_main_exp,2022.2.2,Win32,60.85316132,,,,,,,,,,,,,,,,,,masks/mask_004.jpg,,,,,,,,,,,,,,,,,,,,,,,,,,,,,,,,,,,,,,,,,,,0,1,1,3,1,,,,,,,,,,,,,,,,,,,,,,,,,,,,,,,,,,,,,,,,,,,,,,
063041,001,2022-11-13_17h33.24.414,Info_measure_main_exp,2022.2.2,Win32,60.85316132,,,,,,,,,,,,,,,,,,masks/mask_005.jpg,,,,,,,,,,,,,,,,,,,,,,,,,,,,,,,,,,,,,,,,,,,0,2,2,4,1,,,,,,,,,,,,,,,,,,,,,,,,,,,,,,,,,,,,,,,,,,,,,,
063041,001,2022-11-13_17h33.24.414,Info_measure_main_exp,2022.2.2,Win32,60.85316132,,,,,,,,,,,,,,,,,,masks/mask_003.jpg,,,,,,,,,,,,,,,,,,,,,,,,,,,,,,,,,,,,,,,,,,,0,3,3,2,1,,,,,,,,,,,,,,,,,,,,,,,,,,,,,,,,,,,,,,,,,,,,,,
063041,001,2022-11-13_17h33.24.414,Info_measure_main_exp,2022.2.2,Win32,60.85316132,,,,,,,,,,,,,,,,,,masks/mask_002.jpg,,,,,,,,,,,,,,,,,,,,,,,,,,,,,,,,,,,,,,,,,,,0,4,4,1,1,,,,,,,,,,,,,,,,,,,,,,,,,,,,,,,,,,,,,,,,,,,,,,
063041,001,2022-11-13_17h33.24.414,Info_measure_main_exp,2022.2.2,Win32,60.85316132,,,,,,,,,,,,,,,,,,masks/mask_001.jpg,,,,,,,,,,,,,,,,,,,,,,,,,,,,,,,,,,,,,,,,,,,,,,,,0,0,0,0,1,,,,,,,,,,,,,,,,,,,,,,,,,,,,,,,,,,,,,,,,,
063041,001,2022-11-13_17h33.24.414,Info_measure_main_exp,2022.2.2,Win32,60.85316132,,,,,,,,,,,,,,,,,,masks/mask_002.jpg,,,,,,,,,,,,,,,,,,,,,,,,,,,,,,,,,,,,,,,,,,,,,,,,0,1,1,1,1,,,,,,,,,,,,,,,,,,,,,,,,,,,,,,,,,,,,,,,,,
063041,001,2022-11-13_17h33.24.414,Info_measure_main_exp,2022.2.2,Win32,60.85316132,,,,,,,,,,,,,,,,,,masks/mask_003.jpg,,,,,,,,,,,,,,,,,,,,,,,,,,,,,,,,,,,,,,,,,,,,,,,,0,2,2,2,1,,,,,,,,,,,,,,,,,,,,,,,,,,,,,,,,,,,,,,,,,
063041,001,2022-11-13_17h33.24.414,Info_measure_main_exp,2022.2.2,Win32,60.85316132,,,,,,,,,,,,,,,,,,masks/mask_004.jpg,,,,,,,,,,,,,,,,,,,,,,,,,,,,,,,,,,,,,,,,,,,,,,,,0,3,3,3,1,,,,,,,,,,,,,,,,,,,,,,,,,,,,,,,,,,,,,,,,,
063041,001,2022-11-13_17h33.24.414,Info_measure_main_exp,2022.2.2,Win32,60.85316132,,,,,,,,,,,,,,,,,,masks/mask_005.jpg,,,,,,,,,,,,,,,,,,,,,,,,,,,,,,,,,,,,,,,,,,,,,,,,0,4,4,4,1,,,,,,,,,,,,,,,,,,,,,,,,,,,,,,,,,,,,,,,,,
063041,001,2022-11-13_17h33.24.414,Info_measure_main_exp,2022.2.2,Win32,60.85316132,,,,,,,,,,,,,,,,,,,,,,,,,,,,,,3,3.4565,1,,,,,,,,,,,,0,131,5,5,2274,2238,absent_patch/patch0002274.jpg,absent_patch/patch0002238.jpg,,,,,,,,,,,,,,,,,,,,-0.017592593,-0.037037037,1,0,0,response5disk,23,0,0.000925926,1,0,0,center_square,0,22,22,91,1,,,,,,,,,,,,,,,,,,,,,,,
063041,001,2022-11-13_17h33.24.414,Info_measure_main_exp,2022.2.2,Win32,60.85316132,,,,,,,,,,,,,,,,,,masks/mask_004.jpg,,,,,,,,,,,,,,,,,,,,,,,,,,,,,,,,,,,,,,,,,,,0,0,0,3,1,,,,,,,,,,,,,,,,,,,,,,,,,,,,,,,,,,,,,,,,,,,,,,
063041,001,2022-11-13_17h33.24.414,Info_measure_main_exp,2022.2.2,Win32,60.85316132,,,,,,,,,,,,,,,,,,masks/mask_002.jpg,,,,,,,,,,,,,,,,,,,,,,,,,,,,,,,,,,,,,,,,,,,0,1,1,1,1,,,,,,,,,,,,,,,,,,,,,,,,,,,,,,,,,,,,,,,,,,,,,,
063041,001,2022-11-13_17h33.24.414,Info_measure_main_exp,2022.2.2,Win32,60.85316132,,,,,,,,,,,,,,,,,,masks/mask_005.jpg,,,,,,,,,,,,,,,,,,,,,,,,,,,,,,,,,,,,,,,,,,,0,2,2,4,1,,,,,,,,,,,,,,,,,,,,,,,,,,,,,,,,,,,,,,,,,,,,,,
063041,001,2022-11-13_17h33.24.414,Info_measure_main_exp,2022.2.2,Win32,60.85316132,,,,,,,,,,,,,,,,,,masks/mask_003.jpg,,,,,,,,,,,,,,,,,,,,,,,,,,,,,,,,,,,,,,,,,,,0,3,3,2,1,,,,,,,,,,,,,,,,,,,,,,,,,,,,,,,,,,,,,,,,,,,,,,
063041,001,2022-11-13_17h33.24.414,Info_measure_main_exp,2022.2.2,Win32,60.85316132,,,,,,,,,,,,,,,,,,masks/mask_001.jpg,,,,,,,,,,,,,,,,,,,,,,,,,,,,,,,,,,,,,,,,,,,0,4,4,0,1,,,,,,,,,,,,,,,,,,,,,,,,,,,,,,,,,,,,,,,,,,,,,,
063041,001,2022-11-13_17h33.24.414,Info_measure_main_exp,2022.2.2,Win32,60.85316132,,,,,,,,,,,,,,,,,,masks/mask_004.jpg,,,,,,,,,,,,,,,,,,,,,,,,,,,,,,,,,,,,,,,,,,,,,,,,0,0,0,3,1,,,,,,,,,,,,,,,,,,,,,,,,,,,,,,,,,,,,,,,,,
063041,001,2022-11-13_17h33.24.414,Info_measure_main_exp,2022.2.2,Win32,60.85316132,,,,,,,,,,,,,,,,,,masks/mask_001.jpg,,,,,,,,,,,,,,,,,,,,,,,,,,,,,,,,,,,,,,,,,,,,,,,,0,1,1,0,1,,,,,,,,,,,,,,,,,,,,,,,,,,,,,,,,,,,,,,,,,
063041,001,2022-11-13_17h33.24.414,Info_measure_main_exp,2022.2.2,Win32,60.85316132,,,,,,,,,,,,,,,,,,masks/mask_005.jpg,,,,,,,,,,,,,,,,,,,,,,,,,,,,,,,,,,,,,,,,,,,,,,,,0,2,2,4,1,,,,,,,,,,,,,,,,,,,,,,,,,,,,,,,,,,,,,,,,,
063041,001,2022-11-13_17h33.24.414,Info_measure_main_exp,2022.2.2,Win32,60.85316132,,,,,,,,,,,,,,,,,,masks/mask_003.jpg,,,,,,,,,,,,,,,,,,,,,,,,,,,,,,,,,,,,,,,,,,,,,,,,0,3,3,2,1,,,,,,,,,,,,,,,,,,,,,,,,,,,,,,,,,,,,,,,,,
063041,001,2022-11-13_17h33.24.414,Info_measure_main_exp,2022.2.2,Win32,60.85316132,,,,,,,,,,,,,,,,,,masks/mask_002.jpg,,,,,,,,,,,,,,,,,,,,,,,,,,,,,,,,,,,,,,,,,,,,,,,,0,4,4,1,1,,,,,,,,,,,,,,,,,,,,,,,,,,,,,,,,,,,,,,,,,
063041,001,2022-11-13_17h33.24.414,Info_measure_main_exp,2022.2.2,Win32,60.85316132,,,,,,,,,,,,,,,,,,,,,,,,,,,,,,3,2.8738,1,,,,,,,,,,,,0,131,5,5,2214,2082,absent_patch/patch0002214.jpg,absent_patch/patch0002082.jpg,,,,,,,,,,,,,,,,,,,,-0.012962963,-0.025925926,1,0,0,response5disk,24,-0.001851852,-0.001851852,1,0,0,center_square,0,23,23,103,1,,,,,,,,,,,,,,,,,,,,,,,
063041,001,2022-11-13_17h33.24.414,Info_measure_main_exp,2022.2.2,Win32,60.85316132,,,,,,,,,,,,,,,,,,masks/mask_001.jpg,,,,,,,,,,,,,,,,,,,,,,,,,,,,,,,,,,,,,,,,,,,0,0,0,0,1,,,,,,,,,,,,,,,,,,,,,,,,,,,,,,,,,,,,,,,,,,,,,,
063041,001,2022-11-13_17h33.24.414,Info_measure_main_exp,2022.2.2,Win32,60.85316132,,,,,,,,,,,,,,,,,,masks/mask_005.jpg,,,,,,,,,,,,,,,,,,,,,,,,,,,,,,,,,,,,,,,,,,,0,1,1,4,1,,,,,,,,,,,,,,,,,,,,,,,,,,,,,,,,,,,,,,,,,,,,,,
063041,001,2022-11-13_17h33.24.414,Info_measure_main_exp,2022.2.2,Win32,60.85316132,,,,,,,,,,,,,,,,,,masks/mask_002.jpg,,,,,,,,,,,,,,,,,,,,,,,,,,,,,,,,,,,,,,,,,,,0,2,2,1,1,,,,,,,,,,,,,,,,,,,,,,,,,,,,,,,,,,,,,,,,,,,,,,
063041,001,2022-11-13_17h33.24.414,Info_measure_main_exp,2022.2.2,Win32,60.85316132,,,,,,,,,,,,,,,,,,masks/mask_004.jpg,,,,,,,,,,,,,,,,,,,,,,,,,,,,,,,,,,,,,,,,,,,0,3,3,3,1,,,,,,,,,,,,,,,,,,,,,,,,,,,,,,,,,,,,,,,,,,,,,,
063041,001,2022-11-13_17h33.24.414,Info_measure_main_exp,2022.2.2,Win32,60.85316132,,,,,,,,,,,,,,,,,,masks/mask_003.jpg,,,,,,,,,,,,,,,,,,,,,,,,,,,,,,,,,,,,,,,,,,,0,4,4,2,1,,,,,,,,,,,,,,,,,,,,,,,,,,,,,,,,,,,,,,,,,,,,,,
063041,001,2022-11-13_17h33.24.414,Info_measure_main_exp,2022.2.2,Win32,60.85316132,,,,,,,,,,,,,,,,,,masks/mask_003.jpg,,,,,,,,,,,,,,,,,,,,,,,,,,,,,,,,,,,,,,,,,,,,,,,,0,0,0,2,1,,,,,,,,,,,,,,,,,,,,,,,,,,,,,,,,,,,,,,,,,
063041,001,2022-11-13_17h33.24.414,Info_measure_main_exp,2022.2.2,Win32,60.85316132,,,,,,,,,,,,,,,,,,masks/mask_005.jpg,,,,,,,,,,,,,,,,,,,,,,,,,,,,,,,,,,,,,,,,,,,,,,,,0,1,1,4,1,,,,,,,,,,,,,,,,,,,,,,,,,,,,,,,,,,,,,,,,,
063041,001,2022-11-13_17h33.24.414,Info_measure_main_exp,2022.2.2,Win32,60.85316132,,,,,,,,,,,,,,,,,,masks/mask_001.jpg,,,,,,,,,,,,,,,,,,,,,,,,,,,,,,,,,,,,,,,,,,,,,,,,0,2,2,0,1,,,,,,,,,,,,,,,,,,,,,,,,,,,,,,,,,,,,,,,,,
063041,001,2022-11-13_17h33.24.414,Info_measure_main_exp,2022.2.2,Win32,60.85316132,,,,,,,,,,,,,,,,,,masks/mask_004.jpg,,,,,,,,,,,,,,,,,,,,,,,,,,,,,,,,,,,,,,,,,,,,,,,,0,3,3,3,1,,,,,,,,,,,,,,,,,,,,,,,,,,,,,,,,,,,,,,,,,
063041,001,2022-11-13_17h33.24.414,Info_measure_main_exp,2022.2.2,Win32,60.85316132,,,,,,,,,,,,,,,,,,masks/mask_002.jpg,,,,,,,,,,,,,,,,,,,,,,,,,,,,,,,,,,,,,,,,,,,,,,,,0,4,4,1,1,,,,,,,,,,,,,,,,,,,,,,,,,,,,,,,,,,,,,,,,,
063041,001,2022-11-13_17h33.24.414,Info_measure_main_exp,2022.2.2,Win32,60.85316132,,,,,,,,,,,,,,,,,,,,,,,,,,,,,,7,0.9045,1,,,,,,,,,,,,0,131,5,5,2298,1986,absent_patch/patch0002298.jpg,absent_patch/patch0001986.jpg,,,,,,,,,,,,,,,,,,,,0.039814815,0.088888889,1,0,0,response1disk,25,0.006481481,0.001851852,1,0,0,center_square,0,24,24,32,1,,,,,,,,,,,,,,,,,,,,,,,
063041,001,2022-11-13_17h33.24.414,Info_measure_main_exp,2022.2.2,Win32,60.85316132,,,,,,,,,,,,,,,,,,masks/mask_003.jpg,,,,,,,,,,,,,,,,,,,,,,,,,,,,,,,,,,,,,,,,,,,0,0,0,2,1,,,,,,,,,,,,,,,,,,,,,,,,,,,,,,,,,,,,,,,,,,,,,,
063041,001,2022-11-13_17h33.24.414,Info_measure_main_exp,2022.2.2,Win32,60.85316132,,,,,,,,,,,,,,,,,,masks/mask_001.jpg,,,,,,,,,,,,,,,,,,,,,,,,,,,,,,,,,,,,,,,,,,,0,1,1,0,1,,,,,,,,,,,,,,,,,,,,,,,,,,,,,,,,,,,,,,,,,,,,,,
063041,001,2022-11-13_17h33.24.414,Info_measure_main_exp,2022.2.2,Win32,60.85316132,,,,,,,,,,,,,,,,,,masks/mask_002.jpg,,,,,,,,,,,,,,,,,,,,,,,,,,,,,,,,,,,,,,,,,,,0,2,2,1,1,,,,,,,,,,,,,,,,,,,,,,,,,,,,,,,,,,,,,,,,,,,,,,
063041,001,2022-11-13_17h33.24.414,Info_measure_main_exp,2022.2.2,Win32,60.85316132,,,,,,,,,,,,,,,,,,masks/mask_005.jpg,,,,,,,,,,,,,,,,,,,,,,,,,,,,,,,,,,,,,,,,,,,0,3,3,4,1,,,,,,,,,,,,,,,,,,,,,,,,,,,,,,,,,,,,,,,,,,,,,,
063041,001,2022-11-13_17h33.24.414,Info_measure_main_exp,2022.2.2,Win32,60.85316132,,,,,,,,,,,,,,,,,,masks/mask_004.jpg,,,,,,,,,,,,,,,,,,,,,,,,,,,,,,,,,,,,,,,,,,,0,4,4,3,1,,,,,,,,,,,,,,,,,,,,,,,,,,,,,,,,,,,,,,,,,,,,,,
063041,001,2022-11-13_17h33.24.414,Info_measure_main_exp,2022.2.2,Win32,60.85316132,,,,,,,,,,,,,,,,,,masks/mask_003.jpg,,,,,,,,,,,,,,,,,,,,,,,,,,,,,,,,,,,,,,,,,,,,,,,,0,0,0,2,1,,,,,,,,,,,,,,,,,,,,,,,,,,,,,,,,,,,,,,,,,
063041,001,2022-11-13_17h33.24.414,Info_measure_main_exp,2022.2.2,Win32,60.85316132,,,,,,,,,,,,,,,,,,masks/mask_001.jpg,,,,,,,,,,,,,,,,,,,,,,,,,,,,,,,,,,,,,,,,,,,,,,,,0,1,1,0,1,,,,,,,,,,,,,,,,,,,,,,,,,,,,,,,,,,,,,,,,,
063041,001,2022-11-13_17h33.24.414,Info_measure_main_exp,2022.2.2,Win32,60.85316132,,,,,,,,,,,,,,,,,,masks/mask_004.jpg,,,,,,,,,,,,,,,,,,,,,,,,,,,,,,,,,,,,,,,,,,,,,,,,0,2,2,3,1,,,,,,,,,,,,,,,,,,,,,,,,,,,,,,,,,,,,,,,,,
063041,001,2022-11-13_17h33.24.414,Info_measure_main_exp,2022.2.2,Win32,60.85316132,,,,,,,,,,,,,,,,,,masks/mask_002.jpg,,,,,,,,,,,,,,,,,,,,,,,,,,,,,,,,,,,,,,,,,,,,,,,,0,3,3,1,1,,,,,,,,,,,,,,,,,,,,,,,,,,,,,,,,,,,,,,,,,
063041,001,2022-11-13_17h33.24.414,Info_measure_main_exp,2022.2.2,Win32,60.85316132,,,,,,,,,,,,,,,,,,masks/mask_005.jpg,,,,,,,,,,,,,,,,,,,,,,,,,,,,,,,,,,,,,,,,,,,,,,,,0,4,4,4,1,,,,,,,,,,,,,,,,,,,,,,,,,,,,,,,,,,,,,,,,,
063041,001,2022-11-13_17h33.24.414,Info_measure_main_exp,2022.2.2,Win32,60.85316132,,,,,,,,,,,,,,,,,,,,,,,,,,,,,,6,2.0837,1,,,,,,,,,,,,0,131,5,5,2190,2178,absent_patch/patch0002190.jpg,absent_patch/patch0002178.jpg,,,,,,,,,,,,,,,,,,,,0.025,0.009259259,1,0,0,response1disk,26,0.002777778,0.000925926,1,0,0,center_square,0,25,25,14,1,,,,,,,,,,,,,,,,,,,,,,,
063041,001,2022-11-13_17h33.24.414,Info_measure_main_exp,2022.2.2,Win32,60.85316132,,,,,,,,,,,,,,,,,,masks/mask_001.jpg,,,,,,,,,,,,,,,,,,,,,,,,,,,,,,,,,,,,,,,,,,,0,0,0,0,1,,,,,,,,,,,,,,,,,,,,,,,,,,,,,,,,,,,,,,,,,,,,,,
063041,001,2022-11-13_17h33.24.414,Info_measure_main_exp,2022.2.2,Win32,60.85316132,,,,,,,,,,,,,,,,,,masks/mask_005.jpg,,,,,,,,,,,,,,,,,,,,,,,,,,,,,,,,,,,,,,,,,,,0,1,1,4,1,,,,,,,,,,,,,,,,,,,,,,,,,,,,,,,,,,,,,,,,,,,,,,
063041,001,2022-11-13_17h33.24.414,Info_measure_main_exp,2022.2.2,Win32,60.85316132,,,,,,,,,,,,,,,,,,masks/mask_002.jpg,,,,,,,,,,,,,,,,,,,,,,,,,,,,,,,,,,,,,,,,,,,0,2,2,1,1,,,,,,,,,,,,,,,,,,,,,,,,,,,,,,,,,,,,,,,,,,,,,,
063041,001,2022-11-13_17h33.24.414,Info_measure_main_exp,2022.2.2,Win32,60.85316132,,,,,,,,,,,,,,,,,,masks/mask_003.jpg,,,,,,,,,,,,,,,,,,,,,,,,,,,,,,,,,,,,,,,,,,,0,3,3,2,1,,,,,,,,,,,,,,,,,,,,,,,,,,,,,,,,,,,,,,,,,,,,,,
063041,001,2022-11-13_17h33.24.414,Info_measure_main_exp,2022.2.2,Win32,60.85316132,,,,,,,,,,,,,,,,,,masks/mask_004.jpg,,,,,,,,,,,,,,,,,,,,,,,,,,,,,,,,,,,,,,,,,,,0,4,4,3,1,,,,,,,,,,,,,,,,,,,,,,,,,,,,,,,,,,,,,,,,,,,,,,
063041,001,2022-11-13_17h33.24.414,Info_measure_main_exp,2022.2.2,Win32,60.85316132,,,,,,,,,,,,,,,,,,masks/mask_002.jpg,,,,,,,,,,,,,,,,,,,,,,,,,,,,,,,,,,,,,,,,,,,,,,,,0,0,0,1,1,,,,,,,,,,,,,,,,,,,,,,,,,,,,,,,,,,,,,,,,,
063041,001,2022-11-13_17h33.24.414,Info_measure_main_exp,2022.2.2,Win32,60.85316132,,,,,,,,,,,,,,,,,,masks/mask_004.jpg,,,,,,,,,,,,,,,,,,,,,,,,,,,,,,,,,,,,,,,,,,,,,,,,0,1,1,3,1,,,,,,,,,,,,,,,,,,,,,,,,,,,,,,,,,,,,,,,,,
063041,001,2022-11-13_17h33.24.414,Info_measure_main_exp,2022.2.2,Win32,60.85316132,,,,,,,,,,,,,,,,,,masks/mask_003.jpg,,,,,,,,,,,,,,,,,,,,,,,,,,,,,,,,,,,,,,,,,,,,,,,,0,2,2,2,1,,,,,,,,,,,,,,,,,,,,,,,,,,,,,,,,,,,,,,,,,
063041,001,2022-11-13_17h33.24.414,Info_measure_main_exp,2022.2.2,Win32,60.85316132,,,,,,,,,,,,,,,,,,masks/mask_005.jpg,,,,,,,,,,,,,,,,,,,,,,,,,,,,,,,,,,,,,,,,,,,,,,,,0,3,3,4,1,,,,,,,,,,,,,,,,,,,,,,,,,,,,,,,,,,,,,,,,,
063041,001,2022-11-13_17h33.24.414,Info_measure_main_exp,2022.2.2,Win32,60.85316132,,,,,,,,,,,,,,,,,,masks/mask_001.jpg,,,,,,,,,,,,,,,,,,,,,,,,,,,,,,,,,,,,,,,,,,,,,,,,0,4,4,0,1,,,,,,,,,,,,,,,,,,,,,,,,,,,,,,,,,,,,,,,,,
063041,001,2022-11-13_17h33.24.414,Info_measure_main_exp,2022.2.2,Win32,60.85316132,,,,,,,,,,,,,,,,,,,,,,,,,,,,,,4,2.7564,1,,,,,,,,,,,,0,131,5,5,1950,2142,absent_patch/patch0001950.jpg,absent_patch/patch0002142.jpg,,,,,,,,,,,,,,,,,,,,0.003703704,-0.013888889,1,0,0,response3disk,27,-0.001851852,0.002777778,1,0,0,center_square,0,26,26,83,1,,,,,,,,,,,,,,,,,,,,,,,
063041,001,2022-11-13_17h33.24.414,Info_measure_main_exp,2022.2.2,Win32,60.85316132,,,,,,,,,,,,,,,,,,masks/mask_004.jpg,,,,,,,,,,,,,,,,,,,,,,,,,,,,,,,,,,,,,,,,,,,0,0,0,3,1,,,,,,,,,,,,,,,,,,,,,,,,,,,,,,,,,,,,,,,,,,,,,,
063041,001,2022-11-13_17h33.24.414,Info_measure_main_exp,2022.2.2,Win32,60.85316132,,,,,,,,,,,,,,,,,,masks/mask_005.jpg,,,,,,,,,,,,,,,,,,,,,,,,,,,,,,,,,,,,,,,,,,,0,1,1,4,1,,,,,,,,,,,,,,,,,,,,,,,,,,,,,,,,,,,,,,,,,,,,,,
063041,001,2022-11-13_17h33.24.414,Info_measure_main_exp,2022.2.2,Win32,60.85316132,,,,,,,,,,,,,,,,,,masks/mask_001.jpg,,,,,,,,,,,,,,,,,,,,,,,,,,,,,,,,,,,,,,,,,,,0,2,2,0,1,,,,,,,,,,,,,,,,,,,,,,,,,,,,,,,,,,,,,,,,,,,,,,
063041,001,2022-11-13_17h33.24.414,Info_measure_main_exp,2022.2.2,Win32,60.85316132,,,,,,,,,,,,,,,,,,masks/mask_003.jpg,,,,,,,,,,,,,,,,,,,,,,,,,,,,,,,,,,,,,,,,,,,0,3,3,2,1,,,,,,,,,,,,,,,,,,,,,,,,,,,,,,,,,,,,,,,,,,,,,,
063041,001,2022-11-13_17h33.24.414,Info_measure_main_exp,2022.2.2,Win32,60.85316132,,,,,,,,,,,,,,,,,,masks/mask_002.jpg,,,,,,,,,,,,,,,,,,,,,,,,,,,,,,,,,,,,,,,,,,,0,4,4,1,1,,,,,,,,,,,,,,,,,,,,,,,,,,,,,,,,,,,,,,,,,,,,,,
063041,001,2022-11-13_17h33.24.414,Info_measure_main_exp,2022.2.2,Win32,60.85316132,,,,,,,,,,,,,,,,,,masks/mask_001.jpg,,,,,,,,,,,,,,,,,,,,,,,,,,,,,,,,,,,,,,,,,,,,,,,,0,0,0,0,1,,,,,,,,,,,,,,,,,,,,,,,,,,,,,,,,,,,,,,,,,
063041,001,2022-11-13_17h33.24.414,Info_measure_main_exp,2022.2.2,Win32,60.85316132,,,,,,,,,,,,,,,,,,masks/mask_005.jpg,,,,,,,,,,,,,,,,,,,,,,,,,,,,,,,,,,,,,,,,,,,,,,,,0,1,1,4,1,,,,,,,,,,,,,,,,,,,,,,,,,,,,,,,,,,,,,,,,,
063041,001,2022-11-13_17h33.24.414,Info_measure_main_exp,2022.2.2,Win32,60.85316132,,,,,,,,,,,,,,,,,,masks/mask_002.jpg,,,,,,,,,,,,,,,,,,,,,,,,,,,,,,,,,,,,,,,,,,,,,,,,0,2,2,1,1,,,,,,,,,,,,,,,,,,,,,,,,,,,,,,,,,,,,,,,,,
063041,001,2022-11-13_17h33.24.414,Info_measure_main_exp,2022.2.2,Win32,60.85316132,,,,,,,,,,,,,,,,,,masks/mask_003.jpg,,,,,,,,,,,,,,,,,,,,,,,,,,,,,,,,,,,,,,,,,,,,,,,,0,3,3,2,1,,,,,,,,,,,,,,,,,,,,,,,,,,,,,,,,,,,,,,,,,
063041,001,2022-11-13_17h33.24.414,Info_measure_main_exp,2022.2.2,Win32,60.85316132,,,,,,,,,,,,,,,,,,masks/mask_004.jpg,,,,,,,,,,,,,,,,,,,,,,,,,,,,,,,,,,,,,,,,,,,,,,,,0,4,4,3,1,,,,,,,,,,,,,,,,,,,,,,,,,,,,,,,,,,,,,,,,,
063041,001,2022-11-13_17h33.24.414,Info_measure_main_exp,2022.2.2,Win32,60.85316132,,,,,,,,,,,,,,,,,,,,,,,,,,,,,,7,0.856,1,,,,,,,,,,,,0,131,5,5,1950,2238,absent_patch/patch0001950.jpg,absent_patch/patch0002238.jpg,,,,,,,,,,,,,,,,,,,,0.013888889,0.057407407,1,0,0,response1disk,28,-0.008333333,-0.001851852,1,0,0,center_square,0,27,27,8,1,,,,,,,,,,,,,,,,,,,,,,,
063041,001,2022-11-13_17h33.24.414,Info_measure_main_exp,2022.2.2,Win32,60.85316132,,,,,,,,,,,,,,,,,,masks/mask_002.jpg,,,,,,,,,,,,,,,,,,,,,,,,,,,,,,,,,,,,,,,,,,,0,0,0,1,1,,,,,,,,,,,,,,,,,,,,,,,,,,,,,,,,,,,,,,,,,,,,,,
063041,001,2022-11-13_17h33.24.414,Info_measure_main_exp,2022.2.2,Win32,60.85316132,,,,,,,,,,,,,,,,,,masks/mask_003.jpg,,,,,,,,,,,,,,,,,,,,,,,,,,,,,,,,,,,,,,,,,,,0,1,1,2,1,,,,,,,,,,,,,,,,,,,,,,,,,,,,,,,,,,,,,,,,,,,,,,
063041,001,2022-11-13_17h33.24.414,Info_measure_main_exp,2022.2.2,Win32,60.85316132,,,,,,,,,,,,,,,,,,masks/mask_005.jpg,,,,,,,,,,,,,,,,,,,,,,,,,,,,,,,,,,,,,,,,,,,0,2,2,4,1,,,,,,,,,,,,,,,,,,,,,,,,,,,,,,,,,,,,,,,,,,,,,,
063041,001,2022-11-13_17h33.24.414,Info_measure_main_exp,2022.2.2,Win32,60.85316132,,,,,,,,,,,,,,,,,,masks/mask_001.jpg,,,,,,,,,,,,,,,,,,,,,,,,,,,,,,,,,,,,,,,,,,,0,3,3,0,1,,,,,,,,,,,,,,,,,,,,,,,,,,,,,,,,,,,,,,,,,,,,,,
063041,001,2022-11-13_17h33.24.414,Info_measure_main_exp,2022.2.2,Win32,60.85316132,,,,,,,,,,,,,,,,,,masks/mask_004.jpg,,,,,,,,,,,,,,,,,,,,,,,,,,,,,,,,,,,,,,,,,,,0,4,4,3,1,,,,,,,,,,,,,,,,,,,,,,,,,,,,,,,,,,,,,,,,,,,,,,
063041,001,2022-11-13_17h33.24.414,Info_measure_main_exp,2022.2.2,Win32,60.85316132,,,,,,,,,,,,,,,,,,masks/mask_001.jpg,,,,,,,,,,,,,,,,,,,,,,,,,,,,,,,,,,,,,,,,,,,,,,,,0,0,0,0,1,,,,,,,,,,,,,,,,,,,,,,,,,,,,,,,,,,,,,,,,,
063041,001,2022-11-13_17h33.24.414,Info_measure_main_exp,2022.2.2,Win32,60.85316132,,,,,,,,,,,,,,,,,,masks/mask_005.jpg,,,,,,,,,,,,,,,,,,,,,,,,,,,,,,,,,,,,,,,,,,,,,,,,0,1,1,4,1,,,,,,,,,,,,,,,,,,,,,,,,,,,,,,,,,,,,,,,,,
063041,001,2022-11-13_17h33.24.414,Info_measure_main_exp,2022.2.2,Win32,60.85316132,,,,,,,,,,,,,,,,,,masks/mask_003.jpg,,,,,,,,,,,,,,,,,,,,,,,,,,,,,,,,,,,,,,,,,,,,,,,,0,2,2,2,1,,,,,,,,,,,,,,,,,,,,,,,,,,,,,,,,,,,,,,,,,
063041,001,2022-11-13_17h33.24.414,Info_measure_main_exp,2022.2.2,Win32,60.85316132,,,,,,,,,,,,,,,,,,masks/mask_004.jpg,,,,,,,,,,,,,,,,,,,,,,,,,,,,,,,,,,,,,,,,,,,,,,,,0,3,3,3,1,,,,,,,,,,,,,,,,,,,,,,,,,,,,,,,,,,,,,,,,,
063041,001,2022-11-13_17h33.24.414,Info_measure_main_exp,2022.2.2,Win32,60.85316132,,,,,,,,,,,,,,,,,,masks/mask_002.jpg,,,,,,,,,,,,,,,,,,,,,,,,,,,,,,,,,,,,,,,,,,,,,,,,0,4,4,1,1,,,,,,,,,,,,,,,,,,,,,,,,,,,,,,,,,,,,,,,,,
063041,001,2022-11-13_17h33.24.414,Info_measure_main_exp,2022.2.2,Win32,60.85316132,,,,,,,,,,,,,,,,,,,,,,,,,,,,,,6,2.5471,1,,,,,,,,,,,,0,131,5,5,2250,1950,absent_patch/patch0002250.jpg,absent_patch/patch0001950.jpg,,,,,,,,,,,,,,,,,,,,0.046296296,0.012962963,1,0,0,response1disk,29,0.002777778,-0.000925926,1,0,0,center_square,0,28,28,16,1,,,,,,,,,,,,,,,,,,,,,,,
063041,001,2022-11-13_17h33.24.414,Info_measure_main_exp,2022.2.2,Win32,60.85316132,,,,,,,,,,,,,,,,,,masks/mask_005.jpg,,,,,,,,,,,,,,,,,,,,,,,,,,,,,,,,,,,,,,,,,,,0,0,0,4,1,,,,,,,,,,,,,,,,,,,,,,,,,,,,,,,,,,,,,,,,,,,,,,
063041,001,2022-11-13_17h33.24.414,Info_measure_main_exp,2022.2.2,Win32,60.85316132,,,,,,,,,,,,,,,,,,masks/mask_002.jpg,,,,,,,,,,,,,,,,,,,,,,,,,,,,,,,,,,,,,,,,,,,0,1,1,1,1,,,,,,,,,,,,,,,,,,,,,,,,,,,,,,,,,,,,,,,,,,,,,,
063041,001,2022-11-13_17h33.24.414,Info_measure_main_exp,2022.2.2,Win32,60.85316132,,,,,,,,,,,,,,,,,,masks/mask_001.jpg,,,,,,,,,,,,,,,,,,,,,,,,,,,,,,,,,,,,,,,,,,,0,2,2,0,1,,,,,,,,,,,,,,,,,,,,,,,,,,,,,,,,,,,,,,,,,,,,,,
063041,001,2022-11-13_17h33.24.414,Info_measure_main_exp,2022.2.2,Win32,60.85316132,,,,,,,,,,,,,,,,,,masks/mask_004.jpg,,,,,,,,,,,,,,,,,,,,,,,,,,,,,,,,,,,,,,,,,,,0,3,3,3,1,,,,,,,,,,,,,,,,,,,,,,,,,,,,,,,,,,,,,,,,,,,,,,
063041,001,2022-11-13_17h33.24.414,Info_measure_main_exp,2022.2.2,Win32,60.85316132,,,,,,,,,,,,,,,,,,masks/mask_003.jpg,,,,,,,,,,,,,,,,,,,,,,,,,,,,,,,,,,,,,,,,,,,0,4,4,2,1,,,,,,,,,,,,,,,,,,,,,,,,,,,,,,,,,,,,,,,,,,,,,,
063041,001,2022-11-13_17h33.24.414,Info_measure_main_exp,2022.2.2,Win32,60.85316132,,,,,,,,,,,,,,,,,,masks/mask_005.jpg,,,,,,,,,,,,,,,,,,,,,,,,,,,,,,,,,,,,,,,,,,,,,,,,0,0,0,4,1,,,,,,,,,,,,,,,,,,,,,,,,,,,,,,,,,,,,,,,,,
063041,001,2022-11-13_17h33.24.414,Info_measure_main_exp,2022.2.2,Win32,60.85316132,,,,,,,,,,,,,,,,,,masks/mask_002.jpg,,,,,,,,,,,,,,,,,,,,,,,,,,,,,,,,,,,,,,,,,,,,,,,,0,1,1,1,1,,,,,,,,,,,,,,,,,,,,,,,,,,,,,,,,,,,,,,,,,
063041,001,2022-11-13_17h33.24.414,Info_measure_main_exp,2022.2.2,Win32,60.85316132,,,,,,,,,,,,,,,,,,masks/mask_003.jpg,,,,,,,,,,,,,,,,,,,,,,,,,,,,,,,,,,,,,,,,,,,,,,,,0,2,2,2,1,,,,,,,,,,,,,,,,,,,,,,,,,,,,,,,,,,,,,,,,,
063041,001,2022-11-13_17h33.24.414,Info_measure_main_exp,2022.2.2,Win32,60.85316132,,,,,,,,,,,,,,,,,,masks/mask_001.jpg,,,,,,,,,,,,,,,,,,,,,,,,,,,,,,,,,,,,,,,,,,,,,,,,0,3,3,0,1,,,,,,,,,,,,,,,,,,,,,,,,,,,,,,,,,,,,,,,,,
063041,001,2022-11-13_17h33.24.414,Info_measure_main_exp,2022.2.2,Win32,60.85316132,,,,,,,,,,,,,,,,,,masks/mask_004.jpg,,,,,,,,,,,,,,,,,,,,,,,,,,,,,,,,,,,,,,,,,,,,,,,,0,4,4,3,1,,,,,,,,,,,,,,,,,,,,,,,,,,,,,,,,,,,,,,,,,
063041,001,2022-11-13_17h33.24.414,Info_measure_main_exp,2022.2.2,Win32,60.85316132,,,,,,,,,,,,,,,,,,,,,,,,,,,,,,7,0.7506,1,,,,,,,,,,,,0,131,5,5,2082,2238,absent_patch/patch0002082.jpg,absent_patch/patch0002238.jpg,,,,,,,,,,,,,,,,,,,,0.015740741,0.044444444,1,0,0,response1disk,30,0.005555556,0.008333333,1,0,0,center_square,0,29,29,22,1,,,,,,,,,,,,,,,,,,,,,,,
063041,001,2022-11-13_17h33.24.414,Info_measure_main_exp,2022.2.2,Win32,60.85316132,,,,,,,,,,,,,,,,,,masks/mask_005.jpg,,,,,,,,,,,,,,,,,,,,,,,,,,,,,,,,,,,,,,,,,,,0,0,0,4,1,,,,,,,,,,,,,,,,,,,,,,,,,,,,,,,,,,,,,,,,,,,,,,
063041,001,2022-11-13_17h33.24.414,Info_measure_main_exp,2022.2.2,Win32,60.85316132,,,,,,,,,,,,,,,,,,masks/mask_001.jpg,,,,,,,,,,,,,,,,,,,,,,,,,,,,,,,,,,,,,,,,,,,0,1,1,0,1,,,,,,,,,,,,,,,,,,,,,,,,,,,,,,,,,,,,,,,,,,,,,,
063041,001,2022-11-13_17h33.24.414,Info_measure_main_exp,2022.2.2,Win32,60.85316132,,,,,,,,,,,,,,,,,,masks/mask_003.jpg,,,,,,,,,,,,,,,,,,,,,,,,,,,,,,,,,,,,,,,,,,,0,2,2,2,1,,,,,,,,,,,,,,,,,,,,,,,,,,,,,,,,,,,,,,,,,,,,,,
063041,001,2022-11-13_17h33.24.414,Info_measure_main_exp,2022.2.2,Win32,60.85316132,,,,,,,,,,,,,,,,,,masks/mask_002.jpg,,,,,,,,,,,,,,,,,,,,,,,,,,,,,,,,,,,,,,,,,,,0,3,3,1,1,,,,,,,,,,,,,,,,,,,,,,,,,,,,,,,,,,,,,,,,,,,,,,
063041,001,2022-11-13_17h33.24.414,Info_measure_main_exp,2022.2.2,Win32,60.85316132,,,,,,,,,,,,,,,,,,masks/mask_004.jpg,,,,,,,,,,,,,,,,,,,,,,,,,,,,,,,,,,,,,,,,,,,0,4,4,3,1,,,,,,,,,,,,,,,,,,,,,,,,,,,,,,,,,,,,,,,,,,,,,,
063041,001,2022-11-13_17h33.24.414,Info_measure_main_exp,2022.2.2,Win32,60.85316132,,,,,,,,,,,,,,,,,,masks/mask_002.jpg,,,,,,,,,,,,,,,,,,,,,,,,,,,,,,,,,,,,,,,,,,,,,,,,0,0,0,1,1,,,,,,,,,,,,,,,,,,,,,,,,,,,,,,,,,,,,,,,,,
063041,001,2022-11-13_17h33.24.414,Info_measure_main_exp,2022.2.2,Win32,60.85316132,,,,,,,,,,,,,,,,,,masks/mask_001.jpg,,,,,,,,,,,,,,,,,,,,,,,,,,,,,,,,,,,,,,,,,,,,,,,,0,1,1,0,1,,,,,,,,,,,,,,,,,,,,,,,,,,,,,,,,,,,,,,,,,
063041,001,2022-11-13_17h33.24.414,Info_measure_main_exp,2022.2.2,Win32,60.85316132,,,,,,,,,,,,,,,,,,masks/mask_004.jpg,,,,,,,,,,,,,,,,,,,,,,,,,,,,,,,,,,,,,,,,,,,,,,,,0,2,2,3,1,,,,,,,,,,,,,,,,,,,,,,,,,,,,,,,,,,,,,,,,,
063041,001,2022-11-13_17h33.24.414,Info_measure_main_exp,2022.2.2,Win32,60.85316132,,,,,,,,,,,,,,,,,,masks/mask_005.jpg,,,,,,,,,,,,,,,,,,,,,,,,,,,,,,,,,,,,,,,,,,,,,,,,0,3,3,4,1,,,,,,,,,,,,,,,,,,,,,,,,,,,,,,,,,,,,,,,,,
063041,001,2022-11-13_17h33.24.414,Info_measure_main_exp,2022.2.2,Win32,60.85316132,,,,,,,,,,,,,,,,,,masks/mask_003.jpg,,,,,,,,,,,,,,,,,,,,,,,,,,,,,,,,,,,,,,,,,,,,,,,,0,4,4,2,1,,,,,,,,,,,,,,,,,,,,,,,,,,,,,,,,,,,,,,,,,
063041,001,2022-11-13_17h33.24.414,Info_measure_main_exp,2022.2.2,Win32,60.85316132,,,,,,,,,,,,,,,,,,,,,,,,,,,,,,7,2.324,1,,,,,,,,,,,,0,131,5,5,2238,2298,absent_patch/patch0002238.jpg,absent_patch/patch0002298.jpg,,,,,,,,,,,,,,,,,,,,0.025,0.059259259,1,0,0,response1disk,31,0,-0.006481481,1,0,0,center_square,0,30,30,51,1,,,,,,,,,,,,,,,,,,,,,,,
063041,001,2022-11-13_17h33.24.414,Info_measure_main_exp,2022.2.2,Win32,60.85316132,,,,,,,,,,,,,,,,,,masks/mask_002.jpg,,,,,,,,,,,,,,,,,,,,,,,,,,,,,,,,,,,,,,,,,,,0,0,0,1,1,,,,,,,,,,,,,,,,,,,,,,,,,,,,,,,,,,,,,,,,,,,,,,
063041,001,2022-11-13_17h33.24.414,Info_measure_main_exp,2022.2.2,Win32,60.85316132,,,,,,,,,,,,,,,,,,masks/mask_003.jpg,,,,,,,,,,,,,,,,,,,,,,,,,,,,,,,,,,,,,,,,,,,0,1,1,2,1,,,,,,,,,,,,,,,,,,,,,,,,,,,,,,,,,,,,,,,,,,,,,,
063041,001,2022-11-13_17h33.24.414,Info_measure_main_exp,2022.2.2,Win32,60.85316132,,,,,,,,,,,,,,,,,,masks/mask_001.jpg,,,,,,,,,,,,,,,,,,,,,,,,,,,,,,,,,,,,,,,,,,,0,2,2,0,1,,,,,,,,,,,,,,,,,,,,,,,,,,,,,,,,,,,,,,,,,,,,,,
063041,001,2022-11-13_17h33.24.414,Info_measure_main_exp,2022.2.2,Win32,60.85316132,,,,,,,,,,,,,,,,,,masks/mask_004.jpg,,,,,,,,,,,,,,,,,,,,,,,,,,,,,,,,,,,,,,,,,,,0,3,3,3,1,,,,,,,,,,,,,,,,,,,,,,,,,,,,,,,,,,,,,,,,,,,,,,
063041,001,2022-11-13_17h33.24.414,Info_measure_main_exp,2022.2.2,Win32,60.85316132,,,,,,,,,,,,,,,,,,masks/mask_005.jpg,,,,,,,,,,,,,,,,,,,,,,,,,,,,,,,,,,,,,,,,,,,0,4,4,4,1,,,,,,,,,,,,,,,,,,,,,,,,,,,,,,,,,,,,,,,,,,,,,,
063041,001,2022-11-13_17h33.24.414,Info_measure_main_exp,2022.2.2,Win32,60.85316132,,,,,,,,,,,,,,,,,,masks/mask_004.jpg,,,,,,,,,,,,,,,,,,,,,,,,,,,,,,,,,,,,,,,,,,,,,,,,0,0,0,3,1,,,,,,,,,,,,,,,,,,,,,,,,,,,,,,,,,,,,,,,,,
063041,001,2022-11-13_17h33.24.414,Info_measure_main_exp,2022.2.2,Win32,60.85316132,,,,,,,,,,,,,,,,,,masks/mask_002.jpg,,,,,,,,,,,,,,,,,,,,,,,,,,,,,,,,,,,,,,,,,,,,,,,,0,1,1,1,1,,,,,,,,,,,,,,,,,,,,,,,,,,,,,,,,,,,,,,,,,
063041,001,2022-11-13_17h33.24.414,Info_measure_main_exp,2022.2.2,Win32,60.85316132,,,,,,,,,,,,,,,,,,masks/mask_003.jpg,,,,,,,,,,,,,,,,,,,,,,,,,,,,,,,,,,,,,,,,,,,,,,,,0,2,2,2,1,,,,,,,,,,,,,,,,,,,,,,,,,,,,,,,,,,,,,,,,,
063041,001,2022-11-13_17h33.24.414,Info_measure_main_exp,2022.2.2,Win32,60.85316132,,,,,,,,,,,,,,,,,,masks/mask_005.jpg,,,,,,,,,,,,,,,,,,,,,,,,,,,,,,,,,,,,,,,,,,,,,,,,0,3,3,4,1,,,,,,,,,,,,,,,,,,,,,,,,,,,,,,,,,,,,,,,,,
063041,001,2022-11-13_17h33.24.414,Info_measure_main_exp,2022.2.2,Win32,60.85316132,,,,,,,,,,,,,,,,,,masks/mask_001.jpg,,,,,,,,,,,,,,,,,,,,,,,,,,,,,,,,,,,,,,,,,,,,,,,,0,4,4,0,1,,,,,,,,,,,,,,,,,,,,,,,,,,,,,,,,,,,,,,,,,
063041,001,2022-11-13_17h33.24.414,Info_measure_main_exp,2022.2.2,Win32,60.85316132,,,,,,,,,,,,,,,,,,,,,,,,,,,,,,0,0.7179,1,,,,,,,,,,,,0,131,5,5,2154,2154,absent_patch/patch0002154.jpg,absent_patch/patch0002154.jpg,,,,,,,,,,,,,,,,,,,,-0.02037037,0.058333333,1,0,0,response7disk,32,0.001851852,0,1,0,0,center_square,0,31,31,89,1,,,,,,,,,,,,,,,,,,,,,,,
063041,001,2022-11-13_17h33.24.414,Info_measure_main_exp,2022.2.2,Win32,60.85316132,,,,,,,,,,,,,,,,,,masks/mask_004.jpg,,,,,,,,,,,,,,,,,,,,,,,,,,,,,,,,,,,,,,,,,,,0,0,0,3,1,,,,,,,,,,,,,,,,,,,,,,,,,,,,,,,,,,,,,,,,,,,,,,
063041,001,2022-11-13_17h33.24.414,Info_measure_main_exp,2022.2.2,Win32,60.85316132,,,,,,,,,,,,,,,,,,masks/mask_001.jpg,,,,,,,,,,,,,,,,,,,,,,,,,,,,,,,,,,,,,,,,,,,0,1,1,0,1,,,,,,,,,,,,,,,,,,,,,,,,,,,,,,,,,,,,,,,,,,,,,,
063041,001,2022-11-13_17h33.24.414,Info_measure_main_exp,2022.2.2,Win32,60.85316132,,,,,,,,,,,,,,,,,,masks/mask_003.jpg,,,,,,,,,,,,,,,,,,,,,,,,,,,,,,,,,,,,,,,,,,,0,2,2,2,1,,,,,,,,,,,,,,,,,,,,,,,,,,,,,,,,,,,,,,,,,,,,,,
063041,001,2022-11-13_17h33.24.414,Info_measure_main_exp,2022.2.2,Win32,60.85316132,,,,,,,,,,,,,,,,,,masks/mask_002.jpg,,,,,,,,,,,,,,,,,,,,,,,,,,,,,,,,,,,,,,,,,,,0,3,3,1,1,,,,,,,,,,,,,,,,,,,,,,,,,,,,,,,,,,,,,,,,,,,,,,
063041,001,2022-11-13_17h33.24.414,Info_measure_main_exp,2022.2.2,Win32,60.85316132,,,,,,,,,,,,,,,,,,masks/mask_005.jpg,,,,,,,,,,,,,,,,,,,,,,,,,,,,,,,,,,,,,,,,,,,0,4,4,4,1,,,,,,,,,,,,,,,,,,,,,,,,,,,,,,,,,,,,,,,,,,,,,,
063041,001,2022-11-13_17h33.24.414,Info_measure_main_exp,2022.2.2,Win32,60.85316132,,,,,,,,,,,,,,,,,,masks/mask_005.jpg,,,,,,,,,,,,,,,,,,,,,,,,,,,,,,,,,,,,,,,,,,,,,,,,0,0,0,4,1,,,,,,,,,,,,,,,,,,,,,,,,,,,,,,,,,,,,,,,,,
063041,001,2022-11-13_17h33.24.414,Info_measure_main_exp,2022.2.2,Win32,60.85316132,,,,,,,,,,,,,,,,,,masks/mask_003.jpg,,,,,,,,,,,,,,,,,,,,,,,,,,,,,,,,,,,,,,,,,,,,,,,,0,1,1,2,1,,,,,,,,,,,,,,,,,,,,,,,,,,,,,,,,,,,,,,,,,
063041,001,2022-11-13_17h33.24.414,Info_measure_main_exp,2022.2.2,Win32,60.85316132,,,,,,,,,,,,,,,,,,masks/mask_001.jpg,,,,,,,,,,,,,,,,,,,,,,,,,,,,,,,,,,,,,,,,,,,,,,,,0,2,2,0,1,,,,,,,,,,,,,,,,,,,,,,,,,,,,,,,,,,,,,,,,,
063041,001,2022-11-13_17h33.24.414,Info_measure_main_exp,2022.2.2,Win32,60.85316132,,,,,,,,,,,,,,,,,,masks/mask_002.jpg,,,,,,,,,,,,,,,,,,,,,,,,,,,,,,,,,,,,,,,,,,,,,,,,0,3,3,1,1,,,,,,,,,,,,,,,,,,,,,,,,,,,,,,,,,,,,,,,,,
063041,001,2022-11-13_17h33.24.414,Info_measure_main_exp,2022.2.2,Win32,60.85316132,,,,,,,,,,,,,,,,,,masks/mask_004.jpg,,,,,,,,,,,,,,,,,,,,,,,,,,,,,,,,,,,,,,,,,,,,,,,,0,4,4,3,1,,,,,,,,,,,,,,,,,,,,,,,,,,,,,,,,,,,,,,,,,
063041,001,2022-11-13_17h33.24.414,Info_measure_main_exp,2022.2.2,Win32,60.85316132,,,,,,,,,,,,,,,,,,,,,,,,,,,,,,0,0.5502,1,,,,,,,,,,,,0,131,5,5,1986,1986,absent_patch/patch0001986.jpg,absent_patch/patch0001986.jpg,,,,,,,,,,,,,,,,,,,,-0.024074074,0.066666667,1,0,0,response7disk,33,-0.001851852,-0.006481481,1,0,0,center_square,0,32,32,19,1,,,,,,,,,,,,,,,,,,,,,,,
063041,001,2022-11-13_17h33.24.414,Info_measure_main_exp,2022.2.2,Win32,60.85316132,,,,,,,,,,,,,,,,,,masks/mask_004.jpg,,,,,,,,,,,,,,,,,,,,,,,,,,,,,,,,,,,,,,,,,,,0,0,0,3,1,,,,,,,,,,,,,,,,,,,,,,,,,,,,,,,,,,,,,,,,,,,,,,
063041,001,2022-11-13_17h33.24.414,Info_measure_main_exp,2022.2.2,Win32,60.85316132,,,,,,,,,,,,,,,,,,masks/mask_003.jpg,,,,,,,,,,,,,,,,,,,,,,,,,,,,,,,,,,,,,,,,,,,0,1,1,2,1,,,,,,,,,,,,,,,,,,,,,,,,,,,,,,,,,,,,,,,,,,,,,,
063041,001,2022-11-13_17h33.24.414,Info_measure_main_exp,2022.2.2,Win32,60.85316132,,,,,,,,,,,,,,,,,,masks/mask_001.jpg,,,,,,,,,,,,,,,,,,,,,,,,,,,,,,,,,,,,,,,,,,,0,2,2,0,1,,,,,,,,,,,,,,,,,,,,,,,,,,,,,,,,,,,,,,,,,,,,,,
063041,001,2022-11-13_17h33.24.414,Info_measure_main_exp,2022.2.2,Win32,60.85316132,,,,,,,,,,,,,,,,,,masks/mask_005.jpg,,,,,,,,,,,,,,,,,,,,,,,,,,,,,,,,,,,,,,,,,,,0,3,3,4,1,,,,,,,,,,,,,,,,,,,,,,,,,,,,,,,,,,,,,,,,,,,,,,
063041,001,2022-11-13_17h33.24.414,Info_measure_main_exp,2022.2.2,Win32,60.85316132,,,,,,,,,,,,,,,,,,masks/mask_002.jpg,,,,,,,,,,,,,,,,,,,,,,,,,,,,,,,,,,,,,,,,,,,0,4,4,1,1,,,,,,,,,,,,,,,,,,,,,,,,,,,,,,,,,,,,,,,,,,,,,,
063041,001,2022-11-13_17h33.24.414,Info_measure_main_exp,2022.2.2,Win32,60.85316132,,,,,,,,,,,,,,,,,,masks/mask_005.jpg,,,,,,,,,,,,,,,,,,,,,,,,,,,,,,,,,,,,,,,,,,,,,,,,0,0,0,4,1,,,,,,,,,,,,,,,,,,,,,,,,,,,,,,,,,,,,,,,,,
063041,001,2022-11-13_17h33.24.414,Info_measure_main_exp,2022.2.2,Win32,60.85316132,,,,,,,,,,,,,,,,,,masks/mask_004.jpg,,,,,,,,,,,,,,,,,,,,,,,,,,,,,,,,,,,,,,,,,,,,,,,,0,1,1,3,1,,,,,,,,,,,,,,,,,,,,,,,,,,,,,,,,,,,,,,,,,
063041,001,2022-11-13_17h33.24.414,Info_measure_main_exp,2022.2.2,Win32,60.85316132,,,,,,,,,,,,,,,,,,masks/mask_002.jpg,,,,,,,,,,,,,,,,,,,,,,,,,,,,,,,,,,,,,,,,,,,,,,,,0,2,2,1,1,,,,,,,,,,,,,,,,,,,,,,,,,,,,,,,,,,,,,,,,,
063041,001,2022-11-13_17h33.24.414,Info_measure_main_exp,2022.2.2,Win32,60.85316132,,,,,,,,,,,,,,,,,,masks/mask_003.jpg,,,,,,,,,,,,,,,,,,,,,,,,,,,,,,,,,,,,,,,,,,,,,,,,0,3,3,2,1,,,,,,,,,,,,,,,,,,,,,,,,,,,,,,,,,,,,,,,,,
063041,001,2022-11-13_17h33.24.414,Info_measure_main_exp,2022.2.2,Win32,60.85316132,,,,,,,,,,,,,,,,,,masks/mask_001.jpg,,,,,,,,,,,,,,,,,,,,,,,,,,,,,,,,,,,,,,,,,,,,,,,,0,4,4,0,1,,,,,,,,,,,,,,,,,,,,,,,,,,,,,,,,,,,,,,,,,
063041,001,2022-11-13_17h33.24.414,Info_measure_main_exp,2022.2.2,Win32,60.85316132,,,,,,,,,,,,,,,,,,,,,,,,,,,,,,7,0.6692,1,,,,,,,,,,,,0,131,5,5,2178,2154,absent_patch/patch0002178.jpg,absent_patch/patch0002154.jpg,,,,,,,,,,,,,,,,,,,,0.034259259,0.073148148,1,0,0,response1disk,34,0.000925926,-0.008333333,1,0,0,center_square,0,33,33,63,1,,,,,,,,,,,,,,,,,,,,,,,
063041,001,2022-11-13_17h33.24.414,Info_measure_main_exp,2022.2.2,Win32,60.85316132,,,,,,,,,,,,,,,,,,masks/mask_005.jpg,,,,,,,,,,,,,,,,,,,,,,,,,,,,,,,,,,,,,,,,,,,0,0,0,4,1,,,,,,,,,,,,,,,,,,,,,,,,,,,,,,,,,,,,,,,,,,,,,,
063041,001,2022-11-13_17h33.24.414,Info_measure_main_exp,2022.2.2,Win32,60.85316132,,,,,,,,,,,,,,,,,,masks/mask_002.jpg,,,,,,,,,,,,,,,,,,,,,,,,,,,,,,,,,,,,,,,,,,,0,1,1,1,1,,,,,,,,,,,,,,,,,,,,,,,,,,,,,,,,,,,,,,,,,,,,,,
063041,001,2022-11-13_17h33.24.414,Info_measure_main_exp,2022.2.2,Win32,60.85316132,,,,,,,,,,,,,,,,,,masks/mask_004.jpg,,,,,,,,,,,,,,,,,,,,,,,,,,,,,,,,,,,,,,,,,,,0,2,2,3,1,,,,,,,,,,,,,,,,,,,,,,,,,,,,,,,,,,,,,,,,,,,,,,
063041,001,2022-11-13_17h33.24.414,Info_measure_main_exp,2022.2.2,Win32,60.85316132,,,,,,,,,,,,,,,,,,masks/mask_001.jpg,,,,,,,,,,,,,,,,,,,,,,,,,,,,,,,,,,,,,,,,,,,0,3,3,0,1,,,,,,,,,,,,,,,,,,,,,,,,,,,,,,,,,,,,,,,,,,,,,,
063041,001,2022-11-13_17h33.24.414,Info_measure_main_exp,2022.2.2,Win32,60.85316132,,,,,,,,,,,,,,,,,,masks/mask_003.jpg,,,,,,,,,,,,,,,,,,,,,,,,,,,,,,,,,,,,,,,,,,,0,4,4,2,1,,,,,,,,,,,,,,,,,,,,,,,,,,,,,,,,,,,,,,,,,,,,,,
063041,001,2022-11-13_17h33.24.414,Info_measure_main_exp,2022.2.2,Win32,60.85316132,,,,,,,,,,,,,,,,,,masks/mask_005.jpg,,,,,,,,,,,,,,,,,,,,,,,,,,,,,,,,,,,,,,,,,,,,,,,,0,0,0,4,1,,,,,,,,,,,,,,,,,,,,,,,,,,,,,,,,,,,,,,,,,
063041,001,2022-11-13_17h33.24.414,Info_measure_main_exp,2022.2.2,Win32,60.85316132,,,,,,,,,,,,,,,,,,masks/mask_001.jpg,,,,,,,,,,,,,,,,,,,,,,,,,,,,,,,,,,,,,,,,,,,,,,,,0,1,1,0,1,,,,,,,,,,,,,,,,,,,,,,,,,,,,,,,,,,,,,,,,,
063041,001,2022-11-13_17h33.24.414,Info_measure_main_exp,2022.2.2,Win32,60.85316132,,,,,,,,,,,,,,,,,,masks/mask_004.jpg,,,,,,,,,,,,,,,,,,,,,,,,,,,,,,,,,,,,,,,,,,,,,,,,0,2,2,3,1,,,,,,,,,,,,,,,,,,,,,,,,,,,,,,,,,,,,,,,,,
063041,001,2022-11-13_17h33.24.414,Info_measure_main_exp,2022.2.2,Win32,60.85316132,,,,,,,,,,,,,,,,,,masks/mask_003.jpg,,,,,,,,,,,,,,,,,,,,,,,,,,,,,,,,,,,,,,,,,,,,,,,,0,3,3,2,1,,,,,,,,,,,,,,,,,,,,,,,,,,,,,,,,,,,,,,,,,
