participant,session,date,expName,psychopyVersion,OS,frameRate,space_press_continue.keys,space_press_continue.rt,space_press_continue_2.keys,space_press_continue_2.rt,space_press_continue_3.keys,space_press_continue_3.rt,space_press_continue_4.keys,space_press_continue_4.rt,space_press_continue_5.keys,space_press_continue_5.rt,space_press_continue_6.keys,space_press_continue_6.rt,prac_mask_loop_1.thisRepN,prac_mask_loop_1.thisTrialN,prac_mask_loop_1.thisN,prac_mask_loop_1.thisIndex,prac_mask_loop_1.ran,mask_name,prac_mask_loop_2.thisRepN,prac_mask_loop_2.thisTrialN,prac_mask_loop_2.thisN,prac_mask_loop_2.thisIndex,prac_mask_loop_2.ran,mouse_2.x,mouse_2.y,mouse_2.leftButton,mouse_2.midButton,mouse_2.rightButton,mouse_2.clicked_name,similarity,response_time,Pass,mouse_12.x,mouse_12.y,mouse_12.leftButton,mouse_12.midButton,mouse_12.rightButton,mouse_12.clicked_name,prac_loop.thisRepN,prac_loop.thisTrialN,prac_loop.thisN,prac_loop.thisIndex,prac_loop.ran,Pair_type,Image_num,Patch_1_loc,Patch_2_loc,Patch_1_info,Patch_2_info,Patch_1_name,Patch_2_name,mouse_1.x,mouse_1.y,mouse_1.leftButton,mouse_1.midButton,mouse_1.rightButton,mouse_1.time,mouse_1.clicked_name,space_press_continue_7.keys,space_press_continue_7.rt,mask_loop.thisRepN,mask_loop.thisTrialN,mask_loop.thisN,mask_loop.thisIndex,mask_loop.ran,mask_loop_2.thisRepN,mask_loop_2.thisTrialN,mask_loop_2.thisN,mask_loop_2.thisIndex,mask_loop_2.ran,mouse.x,mouse.y,mouse.leftButton,mouse.midButton,mouse.rightButton,mouse.clicked_name,trialNumber,mouse_11.x,mouse_11.y,mouse_11.leftButton,mouse_11.midButton,mouse_11.rightButton,mouse_11.clicked_name,first_pass_loop.thisRepN,first_pass_loop.thisTrialN,first_pass_loop.thisN,first_pass_loop.thisIndex,first_pass_loop.ran,mask_loop_3.thisRepN,mask_loop_3.thisTrialN,mask_loop_3.thisN,mask_loop_3.thisIndex,mask_loop_3.ran,mask_loop_4.thisRepN,mask_loop_4.thisTrialN,mask_loop_4.thisN,mask_loop_4.thisIndex,mask_loop_4.ran,mouse_3.x,mouse_3.y,mouse_3.leftButton,mouse_3.midButton,mouse_3.rightButton,mouse_3.clicked_name,double_pass_loop.thisRepN,double_pass_loop.thisTrialN,double_pass_loop.thisN,double_pass_loop.thisIndex,double_pass_loop.ran,space_exit.keys,space_exit.rt
078337,001,2022-11-21_24h48.24.132,Info_measure_main_exp,2022.2.2,Win32,164.5819618,,,,,,,,,,,,,,,,,,,,,,,,,,,,,,,,,,,,,,,,,,,,,,,,,,,,,,,,,,,,,,,,,,,,,,,,,,,,,,,,,,,,,,,,,,,,,,,,,,,,,,,,,,,,,,,
078337,001,2022-11-21_24h48.24.132,Info_measure_main_exp,2022.2.2,Win32,164.5819618,,,,,,,,,,,,,,,,,,,,,,,,,,,,,,,,,,,,,,,,,,,,,,,,,,,,,,,,,,,,,,,,,,,,,,,,,,,,,,,,,,,,,,,,,,,,,,,,,,,,,,,,,,,,,,,
078337,001,2022-11-21_24h48.24.132,Info_measure_main_exp,2022.2.2,Win32,164.5819618,space,167.7762,,,,,,,,,,,,,,,,,,,,,,,,,,,,,,,,,,,,,,,,,,,,,,,,,,,,,,,,,,,,,,,,,,,,,,,,,,,,,,,,,,,,,,,,,,,,,,,,,,,,,,,,,,,,,
078337,001,2022-11-21_24h48.24.132,Info_measure_main_exp,2022.2.2,Win32,164.5819618,,,space,180.4335,,,,,,,,,,,,,,,,,,,,,,,,,,,,,,,,,,,,,,,,,,,,,,,,,,,,,,,,,,,,,,,,,,,,,,,,,,,,,,,,,,,,,,,,,,,,,,,,,,,,,,,,,,,
078337,001,2022-11-21_24h48.24.132,Info_measure_main_exp,2022.2.2,Win32,164.5819618,,,,,space,12.8002,,,,,,,,,,,,,,,,,,,,,,,,,,,,,,,,,,,,,,,,,,,,,,,,,,,,,,,,,,,,,,,,,,,,,,,,,,,,,,,,,,,,,,,,,,,,,,,,,,,,,,,,,
078337,001,2022-11-21_24h48.24.132,Info_measure_main_exp,2022.2.2,Win32,164.5819618,,,,,,,space,29.0023,,,,,,,,,,,,,,,,,,,,,,,,,,,,,,,,,,,,,,,,,,,,,,,,,,,,,,,,,,,,,,,,,,,,,,,,,,,,,,,,,,,,,,,,,,,,,,,,,,,,,,,
078337,001,2022-11-21_24h48.24.132,Info_measure_main_exp,2022.2.2,Win32,164.5819618,,,,,,,,,space,4.1011,,,,,,,,,,,,,,,,,,,,,,,,,,,,,,,,,,,,,,,,,,,,,,,,,,,,,,,,,,,,,,,,,,,,,,,,,,,,,,,,,,,,,,,,,,,,,,,,,,,,,
078337,001,2022-11-21_24h48.24.132,Info_measure_main_exp,2022.2.2,Win32,164.5819618,,,,,,,,,,,space,2.3096,,,,,,,,,,,,,,,,,,,,,,,,,,,,,,,,,,,,,,,,,,,,,,,,,,,,,,,,,,,,,,,,,,,,,,,,,,,,,,,,,,,,,,,,,,,,,,,,,,,
078337,001,2022-11-21_24h48.24.132,Info_measure_main_exp,2022.2.2,Win32,164.5819618,,,,,,,,,,,,,0,0,0,2,1,masks/mask_003.jpg,,,,,,,,,,,,,,,,,,,,,,,,,,,,,,,,,,,,,,,,,,,,,,,,,,,,,,,,,,,,,,,,,,,,,,,,,,,,,,,,,,,,,,,,,,,,,
078337,001,2022-11-21_24h48.24.132,Info_measure_main_exp,2022.2.2,Win32,164.5819618,,,,,,,,,,,,,0,1,1,3,1,masks/mask_004.jpg,,,,,,,,,,,,,,,,,,,,,,,,,,,,,,,,,,,,,,,,,,,,,,,,,,,,,,,,,,,,,,,,,,,,,,,,,,,,,,,,,,,,,,,,,,,,,
078337,001,2022-11-21_24h48.24.132,Info_measure_main_exp,2022.2.2,Win32,164.5819618,,,,,,,,,,,,,0,2,2,4,1,masks/mask_005.jpg,,,,,,,,,,,,,,,,,,,,,,,,,,,,,,,,,,,,,,,,,,,,,,,,,,,,,,,,,,,,,,,,,,,,,,,,,,,,,,,,,,,,,,,,,,,,,
078337,001,2022-11-21_24h48.24.132,Info_measure_main_exp,2022.2.2,Win32,164.5819618,,,,,,,,,,,,,0,3,3,1,1,masks/mask_002.jpg,,,,,,,,,,,,,,,,,,,,,,,,,,,,,,,,,,,,,,,,,,,,,,,,,,,,,,,,,,,,,,,,,,,,,,,,,,,,,,,,,,,,,,,,,,,,,
078337,001,2022-11-21_24h48.24.132,Info_measure_main_exp,2022.2.2,Win32,164.5819618,,,,,,,,,,,,,0,4,4,0,1,masks/mask_001.jpg,,,,,,,,,,,,,,,,,,,,,,,,,,,,,,,,,,,,,,,,,,,,,,,,,,,,,,,,,,,,,,,,,,,,,,,,,,,,,,,,,,,,,,,,,,,,,
078337,001,2022-11-21_24h48.24.132,Info_measure_main_exp,2022.2.2,Win32,164.5819618,,,,,,,,,,,,,,,,,,masks/mask_001.jpg,0,0,0,0,1,,,,,,,,,,,,,,,,,,,,,,,,,,,,,,,,,,,,,,,,,,,,,,,,,,,,,,,,,,,,,,,,,,,,,,,,,,,,,,,,,,,,,,,,
078337,001,2022-11-21_24h48.24.132,Info_measure_main_exp,2022.2.2,Win32,164.5819618,,,,,,,,,,,,,,,,,,masks/mask_005.jpg,0,1,1,4,1,,,,,,,,,,,,,,,,,,,,,,,,,,,,,,,,,,,,,,,,,,,,,,,,,,,,,,,,,,,,,,,,,,,,,,,,,,,,,,,,,,,,,,,,
078337,001,2022-11-21_24h48.24.132,Info_measure_main_exp,2022.2.2,Win32,164.5819618,,,,,,,,,,,,,,,,,,masks/mask_002.jpg,0,2,2,1,1,,,,,,,,,,,,,,,,,,,,,,,,,,,,,,,,,,,,,,,,,,,,,,,,,,,,,,,,,,,,,,,,,,,,,,,,,,,,,,,,,,,,,,,,
078337,001,2022-11-21_24h48.24.132,Info_measure_main_exp,2022.2.2,Win32,164.5819618,,,,,,,,,,,,,,,,,,masks/mask_003.jpg,0,3,3,2,1,,,,,,,,,,,,,,,,,,,,,,,,,,,,,,,,,,,,,,,,,,,,,,,,,,,,,,,,,,,,,,,,,,,,,,,,,,,,,,,,,,,,,,,,
078337,001,2022-11-21_24h48.24.132,Info_measure_main_exp,2022.2.2,Win32,164.5819618,,,,,,,,,,,,,,,,,,masks/mask_004.jpg,0,4,4,3,1,,,,,,,,,,,,,,,,,,,,,,,,,,,,,,,,,,,,,,,,,,,,,,,,,,,,,,,,,,,,,,,,,,,,,,,,,,,,,,,,,,,,,,,,
078337,001,2022-11-21_24h48.24.132,Info_measure_main_exp,2022.2.2,Win32,164.5819618,,,,,,,,,,,,,,,,,,,,,,,,-0.051851852,0.20462963,1,0,0,response7disk,0,400.1941,1,0.003703704,0.00462963,1,0,0,center_square,0,0,0,2,1,0,131,5,5,2526,2526,prac_patch/patch0002526.jpg,prac_patch/patch0002526.jpg,,,,,,,,,,,,,,,,,,,,,,,,,,,,,,,,,,,,,,,,,,,,,,,,,,,,,,,,,,,,
078337,001,2022-11-21_24h48.24.132,Info_measure_main_exp,2022.2.2,Win32,164.5819618,,,,,,,,,,,,,0,0,0,0,1,masks/mask_001.jpg,,,,,,,,,,,,,,,,,,,,,,,,,,,,,,,,,,,,,,,,,,,,,,,,,,,,,,,,,,,,,,,,,,,,,,,,,,,,,,,,,,,,,,,,,,,,,
078337,001,2022-11-21_24h48.24.132,Info_measure_main_exp,2022.2.2,Win32,164.5819618,,,,,,,,,,,,,0,1,1,1,1,masks/mask_002.jpg,,,,,,,,,,,,,,,,,,,,,,,,,,,,,,,,,,,,,,,,,,,,,,,,,,,,,,,,,,,,,,,,,,,,,,,,,,,,,,,,,,,,,,,,,,,,,
078337,001,2022-11-21_24h48.24.132,Info_measure_main_exp,2022.2.2,Win32,164.5819618,,,,,,,,,,,,,0,2,2,4,1,masks/mask_005.jpg,,,,,,,,,,,,,,,,,,,,,,,,,,,,,,,,,,,,,,,,,,,,,,,,,,,,,,,,,,,,,,,,,,,,,,,,,,,,,,,,,,,,,,,,,,,,,
078337,001,2022-11-21_24h48.24.132,Info_measure_main_exp,2022.2.2,Win32,164.5819618,,,,,,,,,,,,,0,3,3,2,1,masks/mask_003.jpg,,,,,,,,,,,,,,,,,,,,,,,,,,,,,,,,,,,,,,,,,,,,,,,,,,,,,,,,,,,,,,,,,,,,,,,,,,,,,,,,,,,,,,,,,,,,,
078337,001,2022-11-21_24h48.24.132,Info_measure_main_exp,2022.2.2,Win32,164.5819618,,,,,,,,,,,,,0,4,4,3,1,masks/mask_004.jpg,,,,,,,,,,,,,,,,,,,,,,,,,,,,,,,,,,,,,,,,,,,,,,,,,,,,,,,,,,,,,,,,,,,,,,,,,,,,,,,,,,,,,,,,,,,,,
078337,001,2022-11-21_24h48.24.132,Info_measure_main_exp,2022.2.2,Win32,164.5819618,,,,,,,,,,,,,,,,,,masks/mask_004.jpg,0,0,0,3,1,,,,,,,,,,,,,,,,,,,,,,,,,,,,,,,,,,,,,,,,,,,,,,,,,,,,,,,,,,,,,,,,,,,,,,,,,,,,,,,,,,,,,,,,
078337,001,2022-11-21_24h48.24.132,Info_measure_main_exp,2022.2.2,Win32,164.5819618,,,,,,,,,,,,,,,,,,masks/mask_001.jpg,0,1,1,0,1,,,,,,,,,,,,,,,,,,,,,,,,,,,,,,,,,,,,,,,,,,,,,,,,,,,,,,,,,,,,,,,,,,,,,,,,,,,,,,,,,,,,,,,,
078337,001,2022-11-21_24h48.24.132,Info_measure_main_exp,2022.2.2,Win32,164.5819618,,,,,,,,,,,,,,,,,,masks/mask_002.jpg,0,2,2,1,1,,,,,,,,,,,,,,,,,,,,,,,,,,,,,,,,,,,,,,,,,,,,,,,,,,,,,,,,,,,,,,,,,,,,,,,,,,,,,,,,,,,,,,,,
078337,001,2022-11-21_24h48.24.132,Info_measure_main_exp,2022.2.2,Win32,164.5819618,,,,,,,,,,,,,,,,,,masks/mask_005.jpg,0,3,3,4,1,,,,,,,,,,,,,,,,,,,,,,,,,,,,,,,,,,,,,,,,,,,,,,,,,,,,,,,,,,,,,,,,,,,,,,,,,,,,,,,,,,,,,,,,
078337,001,2022-11-21_24h48.24.132,Info_measure_main_exp,2022.2.2,Win32,164.5819618,,,,,,,,,,,,,,,,,,masks/mask_003.jpg,0,4,4,2,1,,,,,,,,,,,,,,,,,,,,,,,,,,,,,,,,,,,,,,,,,,,,,,,,,,,,,,,,,,,,,,,,,,,,,,,,,,,,,,,,,,,,,,,,
078337,001,2022-11-21_24h48.24.132,Info_measure_main_exp,2022.2.2,Win32,164.5819618,,,,,,,,,,,,,,,,,,,,,,,,0.119444444,0.013888889,1,0,0,response1disk,6,407.8179,1,0.006481481,-0.007407407,1,0,0,center_square,0,1,1,1,1,0,131,5,5,2514,2490,prac_patch/patch0002514.jpg,prac_patch/patch0002490.jpg,,,,,,,,,,,,,,,,,,,,,,,,,,,,,,,,,,,,,,,,,,,,,,,,,,,,,,,,,,,,
078337,001,2022-11-21_24h48.24.132,Info_measure_main_exp,2022.2.2,Win32,164.5819618,,,,,,,,,,,,,0,0,0,2,1,masks/mask_003.jpg,,,,,,,,,,,,,,,,,,,,,,,,,,,,,,,,,,,,,,,,,,,,,,,,,,,,,,,,,,,,,,,,,,,,,,,,,,,,,,,,,,,,,,,,,,,,,
078337,001,2022-11-21_24h48.24.132,Info_measure_main_exp,2022.2.2,Win32,164.5819618,,,,,,,,,,,,,0,1,1,3,1,masks/mask_004.jpg,,,,,,,,,,,,,,,,,,,,,,,,,,,,,,,,,,,,,,,,,,,,,,,,,,,,,,,,,,,,,,,,,,,,,,,,,,,,,,,,,,,,,,,,,,,,,
078337,001,2022-11-21_24h48.24.132,Info_measure_main_exp,2022.2.2,Win32,164.5819618,,,,,,,,,,,,,0,2,2,0,1,masks/mask_001.jpg,,,,,,,,,,,,,,,,,,,,,,,,,,,,,,,,,,,,,,,,,,,,,,,,,,,,,,,,,,,,,,,,,,,,,,,,,,,,,,,,,,,,,,,,,,,,,
078337,001,2022-11-21_24h48.24.132,Info_measure_main_exp,2022.2.2,Win32,164.5819618,,,,,,,,,,,,,0,3,3,4,1,masks/mask_005.jpg,,,,,,,,,,,,,,,,,,,,,,,,,,,,,,,,,,,,,,,,,,,,,,,,,,,,,,,,,,,,,,,,,,,,,,,,,,,,,,,,,,,,,,,,,,,,,
078337,001,2022-11-21_24h48.24.132,Info_measure_main_exp,2022.2.2,Win32,164.5819618,,,,,,,,,,,,,0,4,4,1,1,masks/mask_002.jpg,,,,,,,,,,,,,,,,,,,,,,,,,,,,,,,,,,,,,,,,,,,,,,,,,,,,,,,,,,,,,,,,,,,,,,,,,,,,,,,,,,,,,,,,,,,,,
078337,001,2022-11-21_24h48.24.132,Info_measure_main_exp,2022.2.2,Win32,164.5819618,,,,,,,,,,,,,,,,,,masks/mask_004.jpg,0,0,0,3,1,,,,,,,,,,,,,,,,,,,,,,,,,,,,,,,,,,,,,,,,,,,,,,,,,,,,,,,,,,,,,,,,,,,,,,,,,,,,,,,,,,,,,,,,
078337,001,2022-11-21_24h48.24.132,Info_measure_main_exp,2022.2.2,Win32,164.5819618,,,,,,,,,,,,,,,,,,masks/mask_005.jpg,0,1,1,4,1,,,,,,,,,,,,,,,,,,,,,,,,,,,,,,,,,,,,,,,,,,,,,,,,,,,,,,,,,,,,,,,,,,,,,,,,,,,,,,,,,,,,,,,,
078337,001,2022-11-21_24h48.24.132,Info_measure_main_exp,2022.2.2,Win32,164.5819618,,,,,,,,,,,,,,,,,,masks/mask_002.jpg,0,2,2,1,1,,,,,,,,,,,,,,,,,,,,,,,,,,,,,,,,,,,,,,,,,,,,,,,,,,,,,,,,,,,,,,,,,,,,,,,,,,,,,,,,,,,,,,,,
078337,001,2022-11-21_24h48.24.132,Info_measure_main_exp,2022.2.2,Win32,164.5819618,,,,,,,,,,,,,,,,,,masks/mask_001.jpg,0,3,3,0,1,,,,,,,,,,,,,,,,,,,,,,,,,,,,,,,,,,,,,,,,,,,,,,,,,,,,,,,,,,,,,,,,,,,,,,,,,,,,,,,,,,,,,,,,
078337,001,2022-11-21_24h48.24.132,Info_measure_main_exp,2022.2.2,Win32,164.5819618,,,,,,,,,,,,,,,,,,masks/mask_003.jpg,0,4,4,2,1,,,,,,,,,,,,,,,,,,,,,,,,,,,,,,,,,,,,,,,,,,,,,,,,,,,,,,,,,,,,,,,,,,,,,,,,,,,,,,,,,,,,,,,,
078337,001,2022-11-21_24h48.24.132,Info_measure_main_exp,2022.2.2,Win32,164.5819618,,,,,,,,,,,,,,,,,,,,,,,,0.013888889,0.103703704,1,0,0,response1disk,7,415.503,1,-0.001851852,0.000925926,1,0,0,center_square,0,2,2,0,1,0,131,5,5,2370,2406,prac_patch/patch0002370.jpg,prac_patch/patch0002406.jpg,,,,,,,,,,,,,,,,,,,,,,,,,,,,,,,,,,,,,,,,,,,,,,,,,,,,,,,,,,,,
078337,001,2022-11-21_24h48.24.132,Info_measure_main_exp,2022.2.2,Win32,164.5819618,,,,,,,,,,,,,,,,,,,,,,,,,,,,,,,,,,,,,,,,,,,,,,,,,,,,,,,,,,,space,2.536,,,,,,,,,,,,,,,,,,,,,,,,,,,,,,,,,,,,,,,,,,,,,,,,,,,
078337,001,2022-11-21_24h48.24.132,Info_measure_main_exp,2022.2.2,Win32,164.5819618,,,,,,,,,,,,,,,,,,masks/mask_002.jpg,,,,,,,,,,,,,,,,,,,,,,,,,,,,,,,,,,,,,,,,,,,0,0,0,1,1,,,,,,,,,,,,,,,,,,,,,,,,,,,,,,,,,,,,,,,,,,,,,,
078337,001,2022-11-21_24h48.24.132,Info_measure_main_exp,2022.2.2,Win32,164.5819618,,,,,,,,,,,,,,,,,,masks/mask_001.jpg,,,,,,,,,,,,,,,,,,,,,,,,,,,,,,,,,,,,,,,,,,,0,1,1,0,1,,,,,,,,,,,,,,,,,,,,,,,,,,,,,,,,,,,,,,,,,,,,,,
078337,001,2022-11-21_24h48.24.132,Info_measure_main_exp,2022.2.2,Win32,164.5819618,,,,,,,,,,,,,,,,,,masks/mask_004.jpg,,,,,,,,,,,,,,,,,,,,,,,,,,,,,,,,,,,,,,,,,,,0,2,2,3,1,,,,,,,,,,,,,,,,,,,,,,,,,,,,,,,,,,,,,,,,,,,,,,
078337,001,2022-11-21_24h48.24.132,Info_measure_main_exp,2022.2.2,Win32,164.5819618,,,,,,,,,,,,,,,,,,masks/mask_003.jpg,,,,,,,,,,,,,,,,,,,,,,,,,,,,,,,,,,,,,,,,,,,0,3,3,2,1,,,,,,,,,,,,,,,,,,,,,,,,,,,,,,,,,,,,,,,,,,,,,,
078337,001,2022-11-21_24h48.24.132,Info_measure_main_exp,2022.2.2,Win32,164.5819618,,,,,,,,,,,,,,,,,,masks/mask_005.jpg,,,,,,,,,,,,,,,,,,,,,,,,,,,,,,,,,,,,,,,,,,,0,4,4,4,1,,,,,,,,,,,,,,,,,,,,,,,,,,,,,,,,,,,,,,,,,,,,,,
078337,001,2022-11-21_24h48.24.132,Info_measure_main_exp,2022.2.2,Win32,164.5819618,,,,,,,,,,,,,,,,,,masks/mask_003.jpg,,,,,,,,,,,,,,,,,,,,,,,,,,,,,,,,,,,,,,,,,,,,,,,,0,0,0,2,1,,,,,,,,,,,,,,,,,,,,,,,,,,,,,,,,,,,,,,,,,
078337,001,2022-11-21_24h48.24.132,Info_measure_main_exp,2022.2.2,Win32,164.5819618,,,,,,,,,,,,,,,,,,masks/mask_001.jpg,,,,,,,,,,,,,,,,,,,,,,,,,,,,,,,,,,,,,,,,,,,,,,,,0,1,1,0,1,,,,,,,,,,,,,,,,,,,,,,,,,,,,,,,,,,,,,,,,,
078337,001,2022-11-21_24h48.24.132,Info_measure_main_exp,2022.2.2,Win32,164.5819618,,,,,,,,,,,,,,,,,,masks/mask_005.jpg,,,,,,,,,,,,,,,,,,,,,,,,,,,,,,,,,,,,,,,,,,,,,,,,0,2,2,4,1,,,,,,,,,,,,,,,,,,,,,,,,,,,,,,,,,,,,,,,,,
078337,001,2022-11-21_24h48.24.132,Info_measure_main_exp,2022.2.2,Win32,164.5819618,,,,,,,,,,,,,,,,,,masks/mask_002.jpg,,,,,,,,,,,,,,,,,,,,,,,,,,,,,,,,,,,,,,,,,,,,,,,,0,3,3,1,1,,,,,,,,,,,,,,,,,,,,,,,,,,,,,,,,,,,,,,,,,
078337,001,2022-11-21_24h48.24.132,Info_measure_main_exp,2022.2.2,Win32,164.5819618,,,,,,,,,,,,,,,,,,masks/mask_004.jpg,,,,,,,,,,,,,,,,,,,,,,,,,,,,,,,,,,,,,,,,,,,,,,,,0,4,4,3,1,,,,,,,,,,,,,,,,,,,,,,,,,,,,,,,,,,,,,,,,,
078337,001,2022-11-21_24h48.24.132,Info_measure_main_exp,2022.2.2,Win32,164.5819618,,,,,,,,,,,,,,,,,,,,,,,,,,,,,,6,1.7334,1,,,,,,,,,,,,1,131,5,5,2238,1,absent_patch/patch0002238.jpg,present_patch/cong_131_5_a.jpg,,,,,,,,,,,,,,,,,,,,0.114814815,0.05462963,1,0,0,response1disk,1,0,-0.003703704,1,0,0,center_square,0,0,0,104,1,,,,,,,,,,,,,,,,,,,,,,,
078337,001,2022-11-21_24h48.24.132,Info_measure_main_exp,2022.2.2,Win32,164.5819618,,,,,,,,,,,,,,,,,,masks/mask_003.jpg,,,,,,,,,,,,,,,,,,,,,,,,,,,,,,,,,,,,,,,,,,,0,0,0,2,1,,,,,,,,,,,,,,,,,,,,,,,,,,,,,,,,,,,,,,,,,,,,,,
078337,001,2022-11-21_24h48.24.132,Info_measure_main_exp,2022.2.2,Win32,164.5819618,,,,,,,,,,,,,,,,,,masks/mask_005.jpg,,,,,,,,,,,,,,,,,,,,,,,,,,,,,,,,,,,,,,,,,,,0,1,1,4,1,,,,,,,,,,,,,,,,,,,,,,,,,,,,,,,,,,,,,,,,,,,,,,
078337,001,2022-11-21_24h48.24.132,Info_measure_main_exp,2022.2.2,Win32,164.5819618,,,,,,,,,,,,,,,,,,masks/mask_004.jpg,,,,,,,,,,,,,,,,,,,,,,,,,,,,,,,,,,,,,,,,,,,0,2,2,3,1,,,,,,,,,,,,,,,,,,,,,,,,,,,,,,,,,,,,,,,,,,,,,,
078337,001,2022-11-21_24h48.24.132,Info_measure_main_exp,2022.2.2,Win32,164.5819618,,,,,,,,,,,,,,,,,,masks/mask_002.jpg,,,,,,,,,,,,,,,,,,,,,,,,,,,,,,,,,,,,,,,,,,,0,3,3,1,1,,,,,,,,,,,,,,,,,,,,,,,,,,,,,,,,,,,,,,,,,,,,,,
078337,001,2022-11-21_24h48.24.132,Info_measure_main_exp,2022.2.2,Win32,164.5819618,,,,,,,,,,,,,,,,,,masks/mask_001.jpg,,,,,,,,,,,,,,,,,,,,,,,,,,,,,,,,,,,,,,,,,,,0,4,4,0,1,,,,,,,,,,,,,,,,,,,,,,,,,,,,,,,,,,,,,,,,,,,,,,
078337,001,2022-11-21_24h48.24.132,Info_measure_main_exp,2022.2.2,Win32,164.5819618,,,,,,,,,,,,,,,,,,masks/mask_003.jpg,,,,,,,,,,,,,,,,,,,,,,,,,,,,,,,,,,,,,,,,,,,,,,,,0,0,0,2,1,,,,,,,,,,,,,,,,,,,,,,,,,,,,,,,,,,,,,,,,,
078337,001,2022-11-21_24h48.24.132,Info_measure_main_exp,2022.2.2,Win32,164.5819618,,,,,,,,,,,,,,,,,,masks/mask_001.jpg,,,,,,,,,,,,,,,,,,,,,,,,,,,,,,,,,,,,,,,,,,,,,,,,0,1,1,0,1,,,,,,,,,,,,,,,,,,,,,,,,,,,,,,,,,,,,,,,,,
078337,001,2022-11-21_24h48.24.132,Info_measure_main_exp,2022.2.2,Win32,164.5819618,,,,,,,,,,,,,,,,,,masks/mask_005.jpg,,,,,,,,,,,,,,,,,,,,,,,,,,,,,,,,,,,,,,,,,,,,,,,,0,2,2,4,1,,,,,,,,,,,,,,,,,,,,,,,,,,,,,,,,,,,,,,,,,
078337,001,2022-11-21_24h48.24.132,Info_measure_main_exp,2022.2.2,Win32,164.5819618,,,,,,,,,,,,,,,,,,masks/mask_002.jpg,,,,,,,,,,,,,,,,,,,,,,,,,,,,,,,,,,,,,,,,,,,,,,,,0,3,3,1,1,,,,,,,,,,,,,,,,,,,,,,,,,,,,,,,,,,,,,,,,,
078337,001,2022-11-21_24h48.24.132,Info_measure_main_exp,2022.2.2,Win32,164.5819618,,,,,,,,,,,,,,,,,,masks/mask_004.jpg,,,,,,,,,,,,,,,,,,,,,,,,,,,,,,,,,,,,,,,,,,,,,,,,0,4,4,3,1,,,,,,,,,,,,,,,,,,,,,,,,,,,,,,,,,,,,,,,,,
078337,001,2022-11-21_24h48.24.132,Info_measure_main_exp,2022.2.2,Win32,164.5819618,,,,,,,,,,,,,,,,,,,,,,,,,,,,,,7,0.6081,1,,,,,,,,,,,,0,131,5,5,2178,2166,absent_patch/patch0002178.jpg,absent_patch/patch0002166.jpg,,,,,,,,,,,,,,,,,,,,0.025925926,0.103703704,1,0,0,response1disk,2,0,0.006481481,1,0,0,center_square,0,1,1,72,1,,,,,,,,,,,,,,,,,,,,,,,
078337,001,2022-11-21_24h48.24.132,Info_measure_main_exp,2022.2.2,Win32,164.5819618,,,,,,,,,,,,,,,,,,masks/mask_005.jpg,,,,,,,,,,,,,,,,,,,,,,,,,,,,,,,,,,,,,,,,,,,0,0,0,4,1,,,,,,,,,,,,,,,,,,,,,,,,,,,,,,,,,,,,,,,,,,,,,,
078337,001,2022-11-21_24h48.24.132,Info_measure_main_exp,2022.2.2,Win32,164.5819618,,,,,,,,,,,,,,,,,,masks/mask_002.jpg,,,,,,,,,,,,,,,,,,,,,,,,,,,,,,,,,,,,,,,,,,,0,1,1,1,1,,,,,,,,,,,,,,,,,,,,,,,,,,,,,,,,,,,,,,,,,,,,,,
078337,001,2022-11-21_24h48.24.132,Info_measure_main_exp,2022.2.2,Win32,164.5819618,,,,,,,,,,,,,,,,,,masks/mask_003.jpg,,,,,,,,,,,,,,,,,,,,,,,,,,,,,,,,,,,,,,,,,,,0,2,2,2,1,,,,,,,,,,,,,,,,,,,,,,,,,,,,,,,,,,,,,,,,,,,,,,
078337,001,2022-11-21_24h48.24.132,Info_measure_main_exp,2022.2.2,Win32,164.5819618,,,,,,,,,,,,,,,,,,masks/mask_001.jpg,,,,,,,,,,,,,,,,,,,,,,,,,,,,,,,,,,,,,,,,,,,0,3,3,0,1,,,,,,,,,,,,,,,,,,,,,,,,,,,,,,,,,,,,,,,,,,,,,,
078337,001,2022-11-21_24h48.24.132,Info_measure_main_exp,2022.2.2,Win32,164.5819618,,,,,,,,,,,,,,,,,,masks/mask_004.jpg,,,,,,,,,,,,,,,,,,,,,,,,,,,,,,,,,,,,,,,,,,,0,4,4,3,1,,,,,,,,,,,,,,,,,,,,,,,,,,,,,,,,,,,,,,,,,,,,,,
078337,001,2022-11-21_24h48.24.132,Info_measure_main_exp,2022.2.2,Win32,164.5819618,,,,,,,,,,,,,,,,,,masks/mask_001.jpg,,,,,,,,,,,,,,,,,,,,,,,,,,,,,,,,,,,,,,,,,,,,,,,,0,0,0,0,1,,,,,,,,,,,,,,,,,,,,,,,,,,,,,,,,,,,,,,,,,
078337,001,2022-11-21_24h48.24.132,Info_measure_main_exp,2022.2.2,Win32,164.5819618,,,,,,,,,,,,,,,,,,masks/mask_004.jpg,,,,,,,,,,,,,,,,,,,,,,,,,,,,,,,,,,,,,,,,,,,,,,,,0,1,1,3,1,,,,,,,,,,,,,,,,,,,,,,,,,,,,,,,,,,,,,,,,,
078337,001,2022-11-21_24h48.24.132,Info_measure_main_exp,2022.2.2,Win32,164.5819618,,,,,,,,,,,,,,,,,,masks/mask_005.jpg,,,,,,,,,,,,,,,,,,,,,,,,,,,,,,,,,,,,,,,,,,,,,,,,0,2,2,4,1,,,,,,,,,,,,,,,,,,,,,,,,,,,,,,,,,,,,,,,,,
078337,001,2022-11-21_24h48.24.132,Info_measure_main_exp,2022.2.2,Win32,164.5819618,,,,,,,,,,,,,,,,,,masks/mask_002.jpg,,,,,,,,,,,,,,,,,,,,,,,,,,,,,,,,,,,,,,,,,,,,,,,,0,3,3,1,1,,,,,,,,,,,,,,,,,,,,,,,,,,,,,,,,,,,,,,,,,
078337,001,2022-11-21_24h48.24.132,Info_measure_main_exp,2022.2.2,Win32,164.5819618,,,,,,,,,,,,,,,,,,masks/mask_003.jpg,,,,,,,,,,,,,,,,,,,,,,,,,,,,,,,,,,,,,,,,,,,,,,,,0,4,4,2,1,,,,,,,,,,,,,,,,,,,,,,,,,,,,,,,,,,,,,,,,,
078337,001,2022-11-21_24h48.24.132,Info_measure_main_exp,2022.2.2,Win32,164.5819618,,,,,,,,,,,,,,,,,,,,,,,,,,,,,,0,0.7499,1,,,,,,,,,,,,0,131,5,5,2250,2250,absent_patch/patch0002250.jpg,absent_patch/patch0002250.jpg,,,,,,,,,,,,,,,,,,,,-0.050925926,0.110185185,1,0,0,response7disk,3,-0.008333333,0.00462963,1,0,0,center_square,0,2,2,56,1,,,,,,,,,,,,,,,,,,,,,,,
078337,001,2022-11-21_24h48.24.132,Info_measure_main_exp,2022.2.2,Win32,164.5819618,,,,,,,,,,,,,,,,,,masks/mask_002.jpg,,,,,,,,,,,,,,,,,,,,,,,,,,,,,,,,,,,,,,,,,,,0,0,0,1,1,,,,,,,,,,,,,,,,,,,,,,,,,,,,,,,,,,,,,,,,,,,,,,
078337,001,2022-11-21_24h48.24.132,Info_measure_main_exp,2022.2.2,Win32,164.5819618,,,,,,,,,,,,,,,,,,masks/mask_003.jpg,,,,,,,,,,,,,,,,,,,,,,,,,,,,,,,,,,,,,,,,,,,0,1,1,2,1,,,,,,,,,,,,,,,,,,,,,,,,,,,,,,,,,,,,,,,,,,,,,,
078337,001,2022-11-21_24h48.24.132,Info_measure_main_exp,2022.2.2,Win32,164.5819618,,,,,,,,,,,,,,,,,,masks/mask_005.jpg,,,,,,,,,,,,,,,,,,,,,,,,,,,,,,,,,,,,,,,,,,,0,2,2,4,1,,,,,,,,,,,,,,,,,,,,,,,,,,,,,,,,,,,,,,,,,,,,,,
078337,001,2022-11-21_24h48.24.132,Info_measure_main_exp,2022.2.2,Win32,164.5819618,,,,,,,,,,,,,,,,,,masks/mask_004.jpg,,,,,,,,,,,,,,,,,,,,,,,,,,,,,,,,,,,,,,,,,,,0,3,3,3,1,,,,,,,,,,,,,,,,,,,,,,,,,,,,,,,,,,,,,,,,,,,,,,
078337,001,2022-11-21_24h48.24.132,Info_measure_main_exp,2022.2.2,Win32,164.5819618,,,,,,,,,,,,,,,,,,masks/mask_001.jpg,,,,,,,,,,,,,,,,,,,,,,,,,,,,,,,,,,,,,,,,,,,0,4,4,0,1,,,,,,,,,,,,,,,,,,,,,,,,,,,,,,,,,,,,,,,,,,,,,,
078337,001,2022-11-21_24h48.24.132,Info_measure_main_exp,2022.2.2,Win32,164.5819618,,,,,,,,,,,,,,,,,,masks/mask_004.jpg,,,,,,,,,,,,,,,,,,,,,,,,,,,,,,,,,,,,,,,,,,,,,,,,0,0,0,3,1,,,,,,,,,,,,,,,,,,,,,,,,,,,,,,,,,,,,,,,,,
078337,001,2022-11-21_24h48.24.132,Info_measure_main_exp,2022.2.2,Win32,164.5819618,,,,,,,,,,,,,,,,,,masks/mask_002.jpg,,,,,,,,,,,,,,,,,,,,,,,,,,,,,,,,,,,,,,,,,,,,,,,,0,1,1,1,1,,,,,,,,,,,,,,,,,,,,,,,,,,,,,,,,,,,,,,,,,
078337,001,2022-11-21_24h48.24.132,Info_measure_main_exp,2022.2.2,Win32,164.5819618,,,,,,,,,,,,,,,,,,masks/mask_003.jpg,,,,,,,,,,,,,,,,,,,,,,,,,,,,,,,,,,,,,,,,,,,,,,,,0,2,2,2,1,,,,,,,,,,,,,,,,,,,,,,,,,,,,,,,,,,,,,,,,,
078337,001,2022-11-21_24h48.24.132,Info_measure_main_exp,2022.2.2,Win32,164.5819618,,,,,,,,,,,,,,,,,,masks/mask_001.jpg,,,,,,,,,,,,,,,,,,,,,,,,,,,,,,,,,,,,,,,,,,,,,,,,0,3,3,0,1,,,,,,,,,,,,,,,,,,,,,,,,,,,,,,,,,,,,,,,,,
078337,001,2022-11-21_24h48.24.132,Info_measure_main_exp,2022.2.2,Win32,164.5819618,,,,,,,,,,,,,,,,,,masks/mask_005.jpg,,,,,,,,,,,,,,,,,,,,,,,,,,,,,,,,,,,,,,,,,,,,,,,,0,4,4,4,1,,,,,,,,,,,,,,,,,,,,,,,,,,,,,,,,,,,,,,,,,
078337,001,2022-11-21_24h48.24.132,Info_measure_main_exp,2022.2.2,Win32,164.5819618,,,,,,,,,,,,,,,,,,,,,,,,,,,,,,7,2.1822,1,,,,,,,,,,,,0,131,5,5,2298,2298,absent_patch/patch0002298.jpg,absent_patch/patch0002298.jpg,,,,,,,,,,,,,,,,,,,,0.036111111,0.047222222,1,0,0,response1disk,4,0.003703704,0.007407407,1,0,0,center_square,0,3,3,37,1,,,,,,,,,,,,,,,,,,,,,,,
078337,001,2022-11-21_24h48.24.132,Info_measure_main_exp,2022.2.2,Win32,164.5819618,,,,,,,,,,,,,,,,,,masks/mask_001.jpg,,,,,,,,,,,,,,,,,,,,,,,,,,,,,,,,,,,,,,,,,,,0,0,0,0,1,,,,,,,,,,,,,,,,,,,,,,,,,,,,,,,,,,,,,,,,,,,,,,
078337,001,2022-11-21_24h48.24.132,Info_measure_main_exp,2022.2.2,Win32,164.5819618,,,,,,,,,,,,,,,,,,masks/mask_003.jpg,,,,,,,,,,,,,,,,,,,,,,,,,,,,,,,,,,,,,,,,,,,0,1,1,2,1,,,,,,,,,,,,,,,,,,,,,,,,,,,,,,,,,,,,,,,,,,,,,,
078337,001,2022-11-21_24h48.24.132,Info_measure_main_exp,2022.2.2,Win32,164.5819618,,,,,,,,,,,,,,,,,,masks/mask_002.jpg,,,,,,,,,,,,,,,,,,,,,,,,,,,,,,,,,,,,,,,,,,,0,2,2,1,1,,,,,,,,,,,,,,,,,,,,,,,,,,,,,,,,,,,,,,,,,,,,,,
078337,001,2022-11-21_24h48.24.132,Info_measure_main_exp,2022.2.2,Win32,164.5819618,,,,,,,,,,,,,,,,,,masks/mask_004.jpg,,,,,,,,,,,,,,,,,,,,,,,,,,,,,,,,,,,,,,,,,,,0,3,3,3,1,,,,,,,,,,,,,,,,,,,,,,,,,,,,,,,,,,,,,,,,,,,,,,
078337,001,2022-11-21_24h48.24.132,Info_measure_main_exp,2022.2.2,Win32,164.5819618,,,,,,,,,,,,,,,,,,masks/mask_005.jpg,,,,,,,,,,,,,,,,,,,,,,,,,,,,,,,,,,,,,,,,,,,0,4,4,4,1,,,,,,,,,,,,,,,,,,,,,,,,,,,,,,,,,,,,,,,,,,,,,,
078337,001,2022-11-21_24h48.24.132,Info_measure_main_exp,2022.2.2,Win32,164.5819618,,,,,,,,,,,,,,,,,,masks/mask_004.jpg,,,,,,,,,,,,,,,,,,,,,,,,,,,,,,,,,,,,,,,,,,,,,,,,0,0,0,3,1,,,,,,,,,,,,,,,,,,,,,,,,,,,,,,,,,,,,,,,,,
078337,001,2022-11-21_24h48.24.132,Info_measure_main_exp,2022.2.2,Win32,164.5819618,,,,,,,,,,,,,,,,,,masks/mask_002.jpg,,,,,,,,,,,,,,,,,,,,,,,,,,,,,,,,,,,,,,,,,,,,,,,,0,1,1,1,1,,,,,,,,,,,,,,,,,,,,,,,,,,,,,,,,,,,,,,,,,
078337,001,2022-11-21_24h48.24.132,Info_measure_main_exp,2022.2.2,Win32,164.5819618,,,,,,,,,,,,,,,,,,masks/mask_005.jpg,,,,,,,,,,,,,,,,,,,,,,,,,,,,,,,,,,,,,,,,,,,,,,,,0,2,2,4,1,,,,,,,,,,,,,,,,,,,,,,,,,,,,,,,,,,,,,,,,,
078337,001,2022-11-21_24h48.24.132,Info_measure_main_exp,2022.2.2,Win32,164.5819618,,,,,,,,,,,,,,,,,,masks/mask_001.jpg,,,,,,,,,,,,,,,,,,,,,,,,,,,,,,,,,,,,,,,,,,,,,,,,0,3,3,0,1,,,,,,,,,,,,,,,,,,,,,,,,,,,,,,,,,,,,,,,,,
078337,001,2022-11-21_24h48.24.132,Info_measure_main_exp,2022.2.2,Win32,164.5819618,,,,,,,,,,,,,,,,,,masks/mask_003.jpg,,,,,,,,,,,,,,,,,,,,,,,,,,,,,,,,,,,,,,,,,,,,,,,,0,4,4,2,1,,,,,,,,,,,,,,,,,,,,,,,,,,,,,,,,,,,,,,,,,
078337,001,2022-11-21_24h48.24.132,Info_measure_main_exp,2022.2.2,Win32,164.5819618,,,,,,,,,,,,,,,,,,,,,,,,,,,,,,7,0.6121,1,,,,,,,,,,,,0,131,5,5,2190,2250,absent_patch/patch0002190.jpg,absent_patch/patch0002250.jpg,,,,,,,,,,,,,,,,,,,,0.052777778,0.080555556,1,0,0,response1disk,5,0.002777778,-0.00462963,1,0,0,center_square,0,4,4,93,1,,,,,,,,,,,,,,,,,,,,,,,
078337,001,2022-11-21_24h48.24.132,Info_measure_main_exp,2022.2.2,Win32,164.5819618,,,,,,,,,,,,,,,,,,masks/mask_001.jpg,,,,,,,,,,,,,,,,,,,,,,,,,,,,,,,,,,,,,,,,,,,0,0,0,0,1,,,,,,,,,,,,,,,,,,,,,,,,,,,,,,,,,,,,,,,,,,,,,,
078337,001,2022-11-21_24h48.24.132,Info_measure_main_exp,2022.2.2,Win32,164.5819618,,,,,,,,,,,,,,,,,,masks/mask_005.jpg,,,,,,,,,,,,,,,,,,,,,,,,,,,,,,,,,,,,,,,,,,,0,1,1,4,1,,,,,,,,,,,,,,,,,,,,,,,,,,,,,,,,,,,,,,,,,,,,,,
078337,001,2022-11-21_24h48.24.132,Info_measure_main_exp,2022.2.2,Win32,164.5819618,,,,,,,,,,,,,,,,,,masks/mask_002.jpg,,,,,,,,,,,,,,,,,,,,,,,,,,,,,,,,,,,,,,,,,,,0,2,2,1,1,,,,,,,,,,,,,,,,,,,,,,,,,,,,,,,,,,,,,,,,,,,,,,
078337,001,2022-11-21_24h48.24.132,Info_measure_main_exp,2022.2.2,Win32,164.5819618,,,,,,,,,,,,,,,,,,masks/mask_003.jpg,,,,,,,,,,,,,,,,,,,,,,,,,,,,,,,,,,,,,,,,,,,0,3,3,2,1,,,,,,,,,,,,,,,,,,,,,,,,,,,,,,,,,,,,,,,,,,,,,,
078337,001,2022-11-21_24h48.24.132,Info_measure_main_exp,2022.2.2,Win32,164.5819618,,,,,,,,,,,,,,,,,,masks/mask_004.jpg,,,,,,,,,,,,,,,,,,,,,,,,,,,,,,,,,,,,,,,,,,,0,4,4,3,1,,,,,,,,,,,,,,,,,,,,,,,,,,,,,,,,,,,,,,,,,,,,,,
078337,001,2022-11-21_24h48.24.132,Info_measure_main_exp,2022.2.2,Win32,164.5819618,,,,,,,,,,,,,,,,,,masks/mask_003.jpg,,,,,,,,,,,,,,,,,,,,,,,,,,,,,,,,,,,,,,,,,,,,,,,,0,0,0,2,1,,,,,,,,,,,,,,,,,,,,,,,,,,,,,,,,,,,,,,,,,
078337,001,2022-11-21_24h48.24.132,Info_measure_main_exp,2022.2.2,Win32,164.5819618,,,,,,,,,,,,,,,,,,masks/mask_004.jpg,,,,,,,,,,,,,,,,,,,,,,,,,,,,,,,,,,,,,,,,,,,,,,,,0,1,1,3,1,,,,,,,,,,,,,,,,,,,,,,,,,,,,,,,,,,,,,,,,,
078337,001,2022-11-21_24h48.24.132,Info_measure_main_exp,2022.2.2,Win32,164.5819618,,,,,,,,,,,,,,,,,,masks/mask_005.jpg,,,,,,,,,,,,,,,,,,,,,,,,,,,,,,,,,,,,,,,,,,,,,,,,0,2,2,4,1,,,,,,,,,,,,,,,,,,,,,,,,,,,,,,,,,,,,,,,,,
078337,001,2022-11-21_24h48.24.132,Info_measure_main_exp,2022.2.2,Win32,164.5819618,,,,,,,,,,,,,,,,,,masks/mask_001.jpg,,,,,,,,,,,,,,,,,,,,,,,,,,,,,,,,,,,,,,,,,,,,,,,,0,3,3,0,1,,,,,,,,,,,,,,,,,,,,,,,,,,,,,,,,,,,,,,,,,
078337,001,2022-11-21_24h48.24.132,Info_measure_main_exp,2022.2.2,Win32,164.5819618,,,,,,,,,,,,,,,,,,masks/mask_002.jpg,,,,,,,,,,,,,,,,,,,,,,,,,,,,,,,,,,,,,,,,,,,,,,,,0,4,4,1,1,,,,,,,,,,,,,,,,,,,,,,,,,,,,,,,,,,,,,,,,,
078337,001,2022-11-21_24h48.24.132,Info_measure_main_exp,2022.2.2,Win32,164.5819618,,,,,,,,,,,,,,,,,,,,,,,,,,,,,,7,0.5817,1,,,,,,,,,,,,0,131,5,5,2190,2166,absent_patch/patch0002190.jpg,absent_patch/patch0002166.jpg,,,,,,,,,,,,,,,,,,,,0.050925926,0.090740741,1,0,0,response1disk,6,-0.003703704,-0.013888889,1,0,0,center_square,0,5,5,50,1,,,,,,,,,,,,,,,,,,,,,,,
078337,001,2022-11-21_24h48.24.132,Info_measure_main_exp,2022.2.2,Win32,164.5819618,,,,,,,,,,,,,,,,,,masks/mask_001.jpg,,,,,,,,,,,,,,,,,,,,,,,,,,,,,,,,,,,,,,,,,,,0,0,0,0,1,,,,,,,,,,,,,,,,,,,,,,,,,,,,,,,,,,,,,,,,,,,,,,
078337,001,2022-11-21_24h48.24.132,Info_measure_main_exp,2022.2.2,Win32,164.5819618,,,,,,,,,,,,,,,,,,masks/mask_005.jpg,,,,,,,,,,,,,,,,,,,,,,,,,,,,,,,,,,,,,,,,,,,0,1,1,4,1,,,,,,,,,,,,,,,,,,,,,,,,,,,,,,,,,,,,,,,,,,,,,,
078337,001,2022-11-21_24h48.24.132,Info_measure_main_exp,2022.2.2,Win32,164.5819618,,,,,,,,,,,,,,,,,,masks/mask_003.jpg,,,,,,,,,,,,,,,,,,,,,,,,,,,,,,,,,,,,,,,,,,,0,2,2,2,1,,,,,,,,,,,,,,,,,,,,,,,,,,,,,,,,,,,,,,,,,,,,,,
078337,001,2022-11-21_24h48.24.132,Info_measure_main_exp,2022.2.2,Win32,164.5819618,,,,,,,,,,,,,,,,,,masks/mask_004.jpg,,,,,,,,,,,,,,,,,,,,,,,,,,,,,,,,,,,,,,,,,,,0,3,3,3,1,,,,,,,,,,,,,,,,,,,,,,,,,,,,,,,,,,,,,,,,,,,,,,
078337,001,2022-11-21_24h48.24.132,Info_measure_main_exp,2022.2.2,Win32,164.5819618,,,,,,,,,,,,,,,,,,masks/mask_002.jpg,,,,,,,,,,,,,,,,,,,,,,,,,,,,,,,,,,,,,,,,,,,0,4,4,1,1,,,,,,,,,,,,,,,,,,,,,,,,,,,,,,,,,,,,,,,,,,,,,,
078337,001,2022-11-21_24h48.24.132,Info_measure_main_exp,2022.2.2,Win32,164.5819618,,,,,,,,,,,,,,,,,,masks/mask_003.jpg,,,,,,,,,,,,,,,,,,,,,,,,,,,,,,,,,,,,,,,,,,,,,,,,0,0,0,2,1,,,,,,,,,,,,,,,,,,,,,,,,,,,,,,,,,,,,,,,,,
078337,001,2022-11-21_24h48.24.132,Info_measure_main_exp,2022.2.2,Win32,164.5819618,,,,,,,,,,,,,,,,,,masks/mask_005.jpg,,,,,,,,,,,,,,,,,,,,,,,,,,,,,,,,,,,,,,,,,,,,,,,,0,1,1,4,1,,,,,,,,,,,,,,,,,,,,,,,,,,,,,,,,,,,,,,,,,
078337,001,2022-11-21_24h48.24.132,Info_measure_main_exp,2022.2.2,Win32,164.5819618,,,,,,,,,,,,,,,,,,masks/mask_004.jpg,,,,,,,,,,,,,,,,,,,,,,,,,,,,,,,,,,,,,,,,,,,,,,,,0,2,2,3,1,,,,,,,,,,,,,,,,,,,,,,,,,,,,,,,,,,,,,,,,,
078337,001,2022-11-21_24h48.24.132,Info_measure_main_exp,2022.2.2,Win32,164.5819618,,,,,,,,,,,,,,,,,,masks/mask_001.jpg,,,,,,,,,,,,,,,,,,,,,,,,,,,,,,,,,,,,,,,,,,,,,,,,0,3,3,0,1,,,,,,,,,,,,,,,,,,,,,,,,,,,,,,,,,,,,,,,,,
078337,001,2022-11-21_24h48.24.132,Info_measure_main_exp,2022.2.2,Win32,164.5819618,,,,,,,,,,,,,,,,,,masks/mask_002.jpg,,,,,,,,,,,,,,,,,,,,,,,,,,,,,,,,,,,,,,,,,,,,,,,,0,4,4,1,1,,,,,,,,,,,,,,,,,,,,,,,,,,,,,,,,,,,,,,,,,
078337,001,2022-11-21_24h48.24.132,Info_measure_main_exp,2022.2.2,Win32,164.5819618,,,,,,,,,,,,,,,,,,,,,,,,,,,,,,7,0.388,1,,,,,,,,,,,,0,131,5,5,2082,2238,absent_patch/patch0002082.jpg,absent_patch/patch0002238.jpg,,,,,,,,,,,,,,,,,,,,0.044444444,0.082407407,1,0,0,response1disk,7,-0.005555556,-0.005555556,1,0,0,center_square,0,6,6,22,1,,,,,,,,,,,,,,,,,,,,,,,
078337,001,2022-11-21_24h48.24.132,Info_measure_main_exp,2022.2.2,Win32,164.5819618,,,,,,,,,,,,,,,,,,masks/mask_005.jpg,,,,,,,,,,,,,,,,,,,,,,,,,,,,,,,,,,,,,,,,,,,0,0,0,4,1,,,,,,,,,,,,,,,,,,,,,,,,,,,,,,,,,,,,,,,,,,,,,,
078337,001,2022-11-21_24h48.24.132,Info_measure_main_exp,2022.2.2,Win32,164.5819618,,,,,,,,,,,,,,,,,,masks/mask_001.jpg,,,,,,,,,,,,,,,,,,,,,,,,,,,,,,,,,,,,,,,,,,,0,1,1,0,1,,,,,,,,,,,,,,,,,,,,,,,,,,,,,,,,,,,,,,,,,,,,,,
078337,001,2022-11-21_24h48.24.132,Info_measure_main_exp,2022.2.2,Win32,164.5819618,,,,,,,,,,,,,,,,,,masks/mask_004.jpg,,,,,,,,,,,,,,,,,,,,,,,,,,,,,,,,,,,,,,,,,,,0,2,2,3,1,,,,,,,,,,,,,,,,,,,,,,,,,,,,,,,,,,,,,,,,,,,,,,
078337,001,2022-11-21_24h48.24.132,Info_measure_main_exp,2022.2.2,Win32,164.5819618,,,,,,,,,,,,,,,,,,masks/mask_003.jpg,,,,,,,,,,,,,,,,,,,,,,,,,,,,,,,,,,,,,,,,,,,0,3,3,2,1,,,,,,,,,,,,,,,,,,,,,,,,,,,,,,,,,,,,,,,,,,,,,,
078337,001,2022-11-21_24h48.24.132,Info_measure_main_exp,2022.2.2,Win32,164.5819618,,,,,,,,,,,,,,,,,,masks/mask_002.jpg,,,,,,,,,,,,,,,,,,,,,,,,,,,,,,,,,,,,,,,,,,,0,4,4,1,1,,,,,,,,,,,,,,,,,,,,,,,,,,,,,,,,,,,,,,,,,,,,,,
078337,001,2022-11-21_24h48.24.132,Info_measure_main_exp,2022.2.2,Win32,164.5819618,,,,,,,,,,,,,,,,,,masks/mask_001.jpg,,,,,,,,,,,,,,,,,,,,,,,,,,,,,,,,,,,,,,,,,,,,,,,,0,0,0,0,1,,,,,,,,,,,,,,,,,,,,,,,,,,,,,,,,,,,,,,,,,
078337,001,2022-11-21_24h48.24.132,Info_measure_main_exp,2022.2.2,Win32,164.5819618,,,,,,,,,,,,,,,,,,masks/mask_002.jpg,,,,,,,,,,,,,,,,,,,,,,,,,,,,,,,,,,,,,,,,,,,,,,,,0,1,1,1,1,,,,,,,,,,,,,,,,,,,,,,,,,,,,,,,,,,,,,,,,,
078337,001,2022-11-21_24h48.24.132,Info_measure_main_exp,2022.2.2,Win32,164.5819618,,,,,,,,,,,,,,,,,,masks/mask_005.jpg,,,,,,,,,,,,,,,,,,,,,,,,,,,,,,,,,,,,,,,,,,,,,,,,0,2,2,4,1,,,,,,,,,,,,,,,,,,,,,,,,,,,,,,,,,,,,,,,,,
078337,001,2022-11-21_24h48.24.132,Info_measure_main_exp,2022.2.2,Win32,164.5819618,,,,,,,,,,,,,,,,,,masks/mask_004.jpg,,,,,,,,,,,,,,,,,,,,,,,,,,,,,,,,,,,,,,,,,,,,,,,,0,3,3,3,1,,,,,,,,,,,,,,,,,,,,,,,,,,,,,,,,,,,,,,,,,
078337,001,2022-11-21_24h48.24.132,Info_measure_main_exp,2022.2.2,Win32,164.5819618,,,,,,,,,,,,,,,,,,masks/mask_003.jpg,,,,,,,,,,,,,,,,,,,,,,,,,,,,,,,,,,,,,,,,,,,,,,,,0,4,4,2,1,,,,,,,,,,,,,,,,,,,,,,,,,,,,,,,,,,,,,,,,,
078337,001,2022-11-21_24h48.24.132,Info_measure_main_exp,2022.2.2,Win32,164.5819618,,,,,,,,,,,,,,,,,,,,,,,,,,,,,,7,0.5614,1,,,,,,,,,,,,0,131,5,5,2274,2082,absent_patch/patch0002274.jpg,absent_patch/patch0002082.jpg,,,,,,,,,,,,,,,,,,,,0.037962963,0.065740741,1,0,0,response1disk,8,0.00462963,-0.005555556,1,0,0,center_square,0,7,7,100,1,,,,,,,,,,,,,,,,,,,,,,,
078337,001,2022-11-21_24h48.24.132,Info_measure_main_exp,2022.2.2,Win32,164.5819618,,,,,,,,,,,,,,,,,,masks/mask_001.jpg,,,,,,,,,,,,,,,,,,,,,,,,,,,,,,,,,,,,,,,,,,,0,0,0,0,1,,,,,,,,,,,,,,,,,,,,,,,,,,,,,,,,,,,,,,,,,,,,,,
078337,001,2022-11-21_24h48.24.132,Info_measure_main_exp,2022.2.2,Win32,164.5819618,,,,,,,,,,,,,,,,,,masks/mask_004.jpg,,,,,,,,,,,,,,,,,,,,,,,,,,,,,,,,,,,,,,,,,,,0,1,1,3,1,,,,,,,,,,,,,,,,,,,,,,,,,,,,,,,,,,,,,,,,,,,,,,
078337,001,2022-11-21_24h48.24.132,Info_measure_main_exp,2022.2.2,Win32,164.5819618,,,,,,,,,,,,,,,,,,masks/mask_003.jpg,,,,,,,,,,,,,,,,,,,,,,,,,,,,,,,,,,,,,,,,,,,0,2,2,2,1,,,,,,,,,,,,,,,,,,,,,,,,,,,,,,,,,,,,,,,,,,,,,,
078337,001,2022-11-21_24h48.24.132,Info_measure_main_exp,2022.2.2,Win32,164.5819618,,,,,,,,,,,,,,,,,,masks/mask_005.jpg,,,,,,,,,,,,,,,,,,,,,,,,,,,,,,,,,,,,,,,,,,,0,3,3,4,1,,,,,,,,,,,,,,,,,,,,,,,,,,,,,,,,,,,,,,,,,,,,,,
078337,001,2022-11-21_24h48.24.132,Info_measure_main_exp,2022.2.2,Win32,164.5819618,,,,,,,,,,,,,,,,,,masks/mask_002.jpg,,,,,,,,,,,,,,,,,,,,,,,,,,,,,,,,,,,,,,,,,,,0,4,4,1,1,,,,,,,,,,,,,,,,,,,,,,,,,,,,,,,,,,,,,,,,,,,,,,
078337,001,2022-11-21_24h48.24.132,Info_measure_main_exp,2022.2.2,Win32,164.5819618,,,,,,,,,,,,,,,,,,masks/mask_003.jpg,,,,,,,,,,,,,,,,,,,,,,,,,,,,,,,,,,,,,,,,,,,,,,,,0,0,0,2,1,,,,,,,,,,,,,,,,,,,,,,,,,,,,,,,,,,,,,,,,,
078337,001,2022-11-21_24h48.24.132,Info_measure_main_exp,2022.2.2,Win32,164.5819618,,,,,,,,,,,,,,,,,,masks/mask_004.jpg,,,,,,,,,,,,,,,,,,,,,,,,,,,,,,,,,,,,,,,,,,,,,,,,0,1,1,3,1,,,,,,,,,,,,,,,,,,,,,,,,,,,,,,,,,,,,,,,,,
078337,001,2022-11-21_24h48.24.132,Info_measure_main_exp,2022.2.2,Win32,164.5819618,,,,,,,,,,,,,,,,,,masks/mask_005.jpg,,,,,,,,,,,,,,,,,,,,,,,,,,,,,,,,,,,,,,,,,,,,,,,,0,2,2,4,1,,,,,,,,,,,,,,,,,,,,,,,,,,,,,,,,,,,,,,,,,
078337,001,2022-11-21_24h48.24.132,Info_measure_main_exp,2022.2.2,Win32,164.5819618,,,,,,,,,,,,,,,,,,masks/mask_001.jpg,,,,,,,,,,,,,,,,,,,,,,,,,,,,,,,,,,,,,,,,,,,,,,,,0,3,3,0,1,,,,,,,,,,,,,,,,,,,,,,,,,,,,,,,,,,,,,,,,,
078337,001,2022-11-21_24h48.24.132,Info_measure_main_exp,2022.2.2,Win32,164.5819618,,,,,,,,,,,,,,,,,,masks/mask_002.jpg,,,,,,,,,,,,,,,,,,,,,,,,,,,,,,,,,,,,,,,,,,,,,,,,0,4,4,1,1,,,,,,,,,,,,,,,,,,,,,,,,,,,,,,,,,,,,,,,,,
078337,001,2022-11-21_24h48.24.132,Info_measure_main_exp,2022.2.2,Win32,164.5819618,,,,,,,,,,,,,,,,,,,,,,,,,,,,,,6,0.6929,1,,,,,,,,,,,,0,131,5,5,2190,1986,absent_patch/patch0002190.jpg,absent_patch/patch0001986.jpg,,,,,,,,,,,,,,,,,,,,0.09537037,0.027777778,1,0,0,response1disk,9,-0.001851852,-0.013888889,1,0,0,center_square,0,8,8,111,1,,,,,,,,,,,,,,,,,,,,,,,
078337,001,2022-11-21_24h48.24.132,Info_measure_main_exp,2022.2.2,Win32,164.5819618,,,,,,,,,,,,,,,,,,masks/mask_003.jpg,,,,,,,,,,,,,,,,,,,,,,,,,,,,,,,,,,,,,,,,,,,0,0,0,2,1,,,,,,,,,,,,,,,,,,,,,,,,,,,,,,,,,,,,,,,,,,,,,,
078337,001,2022-11-21_24h48.24.132,Info_measure_main_exp,2022.2.2,Win32,164.5819618,,,,,,,,,,,,,,,,,,masks/mask_002.jpg,,,,,,,,,,,,,,,,,,,,,,,,,,,,,,,,,,,,,,,,,,,0,1,1,1,1,,,,,,,,,,,,,,,,,,,,,,,,,,,,,,,,,,,,,,,,,,,,,,
078337,001,2022-11-21_24h48.24.132,Info_measure_main_exp,2022.2.2,Win32,164.5819618,,,,,,,,,,,,,,,,,,masks/mask_005.jpg,,,,,,,,,,,,,,,,,,,,,,,,,,,,,,,,,,,,,,,,,,,0,2,2,4,1,,,,,,,,,,,,,,,,,,,,,,,,,,,,,,,,,,,,,,,,,,,,,,
078337,001,2022-11-21_24h48.24.132,Info_measure_main_exp,2022.2.2,Win32,164.5819618,,,,,,,,,,,,,,,,,,masks/mask_004.jpg,,,,,,,,,,,,,,,,,,,,,,,,,,,,,,,,,,,,,,,,,,,0,3,3,3,1,,,,,,,,,,,,,,,,,,,,,,,,,,,,,,,,,,,,,,,,,,,,,,
078337,001,2022-11-21_24h48.24.132,Info_measure_main_exp,2022.2.2,Win32,164.5819618,,,,,,,,,,,,,,,,,,masks/mask_001.jpg,,,,,,,,,,,,,,,,,,,,,,,,,,,,,,,,,,,,,,,,,,,0,4,4,0,1,,,,,,,,,,,,,,,,,,,,,,,,,,,,,,,,,,,,,,,,,,,,,,
078337,001,2022-11-21_24h48.24.132,Info_measure_main_exp,2022.2.2,Win32,164.5819618,,,,,,,,,,,,,,,,,,masks/mask_002.jpg,,,,,,,,,,,,,,,,,,,,,,,,,,,,,,,,,,,,,,,,,,,,,,,,0,0,0,1,1,,,,,,,,,,,,,,,,,,,,,,,,,,,,,,,,,,,,,,,,,
078337,001,2022-11-21_24h48.24.132,Info_measure_main_exp,2022.2.2,Win32,164.5819618,,,,,,,,,,,,,,,,,,masks/mask_005.jpg,,,,,,,,,,,,,,,,,,,,,,,,,,,,,,,,,,,,,,,,,,,,,,,,0,1,1,4,1,,,,,,,,,,,,,,,,,,,,,,,,,,,,,,,,,,,,,,,,,
078337,001,2022-11-21_24h48.24.132,Info_measure_main_exp,2022.2.2,Win32,164.5819618,,,,,,,,,,,,,,,,,,masks/mask_004.jpg,,,,,,,,,,,,,,,,,,,,,,,,,,,,,,,,,,,,,,,,,,,,,,,,0,2,2,3,1,,,,,,,,,,,,,,,,,,,,,,,,,,,,,,,,,,,,,,,,,
078337,001,2022-11-21_24h48.24.132,Info_measure_main_exp,2022.2.2,Win32,164.5819618,,,,,,,,,,,,,,,,,,masks/mask_001.jpg,,,,,,,,,,,,,,,,,,,,,,,,,,,,,,,,,,,,,,,,,,,,,,,,0,3,3,0,1,,,,,,,,,,,,,,,,,,,,,,,,,,,,,,,,,,,,,,,,,
078337,001,2022-11-21_24h48.24.132,Info_measure_main_exp,2022.2.2,Win32,164.5819618,,,,,,,,,,,,,,,,,,masks/mask_003.jpg,,,,,,,,,,,,,,,,,,,,,,,,,,,,,,,,,,,,,,,,,,,,,,,,0,4,4,2,1,,,,,,,,,,,,,,,,,,,,,,,,,,,,,,,,,,,,,,,,,
078337,001,2022-11-21_24h48.24.132,Info_measure_main_exp,2022.2.2,Win32,164.5819618,,,,,,,,,,,,,,,,,,,,,,,,,,,,,,4,1.297,1,,,,,,,,,,,,0,131,5,5,2082,1974,absent_patch/patch0002082.jpg,absent_patch/patch0001974.jpg,,,,,,,,,,,,,,,,,,,,0.047222222,-0.07962963,1,0,0,response3disk,10,-0.003703704,-0.015740741,1,0,0,center_square,0,9,9,26,1,,,,,,,,,,,,,,,,,,,,,,,
078337,001,2022-11-21_24h48.24.132,Info_measure_main_exp,2022.2.2,Win32,164.5819618,,,,,,,,,,,,,,,,,,masks/mask_001.jpg,,,,,,,,,,,,,,,,,,,,,,,,,,,,,,,,,,,,,,,,,,,0,0,0,0,1,,,,,,,,,,,,,,,,,,,,,,,,,,,,,,,,,,,,,,,,,,,,,,
078337,001,2022-11-21_24h48.24.132,Info_measure_main_exp,2022.2.2,Win32,164.5819618,,,,,,,,,,,,,,,,,,masks/mask_005.jpg,,,,,,,,,,,,,,,,,,,,,,,,,,,,,,,,,,,,,,,,,,,0,1,1,4,1,,,,,,,,,,,,,,,,,,,,,,,,,,,,,,,,,,,,,,,,,,,,,,
078337,001,2022-11-21_24h48.24.132,Info_measure_main_exp,2022.2.2,Win32,164.5819618,,,,,,,,,,,,,,,,,,masks/mask_004.jpg,,,,,,,,,,,,,,,,,,,,,,,,,,,,,,,,,,,,,,,,,,,0,2,2,3,1,,,,,,,,,,,,,,,,,,,,,,,,,,,,,,,,,,,,,,,,,,,,,,
078337,001,2022-11-21_24h48.24.132,Info_measure_main_exp,2022.2.2,Win32,164.5819618,,,,,,,,,,,,,,,,,,masks/mask_003.jpg,,,,,,,,,,,,,,,,,,,,,,,,,,,,,,,,,,,,,,,,,,,0,3,3,2,1,,,,,,,,,,,,,,,,,,,,,,,,,,,,,,,,,,,,,,,,,,,,,,
078337,001,2022-11-21_24h48.24.132,Info_measure_main_exp,2022.2.2,Win32,164.5819618,,,,,,,,,,,,,,,,,,masks/mask_002.jpg,,,,,,,,,,,,,,,,,,,,,,,,,,,,,,,,,,,,,,,,,,,0,4,4,1,1,,,,,,,,,,,,,,,,,,,,,,,,,,,,,,,,,,,,,,,,,,,,,,
078337,001,2022-11-21_24h48.24.132,Info_measure_main_exp,2022.2.2,Win32,164.5819618,,,,,,,,,,,,,,,,,,masks/mask_002.jpg,,,,,,,,,,,,,,,,,,,,,,,,,,,,,,,,,,,,,,,,,,,,,,,,0,0,0,1,1,,,,,,,,,,,,,,,,,,,,,,,,,,,,,,,,,,,,,,,,,
078337,001,2022-11-21_24h48.24.132,Info_measure_main_exp,2022.2.2,Win32,164.5819618,,,,,,,,,,,,,,,,,,masks/mask_004.jpg,,,,,,,,,,,,,,,,,,,,,,,,,,,,,,,,,,,,,,,,,,,,,,,,0,1,1,3,1,,,,,,,,,,,,,,,,,,,,,,,,,,,,,,,,,,,,,,,,,
078337,001,2022-11-21_24h48.24.132,Info_measure_main_exp,2022.2.2,Win32,164.5819618,,,,,,,,,,,,,,,,,,masks/mask_003.jpg,,,,,,,,,,,,,,,,,,,,,,,,,,,,,,,,,,,,,,,,,,,,,,,,0,2,2,2,1,,,,,,,,,,,,,,,,,,,,,,,,,,,,,,,,,,,,,,,,,
078337,001,2022-11-21_24h48.24.132,Info_measure_main_exp,2022.2.2,Win32,164.5819618,,,,,,,,,,,,,,,,,,masks/mask_005.jpg,,,,,,,,,,,,,,,,,,,,,,,,,,,,,,,,,,,,,,,,,,,,,,,,0,3,3,4,1,,,,,,,,,,,,,,,,,,,,,,,,,,,,,,,,,,,,,,,,,
078337,001,2022-11-21_24h48.24.132,Info_measure_main_exp,2022.2.2,Win32,164.5819618,,,,,,,,,,,,,,,,,,masks/mask_001.jpg,,,,,,,,,,,,,,,,,,,,,,,,,,,,,,,,,,,,,,,,,,,,,,,,0,4,4,0,1,,,,,,,,,,,,,,,,,,,,,,,,,,,,,,,,,,,,,,,,,
078337,001,2022-11-21_24h48.24.132,Info_measure_main_exp,2022.2.2,Win32,164.5819618,,,,,,,,,,,,,,,,,,,,,,,,,,,,,,7,0.5635,1,,,,,,,,,,,,0,131,5,5,2154,1974,absent_patch/patch0002154.jpg,absent_patch/patch0001974.jpg,,,,,,,,,,,,,,,,,,,,0.035185185,0.057407407,1,0,0,response1disk,11,0.008333333,0.001851852,1,0,0,center_square,0,10,10,82,1,,,,,,,,,,,,,,,,,,,,,,,
078337,001,2022-11-21_24h48.24.132,Info_measure_main_exp,2022.2.2,Win32,164.5819618,,,,,,,,,,,,,,,,,,masks/mask_002.jpg,,,,,,,,,,,,,,,,,,,,,,,,,,,,,,,,,,,,,,,,,,,0,0,0,1,1,,,,,,,,,,,,,,,,,,,,,,,,,,,,,,,,,,,,,,,,,,,,,,
078337,001,2022-11-21_24h48.24.132,Info_measure_main_exp,2022.2.2,Win32,164.5819618,,,,,,,,,,,,,,,,,,masks/mask_004.jpg,,,,,,,,,,,,,,,,,,,,,,,,,,,,,,,,,,,,,,,,,,,0,1,1,3,1,,,,,,,,,,,,,,,,,,,,,,,,,,,,,,,,,,,,,,,,,,,,,,
078337,001,2022-11-21_24h48.24.132,Info_measure_main_exp,2022.2.2,Win32,164.5819618,,,,,,,,,,,,,,,,,,masks/mask_003.jpg,,,,,,,,,,,,,,,,,,,,,,,,,,,,,,,,,,,,,,,,,,,0,2,2,2,1,,,,,,,,,,,,,,,,,,,,,,,,,,,,,,,,,,,,,,,,,,,,,,
078337,001,2022-11-21_24h48.24.132,Info_measure_main_exp,2022.2.2,Win32,164.5819618,,,,,,,,,,,,,,,,,,masks/mask_001.jpg,,,,,,,,,,,,,,,,,,,,,,,,,,,,,,,,,,,,,,,,,,,0,3,3,0,1,,,,,,,,,,,,,,,,,,,,,,,,,,,,,,,,,,,,,,,,,,,,,,
078337,001,2022-11-21_24h48.24.132,Info_measure_main_exp,2022.2.2,Win32,164.5819618,,,,,,,,,,,,,,,,,,masks/mask_005.jpg,,,,,,,,,,,,,,,,,,,,,,,,,,,,,,,,,,,,,,,,,,,0,4,4,4,1,,,,,,,,,,,,,,,,,,,,,,,,,,,,,,,,,,,,,,,,,,,,,,
078337,001,2022-11-21_24h48.24.132,Info_measure_main_exp,2022.2.2,Win32,164.5819618,,,,,,,,,,,,,,,,,,masks/mask_003.jpg,,,,,,,,,,,,,,,,,,,,,,,,,,,,,,,,,,,,,,,,,,,,,,,,0,0,0,2,1,,,,,,,,,,,,,,,,,,,,,,,,,,,,,,,,,,,,,,,,,
078337,001,2022-11-21_24h48.24.132,Info_measure_main_exp,2022.2.2,Win32,164.5819618,,,,,,,,,,,,,,,,,,masks/mask_005.jpg,,,,,,,,,,,,,,,,,,,,,,,,,,,,,,,,,,,,,,,,,,,,,,,,0,1,1,4,1,,,,,,,,,,,,,,,,,,,,,,,,,,,,,,,,,,,,,,,,,
078337,001,2022-11-21_24h48.24.132,Info_measure_main_exp,2022.2.2,Win32,164.5819618,,,,,,,,,,,,,,,,,,masks/mask_001.jpg,,,,,,,,,,,,,,,,,,,,,,,,,,,,,,,,,,,,,,,,,,,,,,,,0,2,2,0,1,,,,,,,,,,,,,,,,,,,,,,,,,,,,,,,,,,,,,,,,,
078337,001,2022-11-21_24h48.24.132,Info_measure_main_exp,2022.2.2,Win32,164.5819618,,,,,,,,,,,,,,,,,,masks/mask_002.jpg,,,,,,,,,,,,,,,,,,,,,,,,,,,,,,,,,,,,,,,,,,,,,,,,0,3,3,1,1,,,,,,,,,,,,,,,,,,,,,,,,,,,,,,,,,,,,,,,,,
078337,001,2022-11-21_24h48.24.132,Info_measure_main_exp,2022.2.2,Win32,164.5819618,,,,,,,,,,,,,,,,,,masks/mask_004.jpg,,,,,,,,,,,,,,,,,,,,,,,,,,,,,,,,,,,,,,,,,,,,,,,,0,4,4,3,1,,,,,,,,,,,,,,,,,,,,,,,,,,,,,,,,,,,,,,,,,
078337,001,2022-11-21_24h48.24.132,Info_measure_main_exp,2022.2.2,Win32,164.5819618,,,,,,,,,,,,,,,,,,,,,,,,,,,,,,6,0.6164,1,,,,,,,,,,,,0,131,5,5,1974,2166,absent_patch/patch0001974.jpg,absent_patch/patch0002166.jpg,,,,,,,,,,,,,,,,,,,,0.038888889,0.019444444,1,0,0,response1disk,12,-0.003703704,-0.001851852,1,0,0,center_square,0,11,11,77,1,,,,,,,,,,,,,,,,,,,,,,,
078337,001,2022-11-21_24h48.24.132,Info_measure_main_exp,2022.2.2,Win32,164.5819618,,,,,,,,,,,,,,,,,,masks/mask_005.jpg,,,,,,,,,,,,,,,,,,,,,,,,,,,,,,,,,,,,,,,,,,,0,0,0,4,1,,,,,,,,,,,,,,,,,,,,,,,,,,,,,,,,,,,,,,,,,,,,,,
078337,001,2022-11-21_24h48.24.132,Info_measure_main_exp,2022.2.2,Win32,164.5819618,,,,,,,,,,,,,,,,,,masks/mask_003.jpg,,,,,,,,,,,,,,,,,,,,,,,,,,,,,,,,,,,,,,,,,,,0,1,1,2,1,,,,,,,,,,,,,,,,,,,,,,,,,,,,,,,,,,,,,,,,,,,,,,
078337,001,2022-11-21_24h48.24.132,Info_measure_main_exp,2022.2.2,Win32,164.5819618,,,,,,,,,,,,,,,,,,masks/mask_001.jpg,,,,,,,,,,,,,,,,,,,,,,,,,,,,,,,,,,,,,,,,,,,0,2,2,0,1,,,,,,,,,,,,,,,,,,,,,,,,,,,,,,,,,,,,,,,,,,,,,,
078337,001,2022-11-21_24h48.24.132,Info_measure_main_exp,2022.2.2,Win32,164.5819618,,,,,,,,,,,,,,,,,,masks/mask_004.jpg,,,,,,,,,,,,,,,,,,,,,,,,,,,,,,,,,,,,,,,,,,,0,3,3,3,1,,,,,,,,,,,,,,,,,,,,,,,,,,,,,,,,,,,,,,,,,,,,,,
078337,001,2022-11-21_24h48.24.132,Info_measure_main_exp,2022.2.2,Win32,164.5819618,,,,,,,,,,,,,,,,,,masks/mask_002.jpg,,,,,,,,,,,,,,,,,,,,,,,,,,,,,,,,,,,,,,,,,,,0,4,4,1,1,,,,,,,,,,,,,,,,,,,,,,,,,,,,,,,,,,,,,,,,,,,,,,
078337,001,2022-11-21_24h48.24.132,Info_measure_main_exp,2022.2.2,Win32,164.5819618,,,,,,,,,,,,,,,,,,masks/mask_001.jpg,,,,,,,,,,,,,,,,,,,,,,,,,,,,,,,,,,,,,,,,,,,,,,,,0,0,0,0,1,,,,,,,,,,,,,,,,,,,,,,,,,,,,,,,,,,,,,,,,,
078337,001,2022-11-21_24h48.24.132,Info_measure_main_exp,2022.2.2,Win32,164.5819618,,,,,,,,,,,,,,,,,,masks/mask_004.jpg,,,,,,,,,,,,,,,,,,,,,,,,,,,,,,,,,,,,,,,,,,,,,,,,0,1,1,3,1,,,,,,,,,,,,,,,,,,,,,,,,,,,,,,,,,,,,,,,,,
078337,001,2022-11-21_24h48.24.132,Info_measure_main_exp,2022.2.2,Win32,164.5819618,,,,,,,,,,,,,,,,,,masks/mask_002.jpg,,,,,,,,,,,,,,,,,,,,,,,,,,,,,,,,,,,,,,,,,,,,,,,,0,2,2,1,1,,,,,,,,,,,,,,,,,,,,,,,,,,,,,,,,,,,,,,,,,
078337,001,2022-11-21_24h48.24.132,Info_measure_main_exp,2022.2.2,Win32,164.5819618,,,,,,,,,,,,,,,,,,masks/mask_005.jpg,,,,,,,,,,,,,,,,,,,,,,,,,,,,,,,,,,,,,,,,,,,,,,,,0,3,3,4,1,,,,,,,,,,,,,,,,,,,,,,,,,,,,,,,,,,,,,,,,,
078337,001,2022-11-21_24h48.24.132,Info_measure_main_exp,2022.2.2,Win32,164.5819618,,,,,,,,,,,,,,,,,,masks/mask_003.jpg,,,,,,,,,,,,,,,,,,,,,,,,,,,,,,,,,,,,,,,,,,,,,,,,0,4,4,2,1,,,,,,,,,,,,,,,,,,,,,,,,,,,,,,,,,,,,,,,,,
078337,001,2022-11-21_24h48.24.132,Info_measure_main_exp,2022.2.2,Win32,164.5819618,,,,,,,,,,,,,,,,,,,,,,,,,,,,,,4,0.7198,1,,,,,,,,,,,,0,131,5,5,2154,2238,absent_patch/patch0002154.jpg,absent_patch/patch0002238.jpg,,,,,,,,,,,,,,,,,,,,0.02037037,-0.030555556,1,0,0,response3disk,13,0.008333333,-0.013888889,1,0,0,center_square,0,12,12,21,1,,,,,,,,,,,,,,,,,,,,,,,
078337,001,2022-11-21_24h48.24.132,Info_measure_main_exp,2022.2.2,Win32,164.5819618,,,,,,,,,,,,,,,,,,masks/mask_003.jpg,,,,,,,,,,,,,,,,,,,,,,,,,,,,,,,,,,,,,,,,,,,0,0,0,2,1,,,,,,,,,,,,,,,,,,,,,,,,,,,,,,,,,,,,,,,,,,,,,,
078337,001,2022-11-21_24h48.24.132,Info_measure_main_exp,2022.2.2,Win32,164.5819618,,,,,,,,,,,,,,,,,,masks/mask_001.jpg,,,,,,,,,,,,,,,,,,,,,,,,,,,,,,,,,,,,,,,,,,,0,1,1,0,1,,,,,,,,,,,,,,,,,,,,,,,,,,,,,,,,,,,,,,,,,,,,,,
078337,001,2022-11-21_24h48.24.132,Info_measure_main_exp,2022.2.2,Win32,164.5819618,,,,,,,,,,,,,,,,,,masks/mask_004.jpg,,,,,,,,,,,,,,,,,,,,,,,,,,,,,,,,,,,,,,,,,,,0,2,2,3,1,,,,,,,,,,,,,,,,,,,,,,,,,,,,,,,,,,,,,,,,,,,,,,
078337,001,2022-11-21_24h48.24.132,Info_measure_main_exp,2022.2.2,Win32,164.5819618,,,,,,,,,,,,,,,,,,masks/mask_005.jpg,,,,,,,,,,,,,,,,,,,,,,,,,,,,,,,,,,,,,,,,,,,0,3,3,4,1,,,,,,,,,,,,,,,,,,,,,,,,,,,,,,,,,,,,,,,,,,,,,,
078337,001,2022-11-21_24h48.24.132,Info_measure_main_exp,2022.2.2,Win32,164.5819618,,,,,,,,,,,,,,,,,,masks/mask_002.jpg,,,,,,,,,,,,,,,,,,,,,,,,,,,,,,,,,,,,,,,,,,,0,4,4,1,1,,,,,,,,,,,,,,,,,,,,,,,,,,,,,,,,,,,,,,,,,,,,,,
078337,001,2022-11-21_24h48.24.132,Info_measure_main_exp,2022.2.2,Win32,164.5819618,,,,,,,,,,,,,,,,,,masks/mask_004.jpg,,,,,,,,,,,,,,,,,,,,,,,,,,,,,,,,,,,,,,,,,,,,,,,,0,0,0,3,1,,,,,,,,,,,,,,,,,,,,,,,,,,,,,,,,,,,,,,,,,
078337,001,2022-11-21_24h48.24.132,Info_measure_main_exp,2022.2.2,Win32,164.5819618,,,,,,,,,,,,,,,,,,masks/mask_001.jpg,,,,,,,,,,,,,,,,,,,,,,,,,,,,,,,,,,,,,,,,,,,,,,,,0,1,1,0,1,,,,,,,,,,,,,,,,,,,,,,,,,,,,,,,,,,,,,,,,,
078337,001,2022-11-21_24h48.24.132,Info_measure_main_exp,2022.2.2,Win32,164.5819618,,,,,,,,,,,,,,,,,,masks/mask_002.jpg,,,,,,,,,,,,,,,,,,,,,,,,,,,,,,,,,,,,,,,,,,,,,,,,0,2,2,1,1,,,,,,,,,,,,,,,,,,,,,,,,,,,,,,,,,,,,,,,,,
078337,001,2022-11-21_24h48.24.132,Info_measure_main_exp,2022.2.2,Win32,164.5819618,,,,,,,,,,,,,,,,,,masks/mask_005.jpg,,,,,,,,,,,,,,,,,,,,,,,,,,,,,,,,,,,,,,,,,,,,,,,,0,3,3,4,1,,,,,,,,,,,,,,,,,,,,,,,,,,,,,,,,,,,,,,,,,
078337,001,2022-11-21_24h48.24.132,Info_measure_main_exp,2022.2.2,Win32,164.5819618,,,,,,,,,,,,,,,,,,masks/mask_003.jpg,,,,,,,,,,,,,,,,,,,,,,,,,,,,,,,,,,,,,,,,,,,,,,,,0,4,4,2,1,,,,,,,,,,,,,,,,,,,,,,,,,,,,,,,,,,,,,,,,,
078337,001,2022-11-21_24h48.24.132,Info_measure_main_exp,2022.2.2,Win32,164.5819618,,,,,,,,,,,,,,,,,,,,,,,,,,,,,,6,0.552,1,,,,,,,,,,,,0,131,5,5,2274,2250,absent_patch/patch0002274.jpg,absent_patch/patch0002250.jpg,,,,,,,,,,,,,,,,,,,,0.033333333,0.016666667,1,0,0,response1disk,14,0.00462963,-0.001851852,1,0,0,center_square,0,13,13,28,1,,,,,,,,,,,,,,,,,,,,,,,
078337,001,2022-11-21_24h48.24.132,Info_measure_main_exp,2022.2.2,Win32,164.5819618,,,,,,,,,,,,,,,,,,masks/mask_005.jpg,,,,,,,,,,,,,,,,,,,,,,,,,,,,,,,,,,,,,,,,,,,0,0,0,4,1,,,,,,,,,,,,,,,,,,,,,,,,,,,,,,,,,,,,,,,,,,,,,,
078337,001,2022-11-21_24h48.24.132,Info_measure_main_exp,2022.2.2,Win32,164.5819618,,,,,,,,,,,,,,,,,,masks/mask_002.jpg,,,,,,,,,,,,,,,,,,,,,,,,,,,,,,,,,,,,,,,,,,,0,1,1,1,1,,,,,,,,,,,,,,,,,,,,,,,,,,,,,,,,,,,,,,,,,,,,,,
078337,001,2022-11-21_24h48.24.132,Info_measure_main_exp,2022.2.2,Win32,164.5819618,,,,,,,,,,,,,,,,,,masks/mask_004.jpg,,,,,,,,,,,,,,,,,,,,,,,,,,,,,,,,,,,,,,,,,,,0,2,2,3,1,,,,,,,,,,,,,,,,,,,,,,,,,,,,,,,,,,,,,,,,,,,,,,
078337,001,2022-11-21_24h48.24.132,Info_measure_main_exp,2022.2.2,Win32,164.5819618,,,,,,,,,,,,,,,,,,masks/mask_001.jpg,,,,,,,,,,,,,,,,,,,,,,,,,,,,,,,,,,,,,,,,,,,0,3,3,0,1,,,,,,,,,,,,,,,,,,,,,,,,,,,,,,,,,,,,,,,,,,,,,,
078337,001,2022-11-21_24h48.24.132,Info_measure_main_exp,2022.2.2,Win32,164.5819618,,,,,,,,,,,,,,,,,,masks/mask_003.jpg,,,,,,,,,,,,,,,,,,,,,,,,,,,,,,,,,,,,,,,,,,,0,4,4,2,1,,,,,,,,,,,,,,,,,,,,,,,,,,,,,,,,,,,,,,,,,,,,,,
078337,001,2022-11-21_24h48.24.132,Info_measure_main_exp,2022.2.2,Win32,164.5819618,,,,,,,,,,,,,,,,,,masks/mask_001.jpg,,,,,,,,,,,,,,,,,,,,,,,,,,,,,,,,,,,,,,,,,,,,,,,,0,0,0,0,1,,,,,,,,,,,,,,,,,,,,,,,,,,,,,,,,,,,,,,,,,
078337,001,2022-11-21_24h48.24.132,Info_measure_main_exp,2022.2.2,Win32,164.5819618,,,,,,,,,,,,,,,,,,masks/mask_004.jpg,,,,,,,,,,,,,,,,,,,,,,,,,,,,,,,,,,,,,,,,,,,,,,,,0,1,1,3,1,,,,,,,,,,,,,,,,,,,,,,,,,,,,,,,,,,,,,,,,,
078337,001,2022-11-21_24h48.24.132,Info_measure_main_exp,2022.2.2,Win32,164.5819618,,,,,,,,,,,,,,,,,,masks/mask_003.jpg,,,,,,,,,,,,,,,,,,,,,,,,,,,,,,,,,,,,,,,,,,,,,,,,0,2,2,2,1,,,,,,,,,,,,,,,,,,,,,,,,,,,,,,,,,,,,,,,,,
078337,001,2022-11-21_24h48.24.132,Info_measure_main_exp,2022.2.2,Win32,164.5819618,,,,,,,,,,,,,,,,,,masks/mask_002.jpg,,,,,,,,,,,,,,,,,,,,,,,,,,,,,,,,,,,,,,,,,,,,,,,,0,3,3,1,1,,,,,,,,,,,,,,,,,,,,,,,,,,,,,,,,,,,,,,,,,
078337,001,2022-11-21_24h48.24.132,Info_measure_main_exp,2022.2.2,Win32,164.5819618,,,,,,,,,,,,,,,,,,masks/mask_005.jpg,,,,,,,,,,,,,,,,,,,,,,,,,,,,,,,,,,,,,,,,,,,,,,,,0,4,4,4,1,,,,,,,,,,,,,,,,,,,,,,,,,,,,,,,,,,,,,,,,,
078337,001,2022-11-21_24h48.24.132,Info_measure_main_exp,2022.2.2,Win32,164.5819618,,,,,,,,,,,,,,,,,,,,,,,,,,,,,,3,1.2241,1,,,,,,,,,,,,0,131,5,5,1974,2250,absent_patch/patch0001974.jpg,absent_patch/patch0002250.jpg,,,,,,,,,,,,,,,,,,,,-0.017592593,-0.025925926,1,0,0,response5disk,15,-0.006481481,-0.001851852,1,0,0,center_square,0,14,14,55,1,,,,,,,,,,,,,,,,,,,,,,,
078337,001,2022-11-21_24h48.24.132,Info_measure_main_exp,2022.2.2,Win32,164.5819618,,,,,,,,,,,,,,,,,,masks/mask_002.jpg,,,,,,,,,,,,,,,,,,,,,,,,,,,,,,,,,,,,,,,,,,,0,0,0,1,1,,,,,,,,,,,,,,,,,,,,,,,,,,,,,,,,,,,,,,,,,,,,,,
078337,001,2022-11-21_24h48.24.132,Info_measure_main_exp,2022.2.2,Win32,164.5819618,,,,,,,,,,,,,,,,,,masks/mask_001.jpg,,,,,,,,,,,,,,,,,,,,,,,,,,,,,,,,,,,,,,,,,,,0,1,1,0,1,,,,,,,,,,,,,,,,,,,,,,,,,,,,,,,,,,,,,,,,,,,,,,
078337,001,2022-11-21_24h48.24.132,Info_measure_main_exp,2022.2.2,Win32,164.5819618,,,,,,,,,,,,,,,,,,masks/mask_004.jpg,,,,,,,,,,,,,,,,,,,,,,,,,,,,,,,,,,,,,,,,,,,0,2,2,3,1,,,,,,,,,,,,,,,,,,,,,,,,,,,,,,,,,,,,,,,,,,,,,,
078337,001,2022-11-21_24h48.24.132,Info_measure_main_exp,2022.2.2,Win32,164.5819618,,,,,,,,,,,,,,,,,,masks/mask_003.jpg,,,,,,,,,,,,,,,,,,,,,,,,,,,,,,,,,,,,,,,,,,,0,3,3,2,1,,,,,,,,,,,,,,,,,,,,,,,,,,,,,,,,,,,,,,,,,,,,,,
078337,001,2022-11-21_24h48.24.132,Info_measure_main_exp,2022.2.2,Win32,164.5819618,,,,,,,,,,,,,,,,,,masks/mask_005.jpg,,,,,,,,,,,,,,,,,,,,,,,,,,,,,,,,,,,,,,,,,,,0,4,4,4,1,,,,,,,,,,,,,,,,,,,,,,,,,,,,,,,,,,,,,,,,,,,,,,
078337,001,2022-11-21_24h48.24.132,Info_measure_main_exp,2022.2.2,Win32,164.5819618,,,,,,,,,,,,,,,,,,masks/mask_003.jpg,,,,,,,,,,,,,,,,,,,,,,,,,,,,,,,,,,,,,,,,,,,,,,,,0,0,0,2,1,,,,,,,,,,,,,,,,,,,,,,,,,,,,,,,,,,,,,,,,,
078337,001,2022-11-21_24h48.24.132,Info_measure_main_exp,2022.2.2,Win32,164.5819618,,,,,,,,,,,,,,,,,,masks/mask_002.jpg,,,,,,,,,,,,,,,,,,,,,,,,,,,,,,,,,,,,,,,,,,,,,,,,0,1,1,1,1,,,,,,,,,,,,,,,,,,,,,,,,,,,,,,,,,,,,,,,,,
078337,001,2022-11-21_24h48.24.132,Info_measure_main_exp,2022.2.2,Win32,164.5819618,,,,,,,,,,,,,,,,,,masks/mask_001.jpg,,,,,,,,,,,,,,,,,,,,,,,,,,,,,,,,,,,,,,,,,,,,,,,,0,2,2,0,1,,,,,,,,,,,,,,,,,,,,,,,,,,,,,,,,,,,,,,,,,
078337,001,2022-11-21_24h48.24.132,Info_measure_main_exp,2022.2.2,Win32,164.5819618,,,,,,,,,,,,,,,,,,masks/mask_005.jpg,,,,,,,,,,,,,,,,,,,,,,,,,,,,,,,,,,,,,,,,,,,,,,,,0,3,3,4,1,,,,,,,,,,,,,,,,,,,,,,,,,,,,,,,,,,,,,,,,,
078337,001,2022-11-21_24h48.24.132,Info_measure_main_exp,2022.2.2,Win32,164.5819618,,,,,,,,,,,,,,,,,,masks/mask_004.jpg,,,,,,,,,,,,,,,,,,,,,,,,,,,,,,,,,,,,,,,,,,,,,,,,0,4,4,3,1,,,,,,,,,,,,,,,,,,,,,,,,,,,,,,,,,,,,,,,,,
078337,001,2022-11-21_24h48.24.132,Info_measure_main_exp,2022.2.2,Win32,164.5819618,,,,,,,,,,,,,,,,,,,,,,,,,,,,,,7,0.5619,1,,,,,,,,,,,,0,131,5,5,2154,2250,absent_patch/patch0002154.jpg,absent_patch/patch0002250.jpg,,,,,,,,,,,,,,,,,,,,0.025925926,0.057407407,1,0,0,response1disk,16,0,0.005555556,1,0,0,center_square,0,15,15,108,1,,,,,,,,,,,,,,,,,,,,,,,
078337,001,2022-11-21_24h48.24.132,Info_measure_main_exp,2022.2.2,Win32,164.5819618,,,,,,,,,,,,,,,,,,masks/mask_002.jpg,,,,,,,,,,,,,,,,,,,,,,,,,,,,,,,,,,,,,,,,,,,0,0,0,1,1,,,,,,,,,,,,,,,,,,,,,,,,,,,,,,,,,,,,,,,,,,,,,,
078337,001,2022-11-21_24h48.24.132,Info_measure_main_exp,2022.2.2,Win32,164.5819618,,,,,,,,,,,,,,,,,,masks/mask_003.jpg,,,,,,,,,,,,,,,,,,,,,,,,,,,,,,,,,,,,,,,,,,,0,1,1,2,1,,,,,,,,,,,,,,,,,,,,,,,,,,,,,,,,,,,,,,,,,,,,,,
078337,001,2022-11-21_24h48.24.132,Info_measure_main_exp,2022.2.2,Win32,164.5819618,,,,,,,,,,,,,,,,,,masks/mask_005.jpg,,,,,,,,,,,,,,,,,,,,,,,,,,,,,,,,,,,,,,,,,,,0,2,2,4,1,,,,,,,,,,,,,,,,,,,,,,,,,,,,,,,,,,,,,,,,,,,,,,
078337,001,2022-11-21_24h48.24.132,Info_measure_main_exp,2022.2.2,Win32,164.5819618,,,,,,,,,,,,,,,,,,masks/mask_004.jpg,,,,,,,,,,,,,,,,,,,,,,,,,,,,,,,,,,,,,,,,,,,0,3,3,3,1,,,,,,,,,,,,,,,,,,,,,,,,,,,,,,,,,,,,,,,,,,,,,,
078337,001,2022-11-21_24h48.24.132,Info_measure_main_exp,2022.2.2,Win32,164.5819618,,,,,,,,,,,,,,,,,,masks/mask_001.jpg,,,,,,,,,,,,,,,,,,,,,,,,,,,,,,,,,,,,,,,,,,,0,4,4,0,1,,,,,,,,,,,,,,,,,,,,,,,,,,,,,,,,,,,,,,,,,,,,,,
078337,001,2022-11-21_24h48.24.132,Info_measure_main_exp,2022.2.2,Win32,164.5819618,,,,,,,,,,,,,,,,,,masks/mask_004.jpg,,,,,,,,,,,,,,,,,,,,,,,,,,,,,,,,,,,,,,,,,,,,,,,,0,0,0,3,1,,,,,,,,,,,,,,,,,,,,,,,,,,,,,,,,,,,,,,,,,
078337,001,2022-11-21_24h48.24.132,Info_measure_main_exp,2022.2.2,Win32,164.5819618,,,,,,,,,,,,,,,,,,masks/mask_002.jpg,,,,,,,,,,,,,,,,,,,,,,,,,,,,,,,,,,,,,,,,,,,,,,,,0,1,1,1,1,,,,,,,,,,,,,,,,,,,,,,,,,,,,,,,,,,,,,,,,,
078337,001,2022-11-21_24h48.24.132,Info_measure_main_exp,2022.2.2,Win32,164.5819618,,,,,,,,,,,,,,,,,,masks/mask_005.jpg,,,,,,,,,,,,,,,,,,,,,,,,,,,,,,,,,,,,,,,,,,,,,,,,0,2,2,4,1,,,,,,,,,,,,,,,,,,,,,,,,,,,,,,,,,,,,,,,,,
078337,001,2022-11-21_24h48.24.132,Info_measure_main_exp,2022.2.2,Win32,164.5819618,,,,,,,,,,,,,,,,,,masks/mask_003.jpg,,,,,,,,,,,,,,,,,,,,,,,,,,,,,,,,,,,,,,,,,,,,,,,,0,3,3,2,1,,,,,,,,,,,,,,,,,,,,,,,,,,,,,,,,,,,,,,,,,
078337,001,2022-11-21_24h48.24.132,Info_measure_main_exp,2022.2.2,Win32,164.5819618,,,,,,,,,,,,,,,,,,masks/mask_001.jpg,,,,,,,,,,,,,,,,,,,,,,,,,,,,,,,,,,,,,,,,,,,,,,,,0,4,4,0,1,,,,,,,,,,,,,,,,,,,,,,,,,,,,,,,,,,,,,,,,,
078337,001,2022-11-21_24h48.24.132,Info_measure_main_exp,2022.2.2,Win32,164.5819618,,,,,,,,,,,,,,,,,,,,,,,,,,,,,,5,0.7318,1,,,,,,,,,,,,0,131,5,5,2250,2238,absent_patch/patch0002250.jpg,absent_patch/patch0002238.jpg,,,,,,,,,,,,,,,,,,,,0.067592593,-0.032407407,1,0,0,response3disk,17,0.006481481,0.001851852,1,0,0,center_square,0,16,16,110,1,,,,,,,,,,,,,,,,,,,,,,,
078337,001,2022-11-21_24h48.24.132,Info_measure_main_exp,2022.2.2,Win32,164.5819618,,,,,,,,,,,,,,,,,,masks/mask_004.jpg,,,,,,,,,,,,,,,,,,,,,,,,,,,,,,,,,,,,,,,,,,,0,0,0,3,1,,,,,,,,,,,,,,,,,,,,,,,,,,,,,,,,,,,,,,,,,,,,,,
078337,001,2022-11-21_24h48.24.132,Info_measure_main_exp,2022.2.2,Win32,164.5819618,,,,,,,,,,,,,,,,,,masks/mask_005.jpg,,,,,,,,,,,,,,,,,,,,,,,,,,,,,,,,,,,,,,,,,,,0,1,1,4,1,,,,,,,,,,,,,,,,,,,,,,,,,,,,,,,,,,,,,,,,,,,,,,
078337,001,2022-11-21_24h48.24.132,Info_measure_main_exp,2022.2.2,Win32,164.5819618,,,,,,,,,,,,,,,,,,masks/mask_003.jpg,,,,,,,,,,,,,,,,,,,,,,,,,,,,,,,,,,,,,,,,,,,0,2,2,2,1,,,,,,,,,,,,,,,,,,,,,,,,,,,,,,,,,,,,,,,,,,,,,,
078337,001,2022-11-21_24h48.24.132,Info_measure_main_exp,2022.2.2,Win32,164.5819618,,,,,,,,,,,,,,,,,,masks/mask_002.jpg,,,,,,,,,,,,,,,,,,,,,,,,,,,,,,,,,,,,,,,,,,,0,3,3,1,1,,,,,,,,,,,,,,,,,,,,,,,,,,,,,,,,,,,,,,,,,,,,,,
078337,001,2022-11-21_24h48.24.132,Info_measure_main_exp,2022.2.2,Win32,164.5819618,,,,,,,,,,,,,,,,,,masks/mask_001.jpg,,,,,,,,,,,,,,,,,,,,,,,,,,,,,,,,,,,,,,,,,,,0,4,4,0,1,,,,,,,,,,,,,,,,,,,,,,,,,,,,,,,,,,,,,,,,,,,,,,
078337,001,2022-11-21_24h48.24.132,Info_measure_main_exp,2022.2.2,Win32,164.5819618,,,,,,,,,,,,,,,,,,masks/mask_002.jpg,,,,,,,,,,,,,,,,,,,,,,,,,,,,,,,,,,,,,,,,,,,,,,,,0,0,0,1,1,,,,,,,,,,,,,,,,,,,,,,,,,,,,,,,,,,,,,,,,,
078337,001,2022-11-21_24h48.24.132,Info_measure_main_exp,2022.2.2,Win32,164.5819618,,,,,,,,,,,,,,,,,,masks/mask_004.jpg,,,,,,,,,,,,,,,,,,,,,,,,,,,,,,,,,,,,,,,,,,,,,,,,0,1,1,3,1,,,,,,,,,,,,,,,,,,,,,,,,,,,,,,,,,,,,,,,,,
078337,001,2022-11-21_24h48.24.132,Info_measure_main_exp,2022.2.2,Win32,164.5819618,,,,,,,,,,,,,,,,,,masks/mask_001.jpg,,,,,,,,,,,,,,,,,,,,,,,,,,,,,,,,,,,,,,,,,,,,,,,,0,2,2,0,1,,,,,,,,,,,,,,,,,,,,,,,,,,,,,,,,,,,,,,,,,
078337,001,2022-11-21_24h48.24.132,Info_measure_main_exp,2022.2.2,Win32,164.5819618,,,,,,,,,,,,,,,,,,masks/mask_005.jpg,,,,,,,,,,,,,,,,,,,,,,,,,,,,,,,,,,,,,,,,,,,,,,,,0,3,3,4,1,,,,,,,,,,,,,,,,,,,,,,,,,,,,,,,,,,,,,,,,,
078337,001,2022-11-21_24h48.24.132,Info_measure_main_exp,2022.2.2,Win32,164.5819618,,,,,,,,,,,,,,,,,,masks/mask_003.jpg,,,,,,,,,,,,,,,,,,,,,,,,,,,,,,,,,,,,,,,,,,,,,,,,0,4,4,2,1,,,,,,,,,,,,,,,,,,,,,,,,,,,,,,,,,,,,,,,,,
078337,001,2022-11-21_24h48.24.132,Info_measure_main_exp,2022.2.2,Win32,164.5819618,,,,,,,,,,,,,,,,,,,,,,,,,,,,,,5,1.1575,1,,,,,,,,,,,,0,131,5,5,2166,2298,absent_patch/patch0002166.jpg,absent_patch/patch0002298.jpg,,,,,,,,,,,,,,,,,,,,0.061111111,-0.023148148,1,0,0,response3disk,18,-0.001851852,0,1,0,0,center_square,0,17,17,52,1,,,,,,,,,,,,,,,,,,,,,,,
078337,001,2022-11-21_24h48.24.132,Info_measure_main_exp,2022.2.2,Win32,164.5819618,,,,,,,,,,,,,,,,,,masks/mask_005.jpg,,,,,,,,,,,,,,,,,,,,,,,,,,,,,,,,,,,,,,,,,,,0,0,0,4,1,,,,,,,,,,,,,,,,,,,,,,,,,,,,,,,,,,,,,,,,,,,,,,
078337,001,2022-11-21_24h48.24.132,Info_measure_main_exp,2022.2.2,Win32,164.5819618,,,,,,,,,,,,,,,,,,masks/mask_003.jpg,,,,,,,,,,,,,,,,,,,,,,,,,,,,,,,,,,,,,,,,,,,0,1,1,2,1,,,,,,,,,,,,,,,,,,,,,,,,,,,,,,,,,,,,,,,,,,,,,,
078337,001,2022-11-21_24h48.24.132,Info_measure_main_exp,2022.2.2,Win32,164.5819618,,,,,,,,,,,,,,,,,,masks/mask_002.jpg,,,,,,,,,,,,,,,,,,,,,,,,,,,,,,,,,,,,,,,,,,,0,2,2,1,1,,,,,,,,,,,,,,,,,,,,,,,,,,,,,,,,,,,,,,,,,,,,,,
078337,001,2022-11-21_24h48.24.132,Info_measure_main_exp,2022.2.2,Win32,164.5819618,,,,,,,,,,,,,,,,,,masks/mask_004.jpg,,,,,,,,,,,,,,,,,,,,,,,,,,,,,,,,,,,,,,,,,,,0,3,3,3,1,,,,,,,,,,,,,,,,,,,,,,,,,,,,,,,,,,,,,,,,,,,,,,
078337,001,2022-11-21_24h48.24.132,Info_measure_main_exp,2022.2.2,Win32,164.5819618,,,,,,,,,,,,,,,,,,masks/mask_001.jpg,,,,,,,,,,,,,,,,,,,,,,,,,,,,,,,,,,,,,,,,,,,0,4,4,0,1,,,,,,,,,,,,,,,,,,,,,,,,,,,,,,,,,,,,,,,,,,,,,,
078337,001,2022-11-21_24h48.24.132,Info_measure_main_exp,2022.2.2,Win32,164.5819618,,,,,,,,,,,,,,,,,,masks/mask_001.jpg,,,,,,,,,,,,,,,,,,,,,,,,,,,,,,,,,,,,,,,,,,,,,,,,0,0,0,0,1,,,,,,,,,,,,,,,,,,,,,,,,,,,,,,,,,,,,,,,,,
078337,001,2022-11-21_24h48.24.132,Info_measure_main_exp,2022.2.2,Win32,164.5819618,,,,,,,,,,,,,,,,,,masks/mask_004.jpg,,,,,,,,,,,,,,,,,,,,,,,,,,,,,,,,,,,,,,,,,,,,,,,,0,1,1,3,1,,,,,,,,,,,,,,,,,,,,,,,,,,,,,,,,,,,,,,,,,
078337,001,2022-11-21_24h48.24.132,Info_measure_main_exp,2022.2.2,Win32,164.5819618,,,,,,,,,,,,,,,,,,masks/mask_002.jpg,,,,,,,,,,,,,,,,,,,,,,,,,,,,,,,,,,,,,,,,,,,,,,,,0,2,2,1,1,,,,,,,,,,,,,,,,,,,,,,,,,,,,,,,,,,,,,,,,,
078337,001,2022-11-21_24h48.24.132,Info_measure_main_exp,2022.2.2,Win32,164.5819618,,,,,,,,,,,,,,,,,,masks/mask_003.jpg,,,,,,,,,,,,,,,,,,,,,,,,,,,,,,,,,,,,,,,,,,,,,,,,0,3,3,2,1,,,,,,,,,,,,,,,,,,,,,,,,,,,,,,,,,,,,,,,,,
078337,001,2022-11-21_24h48.24.132,Info_measure_main_exp,2022.2.2,Win32,164.5819618,,,,,,,,,,,,,,,,,,masks/mask_005.jpg,,,,,,,,,,,,,,,,,,,,,,,,,,,,,,,,,,,,,,,,,,,,,,,,0,4,4,4,1,,,,,,,,,,,,,,,,,,,,,,,,,,,,,,,,,,,,,,,,,
078337,001,2022-11-21_24h48.24.132,Info_measure_main_exp,2022.2.2,Win32,164.5819618,,,,,,,,,,,,,,,,,,,,,,,,,,,,,,3,0.9517,1,,,,,,,,,,,,0,131,5,5,2250,2298,absent_patch/patch0002250.jpg,absent_patch/patch0002298.jpg,,,,,,,,,,,,,,,,,,,,-0.017592593,-0.075925926,1,0,0,response5disk,19,0.001851852,-0.00462963,1,0,0,center_square,0,18,18,59,1,,,,,,,,,,,,,,,,,,,,,,,
078337,001,2022-11-21_24h48.24.132,Info_measure_main_exp,2022.2.2,Win32,164.5819618,,,,,,,,,,,,,,,,,,masks/mask_002.jpg,,,,,,,,,,,,,,,,,,,,,,,,,,,,,,,,,,,,,,,,,,,0,0,0,1,1,,,,,,,,,,,,,,,,,,,,,,,,,,,,,,,,,,,,,,,,,,,,,,
078337,001,2022-11-21_24h48.24.132,Info_measure_main_exp,2022.2.2,Win32,164.5819618,,,,,,,,,,,,,,,,,,masks/mask_001.jpg,,,,,,,,,,,,,,,,,,,,,,,,,,,,,,,,,,,,,,,,,,,0,1,1,0,1,,,,,,,,,,,,,,,,,,,,,,,,,,,,,,,,,,,,,,,,,,,,,,
078337,001,2022-11-21_24h48.24.132,Info_measure_main_exp,2022.2.2,Win32,164.5819618,,,,,,,,,,,,,,,,,,masks/mask_005.jpg,,,,,,,,,,,,,,,,,,,,,,,,,,,,,,,,,,,,,,,,,,,0,2,2,4,1,,,,,,,,,,,,,,,,,,,,,,,,,,,,,,,,,,,,,,,,,,,,,,
078337,001,2022-11-21_24h48.24.132,Info_measure_main_exp,2022.2.2,Win32,164.5819618,,,,,,,,,,,,,,,,,,masks/mask_004.jpg,,,,,,,,,,,,,,,,,,,,,,,,,,,,,,,,,,,,,,,,,,,0,3,3,3,1,,,,,,,,,,,,,,,,,,,,,,,,,,,,,,,,,,,,,,,,,,,,,,
078337,001,2022-11-21_24h48.24.132,Info_measure_main_exp,2022.2.2,Win32,164.5819618,,,,,,,,,,,,,,,,,,masks/mask_003.jpg,,,,,,,,,,,,,,,,,,,,,,,,,,,,,,,,,,,,,,,,,,,0,4,4,2,1,,,,,,,,,,,,,,,,,,,,,,,,,,,,,,,,,,,,,,,,,,,,,,
078337,001,2022-11-21_24h48.24.132,Info_measure_main_exp,2022.2.2,Win32,164.5819618,,,,,,,,,,,,,,,,,,masks/mask_004.jpg,,,,,,,,,,,,,,,,,,,,,,,,,,,,,,,,,,,,,,,,,,,,,,,,0,0,0,3,1,,,,,,,,,,,,,,,,,,,,,,,,,,,,,,,,,,,,,,,,,
078337,001,2022-11-21_24h48.24.132,Info_measure_main_exp,2022.2.2,Win32,164.5819618,,,,,,,,,,,,,,,,,,masks/mask_005.jpg,,,,,,,,,,,,,,,,,,,,,,,,,,,,,,,,,,,,,,,,,,,,,,,,0,1,1,4,1,,,,,,,,,,,,,,,,,,,,,,,,,,,,,,,,,,,,,,,,,
078337,001,2022-11-21_24h48.24.132,Info_measure_main_exp,2022.2.2,Win32,164.5819618,,,,,,,,,,,,,,,,,,masks/mask_002.jpg,,,,,,,,,,,,,,,,,,,,,,,,,,,,,,,,,,,,,,,,,,,,,,,,0,2,2,1,1,,,,,,,,,,,,,,,,,,,,,,,,,,,,,,,,,,,,,,,,,
078337,001,2022-11-21_24h48.24.132,Info_measure_main_exp,2022.2.2,Win32,164.5819618,,,,,,,,,,,,,,,,,,masks/mask_003.jpg,,,,,,,,,,,,,,,,,,,,,,,,,,,,,,,,,,,,,,,,,,,,,,,,0,3,3,2,1,,,,,,,,,,,,,,,,,,,,,,,,,,,,,,,,,,,,,,,,,
078337,001,2022-11-21_24h48.24.132,Info_measure_main_exp,2022.2.2,Win32,164.5819618,,,,,,,,,,,,,,,,,,masks/mask_001.jpg,,,,,,,,,,,,,,,,,,,,,,,,,,,,,,,,,,,,,,,,,,,,,,,,0,4,4,0,1,,,,,,,,,,,,,,,,,,,,,,,,,,,,,,,,,,,,,,,,,
078337,001,2022-11-21_24h48.24.132,Info_measure_main_exp,2022.2.2,Win32,164.5819618,,,,,,,,,,,,,,,,,,,,,,,,,,,,,,3,4.0364,1,,,,,,,,,,,,0,131,5,5,1986,2154,absent_patch/patch0001986.jpg,absent_patch/patch0002154.jpg,,,,,,,,,,,,,,,,,,,,-0.019444444,-0.04537037,1,0,0,response5disk,20,0.000925926,0.002777778,1,0,0,center_square,0,19,19,36,1,,,,,,,,,,,,,,,,,,,,,,,
078337,001,2022-11-21_24h48.24.132,Info_measure_main_exp,2022.2.2,Win32,164.5819618,,,,,,,,,,,,,,,,,,masks/mask_003.jpg,,,,,,,,,,,,,,,,,,,,,,,,,,,,,,,,,,,,,,,,,,,0,0,0,2,1,,,,,,,,,,,,,,,,,,,,,,,,,,,,,,,,,,,,,,,,,,,,,,
078337,001,2022-11-21_24h48.24.132,Info_measure_main_exp,2022.2.2,Win32,164.5819618,,,,,,,,,,,,,,,,,,masks/mask_005.jpg,,,,,,,,,,,,,,,,,,,,,,,,,,,,,,,,,,,,,,,,,,,0,1,1,4,1,,,,,,,,,,,,,,,,,,,,,,,,,,,,,,,,,,,,,,,,,,,,,,
078337,001,2022-11-21_24h48.24.132,Info_measure_main_exp,2022.2.2,Win32,164.5819618,,,,,,,,,,,,,,,,,,masks/mask_004.jpg,,,,,,,,,,,,,,,,,,,,,,,,,,,,,,,,,,,,,,,,,,,0,2,2,3,1,,,,,,,,,,,,,,,,,,,,,,,,,,,,,,,,,,,,,,,,,,,,,,
078337,001,2022-11-21_24h48.24.132,Info_measure_main_exp,2022.2.2,Win32,164.5819618,,,,,,,,,,,,,,,,,,masks/mask_001.jpg,,,,,,,,,,,,,,,,,,,,,,,,,,,,,,,,,,,,,,,,,,,0,3,3,0,1,,,,,,,,,,,,,,,,,,,,,,,,,,,,,,,,,,,,,,,,,,,,,,
078337,001,2022-11-21_24h48.24.132,Info_measure_main_exp,2022.2.2,Win32,164.5819618,,,,,,,,,,,,,,,,,,masks/mask_002.jpg,,,,,,,,,,,,,,,,,,,,,,,,,,,,,,,,,,,,,,,,,,,0,4,4,1,1,,,,,,,,,,,,,,,,,,,,,,,,,,,,,,,,,,,,,,,,,,,,,,
078337,001,2022-11-21_24h48.24.132,Info_measure_main_exp,2022.2.2,Win32,164.5819618,,,,,,,,,,,,,,,,,,masks/mask_001.jpg,,,,,,,,,,,,,,,,,,,,,,,,,,,,,,,,,,,,,,,,,,,,,,,,0,0,0,0,1,,,,,,,,,,,,,,,,,,,,,,,,,,,,,,,,,,,,,,,,,
078337,001,2022-11-21_24h48.24.132,Info_measure_main_exp,2022.2.2,Win32,164.5819618,,,,,,,,,,,,,,,,,,masks/mask_002.jpg,,,,,,,,,,,,,,,,,,,,,,,,,,,,,,,,,,,,,,,,,,,,,,,,0,1,1,1,1,,,,,,,,,,,,,,,,,,,,,,,,,,,,,,,,,,,,,,,,,
078337,001,2022-11-21_24h48.24.132,Info_measure_main_exp,2022.2.2,Win32,164.5819618,,,,,,,,,,,,,,,,,,masks/mask_005.jpg,,,,,,,,,,,,,,,,,,,,,,,,,,,,,,,,,,,,,,,,,,,,,,,,0,2,2,4,1,,,,,,,,,,,,,,,,,,,,,,,,,,,,,,,,,,,,,,,,,
078337,001,2022-11-21_24h48.24.132,Info_measure_main_exp,2022.2.2,Win32,164.5819618,,,,,,,,,,,,,,,,,,masks/mask_003.jpg,,,,,,,,,,,,,,,,,,,,,,,,,,,,,,,,,,,,,,,,,,,,,,,,0,3,3,2,1,,,,,,,,,,,,,,,,,,,,,,,,,,,,,,,,,,,,,,,,,
078337,001,2022-11-21_24h48.24.132,Info_measure_main_exp,2022.2.2,Win32,164.5819618,,,,,,,,,,,,,,,,,,masks/mask_004.jpg,,,,,,,,,,,,,,,,,,,,,,,,,,,,,,,,,,,,,,,,,,,,,,,,0,4,4,3,1,,,,,,,,,,,,,,,,,,,,,,,,,,,,,,,,,,,,,,,,,
078337,001,2022-11-21_24h48.24.132,Info_measure_main_exp,2022.2.2,Win32,164.5819618,,,,,,,,,,,,,,,,,,,,,,,,,,,,,,5,2.3623,1,,,,,,,,,,,,0,131,5,5,2274,2178,absent_patch/patch0002274.jpg,absent_patch/patch0002178.jpg,,,,,,,,,,,,,,,,,,,,0.056481481,-0.018518519,1,0,0,response3disk,21,0.002777778,-0.008333333,1,0,0,center_square,0,20,20,117,1,,,,,,,,,,,,,,,,,,,,,,,
078337,001,2022-11-21_24h48.24.132,Info_measure_main_exp,2022.2.2,Win32,164.5819618,,,,,,,,,,,,,,,,,,masks/mask_005.jpg,,,,,,,,,,,,,,,,,,,,,,,,,,,,,,,,,,,,,,,,,,,0,0,0,4,1,,,,,,,,,,,,,,,,,,,,,,,,,,,,,,,,,,,,,,,,,,,,,,
078337,001,2022-11-21_24h48.24.132,Info_measure_main_exp,2022.2.2,Win32,164.5819618,,,,,,,,,,,,,,,,,,masks/mask_003.jpg,,,,,,,,,,,,,,,,,,,,,,,,,,,,,,,,,,,,,,,,,,,0,1,1,2,1,,,,,,,,,,,,,,,,,,,,,,,,,,,,,,,,,,,,,,,,,,,,,,
078337,001,2022-11-21_24h48.24.132,Info_measure_main_exp,2022.2.2,Win32,164.5819618,,,,,,,,,,,,,,,,,,masks/mask_001.jpg,,,,,,,,,,,,,,,,,,,,,,,,,,,,,,,,,,,,,,,,,,,0,2,2,0,1,,,,,,,,,,,,,,,,,,,,,,,,,,,,,,,,,,,,,,,,,,,,,,
078337,001,2022-11-21_24h48.24.132,Info_measure_main_exp,2022.2.2,Win32,164.5819618,,,,,,,,,,,,,,,,,,masks/mask_002.jpg,,,,,,,,,,,,,,,,,,,,,,,,,,,,,,,,,,,,,,,,,,,0,3,3,1,1,,,,,,,,,,,,,,,,,,,,,,,,,,,,,,,,,,,,,,,,,,,,,,
078337,001,2022-11-21_24h48.24.132,Info_measure_main_exp,2022.2.2,Win32,164.5819618,,,,,,,,,,,,,,,,,,masks/mask_004.jpg,,,,,,,,,,,,,,,,,,,,,,,,,,,,,,,,,,,,,,,,,,,0,4,4,3,1,,,,,,,,,,,,,,,,,,,,,,,,,,,,,,,,,,,,,,,,,,,,,,
078337,001,2022-11-21_24h48.24.132,Info_measure_main_exp,2022.2.2,Win32,164.5819618,,,,,,,,,,,,,,,,,,masks/mask_002.jpg,,,,,,,,,,,,,,,,,,,,,,,,,,,,,,,,,,,,,,,,,,,,,,,,0,0,0,1,1,,,,,,,,,,,,,,,,,,,,,,,,,,,,,,,,,,,,,,,,,
078337,001,2022-11-21_24h48.24.132,Info_measure_main_exp,2022.2.2,Win32,164.5819618,,,,,,,,,,,,,,,,,,masks/mask_004.jpg,,,,,,,,,,,,,,,,,,,,,,,,,,,,,,,,,,,,,,,,,,,,,,,,0,1,1,3,1,,,,,,,,,,,,,,,,,,,,,,,,,,,,,,,,,,,,,,,,,
078337,001,2022-11-21_24h48.24.132,Info_measure_main_exp,2022.2.2,Win32,164.5819618,,,,,,,,,,,,,,,,,,masks/mask_003.jpg,,,,,,,,,,,,,,,,,,,,,,,,,,,,,,,,,,,,,,,,,,,,,,,,0,2,2,2,1,,,,,,,,,,,,,,,,,,,,,,,,,,,,,,,,,,,,,,,,,
078337,001,2022-11-21_24h48.24.132,Info_measure_main_exp,2022.2.2,Win32,164.5819618,,,,,,,,,,,,,,,,,,masks/mask_005.jpg,,,,,,,,,,,,,,,,,,,,,,,,,,,,,,,,,,,,,,,,,,,,,,,,0,3,3,4,1,,,,,,,,,,,,,,,,,,,,,,,,,,,,,,,,,,,,,,,,,
078337,001,2022-11-21_24h48.24.132,Info_measure_main_exp,2022.2.2,Win32,164.5819618,,,,,,,,,,,,,,,,,,masks/mask_001.jpg,,,,,,,,,,,,,,,,,,,,,,,,,,,,,,,,,,,,,,,,,,,,,,,,0,4,4,0,1,,,,,,,,,,,,,,,,,,,,,,,,,,,,,,,,,,,,,,,,,
078337,001,2022-11-21_24h48.24.132,Info_measure_main_exp,2022.2.2,Win32,164.5819618,,,,,,,,,,,,,,,,,,,,,,,,,,,,,,4,0.6895,1,,,,,,,,,,,,0,131,5,5,1950,2142,absent_patch/patch0001950.jpg,absent_patch/patch0002142.jpg,,,,,,,,,,,,,,,,,,,,0.02962963,-0.088888889,1,0,0,response3disk,22,-0.009259259,0.003703704,1,0,0,center_square,0,21,21,83,1,,,,,,,,,,,,,,,,,,,,,,,
078337,001,2022-11-21_24h48.24.132,Info_measure_main_exp,2022.2.2,Win32,164.5819618,,,,,,,,,,,,,,,,,,masks/mask_002.jpg,,,,,,,,,,,,,,,,,,,,,,,,,,,,,,,,,,,,,,,,,,,0,0,0,1,1,,,,,,,,,,,,,,,,,,,,,,,,,,,,,,,,,,,,,,,,,,,,,,
078337,001,2022-11-21_24h48.24.132,Info_measure_main_exp,2022.2.2,Win32,164.5819618,,,,,,,,,,,,,,,,,,masks/mask_003.jpg,,,,,,,,,,,,,,,,,,,,,,,,,,,,,,,,,,,,,,,,,,,0,1,1,2,1,,,,,,,,,,,,,,,,,,,,,,,,,,,,,,,,,,,,,,,,,,,,,,
078337,001,2022-11-21_24h48.24.132,Info_measure_main_exp,2022.2.2,Win32,164.5819618,,,,,,,,,,,,,,,,,,masks/mask_001.jpg,,,,,,,,,,,,,,,,,,,,,,,,,,,,,,,,,,,,,,,,,,,0,2,2,0,1,,,,,,,,,,,,,,,,,,,,,,,,,,,,,,,,,,,,,,,,,,,,,,
078337,001,2022-11-21_24h48.24.132,Info_measure_main_exp,2022.2.2,Win32,164.5819618,,,,,,,,,,,,,,,,,,masks/mask_005.jpg,,,,,,,,,,,,,,,,,,,,,,,,,,,,,,,,,,,,,,,,,,,0,3,3,4,1,,,,,,,,,,,,,,,,,,,,,,,,,,,,,,,,,,,,,,,,,,,,,,
078337,001,2022-11-21_24h48.24.132,Info_measure_main_exp,2022.2.2,Win32,164.5819618,,,,,,,,,,,,,,,,,,masks/mask_004.jpg,,,,,,,,,,,,,,,,,,,,,,,,,,,,,,,,,,,,,,,,,,,0,4,4,3,1,,,,,,,,,,,,,,,,,,,,,,,,,,,,,,,,,,,,,,,,,,,,,,
078337,001,2022-11-21_24h48.24.132,Info_measure_main_exp,2022.2.2,Win32,164.5819618,,,,,,,,,,,,,,,,,,masks/mask_003.jpg,,,,,,,,,,,,,,,,,,,,,,,,,,,,,,,,,,,,,,,,,,,,,,,,0,0,0,2,1,,,,,,,,,,,,,,,,,,,,,,,,,,,,,,,,,,,,,,,,,
078337,001,2022-11-21_24h48.24.132,Info_measure_main_exp,2022.2.2,Win32,164.5819618,,,,,,,,,,,,,,,,,,masks/mask_001.jpg,,,,,,,,,,,,,,,,,,,,,,,,,,,,,,,,,,,,,,,,,,,,,,,,0,1,1,0,1,,,,,,,,,,,,,,,,,,,,,,,,,,,,,,,,,,,,,,,,,
078337,001,2022-11-21_24h48.24.132,Info_measure_main_exp,2022.2.2,Win32,164.5819618,,,,,,,,,,,,,,,,,,masks/mask_002.jpg,,,,,,,,,,,,,,,,,,,,,,,,,,,,,,,,,,,,,,,,,,,,,,,,0,2,2,1,1,,,,,,,,,,,,,,,,,,,,,,,,,,,,,,,,,,,,,,,,,
078337,001,2022-11-21_24h48.24.132,Info_measure_main_exp,2022.2.2,Win32,164.5819618,,,,,,,,,,,,,,,,,,masks/mask_005.jpg,,,,,,,,,,,,,,,,,,,,,,,,,,,,,,,,,,,,,,,,,,,,,,,,0,3,3,4,1,,,,,,,,,,,,,,,,,,,,,,,,,,,,,,,,,,,,,,,,,
078337,001,2022-11-21_24h48.24.132,Info_measure_main_exp,2022.2.2,Win32,164.5819618,,,,,,,,,,,,,,,,,,masks/mask_004.jpg,,,,,,,,,,,,,,,,,,,,,,,,,,,,,,,,,,,,,,,,,,,,,,,,0,4,4,3,1,,,,,,,,,,,,,,,,,,,,,,,,,,,,,,,,,,,,,,,,,
078337,001,2022-11-21_24h48.24.132,Info_measure_main_exp,2022.2.2,Win32,164.5819618,,,,,,,,,,,,,,,,,,,,,,,,,,,,,,4,0.5897,1,,,,,,,,,,,,0,131,5,5,2298,2178,absent_patch/patch0002298.jpg,absent_patch/patch0002178.jpg,,,,,,,,,,,,,,,,,,,,0.031481481,-0.068518519,1,0,0,response3disk,23,0.005555556,-0.010185185,1,0,0,center_square,0,22,22,84,1,,,,,,,,,,,,,,,,,,,,,,,
078337,001,2022-11-21_24h48.24.132,Info_measure_main_exp,2022.2.2,Win32,164.5819618,,,,,,,,,,,,,,,,,,masks/mask_003.jpg,,,,,,,,,,,,,,,,,,,,,,,,,,,,,,,,,,,,,,,,,,,0,0,0,2,1,,,,,,,,,,,,,,,,,,,,,,,,,,,,,,,,,,,,,,,,,,,,,,
078337,001,2022-11-21_24h48.24.132,Info_measure_main_exp,2022.2.2,Win32,164.5819618,,,,,,,,,,,,,,,,,,masks/mask_002.jpg,,,,,,,,,,,,,,,,,,,,,,,,,,,,,,,,,,,,,,,,,,,0,1,1,1,1,,,,,,,,,,,,,,,,,,,,,,,,,,,,,,,,,,,,,,,,,,,,,,
078337,001,2022-11-21_24h48.24.132,Info_measure_main_exp,2022.2.2,Win32,164.5819618,,,,,,,,,,,,,,,,,,masks/mask_005.jpg,,,,,,,,,,,,,,,,,,,,,,,,,,,,,,,,,,,,,,,,,,,0,2,2,4,1,,,,,,,,,,,,,,,,,,,,,,,,,,,,,,,,,,,,,,,,,,,,,,
078337,001,2022-11-21_24h48.24.132,Info_measure_main_exp,2022.2.2,Win32,164.5819618,,,,,,,,,,,,,,,,,,masks/mask_001.jpg,,,,,,,,,,,,,,,,,,,,,,,,,,,,,,,,,,,,,,,,,,,0,3,3,0,1,,,,,,,,,,,,,,,,,,,,,,,,,,,,,,,,,,,,,,,,,,,,,,
078337,001,2022-11-21_24h48.24.132,Info_measure_main_exp,2022.2.2,Win32,164.5819618,,,,,,,,,,,,,,,,,,masks/mask_004.jpg,,,,,,,,,,,,,,,,,,,,,,,,,,,,,,,,,,,,,,,,,,,0,4,4,3,1,,,,,,,,,,,,,,,,,,,,,,,,,,,,,,,,,,,,,,,,,,,,,,
078337,001,2022-11-21_24h48.24.132,Info_measure_main_exp,2022.2.2,Win32,164.5819618,,,,,,,,,,,,,,,,,,masks/mask_004.jpg,,,,,,,,,,,,,,,,,,,,,,,,,,,,,,,,,,,,,,,,,,,,,,,,0,0,0,3,1,,,,,,,,,,,,,,,,,,,,,,,,,,,,,,,,,,,,,,,,,
078337,001,2022-11-21_24h48.24.132,Info_measure_main_exp,2022.2.2,Win32,164.5819618,,,,,,,,,,,,,,,,,,masks/mask_005.jpg,,,,,,,,,,,,,,,,,,,,,,,,,,,,,,,,,,,,,,,,,,,,,,,,0,1,1,4,1,,,,,,,,,,,,,,,,,,,,,,,,,,,,,,,,,,,,,,,,,
078337,001,2022-11-21_24h48.24.132,Info_measure_main_exp,2022.2.2,Win32,164.5819618,,,,,,,,,,,,,,,,,,masks/mask_003.jpg,,,,,,,,,,,,,,,,,,,,,,,,,,,,,,,,,,,,,,,,,,,,,,,,0,2,2,2,1,,,,,,,,,,,,,,,,,,,,,,,,,,,,,,,,,,,,,,,,,
078337,001,2022-11-21_24h48.24.132,Info_measure_main_exp,2022.2.2,Win32,164.5819618,,,,,,,,,,,,,,,,,,masks/mask_002.jpg,,,,,,,,,,,,,,,,,,,,,,,,,,,,,,,,,,,,,,,,,,,,,,,,0,3,3,1,1,,,,,,,,,,,,,,,,,,,,,,,,,,,,,,,,,,,,,,,,,
078337,001,2022-11-21_24h48.24.132,Info_measure_main_exp,2022.2.2,Win32,164.5819618,,,,,,,,,,,,,,,,,,masks/mask_001.jpg,,,,,,,,,,,,,,,,,,,,,,,,,,,,,,,,,,,,,,,,,,,,,,,,0,4,4,0,1,,,,,,,,,,,,,,,,,,,,,,,,,,,,,,,,,,,,,,,,,
078337,001,2022-11-21_24h48.24.132,Info_measure_main_exp,2022.2.2,Win32,164.5819618,,,,,,,,,,,,,,,,,,,,,,,,,,,,,,7,0.4625,1,,,,,,,,,,,,1,131,5,5,2298,1,absent_patch/patch0002298.jpg,present_patch/cong_131_5_a.jpg,,,,,,,,,,,,,,,,,,,,0.042592593,0.067592593,1,0,0,response1disk,24,0,-0.012037037,1,0,0,center_square,0,23,23,45,1,,,,,,,,,,,,,,,,,,,,,,,
078337,001,2022-11-21_24h48.24.132,Info_measure_main_exp,2022.2.2,Win32,164.5819618,,,,,,,,,,,,,,,,,,masks/mask_003.jpg,,,,,,,,,,,,,,,,,,,,,,,,,,,,,,,,,,,,,,,,,,,0,0,0,2,1,,,,,,,,,,,,,,,,,,,,,,,,,,,,,,,,,,,,,,,,,,,,,,
078337,001,2022-11-21_24h48.24.132,Info_measure_main_exp,2022.2.2,Win32,164.5819618,,,,,,,,,,,,,,,,,,masks/mask_002.jpg,,,,,,,,,,,,,,,,,,,,,,,,,,,,,,,,,,,,,,,,,,,0,1,1,1,1,,,,,,,,,,,,,,,,,,,,,,,,,,,,,,,,,,,,,,,,,,,,,,
078337,001,2022-11-21_24h48.24.132,Info_measure_main_exp,2022.2.2,Win32,164.5819618,,,,,,,,,,,,,,,,,,masks/mask_005.jpg,,,,,,,,,,,,,,,,,,,,,,,,,,,,,,,,,,,,,,,,,,,0,2,2,4,1,,,,,,,,,,,,,,,,,,,,,,,,,,,,,,,,,,,,,,,,,,,,,,
078337,001,2022-11-21_24h48.24.132,Info_measure_main_exp,2022.2.2,Win32,164.5819618,,,,,,,,,,,,,,,,,,masks/mask_004.jpg,,,,,,,,,,,,,,,,,,,,,,,,,,,,,,,,,,,,,,,,,,,0,3,3,3,1,,,,,,,,,,,,,,,,,,,,,,,,,,,,,,,,,,,,,,,,,,,,,,
078337,001,2022-11-21_24h48.24.132,Info_measure_main_exp,2022.2.2,Win32,164.5819618,,,,,,,,,,,,,,,,,,masks/mask_001.jpg,,,,,,,,,,,,,,,,,,,,,,,,,,,,,,,,,,,,,,,,,,,0,4,4,0,1,,,,,,,,,,,,,,,,,,,,,,,,,,,,,,,,,,,,,,,,,,,,,,
078337,001,2022-11-21_24h48.24.132,Info_measure_main_exp,2022.2.2,Win32,164.5819618,,,,,,,,,,,,,,,,,,masks/mask_004.jpg,,,,,,,,,,,,,,,,,,,,,,,,,,,,,,,,,,,,,,,,,,,,,,,,0,0,0,3,1,,,,,,,,,,,,,,,,,,,,,,,,,,,,,,,,,,,,,,,,,
078337,001,2022-11-21_24h48.24.132,Info_measure_main_exp,2022.2.2,Win32,164.5819618,,,,,,,,,,,,,,,,,,masks/mask_002.jpg,,,,,,,,,,,,,,,,,,,,,,,,,,,,,,,,,,,,,,,,,,,,,,,,0,1,1,1,1,,,,,,,,,,,,,,,,,,,,,,,,,,,,,,,,,,,,,,,,,
078337,001,2022-11-21_24h48.24.132,Info_measure_main_exp,2022.2.2,Win32,164.5819618,,,,,,,,,,,,,,,,,,masks/mask_005.jpg,,,,,,,,,,,,,,,,,,,,,,,,,,,,,,,,,,,,,,,,,,,,,,,,0,2,2,4,1,,,,,,,,,,,,,,,,,,,,,,,,,,,,,,,,,,,,,,,,,
078337,001,2022-11-21_24h48.24.132,Info_measure_main_exp,2022.2.2,Win32,164.5819618,,,,,,,,,,,,,,,,,,masks/mask_003.jpg,,,,,,,,,,,,,,,,,,,,,,,,,,,,,,,,,,,,,,,,,,,,,,,,0,3,3,2,1,,,,,,,,,,,,,,,,,,,,,,,,,,,,,,,,,,,,,,,,,
078337,001,2022-11-21_24h48.24.132,Info_measure_main_exp,2022.2.2,Win32,164.5819618,,,,,,,,,,,,,,,,,,masks/mask_001.jpg,,,,,,,,,,,,,,,,,,,,,,,,,,,,,,,,,,,,,,,,,,,,,,,,0,4,4,0,1,,,,,,,,,,,,,,,,,,,,,,,,,,,,,,,,,,,,,,,,,
078337,001,2022-11-21_24h48.24.132,Info_measure_main_exp,2022.2.2,Win32,164.5819618,,,,,,,,,,,,,,,,,,,,,,,,,,,,,,7,1.3461,1,,,,,,,,,,,,0,131,5,5,2214,2178,absent_patch/patch0002214.jpg,absent_patch/patch0002178.jpg,,,,,,,,,,,,,,,,,,,,0.038888889,0.086111111,1,0,0,response1disk,25,0.003703704,0.012962963,1,0,0,center_square,0,24,24,62,1,,,,,,,,,,,,,,,,,,,,,,,
078337,001,2022-11-21_24h48.24.132,Info_measure_main_exp,2022.2.2,Win32,164.5819618,,,,,,,,,,,,,,,,,,masks/mask_002.jpg,,,,,,,,,,,,,,,,,,,,,,,,,,,,,,,,,,,,,,,,,,,0,0,0,1,1,,,,,,,,,,,,,,,,,,,,,,,,,,,,,,,,,,,,,,,,,,,,,,
078337,001,2022-11-21_24h48.24.132,Info_measure_main_exp,2022.2.2,Win32,164.5819618,,,,,,,,,,,,,,,,,,masks/mask_005.jpg,,,,,,,,,,,,,,,,,,,,,,,,,,,,,,,,,,,,,,,,,,,0,1,1,4,1,,,,,,,,,,,,,,,,,,,,,,,,,,,,,,,,,,,,,,,,,,,,,,
078337,001,2022-11-21_24h48.24.132,Info_measure_main_exp,2022.2.2,Win32,164.5819618,,,,,,,,,,,,,,,,,,masks/mask_003.jpg,,,,,,,,,,,,,,,,,,,,,,,,,,,,,,,,,,,,,,,,,,,0,2,2,2,1,,,,,,,,,,,,,,,,,,,,,,,,,,,,,,,,,,,,,,,,,,,,,,
078337,001,2022-11-21_24h48.24.132,Info_measure_main_exp,2022.2.2,Win32,164.5819618,,,,,,,,,,,,,,,,,,masks/mask_001.jpg,,,,,,,,,,,,,,,,,,,,,,,,,,,,,,,,,,,,,,,,,,,0,3,3,0,1,,,,,,,,,,,,,,,,,,,,,,,,,,,,,,,,,,,,,,,,,,,,,,
078337,001,2022-11-21_24h48.24.132,Info_measure_main_exp,2022.2.2,Win32,164.5819618,,,,,,,,,,,,,,,,,,masks/mask_004.jpg,,,,,,,,,,,,,,,,,,,,,,,,,,,,,,,,,,,,,,,,,,,0,4,4,3,1,,,,,,,,,,,,,,,,,,,,,,,,,,,,,,,,,,,,,,,,,,,,,,
078337,001,2022-11-21_24h48.24.132,Info_measure_main_exp,2022.2.2,Win32,164.5819618,,,,,,,,,,,,,,,,,,masks/mask_003.jpg,,,,,,,,,,,,,,,,,,,,,,,,,,,,,,,,,,,,,,,,,,,,,,,,0,0,0,2,1,,,,,,,,,,,,,,,,,,,,,,,,,,,,,,,,,,,,,,,,,
078337,001,2022-11-21_24h48.24.132,Info_measure_main_exp,2022.2.2,Win32,164.5819618,,,,,,,,,,,,,,,,,,masks/mask_001.jpg,,,,,,,,,,,,,,,,,,,,,,,,,,,,,,,,,,,,,,,,,,,,,,,,0,1,1,0,1,,,,,,,,,,,,,,,,,,,,,,,,,,,,,,,,,,,,,,,,,
078337,001,2022-11-21_24h48.24.132,Info_measure_main_exp,2022.2.2,Win32,164.5819618,,,,,,,,,,,,,,,,,,masks/mask_002.jpg,,,,,,,,,,,,,,,,,,,,,,,,,,,,,,,,,,,,,,,,,,,,,,,,0,2,2,1,1,,,,,,,,,,,,,,,,,,,,,,,,,,,,,,,,,,,,,,,,,
078337,001,2022-11-21_24h48.24.132,Info_measure_main_exp,2022.2.2,Win32,164.5819618,,,,,,,,,,,,,,,,,,masks/mask_005.jpg,,,,,,,,,,,,,,,,,,,,,,,,,,,,,,,,,,,,,,,,,,,,,,,,0,3,3,4,1,,,,,,,,,,,,,,,,,,,,,,,,,,,,,,,,,,,,,,,,,
078337,001,2022-11-21_24h48.24.132,Info_measure_main_exp,2022.2.2,Win32,164.5819618,,,,,,,,,,,,,,,,,,masks/mask_004.jpg,,,,,,,,,,,,,,,,,,,,,,,,,,,,,,,,,,,,,,,,,,,,,,,,0,4,4,3,1,,,,,,,,,,,,,,,,,,,,,,,,,,,,,,,,,,,,,,,,,
078337,001,2022-11-21_24h48.24.132,Info_measure_main_exp,2022.2.2,Win32,164.5819618,,,,,,,,,,,,,,,,,,,,,,,,,,,,,,4,0.4545,1,,,,,,,,,,,,1,131,5,5,1,2142,present_patch/cong_131_5_a.jpg,absent_patch/patch0002142.jpg,,,,,,,,,,,,,,,,,,,,0.021296296,-0.067592593,1,0,0,response3disk,26,0.005555556,-0.012962963,1,0,0,center_square,0,25,25,80,1,,,,,,,,,,,,,,,,,,,,,,,
078337,001,2022-11-21_24h48.24.132,Info_measure_main_exp,2022.2.2,Win32,164.5819618,,,,,,,,,,,,,,,,,,masks/mask_005.jpg,,,,,,,,,,,,,,,,,,,,,,,,,,,,,,,,,,,,,,,,,,,0,0,0,4,1,,,,,,,,,,,,,,,,,,,,,,,,,,,,,,,,,,,,,,,,,,,,,,
078337,001,2022-11-21_24h48.24.132,Info_measure_main_exp,2022.2.2,Win32,164.5819618,,,,,,,,,,,,,,,,,,masks/mask_001.jpg,,,,,,,,,,,,,,,,,,,,,,,,,,,,,,,,,,,,,,,,,,,0,1,1,0,1,,,,,,,,,,,,,,,,,,,,,,,,,,,,,,,,,,,,,,,,,,,,,,
078337,001,2022-11-21_24h48.24.132,Info_measure_main_exp,2022.2.2,Win32,164.5819618,,,,,,,,,,,,,,,,,,masks/mask_003.jpg,,,,,,,,,,,,,,,,,,,,,,,,,,,,,,,,,,,,,,,,,,,0,2,2,2,1,,,,,,,,,,,,,,,,,,,,,,,,,,,,,,,,,,,,,,,,,,,,,,
078337,001,2022-11-21_24h48.24.132,Info_measure_main_exp,2022.2.2,Win32,164.5819618,,,,,,,,,,,,,,,,,,masks/mask_002.jpg,,,,,,,,,,,,,,,,,,,,,,,,,,,,,,,,,,,,,,,,,,,0,3,3,1,1,,,,,,,,,,,,,,,,,,,,,,,,,,,,,,,,,,,,,,,,,,,,,,
078337,001,2022-11-21_24h48.24.132,Info_measure_main_exp,2022.2.2,Win32,164.5819618,,,,,,,,,,,,,,,,,,masks/mask_004.jpg,,,,,,,,,,,,,,,,,,,,,,,,,,,,,,,,,,,,,,,,,,,0,4,4,3,1,,,,,,,,,,,,,,,,,,,,,,,,,,,,,,,,,,,,,,,,,,,,,,
078337,001,2022-11-21_24h48.24.132,Info_measure_main_exp,2022.2.2,Win32,164.5819618,,,,,,,,,,,,,,,,,,masks/mask_003.jpg,,,,,,,,,,,,,,,,,,,,,,,,,,,,,,,,,,,,,,,,,,,,,,,,0,0,0,2,1,,,,,,,,,,,,,,,,,,,,,,,,,,,,,,,,,,,,,,,,,
078337,001,2022-11-21_24h48.24.132,Info_measure_main_exp,2022.2.2,Win32,164.5819618,,,,,,,,,,,,,,,,,,masks/mask_001.jpg,,,,,,,,,,,,,,,,,,,,,,,,,,,,,,,,,,,,,,,,,,,,,,,,0,1,1,0,1,,,,,,,,,,,,,,,,,,,,,,,,,,,,,,,,,,,,,,,,,
078337,001,2022-11-21_24h48.24.132,Info_measure_main_exp,2022.2.2,Win32,164.5819618,,,,,,,,,,,,,,,,,,masks/mask_004.jpg,,,,,,,,,,,,,,,,,,,,,,,,,,,,,,,,,,,,,,,,,,,,,,,,0,2,2,3,1,,,,,,,,,,,,,,,,,,,,,,,,,,,,,,,,,,,,,,,,,
078337,001,2022-11-21_24h48.24.132,Info_measure_main_exp,2022.2.2,Win32,164.5819618,,,,,,,,,,,,,,,,,,masks/mask_002.jpg,,,,,,,,,,,,,,,,,,,,,,,,,,,,,,,,,,,,,,,,,,,,,,,,0,3,3,1,1,,,,,,,,,,,,,,,,,,,,,,,,,,,,,,,,,,,,,,,,,
078337,001,2022-11-21_24h48.24.132,Info_measure_main_exp,2022.2.2,Win32,164.5819618,,,,,,,,,,,,,,,,,,masks/mask_005.jpg,,,,,,,,,,,,,,,,,,,,,,,,,,,,,,,,,,,,,,,,,,,,,,,,0,4,4,4,1,,,,,,,,,,,,,,,,,,,,,,,,,,,,,,,,,,,,,,,,,
078337,001,2022-11-21_24h48.24.132,Info_measure_main_exp,2022.2.2,Win32,164.5819618,,,,,,,,,,,,,,,,,,,,,,,,,,,,,,3,0.4349,1,,,,,,,,,,,,0,131,5,5,2142,2190,absent_patch/patch0002142.jpg,absent_patch/patch0002190.jpg,,,,,,,,,,,,,,,,,,,,-0.028703704,-0.07037037,1,0,0,response5disk,27,0.010185185,-0.008333333,1,0,0,center_square,0,26,26,70,1,,,,,,,,,,,,,,,,,,,,,,,
078337,001,2022-11-21_24h48.24.132,Info_measure_main_exp,2022.2.2,Win32,164.5819618,,,,,,,,,,,,,,,,,,masks/mask_004.jpg,,,,,,,,,,,,,,,,,,,,,,,,,,,,,,,,,,,,,,,,,,,0,0,0,3,1,,,,,,,,,,,,,,,,,,,,,,,,,,,,,,,,,,,,,,,,,,,,,,
078337,001,2022-11-21_24h48.24.132,Info_measure_main_exp,2022.2.2,Win32,164.5819618,,,,,,,,,,,,,,,,,,masks/mask_005.jpg,,,,,,,,,,,,,,,,,,,,,,,,,,,,,,,,,,,,,,,,,,,0,1,1,4,1,,,,,,,,,,,,,,,,,,,,,,,,,,,,,,,,,,,,,,,,,,,,,,
078337,001,2022-11-21_24h48.24.132,Info_measure_main_exp,2022.2.2,Win32,164.5819618,,,,,,,,,,,,,,,,,,masks/mask_001.jpg,,,,,,,,,,,,,,,,,,,,,,,,,,,,,,,,,,,,,,,,,,,0,2,2,0,1,,,,,,,,,,,,,,,,,,,,,,,,,,,,,,,,,,,,,,,,,,,,,,
078337,001,2022-11-21_24h48.24.132,Info_measure_main_exp,2022.2.2,Win32,164.5819618,,,,,,,,,,,,,,,,,,masks/mask_002.jpg,,,,,,,,,,,,,,,,,,,,,,,,,,,,,,,,,,,,,,,,,,,0,3,3,1,1,,,,,,,,,,,,,,,,,,,,,,,,,,,,,,,,,,,,,,,,,,,,,,
078337,001,2022-11-21_24h48.24.132,Info_measure_main_exp,2022.2.2,Win32,164.5819618,,,,,,,,,,,,,,,,,,masks/mask_003.jpg,,,,,,,,,,,,,,,,,,,,,,,,,,,,,,,,,,,,,,,,,,,0,4,4,2,1,,,,,,,,,,,,,,,,,,,,,,,,,,,,,,,,,,,,,,,,,,,,,,
078337,001,2022-11-21_24h48.24.132,Info_measure_main_exp,2022.2.2,Win32,164.5819618,,,,,,,,,,,,,,,,,,masks/mask_005.jpg,,,,,,,,,,,,,,,,,,,,,,,,,,,,,,,,,,,,,,,,,,,,,,,,0,0,0,4,1,,,,,,,,,,,,,,,,,,,,,,,,,,,,,,,,,,,,,,,,,
078337,001,2022-11-21_24h48.24.132,Info_measure_main_exp,2022.2.2,Win32,164.5819618,,,,,,,,,,,,,,,,,,masks/mask_001.jpg,,,,,,,,,,,,,,,,,,,,,,,,,,,,,,,,,,,,,,,,,,,,,,,,0,1,1,0,1,,,,,,,,,,,,,,,,,,,,,,,,,,,,,,,,,,,,,,,,,
078337,001,2022-11-21_24h48.24.132,Info_measure_main_exp,2022.2.2,Win32,164.5819618,,,,,,,,,,,,,,,,,,masks/mask_002.jpg,,,,,,,,,,,,,,,,,,,,,,,,,,,,,,,,,,,,,,,,,,,,,,,,0,2,2,1,1,,,,,,,,,,,,,,,,,,,,,,,,,,,,,,,,,,,,,,,,,
078337,001,2022-11-21_24h48.24.132,Info_measure_main_exp,2022.2.2,Win32,164.5819618,,,,,,,,,,,,,,,,,,masks/mask_004.jpg,,,,,,,,,,,,,,,,,,,,,,,,,,,,,,,,,,,,,,,,,,,,,,,,0,3,3,3,1,,,,,,,,,,,,,,,,,,,,,,,,,,,,,,,,,,,,,,,,,
078337,001,2022-11-21_24h48.24.132,Info_measure_main_exp,2022.2.2,Win32,164.5819618,,,,,,,,,,,,,,,,,,masks/mask_003.jpg,,,,,,,,,,,,,,,,,,,,,,,,,,,,,,,,,,,,,,,,,,,,,,,,0,4,4,2,1,,,,,,,,,,,,,,,,,,,,,,,,,,,,,,,,,,,,,,,,,
078337,001,2022-11-21_24h48.24.132,Info_measure_main_exp,2022.2.2,Win32,164.5819618,,,,,,,,,,,,,,,,,,,,,,,,,,,,,,3,0.6606,1,,,,,,,,,,,,0,131,5,5,2142,2154,absent_patch/patch0002142.jpg,absent_patch/patch0002154.jpg,,,,,,,,,,,,,,,,,,,,-0.013888889,-0.064814815,1,0,0,response5disk,28,-0.000925926,-0.015740741,1,0,0,center_square,0,27,27,9,1,,,,,,,,,,,,,,,,,,,,,,,
078337,001,2022-11-21_24h48.24.132,Info_measure_main_exp,2022.2.2,Win32,164.5819618,,,,,,,,,,,,,,,,,,masks/mask_004.jpg,,,,,,,,,,,,,,,,,,,,,,,,,,,,,,,,,,,,,,,,,,,0,0,0,3,1,,,,,,,,,,,,,,,,,,,,,,,,,,,,,,,,,,,,,,,,,,,,,,
078337,001,2022-11-21_24h48.24.132,Info_measure_main_exp,2022.2.2,Win32,164.5819618,,,,,,,,,,,,,,,,,,masks/mask_003.jpg,,,,,,,,,,,,,,,,,,,,,,,,,,,,,,,,,,,,,,,,,,,0,1,1,2,1,,,,,,,,,,,,,,,,,,,,,,,,,,,,,,,,,,,,,,,,,,,,,,
078337,001,2022-11-21_24h48.24.132,Info_measure_main_exp,2022.2.2,Win32,164.5819618,,,,,,,,,,,,,,,,,,masks/mask_005.jpg,,,,,,,,,,,,,,,,,,,,,,,,,,,,,,,,,,,,,,,,,,,0,2,2,4,1,,,,,,,,,,,,,,,,,,,,,,,,,,,,,,,,,,,,,,,,,,,,,,
078337,001,2022-11-21_24h48.24.132,Info_measure_main_exp,2022.2.2,Win32,164.5819618,,,,,,,,,,,,,,,,,,masks/mask_001.jpg,,,,,,,,,,,,,,,,,,,,,,,,,,,,,,,,,,,,,,,,,,,0,3,3,0,1,,,,,,,,,,,,,,,,,,,,,,,,,,,,,,,,,,,,,,,,,,,,,,
078337,001,2022-11-21_24h48.24.132,Info_measure_main_exp,2022.2.2,Win32,164.5819618,,,,,,,,,,,,,,,,,,masks/mask_002.jpg,,,,,,,,,,,,,,,,,,,,,,,,,,,,,,,,,,,,,,,,,,,0,4,4,1,1,,,,,,,,,,,,,,,,,,,,,,,,,,,,,,,,,,,,,,,,,,,,,,
078337,001,2022-11-21_24h48.24.132,Info_measure_main_exp,2022.2.2,Win32,164.5819618,,,,,,,,,,,,,,,,,,masks/mask_005.jpg,,,,,,,,,,,,,,,,,,,,,,,,,,,,,,,,,,,,,,,,,,,,,,,,0,0,0,4,1,,,,,,,,,,,,,,,,,,,,,,,,,,,,,,,,,,,,,,,,,
078337,001,2022-11-21_24h48.24.132,Info_measure_main_exp,2022.2.2,Win32,164.5819618,,,,,,,,,,,,,,,,,,masks/mask_002.jpg,,,,,,,,,,,,,,,,,,,,,,,,,,,,,,,,,,,,,,,,,,,,,,,,0,1,1,1,1,,,,,,,,,,,,,,,,,,,,,,,,,,,,,,,,,,,,,,,,,
078337,001,2022-11-21_24h48.24.132,Info_measure_main_exp,2022.2.2,Win32,164.5819618,,,,,,,,,,,,,,,,,,masks/mask_001.jpg,,,,,,,,,,,,,,,,,,,,,,,,,,,,,,,,,,,,,,,,,,,,,,,,0,2,2,0,1,,,,,,,,,,,,,,,,,,,,,,,,,,,,,,,,,,,,,,,,,
078337,001,2022-11-21_24h48.24.132,Info_measure_main_exp,2022.2.2,Win32,164.5819618,,,,,,,,,,,,,,,,,,masks/mask_003.jpg,,,,,,,,,,,,,,,,,,,,,,,,,,,,,,,,,,,,,,,,,,,,,,,,0,3,3,2,1,,,,,,,,,,,,,,,,,,,,,,,,,,,,,,,,,,,,,,,,,
078337,001,2022-11-21_24h48.24.132,Info_measure_main_exp,2022.2.2,Win32,164.5819618,,,,,,,,,,,,,,,,,,masks/mask_004.jpg,,,,,,,,,,,,,,,,,,,,,,,,,,,,,,,,,,,,,,,,,,,,,,,,0,4,4,3,1,,,,,,,,,,,,,,,,,,,,,,,,,,,,,,,,,,,,,,,,,
078337,001,2022-11-21_24h48.24.132,Info_measure_main_exp,2022.2.2,Win32,164.5819618,,,,,,,,,,,,,,,,,,,,,,,,,,,,,,6,0.7212,1,,,,,,,,,,,,0,131,5,5,2274,2238,absent_patch/patch0002274.jpg,absent_patch/patch0002238.jpg,,,,,,,,,,,,,,,,,,,,0.051851852,0.024074074,1,0,0,response1disk,29,0.002777778,0.002777778,1,0,0,center_square,0,28,28,91,1,,,,,,,,,,,,,,,,,,,,,,,
078337,001,2022-11-21_24h48.24.132,Info_measure_main_exp,2022.2.2,Win32,164.5819618,,,,,,,,,,,,,,,,,,masks/mask_002.jpg,,,,,,,,,,,,,,,,,,,,,,,,,,,,,,,,,,,,,,,,,,,0,0,0,1,1,,,,,,,,,,,,,,,,,,,,,,,,,,,,,,,,,,,,,,,,,,,,,,
078337,001,2022-11-21_24h48.24.132,Info_measure_main_exp,2022.2.2,Win32,164.5819618,,,,,,,,,,,,,,,,,,masks/mask_003.jpg,,,,,,,,,,,,,,,,,,,,,,,,,,,,,,,,,,,,,,,,,,,0,1,1,2,1,,,,,,,,,,,,,,,,,,,,,,,,,,,,,,,,,,,,,,,,,,,,,,
078337,001,2022-11-21_24h48.24.132,Info_measure_main_exp,2022.2.2,Win32,164.5819618,,,,,,,,,,,,,,,,,,masks/mask_001.jpg,,,,,,,,,,,,,,,,,,,,,,,,,,,,,,,,,,,,,,,,,,,0,2,2,0,1,,,,,,,,,,,,,,,,,,,,,,,,,,,,,,,,,,,,,,,,,,,,,,
078337,001,2022-11-21_24h48.24.132,Info_measure_main_exp,2022.2.2,Win32,164.5819618,,,,,,,,,,,,,,,,,,masks/mask_004.jpg,,,,,,,,,,,,,,,,,,,,,,,,,,,,,,,,,,,,,,,,,,,0,3,3,3,1,,,,,,,,,,,,,,,,,,,,,,,,,,,,,,,,,,,,,,,,,,,,,,
078337,001,2022-11-21_24h48.24.132,Info_measure_main_exp,2022.2.2,Win32,164.5819618,,,,,,,,,,,,,,,,,,masks/mask_005.jpg,,,,,,,,,,,,,,,,,,,,,,,,,,,,,,,,,,,,,,,,,,,0,4,4,4,1,,,,,,,,,,,,,,,,,,,,,,,,,,,,,,,,,,,,,,,,,,,,,,
078337,001,2022-11-21_24h48.24.132,Info_measure_main_exp,2022.2.2,Win32,164.5819618,,,,,,,,,,,,,,,,,,masks/mask_002.jpg,,,,,,,,,,,,,,,,,,,,,,,,,,,,,,,,,,,,,,,,,,,,,,,,0,0,0,1,1,,,,,,,,,,,,,,,,,,,,,,,,,,,,,,,,,,,,,,,,,
078337,001,2022-11-21_24h48.24.132,Info_measure_main_exp,2022.2.2,Win32,164.5819618,,,,,,,,,,,,,,,,,,masks/mask_003.jpg,,,,,,,,,,,,,,,,,,,,,,,,,,,,,,,,,,,,,,,,,,,,,,,,0,1,1,2,1,,,,,,,,,,,,,,,,,,,,,,,,,,,,,,,,,,,,,,,,,
078337,001,2022-11-21_24h48.24.132,Info_measure_main_exp,2022.2.2,Win32,164.5819618,,,,,,,,,,,,,,,,,,masks/mask_004.jpg,,,,,,,,,,,,,,,,,,,,,,,,,,,,,,,,,,,,,,,,,,,,,,,,0,2,2,3,1,,,,,,,,,,,,,,,,,,,,,,,,,,,,,,,,,,,,,,,,,
078337,001,2022-11-21_24h48.24.132,Info_measure_main_exp,2022.2.2,Win32,164.5819618,,,,,,,,,,,,,,,,,,masks/mask_005.jpg,,,,,,,,,,,,,,,,,,,,,,,,,,,,,,,,,,,,,,,,,,,,,,,,0,3,3,4,1,,,,,,,,,,,,,,,,,,,,,,,,,,,,,,,,,,,,,,,,,
078337,001,2022-11-21_24h48.24.132,Info_measure_main_exp,2022.2.2,Win32,164.5819618,,,,,,,,,,,,,,,,,,masks/mask_001.jpg,,,,,,,,,,,,,,,,,,,,,,,,,,,,,,,,,,,,,,,,,,,,,,,,0,4,4,0,1,,,,,,,,,,,,,,,,,,,,,,,,,,,,,,,,,,,,,,,,,
078337,001,2022-11-21_24h48.24.132,Info_measure_main_exp,2022.2.2,Win32,164.5819618,,,,,,,,,,,,,,,,,,,,,,,,,,,,,,3,0.6391,1,,,,,,,,,,,,0,131,5,5,1974,2238,absent_patch/patch0001974.jpg,absent_patch/patch0002238.jpg,,,,,,,,,,,,,,,,,,,,-0.05,-0.07037037,1,0,0,response5disk,30,-0.005555556,-0.006481481,1,0,0,center_square,0,29,29,95,1,,,,,,,,,,,,,,,,,,,,,,,
078337,001,2022-11-21_24h48.24.132,Info_measure_main_exp,2022.2.2,Win32,164.5819618,,,,,,,,,,,,,,,,,,masks/mask_001.jpg,,,,,,,,,,,,,,,,,,,,,,,,,,,,,,,,,,,,,,,,,,,0,0,0,0,1,,,,,,,,,,,,,,,,,,,,,,,,,,,,,,,,,,,,,,,,,,,,,,
078337,001,2022-11-21_24h48.24.132,Info_measure_main_exp,2022.2.2,Win32,164.5819618,,,,,,,,,,,,,,,,,,masks/mask_003.jpg,,,,,,,,,,,,,,,,,,,,,,,,,,,,,,,,,,,,,,,,,,,0,1,1,2,1,,,,,,,,,,,,,,,,,,,,,,,,,,,,,,,,,,,,,,,,,,,,,,
078337,001,2022-11-21_24h48.24.132,Info_measure_main_exp,2022.2.2,Win32,164.5819618,,,,,,,,,,,,,,,,,,masks/mask_002.jpg,,,,,,,,,,,,,,,,,,,,,,,,,,,,,,,,,,,,,,,,,,,0,2,2,1,1,,,,,,,,,,,,,,,,,,,,,,,,,,,,,,,,,,,,,,,,,,,,,,
078337,001,2022-11-21_24h48.24.132,Info_measure_main_exp,2022.2.2,Win32,164.5819618,,,,,,,,,,,,,,,,,,masks/mask_004.jpg,,,,,,,,,,,,,,,,,,,,,,,,,,,,,,,,,,,,,,,,,,,0,3,3,3,1,,,,,,,,,,,,,,,,,,,,,,,,,,,,,,,,,,,,,,,,,,,,,,
078337,001,2022-11-21_24h48.24.132,Info_measure_main_exp,2022.2.2,Win32,164.5819618,,,,,,,,,,,,,,,,,,masks/mask_005.jpg,,,,,,,,,,,,,,,,,,,,,,,,,,,,,,,,,,,,,,,,,,,0,4,4,4,1,,,,,,,,,,,,,,,,,,,,,,,,,,,,,,,,,,,,,,,,,,,,,,
078337,001,2022-11-21_24h48.24.132,Info_measure_main_exp,2022.2.2,Win32,164.5819618,,,,,,,,,,,,,,,,,,masks/mask_005.jpg,,,,,,,,,,,,,,,,,,,,,,,,,,,,,,,,,,,,,,,,,,,,,,,,0,0,0,4,1,,,,,,,,,,,,,,,,,,,,,,,,,,,,,,,,,,,,,,,,,
078337,001,2022-11-21_24h48.24.132,Info_measure_main_exp,2022.2.2,Win32,164.5819618,,,,,,,,,,,,,,,,,,masks/mask_001.jpg,,,,,,,,,,,,,,,,,,,,,,,,,,,,,,,,,,,,,,,,,,,,,,,,0,1,1,0,1,,,,,,,,,,,,,,,,,,,,,,,,,,,,,,,,,,,,,,,,,
078337,001,2022-11-21_24h48.24.132,Info_measure_main_exp,2022.2.2,Win32,164.5819618,,,,,,,,,,,,,,,,,,masks/mask_004.jpg,,,,,,,,,,,,,,,,,,,,,,,,,,,,,,,,,,,,,,,,,,,,,,,,0,2,2,3,1,,,,,,,,,,,,,,,,,,,,,,,,,,,,,,,,,,,,,,,,,
078337,001,2022-11-21_24h48.24.132,Info_measure_main_exp,2022.2.2,Win32,164.5819618,,,,,,,,,,,,,,,,,,masks/mask_003.jpg,,,,,,,,,,,,,,,,,,,,,,,,,,,,,,,,,,,,,,,,,,,,,,,,0,3,3,2,1,,,,,,,,,,,,,,,,,,,,,,,,,,,,,,,,,,,,,,,,,
078337,001,2022-11-21_24h48.24.132,Info_measure_main_exp,2022.2.2,Win32,164.5819618,,,,,,,,,,,,,,,,,,masks/mask_002.jpg,,,,,,,,,,,,,,,,,,,,,,,,,,,,,,,,,,,,,,,,,,,,,,,,0,4,4,1,1,,,,,,,,,,,,,,,,,,,,,,,,,,,,,,,,,,,,,,,,,
078337,001,2022-11-21_24h48.24.132,Info_measure_main_exp,2022.2.2,Win32,164.5819618,,,,,,,,,,,,,,,,,,,,,,,,,,,,,,7,0.7169,1,,,,,,,,,,,,0,131,5,5,1950,2238,absent_patch/patch0001950.jpg,absent_patch/patch0002238.jpg,,,,,,,,,,,,,,,,,,,,0.035185185,0.063888889,1,0,0,response1disk,31,-0.012962963,-0.009259259,1,0,0,center_square,0,30,30,8,1,,,,,,,,,,,,,,,,,,,,,,,
078337,001,2022-11-21_24h48.24.132,Info_measure_main_exp,2022.2.2,Win32,164.5819618,,,,,,,,,,,,,,,,,,masks/mask_004.jpg,,,,,,,,,,,,,,,,,,,,,,,,,,,,,,,,,,,,,,,,,,,0,0,0,3,1,,,,,,,,,,,,,,,,,,,,,,,,,,,,,,,,,,,,,,,,,,,,,,
078337,001,2022-11-21_24h48.24.132,Info_measure_main_exp,2022.2.2,Win32,164.5819618,,,,,,,,,,,,,,,,,,masks/mask_001.jpg,,,,,,,,,,,,,,,,,,,,,,,,,,,,,,,,,,,,,,,,,,,0,1,1,0,1,,,,,,,,,,,,,,,,,,,,,,,,,,,,,,,,,,,,,,,,,,,,,,
078337,001,2022-11-21_24h48.24.132,Info_measure_main_exp,2022.2.2,Win32,164.5819618,,,,,,,,,,,,,,,,,,masks/mask_005.jpg,,,,,,,,,,,,,,,,,,,,,,,,,,,,,,,,,,,,,,,,,,,0,2,2,4,1,,,,,,,,,,,,,,,,,,,,,,,,,,,,,,,,,,,,,,,,,,,,,,
078337,001,2022-11-21_24h48.24.132,Info_measure_main_exp,2022.2.2,Win32,164.5819618,,,,,,,,,,,,,,,,,,masks/mask_003.jpg,,,,,,,,,,,,,,,,,,,,,,,,,,,,,,,,,,,,,,,,,,,0,3,3,2,1,,,,,,,,,,,,,,,,,,,,,,,,,,,,,,,,,,,,,,,,,,,,,,
078337,001,2022-11-21_24h48.24.132,Info_measure_main_exp,2022.2.2,Win32,164.5819618,,,,,,,,,,,,,,,,,,masks/mask_002.jpg,,,,,,,,,,,,,,,,,,,,,,,,,,,,,,,,,,,,,,,,,,,0,4,4,1,1,,,,,,,,,,,,,,,,,,,,,,,,,,,,,,,,,,,,,,,,,,,,,,
078337,001,2022-11-21_24h48.24.132,Info_measure_main_exp,2022.2.2,Win32,164.5819618,,,,,,,,,,,,,,,,,,masks/mask_005.jpg,,,,,,,,,,,,,,,,,,,,,,,,,,,,,,,,,,,,,,,,,,,,,,,,0,0,0,4,1,,,,,,,,,,,,,,,,,,,,,,,,,,,,,,,,,,,,,,,,,
078337,001,2022-11-21_24h48.24.132,Info_measure_main_exp,2022.2.2,Win32,164.5819618,,,,,,,,,,,,,,,,,,masks/mask_001.jpg,,,,,,,,,,,,,,,,,,,,,,,,,,,,,,,,,,,,,,,,,,,,,,,,0,1,1,0,1,,,,,,,,,,,,,,,,,,,,,,,,,,,,,,,,,,,,,,,,,
078337,001,2022-11-21_24h48.24.132,Info_measure_main_exp,2022.2.2,Win32,164.5819618,,,,,,,,,,,,,,,,,,masks/mask_003.jpg,,,,,,,,,,,,,,,,,,,,,,,,,,,,,,,,,,,,,,,,,,,,,,,,0,2,2,2,1,,,,,,,,,,,,,,,,,,,,,,,,,,,,,,,,,,,,,,,,,
078337,001,2022-11-21_24h48.24.132,Info_measure_main_exp,2022.2.2,Win32,164.5819618,,,,,,,,,,,,,,,,,,masks/mask_004.jpg,,,,,,,,,,,,,,,,,,,,,,,,,,,,,,,,,,,,,,,,,,,,,,,,0,3,3,3,1,,,,,,,,,,,,,,,,,,,,,,,,,,,,,,,,,,,,,,,,,
078337,001,2022-11-21_24h48.24.132,Info_measure_main_exp,2022.2.2,Win32,164.5819618,,,,,,,,,,,,,,,,,,masks/mask_002.jpg,,,,,,,,,,,,,,,,,,,,,,,,,,,,,,,,,,,,,,,,,,,,,,,,0,4,4,1,1,,,,,,,,,,,,,,,,,,,,,,,,,,,,,,,,,,,,,,,,,
078337,001,2022-11-21_24h48.24.132,Info_measure_main_exp,2022.2.2,Win32,164.5819618,,,,,,,,,,,,,,,,,,,,,,,,,,,,,,5,0.6243,1,,,,,,,,,,,,0,131,5,5,1986,2142,absent_patch/patch0001986.jpg,absent_patch/patch0002142.jpg,,,,,,,,,,,,,,,,,,,,0.04537037,-0.021296296,1,0,0,response3disk,32,0.000925926,-0.00462963,1,0,0,center_square,0,31,31,76,1,,,,,,,,,,,,,,,,,,,,,,,
078337,001,2022-11-21_24h48.24.132,Info_measure_main_exp,2022.2.2,Win32,164.5819618,,,,,,,,,,,,,,,,,,masks/mask_001.jpg,,,,,,,,,,,,,,,,,,,,,,,,,,,,,,,,,,,,,,,,,,,0,0,0,0,1,,,,,,,,,,,,,,,,,,,,,,,,,,,,,,,,,,,,,,,,,,,,,,
078337,001,2022-11-21_24h48.24.132,Info_measure_main_exp,2022.2.2,Win32,164.5819618,,,,,,,,,,,,,,,,,,masks/mask_003.jpg,,,,,,,,,,,,,,,,,,,,,,,,,,,,,,,,,,,,,,,,,,,0,1,1,2,1,,,,,,,,,,,,,,,,,,,,,,,,,,,,,,,,,,,,,,,,,,,,,,
078337,001,2022-11-21_24h48.24.132,Info_measure_main_exp,2022.2.2,Win32,164.5819618,,,,,,,,,,,,,,,,,,masks/mask_004.jpg,,,,,,,,,,,,,,,,,,,,,,,,,,,,,,,,,,,,,,,,,,,0,2,2,3,1,,,,,,,,,,,,,,,,,,,,,,,,,,,,,,,,,,,,,,,,,,,,,,
078337,001,2022-11-21_24h48.24.132,Info_measure_main_exp,2022.2.2,Win32,164.5819618,,,,,,,,,,,,,,,,,,masks/mask_005.jpg,,,,,,,,,,,,,,,,,,,,,,,,,,,,,,,,,,,,,,,,,,,0,3,3,4,1,,,,,,,,,,,,,,,,,,,,,,,,,,,,,,,,,,,,,,,,,,,,,,
078337,001,2022-11-21_24h48.24.132,Info_measure_main_exp,2022.2.2,Win32,164.5819618,,,,,,,,,,,,,,,,,,masks/mask_002.jpg,,,,,,,,,,,,,,,,,,,,,,,,,,,,,,,,,,,,,,,,,,,0,4,4,1,1,,,,,,,,,,,,,,,,,,,,,,,,,,,,,,,,,,,,,,,,,,,,,,
078337,001,2022-11-21_24h48.24.132,Info_measure_main_exp,2022.2.2,Win32,164.5819618,,,,,,,,,,,,,,,,,,masks/mask_004.jpg,,,,,,,,,,,,,,,,,,,,,,,,,,,,,,,,,,,,,,,,,,,,,,,,0,0,0,3,1,,,,,,,,,,,,,,,,,,,,,,,,,,,,,,,,,,,,,,,,,
078337,001,2022-11-21_24h48.24.132,Info_measure_main_exp,2022.2.2,Win32,164.5819618,,,,,,,,,,,,,,,,,,masks/mask_005.jpg,,,,,,,,,,,,,,,,,,,,,,,,,,,,,,,,,,,,,,,,,,,,,,,,0,1,1,4,1,,,,,,,,,,,,,,,,,,,,,,,,,,,,,,,,,,,,,,,,,
078337,001,2022-11-21_24h48.24.132,Info_measure_main_exp,2022.2.2,Win32,164.5819618,,,,,,,,,,,,,,,,,,masks/mask_001.jpg,,,,,,,,,,,,,,,,,,,,,,,,,,,,,,,,,,,,,,,,,,,,,,,,0,2,2,0,1,,,,,,,,,,,,,,,,,,,,,,,,,,,,,,,,,,,,,,,,,
078337,001,2022-11-21_24h48.24.132,Info_measure_main_exp,2022.2.2,Win32,164.5819618,,,,,,,,,,,,,,,,,,masks/mask_003.jpg,,,,,,,,,,,,,,,,,,,,,,,,,,,,,,,,,,,,,,,,,,,,,,,,0,3,3,2,1,,,,,,,,,,,,,,,,,,,,,,,,,,,,,,,,,,,,,,,,,
078337,001,2022-11-21_24h48.24.132,Info_measure_main_exp,2022.2.2,Win32,164.5819618,,,,,,,,,,,,,,,,,,masks/mask_002.jpg,,,,,,,,,,,,,,,,,,,,,,,,,,,,,,,,,,,,,,,,,,,,,,,,0,4,4,1,1,,,,,,,,,,,,,,,,,,,,,,,,,,,,,,,,,,,,,,,,,
078337,001,2022-11-21_24h48.24.132,Info_measure_main_exp,2022.2.2,Win32,164.5819618,,,,,,,,,,,,,,,,,,,,,,,,,,,,,,0,0.6243,1,,,,,,,,,,,,0,131,5,5,1974,1974,absent_patch/patch0001974.jpg,absent_patch/patch0001974.jpg,,,,,,,,,,,,,,,,,,,,-0.026851852,0.087037037,1,0,0,response7disk,33,-0.00462963,0.003703704,1,0,0,center_square,0,32,32,113,1,,,,,,,,,,,,,,,,,,,,,,,
078337,001,2022-11-21_24h48.24.132,Info_measure_main_exp,2022.2.2,Win32,164.5819618,,,,,,,,,,,,,,,,,,masks/mask_003.jpg,,,,,,,,,,,,,,,,,,,,,,,,,,,,,,,,,,,,,,,,,,,0,0,0,2,1,,,,,,,,,,,,,,,,,,,,,,,,,,,,,,,,,,,,,,,,,,,,,,
078337,001,2022-11-21_24h48.24.132,Info_measure_main_exp,2022.2.2,Win32,164.5819618,,,,,,,,,,,,,,,,,,masks/mask_001.jpg,,,,,,,,,,,,,,,,,,,,,,,,,,,,,,,,,,,,,,,,,,,0,1,1,0,1,,,,,,,,,,,,,,,,,,,,,,,,,,,,,,,,,,,,,,,,,,,,,,
078337,001,2022-11-21_24h48.24.132,Info_measure_main_exp,2022.2.2,Win32,164.5819618,,,,,,,,,,,,,,,,,,masks/mask_002.jpg,,,,,,,,,,,,,,,,,,,,,,,,,,,,,,,,,,,,,,,,,,,0,2,2,1,1,,,,,,,,,,,,,,,,,,,,,,,,,,,,,,,,,,,,,,,,,,,,,,
078337,001,2022-11-21_24h48.24.132,Info_measure_main_exp,2022.2.2,Win32,164.5819618,,,,,,,,,,,,,,,,,,masks/mask_005.jpg,,,,,,,,,,,,,,,,,,,,,,,,,,,,,,,,,,,,,,,,,,,0,3,3,4,1,,,,,,,,,,,,,,,,,,,,,,,,,,,,,,,,,,,,,,,,,,,,,,
078337,001,2022-11-21_24h48.24.132,Info_measure_main_exp,2022.2.2,Win32,164.5819618,,,,,,,,,,,,,,,,,,masks/mask_004.jpg,,,,,,,,,,,,,,,,,,,,,,,,,,,,,,,,,,,,,,,,,,,0,4,4,3,1,,,,,,,,,,,,,,,,,,,,,,,,,,,,,,,,,,,,,,,,,,,,,,
078337,001,2022-11-21_24h48.24.132,Info_measure_main_exp,2022.2.2,Win32,164.5819618,,,,,,,,,,,,,,,,,,masks/mask_002.jpg,,,,,,,,,,,,,,,,,,,,,,,,,,,,,,,,,,,,,,,,,,,,,,,,0,0,0,1,1,,,,,,,,,,,,,,,,,,,,,,,,,,,,,,,,,,,,,,,,,
078337,001,2022-11-21_24h48.24.132,Info_measure_main_exp,2022.2.2,Win32,164.5819618,,,,,,,,,,,,,,,,,,masks/mask_003.jpg,,,,,,,,,,,,,,,,,,,,,,,,,,,,,,,,,,,,,,,,,,,,,,,,0,1,1,2,1,,,,,,,,,,,,,,,,,,,,,,,,,,,,,,,,,,,,,,,,,
078337,001,2022-11-21_24h48.24.132,Info_measure_main_exp,2022.2.2,Win32,164.5819618,,,,,,,,,,,,,,,,,,masks/mask_005.jpg,,,,,,,,,,,,,,,,,,,,,,,,,,,,,,,,,,,,,,,,,,,,,,,,0,2,2,4,1,,,,,,,,,,,,,,,,,,,,,,,,,,,,,,,,,,,,,,,,,
078337,001,2022-11-21_24h48.24.132,Info_measure_main_exp,2022.2.2,Win32,164.5819618,,,,,,,,,,,,,,,,,,masks/mask_001.jpg,,,,,,,,,,,,,,,,,,,,,,,,,,,,,,,,,,,,,,,,,,,,,,,,0,3,3,0,1,,,,,,,,,,,,,,,,,,,,,,,,,,,,,,,,,,,,,,,,,
078337,001,2022-11-21_24h48.24.132,Info_measure_main_exp,2022.2.2,Win32,164.5819618,,,,,,,,,,,,,,,,,,masks/mask_004.jpg,,,,,,,,,,,,,,,,,,,,,,,,,,,,,,,,,,,,,,,,,,,,,,,,0,4,4,3,1,,,,,,,,,,,,,,,,,,,,,,,,,,,,,,,,,,,,,,,,,
078337,001,2022-11-21_24h48.24.132,Info_measure_main_exp,2022.2.2,Win32,164.5819618,,,,,,,,,,,,,,,,,,,,,,,,,,,,,,4,0.9939,1,,,,,,,,,,,,0,131,5,5,2082,2250,absent_patch/patch0002082.jpg,absent_patch/patch0002250.jpg,,,,,,,,,,,,,,,,,,,,0.026851852,-0.046296296,1,0,0,response3disk,34,0.006481481,-0.000925926,1,0,0,center_square,0,33,33,3,1,,,,,,,,,,,,,,,,,,,,,,,
078337,001,2022-11-21_24h48.24.132,Info_measure_main_exp,2022.2.2,Win32,164.5819618,,,,,,,,,,,,,,,,,,masks/mask_004.jpg,,,,,,,,,,,,,,,,,,,,,,,,,,,,,,,,,,,,,,,,,,,0,0,0,3,1,,,,,,,,,,,,,,,,,,,,,,,,,,,,,,,,,,,,,,,,,,,,,,
078337,001,2022-11-21_24h48.24.132,Info_measure_main_exp,2022.2.2,Win32,164.5819618,,,,,,,,,,,,,,,,,,masks/mask_001.jpg,,,,,,,,,,,,,,,,,,,,,,,,,,,,,,,,,,,,,,,,,,,0,1,1,0,1,,,,,,,,,,,,,,,,,,,,,,,,,,,,,,,,,,,,,,,,,,,,,,
078337,001,2022-11-21_24h48.24.132,Info_measure_main_exp,2022.2.2,Win32,164.5819618,,,,,,,,,,,,,,,,,,masks/mask_002.jpg,,,,,,,,,,,,,,,,,,,,,,,,,,,,,,,,,,,,,,,,,,,0,2,2,1,1,,,,,,,,,,,,,,,,,,,,,,,,,,,,,,,,,,,,,,,,,,,,,,
078337,001,2022-11-21_24h48.24.132,Info_measure_main_exp,2022.2.2,Win32,164.5819618,,,,,,,,,,,,,,,,,,masks/mask_003.jpg,,,,,,,,,,,,,,,,,,,,,,,,,,,,,,,,,,,,,,,,,,,0,3,3,2,1,,,,,,,,,,,,,,,,,,,,,,,,,,,,,,,,,,,,,,,,,,,,,,
078337,001,2022-11-21_24h48.24.132,Info_measure_main_exp,2022.2.2,Win32,164.5819618,,,,,,,,,,,,,,,,,,masks/mask_005.jpg,,,,,,,,,,,,,,,,,,,,,,,,,,,,,,,,,,,,,,,,,,,0,4,4,4,1,,,,,,,,,,,,,,,,,,,,,,,,,,,,,,,,,,,,,,,,,,,,,,
078337,001,2022-11-21_24h48.24.132,Info_measure_main_exp,2022.2.2,Win32,164.5819618,,,,,,,,,,,,,,,,,,masks/mask_001.jpg,,,,,,,,,,,,,,,,,,,,,,,,,,,,,,,,,,,,,,,,,,,,,,,,0,0,0,0,1,,,,,,,,,,,,,,,,,,,,,,,,,,,,,,,,,,,,,,,,,
078337,001,2022-11-21_24h48.24.132,Info_measure_main_exp,2022.2.2,Win32,164.5819618,,,,,,,,,,,,,,,,,,masks/mask_003.jpg,,,,,,,,,,,,,,,,,,,,,,,,,,,,,,,,,,,,,,,,,,,,,,,,0,1,1,2,1,,,,,,,,,,,,,,,,,,,,,,,,,,,,,,,,,,,,,,,,,
078337,001,2022-11-21_24h48.24.132,Info_measure_main_exp,2022.2.2,Win32,164.5819618,,,,,,,,,,,,,,,,,,masks/mask_004.jpg,,,,,,,,,,,,,,,,,,,,,,,,,,,,,,,,,,,,,,,,,,,,,,,,0,2,2,3,1,,,,,,,,,,,,,,,,,,,,,,,,,,,,,,,,,,,,,,,,,
078337,001,2022-11-21_24h48.24.132,Info_measure_main_exp,2022.2.2,Win32,164.5819618,,,,,,,,,,,,,,,,,,masks/mask_005.jpg,,,,,,,,,,,,,,,,,,,,,,,,,,,,,,,,,,,,,,,,,,,,,,,,0,3,3,4,1,,,,,,,,,,,,,,,,,,,,,,,,,,,,,,,,,,,,,,,,,
