participant,session,date,expName,psychopyVersion,OS,frameRate,space_press_continue.keys,space_press_continue.rt,space_press_continue_2.keys,space_press_continue_2.rt,space_press_continue_3.keys,space_press_continue_3.rt,space_press_continue_4.keys,space_press_continue_4.rt,space_press_continue_5.keys,space_press_continue_5.rt,space_press_continue_6.keys,space_press_continue_6.rt,prac_mask_loop_1.thisRepN,prac_mask_loop_1.thisTrialN,prac_mask_loop_1.thisN,prac_mask_loop_1.thisIndex,prac_mask_loop_1.ran,mask_name,prac_mask_loop_2.thisRepN,prac_mask_loop_2.thisTrialN,prac_mask_loop_2.thisN,prac_mask_loop_2.thisIndex,prac_mask_loop_2.ran,mouse_2.x,mouse_2.y,mouse_2.leftButton,mouse_2.midButton,mouse_2.rightButton,mouse_2.clicked_name,similarity,response_time,Pass,mouse_12.x,mouse_12.y,mouse_12.leftButton,mouse_12.midButton,mouse_12.rightButton,mouse_12.clicked_name,prac_loop.thisRepN,prac_loop.thisTrialN,prac_loop.thisN,prac_loop.thisIndex,prac_loop.ran,Pair_type,Image_num,Patch_1_loc,Patch_2_loc,Patch_1_info,Patch_2_info,Patch_1_name,Patch_2_name,mouse_1.x,mouse_1.y,mouse_1.leftButton,mouse_1.midButton,mouse_1.rightButton,mouse_1.time,mouse_1.clicked_name,space_press_continue_7.keys,space_press_continue_7.rt,mask_loop.thisRepN,mask_loop.thisTrialN,mask_loop.thisN,mask_loop.thisIndex,mask_loop.ran,mask_loop_2.thisRepN,mask_loop_2.thisTrialN,mask_loop_2.thisN,mask_loop_2.thisIndex,mask_loop_2.ran,mouse.x,mouse.y,mouse.leftButton,mouse.midButton,mouse.rightButton,mouse.clicked_name,trialNumber,mouse_11.x,mouse_11.y,mouse_11.leftButton,mouse_11.midButton,mouse_11.rightButton,mouse_11.clicked_name,first_pass_loop.thisRepN,first_pass_loop.thisTrialN,first_pass_loop.thisN,first_pass_loop.thisIndex,first_pass_loop.ran,mask_loop_3.thisRepN,mask_loop_3.thisTrialN,mask_loop_3.thisN,mask_loop_3.thisIndex,mask_loop_3.ran,mask_loop_4.thisRepN,mask_loop_4.thisTrialN,mask_loop_4.thisN,mask_loop_4.thisIndex,mask_loop_4.ran,mouse_3.x,mouse_3.y,mouse_3.leftButton,mouse_3.midButton,mouse_3.rightButton,mouse_3.clicked_name,double_pass_loop.thisRepN,double_pass_loop.thisTrialN,double_pass_loop.thisN,double_pass_loop.thisIndex,double_pass_loop.ran,space_exit.keys,space_exit.rt
080907,001,2022-11-20_20h50.49.810,Info_measure_main_exp,2022.2.2,Win32,60.0276127,,,,,,,,,,,,,,,,,,,,,,,,,,,,,,,,,,,,,,,,,,,,,,,,,,,,,,,,,,,,,,,,,,,,,,,,,,,,,,,,,,,,,,,,,,,,,,,,,,,,,,,,,,,,,,,
080907,001,2022-11-20_20h50.49.810,Info_measure_main_exp,2022.2.2,Win32,60.0276127,,,,,,,,,,,,,,,,,,,,,,,,,,,,,,,,,,,,,,,,,,,,,,,,,,,,,,,,,,,,,,,,,,,,,,,,,,,,,,,,,,,,,,,,,,,,,,,,,,,,,,,,,,,,,,,
080907,001,2022-11-20_20h50.49.810,Info_measure_main_exp,2022.2.2,Win32,60.0276127,space,5.5927,,,,,,,,,,,,,,,,,,,,,,,,,,,,,,,,,,,,,,,,,,,,,,,,,,,,,,,,,,,,,,,,,,,,,,,,,,,,,,,,,,,,,,,,,,,,,,,,,,,,,,,,,,,,,
080907,001,2022-11-20_20h50.49.810,Info_measure_main_exp,2022.2.2,Win32,60.0276127,,,space,17.9876,,,,,,,,,,,,,,,,,,,,,,,,,,,,,,,,,,,,,,,,,,,,,,,,,,,,,,,,,,,,,,,,,,,,,,,,,,,,,,,,,,,,,,,,,,,,,,,,,,,,,,,,,,,
080907,001,2022-11-20_20h50.49.810,Info_measure_main_exp,2022.2.2,Win32,60.0276127,,,,,space,5.3115,,,,,,,,,,,,,,,,,,,,,,,,,,,,,,,,,,,,,,,,,,,,,,,,,,,,,,,,,,,,,,,,,,,,,,,,,,,,,,,,,,,,,,,,,,,,,,,,,,,,,,,,,
080907,001,2022-11-20_20h50.49.810,Info_measure_main_exp,2022.2.2,Win32,60.0276127,,,,,,,space,12.0915,,,,,,,,,,,,,,,,,,,,,,,,,,,,,,,,,,,,,,,,,,,,,,,,,,,,,,,,,,,,,,,,,,,,,,,,,,,,,,,,,,,,,,,,,,,,,,,,,,,,,,,
080907,001,2022-11-20_20h50.49.810,Info_measure_main_exp,2022.2.2,Win32,60.0276127,,,,,,,,,space,8.8855,,,,,,,,,,,,,,,,,,,,,,,,,,,,,,,,,,,,,,,,,,,,,,,,,,,,,,,,,,,,,,,,,,,,,,,,,,,,,,,,,,,,,,,,,,,,,,,,,,,,,
080907,001,2022-11-20_20h50.49.810,Info_measure_main_exp,2022.2.2,Win32,60.0276127,,,,,,,,,,,space,3.6981,,,,,,,,,,,,,,,,,,,,,,,,,,,,,,,,,,,,,,,,,,,,,,,,,,,,,,,,,,,,,,,,,,,,,,,,,,,,,,,,,,,,,,,,,,,,,,,,,,,
080907,001,2022-11-20_20h50.49.810,Info_measure_main_exp,2022.2.2,Win32,60.0276127,,,,,,,,,,,,,0,0,0,1,1,masks/mask_002.jpg,,,,,,,,,,,,,,,,,,,,,,,,,,,,,,,,,,,,,,,,,,,,,,,,,,,,,,,,,,,,,,,,,,,,,,,,,,,,,,,,,,,,,,,,,,,,,
080907,001,2022-11-20_20h50.49.810,Info_measure_main_exp,2022.2.2,Win32,60.0276127,,,,,,,,,,,,,0,1,1,2,1,masks/mask_003.jpg,,,,,,,,,,,,,,,,,,,,,,,,,,,,,,,,,,,,,,,,,,,,,,,,,,,,,,,,,,,,,,,,,,,,,,,,,,,,,,,,,,,,,,,,,,,,,
080907,001,2022-11-20_20h50.49.810,Info_measure_main_exp,2022.2.2,Win32,60.0276127,,,,,,,,,,,,,0,2,2,3,1,masks/mask_004.jpg,,,,,,,,,,,,,,,,,,,,,,,,,,,,,,,,,,,,,,,,,,,,,,,,,,,,,,,,,,,,,,,,,,,,,,,,,,,,,,,,,,,,,,,,,,,,,
080907,001,2022-11-20_20h50.49.810,Info_measure_main_exp,2022.2.2,Win32,60.0276127,,,,,,,,,,,,,0,3,3,4,1,masks/mask_005.jpg,,,,,,,,,,,,,,,,,,,,,,,,,,,,,,,,,,,,,,,,,,,,,,,,,,,,,,,,,,,,,,,,,,,,,,,,,,,,,,,,,,,,,,,,,,,,,
080907,001,2022-11-20_20h50.49.810,Info_measure_main_exp,2022.2.2,Win32,60.0276127,,,,,,,,,,,,,0,4,4,0,1,masks/mask_001.jpg,,,,,,,,,,,,,,,,,,,,,,,,,,,,,,,,,,,,,,,,,,,,,,,,,,,,,,,,,,,,,,,,,,,,,,,,,,,,,,,,,,,,,,,,,,,,,
080907,001,2022-11-20_20h50.49.810,Info_measure_main_exp,2022.2.2,Win32,60.0276127,,,,,,,,,,,,,,,,,,masks/mask_001.jpg,0,0,0,0,1,,,,,,,,,,,,,,,,,,,,,,,,,,,,,,,,,,,,,,,,,,,,,,,,,,,,,,,,,,,,,,,,,,,,,,,,,,,,,,,,,,,,,,,,
080907,001,2022-11-20_20h50.49.810,Info_measure_main_exp,2022.2.2,Win32,60.0276127,,,,,,,,,,,,,,,,,,masks/mask_002.jpg,0,1,1,1,1,,,,,,,,,,,,,,,,,,,,,,,,,,,,,,,,,,,,,,,,,,,,,,,,,,,,,,,,,,,,,,,,,,,,,,,,,,,,,,,,,,,,,,,,
080907,001,2022-11-20_20h50.49.810,Info_measure_main_exp,2022.2.2,Win32,60.0276127,,,,,,,,,,,,,,,,,,masks/mask_005.jpg,0,2,2,4,1,,,,,,,,,,,,,,,,,,,,,,,,,,,,,,,,,,,,,,,,,,,,,,,,,,,,,,,,,,,,,,,,,,,,,,,,,,,,,,,,,,,,,,,,
080907,001,2022-11-20_20h50.49.810,Info_measure_main_exp,2022.2.2,Win32,60.0276127,,,,,,,,,,,,,,,,,,masks/mask_003.jpg,0,3,3,2,1,,,,,,,,,,,,,,,,,,,,,,,,,,,,,,,,,,,,,,,,,,,,,,,,,,,,,,,,,,,,,,,,,,,,,,,,,,,,,,,,,,,,,,,,
080907,001,2022-11-20_20h50.49.810,Info_measure_main_exp,2022.2.2,Win32,60.0276127,,,,,,,,,,,,,,,,,,masks/mask_004.jpg,0,4,4,3,1,,,,,,,,,,,,,,,,,,,,,,,,,,,,,,,,,,,,,,,,,,,,,,,,,,,,,,,,,,,,,,,,,,,,,,,,,,,,,,,,,,,,,,,,
080907,001,2022-11-20_20h50.49.810,Info_measure_main_exp,2022.2.2,Win32,60.0276127,,,,,,,,,,,,,,,,,,,,,,,,-0.149999972,-0.037037037,1,0,0,response5disk,2,59.7235,1,-0.00462963,0.001851859,1,0,0,center_square,0,0,0,1,1,0,131,5,5,2514,2490,prac_patch/patch0002514.jpg,prac_patch/patch0002490.jpg,,,,,,,,,,,,,,,,,,,,,,,,,,,,,,,,,,,,,,,,,,,,,,,,,,,,,,,,,,,,
080907,001,2022-11-20_20h50.49.810,Info_measure_main_exp,2022.2.2,Win32,60.0276127,,,,,,,,,,,,,0,0,0,1,1,masks/mask_002.jpg,,,,,,,,,,,,,,,,,,,,,,,,,,,,,,,,,,,,,,,,,,,,,,,,,,,,,,,,,,,,,,,,,,,,,,,,,,,,,,,,,,,,,,,,,,,,,
080907,001,2022-11-20_20h50.49.810,Info_measure_main_exp,2022.2.2,Win32,60.0276127,,,,,,,,,,,,,0,1,1,3,1,masks/mask_004.jpg,,,,,,,,,,,,,,,,,,,,,,,,,,,,,,,,,,,,,,,,,,,,,,,,,,,,,,,,,,,,,,,,,,,,,,,,,,,,,,,,,,,,,,,,,,,,,
080907,001,2022-11-20_20h50.49.810,Info_measure_main_exp,2022.2.2,Win32,60.0276127,,,,,,,,,,,,,0,2,2,4,1,masks/mask_005.jpg,,,,,,,,,,,,,,,,,,,,,,,,,,,,,,,,,,,,,,,,,,,,,,,,,,,,,,,,,,,,,,,,,,,,,,,,,,,,,,,,,,,,,,,,,,,,,
080907,001,2022-11-20_20h50.49.810,Info_measure_main_exp,2022.2.2,Win32,60.0276127,,,,,,,,,,,,,0,3,3,2,1,masks/mask_003.jpg,,,,,,,,,,,,,,,,,,,,,,,,,,,,,,,,,,,,,,,,,,,,,,,,,,,,,,,,,,,,,,,,,,,,,,,,,,,,,,,,,,,,,,,,,,,,,
080907,001,2022-11-20_20h50.49.810,Info_measure_main_exp,2022.2.2,Win32,60.0276127,,,,,,,,,,,,,0,4,4,0,1,masks/mask_001.jpg,,,,,,,,,,,,,,,,,,,,,,,,,,,,,,,,,,,,,,,,,,,,,,,,,,,,,,,,,,,,,,,,,,,,,,,,,,,,,,,,,,,,,,,,,,,,,
080907,001,2022-11-20_20h50.49.810,Info_measure_main_exp,2022.2.2,Win32,60.0276127,,,,,,,,,,,,,,,,,,masks/mask_001.jpg,0,0,0,0,1,,,,,,,,,,,,,,,,,,,,,,,,,,,,,,,,,,,,,,,,,,,,,,,,,,,,,,,,,,,,,,,,,,,,,,,,,,,,,,,,,,,,,,,,
080907,001,2022-11-20_20h50.49.810,Info_measure_main_exp,2022.2.2,Win32,60.0276127,,,,,,,,,,,,,,,,,,masks/mask_002.jpg,0,1,1,1,1,,,,,,,,,,,,,,,,,,,,,,,,,,,,,,,,,,,,,,,,,,,,,,,,,,,,,,,,,,,,,,,,,,,,,,,,,,,,,,,,,,,,,,,,
080907,001,2022-11-20_20h50.49.810,Info_measure_main_exp,2022.2.2,Win32,60.0276127,,,,,,,,,,,,,,,,,,masks/mask_003.jpg,0,2,2,2,1,,,,,,,,,,,,,,,,,,,,,,,,,,,,,,,,,,,,,,,,,,,,,,,,,,,,,,,,,,,,,,,,,,,,,,,,,,,,,,,,,,,,,,,,
080907,001,2022-11-20_20h50.49.810,Info_measure_main_exp,2022.2.2,Win32,60.0276127,,,,,,,,,,,,,,,,,,masks/mask_005.jpg,0,3,3,4,1,,,,,,,,,,,,,,,,,,,,,,,,,,,,,,,,,,,,,,,,,,,,,,,,,,,,,,,,,,,,,,,,,,,,,,,,,,,,,,,,,,,,,,,,
080907,001,2022-11-20_20h50.49.810,Info_measure_main_exp,2022.2.2,Win32,60.0276127,,,,,,,,,,,,,,,,,,masks/mask_004.jpg,0,4,4,3,1,,,,,,,,,,,,,,,,,,,,,,,,,,,,,,,,,,,,,,,,,,,,,,,,,,,,,,,,,,,,,,,,,,,,,,,,,,,,,,,,,,,,,,,,
080907,001,2022-11-20_20h50.49.810,Info_measure_main_exp,2022.2.2,Win32,60.0276127,,,,,,,,,,,,,,,,,,,,,,,,0.091666681,0.025000007,1,0,0,response1disk,6,71.9267,1,0,0.0074074,1,0,0,center_square,0,1,1,0,1,0,131,5,5,2370,2406,prac_patch/patch0002370.jpg,prac_patch/patch0002406.jpg,,,,,,,,,,,,,,,,,,,,,,,,,,,,,,,,,,,,,,,,,,,,,,,,,,,,,,,,,,,,
080907,001,2022-11-20_20h50.49.810,Info_measure_main_exp,2022.2.2,Win32,60.0276127,,,,,,,,,,,,,0,0,0,3,1,masks/mask_004.jpg,,,,,,,,,,,,,,,,,,,,,,,,,,,,,,,,,,,,,,,,,,,,,,,,,,,,,,,,,,,,,,,,,,,,,,,,,,,,,,,,,,,,,,,,,,,,,
080907,001,2022-11-20_20h50.49.810,Info_measure_main_exp,2022.2.2,Win32,60.0276127,,,,,,,,,,,,,0,1,1,1,1,masks/mask_002.jpg,,,,,,,,,,,,,,,,,,,,,,,,,,,,,,,,,,,,,,,,,,,,,,,,,,,,,,,,,,,,,,,,,,,,,,,,,,,,,,,,,,,,,,,,,,,,,
080907,001,2022-11-20_20h50.49.810,Info_measure_main_exp,2022.2.2,Win32,60.0276127,,,,,,,,,,,,,0,2,2,0,1,masks/mask_001.jpg,,,,,,,,,,,,,,,,,,,,,,,,,,,,,,,,,,,,,,,,,,,,,,,,,,,,,,,,,,,,,,,,,,,,,,,,,,,,,,,,,,,,,,,,,,,,,
080907,001,2022-11-20_20h50.49.810,Info_measure_main_exp,2022.2.2,Win32,60.0276127,,,,,,,,,,,,,0,3,3,4,1,masks/mask_005.jpg,,,,,,,,,,,,,,,,,,,,,,,,,,,,,,,,,,,,,,,,,,,,,,,,,,,,,,,,,,,,,,,,,,,,,,,,,,,,,,,,,,,,,,,,,,,,,
080907,001,2022-11-20_20h50.49.810,Info_measure_main_exp,2022.2.2,Win32,60.0276127,,,,,,,,,,,,,0,4,4,2,1,masks/mask_003.jpg,,,,,,,,,,,,,,,,,,,,,,,,,,,,,,,,,,,,,,,,,,,,,,,,,,,,,,,,,,,,,,,,,,,,,,,,,,,,,,,,,,,,,,,,,,,,,
080907,001,2022-11-20_20h50.49.810,Info_measure_main_exp,2022.2.2,Win32,60.0276127,,,,,,,,,,,,,,,,,,masks/mask_004.jpg,0,0,0,3,1,,,,,,,,,,,,,,,,,,,,,,,,,,,,,,,,,,,,,,,,,,,,,,,,,,,,,,,,,,,,,,,,,,,,,,,,,,,,,,,,,,,,,,,,
080907,001,2022-11-20_20h50.49.810,Info_measure_main_exp,2022.2.2,Win32,60.0276127,,,,,,,,,,,,,,,,,,masks/mask_002.jpg,0,1,1,1,1,,,,,,,,,,,,,,,,,,,,,,,,,,,,,,,,,,,,,,,,,,,,,,,,,,,,,,,,,,,,,,,,,,,,,,,,,,,,,,,,,,,,,,,,
080907,001,2022-11-20_20h50.49.810,Info_measure_main_exp,2022.2.2,Win32,60.0276127,,,,,,,,,,,,,,,,,,masks/mask_005.jpg,0,2,2,4,1,,,,,,,,,,,,,,,,,,,,,,,,,,,,,,,,,,,,,,,,,,,,,,,,,,,,,,,,,,,,,,,,,,,,,,,,,,,,,,,,,,,,,,,,
080907,001,2022-11-20_20h50.49.810,Info_measure_main_exp,2022.2.2,Win32,60.0276127,,,,,,,,,,,,,,,,,,masks/mask_001.jpg,0,3,3,0,1,,,,,,,,,,,,,,,,,,,,,,,,,,,,,,,,,,,,,,,,,,,,,,,,,,,,,,,,,,,,,,,,,,,,,,,,,,,,,,,,,,,,,,,,
080907,001,2022-11-20_20h50.49.810,Info_measure_main_exp,2022.2.2,Win32,60.0276127,,,,,,,,,,,,,,,,,,masks/mask_003.jpg,0,4,4,2,1,,,,,,,,,,,,,,,,,,,,,,,,,,,,,,,,,,,,,,,,,,,,,,,,,,,,,,,,,,,,,,,,,,,,,,,,,,,,,,,,,,,,,,,,
080907,001,2022-11-20_20h50.49.810,Info_measure_main_exp,2022.2.2,Win32,60.0276127,,,,,,,,,,,,,,,,,,,,,,,,-0.116666653,-0.034259266,1,0,0,response5disk,2,79.824,1,0.007407436,-0.002777771,1,0,0,center_square,0,2,2,2,1,0,131,5,5,2526,2526,prac_patch/patch0002526.jpg,prac_patch/patch0002526.jpg,,,,,,,,,,,,,,,,,,,,,,,,,,,,,,,,,,,,,,,,,,,,,,,,,,,,,,,,,,,,
080907,001,2022-11-20_20h50.49.810,Info_measure_main_exp,2022.2.2,Win32,60.0276127,,,,,,,,,,,,,,,,,,,,,,,,,,,,,,,,,,,,,,,,,,,,,,,,,,,,,,,,,,,space,1.9749,,,,,,,,,,,,,,,,,,,,,,,,,,,,,,,,,,,,,,,,,,,,,,,,,,,
080907,001,2022-11-20_20h50.49.810,Info_measure_main_exp,2022.2.2,Win32,60.0276127,,,,,,,,,,,,,,,,,,masks/mask_005.jpg,,,,,,,,,,,,,,,,,,,,,,,,,,,,,,,,,,,,,,,,,,,0,0,0,4,1,,,,,,,,,,,,,,,,,,,,,,,,,,,,,,,,,,,,,,,,,,,,,,
080907,001,2022-11-20_20h50.49.810,Info_measure_main_exp,2022.2.2,Win32,60.0276127,,,,,,,,,,,,,,,,,,masks/mask_003.jpg,,,,,,,,,,,,,,,,,,,,,,,,,,,,,,,,,,,,,,,,,,,0,1,1,2,1,,,,,,,,,,,,,,,,,,,,,,,,,,,,,,,,,,,,,,,,,,,,,,
080907,001,2022-11-20_20h50.49.810,Info_measure_main_exp,2022.2.2,Win32,60.0276127,,,,,,,,,,,,,,,,,,masks/mask_002.jpg,,,,,,,,,,,,,,,,,,,,,,,,,,,,,,,,,,,,,,,,,,,0,2,2,1,1,,,,,,,,,,,,,,,,,,,,,,,,,,,,,,,,,,,,,,,,,,,,,,
080907,001,2022-11-20_20h50.49.810,Info_measure_main_exp,2022.2.2,Win32,60.0276127,,,,,,,,,,,,,,,,,,masks/mask_001.jpg,,,,,,,,,,,,,,,,,,,,,,,,,,,,,,,,,,,,,,,,,,,0,3,3,0,1,,,,,,,,,,,,,,,,,,,,,,,,,,,,,,,,,,,,,,,,,,,,,,
080907,001,2022-11-20_20h50.49.810,Info_measure_main_exp,2022.2.2,Win32,60.0276127,,,,,,,,,,,,,,,,,,masks/mask_004.jpg,,,,,,,,,,,,,,,,,,,,,,,,,,,,,,,,,,,,,,,,,,,0,4,4,3,1,,,,,,,,,,,,,,,,,,,,,,,,,,,,,,,,,,,,,,,,,,,,,,
080907,001,2022-11-20_20h50.49.810,Info_measure_main_exp,2022.2.2,Win32,60.0276127,,,,,,,,,,,,,,,,,,masks/mask_004.jpg,,,,,,,,,,,,,,,,,,,,,,,,,,,,,,,,,,,,,,,,,,,,,,,,0,0,0,3,1,,,,,,,,,,,,,,,,,,,,,,,,,,,,,,,,,,,,,,,,,
080907,001,2022-11-20_20h50.49.810,Info_measure_main_exp,2022.2.2,Win32,60.0276127,,,,,,,,,,,,,,,,,,masks/mask_001.jpg,,,,,,,,,,,,,,,,,,,,,,,,,,,,,,,,,,,,,,,,,,,,,,,,0,1,1,0,1,,,,,,,,,,,,,,,,,,,,,,,,,,,,,,,,,,,,,,,,,
080907,001,2022-11-20_20h50.49.810,Info_measure_main_exp,2022.2.2,Win32,60.0276127,,,,,,,,,,,,,,,,,,masks/mask_003.jpg,,,,,,,,,,,,,,,,,,,,,,,,,,,,,,,,,,,,,,,,,,,,,,,,0,2,2,2,1,,,,,,,,,,,,,,,,,,,,,,,,,,,,,,,,,,,,,,,,,
080907,001,2022-11-20_20h50.49.810,Info_measure_main_exp,2022.2.2,Win32,60.0276127,,,,,,,,,,,,,,,,,,masks/mask_002.jpg,,,,,,,,,,,,,,,,,,,,,,,,,,,,,,,,,,,,,,,,,,,,,,,,0,3,3,1,1,,,,,,,,,,,,,,,,,,,,,,,,,,,,,,,,,,,,,,,,,
080907,001,2022-11-20_20h50.49.810,Info_measure_main_exp,2022.2.2,Win32,60.0276127,,,,,,,,,,,,,,,,,,masks/mask_005.jpg,,,,,,,,,,,,,,,,,,,,,,,,,,,,,,,,,,,,,,,,,,,,,,,,0,4,4,4,1,,,,,,,,,,,,,,,,,,,,,,,,,,,,,,,,,,,,,,,,,
080907,001,2022-11-20_20h50.49.810,Info_measure_main_exp,2022.2.2,Win32,60.0276127,,,,,,,,,,,,,,,,,,,,,,,,,,,,,,6,1.4995,1,,,,,,,,,,,,0,131,5,5,2190,2166,absent_patch/patch0002190.jpg,absent_patch/patch0002166.jpg,,,,,,,,,,,,,,,,,,,,0.114814829,0.037962949,1,0,0,response1disk,1,0.00462963,-0.005555577,1,0,0,center_square,0,0,0,50,1,,,,,,,,,,,,,,,,,,,,,,,
080907,001,2022-11-20_20h50.49.810,Info_measure_main_exp,2022.2.2,Win32,60.0276127,,,,,,,,,,,,,,,,,,masks/mask_001.jpg,,,,,,,,,,,,,,,,,,,,,,,,,,,,,,,,,,,,,,,,,,,0,0,0,0,1,,,,,,,,,,,,,,,,,,,,,,,,,,,,,,,,,,,,,,,,,,,,,,
080907,001,2022-11-20_20h50.49.810,Info_measure_main_exp,2022.2.2,Win32,60.0276127,,,,,,,,,,,,,,,,,,masks/mask_005.jpg,,,,,,,,,,,,,,,,,,,,,,,,,,,,,,,,,,,,,,,,,,,0,1,1,4,1,,,,,,,,,,,,,,,,,,,,,,,,,,,,,,,,,,,,,,,,,,,,,,
080907,001,2022-11-20_20h50.49.810,Info_measure_main_exp,2022.2.2,Win32,60.0276127,,,,,,,,,,,,,,,,,,masks/mask_004.jpg,,,,,,,,,,,,,,,,,,,,,,,,,,,,,,,,,,,,,,,,,,,0,2,2,3,1,,,,,,,,,,,,,,,,,,,,,,,,,,,,,,,,,,,,,,,,,,,,,,
080907,001,2022-11-20_20h50.49.810,Info_measure_main_exp,2022.2.2,Win32,60.0276127,,,,,,,,,,,,,,,,,,masks/mask_002.jpg,,,,,,,,,,,,,,,,,,,,,,,,,,,,,,,,,,,,,,,,,,,0,3,3,1,1,,,,,,,,,,,,,,,,,,,,,,,,,,,,,,,,,,,,,,,,,,,,,,
080907,001,2022-11-20_20h50.49.810,Info_measure_main_exp,2022.2.2,Win32,60.0276127,,,,,,,,,,,,,,,,,,masks/mask_003.jpg,,,,,,,,,,,,,,,,,,,,,,,,,,,,,,,,,,,,,,,,,,,0,4,4,2,1,,,,,,,,,,,,,,,,,,,,,,,,,,,,,,,,,,,,,,,,,,,,,,
080907,001,2022-11-20_20h50.49.810,Info_measure_main_exp,2022.2.2,Win32,60.0276127,,,,,,,,,,,,,,,,,,masks/mask_002.jpg,,,,,,,,,,,,,,,,,,,,,,,,,,,,,,,,,,,,,,,,,,,,,,,,0,0,0,1,1,,,,,,,,,,,,,,,,,,,,,,,,,,,,,,,,,,,,,,,,,
080907,001,2022-11-20_20h50.49.810,Info_measure_main_exp,2022.2.2,Win32,60.0276127,,,,,,,,,,,,,,,,,,masks/mask_003.jpg,,,,,,,,,,,,,,,,,,,,,,,,,,,,,,,,,,,,,,,,,,,,,,,,0,1,1,2,1,,,,,,,,,,,,,,,,,,,,,,,,,,,,,,,,,,,,,,,,,
080907,001,2022-11-20_20h50.49.810,Info_measure_main_exp,2022.2.2,Win32,60.0276127,,,,,,,,,,,,,,,,,,masks/mask_001.jpg,,,,,,,,,,,,,,,,,,,,,,,,,,,,,,,,,,,,,,,,,,,,,,,,0,2,2,0,1,,,,,,,,,,,,,,,,,,,,,,,,,,,,,,,,,,,,,,,,,
080907,001,2022-11-20_20h50.49.810,Info_measure_main_exp,2022.2.2,Win32,60.0276127,,,,,,,,,,,,,,,,,,masks/mask_004.jpg,,,,,,,,,,,,,,,,,,,,,,,,,,,,,,,,,,,,,,,,,,,,,,,,0,3,3,3,1,,,,,,,,,,,,,,,,,,,,,,,,,,,,,,,,,,,,,,,,,
080907,001,2022-11-20_20h50.49.810,Info_measure_main_exp,2022.2.2,Win32,60.0276127,,,,,,,,,,,,,,,,,,masks/mask_005.jpg,,,,,,,,,,,,,,,,,,,,,,,,,,,,,,,,,,,,,,,,,,,,,,,,0,4,4,4,1,,,,,,,,,,,,,,,,,,,,,,,,,,,,,,,,,,,,,,,,,
080907,001,2022-11-20_20h50.49.810,Info_measure_main_exp,2022.2.2,Win32,60.0276127,,,,,,,,,,,,,,,,,,,,,,,,,,,,,,4,2.8824,1,,,,,,,,,,,,0,131,5,5,1950,2178,absent_patch/patch0001950.jpg,absent_patch/patch0002178.jpg,,,,,,,,,,,,,,,,,,,,0.033333319,-0.158333319,1,0,0,response3disk,2,0.00462963,-0.006481489,1,0,0,center_square,0,1,1,61,1,,,,,,,,,,,,,,,,,,,,,,,
080907,001,2022-11-20_20h50.49.810,Info_measure_main_exp,2022.2.2,Win32,60.0276127,,,,,,,,,,,,,,,,,,masks/mask_004.jpg,,,,,,,,,,,,,,,,,,,,,,,,,,,,,,,,,,,,,,,,,,,0,0,0,3,1,,,,,,,,,,,,,,,,,,,,,,,,,,,,,,,,,,,,,,,,,,,,,,
080907,001,2022-11-20_20h50.49.810,Info_measure_main_exp,2022.2.2,Win32,60.0276127,,,,,,,,,,,,,,,,,,masks/mask_003.jpg,,,,,,,,,,,,,,,,,,,,,,,,,,,,,,,,,,,,,,,,,,,0,1,1,2,1,,,,,,,,,,,,,,,,,,,,,,,,,,,,,,,,,,,,,,,,,,,,,,
080907,001,2022-11-20_20h50.49.810,Info_measure_main_exp,2022.2.2,Win32,60.0276127,,,,,,,,,,,,,,,,,,masks/mask_001.jpg,,,,,,,,,,,,,,,,,,,,,,,,,,,,,,,,,,,,,,,,,,,0,2,2,0,1,,,,,,,,,,,,,,,,,,,,,,,,,,,,,,,,,,,,,,,,,,,,,,
080907,001,2022-11-20_20h50.49.810,Info_measure_main_exp,2022.2.2,Win32,60.0276127,,,,,,,,,,,,,,,,,,masks/mask_002.jpg,,,,,,,,,,,,,,,,,,,,,,,,,,,,,,,,,,,,,,,,,,,0,3,3,1,1,,,,,,,,,,,,,,,,,,,,,,,,,,,,,,,,,,,,,,,,,,,,,,
080907,001,2022-11-20_20h50.49.810,Info_measure_main_exp,2022.2.2,Win32,60.0276127,,,,,,,,,,,,,,,,,,masks/mask_005.jpg,,,,,,,,,,,,,,,,,,,,,,,,,,,,,,,,,,,,,,,,,,,0,4,4,4,1,,,,,,,,,,,,,,,,,,,,,,,,,,,,,,,,,,,,,,,,,,,,,,
080907,001,2022-11-20_20h50.49.810,Info_measure_main_exp,2022.2.2,Win32,60.0276127,,,,,,,,,,,,,,,,,,masks/mask_003.jpg,,,,,,,,,,,,,,,,,,,,,,,,,,,,,,,,,,,,,,,,,,,,,,,,0,0,0,2,1,,,,,,,,,,,,,,,,,,,,,,,,,,,,,,,,,,,,,,,,,
080907,001,2022-11-20_20h50.49.810,Info_measure_main_exp,2022.2.2,Win32,60.0276127,,,,,,,,,,,,,,,,,,masks/mask_004.jpg,,,,,,,,,,,,,,,,,,,,,,,,,,,,,,,,,,,,,,,,,,,,,,,,0,1,1,3,1,,,,,,,,,,,,,,,,,,,,,,,,,,,,,,,,,,,,,,,,,
080907,001,2022-11-20_20h50.49.810,Info_measure_main_exp,2022.2.2,Win32,60.0276127,,,,,,,,,,,,,,,,,,masks/mask_005.jpg,,,,,,,,,,,,,,,,,,,,,,,,,,,,,,,,,,,,,,,,,,,,,,,,0,2,2,4,1,,,,,,,,,,,,,,,,,,,,,,,,,,,,,,,,,,,,,,,,,
080907,001,2022-11-20_20h50.49.810,Info_measure_main_exp,2022.2.2,Win32,60.0276127,,,,,,,,,,,,,,,,,,masks/mask_002.jpg,,,,,,,,,,,,,,,,,,,,,,,,,,,,,,,,,,,,,,,,,,,,,,,,0,3,3,1,1,,,,,,,,,,,,,,,,,,,,,,,,,,,,,,,,,,,,,,,,,
080907,001,2022-11-20_20h50.49.810,Info_measure_main_exp,2022.2.2,Win32,60.0276127,,,,,,,,,,,,,,,,,,masks/mask_001.jpg,,,,,,,,,,,,,,,,,,,,,,,,,,,,,,,,,,,,,,,,,,,,,,,,0,4,4,0,1,,,,,,,,,,,,,,,,,,,,,,,,,,,,,,,,,,,,,,,,,
080907,001,2022-11-20_20h50.49.810,Info_measure_main_exp,2022.2.2,Win32,60.0276127,,,,,,,,,,,,,,,,,,,,,,,,,,,,,,7,1.6202,1,,,,,,,,,,,,1,131,5,5,2298,1,absent_patch/patch0002298.jpg,present_patch/cong_131_5_a.jpg,,,,,,,,,,,,,,,,,,,,0.038888931,0.106481481,1,0,0,response1disk,3,0.000925912,-0.001851859,1,0,0,center_square,0,2,2,45,1,,,,,,,,,,,,,,,,,,,,,,,
080907,001,2022-11-20_20h50.49.810,Info_measure_main_exp,2022.2.2,Win32,60.0276127,,,,,,,,,,,,,,,,,,masks/mask_004.jpg,,,,,,,,,,,,,,,,,,,,,,,,,,,,,,,,,,,,,,,,,,,0,0,0,3,1,,,,,,,,,,,,,,,,,,,,,,,,,,,,,,,,,,,,,,,,,,,,,,
080907,001,2022-11-20_20h50.49.810,Info_measure_main_exp,2022.2.2,Win32,60.0276127,,,,,,,,,,,,,,,,,,masks/mask_003.jpg,,,,,,,,,,,,,,,,,,,,,,,,,,,,,,,,,,,,,,,,,,,0,1,1,2,1,,,,,,,,,,,,,,,,,,,,,,,,,,,,,,,,,,,,,,,,,,,,,,
080907,001,2022-11-20_20h50.49.810,Info_measure_main_exp,2022.2.2,Win32,60.0276127,,,,,,,,,,,,,,,,,,masks/mask_005.jpg,,,,,,,,,,,,,,,,,,,,,,,,,,,,,,,,,,,,,,,,,,,0,2,2,4,1,,,,,,,,,,,,,,,,,,,,,,,,,,,,,,,,,,,,,,,,,,,,,,
080907,001,2022-11-20_20h50.49.810,Info_measure_main_exp,2022.2.2,Win32,60.0276127,,,,,,,,,,,,,,,,,,masks/mask_002.jpg,,,,,,,,,,,,,,,,,,,,,,,,,,,,,,,,,,,,,,,,,,,0,3,3,1,1,,,,,,,,,,,,,,,,,,,,,,,,,,,,,,,,,,,,,,,,,,,,,,
080907,001,2022-11-20_20h50.49.810,Info_measure_main_exp,2022.2.2,Win32,60.0276127,,,,,,,,,,,,,,,,,,masks/mask_001.jpg,,,,,,,,,,,,,,,,,,,,,,,,,,,,,,,,,,,,,,,,,,,0,4,4,0,1,,,,,,,,,,,,,,,,,,,,,,,,,,,,,,,,,,,,,,,,,,,,,,
080907,001,2022-11-20_20h50.49.810,Info_measure_main_exp,2022.2.2,Win32,60.0276127,,,,,,,,,,,,,,,,,,masks/mask_001.jpg,,,,,,,,,,,,,,,,,,,,,,,,,,,,,,,,,,,,,,,,,,,,,,,,0,0,0,0,1,,,,,,,,,,,,,,,,,,,,,,,,,,,,,,,,,,,,,,,,,
080907,001,2022-11-20_20h50.49.810,Info_measure_main_exp,2022.2.2,Win32,60.0276127,,,,,,,,,,,,,,,,,,masks/mask_002.jpg,,,,,,,,,,,,,,,,,,,,,,,,,,,,,,,,,,,,,,,,,,,,,,,,0,1,1,1,1,,,,,,,,,,,,,,,,,,,,,,,,,,,,,,,,,,,,,,,,,
080907,001,2022-11-20_20h50.49.810,Info_measure_main_exp,2022.2.2,Win32,60.0276127,,,,,,,,,,,,,,,,,,masks/mask_004.jpg,,,,,,,,,,,,,,,,,,,,,,,,,,,,,,,,,,,,,,,,,,,,,,,,0,2,2,3,1,,,,,,,,,,,,,,,,,,,,,,,,,,,,,,,,,,,,,,,,,
080907,001,2022-11-20_20h50.49.810,Info_measure_main_exp,2022.2.2,Win32,60.0276127,,,,,,,,,,,,,,,,,,masks/mask_003.jpg,,,,,,,,,,,,,,,,,,,,,,,,,,,,,,,,,,,,,,,,,,,,,,,,0,3,3,2,1,,,,,,,,,,,,,,,,,,,,,,,,,,,,,,,,,,,,,,,,,
080907,001,2022-11-20_20h50.49.810,Info_measure_main_exp,2022.2.2,Win32,60.0276127,,,,,,,,,,,,,,,,,,masks/mask_005.jpg,,,,,,,,,,,,,,,,,,,,,,,,,,,,,,,,,,,,,,,,,,,,,,,,0,4,4,4,1,,,,,,,,,,,,,,,,,,,,,,,,,,,,,,,,,,,,,,,,,
080907,001,2022-11-20_20h50.49.810,Info_measure_main_exp,2022.2.2,Win32,60.0276127,,,,,,,,,,,,,,,,,,,,,,,,,,,,,,7,1.9691,1,,,,,,,,,,,,0,131,5,5,2298,2142,absent_patch/patch0002298.jpg,absent_patch/patch0002142.jpg,,,,,,,,,,,,,,,,,,,,0.036111125,0.113888882,1,0,0,response1disk,4,0.011111153,0.006481489,1,0,0,center_square,0,3,3,49,1,,,,,,,,,,,,,,,,,,,,,,,
080907,001,2022-11-20_20h50.49.810,Info_measure_main_exp,2022.2.2,Win32,60.0276127,,,,,,,,,,,,,,,,,,masks/mask_005.jpg,,,,,,,,,,,,,,,,,,,,,,,,,,,,,,,,,,,,,,,,,,,0,0,0,4,1,,,,,,,,,,,,,,,,,,,,,,,,,,,,,,,,,,,,,,,,,,,,,,
080907,001,2022-11-20_20h50.49.810,Info_measure_main_exp,2022.2.2,Win32,60.0276127,,,,,,,,,,,,,,,,,,masks/mask_001.jpg,,,,,,,,,,,,,,,,,,,,,,,,,,,,,,,,,,,,,,,,,,,0,1,1,0,1,,,,,,,,,,,,,,,,,,,,,,,,,,,,,,,,,,,,,,,,,,,,,,
080907,001,2022-11-20_20h50.49.810,Info_measure_main_exp,2022.2.2,Win32,60.0276127,,,,,,,,,,,,,,,,,,masks/mask_004.jpg,,,,,,,,,,,,,,,,,,,,,,,,,,,,,,,,,,,,,,,,,,,0,2,2,3,1,,,,,,,,,,,,,,,,,,,,,,,,,,,,,,,,,,,,,,,,,,,,,,
080907,001,2022-11-20_20h50.49.810,Info_measure_main_exp,2022.2.2,Win32,60.0276127,,,,,,,,,,,,,,,,,,masks/mask_003.jpg,,,,,,,,,,,,,,,,,,,,,,,,,,,,,,,,,,,,,,,,,,,0,3,3,2,1,,,,,,,,,,,,,,,,,,,,,,,,,,,,,,,,,,,,,,,,,,,,,,
080907,001,2022-11-20_20h50.49.810,Info_measure_main_exp,2022.2.2,Win32,60.0276127,,,,,,,,,,,,,,,,,,masks/mask_002.jpg,,,,,,,,,,,,,,,,,,,,,,,,,,,,,,,,,,,,,,,,,,,0,4,4,1,1,,,,,,,,,,,,,,,,,,,,,,,,,,,,,,,,,,,,,,,,,,,,,,
080907,001,2022-11-20_20h50.49.810,Info_measure_main_exp,2022.2.2,Win32,60.0276127,,,,,,,,,,,,,,,,,,masks/mask_005.jpg,,,,,,,,,,,,,,,,,,,,,,,,,,,,,,,,,,,,,,,,,,,,,,,,0,0,0,4,1,,,,,,,,,,,,,,,,,,,,,,,,,,,,,,,,,,,,,,,,,
080907,001,2022-11-20_20h50.49.810,Info_measure_main_exp,2022.2.2,Win32,60.0276127,,,,,,,,,,,,,,,,,,masks/mask_004.jpg,,,,,,,,,,,,,,,,,,,,,,,,,,,,,,,,,,,,,,,,,,,,,,,,0,1,1,3,1,,,,,,,,,,,,,,,,,,,,,,,,,,,,,,,,,,,,,,,,,
080907,001,2022-11-20_20h50.49.810,Info_measure_main_exp,2022.2.2,Win32,60.0276127,,,,,,,,,,,,,,,,,,masks/mask_002.jpg,,,,,,,,,,,,,,,,,,,,,,,,,,,,,,,,,,,,,,,,,,,,,,,,0,2,2,1,1,,,,,,,,,,,,,,,,,,,,,,,,,,,,,,,,,,,,,,,,,
080907,001,2022-11-20_20h50.49.810,Info_measure_main_exp,2022.2.2,Win32,60.0276127,,,,,,,,,,,,,,,,,,masks/mask_003.jpg,,,,,,,,,,,,,,,,,,,,,,,,,,,,,,,,,,,,,,,,,,,,,,,,0,3,3,2,1,,,,,,,,,,,,,,,,,,,,,,,,,,,,,,,,,,,,,,,,,
080907,001,2022-11-20_20h50.49.810,Info_measure_main_exp,2022.2.2,Win32,60.0276127,,,,,,,,,,,,,,,,,,masks/mask_001.jpg,,,,,,,,,,,,,,,,,,,,,,,,,,,,,,,,,,,,,,,,,,,,,,,,0,4,4,0,1,,,,,,,,,,,,,,,,,,,,,,,,,,,,,,,,,,,,,,,,,
080907,001,2022-11-20_20h50.49.810,Info_measure_main_exp,2022.2.2,Win32,60.0276127,,,,,,,,,,,,,,,,,,,,,,,,,,,,,,7,0.949,1,,,,,,,,,,,,0,131,5,5,2274,2190,absent_patch/patch0002274.jpg,absent_patch/patch0002190.jpg,,,,,,,,,,,,,,,,,,,,0.047222208,0.103703711,1,0,0,response1disk,5,0,0.008333312,1,0,0,center_square,0,4,4,116,1,,,,,,,,,,,,,,,,,,,,,,,
080907,001,2022-11-20_20h50.49.810,Info_measure_main_exp,2022.2.2,Win32,60.0276127,,,,,,,,,,,,,,,,,,masks/mask_003.jpg,,,,,,,,,,,,,,,,,,,,,,,,,,,,,,,,,,,,,,,,,,,0,0,0,2,1,,,,,,,,,,,,,,,,,,,,,,,,,,,,,,,,,,,,,,,,,,,,,,
080907,001,2022-11-20_20h50.49.810,Info_measure_main_exp,2022.2.2,Win32,60.0276127,,,,,,,,,,,,,,,,,,masks/mask_004.jpg,,,,,,,,,,,,,,,,,,,,,,,,,,,,,,,,,,,,,,,,,,,0,1,1,3,1,,,,,,,,,,,,,,,,,,,,,,,,,,,,,,,,,,,,,,,,,,,,,,
080907,001,2022-11-20_20h50.49.810,Info_measure_main_exp,2022.2.2,Win32,60.0276127,,,,,,,,,,,,,,,,,,masks/mask_001.jpg,,,,,,,,,,,,,,,,,,,,,,,,,,,,,,,,,,,,,,,,,,,0,2,2,0,1,,,,,,,,,,,,,,,,,,,,,,,,,,,,,,,,,,,,,,,,,,,,,,
080907,001,2022-11-20_20h50.49.810,Info_measure_main_exp,2022.2.2,Win32,60.0276127,,,,,,,,,,,,,,,,,,masks/mask_005.jpg,,,,,,,,,,,,,,,,,,,,,,,,,,,,,,,,,,,,,,,,,,,0,3,3,4,1,,,,,,,,,,,,,,,,,,,,,,,,,,,,,,,,,,,,,,,,,,,,,,
080907,001,2022-11-20_20h50.49.810,Info_measure_main_exp,2022.2.2,Win32,60.0276127,,,,,,,,,,,,,,,,,,masks/mask_002.jpg,,,,,,,,,,,,,,,,,,,,,,,,,,,,,,,,,,,,,,,,,,,0,4,4,1,1,,,,,,,,,,,,,,,,,,,,,,,,,,,,,,,,,,,,,,,,,,,,,,
080907,001,2022-11-20_20h50.49.810,Info_measure_main_exp,2022.2.2,Win32,60.0276127,,,,,,,,,,,,,,,,,,masks/mask_004.jpg,,,,,,,,,,,,,,,,,,,,,,,,,,,,,,,,,,,,,,,,,,,,,,,,0,0,0,3,1,,,,,,,,,,,,,,,,,,,,,,,,,,,,,,,,,,,,,,,,,
080907,001,2022-11-20_20h50.49.810,Info_measure_main_exp,2022.2.2,Win32,60.0276127,,,,,,,,,,,,,,,,,,masks/mask_005.jpg,,,,,,,,,,,,,,,,,,,,,,,,,,,,,,,,,,,,,,,,,,,,,,,,0,1,1,4,1,,,,,,,,,,,,,,,,,,,,,,,,,,,,,,,,,,,,,,,,,
080907,001,2022-11-20_20h50.49.810,Info_measure_main_exp,2022.2.2,Win32,60.0276127,,,,,,,,,,,,,,,,,,masks/mask_003.jpg,,,,,,,,,,,,,,,,,,,,,,,,,,,,,,,,,,,,,,,,,,,,,,,,0,2,2,2,1,,,,,,,,,,,,,,,,,,,,,,,,,,,,,,,,,,,,,,,,,
080907,001,2022-11-20_20h50.49.810,Info_measure_main_exp,2022.2.2,Win32,60.0276127,,,,,,,,,,,,,,,,,,masks/mask_002.jpg,,,,,,,,,,,,,,,,,,,,,,,,,,,,,,,,,,,,,,,,,,,,,,,,0,3,3,1,1,,,,,,,,,,,,,,,,,,,,,,,,,,,,,,,,,,,,,,,,,
080907,001,2022-11-20_20h50.49.810,Info_measure_main_exp,2022.2.2,Win32,60.0276127,,,,,,,,,,,,,,,,,,masks/mask_001.jpg,,,,,,,,,,,,,,,,,,,,,,,,,,,,,,,,,,,,,,,,,,,,,,,,0,4,4,0,1,,,,,,,,,,,,,,,,,,,,,,,,,,,,,,,,,,,,,,,,,
080907,001,2022-11-20_20h50.49.810,Info_measure_main_exp,2022.2.2,Win32,60.0276127,,,,,,,,,,,,,,,,,,,,,,,,,,,,,,6,1.0158,1,,,,,,,,,,,,0,131,5,5,2238,2298,absent_patch/patch0002238.jpg,absent_patch/patch0002298.jpg,,,,,,,,,,,,,,,,,,,,0.08148151,0.011111118,1,0,0,response1disk,6,-0.001851824,-0.000925947,1,0,0,center_square,0,5,5,51,1,,,,,,,,,,,,,,,,,,,,,,,
080907,001,2022-11-20_20h50.49.810,Info_measure_main_exp,2022.2.2,Win32,60.0276127,,,,,,,,,,,,,,,,,,masks/mask_005.jpg,,,,,,,,,,,,,,,,,,,,,,,,,,,,,,,,,,,,,,,,,,,0,0,0,4,1,,,,,,,,,,,,,,,,,,,,,,,,,,,,,,,,,,,,,,,,,,,,,,
080907,001,2022-11-20_20h50.49.810,Info_measure_main_exp,2022.2.2,Win32,60.0276127,,,,,,,,,,,,,,,,,,masks/mask_002.jpg,,,,,,,,,,,,,,,,,,,,,,,,,,,,,,,,,,,,,,,,,,,0,1,1,1,1,,,,,,,,,,,,,,,,,,,,,,,,,,,,,,,,,,,,,,,,,,,,,,
080907,001,2022-11-20_20h50.49.810,Info_measure_main_exp,2022.2.2,Win32,60.0276127,,,,,,,,,,,,,,,,,,masks/mask_003.jpg,,,,,,,,,,,,,,,,,,,,,,,,,,,,,,,,,,,,,,,,,,,0,2,2,2,1,,,,,,,,,,,,,,,,,,,,,,,,,,,,,,,,,,,,,,,,,,,,,,
080907,001,2022-11-20_20h50.49.810,Info_measure_main_exp,2022.2.2,Win32,60.0276127,,,,,,,,,,,,,,,,,,masks/mask_004.jpg,,,,,,,,,,,,,,,,,,,,,,,,,,,,,,,,,,,,,,,,,,,0,3,3,3,1,,,,,,,,,,,,,,,,,,,,,,,,,,,,,,,,,,,,,,,,,,,,,,
080907,001,2022-11-20_20h50.49.810,Info_measure_main_exp,2022.2.2,Win32,60.0276127,,,,,,,,,,,,,,,,,,masks/mask_001.jpg,,,,,,,,,,,,,,,,,,,,,,,,,,,,,,,,,,,,,,,,,,,0,4,4,0,1,,,,,,,,,,,,,,,,,,,,,,,,,,,,,,,,,,,,,,,,,,,,,,
080907,001,2022-11-20_20h50.49.810,Info_measure_main_exp,2022.2.2,Win32,60.0276127,,,,,,,,,,,,,,,,,,masks/mask_003.jpg,,,,,,,,,,,,,,,,,,,,,,,,,,,,,,,,,,,,,,,,,,,,,,,,0,0,0,2,1,,,,,,,,,,,,,,,,,,,,,,,,,,,,,,,,,,,,,,,,,
080907,001,2022-11-20_20h50.49.810,Info_measure_main_exp,2022.2.2,Win32,60.0276127,,,,,,,,,,,,,,,,,,masks/mask_005.jpg,,,,,,,,,,,,,,,,,,,,,,,,,,,,,,,,,,,,,,,,,,,,,,,,0,1,1,4,1,,,,,,,,,,,,,,,,,,,,,,,,,,,,,,,,,,,,,,,,,
080907,001,2022-11-20_20h50.49.810,Info_measure_main_exp,2022.2.2,Win32,60.0276127,,,,,,,,,,,,,,,,,,masks/mask_001.jpg,,,,,,,,,,,,,,,,,,,,,,,,,,,,,,,,,,,,,,,,,,,,,,,,0,2,2,0,1,,,,,,,,,,,,,,,,,,,,,,,,,,,,,,,,,,,,,,,,,
080907,001,2022-11-20_20h50.49.810,Info_measure_main_exp,2022.2.2,Win32,60.0276127,,,,,,,,,,,,,,,,,,masks/mask_004.jpg,,,,,,,,,,,,,,,,,,,,,,,,,,,,,,,,,,,,,,,,,,,,,,,,0,3,3,3,1,,,,,,,,,,,,,,,,,,,,,,,,,,,,,,,,,,,,,,,,,
080907,001,2022-11-20_20h50.49.810,Info_measure_main_exp,2022.2.2,Win32,60.0276127,,,,,,,,,,,,,,,,,,masks/mask_002.jpg,,,,,,,,,,,,,,,,,,,,,,,,,,,,,,,,,,,,,,,,,,,,,,,,0,4,4,1,1,,,,,,,,,,,,,,,,,,,,,,,,,,,,,,,,,,,,,,,,,
080907,001,2022-11-20_20h50.49.810,Info_measure_main_exp,2022.2.2,Win32,60.0276127,,,,,,,,,,,,,,,,,,,,,,,,,,,,,,7,0.7832,1,,,,,,,,,,,,0,131,5,5,2274,2082,absent_patch/patch0002274.jpg,absent_patch/patch0002082.jpg,,,,,,,,,,,,,,,,,,,,0.023148148,0.090740734,1,0,0,response1disk,7,-0.000925912,-0.005555577,1,0,0,center_square,0,6,6,100,1,,,,,,,,,,,,,,,,,,,,,,,
080907,001,2022-11-20_20h50.49.810,Info_measure_main_exp,2022.2.2,Win32,60.0276127,,,,,,,,,,,,,,,,,,masks/mask_005.jpg,,,,,,,,,,,,,,,,,,,,,,,,,,,,,,,,,,,,,,,,,,,0,0,0,4,1,,,,,,,,,,,,,,,,,,,,,,,,,,,,,,,,,,,,,,,,,,,,,,
080907,001,2022-11-20_20h50.49.810,Info_measure_main_exp,2022.2.2,Win32,60.0276127,,,,,,,,,,,,,,,,,,masks/mask_003.jpg,,,,,,,,,,,,,,,,,,,,,,,,,,,,,,,,,,,,,,,,,,,0,1,1,2,1,,,,,,,,,,,,,,,,,,,,,,,,,,,,,,,,,,,,,,,,,,,,,,
080907,001,2022-11-20_20h50.49.810,Info_measure_main_exp,2022.2.2,Win32,60.0276127,,,,,,,,,,,,,,,,,,masks/mask_002.jpg,,,,,,,,,,,,,,,,,,,,,,,,,,,,,,,,,,,,,,,,,,,0,2,2,1,1,,,,,,,,,,,,,,,,,,,,,,,,,,,,,,,,,,,,,,,,,,,,,,
080907,001,2022-11-20_20h50.49.810,Info_measure_main_exp,2022.2.2,Win32,60.0276127,,,,,,,,,,,,,,,,,,masks/mask_004.jpg,,,,,,,,,,,,,,,,,,,,,,,,,,,,,,,,,,,,,,,,,,,0,3,3,3,1,,,,,,,,,,,,,,,,,,,,,,,,,,,,,,,,,,,,,,,,,,,,,,
080907,001,2022-11-20_20h50.49.810,Info_measure_main_exp,2022.2.2,Win32,60.0276127,,,,,,,,,,,,,,,,,,masks/mask_001.jpg,,,,,,,,,,,,,,,,,,,,,,,,,,,,,,,,,,,,,,,,,,,0,4,4,0,1,,,,,,,,,,,,,,,,,,,,,,,,,,,,,,,,,,,,,,,,,,,,,,
080907,001,2022-11-20_20h50.49.810,Info_measure_main_exp,2022.2.2,Win32,60.0276127,,,,,,,,,,,,,,,,,,masks/mask_003.jpg,,,,,,,,,,,,,,,,,,,,,,,,,,,,,,,,,,,,,,,,,,,,,,,,0,0,0,2,1,,,,,,,,,,,,,,,,,,,,,,,,,,,,,,,,,,,,,,,,,
080907,001,2022-11-20_20h50.49.810,Info_measure_main_exp,2022.2.2,Win32,60.0276127,,,,,,,,,,,,,,,,,,masks/mask_005.jpg,,,,,,,,,,,,,,,,,,,,,,,,,,,,,,,,,,,,,,,,,,,,,,,,0,1,1,4,1,,,,,,,,,,,,,,,,,,,,,,,,,,,,,,,,,,,,,,,,,
080907,001,2022-11-20_20h50.49.810,Info_measure_main_exp,2022.2.2,Win32,60.0276127,,,,,,,,,,,,,,,,,,masks/mask_002.jpg,,,,,,,,,,,,,,,,,,,,,,,,,,,,,,,,,,,,,,,,,,,,,,,,0,2,2,1,1,,,,,,,,,,,,,,,,,,,,,,,,,,,,,,,,,,,,,,,,,
080907,001,2022-11-20_20h50.49.810,Info_measure_main_exp,2022.2.2,Win32,60.0276127,,,,,,,,,,,,,,,,,,masks/mask_004.jpg,,,,,,,,,,,,,,,,,,,,,,,,,,,,,,,,,,,,,,,,,,,,,,,,0,3,3,3,1,,,,,,,,,,,,,,,,,,,,,,,,,,,,,,,,,,,,,,,,,
080907,001,2022-11-20_20h50.49.810,Info_measure_main_exp,2022.2.2,Win32,60.0276127,,,,,,,,,,,,,,,,,,masks/mask_001.jpg,,,,,,,,,,,,,,,,,,,,,,,,,,,,,,,,,,,,,,,,,,,,,,,,0,4,4,0,1,,,,,,,,,,,,,,,,,,,,,,,,,,,,,,,,,,,,,,,,,
080907,001,2022-11-20_20h50.49.810,Info_measure_main_exp,2022.2.2,Win32,60.0276127,,,,,,,,,,,,,,,,,,,,,,,,,,,,,,7,0.6657,1,,,,,,,,,,,,0,131,5,5,2082,2238,absent_patch/patch0002082.jpg,absent_patch/patch0002238.jpg,,,,,,,,,,,,,,,,,,,,0.048148191,0.100925905,1,0,0,response1disk,8,0.002777806,-0.003703718,1,0,0,center_square,0,7,7,22,1,,,,,,,,,,,,,,,,,,,,,,,
080907,001,2022-11-20_20h50.49.810,Info_measure_main_exp,2022.2.2,Win32,60.0276127,,,,,,,,,,,,,,,,,,masks/mask_003.jpg,,,,,,,,,,,,,,,,,,,,,,,,,,,,,,,,,,,,,,,,,,,0,0,0,2,1,,,,,,,,,,,,,,,,,,,,,,,,,,,,,,,,,,,,,,,,,,,,,,
080907,001,2022-11-20_20h50.49.810,Info_measure_main_exp,2022.2.2,Win32,60.0276127,,,,,,,,,,,,,,,,,,masks/mask_002.jpg,,,,,,,,,,,,,,,,,,,,,,,,,,,,,,,,,,,,,,,,,,,0,1,1,1,1,,,,,,,,,,,,,,,,,,,,,,,,,,,,,,,,,,,,,,,,,,,,,,
080907,001,2022-11-20_20h50.49.810,Info_measure_main_exp,2022.2.2,Win32,60.0276127,,,,,,,,,,,,,,,,,,masks/mask_004.jpg,,,,,,,,,,,,,,,,,,,,,,,,,,,,,,,,,,,,,,,,,,,0,2,2,3,1,,,,,,,,,,,,,,,,,,,,,,,,,,,,,,,,,,,,,,,,,,,,,,
080907,001,2022-11-20_20h50.49.810,Info_measure_main_exp,2022.2.2,Win32,60.0276127,,,,,,,,,,,,,,,,,,masks/mask_001.jpg,,,,,,,,,,,,,,,,,,,,,,,,,,,,,,,,,,,,,,,,,,,0,3,3,0,1,,,,,,,,,,,,,,,,,,,,,,,,,,,,,,,,,,,,,,,,,,,,,,
080907,001,2022-11-20_20h50.49.810,Info_measure_main_exp,2022.2.2,Win32,60.0276127,,,,,,,,,,,,,,,,,,masks/mask_005.jpg,,,,,,,,,,,,,,,,,,,,,,,,,,,,,,,,,,,,,,,,,,,0,4,4,4,1,,,,,,,,,,,,,,,,,,,,,,,,,,,,,,,,,,,,,,,,,,,,,,
080907,001,2022-11-20_20h50.49.810,Info_measure_main_exp,2022.2.2,Win32,60.0276127,,,,,,,,,,,,,,,,,,masks/mask_004.jpg,,,,,,,,,,,,,,,,,,,,,,,,,,,,,,,,,,,,,,,,,,,,,,,,0,0,0,3,1,,,,,,,,,,,,,,,,,,,,,,,,,,,,,,,,,,,,,,,,,
080907,001,2022-11-20_20h50.49.810,Info_measure_main_exp,2022.2.2,Win32,60.0276127,,,,,,,,,,,,,,,,,,masks/mask_002.jpg,,,,,,,,,,,,,,,,,,,,,,,,,,,,,,,,,,,,,,,,,,,,,,,,0,1,1,1,1,,,,,,,,,,,,,,,,,,,,,,,,,,,,,,,,,,,,,,,,,
080907,001,2022-11-20_20h50.49.810,Info_measure_main_exp,2022.2.2,Win32,60.0276127,,,,,,,,,,,,,,,,,,masks/mask_001.jpg,,,,,,,,,,,,,,,,,,,,,,,,,,,,,,,,,,,,,,,,,,,,,,,,0,2,2,0,1,,,,,,,,,,,,,,,,,,,,,,,,,,,,,,,,,,,,,,,,,
080907,001,2022-11-20_20h50.49.810,Info_measure_main_exp,2022.2.2,Win32,60.0276127,,,,,,,,,,,,,,,,,,masks/mask_003.jpg,,,,,,,,,,,,,,,,,,,,,,,,,,,,,,,,,,,,,,,,,,,,,,,,0,3,3,2,1,,,,,,,,,,,,,,,,,,,,,,,,,,,,,,,,,,,,,,,,,
080907,001,2022-11-20_20h50.49.810,Info_measure_main_exp,2022.2.2,Win32,60.0276127,,,,,,,,,,,,,,,,,,masks/mask_005.jpg,,,,,,,,,,,,,,,,,,,,,,,,,,,,,,,,,,,,,,,,,,,,,,,,0,4,4,4,1,,,,,,,,,,,,,,,,,,,,,,,,,,,,,,,,,,,,,,,,,
080907,001,2022-11-20_20h50.49.810,Info_measure_main_exp,2022.2.2,Win32,60.0276127,,,,,,,,,,,,,,,,,,,,,,,,,,,,,,7,0.7035,1,,,,,,,,,,,,0,131,5,5,1986,1974,absent_patch/patch0001986.jpg,absent_patch/patch0001974.jpg,,,,,,,,,,,,,,,,,,,,0.012037065,0.071296303,1,0,0,response1disk,9,0.00462963,0.001851859,1,0,0,center_square,0,8,8,25,1,,,,,,,,,,,,,,,,,,,,,,,
080907,001,2022-11-20_20h50.49.810,Info_measure_main_exp,2022.2.2,Win32,60.0276127,,,,,,,,,,,,,,,,,,masks/mask_003.jpg,,,,,,,,,,,,,,,,,,,,,,,,,,,,,,,,,,,,,,,,,,,0,0,0,2,1,,,,,,,,,,,,,,,,,,,,,,,,,,,,,,,,,,,,,,,,,,,,,,
080907,001,2022-11-20_20h50.49.810,Info_measure_main_exp,2022.2.2,Win32,60.0276127,,,,,,,,,,,,,,,,,,masks/mask_004.jpg,,,,,,,,,,,,,,,,,,,,,,,,,,,,,,,,,,,,,,,,,,,0,1,1,3,1,,,,,,,,,,,,,,,,,,,,,,,,,,,,,,,,,,,,,,,,,,,,,,
080907,001,2022-11-20_20h50.49.810,Info_measure_main_exp,2022.2.2,Win32,60.0276127,,,,,,,,,,,,,,,,,,masks/mask_005.jpg,,,,,,,,,,,,,,,,,,,,,,,,,,,,,,,,,,,,,,,,,,,0,2,2,4,1,,,,,,,,,,,,,,,,,,,,,,,,,,,,,,,,,,,,,,,,,,,,,,
080907,001,2022-11-20_20h50.49.810,Info_measure_main_exp,2022.2.2,Win32,60.0276127,,,,,,,,,,,,,,,,,,masks/mask_002.jpg,,,,,,,,,,,,,,,,,,,,,,,,,,,,,,,,,,,,,,,,,,,0,3,3,1,1,,,,,,,,,,,,,,,,,,,,,,,,,,,,,,,,,,,,,,,,,,,,,,
080907,001,2022-11-20_20h50.49.810,Info_measure_main_exp,2022.2.2,Win32,60.0276127,,,,,,,,,,,,,,,,,,masks/mask_001.jpg,,,,,,,,,,,,,,,,,,,,,,,,,,,,,,,,,,,,,,,,,,,0,4,4,0,1,,,,,,,,,,,,,,,,,,,,,,,,,,,,,,,,,,,,,,,,,,,,,,
080907,001,2022-11-20_20h50.49.810,Info_measure_main_exp,2022.2.2,Win32,60.0276127,,,,,,,,,,,,,,,,,,masks/mask_001.jpg,,,,,,,,,,,,,,,,,,,,,,,,,,,,,,,,,,,,,,,,,,,,,,,,0,0,0,0,1,,,,,,,,,,,,,,,,,,,,,,,,,,,,,,,,,,,,,,,,,
080907,001,2022-11-20_20h50.49.810,Info_measure_main_exp,2022.2.2,Win32,60.0276127,,,,,,,,,,,,,,,,,,masks/mask_004.jpg,,,,,,,,,,,,,,,,,,,,,,,,,,,,,,,,,,,,,,,,,,,,,,,,0,1,1,3,1,,,,,,,,,,,,,,,,,,,,,,,,,,,,,,,,,,,,,,,,,
080907,001,2022-11-20_20h50.49.810,Info_measure_main_exp,2022.2.2,Win32,60.0276127,,,,,,,,,,,,,,,,,,masks/mask_005.jpg,,,,,,,,,,,,,,,,,,,,,,,,,,,,,,,,,,,,,,,,,,,,,,,,0,2,2,4,1,,,,,,,,,,,,,,,,,,,,,,,,,,,,,,,,,,,,,,,,,
080907,001,2022-11-20_20h50.49.810,Info_measure_main_exp,2022.2.2,Win32,60.0276127,,,,,,,,,,,,,,,,,,masks/mask_002.jpg,,,,,,,,,,,,,,,,,,,,,,,,,,,,,,,,,,,,,,,,,,,,,,,,0,3,3,1,1,,,,,,,,,,,,,,,,,,,,,,,,,,,,,,,,,,,,,,,,,
080907,001,2022-11-20_20h50.49.810,Info_measure_main_exp,2022.2.2,Win32,60.0276127,,,,,,,,,,,,,,,,,,masks/mask_003.jpg,,,,,,,,,,,,,,,,,,,,,,,,,,,,,,,,,,,,,,,,,,,,,,,,0,4,4,2,1,,,,,,,,,,,,,,,,,,,,,,,,,,,,,,,,,,,,,,,,,
080907,001,2022-11-20_20h50.49.810,Info_measure_main_exp,2022.2.2,Win32,60.0276127,,,,,,,,,,,,,,,,,,,,,,,,,,,,,,6,1.083,1,,,,,,,,,,,,0,131,5,5,2166,2298,absent_patch/patch0002166.jpg,absent_patch/patch0002298.jpg,,,,,,,,,,,,,,,,,,,,0.098148134,0.034259266,1,0,0,response1disk,10,0.002777806,0.000925912,1,0,0,center_square,0,9,9,52,1,,,,,,,,,,,,,,,,,,,,,,,
080907,001,2022-11-20_20h50.49.810,Info_measure_main_exp,2022.2.2,Win32,60.0276127,,,,,,,,,,,,,,,,,,masks/mask_003.jpg,,,,,,,,,,,,,,,,,,,,,,,,,,,,,,,,,,,,,,,,,,,0,0,0,2,1,,,,,,,,,,,,,,,,,,,,,,,,,,,,,,,,,,,,,,,,,,,,,,
080907,001,2022-11-20_20h50.49.810,Info_measure_main_exp,2022.2.2,Win32,60.0276127,,,,,,,,,,,,,,,,,,masks/mask_005.jpg,,,,,,,,,,,,,,,,,,,,,,,,,,,,,,,,,,,,,,,,,,,0,1,1,4,1,,,,,,,,,,,,,,,,,,,,,,,,,,,,,,,,,,,,,,,,,,,,,,
080907,001,2022-11-20_20h50.49.810,Info_measure_main_exp,2022.2.2,Win32,60.0276127,,,,,,,,,,,,,,,,,,masks/mask_002.jpg,,,,,,,,,,,,,,,,,,,,,,,,,,,,,,,,,,,,,,,,,,,0,2,2,1,1,,,,,,,,,,,,,,,,,,,,,,,,,,,,,,,,,,,,,,,,,,,,,,
080907,001,2022-11-20_20h50.49.810,Info_measure_main_exp,2022.2.2,Win32,60.0276127,,,,,,,,,,,,,,,,,,masks/mask_004.jpg,,,,,,,,,,,,,,,,,,,,,,,,,,,,,,,,,,,,,,,,,,,0,3,3,3,1,,,,,,,,,,,,,,,,,,,,,,,,,,,,,,,,,,,,,,,,,,,,,,
080907,001,2022-11-20_20h50.49.810,Info_measure_main_exp,2022.2.2,Win32,60.0276127,,,,,,,,,,,,,,,,,,masks/mask_001.jpg,,,,,,,,,,,,,,,,,,,,,,,,,,,,,,,,,,,,,,,,,,,0,4,4,0,1,,,,,,,,,,,,,,,,,,,,,,,,,,,,,,,,,,,,,,,,,,,,,,
080907,001,2022-11-20_20h50.49.810,Info_measure_main_exp,2022.2.2,Win32,60.0276127,,,,,,,,,,,,,,,,,,masks/mask_002.jpg,,,,,,,,,,,,,,,,,,,,,,,,,,,,,,,,,,,,,,,,,,,,,,,,0,0,0,1,1,,,,,,,,,,,,,,,,,,,,,,,,,,,,,,,,,,,,,,,,,
080907,001,2022-11-20_20h50.49.810,Info_measure_main_exp,2022.2.2,Win32,60.0276127,,,,,,,,,,,,,,,,,,masks/mask_003.jpg,,,,,,,,,,,,,,,,,,,,,,,,,,,,,,,,,,,,,,,,,,,,,,,,0,1,1,2,1,,,,,,,,,,,,,,,,,,,,,,,,,,,,,,,,,,,,,,,,,
080907,001,2022-11-20_20h50.49.810,Info_measure_main_exp,2022.2.2,Win32,60.0276127,,,,,,,,,,,,,,,,,,masks/mask_001.jpg,,,,,,,,,,,,,,,,,,,,,,,,,,,,,,,,,,,,,,,,,,,,,,,,0,2,2,0,1,,,,,,,,,,,,,,,,,,,,,,,,,,,,,,,,,,,,,,,,,
080907,001,2022-11-20_20h50.49.810,Info_measure_main_exp,2022.2.2,Win32,60.0276127,,,,,,,,,,,,,,,,,,masks/mask_004.jpg,,,,,,,,,,,,,,,,,,,,,,,,,,,,,,,,,,,,,,,,,,,,,,,,0,3,3,3,1,,,,,,,,,,,,,,,,,,,,,,,,,,,,,,,,,,,,,,,,,
080907,001,2022-11-20_20h50.49.810,Info_measure_main_exp,2022.2.2,Win32,60.0276127,,,,,,,,,,,,,,,,,,masks/mask_005.jpg,,,,,,,,,,,,,,,,,,,,,,,,,,,,,,,,,,,,,,,,,,,,,,,,0,4,4,4,1,,,,,,,,,,,,,,,,,,,,,,,,,,,,,,,,,,,,,,,,,
080907,001,2022-11-20_20h50.49.810,Info_measure_main_exp,2022.2.2,Win32,60.0276127,,,,,,,,,,,,,,,,,,,,,,,,,,,,,,7,0.7658,1,,,,,,,,,,,,0,131,5,5,2142,2154,absent_patch/patch0002142.jpg,absent_patch/patch0002154.jpg,,,,,,,,,,,,,,,,,,,,0.031481496,0.104629623,1,0,0,response1disk,11,0.003703718,0,1,0,0,center_square,0,10,10,9,1,,,,,,,,,,,,,,,,,,,,,,,
080907,001,2022-11-20_20h50.49.810,Info_measure_main_exp,2022.2.2,Win32,60.0276127,,,,,,,,,,,,,,,,,,masks/mask_003.jpg,,,,,,,,,,,,,,,,,,,,,,,,,,,,,,,,,,,,,,,,,,,0,0,0,2,1,,,,,,,,,,,,,,,,,,,,,,,,,,,,,,,,,,,,,,,,,,,,,,
080907,001,2022-11-20_20h50.49.810,Info_measure_main_exp,2022.2.2,Win32,60.0276127,,,,,,,,,,,,,,,,,,masks/mask_004.jpg,,,,,,,,,,,,,,,,,,,,,,,,,,,,,,,,,,,,,,,,,,,0,1,1,3,1,,,,,,,,,,,,,,,,,,,,,,,,,,,,,,,,,,,,,,,,,,,,,,
080907,001,2022-11-20_20h50.49.810,Info_measure_main_exp,2022.2.2,Win32,60.0276127,,,,,,,,,,,,,,,,,,masks/mask_002.jpg,,,,,,,,,,,,,,,,,,,,,,,,,,,,,,,,,,,,,,,,,,,0,2,2,1,1,,,,,,,,,,,,,,,,,,,,,,,,,,,,,,,,,,,,,,,,,,,,,,
080907,001,2022-11-20_20h50.49.810,Info_measure_main_exp,2022.2.2,Win32,60.0276127,,,,,,,,,,,,,,,,,,masks/mask_005.jpg,,,,,,,,,,,,,,,,,,,,,,,,,,,,,,,,,,,,,,,,,,,0,3,3,4,1,,,,,,,,,,,,,,,,,,,,,,,,,,,,,,,,,,,,,,,,,,,,,,
080907,001,2022-11-20_20h50.49.810,Info_measure_main_exp,2022.2.2,Win32,60.0276127,,,,,,,,,,,,,,,,,,masks/mask_001.jpg,,,,,,,,,,,,,,,,,,,,,,,,,,,,,,,,,,,,,,,,,,,0,4,4,0,1,,,,,,,,,,,,,,,,,,,,,,,,,,,,,,,,,,,,,,,,,,,,,,
080907,001,2022-11-20_20h50.49.810,Info_measure_main_exp,2022.2.2,Win32,60.0276127,,,,,,,,,,,,,,,,,,masks/mask_002.jpg,,,,,,,,,,,,,,,,,,,,,,,,,,,,,,,,,,,,,,,,,,,,,,,,0,0,0,1,1,,,,,,,,,,,,,,,,,,,,,,,,,,,,,,,,,,,,,,,,,
080907,001,2022-11-20_20h50.49.810,Info_measure_main_exp,2022.2.2,Win32,60.0276127,,,,,,,,,,,,,,,,,,masks/mask_001.jpg,,,,,,,,,,,,,,,,,,,,,,,,,,,,,,,,,,,,,,,,,,,,,,,,0,1,1,0,1,,,,,,,,,,,,,,,,,,,,,,,,,,,,,,,,,,,,,,,,,
080907,001,2022-11-20_20h50.49.810,Info_measure_main_exp,2022.2.2,Win32,60.0276127,,,,,,,,,,,,,,,,,,masks/mask_005.jpg,,,,,,,,,,,,,,,,,,,,,,,,,,,,,,,,,,,,,,,,,,,,,,,,0,2,2,4,1,,,,,,,,,,,,,,,,,,,,,,,,,,,,,,,,,,,,,,,,,
080907,001,2022-11-20_20h50.49.810,Info_measure_main_exp,2022.2.2,Win32,60.0276127,,,,,,,,,,,,,,,,,,masks/mask_004.jpg,,,,,,,,,,,,,,,,,,,,,,,,,,,,,,,,,,,,,,,,,,,,,,,,0,3,3,3,1,,,,,,,,,,,,,,,,,,,,,,,,,,,,,,,,,,,,,,,,,
080907,001,2022-11-20_20h50.49.810,Info_measure_main_exp,2022.2.2,Win32,60.0276127,,,,,,,,,,,,,,,,,,masks/mask_003.jpg,,,,,,,,,,,,,,,,,,,,,,,,,,,,,,,,,,,,,,,,,,,,,,,,0,4,4,2,1,,,,,,,,,,,,,,,,,,,,,,,,,,,,,,,,,,,,,,,,,
080907,001,2022-11-20_20h50.49.810,Info_measure_main_exp,2022.2.2,Win32,60.0276127,,,,,,,,,,,,,,,,,,,,,,,,,,,,,,7,0.8664,1,,,,,,,,,,,,0,131,5,5,2154,2250,absent_patch/patch0002154.jpg,absent_patch/patch0002250.jpg,,,,,,,,,,,,,,,,,,,,0.048148191,0.109259252,1,0,0,response1disk,12,0,0.010185171,1,0,0,center_square,0,11,11,108,1,,,,,,,,,,,,,,,,,,,,,,,
080907,001,2022-11-20_20h50.49.810,Info_measure_main_exp,2022.2.2,Win32,60.0276127,,,,,,,,,,,,,,,,,,masks/mask_001.jpg,,,,,,,,,,,,,,,,,,,,,,,,,,,,,,,,,,,,,,,,,,,0,0,0,0,1,,,,,,,,,,,,,,,,,,,,,,,,,,,,,,,,,,,,,,,,,,,,,,
080907,001,2022-11-20_20h50.49.810,Info_measure_main_exp,2022.2.2,Win32,60.0276127,,,,,,,,,,,,,,,,,,masks/mask_003.jpg,,,,,,,,,,,,,,,,,,,,,,,,,,,,,,,,,,,,,,,,,,,0,1,1,2,1,,,,,,,,,,,,,,,,,,,,,,,,,,,,,,,,,,,,,,,,,,,,,,
080907,001,2022-11-20_20h50.49.810,Info_measure_main_exp,2022.2.2,Win32,60.0276127,,,,,,,,,,,,,,,,,,masks/mask_005.jpg,,,,,,,,,,,,,,,,,,,,,,,,,,,,,,,,,,,,,,,,,,,0,2,2,4,1,,,,,,,,,,,,,,,,,,,,,,,,,,,,,,,,,,,,,,,,,,,,,,
080907,001,2022-11-20_20h50.49.810,Info_measure_main_exp,2022.2.2,Win32,60.0276127,,,,,,,,,,,,,,,,,,masks/mask_004.jpg,,,,,,,,,,,,,,,,,,,,,,,,,,,,,,,,,,,,,,,,,,,0,3,3,3,1,,,,,,,,,,,,,,,,,,,,,,,,,,,,,,,,,,,,,,,,,,,,,,
080907,001,2022-11-20_20h50.49.810,Info_measure_main_exp,2022.2.2,Win32,60.0276127,,,,,,,,,,,,,,,,,,masks/mask_002.jpg,,,,,,,,,,,,,,,,,,,,,,,,,,,,,,,,,,,,,,,,,,,0,4,4,1,1,,,,,,,,,,,,,,,,,,,,,,,,,,,,,,,,,,,,,,,,,,,,,,
080907,001,2022-11-20_20h50.49.810,Info_measure_main_exp,2022.2.2,Win32,60.0276127,,,,,,,,,,,,,,,,,,masks/mask_004.jpg,,,,,,,,,,,,,,,,,,,,,,,,,,,,,,,,,,,,,,,,,,,,,,,,0,0,0,3,1,,,,,,,,,,,,,,,,,,,,,,,,,,,,,,,,,,,,,,,,,
080907,001,2022-11-20_20h50.49.810,Info_measure_main_exp,2022.2.2,Win32,60.0276127,,,,,,,,,,,,,,,,,,masks/mask_001.jpg,,,,,,,,,,,,,,,,,,,,,,,,,,,,,,,,,,,,,,,,,,,,,,,,0,1,1,0,1,,,,,,,,,,,,,,,,,,,,,,,,,,,,,,,,,,,,,,,,,
080907,001,2022-11-20_20h50.49.810,Info_measure_main_exp,2022.2.2,Win32,60.0276127,,,,,,,,,,,,,,,,,,masks/mask_005.jpg,,,,,,,,,,,,,,,,,,,,,,,,,,,,,,,,,,,,,,,,,,,,,,,,0,2,2,4,1,,,,,,,,,,,,,,,,,,,,,,,,,,,,,,,,,,,,,,,,,
080907,001,2022-11-20_20h50.49.810,Info_measure_main_exp,2022.2.2,Win32,60.0276127,,,,,,,,,,,,,,,,,,masks/mask_002.jpg,,,,,,,,,,,,,,,,,,,,,,,,,,,,,,,,,,,,,,,,,,,,,,,,0,3,3,1,1,,,,,,,,,,,,,,,,,,,,,,,,,,,,,,,,,,,,,,,,,
080907,001,2022-11-20_20h50.49.810,Info_measure_main_exp,2022.2.2,Win32,60.0276127,,,,,,,,,,,,,,,,,,masks/mask_003.jpg,,,,,,,,,,,,,,,,,,,,,,,,,,,,,,,,,,,,,,,,,,,,,,,,0,4,4,2,1,,,,,,,,,,,,,,,,,,,,,,,,,,,,,,,,,,,,,,,,,
080907,001,2022-11-20_20h50.49.810,Info_measure_main_exp,2022.2.2,Win32,60.0276127,,,,,,,,,,,,,,,,,,,,,,,,,,,,,,7,0.6,1,,,,,,,,,,,,0,131,5,5,2238,2214,absent_patch/patch0002238.jpg,absent_patch/patch0002214.jpg,,,,,,,,,,,,,,,,,,,,0.025000042,0.085185192,1,0,0,response1disk,13,-0.009259259,0.000925912,1,0,0,center_square,0,12,12,81,1,,,,,,,,,,,,,,,,,,,,,,,
080907,001,2022-11-20_20h50.49.810,Info_measure_main_exp,2022.2.2,Win32,60.0276127,,,,,,,,,,,,,,,,,,masks/mask_004.jpg,,,,,,,,,,,,,,,,,,,,,,,,,,,,,,,,,,,,,,,,,,,0,0,0,3,1,,,,,,,,,,,,,,,,,,,,,,,,,,,,,,,,,,,,,,,,,,,,,,
080907,001,2022-11-20_20h50.49.810,Info_measure_main_exp,2022.2.2,Win32,60.0276127,,,,,,,,,,,,,,,,,,masks/mask_002.jpg,,,,,,,,,,,,,,,,,,,,,,,,,,,,,,,,,,,,,,,,,,,0,1,1,1,1,,,,,,,,,,,,,,,,,,,,,,,,,,,,,,,,,,,,,,,,,,,,,,
080907,001,2022-11-20_20h50.49.810,Info_measure_main_exp,2022.2.2,Win32,60.0276127,,,,,,,,,,,,,,,,,,masks/mask_001.jpg,,,,,,,,,,,,,,,,,,,,,,,,,,,,,,,,,,,,,,,,,,,0,2,2,0,1,,,,,,,,,,,,,,,,,,,,,,,,,,,,,,,,,,,,,,,,,,,,,,
080907,001,2022-11-20_20h50.49.810,Info_measure_main_exp,2022.2.2,Win32,60.0276127,,,,,,,,,,,,,,,,,,masks/mask_005.jpg,,,,,,,,,,,,,,,,,,,,,,,,,,,,,,,,,,,,,,,,,,,0,3,3,4,1,,,,,,,,,,,,,,,,,,,,,,,,,,,,,,,,,,,,,,,,,,,,,,
080907,001,2022-11-20_20h50.49.810,Info_measure_main_exp,2022.2.2,Win32,60.0276127,,,,,,,,,,,,,,,,,,masks/mask_003.jpg,,,,,,,,,,,,,,,,,,,,,,,,,,,,,,,,,,,,,,,,,,,0,4,4,2,1,,,,,,,,,,,,,,,,,,,,,,,,,,,,,,,,,,,,,,,,,,,,,,
080907,001,2022-11-20_20h50.49.810,Info_measure_main_exp,2022.2.2,Win32,60.0276127,,,,,,,,,,,,,,,,,,masks/mask_004.jpg,,,,,,,,,,,,,,,,,,,,,,,,,,,,,,,,,,,,,,,,,,,,,,,,0,0,0,3,1,,,,,,,,,,,,,,,,,,,,,,,,,,,,,,,,,,,,,,,,,
080907,001,2022-11-20_20h50.49.810,Info_measure_main_exp,2022.2.2,Win32,60.0276127,,,,,,,,,,,,,,,,,,masks/mask_001.jpg,,,,,,,,,,,,,,,,,,,,,,,,,,,,,,,,,,,,,,,,,,,,,,,,0,1,1,0,1,,,,,,,,,,,,,,,,,,,,,,,,,,,,,,,,,,,,,,,,,
080907,001,2022-11-20_20h50.49.810,Info_measure_main_exp,2022.2.2,Win32,60.0276127,,,,,,,,,,,,,,,,,,masks/mask_005.jpg,,,,,,,,,,,,,,,,,,,,,,,,,,,,,,,,,,,,,,,,,,,,,,,,0,2,2,4,1,,,,,,,,,,,,,,,,,,,,,,,,,,,,,,,,,,,,,,,,,
080907,001,2022-11-20_20h50.49.810,Info_measure_main_exp,2022.2.2,Win32,60.0276127,,,,,,,,,,,,,,,,,,masks/mask_003.jpg,,,,,,,,,,,,,,,,,,,,,,,,,,,,,,,,,,,,,,,,,,,,,,,,0,3,3,2,1,,,,,,,,,,,,,,,,,,,,,,,,,,,,,,,,,,,,,,,,,
080907,001,2022-11-20_20h50.49.810,Info_measure_main_exp,2022.2.2,Win32,60.0276127,,,,,,,,,,,,,,,,,,masks/mask_002.jpg,,,,,,,,,,,,,,,,,,,,,,,,,,,,,,,,,,,,,,,,,,,,,,,,0,4,4,1,1,,,,,,,,,,,,,,,,,,,,,,,,,,,,,,,,,,,,,,,,,
080907,001,2022-11-20_20h50.49.810,Info_measure_main_exp,2022.2.2,Win32,60.0276127,,,,,,,,,,,,,,,,,,,,,,,,,,,,,,7,0.7498,1,,,,,,,,,,,,0,131,5,5,2154,2190,absent_patch/patch0002154.jpg,absent_patch/patch0002190.jpg,,,,,,,,,,,,,,,,,,,,0.035185213,0.093518504,1,0,0,response1disk,14,0.00462963,0.014814801,1,0,0,center_square,0,13,13,68,1,,,,,,,,,,,,,,,,,,,,,,,
080907,001,2022-11-20_20h50.49.810,Info_measure_main_exp,2022.2.2,Win32,60.0276127,,,,,,,,,,,,,,,,,,masks/mask_002.jpg,,,,,,,,,,,,,,,,,,,,,,,,,,,,,,,,,,,,,,,,,,,0,0,0,1,1,,,,,,,,,,,,,,,,,,,,,,,,,,,,,,,,,,,,,,,,,,,,,,
080907,001,2022-11-20_20h50.49.810,Info_measure_main_exp,2022.2.2,Win32,60.0276127,,,,,,,,,,,,,,,,,,masks/mask_004.jpg,,,,,,,,,,,,,,,,,,,,,,,,,,,,,,,,,,,,,,,,,,,0,1,1,3,1,,,,,,,,,,,,,,,,,,,,,,,,,,,,,,,,,,,,,,,,,,,,,,
080907,001,2022-11-20_20h50.49.810,Info_measure_main_exp,2022.2.2,Win32,60.0276127,,,,,,,,,,,,,,,,,,masks/mask_003.jpg,,,,,,,,,,,,,,,,,,,,,,,,,,,,,,,,,,,,,,,,,,,0,2,2,2,1,,,,,,,,,,,,,,,,,,,,,,,,,,,,,,,,,,,,,,,,,,,,,,
080907,001,2022-11-20_20h50.49.810,Info_measure_main_exp,2022.2.2,Win32,60.0276127,,,,,,,,,,,,,,,,,,masks/mask_001.jpg,,,,,,,,,,,,,,,,,,,,,,,,,,,,,,,,,,,,,,,,,,,0,3,3,0,1,,,,,,,,,,,,,,,,,,,,,,,,,,,,,,,,,,,,,,,,,,,,,,
080907,001,2022-11-20_20h50.49.810,Info_measure_main_exp,2022.2.2,Win32,60.0276127,,,,,,,,,,,,,,,,,,masks/mask_005.jpg,,,,,,,,,,,,,,,,,,,,,,,,,,,,,,,,,,,,,,,,,,,0,4,4,4,1,,,,,,,,,,,,,,,,,,,,,,,,,,,,,,,,,,,,,,,,,,,,,,
080907,001,2022-11-20_20h50.49.810,Info_measure_main_exp,2022.2.2,Win32,60.0276127,,,,,,,,,,,,,,,,,,masks/mask_005.jpg,,,,,,,,,,,,,,,,,,,,,,,,,,,,,,,,,,,,,,,,,,,,,,,,0,0,0,4,1,,,,,,,,,,,,,,,,,,,,,,,,,,,,,,,,,,,,,,,,,
080907,001,2022-11-20_20h50.49.810,Info_measure_main_exp,2022.2.2,Win32,60.0276127,,,,,,,,,,,,,,,,,,masks/mask_002.jpg,,,,,,,,,,,,,,,,,,,,,,,,,,,,,,,,,,,,,,,,,,,,,,,,0,1,1,1,1,,,,,,,,,,,,,,,,,,,,,,,,,,,,,,,,,,,,,,,,,
080907,001,2022-11-20_20h50.49.810,Info_measure_main_exp,2022.2.2,Win32,60.0276127,,,,,,,,,,,,,,,,,,masks/mask_003.jpg,,,,,,,,,,,,,,,,,,,,,,,,,,,,,,,,,,,,,,,,,,,,,,,,0,2,2,2,1,,,,,,,,,,,,,,,,,,,,,,,,,,,,,,,,,,,,,,,,,
080907,001,2022-11-20_20h50.49.810,Info_measure_main_exp,2022.2.2,Win32,60.0276127,,,,,,,,,,,,,,,,,,masks/mask_004.jpg,,,,,,,,,,,,,,,,,,,,,,,,,,,,,,,,,,,,,,,,,,,,,,,,0,3,3,3,1,,,,,,,,,,,,,,,,,,,,,,,,,,,,,,,,,,,,,,,,,
080907,001,2022-11-20_20h50.49.810,Info_measure_main_exp,2022.2.2,Win32,60.0276127,,,,,,,,,,,,,,,,,,masks/mask_001.jpg,,,,,,,,,,,,,,,,,,,,,,,,,,,,,,,,,,,,,,,,,,,,,,,,0,4,4,0,1,,,,,,,,,,,,,,,,,,,,,,,,,,,,,,,,,,,,,,,,,
080907,001,2022-11-20_20h50.49.810,Info_measure_main_exp,2022.2.2,Win32,60.0276127,,,,,,,,,,,,,,,,,,,,,,,,,,,,,,7,0.5992,1,,,,,,,,,,,,1,131,5,5,2190,1,absent_patch/patch0002190.jpg,present_patch/cong_131_5_a.jpg,,,,,,,,,,,,,,,,,,,,0.032407407,0.082407386,1,0,0,response1disk,15,0.011111153,0.00462963,1,0,0,center_square,0,14,14,64,1,,,,,,,,,,,,,,,,,,,,,,,
080907,001,2022-11-20_20h50.49.810,Info_measure_main_exp,2022.2.2,Win32,60.0276127,,,,,,,,,,,,,,,,,,masks/mask_001.jpg,,,,,,,,,,,,,,,,,,,,,,,,,,,,,,,,,,,,,,,,,,,0,0,0,0,1,,,,,,,,,,,,,,,,,,,,,,,,,,,,,,,,,,,,,,,,,,,,,,
080907,001,2022-11-20_20h50.49.810,Info_measure_main_exp,2022.2.2,Win32,60.0276127,,,,,,,,,,,,,,,,,,masks/mask_004.jpg,,,,,,,,,,,,,,,,,,,,,,,,,,,,,,,,,,,,,,,,,,,0,1,1,3,1,,,,,,,,,,,,,,,,,,,,,,,,,,,,,,,,,,,,,,,,,,,,,,
080907,001,2022-11-20_20h50.49.810,Info_measure_main_exp,2022.2.2,Win32,60.0276127,,,,,,,,,,,,,,,,,,masks/mask_003.jpg,,,,,,,,,,,,,,,,,,,,,,,,,,,,,,,,,,,,,,,,,,,0,2,2,2,1,,,,,,,,,,,,,,,,,,,,,,,,,,,,,,,,,,,,,,,,,,,,,,
080907,001,2022-11-20_20h50.49.810,Info_measure_main_exp,2022.2.2,Win32,60.0276127,,,,,,,,,,,,,,,,,,masks/mask_002.jpg,,,,,,,,,,,,,,,,,,,,,,,,,,,,,,,,,,,,,,,,,,,0,3,3,1,1,,,,,,,,,,,,,,,,,,,,,,,,,,,,,,,,,,,,,,,,,,,,,,
080907,001,2022-11-20_20h50.49.810,Info_measure_main_exp,2022.2.2,Win32,60.0276127,,,,,,,,,,,,,,,,,,masks/mask_005.jpg,,,,,,,,,,,,,,,,,,,,,,,,,,,,,,,,,,,,,,,,,,,0,4,4,4,1,,,,,,,,,,,,,,,,,,,,,,,,,,,,,,,,,,,,,,,,,,,,,,
080907,001,2022-11-20_20h50.49.810,Info_measure_main_exp,2022.2.2,Win32,60.0276127,,,,,,,,,,,,,,,,,,masks/mask_002.jpg,,,,,,,,,,,,,,,,,,,,,,,,,,,,,,,,,,,,,,,,,,,,,,,,0,0,0,1,1,,,,,,,,,,,,,,,,,,,,,,,,,,,,,,,,,,,,,,,,,
080907,001,2022-11-20_20h50.49.810,Info_measure_main_exp,2022.2.2,Win32,60.0276127,,,,,,,,,,,,,,,,,,masks/mask_005.jpg,,,,,,,,,,,,,,,,,,,,,,,,,,,,,,,,,,,,,,,,,,,,,,,,0,1,1,4,1,,,,,,,,,,,,,,,,,,,,,,,,,,,,,,,,,,,,,,,,,
080907,001,2022-11-20_20h50.49.810,Info_measure_main_exp,2022.2.2,Win32,60.0276127,,,,,,,,,,,,,,,,,,masks/mask_003.jpg,,,,,,,,,,,,,,,,,,,,,,,,,,,,,,,,,,,,,,,,,,,,,,,,0,2,2,2,1,,,,,,,,,,,,,,,,,,,,,,,,,,,,,,,,,,,,,,,,,
080907,001,2022-11-20_20h50.49.810,Info_measure_main_exp,2022.2.2,Win32,60.0276127,,,,,,,,,,,,,,,,,,masks/mask_004.jpg,,,,,,,,,,,,,,,,,,,,,,,,,,,,,,,,,,,,,,,,,,,,,,,,0,3,3,3,1,,,,,,,,,,,,,,,,,,,,,,,,,,,,,,,,,,,,,,,,,
080907,001,2022-11-20_20h50.49.810,Info_measure_main_exp,2022.2.2,Win32,60.0276127,,,,,,,,,,,,,,,,,,masks/mask_001.jpg,,,,,,,,,,,,,,,,,,,,,,,,,,,,,,,,,,,,,,,,,,,,,,,,0,4,4,0,1,,,,,,,,,,,,,,,,,,,,,,,,,,,,,,,,,,,,,,,,,
080907,001,2022-11-20_20h50.49.810,Info_measure_main_exp,2022.2.2,Win32,60.0276127,,,,,,,,,,,,,,,,,,,,,,,,,,,,,,0,1.0992,1,,,,,,,,,,,,0,131,5,5,2154,2154,absent_patch/patch0002154.jpg,absent_patch/patch0002154.jpg,,,,,,,,,,,,,,,,,,,,-0.050000014,0.102777764,1,0,0,response7disk,16,0.00462963,-0.008333347,1,0,0,center_square,0,15,15,89,1,,,,,,,,,,,,,,,,,,,,,,,
080907,001,2022-11-20_20h50.49.810,Info_measure_main_exp,2022.2.2,Win32,60.0276127,,,,,,,,,,,,,,,,,,masks/mask_001.jpg,,,,,,,,,,,,,,,,,,,,,,,,,,,,,,,,,,,,,,,,,,,0,0,0,0,1,,,,,,,,,,,,,,,,,,,,,,,,,,,,,,,,,,,,,,,,,,,,,,
080907,001,2022-11-20_20h50.49.810,Info_measure_main_exp,2022.2.2,Win32,60.0276127,,,,,,,,,,,,,,,,,,masks/mask_002.jpg,,,,,,,,,,,,,,,,,,,,,,,,,,,,,,,,,,,,,,,,,,,0,1,1,1,1,,,,,,,,,,,,,,,,,,,,,,,,,,,,,,,,,,,,,,,,,,,,,,
080907,001,2022-11-20_20h50.49.810,Info_measure_main_exp,2022.2.2,Win32,60.0276127,,,,,,,,,,,,,,,,,,masks/mask_003.jpg,,,,,,,,,,,,,,,,,,,,,,,,,,,,,,,,,,,,,,,,,,,0,2,2,2,1,,,,,,,,,,,,,,,,,,,,,,,,,,,,,,,,,,,,,,,,,,,,,,
080907,001,2022-11-20_20h50.49.810,Info_measure_main_exp,2022.2.2,Win32,60.0276127,,,,,,,,,,,,,,,,,,masks/mask_005.jpg,,,,,,,,,,,,,,,,,,,,,,,,,,,,,,,,,,,,,,,,,,,0,3,3,4,1,,,,,,,,,,,,,,,,,,,,,,,,,,,,,,,,,,,,,,,,,,,,,,
080907,001,2022-11-20_20h50.49.810,Info_measure_main_exp,2022.2.2,Win32,60.0276127,,,,,,,,,,,,,,,,,,masks/mask_004.jpg,,,,,,,,,,,,,,,,,,,,,,,,,,,,,,,,,,,,,,,,,,,0,4,4,3,1,,,,,,,,,,,,,,,,,,,,,,,,,,,,,,,,,,,,,,,,,,,,,,
080907,001,2022-11-20_20h50.49.810,Info_measure_main_exp,2022.2.2,Win32,60.0276127,,,,,,,,,,,,,,,,,,masks/mask_003.jpg,,,,,,,,,,,,,,,,,,,,,,,,,,,,,,,,,,,,,,,,,,,,,,,,0,0,0,2,1,,,,,,,,,,,,,,,,,,,,,,,,,,,,,,,,,,,,,,,,,
080907,001,2022-11-20_20h50.49.810,Info_measure_main_exp,2022.2.2,Win32,60.0276127,,,,,,,,,,,,,,,,,,masks/mask_004.jpg,,,,,,,,,,,,,,,,,,,,,,,,,,,,,,,,,,,,,,,,,,,,,,,,0,1,1,3,1,,,,,,,,,,,,,,,,,,,,,,,,,,,,,,,,,,,,,,,,,
080907,001,2022-11-20_20h50.49.810,Info_measure_main_exp,2022.2.2,Win32,60.0276127,,,,,,,,,,,,,,,,,,masks/mask_005.jpg,,,,,,,,,,,,,,,,,,,,,,,,,,,,,,,,,,,,,,,,,,,,,,,,0,2,2,4,1,,,,,,,,,,,,,,,,,,,,,,,,,,,,,,,,,,,,,,,,,
080907,001,2022-11-20_20h50.49.810,Info_measure_main_exp,2022.2.2,Win32,60.0276127,,,,,,,,,,,,,,,,,,masks/mask_002.jpg,,,,,,,,,,,,,,,,,,,,,,,,,,,,,,,,,,,,,,,,,,,,,,,,0,3,3,1,1,,,,,,,,,,,,,,,,,,,,,,,,,,,,,,,,,,,,,,,,,
080907,001,2022-11-20_20h50.49.810,Info_measure_main_exp,2022.2.2,Win32,60.0276127,,,,,,,,,,,,,,,,,,masks/mask_001.jpg,,,,,,,,,,,,,,,,,,,,,,,,,,,,,,,,,,,,,,,,,,,,,,,,0,4,4,0,1,,,,,,,,,,,,,,,,,,,,,,,,,,,,,,,,,,,,,,,,,
080907,001,2022-11-20_20h50.49.810,Info_measure_main_exp,2022.2.2,Win32,60.0276127,,,,,,,,,,,,,,,,,,,,,,,,,,,,,,6,1.3496,1,,,,,,,,,,,,0,131,5,5,1986,2142,absent_patch/patch0001986.jpg,absent_patch/patch0002142.jpg,,,,,,,,,,,,,,,,,,,,0.079629616,0.023148148,1,0,0,response1disk,17,0.006481524,0.003703683,1,0,0,center_square,0,16,16,76,1,,,,,,,,,,,,,,,,,,,,,,,
080907,001,2022-11-20_20h50.49.810,Info_measure_main_exp,2022.2.2,Win32,60.0276127,,,,,,,,,,,,,,,,,,masks/mask_005.jpg,,,,,,,,,,,,,,,,,,,,,,,,,,,,,,,,,,,,,,,,,,,0,0,0,4,1,,,,,,,,,,,,,,,,,,,,,,,,,,,,,,,,,,,,,,,,,,,,,,
080907,001,2022-11-20_20h50.49.810,Info_measure_main_exp,2022.2.2,Win32,60.0276127,,,,,,,,,,,,,,,,,,masks/mask_001.jpg,,,,,,,,,,,,,,,,,,,,,,,,,,,,,,,,,,,,,,,,,,,0,1,1,0,1,,,,,,,,,,,,,,,,,,,,,,,,,,,,,,,,,,,,,,,,,,,,,,
080907,001,2022-11-20_20h50.49.810,Info_measure_main_exp,2022.2.2,Win32,60.0276127,,,,,,,,,,,,,,,,,,masks/mask_004.jpg,,,,,,,,,,,,,,,,,,,,,,,,,,,,,,,,,,,,,,,,,,,0,2,2,3,1,,,,,,,,,,,,,,,,,,,,,,,,,,,,,,,,,,,,,,,,,,,,,,
080907,001,2022-11-20_20h50.49.810,Info_measure_main_exp,2022.2.2,Win32,60.0276127,,,,,,,,,,,,,,,,,,masks/mask_003.jpg,,,,,,,,,,,,,,,,,,,,,,,,,,,,,,,,,,,,,,,,,,,0,3,3,2,1,,,,,,,,,,,,,,,,,,,,,,,,,,,,,,,,,,,,,,,,,,,,,,
080907,001,2022-11-20_20h50.49.810,Info_measure_main_exp,2022.2.2,Win32,60.0276127,,,,,,,,,,,,,,,,,,masks/mask_002.jpg,,,,,,,,,,,,,,,,,,,,,,,,,,,,,,,,,,,,,,,,,,,0,4,4,1,1,,,,,,,,,,,,,,,,,,,,,,,,,,,,,,,,,,,,,,,,,,,,,,
080907,001,2022-11-20_20h50.49.810,Info_measure_main_exp,2022.2.2,Win32,60.0276127,,,,,,,,,,,,,,,,,,masks/mask_005.jpg,,,,,,,,,,,,,,,,,,,,,,,,,,,,,,,,,,,,,,,,,,,,,,,,0,0,0,4,1,,,,,,,,,,,,,,,,,,,,,,,,,,,,,,,,,,,,,,,,,
080907,001,2022-11-20_20h50.49.810,Info_measure_main_exp,2022.2.2,Win32,60.0276127,,,,,,,,,,,,,,,,,,masks/mask_003.jpg,,,,,,,,,,,,,,,,,,,,,,,,,,,,,,,,,,,,,,,,,,,,,,,,0,1,1,2,1,,,,,,,,,,,,,,,,,,,,,,,,,,,,,,,,,,,,,,,,,
080907,001,2022-11-20_20h50.49.810,Info_measure_main_exp,2022.2.2,Win32,60.0276127,,,,,,,,,,,,,,,,,,masks/mask_001.jpg,,,,,,,,,,,,,,,,,,,,,,,,,,,,,,,,,,,,,,,,,,,,,,,,0,2,2,0,1,,,,,,,,,,,,,,,,,,,,,,,,,,,,,,,,,,,,,,,,,
080907,001,2022-11-20_20h50.49.810,Info_measure_main_exp,2022.2.2,Win32,60.0276127,,,,,,,,,,,,,,,,,,masks/mask_002.jpg,,,,,,,,,,,,,,,,,,,,,,,,,,,,,,,,,,,,,,,,,,,,,,,,0,3,3,1,1,,,,,,,,,,,,,,,,,,,,,,,,,,,,,,,,,,,,,,,,,
080907,001,2022-11-20_20h50.49.810,Info_measure_main_exp,2022.2.2,Win32,60.0276127,,,,,,,,,,,,,,,,,,masks/mask_004.jpg,,,,,,,,,,,,,,,,,,,,,,,,,,,,,,,,,,,,,,,,,,,,,,,,0,4,4,3,1,,,,,,,,,,,,,,,,,,,,,,,,,,,,,,,,,,,,,,,,,
080907,001,2022-11-20_20h50.49.810,Info_measure_main_exp,2022.2.2,Win32,60.0276127,,,,,,,,,,,,,,,,,,,,,,,,,,,,,,7,0.6989,1,,,,,,,,,,,,1,131,5,5,1,2142,present_patch/cong_131_5_a.jpg,absent_patch/patch0002142.jpg,,,,,,,,,,,,,,,,,,,,0.039814843,0.079629616,1,0,0,response1disk,18,0.001851894,-0.005555577,1,0,0,center_square,0,17,17,80,1,,,,,,,,,,,,,,,,,,,,,,,
080907,001,2022-11-20_20h50.49.810,Info_measure_main_exp,2022.2.2,Win32,60.0276127,,,,,,,,,,,,,,,,,,masks/mask_002.jpg,,,,,,,,,,,,,,,,,,,,,,,,,,,,,,,,,,,,,,,,,,,0,0,0,1,1,,,,,,,,,,,,,,,,,,,,,,,,,,,,,,,,,,,,,,,,,,,,,,
080907,001,2022-11-20_20h50.49.810,Info_measure_main_exp,2022.2.2,Win32,60.0276127,,,,,,,,,,,,,,,,,,masks/mask_001.jpg,,,,,,,,,,,,,,,,,,,,,,,,,,,,,,,,,,,,,,,,,,,0,1,1,0,1,,,,,,,,,,,,,,,,,,,,,,,,,,,,,,,,,,,,,,,,,,,,,,
080907,001,2022-11-20_20h50.49.810,Info_measure_main_exp,2022.2.2,Win32,60.0276127,,,,,,,,,,,,,,,,,,masks/mask_003.jpg,,,,,,,,,,,,,,,,,,,,,,,,,,,,,,,,,,,,,,,,,,,0,2,2,2,1,,,,,,,,,,,,,,,,,,,,,,,,,,,,,,,,,,,,,,,,,,,,,,
080907,001,2022-11-20_20h50.49.810,Info_measure_main_exp,2022.2.2,Win32,60.0276127,,,,,,,,,,,,,,,,,,masks/mask_004.jpg,,,,,,,,,,,,,,,,,,,,,,,,,,,,,,,,,,,,,,,,,,,0,3,3,3,1,,,,,,,,,,,,,,,,,,,,,,,,,,,,,,,,,,,,,,,,,,,,,,
080907,001,2022-11-20_20h50.49.810,Info_measure_main_exp,2022.2.2,Win32,60.0276127,,,,,,,,,,,,,,,,,,masks/mask_005.jpg,,,,,,,,,,,,,,,,,,,,,,,,,,,,,,,,,,,,,,,,,,,0,4,4,4,1,,,,,,,,,,,,,,,,,,,,,,,,,,,,,,,,,,,,,,,,,,,,,,
080907,001,2022-11-20_20h50.49.810,Info_measure_main_exp,2022.2.2,Win32,60.0276127,,,,,,,,,,,,,,,,,,masks/mask_002.jpg,,,,,,,,,,,,,,,,,,,,,,,,,,,,,,,,,,,,,,,,,,,,,,,,0,0,0,1,1,,,,,,,,,,,,,,,,,,,,,,,,,,,,,,,,,,,,,,,,,
080907,001,2022-11-20_20h50.49.810,Info_measure_main_exp,2022.2.2,Win32,60.0276127,,,,,,,,,,,,,,,,,,masks/mask_003.jpg,,,,,,,,,,,,,,,,,,,,,,,,,,,,,,,,,,,,,,,,,,,,,,,,0,1,1,2,1,,,,,,,,,,,,,,,,,,,,,,,,,,,,,,,,,,,,,,,,,
080907,001,2022-11-20_20h50.49.810,Info_measure_main_exp,2022.2.2,Win32,60.0276127,,,,,,,,,,,,,,,,,,masks/mask_001.jpg,,,,,,,,,,,,,,,,,,,,,,,,,,,,,,,,,,,,,,,,,,,,,,,,0,2,2,0,1,,,,,,,,,,,,,,,,,,,,,,,,,,,,,,,,,,,,,,,,,
080907,001,2022-11-20_20h50.49.810,Info_measure_main_exp,2022.2.2,Win32,60.0276127,,,,,,,,,,,,,,,,,,masks/mask_005.jpg,,,,,,,,,,,,,,,,,,,,,,,,,,,,,,,,,,,,,,,,,,,,,,,,0,3,3,4,1,,,,,,,,,,,,,,,,,,,,,,,,,,,,,,,,,,,,,,,,,
080907,001,2022-11-20_20h50.49.810,Info_measure_main_exp,2022.2.2,Win32,60.0276127,,,,,,,,,,,,,,,,,,masks/mask_004.jpg,,,,,,,,,,,,,,,,,,,,,,,,,,,,,,,,,,,,,,,,,,,,,,,,0,4,4,3,1,,,,,,,,,,,,,,,,,,,,,,,,,,,,,,,,,,,,,,,,,
080907,001,2022-11-20_20h50.49.810,Info_measure_main_exp,2022.2.2,Win32,60.0276127,,,,,,,,,,,,,,,,,,,,,,,,,,,,,,5,1.3828,1,,,,,,,,,,,,0,131,5,5,2250,2166,absent_patch/patch0002250.jpg,absent_patch/patch0002166.jpg,,,,,,,,,,,,,,,,,,,,0.063888903,-0.036111125,1,0,0,response3disk,19,0.002777806,-0.01203703,1,0,0,center_square,0,18,18,60,1,,,,,,,,,,,,,,,,,,,,,,,
080907,001,2022-11-20_20h50.49.810,Info_measure_main_exp,2022.2.2,Win32,60.0276127,,,,,,,,,,,,,,,,,,masks/mask_003.jpg,,,,,,,,,,,,,,,,,,,,,,,,,,,,,,,,,,,,,,,,,,,0,0,0,2,1,,,,,,,,,,,,,,,,,,,,,,,,,,,,,,,,,,,,,,,,,,,,,,
080907,001,2022-11-20_20h50.49.810,Info_measure_main_exp,2022.2.2,Win32,60.0276127,,,,,,,,,,,,,,,,,,masks/mask_002.jpg,,,,,,,,,,,,,,,,,,,,,,,,,,,,,,,,,,,,,,,,,,,0,1,1,1,1,,,,,,,,,,,,,,,,,,,,,,,,,,,,,,,,,,,,,,,,,,,,,,
080907,001,2022-11-20_20h50.49.810,Info_measure_main_exp,2022.2.2,Win32,60.0276127,,,,,,,,,,,,,,,,,,masks/mask_004.jpg,,,,,,,,,,,,,,,,,,,,,,,,,,,,,,,,,,,,,,,,,,,0,2,2,3,1,,,,,,,,,,,,,,,,,,,,,,,,,,,,,,,,,,,,,,,,,,,,,,
080907,001,2022-11-20_20h50.49.810,Info_measure_main_exp,2022.2.2,Win32,60.0276127,,,,,,,,,,,,,,,,,,masks/mask_005.jpg,,,,,,,,,,,,,,,,,,,,,,,,,,,,,,,,,,,,,,,,,,,0,3,3,4,1,,,,,,,,,,,,,,,,,,,,,,,,,,,,,,,,,,,,,,,,,,,,,,
080907,001,2022-11-20_20h50.49.810,Info_measure_main_exp,2022.2.2,Win32,60.0276127,,,,,,,,,,,,,,,,,,masks/mask_001.jpg,,,,,,,,,,,,,,,,,,,,,,,,,,,,,,,,,,,,,,,,,,,0,4,4,0,1,,,,,,,,,,,,,,,,,,,,,,,,,,,,,,,,,,,,,,,,,,,,,,
080907,001,2022-11-20_20h50.49.810,Info_measure_main_exp,2022.2.2,Win32,60.0276127,,,,,,,,,,,,,,,,,,masks/mask_002.jpg,,,,,,,,,,,,,,,,,,,,,,,,,,,,,,,,,,,,,,,,,,,,,,,,0,0,0,1,1,,,,,,,,,,,,,,,,,,,,,,,,,,,,,,,,,,,,,,,,,
080907,001,2022-11-20_20h50.49.810,Info_measure_main_exp,2022.2.2,Win32,60.0276127,,,,,,,,,,,,,,,,,,masks/mask_003.jpg,,,,,,,,,,,,,,,,,,,,,,,,,,,,,,,,,,,,,,,,,,,,,,,,0,1,1,2,1,,,,,,,,,,,,,,,,,,,,,,,,,,,,,,,,,,,,,,,,,
080907,001,2022-11-20_20h50.49.810,Info_measure_main_exp,2022.2.2,Win32,60.0276127,,,,,,,,,,,,,,,,,,masks/mask_004.jpg,,,,,,,,,,,,,,,,,,,,,,,,,,,,,,,,,,,,,,,,,,,,,,,,0,2,2,3,1,,,,,,,,,,,,,,,,,,,,,,,,,,,,,,,,,,,,,,,,,
080907,001,2022-11-20_20h50.49.810,Info_measure_main_exp,2022.2.2,Win32,60.0276127,,,,,,,,,,,,,,,,,,masks/mask_001.jpg,,,,,,,,,,,,,,,,,,,,,,,,,,,,,,,,,,,,,,,,,,,,,,,,0,3,3,0,1,,,,,,,,,,,,,,,,,,,,,,,,,,,,,,,,,,,,,,,,,
080907,001,2022-11-20_20h50.49.810,Info_measure_main_exp,2022.2.2,Win32,60.0276127,,,,,,,,,,,,,,,,,,masks/mask_005.jpg,,,,,,,,,,,,,,,,,,,,,,,,,,,,,,,,,,,,,,,,,,,,,,,,0,4,4,4,1,,,,,,,,,,,,,,,,,,,,,,,,,,,,,,,,,,,,,,,,,
080907,001,2022-11-20_20h50.49.810,Info_measure_main_exp,2022.2.2,Win32,60.0276127,,,,,,,,,,,,,,,,,,,,,,,,,,,,,,6,1.3993,1,,,,,,,,,,,,0,131,5,5,1974,2238,absent_patch/patch0001974.jpg,absent_patch/patch0002238.jpg,,,,,,,,,,,,,,,,,,,,0.095370399,0.042592578,1,0,0,response1disk,20,0.000925912,-0.002777771,1,0,0,center_square,0,19,19,95,1,,,,,,,,,,,,,,,,,,,,,,,
080907,001,2022-11-20_20h50.49.810,Info_measure_main_exp,2022.2.2,Win32,60.0276127,,,,,,,,,,,,,,,,,,masks/mask_004.jpg,,,,,,,,,,,,,,,,,,,,,,,,,,,,,,,,,,,,,,,,,,,0,0,0,3,1,,,,,,,,,,,,,,,,,,,,,,,,,,,,,,,,,,,,,,,,,,,,,,
080907,001,2022-11-20_20h50.49.810,Info_measure_main_exp,2022.2.2,Win32,60.0276127,,,,,,,,,,,,,,,,,,masks/mask_001.jpg,,,,,,,,,,,,,,,,,,,,,,,,,,,,,,,,,,,,,,,,,,,0,1,1,0,1,,,,,,,,,,,,,,,,,,,,,,,,,,,,,,,,,,,,,,,,,,,,,,
080907,001,2022-11-20_20h50.49.810,Info_measure_main_exp,2022.2.2,Win32,60.0276127,,,,,,,,,,,,,,,,,,masks/mask_002.jpg,,,,,,,,,,,,,,,,,,,,,,,,,,,,,,,,,,,,,,,,,,,0,2,2,1,1,,,,,,,,,,,,,,,,,,,,,,,,,,,,,,,,,,,,,,,,,,,,,,
080907,001,2022-11-20_20h50.49.810,Info_measure_main_exp,2022.2.2,Win32,60.0276127,,,,,,,,,,,,,,,,,,masks/mask_003.jpg,,,,,,,,,,,,,,,,,,,,,,,,,,,,,,,,,,,,,,,,,,,0,3,3,2,1,,,,,,,,,,,,,,,,,,,,,,,,,,,,,,,,,,,,,,,,,,,,,,
080907,001,2022-11-20_20h50.49.810,Info_measure_main_exp,2022.2.2,Win32,60.0276127,,,,,,,,,,,,,,,,,,masks/mask_005.jpg,,,,,,,,,,,,,,,,,,,,,,,,,,,,,,,,,,,,,,,,,,,0,4,4,4,1,,,,,,,,,,,,,,,,,,,,,,,,,,,,,,,,,,,,,,,,,,,,,,
080907,001,2022-11-20_20h50.49.810,Info_measure_main_exp,2022.2.2,Win32,60.0276127,,,,,,,,,,,,,,,,,,masks/mask_004.jpg,,,,,,,,,,,,,,,,,,,,,,,,,,,,,,,,,,,,,,,,,,,,,,,,0,0,0,3,1,,,,,,,,,,,,,,,,,,,,,,,,,,,,,,,,,,,,,,,,,
080907,001,2022-11-20_20h50.49.810,Info_measure_main_exp,2022.2.2,Win32,60.0276127,,,,,,,,,,,,,,,,,,masks/mask_005.jpg,,,,,,,,,,,,,,,,,,,,,,,,,,,,,,,,,,,,,,,,,,,,,,,,0,1,1,4,1,,,,,,,,,,,,,,,,,,,,,,,,,,,,,,,,,,,,,,,,,
080907,001,2022-11-20_20h50.49.810,Info_measure_main_exp,2022.2.2,Win32,60.0276127,,,,,,,,,,,,,,,,,,masks/mask_001.jpg,,,,,,,,,,,,,,,,,,,,,,,,,,,,,,,,,,,,,,,,,,,,,,,,0,2,2,0,1,,,,,,,,,,,,,,,,,,,,,,,,,,,,,,,,,,,,,,,,,
080907,001,2022-11-20_20h50.49.810,Info_measure_main_exp,2022.2.2,Win32,60.0276127,,,,,,,,,,,,,,,,,,masks/mask_003.jpg,,,,,,,,,,,,,,,,,,,,,,,,,,,,,,,,,,,,,,,,,,,,,,,,0,3,3,2,1,,,,,,,,,,,,,,,,,,,,,,,,,,,,,,,,,,,,,,,,,
080907,001,2022-11-20_20h50.49.810,Info_measure_main_exp,2022.2.2,Win32,60.0276127,,,,,,,,,,,,,,,,,,masks/mask_002.jpg,,,,,,,,,,,,,,,,,,,,,,,,,,,,,,,,,,,,,,,,,,,,,,,,0,4,4,1,1,,,,,,,,,,,,,,,,,,,,,,,,,,,,,,,,,,,,,,,,,
080907,001,2022-11-20_20h50.49.810,Info_measure_main_exp,2022.2.2,Win32,60.0276127,,,,,,,,,,,,,,,,,,,,,,,,,,,,,,0,0.833,1,,,,,,,,,,,,0,131,5,5,2238,2238,absent_patch/patch0002238.jpg,absent_patch/patch0002238.jpg,,,,,,,,,,,,,,,,,,,,-0.044444402,0.143518519,1,0,0,response7disk,21,-0.00462963,-0.011111118,1,0,0,center_square,0,20,20,58,1,,,,,,,,,,,,,,,,,,,,,,,
080907,001,2022-11-20_20h50.49.810,Info_measure_main_exp,2022.2.2,Win32,60.0276127,,,,,,,,,,,,,,,,,,masks/mask_002.jpg,,,,,,,,,,,,,,,,,,,,,,,,,,,,,,,,,,,,,,,,,,,0,0,0,1,1,,,,,,,,,,,,,,,,,,,,,,,,,,,,,,,,,,,,,,,,,,,,,,
080907,001,2022-11-20_20h50.49.810,Info_measure_main_exp,2022.2.2,Win32,60.0276127,,,,,,,,,,,,,,,,,,masks/mask_003.jpg,,,,,,,,,,,,,,,,,,,,,,,,,,,,,,,,,,,,,,,,,,,0,1,1,2,1,,,,,,,,,,,,,,,,,,,,,,,,,,,,,,,,,,,,,,,,,,,,,,
080907,001,2022-11-20_20h50.49.810,Info_measure_main_exp,2022.2.2,Win32,60.0276127,,,,,,,,,,,,,,,,,,masks/mask_001.jpg,,,,,,,,,,,,,,,,,,,,,,,,,,,,,,,,,,,,,,,,,,,0,2,2,0,1,,,,,,,,,,,,,,,,,,,,,,,,,,,,,,,,,,,,,,,,,,,,,,
080907,001,2022-11-20_20h50.49.810,Info_measure_main_exp,2022.2.2,Win32,60.0276127,,,,,,,,,,,,,,,,,,masks/mask_004.jpg,,,,,,,,,,,,,,,,,,,,,,,,,,,,,,,,,,,,,,,,,,,0,3,3,3,1,,,,,,,,,,,,,,,,,,,,,,,,,,,,,,,,,,,,,,,,,,,,,,
080907,001,2022-11-20_20h50.49.810,Info_measure_main_exp,2022.2.2,Win32,60.0276127,,,,,,,,,,,,,,,,,,masks/mask_005.jpg,,,,,,,,,,,,,,,,,,,,,,,,,,,,,,,,,,,,,,,,,,,0,4,4,4,1,,,,,,,,,,,,,,,,,,,,,,,,,,,,,,,,,,,,,,,,,,,,,,
080907,001,2022-11-20_20h50.49.810,Info_measure_main_exp,2022.2.2,Win32,60.0276127,,,,,,,,,,,,,,,,,,masks/mask_002.jpg,,,,,,,,,,,,,,,,,,,,,,,,,,,,,,,,,,,,,,,,,,,,,,,,0,0,0,1,1,,,,,,,,,,,,,,,,,,,,,,,,,,,,,,,,,,,,,,,,,
080907,001,2022-11-20_20h50.49.810,Info_measure_main_exp,2022.2.2,Win32,60.0276127,,,,,,,,,,,,,,,,,,masks/mask_004.jpg,,,,,,,,,,,,,,,,,,,,,,,,,,,,,,,,,,,,,,,,,,,,,,,,0,1,1,3,1,,,,,,,,,,,,,,,,,,,,,,,,,,,,,,,,,,,,,,,,,
080907,001,2022-11-20_20h50.49.810,Info_measure_main_exp,2022.2.2,Win32,60.0276127,,,,,,,,,,,,,,,,,,masks/mask_005.jpg,,,,,,,,,,,,,,,,,,,,,,,,,,,,,,,,,,,,,,,,,,,,,,,,0,2,2,4,1,,,,,,,,,,,,,,,,,,,,,,,,,,,,,,,,,,,,,,,,,
080907,001,2022-11-20_20h50.49.810,Info_measure_main_exp,2022.2.2,Win32,60.0276127,,,,,,,,,,,,,,,,,,masks/mask_003.jpg,,,,,,,,,,,,,,,,,,,,,,,,,,,,,,,,,,,,,,,,,,,,,,,,0,3,3,2,1,,,,,,,,,,,,,,,,,,,,,,,,,,,,,,,,,,,,,,,,,
080907,001,2022-11-20_20h50.49.810,Info_measure_main_exp,2022.2.2,Win32,60.0276127,,,,,,,,,,,,,,,,,,masks/mask_001.jpg,,,,,,,,,,,,,,,,,,,,,,,,,,,,,,,,,,,,,,,,,,,,,,,,0,4,4,0,1,,,,,,,,,,,,,,,,,,,,,,,,,,,,,,,,,,,,,,,,,
080907,001,2022-11-20_20h50.49.810,Info_measure_main_exp,2022.2.2,Win32,60.0276127,,,,,,,,,,,,,,,,,,,,,,,,,,,,,,5,3.2653,1,,,,,,,,,,,,0,131,5,5,2178,2166,absent_patch/patch0002178.jpg,absent_patch/patch0002166.jpg,,,,,,,,,,,,,,,,,,,,0.08148151,-0.030555548,1,0,0,response3disk,22,0.009259259,0.000925912,1,0,0,center_square,0,21,21,72,1,,,,,,,,,,,,,,,,,,,,,,,
080907,001,2022-11-20_20h50.49.810,Info_measure_main_exp,2022.2.2,Win32,60.0276127,,,,,,,,,,,,,,,,,,masks/mask_004.jpg,,,,,,,,,,,,,,,,,,,,,,,,,,,,,,,,,,,,,,,,,,,0,0,0,3,1,,,,,,,,,,,,,,,,,,,,,,,,,,,,,,,,,,,,,,,,,,,,,,
080907,001,2022-11-20_20h50.49.810,Info_measure_main_exp,2022.2.2,Win32,60.0276127,,,,,,,,,,,,,,,,,,masks/mask_001.jpg,,,,,,,,,,,,,,,,,,,,,,,,,,,,,,,,,,,,,,,,,,,0,1,1,0,1,,,,,,,,,,,,,,,,,,,,,,,,,,,,,,,,,,,,,,,,,,,,,,
080907,001,2022-11-20_20h50.49.810,Info_measure_main_exp,2022.2.2,Win32,60.0276127,,,,,,,,,,,,,,,,,,masks/mask_003.jpg,,,,,,,,,,,,,,,,,,,,,,,,,,,,,,,,,,,,,,,,,,,0,2,2,2,1,,,,,,,,,,,,,,,,,,,,,,,,,,,,,,,,,,,,,,,,,,,,,,
080907,001,2022-11-20_20h50.49.810,Info_measure_main_exp,2022.2.2,Win32,60.0276127,,,,,,,,,,,,,,,,,,masks/mask_002.jpg,,,,,,,,,,,,,,,,,,,,,,,,,,,,,,,,,,,,,,,,,,,0,3,3,1,1,,,,,,,,,,,,,,,,,,,,,,,,,,,,,,,,,,,,,,,,,,,,,,
080907,001,2022-11-20_20h50.49.810,Info_measure_main_exp,2022.2.2,Win32,60.0276127,,,,,,,,,,,,,,,,,,masks/mask_005.jpg,,,,,,,,,,,,,,,,,,,,,,,,,,,,,,,,,,,,,,,,,,,0,4,4,4,1,,,,,,,,,,,,,,,,,,,,,,,,,,,,,,,,,,,,,,,,,,,,,,
080907,001,2022-11-20_20h50.49.810,Info_measure_main_exp,2022.2.2,Win32,60.0276127,,,,,,,,,,,,,,,,,,masks/mask_004.jpg,,,,,,,,,,,,,,,,,,,,,,,,,,,,,,,,,,,,,,,,,,,,,,,,0,0,0,3,1,,,,,,,,,,,,,,,,,,,,,,,,,,,,,,,,,,,,,,,,,
080907,001,2022-11-20_20h50.49.810,Info_measure_main_exp,2022.2.2,Win32,60.0276127,,,,,,,,,,,,,,,,,,masks/mask_001.jpg,,,,,,,,,,,,,,,,,,,,,,,,,,,,,,,,,,,,,,,,,,,,,,,,0,1,1,0,1,,,,,,,,,,,,,,,,,,,,,,,,,,,,,,,,,,,,,,,,,
080907,001,2022-11-20_20h50.49.810,Info_measure_main_exp,2022.2.2,Win32,60.0276127,,,,,,,,,,,,,,,,,,masks/mask_003.jpg,,,,,,,,,,,,,,,,,,,,,,,,,,,,,,,,,,,,,,,,,,,,,,,,0,2,2,2,1,,,,,,,,,,,,,,,,,,,,,,,,,,,,,,,,,,,,,,,,,
080907,001,2022-11-20_20h50.49.810,Info_measure_main_exp,2022.2.2,Win32,60.0276127,,,,,,,,,,,,,,,,,,masks/mask_005.jpg,,,,,,,,,,,,,,,,,,,,,,,,,,,,,,,,,,,,,,,,,,,,,,,,0,3,3,4,1,,,,,,,,,,,,,,,,,,,,,,,,,,,,,,,,,,,,,,,,,
080907,001,2022-11-20_20h50.49.810,Info_measure_main_exp,2022.2.2,Win32,60.0276127,,,,,,,,,,,,,,,,,,masks/mask_002.jpg,,,,,,,,,,,,,,,,,,,,,,,,,,,,,,,,,,,,,,,,,,,,,,,,0,4,4,1,1,,,,,,,,,,,,,,,,,,,,,,,,,,,,,,,,,,,,,,,,,
080907,001,2022-11-20_20h50.49.810,Info_measure_main_exp,2022.2.2,Win32,60.0276127,,,,,,,,,,,,,,,,,,,,,,,,,,,,,,1,1.4001,1,,,,,,,,,,,,0,131,5,5,2082,1974,absent_patch/patch0002082.jpg,absent_patch/patch0001974.jpg,,,,,,,,,,,,,,,,,,,,-0.078703704,0.03148146,1,0,0,response7disk,23,0.002777806,0.002777771,1,0,0,center_square,0,22,22,26,1,,,,,,,,,,,,,,,,,,,,,,,
080907,001,2022-11-20_20h50.49.810,Info_measure_main_exp,2022.2.2,Win32,60.0276127,,,,,,,,,,,,,,,,,,masks/mask_004.jpg,,,,,,,,,,,,,,,,,,,,,,,,,,,,,,,,,,,,,,,,,,,0,0,0,3,1,,,,,,,,,,,,,,,,,,,,,,,,,,,,,,,,,,,,,,,,,,,,,,
080907,001,2022-11-20_20h50.49.810,Info_measure_main_exp,2022.2.2,Win32,60.0276127,,,,,,,,,,,,,,,,,,masks/mask_005.jpg,,,,,,,,,,,,,,,,,,,,,,,,,,,,,,,,,,,,,,,,,,,0,1,1,4,1,,,,,,,,,,,,,,,,,,,,,,,,,,,,,,,,,,,,,,,,,,,,,,
080907,001,2022-11-20_20h50.49.810,Info_measure_main_exp,2022.2.2,Win32,60.0276127,,,,,,,,,,,,,,,,,,masks/mask_003.jpg,,,,,,,,,,,,,,,,,,,,,,,,,,,,,,,,,,,,,,,,,,,0,2,2,2,1,,,,,,,,,,,,,,,,,,,,,,,,,,,,,,,,,,,,,,,,,,,,,,
080907,001,2022-11-20_20h50.49.810,Info_measure_main_exp,2022.2.2,Win32,60.0276127,,,,,,,,,,,,,,,,,,masks/mask_002.jpg,,,,,,,,,,,,,,,,,,,,,,,,,,,,,,,,,,,,,,,,,,,0,3,3,1,1,,,,,,,,,,,,,,,,,,,,,,,,,,,,,,,,,,,,,,,,,,,,,,
080907,001,2022-11-20_20h50.49.810,Info_measure_main_exp,2022.2.2,Win32,60.0276127,,,,,,,,,,,,,,,,,,masks/mask_001.jpg,,,,,,,,,,,,,,,,,,,,,,,,,,,,,,,,,,,,,,,,,,,0,4,4,0,1,,,,,,,,,,,,,,,,,,,,,,,,,,,,,,,,,,,,,,,,,,,,,,
080907,001,2022-11-20_20h50.49.810,Info_measure_main_exp,2022.2.2,Win32,60.0276127,,,,,,,,,,,,,,,,,,masks/mask_001.jpg,,,,,,,,,,,,,,,,,,,,,,,,,,,,,,,,,,,,,,,,,,,,,,,,0,0,0,0,1,,,,,,,,,,,,,,,,,,,,,,,,,,,,,,,,,,,,,,,,,
080907,001,2022-11-20_20h50.49.810,Info_measure_main_exp,2022.2.2,Win32,60.0276127,,,,,,,,,,,,,,,,,,masks/mask_003.jpg,,,,,,,,,,,,,,,,,,,,,,,,,,,,,,,,,,,,,,,,,,,,,,,,0,1,1,2,1,,,,,,,,,,,,,,,,,,,,,,,,,,,,,,,,,,,,,,,,,
080907,001,2022-11-20_20h50.49.810,Info_measure_main_exp,2022.2.2,Win32,60.0276127,,,,,,,,,,,,,,,,,,masks/mask_002.jpg,,,,,,,,,,,,,,,,,,,,,,,,,,,,,,,,,,,,,,,,,,,,,,,,0,2,2,1,1,,,,,,,,,,,,,,,,,,,,,,,,,,,,,,,,,,,,,,,,,
080907,001,2022-11-20_20h50.49.810,Info_measure_main_exp,2022.2.2,Win32,60.0276127,,,,,,,,,,,,,,,,,,masks/mask_004.jpg,,,,,,,,,,,,,,,,,,,,,,,,,,,,,,,,,,,,,,,,,,,,,,,,0,3,3,3,1,,,,,,,,,,,,,,,,,,,,,,,,,,,,,,,,,,,,,,,,,
080907,001,2022-11-20_20h50.49.810,Info_measure_main_exp,2022.2.2,Win32,60.0276127,,,,,,,,,,,,,,,,,,masks/mask_005.jpg,,,,,,,,,,,,,,,,,,,,,,,,,,,,,,,,,,,,,,,,,,,,,,,,0,4,4,4,1,,,,,,,,,,,,,,,,,,,,,,,,,,,,,,,,,,,,,,,,,
080907,001,2022-11-20_20h50.49.810,Info_measure_main_exp,2022.2.2,Win32,60.0276127,,,,,,,,,,,,,,,,,,,,,,,,,,,,,,7,0.8487,1,,,,,,,,,,,,0,131,5,5,1974,2166,absent_patch/patch0001974.jpg,absent_patch/patch0002166.jpg,,,,,,,,,,,,,,,,,,,,0.071296339,0.086111104,1,0,0,response1disk,24,0.012037065,0.000925912,1,0,0,center_square,0,23,23,77,1,,,,,,,,,,,,,,,,,,,,,,,
080907,001,2022-11-20_20h50.49.810,Info_measure_main_exp,2022.2.2,Win32,60.0276127,,,,,,,,,,,,,,,,,,masks/mask_004.jpg,,,,,,,,,,,,,,,,,,,,,,,,,,,,,,,,,,,,,,,,,,,0,0,0,3,1,,,,,,,,,,,,,,,,,,,,,,,,,,,,,,,,,,,,,,,,,,,,,,
080907,001,2022-11-20_20h50.49.810,Info_measure_main_exp,2022.2.2,Win32,60.0276127,,,,,,,,,,,,,,,,,,masks/mask_002.jpg,,,,,,,,,,,,,,,,,,,,,,,,,,,,,,,,,,,,,,,,,,,0,1,1,1,1,,,,,,,,,,,,,,,,,,,,,,,,,,,,,,,,,,,,,,,,,,,,,,
080907,001,2022-11-20_20h50.49.810,Info_measure_main_exp,2022.2.2,Win32,60.0276127,,,,,,,,,,,,,,,,,,masks/mask_003.jpg,,,,,,,,,,,,,,,,,,,,,,,,,,,,,,,,,,,,,,,,,,,0,2,2,2,1,,,,,,,,,,,,,,,,,,,,,,,,,,,,,,,,,,,,,,,,,,,,,,
080907,001,2022-11-20_20h50.49.810,Info_measure_main_exp,2022.2.2,Win32,60.0276127,,,,,,,,,,,,,,,,,,masks/mask_001.jpg,,,,,,,,,,,,,,,,,,,,,,,,,,,,,,,,,,,,,,,,,,,0,3,3,0,1,,,,,,,,,,,,,,,,,,,,,,,,,,,,,,,,,,,,,,,,,,,,,,
080907,001,2022-11-20_20h50.49.810,Info_measure_main_exp,2022.2.2,Win32,60.0276127,,,,,,,,,,,,,,,,,,masks/mask_005.jpg,,,,,,,,,,,,,,,,,,,,,,,,,,,,,,,,,,,,,,,,,,,0,4,4,4,1,,,,,,,,,,,,,,,,,,,,,,,,,,,,,,,,,,,,,,,,,,,,,,
080907,001,2022-11-20_20h50.49.810,Info_measure_main_exp,2022.2.2,Win32,60.0276127,,,,,,,,,,,,,,,,,,masks/mask_002.jpg,,,,,,,,,,,,,,,,,,,,,,,,,,,,,,,,,,,,,,,,,,,,,,,,0,0,0,1,1,,,,,,,,,,,,,,,,,,,,,,,,,,,,,,,,,,,,,,,,,
080907,001,2022-11-20_20h50.49.810,Info_measure_main_exp,2022.2.2,Win32,60.0276127,,,,,,,,,,,,,,,,,,masks/mask_004.jpg,,,,,,,,,,,,,,,,,,,,,,,,,,,,,,,,,,,,,,,,,,,,,,,,0,1,1,3,1,,,,,,,,,,,,,,,,,,,,,,,,,,,,,,,,,,,,,,,,,
080907,001,2022-11-20_20h50.49.810,Info_measure_main_exp,2022.2.2,Win32,60.0276127,,,,,,,,,,,,,,,,,,masks/mask_003.jpg,,,,,,,,,,,,,,,,,,,,,,,,,,,,,,,,,,,,,,,,,,,,,,,,0,2,2,2,1,,,,,,,,,,,,,,,,,,,,,,,,,,,,,,,,,,,,,,,,,
080907,001,2022-11-20_20h50.49.810,Info_measure_main_exp,2022.2.2,Win32,60.0276127,,,,,,,,,,,,,,,,,,masks/mask_005.jpg,,,,,,,,,,,,,,,,,,,,,,,,,,,,,,,,,,,,,,,,,,,,,,,,0,3,3,4,1,,,,,,,,,,,,,,,,,,,,,,,,,,,,,,,,,,,,,,,,,
080907,001,2022-11-20_20h50.49.810,Info_measure_main_exp,2022.2.2,Win32,60.0276127,,,,,,,,,,,,,,,,,,masks/mask_001.jpg,,,,,,,,,,,,,,,,,,,,,,,,,,,,,,,,,,,,,,,,,,,,,,,,0,4,4,0,1,,,,,,,,,,,,,,,,,,,,,,,,,,,,,,,,,,,,,,,,,
080907,001,2022-11-20_20h50.49.810,Info_measure_main_exp,2022.2.2,Win32,60.0276127,,,,,,,,,,,,,,,,,,,,,,,,,,,,,,1,1.7157,1,,,,,,,,,,,,1,131,5,5,1,2154,present_patch/cong_131_5_a.jpg,absent_patch/patch0002154.jpg,,,,,,,,,,,,,,,,,,,,-0.095370328,0.038888896,1,0,0,response7disk,25,0.007407436,0.000925912,1,0,0,center_square,0,24,24,87,1,,,,,,,,,,,,,,,,,,,,,,,
080907,001,2022-11-20_20h50.49.810,Info_measure_main_exp,2022.2.2,Win32,60.0276127,,,,,,,,,,,,,,,,,,masks/mask_002.jpg,,,,,,,,,,,,,,,,,,,,,,,,,,,,,,,,,,,,,,,,,,,0,0,0,1,1,,,,,,,,,,,,,,,,,,,,,,,,,,,,,,,,,,,,,,,,,,,,,,
080907,001,2022-11-20_20h50.49.810,Info_measure_main_exp,2022.2.2,Win32,60.0276127,,,,,,,,,,,,,,,,,,masks/mask_005.jpg,,,,,,,,,,,,,,,,,,,,,,,,,,,,,,,,,,,,,,,,,,,0,1,1,4,1,,,,,,,,,,,,,,,,,,,,,,,,,,,,,,,,,,,,,,,,,,,,,,
080907,001,2022-11-20_20h50.49.810,Info_measure_main_exp,2022.2.2,Win32,60.0276127,,,,,,,,,,,,,,,,,,masks/mask_004.jpg,,,,,,,,,,,,,,,,,,,,,,,,,,,,,,,,,,,,,,,,,,,0,2,2,3,1,,,,,,,,,,,,,,,,,,,,,,,,,,,,,,,,,,,,,,,,,,,,,,
080907,001,2022-11-20_20h50.49.810,Info_measure_main_exp,2022.2.2,Win32,60.0276127,,,,,,,,,,,,,,,,,,masks/mask_001.jpg,,,,,,,,,,,,,,,,,,,,,,,,,,,,,,,,,,,,,,,,,,,0,3,3,0,1,,,,,,,,,,,,,,,,,,,,,,,,,,,,,,,,,,,,,,,,,,,,,,
080907,001,2022-11-20_20h50.49.810,Info_measure_main_exp,2022.2.2,Win32,60.0276127,,,,,,,,,,,,,,,,,,masks/mask_003.jpg,,,,,,,,,,,,,,,,,,,,,,,,,,,,,,,,,,,,,,,,,,,0,4,4,2,1,,,,,,,,,,,,,,,,,,,,,,,,,,,,,,,,,,,,,,,,,,,,,,
080907,001,2022-11-20_20h50.49.810,Info_measure_main_exp,2022.2.2,Win32,60.0276127,,,,,,,,,,,,,,,,,,masks/mask_003.jpg,,,,,,,,,,,,,,,,,,,,,,,,,,,,,,,,,,,,,,,,,,,,,,,,0,0,0,2,1,,,,,,,,,,,,,,,,,,,,,,,,,,,,,,,,,,,,,,,,,
080907,001,2022-11-20_20h50.49.810,Info_measure_main_exp,2022.2.2,Win32,60.0276127,,,,,,,,,,,,,,,,,,masks/mask_004.jpg,,,,,,,,,,,,,,,,,,,,,,,,,,,,,,,,,,,,,,,,,,,,,,,,0,1,1,3,1,,,,,,,,,,,,,,,,,,,,,,,,,,,,,,,,,,,,,,,,,
080907,001,2022-11-20_20h50.49.810,Info_measure_main_exp,2022.2.2,Win32,60.0276127,,,,,,,,,,,,,,,,,,masks/mask_002.jpg,,,,,,,,,,,,,,,,,,,,,,,,,,,,,,,,,,,,,,,,,,,,,,,,0,2,2,1,1,,,,,,,,,,,,,,,,,,,,,,,,,,,,,,,,,,,,,,,,,
080907,001,2022-11-20_20h50.49.810,Info_measure_main_exp,2022.2.2,Win32,60.0276127,,,,,,,,,,,,,,,,,,masks/mask_001.jpg,,,,,,,,,,,,,,,,,,,,,,,,,,,,,,,,,,,,,,,,,,,,,,,,0,3,3,0,1,,,,,,,,,,,,,,,,,,,,,,,,,,,,,,,,,,,,,,,,,
080907,001,2022-11-20_20h50.49.810,Info_measure_main_exp,2022.2.2,Win32,60.0276127,,,,,,,,,,,,,,,,,,masks/mask_005.jpg,,,,,,,,,,,,,,,,,,,,,,,,,,,,,,,,,,,,,,,,,,,,,,,,0,4,4,4,1,,,,,,,,,,,,,,,,,,,,,,,,,,,,,,,,,,,,,,,,,
080907,001,2022-11-20_20h50.49.810,Info_measure_main_exp,2022.2.2,Win32,60.0276127,,,,,,,,,,,,,,,,,,,,,,,,,,,,,,3,1.383,1,,,,,,,,,,,,0,131,5,5,2178,1986,absent_patch/patch0002178.jpg,absent_patch/patch0001986.jpg,,,,,,,,,,,,,,,,,,,,-0.032407407,-0.123148176,1,0,0,response5disk,26,0.001851894,0.011111118,1,0,0,center_square,0,25,25,46,1,,,,,,,,,,,,,,,,,,,,,,,
080907,001,2022-11-20_20h50.49.810,Info_measure_main_exp,2022.2.2,Win32,60.0276127,,,,,,,,,,,,,,,,,,masks/mask_004.jpg,,,,,,,,,,,,,,,,,,,,,,,,,,,,,,,,,,,,,,,,,,,0,0,0,3,1,,,,,,,,,,,,,,,,,,,,,,,,,,,,,,,,,,,,,,,,,,,,,,
080907,001,2022-11-20_20h50.49.810,Info_measure_main_exp,2022.2.2,Win32,60.0276127,,,,,,,,,,,,,,,,,,masks/mask_001.jpg,,,,,,,,,,,,,,,,,,,,,,,,,,,,,,,,,,,,,,,,,,,0,1,1,0,1,,,,,,,,,,,,,,,,,,,,,,,,,,,,,,,,,,,,,,,,,,,,,,
080907,001,2022-11-20_20h50.49.810,Info_measure_main_exp,2022.2.2,Win32,60.0276127,,,,,,,,,,,,,,,,,,masks/mask_005.jpg,,,,,,,,,,,,,,,,,,,,,,,,,,,,,,,,,,,,,,,,,,,0,2,2,4,1,,,,,,,,,,,,,,,,,,,,,,,,,,,,,,,,,,,,,,,,,,,,,,
080907,001,2022-11-20_20h50.49.810,Info_measure_main_exp,2022.2.2,Win32,60.0276127,,,,,,,,,,,,,,,,,,masks/mask_003.jpg,,,,,,,,,,,,,,,,,,,,,,,,,,,,,,,,,,,,,,,,,,,0,3,3,2,1,,,,,,,,,,,,,,,,,,,,,,,,,,,,,,,,,,,,,,,,,,,,,,
080907,001,2022-11-20_20h50.49.810,Info_measure_main_exp,2022.2.2,Win32,60.0276127,,,,,,,,,,,,,,,,,,masks/mask_002.jpg,,,,,,,,,,,,,,,,,,,,,,,,,,,,,,,,,,,,,,,,,,,0,4,4,1,1,,,,,,,,,,,,,,,,,,,,,,,,,,,,,,,,,,,,,,,,,,,,,,
080907,001,2022-11-20_20h50.49.810,Info_measure_main_exp,2022.2.2,Win32,60.0276127,,,,,,,,,,,,,,,,,,masks/mask_002.jpg,,,,,,,,,,,,,,,,,,,,,,,,,,,,,,,,,,,,,,,,,,,,,,,,0,0,0,1,1,,,,,,,,,,,,,,,,,,,,,,,,,,,,,,,,,,,,,,,,,
080907,001,2022-11-20_20h50.49.810,Info_measure_main_exp,2022.2.2,Win32,60.0276127,,,,,,,,,,,,,,,,,,masks/mask_001.jpg,,,,,,,,,,,,,,,,,,,,,,,,,,,,,,,,,,,,,,,,,,,,,,,,0,1,1,0,1,,,,,,,,,,,,,,,,,,,,,,,,,,,,,,,,,,,,,,,,,
080907,001,2022-11-20_20h50.49.810,Info_measure_main_exp,2022.2.2,Win32,60.0276127,,,,,,,,,,,,,,,,,,masks/mask_004.jpg,,,,,,,,,,,,,,,,,,,,,,,,,,,,,,,,,,,,,,,,,,,,,,,,0,2,2,3,1,,,,,,,,,,,,,,,,,,,,,,,,,,,,,,,,,,,,,,,,,
080907,001,2022-11-20_20h50.49.810,Info_measure_main_exp,2022.2.2,Win32,60.0276127,,,,,,,,,,,,,,,,,,masks/mask_003.jpg,,,,,,,,,,,,,,,,,,,,,,,,,,,,,,,,,,,,,,,,,,,,,,,,0,3,3,2,1,,,,,,,,,,,,,,,,,,,,,,,,,,,,,,,,,,,,,,,,,
080907,001,2022-11-20_20h50.49.810,Info_measure_main_exp,2022.2.2,Win32,60.0276127,,,,,,,,,,,,,,,,,,masks/mask_005.jpg,,,,,,,,,,,,,,,,,,,,,,,,,,,,,,,,,,,,,,,,,,,,,,,,0,4,4,4,1,,,,,,,,,,,,,,,,,,,,,,,,,,,,,,,,,,,,,,,,,
080907,001,2022-11-20_20h50.49.810,Info_measure_main_exp,2022.2.2,Win32,60.0276127,,,,,,,,,,,,,,,,,,,,,,,,,,,,,,7,0.9855,1,,,,,,,,,,,,0,131,5,5,2082,1986,absent_patch/patch0002082.jpg,absent_patch/patch0001986.jpg,,,,,,,,,,,,,,,,,,,,0.027777778,0.081481474,1,0,0,response1disk,27,-0.000925912,-0.000925947,1,0,0,center_square,0,26,26,94,1,,,,,,,,,,,,,,,,,,,,,,,
080907,001,2022-11-20_20h50.49.810,Info_measure_main_exp,2022.2.2,Win32,60.0276127,,,,,,,,,,,,,,,,,,masks/mask_003.jpg,,,,,,,,,,,,,,,,,,,,,,,,,,,,,,,,,,,,,,,,,,,0,0,0,2,1,,,,,,,,,,,,,,,,,,,,,,,,,,,,,,,,,,,,,,,,,,,,,,
080907,001,2022-11-20_20h50.49.810,Info_measure_main_exp,2022.2.2,Win32,60.0276127,,,,,,,,,,,,,,,,,,masks/mask_002.jpg,,,,,,,,,,,,,,,,,,,,,,,,,,,,,,,,,,,,,,,,,,,0,1,1,1,1,,,,,,,,,,,,,,,,,,,,,,,,,,,,,,,,,,,,,,,,,,,,,,
080907,001,2022-11-20_20h50.49.810,Info_measure_main_exp,2022.2.2,Win32,60.0276127,,,,,,,,,,,,,,,,,,masks/mask_001.jpg,,,,,,,,,,,,,,,,,,,,,,,,,,,,,,,,,,,,,,,,,,,0,2,2,0,1,,,,,,,,,,,,,,,,,,,,,,,,,,,,,,,,,,,,,,,,,,,,,,
080907,001,2022-11-20_20h50.49.810,Info_measure_main_exp,2022.2.2,Win32,60.0276127,,,,,,,,,,,,,,,,,,masks/mask_004.jpg,,,,,,,,,,,,,,,,,,,,,,,,,,,,,,,,,,,,,,,,,,,0,3,3,3,1,,,,,,,,,,,,,,,,,,,,,,,,,,,,,,,,,,,,,,,,,,,,,,
080907,001,2022-11-20_20h50.49.810,Info_measure_main_exp,2022.2.2,Win32,60.0276127,,,,,,,,,,,,,,,,,,masks/mask_005.jpg,,,,,,,,,,,,,,,,,,,,,,,,,,,,,,,,,,,,,,,,,,,0,4,4,4,1,,,,,,,,,,,,,,,,,,,,,,,,,,,,,,,,,,,,,,,,,,,,,,
080907,001,2022-11-20_20h50.49.810,Info_measure_main_exp,2022.2.2,Win32,60.0276127,,,,,,,,,,,,,,,,,,masks/mask_005.jpg,,,,,,,,,,,,,,,,,,,,,,,,,,,,,,,,,,,,,,,,,,,,,,,,0,0,0,4,1,,,,,,,,,,,,,,,,,,,,,,,,,,,,,,,,,,,,,,,,,
080907,001,2022-11-20_20h50.49.810,Info_measure_main_exp,2022.2.2,Win32,60.0276127,,,,,,,,,,,,,,,,,,masks/mask_003.jpg,,,,,,,,,,,,,,,,,,,,,,,,,,,,,,,,,,,,,,,,,,,,,,,,0,1,1,2,1,,,,,,,,,,,,,,,,,,,,,,,,,,,,,,,,,,,,,,,,,
080907,001,2022-11-20_20h50.49.810,Info_measure_main_exp,2022.2.2,Win32,60.0276127,,,,,,,,,,,,,,,,,,masks/mask_002.jpg,,,,,,,,,,,,,,,,,,,,,,,,,,,,,,,,,,,,,,,,,,,,,,,,0,2,2,1,1,,,,,,,,,,,,,,,,,,,,,,,,,,,,,,,,,,,,,,,,,
080907,001,2022-11-20_20h50.49.810,Info_measure_main_exp,2022.2.2,Win32,60.0276127,,,,,,,,,,,,,,,,,,masks/mask_001.jpg,,,,,,,,,,,,,,,,,,,,,,,,,,,,,,,,,,,,,,,,,,,,,,,,0,3,3,0,1,,,,,,,,,,,,,,,,,,,,,,,,,,,,,,,,,,,,,,,,,
080907,001,2022-11-20_20h50.49.810,Info_measure_main_exp,2022.2.2,Win32,60.0276127,,,,,,,,,,,,,,,,,,masks/mask_004.jpg,,,,,,,,,,,,,,,,,,,,,,,,,,,,,,,,,,,,,,,,,,,,,,,,0,4,4,3,1,,,,,,,,,,,,,,,,,,,,,,,,,,,,,,,,,,,,,,,,,
080907,001,2022-11-20_20h50.49.810,Info_measure_main_exp,2022.2.2,Win32,60.0276127,,,,,,,,,,,,,,,,,,,,,,,,,,,,,,2,1.1825,1,,,,,,,,,,,,0,131,5,5,1974,2178,absent_patch/patch0001974.jpg,absent_patch/patch0002178.jpg,,,,,,,,,,,,,,,,,,,,-0.089814787,-0.018518519,1,0,0,response5disk,28,0,0.003703683,1,0,0,center_square,0,27,27,44,1,,,,,,,,,,,,,,,,,,,,,,,
080907,001,2022-11-20_20h50.49.810,Info_measure_main_exp,2022.2.2,Win32,60.0276127,,,,,,,,,,,,,,,,,,masks/mask_005.jpg,,,,,,,,,,,,,,,,,,,,,,,,,,,,,,,,,,,,,,,,,,,0,0,0,4,1,,,,,,,,,,,,,,,,,,,,,,,,,,,,,,,,,,,,,,,,,,,,,,
080907,001,2022-11-20_20h50.49.810,Info_measure_main_exp,2022.2.2,Win32,60.0276127,,,,,,,,,,,,,,,,,,masks/mask_003.jpg,,,,,,,,,,,,,,,,,,,,,,,,,,,,,,,,,,,,,,,,,,,0,1,1,2,1,,,,,,,,,,,,,,,,,,,,,,,,,,,,,,,,,,,,,,,,,,,,,,
080907,001,2022-11-20_20h50.49.810,Info_measure_main_exp,2022.2.2,Win32,60.0276127,,,,,,,,,,,,,,,,,,masks/mask_002.jpg,,,,,,,,,,,,,,,,,,,,,,,,,,,,,,,,,,,,,,,,,,,0,2,2,1,1,,,,,,,,,,,,,,,,,,,,,,,,,,,,,,,,,,,,,,,,,,,,,,
080907,001,2022-11-20_20h50.49.810,Info_measure_main_exp,2022.2.2,Win32,60.0276127,,,,,,,,,,,,,,,,,,masks/mask_001.jpg,,,,,,,,,,,,,,,,,,,,,,,,,,,,,,,,,,,,,,,,,,,0,3,3,0,1,,,,,,,,,,,,,,,,,,,,,,,,,,,,,,,,,,,,,,,,,,,,,,
080907,001,2022-11-20_20h50.49.810,Info_measure_main_exp,2022.2.2,Win32,60.0276127,,,,,,,,,,,,,,,,,,masks/mask_004.jpg,,,,,,,,,,,,,,,,,,,,,,,,,,,,,,,,,,,,,,,,,,,0,4,4,3,1,,,,,,,,,,,,,,,,,,,,,,,,,,,,,,,,,,,,,,,,,,,,,,
080907,001,2022-11-20_20h50.49.810,Info_measure_main_exp,2022.2.2,Win32,60.0276127,,,,,,,,,,,,,,,,,,masks/mask_001.jpg,,,,,,,,,,,,,,,,,,,,,,,,,,,,,,,,,,,,,,,,,,,,,,,,0,0,0,0,1,,,,,,,,,,,,,,,,,,,,,,,,,,,,,,,,,,,,,,,,,
080907,001,2022-11-20_20h50.49.810,Info_measure_main_exp,2022.2.2,Win32,60.0276127,,,,,,,,,,,,,,,,,,masks/mask_005.jpg,,,,,,,,,,,,,,,,,,,,,,,,,,,,,,,,,,,,,,,,,,,,,,,,0,1,1,4,1,,,,,,,,,,,,,,,,,,,,,,,,,,,,,,,,,,,,,,,,,
080907,001,2022-11-20_20h50.49.810,Info_measure_main_exp,2022.2.2,Win32,60.0276127,,,,,,,,,,,,,,,,,,masks/mask_004.jpg,,,,,,,,,,,,,,,,,,,,,,,,,,,,,,,,,,,,,,,,,,,,,,,,0,2,2,3,1,,,,,,,,,,,,,,,,,,,,,,,,,,,,,,,,,,,,,,,,,
080907,001,2022-11-20_20h50.49.810,Info_measure_main_exp,2022.2.2,Win32,60.0276127,,,,,,,,,,,,,,,,,,masks/mask_003.jpg,,,,,,,,,,,,,,,,,,,,,,,,,,,,,,,,,,,,,,,,,,,,,,,,0,3,3,2,1,,,,,,,,,,,,,,,,,,,,,,,,,,,,,,,,,,,,,,,,,
080907,001,2022-11-20_20h50.49.810,Info_measure_main_exp,2022.2.2,Win32,60.0276127,,,,,,,,,,,,,,,,,,masks/mask_002.jpg,,,,,,,,,,,,,,,,,,,,,,,,,,,,,,,,,,,,,,,,,,,,,,,,0,4,4,1,1,,,,,,,,,,,,,,,,,,,,,,,,,,,,,,,,,,,,,,,,,
080907,001,2022-11-20_20h50.49.810,Info_measure_main_exp,2022.2.2,Win32,60.0276127,,,,,,,,,,,,,,,,,,,,,,,,,,,,,,6,1.4992,1,,,,,,,,,,,,0,131,5,5,2082,2154,absent_patch/patch0002082.jpg,absent_patch/patch0002154.jpg,,,,,,,,,,,,,,,,,,,,0.085185228,0.025925919,1,0,0,response1disk,29,0,-0.001851859,1,0,0,center_square,0,28,28,33,1,,,,,,,,,,,,,,,,,,,,,,,
080907,001,2022-11-20_20h50.49.810,Info_measure_main_exp,2022.2.2,Win32,60.0276127,,,,,,,,,,,,,,,,,,masks/mask_001.jpg,,,,,,,,,,,,,,,,,,,,,,,,,,,,,,,,,,,,,,,,,,,0,0,0,0,1,,,,,,,,,,,,,,,,,,,,,,,,,,,,,,,,,,,,,,,,,,,,,,
080907,001,2022-11-20_20h50.49.810,Info_measure_main_exp,2022.2.2,Win32,60.0276127,,,,,,,,,,,,,,,,,,masks/mask_004.jpg,,,,,,,,,,,,,,,,,,,,,,,,,,,,,,,,,,,,,,,,,,,0,1,1,3,1,,,,,,,,,,,,,,,,,,,,,,,,,,,,,,,,,,,,,,,,,,,,,,
080907,001,2022-11-20_20h50.49.810,Info_measure_main_exp,2022.2.2,Win32,60.0276127,,,,,,,,,,,,,,,,,,masks/mask_003.jpg,,,,,,,,,,,,,,,,,,,,,,,,,,,,,,,,,,,,,,,,,,,0,2,2,2,1,,,,,,,,,,,,,,,,,,,,,,,,,,,,,,,,,,,,,,,,,,,,,,
080907,001,2022-11-20_20h50.49.810,Info_measure_main_exp,2022.2.2,Win32,60.0276127,,,,,,,,,,,,,,,,,,masks/mask_002.jpg,,,,,,,,,,,,,,,,,,,,,,,,,,,,,,,,,,,,,,,,,,,0,3,3,1,1,,,,,,,,,,,,,,,,,,,,,,,,,,,,,,,,,,,,,,,,,,,,,,
080907,001,2022-11-20_20h50.49.810,Info_measure_main_exp,2022.2.2,Win32,60.0276127,,,,,,,,,,,,,,,,,,masks/mask_005.jpg,,,,,,,,,,,,,,,,,,,,,,,,,,,,,,,,,,,,,,,,,,,0,4,4,4,1,,,,,,,,,,,,,,,,,,,,,,,,,,,,,,,,,,,,,,,,,,,,,,
080907,001,2022-11-20_20h50.49.810,Info_measure_main_exp,2022.2.2,Win32,60.0276127,,,,,,,,,,,,,,,,,,masks/mask_002.jpg,,,,,,,,,,,,,,,,,,,,,,,,,,,,,,,,,,,,,,,,,,,,,,,,0,0,0,1,1,,,,,,,,,,,,,,,,,,,,,,,,,,,,,,,,,,,,,,,,,
080907,001,2022-11-20_20h50.49.810,Info_measure_main_exp,2022.2.2,Win32,60.0276127,,,,,,,,,,,,,,,,,,masks/mask_005.jpg,,,,,,,,,,,,,,,,,,,,,,,,,,,,,,,,,,,,,,,,,,,,,,,,0,1,1,4,1,,,,,,,,,,,,,,,,,,,,,,,,,,,,,,,,,,,,,,,,,
080907,001,2022-11-20_20h50.49.810,Info_measure_main_exp,2022.2.2,Win32,60.0276127,,,,,,,,,,,,,,,,,,masks/mask_001.jpg,,,,,,,,,,,,,,,,,,,,,,,,,,,,,,,,,,,,,,,,,,,,,,,,0,2,2,0,1,,,,,,,,,,,,,,,,,,,,,,,,,,,,,,,,,,,,,,,,,
080907,001,2022-11-20_20h50.49.810,Info_measure_main_exp,2022.2.2,Win32,60.0276127,,,,,,,,,,,,,,,,,,masks/mask_004.jpg,,,,,,,,,,,,,,,,,,,,,,,,,,,,,,,,,,,,,,,,,,,,,,,,0,3,3,3,1,,,,,,,,,,,,,,,,,,,,,,,,,,,,,,,,,,,,,,,,,
080907,001,2022-11-20_20h50.49.810,Info_measure_main_exp,2022.2.2,Win32,60.0276127,,,,,,,,,,,,,,,,,,masks/mask_003.jpg,,,,,,,,,,,,,,,,,,,,,,,,,,,,,,,,,,,,,,,,,,,,,,,,0,4,4,2,1,,,,,,,,,,,,,,,,,,,,,,,,,,,,,,,,,,,,,,,,,
080907,001,2022-11-20_20h50.49.810,Info_measure_main_exp,2022.2.2,Win32,60.0276127,,,,,,,,,,,,,,,,,,,,,,,,,,,,,,4,1.9156,1,,,,,,,,,,,,0,131,5,5,2190,2082,absent_patch/patch0002190.jpg,absent_patch/patch0002082.jpg,,,,,,,,,,,,,,,,,,,,0.033333319,-0.138888889,1,0,0,response3disk,30,0.002777806,0.000925912,1,0,0,center_square,0,29,29,112,1,,,,,,,,,,,,,,,,,,,,,,,
080907,001,2022-11-20_20h50.49.810,Info_measure_main_exp,2022.2.2,Win32,60.0276127,,,,,,,,,,,,,,,,,,masks/mask_002.jpg,,,,,,,,,,,,,,,,,,,,,,,,,,,,,,,,,,,,,,,,,,,0,0,0,1,1,,,,,,,,,,,,,,,,,,,,,,,,,,,,,,,,,,,,,,,,,,,,,,
080907,001,2022-11-20_20h50.49.810,Info_measure_main_exp,2022.2.2,Win32,60.0276127,,,,,,,,,,,,,,,,,,masks/mask_003.jpg,,,,,,,,,,,,,,,,,,,,,,,,,,,,,,,,,,,,,,,,,,,0,1,1,2,1,,,,,,,,,,,,,,,,,,,,,,,,,,,,,,,,,,,,,,,,,,,,,,
080907,001,2022-11-20_20h50.49.810,Info_measure_main_exp,2022.2.2,Win32,60.0276127,,,,,,,,,,,,,,,,,,masks/mask_004.jpg,,,,,,,,,,,,,,,,,,,,,,,,,,,,,,,,,,,,,,,,,,,0,2,2,3,1,,,,,,,,,,,,,,,,,,,,,,,,,,,,,,,,,,,,,,,,,,,,,,
080907,001,2022-11-20_20h50.49.810,Info_measure_main_exp,2022.2.2,Win32,60.0276127,,,,,,,,,,,,,,,,,,masks/mask_005.jpg,,,,,,,,,,,,,,,,,,,,,,,,,,,,,,,,,,,,,,,,,,,0,3,3,4,1,,,,,,,,,,,,,,,,,,,,,,,,,,,,,,,,,,,,,,,,,,,,,,
080907,001,2022-11-20_20h50.49.810,Info_measure_main_exp,2022.2.2,Win32,60.0276127,,,,,,,,,,,,,,,,,,masks/mask_001.jpg,,,,,,,,,,,,,,,,,,,,,,,,,,,,,,,,,,,,,,,,,,,0,4,4,0,1,,,,,,,,,,,,,,,,,,,,,,,,,,,,,,,,,,,,,,,,,,,,,,
080907,001,2022-11-20_20h50.49.810,Info_measure_main_exp,2022.2.2,Win32,60.0276127,,,,,,,,,,,,,,,,,,masks/mask_001.jpg,,,,,,,,,,,,,,,,,,,,,,,,,,,,,,,,,,,,,,,,,,,,,,,,0,0,0,0,1,,,,,,,,,,,,,,,,,,,,,,,,,,,,,,,,,,,,,,,,,
080907,001,2022-11-20_20h50.49.810,Info_measure_main_exp,2022.2.2,Win32,60.0276127,,,,,,,,,,,,,,,,,,masks/mask_004.jpg,,,,,,,,,,,,,,,,,,,,,,,,,,,,,,,,,,,,,,,,,,,,,,,,0,1,1,3,1,,,,,,,,,,,,,,,,,,,,,,,,,,,,,,,,,,,,,,,,,
080907,001,2022-11-20_20h50.49.810,Info_measure_main_exp,2022.2.2,Win32,60.0276127,,,,,,,,,,,,,,,,,,masks/mask_005.jpg,,,,,,,,,,,,,,,,,,,,,,,,,,,,,,,,,,,,,,,,,,,,,,,,0,2,2,4,1,,,,,,,,,,,,,,,,,,,,,,,,,,,,,,,,,,,,,,,,,
080907,001,2022-11-20_20h50.49.810,Info_measure_main_exp,2022.2.2,Win32,60.0276127,,,,,,,,,,,,,,,,,,masks/mask_003.jpg,,,,,,,,,,,,,,,,,,,,,,,,,,,,,,,,,,,,,,,,,,,,,,,,0,3,3,2,1,,,,,,,,,,,,,,,,,,,,,,,,,,,,,,,,,,,,,,,,,
080907,001,2022-11-20_20h50.49.810,Info_measure_main_exp,2022.2.2,Win32,60.0276127,,,,,,,,,,,,,,,,,,masks/mask_002.jpg,,,,,,,,,,,,,,,,,,,,,,,,,,,,,,,,,,,,,,,,,,,,,,,,0,4,4,1,1,,,,,,,,,,,,,,,,,,,,,,,,,,,,,,,,,,,,,,,,,
080907,001,2022-11-20_20h50.49.810,Info_measure_main_exp,2022.2.2,Win32,60.0276127,,,,,,,,,,,,,,,,,,,,,,,,,,,,,,3,2.0158,1,,,,,,,,,,,,0,131,5,5,2190,1974,absent_patch/patch0002190.jpg,absent_patch/patch0001974.jpg,,,,,,,,,,,,,,,,,,,,-0.047222208,-0.10092594,1,0,0,response5disk,31,-0.012962977,-0.005555577,1,0,0,center_square,0,30,30,119,1,,,,,,,,,,,,,,,,,,,,,,,
080907,001,2022-11-20_20h50.49.810,Info_measure_main_exp,2022.2.2,Win32,60.0276127,,,,,,,,,,,,,,,,,,masks/mask_001.jpg,,,,,,,,,,,,,,,,,,,,,,,,,,,,,,,,,,,,,,,,,,,0,0,0,0,1,,,,,,,,,,,,,,,,,,,,,,,,,,,,,,,,,,,,,,,,,,,,,,
080907,001,2022-11-20_20h50.49.810,Info_measure_main_exp,2022.2.2,Win32,60.0276127,,,,,,,,,,,,,,,,,,masks/mask_004.jpg,,,,,,,,,,,,,,,,,,,,,,,,,,,,,,,,,,,,,,,,,,,0,1,1,3,1,,,,,,,,,,,,,,,,,,,,,,,,,,,,,,,,,,,,,,,,,,,,,,
080907,001,2022-11-20_20h50.49.810,Info_measure_main_exp,2022.2.2,Win32,60.0276127,,,,,,,,,,,,,,,,,,masks/mask_005.jpg,,,,,,,,,,,,,,,,,,,,,,,,,,,,,,,,,,,,,,,,,,,0,2,2,4,1,,,,,,,,,,,,,,,,,,,,,,,,,,,,,,,,,,,,,,,,,,,,,,
080907,001,2022-11-20_20h50.49.810,Info_measure_main_exp,2022.2.2,Win32,60.0276127,,,,,,,,,,,,,,,,,,masks/mask_002.jpg,,,,,,,,,,,,,,,,,,,,,,,,,,,,,,,,,,,,,,,,,,,0,3,3,1,1,,,,,,,,,,,,,,,,,,,,,,,,,,,,,,,,,,,,,,,,,,,,,,
080907,001,2022-11-20_20h50.49.810,Info_measure_main_exp,2022.2.2,Win32,60.0276127,,,,,,,,,,,,,,,,,,masks/mask_003.jpg,,,,,,,,,,,,,,,,,,,,,,,,,,,,,,,,,,,,,,,,,,,0,4,4,2,1,,,,,,,,,,,,,,,,,,,,,,,,,,,,,,,,,,,,,,,,,,,,,,
080907,001,2022-11-20_20h50.49.810,Info_measure_main_exp,2022.2.2,Win32,60.0276127,,,,,,,,,,,,,,,,,,masks/mask_005.jpg,,,,,,,,,,,,,,,,,,,,,,,,,,,,,,,,,,,,,,,,,,,,,,,,0,0,0,4,1,,,,,,,,,,,,,,,,,,,,,,,,,,,,,,,,,,,,,,,,,
080907,001,2022-11-20_20h50.49.810,Info_measure_main_exp,2022.2.2,Win32,60.0276127,,,,,,,,,,,,,,,,,,masks/mask_004.jpg,,,,,,,,,,,,,,,,,,,,,,,,,,,,,,,,,,,,,,,,,,,,,,,,0,1,1,3,1,,,,,,,,,,,,,,,,,,,,,,,,,,,,,,,,,,,,,,,,,
080907,001,2022-11-20_20h50.49.810,Info_measure_main_exp,2022.2.2,Win32,60.0276127,,,,,,,,,,,,,,,,,,masks/mask_002.jpg,,,,,,,,,,,,,,,,,,,,,,,,,,,,,,,,,,,,,,,,,,,,,,,,0,2,2,1,1,,,,,,,,,,,,,,,,,,,,,,,,,,,,,,,,,,,,,,,,,
080907,001,2022-11-20_20h50.49.810,Info_measure_main_exp,2022.2.2,Win32,60.0276127,,,,,,,,,,,,,,,,,,masks/mask_003.jpg,,,,,,,,,,,,,,,,,,,,,,,,,,,,,,,,,,,,,,,,,,,,,,,,0,3,3,2,1,,,,,,,,,,,,,,,,,,,,,,,,,,,,,,,,,,,,,,,,,
080907,001,2022-11-20_20h50.49.810,Info_measure_main_exp,2022.2.2,Win32,60.0276127,,,,,,,,,,,,,,,,,,masks/mask_001.jpg,,,,,,,,,,,,,,,,,,,,,,,,,,,,,,,,,,,,,,,,,,,,,,,,0,4,4,0,1,,,,,,,,,,,,,,,,,,,,,,,,,,,,,,,,,,,,,,,,,
080907,001,2022-11-20_20h50.49.810,Info_measure_main_exp,2022.2.2,Win32,60.0276127,,,,,,,,,,,,,,,,,,,,,,,,,,,,,,3,0.9337,1,,,,,,,,,,,,0,131,5,5,2082,2298,absent_patch/patch0002082.jpg,absent_patch/patch0002298.jpg,,,,,,,,,,,,,,,,,,,,-0.054629644,-0.119444459,1,0,0,response5disk,32,-0.002777735,-0.00462963,1,0,0,center_square,0,31,31,107,1,,,,,,,,,,,,,,,,,,,,,,,
080907,001,2022-11-20_20h50.49.810,Info_measure_main_exp,2022.2.2,Win32,60.0276127,,,,,,,,,,,,,,,,,,masks/mask_005.jpg,,,,,,,,,,,,,,,,,,,,,,,,,,,,,,,,,,,,,,,,,,,0,0,0,4,1,,,,,,,,,,,,,,,,,,,,,,,,,,,,,,,,,,,,,,,,,,,,,,
080907,001,2022-11-20_20h50.49.810,Info_measure_main_exp,2022.2.2,Win32,60.0276127,,,,,,,,,,,,,,,,,,masks/mask_004.jpg,,,,,,,,,,,,,,,,,,,,,,,,,,,,,,,,,,,,,,,,,,,0,1,1,3,1,,,,,,,,,,,,,,,,,,,,,,,,,,,,,,,,,,,,,,,,,,,,,,
080907,001,2022-11-20_20h50.49.810,Info_measure_main_exp,2022.2.2,Win32,60.0276127,,,,,,,,,,,,,,,,,,masks/mask_002.jpg,,,,,,,,,,,,,,,,,,,,,,,,,,,,,,,,,,,,,,,,,,,0,2,2,1,1,,,,,,,,,,,,,,,,,,,,,,,,,,,,,,,,,,,,,,,,,,,,,,
080907,001,2022-11-20_20h50.49.810,Info_measure_main_exp,2022.2.2,Win32,60.0276127,,,,,,,,,,,,,,,,,,masks/mask_001.jpg,,,,,,,,,,,,,,,,,,,,,,,,,,,,,,,,,,,,,,,,,,,0,3,3,0,1,,,,,,,,,,,,,,,,,,,,,,,,,,,,,,,,,,,,,,,,,,,,,,
080907,001,2022-11-20_20h50.49.810,Info_measure_main_exp,2022.2.2,Win32,60.0276127,,,,,,,,,,,,,,,,,,masks/mask_003.jpg,,,,,,,,,,,,,,,,,,,,,,,,,,,,,,,,,,,,,,,,,,,0,4,4,2,1,,,,,,,,,,,,,,,,,,,,,,,,,,,,,,,,,,,,,,,,,,,,,,
080907,001,2022-11-20_20h50.49.810,Info_measure_main_exp,2022.2.2,Win32,60.0276127,,,,,,,,,,,,,,,,,,masks/mask_005.jpg,,,,,,,,,,,,,,,,,,,,,,,,,,,,,,,,,,,,,,,,,,,,,,,,0,0,0,4,1,,,,,,,,,,,,,,,,,,,,,,,,,,,,,,,,,,,,,,,,,
080907,001,2022-11-20_20h50.49.810,Info_measure_main_exp,2022.2.2,Win32,60.0276127,,,,,,,,,,,,,,,,,,masks/mask_004.jpg,,,,,,,,,,,,,,,,,,,,,,,,,,,,,,,,,,,,,,,,,,,,,,,,0,1,1,3,1,,,,,,,,,,,,,,,,,,,,,,,,,,,,,,,,,,,,,,,,,
080907,001,2022-11-20_20h50.49.810,Info_measure_main_exp,2022.2.2,Win32,60.0276127,,,,,,,,,,,,,,,,,,masks/mask_001.jpg,,,,,,,,,,,,,,,,,,,,,,,,,,,,,,,,,,,,,,,,,,,,,,,,0,2,2,0,1,,,,,,,,,,,,,,,,,,,,,,,,,,,,,,,,,,,,,,,,,
080907,001,2022-11-20_20h50.49.810,Info_measure_main_exp,2022.2.2,Win32,60.0276127,,,,,,,,,,,,,,,,,,masks/mask_003.jpg,,,,,,,,,,,,,,,,,,,,,,,,,,,,,,,,,,,,,,,,,,,,,,,,0,3,3,2,1,,,,,,,,,,,,,,,,,,,,,,,,,,,,,,,,,,,,,,,,,
080907,001,2022-11-20_20h50.49.810,Info_measure_main_exp,2022.2.2,Win32,60.0276127,,,,,,,,,,,,,,,,,,masks/mask_002.jpg,,,,,,,,,,,,,,,,,,,,,,,,,,,,,,,,,,,,,,,,,,,,,,,,0,4,4,1,1,,,,,,,,,,,,,,,,,,,,,,,,,,,,,,,,,,,,,,,,,
080907,001,2022-11-20_20h50.49.810,Info_measure_main_exp,2022.2.2,Win32,60.0276127,,,,,,,,,,,,,,,,,,,,,,,,,,,,,,7,0.8662,1,,,,,,,,,,,,1,131,5,5,1,2214,present_patch/cong_131_5_a.jpg,absent_patch/patch0002214.jpg,,,,,,,,,,,,,,,,,,,,0.062037079,0.130555541,1,0,0,response1disk,33,0.00462963,-0.006481489,1,0,0,center_square,0,32,32,4,1,,,,,,,,,,,,,,,,,,,,,,,
080907,001,2022-11-20_20h50.49.810,Info_measure_main_exp,2022.2.2,Win32,60.0276127,,,,,,,,,,,,,,,,,,masks/mask_001.jpg,,,,,,,,,,,,,,,,,,,,,,,,,,,,,,,,,,,,,,,,,,,0,0,0,0,1,,,,,,,,,,,,,,,,,,,,,,,,,,,,,,,,,,,,,,,,,,,,,,
080907,001,2022-11-20_20h50.49.810,Info_measure_main_exp,2022.2.2,Win32,60.0276127,,,,,,,,,,,,,,,,,,masks/mask_004.jpg,,,,,,,,,,,,,,,,,,,,,,,,,,,,,,,,,,,,,,,,,,,0,1,1,3,1,,,,,,,,,,,,,,,,,,,,,,,,,,,,,,,,,,,,,,,,,,,,,,
080907,001,2022-11-20_20h50.49.810,Info_measure_main_exp,2022.2.2,Win32,60.0276127,,,,,,,,,,,,,,,,,,masks/mask_005.jpg,,,,,,,,,,,,,,,,,,,,,,,,,,,,,,,,,,,,,,,,,,,0,2,2,4,1,,,,,,,,,,,,,,,,,,,,,,,,,,,,,,,,,,,,,,,,,,,,,,
080907,001,2022-11-20_20h50.49.810,Info_measure_main_exp,2022.2.2,Win32,60.0276127,,,,,,,,,,,,,,,,,,masks/mask_002.jpg,,,,,,,,,,,,,,,,,,,,,,,,,,,,,,,,,,,,,,,,,,,0,3,3,1,1,,,,,,,,,,,,,,,,,,,,,,,,,,,,,,,,,,,,,,,,,,,,,,
080907,001,2022-11-20_20h50.49.810,Info_measure_main_exp,2022.2.2,Win32,60.0276127,,,,,,,,,,,,,,,,,,masks/mask_003.jpg,,,,,,,,,,,,,,,,,,,,,,,,,,,,,,,,,,,,,,,,,,,0,4,4,2,1,,,,,,,,,,,,,,,,,,,,,,,,,,,,,,,,,,,,,,,,,,,,,,
080907,001,2022-11-20_20h50.49.810,Info_measure_main_exp,2022.2.2,Win32,60.0276127,,,,,,,,,,,,,,,,,,masks/mask_005.jpg,,,,,,,,,,,,,,,,,,,,,,,,,,,,,,,,,,,,,,,,,,,,,,,,0,0,0,4,1,,,,,,,,,,,,,,,,,,,,,,,,,,,,,,,,,,,,,,,,,
080907,001,2022-11-20_20h50.49.810,Info_measure_main_exp,2022.2.2,Win32,60.0276127,,,,,,,,,,,,,,,,,,masks/mask_003.jpg,,,,,,,,,,,,,,,,,,,,,,,,,,,,,,,,,,,,,,,,,,,,,,,,0,1,1,2,1,,,,,,,,,,,,,,,,,,,,,,,,,,,,,,,,,,,,,,,,,
080907,001,2022-11-20_20h50.49.810,Info_measure_main_exp,2022.2.2,Win32,60.0276127,,,,,,,,,,,,,,,,,,masks/mask_002.jpg,,,,,,,,,,,,,,,,,,,,,,,,,,,,,,,,,,,,,,,,,,,,,,,,0,2,2,1,1,,,,,,,,,,,,,,,,,,,,,,,,,,,,,,,,,,,,,,,,,
080907,001,2022-11-20_20h50.49.810,Info_measure_main_exp,2022.2.2,Win32,60.0276127,,,,,,,,,,,,,,,,,,masks/mask_001.jpg,,,,,,,,,,,,,,,,,,,,,,,,,,,,,,,,,,,,,,,,,,,,,,,,0,3,3,0,1,,,,,,,,,,,,,,,,,,,,,,,,,,,,,,,,,,,,,,,,,
080907,001,2022-11-20_20h50.49.810,Info_measure_main_exp,2022.2.2,Win32,60.0276127,,,,,,,,,,,,,,,,,,masks/mask_004.jpg,,,,,,,,,,,,,,,,,,,,,,,,,,,,,,,,,,,,,,,,,,,,,,,,0,4,4,3,1,,,,,,,,,,,,,,,,,,,,,,,,,,,,,,,,,,,,,,,,,
080907,001,2022-11-20_20h50.49.810,Info_measure_main_exp,2022.2.2,Win32,60.0276127,,,,,,,,,,,,,,,,,,,,,,,,,,,,,,0,0.7369,1,,,,,,,,,,,,0,131,5,5,2214,2214,absent_patch/patch0002214.jpg,absent_patch/patch0002214.jpg,,,,,,,,,,,,,,,,,,,,-0.062962921,0.116666653,1,0,0,response7disk,34,-0.003703718,-0.002777771,1,0,0,center_square,0,33,33,115,1,,,,,,,,,,,,,,,,,,,,,,,
080907,001,2022-11-20_20h50.49.810,Info_measure_main_exp,2022.2.2,Win32,60.0276127,,,,,,,,,,,,,,,,,,masks/mask_004.jpg,,,,,,,,,,,,,,,,,,,,,,,,,,,,,,,,,,,,,,,,,,,0,0,0,3,1,,,,,,,,,,,,,,,,,,,,,,,,,,,,,,,,,,,,,,,,,,,,,,
080907,001,2022-11-20_20h50.49.810,Info_measure_main_exp,2022.2.2,Win32,60.0276127,,,,,,,,,,,,,,,,,,masks/mask_001.jpg,,,,,,,,,,,,,,,,,,,,,,,,,,,,,,,,,,,,,,,,,,,0,1,1,0,1,,,,,,,,,,,,,,,,,,,,,,,,,,,,,,,,,,,,,,,,,,,,,,
080907,001,2022-11-20_20h50.49.810,Info_measure_main_exp,2022.2.2,Win32,60.0276127,,,,,,,,,,,,,,,,,,masks/mask_003.jpg,,,,,,,,,,,,,,,,,,,,,,,,,,,,,,,,,,,,,,,,,,,0,2,2,2,1,,,,,,,,,,,,,,,,,,,,,,,,,,,,,,,,,,,,,,,,,,,,,,
080907,001,2022-11-20_20h50.49.810,Info_measure_main_exp,2022.2.2,Win32,60.0276127,,,,,,,,,,,,,,,,,,masks/mask_002.jpg,,,,,,,,,,,,,,,,,,,,,,,,,,,,,,,,,,,,,,,,,,,0,3,3,1,1,,,,,,,,,,,,,,,,,,,,,,,,,,,,,,,,,,,,,,,,,,,,,,
080907,001,2022-11-20_20h50.49.810,Info_measure_main_exp,2022.2.2,Win32,60.0276127,,,,,,,,,,,,,,,,,,masks/mask_005.jpg,,,,,,,,,,,,,,,,,,,,,,,,,,,,,,,,,,,,,,,,,,,0,4,4,4,1,,,,,,,,,,,,,,,,,,,,,,,,,,,,,,,,,,,,,,,,,,,,,,
080907,001,2022-11-20_20h50.49.810,Info_measure_main_exp,2022.2.2,Win32,60.0276127,,,,,,,,,,,,,,,,,,masks/mask_005.jpg,,,,,,,,,,,,,,,,,,,,,,,,,,,,,,,,,,,,,,,,,,,,,,,,0,0,0,4,1,,,,,,,,,,,,,,,,,,,,,,,,,,,,,,,,,,,,,,,,,
080907,001,2022-11-20_20h50.49.810,Info_measure_main_exp,2022.2.2,Win32,60.0276127,,,,,,,,,,,,,,,,,,masks/mask_004.jpg,,,,,,,,,,,,,,,,,,,,,,,,,,,,,,,,,,,,,,,,,,,,,,,,0,1,1,3,1,,,,,,,,,,,,,,,,,,,,,,,,,,,,,,,,,,,,,,,,,
080907,001,2022-11-20_20h50.49.810,Info_measure_main_exp,2022.2.2,Win32,60.0276127,,,,,,,,,,,,,,,,,,masks/mask_001.jpg,,,,,,,,,,,,,,,,,,,,,,,,,,,,,,,,,,,,,,,,,,,,,,,,0,2,2,0,1,,,,,,,,,,,,,,,,,,,,,,,,,,,,,,,,,,,,,,,,,
080907,001,2022-11-20_20h50.49.810,Info_measure_main_exp,2022.2.2,Win32,60.0276127,,,,,,,,,,,,,,,,,,masks/mask_003.jpg,,,,,,,,,,,,,,,,,,,,,,,,,,,,,,,,,,,,,,,,,,,,,,,,0,3,3,2,1,,,,,,,,,,,,,,,,,,,,,,,,,,,,,,,,,,,,,,,,,
080907,001,2022-11-20_20h50.49.810,Info_measure_main_exp,2022.2.2,Win32,60.0276127,,,,,,,,,,,,,,,,,,masks/mask_002.jpg,,,,,,,,,,,,,,,,,,,,,,,,,,,,,,,,,,,,,,,,,,,,,,,,0,4,4,1,1,,,,,,,,,,,,,,,,,,,,,,,,,,,,,,,,,,,,,,,,,
