Pair_type,Image_num,Patch_1_loc,Patch_2_loc,Patch_1_info,Patch_2_info,Patch_1_name,Patch_2_name,mask_name,prac_loop.thisRepN,prac_loop.thisTrialN,prac_loop.thisN,prac_loop.thisIndex,prac_mask_loop_1.thisRepN,prac_mask_loop_1.thisTrialN,prac_mask_loop_1.thisN,prac_mask_loop_1.thisIndex,prac_mask_loop_2.thisRepN,prac_mask_loop_2.thisTrialN,prac_mask_loop_2.thisN,prac_mask_loop_2.thisIndex,first_pass_loop.thisRepN,first_pass_loop.thisTrialN,first_pass_loop.thisN,first_pass_loop.thisIndex,mask_loop.thisRepN,mask_loop.thisTrialN,mask_loop.thisN,mask_loop.thisIndex,mask_loop_2.thisRepN,mask_loop_2.thisTrialN,mask_loop_2.thisN,mask_loop_2.thisIndex,instruction_1_text.started,all_patches.started,space_press_continue.started,press_space_continue.started,Esc_exit.started,space_press_continue.keys,space_press_continue.rt,patch_1_movie.started,space_press_continue_2.started,Esc_exit_2.started,space_press_continue_2.keys,space_press_continue_2.rt,patch_2_movie.started,space_press_continue_3.started,Esc_exit_3.started,space_press_continue_3.keys,space_press_continue_3.rt,instruction_text_4.started,use_all_numbers.started,response_screen_intr.started,space_press_continue_4.started,space_continue_low.started,Esc_exit_4.started,space_press_continue_4.keys,space_press_continue_4.rt,instruction_text_5.started,response_screen_after.started,space_press_continue_5.started,space_continue_low_2.started,Esc_exit_5.started,space_press_continue_5.keys,space_press_continue_5.rt,prac_begin_space.started,space_press_continue_6.started,Esc_exit_6.started,space_press_continue_6.keys,space_press_continue_6.rt,Esc_exit_13.started,practice_patch_1.started,practice_patch_1.stopped,Esc_exit_13.stopped,Esc_exit_14.started,Esc_exit_12.started,practice_patch_2.started,practice_patch_2.stopped,Esc_exit_12.stopped,mouse_2.started,text.started,most_similar_3.started,most_different_3.started,Esc_exit_7.started,mouse_2.x,mouse_2.y,mouse_2.leftButton,mouse_2.midButton,mouse_2.rightButton,mouse_2.clicked_name,similarity,response_time,Pass,text_55.started,text_56.started,Esc_exit_8.started,text_55.stopped,text_56.stopped,Esc_exit_8.stopped,mouse_12.started,most_similar_4.started,most_different_4.started,Esc_exit_9.started,mouse_12.x,mouse_12.y,mouse_12.leftButton,mouse_12.midButton,mouse_12.rightButton,mouse_12.clicked_name,Esc_exit_15.started,space_press_continue_7.started,mouse_1.x,mouse_1.y,mouse_1.leftButton,mouse_1.midButton,mouse_1.rightButton,mouse_1.time,mouse_1.clicked_name,space_press_continue_7.keys,space_press_continue_7.rt,Esc_exit_16.started,first_patch.started,first_patch.stopped,Esc_exit_16.stopped,Esc_exit_17.started,second_patch.started,second_patch.stopped,Esc_exit_17.stopped,mouse.started,text_23.started,most_similar.started,most_different.started,Esc_exit_10.started,mouse.x,mouse.y,mouse.leftButton,mouse.midButton,mouse.rightButton,mouse.clicked_name,trialNumber,mouse_11.started,most_similar_2.started,most_different_2.started,trial_text_2.started,Esc_exit_11.started,mouse_11.x,mouse_11.y,mouse_11.leftButton,mouse_11.midButton,mouse_11.rightButton,mouse_11.clicked_name,participant,session,date,expName,psychopyVersion,frameRate,
,,,,,,,,,,,,,,,,,,,,,,,,,,,,,,,,,11.816002207000565,11.816002207000565,11.816002207000565,11.816002207000565,11.816002207000565,space,1.3188575119993402,,,,,,,,,,,,,,,,,,,,,,,,,,,,,,,,,,,,,,,,,,,,,,,,,,,,,,,,,,,,,,,,,,,,,,,,,,,,,,,,,,,,,,,,,,,,,,,,,,,,,,,,,,,,,,,,084682,001,2023-01-30_12h43.20.149,Info_measure_main_exp,2022.2.4,60.07086343488631,
,,,,,,,,,,,,,,,,,,,,,,,,,,,,,,,,,,,,,,,,13.73167518900027,13.73167518900027,13.73167518900027,space,0.4432540319994587,,,,,,,,,,,,,,,,,,,,,,,,,,,,,,,,,,,,,,,,,,,,,,,,,,,,,,,,,,,,,,,,,,,,,,,,,,,,,,,,,,,,,,,,,,,,,,,,,,,,,,,,,,,084682,001,2023-01-30_12h43.20.149,Info_measure_main_exp,2022.2.4,60.07086343488631,
,,,,,,,,,,,,,,,,,,,,,,,,,,,,,,,,,,,,,,,,,,,,,14.57457132700074,14.57457132700074,14.57457132700074,space,0.02165251699898363,,,,,,,,,,,,,,,,,,,,,,,,,,,,,,,,,,,,,,,,,,,,,,,,,,,,,,,,,,,,,,,,,,,,,,,,,,,,,,,,,,,,,,,,,,,,,,,,,,,,,,084682,001,2023-01-30_12h43.20.149,Info_measure_main_exp,2022.2.4,60.07086343488631,
,,,,,,,,,,,,,,,,,,,,,,,,,,,,,,,,,,,,,,,,,,,,,,,,,,14.625995760000478,14.625995760000478,14.625995760000478,14.625995760000478,14.625995760000478,14.625995760000478,space,0.11653147999913926,,,,,,,,,,,,,,,,,,,,,,,,,,,,,,,,,,,,,,,,,,,,,,,,,,,,,,,,,,,,,,,,,,,,,,,,,,,,,,,,,,,,,,,,,,,,,,084682,001,2023-01-30_12h43.20.149,Info_measure_main_exp,2022.2.4,60.07086343488631,
,,,,,,,,,,,,,,,,,,,,,,,,,,,,,,,,,,,,,,,,,,,,,,,,,,,,,,,,,,14.780471618000774,14.780471618000774,14.780471618000774,14.780471618000774,14.780471618000774,space,0.11257792599917593,,,,,,,,,,,,,,,,,,,,,,,,,,,,,,,,,,,,,,,,,,,,,,,,,,,,,,,,,,,,,,,,,,,,,,,,,,,,,,,,,,,,,,,084682,001,2023-01-30_12h43.20.149,Info_measure_main_exp,2022.2.4,60.07086343488631,
,,,,,,,,,,,,,,,,,,,,,,,,,,,,,,,,,,,,,,,,,,,,,,,,,,,,,,,,,,,,,,,,,14.927814891000708,14.927814891000708,14.927814891000708,space,0.16151309099859645,,,,,,,,,,,,,,,,,,,,,,,,,,,,,,,,,,,,,,,,,,,,,,,,,,,,,,,,,,,,,,,,,,,,,,,,,,,,,,,,,,084682,001,2023-01-30_12h43.20.149,Info_measure_main_exp,2022.2.4,60.07086343488631,
0,131,5,5,2526,2526,prac_patch/patch0002526.jpg,prac_patch/patch0002526.jpg,masks/mask_004.jpg,0,0,0,2,0,0,0,3,,,,,,,,,,,,,,,,,,,,,,,,,,,,,,,,,,,,,,,,,,,,,,,,,,,,,,15.149267101000078,15.60858566800016,15.773321387000578,15.823963187000118,15.823963187000118,,,,,,,,,,,,,,,,,,,,,,,,,,,,,,,,,,,,,,,,,,,,,,,,,,,,,,,,,,,,,,,,,,,,,,,,,,,,,084682,001,2023-01-30_12h43.20.149,Info_measure_main_exp,2022.2.4,60.07086343488631,
0,131,5,5,2526,2526,prac_patch/patch0002526.jpg,prac_patch/patch0002526.jpg,masks/mask_003.jpg,0,0,0,2,0,1,1,2,,,,,,,,,,,,,,,,,,,,,,,,,,,,,,,,,,,,,,,,,,,,,,,,,,,,,,,,,,15.878080019000663,,,,,,,,,,,,,,,,,,,,,,,,,,,,,,,,,,,,,,,,,,,,,,,,,,,,,,,,,,,,,,,,,,,,,,,,,,,,,084682,001,2023-01-30_12h43.20.149,Info_measure_main_exp,2022.2.4,60.07086343488631,
0,131,5,5,2526,2526,prac_patch/patch0002526.jpg,prac_patch/patch0002526.jpg,masks/mask_001.jpg,0,0,0,2,0,2,2,0,,,,,,,,,,,,,,,,,,,,,,,,,,,,,,,,,,,,,,,,,,,,,,,,,,,,,,,,,,15.946236718000364,,,,,,,,,,,,,,,,,,,,,,,,,,,,,,,,,,,,,,,,,,,,,,,,,,,,,,,,,,,,,,,,,,,,,,,,,,,,,084682,001,2023-01-30_12h43.20.149,Info_measure_main_exp,2022.2.4,60.07086343488631,
0,131,5,5,2526,2526,prac_patch/patch0002526.jpg,prac_patch/patch0002526.jpg,masks/mask_002.jpg,0,0,0,2,0,3,3,1,,,,,,,,,,,,,,,,,,,,,,,,,,,,,,,,,,,,,,,,,,,,,,,,,,,,,,,,,,15.99808927200047,,,,,,,,,,,,,,,,,,,,,,,,,,,,,,,,,,,,,,,,,,,,,,,,,,,,,,,,,,,,,,,,,,,,,,,,,,,,,084682,001,2023-01-30_12h43.20.149,Info_measure_main_exp,2022.2.4,60.07086343488631,
0,131,5,5,2526,2526,prac_patch/patch0002526.jpg,prac_patch/patch0002526.jpg,masks/mask_005.jpg,0,0,0,2,0,4,4,4,,,,,,,,,,,,,,,,,,,,,,,,,,,,,,,,,,,,,,,,,,,,,,,,,,,,,,,,,,16.063702575000207,,,,,,,,,,,,,,,,,,,,,,,,,,,,,,,,,,,,,,,,,,,,,,,,,,,,,,,,,,,,,,,,,,,,,,,,,,,,,084682,001,2023-01-30_12h43.20.149,Info_measure_main_exp,2022.2.4,60.07086343488631,
0,131,5,5,2526,2526,prac_patch/patch0002526.jpg,prac_patch/patch0002526.jpg,masks/mask_003.jpg,0,0,0,2,,,,,0,0,0,2,,,,,,,,,,,,,,,,,,,,,,,,,,,,,,,,,,,,,,,,,,,,,,,,,,,,,,16.78380461100005,16.10996277600043,16.606886848000613,16.756605393999962,16.78380461100005,,,,,,,,,,,,,,,,,,,,,,,,,,,,,,,,,,,,,,,,,,,,,,,,,,,,,,,,,,,,,,,,,,,,,,,,,084682,001,2023-01-30_12h43.20.149,Info_measure_main_exp,2022.2.4,60.07086343488631,
0,131,5,5,2526,2526,prac_patch/patch0002526.jpg,prac_patch/patch0002526.jpg,masks/mask_001.jpg,0,0,0,2,,,,,0,1,1,0,,,,,,,,,,,,,,,,,,,,,,,,,,,,,,,,,,,,,,,,,,,,,,,,,,,,,,16.849954394000633,,,,,,,,,,,,,,,,,,,,,,,,,,,,,,,,,,,,,,,,,,,,,,,,,,,,,,,,,,,,,,,,,,,,,,,,,,,,,084682,001,2023-01-30_12h43.20.149,Info_measure_main_exp,2022.2.4,60.07086343488631,
0,131,5,5,2526,2526,prac_patch/patch0002526.jpg,prac_patch/patch0002526.jpg,masks/mask_002.jpg,0,0,0,2,,,,,0,2,2,1,,,,,,,,,,,,,,,,,,,,,,,,,,,,,,,,,,,,,,,,,,,,,,,,,,,,,,16.902717522000785,,,,,,,,,,,,,,,,,,,,,,,,,,,,,,,,,,,,,,,,,,,,,,,,,,,,,,,,,,,,,,,,,,,,,,,,,,,,,084682,001,2023-01-30_12h43.20.149,Info_measure_main_exp,2022.2.4,60.07086343488631,
0,131,5,5,2526,2526,prac_patch/patch0002526.jpg,prac_patch/patch0002526.jpg,masks/mask_005.jpg,0,0,0,2,,,,,0,3,3,4,,,,,,,,,,,,,,,,,,,,,,,,,,,,,,,,,,,,,,,,,,,,,,,,,,,,,,16.971741885000483,,,,,,,,,,,,,,,,,,,,,,,,,,,,,,,,,,,,,,,,,,,,,,,,,,,,,,,,,,,,,,,,,,,,,,,,,,,,,084682,001,2023-01-30_12h43.20.149,Info_measure_main_exp,2022.2.4,60.07086343488631,
0,131,5,5,2526,2526,prac_patch/patch0002526.jpg,prac_patch/patch0002526.jpg,masks/mask_004.jpg,0,0,0,2,,,,,0,4,4,3,,,,,,,,,,,,,,,,,,,,,,,,,,,,,,,,,,,,,,,,,,,,,,,,,,,,,,17.024138102000506,,,,,,,,,,,,,,,,,,,,,,,,,,,,,,,,,,,,,,,,,,,,,,,,,,,,,,,,,,,,,,,,,,,,,,,,,,,,,084682,001,2023-01-30_12h43.20.149,Info_measure_main_exp,2022.2.4,60.07086343488631,
0,131,5,5,2526,2526,prac_patch/patch0002526.jpg,prac_patch/patch0002526.jpg,,0,0,0,2,,,,,,,,,,,,,,,,,,,,,,,,,,,,,,,,,,,,,,,,,,,,,,,,,,,,,,,,,,,,,,,,,,,0.0018743689979601186,17.080832724000174,17.080832724000174,17.080832724000174,17.080832724000174,0.3333333333333333,0.1622222222222222,1,0,0,response1disk,6,6.61037014700014,1,18.05148784800076,18.05148784800076,18.05148784800076,22.168928263000453,22.168928263000453,22.168928263000453,7.251599981827894e-05,22.168928263000453,22.168928263000453,22.168928263000453,-0.006666666666666667,-0.0077777777777777776,1,0,0,center_square,,,,,,,,,,,,,,,,,,,,,,,,,,,,,,,,,,,,,,,,,,,084682,001,2023-01-30_12h43.20.149,Info_measure_main_exp,2022.2.4,60.07086343488631,
0,131,5,5,2514,2490,prac_patch/patch0002514.jpg,prac_patch/patch0002490.jpg,masks/mask_004.jpg,0,1,1,1,0,0,0,3,,,,,,,,,,,,,,,,,,,,,,,,,,,,,,,,,,,,,,,,,,,,,,,,,,,,,,23.42972066600032,23.923027128000285,24.073092044000077,24.101666733000457,24.101666733000457,,,,,,,,,,,,,,,,,,,,,,,,,,,,,,,,,,,,,,,,,,,,,,,,,,,,,,,,,,,,,,,,,,,,,,,,,,,,,084682,001,2023-01-30_12h43.20.149,Info_measure_main_exp,2022.2.4,60.07086343488631,
0,131,5,5,2514,2490,prac_patch/patch0002514.jpg,prac_patch/patch0002490.jpg,masks/mask_005.jpg,0,1,1,1,0,1,1,4,,,,,,,,,,,,,,,,,,,,,,,,,,,,,,,,,,,,,,,,,,,,,,,,,,,,,,,,,,24.164332117999948,,,,,,,,,,,,,,,,,,,,,,,,,,,,,,,,,,,,,,,,,,,,,,,,,,,,,,,,,,,,,,,,,,,,,,,,,,,,,084682,001,2023-01-30_12h43.20.149,Info_measure_main_exp,2022.2.4,60.07086343488631,
0,131,5,5,2514,2490,prac_patch/patch0002514.jpg,prac_patch/patch0002490.jpg,masks/mask_003.jpg,0,1,1,1,0,2,2,2,,,,,,,,,,,,,,,,,,,,,,,,,,,,,,,,,,,,,,,,,,,,,,,,,,,,,,,,,,24.21343814100055,,,,,,,,,,,,,,,,,,,,,,,,,,,,,,,,,,,,,,,,,,,,,,,,,,,,,,,,,,,,,,,,,,,,,,,,,,,,,084682,001,2023-01-30_12h43.20.149,Info_measure_main_exp,2022.2.4,60.07086343488631,
0,131,5,5,2514,2490,prac_patch/patch0002514.jpg,prac_patch/patch0002490.jpg,masks/mask_001.jpg,0,1,1,1,0,3,3,0,,,,,,,,,,,,,,,,,,,,,,,,,,,,,,,,,,,,,,,,,,,,,,,,,,,,,,,,,,24.27852769600031,,,,,,,,,,,,,,,,,,,,,,,,,,,,,,,,,,,,,,,,,,,,,,,,,,,,,,,,,,,,,,,,,,,,,,,,,,,,,084682,001,2023-01-30_12h43.20.149,Info_measure_main_exp,2022.2.4,60.07086343488631,
0,131,5,5,2514,2490,prac_patch/patch0002514.jpg,prac_patch/patch0002490.jpg,masks/mask_002.jpg,0,1,1,1,0,4,4,1,,,,,,,,,,,,,,,,,,,,,,,,,,,,,,,,,,,,,,,,,,,,,,,,,,,,,,,,,,24.345778716000495,,,,,,,,,,,,,,,,,,,,,,,,,,,,,,,,,,,,,,,,,,,,,,,,,,,,,,,,,,,,,,,,,,,,,,,,,,,,,084682,001,2023-01-30_12h43.20.149,Info_measure_main_exp,2022.2.4,60.07086343488631,
0,131,5,5,2514,2490,prac_patch/patch0002514.jpg,prac_patch/patch0002490.jpg,masks/mask_001.jpg,0,1,1,1,,,,,0,0,0,0,,,,,,,,,,,,,,,,,,,,,,,,,,,,,,,,,,,,,,,,,,,,,,,,,,,,,,25.069354885000394,24.39334223500009,24.87458215800052,25.039989239000533,25.069354885000394,,,,,,,,,,,,,,,,,,,,,,,,,,,,,,,,,,,,,,,,,,,,,,,,,,,,,,,,,,,,,,,,,,,,,,,,,084682,001,2023-01-30_12h43.20.149,Info_measure_main_exp,2022.2.4,60.07086343488631,
0,131,5,5,2514,2490,prac_patch/patch0002514.jpg,prac_patch/patch0002490.jpg,masks/mask_005.jpg,0,1,1,1,,,,,0,1,1,4,,,,,,,,,,,,,,,,,,,,,,,,,,,,,,,,,,,,,,,,,,,,,,,,,,,,,,25.133560023000427,,,,,,,,,,,,,,,,,,,,,,,,,,,,,,,,,,,,,,,,,,,,,,,,,,,,,,,,,,,,,,,,,,,,,,,,,,,,,084682,001,2023-01-30_12h43.20.149,Info_measure_main_exp,2022.2.4,60.07086343488631,
0,131,5,5,2514,2490,prac_patch/patch0002514.jpg,prac_patch/patch0002490.jpg,masks/mask_003.jpg,0,1,1,1,,,,,0,2,2,2,,,,,,,,,,,,,,,,,,,,,,,,,,,,,,,,,,,,,,,,,,,,,,,,,,,,,,25.18483071100036,,,,,,,,,,,,,,,,,,,,,,,,,,,,,,,,,,,,,,,,,,,,,,,,,,,,,,,,,,,,,,,,,,,,,,,,,,,,,084682,001,2023-01-30_12h43.20.149,Info_measure_main_exp,2022.2.4,60.07086343488631,
0,131,5,5,2514,2490,prac_patch/patch0002514.jpg,prac_patch/patch0002490.jpg,masks/mask_004.jpg,0,1,1,1,,,,,0,3,3,3,,,,,,,,,,,,,,,,,,,,,,,,,,,,,,,,,,,,,,,,,,,,,,,,,,,,,,25.25203548400077,,,,,,,,,,,,,,,,,,,,,,,,,,,,,,,,,,,,,,,,,,,,,,,,,,,,,,,,,,,,,,,,,,,,,,,,,,,,,084682,001,2023-01-30_12h43.20.149,Info_measure_main_exp,2022.2.4,60.07086343488631,
0,131,5,5,2514,2490,prac_patch/patch0002514.jpg,prac_patch/patch0002490.jpg,masks/mask_002.jpg,0,1,1,1,,,,,0,4,4,1,,,,,,,,,,,,,,,,,,,,,,,,,,,,,,,,,,,,,,,,,,,,,,,,,,,,,,25.304008536000765,,,,,,,,,,,,,,,,,,,,,,,,,,,,,,,,,,,,,,,,,,,,,,,,,,,,,,,,,,,,,,,,,,,,,,,,,,,,,084682,001,2023-01-30_12h43.20.149,Info_measure_main_exp,2022.2.4,60.07086343488631,
0,131,5,5,2514,2490,prac_patch/patch0002514.jpg,prac_patch/patch0002490.jpg,,0,1,1,1,,,,,,,,,,,,,,,,,,,,,,,,,,,,,,,,,,,,,,,,,,,,,,,,,,,,,,,,,,,,,,,,,,,0.009920739998051431,25.369846411000253,25.369846411000253,25.369846411000253,25.369846411000253,-0.21777777777777776,0.2677777777777778,1,0,0,response7disk,0,14.855816113999936,1,26.28364134700041,26.28364134700041,26.28364134700041,30.294512891000522,30.294512891000522,30.294512891000522,3.797099998337217e-05,30.294512891000522,30.294512891000522,30.294512891000522,0.015555555555555555,-0.0011111111111111111,1,0,0,center_square,,,,,,,,,,,,,,,,,,,,,,,,,,,,,,,,,,,,,,,,,,,084682,001,2023-01-30_12h43.20.149,Info_measure_main_exp,2022.2.4,60.07086343488631,
0,131,5,5,2370,2406,prac_patch/patch0002370.jpg,prac_patch/patch0002406.jpg,masks/mask_005.jpg,0,2,2,0,0,0,0,4,,,,,,,,,,,,,,,,,,,,,,,,,,,,,,,,,,,,,,,,,,,,,,,,,,,,,,31.09965606500009,31.589871510000194,31.74014818700016,31.77085794499999,31.77085794499999,,,,,,,,,,,,,,,,,,,,,,,,,,,,,,,,,,,,,,,,,,,,,,,,,,,,,,,,,,,,,,,,,,,,,,,,,,,,,084682,001,2023-01-30_12h43.20.149,Info_measure_main_exp,2022.2.4,60.07086343488631,
0,131,5,5,2370,2406,prac_patch/patch0002370.jpg,prac_patch/patch0002406.jpg,masks/mask_003.jpg,0,2,2,0,0,1,1,2,,,,,,,,,,,,,,,,,,,,,,,,,,,,,,,,,,,,,,,,,,,,,,,,,,,,,,,,,,31.824081788000512,,,,,,,,,,,,,,,,,,,,,,,,,,,,,,,,,,,,,,,,,,,,,,,,,,,,,,,,,,,,,,,,,,,,,,,,,,,,,084682,001,2023-01-30_12h43.20.149,Info_measure_main_exp,2022.2.4,60.07086343488631,
0,131,5,5,2370,2406,prac_patch/patch0002370.jpg,prac_patch/patch0002406.jpg,masks/mask_004.jpg,0,2,2,0,0,2,2,3,,,,,,,,,,,,,,,,,,,,,,,,,,,,,,,,,,,,,,,,,,,,,,,,,,,,,,,,,,31.90453935200003,,,,,,,,,,,,,,,,,,,,,,,,,,,,,,,,,,,,,,,,,,,,,,,,,,,,,,,,,,,,,,,,,,,,,,,,,,,,,084682,001,2023-01-30_12h43.20.149,Info_measure_main_exp,2022.2.4,60.07086343488631,
0,131,5,5,2370,2406,prac_patch/patch0002370.jpg,prac_patch/patch0002406.jpg,masks/mask_001.jpg,0,2,2,0,0,3,3,0,,,,,,,,,,,,,,,,,,,,,,,,,,,,,,,,,,,,,,,,,,,,,,,,,,,,,,,,,,31.959582256999965,,,,,,,,,,,,,,,,,,,,,,,,,,,,,,,,,,,,,,,,,,,,,,,,,,,,,,,,,,,,,,,,,,,,,,,,,,,,,084682,001,2023-01-30_12h43.20.149,Info_measure_main_exp,2022.2.4,60.07086343488631,
0,131,5,5,2370,2406,prac_patch/patch0002370.jpg,prac_patch/patch0002406.jpg,masks/mask_002.jpg,0,2,2,0,0,4,4,1,,,,,,,,,,,,,,,,,,,,,,,,,,,,,,,,,,,,,,,,,,,,,,,,,,,,,,,,,,32.01842917900012,,,,,,,,,,,,,,,,,,,,,,,,,,,,,,,,,,,,,,,,,,,,,,,,,,,,,,,,,,,,,,,,,,,,,,,,,,,,,084682,001,2023-01-30_12h43.20.149,Info_measure_main_exp,2022.2.4,60.07086343488631,
0,131,5,5,2370,2406,prac_patch/patch0002370.jpg,prac_patch/patch0002406.jpg,masks/mask_002.jpg,0,2,2,0,,,,,0,0,0,1,,,,,,,,,,,,,,,,,,,,,,,,,,,,,,,,,,,,,,,,,,,,,,,,,,,,,,32.735601027000484,32.07251417900079,32.5568147440008,32.70649753700036,32.735601027000484,,,,,,,,,,,,,,,,,,,,,,,,,,,,,,,,,,,,,,,,,,,,,,,,,,,,,,,,,,,,,,,,,,,,,,,,,084682,001,2023-01-30_12h43.20.149,Info_measure_main_exp,2022.2.4,60.07086343488631,
0,131,5,5,2370,2406,prac_patch/patch0002370.jpg,prac_patch/patch0002406.jpg,masks/mask_003.jpg,0,2,2,0,,,,,0,1,1,2,,,,,,,,,,,,,,,,,,,,,,,,,,,,,,,,,,,,,,,,,,,,,,,,,,,,,,32.80267310199997,,,,,,,,,,,,,,,,,,,,,,,,,,,,,,,,,,,,,,,,,,,,,,,,,,,,,,,,,,,,,,,,,,,,,,,,,,,,,084682,001,2023-01-30_12h43.20.149,Info_measure_main_exp,2022.2.4,60.07086343488631,
0,131,5,5,2370,2406,prac_patch/patch0002370.jpg,prac_patch/patch0002406.jpg,masks/mask_001.jpg,0,2,2,0,,,,,0,2,2,0,,,,,,,,,,,,,,,,,,,,,,,,,,,,,,,,,,,,,,,,,,,,,,,,,,,,,,32.85452441699999,,,,,,,,,,,,,,,,,,,,,,,,,,,,,,,,,,,,,,,,,,,,,,,,,,,,,,,,,,,,,,,,,,,,,,,,,,,,,084682,001,2023-01-30_12h43.20.149,Info_measure_main_exp,2022.2.4,60.07086343488631,
0,131,5,5,2370,2406,prac_patch/patch0002370.jpg,prac_patch/patch0002406.jpg,masks/mask_004.jpg,0,2,2,0,,,,,0,3,3,3,,,,,,,,,,,,,,,,,,,,,,,,,,,,,,,,,,,,,,,,,,,,,,,,,,,,,,32.920799408000676,,,,,,,,,,,,,,,,,,,,,,,,,,,,,,,,,,,,,,,,,,,,,,,,,,,,,,,,,,,,,,,,,,,,,,,,,,,,,084682,001,2023-01-30_12h43.20.149,Info_measure_main_exp,2022.2.4,60.07086343488631,
0,131,5,5,2370,2406,prac_patch/patch0002370.jpg,prac_patch/patch0002406.jpg,masks/mask_005.jpg,0,2,2,0,,,,,0,4,4,4,,,,,,,,,,,,,,,,,,,,,,,,,,,,,,,,,,,,,,,,,,,,,,,,,,,,,,32.97286718900068,,,,,,,,,,,,,,,,,,,,,,,,,,,,,,,,,,,,,,,,,,,,,,,,,,,,,,,,,,,,,,,,,,,,,,,,,,,,,084682,001,2023-01-30_12h43.20.149,Info_measure_main_exp,2022.2.4,60.07086343488631,
0,131,5,5,2370,2406,prac_patch/patch0002370.jpg,prac_patch/patch0002406.jpg,,0,2,2,0,,,,,,,,,,,,,,,,,,,,,,,,,,,,,,,,,,,,,,,,,,,,,,,,,,,,,,,,,,,,,,,,,,,0.015078319997883227,33.0412961080001,33.0412961080001,33.0412961080001,33.0412961080001,0.25,-0.10555555555555556,1,0,0,response3disk,5,22.249189461999777,1,33.684111686000506,33.684111686000506,33.684111686000506,37.69415909899999,37.69415909899999,37.69415909899999,4.1989000237663276e-05,37.69415909899999,37.69415909899999,37.69415909899999,0.027777777777777776,-0.01888888888888889,1,0,0,center_square,,,,,,,,,,,,,,,,,,,,,,,,,,,,,,,,,,,,,,,,,,,084682,001,2023-01-30_12h43.20.149,Info_measure_main_exp,2022.2.4,60.07086343488631,
,,,,,,,,,,,,,,,,,,,,,,,,,,,,,,,,,,,,,,,,,,,,,,,,,,,,,,,,,,,,,,,,,,,,,,,,,,,,,,,,,,,,,,,,,,,,,,,,,,,,,,,,,,,,,38.95678974200018,38.95678974200018,[],[],[],[],[],[],[],,,,,,,,,,,,,,,,,,,,,,,,,,,,,,,,,,084682,001,2023-01-30_12h43.20.149,Info_measure_main_exp,2022.2.4,60.07086343488631,
,,,,,,,,,,,,,,,,,,,,,,,,,,,,,,,,,,,,,,,,,,,,,,,,,,,,,,,,,,,,,,,,,,,,,,,,,,,,,,,,,,,,,,,,,,,,,,,,,,,,,,,,,,,,,,,,,,,,,,space,1.3017235399993297,,,,,,,,,,,,,,,,,,,,,,,,,,,,,,,,084682,001,2023-01-30_12h43.20.149,Info_measure_main_exp,2022.2.4,60.07086343488631,
0,131,5,5,2079,2079,absent_patch/patch0002079.jpg,absent_patch/patch0002079.jpg,masks/mask_005.jpg,,,,,,,,,,,,,0,0,0,12,0,0,0,4,,,,,,,,,,,,,,,,,,,,,,,,,,,,,,,,,,,,,,,,,,,,,,41.039760807000675,,,,,,,,,,,,,,,,,,,,,,,,,,,,,,,,,,,,,,,,,,,,,,40.36309524200078,40.773146690999965,40.92407614700005,41.039760807000675,,,,,,,,,,,,,,,,,,,,,,,,,,,,084682,001,2023-01-30_12h43.20.149,Info_measure_main_exp,2022.2.4,60.07086343488631,
0,131,5,5,2079,2079,absent_patch/patch0002079.jpg,absent_patch/patch0002079.jpg,masks/mask_004.jpg,,,,,,,,,,,,,0,0,0,12,0,1,1,3,,,,,,,,,,,,,,,,,,,,,,,,,,,,,,,,,,,,,,,,,,,,,,41.09282865500063,,,,,,,,,,,,,,,,,,,,,,,,,,,,,,,,,,,,,,,,,,,,,,,,,,,,,,,,,,,,,,,,,,,,,,,,,,,,,084682,001,2023-01-30_12h43.20.149,Info_measure_main_exp,2022.2.4,60.07086343488631,
0,131,5,5,2079,2079,absent_patch/patch0002079.jpg,absent_patch/patch0002079.jpg,masks/mask_003.jpg,,,,,,,,,,,,,0,0,0,12,0,2,2,2,,,,,,,,,,,,,,,,,,,,,,,,,,,,,,,,,,,,,,,,,,,,,,41.16182140199999,,,,,,,,,,,,,,,,,,,,,,,,,,,,,,,,,,,,,,,,,,,,,,,,,,,,,,,,,,,,,,,,,,,,,,,,,,,,,084682,001,2023-01-30_12h43.20.149,Info_measure_main_exp,2022.2.4,60.07086343488631,
0,131,5,5,2079,2079,absent_patch/patch0002079.jpg,absent_patch/patch0002079.jpg,masks/mask_002.jpg,,,,,,,,,,,,,0,0,0,12,0,3,3,1,,,,,,,,,,,,,,,,,,,,,,,,,,,,,,,,,,,,,,,,,,,,,,41.214087017000566,,,,,,,,,,,,,,,,,,,,,,,,,,,,,,,,,,,,,,,,,,,,,,,,,,,,,,,,,,,,,,,,,,,,,,,,,,,,,084682,001,2023-01-30_12h43.20.149,Info_measure_main_exp,2022.2.4,60.07086343488631,
0,131,5,5,2079,2079,absent_patch/patch0002079.jpg,absent_patch/patch0002079.jpg,masks/mask_001.jpg,,,,,,,,,,,,,0,0,0,12,0,4,4,0,,,,,,,,,,,,,,,,,,,,,,,,,,,,,,,,,,,,,,,,,,,,,,41.280797011000686,,,,,,,,,,,,,,,,,,,,,,,,,,,,,,,,,,,,,,,,,,,,,,,,,,,,,,,,,,,,,,,,,,,,,,,,,,,,,084682,001,2023-01-30_12h43.20.149,Info_measure_main_exp,2022.2.4,60.07086343488631,
0,131,5,5,2079,2079,absent_patch/patch0002079.jpg,absent_patch/patch0002079.jpg,masks/mask_005.jpg,,,,,,,,,,,,,0,0,0,12,,,,,0,0,0,4,,,,,,,,,,,,,,,,,,,,,,,,,,,,,,,,,,,,,,,,,,42.004002820000096,,,,,,,,,,,,,,,,,,,,,,,,,,,,,,,,,,,,,,,,,,,,,,,,,,41.32899865200034,41.82312923600057,41.973579606000385,42.004002820000096,,,,,,,,,,,,,,,,,,,,,,,,084682,001,2023-01-30_12h43.20.149,Info_measure_main_exp,2022.2.4,60.07086343488631,
0,131,5,5,2079,2079,absent_patch/patch0002079.jpg,absent_patch/patch0002079.jpg,masks/mask_001.jpg,,,,,,,,,,,,,0,0,0,12,,,,,0,1,1,0,,,,,,,,,,,,,,,,,,,,,,,,,,,,,,,,,,,,,,,,,,42.06975749200046,,,,,,,,,,,,,,,,,,,,,,,,,,,,,,,,,,,,,,,,,,,,,,,,,,,,,,,,,,,,,,,,,,,,,,,,,,,,,084682,001,2023-01-30_12h43.20.149,Info_measure_main_exp,2022.2.4,60.07086343488631,
0,131,5,5,2079,2079,absent_patch/patch0002079.jpg,absent_patch/patch0002079.jpg,masks/mask_004.jpg,,,,,,,,,,,,,0,0,0,12,,,,,0,2,2,3,,,,,,,,,,,,,,,,,,,,,,,,,,,,,,,,,,,,,,,,,,42.12045853500058,,,,,,,,,,,,,,,,,,,,,,,,,,,,,,,,,,,,,,,,,,,,,,,,,,,,,,,,,,,,,,,,,,,,,,,,,,,,,084682,001,2023-01-30_12h43.20.149,Info_measure_main_exp,2022.2.4,60.07086343488631,
0,131,5,5,2079,2079,absent_patch/patch0002079.jpg,absent_patch/patch0002079.jpg,masks/mask_002.jpg,,,,,,,,,,,,,0,0,0,12,,,,,0,3,3,1,,,,,,,,,,,,,,,,,,,,,,,,,,,,,,,,,,,,,,,,,,42.18582639400029,,,,,,,,,,,,,,,,,,,,,,,,,,,,,,,,,,,,,,,,,,,,,,,,,,,,,,,,,,,,,,,,,,,,,,,,,,,,,084682,001,2023-01-30_12h43.20.149,Info_measure_main_exp,2022.2.4,60.07086343488631,
0,131,5,5,2079,2079,absent_patch/patch0002079.jpg,absent_patch/patch0002079.jpg,masks/mask_003.jpg,,,,,,,,,,,,,0,0,0,12,,,,,0,4,4,2,,,,,,,,,,,,,,,,,,,,,,,,,,,,,,,,,,,,,,,,,,42.23675385800016,,,,,,,,,,,,,,,,,,,,,,,,,,,,,,,,,,,,,,,,,,,,,,,,,,,,,,,,,,,,,,,,,,,,,,,,,,,,,084682,001,2023-01-30_12h43.20.149,Info_measure_main_exp,2022.2.4,60.07086343488631,
0,131,5,5,2079,2079,absent_patch/patch0002079.jpg,absent_patch/patch0002079.jpg,,,,,,,,,,,,,,0,0,0,12,,,,,,,,,,,,,,,,,,,,,,,,,,,,,,,,,,,,,,,,,,,,,,,,,,,,,,,,,,,,,,,,,,0,0.826762673000303,1,,,,,,,,,,,,,,,,,,,,,,,,,,,,,,,,,,,,0.008750472998144687,42.30417861400019,42.30417861400019,42.30417861400019,42.30417861400019,-0.13555555555555557,0.39555555555555555,1,0,0,response7disk,1,0.021024489999945217,43.15133468500062,43.15133468500062,43.15133468500062,43.15133468500062,-0.011111111111111112,0.01888888888888889,1,0,0,center_square,084682,001,2023-01-30_12h43.20.149,Info_measure_main_exp,2022.2.4,60.07086343488631,
0,131,5,5,1947,2031,absent_patch/patch0001947.jpg,absent_patch/patch0002031.jpg,masks/mask_001.jpg,,,,,,,,,,,,,0,1,1,15,0,0,0,0,,,,,,,,,,,,,,,,,,,,,,,,,,,,,,,,,,,,,,,,,,,,,,46.83802302300046,,,,,,,,,,,,,,,,,,,,,,,,,,,,,,,,,,,,,,,,,,,,,,46.163939097000366,46.65820083000017,46.83802302300046,46.83802302300046,,,,,,,,,,,,,,,,,,,,,,,,,,,,084682,001,2023-01-30_12h43.20.149,Info_measure_main_exp,2022.2.4,60.07086343488631,
0,131,5,5,1947,2031,absent_patch/patch0001947.jpg,absent_patch/patch0002031.jpg,masks/mask_004.jpg,,,,,,,,,,,,,0,1,1,15,0,1,1,3,,,,,,,,,,,,,,,,,,,,,,,,,,,,,,,,,,,,,,,,,,,,,,46.895431235000615,,,,,,,,,,,,,,,,,,,,,,,,,,,,,,,,,,,,,,,,,,,,,,,,,,,,,,,,,,,,,,,,,,,,,,,,,,,,,084682,001,2023-01-30_12h43.20.149,Info_measure_main_exp,2022.2.4,60.07086343488631,
0,131,5,5,1947,2031,absent_patch/patch0001947.jpg,absent_patch/patch0002031.jpg,masks/mask_003.jpg,,,,,,,,,,,,,0,1,1,15,0,2,2,2,,,,,,,,,,,,,,,,,,,,,,,,,,,,,,,,,,,,,,,,,,,,,,46.95387420500083,,,,,,,,,,,,,,,,,,,,,,,,,,,,,,,,,,,,,,,,,,,,,,,,,,,,,,,,,,,,,,,,,,,,,,,,,,,,,084682,001,2023-01-30_12h43.20.149,Info_measure_main_exp,2022.2.4,60.07086343488631,
0,131,5,5,1947,2031,absent_patch/patch0001947.jpg,absent_patch/patch0002031.jpg,masks/mask_002.jpg,,,,,,,,,,,,,0,1,1,15,0,3,3,1,,,,,,,,,,,,,,,,,,,,,,,,,,,,,,,,,,,,,,,,,,,,,,47.028357456000776,,,,,,,,,,,,,,,,,,,,,,,,,,,,,,,,,,,,,,,,,,,,,,,,,,,,,,,,,,,,,,,,,,,,,,,,,,,,,084682,001,2023-01-30_12h43.20.149,Info_measure_main_exp,2022.2.4,60.07086343488631,
0,131,5,5,1947,2031,absent_patch/patch0001947.jpg,absent_patch/patch0002031.jpg,masks/mask_005.jpg,,,,,,,,,,,,,0,1,1,15,0,4,4,4,,,,,,,,,,,,,,,,,,,,,,,,,,,,,,,,,,,,,,,,,,,,,,47.085408317000656,,,,,,,,,,,,,,,,,,,,,,,,,,,,,,,,,,,,,,,,,,,,,,,,,,,,,,,,,,,,,,,,,,,,,,,,,,,,,084682,001,2023-01-30_12h43.20.149,Info_measure_main_exp,2022.2.4,60.07086343488631,
0,131,5,5,1947,2031,absent_patch/patch0001947.jpg,absent_patch/patch0002031.jpg,masks/mask_004.jpg,,,,,,,,,,,,,0,1,1,15,,,,,0,0,0,3,,,,,,,,,,,,,,,,,,,,,,,,,,,,,,,,,,,,,,,,,,47.80451304400049,,,,,,,,,,,,,,,,,,,,,,,,,,,,,,,,,,,,,,,,,,,,,,,,,,47.137564131000545,47.622958278000624,47.77327073100059,47.80451304400049,,,,,,,,,,,,,,,,,,,,,,,,084682,001,2023-01-30_12h43.20.149,Info_measure_main_exp,2022.2.4,60.07086343488631,
0,131,5,5,1947,2031,absent_patch/patch0001947.jpg,absent_patch/patch0002031.jpg,masks/mask_003.jpg,,,,,,,,,,,,,0,1,1,15,,,,,0,1,1,2,,,,,,,,,,,,,,,,,,,,,,,,,,,,,,,,,,,,,,,,,,47.858931751000455,,,,,,,,,,,,,,,,,,,,,,,,,,,,,,,,,,,,,,,,,,,,,,,,,,,,,,,,,,,,,,,,,,,,,,,,,,,,,084682,001,2023-01-30_12h43.20.149,Info_measure_main_exp,2022.2.4,60.07086343488631,
0,131,5,5,1947,2031,absent_patch/patch0001947.jpg,absent_patch/patch0002031.jpg,masks/mask_001.jpg,,,,,,,,,,,,,0,1,1,15,,,,,0,2,2,0,,,,,,,,,,,,,,,,,,,,,,,,,,,,,,,,,,,,,,,,,,47.93090710500019,,,,,,,,,,,,,,,,,,,,,,,,,,,,,,,,,,,,,,,,,,,,,,,,,,,,,,,,,,,,,,,,,,,,,,,,,,,,,084682,001,2023-01-30_12h43.20.149,Info_measure_main_exp,2022.2.4,60.07086343488631,
0,131,5,5,1947,2031,absent_patch/patch0001947.jpg,absent_patch/patch0002031.jpg,masks/mask_005.jpg,,,,,,,,,,,,,0,1,1,15,,,,,0,3,3,4,,,,,,,,,,,,,,,,,,,,,,,,,,,,,,,,,,,,,,,,,,47.98270991900063,,,,,,,,,,,,,,,,,,,,,,,,,,,,,,,,,,,,,,,,,,,,,,,,,,,,,,,,,,,,,,,,,,,,,,,,,,,,,084682,001,2023-01-30_12h43.20.149,Info_measure_main_exp,2022.2.4,60.07086343488631,
0,131,5,5,1947,2031,absent_patch/patch0001947.jpg,absent_patch/patch0002031.jpg,masks/mask_002.jpg,,,,,,,,,,,,,0,1,1,15,,,,,0,4,4,1,,,,,,,,,,,,,,,,,,,,,,,,,,,,,,,,,,,,,,,,,,48.04963568200037,,,,,,,,,,,,,,,,,,,,,,,,,,,,,,,,,,,,,,,,,,,,,,,,,,,,,,,,,,,,,,,,,,,,,,,,,,,,,084682,001,2023-01-30_12h43.20.149,Info_measure_main_exp,2022.2.4,60.07086343488631,
0,131,5,5,1947,2031,absent_patch/patch0001947.jpg,absent_patch/patch0002031.jpg,,,,,,,,,,,,,,0,1,1,15,,,,,,,,,,,,,,,,,,,,,,,,,,,,,,,,,,,,,,,,,,,,,,,,,,,,,,,,,,,,,,,,,,6,0.6640293279997422,1,,,,,,,,,,,,,,,,,,,,,,,,,,,,,,,,,,,,0.008281950998025422,48.102127560000554,48.102127560000554,48.102127560000554,48.102127560000554,0.20444444444444446,0.10777777777777778,1,0,0,response1disk,2,0.006325229999674775,48.7712243900005,48.7712243900005,48.7712243900005,48.7712243900005,-0.005555555555555556,-0.013333333333333334,1,0,0,center_square,084682,001,2023-01-30_12h43.20.149,Info_measure_main_exp,2022.2.4,60.07086343488631,
0,131,5,5,2151,2223,absent_patch/patch0002151.jpg,absent_patch/patch0002223.jpg,masks/mask_002.jpg,,,,,,,,,,,,,0,2,2,17,0,0,0,1,,,,,,,,,,,,,,,,,,,,,,,,,,,,,,,,,,,,,,,,,,,,,,51.021609401000205,,,,,,,,,,,,,,,,,,,,,,,,,,,,,,,,,,,,,,,,,,,,,,50.340859710000586,50.83995298900027,50.989771077000114,51.021609401000205,,,,,,,,,,,,,,,,,,,,,,,,,,,,084682,001,2023-01-30_12h43.20.149,Info_measure_main_exp,2022.2.4,60.07086343488631,
0,131,5,5,2151,2223,absent_patch/patch0002151.jpg,absent_patch/patch0002223.jpg,masks/mask_005.jpg,,,,,,,,,,,,,0,2,2,17,0,1,1,4,,,,,,,,,,,,,,,,,,,,,,,,,,,,,,,,,,,,,,,,,,,,,,51.07497278500068,,,,,,,,,,,,,,,,,,,,,,,,,,,,,,,,,,,,,,,,,,,,,,,,,,,,,,,,,,,,,,,,,,,,,,,,,,,,,084682,001,2023-01-30_12h43.20.149,Info_measure_main_exp,2022.2.4,60.07086343488631,
0,131,5,5,2151,2223,absent_patch/patch0002151.jpg,absent_patch/patch0002223.jpg,masks/mask_001.jpg,,,,,,,,,,,,,0,2,2,17,0,2,2,0,,,,,,,,,,,,,,,,,,,,,,,,,,,,,,,,,,,,,,,,,,,,,,51.14547512600075,,,,,,,,,,,,,,,,,,,,,,,,,,,,,,,,,,,,,,,,,,,,,,,,,,,,,,,,,,,,,,,,,,,,,,,,,,,,,084682,001,2023-01-30_12h43.20.149,Info_measure_main_exp,2022.2.4,60.07086343488631,
0,131,5,5,2151,2223,absent_patch/patch0002151.jpg,absent_patch/patch0002223.jpg,masks/mask_003.jpg,,,,,,,,,,,,,0,2,2,17,0,3,3,2,,,,,,,,,,,,,,,,,,,,,,,,,,,,,,,,,,,,,,,,,,,,,,51.198495927000295,,,,,,,,,,,,,,,,,,,,,,,,,,,,,,,,,,,,,,,,,,,,,,,,,,,,,,,,,,,,,,,,,,,,,,,,,,,,,084682,001,2023-01-30_12h43.20.149,Info_measure_main_exp,2022.2.4,60.07086343488631,
0,131,5,5,2151,2223,absent_patch/patch0002151.jpg,absent_patch/patch0002223.jpg,masks/mask_004.jpg,,,,,,,,,,,,,0,2,2,17,0,4,4,3,,,,,,,,,,,,,,,,,,,,,,,,,,,,,,,,,,,,,,,,,,,,,,51.267405832000804,,,,,,,,,,,,,,,,,,,,,,,,,,,,,,,,,,,,,,,,,,,,,,,,,,,,,,,,,,,,,,,,,,,,,,,,,,,,,084682,001,2023-01-30_12h43.20.149,Info_measure_main_exp,2022.2.4,60.07086343488631,
0,131,5,5,2151,2223,absent_patch/patch0002151.jpg,absent_patch/patch0002223.jpg,masks/mask_003.jpg,,,,,,,,,,,,,0,2,2,17,,,,,0,0,0,2,,,,,,,,,,,,,,,,,,,,,,,,,,,,,,,,,,,,,,,,,,51.98931579700002,,,,,,,,,,,,,,,,,,,,,,,,,,,,,,,,,,,,,,,,,,,,,,,,,,51.31389013700027,51.80658324600063,51.95633142400038,51.98931579700002,,,,,,,,,,,,,,,,,,,,,,,,084682,001,2023-01-30_12h43.20.149,Info_measure_main_exp,2022.2.4,60.07086343488631,
0,131,5,5,2151,2223,absent_patch/patch0002151.jpg,absent_patch/patch0002223.jpg,masks/mask_002.jpg,,,,,,,,,,,,,0,2,2,17,,,,,0,1,1,1,,,,,,,,,,,,,,,,,,,,,,,,,,,,,,,,,,,,,,,,,,52.04177347700079,,,,,,,,,,,,,,,,,,,,,,,,,,,,,,,,,,,,,,,,,,,,,,,,,,,,,,,,,,,,,,,,,,,,,,,,,,,,,084682,001,2023-01-30_12h43.20.149,Info_measure_main_exp,2022.2.4,60.07086343488631,
0,131,5,5,2151,2223,absent_patch/patch0002151.jpg,absent_patch/patch0002223.jpg,masks/mask_004.jpg,,,,,,,,,,,,,0,2,2,17,,,,,0,2,2,3,,,,,,,,,,,,,,,,,,,,,,,,,,,,,,,,,,,,,,,,,,52.113237284000206,,,,,,,,,,,,,,,,,,,,,,,,,,,,,,,,,,,,,,,,,,,,,,,,,,,,,,,,,,,,,,,,,,,,,,,,,,,,,084682,001,2023-01-30_12h43.20.149,Info_measure_main_exp,2022.2.4,60.07086343488631,
0,131,5,5,2151,2223,absent_patch/patch0002151.jpg,absent_patch/patch0002223.jpg,masks/mask_001.jpg,,,,,,,,,,,,,0,2,2,17,,,,,0,3,3,0,,,,,,,,,,,,,,,,,,,,,,,,,,,,,,,,,,,,,,,,,,52.165843193,,,,,,,,,,,,,,,,,,,,,,,,,,,,,,,,,,,,,,,,,,,,,,,,,,,,,,,,,,,,,,,,,,,,,,,,,,,,,084682,001,2023-01-30_12h43.20.149,Info_measure_main_exp,2022.2.4,60.07086343488631,
0,131,5,5,2151,2223,absent_patch/patch0002151.jpg,absent_patch/patch0002223.jpg,masks/mask_005.jpg,,,,,,,,,,,,,0,2,2,17,,,,,0,4,4,4,,,,,,,,,,,,,,,,,,,,,,,,,,,,,,,,,,,,,,,,,,52.238599474000694,,,,,,,,,,,,,,,,,,,,,,,,,,,,,,,,,,,,,,,,,,,,,,,,,,,,,,,,,,,,,,,,,,,,,,,,,,,,,084682,001,2023-01-30_12h43.20.149,Info_measure_main_exp,2022.2.4,60.07086343488631,
0,131,5,5,2151,2223,absent_patch/patch0002151.jpg,absent_patch/patch0002223.jpg,,,,,,,,,,,,,,0,2,2,17,,,,,,,,,,,,,,,,,,,,,,,,,,,,,,,,,,,,,,,,,,,,,,,,,,,,,,,,,,,,,,,,,,5,0.6206696250001187,1,,,,,,,,,,,,,,,,,,,,,,,,,,,,,,,,,,,,0.016408171997682075,52.29388628000015,52.29388628000015,52.29388628000015,52.29388628000015,0.17555555555555555,-0.056666666666666664,1,0,0,response3disk,3,0.011122056000203884,52.92669346599996,52.92669346599996,52.92669346599996,52.92669346599996,0.012222222222222223,-0.01,1,0,0,center_square,084682,001,2023-01-30_12h43.20.149,Info_measure_main_exp,2022.2.4,60.07086343488631,
0,131,5,5,2247,2211,absent_patch/patch0002247.jpg,absent_patch/patch0002211.jpg,masks/mask_004.jpg,,,,,,,,,,,,,0,3,3,109,0,0,0,3,,,,,,,,,,,,,,,,,,,,,,,,,,,,,,,,,,,,,,,,,,,,,,56.256942322000214,,,,,,,,,,,,,,,,,,,,,,,,,,,,,,,,,,,,,,,,,,,,,,55.58924063700033,56.07523701900027,56.256942322000214,56.256942322000214,,,,,,,,,,,,,,,,,,,,,,,,,,,,084682,001,2023-01-30_12h43.20.149,Info_measure_main_exp,2022.2.4,60.07086343488631,
0,131,5,5,2247,2211,absent_patch/patch0002247.jpg,absent_patch/patch0002211.jpg,masks/mask_002.jpg,,,,,,,,,,,,,0,3,3,109,0,1,1,1,,,,,,,,,,,,,,,,,,,,,,,,,,,,,,,,,,,,,,,,,,,,,,56.31135348400039,,,,,,,,,,,,,,,,,,,,,,,,,,,,,,,,,,,,,,,,,,,,,,,,,,,,,,,,,,,,,,,,,,,,,,,,,,,,,084682,001,2023-01-30_12h43.20.149,Info_measure_main_exp,2022.2.4,60.07086343488631,
0,131,5,5,2247,2211,absent_patch/patch0002247.jpg,absent_patch/patch0002211.jpg,masks/mask_005.jpg,,,,,,,,,,,,,0,3,3,109,0,2,2,4,,,,,,,,,,,,,,,,,,,,,,,,,,,,,,,,,,,,,,,,,,,,,,56.381436502000724,,,,,,,,,,,,,,,,,,,,,,,,,,,,,,,,,,,,,,,,,,,,,,,,,,,,,,,,,,,,,,,,,,,,,,,,,,,,,084682,001,2023-01-30_12h43.20.149,Info_measure_main_exp,2022.2.4,60.07086343488631,
0,131,5,5,2247,2211,absent_patch/patch0002247.jpg,absent_patch/patch0002211.jpg,masks/mask_003.jpg,,,,,,,,,,,,,0,3,3,109,0,3,3,2,,,,,,,,,,,,,,,,,,,,,,,,,,,,,,,,,,,,,,,,,,,,,,56.434627397999975,,,,,,,,,,,,,,,,,,,,,,,,,,,,,,,,,,,,,,,,,,,,,,,,,,,,,,,,,,,,,,,,,,,,,,,,,,,,,084682,001,2023-01-30_12h43.20.149,Info_measure_main_exp,2022.2.4,60.07086343488631,
0,131,5,5,2247,2211,absent_patch/patch0002247.jpg,absent_patch/patch0002211.jpg,masks/mask_001.jpg,,,,,,,,,,,,,0,3,3,109,0,4,4,0,,,,,,,,,,,,,,,,,,,,,,,,,,,,,,,,,,,,,,,,,,,,,,56.502812682000695,,,,,,,,,,,,,,,,,,,,,,,,,,,,,,,,,,,,,,,,,,,,,,,,,,,,,,,,,,,,,,,,,,,,,,,,,,,,,084682,001,2023-01-30_12h43.20.149,Info_measure_main_exp,2022.2.4,60.07086343488631,
0,131,5,5,2247,2211,absent_patch/patch0002247.jpg,absent_patch/patch0002211.jpg,masks/mask_002.jpg,,,,,,,,,,,,,0,3,3,109,,,,,0,0,0,1,,,,,,,,,,,,,,,,,,,,,,,,,,,,,,,,,,,,,,,,,,57.22179977900032,,,,,,,,,,,,,,,,,,,,,,,,,,,,,,,,,,,,,,,,,,,,,,,,,,56.54933413300023,57.03996368400021,57.189845316000174,57.22179977900032,,,,,,,,,,,,,,,,,,,,,,,,084682,001,2023-01-30_12h43.20.149,Info_measure_main_exp,2022.2.4,60.07086343488631,
0,131,5,5,2247,2211,absent_patch/patch0002247.jpg,absent_patch/patch0002211.jpg,masks/mask_004.jpg,,,,,,,,,,,,,0,3,3,109,,,,,0,1,1,3,,,,,,,,,,,,,,,,,,,,,,,,,,,,,,,,,,,,,,,,,,57.275201171000845,,,,,,,,,,,,,,,,,,,,,,,,,,,,,,,,,,,,,,,,,,,,,,,,,,,,,,,,,,,,,,,,,,,,,,,,,,,,,084682,001,2023-01-30_12h43.20.149,Info_measure_main_exp,2022.2.4,60.07086343488631,
0,131,5,5,2247,2211,absent_patch/patch0002247.jpg,absent_patch/patch0002211.jpg,masks/mask_005.jpg,,,,,,,,,,,,,0,3,3,109,,,,,0,2,2,4,,,,,,,,,,,,,,,,,,,,,,,,,,,,,,,,,,,,,,,,,,57.3463489880005,,,,,,,,,,,,,,,,,,,,,,,,,,,,,,,,,,,,,,,,,,,,,,,,,,,,,,,,,,,,,,,,,,,,,,,,,,,,,084682,001,2023-01-30_12h43.20.149,Info_measure_main_exp,2022.2.4,60.07086343488631,
0,131,5,5,2247,2211,absent_patch/patch0002247.jpg,absent_patch/patch0002211.jpg,masks/mask_003.jpg,,,,,,,,,,,,,0,3,3,109,,,,,0,3,3,2,,,,,,,,,,,,,,,,,,,,,,,,,,,,,,,,,,,,,,,,,,57.40053727300074,,,,,,,,,,,,,,,,,,,,,,,,,,,,,,,,,,,,,,,,,,,,,,,,,,,,,,,,,,,,,,,,,,,,,,,,,,,,,084682,001,2023-01-30_12h43.20.149,Info_measure_main_exp,2022.2.4,60.07086343488631,
0,131,5,5,2247,2211,absent_patch/patch0002247.jpg,absent_patch/patch0002211.jpg,masks/mask_001.jpg,,,,,,,,,,,,,0,3,3,109,,,,,0,4,4,0,,,,,,,,,,,,,,,,,,,,,,,,,,,,,,,,,,,,,,,,,,57.45437037700049,,,,,,,,,,,,,,,,,,,,,,,,,,,,,,,,,,,,,,,,,,,,,,,,,,,,,,,,,,,,,,,,,,,,,,,,,,,,,084682,001,2023-01-30_12h43.20.149,Info_measure_main_exp,2022.2.4,60.07086343488631,
0,131,5,5,2247,2211,absent_patch/patch0002247.jpg,absent_patch/patch0002211.jpg,,,,,,,,,,,,,,0,3,3,109,,,,,,,,,,,,,,,,,,,,,,,,,,,,,,,,,,,,,,,,,,,,,,,,,,,,,,,,,,,,,,,,,,6,0.6936638899996979,1,,,,,,,,,,,,,,,,,,,,,,,,,,,,,,,,,,,,0.016547787997296837,57.528146628000286,57.528146628000286,57.528146628000286,57.528146628000286,0.2511111111111111,0.1388888888888889,1,0,0,response1disk,4,0.007741020000139542,58.229097226000704,58.229097226000704,58.229097226000704,58.229097226000704,-0.0077777777777777776,-0.034444444444444444,1,0,0,center_square,084682,001,2023-01-30_12h43.20.149,Info_measure_main_exp,2022.2.4,60.07086343488631,
0,131,5,5,2031,1995,absent_patch/patch0002031.jpg,absent_patch/patch0001995.jpg,masks/mask_005.jpg,,,,,,,,,,,,,0,4,4,79,0,0,0,4,,,,,,,,,,,,,,,,,,,,,,,,,,,,,,,,,,,,,,,,,,,,,,59.88943581000058,,,,,,,,,,,,,,,,,,,,,,,,,,,,,,,,,,,,,,,,,,,,,,59.21187474300041,59.710031311999956,59.88943581000058,59.88943581000058,,,,,,,,,,,,,,,,,,,,,,,,,,,,084682,001,2023-01-30_12h43.20.149,Info_measure_main_exp,2022.2.4,60.07086343488631,
0,131,5,5,2031,1995,absent_patch/patch0002031.jpg,absent_patch/patch0001995.jpg,masks/mask_004.jpg,,,,,,,,,,,,,0,4,4,79,0,1,1,3,,,,,,,,,,,,,,,,,,,,,,,,,,,,,,,,,,,,,,,,,,,,,,59.942344040000535,,,,,,,,,,,,,,,,,,,,,,,,,,,,,,,,,,,,,,,,,,,,,,,,,,,,,,,,,,,,,,,,,,,,,,,,,,,,,084682,001,2023-01-30_12h43.20.149,Info_measure_main_exp,2022.2.4,60.07086343488631,
0,131,5,5,2031,1995,absent_patch/patch0002031.jpg,absent_patch/patch0001995.jpg,masks/mask_001.jpg,,,,,,,,,,,,,0,4,4,79,0,2,2,0,,,,,,,,,,,,,,,,,,,,,,,,,,,,,,,,,,,,,,,,,,,,,,60.012287293000554,,,,,,,,,,,,,,,,,,,,,,,,,,,,,,,,,,,,,,,,,,,,,,,,,,,,,,,,,,,,,,,,,,,,,,,,,,,,,084682,001,2023-01-30_12h43.20.149,Info_measure_main_exp,2022.2.4,60.07086343488631,
0,131,5,5,2031,1995,absent_patch/patch0002031.jpg,absent_patch/patch0001995.jpg,masks/mask_002.jpg,,,,,,,,,,,,,0,4,4,79,0,3,3,1,,,,,,,,,,,,,,,,,,,,,,,,,,,,,,,,,,,,,,,,,,,,,,60.064323360000344,,,,,,,,,,,,,,,,,,,,,,,,,,,,,,,,,,,,,,,,,,,,,,,,,,,,,,,,,,,,,,,,,,,,,,,,,,,,,084682,001,2023-01-30_12h43.20.149,Info_measure_main_exp,2022.2.4,60.07086343488631,
0,131,5,5,2031,1995,absent_patch/patch0002031.jpg,absent_patch/patch0001995.jpg,masks/mask_003.jpg,,,,,,,,,,,,,0,4,4,79,0,4,4,2,,,,,,,,,,,,,,,,,,,,,,,,,,,,,,,,,,,,,,,,,,,,,,60.13313459500023,,,,,,,,,,,,,,,,,,,,,,,,,,,,,,,,,,,,,,,,,,,,,,,,,,,,,,,,,,,,,,,,,,,,,,,,,,,,,084682,001,2023-01-30_12h43.20.149,Info_measure_main_exp,2022.2.4,60.07086343488631,
0,131,5,5,2031,1995,absent_patch/patch0002031.jpg,absent_patch/patch0001995.jpg,masks/mask_003.jpg,,,,,,,,,,,,,0,4,4,79,,,,,0,0,0,2,,,,,,,,,,,,,,,,,,,,,,,,,,,,,,,,,,,,,,,,,,60.85357530500005,,,,,,,,,,,,,,,,,,,,,,,,,,,,,,,,,,,,,,,,,,,,,,,,,,60.179604959000244,60.67285651900056,60.82289248899997,60.85357530500005,,,,,,,,,,,,,,,,,,,,,,,,084682,001,2023-01-30_12h43.20.149,Info_measure_main_exp,2022.2.4,60.07086343488631,
0,131,5,5,2031,1995,absent_patch/patch0002031.jpg,absent_patch/patch0001995.jpg,masks/mask_001.jpg,,,,,,,,,,,,,0,4,4,79,,,,,0,1,1,0,,,,,,,,,,,,,,,,,,,,,,,,,,,,,,,,,,,,,,,,,,60.92131303500082,,,,,,,,,,,,,,,,,,,,,,,,,,,,,,,,,,,,,,,,,,,,,,,,,,,,,,,,,,,,,,,,,,,,,,,,,,,,,084682,001,2023-01-30_12h43.20.149,Info_measure_main_exp,2022.2.4,60.07086343488631,
0,131,5,5,2031,1995,absent_patch/patch0002031.jpg,absent_patch/patch0001995.jpg,masks/mask_002.jpg,,,,,,,,,,,,,0,4,4,79,,,,,0,2,2,1,,,,,,,,,,,,,,,,,,,,,,,,,,,,,,,,,,,,,,,,,,60.973623829000644,,,,,,,,,,,,,,,,,,,,,,,,,,,,,,,,,,,,,,,,,,,,,,,,,,,,,,,,,,,,,,,,,,,,,,,,,,,,,084682,001,2023-01-30_12h43.20.149,Info_measure_main_exp,2022.2.4,60.07086343488631,
0,131,5,5,2031,1995,absent_patch/patch0002031.jpg,absent_patch/patch0001995.jpg,masks/mask_004.jpg,,,,,,,,,,,,,0,4,4,79,,,,,0,3,3,3,,,,,,,,,,,,,,,,,,,,,,,,,,,,,,,,,,,,,,,,,,61.02753753700017,,,,,,,,,,,,,,,,,,,,,,,,,,,,,,,,,,,,,,,,,,,,,,,,,,,,,,,,,,,,,,,,,,,,,,,,,,,,,084682,001,2023-01-30_12h43.20.149,Info_measure_main_exp,2022.2.4,60.07086343488631,
0,131,5,5,2031,1995,absent_patch/patch0002031.jpg,absent_patch/patch0001995.jpg,masks/mask_005.jpg,,,,,,,,,,,,,0,4,4,79,,,,,0,4,4,4,,,,,,,,,,,,,,,,,,,,,,,,,,,,,,,,,,,,,,,,,,61.09695870900032,,,,,,,,,,,,,,,,,,,,,,,,,,,,,,,,,,,,,,,,,,,,,,,,,,,,,,,,,,,,,,,,,,,,,,,,,,,,,084682,001,2023-01-30_12h43.20.149,Info_measure_main_exp,2022.2.4,60.07086343488631,
0,131,5,5,2031,1995,absent_patch/patch0002031.jpg,absent_patch/patch0001995.jpg,,,,,,,,,,,,,,0,4,4,79,,,,,,,,,,,,,,,,,,,,,,,,,,,,,,,,,,,,,,,,,,,,,,,,,,,,,,,,,,,,,,,,,,4,0.7306374629997663,1,,,,,,,,,,,,,,,,,,,,,,,,,,,,,,,,,,,,0.006264324997573567,61.14858109600027,61.14858109600027,61.14858109600027,61.14858109600027,0.12777777777777777,-0.2222222222222222,1,0,0,response3disk,5,0.009609095000087109,61.89078535200042,61.89078535200042,61.89078535200042,61.89078535200042,-0.024444444444444446,-0.0077777777777777776,1,0,0,center_square,084682,001,2023-01-30_12h43.20.149,Info_measure_main_exp,2022.2.4,60.07086343488631,
0,131,5,5,2247,2367,absent_patch/patch0002247.jpg,absent_patch/patch0002367.jpg,masks/mask_004.jpg,,,,,,,,,,,,,0,5,5,77,0,0,0,3,,,,,,,,,,,,,,,,,,,,,,,,,,,,,,,,,,,,,,,,,,,,,,63.65460617200006,,,,,,,,,,,,,,,,,,,,,,,,,,,,,,,,,,,,,,,,,,,,,,62.979872296000394,63.473165480000716,63.62287401000049,63.65460617200006,,,,,,,,,,,,,,,,,,,,,,,,,,,,084682,001,2023-01-30_12h43.20.149,Info_measure_main_exp,2022.2.4,60.07086343488631,
0,131,5,5,2247,2367,absent_patch/patch0002247.jpg,absent_patch/patch0002367.jpg,masks/mask_003.jpg,,,,,,,,,,,,,0,5,5,77,0,1,1,2,,,,,,,,,,,,,,,,,,,,,,,,,,,,,,,,,,,,,,,,,,,,,,63.70709734600041,,,,,,,,,,,,,,,,,,,,,,,,,,,,,,,,,,,,,,,,,,,,,,,,,,,,,,,,,,,,,,,,,,,,,,,,,,,,,084682,001,2023-01-30_12h43.20.149,Info_measure_main_exp,2022.2.4,60.07086343488631,
0,131,5,5,2247,2367,absent_patch/patch0002247.jpg,absent_patch/patch0002367.jpg,masks/mask_002.jpg,,,,,,,,,,,,,0,5,5,77,0,2,2,1,,,,,,,,,,,,,,,,,,,,,,,,,,,,,,,,,,,,,,,,,,,,,,63.77792777400009,,,,,,,,,,,,,,,,,,,,,,,,,,,,,,,,,,,,,,,,,,,,,,,,,,,,,,,,,,,,,,,,,,,,,,,,,,,,,084682,001,2023-01-30_12h43.20.149,Info_measure_main_exp,2022.2.4,60.07086343488631,
0,131,5,5,2247,2367,absent_patch/patch0002247.jpg,absent_patch/patch0002367.jpg,masks/mask_005.jpg,,,,,,,,,,,,,0,5,5,77,0,3,3,4,,,,,,,,,,,,,,,,,,,,,,,,,,,,,,,,,,,,,,,,,,,,,,63.83113446600055,,,,,,,,,,,,,,,,,,,,,,,,,,,,,,,,,,,,,,,,,,,,,,,,,,,,,,,,,,,,,,,,,,,,,,,,,,,,,084682,001,2023-01-30_12h43.20.149,Info_measure_main_exp,2022.2.4,60.07086343488631,
0,131,5,5,2247,2367,absent_patch/patch0002247.jpg,absent_patch/patch0002367.jpg,masks/mask_001.jpg,,,,,,,,,,,,,0,5,5,77,0,4,4,0,,,,,,,,,,,,,,,,,,,,,,,,,,,,,,,,,,,,,,,,,,,,,,63.899555016000704,,,,,,,,,,,,,,,,,,,,,,,,,,,,,,,,,,,,,,,,,,,,,,,,,,,,,,,,,,,,,,,,,,,,,,,,,,,,,084682,001,2023-01-30_12h43.20.149,Info_measure_main_exp,2022.2.4,60.07086343488631,
0,131,5,5,2247,2367,absent_patch/patch0002247.jpg,absent_patch/patch0002367.jpg,masks/mask_003.jpg,,,,,,,,,,,,,0,5,5,77,,,,,0,0,0,2,,,,,,,,,,,,,,,,,,,,,,,,,,,,,,,,,,,,,,,,,,64.64064032100032,,,,,,,,,,,,,,,,,,,,,,,,,,,,,,,,,,,,,,,,,,,,,,,,,,63.949347347000185,64.42518601500069,64.59443526800078,64.64064032100032,,,,,,,,,,,,,,,,,,,,,,,,084682,001,2023-01-30_12h43.20.149,Info_measure_main_exp,2022.2.4,60.07086343488631,
0,131,5,5,2247,2367,absent_patch/patch0002247.jpg,absent_patch/patch0002367.jpg,masks/mask_005.jpg,,,,,,,,,,,,,0,5,5,77,,,,,0,1,1,4,,,,,,,,,,,,,,,,,,,,,,,,,,,,,,,,,,,,,,,,,,64.68582447100016,,,,,,,,,,,,,,,,,,,,,,,,,,,,,,,,,,,,,,,,,,,,,,,,,,,,,,,,,,,,,,,,,,,,,,,,,,,,,084682,001,2023-01-30_12h43.20.149,Info_measure_main_exp,2022.2.4,60.07086343488631,
0,131,5,5,2247,2367,absent_patch/patch0002247.jpg,absent_patch/patch0002367.jpg,masks/mask_002.jpg,,,,,,,,,,,,,0,5,5,77,,,,,0,2,2,1,,,,,,,,,,,,,,,,,,,,,,,,,,,,,,,,,,,,,,,,,,64.74429323200002,,,,,,,,,,,,,,,,,,,,,,,,,,,,,,,,,,,,,,,,,,,,,,,,,,,,,,,,,,,,,,,,,,,,,,,,,,,,,084682,001,2023-01-30_12h43.20.149,Info_measure_main_exp,2022.2.4,60.07086343488631,
0,131,5,5,2247,2367,absent_patch/patch0002247.jpg,absent_patch/patch0002367.jpg,masks/mask_001.jpg,,,,,,,,,,,,,0,5,5,77,,,,,0,3,3,0,,,,,,,,,,,,,,,,,,,,,,,,,,,,,,,,,,,,,,,,,,64.80387785000039,,,,,,,,,,,,,,,,,,,,,,,,,,,,,,,,,,,,,,,,,,,,,,,,,,,,,,,,,,,,,,,,,,,,,,,,,,,,,084682,001,2023-01-30_12h43.20.149,Info_measure_main_exp,2022.2.4,60.07086343488631,
0,131,5,5,2247,2367,absent_patch/patch0002247.jpg,absent_patch/patch0002367.jpg,masks/mask_004.jpg,,,,,,,,,,,,,0,5,5,77,,,,,0,4,4,3,,,,,,,,,,,,,,,,,,,,,,,,,,,,,,,,,,,,,,,,,,64.8759356340006,,,,,,,,,,,,,,,,,,,,,,,,,,,,,,,,,,,,,,,,,,,,,,,,,,,,,,,,,,,,,,,,,,,,,,,,,,,,,084682,001,2023-01-30_12h43.20.149,Info_measure_main_exp,2022.2.4,60.07086343488631,
0,131,5,5,2247,2367,absent_patch/patch0002247.jpg,absent_patch/patch0002367.jpg,,,,,,,,,,,,,,0,5,5,77,,,,,,,,,,,,,,,,,,,,,,,,,,,,,,,,,,,,,,,,,,,,,,,,,,,,,,,,,,,,,,,,,,0,1.4892404000001989,1,,,,,,,,,,,,,,,,,,,,,,,,,,,,,,,,,,,,0.015991471997949702,64.93637967200084,64.93637967200084,64.93637967200084,64.93637967200084,-0.07888888888888888,0.2866666666666667,1,0,0,response7disk,6,0.008021300999644154,66.43026444500083,66.43026444500083,66.43026444500083,66.43026444500083,0.023333333333333334,0.0022222222222222222,1,0,0,center_square,084682,001,2023-01-30_12h43.20.149,Info_measure_main_exp,2022.2.4,60.07086343488631,
0,131,5,5,2367,2367,absent_patch/patch0002367.jpg,absent_patch/patch0002367.jpg,masks/mask_001.jpg,,,,,,,,,,,,,0,6,6,16,0,0,0,0,,,,,,,,,,,,,,,,,,,,,,,,,,,,,,,,,,,,,,,,,,,,,,68.55461609700069,,,,,,,,,,,,,,,,,,,,,,,,,,,,,,,,,,,,,,,,,,,,,,67.8766458,68.3729057190003,68.52288936500008,68.55461609700069,,,,,,,,,,,,,,,,,,,,,,,,,,,,084682,001,2023-01-30_12h43.20.149,Info_measure_main_exp,2022.2.4,60.07086343488631,
0,131,5,5,2367,2367,absent_patch/patch0002367.jpg,absent_patch/patch0002367.jpg,masks/mask_002.jpg,,,,,,,,,,,,,0,6,6,16,0,1,1,1,,,,,,,,,,,,,,,,,,,,,,,,,,,,,,,,,,,,,,,,,,,,,,68.60837488400011,,,,,,,,,,,,,,,,,,,,,,,,,,,,,,,,,,,,,,,,,,,,,,,,,,,,,,,,,,,,,,,,,,,,,,,,,,,,,084682,001,2023-01-30_12h43.20.149,Info_measure_main_exp,2022.2.4,60.07086343488631,
0,131,5,5,2367,2367,absent_patch/patch0002367.jpg,absent_patch/patch0002367.jpg,masks/mask_004.jpg,,,,,,,,,,,,,0,6,6,16,0,2,2,3,,,,,,,,,,,,,,,,,,,,,,,,,,,,,,,,,,,,,,,,,,,,,,68.67933257300047,,,,,,,,,,,,,,,,,,,,,,,,,,,,,,,,,,,,,,,,,,,,,,,,,,,,,,,,,,,,,,,,,,,,,,,,,,,,,084682,001,2023-01-30_12h43.20.149,Info_measure_main_exp,2022.2.4,60.07086343488631,
0,131,5,5,2367,2367,absent_patch/patch0002367.jpg,absent_patch/patch0002367.jpg,masks/mask_005.jpg,,,,,,,,,,,,,0,6,6,16,0,3,3,4,,,,,,,,,,,,,,,,,,,,,,,,,,,,,,,,,,,,,,,,,,,,,,68.7323043510005,,,,,,,,,,,,,,,,,,,,,,,,,,,,,,,,,,,,,,,,,,,,,,,,,,,,,,,,,,,,,,,,,,,,,,,,,,,,,084682,001,2023-01-30_12h43.20.149,Info_measure_main_exp,2022.2.4,60.07086343488631,
0,131,5,5,2367,2367,absent_patch/patch0002367.jpg,absent_patch/patch0002367.jpg,masks/mask_003.jpg,,,,,,,,,,,,,0,6,6,16,0,4,4,2,,,,,,,,,,,,,,,,,,,,,,,,,,,,,,,,,,,,,,,,,,,,,,68.8003721670002,,,,,,,,,,,,,,,,,,,,,,,,,,,,,,,,,,,,,,,,,,,,,,,,,,,,,,,,,,,,,,,,,,,,,,,,,,,,,084682,001,2023-01-30_12h43.20.149,Info_measure_main_exp,2022.2.4,60.07086343488631,
0,131,5,5,2367,2367,absent_patch/patch0002367.jpg,absent_patch/patch0002367.jpg,masks/mask_003.jpg,,,,,,,,,,,,,0,6,6,16,,,,,0,0,0,2,,,,,,,,,,,,,,,,,,,,,,,,,,,,,,,,,,,,,,,,,,69.52047754400064,,,,,,,,,,,,,,,,,,,,,,,,,,,,,,,,,,,,,,,,,,,,,,,,,,68.84638102000008,69.32288013200014,69.47342290800043,69.52047754400064,,,,,,,,,,,,,,,,,,,,,,,,084682,001,2023-01-30_12h43.20.149,Info_measure_main_exp,2022.2.4,60.07086343488631,
0,131,5,5,2367,2367,absent_patch/patch0002367.jpg,absent_patch/patch0002367.jpg,masks/mask_004.jpg,,,,,,,,,,,,,0,6,6,16,,,,,0,1,1,3,,,,,,,,,,,,,,,,,,,,,,,,,,,,,,,,,,,,,,,,,,69.57297355800074,,,,,,,,,,,,,,,,,,,,,,,,,,,,,,,,,,,,,,,,,,,,,,,,,,,,,,,,,,,,,,,,,,,,,,,,,,,,,084682,001,2023-01-30_12h43.20.149,Info_measure_main_exp,2022.2.4,60.07086343488631,
0,131,5,5,2367,2367,absent_patch/patch0002367.jpg,absent_patch/patch0002367.jpg,masks/mask_002.jpg,,,,,,,,,,,,,0,6,6,16,,,,,0,2,2,1,,,,,,,,,,,,,,,,,,,,,,,,,,,,,,,,,,,,,,,,,,69.6453649770001,,,,,,,,,,,,,,,,,,,,,,,,,,,,,,,,,,,,,,,,,,,,,,,,,,,,,,,,,,,,,,,,,,,,,,,,,,,,,084682,001,2023-01-30_12h43.20.149,Info_measure_main_exp,2022.2.4,60.07086343488631,
0,131,5,5,2367,2367,absent_patch/patch0002367.jpg,absent_patch/patch0002367.jpg,masks/mask_005.jpg,,,,,,,,,,,,,0,6,6,16,,,,,0,3,3,4,,,,,,,,,,,,,,,,,,,,,,,,,,,,,,,,,,,,,,,,,,69.70044258600046,,,,,,,,,,,,,,,,,,,,,,,,,,,,,,,,,,,,,,,,,,,,,,,,,,,,,,,,,,,,,,,,,,,,,,,,,,,,,084682,001,2023-01-30_12h43.20.149,Info_measure_main_exp,2022.2.4,60.07086343488631,
0,131,5,5,2367,2367,absent_patch/patch0002367.jpg,absent_patch/patch0002367.jpg,masks/mask_001.jpg,,,,,,,,,,,,,0,6,6,16,,,,,0,4,4,0,,,,,,,,,,,,,,,,,,,,,,,,,,,,,,,,,,,,,,,,,,69.75579672399999,,,,,,,,,,,,,,,,,,,,,,,,,,,,,,,,,,,,,,,,,,,,,,,,,,,,,,,,,,,,,,,,,,,,,,,,,,,,,084682,001,2023-01-30_12h43.20.149,Info_measure_main_exp,2022.2.4,60.07086343488631,
0,131,5,5,2367,2367,absent_patch/patch0002367.jpg,absent_patch/patch0002367.jpg,,,,,,,,,,,,,,0,6,6,16,,,,,,,,,,,,,,,,,,,,,,,,,,,,,,,,,,,,,,,,,,,,,,,,,,,,,,,,,,,,,,,,,,0,0.5403455730001951,1,,,,,,,,,,,,,,,,,,,,,,,,,,,,,,,,,,,,0.016111612997519842,69.82553181000003,69.82553181000003,69.82553181000003,69.82553181000003,-0.09888888888888889,0.29555555555555557,1,0,0,response7disk,7,0.009327969999503694,70.37580073200024,70.37580073200024,70.37580073200024,70.37580073200024,-0.016666666666666666,-0.014444444444444444,1,0,0,center_square,084682,001,2023-01-30_12h43.20.149,Info_measure_main_exp,2022.2.4,60.07086343488631,
0,131,5,5,2151,2079,absent_patch/patch0002151.jpg,absent_patch/patch0002079.jpg,masks/mask_002.jpg,,,,,,,,,,,,,0,7,7,76,0,0,0,1,,,,,,,,,,,,,,,,,,,,,,,,,,,,,,,,,,,,,,,,,,,,,,71.65565597500063,,,,,,,,,,,,,,,,,,,,,,,,,,,,,,,,,,,,,,,,,,,,,,70.98884947400074,71.47292835799999,71.62302946199998,71.65565597500063,,,,,,,,,,,,,,,,,,,,,,,,,,,,084682,001,2023-01-30_12h43.20.149,Info_measure_main_exp,2022.2.4,60.07086343488631,
0,131,5,5,2151,2079,absent_patch/patch0002151.jpg,absent_patch/patch0002079.jpg,masks/mask_005.jpg,,,,,,,,,,,,,0,7,7,76,0,1,1,4,,,,,,,,,,,,,,,,,,,,,,,,,,,,,,,,,,,,,,,,,,,,,,71.70952205899994,,,,,,,,,,,,,,,,,,,,,,,,,,,,,,,,,,,,,,,,,,,,,,,,,,,,,,,,,,,,,,,,,,,,,,,,,,,,,084682,001,2023-01-30_12h43.20.149,Info_measure_main_exp,2022.2.4,60.07086343488631,
0,131,5,5,2151,2079,absent_patch/patch0002151.jpg,absent_patch/patch0002079.jpg,masks/mask_001.jpg,,,,,,,,,,,,,0,7,7,76,0,2,2,0,,,,,,,,,,,,,,,,,,,,,,,,,,,,,,,,,,,,,,,,,,,,,,71.78044736400079,,,,,,,,,,,,,,,,,,,,,,,,,,,,,,,,,,,,,,,,,,,,,,,,,,,,,,,,,,,,,,,,,,,,,,,,,,,,,084682,001,2023-01-30_12h43.20.149,Info_measure_main_exp,2022.2.4,60.07086343488631,
0,131,5,5,2151,2079,absent_patch/patch0002151.jpg,absent_patch/patch0002079.jpg,masks/mask_004.jpg,,,,,,,,,,,,,0,7,7,76,0,3,3,3,,,,,,,,,,,,,,,,,,,,,,,,,,,,,,,,,,,,,,,,,,,,,,71.83509414000036,,,,,,,,,,,,,,,,,,,,,,,,,,,,,,,,,,,,,,,,,,,,,,,,,,,,,,,,,,,,,,,,,,,,,,,,,,,,,084682,001,2023-01-30_12h43.20.149,Info_measure_main_exp,2022.2.4,60.07086343488631,
0,131,5,5,2151,2079,absent_patch/patch0002151.jpg,absent_patch/patch0002079.jpg,masks/mask_003.jpg,,,,,,,,,,,,,0,7,7,76,0,4,4,2,,,,,,,,,,,,,,,,,,,,,,,,,,,,,,,,,,,,,,,,,,,,,,71.89095673300017,,,,,,,,,,,,,,,,,,,,,,,,,,,,,,,,,,,,,,,,,,,,,,,,,,,,,,,,,,,,,,,,,,,,,,,,,,,,,084682,001,2023-01-30_12h43.20.149,Info_measure_main_exp,2022.2.4,60.07086343488631,
0,131,5,5,2151,2079,absent_patch/patch0002151.jpg,absent_patch/patch0002079.jpg,masks/mask_001.jpg,,,,,,,,,,,,,0,7,7,76,,,,,0,0,0,0,,,,,,,,,,,,,,,,,,,,,,,,,,,,,,,,,,,,,,,,,,72.62239135800064,,,,,,,,,,,,,,,,,,,,,,,,,,,,,,,,,,,,,,,,,,,,,,,,,,71.94329327800006,72.43976131199997,72.58982108700002,72.62239135800064,,,,,,,,,,,,,,,,,,,,,,,,084682,001,2023-01-30_12h43.20.149,Info_measure_main_exp,2022.2.4,60.07086343488631,
0,131,5,5,2151,2079,absent_patch/patch0002151.jpg,absent_patch/patch0002079.jpg,masks/mask_002.jpg,,,,,,,,,,,,,0,7,7,76,,,,,0,1,1,1,,,,,,,,,,,,,,,,,,,,,,,,,,,,,,,,,,,,,,,,,,72.67668925100043,,,,,,,,,,,,,,,,,,,,,,,,,,,,,,,,,,,,,,,,,,,,,,,,,,,,,,,,,,,,,,,,,,,,,,,,,,,,,084682,001,2023-01-30_12h43.20.149,Info_measure_main_exp,2022.2.4,60.07086343488631,
0,131,5,5,2151,2079,absent_patch/patch0002151.jpg,absent_patch/patch0002079.jpg,masks/mask_004.jpg,,,,,,,,,,,,,0,7,7,76,,,,,0,2,2,3,,,,,,,,,,,,,,,,,,,,,,,,,,,,,,,,,,,,,,,,,,72.73204333000012,,,,,,,,,,,,,,,,,,,,,,,,,,,,,,,,,,,,,,,,,,,,,,,,,,,,,,,,,,,,,,,,,,,,,,,,,,,,,084682,001,2023-01-30_12h43.20.149,Info_measure_main_exp,2022.2.4,60.07086343488631,
0,131,5,5,2151,2079,absent_patch/patch0002151.jpg,absent_patch/patch0002079.jpg,masks/mask_003.jpg,,,,,,,,,,,,,0,7,7,76,,,,,0,3,3,2,,,,,,,,,,,,,,,,,,,,,,,,,,,,,,,,,,,,,,,,,,72.80663848200038,,,,,,,,,,,,,,,,,,,,,,,,,,,,,,,,,,,,,,,,,,,,,,,,,,,,,,,,,,,,,,,,,,,,,,,,,,,,,084682,001,2023-01-30_12h43.20.149,Info_measure_main_exp,2022.2.4,60.07086343488631,
0,131,5,5,2151,2079,absent_patch/patch0002151.jpg,absent_patch/patch0002079.jpg,masks/mask_005.jpg,,,,,,,,,,,,,0,7,7,76,,,,,0,4,4,4,,,,,,,,,,,,,,,,,,,,,,,,,,,,,,,,,,,,,,,,,,72.86655489700024,,,,,,,,,,,,,,,,,,,,,,,,,,,,,,,,,,,,,,,,,,,,,,,,,,,,,,,,,,,,,,,,,,,,,,,,,,,,,084682,001,2023-01-30_12h43.20.149,Info_measure_main_exp,2022.2.4,60.07086343488631,
0,131,5,5,2151,2079,absent_patch/patch0002151.jpg,absent_patch/patch0002079.jpg,,,,,,,,,,,,,,0,7,7,76,,,,,,,,,,,,,,,,,,,,,,,,,,,,,,,,,,,,,,,,,,,,,,,,,,,,,,,,,,,,,,,,,,5,0.37589168600061384,1,,,,,,,,,,,,,,,,,,,,,,,,,,,,,,,,,,,,0.012710008997601108,72.92542077300004,72.92542077300004,72.92542077300004,72.92542077300004,0.17222222222222222,-0.012222222222222223,1,0,0,response3disk,8,0.010157847999835212,73.30972447000022,73.30972447000022,73.30972447000022,73.30972447000022,0.011111111111111112,0.011111111111111112,1,0,0,center_square,084682,001,2023-01-30_12h43.20.149,Info_measure_main_exp,2022.2.4,60.07086343488631,
0,131,5,5,2151,2271,absent_patch/patch0002151.jpg,absent_patch/patch0002271.jpg,masks/mask_001.jpg,,,,,,,,,,,,,0,8,8,116,0,0,0,0,,,,,,,,,,,,,,,,,,,,,,,,,,,,,,,,,,,,,,,,,,,,,,74.65585068100063,,,,,,,,,,,,,,,,,,,,,,,,,,,,,,,,,,,,,,,,,,,,,,73.98835640300058,74.47293003899995,74.62274840200007,74.65585068100063,,,,,,,,,,,,,,,,,,,,,,,,,,,,084682,001,2023-01-30_12h43.20.149,Info_measure_main_exp,2022.2.4,60.07086343488631,
0,131,5,5,2151,2271,absent_patch/patch0002151.jpg,absent_patch/patch0002271.jpg,masks/mask_005.jpg,,,,,,,,,,,,,0,8,8,116,0,1,1,4,,,,,,,,,,,,,,,,,,,,,,,,,,,,,,,,,,,,,,,,,,,,,,74.7093268510007,,,,,,,,,,,,,,,,,,,,,,,,,,,,,,,,,,,,,,,,,,,,,,,,,,,,,,,,,,,,,,,,,,,,,,,,,,,,,084682,001,2023-01-30_12h43.20.149,Info_measure_main_exp,2022.2.4,60.07086343488631,
0,131,5,5,2151,2271,absent_patch/patch0002151.jpg,absent_patch/patch0002271.jpg,masks/mask_004.jpg,,,,,,,,,,,,,0,8,8,116,0,2,2,3,,,,,,,,,,,,,,,,,,,,,,,,,,,,,,,,,,,,,,,,,,,,,,74.78169429900026,,,,,,,,,,,,,,,,,,,,,,,,,,,,,,,,,,,,,,,,,,,,,,,,,,,,,,,,,,,,,,,,,,,,,,,,,,,,,084682,001,2023-01-30_12h43.20.149,Info_measure_main_exp,2022.2.4,60.07086343488631,
0,131,5,5,2151,2271,absent_patch/patch0002151.jpg,absent_patch/patch0002271.jpg,masks/mask_002.jpg,,,,,,,,,,,,,0,8,8,116,0,3,3,1,,,,,,,,,,,,,,,,,,,,,,,,,,,,,,,,,,,,,,,,,,,,,,74.84205934400052,,,,,,,,,,,,,,,,,,,,,,,,,,,,,,,,,,,,,,,,,,,,,,,,,,,,,,,,,,,,,,,,,,,,,,,,,,,,,084682,001,2023-01-30_12h43.20.149,Info_measure_main_exp,2022.2.4,60.07086343488631,
0,131,5,5,2151,2271,absent_patch/patch0002151.jpg,absent_patch/patch0002271.jpg,masks/mask_003.jpg,,,,,,,,,,,,,0,8,8,116,0,4,4,2,,,,,,,,,,,,,,,,,,,,,,,,,,,,,,,,,,,,,,,,,,,,,,74.90336866899997,,,,,,,,,,,,,,,,,,,,,,,,,,,,,,,,,,,,,,,,,,,,,,,,,,,,,,,,,,,,,,,,,,,,,,,,,,,,,084682,001,2023-01-30_12h43.20.149,Info_measure_main_exp,2022.2.4,60.07086343488631,
0,131,5,5,2151,2271,absent_patch/patch0002151.jpg,absent_patch/patch0002271.jpg,masks/mask_003.jpg,,,,,,,,,,,,,0,8,8,116,,,,,0,0,0,2,,,,,,,,,,,,,,,,,,,,,,,,,,,,,,,,,,,,,,,,,,75.63860203100012,,,,,,,,,,,,,,,,,,,,,,,,,,,,,,,,,,,,,,,,,,,,,,,,,,74.9608490290002,75.43964699600019,75.58979630500016,75.63860203100012,,,,,,,,,,,,,,,,,,,,,,,,084682,001,2023-01-30_12h43.20.149,Info_measure_main_exp,2022.2.4,60.07086343488631,
0,131,5,5,2151,2271,absent_patch/patch0002151.jpg,absent_patch/patch0002271.jpg,masks/mask_005.jpg,,,,,,,,,,,,,0,8,8,116,,,,,0,1,1,4,,,,,,,,,,,,,,,,,,,,,,,,,,,,,,,,,,,,,,,,,,75.69188729899997,,,,,,,,,,,,,,,,,,,,,,,,,,,,,,,,,,,,,,,,,,,,,,,,,,,,,,,,,,,,,,,,,,,,,,,,,,,,,084682,001,2023-01-30_12h43.20.149,Info_measure_main_exp,2022.2.4,60.07086343488631,
0,131,5,5,2151,2271,absent_patch/patch0002151.jpg,absent_patch/patch0002271.jpg,masks/mask_001.jpg,,,,,,,,,,,,,0,8,8,116,,,,,0,2,2,0,,,,,,,,,,,,,,,,,,,,,,,,,,,,,,,,,,,,,,,,,,75.76384086400049,,,,,,,,,,,,,,,,,,,,,,,,,,,,,,,,,,,,,,,,,,,,,,,,,,,,,,,,,,,,,,,,,,,,,,,,,,,,,084682,001,2023-01-30_12h43.20.149,Info_measure_main_exp,2022.2.4,60.07086343488631,
0,131,5,5,2151,2271,absent_patch/patch0002151.jpg,absent_patch/patch0002271.jpg,masks/mask_002.jpg,,,,,,,,,,,,,0,8,8,116,,,,,0,3,3,1,,,,,,,,,,,,,,,,,,,,,,,,,,,,,,,,,,,,,,,,,,75.81655670800046,,,,,,,,,,,,,,,,,,,,,,,,,,,,,,,,,,,,,,,,,,,,,,,,,,,,,,,,,,,,,,,,,,,,,,,,,,,,,084682,001,2023-01-30_12h43.20.149,Info_measure_main_exp,2022.2.4,60.07086343488631,
0,131,5,5,2151,2271,absent_patch/patch0002151.jpg,absent_patch/patch0002271.jpg,masks/mask_004.jpg,,,,,,,,,,,,,0,8,8,116,,,,,0,4,4,3,,,,,,,,,,,,,,,,,,,,,,,,,,,,,,,,,,,,,,,,,,75.88581401900046,,,,,,,,,,,,,,,,,,,,,,,,,,,,,,,,,,,,,,,,,,,,,,,,,,,,,,,,,,,,,,,,,,,,,,,,,,,,,084682,001,2023-01-30_12h43.20.149,Info_measure_main_exp,2022.2.4,60.07086343488631,
,,,,,,,,,,,,,,,,,,,,,,,,,,,,,,,,,,,,,,,,,,,,,,,,,,,,,,,,,,,,,,,,,,,,,,,,,,,,,,,,,,,,,,,,,,,,,,,,,,,,,,,,,,,,,,,,,,,,,,,,,,,,,,,,0.013097895997816522,75.93875614400076,75.93875614400076,75.93875614400076,75.93875614400076,,,,,,,,,,,,,,,,,,,,,,,,,
