participant,session,date,expName,psychopyVersion,OS,frameRate,space_press_continue.keys,space_press_continue.rt,space_press_continue_2.keys,space_press_continue_2.rt,space_press_continue_3.keys,space_press_continue_3.rt,space_press_continue_4.keys,space_press_continue_4.rt,space_press_continue_5.keys,space_press_continue_5.rt,space_press_continue_6.keys,space_press_continue_6.rt,prac_mask_loop_1.thisRepN,prac_mask_loop_1.thisTrialN,prac_mask_loop_1.thisN,prac_mask_loop_1.thisIndex,prac_mask_loop_1.ran,mask_name,prac_mask_loop_2.thisRepN,prac_mask_loop_2.thisTrialN,prac_mask_loop_2.thisN,prac_mask_loop_2.thisIndex,prac_mask_loop_2.ran,mouse_2.x,mouse_2.y,mouse_2.leftButton,mouse_2.midButton,mouse_2.rightButton,mouse_2.clicked_name,similarity,response_time,Pass,mouse_12.x,mouse_12.y,mouse_12.leftButton,mouse_12.midButton,mouse_12.rightButton,mouse_12.clicked_name,prac_loop.thisRepN,prac_loop.thisTrialN,prac_loop.thisN,prac_loop.thisIndex,prac_loop.ran,Pair_type,Image_num,Patch_1_loc,Patch_2_loc,Patch_1_info,Patch_2_info,Patch_1_name,Patch_2_name,mouse_1.x,mouse_1.y,mouse_1.leftButton,mouse_1.midButton,mouse_1.rightButton,mouse_1.time,mouse_1.clicked_name,space_press_continue_7.keys,space_press_continue_7.rt,mask_loop.thisRepN,mask_loop.thisTrialN,mask_loop.thisN,mask_loop.thisIndex,mask_loop.ran,mask_loop_2.thisRepN,mask_loop_2.thisTrialN,mask_loop_2.thisN,mask_loop_2.thisIndex,mask_loop_2.ran,mouse.x,mouse.y,mouse.leftButton,mouse.midButton,mouse.rightButton,mouse.clicked_name,trialNumber,mouse_11.x,mouse_11.y,mouse_11.leftButton,mouse_11.midButton,mouse_11.rightButton,mouse_11.clicked_name,first_pass_loop.thisRepN,first_pass_loop.thisTrialN,first_pass_loop.thisN,first_pass_loop.thisIndex,first_pass_loop.ran,mask_loop_3.thisRepN,mask_loop_3.thisTrialN,mask_loop_3.thisN,mask_loop_3.thisIndex,mask_loop_3.ran,mask_loop_4.thisRepN,mask_loop_4.thisTrialN,mask_loop_4.thisN,mask_loop_4.thisIndex,mask_loop_4.ran,mouse_3.x,mouse_3.y,mouse_3.leftButton,mouse_3.midButton,mouse_3.rightButton,mouse_3.clicked_name,double_pass_loop.thisRepN,double_pass_loop.thisTrialN,double_pass_loop.thisN,double_pass_loop.thisIndex,double_pass_loop.ran,space_exit.keys,space_exit.rt
086768,001,2022-11-20_17h46.29.498,Info_measure_main_exp,2022.2.2,Win32,59.84440455,,,,,,,,,,,,,,,,,,,,,,,,,,,,,,,,,,,,,,,,,,,,,,,,,,,,,,,,,,,,,,,,,,,,,,,,,,,,,,,,,,,,,,,,,,,,,,,,,,,,,,,,,,,,,,,
086768,001,2022-11-20_17h46.29.498,Info_measure_main_exp,2022.2.2,Win32,59.84440455,,,,,,,,,,,,,,,,,,,,,,,,,,,,,,,,,,,,,,,,,,,,,,,,,,,,,,,,,,,,,,,,,,,,,,,,,,,,,,,,,,,,,,,,,,,,,,,,,,,,,,,,,,,,,,,
086768,001,2022-11-20_17h46.29.498,Info_measure_main_exp,2022.2.2,Win32,59.84440455,space,5.741,,,,,,,,,,,,,,,,,,,,,,,,,,,,,,,,,,,,,,,,,,,,,,,,,,,,,,,,,,,,,,,,,,,,,,,,,,,,,,,,,,,,,,,,,,,,,,,,,,,,,,,,,,,,,
086768,001,2022-11-20_17h46.29.498,Info_measure_main_exp,2022.2.2,Win32,59.84440455,,,space,9.8283,,,,,,,,,,,,,,,,,,,,,,,,,,,,,,,,,,,,,,,,,,,,,,,,,,,,,,,,,,,,,,,,,,,,,,,,,,,,,,,,,,,,,,,,,,,,,,,,,,,,,,,,,,,
086768,001,2022-11-20_17h46.29.498,Info_measure_main_exp,2022.2.2,Win32,59.84440455,,,,,space,16.9797,,,,,,,,,,,,,,,,,,,,,,,,,,,,,,,,,,,,,,,,,,,,,,,,,,,,,,,,,,,,,,,,,,,,,,,,,,,,,,,,,,,,,,,,,,,,,,,,,,,,,,,,,
086768,001,2022-11-20_17h46.29.498,Info_measure_main_exp,2022.2.2,Win32,59.84440455,,,,,,,space,90.8483,,,,,,,,,,,,,,,,,,,,,,,,,,,,,,,,,,,,,,,,,,,,,,,,,,,,,,,,,,,,,,,,,,,,,,,,,,,,,,,,,,,,,,,,,,,,,,,,,,,,,,,
086768,001,2022-11-20_17h46.29.498,Info_measure_main_exp,2022.2.2,Win32,59.84440455,,,,,,,,,space,6.219,,,,,,,,,,,,,,,,,,,,,,,,,,,,,,,,,,,,,,,,,,,,,,,,,,,,,,,,,,,,,,,,,,,,,,,,,,,,,,,,,,,,,,,,,,,,,,,,,,,,,
086768,001,2022-11-20_17h46.29.498,Info_measure_main_exp,2022.2.2,Win32,59.84440455,,,,,,,,,,,space,3.5924,,,,,,,,,,,,,,,,,,,,,,,,,,,,,,,,,,,,,,,,,,,,,,,,,,,,,,,,,,,,,,,,,,,,,,,,,,,,,,,,,,,,,,,,,,,,,,,,,,,
086768,001,2022-11-20_17h46.29.498,Info_measure_main_exp,2022.2.2,Win32,59.84440455,,,,,,,,,,,,,0,0,0,2,1,masks/mask_003.jpg,,,,,,,,,,,,,,,,,,,,,,,,,,,,,,,,,,,,,,,,,,,,,,,,,,,,,,,,,,,,,,,,,,,,,,,,,,,,,,,,,,,,,,,,,,,,,
086768,001,2022-11-20_17h46.29.498,Info_measure_main_exp,2022.2.2,Win32,59.84440455,,,,,,,,,,,,,0,1,1,3,1,masks/mask_004.jpg,,,,,,,,,,,,,,,,,,,,,,,,,,,,,,,,,,,,,,,,,,,,,,,,,,,,,,,,,,,,,,,,,,,,,,,,,,,,,,,,,,,,,,,,,,,,,
086768,001,2022-11-20_17h46.29.498,Info_measure_main_exp,2022.2.2,Win32,59.84440455,,,,,,,,,,,,,0,2,2,1,1,masks/mask_002.jpg,,,,,,,,,,,,,,,,,,,,,,,,,,,,,,,,,,,,,,,,,,,,,,,,,,,,,,,,,,,,,,,,,,,,,,,,,,,,,,,,,,,,,,,,,,,,,
086768,001,2022-11-20_17h46.29.498,Info_measure_main_exp,2022.2.2,Win32,59.84440455,,,,,,,,,,,,,0,3,3,4,1,masks/mask_005.jpg,,,,,,,,,,,,,,,,,,,,,,,,,,,,,,,,,,,,,,,,,,,,,,,,,,,,,,,,,,,,,,,,,,,,,,,,,,,,,,,,,,,,,,,,,,,,,
086768,001,2022-11-20_17h46.29.498,Info_measure_main_exp,2022.2.2,Win32,59.84440455,,,,,,,,,,,,,0,4,4,0,1,masks/mask_001.jpg,,,,,,,,,,,,,,,,,,,,,,,,,,,,,,,,,,,,,,,,,,,,,,,,,,,,,,,,,,,,,,,,,,,,,,,,,,,,,,,,,,,,,,,,,,,,,
086768,001,2022-11-20_17h46.29.498,Info_measure_main_exp,2022.2.2,Win32,59.84440455,,,,,,,,,,,,,,,,,,masks/mask_003.jpg,0,0,0,2,1,,,,,,,,,,,,,,,,,,,,,,,,,,,,,,,,,,,,,,,,,,,,,,,,,,,,,,,,,,,,,,,,,,,,,,,,,,,,,,,,,,,,,,,,
086768,001,2022-11-20_17h46.29.498,Info_measure_main_exp,2022.2.2,Win32,59.84440455,,,,,,,,,,,,,,,,,,masks/mask_005.jpg,0,1,1,4,1,,,,,,,,,,,,,,,,,,,,,,,,,,,,,,,,,,,,,,,,,,,,,,,,,,,,,,,,,,,,,,,,,,,,,,,,,,,,,,,,,,,,,,,,
086768,001,2022-11-20_17h46.29.498,Info_measure_main_exp,2022.2.2,Win32,59.84440455,,,,,,,,,,,,,,,,,,masks/mask_002.jpg,0,2,2,1,1,,,,,,,,,,,,,,,,,,,,,,,,,,,,,,,,,,,,,,,,,,,,,,,,,,,,,,,,,,,,,,,,,,,,,,,,,,,,,,,,,,,,,,,,
086768,001,2022-11-20_17h46.29.498,Info_measure_main_exp,2022.2.2,Win32,59.84440455,,,,,,,,,,,,,,,,,,masks/mask_001.jpg,0,3,3,0,1,,,,,,,,,,,,,,,,,,,,,,,,,,,,,,,,,,,,,,,,,,,,,,,,,,,,,,,,,,,,,,,,,,,,,,,,,,,,,,,,,,,,,,,,
086768,001,2022-11-20_17h46.29.498,Info_measure_main_exp,2022.2.2,Win32,59.84440455,,,,,,,,,,,,,,,,,,masks/mask_004.jpg,0,4,4,3,1,,,,,,,,,,,,,,,,,,,,,,,,,,,,,,,,,,,,,,,,,,,,,,,,,,,,,,,,,,,,,,,,,,,,,,,,,,,,,,,,,,,,,,,,
086768,001,2022-11-20_17h46.29.498,Info_measure_main_exp,2022.2.2,Win32,59.84440455,,,,,,,,,,,,,,,,,,,,,,,,-0.028703704,0.151851852,1,0,0,response7disk,0,137.6556,1,-0.002777778,0.008333333,1,0,0,center_square,0,0,0,2,1,0,131,5,5,2526,2526,prac_patch/patch0002526.jpg,prac_patch/patch0002526.jpg,,,,,,,,,,,,,,,,,,,,,,,,,,,,,,,,,,,,,,,,,,,,,,,,,,,,,,,,,,,,
086768,001,2022-11-20_17h46.29.498,Info_measure_main_exp,2022.2.2,Win32,59.84440455,,,,,,,,,,,,,0,0,0,4,1,masks/mask_005.jpg,,,,,,,,,,,,,,,,,,,,,,,,,,,,,,,,,,,,,,,,,,,,,,,,,,,,,,,,,,,,,,,,,,,,,,,,,,,,,,,,,,,,,,,,,,,,,
086768,001,2022-11-20_17h46.29.498,Info_measure_main_exp,2022.2.2,Win32,59.84440455,,,,,,,,,,,,,0,1,1,1,1,masks/mask_002.jpg,,,,,,,,,,,,,,,,,,,,,,,,,,,,,,,,,,,,,,,,,,,,,,,,,,,,,,,,,,,,,,,,,,,,,,,,,,,,,,,,,,,,,,,,,,,,,
086768,001,2022-11-20_17h46.29.498,Info_measure_main_exp,2022.2.2,Win32,59.84440455,,,,,,,,,,,,,0,2,2,2,1,masks/mask_003.jpg,,,,,,,,,,,,,,,,,,,,,,,,,,,,,,,,,,,,,,,,,,,,,,,,,,,,,,,,,,,,,,,,,,,,,,,,,,,,,,,,,,,,,,,,,,,,,
086768,001,2022-11-20_17h46.29.498,Info_measure_main_exp,2022.2.2,Win32,59.84440455,,,,,,,,,,,,,0,3,3,3,1,masks/mask_004.jpg,,,,,,,,,,,,,,,,,,,,,,,,,,,,,,,,,,,,,,,,,,,,,,,,,,,,,,,,,,,,,,,,,,,,,,,,,,,,,,,,,,,,,,,,,,,,,
086768,001,2022-11-20_17h46.29.498,Info_measure_main_exp,2022.2.2,Win32,59.84440455,,,,,,,,,,,,,0,4,4,0,1,masks/mask_001.jpg,,,,,,,,,,,,,,,,,,,,,,,,,,,,,,,,,,,,,,,,,,,,,,,,,,,,,,,,,,,,,,,,,,,,,,,,,,,,,,,,,,,,,,,,,,,,,
086768,001,2022-11-20_17h46.29.498,Info_measure_main_exp,2022.2.2,Win32,59.84440455,,,,,,,,,,,,,,,,,,masks/mask_001.jpg,0,0,0,0,1,,,,,,,,,,,,,,,,,,,,,,,,,,,,,,,,,,,,,,,,,,,,,,,,,,,,,,,,,,,,,,,,,,,,,,,,,,,,,,,,,,,,,,,,
086768,001,2022-11-20_17h46.29.498,Info_measure_main_exp,2022.2.2,Win32,59.84440455,,,,,,,,,,,,,,,,,,masks/mask_003.jpg,0,1,1,2,1,,,,,,,,,,,,,,,,,,,,,,,,,,,,,,,,,,,,,,,,,,,,,,,,,,,,,,,,,,,,,,,,,,,,,,,,,,,,,,,,,,,,,,,,
086768,001,2022-11-20_17h46.29.498,Info_measure_main_exp,2022.2.2,Win32,59.84440455,,,,,,,,,,,,,,,,,,masks/mask_004.jpg,0,2,2,3,1,,,,,,,,,,,,,,,,,,,,,,,,,,,,,,,,,,,,,,,,,,,,,,,,,,,,,,,,,,,,,,,,,,,,,,,,,,,,,,,,,,,,,,,,
086768,001,2022-11-20_17h46.29.498,Info_measure_main_exp,2022.2.2,Win32,59.84440455,,,,,,,,,,,,,,,,,,masks/mask_005.jpg,0,3,3,4,1,,,,,,,,,,,,,,,,,,,,,,,,,,,,,,,,,,,,,,,,,,,,,,,,,,,,,,,,,,,,,,,,,,,,,,,,,,,,,,,,,,,,,,,,
086768,001,2022-11-20_17h46.29.498,Info_measure_main_exp,2022.2.2,Win32,59.84440455,,,,,,,,,,,,,,,,,,masks/mask_002.jpg,0,4,4,1,1,,,,,,,,,,,,,,,,,,,,,,,,,,,,,,,,,,,,,,,,,,,,,,,,,,,,,,,,,,,,,,,,,,,,,,,,,,,,,,,,,,,,,,,,
086768,001,2022-11-20_17h46.29.498,Info_measure_main_exp,2022.2.2,Win32,59.84440455,,,,,,,,,,,,,,,,,,,,,,,,-0.114814815,-0.052777778,1,0,0,response5disk,2,152.2365,1,0.001851852,0,1,0,0,center_square,0,1,1,1,1,0,131,5,5,2514,2490,prac_patch/patch0002514.jpg,prac_patch/patch0002490.jpg,,,,,,,,,,,,,,,,,,,,,,,,,,,,,,,,,,,,,,,,,,,,,,,,,,,,,,,,,,,,
086768,001,2022-11-20_17h46.29.498,Info_measure_main_exp,2022.2.2,Win32,59.84440455,,,,,,,,,,,,,0,0,0,3,1,masks/mask_004.jpg,,,,,,,,,,,,,,,,,,,,,,,,,,,,,,,,,,,,,,,,,,,,,,,,,,,,,,,,,,,,,,,,,,,,,,,,,,,,,,,,,,,,,,,,,,,,,
086768,001,2022-11-20_17h46.29.498,Info_measure_main_exp,2022.2.2,Win32,59.84440455,,,,,,,,,,,,,0,1,1,4,1,masks/mask_005.jpg,,,,,,,,,,,,,,,,,,,,,,,,,,,,,,,,,,,,,,,,,,,,,,,,,,,,,,,,,,,,,,,,,,,,,,,,,,,,,,,,,,,,,,,,,,,,,
086768,001,2022-11-20_17h46.29.498,Info_measure_main_exp,2022.2.2,Win32,59.84440455,,,,,,,,,,,,,0,2,2,1,1,masks/mask_002.jpg,,,,,,,,,,,,,,,,,,,,,,,,,,,,,,,,,,,,,,,,,,,,,,,,,,,,,,,,,,,,,,,,,,,,,,,,,,,,,,,,,,,,,,,,,,,,,
086768,001,2022-11-20_17h46.29.498,Info_measure_main_exp,2022.2.2,Win32,59.84440455,,,,,,,,,,,,,0,3,3,2,1,masks/mask_003.jpg,,,,,,,,,,,,,,,,,,,,,,,,,,,,,,,,,,,,,,,,,,,,,,,,,,,,,,,,,,,,,,,,,,,,,,,,,,,,,,,,,,,,,,,,,,,,,
086768,001,2022-11-20_17h46.29.498,Info_measure_main_exp,2022.2.2,Win32,59.84440455,,,,,,,,,,,,,0,4,4,0,1,masks/mask_001.jpg,,,,,,,,,,,,,,,,,,,,,,,,,,,,,,,,,,,,,,,,,,,,,,,,,,,,,,,,,,,,,,,,,,,,,,,,,,,,,,,,,,,,,,,,,,,,,
086768,001,2022-11-20_17h46.29.498,Info_measure_main_exp,2022.2.2,Win32,59.84440455,,,,,,,,,,,,,,,,,,masks/mask_003.jpg,0,0,0,2,1,,,,,,,,,,,,,,,,,,,,,,,,,,,,,,,,,,,,,,,,,,,,,,,,,,,,,,,,,,,,,,,,,,,,,,,,,,,,,,,,,,,,,,,,
086768,001,2022-11-20_17h46.29.498,Info_measure_main_exp,2022.2.2,Win32,59.84440455,,,,,,,,,,,,,,,,,,masks/mask_002.jpg,0,1,1,1,1,,,,,,,,,,,,,,,,,,,,,,,,,,,,,,,,,,,,,,,,,,,,,,,,,,,,,,,,,,,,,,,,,,,,,,,,,,,,,,,,,,,,,,,,
086768,001,2022-11-20_17h46.29.498,Info_measure_main_exp,2022.2.2,Win32,59.84440455,,,,,,,,,,,,,,,,,,masks/mask_001.jpg,0,2,2,0,1,,,,,,,,,,,,,,,,,,,,,,,,,,,,,,,,,,,,,,,,,,,,,,,,,,,,,,,,,,,,,,,,,,,,,,,,,,,,,,,,,,,,,,,,
086768,001,2022-11-20_17h46.29.498,Info_measure_main_exp,2022.2.2,Win32,59.84440455,,,,,,,,,,,,,,,,,,masks/mask_005.jpg,0,3,3,4,1,,,,,,,,,,,,,,,,,,,,,,,,,,,,,,,,,,,,,,,,,,,,,,,,,,,,,,,,,,,,,,,,,,,,,,,,,,,,,,,,,,,,,,,,
086768,001,2022-11-20_17h46.29.498,Info_measure_main_exp,2022.2.2,Win32,59.84440455,,,,,,,,,,,,,,,,,,masks/mask_004.jpg,0,4,4,3,1,,,,,,,,,,,,,,,,,,,,,,,,,,,,,,,,,,,,,,,,,,,,,,,,,,,,,,,,,,,,,,,,,,,,,,,,,,,,,,,,,,,,,,,,
086768,001,2022-11-20_17h46.29.498,Info_measure_main_exp,2022.2.2,Win32,59.84440455,,,,,,,,,,,,,,,,,,,,,,,,0.055555556,0.15462963,1,0,0,response1disk,7,162.0797,1,0.002777778,0.002777778,1,0,0,center_square,0,2,2,0,1,0,131,5,5,2370,2406,prac_patch/patch0002370.jpg,prac_patch/patch0002406.jpg,,,,,,,,,,,,,,,,,,,,,,,,,,,,,,,,,,,,,,,,,,,,,,,,,,,,,,,,,,,,
086768,001,2022-11-20_17h46.29.498,Info_measure_main_exp,2022.2.2,Win32,59.84440455,,,,,,,,,,,,,,,,,,,,,,,,,,,,,,,,,,,,,,,,,,,,,,,,,,,,,,,,,,,space,2.6951,,,,,,,,,,,,,,,,,,,,,,,,,,,,,,,,,,,,,,,,,,,,,,,,,,,
086768,001,2022-11-20_17h46.29.498,Info_measure_main_exp,2022.2.2,Win32,59.84440455,,,,,,,,,,,,,,,,,,masks/mask_005.jpg,,,,,,,,,,,,,,,,,,,,,,,,,,,,,,,,,,,,,,,,,,,0,0,0,4,1,,,,,,,,,,,,,,,,,,,,,,,,,,,,,,,,,,,,,,,,,,,,,,
086768,001,2022-11-20_17h46.29.498,Info_measure_main_exp,2022.2.2,Win32,59.84440455,,,,,,,,,,,,,,,,,,masks/mask_002.jpg,,,,,,,,,,,,,,,,,,,,,,,,,,,,,,,,,,,,,,,,,,,0,1,1,1,1,,,,,,,,,,,,,,,,,,,,,,,,,,,,,,,,,,,,,,,,,,,,,,
086768,001,2022-11-20_17h46.29.498,Info_measure_main_exp,2022.2.2,Win32,59.84440455,,,,,,,,,,,,,,,,,,masks/mask_001.jpg,,,,,,,,,,,,,,,,,,,,,,,,,,,,,,,,,,,,,,,,,,,0,2,2,0,1,,,,,,,,,,,,,,,,,,,,,,,,,,,,,,,,,,,,,,,,,,,,,,
086768,001,2022-11-20_17h46.29.498,Info_measure_main_exp,2022.2.2,Win32,59.84440455,,,,,,,,,,,,,,,,,,masks/mask_004.jpg,,,,,,,,,,,,,,,,,,,,,,,,,,,,,,,,,,,,,,,,,,,0,3,3,3,1,,,,,,,,,,,,,,,,,,,,,,,,,,,,,,,,,,,,,,,,,,,,,,
086768,001,2022-11-20_17h46.29.498,Info_measure_main_exp,2022.2.2,Win32,59.84440455,,,,,,,,,,,,,,,,,,masks/mask_003.jpg,,,,,,,,,,,,,,,,,,,,,,,,,,,,,,,,,,,,,,,,,,,0,4,4,2,1,,,,,,,,,,,,,,,,,,,,,,,,,,,,,,,,,,,,,,,,,,,,,,
086768,001,2022-11-20_17h46.29.498,Info_measure_main_exp,2022.2.2,Win32,59.84440455,,,,,,,,,,,,,,,,,,masks/mask_003.jpg,,,,,,,,,,,,,,,,,,,,,,,,,,,,,,,,,,,,,,,,,,,,,,,,0,0,0,2,1,,,,,,,,,,,,,,,,,,,,,,,,,,,,,,,,,,,,,,,,,
086768,001,2022-11-20_17h46.29.498,Info_measure_main_exp,2022.2.2,Win32,59.84440455,,,,,,,,,,,,,,,,,,masks/mask_004.jpg,,,,,,,,,,,,,,,,,,,,,,,,,,,,,,,,,,,,,,,,,,,,,,,,0,1,1,3,1,,,,,,,,,,,,,,,,,,,,,,,,,,,,,,,,,,,,,,,,,
086768,001,2022-11-20_17h46.29.498,Info_measure_main_exp,2022.2.2,Win32,59.84440455,,,,,,,,,,,,,,,,,,masks/mask_001.jpg,,,,,,,,,,,,,,,,,,,,,,,,,,,,,,,,,,,,,,,,,,,,,,,,0,2,2,0,1,,,,,,,,,,,,,,,,,,,,,,,,,,,,,,,,,,,,,,,,,
086768,001,2022-11-20_17h46.29.498,Info_measure_main_exp,2022.2.2,Win32,59.84440455,,,,,,,,,,,,,,,,,,masks/mask_005.jpg,,,,,,,,,,,,,,,,,,,,,,,,,,,,,,,,,,,,,,,,,,,,,,,,0,3,3,4,1,,,,,,,,,,,,,,,,,,,,,,,,,,,,,,,,,,,,,,,,,
086768,001,2022-11-20_17h46.29.498,Info_measure_main_exp,2022.2.2,Win32,59.84440455,,,,,,,,,,,,,,,,,,masks/mask_002.jpg,,,,,,,,,,,,,,,,,,,,,,,,,,,,,,,,,,,,,,,,,,,,,,,,0,4,4,1,1,,,,,,,,,,,,,,,,,,,,,,,,,,,,,,,,,,,,,,,,,
086768,001,2022-11-20_17h46.29.498,Info_measure_main_exp,2022.2.2,Win32,59.84440455,,,,,,,,,,,,,,,,,,,,,,,,,,,,,,5,2.9867,1,,,,,,,,,,,,0,131,5,5,1950,2142,absent_patch/patch0001950.jpg,absent_patch/patch0002142.jpg,,,,,,,,,,,,,,,,,,,,0.114814815,-0.074074074,1,0,0,response3disk,1,-0.003703704,0.005555556,1,0,0,center_square,0,0,0,83,1,,,,,,,,,,,,,,,,,,,,,,,
086768,001,2022-11-20_17h46.29.498,Info_measure_main_exp,2022.2.2,Win32,59.84440455,,,,,,,,,,,,,,,,,,masks/mask_004.jpg,,,,,,,,,,,,,,,,,,,,,,,,,,,,,,,,,,,,,,,,,,,0,0,0,3,1,,,,,,,,,,,,,,,,,,,,,,,,,,,,,,,,,,,,,,,,,,,,,,
086768,001,2022-11-20_17h46.29.498,Info_measure_main_exp,2022.2.2,Win32,59.84440455,,,,,,,,,,,,,,,,,,masks/mask_005.jpg,,,,,,,,,,,,,,,,,,,,,,,,,,,,,,,,,,,,,,,,,,,0,1,1,4,1,,,,,,,,,,,,,,,,,,,,,,,,,,,,,,,,,,,,,,,,,,,,,,
086768,001,2022-11-20_17h46.29.498,Info_measure_main_exp,2022.2.2,Win32,59.84440455,,,,,,,,,,,,,,,,,,masks/mask_003.jpg,,,,,,,,,,,,,,,,,,,,,,,,,,,,,,,,,,,,,,,,,,,0,2,2,2,1,,,,,,,,,,,,,,,,,,,,,,,,,,,,,,,,,,,,,,,,,,,,,,
086768,001,2022-11-20_17h46.29.498,Info_measure_main_exp,2022.2.2,Win32,59.84440455,,,,,,,,,,,,,,,,,,masks/mask_001.jpg,,,,,,,,,,,,,,,,,,,,,,,,,,,,,,,,,,,,,,,,,,,0,3,3,0,1,,,,,,,,,,,,,,,,,,,,,,,,,,,,,,,,,,,,,,,,,,,,,,
086768,001,2022-11-20_17h46.29.498,Info_measure_main_exp,2022.2.2,Win32,59.84440455,,,,,,,,,,,,,,,,,,masks/mask_002.jpg,,,,,,,,,,,,,,,,,,,,,,,,,,,,,,,,,,,,,,,,,,,0,4,4,1,1,,,,,,,,,,,,,,,,,,,,,,,,,,,,,,,,,,,,,,,,,,,,,,
086768,001,2022-11-20_17h46.29.498,Info_measure_main_exp,2022.2.2,Win32,59.84440455,,,,,,,,,,,,,,,,,,masks/mask_003.jpg,,,,,,,,,,,,,,,,,,,,,,,,,,,,,,,,,,,,,,,,,,,,,,,,0,0,0,2,1,,,,,,,,,,,,,,,,,,,,,,,,,,,,,,,,,,,,,,,,,
086768,001,2022-11-20_17h46.29.498,Info_measure_main_exp,2022.2.2,Win32,59.84440455,,,,,,,,,,,,,,,,,,masks/mask_004.jpg,,,,,,,,,,,,,,,,,,,,,,,,,,,,,,,,,,,,,,,,,,,,,,,,0,1,1,3,1,,,,,,,,,,,,,,,,,,,,,,,,,,,,,,,,,,,,,,,,,
086768,001,2022-11-20_17h46.29.498,Info_measure_main_exp,2022.2.2,Win32,59.84440455,,,,,,,,,,,,,,,,,,masks/mask_002.jpg,,,,,,,,,,,,,,,,,,,,,,,,,,,,,,,,,,,,,,,,,,,,,,,,0,2,2,1,1,,,,,,,,,,,,,,,,,,,,,,,,,,,,,,,,,,,,,,,,,
086768,001,2022-11-20_17h46.29.498,Info_measure_main_exp,2022.2.2,Win32,59.84440455,,,,,,,,,,,,,,,,,,masks/mask_001.jpg,,,,,,,,,,,,,,,,,,,,,,,,,,,,,,,,,,,,,,,,,,,,,,,,0,3,3,0,1,,,,,,,,,,,,,,,,,,,,,,,,,,,,,,,,,,,,,,,,,
086768,001,2022-11-20_17h46.29.498,Info_measure_main_exp,2022.2.2,Win32,59.84440455,,,,,,,,,,,,,,,,,,masks/mask_005.jpg,,,,,,,,,,,,,,,,,,,,,,,,,,,,,,,,,,,,,,,,,,,,,,,,0,4,4,4,1,,,,,,,,,,,,,,,,,,,,,,,,,,,,,,,,,,,,,,,,,
086768,001,2022-11-20_17h46.29.498,Info_measure_main_exp,2022.2.2,Win32,59.84440455,,,,,,,,,,,,,,,,,,,,,,,,,,,,,,6,2.3356,1,,,,,,,,,,,,0,131,5,5,1986,2142,absent_patch/patch0001986.jpg,absent_patch/patch0002142.jpg,,,,,,,,,,,,,,,,,,,,0.110185185,0.091666667,1,0,0,response1disk,2,0,0.00462963,1,0,0,center_square,0,1,1,76,1,,,,,,,,,,,,,,,,,,,,,,,
086768,001,2022-11-20_17h46.29.498,Info_measure_main_exp,2022.2.2,Win32,59.84440455,,,,,,,,,,,,,,,,,,masks/mask_004.jpg,,,,,,,,,,,,,,,,,,,,,,,,,,,,,,,,,,,,,,,,,,,0,0,0,3,1,,,,,,,,,,,,,,,,,,,,,,,,,,,,,,,,,,,,,,,,,,,,,,
086768,001,2022-11-20_17h46.29.498,Info_measure_main_exp,2022.2.2,Win32,59.84440455,,,,,,,,,,,,,,,,,,masks/mask_002.jpg,,,,,,,,,,,,,,,,,,,,,,,,,,,,,,,,,,,,,,,,,,,0,1,1,1,1,,,,,,,,,,,,,,,,,,,,,,,,,,,,,,,,,,,,,,,,,,,,,,
086768,001,2022-11-20_17h46.29.498,Info_measure_main_exp,2022.2.2,Win32,59.84440455,,,,,,,,,,,,,,,,,,masks/mask_001.jpg,,,,,,,,,,,,,,,,,,,,,,,,,,,,,,,,,,,,,,,,,,,0,2,2,0,1,,,,,,,,,,,,,,,,,,,,,,,,,,,,,,,,,,,,,,,,,,,,,,
086768,001,2022-11-20_17h46.29.498,Info_measure_main_exp,2022.2.2,Win32,59.84440455,,,,,,,,,,,,,,,,,,masks/mask_003.jpg,,,,,,,,,,,,,,,,,,,,,,,,,,,,,,,,,,,,,,,,,,,0,3,3,2,1,,,,,,,,,,,,,,,,,,,,,,,,,,,,,,,,,,,,,,,,,,,,,,
086768,001,2022-11-20_17h46.29.498,Info_measure_main_exp,2022.2.2,Win32,59.84440455,,,,,,,,,,,,,,,,,,masks/mask_005.jpg,,,,,,,,,,,,,,,,,,,,,,,,,,,,,,,,,,,,,,,,,,,0,4,4,4,1,,,,,,,,,,,,,,,,,,,,,,,,,,,,,,,,,,,,,,,,,,,,,,
086768,001,2022-11-20_17h46.29.498,Info_measure_main_exp,2022.2.2,Win32,59.84440455,,,,,,,,,,,,,,,,,,masks/mask_001.jpg,,,,,,,,,,,,,,,,,,,,,,,,,,,,,,,,,,,,,,,,,,,,,,,,0,0,0,0,1,,,,,,,,,,,,,,,,,,,,,,,,,,,,,,,,,,,,,,,,,
086768,001,2022-11-20_17h46.29.498,Info_measure_main_exp,2022.2.2,Win32,59.84440455,,,,,,,,,,,,,,,,,,masks/mask_005.jpg,,,,,,,,,,,,,,,,,,,,,,,,,,,,,,,,,,,,,,,,,,,,,,,,0,1,1,4,1,,,,,,,,,,,,,,,,,,,,,,,,,,,,,,,,,,,,,,,,,
086768,001,2022-11-20_17h46.29.498,Info_measure_main_exp,2022.2.2,Win32,59.84440455,,,,,,,,,,,,,,,,,,masks/mask_003.jpg,,,,,,,,,,,,,,,,,,,,,,,,,,,,,,,,,,,,,,,,,,,,,,,,0,2,2,2,1,,,,,,,,,,,,,,,,,,,,,,,,,,,,,,,,,,,,,,,,,
086768,001,2022-11-20_17h46.29.498,Info_measure_main_exp,2022.2.2,Win32,59.84440455,,,,,,,,,,,,,,,,,,masks/mask_002.jpg,,,,,,,,,,,,,,,,,,,,,,,,,,,,,,,,,,,,,,,,,,,,,,,,0,3,3,1,1,,,,,,,,,,,,,,,,,,,,,,,,,,,,,,,,,,,,,,,,,
086768,001,2022-11-20_17h46.29.498,Info_measure_main_exp,2022.2.2,Win32,59.84440455,,,,,,,,,,,,,,,,,,masks/mask_004.jpg,,,,,,,,,,,,,,,,,,,,,,,,,,,,,,,,,,,,,,,,,,,,,,,,0,4,4,3,1,,,,,,,,,,,,,,,,,,,,,,,,,,,,,,,,,,,,,,,,,
086768,001,2022-11-20_17h46.29.498,Info_measure_main_exp,2022.2.2,Win32,59.84440455,,,,,,,,,,,,,,,,,,,,,,,,,,,,,,6,2.102,1,,,,,,,,,,,,0,131,5,5,2274,2082,absent_patch/patch0002274.jpg,absent_patch/patch0002082.jpg,,,,,,,,,,,,,,,,,,,,0.097222222,0.047222222,1,0,0,response1disk,3,0.002777778,0.001851852,1,0,0,center_square,0,2,2,100,1,,,,,,,,,,,,,,,,,,,,,,,
086768,001,2022-11-20_17h46.29.498,Info_measure_main_exp,2022.2.2,Win32,59.84440455,,,,,,,,,,,,,,,,,,masks/mask_004.jpg,,,,,,,,,,,,,,,,,,,,,,,,,,,,,,,,,,,,,,,,,,,0,0,0,3,1,,,,,,,,,,,,,,,,,,,,,,,,,,,,,,,,,,,,,,,,,,,,,,
086768,001,2022-11-20_17h46.29.498,Info_measure_main_exp,2022.2.2,Win32,59.84440455,,,,,,,,,,,,,,,,,,masks/mask_005.jpg,,,,,,,,,,,,,,,,,,,,,,,,,,,,,,,,,,,,,,,,,,,0,1,1,4,1,,,,,,,,,,,,,,,,,,,,,,,,,,,,,,,,,,,,,,,,,,,,,,
086768,001,2022-11-20_17h46.29.498,Info_measure_main_exp,2022.2.2,Win32,59.84440455,,,,,,,,,,,,,,,,,,masks/mask_003.jpg,,,,,,,,,,,,,,,,,,,,,,,,,,,,,,,,,,,,,,,,,,,0,2,2,2,1,,,,,,,,,,,,,,,,,,,,,,,,,,,,,,,,,,,,,,,,,,,,,,
086768,001,2022-11-20_17h46.29.498,Info_measure_main_exp,2022.2.2,Win32,59.84440455,,,,,,,,,,,,,,,,,,masks/mask_001.jpg,,,,,,,,,,,,,,,,,,,,,,,,,,,,,,,,,,,,,,,,,,,0,3,3,0,1,,,,,,,,,,,,,,,,,,,,,,,,,,,,,,,,,,,,,,,,,,,,,,
086768,001,2022-11-20_17h46.29.498,Info_measure_main_exp,2022.2.2,Win32,59.84440455,,,,,,,,,,,,,,,,,,masks/mask_002.jpg,,,,,,,,,,,,,,,,,,,,,,,,,,,,,,,,,,,,,,,,,,,0,4,4,1,1,,,,,,,,,,,,,,,,,,,,,,,,,,,,,,,,,,,,,,,,,,,,,,
086768,001,2022-11-20_17h46.29.498,Info_measure_main_exp,2022.2.2,Win32,59.84440455,,,,,,,,,,,,,,,,,,masks/mask_004.jpg,,,,,,,,,,,,,,,,,,,,,,,,,,,,,,,,,,,,,,,,,,,,,,,,0,0,0,3,1,,,,,,,,,,,,,,,,,,,,,,,,,,,,,,,,,,,,,,,,,
086768,001,2022-11-20_17h46.29.498,Info_measure_main_exp,2022.2.2,Win32,59.84440455,,,,,,,,,,,,,,,,,,masks/mask_003.jpg,,,,,,,,,,,,,,,,,,,,,,,,,,,,,,,,,,,,,,,,,,,,,,,,0,1,1,2,1,,,,,,,,,,,,,,,,,,,,,,,,,,,,,,,,,,,,,,,,,
086768,001,2022-11-20_17h46.29.498,Info_measure_main_exp,2022.2.2,Win32,59.84440455,,,,,,,,,,,,,,,,,,masks/mask_005.jpg,,,,,,,,,,,,,,,,,,,,,,,,,,,,,,,,,,,,,,,,,,,,,,,,0,2,2,4,1,,,,,,,,,,,,,,,,,,,,,,,,,,,,,,,,,,,,,,,,,
086768,001,2022-11-20_17h46.29.498,Info_measure_main_exp,2022.2.2,Win32,59.84440455,,,,,,,,,,,,,,,,,,masks/mask_001.jpg,,,,,,,,,,,,,,,,,,,,,,,,,,,,,,,,,,,,,,,,,,,,,,,,0,3,3,0,1,,,,,,,,,,,,,,,,,,,,,,,,,,,,,,,,,,,,,,,,,
086768,001,2022-11-20_17h46.29.498,Info_measure_main_exp,2022.2.2,Win32,59.84440455,,,,,,,,,,,,,,,,,,masks/mask_002.jpg,,,,,,,,,,,,,,,,,,,,,,,,,,,,,,,,,,,,,,,,,,,,,,,,0,4,4,1,1,,,,,,,,,,,,,,,,,,,,,,,,,,,,,,,,,,,,,,,,,
086768,001,2022-11-20_17h46.29.498,Info_measure_main_exp,2022.2.2,Win32,59.84440455,,,,,,,,,,,,,,,,,,,,,,,,,,,,,,6,1.8687,1,,,,,,,,,,,,0,131,5,5,2298,2214,absent_patch/patch0002298.jpg,absent_patch/patch0002214.jpg,,,,,,,,,,,,,,,,,,,,0.105555556,0.047222222,1,0,0,response1disk,4,0.00462963,-0.005555556,1,0,0,center_square,0,3,3,99,1,,,,,,,,,,,,,,,,,,,,,,,
086768,001,2022-11-20_17h46.29.498,Info_measure_main_exp,2022.2.2,Win32,59.84440455,,,,,,,,,,,,,,,,,,masks/mask_004.jpg,,,,,,,,,,,,,,,,,,,,,,,,,,,,,,,,,,,,,,,,,,,0,0,0,3,1,,,,,,,,,,,,,,,,,,,,,,,,,,,,,,,,,,,,,,,,,,,,,,
086768,001,2022-11-20_17h46.29.498,Info_measure_main_exp,2022.2.2,Win32,59.84440455,,,,,,,,,,,,,,,,,,masks/mask_005.jpg,,,,,,,,,,,,,,,,,,,,,,,,,,,,,,,,,,,,,,,,,,,0,1,1,4,1,,,,,,,,,,,,,,,,,,,,,,,,,,,,,,,,,,,,,,,,,,,,,,
086768,001,2022-11-20_17h46.29.498,Info_measure_main_exp,2022.2.2,Win32,59.84440455,,,,,,,,,,,,,,,,,,masks/mask_003.jpg,,,,,,,,,,,,,,,,,,,,,,,,,,,,,,,,,,,,,,,,,,,0,2,2,2,1,,,,,,,,,,,,,,,,,,,,,,,,,,,,,,,,,,,,,,,,,,,,,,
086768,001,2022-11-20_17h46.29.498,Info_measure_main_exp,2022.2.2,Win32,59.84440455,,,,,,,,,,,,,,,,,,masks/mask_002.jpg,,,,,,,,,,,,,,,,,,,,,,,,,,,,,,,,,,,,,,,,,,,0,3,3,1,1,,,,,,,,,,,,,,,,,,,,,,,,,,,,,,,,,,,,,,,,,,,,,,
086768,001,2022-11-20_17h46.29.498,Info_measure_main_exp,2022.2.2,Win32,59.84440455,,,,,,,,,,,,,,,,,,masks/mask_001.jpg,,,,,,,,,,,,,,,,,,,,,,,,,,,,,,,,,,,,,,,,,,,0,4,4,0,1,,,,,,,,,,,,,,,,,,,,,,,,,,,,,,,,,,,,,,,,,,,,,,
086768,001,2022-11-20_17h46.29.498,Info_measure_main_exp,2022.2.2,Win32,59.84440455,,,,,,,,,,,,,,,,,,masks/mask_005.jpg,,,,,,,,,,,,,,,,,,,,,,,,,,,,,,,,,,,,,,,,,,,,,,,,0,0,0,4,1,,,,,,,,,,,,,,,,,,,,,,,,,,,,,,,,,,,,,,,,,
086768,001,2022-11-20_17h46.29.498,Info_measure_main_exp,2022.2.2,Win32,59.84440455,,,,,,,,,,,,,,,,,,masks/mask_002.jpg,,,,,,,,,,,,,,,,,,,,,,,,,,,,,,,,,,,,,,,,,,,,,,,,0,1,1,1,1,,,,,,,,,,,,,,,,,,,,,,,,,,,,,,,,,,,,,,,,,
086768,001,2022-11-20_17h46.29.498,Info_measure_main_exp,2022.2.2,Win32,59.84440455,,,,,,,,,,,,,,,,,,masks/mask_004.jpg,,,,,,,,,,,,,,,,,,,,,,,,,,,,,,,,,,,,,,,,,,,,,,,,0,2,2,3,1,,,,,,,,,,,,,,,,,,,,,,,,,,,,,,,,,,,,,,,,,
086768,001,2022-11-20_17h46.29.498,Info_measure_main_exp,2022.2.2,Win32,59.84440455,,,,,,,,,,,,,,,,,,masks/mask_001.jpg,,,,,,,,,,,,,,,,,,,,,,,,,,,,,,,,,,,,,,,,,,,,,,,,0,3,3,0,1,,,,,,,,,,,,,,,,,,,,,,,,,,,,,,,,,,,,,,,,,
086768,001,2022-11-20_17h46.29.498,Info_measure_main_exp,2022.2.2,Win32,59.84440455,,,,,,,,,,,,,,,,,,masks/mask_003.jpg,,,,,,,,,,,,,,,,,,,,,,,,,,,,,,,,,,,,,,,,,,,,,,,,0,4,4,2,1,,,,,,,,,,,,,,,,,,,,,,,,,,,,,,,,,,,,,,,,,
086768,001,2022-11-20_17h46.29.498,Info_measure_main_exp,2022.2.2,Win32,59.84440455,,,,,,,,,,,,,,,,,,,,,,,,,,,,,,5,1.7679,1,,,,,,,,,,,,0,131,5,5,1950,2082,absent_patch/patch0001950.jpg,absent_patch/patch0002082.jpg,,,,,,,,,,,,,,,,,,,,0.083333333,-0.058333333,1,0,0,response3disk,5,-0.000925926,0.000925926,1,0,0,center_square,0,4,4,12,1,,,,,,,,,,,,,,,,,,,,,,,
086768,001,2022-11-20_17h46.29.498,Info_measure_main_exp,2022.2.2,Win32,59.84440455,,,,,,,,,,,,,,,,,,masks/mask_004.jpg,,,,,,,,,,,,,,,,,,,,,,,,,,,,,,,,,,,,,,,,,,,0,0,0,3,1,,,,,,,,,,,,,,,,,,,,,,,,,,,,,,,,,,,,,,,,,,,,,,
086768,001,2022-11-20_17h46.29.498,Info_measure_main_exp,2022.2.2,Win32,59.84440455,,,,,,,,,,,,,,,,,,masks/mask_002.jpg,,,,,,,,,,,,,,,,,,,,,,,,,,,,,,,,,,,,,,,,,,,0,1,1,1,1,,,,,,,,,,,,,,,,,,,,,,,,,,,,,,,,,,,,,,,,,,,,,,
086768,001,2022-11-20_17h46.29.498,Info_measure_main_exp,2022.2.2,Win32,59.84440455,,,,,,,,,,,,,,,,,,masks/mask_003.jpg,,,,,,,,,,,,,,,,,,,,,,,,,,,,,,,,,,,,,,,,,,,0,2,2,2,1,,,,,,,,,,,,,,,,,,,,,,,,,,,,,,,,,,,,,,,,,,,,,,
086768,001,2022-11-20_17h46.29.498,Info_measure_main_exp,2022.2.2,Win32,59.84440455,,,,,,,,,,,,,,,,,,masks/mask_005.jpg,,,,,,,,,,,,,,,,,,,,,,,,,,,,,,,,,,,,,,,,,,,0,3,3,4,1,,,,,,,,,,,,,,,,,,,,,,,,,,,,,,,,,,,,,,,,,,,,,,
086768,001,2022-11-20_17h46.29.498,Info_measure_main_exp,2022.2.2,Win32,59.84440455,,,,,,,,,,,,,,,,,,masks/mask_001.jpg,,,,,,,,,,,,,,,,,,,,,,,,,,,,,,,,,,,,,,,,,,,0,4,4,0,1,,,,,,,,,,,,,,,,,,,,,,,,,,,,,,,,,,,,,,,,,,,,,,
086768,001,2022-11-20_17h46.29.498,Info_measure_main_exp,2022.2.2,Win32,59.84440455,,,,,,,,,,,,,,,,,,masks/mask_003.jpg,,,,,,,,,,,,,,,,,,,,,,,,,,,,,,,,,,,,,,,,,,,,,,,,0,0,0,2,1,,,,,,,,,,,,,,,,,,,,,,,,,,,,,,,,,,,,,,,,,
086768,001,2022-11-20_17h46.29.498,Info_measure_main_exp,2022.2.2,Win32,59.84440455,,,,,,,,,,,,,,,,,,masks/mask_004.jpg,,,,,,,,,,,,,,,,,,,,,,,,,,,,,,,,,,,,,,,,,,,,,,,,0,1,1,3,1,,,,,,,,,,,,,,,,,,,,,,,,,,,,,,,,,,,,,,,,,
086768,001,2022-11-20_17h46.29.498,Info_measure_main_exp,2022.2.2,Win32,59.84440455,,,,,,,,,,,,,,,,,,masks/mask_001.jpg,,,,,,,,,,,,,,,,,,,,,,,,,,,,,,,,,,,,,,,,,,,,,,,,0,2,2,0,1,,,,,,,,,,,,,,,,,,,,,,,,,,,,,,,,,,,,,,,,,
086768,001,2022-11-20_17h46.29.498,Info_measure_main_exp,2022.2.2,Win32,59.84440455,,,,,,,,,,,,,,,,,,masks/mask_005.jpg,,,,,,,,,,,,,,,,,,,,,,,,,,,,,,,,,,,,,,,,,,,,,,,,0,3,3,4,1,,,,,,,,,,,,,,,,,,,,,,,,,,,,,,,,,,,,,,,,,
086768,001,2022-11-20_17h46.29.498,Info_measure_main_exp,2022.2.2,Win32,59.84440455,,,,,,,,,,,,,,,,,,masks/mask_002.jpg,,,,,,,,,,,,,,,,,,,,,,,,,,,,,,,,,,,,,,,,,,,,,,,,0,4,4,1,1,,,,,,,,,,,,,,,,,,,,,,,,,,,,,,,,,,,,,,,,,
086768,001,2022-11-20_17h46.29.498,Info_measure_main_exp,2022.2.2,Win32,59.84440455,,,,,,,,,,,,,,,,,,,,,,,,,,,,,,3,1.5516,1,,,,,,,,,,,,0,131,5,5,2298,2274,absent_patch/patch0002298.jpg,absent_patch/patch0002274.jpg,,,,,,,,,,,,,,,,,,,,-0.032407407,-0.053703704,1,0,0,response5disk,6,-0.002777778,0,1,0,0,center_square,0,5,5,1,1,,,,,,,,,,,,,,,,,,,,,,,
086768,001,2022-11-20_17h46.29.498,Info_measure_main_exp,2022.2.2,Win32,59.84440455,,,,,,,,,,,,,,,,,,masks/mask_002.jpg,,,,,,,,,,,,,,,,,,,,,,,,,,,,,,,,,,,,,,,,,,,0,0,0,1,1,,,,,,,,,,,,,,,,,,,,,,,,,,,,,,,,,,,,,,,,,,,,,,
086768,001,2022-11-20_17h46.29.498,Info_measure_main_exp,2022.2.2,Win32,59.84440455,,,,,,,,,,,,,,,,,,masks/mask_001.jpg,,,,,,,,,,,,,,,,,,,,,,,,,,,,,,,,,,,,,,,,,,,0,1,1,0,1,,,,,,,,,,,,,,,,,,,,,,,,,,,,,,,,,,,,,,,,,,,,,,
086768,001,2022-11-20_17h46.29.498,Info_measure_main_exp,2022.2.2,Win32,59.84440455,,,,,,,,,,,,,,,,,,masks/mask_003.jpg,,,,,,,,,,,,,,,,,,,,,,,,,,,,,,,,,,,,,,,,,,,0,2,2,2,1,,,,,,,,,,,,,,,,,,,,,,,,,,,,,,,,,,,,,,,,,,,,,,
086768,001,2022-11-20_17h46.29.498,Info_measure_main_exp,2022.2.2,Win32,59.84440455,,,,,,,,,,,,,,,,,,masks/mask_005.jpg,,,,,,,,,,,,,,,,,,,,,,,,,,,,,,,,,,,,,,,,,,,0,3,3,4,1,,,,,,,,,,,,,,,,,,,,,,,,,,,,,,,,,,,,,,,,,,,,,,
086768,001,2022-11-20_17h46.29.498,Info_measure_main_exp,2022.2.2,Win32,59.84440455,,,,,,,,,,,,,,,,,,masks/mask_004.jpg,,,,,,,,,,,,,,,,,,,,,,,,,,,,,,,,,,,,,,,,,,,0,4,4,3,1,,,,,,,,,,,,,,,,,,,,,,,,,,,,,,,,,,,,,,,,,,,,,,
086768,001,2022-11-20_17h46.29.498,Info_measure_main_exp,2022.2.2,Win32,59.84440455,,,,,,,,,,,,,,,,,,masks/mask_004.jpg,,,,,,,,,,,,,,,,,,,,,,,,,,,,,,,,,,,,,,,,,,,,,,,,0,0,0,3,1,,,,,,,,,,,,,,,,,,,,,,,,,,,,,,,,,,,,,,,,,
086768,001,2022-11-20_17h46.29.498,Info_measure_main_exp,2022.2.2,Win32,59.84440455,,,,,,,,,,,,,,,,,,masks/mask_005.jpg,,,,,,,,,,,,,,,,,,,,,,,,,,,,,,,,,,,,,,,,,,,,,,,,0,1,1,4,1,,,,,,,,,,,,,,,,,,,,,,,,,,,,,,,,,,,,,,,,,
086768,001,2022-11-20_17h46.29.498,Info_measure_main_exp,2022.2.2,Win32,59.84440455,,,,,,,,,,,,,,,,,,masks/mask_001.jpg,,,,,,,,,,,,,,,,,,,,,,,,,,,,,,,,,,,,,,,,,,,,,,,,0,2,2,0,1,,,,,,,,,,,,,,,,,,,,,,,,,,,,,,,,,,,,,,,,,
086768,001,2022-11-20_17h46.29.498,Info_measure_main_exp,2022.2.2,Win32,59.84440455,,,,,,,,,,,,,,,,,,masks/mask_002.jpg,,,,,,,,,,,,,,,,,,,,,,,,,,,,,,,,,,,,,,,,,,,,,,,,0,3,3,1,1,,,,,,,,,,,,,,,,,,,,,,,,,,,,,,,,,,,,,,,,,
086768,001,2022-11-20_17h46.29.498,Info_measure_main_exp,2022.2.2,Win32,59.84440455,,,,,,,,,,,,,,,,,,masks/mask_003.jpg,,,,,,,,,,,,,,,,,,,,,,,,,,,,,,,,,,,,,,,,,,,,,,,,0,4,4,2,1,,,,,,,,,,,,,,,,,,,,,,,,,,,,,,,,,,,,,,,,,
086768,001,2022-11-20_17h46.29.498,Info_measure_main_exp,2022.2.2,Win32,59.84440455,,,,,,,,,,,,,,,,,,,,,,,,,,,,,,6,2.5363,1,,,,,,,,,,,,1,131,5,5,2250,1,absent_patch/patch0002250.jpg,present_patch/cong_131_5_a.jpg,,,,,,,,,,,,,,,,,,,,0.105555556,0.068518519,1,0,0,response1disk,7,-0.005555556,0.00462963,1,0,0,center_square,0,6,6,5,1,,,,,,,,,,,,,,,,,,,,,,,
086768,001,2022-11-20_17h46.29.498,Info_measure_main_exp,2022.2.2,Win32,59.84440455,,,,,,,,,,,,,,,,,,masks/mask_001.jpg,,,,,,,,,,,,,,,,,,,,,,,,,,,,,,,,,,,,,,,,,,,0,0,0,0,1,,,,,,,,,,,,,,,,,,,,,,,,,,,,,,,,,,,,,,,,,,,,,,
086768,001,2022-11-20_17h46.29.498,Info_measure_main_exp,2022.2.2,Win32,59.84440455,,,,,,,,,,,,,,,,,,masks/mask_002.jpg,,,,,,,,,,,,,,,,,,,,,,,,,,,,,,,,,,,,,,,,,,,0,1,1,1,1,,,,,,,,,,,,,,,,,,,,,,,,,,,,,,,,,,,,,,,,,,,,,,
086768,001,2022-11-20_17h46.29.498,Info_measure_main_exp,2022.2.2,Win32,59.84440455,,,,,,,,,,,,,,,,,,masks/mask_003.jpg,,,,,,,,,,,,,,,,,,,,,,,,,,,,,,,,,,,,,,,,,,,0,2,2,2,1,,,,,,,,,,,,,,,,,,,,,,,,,,,,,,,,,,,,,,,,,,,,,,
086768,001,2022-11-20_17h46.29.498,Info_measure_main_exp,2022.2.2,Win32,59.84440455,,,,,,,,,,,,,,,,,,masks/mask_005.jpg,,,,,,,,,,,,,,,,,,,,,,,,,,,,,,,,,,,,,,,,,,,0,3,3,4,1,,,,,,,,,,,,,,,,,,,,,,,,,,,,,,,,,,,,,,,,,,,,,,
086768,001,2022-11-20_17h46.29.498,Info_measure_main_exp,2022.2.2,Win32,59.84440455,,,,,,,,,,,,,,,,,,masks/mask_004.jpg,,,,,,,,,,,,,,,,,,,,,,,,,,,,,,,,,,,,,,,,,,,0,4,4,3,1,,,,,,,,,,,,,,,,,,,,,,,,,,,,,,,,,,,,,,,,,,,,,,
086768,001,2022-11-20_17h46.29.498,Info_measure_main_exp,2022.2.2,Win32,59.84440455,,,,,,,,,,,,,,,,,,masks/mask_003.jpg,,,,,,,,,,,,,,,,,,,,,,,,,,,,,,,,,,,,,,,,,,,,,,,,0,0,0,2,1,,,,,,,,,,,,,,,,,,,,,,,,,,,,,,,,,,,,,,,,,
086768,001,2022-11-20_17h46.29.498,Info_measure_main_exp,2022.2.2,Win32,59.84440455,,,,,,,,,,,,,,,,,,masks/mask_005.jpg,,,,,,,,,,,,,,,,,,,,,,,,,,,,,,,,,,,,,,,,,,,,,,,,0,1,1,4,1,,,,,,,,,,,,,,,,,,,,,,,,,,,,,,,,,,,,,,,,,
086768,001,2022-11-20_17h46.29.498,Info_measure_main_exp,2022.2.2,Win32,59.84440455,,,,,,,,,,,,,,,,,,masks/mask_001.jpg,,,,,,,,,,,,,,,,,,,,,,,,,,,,,,,,,,,,,,,,,,,,,,,,0,2,2,0,1,,,,,,,,,,,,,,,,,,,,,,,,,,,,,,,,,,,,,,,,,
086768,001,2022-11-20_17h46.29.498,Info_measure_main_exp,2022.2.2,Win32,59.84440455,,,,,,,,,,,,,,,,,,masks/mask_002.jpg,,,,,,,,,,,,,,,,,,,,,,,,,,,,,,,,,,,,,,,,,,,,,,,,0,3,3,1,1,,,,,,,,,,,,,,,,,,,,,,,,,,,,,,,,,,,,,,,,,
086768,001,2022-11-20_17h46.29.498,Info_measure_main_exp,2022.2.2,Win32,59.84440455,,,,,,,,,,,,,,,,,,masks/mask_004.jpg,,,,,,,,,,,,,,,,,,,,,,,,,,,,,,,,,,,,,,,,,,,,,,,,0,4,4,3,1,,,,,,,,,,,,,,,,,,,,,,,,,,,,,,,,,,,,,,,,,
086768,001,2022-11-20_17h46.29.498,Info_measure_main_exp,2022.2.2,Win32,59.84440455,,,,,,,,,,,,,,,,,,,,,,,,,,,,,,7,1.5682,1,,,,,,,,,,,,1,131,5,5,1,2142,present_patch/cong_131_5_a.jpg,absent_patch/patch0002142.jpg,,,,,,,,,,,,,,,,,,,,0.062962963,0.092592593,1,0,0,response1disk,8,-0.005555556,0.003703704,1,0,0,center_square,0,7,7,80,1,,,,,,,,,,,,,,,,,,,,,,,
086768,001,2022-11-20_17h46.29.498,Info_measure_main_exp,2022.2.2,Win32,59.84440455,,,,,,,,,,,,,,,,,,masks/mask_004.jpg,,,,,,,,,,,,,,,,,,,,,,,,,,,,,,,,,,,,,,,,,,,0,0,0,3,1,,,,,,,,,,,,,,,,,,,,,,,,,,,,,,,,,,,,,,,,,,,,,,
086768,001,2022-11-20_17h46.29.498,Info_measure_main_exp,2022.2.2,Win32,59.84440455,,,,,,,,,,,,,,,,,,masks/mask_002.jpg,,,,,,,,,,,,,,,,,,,,,,,,,,,,,,,,,,,,,,,,,,,0,1,1,1,1,,,,,,,,,,,,,,,,,,,,,,,,,,,,,,,,,,,,,,,,,,,,,,
086768,001,2022-11-20_17h46.29.498,Info_measure_main_exp,2022.2.2,Win32,59.84440455,,,,,,,,,,,,,,,,,,masks/mask_005.jpg,,,,,,,,,,,,,,,,,,,,,,,,,,,,,,,,,,,,,,,,,,,0,2,2,4,1,,,,,,,,,,,,,,,,,,,,,,,,,,,,,,,,,,,,,,,,,,,,,,
086768,001,2022-11-20_17h46.29.498,Info_measure_main_exp,2022.2.2,Win32,59.84440455,,,,,,,,,,,,,,,,,,masks/mask_003.jpg,,,,,,,,,,,,,,,,,,,,,,,,,,,,,,,,,,,,,,,,,,,0,3,3,2,1,,,,,,,,,,,,,,,,,,,,,,,,,,,,,,,,,,,,,,,,,,,,,,
086768,001,2022-11-20_17h46.29.498,Info_measure_main_exp,2022.2.2,Win32,59.84440455,,,,,,,,,,,,,,,,,,masks/mask_001.jpg,,,,,,,,,,,,,,,,,,,,,,,,,,,,,,,,,,,,,,,,,,,0,4,4,0,1,,,,,,,,,,,,,,,,,,,,,,,,,,,,,,,,,,,,,,,,,,,,,,
086768,001,2022-11-20_17h46.29.498,Info_measure_main_exp,2022.2.2,Win32,59.84440455,,,,,,,,,,,,,,,,,,masks/mask_003.jpg,,,,,,,,,,,,,,,,,,,,,,,,,,,,,,,,,,,,,,,,,,,,,,,,0,0,0,2,1,,,,,,,,,,,,,,,,,,,,,,,,,,,,,,,,,,,,,,,,,
086768,001,2022-11-20_17h46.29.498,Info_measure_main_exp,2022.2.2,Win32,59.84440455,,,,,,,,,,,,,,,,,,masks/mask_004.jpg,,,,,,,,,,,,,,,,,,,,,,,,,,,,,,,,,,,,,,,,,,,,,,,,0,1,1,3,1,,,,,,,,,,,,,,,,,,,,,,,,,,,,,,,,,,,,,,,,,
086768,001,2022-11-20_17h46.29.498,Info_measure_main_exp,2022.2.2,Win32,59.84440455,,,,,,,,,,,,,,,,,,masks/mask_001.jpg,,,,,,,,,,,,,,,,,,,,,,,,,,,,,,,,,,,,,,,,,,,,,,,,0,2,2,0,1,,,,,,,,,,,,,,,,,,,,,,,,,,,,,,,,,,,,,,,,,
086768,001,2022-11-20_17h46.29.498,Info_measure_main_exp,2022.2.2,Win32,59.84440455,,,,,,,,,,,,,,,,,,masks/mask_005.jpg,,,,,,,,,,,,,,,,,,,,,,,,,,,,,,,,,,,,,,,,,,,,,,,,0,3,3,4,1,,,,,,,,,,,,,,,,,,,,,,,,,,,,,,,,,,,,,,,,,
086768,001,2022-11-20_17h46.29.498,Info_measure_main_exp,2022.2.2,Win32,59.84440455,,,,,,,,,,,,,,,,,,masks/mask_002.jpg,,,,,,,,,,,,,,,,,,,,,,,,,,,,,,,,,,,,,,,,,,,,,,,,0,4,4,1,1,,,,,,,,,,,,,,,,,,,,,,,,,,,,,,,,,,,,,,,,,
086768,001,2022-11-20_17h46.29.498,Info_measure_main_exp,2022.2.2,Win32,59.84440455,,,,,,,,,,,,,,,,,,,,,,,,,,,,,,7,1.3188,1,,,,,,,,,,,,0,131,5,5,2154,1950,absent_patch/patch0002154.jpg,absent_patch/patch0001950.jpg,,,,,,,,,,,,,,,,,,,,0.046296296,0.127777778,1,0,0,response1disk,9,0.005555556,-0.002777778,1,0,0,center_square,0,8,8,96,1,,,,,,,,,,,,,,,,,,,,,,,
086768,001,2022-11-20_17h46.29.498,Info_measure_main_exp,2022.2.2,Win32,59.84440455,,,,,,,,,,,,,,,,,,masks/mask_005.jpg,,,,,,,,,,,,,,,,,,,,,,,,,,,,,,,,,,,,,,,,,,,0,0,0,4,1,,,,,,,,,,,,,,,,,,,,,,,,,,,,,,,,,,,,,,,,,,,,,,
086768,001,2022-11-20_17h46.29.498,Info_measure_main_exp,2022.2.2,Win32,59.84440455,,,,,,,,,,,,,,,,,,masks/mask_003.jpg,,,,,,,,,,,,,,,,,,,,,,,,,,,,,,,,,,,,,,,,,,,0,1,1,2,1,,,,,,,,,,,,,,,,,,,,,,,,,,,,,,,,,,,,,,,,,,,,,,
086768,001,2022-11-20_17h46.29.498,Info_measure_main_exp,2022.2.2,Win32,59.84440455,,,,,,,,,,,,,,,,,,masks/mask_001.jpg,,,,,,,,,,,,,,,,,,,,,,,,,,,,,,,,,,,,,,,,,,,0,2,2,0,1,,,,,,,,,,,,,,,,,,,,,,,,,,,,,,,,,,,,,,,,,,,,,,
086768,001,2022-11-20_17h46.29.498,Info_measure_main_exp,2022.2.2,Win32,59.84440455,,,,,,,,,,,,,,,,,,masks/mask_002.jpg,,,,,,,,,,,,,,,,,,,,,,,,,,,,,,,,,,,,,,,,,,,0,3,3,1,1,,,,,,,,,,,,,,,,,,,,,,,,,,,,,,,,,,,,,,,,,,,,,,
086768,001,2022-11-20_17h46.29.498,Info_measure_main_exp,2022.2.2,Win32,59.84440455,,,,,,,,,,,,,,,,,,masks/mask_004.jpg,,,,,,,,,,,,,,,,,,,,,,,,,,,,,,,,,,,,,,,,,,,0,4,4,3,1,,,,,,,,,,,,,,,,,,,,,,,,,,,,,,,,,,,,,,,,,,,,,,
086768,001,2022-11-20_17h46.29.498,Info_measure_main_exp,2022.2.2,Win32,59.84440455,,,,,,,,,,,,,,,,,,masks/mask_004.jpg,,,,,,,,,,,,,,,,,,,,,,,,,,,,,,,,,,,,,,,,,,,,,,,,0,0,0,3,1,,,,,,,,,,,,,,,,,,,,,,,,,,,,,,,,,,,,,,,,,
086768,001,2022-11-20_17h46.29.498,Info_measure_main_exp,2022.2.2,Win32,59.84440455,,,,,,,,,,,,,,,,,,masks/mask_002.jpg,,,,,,,,,,,,,,,,,,,,,,,,,,,,,,,,,,,,,,,,,,,,,,,,0,1,1,1,1,,,,,,,,,,,,,,,,,,,,,,,,,,,,,,,,,,,,,,,,,
086768,001,2022-11-20_17h46.29.498,Info_measure_main_exp,2022.2.2,Win32,59.84440455,,,,,,,,,,,,,,,,,,masks/mask_005.jpg,,,,,,,,,,,,,,,,,,,,,,,,,,,,,,,,,,,,,,,,,,,,,,,,0,2,2,4,1,,,,,,,,,,,,,,,,,,,,,,,,,,,,,,,,,,,,,,,,,
086768,001,2022-11-20_17h46.29.498,Info_measure_main_exp,2022.2.2,Win32,59.84440455,,,,,,,,,,,,,,,,,,masks/mask_003.jpg,,,,,,,,,,,,,,,,,,,,,,,,,,,,,,,,,,,,,,,,,,,,,,,,0,3,3,2,1,,,,,,,,,,,,,,,,,,,,,,,,,,,,,,,,,,,,,,,,,
086768,001,2022-11-20_17h46.29.498,Info_measure_main_exp,2022.2.2,Win32,59.84440455,,,,,,,,,,,,,,,,,,masks/mask_001.jpg,,,,,,,,,,,,,,,,,,,,,,,,,,,,,,,,,,,,,,,,,,,,,,,,0,4,4,0,1,,,,,,,,,,,,,,,,,,,,,,,,,,,,,,,,,,,,,,,,,
086768,001,2022-11-20_17h46.29.498,Info_measure_main_exp,2022.2.2,Win32,59.84440455,,,,,,,,,,,,,,,,,,,,,,,,,,,,,,7,1.0177,1,,,,,,,,,,,,0,131,5,5,2214,1986,absent_patch/patch0002214.jpg,absent_patch/patch0001986.jpg,,,,,,,,,,,,,,,,,,,,0.025925926,0.130555556,1,0,0,response1disk,10,-0.006481481,0.015740741,1,0,0,center_square,0,9,9,34,1,,,,,,,,,,,,,,,,,,,,,,,
086768,001,2022-11-20_17h46.29.498,Info_measure_main_exp,2022.2.2,Win32,59.84440455,,,,,,,,,,,,,,,,,,masks/mask_005.jpg,,,,,,,,,,,,,,,,,,,,,,,,,,,,,,,,,,,,,,,,,,,0,0,0,4,1,,,,,,,,,,,,,,,,,,,,,,,,,,,,,,,,,,,,,,,,,,,,,,
086768,001,2022-11-20_17h46.29.498,Info_measure_main_exp,2022.2.2,Win32,59.84440455,,,,,,,,,,,,,,,,,,masks/mask_002.jpg,,,,,,,,,,,,,,,,,,,,,,,,,,,,,,,,,,,,,,,,,,,0,1,1,1,1,,,,,,,,,,,,,,,,,,,,,,,,,,,,,,,,,,,,,,,,,,,,,,
086768,001,2022-11-20_17h46.29.498,Info_measure_main_exp,2022.2.2,Win32,59.84440455,,,,,,,,,,,,,,,,,,masks/mask_001.jpg,,,,,,,,,,,,,,,,,,,,,,,,,,,,,,,,,,,,,,,,,,,0,2,2,0,1,,,,,,,,,,,,,,,,,,,,,,,,,,,,,,,,,,,,,,,,,,,,,,
086768,001,2022-11-20_17h46.29.498,Info_measure_main_exp,2022.2.2,Win32,59.84440455,,,,,,,,,,,,,,,,,,masks/mask_004.jpg,,,,,,,,,,,,,,,,,,,,,,,,,,,,,,,,,,,,,,,,,,,0,3,3,3,1,,,,,,,,,,,,,,,,,,,,,,,,,,,,,,,,,,,,,,,,,,,,,,
086768,001,2022-11-20_17h46.29.498,Info_measure_main_exp,2022.2.2,Win32,59.84440455,,,,,,,,,,,,,,,,,,masks/mask_003.jpg,,,,,,,,,,,,,,,,,,,,,,,,,,,,,,,,,,,,,,,,,,,0,4,4,2,1,,,,,,,,,,,,,,,,,,,,,,,,,,,,,,,,,,,,,,,,,,,,,,
086768,001,2022-11-20_17h46.29.498,Info_measure_main_exp,2022.2.2,Win32,59.84440455,,,,,,,,,,,,,,,,,,masks/mask_002.jpg,,,,,,,,,,,,,,,,,,,,,,,,,,,,,,,,,,,,,,,,,,,,,,,,0,0,0,1,1,,,,,,,,,,,,,,,,,,,,,,,,,,,,,,,,,,,,,,,,,
086768,001,2022-11-20_17h46.29.498,Info_measure_main_exp,2022.2.2,Win32,59.84440455,,,,,,,,,,,,,,,,,,masks/mask_004.jpg,,,,,,,,,,,,,,,,,,,,,,,,,,,,,,,,,,,,,,,,,,,,,,,,0,1,1,3,1,,,,,,,,,,,,,,,,,,,,,,,,,,,,,,,,,,,,,,,,,
086768,001,2022-11-20_17h46.29.498,Info_measure_main_exp,2022.2.2,Win32,59.84440455,,,,,,,,,,,,,,,,,,masks/mask_001.jpg,,,,,,,,,,,,,,,,,,,,,,,,,,,,,,,,,,,,,,,,,,,,,,,,0,2,2,0,1,,,,,,,,,,,,,,,,,,,,,,,,,,,,,,,,,,,,,,,,,
086768,001,2022-11-20_17h46.29.498,Info_measure_main_exp,2022.2.2,Win32,59.84440455,,,,,,,,,,,,,,,,,,masks/mask_003.jpg,,,,,,,,,,,,,,,,,,,,,,,,,,,,,,,,,,,,,,,,,,,,,,,,0,3,3,2,1,,,,,,,,,,,,,,,,,,,,,,,,,,,,,,,,,,,,,,,,,
086768,001,2022-11-20_17h46.29.498,Info_measure_main_exp,2022.2.2,Win32,59.84440455,,,,,,,,,,,,,,,,,,masks/mask_005.jpg,,,,,,,,,,,,,,,,,,,,,,,,,,,,,,,,,,,,,,,,,,,,,,,,0,4,4,4,1,,,,,,,,,,,,,,,,,,,,,,,,,,,,,,,,,,,,,,,,,
086768,001,2022-11-20_17h46.29.498,Info_measure_main_exp,2022.2.2,Win32,59.84440455,,,,,,,,,,,,,,,,,,,,,,,,,,,,,,2,2.8703,1,,,,,,,,,,,,1,131,5,5,2238,1,absent_patch/patch0002238.jpg,present_patch/cong_131_5_a.jpg,,,,,,,,,,,,,,,,,,,,-0.113888889,-0.02962963,1,0,0,response5disk,11,0.000925926,0.001851852,1,0,0,center_square,0,10,10,104,1,,,,,,,,,,,,,,,,,,,,,,,
086768,001,2022-11-20_17h46.29.498,Info_measure_main_exp,2022.2.2,Win32,59.84440455,,,,,,,,,,,,,,,,,,masks/mask_002.jpg,,,,,,,,,,,,,,,,,,,,,,,,,,,,,,,,,,,,,,,,,,,0,0,0,1,1,,,,,,,,,,,,,,,,,,,,,,,,,,,,,,,,,,,,,,,,,,,,,,
086768,001,2022-11-20_17h46.29.498,Info_measure_main_exp,2022.2.2,Win32,59.84440455,,,,,,,,,,,,,,,,,,masks/mask_004.jpg,,,,,,,,,,,,,,,,,,,,,,,,,,,,,,,,,,,,,,,,,,,0,1,1,3,1,,,,,,,,,,,,,,,,,,,,,,,,,,,,,,,,,,,,,,,,,,,,,,
086768,001,2022-11-20_17h46.29.498,Info_measure_main_exp,2022.2.2,Win32,59.84440455,,,,,,,,,,,,,,,,,,masks/mask_005.jpg,,,,,,,,,,,,,,,,,,,,,,,,,,,,,,,,,,,,,,,,,,,0,2,2,4,1,,,,,,,,,,,,,,,,,,,,,,,,,,,,,,,,,,,,,,,,,,,,,,
086768,001,2022-11-20_17h46.29.498,Info_measure_main_exp,2022.2.2,Win32,59.84440455,,,,,,,,,,,,,,,,,,masks/mask_001.jpg,,,,,,,,,,,,,,,,,,,,,,,,,,,,,,,,,,,,,,,,,,,0,3,3,0,1,,,,,,,,,,,,,,,,,,,,,,,,,,,,,,,,,,,,,,,,,,,,,,
086768,001,2022-11-20_17h46.29.498,Info_measure_main_exp,2022.2.2,Win32,59.84440455,,,,,,,,,,,,,,,,,,masks/mask_003.jpg,,,,,,,,,,,,,,,,,,,,,,,,,,,,,,,,,,,,,,,,,,,0,4,4,2,1,,,,,,,,,,,,,,,,,,,,,,,,,,,,,,,,,,,,,,,,,,,,,,
086768,001,2022-11-20_17h46.29.498,Info_measure_main_exp,2022.2.2,Win32,59.84440455,,,,,,,,,,,,,,,,,,masks/mask_003.jpg,,,,,,,,,,,,,,,,,,,,,,,,,,,,,,,,,,,,,,,,,,,,,,,,0,0,0,2,1,,,,,,,,,,,,,,,,,,,,,,,,,,,,,,,,,,,,,,,,,
086768,001,2022-11-20_17h46.29.498,Info_measure_main_exp,2022.2.2,Win32,59.84440455,,,,,,,,,,,,,,,,,,masks/mask_005.jpg,,,,,,,,,,,,,,,,,,,,,,,,,,,,,,,,,,,,,,,,,,,,,,,,0,1,1,4,1,,,,,,,,,,,,,,,,,,,,,,,,,,,,,,,,,,,,,,,,,
086768,001,2022-11-20_17h46.29.498,Info_measure_main_exp,2022.2.2,Win32,59.84440455,,,,,,,,,,,,,,,,,,masks/mask_004.jpg,,,,,,,,,,,,,,,,,,,,,,,,,,,,,,,,,,,,,,,,,,,,,,,,0,2,2,3,1,,,,,,,,,,,,,,,,,,,,,,,,,,,,,,,,,,,,,,,,,
086768,001,2022-11-20_17h46.29.498,Info_measure_main_exp,2022.2.2,Win32,59.84440455,,,,,,,,,,,,,,,,,,masks/mask_001.jpg,,,,,,,,,,,,,,,,,,,,,,,,,,,,,,,,,,,,,,,,,,,,,,,,0,3,3,0,1,,,,,,,,,,,,,,,,,,,,,,,,,,,,,,,,,,,,,,,,,
086768,001,2022-11-20_17h46.29.498,Info_measure_main_exp,2022.2.2,Win32,59.84440455,,,,,,,,,,,,,,,,,,masks/mask_002.jpg,,,,,,,,,,,,,,,,,,,,,,,,,,,,,,,,,,,,,,,,,,,,,,,,0,4,4,1,1,,,,,,,,,,,,,,,,,,,,,,,,,,,,,,,,,,,,,,,,,
086768,001,2022-11-20_17h46.29.498,Info_measure_main_exp,2022.2.2,Win32,59.84440455,,,,,,,,,,,,,,,,,,,,,,,,,,,,,,4,3.104,1,,,,,,,,,,,,1,131,5,5,2082,1,absent_patch/patch0002082.jpg,present_patch/cong_131_5_a.jpg,,,,,,,,,,,,,,,,,,,,0.044444444,-0.051851852,1,0,0,response3disk,12,-0.003703704,0.006481481,1,0,0,center_square,0,11,11,65,1,,,,,,,,,,,,,,,,,,,,,,,
086768,001,2022-11-20_17h46.29.498,Info_measure_main_exp,2022.2.2,Win32,59.84440455,,,,,,,,,,,,,,,,,,masks/mask_003.jpg,,,,,,,,,,,,,,,,,,,,,,,,,,,,,,,,,,,,,,,,,,,0,0,0,2,1,,,,,,,,,,,,,,,,,,,,,,,,,,,,,,,,,,,,,,,,,,,,,,
086768,001,2022-11-20_17h46.29.498,Info_measure_main_exp,2022.2.2,Win32,59.84440455,,,,,,,,,,,,,,,,,,masks/mask_005.jpg,,,,,,,,,,,,,,,,,,,,,,,,,,,,,,,,,,,,,,,,,,,0,1,1,4,1,,,,,,,,,,,,,,,,,,,,,,,,,,,,,,,,,,,,,,,,,,,,,,
086768,001,2022-11-20_17h46.29.498,Info_measure_main_exp,2022.2.2,Win32,59.84440455,,,,,,,,,,,,,,,,,,masks/mask_004.jpg,,,,,,,,,,,,,,,,,,,,,,,,,,,,,,,,,,,,,,,,,,,0,2,2,3,1,,,,,,,,,,,,,,,,,,,,,,,,,,,,,,,,,,,,,,,,,,,,,,
086768,001,2022-11-20_17h46.29.498,Info_measure_main_exp,2022.2.2,Win32,59.84440455,,,,,,,,,,,,,,,,,,masks/mask_002.jpg,,,,,,,,,,,,,,,,,,,,,,,,,,,,,,,,,,,,,,,,,,,0,3,3,1,1,,,,,,,,,,,,,,,,,,,,,,,,,,,,,,,,,,,,,,,,,,,,,,
086768,001,2022-11-20_17h46.29.498,Info_measure_main_exp,2022.2.2,Win32,59.84440455,,,,,,,,,,,,,,,,,,masks/mask_001.jpg,,,,,,,,,,,,,,,,,,,,,,,,,,,,,,,,,,,,,,,,,,,0,4,4,0,1,,,,,,,,,,,,,,,,,,,,,,,,,,,,,,,,,,,,,,,,,,,,,,
086768,001,2022-11-20_17h46.29.498,Info_measure_main_exp,2022.2.2,Win32,59.84440455,,,,,,,,,,,,,,,,,,masks/mask_003.jpg,,,,,,,,,,,,,,,,,,,,,,,,,,,,,,,,,,,,,,,,,,,,,,,,0,0,0,2,1,,,,,,,,,,,,,,,,,,,,,,,,,,,,,,,,,,,,,,,,,
086768,001,2022-11-20_17h46.29.498,Info_measure_main_exp,2022.2.2,Win32,59.84440455,,,,,,,,,,,,,,,,,,masks/mask_001.jpg,,,,,,,,,,,,,,,,,,,,,,,,,,,,,,,,,,,,,,,,,,,,,,,,0,1,1,0,1,,,,,,,,,,,,,,,,,,,,,,,,,,,,,,,,,,,,,,,,,
086768,001,2022-11-20_17h46.29.498,Info_measure_main_exp,2022.2.2,Win32,59.84440455,,,,,,,,,,,,,,,,,,masks/mask_002.jpg,,,,,,,,,,,,,,,,,,,,,,,,,,,,,,,,,,,,,,,,,,,,,,,,0,2,2,1,1,,,,,,,,,,,,,,,,,,,,,,,,,,,,,,,,,,,,,,,,,
086768,001,2022-11-20_17h46.29.498,Info_measure_main_exp,2022.2.2,Win32,59.84440455,,,,,,,,,,,,,,,,,,masks/mask_004.jpg,,,,,,,,,,,,,,,,,,,,,,,,,,,,,,,,,,,,,,,,,,,,,,,,0,3,3,3,1,,,,,,,,,,,,,,,,,,,,,,,,,,,,,,,,,,,,,,,,,
086768,001,2022-11-20_17h46.29.498,Info_measure_main_exp,2022.2.2,Win32,59.84440455,,,,,,,,,,,,,,,,,,masks/mask_005.jpg,,,,,,,,,,,,,,,,,,,,,,,,,,,,,,,,,,,,,,,,,,,,,,,,0,4,4,4,1,,,,,,,,,,,,,,,,,,,,,,,,,,,,,,,,,,,,,,,,,
086768,001,2022-11-20_17h46.29.498,Info_measure_main_exp,2022.2.2,Win32,59.84440455,,,,,,,,,,,,,,,,,,,,,,,,,,,,,,6,5.8894,1,,,,,,,,,,,,0,131,5,5,2166,1986,absent_patch/patch0002166.jpg,absent_patch/patch0001986.jpg,,,,,,,,,,,,,,,,,,,,0.051851852,0.019444444,1,0,0,response1disk,13,-0.00462963,0.003703704,1,0,0,center_square,0,12,12,47,1,,,,,,,,,,,,,,,,,,,,,,,
086768,001,2022-11-20_17h46.29.498,Info_measure_main_exp,2022.2.2,Win32,59.84440455,,,,,,,,,,,,,,,,,,masks/mask_003.jpg,,,,,,,,,,,,,,,,,,,,,,,,,,,,,,,,,,,,,,,,,,,0,0,0,2,1,,,,,,,,,,,,,,,,,,,,,,,,,,,,,,,,,,,,,,,,,,,,,,
086768,001,2022-11-20_17h46.29.498,Info_measure_main_exp,2022.2.2,Win32,59.84440455,,,,,,,,,,,,,,,,,,masks/mask_001.jpg,,,,,,,,,,,,,,,,,,,,,,,,,,,,,,,,,,,,,,,,,,,0,1,1,0,1,,,,,,,,,,,,,,,,,,,,,,,,,,,,,,,,,,,,,,,,,,,,,,
086768,001,2022-11-20_17h46.29.498,Info_measure_main_exp,2022.2.2,Win32,59.84440455,,,,,,,,,,,,,,,,,,masks/mask_004.jpg,,,,,,,,,,,,,,,,,,,,,,,,,,,,,,,,,,,,,,,,,,,0,2,2,3,1,,,,,,,,,,,,,,,,,,,,,,,,,,,,,,,,,,,,,,,,,,,,,,
086768,001,2022-11-20_17h46.29.498,Info_measure_main_exp,2022.2.2,Win32,59.84440455,,,,,,,,,,,,,,,,,,masks/mask_005.jpg,,,,,,,,,,,,,,,,,,,,,,,,,,,,,,,,,,,,,,,,,,,0,3,3,4,1,,,,,,,,,,,,,,,,,,,,,,,,,,,,,,,,,,,,,,,,,,,,,,
086768,001,2022-11-20_17h46.29.498,Info_measure_main_exp,2022.2.2,Win32,59.84440455,,,,,,,,,,,,,,,,,,masks/mask_002.jpg,,,,,,,,,,,,,,,,,,,,,,,,,,,,,,,,,,,,,,,,,,,0,4,4,1,1,,,,,,,,,,,,,,,,,,,,,,,,,,,,,,,,,,,,,,,,,,,,,,
086768,001,2022-11-20_17h46.29.498,Info_measure_main_exp,2022.2.2,Win32,59.84440455,,,,,,,,,,,,,,,,,,masks/mask_003.jpg,,,,,,,,,,,,,,,,,,,,,,,,,,,,,,,,,,,,,,,,,,,,,,,,0,0,0,2,1,,,,,,,,,,,,,,,,,,,,,,,,,,,,,,,,,,,,,,,,,
086768,001,2022-11-20_17h46.29.498,Info_measure_main_exp,2022.2.2,Win32,59.84440455,,,,,,,,,,,,,,,,,,masks/mask_004.jpg,,,,,,,,,,,,,,,,,,,,,,,,,,,,,,,,,,,,,,,,,,,,,,,,0,1,1,3,1,,,,,,,,,,,,,,,,,,,,,,,,,,,,,,,,,,,,,,,,,
086768,001,2022-11-20_17h46.29.498,Info_measure_main_exp,2022.2.2,Win32,59.84440455,,,,,,,,,,,,,,,,,,masks/mask_002.jpg,,,,,,,,,,,,,,,,,,,,,,,,,,,,,,,,,,,,,,,,,,,,,,,,0,2,2,1,1,,,,,,,,,,,,,,,,,,,,,,,,,,,,,,,,,,,,,,,,,
086768,001,2022-11-20_17h46.29.498,Info_measure_main_exp,2022.2.2,Win32,59.84440455,,,,,,,,,,,,,,,,,,masks/mask_005.jpg,,,,,,,,,,,,,,,,,,,,,,,,,,,,,,,,,,,,,,,,,,,,,,,,0,3,3,4,1,,,,,,,,,,,,,,,,,,,,,,,,,,,,,,,,,,,,,,,,,
086768,001,2022-11-20_17h46.29.498,Info_measure_main_exp,2022.2.2,Win32,59.84440455,,,,,,,,,,,,,,,,,,masks/mask_001.jpg,,,,,,,,,,,,,,,,,,,,,,,,,,,,,,,,,,,,,,,,,,,,,,,,0,4,4,0,1,,,,,,,,,,,,,,,,,,,,,,,,,,,,,,,,,,,,,,,,,
086768,001,2022-11-20_17h46.29.498,Info_measure_main_exp,2022.2.2,Win32,59.84440455,,,,,,,,,,,,,,,,,,,,,,,,,,,,,,0,1.1852,1,,,,,,,,,,,,0,131,5,5,1950,1950,absent_patch/patch0001950.jpg,absent_patch/patch0001950.jpg,,,,,,,,,,,,,,,,,,,,-0.04537037,0.130555556,1,0,0,response7disk,14,0.002777778,0.003703704,1,0,0,center_square,0,13,13,92,1,,,,,,,,,,,,,,,,,,,,,,,
086768,001,2022-11-20_17h46.29.498,Info_measure_main_exp,2022.2.2,Win32,59.84440455,,,,,,,,,,,,,,,,,,masks/mask_002.jpg,,,,,,,,,,,,,,,,,,,,,,,,,,,,,,,,,,,,,,,,,,,0,0,0,1,1,,,,,,,,,,,,,,,,,,,,,,,,,,,,,,,,,,,,,,,,,,,,,,
086768,001,2022-11-20_17h46.29.498,Info_measure_main_exp,2022.2.2,Win32,59.84440455,,,,,,,,,,,,,,,,,,masks/mask_005.jpg,,,,,,,,,,,,,,,,,,,,,,,,,,,,,,,,,,,,,,,,,,,0,1,1,4,1,,,,,,,,,,,,,,,,,,,,,,,,,,,,,,,,,,,,,,,,,,,,,,
086768,001,2022-11-20_17h46.29.498,Info_measure_main_exp,2022.2.2,Win32,59.84440455,,,,,,,,,,,,,,,,,,masks/mask_001.jpg,,,,,,,,,,,,,,,,,,,,,,,,,,,,,,,,,,,,,,,,,,,0,2,2,0,1,,,,,,,,,,,,,,,,,,,,,,,,,,,,,,,,,,,,,,,,,,,,,,
086768,001,2022-11-20_17h46.29.498,Info_measure_main_exp,2022.2.2,Win32,59.84440455,,,,,,,,,,,,,,,,,,masks/mask_003.jpg,,,,,,,,,,,,,,,,,,,,,,,,,,,,,,,,,,,,,,,,,,,0,3,3,2,1,,,,,,,,,,,,,,,,,,,,,,,,,,,,,,,,,,,,,,,,,,,,,,
086768,001,2022-11-20_17h46.29.498,Info_measure_main_exp,2022.2.2,Win32,59.84440455,,,,,,,,,,,,,,,,,,masks/mask_004.jpg,,,,,,,,,,,,,,,,,,,,,,,,,,,,,,,,,,,,,,,,,,,0,4,4,3,1,,,,,,,,,,,,,,,,,,,,,,,,,,,,,,,,,,,,,,,,,,,,,,
086768,001,2022-11-20_17h46.29.498,Info_measure_main_exp,2022.2.2,Win32,59.84440455,,,,,,,,,,,,,,,,,,masks/mask_001.jpg,,,,,,,,,,,,,,,,,,,,,,,,,,,,,,,,,,,,,,,,,,,,,,,,0,0,0,0,1,,,,,,,,,,,,,,,,,,,,,,,,,,,,,,,,,,,,,,,,,
086768,001,2022-11-20_17h46.29.498,Info_measure_main_exp,2022.2.2,Win32,59.84440455,,,,,,,,,,,,,,,,,,masks/mask_002.jpg,,,,,,,,,,,,,,,,,,,,,,,,,,,,,,,,,,,,,,,,,,,,,,,,0,1,1,1,1,,,,,,,,,,,,,,,,,,,,,,,,,,,,,,,,,,,,,,,,,
086768,001,2022-11-20_17h46.29.498,Info_measure_main_exp,2022.2.2,Win32,59.84440455,,,,,,,,,,,,,,,,,,masks/mask_003.jpg,,,,,,,,,,,,,,,,,,,,,,,,,,,,,,,,,,,,,,,,,,,,,,,,0,2,2,2,1,,,,,,,,,,,,,,,,,,,,,,,,,,,,,,,,,,,,,,,,,
086768,001,2022-11-20_17h46.29.498,Info_measure_main_exp,2022.2.2,Win32,59.84440455,,,,,,,,,,,,,,,,,,masks/mask_005.jpg,,,,,,,,,,,,,,,,,,,,,,,,,,,,,,,,,,,,,,,,,,,,,,,,0,3,3,4,1,,,,,,,,,,,,,,,,,,,,,,,,,,,,,,,,,,,,,,,,,
086768,001,2022-11-20_17h46.29.498,Info_measure_main_exp,2022.2.2,Win32,59.84440455,,,,,,,,,,,,,,,,,,masks/mask_004.jpg,,,,,,,,,,,,,,,,,,,,,,,,,,,,,,,,,,,,,,,,,,,,,,,,0,4,4,3,1,,,,,,,,,,,,,,,,,,,,,,,,,,,,,,,,,,,,,,,,,
086768,001,2022-11-20_17h46.29.498,Info_measure_main_exp,2022.2.2,Win32,59.84440455,,,,,,,,,,,,,,,,,,,,,,,,,,,,,,5,2.553,1,,,,,,,,,,,,0,131,5,5,2154,2190,absent_patch/patch0002154.jpg,absent_patch/patch0002190.jpg,,,,,,,,,,,,,,,,,,,,0.028703704,-0.015740741,1,0,0,response3disk,15,-0.002777778,0.000925926,1,0,0,center_square,0,14,14,68,1,,,,,,,,,,,,,,,,,,,,,,,
086768,001,2022-11-20_17h46.29.498,Info_measure_main_exp,2022.2.2,Win32,59.84440455,,,,,,,,,,,,,,,,,,masks/mask_002.jpg,,,,,,,,,,,,,,,,,,,,,,,,,,,,,,,,,,,,,,,,,,,0,0,0,1,1,,,,,,,,,,,,,,,,,,,,,,,,,,,,,,,,,,,,,,,,,,,,,,
086768,001,2022-11-20_17h46.29.498,Info_measure_main_exp,2022.2.2,Win32,59.84440455,,,,,,,,,,,,,,,,,,masks/mask_003.jpg,,,,,,,,,,,,,,,,,,,,,,,,,,,,,,,,,,,,,,,,,,,0,1,1,2,1,,,,,,,,,,,,,,,,,,,,,,,,,,,,,,,,,,,,,,,,,,,,,,
086768,001,2022-11-20_17h46.29.498,Info_measure_main_exp,2022.2.2,Win32,59.84440455,,,,,,,,,,,,,,,,,,masks/mask_001.jpg,,,,,,,,,,,,,,,,,,,,,,,,,,,,,,,,,,,,,,,,,,,0,2,2,0,1,,,,,,,,,,,,,,,,,,,,,,,,,,,,,,,,,,,,,,,,,,,,,,
086768,001,2022-11-20_17h46.29.498,Info_measure_main_exp,2022.2.2,Win32,59.84440455,,,,,,,,,,,,,,,,,,masks/mask_005.jpg,,,,,,,,,,,,,,,,,,,,,,,,,,,,,,,,,,,,,,,,,,,0,3,3,4,1,,,,,,,,,,,,,,,,,,,,,,,,,,,,,,,,,,,,,,,,,,,,,,
086768,001,2022-11-20_17h46.29.498,Info_measure_main_exp,2022.2.2,Win32,59.84440455,,,,,,,,,,,,,,,,,,masks/mask_004.jpg,,,,,,,,,,,,,,,,,,,,,,,,,,,,,,,,,,,,,,,,,,,0,4,4,3,1,,,,,,,,,,,,,,,,,,,,,,,,,,,,,,,,,,,,,,,,,,,,,,
086768,001,2022-11-20_17h46.29.498,Info_measure_main_exp,2022.2.2,Win32,59.84440455,,,,,,,,,,,,,,,,,,masks/mask_002.jpg,,,,,,,,,,,,,,,,,,,,,,,,,,,,,,,,,,,,,,,,,,,,,,,,0,0,0,1,1,,,,,,,,,,,,,,,,,,,,,,,,,,,,,,,,,,,,,,,,,
086768,001,2022-11-20_17h46.29.498,Info_measure_main_exp,2022.2.2,Win32,59.84440455,,,,,,,,,,,,,,,,,,masks/mask_001.jpg,,,,,,,,,,,,,,,,,,,,,,,,,,,,,,,,,,,,,,,,,,,,,,,,0,1,1,0,1,,,,,,,,,,,,,,,,,,,,,,,,,,,,,,,,,,,,,,,,,
086768,001,2022-11-20_17h46.29.498,Info_measure_main_exp,2022.2.2,Win32,59.84440455,,,,,,,,,,,,,,,,,,masks/mask_004.jpg,,,,,,,,,,,,,,,,,,,,,,,,,,,,,,,,,,,,,,,,,,,,,,,,0,2,2,3,1,,,,,,,,,,,,,,,,,,,,,,,,,,,,,,,,,,,,,,,,,
086768,001,2022-11-20_17h46.29.498,Info_measure_main_exp,2022.2.2,Win32,59.84440455,,,,,,,,,,,,,,,,,,masks/mask_003.jpg,,,,,,,,,,,,,,,,,,,,,,,,,,,,,,,,,,,,,,,,,,,,,,,,0,3,3,2,1,,,,,,,,,,,,,,,,,,,,,,,,,,,,,,,,,,,,,,,,,
086768,001,2022-11-20_17h46.29.498,Info_measure_main_exp,2022.2.2,Win32,59.84440455,,,,,,,,,,,,,,,,,,masks/mask_005.jpg,,,,,,,,,,,,,,,,,,,,,,,,,,,,,,,,,,,,,,,,,,,,,,,,0,4,4,4,1,,,,,,,,,,,,,,,,,,,,,,,,,,,,,,,,,,,,,,,,,
086768,001,2022-11-20_17h46.29.498,Info_measure_main_exp,2022.2.2,Win32,59.84440455,,,,,,,,,,,,,,,,,,,,,,,,,,,,,,4,2.3356,1,,,,,,,,,,,,0,131,5,5,2298,2142,absent_patch/patch0002298.jpg,absent_patch/patch0002142.jpg,,,,,,,,,,,,,,,,,,,,0.022222222,-0.037962963,1,0,0,response3disk,16,-0.007407407,0.009259259,1,0,0,center_square,0,15,15,49,1,,,,,,,,,,,,,,,,,,,,,,,
086768,001,2022-11-20_17h46.29.498,Info_measure_main_exp,2022.2.2,Win32,59.84440455,,,,,,,,,,,,,,,,,,masks/mask_004.jpg,,,,,,,,,,,,,,,,,,,,,,,,,,,,,,,,,,,,,,,,,,,0,0,0,3,1,,,,,,,,,,,,,,,,,,,,,,,,,,,,,,,,,,,,,,,,,,,,,,
086768,001,2022-11-20_17h46.29.498,Info_measure_main_exp,2022.2.2,Win32,59.84440455,,,,,,,,,,,,,,,,,,masks/mask_002.jpg,,,,,,,,,,,,,,,,,,,,,,,,,,,,,,,,,,,,,,,,,,,0,1,1,1,1,,,,,,,,,,,,,,,,,,,,,,,,,,,,,,,,,,,,,,,,,,,,,,
086768,001,2022-11-20_17h46.29.498,Info_measure_main_exp,2022.2.2,Win32,59.84440455,,,,,,,,,,,,,,,,,,masks/mask_003.jpg,,,,,,,,,,,,,,,,,,,,,,,,,,,,,,,,,,,,,,,,,,,0,2,2,2,1,,,,,,,,,,,,,,,,,,,,,,,,,,,,,,,,,,,,,,,,,,,,,,
086768,001,2022-11-20_17h46.29.498,Info_measure_main_exp,2022.2.2,Win32,59.84440455,,,,,,,,,,,,,,,,,,masks/mask_005.jpg,,,,,,,,,,,,,,,,,,,,,,,,,,,,,,,,,,,,,,,,,,,0,3,3,4,1,,,,,,,,,,,,,,,,,,,,,,,,,,,,,,,,,,,,,,,,,,,,,,
086768,001,2022-11-20_17h46.29.498,Info_measure_main_exp,2022.2.2,Win32,59.84440455,,,,,,,,,,,,,,,,,,masks/mask_001.jpg,,,,,,,,,,,,,,,,,,,,,,,,,,,,,,,,,,,,,,,,,,,0,4,4,0,1,,,,,,,,,,,,,,,,,,,,,,,,,,,,,,,,,,,,,,,,,,,,,,
086768,001,2022-11-20_17h46.29.498,Info_measure_main_exp,2022.2.2,Win32,59.84440455,,,,,,,,,,,,,,,,,,masks/mask_002.jpg,,,,,,,,,,,,,,,,,,,,,,,,,,,,,,,,,,,,,,,,,,,,,,,,0,0,0,1,1,,,,,,,,,,,,,,,,,,,,,,,,,,,,,,,,,,,,,,,,,
086768,001,2022-11-20_17h46.29.498,Info_measure_main_exp,2022.2.2,Win32,59.84440455,,,,,,,,,,,,,,,,,,masks/mask_005.jpg,,,,,,,,,,,,,,,,,,,,,,,,,,,,,,,,,,,,,,,,,,,,,,,,0,1,1,4,1,,,,,,,,,,,,,,,,,,,,,,,,,,,,,,,,,,,,,,,,,
086768,001,2022-11-20_17h46.29.498,Info_measure_main_exp,2022.2.2,Win32,59.84440455,,,,,,,,,,,,,,,,,,masks/mask_004.jpg,,,,,,,,,,,,,,,,,,,,,,,,,,,,,,,,,,,,,,,,,,,,,,,,0,2,2,3,1,,,,,,,,,,,,,,,,,,,,,,,,,,,,,,,,,,,,,,,,,
086768,001,2022-11-20_17h46.29.498,Info_measure_main_exp,2022.2.2,Win32,59.84440455,,,,,,,,,,,,,,,,,,masks/mask_001.jpg,,,,,,,,,,,,,,,,,,,,,,,,,,,,,,,,,,,,,,,,,,,,,,,,0,3,3,0,1,,,,,,,,,,,,,,,,,,,,,,,,,,,,,,,,,,,,,,,,,
086768,001,2022-11-20_17h46.29.498,Info_measure_main_exp,2022.2.2,Win32,59.84440455,,,,,,,,,,,,,,,,,,masks/mask_003.jpg,,,,,,,,,,,,,,,,,,,,,,,,,,,,,,,,,,,,,,,,,,,,,,,,0,4,4,2,1,,,,,,,,,,,,,,,,,,,,,,,,,,,,,,,,,,,,,,,,,
086768,001,2022-11-20_17h46.29.498,Info_measure_main_exp,2022.2.2,Win32,59.84440455,,,,,,,,,,,,,,,,,,,,,,,,,,,,,,3,1.4852,1,,,,,,,,,,,,0,131,5,5,2250,2166,absent_patch/patch0002250.jpg,absent_patch/patch0002166.jpg,,,,,,,,,,,,,,,,,,,,-0.016666667,-0.039814815,1,0,0,response5disk,17,-0.000925926,0,1,0,0,center_square,0,16,16,60,1,,,,,,,,,,,,,,,,,,,,,,,
086768,001,2022-11-20_17h46.29.498,Info_measure_main_exp,2022.2.2,Win32,59.84440455,,,,,,,,,,,,,,,,,,masks/mask_001.jpg,,,,,,,,,,,,,,,,,,,,,,,,,,,,,,,,,,,,,,,,,,,0,0,0,0,1,,,,,,,,,,,,,,,,,,,,,,,,,,,,,,,,,,,,,,,,,,,,,,
086768,001,2022-11-20_17h46.29.498,Info_measure_main_exp,2022.2.2,Win32,59.84440455,,,,,,,,,,,,,,,,,,masks/mask_002.jpg,,,,,,,,,,,,,,,,,,,,,,,,,,,,,,,,,,,,,,,,,,,0,1,1,1,1,,,,,,,,,,,,,,,,,,,,,,,,,,,,,,,,,,,,,,,,,,,,,,
086768,001,2022-11-20_17h46.29.498,Info_measure_main_exp,2022.2.2,Win32,59.84440455,,,,,,,,,,,,,,,,,,masks/mask_003.jpg,,,,,,,,,,,,,,,,,,,,,,,,,,,,,,,,,,,,,,,,,,,0,2,2,2,1,,,,,,,,,,,,,,,,,,,,,,,,,,,,,,,,,,,,,,,,,,,,,,
086768,001,2022-11-20_17h46.29.498,Info_measure_main_exp,2022.2.2,Win32,59.84440455,,,,,,,,,,,,,,,,,,masks/mask_005.jpg,,,,,,,,,,,,,,,,,,,,,,,,,,,,,,,,,,,,,,,,,,,0,3,3,4,1,,,,,,,,,,,,,,,,,,,,,,,,,,,,,,,,,,,,,,,,,,,,,,
086768,001,2022-11-20_17h46.29.498,Info_measure_main_exp,2022.2.2,Win32,59.84440455,,,,,,,,,,,,,,,,,,masks/mask_004.jpg,,,,,,,,,,,,,,,,,,,,,,,,,,,,,,,,,,,,,,,,,,,0,4,4,3,1,,,,,,,,,,,,,,,,,,,,,,,,,,,,,,,,,,,,,,,,,,,,,,
086768,001,2022-11-20_17h46.29.498,Info_measure_main_exp,2022.2.2,Win32,59.84440455,,,,,,,,,,,,,,,,,,masks/mask_002.jpg,,,,,,,,,,,,,,,,,,,,,,,,,,,,,,,,,,,,,,,,,,,,,,,,0,0,0,1,1,,,,,,,,,,,,,,,,,,,,,,,,,,,,,,,,,,,,,,,,,
086768,001,2022-11-20_17h46.29.498,Info_measure_main_exp,2022.2.2,Win32,59.84440455,,,,,,,,,,,,,,,,,,masks/mask_003.jpg,,,,,,,,,,,,,,,,,,,,,,,,,,,,,,,,,,,,,,,,,,,,,,,,0,1,1,2,1,,,,,,,,,,,,,,,,,,,,,,,,,,,,,,,,,,,,,,,,,
086768,001,2022-11-20_17h46.29.498,Info_measure_main_exp,2022.2.2,Win32,59.84440455,,,,,,,,,,,,,,,,,,masks/mask_004.jpg,,,,,,,,,,,,,,,,,,,,,,,,,,,,,,,,,,,,,,,,,,,,,,,,0,2,2,3,1,,,,,,,,,,,,,,,,,,,,,,,,,,,,,,,,,,,,,,,,,
086768,001,2022-11-20_17h46.29.498,Info_measure_main_exp,2022.2.2,Win32,59.84440455,,,,,,,,,,,,,,,,,,masks/mask_005.jpg,,,,,,,,,,,,,,,,,,,,,,,,,,,,,,,,,,,,,,,,,,,,,,,,0,3,3,4,1,,,,,,,,,,,,,,,,,,,,,,,,,,,,,,,,,,,,,,,,,
086768,001,2022-11-20_17h46.29.498,Info_measure_main_exp,2022.2.2,Win32,59.84440455,,,,,,,,,,,,,,,,,,masks/mask_001.jpg,,,,,,,,,,,,,,,,,,,,,,,,,,,,,,,,,,,,,,,,,,,,,,,,0,4,4,0,1,,,,,,,,,,,,,,,,,,,,,,,,,,,,,,,,,,,,,,,,,
086768,001,2022-11-20_17h46.29.498,Info_measure_main_exp,2022.2.2,Win32,59.84440455,,,,,,,,,,,,,,,,,,,,,,,,,,,,,,2,2.787,1,,,,,,,,,,,,0,131,5,5,2154,2238,absent_patch/patch0002154.jpg,absent_patch/patch0002238.jpg,,,,,,,,,,,,,,,,,,,,-0.073148148,-0.031481481,1,0,0,response5disk,18,0.002777778,-0.001851852,1,0,0,center_square,0,17,17,21,1,,,,,,,,,,,,,,,,,,,,,,,
086768,001,2022-11-20_17h46.29.498,Info_measure_main_exp,2022.2.2,Win32,59.84440455,,,,,,,,,,,,,,,,,,masks/mask_001.jpg,,,,,,,,,,,,,,,,,,,,,,,,,,,,,,,,,,,,,,,,,,,0,0,0,0,1,,,,,,,,,,,,,,,,,,,,,,,,,,,,,,,,,,,,,,,,,,,,,,
086768,001,2022-11-20_17h46.29.498,Info_measure_main_exp,2022.2.2,Win32,59.84440455,,,,,,,,,,,,,,,,,,masks/mask_005.jpg,,,,,,,,,,,,,,,,,,,,,,,,,,,,,,,,,,,,,,,,,,,0,1,1,4,1,,,,,,,,,,,,,,,,,,,,,,,,,,,,,,,,,,,,,,,,,,,,,,
086768,001,2022-11-20_17h46.29.498,Info_measure_main_exp,2022.2.2,Win32,59.84440455,,,,,,,,,,,,,,,,,,masks/mask_003.jpg,,,,,,,,,,,,,,,,,,,,,,,,,,,,,,,,,,,,,,,,,,,0,2,2,2,1,,,,,,,,,,,,,,,,,,,,,,,,,,,,,,,,,,,,,,,,,,,,,,
086768,001,2022-11-20_17h46.29.498,Info_measure_main_exp,2022.2.2,Win32,59.84440455,,,,,,,,,,,,,,,,,,masks/mask_002.jpg,,,,,,,,,,,,,,,,,,,,,,,,,,,,,,,,,,,,,,,,,,,0,3,3,1,1,,,,,,,,,,,,,,,,,,,,,,,,,,,,,,,,,,,,,,,,,,,,,,
086768,001,2022-11-20_17h46.29.498,Info_measure_main_exp,2022.2.2,Win32,59.84440455,,,,,,,,,,,,,,,,,,masks/mask_004.jpg,,,,,,,,,,,,,,,,,,,,,,,,,,,,,,,,,,,,,,,,,,,0,4,4,3,1,,,,,,,,,,,,,,,,,,,,,,,,,,,,,,,,,,,,,,,,,,,,,,
086768,001,2022-11-20_17h46.29.498,Info_measure_main_exp,2022.2.2,Win32,59.84440455,,,,,,,,,,,,,,,,,,masks/mask_002.jpg,,,,,,,,,,,,,,,,,,,,,,,,,,,,,,,,,,,,,,,,,,,,,,,,0,0,0,1,1,,,,,,,,,,,,,,,,,,,,,,,,,,,,,,,,,,,,,,,,,
086768,001,2022-11-20_17h46.29.498,Info_measure_main_exp,2022.2.2,Win32,59.84440455,,,,,,,,,,,,,,,,,,masks/mask_005.jpg,,,,,,,,,,,,,,,,,,,,,,,,,,,,,,,,,,,,,,,,,,,,,,,,0,1,1,4,1,,,,,,,,,,,,,,,,,,,,,,,,,,,,,,,,,,,,,,,,,
086768,001,2022-11-20_17h46.29.498,Info_measure_main_exp,2022.2.2,Win32,59.84440455,,,,,,,,,,,,,,,,,,masks/mask_001.jpg,,,,,,,,,,,,,,,,,,,,,,,,,,,,,,,,,,,,,,,,,,,,,,,,0,2,2,0,1,,,,,,,,,,,,,,,,,,,,,,,,,,,,,,,,,,,,,,,,,
086768,001,2022-11-20_17h46.29.498,Info_measure_main_exp,2022.2.2,Win32,59.84440455,,,,,,,,,,,,,,,,,,masks/mask_004.jpg,,,,,,,,,,,,,,,,,,,,,,,,,,,,,,,,,,,,,,,,,,,,,,,,0,3,3,3,1,,,,,,,,,,,,,,,,,,,,,,,,,,,,,,,,,,,,,,,,,
086768,001,2022-11-20_17h46.29.498,Info_measure_main_exp,2022.2.2,Win32,59.84440455,,,,,,,,,,,,,,,,,,masks/mask_003.jpg,,,,,,,,,,,,,,,,,,,,,,,,,,,,,,,,,,,,,,,,,,,,,,,,0,4,4,2,1,,,,,,,,,,,,,,,,,,,,,,,,,,,,,,,,,,,,,,,,,
086768,001,2022-11-20_17h46.29.498,Info_measure_main_exp,2022.2.2,Win32,59.84440455,,,,,,,,,,,,,,,,,,,,,,,,,,,,,,5,1.7682,1,,,,,,,,,,,,0,131,5,5,2274,1950,absent_patch/patch0002274.jpg,absent_patch/patch0001950.jpg,,,,,,,,,,,,,,,,,,,,0.024074074,-0.011111111,1,0,0,response3disk,19,-0.005555556,-0.002777778,1,0,0,center_square,0,18,18,10,1,,,,,,,,,,,,,,,,,,,,,,,
086768,001,2022-11-20_17h46.29.498,Info_measure_main_exp,2022.2.2,Win32,59.84440455,,,,,,,,,,,,,,,,,,masks/mask_004.jpg,,,,,,,,,,,,,,,,,,,,,,,,,,,,,,,,,,,,,,,,,,,0,0,0,3,1,,,,,,,,,,,,,,,,,,,,,,,,,,,,,,,,,,,,,,,,,,,,,,
086768,001,2022-11-20_17h46.29.498,Info_measure_main_exp,2022.2.2,Win32,59.84440455,,,,,,,,,,,,,,,,,,masks/mask_003.jpg,,,,,,,,,,,,,,,,,,,,,,,,,,,,,,,,,,,,,,,,,,,0,1,1,2,1,,,,,,,,,,,,,,,,,,,,,,,,,,,,,,,,,,,,,,,,,,,,,,
086768,001,2022-11-20_17h46.29.498,Info_measure_main_exp,2022.2.2,Win32,59.84440455,,,,,,,,,,,,,,,,,,masks/mask_005.jpg,,,,,,,,,,,,,,,,,,,,,,,,,,,,,,,,,,,,,,,,,,,0,2,2,4,1,,,,,,,,,,,,,,,,,,,,,,,,,,,,,,,,,,,,,,,,,,,,,,
086768,001,2022-11-20_17h46.29.498,Info_measure_main_exp,2022.2.2,Win32,59.84440455,,,,,,,,,,,,,,,,,,masks/mask_001.jpg,,,,,,,,,,,,,,,,,,,,,,,,,,,,,,,,,,,,,,,,,,,0,3,3,0,1,,,,,,,,,,,,,,,,,,,,,,,,,,,,,,,,,,,,,,,,,,,,,,
086768,001,2022-11-20_17h46.29.498,Info_measure_main_exp,2022.2.2,Win32,59.84440455,,,,,,,,,,,,,,,,,,masks/mask_002.jpg,,,,,,,,,,,,,,,,,,,,,,,,,,,,,,,,,,,,,,,,,,,0,4,4,1,1,,,,,,,,,,,,,,,,,,,,,,,,,,,,,,,,,,,,,,,,,,,,,,
086768,001,2022-11-20_17h46.29.498,Info_measure_main_exp,2022.2.2,Win32,59.84440455,,,,,,,,,,,,,,,,,,masks/mask_001.jpg,,,,,,,,,,,,,,,,,,,,,,,,,,,,,,,,,,,,,,,,,,,,,,,,0,0,0,0,1,,,,,,,,,,,,,,,,,,,,,,,,,,,,,,,,,,,,,,,,,
086768,001,2022-11-20_17h46.29.498,Info_measure_main_exp,2022.2.2,Win32,59.84440455,,,,,,,,,,,,,,,,,,masks/mask_005.jpg,,,,,,,,,,,,,,,,,,,,,,,,,,,,,,,,,,,,,,,,,,,,,,,,0,1,1,4,1,,,,,,,,,,,,,,,,,,,,,,,,,,,,,,,,,,,,,,,,,
086768,001,2022-11-20_17h46.29.498,Info_measure_main_exp,2022.2.2,Win32,59.84440455,,,,,,,,,,,,,,,,,,masks/mask_003.jpg,,,,,,,,,,,,,,,,,,,,,,,,,,,,,,,,,,,,,,,,,,,,,,,,0,2,2,2,1,,,,,,,,,,,,,,,,,,,,,,,,,,,,,,,,,,,,,,,,,
086768,001,2022-11-20_17h46.29.498,Info_measure_main_exp,2022.2.2,Win32,59.84440455,,,,,,,,,,,,,,,,,,masks/mask_004.jpg,,,,,,,,,,,,,,,,,,,,,,,,,,,,,,,,,,,,,,,,,,,,,,,,0,3,3,3,1,,,,,,,,,,,,,,,,,,,,,,,,,,,,,,,,,,,,,,,,,
086768,001,2022-11-20_17h46.29.498,Info_measure_main_exp,2022.2.2,Win32,59.84440455,,,,,,,,,,,,,,,,,,masks/mask_002.jpg,,,,,,,,,,,,,,,,,,,,,,,,,,,,,,,,,,,,,,,,,,,,,,,,0,4,4,1,1,,,,,,,,,,,,,,,,,,,,,,,,,,,,,,,,,,,,,,,,,
086768,001,2022-11-20_17h46.29.498,Info_measure_main_exp,2022.2.2,Win32,59.84440455,,,,,,,,,,,,,,,,,,,,,,,,,,,,,,6,2.4856,1,,,,,,,,,,,,0,131,5,5,1974,2250,absent_patch/patch0001974.jpg,absent_patch/patch0002250.jpg,,,,,,,,,,,,,,,,,,,,0.063888889,0.024074074,1,0,0,response1disk,20,0.009259259,-0.005555556,1,0,0,center_square,0,19,19,55,1,,,,,,,,,,,,,,,,,,,,,,,
086768,001,2022-11-20_17h46.29.498,Info_measure_main_exp,2022.2.2,Win32,59.84440455,,,,,,,,,,,,,,,,,,masks/mask_003.jpg,,,,,,,,,,,,,,,,,,,,,,,,,,,,,,,,,,,,,,,,,,,0,0,0,2,1,,,,,,,,,,,,,,,,,,,,,,,,,,,,,,,,,,,,,,,,,,,,,,
086768,001,2022-11-20_17h46.29.498,Info_measure_main_exp,2022.2.2,Win32,59.84440455,,,,,,,,,,,,,,,,,,masks/mask_004.jpg,,,,,,,,,,,,,,,,,,,,,,,,,,,,,,,,,,,,,,,,,,,0,1,1,3,1,,,,,,,,,,,,,,,,,,,,,,,,,,,,,,,,,,,,,,,,,,,,,,
086768,001,2022-11-20_17h46.29.498,Info_measure_main_exp,2022.2.2,Win32,59.84440455,,,,,,,,,,,,,,,,,,masks/mask_002.jpg,,,,,,,,,,,,,,,,,,,,,,,,,,,,,,,,,,,,,,,,,,,0,2,2,1,1,,,,,,,,,,,,,,,,,,,,,,,,,,,,,,,,,,,,,,,,,,,,,,
086768,001,2022-11-20_17h46.29.498,Info_measure_main_exp,2022.2.2,Win32,59.84440455,,,,,,,,,,,,,,,,,,masks/mask_001.jpg,,,,,,,,,,,,,,,,,,,,,,,,,,,,,,,,,,,,,,,,,,,0,3,3,0,1,,,,,,,,,,,,,,,,,,,,,,,,,,,,,,,,,,,,,,,,,,,,,,
086768,001,2022-11-20_17h46.29.498,Info_measure_main_exp,2022.2.2,Win32,59.84440455,,,,,,,,,,,,,,,,,,masks/mask_005.jpg,,,,,,,,,,,,,,,,,,,,,,,,,,,,,,,,,,,,,,,,,,,0,4,4,4,1,,,,,,,,,,,,,,,,,,,,,,,,,,,,,,,,,,,,,,,,,,,,,,
086768,001,2022-11-20_17h46.29.498,Info_measure_main_exp,2022.2.2,Win32,59.84440455,,,,,,,,,,,,,,,,,,masks/mask_002.jpg,,,,,,,,,,,,,,,,,,,,,,,,,,,,,,,,,,,,,,,,,,,,,,,,0,0,0,1,1,,,,,,,,,,,,,,,,,,,,,,,,,,,,,,,,,,,,,,,,,
086768,001,2022-11-20_17h46.29.498,Info_measure_main_exp,2022.2.2,Win32,59.84440455,,,,,,,,,,,,,,,,,,masks/mask_003.jpg,,,,,,,,,,,,,,,,,,,,,,,,,,,,,,,,,,,,,,,,,,,,,,,,0,1,1,2,1,,,,,,,,,,,,,,,,,,,,,,,,,,,,,,,,,,,,,,,,,
086768,001,2022-11-20_17h46.29.498,Info_measure_main_exp,2022.2.2,Win32,59.84440455,,,,,,,,,,,,,,,,,,masks/mask_001.jpg,,,,,,,,,,,,,,,,,,,,,,,,,,,,,,,,,,,,,,,,,,,,,,,,0,2,2,0,1,,,,,,,,,,,,,,,,,,,,,,,,,,,,,,,,,,,,,,,,,
086768,001,2022-11-20_17h46.29.498,Info_measure_main_exp,2022.2.2,Win32,59.84440455,,,,,,,,,,,,,,,,,,masks/mask_005.jpg,,,,,,,,,,,,,,,,,,,,,,,,,,,,,,,,,,,,,,,,,,,,,,,,0,3,3,4,1,,,,,,,,,,,,,,,,,,,,,,,,,,,,,,,,,,,,,,,,,
086768,001,2022-11-20_17h46.29.498,Info_measure_main_exp,2022.2.2,Win32,59.84440455,,,,,,,,,,,,,,,,,,masks/mask_004.jpg,,,,,,,,,,,,,,,,,,,,,,,,,,,,,,,,,,,,,,,,,,,,,,,,0,4,4,3,1,,,,,,,,,,,,,,,,,,,,,,,,,,,,,,,,,,,,,,,,,
086768,001,2022-11-20_17h46.29.498,Info_measure_main_exp,2022.2.2,Win32,59.84440455,,,,,,,,,,,,,,,,,,,,,,,,,,,,,,7,1.3518,1,,,,,,,,,,,,0,131,5,5,1974,2238,absent_patch/patch0001974.jpg,absent_patch/patch0002238.jpg,,,,,,,,,,,,,,,,,,,,0.050925926,0.115740741,1,0,0,response1disk,21,-0.000925926,-0.00462963,1,0,0,center_square,0,20,20,95,1,,,,,,,,,,,,,,,,,,,,,,,
086768,001,2022-11-20_17h46.29.498,Info_measure_main_exp,2022.2.2,Win32,59.84440455,,,,,,,,,,,,,,,,,,masks/mask_001.jpg,,,,,,,,,,,,,,,,,,,,,,,,,,,,,,,,,,,,,,,,,,,0,0,0,0,1,,,,,,,,,,,,,,,,,,,,,,,,,,,,,,,,,,,,,,,,,,,,,,
086768,001,2022-11-20_17h46.29.498,Info_measure_main_exp,2022.2.2,Win32,59.84440455,,,,,,,,,,,,,,,,,,masks/mask_003.jpg,,,,,,,,,,,,,,,,,,,,,,,,,,,,,,,,,,,,,,,,,,,0,1,1,2,1,,,,,,,,,,,,,,,,,,,,,,,,,,,,,,,,,,,,,,,,,,,,,,
086768,001,2022-11-20_17h46.29.498,Info_measure_main_exp,2022.2.2,Win32,59.84440455,,,,,,,,,,,,,,,,,,masks/mask_005.jpg,,,,,,,,,,,,,,,,,,,,,,,,,,,,,,,,,,,,,,,,,,,0,2,2,4,1,,,,,,,,,,,,,,,,,,,,,,,,,,,,,,,,,,,,,,,,,,,,,,
086768,001,2022-11-20_17h46.29.498,Info_measure_main_exp,2022.2.2,Win32,59.84440455,,,,,,,,,,,,,,,,,,masks/mask_004.jpg,,,,,,,,,,,,,,,,,,,,,,,,,,,,,,,,,,,,,,,,,,,0,3,3,3,1,,,,,,,,,,,,,,,,,,,,,,,,,,,,,,,,,,,,,,,,,,,,,,
086768,001,2022-11-20_17h46.29.498,Info_measure_main_exp,2022.2.2,Win32,59.84440455,,,,,,,,,,,,,,,,,,masks/mask_002.jpg,,,,,,,,,,,,,,,,,,,,,,,,,,,,,,,,,,,,,,,,,,,0,4,4,1,1,,,,,,,,,,,,,,,,,,,,,,,,,,,,,,,,,,,,,,,,,,,,,,
086768,001,2022-11-20_17h46.29.498,Info_measure_main_exp,2022.2.2,Win32,59.84440455,,,,,,,,,,,,,,,,,,masks/mask_001.jpg,,,,,,,,,,,,,,,,,,,,,,,,,,,,,,,,,,,,,,,,,,,,,,,,0,0,0,0,1,,,,,,,,,,,,,,,,,,,,,,,,,,,,,,,,,,,,,,,,,
086768,001,2022-11-20_17h46.29.498,Info_measure_main_exp,2022.2.2,Win32,59.84440455,,,,,,,,,,,,,,,,,,masks/mask_005.jpg,,,,,,,,,,,,,,,,,,,,,,,,,,,,,,,,,,,,,,,,,,,,,,,,0,1,1,4,1,,,,,,,,,,,,,,,,,,,,,,,,,,,,,,,,,,,,,,,,,
086768,001,2022-11-20_17h46.29.498,Info_measure_main_exp,2022.2.2,Win32,59.84440455,,,,,,,,,,,,,,,,,,masks/mask_004.jpg,,,,,,,,,,,,,,,,,,,,,,,,,,,,,,,,,,,,,,,,,,,,,,,,0,2,2,3,1,,,,,,,,,,,,,,,,,,,,,,,,,,,,,,,,,,,,,,,,,
086768,001,2022-11-20_17h46.29.498,Info_measure_main_exp,2022.2.2,Win32,59.84440455,,,,,,,,,,,,,,,,,,masks/mask_002.jpg,,,,,,,,,,,,,,,,,,,,,,,,,,,,,,,,,,,,,,,,,,,,,,,,0,3,3,1,1,,,,,,,,,,,,,,,,,,,,,,,,,,,,,,,,,,,,,,,,,
086768,001,2022-11-20_17h46.29.498,Info_measure_main_exp,2022.2.2,Win32,59.84440455,,,,,,,,,,,,,,,,,,masks/mask_003.jpg,,,,,,,,,,,,,,,,,,,,,,,,,,,,,,,,,,,,,,,,,,,,,,,,0,4,4,2,1,,,,,,,,,,,,,,,,,,,,,,,,,,,,,,,,,,,,,,,,,
086768,001,2022-11-20_17h46.29.498,Info_measure_main_exp,2022.2.2,Win32,59.84440455,,,,,,,,,,,,,,,,,,,,,,,,,,,,,,5,2.3532,1,,,,,,,,,,,,0,131,5,5,2214,2178,absent_patch/patch0002214.jpg,absent_patch/patch0002178.jpg,,,,,,,,,,,,,,,,,,,,0.060185185,-0.010185185,1,0,0,response3disk,22,0.002777778,0.002777778,1,0,0,center_square,0,21,21,62,1,,,,,,,,,,,,,,,,,,,,,,,
086768,001,2022-11-20_17h46.29.498,Info_measure_main_exp,2022.2.2,Win32,59.84440455,,,,,,,,,,,,,,,,,,masks/mask_005.jpg,,,,,,,,,,,,,,,,,,,,,,,,,,,,,,,,,,,,,,,,,,,0,0,0,4,1,,,,,,,,,,,,,,,,,,,,,,,,,,,,,,,,,,,,,,,,,,,,,,
086768,001,2022-11-20_17h46.29.498,Info_measure_main_exp,2022.2.2,Win32,59.84440455,,,,,,,,,,,,,,,,,,masks/mask_001.jpg,,,,,,,,,,,,,,,,,,,,,,,,,,,,,,,,,,,,,,,,,,,0,1,1,0,1,,,,,,,,,,,,,,,,,,,,,,,,,,,,,,,,,,,,,,,,,,,,,,
086768,001,2022-11-20_17h46.29.498,Info_measure_main_exp,2022.2.2,Win32,59.84440455,,,,,,,,,,,,,,,,,,masks/mask_003.jpg,,,,,,,,,,,,,,,,,,,,,,,,,,,,,,,,,,,,,,,,,,,0,2,2,2,1,,,,,,,,,,,,,,,,,,,,,,,,,,,,,,,,,,,,,,,,,,,,,,
086768,001,2022-11-20_17h46.29.498,Info_measure_main_exp,2022.2.2,Win32,59.84440455,,,,,,,,,,,,,,,,,,masks/mask_002.jpg,,,,,,,,,,,,,,,,,,,,,,,,,,,,,,,,,,,,,,,,,,,0,3,3,1,1,,,,,,,,,,,,,,,,,,,,,,,,,,,,,,,,,,,,,,,,,,,,,,
086768,001,2022-11-20_17h46.29.498,Info_measure_main_exp,2022.2.2,Win32,59.84440455,,,,,,,,,,,,,,,,,,masks/mask_004.jpg,,,,,,,,,,,,,,,,,,,,,,,,,,,,,,,,,,,,,,,,,,,0,4,4,3,1,,,,,,,,,,,,,,,,,,,,,,,,,,,,,,,,,,,,,,,,,,,,,,
086768,001,2022-11-20_17h46.29.498,Info_measure_main_exp,2022.2.2,Win32,59.84440455,,,,,,,,,,,,,,,,,,masks/mask_005.jpg,,,,,,,,,,,,,,,,,,,,,,,,,,,,,,,,,,,,,,,,,,,,,,,,0,0,0,4,1,,,,,,,,,,,,,,,,,,,,,,,,,,,,,,,,,,,,,,,,,
086768,001,2022-11-20_17h46.29.498,Info_measure_main_exp,2022.2.2,Win32,59.84440455,,,,,,,,,,,,,,,,,,masks/mask_001.jpg,,,,,,,,,,,,,,,,,,,,,,,,,,,,,,,,,,,,,,,,,,,,,,,,0,1,1,0,1,,,,,,,,,,,,,,,,,,,,,,,,,,,,,,,,,,,,,,,,,
086768,001,2022-11-20_17h46.29.498,Info_measure_main_exp,2022.2.2,Win32,59.84440455,,,,,,,,,,,,,,,,,,masks/mask_003.jpg,,,,,,,,,,,,,,,,,,,,,,,,,,,,,,,,,,,,,,,,,,,,,,,,0,2,2,2,1,,,,,,,,,,,,,,,,,,,,,,,,,,,,,,,,,,,,,,,,,
086768,001,2022-11-20_17h46.29.498,Info_measure_main_exp,2022.2.2,Win32,59.84440455,,,,,,,,,,,,,,,,,,masks/mask_002.jpg,,,,,,,,,,,,,,,,,,,,,,,,,,,,,,,,,,,,,,,,,,,,,,,,0,3,3,1,1,,,,,,,,,,,,,,,,,,,,,,,,,,,,,,,,,,,,,,,,,
086768,001,2022-11-20_17h46.29.498,Info_measure_main_exp,2022.2.2,Win32,59.84440455,,,,,,,,,,,,,,,,,,masks/mask_004.jpg,,,,,,,,,,,,,,,,,,,,,,,,,,,,,,,,,,,,,,,,,,,,,,,,0,4,4,3,1,,,,,,,,,,,,,,,,,,,,,,,,,,,,,,,,,,,,,,,,,
086768,001,2022-11-20_17h46.29.498,Info_measure_main_exp,2022.2.2,Win32,59.84440455,,,,,,,,,,,,,,,,,,,,,,,,,,,,,,4,2.4859,1,,,,,,,,,,,,0,131,5,5,1986,2154,absent_patch/patch0001986.jpg,absent_patch/patch0002154.jpg,,,,,,,,,,,,,,,,,,,,0.026851852,-0.041666667,1,0,0,response3disk,23,0.008333333,-0.000925926,1,0,0,center_square,0,22,22,36,1,,,,,,,,,,,,,,,,,,,,,,,
086768,001,2022-11-20_17h46.29.498,Info_measure_main_exp,2022.2.2,Win32,59.84440455,,,,,,,,,,,,,,,,,,masks/mask_001.jpg,,,,,,,,,,,,,,,,,,,,,,,,,,,,,,,,,,,,,,,,,,,0,0,0,0,1,,,,,,,,,,,,,,,,,,,,,,,,,,,,,,,,,,,,,,,,,,,,,,
086768,001,2022-11-20_17h46.29.498,Info_measure_main_exp,2022.2.2,Win32,59.84440455,,,,,,,,,,,,,,,,,,masks/mask_003.jpg,,,,,,,,,,,,,,,,,,,,,,,,,,,,,,,,,,,,,,,,,,,0,1,1,2,1,,,,,,,,,,,,,,,,,,,,,,,,,,,,,,,,,,,,,,,,,,,,,,
086768,001,2022-11-20_17h46.29.498,Info_measure_main_exp,2022.2.2,Win32,59.84440455,,,,,,,,,,,,,,,,,,masks/mask_002.jpg,,,,,,,,,,,,,,,,,,,,,,,,,,,,,,,,,,,,,,,,,,,0,2,2,1,1,,,,,,,,,,,,,,,,,,,,,,,,,,,,,,,,,,,,,,,,,,,,,,
086768,001,2022-11-20_17h46.29.498,Info_measure_main_exp,2022.2.2,Win32,59.84440455,,,,,,,,,,,,,,,,,,masks/mask_004.jpg,,,,,,,,,,,,,,,,,,,,,,,,,,,,,,,,,,,,,,,,,,,0,3,3,3,1,,,,,,,,,,,,,,,,,,,,,,,,,,,,,,,,,,,,,,,,,,,,,,
086768,001,2022-11-20_17h46.29.498,Info_measure_main_exp,2022.2.2,Win32,59.84440455,,,,,,,,,,,,,,,,,,masks/mask_005.jpg,,,,,,,,,,,,,,,,,,,,,,,,,,,,,,,,,,,,,,,,,,,0,4,4,4,1,,,,,,,,,,,,,,,,,,,,,,,,,,,,,,,,,,,,,,,,,,,,,,
086768,001,2022-11-20_17h46.29.498,Info_measure_main_exp,2022.2.2,Win32,59.84440455,,,,,,,,,,,,,,,,,,masks/mask_003.jpg,,,,,,,,,,,,,,,,,,,,,,,,,,,,,,,,,,,,,,,,,,,,,,,,0,0,0,2,1,,,,,,,,,,,,,,,,,,,,,,,,,,,,,,,,,,,,,,,,,
086768,001,2022-11-20_17h46.29.498,Info_measure_main_exp,2022.2.2,Win32,59.84440455,,,,,,,,,,,,,,,,,,masks/mask_005.jpg,,,,,,,,,,,,,,,,,,,,,,,,,,,,,,,,,,,,,,,,,,,,,,,,0,1,1,4,1,,,,,,,,,,,,,,,,,,,,,,,,,,,,,,,,,,,,,,,,,
086768,001,2022-11-20_17h46.29.498,Info_measure_main_exp,2022.2.2,Win32,59.84440455,,,,,,,,,,,,,,,,,,masks/mask_004.jpg,,,,,,,,,,,,,,,,,,,,,,,,,,,,,,,,,,,,,,,,,,,,,,,,0,2,2,3,1,,,,,,,,,,,,,,,,,,,,,,,,,,,,,,,,,,,,,,,,,
086768,001,2022-11-20_17h46.29.498,Info_measure_main_exp,2022.2.2,Win32,59.84440455,,,,,,,,,,,,,,,,,,masks/mask_002.jpg,,,,,,,,,,,,,,,,,,,,,,,,,,,,,,,,,,,,,,,,,,,,,,,,0,3,3,1,1,,,,,,,,,,,,,,,,,,,,,,,,,,,,,,,,,,,,,,,,,
086768,001,2022-11-20_17h46.29.498,Info_measure_main_exp,2022.2.2,Win32,59.84440455,,,,,,,,,,,,,,,,,,masks/mask_001.jpg,,,,,,,,,,,,,,,,,,,,,,,,,,,,,,,,,,,,,,,,,,,,,,,,0,4,4,0,1,,,,,,,,,,,,,,,,,,,,,,,,,,,,,,,,,,,,,,,,,
086768,001,2022-11-20_17h46.29.498,Info_measure_main_exp,2022.2.2,Win32,59.84440455,,,,,,,,,,,,,,,,,,,,,,,,,,,,,,6,2.1857,1,,,,,,,,,,,,0,131,5,5,2154,2298,absent_patch/patch0002154.jpg,absent_patch/patch0002298.jpg,,,,,,,,,,,,,,,,,,,,0.036111111,0.014814815,1,0,0,response1disk,24,-0.001851852,0.000925926,1,0,0,center_square,0,23,23,27,1,,,,,,,,,,,,,,,,,,,,,,,
086768,001,2022-11-20_17h46.29.498,Info_measure_main_exp,2022.2.2,Win32,59.84440455,,,,,,,,,,,,,,,,,,masks/mask_003.jpg,,,,,,,,,,,,,,,,,,,,,,,,,,,,,,,,,,,,,,,,,,,0,0,0,2,1,,,,,,,,,,,,,,,,,,,,,,,,,,,,,,,,,,,,,,,,,,,,,,
086768,001,2022-11-20_17h46.29.498,Info_measure_main_exp,2022.2.2,Win32,59.84440455,,,,,,,,,,,,,,,,,,masks/mask_002.jpg,,,,,,,,,,,,,,,,,,,,,,,,,,,,,,,,,,,,,,,,,,,0,1,1,1,1,,,,,,,,,,,,,,,,,,,,,,,,,,,,,,,,,,,,,,,,,,,,,,
086768,001,2022-11-20_17h46.29.498,Info_measure_main_exp,2022.2.2,Win32,59.84440455,,,,,,,,,,,,,,,,,,masks/mask_001.jpg,,,,,,,,,,,,,,,,,,,,,,,,,,,,,,,,,,,,,,,,,,,0,2,2,0,1,,,,,,,,,,,,,,,,,,,,,,,,,,,,,,,,,,,,,,,,,,,,,,
086768,001,2022-11-20_17h46.29.498,Info_measure_main_exp,2022.2.2,Win32,59.84440455,,,,,,,,,,,,,,,,,,masks/mask_005.jpg,,,,,,,,,,,,,,,,,,,,,,,,,,,,,,,,,,,,,,,,,,,0,3,3,4,1,,,,,,,,,,,,,,,,,,,,,,,,,,,,,,,,,,,,,,,,,,,,,,
086768,001,2022-11-20_17h46.29.498,Info_measure_main_exp,2022.2.2,Win32,59.84440455,,,,,,,,,,,,,,,,,,masks/mask_004.jpg,,,,,,,,,,,,,,,,,,,,,,,,,,,,,,,,,,,,,,,,,,,0,4,4,3,1,,,,,,,,,,,,,,,,,,,,,,,,,,,,,,,,,,,,,,,,,,,,,,
086768,001,2022-11-20_17h46.29.498,Info_measure_main_exp,2022.2.2,Win32,59.84440455,,,,,,,,,,,,,,,,,,masks/mask_002.jpg,,,,,,,,,,,,,,,,,,,,,,,,,,,,,,,,,,,,,,,,,,,,,,,,0,0,0,1,1,,,,,,,,,,,,,,,,,,,,,,,,,,,,,,,,,,,,,,,,,
086768,001,2022-11-20_17h46.29.498,Info_measure_main_exp,2022.2.2,Win32,59.84440455,,,,,,,,,,,,,,,,,,masks/mask_004.jpg,,,,,,,,,,,,,,,,,,,,,,,,,,,,,,,,,,,,,,,,,,,,,,,,0,1,1,3,1,,,,,,,,,,,,,,,,,,,,,,,,,,,,,,,,,,,,,,,,,
086768,001,2022-11-20_17h46.29.498,Info_measure_main_exp,2022.2.2,Win32,59.84440455,,,,,,,,,,,,,,,,,,masks/mask_001.jpg,,,,,,,,,,,,,,,,,,,,,,,,,,,,,,,,,,,,,,,,,,,,,,,,0,2,2,0,1,,,,,,,,,,,,,,,,,,,,,,,,,,,,,,,,,,,,,,,,,
086768,001,2022-11-20_17h46.29.498,Info_measure_main_exp,2022.2.2,Win32,59.84440455,,,,,,,,,,,,,,,,,,masks/mask_005.jpg,,,,,,,,,,,,,,,,,,,,,,,,,,,,,,,,,,,,,,,,,,,,,,,,0,3,3,4,1,,,,,,,,,,,,,,,,,,,,,,,,,,,,,,,,,,,,,,,,,
086768,001,2022-11-20_17h46.29.498,Info_measure_main_exp,2022.2.2,Win32,59.84440455,,,,,,,,,,,,,,,,,,masks/mask_003.jpg,,,,,,,,,,,,,,,,,,,,,,,,,,,,,,,,,,,,,,,,,,,,,,,,0,4,4,2,1,,,,,,,,,,,,,,,,,,,,,,,,,,,,,,,,,,,,,,,,,
086768,001,2022-11-20_17h46.29.498,Info_measure_main_exp,2022.2.2,Win32,59.84440455,,,,,,,,,,,,,,,,,,,,,,,,,,,,,,0,0.7337,1,,,,,,,,,,,,0,131,5,5,1986,1986,absent_patch/patch0001986.jpg,absent_patch/patch0001986.jpg,,,,,,,,,,,,,,,,,,,,-0.021296296,0.115740741,1,0,0,response7disk,25,0.00462963,0.003703704,1,0,0,center_square,0,24,24,19,1,,,,,,,,,,,,,,,,,,,,,,,
086768,001,2022-11-20_17h46.29.498,Info_measure_main_exp,2022.2.2,Win32,59.84440455,,,,,,,,,,,,,,,,,,masks/mask_003.jpg,,,,,,,,,,,,,,,,,,,,,,,,,,,,,,,,,,,,,,,,,,,0,0,0,2,1,,,,,,,,,,,,,,,,,,,,,,,,,,,,,,,,,,,,,,,,,,,,,,
086768,001,2022-11-20_17h46.29.498,Info_measure_main_exp,2022.2.2,Win32,59.84440455,,,,,,,,,,,,,,,,,,masks/mask_004.jpg,,,,,,,,,,,,,,,,,,,,,,,,,,,,,,,,,,,,,,,,,,,0,1,1,3,1,,,,,,,,,,,,,,,,,,,,,,,,,,,,,,,,,,,,,,,,,,,,,,
086768,001,2022-11-20_17h46.29.498,Info_measure_main_exp,2022.2.2,Win32,59.84440455,,,,,,,,,,,,,,,,,,masks/mask_002.jpg,,,,,,,,,,,,,,,,,,,,,,,,,,,,,,,,,,,,,,,,,,,0,2,2,1,1,,,,,,,,,,,,,,,,,,,,,,,,,,,,,,,,,,,,,,,,,,,,,,
086768,001,2022-11-20_17h46.29.498,Info_measure_main_exp,2022.2.2,Win32,59.84440455,,,,,,,,,,,,,,,,,,masks/mask_001.jpg,,,,,,,,,,,,,,,,,,,,,,,,,,,,,,,,,,,,,,,,,,,0,3,3,0,1,,,,,,,,,,,,,,,,,,,,,,,,,,,,,,,,,,,,,,,,,,,,,,
086768,001,2022-11-20_17h46.29.498,Info_measure_main_exp,2022.2.2,Win32,59.84440455,,,,,,,,,,,,,,,,,,masks/mask_005.jpg,,,,,,,,,,,,,,,,,,,,,,,,,,,,,,,,,,,,,,,,,,,0,4,4,4,1,,,,,,,,,,,,,,,,,,,,,,,,,,,,,,,,,,,,,,,,,,,,,,
086768,001,2022-11-20_17h46.29.498,Info_measure_main_exp,2022.2.2,Win32,59.84440455,,,,,,,,,,,,,,,,,,masks/mask_005.jpg,,,,,,,,,,,,,,,,,,,,,,,,,,,,,,,,,,,,,,,,,,,,,,,,0,0,0,4,1,,,,,,,,,,,,,,,,,,,,,,,,,,,,,,,,,,,,,,,,,
086768,001,2022-11-20_17h46.29.498,Info_measure_main_exp,2022.2.2,Win32,59.84440455,,,,,,,,,,,,,,,,,,masks/mask_003.jpg,,,,,,,,,,,,,,,,,,,,,,,,,,,,,,,,,,,,,,,,,,,,,,,,0,1,1,2,1,,,,,,,,,,,,,,,,,,,,,,,,,,,,,,,,,,,,,,,,,
086768,001,2022-11-20_17h46.29.498,Info_measure_main_exp,2022.2.2,Win32,59.84440455,,,,,,,,,,,,,,,,,,masks/mask_004.jpg,,,,,,,,,,,,,,,,,,,,,,,,,,,,,,,,,,,,,,,,,,,,,,,,0,2,2,3,1,,,,,,,,,,,,,,,,,,,,,,,,,,,,,,,,,,,,,,,,,
086768,001,2022-11-20_17h46.29.498,Info_measure_main_exp,2022.2.2,Win32,59.84440455,,,,,,,,,,,,,,,,,,masks/mask_002.jpg,,,,,,,,,,,,,,,,,,,,,,,,,,,,,,,,,,,,,,,,,,,,,,,,0,3,3,1,1,,,,,,,,,,,,,,,,,,,,,,,,,,,,,,,,,,,,,,,,,
086768,001,2022-11-20_17h46.29.498,Info_measure_main_exp,2022.2.2,Win32,59.84440455,,,,,,,,,,,,,,,,,,masks/mask_001.jpg,,,,,,,,,,,,,,,,,,,,,,,,,,,,,,,,,,,,,,,,,,,,,,,,0,4,4,0,1,,,,,,,,,,,,,,,,,,,,,,,,,,,,,,,,,,,,,,,,,
086768,001,2022-11-20_17h46.29.498,Info_measure_main_exp,2022.2.2,Win32,59.84440455,,,,,,,,,,,,,,,,,,,,,,,,,,,,,,6,1.3519,1,,,,,,,,,,,,1,131,5,5,1,2154,present_patch/cong_131_5_a.jpg,absent_patch/patch0002154.jpg,,,,,,,,,,,,,,,,,,,,0.031481481,0.011111111,1,0,0,response1disk,26,-0.012962963,-0.003703704,1,0,0,center_square,0,25,25,87,1,,,,,,,,,,,,,,,,,,,,,,,
086768,001,2022-11-20_17h46.29.498,Info_measure_main_exp,2022.2.2,Win32,59.84440455,,,,,,,,,,,,,,,,,,masks/mask_001.jpg,,,,,,,,,,,,,,,,,,,,,,,,,,,,,,,,,,,,,,,,,,,0,0,0,0,1,,,,,,,,,,,,,,,,,,,,,,,,,,,,,,,,,,,,,,,,,,,,,,
086768,001,2022-11-20_17h46.29.498,Info_measure_main_exp,2022.2.2,Win32,59.84440455,,,,,,,,,,,,,,,,,,masks/mask_004.jpg,,,,,,,,,,,,,,,,,,,,,,,,,,,,,,,,,,,,,,,,,,,0,1,1,3,1,,,,,,,,,,,,,,,,,,,,,,,,,,,,,,,,,,,,,,,,,,,,,,
086768,001,2022-11-20_17h46.29.498,Info_measure_main_exp,2022.2.2,Win32,59.84440455,,,,,,,,,,,,,,,,,,masks/mask_005.jpg,,,,,,,,,,,,,,,,,,,,,,,,,,,,,,,,,,,,,,,,,,,0,2,2,4,1,,,,,,,,,,,,,,,,,,,,,,,,,,,,,,,,,,,,,,,,,,,,,,
086768,001,2022-11-20_17h46.29.498,Info_measure_main_exp,2022.2.2,Win32,59.84440455,,,,,,,,,,,,,,,,,,masks/mask_002.jpg,,,,,,,,,,,,,,,,,,,,,,,,,,,,,,,,,,,,,,,,,,,0,3,3,1,1,,,,,,,,,,,,,,,,,,,,,,,,,,,,,,,,,,,,,,,,,,,,,,
086768,001,2022-11-20_17h46.29.498,Info_measure_main_exp,2022.2.2,Win32,59.84440455,,,,,,,,,,,,,,,,,,masks/mask_003.jpg,,,,,,,,,,,,,,,,,,,,,,,,,,,,,,,,,,,,,,,,,,,0,4,4,2,1,,,,,,,,,,,,,,,,,,,,,,,,,,,,,,,,,,,,,,,,,,,,,,
086768,001,2022-11-20_17h46.29.498,Info_measure_main_exp,2022.2.2,Win32,59.84440455,,,,,,,,,,,,,,,,,,masks/mask_004.jpg,,,,,,,,,,,,,,,,,,,,,,,,,,,,,,,,,,,,,,,,,,,,,,,,0,0,0,3,1,,,,,,,,,,,,,,,,,,,,,,,,,,,,,,,,,,,,,,,,,
086768,001,2022-11-20_17h46.29.498,Info_measure_main_exp,2022.2.2,Win32,59.84440455,,,,,,,,,,,,,,,,,,masks/mask_005.jpg,,,,,,,,,,,,,,,,,,,,,,,,,,,,,,,,,,,,,,,,,,,,,,,,0,1,1,4,1,,,,,,,,,,,,,,,,,,,,,,,,,,,,,,,,,,,,,,,,,
086768,001,2022-11-20_17h46.29.498,Info_measure_main_exp,2022.2.2,Win32,59.84440455,,,,,,,,,,,,,,,,,,masks/mask_002.jpg,,,,,,,,,,,,,,,,,,,,,,,,,,,,,,,,,,,,,,,,,,,,,,,,0,2,2,1,1,,,,,,,,,,,,,,,,,,,,,,,,,,,,,,,,,,,,,,,,,
086768,001,2022-11-20_17h46.29.498,Info_measure_main_exp,2022.2.2,Win32,59.84440455,,,,,,,,,,,,,,,,,,masks/mask_001.jpg,,,,,,,,,,,,,,,,,,,,,,,,,,,,,,,,,,,,,,,,,,,,,,,,0,3,3,0,1,,,,,,,,,,,,,,,,,,,,,,,,,,,,,,,,,,,,,,,,,
086768,001,2022-11-20_17h46.29.498,Info_measure_main_exp,2022.2.2,Win32,59.84440455,,,,,,,,,,,,,,,,,,masks/mask_003.jpg,,,,,,,,,,,,,,,,,,,,,,,,,,,,,,,,,,,,,,,,,,,,,,,,0,4,4,2,1,,,,,,,,,,,,,,,,,,,,,,,,,,,,,,,,,,,,,,,,,
086768,001,2022-11-20_17h46.29.498,Info_measure_main_exp,2022.2.2,Win32,59.84440455,,,,,,,,,,,,,,,,,,,,,,,,,,,,,,6,1.0531,1,,,,,,,,,,,,1,131,5,5,2190,1,absent_patch/patch0002190.jpg,present_patch/cong_131_5_a.jpg,,,,,,,,,,,,,,,,,,,,0.043518519,0.032407407,1,0,0,response1disk,27,0.002777778,-0.003703704,1,0,0,center_square,0,26,26,64,1,,,,,,,,,,,,,,,,,,,,,,,
086768,001,2022-11-20_17h46.29.498,Info_measure_main_exp,2022.2.2,Win32,59.84440455,,,,,,,,,,,,,,,,,,masks/mask_001.jpg,,,,,,,,,,,,,,,,,,,,,,,,,,,,,,,,,,,,,,,,,,,0,0,0,0,1,,,,,,,,,,,,,,,,,,,,,,,,,,,,,,,,,,,,,,,,,,,,,,
086768,001,2022-11-20_17h46.29.498,Info_measure_main_exp,2022.2.2,Win32,59.84440455,,,,,,,,,,,,,,,,,,masks/mask_003.jpg,,,,,,,,,,,,,,,,,,,,,,,,,,,,,,,,,,,,,,,,,,,0,1,1,2,1,,,,,,,,,,,,,,,,,,,,,,,,,,,,,,,,,,,,,,,,,,,,,,
086768,001,2022-11-20_17h46.29.498,Info_measure_main_exp,2022.2.2,Win32,59.84440455,,,,,,,,,,,,,,,,,,masks/mask_004.jpg,,,,,,,,,,,,,,,,,,,,,,,,,,,,,,,,,,,,,,,,,,,0,2,2,3,1,,,,,,,,,,,,,,,,,,,,,,,,,,,,,,,,,,,,,,,,,,,,,,
086768,001,2022-11-20_17h46.29.498,Info_measure_main_exp,2022.2.2,Win32,59.84440455,,,,,,,,,,,,,,,,,,masks/mask_002.jpg,,,,,,,,,,,,,,,,,,,,,,,,,,,,,,,,,,,,,,,,,,,0,3,3,1,1,,,,,,,,,,,,,,,,,,,,,,,,,,,,,,,,,,,,,,,,,,,,,,
086768,001,2022-11-20_17h46.29.498,Info_measure_main_exp,2022.2.2,Win32,59.84440455,,,,,,,,,,,,,,,,,,masks/mask_005.jpg,,,,,,,,,,,,,,,,,,,,,,,,,,,,,,,,,,,,,,,,,,,0,4,4,4,1,,,,,,,,,,,,,,,,,,,,,,,,,,,,,,,,,,,,,,,,,,,,,,
086768,001,2022-11-20_17h46.29.498,Info_measure_main_exp,2022.2.2,Win32,59.84440455,,,,,,,,,,,,,,,,,,masks/mask_005.jpg,,,,,,,,,,,,,,,,,,,,,,,,,,,,,,,,,,,,,,,,,,,,,,,,0,0,0,4,1,,,,,,,,,,,,,,,,,,,,,,,,,,,,,,,,,,,,,,,,,
086768,001,2022-11-20_17h46.29.498,Info_measure_main_exp,2022.2.2,Win32,59.84440455,,,,,,,,,,,,,,,,,,masks/mask_003.jpg,,,,,,,,,,,,,,,,,,,,,,,,,,,,,,,,,,,,,,,,,,,,,,,,0,1,1,2,1,,,,,,,,,,,,,,,,,,,,,,,,,,,,,,,,,,,,,,,,,
086768,001,2022-11-20_17h46.29.498,Info_measure_main_exp,2022.2.2,Win32,59.84440455,,,,,,,,,,,,,,,,,,masks/mask_004.jpg,,,,,,,,,,,,,,,,,,,,,,,,,,,,,,,,,,,,,,,,,,,,,,,,0,2,2,3,1,,,,,,,,,,,,,,,,,,,,,,,,,,,,,,,,,,,,,,,,,
086768,001,2022-11-20_17h46.29.498,Info_measure_main_exp,2022.2.2,Win32,59.84440455,,,,,,,,,,,,,,,,,,masks/mask_002.jpg,,,,,,,,,,,,,,,,,,,,,,,,,,,,,,,,,,,,,,,,,,,,,,,,0,3,3,1,1,,,,,,,,,,,,,,,,,,,,,,,,,,,,,,,,,,,,,,,,,
086768,001,2022-11-20_17h46.29.498,Info_measure_main_exp,2022.2.2,Win32,59.84440455,,,,,,,,,,,,,,,,,,masks/mask_001.jpg,,,,,,,,,,,,,,,,,,,,,,,,,,,,,,,,,,,,,,,,,,,,,,,,0,4,4,0,1,,,,,,,,,,,,,,,,,,,,,,,,,,,,,,,,,,,,,,,,,
086768,001,2022-11-20_17h46.29.498,Info_measure_main_exp,2022.2.2,Win32,59.84440455,,,,,,,,,,,,,,,,,,,,,,,,,,,,,,4,1.5017,1,,,,,,,,,,,,0,131,5,5,2250,2298,absent_patch/patch0002250.jpg,absent_patch/patch0002298.jpg,,,,,,,,,,,,,,,,,,,,0.013888889,-0.10462963,1,0,0,response3disk,28,-0.001851852,0,1,0,0,center_square,0,27,27,59,1,,,,,,,,,,,,,,,,,,,,,,,
086768,001,2022-11-20_17h46.29.498,Info_measure_main_exp,2022.2.2,Win32,59.84440455,,,,,,,,,,,,,,,,,,masks/mask_005.jpg,,,,,,,,,,,,,,,,,,,,,,,,,,,,,,,,,,,,,,,,,,,0,0,0,4,1,,,,,,,,,,,,,,,,,,,,,,,,,,,,,,,,,,,,,,,,,,,,,,
086768,001,2022-11-20_17h46.29.498,Info_measure_main_exp,2022.2.2,Win32,59.84440455,,,,,,,,,,,,,,,,,,masks/mask_003.jpg,,,,,,,,,,,,,,,,,,,,,,,,,,,,,,,,,,,,,,,,,,,0,1,1,2,1,,,,,,,,,,,,,,,,,,,,,,,,,,,,,,,,,,,,,,,,,,,,,,
086768,001,2022-11-20_17h46.29.498,Info_measure_main_exp,2022.2.2,Win32,59.84440455,,,,,,,,,,,,,,,,,,masks/mask_004.jpg,,,,,,,,,,,,,,,,,,,,,,,,,,,,,,,,,,,,,,,,,,,0,2,2,3,1,,,,,,,,,,,,,,,,,,,,,,,,,,,,,,,,,,,,,,,,,,,,,,
086768,001,2022-11-20_17h46.29.498,Info_measure_main_exp,2022.2.2,Win32,59.84440455,,,,,,,,,,,,,,,,,,masks/mask_001.jpg,,,,,,,,,,,,,,,,,,,,,,,,,,,,,,,,,,,,,,,,,,,0,3,3,0,1,,,,,,,,,,,,,,,,,,,,,,,,,,,,,,,,,,,,,,,,,,,,,,
086768,001,2022-11-20_17h46.29.498,Info_measure_main_exp,2022.2.2,Win32,59.84440455,,,,,,,,,,,,,,,,,,masks/mask_002.jpg,,,,,,,,,,,,,,,,,,,,,,,,,,,,,,,,,,,,,,,,,,,0,4,4,1,1,,,,,,,,,,,,,,,,,,,,,,,,,,,,,,,,,,,,,,,,,,,,,,
086768,001,2022-11-20_17h46.29.498,Info_measure_main_exp,2022.2.2,Win32,59.84440455,,,,,,,,,,,,,,,,,,masks/mask_003.jpg,,,,,,,,,,,,,,,,,,,,,,,,,,,,,,,,,,,,,,,,,,,,,,,,0,0,0,2,1,,,,,,,,,,,,,,,,,,,,,,,,,,,,,,,,,,,,,,,,,
086768,001,2022-11-20_17h46.29.498,Info_measure_main_exp,2022.2.2,Win32,59.84440455,,,,,,,,,,,,,,,,,,masks/mask_004.jpg,,,,,,,,,,,,,,,,,,,,,,,,,,,,,,,,,,,,,,,,,,,,,,,,0,1,1,3,1,,,,,,,,,,,,,,,,,,,,,,,,,,,,,,,,,,,,,,,,,
086768,001,2022-11-20_17h46.29.498,Info_measure_main_exp,2022.2.2,Win32,59.84440455,,,,,,,,,,,,,,,,,,masks/mask_005.jpg,,,,,,,,,,,,,,,,,,,,,,,,,,,,,,,,,,,,,,,,,,,,,,,,0,2,2,4,1,,,,,,,,,,,,,,,,,,,,,,,,,,,,,,,,,,,,,,,,,
086768,001,2022-11-20_17h46.29.498,Info_measure_main_exp,2022.2.2,Win32,59.84440455,,,,,,,,,,,,,,,,,,masks/mask_002.jpg,,,,,,,,,,,,,,,,,,,,,,,,,,,,,,,,,,,,,,,,,,,,,,,,0,3,3,1,1,,,,,,,,,,,,,,,,,,,,,,,,,,,,,,,,,,,,,,,,,
086768,001,2022-11-20_17h46.29.498,Info_measure_main_exp,2022.2.2,Win32,59.84440455,,,,,,,,,,,,,,,,,,masks/mask_001.jpg,,,,,,,,,,,,,,,,,,,,,,,,,,,,,,,,,,,,,,,,,,,,,,,,0,4,4,0,1,,,,,,,,,,,,,,,,,,,,,,,,,,,,,,,,,,,,,,,,,
086768,001,2022-11-20_17h46.29.498,Info_measure_main_exp,2022.2.2,Win32,59.84440455,,,,,,,,,,,,,,,,,,,,,,,,,,,,,,6,2.2694,1,,,,,,,,,,,,0,131,5,5,2166,2154,absent_patch/patch0002166.jpg,absent_patch/patch0002154.jpg,,,,,,,,,,,,,,,,,,,,0.02037037,0.009259259,1,0,0,response1disk,29,-0.00462963,0.012037037,1,0,0,center_square,0,28,28,79,1,,,,,,,,,,,,,,,,,,,,,,,
086768,001,2022-11-20_17h46.29.498,Info_measure_main_exp,2022.2.2,Win32,59.84440455,,,,,,,,,,,,,,,,,,masks/mask_004.jpg,,,,,,,,,,,,,,,,,,,,,,,,,,,,,,,,,,,,,,,,,,,0,0,0,3,1,,,,,,,,,,,,,,,,,,,,,,,,,,,,,,,,,,,,,,,,,,,,,,
086768,001,2022-11-20_17h46.29.498,Info_measure_main_exp,2022.2.2,Win32,59.84440455,,,,,,,,,,,,,,,,,,masks/mask_005.jpg,,,,,,,,,,,,,,,,,,,,,,,,,,,,,,,,,,,,,,,,,,,0,1,1,4,1,,,,,,,,,,,,,,,,,,,,,,,,,,,,,,,,,,,,,,,,,,,,,,
086768,001,2022-11-20_17h46.29.498,Info_measure_main_exp,2022.2.2,Win32,59.84440455,,,,,,,,,,,,,,,,,,masks/mask_003.jpg,,,,,,,,,,,,,,,,,,,,,,,,,,,,,,,,,,,,,,,,,,,0,2,2,2,1,,,,,,,,,,,,,,,,,,,,,,,,,,,,,,,,,,,,,,,,,,,,,,
086768,001,2022-11-20_17h46.29.498,Info_measure_main_exp,2022.2.2,Win32,59.84440455,,,,,,,,,,,,,,,,,,masks/mask_001.jpg,,,,,,,,,,,,,,,,,,,,,,,,,,,,,,,,,,,,,,,,,,,0,3,3,0,1,,,,,,,,,,,,,,,,,,,,,,,,,,,,,,,,,,,,,,,,,,,,,,
086768,001,2022-11-20_17h46.29.498,Info_measure_main_exp,2022.2.2,Win32,59.84440455,,,,,,,,,,,,,,,,,,masks/mask_002.jpg,,,,,,,,,,,,,,,,,,,,,,,,,,,,,,,,,,,,,,,,,,,0,4,4,1,1,,,,,,,,,,,,,,,,,,,,,,,,,,,,,,,,,,,,,,,,,,,,,,
086768,001,2022-11-20_17h46.29.498,Info_measure_main_exp,2022.2.2,Win32,59.84440455,,,,,,,,,,,,,,,,,,masks/mask_003.jpg,,,,,,,,,,,,,,,,,,,,,,,,,,,,,,,,,,,,,,,,,,,,,,,,0,0,0,2,1,,,,,,,,,,,,,,,,,,,,,,,,,,,,,,,,,,,,,,,,,
086768,001,2022-11-20_17h46.29.498,Info_measure_main_exp,2022.2.2,Win32,59.84440455,,,,,,,,,,,,,,,,,,masks/mask_004.jpg,,,,,,,,,,,,,,,,,,,,,,,,,,,,,,,,,,,,,,,,,,,,,,,,0,1,1,3,1,,,,,,,,,,,,,,,,,,,,,,,,,,,,,,,,,,,,,,,,,
086768,001,2022-11-20_17h46.29.498,Info_measure_main_exp,2022.2.2,Win32,59.84440455,,,,,,,,,,,,,,,,,,masks/mask_002.jpg,,,,,,,,,,,,,,,,,,,,,,,,,,,,,,,,,,,,,,,,,,,,,,,,0,2,2,1,1,,,,,,,,,,,,,,,,,,,,,,,,,,,,,,,,,,,,,,,,,
086768,001,2022-11-20_17h46.29.498,Info_measure_main_exp,2022.2.2,Win32,59.84440455,,,,,,,,,,,,,,,,,,masks/mask_005.jpg,,,,,,,,,,,,,,,,,,,,,,,,,,,,,,,,,,,,,,,,,,,,,,,,0,3,3,4,1,,,,,,,,,,,,,,,,,,,,,,,,,,,,,,,,,,,,,,,,,
086768,001,2022-11-20_17h46.29.498,Info_measure_main_exp,2022.2.2,Win32,59.84440455,,,,,,,,,,,,,,,,,,masks/mask_001.jpg,,,,,,,,,,,,,,,,,,,,,,,,,,,,,,,,,,,,,,,,,,,,,,,,0,4,4,0,1,,,,,,,,,,,,,,,,,,,,,,,,,,,,,,,,,,,,,,,,,
086768,001,2022-11-20_17h46.29.498,Info_measure_main_exp,2022.2.2,Win32,59.84440455,,,,,,,,,,,,,,,,,,,,,,,,,,,,,,7,0.9349,1,,,,,,,,,,,,0,131,5,5,2238,2214,absent_patch/patch0002238.jpg,absent_patch/patch0002214.jpg,,,,,,,,,,,,,,,,,,,,0.025925926,0.076851852,1,0,0,response1disk,30,0.000925926,0.006481481,1,0,0,center_square,0,29,29,81,1,,,,,,,,,,,,,,,,,,,,,,,
086768,001,2022-11-20_17h46.29.498,Info_measure_main_exp,2022.2.2,Win32,59.84440455,,,,,,,,,,,,,,,,,,masks/mask_001.jpg,,,,,,,,,,,,,,,,,,,,,,,,,,,,,,,,,,,,,,,,,,,0,0,0,0,1,,,,,,,,,,,,,,,,,,,,,,,,,,,,,,,,,,,,,,,,,,,,,,
086768,001,2022-11-20_17h46.29.498,Info_measure_main_exp,2022.2.2,Win32,59.84440455,,,,,,,,,,,,,,,,,,masks/mask_002.jpg,,,,,,,,,,,,,,,,,,,,,,,,,,,,,,,,,,,,,,,,,,,0,1,1,1,1,,,,,,,,,,,,,,,,,,,,,,,,,,,,,,,,,,,,,,,,,,,,,,
086768,001,2022-11-20_17h46.29.498,Info_measure_main_exp,2022.2.2,Win32,59.84440455,,,,,,,,,,,,,,,,,,masks/mask_003.jpg,,,,,,,,,,,,,,,,,,,,,,,,,,,,,,,,,,,,,,,,,,,0,2,2,2,1,,,,,,,,,,,,,,,,,,,,,,,,,,,,,,,,,,,,,,,,,,,,,,
086768,001,2022-11-20_17h46.29.498,Info_measure_main_exp,2022.2.2,Win32,59.84440455,,,,,,,,,,,,,,,,,,masks/mask_004.jpg,,,,,,,,,,,,,,,,,,,,,,,,,,,,,,,,,,,,,,,,,,,0,3,3,3,1,,,,,,,,,,,,,,,,,,,,,,,,,,,,,,,,,,,,,,,,,,,,,,
086768,001,2022-11-20_17h46.29.498,Info_measure_main_exp,2022.2.2,Win32,59.84440455,,,,,,,,,,,,,,,,,,masks/mask_005.jpg,,,,,,,,,,,,,,,,,,,,,,,,,,,,,,,,,,,,,,,,,,,0,4,4,4,1,,,,,,,,,,,,,,,,,,,,,,,,,,,,,,,,,,,,,,,,,,,,,,
086768,001,2022-11-20_17h46.29.498,Info_measure_main_exp,2022.2.2,Win32,59.84440455,,,,,,,,,,,,,,,,,,masks/mask_002.jpg,,,,,,,,,,,,,,,,,,,,,,,,,,,,,,,,,,,,,,,,,,,,,,,,0,0,0,1,1,,,,,,,,,,,,,,,,,,,,,,,,,,,,,,,,,,,,,,,,,
086768,001,2022-11-20_17h46.29.498,Info_measure_main_exp,2022.2.2,Win32,59.84440455,,,,,,,,,,,,,,,,,,masks/mask_005.jpg,,,,,,,,,,,,,,,,,,,,,,,,,,,,,,,,,,,,,,,,,,,,,,,,0,1,1,4,1,,,,,,,,,,,,,,,,,,,,,,,,,,,,,,,,,,,,,,,,,
086768,001,2022-11-20_17h46.29.498,Info_measure_main_exp,2022.2.2,Win32,59.84440455,,,,,,,,,,,,,,,,,,masks/mask_003.jpg,,,,,,,,,,,,,,,,,,,,,,,,,,,,,,,,,,,,,,,,,,,,,,,,0,2,2,2,1,,,,,,,,,,,,,,,,,,,,,,,,,,,,,,,,,,,,,,,,,
086768,001,2022-11-20_17h46.29.498,Info_measure_main_exp,2022.2.2,Win32,59.84440455,,,,,,,,,,,,,,,,,,masks/mask_001.jpg,,,,,,,,,,,,,,,,,,,,,,,,,,,,,,,,,,,,,,,,,,,,,,,,0,3,3,0,1,,,,,,,,,,,,,,,,,,,,,,,,,,,,,,,,,,,,,,,,,
086768,001,2022-11-20_17h46.29.498,Info_measure_main_exp,2022.2.2,Win32,59.84440455,,,,,,,,,,,,,,,,,,masks/mask_004.jpg,,,,,,,,,,,,,,,,,,,,,,,,,,,,,,,,,,,,,,,,,,,,,,,,0,4,4,3,1,,,,,,,,,,,,,,,,,,,,,,,,,,,,,,,,,,,,,,,,,
086768,001,2022-11-20_17h46.29.498,Info_measure_main_exp,2022.2.2,Win32,59.84440455,,,,,,,,,,,,,,,,,,,,,,,,,,,,,,3,1.387,1,,,,,,,,,,,,0,131,5,5,2214,2166,absent_patch/patch0002214.jpg,absent_patch/patch0002166.jpg,,,,,,,,,,,,,,,,,,,,-0.014814815,-0.097222222,1,0,0,response5disk,31,0.005555556,0.006481481,1,0,0,center_square,0,30,30,109,1,,,,,,,,,,,,,,,,,,,,,,,
086768,001,2022-11-20_17h46.29.498,Info_measure_main_exp,2022.2.2,Win32,59.84440455,,,,,,,,,,,,,,,,,,masks/mask_004.jpg,,,,,,,,,,,,,,,,,,,,,,,,,,,,,,,,,,,,,,,,,,,0,0,0,3,1,,,,,,,,,,,,,,,,,,,,,,,,,,,,,,,,,,,,,,,,,,,,,,
086768,001,2022-11-20_17h46.29.498,Info_measure_main_exp,2022.2.2,Win32,59.84440455,,,,,,,,,,,,,,,,,,masks/mask_001.jpg,,,,,,,,,,,,,,,,,,,,,,,,,,,,,,,,,,,,,,,,,,,0,1,1,0,1,,,,,,,,,,,,,,,,,,,,,,,,,,,,,,,,,,,,,,,,,,,,,,
086768,001,2022-11-20_17h46.29.498,Info_measure_main_exp,2022.2.2,Win32,59.84440455,,,,,,,,,,,,,,,,,,masks/mask_003.jpg,,,,,,,,,,,,,,,,,,,,,,,,,,,,,,,,,,,,,,,,,,,0,2,2,2,1,,,,,,,,,,,,,,,,,,,,,,,,,,,,,,,,,,,,,,,,,,,,,,
086768,001,2022-11-20_17h46.29.498,Info_measure_main_exp,2022.2.2,Win32,59.84440455,,,,,,,,,,,,,,,,,,masks/mask_005.jpg,,,,,,,,,,,,,,,,,,,,,,,,,,,,,,,,,,,,,,,,,,,0,3,3,4,1,,,,,,,,,,,,,,,,,,,,,,,,,,,,,,,,,,,,,,,,,,,,,,
086768,001,2022-11-20_17h46.29.498,Info_measure_main_exp,2022.2.2,Win32,59.84440455,,,,,,,,,,,,,,,,,,masks/mask_002.jpg,,,,,,,,,,,,,,,,,,,,,,,,,,,,,,,,,,,,,,,,,,,0,4,4,1,1,,,,,,,,,,,,,,,,,,,,,,,,,,,,,,,,,,,,,,,,,,,,,,
086768,001,2022-11-20_17h46.29.498,Info_measure_main_exp,2022.2.2,Win32,59.84440455,,,,,,,,,,,,,,,,,,masks/mask_005.jpg,,,,,,,,,,,,,,,,,,,,,,,,,,,,,,,,,,,,,,,,,,,,,,,,0,0,0,4,1,,,,,,,,,,,,,,,,,,,,,,,,,,,,,,,,,,,,,,,,,
086768,001,2022-11-20_17h46.29.498,Info_measure_main_exp,2022.2.2,Win32,59.84440455,,,,,,,,,,,,,,,,,,masks/mask_004.jpg,,,,,,,,,,,,,,,,,,,,,,,,,,,,,,,,,,,,,,,,,,,,,,,,0,1,1,3,1,,,,,,,,,,,,,,,,,,,,,,,,,,,,,,,,,,,,,,,,,
086768,001,2022-11-20_17h46.29.498,Info_measure_main_exp,2022.2.2,Win32,59.84440455,,,,,,,,,,,,,,,,,,masks/mask_001.jpg,,,,,,,,,,,,,,,,,,,,,,,,,,,,,,,,,,,,,,,,,,,,,,,,0,2,2,0,1,,,,,,,,,,,,,,,,,,,,,,,,,,,,,,,,,,,,,,,,,
086768,001,2022-11-20_17h46.29.498,Info_measure_main_exp,2022.2.2,Win32,59.84440455,,,,,,,,,,,,,,,,,,masks/mask_002.jpg,,,,,,,,,,,,,,,,,,,,,,,,,,,,,,,,,,,,,,,,,,,,,,,,0,3,3,1,1,,,,,,,,,,,,,,,,,,,,,,,,,,,,,,,,,,,,,,,,,
086768,001,2022-11-20_17h46.29.498,Info_measure_main_exp,2022.2.2,Win32,59.84440455,,,,,,,,,,,,,,,,,,masks/mask_003.jpg,,,,,,,,,,,,,,,,,,,,,,,,,,,,,,,,,,,,,,,,,,,,,,,,0,4,4,2,1,,,,,,,,,,,,,,,,,,,,,,,,,,,,,,,,,,,,,,,,,
086768,001,2022-11-20_17h46.29.498,Info_measure_main_exp,2022.2.2,Win32,59.84440455,,,,,,,,,,,,,,,,,,,,,,,,,,,,,,7,0.7688,1,,,,,,,,,,,,0,131,5,5,2250,2214,absent_patch/patch0002250.jpg,absent_patch/patch0002214.jpg,,,,,,,,,,,,,,,,,,,,0.039814815,0.091666667,1,0,0,response1disk,32,0.001851852,0.008333333,1,0,0,center_square,0,31,31,97,1,,,,,,,,,,,,,,,,,,,,,,,
086768,001,2022-11-20_17h46.29.498,Info_measure_main_exp,2022.2.2,Win32,59.84440455,,,,,,,,,,,,,,,,,,masks/mask_004.jpg,,,,,,,,,,,,,,,,,,,,,,,,,,,,,,,,,,,,,,,,,,,0,0,0,3,1,,,,,,,,,,,,,,,,,,,,,,,,,,,,,,,,,,,,,,,,,,,,,,
086768,001,2022-11-20_17h46.29.498,Info_measure_main_exp,2022.2.2,Win32,59.84440455,,,,,,,,,,,,,,,,,,masks/mask_001.jpg,,,,,,,,,,,,,,,,,,,,,,,,,,,,,,,,,,,,,,,,,,,0,1,1,0,1,,,,,,,,,,,,,,,,,,,,,,,,,,,,,,,,,,,,,,,,,,,,,,
086768,001,2022-11-20_17h46.29.498,Info_measure_main_exp,2022.2.2,Win32,59.84440455,,,,,,,,,,,,,,,,,,masks/mask_002.jpg,,,,,,,,,,,,,,,,,,,,,,,,,,,,,,,,,,,,,,,,,,,0,2,2,1,1,,,,,,,,,,,,,,,,,,,,,,,,,,,,,,,,,,,,,,,,,,,,,,
086768,001,2022-11-20_17h46.29.498,Info_measure_main_exp,2022.2.2,Win32,59.84440455,,,,,,,,,,,,,,,,,,masks/mask_003.jpg,,,,,,,,,,,,,,,,,,,,,,,,,,,,,,,,,,,,,,,,,,,0,3,3,2,1,,,,,,,,,,,,,,,,,,,,,,,,,,,,,,,,,,,,,,,,,,,,,,
086768,001,2022-11-20_17h46.29.498,Info_measure_main_exp,2022.2.2,Win32,59.84440455,,,,,,,,,,,,,,,,,,masks/mask_005.jpg,,,,,,,,,,,,,,,,,,,,,,,,,,,,,,,,,,,,,,,,,,,0,4,4,4,1,,,,,,,,,,,,,,,,,,,,,,,,,,,,,,,,,,,,,,,,,,,,,,
086768,001,2022-11-20_17h46.29.498,Info_measure_main_exp,2022.2.2,Win32,59.84440455,,,,,,,,,,,,,,,,,,masks/mask_003.jpg,,,,,,,,,,,,,,,,,,,,,,,,,,,,,,,,,,,,,,,,,,,,,,,,0,0,0,2,1,,,,,,,,,,,,,,,,,,,,,,,,,,,,,,,,,,,,,,,,,
086768,001,2022-11-20_17h46.29.498,Info_measure_main_exp,2022.2.2,Win32,59.84440455,,,,,,,,,,,,,,,,,,masks/mask_002.jpg,,,,,,,,,,,,,,,,,,,,,,,,,,,,,,,,,,,,,,,,,,,,,,,,0,1,1,1,1,,,,,,,,,,,,,,,,,,,,,,,,,,,,,,,,,,,,,,,,,
086768,001,2022-11-20_17h46.29.498,Info_measure_main_exp,2022.2.2,Win32,59.84440455,,,,,,,,,,,,,,,,,,masks/mask_004.jpg,,,,,,,,,,,,,,,,,,,,,,,,,,,,,,,,,,,,,,,,,,,,,,,,0,2,2,3,1,,,,,,,,,,,,,,,,,,,,,,,,,,,,,,,,,,,,,,,,,
086768,001,2022-11-20_17h46.29.498,Info_measure_main_exp,2022.2.2,Win32,59.84440455,,,,,,,,,,,,,,,,,,masks/mask_005.jpg,,,,,,,,,,,,,,,,,,,,,,,,,,,,,,,,,,,,,,,,,,,,,,,,0,3,3,4,1,,,,,,,,,,,,,,,,,,,,,,,,,,,,,,,,,,,,,,,,,
086768,001,2022-11-20_17h46.29.498,Info_measure_main_exp,2022.2.2,Win32,59.84440455,,,,,,,,,,,,,,,,,,masks/mask_001.jpg,,,,,,,,,,,,,,,,,,,,,,,,,,,,,,,,,,,,,,,,,,,,,,,,0,4,4,0,1,,,,,,,,,,,,,,,,,,,,,,,,,,,,,,,,,,,,,,,,,
086768,001,2022-11-20_17h46.29.498,Info_measure_main_exp,2022.2.2,Win32,59.84440455,,,,,,,,,,,,,,,,,,,,,,,,,,,,,,0,0.8846,1,,,,,,,,,,,,0,131,5,5,2274,2274,absent_patch/patch0002274.jpg,absent_patch/patch0002274.jpg,,,,,,,,,,,,,,,,,,,,-0.041666667,0.124074074,1,0,0,response7disk,33,0.001851852,0.005555556,1,0,0,center_square,0,32,32,114,1,,,,,,,,,,,,,,,,,,,,,,,
086768,001,2022-11-20_17h46.29.498,Info_measure_main_exp,2022.2.2,Win32,59.84440455,,,,,,,,,,,,,,,,,,masks/mask_005.jpg,,,,,,,,,,,,,,,,,,,,,,,,,,,,,,,,,,,,,,,,,,,0,0,0,4,1,,,,,,,,,,,,,,,,,,,,,,,,,,,,,,,,,,,,,,,,,,,,,,
086768,001,2022-11-20_17h46.29.498,Info_measure_main_exp,2022.2.2,Win32,59.84440455,,,,,,,,,,,,,,,,,,masks/mask_001.jpg,,,,,,,,,,,,,,,,,,,,,,,,,,,,,,,,,,,,,,,,,,,0,1,1,0,1,,,,,,,,,,,,,,,,,,,,,,,,,,,,,,,,,,,,,,,,,,,,,,
086768,001,2022-11-20_17h46.29.498,Info_measure_main_exp,2022.2.2,Win32,59.84440455,,,,,,,,,,,,,,,,,,masks/mask_002.jpg,,,,,,,,,,,,,,,,,,,,,,,,,,,,,,,,,,,,,,,,,,,0,2,2,1,1,,,,,,,,,,,,,,,,,,,,,,,,,,,,,,,,,,,,,,,,,,,,,,
086768,001,2022-11-20_17h46.29.498,Info_measure_main_exp,2022.2.2,Win32,59.84440455,,,,,,,,,,,,,,,,,,masks/mask_003.jpg,,,,,,,,,,,,,,,,,,,,,,,,,,,,,,,,,,,,,,,,,,,0,3,3,2,1,,,,,,,,,,,,,,,,,,,,,,,,,,,,,,,,,,,,,,,,,,,,,,
086768,001,2022-11-20_17h46.29.498,Info_measure_main_exp,2022.2.2,Win32,59.84440455,,,,,,,,,,,,,,,,,,masks/mask_004.jpg,,,,,,,,,,,,,,,,,,,,,,,,,,,,,,,,,,,,,,,,,,,0,4,4,3,1,,,,,,,,,,,,,,,,,,,,,,,,,,,,,,,,,,,,,,,,,,,,,,
086768,001,2022-11-20_17h46.29.498,Info_measure_main_exp,2022.2.2,Win32,59.84440455,,,,,,,,,,,,,,,,,,masks/mask_003.jpg,,,,,,,,,,,,,,,,,,,,,,,,,,,,,,,,,,,,,,,,,,,,,,,,0,0,0,2,1,,,,,,,,,,,,,,,,,,,,,,,,,,,,,,,,,,,,,,,,,
086768,001,2022-11-20_17h46.29.498,Info_measure_main_exp,2022.2.2,Win32,59.84440455,,,,,,,,,,,,,,,,,,masks/mask_002.jpg,,,,,,,,,,,,,,,,,,,,,,,,,,,,,,,,,,,,,,,,,,,,,,,,0,1,1,1,1,,,,,,,,,,,,,,,,,,,,,,,,,,,,,,,,,,,,,,,,,
086768,001,2022-11-20_17h46.29.498,Info_measure_main_exp,2022.2.2,Win32,59.84440455,,,,,,,,,,,,,,,,,,masks/mask_005.jpg,,,,,,,,,,,,,,,,,,,,,,,,,,,,,,,,,,,,,,,,,,,,,,,,0,2,2,4,1,,,,,,,,,,,,,,,,,,,,,,,,,,,,,,,,,,,,,,,,,
086768,001,2022-11-20_17h46.29.498,Info_measure_main_exp,2022.2.2,Win32,59.84440455,,,,,,,,,,,,,,,,,,masks/mask_004.jpg,,,,,,,,,,,,,,,,,,,,,,,,,,,,,,,,,,,,,,,,,,,,,,,,0,3,3,3,1,,,,,,,,,,,,,,,,,,,,,,,,,,,,,,,,,,,,,,,,,
086768,001,2022-11-20_17h46.29.498,Info_measure_main_exp,2022.2.2,Win32,59.84440455,,,,,,,,,,,,,,,,,,masks/mask_001.jpg,,,,,,,,,,,,,,,,,,,,,,,,,,,,,,,,,,,,,,,,,,,,,,,,0,4,4,0,1,,,,,,,,,,,,,,,,,,,,,,,,,,,,,,,,,,,,,,,,,
086768,001,2022-11-20_17h46.29.498,Info_measure_main_exp,2022.2.2,Win32,59.84440455,,,,,,,,,,,,,,,,,,,,,,,,,,,,,,2,1.6851,1,,,,,,,,,,,,0,131,5,5,2178,2142,absent_patch/patch0002178.jpg,absent_patch/patch0002142.jpg,,,,,,,,,,,,,,,,,,,,-0.060185185,-0.012037037,1,0,0,response5disk,34,0.005555556,0.006481481,1,0,0,center_square,0,33,33,41,1,,,,,,,,,,,,,,,,,,,,,,,
086768,001,2022-11-20_17h46.29.498,Info_measure_main_exp,2022.2.2,Win32,59.84440455,,,,,,,,,,,,,,,,,,masks/mask_002.jpg,,,,,,,,,,,,,,,,,,,,,,,,,,,,,,,,,,,,,,,,,,,0,0,0,1,1,,,,,,,,,,,,,,,,,,,,,,,,,,,,,,,,,,,,,,,,,,,,,,
086768,001,2022-11-20_17h46.29.498,Info_measure_main_exp,2022.2.2,Win32,59.84440455,,,,,,,,,,,,,,,,,,masks/mask_004.jpg,,,,,,,,,,,,,,,,,,,,,,,,,,,,,,,,,,,,,,,,,,,0,1,1,3,1,,,,,,,,,,,,,,,,,,,,,,,,,,,,,,,,,,,,,,,,,,,,,,
086768,001,2022-11-20_17h46.29.498,Info_measure_main_exp,2022.2.2,Win32,59.84440455,,,,,,,,,,,,,,,,,,masks/mask_001.jpg,,,,,,,,,,,,,,,,,,,,,,,,,,,,,,,,,,,,,,,,,,,0,2,2,0,1,,,,,,,,,,,,,,,,,,,,,,,,,,,,,,,,,,,,,,,,,,,,,,
086768,001,2022-11-20_17h46.29.498,Info_measure_main_exp,2022.2.2,Win32,59.84440455,,,,,,,,,,,,,,,,,,masks/mask_005.jpg,,,,,,,,,,,,,,,,,,,,,,,,,,,,,,,,,,,,,,,,,,,0,3,3,4,1,,,,,,,,,,,,,,,,,,,,,,,,,,,,,,,,,,,,,,,,,,,,,,
086768,001,2022-11-20_17h46.29.498,Info_measure_main_exp,2022.2.2,Win32,59.84440455,,,,,,,,,,,,,,,,,,masks/mask_003.jpg,,,,,,,,,,,,,,,,,,,,,,,,,,,,,,,,,,,,,,,,,,,0,4,4,2,1,,,,,,,,,,,,,,,,,,,,,,,,,,,,,,,,,,,,,,,,,,,,,,
086768,001,2022-11-20_17h46.29.498,Info_measure_main_exp,2022.2.2,Win32,59.84440455,,,,,,,,,,,,,,,,,,masks/mask_003.jpg,,,,,,,,,,,,,,,,,,,,,,,,,,,,,,,,,,,,,,,,,,,,,,,,0,0,0,2,1,,,,,,,,,,,,,,,,,,,,,,,,,,,,,,,,,,,,,,,,,
086768,001,2022-11-20_17h46.29.498,Info_measure_main_exp,2022.2.2,Win32,59.84440455,,,,,,,,,,,,,,,,,,masks/mask_001.jpg,,,,,,,,,,,,,,,,,,,,,,,,,,,,,,,,,,,,,,,,,,,,,,,,0,1,1,0,1,,,,,,,,,,,,,,,,,,,,,,,,,,,,,,,,,,,,,,,,,
086768,001,2022-11-20_17h46.29.498,Info_measure_main_exp,2022.2.2,Win32,59.84440455,,,,,,,,,,,,,,,,,,masks/mask_002.jpg,,,,,,,,,,,,,,,,,,,,,,,,,,,,,,,,,,,,,,,,,,,,,,,,0,2,2,1,1,,,,,,,,,,,,,,,,,,,,,,,,,,,,,,,,,,,,,,,,,
086768,001,2022-11-20_17h46.29.498,Info_measure_main_exp,2022.2.2,Win32,59.84440455,,,,,,,,,,,,,,,,,,masks/mask_005.jpg,,,,,,,,,,,,,,,,,,,,,,,,,,,,,,,,,,,,,,,,,,,,,,,,0,3,3,4,1,,,,,,,,,,,,,,,,,,,,,,,,,,,,,,,,,,,,,,,,,
