participant,session,date,expName,psychopyVersion,OS,frameRate,space_press_continue.keys,space_press_continue.rt,space_press_continue_2.keys,space_press_continue_2.rt,space_press_continue_3.keys,space_press_continue_3.rt,space_press_continue_4.keys,space_press_continue_4.rt,space_press_continue_5.keys,space_press_continue_5.rt,space_press_continue_6.keys,space_press_continue_6.rt,prac_mask_loop_1.thisRepN,prac_mask_loop_1.thisTrialN,prac_mask_loop_1.thisN,prac_mask_loop_1.thisIndex,prac_mask_loop_1.ran,mask_name,prac_mask_loop_2.thisRepN,prac_mask_loop_2.thisTrialN,prac_mask_loop_2.thisN,prac_mask_loop_2.thisIndex,prac_mask_loop_2.ran,mouse_2.x,mouse_2.y,mouse_2.leftButton,mouse_2.midButton,mouse_2.rightButton,mouse_2.clicked_name,similarity,response_time,Pass,mouse_12.x,mouse_12.y,mouse_12.leftButton,mouse_12.midButton,mouse_12.rightButton,mouse_12.clicked_name,prac_loop.thisRepN,prac_loop.thisTrialN,prac_loop.thisN,prac_loop.thisIndex,prac_loop.ran,Pair_type,Image_num,Patch_1_loc,Patch_2_loc,Patch_1_info,Patch_2_info,Patch_1_name,Patch_2_name,mouse_1.x,mouse_1.y,mouse_1.leftButton,mouse_1.midButton,mouse_1.rightButton,mouse_1.time,mouse_1.clicked_name,space_press_continue_7.keys,space_press_continue_7.rt,mask_loop.thisRepN,mask_loop.thisTrialN,mask_loop.thisN,mask_loop.thisIndex,mask_loop.ran,mask_loop_2.thisRepN,mask_loop_2.thisTrialN,mask_loop_2.thisN,mask_loop_2.thisIndex,mask_loop_2.ran,mouse.x,mouse.y,mouse.leftButton,mouse.midButton,mouse.rightButton,mouse.clicked_name,trialNumber,mouse_11.x,mouse_11.y,mouse_11.leftButton,mouse_11.midButton,mouse_11.rightButton,mouse_11.clicked_name,first_pass_loop.thisRepN,first_pass_loop.thisTrialN,first_pass_loop.thisN,first_pass_loop.thisIndex,first_pass_loop.ran,mask_loop_3.thisRepN,mask_loop_3.thisTrialN,mask_loop_3.thisN,mask_loop_3.thisIndex,mask_loop_3.ran,mask_loop_4.thisRepN,mask_loop_4.thisTrialN,mask_loop_4.thisN,mask_loop_4.thisIndex,mask_loop_4.ran,mouse_3.x,mouse_3.y,mouse_3.leftButton,mouse_3.midButton,mouse_3.rightButton,mouse_3.clicked_name,double_pass_loop.thisRepN,double_pass_loop.thisTrialN,double_pass_loop.thisN,double_pass_loop.thisIndex,double_pass_loop.ran,space_exit.keys,space_exit.rt
088354,001,2022-11-21_00h53.48.843,Info_measure_main_exp,2022.2.2,Win32,144.092219,,,,,,,,,,,,,,,,,,,,,,,,,,,,,,,,,,,,,,,,,,,,,,,,,,,,,,,,,,,,,,,,,,,,,,,,,,,,,,,,,,,,,,,,,,,,,,,,,,,,,,,,,,,,,,,
088354,001,2022-11-21_00h53.48.843,Info_measure_main_exp,2022.2.2,Win32,144.092219,,,,,,,,,,,,,,,,,,,,,,,,,,,,,,,,,,,,,,,,,,,,,,,,,,,,,,,,,,,,,,,,,,,,,,,,,,,,,,,,,,,,,,,,,,,,,,,,,,,,,,,,,,,,,,,
088354,001,2022-11-21_00h53.48.843,Info_measure_main_exp,2022.2.2,Win32,144.092219,space,8.212,,,,,,,,,,,,,,,,,,,,,,,,,,,,,,,,,,,,,,,,,,,,,,,,,,,,,,,,,,,,,,,,,,,,,,,,,,,,,,,,,,,,,,,,,,,,,,,,,,,,,,,,,,,,,
088354,001,2022-11-21_00h53.48.843,Info_measure_main_exp,2022.2.2,Win32,144.092219,,,space,7.63,,,,,,,,,,,,,,,,,,,,,,,,,,,,,,,,,,,,,,,,,,,,,,,,,,,,,,,,,,,,,,,,,,,,,,,,,,,,,,,,,,,,,,,,,,,,,,,,,,,,,,,,,,,
088354,001,2022-11-21_00h53.48.843,Info_measure_main_exp,2022.2.2,Win32,144.092219,,,,,space,4.667,,,,,,,,,,,,,,,,,,,,,,,,,,,,,,,,,,,,,,,,,,,,,,,,,,,,,,,,,,,,,,,,,,,,,,,,,,,,,,,,,,,,,,,,,,,,,,,,,,,,,,,,,
088354,001,2022-11-21_00h53.48.843,Info_measure_main_exp,2022.2.2,Win32,144.092219,,,,,,,space,16.41,,,,,,,,,,,,,,,,,,,,,,,,,,,,,,,,,,,,,,,,,,,,,,,,,,,,,,,,,,,,,,,,,,,,,,,,,,,,,,,,,,,,,,,,,,,,,,,,,,,,,,,
088354,001,2022-11-21_00h53.48.843,Info_measure_main_exp,2022.2.2,Win32,144.092219,,,,,,,,,space,4.715,,,,,,,,,,,,,,,,,,,,,,,,,,,,,,,,,,,,,,,,,,,,,,,,,,,,,,,,,,,,,,,,,,,,,,,,,,,,,,,,,,,,,,,,,,,,,,,,,,,,,
088354,001,2022-11-21_00h53.48.843,Info_measure_main_exp,2022.2.2,Win32,144.092219,,,,,,,,,,,space,2.273,,,,,,,,,,,,,,,,,,,,,,,,,,,,,,,,,,,,,,,,,,,,,,,,,,,,,,,,,,,,,,,,,,,,,,,,,,,,,,,,,,,,,,,,,,,,,,,,,,,
088354,001,2022-11-21_00h53.48.843,Info_measure_main_exp,2022.2.2,Win32,144.092219,,,,,,,,,,,,,0,0,0,1,1,masks/mask_002.jpg,,,,,,,,,,,,,,,,,,,,,,,,,,,,,,,,,,,,,,,,,,,,,,,,,,,,,,,,,,,,,,,,,,,,,,,,,,,,,,,,,,,,,,,,,,,,,
088354,001,2022-11-21_00h53.48.843,Info_measure_main_exp,2022.2.2,Win32,144.092219,,,,,,,,,,,,,0,1,1,4,1,masks/mask_005.jpg,,,,,,,,,,,,,,,,,,,,,,,,,,,,,,,,,,,,,,,,,,,,,,,,,,,,,,,,,,,,,,,,,,,,,,,,,,,,,,,,,,,,,,,,,,,,,
088354,001,2022-11-21_00h53.48.843,Info_measure_main_exp,2022.2.2,Win32,144.092219,,,,,,,,,,,,,0,2,2,0,1,masks/mask_001.jpg,,,,,,,,,,,,,,,,,,,,,,,,,,,,,,,,,,,,,,,,,,,,,,,,,,,,,,,,,,,,,,,,,,,,,,,,,,,,,,,,,,,,,,,,,,,,,
088354,001,2022-11-21_00h53.48.843,Info_measure_main_exp,2022.2.2,Win32,144.092219,,,,,,,,,,,,,0,3,3,2,1,masks/mask_003.jpg,,,,,,,,,,,,,,,,,,,,,,,,,,,,,,,,,,,,,,,,,,,,,,,,,,,,,,,,,,,,,,,,,,,,,,,,,,,,,,,,,,,,,,,,,,,,,
088354,001,2022-11-21_00h53.48.843,Info_measure_main_exp,2022.2.2,Win32,144.092219,,,,,,,,,,,,,0,4,4,3,1,masks/mask_004.jpg,,,,,,,,,,,,,,,,,,,,,,,,,,,,,,,,,,,,,,,,,,,,,,,,,,,,,,,,,,,,,,,,,,,,,,,,,,,,,,,,,,,,,,,,,,,,,
088354,001,2022-11-21_00h53.48.843,Info_measure_main_exp,2022.2.2,Win32,144.092219,,,,,,,,,,,,,,,,,,masks/mask_003.jpg,0,0,0,2,1,,,,,,,,,,,,,,,,,,,,,,,,,,,,,,,,,,,,,,,,,,,,,,,,,,,,,,,,,,,,,,,,,,,,,,,,,,,,,,,,,,,,,,,,
088354,001,2022-11-21_00h53.48.843,Info_measure_main_exp,2022.2.2,Win32,144.092219,,,,,,,,,,,,,,,,,,masks/mask_001.jpg,0,1,1,0,1,,,,,,,,,,,,,,,,,,,,,,,,,,,,,,,,,,,,,,,,,,,,,,,,,,,,,,,,,,,,,,,,,,,,,,,,,,,,,,,,,,,,,,,,
088354,001,2022-11-21_00h53.48.843,Info_measure_main_exp,2022.2.2,Win32,144.092219,,,,,,,,,,,,,,,,,,masks/mask_004.jpg,0,2,2,3,1,,,,,,,,,,,,,,,,,,,,,,,,,,,,,,,,,,,,,,,,,,,,,,,,,,,,,,,,,,,,,,,,,,,,,,,,,,,,,,,,,,,,,,,,
088354,001,2022-11-21_00h53.48.843,Info_measure_main_exp,2022.2.2,Win32,144.092219,,,,,,,,,,,,,,,,,,masks/mask_002.jpg,0,3,3,1,1,,,,,,,,,,,,,,,,,,,,,,,,,,,,,,,,,,,,,,,,,,,,,,,,,,,,,,,,,,,,,,,,,,,,,,,,,,,,,,,,,,,,,,,,
088354,001,2022-11-21_00h53.48.843,Info_measure_main_exp,2022.2.2,Win32,144.092219,,,,,,,,,,,,,,,,,,masks/mask_005.jpg,0,4,4,4,1,,,,,,,,,,,,,,,,,,,,,,,,,,,,,,,,,,,,,,,,,,,,,,,,,,,,,,,,,,,,,,,,,,,,,,,,,,,,,,,,,,,,,,,,
088354,001,2022-11-21_00h53.48.843,Info_measure_main_exp,2022.2.2,Win32,144.092219,,,,,,,,,,,,,,,,,,,,,,,,0.078703704,0.175,1,0,0,response1disk,7,51.173,1,-0.003703704,0.003703704,1,0,0,center_square,0,0,0,0,1,0,131,5,5,2370,2406,prac_patch/patch0002370.jpg,prac_patch/patch0002406.jpg,,,,,,,,,,,,,,,,,,,,,,,,,,,,,,,,,,,,,,,,,,,,,,,,,,,,,,,,,,,,
088354,001,2022-11-21_00h53.48.843,Info_measure_main_exp,2022.2.2,Win32,144.092219,,,,,,,,,,,,,0,0,0,3,1,masks/mask_004.jpg,,,,,,,,,,,,,,,,,,,,,,,,,,,,,,,,,,,,,,,,,,,,,,,,,,,,,,,,,,,,,,,,,,,,,,,,,,,,,,,,,,,,,,,,,,,,,
088354,001,2022-11-21_00h53.48.843,Info_measure_main_exp,2022.2.2,Win32,144.092219,,,,,,,,,,,,,0,1,1,0,1,masks/mask_001.jpg,,,,,,,,,,,,,,,,,,,,,,,,,,,,,,,,,,,,,,,,,,,,,,,,,,,,,,,,,,,,,,,,,,,,,,,,,,,,,,,,,,,,,,,,,,,,,
088354,001,2022-11-21_00h53.48.843,Info_measure_main_exp,2022.2.2,Win32,144.092219,,,,,,,,,,,,,0,2,2,4,1,masks/mask_005.jpg,,,,,,,,,,,,,,,,,,,,,,,,,,,,,,,,,,,,,,,,,,,,,,,,,,,,,,,,,,,,,,,,,,,,,,,,,,,,,,,,,,,,,,,,,,,,,
088354,001,2022-11-21_00h53.48.843,Info_measure_main_exp,2022.2.2,Win32,144.092219,,,,,,,,,,,,,0,3,3,1,1,masks/mask_002.jpg,,,,,,,,,,,,,,,,,,,,,,,,,,,,,,,,,,,,,,,,,,,,,,,,,,,,,,,,,,,,,,,,,,,,,,,,,,,,,,,,,,,,,,,,,,,,,
088354,001,2022-11-21_00h53.48.843,Info_measure_main_exp,2022.2.2,Win32,144.092219,,,,,,,,,,,,,0,4,4,2,1,masks/mask_003.jpg,,,,,,,,,,,,,,,,,,,,,,,,,,,,,,,,,,,,,,,,,,,,,,,,,,,,,,,,,,,,,,,,,,,,,,,,,,,,,,,,,,,,,,,,,,,,,
088354,001,2022-11-21_00h53.48.843,Info_measure_main_exp,2022.2.2,Win32,144.092219,,,,,,,,,,,,,,,,,,masks/mask_003.jpg,0,0,0,2,1,,,,,,,,,,,,,,,,,,,,,,,,,,,,,,,,,,,,,,,,,,,,,,,,,,,,,,,,,,,,,,,,,,,,,,,,,,,,,,,,,,,,,,,,
088354,001,2022-11-21_00h53.48.843,Info_measure_main_exp,2022.2.2,Win32,144.092219,,,,,,,,,,,,,,,,,,masks/mask_001.jpg,0,1,1,0,1,,,,,,,,,,,,,,,,,,,,,,,,,,,,,,,,,,,,,,,,,,,,,,,,,,,,,,,,,,,,,,,,,,,,,,,,,,,,,,,,,,,,,,,,
088354,001,2022-11-21_00h53.48.843,Info_measure_main_exp,2022.2.2,Win32,144.092219,,,,,,,,,,,,,,,,,,masks/mask_004.jpg,0,2,2,3,1,,,,,,,,,,,,,,,,,,,,,,,,,,,,,,,,,,,,,,,,,,,,,,,,,,,,,,,,,,,,,,,,,,,,,,,,,,,,,,,,,,,,,,,,
088354,001,2022-11-21_00h53.48.843,Info_measure_main_exp,2022.2.2,Win32,144.092219,,,,,,,,,,,,,,,,,,masks/mask_005.jpg,0,3,3,4,1,,,,,,,,,,,,,,,,,,,,,,,,,,,,,,,,,,,,,,,,,,,,,,,,,,,,,,,,,,,,,,,,,,,,,,,,,,,,,,,,,,,,,,,,
088354,001,2022-11-21_00h53.48.843,Info_measure_main_exp,2022.2.2,Win32,144.092219,,,,,,,,,,,,,,,,,,masks/mask_002.jpg,0,4,4,1,1,,,,,,,,,,,,,,,,,,,,,,,,,,,,,,,,,,,,,,,,,,,,,,,,,,,,,,,,,,,,,,,,,,,,,,,,,,,,,,,,,,,,,,,,
088354,001,2022-11-21_00h53.48.843,Info_measure_main_exp,2022.2.2,Win32,144.092219,,,,,,,,,,,,,,,,,,,,,,,,0.033333333,-0.086111111,1,0,0,response3disk,4,62.012,1,0.005555556,-0.00462963,1,0,0,center_square,0,1,1,1,1,0,131,5,5,2514,2490,prac_patch/patch0002514.jpg,prac_patch/patch0002490.jpg,,,,,,,,,,,,,,,,,,,,,,,,,,,,,,,,,,,,,,,,,,,,,,,,,,,,,,,,,,,,
088354,001,2022-11-21_00h53.48.843,Info_measure_main_exp,2022.2.2,Win32,144.092219,,,,,,,,,,,,,0,0,0,0,1,masks/mask_001.jpg,,,,,,,,,,,,,,,,,,,,,,,,,,,,,,,,,,,,,,,,,,,,,,,,,,,,,,,,,,,,,,,,,,,,,,,,,,,,,,,,,,,,,,,,,,,,,
088354,001,2022-11-21_00h53.48.843,Info_measure_main_exp,2022.2.2,Win32,144.092219,,,,,,,,,,,,,0,1,1,4,1,masks/mask_005.jpg,,,,,,,,,,,,,,,,,,,,,,,,,,,,,,,,,,,,,,,,,,,,,,,,,,,,,,,,,,,,,,,,,,,,,,,,,,,,,,,,,,,,,,,,,,,,,
088354,001,2022-11-21_00h53.48.843,Info_measure_main_exp,2022.2.2,Win32,144.092219,,,,,,,,,,,,,0,2,2,2,1,masks/mask_003.jpg,,,,,,,,,,,,,,,,,,,,,,,,,,,,,,,,,,,,,,,,,,,,,,,,,,,,,,,,,,,,,,,,,,,,,,,,,,,,,,,,,,,,,,,,,,,,,
088354,001,2022-11-21_00h53.48.843,Info_measure_main_exp,2022.2.2,Win32,144.092219,,,,,,,,,,,,,0,3,3,3,1,masks/mask_004.jpg,,,,,,,,,,,,,,,,,,,,,,,,,,,,,,,,,,,,,,,,,,,,,,,,,,,,,,,,,,,,,,,,,,,,,,,,,,,,,,,,,,,,,,,,,,,,,
088354,001,2022-11-21_00h53.48.843,Info_measure_main_exp,2022.2.2,Win32,144.092219,,,,,,,,,,,,,0,4,4,1,1,masks/mask_002.jpg,,,,,,,,,,,,,,,,,,,,,,,,,,,,,,,,,,,,,,,,,,,,,,,,,,,,,,,,,,,,,,,,,,,,,,,,,,,,,,,,,,,,,,,,,,,,,
088354,001,2022-11-21_00h53.48.843,Info_measure_main_exp,2022.2.2,Win32,144.092219,,,,,,,,,,,,,,,,,,masks/mask_001.jpg,0,0,0,0,1,,,,,,,,,,,,,,,,,,,,,,,,,,,,,,,,,,,,,,,,,,,,,,,,,,,,,,,,,,,,,,,,,,,,,,,,,,,,,,,,,,,,,,,,
088354,001,2022-11-21_00h53.48.843,Info_measure_main_exp,2022.2.2,Win32,144.092219,,,,,,,,,,,,,,,,,,masks/mask_003.jpg,0,1,1,2,1,,,,,,,,,,,,,,,,,,,,,,,,,,,,,,,,,,,,,,,,,,,,,,,,,,,,,,,,,,,,,,,,,,,,,,,,,,,,,,,,,,,,,,,,
088354,001,2022-11-21_00h53.48.843,Info_measure_main_exp,2022.2.2,Win32,144.092219,,,,,,,,,,,,,,,,,,masks/mask_002.jpg,0,2,2,1,1,,,,,,,,,,,,,,,,,,,,,,,,,,,,,,,,,,,,,,,,,,,,,,,,,,,,,,,,,,,,,,,,,,,,,,,,,,,,,,,,,,,,,,,,
088354,001,2022-11-21_00h53.48.843,Info_measure_main_exp,2022.2.2,Win32,144.092219,,,,,,,,,,,,,,,,,,masks/mask_005.jpg,0,3,3,4,1,,,,,,,,,,,,,,,,,,,,,,,,,,,,,,,,,,,,,,,,,,,,,,,,,,,,,,,,,,,,,,,,,,,,,,,,,,,,,,,,,,,,,,,,
088354,001,2022-11-21_00h53.48.843,Info_measure_main_exp,2022.2.2,Win32,144.092219,,,,,,,,,,,,,,,,,,masks/mask_004.jpg,0,4,4,3,1,,,,,,,,,,,,,,,,,,,,,,,,,,,,,,,,,,,,,,,,,,,,,,,,,,,,,,,,,,,,,,,,,,,,,,,,,,,,,,,,,,,,,,,,
088354,001,2022-11-21_00h53.48.843,Info_measure_main_exp,2022.2.2,Win32,144.092219,,,,,,,,,,,,,,,,,,,,,,,,-0.069444444,0.167592593,1,0,0,response7disk,0,70.297,1,0.003703704,-0.001851852,1,0,0,center_square,0,2,2,2,1,0,131,5,5,2526,2526,prac_patch/patch0002526.jpg,prac_patch/patch0002526.jpg,,,,,,,,,,,,,,,,,,,,,,,,,,,,,,,,,,,,,,,,,,,,,,,,,,,,,,,,,,,,
088354,001,2022-11-21_00h53.48.843,Info_measure_main_exp,2022.2.2,Win32,144.092219,,,,,,,,,,,,,,,,,,,,,,,,,,,,,,,,,,,,,,,,,,,,,,,,,,,,,,,,,,,space,2.443,,,,,,,,,,,,,,,,,,,,,,,,,,,,,,,,,,,,,,,,,,,,,,,,,,,
088354,001,2022-11-21_00h53.48.843,Info_measure_main_exp,2022.2.2,Win32,144.092219,,,,,,,,,,,,,,,,,,masks/mask_003.jpg,,,,,,,,,,,,,,,,,,,,,,,,,,,,,,,,,,,,,,,,,,,0,0,0,2,1,,,,,,,,,,,,,,,,,,,,,,,,,,,,,,,,,,,,,,,,,,,,,,
088354,001,2022-11-21_00h53.48.843,Info_measure_main_exp,2022.2.2,Win32,144.092219,,,,,,,,,,,,,,,,,,masks/mask_004.jpg,,,,,,,,,,,,,,,,,,,,,,,,,,,,,,,,,,,,,,,,,,,0,1,1,3,1,,,,,,,,,,,,,,,,,,,,,,,,,,,,,,,,,,,,,,,,,,,,,,
088354,001,2022-11-21_00h53.48.843,Info_measure_main_exp,2022.2.2,Win32,144.092219,,,,,,,,,,,,,,,,,,masks/mask_005.jpg,,,,,,,,,,,,,,,,,,,,,,,,,,,,,,,,,,,,,,,,,,,0,2,2,4,1,,,,,,,,,,,,,,,,,,,,,,,,,,,,,,,,,,,,,,,,,,,,,,
088354,001,2022-11-21_00h53.48.843,Info_measure_main_exp,2022.2.2,Win32,144.092219,,,,,,,,,,,,,,,,,,masks/mask_001.jpg,,,,,,,,,,,,,,,,,,,,,,,,,,,,,,,,,,,,,,,,,,,0,3,3,0,1,,,,,,,,,,,,,,,,,,,,,,,,,,,,,,,,,,,,,,,,,,,,,,
088354,001,2022-11-21_00h53.48.843,Info_measure_main_exp,2022.2.2,Win32,144.092219,,,,,,,,,,,,,,,,,,masks/mask_002.jpg,,,,,,,,,,,,,,,,,,,,,,,,,,,,,,,,,,,,,,,,,,,0,4,4,1,1,,,,,,,,,,,,,,,,,,,,,,,,,,,,,,,,,,,,,,,,,,,,,,
088354,001,2022-11-21_00h53.48.843,Info_measure_main_exp,2022.2.2,Win32,144.092219,,,,,,,,,,,,,,,,,,masks/mask_001.jpg,,,,,,,,,,,,,,,,,,,,,,,,,,,,,,,,,,,,,,,,,,,,,,,,0,0,0,0,1,,,,,,,,,,,,,,,,,,,,,,,,,,,,,,,,,,,,,,,,,
088354,001,2022-11-21_00h53.48.843,Info_measure_main_exp,2022.2.2,Win32,144.092219,,,,,,,,,,,,,,,,,,masks/mask_003.jpg,,,,,,,,,,,,,,,,,,,,,,,,,,,,,,,,,,,,,,,,,,,,,,,,0,1,1,2,1,,,,,,,,,,,,,,,,,,,,,,,,,,,,,,,,,,,,,,,,,
088354,001,2022-11-21_00h53.48.843,Info_measure_main_exp,2022.2.2,Win32,144.092219,,,,,,,,,,,,,,,,,,masks/mask_004.jpg,,,,,,,,,,,,,,,,,,,,,,,,,,,,,,,,,,,,,,,,,,,,,,,,0,2,2,3,1,,,,,,,,,,,,,,,,,,,,,,,,,,,,,,,,,,,,,,,,,
088354,001,2022-11-21_00h53.48.843,Info_measure_main_exp,2022.2.2,Win32,144.092219,,,,,,,,,,,,,,,,,,masks/mask_002.jpg,,,,,,,,,,,,,,,,,,,,,,,,,,,,,,,,,,,,,,,,,,,,,,,,0,3,3,1,1,,,,,,,,,,,,,,,,,,,,,,,,,,,,,,,,,,,,,,,,,
088354,001,2022-11-21_00h53.48.843,Info_measure_main_exp,2022.2.2,Win32,144.092219,,,,,,,,,,,,,,,,,,masks/mask_005.jpg,,,,,,,,,,,,,,,,,,,,,,,,,,,,,,,,,,,,,,,,,,,,,,,,0,4,4,4,1,,,,,,,,,,,,,,,,,,,,,,,,,,,,,,,,,,,,,,,,,
088354,001,2022-11-21_00h53.48.843,Info_measure_main_exp,2022.2.2,Win32,144.092219,,,,,,,,,,,,,,,,,,,,,,,,,,,,,,6,2.973,1,,,,,,,,,,,,0,131,5,5,1974,2250,absent_patch/patch0001974.jpg,absent_patch/patch0002250.jpg,,,,,,,,,,,,,,,,,,,,0.15,0.033333333,1,0,0,response1disk,1,0.002777778,-0.005555556,1,0,0,center_square,0,0,0,55,1,,,,,,,,,,,,,,,,,,,,,,,
088354,001,2022-11-21_00h53.48.843,Info_measure_main_exp,2022.2.2,Win32,144.092219,,,,,,,,,,,,,,,,,,masks/mask_001.jpg,,,,,,,,,,,,,,,,,,,,,,,,,,,,,,,,,,,,,,,,,,,0,0,0,0,1,,,,,,,,,,,,,,,,,,,,,,,,,,,,,,,,,,,,,,,,,,,,,,
088354,001,2022-11-21_00h53.48.843,Info_measure_main_exp,2022.2.2,Win32,144.092219,,,,,,,,,,,,,,,,,,masks/mask_003.jpg,,,,,,,,,,,,,,,,,,,,,,,,,,,,,,,,,,,,,,,,,,,0,1,1,2,1,,,,,,,,,,,,,,,,,,,,,,,,,,,,,,,,,,,,,,,,,,,,,,
088354,001,2022-11-21_00h53.48.843,Info_measure_main_exp,2022.2.2,Win32,144.092219,,,,,,,,,,,,,,,,,,masks/mask_002.jpg,,,,,,,,,,,,,,,,,,,,,,,,,,,,,,,,,,,,,,,,,,,0,2,2,1,1,,,,,,,,,,,,,,,,,,,,,,,,,,,,,,,,,,,,,,,,,,,,,,
088354,001,2022-11-21_00h53.48.843,Info_measure_main_exp,2022.2.2,Win32,144.092219,,,,,,,,,,,,,,,,,,masks/mask_005.jpg,,,,,,,,,,,,,,,,,,,,,,,,,,,,,,,,,,,,,,,,,,,0,3,3,4,1,,,,,,,,,,,,,,,,,,,,,,,,,,,,,,,,,,,,,,,,,,,,,,
088354,001,2022-11-21_00h53.48.843,Info_measure_main_exp,2022.2.2,Win32,144.092219,,,,,,,,,,,,,,,,,,masks/mask_004.jpg,,,,,,,,,,,,,,,,,,,,,,,,,,,,,,,,,,,,,,,,,,,0,4,4,3,1,,,,,,,,,,,,,,,,,,,,,,,,,,,,,,,,,,,,,,,,,,,,,,
088354,001,2022-11-21_00h53.48.843,Info_measure_main_exp,2022.2.2,Win32,144.092219,,,,,,,,,,,,,,,,,,masks/mask_005.jpg,,,,,,,,,,,,,,,,,,,,,,,,,,,,,,,,,,,,,,,,,,,,,,,,0,0,0,4,1,,,,,,,,,,,,,,,,,,,,,,,,,,,,,,,,,,,,,,,,,
088354,001,2022-11-21_00h53.48.843,Info_measure_main_exp,2022.2.2,Win32,144.092219,,,,,,,,,,,,,,,,,,masks/mask_002.jpg,,,,,,,,,,,,,,,,,,,,,,,,,,,,,,,,,,,,,,,,,,,,,,,,0,1,1,1,1,,,,,,,,,,,,,,,,,,,,,,,,,,,,,,,,,,,,,,,,,
088354,001,2022-11-21_00h53.48.843,Info_measure_main_exp,2022.2.2,Win32,144.092219,,,,,,,,,,,,,,,,,,masks/mask_004.jpg,,,,,,,,,,,,,,,,,,,,,,,,,,,,,,,,,,,,,,,,,,,,,,,,0,2,2,3,1,,,,,,,,,,,,,,,,,,,,,,,,,,,,,,,,,,,,,,,,,
088354,001,2022-11-21_00h53.48.843,Info_measure_main_exp,2022.2.2,Win32,144.092219,,,,,,,,,,,,,,,,,,masks/mask_001.jpg,,,,,,,,,,,,,,,,,,,,,,,,,,,,,,,,,,,,,,,,,,,,,,,,0,3,3,0,1,,,,,,,,,,,,,,,,,,,,,,,,,,,,,,,,,,,,,,,,,
088354,001,2022-11-21_00h53.48.843,Info_measure_main_exp,2022.2.2,Win32,144.092219,,,,,,,,,,,,,,,,,,masks/mask_003.jpg,,,,,,,,,,,,,,,,,,,,,,,,,,,,,,,,,,,,,,,,,,,,,,,,0,4,4,2,1,,,,,,,,,,,,,,,,,,,,,,,,,,,,,,,,,,,,,,,,,
088354,001,2022-11-21_00h53.48.843,Info_measure_main_exp,2022.2.2,Win32,144.092219,,,,,,,,,,,,,,,,,,,,,,,,,,,,,,7,0.756,1,,,,,,,,,,,,0,131,5,5,2274,2082,absent_patch/patch0002274.jpg,absent_patch/patch0002082.jpg,,,,,,,,,,,,,,,,,,,,0.066666667,0.175925926,1,0,0,response1disk,2,0.008333333,0.00462963,1,0,0,center_square,0,1,1,100,1,,,,,,,,,,,,,,,,,,,,,,,
088354,001,2022-11-21_00h53.48.843,Info_measure_main_exp,2022.2.2,Win32,144.092219,,,,,,,,,,,,,,,,,,masks/mask_004.jpg,,,,,,,,,,,,,,,,,,,,,,,,,,,,,,,,,,,,,,,,,,,0,0,0,3,1,,,,,,,,,,,,,,,,,,,,,,,,,,,,,,,,,,,,,,,,,,,,,,
088354,001,2022-11-21_00h53.48.843,Info_measure_main_exp,2022.2.2,Win32,144.092219,,,,,,,,,,,,,,,,,,masks/mask_001.jpg,,,,,,,,,,,,,,,,,,,,,,,,,,,,,,,,,,,,,,,,,,,0,1,1,0,1,,,,,,,,,,,,,,,,,,,,,,,,,,,,,,,,,,,,,,,,,,,,,,
088354,001,2022-11-21_00h53.48.843,Info_measure_main_exp,2022.2.2,Win32,144.092219,,,,,,,,,,,,,,,,,,masks/mask_005.jpg,,,,,,,,,,,,,,,,,,,,,,,,,,,,,,,,,,,,,,,,,,,0,2,2,4,1,,,,,,,,,,,,,,,,,,,,,,,,,,,,,,,,,,,,,,,,,,,,,,
088354,001,2022-11-21_00h53.48.843,Info_measure_main_exp,2022.2.2,Win32,144.092219,,,,,,,,,,,,,,,,,,masks/mask_002.jpg,,,,,,,,,,,,,,,,,,,,,,,,,,,,,,,,,,,,,,,,,,,0,3,3,1,1,,,,,,,,,,,,,,,,,,,,,,,,,,,,,,,,,,,,,,,,,,,,,,
088354,001,2022-11-21_00h53.48.843,Info_measure_main_exp,2022.2.2,Win32,144.092219,,,,,,,,,,,,,,,,,,masks/mask_003.jpg,,,,,,,,,,,,,,,,,,,,,,,,,,,,,,,,,,,,,,,,,,,0,4,4,2,1,,,,,,,,,,,,,,,,,,,,,,,,,,,,,,,,,,,,,,,,,,,,,,
088354,001,2022-11-21_00h53.48.843,Info_measure_main_exp,2022.2.2,Win32,144.092219,,,,,,,,,,,,,,,,,,masks/mask_003.jpg,,,,,,,,,,,,,,,,,,,,,,,,,,,,,,,,,,,,,,,,,,,,,,,,0,0,0,2,1,,,,,,,,,,,,,,,,,,,,,,,,,,,,,,,,,,,,,,,,,
088354,001,2022-11-21_00h53.48.843,Info_measure_main_exp,2022.2.2,Win32,144.092219,,,,,,,,,,,,,,,,,,masks/mask_002.jpg,,,,,,,,,,,,,,,,,,,,,,,,,,,,,,,,,,,,,,,,,,,,,,,,0,1,1,1,1,,,,,,,,,,,,,,,,,,,,,,,,,,,,,,,,,,,,,,,,,
088354,001,2022-11-21_00h53.48.843,Info_measure_main_exp,2022.2.2,Win32,144.092219,,,,,,,,,,,,,,,,,,masks/mask_001.jpg,,,,,,,,,,,,,,,,,,,,,,,,,,,,,,,,,,,,,,,,,,,,,,,,0,2,2,0,1,,,,,,,,,,,,,,,,,,,,,,,,,,,,,,,,,,,,,,,,,
088354,001,2022-11-21_00h53.48.843,Info_measure_main_exp,2022.2.2,Win32,144.092219,,,,,,,,,,,,,,,,,,masks/mask_005.jpg,,,,,,,,,,,,,,,,,,,,,,,,,,,,,,,,,,,,,,,,,,,,,,,,0,3,3,4,1,,,,,,,,,,,,,,,,,,,,,,,,,,,,,,,,,,,,,,,,,
088354,001,2022-11-21_00h53.48.843,Info_measure_main_exp,2022.2.2,Win32,144.092219,,,,,,,,,,,,,,,,,,masks/mask_004.jpg,,,,,,,,,,,,,,,,,,,,,,,,,,,,,,,,,,,,,,,,,,,,,,,,0,4,4,3,1,,,,,,,,,,,,,,,,,,,,,,,,,,,,,,,,,,,,,,,,,
088354,001,2022-11-21_00h53.48.843,Info_measure_main_exp,2022.2.2,Win32,144.092219,,,,,,,,,,,,,,,,,,,,,,,,,,,,,,2,1.652,1,,,,,,,,,,,,0,131,5,5,1986,2154,absent_patch/patch0001986.jpg,absent_patch/patch0002154.jpg,,,,,,,,,,,,,,,,,,,,-0.122222222,-0.015740741,1,0,0,response5disk,3,0.005555556,0.002777778,1,0,0,center_square,0,2,2,36,1,,,,,,,,,,,,,,,,,,,,,,,
088354,001,2022-11-21_00h53.48.843,Info_measure_main_exp,2022.2.2,Win32,144.092219,,,,,,,,,,,,,,,,,,masks/mask_004.jpg,,,,,,,,,,,,,,,,,,,,,,,,,,,,,,,,,,,,,,,,,,,0,0,0,3,1,,,,,,,,,,,,,,,,,,,,,,,,,,,,,,,,,,,,,,,,,,,,,,
088354,001,2022-11-21_00h53.48.843,Info_measure_main_exp,2022.2.2,Win32,144.092219,,,,,,,,,,,,,,,,,,masks/mask_001.jpg,,,,,,,,,,,,,,,,,,,,,,,,,,,,,,,,,,,,,,,,,,,0,1,1,0,1,,,,,,,,,,,,,,,,,,,,,,,,,,,,,,,,,,,,,,,,,,,,,,
088354,001,2022-11-21_00h53.48.843,Info_measure_main_exp,2022.2.2,Win32,144.092219,,,,,,,,,,,,,,,,,,masks/mask_002.jpg,,,,,,,,,,,,,,,,,,,,,,,,,,,,,,,,,,,,,,,,,,,0,2,2,1,1,,,,,,,,,,,,,,,,,,,,,,,,,,,,,,,,,,,,,,,,,,,,,,
088354,001,2022-11-21_00h53.48.843,Info_measure_main_exp,2022.2.2,Win32,144.092219,,,,,,,,,,,,,,,,,,masks/mask_003.jpg,,,,,,,,,,,,,,,,,,,,,,,,,,,,,,,,,,,,,,,,,,,0,3,3,2,1,,,,,,,,,,,,,,,,,,,,,,,,,,,,,,,,,,,,,,,,,,,,,,
088354,001,2022-11-21_00h53.48.843,Info_measure_main_exp,2022.2.2,Win32,144.092219,,,,,,,,,,,,,,,,,,masks/mask_005.jpg,,,,,,,,,,,,,,,,,,,,,,,,,,,,,,,,,,,,,,,,,,,0,4,4,4,1,,,,,,,,,,,,,,,,,,,,,,,,,,,,,,,,,,,,,,,,,,,,,,
088354,001,2022-11-21_00h53.48.843,Info_measure_main_exp,2022.2.2,Win32,144.092219,,,,,,,,,,,,,,,,,,masks/mask_003.jpg,,,,,,,,,,,,,,,,,,,,,,,,,,,,,,,,,,,,,,,,,,,,,,,,0,0,0,2,1,,,,,,,,,,,,,,,,,,,,,,,,,,,,,,,,,,,,,,,,,
088354,001,2022-11-21_00h53.48.843,Info_measure_main_exp,2022.2.2,Win32,144.092219,,,,,,,,,,,,,,,,,,masks/mask_002.jpg,,,,,,,,,,,,,,,,,,,,,,,,,,,,,,,,,,,,,,,,,,,,,,,,0,1,1,1,1,,,,,,,,,,,,,,,,,,,,,,,,,,,,,,,,,,,,,,,,,
088354,001,2022-11-21_00h53.48.843,Info_measure_main_exp,2022.2.2,Win32,144.092219,,,,,,,,,,,,,,,,,,masks/mask_005.jpg,,,,,,,,,,,,,,,,,,,,,,,,,,,,,,,,,,,,,,,,,,,,,,,,0,2,2,4,1,,,,,,,,,,,,,,,,,,,,,,,,,,,,,,,,,,,,,,,,,
088354,001,2022-11-21_00h53.48.843,Info_measure_main_exp,2022.2.2,Win32,144.092219,,,,,,,,,,,,,,,,,,masks/mask_004.jpg,,,,,,,,,,,,,,,,,,,,,,,,,,,,,,,,,,,,,,,,,,,,,,,,0,3,3,3,1,,,,,,,,,,,,,,,,,,,,,,,,,,,,,,,,,,,,,,,,,
088354,001,2022-11-21_00h53.48.843,Info_measure_main_exp,2022.2.2,Win32,144.092219,,,,,,,,,,,,,,,,,,masks/mask_001.jpg,,,,,,,,,,,,,,,,,,,,,,,,,,,,,,,,,,,,,,,,,,,,,,,,0,4,4,0,1,,,,,,,,,,,,,,,,,,,,,,,,,,,,,,,,,,,,,,,,,
088354,001,2022-11-21_00h53.48.843,Info_measure_main_exp,2022.2.2,Win32,144.092219,,,,,,,,,,,,,,,,,,,,,,,,,,,,,,7,0.666,1,,,,,,,,,,,,1,131,5,5,1950,1,absent_patch/patch0001950.jpg,present_patch/cong_131_5_a.jpg,,,,,,,,,,,,,,,,,,,,0.048148148,0.164814815,1,0,0,response1disk,4,0.003703704,-0.003703704,1,0,0,center_square,0,3,3,39,1,,,,,,,,,,,,,,,,,,,,,,,
088354,001,2022-11-21_00h53.48.843,Info_measure_main_exp,2022.2.2,Win32,144.092219,,,,,,,,,,,,,,,,,,masks/mask_002.jpg,,,,,,,,,,,,,,,,,,,,,,,,,,,,,,,,,,,,,,,,,,,0,0,0,1,1,,,,,,,,,,,,,,,,,,,,,,,,,,,,,,,,,,,,,,,,,,,,,,
088354,001,2022-11-21_00h53.48.843,Info_measure_main_exp,2022.2.2,Win32,144.092219,,,,,,,,,,,,,,,,,,masks/mask_004.jpg,,,,,,,,,,,,,,,,,,,,,,,,,,,,,,,,,,,,,,,,,,,0,1,1,3,1,,,,,,,,,,,,,,,,,,,,,,,,,,,,,,,,,,,,,,,,,,,,,,
088354,001,2022-11-21_00h53.48.843,Info_measure_main_exp,2022.2.2,Win32,144.092219,,,,,,,,,,,,,,,,,,masks/mask_001.jpg,,,,,,,,,,,,,,,,,,,,,,,,,,,,,,,,,,,,,,,,,,,0,2,2,0,1,,,,,,,,,,,,,,,,,,,,,,,,,,,,,,,,,,,,,,,,,,,,,,
088354,001,2022-11-21_00h53.48.843,Info_measure_main_exp,2022.2.2,Win32,144.092219,,,,,,,,,,,,,,,,,,masks/mask_003.jpg,,,,,,,,,,,,,,,,,,,,,,,,,,,,,,,,,,,,,,,,,,,0,3,3,2,1,,,,,,,,,,,,,,,,,,,,,,,,,,,,,,,,,,,,,,,,,,,,,,
088354,001,2022-11-21_00h53.48.843,Info_measure_main_exp,2022.2.2,Win32,144.092219,,,,,,,,,,,,,,,,,,masks/mask_005.jpg,,,,,,,,,,,,,,,,,,,,,,,,,,,,,,,,,,,,,,,,,,,0,4,4,4,1,,,,,,,,,,,,,,,,,,,,,,,,,,,,,,,,,,,,,,,,,,,,,,
088354,001,2022-11-21_00h53.48.843,Info_measure_main_exp,2022.2.2,Win32,144.092219,,,,,,,,,,,,,,,,,,masks/mask_005.jpg,,,,,,,,,,,,,,,,,,,,,,,,,,,,,,,,,,,,,,,,,,,,,,,,0,0,0,4,1,,,,,,,,,,,,,,,,,,,,,,,,,,,,,,,,,,,,,,,,,
088354,001,2022-11-21_00h53.48.843,Info_measure_main_exp,2022.2.2,Win32,144.092219,,,,,,,,,,,,,,,,,,masks/mask_001.jpg,,,,,,,,,,,,,,,,,,,,,,,,,,,,,,,,,,,,,,,,,,,,,,,,0,1,1,0,1,,,,,,,,,,,,,,,,,,,,,,,,,,,,,,,,,,,,,,,,,
088354,001,2022-11-21_00h53.48.843,Info_measure_main_exp,2022.2.2,Win32,144.092219,,,,,,,,,,,,,,,,,,masks/mask_004.jpg,,,,,,,,,,,,,,,,,,,,,,,,,,,,,,,,,,,,,,,,,,,,,,,,0,2,2,3,1,,,,,,,,,,,,,,,,,,,,,,,,,,,,,,,,,,,,,,,,,
088354,001,2022-11-21_00h53.48.843,Info_measure_main_exp,2022.2.2,Win32,144.092219,,,,,,,,,,,,,,,,,,masks/mask_003.jpg,,,,,,,,,,,,,,,,,,,,,,,,,,,,,,,,,,,,,,,,,,,,,,,,0,3,3,2,1,,,,,,,,,,,,,,,,,,,,,,,,,,,,,,,,,,,,,,,,,
088354,001,2022-11-21_00h53.48.843,Info_measure_main_exp,2022.2.2,Win32,144.092219,,,,,,,,,,,,,,,,,,masks/mask_002.jpg,,,,,,,,,,,,,,,,,,,,,,,,,,,,,,,,,,,,,,,,,,,,,,,,0,4,4,1,1,,,,,,,,,,,,,,,,,,,,,,,,,,,,,,,,,,,,,,,,,
088354,001,2022-11-21_00h53.48.843,Info_measure_main_exp,2022.2.2,Win32,144.092219,,,,,,,,,,,,,,,,,,,,,,,,,,,,,,7,0.514,1,,,,,,,,,,,,0,131,5,5,1950,2214,absent_patch/patch0001950.jpg,absent_patch/patch0002214.jpg,,,,,,,,,,,,,,,,,,,,0.064814815,0.164814815,1,0,0,response1disk,5,0.007407407,-0.002777778,1,0,0,center_square,0,4,4,85,1,,,,,,,,,,,,,,,,,,,,,,,
088354,001,2022-11-21_00h53.48.843,Info_measure_main_exp,2022.2.2,Win32,144.092219,,,,,,,,,,,,,,,,,,masks/mask_002.jpg,,,,,,,,,,,,,,,,,,,,,,,,,,,,,,,,,,,,,,,,,,,0,0,0,1,1,,,,,,,,,,,,,,,,,,,,,,,,,,,,,,,,,,,,,,,,,,,,,,
088354,001,2022-11-21_00h53.48.843,Info_measure_main_exp,2022.2.2,Win32,144.092219,,,,,,,,,,,,,,,,,,masks/mask_004.jpg,,,,,,,,,,,,,,,,,,,,,,,,,,,,,,,,,,,,,,,,,,,0,1,1,3,1,,,,,,,,,,,,,,,,,,,,,,,,,,,,,,,,,,,,,,,,,,,,,,
088354,001,2022-11-21_00h53.48.843,Info_measure_main_exp,2022.2.2,Win32,144.092219,,,,,,,,,,,,,,,,,,masks/mask_003.jpg,,,,,,,,,,,,,,,,,,,,,,,,,,,,,,,,,,,,,,,,,,,0,2,2,2,1,,,,,,,,,,,,,,,,,,,,,,,,,,,,,,,,,,,,,,,,,,,,,,
088354,001,2022-11-21_00h53.48.843,Info_measure_main_exp,2022.2.2,Win32,144.092219,,,,,,,,,,,,,,,,,,masks/mask_005.jpg,,,,,,,,,,,,,,,,,,,,,,,,,,,,,,,,,,,,,,,,,,,0,3,3,4,1,,,,,,,,,,,,,,,,,,,,,,,,,,,,,,,,,,,,,,,,,,,,,,
088354,001,2022-11-21_00h53.48.843,Info_measure_main_exp,2022.2.2,Win32,144.092219,,,,,,,,,,,,,,,,,,masks/mask_001.jpg,,,,,,,,,,,,,,,,,,,,,,,,,,,,,,,,,,,,,,,,,,,0,4,4,0,1,,,,,,,,,,,,,,,,,,,,,,,,,,,,,,,,,,,,,,,,,,,,,,
088354,001,2022-11-21_00h53.48.843,Info_measure_main_exp,2022.2.2,Win32,144.092219,,,,,,,,,,,,,,,,,,masks/mask_001.jpg,,,,,,,,,,,,,,,,,,,,,,,,,,,,,,,,,,,,,,,,,,,,,,,,0,0,0,0,1,,,,,,,,,,,,,,,,,,,,,,,,,,,,,,,,,,,,,,,,,
088354,001,2022-11-21_00h53.48.843,Info_measure_main_exp,2022.2.2,Win32,144.092219,,,,,,,,,,,,,,,,,,masks/mask_005.jpg,,,,,,,,,,,,,,,,,,,,,,,,,,,,,,,,,,,,,,,,,,,,,,,,0,1,1,4,1,,,,,,,,,,,,,,,,,,,,,,,,,,,,,,,,,,,,,,,,,
088354,001,2022-11-21_00h53.48.843,Info_measure_main_exp,2022.2.2,Win32,144.092219,,,,,,,,,,,,,,,,,,masks/mask_004.jpg,,,,,,,,,,,,,,,,,,,,,,,,,,,,,,,,,,,,,,,,,,,,,,,,0,2,2,3,1,,,,,,,,,,,,,,,,,,,,,,,,,,,,,,,,,,,,,,,,,
088354,001,2022-11-21_00h53.48.843,Info_measure_main_exp,2022.2.2,Win32,144.092219,,,,,,,,,,,,,,,,,,masks/mask_003.jpg,,,,,,,,,,,,,,,,,,,,,,,,,,,,,,,,,,,,,,,,,,,,,,,,0,3,3,2,1,,,,,,,,,,,,,,,,,,,,,,,,,,,,,,,,,,,,,,,,,
088354,001,2022-11-21_00h53.48.843,Info_measure_main_exp,2022.2.2,Win32,144.092219,,,,,,,,,,,,,,,,,,masks/mask_002.jpg,,,,,,,,,,,,,,,,,,,,,,,,,,,,,,,,,,,,,,,,,,,,,,,,0,4,4,1,1,,,,,,,,,,,,,,,,,,,,,,,,,,,,,,,,,,,,,,,,,
088354,001,2022-11-21_00h53.48.843,Info_measure_main_exp,2022.2.2,Win32,144.092219,,,,,,,,,,,,,,,,,,,,,,,,,,,,,,0,0.729,1,,,,,,,,,,,,0,131,5,5,2166,2166,absent_patch/patch0002166.jpg,absent_patch/patch0002166.jpg,,,,,,,,,,,,,,,,,,,,-0.060185185,0.15,1,0,0,response7disk,6,0.011111111,-0.002777778,1,0,0,center_square,0,5,5,42,1,,,,,,,,,,,,,,,,,,,,,,,
088354,001,2022-11-21_00h53.48.843,Info_measure_main_exp,2022.2.2,Win32,144.092219,,,,,,,,,,,,,,,,,,masks/mask_004.jpg,,,,,,,,,,,,,,,,,,,,,,,,,,,,,,,,,,,,,,,,,,,0,0,0,3,1,,,,,,,,,,,,,,,,,,,,,,,,,,,,,,,,,,,,,,,,,,,,,,
088354,001,2022-11-21_00h53.48.843,Info_measure_main_exp,2022.2.2,Win32,144.092219,,,,,,,,,,,,,,,,,,masks/mask_001.jpg,,,,,,,,,,,,,,,,,,,,,,,,,,,,,,,,,,,,,,,,,,,0,1,1,0,1,,,,,,,,,,,,,,,,,,,,,,,,,,,,,,,,,,,,,,,,,,,,,,
088354,001,2022-11-21_00h53.48.843,Info_measure_main_exp,2022.2.2,Win32,144.092219,,,,,,,,,,,,,,,,,,masks/mask_003.jpg,,,,,,,,,,,,,,,,,,,,,,,,,,,,,,,,,,,,,,,,,,,0,2,2,2,1,,,,,,,,,,,,,,,,,,,,,,,,,,,,,,,,,,,,,,,,,,,,,,
088354,001,2022-11-21_00h53.48.843,Info_measure_main_exp,2022.2.2,Win32,144.092219,,,,,,,,,,,,,,,,,,masks/mask_002.jpg,,,,,,,,,,,,,,,,,,,,,,,,,,,,,,,,,,,,,,,,,,,0,3,3,1,1,,,,,,,,,,,,,,,,,,,,,,,,,,,,,,,,,,,,,,,,,,,,,,
088354,001,2022-11-21_00h53.48.843,Info_measure_main_exp,2022.2.2,Win32,144.092219,,,,,,,,,,,,,,,,,,masks/mask_005.jpg,,,,,,,,,,,,,,,,,,,,,,,,,,,,,,,,,,,,,,,,,,,0,4,4,4,1,,,,,,,,,,,,,,,,,,,,,,,,,,,,,,,,,,,,,,,,,,,,,,
088354,001,2022-11-21_00h53.48.843,Info_measure_main_exp,2022.2.2,Win32,144.092219,,,,,,,,,,,,,,,,,,masks/mask_001.jpg,,,,,,,,,,,,,,,,,,,,,,,,,,,,,,,,,,,,,,,,,,,,,,,,0,0,0,0,1,,,,,,,,,,,,,,,,,,,,,,,,,,,,,,,,,,,,,,,,,
088354,001,2022-11-21_00h53.48.843,Info_measure_main_exp,2022.2.2,Win32,144.092219,,,,,,,,,,,,,,,,,,masks/mask_005.jpg,,,,,,,,,,,,,,,,,,,,,,,,,,,,,,,,,,,,,,,,,,,,,,,,0,1,1,4,1,,,,,,,,,,,,,,,,,,,,,,,,,,,,,,,,,,,,,,,,,
088354,001,2022-11-21_00h53.48.843,Info_measure_main_exp,2022.2.2,Win32,144.092219,,,,,,,,,,,,,,,,,,masks/mask_003.jpg,,,,,,,,,,,,,,,,,,,,,,,,,,,,,,,,,,,,,,,,,,,,,,,,0,2,2,2,1,,,,,,,,,,,,,,,,,,,,,,,,,,,,,,,,,,,,,,,,,
088354,001,2022-11-21_00h53.48.843,Info_measure_main_exp,2022.2.2,Win32,144.092219,,,,,,,,,,,,,,,,,,masks/mask_004.jpg,,,,,,,,,,,,,,,,,,,,,,,,,,,,,,,,,,,,,,,,,,,,,,,,0,3,3,3,1,,,,,,,,,,,,,,,,,,,,,,,,,,,,,,,,,,,,,,,,,
088354,001,2022-11-21_00h53.48.843,Info_measure_main_exp,2022.2.2,Win32,144.092219,,,,,,,,,,,,,,,,,,masks/mask_002.jpg,,,,,,,,,,,,,,,,,,,,,,,,,,,,,,,,,,,,,,,,,,,,,,,,0,4,4,1,1,,,,,,,,,,,,,,,,,,,,,,,,,,,,,,,,,,,,,,,,,
088354,001,2022-11-21_00h53.48.843,Info_measure_main_exp,2022.2.2,Win32,144.092219,,,,,,,,,,,,,,,,,,,,,,,,,,,,,,7,0.584,1,,,,,,,,,,,,0,131,5,5,2214,1986,absent_patch/patch0002214.jpg,absent_patch/patch0001986.jpg,,,,,,,,,,,,,,,,,,,,0.059259259,0.158333333,1,0,0,response1disk,7,0.006481481,0.003703704,1,0,0,center_square,0,6,6,34,1,,,,,,,,,,,,,,,,,,,,,,,
088354,001,2022-11-21_00h53.48.843,Info_measure_main_exp,2022.2.2,Win32,144.092219,,,,,,,,,,,,,,,,,,masks/mask_004.jpg,,,,,,,,,,,,,,,,,,,,,,,,,,,,,,,,,,,,,,,,,,,0,0,0,3,1,,,,,,,,,,,,,,,,,,,,,,,,,,,,,,,,,,,,,,,,,,,,,,
088354,001,2022-11-21_00h53.48.843,Info_measure_main_exp,2022.2.2,Win32,144.092219,,,,,,,,,,,,,,,,,,masks/mask_001.jpg,,,,,,,,,,,,,,,,,,,,,,,,,,,,,,,,,,,,,,,,,,,0,1,1,0,1,,,,,,,,,,,,,,,,,,,,,,,,,,,,,,,,,,,,,,,,,,,,,,
088354,001,2022-11-21_00h53.48.843,Info_measure_main_exp,2022.2.2,Win32,144.092219,,,,,,,,,,,,,,,,,,masks/mask_003.jpg,,,,,,,,,,,,,,,,,,,,,,,,,,,,,,,,,,,,,,,,,,,0,2,2,2,1,,,,,,,,,,,,,,,,,,,,,,,,,,,,,,,,,,,,,,,,,,,,,,
088354,001,2022-11-21_00h53.48.843,Info_measure_main_exp,2022.2.2,Win32,144.092219,,,,,,,,,,,,,,,,,,masks/mask_002.jpg,,,,,,,,,,,,,,,,,,,,,,,,,,,,,,,,,,,,,,,,,,,0,3,3,1,1,,,,,,,,,,,,,,,,,,,,,,,,,,,,,,,,,,,,,,,,,,,,,,
088354,001,2022-11-21_00h53.48.843,Info_measure_main_exp,2022.2.2,Win32,144.092219,,,,,,,,,,,,,,,,,,masks/mask_005.jpg,,,,,,,,,,,,,,,,,,,,,,,,,,,,,,,,,,,,,,,,,,,0,4,4,4,1,,,,,,,,,,,,,,,,,,,,,,,,,,,,,,,,,,,,,,,,,,,,,,
088354,001,2022-11-21_00h53.48.843,Info_measure_main_exp,2022.2.2,Win32,144.092219,,,,,,,,,,,,,,,,,,masks/mask_004.jpg,,,,,,,,,,,,,,,,,,,,,,,,,,,,,,,,,,,,,,,,,,,,,,,,0,0,0,3,1,,,,,,,,,,,,,,,,,,,,,,,,,,,,,,,,,,,,,,,,,
088354,001,2022-11-21_00h53.48.843,Info_measure_main_exp,2022.2.2,Win32,144.092219,,,,,,,,,,,,,,,,,,masks/mask_001.jpg,,,,,,,,,,,,,,,,,,,,,,,,,,,,,,,,,,,,,,,,,,,,,,,,0,1,1,0,1,,,,,,,,,,,,,,,,,,,,,,,,,,,,,,,,,,,,,,,,,
088354,001,2022-11-21_00h53.48.843,Info_measure_main_exp,2022.2.2,Win32,144.092219,,,,,,,,,,,,,,,,,,masks/mask_005.jpg,,,,,,,,,,,,,,,,,,,,,,,,,,,,,,,,,,,,,,,,,,,,,,,,0,2,2,4,1,,,,,,,,,,,,,,,,,,,,,,,,,,,,,,,,,,,,,,,,,
088354,001,2022-11-21_00h53.48.843,Info_measure_main_exp,2022.2.2,Win32,144.092219,,,,,,,,,,,,,,,,,,masks/mask_002.jpg,,,,,,,,,,,,,,,,,,,,,,,,,,,,,,,,,,,,,,,,,,,,,,,,0,3,3,1,1,,,,,,,,,,,,,,,,,,,,,,,,,,,,,,,,,,,,,,,,,
088354,001,2022-11-21_00h53.48.843,Info_measure_main_exp,2022.2.2,Win32,144.092219,,,,,,,,,,,,,,,,,,masks/mask_003.jpg,,,,,,,,,,,,,,,,,,,,,,,,,,,,,,,,,,,,,,,,,,,,,,,,0,4,4,2,1,,,,,,,,,,,,,,,,,,,,,,,,,,,,,,,,,,,,,,,,,
088354,001,2022-11-21_00h53.48.843,Info_measure_main_exp,2022.2.2,Win32,144.092219,,,,,,,,,,,,,,,,,,,,,,,,,,,,,,0,0.611,1,,,,,,,,,,,,0,131,5,5,2214,2214,absent_patch/patch0002214.jpg,absent_patch/patch0002214.jpg,,,,,,,,,,,,,,,,,,,,-0.075925926,0.172222222,1,0,0,response7disk,8,0.008333333,0.006481481,1,0,0,center_square,0,7,7,115,1,,,,,,,,,,,,,,,,,,,,,,,
088354,001,2022-11-21_00h53.48.843,Info_measure_main_exp,2022.2.2,Win32,144.092219,,,,,,,,,,,,,,,,,,masks/mask_004.jpg,,,,,,,,,,,,,,,,,,,,,,,,,,,,,,,,,,,,,,,,,,,0,0,0,3,1,,,,,,,,,,,,,,,,,,,,,,,,,,,,,,,,,,,,,,,,,,,,,,
088354,001,2022-11-21_00h53.48.843,Info_measure_main_exp,2022.2.2,Win32,144.092219,,,,,,,,,,,,,,,,,,masks/mask_001.jpg,,,,,,,,,,,,,,,,,,,,,,,,,,,,,,,,,,,,,,,,,,,0,1,1,0,1,,,,,,,,,,,,,,,,,,,,,,,,,,,,,,,,,,,,,,,,,,,,,,
088354,001,2022-11-21_00h53.48.843,Info_measure_main_exp,2022.2.2,Win32,144.092219,,,,,,,,,,,,,,,,,,masks/mask_003.jpg,,,,,,,,,,,,,,,,,,,,,,,,,,,,,,,,,,,,,,,,,,,0,2,2,2,1,,,,,,,,,,,,,,,,,,,,,,,,,,,,,,,,,,,,,,,,,,,,,,
088354,001,2022-11-21_00h53.48.843,Info_measure_main_exp,2022.2.2,Win32,144.092219,,,,,,,,,,,,,,,,,,masks/mask_005.jpg,,,,,,,,,,,,,,,,,,,,,,,,,,,,,,,,,,,,,,,,,,,0,3,3,4,1,,,,,,,,,,,,,,,,,,,,,,,,,,,,,,,,,,,,,,,,,,,,,,
088354,001,2022-11-21_00h53.48.843,Info_measure_main_exp,2022.2.2,Win32,144.092219,,,,,,,,,,,,,,,,,,masks/mask_002.jpg,,,,,,,,,,,,,,,,,,,,,,,,,,,,,,,,,,,,,,,,,,,0,4,4,1,1,,,,,,,,,,,,,,,,,,,,,,,,,,,,,,,,,,,,,,,,,,,,,,
088354,001,2022-11-21_00h53.48.843,Info_measure_main_exp,2022.2.2,Win32,144.092219,,,,,,,,,,,,,,,,,,masks/mask_001.jpg,,,,,,,,,,,,,,,,,,,,,,,,,,,,,,,,,,,,,,,,,,,,,,,,0,0,0,0,1,,,,,,,,,,,,,,,,,,,,,,,,,,,,,,,,,,,,,,,,,
088354,001,2022-11-21_00h53.48.843,Info_measure_main_exp,2022.2.2,Win32,144.092219,,,,,,,,,,,,,,,,,,masks/mask_003.jpg,,,,,,,,,,,,,,,,,,,,,,,,,,,,,,,,,,,,,,,,,,,,,,,,0,1,1,2,1,,,,,,,,,,,,,,,,,,,,,,,,,,,,,,,,,,,,,,,,,
088354,001,2022-11-21_00h53.48.843,Info_measure_main_exp,2022.2.2,Win32,144.092219,,,,,,,,,,,,,,,,,,masks/mask_005.jpg,,,,,,,,,,,,,,,,,,,,,,,,,,,,,,,,,,,,,,,,,,,,,,,,0,2,2,4,1,,,,,,,,,,,,,,,,,,,,,,,,,,,,,,,,,,,,,,,,,
088354,001,2022-11-21_00h53.48.843,Info_measure_main_exp,2022.2.2,Win32,144.092219,,,,,,,,,,,,,,,,,,masks/mask_002.jpg,,,,,,,,,,,,,,,,,,,,,,,,,,,,,,,,,,,,,,,,,,,,,,,,0,3,3,1,1,,,,,,,,,,,,,,,,,,,,,,,,,,,,,,,,,,,,,,,,,
088354,001,2022-11-21_00h53.48.843,Info_measure_main_exp,2022.2.2,Win32,144.092219,,,,,,,,,,,,,,,,,,masks/mask_004.jpg,,,,,,,,,,,,,,,,,,,,,,,,,,,,,,,,,,,,,,,,,,,,,,,,0,4,4,3,1,,,,,,,,,,,,,,,,,,,,,,,,,,,,,,,,,,,,,,,,,
088354,001,2022-11-21_00h53.48.843,Info_measure_main_exp,2022.2.2,Win32,144.092219,,,,,,,,,,,,,,,,,,,,,,,,,,,,,,7,0.874,1,,,,,,,,,,,,0,131,5,5,2190,2178,absent_patch/patch0002190.jpg,absent_patch/patch0002178.jpg,,,,,,,,,,,,,,,,,,,,0.037037037,0.169444444,1,0,0,response1disk,9,-0.001851852,-0.003703704,1,0,0,center_square,0,8,8,14,1,,,,,,,,,,,,,,,,,,,,,,,
088354,001,2022-11-21_00h53.48.843,Info_measure_main_exp,2022.2.2,Win32,144.092219,,,,,,,,,,,,,,,,,,masks/mask_005.jpg,,,,,,,,,,,,,,,,,,,,,,,,,,,,,,,,,,,,,,,,,,,0,0,0,4,1,,,,,,,,,,,,,,,,,,,,,,,,,,,,,,,,,,,,,,,,,,,,,,
088354,001,2022-11-21_00h53.48.843,Info_measure_main_exp,2022.2.2,Win32,144.092219,,,,,,,,,,,,,,,,,,masks/mask_003.jpg,,,,,,,,,,,,,,,,,,,,,,,,,,,,,,,,,,,,,,,,,,,0,1,1,2,1,,,,,,,,,,,,,,,,,,,,,,,,,,,,,,,,,,,,,,,,,,,,,,
088354,001,2022-11-21_00h53.48.843,Info_measure_main_exp,2022.2.2,Win32,144.092219,,,,,,,,,,,,,,,,,,masks/mask_002.jpg,,,,,,,,,,,,,,,,,,,,,,,,,,,,,,,,,,,,,,,,,,,0,2,2,1,1,,,,,,,,,,,,,,,,,,,,,,,,,,,,,,,,,,,,,,,,,,,,,,
088354,001,2022-11-21_00h53.48.843,Info_measure_main_exp,2022.2.2,Win32,144.092219,,,,,,,,,,,,,,,,,,masks/mask_001.jpg,,,,,,,,,,,,,,,,,,,,,,,,,,,,,,,,,,,,,,,,,,,0,3,3,0,1,,,,,,,,,,,,,,,,,,,,,,,,,,,,,,,,,,,,,,,,,,,,,,
088354,001,2022-11-21_00h53.48.843,Info_measure_main_exp,2022.2.2,Win32,144.092219,,,,,,,,,,,,,,,,,,masks/mask_004.jpg,,,,,,,,,,,,,,,,,,,,,,,,,,,,,,,,,,,,,,,,,,,0,4,4,3,1,,,,,,,,,,,,,,,,,,,,,,,,,,,,,,,,,,,,,,,,,,,,,,
088354,001,2022-11-21_00h53.48.843,Info_measure_main_exp,2022.2.2,Win32,144.092219,,,,,,,,,,,,,,,,,,masks/mask_005.jpg,,,,,,,,,,,,,,,,,,,,,,,,,,,,,,,,,,,,,,,,,,,,,,,,0,0,0,4,1,,,,,,,,,,,,,,,,,,,,,,,,,,,,,,,,,,,,,,,,,
088354,001,2022-11-21_00h53.48.843,Info_measure_main_exp,2022.2.2,Win32,144.092219,,,,,,,,,,,,,,,,,,masks/mask_002.jpg,,,,,,,,,,,,,,,,,,,,,,,,,,,,,,,,,,,,,,,,,,,,,,,,0,1,1,1,1,,,,,,,,,,,,,,,,,,,,,,,,,,,,,,,,,,,,,,,,,
088354,001,2022-11-21_00h53.48.843,Info_measure_main_exp,2022.2.2,Win32,144.092219,,,,,,,,,,,,,,,,,,masks/mask_003.jpg,,,,,,,,,,,,,,,,,,,,,,,,,,,,,,,,,,,,,,,,,,,,,,,,0,2,2,2,1,,,,,,,,,,,,,,,,,,,,,,,,,,,,,,,,,,,,,,,,,
088354,001,2022-11-21_00h53.48.843,Info_measure_main_exp,2022.2.2,Win32,144.092219,,,,,,,,,,,,,,,,,,masks/mask_001.jpg,,,,,,,,,,,,,,,,,,,,,,,,,,,,,,,,,,,,,,,,,,,,,,,,0,3,3,0,1,,,,,,,,,,,,,,,,,,,,,,,,,,,,,,,,,,,,,,,,,
088354,001,2022-11-21_00h53.48.843,Info_measure_main_exp,2022.2.2,Win32,144.092219,,,,,,,,,,,,,,,,,,masks/mask_004.jpg,,,,,,,,,,,,,,,,,,,,,,,,,,,,,,,,,,,,,,,,,,,,,,,,0,4,4,3,1,,,,,,,,,,,,,,,,,,,,,,,,,,,,,,,,,,,,,,,,,
088354,001,2022-11-21_00h53.48.843,Info_measure_main_exp,2022.2.2,Win32,144.092219,,,,,,,,,,,,,,,,,,,,,,,,,,,,,,7,0.603,1,,,,,,,,,,,,0,131,5,5,1950,2238,absent_patch/patch0001950.jpg,absent_patch/patch0002238.jpg,,,,,,,,,,,,,,,,,,,,0.032407407,0.164814815,1,0,0,response1disk,10,0,0.012037037,1,0,0,center_square,0,9,9,8,1,,,,,,,,,,,,,,,,,,,,,,,
088354,001,2022-11-21_00h53.48.843,Info_measure_main_exp,2022.2.2,Win32,144.092219,,,,,,,,,,,,,,,,,,masks/mask_001.jpg,,,,,,,,,,,,,,,,,,,,,,,,,,,,,,,,,,,,,,,,,,,0,0,0,0,1,,,,,,,,,,,,,,,,,,,,,,,,,,,,,,,,,,,,,,,,,,,,,,
088354,001,2022-11-21_00h53.48.843,Info_measure_main_exp,2022.2.2,Win32,144.092219,,,,,,,,,,,,,,,,,,masks/mask_004.jpg,,,,,,,,,,,,,,,,,,,,,,,,,,,,,,,,,,,,,,,,,,,0,1,1,3,1,,,,,,,,,,,,,,,,,,,,,,,,,,,,,,,,,,,,,,,,,,,,,,
088354,001,2022-11-21_00h53.48.843,Info_measure_main_exp,2022.2.2,Win32,144.092219,,,,,,,,,,,,,,,,,,masks/mask_003.jpg,,,,,,,,,,,,,,,,,,,,,,,,,,,,,,,,,,,,,,,,,,,0,2,2,2,1,,,,,,,,,,,,,,,,,,,,,,,,,,,,,,,,,,,,,,,,,,,,,,
088354,001,2022-11-21_00h53.48.843,Info_measure_main_exp,2022.2.2,Win32,144.092219,,,,,,,,,,,,,,,,,,masks/mask_002.jpg,,,,,,,,,,,,,,,,,,,,,,,,,,,,,,,,,,,,,,,,,,,0,3,3,1,1,,,,,,,,,,,,,,,,,,,,,,,,,,,,,,,,,,,,,,,,,,,,,,
088354,001,2022-11-21_00h53.48.843,Info_measure_main_exp,2022.2.2,Win32,144.092219,,,,,,,,,,,,,,,,,,masks/mask_005.jpg,,,,,,,,,,,,,,,,,,,,,,,,,,,,,,,,,,,,,,,,,,,0,4,4,4,1,,,,,,,,,,,,,,,,,,,,,,,,,,,,,,,,,,,,,,,,,,,,,,
088354,001,2022-11-21_00h53.48.843,Info_measure_main_exp,2022.2.2,Win32,144.092219,,,,,,,,,,,,,,,,,,masks/mask_004.jpg,,,,,,,,,,,,,,,,,,,,,,,,,,,,,,,,,,,,,,,,,,,,,,,,0,0,0,3,1,,,,,,,,,,,,,,,,,,,,,,,,,,,,,,,,,,,,,,,,,
088354,001,2022-11-21_00h53.48.843,Info_measure_main_exp,2022.2.2,Win32,144.092219,,,,,,,,,,,,,,,,,,masks/mask_002.jpg,,,,,,,,,,,,,,,,,,,,,,,,,,,,,,,,,,,,,,,,,,,,,,,,0,1,1,1,1,,,,,,,,,,,,,,,,,,,,,,,,,,,,,,,,,,,,,,,,,
088354,001,2022-11-21_00h53.48.843,Info_measure_main_exp,2022.2.2,Win32,144.092219,,,,,,,,,,,,,,,,,,masks/mask_003.jpg,,,,,,,,,,,,,,,,,,,,,,,,,,,,,,,,,,,,,,,,,,,,,,,,0,2,2,2,1,,,,,,,,,,,,,,,,,,,,,,,,,,,,,,,,,,,,,,,,,
088354,001,2022-11-21_00h53.48.843,Info_measure_main_exp,2022.2.2,Win32,144.092219,,,,,,,,,,,,,,,,,,masks/mask_001.jpg,,,,,,,,,,,,,,,,,,,,,,,,,,,,,,,,,,,,,,,,,,,,,,,,0,3,3,0,1,,,,,,,,,,,,,,,,,,,,,,,,,,,,,,,,,,,,,,,,,
088354,001,2022-11-21_00h53.48.843,Info_measure_main_exp,2022.2.2,Win32,144.092219,,,,,,,,,,,,,,,,,,masks/mask_005.jpg,,,,,,,,,,,,,,,,,,,,,,,,,,,,,,,,,,,,,,,,,,,,,,,,0,4,4,4,1,,,,,,,,,,,,,,,,,,,,,,,,,,,,,,,,,,,,,,,,,
088354,001,2022-11-21_00h53.48.843,Info_measure_main_exp,2022.2.2,Win32,144.092219,,,,,,,,,,,,,,,,,,,,,,,,,,,,,,7,1.034,1,,,,,,,,,,,,0,131,5,5,1950,2298,absent_patch/patch0001950.jpg,absent_patch/patch0002298.jpg,,,,,,,,,,,,,,,,,,,,0.051851852,0.137037037,1,0,0,response1disk,11,0.009259259,0,1,0,0,center_square,0,10,10,18,1,,,,,,,,,,,,,,,,,,,,,,,
088354,001,2022-11-21_00h53.48.843,Info_measure_main_exp,2022.2.2,Win32,144.092219,,,,,,,,,,,,,,,,,,masks/mask_005.jpg,,,,,,,,,,,,,,,,,,,,,,,,,,,,,,,,,,,,,,,,,,,0,0,0,4,1,,,,,,,,,,,,,,,,,,,,,,,,,,,,,,,,,,,,,,,,,,,,,,
088354,001,2022-11-21_00h53.48.843,Info_measure_main_exp,2022.2.2,Win32,144.092219,,,,,,,,,,,,,,,,,,masks/mask_002.jpg,,,,,,,,,,,,,,,,,,,,,,,,,,,,,,,,,,,,,,,,,,,0,1,1,1,1,,,,,,,,,,,,,,,,,,,,,,,,,,,,,,,,,,,,,,,,,,,,,,
088354,001,2022-11-21_00h53.48.843,Info_measure_main_exp,2022.2.2,Win32,144.092219,,,,,,,,,,,,,,,,,,masks/mask_004.jpg,,,,,,,,,,,,,,,,,,,,,,,,,,,,,,,,,,,,,,,,,,,0,2,2,3,1,,,,,,,,,,,,,,,,,,,,,,,,,,,,,,,,,,,,,,,,,,,,,,
088354,001,2022-11-21_00h53.48.843,Info_measure_main_exp,2022.2.2,Win32,144.092219,,,,,,,,,,,,,,,,,,masks/mask_001.jpg,,,,,,,,,,,,,,,,,,,,,,,,,,,,,,,,,,,,,,,,,,,0,3,3,0,1,,,,,,,,,,,,,,,,,,,,,,,,,,,,,,,,,,,,,,,,,,,,,,
088354,001,2022-11-21_00h53.48.843,Info_measure_main_exp,2022.2.2,Win32,144.092219,,,,,,,,,,,,,,,,,,masks/mask_003.jpg,,,,,,,,,,,,,,,,,,,,,,,,,,,,,,,,,,,,,,,,,,,0,4,4,2,1,,,,,,,,,,,,,,,,,,,,,,,,,,,,,,,,,,,,,,,,,,,,,,
088354,001,2022-11-21_00h53.48.843,Info_measure_main_exp,2022.2.2,Win32,144.092219,,,,,,,,,,,,,,,,,,masks/mask_004.jpg,,,,,,,,,,,,,,,,,,,,,,,,,,,,,,,,,,,,,,,,,,,,,,,,0,0,0,3,1,,,,,,,,,,,,,,,,,,,,,,,,,,,,,,,,,,,,,,,,,
088354,001,2022-11-21_00h53.48.843,Info_measure_main_exp,2022.2.2,Win32,144.092219,,,,,,,,,,,,,,,,,,masks/mask_001.jpg,,,,,,,,,,,,,,,,,,,,,,,,,,,,,,,,,,,,,,,,,,,,,,,,0,1,1,0,1,,,,,,,,,,,,,,,,,,,,,,,,,,,,,,,,,,,,,,,,,
088354,001,2022-11-21_00h53.48.843,Info_measure_main_exp,2022.2.2,Win32,144.092219,,,,,,,,,,,,,,,,,,masks/mask_002.jpg,,,,,,,,,,,,,,,,,,,,,,,,,,,,,,,,,,,,,,,,,,,,,,,,0,2,2,1,1,,,,,,,,,,,,,,,,,,,,,,,,,,,,,,,,,,,,,,,,,
088354,001,2022-11-21_00h53.48.843,Info_measure_main_exp,2022.2.2,Win32,144.092219,,,,,,,,,,,,,,,,,,masks/mask_003.jpg,,,,,,,,,,,,,,,,,,,,,,,,,,,,,,,,,,,,,,,,,,,,,,,,0,3,3,2,1,,,,,,,,,,,,,,,,,,,,,,,,,,,,,,,,,,,,,,,,,
088354,001,2022-11-21_00h53.48.843,Info_measure_main_exp,2022.2.2,Win32,144.092219,,,,,,,,,,,,,,,,,,masks/mask_005.jpg,,,,,,,,,,,,,,,,,,,,,,,,,,,,,,,,,,,,,,,,,,,,,,,,0,4,4,4,1,,,,,,,,,,,,,,,,,,,,,,,,,,,,,,,,,,,,,,,,,
088354,001,2022-11-21_00h53.48.843,Info_measure_main_exp,2022.2.2,Win32,144.092219,,,,,,,,,,,,,,,,,,,,,,,,,,,,,,7,1.861,1,,,,,,,,,,,,0,131,5,5,1974,2178,absent_patch/patch0001974.jpg,absent_patch/patch0002178.jpg,,,,,,,,,,,,,,,,,,,,0.074074074,0.172222222,1,0,0,response1disk,12,0.001851852,0.000925926,1,0,0,center_square,0,11,11,44,1,,,,,,,,,,,,,,,,,,,,,,,
088354,001,2022-11-21_00h53.48.843,Info_measure_main_exp,2022.2.2,Win32,144.092219,,,,,,,,,,,,,,,,,,masks/mask_003.jpg,,,,,,,,,,,,,,,,,,,,,,,,,,,,,,,,,,,,,,,,,,,0,0,0,2,1,,,,,,,,,,,,,,,,,,,,,,,,,,,,,,,,,,,,,,,,,,,,,,
088354,001,2022-11-21_00h53.48.843,Info_measure_main_exp,2022.2.2,Win32,144.092219,,,,,,,,,,,,,,,,,,masks/mask_002.jpg,,,,,,,,,,,,,,,,,,,,,,,,,,,,,,,,,,,,,,,,,,,0,1,1,1,1,,,,,,,,,,,,,,,,,,,,,,,,,,,,,,,,,,,,,,,,,,,,,,
088354,001,2022-11-21_00h53.48.843,Info_measure_main_exp,2022.2.2,Win32,144.092219,,,,,,,,,,,,,,,,,,masks/mask_004.jpg,,,,,,,,,,,,,,,,,,,,,,,,,,,,,,,,,,,,,,,,,,,0,2,2,3,1,,,,,,,,,,,,,,,,,,,,,,,,,,,,,,,,,,,,,,,,,,,,,,
088354,001,2022-11-21_00h53.48.843,Info_measure_main_exp,2022.2.2,Win32,144.092219,,,,,,,,,,,,,,,,,,masks/mask_005.jpg,,,,,,,,,,,,,,,,,,,,,,,,,,,,,,,,,,,,,,,,,,,0,3,3,4,1,,,,,,,,,,,,,,,,,,,,,,,,,,,,,,,,,,,,,,,,,,,,,,
088354,001,2022-11-21_00h53.48.843,Info_measure_main_exp,2022.2.2,Win32,144.092219,,,,,,,,,,,,,,,,,,masks/mask_001.jpg,,,,,,,,,,,,,,,,,,,,,,,,,,,,,,,,,,,,,,,,,,,0,4,4,0,1,,,,,,,,,,,,,,,,,,,,,,,,,,,,,,,,,,,,,,,,,,,,,,
088354,001,2022-11-21_00h53.48.843,Info_measure_main_exp,2022.2.2,Win32,144.092219,,,,,,,,,,,,,,,,,,masks/mask_005.jpg,,,,,,,,,,,,,,,,,,,,,,,,,,,,,,,,,,,,,,,,,,,,,,,,0,0,0,4,1,,,,,,,,,,,,,,,,,,,,,,,,,,,,,,,,,,,,,,,,,
088354,001,2022-11-21_00h53.48.843,Info_measure_main_exp,2022.2.2,Win32,144.092219,,,,,,,,,,,,,,,,,,masks/mask_004.jpg,,,,,,,,,,,,,,,,,,,,,,,,,,,,,,,,,,,,,,,,,,,,,,,,0,1,1,3,1,,,,,,,,,,,,,,,,,,,,,,,,,,,,,,,,,,,,,,,,,
088354,001,2022-11-21_00h53.48.843,Info_measure_main_exp,2022.2.2,Win32,144.092219,,,,,,,,,,,,,,,,,,masks/mask_001.jpg,,,,,,,,,,,,,,,,,,,,,,,,,,,,,,,,,,,,,,,,,,,,,,,,0,2,2,0,1,,,,,,,,,,,,,,,,,,,,,,,,,,,,,,,,,,,,,,,,,
088354,001,2022-11-21_00h53.48.843,Info_measure_main_exp,2022.2.2,Win32,144.092219,,,,,,,,,,,,,,,,,,masks/mask_003.jpg,,,,,,,,,,,,,,,,,,,,,,,,,,,,,,,,,,,,,,,,,,,,,,,,0,3,3,2,1,,,,,,,,,,,,,,,,,,,,,,,,,,,,,,,,,,,,,,,,,
088354,001,2022-11-21_00h53.48.843,Info_measure_main_exp,2022.2.2,Win32,144.092219,,,,,,,,,,,,,,,,,,masks/mask_002.jpg,,,,,,,,,,,,,,,,,,,,,,,,,,,,,,,,,,,,,,,,,,,,,,,,0,4,4,1,1,,,,,,,,,,,,,,,,,,,,,,,,,,,,,,,,,,,,,,,,,
088354,001,2022-11-21_00h53.48.843,Info_measure_main_exp,2022.2.2,Win32,144.092219,,,,,,,,,,,,,,,,,,,,,,,,,,,,,,7,0.506,1,,,,,,,,,,,,0,131,5,5,1974,2166,absent_patch/patch0001974.jpg,absent_patch/patch0002166.jpg,,,,,,,,,,,,,,,,,,,,0.060185185,0.202777778,1,0,0,response1disk,13,-0.003703704,-0.00462963,1,0,0,center_square,0,12,12,77,1,,,,,,,,,,,,,,,,,,,,,,,
088354,001,2022-11-21_00h53.48.843,Info_measure_main_exp,2022.2.2,Win32,144.092219,,,,,,,,,,,,,,,,,,masks/mask_003.jpg,,,,,,,,,,,,,,,,,,,,,,,,,,,,,,,,,,,,,,,,,,,0,0,0,2,1,,,,,,,,,,,,,,,,,,,,,,,,,,,,,,,,,,,,,,,,,,,,,,
088354,001,2022-11-21_00h53.48.843,Info_measure_main_exp,2022.2.2,Win32,144.092219,,,,,,,,,,,,,,,,,,masks/mask_001.jpg,,,,,,,,,,,,,,,,,,,,,,,,,,,,,,,,,,,,,,,,,,,0,1,1,0,1,,,,,,,,,,,,,,,,,,,,,,,,,,,,,,,,,,,,,,,,,,,,,,
088354,001,2022-11-21_00h53.48.843,Info_measure_main_exp,2022.2.2,Win32,144.092219,,,,,,,,,,,,,,,,,,masks/mask_005.jpg,,,,,,,,,,,,,,,,,,,,,,,,,,,,,,,,,,,,,,,,,,,0,2,2,4,1,,,,,,,,,,,,,,,,,,,,,,,,,,,,,,,,,,,,,,,,,,,,,,
088354,001,2022-11-21_00h53.48.843,Info_measure_main_exp,2022.2.2,Win32,144.092219,,,,,,,,,,,,,,,,,,masks/mask_004.jpg,,,,,,,,,,,,,,,,,,,,,,,,,,,,,,,,,,,,,,,,,,,0,3,3,3,1,,,,,,,,,,,,,,,,,,,,,,,,,,,,,,,,,,,,,,,,,,,,,,
088354,001,2022-11-21_00h53.48.843,Info_measure_main_exp,2022.2.2,Win32,144.092219,,,,,,,,,,,,,,,,,,masks/mask_002.jpg,,,,,,,,,,,,,,,,,,,,,,,,,,,,,,,,,,,,,,,,,,,0,4,4,1,1,,,,,,,,,,,,,,,,,,,,,,,,,,,,,,,,,,,,,,,,,,,,,,
088354,001,2022-11-21_00h53.48.843,Info_measure_main_exp,2022.2.2,Win32,144.092219,,,,,,,,,,,,,,,,,,masks/mask_003.jpg,,,,,,,,,,,,,,,,,,,,,,,,,,,,,,,,,,,,,,,,,,,,,,,,0,0,0,2,1,,,,,,,,,,,,,,,,,,,,,,,,,,,,,,,,,,,,,,,,,
088354,001,2022-11-21_00h53.48.843,Info_measure_main_exp,2022.2.2,Win32,144.092219,,,,,,,,,,,,,,,,,,masks/mask_001.jpg,,,,,,,,,,,,,,,,,,,,,,,,,,,,,,,,,,,,,,,,,,,,,,,,0,1,1,0,1,,,,,,,,,,,,,,,,,,,,,,,,,,,,,,,,,,,,,,,,,
088354,001,2022-11-21_00h53.48.843,Info_measure_main_exp,2022.2.2,Win32,144.092219,,,,,,,,,,,,,,,,,,masks/mask_002.jpg,,,,,,,,,,,,,,,,,,,,,,,,,,,,,,,,,,,,,,,,,,,,,,,,0,2,2,1,1,,,,,,,,,,,,,,,,,,,,,,,,,,,,,,,,,,,,,,,,,
088354,001,2022-11-21_00h53.48.843,Info_measure_main_exp,2022.2.2,Win32,144.092219,,,,,,,,,,,,,,,,,,masks/mask_005.jpg,,,,,,,,,,,,,,,,,,,,,,,,,,,,,,,,,,,,,,,,,,,,,,,,0,3,3,4,1,,,,,,,,,,,,,,,,,,,,,,,,,,,,,,,,,,,,,,,,,
088354,001,2022-11-21_00h53.48.843,Info_measure_main_exp,2022.2.2,Win32,144.092219,,,,,,,,,,,,,,,,,,masks/mask_004.jpg,,,,,,,,,,,,,,,,,,,,,,,,,,,,,,,,,,,,,,,,,,,,,,,,0,4,4,3,1,,,,,,,,,,,,,,,,,,,,,,,,,,,,,,,,,,,,,,,,,
088354,001,2022-11-21_00h53.48.843,Info_measure_main_exp,2022.2.2,Win32,144.092219,,,,,,,,,,,,,,,,,,,,,,,,,,,,,,7,0.521,1,,,,,,,,,,,,0,131,5,5,1950,2166,absent_patch/patch0001950.jpg,absent_patch/patch0002166.jpg,,,,,,,,,,,,,,,,,,,,0.080555556,0.190740741,1,0,0,response1disk,14,-0.000925926,0.008333333,1,0,0,center_square,0,13,13,0,1,,,,,,,,,,,,,,,,,,,,,,,
088354,001,2022-11-21_00h53.48.843,Info_measure_main_exp,2022.2.2,Win32,144.092219,,,,,,,,,,,,,,,,,,masks/mask_003.jpg,,,,,,,,,,,,,,,,,,,,,,,,,,,,,,,,,,,,,,,,,,,0,0,0,2,1,,,,,,,,,,,,,,,,,,,,,,,,,,,,,,,,,,,,,,,,,,,,,,
088354,001,2022-11-21_00h53.48.843,Info_measure_main_exp,2022.2.2,Win32,144.092219,,,,,,,,,,,,,,,,,,masks/mask_001.jpg,,,,,,,,,,,,,,,,,,,,,,,,,,,,,,,,,,,,,,,,,,,0,1,1,0,1,,,,,,,,,,,,,,,,,,,,,,,,,,,,,,,,,,,,,,,,,,,,,,
088354,001,2022-11-21_00h53.48.843,Info_measure_main_exp,2022.2.2,Win32,144.092219,,,,,,,,,,,,,,,,,,masks/mask_002.jpg,,,,,,,,,,,,,,,,,,,,,,,,,,,,,,,,,,,,,,,,,,,0,2,2,1,1,,,,,,,,,,,,,,,,,,,,,,,,,,,,,,,,,,,,,,,,,,,,,,
088354,001,2022-11-21_00h53.48.843,Info_measure_main_exp,2022.2.2,Win32,144.092219,,,,,,,,,,,,,,,,,,masks/mask_005.jpg,,,,,,,,,,,,,,,,,,,,,,,,,,,,,,,,,,,,,,,,,,,0,3,3,4,1,,,,,,,,,,,,,,,,,,,,,,,,,,,,,,,,,,,,,,,,,,,,,,
088354,001,2022-11-21_00h53.48.843,Info_measure_main_exp,2022.2.2,Win32,144.092219,,,,,,,,,,,,,,,,,,masks/mask_004.jpg,,,,,,,,,,,,,,,,,,,,,,,,,,,,,,,,,,,,,,,,,,,0,4,4,3,1,,,,,,,,,,,,,,,,,,,,,,,,,,,,,,,,,,,,,,,,,,,,,,
088354,001,2022-11-21_00h53.48.843,Info_measure_main_exp,2022.2.2,Win32,144.092219,,,,,,,,,,,,,,,,,,masks/mask_004.jpg,,,,,,,,,,,,,,,,,,,,,,,,,,,,,,,,,,,,,,,,,,,,,,,,0,0,0,3,1,,,,,,,,,,,,,,,,,,,,,,,,,,,,,,,,,,,,,,,,,
088354,001,2022-11-21_00h53.48.843,Info_measure_main_exp,2022.2.2,Win32,144.092219,,,,,,,,,,,,,,,,,,masks/mask_003.jpg,,,,,,,,,,,,,,,,,,,,,,,,,,,,,,,,,,,,,,,,,,,,,,,,0,1,1,2,1,,,,,,,,,,,,,,,,,,,,,,,,,,,,,,,,,,,,,,,,,
088354,001,2022-11-21_00h53.48.843,Info_measure_main_exp,2022.2.2,Win32,144.092219,,,,,,,,,,,,,,,,,,masks/mask_005.jpg,,,,,,,,,,,,,,,,,,,,,,,,,,,,,,,,,,,,,,,,,,,,,,,,0,2,2,4,1,,,,,,,,,,,,,,,,,,,,,,,,,,,,,,,,,,,,,,,,,
088354,001,2022-11-21_00h53.48.843,Info_measure_main_exp,2022.2.2,Win32,144.092219,,,,,,,,,,,,,,,,,,masks/mask_002.jpg,,,,,,,,,,,,,,,,,,,,,,,,,,,,,,,,,,,,,,,,,,,,,,,,0,3,3,1,1,,,,,,,,,,,,,,,,,,,,,,,,,,,,,,,,,,,,,,,,,
088354,001,2022-11-21_00h53.48.843,Info_measure_main_exp,2022.2.2,Win32,144.092219,,,,,,,,,,,,,,,,,,masks/mask_001.jpg,,,,,,,,,,,,,,,,,,,,,,,,,,,,,,,,,,,,,,,,,,,,,,,,0,4,4,0,1,,,,,,,,,,,,,,,,,,,,,,,,,,,,,,,,,,,,,,,,,
088354,001,2022-11-21_00h53.48.843,Info_measure_main_exp,2022.2.2,Win32,144.092219,,,,,,,,,,,,,,,,,,,,,,,,,,,,,,7,1.779,1,,,,,,,,,,,,0,131,5,5,2238,2298,absent_patch/patch0002238.jpg,absent_patch/patch0002298.jpg,,,,,,,,,,,,,,,,,,,,0.066666667,0.140740741,1,0,0,response1disk,15,0.003703704,-0.006481481,1,0,0,center_square,0,14,14,51,1,,,,,,,,,,,,,,,,,,,,,,,
088354,001,2022-11-21_00h53.48.843,Info_measure_main_exp,2022.2.2,Win32,144.092219,,,,,,,,,,,,,,,,,,masks/mask_001.jpg,,,,,,,,,,,,,,,,,,,,,,,,,,,,,,,,,,,,,,,,,,,0,0,0,0,1,,,,,,,,,,,,,,,,,,,,,,,,,,,,,,,,,,,,,,,,,,,,,,
088354,001,2022-11-21_00h53.48.843,Info_measure_main_exp,2022.2.2,Win32,144.092219,,,,,,,,,,,,,,,,,,masks/mask_005.jpg,,,,,,,,,,,,,,,,,,,,,,,,,,,,,,,,,,,,,,,,,,,0,1,1,4,1,,,,,,,,,,,,,,,,,,,,,,,,,,,,,,,,,,,,,,,,,,,,,,
088354,001,2022-11-21_00h53.48.843,Info_measure_main_exp,2022.2.2,Win32,144.092219,,,,,,,,,,,,,,,,,,masks/mask_003.jpg,,,,,,,,,,,,,,,,,,,,,,,,,,,,,,,,,,,,,,,,,,,0,2,2,2,1,,,,,,,,,,,,,,,,,,,,,,,,,,,,,,,,,,,,,,,,,,,,,,
088354,001,2022-11-21_00h53.48.843,Info_measure_main_exp,2022.2.2,Win32,144.092219,,,,,,,,,,,,,,,,,,masks/mask_004.jpg,,,,,,,,,,,,,,,,,,,,,,,,,,,,,,,,,,,,,,,,,,,0,3,3,3,1,,,,,,,,,,,,,,,,,,,,,,,,,,,,,,,,,,,,,,,,,,,,,,
088354,001,2022-11-21_00h53.48.843,Info_measure_main_exp,2022.2.2,Win32,144.092219,,,,,,,,,,,,,,,,,,masks/mask_002.jpg,,,,,,,,,,,,,,,,,,,,,,,,,,,,,,,,,,,,,,,,,,,0,4,4,1,1,,,,,,,,,,,,,,,,,,,,,,,,,,,,,,,,,,,,,,,,,,,,,,
088354,001,2022-11-21_00h53.48.843,Info_measure_main_exp,2022.2.2,Win32,144.092219,,,,,,,,,,,,,,,,,,masks/mask_005.jpg,,,,,,,,,,,,,,,,,,,,,,,,,,,,,,,,,,,,,,,,,,,,,,,,0,0,0,4,1,,,,,,,,,,,,,,,,,,,,,,,,,,,,,,,,,,,,,,,,,
088354,001,2022-11-21_00h53.48.843,Info_measure_main_exp,2022.2.2,Win32,144.092219,,,,,,,,,,,,,,,,,,masks/mask_003.jpg,,,,,,,,,,,,,,,,,,,,,,,,,,,,,,,,,,,,,,,,,,,,,,,,0,1,1,2,1,,,,,,,,,,,,,,,,,,,,,,,,,,,,,,,,,,,,,,,,,
088354,001,2022-11-21_00h53.48.843,Info_measure_main_exp,2022.2.2,Win32,144.092219,,,,,,,,,,,,,,,,,,masks/mask_002.jpg,,,,,,,,,,,,,,,,,,,,,,,,,,,,,,,,,,,,,,,,,,,,,,,,0,2,2,1,1,,,,,,,,,,,,,,,,,,,,,,,,,,,,,,,,,,,,,,,,,
088354,001,2022-11-21_00h53.48.843,Info_measure_main_exp,2022.2.2,Win32,144.092219,,,,,,,,,,,,,,,,,,masks/mask_004.jpg,,,,,,,,,,,,,,,,,,,,,,,,,,,,,,,,,,,,,,,,,,,,,,,,0,3,3,3,1,,,,,,,,,,,,,,,,,,,,,,,,,,,,,,,,,,,,,,,,,
088354,001,2022-11-21_00h53.48.843,Info_measure_main_exp,2022.2.2,Win32,144.092219,,,,,,,,,,,,,,,,,,masks/mask_001.jpg,,,,,,,,,,,,,,,,,,,,,,,,,,,,,,,,,,,,,,,,,,,,,,,,0,4,4,0,1,,,,,,,,,,,,,,,,,,,,,,,,,,,,,,,,,,,,,,,,,
088354,001,2022-11-21_00h53.48.843,Info_measure_main_exp,2022.2.2,Win32,144.092219,,,,,,,,,,,,,,,,,,,,,,,,,,,,,,7,0.437,1,,,,,,,,,,,,0,131,5,5,1974,2214,absent_patch/patch0001974.jpg,absent_patch/patch0002214.jpg,,,,,,,,,,,,,,,,,,,,0.057407407,0.115740741,1,0,0,response1disk,16,-0.00462963,0.009259259,1,0,0,center_square,0,15,15,24,1,,,,,,,,,,,,,,,,,,,,,,,
088354,001,2022-11-21_00h53.48.843,Info_measure_main_exp,2022.2.2,Win32,144.092219,,,,,,,,,,,,,,,,,,masks/mask_003.jpg,,,,,,,,,,,,,,,,,,,,,,,,,,,,,,,,,,,,,,,,,,,0,0,0,2,1,,,,,,,,,,,,,,,,,,,,,,,,,,,,,,,,,,,,,,,,,,,,,,
088354,001,2022-11-21_00h53.48.843,Info_measure_main_exp,2022.2.2,Win32,144.092219,,,,,,,,,,,,,,,,,,masks/mask_002.jpg,,,,,,,,,,,,,,,,,,,,,,,,,,,,,,,,,,,,,,,,,,,0,1,1,1,1,,,,,,,,,,,,,,,,,,,,,,,,,,,,,,,,,,,,,,,,,,,,,,
088354,001,2022-11-21_00h53.48.843,Info_measure_main_exp,2022.2.2,Win32,144.092219,,,,,,,,,,,,,,,,,,masks/mask_001.jpg,,,,,,,,,,,,,,,,,,,,,,,,,,,,,,,,,,,,,,,,,,,0,2,2,0,1,,,,,,,,,,,,,,,,,,,,,,,,,,,,,,,,,,,,,,,,,,,,,,
088354,001,2022-11-21_00h53.48.843,Info_measure_main_exp,2022.2.2,Win32,144.092219,,,,,,,,,,,,,,,,,,masks/mask_005.jpg,,,,,,,,,,,,,,,,,,,,,,,,,,,,,,,,,,,,,,,,,,,0,3,3,4,1,,,,,,,,,,,,,,,,,,,,,,,,,,,,,,,,,,,,,,,,,,,,,,
088354,001,2022-11-21_00h53.48.843,Info_measure_main_exp,2022.2.2,Win32,144.092219,,,,,,,,,,,,,,,,,,masks/mask_004.jpg,,,,,,,,,,,,,,,,,,,,,,,,,,,,,,,,,,,,,,,,,,,0,4,4,3,1,,,,,,,,,,,,,,,,,,,,,,,,,,,,,,,,,,,,,,,,,,,,,,
088354,001,2022-11-21_00h53.48.843,Info_measure_main_exp,2022.2.2,Win32,144.092219,,,,,,,,,,,,,,,,,,masks/mask_003.jpg,,,,,,,,,,,,,,,,,,,,,,,,,,,,,,,,,,,,,,,,,,,,,,,,0,0,0,2,1,,,,,,,,,,,,,,,,,,,,,,,,,,,,,,,,,,,,,,,,,
088354,001,2022-11-21_00h53.48.843,Info_measure_main_exp,2022.2.2,Win32,144.092219,,,,,,,,,,,,,,,,,,masks/mask_004.jpg,,,,,,,,,,,,,,,,,,,,,,,,,,,,,,,,,,,,,,,,,,,,,,,,0,1,1,3,1,,,,,,,,,,,,,,,,,,,,,,,,,,,,,,,,,,,,,,,,,
088354,001,2022-11-21_00h53.48.843,Info_measure_main_exp,2022.2.2,Win32,144.092219,,,,,,,,,,,,,,,,,,masks/mask_001.jpg,,,,,,,,,,,,,,,,,,,,,,,,,,,,,,,,,,,,,,,,,,,,,,,,0,2,2,0,1,,,,,,,,,,,,,,,,,,,,,,,,,,,,,,,,,,,,,,,,,
088354,001,2022-11-21_00h53.48.843,Info_measure_main_exp,2022.2.2,Win32,144.092219,,,,,,,,,,,,,,,,,,masks/mask_005.jpg,,,,,,,,,,,,,,,,,,,,,,,,,,,,,,,,,,,,,,,,,,,,,,,,0,3,3,4,1,,,,,,,,,,,,,,,,,,,,,,,,,,,,,,,,,,,,,,,,,
088354,001,2022-11-21_00h53.48.843,Info_measure_main_exp,2022.2.2,Win32,144.092219,,,,,,,,,,,,,,,,,,masks/mask_002.jpg,,,,,,,,,,,,,,,,,,,,,,,,,,,,,,,,,,,,,,,,,,,,,,,,0,4,4,1,1,,,,,,,,,,,,,,,,,,,,,,,,,,,,,,,,,,,,,,,,,
088354,001,2022-11-21_00h53.48.843,Info_measure_main_exp,2022.2.2,Win32,144.092219,,,,,,,,,,,,,,,,,,,,,,,,,,,,,,0,0.653,1,,,,,,,,,,,,0,131,5,5,2082,2082,absent_patch/patch0002082.jpg,absent_patch/patch0002082.jpg,,,,,,,,,,,,,,,,,,,,-0.050925926,0.17037037,1,0,0,response7disk,17,-0.011111111,0.013888889,1,0,0,center_square,0,16,16,74,1,,,,,,,,,,,,,,,,,,,,,,,
088354,001,2022-11-21_00h53.48.843,Info_measure_main_exp,2022.2.2,Win32,144.092219,,,,,,,,,,,,,,,,,,masks/mask_004.jpg,,,,,,,,,,,,,,,,,,,,,,,,,,,,,,,,,,,,,,,,,,,0,0,0,3,1,,,,,,,,,,,,,,,,,,,,,,,,,,,,,,,,,,,,,,,,,,,,,,
088354,001,2022-11-21_00h53.48.843,Info_measure_main_exp,2022.2.2,Win32,144.092219,,,,,,,,,,,,,,,,,,masks/mask_003.jpg,,,,,,,,,,,,,,,,,,,,,,,,,,,,,,,,,,,,,,,,,,,0,1,1,2,1,,,,,,,,,,,,,,,,,,,,,,,,,,,,,,,,,,,,,,,,,,,,,,
088354,001,2022-11-21_00h53.48.843,Info_measure_main_exp,2022.2.2,Win32,144.092219,,,,,,,,,,,,,,,,,,masks/mask_001.jpg,,,,,,,,,,,,,,,,,,,,,,,,,,,,,,,,,,,,,,,,,,,0,2,2,0,1,,,,,,,,,,,,,,,,,,,,,,,,,,,,,,,,,,,,,,,,,,,,,,
088354,001,2022-11-21_00h53.48.843,Info_measure_main_exp,2022.2.2,Win32,144.092219,,,,,,,,,,,,,,,,,,masks/mask_005.jpg,,,,,,,,,,,,,,,,,,,,,,,,,,,,,,,,,,,,,,,,,,,0,3,3,4,1,,,,,,,,,,,,,,,,,,,,,,,,,,,,,,,,,,,,,,,,,,,,,,
088354,001,2022-11-21_00h53.48.843,Info_measure_main_exp,2022.2.2,Win32,144.092219,,,,,,,,,,,,,,,,,,masks/mask_002.jpg,,,,,,,,,,,,,,,,,,,,,,,,,,,,,,,,,,,,,,,,,,,0,4,4,1,1,,,,,,,,,,,,,,,,,,,,,,,,,,,,,,,,,,,,,,,,,,,,,,
088354,001,2022-11-21_00h53.48.843,Info_measure_main_exp,2022.2.2,Win32,144.092219,,,,,,,,,,,,,,,,,,masks/mask_001.jpg,,,,,,,,,,,,,,,,,,,,,,,,,,,,,,,,,,,,,,,,,,,,,,,,0,0,0,0,1,,,,,,,,,,,,,,,,,,,,,,,,,,,,,,,,,,,,,,,,,
088354,001,2022-11-21_00h53.48.843,Info_measure_main_exp,2022.2.2,Win32,144.092219,,,,,,,,,,,,,,,,,,masks/mask_005.jpg,,,,,,,,,,,,,,,,,,,,,,,,,,,,,,,,,,,,,,,,,,,,,,,,0,1,1,4,1,,,,,,,,,,,,,,,,,,,,,,,,,,,,,,,,,,,,,,,,,
088354,001,2022-11-21_00h53.48.843,Info_measure_main_exp,2022.2.2,Win32,144.092219,,,,,,,,,,,,,,,,,,masks/mask_002.jpg,,,,,,,,,,,,,,,,,,,,,,,,,,,,,,,,,,,,,,,,,,,,,,,,0,2,2,1,1,,,,,,,,,,,,,,,,,,,,,,,,,,,,,,,,,,,,,,,,,
088354,001,2022-11-21_00h53.48.843,Info_measure_main_exp,2022.2.2,Win32,144.092219,,,,,,,,,,,,,,,,,,masks/mask_003.jpg,,,,,,,,,,,,,,,,,,,,,,,,,,,,,,,,,,,,,,,,,,,,,,,,0,3,3,2,1,,,,,,,,,,,,,,,,,,,,,,,,,,,,,,,,,,,,,,,,,
088354,001,2022-11-21_00h53.48.843,Info_measure_main_exp,2022.2.2,Win32,144.092219,,,,,,,,,,,,,,,,,,masks/mask_004.jpg,,,,,,,,,,,,,,,,,,,,,,,,,,,,,,,,,,,,,,,,,,,,,,,,0,4,4,3,1,,,,,,,,,,,,,,,,,,,,,,,,,,,,,,,,,,,,,,,,,
088354,001,2022-11-21_00h53.48.843,Info_measure_main_exp,2022.2.2,Win32,144.092219,,,,,,,,,,,,,,,,,,,,,,,,,,,,,,6,1.737,1,,,,,,,,,,,,0,131,5,5,1950,2178,absent_patch/patch0001950.jpg,absent_patch/patch0002178.jpg,,,,,,,,,,,,,,,,,,,,0.125,0.037962963,1,0,0,response1disk,18,0.002777778,0.00462963,1,0,0,center_square,0,17,17,61,1,,,,,,,,,,,,,,,,,,,,,,,
088354,001,2022-11-21_00h53.48.843,Info_measure_main_exp,2022.2.2,Win32,144.092219,,,,,,,,,,,,,,,,,,masks/mask_001.jpg,,,,,,,,,,,,,,,,,,,,,,,,,,,,,,,,,,,,,,,,,,,0,0,0,0,1,,,,,,,,,,,,,,,,,,,,,,,,,,,,,,,,,,,,,,,,,,,,,,
088354,001,2022-11-21_00h53.48.843,Info_measure_main_exp,2022.2.2,Win32,144.092219,,,,,,,,,,,,,,,,,,masks/mask_005.jpg,,,,,,,,,,,,,,,,,,,,,,,,,,,,,,,,,,,,,,,,,,,0,1,1,4,1,,,,,,,,,,,,,,,,,,,,,,,,,,,,,,,,,,,,,,,,,,,,,,
088354,001,2022-11-21_00h53.48.843,Info_measure_main_exp,2022.2.2,Win32,144.092219,,,,,,,,,,,,,,,,,,masks/mask_004.jpg,,,,,,,,,,,,,,,,,,,,,,,,,,,,,,,,,,,,,,,,,,,0,2,2,3,1,,,,,,,,,,,,,,,,,,,,,,,,,,,,,,,,,,,,,,,,,,,,,,
088354,001,2022-11-21_00h53.48.843,Info_measure_main_exp,2022.2.2,Win32,144.092219,,,,,,,,,,,,,,,,,,masks/mask_003.jpg,,,,,,,,,,,,,,,,,,,,,,,,,,,,,,,,,,,,,,,,,,,0,3,3,2,1,,,,,,,,,,,,,,,,,,,,,,,,,,,,,,,,,,,,,,,,,,,,,,
088354,001,2022-11-21_00h53.48.843,Info_measure_main_exp,2022.2.2,Win32,144.092219,,,,,,,,,,,,,,,,,,masks/mask_002.jpg,,,,,,,,,,,,,,,,,,,,,,,,,,,,,,,,,,,,,,,,,,,0,4,4,1,1,,,,,,,,,,,,,,,,,,,,,,,,,,,,,,,,,,,,,,,,,,,,,,
088354,001,2022-11-21_00h53.48.843,Info_measure_main_exp,2022.2.2,Win32,144.092219,,,,,,,,,,,,,,,,,,masks/mask_005.jpg,,,,,,,,,,,,,,,,,,,,,,,,,,,,,,,,,,,,,,,,,,,,,,,,0,0,0,4,1,,,,,,,,,,,,,,,,,,,,,,,,,,,,,,,,,,,,,,,,,
088354,001,2022-11-21_00h53.48.843,Info_measure_main_exp,2022.2.2,Win32,144.092219,,,,,,,,,,,,,,,,,,masks/mask_003.jpg,,,,,,,,,,,,,,,,,,,,,,,,,,,,,,,,,,,,,,,,,,,,,,,,0,1,1,2,1,,,,,,,,,,,,,,,,,,,,,,,,,,,,,,,,,,,,,,,,,
088354,001,2022-11-21_00h53.48.843,Info_measure_main_exp,2022.2.2,Win32,144.092219,,,,,,,,,,,,,,,,,,masks/mask_002.jpg,,,,,,,,,,,,,,,,,,,,,,,,,,,,,,,,,,,,,,,,,,,,,,,,0,2,2,1,1,,,,,,,,,,,,,,,,,,,,,,,,,,,,,,,,,,,,,,,,,
088354,001,2022-11-21_00h53.48.843,Info_measure_main_exp,2022.2.2,Win32,144.092219,,,,,,,,,,,,,,,,,,masks/mask_001.jpg,,,,,,,,,,,,,,,,,,,,,,,,,,,,,,,,,,,,,,,,,,,,,,,,0,3,3,0,1,,,,,,,,,,,,,,,,,,,,,,,,,,,,,,,,,,,,,,,,,
088354,001,2022-11-21_00h53.48.843,Info_measure_main_exp,2022.2.2,Win32,144.092219,,,,,,,,,,,,,,,,,,masks/mask_004.jpg,,,,,,,,,,,,,,,,,,,,,,,,,,,,,,,,,,,,,,,,,,,,,,,,0,4,4,3,1,,,,,,,,,,,,,,,,,,,,,,,,,,,,,,,,,,,,,,,,,
088354,001,2022-11-21_00h53.48.843,Info_measure_main_exp,2022.2.2,Win32,144.092219,,,,,,,,,,,,,,,,,,,,,,,,,,,,,,7,0.66,1,,,,,,,,,,,,0,131,5,5,2298,1986,absent_patch/patch0002298.jpg,absent_patch/patch0001986.jpg,,,,,,,,,,,,,,,,,,,,0.074074074,0.151851852,1,0,0,response1disk,19,0.005555556,0.003703704,1,0,0,center_square,0,18,18,32,1,,,,,,,,,,,,,,,,,,,,,,,
088354,001,2022-11-21_00h53.48.843,Info_measure_main_exp,2022.2.2,Win32,144.092219,,,,,,,,,,,,,,,,,,masks/mask_003.jpg,,,,,,,,,,,,,,,,,,,,,,,,,,,,,,,,,,,,,,,,,,,0,0,0,2,1,,,,,,,,,,,,,,,,,,,,,,,,,,,,,,,,,,,,,,,,,,,,,,
088354,001,2022-11-21_00h53.48.843,Info_measure_main_exp,2022.2.2,Win32,144.092219,,,,,,,,,,,,,,,,,,masks/mask_001.jpg,,,,,,,,,,,,,,,,,,,,,,,,,,,,,,,,,,,,,,,,,,,0,1,1,0,1,,,,,,,,,,,,,,,,,,,,,,,,,,,,,,,,,,,,,,,,,,,,,,
088354,001,2022-11-21_00h53.48.843,Info_measure_main_exp,2022.2.2,Win32,144.092219,,,,,,,,,,,,,,,,,,masks/mask_004.jpg,,,,,,,,,,,,,,,,,,,,,,,,,,,,,,,,,,,,,,,,,,,0,2,2,3,1,,,,,,,,,,,,,,,,,,,,,,,,,,,,,,,,,,,,,,,,,,,,,,
088354,001,2022-11-21_00h53.48.843,Info_measure_main_exp,2022.2.2,Win32,144.092219,,,,,,,,,,,,,,,,,,masks/mask_005.jpg,,,,,,,,,,,,,,,,,,,,,,,,,,,,,,,,,,,,,,,,,,,0,3,3,4,1,,,,,,,,,,,,,,,,,,,,,,,,,,,,,,,,,,,,,,,,,,,,,,
088354,001,2022-11-21_00h53.48.843,Info_measure_main_exp,2022.2.2,Win32,144.092219,,,,,,,,,,,,,,,,,,masks/mask_002.jpg,,,,,,,,,,,,,,,,,,,,,,,,,,,,,,,,,,,,,,,,,,,0,4,4,1,1,,,,,,,,,,,,,,,,,,,,,,,,,,,,,,,,,,,,,,,,,,,,,,
088354,001,2022-11-21_00h53.48.843,Info_measure_main_exp,2022.2.2,Win32,144.092219,,,,,,,,,,,,,,,,,,masks/mask_003.jpg,,,,,,,,,,,,,,,,,,,,,,,,,,,,,,,,,,,,,,,,,,,,,,,,0,0,0,2,1,,,,,,,,,,,,,,,,,,,,,,,,,,,,,,,,,,,,,,,,,
088354,001,2022-11-21_00h53.48.843,Info_measure_main_exp,2022.2.2,Win32,144.092219,,,,,,,,,,,,,,,,,,masks/mask_001.jpg,,,,,,,,,,,,,,,,,,,,,,,,,,,,,,,,,,,,,,,,,,,,,,,,0,1,1,0,1,,,,,,,,,,,,,,,,,,,,,,,,,,,,,,,,,,,,,,,,,
088354,001,2022-11-21_00h53.48.843,Info_measure_main_exp,2022.2.2,Win32,144.092219,,,,,,,,,,,,,,,,,,masks/mask_002.jpg,,,,,,,,,,,,,,,,,,,,,,,,,,,,,,,,,,,,,,,,,,,,,,,,0,2,2,1,1,,,,,,,,,,,,,,,,,,,,,,,,,,,,,,,,,,,,,,,,,
088354,001,2022-11-21_00h53.48.843,Info_measure_main_exp,2022.2.2,Win32,144.092219,,,,,,,,,,,,,,,,,,masks/mask_005.jpg,,,,,,,,,,,,,,,,,,,,,,,,,,,,,,,,,,,,,,,,,,,,,,,,0,3,3,4,1,,,,,,,,,,,,,,,,,,,,,,,,,,,,,,,,,,,,,,,,,
088354,001,2022-11-21_00h53.48.843,Info_measure_main_exp,2022.2.2,Win32,144.092219,,,,,,,,,,,,,,,,,,masks/mask_004.jpg,,,,,,,,,,,,,,,,,,,,,,,,,,,,,,,,,,,,,,,,,,,,,,,,0,4,4,3,1,,,,,,,,,,,,,,,,,,,,,,,,,,,,,,,,,,,,,,,,,
088354,001,2022-11-21_00h53.48.843,Info_measure_main_exp,2022.2.2,Win32,144.092219,,,,,,,,,,,,,,,,,,,,,,,,,,,,,,3,1.132,1,,,,,,,,,,,,0,131,5,5,2274,2238,absent_patch/patch0002274.jpg,absent_patch/patch0002238.jpg,,,,,,,,,,,,,,,,,,,,-0.021296296,-0.117592593,1,0,0,response5disk,20,-0.000925926,-0.003703704,1,0,0,center_square,0,19,19,91,1,,,,,,,,,,,,,,,,,,,,,,,
088354,001,2022-11-21_00h53.48.843,Info_measure_main_exp,2022.2.2,Win32,144.092219,,,,,,,,,,,,,,,,,,masks/mask_001.jpg,,,,,,,,,,,,,,,,,,,,,,,,,,,,,,,,,,,,,,,,,,,0,0,0,0,1,,,,,,,,,,,,,,,,,,,,,,,,,,,,,,,,,,,,,,,,,,,,,,
088354,001,2022-11-21_00h53.48.843,Info_measure_main_exp,2022.2.2,Win32,144.092219,,,,,,,,,,,,,,,,,,masks/mask_002.jpg,,,,,,,,,,,,,,,,,,,,,,,,,,,,,,,,,,,,,,,,,,,0,1,1,1,1,,,,,,,,,,,,,,,,,,,,,,,,,,,,,,,,,,,,,,,,,,,,,,
088354,001,2022-11-21_00h53.48.843,Info_measure_main_exp,2022.2.2,Win32,144.092219,,,,,,,,,,,,,,,,,,masks/mask_004.jpg,,,,,,,,,,,,,,,,,,,,,,,,,,,,,,,,,,,,,,,,,,,0,2,2,3,1,,,,,,,,,,,,,,,,,,,,,,,,,,,,,,,,,,,,,,,,,,,,,,
088354,001,2022-11-21_00h53.48.843,Info_measure_main_exp,2022.2.2,Win32,144.092219,,,,,,,,,,,,,,,,,,masks/mask_003.jpg,,,,,,,,,,,,,,,,,,,,,,,,,,,,,,,,,,,,,,,,,,,0,3,3,2,1,,,,,,,,,,,,,,,,,,,,,,,,,,,,,,,,,,,,,,,,,,,,,,
088354,001,2022-11-21_00h53.48.843,Info_measure_main_exp,2022.2.2,Win32,144.092219,,,,,,,,,,,,,,,,,,masks/mask_005.jpg,,,,,,,,,,,,,,,,,,,,,,,,,,,,,,,,,,,,,,,,,,,0,4,4,4,1,,,,,,,,,,,,,,,,,,,,,,,,,,,,,,,,,,,,,,,,,,,,,,
088354,001,2022-11-21_00h53.48.843,Info_measure_main_exp,2022.2.2,Win32,144.092219,,,,,,,,,,,,,,,,,,masks/mask_002.jpg,,,,,,,,,,,,,,,,,,,,,,,,,,,,,,,,,,,,,,,,,,,,,,,,0,0,0,1,1,,,,,,,,,,,,,,,,,,,,,,,,,,,,,,,,,,,,,,,,,
088354,001,2022-11-21_00h53.48.843,Info_measure_main_exp,2022.2.2,Win32,144.092219,,,,,,,,,,,,,,,,,,masks/mask_005.jpg,,,,,,,,,,,,,,,,,,,,,,,,,,,,,,,,,,,,,,,,,,,,,,,,0,1,1,4,1,,,,,,,,,,,,,,,,,,,,,,,,,,,,,,,,,,,,,,,,,
088354,001,2022-11-21_00h53.48.843,Info_measure_main_exp,2022.2.2,Win32,144.092219,,,,,,,,,,,,,,,,,,masks/mask_004.jpg,,,,,,,,,,,,,,,,,,,,,,,,,,,,,,,,,,,,,,,,,,,,,,,,0,2,2,3,1,,,,,,,,,,,,,,,,,,,,,,,,,,,,,,,,,,,,,,,,,
088354,001,2022-11-21_00h53.48.843,Info_measure_main_exp,2022.2.2,Win32,144.092219,,,,,,,,,,,,,,,,,,masks/mask_001.jpg,,,,,,,,,,,,,,,,,,,,,,,,,,,,,,,,,,,,,,,,,,,,,,,,0,3,3,0,1,,,,,,,,,,,,,,,,,,,,,,,,,,,,,,,,,,,,,,,,,
088354,001,2022-11-21_00h53.48.843,Info_measure_main_exp,2022.2.2,Win32,144.092219,,,,,,,,,,,,,,,,,,masks/mask_003.jpg,,,,,,,,,,,,,,,,,,,,,,,,,,,,,,,,,,,,,,,,,,,,,,,,0,4,4,2,1,,,,,,,,,,,,,,,,,,,,,,,,,,,,,,,,,,,,,,,,,
088354,001,2022-11-21_00h53.48.843,Info_measure_main_exp,2022.2.2,Win32,144.092219,,,,,,,,,,,,,,,,,,,,,,,,,,,,,,4,0.716,1,,,,,,,,,,,,0,131,5,5,2238,2166,absent_patch/patch0002238.jpg,absent_patch/patch0002166.jpg,,,,,,,,,,,,,,,,,,,,0.039814815,-0.097222222,1,0,0,response3disk,21,0.000925926,-0.009259259,1,0,0,center_square,0,20,20,118,1,,,,,,,,,,,,,,,,,,,,,,,
088354,001,2022-11-21_00h53.48.843,Info_measure_main_exp,2022.2.2,Win32,144.092219,,,,,,,,,,,,,,,,,,masks/mask_001.jpg,,,,,,,,,,,,,,,,,,,,,,,,,,,,,,,,,,,,,,,,,,,0,0,0,0,1,,,,,,,,,,,,,,,,,,,,,,,,,,,,,,,,,,,,,,,,,,,,,,
088354,001,2022-11-21_00h53.48.843,Info_measure_main_exp,2022.2.2,Win32,144.092219,,,,,,,,,,,,,,,,,,masks/mask_005.jpg,,,,,,,,,,,,,,,,,,,,,,,,,,,,,,,,,,,,,,,,,,,0,1,1,4,1,,,,,,,,,,,,,,,,,,,,,,,,,,,,,,,,,,,,,,,,,,,,,,
088354,001,2022-11-21_00h53.48.843,Info_measure_main_exp,2022.2.2,Win32,144.092219,,,,,,,,,,,,,,,,,,masks/mask_004.jpg,,,,,,,,,,,,,,,,,,,,,,,,,,,,,,,,,,,,,,,,,,,0,2,2,3,1,,,,,,,,,,,,,,,,,,,,,,,,,,,,,,,,,,,,,,,,,,,,,,
088354,001,2022-11-21_00h53.48.843,Info_measure_main_exp,2022.2.2,Win32,144.092219,,,,,,,,,,,,,,,,,,masks/mask_003.jpg,,,,,,,,,,,,,,,,,,,,,,,,,,,,,,,,,,,,,,,,,,,0,3,3,2,1,,,,,,,,,,,,,,,,,,,,,,,,,,,,,,,,,,,,,,,,,,,,,,
088354,001,2022-11-21_00h53.48.843,Info_measure_main_exp,2022.2.2,Win32,144.092219,,,,,,,,,,,,,,,,,,masks/mask_002.jpg,,,,,,,,,,,,,,,,,,,,,,,,,,,,,,,,,,,,,,,,,,,0,4,4,1,1,,,,,,,,,,,,,,,,,,,,,,,,,,,,,,,,,,,,,,,,,,,,,,
088354,001,2022-11-21_00h53.48.843,Info_measure_main_exp,2022.2.2,Win32,144.092219,,,,,,,,,,,,,,,,,,masks/mask_004.jpg,,,,,,,,,,,,,,,,,,,,,,,,,,,,,,,,,,,,,,,,,,,,,,,,0,0,0,3,1,,,,,,,,,,,,,,,,,,,,,,,,,,,,,,,,,,,,,,,,,
088354,001,2022-11-21_00h53.48.843,Info_measure_main_exp,2022.2.2,Win32,144.092219,,,,,,,,,,,,,,,,,,masks/mask_005.jpg,,,,,,,,,,,,,,,,,,,,,,,,,,,,,,,,,,,,,,,,,,,,,,,,0,1,1,4,1,,,,,,,,,,,,,,,,,,,,,,,,,,,,,,,,,,,,,,,,,
088354,001,2022-11-21_00h53.48.843,Info_measure_main_exp,2022.2.2,Win32,144.092219,,,,,,,,,,,,,,,,,,masks/mask_001.jpg,,,,,,,,,,,,,,,,,,,,,,,,,,,,,,,,,,,,,,,,,,,,,,,,0,2,2,0,1,,,,,,,,,,,,,,,,,,,,,,,,,,,,,,,,,,,,,,,,,
088354,001,2022-11-21_00h53.48.843,Info_measure_main_exp,2022.2.2,Win32,144.092219,,,,,,,,,,,,,,,,,,masks/mask_003.jpg,,,,,,,,,,,,,,,,,,,,,,,,,,,,,,,,,,,,,,,,,,,,,,,,0,3,3,2,1,,,,,,,,,,,,,,,,,,,,,,,,,,,,,,,,,,,,,,,,,
088354,001,2022-11-21_00h53.48.843,Info_measure_main_exp,2022.2.2,Win32,144.092219,,,,,,,,,,,,,,,,,,masks/mask_002.jpg,,,,,,,,,,,,,,,,,,,,,,,,,,,,,,,,,,,,,,,,,,,,,,,,0,4,4,1,1,,,,,,,,,,,,,,,,,,,,,,,,,,,,,,,,,,,,,,,,,
088354,001,2022-11-21_00h53.48.843,Info_measure_main_exp,2022.2.2,Win32,144.092219,,,,,,,,,,,,,,,,,,,,,,,,,,,,,,7,1.167,1,,,,,,,,,,,,0,131,5,5,2142,2154,absent_patch/patch0002142.jpg,absent_patch/patch0002154.jpg,,,,,,,,,,,,,,,,,,,,0.055555556,0.162037037,1,0,0,response1disk,22,-0.005555556,0.013888889,1,0,0,center_square,0,21,21,9,1,,,,,,,,,,,,,,,,,,,,,,,
088354,001,2022-11-21_00h53.48.843,Info_measure_main_exp,2022.2.2,Win32,144.092219,,,,,,,,,,,,,,,,,,masks/mask_005.jpg,,,,,,,,,,,,,,,,,,,,,,,,,,,,,,,,,,,,,,,,,,,0,0,0,4,1,,,,,,,,,,,,,,,,,,,,,,,,,,,,,,,,,,,,,,,,,,,,,,
088354,001,2022-11-21_00h53.48.843,Info_measure_main_exp,2022.2.2,Win32,144.092219,,,,,,,,,,,,,,,,,,masks/mask_003.jpg,,,,,,,,,,,,,,,,,,,,,,,,,,,,,,,,,,,,,,,,,,,0,1,1,2,1,,,,,,,,,,,,,,,,,,,,,,,,,,,,,,,,,,,,,,,,,,,,,,
088354,001,2022-11-21_00h53.48.843,Info_measure_main_exp,2022.2.2,Win32,144.092219,,,,,,,,,,,,,,,,,,masks/mask_004.jpg,,,,,,,,,,,,,,,,,,,,,,,,,,,,,,,,,,,,,,,,,,,0,2,2,3,1,,,,,,,,,,,,,,,,,,,,,,,,,,,,,,,,,,,,,,,,,,,,,,
088354,001,2022-11-21_00h53.48.843,Info_measure_main_exp,2022.2.2,Win32,144.092219,,,,,,,,,,,,,,,,,,masks/mask_001.jpg,,,,,,,,,,,,,,,,,,,,,,,,,,,,,,,,,,,,,,,,,,,0,3,3,0,1,,,,,,,,,,,,,,,,,,,,,,,,,,,,,,,,,,,,,,,,,,,,,,
088354,001,2022-11-21_00h53.48.843,Info_measure_main_exp,2022.2.2,Win32,144.092219,,,,,,,,,,,,,,,,,,masks/mask_002.jpg,,,,,,,,,,,,,,,,,,,,,,,,,,,,,,,,,,,,,,,,,,,0,4,4,1,1,,,,,,,,,,,,,,,,,,,,,,,,,,,,,,,,,,,,,,,,,,,,,,
088354,001,2022-11-21_00h53.48.843,Info_measure_main_exp,2022.2.2,Win32,144.092219,,,,,,,,,,,,,,,,,,masks/mask_004.jpg,,,,,,,,,,,,,,,,,,,,,,,,,,,,,,,,,,,,,,,,,,,,,,,,0,0,0,3,1,,,,,,,,,,,,,,,,,,,,,,,,,,,,,,,,,,,,,,,,,
088354,001,2022-11-21_00h53.48.843,Info_measure_main_exp,2022.2.2,Win32,144.092219,,,,,,,,,,,,,,,,,,masks/mask_002.jpg,,,,,,,,,,,,,,,,,,,,,,,,,,,,,,,,,,,,,,,,,,,,,,,,0,1,1,1,1,,,,,,,,,,,,,,,,,,,,,,,,,,,,,,,,,,,,,,,,,
088354,001,2022-11-21_00h53.48.843,Info_measure_main_exp,2022.2.2,Win32,144.092219,,,,,,,,,,,,,,,,,,masks/mask_001.jpg,,,,,,,,,,,,,,,,,,,,,,,,,,,,,,,,,,,,,,,,,,,,,,,,0,2,2,0,1,,,,,,,,,,,,,,,,,,,,,,,,,,,,,,,,,,,,,,,,,
088354,001,2022-11-21_00h53.48.843,Info_measure_main_exp,2022.2.2,Win32,144.092219,,,,,,,,,,,,,,,,,,masks/mask_005.jpg,,,,,,,,,,,,,,,,,,,,,,,,,,,,,,,,,,,,,,,,,,,,,,,,0,3,3,4,1,,,,,,,,,,,,,,,,,,,,,,,,,,,,,,,,,,,,,,,,,
088354,001,2022-11-21_00h53.48.843,Info_measure_main_exp,2022.2.2,Win32,144.092219,,,,,,,,,,,,,,,,,,masks/mask_003.jpg,,,,,,,,,,,,,,,,,,,,,,,,,,,,,,,,,,,,,,,,,,,,,,,,0,4,4,2,1,,,,,,,,,,,,,,,,,,,,,,,,,,,,,,,,,,,,,,,,,
088354,001,2022-11-21_00h53.48.843,Info_measure_main_exp,2022.2.2,Win32,144.092219,,,,,,,,,,,,,,,,,,,,,,,,,,,,,,7,1.207,1,,,,,,,,,,,,0,131,5,5,2082,1974,absent_patch/patch0002082.jpg,absent_patch/patch0001974.jpg,,,,,,,,,,,,,,,,,,,,0.036111111,0.116666667,1,0,0,response1disk,23,0.001851852,0.007407407,1,0,0,center_square,0,22,22,26,1,,,,,,,,,,,,,,,,,,,,,,,
088354,001,2022-11-21_00h53.48.843,Info_measure_main_exp,2022.2.2,Win32,144.092219,,,,,,,,,,,,,,,,,,masks/mask_004.jpg,,,,,,,,,,,,,,,,,,,,,,,,,,,,,,,,,,,,,,,,,,,0,0,0,3,1,,,,,,,,,,,,,,,,,,,,,,,,,,,,,,,,,,,,,,,,,,,,,,
088354,001,2022-11-21_00h53.48.843,Info_measure_main_exp,2022.2.2,Win32,144.092219,,,,,,,,,,,,,,,,,,masks/mask_002.jpg,,,,,,,,,,,,,,,,,,,,,,,,,,,,,,,,,,,,,,,,,,,0,1,1,1,1,,,,,,,,,,,,,,,,,,,,,,,,,,,,,,,,,,,,,,,,,,,,,,
088354,001,2022-11-21_00h53.48.843,Info_measure_main_exp,2022.2.2,Win32,144.092219,,,,,,,,,,,,,,,,,,masks/mask_005.jpg,,,,,,,,,,,,,,,,,,,,,,,,,,,,,,,,,,,,,,,,,,,0,2,2,4,1,,,,,,,,,,,,,,,,,,,,,,,,,,,,,,,,,,,,,,,,,,,,,,
088354,001,2022-11-21_00h53.48.843,Info_measure_main_exp,2022.2.2,Win32,144.092219,,,,,,,,,,,,,,,,,,masks/mask_001.jpg,,,,,,,,,,,,,,,,,,,,,,,,,,,,,,,,,,,,,,,,,,,0,3,3,0,1,,,,,,,,,,,,,,,,,,,,,,,,,,,,,,,,,,,,,,,,,,,,,,
088354,001,2022-11-21_00h53.48.843,Info_measure_main_exp,2022.2.2,Win32,144.092219,,,,,,,,,,,,,,,,,,masks/mask_003.jpg,,,,,,,,,,,,,,,,,,,,,,,,,,,,,,,,,,,,,,,,,,,0,4,4,2,1,,,,,,,,,,,,,,,,,,,,,,,,,,,,,,,,,,,,,,,,,,,,,,
088354,001,2022-11-21_00h53.48.843,Info_measure_main_exp,2022.2.2,Win32,144.092219,,,,,,,,,,,,,,,,,,masks/mask_002.jpg,,,,,,,,,,,,,,,,,,,,,,,,,,,,,,,,,,,,,,,,,,,,,,,,0,0,0,1,1,,,,,,,,,,,,,,,,,,,,,,,,,,,,,,,,,,,,,,,,,
088354,001,2022-11-21_00h53.48.843,Info_measure_main_exp,2022.2.2,Win32,144.092219,,,,,,,,,,,,,,,,,,masks/mask_004.jpg,,,,,,,,,,,,,,,,,,,,,,,,,,,,,,,,,,,,,,,,,,,,,,,,0,1,1,3,1,,,,,,,,,,,,,,,,,,,,,,,,,,,,,,,,,,,,,,,,,
088354,001,2022-11-21_00h53.48.843,Info_measure_main_exp,2022.2.2,Win32,144.092219,,,,,,,,,,,,,,,,,,masks/mask_001.jpg,,,,,,,,,,,,,,,,,,,,,,,,,,,,,,,,,,,,,,,,,,,,,,,,0,2,2,0,1,,,,,,,,,,,,,,,,,,,,,,,,,,,,,,,,,,,,,,,,,
088354,001,2022-11-21_00h53.48.843,Info_measure_main_exp,2022.2.2,Win32,144.092219,,,,,,,,,,,,,,,,,,masks/mask_005.jpg,,,,,,,,,,,,,,,,,,,,,,,,,,,,,,,,,,,,,,,,,,,,,,,,0,3,3,4,1,,,,,,,,,,,,,,,,,,,,,,,,,,,,,,,,,,,,,,,,,
088354,001,2022-11-21_00h53.48.843,Info_measure_main_exp,2022.2.2,Win32,144.092219,,,,,,,,,,,,,,,,,,masks/mask_003.jpg,,,,,,,,,,,,,,,,,,,,,,,,,,,,,,,,,,,,,,,,,,,,,,,,0,4,4,2,1,,,,,,,,,,,,,,,,,,,,,,,,,,,,,,,,,,,,,,,,,
088354,001,2022-11-21_00h53.48.843,Info_measure_main_exp,2022.2.2,Win32,144.092219,,,,,,,,,,,,,,,,,,,,,,,,,,,,,,7,0.48,1,,,,,,,,,,,,0,131,5,5,2250,2238,absent_patch/patch0002250.jpg,absent_patch/patch0002238.jpg,,,,,,,,,,,,,,,,,,,,0.062962963,0.143518519,1,0,0,response1disk,24,-0.00462963,0.011111111,1,0,0,center_square,0,23,23,110,1,,,,,,,,,,,,,,,,,,,,,,,
088354,001,2022-11-21_00h53.48.843,Info_measure_main_exp,2022.2.2,Win32,144.092219,,,,,,,,,,,,,,,,,,masks/mask_003.jpg,,,,,,,,,,,,,,,,,,,,,,,,,,,,,,,,,,,,,,,,,,,0,0,0,2,1,,,,,,,,,,,,,,,,,,,,,,,,,,,,,,,,,,,,,,,,,,,,,,
088354,001,2022-11-21_00h53.48.843,Info_measure_main_exp,2022.2.2,Win32,144.092219,,,,,,,,,,,,,,,,,,masks/mask_004.jpg,,,,,,,,,,,,,,,,,,,,,,,,,,,,,,,,,,,,,,,,,,,0,1,1,3,1,,,,,,,,,,,,,,,,,,,,,,,,,,,,,,,,,,,,,,,,,,,,,,
088354,001,2022-11-21_00h53.48.843,Info_measure_main_exp,2022.2.2,Win32,144.092219,,,,,,,,,,,,,,,,,,masks/mask_001.jpg,,,,,,,,,,,,,,,,,,,,,,,,,,,,,,,,,,,,,,,,,,,0,2,2,0,1,,,,,,,,,,,,,,,,,,,,,,,,,,,,,,,,,,,,,,,,,,,,,,
088354,001,2022-11-21_00h53.48.843,Info_measure_main_exp,2022.2.2,Win32,144.092219,,,,,,,,,,,,,,,,,,masks/mask_005.jpg,,,,,,,,,,,,,,,,,,,,,,,,,,,,,,,,,,,,,,,,,,,0,3,3,4,1,,,,,,,,,,,,,,,,,,,,,,,,,,,,,,,,,,,,,,,,,,,,,,
088354,001,2022-11-21_00h53.48.843,Info_measure_main_exp,2022.2.2,Win32,144.092219,,,,,,,,,,,,,,,,,,masks/mask_002.jpg,,,,,,,,,,,,,,,,,,,,,,,,,,,,,,,,,,,,,,,,,,,0,4,4,1,1,,,,,,,,,,,,,,,,,,,,,,,,,,,,,,,,,,,,,,,,,,,,,,
088354,001,2022-11-21_00h53.48.843,Info_measure_main_exp,2022.2.2,Win32,144.092219,,,,,,,,,,,,,,,,,,masks/mask_002.jpg,,,,,,,,,,,,,,,,,,,,,,,,,,,,,,,,,,,,,,,,,,,,,,,,0,0,0,1,1,,,,,,,,,,,,,,,,,,,,,,,,,,,,,,,,,,,,,,,,,
088354,001,2022-11-21_00h53.48.843,Info_measure_main_exp,2022.2.2,Win32,144.092219,,,,,,,,,,,,,,,,,,masks/mask_004.jpg,,,,,,,,,,,,,,,,,,,,,,,,,,,,,,,,,,,,,,,,,,,,,,,,0,1,1,3,1,,,,,,,,,,,,,,,,,,,,,,,,,,,,,,,,,,,,,,,,,
088354,001,2022-11-21_00h53.48.843,Info_measure_main_exp,2022.2.2,Win32,144.092219,,,,,,,,,,,,,,,,,,masks/mask_001.jpg,,,,,,,,,,,,,,,,,,,,,,,,,,,,,,,,,,,,,,,,,,,,,,,,0,2,2,0,1,,,,,,,,,,,,,,,,,,,,,,,,,,,,,,,,,,,,,,,,,
088354,001,2022-11-21_00h53.48.843,Info_measure_main_exp,2022.2.2,Win32,144.092219,,,,,,,,,,,,,,,,,,masks/mask_005.jpg,,,,,,,,,,,,,,,,,,,,,,,,,,,,,,,,,,,,,,,,,,,,,,,,0,3,3,4,1,,,,,,,,,,,,,,,,,,,,,,,,,,,,,,,,,,,,,,,,,
088354,001,2022-11-21_00h53.48.843,Info_measure_main_exp,2022.2.2,Win32,144.092219,,,,,,,,,,,,,,,,,,masks/mask_003.jpg,,,,,,,,,,,,,,,,,,,,,,,,,,,,,,,,,,,,,,,,,,,,,,,,0,4,4,2,1,,,,,,,,,,,,,,,,,,,,,,,,,,,,,,,,,,,,,,,,,
088354,001,2022-11-21_00h53.48.843,Info_measure_main_exp,2022.2.2,Win32,144.092219,,,,,,,,,,,,,,,,,,,,,,,,,,,,,,7,0.5,1,,,,,,,,,,,,0,131,5,5,2274,1974,absent_patch/patch0002274.jpg,absent_patch/patch0001974.jpg,,,,,,,,,,,,,,,,,,,,0.049074074,0.135185185,1,0,0,response1disk,25,0.002777778,0.012962963,1,0,0,center_square,0,24,24,90,1,,,,,,,,,,,,,,,,,,,,,,,
088354,001,2022-11-21_00h53.48.843,Info_measure_main_exp,2022.2.2,Win32,144.092219,,,,,,,,,,,,,,,,,,masks/mask_002.jpg,,,,,,,,,,,,,,,,,,,,,,,,,,,,,,,,,,,,,,,,,,,0,0,0,1,1,,,,,,,,,,,,,,,,,,,,,,,,,,,,,,,,,,,,,,,,,,,,,,
088354,001,2022-11-21_00h53.48.843,Info_measure_main_exp,2022.2.2,Win32,144.092219,,,,,,,,,,,,,,,,,,masks/mask_004.jpg,,,,,,,,,,,,,,,,,,,,,,,,,,,,,,,,,,,,,,,,,,,0,1,1,3,1,,,,,,,,,,,,,,,,,,,,,,,,,,,,,,,,,,,,,,,,,,,,,,
088354,001,2022-11-21_00h53.48.843,Info_measure_main_exp,2022.2.2,Win32,144.092219,,,,,,,,,,,,,,,,,,masks/mask_001.jpg,,,,,,,,,,,,,,,,,,,,,,,,,,,,,,,,,,,,,,,,,,,0,2,2,0,1,,,,,,,,,,,,,,,,,,,,,,,,,,,,,,,,,,,,,,,,,,,,,,
088354,001,2022-11-21_00h53.48.843,Info_measure_main_exp,2022.2.2,Win32,144.092219,,,,,,,,,,,,,,,,,,masks/mask_003.jpg,,,,,,,,,,,,,,,,,,,,,,,,,,,,,,,,,,,,,,,,,,,0,3,3,2,1,,,,,,,,,,,,,,,,,,,,,,,,,,,,,,,,,,,,,,,,,,,,,,
088354,001,2022-11-21_00h53.48.843,Info_measure_main_exp,2022.2.2,Win32,144.092219,,,,,,,,,,,,,,,,,,masks/mask_005.jpg,,,,,,,,,,,,,,,,,,,,,,,,,,,,,,,,,,,,,,,,,,,0,4,4,4,1,,,,,,,,,,,,,,,,,,,,,,,,,,,,,,,,,,,,,,,,,,,,,,
088354,001,2022-11-21_00h53.48.843,Info_measure_main_exp,2022.2.2,Win32,144.092219,,,,,,,,,,,,,,,,,,masks/mask_003.jpg,,,,,,,,,,,,,,,,,,,,,,,,,,,,,,,,,,,,,,,,,,,,,,,,0,0,0,2,1,,,,,,,,,,,,,,,,,,,,,,,,,,,,,,,,,,,,,,,,,
088354,001,2022-11-21_00h53.48.843,Info_measure_main_exp,2022.2.2,Win32,144.092219,,,,,,,,,,,,,,,,,,masks/mask_004.jpg,,,,,,,,,,,,,,,,,,,,,,,,,,,,,,,,,,,,,,,,,,,,,,,,0,1,1,3,1,,,,,,,,,,,,,,,,,,,,,,,,,,,,,,,,,,,,,,,,,
088354,001,2022-11-21_00h53.48.843,Info_measure_main_exp,2022.2.2,Win32,144.092219,,,,,,,,,,,,,,,,,,masks/mask_005.jpg,,,,,,,,,,,,,,,,,,,,,,,,,,,,,,,,,,,,,,,,,,,,,,,,0,2,2,4,1,,,,,,,,,,,,,,,,,,,,,,,,,,,,,,,,,,,,,,,,,
088354,001,2022-11-21_00h53.48.843,Info_measure_main_exp,2022.2.2,Win32,144.092219,,,,,,,,,,,,,,,,,,masks/mask_002.jpg,,,,,,,,,,,,,,,,,,,,,,,,,,,,,,,,,,,,,,,,,,,,,,,,0,3,3,1,1,,,,,,,,,,,,,,,,,,,,,,,,,,,,,,,,,,,,,,,,,
088354,001,2022-11-21_00h53.48.843,Info_measure_main_exp,2022.2.2,Win32,144.092219,,,,,,,,,,,,,,,,,,masks/mask_001.jpg,,,,,,,,,,,,,,,,,,,,,,,,,,,,,,,,,,,,,,,,,,,,,,,,0,4,4,0,1,,,,,,,,,,,,,,,,,,,,,,,,,,,,,,,,,,,,,,,,,
088354,001,2022-11-21_00h53.48.843,Info_measure_main_exp,2022.2.2,Win32,144.092219,,,,,,,,,,,,,,,,,,,,,,,,,,,,,,7,0.779,1,,,,,,,,,,,,0,131,5,5,1974,2238,absent_patch/patch0001974.jpg,absent_patch/patch0002238.jpg,,,,,,,,,,,,,,,,,,,,0.039814815,0.138888889,1,0,0,response1disk,26,0.012037037,0.012037037,1,0,0,center_square,0,25,25,95,1,,,,,,,,,,,,,,,,,,,,,,,
088354,001,2022-11-21_00h53.48.843,Info_measure_main_exp,2022.2.2,Win32,144.092219,,,,,,,,,,,,,,,,,,masks/mask_005.jpg,,,,,,,,,,,,,,,,,,,,,,,,,,,,,,,,,,,,,,,,,,,0,0,0,4,1,,,,,,,,,,,,,,,,,,,,,,,,,,,,,,,,,,,,,,,,,,,,,,
088354,001,2022-11-21_00h53.48.843,Info_measure_main_exp,2022.2.2,Win32,144.092219,,,,,,,,,,,,,,,,,,masks/mask_001.jpg,,,,,,,,,,,,,,,,,,,,,,,,,,,,,,,,,,,,,,,,,,,0,1,1,0,1,,,,,,,,,,,,,,,,,,,,,,,,,,,,,,,,,,,,,,,,,,,,,,
088354,001,2022-11-21_00h53.48.843,Info_measure_main_exp,2022.2.2,Win32,144.092219,,,,,,,,,,,,,,,,,,masks/mask_004.jpg,,,,,,,,,,,,,,,,,,,,,,,,,,,,,,,,,,,,,,,,,,,0,2,2,3,1,,,,,,,,,,,,,,,,,,,,,,,,,,,,,,,,,,,,,,,,,,,,,,
088354,001,2022-11-21_00h53.48.843,Info_measure_main_exp,2022.2.2,Win32,144.092219,,,,,,,,,,,,,,,,,,masks/mask_003.jpg,,,,,,,,,,,,,,,,,,,,,,,,,,,,,,,,,,,,,,,,,,,0,3,3,2,1,,,,,,,,,,,,,,,,,,,,,,,,,,,,,,,,,,,,,,,,,,,,,,
088354,001,2022-11-21_00h53.48.843,Info_measure_main_exp,2022.2.2,Win32,144.092219,,,,,,,,,,,,,,,,,,masks/mask_002.jpg,,,,,,,,,,,,,,,,,,,,,,,,,,,,,,,,,,,,,,,,,,,0,4,4,1,1,,,,,,,,,,,,,,,,,,,,,,,,,,,,,,,,,,,,,,,,,,,,,,
088354,001,2022-11-21_00h53.48.843,Info_measure_main_exp,2022.2.2,Win32,144.092219,,,,,,,,,,,,,,,,,,masks/mask_003.jpg,,,,,,,,,,,,,,,,,,,,,,,,,,,,,,,,,,,,,,,,,,,,,,,,0,0,0,2,1,,,,,,,,,,,,,,,,,,,,,,,,,,,,,,,,,,,,,,,,,
088354,001,2022-11-21_00h53.48.843,Info_measure_main_exp,2022.2.2,Win32,144.092219,,,,,,,,,,,,,,,,,,masks/mask_004.jpg,,,,,,,,,,,,,,,,,,,,,,,,,,,,,,,,,,,,,,,,,,,,,,,,0,1,1,3,1,,,,,,,,,,,,,,,,,,,,,,,,,,,,,,,,,,,,,,,,,
088354,001,2022-11-21_00h53.48.843,Info_measure_main_exp,2022.2.2,Win32,144.092219,,,,,,,,,,,,,,,,,,masks/mask_002.jpg,,,,,,,,,,,,,,,,,,,,,,,,,,,,,,,,,,,,,,,,,,,,,,,,0,2,2,1,1,,,,,,,,,,,,,,,,,,,,,,,,,,,,,,,,,,,,,,,,,
088354,001,2022-11-21_00h53.48.843,Info_measure_main_exp,2022.2.2,Win32,144.092219,,,,,,,,,,,,,,,,,,masks/mask_001.jpg,,,,,,,,,,,,,,,,,,,,,,,,,,,,,,,,,,,,,,,,,,,,,,,,0,3,3,0,1,,,,,,,,,,,,,,,,,,,,,,,,,,,,,,,,,,,,,,,,,
088354,001,2022-11-21_00h53.48.843,Info_measure_main_exp,2022.2.2,Win32,144.092219,,,,,,,,,,,,,,,,,,masks/mask_005.jpg,,,,,,,,,,,,,,,,,,,,,,,,,,,,,,,,,,,,,,,,,,,,,,,,0,4,4,4,1,,,,,,,,,,,,,,,,,,,,,,,,,,,,,,,,,,,,,,,,,
088354,001,2022-11-21_00h53.48.843,Info_measure_main_exp,2022.2.2,Win32,144.092219,,,,,,,,,,,,,,,,,,,,,,,,,,,,,,7,0.493,1,,,,,,,,,,,,0,131,5,5,2214,2142,absent_patch/patch0002214.jpg,absent_patch/patch0002142.jpg,,,,,,,,,,,,,,,,,,,,0.042592593,0.162037037,1,0,0,response1disk,27,0.001851852,0.012962963,1,0,0,center_square,0,26,26,102,1,,,,,,,,,,,,,,,,,,,,,,,
088354,001,2022-11-21_00h53.48.843,Info_measure_main_exp,2022.2.2,Win32,144.092219,,,,,,,,,,,,,,,,,,masks/mask_001.jpg,,,,,,,,,,,,,,,,,,,,,,,,,,,,,,,,,,,,,,,,,,,0,0,0,0,1,,,,,,,,,,,,,,,,,,,,,,,,,,,,,,,,,,,,,,,,,,,,,,
088354,001,2022-11-21_00h53.48.843,Info_measure_main_exp,2022.2.2,Win32,144.092219,,,,,,,,,,,,,,,,,,masks/mask_003.jpg,,,,,,,,,,,,,,,,,,,,,,,,,,,,,,,,,,,,,,,,,,,0,1,1,2,1,,,,,,,,,,,,,,,,,,,,,,,,,,,,,,,,,,,,,,,,,,,,,,
088354,001,2022-11-21_00h53.48.843,Info_measure_main_exp,2022.2.2,Win32,144.092219,,,,,,,,,,,,,,,,,,masks/mask_005.jpg,,,,,,,,,,,,,,,,,,,,,,,,,,,,,,,,,,,,,,,,,,,0,2,2,4,1,,,,,,,,,,,,,,,,,,,,,,,,,,,,,,,,,,,,,,,,,,,,,,
088354,001,2022-11-21_00h53.48.843,Info_measure_main_exp,2022.2.2,Win32,144.092219,,,,,,,,,,,,,,,,,,masks/mask_004.jpg,,,,,,,,,,,,,,,,,,,,,,,,,,,,,,,,,,,,,,,,,,,0,3,3,3,1,,,,,,,,,,,,,,,,,,,,,,,,,,,,,,,,,,,,,,,,,,,,,,
088354,001,2022-11-21_00h53.48.843,Info_measure_main_exp,2022.2.2,Win32,144.092219,,,,,,,,,,,,,,,,,,masks/mask_002.jpg,,,,,,,,,,,,,,,,,,,,,,,,,,,,,,,,,,,,,,,,,,,0,4,4,1,1,,,,,,,,,,,,,,,,,,,,,,,,,,,,,,,,,,,,,,,,,,,,,,
088354,001,2022-11-21_00h53.48.843,Info_measure_main_exp,2022.2.2,Win32,144.092219,,,,,,,,,,,,,,,,,,masks/mask_005.jpg,,,,,,,,,,,,,,,,,,,,,,,,,,,,,,,,,,,,,,,,,,,,,,,,0,0,0,4,1,,,,,,,,,,,,,,,,,,,,,,,,,,,,,,,,,,,,,,,,,
088354,001,2022-11-21_00h53.48.843,Info_measure_main_exp,2022.2.2,Win32,144.092219,,,,,,,,,,,,,,,,,,masks/mask_003.jpg,,,,,,,,,,,,,,,,,,,,,,,,,,,,,,,,,,,,,,,,,,,,,,,,0,1,1,2,1,,,,,,,,,,,,,,,,,,,,,,,,,,,,,,,,,,,,,,,,,
088354,001,2022-11-21_00h53.48.843,Info_measure_main_exp,2022.2.2,Win32,144.092219,,,,,,,,,,,,,,,,,,masks/mask_001.jpg,,,,,,,,,,,,,,,,,,,,,,,,,,,,,,,,,,,,,,,,,,,,,,,,0,2,2,0,1,,,,,,,,,,,,,,,,,,,,,,,,,,,,,,,,,,,,,,,,,
088354,001,2022-11-21_00h53.48.843,Info_measure_main_exp,2022.2.2,Win32,144.092219,,,,,,,,,,,,,,,,,,masks/mask_002.jpg,,,,,,,,,,,,,,,,,,,,,,,,,,,,,,,,,,,,,,,,,,,,,,,,0,3,3,1,1,,,,,,,,,,,,,,,,,,,,,,,,,,,,,,,,,,,,,,,,,
088354,001,2022-11-21_00h53.48.843,Info_measure_main_exp,2022.2.2,Win32,144.092219,,,,,,,,,,,,,,,,,,masks/mask_004.jpg,,,,,,,,,,,,,,,,,,,,,,,,,,,,,,,,,,,,,,,,,,,,,,,,0,4,4,3,1,,,,,,,,,,,,,,,,,,,,,,,,,,,,,,,,,,,,,,,,,
088354,001,2022-11-21_00h53.48.843,Info_measure_main_exp,2022.2.2,Win32,144.092219,,,,,,,,,,,,,,,,,,,,,,,,,,,,,,7,0.646,1,,,,,,,,,,,,0,131,5,5,2190,1974,absent_patch/patch0002190.jpg,absent_patch/patch0001974.jpg,,,,,,,,,,,,,,,,,,,,0.051851852,0.137962963,1,0,0,response1disk,28,0,0.008333333,1,0,0,center_square,0,27,27,119,1,,,,,,,,,,,,,,,,,,,,,,,
088354,001,2022-11-21_00h53.48.843,Info_measure_main_exp,2022.2.2,Win32,144.092219,,,,,,,,,,,,,,,,,,masks/mask_001.jpg,,,,,,,,,,,,,,,,,,,,,,,,,,,,,,,,,,,,,,,,,,,0,0,0,0,1,,,,,,,,,,,,,,,,,,,,,,,,,,,,,,,,,,,,,,,,,,,,,,
088354,001,2022-11-21_00h53.48.843,Info_measure_main_exp,2022.2.2,Win32,144.092219,,,,,,,,,,,,,,,,,,masks/mask_005.jpg,,,,,,,,,,,,,,,,,,,,,,,,,,,,,,,,,,,,,,,,,,,0,1,1,4,1,,,,,,,,,,,,,,,,,,,,,,,,,,,,,,,,,,,,,,,,,,,,,,
088354,001,2022-11-21_00h53.48.843,Info_measure_main_exp,2022.2.2,Win32,144.092219,,,,,,,,,,,,,,,,,,masks/mask_004.jpg,,,,,,,,,,,,,,,,,,,,,,,,,,,,,,,,,,,,,,,,,,,0,2,2,3,1,,,,,,,,,,,,,,,,,,,,,,,,,,,,,,,,,,,,,,,,,,,,,,
088354,001,2022-11-21_00h53.48.843,Info_measure_main_exp,2022.2.2,Win32,144.092219,,,,,,,,,,,,,,,,,,masks/mask_003.jpg,,,,,,,,,,,,,,,,,,,,,,,,,,,,,,,,,,,,,,,,,,,0,3,3,2,1,,,,,,,,,,,,,,,,,,,,,,,,,,,,,,,,,,,,,,,,,,,,,,
088354,001,2022-11-21_00h53.48.843,Info_measure_main_exp,2022.2.2,Win32,144.092219,,,,,,,,,,,,,,,,,,masks/mask_002.jpg,,,,,,,,,,,,,,,,,,,,,,,,,,,,,,,,,,,,,,,,,,,0,4,4,1,1,,,,,,,,,,,,,,,,,,,,,,,,,,,,,,,,,,,,,,,,,,,,,,
088354,001,2022-11-21_00h53.48.843,Info_measure_main_exp,2022.2.2,Win32,144.092219,,,,,,,,,,,,,,,,,,masks/mask_003.jpg,,,,,,,,,,,,,,,,,,,,,,,,,,,,,,,,,,,,,,,,,,,,,,,,0,0,0,2,1,,,,,,,,,,,,,,,,,,,,,,,,,,,,,,,,,,,,,,,,,
088354,001,2022-11-21_00h53.48.843,Info_measure_main_exp,2022.2.2,Win32,144.092219,,,,,,,,,,,,,,,,,,masks/mask_005.jpg,,,,,,,,,,,,,,,,,,,,,,,,,,,,,,,,,,,,,,,,,,,,,,,,0,1,1,4,1,,,,,,,,,,,,,,,,,,,,,,,,,,,,,,,,,,,,,,,,,
088354,001,2022-11-21_00h53.48.843,Info_measure_main_exp,2022.2.2,Win32,144.092219,,,,,,,,,,,,,,,,,,masks/mask_001.jpg,,,,,,,,,,,,,,,,,,,,,,,,,,,,,,,,,,,,,,,,,,,,,,,,0,2,2,0,1,,,,,,,,,,,,,,,,,,,,,,,,,,,,,,,,,,,,,,,,,
088354,001,2022-11-21_00h53.48.843,Info_measure_main_exp,2022.2.2,Win32,144.092219,,,,,,,,,,,,,,,,,,masks/mask_002.jpg,,,,,,,,,,,,,,,,,,,,,,,,,,,,,,,,,,,,,,,,,,,,,,,,0,3,3,1,1,,,,,,,,,,,,,,,,,,,,,,,,,,,,,,,,,,,,,,,,,
088354,001,2022-11-21_00h53.48.843,Info_measure_main_exp,2022.2.2,Win32,144.092219,,,,,,,,,,,,,,,,,,masks/mask_004.jpg,,,,,,,,,,,,,,,,,,,,,,,,,,,,,,,,,,,,,,,,,,,,,,,,0,4,4,3,1,,,,,,,,,,,,,,,,,,,,,,,,,,,,,,,,,,,,,,,,,
088354,001,2022-11-21_00h53.48.843,Info_measure_main_exp,2022.2.2,Win32,144.092219,,,,,,,,,,,,,,,,,,,,,,,,,,,,,,4,1.562,1,,,,,,,,,,,,0,131,5,5,1986,2274,absent_patch/patch0001986.jpg,absent_patch/patch0002274.jpg,,,,,,,,,,,,,,,,,,,,0.075,-0.147222222,1,0,0,response3disk,29,-0.006481481,0,1,0,0,center_square,0,28,28,7,1,,,,,,,,,,,,,,,,,,,,,,,
088354,001,2022-11-21_00h53.48.843,Info_measure_main_exp,2022.2.2,Win32,144.092219,,,,,,,,,,,,,,,,,,masks/mask_003.jpg,,,,,,,,,,,,,,,,,,,,,,,,,,,,,,,,,,,,,,,,,,,0,0,0,2,1,,,,,,,,,,,,,,,,,,,,,,,,,,,,,,,,,,,,,,,,,,,,,,
088354,001,2022-11-21_00h53.48.843,Info_measure_main_exp,2022.2.2,Win32,144.092219,,,,,,,,,,,,,,,,,,masks/mask_005.jpg,,,,,,,,,,,,,,,,,,,,,,,,,,,,,,,,,,,,,,,,,,,0,1,1,4,1,,,,,,,,,,,,,,,,,,,,,,,,,,,,,,,,,,,,,,,,,,,,,,
088354,001,2022-11-21_00h53.48.843,Info_measure_main_exp,2022.2.2,Win32,144.092219,,,,,,,,,,,,,,,,,,masks/mask_001.jpg,,,,,,,,,,,,,,,,,,,,,,,,,,,,,,,,,,,,,,,,,,,0,2,2,0,1,,,,,,,,,,,,,,,,,,,,,,,,,,,,,,,,,,,,,,,,,,,,,,
088354,001,2022-11-21_00h53.48.843,Info_measure_main_exp,2022.2.2,Win32,144.092219,,,,,,,,,,,,,,,,,,masks/mask_002.jpg,,,,,,,,,,,,,,,,,,,,,,,,,,,,,,,,,,,,,,,,,,,0,3,3,1,1,,,,,,,,,,,,,,,,,,,,,,,,,,,,,,,,,,,,,,,,,,,,,,
088354,001,2022-11-21_00h53.48.843,Info_measure_main_exp,2022.2.2,Win32,144.092219,,,,,,,,,,,,,,,,,,masks/mask_004.jpg,,,,,,,,,,,,,,,,,,,,,,,,,,,,,,,,,,,,,,,,,,,0,4,4,3,1,,,,,,,,,,,,,,,,,,,,,,,,,,,,,,,,,,,,,,,,,,,,,,
088354,001,2022-11-21_00h53.48.843,Info_measure_main_exp,2022.2.2,Win32,144.092219,,,,,,,,,,,,,,,,,,masks/mask_001.jpg,,,,,,,,,,,,,,,,,,,,,,,,,,,,,,,,,,,,,,,,,,,,,,,,0,0,0,0,1,,,,,,,,,,,,,,,,,,,,,,,,,,,,,,,,,,,,,,,,,
088354,001,2022-11-21_00h53.48.843,Info_measure_main_exp,2022.2.2,Win32,144.092219,,,,,,,,,,,,,,,,,,masks/mask_004.jpg,,,,,,,,,,,,,,,,,,,,,,,,,,,,,,,,,,,,,,,,,,,,,,,,0,1,1,3,1,,,,,,,,,,,,,,,,,,,,,,,,,,,,,,,,,,,,,,,,,
088354,001,2022-11-21_00h53.48.843,Info_measure_main_exp,2022.2.2,Win32,144.092219,,,,,,,,,,,,,,,,,,masks/mask_003.jpg,,,,,,,,,,,,,,,,,,,,,,,,,,,,,,,,,,,,,,,,,,,,,,,,0,2,2,2,1,,,,,,,,,,,,,,,,,,,,,,,,,,,,,,,,,,,,,,,,,
088354,001,2022-11-21_00h53.48.843,Info_measure_main_exp,2022.2.2,Win32,144.092219,,,,,,,,,,,,,,,,,,masks/mask_005.jpg,,,,,,,,,,,,,,,,,,,,,,,,,,,,,,,,,,,,,,,,,,,,,,,,0,3,3,4,1,,,,,,,,,,,,,,,,,,,,,,,,,,,,,,,,,,,,,,,,,
088354,001,2022-11-21_00h53.48.843,Info_measure_main_exp,2022.2.2,Win32,144.092219,,,,,,,,,,,,,,,,,,masks/mask_002.jpg,,,,,,,,,,,,,,,,,,,,,,,,,,,,,,,,,,,,,,,,,,,,,,,,0,4,4,1,1,,,,,,,,,,,,,,,,,,,,,,,,,,,,,,,,,,,,,,,,,
088354,001,2022-11-21_00h53.48.843,Info_measure_main_exp,2022.2.2,Win32,144.092219,,,,,,,,,,,,,,,,,,,,,,,,,,,,,,7,0.744,1,,,,,,,,,,,,0,131,5,5,2178,1986,absent_patch/patch0002178.jpg,absent_patch/patch0001986.jpg,,,,,,,,,,,,,,,,,,,,0.065740741,0.143518519,1,0,0,response1disk,30,0.003703704,0.005555556,1,0,0,center_square,0,29,29,46,1,,,,,,,,,,,,,,,,,,,,,,,
088354,001,2022-11-21_00h53.48.843,Info_measure_main_exp,2022.2.2,Win32,144.092219,,,,,,,,,,,,,,,,,,masks/mask_001.jpg,,,,,,,,,,,,,,,,,,,,,,,,,,,,,,,,,,,,,,,,,,,0,0,0,0,1,,,,,,,,,,,,,,,,,,,,,,,,,,,,,,,,,,,,,,,,,,,,,,
088354,001,2022-11-21_00h53.48.843,Info_measure_main_exp,2022.2.2,Win32,144.092219,,,,,,,,,,,,,,,,,,masks/mask_003.jpg,,,,,,,,,,,,,,,,,,,,,,,,,,,,,,,,,,,,,,,,,,,0,1,1,2,1,,,,,,,,,,,,,,,,,,,,,,,,,,,,,,,,,,,,,,,,,,,,,,
088354,001,2022-11-21_00h53.48.843,Info_measure_main_exp,2022.2.2,Win32,144.092219,,,,,,,,,,,,,,,,,,masks/mask_002.jpg,,,,,,,,,,,,,,,,,,,,,,,,,,,,,,,,,,,,,,,,,,,0,2,2,1,1,,,,,,,,,,,,,,,,,,,,,,,,,,,,,,,,,,,,,,,,,,,,,,
088354,001,2022-11-21_00h53.48.843,Info_measure_main_exp,2022.2.2,Win32,144.092219,,,,,,,,,,,,,,,,,,masks/mask_005.jpg,,,,,,,,,,,,,,,,,,,,,,,,,,,,,,,,,,,,,,,,,,,0,3,3,4,1,,,,,,,,,,,,,,,,,,,,,,,,,,,,,,,,,,,,,,,,,,,,,,
088354,001,2022-11-21_00h53.48.843,Info_measure_main_exp,2022.2.2,Win32,144.092219,,,,,,,,,,,,,,,,,,masks/mask_004.jpg,,,,,,,,,,,,,,,,,,,,,,,,,,,,,,,,,,,,,,,,,,,0,4,4,3,1,,,,,,,,,,,,,,,,,,,,,,,,,,,,,,,,,,,,,,,,,,,,,,
088354,001,2022-11-21_00h53.48.843,Info_measure_main_exp,2022.2.2,Win32,144.092219,,,,,,,,,,,,,,,,,,masks/mask_001.jpg,,,,,,,,,,,,,,,,,,,,,,,,,,,,,,,,,,,,,,,,,,,,,,,,0,0,0,0,1,,,,,,,,,,,,,,,,,,,,,,,,,,,,,,,,,,,,,,,,,
088354,001,2022-11-21_00h53.48.843,Info_measure_main_exp,2022.2.2,Win32,144.092219,,,,,,,,,,,,,,,,,,masks/mask_004.jpg,,,,,,,,,,,,,,,,,,,,,,,,,,,,,,,,,,,,,,,,,,,,,,,,0,1,1,3,1,,,,,,,,,,,,,,,,,,,,,,,,,,,,,,,,,,,,,,,,,
088354,001,2022-11-21_00h53.48.843,Info_measure_main_exp,2022.2.2,Win32,144.092219,,,,,,,,,,,,,,,,,,masks/mask_003.jpg,,,,,,,,,,,,,,,,,,,,,,,,,,,,,,,,,,,,,,,,,,,,,,,,0,2,2,2,1,,,,,,,,,,,,,,,,,,,,,,,,,,,,,,,,,,,,,,,,,
088354,001,2022-11-21_00h53.48.843,Info_measure_main_exp,2022.2.2,Win32,144.092219,,,,,,,,,,,,,,,,,,masks/mask_005.jpg,,,,,,,,,,,,,,,,,,,,,,,,,,,,,,,,,,,,,,,,,,,,,,,,0,3,3,4,1,,,,,,,,,,,,,,,,,,,,,,,,,,,,,,,,,,,,,,,,,
088354,001,2022-11-21_00h53.48.843,Info_measure_main_exp,2022.2.2,Win32,144.092219,,,,,,,,,,,,,,,,,,masks/mask_002.jpg,,,,,,,,,,,,,,,,,,,,,,,,,,,,,,,,,,,,,,,,,,,,,,,,0,4,4,1,1,,,,,,,,,,,,,,,,,,,,,,,,,,,,,,,,,,,,,,,,,
088354,001,2022-11-21_00h53.48.843,Info_measure_main_exp,2022.2.2,Win32,144.092219,,,,,,,,,,,,,,,,,,,,,,,,,,,,,,7,0.556,1,,,,,,,,,,,,0,131,5,5,2190,1950,absent_patch/patch0002190.jpg,absent_patch/patch0001950.jpg,,,,,,,,,,,,,,,,,,,,0.05,0.133333333,1,0,0,response1disk,31,0.003703704,-0.007407407,1,0,0,center_square,0,30,30,73,1,,,,,,,,,,,,,,,,,,,,,,,
088354,001,2022-11-21_00h53.48.843,Info_measure_main_exp,2022.2.2,Win32,144.092219,,,,,,,,,,,,,,,,,,masks/mask_002.jpg,,,,,,,,,,,,,,,,,,,,,,,,,,,,,,,,,,,,,,,,,,,0,0,0,1,1,,,,,,,,,,,,,,,,,,,,,,,,,,,,,,,,,,,,,,,,,,,,,,
088354,001,2022-11-21_00h53.48.843,Info_measure_main_exp,2022.2.2,Win32,144.092219,,,,,,,,,,,,,,,,,,masks/mask_003.jpg,,,,,,,,,,,,,,,,,,,,,,,,,,,,,,,,,,,,,,,,,,,0,1,1,2,1,,,,,,,,,,,,,,,,,,,,,,,,,,,,,,,,,,,,,,,,,,,,,,
088354,001,2022-11-21_00h53.48.843,Info_measure_main_exp,2022.2.2,Win32,144.092219,,,,,,,,,,,,,,,,,,masks/mask_001.jpg,,,,,,,,,,,,,,,,,,,,,,,,,,,,,,,,,,,,,,,,,,,0,2,2,0,1,,,,,,,,,,,,,,,,,,,,,,,,,,,,,,,,,,,,,,,,,,,,,,
088354,001,2022-11-21_00h53.48.843,Info_measure_main_exp,2022.2.2,Win32,144.092219,,,,,,,,,,,,,,,,,,masks/mask_004.jpg,,,,,,,,,,,,,,,,,,,,,,,,,,,,,,,,,,,,,,,,,,,0,3,3,3,1,,,,,,,,,,,,,,,,,,,,,,,,,,,,,,,,,,,,,,,,,,,,,,
088354,001,2022-11-21_00h53.48.843,Info_measure_main_exp,2022.2.2,Win32,144.092219,,,,,,,,,,,,,,,,,,masks/mask_005.jpg,,,,,,,,,,,,,,,,,,,,,,,,,,,,,,,,,,,,,,,,,,,0,4,4,4,1,,,,,,,,,,,,,,,,,,,,,,,,,,,,,,,,,,,,,,,,,,,,,,
088354,001,2022-11-21_00h53.48.843,Info_measure_main_exp,2022.2.2,Win32,144.092219,,,,,,,,,,,,,,,,,,masks/mask_003.jpg,,,,,,,,,,,,,,,,,,,,,,,,,,,,,,,,,,,,,,,,,,,,,,,,0,0,0,2,1,,,,,,,,,,,,,,,,,,,,,,,,,,,,,,,,,,,,,,,,,
088354,001,2022-11-21_00h53.48.843,Info_measure_main_exp,2022.2.2,Win32,144.092219,,,,,,,,,,,,,,,,,,masks/mask_004.jpg,,,,,,,,,,,,,,,,,,,,,,,,,,,,,,,,,,,,,,,,,,,,,,,,0,1,1,3,1,,,,,,,,,,,,,,,,,,,,,,,,,,,,,,,,,,,,,,,,,
088354,001,2022-11-21_00h53.48.843,Info_measure_main_exp,2022.2.2,Win32,144.092219,,,,,,,,,,,,,,,,,,masks/mask_005.jpg,,,,,,,,,,,,,,,,,,,,,,,,,,,,,,,,,,,,,,,,,,,,,,,,0,2,2,4,1,,,,,,,,,,,,,,,,,,,,,,,,,,,,,,,,,,,,,,,,,
088354,001,2022-11-21_00h53.48.843,Info_measure_main_exp,2022.2.2,Win32,144.092219,,,,,,,,,,,,,,,,,,masks/mask_002.jpg,,,,,,,,,,,,,,,,,,,,,,,,,,,,,,,,,,,,,,,,,,,,,,,,0,3,3,1,1,,,,,,,,,,,,,,,,,,,,,,,,,,,,,,,,,,,,,,,,,
088354,001,2022-11-21_00h53.48.843,Info_measure_main_exp,2022.2.2,Win32,144.092219,,,,,,,,,,,,,,,,,,masks/mask_001.jpg,,,,,,,,,,,,,,,,,,,,,,,,,,,,,,,,,,,,,,,,,,,,,,,,0,4,4,0,1,,,,,,,,,,,,,,,,,,,,,,,,,,,,,,,,,,,,,,,,,
088354,001,2022-11-21_00h53.48.843,Info_measure_main_exp,2022.2.2,Win32,144.092219,,,,,,,,,,,,,,,,,,,,,,,,,,,,,,0,0.598,1,,,,,,,,,,,,0,131,5,5,1974,1974,absent_patch/patch0001974.jpg,absent_patch/patch0001974.jpg,,,,,,,,,,,,,,,,,,,,-0.058333333,0.130555556,1,0,0,response7disk,32,-0.002777778,-0.00462963,1,0,0,center_square,0,31,31,113,1,,,,,,,,,,,,,,,,,,,,,,,
088354,001,2022-11-21_00h53.48.843,Info_measure_main_exp,2022.2.2,Win32,144.092219,,,,,,,,,,,,,,,,,,masks/mask_001.jpg,,,,,,,,,,,,,,,,,,,,,,,,,,,,,,,,,,,,,,,,,,,0,0,0,0,1,,,,,,,,,,,,,,,,,,,,,,,,,,,,,,,,,,,,,,,,,,,,,,
088354,001,2022-11-21_00h53.48.843,Info_measure_main_exp,2022.2.2,Win32,144.092219,,,,,,,,,,,,,,,,,,masks/mask_004.jpg,,,,,,,,,,,,,,,,,,,,,,,,,,,,,,,,,,,,,,,,,,,0,1,1,3,1,,,,,,,,,,,,,,,,,,,,,,,,,,,,,,,,,,,,,,,,,,,,,,
088354,001,2022-11-21_00h53.48.843,Info_measure_main_exp,2022.2.2,Win32,144.092219,,,,,,,,,,,,,,,,,,masks/mask_005.jpg,,,,,,,,,,,,,,,,,,,,,,,,,,,,,,,,,,,,,,,,,,,0,2,2,4,1,,,,,,,,,,,,,,,,,,,,,,,,,,,,,,,,,,,,,,,,,,,,,,
088354,001,2022-11-21_00h53.48.843,Info_measure_main_exp,2022.2.2,Win32,144.092219,,,,,,,,,,,,,,,,,,masks/mask_002.jpg,,,,,,,,,,,,,,,,,,,,,,,,,,,,,,,,,,,,,,,,,,,0,3,3,1,1,,,,,,,,,,,,,,,,,,,,,,,,,,,,,,,,,,,,,,,,,,,,,,
088354,001,2022-11-21_00h53.48.843,Info_measure_main_exp,2022.2.2,Win32,144.092219,,,,,,,,,,,,,,,,,,masks/mask_003.jpg,,,,,,,,,,,,,,,,,,,,,,,,,,,,,,,,,,,,,,,,,,,0,4,4,2,1,,,,,,,,,,,,,,,,,,,,,,,,,,,,,,,,,,,,,,,,,,,,,,
088354,001,2022-11-21_00h53.48.843,Info_measure_main_exp,2022.2.2,Win32,144.092219,,,,,,,,,,,,,,,,,,masks/mask_002.jpg,,,,,,,,,,,,,,,,,,,,,,,,,,,,,,,,,,,,,,,,,,,,,,,,0,0,0,1,1,,,,,,,,,,,,,,,,,,,,,,,,,,,,,,,,,,,,,,,,,
088354,001,2022-11-21_00h53.48.843,Info_measure_main_exp,2022.2.2,Win32,144.092219,,,,,,,,,,,,,,,,,,masks/mask_003.jpg,,,,,,,,,,,,,,,,,,,,,,,,,,,,,,,,,,,,,,,,,,,,,,,,0,1,1,2,1,,,,,,,,,,,,,,,,,,,,,,,,,,,,,,,,,,,,,,,,,
088354,001,2022-11-21_00h53.48.843,Info_measure_main_exp,2022.2.2,Win32,144.092219,,,,,,,,,,,,,,,,,,masks/mask_005.jpg,,,,,,,,,,,,,,,,,,,,,,,,,,,,,,,,,,,,,,,,,,,,,,,,0,2,2,4,1,,,,,,,,,,,,,,,,,,,,,,,,,,,,,,,,,,,,,,,,,
088354,001,2022-11-21_00h53.48.843,Info_measure_main_exp,2022.2.2,Win32,144.092219,,,,,,,,,,,,,,,,,,masks/mask_001.jpg,,,,,,,,,,,,,,,,,,,,,,,,,,,,,,,,,,,,,,,,,,,,,,,,0,3,3,0,1,,,,,,,,,,,,,,,,,,,,,,,,,,,,,,,,,,,,,,,,,
088354,001,2022-11-21_00h53.48.843,Info_measure_main_exp,2022.2.2,Win32,144.092219,,,,,,,,,,,,,,,,,,masks/mask_004.jpg,,,,,,,,,,,,,,,,,,,,,,,,,,,,,,,,,,,,,,,,,,,,,,,,0,4,4,3,1,,,,,,,,,,,,,,,,,,,,,,,,,,,,,,,,,,,,,,,,,
088354,001,2022-11-21_00h53.48.843,Info_measure_main_exp,2022.2.2,Win32,144.092219,,,,,,,,,,,,,,,,,,,,,,,,,,,,,,4,1.944,1,,,,,,,,,,,,1,131,5,5,2238,1,absent_patch/patch0002238.jpg,present_patch/cong_131_5_a.jpg,,,,,,,,,,,,,,,,,,,,0.044444444,-0.127777778,1,0,0,response3disk,33,0,-0.005555556,1,0,0,center_square,0,32,32,104,1,,,,,,,,,,,,,,,,,,,,,,,
088354,001,2022-11-21_00h53.48.843,Info_measure_main_exp,2022.2.2,Win32,144.092219,,,,,,,,,,,,,,,,,,masks/mask_001.jpg,,,,,,,,,,,,,,,,,,,,,,,,,,,,,,,,,,,,,,,,,,,0,0,0,0,1,,,,,,,,,,,,,,,,,,,,,,,,,,,,,,,,,,,,,,,,,,,,,,
088354,001,2022-11-21_00h53.48.843,Info_measure_main_exp,2022.2.2,Win32,144.092219,,,,,,,,,,,,,,,,,,masks/mask_002.jpg,,,,,,,,,,,,,,,,,,,,,,,,,,,,,,,,,,,,,,,,,,,0,1,1,1,1,,,,,,,,,,,,,,,,,,,,,,,,,,,,,,,,,,,,,,,,,,,,,,
088354,001,2022-11-21_00h53.48.843,Info_measure_main_exp,2022.2.2,Win32,144.092219,,,,,,,,,,,,,,,,,,masks/mask_005.jpg,,,,,,,,,,,,,,,,,,,,,,,,,,,,,,,,,,,,,,,,,,,0,2,2,4,1,,,,,,,,,,,,,,,,,,,,,,,,,,,,,,,,,,,,,,,,,,,,,,
088354,001,2022-11-21_00h53.48.843,Info_measure_main_exp,2022.2.2,Win32,144.092219,,,,,,,,,,,,,,,,,,masks/mask_003.jpg,,,,,,,,,,,,,,,,,,,,,,,,,,,,,,,,,,,,,,,,,,,0,3,3,2,1,,,,,,,,,,,,,,,,,,,,,,,,,,,,,,,,,,,,,,,,,,,,,,
088354,001,2022-11-21_00h53.48.843,Info_measure_main_exp,2022.2.2,Win32,144.092219,,,,,,,,,,,,,,,,,,masks/mask_004.jpg,,,,,,,,,,,,,,,,,,,,,,,,,,,,,,,,,,,,,,,,,,,0,4,4,3,1,,,,,,,,,,,,,,,,,,,,,,,,,,,,,,,,,,,,,,,,,,,,,,
088354,001,2022-11-21_00h53.48.843,Info_measure_main_exp,2022.2.2,Win32,144.092219,,,,,,,,,,,,,,,,,,masks/mask_003.jpg,,,,,,,,,,,,,,,,,,,,,,,,,,,,,,,,,,,,,,,,,,,,,,,,0,0,0,2,1,,,,,,,,,,,,,,,,,,,,,,,,,,,,,,,,,,,,,,,,,
088354,001,2022-11-21_00h53.48.843,Info_measure_main_exp,2022.2.2,Win32,144.092219,,,,,,,,,,,,,,,,,,masks/mask_002.jpg,,,,,,,,,,,,,,,,,,,,,,,,,,,,,,,,,,,,,,,,,,,,,,,,0,1,1,1,1,,,,,,,,,,,,,,,,,,,,,,,,,,,,,,,,,,,,,,,,,
088354,001,2022-11-21_00h53.48.843,Info_measure_main_exp,2022.2.2,Win32,144.092219,,,,,,,,,,,,,,,,,,masks/mask_005.jpg,,,,,,,,,,,,,,,,,,,,,,,,,,,,,,,,,,,,,,,,,,,,,,,,0,2,2,4,1,,,,,,,,,,,,,,,,,,,,,,,,,,,,,,,,,,,,,,,,,
088354,001,2022-11-21_00h53.48.843,Info_measure_main_exp,2022.2.2,Win32,144.092219,,,,,,,,,,,,,,,,,,masks/mask_004.jpg,,,,,,,,,,,,,,,,,,,,,,,,,,,,,,,,,,,,,,,,,,,,,,,,0,3,3,3,1,,,,,,,,,,,,,,,,,,,,,,,,,,,,,,,,,,,,,,,,,
088354,001,2022-11-21_00h53.48.843,Info_measure_main_exp,2022.2.2,Win32,144.092219,,,,,,,,,,,,,,,,,,masks/mask_001.jpg,,,,,,,,,,,,,,,,,,,,,,,,,,,,,,,,,,,,,,,,,,,,,,,,0,4,4,0,1,,,,,,,,,,,,,,,,,,,,,,,,,,,,,,,,,,,,,,,,,
088354,001,2022-11-21_00h53.48.843,Info_measure_main_exp,2022.2.2,Win32,144.092219,,,,,,,,,,,,,,,,,,,,,,,,,,,,,,7,1.278,1,,,,,,,,,,,,1,131,5,5,2082,1,absent_patch/patch0002082.jpg,present_patch/cong_131_5_a.jpg,,,,,,,,,,,,,,,,,,,,0.030555556,0.150925926,1,0,0,response1disk,34,-0.003703704,0.008333333,1,0,0,center_square,0,33,33,65,1,,,,,,,,,,,,,,,,,,,,,,,
088354,001,2022-11-21_00h53.48.843,Info_measure_main_exp,2022.2.2,Win32,144.092219,,,,,,,,,,,,,,,,,,masks/mask_002.jpg,,,,,,,,,,,,,,,,,,,,,,,,,,,,,,,,,,,,,,,,,,,0,0,0,1,1,,,,,,,,,,,,,,,,,,,,,,,,,,,,,,,,,,,,,,,,,,,,,,
088354,001,2022-11-21_00h53.48.843,Info_measure_main_exp,2022.2.2,Win32,144.092219,,,,,,,,,,,,,,,,,,masks/mask_004.jpg,,,,,,,,,,,,,,,,,,,,,,,,,,,,,,,,,,,,,,,,,,,0,1,1,3,1,,,,,,,,,,,,,,,,,,,,,,,,,,,,,,,,,,,,,,,,,,,,,,
088354,001,2022-11-21_00h53.48.843,Info_measure_main_exp,2022.2.2,Win32,144.092219,,,,,,,,,,,,,,,,,,masks/mask_005.jpg,,,,,,,,,,,,,,,,,,,,,,,,,,,,,,,,,,,,,,,,,,,0,2,2,4,1,,,,,,,,,,,,,,,,,,,,,,,,,,,,,,,,,,,,,,,,,,,,,,
088354,001,2022-11-21_00h53.48.843,Info_measure_main_exp,2022.2.2,Win32,144.092219,,,,,,,,,,,,,,,,,,masks/mask_003.jpg,,,,,,,,,,,,,,,,,,,,,,,,,,,,,,,,,,,,,,,,,,,0,3,3,2,1,,,,,,,,,,,,,,,,,,,,,,,,,,,,,,,,,,,,,,,,,,,,,,
088354,001,2022-11-21_00h53.48.843,Info_measure_main_exp,2022.2.2,Win32,144.092219,,,,,,,,,,,,,,,,,,masks/mask_001.jpg,,,,,,,,,,,,,,,,,,,,,,,,,,,,,,,,,,,,,,,,,,,0,4,4,0,1,,,,,,,,,,,,,,,,,,,,,,,,,,,,,,,,,,,,,,,,,,,,,,
088354,001,2022-11-21_00h53.48.843,Info_measure_main_exp,2022.2.2,Win32,144.092219,,,,,,,,,,,,,,,,,,masks/mask_001.jpg,,,,,,,,,,,,,,,,,,,,,,,,,,,,,,,,,,,,,,,,,,,,,,,,0,0,0,0,1,,,,,,,,,,,,,,,,,,,,,,,,,,,,,,,,,,,,,,,,,
088354,001,2022-11-21_00h53.48.843,Info_measure_main_exp,2022.2.2,Win32,144.092219,,,,,,,,,,,,,,,,,,masks/mask_005.jpg,,,,,,,,,,,,,,,,,,,,,,,,,,,,,,,,,,,,,,,,,,,,,,,,0,1,1,4,1,,,,,,,,,,,,,,,,,,,,,,,,,,,,,,,,,,,,,,,,,
088354,001,2022-11-21_00h53.48.843,Info_measure_main_exp,2022.2.2,Win32,144.092219,,,,,,,,,,,,,,,,,,masks/mask_002.jpg,,,,,,,,,,,,,,,,,,,,,,,,,,,,,,,,,,,,,,,,,,,,,,,,0,2,2,1,1,,,,,,,,,,,,,,,,,,,,,,,,,,,,,,,,,,,,,,,,,
088354,001,2022-11-21_00h53.48.843,Info_measure_main_exp,2022.2.2,Win32,144.092219,,,,,,,,,,,,,,,,,,masks/mask_003.jpg,,,,,,,,,,,,,,,,,,,,,,,,,,,,,,,,,,,,,,,,,,,,,,,,0,3,3,2,1,,,,,,,,,,,,,,,,,,,,,,,,,,,,,,,,,,,,,,,,,
088354,001,2022-11-21_00h53.48.843,Info_measure_main_exp,2022.2.2,Win32,144.092219,,,,,,,,,,,,,,,,,,masks/mask_004.jpg,,,,,,,,,,,,,,,,,,,,,,,,,,,,,,,,,,,,,,,,,,,,,,,,0,4,4,3,1,,,,,,,,,,,,,,,,,,,,,,,,,,,,,,,,,,,,,,,,,
088354,001,2022-11-21_00h53.48.843,Info_measure_main_exp,2022.2.2,Win32,144.092219,,,,,,,,,,,,,,,,,,,,,,,,,,,,,,0,0.632,1,,,,,,,,,,,,0,131,5,5,2250,2250,absent_patch/patch0002250.jpg,absent_patch/patch0002250.jpg,,,,,,,,,,,,,,,,,,,,-0.062037037,0.147222222,1,0,0,response7disk,35,-0.006481481,0.012037037,1,0,0,center_square,0,34,34,56,1,,,,,,,,,,,,,,,,,,,,,,,
