participant,session,date,expName,psychopyVersion,OS,frameRate,space_press_continue.keys,space_press_continue.rt,space_press_continue_2.keys,space_press_continue_2.rt,space_press_continue_3.keys,space_press_continue_3.rt,space_press_continue_4.keys,space_press_continue_4.rt,space_press_continue_5.keys,space_press_continue_5.rt,space_press_continue_6.keys,space_press_continue_6.rt,prac_mask_loop_1.thisRepN,prac_mask_loop_1.thisTrialN,prac_mask_loop_1.thisN,prac_mask_loop_1.thisIndex,prac_mask_loop_1.ran,mask_name,prac_mask_loop_2.thisRepN,prac_mask_loop_2.thisTrialN,prac_mask_loop_2.thisN,prac_mask_loop_2.thisIndex,prac_mask_loop_2.ran,mouse_2.x,mouse_2.y,mouse_2.leftButton,mouse_2.midButton,mouse_2.rightButton,mouse_2.clicked_name,similarity,response_time,Pass,mouse_12.x,mouse_12.y,mouse_12.leftButton,mouse_12.midButton,mouse_12.rightButton,mouse_12.clicked_name,prac_loop.thisRepN,prac_loop.thisTrialN,prac_loop.thisN,prac_loop.thisIndex,prac_loop.ran,Pair_type,Image_num,Patch_1_loc,Patch_2_loc,Patch_1_info,Patch_2_info,Patch_1_name,Patch_2_name,mouse_1.x,mouse_1.y,mouse_1.leftButton,mouse_1.midButton,mouse_1.rightButton,mouse_1.time,mouse_1.clicked_name,space_press_continue_7.keys,space_press_continue_7.rt,mask_loop.thisRepN,mask_loop.thisTrialN,mask_loop.thisN,mask_loop.thisIndex,mask_loop.ran,mask_loop_2.thisRepN,mask_loop_2.thisTrialN,mask_loop_2.thisN,mask_loop_2.thisIndex,mask_loop_2.ran,mouse.x,mouse.y,mouse.leftButton,mouse.midButton,mouse.rightButton,mouse.clicked_name,trialNumber,mouse_11.x,mouse_11.y,mouse_11.leftButton,mouse_11.midButton,mouse_11.rightButton,mouse_11.clicked_name,first_pass_loop.thisRepN,first_pass_loop.thisTrialN,first_pass_loop.thisN,first_pass_loop.thisIndex,first_pass_loop.ran,mask_loop_3.thisRepN,mask_loop_3.thisTrialN,mask_loop_3.thisN,mask_loop_3.thisIndex,mask_loop_3.ran,mask_loop_4.thisRepN,mask_loop_4.thisTrialN,mask_loop_4.thisN,mask_loop_4.thisIndex,mask_loop_4.ran,mouse_3.x,mouse_3.y,mouse_3.leftButton,mouse_3.midButton,mouse_3.rightButton,mouse_3.clicked_name,double_pass_loop.thisRepN,double_pass_loop.thisTrialN,double_pass_loop.thisN,double_pass_loop.thisIndex,double_pass_loop.ran,space_exit.keys,space_exit.rt
089497,001,2022-11-20_23h54.58.978,Info_measure_main_exp,2022.2.2,Win32,60.04202942,,,,,,,,,,,,,,,,,,,,,,,,,,,,,,,,,,,,,,,,,,,,,,,,,,,,,,,,,,,,,,,,,,,,,,,,,,,,,,,,,,,,,,,,,,,,,,,,,,,,,,,,,,,,,,,
089497,001,2022-11-20_23h54.58.978,Info_measure_main_exp,2022.2.2,Win32,60.04202942,,,,,,,,,,,,,,,,,,,,,,,,,,,,,,,,,,,,,,,,,,,,,,,,,,,,,,,,,,,,,,,,,,,,,,,,,,,,,,,,,,,,,,,,,,,,,,,,,,,,,,,,,,,,,,,
089497,001,2022-11-20_23h54.58.978,Info_measure_main_exp,2022.2.2,Win32,60.04202942,space,5.305,,,,,,,,,,,,,,,,,,,,,,,,,,,,,,,,,,,,,,,,,,,,,,,,,,,,,,,,,,,,,,,,,,,,,,,,,,,,,,,,,,,,,,,,,,,,,,,,,,,,,,,,,,,,,
089497,001,2022-11-20_23h54.58.978,Info_measure_main_exp,2022.2.2,Win32,60.04202942,,,space,7.5363,,,,,,,,,,,,,,,,,,,,,,,,,,,,,,,,,,,,,,,,,,,,,,,,,,,,,,,,,,,,,,,,,,,,,,,,,,,,,,,,,,,,,,,,,,,,,,,,,,,,,,,,,,,
089497,001,2022-11-20_23h54.58.978,Info_measure_main_exp,2022.2.2,Win32,60.04202942,,,,,space,5.408,,,,,,,,,,,,,,,,,,,,,,,,,,,,,,,,,,,,,,,,,,,,,,,,,,,,,,,,,,,,,,,,,,,,,,,,,,,,,,,,,,,,,,,,,,,,,,,,,,,,,,,,,
089497,001,2022-11-20_23h54.58.978,Info_measure_main_exp,2022.2.2,Win32,60.04202942,,,,,,,space,11.0293,,,,,,,,,,,,,,,,,,,,,,,,,,,,,,,,,,,,,,,,,,,,,,,,,,,,,,,,,,,,,,,,,,,,,,,,,,,,,,,,,,,,,,,,,,,,,,,,,,,,,,,
089497,001,2022-11-20_23h54.58.978,Info_measure_main_exp,2022.2.2,Win32,60.04202942,,,,,,,,,space,4.6788,,,,,,,,,,,,,,,,,,,,,,,,,,,,,,,,,,,,,,,,,,,,,,,,,,,,,,,,,,,,,,,,,,,,,,,,,,,,,,,,,,,,,,,,,,,,,,,,,,,,,
089497,001,2022-11-20_23h54.58.978,Info_measure_main_exp,2022.2.2,Win32,60.04202942,,,,,,,,,,,space,4.9148,,,,,,,,,,,,,,,,,,,,,,,,,,,,,,,,,,,,,,,,,,,,,,,,,,,,,,,,,,,,,,,,,,,,,,,,,,,,,,,,,,,,,,,,,,,,,,,,,,,
089497,001,2022-11-20_23h54.58.978,Info_measure_main_exp,2022.2.2,Win32,60.04202942,,,,,,,,,,,,,0,0,0,0,1,masks/mask_001.jpg,,,,,,,,,,,,,,,,,,,,,,,,,,,,,,,,,,,,,,,,,,,,,,,,,,,,,,,,,,,,,,,,,,,,,,,,,,,,,,,,,,,,,,,,,,,,,
089497,001,2022-11-20_23h54.58.978,Info_measure_main_exp,2022.2.2,Win32,60.04202942,,,,,,,,,,,,,0,1,1,2,1,masks/mask_003.jpg,,,,,,,,,,,,,,,,,,,,,,,,,,,,,,,,,,,,,,,,,,,,,,,,,,,,,,,,,,,,,,,,,,,,,,,,,,,,,,,,,,,,,,,,,,,,,
089497,001,2022-11-20_23h54.58.978,Info_measure_main_exp,2022.2.2,Win32,60.04202942,,,,,,,,,,,,,0,2,2,1,1,masks/mask_002.jpg,,,,,,,,,,,,,,,,,,,,,,,,,,,,,,,,,,,,,,,,,,,,,,,,,,,,,,,,,,,,,,,,,,,,,,,,,,,,,,,,,,,,,,,,,,,,,
089497,001,2022-11-20_23h54.58.978,Info_measure_main_exp,2022.2.2,Win32,60.04202942,,,,,,,,,,,,,0,3,3,4,1,masks/mask_005.jpg,,,,,,,,,,,,,,,,,,,,,,,,,,,,,,,,,,,,,,,,,,,,,,,,,,,,,,,,,,,,,,,,,,,,,,,,,,,,,,,,,,,,,,,,,,,,,
089497,001,2022-11-20_23h54.58.978,Info_measure_main_exp,2022.2.2,Win32,60.04202942,,,,,,,,,,,,,0,4,4,3,1,masks/mask_004.jpg,,,,,,,,,,,,,,,,,,,,,,,,,,,,,,,,,,,,,,,,,,,,,,,,,,,,,,,,,,,,,,,,,,,,,,,,,,,,,,,,,,,,,,,,,,,,,
089497,001,2022-11-20_23h54.58.978,Info_measure_main_exp,2022.2.2,Win32,60.04202942,,,,,,,,,,,,,,,,,,masks/mask_003.jpg,0,0,0,2,1,,,,,,,,,,,,,,,,,,,,,,,,,,,,,,,,,,,,,,,,,,,,,,,,,,,,,,,,,,,,,,,,,,,,,,,,,,,,,,,,,,,,,,,,
089497,001,2022-11-20_23h54.58.978,Info_measure_main_exp,2022.2.2,Win32,60.04202942,,,,,,,,,,,,,,,,,,masks/mask_004.jpg,0,1,1,3,1,,,,,,,,,,,,,,,,,,,,,,,,,,,,,,,,,,,,,,,,,,,,,,,,,,,,,,,,,,,,,,,,,,,,,,,,,,,,,,,,,,,,,,,,
089497,001,2022-11-20_23h54.58.978,Info_measure_main_exp,2022.2.2,Win32,60.04202942,,,,,,,,,,,,,,,,,,masks/mask_002.jpg,0,2,2,1,1,,,,,,,,,,,,,,,,,,,,,,,,,,,,,,,,,,,,,,,,,,,,,,,,,,,,,,,,,,,,,,,,,,,,,,,,,,,,,,,,,,,,,,,,
089497,001,2022-11-20_23h54.58.978,Info_measure_main_exp,2022.2.2,Win32,60.04202942,,,,,,,,,,,,,,,,,,masks/mask_005.jpg,0,3,3,4,1,,,,,,,,,,,,,,,,,,,,,,,,,,,,,,,,,,,,,,,,,,,,,,,,,,,,,,,,,,,,,,,,,,,,,,,,,,,,,,,,,,,,,,,,
089497,001,2022-11-20_23h54.58.978,Info_measure_main_exp,2022.2.2,Win32,60.04202942,,,,,,,,,,,,,,,,,,masks/mask_001.jpg,0,4,4,0,1,,,,,,,,,,,,,,,,,,,,,,,,,,,,,,,,,,,,,,,,,,,,,,,,,,,,,,,,,,,,,,,,,,,,,,,,,,,,,,,,,,,,,,,,
089497,001,2022-11-20_23h54.58.978,Info_measure_main_exp,2022.2.2,Win32,60.04202942,,,,,,,,,,,,,,,,,,,,,,,,-0.012962935,-0.065740755,1,0,0,response5disk,3,42.6595,1,0.003703732,-0.005555556,1,0,0,center_square,0,0,0,1,1,0,131,5,5,2514,2490,prac_patch/patch0002514.jpg,prac_patch/patch0002490.jpg,,,,,,,,,,,,,,,,,,,,,,,,,,,,,,,,,,,,,,,,,,,,,,,,,,,,,,,,,,,,
089497,001,2022-11-20_23h54.58.978,Info_measure_main_exp,2022.2.2,Win32,60.04202942,,,,,,,,,,,,,0,0,0,2,1,masks/mask_003.jpg,,,,,,,,,,,,,,,,,,,,,,,,,,,,,,,,,,,,,,,,,,,,,,,,,,,,,,,,,,,,,,,,,,,,,,,,,,,,,,,,,,,,,,,,,,,,,
089497,001,2022-11-20_23h54.58.978,Info_measure_main_exp,2022.2.2,Win32,60.04202942,,,,,,,,,,,,,0,1,1,0,1,masks/mask_001.jpg,,,,,,,,,,,,,,,,,,,,,,,,,,,,,,,,,,,,,,,,,,,,,,,,,,,,,,,,,,,,,,,,,,,,,,,,,,,,,,,,,,,,,,,,,,,,,
089497,001,2022-11-20_23h54.58.978,Info_measure_main_exp,2022.2.2,Win32,60.04202942,,,,,,,,,,,,,0,2,2,1,1,masks/mask_002.jpg,,,,,,,,,,,,,,,,,,,,,,,,,,,,,,,,,,,,,,,,,,,,,,,,,,,,,,,,,,,,,,,,,,,,,,,,,,,,,,,,,,,,,,,,,,,,,
089497,001,2022-11-20_23h54.58.978,Info_measure_main_exp,2022.2.2,Win32,60.04202942,,,,,,,,,,,,,0,3,3,3,1,masks/mask_004.jpg,,,,,,,,,,,,,,,,,,,,,,,,,,,,,,,,,,,,,,,,,,,,,,,,,,,,,,,,,,,,,,,,,,,,,,,,,,,,,,,,,,,,,,,,,,,,,
089497,001,2022-11-20_23h54.58.978,Info_measure_main_exp,2022.2.2,Win32,60.04202942,,,,,,,,,,,,,0,4,4,4,1,masks/mask_005.jpg,,,,,,,,,,,,,,,,,,,,,,,,,,,,,,,,,,,,,,,,,,,,,,,,,,,,,,,,,,,,,,,,,,,,,,,,,,,,,,,,,,,,,,,,,,,,,
089497,001,2022-11-20_23h54.58.978,Info_measure_main_exp,2022.2.2,Win32,60.04202942,,,,,,,,,,,,,,,,,,masks/mask_002.jpg,0,0,0,1,1,,,,,,,,,,,,,,,,,,,,,,,,,,,,,,,,,,,,,,,,,,,,,,,,,,,,,,,,,,,,,,,,,,,,,,,,,,,,,,,,,,,,,,,,
089497,001,2022-11-20_23h54.58.978,Info_measure_main_exp,2022.2.2,Win32,60.04202942,,,,,,,,,,,,,,,,,,masks/mask_004.jpg,0,1,1,3,1,,,,,,,,,,,,,,,,,,,,,,,,,,,,,,,,,,,,,,,,,,,,,,,,,,,,,,,,,,,,,,,,,,,,,,,,,,,,,,,,,,,,,,,,
089497,001,2022-11-20_23h54.58.978,Info_measure_main_exp,2022.2.2,Win32,60.04202942,,,,,,,,,,,,,,,,,,masks/mask_005.jpg,0,2,2,4,1,,,,,,,,,,,,,,,,,,,,,,,,,,,,,,,,,,,,,,,,,,,,,,,,,,,,,,,,,,,,,,,,,,,,,,,,,,,,,,,,,,,,,,,,
089497,001,2022-11-20_23h54.58.978,Info_measure_main_exp,2022.2.2,Win32,60.04202942,,,,,,,,,,,,,,,,,,masks/mask_001.jpg,0,3,3,0,1,,,,,,,,,,,,,,,,,,,,,,,,,,,,,,,,,,,,,,,,,,,,,,,,,,,,,,,,,,,,,,,,,,,,,,,,,,,,,,,,,,,,,,,,
089497,001,2022-11-20_23h54.58.978,Info_measure_main_exp,2022.2.2,Win32,60.04202942,,,,,,,,,,,,,,,,,,masks/mask_003.jpg,0,4,4,2,1,,,,,,,,,,,,,,,,,,,,,,,,,,,,,,,,,,,,,,,,,,,,,,,,,,,,,,,,,,,,,,,,,,,,,,,,,,,,,,,,,,,,,,,,
089497,001,2022-11-20_23h54.58.978,Info_measure_main_exp,2022.2.2,Win32,60.04202942,,,,,,,,,,,,,,,,,,,,,,,,0.035185242,0.136111111,1,0,0,response1disk,7,51.0299,1,-0.001851824,-0.009259288,1,0,0,center_square,0,1,1,2,1,0,131,5,5,2526,2526,prac_patch/patch0002526.jpg,prac_patch/patch0002526.jpg,,,,,,,,,,,,,,,,,,,,,,,,,,,,,,,,,,,,,,,,,,,,,,,,,,,,,,,,,,,,
089497,001,2022-11-20_23h54.58.978,Info_measure_main_exp,2022.2.2,Win32,60.04202942,,,,,,,,,,,,,0,0,0,1,1,masks/mask_002.jpg,,,,,,,,,,,,,,,,,,,,,,,,,,,,,,,,,,,,,,,,,,,,,,,,,,,,,,,,,,,,,,,,,,,,,,,,,,,,,,,,,,,,,,,,,,,,,
089497,001,2022-11-20_23h54.58.978,Info_measure_main_exp,2022.2.2,Win32,60.04202942,,,,,,,,,,,,,0,1,1,3,1,masks/mask_004.jpg,,,,,,,,,,,,,,,,,,,,,,,,,,,,,,,,,,,,,,,,,,,,,,,,,,,,,,,,,,,,,,,,,,,,,,,,,,,,,,,,,,,,,,,,,,,,,
089497,001,2022-11-20_23h54.58.978,Info_measure_main_exp,2022.2.2,Win32,60.04202942,,,,,,,,,,,,,0,2,2,4,1,masks/mask_005.jpg,,,,,,,,,,,,,,,,,,,,,,,,,,,,,,,,,,,,,,,,,,,,,,,,,,,,,,,,,,,,,,,,,,,,,,,,,,,,,,,,,,,,,,,,,,,,,
089497,001,2022-11-20_23h54.58.978,Info_measure_main_exp,2022.2.2,Win32,60.04202942,,,,,,,,,,,,,0,3,3,2,1,masks/mask_003.jpg,,,,,,,,,,,,,,,,,,,,,,,,,,,,,,,,,,,,,,,,,,,,,,,,,,,,,,,,,,,,,,,,,,,,,,,,,,,,,,,,,,,,,,,,,,,,,
089497,001,2022-11-20_23h54.58.978,Info_measure_main_exp,2022.2.2,Win32,60.04202942,,,,,,,,,,,,,0,4,4,0,1,masks/mask_001.jpg,,,,,,,,,,,,,,,,,,,,,,,,,,,,,,,,,,,,,,,,,,,,,,,,,,,,,,,,,,,,,,,,,,,,,,,,,,,,,,,,,,,,,,,,,,,,,
089497,001,2022-11-20_23h54.58.978,Info_measure_main_exp,2022.2.2,Win32,60.04202942,,,,,,,,,,,,,,,,,,masks/mask_005.jpg,0,0,0,4,1,,,,,,,,,,,,,,,,,,,,,,,,,,,,,,,,,,,,,,,,,,,,,,,,,,,,,,,,,,,,,,,,,,,,,,,,,,,,,,,,,,,,,,,,
089497,001,2022-11-20_23h54.58.978,Info_measure_main_exp,2022.2.2,Win32,60.04202942,,,,,,,,,,,,,,,,,,masks/mask_004.jpg,0,1,1,3,1,,,,,,,,,,,,,,,,,,,,,,,,,,,,,,,,,,,,,,,,,,,,,,,,,,,,,,,,,,,,,,,,,,,,,,,,,,,,,,,,,,,,,,,,
089497,001,2022-11-20_23h54.58.978,Info_measure_main_exp,2022.2.2,Win32,60.04202942,,,,,,,,,,,,,,,,,,masks/mask_001.jpg,0,2,2,0,1,,,,,,,,,,,,,,,,,,,,,,,,,,,,,,,,,,,,,,,,,,,,,,,,,,,,,,,,,,,,,,,,,,,,,,,,,,,,,,,,,,,,,,,,
089497,001,2022-11-20_23h54.58.978,Info_measure_main_exp,2022.2.2,Win32,60.04202942,,,,,,,,,,,,,,,,,,masks/mask_003.jpg,0,3,3,2,1,,,,,,,,,,,,,,,,,,,,,,,,,,,,,,,,,,,,,,,,,,,,,,,,,,,,,,,,,,,,,,,,,,,,,,,,,,,,,,,,,,,,,,,,
089497,001,2022-11-20_23h54.58.978,Info_measure_main_exp,2022.2.2,Win32,60.04202942,,,,,,,,,,,,,,,,,,masks/mask_002.jpg,0,4,4,1,1,,,,,,,,,,,,,,,,,,,,,,,,,,,,,,,,,,,,,,,,,,,,,,,,,,,,,,,,,,,,,,,,,,,,,,,,,,,,,,,,,,,,,,,,
089497,001,2022-11-20_23h54.58.978,Info_measure_main_exp,2022.2.2,Win32,60.04202942,,,,,,,,,,,,,,,,,,,,,,,,0.144444444,0.185185178,1,0,0,response1disk,7,63.9358,1,0.004629686,0.004629601,1,0,0,center_square,0,2,2,0,1,0,131,5,5,2370,2406,prac_patch/patch0002370.jpg,prac_patch/patch0002406.jpg,,,,,,,,,,,,,,,,,,,,,,,,,,,,,,,,,,,,,,,,,,,,,,,,,,,,,,,,,,,,
089497,001,2022-11-20_23h54.58.978,Info_measure_main_exp,2022.2.2,Win32,60.04202942,,,,,,,,,,,,,,,,,,,,,,,,,,,,,,,,,,,,,,,,,,,,,,,,,,,,,,,,,,,space,2.8539,,,,,,,,,,,,,,,,,,,,,,,,,,,,,,,,,,,,,,,,,,,,,,,,,,,
089497,001,2022-11-20_23h54.58.978,Info_measure_main_exp,2022.2.2,Win32,60.04202942,,,,,,,,,,,,,,,,,,masks/mask_004.jpg,,,,,,,,,,,,,,,,,,,,,,,,,,,,,,,,,,,,,,,,,,,0,0,0,3,1,,,,,,,,,,,,,,,,,,,,,,,,,,,,,,,,,,,,,,,,,,,,,,
089497,001,2022-11-20_23h54.58.978,Info_measure_main_exp,2022.2.2,Win32,60.04202942,,,,,,,,,,,,,,,,,,masks/mask_005.jpg,,,,,,,,,,,,,,,,,,,,,,,,,,,,,,,,,,,,,,,,,,,0,1,1,4,1,,,,,,,,,,,,,,,,,,,,,,,,,,,,,,,,,,,,,,,,,,,,,,
089497,001,2022-11-20_23h54.58.978,Info_measure_main_exp,2022.2.2,Win32,60.04202942,,,,,,,,,,,,,,,,,,masks/mask_001.jpg,,,,,,,,,,,,,,,,,,,,,,,,,,,,,,,,,,,,,,,,,,,0,2,2,0,1,,,,,,,,,,,,,,,,,,,,,,,,,,,,,,,,,,,,,,,,,,,,,,
089497,001,2022-11-20_23h54.58.978,Info_measure_main_exp,2022.2.2,Win32,60.04202942,,,,,,,,,,,,,,,,,,masks/mask_003.jpg,,,,,,,,,,,,,,,,,,,,,,,,,,,,,,,,,,,,,,,,,,,0,3,3,2,1,,,,,,,,,,,,,,,,,,,,,,,,,,,,,,,,,,,,,,,,,,,,,,
089497,001,2022-11-20_23h54.58.978,Info_measure_main_exp,2022.2.2,Win32,60.04202942,,,,,,,,,,,,,,,,,,masks/mask_002.jpg,,,,,,,,,,,,,,,,,,,,,,,,,,,,,,,,,,,,,,,,,,,0,4,4,1,1,,,,,,,,,,,,,,,,,,,,,,,,,,,,,,,,,,,,,,,,,,,,,,
089497,001,2022-11-20_23h54.58.978,Info_measure_main_exp,2022.2.2,Win32,60.04202942,,,,,,,,,,,,,,,,,,masks/mask_002.jpg,,,,,,,,,,,,,,,,,,,,,,,,,,,,,,,,,,,,,,,,,,,,,,,,0,0,0,1,1,,,,,,,,,,,,,,,,,,,,,,,,,,,,,,,,,,,,,,,,,
089497,001,2022-11-20_23h54.58.978,Info_measure_main_exp,2022.2.2,Win32,60.04202942,,,,,,,,,,,,,,,,,,masks/mask_005.jpg,,,,,,,,,,,,,,,,,,,,,,,,,,,,,,,,,,,,,,,,,,,,,,,,0,1,1,4,1,,,,,,,,,,,,,,,,,,,,,,,,,,,,,,,,,,,,,,,,,
089497,001,2022-11-20_23h54.58.978,Info_measure_main_exp,2022.2.2,Win32,60.04202942,,,,,,,,,,,,,,,,,,masks/mask_001.jpg,,,,,,,,,,,,,,,,,,,,,,,,,,,,,,,,,,,,,,,,,,,,,,,,0,2,2,0,1,,,,,,,,,,,,,,,,,,,,,,,,,,,,,,,,,,,,,,,,,
089497,001,2022-11-20_23h54.58.978,Info_measure_main_exp,2022.2.2,Win32,60.04202942,,,,,,,,,,,,,,,,,,masks/mask_003.jpg,,,,,,,,,,,,,,,,,,,,,,,,,,,,,,,,,,,,,,,,,,,,,,,,0,3,3,2,1,,,,,,,,,,,,,,,,,,,,,,,,,,,,,,,,,,,,,,,,,
089497,001,2022-11-20_23h54.58.978,Info_measure_main_exp,2022.2.2,Win32,60.04202942,,,,,,,,,,,,,,,,,,masks/mask_004.jpg,,,,,,,,,,,,,,,,,,,,,,,,,,,,,,,,,,,,,,,,,,,,,,,,0,4,4,3,1,,,,,,,,,,,,,,,,,,,,,,,,,,,,,,,,,,,,,,,,,
089497,001,2022-11-20_23h54.58.978,Info_measure_main_exp,2022.2.2,Win32,60.04202942,,,,,,,,,,,,,,,,,,,,,,,,,,,,,,7,0.9334,1,,,,,,,,,,,,0,131,5,5,1986,1974,absent_patch/patch0001986.jpg,absent_patch/patch0001974.jpg,,,,,,,,,,,,,,,,,,,,0.052777778,0.096296268,1,0,0,response1disk,1,0.012963019,-0.000925954,1,0,0,center_square,0,0,0,25,1,,,,,,,,,,,,,,,,,,,,,,,
089497,001,2022-11-20_23h54.58.978,Info_measure_main_exp,2022.2.2,Win32,60.04202942,,,,,,,,,,,,,,,,,,masks/mask_001.jpg,,,,,,,,,,,,,,,,,,,,,,,,,,,,,,,,,,,,,,,,,,,0,0,0,0,1,,,,,,,,,,,,,,,,,,,,,,,,,,,,,,,,,,,,,,,,,,,,,,
089497,001,2022-11-20_23h54.58.978,Info_measure_main_exp,2022.2.2,Win32,60.04202942,,,,,,,,,,,,,,,,,,masks/mask_003.jpg,,,,,,,,,,,,,,,,,,,,,,,,,,,,,,,,,,,,,,,,,,,0,1,1,2,1,,,,,,,,,,,,,,,,,,,,,,,,,,,,,,,,,,,,,,,,,,,,,,
089497,001,2022-11-20_23h54.58.978,Info_measure_main_exp,2022.2.2,Win32,60.04202942,,,,,,,,,,,,,,,,,,masks/mask_005.jpg,,,,,,,,,,,,,,,,,,,,,,,,,,,,,,,,,,,,,,,,,,,0,2,2,4,1,,,,,,,,,,,,,,,,,,,,,,,,,,,,,,,,,,,,,,,,,,,,,,
089497,001,2022-11-20_23h54.58.978,Info_measure_main_exp,2022.2.2,Win32,60.04202942,,,,,,,,,,,,,,,,,,masks/mask_002.jpg,,,,,,,,,,,,,,,,,,,,,,,,,,,,,,,,,,,,,,,,,,,0,3,3,1,1,,,,,,,,,,,,,,,,,,,,,,,,,,,,,,,,,,,,,,,,,,,,,,
089497,001,2022-11-20_23h54.58.978,Info_measure_main_exp,2022.2.2,Win32,60.04202942,,,,,,,,,,,,,,,,,,masks/mask_004.jpg,,,,,,,,,,,,,,,,,,,,,,,,,,,,,,,,,,,,,,,,,,,0,4,4,3,1,,,,,,,,,,,,,,,,,,,,,,,,,,,,,,,,,,,,,,,,,,,,,,
089497,001,2022-11-20_23h54.58.978,Info_measure_main_exp,2022.2.2,Win32,60.04202942,,,,,,,,,,,,,,,,,,masks/mask_001.jpg,,,,,,,,,,,,,,,,,,,,,,,,,,,,,,,,,,,,,,,,,,,,,,,,0,0,0,0,1,,,,,,,,,,,,,,,,,,,,,,,,,,,,,,,,,,,,,,,,,
089497,001,2022-11-20_23h54.58.978,Info_measure_main_exp,2022.2.2,Win32,60.04202942,,,,,,,,,,,,,,,,,,masks/mask_003.jpg,,,,,,,,,,,,,,,,,,,,,,,,,,,,,,,,,,,,,,,,,,,,,,,,0,1,1,2,1,,,,,,,,,,,,,,,,,,,,,,,,,,,,,,,,,,,,,,,,,
089497,001,2022-11-20_23h54.58.978,Info_measure_main_exp,2022.2.2,Win32,60.04202942,,,,,,,,,,,,,,,,,,masks/mask_002.jpg,,,,,,,,,,,,,,,,,,,,,,,,,,,,,,,,,,,,,,,,,,,,,,,,0,2,2,1,1,,,,,,,,,,,,,,,,,,,,,,,,,,,,,,,,,,,,,,,,,
089497,001,2022-11-20_23h54.58.978,Info_measure_main_exp,2022.2.2,Win32,60.04202942,,,,,,,,,,,,,,,,,,masks/mask_005.jpg,,,,,,,,,,,,,,,,,,,,,,,,,,,,,,,,,,,,,,,,,,,,,,,,0,3,3,4,1,,,,,,,,,,,,,,,,,,,,,,,,,,,,,,,,,,,,,,,,,
089497,001,2022-11-20_23h54.58.978,Info_measure_main_exp,2022.2.2,Win32,60.04202942,,,,,,,,,,,,,,,,,,masks/mask_004.jpg,,,,,,,,,,,,,,,,,,,,,,,,,,,,,,,,,,,,,,,,,,,,,,,,0,4,4,3,1,,,,,,,,,,,,,,,,,,,,,,,,,,,,,,,,,,,,,,,,,
089497,001,2022-11-20_23h54.58.978,Info_measure_main_exp,2022.2.2,Win32,60.04202942,,,,,,,,,,,,,,,,,,,,,,,,,,,,,,7,0.5349,1,,,,,,,,,,,,0,131,5,5,2082,2154,absent_patch/patch0002082.jpg,absent_patch/patch0002154.jpg,,,,,,,,,,,,,,,,,,,,0.03148151,0.114814801,1,0,0,response1disk,2,0.002777778,-0.001851866,1,0,0,center_square,0,1,1,33,1,,,,,,,,,,,,,,,,,,,,,,,
089497,001,2022-11-20_23h54.58.978,Info_measure_main_exp,2022.2.2,Win32,60.04202942,,,,,,,,,,,,,,,,,,masks/mask_004.jpg,,,,,,,,,,,,,,,,,,,,,,,,,,,,,,,,,,,,,,,,,,,0,0,0,3,1,,,,,,,,,,,,,,,,,,,,,,,,,,,,,,,,,,,,,,,,,,,,,,
089497,001,2022-11-20_23h54.58.978,Info_measure_main_exp,2022.2.2,Win32,60.04202942,,,,,,,,,,,,,,,,,,masks/mask_001.jpg,,,,,,,,,,,,,,,,,,,,,,,,,,,,,,,,,,,,,,,,,,,0,1,1,0,1,,,,,,,,,,,,,,,,,,,,,,,,,,,,,,,,,,,,,,,,,,,,,,
089497,001,2022-11-20_23h54.58.978,Info_measure_main_exp,2022.2.2,Win32,60.04202942,,,,,,,,,,,,,,,,,,masks/mask_002.jpg,,,,,,,,,,,,,,,,,,,,,,,,,,,,,,,,,,,,,,,,,,,0,2,2,1,1,,,,,,,,,,,,,,,,,,,,,,,,,,,,,,,,,,,,,,,,,,,,,,
089497,001,2022-11-20_23h54.58.978,Info_measure_main_exp,2022.2.2,Win32,60.04202942,,,,,,,,,,,,,,,,,,masks/mask_005.jpg,,,,,,,,,,,,,,,,,,,,,,,,,,,,,,,,,,,,,,,,,,,0,3,3,4,1,,,,,,,,,,,,,,,,,,,,,,,,,,,,,,,,,,,,,,,,,,,,,,
089497,001,2022-11-20_23h54.58.978,Info_measure_main_exp,2022.2.2,Win32,60.04202942,,,,,,,,,,,,,,,,,,masks/mask_003.jpg,,,,,,,,,,,,,,,,,,,,,,,,,,,,,,,,,,,,,,,,,,,0,4,4,2,1,,,,,,,,,,,,,,,,,,,,,,,,,,,,,,,,,,,,,,,,,,,,,,
089497,001,2022-11-20_23h54.58.978,Info_measure_main_exp,2022.2.2,Win32,60.04202942,,,,,,,,,,,,,,,,,,masks/mask_002.jpg,,,,,,,,,,,,,,,,,,,,,,,,,,,,,,,,,,,,,,,,,,,,,,,,0,0,0,1,1,,,,,,,,,,,,,,,,,,,,,,,,,,,,,,,,,,,,,,,,,
089497,001,2022-11-20_23h54.58.978,Info_measure_main_exp,2022.2.2,Win32,60.04202942,,,,,,,,,,,,,,,,,,masks/mask_004.jpg,,,,,,,,,,,,,,,,,,,,,,,,,,,,,,,,,,,,,,,,,,,,,,,,0,1,1,3,1,,,,,,,,,,,,,,,,,,,,,,,,,,,,,,,,,,,,,,,,,
089497,001,2022-11-20_23h54.58.978,Info_measure_main_exp,2022.2.2,Win32,60.04202942,,,,,,,,,,,,,,,,,,masks/mask_005.jpg,,,,,,,,,,,,,,,,,,,,,,,,,,,,,,,,,,,,,,,,,,,,,,,,0,2,2,4,1,,,,,,,,,,,,,,,,,,,,,,,,,,,,,,,,,,,,,,,,,
089497,001,2022-11-20_23h54.58.978,Info_measure_main_exp,2022.2.2,Win32,60.04202942,,,,,,,,,,,,,,,,,,masks/mask_001.jpg,,,,,,,,,,,,,,,,,,,,,,,,,,,,,,,,,,,,,,,,,,,,,,,,0,3,3,0,1,,,,,,,,,,,,,,,,,,,,,,,,,,,,,,,,,,,,,,,,,
089497,001,2022-11-20_23h54.58.978,Info_measure_main_exp,2022.2.2,Win32,60.04202942,,,,,,,,,,,,,,,,,,masks/mask_003.jpg,,,,,,,,,,,,,,,,,,,,,,,,,,,,,,,,,,,,,,,,,,,,,,,,0,4,4,2,1,,,,,,,,,,,,,,,,,,,,,,,,,,,,,,,,,,,,,,,,,
089497,001,2022-11-20_23h54.58.978,Info_measure_main_exp,2022.2.2,Win32,60.04202942,,,,,,,,,,,,,,,,,,,,,,,,,,,,,,7,0.6511,1,,,,,,,,,,,,0,131,5,5,2250,2178,absent_patch/patch0002250.jpg,absent_patch/patch0002178.jpg,,,,,,,,,,,,,,,,,,,,0.059259288,0.1,1,0,0,response1disk,3,0.002777778,0.008333333,1,0,0,center_square,0,2,2,48,1,,,,,,,,,,,,,,,,,,,,,,,
089497,001,2022-11-20_23h54.58.978,Info_measure_main_exp,2022.2.2,Win32,60.04202942,,,,,,,,,,,,,,,,,,masks/mask_004.jpg,,,,,,,,,,,,,,,,,,,,,,,,,,,,,,,,,,,,,,,,,,,0,0,0,3,1,,,,,,,,,,,,,,,,,,,,,,,,,,,,,,,,,,,,,,,,,,,,,,
089497,001,2022-11-20_23h54.58.978,Info_measure_main_exp,2022.2.2,Win32,60.04202942,,,,,,,,,,,,,,,,,,masks/mask_002.jpg,,,,,,,,,,,,,,,,,,,,,,,,,,,,,,,,,,,,,,,,,,,0,1,1,1,1,,,,,,,,,,,,,,,,,,,,,,,,,,,,,,,,,,,,,,,,,,,,,,
089497,001,2022-11-20_23h54.58.978,Info_measure_main_exp,2022.2.2,Win32,60.04202942,,,,,,,,,,,,,,,,,,masks/mask_003.jpg,,,,,,,,,,,,,,,,,,,,,,,,,,,,,,,,,,,,,,,,,,,0,2,2,2,1,,,,,,,,,,,,,,,,,,,,,,,,,,,,,,,,,,,,,,,,,,,,,,
089497,001,2022-11-20_23h54.58.978,Info_measure_main_exp,2022.2.2,Win32,60.04202942,,,,,,,,,,,,,,,,,,masks/mask_001.jpg,,,,,,,,,,,,,,,,,,,,,,,,,,,,,,,,,,,,,,,,,,,0,3,3,0,1,,,,,,,,,,,,,,,,,,,,,,,,,,,,,,,,,,,,,,,,,,,,,,
089497,001,2022-11-20_23h54.58.978,Info_measure_main_exp,2022.2.2,Win32,60.04202942,,,,,,,,,,,,,,,,,,masks/mask_005.jpg,,,,,,,,,,,,,,,,,,,,,,,,,,,,,,,,,,,,,,,,,,,0,4,4,4,1,,,,,,,,,,,,,,,,,,,,,,,,,,,,,,,,,,,,,,,,,,,,,,
089497,001,2022-11-20_23h54.58.978,Info_measure_main_exp,2022.2.2,Win32,60.04202942,,,,,,,,,,,,,,,,,,masks/mask_002.jpg,,,,,,,,,,,,,,,,,,,,,,,,,,,,,,,,,,,,,,,,,,,,,,,,0,0,0,1,1,,,,,,,,,,,,,,,,,,,,,,,,,,,,,,,,,,,,,,,,,
089497,001,2022-11-20_23h54.58.978,Info_measure_main_exp,2022.2.2,Win32,60.04202942,,,,,,,,,,,,,,,,,,masks/mask_004.jpg,,,,,,,,,,,,,,,,,,,,,,,,,,,,,,,,,,,,,,,,,,,,,,,,0,1,1,3,1,,,,,,,,,,,,,,,,,,,,,,,,,,,,,,,,,,,,,,,,,
089497,001,2022-11-20_23h54.58.978,Info_measure_main_exp,2022.2.2,Win32,60.04202942,,,,,,,,,,,,,,,,,,masks/mask_005.jpg,,,,,,,,,,,,,,,,,,,,,,,,,,,,,,,,,,,,,,,,,,,,,,,,0,2,2,4,1,,,,,,,,,,,,,,,,,,,,,,,,,,,,,,,,,,,,,,,,,
089497,001,2022-11-20_23h54.58.978,Info_measure_main_exp,2022.2.2,Win32,60.04202942,,,,,,,,,,,,,,,,,,masks/mask_003.jpg,,,,,,,,,,,,,,,,,,,,,,,,,,,,,,,,,,,,,,,,,,,,,,,,0,3,3,2,1,,,,,,,,,,,,,,,,,,,,,,,,,,,,,,,,,,,,,,,,,
089497,001,2022-11-20_23h54.58.978,Info_measure_main_exp,2022.2.2,Win32,60.04202942,,,,,,,,,,,,,,,,,,masks/mask_001.jpg,,,,,,,,,,,,,,,,,,,,,,,,,,,,,,,,,,,,,,,,,,,,,,,,0,4,4,0,1,,,,,,,,,,,,,,,,,,,,,,,,,,,,,,,,,,,,,,,,,
089497,001,2022-11-20_23h54.58.978,Info_measure_main_exp,2022.2.2,Win32,60.04202942,,,,,,,,,,,,,,,,,,,,,,,,,,,,,,7,1.2168,1,,,,,,,,,,,,0,131,5,5,2238,2214,absent_patch/patch0002238.jpg,absent_patch/patch0002214.jpg,,,,,,,,,,,,,,,,,,,,0.068518575,0.084259245,1,0,0,response1disk,4,0.001851908,0.006481467,1,0,0,center_square,0,3,3,81,1,,,,,,,,,,,,,,,,,,,,,,,
089497,001,2022-11-20_23h54.58.978,Info_measure_main_exp,2022.2.2,Win32,60.04202942,,,,,,,,,,,,,,,,,,masks/mask_001.jpg,,,,,,,,,,,,,,,,,,,,,,,,,,,,,,,,,,,,,,,,,,,0,0,0,0,1,,,,,,,,,,,,,,,,,,,,,,,,,,,,,,,,,,,,,,,,,,,,,,
089497,001,2022-11-20_23h54.58.978,Info_measure_main_exp,2022.2.2,Win32,60.04202942,,,,,,,,,,,,,,,,,,masks/mask_004.jpg,,,,,,,,,,,,,,,,,,,,,,,,,,,,,,,,,,,,,,,,,,,0,1,1,3,1,,,,,,,,,,,,,,,,,,,,,,,,,,,,,,,,,,,,,,,,,,,,,,
089497,001,2022-11-20_23h54.58.978,Info_measure_main_exp,2022.2.2,Win32,60.04202942,,,,,,,,,,,,,,,,,,masks/mask_002.jpg,,,,,,,,,,,,,,,,,,,,,,,,,,,,,,,,,,,,,,,,,,,0,2,2,1,1,,,,,,,,,,,,,,,,,,,,,,,,,,,,,,,,,,,,,,,,,,,,,,
089497,001,2022-11-20_23h54.58.978,Info_measure_main_exp,2022.2.2,Win32,60.04202942,,,,,,,,,,,,,,,,,,masks/mask_005.jpg,,,,,,,,,,,,,,,,,,,,,,,,,,,,,,,,,,,,,,,,,,,0,3,3,4,1,,,,,,,,,,,,,,,,,,,,,,,,,,,,,,,,,,,,,,,,,,,,,,
089497,001,2022-11-20_23h54.58.978,Info_measure_main_exp,2022.2.2,Win32,60.04202942,,,,,,,,,,,,,,,,,,masks/mask_003.jpg,,,,,,,,,,,,,,,,,,,,,,,,,,,,,,,,,,,,,,,,,,,0,4,4,2,1,,,,,,,,,,,,,,,,,,,,,,,,,,,,,,,,,,,,,,,,,,,,,,
089497,001,2022-11-20_23h54.58.978,Info_measure_main_exp,2022.2.2,Win32,60.04202942,,,,,,,,,,,,,,,,,,masks/mask_003.jpg,,,,,,,,,,,,,,,,,,,,,,,,,,,,,,,,,,,,,,,,,,,,,,,,0,0,0,2,1,,,,,,,,,,,,,,,,,,,,,,,,,,,,,,,,,,,,,,,,,
089497,001,2022-11-20_23h54.58.978,Info_measure_main_exp,2022.2.2,Win32,60.04202942,,,,,,,,,,,,,,,,,,masks/mask_001.jpg,,,,,,,,,,,,,,,,,,,,,,,,,,,,,,,,,,,,,,,,,,,,,,,,0,1,1,0,1,,,,,,,,,,,,,,,,,,,,,,,,,,,,,,,,,,,,,,,,,
089497,001,2022-11-20_23h54.58.978,Info_measure_main_exp,2022.2.2,Win32,60.04202942,,,,,,,,,,,,,,,,,,masks/mask_004.jpg,,,,,,,,,,,,,,,,,,,,,,,,,,,,,,,,,,,,,,,,,,,,,,,,0,2,2,3,1,,,,,,,,,,,,,,,,,,,,,,,,,,,,,,,,,,,,,,,,,
089497,001,2022-11-20_23h54.58.978,Info_measure_main_exp,2022.2.2,Win32,60.04202942,,,,,,,,,,,,,,,,,,masks/mask_005.jpg,,,,,,,,,,,,,,,,,,,,,,,,,,,,,,,,,,,,,,,,,,,,,,,,0,3,3,4,1,,,,,,,,,,,,,,,,,,,,,,,,,,,,,,,,,,,,,,,,,
089497,001,2022-11-20_23h54.58.978,Info_measure_main_exp,2022.2.2,Win32,60.04202942,,,,,,,,,,,,,,,,,,masks/mask_002.jpg,,,,,,,,,,,,,,,,,,,,,,,,,,,,,,,,,,,,,,,,,,,,,,,,0,4,4,1,1,,,,,,,,,,,,,,,,,,,,,,,,,,,,,,,,,,,,,,,,,
089497,001,2022-11-20_23h54.58.978,Info_measure_main_exp,2022.2.2,Win32,60.04202942,,,,,,,,,,,,,,,,,,,,,,,,,,,,,,6,2.5175,1,,,,,,,,,,,,0,131,5,5,2082,2166,absent_patch/patch0002082.jpg,absent_patch/patch0002166.jpg,,,,,,,,,,,,,,,,,,,,0.071296353,0.041666667,1,0,0,response1disk,5,0.00648151,0.00370369,1,0,0,center_square,0,4,4,43,1,,,,,,,,,,,,,,,,,,,,,,,
089497,001,2022-11-20_23h54.58.978,Info_measure_main_exp,2022.2.2,Win32,60.04202942,,,,,,,,,,,,,,,,,,masks/mask_003.jpg,,,,,,,,,,,,,,,,,,,,,,,,,,,,,,,,,,,,,,,,,,,0,0,0,2,1,,,,,,,,,,,,,,,,,,,,,,,,,,,,,,,,,,,,,,,,,,,,,,
089497,001,2022-11-20_23h54.58.978,Info_measure_main_exp,2022.2.2,Win32,60.04202942,,,,,,,,,,,,,,,,,,masks/mask_005.jpg,,,,,,,,,,,,,,,,,,,,,,,,,,,,,,,,,,,,,,,,,,,0,1,1,4,1,,,,,,,,,,,,,,,,,,,,,,,,,,,,,,,,,,,,,,,,,,,,,,
089497,001,2022-11-20_23h54.58.978,Info_measure_main_exp,2022.2.2,Win32,60.04202942,,,,,,,,,,,,,,,,,,masks/mask_004.jpg,,,,,,,,,,,,,,,,,,,,,,,,,,,,,,,,,,,,,,,,,,,0,2,2,3,1,,,,,,,,,,,,,,,,,,,,,,,,,,,,,,,,,,,,,,,,,,,,,,
089497,001,2022-11-20_23h54.58.978,Info_measure_main_exp,2022.2.2,Win32,60.04202942,,,,,,,,,,,,,,,,,,masks/mask_002.jpg,,,,,,,,,,,,,,,,,,,,,,,,,,,,,,,,,,,,,,,,,,,0,3,3,1,1,,,,,,,,,,,,,,,,,,,,,,,,,,,,,,,,,,,,,,,,,,,,,,
089497,001,2022-11-20_23h54.58.978,Info_measure_main_exp,2022.2.2,Win32,60.04202942,,,,,,,,,,,,,,,,,,masks/mask_001.jpg,,,,,,,,,,,,,,,,,,,,,,,,,,,,,,,,,,,,,,,,,,,0,4,4,0,1,,,,,,,,,,,,,,,,,,,,,,,,,,,,,,,,,,,,,,,,,,,,,,
089497,001,2022-11-20_23h54.58.978,Info_measure_main_exp,2022.2.2,Win32,60.04202942,,,,,,,,,,,,,,,,,,masks/mask_004.jpg,,,,,,,,,,,,,,,,,,,,,,,,,,,,,,,,,,,,,,,,,,,,,,,,0,0,0,3,1,,,,,,,,,,,,,,,,,,,,,,,,,,,,,,,,,,,,,,,,,
089497,001,2022-11-20_23h54.58.978,Info_measure_main_exp,2022.2.2,Win32,60.04202942,,,,,,,,,,,,,,,,,,masks/mask_001.jpg,,,,,,,,,,,,,,,,,,,,,,,,,,,,,,,,,,,,,,,,,,,,,,,,0,1,1,0,1,,,,,,,,,,,,,,,,,,,,,,,,,,,,,,,,,,,,,,,,,
089497,001,2022-11-20_23h54.58.978,Info_measure_main_exp,2022.2.2,Win32,60.04202942,,,,,,,,,,,,,,,,,,masks/mask_002.jpg,,,,,,,,,,,,,,,,,,,,,,,,,,,,,,,,,,,,,,,,,,,,,,,,0,2,2,1,1,,,,,,,,,,,,,,,,,,,,,,,,,,,,,,,,,,,,,,,,,
089497,001,2022-11-20_23h54.58.978,Info_measure_main_exp,2022.2.2,Win32,60.04202942,,,,,,,,,,,,,,,,,,masks/mask_005.jpg,,,,,,,,,,,,,,,,,,,,,,,,,,,,,,,,,,,,,,,,,,,,,,,,0,3,3,4,1,,,,,,,,,,,,,,,,,,,,,,,,,,,,,,,,,,,,,,,,,
089497,001,2022-11-20_23h54.58.978,Info_measure_main_exp,2022.2.2,Win32,60.04202942,,,,,,,,,,,,,,,,,,masks/mask_003.jpg,,,,,,,,,,,,,,,,,,,,,,,,,,,,,,,,,,,,,,,,,,,,,,,,0,4,4,2,1,,,,,,,,,,,,,,,,,,,,,,,,,,,,,,,,,,,,,,,,,
089497,001,2022-11-20_23h54.58.978,Info_measure_main_exp,2022.2.2,Win32,60.04202942,,,,,,,,,,,,,,,,,,,,,,,,,,,,,,7,0.635,1,,,,,,,,,,,,0,131,5,5,1974,2250,absent_patch/patch0001974.jpg,absent_patch/patch0002250.jpg,,,,,,,,,,,,,,,,,,,,0.025925954,0.094444444,1,0,0,response1disk,6,0.003703732,0.013888889,1,0,0,center_square,0,5,5,55,1,,,,,,,,,,,,,,,,,,,,,,,
089497,001,2022-11-20_23h54.58.978,Info_measure_main_exp,2022.2.2,Win32,60.04202942,,,,,,,,,,,,,,,,,,masks/mask_002.jpg,,,,,,,,,,,,,,,,,,,,,,,,,,,,,,,,,,,,,,,,,,,0,0,0,1,1,,,,,,,,,,,,,,,,,,,,,,,,,,,,,,,,,,,,,,,,,,,,,,
089497,001,2022-11-20_23h54.58.978,Info_measure_main_exp,2022.2.2,Win32,60.04202942,,,,,,,,,,,,,,,,,,masks/mask_003.jpg,,,,,,,,,,,,,,,,,,,,,,,,,,,,,,,,,,,,,,,,,,,0,1,1,2,1,,,,,,,,,,,,,,,,,,,,,,,,,,,,,,,,,,,,,,,,,,,,,,
089497,001,2022-11-20_23h54.58.978,Info_measure_main_exp,2022.2.2,Win32,60.04202942,,,,,,,,,,,,,,,,,,masks/mask_004.jpg,,,,,,,,,,,,,,,,,,,,,,,,,,,,,,,,,,,,,,,,,,,0,2,2,3,1,,,,,,,,,,,,,,,,,,,,,,,,,,,,,,,,,,,,,,,,,,,,,,
089497,001,2022-11-20_23h54.58.978,Info_measure_main_exp,2022.2.2,Win32,60.04202942,,,,,,,,,,,,,,,,,,masks/mask_001.jpg,,,,,,,,,,,,,,,,,,,,,,,,,,,,,,,,,,,,,,,,,,,0,3,3,0,1,,,,,,,,,,,,,,,,,,,,,,,,,,,,,,,,,,,,,,,,,,,,,,
089497,001,2022-11-20_23h54.58.978,Info_measure_main_exp,2022.2.2,Win32,60.04202942,,,,,,,,,,,,,,,,,,masks/mask_005.jpg,,,,,,,,,,,,,,,,,,,,,,,,,,,,,,,,,,,,,,,,,,,0,4,4,4,1,,,,,,,,,,,,,,,,,,,,,,,,,,,,,,,,,,,,,,,,,,,,,,
089497,001,2022-11-20_23h54.58.978,Info_measure_main_exp,2022.2.2,Win32,60.04202942,,,,,,,,,,,,,,,,,,masks/mask_004.jpg,,,,,,,,,,,,,,,,,,,,,,,,,,,,,,,,,,,,,,,,,,,,,,,,0,0,0,3,1,,,,,,,,,,,,,,,,,,,,,,,,,,,,,,,,,,,,,,,,,
089497,001,2022-11-20_23h54.58.978,Info_measure_main_exp,2022.2.2,Win32,60.04202942,,,,,,,,,,,,,,,,,,masks/mask_003.jpg,,,,,,,,,,,,,,,,,,,,,,,,,,,,,,,,,,,,,,,,,,,,,,,,0,1,1,2,1,,,,,,,,,,,,,,,,,,,,,,,,,,,,,,,,,,,,,,,,,
089497,001,2022-11-20_23h54.58.978,Info_measure_main_exp,2022.2.2,Win32,60.04202942,,,,,,,,,,,,,,,,,,masks/mask_002.jpg,,,,,,,,,,,,,,,,,,,,,,,,,,,,,,,,,,,,,,,,,,,,,,,,0,2,2,1,1,,,,,,,,,,,,,,,,,,,,,,,,,,,,,,,,,,,,,,,,,
089497,001,2022-11-20_23h54.58.978,Info_measure_main_exp,2022.2.2,Win32,60.04202942,,,,,,,,,,,,,,,,,,masks/mask_005.jpg,,,,,,,,,,,,,,,,,,,,,,,,,,,,,,,,,,,,,,,,,,,,,,,,0,3,3,4,1,,,,,,,,,,,,,,,,,,,,,,,,,,,,,,,,,,,,,,,,,
089497,001,2022-11-20_23h54.58.978,Info_measure_main_exp,2022.2.2,Win32,60.04202942,,,,,,,,,,,,,,,,,,masks/mask_001.jpg,,,,,,,,,,,,,,,,,,,,,,,,,,,,,,,,,,,,,,,,,,,,,,,,0,4,4,0,1,,,,,,,,,,,,,,,,,,,,,,,,,,,,,,,,,,,,,,,,,
089497,001,2022-11-20_23h54.58.978,Info_measure_main_exp,2022.2.2,Win32,60.04202942,,,,,,,,,,,,,,,,,,,,,,,,,,,,,,3,3.3015,1,,,,,,,,,,,,1,131,5,5,2250,1,absent_patch/patch0002250.jpg,present_patch/cong_131_5_a.jpg,,,,,,,,,,,,,,,,,,,,-0.023148092,-0.055555556,1,0,0,response5disk,7,-0.000925869,-0.004629644,1,0,0,center_square,0,6,6,5,1,,,,,,,,,,,,,,,,,,,,,,,
089497,001,2022-11-20_23h54.58.978,Info_measure_main_exp,2022.2.2,Win32,60.04202942,,,,,,,,,,,,,,,,,,masks/mask_002.jpg,,,,,,,,,,,,,,,,,,,,,,,,,,,,,,,,,,,,,,,,,,,0,0,0,1,1,,,,,,,,,,,,,,,,,,,,,,,,,,,,,,,,,,,,,,,,,,,,,,
089497,001,2022-11-20_23h54.58.978,Info_measure_main_exp,2022.2.2,Win32,60.04202942,,,,,,,,,,,,,,,,,,masks/mask_005.jpg,,,,,,,,,,,,,,,,,,,,,,,,,,,,,,,,,,,,,,,,,,,0,1,1,4,1,,,,,,,,,,,,,,,,,,,,,,,,,,,,,,,,,,,,,,,,,,,,,,
089497,001,2022-11-20_23h54.58.978,Info_measure_main_exp,2022.2.2,Win32,60.04202942,,,,,,,,,,,,,,,,,,masks/mask_003.jpg,,,,,,,,,,,,,,,,,,,,,,,,,,,,,,,,,,,,,,,,,,,0,2,2,2,1,,,,,,,,,,,,,,,,,,,,,,,,,,,,,,,,,,,,,,,,,,,,,,
089497,001,2022-11-20_23h54.58.978,Info_measure_main_exp,2022.2.2,Win32,60.04202942,,,,,,,,,,,,,,,,,,masks/mask_001.jpg,,,,,,,,,,,,,,,,,,,,,,,,,,,,,,,,,,,,,,,,,,,0,3,3,0,1,,,,,,,,,,,,,,,,,,,,,,,,,,,,,,,,,,,,,,,,,,,,,,
089497,001,2022-11-20_23h54.58.978,Info_measure_main_exp,2022.2.2,Win32,60.04202942,,,,,,,,,,,,,,,,,,masks/mask_004.jpg,,,,,,,,,,,,,,,,,,,,,,,,,,,,,,,,,,,,,,,,,,,0,4,4,3,1,,,,,,,,,,,,,,,,,,,,,,,,,,,,,,,,,,,,,,,,,,,,,,
089497,001,2022-11-20_23h54.58.978,Info_measure_main_exp,2022.2.2,Win32,60.04202942,,,,,,,,,,,,,,,,,,masks/mask_004.jpg,,,,,,,,,,,,,,,,,,,,,,,,,,,,,,,,,,,,,,,,,,,,,,,,0,0,0,3,1,,,,,,,,,,,,,,,,,,,,,,,,,,,,,,,,,,,,,,,,,
089497,001,2022-11-20_23h54.58.978,Info_measure_main_exp,2022.2.2,Win32,60.04202942,,,,,,,,,,,,,,,,,,masks/mask_005.jpg,,,,,,,,,,,,,,,,,,,,,,,,,,,,,,,,,,,,,,,,,,,,,,,,0,1,1,4,1,,,,,,,,,,,,,,,,,,,,,,,,,,,,,,,,,,,,,,,,,
089497,001,2022-11-20_23h54.58.978,Info_measure_main_exp,2022.2.2,Win32,60.04202942,,,,,,,,,,,,,,,,,,masks/mask_002.jpg,,,,,,,,,,,,,,,,,,,,,,,,,,,,,,,,,,,,,,,,,,,,,,,,0,2,2,1,1,,,,,,,,,,,,,,,,,,,,,,,,,,,,,,,,,,,,,,,,,
089497,001,2022-11-20_23h54.58.978,Info_measure_main_exp,2022.2.2,Win32,60.04202942,,,,,,,,,,,,,,,,,,masks/mask_003.jpg,,,,,,,,,,,,,,,,,,,,,,,,,,,,,,,,,,,,,,,,,,,,,,,,0,3,3,2,1,,,,,,,,,,,,,,,,,,,,,,,,,,,,,,,,,,,,,,,,,
089497,001,2022-11-20_23h54.58.978,Info_measure_main_exp,2022.2.2,Win32,60.04202942,,,,,,,,,,,,,,,,,,masks/mask_001.jpg,,,,,,,,,,,,,,,,,,,,,,,,,,,,,,,,,,,,,,,,,,,,,,,,0,4,4,0,1,,,,,,,,,,,,,,,,,,,,,,,,,,,,,,,,,,,,,,,,,
089497,001,2022-11-20_23h54.58.978,Info_measure_main_exp,2022.2.2,Win32,60.04202942,,,,,,,,,,,,,,,,,,,,,,,,,,,,,,7,0.6504,1,,,,,,,,,,,,1,131,5,5,1,2178,present_patch/cong_131_5_a.jpg,absent_patch/patch0002178.jpg,,,,,,,,,,,,,,,,,,,,0.042592621,0.071296268,1,0,0,response1disk,8,0.005555556,-0.012962977,1,0,0,center_square,0,7,7,40,1,,,,,,,,,,,,,,,,,,,,,,,
089497,001,2022-11-20_23h54.58.978,Info_measure_main_exp,2022.2.2,Win32,60.04202942,,,,,,,,,,,,,,,,,,masks/mask_003.jpg,,,,,,,,,,,,,,,,,,,,,,,,,,,,,,,,,,,,,,,,,,,0,0,0,2,1,,,,,,,,,,,,,,,,,,,,,,,,,,,,,,,,,,,,,,,,,,,,,,
089497,001,2022-11-20_23h54.58.978,Info_measure_main_exp,2022.2.2,Win32,60.04202942,,,,,,,,,,,,,,,,,,masks/mask_005.jpg,,,,,,,,,,,,,,,,,,,,,,,,,,,,,,,,,,,,,,,,,,,0,1,1,4,1,,,,,,,,,,,,,,,,,,,,,,,,,,,,,,,,,,,,,,,,,,,,,,
089497,001,2022-11-20_23h54.58.978,Info_measure_main_exp,2022.2.2,Win32,60.04202942,,,,,,,,,,,,,,,,,,masks/mask_002.jpg,,,,,,,,,,,,,,,,,,,,,,,,,,,,,,,,,,,,,,,,,,,0,2,2,1,1,,,,,,,,,,,,,,,,,,,,,,,,,,,,,,,,,,,,,,,,,,,,,,
089497,001,2022-11-20_23h54.58.978,Info_measure_main_exp,2022.2.2,Win32,60.04202942,,,,,,,,,,,,,,,,,,masks/mask_001.jpg,,,,,,,,,,,,,,,,,,,,,,,,,,,,,,,,,,,,,,,,,,,0,3,3,0,1,,,,,,,,,,,,,,,,,,,,,,,,,,,,,,,,,,,,,,,,,,,,,,
089497,001,2022-11-20_23h54.58.978,Info_measure_main_exp,2022.2.2,Win32,60.04202942,,,,,,,,,,,,,,,,,,masks/mask_004.jpg,,,,,,,,,,,,,,,,,,,,,,,,,,,,,,,,,,,,,,,,,,,0,4,4,3,1,,,,,,,,,,,,,,,,,,,,,,,,,,,,,,,,,,,,,,,,,,,,,,
089497,001,2022-11-20_23h54.58.978,Info_measure_main_exp,2022.2.2,Win32,60.04202942,,,,,,,,,,,,,,,,,,masks/mask_005.jpg,,,,,,,,,,,,,,,,,,,,,,,,,,,,,,,,,,,,,,,,,,,,,,,,0,0,0,4,1,,,,,,,,,,,,,,,,,,,,,,,,,,,,,,,,,,,,,,,,,
089497,001,2022-11-20_23h54.58.978,Info_measure_main_exp,2022.2.2,Win32,60.04202942,,,,,,,,,,,,,,,,,,masks/mask_004.jpg,,,,,,,,,,,,,,,,,,,,,,,,,,,,,,,,,,,,,,,,,,,,,,,,0,1,1,3,1,,,,,,,,,,,,,,,,,,,,,,,,,,,,,,,,,,,,,,,,,
089497,001,2022-11-20_23h54.58.978,Info_measure_main_exp,2022.2.2,Win32,60.04202942,,,,,,,,,,,,,,,,,,masks/mask_003.jpg,,,,,,,,,,,,,,,,,,,,,,,,,,,,,,,,,,,,,,,,,,,,,,,,0,2,2,2,1,,,,,,,,,,,,,,,,,,,,,,,,,,,,,,,,,,,,,,,,,
089497,001,2022-11-20_23h54.58.978,Info_measure_main_exp,2022.2.2,Win32,60.04202942,,,,,,,,,,,,,,,,,,masks/mask_002.jpg,,,,,,,,,,,,,,,,,,,,,,,,,,,,,,,,,,,,,,,,,,,,,,,,0,3,3,1,1,,,,,,,,,,,,,,,,,,,,,,,,,,,,,,,,,,,,,,,,,
089497,001,2022-11-20_23h54.58.978,Info_measure_main_exp,2022.2.2,Win32,60.04202942,,,,,,,,,,,,,,,,,,masks/mask_001.jpg,,,,,,,,,,,,,,,,,,,,,,,,,,,,,,,,,,,,,,,,,,,,,,,,0,4,4,0,1,,,,,,,,,,,,,,,,,,,,,,,,,,,,,,,,,,,,,,,,,
089497,001,2022-11-20_23h54.58.978,Info_measure_main_exp,2022.2.2,Win32,60.04202942,,,,,,,,,,,,,,,,,,,,,,,,,,,,,,7,0.7598,1,,,,,,,,,,,,1,131,5,5,1950,1,absent_patch/patch0001950.jpg,present_patch/cong_131_5_a.jpg,,,,,,,,,,,,,,,,,,,,0.043518575,0.121296268,1,0,0,response1disk,9,0.003703732,0.005555556,1,0,0,center_square,0,8,8,39,1,,,,,,,,,,,,,,,,,,,,,,,
089497,001,2022-11-20_23h54.58.978,Info_measure_main_exp,2022.2.2,Win32,60.04202942,,,,,,,,,,,,,,,,,,masks/mask_002.jpg,,,,,,,,,,,,,,,,,,,,,,,,,,,,,,,,,,,,,,,,,,,0,0,0,1,1,,,,,,,,,,,,,,,,,,,,,,,,,,,,,,,,,,,,,,,,,,,,,,
089497,001,2022-11-20_23h54.58.978,Info_measure_main_exp,2022.2.2,Win32,60.04202942,,,,,,,,,,,,,,,,,,masks/mask_005.jpg,,,,,,,,,,,,,,,,,,,,,,,,,,,,,,,,,,,,,,,,,,,0,1,1,4,1,,,,,,,,,,,,,,,,,,,,,,,,,,,,,,,,,,,,,,,,,,,,,,
089497,001,2022-11-20_23h54.58.978,Info_measure_main_exp,2022.2.2,Win32,60.04202942,,,,,,,,,,,,,,,,,,masks/mask_003.jpg,,,,,,,,,,,,,,,,,,,,,,,,,,,,,,,,,,,,,,,,,,,0,2,2,2,1,,,,,,,,,,,,,,,,,,,,,,,,,,,,,,,,,,,,,,,,,,,,,,
089497,001,2022-11-20_23h54.58.978,Info_measure_main_exp,2022.2.2,Win32,60.04202942,,,,,,,,,,,,,,,,,,masks/mask_004.jpg,,,,,,,,,,,,,,,,,,,,,,,,,,,,,,,,,,,,,,,,,,,0,3,3,3,1,,,,,,,,,,,,,,,,,,,,,,,,,,,,,,,,,,,,,,,,,,,,,,
089497,001,2022-11-20_23h54.58.978,Info_measure_main_exp,2022.2.2,Win32,60.04202942,,,,,,,,,,,,,,,,,,masks/mask_001.jpg,,,,,,,,,,,,,,,,,,,,,,,,,,,,,,,,,,,,,,,,,,,0,4,4,0,1,,,,,,,,,,,,,,,,,,,,,,,,,,,,,,,,,,,,,,,,,,,,,,
089497,001,2022-11-20_23h54.58.978,Info_measure_main_exp,2022.2.2,Win32,60.04202942,,,,,,,,,,,,,,,,,,masks/mask_004.jpg,,,,,,,,,,,,,,,,,,,,,,,,,,,,,,,,,,,,,,,,,,,,,,,,0,0,0,3,1,,,,,,,,,,,,,,,,,,,,,,,,,,,,,,,,,,,,,,,,,
089497,001,2022-11-20_23h54.58.978,Info_measure_main_exp,2022.2.2,Win32,60.04202942,,,,,,,,,,,,,,,,,,masks/mask_003.jpg,,,,,,,,,,,,,,,,,,,,,,,,,,,,,,,,,,,,,,,,,,,,,,,,0,1,1,2,1,,,,,,,,,,,,,,,,,,,,,,,,,,,,,,,,,,,,,,,,,
089497,001,2022-11-20_23h54.58.978,Info_measure_main_exp,2022.2.2,Win32,60.04202942,,,,,,,,,,,,,,,,,,masks/mask_005.jpg,,,,,,,,,,,,,,,,,,,,,,,,,,,,,,,,,,,,,,,,,,,,,,,,0,2,2,4,1,,,,,,,,,,,,,,,,,,,,,,,,,,,,,,,,,,,,,,,,,
089497,001,2022-11-20_23h54.58.978,Info_measure_main_exp,2022.2.2,Win32,60.04202942,,,,,,,,,,,,,,,,,,masks/mask_002.jpg,,,,,,,,,,,,,,,,,,,,,,,,,,,,,,,,,,,,,,,,,,,,,,,,0,3,3,1,1,,,,,,,,,,,,,,,,,,,,,,,,,,,,,,,,,,,,,,,,,
089497,001,2022-11-20_23h54.58.978,Info_measure_main_exp,2022.2.2,Win32,60.04202942,,,,,,,,,,,,,,,,,,masks/mask_001.jpg,,,,,,,,,,,,,,,,,,,,,,,,,,,,,,,,,,,,,,,,,,,,,,,,0,4,4,0,1,,,,,,,,,,,,,,,,,,,,,,,,,,,,,,,,,,,,,,,,,
089497,001,2022-11-20_23h54.58.978,Info_measure_main_exp,2022.2.2,Win32,60.04202942,,,,,,,,,,,,,,,,,,,,,,,,,,,,,,5,1.0511,1,,,,,,,,,,,,0,131,5,5,2274,2166,absent_patch/patch0002274.jpg,absent_patch/patch0002166.jpg,,,,,,,,,,,,,,,,,,,,0.107407464,-0.068518533,1,0,0,response3disk,10,0.005555556,0.001851824,1,0,0,center_square,0,9,9,78,1,,,,,,,,,,,,,,,,,,,,,,,
089497,001,2022-11-20_23h54.58.978,Info_measure_main_exp,2022.2.2,Win32,60.04202942,,,,,,,,,,,,,,,,,,masks/mask_002.jpg,,,,,,,,,,,,,,,,,,,,,,,,,,,,,,,,,,,,,,,,,,,0,0,0,1,1,,,,,,,,,,,,,,,,,,,,,,,,,,,,,,,,,,,,,,,,,,,,,,
089497,001,2022-11-20_23h54.58.978,Info_measure_main_exp,2022.2.2,Win32,60.04202942,,,,,,,,,,,,,,,,,,masks/mask_001.jpg,,,,,,,,,,,,,,,,,,,,,,,,,,,,,,,,,,,,,,,,,,,0,1,1,0,1,,,,,,,,,,,,,,,,,,,,,,,,,,,,,,,,,,,,,,,,,,,,,,
089497,001,2022-11-20_23h54.58.978,Info_measure_main_exp,2022.2.2,Win32,60.04202942,,,,,,,,,,,,,,,,,,masks/mask_005.jpg,,,,,,,,,,,,,,,,,,,,,,,,,,,,,,,,,,,,,,,,,,,0,2,2,4,1,,,,,,,,,,,,,,,,,,,,,,,,,,,,,,,,,,,,,,,,,,,,,,
089497,001,2022-11-20_23h54.58.978,Info_measure_main_exp,2022.2.2,Win32,60.04202942,,,,,,,,,,,,,,,,,,masks/mask_003.jpg,,,,,,,,,,,,,,,,,,,,,,,,,,,,,,,,,,,,,,,,,,,0,3,3,2,1,,,,,,,,,,,,,,,,,,,,,,,,,,,,,,,,,,,,,,,,,,,,,,
089497,001,2022-11-20_23h54.58.978,Info_measure_main_exp,2022.2.2,Win32,60.04202942,,,,,,,,,,,,,,,,,,masks/mask_004.jpg,,,,,,,,,,,,,,,,,,,,,,,,,,,,,,,,,,,,,,,,,,,0,4,4,3,1,,,,,,,,,,,,,,,,,,,,,,,,,,,,,,,,,,,,,,,,,,,,,,
089497,001,2022-11-20_23h54.58.978,Info_measure_main_exp,2022.2.2,Win32,60.04202942,,,,,,,,,,,,,,,,,,masks/mask_003.jpg,,,,,,,,,,,,,,,,,,,,,,,,,,,,,,,,,,,,,,,,,,,,,,,,0,0,0,2,1,,,,,,,,,,,,,,,,,,,,,,,,,,,,,,,,,,,,,,,,,
089497,001,2022-11-20_23h54.58.978,Info_measure_main_exp,2022.2.2,Win32,60.04202942,,,,,,,,,,,,,,,,,,masks/mask_005.jpg,,,,,,,,,,,,,,,,,,,,,,,,,,,,,,,,,,,,,,,,,,,,,,,,0,1,1,4,1,,,,,,,,,,,,,,,,,,,,,,,,,,,,,,,,,,,,,,,,,
089497,001,2022-11-20_23h54.58.978,Info_measure_main_exp,2022.2.2,Win32,60.04202942,,,,,,,,,,,,,,,,,,masks/mask_001.jpg,,,,,,,,,,,,,,,,,,,,,,,,,,,,,,,,,,,,,,,,,,,,,,,,0,2,2,0,1,,,,,,,,,,,,,,,,,,,,,,,,,,,,,,,,,,,,,,,,,
089497,001,2022-11-20_23h54.58.978,Info_measure_main_exp,2022.2.2,Win32,60.04202942,,,,,,,,,,,,,,,,,,masks/mask_004.jpg,,,,,,,,,,,,,,,,,,,,,,,,,,,,,,,,,,,,,,,,,,,,,,,,0,3,3,3,1,,,,,,,,,,,,,,,,,,,,,,,,,,,,,,,,,,,,,,,,,
089497,001,2022-11-20_23h54.58.978,Info_measure_main_exp,2022.2.2,Win32,60.04202942,,,,,,,,,,,,,,,,,,masks/mask_002.jpg,,,,,,,,,,,,,,,,,,,,,,,,,,,,,,,,,,,,,,,,,,,,,,,,0,4,4,1,1,,,,,,,,,,,,,,,,,,,,,,,,,,,,,,,,,,,,,,,,,
089497,001,2022-11-20_23h54.58.978,Info_measure_main_exp,2022.2.2,Win32,60.04202942,,,,,,,,,,,,,,,,,,,,,,,,,,,,,,7,0.866,1,,,,,,,,,,,,0,131,5,5,2274,2250,absent_patch/patch0002274.jpg,absent_patch/patch0002250.jpg,,,,,,,,,,,,,,,,,,,,0.051851908,0.15,1,0,0,response1disk,11,-0.012962935,-0.004629644,1,0,0,center_square,0,10,10,28,1,,,,,,,,,,,,,,,,,,,,,,,
089497,001,2022-11-20_23h54.58.978,Info_measure_main_exp,2022.2.2,Win32,60.04202942,,,,,,,,,,,,,,,,,,masks/mask_002.jpg,,,,,,,,,,,,,,,,,,,,,,,,,,,,,,,,,,,,,,,,,,,0,0,0,1,1,,,,,,,,,,,,,,,,,,,,,,,,,,,,,,,,,,,,,,,,,,,,,,
089497,001,2022-11-20_23h54.58.978,Info_measure_main_exp,2022.2.2,Win32,60.04202942,,,,,,,,,,,,,,,,,,masks/mask_005.jpg,,,,,,,,,,,,,,,,,,,,,,,,,,,,,,,,,,,,,,,,,,,0,1,1,4,1,,,,,,,,,,,,,,,,,,,,,,,,,,,,,,,,,,,,,,,,,,,,,,
089497,001,2022-11-20_23h54.58.978,Info_measure_main_exp,2022.2.2,Win32,60.04202942,,,,,,,,,,,,,,,,,,masks/mask_004.jpg,,,,,,,,,,,,,,,,,,,,,,,,,,,,,,,,,,,,,,,,,,,0,2,2,3,1,,,,,,,,,,,,,,,,,,,,,,,,,,,,,,,,,,,,,,,,,,,,,,
089497,001,2022-11-20_23h54.58.978,Info_measure_main_exp,2022.2.2,Win32,60.04202942,,,,,,,,,,,,,,,,,,masks/mask_001.jpg,,,,,,,,,,,,,,,,,,,,,,,,,,,,,,,,,,,,,,,,,,,0,3,3,0,1,,,,,,,,,,,,,,,,,,,,,,,,,,,,,,,,,,,,,,,,,,,,,,
089497,001,2022-11-20_23h54.58.978,Info_measure_main_exp,2022.2.2,Win32,60.04202942,,,,,,,,,,,,,,,,,,masks/mask_003.jpg,,,,,,,,,,,,,,,,,,,,,,,,,,,,,,,,,,,,,,,,,,,0,4,4,2,1,,,,,,,,,,,,,,,,,,,,,,,,,,,,,,,,,,,,,,,,,,,,,,
089497,001,2022-11-20_23h54.58.978,Info_measure_main_exp,2022.2.2,Win32,60.04202942,,,,,,,,,,,,,,,,,,masks/mask_003.jpg,,,,,,,,,,,,,,,,,,,,,,,,,,,,,,,,,,,,,,,,,,,,,,,,0,0,0,2,1,,,,,,,,,,,,,,,,,,,,,,,,,,,,,,,,,,,,,,,,,
089497,001,2022-11-20_23h54.58.978,Info_measure_main_exp,2022.2.2,Win32,60.04202942,,,,,,,,,,,,,,,,,,masks/mask_004.jpg,,,,,,,,,,,,,,,,,,,,,,,,,,,,,,,,,,,,,,,,,,,,,,,,0,1,1,3,1,,,,,,,,,,,,,,,,,,,,,,,,,,,,,,,,,,,,,,,,,
089497,001,2022-11-20_23h54.58.978,Info_measure_main_exp,2022.2.2,Win32,60.04202942,,,,,,,,,,,,,,,,,,masks/mask_001.jpg,,,,,,,,,,,,,,,,,,,,,,,,,,,,,,,,,,,,,,,,,,,,,,,,0,2,2,0,1,,,,,,,,,,,,,,,,,,,,,,,,,,,,,,,,,,,,,,,,,
089497,001,2022-11-20_23h54.58.978,Info_measure_main_exp,2022.2.2,Win32,60.04202942,,,,,,,,,,,,,,,,,,masks/mask_005.jpg,,,,,,,,,,,,,,,,,,,,,,,,,,,,,,,,,,,,,,,,,,,,,,,,0,3,3,4,1,,,,,,,,,,,,,,,,,,,,,,,,,,,,,,,,,,,,,,,,,
089497,001,2022-11-20_23h54.58.978,Info_measure_main_exp,2022.2.2,Win32,60.04202942,,,,,,,,,,,,,,,,,,masks/mask_002.jpg,,,,,,,,,,,,,,,,,,,,,,,,,,,,,,,,,,,,,,,,,,,,,,,,0,4,4,1,1,,,,,,,,,,,,,,,,,,,,,,,,,,,,,,,,,,,,,,,,,
089497,001,2022-11-20_23h54.58.978,Info_measure_main_exp,2022.2.2,Win32,60.04202942,,,,,,,,,,,,,,,,,,,,,,,,,,,,,,7,1.0059,1,,,,,,,,,,,,0,131,5,5,2274,2190,absent_patch/patch0002274.jpg,absent_patch/patch0002190.jpg,,,,,,,,,,,,,,,,,,,,0.034259288,0.113888889,1,0,0,response1disk,12,-0.012036981,0.004629601,1,0,0,center_square,0,11,11,116,1,,,,,,,,,,,,,,,,,,,,,,,
089497,001,2022-11-20_23h54.58.978,Info_measure_main_exp,2022.2.2,Win32,60.04202942,,,,,,,,,,,,,,,,,,masks/mask_004.jpg,,,,,,,,,,,,,,,,,,,,,,,,,,,,,,,,,,,,,,,,,,,0,0,0,3,1,,,,,,,,,,,,,,,,,,,,,,,,,,,,,,,,,,,,,,,,,,,,,,
089497,001,2022-11-20_23h54.58.978,Info_measure_main_exp,2022.2.2,Win32,60.04202942,,,,,,,,,,,,,,,,,,masks/mask_002.jpg,,,,,,,,,,,,,,,,,,,,,,,,,,,,,,,,,,,,,,,,,,,0,1,1,1,1,,,,,,,,,,,,,,,,,,,,,,,,,,,,,,,,,,,,,,,,,,,,,,
089497,001,2022-11-20_23h54.58.978,Info_measure_main_exp,2022.2.2,Win32,60.04202942,,,,,,,,,,,,,,,,,,masks/mask_005.jpg,,,,,,,,,,,,,,,,,,,,,,,,,,,,,,,,,,,,,,,,,,,0,2,2,4,1,,,,,,,,,,,,,,,,,,,,,,,,,,,,,,,,,,,,,,,,,,,,,,
089497,001,2022-11-20_23h54.58.978,Info_measure_main_exp,2022.2.2,Win32,60.04202942,,,,,,,,,,,,,,,,,,masks/mask_003.jpg,,,,,,,,,,,,,,,,,,,,,,,,,,,,,,,,,,,,,,,,,,,0,3,3,2,1,,,,,,,,,,,,,,,,,,,,,,,,,,,,,,,,,,,,,,,,,,,,,,
089497,001,2022-11-20_23h54.58.978,Info_measure_main_exp,2022.2.2,Win32,60.04202942,,,,,,,,,,,,,,,,,,masks/mask_001.jpg,,,,,,,,,,,,,,,,,,,,,,,,,,,,,,,,,,,,,,,,,,,0,4,4,0,1,,,,,,,,,,,,,,,,,,,,,,,,,,,,,,,,,,,,,,,,,,,,,,
089497,001,2022-11-20_23h54.58.978,Info_measure_main_exp,2022.2.2,Win32,60.04202942,,,,,,,,,,,,,,,,,,masks/mask_002.jpg,,,,,,,,,,,,,,,,,,,,,,,,,,,,,,,,,,,,,,,,,,,,,,,,0,0,0,1,1,,,,,,,,,,,,,,,,,,,,,,,,,,,,,,,,,,,,,,,,,
089497,001,2022-11-20_23h54.58.978,Info_measure_main_exp,2022.2.2,Win32,60.04202942,,,,,,,,,,,,,,,,,,masks/mask_004.jpg,,,,,,,,,,,,,,,,,,,,,,,,,,,,,,,,,,,,,,,,,,,,,,,,0,1,1,3,1,,,,,,,,,,,,,,,,,,,,,,,,,,,,,,,,,,,,,,,,,
089497,001,2022-11-20_23h54.58.978,Info_measure_main_exp,2022.2.2,Win32,60.04202942,,,,,,,,,,,,,,,,,,masks/mask_001.jpg,,,,,,,,,,,,,,,,,,,,,,,,,,,,,,,,,,,,,,,,,,,,,,,,0,2,2,0,1,,,,,,,,,,,,,,,,,,,,,,,,,,,,,,,,,,,,,,,,,
089497,001,2022-11-20_23h54.58.978,Info_measure_main_exp,2022.2.2,Win32,60.04202942,,,,,,,,,,,,,,,,,,masks/mask_005.jpg,,,,,,,,,,,,,,,,,,,,,,,,,,,,,,,,,,,,,,,,,,,,,,,,0,3,3,4,1,,,,,,,,,,,,,,,,,,,,,,,,,,,,,,,,,,,,,,,,,
089497,001,2022-11-20_23h54.58.978,Info_measure_main_exp,2022.2.2,Win32,60.04202942,,,,,,,,,,,,,,,,,,masks/mask_003.jpg,,,,,,,,,,,,,,,,,,,,,,,,,,,,,,,,,,,,,,,,,,,,,,,,0,4,4,2,1,,,,,,,,,,,,,,,,,,,,,,,,,,,,,,,,,,,,,,,,,
089497,001,2022-11-20_23h54.58.978,Info_measure_main_exp,2022.2.2,Win32,60.04202942,,,,,,,,,,,,,,,,,,,,,,,,,,,,,,3,1.865,1,,,,,,,,,,,,0,131,5,5,2082,2178,absent_patch/patch0002082.jpg,absent_patch/patch0002178.jpg,,,,,,,,,,,,,,,,,,,,-0.080555556,-0.095370399,1,0,0,response5disk,13,-0.004629601,0.000925912,1,0,0,center_square,0,12,12,2,1,,,,,,,,,,,,,,,,,,,,,,,
089497,001,2022-11-20_23h54.58.978,Info_measure_main_exp,2022.2.2,Win32,60.04202942,,,,,,,,,,,,,,,,,,masks/mask_001.jpg,,,,,,,,,,,,,,,,,,,,,,,,,,,,,,,,,,,,,,,,,,,0,0,0,0,1,,,,,,,,,,,,,,,,,,,,,,,,,,,,,,,,,,,,,,,,,,,,,,
089497,001,2022-11-20_23h54.58.978,Info_measure_main_exp,2022.2.2,Win32,60.04202942,,,,,,,,,,,,,,,,,,masks/mask_002.jpg,,,,,,,,,,,,,,,,,,,,,,,,,,,,,,,,,,,,,,,,,,,0,1,1,1,1,,,,,,,,,,,,,,,,,,,,,,,,,,,,,,,,,,,,,,,,,,,,,,
089497,001,2022-11-20_23h54.58.978,Info_measure_main_exp,2022.2.2,Win32,60.04202942,,,,,,,,,,,,,,,,,,masks/mask_005.jpg,,,,,,,,,,,,,,,,,,,,,,,,,,,,,,,,,,,,,,,,,,,0,2,2,4,1,,,,,,,,,,,,,,,,,,,,,,,,,,,,,,,,,,,,,,,,,,,,,,
089497,001,2022-11-20_23h54.58.978,Info_measure_main_exp,2022.2.2,Win32,60.04202942,,,,,,,,,,,,,,,,,,masks/mask_003.jpg,,,,,,,,,,,,,,,,,,,,,,,,,,,,,,,,,,,,,,,,,,,0,3,3,2,1,,,,,,,,,,,,,,,,,,,,,,,,,,,,,,,,,,,,,,,,,,,,,,
089497,001,2022-11-20_23h54.58.978,Info_measure_main_exp,2022.2.2,Win32,60.04202942,,,,,,,,,,,,,,,,,,masks/mask_004.jpg,,,,,,,,,,,,,,,,,,,,,,,,,,,,,,,,,,,,,,,,,,,0,4,4,3,1,,,,,,,,,,,,,,,,,,,,,,,,,,,,,,,,,,,,,,,,,,,,,,
089497,001,2022-11-20_23h54.58.978,Info_measure_main_exp,2022.2.2,Win32,60.04202942,,,,,,,,,,,,,,,,,,masks/mask_003.jpg,,,,,,,,,,,,,,,,,,,,,,,,,,,,,,,,,,,,,,,,,,,,,,,,0,0,0,2,1,,,,,,,,,,,,,,,,,,,,,,,,,,,,,,,,,,,,,,,,,
089497,001,2022-11-20_23h54.58.978,Info_measure_main_exp,2022.2.2,Win32,60.04202942,,,,,,,,,,,,,,,,,,masks/mask_001.jpg,,,,,,,,,,,,,,,,,,,,,,,,,,,,,,,,,,,,,,,,,,,,,,,,0,1,1,0,1,,,,,,,,,,,,,,,,,,,,,,,,,,,,,,,,,,,,,,,,,
089497,001,2022-11-20_23h54.58.978,Info_measure_main_exp,2022.2.2,Win32,60.04202942,,,,,,,,,,,,,,,,,,masks/mask_004.jpg,,,,,,,,,,,,,,,,,,,,,,,,,,,,,,,,,,,,,,,,,,,,,,,,0,2,2,3,1,,,,,,,,,,,,,,,,,,,,,,,,,,,,,,,,,,,,,,,,,
089497,001,2022-11-20_23h54.58.978,Info_measure_main_exp,2022.2.2,Win32,60.04202942,,,,,,,,,,,,,,,,,,masks/mask_005.jpg,,,,,,,,,,,,,,,,,,,,,,,,,,,,,,,,,,,,,,,,,,,,,,,,0,3,3,4,1,,,,,,,,,,,,,,,,,,,,,,,,,,,,,,,,,,,,,,,,,
089497,001,2022-11-20_23h54.58.978,Info_measure_main_exp,2022.2.2,Win32,60.04202942,,,,,,,,,,,,,,,,,,masks/mask_002.jpg,,,,,,,,,,,,,,,,,,,,,,,,,,,,,,,,,,,,,,,,,,,,,,,,0,4,4,1,1,,,,,,,,,,,,,,,,,,,,,,,,,,,,,,,,,,,,,,,,,
089497,001,2022-11-20_23h54.58.978,Info_measure_main_exp,2022.2.2,Win32,60.04202942,,,,,,,,,,,,,,,,,,,,,,,,,,,,,,0,0.9816,1,,,,,,,,,,,,0,131,5,5,2274,2274,absent_patch/patch0002274.jpg,absent_patch/patch0002274.jpg,,,,,,,,,,,,,,,,,,,,-0.062036981,0.141666667,1,0,0,response7disk,14,0.009259288,-0.012037065,1,0,0,center_square,0,13,13,114,1,,,,,,,,,,,,,,,,,,,,,,,
089497,001,2022-11-20_23h54.58.978,Info_measure_main_exp,2022.2.2,Win32,60.04202942,,,,,,,,,,,,,,,,,,masks/mask_004.jpg,,,,,,,,,,,,,,,,,,,,,,,,,,,,,,,,,,,,,,,,,,,0,0,0,3,1,,,,,,,,,,,,,,,,,,,,,,,,,,,,,,,,,,,,,,,,,,,,,,
089497,001,2022-11-20_23h54.58.978,Info_measure_main_exp,2022.2.2,Win32,60.04202942,,,,,,,,,,,,,,,,,,masks/mask_001.jpg,,,,,,,,,,,,,,,,,,,,,,,,,,,,,,,,,,,,,,,,,,,0,1,1,0,1,,,,,,,,,,,,,,,,,,,,,,,,,,,,,,,,,,,,,,,,,,,,,,
089497,001,2022-11-20_23h54.58.978,Info_measure_main_exp,2022.2.2,Win32,60.04202942,,,,,,,,,,,,,,,,,,masks/mask_005.jpg,,,,,,,,,,,,,,,,,,,,,,,,,,,,,,,,,,,,,,,,,,,0,2,2,4,1,,,,,,,,,,,,,,,,,,,,,,,,,,,,,,,,,,,,,,,,,,,,,,
089497,001,2022-11-20_23h54.58.978,Info_measure_main_exp,2022.2.2,Win32,60.04202942,,,,,,,,,,,,,,,,,,masks/mask_002.jpg,,,,,,,,,,,,,,,,,,,,,,,,,,,,,,,,,,,,,,,,,,,0,3,3,1,1,,,,,,,,,,,,,,,,,,,,,,,,,,,,,,,,,,,,,,,,,,,,,,
089497,001,2022-11-20_23h54.58.978,Info_measure_main_exp,2022.2.2,Win32,60.04202942,,,,,,,,,,,,,,,,,,masks/mask_003.jpg,,,,,,,,,,,,,,,,,,,,,,,,,,,,,,,,,,,,,,,,,,,0,4,4,2,1,,,,,,,,,,,,,,,,,,,,,,,,,,,,,,,,,,,,,,,,,,,,,,
089497,001,2022-11-20_23h54.58.978,Info_measure_main_exp,2022.2.2,Win32,60.04202942,,,,,,,,,,,,,,,,,,masks/mask_004.jpg,,,,,,,,,,,,,,,,,,,,,,,,,,,,,,,,,,,,,,,,,,,,,,,,0,0,0,3,1,,,,,,,,,,,,,,,,,,,,,,,,,,,,,,,,,,,,,,,,,
089497,001,2022-11-20_23h54.58.978,Info_measure_main_exp,2022.2.2,Win32,60.04202942,,,,,,,,,,,,,,,,,,masks/mask_001.jpg,,,,,,,,,,,,,,,,,,,,,,,,,,,,,,,,,,,,,,,,,,,,,,,,0,1,1,0,1,,,,,,,,,,,,,,,,,,,,,,,,,,,,,,,,,,,,,,,,,
089497,001,2022-11-20_23h54.58.978,Info_measure_main_exp,2022.2.2,Win32,60.04202942,,,,,,,,,,,,,,,,,,masks/mask_002.jpg,,,,,,,,,,,,,,,,,,,,,,,,,,,,,,,,,,,,,,,,,,,,,,,,0,2,2,1,1,,,,,,,,,,,,,,,,,,,,,,,,,,,,,,,,,,,,,,,,,
089497,001,2022-11-20_23h54.58.978,Info_measure_main_exp,2022.2.2,Win32,60.04202942,,,,,,,,,,,,,,,,,,masks/mask_003.jpg,,,,,,,,,,,,,,,,,,,,,,,,,,,,,,,,,,,,,,,,,,,,,,,,0,3,3,2,1,,,,,,,,,,,,,,,,,,,,,,,,,,,,,,,,,,,,,,,,,
089497,001,2022-11-20_23h54.58.978,Info_measure_main_exp,2022.2.2,Win32,60.04202942,,,,,,,,,,,,,,,,,,masks/mask_005.jpg,,,,,,,,,,,,,,,,,,,,,,,,,,,,,,,,,,,,,,,,,,,,,,,,0,4,4,4,1,,,,,,,,,,,,,,,,,,,,,,,,,,,,,,,,,,,,,,,,,
089497,001,2022-11-20_23h54.58.978,Info_measure_main_exp,2022.2.2,Win32,60.04202942,,,,,,,,,,,,,,,,,,,,,,,,,,,,,,7,0.6002,1,,,,,,,,,,,,0,131,5,5,2250,1950,absent_patch/patch0002250.jpg,absent_patch/patch0001950.jpg,,,,,,,,,,,,,,,,,,,,0.046296353,0.073148134,1,0,0,response1disk,15,0.012963019,0.001851824,1,0,0,center_square,0,14,14,16,1,,,,,,,,,,,,,,,,,,,,,,,
089497,001,2022-11-20_23h54.58.978,Info_measure_main_exp,2022.2.2,Win32,60.04202942,,,,,,,,,,,,,,,,,,masks/mask_005.jpg,,,,,,,,,,,,,,,,,,,,,,,,,,,,,,,,,,,,,,,,,,,0,0,0,4,1,,,,,,,,,,,,,,,,,,,,,,,,,,,,,,,,,,,,,,,,,,,,,,
089497,001,2022-11-20_23h54.58.978,Info_measure_main_exp,2022.2.2,Win32,60.04202942,,,,,,,,,,,,,,,,,,masks/mask_001.jpg,,,,,,,,,,,,,,,,,,,,,,,,,,,,,,,,,,,,,,,,,,,0,1,1,0,1,,,,,,,,,,,,,,,,,,,,,,,,,,,,,,,,,,,,,,,,,,,,,,
089497,001,2022-11-20_23h54.58.978,Info_measure_main_exp,2022.2.2,Win32,60.04202942,,,,,,,,,,,,,,,,,,masks/mask_002.jpg,,,,,,,,,,,,,,,,,,,,,,,,,,,,,,,,,,,,,,,,,,,0,2,2,1,1,,,,,,,,,,,,,,,,,,,,,,,,,,,,,,,,,,,,,,,,,,,,,,
089497,001,2022-11-20_23h54.58.978,Info_measure_main_exp,2022.2.2,Win32,60.04202942,,,,,,,,,,,,,,,,,,masks/mask_004.jpg,,,,,,,,,,,,,,,,,,,,,,,,,,,,,,,,,,,,,,,,,,,0,3,3,3,1,,,,,,,,,,,,,,,,,,,,,,,,,,,,,,,,,,,,,,,,,,,,,,
089497,001,2022-11-20_23h54.58.978,Info_measure_main_exp,2022.2.2,Win32,60.04202942,,,,,,,,,,,,,,,,,,masks/mask_003.jpg,,,,,,,,,,,,,,,,,,,,,,,,,,,,,,,,,,,,,,,,,,,0,4,4,2,1,,,,,,,,,,,,,,,,,,,,,,,,,,,,,,,,,,,,,,,,,,,,,,
089497,001,2022-11-20_23h54.58.978,Info_measure_main_exp,2022.2.2,Win32,60.04202942,,,,,,,,,,,,,,,,,,masks/mask_002.jpg,,,,,,,,,,,,,,,,,,,,,,,,,,,,,,,,,,,,,,,,,,,,,,,,0,0,0,1,1,,,,,,,,,,,,,,,,,,,,,,,,,,,,,,,,,,,,,,,,,
089497,001,2022-11-20_23h54.58.978,Info_measure_main_exp,2022.2.2,Win32,60.04202942,,,,,,,,,,,,,,,,,,masks/mask_004.jpg,,,,,,,,,,,,,,,,,,,,,,,,,,,,,,,,,,,,,,,,,,,,,,,,0,1,1,3,1,,,,,,,,,,,,,,,,,,,,,,,,,,,,,,,,,,,,,,,,,
089497,001,2022-11-20_23h54.58.978,Info_measure_main_exp,2022.2.2,Win32,60.04202942,,,,,,,,,,,,,,,,,,masks/mask_001.jpg,,,,,,,,,,,,,,,,,,,,,,,,,,,,,,,,,,,,,,,,,,,,,,,,0,2,2,0,1,,,,,,,,,,,,,,,,,,,,,,,,,,,,,,,,,,,,,,,,,
089497,001,2022-11-20_23h54.58.978,Info_measure_main_exp,2022.2.2,Win32,60.04202942,,,,,,,,,,,,,,,,,,masks/mask_005.jpg,,,,,,,,,,,,,,,,,,,,,,,,,,,,,,,,,,,,,,,,,,,,,,,,0,3,3,4,1,,,,,,,,,,,,,,,,,,,,,,,,,,,,,,,,,,,,,,,,,
089497,001,2022-11-20_23h54.58.978,Info_measure_main_exp,2022.2.2,Win32,60.04202942,,,,,,,,,,,,,,,,,,masks/mask_003.jpg,,,,,,,,,,,,,,,,,,,,,,,,,,,,,,,,,,,,,,,,,,,,,,,,0,4,4,2,1,,,,,,,,,,,,,,,,,,,,,,,,,,,,,,,,,,,,,,,,,
089497,001,2022-11-20_23h54.58.978,Info_measure_main_exp,2022.2.2,Win32,60.04202942,,,,,,,,,,,,,,,,,,,,,,,,,,,,,,1,2.8006,1,,,,,,,,,,,,0,131,5,5,1986,2274,absent_patch/patch0001986.jpg,absent_patch/patch0002274.jpg,,,,,,,,,,,,,,,,,,,,-0.088888889,0.026851824,1,0,0,response7disk,16,-0.001851824,-0.000925954,1,0,0,center_square,0,15,15,7,1,,,,,,,,,,,,,,,,,,,,,,,
089497,001,2022-11-20_23h54.58.978,Info_measure_main_exp,2022.2.2,Win32,60.04202942,,,,,,,,,,,,,,,,,,masks/mask_001.jpg,,,,,,,,,,,,,,,,,,,,,,,,,,,,,,,,,,,,,,,,,,,0,0,0,0,1,,,,,,,,,,,,,,,,,,,,,,,,,,,,,,,,,,,,,,,,,,,,,,
089497,001,2022-11-20_23h54.58.978,Info_measure_main_exp,2022.2.2,Win32,60.04202942,,,,,,,,,,,,,,,,,,masks/mask_005.jpg,,,,,,,,,,,,,,,,,,,,,,,,,,,,,,,,,,,,,,,,,,,0,1,1,4,1,,,,,,,,,,,,,,,,,,,,,,,,,,,,,,,,,,,,,,,,,,,,,,
089497,001,2022-11-20_23h54.58.978,Info_measure_main_exp,2022.2.2,Win32,60.04202942,,,,,,,,,,,,,,,,,,masks/mask_004.jpg,,,,,,,,,,,,,,,,,,,,,,,,,,,,,,,,,,,,,,,,,,,0,2,2,3,1,,,,,,,,,,,,,,,,,,,,,,,,,,,,,,,,,,,,,,,,,,,,,,
089497,001,2022-11-20_23h54.58.978,Info_measure_main_exp,2022.2.2,Win32,60.04202942,,,,,,,,,,,,,,,,,,masks/mask_002.jpg,,,,,,,,,,,,,,,,,,,,,,,,,,,,,,,,,,,,,,,,,,,0,3,3,1,1,,,,,,,,,,,,,,,,,,,,,,,,,,,,,,,,,,,,,,,,,,,,,,
089497,001,2022-11-20_23h54.58.978,Info_measure_main_exp,2022.2.2,Win32,60.04202942,,,,,,,,,,,,,,,,,,masks/mask_003.jpg,,,,,,,,,,,,,,,,,,,,,,,,,,,,,,,,,,,,,,,,,,,0,4,4,2,1,,,,,,,,,,,,,,,,,,,,,,,,,,,,,,,,,,,,,,,,,,,,,,
089497,001,2022-11-20_23h54.58.978,Info_measure_main_exp,2022.2.2,Win32,60.04202942,,,,,,,,,,,,,,,,,,masks/mask_005.jpg,,,,,,,,,,,,,,,,,,,,,,,,,,,,,,,,,,,,,,,,,,,,,,,,0,0,0,4,1,,,,,,,,,,,,,,,,,,,,,,,,,,,,,,,,,,,,,,,,,
089497,001,2022-11-20_23h54.58.978,Info_measure_main_exp,2022.2.2,Win32,60.04202942,,,,,,,,,,,,,,,,,,masks/mask_004.jpg,,,,,,,,,,,,,,,,,,,,,,,,,,,,,,,,,,,,,,,,,,,,,,,,0,1,1,3,1,,,,,,,,,,,,,,,,,,,,,,,,,,,,,,,,,,,,,,,,,
089497,001,2022-11-20_23h54.58.978,Info_measure_main_exp,2022.2.2,Win32,60.04202942,,,,,,,,,,,,,,,,,,masks/mask_002.jpg,,,,,,,,,,,,,,,,,,,,,,,,,,,,,,,,,,,,,,,,,,,,,,,,0,2,2,1,1,,,,,,,,,,,,,,,,,,,,,,,,,,,,,,,,,,,,,,,,,
089497,001,2022-11-20_23h54.58.978,Info_measure_main_exp,2022.2.2,Win32,60.04202942,,,,,,,,,,,,,,,,,,masks/mask_001.jpg,,,,,,,,,,,,,,,,,,,,,,,,,,,,,,,,,,,,,,,,,,,,,,,,0,3,3,0,1,,,,,,,,,,,,,,,,,,,,,,,,,,,,,,,,,,,,,,,,,
089497,001,2022-11-20_23h54.58.978,Info_measure_main_exp,2022.2.2,Win32,60.04202942,,,,,,,,,,,,,,,,,,masks/mask_003.jpg,,,,,,,,,,,,,,,,,,,,,,,,,,,,,,,,,,,,,,,,,,,,,,,,0,4,4,2,1,,,,,,,,,,,,,,,,,,,,,,,,,,,,,,,,,,,,,,,,,
089497,001,2022-11-20_23h54.58.978,Info_measure_main_exp,2022.2.2,Win32,60.04202942,,,,,,,,,,,,,,,,,,,,,,,,,,,,,,7,0.8352,1,,,,,,,,,,,,0,131,5,5,1950,2166,absent_patch/patch0001950.jpg,absent_patch/patch0002166.jpg,,,,,,,,,,,,,,,,,,,,0.055555556,0.079629601,1,0,0,response1disk,17,-0.012962935,-0.007407422,1,0,0,center_square,0,16,16,0,1,,,,,,,,,,,,,,,,,,,,,,,
089497,001,2022-11-20_23h54.58.978,Info_measure_main_exp,2022.2.2,Win32,60.04202942,,,,,,,,,,,,,,,,,,masks/mask_005.jpg,,,,,,,,,,,,,,,,,,,,,,,,,,,,,,,,,,,,,,,,,,,0,0,0,4,1,,,,,,,,,,,,,,,,,,,,,,,,,,,,,,,,,,,,,,,,,,,,,,
089497,001,2022-11-20_23h54.58.978,Info_measure_main_exp,2022.2.2,Win32,60.04202942,,,,,,,,,,,,,,,,,,masks/mask_003.jpg,,,,,,,,,,,,,,,,,,,,,,,,,,,,,,,,,,,,,,,,,,,0,1,1,2,1,,,,,,,,,,,,,,,,,,,,,,,,,,,,,,,,,,,,,,,,,,,,,,
089497,001,2022-11-20_23h54.58.978,Info_measure_main_exp,2022.2.2,Win32,60.04202942,,,,,,,,,,,,,,,,,,masks/mask_004.jpg,,,,,,,,,,,,,,,,,,,,,,,,,,,,,,,,,,,,,,,,,,,0,2,2,3,1,,,,,,,,,,,,,,,,,,,,,,,,,,,,,,,,,,,,,,,,,,,,,,
089497,001,2022-11-20_23h54.58.978,Info_measure_main_exp,2022.2.2,Win32,60.04202942,,,,,,,,,,,,,,,,,,masks/mask_002.jpg,,,,,,,,,,,,,,,,,,,,,,,,,,,,,,,,,,,,,,,,,,,0,3,3,1,1,,,,,,,,,,,,,,,,,,,,,,,,,,,,,,,,,,,,,,,,,,,,,,
089497,001,2022-11-20_23h54.58.978,Info_measure_main_exp,2022.2.2,Win32,60.04202942,,,,,,,,,,,,,,,,,,masks/mask_001.jpg,,,,,,,,,,,,,,,,,,,,,,,,,,,,,,,,,,,,,,,,,,,0,4,4,0,1,,,,,,,,,,,,,,,,,,,,,,,,,,,,,,,,,,,,,,,,,,,,,,
089497,001,2022-11-20_23h54.58.978,Info_measure_main_exp,2022.2.2,Win32,60.04202942,,,,,,,,,,,,,,,,,,masks/mask_004.jpg,,,,,,,,,,,,,,,,,,,,,,,,,,,,,,,,,,,,,,,,,,,,,,,,0,0,0,3,1,,,,,,,,,,,,,,,,,,,,,,,,,,,,,,,,,,,,,,,,,
089497,001,2022-11-20_23h54.58.978,Info_measure_main_exp,2022.2.2,Win32,60.04202942,,,,,,,,,,,,,,,,,,masks/mask_003.jpg,,,,,,,,,,,,,,,,,,,,,,,,,,,,,,,,,,,,,,,,,,,,,,,,0,1,1,2,1,,,,,,,,,,,,,,,,,,,,,,,,,,,,,,,,,,,,,,,,,
089497,001,2022-11-20_23h54.58.978,Info_measure_main_exp,2022.2.2,Win32,60.04202942,,,,,,,,,,,,,,,,,,masks/mask_005.jpg,,,,,,,,,,,,,,,,,,,,,,,,,,,,,,,,,,,,,,,,,,,,,,,,0,2,2,4,1,,,,,,,,,,,,,,,,,,,,,,,,,,,,,,,,,,,,,,,,,
089497,001,2022-11-20_23h54.58.978,Info_measure_main_exp,2022.2.2,Win32,60.04202942,,,,,,,,,,,,,,,,,,masks/mask_002.jpg,,,,,,,,,,,,,,,,,,,,,,,,,,,,,,,,,,,,,,,,,,,,,,,,0,3,3,1,1,,,,,,,,,,,,,,,,,,,,,,,,,,,,,,,,,,,,,,,,,
089497,001,2022-11-20_23h54.58.978,Info_measure_main_exp,2022.2.2,Win32,60.04202942,,,,,,,,,,,,,,,,,,masks/mask_001.jpg,,,,,,,,,,,,,,,,,,,,,,,,,,,,,,,,,,,,,,,,,,,,,,,,0,4,4,0,1,,,,,,,,,,,,,,,,,,,,,,,,,,,,,,,,,,,,,,,,,
089497,001,2022-11-20_23h54.58.978,Info_measure_main_exp,2022.2.2,Win32,60.04202942,,,,,,,,,,,,,,,,,,,,,,,,,,,,,,4,2.3446,1,,,,,,,,,,,,1,131,5,5,1,2214,present_patch/cong_131_5_a.jpg,absent_patch/patch0002214.jpg,,,,,,,,,,,,,,,,,,,,0.016666667,-0.086111111,1,0,0,response3disk,18,-0.002777778,0.000925912,1,0,0,center_square,0,17,17,4,1,,,,,,,,,,,,,,,,,,,,,,,
089497,001,2022-11-20_23h54.58.978,Info_measure_main_exp,2022.2.2,Win32,60.04202942,,,,,,,,,,,,,,,,,,masks/mask_001.jpg,,,,,,,,,,,,,,,,,,,,,,,,,,,,,,,,,,,,,,,,,,,0,0,0,0,1,,,,,,,,,,,,,,,,,,,,,,,,,,,,,,,,,,,,,,,,,,,,,,
089497,001,2022-11-20_23h54.58.978,Info_measure_main_exp,2022.2.2,Win32,60.04202942,,,,,,,,,,,,,,,,,,masks/mask_002.jpg,,,,,,,,,,,,,,,,,,,,,,,,,,,,,,,,,,,,,,,,,,,0,1,1,1,1,,,,,,,,,,,,,,,,,,,,,,,,,,,,,,,,,,,,,,,,,,,,,,
089497,001,2022-11-20_23h54.58.978,Info_measure_main_exp,2022.2.2,Win32,60.04202942,,,,,,,,,,,,,,,,,,masks/mask_003.jpg,,,,,,,,,,,,,,,,,,,,,,,,,,,,,,,,,,,,,,,,,,,0,2,2,2,1,,,,,,,,,,,,,,,,,,,,,,,,,,,,,,,,,,,,,,,,,,,,,,
089497,001,2022-11-20_23h54.58.978,Info_measure_main_exp,2022.2.2,Win32,60.04202942,,,,,,,,,,,,,,,,,,masks/mask_005.jpg,,,,,,,,,,,,,,,,,,,,,,,,,,,,,,,,,,,,,,,,,,,0,3,3,4,1,,,,,,,,,,,,,,,,,,,,,,,,,,,,,,,,,,,,,,,,,,,,,,
089497,001,2022-11-20_23h54.58.978,Info_measure_main_exp,2022.2.2,Win32,60.04202942,,,,,,,,,,,,,,,,,,masks/mask_004.jpg,,,,,,,,,,,,,,,,,,,,,,,,,,,,,,,,,,,,,,,,,,,0,4,4,3,1,,,,,,,,,,,,,,,,,,,,,,,,,,,,,,,,,,,,,,,,,,,,,,
089497,001,2022-11-20_23h54.58.978,Info_measure_main_exp,2022.2.2,Win32,60.04202942,,,,,,,,,,,,,,,,,,masks/mask_004.jpg,,,,,,,,,,,,,,,,,,,,,,,,,,,,,,,,,,,,,,,,,,,,,,,,0,0,0,3,1,,,,,,,,,,,,,,,,,,,,,,,,,,,,,,,,,,,,,,,,,
089497,001,2022-11-20_23h54.58.978,Info_measure_main_exp,2022.2.2,Win32,60.04202942,,,,,,,,,,,,,,,,,,masks/mask_002.jpg,,,,,,,,,,,,,,,,,,,,,,,,,,,,,,,,,,,,,,,,,,,,,,,,0,1,1,1,1,,,,,,,,,,,,,,,,,,,,,,,,,,,,,,,,,,,,,,,,,
089497,001,2022-11-20_23h54.58.978,Info_measure_main_exp,2022.2.2,Win32,60.04202942,,,,,,,,,,,,,,,,,,masks/mask_001.jpg,,,,,,,,,,,,,,,,,,,,,,,,,,,,,,,,,,,,,,,,,,,,,,,,0,2,2,0,1,,,,,,,,,,,,,,,,,,,,,,,,,,,,,,,,,,,,,,,,,
089497,001,2022-11-20_23h54.58.978,Info_measure_main_exp,2022.2.2,Win32,60.04202942,,,,,,,,,,,,,,,,,,masks/mask_005.jpg,,,,,,,,,,,,,,,,,,,,,,,,,,,,,,,,,,,,,,,,,,,,,,,,0,3,3,4,1,,,,,,,,,,,,,,,,,,,,,,,,,,,,,,,,,,,,,,,,,
089497,001,2022-11-20_23h54.58.978,Info_measure_main_exp,2022.2.2,Win32,60.04202942,,,,,,,,,,,,,,,,,,masks/mask_003.jpg,,,,,,,,,,,,,,,,,,,,,,,,,,,,,,,,,,,,,,,,,,,,,,,,0,4,4,2,1,,,,,,,,,,,,,,,,,,,,,,,,,,,,,,,,,,,,,,,,,
089497,001,2022-11-20_23h54.58.978,Info_measure_main_exp,2022.2.2,Win32,60.04202942,,,,,,,,,,,,,,,,,,,,,,,,,,,,,,7,0.5861,1,,,,,,,,,,,,0,131,5,5,2154,2250,absent_patch/patch0002154.jpg,absent_patch/patch0002250.jpg,,,,,,,,,,,,,,,,,,,,0.039814843,0.1,1,0,0,response1disk,19,0.004629686,0.008333333,1,0,0,center_square,0,18,18,108,1,,,,,,,,,,,,,,,,,,,,,,,
089497,001,2022-11-20_23h54.58.978,Info_measure_main_exp,2022.2.2,Win32,60.04202942,,,,,,,,,,,,,,,,,,masks/mask_001.jpg,,,,,,,,,,,,,,,,,,,,,,,,,,,,,,,,,,,,,,,,,,,0,0,0,0,1,,,,,,,,,,,,,,,,,,,,,,,,,,,,,,,,,,,,,,,,,,,,,,
089497,001,2022-11-20_23h54.58.978,Info_measure_main_exp,2022.2.2,Win32,60.04202942,,,,,,,,,,,,,,,,,,masks/mask_005.jpg,,,,,,,,,,,,,,,,,,,,,,,,,,,,,,,,,,,,,,,,,,,0,1,1,4,1,,,,,,,,,,,,,,,,,,,,,,,,,,,,,,,,,,,,,,,,,,,,,,
089497,001,2022-11-20_23h54.58.978,Info_measure_main_exp,2022.2.2,Win32,60.04202942,,,,,,,,,,,,,,,,,,masks/mask_004.jpg,,,,,,,,,,,,,,,,,,,,,,,,,,,,,,,,,,,,,,,,,,,0,2,2,3,1,,,,,,,,,,,,,,,,,,,,,,,,,,,,,,,,,,,,,,,,,,,,,,
089497,001,2022-11-20_23h54.58.978,Info_measure_main_exp,2022.2.2,Win32,60.04202942,,,,,,,,,,,,,,,,,,masks/mask_002.jpg,,,,,,,,,,,,,,,,,,,,,,,,,,,,,,,,,,,,,,,,,,,0,3,3,1,1,,,,,,,,,,,,,,,,,,,,,,,,,,,,,,,,,,,,,,,,,,,,,,
089497,001,2022-11-20_23h54.58.978,Info_measure_main_exp,2022.2.2,Win32,60.04202942,,,,,,,,,,,,,,,,,,masks/mask_003.jpg,,,,,,,,,,,,,,,,,,,,,,,,,,,,,,,,,,,,,,,,,,,0,4,4,2,1,,,,,,,,,,,,,,,,,,,,,,,,,,,,,,,,,,,,,,,,,,,,,,
089497,001,2022-11-20_23h54.58.978,Info_measure_main_exp,2022.2.2,Win32,60.04202942,,,,,,,,,,,,,,,,,,masks/mask_002.jpg,,,,,,,,,,,,,,,,,,,,,,,,,,,,,,,,,,,,,,,,,,,,,,,,0,0,0,1,1,,,,,,,,,,,,,,,,,,,,,,,,,,,,,,,,,,,,,,,,,
089497,001,2022-11-20_23h54.58.978,Info_measure_main_exp,2022.2.2,Win32,60.04202942,,,,,,,,,,,,,,,,,,masks/mask_005.jpg,,,,,,,,,,,,,,,,,,,,,,,,,,,,,,,,,,,,,,,,,,,,,,,,0,1,1,4,1,,,,,,,,,,,,,,,,,,,,,,,,,,,,,,,,,,,,,,,,,
089497,001,2022-11-20_23h54.58.978,Info_measure_main_exp,2022.2.2,Win32,60.04202942,,,,,,,,,,,,,,,,,,masks/mask_001.jpg,,,,,,,,,,,,,,,,,,,,,,,,,,,,,,,,,,,,,,,,,,,,,,,,0,2,2,0,1,,,,,,,,,,,,,,,,,,,,,,,,,,,,,,,,,,,,,,,,,
089497,001,2022-11-20_23h54.58.978,Info_measure_main_exp,2022.2.2,Win32,60.04202942,,,,,,,,,,,,,,,,,,masks/mask_004.jpg,,,,,,,,,,,,,,,,,,,,,,,,,,,,,,,,,,,,,,,,,,,,,,,,0,3,3,3,1,,,,,,,,,,,,,,,,,,,,,,,,,,,,,,,,,,,,,,,,,
089497,001,2022-11-20_23h54.58.978,Info_measure_main_exp,2022.2.2,Win32,60.04202942,,,,,,,,,,,,,,,,,,masks/mask_003.jpg,,,,,,,,,,,,,,,,,,,,,,,,,,,,,,,,,,,,,,,,,,,,,,,,0,4,4,2,1,,,,,,,,,,,,,,,,,,,,,,,,,,,,,,,,,,,,,,,,,
089497,001,2022-11-20_23h54.58.978,Info_measure_main_exp,2022.2.2,Win32,60.04202942,,,,,,,,,,,,,,,,,,,,,,,,,,,,,,7,0.6009,1,,,,,,,,,,,,0,131,5,5,2178,1986,absent_patch/patch0002178.jpg,absent_patch/patch0001986.jpg,,,,,,,,,,,,,,,,,,,,0.030555556,0.075,1,0,0,response1disk,20,-0.002777778,-0.012037065,1,0,0,center_square,0,19,19,46,1,,,,,,,,,,,,,,,,,,,,,,,
089497,001,2022-11-20_23h54.58.978,Info_measure_main_exp,2022.2.2,Win32,60.04202942,,,,,,,,,,,,,,,,,,masks/mask_004.jpg,,,,,,,,,,,,,,,,,,,,,,,,,,,,,,,,,,,,,,,,,,,0,0,0,3,1,,,,,,,,,,,,,,,,,,,,,,,,,,,,,,,,,,,,,,,,,,,,,,
089497,001,2022-11-20_23h54.58.978,Info_measure_main_exp,2022.2.2,Win32,60.04202942,,,,,,,,,,,,,,,,,,masks/mask_003.jpg,,,,,,,,,,,,,,,,,,,,,,,,,,,,,,,,,,,,,,,,,,,0,1,1,2,1,,,,,,,,,,,,,,,,,,,,,,,,,,,,,,,,,,,,,,,,,,,,,,
089497,001,2022-11-20_23h54.58.978,Info_measure_main_exp,2022.2.2,Win32,60.04202942,,,,,,,,,,,,,,,,,,masks/mask_001.jpg,,,,,,,,,,,,,,,,,,,,,,,,,,,,,,,,,,,,,,,,,,,0,2,2,0,1,,,,,,,,,,,,,,,,,,,,,,,,,,,,,,,,,,,,,,,,,,,,,,
089497,001,2022-11-20_23h54.58.978,Info_measure_main_exp,2022.2.2,Win32,60.04202942,,,,,,,,,,,,,,,,,,masks/mask_002.jpg,,,,,,,,,,,,,,,,,,,,,,,,,,,,,,,,,,,,,,,,,,,0,3,3,1,1,,,,,,,,,,,,,,,,,,,,,,,,,,,,,,,,,,,,,,,,,,,,,,
089497,001,2022-11-20_23h54.58.978,Info_measure_main_exp,2022.2.2,Win32,60.04202942,,,,,,,,,,,,,,,,,,masks/mask_005.jpg,,,,,,,,,,,,,,,,,,,,,,,,,,,,,,,,,,,,,,,,,,,0,4,4,4,1,,,,,,,,,,,,,,,,,,,,,,,,,,,,,,,,,,,,,,,,,,,,,,
089497,001,2022-11-20_23h54.58.978,Info_measure_main_exp,2022.2.2,Win32,60.04202942,,,,,,,,,,,,,,,,,,masks/mask_003.jpg,,,,,,,,,,,,,,,,,,,,,,,,,,,,,,,,,,,,,,,,,,,,,,,,0,0,0,2,1,,,,,,,,,,,,,,,,,,,,,,,,,,,,,,,,,,,,,,,,,
089497,001,2022-11-20_23h54.58.978,Info_measure_main_exp,2022.2.2,Win32,60.04202942,,,,,,,,,,,,,,,,,,masks/mask_001.jpg,,,,,,,,,,,,,,,,,,,,,,,,,,,,,,,,,,,,,,,,,,,,,,,,0,1,1,0,1,,,,,,,,,,,,,,,,,,,,,,,,,,,,,,,,,,,,,,,,,
089497,001,2022-11-20_23h54.58.978,Info_measure_main_exp,2022.2.2,Win32,60.04202942,,,,,,,,,,,,,,,,,,masks/mask_004.jpg,,,,,,,,,,,,,,,,,,,,,,,,,,,,,,,,,,,,,,,,,,,,,,,,0,2,2,3,1,,,,,,,,,,,,,,,,,,,,,,,,,,,,,,,,,,,,,,,,,
089497,001,2022-11-20_23h54.58.978,Info_measure_main_exp,2022.2.2,Win32,60.04202942,,,,,,,,,,,,,,,,,,masks/mask_002.jpg,,,,,,,,,,,,,,,,,,,,,,,,,,,,,,,,,,,,,,,,,,,,,,,,0,3,3,1,1,,,,,,,,,,,,,,,,,,,,,,,,,,,,,,,,,,,,,,,,,
089497,001,2022-11-20_23h54.58.978,Info_measure_main_exp,2022.2.2,Win32,60.04202942,,,,,,,,,,,,,,,,,,masks/mask_005.jpg,,,,,,,,,,,,,,,,,,,,,,,,,,,,,,,,,,,,,,,,,,,,,,,,0,4,4,4,1,,,,,,,,,,,,,,,,,,,,,,,,,,,,,,,,,,,,,,,,,
089497,001,2022-11-20_23h54.58.978,Info_measure_main_exp,2022.2.2,Win32,60.04202942,,,,,,,,,,,,,,,,,,,,,,,,,,,,,,7,0.5931,1,,,,,,,,,,,,0,131,5,5,2274,2214,absent_patch/patch0002274.jpg,absent_patch/patch0002214.jpg,,,,,,,,,,,,,,,,,,,,0.069444444,0.088888889,1,0,0,response1disk,21,0.00648151,0.00370369,1,0,0,center_square,0,20,20,11,1,,,,,,,,,,,,,,,,,,,,,,,
089497,001,2022-11-20_23h54.58.978,Info_measure_main_exp,2022.2.2,Win32,60.04202942,,,,,,,,,,,,,,,,,,masks/mask_001.jpg,,,,,,,,,,,,,,,,,,,,,,,,,,,,,,,,,,,,,,,,,,,0,0,0,0,1,,,,,,,,,,,,,,,,,,,,,,,,,,,,,,,,,,,,,,,,,,,,,,
089497,001,2022-11-20_23h54.58.978,Info_measure_main_exp,2022.2.2,Win32,60.04202942,,,,,,,,,,,,,,,,,,masks/mask_002.jpg,,,,,,,,,,,,,,,,,,,,,,,,,,,,,,,,,,,,,,,,,,,0,1,1,1,1,,,,,,,,,,,,,,,,,,,,,,,,,,,,,,,,,,,,,,,,,,,,,,
089497,001,2022-11-20_23h54.58.978,Info_measure_main_exp,2022.2.2,Win32,60.04202942,,,,,,,,,,,,,,,,,,masks/mask_004.jpg,,,,,,,,,,,,,,,,,,,,,,,,,,,,,,,,,,,,,,,,,,,0,2,2,3,1,,,,,,,,,,,,,,,,,,,,,,,,,,,,,,,,,,,,,,,,,,,,,,
089497,001,2022-11-20_23h54.58.978,Info_measure_main_exp,2022.2.2,Win32,60.04202942,,,,,,,,,,,,,,,,,,masks/mask_003.jpg,,,,,,,,,,,,,,,,,,,,,,,,,,,,,,,,,,,,,,,,,,,0,3,3,2,1,,,,,,,,,,,,,,,,,,,,,,,,,,,,,,,,,,,,,,,,,,,,,,
089497,001,2022-11-20_23h54.58.978,Info_measure_main_exp,2022.2.2,Win32,60.04202942,,,,,,,,,,,,,,,,,,masks/mask_005.jpg,,,,,,,,,,,,,,,,,,,,,,,,,,,,,,,,,,,,,,,,,,,0,4,4,4,1,,,,,,,,,,,,,,,,,,,,,,,,,,,,,,,,,,,,,,,,,,,,,,
089497,001,2022-11-20_23h54.58.978,Info_measure_main_exp,2022.2.2,Win32,60.04202942,,,,,,,,,,,,,,,,,,masks/mask_005.jpg,,,,,,,,,,,,,,,,,,,,,,,,,,,,,,,,,,,,,,,,,,,,,,,,0,0,0,4,1,,,,,,,,,,,,,,,,,,,,,,,,,,,,,,,,,,,,,,,,,
089497,001,2022-11-20_23h54.58.978,Info_measure_main_exp,2022.2.2,Win32,60.04202942,,,,,,,,,,,,,,,,,,masks/mask_003.jpg,,,,,,,,,,,,,,,,,,,,,,,,,,,,,,,,,,,,,,,,,,,,,,,,0,1,1,2,1,,,,,,,,,,,,,,,,,,,,,,,,,,,,,,,,,,,,,,,,,
089497,001,2022-11-20_23h54.58.978,Info_measure_main_exp,2022.2.2,Win32,60.04202942,,,,,,,,,,,,,,,,,,masks/mask_002.jpg,,,,,,,,,,,,,,,,,,,,,,,,,,,,,,,,,,,,,,,,,,,,,,,,0,2,2,1,1,,,,,,,,,,,,,,,,,,,,,,,,,,,,,,,,,,,,,,,,,
089497,001,2022-11-20_23h54.58.978,Info_measure_main_exp,2022.2.2,Win32,60.04202942,,,,,,,,,,,,,,,,,,masks/mask_001.jpg,,,,,,,,,,,,,,,,,,,,,,,,,,,,,,,,,,,,,,,,,,,,,,,,0,3,3,0,1,,,,,,,,,,,,,,,,,,,,,,,,,,,,,,,,,,,,,,,,,
089497,001,2022-11-20_23h54.58.978,Info_measure_main_exp,2022.2.2,Win32,60.04202942,,,,,,,,,,,,,,,,,,masks/mask_004.jpg,,,,,,,,,,,,,,,,,,,,,,,,,,,,,,,,,,,,,,,,,,,,,,,,0,4,4,3,1,,,,,,,,,,,,,,,,,,,,,,,,,,,,,,,,,,,,,,,,,
089497,001,2022-11-20_23h54.58.978,Info_measure_main_exp,2022.2.2,Win32,60.04202942,,,,,,,,,,,,,,,,,,,,,,,,,,,,,,7,0.4838,1,,,,,,,,,,,,0,131,5,5,2250,2142,absent_patch/patch0002250.jpg,absent_patch/patch0002142.jpg,,,,,,,,,,,,,,,,,,,,0.051851908,0.091666667,1,0,0,response1disk,22,0.004629686,0.002777778,1,0,0,center_square,0,21,21,71,1,,,,,,,,,,,,,,,,,,,,,,,
089497,001,2022-11-20_23h54.58.978,Info_measure_main_exp,2022.2.2,Win32,60.04202942,,,,,,,,,,,,,,,,,,masks/mask_001.jpg,,,,,,,,,,,,,,,,,,,,,,,,,,,,,,,,,,,,,,,,,,,0,0,0,0,1,,,,,,,,,,,,,,,,,,,,,,,,,,,,,,,,,,,,,,,,,,,,,,
089497,001,2022-11-20_23h54.58.978,Info_measure_main_exp,2022.2.2,Win32,60.04202942,,,,,,,,,,,,,,,,,,masks/mask_002.jpg,,,,,,,,,,,,,,,,,,,,,,,,,,,,,,,,,,,,,,,,,,,0,1,1,1,1,,,,,,,,,,,,,,,,,,,,,,,,,,,,,,,,,,,,,,,,,,,,,,
089497,001,2022-11-20_23h54.58.978,Info_measure_main_exp,2022.2.2,Win32,60.04202942,,,,,,,,,,,,,,,,,,masks/mask_005.jpg,,,,,,,,,,,,,,,,,,,,,,,,,,,,,,,,,,,,,,,,,,,0,2,2,4,1,,,,,,,,,,,,,,,,,,,,,,,,,,,,,,,,,,,,,,,,,,,,,,
089497,001,2022-11-20_23h54.58.978,Info_measure_main_exp,2022.2.2,Win32,60.04202942,,,,,,,,,,,,,,,,,,masks/mask_003.jpg,,,,,,,,,,,,,,,,,,,,,,,,,,,,,,,,,,,,,,,,,,,0,3,3,2,1,,,,,,,,,,,,,,,,,,,,,,,,,,,,,,,,,,,,,,,,,,,,,,
089497,001,2022-11-20_23h54.58.978,Info_measure_main_exp,2022.2.2,Win32,60.04202942,,,,,,,,,,,,,,,,,,masks/mask_004.jpg,,,,,,,,,,,,,,,,,,,,,,,,,,,,,,,,,,,,,,,,,,,0,4,4,3,1,,,,,,,,,,,,,,,,,,,,,,,,,,,,,,,,,,,,,,,,,,,,,,
089497,001,2022-11-20_23h54.58.978,Info_measure_main_exp,2022.2.2,Win32,60.04202942,,,,,,,,,,,,,,,,,,masks/mask_004.jpg,,,,,,,,,,,,,,,,,,,,,,,,,,,,,,,,,,,,,,,,,,,,,,,,0,0,0,3,1,,,,,,,,,,,,,,,,,,,,,,,,,,,,,,,,,,,,,,,,,
089497,001,2022-11-20_23h54.58.978,Info_measure_main_exp,2022.2.2,Win32,60.04202942,,,,,,,,,,,,,,,,,,masks/mask_005.jpg,,,,,,,,,,,,,,,,,,,,,,,,,,,,,,,,,,,,,,,,,,,,,,,,0,1,1,4,1,,,,,,,,,,,,,,,,,,,,,,,,,,,,,,,,,,,,,,,,,
089497,001,2022-11-20_23h54.58.978,Info_measure_main_exp,2022.2.2,Win32,60.04202942,,,,,,,,,,,,,,,,,,masks/mask_002.jpg,,,,,,,,,,,,,,,,,,,,,,,,,,,,,,,,,,,,,,,,,,,,,,,,0,2,2,1,1,,,,,,,,,,,,,,,,,,,,,,,,,,,,,,,,,,,,,,,,,
089497,001,2022-11-20_23h54.58.978,Info_measure_main_exp,2022.2.2,Win32,60.04202942,,,,,,,,,,,,,,,,,,masks/mask_003.jpg,,,,,,,,,,,,,,,,,,,,,,,,,,,,,,,,,,,,,,,,,,,,,,,,0,3,3,2,1,,,,,,,,,,,,,,,,,,,,,,,,,,,,,,,,,,,,,,,,,
089497,001,2022-11-20_23h54.58.978,Info_measure_main_exp,2022.2.2,Win32,60.04202942,,,,,,,,,,,,,,,,,,masks/mask_001.jpg,,,,,,,,,,,,,,,,,,,,,,,,,,,,,,,,,,,,,,,,,,,,,,,,0,4,4,0,1,,,,,,,,,,,,,,,,,,,,,,,,,,,,,,,,,,,,,,,,,
089497,001,2022-11-20_23h54.58.978,Info_measure_main_exp,2022.2.2,Win32,60.04202942,,,,,,,,,,,,,,,,,,,,,,,,,,,,,,2,1.316,1,,,,,,,,,,,,1,131,5,5,1,2166,present_patch/cong_131_5_a.jpg,absent_patch/patch0002166.jpg,,,,,,,,,,,,,,,,,,,,-0.116666667,-0.035185199,1,0,0,response5disk,23,-0.001851824,0.006481467,1,0,0,center_square,0,22,22,54,1,,,,,,,,,,,,,,,,,,,,,,,
089497,001,2022-11-20_23h54.58.978,Info_measure_main_exp,2022.2.2,Win32,60.04202942,,,,,,,,,,,,,,,,,,masks/mask_003.jpg,,,,,,,,,,,,,,,,,,,,,,,,,,,,,,,,,,,,,,,,,,,0,0,0,2,1,,,,,,,,,,,,,,,,,,,,,,,,,,,,,,,,,,,,,,,,,,,,,,
089497,001,2022-11-20_23h54.58.978,Info_measure_main_exp,2022.2.2,Win32,60.04202942,,,,,,,,,,,,,,,,,,masks/mask_004.jpg,,,,,,,,,,,,,,,,,,,,,,,,,,,,,,,,,,,,,,,,,,,0,1,1,3,1,,,,,,,,,,,,,,,,,,,,,,,,,,,,,,,,,,,,,,,,,,,,,,
089497,001,2022-11-20_23h54.58.978,Info_measure_main_exp,2022.2.2,Win32,60.04202942,,,,,,,,,,,,,,,,,,masks/mask_001.jpg,,,,,,,,,,,,,,,,,,,,,,,,,,,,,,,,,,,,,,,,,,,0,2,2,0,1,,,,,,,,,,,,,,,,,,,,,,,,,,,,,,,,,,,,,,,,,,,,,,
089497,001,2022-11-20_23h54.58.978,Info_measure_main_exp,2022.2.2,Win32,60.04202942,,,,,,,,,,,,,,,,,,masks/mask_002.jpg,,,,,,,,,,,,,,,,,,,,,,,,,,,,,,,,,,,,,,,,,,,0,3,3,1,1,,,,,,,,,,,,,,,,,,,,,,,,,,,,,,,,,,,,,,,,,,,,,,
089497,001,2022-11-20_23h54.58.978,Info_measure_main_exp,2022.2.2,Win32,60.04202942,,,,,,,,,,,,,,,,,,masks/mask_005.jpg,,,,,,,,,,,,,,,,,,,,,,,,,,,,,,,,,,,,,,,,,,,0,4,4,4,1,,,,,,,,,,,,,,,,,,,,,,,,,,,,,,,,,,,,,,,,,,,,,,
089497,001,2022-11-20_23h54.58.978,Info_measure_main_exp,2022.2.2,Win32,60.04202942,,,,,,,,,,,,,,,,,,masks/mask_003.jpg,,,,,,,,,,,,,,,,,,,,,,,,,,,,,,,,,,,,,,,,,,,,,,,,0,0,0,2,1,,,,,,,,,,,,,,,,,,,,,,,,,,,,,,,,,,,,,,,,,
089497,001,2022-11-20_23h54.58.978,Info_measure_main_exp,2022.2.2,Win32,60.04202942,,,,,,,,,,,,,,,,,,masks/mask_002.jpg,,,,,,,,,,,,,,,,,,,,,,,,,,,,,,,,,,,,,,,,,,,,,,,,0,1,1,1,1,,,,,,,,,,,,,,,,,,,,,,,,,,,,,,,,,,,,,,,,,
089497,001,2022-11-20_23h54.58.978,Info_measure_main_exp,2022.2.2,Win32,60.04202942,,,,,,,,,,,,,,,,,,masks/mask_005.jpg,,,,,,,,,,,,,,,,,,,,,,,,,,,,,,,,,,,,,,,,,,,,,,,,0,2,2,4,1,,,,,,,,,,,,,,,,,,,,,,,,,,,,,,,,,,,,,,,,,
089497,001,2022-11-20_23h54.58.978,Info_measure_main_exp,2022.2.2,Win32,60.04202942,,,,,,,,,,,,,,,,,,masks/mask_004.jpg,,,,,,,,,,,,,,,,,,,,,,,,,,,,,,,,,,,,,,,,,,,,,,,,0,3,3,3,1,,,,,,,,,,,,,,,,,,,,,,,,,,,,,,,,,,,,,,,,,
089497,001,2022-11-20_23h54.58.978,Info_measure_main_exp,2022.2.2,Win32,60.04202942,,,,,,,,,,,,,,,,,,masks/mask_001.jpg,,,,,,,,,,,,,,,,,,,,,,,,,,,,,,,,,,,,,,,,,,,,,,,,0,4,4,0,1,,,,,,,,,,,,,,,,,,,,,,,,,,,,,,,,,,,,,,,,,
089497,001,2022-11-20_23h54.58.978,Info_measure_main_exp,2022.2.2,Win32,60.04202942,,,,,,,,,,,,,,,,,,,,,,,,,,,,,,7,1.9509,1,,,,,,,,,,,,0,131,5,5,2190,2166,absent_patch/patch0002190.jpg,absent_patch/patch0002166.jpg,,,,,,,,,,,,,,,,,,,,0.051851908,0.097222222,1,0,0,response1disk,24,0.002777778,0.001851824,1,0,0,center_square,0,23,23,50,1,,,,,,,,,,,,,,,,,,,,,,,
089497,001,2022-11-20_23h54.58.978,Info_measure_main_exp,2022.2.2,Win32,60.04202942,,,,,,,,,,,,,,,,,,masks/mask_002.jpg,,,,,,,,,,,,,,,,,,,,,,,,,,,,,,,,,,,,,,,,,,,0,0,0,1,1,,,,,,,,,,,,,,,,,,,,,,,,,,,,,,,,,,,,,,,,,,,,,,
089497,001,2022-11-20_23h54.58.978,Info_measure_main_exp,2022.2.2,Win32,60.04202942,,,,,,,,,,,,,,,,,,masks/mask_004.jpg,,,,,,,,,,,,,,,,,,,,,,,,,,,,,,,,,,,,,,,,,,,0,1,1,3,1,,,,,,,,,,,,,,,,,,,,,,,,,,,,,,,,,,,,,,,,,,,,,,
089497,001,2022-11-20_23h54.58.978,Info_measure_main_exp,2022.2.2,Win32,60.04202942,,,,,,,,,,,,,,,,,,masks/mask_005.jpg,,,,,,,,,,,,,,,,,,,,,,,,,,,,,,,,,,,,,,,,,,,0,2,2,4,1,,,,,,,,,,,,,,,,,,,,,,,,,,,,,,,,,,,,,,,,,,,,,,
089497,001,2022-11-20_23h54.58.978,Info_measure_main_exp,2022.2.2,Win32,60.04202942,,,,,,,,,,,,,,,,,,masks/mask_001.jpg,,,,,,,,,,,,,,,,,,,,,,,,,,,,,,,,,,,,,,,,,,,0,3,3,0,1,,,,,,,,,,,,,,,,,,,,,,,,,,,,,,,,,,,,,,,,,,,,,,
089497,001,2022-11-20_23h54.58.978,Info_measure_main_exp,2022.2.2,Win32,60.04202942,,,,,,,,,,,,,,,,,,masks/mask_003.jpg,,,,,,,,,,,,,,,,,,,,,,,,,,,,,,,,,,,,,,,,,,,0,4,4,2,1,,,,,,,,,,,,,,,,,,,,,,,,,,,,,,,,,,,,,,,,,,,,,,
089497,001,2022-11-20_23h54.58.978,Info_measure_main_exp,2022.2.2,Win32,60.04202942,,,,,,,,,,,,,,,,,,masks/mask_001.jpg,,,,,,,,,,,,,,,,,,,,,,,,,,,,,,,,,,,,,,,,,,,,,,,,0,0,0,0,1,,,,,,,,,,,,,,,,,,,,,,,,,,,,,,,,,,,,,,,,,
089497,001,2022-11-20_23h54.58.978,Info_measure_main_exp,2022.2.2,Win32,60.04202942,,,,,,,,,,,,,,,,,,masks/mask_005.jpg,,,,,,,,,,,,,,,,,,,,,,,,,,,,,,,,,,,,,,,,,,,,,,,,0,1,1,4,1,,,,,,,,,,,,,,,,,,,,,,,,,,,,,,,,,,,,,,,,,
089497,001,2022-11-20_23h54.58.978,Info_measure_main_exp,2022.2.2,Win32,60.04202942,,,,,,,,,,,,,,,,,,masks/mask_002.jpg,,,,,,,,,,,,,,,,,,,,,,,,,,,,,,,,,,,,,,,,,,,,,,,,0,2,2,1,1,,,,,,,,,,,,,,,,,,,,,,,,,,,,,,,,,,,,,,,,,
089497,001,2022-11-20_23h54.58.978,Info_measure_main_exp,2022.2.2,Win32,60.04202942,,,,,,,,,,,,,,,,,,masks/mask_004.jpg,,,,,,,,,,,,,,,,,,,,,,,,,,,,,,,,,,,,,,,,,,,,,,,,0,3,3,3,1,,,,,,,,,,,,,,,,,,,,,,,,,,,,,,,,,,,,,,,,,
089497,001,2022-11-20_23h54.58.978,Info_measure_main_exp,2022.2.2,Win32,60.04202942,,,,,,,,,,,,,,,,,,masks/mask_003.jpg,,,,,,,,,,,,,,,,,,,,,,,,,,,,,,,,,,,,,,,,,,,,,,,,0,4,4,2,1,,,,,,,,,,,,,,,,,,,,,,,,,,,,,,,,,,,,,,,,,
089497,001,2022-11-20_23h54.58.978,Info_measure_main_exp,2022.2.2,Win32,60.04202942,,,,,,,,,,,,,,,,,,,,,,,,,,,,,,7,0.6135,1,,,,,,,,,,,,0,131,5,5,2142,2154,absent_patch/patch0002142.jpg,absent_patch/patch0002154.jpg,,,,,,,,,,,,,,,,,,,,0.018518575,0.065740712,1,0,0,response1disk,25,0.005555556,0,1,0,0,center_square,0,24,24,9,1,,,,,,,,,,,,,,,,,,,,,,,
089497,001,2022-11-20_23h54.58.978,Info_measure_main_exp,2022.2.2,Win32,60.04202942,,,,,,,,,,,,,,,,,,masks/mask_005.jpg,,,,,,,,,,,,,,,,,,,,,,,,,,,,,,,,,,,,,,,,,,,0,0,0,4,1,,,,,,,,,,,,,,,,,,,,,,,,,,,,,,,,,,,,,,,,,,,,,,
089497,001,2022-11-20_23h54.58.978,Info_measure_main_exp,2022.2.2,Win32,60.04202942,,,,,,,,,,,,,,,,,,masks/mask_001.jpg,,,,,,,,,,,,,,,,,,,,,,,,,,,,,,,,,,,,,,,,,,,0,1,1,0,1,,,,,,,,,,,,,,,,,,,,,,,,,,,,,,,,,,,,,,,,,,,,,,
089497,001,2022-11-20_23h54.58.978,Info_measure_main_exp,2022.2.2,Win32,60.04202942,,,,,,,,,,,,,,,,,,masks/mask_003.jpg,,,,,,,,,,,,,,,,,,,,,,,,,,,,,,,,,,,,,,,,,,,0,2,2,2,1,,,,,,,,,,,,,,,,,,,,,,,,,,,,,,,,,,,,,,,,,,,,,,
089497,001,2022-11-20_23h54.58.978,Info_measure_main_exp,2022.2.2,Win32,60.04202942,,,,,,,,,,,,,,,,,,masks/mask_002.jpg,,,,,,,,,,,,,,,,,,,,,,,,,,,,,,,,,,,,,,,,,,,0,3,3,1,1,,,,,,,,,,,,,,,,,,,,,,,,,,,,,,,,,,,,,,,,,,,,,,
089497,001,2022-11-20_23h54.58.978,Info_measure_main_exp,2022.2.2,Win32,60.04202942,,,,,,,,,,,,,,,,,,masks/mask_004.jpg,,,,,,,,,,,,,,,,,,,,,,,,,,,,,,,,,,,,,,,,,,,0,4,4,3,1,,,,,,,,,,,,,,,,,,,,,,,,,,,,,,,,,,,,,,,,,,,,,,
089497,001,2022-11-20_23h54.58.978,Info_measure_main_exp,2022.2.2,Win32,60.04202942,,,,,,,,,,,,,,,,,,masks/mask_002.jpg,,,,,,,,,,,,,,,,,,,,,,,,,,,,,,,,,,,,,,,,,,,,,,,,0,0,0,1,1,,,,,,,,,,,,,,,,,,,,,,,,,,,,,,,,,,,,,,,,,
089497,001,2022-11-20_23h54.58.978,Info_measure_main_exp,2022.2.2,Win32,60.04202942,,,,,,,,,,,,,,,,,,masks/mask_004.jpg,,,,,,,,,,,,,,,,,,,,,,,,,,,,,,,,,,,,,,,,,,,,,,,,0,1,1,3,1,,,,,,,,,,,,,,,,,,,,,,,,,,,,,,,,,,,,,,,,,
089497,001,2022-11-20_23h54.58.978,Info_measure_main_exp,2022.2.2,Win32,60.04202942,,,,,,,,,,,,,,,,,,masks/mask_003.jpg,,,,,,,,,,,,,,,,,,,,,,,,,,,,,,,,,,,,,,,,,,,,,,,,0,2,2,2,1,,,,,,,,,,,,,,,,,,,,,,,,,,,,,,,,,,,,,,,,,
089497,001,2022-11-20_23h54.58.978,Info_measure_main_exp,2022.2.2,Win32,60.04202942,,,,,,,,,,,,,,,,,,masks/mask_001.jpg,,,,,,,,,,,,,,,,,,,,,,,,,,,,,,,,,,,,,,,,,,,,,,,,0,3,3,0,1,,,,,,,,,,,,,,,,,,,,,,,,,,,,,,,,,,,,,,,,,
089497,001,2022-11-20_23h54.58.978,Info_measure_main_exp,2022.2.2,Win32,60.04202942,,,,,,,,,,,,,,,,,,masks/mask_005.jpg,,,,,,,,,,,,,,,,,,,,,,,,,,,,,,,,,,,,,,,,,,,,,,,,0,4,4,4,1,,,,,,,,,,,,,,,,,,,,,,,,,,,,,,,,,,,,,,,,,
089497,001,2022-11-20_23h54.58.978,Info_measure_main_exp,2022.2.2,Win32,60.04202942,,,,,,,,,,,,,,,,,,,,,,,,,,,,,,7,0.7088,1,,,,,,,,,,,,0,131,5,5,2298,2178,absent_patch/patch0002298.jpg,absent_patch/patch0002178.jpg,,,,,,,,,,,,,,,,,,,,0.037037065,0.051851824,1,0,0,response1disk,26,-0.006481425,-0.011111111,1,0,0,center_square,0,25,25,84,1,,,,,,,,,,,,,,,,,,,,,,,
089497,001,2022-11-20_23h54.58.978,Info_measure_main_exp,2022.2.2,Win32,60.04202942,,,,,,,,,,,,,,,,,,masks/mask_002.jpg,,,,,,,,,,,,,,,,,,,,,,,,,,,,,,,,,,,,,,,,,,,0,0,0,1,1,,,,,,,,,,,,,,,,,,,,,,,,,,,,,,,,,,,,,,,,,,,,,,
089497,001,2022-11-20_23h54.58.978,Info_measure_main_exp,2022.2.2,Win32,60.04202942,,,,,,,,,,,,,,,,,,masks/mask_004.jpg,,,,,,,,,,,,,,,,,,,,,,,,,,,,,,,,,,,,,,,,,,,0,1,1,3,1,,,,,,,,,,,,,,,,,,,,,,,,,,,,,,,,,,,,,,,,,,,,,,
089497,001,2022-11-20_23h54.58.978,Info_measure_main_exp,2022.2.2,Win32,60.04202942,,,,,,,,,,,,,,,,,,masks/mask_001.jpg,,,,,,,,,,,,,,,,,,,,,,,,,,,,,,,,,,,,,,,,,,,0,2,2,0,1,,,,,,,,,,,,,,,,,,,,,,,,,,,,,,,,,,,,,,,,,,,,,,
089497,001,2022-11-20_23h54.58.978,Info_measure_main_exp,2022.2.2,Win32,60.04202942,,,,,,,,,,,,,,,,,,masks/mask_003.jpg,,,,,,,,,,,,,,,,,,,,,,,,,,,,,,,,,,,,,,,,,,,0,3,3,2,1,,,,,,,,,,,,,,,,,,,,,,,,,,,,,,,,,,,,,,,,,,,,,,
089497,001,2022-11-20_23h54.58.978,Info_measure_main_exp,2022.2.2,Win32,60.04202942,,,,,,,,,,,,,,,,,,masks/mask_005.jpg,,,,,,,,,,,,,,,,,,,,,,,,,,,,,,,,,,,,,,,,,,,0,4,4,4,1,,,,,,,,,,,,,,,,,,,,,,,,,,,,,,,,,,,,,,,,,,,,,,
089497,001,2022-11-20_23h54.58.978,Info_measure_main_exp,2022.2.2,Win32,60.04202942,,,,,,,,,,,,,,,,,,masks/mask_003.jpg,,,,,,,,,,,,,,,,,,,,,,,,,,,,,,,,,,,,,,,,,,,,,,,,0,0,0,2,1,,,,,,,,,,,,,,,,,,,,,,,,,,,,,,,,,,,,,,,,,
089497,001,2022-11-20_23h54.58.978,Info_measure_main_exp,2022.2.2,Win32,60.04202942,,,,,,,,,,,,,,,,,,masks/mask_005.jpg,,,,,,,,,,,,,,,,,,,,,,,,,,,,,,,,,,,,,,,,,,,,,,,,0,1,1,4,1,,,,,,,,,,,,,,,,,,,,,,,,,,,,,,,,,,,,,,,,,
089497,001,2022-11-20_23h54.58.978,Info_measure_main_exp,2022.2.2,Win32,60.04202942,,,,,,,,,,,,,,,,,,masks/mask_002.jpg,,,,,,,,,,,,,,,,,,,,,,,,,,,,,,,,,,,,,,,,,,,,,,,,0,2,2,1,1,,,,,,,,,,,,,,,,,,,,,,,,,,,,,,,,,,,,,,,,,
089497,001,2022-11-20_23h54.58.978,Info_measure_main_exp,2022.2.2,Win32,60.04202942,,,,,,,,,,,,,,,,,,masks/mask_004.jpg,,,,,,,,,,,,,,,,,,,,,,,,,,,,,,,,,,,,,,,,,,,,,,,,0,3,3,3,1,,,,,,,,,,,,,,,,,,,,,,,,,,,,,,,,,,,,,,,,,
089497,001,2022-11-20_23h54.58.978,Info_measure_main_exp,2022.2.2,Win32,60.04202942,,,,,,,,,,,,,,,,,,masks/mask_001.jpg,,,,,,,,,,,,,,,,,,,,,,,,,,,,,,,,,,,,,,,,,,,,,,,,0,4,4,0,1,,,,,,,,,,,,,,,,,,,,,,,,,,,,,,,,,,,,,,,,,
089497,001,2022-11-20_23h54.58.978,Info_measure_main_exp,2022.2.2,Win32,60.04202942,,,,,,,,,,,,,,,,,,,,,,,,,,,,,,7,0.7166,1,,,,,,,,,,,,0,131,5,5,2082,1986,absent_patch/patch0002082.jpg,absent_patch/patch0001986.jpg,,,,,,,,,,,,,,,,,,,,0.070370399,0.111111111,1,0,0,response1disk,27,0.00648151,-0.009259288,1,0,0,center_square,0,26,26,94,1,,,,,,,,,,,,,,,,,,,,,,,
089497,001,2022-11-20_23h54.58.978,Info_measure_main_exp,2022.2.2,Win32,60.04202942,,,,,,,,,,,,,,,,,,masks/mask_001.jpg,,,,,,,,,,,,,,,,,,,,,,,,,,,,,,,,,,,,,,,,,,,0,0,0,0,1,,,,,,,,,,,,,,,,,,,,,,,,,,,,,,,,,,,,,,,,,,,,,,
089497,001,2022-11-20_23h54.58.978,Info_measure_main_exp,2022.2.2,Win32,60.04202942,,,,,,,,,,,,,,,,,,masks/mask_002.jpg,,,,,,,,,,,,,,,,,,,,,,,,,,,,,,,,,,,,,,,,,,,0,1,1,1,1,,,,,,,,,,,,,,,,,,,,,,,,,,,,,,,,,,,,,,,,,,,,,,
089497,001,2022-11-20_23h54.58.978,Info_measure_main_exp,2022.2.2,Win32,60.04202942,,,,,,,,,,,,,,,,,,masks/mask_004.jpg,,,,,,,,,,,,,,,,,,,,,,,,,,,,,,,,,,,,,,,,,,,0,2,2,3,1,,,,,,,,,,,,,,,,,,,,,,,,,,,,,,,,,,,,,,,,,,,,,,
089497,001,2022-11-20_23h54.58.978,Info_measure_main_exp,2022.2.2,Win32,60.04202942,,,,,,,,,,,,,,,,,,masks/mask_005.jpg,,,,,,,,,,,,,,,,,,,,,,,,,,,,,,,,,,,,,,,,,,,0,3,3,4,1,,,,,,,,,,,,,,,,,,,,,,,,,,,,,,,,,,,,,,,,,,,,,,
089497,001,2022-11-20_23h54.58.978,Info_measure_main_exp,2022.2.2,Win32,60.04202942,,,,,,,,,,,,,,,,,,masks/mask_003.jpg,,,,,,,,,,,,,,,,,,,,,,,,,,,,,,,,,,,,,,,,,,,0,4,4,2,1,,,,,,,,,,,,,,,,,,,,,,,,,,,,,,,,,,,,,,,,,,,,,,
089497,001,2022-11-20_23h54.58.978,Info_measure_main_exp,2022.2.2,Win32,60.04202942,,,,,,,,,,,,,,,,,,masks/mask_001.jpg,,,,,,,,,,,,,,,,,,,,,,,,,,,,,,,,,,,,,,,,,,,,,,,,0,0,0,0,1,,,,,,,,,,,,,,,,,,,,,,,,,,,,,,,,,,,,,,,,,
089497,001,2022-11-20_23h54.58.978,Info_measure_main_exp,2022.2.2,Win32,60.04202942,,,,,,,,,,,,,,,,,,masks/mask_005.jpg,,,,,,,,,,,,,,,,,,,,,,,,,,,,,,,,,,,,,,,,,,,,,,,,0,1,1,4,1,,,,,,,,,,,,,,,,,,,,,,,,,,,,,,,,,,,,,,,,,
089497,001,2022-11-20_23h54.58.978,Info_measure_main_exp,2022.2.2,Win32,60.04202942,,,,,,,,,,,,,,,,,,masks/mask_004.jpg,,,,,,,,,,,,,,,,,,,,,,,,,,,,,,,,,,,,,,,,,,,,,,,,0,2,2,3,1,,,,,,,,,,,,,,,,,,,,,,,,,,,,,,,,,,,,,,,,,
089497,001,2022-11-20_23h54.58.978,Info_measure_main_exp,2022.2.2,Win32,60.04202942,,,,,,,,,,,,,,,,,,masks/mask_002.jpg,,,,,,,,,,,,,,,,,,,,,,,,,,,,,,,,,,,,,,,,,,,,,,,,0,3,3,1,1,,,,,,,,,,,,,,,,,,,,,,,,,,,,,,,,,,,,,,,,,
089497,001,2022-11-20_23h54.58.978,Info_measure_main_exp,2022.2.2,Win32,60.04202942,,,,,,,,,,,,,,,,,,masks/mask_003.jpg,,,,,,,,,,,,,,,,,,,,,,,,,,,,,,,,,,,,,,,,,,,,,,,,0,4,4,2,1,,,,,,,,,,,,,,,,,,,,,,,,,,,,,,,,,,,,,,,,,
089497,001,2022-11-20_23h54.58.978,Info_measure_main_exp,2022.2.2,Win32,60.04202942,,,,,,,,,,,,,,,,,,,,,,,,,,,,,,5,1.8136,1,,,,,,,,,,,,0,131,5,5,2274,2142,absent_patch/patch0002274.jpg,absent_patch/patch0002142.jpg,,,,,,,,,,,,,,,,,,,,0.071296353,-0.040740755,1,0,0,response3disk,28,-0.002777778,-0.004629644,1,0,0,center_square,0,27,27,75,1,,,,,,,,,,,,,,,,,,,,,,,
089497,001,2022-11-20_23h54.58.978,Info_measure_main_exp,2022.2.2,Win32,60.04202942,,,,,,,,,,,,,,,,,,masks/mask_004.jpg,,,,,,,,,,,,,,,,,,,,,,,,,,,,,,,,,,,,,,,,,,,0,0,0,3,1,,,,,,,,,,,,,,,,,,,,,,,,,,,,,,,,,,,,,,,,,,,,,,
089497,001,2022-11-20_23h54.58.978,Info_measure_main_exp,2022.2.2,Win32,60.04202942,,,,,,,,,,,,,,,,,,masks/mask_001.jpg,,,,,,,,,,,,,,,,,,,,,,,,,,,,,,,,,,,,,,,,,,,0,1,1,0,1,,,,,,,,,,,,,,,,,,,,,,,,,,,,,,,,,,,,,,,,,,,,,,
089497,001,2022-11-20_23h54.58.978,Info_measure_main_exp,2022.2.2,Win32,60.04202942,,,,,,,,,,,,,,,,,,masks/mask_003.jpg,,,,,,,,,,,,,,,,,,,,,,,,,,,,,,,,,,,,,,,,,,,0,2,2,2,1,,,,,,,,,,,,,,,,,,,,,,,,,,,,,,,,,,,,,,,,,,,,,,
089497,001,2022-11-20_23h54.58.978,Info_measure_main_exp,2022.2.2,Win32,60.04202942,,,,,,,,,,,,,,,,,,masks/mask_002.jpg,,,,,,,,,,,,,,,,,,,,,,,,,,,,,,,,,,,,,,,,,,,0,3,3,1,1,,,,,,,,,,,,,,,,,,,,,,,,,,,,,,,,,,,,,,,,,,,,,,
089497,001,2022-11-20_23h54.58.978,Info_measure_main_exp,2022.2.2,Win32,60.04202942,,,,,,,,,,,,,,,,,,masks/mask_005.jpg,,,,,,,,,,,,,,,,,,,,,,,,,,,,,,,,,,,,,,,,,,,0,4,4,4,1,,,,,,,,,,,,,,,,,,,,,,,,,,,,,,,,,,,,,,,,,,,,,,
089497,001,2022-11-20_23h54.58.978,Info_measure_main_exp,2022.2.2,Win32,60.04202942,,,,,,,,,,,,,,,,,,masks/mask_005.jpg,,,,,,,,,,,,,,,,,,,,,,,,,,,,,,,,,,,,,,,,,,,,,,,,0,0,0,4,1,,,,,,,,,,,,,,,,,,,,,,,,,,,,,,,,,,,,,,,,,
089497,001,2022-11-20_23h54.58.978,Info_measure_main_exp,2022.2.2,Win32,60.04202942,,,,,,,,,,,,,,,,,,masks/mask_004.jpg,,,,,,,,,,,,,,,,,,,,,,,,,,,,,,,,,,,,,,,,,,,,,,,,0,1,1,3,1,,,,,,,,,,,,,,,,,,,,,,,,,,,,,,,,,,,,,,,,,
089497,001,2022-11-20_23h54.58.978,Info_measure_main_exp,2022.2.2,Win32,60.04202942,,,,,,,,,,,,,,,,,,masks/mask_002.jpg,,,,,,,,,,,,,,,,,,,,,,,,,,,,,,,,,,,,,,,,,,,,,,,,0,2,2,1,1,,,,,,,,,,,,,,,,,,,,,,,,,,,,,,,,,,,,,,,,,
089497,001,2022-11-20_23h54.58.978,Info_measure_main_exp,2022.2.2,Win32,60.04202942,,,,,,,,,,,,,,,,,,masks/mask_001.jpg,,,,,,,,,,,,,,,,,,,,,,,,,,,,,,,,,,,,,,,,,,,,,,,,0,3,3,0,1,,,,,,,,,,,,,,,,,,,,,,,,,,,,,,,,,,,,,,,,,
089497,001,2022-11-20_23h54.58.978,Info_measure_main_exp,2022.2.2,Win32,60.04202942,,,,,,,,,,,,,,,,,,masks/mask_003.jpg,,,,,,,,,,,,,,,,,,,,,,,,,,,,,,,,,,,,,,,,,,,,,,,,0,4,4,2,1,,,,,,,,,,,,,,,,,,,,,,,,,,,,,,,,,,,,,,,,,
089497,001,2022-11-20_23h54.58.978,Info_measure_main_exp,2022.2.2,Win32,60.04202942,,,,,,,,,,,,,,,,,,,,,,,,,,,,,,4,1.5213,1,,,,,,,,,,,,0,131,5,5,2082,2298,absent_patch/patch0002082.jpg,absent_patch/patch0002298.jpg,,,,,,,,,,,,,,,,,,,,0.029629686,-0.110185199,1,0,0,response3disk,29,0.002777778,-0.00648151,1,0,0,center_square,0,28,28,107,1,,,,,,,,,,,,,,,,,,,,,,,
089497,001,2022-11-20_23h54.58.978,Info_measure_main_exp,2022.2.2,Win32,60.04202942,,,,,,,,,,,,,,,,,,masks/mask_001.jpg,,,,,,,,,,,,,,,,,,,,,,,,,,,,,,,,,,,,,,,,,,,0,0,0,0,1,,,,,,,,,,,,,,,,,,,,,,,,,,,,,,,,,,,,,,,,,,,,,,
089497,001,2022-11-20_23h54.58.978,Info_measure_main_exp,2022.2.2,Win32,60.04202942,,,,,,,,,,,,,,,,,,masks/mask_005.jpg,,,,,,,,,,,,,,,,,,,,,,,,,,,,,,,,,,,,,,,,,,,0,1,1,4,1,,,,,,,,,,,,,,,,,,,,,,,,,,,,,,,,,,,,,,,,,,,,,,
089497,001,2022-11-20_23h54.58.978,Info_measure_main_exp,2022.2.2,Win32,60.04202942,,,,,,,,,,,,,,,,,,masks/mask_003.jpg,,,,,,,,,,,,,,,,,,,,,,,,,,,,,,,,,,,,,,,,,,,0,2,2,2,1,,,,,,,,,,,,,,,,,,,,,,,,,,,,,,,,,,,,,,,,,,,,,,
089497,001,2022-11-20_23h54.58.978,Info_measure_main_exp,2022.2.2,Win32,60.04202942,,,,,,,,,,,,,,,,,,masks/mask_002.jpg,,,,,,,,,,,,,,,,,,,,,,,,,,,,,,,,,,,,,,,,,,,0,3,3,1,1,,,,,,,,,,,,,,,,,,,,,,,,,,,,,,,,,,,,,,,,,,,,,,
089497,001,2022-11-20_23h54.58.978,Info_measure_main_exp,2022.2.2,Win32,60.04202942,,,,,,,,,,,,,,,,,,masks/mask_004.jpg,,,,,,,,,,,,,,,,,,,,,,,,,,,,,,,,,,,,,,,,,,,0,4,4,3,1,,,,,,,,,,,,,,,,,,,,,,,,,,,,,,,,,,,,,,,,,,,,,,
089497,001,2022-11-20_23h54.58.978,Info_measure_main_exp,2022.2.2,Win32,60.04202942,,,,,,,,,,,,,,,,,,masks/mask_004.jpg,,,,,,,,,,,,,,,,,,,,,,,,,,,,,,,,,,,,,,,,,,,,,,,,0,0,0,3,1,,,,,,,,,,,,,,,,,,,,,,,,,,,,,,,,,,,,,,,,,
089497,001,2022-11-20_23h54.58.978,Info_measure_main_exp,2022.2.2,Win32,60.04202942,,,,,,,,,,,,,,,,,,masks/mask_003.jpg,,,,,,,,,,,,,,,,,,,,,,,,,,,,,,,,,,,,,,,,,,,,,,,,0,1,1,2,1,,,,,,,,,,,,,,,,,,,,,,,,,,,,,,,,,,,,,,,,,
089497,001,2022-11-20_23h54.58.978,Info_measure_main_exp,2022.2.2,Win32,60.04202942,,,,,,,,,,,,,,,,,,masks/mask_002.jpg,,,,,,,,,,,,,,,,,,,,,,,,,,,,,,,,,,,,,,,,,,,,,,,,0,2,2,1,1,,,,,,,,,,,,,,,,,,,,,,,,,,,,,,,,,,,,,,,,,
089497,001,2022-11-20_23h54.58.978,Info_measure_main_exp,2022.2.2,Win32,60.04202942,,,,,,,,,,,,,,,,,,masks/mask_001.jpg,,,,,,,,,,,,,,,,,,,,,,,,,,,,,,,,,,,,,,,,,,,,,,,,0,3,3,0,1,,,,,,,,,,,,,,,,,,,,,,,,,,,,,,,,,,,,,,,,,
089497,001,2022-11-20_23h54.58.978,Info_measure_main_exp,2022.2.2,Win32,60.04202942,,,,,,,,,,,,,,,,,,masks/mask_005.jpg,,,,,,,,,,,,,,,,,,,,,,,,,,,,,,,,,,,,,,,,,,,,,,,,0,4,4,4,1,,,,,,,,,,,,,,,,,,,,,,,,,,,,,,,,,,,,,,,,,
089497,001,2022-11-20_23h54.58.978,Info_measure_main_exp,2022.2.2,Win32,60.04202942,,,,,,,,,,,,,,,,,,,,,,,,,,,,,,7,0.6006,1,,,,,,,,,,,,1,131,5,5,2298,1,absent_patch/patch0002298.jpg,present_patch/cong_131_5_a.jpg,,,,,,,,,,,,,,,,,,,,0.05,0.097222222,1,0,0,response1disk,30,0.007407464,-0.011111111,1,0,0,center_square,0,29,29,45,1,,,,,,,,,,,,,,,,,,,,,,,
089497,001,2022-11-20_23h54.58.978,Info_measure_main_exp,2022.2.2,Win32,60.04202942,,,,,,,,,,,,,,,,,,masks/mask_003.jpg,,,,,,,,,,,,,,,,,,,,,,,,,,,,,,,,,,,,,,,,,,,0,0,0,2,1,,,,,,,,,,,,,,,,,,,,,,,,,,,,,,,,,,,,,,,,,,,,,,
089497,001,2022-11-20_23h54.58.978,Info_measure_main_exp,2022.2.2,Win32,60.04202942,,,,,,,,,,,,,,,,,,masks/mask_004.jpg,,,,,,,,,,,,,,,,,,,,,,,,,,,,,,,,,,,,,,,,,,,0,1,1,3,1,,,,,,,,,,,,,,,,,,,,,,,,,,,,,,,,,,,,,,,,,,,,,,
089497,001,2022-11-20_23h54.58.978,Info_measure_main_exp,2022.2.2,Win32,60.04202942,,,,,,,,,,,,,,,,,,masks/mask_001.jpg,,,,,,,,,,,,,,,,,,,,,,,,,,,,,,,,,,,,,,,,,,,0,2,2,0,1,,,,,,,,,,,,,,,,,,,,,,,,,,,,,,,,,,,,,,,,,,,,,,
089497,001,2022-11-20_23h54.58.978,Info_measure_main_exp,2022.2.2,Win32,60.04202942,,,,,,,,,,,,,,,,,,masks/mask_005.jpg,,,,,,,,,,,,,,,,,,,,,,,,,,,,,,,,,,,,,,,,,,,0,3,3,4,1,,,,,,,,,,,,,,,,,,,,,,,,,,,,,,,,,,,,,,,,,,,,,,
089497,001,2022-11-20_23h54.58.978,Info_measure_main_exp,2022.2.2,Win32,60.04202942,,,,,,,,,,,,,,,,,,masks/mask_002.jpg,,,,,,,,,,,,,,,,,,,,,,,,,,,,,,,,,,,,,,,,,,,0,4,4,1,1,,,,,,,,,,,,,,,,,,,,,,,,,,,,,,,,,,,,,,,,,,,,,,
089497,001,2022-11-20_23h54.58.978,Info_measure_main_exp,2022.2.2,Win32,60.04202942,,,,,,,,,,,,,,,,,,masks/mask_004.jpg,,,,,,,,,,,,,,,,,,,,,,,,,,,,,,,,,,,,,,,,,,,,,,,,0,0,0,3,1,,,,,,,,,,,,,,,,,,,,,,,,,,,,,,,,,,,,,,,,,
089497,001,2022-11-20_23h54.58.978,Info_measure_main_exp,2022.2.2,Win32,60.04202942,,,,,,,,,,,,,,,,,,masks/mask_002.jpg,,,,,,,,,,,,,,,,,,,,,,,,,,,,,,,,,,,,,,,,,,,,,,,,0,1,1,1,1,,,,,,,,,,,,,,,,,,,,,,,,,,,,,,,,,,,,,,,,,
089497,001,2022-11-20_23h54.58.978,Info_measure_main_exp,2022.2.2,Win32,60.04202942,,,,,,,,,,,,,,,,,,masks/mask_003.jpg,,,,,,,,,,,,,,,,,,,,,,,,,,,,,,,,,,,,,,,,,,,,,,,,0,2,2,2,1,,,,,,,,,,,,,,,,,,,,,,,,,,,,,,,,,,,,,,,,,
089497,001,2022-11-20_23h54.58.978,Info_measure_main_exp,2022.2.2,Win32,60.04202942,,,,,,,,,,,,,,,,,,masks/mask_005.jpg,,,,,,,,,,,,,,,,,,,,,,,,,,,,,,,,,,,,,,,,,,,,,,,,0,3,3,4,1,,,,,,,,,,,,,,,,,,,,,,,,,,,,,,,,,,,,,,,,,
089497,001,2022-11-20_23h54.58.978,Info_measure_main_exp,2022.2.2,Win32,60.04202942,,,,,,,,,,,,,,,,,,masks/mask_001.jpg,,,,,,,,,,,,,,,,,,,,,,,,,,,,,,,,,,,,,,,,,,,,,,,,0,4,4,0,1,,,,,,,,,,,,,,,,,,,,,,,,,,,,,,,,,,,,,,,,,
089497,001,2022-11-20_23h54.58.978,Info_measure_main_exp,2022.2.2,Win32,60.04202942,,,,,,,,,,,,,,,,,,,,,,,,,,,,,,7,0.8497,1,,,,,,,,,,,,0,131,5,5,2274,2082,absent_patch/patch0002274.jpg,absent_patch/patch0002082.jpg,,,,,,,,,,,,,,,,,,,,0.039814843,0.096296268,1,0,0,response1disk,31,-0.011111111,-0.011111111,1,0,0,center_square,0,30,30,100,1,,,,,,,,,,,,,,,,,,,,,,,
089497,001,2022-11-20_23h54.58.978,Info_measure_main_exp,2022.2.2,Win32,60.04202942,,,,,,,,,,,,,,,,,,masks/mask_003.jpg,,,,,,,,,,,,,,,,,,,,,,,,,,,,,,,,,,,,,,,,,,,0,0,0,2,1,,,,,,,,,,,,,,,,,,,,,,,,,,,,,,,,,,,,,,,,,,,,,,
089497,001,2022-11-20_23h54.58.978,Info_measure_main_exp,2022.2.2,Win32,60.04202942,,,,,,,,,,,,,,,,,,masks/mask_001.jpg,,,,,,,,,,,,,,,,,,,,,,,,,,,,,,,,,,,,,,,,,,,0,1,1,0,1,,,,,,,,,,,,,,,,,,,,,,,,,,,,,,,,,,,,,,,,,,,,,,
089497,001,2022-11-20_23h54.58.978,Info_measure_main_exp,2022.2.2,Win32,60.04202942,,,,,,,,,,,,,,,,,,masks/mask_002.jpg,,,,,,,,,,,,,,,,,,,,,,,,,,,,,,,,,,,,,,,,,,,0,2,2,1,1,,,,,,,,,,,,,,,,,,,,,,,,,,,,,,,,,,,,,,,,,,,,,,
089497,001,2022-11-20_23h54.58.978,Info_measure_main_exp,2022.2.2,Win32,60.04202942,,,,,,,,,,,,,,,,,,masks/mask_005.jpg,,,,,,,,,,,,,,,,,,,,,,,,,,,,,,,,,,,,,,,,,,,0,3,3,4,1,,,,,,,,,,,,,,,,,,,,,,,,,,,,,,,,,,,,,,,,,,,,,,
089497,001,2022-11-20_23h54.58.978,Info_measure_main_exp,2022.2.2,Win32,60.04202942,,,,,,,,,,,,,,,,,,masks/mask_004.jpg,,,,,,,,,,,,,,,,,,,,,,,,,,,,,,,,,,,,,,,,,,,0,4,4,3,1,,,,,,,,,,,,,,,,,,,,,,,,,,,,,,,,,,,,,,,,,,,,,,
089497,001,2022-11-20_23h54.58.978,Info_measure_main_exp,2022.2.2,Win32,60.04202942,,,,,,,,,,,,,,,,,,masks/mask_003.jpg,,,,,,,,,,,,,,,,,,,,,,,,,,,,,,,,,,,,,,,,,,,,,,,,0,0,0,2,1,,,,,,,,,,,,,,,,,,,,,,,,,,,,,,,,,,,,,,,,,
089497,001,2022-11-20_23h54.58.978,Info_measure_main_exp,2022.2.2,Win32,60.04202942,,,,,,,,,,,,,,,,,,masks/mask_001.jpg,,,,,,,,,,,,,,,,,,,,,,,,,,,,,,,,,,,,,,,,,,,,,,,,0,1,1,0,1,,,,,,,,,,,,,,,,,,,,,,,,,,,,,,,,,,,,,,,,,
089497,001,2022-11-20_23h54.58.978,Info_measure_main_exp,2022.2.2,Win32,60.04202942,,,,,,,,,,,,,,,,,,masks/mask_005.jpg,,,,,,,,,,,,,,,,,,,,,,,,,,,,,,,,,,,,,,,,,,,,,,,,0,2,2,4,1,,,,,,,,,,,,,,,,,,,,,,,,,,,,,,,,,,,,,,,,,
089497,001,2022-11-20_23h54.58.978,Info_measure_main_exp,2022.2.2,Win32,60.04202942,,,,,,,,,,,,,,,,,,masks/mask_004.jpg,,,,,,,,,,,,,,,,,,,,,,,,,,,,,,,,,,,,,,,,,,,,,,,,0,3,3,3,1,,,,,,,,,,,,,,,,,,,,,,,,,,,,,,,,,,,,,,,,,
089497,001,2022-11-20_23h54.58.978,Info_measure_main_exp,2022.2.2,Win32,60.04202942,,,,,,,,,,,,,,,,,,masks/mask_002.jpg,,,,,,,,,,,,,,,,,,,,,,,,,,,,,,,,,,,,,,,,,,,,,,,,0,4,4,1,1,,,,,,,,,,,,,,,,,,,,,,,,,,,,,,,,,,,,,,,,,
089497,001,2022-11-20_23h54.58.978,Info_measure_main_exp,2022.2.2,Win32,60.04202942,,,,,,,,,,,,,,,,,,,,,,,,,,,,,,1,2.8271,1,,,,,,,,,,,,0,131,5,5,1974,1950,absent_patch/patch0001974.jpg,absent_patch/patch0001950.jpg,,,,,,,,,,,,,,,,,,,,-0.142592536,0.031481467,1,0,0,response7disk,32,-0.004629601,-0.00648151,1,0,0,center_square,0,31,31,17,1,,,,,,,,,,,,,,,,,,,,,,,
089497,001,2022-11-20_23h54.58.978,Info_measure_main_exp,2022.2.2,Win32,60.04202942,,,,,,,,,,,,,,,,,,masks/mask_003.jpg,,,,,,,,,,,,,,,,,,,,,,,,,,,,,,,,,,,,,,,,,,,0,0,0,2,1,,,,,,,,,,,,,,,,,,,,,,,,,,,,,,,,,,,,,,,,,,,,,,
089497,001,2022-11-20_23h54.58.978,Info_measure_main_exp,2022.2.2,Win32,60.04202942,,,,,,,,,,,,,,,,,,masks/mask_005.jpg,,,,,,,,,,,,,,,,,,,,,,,,,,,,,,,,,,,,,,,,,,,0,1,1,4,1,,,,,,,,,,,,,,,,,,,,,,,,,,,,,,,,,,,,,,,,,,,,,,
089497,001,2022-11-20_23h54.58.978,Info_measure_main_exp,2022.2.2,Win32,60.04202942,,,,,,,,,,,,,,,,,,masks/mask_002.jpg,,,,,,,,,,,,,,,,,,,,,,,,,,,,,,,,,,,,,,,,,,,0,2,2,1,1,,,,,,,,,,,,,,,,,,,,,,,,,,,,,,,,,,,,,,,,,,,,,,
089497,001,2022-11-20_23h54.58.978,Info_measure_main_exp,2022.2.2,Win32,60.04202942,,,,,,,,,,,,,,,,,,masks/mask_004.jpg,,,,,,,,,,,,,,,,,,,,,,,,,,,,,,,,,,,,,,,,,,,0,3,3,3,1,,,,,,,,,,,,,,,,,,,,,,,,,,,,,,,,,,,,,,,,,,,,,,
089497,001,2022-11-20_23h54.58.978,Info_measure_main_exp,2022.2.2,Win32,60.04202942,,,,,,,,,,,,,,,,,,masks/mask_001.jpg,,,,,,,,,,,,,,,,,,,,,,,,,,,,,,,,,,,,,,,,,,,0,4,4,0,1,,,,,,,,,,,,,,,,,,,,,,,,,,,,,,,,,,,,,,,,,,,,,,
089497,001,2022-11-20_23h54.58.978,Info_measure_main_exp,2022.2.2,Win32,60.04202942,,,,,,,,,,,,,,,,,,masks/mask_002.jpg,,,,,,,,,,,,,,,,,,,,,,,,,,,,,,,,,,,,,,,,,,,,,,,,0,0,0,1,1,,,,,,,,,,,,,,,,,,,,,,,,,,,,,,,,,,,,,,,,,
089497,001,2022-11-20_23h54.58.978,Info_measure_main_exp,2022.2.2,Win32,60.04202942,,,,,,,,,,,,,,,,,,masks/mask_001.jpg,,,,,,,,,,,,,,,,,,,,,,,,,,,,,,,,,,,,,,,,,,,,,,,,0,1,1,0,1,,,,,,,,,,,,,,,,,,,,,,,,,,,,,,,,,,,,,,,,,
089497,001,2022-11-20_23h54.58.978,Info_measure_main_exp,2022.2.2,Win32,60.04202942,,,,,,,,,,,,,,,,,,masks/mask_005.jpg,,,,,,,,,,,,,,,,,,,,,,,,,,,,,,,,,,,,,,,,,,,,,,,,0,2,2,4,1,,,,,,,,,,,,,,,,,,,,,,,,,,,,,,,,,,,,,,,,,
089497,001,2022-11-20_23h54.58.978,Info_measure_main_exp,2022.2.2,Win32,60.04202942,,,,,,,,,,,,,,,,,,masks/mask_003.jpg,,,,,,,,,,,,,,,,,,,,,,,,,,,,,,,,,,,,,,,,,,,,,,,,0,3,3,2,1,,,,,,,,,,,,,,,,,,,,,,,,,,,,,,,,,,,,,,,,,
089497,001,2022-11-20_23h54.58.978,Info_measure_main_exp,2022.2.2,Win32,60.04202942,,,,,,,,,,,,,,,,,,masks/mask_004.jpg,,,,,,,,,,,,,,,,,,,,,,,,,,,,,,,,,,,,,,,,,,,,,,,,0,4,4,3,1,,,,,,,,,,,,,,,,,,,,,,,,,,,,,,,,,,,,,,,,,
089497,001,2022-11-20_23h54.58.978,Info_measure_main_exp,2022.2.2,Win32,60.04202942,,,,,,,,,,,,,,,,,,,,,,,,,,,,,,7,0.483,1,,,,,,,,,,,,0,131,5,5,2154,1950,absent_patch/patch0002154.jpg,absent_patch/patch0001950.jpg,,,,,,,,,,,,,,,,,,,,0.039814843,0.102777778,1,0,0,response1disk,33,0.011111111,-0.011111111,1,0,0,center_square,0,32,32,96,1,,,,,,,,,,,,,,,,,,,,,,,
089497,001,2022-11-20_23h54.58.978,Info_measure_main_exp,2022.2.2,Win32,60.04202942,,,,,,,,,,,,,,,,,,masks/mask_003.jpg,,,,,,,,,,,,,,,,,,,,,,,,,,,,,,,,,,,,,,,,,,,0,0,0,2,1,,,,,,,,,,,,,,,,,,,,,,,,,,,,,,,,,,,,,,,,,,,,,,
089497,001,2022-11-20_23h54.58.978,Info_measure_main_exp,2022.2.2,Win32,60.04202942,,,,,,,,,,,,,,,,,,masks/mask_001.jpg,,,,,,,,,,,,,,,,,,,,,,,,,,,,,,,,,,,,,,,,,,,0,1,1,0,1,,,,,,,,,,,,,,,,,,,,,,,,,,,,,,,,,,,,,,,,,,,,,,
089497,001,2022-11-20_23h54.58.978,Info_measure_main_exp,2022.2.2,Win32,60.04202942,,,,,,,,,,,,,,,,,,masks/mask_005.jpg,,,,,,,,,,,,,,,,,,,,,,,,,,,,,,,,,,,,,,,,,,,0,2,2,4,1,,,,,,,,,,,,,,,,,,,,,,,,,,,,,,,,,,,,,,,,,,,,,,
089497,001,2022-11-20_23h54.58.978,Info_measure_main_exp,2022.2.2,Win32,60.04202942,,,,,,,,,,,,,,,,,,masks/mask_002.jpg,,,,,,,,,,,,,,,,,,,,,,,,,,,,,,,,,,,,,,,,,,,0,3,3,1,1,,,,,,,,,,,,,,,,,,,,,,,,,,,,,,,,,,,,,,,,,,,,,,
089497,001,2022-11-20_23h54.58.978,Info_measure_main_exp,2022.2.2,Win32,60.04202942,,,,,,,,,,,,,,,,,,masks/mask_004.jpg,,,,,,,,,,,,,,,,,,,,,,,,,,,,,,,,,,,,,,,,,,,0,4,4,3,1,,,,,,,,,,,,,,,,,,,,,,,,,,,,,,,,,,,,,,,,,,,,,,
089497,001,2022-11-20_23h54.58.978,Info_measure_main_exp,2022.2.2,Win32,60.04202942,,,,,,,,,,,,,,,,,,masks/mask_004.jpg,,,,,,,,,,,,,,,,,,,,,,,,,,,,,,,,,,,,,,,,,,,,,,,,0,0,0,3,1,,,,,,,,,,,,,,,,,,,,,,,,,,,,,,,,,,,,,,,,,
089497,001,2022-11-20_23h54.58.978,Info_measure_main_exp,2022.2.2,Win32,60.04202942,,,,,,,,,,,,,,,,,,masks/mask_002.jpg,,,,,,,,,,,,,,,,,,,,,,,,,,,,,,,,,,,,,,,,,,,,,,,,0,1,1,1,1,,,,,,,,,,,,,,,,,,,,,,,,,,,,,,,,,,,,,,,,,
089497,001,2022-11-20_23h54.58.978,Info_measure_main_exp,2022.2.2,Win32,60.04202942,,,,,,,,,,,,,,,,,,masks/mask_001.jpg,,,,,,,,,,,,,,,,,,,,,,,,,,,,,,,,,,,,,,,,,,,,,,,,0,2,2,0,1,,,,,,,,,,,,,,,,,,,,,,,,,,,,,,,,,,,,,,,,,
089497,001,2022-11-20_23h54.58.978,Info_measure_main_exp,2022.2.2,Win32,60.04202942,,,,,,,,,,,,,,,,,,masks/mask_005.jpg,,,,,,,,,,,,,,,,,,,,,,,,,,,,,,,,,,,,,,,,,,,,,,,,0,3,3,4,1,,,,,,,,,,,,,,,,,,,,,,,,,,,,,,,,,,,,,,,,,
089497,001,2022-11-20_23h54.58.978,Info_measure_main_exp,2022.2.2,Win32,60.04202942,,,,,,,,,,,,,,,,,,masks/mask_003.jpg,,,,,,,,,,,,,,,,,,,,,,,,,,,,,,,,,,,,,,,,,,,,,,,,0,4,4,2,1,,,,,,,,,,,,,,,,,,,,,,,,,,,,,,,,,,,,,,,,,
089497,001,2022-11-20_23h54.58.978,Info_measure_main_exp,2022.2.2,Win32,60.04202942,,,,,,,,,,,,,,,,,,,,,,,,,,,,,,7,0.65,1,,,,,,,,,,,,1,131,5,5,2190,1,absent_patch/patch0002190.jpg,present_patch/cong_131_5_a.jpg,,,,,,,,,,,,,,,,,,,,0.026851908,0.079629601,1,0,0,response1disk,34,-0.012962935,0.012037023,1,0,0,center_square,0,33,33,64,1,,,,,,,,,,,,,,,,,,,,,,,
089497,001,2022-11-20_23h54.58.978,Info_measure_main_exp,2022.2.2,Win32,60.04202942,,,,,,,,,,,,,,,,,,masks/mask_003.jpg,,,,,,,,,,,,,,,,,,,,,,,,,,,,,,,,,,,,,,,,,,,0,0,0,2,1,,,,,,,,,,,,,,,,,,,,,,,,,,,,,,,,,,,,,,,,,,,,,,
089497,001,2022-11-20_23h54.58.978,Info_measure_main_exp,2022.2.2,Win32,60.04202942,,,,,,,,,,,,,,,,,,masks/mask_005.jpg,,,,,,,,,,,,,,,,,,,,,,,,,,,,,,,,,,,,,,,,,,,0,1,1,4,1,,,,,,,,,,,,,,,,,,,,,,,,,,,,,,,,,,,,,,,,,,,,,,
089497,001,2022-11-20_23h54.58.978,Info_measure_main_exp,2022.2.2,Win32,60.04202942,,,,,,,,,,,,,,,,,,masks/mask_001.jpg,,,,,,,,,,,,,,,,,,,,,,,,,,,,,,,,,,,,,,,,,,,0,2,2,0,1,,,,,,,,,,,,,,,,,,,,,,,,,,,,,,,,,,,,,,,,,,,,,,
089497,001,2022-11-20_23h54.58.978,Info_measure_main_exp,2022.2.2,Win32,60.04202942,,,,,,,,,,,,,,,,,,masks/mask_004.jpg,,,,,,,,,,,,,,,,,,,,,,,,,,,,,,,,,,,,,,,,,,,0,3,3,3,1,,,,,,,,,,,,,,,,,,,,,,,,,,,,,,,,,,,,,,,,,,,,,,
089497,001,2022-11-20_23h54.58.978,Info_measure_main_exp,2022.2.2,Win32,60.04202942,,,,,,,,,,,,,,,,,,masks/mask_002.jpg,,,,,,,,,,,,,,,,,,,,,,,,,,,,,,,,,,,,,,,,,,,0,4,4,1,1,,,,,,,,,,,,,,,,,,,,,,,,,,,,,,,,,,,,,,,,,,,,,,
089497,001,2022-11-20_23h54.58.978,Info_measure_main_exp,2022.2.2,Win32,60.04202942,,,,,,,,,,,,,,,,,,masks/mask_002.jpg,,,,,,,,,,,,,,,,,,,,,,,,,,,,,,,,,,,,,,,,,,,,,,,,0,0,0,1,1,,,,,,,,,,,,,,,,,,,,,,,,,,,,,,,,,,,,,,,,,
089497,001,2022-11-20_23h54.58.978,Info_measure_main_exp,2022.2.2,Win32,60.04202942,,,,,,,,,,,,,,,,,,masks/mask_004.jpg,,,,,,,,,,,,,,,,,,,,,,,,,,,,,,,,,,,,,,,,,,,,,,,,0,1,1,3,1,,,,,,,,,,,,,,,,,,,,,,,,,,,,,,,,,,,,,,,,,
089497,001,2022-11-20_23h54.58.978,Info_measure_main_exp,2022.2.2,Win32,60.04202942,,,,,,,,,,,,,,,,,,masks/mask_003.jpg,,,,,,,,,,,,,,,,,,,,,,,,,,,,,,,,,,,,,,,,,,,,,,,,0,2,2,2,1,,,,,,,,,,,,,,,,,,,,,,,,,,,,,,,,,,,,,,,,,
089497,001,2022-11-20_23h54.58.978,Info_measure_main_exp,2022.2.2,Win32,60.04202942,,,,,,,,,,,,,,,,,,masks/mask_001.jpg,,,,,,,,,,,,,,,,,,,,,,,,,,,,,,,,,,,,,,,,,,,,,,,,0,3,3,0,1,,,,,,,,,,,,,,,,,,,,,,,,,,,,,,,,,,,,,,,,,
