participant,session,date,expName,psychopyVersion,OS,frameRate,space_press_continue.keys,space_press_continue.rt,space_press_continue_2.keys,space_press_continue_2.rt,space_press_continue_3.keys,space_press_continue_3.rt,space_press_continue_4.keys,space_press_continue_4.rt,space_press_continue_5.keys,space_press_continue_5.rt,space_press_continue_6.keys,space_press_continue_6.rt,prac_mask_loop_1.thisRepN,prac_mask_loop_1.thisTrialN,prac_mask_loop_1.thisN,prac_mask_loop_1.thisIndex,prac_mask_loop_1.ran,mask_name,prac_mask_loop_2.thisRepN,prac_mask_loop_2.thisTrialN,prac_mask_loop_2.thisN,prac_mask_loop_2.thisIndex,prac_mask_loop_2.ran,mouse_2.x,mouse_2.y,mouse_2.leftButton,mouse_2.midButton,mouse_2.rightButton,mouse_2.clicked_name,similarity,response_time,Pass,mouse_12.x,mouse_12.y,mouse_12.leftButton,mouse_12.midButton,mouse_12.rightButton,mouse_12.clicked_name,prac_loop.thisRepN,prac_loop.thisTrialN,prac_loop.thisN,prac_loop.thisIndex,prac_loop.ran,Pair_type,Image_num,Patch_1_loc,Patch_2_loc,Patch_1_info,Patch_2_info,Patch_1_name,Patch_2_name,mouse_1.x,mouse_1.y,mouse_1.leftButton,mouse_1.midButton,mouse_1.rightButton,mouse_1.time,mouse_1.clicked_name,space_press_continue_7.keys,space_press_continue_7.rt,mask_loop.thisRepN,mask_loop.thisTrialN,mask_loop.thisN,mask_loop.thisIndex,mask_loop.ran,mask_loop_2.thisRepN,mask_loop_2.thisTrialN,mask_loop_2.thisN,mask_loop_2.thisIndex,mask_loop_2.ran,mouse.x,mouse.y,mouse.leftButton,mouse.midButton,mouse.rightButton,mouse.clicked_name,trialNumber,mouse_11.x,mouse_11.y,mouse_11.leftButton,mouse_11.midButton,mouse_11.rightButton,mouse_11.clicked_name,first_pass_loop.thisRepN,first_pass_loop.thisTrialN,first_pass_loop.thisN,first_pass_loop.thisIndex,first_pass_loop.ran,mask_loop_3.thisRepN,mask_loop_3.thisTrialN,mask_loop_3.thisN,mask_loop_3.thisIndex,mask_loop_3.ran,mask_loop_4.thisRepN,mask_loop_4.thisTrialN,mask_loop_4.thisN,mask_loop_4.thisIndex,mask_loop_4.ran,mouse_3.x,mouse_3.y,mouse_3.leftButton,mouse_3.midButton,mouse_3.rightButton,mouse_3.clicked_name,double_pass_loop.thisRepN,double_pass_loop.thisTrialN,double_pass_loop.thisN,double_pass_loop.thisIndex,double_pass_loop.ran,space_exit.keys,space_exit.rt
094199,001,2022-11-21_24h30.11.446,Info_measure_main_exp,2022.2.2,Win32,143.8021283,,,,,,,,,,,,,,,,,,,,,,,,,,,,,,,,,,,,,,,,,,,,,,,,,,,,,,,,,,,,,,,,,,,,,,,,,,,,,,,,,,,,,,,,,,,,,,,,,,,,,,,,,,,,,,,
094199,001,2022-11-21_24h30.11.446,Info_measure_main_exp,2022.2.2,Win32,143.8021283,,,,,,,,,,,,,,,,,,,,,,,,,,,,,,,,,,,,,,,,,,,,,,,,,,,,,,,,,,,,,,,,,,,,,,,,,,,,,,,,,,,,,,,,,,,,,,,,,,,,,,,,,,,,,,,
094199,001,2022-11-21_24h30.11.446,Info_measure_main_exp,2022.2.2,Win32,143.8021283,space,4.0893,,,,,,,,,,,,,,,,,,,,,,,,,,,,,,,,,,,,,,,,,,,,,,,,,,,,,,,,,,,,,,,,,,,,,,,,,,,,,,,,,,,,,,,,,,,,,,,,,,,,,,,,,,,,,
094199,001,2022-11-21_24h30.11.446,Info_measure_main_exp,2022.2.2,Win32,143.8021283,,,space,67.135,,,,,,,,,,,,,,,,,,,,,,,,,,,,,,,,,,,,,,,,,,,,,,,,,,,,,,,,,,,,,,,,,,,,,,,,,,,,,,,,,,,,,,,,,,,,,,,,,,,,,,,,,,,
094199,001,2022-11-21_24h30.11.446,Info_measure_main_exp,2022.2.2,Win32,143.8021283,,,,,space,4.5324,,,,,,,,,,,,,,,,,,,,,,,,,,,,,,,,,,,,,,,,,,,,,,,,,,,,,,,,,,,,,,,,,,,,,,,,,,,,,,,,,,,,,,,,,,,,,,,,,,,,,,,,,
094199,001,2022-11-21_24h30.11.446,Info_measure_main_exp,2022.2.2,Win32,143.8021283,,,,,,,space,14.2779,,,,,,,,,,,,,,,,,,,,,,,,,,,,,,,,,,,,,,,,,,,,,,,,,,,,,,,,,,,,,,,,,,,,,,,,,,,,,,,,,,,,,,,,,,,,,,,,,,,,,,,
094199,001,2022-11-21_24h30.11.446,Info_measure_main_exp,2022.2.2,Win32,143.8021283,,,,,,,,,space,17.2075,,,,,,,,,,,,,,,,,,,,,,,,,,,,,,,,,,,,,,,,,,,,,,,,,,,,,,,,,,,,,,,,,,,,,,,,,,,,,,,,,,,,,,,,,,,,,,,,,,,,,
094199,001,2022-11-21_24h30.11.446,Info_measure_main_exp,2022.2.2,Win32,143.8021283,,,,,,,,,,,space,4.8096,,,,,,,,,,,,,,,,,,,,,,,,,,,,,,,,,,,,,,,,,,,,,,,,,,,,,,,,,,,,,,,,,,,,,,,,,,,,,,,,,,,,,,,,,,,,,,,,,,,
094199,001,2022-11-21_24h30.11.446,Info_measure_main_exp,2022.2.2,Win32,143.8021283,,,,,,,,,,,,,0,0,0,4,1,masks/mask_005.jpg,,,,,,,,,,,,,,,,,,,,,,,,,,,,,,,,,,,,,,,,,,,,,,,,,,,,,,,,,,,,,,,,,,,,,,,,,,,,,,,,,,,,,,,,,,,,,
094199,001,2022-11-21_24h30.11.446,Info_measure_main_exp,2022.2.2,Win32,143.8021283,,,,,,,,,,,,,0,1,1,2,1,masks/mask_003.jpg,,,,,,,,,,,,,,,,,,,,,,,,,,,,,,,,,,,,,,,,,,,,,,,,,,,,,,,,,,,,,,,,,,,,,,,,,,,,,,,,,,,,,,,,,,,,,
094199,001,2022-11-21_24h30.11.446,Info_measure_main_exp,2022.2.2,Win32,143.8021283,,,,,,,,,,,,,0,2,2,3,1,masks/mask_004.jpg,,,,,,,,,,,,,,,,,,,,,,,,,,,,,,,,,,,,,,,,,,,,,,,,,,,,,,,,,,,,,,,,,,,,,,,,,,,,,,,,,,,,,,,,,,,,,
094199,001,2022-11-21_24h30.11.446,Info_measure_main_exp,2022.2.2,Win32,143.8021283,,,,,,,,,,,,,0,3,3,0,1,masks/mask_001.jpg,,,,,,,,,,,,,,,,,,,,,,,,,,,,,,,,,,,,,,,,,,,,,,,,,,,,,,,,,,,,,,,,,,,,,,,,,,,,,,,,,,,,,,,,,,,,,
094199,001,2022-11-21_24h30.11.446,Info_measure_main_exp,2022.2.2,Win32,143.8021283,,,,,,,,,,,,,0,4,4,1,1,masks/mask_002.jpg,,,,,,,,,,,,,,,,,,,,,,,,,,,,,,,,,,,,,,,,,,,,,,,,,,,,,,,,,,,,,,,,,,,,,,,,,,,,,,,,,,,,,,,,,,,,,
094199,001,2022-11-21_24h30.11.446,Info_measure_main_exp,2022.2.2,Win32,143.8021283,,,,,,,,,,,,,,,,,,masks/mask_005.jpg,0,0,0,4,1,,,,,,,,,,,,,,,,,,,,,,,,,,,,,,,,,,,,,,,,,,,,,,,,,,,,,,,,,,,,,,,,,,,,,,,,,,,,,,,,,,,,,,,,
094199,001,2022-11-21_24h30.11.446,Info_measure_main_exp,2022.2.2,Win32,143.8021283,,,,,,,,,,,,,,,,,,masks/mask_001.jpg,0,1,1,0,1,,,,,,,,,,,,,,,,,,,,,,,,,,,,,,,,,,,,,,,,,,,,,,,,,,,,,,,,,,,,,,,,,,,,,,,,,,,,,,,,,,,,,,,,
094199,001,2022-11-21_24h30.11.446,Info_measure_main_exp,2022.2.2,Win32,143.8021283,,,,,,,,,,,,,,,,,,masks/mask_002.jpg,0,2,2,1,1,,,,,,,,,,,,,,,,,,,,,,,,,,,,,,,,,,,,,,,,,,,,,,,,,,,,,,,,,,,,,,,,,,,,,,,,,,,,,,,,,,,,,,,,
094199,001,2022-11-21_24h30.11.446,Info_measure_main_exp,2022.2.2,Win32,143.8021283,,,,,,,,,,,,,,,,,,masks/mask_004.jpg,0,3,3,3,1,,,,,,,,,,,,,,,,,,,,,,,,,,,,,,,,,,,,,,,,,,,,,,,,,,,,,,,,,,,,,,,,,,,,,,,,,,,,,,,,,,,,,,,,
094199,001,2022-11-21_24h30.11.446,Info_measure_main_exp,2022.2.2,Win32,143.8021283,,,,,,,,,,,,,,,,,,masks/mask_003.jpg,0,4,4,2,1,,,,,,,,,,,,,,,,,,,,,,,,,,,,,,,,,,,,,,,,,,,,,,,,,,,,,,,,,,,,,,,,,,,,,,,,,,,,,,,,,,,,,,,,
094199,001,2022-11-21_24h30.11.446,Info_measure_main_exp,2022.2.2,Win32,143.8021283,,,,,,,,,,,,,,,,,,,,,,,,0.149074074,0.090740741,1,0,0,response1disk,6,117.2399,1,0.000925926,0.011111111,1,0,0,center_square,0,0,0,1,1,0,131,5,5,2514,2490,prac_patch/patch0002514.jpg,prac_patch/patch0002490.jpg,,,,,,,,,,,,,,,,,,,,,,,,,,,,,,,,,,,,,,,,,,,,,,,,,,,,,,,,,,,,
094199,001,2022-11-21_24h30.11.446,Info_measure_main_exp,2022.2.2,Win32,143.8021283,,,,,,,,,,,,,0,0,0,3,1,masks/mask_004.jpg,,,,,,,,,,,,,,,,,,,,,,,,,,,,,,,,,,,,,,,,,,,,,,,,,,,,,,,,,,,,,,,,,,,,,,,,,,,,,,,,,,,,,,,,,,,,,
094199,001,2022-11-21_24h30.11.446,Info_measure_main_exp,2022.2.2,Win32,143.8021283,,,,,,,,,,,,,0,1,1,1,1,masks/mask_002.jpg,,,,,,,,,,,,,,,,,,,,,,,,,,,,,,,,,,,,,,,,,,,,,,,,,,,,,,,,,,,,,,,,,,,,,,,,,,,,,,,,,,,,,,,,,,,,,
094199,001,2022-11-21_24h30.11.446,Info_measure_main_exp,2022.2.2,Win32,143.8021283,,,,,,,,,,,,,0,2,2,2,1,masks/mask_003.jpg,,,,,,,,,,,,,,,,,,,,,,,,,,,,,,,,,,,,,,,,,,,,,,,,,,,,,,,,,,,,,,,,,,,,,,,,,,,,,,,,,,,,,,,,,,,,,
094199,001,2022-11-21_24h30.11.446,Info_measure_main_exp,2022.2.2,Win32,143.8021283,,,,,,,,,,,,,0,3,3,4,1,masks/mask_005.jpg,,,,,,,,,,,,,,,,,,,,,,,,,,,,,,,,,,,,,,,,,,,,,,,,,,,,,,,,,,,,,,,,,,,,,,,,,,,,,,,,,,,,,,,,,,,,,
094199,001,2022-11-21_24h30.11.446,Info_measure_main_exp,2022.2.2,Win32,143.8021283,,,,,,,,,,,,,0,4,4,0,1,masks/mask_001.jpg,,,,,,,,,,,,,,,,,,,,,,,,,,,,,,,,,,,,,,,,,,,,,,,,,,,,,,,,,,,,,,,,,,,,,,,,,,,,,,,,,,,,,,,,,,,,,
094199,001,2022-11-21_24h30.11.446,Info_measure_main_exp,2022.2.2,Win32,143.8021283,,,,,,,,,,,,,,,,,,masks/mask_002.jpg,0,0,0,1,1,,,,,,,,,,,,,,,,,,,,,,,,,,,,,,,,,,,,,,,,,,,,,,,,,,,,,,,,,,,,,,,,,,,,,,,,,,,,,,,,,,,,,,,,
094199,001,2022-11-21_24h30.11.446,Info_measure_main_exp,2022.2.2,Win32,143.8021283,,,,,,,,,,,,,,,,,,masks/mask_005.jpg,0,1,1,4,1,,,,,,,,,,,,,,,,,,,,,,,,,,,,,,,,,,,,,,,,,,,,,,,,,,,,,,,,,,,,,,,,,,,,,,,,,,,,,,,,,,,,,,,,
094199,001,2022-11-21_24h30.11.446,Info_measure_main_exp,2022.2.2,Win32,143.8021283,,,,,,,,,,,,,,,,,,masks/mask_003.jpg,0,2,2,2,1,,,,,,,,,,,,,,,,,,,,,,,,,,,,,,,,,,,,,,,,,,,,,,,,,,,,,,,,,,,,,,,,,,,,,,,,,,,,,,,,,,,,,,,,
094199,001,2022-11-21_24h30.11.446,Info_measure_main_exp,2022.2.2,Win32,143.8021283,,,,,,,,,,,,,,,,,,masks/mask_001.jpg,0,3,3,0,1,,,,,,,,,,,,,,,,,,,,,,,,,,,,,,,,,,,,,,,,,,,,,,,,,,,,,,,,,,,,,,,,,,,,,,,,,,,,,,,,,,,,,,,,
094199,001,2022-11-21_24h30.11.446,Info_measure_main_exp,2022.2.2,Win32,143.8021283,,,,,,,,,,,,,,,,,,masks/mask_004.jpg,0,4,4,3,1,,,,,,,,,,,,,,,,,,,,,,,,,,,,,,,,,,,,,,,,,,,,,,,,,,,,,,,,,,,,,,,,,,,,,,,,,,,,,,,,,,,,,,,,
094199,001,2022-11-21_24h30.11.446,Info_measure_main_exp,2022.2.2,Win32,143.8021283,,,,,,,,,,,,,,,,,,,,,,,,0.132407407,-0.040740741,1,0,0,response3disk,5,127.4878,1,-0.000925926,0.002777778,1,0,0,center_square,0,1,1,0,1,0,131,5,5,2370,2406,prac_patch/patch0002370.jpg,prac_patch/patch0002406.jpg,,,,,,,,,,,,,,,,,,,,,,,,,,,,,,,,,,,,,,,,,,,,,,,,,,,,,,,,,,,,
094199,001,2022-11-21_24h30.11.446,Info_measure_main_exp,2022.2.2,Win32,143.8021283,,,,,,,,,,,,,0,0,0,3,1,masks/mask_004.jpg,,,,,,,,,,,,,,,,,,,,,,,,,,,,,,,,,,,,,,,,,,,,,,,,,,,,,,,,,,,,,,,,,,,,,,,,,,,,,,,,,,,,,,,,,,,,,
094199,001,2022-11-21_24h30.11.446,Info_measure_main_exp,2022.2.2,Win32,143.8021283,,,,,,,,,,,,,0,1,1,1,1,masks/mask_002.jpg,,,,,,,,,,,,,,,,,,,,,,,,,,,,,,,,,,,,,,,,,,,,,,,,,,,,,,,,,,,,,,,,,,,,,,,,,,,,,,,,,,,,,,,,,,,,,
094199,001,2022-11-21_24h30.11.446,Info_measure_main_exp,2022.2.2,Win32,143.8021283,,,,,,,,,,,,,0,2,2,0,1,masks/mask_001.jpg,,,,,,,,,,,,,,,,,,,,,,,,,,,,,,,,,,,,,,,,,,,,,,,,,,,,,,,,,,,,,,,,,,,,,,,,,,,,,,,,,,,,,,,,,,,,,
094199,001,2022-11-21_24h30.11.446,Info_measure_main_exp,2022.2.2,Win32,143.8021283,,,,,,,,,,,,,0,3,3,2,1,masks/mask_003.jpg,,,,,,,,,,,,,,,,,,,,,,,,,,,,,,,,,,,,,,,,,,,,,,,,,,,,,,,,,,,,,,,,,,,,,,,,,,,,,,,,,,,,,,,,,,,,,
094199,001,2022-11-21_24h30.11.446,Info_measure_main_exp,2022.2.2,Win32,143.8021283,,,,,,,,,,,,,0,4,4,4,1,masks/mask_005.jpg,,,,,,,,,,,,,,,,,,,,,,,,,,,,,,,,,,,,,,,,,,,,,,,,,,,,,,,,,,,,,,,,,,,,,,,,,,,,,,,,,,,,,,,,,,,,,
094199,001,2022-11-21_24h30.11.446,Info_measure_main_exp,2022.2.2,Win32,143.8021283,,,,,,,,,,,,,,,,,,masks/mask_004.jpg,0,0,0,3,1,,,,,,,,,,,,,,,,,,,,,,,,,,,,,,,,,,,,,,,,,,,,,,,,,,,,,,,,,,,,,,,,,,,,,,,,,,,,,,,,,,,,,,,,
094199,001,2022-11-21_24h30.11.446,Info_measure_main_exp,2022.2.2,Win32,143.8021283,,,,,,,,,,,,,,,,,,masks/mask_001.jpg,0,1,1,0,1,,,,,,,,,,,,,,,,,,,,,,,,,,,,,,,,,,,,,,,,,,,,,,,,,,,,,,,,,,,,,,,,,,,,,,,,,,,,,,,,,,,,,,,,
094199,001,2022-11-21_24h30.11.446,Info_measure_main_exp,2022.2.2,Win32,143.8021283,,,,,,,,,,,,,,,,,,masks/mask_005.jpg,0,2,2,4,1,,,,,,,,,,,,,,,,,,,,,,,,,,,,,,,,,,,,,,,,,,,,,,,,,,,,,,,,,,,,,,,,,,,,,,,,,,,,,,,,,,,,,,,,
094199,001,2022-11-21_24h30.11.446,Info_measure_main_exp,2022.2.2,Win32,143.8021283,,,,,,,,,,,,,,,,,,masks/mask_003.jpg,0,3,3,2,1,,,,,,,,,,,,,,,,,,,,,,,,,,,,,,,,,,,,,,,,,,,,,,,,,,,,,,,,,,,,,,,,,,,,,,,,,,,,,,,,,,,,,,,,
094199,001,2022-11-21_24h30.11.446,Info_measure_main_exp,2022.2.2,Win32,143.8021283,,,,,,,,,,,,,,,,,,masks/mask_002.jpg,0,4,4,1,1,,,,,,,,,,,,,,,,,,,,,,,,,,,,,,,,,,,,,,,,,,,,,,,,,,,,,,,,,,,,,,,,,,,,,,,,,,,,,,,,,,,,,,,,
094199,001,2022-11-21_24h30.11.446,Info_measure_main_exp,2022.2.2,Win32,143.8021283,,,,,,,,,,,,,,,,,,,,,,,,-0.053703704,0.124074074,1,0,0,response7disk,0,136.5749,1,0.00462963,0.008333333,1,0,0,center_square,0,2,2,2,1,0,131,5,5,2526,2526,prac_patch/patch0002526.jpg,prac_patch/patch0002526.jpg,,,,,,,,,,,,,,,,,,,,,,,,,,,,,,,,,,,,,,,,,,,,,,,,,,,,,,,,,,,,
094199,001,2022-11-21_24h30.11.446,Info_measure_main_exp,2022.2.2,Win32,143.8021283,,,,,,,,,,,,,,,,,,,,,,,,,,,,,,,,,,,,,,,,,,,,,,,,,,,,,,,,,,,space,3.0577,,,,,,,,,,,,,,,,,,,,,,,,,,,,,,,,,,,,,,,,,,,,,,,,,,,
094199,001,2022-11-21_24h30.11.446,Info_measure_main_exp,2022.2.2,Win32,143.8021283,,,,,,,,,,,,,,,,,,masks/mask_005.jpg,,,,,,,,,,,,,,,,,,,,,,,,,,,,,,,,,,,,,,,,,,,0,0,0,4,1,,,,,,,,,,,,,,,,,,,,,,,,,,,,,,,,,,,,,,,,,,,,,,
094199,001,2022-11-21_24h30.11.446,Info_measure_main_exp,2022.2.2,Win32,143.8021283,,,,,,,,,,,,,,,,,,masks/mask_003.jpg,,,,,,,,,,,,,,,,,,,,,,,,,,,,,,,,,,,,,,,,,,,0,1,1,2,1,,,,,,,,,,,,,,,,,,,,,,,,,,,,,,,,,,,,,,,,,,,,,,
094199,001,2022-11-21_24h30.11.446,Info_measure_main_exp,2022.2.2,Win32,143.8021283,,,,,,,,,,,,,,,,,,masks/mask_001.jpg,,,,,,,,,,,,,,,,,,,,,,,,,,,,,,,,,,,,,,,,,,,0,2,2,0,1,,,,,,,,,,,,,,,,,,,,,,,,,,,,,,,,,,,,,,,,,,,,,,
094199,001,2022-11-21_24h30.11.446,Info_measure_main_exp,2022.2.2,Win32,143.8021283,,,,,,,,,,,,,,,,,,masks/mask_004.jpg,,,,,,,,,,,,,,,,,,,,,,,,,,,,,,,,,,,,,,,,,,,0,3,3,3,1,,,,,,,,,,,,,,,,,,,,,,,,,,,,,,,,,,,,,,,,,,,,,,
094199,001,2022-11-21_24h30.11.446,Info_measure_main_exp,2022.2.2,Win32,143.8021283,,,,,,,,,,,,,,,,,,masks/mask_002.jpg,,,,,,,,,,,,,,,,,,,,,,,,,,,,,,,,,,,,,,,,,,,0,4,4,1,1,,,,,,,,,,,,,,,,,,,,,,,,,,,,,,,,,,,,,,,,,,,,,,
094199,001,2022-11-21_24h30.11.446,Info_measure_main_exp,2022.2.2,Win32,143.8021283,,,,,,,,,,,,,,,,,,masks/mask_002.jpg,,,,,,,,,,,,,,,,,,,,,,,,,,,,,,,,,,,,,,,,,,,,,,,,0,0,0,1,1,,,,,,,,,,,,,,,,,,,,,,,,,,,,,,,,,,,,,,,,,
094199,001,2022-11-21_24h30.11.446,Info_measure_main_exp,2022.2.2,Win32,143.8021283,,,,,,,,,,,,,,,,,,masks/mask_003.jpg,,,,,,,,,,,,,,,,,,,,,,,,,,,,,,,,,,,,,,,,,,,,,,,,0,1,1,2,1,,,,,,,,,,,,,,,,,,,,,,,,,,,,,,,,,,,,,,,,,
094199,001,2022-11-21_24h30.11.446,Info_measure_main_exp,2022.2.2,Win32,143.8021283,,,,,,,,,,,,,,,,,,masks/mask_004.jpg,,,,,,,,,,,,,,,,,,,,,,,,,,,,,,,,,,,,,,,,,,,,,,,,0,2,2,3,1,,,,,,,,,,,,,,,,,,,,,,,,,,,,,,,,,,,,,,,,,
094199,001,2022-11-21_24h30.11.446,Info_measure_main_exp,2022.2.2,Win32,143.8021283,,,,,,,,,,,,,,,,,,masks/mask_005.jpg,,,,,,,,,,,,,,,,,,,,,,,,,,,,,,,,,,,,,,,,,,,,,,,,0,3,3,4,1,,,,,,,,,,,,,,,,,,,,,,,,,,,,,,,,,,,,,,,,,
094199,001,2022-11-21_24h30.11.446,Info_measure_main_exp,2022.2.2,Win32,143.8021283,,,,,,,,,,,,,,,,,,masks/mask_001.jpg,,,,,,,,,,,,,,,,,,,,,,,,,,,,,,,,,,,,,,,,,,,,,,,,0,4,4,0,1,,,,,,,,,,,,,,,,,,,,,,,,,,,,,,,,,,,,,,,,,
094199,001,2022-11-21_24h30.11.446,Info_measure_main_exp,2022.2.2,Win32,143.8021283,,,,,,,,,,,,,,,,,,,,,,,,,,,,,,3,2.4299,1,,,,,,,,,,,,0,131,5,5,2238,2166,absent_patch/patch0002238.jpg,absent_patch/patch0002166.jpg,,,,,,,,,,,,,,,,,,,,-0.041666667,-0.097222222,1,0,0,response5disk,1,0.001851852,0.012037037,1,0,0,center_square,0,0,0,118,1,,,,,,,,,,,,,,,,,,,,,,,
094199,001,2022-11-21_24h30.11.446,Info_measure_main_exp,2022.2.2,Win32,143.8021283,,,,,,,,,,,,,,,,,,masks/mask_003.jpg,,,,,,,,,,,,,,,,,,,,,,,,,,,,,,,,,,,,,,,,,,,0,0,0,2,1,,,,,,,,,,,,,,,,,,,,,,,,,,,,,,,,,,,,,,,,,,,,,,
094199,001,2022-11-21_24h30.11.446,Info_measure_main_exp,2022.2.2,Win32,143.8021283,,,,,,,,,,,,,,,,,,masks/mask_002.jpg,,,,,,,,,,,,,,,,,,,,,,,,,,,,,,,,,,,,,,,,,,,0,1,1,1,1,,,,,,,,,,,,,,,,,,,,,,,,,,,,,,,,,,,,,,,,,,,,,,
094199,001,2022-11-21_24h30.11.446,Info_measure_main_exp,2022.2.2,Win32,143.8021283,,,,,,,,,,,,,,,,,,masks/mask_001.jpg,,,,,,,,,,,,,,,,,,,,,,,,,,,,,,,,,,,,,,,,,,,0,2,2,0,1,,,,,,,,,,,,,,,,,,,,,,,,,,,,,,,,,,,,,,,,,,,,,,
094199,001,2022-11-21_24h30.11.446,Info_measure_main_exp,2022.2.2,Win32,143.8021283,,,,,,,,,,,,,,,,,,masks/mask_004.jpg,,,,,,,,,,,,,,,,,,,,,,,,,,,,,,,,,,,,,,,,,,,0,3,3,3,1,,,,,,,,,,,,,,,,,,,,,,,,,,,,,,,,,,,,,,,,,,,,,,
094199,001,2022-11-21_24h30.11.446,Info_measure_main_exp,2022.2.2,Win32,143.8021283,,,,,,,,,,,,,,,,,,masks/mask_005.jpg,,,,,,,,,,,,,,,,,,,,,,,,,,,,,,,,,,,,,,,,,,,0,4,4,4,1,,,,,,,,,,,,,,,,,,,,,,,,,,,,,,,,,,,,,,,,,,,,,,
094199,001,2022-11-21_24h30.11.446,Info_measure_main_exp,2022.2.2,Win32,143.8021283,,,,,,,,,,,,,,,,,,masks/mask_001.jpg,,,,,,,,,,,,,,,,,,,,,,,,,,,,,,,,,,,,,,,,,,,,,,,,0,0,0,0,1,,,,,,,,,,,,,,,,,,,,,,,,,,,,,,,,,,,,,,,,,
094199,001,2022-11-21_24h30.11.446,Info_measure_main_exp,2022.2.2,Win32,143.8021283,,,,,,,,,,,,,,,,,,masks/mask_002.jpg,,,,,,,,,,,,,,,,,,,,,,,,,,,,,,,,,,,,,,,,,,,,,,,,0,1,1,1,1,,,,,,,,,,,,,,,,,,,,,,,,,,,,,,,,,,,,,,,,,
094199,001,2022-11-21_24h30.11.446,Info_measure_main_exp,2022.2.2,Win32,143.8021283,,,,,,,,,,,,,,,,,,masks/mask_005.jpg,,,,,,,,,,,,,,,,,,,,,,,,,,,,,,,,,,,,,,,,,,,,,,,,0,2,2,4,1,,,,,,,,,,,,,,,,,,,,,,,,,,,,,,,,,,,,,,,,,
094199,001,2022-11-21_24h30.11.446,Info_measure_main_exp,2022.2.2,Win32,143.8021283,,,,,,,,,,,,,,,,,,masks/mask_004.jpg,,,,,,,,,,,,,,,,,,,,,,,,,,,,,,,,,,,,,,,,,,,,,,,,0,3,3,3,1,,,,,,,,,,,,,,,,,,,,,,,,,,,,,,,,,,,,,,,,,
094199,001,2022-11-21_24h30.11.446,Info_measure_main_exp,2022.2.2,Win32,143.8021283,,,,,,,,,,,,,,,,,,masks/mask_003.jpg,,,,,,,,,,,,,,,,,,,,,,,,,,,,,,,,,,,,,,,,,,,,,,,,0,4,4,2,1,,,,,,,,,,,,,,,,,,,,,,,,,,,,,,,,,,,,,,,,,
094199,001,2022-11-21_24h30.11.446,Info_measure_main_exp,2022.2.2,Win32,143.8021283,,,,,,,,,,,,,,,,,,,,,,,,,,,,,,4,1.7038,1,,,,,,,,,,,,0,131,5,5,2274,2166,absent_patch/patch0002274.jpg,absent_patch/patch0002166.jpg,,,,,,,,,,,,,,,,,,,,0.014814815,-0.096296296,1,0,0,response3disk,2,0.000925926,0.006481481,1,0,0,center_square,0,1,1,78,1,,,,,,,,,,,,,,,,,,,,,,,
094199,001,2022-11-21_24h30.11.446,Info_measure_main_exp,2022.2.2,Win32,143.8021283,,,,,,,,,,,,,,,,,,masks/mask_004.jpg,,,,,,,,,,,,,,,,,,,,,,,,,,,,,,,,,,,,,,,,,,,0,0,0,3,1,,,,,,,,,,,,,,,,,,,,,,,,,,,,,,,,,,,,,,,,,,,,,,
094199,001,2022-11-21_24h30.11.446,Info_measure_main_exp,2022.2.2,Win32,143.8021283,,,,,,,,,,,,,,,,,,masks/mask_002.jpg,,,,,,,,,,,,,,,,,,,,,,,,,,,,,,,,,,,,,,,,,,,0,1,1,1,1,,,,,,,,,,,,,,,,,,,,,,,,,,,,,,,,,,,,,,,,,,,,,,
094199,001,2022-11-21_24h30.11.446,Info_measure_main_exp,2022.2.2,Win32,143.8021283,,,,,,,,,,,,,,,,,,masks/mask_003.jpg,,,,,,,,,,,,,,,,,,,,,,,,,,,,,,,,,,,,,,,,,,,0,2,2,2,1,,,,,,,,,,,,,,,,,,,,,,,,,,,,,,,,,,,,,,,,,,,,,,
094199,001,2022-11-21_24h30.11.446,Info_measure_main_exp,2022.2.2,Win32,143.8021283,,,,,,,,,,,,,,,,,,masks/mask_005.jpg,,,,,,,,,,,,,,,,,,,,,,,,,,,,,,,,,,,,,,,,,,,0,3,3,4,1,,,,,,,,,,,,,,,,,,,,,,,,,,,,,,,,,,,,,,,,,,,,,,
094199,001,2022-11-21_24h30.11.446,Info_measure_main_exp,2022.2.2,Win32,143.8021283,,,,,,,,,,,,,,,,,,masks/mask_001.jpg,,,,,,,,,,,,,,,,,,,,,,,,,,,,,,,,,,,,,,,,,,,0,4,4,0,1,,,,,,,,,,,,,,,,,,,,,,,,,,,,,,,,,,,,,,,,,,,,,,
094199,001,2022-11-21_24h30.11.446,Info_measure_main_exp,2022.2.2,Win32,143.8021283,,,,,,,,,,,,,,,,,,masks/mask_003.jpg,,,,,,,,,,,,,,,,,,,,,,,,,,,,,,,,,,,,,,,,,,,,,,,,0,0,0,2,1,,,,,,,,,,,,,,,,,,,,,,,,,,,,,,,,,,,,,,,,,
094199,001,2022-11-21_24h30.11.446,Info_measure_main_exp,2022.2.2,Win32,143.8021283,,,,,,,,,,,,,,,,,,masks/mask_005.jpg,,,,,,,,,,,,,,,,,,,,,,,,,,,,,,,,,,,,,,,,,,,,,,,,0,1,1,4,1,,,,,,,,,,,,,,,,,,,,,,,,,,,,,,,,,,,,,,,,,
094199,001,2022-11-21_24h30.11.446,Info_measure_main_exp,2022.2.2,Win32,143.8021283,,,,,,,,,,,,,,,,,,masks/mask_004.jpg,,,,,,,,,,,,,,,,,,,,,,,,,,,,,,,,,,,,,,,,,,,,,,,,0,2,2,3,1,,,,,,,,,,,,,,,,,,,,,,,,,,,,,,,,,,,,,,,,,
094199,001,2022-11-21_24h30.11.446,Info_measure_main_exp,2022.2.2,Win32,143.8021283,,,,,,,,,,,,,,,,,,masks/mask_002.jpg,,,,,,,,,,,,,,,,,,,,,,,,,,,,,,,,,,,,,,,,,,,,,,,,0,3,3,1,1,,,,,,,,,,,,,,,,,,,,,,,,,,,,,,,,,,,,,,,,,
094199,001,2022-11-21_24h30.11.446,Info_measure_main_exp,2022.2.2,Win32,143.8021283,,,,,,,,,,,,,,,,,,masks/mask_001.jpg,,,,,,,,,,,,,,,,,,,,,,,,,,,,,,,,,,,,,,,,,,,,,,,,0,4,4,0,1,,,,,,,,,,,,,,,,,,,,,,,,,,,,,,,,,,,,,,,,,
094199,001,2022-11-21_24h30.11.446,Info_measure_main_exp,2022.2.2,Win32,143.8021283,,,,,,,,,,,,,,,,,,,,,,,,,,,,,,7,1.7608,1,,,,,,,,,,,,0,131,5,5,1974,2214,absent_patch/patch0001974.jpg,absent_patch/patch0002214.jpg,,,,,,,,,,,,,,,,,,,,0.066666667,0.114814815,1,0,0,response1disk,3,0.000925926,-0.001851852,1,0,0,center_square,0,2,2,24,1,,,,,,,,,,,,,,,,,,,,,,,
094199,001,2022-11-21_24h30.11.446,Info_measure_main_exp,2022.2.2,Win32,143.8021283,,,,,,,,,,,,,,,,,,masks/mask_004.jpg,,,,,,,,,,,,,,,,,,,,,,,,,,,,,,,,,,,,,,,,,,,0,0,0,3,1,,,,,,,,,,,,,,,,,,,,,,,,,,,,,,,,,,,,,,,,,,,,,,
094199,001,2022-11-21_24h30.11.446,Info_measure_main_exp,2022.2.2,Win32,143.8021283,,,,,,,,,,,,,,,,,,masks/mask_001.jpg,,,,,,,,,,,,,,,,,,,,,,,,,,,,,,,,,,,,,,,,,,,0,1,1,0,1,,,,,,,,,,,,,,,,,,,,,,,,,,,,,,,,,,,,,,,,,,,,,,
094199,001,2022-11-21_24h30.11.446,Info_measure_main_exp,2022.2.2,Win32,143.8021283,,,,,,,,,,,,,,,,,,masks/mask_005.jpg,,,,,,,,,,,,,,,,,,,,,,,,,,,,,,,,,,,,,,,,,,,0,2,2,4,1,,,,,,,,,,,,,,,,,,,,,,,,,,,,,,,,,,,,,,,,,,,,,,
094199,001,2022-11-21_24h30.11.446,Info_measure_main_exp,2022.2.2,Win32,143.8021283,,,,,,,,,,,,,,,,,,masks/mask_003.jpg,,,,,,,,,,,,,,,,,,,,,,,,,,,,,,,,,,,,,,,,,,,0,3,3,2,1,,,,,,,,,,,,,,,,,,,,,,,,,,,,,,,,,,,,,,,,,,,,,,
094199,001,2022-11-21_24h30.11.446,Info_measure_main_exp,2022.2.2,Win32,143.8021283,,,,,,,,,,,,,,,,,,masks/mask_002.jpg,,,,,,,,,,,,,,,,,,,,,,,,,,,,,,,,,,,,,,,,,,,0,4,4,1,1,,,,,,,,,,,,,,,,,,,,,,,,,,,,,,,,,,,,,,,,,,,,,,
094199,001,2022-11-21_24h30.11.446,Info_measure_main_exp,2022.2.2,Win32,143.8021283,,,,,,,,,,,,,,,,,,masks/mask_004.jpg,,,,,,,,,,,,,,,,,,,,,,,,,,,,,,,,,,,,,,,,,,,,,,,,0,0,0,3,1,,,,,,,,,,,,,,,,,,,,,,,,,,,,,,,,,,,,,,,,,
094199,001,2022-11-21_24h30.11.446,Info_measure_main_exp,2022.2.2,Win32,143.8021283,,,,,,,,,,,,,,,,,,masks/mask_003.jpg,,,,,,,,,,,,,,,,,,,,,,,,,,,,,,,,,,,,,,,,,,,,,,,,0,1,1,2,1,,,,,,,,,,,,,,,,,,,,,,,,,,,,,,,,,,,,,,,,,
094199,001,2022-11-21_24h30.11.446,Info_measure_main_exp,2022.2.2,Win32,143.8021283,,,,,,,,,,,,,,,,,,masks/mask_001.jpg,,,,,,,,,,,,,,,,,,,,,,,,,,,,,,,,,,,,,,,,,,,,,,,,0,2,2,0,1,,,,,,,,,,,,,,,,,,,,,,,,,,,,,,,,,,,,,,,,,
094199,001,2022-11-21_24h30.11.446,Info_measure_main_exp,2022.2.2,Win32,143.8021283,,,,,,,,,,,,,,,,,,masks/mask_002.jpg,,,,,,,,,,,,,,,,,,,,,,,,,,,,,,,,,,,,,,,,,,,,,,,,0,3,3,1,1,,,,,,,,,,,,,,,,,,,,,,,,,,,,,,,,,,,,,,,,,
094199,001,2022-11-21_24h30.11.446,Info_measure_main_exp,2022.2.2,Win32,143.8021283,,,,,,,,,,,,,,,,,,masks/mask_005.jpg,,,,,,,,,,,,,,,,,,,,,,,,,,,,,,,,,,,,,,,,,,,,,,,,0,4,4,4,1,,,,,,,,,,,,,,,,,,,,,,,,,,,,,,,,,,,,,,,,,
094199,001,2022-11-21_24h30.11.446,Info_measure_main_exp,2022.2.2,Win32,143.8021283,,,,,,,,,,,,,,,,,,,,,,,,,,,,,,7,0.8643,1,,,,,,,,,,,,0,131,5,5,2154,2298,absent_patch/patch0002154.jpg,absent_patch/patch0002298.jpg,,,,,,,,,,,,,,,,,,,,0.048148148,0.097222222,1,0,0,response1disk,4,0.005555556,-0.001851852,1,0,0,center_square,0,3,3,27,1,,,,,,,,,,,,,,,,,,,,,,,
094199,001,2022-11-21_24h30.11.446,Info_measure_main_exp,2022.2.2,Win32,143.8021283,,,,,,,,,,,,,,,,,,masks/mask_001.jpg,,,,,,,,,,,,,,,,,,,,,,,,,,,,,,,,,,,,,,,,,,,0,0,0,0,1,,,,,,,,,,,,,,,,,,,,,,,,,,,,,,,,,,,,,,,,,,,,,,
094199,001,2022-11-21_24h30.11.446,Info_measure_main_exp,2022.2.2,Win32,143.8021283,,,,,,,,,,,,,,,,,,masks/mask_004.jpg,,,,,,,,,,,,,,,,,,,,,,,,,,,,,,,,,,,,,,,,,,,0,1,1,3,1,,,,,,,,,,,,,,,,,,,,,,,,,,,,,,,,,,,,,,,,,,,,,,
094199,001,2022-11-21_24h30.11.446,Info_measure_main_exp,2022.2.2,Win32,143.8021283,,,,,,,,,,,,,,,,,,masks/mask_002.jpg,,,,,,,,,,,,,,,,,,,,,,,,,,,,,,,,,,,,,,,,,,,0,2,2,1,1,,,,,,,,,,,,,,,,,,,,,,,,,,,,,,,,,,,,,,,,,,,,,,
094199,001,2022-11-21_24h30.11.446,Info_measure_main_exp,2022.2.2,Win32,143.8021283,,,,,,,,,,,,,,,,,,masks/mask_005.jpg,,,,,,,,,,,,,,,,,,,,,,,,,,,,,,,,,,,,,,,,,,,0,3,3,4,1,,,,,,,,,,,,,,,,,,,,,,,,,,,,,,,,,,,,,,,,,,,,,,
094199,001,2022-11-21_24h30.11.446,Info_measure_main_exp,2022.2.2,Win32,143.8021283,,,,,,,,,,,,,,,,,,masks/mask_003.jpg,,,,,,,,,,,,,,,,,,,,,,,,,,,,,,,,,,,,,,,,,,,0,4,4,2,1,,,,,,,,,,,,,,,,,,,,,,,,,,,,,,,,,,,,,,,,,,,,,,
094199,001,2022-11-21_24h30.11.446,Info_measure_main_exp,2022.2.2,Win32,143.8021283,,,,,,,,,,,,,,,,,,masks/mask_005.jpg,,,,,,,,,,,,,,,,,,,,,,,,,,,,,,,,,,,,,,,,,,,,,,,,0,0,0,4,1,,,,,,,,,,,,,,,,,,,,,,,,,,,,,,,,,,,,,,,,,
094199,001,2022-11-21_24h30.11.446,Info_measure_main_exp,2022.2.2,Win32,143.8021283,,,,,,,,,,,,,,,,,,masks/mask_004.jpg,,,,,,,,,,,,,,,,,,,,,,,,,,,,,,,,,,,,,,,,,,,,,,,,0,1,1,3,1,,,,,,,,,,,,,,,,,,,,,,,,,,,,,,,,,,,,,,,,,
094199,001,2022-11-21_24h30.11.446,Info_measure_main_exp,2022.2.2,Win32,143.8021283,,,,,,,,,,,,,,,,,,masks/mask_003.jpg,,,,,,,,,,,,,,,,,,,,,,,,,,,,,,,,,,,,,,,,,,,,,,,,0,2,2,2,1,,,,,,,,,,,,,,,,,,,,,,,,,,,,,,,,,,,,,,,,,
094199,001,2022-11-21_24h30.11.446,Info_measure_main_exp,2022.2.2,Win32,143.8021283,,,,,,,,,,,,,,,,,,masks/mask_002.jpg,,,,,,,,,,,,,,,,,,,,,,,,,,,,,,,,,,,,,,,,,,,,,,,,0,3,3,1,1,,,,,,,,,,,,,,,,,,,,,,,,,,,,,,,,,,,,,,,,,
094199,001,2022-11-21_24h30.11.446,Info_measure_main_exp,2022.2.2,Win32,143.8021283,,,,,,,,,,,,,,,,,,masks/mask_001.jpg,,,,,,,,,,,,,,,,,,,,,,,,,,,,,,,,,,,,,,,,,,,,,,,,0,4,4,0,1,,,,,,,,,,,,,,,,,,,,,,,,,,,,,,,,,,,,,,,,,
094199,001,2022-11-21_24h30.11.446,Info_measure_main_exp,2022.2.2,Win32,143.8021283,,,,,,,,,,,,,,,,,,,,,,,,,,,,,,3,1.7934,1,,,,,,,,,,,,0,131,5,5,2298,2190,absent_patch/patch0002298.jpg,absent_patch/patch0002190.jpg,,,,,,,,,,,,,,,,,,,,-0.05462963,-0.115740741,1,0,0,response5disk,5,0.005555556,0.003703704,1,0,0,center_square,0,4,4,20,1,,,,,,,,,,,,,,,,,,,,,,,
094199,001,2022-11-21_24h30.11.446,Info_measure_main_exp,2022.2.2,Win32,143.8021283,,,,,,,,,,,,,,,,,,masks/mask_005.jpg,,,,,,,,,,,,,,,,,,,,,,,,,,,,,,,,,,,,,,,,,,,0,0,0,4,1,,,,,,,,,,,,,,,,,,,,,,,,,,,,,,,,,,,,,,,,,,,,,,
094199,001,2022-11-21_24h30.11.446,Info_measure_main_exp,2022.2.2,Win32,143.8021283,,,,,,,,,,,,,,,,,,masks/mask_002.jpg,,,,,,,,,,,,,,,,,,,,,,,,,,,,,,,,,,,,,,,,,,,0,1,1,1,1,,,,,,,,,,,,,,,,,,,,,,,,,,,,,,,,,,,,,,,,,,,,,,
094199,001,2022-11-21_24h30.11.446,Info_measure_main_exp,2022.2.2,Win32,143.8021283,,,,,,,,,,,,,,,,,,masks/mask_001.jpg,,,,,,,,,,,,,,,,,,,,,,,,,,,,,,,,,,,,,,,,,,,0,2,2,0,1,,,,,,,,,,,,,,,,,,,,,,,,,,,,,,,,,,,,,,,,,,,,,,
094199,001,2022-11-21_24h30.11.446,Info_measure_main_exp,2022.2.2,Win32,143.8021283,,,,,,,,,,,,,,,,,,masks/mask_004.jpg,,,,,,,,,,,,,,,,,,,,,,,,,,,,,,,,,,,,,,,,,,,0,3,3,3,1,,,,,,,,,,,,,,,,,,,,,,,,,,,,,,,,,,,,,,,,,,,,,,
094199,001,2022-11-21_24h30.11.446,Info_measure_main_exp,2022.2.2,Win32,143.8021283,,,,,,,,,,,,,,,,,,masks/mask_003.jpg,,,,,,,,,,,,,,,,,,,,,,,,,,,,,,,,,,,,,,,,,,,0,4,4,2,1,,,,,,,,,,,,,,,,,,,,,,,,,,,,,,,,,,,,,,,,,,,,,,
094199,001,2022-11-21_24h30.11.446,Info_measure_main_exp,2022.2.2,Win32,143.8021283,,,,,,,,,,,,,,,,,,masks/mask_001.jpg,,,,,,,,,,,,,,,,,,,,,,,,,,,,,,,,,,,,,,,,,,,,,,,,0,0,0,0,1,,,,,,,,,,,,,,,,,,,,,,,,,,,,,,,,,,,,,,,,,
094199,001,2022-11-21_24h30.11.446,Info_measure_main_exp,2022.2.2,Win32,143.8021283,,,,,,,,,,,,,,,,,,masks/mask_004.jpg,,,,,,,,,,,,,,,,,,,,,,,,,,,,,,,,,,,,,,,,,,,,,,,,0,1,1,3,1,,,,,,,,,,,,,,,,,,,,,,,,,,,,,,,,,,,,,,,,,
094199,001,2022-11-21_24h30.11.446,Info_measure_main_exp,2022.2.2,Win32,143.8021283,,,,,,,,,,,,,,,,,,masks/mask_003.jpg,,,,,,,,,,,,,,,,,,,,,,,,,,,,,,,,,,,,,,,,,,,,,,,,0,2,2,2,1,,,,,,,,,,,,,,,,,,,,,,,,,,,,,,,,,,,,,,,,,
094199,001,2022-11-21_24h30.11.446,Info_measure_main_exp,2022.2.2,Win32,143.8021283,,,,,,,,,,,,,,,,,,masks/mask_002.jpg,,,,,,,,,,,,,,,,,,,,,,,,,,,,,,,,,,,,,,,,,,,,,,,,0,3,3,1,1,,,,,,,,,,,,,,,,,,,,,,,,,,,,,,,,,,,,,,,,,
094199,001,2022-11-21_24h30.11.446,Info_measure_main_exp,2022.2.2,Win32,143.8021283,,,,,,,,,,,,,,,,,,masks/mask_005.jpg,,,,,,,,,,,,,,,,,,,,,,,,,,,,,,,,,,,,,,,,,,,,,,,,0,4,4,4,1,,,,,,,,,,,,,,,,,,,,,,,,,,,,,,,,,,,,,,,,,
094199,001,2022-11-21_24h30.11.446,Info_measure_main_exp,2022.2.2,Win32,143.8021283,,,,,,,,,,,,,,,,,,,,,,,,,,,,,,0,0.4585,1,,,,,,,,,,,,0,131,5,5,2238,2238,absent_patch/patch0002238.jpg,absent_patch/patch0002238.jpg,,,,,,,,,,,,,,,,,,,,-0.028703704,0.1,1,0,0,response7disk,6,0.000925926,-0.000925926,1,0,0,center_square,0,5,5,58,1,,,,,,,,,,,,,,,,,,,,,,,
094199,001,2022-11-21_24h30.11.446,Info_measure_main_exp,2022.2.2,Win32,143.8021283,,,,,,,,,,,,,,,,,,masks/mask_004.jpg,,,,,,,,,,,,,,,,,,,,,,,,,,,,,,,,,,,,,,,,,,,0,0,0,3,1,,,,,,,,,,,,,,,,,,,,,,,,,,,,,,,,,,,,,,,,,,,,,,
094199,001,2022-11-21_24h30.11.446,Info_measure_main_exp,2022.2.2,Win32,143.8021283,,,,,,,,,,,,,,,,,,masks/mask_001.jpg,,,,,,,,,,,,,,,,,,,,,,,,,,,,,,,,,,,,,,,,,,,0,1,1,0,1,,,,,,,,,,,,,,,,,,,,,,,,,,,,,,,,,,,,,,,,,,,,,,
094199,001,2022-11-21_24h30.11.446,Info_measure_main_exp,2022.2.2,Win32,143.8021283,,,,,,,,,,,,,,,,,,masks/mask_005.jpg,,,,,,,,,,,,,,,,,,,,,,,,,,,,,,,,,,,,,,,,,,,0,2,2,4,1,,,,,,,,,,,,,,,,,,,,,,,,,,,,,,,,,,,,,,,,,,,,,,
094199,001,2022-11-21_24h30.11.446,Info_measure_main_exp,2022.2.2,Win32,143.8021283,,,,,,,,,,,,,,,,,,masks/mask_002.jpg,,,,,,,,,,,,,,,,,,,,,,,,,,,,,,,,,,,,,,,,,,,0,3,3,1,1,,,,,,,,,,,,,,,,,,,,,,,,,,,,,,,,,,,,,,,,,,,,,,
094199,001,2022-11-21_24h30.11.446,Info_measure_main_exp,2022.2.2,Win32,143.8021283,,,,,,,,,,,,,,,,,,masks/mask_003.jpg,,,,,,,,,,,,,,,,,,,,,,,,,,,,,,,,,,,,,,,,,,,0,4,4,2,1,,,,,,,,,,,,,,,,,,,,,,,,,,,,,,,,,,,,,,,,,,,,,,
094199,001,2022-11-21_24h30.11.446,Info_measure_main_exp,2022.2.2,Win32,143.8021283,,,,,,,,,,,,,,,,,,masks/mask_004.jpg,,,,,,,,,,,,,,,,,,,,,,,,,,,,,,,,,,,,,,,,,,,,,,,,0,0,0,3,1,,,,,,,,,,,,,,,,,,,,,,,,,,,,,,,,,,,,,,,,,
094199,001,2022-11-21_24h30.11.446,Info_measure_main_exp,2022.2.2,Win32,143.8021283,,,,,,,,,,,,,,,,,,masks/mask_001.jpg,,,,,,,,,,,,,,,,,,,,,,,,,,,,,,,,,,,,,,,,,,,,,,,,0,1,1,0,1,,,,,,,,,,,,,,,,,,,,,,,,,,,,,,,,,,,,,,,,,
094199,001,2022-11-21_24h30.11.446,Info_measure_main_exp,2022.2.2,Win32,143.8021283,,,,,,,,,,,,,,,,,,masks/mask_002.jpg,,,,,,,,,,,,,,,,,,,,,,,,,,,,,,,,,,,,,,,,,,,,,,,,0,2,2,1,1,,,,,,,,,,,,,,,,,,,,,,,,,,,,,,,,,,,,,,,,,
094199,001,2022-11-21_24h30.11.446,Info_measure_main_exp,2022.2.2,Win32,143.8021283,,,,,,,,,,,,,,,,,,masks/mask_003.jpg,,,,,,,,,,,,,,,,,,,,,,,,,,,,,,,,,,,,,,,,,,,,,,,,0,3,3,2,1,,,,,,,,,,,,,,,,,,,,,,,,,,,,,,,,,,,,,,,,,
094199,001,2022-11-21_24h30.11.446,Info_measure_main_exp,2022.2.2,Win32,143.8021283,,,,,,,,,,,,,,,,,,masks/mask_005.jpg,,,,,,,,,,,,,,,,,,,,,,,,,,,,,,,,,,,,,,,,,,,,,,,,0,4,4,4,1,,,,,,,,,,,,,,,,,,,,,,,,,,,,,,,,,,,,,,,,,
094199,001,2022-11-21_24h30.11.446,Info_measure_main_exp,2022.2.2,Win32,143.8021283,,,,,,,,,,,,,,,,,,,,,,,,,,,,,,6,1.6574,1,,,,,,,,,,,,0,131,5,5,2298,2214,absent_patch/patch0002298.jpg,absent_patch/patch0002214.jpg,,,,,,,,,,,,,,,,,,,,0.105555556,0.034259259,1,0,0,response1disk,7,0.005555556,0,1,0,0,center_square,0,6,6,99,1,,,,,,,,,,,,,,,,,,,,,,,
094199,001,2022-11-21_24h30.11.446,Info_measure_main_exp,2022.2.2,Win32,143.8021283,,,,,,,,,,,,,,,,,,masks/mask_003.jpg,,,,,,,,,,,,,,,,,,,,,,,,,,,,,,,,,,,,,,,,,,,0,0,0,2,1,,,,,,,,,,,,,,,,,,,,,,,,,,,,,,,,,,,,,,,,,,,,,,
094199,001,2022-11-21_24h30.11.446,Info_measure_main_exp,2022.2.2,Win32,143.8021283,,,,,,,,,,,,,,,,,,masks/mask_002.jpg,,,,,,,,,,,,,,,,,,,,,,,,,,,,,,,,,,,,,,,,,,,0,1,1,1,1,,,,,,,,,,,,,,,,,,,,,,,,,,,,,,,,,,,,,,,,,,,,,,
094199,001,2022-11-21_24h30.11.446,Info_measure_main_exp,2022.2.2,Win32,143.8021283,,,,,,,,,,,,,,,,,,masks/mask_005.jpg,,,,,,,,,,,,,,,,,,,,,,,,,,,,,,,,,,,,,,,,,,,0,2,2,4,1,,,,,,,,,,,,,,,,,,,,,,,,,,,,,,,,,,,,,,,,,,,,,,
094199,001,2022-11-21_24h30.11.446,Info_measure_main_exp,2022.2.2,Win32,143.8021283,,,,,,,,,,,,,,,,,,masks/mask_001.jpg,,,,,,,,,,,,,,,,,,,,,,,,,,,,,,,,,,,,,,,,,,,0,3,3,0,1,,,,,,,,,,,,,,,,,,,,,,,,,,,,,,,,,,,,,,,,,,,,,,
094199,001,2022-11-21_24h30.11.446,Info_measure_main_exp,2022.2.2,Win32,143.8021283,,,,,,,,,,,,,,,,,,masks/mask_004.jpg,,,,,,,,,,,,,,,,,,,,,,,,,,,,,,,,,,,,,,,,,,,0,4,4,3,1,,,,,,,,,,,,,,,,,,,,,,,,,,,,,,,,,,,,,,,,,,,,,,
094199,001,2022-11-21_24h30.11.446,Info_measure_main_exp,2022.2.2,Win32,143.8021283,,,,,,,,,,,,,,,,,,masks/mask_004.jpg,,,,,,,,,,,,,,,,,,,,,,,,,,,,,,,,,,,,,,,,,,,,,,,,0,0,0,3,1,,,,,,,,,,,,,,,,,,,,,,,,,,,,,,,,,,,,,,,,,
094199,001,2022-11-21_24h30.11.446,Info_measure_main_exp,2022.2.2,Win32,143.8021283,,,,,,,,,,,,,,,,,,masks/mask_003.jpg,,,,,,,,,,,,,,,,,,,,,,,,,,,,,,,,,,,,,,,,,,,,,,,,0,1,1,2,1,,,,,,,,,,,,,,,,,,,,,,,,,,,,,,,,,,,,,,,,,
094199,001,2022-11-21_24h30.11.446,Info_measure_main_exp,2022.2.2,Win32,143.8021283,,,,,,,,,,,,,,,,,,masks/mask_002.jpg,,,,,,,,,,,,,,,,,,,,,,,,,,,,,,,,,,,,,,,,,,,,,,,,0,2,2,1,1,,,,,,,,,,,,,,,,,,,,,,,,,,,,,,,,,,,,,,,,,
094199,001,2022-11-21_24h30.11.446,Info_measure_main_exp,2022.2.2,Win32,143.8021283,,,,,,,,,,,,,,,,,,masks/mask_005.jpg,,,,,,,,,,,,,,,,,,,,,,,,,,,,,,,,,,,,,,,,,,,,,,,,0,3,3,4,1,,,,,,,,,,,,,,,,,,,,,,,,,,,,,,,,,,,,,,,,,
094199,001,2022-11-21_24h30.11.446,Info_measure_main_exp,2022.2.2,Win32,143.8021283,,,,,,,,,,,,,,,,,,masks/mask_001.jpg,,,,,,,,,,,,,,,,,,,,,,,,,,,,,,,,,,,,,,,,,,,,,,,,0,4,4,0,1,,,,,,,,,,,,,,,,,,,,,,,,,,,,,,,,,,,,,,,,,
094199,001,2022-11-21_24h30.11.446,Info_measure_main_exp,2022.2.2,Win32,143.8021283,,,,,,,,,,,,,,,,,,,,,,,,,,,,,,7,0.7918,1,,,,,,,,,,,,0,131,5,5,2250,2214,absent_patch/patch0002250.jpg,absent_patch/patch0002214.jpg,,,,,,,,,,,,,,,,,,,,0.051851852,0.119444444,1,0,0,response1disk,8,0.012037037,0.007407407,1,0,0,center_square,0,7,7,97,1,,,,,,,,,,,,,,,,,,,,,,,
094199,001,2022-11-21_24h30.11.446,Info_measure_main_exp,2022.2.2,Win32,143.8021283,,,,,,,,,,,,,,,,,,masks/mask_004.jpg,,,,,,,,,,,,,,,,,,,,,,,,,,,,,,,,,,,,,,,,,,,0,0,0,3,1,,,,,,,,,,,,,,,,,,,,,,,,,,,,,,,,,,,,,,,,,,,,,,
094199,001,2022-11-21_24h30.11.446,Info_measure_main_exp,2022.2.2,Win32,143.8021283,,,,,,,,,,,,,,,,,,masks/mask_005.jpg,,,,,,,,,,,,,,,,,,,,,,,,,,,,,,,,,,,,,,,,,,,0,1,1,4,1,,,,,,,,,,,,,,,,,,,,,,,,,,,,,,,,,,,,,,,,,,,,,,
094199,001,2022-11-21_24h30.11.446,Info_measure_main_exp,2022.2.2,Win32,143.8021283,,,,,,,,,,,,,,,,,,masks/mask_001.jpg,,,,,,,,,,,,,,,,,,,,,,,,,,,,,,,,,,,,,,,,,,,0,2,2,0,1,,,,,,,,,,,,,,,,,,,,,,,,,,,,,,,,,,,,,,,,,,,,,,
094199,001,2022-11-21_24h30.11.446,Info_measure_main_exp,2022.2.2,Win32,143.8021283,,,,,,,,,,,,,,,,,,masks/mask_003.jpg,,,,,,,,,,,,,,,,,,,,,,,,,,,,,,,,,,,,,,,,,,,0,3,3,2,1,,,,,,,,,,,,,,,,,,,,,,,,,,,,,,,,,,,,,,,,,,,,,,
094199,001,2022-11-21_24h30.11.446,Info_measure_main_exp,2022.2.2,Win32,143.8021283,,,,,,,,,,,,,,,,,,masks/mask_002.jpg,,,,,,,,,,,,,,,,,,,,,,,,,,,,,,,,,,,,,,,,,,,0,4,4,1,1,,,,,,,,,,,,,,,,,,,,,,,,,,,,,,,,,,,,,,,,,,,,,,
094199,001,2022-11-21_24h30.11.446,Info_measure_main_exp,2022.2.2,Win32,143.8021283,,,,,,,,,,,,,,,,,,masks/mask_004.jpg,,,,,,,,,,,,,,,,,,,,,,,,,,,,,,,,,,,,,,,,,,,,,,,,0,0,0,3,1,,,,,,,,,,,,,,,,,,,,,,,,,,,,,,,,,,,,,,,,,
094199,001,2022-11-21_24h30.11.446,Info_measure_main_exp,2022.2.2,Win32,143.8021283,,,,,,,,,,,,,,,,,,masks/mask_005.jpg,,,,,,,,,,,,,,,,,,,,,,,,,,,,,,,,,,,,,,,,,,,,,,,,0,1,1,4,1,,,,,,,,,,,,,,,,,,,,,,,,,,,,,,,,,,,,,,,,,
094199,001,2022-11-21_24h30.11.446,Info_measure_main_exp,2022.2.2,Win32,143.8021283,,,,,,,,,,,,,,,,,,masks/mask_001.jpg,,,,,,,,,,,,,,,,,,,,,,,,,,,,,,,,,,,,,,,,,,,,,,,,0,2,2,0,1,,,,,,,,,,,,,,,,,,,,,,,,,,,,,,,,,,,,,,,,,
094199,001,2022-11-21_24h30.11.446,Info_measure_main_exp,2022.2.2,Win32,143.8021283,,,,,,,,,,,,,,,,,,masks/mask_003.jpg,,,,,,,,,,,,,,,,,,,,,,,,,,,,,,,,,,,,,,,,,,,,,,,,0,3,3,2,1,,,,,,,,,,,,,,,,,,,,,,,,,,,,,,,,,,,,,,,,,
094199,001,2022-11-21_24h30.11.446,Info_measure_main_exp,2022.2.2,Win32,143.8021283,,,,,,,,,,,,,,,,,,masks/mask_002.jpg,,,,,,,,,,,,,,,,,,,,,,,,,,,,,,,,,,,,,,,,,,,,,,,,0,4,4,1,1,,,,,,,,,,,,,,,,,,,,,,,,,,,,,,,,,,,,,,,,,
094199,001,2022-11-21_24h30.11.446,Info_measure_main_exp,2022.2.2,Win32,143.8021283,,,,,,,,,,,,,,,,,,,,,,,,,,,,,,7,0.703,1,,,,,,,,,,,,0,131,5,5,2154,2214,absent_patch/patch0002154.jpg,absent_patch/patch0002214.jpg,,,,,,,,,,,,,,,,,,,,0.056481481,0.12037037,1,0,0,response1disk,9,0.000925926,0.005555556,1,0,0,center_square,0,8,8,67,1,,,,,,,,,,,,,,,,,,,,,,,
094199,001,2022-11-21_24h30.11.446,Info_measure_main_exp,2022.2.2,Win32,143.8021283,,,,,,,,,,,,,,,,,,masks/mask_004.jpg,,,,,,,,,,,,,,,,,,,,,,,,,,,,,,,,,,,,,,,,,,,0,0,0,3,1,,,,,,,,,,,,,,,,,,,,,,,,,,,,,,,,,,,,,,,,,,,,,,
094199,001,2022-11-21_24h30.11.446,Info_measure_main_exp,2022.2.2,Win32,143.8021283,,,,,,,,,,,,,,,,,,masks/mask_003.jpg,,,,,,,,,,,,,,,,,,,,,,,,,,,,,,,,,,,,,,,,,,,0,1,1,2,1,,,,,,,,,,,,,,,,,,,,,,,,,,,,,,,,,,,,,,,,,,,,,,
094199,001,2022-11-21_24h30.11.446,Info_measure_main_exp,2022.2.2,Win32,143.8021283,,,,,,,,,,,,,,,,,,masks/mask_005.jpg,,,,,,,,,,,,,,,,,,,,,,,,,,,,,,,,,,,,,,,,,,,0,2,2,4,1,,,,,,,,,,,,,,,,,,,,,,,,,,,,,,,,,,,,,,,,,,,,,,
094199,001,2022-11-21_24h30.11.446,Info_measure_main_exp,2022.2.2,Win32,143.8021283,,,,,,,,,,,,,,,,,,masks/mask_001.jpg,,,,,,,,,,,,,,,,,,,,,,,,,,,,,,,,,,,,,,,,,,,0,3,3,0,1,,,,,,,,,,,,,,,,,,,,,,,,,,,,,,,,,,,,,,,,,,,,,,
094199,001,2022-11-21_24h30.11.446,Info_measure_main_exp,2022.2.2,Win32,143.8021283,,,,,,,,,,,,,,,,,,masks/mask_002.jpg,,,,,,,,,,,,,,,,,,,,,,,,,,,,,,,,,,,,,,,,,,,0,4,4,1,1,,,,,,,,,,,,,,,,,,,,,,,,,,,,,,,,,,,,,,,,,,,,,,
094199,001,2022-11-21_24h30.11.446,Info_measure_main_exp,2022.2.2,Win32,143.8021283,,,,,,,,,,,,,,,,,,masks/mask_002.jpg,,,,,,,,,,,,,,,,,,,,,,,,,,,,,,,,,,,,,,,,,,,,,,,,0,0,0,1,1,,,,,,,,,,,,,,,,,,,,,,,,,,,,,,,,,,,,,,,,,
094199,001,2022-11-21_24h30.11.446,Info_measure_main_exp,2022.2.2,Win32,143.8021283,,,,,,,,,,,,,,,,,,masks/mask_005.jpg,,,,,,,,,,,,,,,,,,,,,,,,,,,,,,,,,,,,,,,,,,,,,,,,0,1,1,4,1,,,,,,,,,,,,,,,,,,,,,,,,,,,,,,,,,,,,,,,,,
094199,001,2022-11-21_24h30.11.446,Info_measure_main_exp,2022.2.2,Win32,143.8021283,,,,,,,,,,,,,,,,,,masks/mask_003.jpg,,,,,,,,,,,,,,,,,,,,,,,,,,,,,,,,,,,,,,,,,,,,,,,,0,2,2,2,1,,,,,,,,,,,,,,,,,,,,,,,,,,,,,,,,,,,,,,,,,
094199,001,2022-11-21_24h30.11.446,Info_measure_main_exp,2022.2.2,Win32,143.8021283,,,,,,,,,,,,,,,,,,masks/mask_001.jpg,,,,,,,,,,,,,,,,,,,,,,,,,,,,,,,,,,,,,,,,,,,,,,,,0,3,3,0,1,,,,,,,,,,,,,,,,,,,,,,,,,,,,,,,,,,,,,,,,,
094199,001,2022-11-21_24h30.11.446,Info_measure_main_exp,2022.2.2,Win32,143.8021283,,,,,,,,,,,,,,,,,,masks/mask_004.jpg,,,,,,,,,,,,,,,,,,,,,,,,,,,,,,,,,,,,,,,,,,,,,,,,0,4,4,3,1,,,,,,,,,,,,,,,,,,,,,,,,,,,,,,,,,,,,,,,,,
094199,001,2022-11-21_24h30.11.446,Info_measure_main_exp,2022.2.2,Win32,143.8021283,,,,,,,,,,,,,,,,,,,,,,,,,,,,,,0,0.5766,1,,,,,,,,,,,,0,131,5,5,2298,2298,absent_patch/patch0002298.jpg,absent_patch/patch0002298.jpg,,,,,,,,,,,,,,,,,,,,-0.062037037,0.137037037,1,0,0,response7disk,10,-0.008333333,0,1,0,0,center_square,0,9,9,37,1,,,,,,,,,,,,,,,,,,,,,,,
094199,001,2022-11-21_24h30.11.446,Info_measure_main_exp,2022.2.2,Win32,143.8021283,,,,,,,,,,,,,,,,,,masks/mask_002.jpg,,,,,,,,,,,,,,,,,,,,,,,,,,,,,,,,,,,,,,,,,,,0,0,0,1,1,,,,,,,,,,,,,,,,,,,,,,,,,,,,,,,,,,,,,,,,,,,,,,
094199,001,2022-11-21_24h30.11.446,Info_measure_main_exp,2022.2.2,Win32,143.8021283,,,,,,,,,,,,,,,,,,masks/mask_005.jpg,,,,,,,,,,,,,,,,,,,,,,,,,,,,,,,,,,,,,,,,,,,0,1,1,4,1,,,,,,,,,,,,,,,,,,,,,,,,,,,,,,,,,,,,,,,,,,,,,,
094199,001,2022-11-21_24h30.11.446,Info_measure_main_exp,2022.2.2,Win32,143.8021283,,,,,,,,,,,,,,,,,,masks/mask_003.jpg,,,,,,,,,,,,,,,,,,,,,,,,,,,,,,,,,,,,,,,,,,,0,2,2,2,1,,,,,,,,,,,,,,,,,,,,,,,,,,,,,,,,,,,,,,,,,,,,,,
094199,001,2022-11-21_24h30.11.446,Info_measure_main_exp,2022.2.2,Win32,143.8021283,,,,,,,,,,,,,,,,,,masks/mask_001.jpg,,,,,,,,,,,,,,,,,,,,,,,,,,,,,,,,,,,,,,,,,,,0,3,3,0,1,,,,,,,,,,,,,,,,,,,,,,,,,,,,,,,,,,,,,,,,,,,,,,
094199,001,2022-11-21_24h30.11.446,Info_measure_main_exp,2022.2.2,Win32,143.8021283,,,,,,,,,,,,,,,,,,masks/mask_004.jpg,,,,,,,,,,,,,,,,,,,,,,,,,,,,,,,,,,,,,,,,,,,0,4,4,3,1,,,,,,,,,,,,,,,,,,,,,,,,,,,,,,,,,,,,,,,,,,,,,,
094199,001,2022-11-21_24h30.11.446,Info_measure_main_exp,2022.2.2,Win32,143.8021283,,,,,,,,,,,,,,,,,,masks/mask_001.jpg,,,,,,,,,,,,,,,,,,,,,,,,,,,,,,,,,,,,,,,,,,,,,,,,0,0,0,0,1,,,,,,,,,,,,,,,,,,,,,,,,,,,,,,,,,,,,,,,,,
094199,001,2022-11-21_24h30.11.446,Info_measure_main_exp,2022.2.2,Win32,143.8021283,,,,,,,,,,,,,,,,,,masks/mask_003.jpg,,,,,,,,,,,,,,,,,,,,,,,,,,,,,,,,,,,,,,,,,,,,,,,,0,1,1,2,1,,,,,,,,,,,,,,,,,,,,,,,,,,,,,,,,,,,,,,,,,
094199,001,2022-11-21_24h30.11.446,Info_measure_main_exp,2022.2.2,Win32,143.8021283,,,,,,,,,,,,,,,,,,masks/mask_005.jpg,,,,,,,,,,,,,,,,,,,,,,,,,,,,,,,,,,,,,,,,,,,,,,,,0,2,2,4,1,,,,,,,,,,,,,,,,,,,,,,,,,,,,,,,,,,,,,,,,,
094199,001,2022-11-21_24h30.11.446,Info_measure_main_exp,2022.2.2,Win32,143.8021283,,,,,,,,,,,,,,,,,,masks/mask_004.jpg,,,,,,,,,,,,,,,,,,,,,,,,,,,,,,,,,,,,,,,,,,,,,,,,0,3,3,3,1,,,,,,,,,,,,,,,,,,,,,,,,,,,,,,,,,,,,,,,,,
094199,001,2022-11-21_24h30.11.446,Info_measure_main_exp,2022.2.2,Win32,143.8021283,,,,,,,,,,,,,,,,,,masks/mask_002.jpg,,,,,,,,,,,,,,,,,,,,,,,,,,,,,,,,,,,,,,,,,,,,,,,,0,4,4,1,1,,,,,,,,,,,,,,,,,,,,,,,,,,,,,,,,,,,,,,,,,
094199,001,2022-11-21_24h30.11.446,Info_measure_main_exp,2022.2.2,Win32,143.8021283,,,,,,,,,,,,,,,,,,,,,,,,,,,,,,7,1.7795,1,,,,,,,,,,,,1,131,5,5,2250,1,absent_patch/patch0002250.jpg,present_patch/cong_131_5_a.jpg,,,,,,,,,,,,,,,,,,,,0.050925926,0.100925926,1,0,0,response1disk,11,0.000925926,-0.001851852,1,0,0,center_square,0,10,10,5,1,,,,,,,,,,,,,,,,,,,,,,,
094199,001,2022-11-21_24h30.11.446,Info_measure_main_exp,2022.2.2,Win32,143.8021283,,,,,,,,,,,,,,,,,,masks/mask_004.jpg,,,,,,,,,,,,,,,,,,,,,,,,,,,,,,,,,,,,,,,,,,,0,0,0,3,1,,,,,,,,,,,,,,,,,,,,,,,,,,,,,,,,,,,,,,,,,,,,,,
094199,001,2022-11-21_24h30.11.446,Info_measure_main_exp,2022.2.2,Win32,143.8021283,,,,,,,,,,,,,,,,,,masks/mask_005.jpg,,,,,,,,,,,,,,,,,,,,,,,,,,,,,,,,,,,,,,,,,,,0,1,1,4,1,,,,,,,,,,,,,,,,,,,,,,,,,,,,,,,,,,,,,,,,,,,,,,
094199,001,2022-11-21_24h30.11.446,Info_measure_main_exp,2022.2.2,Win32,143.8021283,,,,,,,,,,,,,,,,,,masks/mask_001.jpg,,,,,,,,,,,,,,,,,,,,,,,,,,,,,,,,,,,,,,,,,,,0,2,2,0,1,,,,,,,,,,,,,,,,,,,,,,,,,,,,,,,,,,,,,,,,,,,,,,
094199,001,2022-11-21_24h30.11.446,Info_measure_main_exp,2022.2.2,Win32,143.8021283,,,,,,,,,,,,,,,,,,masks/mask_002.jpg,,,,,,,,,,,,,,,,,,,,,,,,,,,,,,,,,,,,,,,,,,,0,3,3,1,1,,,,,,,,,,,,,,,,,,,,,,,,,,,,,,,,,,,,,,,,,,,,,,
094199,001,2022-11-21_24h30.11.446,Info_measure_main_exp,2022.2.2,Win32,143.8021283,,,,,,,,,,,,,,,,,,masks/mask_003.jpg,,,,,,,,,,,,,,,,,,,,,,,,,,,,,,,,,,,,,,,,,,,0,4,4,2,1,,,,,,,,,,,,,,,,,,,,,,,,,,,,,,,,,,,,,,,,,,,,,,
094199,001,2022-11-21_24h30.11.446,Info_measure_main_exp,2022.2.2,Win32,143.8021283,,,,,,,,,,,,,,,,,,masks/mask_005.jpg,,,,,,,,,,,,,,,,,,,,,,,,,,,,,,,,,,,,,,,,,,,,,,,,0,0,0,4,1,,,,,,,,,,,,,,,,,,,,,,,,,,,,,,,,,,,,,,,,,
094199,001,2022-11-21_24h30.11.446,Info_measure_main_exp,2022.2.2,Win32,143.8021283,,,,,,,,,,,,,,,,,,masks/mask_002.jpg,,,,,,,,,,,,,,,,,,,,,,,,,,,,,,,,,,,,,,,,,,,,,,,,0,1,1,1,1,,,,,,,,,,,,,,,,,,,,,,,,,,,,,,,,,,,,,,,,,
094199,001,2022-11-21_24h30.11.446,Info_measure_main_exp,2022.2.2,Win32,143.8021283,,,,,,,,,,,,,,,,,,masks/mask_004.jpg,,,,,,,,,,,,,,,,,,,,,,,,,,,,,,,,,,,,,,,,,,,,,,,,0,2,2,3,1,,,,,,,,,,,,,,,,,,,,,,,,,,,,,,,,,,,,,,,,,
094199,001,2022-11-21_24h30.11.446,Info_measure_main_exp,2022.2.2,Win32,143.8021283,,,,,,,,,,,,,,,,,,masks/mask_001.jpg,,,,,,,,,,,,,,,,,,,,,,,,,,,,,,,,,,,,,,,,,,,,,,,,0,3,3,0,1,,,,,,,,,,,,,,,,,,,,,,,,,,,,,,,,,,,,,,,,,
094199,001,2022-11-21_24h30.11.446,Info_measure_main_exp,2022.2.2,Win32,143.8021283,,,,,,,,,,,,,,,,,,masks/mask_003.jpg,,,,,,,,,,,,,,,,,,,,,,,,,,,,,,,,,,,,,,,,,,,,,,,,0,4,4,2,1,,,,,,,,,,,,,,,,,,,,,,,,,,,,,,,,,,,,,,,,,
094199,001,2022-11-21_24h30.11.446,Info_measure_main_exp,2022.2.2,Win32,143.8021283,,,,,,,,,,,,,,,,,,,,,,,,,,,,,,0,0.4925,1,,,,,,,,,,,,0,131,5,5,2274,2274,absent_patch/patch0002274.jpg,absent_patch/patch0002274.jpg,,,,,,,,,,,,,,,,,,,,-0.069444444,0.144444444,1,0,0,response7disk,12,-0.007407407,-0.001851852,1,0,0,center_square,0,11,11,114,1,,,,,,,,,,,,,,,,,,,,,,,
094199,001,2022-11-21_24h30.11.446,Info_measure_main_exp,2022.2.2,Win32,143.8021283,,,,,,,,,,,,,,,,,,masks/mask_005.jpg,,,,,,,,,,,,,,,,,,,,,,,,,,,,,,,,,,,,,,,,,,,0,0,0,4,1,,,,,,,,,,,,,,,,,,,,,,,,,,,,,,,,,,,,,,,,,,,,,,
094199,001,2022-11-21_24h30.11.446,Info_measure_main_exp,2022.2.2,Win32,143.8021283,,,,,,,,,,,,,,,,,,masks/mask_004.jpg,,,,,,,,,,,,,,,,,,,,,,,,,,,,,,,,,,,,,,,,,,,0,1,1,3,1,,,,,,,,,,,,,,,,,,,,,,,,,,,,,,,,,,,,,,,,,,,,,,
094199,001,2022-11-21_24h30.11.446,Info_measure_main_exp,2022.2.2,Win32,143.8021283,,,,,,,,,,,,,,,,,,masks/mask_002.jpg,,,,,,,,,,,,,,,,,,,,,,,,,,,,,,,,,,,,,,,,,,,0,2,2,1,1,,,,,,,,,,,,,,,,,,,,,,,,,,,,,,,,,,,,,,,,,,,,,,
094199,001,2022-11-21_24h30.11.446,Info_measure_main_exp,2022.2.2,Win32,143.8021283,,,,,,,,,,,,,,,,,,masks/mask_001.jpg,,,,,,,,,,,,,,,,,,,,,,,,,,,,,,,,,,,,,,,,,,,0,3,3,0,1,,,,,,,,,,,,,,,,,,,,,,,,,,,,,,,,,,,,,,,,,,,,,,
094199,001,2022-11-21_24h30.11.446,Info_measure_main_exp,2022.2.2,Win32,143.8021283,,,,,,,,,,,,,,,,,,masks/mask_003.jpg,,,,,,,,,,,,,,,,,,,,,,,,,,,,,,,,,,,,,,,,,,,0,4,4,2,1,,,,,,,,,,,,,,,,,,,,,,,,,,,,,,,,,,,,,,,,,,,,,,
094199,001,2022-11-21_24h30.11.446,Info_measure_main_exp,2022.2.2,Win32,143.8021283,,,,,,,,,,,,,,,,,,masks/mask_003.jpg,,,,,,,,,,,,,,,,,,,,,,,,,,,,,,,,,,,,,,,,,,,,,,,,0,0,0,2,1,,,,,,,,,,,,,,,,,,,,,,,,,,,,,,,,,,,,,,,,,
094199,001,2022-11-21_24h30.11.446,Info_measure_main_exp,2022.2.2,Win32,143.8021283,,,,,,,,,,,,,,,,,,masks/mask_001.jpg,,,,,,,,,,,,,,,,,,,,,,,,,,,,,,,,,,,,,,,,,,,,,,,,0,1,1,0,1,,,,,,,,,,,,,,,,,,,,,,,,,,,,,,,,,,,,,,,,,
094199,001,2022-11-21_24h30.11.446,Info_measure_main_exp,2022.2.2,Win32,143.8021283,,,,,,,,,,,,,,,,,,masks/mask_005.jpg,,,,,,,,,,,,,,,,,,,,,,,,,,,,,,,,,,,,,,,,,,,,,,,,0,2,2,4,1,,,,,,,,,,,,,,,,,,,,,,,,,,,,,,,,,,,,,,,,,
094199,001,2022-11-21_24h30.11.446,Info_measure_main_exp,2022.2.2,Win32,143.8021283,,,,,,,,,,,,,,,,,,masks/mask_002.jpg,,,,,,,,,,,,,,,,,,,,,,,,,,,,,,,,,,,,,,,,,,,,,,,,0,3,3,1,1,,,,,,,,,,,,,,,,,,,,,,,,,,,,,,,,,,,,,,,,,
094199,001,2022-11-21_24h30.11.446,Info_measure_main_exp,2022.2.2,Win32,143.8021283,,,,,,,,,,,,,,,,,,masks/mask_004.jpg,,,,,,,,,,,,,,,,,,,,,,,,,,,,,,,,,,,,,,,,,,,,,,,,0,4,4,3,1,,,,,,,,,,,,,,,,,,,,,,,,,,,,,,,,,,,,,,,,,
094199,001,2022-11-21_24h30.11.446,Info_measure_main_exp,2022.2.2,Win32,143.8021283,,,,,,,,,,,,,,,,,,,,,,,,,,,,,,4,3.0223,1,,,,,,,,,,,,1,131,5,5,1,2178,present_patch/cong_131_5_a.jpg,absent_patch/patch0002178.jpg,,,,,,,,,,,,,,,,,,,,0.022222222,-0.12962963,1,0,0,response3disk,13,0,0.001851852,1,0,0,center_square,0,12,12,40,1,,,,,,,,,,,,,,,,,,,,,,,
094199,001,2022-11-21_24h30.11.446,Info_measure_main_exp,2022.2.2,Win32,143.8021283,,,,,,,,,,,,,,,,,,masks/mask_005.jpg,,,,,,,,,,,,,,,,,,,,,,,,,,,,,,,,,,,,,,,,,,,0,0,0,4,1,,,,,,,,,,,,,,,,,,,,,,,,,,,,,,,,,,,,,,,,,,,,,,
094199,001,2022-11-21_24h30.11.446,Info_measure_main_exp,2022.2.2,Win32,143.8021283,,,,,,,,,,,,,,,,,,masks/mask_003.jpg,,,,,,,,,,,,,,,,,,,,,,,,,,,,,,,,,,,,,,,,,,,0,1,1,2,1,,,,,,,,,,,,,,,,,,,,,,,,,,,,,,,,,,,,,,,,,,,,,,
094199,001,2022-11-21_24h30.11.446,Info_measure_main_exp,2022.2.2,Win32,143.8021283,,,,,,,,,,,,,,,,,,masks/mask_001.jpg,,,,,,,,,,,,,,,,,,,,,,,,,,,,,,,,,,,,,,,,,,,0,2,2,0,1,,,,,,,,,,,,,,,,,,,,,,,,,,,,,,,,,,,,,,,,,,,,,,
094199,001,2022-11-21_24h30.11.446,Info_measure_main_exp,2022.2.2,Win32,143.8021283,,,,,,,,,,,,,,,,,,masks/mask_004.jpg,,,,,,,,,,,,,,,,,,,,,,,,,,,,,,,,,,,,,,,,,,,0,3,3,3,1,,,,,,,,,,,,,,,,,,,,,,,,,,,,,,,,,,,,,,,,,,,,,,
094199,001,2022-11-21_24h30.11.446,Info_measure_main_exp,2022.2.2,Win32,143.8021283,,,,,,,,,,,,,,,,,,masks/mask_002.jpg,,,,,,,,,,,,,,,,,,,,,,,,,,,,,,,,,,,,,,,,,,,0,4,4,1,1,,,,,,,,,,,,,,,,,,,,,,,,,,,,,,,,,,,,,,,,,,,,,,
094199,001,2022-11-21_24h30.11.446,Info_measure_main_exp,2022.2.2,Win32,143.8021283,,,,,,,,,,,,,,,,,,masks/mask_002.jpg,,,,,,,,,,,,,,,,,,,,,,,,,,,,,,,,,,,,,,,,,,,,,,,,0,0,0,1,1,,,,,,,,,,,,,,,,,,,,,,,,,,,,,,,,,,,,,,,,,
094199,001,2022-11-21_24h30.11.446,Info_measure_main_exp,2022.2.2,Win32,143.8021283,,,,,,,,,,,,,,,,,,masks/mask_003.jpg,,,,,,,,,,,,,,,,,,,,,,,,,,,,,,,,,,,,,,,,,,,,,,,,0,1,1,2,1,,,,,,,,,,,,,,,,,,,,,,,,,,,,,,,,,,,,,,,,,
094199,001,2022-11-21_24h30.11.446,Info_measure_main_exp,2022.2.2,Win32,143.8021283,,,,,,,,,,,,,,,,,,masks/mask_001.jpg,,,,,,,,,,,,,,,,,,,,,,,,,,,,,,,,,,,,,,,,,,,,,,,,0,2,2,0,1,,,,,,,,,,,,,,,,,,,,,,,,,,,,,,,,,,,,,,,,,
094199,001,2022-11-21_24h30.11.446,Info_measure_main_exp,2022.2.2,Win32,143.8021283,,,,,,,,,,,,,,,,,,masks/mask_004.jpg,,,,,,,,,,,,,,,,,,,,,,,,,,,,,,,,,,,,,,,,,,,,,,,,0,3,3,3,1,,,,,,,,,,,,,,,,,,,,,,,,,,,,,,,,,,,,,,,,,
094199,001,2022-11-21_24h30.11.446,Info_measure_main_exp,2022.2.2,Win32,143.8021283,,,,,,,,,,,,,,,,,,masks/mask_005.jpg,,,,,,,,,,,,,,,,,,,,,,,,,,,,,,,,,,,,,,,,,,,,,,,,0,4,4,4,1,,,,,,,,,,,,,,,,,,,,,,,,,,,,,,,,,,,,,,,,,
094199,001,2022-11-21_24h30.11.446,Info_measure_main_exp,2022.2.2,Win32,143.8021283,,,,,,,,,,,,,,,,,,,,,,,,,,,,,,6,2.3133,1,,,,,,,,,,,,0,131,5,5,2214,2166,absent_patch/patch0002214.jpg,absent_patch/patch0002166.jpg,,,,,,,,,,,,,,,,,,,,0.118518519,0.040740741,1,0,0,response1disk,14,0.000925926,0.011111111,1,0,0,center_square,0,13,13,109,1,,,,,,,,,,,,,,,,,,,,,,,
094199,001,2022-11-21_24h30.11.446,Info_measure_main_exp,2022.2.2,Win32,143.8021283,,,,,,,,,,,,,,,,,,masks/mask_001.jpg,,,,,,,,,,,,,,,,,,,,,,,,,,,,,,,,,,,,,,,,,,,0,0,0,0,1,,,,,,,,,,,,,,,,,,,,,,,,,,,,,,,,,,,,,,,,,,,,,,
094199,001,2022-11-21_24h30.11.446,Info_measure_main_exp,2022.2.2,Win32,143.8021283,,,,,,,,,,,,,,,,,,masks/mask_003.jpg,,,,,,,,,,,,,,,,,,,,,,,,,,,,,,,,,,,,,,,,,,,0,1,1,2,1,,,,,,,,,,,,,,,,,,,,,,,,,,,,,,,,,,,,,,,,,,,,,,
094199,001,2022-11-21_24h30.11.446,Info_measure_main_exp,2022.2.2,Win32,143.8021283,,,,,,,,,,,,,,,,,,masks/mask_005.jpg,,,,,,,,,,,,,,,,,,,,,,,,,,,,,,,,,,,,,,,,,,,0,2,2,4,1,,,,,,,,,,,,,,,,,,,,,,,,,,,,,,,,,,,,,,,,,,,,,,
094199,001,2022-11-21_24h30.11.446,Info_measure_main_exp,2022.2.2,Win32,143.8021283,,,,,,,,,,,,,,,,,,masks/mask_002.jpg,,,,,,,,,,,,,,,,,,,,,,,,,,,,,,,,,,,,,,,,,,,0,3,3,1,1,,,,,,,,,,,,,,,,,,,,,,,,,,,,,,,,,,,,,,,,,,,,,,
094199,001,2022-11-21_24h30.11.446,Info_measure_main_exp,2022.2.2,Win32,143.8021283,,,,,,,,,,,,,,,,,,masks/mask_004.jpg,,,,,,,,,,,,,,,,,,,,,,,,,,,,,,,,,,,,,,,,,,,0,4,4,3,1,,,,,,,,,,,,,,,,,,,,,,,,,,,,,,,,,,,,,,,,,,,,,,
094199,001,2022-11-21_24h30.11.446,Info_measure_main_exp,2022.2.2,Win32,143.8021283,,,,,,,,,,,,,,,,,,masks/mask_005.jpg,,,,,,,,,,,,,,,,,,,,,,,,,,,,,,,,,,,,,,,,,,,,,,,,0,0,0,4,1,,,,,,,,,,,,,,,,,,,,,,,,,,,,,,,,,,,,,,,,,
094199,001,2022-11-21_24h30.11.446,Info_measure_main_exp,2022.2.2,Win32,143.8021283,,,,,,,,,,,,,,,,,,masks/mask_001.jpg,,,,,,,,,,,,,,,,,,,,,,,,,,,,,,,,,,,,,,,,,,,,,,,,0,1,1,0,1,,,,,,,,,,,,,,,,,,,,,,,,,,,,,,,,,,,,,,,,,
094199,001,2022-11-21_24h30.11.446,Info_measure_main_exp,2022.2.2,Win32,143.8021283,,,,,,,,,,,,,,,,,,masks/mask_004.jpg,,,,,,,,,,,,,,,,,,,,,,,,,,,,,,,,,,,,,,,,,,,,,,,,0,2,2,3,1,,,,,,,,,,,,,,,,,,,,,,,,,,,,,,,,,,,,,,,,,
094199,001,2022-11-21_24h30.11.446,Info_measure_main_exp,2022.2.2,Win32,143.8021283,,,,,,,,,,,,,,,,,,masks/mask_003.jpg,,,,,,,,,,,,,,,,,,,,,,,,,,,,,,,,,,,,,,,,,,,,,,,,0,3,3,2,1,,,,,,,,,,,,,,,,,,,,,,,,,,,,,,,,,,,,,,,,,
094199,001,2022-11-21_24h30.11.446,Info_measure_main_exp,2022.2.2,Win32,143.8021283,,,,,,,,,,,,,,,,,,masks/mask_002.jpg,,,,,,,,,,,,,,,,,,,,,,,,,,,,,,,,,,,,,,,,,,,,,,,,0,4,4,1,1,,,,,,,,,,,,,,,,,,,,,,,,,,,,,,,,,,,,,,,,,
094199,001,2022-11-21_24h30.11.446,Info_measure_main_exp,2022.2.2,Win32,143.8021283,,,,,,,,,,,,,,,,,,,,,,,,,,,,,,5,1.6538,1,,,,,,,,,,,,0,131,5,5,2238,2298,absent_patch/patch0002238.jpg,absent_patch/patch0002298.jpg,,,,,,,,,,,,,,,,,,,,0.106481481,-0.059259259,1,0,0,response3disk,15,0.00462963,-0.001851852,1,0,0,center_square,0,14,14,51,1,,,,,,,,,,,,,,,,,,,,,,,
094199,001,2022-11-21_24h30.11.446,Info_measure_main_exp,2022.2.2,Win32,143.8021283,,,,,,,,,,,,,,,,,,masks/mask_003.jpg,,,,,,,,,,,,,,,,,,,,,,,,,,,,,,,,,,,,,,,,,,,0,0,0,2,1,,,,,,,,,,,,,,,,,,,,,,,,,,,,,,,,,,,,,,,,,,,,,,
094199,001,2022-11-21_24h30.11.446,Info_measure_main_exp,2022.2.2,Win32,143.8021283,,,,,,,,,,,,,,,,,,masks/mask_005.jpg,,,,,,,,,,,,,,,,,,,,,,,,,,,,,,,,,,,,,,,,,,,0,1,1,4,1,,,,,,,,,,,,,,,,,,,,,,,,,,,,,,,,,,,,,,,,,,,,,,
094199,001,2022-11-21_24h30.11.446,Info_measure_main_exp,2022.2.2,Win32,143.8021283,,,,,,,,,,,,,,,,,,masks/mask_002.jpg,,,,,,,,,,,,,,,,,,,,,,,,,,,,,,,,,,,,,,,,,,,0,2,2,1,1,,,,,,,,,,,,,,,,,,,,,,,,,,,,,,,,,,,,,,,,,,,,,,
094199,001,2022-11-21_24h30.11.446,Info_measure_main_exp,2022.2.2,Win32,143.8021283,,,,,,,,,,,,,,,,,,masks/mask_001.jpg,,,,,,,,,,,,,,,,,,,,,,,,,,,,,,,,,,,,,,,,,,,0,3,3,0,1,,,,,,,,,,,,,,,,,,,,,,,,,,,,,,,,,,,,,,,,,,,,,,
094199,001,2022-11-21_24h30.11.446,Info_measure_main_exp,2022.2.2,Win32,143.8021283,,,,,,,,,,,,,,,,,,masks/mask_004.jpg,,,,,,,,,,,,,,,,,,,,,,,,,,,,,,,,,,,,,,,,,,,0,4,4,3,1,,,,,,,,,,,,,,,,,,,,,,,,,,,,,,,,,,,,,,,,,,,,,,
094199,001,2022-11-21_24h30.11.446,Info_measure_main_exp,2022.2.2,Win32,143.8021283,,,,,,,,,,,,,,,,,,masks/mask_004.jpg,,,,,,,,,,,,,,,,,,,,,,,,,,,,,,,,,,,,,,,,,,,,,,,,0,0,0,3,1,,,,,,,,,,,,,,,,,,,,,,,,,,,,,,,,,,,,,,,,,
094199,001,2022-11-21_24h30.11.446,Info_measure_main_exp,2022.2.2,Win32,143.8021283,,,,,,,,,,,,,,,,,,masks/mask_001.jpg,,,,,,,,,,,,,,,,,,,,,,,,,,,,,,,,,,,,,,,,,,,,,,,,0,1,1,0,1,,,,,,,,,,,,,,,,,,,,,,,,,,,,,,,,,,,,,,,,,
094199,001,2022-11-21_24h30.11.446,Info_measure_main_exp,2022.2.2,Win32,143.8021283,,,,,,,,,,,,,,,,,,masks/mask_003.jpg,,,,,,,,,,,,,,,,,,,,,,,,,,,,,,,,,,,,,,,,,,,,,,,,0,2,2,2,1,,,,,,,,,,,,,,,,,,,,,,,,,,,,,,,,,,,,,,,,,
094199,001,2022-11-21_24h30.11.446,Info_measure_main_exp,2022.2.2,Win32,143.8021283,,,,,,,,,,,,,,,,,,masks/mask_002.jpg,,,,,,,,,,,,,,,,,,,,,,,,,,,,,,,,,,,,,,,,,,,,,,,,0,3,3,1,1,,,,,,,,,,,,,,,,,,,,,,,,,,,,,,,,,,,,,,,,,
094199,001,2022-11-21_24h30.11.446,Info_measure_main_exp,2022.2.2,Win32,143.8021283,,,,,,,,,,,,,,,,,,masks/mask_005.jpg,,,,,,,,,,,,,,,,,,,,,,,,,,,,,,,,,,,,,,,,,,,,,,,,0,4,4,4,1,,,,,,,,,,,,,,,,,,,,,,,,,,,,,,,,,,,,,,,,,
094199,001,2022-11-21_24h30.11.446,Info_measure_main_exp,2022.2.2,Win32,143.8021283,,,,,,,,,,,,,,,,,,,,,,,,,,,,,,7,0.7642,1,,,,,,,,,,,,0,131,5,5,2214,2178,absent_patch/patch0002214.jpg,absent_patch/patch0002178.jpg,,,,,,,,,,,,,,,,,,,,0.058333333,0.128703704,1,0,0,response1disk,16,0.005555556,-0.005555556,1,0,0,center_square,0,15,15,62,1,,,,,,,,,,,,,,,,,,,,,,,
094199,001,2022-11-21_24h30.11.446,Info_measure_main_exp,2022.2.2,Win32,143.8021283,,,,,,,,,,,,,,,,,,masks/mask_004.jpg,,,,,,,,,,,,,,,,,,,,,,,,,,,,,,,,,,,,,,,,,,,0,0,0,3,1,,,,,,,,,,,,,,,,,,,,,,,,,,,,,,,,,,,,,,,,,,,,,,
094199,001,2022-11-21_24h30.11.446,Info_measure_main_exp,2022.2.2,Win32,143.8021283,,,,,,,,,,,,,,,,,,masks/mask_003.jpg,,,,,,,,,,,,,,,,,,,,,,,,,,,,,,,,,,,,,,,,,,,0,1,1,2,1,,,,,,,,,,,,,,,,,,,,,,,,,,,,,,,,,,,,,,,,,,,,,,
094199,001,2022-11-21_24h30.11.446,Info_measure_main_exp,2022.2.2,Win32,143.8021283,,,,,,,,,,,,,,,,,,masks/mask_002.jpg,,,,,,,,,,,,,,,,,,,,,,,,,,,,,,,,,,,,,,,,,,,0,2,2,1,1,,,,,,,,,,,,,,,,,,,,,,,,,,,,,,,,,,,,,,,,,,,,,,
094199,001,2022-11-21_24h30.11.446,Info_measure_main_exp,2022.2.2,Win32,143.8021283,,,,,,,,,,,,,,,,,,masks/mask_001.jpg,,,,,,,,,,,,,,,,,,,,,,,,,,,,,,,,,,,,,,,,,,,0,3,3,0,1,,,,,,,,,,,,,,,,,,,,,,,,,,,,,,,,,,,,,,,,,,,,,,
094199,001,2022-11-21_24h30.11.446,Info_measure_main_exp,2022.2.2,Win32,143.8021283,,,,,,,,,,,,,,,,,,masks/mask_005.jpg,,,,,,,,,,,,,,,,,,,,,,,,,,,,,,,,,,,,,,,,,,,0,4,4,4,1,,,,,,,,,,,,,,,,,,,,,,,,,,,,,,,,,,,,,,,,,,,,,,
094199,001,2022-11-21_24h30.11.446,Info_measure_main_exp,2022.2.2,Win32,143.8021283,,,,,,,,,,,,,,,,,,masks/mask_003.jpg,,,,,,,,,,,,,,,,,,,,,,,,,,,,,,,,,,,,,,,,,,,,,,,,0,0,0,2,1,,,,,,,,,,,,,,,,,,,,,,,,,,,,,,,,,,,,,,,,,
094199,001,2022-11-21_24h30.11.446,Info_measure_main_exp,2022.2.2,Win32,143.8021283,,,,,,,,,,,,,,,,,,masks/mask_002.jpg,,,,,,,,,,,,,,,,,,,,,,,,,,,,,,,,,,,,,,,,,,,,,,,,0,1,1,1,1,,,,,,,,,,,,,,,,,,,,,,,,,,,,,,,,,,,,,,,,,
094199,001,2022-11-21_24h30.11.446,Info_measure_main_exp,2022.2.2,Win32,143.8021283,,,,,,,,,,,,,,,,,,masks/mask_001.jpg,,,,,,,,,,,,,,,,,,,,,,,,,,,,,,,,,,,,,,,,,,,,,,,,0,2,2,0,1,,,,,,,,,,,,,,,,,,,,,,,,,,,,,,,,,,,,,,,,,
094199,001,2022-11-21_24h30.11.446,Info_measure_main_exp,2022.2.2,Win32,143.8021283,,,,,,,,,,,,,,,,,,masks/mask_004.jpg,,,,,,,,,,,,,,,,,,,,,,,,,,,,,,,,,,,,,,,,,,,,,,,,0,3,3,3,1,,,,,,,,,,,,,,,,,,,,,,,,,,,,,,,,,,,,,,,,,
094199,001,2022-11-21_24h30.11.446,Info_measure_main_exp,2022.2.2,Win32,143.8021283,,,,,,,,,,,,,,,,,,masks/mask_005.jpg,,,,,,,,,,,,,,,,,,,,,,,,,,,,,,,,,,,,,,,,,,,,,,,,0,4,4,4,1,,,,,,,,,,,,,,,,,,,,,,,,,,,,,,,,,,,,,,,,,
094199,001,2022-11-21_24h30.11.446,Info_measure_main_exp,2022.2.2,Win32,143.8021283,,,,,,,,,,,,,,,,,,,,,,,,,,,,,,5,2.5691,1,,,,,,,,,,,,0,131,5,5,2178,2166,absent_patch/patch0002178.jpg,absent_patch/patch0002166.jpg,,,,,,,,,,,,,,,,,,,,0.134259259,-0.034259259,1,0,0,response3disk,17,-0.003703704,0.000925926,1,0,0,center_square,0,16,16,72,1,,,,,,,,,,,,,,,,,,,,,,,
094199,001,2022-11-21_24h30.11.446,Info_measure_main_exp,2022.2.2,Win32,143.8021283,,,,,,,,,,,,,,,,,,masks/mask_002.jpg,,,,,,,,,,,,,,,,,,,,,,,,,,,,,,,,,,,,,,,,,,,0,0,0,1,1,,,,,,,,,,,,,,,,,,,,,,,,,,,,,,,,,,,,,,,,,,,,,,
094199,001,2022-11-21_24h30.11.446,Info_measure_main_exp,2022.2.2,Win32,143.8021283,,,,,,,,,,,,,,,,,,masks/mask_004.jpg,,,,,,,,,,,,,,,,,,,,,,,,,,,,,,,,,,,,,,,,,,,0,1,1,3,1,,,,,,,,,,,,,,,,,,,,,,,,,,,,,,,,,,,,,,,,,,,,,,
094199,001,2022-11-21_24h30.11.446,Info_measure_main_exp,2022.2.2,Win32,143.8021283,,,,,,,,,,,,,,,,,,masks/mask_003.jpg,,,,,,,,,,,,,,,,,,,,,,,,,,,,,,,,,,,,,,,,,,,0,2,2,2,1,,,,,,,,,,,,,,,,,,,,,,,,,,,,,,,,,,,,,,,,,,,,,,
094199,001,2022-11-21_24h30.11.446,Info_measure_main_exp,2022.2.2,Win32,143.8021283,,,,,,,,,,,,,,,,,,masks/mask_001.jpg,,,,,,,,,,,,,,,,,,,,,,,,,,,,,,,,,,,,,,,,,,,0,3,3,0,1,,,,,,,,,,,,,,,,,,,,,,,,,,,,,,,,,,,,,,,,,,,,,,
094199,001,2022-11-21_24h30.11.446,Info_measure_main_exp,2022.2.2,Win32,143.8021283,,,,,,,,,,,,,,,,,,masks/mask_005.jpg,,,,,,,,,,,,,,,,,,,,,,,,,,,,,,,,,,,,,,,,,,,0,4,4,4,1,,,,,,,,,,,,,,,,,,,,,,,,,,,,,,,,,,,,,,,,,,,,,,
094199,001,2022-11-21_24h30.11.446,Info_measure_main_exp,2022.2.2,Win32,143.8021283,,,,,,,,,,,,,,,,,,masks/mask_002.jpg,,,,,,,,,,,,,,,,,,,,,,,,,,,,,,,,,,,,,,,,,,,,,,,,0,0,0,1,1,,,,,,,,,,,,,,,,,,,,,,,,,,,,,,,,,,,,,,,,,
094199,001,2022-11-21_24h30.11.446,Info_measure_main_exp,2022.2.2,Win32,143.8021283,,,,,,,,,,,,,,,,,,masks/mask_001.jpg,,,,,,,,,,,,,,,,,,,,,,,,,,,,,,,,,,,,,,,,,,,,,,,,0,1,1,0,1,,,,,,,,,,,,,,,,,,,,,,,,,,,,,,,,,,,,,,,,,
094199,001,2022-11-21_24h30.11.446,Info_measure_main_exp,2022.2.2,Win32,143.8021283,,,,,,,,,,,,,,,,,,masks/mask_004.jpg,,,,,,,,,,,,,,,,,,,,,,,,,,,,,,,,,,,,,,,,,,,,,,,,0,2,2,3,1,,,,,,,,,,,,,,,,,,,,,,,,,,,,,,,,,,,,,,,,,
094199,001,2022-11-21_24h30.11.446,Info_measure_main_exp,2022.2.2,Win32,143.8021283,,,,,,,,,,,,,,,,,,masks/mask_005.jpg,,,,,,,,,,,,,,,,,,,,,,,,,,,,,,,,,,,,,,,,,,,,,,,,0,3,3,4,1,,,,,,,,,,,,,,,,,,,,,,,,,,,,,,,,,,,,,,,,,
094199,001,2022-11-21_24h30.11.446,Info_measure_main_exp,2022.2.2,Win32,143.8021283,,,,,,,,,,,,,,,,,,masks/mask_003.jpg,,,,,,,,,,,,,,,,,,,,,,,,,,,,,,,,,,,,,,,,,,,,,,,,0,4,4,2,1,,,,,,,,,,,,,,,,,,,,,,,,,,,,,,,,,,,,,,,,,
094199,001,2022-11-21_24h30.11.446,Info_measure_main_exp,2022.2.2,Win32,143.8021283,,,,,,,,,,,,,,,,,,,,,,,,,,,,,,3,2.3251,1,,,,,,,,,,,,1,131,5,5,1,2274,present_patch/cong_131_5_a.jpg,absent_patch/patch0002274.jpg,,,,,,,,,,,,,,,,,,,,-0.078703704,-0.108333333,1,0,0,response5disk,18,0.000925926,-0.001851852,1,0,0,center_square,0,17,17,105,1,,,,,,,,,,,,,,,,,,,,,,,
094199,001,2022-11-21_24h30.11.446,Info_measure_main_exp,2022.2.2,Win32,143.8021283,,,,,,,,,,,,,,,,,,masks/mask_001.jpg,,,,,,,,,,,,,,,,,,,,,,,,,,,,,,,,,,,,,,,,,,,0,0,0,0,1,,,,,,,,,,,,,,,,,,,,,,,,,,,,,,,,,,,,,,,,,,,,,,
094199,001,2022-11-21_24h30.11.446,Info_measure_main_exp,2022.2.2,Win32,143.8021283,,,,,,,,,,,,,,,,,,masks/mask_005.jpg,,,,,,,,,,,,,,,,,,,,,,,,,,,,,,,,,,,,,,,,,,,0,1,1,4,1,,,,,,,,,,,,,,,,,,,,,,,,,,,,,,,,,,,,,,,,,,,,,,
094199,001,2022-11-21_24h30.11.446,Info_measure_main_exp,2022.2.2,Win32,143.8021283,,,,,,,,,,,,,,,,,,masks/mask_004.jpg,,,,,,,,,,,,,,,,,,,,,,,,,,,,,,,,,,,,,,,,,,,0,2,2,3,1,,,,,,,,,,,,,,,,,,,,,,,,,,,,,,,,,,,,,,,,,,,,,,
094199,001,2022-11-21_24h30.11.446,Info_measure_main_exp,2022.2.2,Win32,143.8021283,,,,,,,,,,,,,,,,,,masks/mask_003.jpg,,,,,,,,,,,,,,,,,,,,,,,,,,,,,,,,,,,,,,,,,,,0,3,3,2,1,,,,,,,,,,,,,,,,,,,,,,,,,,,,,,,,,,,,,,,,,,,,,,
094199,001,2022-11-21_24h30.11.446,Info_measure_main_exp,2022.2.2,Win32,143.8021283,,,,,,,,,,,,,,,,,,masks/mask_002.jpg,,,,,,,,,,,,,,,,,,,,,,,,,,,,,,,,,,,,,,,,,,,0,4,4,1,1,,,,,,,,,,,,,,,,,,,,,,,,,,,,,,,,,,,,,,,,,,,,,,
094199,001,2022-11-21_24h30.11.446,Info_measure_main_exp,2022.2.2,Win32,143.8021283,,,,,,,,,,,,,,,,,,masks/mask_004.jpg,,,,,,,,,,,,,,,,,,,,,,,,,,,,,,,,,,,,,,,,,,,,,,,,0,0,0,3,1,,,,,,,,,,,,,,,,,,,,,,,,,,,,,,,,,,,,,,,,,
094199,001,2022-11-21_24h30.11.446,Info_measure_main_exp,2022.2.2,Win32,143.8021283,,,,,,,,,,,,,,,,,,masks/mask_001.jpg,,,,,,,,,,,,,,,,,,,,,,,,,,,,,,,,,,,,,,,,,,,,,,,,0,1,1,0,1,,,,,,,,,,,,,,,,,,,,,,,,,,,,,,,,,,,,,,,,,
094199,001,2022-11-21_24h30.11.446,Info_measure_main_exp,2022.2.2,Win32,143.8021283,,,,,,,,,,,,,,,,,,masks/mask_005.jpg,,,,,,,,,,,,,,,,,,,,,,,,,,,,,,,,,,,,,,,,,,,,,,,,0,2,2,4,1,,,,,,,,,,,,,,,,,,,,,,,,,,,,,,,,,,,,,,,,,
094199,001,2022-11-21_24h30.11.446,Info_measure_main_exp,2022.2.2,Win32,143.8021283,,,,,,,,,,,,,,,,,,masks/mask_003.jpg,,,,,,,,,,,,,,,,,,,,,,,,,,,,,,,,,,,,,,,,,,,,,,,,0,3,3,2,1,,,,,,,,,,,,,,,,,,,,,,,,,,,,,,,,,,,,,,,,,
094199,001,2022-11-21_24h30.11.446,Info_measure_main_exp,2022.2.2,Win32,143.8021283,,,,,,,,,,,,,,,,,,masks/mask_002.jpg,,,,,,,,,,,,,,,,,,,,,,,,,,,,,,,,,,,,,,,,,,,,,,,,0,4,4,1,1,,,,,,,,,,,,,,,,,,,,,,,,,,,,,,,,,,,,,,,,,
094199,001,2022-11-21_24h30.11.446,Info_measure_main_exp,2022.2.2,Win32,143.8021283,,,,,,,,,,,,,,,,,,,,,,,,,,,,,,7,1.8448,1,,,,,,,,,,,,0,131,5,5,2274,2214,absent_patch/patch0002274.jpg,absent_patch/patch0002214.jpg,,,,,,,,,,,,,,,,,,,,0.072222222,0.103703704,1,0,0,response1disk,19,0.012037037,-0.002777778,1,0,0,center_square,0,18,18,11,1,,,,,,,,,,,,,,,,,,,,,,,
094199,001,2022-11-21_24h30.11.446,Info_measure_main_exp,2022.2.2,Win32,143.8021283,,,,,,,,,,,,,,,,,,masks/mask_005.jpg,,,,,,,,,,,,,,,,,,,,,,,,,,,,,,,,,,,,,,,,,,,0,0,0,4,1,,,,,,,,,,,,,,,,,,,,,,,,,,,,,,,,,,,,,,,,,,,,,,
094199,001,2022-11-21_24h30.11.446,Info_measure_main_exp,2022.2.2,Win32,143.8021283,,,,,,,,,,,,,,,,,,masks/mask_004.jpg,,,,,,,,,,,,,,,,,,,,,,,,,,,,,,,,,,,,,,,,,,,0,1,1,3,1,,,,,,,,,,,,,,,,,,,,,,,,,,,,,,,,,,,,,,,,,,,,,,
094199,001,2022-11-21_24h30.11.446,Info_measure_main_exp,2022.2.2,Win32,143.8021283,,,,,,,,,,,,,,,,,,masks/mask_001.jpg,,,,,,,,,,,,,,,,,,,,,,,,,,,,,,,,,,,,,,,,,,,0,2,2,0,1,,,,,,,,,,,,,,,,,,,,,,,,,,,,,,,,,,,,,,,,,,,,,,
094199,001,2022-11-21_24h30.11.446,Info_measure_main_exp,2022.2.2,Win32,143.8021283,,,,,,,,,,,,,,,,,,masks/mask_002.jpg,,,,,,,,,,,,,,,,,,,,,,,,,,,,,,,,,,,,,,,,,,,0,3,3,1,1,,,,,,,,,,,,,,,,,,,,,,,,,,,,,,,,,,,,,,,,,,,,,,
094199,001,2022-11-21_24h30.11.446,Info_measure_main_exp,2022.2.2,Win32,143.8021283,,,,,,,,,,,,,,,,,,masks/mask_003.jpg,,,,,,,,,,,,,,,,,,,,,,,,,,,,,,,,,,,,,,,,,,,0,4,4,2,1,,,,,,,,,,,,,,,,,,,,,,,,,,,,,,,,,,,,,,,,,,,,,,
094199,001,2022-11-21_24h30.11.446,Info_measure_main_exp,2022.2.2,Win32,143.8021283,,,,,,,,,,,,,,,,,,masks/mask_002.jpg,,,,,,,,,,,,,,,,,,,,,,,,,,,,,,,,,,,,,,,,,,,,,,,,0,0,0,1,1,,,,,,,,,,,,,,,,,,,,,,,,,,,,,,,,,,,,,,,,,
094199,001,2022-11-21_24h30.11.446,Info_measure_main_exp,2022.2.2,Win32,143.8021283,,,,,,,,,,,,,,,,,,masks/mask_003.jpg,,,,,,,,,,,,,,,,,,,,,,,,,,,,,,,,,,,,,,,,,,,,,,,,0,1,1,2,1,,,,,,,,,,,,,,,,,,,,,,,,,,,,,,,,,,,,,,,,,
094199,001,2022-11-21_24h30.11.446,Info_measure_main_exp,2022.2.2,Win32,143.8021283,,,,,,,,,,,,,,,,,,masks/mask_005.jpg,,,,,,,,,,,,,,,,,,,,,,,,,,,,,,,,,,,,,,,,,,,,,,,,0,2,2,4,1,,,,,,,,,,,,,,,,,,,,,,,,,,,,,,,,,,,,,,,,,
094199,001,2022-11-21_24h30.11.446,Info_measure_main_exp,2022.2.2,Win32,143.8021283,,,,,,,,,,,,,,,,,,masks/mask_004.jpg,,,,,,,,,,,,,,,,,,,,,,,,,,,,,,,,,,,,,,,,,,,,,,,,0,3,3,3,1,,,,,,,,,,,,,,,,,,,,,,,,,,,,,,,,,,,,,,,,,
094199,001,2022-11-21_24h30.11.446,Info_measure_main_exp,2022.2.2,Win32,143.8021283,,,,,,,,,,,,,,,,,,masks/mask_001.jpg,,,,,,,,,,,,,,,,,,,,,,,,,,,,,,,,,,,,,,,,,,,,,,,,0,4,4,0,1,,,,,,,,,,,,,,,,,,,,,,,,,,,,,,,,,,,,,,,,,
094199,001,2022-11-21_24h30.11.446,Info_measure_main_exp,2022.2.2,Win32,143.8021283,,,,,,,,,,,,,,,,,,,,,,,,,,,,,,3,3.3499,1,,,,,,,,,,,,0,131,5,5,2082,2178,absent_patch/patch0002082.jpg,absent_patch/patch0002178.jpg,,,,,,,,,,,,,,,,,,,,-0.038888889,-0.101851852,1,0,0,response5disk,20,0.008333333,0.002777778,1,0,0,center_square,0,19,19,2,1,,,,,,,,,,,,,,,,,,,,,,,
094199,001,2022-11-21_24h30.11.446,Info_measure_main_exp,2022.2.2,Win32,143.8021283,,,,,,,,,,,,,,,,,,masks/mask_001.jpg,,,,,,,,,,,,,,,,,,,,,,,,,,,,,,,,,,,,,,,,,,,0,0,0,0,1,,,,,,,,,,,,,,,,,,,,,,,,,,,,,,,,,,,,,,,,,,,,,,
094199,001,2022-11-21_24h30.11.446,Info_measure_main_exp,2022.2.2,Win32,143.8021283,,,,,,,,,,,,,,,,,,masks/mask_005.jpg,,,,,,,,,,,,,,,,,,,,,,,,,,,,,,,,,,,,,,,,,,,0,1,1,4,1,,,,,,,,,,,,,,,,,,,,,,,,,,,,,,,,,,,,,,,,,,,,,,
094199,001,2022-11-21_24h30.11.446,Info_measure_main_exp,2022.2.2,Win32,143.8021283,,,,,,,,,,,,,,,,,,masks/mask_002.jpg,,,,,,,,,,,,,,,,,,,,,,,,,,,,,,,,,,,,,,,,,,,0,2,2,1,1,,,,,,,,,,,,,,,,,,,,,,,,,,,,,,,,,,,,,,,,,,,,,,
094199,001,2022-11-21_24h30.11.446,Info_measure_main_exp,2022.2.2,Win32,143.8021283,,,,,,,,,,,,,,,,,,masks/mask_003.jpg,,,,,,,,,,,,,,,,,,,,,,,,,,,,,,,,,,,,,,,,,,,0,3,3,2,1,,,,,,,,,,,,,,,,,,,,,,,,,,,,,,,,,,,,,,,,,,,,,,
094199,001,2022-11-21_24h30.11.446,Info_measure_main_exp,2022.2.2,Win32,143.8021283,,,,,,,,,,,,,,,,,,masks/mask_004.jpg,,,,,,,,,,,,,,,,,,,,,,,,,,,,,,,,,,,,,,,,,,,0,4,4,3,1,,,,,,,,,,,,,,,,,,,,,,,,,,,,,,,,,,,,,,,,,,,,,,
094199,001,2022-11-21_24h30.11.446,Info_measure_main_exp,2022.2.2,Win32,143.8021283,,,,,,,,,,,,,,,,,,masks/mask_004.jpg,,,,,,,,,,,,,,,,,,,,,,,,,,,,,,,,,,,,,,,,,,,,,,,,0,0,0,3,1,,,,,,,,,,,,,,,,,,,,,,,,,,,,,,,,,,,,,,,,,
094199,001,2022-11-21_24h30.11.446,Info_measure_main_exp,2022.2.2,Win32,143.8021283,,,,,,,,,,,,,,,,,,masks/mask_001.jpg,,,,,,,,,,,,,,,,,,,,,,,,,,,,,,,,,,,,,,,,,,,,,,,,0,1,1,0,1,,,,,,,,,,,,,,,,,,,,,,,,,,,,,,,,,,,,,,,,,
094199,001,2022-11-21_24h30.11.446,Info_measure_main_exp,2022.2.2,Win32,143.8021283,,,,,,,,,,,,,,,,,,masks/mask_002.jpg,,,,,,,,,,,,,,,,,,,,,,,,,,,,,,,,,,,,,,,,,,,,,,,,0,2,2,1,1,,,,,,,,,,,,,,,,,,,,,,,,,,,,,,,,,,,,,,,,,
094199,001,2022-11-21_24h30.11.446,Info_measure_main_exp,2022.2.2,Win32,143.8021283,,,,,,,,,,,,,,,,,,masks/mask_005.jpg,,,,,,,,,,,,,,,,,,,,,,,,,,,,,,,,,,,,,,,,,,,,,,,,0,3,3,4,1,,,,,,,,,,,,,,,,,,,,,,,,,,,,,,,,,,,,,,,,,
094199,001,2022-11-21_24h30.11.446,Info_measure_main_exp,2022.2.2,Win32,143.8021283,,,,,,,,,,,,,,,,,,masks/mask_003.jpg,,,,,,,,,,,,,,,,,,,,,,,,,,,,,,,,,,,,,,,,,,,,,,,,0,4,4,2,1,,,,,,,,,,,,,,,,,,,,,,,,,,,,,,,,,,,,,,,,,
094199,001,2022-11-21_24h30.11.446,Info_measure_main_exp,2022.2.2,Win32,143.8021283,,,,,,,,,,,,,,,,,,,,,,,,,,,,,,7,0.9464,1,,,,,,,,,,,,1,131,5,5,1,2214,present_patch/cong_131_5_a.jpg,absent_patch/patch0002214.jpg,,,,,,,,,,,,,,,,,,,,0.061111111,0.107407407,1,0,0,response1disk,21,0.001851852,-0.005555556,1,0,0,center_square,0,20,20,4,1,,,,,,,,,,,,,,,,,,,,,,,
094199,001,2022-11-21_24h30.11.446,Info_measure_main_exp,2022.2.2,Win32,143.8021283,,,,,,,,,,,,,,,,,,masks/mask_005.jpg,,,,,,,,,,,,,,,,,,,,,,,,,,,,,,,,,,,,,,,,,,,0,0,0,4,1,,,,,,,,,,,,,,,,,,,,,,,,,,,,,,,,,,,,,,,,,,,,,,
094199,001,2022-11-21_24h30.11.446,Info_measure_main_exp,2022.2.2,Win32,143.8021283,,,,,,,,,,,,,,,,,,masks/mask_002.jpg,,,,,,,,,,,,,,,,,,,,,,,,,,,,,,,,,,,,,,,,,,,0,1,1,1,1,,,,,,,,,,,,,,,,,,,,,,,,,,,,,,,,,,,,,,,,,,,,,,
094199,001,2022-11-21_24h30.11.446,Info_measure_main_exp,2022.2.2,Win32,143.8021283,,,,,,,,,,,,,,,,,,masks/mask_004.jpg,,,,,,,,,,,,,,,,,,,,,,,,,,,,,,,,,,,,,,,,,,,0,2,2,3,1,,,,,,,,,,,,,,,,,,,,,,,,,,,,,,,,,,,,,,,,,,,,,,
094199,001,2022-11-21_24h30.11.446,Info_measure_main_exp,2022.2.2,Win32,143.8021283,,,,,,,,,,,,,,,,,,masks/mask_003.jpg,,,,,,,,,,,,,,,,,,,,,,,,,,,,,,,,,,,,,,,,,,,0,3,3,2,1,,,,,,,,,,,,,,,,,,,,,,,,,,,,,,,,,,,,,,,,,,,,,,
094199,001,2022-11-21_24h30.11.446,Info_measure_main_exp,2022.2.2,Win32,143.8021283,,,,,,,,,,,,,,,,,,masks/mask_001.jpg,,,,,,,,,,,,,,,,,,,,,,,,,,,,,,,,,,,,,,,,,,,0,4,4,0,1,,,,,,,,,,,,,,,,,,,,,,,,,,,,,,,,,,,,,,,,,,,,,,
094199,001,2022-11-21_24h30.11.446,Info_measure_main_exp,2022.2.2,Win32,143.8021283,,,,,,,,,,,,,,,,,,masks/mask_001.jpg,,,,,,,,,,,,,,,,,,,,,,,,,,,,,,,,,,,,,,,,,,,,,,,,0,0,0,0,1,,,,,,,,,,,,,,,,,,,,,,,,,,,,,,,,,,,,,,,,,
094199,001,2022-11-21_24h30.11.446,Info_measure_main_exp,2022.2.2,Win32,143.8021283,,,,,,,,,,,,,,,,,,masks/mask_003.jpg,,,,,,,,,,,,,,,,,,,,,,,,,,,,,,,,,,,,,,,,,,,,,,,,0,1,1,2,1,,,,,,,,,,,,,,,,,,,,,,,,,,,,,,,,,,,,,,,,,
094199,001,2022-11-21_24h30.11.446,Info_measure_main_exp,2022.2.2,Win32,143.8021283,,,,,,,,,,,,,,,,,,masks/mask_005.jpg,,,,,,,,,,,,,,,,,,,,,,,,,,,,,,,,,,,,,,,,,,,,,,,,0,2,2,4,1,,,,,,,,,,,,,,,,,,,,,,,,,,,,,,,,,,,,,,,,,
094199,001,2022-11-21_24h30.11.446,Info_measure_main_exp,2022.2.2,Win32,143.8021283,,,,,,,,,,,,,,,,,,masks/mask_002.jpg,,,,,,,,,,,,,,,,,,,,,,,,,,,,,,,,,,,,,,,,,,,,,,,,0,3,3,1,1,,,,,,,,,,,,,,,,,,,,,,,,,,,,,,,,,,,,,,,,,
094199,001,2022-11-21_24h30.11.446,Info_measure_main_exp,2022.2.2,Win32,143.8021283,,,,,,,,,,,,,,,,,,masks/mask_004.jpg,,,,,,,,,,,,,,,,,,,,,,,,,,,,,,,,,,,,,,,,,,,,,,,,0,4,4,3,1,,,,,,,,,,,,,,,,,,,,,,,,,,,,,,,,,,,,,,,,,
094199,001,2022-11-21_24h30.11.446,Info_measure_main_exp,2022.2.2,Win32,143.8021283,,,,,,,,,,,,,,,,,,,,,,,,,,,,,,0,0.388,1,,,,,,,,,,,,0,131,5,5,2250,2250,absent_patch/patch0002250.jpg,absent_patch/patch0002250.jpg,,,,,,,,,,,,,,,,,,,,-0.053703704,0.132407407,1,0,0,response7disk,22,0.001851852,0.001851852,1,0,0,center_square,0,21,21,56,1,,,,,,,,,,,,,,,,,,,,,,,
094199,001,2022-11-21_24h30.11.446,Info_measure_main_exp,2022.2.2,Win32,143.8021283,,,,,,,,,,,,,,,,,,masks/mask_003.jpg,,,,,,,,,,,,,,,,,,,,,,,,,,,,,,,,,,,,,,,,,,,0,0,0,2,1,,,,,,,,,,,,,,,,,,,,,,,,,,,,,,,,,,,,,,,,,,,,,,
094199,001,2022-11-21_24h30.11.446,Info_measure_main_exp,2022.2.2,Win32,143.8021283,,,,,,,,,,,,,,,,,,masks/mask_005.jpg,,,,,,,,,,,,,,,,,,,,,,,,,,,,,,,,,,,,,,,,,,,0,1,1,4,1,,,,,,,,,,,,,,,,,,,,,,,,,,,,,,,,,,,,,,,,,,,,,,
094199,001,2022-11-21_24h30.11.446,Info_measure_main_exp,2022.2.2,Win32,143.8021283,,,,,,,,,,,,,,,,,,masks/mask_002.jpg,,,,,,,,,,,,,,,,,,,,,,,,,,,,,,,,,,,,,,,,,,,0,2,2,1,1,,,,,,,,,,,,,,,,,,,,,,,,,,,,,,,,,,,,,,,,,,,,,,
094199,001,2022-11-21_24h30.11.446,Info_measure_main_exp,2022.2.2,Win32,143.8021283,,,,,,,,,,,,,,,,,,masks/mask_001.jpg,,,,,,,,,,,,,,,,,,,,,,,,,,,,,,,,,,,,,,,,,,,0,3,3,0,1,,,,,,,,,,,,,,,,,,,,,,,,,,,,,,,,,,,,,,,,,,,,,,
094199,001,2022-11-21_24h30.11.446,Info_measure_main_exp,2022.2.2,Win32,143.8021283,,,,,,,,,,,,,,,,,,masks/mask_004.jpg,,,,,,,,,,,,,,,,,,,,,,,,,,,,,,,,,,,,,,,,,,,0,4,4,3,1,,,,,,,,,,,,,,,,,,,,,,,,,,,,,,,,,,,,,,,,,,,,,,
094199,001,2022-11-21_24h30.11.446,Info_measure_main_exp,2022.2.2,Win32,143.8021283,,,,,,,,,,,,,,,,,,masks/mask_002.jpg,,,,,,,,,,,,,,,,,,,,,,,,,,,,,,,,,,,,,,,,,,,,,,,,0,0,0,1,1,,,,,,,,,,,,,,,,,,,,,,,,,,,,,,,,,,,,,,,,,
094199,001,2022-11-21_24h30.11.446,Info_measure_main_exp,2022.2.2,Win32,143.8021283,,,,,,,,,,,,,,,,,,masks/mask_001.jpg,,,,,,,,,,,,,,,,,,,,,,,,,,,,,,,,,,,,,,,,,,,,,,,,0,1,1,0,1,,,,,,,,,,,,,,,,,,,,,,,,,,,,,,,,,,,,,,,,,
094199,001,2022-11-21_24h30.11.446,Info_measure_main_exp,2022.2.2,Win32,143.8021283,,,,,,,,,,,,,,,,,,masks/mask_005.jpg,,,,,,,,,,,,,,,,,,,,,,,,,,,,,,,,,,,,,,,,,,,,,,,,0,2,2,4,1,,,,,,,,,,,,,,,,,,,,,,,,,,,,,,,,,,,,,,,,,
094199,001,2022-11-21_24h30.11.446,Info_measure_main_exp,2022.2.2,Win32,143.8021283,,,,,,,,,,,,,,,,,,masks/mask_004.jpg,,,,,,,,,,,,,,,,,,,,,,,,,,,,,,,,,,,,,,,,,,,,,,,,0,3,3,3,1,,,,,,,,,,,,,,,,,,,,,,,,,,,,,,,,,,,,,,,,,
094199,001,2022-11-21_24h30.11.446,Info_measure_main_exp,2022.2.2,Win32,143.8021283,,,,,,,,,,,,,,,,,,masks/mask_003.jpg,,,,,,,,,,,,,,,,,,,,,,,,,,,,,,,,,,,,,,,,,,,,,,,,0,4,4,2,1,,,,,,,,,,,,,,,,,,,,,,,,,,,,,,,,,,,,,,,,,
094199,001,2022-11-21_24h30.11.446,Info_measure_main_exp,2022.2.2,Win32,143.8021283,,,,,,,,,,,,,,,,,,,,,,,,,,,,,,6,2.705,1,,,,,,,,,,,,0,131,5,5,2178,1986,absent_patch/patch0002178.jpg,absent_patch/patch0001986.jpg,,,,,,,,,,,,,,,,,,,,0.117592593,0.063888889,1,0,0,response1disk,23,0.007407407,-0.00462963,1,0,0,center_square,0,22,22,46,1,,,,,,,,,,,,,,,,,,,,,,,
094199,001,2022-11-21_24h30.11.446,Info_measure_main_exp,2022.2.2,Win32,143.8021283,,,,,,,,,,,,,,,,,,masks/mask_004.jpg,,,,,,,,,,,,,,,,,,,,,,,,,,,,,,,,,,,,,,,,,,,0,0,0,3,1,,,,,,,,,,,,,,,,,,,,,,,,,,,,,,,,,,,,,,,,,,,,,,
094199,001,2022-11-21_24h30.11.446,Info_measure_main_exp,2022.2.2,Win32,143.8021283,,,,,,,,,,,,,,,,,,masks/mask_001.jpg,,,,,,,,,,,,,,,,,,,,,,,,,,,,,,,,,,,,,,,,,,,0,1,1,0,1,,,,,,,,,,,,,,,,,,,,,,,,,,,,,,,,,,,,,,,,,,,,,,
094199,001,2022-11-21_24h30.11.446,Info_measure_main_exp,2022.2.2,Win32,143.8021283,,,,,,,,,,,,,,,,,,masks/mask_002.jpg,,,,,,,,,,,,,,,,,,,,,,,,,,,,,,,,,,,,,,,,,,,0,2,2,1,1,,,,,,,,,,,,,,,,,,,,,,,,,,,,,,,,,,,,,,,,,,,,,,
094199,001,2022-11-21_24h30.11.446,Info_measure_main_exp,2022.2.2,Win32,143.8021283,,,,,,,,,,,,,,,,,,masks/mask_003.jpg,,,,,,,,,,,,,,,,,,,,,,,,,,,,,,,,,,,,,,,,,,,0,3,3,2,1,,,,,,,,,,,,,,,,,,,,,,,,,,,,,,,,,,,,,,,,,,,,,,
094199,001,2022-11-21_24h30.11.446,Info_measure_main_exp,2022.2.2,Win32,143.8021283,,,,,,,,,,,,,,,,,,masks/mask_005.jpg,,,,,,,,,,,,,,,,,,,,,,,,,,,,,,,,,,,,,,,,,,,0,4,4,4,1,,,,,,,,,,,,,,,,,,,,,,,,,,,,,,,,,,,,,,,,,,,,,,
094199,001,2022-11-21_24h30.11.446,Info_measure_main_exp,2022.2.2,Win32,143.8021283,,,,,,,,,,,,,,,,,,masks/mask_003.jpg,,,,,,,,,,,,,,,,,,,,,,,,,,,,,,,,,,,,,,,,,,,,,,,,0,0,0,2,1,,,,,,,,,,,,,,,,,,,,,,,,,,,,,,,,,,,,,,,,,
094199,001,2022-11-21_24h30.11.446,Info_measure_main_exp,2022.2.2,Win32,143.8021283,,,,,,,,,,,,,,,,,,masks/mask_004.jpg,,,,,,,,,,,,,,,,,,,,,,,,,,,,,,,,,,,,,,,,,,,,,,,,0,1,1,3,1,,,,,,,,,,,,,,,,,,,,,,,,,,,,,,,,,,,,,,,,,
094199,001,2022-11-21_24h30.11.446,Info_measure_main_exp,2022.2.2,Win32,143.8021283,,,,,,,,,,,,,,,,,,masks/mask_005.jpg,,,,,,,,,,,,,,,,,,,,,,,,,,,,,,,,,,,,,,,,,,,,,,,,0,2,2,4,1,,,,,,,,,,,,,,,,,,,,,,,,,,,,,,,,,,,,,,,,,
094199,001,2022-11-21_24h30.11.446,Info_measure_main_exp,2022.2.2,Win32,143.8021283,,,,,,,,,,,,,,,,,,masks/mask_001.jpg,,,,,,,,,,,,,,,,,,,,,,,,,,,,,,,,,,,,,,,,,,,,,,,,0,3,3,0,1,,,,,,,,,,,,,,,,,,,,,,,,,,,,,,,,,,,,,,,,,
094199,001,2022-11-21_24h30.11.446,Info_measure_main_exp,2022.2.2,Win32,143.8021283,,,,,,,,,,,,,,,,,,masks/mask_002.jpg,,,,,,,,,,,,,,,,,,,,,,,,,,,,,,,,,,,,,,,,,,,,,,,,0,4,4,1,1,,,,,,,,,,,,,,,,,,,,,,,,,,,,,,,,,,,,,,,,,
094199,001,2022-11-21_24h30.11.446,Info_measure_main_exp,2022.2.2,Win32,143.8021283,,,,,,,,,,,,,,,,,,,,,,,,,,,,,,5,1.5626,1,,,,,,,,,,,,0,131,5,5,2082,1986,absent_patch/patch0002082.jpg,absent_patch/patch0001986.jpg,,,,,,,,,,,,,,,,,,,,0.085185185,-0.051851852,1,0,0,response3disk,24,-0.001851852,-0.000925926,1,0,0,center_square,0,23,23,94,1,,,,,,,,,,,,,,,,,,,,,,,
094199,001,2022-11-21_24h30.11.446,Info_measure_main_exp,2022.2.2,Win32,143.8021283,,,,,,,,,,,,,,,,,,masks/mask_003.jpg,,,,,,,,,,,,,,,,,,,,,,,,,,,,,,,,,,,,,,,,,,,0,0,0,2,1,,,,,,,,,,,,,,,,,,,,,,,,,,,,,,,,,,,,,,,,,,,,,,
094199,001,2022-11-21_24h30.11.446,Info_measure_main_exp,2022.2.2,Win32,143.8021283,,,,,,,,,,,,,,,,,,masks/mask_001.jpg,,,,,,,,,,,,,,,,,,,,,,,,,,,,,,,,,,,,,,,,,,,0,1,1,0,1,,,,,,,,,,,,,,,,,,,,,,,,,,,,,,,,,,,,,,,,,,,,,,
094199,001,2022-11-21_24h30.11.446,Info_measure_main_exp,2022.2.2,Win32,143.8021283,,,,,,,,,,,,,,,,,,masks/mask_004.jpg,,,,,,,,,,,,,,,,,,,,,,,,,,,,,,,,,,,,,,,,,,,0,2,2,3,1,,,,,,,,,,,,,,,,,,,,,,,,,,,,,,,,,,,,,,,,,,,,,,
094199,001,2022-11-21_24h30.11.446,Info_measure_main_exp,2022.2.2,Win32,143.8021283,,,,,,,,,,,,,,,,,,masks/mask_005.jpg,,,,,,,,,,,,,,,,,,,,,,,,,,,,,,,,,,,,,,,,,,,0,3,3,4,1,,,,,,,,,,,,,,,,,,,,,,,,,,,,,,,,,,,,,,,,,,,,,,
094199,001,2022-11-21_24h30.11.446,Info_measure_main_exp,2022.2.2,Win32,143.8021283,,,,,,,,,,,,,,,,,,masks/mask_002.jpg,,,,,,,,,,,,,,,,,,,,,,,,,,,,,,,,,,,,,,,,,,,0,4,4,1,1,,,,,,,,,,,,,,,,,,,,,,,,,,,,,,,,,,,,,,,,,,,,,,
094199,001,2022-11-21_24h30.11.446,Info_measure_main_exp,2022.2.2,Win32,143.8021283,,,,,,,,,,,,,,,,,,masks/mask_005.jpg,,,,,,,,,,,,,,,,,,,,,,,,,,,,,,,,,,,,,,,,,,,,,,,,0,0,0,4,1,,,,,,,,,,,,,,,,,,,,,,,,,,,,,,,,,,,,,,,,,
094199,001,2022-11-21_24h30.11.446,Info_measure_main_exp,2022.2.2,Win32,143.8021283,,,,,,,,,,,,,,,,,,masks/mask_004.jpg,,,,,,,,,,,,,,,,,,,,,,,,,,,,,,,,,,,,,,,,,,,,,,,,0,1,1,3,1,,,,,,,,,,,,,,,,,,,,,,,,,,,,,,,,,,,,,,,,,
094199,001,2022-11-21_24h30.11.446,Info_measure_main_exp,2022.2.2,Win32,143.8021283,,,,,,,,,,,,,,,,,,masks/mask_003.jpg,,,,,,,,,,,,,,,,,,,,,,,,,,,,,,,,,,,,,,,,,,,,,,,,0,2,2,2,1,,,,,,,,,,,,,,,,,,,,,,,,,,,,,,,,,,,,,,,,,
094199,001,2022-11-21_24h30.11.446,Info_measure_main_exp,2022.2.2,Win32,143.8021283,,,,,,,,,,,,,,,,,,masks/mask_001.jpg,,,,,,,,,,,,,,,,,,,,,,,,,,,,,,,,,,,,,,,,,,,,,,,,0,3,3,0,1,,,,,,,,,,,,,,,,,,,,,,,,,,,,,,,,,,,,,,,,,
094199,001,2022-11-21_24h30.11.446,Info_measure_main_exp,2022.2.2,Win32,143.8021283,,,,,,,,,,,,,,,,,,masks/mask_002.jpg,,,,,,,,,,,,,,,,,,,,,,,,,,,,,,,,,,,,,,,,,,,,,,,,0,4,4,1,1,,,,,,,,,,,,,,,,,,,,,,,,,,,,,,,,,,,,,,,,,
094199,001,2022-11-21_24h30.11.446,Info_measure_main_exp,2022.2.2,Win32,143.8021283,,,,,,,,,,,,,,,,,,,,,,,,,,,,,,3,1.1043,1,,,,,,,,,,,,0,131,5,5,2190,1974,absent_patch/patch0002190.jpg,absent_patch/patch0001974.jpg,,,,,,,,,,,,,,,,,,,,-0.038888889,-0.128703704,1,0,0,response5disk,25,0,-0.000925926,1,0,0,center_square,0,24,24,119,1,,,,,,,,,,,,,,,,,,,,,,,
094199,001,2022-11-21_24h30.11.446,Info_measure_main_exp,2022.2.2,Win32,143.8021283,,,,,,,,,,,,,,,,,,masks/mask_001.jpg,,,,,,,,,,,,,,,,,,,,,,,,,,,,,,,,,,,,,,,,,,,0,0,0,0,1,,,,,,,,,,,,,,,,,,,,,,,,,,,,,,,,,,,,,,,,,,,,,,
094199,001,2022-11-21_24h30.11.446,Info_measure_main_exp,2022.2.2,Win32,143.8021283,,,,,,,,,,,,,,,,,,masks/mask_003.jpg,,,,,,,,,,,,,,,,,,,,,,,,,,,,,,,,,,,,,,,,,,,0,1,1,2,1,,,,,,,,,,,,,,,,,,,,,,,,,,,,,,,,,,,,,,,,,,,,,,
094199,001,2022-11-21_24h30.11.446,Info_measure_main_exp,2022.2.2,Win32,143.8021283,,,,,,,,,,,,,,,,,,masks/mask_005.jpg,,,,,,,,,,,,,,,,,,,,,,,,,,,,,,,,,,,,,,,,,,,0,2,2,4,1,,,,,,,,,,,,,,,,,,,,,,,,,,,,,,,,,,,,,,,,,,,,,,
094199,001,2022-11-21_24h30.11.446,Info_measure_main_exp,2022.2.2,Win32,143.8021283,,,,,,,,,,,,,,,,,,masks/mask_002.jpg,,,,,,,,,,,,,,,,,,,,,,,,,,,,,,,,,,,,,,,,,,,0,3,3,1,1,,,,,,,,,,,,,,,,,,,,,,,,,,,,,,,,,,,,,,,,,,,,,,
094199,001,2022-11-21_24h30.11.446,Info_measure_main_exp,2022.2.2,Win32,143.8021283,,,,,,,,,,,,,,,,,,masks/mask_004.jpg,,,,,,,,,,,,,,,,,,,,,,,,,,,,,,,,,,,,,,,,,,,0,4,4,3,1,,,,,,,,,,,,,,,,,,,,,,,,,,,,,,,,,,,,,,,,,,,,,,
094199,001,2022-11-21_24h30.11.446,Info_measure_main_exp,2022.2.2,Win32,143.8021283,,,,,,,,,,,,,,,,,,masks/mask_005.jpg,,,,,,,,,,,,,,,,,,,,,,,,,,,,,,,,,,,,,,,,,,,,,,,,0,0,0,4,1,,,,,,,,,,,,,,,,,,,,,,,,,,,,,,,,,,,,,,,,,
094199,001,2022-11-21_24h30.11.446,Info_measure_main_exp,2022.2.2,Win32,143.8021283,,,,,,,,,,,,,,,,,,masks/mask_004.jpg,,,,,,,,,,,,,,,,,,,,,,,,,,,,,,,,,,,,,,,,,,,,,,,,0,1,1,3,1,,,,,,,,,,,,,,,,,,,,,,,,,,,,,,,,,,,,,,,,,
094199,001,2022-11-21_24h30.11.446,Info_measure_main_exp,2022.2.2,Win32,143.8021283,,,,,,,,,,,,,,,,,,masks/mask_003.jpg,,,,,,,,,,,,,,,,,,,,,,,,,,,,,,,,,,,,,,,,,,,,,,,,0,2,2,2,1,,,,,,,,,,,,,,,,,,,,,,,,,,,,,,,,,,,,,,,,,
094199,001,2022-11-21_24h30.11.446,Info_measure_main_exp,2022.2.2,Win32,143.8021283,,,,,,,,,,,,,,,,,,masks/mask_001.jpg,,,,,,,,,,,,,,,,,,,,,,,,,,,,,,,,,,,,,,,,,,,,,,,,0,3,3,0,1,,,,,,,,,,,,,,,,,,,,,,,,,,,,,,,,,,,,,,,,,
094199,001,2022-11-21_24h30.11.446,Info_measure_main_exp,2022.2.2,Win32,143.8021283,,,,,,,,,,,,,,,,,,masks/mask_002.jpg,,,,,,,,,,,,,,,,,,,,,,,,,,,,,,,,,,,,,,,,,,,,,,,,0,4,4,1,1,,,,,,,,,,,,,,,,,,,,,,,,,,,,,,,,,,,,,,,,,
094199,001,2022-11-21_24h30.11.446,Info_measure_main_exp,2022.2.2,Win32,143.8021283,,,,,,,,,,,,,,,,,,,,,,,,,,,,,,0,0.3326,1,,,,,,,,,,,,0,131,5,5,2082,2082,absent_patch/patch0002082.jpg,absent_patch/patch0002082.jpg,,,,,,,,,,,,,,,,,,,,-0.075,0.138888889,1,0,0,response7disk,26,0.010185185,-0.002777778,1,0,0,center_square,0,25,25,74,1,,,,,,,,,,,,,,,,,,,,,,,
094199,001,2022-11-21_24h30.11.446,Info_measure_main_exp,2022.2.2,Win32,143.8021283,,,,,,,,,,,,,,,,,,masks/mask_005.jpg,,,,,,,,,,,,,,,,,,,,,,,,,,,,,,,,,,,,,,,,,,,0,0,0,4,1,,,,,,,,,,,,,,,,,,,,,,,,,,,,,,,,,,,,,,,,,,,,,,
094199,001,2022-11-21_24h30.11.446,Info_measure_main_exp,2022.2.2,Win32,143.8021283,,,,,,,,,,,,,,,,,,masks/mask_002.jpg,,,,,,,,,,,,,,,,,,,,,,,,,,,,,,,,,,,,,,,,,,,0,1,1,1,1,,,,,,,,,,,,,,,,,,,,,,,,,,,,,,,,,,,,,,,,,,,,,,
094199,001,2022-11-21_24h30.11.446,Info_measure_main_exp,2022.2.2,Win32,143.8021283,,,,,,,,,,,,,,,,,,masks/mask_003.jpg,,,,,,,,,,,,,,,,,,,,,,,,,,,,,,,,,,,,,,,,,,,0,2,2,2,1,,,,,,,,,,,,,,,,,,,,,,,,,,,,,,,,,,,,,,,,,,,,,,
094199,001,2022-11-21_24h30.11.446,Info_measure_main_exp,2022.2.2,Win32,143.8021283,,,,,,,,,,,,,,,,,,masks/mask_001.jpg,,,,,,,,,,,,,,,,,,,,,,,,,,,,,,,,,,,,,,,,,,,0,3,3,0,1,,,,,,,,,,,,,,,,,,,,,,,,,,,,,,,,,,,,,,,,,,,,,,
094199,001,2022-11-21_24h30.11.446,Info_measure_main_exp,2022.2.2,Win32,143.8021283,,,,,,,,,,,,,,,,,,masks/mask_004.jpg,,,,,,,,,,,,,,,,,,,,,,,,,,,,,,,,,,,,,,,,,,,0,4,4,3,1,,,,,,,,,,,,,,,,,,,,,,,,,,,,,,,,,,,,,,,,,,,,,,
094199,001,2022-11-21_24h30.11.446,Info_measure_main_exp,2022.2.2,Win32,143.8021283,,,,,,,,,,,,,,,,,,masks/mask_001.jpg,,,,,,,,,,,,,,,,,,,,,,,,,,,,,,,,,,,,,,,,,,,,,,,,0,0,0,0,1,,,,,,,,,,,,,,,,,,,,,,,,,,,,,,,,,,,,,,,,,
094199,001,2022-11-21_24h30.11.446,Info_measure_main_exp,2022.2.2,Win32,143.8021283,,,,,,,,,,,,,,,,,,masks/mask_004.jpg,,,,,,,,,,,,,,,,,,,,,,,,,,,,,,,,,,,,,,,,,,,,,,,,0,1,1,3,1,,,,,,,,,,,,,,,,,,,,,,,,,,,,,,,,,,,,,,,,,
094199,001,2022-11-21_24h30.11.446,Info_measure_main_exp,2022.2.2,Win32,143.8021283,,,,,,,,,,,,,,,,,,masks/mask_005.jpg,,,,,,,,,,,,,,,,,,,,,,,,,,,,,,,,,,,,,,,,,,,,,,,,0,2,2,4,1,,,,,,,,,,,,,,,,,,,,,,,,,,,,,,,,,,,,,,,,,
094199,001,2022-11-21_24h30.11.446,Info_measure_main_exp,2022.2.2,Win32,143.8021283,,,,,,,,,,,,,,,,,,masks/mask_002.jpg,,,,,,,,,,,,,,,,,,,,,,,,,,,,,,,,,,,,,,,,,,,,,,,,0,3,3,1,1,,,,,,,,,,,,,,,,,,,,,,,,,,,,,,,,,,,,,,,,,
094199,001,2022-11-21_24h30.11.446,Info_measure_main_exp,2022.2.2,Win32,143.8021283,,,,,,,,,,,,,,,,,,masks/mask_003.jpg,,,,,,,,,,,,,,,,,,,,,,,,,,,,,,,,,,,,,,,,,,,,,,,,0,4,4,2,1,,,,,,,,,,,,,,,,,,,,,,,,,,,,,,,,,,,,,,,,,
094199,001,2022-11-21_24h30.11.446,Info_measure_main_exp,2022.2.2,Win32,143.8021283,,,,,,,,,,,,,,,,,,,,,,,,,,,,,,0,1.104,1,,,,,,,,,,,,0,131,5,5,2214,2214,absent_patch/patch0002214.jpg,absent_patch/patch0002214.jpg,,,,,,,,,,,,,,,,,,,,-0.061111111,0.131481481,1,0,0,response7disk,27,-0.003703704,0.000925926,1,0,0,center_square,0,26,26,115,1,,,,,,,,,,,,,,,,,,,,,,,
094199,001,2022-11-21_24h30.11.446,Info_measure_main_exp,2022.2.2,Win32,143.8021283,,,,,,,,,,,,,,,,,,masks/mask_002.jpg,,,,,,,,,,,,,,,,,,,,,,,,,,,,,,,,,,,,,,,,,,,0,0,0,1,1,,,,,,,,,,,,,,,,,,,,,,,,,,,,,,,,,,,,,,,,,,,,,,
094199,001,2022-11-21_24h30.11.446,Info_measure_main_exp,2022.2.2,Win32,143.8021283,,,,,,,,,,,,,,,,,,masks/mask_003.jpg,,,,,,,,,,,,,,,,,,,,,,,,,,,,,,,,,,,,,,,,,,,0,1,1,2,1,,,,,,,,,,,,,,,,,,,,,,,,,,,,,,,,,,,,,,,,,,,,,,
094199,001,2022-11-21_24h30.11.446,Info_measure_main_exp,2022.2.2,Win32,143.8021283,,,,,,,,,,,,,,,,,,masks/mask_004.jpg,,,,,,,,,,,,,,,,,,,,,,,,,,,,,,,,,,,,,,,,,,,0,2,2,3,1,,,,,,,,,,,,,,,,,,,,,,,,,,,,,,,,,,,,,,,,,,,,,,
094199,001,2022-11-21_24h30.11.446,Info_measure_main_exp,2022.2.2,Win32,143.8021283,,,,,,,,,,,,,,,,,,masks/mask_001.jpg,,,,,,,,,,,,,,,,,,,,,,,,,,,,,,,,,,,,,,,,,,,0,3,3,0,1,,,,,,,,,,,,,,,,,,,,,,,,,,,,,,,,,,,,,,,,,,,,,,
094199,001,2022-11-21_24h30.11.446,Info_measure_main_exp,2022.2.2,Win32,143.8021283,,,,,,,,,,,,,,,,,,masks/mask_005.jpg,,,,,,,,,,,,,,,,,,,,,,,,,,,,,,,,,,,,,,,,,,,0,4,4,4,1,,,,,,,,,,,,,,,,,,,,,,,,,,,,,,,,,,,,,,,,,,,,,,
094199,001,2022-11-21_24h30.11.446,Info_measure_main_exp,2022.2.2,Win32,143.8021283,,,,,,,,,,,,,,,,,,masks/mask_001.jpg,,,,,,,,,,,,,,,,,,,,,,,,,,,,,,,,,,,,,,,,,,,,,,,,0,0,0,0,1,,,,,,,,,,,,,,,,,,,,,,,,,,,,,,,,,,,,,,,,,
094199,001,2022-11-21_24h30.11.446,Info_measure_main_exp,2022.2.2,Win32,143.8021283,,,,,,,,,,,,,,,,,,masks/mask_002.jpg,,,,,,,,,,,,,,,,,,,,,,,,,,,,,,,,,,,,,,,,,,,,,,,,0,1,1,1,1,,,,,,,,,,,,,,,,,,,,,,,,,,,,,,,,,,,,,,,,,
094199,001,2022-11-21_24h30.11.446,Info_measure_main_exp,2022.2.2,Win32,143.8021283,,,,,,,,,,,,,,,,,,masks/mask_003.jpg,,,,,,,,,,,,,,,,,,,,,,,,,,,,,,,,,,,,,,,,,,,,,,,,0,2,2,2,1,,,,,,,,,,,,,,,,,,,,,,,,,,,,,,,,,,,,,,,,,
094199,001,2022-11-21_24h30.11.446,Info_measure_main_exp,2022.2.2,Win32,143.8021283,,,,,,,,,,,,,,,,,,masks/mask_004.jpg,,,,,,,,,,,,,,,,,,,,,,,,,,,,,,,,,,,,,,,,,,,,,,,,0,3,3,3,1,,,,,,,,,,,,,,,,,,,,,,,,,,,,,,,,,,,,,,,,,
094199,001,2022-11-21_24h30.11.446,Info_measure_main_exp,2022.2.2,Win32,143.8021283,,,,,,,,,,,,,,,,,,masks/mask_005.jpg,,,,,,,,,,,,,,,,,,,,,,,,,,,,,,,,,,,,,,,,,,,,,,,,0,4,4,4,1,,,,,,,,,,,,,,,,,,,,,,,,,,,,,,,,,,,,,,,,,
094199,001,2022-11-21_24h30.11.446,Info_measure_main_exp,2022.2.2,Win32,143.8021283,,,,,,,,,,,,,,,,,,,,,,,,,,,,,,2,2.0961,1,,,,,,,,,,,,0,131,5,5,2274,2238,absent_patch/patch0002274.jpg,absent_patch/patch0002238.jpg,,,,,,,,,,,,,,,,,,,,-0.142592593,-0.05,1,0,0,response5disk,28,-0.008333333,-0.002777778,1,0,0,center_square,0,27,27,91,1,,,,,,,,,,,,,,,,,,,,,,,
094199,001,2022-11-21_24h30.11.446,Info_measure_main_exp,2022.2.2,Win32,143.8021283,,,,,,,,,,,,,,,,,,masks/mask_005.jpg,,,,,,,,,,,,,,,,,,,,,,,,,,,,,,,,,,,,,,,,,,,0,0,0,4,1,,,,,,,,,,,,,,,,,,,,,,,,,,,,,,,,,,,,,,,,,,,,,,
094199,001,2022-11-21_24h30.11.446,Info_measure_main_exp,2022.2.2,Win32,143.8021283,,,,,,,,,,,,,,,,,,masks/mask_004.jpg,,,,,,,,,,,,,,,,,,,,,,,,,,,,,,,,,,,,,,,,,,,0,1,1,3,1,,,,,,,,,,,,,,,,,,,,,,,,,,,,,,,,,,,,,,,,,,,,,,
094199,001,2022-11-21_24h30.11.446,Info_measure_main_exp,2022.2.2,Win32,143.8021283,,,,,,,,,,,,,,,,,,masks/mask_001.jpg,,,,,,,,,,,,,,,,,,,,,,,,,,,,,,,,,,,,,,,,,,,0,2,2,0,1,,,,,,,,,,,,,,,,,,,,,,,,,,,,,,,,,,,,,,,,,,,,,,
094199,001,2022-11-21_24h30.11.446,Info_measure_main_exp,2022.2.2,Win32,143.8021283,,,,,,,,,,,,,,,,,,masks/mask_002.jpg,,,,,,,,,,,,,,,,,,,,,,,,,,,,,,,,,,,,,,,,,,,0,3,3,1,1,,,,,,,,,,,,,,,,,,,,,,,,,,,,,,,,,,,,,,,,,,,,,,
094199,001,2022-11-21_24h30.11.446,Info_measure_main_exp,2022.2.2,Win32,143.8021283,,,,,,,,,,,,,,,,,,masks/mask_003.jpg,,,,,,,,,,,,,,,,,,,,,,,,,,,,,,,,,,,,,,,,,,,0,4,4,2,1,,,,,,,,,,,,,,,,,,,,,,,,,,,,,,,,,,,,,,,,,,,,,,
094199,001,2022-11-21_24h30.11.446,Info_measure_main_exp,2022.2.2,Win32,143.8021283,,,,,,,,,,,,,,,,,,masks/mask_005.jpg,,,,,,,,,,,,,,,,,,,,,,,,,,,,,,,,,,,,,,,,,,,,,,,,0,0,0,4,1,,,,,,,,,,,,,,,,,,,,,,,,,,,,,,,,,,,,,,,,,
094199,001,2022-11-21_24h30.11.446,Info_measure_main_exp,2022.2.2,Win32,143.8021283,,,,,,,,,,,,,,,,,,masks/mask_002.jpg,,,,,,,,,,,,,,,,,,,,,,,,,,,,,,,,,,,,,,,,,,,,,,,,0,1,1,1,1,,,,,,,,,,,,,,,,,,,,,,,,,,,,,,,,,,,,,,,,,
094199,001,2022-11-21_24h30.11.446,Info_measure_main_exp,2022.2.2,Win32,143.8021283,,,,,,,,,,,,,,,,,,masks/mask_003.jpg,,,,,,,,,,,,,,,,,,,,,,,,,,,,,,,,,,,,,,,,,,,,,,,,0,2,2,2,1,,,,,,,,,,,,,,,,,,,,,,,,,,,,,,,,,,,,,,,,,
094199,001,2022-11-21_24h30.11.446,Info_measure_main_exp,2022.2.2,Win32,143.8021283,,,,,,,,,,,,,,,,,,masks/mask_001.jpg,,,,,,,,,,,,,,,,,,,,,,,,,,,,,,,,,,,,,,,,,,,,,,,,0,3,3,0,1,,,,,,,,,,,,,,,,,,,,,,,,,,,,,,,,,,,,,,,,,
094199,001,2022-11-21_24h30.11.446,Info_measure_main_exp,2022.2.2,Win32,143.8021283,,,,,,,,,,,,,,,,,,masks/mask_004.jpg,,,,,,,,,,,,,,,,,,,,,,,,,,,,,,,,,,,,,,,,,,,,,,,,0,4,4,3,1,,,,,,,,,,,,,,,,,,,,,,,,,,,,,,,,,,,,,,,,,
094199,001,2022-11-21_24h30.11.446,Info_measure_main_exp,2022.2.2,Win32,143.8021283,,,,,,,,,,,,,,,,,,,,,,,,,,,,,,3,0.8677,1,,,,,,,,,,,,0,131,5,5,2274,2250,absent_patch/patch0002274.jpg,absent_patch/patch0002250.jpg,,,,,,,,,,,,,,,,,,,,-0.040740741,-0.122222222,1,0,0,response5disk,29,0.003703704,-0.00462963,1,0,0,center_square,0,28,28,28,1,,,,,,,,,,,,,,,,,,,,,,,
094199,001,2022-11-21_24h30.11.446,Info_measure_main_exp,2022.2.2,Win32,143.8021283,,,,,,,,,,,,,,,,,,masks/mask_005.jpg,,,,,,,,,,,,,,,,,,,,,,,,,,,,,,,,,,,,,,,,,,,0,0,0,4,1,,,,,,,,,,,,,,,,,,,,,,,,,,,,,,,,,,,,,,,,,,,,,,
094199,001,2022-11-21_24h30.11.446,Info_measure_main_exp,2022.2.2,Win32,143.8021283,,,,,,,,,,,,,,,,,,masks/mask_003.jpg,,,,,,,,,,,,,,,,,,,,,,,,,,,,,,,,,,,,,,,,,,,0,1,1,2,1,,,,,,,,,,,,,,,,,,,,,,,,,,,,,,,,,,,,,,,,,,,,,,
094199,001,2022-11-21_24h30.11.446,Info_measure_main_exp,2022.2.2,Win32,143.8021283,,,,,,,,,,,,,,,,,,masks/mask_004.jpg,,,,,,,,,,,,,,,,,,,,,,,,,,,,,,,,,,,,,,,,,,,0,2,2,3,1,,,,,,,,,,,,,,,,,,,,,,,,,,,,,,,,,,,,,,,,,,,,,,
094199,001,2022-11-21_24h30.11.446,Info_measure_main_exp,2022.2.2,Win32,143.8021283,,,,,,,,,,,,,,,,,,masks/mask_002.jpg,,,,,,,,,,,,,,,,,,,,,,,,,,,,,,,,,,,,,,,,,,,0,3,3,1,1,,,,,,,,,,,,,,,,,,,,,,,,,,,,,,,,,,,,,,,,,,,,,,
094199,001,2022-11-21_24h30.11.446,Info_measure_main_exp,2022.2.2,Win32,143.8021283,,,,,,,,,,,,,,,,,,masks/mask_001.jpg,,,,,,,,,,,,,,,,,,,,,,,,,,,,,,,,,,,,,,,,,,,0,4,4,0,1,,,,,,,,,,,,,,,,,,,,,,,,,,,,,,,,,,,,,,,,,,,,,,
094199,001,2022-11-21_24h30.11.446,Info_measure_main_exp,2022.2.2,Win32,143.8021283,,,,,,,,,,,,,,,,,,masks/mask_003.jpg,,,,,,,,,,,,,,,,,,,,,,,,,,,,,,,,,,,,,,,,,,,,,,,,0,0,0,2,1,,,,,,,,,,,,,,,,,,,,,,,,,,,,,,,,,,,,,,,,,
094199,001,2022-11-21_24h30.11.446,Info_measure_main_exp,2022.2.2,Win32,143.8021283,,,,,,,,,,,,,,,,,,masks/mask_002.jpg,,,,,,,,,,,,,,,,,,,,,,,,,,,,,,,,,,,,,,,,,,,,,,,,0,1,1,1,1,,,,,,,,,,,,,,,,,,,,,,,,,,,,,,,,,,,,,,,,,
094199,001,2022-11-21_24h30.11.446,Info_measure_main_exp,2022.2.2,Win32,143.8021283,,,,,,,,,,,,,,,,,,masks/mask_005.jpg,,,,,,,,,,,,,,,,,,,,,,,,,,,,,,,,,,,,,,,,,,,,,,,,0,2,2,4,1,,,,,,,,,,,,,,,,,,,,,,,,,,,,,,,,,,,,,,,,,
094199,001,2022-11-21_24h30.11.446,Info_measure_main_exp,2022.2.2,Win32,143.8021283,,,,,,,,,,,,,,,,,,masks/mask_004.jpg,,,,,,,,,,,,,,,,,,,,,,,,,,,,,,,,,,,,,,,,,,,,,,,,0,3,3,3,1,,,,,,,,,,,,,,,,,,,,,,,,,,,,,,,,,,,,,,,,,
094199,001,2022-11-21_24h30.11.446,Info_measure_main_exp,2022.2.2,Win32,143.8021283,,,,,,,,,,,,,,,,,,masks/mask_001.jpg,,,,,,,,,,,,,,,,,,,,,,,,,,,,,,,,,,,,,,,,,,,,,,,,0,4,4,0,1,,,,,,,,,,,,,,,,,,,,,,,,,,,,,,,,,,,,,,,,,
094199,001,2022-11-21_24h30.11.446,Info_measure_main_exp,2022.2.2,Win32,143.8021283,,,,,,,,,,,,,,,,,,,,,,,,,,,,,,6,2.0625,1,,,,,,,,,,,,0,131,5,5,1950,2142,absent_patch/patch0001950.jpg,absent_patch/patch0002142.jpg,,,,,,,,,,,,,,,,,,,,0.108333333,0.038888889,1,0,0,response1disk,30,-0.001851852,0.002777778,1,0,0,center_square,0,29,29,83,1,,,,,,,,,,,,,,,,,,,,,,,
094199,001,2022-11-21_24h30.11.446,Info_measure_main_exp,2022.2.2,Win32,143.8021283,,,,,,,,,,,,,,,,,,masks/mask_002.jpg,,,,,,,,,,,,,,,,,,,,,,,,,,,,,,,,,,,,,,,,,,,0,0,0,1,1,,,,,,,,,,,,,,,,,,,,,,,,,,,,,,,,,,,,,,,,,,,,,,
094199,001,2022-11-21_24h30.11.446,Info_measure_main_exp,2022.2.2,Win32,143.8021283,,,,,,,,,,,,,,,,,,masks/mask_001.jpg,,,,,,,,,,,,,,,,,,,,,,,,,,,,,,,,,,,,,,,,,,,0,1,1,0,1,,,,,,,,,,,,,,,,,,,,,,,,,,,,,,,,,,,,,,,,,,,,,,
094199,001,2022-11-21_24h30.11.446,Info_measure_main_exp,2022.2.2,Win32,143.8021283,,,,,,,,,,,,,,,,,,masks/mask_003.jpg,,,,,,,,,,,,,,,,,,,,,,,,,,,,,,,,,,,,,,,,,,,0,2,2,2,1,,,,,,,,,,,,,,,,,,,,,,,,,,,,,,,,,,,,,,,,,,,,,,
094199,001,2022-11-21_24h30.11.446,Info_measure_main_exp,2022.2.2,Win32,143.8021283,,,,,,,,,,,,,,,,,,masks/mask_005.jpg,,,,,,,,,,,,,,,,,,,,,,,,,,,,,,,,,,,,,,,,,,,0,3,3,4,1,,,,,,,,,,,,,,,,,,,,,,,,,,,,,,,,,,,,,,,,,,,,,,
094199,001,2022-11-21_24h30.11.446,Info_measure_main_exp,2022.2.2,Win32,143.8021283,,,,,,,,,,,,,,,,,,masks/mask_004.jpg,,,,,,,,,,,,,,,,,,,,,,,,,,,,,,,,,,,,,,,,,,,0,4,4,3,1,,,,,,,,,,,,,,,,,,,,,,,,,,,,,,,,,,,,,,,,,,,,,,
094199,001,2022-11-21_24h30.11.446,Info_measure_main_exp,2022.2.2,Win32,143.8021283,,,,,,,,,,,,,,,,,,masks/mask_005.jpg,,,,,,,,,,,,,,,,,,,,,,,,,,,,,,,,,,,,,,,,,,,,,,,,0,0,0,4,1,,,,,,,,,,,,,,,,,,,,,,,,,,,,,,,,,,,,,,,,,
094199,001,2022-11-21_24h30.11.446,Info_measure_main_exp,2022.2.2,Win32,143.8021283,,,,,,,,,,,,,,,,,,masks/mask_003.jpg,,,,,,,,,,,,,,,,,,,,,,,,,,,,,,,,,,,,,,,,,,,,,,,,0,1,1,2,1,,,,,,,,,,,,,,,,,,,,,,,,,,,,,,,,,,,,,,,,,
094199,001,2022-11-21_24h30.11.446,Info_measure_main_exp,2022.2.2,Win32,143.8021283,,,,,,,,,,,,,,,,,,masks/mask_002.jpg,,,,,,,,,,,,,,,,,,,,,,,,,,,,,,,,,,,,,,,,,,,,,,,,0,2,2,1,1,,,,,,,,,,,,,,,,,,,,,,,,,,,,,,,,,,,,,,,,,
094199,001,2022-11-21_24h30.11.446,Info_measure_main_exp,2022.2.2,Win32,143.8021283,,,,,,,,,,,,,,,,,,masks/mask_001.jpg,,,,,,,,,,,,,,,,,,,,,,,,,,,,,,,,,,,,,,,,,,,,,,,,0,3,3,0,1,,,,,,,,,,,,,,,,,,,,,,,,,,,,,,,,,,,,,,,,,
094199,001,2022-11-21_24h30.11.446,Info_measure_main_exp,2022.2.2,Win32,143.8021283,,,,,,,,,,,,,,,,,,masks/mask_004.jpg,,,,,,,,,,,,,,,,,,,,,,,,,,,,,,,,,,,,,,,,,,,,,,,,0,4,4,3,1,,,,,,,,,,,,,,,,,,,,,,,,,,,,,,,,,,,,,,,,,
094199,001,2022-11-21_24h30.11.446,Info_measure_main_exp,2022.2.2,Win32,143.8021283,,,,,,,,,,,,,,,,,,,,,,,,,,,,,,0,0.5552,1,,,,,,,,,,,,0,131,5,5,2190,2190,absent_patch/patch0002190.jpg,absent_patch/patch0002190.jpg,,,,,,,,,,,,,,,,,,,,-0.073148148,0.147222222,1,0,0,response7disk,31,-0.001851852,0.001851852,1,0,0,center_square,0,30,30,86,1,,,,,,,,,,,,,,,,,,,,,,,
094199,001,2022-11-21_24h30.11.446,Info_measure_main_exp,2022.2.2,Win32,143.8021283,,,,,,,,,,,,,,,,,,masks/mask_005.jpg,,,,,,,,,,,,,,,,,,,,,,,,,,,,,,,,,,,,,,,,,,,0,0,0,4,1,,,,,,,,,,,,,,,,,,,,,,,,,,,,,,,,,,,,,,,,,,,,,,
094199,001,2022-11-21_24h30.11.446,Info_measure_main_exp,2022.2.2,Win32,143.8021283,,,,,,,,,,,,,,,,,,masks/mask_003.jpg,,,,,,,,,,,,,,,,,,,,,,,,,,,,,,,,,,,,,,,,,,,0,1,1,2,1,,,,,,,,,,,,,,,,,,,,,,,,,,,,,,,,,,,,,,,,,,,,,,
094199,001,2022-11-21_24h30.11.446,Info_measure_main_exp,2022.2.2,Win32,143.8021283,,,,,,,,,,,,,,,,,,masks/mask_002.jpg,,,,,,,,,,,,,,,,,,,,,,,,,,,,,,,,,,,,,,,,,,,0,2,2,1,1,,,,,,,,,,,,,,,,,,,,,,,,,,,,,,,,,,,,,,,,,,,,,,
094199,001,2022-11-21_24h30.11.446,Info_measure_main_exp,2022.2.2,Win32,143.8021283,,,,,,,,,,,,,,,,,,masks/mask_001.jpg,,,,,,,,,,,,,,,,,,,,,,,,,,,,,,,,,,,,,,,,,,,0,3,3,0,1,,,,,,,,,,,,,,,,,,,,,,,,,,,,,,,,,,,,,,,,,,,,,,
094199,001,2022-11-21_24h30.11.446,Info_measure_main_exp,2022.2.2,Win32,143.8021283,,,,,,,,,,,,,,,,,,masks/mask_004.jpg,,,,,,,,,,,,,,,,,,,,,,,,,,,,,,,,,,,,,,,,,,,0,4,4,3,1,,,,,,,,,,,,,,,,,,,,,,,,,,,,,,,,,,,,,,,,,,,,,,
094199,001,2022-11-21_24h30.11.446,Info_measure_main_exp,2022.2.2,Win32,143.8021283,,,,,,,,,,,,,,,,,,masks/mask_001.jpg,,,,,,,,,,,,,,,,,,,,,,,,,,,,,,,,,,,,,,,,,,,,,,,,0,0,0,0,1,,,,,,,,,,,,,,,,,,,,,,,,,,,,,,,,,,,,,,,,,
094199,001,2022-11-21_24h30.11.446,Info_measure_main_exp,2022.2.2,Win32,143.8021283,,,,,,,,,,,,,,,,,,masks/mask_002.jpg,,,,,,,,,,,,,,,,,,,,,,,,,,,,,,,,,,,,,,,,,,,,,,,,0,1,1,1,1,,,,,,,,,,,,,,,,,,,,,,,,,,,,,,,,,,,,,,,,,
094199,001,2022-11-21_24h30.11.446,Info_measure_main_exp,2022.2.2,Win32,143.8021283,,,,,,,,,,,,,,,,,,masks/mask_004.jpg,,,,,,,,,,,,,,,,,,,,,,,,,,,,,,,,,,,,,,,,,,,,,,,,0,2,2,3,1,,,,,,,,,,,,,,,,,,,,,,,,,,,,,,,,,,,,,,,,,
094199,001,2022-11-21_24h30.11.446,Info_measure_main_exp,2022.2.2,Win32,143.8021283,,,,,,,,,,,,,,,,,,masks/mask_005.jpg,,,,,,,,,,,,,,,,,,,,,,,,,,,,,,,,,,,,,,,,,,,,,,,,0,3,3,4,1,,,,,,,,,,,,,,,,,,,,,,,,,,,,,,,,,,,,,,,,,
094199,001,2022-11-21_24h30.11.446,Info_measure_main_exp,2022.2.2,Win32,143.8021283,,,,,,,,,,,,,,,,,,masks/mask_003.jpg,,,,,,,,,,,,,,,,,,,,,,,,,,,,,,,,,,,,,,,,,,,,,,,,0,4,4,2,1,,,,,,,,,,,,,,,,,,,,,,,,,,,,,,,,,,,,,,,,,
094199,001,2022-11-21_24h30.11.446,Info_measure_main_exp,2022.2.2,Win32,143.8021283,,,,,,,,,,,,,,,,,,,,,,,,,,,,,,0,0.3835,1,,,,,,,,,,,,0,131,5,5,2142,2142,absent_patch/patch0002142.jpg,absent_patch/patch0002142.jpg,,,,,,,,,,,,,,,,,,,,-0.067592593,0.171296296,1,0,0,response7disk,32,-0.000925926,0.008333333,1,0,0,center_square,0,31,31,13,1,,,,,,,,,,,,,,,,,,,,,,,
094199,001,2022-11-21_24h30.11.446,Info_measure_main_exp,2022.2.2,Win32,143.8021283,,,,,,,,,,,,,,,,,,masks/mask_001.jpg,,,,,,,,,,,,,,,,,,,,,,,,,,,,,,,,,,,,,,,,,,,0,0,0,0,1,,,,,,,,,,,,,,,,,,,,,,,,,,,,,,,,,,,,,,,,,,,,,,
094199,001,2022-11-21_24h30.11.446,Info_measure_main_exp,2022.2.2,Win32,143.8021283,,,,,,,,,,,,,,,,,,masks/mask_005.jpg,,,,,,,,,,,,,,,,,,,,,,,,,,,,,,,,,,,,,,,,,,,0,1,1,4,1,,,,,,,,,,,,,,,,,,,,,,,,,,,,,,,,,,,,,,,,,,,,,,
094199,001,2022-11-21_24h30.11.446,Info_measure_main_exp,2022.2.2,Win32,143.8021283,,,,,,,,,,,,,,,,,,masks/mask_002.jpg,,,,,,,,,,,,,,,,,,,,,,,,,,,,,,,,,,,,,,,,,,,0,2,2,1,1,,,,,,,,,,,,,,,,,,,,,,,,,,,,,,,,,,,,,,,,,,,,,,
094199,001,2022-11-21_24h30.11.446,Info_measure_main_exp,2022.2.2,Win32,143.8021283,,,,,,,,,,,,,,,,,,masks/mask_004.jpg,,,,,,,,,,,,,,,,,,,,,,,,,,,,,,,,,,,,,,,,,,,0,3,3,3,1,,,,,,,,,,,,,,,,,,,,,,,,,,,,,,,,,,,,,,,,,,,,,,
094199,001,2022-11-21_24h30.11.446,Info_measure_main_exp,2022.2.2,Win32,143.8021283,,,,,,,,,,,,,,,,,,masks/mask_003.jpg,,,,,,,,,,,,,,,,,,,,,,,,,,,,,,,,,,,,,,,,,,,0,4,4,2,1,,,,,,,,,,,,,,,,,,,,,,,,,,,,,,,,,,,,,,,,,,,,,,
094199,001,2022-11-21_24h30.11.446,Info_measure_main_exp,2022.2.2,Win32,143.8021283,,,,,,,,,,,,,,,,,,masks/mask_002.jpg,,,,,,,,,,,,,,,,,,,,,,,,,,,,,,,,,,,,,,,,,,,,,,,,0,0,0,1,1,,,,,,,,,,,,,,,,,,,,,,,,,,,,,,,,,,,,,,,,,
094199,001,2022-11-21_24h30.11.446,Info_measure_main_exp,2022.2.2,Win32,143.8021283,,,,,,,,,,,,,,,,,,masks/mask_004.jpg,,,,,,,,,,,,,,,,,,,,,,,,,,,,,,,,,,,,,,,,,,,,,,,,0,1,1,3,1,,,,,,,,,,,,,,,,,,,,,,,,,,,,,,,,,,,,,,,,,
094199,001,2022-11-21_24h30.11.446,Info_measure_main_exp,2022.2.2,Win32,143.8021283,,,,,,,,,,,,,,,,,,masks/mask_005.jpg,,,,,,,,,,,,,,,,,,,,,,,,,,,,,,,,,,,,,,,,,,,,,,,,0,2,2,4,1,,,,,,,,,,,,,,,,,,,,,,,,,,,,,,,,,,,,,,,,,
094199,001,2022-11-21_24h30.11.446,Info_measure_main_exp,2022.2.2,Win32,143.8021283,,,,,,,,,,,,,,,,,,masks/mask_003.jpg,,,,,,,,,,,,,,,,,,,,,,,,,,,,,,,,,,,,,,,,,,,,,,,,0,3,3,2,1,,,,,,,,,,,,,,,,,,,,,,,,,,,,,,,,,,,,,,,,,
094199,001,2022-11-21_24h30.11.446,Info_measure_main_exp,2022.2.2,Win32,143.8021283,,,,,,,,,,,,,,,,,,masks/mask_001.jpg,,,,,,,,,,,,,,,,,,,,,,,,,,,,,,,,,,,,,,,,,,,,,,,,0,4,4,0,1,,,,,,,,,,,,,,,,,,,,,,,,,,,,,,,,,,,,,,,,,
094199,001,2022-11-21_24h30.11.446,Info_measure_main_exp,2022.2.2,Win32,143.8021283,,,,,,,,,,,,,,,,,,,,,,,,,,,,,,5,1.3346,1,,,,,,,,,,,,1,131,5,5,1950,1,absent_patch/patch0001950.jpg,present_patch/cong_131_5_a.jpg,,,,,,,,,,,,,,,,,,,,0.15,-0.067592593,1,0,0,response3disk,33,0.009259259,0.001851852,1,0,0,center_square,0,32,32,39,1,,,,,,,,,,,,,,,,,,,,,,,
094199,001,2022-11-21_24h30.11.446,Info_measure_main_exp,2022.2.2,Win32,143.8021283,,,,,,,,,,,,,,,,,,masks/mask_002.jpg,,,,,,,,,,,,,,,,,,,,,,,,,,,,,,,,,,,,,,,,,,,0,0,0,1,1,,,,,,,,,,,,,,,,,,,,,,,,,,,,,,,,,,,,,,,,,,,,,,
094199,001,2022-11-21_24h30.11.446,Info_measure_main_exp,2022.2.2,Win32,143.8021283,,,,,,,,,,,,,,,,,,masks/mask_004.jpg,,,,,,,,,,,,,,,,,,,,,,,,,,,,,,,,,,,,,,,,,,,0,1,1,3,1,,,,,,,,,,,,,,,,,,,,,,,,,,,,,,,,,,,,,,,,,,,,,,
094199,001,2022-11-21_24h30.11.446,Info_measure_main_exp,2022.2.2,Win32,143.8021283,,,,,,,,,,,,,,,,,,masks/mask_005.jpg,,,,,,,,,,,,,,,,,,,,,,,,,,,,,,,,,,,,,,,,,,,0,2,2,4,1,,,,,,,,,,,,,,,,,,,,,,,,,,,,,,,,,,,,,,,,,,,,,,
094199,001,2022-11-21_24h30.11.446,Info_measure_main_exp,2022.2.2,Win32,143.8021283,,,,,,,,,,,,,,,,,,masks/mask_001.jpg,,,,,,,,,,,,,,,,,,,,,,,,,,,,,,,,,,,,,,,,,,,0,3,3,0,1,,,,,,,,,,,,,,,,,,,,,,,,,,,,,,,,,,,,,,,,,,,,,,
094199,001,2022-11-21_24h30.11.446,Info_measure_main_exp,2022.2.2,Win32,143.8021283,,,,,,,,,,,,,,,,,,masks/mask_003.jpg,,,,,,,,,,,,,,,,,,,,,,,,,,,,,,,,,,,,,,,,,,,0,4,4,2,1,,,,,,,,,,,,,,,,,,,,,,,,,,,,,,,,,,,,,,,,,,,,,,
094199,001,2022-11-21_24h30.11.446,Info_measure_main_exp,2022.2.2,Win32,143.8021283,,,,,,,,,,,,,,,,,,masks/mask_002.jpg,,,,,,,,,,,,,,,,,,,,,,,,,,,,,,,,,,,,,,,,,,,,,,,,0,0,0,1,1,,,,,,,,,,,,,,,,,,,,,,,,,,,,,,,,,,,,,,,,,
094199,001,2022-11-21_24h30.11.446,Info_measure_main_exp,2022.2.2,Win32,143.8021283,,,,,,,,,,,,,,,,,,masks/mask_001.jpg,,,,,,,,,,,,,,,,,,,,,,,,,,,,,,,,,,,,,,,,,,,,,,,,0,1,1,0,1,,,,,,,,,,,,,,,,,,,,,,,,,,,,,,,,,,,,,,,,,
094199,001,2022-11-21_24h30.11.446,Info_measure_main_exp,2022.2.2,Win32,143.8021283,,,,,,,,,,,,,,,,,,masks/mask_005.jpg,,,,,,,,,,,,,,,,,,,,,,,,,,,,,,,,,,,,,,,,,,,,,,,,0,2,2,4,1,,,,,,,,,,,,,,,,,,,,,,,,,,,,,,,,,,,,,,,,,
094199,001,2022-11-21_24h30.11.446,Info_measure_main_exp,2022.2.2,Win32,143.8021283,,,,,,,,,,,,,,,,,,masks/mask_004.jpg,,,,,,,,,,,,,,,,,,,,,,,,,,,,,,,,,,,,,,,,,,,,,,,,0,3,3,3,1,,,,,,,,,,,,,,,,,,,,,,,,,,,,,,,,,,,,,,,,,
094199,001,2022-11-21_24h30.11.446,Info_measure_main_exp,2022.2.2,Win32,143.8021283,,,,,,,,,,,,,,,,,,masks/mask_003.jpg,,,,,,,,,,,,,,,,,,,,,,,,,,,,,,,,,,,,,,,,,,,,,,,,0,4,4,2,1,,,,,,,,,,,,,,,,,,,,,,,,,,,,,,,,,,,,,,,,,
094199,001,2022-11-21_24h30.11.446,Info_measure_main_exp,2022.2.2,Win32,143.8021283,,,,,,,,,,,,,,,,,,,,,,,,,,,,,,3,1.2222,1,,,,,,,,,,,,0,131,5,5,2142,2082,absent_patch/patch0002142.jpg,absent_patch/patch0002082.jpg,,,,,,,,,,,,,,,,,,,,-0.055555556,-0.114814815,1,0,0,response5disk,34,-0.003703704,0.003703704,1,0,0,center_square,0,33,33,88,1,,,,,,,,,,,,,,,,,,,,,,,
094199,001,2022-11-21_24h30.11.446,Info_measure_main_exp,2022.2.2,Win32,143.8021283,,,,,,,,,,,,,,,,,,masks/mask_005.jpg,,,,,,,,,,,,,,,,,,,,,,,,,,,,,,,,,,,,,,,,,,,0,0,0,4,1,,,,,,,,,,,,,,,,,,,,,,,,,,,,,,,,,,,,,,,,,,,,,,
094199,001,2022-11-21_24h30.11.446,Info_measure_main_exp,2022.2.2,Win32,143.8021283,,,,,,,,,,,,,,,,,,masks/mask_001.jpg,,,,,,,,,,,,,,,,,,,,,,,,,,,,,,,,,,,,,,,,,,,0,1,1,0,1,,,,,,,,,,,,,,,,,,,,,,,,,,,,,,,,,,,,,,,,,,,,,,
094199,001,2022-11-21_24h30.11.446,Info_measure_main_exp,2022.2.2,Win32,143.8021283,,,,,,,,,,,,,,,,,,masks/mask_004.jpg,,,,,,,,,,,,,,,,,,,,,,,,,,,,,,,,,,,,,,,,,,,0,2,2,3,1,,,,,,,,,,,,,,,,,,,,,,,,,,,,,,,,,,,,,,,,,,,,,,
094199,001,2022-11-21_24h30.11.446,Info_measure_main_exp,2022.2.2,Win32,143.8021283,,,,,,,,,,,,,,,,,,masks/mask_003.jpg,,,,,,,,,,,,,,,,,,,,,,,,,,,,,,,,,,,,,,,,,,,0,3,3,2,1,,,,,,,,,,,,,,,,,,,,,,,,,,,,,,,,,,,,,,,,,,,,,,
094199,001,2022-11-21_24h30.11.446,Info_measure_main_exp,2022.2.2,Win32,143.8021283,,,,,,,,,,,,,,,,,,masks/mask_002.jpg,,,,,,,,,,,,,,,,,,,,,,,,,,,,,,,,,,,,,,,,,,,0,4,4,1,1,,,,,,,,,,,,,,,,,,,,,,,,,,,,,,,,,,,,,,,,,,,,,,
094199,001,2022-11-21_24h30.11.446,Info_measure_main_exp,2022.2.2,Win32,143.8021283,,,,,,,,,,,,,,,,,,masks/mask_003.jpg,,,,,,,,,,,,,,,,,,,,,,,,,,,,,,,,,,,,,,,,,,,,,,,,0,0,0,2,1,,,,,,,,,,,,,,,,,,,,,,,,,,,,,,,,,,,,,,,,,
094199,001,2022-11-21_24h30.11.446,Info_measure_main_exp,2022.2.2,Win32,143.8021283,,,,,,,,,,,,,,,,,,masks/mask_002.jpg,,,,,,,,,,,,,,,,,,,,,,,,,,,,,,,,,,,,,,,,,,,,,,,,0,1,1,1,1,,,,,,,,,,,,,,,,,,,,,,,,,,,,,,,,,,,,,,,,,
094199,001,2022-11-21_24h30.11.446,Info_measure_main_exp,2022.2.2,Win32,143.8021283,,,,,,,,,,,,,,,,,,masks/mask_005.jpg,,,,,,,,,,,,,,,,,,,,,,,,,,,,,,,,,,,,,,,,,,,,,,,,0,2,2,4,1,,,,,,,,,,,,,,,,,,,,,,,,,,,,,,,,,,,,,,,,,
094199,001,2022-11-21_24h30.11.446,Info_measure_main_exp,2022.2.2,Win32,143.8021283,,,,,,,,,,,,,,,,,,masks/mask_001.jpg,,,,,,,,,,,,,,,,,,,,,,,,,,,,,,,,,,,,,,,,,,,,,,,,0,3,3,0,1,,,,,,,,,,,,,,,,,,,,,,,,,,,,,,,,,,,,,,,,,
