participant,session,date,expName,psychopyVersion,OS,frameRate,space_press_continue.keys,space_press_continue.rt,space_press_continue_2.keys,space_press_continue_2.rt,space_press_continue_3.keys,space_press_continue_3.rt,space_press_continue_4.keys,space_press_continue_4.rt,space_press_continue_5.keys,space_press_continue_5.rt,space_press_continue_6.keys,space_press_continue_6.rt,prac_mask_loop_1.thisRepN,prac_mask_loop_1.thisTrialN,prac_mask_loop_1.thisN,prac_mask_loop_1.thisIndex,prac_mask_loop_1.ran,mask_name,prac_mask_loop_2.thisRepN,prac_mask_loop_2.thisTrialN,prac_mask_loop_2.thisN,prac_mask_loop_2.thisIndex,prac_mask_loop_2.ran,mouse_2.x,mouse_2.y,mouse_2.leftButton,mouse_2.midButton,mouse_2.rightButton,mouse_2.clicked_name,similarity,response_time,Pass,mouse_12.x,mouse_12.y,mouse_12.leftButton,mouse_12.midButton,mouse_12.rightButton,mouse_12.clicked_name,prac_loop.thisRepN,prac_loop.thisTrialN,prac_loop.thisN,prac_loop.thisIndex,prac_loop.ran,Pair_type,Image_num,Patch_1_loc,Patch_2_loc,Patch_1_info,Patch_2_info,Patch_1_name,Patch_2_name,mouse_1.x,mouse_1.y,mouse_1.leftButton,mouse_1.midButton,mouse_1.rightButton,mouse_1.time,mouse_1.clicked_name,space_press_continue_7.keys,space_press_continue_7.rt,mask_loop.thisRepN,mask_loop.thisTrialN,mask_loop.thisN,mask_loop.thisIndex,mask_loop.ran,mask_loop_2.thisRepN,mask_loop_2.thisTrialN,mask_loop_2.thisN,mask_loop_2.thisIndex,mask_loop_2.ran,mouse.x,mouse.y,mouse.leftButton,mouse.midButton,mouse.rightButton,mouse.clicked_name,trialNumber,mouse_11.x,mouse_11.y,mouse_11.leftButton,mouse_11.midButton,mouse_11.rightButton,mouse_11.clicked_name,first_pass_loop.thisRepN,first_pass_loop.thisTrialN,first_pass_loop.thisN,first_pass_loop.thisIndex,first_pass_loop.ran,mask_loop_3.thisRepN,mask_loop_3.thisTrialN,mask_loop_3.thisN,mask_loop_3.thisIndex,mask_loop_3.ran,mask_loop_4.thisRepN,mask_loop_4.thisTrialN,mask_loop_4.thisN,mask_loop_4.thisIndex,mask_loop_4.ran,mouse_3.x,mouse_3.y,mouse_3.leftButton,mouse_3.midButton,mouse_3.rightButton,mouse_3.clicked_name,double_pass_loop.thisRepN,double_pass_loop.thisTrialN,double_pass_loop.thisN,double_pass_loop.thisIndex,double_pass_loop.ran,space_exit.keys,space_exit.rt
095807,001,2022-11-20_23h55.25.358,Info_measure_main_exp,2022.2.2,Win32,59.3824228,,,,,,,,,,,,,,,,,,,,,,,,,,,,,,,,,,,,,,,,,,,,,,,,,,,,,,,,,,,,,,,,,,,,,,,,,,,,,,,,,,,,,,,,,,,,,,,,,,,,,,,,,,,,,,,
095807,001,2022-11-20_23h55.25.358,Info_measure_main_exp,2022.2.2,Win32,59.3824228,,,,,,,,,,,,,,,,,,,,,,,,,,,,,,,,,,,,,,,,,,,,,,,,,,,,,,,,,,,,,,,,,,,,,,,,,,,,,,,,,,,,,,,,,,,,,,,,,,,,,,,,,,,,,,,
095807,001,2022-11-20_23h55.25.358,Info_measure_main_exp,2022.2.2,Win32,59.3824228,space,4.9948,,,,,,,,,,,,,,,,,,,,,,,,,,,,,,,,,,,,,,,,,,,,,,,,,,,,,,,,,,,,,,,,,,,,,,,,,,,,,,,,,,,,,,,,,,,,,,,,,,,,,,,,,,,,,
095807,001,2022-11-20_23h55.25.358,Info_measure_main_exp,2022.2.2,Win32,59.3824228,,,space,12.7693,,,,,,,,,,,,,,,,,,,,,,,,,,,,,,,,,,,,,,,,,,,,,,,,,,,,,,,,,,,,,,,,,,,,,,,,,,,,,,,,,,,,,,,,,,,,,,,,,,,,,,,,,,,
095807,001,2022-11-20_23h55.25.358,Info_measure_main_exp,2022.2.2,Win32,59.3824228,,,,,space,4.061,,,,,,,,,,,,,,,,,,,,,,,,,,,,,,,,,,,,,,,,,,,,,,,,,,,,,,,,,,,,,,,,,,,,,,,,,,,,,,,,,,,,,,,,,,,,,,,,,,,,,,,,,
095807,001,2022-11-20_23h55.25.358,Info_measure_main_exp,2022.2.2,Win32,59.3824228,,,,,,,space,79.3246,,,,,,,,,,,,,,,,,,,,,,,,,,,,,,,,,,,,,,,,,,,,,,,,,,,,,,,,,,,,,,,,,,,,,,,,,,,,,,,,,,,,,,,,,,,,,,,,,,,,,,,
095807,001,2022-11-20_23h55.25.358,Info_measure_main_exp,2022.2.2,Win32,59.3824228,,,,,,,,,space,17.2695,,,,,,,,,,,,,,,,,,,,,,,,,,,,,,,,,,,,,,,,,,,,,,,,,,,,,,,,,,,,,,,,,,,,,,,,,,,,,,,,,,,,,,,,,,,,,,,,,,,,,
095807,001,2022-11-20_23h55.25.358,Info_measure_main_exp,2022.2.2,Win32,59.3824228,,,,,,,,,,,space,2.7476,,,,,,,,,,,,,,,,,,,,,,,,,,,,,,,,,,,,,,,,,,,,,,,,,,,,,,,,,,,,,,,,,,,,,,,,,,,,,,,,,,,,,,,,,,,,,,,,,,,
095807,001,2022-11-20_23h55.25.358,Info_measure_main_exp,2022.2.2,Win32,59.3824228,,,,,,,,,,,,,0,0,0,3,1,masks/mask_004.jpg,,,,,,,,,,,,,,,,,,,,,,,,,,,,,,,,,,,,,,,,,,,,,,,,,,,,,,,,,,,,,,,,,,,,,,,,,,,,,,,,,,,,,,,,,,,,,
095807,001,2022-11-20_23h55.25.358,Info_measure_main_exp,2022.2.2,Win32,59.3824228,,,,,,,,,,,,,0,1,1,2,1,masks/mask_003.jpg,,,,,,,,,,,,,,,,,,,,,,,,,,,,,,,,,,,,,,,,,,,,,,,,,,,,,,,,,,,,,,,,,,,,,,,,,,,,,,,,,,,,,,,,,,,,,
095807,001,2022-11-20_23h55.25.358,Info_measure_main_exp,2022.2.2,Win32,59.3824228,,,,,,,,,,,,,0,2,2,1,1,masks/mask_002.jpg,,,,,,,,,,,,,,,,,,,,,,,,,,,,,,,,,,,,,,,,,,,,,,,,,,,,,,,,,,,,,,,,,,,,,,,,,,,,,,,,,,,,,,,,,,,,,
095807,001,2022-11-20_23h55.25.358,Info_measure_main_exp,2022.2.2,Win32,59.3824228,,,,,,,,,,,,,0,3,3,0,1,masks/mask_001.jpg,,,,,,,,,,,,,,,,,,,,,,,,,,,,,,,,,,,,,,,,,,,,,,,,,,,,,,,,,,,,,,,,,,,,,,,,,,,,,,,,,,,,,,,,,,,,,
095807,001,2022-11-20_23h55.25.358,Info_measure_main_exp,2022.2.2,Win32,59.3824228,,,,,,,,,,,,,0,4,4,4,1,masks/mask_005.jpg,,,,,,,,,,,,,,,,,,,,,,,,,,,,,,,,,,,,,,,,,,,,,,,,,,,,,,,,,,,,,,,,,,,,,,,,,,,,,,,,,,,,,,,,,,,,,
095807,001,2022-11-20_23h55.25.358,Info_measure_main_exp,2022.2.2,Win32,59.3824228,,,,,,,,,,,,,,,,,,masks/mask_004.jpg,0,0,0,3,1,,,,,,,,,,,,,,,,,,,,,,,,,,,,,,,,,,,,,,,,,,,,,,,,,,,,,,,,,,,,,,,,,,,,,,,,,,,,,,,,,,,,,,,,
095807,001,2022-11-20_23h55.25.358,Info_measure_main_exp,2022.2.2,Win32,59.3824228,,,,,,,,,,,,,,,,,,masks/mask_001.jpg,0,1,1,0,1,,,,,,,,,,,,,,,,,,,,,,,,,,,,,,,,,,,,,,,,,,,,,,,,,,,,,,,,,,,,,,,,,,,,,,,,,,,,,,,,,,,,,,,,
095807,001,2022-11-20_23h55.25.358,Info_measure_main_exp,2022.2.2,Win32,59.3824228,,,,,,,,,,,,,,,,,,masks/mask_002.jpg,0,2,2,1,1,,,,,,,,,,,,,,,,,,,,,,,,,,,,,,,,,,,,,,,,,,,,,,,,,,,,,,,,,,,,,,,,,,,,,,,,,,,,,,,,,,,,,,,,
095807,001,2022-11-20_23h55.25.358,Info_measure_main_exp,2022.2.2,Win32,59.3824228,,,,,,,,,,,,,,,,,,masks/mask_005.jpg,0,3,3,4,1,,,,,,,,,,,,,,,,,,,,,,,,,,,,,,,,,,,,,,,,,,,,,,,,,,,,,,,,,,,,,,,,,,,,,,,,,,,,,,,,,,,,,,,,
095807,001,2022-11-20_23h55.25.358,Info_measure_main_exp,2022.2.2,Win32,59.3824228,,,,,,,,,,,,,,,,,,masks/mask_003.jpg,0,4,4,2,1,,,,,,,,,,,,,,,,,,,,,,,,,,,,,,,,,,,,,,,,,,,,,,,,,,,,,,,,,,,,,,,,,,,,,,,,,,,,,,,,,,,,,,,,
095807,001,2022-11-20_23h55.25.358,Info_measure_main_exp,2022.2.2,Win32,59.3824228,,,,,,,,,,,,,,,,,,,,,,,,0.139322917,-0.05078125,1,0,0,response3disk,5,144.1385,1,-0.001302083,0.006510417,1,0,0,center_square,0,0,0,0,1,0,131,5,5,2370,2406,prac_patch/patch0002370.jpg,prac_patch/patch0002406.jpg,,,,,,,,,,,,,,,,,,,,,,,,,,,,,,,,,,,,,,,,,,,,,,,,,,,,,,,,,,,,
095807,001,2022-11-20_23h55.25.358,Info_measure_main_exp,2022.2.2,Win32,59.3824228,,,,,,,,,,,,,0,0,0,3,1,masks/mask_004.jpg,,,,,,,,,,,,,,,,,,,,,,,,,,,,,,,,,,,,,,,,,,,,,,,,,,,,,,,,,,,,,,,,,,,,,,,,,,,,,,,,,,,,,,,,,,,,,
095807,001,2022-11-20_23h55.25.358,Info_measure_main_exp,2022.2.2,Win32,59.3824228,,,,,,,,,,,,,0,1,1,0,1,masks/mask_001.jpg,,,,,,,,,,,,,,,,,,,,,,,,,,,,,,,,,,,,,,,,,,,,,,,,,,,,,,,,,,,,,,,,,,,,,,,,,,,,,,,,,,,,,,,,,,,,,
095807,001,2022-11-20_23h55.25.358,Info_measure_main_exp,2022.2.2,Win32,59.3824228,,,,,,,,,,,,,0,2,2,4,1,masks/mask_005.jpg,,,,,,,,,,,,,,,,,,,,,,,,,,,,,,,,,,,,,,,,,,,,,,,,,,,,,,,,,,,,,,,,,,,,,,,,,,,,,,,,,,,,,,,,,,,,,
095807,001,2022-11-20_23h55.25.358,Info_measure_main_exp,2022.2.2,Win32,59.3824228,,,,,,,,,,,,,0,3,3,1,1,masks/mask_002.jpg,,,,,,,,,,,,,,,,,,,,,,,,,,,,,,,,,,,,,,,,,,,,,,,,,,,,,,,,,,,,,,,,,,,,,,,,,,,,,,,,,,,,,,,,,,,,,
095807,001,2022-11-20_23h55.25.358,Info_measure_main_exp,2022.2.2,Win32,59.3824228,,,,,,,,,,,,,0,4,4,2,1,masks/mask_003.jpg,,,,,,,,,,,,,,,,,,,,,,,,,,,,,,,,,,,,,,,,,,,,,,,,,,,,,,,,,,,,,,,,,,,,,,,,,,,,,,,,,,,,,,,,,,,,,
095807,001,2022-11-20_23h55.25.358,Info_measure_main_exp,2022.2.2,Win32,59.3824228,,,,,,,,,,,,,,,,,,masks/mask_005.jpg,0,0,0,4,1,,,,,,,,,,,,,,,,,,,,,,,,,,,,,,,,,,,,,,,,,,,,,,,,,,,,,,,,,,,,,,,,,,,,,,,,,,,,,,,,,,,,,,,,
095807,001,2022-11-20_23h55.25.358,Info_measure_main_exp,2022.2.2,Win32,59.3824228,,,,,,,,,,,,,,,,,,masks/mask_001.jpg,0,1,1,0,1,,,,,,,,,,,,,,,,,,,,,,,,,,,,,,,,,,,,,,,,,,,,,,,,,,,,,,,,,,,,,,,,,,,,,,,,,,,,,,,,,,,,,,,,
095807,001,2022-11-20_23h55.25.358,Info_measure_main_exp,2022.2.2,Win32,59.3824228,,,,,,,,,,,,,,,,,,masks/mask_003.jpg,0,2,2,2,1,,,,,,,,,,,,,,,,,,,,,,,,,,,,,,,,,,,,,,,,,,,,,,,,,,,,,,,,,,,,,,,,,,,,,,,,,,,,,,,,,,,,,,,,
095807,001,2022-11-20_23h55.25.358,Info_measure_main_exp,2022.2.2,Win32,59.3824228,,,,,,,,,,,,,,,,,,masks/mask_002.jpg,0,3,3,1,1,,,,,,,,,,,,,,,,,,,,,,,,,,,,,,,,,,,,,,,,,,,,,,,,,,,,,,,,,,,,,,,,,,,,,,,,,,,,,,,,,,,,,,,,
095807,001,2022-11-20_23h55.25.358,Info_measure_main_exp,2022.2.2,Win32,59.3824228,,,,,,,,,,,,,,,,,,masks/mask_004.jpg,0,4,4,3,1,,,,,,,,,,,,,,,,,,,,,,,,,,,,,,,,,,,,,,,,,,,,,,,,,,,,,,,,,,,,,,,,,,,,,,,,,,,,,,,,,,,,,,,,
095807,001,2022-11-20_23h55.25.358,Info_measure_main_exp,2022.2.2,Win32,59.3824228,,,,,,,,,,,,,,,,,,,,,,,,-0.075520833,0.15625,1,0,0,response7disk,0,158.2265,1,0.001302083,0.010416667,1,0,0,center_square,0,1,1,2,1,0,131,5,5,2526,2526,prac_patch/patch0002526.jpg,prac_patch/patch0002526.jpg,,,,,,,,,,,,,,,,,,,,,,,,,,,,,,,,,,,,,,,,,,,,,,,,,,,,,,,,,,,,
095807,001,2022-11-20_23h55.25.358,Info_measure_main_exp,2022.2.2,Win32,59.3824228,,,,,,,,,,,,,0,0,0,2,1,masks/mask_003.jpg,,,,,,,,,,,,,,,,,,,,,,,,,,,,,,,,,,,,,,,,,,,,,,,,,,,,,,,,,,,,,,,,,,,,,,,,,,,,,,,,,,,,,,,,,,,,,
095807,001,2022-11-20_23h55.25.358,Info_measure_main_exp,2022.2.2,Win32,59.3824228,,,,,,,,,,,,,0,1,1,4,1,masks/mask_005.jpg,,,,,,,,,,,,,,,,,,,,,,,,,,,,,,,,,,,,,,,,,,,,,,,,,,,,,,,,,,,,,,,,,,,,,,,,,,,,,,,,,,,,,,,,,,,,,
095807,001,2022-11-20_23h55.25.358,Info_measure_main_exp,2022.2.2,Win32,59.3824228,,,,,,,,,,,,,0,2,2,0,1,masks/mask_001.jpg,,,,,,,,,,,,,,,,,,,,,,,,,,,,,,,,,,,,,,,,,,,,,,,,,,,,,,,,,,,,,,,,,,,,,,,,,,,,,,,,,,,,,,,,,,,,,
095807,001,2022-11-20_23h55.25.358,Info_measure_main_exp,2022.2.2,Win32,59.3824228,,,,,,,,,,,,,0,3,3,3,1,masks/mask_004.jpg,,,,,,,,,,,,,,,,,,,,,,,,,,,,,,,,,,,,,,,,,,,,,,,,,,,,,,,,,,,,,,,,,,,,,,,,,,,,,,,,,,,,,,,,,,,,,
095807,001,2022-11-20_23h55.25.358,Info_measure_main_exp,2022.2.2,Win32,59.3824228,,,,,,,,,,,,,0,4,4,1,1,masks/mask_002.jpg,,,,,,,,,,,,,,,,,,,,,,,,,,,,,,,,,,,,,,,,,,,,,,,,,,,,,,,,,,,,,,,,,,,,,,,,,,,,,,,,,,,,,,,,,,,,,
095807,001,2022-11-20_23h55.25.358,Info_measure_main_exp,2022.2.2,Win32,59.3824228,,,,,,,,,,,,,,,,,,masks/mask_001.jpg,0,0,0,0,1,,,,,,,,,,,,,,,,,,,,,,,,,,,,,,,,,,,,,,,,,,,,,,,,,,,,,,,,,,,,,,,,,,,,,,,,,,,,,,,,,,,,,,,,
095807,001,2022-11-20_23h55.25.358,Info_measure_main_exp,2022.2.2,Win32,59.3824228,,,,,,,,,,,,,,,,,,masks/mask_002.jpg,0,1,1,1,1,,,,,,,,,,,,,,,,,,,,,,,,,,,,,,,,,,,,,,,,,,,,,,,,,,,,,,,,,,,,,,,,,,,,,,,,,,,,,,,,,,,,,,,,
095807,001,2022-11-20_23h55.25.358,Info_measure_main_exp,2022.2.2,Win32,59.3824228,,,,,,,,,,,,,,,,,,masks/mask_003.jpg,0,2,2,2,1,,,,,,,,,,,,,,,,,,,,,,,,,,,,,,,,,,,,,,,,,,,,,,,,,,,,,,,,,,,,,,,,,,,,,,,,,,,,,,,,,,,,,,,,
095807,001,2022-11-20_23h55.25.358,Info_measure_main_exp,2022.2.2,Win32,59.3824228,,,,,,,,,,,,,,,,,,masks/mask_005.jpg,0,3,3,4,1,,,,,,,,,,,,,,,,,,,,,,,,,,,,,,,,,,,,,,,,,,,,,,,,,,,,,,,,,,,,,,,,,,,,,,,,,,,,,,,,,,,,,,,,
095807,001,2022-11-20_23h55.25.358,Info_measure_main_exp,2022.2.2,Win32,59.3824228,,,,,,,,,,,,,,,,,,masks/mask_004.jpg,0,4,4,3,1,,,,,,,,,,,,,,,,,,,,,,,,,,,,,,,,,,,,,,,,,,,,,,,,,,,,,,,,,,,,,,,,,,,,,,,,,,,,,,,,,,,,,,,,
095807,001,2022-11-20_23h55.25.358,Info_measure_main_exp,2022.2.2,Win32,59.3824228,,,,,,,,,,,,,,,,,,,,,,,,0.127604167,-0.015625,1,0,0,response3disk,5,172.5756,1,0.009114583,0,1,0,0,center_square,0,2,2,1,1,0,131,5,5,2514,2490,prac_patch/patch0002514.jpg,prac_patch/patch0002490.jpg,,,,,,,,,,,,,,,,,,,,,,,,,,,,,,,,,,,,,,,,,,,,,,,,,,,,,,,,,,,,
095807,001,2022-11-20_23h55.25.358,Info_measure_main_exp,2022.2.2,Win32,59.3824228,,,,,,,,,,,,,,,,,,,,,,,,,,,,,,,,,,,,,,,,,,,,,,,,,,,,,,,,,,,space,3.0699,,,,,,,,,,,,,,,,,,,,,,,,,,,,,,,,,,,,,,,,,,,,,,,,,,,
095807,001,2022-11-20_23h55.25.358,Info_measure_main_exp,2022.2.2,Win32,59.3824228,,,,,,,,,,,,,,,,,,masks/mask_005.jpg,,,,,,,,,,,,,,,,,,,,,,,,,,,,,,,,,,,,,,,,,,,0,0,0,4,1,,,,,,,,,,,,,,,,,,,,,,,,,,,,,,,,,,,,,,,,,,,,,,
095807,001,2022-11-20_23h55.25.358,Info_measure_main_exp,2022.2.2,Win32,59.3824228,,,,,,,,,,,,,,,,,,masks/mask_001.jpg,,,,,,,,,,,,,,,,,,,,,,,,,,,,,,,,,,,,,,,,,,,0,1,1,0,1,,,,,,,,,,,,,,,,,,,,,,,,,,,,,,,,,,,,,,,,,,,,,,
095807,001,2022-11-20_23h55.25.358,Info_measure_main_exp,2022.2.2,Win32,59.3824228,,,,,,,,,,,,,,,,,,masks/mask_003.jpg,,,,,,,,,,,,,,,,,,,,,,,,,,,,,,,,,,,,,,,,,,,0,2,2,2,1,,,,,,,,,,,,,,,,,,,,,,,,,,,,,,,,,,,,,,,,,,,,,,
095807,001,2022-11-20_23h55.25.358,Info_measure_main_exp,2022.2.2,Win32,59.3824228,,,,,,,,,,,,,,,,,,masks/mask_002.jpg,,,,,,,,,,,,,,,,,,,,,,,,,,,,,,,,,,,,,,,,,,,0,3,3,1,1,,,,,,,,,,,,,,,,,,,,,,,,,,,,,,,,,,,,,,,,,,,,,,
095807,001,2022-11-20_23h55.25.358,Info_measure_main_exp,2022.2.2,Win32,59.3824228,,,,,,,,,,,,,,,,,,masks/mask_004.jpg,,,,,,,,,,,,,,,,,,,,,,,,,,,,,,,,,,,,,,,,,,,0,4,4,3,1,,,,,,,,,,,,,,,,,,,,,,,,,,,,,,,,,,,,,,,,,,,,,,
095807,001,2022-11-20_23h55.25.358,Info_measure_main_exp,2022.2.2,Win32,59.3824228,,,,,,,,,,,,,,,,,,masks/mask_002.jpg,,,,,,,,,,,,,,,,,,,,,,,,,,,,,,,,,,,,,,,,,,,,,,,,0,0,0,1,1,,,,,,,,,,,,,,,,,,,,,,,,,,,,,,,,,,,,,,,,,
095807,001,2022-11-20_23h55.25.358,Info_measure_main_exp,2022.2.2,Win32,59.3824228,,,,,,,,,,,,,,,,,,masks/mask_003.jpg,,,,,,,,,,,,,,,,,,,,,,,,,,,,,,,,,,,,,,,,,,,,,,,,0,1,1,2,1,,,,,,,,,,,,,,,,,,,,,,,,,,,,,,,,,,,,,,,,,
095807,001,2022-11-20_23h55.25.358,Info_measure_main_exp,2022.2.2,Win32,59.3824228,,,,,,,,,,,,,,,,,,masks/mask_004.jpg,,,,,,,,,,,,,,,,,,,,,,,,,,,,,,,,,,,,,,,,,,,,,,,,0,2,2,3,1,,,,,,,,,,,,,,,,,,,,,,,,,,,,,,,,,,,,,,,,,
095807,001,2022-11-20_23h55.25.358,Info_measure_main_exp,2022.2.2,Win32,59.3824228,,,,,,,,,,,,,,,,,,masks/mask_001.jpg,,,,,,,,,,,,,,,,,,,,,,,,,,,,,,,,,,,,,,,,,,,,,,,,0,3,3,0,1,,,,,,,,,,,,,,,,,,,,,,,,,,,,,,,,,,,,,,,,,
095807,001,2022-11-20_23h55.25.358,Info_measure_main_exp,2022.2.2,Win32,59.3824228,,,,,,,,,,,,,,,,,,masks/mask_005.jpg,,,,,,,,,,,,,,,,,,,,,,,,,,,,,,,,,,,,,,,,,,,,,,,,0,4,4,4,1,,,,,,,,,,,,,,,,,,,,,,,,,,,,,,,,,,,,,,,,,
095807,001,2022-11-20_23h55.25.358,Info_measure_main_exp,2022.2.2,Win32,59.3824228,,,,,,,,,,,,,,,,,,,,,,,,,,,,,,7,1.7056,1,,,,,,,,,,,,0,131,5,5,2082,1974,absent_patch/patch0002082.jpg,absent_patch/patch0001974.jpg,,,,,,,,,,,,,,,,,,,,0.046875,0.134114583,1,0,0,response1disk,1,0.002604167,-0.00390625,1,0,0,center_square,0,0,0,26,1,,,,,,,,,,,,,,,,,,,,,,,
095807,001,2022-11-20_23h55.25.358,Info_measure_main_exp,2022.2.2,Win32,59.3824228,,,,,,,,,,,,,,,,,,masks/mask_001.jpg,,,,,,,,,,,,,,,,,,,,,,,,,,,,,,,,,,,,,,,,,,,0,0,0,0,1,,,,,,,,,,,,,,,,,,,,,,,,,,,,,,,,,,,,,,,,,,,,,,
095807,001,2022-11-20_23h55.25.358,Info_measure_main_exp,2022.2.2,Win32,59.3824228,,,,,,,,,,,,,,,,,,masks/mask_002.jpg,,,,,,,,,,,,,,,,,,,,,,,,,,,,,,,,,,,,,,,,,,,0,1,1,1,1,,,,,,,,,,,,,,,,,,,,,,,,,,,,,,,,,,,,,,,,,,,,,,
095807,001,2022-11-20_23h55.25.358,Info_measure_main_exp,2022.2.2,Win32,59.3824228,,,,,,,,,,,,,,,,,,masks/mask_004.jpg,,,,,,,,,,,,,,,,,,,,,,,,,,,,,,,,,,,,,,,,,,,0,2,2,3,1,,,,,,,,,,,,,,,,,,,,,,,,,,,,,,,,,,,,,,,,,,,,,,
095807,001,2022-11-20_23h55.25.358,Info_measure_main_exp,2022.2.2,Win32,59.3824228,,,,,,,,,,,,,,,,,,masks/mask_003.jpg,,,,,,,,,,,,,,,,,,,,,,,,,,,,,,,,,,,,,,,,,,,0,3,3,2,1,,,,,,,,,,,,,,,,,,,,,,,,,,,,,,,,,,,,,,,,,,,,,,
095807,001,2022-11-20_23h55.25.358,Info_measure_main_exp,2022.2.2,Win32,59.3824228,,,,,,,,,,,,,,,,,,masks/mask_005.jpg,,,,,,,,,,,,,,,,,,,,,,,,,,,,,,,,,,,,,,,,,,,0,4,4,4,1,,,,,,,,,,,,,,,,,,,,,,,,,,,,,,,,,,,,,,,,,,,,,,
095807,001,2022-11-20_23h55.25.358,Info_measure_main_exp,2022.2.2,Win32,59.3824228,,,,,,,,,,,,,,,,,,masks/mask_005.jpg,,,,,,,,,,,,,,,,,,,,,,,,,,,,,,,,,,,,,,,,,,,,,,,,0,0,0,4,1,,,,,,,,,,,,,,,,,,,,,,,,,,,,,,,,,,,,,,,,,
095807,001,2022-11-20_23h55.25.358,Info_measure_main_exp,2022.2.2,Win32,59.3824228,,,,,,,,,,,,,,,,,,masks/mask_001.jpg,,,,,,,,,,,,,,,,,,,,,,,,,,,,,,,,,,,,,,,,,,,,,,,,0,1,1,0,1,,,,,,,,,,,,,,,,,,,,,,,,,,,,,,,,,,,,,,,,,
095807,001,2022-11-20_23h55.25.358,Info_measure_main_exp,2022.2.2,Win32,59.3824228,,,,,,,,,,,,,,,,,,masks/mask_002.jpg,,,,,,,,,,,,,,,,,,,,,,,,,,,,,,,,,,,,,,,,,,,,,,,,0,2,2,1,1,,,,,,,,,,,,,,,,,,,,,,,,,,,,,,,,,,,,,,,,,
095807,001,2022-11-20_23h55.25.358,Info_measure_main_exp,2022.2.2,Win32,59.3824228,,,,,,,,,,,,,,,,,,masks/mask_003.jpg,,,,,,,,,,,,,,,,,,,,,,,,,,,,,,,,,,,,,,,,,,,,,,,,0,3,3,2,1,,,,,,,,,,,,,,,,,,,,,,,,,,,,,,,,,,,,,,,,,
095807,001,2022-11-20_23h55.25.358,Info_measure_main_exp,2022.2.2,Win32,59.3824228,,,,,,,,,,,,,,,,,,masks/mask_004.jpg,,,,,,,,,,,,,,,,,,,,,,,,,,,,,,,,,,,,,,,,,,,,,,,,0,4,4,3,1,,,,,,,,,,,,,,,,,,,,,,,,,,,,,,,,,,,,,,,,,
095807,001,2022-11-20_23h55.25.358,Info_measure_main_exp,2022.2.2,Win32,59.3824228,,,,,,,,,,,,,,,,,,,,,,,,,,,,,,7,1.2664,1,,,,,,,,,,,,0,131,5,5,2082,2154,absent_patch/patch0002082.jpg,absent_patch/patch0002154.jpg,,,,,,,,,,,,,,,,,,,,0.061197917,0.12890625,1,0,0,response1disk,2,-0.010416667,0.00390625,1,0,0,center_square,0,1,1,33,1,,,,,,,,,,,,,,,,,,,,,,,
095807,001,2022-11-20_23h55.25.358,Info_measure_main_exp,2022.2.2,Win32,59.3824228,,,,,,,,,,,,,,,,,,masks/mask_004.jpg,,,,,,,,,,,,,,,,,,,,,,,,,,,,,,,,,,,,,,,,,,,0,0,0,3,1,,,,,,,,,,,,,,,,,,,,,,,,,,,,,,,,,,,,,,,,,,,,,,
095807,001,2022-11-20_23h55.25.358,Info_measure_main_exp,2022.2.2,Win32,59.3824228,,,,,,,,,,,,,,,,,,masks/mask_001.jpg,,,,,,,,,,,,,,,,,,,,,,,,,,,,,,,,,,,,,,,,,,,0,1,1,0,1,,,,,,,,,,,,,,,,,,,,,,,,,,,,,,,,,,,,,,,,,,,,,,
095807,001,2022-11-20_23h55.25.358,Info_measure_main_exp,2022.2.2,Win32,59.3824228,,,,,,,,,,,,,,,,,,masks/mask_005.jpg,,,,,,,,,,,,,,,,,,,,,,,,,,,,,,,,,,,,,,,,,,,0,2,2,4,1,,,,,,,,,,,,,,,,,,,,,,,,,,,,,,,,,,,,,,,,,,,,,,
095807,001,2022-11-20_23h55.25.358,Info_measure_main_exp,2022.2.2,Win32,59.3824228,,,,,,,,,,,,,,,,,,masks/mask_002.jpg,,,,,,,,,,,,,,,,,,,,,,,,,,,,,,,,,,,,,,,,,,,0,3,3,1,1,,,,,,,,,,,,,,,,,,,,,,,,,,,,,,,,,,,,,,,,,,,,,,
095807,001,2022-11-20_23h55.25.358,Info_measure_main_exp,2022.2.2,Win32,59.3824228,,,,,,,,,,,,,,,,,,masks/mask_003.jpg,,,,,,,,,,,,,,,,,,,,,,,,,,,,,,,,,,,,,,,,,,,0,4,4,2,1,,,,,,,,,,,,,,,,,,,,,,,,,,,,,,,,,,,,,,,,,,,,,,
095807,001,2022-11-20_23h55.25.358,Info_measure_main_exp,2022.2.2,Win32,59.3824228,,,,,,,,,,,,,,,,,,masks/mask_003.jpg,,,,,,,,,,,,,,,,,,,,,,,,,,,,,,,,,,,,,,,,,,,,,,,,0,0,0,2,1,,,,,,,,,,,,,,,,,,,,,,,,,,,,,,,,,,,,,,,,,
095807,001,2022-11-20_23h55.25.358,Info_measure_main_exp,2022.2.2,Win32,59.3824228,,,,,,,,,,,,,,,,,,masks/mask_001.jpg,,,,,,,,,,,,,,,,,,,,,,,,,,,,,,,,,,,,,,,,,,,,,,,,0,1,1,0,1,,,,,,,,,,,,,,,,,,,,,,,,,,,,,,,,,,,,,,,,,
095807,001,2022-11-20_23h55.25.358,Info_measure_main_exp,2022.2.2,Win32,59.3824228,,,,,,,,,,,,,,,,,,masks/mask_002.jpg,,,,,,,,,,,,,,,,,,,,,,,,,,,,,,,,,,,,,,,,,,,,,,,,0,2,2,1,1,,,,,,,,,,,,,,,,,,,,,,,,,,,,,,,,,,,,,,,,,
095807,001,2022-11-20_23h55.25.358,Info_measure_main_exp,2022.2.2,Win32,59.3824228,,,,,,,,,,,,,,,,,,masks/mask_005.jpg,,,,,,,,,,,,,,,,,,,,,,,,,,,,,,,,,,,,,,,,,,,,,,,,0,3,3,4,1,,,,,,,,,,,,,,,,,,,,,,,,,,,,,,,,,,,,,,,,,
095807,001,2022-11-20_23h55.25.358,Info_measure_main_exp,2022.2.2,Win32,59.3824228,,,,,,,,,,,,,,,,,,masks/mask_004.jpg,,,,,,,,,,,,,,,,,,,,,,,,,,,,,,,,,,,,,,,,,,,,,,,,0,4,4,3,1,,,,,,,,,,,,,,,,,,,,,,,,,,,,,,,,,,,,,,,,,
095807,001,2022-11-20_23h55.25.358,Info_measure_main_exp,2022.2.2,Win32,59.3824228,,,,,,,,,,,,,,,,,,,,,,,,,,,,,,7,1.0667,1,,,,,,,,,,,,0,131,5,5,2190,1986,absent_patch/patch0002190.jpg,absent_patch/patch0001986.jpg,,,,,,,,,,,,,,,,,,,,0.057291667,0.158854167,1,0,0,response1disk,3,0.005208333,0.006510417,1,0,0,center_square,0,2,2,111,1,,,,,,,,,,,,,,,,,,,,,,,
095807,001,2022-11-20_23h55.25.358,Info_measure_main_exp,2022.2.2,Win32,59.3824228,,,,,,,,,,,,,,,,,,masks/mask_005.jpg,,,,,,,,,,,,,,,,,,,,,,,,,,,,,,,,,,,,,,,,,,,0,0,0,4,1,,,,,,,,,,,,,,,,,,,,,,,,,,,,,,,,,,,,,,,,,,,,,,
095807,001,2022-11-20_23h55.25.358,Info_measure_main_exp,2022.2.2,Win32,59.3824228,,,,,,,,,,,,,,,,,,masks/mask_004.jpg,,,,,,,,,,,,,,,,,,,,,,,,,,,,,,,,,,,,,,,,,,,0,1,1,3,1,,,,,,,,,,,,,,,,,,,,,,,,,,,,,,,,,,,,,,,,,,,,,,
095807,001,2022-11-20_23h55.25.358,Info_measure_main_exp,2022.2.2,Win32,59.3824228,,,,,,,,,,,,,,,,,,masks/mask_003.jpg,,,,,,,,,,,,,,,,,,,,,,,,,,,,,,,,,,,,,,,,,,,0,2,2,2,1,,,,,,,,,,,,,,,,,,,,,,,,,,,,,,,,,,,,,,,,,,,,,,
095807,001,2022-11-20_23h55.25.358,Info_measure_main_exp,2022.2.2,Win32,59.3824228,,,,,,,,,,,,,,,,,,masks/mask_001.jpg,,,,,,,,,,,,,,,,,,,,,,,,,,,,,,,,,,,,,,,,,,,0,3,3,0,1,,,,,,,,,,,,,,,,,,,,,,,,,,,,,,,,,,,,,,,,,,,,,,
095807,001,2022-11-20_23h55.25.358,Info_measure_main_exp,2022.2.2,Win32,59.3824228,,,,,,,,,,,,,,,,,,masks/mask_002.jpg,,,,,,,,,,,,,,,,,,,,,,,,,,,,,,,,,,,,,,,,,,,0,4,4,1,1,,,,,,,,,,,,,,,,,,,,,,,,,,,,,,,,,,,,,,,,,,,,,,
095807,001,2022-11-20_23h55.25.358,Info_measure_main_exp,2022.2.2,Win32,59.3824228,,,,,,,,,,,,,,,,,,masks/mask_005.jpg,,,,,,,,,,,,,,,,,,,,,,,,,,,,,,,,,,,,,,,,,,,,,,,,0,0,0,4,1,,,,,,,,,,,,,,,,,,,,,,,,,,,,,,,,,,,,,,,,,
095807,001,2022-11-20_23h55.25.358,Info_measure_main_exp,2022.2.2,Win32,59.3824228,,,,,,,,,,,,,,,,,,masks/mask_004.jpg,,,,,,,,,,,,,,,,,,,,,,,,,,,,,,,,,,,,,,,,,,,,,,,,0,1,1,3,1,,,,,,,,,,,,,,,,,,,,,,,,,,,,,,,,,,,,,,,,,
095807,001,2022-11-20_23h55.25.358,Info_measure_main_exp,2022.2.2,Win32,59.3824228,,,,,,,,,,,,,,,,,,masks/mask_002.jpg,,,,,,,,,,,,,,,,,,,,,,,,,,,,,,,,,,,,,,,,,,,,,,,,0,2,2,1,1,,,,,,,,,,,,,,,,,,,,,,,,,,,,,,,,,,,,,,,,,
095807,001,2022-11-20_23h55.25.358,Info_measure_main_exp,2022.2.2,Win32,59.3824228,,,,,,,,,,,,,,,,,,masks/mask_001.jpg,,,,,,,,,,,,,,,,,,,,,,,,,,,,,,,,,,,,,,,,,,,,,,,,0,3,3,0,1,,,,,,,,,,,,,,,,,,,,,,,,,,,,,,,,,,,,,,,,,
095807,001,2022-11-20_23h55.25.358,Info_measure_main_exp,2022.2.2,Win32,59.3824228,,,,,,,,,,,,,,,,,,masks/mask_003.jpg,,,,,,,,,,,,,,,,,,,,,,,,,,,,,,,,,,,,,,,,,,,,,,,,0,4,4,2,1,,,,,,,,,,,,,,,,,,,,,,,,,,,,,,,,,,,,,,,,,
095807,001,2022-11-20_23h55.25.358,Info_measure_main_exp,2022.2.2,Win32,59.3824228,,,,,,,,,,,,,,,,,,,,,,,,,,,,,,7,0.9173,1,,,,,,,,,,,,0,131,5,5,2274,2166,absent_patch/patch0002274.jpg,absent_patch/patch0002166.jpg,,,,,,,,,,,,,,,,,,,,0.059895833,0.14453125,1,0,0,response1disk,4,0.005208333,0.001302083,1,0,0,center_square,0,3,3,78,1,,,,,,,,,,,,,,,,,,,,,,,
095807,001,2022-11-20_23h55.25.358,Info_measure_main_exp,2022.2.2,Win32,59.3824228,,,,,,,,,,,,,,,,,,masks/mask_001.jpg,,,,,,,,,,,,,,,,,,,,,,,,,,,,,,,,,,,,,,,,,,,0,0,0,0,1,,,,,,,,,,,,,,,,,,,,,,,,,,,,,,,,,,,,,,,,,,,,,,
095807,001,2022-11-20_23h55.25.358,Info_measure_main_exp,2022.2.2,Win32,59.3824228,,,,,,,,,,,,,,,,,,masks/mask_004.jpg,,,,,,,,,,,,,,,,,,,,,,,,,,,,,,,,,,,,,,,,,,,0,1,1,3,1,,,,,,,,,,,,,,,,,,,,,,,,,,,,,,,,,,,,,,,,,,,,,,
095807,001,2022-11-20_23h55.25.358,Info_measure_main_exp,2022.2.2,Win32,59.3824228,,,,,,,,,,,,,,,,,,masks/mask_003.jpg,,,,,,,,,,,,,,,,,,,,,,,,,,,,,,,,,,,,,,,,,,,0,2,2,2,1,,,,,,,,,,,,,,,,,,,,,,,,,,,,,,,,,,,,,,,,,,,,,,
095807,001,2022-11-20_23h55.25.358,Info_measure_main_exp,2022.2.2,Win32,59.3824228,,,,,,,,,,,,,,,,,,masks/mask_005.jpg,,,,,,,,,,,,,,,,,,,,,,,,,,,,,,,,,,,,,,,,,,,0,3,3,4,1,,,,,,,,,,,,,,,,,,,,,,,,,,,,,,,,,,,,,,,,,,,,,,
095807,001,2022-11-20_23h55.25.358,Info_measure_main_exp,2022.2.2,Win32,59.3824228,,,,,,,,,,,,,,,,,,masks/mask_002.jpg,,,,,,,,,,,,,,,,,,,,,,,,,,,,,,,,,,,,,,,,,,,0,4,4,1,1,,,,,,,,,,,,,,,,,,,,,,,,,,,,,,,,,,,,,,,,,,,,,,
095807,001,2022-11-20_23h55.25.358,Info_measure_main_exp,2022.2.2,Win32,59.3824228,,,,,,,,,,,,,,,,,,masks/mask_001.jpg,,,,,,,,,,,,,,,,,,,,,,,,,,,,,,,,,,,,,,,,,,,,,,,,0,0,0,0,1,,,,,,,,,,,,,,,,,,,,,,,,,,,,,,,,,,,,,,,,,
095807,001,2022-11-20_23h55.25.358,Info_measure_main_exp,2022.2.2,Win32,59.3824228,,,,,,,,,,,,,,,,,,masks/mask_005.jpg,,,,,,,,,,,,,,,,,,,,,,,,,,,,,,,,,,,,,,,,,,,,,,,,0,1,1,4,1,,,,,,,,,,,,,,,,,,,,,,,,,,,,,,,,,,,,,,,,,
095807,001,2022-11-20_23h55.25.358,Info_measure_main_exp,2022.2.2,Win32,59.3824228,,,,,,,,,,,,,,,,,,masks/mask_002.jpg,,,,,,,,,,,,,,,,,,,,,,,,,,,,,,,,,,,,,,,,,,,,,,,,0,2,2,1,1,,,,,,,,,,,,,,,,,,,,,,,,,,,,,,,,,,,,,,,,,
095807,001,2022-11-20_23h55.25.358,Info_measure_main_exp,2022.2.2,Win32,59.3824228,,,,,,,,,,,,,,,,,,masks/mask_004.jpg,,,,,,,,,,,,,,,,,,,,,,,,,,,,,,,,,,,,,,,,,,,,,,,,0,3,3,3,1,,,,,,,,,,,,,,,,,,,,,,,,,,,,,,,,,,,,,,,,,
095807,001,2022-11-20_23h55.25.358,Info_measure_main_exp,2022.2.2,Win32,59.3824228,,,,,,,,,,,,,,,,,,masks/mask_003.jpg,,,,,,,,,,,,,,,,,,,,,,,,,,,,,,,,,,,,,,,,,,,,,,,,0,4,4,2,1,,,,,,,,,,,,,,,,,,,,,,,,,,,,,,,,,,,,,,,,,
095807,001,2022-11-20_23h55.25.358,Info_measure_main_exp,2022.2.2,Win32,59.3824228,,,,,,,,,,,,,,,,,,,,,,,,,,,,,,6,1.4324,1,,,,,,,,,,,,0,131,5,5,1950,2298,absent_patch/patch0001950.jpg,absent_patch/patch0002298.jpg,,,,,,,,,,,,,,,,,,,,0.147135417,0.046875,1,0,0,response1disk,5,-0.010416667,0.0078125,1,0,0,center_square,0,4,4,18,1,,,,,,,,,,,,,,,,,,,,,,,
095807,001,2022-11-20_23h55.25.358,Info_measure_main_exp,2022.2.2,Win32,59.3824228,,,,,,,,,,,,,,,,,,masks/mask_005.jpg,,,,,,,,,,,,,,,,,,,,,,,,,,,,,,,,,,,,,,,,,,,0,0,0,4,1,,,,,,,,,,,,,,,,,,,,,,,,,,,,,,,,,,,,,,,,,,,,,,
095807,001,2022-11-20_23h55.25.358,Info_measure_main_exp,2022.2.2,Win32,59.3824228,,,,,,,,,,,,,,,,,,masks/mask_001.jpg,,,,,,,,,,,,,,,,,,,,,,,,,,,,,,,,,,,,,,,,,,,0,1,1,0,1,,,,,,,,,,,,,,,,,,,,,,,,,,,,,,,,,,,,,,,,,,,,,,
095807,001,2022-11-20_23h55.25.358,Info_measure_main_exp,2022.2.2,Win32,59.3824228,,,,,,,,,,,,,,,,,,masks/mask_002.jpg,,,,,,,,,,,,,,,,,,,,,,,,,,,,,,,,,,,,,,,,,,,0,2,2,1,1,,,,,,,,,,,,,,,,,,,,,,,,,,,,,,,,,,,,,,,,,,,,,,
095807,001,2022-11-20_23h55.25.358,Info_measure_main_exp,2022.2.2,Win32,59.3824228,,,,,,,,,,,,,,,,,,masks/mask_004.jpg,,,,,,,,,,,,,,,,,,,,,,,,,,,,,,,,,,,,,,,,,,,0,3,3,3,1,,,,,,,,,,,,,,,,,,,,,,,,,,,,,,,,,,,,,,,,,,,,,,
095807,001,2022-11-20_23h55.25.358,Info_measure_main_exp,2022.2.2,Win32,59.3824228,,,,,,,,,,,,,,,,,,masks/mask_003.jpg,,,,,,,,,,,,,,,,,,,,,,,,,,,,,,,,,,,,,,,,,,,0,4,4,2,1,,,,,,,,,,,,,,,,,,,,,,,,,,,,,,,,,,,,,,,,,,,,,,
095807,001,2022-11-20_23h55.25.358,Info_measure_main_exp,2022.2.2,Win32,59.3824228,,,,,,,,,,,,,,,,,,masks/mask_001.jpg,,,,,,,,,,,,,,,,,,,,,,,,,,,,,,,,,,,,,,,,,,,,,,,,0,0,0,0,1,,,,,,,,,,,,,,,,,,,,,,,,,,,,,,,,,,,,,,,,,
095807,001,2022-11-20_23h55.25.358,Info_measure_main_exp,2022.2.2,Win32,59.3824228,,,,,,,,,,,,,,,,,,masks/mask_004.jpg,,,,,,,,,,,,,,,,,,,,,,,,,,,,,,,,,,,,,,,,,,,,,,,,0,1,1,3,1,,,,,,,,,,,,,,,,,,,,,,,,,,,,,,,,,,,,,,,,,
095807,001,2022-11-20_23h55.25.358,Info_measure_main_exp,2022.2.2,Win32,59.3824228,,,,,,,,,,,,,,,,,,masks/mask_003.jpg,,,,,,,,,,,,,,,,,,,,,,,,,,,,,,,,,,,,,,,,,,,,,,,,0,2,2,2,1,,,,,,,,,,,,,,,,,,,,,,,,,,,,,,,,,,,,,,,,,
095807,001,2022-11-20_23h55.25.358,Info_measure_main_exp,2022.2.2,Win32,59.3824228,,,,,,,,,,,,,,,,,,masks/mask_002.jpg,,,,,,,,,,,,,,,,,,,,,,,,,,,,,,,,,,,,,,,,,,,,,,,,0,3,3,1,1,,,,,,,,,,,,,,,,,,,,,,,,,,,,,,,,,,,,,,,,,
095807,001,2022-11-20_23h55.25.358,Info_measure_main_exp,2022.2.2,Win32,59.3824228,,,,,,,,,,,,,,,,,,masks/mask_005.jpg,,,,,,,,,,,,,,,,,,,,,,,,,,,,,,,,,,,,,,,,,,,,,,,,0,4,4,4,1,,,,,,,,,,,,,,,,,,,,,,,,,,,,,,,,,,,,,,,,,
095807,001,2022-11-20_23h55.25.358,Info_measure_main_exp,2022.2.2,Win32,59.3824228,,,,,,,,,,,,,,,,,,,,,,,,,,,,,,7,0.9889,1,,,,,,,,,,,,0,131,5,5,2214,2166,absent_patch/patch0002214.jpg,absent_patch/patch0002166.jpg,,,,,,,,,,,,,,,,,,,,0.053385417,0.188802083,1,0,0,response1disk,6,-0.001302083,0.010416667,1,0,0,center_square,0,5,5,109,1,,,,,,,,,,,,,,,,,,,,,,,
095807,001,2022-11-20_23h55.25.358,Info_measure_main_exp,2022.2.2,Win32,59.3824228,,,,,,,,,,,,,,,,,,masks/mask_004.jpg,,,,,,,,,,,,,,,,,,,,,,,,,,,,,,,,,,,,,,,,,,,0,0,0,3,1,,,,,,,,,,,,,,,,,,,,,,,,,,,,,,,,,,,,,,,,,,,,,,
095807,001,2022-11-20_23h55.25.358,Info_measure_main_exp,2022.2.2,Win32,59.3824228,,,,,,,,,,,,,,,,,,masks/mask_003.jpg,,,,,,,,,,,,,,,,,,,,,,,,,,,,,,,,,,,,,,,,,,,0,1,1,2,1,,,,,,,,,,,,,,,,,,,,,,,,,,,,,,,,,,,,,,,,,,,,,,
095807,001,2022-11-20_23h55.25.358,Info_measure_main_exp,2022.2.2,Win32,59.3824228,,,,,,,,,,,,,,,,,,masks/mask_001.jpg,,,,,,,,,,,,,,,,,,,,,,,,,,,,,,,,,,,,,,,,,,,0,2,2,0,1,,,,,,,,,,,,,,,,,,,,,,,,,,,,,,,,,,,,,,,,,,,,,,
095807,001,2022-11-20_23h55.25.358,Info_measure_main_exp,2022.2.2,Win32,59.3824228,,,,,,,,,,,,,,,,,,masks/mask_005.jpg,,,,,,,,,,,,,,,,,,,,,,,,,,,,,,,,,,,,,,,,,,,0,3,3,4,1,,,,,,,,,,,,,,,,,,,,,,,,,,,,,,,,,,,,,,,,,,,,,,
095807,001,2022-11-20_23h55.25.358,Info_measure_main_exp,2022.2.2,Win32,59.3824228,,,,,,,,,,,,,,,,,,masks/mask_002.jpg,,,,,,,,,,,,,,,,,,,,,,,,,,,,,,,,,,,,,,,,,,,0,4,4,1,1,,,,,,,,,,,,,,,,,,,,,,,,,,,,,,,,,,,,,,,,,,,,,,
095807,001,2022-11-20_23h55.25.358,Info_measure_main_exp,2022.2.2,Win32,59.3824228,,,,,,,,,,,,,,,,,,masks/mask_002.jpg,,,,,,,,,,,,,,,,,,,,,,,,,,,,,,,,,,,,,,,,,,,,,,,,0,0,0,1,1,,,,,,,,,,,,,,,,,,,,,,,,,,,,,,,,,,,,,,,,,
095807,001,2022-11-20_23h55.25.358,Info_measure_main_exp,2022.2.2,Win32,59.3824228,,,,,,,,,,,,,,,,,,masks/mask_003.jpg,,,,,,,,,,,,,,,,,,,,,,,,,,,,,,,,,,,,,,,,,,,,,,,,0,1,1,2,1,,,,,,,,,,,,,,,,,,,,,,,,,,,,,,,,,,,,,,,,,
095807,001,2022-11-20_23h55.25.358,Info_measure_main_exp,2022.2.2,Win32,59.3824228,,,,,,,,,,,,,,,,,,masks/mask_005.jpg,,,,,,,,,,,,,,,,,,,,,,,,,,,,,,,,,,,,,,,,,,,,,,,,0,2,2,4,1,,,,,,,,,,,,,,,,,,,,,,,,,,,,,,,,,,,,,,,,,
095807,001,2022-11-20_23h55.25.358,Info_measure_main_exp,2022.2.2,Win32,59.3824228,,,,,,,,,,,,,,,,,,masks/mask_004.jpg,,,,,,,,,,,,,,,,,,,,,,,,,,,,,,,,,,,,,,,,,,,,,,,,0,3,3,3,1,,,,,,,,,,,,,,,,,,,,,,,,,,,,,,,,,,,,,,,,,
095807,001,2022-11-20_23h55.25.358,Info_measure_main_exp,2022.2.2,Win32,59.3824228,,,,,,,,,,,,,,,,,,masks/mask_001.jpg,,,,,,,,,,,,,,,,,,,,,,,,,,,,,,,,,,,,,,,,,,,,,,,,0,4,4,0,1,,,,,,,,,,,,,,,,,,,,,,,,,,,,,,,,,,,,,,,,,
095807,001,2022-11-20_23h55.25.358,Info_measure_main_exp,2022.2.2,Win32,59.3824228,,,,,,,,,,,,,,,,,,,,,,,,,,,,,,7,0.9437,1,,,,,,,,,,,,0,131,5,5,2082,2166,absent_patch/patch0002082.jpg,absent_patch/patch0002166.jpg,,,,,,,,,,,,,,,,,,,,0.065104167,0.140625,1,0,0,response1disk,7,0.006510417,-0.002604167,1,0,0,center_square,0,6,6,43,1,,,,,,,,,,,,,,,,,,,,,,,
095807,001,2022-11-20_23h55.25.358,Info_measure_main_exp,2022.2.2,Win32,59.3824228,,,,,,,,,,,,,,,,,,masks/mask_001.jpg,,,,,,,,,,,,,,,,,,,,,,,,,,,,,,,,,,,,,,,,,,,0,0,0,0,1,,,,,,,,,,,,,,,,,,,,,,,,,,,,,,,,,,,,,,,,,,,,,,
095807,001,2022-11-20_23h55.25.358,Info_measure_main_exp,2022.2.2,Win32,59.3824228,,,,,,,,,,,,,,,,,,masks/mask_005.jpg,,,,,,,,,,,,,,,,,,,,,,,,,,,,,,,,,,,,,,,,,,,0,1,1,4,1,,,,,,,,,,,,,,,,,,,,,,,,,,,,,,,,,,,,,,,,,,,,,,
095807,001,2022-11-20_23h55.25.358,Info_measure_main_exp,2022.2.2,Win32,59.3824228,,,,,,,,,,,,,,,,,,masks/mask_002.jpg,,,,,,,,,,,,,,,,,,,,,,,,,,,,,,,,,,,,,,,,,,,0,2,2,1,1,,,,,,,,,,,,,,,,,,,,,,,,,,,,,,,,,,,,,,,,,,,,,,
095807,001,2022-11-20_23h55.25.358,Info_measure_main_exp,2022.2.2,Win32,59.3824228,,,,,,,,,,,,,,,,,,masks/mask_003.jpg,,,,,,,,,,,,,,,,,,,,,,,,,,,,,,,,,,,,,,,,,,,0,3,3,2,1,,,,,,,,,,,,,,,,,,,,,,,,,,,,,,,,,,,,,,,,,,,,,,
095807,001,2022-11-20_23h55.25.358,Info_measure_main_exp,2022.2.2,Win32,59.3824228,,,,,,,,,,,,,,,,,,masks/mask_004.jpg,,,,,,,,,,,,,,,,,,,,,,,,,,,,,,,,,,,,,,,,,,,0,4,4,3,1,,,,,,,,,,,,,,,,,,,,,,,,,,,,,,,,,,,,,,,,,,,,,,
095807,001,2022-11-20_23h55.25.358,Info_measure_main_exp,2022.2.2,Win32,59.3824228,,,,,,,,,,,,,,,,,,masks/mask_004.jpg,,,,,,,,,,,,,,,,,,,,,,,,,,,,,,,,,,,,,,,,,,,,,,,,0,0,0,3,1,,,,,,,,,,,,,,,,,,,,,,,,,,,,,,,,,,,,,,,,,
095807,001,2022-11-20_23h55.25.358,Info_measure_main_exp,2022.2.2,Win32,59.3824228,,,,,,,,,,,,,,,,,,masks/mask_001.jpg,,,,,,,,,,,,,,,,,,,,,,,,,,,,,,,,,,,,,,,,,,,,,,,,0,1,1,0,1,,,,,,,,,,,,,,,,,,,,,,,,,,,,,,,,,,,,,,,,,
095807,001,2022-11-20_23h55.25.358,Info_measure_main_exp,2022.2.2,Win32,59.3824228,,,,,,,,,,,,,,,,,,masks/mask_003.jpg,,,,,,,,,,,,,,,,,,,,,,,,,,,,,,,,,,,,,,,,,,,,,,,,0,2,2,2,1,,,,,,,,,,,,,,,,,,,,,,,,,,,,,,,,,,,,,,,,,
095807,001,2022-11-20_23h55.25.358,Info_measure_main_exp,2022.2.2,Win32,59.3824228,,,,,,,,,,,,,,,,,,masks/mask_002.jpg,,,,,,,,,,,,,,,,,,,,,,,,,,,,,,,,,,,,,,,,,,,,,,,,0,3,3,1,1,,,,,,,,,,,,,,,,,,,,,,,,,,,,,,,,,,,,,,,,,
095807,001,2022-11-20_23h55.25.358,Info_measure_main_exp,2022.2.2,Win32,59.3824228,,,,,,,,,,,,,,,,,,masks/mask_005.jpg,,,,,,,,,,,,,,,,,,,,,,,,,,,,,,,,,,,,,,,,,,,,,,,,0,4,4,4,1,,,,,,,,,,,,,,,,,,,,,,,,,,,,,,,,,,,,,,,,,
095807,001,2022-11-20_23h55.25.358,Info_measure_main_exp,2022.2.2,Win32,59.3824228,,,,,,,,,,,,,,,,,,,,,,,,,,,,,,0,0.7163,1,,,,,,,,,,,,0,131,5,5,2250,2250,absent_patch/patch0002250.jpg,absent_patch/patch0002250.jpg,,,,,,,,,,,,,,,,,,,,-0.046875,0.131510417,1,0,0,response7disk,8,0.005208333,0.006510417,1,0,0,center_square,0,7,7,56,1,,,,,,,,,,,,,,,,,,,,,,,
095807,001,2022-11-20_23h55.25.358,Info_measure_main_exp,2022.2.2,Win32,59.3824228,,,,,,,,,,,,,,,,,,masks/mask_004.jpg,,,,,,,,,,,,,,,,,,,,,,,,,,,,,,,,,,,,,,,,,,,0,0,0,3,1,,,,,,,,,,,,,,,,,,,,,,,,,,,,,,,,,,,,,,,,,,,,,,
095807,001,2022-11-20_23h55.25.358,Info_measure_main_exp,2022.2.2,Win32,59.3824228,,,,,,,,,,,,,,,,,,masks/mask_003.jpg,,,,,,,,,,,,,,,,,,,,,,,,,,,,,,,,,,,,,,,,,,,0,1,1,2,1,,,,,,,,,,,,,,,,,,,,,,,,,,,,,,,,,,,,,,,,,,,,,,
095807,001,2022-11-20_23h55.25.358,Info_measure_main_exp,2022.2.2,Win32,59.3824228,,,,,,,,,,,,,,,,,,masks/mask_005.jpg,,,,,,,,,,,,,,,,,,,,,,,,,,,,,,,,,,,,,,,,,,,0,2,2,4,1,,,,,,,,,,,,,,,,,,,,,,,,,,,,,,,,,,,,,,,,,,,,,,
095807,001,2022-11-20_23h55.25.358,Info_measure_main_exp,2022.2.2,Win32,59.3824228,,,,,,,,,,,,,,,,,,masks/mask_001.jpg,,,,,,,,,,,,,,,,,,,,,,,,,,,,,,,,,,,,,,,,,,,0,3,3,0,1,,,,,,,,,,,,,,,,,,,,,,,,,,,,,,,,,,,,,,,,,,,,,,
095807,001,2022-11-20_23h55.25.358,Info_measure_main_exp,2022.2.2,Win32,59.3824228,,,,,,,,,,,,,,,,,,masks/mask_002.jpg,,,,,,,,,,,,,,,,,,,,,,,,,,,,,,,,,,,,,,,,,,,0,4,4,1,1,,,,,,,,,,,,,,,,,,,,,,,,,,,,,,,,,,,,,,,,,,,,,,
095807,001,2022-11-20_23h55.25.358,Info_measure_main_exp,2022.2.2,Win32,59.3824228,,,,,,,,,,,,,,,,,,masks/mask_002.jpg,,,,,,,,,,,,,,,,,,,,,,,,,,,,,,,,,,,,,,,,,,,,,,,,0,0,0,1,1,,,,,,,,,,,,,,,,,,,,,,,,,,,,,,,,,,,,,,,,,
095807,001,2022-11-20_23h55.25.358,Info_measure_main_exp,2022.2.2,Win32,59.3824228,,,,,,,,,,,,,,,,,,masks/mask_001.jpg,,,,,,,,,,,,,,,,,,,,,,,,,,,,,,,,,,,,,,,,,,,,,,,,0,1,1,0,1,,,,,,,,,,,,,,,,,,,,,,,,,,,,,,,,,,,,,,,,,
095807,001,2022-11-20_23h55.25.358,Info_measure_main_exp,2022.2.2,Win32,59.3824228,,,,,,,,,,,,,,,,,,masks/mask_005.jpg,,,,,,,,,,,,,,,,,,,,,,,,,,,,,,,,,,,,,,,,,,,,,,,,0,2,2,4,1,,,,,,,,,,,,,,,,,,,,,,,,,,,,,,,,,,,,,,,,,
095807,001,2022-11-20_23h55.25.358,Info_measure_main_exp,2022.2.2,Win32,59.3824228,,,,,,,,,,,,,,,,,,masks/mask_004.jpg,,,,,,,,,,,,,,,,,,,,,,,,,,,,,,,,,,,,,,,,,,,,,,,,0,3,3,3,1,,,,,,,,,,,,,,,,,,,,,,,,,,,,,,,,,,,,,,,,,
095807,001,2022-11-20_23h55.25.358,Info_measure_main_exp,2022.2.2,Win32,59.3824228,,,,,,,,,,,,,,,,,,masks/mask_003.jpg,,,,,,,,,,,,,,,,,,,,,,,,,,,,,,,,,,,,,,,,,,,,,,,,0,4,4,2,1,,,,,,,,,,,,,,,,,,,,,,,,,,,,,,,,,,,,,,,,,
095807,001,2022-11-20_23h55.25.358,Info_measure_main_exp,2022.2.2,Win32,59.3824228,,,,,,,,,,,,,,,,,,,,,,,,,,,,,,7,0.7178,1,,,,,,,,,,,,0,131,5,5,2142,2154,absent_patch/patch0002142.jpg,absent_patch/patch0002154.jpg,,,,,,,,,,,,,,,,,,,,0.041666667,0.115885417,1,0,0,response1disk,9,0,-0.005208333,1,0,0,center_square,0,8,8,9,1,,,,,,,,,,,,,,,,,,,,,,,
095807,001,2022-11-20_23h55.25.358,Info_measure_main_exp,2022.2.2,Win32,59.3824228,,,,,,,,,,,,,,,,,,masks/mask_004.jpg,,,,,,,,,,,,,,,,,,,,,,,,,,,,,,,,,,,,,,,,,,,0,0,0,3,1,,,,,,,,,,,,,,,,,,,,,,,,,,,,,,,,,,,,,,,,,,,,,,
095807,001,2022-11-20_23h55.25.358,Info_measure_main_exp,2022.2.2,Win32,59.3824228,,,,,,,,,,,,,,,,,,masks/mask_003.jpg,,,,,,,,,,,,,,,,,,,,,,,,,,,,,,,,,,,,,,,,,,,0,1,1,2,1,,,,,,,,,,,,,,,,,,,,,,,,,,,,,,,,,,,,,,,,,,,,,,
095807,001,2022-11-20_23h55.25.358,Info_measure_main_exp,2022.2.2,Win32,59.3824228,,,,,,,,,,,,,,,,,,masks/mask_002.jpg,,,,,,,,,,,,,,,,,,,,,,,,,,,,,,,,,,,,,,,,,,,0,2,2,1,1,,,,,,,,,,,,,,,,,,,,,,,,,,,,,,,,,,,,,,,,,,,,,,
095807,001,2022-11-20_23h55.25.358,Info_measure_main_exp,2022.2.2,Win32,59.3824228,,,,,,,,,,,,,,,,,,masks/mask_005.jpg,,,,,,,,,,,,,,,,,,,,,,,,,,,,,,,,,,,,,,,,,,,0,3,3,4,1,,,,,,,,,,,,,,,,,,,,,,,,,,,,,,,,,,,,,,,,,,,,,,
095807,001,2022-11-20_23h55.25.358,Info_measure_main_exp,2022.2.2,Win32,59.3824228,,,,,,,,,,,,,,,,,,masks/mask_001.jpg,,,,,,,,,,,,,,,,,,,,,,,,,,,,,,,,,,,,,,,,,,,0,4,4,0,1,,,,,,,,,,,,,,,,,,,,,,,,,,,,,,,,,,,,,,,,,,,,,,
095807,001,2022-11-20_23h55.25.358,Info_measure_main_exp,2022.2.2,Win32,59.3824228,,,,,,,,,,,,,,,,,,masks/mask_004.jpg,,,,,,,,,,,,,,,,,,,,,,,,,,,,,,,,,,,,,,,,,,,,,,,,0,0,0,3,1,,,,,,,,,,,,,,,,,,,,,,,,,,,,,,,,,,,,,,,,,
095807,001,2022-11-20_23h55.25.358,Info_measure_main_exp,2022.2.2,Win32,59.3824228,,,,,,,,,,,,,,,,,,masks/mask_005.jpg,,,,,,,,,,,,,,,,,,,,,,,,,,,,,,,,,,,,,,,,,,,,,,,,0,1,1,4,1,,,,,,,,,,,,,,,,,,,,,,,,,,,,,,,,,,,,,,,,,
095807,001,2022-11-20_23h55.25.358,Info_measure_main_exp,2022.2.2,Win32,59.3824228,,,,,,,,,,,,,,,,,,masks/mask_001.jpg,,,,,,,,,,,,,,,,,,,,,,,,,,,,,,,,,,,,,,,,,,,,,,,,0,2,2,0,1,,,,,,,,,,,,,,,,,,,,,,,,,,,,,,,,,,,,,,,,,
095807,001,2022-11-20_23h55.25.358,Info_measure_main_exp,2022.2.2,Win32,59.3824228,,,,,,,,,,,,,,,,,,masks/mask_002.jpg,,,,,,,,,,,,,,,,,,,,,,,,,,,,,,,,,,,,,,,,,,,,,,,,0,3,3,1,1,,,,,,,,,,,,,,,,,,,,,,,,,,,,,,,,,,,,,,,,,
095807,001,2022-11-20_23h55.25.358,Info_measure_main_exp,2022.2.2,Win32,59.3824228,,,,,,,,,,,,,,,,,,masks/mask_003.jpg,,,,,,,,,,,,,,,,,,,,,,,,,,,,,,,,,,,,,,,,,,,,,,,,0,4,4,2,1,,,,,,,,,,,,,,,,,,,,,,,,,,,,,,,,,,,,,,,,,
095807,001,2022-11-20_23h55.25.358,Info_measure_main_exp,2022.2.2,Win32,59.3824228,,,,,,,,,,,,,,,,,,,,,,,,,,,,,,7,0.5864,1,,,,,,,,,,,,0,131,5,5,2298,2274,absent_patch/patch0002298.jpg,absent_patch/patch0002274.jpg,,,,,,,,,,,,,,,,,,,,0.0546875,0.12109375,1,0,0,response1disk,10,-0.002604167,0,1,0,0,center_square,0,9,9,1,1,,,,,,,,,,,,,,,,,,,,,,,
095807,001,2022-11-20_23h55.25.358,Info_measure_main_exp,2022.2.2,Win32,59.3824228,,,,,,,,,,,,,,,,,,masks/mask_002.jpg,,,,,,,,,,,,,,,,,,,,,,,,,,,,,,,,,,,,,,,,,,,0,0,0,1,1,,,,,,,,,,,,,,,,,,,,,,,,,,,,,,,,,,,,,,,,,,,,,,
095807,001,2022-11-20_23h55.25.358,Info_measure_main_exp,2022.2.2,Win32,59.3824228,,,,,,,,,,,,,,,,,,masks/mask_003.jpg,,,,,,,,,,,,,,,,,,,,,,,,,,,,,,,,,,,,,,,,,,,0,1,1,2,1,,,,,,,,,,,,,,,,,,,,,,,,,,,,,,,,,,,,,,,,,,,,,,
095807,001,2022-11-20_23h55.25.358,Info_measure_main_exp,2022.2.2,Win32,59.3824228,,,,,,,,,,,,,,,,,,masks/mask_004.jpg,,,,,,,,,,,,,,,,,,,,,,,,,,,,,,,,,,,,,,,,,,,0,2,2,3,1,,,,,,,,,,,,,,,,,,,,,,,,,,,,,,,,,,,,,,,,,,,,,,
095807,001,2022-11-20_23h55.25.358,Info_measure_main_exp,2022.2.2,Win32,59.3824228,,,,,,,,,,,,,,,,,,masks/mask_001.jpg,,,,,,,,,,,,,,,,,,,,,,,,,,,,,,,,,,,,,,,,,,,0,3,3,0,1,,,,,,,,,,,,,,,,,,,,,,,,,,,,,,,,,,,,,,,,,,,,,,
095807,001,2022-11-20_23h55.25.358,Info_measure_main_exp,2022.2.2,Win32,59.3824228,,,,,,,,,,,,,,,,,,masks/mask_005.jpg,,,,,,,,,,,,,,,,,,,,,,,,,,,,,,,,,,,,,,,,,,,0,4,4,4,1,,,,,,,,,,,,,,,,,,,,,,,,,,,,,,,,,,,,,,,,,,,,,,
095807,001,2022-11-20_23h55.25.358,Info_measure_main_exp,2022.2.2,Win32,59.3824228,,,,,,,,,,,,,,,,,,masks/mask_003.jpg,,,,,,,,,,,,,,,,,,,,,,,,,,,,,,,,,,,,,,,,,,,,,,,,0,0,0,2,1,,,,,,,,,,,,,,,,,,,,,,,,,,,,,,,,,,,,,,,,,
095807,001,2022-11-20_23h55.25.358,Info_measure_main_exp,2022.2.2,Win32,59.3824228,,,,,,,,,,,,,,,,,,masks/mask_004.jpg,,,,,,,,,,,,,,,,,,,,,,,,,,,,,,,,,,,,,,,,,,,,,,,,0,1,1,3,1,,,,,,,,,,,,,,,,,,,,,,,,,,,,,,,,,,,,,,,,,
095807,001,2022-11-20_23h55.25.358,Info_measure_main_exp,2022.2.2,Win32,59.3824228,,,,,,,,,,,,,,,,,,masks/mask_002.jpg,,,,,,,,,,,,,,,,,,,,,,,,,,,,,,,,,,,,,,,,,,,,,,,,0,2,2,1,1,,,,,,,,,,,,,,,,,,,,,,,,,,,,,,,,,,,,,,,,,
095807,001,2022-11-20_23h55.25.358,Info_measure_main_exp,2022.2.2,Win32,59.3824228,,,,,,,,,,,,,,,,,,masks/mask_005.jpg,,,,,,,,,,,,,,,,,,,,,,,,,,,,,,,,,,,,,,,,,,,,,,,,0,3,3,4,1,,,,,,,,,,,,,,,,,,,,,,,,,,,,,,,,,,,,,,,,,
095807,001,2022-11-20_23h55.25.358,Info_measure_main_exp,2022.2.2,Win32,59.3824228,,,,,,,,,,,,,,,,,,masks/mask_001.jpg,,,,,,,,,,,,,,,,,,,,,,,,,,,,,,,,,,,,,,,,,,,,,,,,0,4,4,0,1,,,,,,,,,,,,,,,,,,,,,,,,,,,,,,,,,,,,,,,,,
095807,001,2022-11-20_23h55.25.358,Info_measure_main_exp,2022.2.2,Win32,59.3824228,,,,,,,,,,,,,,,,,,,,,,,,,,,,,,5,2.6793,1,,,,,,,,,,,,0,131,5,5,2190,2082,absent_patch/patch0002190.jpg,absent_patch/patch0002082.jpg,,,,,,,,,,,,,,,,,,,,0.147135417,-0.032552083,1,0,0,response3disk,11,0,-0.006510417,1,0,0,center_square,0,10,10,112,1,,,,,,,,,,,,,,,,,,,,,,,
095807,001,2022-11-20_23h55.25.358,Info_measure_main_exp,2022.2.2,Win32,59.3824228,,,,,,,,,,,,,,,,,,masks/mask_002.jpg,,,,,,,,,,,,,,,,,,,,,,,,,,,,,,,,,,,,,,,,,,,0,0,0,1,1,,,,,,,,,,,,,,,,,,,,,,,,,,,,,,,,,,,,,,,,,,,,,,
095807,001,2022-11-20_23h55.25.358,Info_measure_main_exp,2022.2.2,Win32,59.3824228,,,,,,,,,,,,,,,,,,masks/mask_003.jpg,,,,,,,,,,,,,,,,,,,,,,,,,,,,,,,,,,,,,,,,,,,0,1,1,2,1,,,,,,,,,,,,,,,,,,,,,,,,,,,,,,,,,,,,,,,,,,,,,,
095807,001,2022-11-20_23h55.25.358,Info_measure_main_exp,2022.2.2,Win32,59.3824228,,,,,,,,,,,,,,,,,,masks/mask_005.jpg,,,,,,,,,,,,,,,,,,,,,,,,,,,,,,,,,,,,,,,,,,,0,2,2,4,1,,,,,,,,,,,,,,,,,,,,,,,,,,,,,,,,,,,,,,,,,,,,,,
095807,001,2022-11-20_23h55.25.358,Info_measure_main_exp,2022.2.2,Win32,59.3824228,,,,,,,,,,,,,,,,,,masks/mask_004.jpg,,,,,,,,,,,,,,,,,,,,,,,,,,,,,,,,,,,,,,,,,,,0,3,3,3,1,,,,,,,,,,,,,,,,,,,,,,,,,,,,,,,,,,,,,,,,,,,,,,
095807,001,2022-11-20_23h55.25.358,Info_measure_main_exp,2022.2.2,Win32,59.3824228,,,,,,,,,,,,,,,,,,masks/mask_001.jpg,,,,,,,,,,,,,,,,,,,,,,,,,,,,,,,,,,,,,,,,,,,0,4,4,0,1,,,,,,,,,,,,,,,,,,,,,,,,,,,,,,,,,,,,,,,,,,,,,,
095807,001,2022-11-20_23h55.25.358,Info_measure_main_exp,2022.2.2,Win32,59.3824228,,,,,,,,,,,,,,,,,,masks/mask_002.jpg,,,,,,,,,,,,,,,,,,,,,,,,,,,,,,,,,,,,,,,,,,,,,,,,0,0,0,1,1,,,,,,,,,,,,,,,,,,,,,,,,,,,,,,,,,,,,,,,,,
095807,001,2022-11-20_23h55.25.358,Info_measure_main_exp,2022.2.2,Win32,59.3824228,,,,,,,,,,,,,,,,,,masks/mask_005.jpg,,,,,,,,,,,,,,,,,,,,,,,,,,,,,,,,,,,,,,,,,,,,,,,,0,1,1,4,1,,,,,,,,,,,,,,,,,,,,,,,,,,,,,,,,,,,,,,,,,
095807,001,2022-11-20_23h55.25.358,Info_measure_main_exp,2022.2.2,Win32,59.3824228,,,,,,,,,,,,,,,,,,masks/mask_001.jpg,,,,,,,,,,,,,,,,,,,,,,,,,,,,,,,,,,,,,,,,,,,,,,,,0,2,2,0,1,,,,,,,,,,,,,,,,,,,,,,,,,,,,,,,,,,,,,,,,,
095807,001,2022-11-20_23h55.25.358,Info_measure_main_exp,2022.2.2,Win32,59.3824228,,,,,,,,,,,,,,,,,,masks/mask_003.jpg,,,,,,,,,,,,,,,,,,,,,,,,,,,,,,,,,,,,,,,,,,,,,,,,0,3,3,2,1,,,,,,,,,,,,,,,,,,,,,,,,,,,,,,,,,,,,,,,,,
095807,001,2022-11-20_23h55.25.358,Info_measure_main_exp,2022.2.2,Win32,59.3824228,,,,,,,,,,,,,,,,,,masks/mask_004.jpg,,,,,,,,,,,,,,,,,,,,,,,,,,,,,,,,,,,,,,,,,,,,,,,,0,4,4,3,1,,,,,,,,,,,,,,,,,,,,,,,,,,,,,,,,,,,,,,,,,
095807,001,2022-11-20_23h55.25.358,Info_measure_main_exp,2022.2.2,Win32,59.3824228,,,,,,,,,,,,,,,,,,,,,,,,,,,,,,7,0.6336,1,,,,,,,,,,,,0,131,5,5,2250,1986,absent_patch/patch0002250.jpg,absent_patch/patch0001986.jpg,,,,,,,,,,,,,,,,,,,,0.0390625,0.143229167,1,0,0,response1disk,12,-0.00390625,0.013020833,1,0,0,center_square,0,11,11,29,1,,,,,,,,,,,,,,,,,,,,,,,
095807,001,2022-11-20_23h55.25.358,Info_measure_main_exp,2022.2.2,Win32,59.3824228,,,,,,,,,,,,,,,,,,masks/mask_001.jpg,,,,,,,,,,,,,,,,,,,,,,,,,,,,,,,,,,,,,,,,,,,0,0,0,0,1,,,,,,,,,,,,,,,,,,,,,,,,,,,,,,,,,,,,,,,,,,,,,,
095807,001,2022-11-20_23h55.25.358,Info_measure_main_exp,2022.2.2,Win32,59.3824228,,,,,,,,,,,,,,,,,,masks/mask_003.jpg,,,,,,,,,,,,,,,,,,,,,,,,,,,,,,,,,,,,,,,,,,,0,1,1,2,1,,,,,,,,,,,,,,,,,,,,,,,,,,,,,,,,,,,,,,,,,,,,,,
095807,001,2022-11-20_23h55.25.358,Info_measure_main_exp,2022.2.2,Win32,59.3824228,,,,,,,,,,,,,,,,,,masks/mask_004.jpg,,,,,,,,,,,,,,,,,,,,,,,,,,,,,,,,,,,,,,,,,,,0,2,2,3,1,,,,,,,,,,,,,,,,,,,,,,,,,,,,,,,,,,,,,,,,,,,,,,
095807,001,2022-11-20_23h55.25.358,Info_measure_main_exp,2022.2.2,Win32,59.3824228,,,,,,,,,,,,,,,,,,masks/mask_002.jpg,,,,,,,,,,,,,,,,,,,,,,,,,,,,,,,,,,,,,,,,,,,0,3,3,1,1,,,,,,,,,,,,,,,,,,,,,,,,,,,,,,,,,,,,,,,,,,,,,,
095807,001,2022-11-20_23h55.25.358,Info_measure_main_exp,2022.2.2,Win32,59.3824228,,,,,,,,,,,,,,,,,,masks/mask_005.jpg,,,,,,,,,,,,,,,,,,,,,,,,,,,,,,,,,,,,,,,,,,,0,4,4,4,1,,,,,,,,,,,,,,,,,,,,,,,,,,,,,,,,,,,,,,,,,,,,,,
095807,001,2022-11-20_23h55.25.358,Info_measure_main_exp,2022.2.2,Win32,59.3824228,,,,,,,,,,,,,,,,,,masks/mask_005.jpg,,,,,,,,,,,,,,,,,,,,,,,,,,,,,,,,,,,,,,,,,,,,,,,,0,0,0,4,1,,,,,,,,,,,,,,,,,,,,,,,,,,,,,,,,,,,,,,,,,
095807,001,2022-11-20_23h55.25.358,Info_measure_main_exp,2022.2.2,Win32,59.3824228,,,,,,,,,,,,,,,,,,masks/mask_002.jpg,,,,,,,,,,,,,,,,,,,,,,,,,,,,,,,,,,,,,,,,,,,,,,,,0,1,1,1,1,,,,,,,,,,,,,,,,,,,,,,,,,,,,,,,,,,,,,,,,,
095807,001,2022-11-20_23h55.25.358,Info_measure_main_exp,2022.2.2,Win32,59.3824228,,,,,,,,,,,,,,,,,,masks/mask_004.jpg,,,,,,,,,,,,,,,,,,,,,,,,,,,,,,,,,,,,,,,,,,,,,,,,0,2,2,3,1,,,,,,,,,,,,,,,,,,,,,,,,,,,,,,,,,,,,,,,,,
095807,001,2022-11-20_23h55.25.358,Info_measure_main_exp,2022.2.2,Win32,59.3824228,,,,,,,,,,,,,,,,,,masks/mask_001.jpg,,,,,,,,,,,,,,,,,,,,,,,,,,,,,,,,,,,,,,,,,,,,,,,,0,3,3,0,1,,,,,,,,,,,,,,,,,,,,,,,,,,,,,,,,,,,,,,,,,
095807,001,2022-11-20_23h55.25.358,Info_measure_main_exp,2022.2.2,Win32,59.3824228,,,,,,,,,,,,,,,,,,masks/mask_003.jpg,,,,,,,,,,,,,,,,,,,,,,,,,,,,,,,,,,,,,,,,,,,,,,,,0,4,4,2,1,,,,,,,,,,,,,,,,,,,,,,,,,,,,,,,,,,,,,,,,,
095807,001,2022-11-20_23h55.25.358,Info_measure_main_exp,2022.2.2,Win32,59.3824228,,,,,,,,,,,,,,,,,,,,,,,,,,,,,,7,0.9203,1,,,,,,,,,,,,0,131,5,5,2142,2166,absent_patch/patch0002142.jpg,absent_patch/patch0002166.jpg,,,,,,,,,,,,,,,,,,,,0.041666667,0.0859375,1,0,0,response1disk,13,0.0078125,0.01171875,1,0,0,center_square,0,12,12,66,1,,,,,,,,,,,,,,,,,,,,,,,
095807,001,2022-11-20_23h55.25.358,Info_measure_main_exp,2022.2.2,Win32,59.3824228,,,,,,,,,,,,,,,,,,masks/mask_001.jpg,,,,,,,,,,,,,,,,,,,,,,,,,,,,,,,,,,,,,,,,,,,0,0,0,0,1,,,,,,,,,,,,,,,,,,,,,,,,,,,,,,,,,,,,,,,,,,,,,,
095807,001,2022-11-20_23h55.25.358,Info_measure_main_exp,2022.2.2,Win32,59.3824228,,,,,,,,,,,,,,,,,,masks/mask_003.jpg,,,,,,,,,,,,,,,,,,,,,,,,,,,,,,,,,,,,,,,,,,,0,1,1,2,1,,,,,,,,,,,,,,,,,,,,,,,,,,,,,,,,,,,,,,,,,,,,,,
095807,001,2022-11-20_23h55.25.358,Info_measure_main_exp,2022.2.2,Win32,59.3824228,,,,,,,,,,,,,,,,,,masks/mask_005.jpg,,,,,,,,,,,,,,,,,,,,,,,,,,,,,,,,,,,,,,,,,,,0,2,2,4,1,,,,,,,,,,,,,,,,,,,,,,,,,,,,,,,,,,,,,,,,,,,,,,
095807,001,2022-11-20_23h55.25.358,Info_measure_main_exp,2022.2.2,Win32,59.3824228,,,,,,,,,,,,,,,,,,masks/mask_004.jpg,,,,,,,,,,,,,,,,,,,,,,,,,,,,,,,,,,,,,,,,,,,0,3,3,3,1,,,,,,,,,,,,,,,,,,,,,,,,,,,,,,,,,,,,,,,,,,,,,,
095807,001,2022-11-20_23h55.25.358,Info_measure_main_exp,2022.2.2,Win32,59.3824228,,,,,,,,,,,,,,,,,,masks/mask_002.jpg,,,,,,,,,,,,,,,,,,,,,,,,,,,,,,,,,,,,,,,,,,,0,4,4,1,1,,,,,,,,,,,,,,,,,,,,,,,,,,,,,,,,,,,,,,,,,,,,,,
095807,001,2022-11-20_23h55.25.358,Info_measure_main_exp,2022.2.2,Win32,59.3824228,,,,,,,,,,,,,,,,,,masks/mask_004.jpg,,,,,,,,,,,,,,,,,,,,,,,,,,,,,,,,,,,,,,,,,,,,,,,,0,0,0,3,1,,,,,,,,,,,,,,,,,,,,,,,,,,,,,,,,,,,,,,,,,
095807,001,2022-11-20_23h55.25.358,Info_measure_main_exp,2022.2.2,Win32,59.3824228,,,,,,,,,,,,,,,,,,masks/mask_001.jpg,,,,,,,,,,,,,,,,,,,,,,,,,,,,,,,,,,,,,,,,,,,,,,,,0,1,1,0,1,,,,,,,,,,,,,,,,,,,,,,,,,,,,,,,,,,,,,,,,,
095807,001,2022-11-20_23h55.25.358,Info_measure_main_exp,2022.2.2,Win32,59.3824228,,,,,,,,,,,,,,,,,,masks/mask_003.jpg,,,,,,,,,,,,,,,,,,,,,,,,,,,,,,,,,,,,,,,,,,,,,,,,0,2,2,2,1,,,,,,,,,,,,,,,,,,,,,,,,,,,,,,,,,,,,,,,,,
095807,001,2022-11-20_23h55.25.358,Info_measure_main_exp,2022.2.2,Win32,59.3824228,,,,,,,,,,,,,,,,,,masks/mask_005.jpg,,,,,,,,,,,,,,,,,,,,,,,,,,,,,,,,,,,,,,,,,,,,,,,,0,3,3,4,1,,,,,,,,,,,,,,,,,,,,,,,,,,,,,,,,,,,,,,,,,
095807,001,2022-11-20_23h55.25.358,Info_measure_main_exp,2022.2.2,Win32,59.3824228,,,,,,,,,,,,,,,,,,masks/mask_002.jpg,,,,,,,,,,,,,,,,,,,,,,,,,,,,,,,,,,,,,,,,,,,,,,,,0,4,4,1,1,,,,,,,,,,,,,,,,,,,,,,,,,,,,,,,,,,,,,,,,,
095807,001,2022-11-20_23h55.25.358,Info_measure_main_exp,2022.2.2,Win32,59.3824228,,,,,,,,,,,,,,,,,,,,,,,,,,,,,,7,0.5358,1,,,,,,,,,,,,0,131,5,5,2154,2214,absent_patch/patch0002154.jpg,absent_patch/patch0002214.jpg,,,,,,,,,,,,,,,,,,,,0.049479167,0.088541667,1,0,0,response1disk,14,-0.00390625,-0.00390625,1,0,0,center_square,0,13,13,67,1,,,,,,,,,,,,,,,,,,,,,,,
095807,001,2022-11-20_23h55.25.358,Info_measure_main_exp,2022.2.2,Win32,59.3824228,,,,,,,,,,,,,,,,,,masks/mask_003.jpg,,,,,,,,,,,,,,,,,,,,,,,,,,,,,,,,,,,,,,,,,,,0,0,0,2,1,,,,,,,,,,,,,,,,,,,,,,,,,,,,,,,,,,,,,,,,,,,,,,
095807,001,2022-11-20_23h55.25.358,Info_measure_main_exp,2022.2.2,Win32,59.3824228,,,,,,,,,,,,,,,,,,masks/mask_004.jpg,,,,,,,,,,,,,,,,,,,,,,,,,,,,,,,,,,,,,,,,,,,0,1,1,3,1,,,,,,,,,,,,,,,,,,,,,,,,,,,,,,,,,,,,,,,,,,,,,,
095807,001,2022-11-20_23h55.25.358,Info_measure_main_exp,2022.2.2,Win32,59.3824228,,,,,,,,,,,,,,,,,,masks/mask_001.jpg,,,,,,,,,,,,,,,,,,,,,,,,,,,,,,,,,,,,,,,,,,,0,2,2,0,1,,,,,,,,,,,,,,,,,,,,,,,,,,,,,,,,,,,,,,,,,,,,,,
095807,001,2022-11-20_23h55.25.358,Info_measure_main_exp,2022.2.2,Win32,59.3824228,,,,,,,,,,,,,,,,,,masks/mask_005.jpg,,,,,,,,,,,,,,,,,,,,,,,,,,,,,,,,,,,,,,,,,,,0,3,3,4,1,,,,,,,,,,,,,,,,,,,,,,,,,,,,,,,,,,,,,,,,,,,,,,
095807,001,2022-11-20_23h55.25.358,Info_measure_main_exp,2022.2.2,Win32,59.3824228,,,,,,,,,,,,,,,,,,masks/mask_002.jpg,,,,,,,,,,,,,,,,,,,,,,,,,,,,,,,,,,,,,,,,,,,0,4,4,1,1,,,,,,,,,,,,,,,,,,,,,,,,,,,,,,,,,,,,,,,,,,,,,,
095807,001,2022-11-20_23h55.25.358,Info_measure_main_exp,2022.2.2,Win32,59.3824228,,,,,,,,,,,,,,,,,,masks/mask_004.jpg,,,,,,,,,,,,,,,,,,,,,,,,,,,,,,,,,,,,,,,,,,,,,,,,0,0,0,3,1,,,,,,,,,,,,,,,,,,,,,,,,,,,,,,,,,,,,,,,,,
095807,001,2022-11-20_23h55.25.358,Info_measure_main_exp,2022.2.2,Win32,59.3824228,,,,,,,,,,,,,,,,,,masks/mask_002.jpg,,,,,,,,,,,,,,,,,,,,,,,,,,,,,,,,,,,,,,,,,,,,,,,,0,1,1,1,1,,,,,,,,,,,,,,,,,,,,,,,,,,,,,,,,,,,,,,,,,
095807,001,2022-11-20_23h55.25.358,Info_measure_main_exp,2022.2.2,Win32,59.3824228,,,,,,,,,,,,,,,,,,masks/mask_001.jpg,,,,,,,,,,,,,,,,,,,,,,,,,,,,,,,,,,,,,,,,,,,,,,,,0,2,2,0,1,,,,,,,,,,,,,,,,,,,,,,,,,,,,,,,,,,,,,,,,,
095807,001,2022-11-20_23h55.25.358,Info_measure_main_exp,2022.2.2,Win32,59.3824228,,,,,,,,,,,,,,,,,,masks/mask_005.jpg,,,,,,,,,,,,,,,,,,,,,,,,,,,,,,,,,,,,,,,,,,,,,,,,0,3,3,4,1,,,,,,,,,,,,,,,,,,,,,,,,,,,,,,,,,,,,,,,,,
095807,001,2022-11-20_23h55.25.358,Info_measure_main_exp,2022.2.2,Win32,59.3824228,,,,,,,,,,,,,,,,,,masks/mask_003.jpg,,,,,,,,,,,,,,,,,,,,,,,,,,,,,,,,,,,,,,,,,,,,,,,,0,4,4,2,1,,,,,,,,,,,,,,,,,,,,,,,,,,,,,,,,,,,,,,,,,
095807,001,2022-11-20_23h55.25.358,Info_measure_main_exp,2022.2.2,Win32,59.3824228,,,,,,,,,,,,,,,,,,,,,,,,,,,,,,7,0.6337,1,,,,,,,,,,,,0,131,5,5,2154,2298,absent_patch/patch0002154.jpg,absent_patch/patch0002298.jpg,,,,,,,,,,,,,,,,,,,,0.040364583,0.09765625,1,0,0,response1disk,15,0.009114583,0.0078125,1,0,0,center_square,0,14,14,27,1,,,,,,,,,,,,,,,,,,,,,,,
095807,001,2022-11-20_23h55.25.358,Info_measure_main_exp,2022.2.2,Win32,59.3824228,,,,,,,,,,,,,,,,,,masks/mask_002.jpg,,,,,,,,,,,,,,,,,,,,,,,,,,,,,,,,,,,,,,,,,,,0,0,0,1,1,,,,,,,,,,,,,,,,,,,,,,,,,,,,,,,,,,,,,,,,,,,,,,
095807,001,2022-11-20_23h55.25.358,Info_measure_main_exp,2022.2.2,Win32,59.3824228,,,,,,,,,,,,,,,,,,masks/mask_001.jpg,,,,,,,,,,,,,,,,,,,,,,,,,,,,,,,,,,,,,,,,,,,0,1,1,0,1,,,,,,,,,,,,,,,,,,,,,,,,,,,,,,,,,,,,,,,,,,,,,,
095807,001,2022-11-20_23h55.25.358,Info_measure_main_exp,2022.2.2,Win32,59.3824228,,,,,,,,,,,,,,,,,,masks/mask_003.jpg,,,,,,,,,,,,,,,,,,,,,,,,,,,,,,,,,,,,,,,,,,,0,2,2,2,1,,,,,,,,,,,,,,,,,,,,,,,,,,,,,,,,,,,,,,,,,,,,,,
095807,001,2022-11-20_23h55.25.358,Info_measure_main_exp,2022.2.2,Win32,59.3824228,,,,,,,,,,,,,,,,,,masks/mask_004.jpg,,,,,,,,,,,,,,,,,,,,,,,,,,,,,,,,,,,,,,,,,,,0,3,3,3,1,,,,,,,,,,,,,,,,,,,,,,,,,,,,,,,,,,,,,,,,,,,,,,
095807,001,2022-11-20_23h55.25.358,Info_measure_main_exp,2022.2.2,Win32,59.3824228,,,,,,,,,,,,,,,,,,masks/mask_005.jpg,,,,,,,,,,,,,,,,,,,,,,,,,,,,,,,,,,,,,,,,,,,0,4,4,4,1,,,,,,,,,,,,,,,,,,,,,,,,,,,,,,,,,,,,,,,,,,,,,,
095807,001,2022-11-20_23h55.25.358,Info_measure_main_exp,2022.2.2,Win32,59.3824228,,,,,,,,,,,,,,,,,,masks/mask_001.jpg,,,,,,,,,,,,,,,,,,,,,,,,,,,,,,,,,,,,,,,,,,,,,,,,0,0,0,0,1,,,,,,,,,,,,,,,,,,,,,,,,,,,,,,,,,,,,,,,,,
095807,001,2022-11-20_23h55.25.358,Info_measure_main_exp,2022.2.2,Win32,59.3824228,,,,,,,,,,,,,,,,,,masks/mask_004.jpg,,,,,,,,,,,,,,,,,,,,,,,,,,,,,,,,,,,,,,,,,,,,,,,,0,1,1,3,1,,,,,,,,,,,,,,,,,,,,,,,,,,,,,,,,,,,,,,,,,
095807,001,2022-11-20_23h55.25.358,Info_measure_main_exp,2022.2.2,Win32,59.3824228,,,,,,,,,,,,,,,,,,masks/mask_002.jpg,,,,,,,,,,,,,,,,,,,,,,,,,,,,,,,,,,,,,,,,,,,,,,,,0,2,2,1,1,,,,,,,,,,,,,,,,,,,,,,,,,,,,,,,,,,,,,,,,,
095807,001,2022-11-20_23h55.25.358,Info_measure_main_exp,2022.2.2,Win32,59.3824228,,,,,,,,,,,,,,,,,,masks/mask_003.jpg,,,,,,,,,,,,,,,,,,,,,,,,,,,,,,,,,,,,,,,,,,,,,,,,0,3,3,2,1,,,,,,,,,,,,,,,,,,,,,,,,,,,,,,,,,,,,,,,,,
095807,001,2022-11-20_23h55.25.358,Info_measure_main_exp,2022.2.2,Win32,59.3824228,,,,,,,,,,,,,,,,,,masks/mask_005.jpg,,,,,,,,,,,,,,,,,,,,,,,,,,,,,,,,,,,,,,,,,,,,,,,,0,4,4,4,1,,,,,,,,,,,,,,,,,,,,,,,,,,,,,,,,,,,,,,,,,
095807,001,2022-11-20_23h55.25.358,Info_measure_main_exp,2022.2.2,Win32,59.3824228,,,,,,,,,,,,,,,,,,,,,,,,,,,,,,7,0.534,1,,,,,,,,,,,,0,131,5,5,2238,2166,absent_patch/patch0002238.jpg,absent_patch/patch0002166.jpg,,,,,,,,,,,,,,,,,,,,0.03515625,0.130208333,1,0,0,response1disk,16,-0.001302083,0.001302083,1,0,0,center_square,0,15,15,118,1,,,,,,,,,,,,,,,,,,,,,,,
095807,001,2022-11-20_23h55.25.358,Info_measure_main_exp,2022.2.2,Win32,59.3824228,,,,,,,,,,,,,,,,,,masks/mask_001.jpg,,,,,,,,,,,,,,,,,,,,,,,,,,,,,,,,,,,,,,,,,,,0,0,0,0,1,,,,,,,,,,,,,,,,,,,,,,,,,,,,,,,,,,,,,,,,,,,,,,
095807,001,2022-11-20_23h55.25.358,Info_measure_main_exp,2022.2.2,Win32,59.3824228,,,,,,,,,,,,,,,,,,masks/mask_002.jpg,,,,,,,,,,,,,,,,,,,,,,,,,,,,,,,,,,,,,,,,,,,0,1,1,1,1,,,,,,,,,,,,,,,,,,,,,,,,,,,,,,,,,,,,,,,,,,,,,,
095807,001,2022-11-20_23h55.25.358,Info_measure_main_exp,2022.2.2,Win32,59.3824228,,,,,,,,,,,,,,,,,,masks/mask_005.jpg,,,,,,,,,,,,,,,,,,,,,,,,,,,,,,,,,,,,,,,,,,,0,2,2,4,1,,,,,,,,,,,,,,,,,,,,,,,,,,,,,,,,,,,,,,,,,,,,,,
095807,001,2022-11-20_23h55.25.358,Info_measure_main_exp,2022.2.2,Win32,59.3824228,,,,,,,,,,,,,,,,,,masks/mask_003.jpg,,,,,,,,,,,,,,,,,,,,,,,,,,,,,,,,,,,,,,,,,,,0,3,3,2,1,,,,,,,,,,,,,,,,,,,,,,,,,,,,,,,,,,,,,,,,,,,,,,
095807,001,2022-11-20_23h55.25.358,Info_measure_main_exp,2022.2.2,Win32,59.3824228,,,,,,,,,,,,,,,,,,masks/mask_004.jpg,,,,,,,,,,,,,,,,,,,,,,,,,,,,,,,,,,,,,,,,,,,0,4,4,3,1,,,,,,,,,,,,,,,,,,,,,,,,,,,,,,,,,,,,,,,,,,,,,,
095807,001,2022-11-20_23h55.25.358,Info_measure_main_exp,2022.2.2,Win32,59.3824228,,,,,,,,,,,,,,,,,,masks/mask_005.jpg,,,,,,,,,,,,,,,,,,,,,,,,,,,,,,,,,,,,,,,,,,,,,,,,0,0,0,4,1,,,,,,,,,,,,,,,,,,,,,,,,,,,,,,,,,,,,,,,,,
095807,001,2022-11-20_23h55.25.358,Info_measure_main_exp,2022.2.2,Win32,59.3824228,,,,,,,,,,,,,,,,,,masks/mask_002.jpg,,,,,,,,,,,,,,,,,,,,,,,,,,,,,,,,,,,,,,,,,,,,,,,,0,1,1,1,1,,,,,,,,,,,,,,,,,,,,,,,,,,,,,,,,,,,,,,,,,
095807,001,2022-11-20_23h55.25.358,Info_measure_main_exp,2022.2.2,Win32,59.3824228,,,,,,,,,,,,,,,,,,masks/mask_001.jpg,,,,,,,,,,,,,,,,,,,,,,,,,,,,,,,,,,,,,,,,,,,,,,,,0,2,2,0,1,,,,,,,,,,,,,,,,,,,,,,,,,,,,,,,,,,,,,,,,,
095807,001,2022-11-20_23h55.25.358,Info_measure_main_exp,2022.2.2,Win32,59.3824228,,,,,,,,,,,,,,,,,,masks/mask_003.jpg,,,,,,,,,,,,,,,,,,,,,,,,,,,,,,,,,,,,,,,,,,,,,,,,0,3,3,2,1,,,,,,,,,,,,,,,,,,,,,,,,,,,,,,,,,,,,,,,,,
095807,001,2022-11-20_23h55.25.358,Info_measure_main_exp,2022.2.2,Win32,59.3824228,,,,,,,,,,,,,,,,,,masks/mask_004.jpg,,,,,,,,,,,,,,,,,,,,,,,,,,,,,,,,,,,,,,,,,,,,,,,,0,4,4,3,1,,,,,,,,,,,,,,,,,,,,,,,,,,,,,,,,,,,,,,,,,
095807,001,2022-11-20_23h55.25.358,Info_measure_main_exp,2022.2.2,Win32,59.3824228,,,,,,,,,,,,,,,,,,,,,,,,,,,,,,7,0.4137,1,,,,,,,,,,,,1,131,5,5,1,2142,present_patch/cong_131_5_a.jpg,absent_patch/patch0002142.jpg,,,,,,,,,,,,,,,,,,,,0.087239583,0.16796875,1,0,0,response1disk,17,0.006510417,0,1,0,0,center_square,0,16,16,80,1,,,,,,,,,,,,,,,,,,,,,,,
095807,001,2022-11-20_23h55.25.358,Info_measure_main_exp,2022.2.2,Win32,59.3824228,,,,,,,,,,,,,,,,,,masks/mask_002.jpg,,,,,,,,,,,,,,,,,,,,,,,,,,,,,,,,,,,,,,,,,,,0,0,0,1,1,,,,,,,,,,,,,,,,,,,,,,,,,,,,,,,,,,,,,,,,,,,,,,
095807,001,2022-11-20_23h55.25.358,Info_measure_main_exp,2022.2.2,Win32,59.3824228,,,,,,,,,,,,,,,,,,masks/mask_005.jpg,,,,,,,,,,,,,,,,,,,,,,,,,,,,,,,,,,,,,,,,,,,0,1,1,4,1,,,,,,,,,,,,,,,,,,,,,,,,,,,,,,,,,,,,,,,,,,,,,,
095807,001,2022-11-20_23h55.25.358,Info_measure_main_exp,2022.2.2,Win32,59.3824228,,,,,,,,,,,,,,,,,,masks/mask_003.jpg,,,,,,,,,,,,,,,,,,,,,,,,,,,,,,,,,,,,,,,,,,,0,2,2,2,1,,,,,,,,,,,,,,,,,,,,,,,,,,,,,,,,,,,,,,,,,,,,,,
095807,001,2022-11-20_23h55.25.358,Info_measure_main_exp,2022.2.2,Win32,59.3824228,,,,,,,,,,,,,,,,,,masks/mask_004.jpg,,,,,,,,,,,,,,,,,,,,,,,,,,,,,,,,,,,,,,,,,,,0,3,3,3,1,,,,,,,,,,,,,,,,,,,,,,,,,,,,,,,,,,,,,,,,,,,,,,
095807,001,2022-11-20_23h55.25.358,Info_measure_main_exp,2022.2.2,Win32,59.3824228,,,,,,,,,,,,,,,,,,masks/mask_001.jpg,,,,,,,,,,,,,,,,,,,,,,,,,,,,,,,,,,,,,,,,,,,0,4,4,0,1,,,,,,,,,,,,,,,,,,,,,,,,,,,,,,,,,,,,,,,,,,,,,,
095807,001,2022-11-20_23h55.25.358,Info_measure_main_exp,2022.2.2,Win32,59.3824228,,,,,,,,,,,,,,,,,,masks/mask_003.jpg,,,,,,,,,,,,,,,,,,,,,,,,,,,,,,,,,,,,,,,,,,,,,,,,0,0,0,2,1,,,,,,,,,,,,,,,,,,,,,,,,,,,,,,,,,,,,,,,,,
095807,001,2022-11-20_23h55.25.358,Info_measure_main_exp,2022.2.2,Win32,59.3824228,,,,,,,,,,,,,,,,,,masks/mask_005.jpg,,,,,,,,,,,,,,,,,,,,,,,,,,,,,,,,,,,,,,,,,,,,,,,,0,1,1,4,1,,,,,,,,,,,,,,,,,,,,,,,,,,,,,,,,,,,,,,,,,
095807,001,2022-11-20_23h55.25.358,Info_measure_main_exp,2022.2.2,Win32,59.3824228,,,,,,,,,,,,,,,,,,masks/mask_002.jpg,,,,,,,,,,,,,,,,,,,,,,,,,,,,,,,,,,,,,,,,,,,,,,,,0,2,2,1,1,,,,,,,,,,,,,,,,,,,,,,,,,,,,,,,,,,,,,,,,,
095807,001,2022-11-20_23h55.25.358,Info_measure_main_exp,2022.2.2,Win32,59.3824228,,,,,,,,,,,,,,,,,,masks/mask_001.jpg,,,,,,,,,,,,,,,,,,,,,,,,,,,,,,,,,,,,,,,,,,,,,,,,0,3,3,0,1,,,,,,,,,,,,,,,,,,,,,,,,,,,,,,,,,,,,,,,,,
095807,001,2022-11-20_23h55.25.358,Info_measure_main_exp,2022.2.2,Win32,59.3824228,,,,,,,,,,,,,,,,,,masks/mask_004.jpg,,,,,,,,,,,,,,,,,,,,,,,,,,,,,,,,,,,,,,,,,,,,,,,,0,4,4,3,1,,,,,,,,,,,,,,,,,,,,,,,,,,,,,,,,,,,,,,,,,
095807,001,2022-11-20_23h55.25.358,Info_measure_main_exp,2022.2.2,Win32,59.3824228,,,,,,,,,,,,,,,,,,,,,,,,,,,,,,7,0.5168,1,,,,,,,,,,,,0,131,5,5,2154,2190,absent_patch/patch0002154.jpg,absent_patch/patch0002190.jpg,,,,,,,,,,,,,,,,,,,,0.053385417,0.114583333,1,0,0,response1disk,18,0.001302083,0.00390625,1,0,0,center_square,0,17,17,68,1,,,,,,,,,,,,,,,,,,,,,,,
095807,001,2022-11-20_23h55.25.358,Info_measure_main_exp,2022.2.2,Win32,59.3824228,,,,,,,,,,,,,,,,,,masks/mask_003.jpg,,,,,,,,,,,,,,,,,,,,,,,,,,,,,,,,,,,,,,,,,,,0,0,0,2,1,,,,,,,,,,,,,,,,,,,,,,,,,,,,,,,,,,,,,,,,,,,,,,
095807,001,2022-11-20_23h55.25.358,Info_measure_main_exp,2022.2.2,Win32,59.3824228,,,,,,,,,,,,,,,,,,masks/mask_005.jpg,,,,,,,,,,,,,,,,,,,,,,,,,,,,,,,,,,,,,,,,,,,0,1,1,4,1,,,,,,,,,,,,,,,,,,,,,,,,,,,,,,,,,,,,,,,,,,,,,,
095807,001,2022-11-20_23h55.25.358,Info_measure_main_exp,2022.2.2,Win32,59.3824228,,,,,,,,,,,,,,,,,,masks/mask_001.jpg,,,,,,,,,,,,,,,,,,,,,,,,,,,,,,,,,,,,,,,,,,,0,2,2,0,1,,,,,,,,,,,,,,,,,,,,,,,,,,,,,,,,,,,,,,,,,,,,,,
095807,001,2022-11-20_23h55.25.358,Info_measure_main_exp,2022.2.2,Win32,59.3824228,,,,,,,,,,,,,,,,,,masks/mask_002.jpg,,,,,,,,,,,,,,,,,,,,,,,,,,,,,,,,,,,,,,,,,,,0,3,3,1,1,,,,,,,,,,,,,,,,,,,,,,,,,,,,,,,,,,,,,,,,,,,,,,
095807,001,2022-11-20_23h55.25.358,Info_measure_main_exp,2022.2.2,Win32,59.3824228,,,,,,,,,,,,,,,,,,masks/mask_004.jpg,,,,,,,,,,,,,,,,,,,,,,,,,,,,,,,,,,,,,,,,,,,0,4,4,3,1,,,,,,,,,,,,,,,,,,,,,,,,,,,,,,,,,,,,,,,,,,,,,,
095807,001,2022-11-20_23h55.25.358,Info_measure_main_exp,2022.2.2,Win32,59.3824228,,,,,,,,,,,,,,,,,,masks/mask_002.jpg,,,,,,,,,,,,,,,,,,,,,,,,,,,,,,,,,,,,,,,,,,,,,,,,0,0,0,1,1,,,,,,,,,,,,,,,,,,,,,,,,,,,,,,,,,,,,,,,,,
095807,001,2022-11-20_23h55.25.358,Info_measure_main_exp,2022.2.2,Win32,59.3824228,,,,,,,,,,,,,,,,,,masks/mask_003.jpg,,,,,,,,,,,,,,,,,,,,,,,,,,,,,,,,,,,,,,,,,,,,,,,,0,1,1,2,1,,,,,,,,,,,,,,,,,,,,,,,,,,,,,,,,,,,,,,,,,
095807,001,2022-11-20_23h55.25.358,Info_measure_main_exp,2022.2.2,Win32,59.3824228,,,,,,,,,,,,,,,,,,masks/mask_001.jpg,,,,,,,,,,,,,,,,,,,,,,,,,,,,,,,,,,,,,,,,,,,,,,,,0,2,2,0,1,,,,,,,,,,,,,,,,,,,,,,,,,,,,,,,,,,,,,,,,,
095807,001,2022-11-20_23h55.25.358,Info_measure_main_exp,2022.2.2,Win32,59.3824228,,,,,,,,,,,,,,,,,,masks/mask_005.jpg,,,,,,,,,,,,,,,,,,,,,,,,,,,,,,,,,,,,,,,,,,,,,,,,0,3,3,4,1,,,,,,,,,,,,,,,,,,,,,,,,,,,,,,,,,,,,,,,,,
095807,001,2022-11-20_23h55.25.358,Info_measure_main_exp,2022.2.2,Win32,59.3824228,,,,,,,,,,,,,,,,,,masks/mask_004.jpg,,,,,,,,,,,,,,,,,,,,,,,,,,,,,,,,,,,,,,,,,,,,,,,,0,4,4,3,1,,,,,,,,,,,,,,,,,,,,,,,,,,,,,,,,,,,,,,,,,
095807,001,2022-11-20_23h55.25.358,Info_measure_main_exp,2022.2.2,Win32,59.3824228,,,,,,,,,,,,,,,,,,,,,,,,,,,,,,6,2.065,1,,,,,,,,,,,,0,131,5,5,1974,2298,absent_patch/patch0001974.jpg,absent_patch/patch0002298.jpg,,,,,,,,,,,,,,,,,,,,0.131510417,0.044270833,1,0,0,response1disk,19,-0.002604167,0.006510417,1,0,0,center_square,0,18,18,6,1,,,,,,,,,,,,,,,,,,,,,,,
095807,001,2022-11-20_23h55.25.358,Info_measure_main_exp,2022.2.2,Win32,59.3824228,,,,,,,,,,,,,,,,,,masks/mask_002.jpg,,,,,,,,,,,,,,,,,,,,,,,,,,,,,,,,,,,,,,,,,,,0,0,0,1,1,,,,,,,,,,,,,,,,,,,,,,,,,,,,,,,,,,,,,,,,,,,,,,
095807,001,2022-11-20_23h55.25.358,Info_measure_main_exp,2022.2.2,Win32,59.3824228,,,,,,,,,,,,,,,,,,masks/mask_001.jpg,,,,,,,,,,,,,,,,,,,,,,,,,,,,,,,,,,,,,,,,,,,0,1,1,0,1,,,,,,,,,,,,,,,,,,,,,,,,,,,,,,,,,,,,,,,,,,,,,,
095807,001,2022-11-20_23h55.25.358,Info_measure_main_exp,2022.2.2,Win32,59.3824228,,,,,,,,,,,,,,,,,,masks/mask_004.jpg,,,,,,,,,,,,,,,,,,,,,,,,,,,,,,,,,,,,,,,,,,,0,2,2,3,1,,,,,,,,,,,,,,,,,,,,,,,,,,,,,,,,,,,,,,,,,,,,,,
095807,001,2022-11-20_23h55.25.358,Info_measure_main_exp,2022.2.2,Win32,59.3824228,,,,,,,,,,,,,,,,,,masks/mask_005.jpg,,,,,,,,,,,,,,,,,,,,,,,,,,,,,,,,,,,,,,,,,,,0,3,3,4,1,,,,,,,,,,,,,,,,,,,,,,,,,,,,,,,,,,,,,,,,,,,,,,
095807,001,2022-11-20_23h55.25.358,Info_measure_main_exp,2022.2.2,Win32,59.3824228,,,,,,,,,,,,,,,,,,masks/mask_003.jpg,,,,,,,,,,,,,,,,,,,,,,,,,,,,,,,,,,,,,,,,,,,0,4,4,2,1,,,,,,,,,,,,,,,,,,,,,,,,,,,,,,,,,,,,,,,,,,,,,,
095807,001,2022-11-20_23h55.25.358,Info_measure_main_exp,2022.2.2,Win32,59.3824228,,,,,,,,,,,,,,,,,,masks/mask_002.jpg,,,,,,,,,,,,,,,,,,,,,,,,,,,,,,,,,,,,,,,,,,,,,,,,0,0,0,1,1,,,,,,,,,,,,,,,,,,,,,,,,,,,,,,,,,,,,,,,,,
095807,001,2022-11-20_23h55.25.358,Info_measure_main_exp,2022.2.2,Win32,59.3824228,,,,,,,,,,,,,,,,,,masks/mask_001.jpg,,,,,,,,,,,,,,,,,,,,,,,,,,,,,,,,,,,,,,,,,,,,,,,,0,1,1,0,1,,,,,,,,,,,,,,,,,,,,,,,,,,,,,,,,,,,,,,,,,
095807,001,2022-11-20_23h55.25.358,Info_measure_main_exp,2022.2.2,Win32,59.3824228,,,,,,,,,,,,,,,,,,masks/mask_005.jpg,,,,,,,,,,,,,,,,,,,,,,,,,,,,,,,,,,,,,,,,,,,,,,,,0,2,2,4,1,,,,,,,,,,,,,,,,,,,,,,,,,,,,,,,,,,,,,,,,,
095807,001,2022-11-20_23h55.25.358,Info_measure_main_exp,2022.2.2,Win32,59.3824228,,,,,,,,,,,,,,,,,,masks/mask_003.jpg,,,,,,,,,,,,,,,,,,,,,,,,,,,,,,,,,,,,,,,,,,,,,,,,0,3,3,2,1,,,,,,,,,,,,,,,,,,,,,,,,,,,,,,,,,,,,,,,,,
095807,001,2022-11-20_23h55.25.358,Info_measure_main_exp,2022.2.2,Win32,59.3824228,,,,,,,,,,,,,,,,,,masks/mask_004.jpg,,,,,,,,,,,,,,,,,,,,,,,,,,,,,,,,,,,,,,,,,,,,,,,,0,4,4,3,1,,,,,,,,,,,,,,,,,,,,,,,,,,,,,,,,,,,,,,,,,
095807,001,2022-11-20_23h55.25.358,Info_measure_main_exp,2022.2.2,Win32,59.3824228,,,,,,,,,,,,,,,,,,,,,,,,,,,,,,6,1.3693,1,,,,,,,,,,,,0,131,5,5,1950,2238,absent_patch/patch0001950.jpg,absent_patch/patch0002238.jpg,,,,,,,,,,,,,,,,,,,,0.088541667,0.029947917,1,0,0,response1disk,20,-0.0078125,-0.006510417,1,0,0,center_square,0,19,19,8,1,,,,,,,,,,,,,,,,,,,,,,,
095807,001,2022-11-20_23h55.25.358,Info_measure_main_exp,2022.2.2,Win32,59.3824228,,,,,,,,,,,,,,,,,,masks/mask_001.jpg,,,,,,,,,,,,,,,,,,,,,,,,,,,,,,,,,,,,,,,,,,,0,0,0,0,1,,,,,,,,,,,,,,,,,,,,,,,,,,,,,,,,,,,,,,,,,,,,,,
095807,001,2022-11-20_23h55.25.358,Info_measure_main_exp,2022.2.2,Win32,59.3824228,,,,,,,,,,,,,,,,,,masks/mask_005.jpg,,,,,,,,,,,,,,,,,,,,,,,,,,,,,,,,,,,,,,,,,,,0,1,1,4,1,,,,,,,,,,,,,,,,,,,,,,,,,,,,,,,,,,,,,,,,,,,,,,
095807,001,2022-11-20_23h55.25.358,Info_measure_main_exp,2022.2.2,Win32,59.3824228,,,,,,,,,,,,,,,,,,masks/mask_004.jpg,,,,,,,,,,,,,,,,,,,,,,,,,,,,,,,,,,,,,,,,,,,0,2,2,3,1,,,,,,,,,,,,,,,,,,,,,,,,,,,,,,,,,,,,,,,,,,,,,,
095807,001,2022-11-20_23h55.25.358,Info_measure_main_exp,2022.2.2,Win32,59.3824228,,,,,,,,,,,,,,,,,,masks/mask_002.jpg,,,,,,,,,,,,,,,,,,,,,,,,,,,,,,,,,,,,,,,,,,,0,3,3,1,1,,,,,,,,,,,,,,,,,,,,,,,,,,,,,,,,,,,,,,,,,,,,,,
095807,001,2022-11-20_23h55.25.358,Info_measure_main_exp,2022.2.2,Win32,59.3824228,,,,,,,,,,,,,,,,,,masks/mask_003.jpg,,,,,,,,,,,,,,,,,,,,,,,,,,,,,,,,,,,,,,,,,,,0,4,4,2,1,,,,,,,,,,,,,,,,,,,,,,,,,,,,,,,,,,,,,,,,,,,,,,
095807,001,2022-11-20_23h55.25.358,Info_measure_main_exp,2022.2.2,Win32,59.3824228,,,,,,,,,,,,,,,,,,masks/mask_005.jpg,,,,,,,,,,,,,,,,,,,,,,,,,,,,,,,,,,,,,,,,,,,,,,,,0,0,0,4,1,,,,,,,,,,,,,,,,,,,,,,,,,,,,,,,,,,,,,,,,,
095807,001,2022-11-20_23h55.25.358,Info_measure_main_exp,2022.2.2,Win32,59.3824228,,,,,,,,,,,,,,,,,,masks/mask_001.jpg,,,,,,,,,,,,,,,,,,,,,,,,,,,,,,,,,,,,,,,,,,,,,,,,0,1,1,0,1,,,,,,,,,,,,,,,,,,,,,,,,,,,,,,,,,,,,,,,,,
095807,001,2022-11-20_23h55.25.358,Info_measure_main_exp,2022.2.2,Win32,59.3824228,,,,,,,,,,,,,,,,,,masks/mask_003.jpg,,,,,,,,,,,,,,,,,,,,,,,,,,,,,,,,,,,,,,,,,,,,,,,,0,2,2,2,1,,,,,,,,,,,,,,,,,,,,,,,,,,,,,,,,,,,,,,,,,
095807,001,2022-11-20_23h55.25.358,Info_measure_main_exp,2022.2.2,Win32,59.3824228,,,,,,,,,,,,,,,,,,masks/mask_002.jpg,,,,,,,,,,,,,,,,,,,,,,,,,,,,,,,,,,,,,,,,,,,,,,,,0,3,3,1,1,,,,,,,,,,,,,,,,,,,,,,,,,,,,,,,,,,,,,,,,,
095807,001,2022-11-20_23h55.25.358,Info_measure_main_exp,2022.2.2,Win32,59.3824228,,,,,,,,,,,,,,,,,,masks/mask_004.jpg,,,,,,,,,,,,,,,,,,,,,,,,,,,,,,,,,,,,,,,,,,,,,,,,0,4,4,3,1,,,,,,,,,,,,,,,,,,,,,,,,,,,,,,,,,,,,,,,,,
095807,001,2022-11-20_23h55.25.358,Info_measure_main_exp,2022.2.2,Win32,59.3824228,,,,,,,,,,,,,,,,,,,,,,,,,,,,,,6,0.7694,1,,,,,,,,,,,,0,131,5,5,2190,1950,absent_patch/patch0002190.jpg,absent_patch/patch0001950.jpg,,,,,,,,,,,,,,,,,,,,0.110677083,0.049479167,1,0,0,response1disk,21,0.0078125,0,1,0,0,center_square,0,20,20,73,1,,,,,,,,,,,,,,,,,,,,,,,
095807,001,2022-11-20_23h55.25.358,Info_measure_main_exp,2022.2.2,Win32,59.3824228,,,,,,,,,,,,,,,,,,masks/mask_004.jpg,,,,,,,,,,,,,,,,,,,,,,,,,,,,,,,,,,,,,,,,,,,0,0,0,3,1,,,,,,,,,,,,,,,,,,,,,,,,,,,,,,,,,,,,,,,,,,,,,,
095807,001,2022-11-20_23h55.25.358,Info_measure_main_exp,2022.2.2,Win32,59.3824228,,,,,,,,,,,,,,,,,,masks/mask_003.jpg,,,,,,,,,,,,,,,,,,,,,,,,,,,,,,,,,,,,,,,,,,,0,1,1,2,1,,,,,,,,,,,,,,,,,,,,,,,,,,,,,,,,,,,,,,,,,,,,,,
095807,001,2022-11-20_23h55.25.358,Info_measure_main_exp,2022.2.2,Win32,59.3824228,,,,,,,,,,,,,,,,,,masks/mask_002.jpg,,,,,,,,,,,,,,,,,,,,,,,,,,,,,,,,,,,,,,,,,,,0,2,2,1,1,,,,,,,,,,,,,,,,,,,,,,,,,,,,,,,,,,,,,,,,,,,,,,
095807,001,2022-11-20_23h55.25.358,Info_measure_main_exp,2022.2.2,Win32,59.3824228,,,,,,,,,,,,,,,,,,masks/mask_005.jpg,,,,,,,,,,,,,,,,,,,,,,,,,,,,,,,,,,,,,,,,,,,0,3,3,4,1,,,,,,,,,,,,,,,,,,,,,,,,,,,,,,,,,,,,,,,,,,,,,,
095807,001,2022-11-20_23h55.25.358,Info_measure_main_exp,2022.2.2,Win32,59.3824228,,,,,,,,,,,,,,,,,,masks/mask_001.jpg,,,,,,,,,,,,,,,,,,,,,,,,,,,,,,,,,,,,,,,,,,,0,4,4,0,1,,,,,,,,,,,,,,,,,,,,,,,,,,,,,,,,,,,,,,,,,,,,,,
095807,001,2022-11-20_23h55.25.358,Info_measure_main_exp,2022.2.2,Win32,59.3824228,,,,,,,,,,,,,,,,,,masks/mask_005.jpg,,,,,,,,,,,,,,,,,,,,,,,,,,,,,,,,,,,,,,,,,,,,,,,,0,0,0,4,1,,,,,,,,,,,,,,,,,,,,,,,,,,,,,,,,,,,,,,,,,
095807,001,2022-11-20_23h55.25.358,Info_measure_main_exp,2022.2.2,Win32,59.3824228,,,,,,,,,,,,,,,,,,masks/mask_001.jpg,,,,,,,,,,,,,,,,,,,,,,,,,,,,,,,,,,,,,,,,,,,,,,,,0,1,1,0,1,,,,,,,,,,,,,,,,,,,,,,,,,,,,,,,,,,,,,,,,,
095807,001,2022-11-20_23h55.25.358,Info_measure_main_exp,2022.2.2,Win32,59.3824228,,,,,,,,,,,,,,,,,,masks/mask_004.jpg,,,,,,,,,,,,,,,,,,,,,,,,,,,,,,,,,,,,,,,,,,,,,,,,0,2,2,3,1,,,,,,,,,,,,,,,,,,,,,,,,,,,,,,,,,,,,,,,,,
095807,001,2022-11-20_23h55.25.358,Info_measure_main_exp,2022.2.2,Win32,59.3824228,,,,,,,,,,,,,,,,,,masks/mask_002.jpg,,,,,,,,,,,,,,,,,,,,,,,,,,,,,,,,,,,,,,,,,,,,,,,,0,3,3,1,1,,,,,,,,,,,,,,,,,,,,,,,,,,,,,,,,,,,,,,,,,
095807,001,2022-11-20_23h55.25.358,Info_measure_main_exp,2022.2.2,Win32,59.3824228,,,,,,,,,,,,,,,,,,masks/mask_003.jpg,,,,,,,,,,,,,,,,,,,,,,,,,,,,,,,,,,,,,,,,,,,,,,,,0,4,4,2,1,,,,,,,,,,,,,,,,,,,,,,,,,,,,,,,,,,,,,,,,,
095807,001,2022-11-20_23h55.25.358,Info_measure_main_exp,2022.2.2,Win32,59.3824228,,,,,,,,,,,,,,,,,,,,,,,,,,,,,,6,0.7355,1,,,,,,,,,,,,0,131,5,5,1950,2142,absent_patch/patch0001950.jpg,absent_patch/patch0002142.jpg,,,,,,,,,,,,,,,,,,,,0.065104167,0.018229167,1,0,0,response1disk,22,0.001302083,0.01171875,1,0,0,center_square,0,21,21,83,1,,,,,,,,,,,,,,,,,,,,,,,
095807,001,2022-11-20_23h55.25.358,Info_measure_main_exp,2022.2.2,Win32,59.3824228,,,,,,,,,,,,,,,,,,masks/mask_002.jpg,,,,,,,,,,,,,,,,,,,,,,,,,,,,,,,,,,,,,,,,,,,0,0,0,1,1,,,,,,,,,,,,,,,,,,,,,,,,,,,,,,,,,,,,,,,,,,,,,,
095807,001,2022-11-20_23h55.25.358,Info_measure_main_exp,2022.2.2,Win32,59.3824228,,,,,,,,,,,,,,,,,,masks/mask_003.jpg,,,,,,,,,,,,,,,,,,,,,,,,,,,,,,,,,,,,,,,,,,,0,1,1,2,1,,,,,,,,,,,,,,,,,,,,,,,,,,,,,,,,,,,,,,,,,,,,,,
095807,001,2022-11-20_23h55.25.358,Info_measure_main_exp,2022.2.2,Win32,59.3824228,,,,,,,,,,,,,,,,,,masks/mask_001.jpg,,,,,,,,,,,,,,,,,,,,,,,,,,,,,,,,,,,,,,,,,,,0,2,2,0,1,,,,,,,,,,,,,,,,,,,,,,,,,,,,,,,,,,,,,,,,,,,,,,
095807,001,2022-11-20_23h55.25.358,Info_measure_main_exp,2022.2.2,Win32,59.3824228,,,,,,,,,,,,,,,,,,masks/mask_005.jpg,,,,,,,,,,,,,,,,,,,,,,,,,,,,,,,,,,,,,,,,,,,0,3,3,4,1,,,,,,,,,,,,,,,,,,,,,,,,,,,,,,,,,,,,,,,,,,,,,,
095807,001,2022-11-20_23h55.25.358,Info_measure_main_exp,2022.2.2,Win32,59.3824228,,,,,,,,,,,,,,,,,,masks/mask_004.jpg,,,,,,,,,,,,,,,,,,,,,,,,,,,,,,,,,,,,,,,,,,,0,4,4,3,1,,,,,,,,,,,,,,,,,,,,,,,,,,,,,,,,,,,,,,,,,,,,,,
095807,001,2022-11-20_23h55.25.358,Info_measure_main_exp,2022.2.2,Win32,59.3824228,,,,,,,,,,,,,,,,,,masks/mask_005.jpg,,,,,,,,,,,,,,,,,,,,,,,,,,,,,,,,,,,,,,,,,,,,,,,,0,0,0,4,1,,,,,,,,,,,,,,,,,,,,,,,,,,,,,,,,,,,,,,,,,
095807,001,2022-11-20_23h55.25.358,Info_measure_main_exp,2022.2.2,Win32,59.3824228,,,,,,,,,,,,,,,,,,masks/mask_003.jpg,,,,,,,,,,,,,,,,,,,,,,,,,,,,,,,,,,,,,,,,,,,,,,,,0,1,1,2,1,,,,,,,,,,,,,,,,,,,,,,,,,,,,,,,,,,,,,,,,,
095807,001,2022-11-20_23h55.25.358,Info_measure_main_exp,2022.2.2,Win32,59.3824228,,,,,,,,,,,,,,,,,,masks/mask_004.jpg,,,,,,,,,,,,,,,,,,,,,,,,,,,,,,,,,,,,,,,,,,,,,,,,0,2,2,3,1,,,,,,,,,,,,,,,,,,,,,,,,,,,,,,,,,,,,,,,,,
095807,001,2022-11-20_23h55.25.358,Info_measure_main_exp,2022.2.2,Win32,59.3824228,,,,,,,,,,,,,,,,,,masks/mask_001.jpg,,,,,,,,,,,,,,,,,,,,,,,,,,,,,,,,,,,,,,,,,,,,,,,,0,3,3,0,1,,,,,,,,,,,,,,,,,,,,,,,,,,,,,,,,,,,,,,,,,
095807,001,2022-11-20_23h55.25.358,Info_measure_main_exp,2022.2.2,Win32,59.3824228,,,,,,,,,,,,,,,,,,masks/mask_002.jpg,,,,,,,,,,,,,,,,,,,,,,,,,,,,,,,,,,,,,,,,,,,,,,,,0,4,4,1,1,,,,,,,,,,,,,,,,,,,,,,,,,,,,,,,,,,,,,,,,,
095807,001,2022-11-20_23h55.25.358,Info_measure_main_exp,2022.2.2,Win32,59.3824228,,,,,,,,,,,,,,,,,,,,,,,,,,,,,,7,1.0191,1,,,,,,,,,,,,0,131,5,5,2154,1950,absent_patch/patch0002154.jpg,absent_patch/patch0001950.jpg,,,,,,,,,,,,,,,,,,,,0.055989583,0.12109375,1,0,0,response1disk,23,0.005208333,-0.001302083,1,0,0,center_square,0,22,22,96,1,,,,,,,,,,,,,,,,,,,,,,,
095807,001,2022-11-20_23h55.25.358,Info_measure_main_exp,2022.2.2,Win32,59.3824228,,,,,,,,,,,,,,,,,,masks/mask_004.jpg,,,,,,,,,,,,,,,,,,,,,,,,,,,,,,,,,,,,,,,,,,,0,0,0,3,1,,,,,,,,,,,,,,,,,,,,,,,,,,,,,,,,,,,,,,,,,,,,,,
095807,001,2022-11-20_23h55.25.358,Info_measure_main_exp,2022.2.2,Win32,59.3824228,,,,,,,,,,,,,,,,,,masks/mask_002.jpg,,,,,,,,,,,,,,,,,,,,,,,,,,,,,,,,,,,,,,,,,,,0,1,1,1,1,,,,,,,,,,,,,,,,,,,,,,,,,,,,,,,,,,,,,,,,,,,,,,
095807,001,2022-11-20_23h55.25.358,Info_measure_main_exp,2022.2.2,Win32,59.3824228,,,,,,,,,,,,,,,,,,masks/mask_001.jpg,,,,,,,,,,,,,,,,,,,,,,,,,,,,,,,,,,,,,,,,,,,0,2,2,0,1,,,,,,,,,,,,,,,,,,,,,,,,,,,,,,,,,,,,,,,,,,,,,,
095807,001,2022-11-20_23h55.25.358,Info_measure_main_exp,2022.2.2,Win32,59.3824228,,,,,,,,,,,,,,,,,,masks/mask_005.jpg,,,,,,,,,,,,,,,,,,,,,,,,,,,,,,,,,,,,,,,,,,,0,3,3,4,1,,,,,,,,,,,,,,,,,,,,,,,,,,,,,,,,,,,,,,,,,,,,,,
095807,001,2022-11-20_23h55.25.358,Info_measure_main_exp,2022.2.2,Win32,59.3824228,,,,,,,,,,,,,,,,,,masks/mask_003.jpg,,,,,,,,,,,,,,,,,,,,,,,,,,,,,,,,,,,,,,,,,,,0,4,4,2,1,,,,,,,,,,,,,,,,,,,,,,,,,,,,,,,,,,,,,,,,,,,,,,
095807,001,2022-11-20_23h55.25.358,Info_measure_main_exp,2022.2.2,Win32,59.3824228,,,,,,,,,,,,,,,,,,masks/mask_001.jpg,,,,,,,,,,,,,,,,,,,,,,,,,,,,,,,,,,,,,,,,,,,,,,,,0,0,0,0,1,,,,,,,,,,,,,,,,,,,,,,,,,,,,,,,,,,,,,,,,,
095807,001,2022-11-20_23h55.25.358,Info_measure_main_exp,2022.2.2,Win32,59.3824228,,,,,,,,,,,,,,,,,,masks/mask_005.jpg,,,,,,,,,,,,,,,,,,,,,,,,,,,,,,,,,,,,,,,,,,,,,,,,0,1,1,4,1,,,,,,,,,,,,,,,,,,,,,,,,,,,,,,,,,,,,,,,,,
095807,001,2022-11-20_23h55.25.358,Info_measure_main_exp,2022.2.2,Win32,59.3824228,,,,,,,,,,,,,,,,,,masks/mask_003.jpg,,,,,,,,,,,,,,,,,,,,,,,,,,,,,,,,,,,,,,,,,,,,,,,,0,2,2,2,1,,,,,,,,,,,,,,,,,,,,,,,,,,,,,,,,,,,,,,,,,
095807,001,2022-11-20_23h55.25.358,Info_measure_main_exp,2022.2.2,Win32,59.3824228,,,,,,,,,,,,,,,,,,masks/mask_004.jpg,,,,,,,,,,,,,,,,,,,,,,,,,,,,,,,,,,,,,,,,,,,,,,,,0,3,3,3,1,,,,,,,,,,,,,,,,,,,,,,,,,,,,,,,,,,,,,,,,,
095807,001,2022-11-20_23h55.25.358,Info_measure_main_exp,2022.2.2,Win32,59.3824228,,,,,,,,,,,,,,,,,,masks/mask_002.jpg,,,,,,,,,,,,,,,,,,,,,,,,,,,,,,,,,,,,,,,,,,,,,,,,0,4,4,1,1,,,,,,,,,,,,,,,,,,,,,,,,,,,,,,,,,,,,,,,,,
095807,001,2022-11-20_23h55.25.358,Info_measure_main_exp,2022.2.2,Win32,59.3824228,,,,,,,,,,,,,,,,,,,,,,,,,,,,,,0,0.9202,1,,,,,,,,,,,,0,131,5,5,2166,2166,absent_patch/patch0002166.jpg,absent_patch/patch0002166.jpg,,,,,,,,,,,,,,,,,,,,-0.05859375,0.151041667,1,0,0,response7disk,24,0,0.0078125,1,0,0,center_square,0,23,23,42,1,,,,,,,,,,,,,,,,,,,,,,,
095807,001,2022-11-20_23h55.25.358,Info_measure_main_exp,2022.2.2,Win32,59.3824228,,,,,,,,,,,,,,,,,,masks/mask_004.jpg,,,,,,,,,,,,,,,,,,,,,,,,,,,,,,,,,,,,,,,,,,,0,0,0,3,1,,,,,,,,,,,,,,,,,,,,,,,,,,,,,,,,,,,,,,,,,,,,,,
095807,001,2022-11-20_23h55.25.358,Info_measure_main_exp,2022.2.2,Win32,59.3824228,,,,,,,,,,,,,,,,,,masks/mask_003.jpg,,,,,,,,,,,,,,,,,,,,,,,,,,,,,,,,,,,,,,,,,,,0,1,1,2,1,,,,,,,,,,,,,,,,,,,,,,,,,,,,,,,,,,,,,,,,,,,,,,
095807,001,2022-11-20_23h55.25.358,Info_measure_main_exp,2022.2.2,Win32,59.3824228,,,,,,,,,,,,,,,,,,masks/mask_002.jpg,,,,,,,,,,,,,,,,,,,,,,,,,,,,,,,,,,,,,,,,,,,0,2,2,1,1,,,,,,,,,,,,,,,,,,,,,,,,,,,,,,,,,,,,,,,,,,,,,,
095807,001,2022-11-20_23h55.25.358,Info_measure_main_exp,2022.2.2,Win32,59.3824228,,,,,,,,,,,,,,,,,,masks/mask_001.jpg,,,,,,,,,,,,,,,,,,,,,,,,,,,,,,,,,,,,,,,,,,,0,3,3,0,1,,,,,,,,,,,,,,,,,,,,,,,,,,,,,,,,,,,,,,,,,,,,,,
095807,001,2022-11-20_23h55.25.358,Info_measure_main_exp,2022.2.2,Win32,59.3824228,,,,,,,,,,,,,,,,,,masks/mask_005.jpg,,,,,,,,,,,,,,,,,,,,,,,,,,,,,,,,,,,,,,,,,,,0,4,4,4,1,,,,,,,,,,,,,,,,,,,,,,,,,,,,,,,,,,,,,,,,,,,,,,
095807,001,2022-11-20_23h55.25.358,Info_measure_main_exp,2022.2.2,Win32,59.3824228,,,,,,,,,,,,,,,,,,masks/mask_004.jpg,,,,,,,,,,,,,,,,,,,,,,,,,,,,,,,,,,,,,,,,,,,,,,,,0,0,0,3,1,,,,,,,,,,,,,,,,,,,,,,,,,,,,,,,,,,,,,,,,,
095807,001,2022-11-20_23h55.25.358,Info_measure_main_exp,2022.2.2,Win32,59.3824228,,,,,,,,,,,,,,,,,,masks/mask_002.jpg,,,,,,,,,,,,,,,,,,,,,,,,,,,,,,,,,,,,,,,,,,,,,,,,0,1,1,1,1,,,,,,,,,,,,,,,,,,,,,,,,,,,,,,,,,,,,,,,,,
095807,001,2022-11-20_23h55.25.358,Info_measure_main_exp,2022.2.2,Win32,59.3824228,,,,,,,,,,,,,,,,,,masks/mask_005.jpg,,,,,,,,,,,,,,,,,,,,,,,,,,,,,,,,,,,,,,,,,,,,,,,,0,2,2,4,1,,,,,,,,,,,,,,,,,,,,,,,,,,,,,,,,,,,,,,,,,
095807,001,2022-11-20_23h55.25.358,Info_measure_main_exp,2022.2.2,Win32,59.3824228,,,,,,,,,,,,,,,,,,masks/mask_001.jpg,,,,,,,,,,,,,,,,,,,,,,,,,,,,,,,,,,,,,,,,,,,,,,,,0,3,3,0,1,,,,,,,,,,,,,,,,,,,,,,,,,,,,,,,,,,,,,,,,,
095807,001,2022-11-20_23h55.25.358,Info_measure_main_exp,2022.2.2,Win32,59.3824228,,,,,,,,,,,,,,,,,,masks/mask_003.jpg,,,,,,,,,,,,,,,,,,,,,,,,,,,,,,,,,,,,,,,,,,,,,,,,0,4,4,2,1,,,,,,,,,,,,,,,,,,,,,,,,,,,,,,,,,,,,,,,,,
095807,001,2022-11-20_23h55.25.358,Info_measure_main_exp,2022.2.2,Win32,59.3824228,,,,,,,,,,,,,,,,,,,,,,,,,,,,,,5,3.1503,1,,,,,,,,,,,,0,131,5,5,1986,2154,absent_patch/patch0001986.jpg,absent_patch/patch0002154.jpg,,,,,,,,,,,,,,,,,,,,0.108072917,-0.044270833,1,0,0,response3disk,25,0.002604167,0.002604167,1,0,0,center_square,0,24,24,36,1,,,,,,,,,,,,,,,,,,,,,,,
095807,001,2022-11-20_23h55.25.358,Info_measure_main_exp,2022.2.2,Win32,59.3824228,,,,,,,,,,,,,,,,,,masks/mask_005.jpg,,,,,,,,,,,,,,,,,,,,,,,,,,,,,,,,,,,,,,,,,,,0,0,0,4,1,,,,,,,,,,,,,,,,,,,,,,,,,,,,,,,,,,,,,,,,,,,,,,
095807,001,2022-11-20_23h55.25.358,Info_measure_main_exp,2022.2.2,Win32,59.3824228,,,,,,,,,,,,,,,,,,masks/mask_002.jpg,,,,,,,,,,,,,,,,,,,,,,,,,,,,,,,,,,,,,,,,,,,0,1,1,1,1,,,,,,,,,,,,,,,,,,,,,,,,,,,,,,,,,,,,,,,,,,,,,,
095807,001,2022-11-20_23h55.25.358,Info_measure_main_exp,2022.2.2,Win32,59.3824228,,,,,,,,,,,,,,,,,,masks/mask_004.jpg,,,,,,,,,,,,,,,,,,,,,,,,,,,,,,,,,,,,,,,,,,,0,2,2,3,1,,,,,,,,,,,,,,,,,,,,,,,,,,,,,,,,,,,,,,,,,,,,,,
095807,001,2022-11-20_23h55.25.358,Info_measure_main_exp,2022.2.2,Win32,59.3824228,,,,,,,,,,,,,,,,,,masks/mask_001.jpg,,,,,,,,,,,,,,,,,,,,,,,,,,,,,,,,,,,,,,,,,,,0,3,3,0,1,,,,,,,,,,,,,,,,,,,,,,,,,,,,,,,,,,,,,,,,,,,,,,
095807,001,2022-11-20_23h55.25.358,Info_measure_main_exp,2022.2.2,Win32,59.3824228,,,,,,,,,,,,,,,,,,masks/mask_003.jpg,,,,,,,,,,,,,,,,,,,,,,,,,,,,,,,,,,,,,,,,,,,0,4,4,2,1,,,,,,,,,,,,,,,,,,,,,,,,,,,,,,,,,,,,,,,,,,,,,,
095807,001,2022-11-20_23h55.25.358,Info_measure_main_exp,2022.2.2,Win32,59.3824228,,,,,,,,,,,,,,,,,,masks/mask_002.jpg,,,,,,,,,,,,,,,,,,,,,,,,,,,,,,,,,,,,,,,,,,,,,,,,0,0,0,1,1,,,,,,,,,,,,,,,,,,,,,,,,,,,,,,,,,,,,,,,,,
095807,001,2022-11-20_23h55.25.358,Info_measure_main_exp,2022.2.2,Win32,59.3824228,,,,,,,,,,,,,,,,,,masks/mask_004.jpg,,,,,,,,,,,,,,,,,,,,,,,,,,,,,,,,,,,,,,,,,,,,,,,,0,1,1,3,1,,,,,,,,,,,,,,,,,,,,,,,,,,,,,,,,,,,,,,,,,
095807,001,2022-11-20_23h55.25.358,Info_measure_main_exp,2022.2.2,Win32,59.3824228,,,,,,,,,,,,,,,,,,masks/mask_003.jpg,,,,,,,,,,,,,,,,,,,,,,,,,,,,,,,,,,,,,,,,,,,,,,,,0,2,2,2,1,,,,,,,,,,,,,,,,,,,,,,,,,,,,,,,,,,,,,,,,,
095807,001,2022-11-20_23h55.25.358,Info_measure_main_exp,2022.2.2,Win32,59.3824228,,,,,,,,,,,,,,,,,,masks/mask_001.jpg,,,,,,,,,,,,,,,,,,,,,,,,,,,,,,,,,,,,,,,,,,,,,,,,0,3,3,0,1,,,,,,,,,,,,,,,,,,,,,,,,,,,,,,,,,,,,,,,,,
095807,001,2022-11-20_23h55.25.358,Info_measure_main_exp,2022.2.2,Win32,59.3824228,,,,,,,,,,,,,,,,,,masks/mask_005.jpg,,,,,,,,,,,,,,,,,,,,,,,,,,,,,,,,,,,,,,,,,,,,,,,,0,4,4,4,1,,,,,,,,,,,,,,,,,,,,,,,,,,,,,,,,,,,,,,,,,
095807,001,2022-11-20_23h55.25.358,Info_measure_main_exp,2022.2.2,Win32,59.3824228,,,,,,,,,,,,,,,,,,,,,,,,,,,,,,6,1.2669,1,,,,,,,,,,,,0,131,5,5,2238,2298,absent_patch/patch0002238.jpg,absent_patch/patch0002298.jpg,,,,,,,,,,,,,,,,,,,,0.0859375,0.059895833,1,0,0,response1disk,26,0.01171875,0.005208333,1,0,0,center_square,0,25,25,51,1,,,,,,,,,,,,,,,,,,,,,,,
095807,001,2022-11-20_23h55.25.358,Info_measure_main_exp,2022.2.2,Win32,59.3824228,,,,,,,,,,,,,,,,,,masks/mask_002.jpg,,,,,,,,,,,,,,,,,,,,,,,,,,,,,,,,,,,,,,,,,,,0,0,0,1,1,,,,,,,,,,,,,,,,,,,,,,,,,,,,,,,,,,,,,,,,,,,,,,
095807,001,2022-11-20_23h55.25.358,Info_measure_main_exp,2022.2.2,Win32,59.3824228,,,,,,,,,,,,,,,,,,masks/mask_003.jpg,,,,,,,,,,,,,,,,,,,,,,,,,,,,,,,,,,,,,,,,,,,0,1,1,2,1,,,,,,,,,,,,,,,,,,,,,,,,,,,,,,,,,,,,,,,,,,,,,,
095807,001,2022-11-20_23h55.25.358,Info_measure_main_exp,2022.2.2,Win32,59.3824228,,,,,,,,,,,,,,,,,,masks/mask_001.jpg,,,,,,,,,,,,,,,,,,,,,,,,,,,,,,,,,,,,,,,,,,,0,2,2,0,1,,,,,,,,,,,,,,,,,,,,,,,,,,,,,,,,,,,,,,,,,,,,,,
095807,001,2022-11-20_23h55.25.358,Info_measure_main_exp,2022.2.2,Win32,59.3824228,,,,,,,,,,,,,,,,,,masks/mask_004.jpg,,,,,,,,,,,,,,,,,,,,,,,,,,,,,,,,,,,,,,,,,,,0,3,3,3,1,,,,,,,,,,,,,,,,,,,,,,,,,,,,,,,,,,,,,,,,,,,,,,
095807,001,2022-11-20_23h55.25.358,Info_measure_main_exp,2022.2.2,Win32,59.3824228,,,,,,,,,,,,,,,,,,masks/mask_005.jpg,,,,,,,,,,,,,,,,,,,,,,,,,,,,,,,,,,,,,,,,,,,0,4,4,4,1,,,,,,,,,,,,,,,,,,,,,,,,,,,,,,,,,,,,,,,,,,,,,,
095807,001,2022-11-20_23h55.25.358,Info_measure_main_exp,2022.2.2,Win32,59.3824228,,,,,,,,,,,,,,,,,,masks/mask_004.jpg,,,,,,,,,,,,,,,,,,,,,,,,,,,,,,,,,,,,,,,,,,,,,,,,0,0,0,3,1,,,,,,,,,,,,,,,,,,,,,,,,,,,,,,,,,,,,,,,,,
095807,001,2022-11-20_23h55.25.358,Info_measure_main_exp,2022.2.2,Win32,59.3824228,,,,,,,,,,,,,,,,,,masks/mask_005.jpg,,,,,,,,,,,,,,,,,,,,,,,,,,,,,,,,,,,,,,,,,,,,,,,,0,1,1,4,1,,,,,,,,,,,,,,,,,,,,,,,,,,,,,,,,,,,,,,,,,
095807,001,2022-11-20_23h55.25.358,Info_measure_main_exp,2022.2.2,Win32,59.3824228,,,,,,,,,,,,,,,,,,masks/mask_002.jpg,,,,,,,,,,,,,,,,,,,,,,,,,,,,,,,,,,,,,,,,,,,,,,,,0,2,2,1,1,,,,,,,,,,,,,,,,,,,,,,,,,,,,,,,,,,,,,,,,,
095807,001,2022-11-20_23h55.25.358,Info_measure_main_exp,2022.2.2,Win32,59.3824228,,,,,,,,,,,,,,,,,,masks/mask_001.jpg,,,,,,,,,,,,,,,,,,,,,,,,,,,,,,,,,,,,,,,,,,,,,,,,0,3,3,0,1,,,,,,,,,,,,,,,,,,,,,,,,,,,,,,,,,,,,,,,,,
095807,001,2022-11-20_23h55.25.358,Info_measure_main_exp,2022.2.2,Win32,59.3824228,,,,,,,,,,,,,,,,,,masks/mask_003.jpg,,,,,,,,,,,,,,,,,,,,,,,,,,,,,,,,,,,,,,,,,,,,,,,,0,4,4,2,1,,,,,,,,,,,,,,,,,,,,,,,,,,,,,,,,,,,,,,,,,
095807,001,2022-11-20_23h55.25.358,Info_measure_main_exp,2022.2.2,Win32,59.3824228,,,,,,,,,,,,,,,,,,,,,,,,,,,,,,7,0.8839,1,,,,,,,,,,,,0,131,5,5,1986,1974,absent_patch/patch0001986.jpg,absent_patch/patch0001974.jpg,,,,,,,,,,,,,,,,,,,,0.0390625,0.110677083,1,0,0,response1disk,27,0.006510417,0.00390625,1,0,0,center_square,0,26,26,25,1,,,,,,,,,,,,,,,,,,,,,,,
095807,001,2022-11-20_23h55.25.358,Info_measure_main_exp,2022.2.2,Win32,59.3824228,,,,,,,,,,,,,,,,,,masks/mask_002.jpg,,,,,,,,,,,,,,,,,,,,,,,,,,,,,,,,,,,,,,,,,,,0,0,0,1,1,,,,,,,,,,,,,,,,,,,,,,,,,,,,,,,,,,,,,,,,,,,,,,
095807,001,2022-11-20_23h55.25.358,Info_measure_main_exp,2022.2.2,Win32,59.3824228,,,,,,,,,,,,,,,,,,masks/mask_005.jpg,,,,,,,,,,,,,,,,,,,,,,,,,,,,,,,,,,,,,,,,,,,0,1,1,4,1,,,,,,,,,,,,,,,,,,,,,,,,,,,,,,,,,,,,,,,,,,,,,,
095807,001,2022-11-20_23h55.25.358,Info_measure_main_exp,2022.2.2,Win32,59.3824228,,,,,,,,,,,,,,,,,,masks/mask_001.jpg,,,,,,,,,,,,,,,,,,,,,,,,,,,,,,,,,,,,,,,,,,,0,2,2,0,1,,,,,,,,,,,,,,,,,,,,,,,,,,,,,,,,,,,,,,,,,,,,,,
095807,001,2022-11-20_23h55.25.358,Info_measure_main_exp,2022.2.2,Win32,59.3824228,,,,,,,,,,,,,,,,,,masks/mask_004.jpg,,,,,,,,,,,,,,,,,,,,,,,,,,,,,,,,,,,,,,,,,,,0,3,3,3,1,,,,,,,,,,,,,,,,,,,,,,,,,,,,,,,,,,,,,,,,,,,,,,
095807,001,2022-11-20_23h55.25.358,Info_measure_main_exp,2022.2.2,Win32,59.3824228,,,,,,,,,,,,,,,,,,masks/mask_003.jpg,,,,,,,,,,,,,,,,,,,,,,,,,,,,,,,,,,,,,,,,,,,0,4,4,2,1,,,,,,,,,,,,,,,,,,,,,,,,,,,,,,,,,,,,,,,,,,,,,,
095807,001,2022-11-20_23h55.25.358,Info_measure_main_exp,2022.2.2,Win32,59.3824228,,,,,,,,,,,,,,,,,,masks/mask_002.jpg,,,,,,,,,,,,,,,,,,,,,,,,,,,,,,,,,,,,,,,,,,,,,,,,0,0,0,1,1,,,,,,,,,,,,,,,,,,,,,,,,,,,,,,,,,,,,,,,,,
095807,001,2022-11-20_23h55.25.358,Info_measure_main_exp,2022.2.2,Win32,59.3824228,,,,,,,,,,,,,,,,,,masks/mask_001.jpg,,,,,,,,,,,,,,,,,,,,,,,,,,,,,,,,,,,,,,,,,,,,,,,,0,1,1,0,1,,,,,,,,,,,,,,,,,,,,,,,,,,,,,,,,,,,,,,,,,
095807,001,2022-11-20_23h55.25.358,Info_measure_main_exp,2022.2.2,Win32,59.3824228,,,,,,,,,,,,,,,,,,masks/mask_003.jpg,,,,,,,,,,,,,,,,,,,,,,,,,,,,,,,,,,,,,,,,,,,,,,,,0,2,2,2,1,,,,,,,,,,,,,,,,,,,,,,,,,,,,,,,,,,,,,,,,,
095807,001,2022-11-20_23h55.25.358,Info_measure_main_exp,2022.2.2,Win32,59.3824228,,,,,,,,,,,,,,,,,,masks/mask_004.jpg,,,,,,,,,,,,,,,,,,,,,,,,,,,,,,,,,,,,,,,,,,,,,,,,0,3,3,3,1,,,,,,,,,,,,,,,,,,,,,,,,,,,,,,,,,,,,,,,,,
095807,001,2022-11-20_23h55.25.358,Info_measure_main_exp,2022.2.2,Win32,59.3824228,,,,,,,,,,,,,,,,,,masks/mask_005.jpg,,,,,,,,,,,,,,,,,,,,,,,,,,,,,,,,,,,,,,,,,,,,,,,,0,4,4,4,1,,,,,,,,,,,,,,,,,,,,,,,,,,,,,,,,,,,,,,,,,
095807,001,2022-11-20_23h55.25.358,Info_measure_main_exp,2022.2.2,Win32,59.3824228,,,,,,,,,,,,,,,,,,,,,,,,,,,,,,7,0.5001,1,,,,,,,,,,,,0,131,5,5,2298,2214,absent_patch/patch0002298.jpg,absent_patch/patch0002214.jpg,,,,,,,,,,,,,,,,,,,,0.048177083,0.098958333,1,0,0,response1disk,28,0.009114583,0.009114583,1,0,0,center_square,0,27,27,99,1,,,,,,,,,,,,,,,,,,,,,,,
095807,001,2022-11-20_23h55.25.358,Info_measure_main_exp,2022.2.2,Win32,59.3824228,,,,,,,,,,,,,,,,,,masks/mask_001.jpg,,,,,,,,,,,,,,,,,,,,,,,,,,,,,,,,,,,,,,,,,,,0,0,0,0,1,,,,,,,,,,,,,,,,,,,,,,,,,,,,,,,,,,,,,,,,,,,,,,
095807,001,2022-11-20_23h55.25.358,Info_measure_main_exp,2022.2.2,Win32,59.3824228,,,,,,,,,,,,,,,,,,masks/mask_003.jpg,,,,,,,,,,,,,,,,,,,,,,,,,,,,,,,,,,,,,,,,,,,0,1,1,2,1,,,,,,,,,,,,,,,,,,,,,,,,,,,,,,,,,,,,,,,,,,,,,,
095807,001,2022-11-20_23h55.25.358,Info_measure_main_exp,2022.2.2,Win32,59.3824228,,,,,,,,,,,,,,,,,,masks/mask_002.jpg,,,,,,,,,,,,,,,,,,,,,,,,,,,,,,,,,,,,,,,,,,,0,2,2,1,1,,,,,,,,,,,,,,,,,,,,,,,,,,,,,,,,,,,,,,,,,,,,,,
095807,001,2022-11-20_23h55.25.358,Info_measure_main_exp,2022.2.2,Win32,59.3824228,,,,,,,,,,,,,,,,,,masks/mask_005.jpg,,,,,,,,,,,,,,,,,,,,,,,,,,,,,,,,,,,,,,,,,,,0,3,3,4,1,,,,,,,,,,,,,,,,,,,,,,,,,,,,,,,,,,,,,,,,,,,,,,
095807,001,2022-11-20_23h55.25.358,Info_measure_main_exp,2022.2.2,Win32,59.3824228,,,,,,,,,,,,,,,,,,masks/mask_004.jpg,,,,,,,,,,,,,,,,,,,,,,,,,,,,,,,,,,,,,,,,,,,0,4,4,3,1,,,,,,,,,,,,,,,,,,,,,,,,,,,,,,,,,,,,,,,,,,,,,,
095807,001,2022-11-20_23h55.25.358,Info_measure_main_exp,2022.2.2,Win32,59.3824228,,,,,,,,,,,,,,,,,,masks/mask_002.jpg,,,,,,,,,,,,,,,,,,,,,,,,,,,,,,,,,,,,,,,,,,,,,,,,0,0,0,1,1,,,,,,,,,,,,,,,,,,,,,,,,,,,,,,,,,,,,,,,,,
095807,001,2022-11-20_23h55.25.358,Info_measure_main_exp,2022.2.2,Win32,59.3824228,,,,,,,,,,,,,,,,,,masks/mask_003.jpg,,,,,,,,,,,,,,,,,,,,,,,,,,,,,,,,,,,,,,,,,,,,,,,,0,1,1,2,1,,,,,,,,,,,,,,,,,,,,,,,,,,,,,,,,,,,,,,,,,
095807,001,2022-11-20_23h55.25.358,Info_measure_main_exp,2022.2.2,Win32,59.3824228,,,,,,,,,,,,,,,,,,masks/mask_005.jpg,,,,,,,,,,,,,,,,,,,,,,,,,,,,,,,,,,,,,,,,,,,,,,,,0,2,2,4,1,,,,,,,,,,,,,,,,,,,,,,,,,,,,,,,,,,,,,,,,,
095807,001,2022-11-20_23h55.25.358,Info_measure_main_exp,2022.2.2,Win32,59.3824228,,,,,,,,,,,,,,,,,,masks/mask_001.jpg,,,,,,,,,,,,,,,,,,,,,,,,,,,,,,,,,,,,,,,,,,,,,,,,0,3,3,0,1,,,,,,,,,,,,,,,,,,,,,,,,,,,,,,,,,,,,,,,,,
095807,001,2022-11-20_23h55.25.358,Info_measure_main_exp,2022.2.2,Win32,59.3824228,,,,,,,,,,,,,,,,,,masks/mask_004.jpg,,,,,,,,,,,,,,,,,,,,,,,,,,,,,,,,,,,,,,,,,,,,,,,,0,4,4,3,1,,,,,,,,,,,,,,,,,,,,,,,,,,,,,,,,,,,,,,,,,
095807,001,2022-11-20_23h55.25.358,Info_measure_main_exp,2022.2.2,Win32,59.3824228,,,,,,,,,,,,,,,,,,,,,,,,,,,,,,7,1.1393,1,,,,,,,,,,,,0,131,5,5,2298,2142,absent_patch/patch0002298.jpg,absent_patch/patch0002142.jpg,,,,,,,,,,,,,,,,,,,,0.052083333,0.087239583,1,0,0,response1disk,29,0.01171875,0.0078125,1,0,0,center_square,0,28,28,49,1,,,,,,,,,,,,,,,,,,,,,,,
095807,001,2022-11-20_23h55.25.358,Info_measure_main_exp,2022.2.2,Win32,59.3824228,,,,,,,,,,,,,,,,,,masks/mask_005.jpg,,,,,,,,,,,,,,,,,,,,,,,,,,,,,,,,,,,,,,,,,,,0,0,0,4,1,,,,,,,,,,,,,,,,,,,,,,,,,,,,,,,,,,,,,,,,,,,,,,
095807,001,2022-11-20_23h55.25.358,Info_measure_main_exp,2022.2.2,Win32,59.3824228,,,,,,,,,,,,,,,,,,masks/mask_002.jpg,,,,,,,,,,,,,,,,,,,,,,,,,,,,,,,,,,,,,,,,,,,0,1,1,1,1,,,,,,,,,,,,,,,,,,,,,,,,,,,,,,,,,,,,,,,,,,,,,,
095807,001,2022-11-20_23h55.25.358,Info_measure_main_exp,2022.2.2,Win32,59.3824228,,,,,,,,,,,,,,,,,,masks/mask_001.jpg,,,,,,,,,,,,,,,,,,,,,,,,,,,,,,,,,,,,,,,,,,,0,2,2,0,1,,,,,,,,,,,,,,,,,,,,,,,,,,,,,,,,,,,,,,,,,,,,,,
095807,001,2022-11-20_23h55.25.358,Info_measure_main_exp,2022.2.2,Win32,59.3824228,,,,,,,,,,,,,,,,,,masks/mask_004.jpg,,,,,,,,,,,,,,,,,,,,,,,,,,,,,,,,,,,,,,,,,,,0,3,3,3,1,,,,,,,,,,,,,,,,,,,,,,,,,,,,,,,,,,,,,,,,,,,,,,
095807,001,2022-11-20_23h55.25.358,Info_measure_main_exp,2022.2.2,Win32,59.3824228,,,,,,,,,,,,,,,,,,masks/mask_003.jpg,,,,,,,,,,,,,,,,,,,,,,,,,,,,,,,,,,,,,,,,,,,0,4,4,2,1,,,,,,,,,,,,,,,,,,,,,,,,,,,,,,,,,,,,,,,,,,,,,,
095807,001,2022-11-20_23h55.25.358,Info_measure_main_exp,2022.2.2,Win32,59.3824228,,,,,,,,,,,,,,,,,,masks/mask_005.jpg,,,,,,,,,,,,,,,,,,,,,,,,,,,,,,,,,,,,,,,,,,,,,,,,0,0,0,4,1,,,,,,,,,,,,,,,,,,,,,,,,,,,,,,,,,,,,,,,,,
095807,001,2022-11-20_23h55.25.358,Info_measure_main_exp,2022.2.2,Win32,59.3824228,,,,,,,,,,,,,,,,,,masks/mask_001.jpg,,,,,,,,,,,,,,,,,,,,,,,,,,,,,,,,,,,,,,,,,,,,,,,,0,1,1,0,1,,,,,,,,,,,,,,,,,,,,,,,,,,,,,,,,,,,,,,,,,
095807,001,2022-11-20_23h55.25.358,Info_measure_main_exp,2022.2.2,Win32,59.3824228,,,,,,,,,,,,,,,,,,masks/mask_002.jpg,,,,,,,,,,,,,,,,,,,,,,,,,,,,,,,,,,,,,,,,,,,,,,,,0,2,2,1,1,,,,,,,,,,,,,,,,,,,,,,,,,,,,,,,,,,,,,,,,,
095807,001,2022-11-20_23h55.25.358,Info_measure_main_exp,2022.2.2,Win32,59.3824228,,,,,,,,,,,,,,,,,,masks/mask_003.jpg,,,,,,,,,,,,,,,,,,,,,,,,,,,,,,,,,,,,,,,,,,,,,,,,0,3,3,2,1,,,,,,,,,,,,,,,,,,,,,,,,,,,,,,,,,,,,,,,,,
095807,001,2022-11-20_23h55.25.358,Info_measure_main_exp,2022.2.2,Win32,59.3824228,,,,,,,,,,,,,,,,,,masks/mask_004.jpg,,,,,,,,,,,,,,,,,,,,,,,,,,,,,,,,,,,,,,,,,,,,,,,,0,4,4,3,1,,,,,,,,,,,,,,,,,,,,,,,,,,,,,,,,,,,,,,,,,
095807,001,2022-11-20_23h55.25.358,Info_measure_main_exp,2022.2.2,Win32,59.3824228,,,,,,,,,,,,,,,,,,,,,,,,,,,,,,7,0.4526,1,,,,,,,,,,,,0,131,5,5,2154,2238,absent_patch/patch0002154.jpg,absent_patch/patch0002238.jpg,,,,,,,,,,,,,,,,,,,,0.045572917,0.08984375,1,0,0,response1disk,30,0.0078125,-0.0078125,1,0,0,center_square,0,29,29,21,1,,,,,,,,,,,,,,,,,,,,,,,
095807,001,2022-11-20_23h55.25.358,Info_measure_main_exp,2022.2.2,Win32,59.3824228,,,,,,,,,,,,,,,,,,masks/mask_004.jpg,,,,,,,,,,,,,,,,,,,,,,,,,,,,,,,,,,,,,,,,,,,0,0,0,3,1,,,,,,,,,,,,,,,,,,,,,,,,,,,,,,,,,,,,,,,,,,,,,,
095807,001,2022-11-20_23h55.25.358,Info_measure_main_exp,2022.2.2,Win32,59.3824228,,,,,,,,,,,,,,,,,,masks/mask_002.jpg,,,,,,,,,,,,,,,,,,,,,,,,,,,,,,,,,,,,,,,,,,,0,1,1,1,1,,,,,,,,,,,,,,,,,,,,,,,,,,,,,,,,,,,,,,,,,,,,,,
095807,001,2022-11-20_23h55.25.358,Info_measure_main_exp,2022.2.2,Win32,59.3824228,,,,,,,,,,,,,,,,,,masks/mask_001.jpg,,,,,,,,,,,,,,,,,,,,,,,,,,,,,,,,,,,,,,,,,,,0,2,2,0,1,,,,,,,,,,,,,,,,,,,,,,,,,,,,,,,,,,,,,,,,,,,,,,
095807,001,2022-11-20_23h55.25.358,Info_measure_main_exp,2022.2.2,Win32,59.3824228,,,,,,,,,,,,,,,,,,masks/mask_005.jpg,,,,,,,,,,,,,,,,,,,,,,,,,,,,,,,,,,,,,,,,,,,0,3,3,4,1,,,,,,,,,,,,,,,,,,,,,,,,,,,,,,,,,,,,,,,,,,,,,,
095807,001,2022-11-20_23h55.25.358,Info_measure_main_exp,2022.2.2,Win32,59.3824228,,,,,,,,,,,,,,,,,,masks/mask_003.jpg,,,,,,,,,,,,,,,,,,,,,,,,,,,,,,,,,,,,,,,,,,,0,4,4,2,1,,,,,,,,,,,,,,,,,,,,,,,,,,,,,,,,,,,,,,,,,,,,,,
095807,001,2022-11-20_23h55.25.358,Info_measure_main_exp,2022.2.2,Win32,59.3824228,,,,,,,,,,,,,,,,,,masks/mask_004.jpg,,,,,,,,,,,,,,,,,,,,,,,,,,,,,,,,,,,,,,,,,,,,,,,,0,0,0,3,1,,,,,,,,,,,,,,,,,,,,,,,,,,,,,,,,,,,,,,,,,
095807,001,2022-11-20_23h55.25.358,Info_measure_main_exp,2022.2.2,Win32,59.3824228,,,,,,,,,,,,,,,,,,masks/mask_001.jpg,,,,,,,,,,,,,,,,,,,,,,,,,,,,,,,,,,,,,,,,,,,,,,,,0,1,1,0,1,,,,,,,,,,,,,,,,,,,,,,,,,,,,,,,,,,,,,,,,,
095807,001,2022-11-20_23h55.25.358,Info_measure_main_exp,2022.2.2,Win32,59.3824228,,,,,,,,,,,,,,,,,,masks/mask_003.jpg,,,,,,,,,,,,,,,,,,,,,,,,,,,,,,,,,,,,,,,,,,,,,,,,0,2,2,2,1,,,,,,,,,,,,,,,,,,,,,,,,,,,,,,,,,,,,,,,,,
095807,001,2022-11-20_23h55.25.358,Info_measure_main_exp,2022.2.2,Win32,59.3824228,,,,,,,,,,,,,,,,,,masks/mask_002.jpg,,,,,,,,,,,,,,,,,,,,,,,,,,,,,,,,,,,,,,,,,,,,,,,,0,3,3,1,1,,,,,,,,,,,,,,,,,,,,,,,,,,,,,,,,,,,,,,,,,
095807,001,2022-11-20_23h55.25.358,Info_measure_main_exp,2022.2.2,Win32,59.3824228,,,,,,,,,,,,,,,,,,masks/mask_005.jpg,,,,,,,,,,,,,,,,,,,,,,,,,,,,,,,,,,,,,,,,,,,,,,,,0,4,4,4,1,,,,,,,,,,,,,,,,,,,,,,,,,,,,,,,,,,,,,,,,,
095807,001,2022-11-20_23h55.25.358,Info_measure_main_exp,2022.2.2,Win32,59.3824228,,,,,,,,,,,,,,,,,,,,,,,,,,,,,,0,0.6167,1,,,,,,,,,,,,0,131,5,5,2178,2178,absent_patch/patch0002178.jpg,absent_patch/patch0002178.jpg,,,,,,,,,,,,,,,,,,,,-0.033854167,0.140625,1,0,0,response7disk,31,0.009114583,0.01171875,1,0,0,center_square,0,30,30,98,1,,,,,,,,,,,,,,,,,,,,,,,
095807,001,2022-11-20_23h55.25.358,Info_measure_main_exp,2022.2.2,Win32,59.3824228,,,,,,,,,,,,,,,,,,masks/mask_004.jpg,,,,,,,,,,,,,,,,,,,,,,,,,,,,,,,,,,,,,,,,,,,0,0,0,3,1,,,,,,,,,,,,,,,,,,,,,,,,,,,,,,,,,,,,,,,,,,,,,,
095807,001,2022-11-20_23h55.25.358,Info_measure_main_exp,2022.2.2,Win32,59.3824228,,,,,,,,,,,,,,,,,,masks/mask_001.jpg,,,,,,,,,,,,,,,,,,,,,,,,,,,,,,,,,,,,,,,,,,,0,1,1,0,1,,,,,,,,,,,,,,,,,,,,,,,,,,,,,,,,,,,,,,,,,,,,,,
095807,001,2022-11-20_23h55.25.358,Info_measure_main_exp,2022.2.2,Win32,59.3824228,,,,,,,,,,,,,,,,,,masks/mask_002.jpg,,,,,,,,,,,,,,,,,,,,,,,,,,,,,,,,,,,,,,,,,,,0,2,2,1,1,,,,,,,,,,,,,,,,,,,,,,,,,,,,,,,,,,,,,,,,,,,,,,
095807,001,2022-11-20_23h55.25.358,Info_measure_main_exp,2022.2.2,Win32,59.3824228,,,,,,,,,,,,,,,,,,masks/mask_003.jpg,,,,,,,,,,,,,,,,,,,,,,,,,,,,,,,,,,,,,,,,,,,0,3,3,2,1,,,,,,,,,,,,,,,,,,,,,,,,,,,,,,,,,,,,,,,,,,,,,,
095807,001,2022-11-20_23h55.25.358,Info_measure_main_exp,2022.2.2,Win32,59.3824228,,,,,,,,,,,,,,,,,,masks/mask_005.jpg,,,,,,,,,,,,,,,,,,,,,,,,,,,,,,,,,,,,,,,,,,,0,4,4,4,1,,,,,,,,,,,,,,,,,,,,,,,,,,,,,,,,,,,,,,,,,,,,,,
095807,001,2022-11-20_23h55.25.358,Info_measure_main_exp,2022.2.2,Win32,59.3824228,,,,,,,,,,,,,,,,,,masks/mask_005.jpg,,,,,,,,,,,,,,,,,,,,,,,,,,,,,,,,,,,,,,,,,,,,,,,,0,0,0,4,1,,,,,,,,,,,,,,,,,,,,,,,,,,,,,,,,,,,,,,,,,
095807,001,2022-11-20_23h55.25.358,Info_measure_main_exp,2022.2.2,Win32,59.3824228,,,,,,,,,,,,,,,,,,masks/mask_004.jpg,,,,,,,,,,,,,,,,,,,,,,,,,,,,,,,,,,,,,,,,,,,,,,,,0,1,1,3,1,,,,,,,,,,,,,,,,,,,,,,,,,,,,,,,,,,,,,,,,,
095807,001,2022-11-20_23h55.25.358,Info_measure_main_exp,2022.2.2,Win32,59.3824228,,,,,,,,,,,,,,,,,,masks/mask_001.jpg,,,,,,,,,,,,,,,,,,,,,,,,,,,,,,,,,,,,,,,,,,,,,,,,0,2,2,0,1,,,,,,,,,,,,,,,,,,,,,,,,,,,,,,,,,,,,,,,,,
095807,001,2022-11-20_23h55.25.358,Info_measure_main_exp,2022.2.2,Win32,59.3824228,,,,,,,,,,,,,,,,,,masks/mask_002.jpg,,,,,,,,,,,,,,,,,,,,,,,,,,,,,,,,,,,,,,,,,,,,,,,,0,3,3,1,1,,,,,,,,,,,,,,,,,,,,,,,,,,,,,,,,,,,,,,,,,
095807,001,2022-11-20_23h55.25.358,Info_measure_main_exp,2022.2.2,Win32,59.3824228,,,,,,,,,,,,,,,,,,masks/mask_003.jpg,,,,,,,,,,,,,,,,,,,,,,,,,,,,,,,,,,,,,,,,,,,,,,,,0,4,4,2,1,,,,,,,,,,,,,,,,,,,,,,,,,,,,,,,,,,,,,,,,,
095807,001,2022-11-20_23h55.25.358,Info_measure_main_exp,2022.2.2,Win32,59.3824228,,,,,,,,,,,,,,,,,,,,,,,,,,,,,,7,0.8325,1,,,,,,,,,,,,1,131,5,5,1,2274,present_patch/cong_131_5_a.jpg,absent_patch/patch0002274.jpg,,,,,,,,,,,,,,,,,,,,0.05859375,0.102864583,1,0,0,response1disk,32,0.010416667,0.002604167,1,0,0,center_square,0,31,31,105,1,,,,,,,,,,,,,,,,,,,,,,,
095807,001,2022-11-20_23h55.25.358,Info_measure_main_exp,2022.2.2,Win32,59.3824228,,,,,,,,,,,,,,,,,,masks/mask_001.jpg,,,,,,,,,,,,,,,,,,,,,,,,,,,,,,,,,,,,,,,,,,,0,0,0,0,1,,,,,,,,,,,,,,,,,,,,,,,,,,,,,,,,,,,,,,,,,,,,,,
095807,001,2022-11-20_23h55.25.358,Info_measure_main_exp,2022.2.2,Win32,59.3824228,,,,,,,,,,,,,,,,,,masks/mask_003.jpg,,,,,,,,,,,,,,,,,,,,,,,,,,,,,,,,,,,,,,,,,,,0,1,1,2,1,,,,,,,,,,,,,,,,,,,,,,,,,,,,,,,,,,,,,,,,,,,,,,
095807,001,2022-11-20_23h55.25.358,Info_measure_main_exp,2022.2.2,Win32,59.3824228,,,,,,,,,,,,,,,,,,masks/mask_002.jpg,,,,,,,,,,,,,,,,,,,,,,,,,,,,,,,,,,,,,,,,,,,0,2,2,1,1,,,,,,,,,,,,,,,,,,,,,,,,,,,,,,,,,,,,,,,,,,,,,,
095807,001,2022-11-20_23h55.25.358,Info_measure_main_exp,2022.2.2,Win32,59.3824228,,,,,,,,,,,,,,,,,,masks/mask_005.jpg,,,,,,,,,,,,,,,,,,,,,,,,,,,,,,,,,,,,,,,,,,,0,3,3,4,1,,,,,,,,,,,,,,,,,,,,,,,,,,,,,,,,,,,,,,,,,,,,,,
095807,001,2022-11-20_23h55.25.358,Info_measure_main_exp,2022.2.2,Win32,59.3824228,,,,,,,,,,,,,,,,,,masks/mask_004.jpg,,,,,,,,,,,,,,,,,,,,,,,,,,,,,,,,,,,,,,,,,,,0,4,4,3,1,,,,,,,,,,,,,,,,,,,,,,,,,,,,,,,,,,,,,,,,,,,,,,
095807,001,2022-11-20_23h55.25.358,Info_measure_main_exp,2022.2.2,Win32,59.3824228,,,,,,,,,,,,,,,,,,masks/mask_005.jpg,,,,,,,,,,,,,,,,,,,,,,,,,,,,,,,,,,,,,,,,,,,,,,,,0,0,0,4,1,,,,,,,,,,,,,,,,,,,,,,,,,,,,,,,,,,,,,,,,,
095807,001,2022-11-20_23h55.25.358,Info_measure_main_exp,2022.2.2,Win32,59.3824228,,,,,,,,,,,,,,,,,,masks/mask_004.jpg,,,,,,,,,,,,,,,,,,,,,,,,,,,,,,,,,,,,,,,,,,,,,,,,0,1,1,3,1,,,,,,,,,,,,,,,,,,,,,,,,,,,,,,,,,,,,,,,,,
095807,001,2022-11-20_23h55.25.358,Info_measure_main_exp,2022.2.2,Win32,59.3824228,,,,,,,,,,,,,,,,,,masks/mask_002.jpg,,,,,,,,,,,,,,,,,,,,,,,,,,,,,,,,,,,,,,,,,,,,,,,,0,2,2,1,1,,,,,,,,,,,,,,,,,,,,,,,,,,,,,,,,,,,,,,,,,
095807,001,2022-11-20_23h55.25.358,Info_measure_main_exp,2022.2.2,Win32,59.3824228,,,,,,,,,,,,,,,,,,masks/mask_003.jpg,,,,,,,,,,,,,,,,,,,,,,,,,,,,,,,,,,,,,,,,,,,,,,,,0,3,3,2,1,,,,,,,,,,,,,,,,,,,,,,,,,,,,,,,,,,,,,,,,,
095807,001,2022-11-20_23h55.25.358,Info_measure_main_exp,2022.2.2,Win32,59.3824228,,,,,,,,,,,,,,,,,,masks/mask_001.jpg,,,,,,,,,,,,,,,,,,,,,,,,,,,,,,,,,,,,,,,,,,,,,,,,0,4,4,0,1,,,,,,,,,,,,,,,,,,,,,,,,,,,,,,,,,,,,,,,,,
095807,001,2022-11-20_23h55.25.358,Info_measure_main_exp,2022.2.2,Win32,59.3824228,,,,,,,,,,,,,,,,,,,,,,,,,,,,,,7,0.483,1,,,,,,,,,,,,1,131,5,5,1,2178,present_patch/cong_131_5_a.jpg,absent_patch/patch0002178.jpg,,,,,,,,,,,,,,,,,,,,0.033854167,0.080729167,1,0,0,response1disk,33,0.00390625,-0.00390625,1,0,0,center_square,0,32,32,40,1,,,,,,,,,,,,,,,,,,,,,,,
095807,001,2022-11-20_23h55.25.358,Info_measure_main_exp,2022.2.2,Win32,59.3824228,,,,,,,,,,,,,,,,,,masks/mask_002.jpg,,,,,,,,,,,,,,,,,,,,,,,,,,,,,,,,,,,,,,,,,,,0,0,0,1,1,,,,,,,,,,,,,,,,,,,,,,,,,,,,,,,,,,,,,,,,,,,,,,
095807,001,2022-11-20_23h55.25.358,Info_measure_main_exp,2022.2.2,Win32,59.3824228,,,,,,,,,,,,,,,,,,masks/mask_005.jpg,,,,,,,,,,,,,,,,,,,,,,,,,,,,,,,,,,,,,,,,,,,0,1,1,4,1,,,,,,,,,,,,,,,,,,,,,,,,,,,,,,,,,,,,,,,,,,,,,,
095807,001,2022-11-20_23h55.25.358,Info_measure_main_exp,2022.2.2,Win32,59.3824228,,,,,,,,,,,,,,,,,,masks/mask_003.jpg,,,,,,,,,,,,,,,,,,,,,,,,,,,,,,,,,,,,,,,,,,,0,2,2,2,1,,,,,,,,,,,,,,,,,,,,,,,,,,,,,,,,,,,,,,,,,,,,,,
095807,001,2022-11-20_23h55.25.358,Info_measure_main_exp,2022.2.2,Win32,59.3824228,,,,,,,,,,,,,,,,,,masks/mask_001.jpg,,,,,,,,,,,,,,,,,,,,,,,,,,,,,,,,,,,,,,,,,,,0,3,3,0,1,,,,,,,,,,,,,,,,,,,,,,,,,,,,,,,,,,,,,,,,,,,,,,
095807,001,2022-11-20_23h55.25.358,Info_measure_main_exp,2022.2.2,Win32,59.3824228,,,,,,,,,,,,,,,,,,masks/mask_004.jpg,,,,,,,,,,,,,,,,,,,,,,,,,,,,,,,,,,,,,,,,,,,0,4,4,3,1,,,,,,,,,,,,,,,,,,,,,,,,,,,,,,,,,,,,,,,,,,,,,,
095807,001,2022-11-20_23h55.25.358,Info_measure_main_exp,2022.2.2,Win32,59.3824228,,,,,,,,,,,,,,,,,,masks/mask_003.jpg,,,,,,,,,,,,,,,,,,,,,,,,,,,,,,,,,,,,,,,,,,,,,,,,0,0,0,2,1,,,,,,,,,,,,,,,,,,,,,,,,,,,,,,,,,,,,,,,,,
095807,001,2022-11-20_23h55.25.358,Info_measure_main_exp,2022.2.2,Win32,59.3824228,,,,,,,,,,,,,,,,,,masks/mask_004.jpg,,,,,,,,,,,,,,,,,,,,,,,,,,,,,,,,,,,,,,,,,,,,,,,,0,1,1,3,1,,,,,,,,,,,,,,,,,,,,,,,,,,,,,,,,,,,,,,,,,
095807,001,2022-11-20_23h55.25.358,Info_measure_main_exp,2022.2.2,Win32,59.3824228,,,,,,,,,,,,,,,,,,masks/mask_005.jpg,,,,,,,,,,,,,,,,,,,,,,,,,,,,,,,,,,,,,,,,,,,,,,,,0,2,2,4,1,,,,,,,,,,,,,,,,,,,,,,,,,,,,,,,,,,,,,,,,,
095807,001,2022-11-20_23h55.25.358,Info_measure_main_exp,2022.2.2,Win32,59.3824228,,,,,,,,,,,,,,,,,,masks/mask_002.jpg,,,,,,,,,,,,,,,,,,,,,,,,,,,,,,,,,,,,,,,,,,,,,,,,0,3,3,1,1,,,,,,,,,,,,,,,,,,,,,,,,,,,,,,,,,,,,,,,,,
095807,001,2022-11-20_23h55.25.358,Info_measure_main_exp,2022.2.2,Win32,59.3824228,,,,,,,,,,,,,,,,,,masks/mask_001.jpg,,,,,,,,,,,,,,,,,,,,,,,,,,,,,,,,,,,,,,,,,,,,,,,,0,4,4,0,1,,,,,,,,,,,,,,,,,,,,,,,,,,,,,,,,,,,,,,,,,
095807,001,2022-11-20_23h55.25.358,Info_measure_main_exp,2022.2.2,Win32,59.3824228,,,,,,,,,,,,,,,,,,,,,,,,,,,,,,7,0.4887,1,,,,,,,,,,,,0,131,5,5,2274,2250,absent_patch/patch0002274.jpg,absent_patch/patch0002250.jpg,,,,,,,,,,,,,,,,,,,,0.0234375,0.063802083,1,0,0,response1disk,34,0,0,1,0,0,center_square,0,33,33,28,1,,,,,,,,,,,,,,,,,,,,,,,
095807,001,2022-11-20_23h55.25.358,Info_measure_main_exp,2022.2.2,Win32,59.3824228,,,,,,,,,,,,,,,,,,masks/mask_005.jpg,,,,,,,,,,,,,,,,,,,,,,,,,,,,,,,,,,,,,,,,,,,0,0,0,4,1,,,,,,,,,,,,,,,,,,,,,,,,,,,,,,,,,,,,,,,,,,,,,,
095807,001,2022-11-20_23h55.25.358,Info_measure_main_exp,2022.2.2,Win32,59.3824228,,,,,,,,,,,,,,,,,,masks/mask_001.jpg,,,,,,,,,,,,,,,,,,,,,,,,,,,,,,,,,,,,,,,,,,,0,1,1,0,1,,,,,,,,,,,,,,,,,,,,,,,,,,,,,,,,,,,,,,,,,,,,,,
095807,001,2022-11-20_23h55.25.358,Info_measure_main_exp,2022.2.2,Win32,59.3824228,,,,,,,,,,,,,,,,,,masks/mask_003.jpg,,,,,,,,,,,,,,,,,,,,,,,,,,,,,,,,,,,,,,,,,,,0,2,2,2,1,,,,,,,,,,,,,,,,,,,,,,,,,,,,,,,,,,,,,,,,,,,,,,
095807,001,2022-11-20_23h55.25.358,Info_measure_main_exp,2022.2.2,Win32,59.3824228,,,,,,,,,,,,,,,,,,masks/mask_002.jpg,,,,,,,,,,,,,,,,,,,,,,,,,,,,,,,,,,,,,,,,,,,0,3,3,1,1,,,,,,,,,,,,,,,,,,,,,,,,,,,,,,,,,,,,,,,,,,,,,,
095807,001,2022-11-20_23h55.25.358,Info_measure_main_exp,2022.2.2,Win32,59.3824228,,,,,,,,,,,,,,,,,,masks/mask_004.jpg,,,,,,,,,,,,,,,,,,,,,,,,,,,,,,,,,,,,,,,,,,,0,4,4,3,1,,,,,,,,,,,,,,,,,,,,,,,,,,,,,,,,,,,,,,,,,,,,,,
095807,001,2022-11-20_23h55.25.358,Info_measure_main_exp,2022.2.2,Win32,59.3824228,,,,,,,,,,,,,,,,,,masks/mask_004.jpg,,,,,,,,,,,,,,,,,,,,,,,,,,,,,,,,,,,,,,,,,,,,,,,,0,0,0,3,1,,,,,,,,,,,,,,,,,,,,,,,,,,,,,,,,,,,,,,,,,
095807,001,2022-11-20_23h55.25.358,Info_measure_main_exp,2022.2.2,Win32,59.3824228,,,,,,,,,,,,,,,,,,masks/mask_002.jpg,,,,,,,,,,,,,,,,,,,,,,,,,,,,,,,,,,,,,,,,,,,,,,,,0,1,1,1,1,,,,,,,,,,,,,,,,,,,,,,,,,,,,,,,,,,,,,,,,,
095807,001,2022-11-20_23h55.25.358,Info_measure_main_exp,2022.2.2,Win32,59.3824228,,,,,,,,,,,,,,,,,,masks/mask_003.jpg,,,,,,,,,,,,,,,,,,,,,,,,,,,,,,,,,,,,,,,,,,,,,,,,0,2,2,2,1,,,,,,,,,,,,,,,,,,,,,,,,,,,,,,,,,,,,,,,,,
095807,001,2022-11-20_23h55.25.358,Info_measure_main_exp,2022.2.2,Win32,59.3824228,,,,,,,,,,,,,,,,,,masks/mask_005.jpg,,,,,,,,,,,,,,,,,,,,,,,,,,,,,,,,,,,,,,,,,,,,,,,,0,3,3,4,1,,,,,,,,,,,,,,,,,,,,,,,,,,,,,,,,,,,,,,,,,
095807,001,2022-11-20_23h55.25.358,Info_measure_main_exp,2022.2.2,Win32,59.3824228,,,,,,,,,,,,,,,,,,masks/mask_001.jpg,,,,,,,,,,,,,,,,,,,,,,,,,,,,,,,,,,,,,,,,,,,,,,,,0,4,4,0,1,,,,,,,,,,,,,,,,,,,,,,,,,,,,,,,,,,,,,,,,,
095807,001,2022-11-20_23h55.25.358,Info_measure_main_exp,2022.2.2,Win32,59.3824228,,,,,,,,,,,,,,,,,,,,,,,,,,,,,,7,0.4851,1,,,,,,,,,,,,0,131,5,5,2190,2166,absent_patch/patch0002190.jpg,absent_patch/patch0002166.jpg,,,,,,,,,,,,,,,,,,,,0.022135417,0.059895833,1,0,0,response1disk,35,0,-0.006510417,1,0,0,center_square,0,34,34,50,1,,,,,,,,,,,,,,,,,,,,,,,
