participant,session,date,expName,psychopyVersion,OS,frameRate,space_press_continue.keys,space_press_continue.rt,space_press_continue_2.keys,space_press_continue_2.rt,space_press_continue_3.keys,space_press_continue_3.rt,space_press_continue_4.keys,space_press_continue_4.rt,space_press_continue_5.keys,space_press_continue_5.rt,space_press_continue_6.keys,space_press_continue_6.rt,prac_mask_loop_1.thisRepN,prac_mask_loop_1.thisTrialN,prac_mask_loop_1.thisN,prac_mask_loop_1.thisIndex,prac_mask_loop_1.ran,mask_name,prac_mask_loop_2.thisRepN,prac_mask_loop_2.thisTrialN,prac_mask_loop_2.thisN,prac_mask_loop_2.thisIndex,prac_mask_loop_2.ran,mouse_2.x,mouse_2.y,mouse_2.leftButton,mouse_2.midButton,mouse_2.rightButton,mouse_2.clicked_name,similarity,response_time,Pass,mouse_12.x,mouse_12.y,mouse_12.leftButton,mouse_12.midButton,mouse_12.rightButton,mouse_12.clicked_name,prac_loop.thisRepN,prac_loop.thisTrialN,prac_loop.thisN,prac_loop.thisIndex,prac_loop.ran,Pair_type,Image_num,Patch_1_loc,Patch_2_loc,Patch_1_info,Patch_2_info,Patch_1_name,Patch_2_name,mouse_1.x,mouse_1.y,mouse_1.leftButton,mouse_1.midButton,mouse_1.rightButton,mouse_1.time,mouse_1.clicked_name,space_press_continue_7.keys,space_press_continue_7.rt,mask_loop.thisRepN,mask_loop.thisTrialN,mask_loop.thisN,mask_loop.thisIndex,mask_loop.ran,mask_loop_2.thisRepN,mask_loop_2.thisTrialN,mask_loop_2.thisN,mask_loop_2.thisIndex,mask_loop_2.ran,mouse.x,mouse.y,mouse.leftButton,mouse.midButton,mouse.rightButton,mouse.clicked_name,trialNumber,mouse_11.x,mouse_11.y,mouse_11.leftButton,mouse_11.midButton,mouse_11.rightButton,mouse_11.clicked_name,first_pass_loop.thisRepN,first_pass_loop.thisTrialN,first_pass_loop.thisN,first_pass_loop.thisIndex,first_pass_loop.ran,mask_loop_3.thisRepN,mask_loop_3.thisTrialN,mask_loop_3.thisN,mask_loop_3.thisIndex,mask_loop_3.ran,mask_loop_4.thisRepN,mask_loop_4.thisTrialN,mask_loop_4.thisN,mask_loop_4.thisIndex,mask_loop_4.ran,mouse_3.x,mouse_3.y,mouse_3.leftButton,mouse_3.midButton,mouse_3.rightButton,mouse_3.clicked_name,double_pass_loop.thisRepN,double_pass_loop.thisTrialN,double_pass_loop.thisN,double_pass_loop.thisIndex,double_pass_loop.ran,space_exit.keys,space_exit.rt
100545,001,2022-11-20_17h47.58.299,Info_measure_main_exp,2022.2.2,Win32,59.01445854,,,,,,,,,,,,,,,,,,,,,,,,,,,,,,,,,,,,,,,,,,,,,,,,,,,,,,,,,,,,,,,,,,,,,,,,,,,,,,,,,,,,,,,,,,,,,,,,,,,,,,,,,,,,,,,
100545,001,2022-11-20_17h47.58.299,Info_measure_main_exp,2022.2.2,Win32,59.01445854,,,,,,,,,,,,,,,,,,,,,,,,,,,,,,,,,,,,,,,,,,,,,,,,,,,,,,,,,,,,,,,,,,,,,,,,,,,,,,,,,,,,,,,,,,,,,,,,,,,,,,,,,,,,,,,
100545,001,2022-11-20_17h47.58.299,Info_measure_main_exp,2022.2.2,Win32,59.01445854,space,13.6673,,,,,,,,,,,,,,,,,,,,,,,,,,,,,,,,,,,,,,,,,,,,,,,,,,,,,,,,,,,,,,,,,,,,,,,,,,,,,,,,,,,,,,,,,,,,,,,,,,,,,,,,,,,,,
100545,001,2022-11-20_17h47.58.299,Info_measure_main_exp,2022.2.2,Win32,59.01445854,,,space,26.4294,,,,,,,,,,,,,,,,,,,,,,,,,,,,,,,,,,,,,,,,,,,,,,,,,,,,,,,,,,,,,,,,,,,,,,,,,,,,,,,,,,,,,,,,,,,,,,,,,,,,,,,,,,,
100545,001,2022-11-20_17h47.58.299,Info_measure_main_exp,2022.2.2,Win32,59.01445854,,,,,space,4.9746,,,,,,,,,,,,,,,,,,,,,,,,,,,,,,,,,,,,,,,,,,,,,,,,,,,,,,,,,,,,,,,,,,,,,,,,,,,,,,,,,,,,,,,,,,,,,,,,,,,,,,,,,
100545,001,2022-11-20_17h47.58.299,Info_measure_main_exp,2022.2.2,Win32,59.01445854,,,,,,,space,20.2088,,,,,,,,,,,,,,,,,,,,,,,,,,,,,,,,,,,,,,,,,,,,,,,,,,,,,,,,,,,,,,,,,,,,,,,,,,,,,,,,,,,,,,,,,,,,,,,,,,,,,,,
100545,001,2022-11-20_17h47.58.299,Info_measure_main_exp,2022.2.2,Win32,59.01445854,,,,,,,,,space,8.4485,,,,,,,,,,,,,,,,,,,,,,,,,,,,,,,,,,,,,,,,,,,,,,,,,,,,,,,,,,,,,,,,,,,,,,,,,,,,,,,,,,,,,,,,,,,,,,,,,,,,,
100545,001,2022-11-20_17h47.58.299,Info_measure_main_exp,2022.2.2,Win32,59.01445854,,,,,,,,,,,space,9.4594,,,,,,,,,,,,,,,,,,,,,,,,,,,,,,,,,,,,,,,,,,,,,,,,,,,,,,,,,,,,,,,,,,,,,,,,,,,,,,,,,,,,,,,,,,,,,,,,,,,
100545,001,2022-11-20_17h47.58.299,Info_measure_main_exp,2022.2.2,Win32,59.01445854,,,,,,,,,,,,,0,0,0,0,1,masks/mask_001.jpg,,,,,,,,,,,,,,,,,,,,,,,,,,,,,,,,,,,,,,,,,,,,,,,,,,,,,,,,,,,,,,,,,,,,,,,,,,,,,,,,,,,,,,,,,,,,,
100545,001,2022-11-20_17h47.58.299,Info_measure_main_exp,2022.2.2,Win32,59.01445854,,,,,,,,,,,,,0,1,1,1,1,masks/mask_002.jpg,,,,,,,,,,,,,,,,,,,,,,,,,,,,,,,,,,,,,,,,,,,,,,,,,,,,,,,,,,,,,,,,,,,,,,,,,,,,,,,,,,,,,,,,,,,,,
100545,001,2022-11-20_17h47.58.299,Info_measure_main_exp,2022.2.2,Win32,59.01445854,,,,,,,,,,,,,0,2,2,3,1,masks/mask_004.jpg,,,,,,,,,,,,,,,,,,,,,,,,,,,,,,,,,,,,,,,,,,,,,,,,,,,,,,,,,,,,,,,,,,,,,,,,,,,,,,,,,,,,,,,,,,,,,
100545,001,2022-11-20_17h47.58.299,Info_measure_main_exp,2022.2.2,Win32,59.01445854,,,,,,,,,,,,,0,3,3,4,1,masks/mask_005.jpg,,,,,,,,,,,,,,,,,,,,,,,,,,,,,,,,,,,,,,,,,,,,,,,,,,,,,,,,,,,,,,,,,,,,,,,,,,,,,,,,,,,,,,,,,,,,,
100545,001,2022-11-20_17h47.58.299,Info_measure_main_exp,2022.2.2,Win32,59.01445854,,,,,,,,,,,,,0,4,4,2,1,masks/mask_003.jpg,,,,,,,,,,,,,,,,,,,,,,,,,,,,,,,,,,,,,,,,,,,,,,,,,,,,,,,,,,,,,,,,,,,,,,,,,,,,,,,,,,,,,,,,,,,,,
100545,001,2022-11-20_17h47.58.299,Info_measure_main_exp,2022.2.2,Win32,59.01445854,,,,,,,,,,,,,,,,,,masks/mask_005.jpg,0,0,0,4,1,,,,,,,,,,,,,,,,,,,,,,,,,,,,,,,,,,,,,,,,,,,,,,,,,,,,,,,,,,,,,,,,,,,,,,,,,,,,,,,,,,,,,,,,
100545,001,2022-11-20_17h47.58.299,Info_measure_main_exp,2022.2.2,Win32,59.01445854,,,,,,,,,,,,,,,,,,masks/mask_003.jpg,0,1,1,2,1,,,,,,,,,,,,,,,,,,,,,,,,,,,,,,,,,,,,,,,,,,,,,,,,,,,,,,,,,,,,,,,,,,,,,,,,,,,,,,,,,,,,,,,,
100545,001,2022-11-20_17h47.58.299,Info_measure_main_exp,2022.2.2,Win32,59.01445854,,,,,,,,,,,,,,,,,,masks/mask_001.jpg,0,2,2,0,1,,,,,,,,,,,,,,,,,,,,,,,,,,,,,,,,,,,,,,,,,,,,,,,,,,,,,,,,,,,,,,,,,,,,,,,,,,,,,,,,,,,,,,,,
100545,001,2022-11-20_17h47.58.299,Info_measure_main_exp,2022.2.2,Win32,59.01445854,,,,,,,,,,,,,,,,,,masks/mask_004.jpg,0,3,3,3,1,,,,,,,,,,,,,,,,,,,,,,,,,,,,,,,,,,,,,,,,,,,,,,,,,,,,,,,,,,,,,,,,,,,,,,,,,,,,,,,,,,,,,,,,
100545,001,2022-11-20_17h47.58.299,Info_measure_main_exp,2022.2.2,Win32,59.01445854,,,,,,,,,,,,,,,,,,masks/mask_002.jpg,0,4,4,1,1,,,,,,,,,,,,,,,,,,,,,,,,,,,,,,,,,,,,,,,,,,,,,,,,,,,,,,,,,,,,,,,,,,,,,,,,,,,,,,,,,,,,,,,,
100545,001,2022-11-20_17h47.58.299,Info_measure_main_exp,2022.2.2,Win32,59.01445854,,,,,,,,,,,,,,,,,,,,,,,,0.076822917,0.151041667,1,0,0,response1disk,7,87.3188,1,-0.005208333,-0.001302083,1,0,0,center_square,0,0,0,0,1,0,131,5,5,2370,2406,prac_patch/patch0002370.jpg,prac_patch/patch0002406.jpg,,,,,,,,,,,,,,,,,,,,,,,,,,,,,,,,,,,,,,,,,,,,,,,,,,,,,,,,,,,,
100545,001,2022-11-20_17h47.58.299,Info_measure_main_exp,2022.2.2,Win32,59.01445854,,,,,,,,,,,,,0,0,0,1,1,masks/mask_002.jpg,,,,,,,,,,,,,,,,,,,,,,,,,,,,,,,,,,,,,,,,,,,,,,,,,,,,,,,,,,,,,,,,,,,,,,,,,,,,,,,,,,,,,,,,,,,,,
100545,001,2022-11-20_17h47.58.299,Info_measure_main_exp,2022.2.2,Win32,59.01445854,,,,,,,,,,,,,0,1,1,2,1,masks/mask_003.jpg,,,,,,,,,,,,,,,,,,,,,,,,,,,,,,,,,,,,,,,,,,,,,,,,,,,,,,,,,,,,,,,,,,,,,,,,,,,,,,,,,,,,,,,,,,,,,
100545,001,2022-11-20_17h47.58.299,Info_measure_main_exp,2022.2.2,Win32,59.01445854,,,,,,,,,,,,,0,2,2,0,1,masks/mask_001.jpg,,,,,,,,,,,,,,,,,,,,,,,,,,,,,,,,,,,,,,,,,,,,,,,,,,,,,,,,,,,,,,,,,,,,,,,,,,,,,,,,,,,,,,,,,,,,,
100545,001,2022-11-20_17h47.58.299,Info_measure_main_exp,2022.2.2,Win32,59.01445854,,,,,,,,,,,,,0,3,3,4,1,masks/mask_005.jpg,,,,,,,,,,,,,,,,,,,,,,,,,,,,,,,,,,,,,,,,,,,,,,,,,,,,,,,,,,,,,,,,,,,,,,,,,,,,,,,,,,,,,,,,,,,,,
100545,001,2022-11-20_17h47.58.299,Info_measure_main_exp,2022.2.2,Win32,59.01445854,,,,,,,,,,,,,0,4,4,3,1,masks/mask_004.jpg,,,,,,,,,,,,,,,,,,,,,,,,,,,,,,,,,,,,,,,,,,,,,,,,,,,,,,,,,,,,,,,,,,,,,,,,,,,,,,,,,,,,,,,,,,,,,
100545,001,2022-11-20_17h47.58.299,Info_measure_main_exp,2022.2.2,Win32,59.01445854,,,,,,,,,,,,,,,,,,masks/mask_003.jpg,0,0,0,2,1,,,,,,,,,,,,,,,,,,,,,,,,,,,,,,,,,,,,,,,,,,,,,,,,,,,,,,,,,,,,,,,,,,,,,,,,,,,,,,,,,,,,,,,,
100545,001,2022-11-20_17h47.58.299,Info_measure_main_exp,2022.2.2,Win32,59.01445854,,,,,,,,,,,,,,,,,,masks/mask_005.jpg,0,1,1,4,1,,,,,,,,,,,,,,,,,,,,,,,,,,,,,,,,,,,,,,,,,,,,,,,,,,,,,,,,,,,,,,,,,,,,,,,,,,,,,,,,,,,,,,,,
100545,001,2022-11-20_17h47.58.299,Info_measure_main_exp,2022.2.2,Win32,59.01445854,,,,,,,,,,,,,,,,,,masks/mask_002.jpg,0,2,2,1,1,,,,,,,,,,,,,,,,,,,,,,,,,,,,,,,,,,,,,,,,,,,,,,,,,,,,,,,,,,,,,,,,,,,,,,,,,,,,,,,,,,,,,,,,
100545,001,2022-11-20_17h47.58.299,Info_measure_main_exp,2022.2.2,Win32,59.01445854,,,,,,,,,,,,,,,,,,masks/mask_001.jpg,0,3,3,0,1,,,,,,,,,,,,,,,,,,,,,,,,,,,,,,,,,,,,,,,,,,,,,,,,,,,,,,,,,,,,,,,,,,,,,,,,,,,,,,,,,,,,,,,,
100545,001,2022-11-20_17h47.58.299,Info_measure_main_exp,2022.2.2,Win32,59.01445854,,,,,,,,,,,,,,,,,,masks/mask_004.jpg,0,4,4,3,1,,,,,,,,,,,,,,,,,,,,,,,,,,,,,,,,,,,,,,,,,,,,,,,,,,,,,,,,,,,,,,,,,,,,,,,,,,,,,,,,,,,,,,,,
100545,001,2022-11-20_17h47.58.299,Info_measure_main_exp,2022.2.2,Win32,59.01445854,,,,,,,,,,,,,,,,,,,,,,,,-0.052083333,0.140625,1,0,0,response7disk,0,99.9031,1,0.005208333,-0.0078125,1,0,0,center_square,0,1,1,2,1,0,131,5,5,2526,2526,prac_patch/patch0002526.jpg,prac_patch/patch0002526.jpg,,,,,,,,,,,,,,,,,,,,,,,,,,,,,,,,,,,,,,,,,,,,,,,,,,,,,,,,,,,,
100545,001,2022-11-20_17h47.58.299,Info_measure_main_exp,2022.2.2,Win32,59.01445854,,,,,,,,,,,,,0,0,0,3,1,masks/mask_004.jpg,,,,,,,,,,,,,,,,,,,,,,,,,,,,,,,,,,,,,,,,,,,,,,,,,,,,,,,,,,,,,,,,,,,,,,,,,,,,,,,,,,,,,,,,,,,,,
100545,001,2022-11-20_17h47.58.299,Info_measure_main_exp,2022.2.2,Win32,59.01445854,,,,,,,,,,,,,0,1,1,0,1,masks/mask_001.jpg,,,,,,,,,,,,,,,,,,,,,,,,,,,,,,,,,,,,,,,,,,,,,,,,,,,,,,,,,,,,,,,,,,,,,,,,,,,,,,,,,,,,,,,,,,,,,
100545,001,2022-11-20_17h47.58.299,Info_measure_main_exp,2022.2.2,Win32,59.01445854,,,,,,,,,,,,,0,2,2,4,1,masks/mask_005.jpg,,,,,,,,,,,,,,,,,,,,,,,,,,,,,,,,,,,,,,,,,,,,,,,,,,,,,,,,,,,,,,,,,,,,,,,,,,,,,,,,,,,,,,,,,,,,,
100545,001,2022-11-20_17h47.58.299,Info_measure_main_exp,2022.2.2,Win32,59.01445854,,,,,,,,,,,,,0,3,3,2,1,masks/mask_003.jpg,,,,,,,,,,,,,,,,,,,,,,,,,,,,,,,,,,,,,,,,,,,,,,,,,,,,,,,,,,,,,,,,,,,,,,,,,,,,,,,,,,,,,,,,,,,,,
100545,001,2022-11-20_17h47.58.299,Info_measure_main_exp,2022.2.2,Win32,59.01445854,,,,,,,,,,,,,0,4,4,1,1,masks/mask_002.jpg,,,,,,,,,,,,,,,,,,,,,,,,,,,,,,,,,,,,,,,,,,,,,,,,,,,,,,,,,,,,,,,,,,,,,,,,,,,,,,,,,,,,,,,,,,,,,
100545,001,2022-11-20_17h47.58.299,Info_measure_main_exp,2022.2.2,Win32,59.01445854,,,,,,,,,,,,,,,,,,masks/mask_002.jpg,0,0,0,1,1,,,,,,,,,,,,,,,,,,,,,,,,,,,,,,,,,,,,,,,,,,,,,,,,,,,,,,,,,,,,,,,,,,,,,,,,,,,,,,,,,,,,,,,,
100545,001,2022-11-20_17h47.58.299,Info_measure_main_exp,2022.2.2,Win32,59.01445854,,,,,,,,,,,,,,,,,,masks/mask_001.jpg,0,1,1,0,1,,,,,,,,,,,,,,,,,,,,,,,,,,,,,,,,,,,,,,,,,,,,,,,,,,,,,,,,,,,,,,,,,,,,,,,,,,,,,,,,,,,,,,,,
100545,001,2022-11-20_17h47.58.299,Info_measure_main_exp,2022.2.2,Win32,59.01445854,,,,,,,,,,,,,,,,,,masks/mask_005.jpg,0,2,2,4,1,,,,,,,,,,,,,,,,,,,,,,,,,,,,,,,,,,,,,,,,,,,,,,,,,,,,,,,,,,,,,,,,,,,,,,,,,,,,,,,,,,,,,,,,
100545,001,2022-11-20_17h47.58.299,Info_measure_main_exp,2022.2.2,Win32,59.01445854,,,,,,,,,,,,,,,,,,masks/mask_003.jpg,0,3,3,2,1,,,,,,,,,,,,,,,,,,,,,,,,,,,,,,,,,,,,,,,,,,,,,,,,,,,,,,,,,,,,,,,,,,,,,,,,,,,,,,,,,,,,,,,,
100545,001,2022-11-20_17h47.58.299,Info_measure_main_exp,2022.2.2,Win32,59.01445854,,,,,,,,,,,,,,,,,,masks/mask_004.jpg,0,4,4,3,1,,,,,,,,,,,,,,,,,,,,,,,,,,,,,,,,,,,,,,,,,,,,,,,,,,,,,,,,,,,,,,,,,,,,,,,,,,,,,,,,,,,,,,,,
100545,001,2022-11-20_17h47.58.299,Info_measure_main_exp,2022.2.2,Win32,59.01445854,,,,,,,,,,,,,,,,,,,,,,,,0.151041667,-0.046875,1,0,0,response3disk,5,108.8164,1,0.002604167,0.00390625,1,0,0,center_square,0,2,2,1,1,0,131,5,5,2514,2490,prac_patch/patch0002514.jpg,prac_patch/patch0002490.jpg,,,,,,,,,,,,,,,,,,,,,,,,,,,,,,,,,,,,,,,,,,,,,,,,,,,,,,,,,,,,
100545,001,2022-11-20_17h47.58.299,Info_measure_main_exp,2022.2.2,Win32,59.01445854,,,,,,,,,,,,,,,,,,,,,,,,,,,,,,,,,,,,,,,,,,,,,,,,,,,,,,,,,,,space,2.1828,,,,,,,,,,,,,,,,,,,,,,,,,,,,,,,,,,,,,,,,,,,,,,,,,,,
100545,001,2022-11-20_17h47.58.299,Info_measure_main_exp,2022.2.2,Win32,59.01445854,,,,,,,,,,,,,,,,,,masks/mask_004.jpg,,,,,,,,,,,,,,,,,,,,,,,,,,,,,,,,,,,,,,,,,,,0,0,0,3,1,,,,,,,,,,,,,,,,,,,,,,,,,,,,,,,,,,,,,,,,,,,,,,
100545,001,2022-11-20_17h47.58.299,Info_measure_main_exp,2022.2.2,Win32,59.01445854,,,,,,,,,,,,,,,,,,masks/mask_005.jpg,,,,,,,,,,,,,,,,,,,,,,,,,,,,,,,,,,,,,,,,,,,0,1,1,4,1,,,,,,,,,,,,,,,,,,,,,,,,,,,,,,,,,,,,,,,,,,,,,,
100545,001,2022-11-20_17h47.58.299,Info_measure_main_exp,2022.2.2,Win32,59.01445854,,,,,,,,,,,,,,,,,,masks/mask_001.jpg,,,,,,,,,,,,,,,,,,,,,,,,,,,,,,,,,,,,,,,,,,,0,2,2,0,1,,,,,,,,,,,,,,,,,,,,,,,,,,,,,,,,,,,,,,,,,,,,,,
100545,001,2022-11-20_17h47.58.299,Info_measure_main_exp,2022.2.2,Win32,59.01445854,,,,,,,,,,,,,,,,,,masks/mask_003.jpg,,,,,,,,,,,,,,,,,,,,,,,,,,,,,,,,,,,,,,,,,,,0,3,3,2,1,,,,,,,,,,,,,,,,,,,,,,,,,,,,,,,,,,,,,,,,,,,,,,
100545,001,2022-11-20_17h47.58.299,Info_measure_main_exp,2022.2.2,Win32,59.01445854,,,,,,,,,,,,,,,,,,masks/mask_002.jpg,,,,,,,,,,,,,,,,,,,,,,,,,,,,,,,,,,,,,,,,,,,0,4,4,1,1,,,,,,,,,,,,,,,,,,,,,,,,,,,,,,,,,,,,,,,,,,,,,,
100545,001,2022-11-20_17h47.58.299,Info_measure_main_exp,2022.2.2,Win32,59.01445854,,,,,,,,,,,,,,,,,,masks/mask_001.jpg,,,,,,,,,,,,,,,,,,,,,,,,,,,,,,,,,,,,,,,,,,,,,,,,0,0,0,0,1,,,,,,,,,,,,,,,,,,,,,,,,,,,,,,,,,,,,,,,,,
100545,001,2022-11-20_17h47.58.299,Info_measure_main_exp,2022.2.2,Win32,59.01445854,,,,,,,,,,,,,,,,,,masks/mask_003.jpg,,,,,,,,,,,,,,,,,,,,,,,,,,,,,,,,,,,,,,,,,,,,,,,,0,1,1,2,1,,,,,,,,,,,,,,,,,,,,,,,,,,,,,,,,,,,,,,,,,
100545,001,2022-11-20_17h47.58.299,Info_measure_main_exp,2022.2.2,Win32,59.01445854,,,,,,,,,,,,,,,,,,masks/mask_005.jpg,,,,,,,,,,,,,,,,,,,,,,,,,,,,,,,,,,,,,,,,,,,,,,,,0,2,2,4,1,,,,,,,,,,,,,,,,,,,,,,,,,,,,,,,,,,,,,,,,,
100545,001,2022-11-20_17h47.58.299,Info_measure_main_exp,2022.2.2,Win32,59.01445854,,,,,,,,,,,,,,,,,,masks/mask_002.jpg,,,,,,,,,,,,,,,,,,,,,,,,,,,,,,,,,,,,,,,,,,,,,,,,0,3,3,1,1,,,,,,,,,,,,,,,,,,,,,,,,,,,,,,,,,,,,,,,,,
100545,001,2022-11-20_17h47.58.299,Info_measure_main_exp,2022.2.2,Win32,59.01445854,,,,,,,,,,,,,,,,,,masks/mask_004.jpg,,,,,,,,,,,,,,,,,,,,,,,,,,,,,,,,,,,,,,,,,,,,,,,,0,4,4,3,1,,,,,,,,,,,,,,,,,,,,,,,,,,,,,,,,,,,,,,,,,
100545,001,2022-11-20_17h47.58.299,Info_measure_main_exp,2022.2.2,Win32,59.01445854,,,,,,,,,,,,,,,,,,,,,,,,,,,,,,7,1.4452,1,,,,,,,,,,,,0,131,5,5,2190,2166,absent_patch/patch0002190.jpg,absent_patch/patch0002166.jpg,,,,,,,,,,,,,,,,,,,,0.05078125,0.130208333,1,0,0,response1disk,1,-0.00390625,-0.0078125,1,0,0,center_square,0,0,0,50,1,,,,,,,,,,,,,,,,,,,,,,,
100545,001,2022-11-20_17h47.58.299,Info_measure_main_exp,2022.2.2,Win32,59.01445854,,,,,,,,,,,,,,,,,,masks/mask_002.jpg,,,,,,,,,,,,,,,,,,,,,,,,,,,,,,,,,,,,,,,,,,,0,0,0,1,1,,,,,,,,,,,,,,,,,,,,,,,,,,,,,,,,,,,,,,,,,,,,,,
100545,001,2022-11-20_17h47.58.299,Info_measure_main_exp,2022.2.2,Win32,59.01445854,,,,,,,,,,,,,,,,,,masks/mask_001.jpg,,,,,,,,,,,,,,,,,,,,,,,,,,,,,,,,,,,,,,,,,,,0,1,1,0,1,,,,,,,,,,,,,,,,,,,,,,,,,,,,,,,,,,,,,,,,,,,,,,
100545,001,2022-11-20_17h47.58.299,Info_measure_main_exp,2022.2.2,Win32,59.01445854,,,,,,,,,,,,,,,,,,masks/mask_003.jpg,,,,,,,,,,,,,,,,,,,,,,,,,,,,,,,,,,,,,,,,,,,0,2,2,2,1,,,,,,,,,,,,,,,,,,,,,,,,,,,,,,,,,,,,,,,,,,,,,,
100545,001,2022-11-20_17h47.58.299,Info_measure_main_exp,2022.2.2,Win32,59.01445854,,,,,,,,,,,,,,,,,,masks/mask_004.jpg,,,,,,,,,,,,,,,,,,,,,,,,,,,,,,,,,,,,,,,,,,,0,3,3,3,1,,,,,,,,,,,,,,,,,,,,,,,,,,,,,,,,,,,,,,,,,,,,,,
100545,001,2022-11-20_17h47.58.299,Info_measure_main_exp,2022.2.2,Win32,59.01445854,,,,,,,,,,,,,,,,,,masks/mask_005.jpg,,,,,,,,,,,,,,,,,,,,,,,,,,,,,,,,,,,,,,,,,,,0,4,4,4,1,,,,,,,,,,,,,,,,,,,,,,,,,,,,,,,,,,,,,,,,,,,,,,
100545,001,2022-11-20_17h47.58.299,Info_measure_main_exp,2022.2.2,Win32,59.01445854,,,,,,,,,,,,,,,,,,masks/mask_003.jpg,,,,,,,,,,,,,,,,,,,,,,,,,,,,,,,,,,,,,,,,,,,,,,,,0,0,0,2,1,,,,,,,,,,,,,,,,,,,,,,,,,,,,,,,,,,,,,,,,,
100545,001,2022-11-20_17h47.58.299,Info_measure_main_exp,2022.2.2,Win32,59.01445854,,,,,,,,,,,,,,,,,,masks/mask_005.jpg,,,,,,,,,,,,,,,,,,,,,,,,,,,,,,,,,,,,,,,,,,,,,,,,0,1,1,4,1,,,,,,,,,,,,,,,,,,,,,,,,,,,,,,,,,,,,,,,,,
100545,001,2022-11-20_17h47.58.299,Info_measure_main_exp,2022.2.2,Win32,59.01445854,,,,,,,,,,,,,,,,,,masks/mask_001.jpg,,,,,,,,,,,,,,,,,,,,,,,,,,,,,,,,,,,,,,,,,,,,,,,,0,2,2,0,1,,,,,,,,,,,,,,,,,,,,,,,,,,,,,,,,,,,,,,,,,
100545,001,2022-11-20_17h47.58.299,Info_measure_main_exp,2022.2.2,Win32,59.01445854,,,,,,,,,,,,,,,,,,masks/mask_004.jpg,,,,,,,,,,,,,,,,,,,,,,,,,,,,,,,,,,,,,,,,,,,,,,,,0,3,3,3,1,,,,,,,,,,,,,,,,,,,,,,,,,,,,,,,,,,,,,,,,,
100545,001,2022-11-20_17h47.58.299,Info_measure_main_exp,2022.2.2,Win32,59.01445854,,,,,,,,,,,,,,,,,,masks/mask_002.jpg,,,,,,,,,,,,,,,,,,,,,,,,,,,,,,,,,,,,,,,,,,,,,,,,0,4,4,1,1,,,,,,,,,,,,,,,,,,,,,,,,,,,,,,,,,,,,,,,,,
100545,001,2022-11-20_17h47.58.299,Info_measure_main_exp,2022.2.2,Win32,59.01445854,,,,,,,,,,,,,,,,,,,,,,,,,,,,,,6,1.2499,1,,,,,,,,,,,,0,131,5,5,2274,2190,absent_patch/patch0002274.jpg,absent_patch/patch0002190.jpg,,,,,,,,,,,,,,,,,,,,0.134114583,0.044270833,1,0,0,response1disk,2,-0.00390625,-0.00390625,1,0,0,center_square,0,1,1,116,1,,,,,,,,,,,,,,,,,,,,,,,
100545,001,2022-11-20_17h47.58.299,Info_measure_main_exp,2022.2.2,Win32,59.01445854,,,,,,,,,,,,,,,,,,masks/mask_005.jpg,,,,,,,,,,,,,,,,,,,,,,,,,,,,,,,,,,,,,,,,,,,0,0,0,4,1,,,,,,,,,,,,,,,,,,,,,,,,,,,,,,,,,,,,,,,,,,,,,,
100545,001,2022-11-20_17h47.58.299,Info_measure_main_exp,2022.2.2,Win32,59.01445854,,,,,,,,,,,,,,,,,,masks/mask_003.jpg,,,,,,,,,,,,,,,,,,,,,,,,,,,,,,,,,,,,,,,,,,,0,1,1,2,1,,,,,,,,,,,,,,,,,,,,,,,,,,,,,,,,,,,,,,,,,,,,,,
100545,001,2022-11-20_17h47.58.299,Info_measure_main_exp,2022.2.2,Win32,59.01445854,,,,,,,,,,,,,,,,,,masks/mask_001.jpg,,,,,,,,,,,,,,,,,,,,,,,,,,,,,,,,,,,,,,,,,,,0,2,2,0,1,,,,,,,,,,,,,,,,,,,,,,,,,,,,,,,,,,,,,,,,,,,,,,
100545,001,2022-11-20_17h47.58.299,Info_measure_main_exp,2022.2.2,Win32,59.01445854,,,,,,,,,,,,,,,,,,masks/mask_002.jpg,,,,,,,,,,,,,,,,,,,,,,,,,,,,,,,,,,,,,,,,,,,0,3,3,1,1,,,,,,,,,,,,,,,,,,,,,,,,,,,,,,,,,,,,,,,,,,,,,,
100545,001,2022-11-20_17h47.58.299,Info_measure_main_exp,2022.2.2,Win32,59.01445854,,,,,,,,,,,,,,,,,,masks/mask_004.jpg,,,,,,,,,,,,,,,,,,,,,,,,,,,,,,,,,,,,,,,,,,,0,4,4,3,1,,,,,,,,,,,,,,,,,,,,,,,,,,,,,,,,,,,,,,,,,,,,,,
100545,001,2022-11-20_17h47.58.299,Info_measure_main_exp,2022.2.2,Win32,59.01445854,,,,,,,,,,,,,,,,,,masks/mask_005.jpg,,,,,,,,,,,,,,,,,,,,,,,,,,,,,,,,,,,,,,,,,,,,,,,,0,0,0,4,1,,,,,,,,,,,,,,,,,,,,,,,,,,,,,,,,,,,,,,,,,
100545,001,2022-11-20_17h47.58.299,Info_measure_main_exp,2022.2.2,Win32,59.01445854,,,,,,,,,,,,,,,,,,masks/mask_003.jpg,,,,,,,,,,,,,,,,,,,,,,,,,,,,,,,,,,,,,,,,,,,,,,,,0,1,1,2,1,,,,,,,,,,,,,,,,,,,,,,,,,,,,,,,,,,,,,,,,,
100545,001,2022-11-20_17h47.58.299,Info_measure_main_exp,2022.2.2,Win32,59.01445854,,,,,,,,,,,,,,,,,,masks/mask_004.jpg,,,,,,,,,,,,,,,,,,,,,,,,,,,,,,,,,,,,,,,,,,,,,,,,0,2,2,3,1,,,,,,,,,,,,,,,,,,,,,,,,,,,,,,,,,,,,,,,,,
100545,001,2022-11-20_17h47.58.299,Info_measure_main_exp,2022.2.2,Win32,59.01445854,,,,,,,,,,,,,,,,,,masks/mask_001.jpg,,,,,,,,,,,,,,,,,,,,,,,,,,,,,,,,,,,,,,,,,,,,,,,,0,3,3,0,1,,,,,,,,,,,,,,,,,,,,,,,,,,,,,,,,,,,,,,,,,
100545,001,2022-11-20_17h47.58.299,Info_measure_main_exp,2022.2.2,Win32,59.01445854,,,,,,,,,,,,,,,,,,masks/mask_002.jpg,,,,,,,,,,,,,,,,,,,,,,,,,,,,,,,,,,,,,,,,,,,,,,,,0,4,4,1,1,,,,,,,,,,,,,,,,,,,,,,,,,,,,,,,,,,,,,,,,,
100545,001,2022-11-20_17h47.58.299,Info_measure_main_exp,2022.2.2,Win32,59.01445854,,,,,,,,,,,,,,,,,,,,,,,,,,,,,,0,0.9,1,,,,,,,,,,,,1,131,5,5,1,1,present_patch/cong_131_5_a.jpg,present_patch/cong_131_5_a.jpg,,,,,,,,,,,,,,,,,,,,-0.065104167,0.143229167,1,0,0,response7disk,3,-0.006510417,-0.001302083,1,0,0,center_square,0,2,2,30,1,,,,,,,,,,,,,,,,,,,,,,,
100545,001,2022-11-20_17h47.58.299,Info_measure_main_exp,2022.2.2,Win32,59.01445854,,,,,,,,,,,,,,,,,,masks/mask_003.jpg,,,,,,,,,,,,,,,,,,,,,,,,,,,,,,,,,,,,,,,,,,,0,0,0,2,1,,,,,,,,,,,,,,,,,,,,,,,,,,,,,,,,,,,,,,,,,,,,,,
100545,001,2022-11-20_17h47.58.299,Info_measure_main_exp,2022.2.2,Win32,59.01445854,,,,,,,,,,,,,,,,,,masks/mask_005.jpg,,,,,,,,,,,,,,,,,,,,,,,,,,,,,,,,,,,,,,,,,,,0,1,1,4,1,,,,,,,,,,,,,,,,,,,,,,,,,,,,,,,,,,,,,,,,,,,,,,
100545,001,2022-11-20_17h47.58.299,Info_measure_main_exp,2022.2.2,Win32,59.01445854,,,,,,,,,,,,,,,,,,masks/mask_004.jpg,,,,,,,,,,,,,,,,,,,,,,,,,,,,,,,,,,,,,,,,,,,0,2,2,3,1,,,,,,,,,,,,,,,,,,,,,,,,,,,,,,,,,,,,,,,,,,,,,,
100545,001,2022-11-20_17h47.58.299,Info_measure_main_exp,2022.2.2,Win32,59.01445854,,,,,,,,,,,,,,,,,,masks/mask_002.jpg,,,,,,,,,,,,,,,,,,,,,,,,,,,,,,,,,,,,,,,,,,,0,3,3,1,1,,,,,,,,,,,,,,,,,,,,,,,,,,,,,,,,,,,,,,,,,,,,,,
100545,001,2022-11-20_17h47.58.299,Info_measure_main_exp,2022.2.2,Win32,59.01445854,,,,,,,,,,,,,,,,,,masks/mask_001.jpg,,,,,,,,,,,,,,,,,,,,,,,,,,,,,,,,,,,,,,,,,,,0,4,4,0,1,,,,,,,,,,,,,,,,,,,,,,,,,,,,,,,,,,,,,,,,,,,,,,
100545,001,2022-11-20_17h47.58.299,Info_measure_main_exp,2022.2.2,Win32,59.01445854,,,,,,,,,,,,,,,,,,masks/mask_002.jpg,,,,,,,,,,,,,,,,,,,,,,,,,,,,,,,,,,,,,,,,,,,,,,,,0,0,0,1,1,,,,,,,,,,,,,,,,,,,,,,,,,,,,,,,,,,,,,,,,,
100545,001,2022-11-20_17h47.58.299,Info_measure_main_exp,2022.2.2,Win32,59.01445854,,,,,,,,,,,,,,,,,,masks/mask_001.jpg,,,,,,,,,,,,,,,,,,,,,,,,,,,,,,,,,,,,,,,,,,,,,,,,0,1,1,0,1,,,,,,,,,,,,,,,,,,,,,,,,,,,,,,,,,,,,,,,,,
100545,001,2022-11-20_17h47.58.299,Info_measure_main_exp,2022.2.2,Win32,59.01445854,,,,,,,,,,,,,,,,,,masks/mask_003.jpg,,,,,,,,,,,,,,,,,,,,,,,,,,,,,,,,,,,,,,,,,,,,,,,,0,2,2,2,1,,,,,,,,,,,,,,,,,,,,,,,,,,,,,,,,,,,,,,,,,
100545,001,2022-11-20_17h47.58.299,Info_measure_main_exp,2022.2.2,Win32,59.01445854,,,,,,,,,,,,,,,,,,masks/mask_005.jpg,,,,,,,,,,,,,,,,,,,,,,,,,,,,,,,,,,,,,,,,,,,,,,,,0,3,3,4,1,,,,,,,,,,,,,,,,,,,,,,,,,,,,,,,,,,,,,,,,,
100545,001,2022-11-20_17h47.58.299,Info_measure_main_exp,2022.2.2,Win32,59.01445854,,,,,,,,,,,,,,,,,,masks/mask_004.jpg,,,,,,,,,,,,,,,,,,,,,,,,,,,,,,,,,,,,,,,,,,,,,,,,0,4,4,3,1,,,,,,,,,,,,,,,,,,,,,,,,,,,,,,,,,,,,,,,,,
100545,001,2022-11-20_17h47.58.299,Info_measure_main_exp,2022.2.2,Win32,59.01445854,,,,,,,,,,,,,,,,,,,,,,,,,,,,,,4,2.7322,1,,,,,,,,,,,,0,131,5,5,1986,2154,absent_patch/patch0001986.jpg,absent_patch/patch0002154.jpg,,,,,,,,,,,,,,,,,,,,0.044270833,-0.157552083,1,0,0,response3disk,4,0,-0.005208333,1,0,0,center_square,0,3,3,36,1,,,,,,,,,,,,,,,,,,,,,,,
100545,001,2022-11-20_17h47.58.299,Info_measure_main_exp,2022.2.2,Win32,59.01445854,,,,,,,,,,,,,,,,,,masks/mask_001.jpg,,,,,,,,,,,,,,,,,,,,,,,,,,,,,,,,,,,,,,,,,,,0,0,0,0,1,,,,,,,,,,,,,,,,,,,,,,,,,,,,,,,,,,,,,,,,,,,,,,
100545,001,2022-11-20_17h47.58.299,Info_measure_main_exp,2022.2.2,Win32,59.01445854,,,,,,,,,,,,,,,,,,masks/mask_005.jpg,,,,,,,,,,,,,,,,,,,,,,,,,,,,,,,,,,,,,,,,,,,0,1,1,4,1,,,,,,,,,,,,,,,,,,,,,,,,,,,,,,,,,,,,,,,,,,,,,,
100545,001,2022-11-20_17h47.58.299,Info_measure_main_exp,2022.2.2,Win32,59.01445854,,,,,,,,,,,,,,,,,,masks/mask_004.jpg,,,,,,,,,,,,,,,,,,,,,,,,,,,,,,,,,,,,,,,,,,,0,2,2,3,1,,,,,,,,,,,,,,,,,,,,,,,,,,,,,,,,,,,,,,,,,,,,,,
100545,001,2022-11-20_17h47.58.299,Info_measure_main_exp,2022.2.2,Win32,59.01445854,,,,,,,,,,,,,,,,,,masks/mask_002.jpg,,,,,,,,,,,,,,,,,,,,,,,,,,,,,,,,,,,,,,,,,,,0,3,3,1,1,,,,,,,,,,,,,,,,,,,,,,,,,,,,,,,,,,,,,,,,,,,,,,
100545,001,2022-11-20_17h47.58.299,Info_measure_main_exp,2022.2.2,Win32,59.01445854,,,,,,,,,,,,,,,,,,masks/mask_003.jpg,,,,,,,,,,,,,,,,,,,,,,,,,,,,,,,,,,,,,,,,,,,0,4,4,2,1,,,,,,,,,,,,,,,,,,,,,,,,,,,,,,,,,,,,,,,,,,,,,,
100545,001,2022-11-20_17h47.58.299,Info_measure_main_exp,2022.2.2,Win32,59.01445854,,,,,,,,,,,,,,,,,,masks/mask_005.jpg,,,,,,,,,,,,,,,,,,,,,,,,,,,,,,,,,,,,,,,,,,,,,,,,0,0,0,4,1,,,,,,,,,,,,,,,,,,,,,,,,,,,,,,,,,,,,,,,,,
100545,001,2022-11-20_17h47.58.299,Info_measure_main_exp,2022.2.2,Win32,59.01445854,,,,,,,,,,,,,,,,,,masks/mask_002.jpg,,,,,,,,,,,,,,,,,,,,,,,,,,,,,,,,,,,,,,,,,,,,,,,,0,1,1,1,1,,,,,,,,,,,,,,,,,,,,,,,,,,,,,,,,,,,,,,,,,
100545,001,2022-11-20_17h47.58.299,Info_measure_main_exp,2022.2.2,Win32,59.01445854,,,,,,,,,,,,,,,,,,masks/mask_003.jpg,,,,,,,,,,,,,,,,,,,,,,,,,,,,,,,,,,,,,,,,,,,,,,,,0,2,2,2,1,,,,,,,,,,,,,,,,,,,,,,,,,,,,,,,,,,,,,,,,,
100545,001,2022-11-20_17h47.58.299,Info_measure_main_exp,2022.2.2,Win32,59.01445854,,,,,,,,,,,,,,,,,,masks/mask_004.jpg,,,,,,,,,,,,,,,,,,,,,,,,,,,,,,,,,,,,,,,,,,,,,,,,0,3,3,3,1,,,,,,,,,,,,,,,,,,,,,,,,,,,,,,,,,,,,,,,,,
100545,001,2022-11-20_17h47.58.299,Info_measure_main_exp,2022.2.2,Win32,59.01445854,,,,,,,,,,,,,,,,,,masks/mask_001.jpg,,,,,,,,,,,,,,,,,,,,,,,,,,,,,,,,,,,,,,,,,,,,,,,,0,4,4,0,1,,,,,,,,,,,,,,,,,,,,,,,,,,,,,,,,,,,,,,,,,
100545,001,2022-11-20_17h47.58.299,Info_measure_main_exp,2022.2.2,Win32,59.01445854,,,,,,,,,,,,,,,,,,,,,,,,,,,,,,4,1.8896,1,,,,,,,,,,,,0,131,5,5,2190,2178,absent_patch/patch0002190.jpg,absent_patch/patch0002178.jpg,,,,,,,,,,,,,,,,,,,,0.045572917,-0.084635417,1,0,0,response3disk,5,-0.0078125,0.001302083,1,0,0,center_square,0,4,4,14,1,,,,,,,,,,,,,,,,,,,,,,,
100545,001,2022-11-20_17h47.58.299,Info_measure_main_exp,2022.2.2,Win32,59.01445854,,,,,,,,,,,,,,,,,,masks/mask_003.jpg,,,,,,,,,,,,,,,,,,,,,,,,,,,,,,,,,,,,,,,,,,,0,0,0,2,1,,,,,,,,,,,,,,,,,,,,,,,,,,,,,,,,,,,,,,,,,,,,,,
100545,001,2022-11-20_17h47.58.299,Info_measure_main_exp,2022.2.2,Win32,59.01445854,,,,,,,,,,,,,,,,,,masks/mask_002.jpg,,,,,,,,,,,,,,,,,,,,,,,,,,,,,,,,,,,,,,,,,,,0,1,1,1,1,,,,,,,,,,,,,,,,,,,,,,,,,,,,,,,,,,,,,,,,,,,,,,
100545,001,2022-11-20_17h47.58.299,Info_measure_main_exp,2022.2.2,Win32,59.01445854,,,,,,,,,,,,,,,,,,masks/mask_001.jpg,,,,,,,,,,,,,,,,,,,,,,,,,,,,,,,,,,,,,,,,,,,0,2,2,0,1,,,,,,,,,,,,,,,,,,,,,,,,,,,,,,,,,,,,,,,,,,,,,,
100545,001,2022-11-20_17h47.58.299,Info_measure_main_exp,2022.2.2,Win32,59.01445854,,,,,,,,,,,,,,,,,,masks/mask_005.jpg,,,,,,,,,,,,,,,,,,,,,,,,,,,,,,,,,,,,,,,,,,,0,3,3,4,1,,,,,,,,,,,,,,,,,,,,,,,,,,,,,,,,,,,,,,,,,,,,,,
100545,001,2022-11-20_17h47.58.299,Info_measure_main_exp,2022.2.2,Win32,59.01445854,,,,,,,,,,,,,,,,,,masks/mask_004.jpg,,,,,,,,,,,,,,,,,,,,,,,,,,,,,,,,,,,,,,,,,,,0,4,4,3,1,,,,,,,,,,,,,,,,,,,,,,,,,,,,,,,,,,,,,,,,,,,,,,
100545,001,2022-11-20_17h47.58.299,Info_measure_main_exp,2022.2.2,Win32,59.01445854,,,,,,,,,,,,,,,,,,masks/mask_003.jpg,,,,,,,,,,,,,,,,,,,,,,,,,,,,,,,,,,,,,,,,,,,,,,,,0,0,0,2,1,,,,,,,,,,,,,,,,,,,,,,,,,,,,,,,,,,,,,,,,,
100545,001,2022-11-20_17h47.58.299,Info_measure_main_exp,2022.2.2,Win32,59.01445854,,,,,,,,,,,,,,,,,,masks/mask_005.jpg,,,,,,,,,,,,,,,,,,,,,,,,,,,,,,,,,,,,,,,,,,,,,,,,0,1,1,4,1,,,,,,,,,,,,,,,,,,,,,,,,,,,,,,,,,,,,,,,,,
100545,001,2022-11-20_17h47.58.299,Info_measure_main_exp,2022.2.2,Win32,59.01445854,,,,,,,,,,,,,,,,,,masks/mask_004.jpg,,,,,,,,,,,,,,,,,,,,,,,,,,,,,,,,,,,,,,,,,,,,,,,,0,2,2,3,1,,,,,,,,,,,,,,,,,,,,,,,,,,,,,,,,,,,,,,,,,
100545,001,2022-11-20_17h47.58.299,Info_measure_main_exp,2022.2.2,Win32,59.01445854,,,,,,,,,,,,,,,,,,masks/mask_001.jpg,,,,,,,,,,,,,,,,,,,,,,,,,,,,,,,,,,,,,,,,,,,,,,,,0,3,3,0,1,,,,,,,,,,,,,,,,,,,,,,,,,,,,,,,,,,,,,,,,,
100545,001,2022-11-20_17h47.58.299,Info_measure_main_exp,2022.2.2,Win32,59.01445854,,,,,,,,,,,,,,,,,,masks/mask_002.jpg,,,,,,,,,,,,,,,,,,,,,,,,,,,,,,,,,,,,,,,,,,,,,,,,0,4,4,1,1,,,,,,,,,,,,,,,,,,,,,,,,,,,,,,,,,,,,,,,,,
100545,001,2022-11-20_17h47.58.299,Info_measure_main_exp,2022.2.2,Win32,59.01445854,,,,,,,,,,,,,,,,,,,,,,,,,,,,,,6,1.5325,1,,,,,,,,,,,,0,131,5,5,2250,2178,absent_patch/patch0002250.jpg,absent_patch/patch0002178.jpg,,,,,,,,,,,,,,,,,,,,0.108072917,0.048177083,1,0,0,response1disk,6,-0.01171875,-0.00390625,1,0,0,center_square,0,5,5,48,1,,,,,,,,,,,,,,,,,,,,,,,
100545,001,2022-11-20_17h47.58.299,Info_measure_main_exp,2022.2.2,Win32,59.01445854,,,,,,,,,,,,,,,,,,masks/mask_004.jpg,,,,,,,,,,,,,,,,,,,,,,,,,,,,,,,,,,,,,,,,,,,0,0,0,3,1,,,,,,,,,,,,,,,,,,,,,,,,,,,,,,,,,,,,,,,,,,,,,,
100545,001,2022-11-20_17h47.58.299,Info_measure_main_exp,2022.2.2,Win32,59.01445854,,,,,,,,,,,,,,,,,,masks/mask_003.jpg,,,,,,,,,,,,,,,,,,,,,,,,,,,,,,,,,,,,,,,,,,,0,1,1,2,1,,,,,,,,,,,,,,,,,,,,,,,,,,,,,,,,,,,,,,,,,,,,,,
100545,001,2022-11-20_17h47.58.299,Info_measure_main_exp,2022.2.2,Win32,59.01445854,,,,,,,,,,,,,,,,,,masks/mask_001.jpg,,,,,,,,,,,,,,,,,,,,,,,,,,,,,,,,,,,,,,,,,,,0,2,2,0,1,,,,,,,,,,,,,,,,,,,,,,,,,,,,,,,,,,,,,,,,,,,,,,
100545,001,2022-11-20_17h47.58.299,Info_measure_main_exp,2022.2.2,Win32,59.01445854,,,,,,,,,,,,,,,,,,masks/mask_002.jpg,,,,,,,,,,,,,,,,,,,,,,,,,,,,,,,,,,,,,,,,,,,0,3,3,1,1,,,,,,,,,,,,,,,,,,,,,,,,,,,,,,,,,,,,,,,,,,,,,,
100545,001,2022-11-20_17h47.58.299,Info_measure_main_exp,2022.2.2,Win32,59.01445854,,,,,,,,,,,,,,,,,,masks/mask_005.jpg,,,,,,,,,,,,,,,,,,,,,,,,,,,,,,,,,,,,,,,,,,,0,4,4,4,1,,,,,,,,,,,,,,,,,,,,,,,,,,,,,,,,,,,,,,,,,,,,,,
100545,001,2022-11-20_17h47.58.299,Info_measure_main_exp,2022.2.2,Win32,59.01445854,,,,,,,,,,,,,,,,,,masks/mask_005.jpg,,,,,,,,,,,,,,,,,,,,,,,,,,,,,,,,,,,,,,,,,,,,,,,,0,0,0,4,1,,,,,,,,,,,,,,,,,,,,,,,,,,,,,,,,,,,,,,,,,
100545,001,2022-11-20_17h47.58.299,Info_measure_main_exp,2022.2.2,Win32,59.01445854,,,,,,,,,,,,,,,,,,masks/mask_002.jpg,,,,,,,,,,,,,,,,,,,,,,,,,,,,,,,,,,,,,,,,,,,,,,,,0,1,1,1,1,,,,,,,,,,,,,,,,,,,,,,,,,,,,,,,,,,,,,,,,,
100545,001,2022-11-20_17h47.58.299,Info_measure_main_exp,2022.2.2,Win32,59.01445854,,,,,,,,,,,,,,,,,,masks/mask_004.jpg,,,,,,,,,,,,,,,,,,,,,,,,,,,,,,,,,,,,,,,,,,,,,,,,0,2,2,3,1,,,,,,,,,,,,,,,,,,,,,,,,,,,,,,,,,,,,,,,,,
100545,001,2022-11-20_17h47.58.299,Info_measure_main_exp,2022.2.2,Win32,59.01445854,,,,,,,,,,,,,,,,,,masks/mask_003.jpg,,,,,,,,,,,,,,,,,,,,,,,,,,,,,,,,,,,,,,,,,,,,,,,,0,3,3,2,1,,,,,,,,,,,,,,,,,,,,,,,,,,,,,,,,,,,,,,,,,
100545,001,2022-11-20_17h47.58.299,Info_measure_main_exp,2022.2.2,Win32,59.01445854,,,,,,,,,,,,,,,,,,masks/mask_001.jpg,,,,,,,,,,,,,,,,,,,,,,,,,,,,,,,,,,,,,,,,,,,,,,,,0,4,4,0,1,,,,,,,,,,,,,,,,,,,,,,,,,,,,,,,,,,,,,,,,,
100545,001,2022-11-20_17h47.58.299,Info_measure_main_exp,2022.2.2,Win32,59.01445854,,,,,,,,,,,,,,,,,,,,,,,,,,,,,,6,1.3497,1,,,,,,,,,,,,0,131,5,5,2298,2178,absent_patch/patch0002298.jpg,absent_patch/patch0002178.jpg,,,,,,,,,,,,,,,,,,,,0.134114583,0.032552083,1,0,0,response1disk,7,-0.001302083,0.01171875,1,0,0,center_square,0,6,6,84,1,,,,,,,,,,,,,,,,,,,,,,,
100545,001,2022-11-20_17h47.58.299,Info_measure_main_exp,2022.2.2,Win32,59.01445854,,,,,,,,,,,,,,,,,,masks/mask_001.jpg,,,,,,,,,,,,,,,,,,,,,,,,,,,,,,,,,,,,,,,,,,,0,0,0,0,1,,,,,,,,,,,,,,,,,,,,,,,,,,,,,,,,,,,,,,,,,,,,,,
100545,001,2022-11-20_17h47.58.299,Info_measure_main_exp,2022.2.2,Win32,59.01445854,,,,,,,,,,,,,,,,,,masks/mask_004.jpg,,,,,,,,,,,,,,,,,,,,,,,,,,,,,,,,,,,,,,,,,,,0,1,1,3,1,,,,,,,,,,,,,,,,,,,,,,,,,,,,,,,,,,,,,,,,,,,,,,
100545,001,2022-11-20_17h47.58.299,Info_measure_main_exp,2022.2.2,Win32,59.01445854,,,,,,,,,,,,,,,,,,masks/mask_005.jpg,,,,,,,,,,,,,,,,,,,,,,,,,,,,,,,,,,,,,,,,,,,0,2,2,4,1,,,,,,,,,,,,,,,,,,,,,,,,,,,,,,,,,,,,,,,,,,,,,,
100545,001,2022-11-20_17h47.58.299,Info_measure_main_exp,2022.2.2,Win32,59.01445854,,,,,,,,,,,,,,,,,,masks/mask_003.jpg,,,,,,,,,,,,,,,,,,,,,,,,,,,,,,,,,,,,,,,,,,,0,3,3,2,1,,,,,,,,,,,,,,,,,,,,,,,,,,,,,,,,,,,,,,,,,,,,,,
100545,001,2022-11-20_17h47.58.299,Info_measure_main_exp,2022.2.2,Win32,59.01445854,,,,,,,,,,,,,,,,,,masks/mask_002.jpg,,,,,,,,,,,,,,,,,,,,,,,,,,,,,,,,,,,,,,,,,,,0,4,4,1,1,,,,,,,,,,,,,,,,,,,,,,,,,,,,,,,,,,,,,,,,,,,,,,
100545,001,2022-11-20_17h47.58.299,Info_measure_main_exp,2022.2.2,Win32,59.01445854,,,,,,,,,,,,,,,,,,masks/mask_005.jpg,,,,,,,,,,,,,,,,,,,,,,,,,,,,,,,,,,,,,,,,,,,,,,,,0,0,0,4,1,,,,,,,,,,,,,,,,,,,,,,,,,,,,,,,,,,,,,,,,,
100545,001,2022-11-20_17h47.58.299,Info_measure_main_exp,2022.2.2,Win32,59.01445854,,,,,,,,,,,,,,,,,,masks/mask_002.jpg,,,,,,,,,,,,,,,,,,,,,,,,,,,,,,,,,,,,,,,,,,,,,,,,0,1,1,1,1,,,,,,,,,,,,,,,,,,,,,,,,,,,,,,,,,,,,,,,,,
100545,001,2022-11-20_17h47.58.299,Info_measure_main_exp,2022.2.2,Win32,59.01445854,,,,,,,,,,,,,,,,,,masks/mask_004.jpg,,,,,,,,,,,,,,,,,,,,,,,,,,,,,,,,,,,,,,,,,,,,,,,,0,2,2,3,1,,,,,,,,,,,,,,,,,,,,,,,,,,,,,,,,,,,,,,,,,
100545,001,2022-11-20_17h47.58.299,Info_measure_main_exp,2022.2.2,Win32,59.01445854,,,,,,,,,,,,,,,,,,masks/mask_001.jpg,,,,,,,,,,,,,,,,,,,,,,,,,,,,,,,,,,,,,,,,,,,,,,,,0,3,3,0,1,,,,,,,,,,,,,,,,,,,,,,,,,,,,,,,,,,,,,,,,,
100545,001,2022-11-20_17h47.58.299,Info_measure_main_exp,2022.2.2,Win32,59.01445854,,,,,,,,,,,,,,,,,,masks/mask_003.jpg,,,,,,,,,,,,,,,,,,,,,,,,,,,,,,,,,,,,,,,,,,,,,,,,0,4,4,2,1,,,,,,,,,,,,,,,,,,,,,,,,,,,,,,,,,,,,,,,,,
100545,001,2022-11-20_17h47.58.299,Info_measure_main_exp,2022.2.2,Win32,59.01445854,,,,,,,,,,,,,,,,,,,,,,,,,,,,,,7,2.4659,1,,,,,,,,,,,,0,131,5,5,1974,2238,absent_patch/patch0001974.jpg,absent_patch/patch0002238.jpg,,,,,,,,,,,,,,,,,,,,0.045572917,0.12109375,1,0,0,response1disk,8,0.001302083,-0.001302083,1,0,0,center_square,0,7,7,95,1,,,,,,,,,,,,,,,,,,,,,,,
100545,001,2022-11-20_17h47.58.299,Info_measure_main_exp,2022.2.2,Win32,59.01445854,,,,,,,,,,,,,,,,,,masks/mask_001.jpg,,,,,,,,,,,,,,,,,,,,,,,,,,,,,,,,,,,,,,,,,,,0,0,0,0,1,,,,,,,,,,,,,,,,,,,,,,,,,,,,,,,,,,,,,,,,,,,,,,
100545,001,2022-11-20_17h47.58.299,Info_measure_main_exp,2022.2.2,Win32,59.01445854,,,,,,,,,,,,,,,,,,masks/mask_003.jpg,,,,,,,,,,,,,,,,,,,,,,,,,,,,,,,,,,,,,,,,,,,0,1,1,2,1,,,,,,,,,,,,,,,,,,,,,,,,,,,,,,,,,,,,,,,,,,,,,,
100545,001,2022-11-20_17h47.58.299,Info_measure_main_exp,2022.2.2,Win32,59.01445854,,,,,,,,,,,,,,,,,,masks/mask_005.jpg,,,,,,,,,,,,,,,,,,,,,,,,,,,,,,,,,,,,,,,,,,,0,2,2,4,1,,,,,,,,,,,,,,,,,,,,,,,,,,,,,,,,,,,,,,,,,,,,,,
100545,001,2022-11-20_17h47.58.299,Info_measure_main_exp,2022.2.2,Win32,59.01445854,,,,,,,,,,,,,,,,,,masks/mask_004.jpg,,,,,,,,,,,,,,,,,,,,,,,,,,,,,,,,,,,,,,,,,,,0,3,3,3,1,,,,,,,,,,,,,,,,,,,,,,,,,,,,,,,,,,,,,,,,,,,,,,
100545,001,2022-11-20_17h47.58.299,Info_measure_main_exp,2022.2.2,Win32,59.01445854,,,,,,,,,,,,,,,,,,masks/mask_002.jpg,,,,,,,,,,,,,,,,,,,,,,,,,,,,,,,,,,,,,,,,,,,0,4,4,1,1,,,,,,,,,,,,,,,,,,,,,,,,,,,,,,,,,,,,,,,,,,,,,,
100545,001,2022-11-20_17h47.58.299,Info_measure_main_exp,2022.2.2,Win32,59.01445854,,,,,,,,,,,,,,,,,,masks/mask_002.jpg,,,,,,,,,,,,,,,,,,,,,,,,,,,,,,,,,,,,,,,,,,,,,,,,0,0,0,1,1,,,,,,,,,,,,,,,,,,,,,,,,,,,,,,,,,,,,,,,,,
100545,001,2022-11-20_17h47.58.299,Info_measure_main_exp,2022.2.2,Win32,59.01445854,,,,,,,,,,,,,,,,,,masks/mask_003.jpg,,,,,,,,,,,,,,,,,,,,,,,,,,,,,,,,,,,,,,,,,,,,,,,,0,1,1,2,1,,,,,,,,,,,,,,,,,,,,,,,,,,,,,,,,,,,,,,,,,
100545,001,2022-11-20_17h47.58.299,Info_measure_main_exp,2022.2.2,Win32,59.01445854,,,,,,,,,,,,,,,,,,masks/mask_001.jpg,,,,,,,,,,,,,,,,,,,,,,,,,,,,,,,,,,,,,,,,,,,,,,,,0,2,2,0,1,,,,,,,,,,,,,,,,,,,,,,,,,,,,,,,,,,,,,,,,,
100545,001,2022-11-20_17h47.58.299,Info_measure_main_exp,2022.2.2,Win32,59.01445854,,,,,,,,,,,,,,,,,,masks/mask_005.jpg,,,,,,,,,,,,,,,,,,,,,,,,,,,,,,,,,,,,,,,,,,,,,,,,0,3,3,4,1,,,,,,,,,,,,,,,,,,,,,,,,,,,,,,,,,,,,,,,,,
100545,001,2022-11-20_17h47.58.299,Info_measure_main_exp,2022.2.2,Win32,59.01445854,,,,,,,,,,,,,,,,,,masks/mask_004.jpg,,,,,,,,,,,,,,,,,,,,,,,,,,,,,,,,,,,,,,,,,,,,,,,,0,4,4,3,1,,,,,,,,,,,,,,,,,,,,,,,,,,,,,,,,,,,,,,,,,
100545,001,2022-11-20_17h47.58.299,Info_measure_main_exp,2022.2.2,Win32,59.01445854,,,,,,,,,,,,,,,,,,,,,,,,,,,,,,0,0.8166,1,,,,,,,,,,,,0,131,5,5,1950,1950,absent_patch/patch0001950.jpg,absent_patch/patch0001950.jpg,,,,,,,,,,,,,,,,,,,,-0.05078125,0.09375,1,0,0,response7disk,9,0.005208333,0,1,0,0,center_square,0,8,8,92,1,,,,,,,,,,,,,,,,,,,,,,,
100545,001,2022-11-20_17h47.58.299,Info_measure_main_exp,2022.2.2,Win32,59.01445854,,,,,,,,,,,,,,,,,,masks/mask_003.jpg,,,,,,,,,,,,,,,,,,,,,,,,,,,,,,,,,,,,,,,,,,,0,0,0,2,1,,,,,,,,,,,,,,,,,,,,,,,,,,,,,,,,,,,,,,,,,,,,,,
100545,001,2022-11-20_17h47.58.299,Info_measure_main_exp,2022.2.2,Win32,59.01445854,,,,,,,,,,,,,,,,,,masks/mask_005.jpg,,,,,,,,,,,,,,,,,,,,,,,,,,,,,,,,,,,,,,,,,,,0,1,1,4,1,,,,,,,,,,,,,,,,,,,,,,,,,,,,,,,,,,,,,,,,,,,,,,
100545,001,2022-11-20_17h47.58.299,Info_measure_main_exp,2022.2.2,Win32,59.01445854,,,,,,,,,,,,,,,,,,masks/mask_002.jpg,,,,,,,,,,,,,,,,,,,,,,,,,,,,,,,,,,,,,,,,,,,0,2,2,1,1,,,,,,,,,,,,,,,,,,,,,,,,,,,,,,,,,,,,,,,,,,,,,,
100545,001,2022-11-20_17h47.58.299,Info_measure_main_exp,2022.2.2,Win32,59.01445854,,,,,,,,,,,,,,,,,,masks/mask_001.jpg,,,,,,,,,,,,,,,,,,,,,,,,,,,,,,,,,,,,,,,,,,,0,3,3,0,1,,,,,,,,,,,,,,,,,,,,,,,,,,,,,,,,,,,,,,,,,,,,,,
100545,001,2022-11-20_17h47.58.299,Info_measure_main_exp,2022.2.2,Win32,59.01445854,,,,,,,,,,,,,,,,,,masks/mask_004.jpg,,,,,,,,,,,,,,,,,,,,,,,,,,,,,,,,,,,,,,,,,,,0,4,4,3,1,,,,,,,,,,,,,,,,,,,,,,,,,,,,,,,,,,,,,,,,,,,,,,
100545,001,2022-11-20_17h47.58.299,Info_measure_main_exp,2022.2.2,Win32,59.01445854,,,,,,,,,,,,,,,,,,masks/mask_004.jpg,,,,,,,,,,,,,,,,,,,,,,,,,,,,,,,,,,,,,,,,,,,,,,,,0,0,0,3,1,,,,,,,,,,,,,,,,,,,,,,,,,,,,,,,,,,,,,,,,,
100545,001,2022-11-20_17h47.58.299,Info_measure_main_exp,2022.2.2,Win32,59.01445854,,,,,,,,,,,,,,,,,,masks/mask_005.jpg,,,,,,,,,,,,,,,,,,,,,,,,,,,,,,,,,,,,,,,,,,,,,,,,0,1,1,4,1,,,,,,,,,,,,,,,,,,,,,,,,,,,,,,,,,,,,,,,,,
100545,001,2022-11-20_17h47.58.299,Info_measure_main_exp,2022.2.2,Win32,59.01445854,,,,,,,,,,,,,,,,,,masks/mask_002.jpg,,,,,,,,,,,,,,,,,,,,,,,,,,,,,,,,,,,,,,,,,,,,,,,,0,2,2,1,1,,,,,,,,,,,,,,,,,,,,,,,,,,,,,,,,,,,,,,,,,
100545,001,2022-11-20_17h47.58.299,Info_measure_main_exp,2022.2.2,Win32,59.01445854,,,,,,,,,,,,,,,,,,masks/mask_001.jpg,,,,,,,,,,,,,,,,,,,,,,,,,,,,,,,,,,,,,,,,,,,,,,,,0,3,3,0,1,,,,,,,,,,,,,,,,,,,,,,,,,,,,,,,,,,,,,,,,,
100545,001,2022-11-20_17h47.58.299,Info_measure_main_exp,2022.2.2,Win32,59.01445854,,,,,,,,,,,,,,,,,,masks/mask_003.jpg,,,,,,,,,,,,,,,,,,,,,,,,,,,,,,,,,,,,,,,,,,,,,,,,0,4,4,2,1,,,,,,,,,,,,,,,,,,,,,,,,,,,,,,,,,,,,,,,,,
100545,001,2022-11-20_17h47.58.299,Info_measure_main_exp,2022.2.2,Win32,59.01445854,,,,,,,,,,,,,,,,,,,,,,,,,,,,,,3,2.1825,1,,,,,,,,,,,,0,131,5,5,1950,2298,absent_patch/patch0001950.jpg,absent_patch/patch0002298.jpg,,,,,,,,,,,,,,,,,,,,-0.032552083,-0.09765625,1,0,0,response5disk,10,0.002604167,-0.002604167,1,0,0,center_square,0,9,9,18,1,,,,,,,,,,,,,,,,,,,,,,,
100545,001,2022-11-20_17h47.58.299,Info_measure_main_exp,2022.2.2,Win32,59.01445854,,,,,,,,,,,,,,,,,,masks/mask_002.jpg,,,,,,,,,,,,,,,,,,,,,,,,,,,,,,,,,,,,,,,,,,,0,0,0,1,1,,,,,,,,,,,,,,,,,,,,,,,,,,,,,,,,,,,,,,,,,,,,,,
100545,001,2022-11-20_17h47.58.299,Info_measure_main_exp,2022.2.2,Win32,59.01445854,,,,,,,,,,,,,,,,,,masks/mask_003.jpg,,,,,,,,,,,,,,,,,,,,,,,,,,,,,,,,,,,,,,,,,,,0,1,1,2,1,,,,,,,,,,,,,,,,,,,,,,,,,,,,,,,,,,,,,,,,,,,,,,
100545,001,2022-11-20_17h47.58.299,Info_measure_main_exp,2022.2.2,Win32,59.01445854,,,,,,,,,,,,,,,,,,masks/mask_004.jpg,,,,,,,,,,,,,,,,,,,,,,,,,,,,,,,,,,,,,,,,,,,0,2,2,3,1,,,,,,,,,,,,,,,,,,,,,,,,,,,,,,,,,,,,,,,,,,,,,,
100545,001,2022-11-20_17h47.58.299,Info_measure_main_exp,2022.2.2,Win32,59.01445854,,,,,,,,,,,,,,,,,,masks/mask_001.jpg,,,,,,,,,,,,,,,,,,,,,,,,,,,,,,,,,,,,,,,,,,,0,3,3,0,1,,,,,,,,,,,,,,,,,,,,,,,,,,,,,,,,,,,,,,,,,,,,,,
100545,001,2022-11-20_17h47.58.299,Info_measure_main_exp,2022.2.2,Win32,59.01445854,,,,,,,,,,,,,,,,,,masks/mask_005.jpg,,,,,,,,,,,,,,,,,,,,,,,,,,,,,,,,,,,,,,,,,,,0,4,4,4,1,,,,,,,,,,,,,,,,,,,,,,,,,,,,,,,,,,,,,,,,,,,,,,
100545,001,2022-11-20_17h47.58.299,Info_measure_main_exp,2022.2.2,Win32,59.01445854,,,,,,,,,,,,,,,,,,masks/mask_002.jpg,,,,,,,,,,,,,,,,,,,,,,,,,,,,,,,,,,,,,,,,,,,,,,,,0,0,0,1,1,,,,,,,,,,,,,,,,,,,,,,,,,,,,,,,,,,,,,,,,,
100545,001,2022-11-20_17h47.58.299,Info_measure_main_exp,2022.2.2,Win32,59.01445854,,,,,,,,,,,,,,,,,,masks/mask_004.jpg,,,,,,,,,,,,,,,,,,,,,,,,,,,,,,,,,,,,,,,,,,,,,,,,0,1,1,3,1,,,,,,,,,,,,,,,,,,,,,,,,,,,,,,,,,,,,,,,,,
100545,001,2022-11-20_17h47.58.299,Info_measure_main_exp,2022.2.2,Win32,59.01445854,,,,,,,,,,,,,,,,,,masks/mask_005.jpg,,,,,,,,,,,,,,,,,,,,,,,,,,,,,,,,,,,,,,,,,,,,,,,,0,2,2,4,1,,,,,,,,,,,,,,,,,,,,,,,,,,,,,,,,,,,,,,,,,
100545,001,2022-11-20_17h47.58.299,Info_measure_main_exp,2022.2.2,Win32,59.01445854,,,,,,,,,,,,,,,,,,masks/mask_001.jpg,,,,,,,,,,,,,,,,,,,,,,,,,,,,,,,,,,,,,,,,,,,,,,,,0,3,3,0,1,,,,,,,,,,,,,,,,,,,,,,,,,,,,,,,,,,,,,,,,,
100545,001,2022-11-20_17h47.58.299,Info_measure_main_exp,2022.2.2,Win32,59.01445854,,,,,,,,,,,,,,,,,,masks/mask_003.jpg,,,,,,,,,,,,,,,,,,,,,,,,,,,,,,,,,,,,,,,,,,,,,,,,0,4,4,2,1,,,,,,,,,,,,,,,,,,,,,,,,,,,,,,,,,,,,,,,,,
100545,001,2022-11-20_17h47.58.299,Info_measure_main_exp,2022.2.2,Win32,59.01445854,,,,,,,,,,,,,,,,,,,,,,,,,,,,,,0,0.8997,1,,,,,,,,,,,,0,131,5,5,2142,2142,absent_patch/patch0002142.jpg,absent_patch/patch0002142.jpg,,,,,,,,,,,,,,,,,,,,-0.057291667,0.087239583,1,0,0,response7disk,11,-0.001302083,0.002604167,1,0,0,center_square,0,10,10,13,1,,,,,,,,,,,,,,,,,,,,,,,
100545,001,2022-11-20_17h47.58.299,Info_measure_main_exp,2022.2.2,Win32,59.01445854,,,,,,,,,,,,,,,,,,masks/mask_003.jpg,,,,,,,,,,,,,,,,,,,,,,,,,,,,,,,,,,,,,,,,,,,0,0,0,2,1,,,,,,,,,,,,,,,,,,,,,,,,,,,,,,,,,,,,,,,,,,,,,,
100545,001,2022-11-20_17h47.58.299,Info_measure_main_exp,2022.2.2,Win32,59.01445854,,,,,,,,,,,,,,,,,,masks/mask_001.jpg,,,,,,,,,,,,,,,,,,,,,,,,,,,,,,,,,,,,,,,,,,,0,1,1,0,1,,,,,,,,,,,,,,,,,,,,,,,,,,,,,,,,,,,,,,,,,,,,,,
100545,001,2022-11-20_17h47.58.299,Info_measure_main_exp,2022.2.2,Win32,59.01445854,,,,,,,,,,,,,,,,,,masks/mask_005.jpg,,,,,,,,,,,,,,,,,,,,,,,,,,,,,,,,,,,,,,,,,,,0,2,2,4,1,,,,,,,,,,,,,,,,,,,,,,,,,,,,,,,,,,,,,,,,,,,,,,
100545,001,2022-11-20_17h47.58.299,Info_measure_main_exp,2022.2.2,Win32,59.01445854,,,,,,,,,,,,,,,,,,masks/mask_004.jpg,,,,,,,,,,,,,,,,,,,,,,,,,,,,,,,,,,,,,,,,,,,0,3,3,3,1,,,,,,,,,,,,,,,,,,,,,,,,,,,,,,,,,,,,,,,,,,,,,,
100545,001,2022-11-20_17h47.58.299,Info_measure_main_exp,2022.2.2,Win32,59.01445854,,,,,,,,,,,,,,,,,,masks/mask_002.jpg,,,,,,,,,,,,,,,,,,,,,,,,,,,,,,,,,,,,,,,,,,,0,4,4,1,1,,,,,,,,,,,,,,,,,,,,,,,,,,,,,,,,,,,,,,,,,,,,,,
100545,001,2022-11-20_17h47.58.299,Info_measure_main_exp,2022.2.2,Win32,59.01445854,,,,,,,,,,,,,,,,,,masks/mask_001.jpg,,,,,,,,,,,,,,,,,,,,,,,,,,,,,,,,,,,,,,,,,,,,,,,,0,0,0,0,1,,,,,,,,,,,,,,,,,,,,,,,,,,,,,,,,,,,,,,,,,
100545,001,2022-11-20_17h47.58.299,Info_measure_main_exp,2022.2.2,Win32,59.01445854,,,,,,,,,,,,,,,,,,masks/mask_002.jpg,,,,,,,,,,,,,,,,,,,,,,,,,,,,,,,,,,,,,,,,,,,,,,,,0,1,1,1,1,,,,,,,,,,,,,,,,,,,,,,,,,,,,,,,,,,,,,,,,,
100545,001,2022-11-20_17h47.58.299,Info_measure_main_exp,2022.2.2,Win32,59.01445854,,,,,,,,,,,,,,,,,,masks/mask_005.jpg,,,,,,,,,,,,,,,,,,,,,,,,,,,,,,,,,,,,,,,,,,,,,,,,0,2,2,4,1,,,,,,,,,,,,,,,,,,,,,,,,,,,,,,,,,,,,,,,,,
100545,001,2022-11-20_17h47.58.299,Info_measure_main_exp,2022.2.2,Win32,59.01445854,,,,,,,,,,,,,,,,,,masks/mask_004.jpg,,,,,,,,,,,,,,,,,,,,,,,,,,,,,,,,,,,,,,,,,,,,,,,,0,3,3,3,1,,,,,,,,,,,,,,,,,,,,,,,,,,,,,,,,,,,,,,,,,
100545,001,2022-11-20_17h47.58.299,Info_measure_main_exp,2022.2.2,Win32,59.01445854,,,,,,,,,,,,,,,,,,masks/mask_003.jpg,,,,,,,,,,,,,,,,,,,,,,,,,,,,,,,,,,,,,,,,,,,,,,,,0,4,4,2,1,,,,,,,,,,,,,,,,,,,,,,,,,,,,,,,,,,,,,,,,,
100545,001,2022-11-20_17h47.58.299,Info_measure_main_exp,2022.2.2,Win32,59.01445854,,,,,,,,,,,,,,,,,,,,,,,,,,,,,,5,1.8154,1,,,,,,,,,,,,0,131,5,5,2298,2214,absent_patch/patch0002298.jpg,absent_patch/patch0002214.jpg,,,,,,,,,,,,,,,,,,,,0.12890625,-0.05859375,1,0,0,response3disk,12,-0.006510417,0.0078125,1,0,0,center_square,0,11,11,99,1,,,,,,,,,,,,,,,,,,,,,,,
100545,001,2022-11-20_17h47.58.299,Info_measure_main_exp,2022.2.2,Win32,59.01445854,,,,,,,,,,,,,,,,,,masks/mask_003.jpg,,,,,,,,,,,,,,,,,,,,,,,,,,,,,,,,,,,,,,,,,,,0,0,0,2,1,,,,,,,,,,,,,,,,,,,,,,,,,,,,,,,,,,,,,,,,,,,,,,
100545,001,2022-11-20_17h47.58.299,Info_measure_main_exp,2022.2.2,Win32,59.01445854,,,,,,,,,,,,,,,,,,masks/mask_004.jpg,,,,,,,,,,,,,,,,,,,,,,,,,,,,,,,,,,,,,,,,,,,0,1,1,3,1,,,,,,,,,,,,,,,,,,,,,,,,,,,,,,,,,,,,,,,,,,,,,,
100545,001,2022-11-20_17h47.58.299,Info_measure_main_exp,2022.2.2,Win32,59.01445854,,,,,,,,,,,,,,,,,,masks/mask_001.jpg,,,,,,,,,,,,,,,,,,,,,,,,,,,,,,,,,,,,,,,,,,,0,2,2,0,1,,,,,,,,,,,,,,,,,,,,,,,,,,,,,,,,,,,,,,,,,,,,,,
100545,001,2022-11-20_17h47.58.299,Info_measure_main_exp,2022.2.2,Win32,59.01445854,,,,,,,,,,,,,,,,,,masks/mask_002.jpg,,,,,,,,,,,,,,,,,,,,,,,,,,,,,,,,,,,,,,,,,,,0,3,3,1,1,,,,,,,,,,,,,,,,,,,,,,,,,,,,,,,,,,,,,,,,,,,,,,
100545,001,2022-11-20_17h47.58.299,Info_measure_main_exp,2022.2.2,Win32,59.01445854,,,,,,,,,,,,,,,,,,masks/mask_005.jpg,,,,,,,,,,,,,,,,,,,,,,,,,,,,,,,,,,,,,,,,,,,0,4,4,4,1,,,,,,,,,,,,,,,,,,,,,,,,,,,,,,,,,,,,,,,,,,,,,,
100545,001,2022-11-20_17h47.58.299,Info_measure_main_exp,2022.2.2,Win32,59.01445854,,,,,,,,,,,,,,,,,,masks/mask_002.jpg,,,,,,,,,,,,,,,,,,,,,,,,,,,,,,,,,,,,,,,,,,,,,,,,0,0,0,1,1,,,,,,,,,,,,,,,,,,,,,,,,,,,,,,,,,,,,,,,,,
100545,001,2022-11-20_17h47.58.299,Info_measure_main_exp,2022.2.2,Win32,59.01445854,,,,,,,,,,,,,,,,,,masks/mask_005.jpg,,,,,,,,,,,,,,,,,,,,,,,,,,,,,,,,,,,,,,,,,,,,,,,,0,1,1,4,1,,,,,,,,,,,,,,,,,,,,,,,,,,,,,,,,,,,,,,,,,
100545,001,2022-11-20_17h47.58.299,Info_measure_main_exp,2022.2.2,Win32,59.01445854,,,,,,,,,,,,,,,,,,masks/mask_004.jpg,,,,,,,,,,,,,,,,,,,,,,,,,,,,,,,,,,,,,,,,,,,,,,,,0,2,2,3,1,,,,,,,,,,,,,,,,,,,,,,,,,,,,,,,,,,,,,,,,,
100545,001,2022-11-20_17h47.58.299,Info_measure_main_exp,2022.2.2,Win32,59.01445854,,,,,,,,,,,,,,,,,,masks/mask_001.jpg,,,,,,,,,,,,,,,,,,,,,,,,,,,,,,,,,,,,,,,,,,,,,,,,0,3,3,0,1,,,,,,,,,,,,,,,,,,,,,,,,,,,,,,,,,,,,,,,,,
100545,001,2022-11-20_17h47.58.299,Info_measure_main_exp,2022.2.2,Win32,59.01445854,,,,,,,,,,,,,,,,,,masks/mask_003.jpg,,,,,,,,,,,,,,,,,,,,,,,,,,,,,,,,,,,,,,,,,,,,,,,,0,4,4,2,1,,,,,,,,,,,,,,,,,,,,,,,,,,,,,,,,,,,,,,,,,
100545,001,2022-11-20_17h47.58.299,Info_measure_main_exp,2022.2.2,Win32,59.01445854,,,,,,,,,,,,,,,,,,,,,,,,,,,,,,7,1.5006,1,,,,,,,,,,,,0,131,5,5,2190,2238,absent_patch/patch0002190.jpg,absent_patch/patch0002238.jpg,,,,,,,,,,,,,,,,,,,,0.037760417,0.13671875,1,0,0,response1disk,13,-0.001302083,0.00390625,1,0,0,center_square,0,12,12,53,1,,,,,,,,,,,,,,,,,,,,,,,
100545,001,2022-11-20_17h47.58.299,Info_measure_main_exp,2022.2.2,Win32,59.01445854,,,,,,,,,,,,,,,,,,masks/mask_001.jpg,,,,,,,,,,,,,,,,,,,,,,,,,,,,,,,,,,,,,,,,,,,0,0,0,0,1,,,,,,,,,,,,,,,,,,,,,,,,,,,,,,,,,,,,,,,,,,,,,,
100545,001,2022-11-20_17h47.58.299,Info_measure_main_exp,2022.2.2,Win32,59.01445854,,,,,,,,,,,,,,,,,,masks/mask_003.jpg,,,,,,,,,,,,,,,,,,,,,,,,,,,,,,,,,,,,,,,,,,,0,1,1,2,1,,,,,,,,,,,,,,,,,,,,,,,,,,,,,,,,,,,,,,,,,,,,,,
100545,001,2022-11-20_17h47.58.299,Info_measure_main_exp,2022.2.2,Win32,59.01445854,,,,,,,,,,,,,,,,,,masks/mask_004.jpg,,,,,,,,,,,,,,,,,,,,,,,,,,,,,,,,,,,,,,,,,,,0,2,2,3,1,,,,,,,,,,,,,,,,,,,,,,,,,,,,,,,,,,,,,,,,,,,,,,
100545,001,2022-11-20_17h47.58.299,Info_measure_main_exp,2022.2.2,Win32,59.01445854,,,,,,,,,,,,,,,,,,masks/mask_002.jpg,,,,,,,,,,,,,,,,,,,,,,,,,,,,,,,,,,,,,,,,,,,0,3,3,1,1,,,,,,,,,,,,,,,,,,,,,,,,,,,,,,,,,,,,,,,,,,,,,,
100545,001,2022-11-20_17h47.58.299,Info_measure_main_exp,2022.2.2,Win32,59.01445854,,,,,,,,,,,,,,,,,,masks/mask_005.jpg,,,,,,,,,,,,,,,,,,,,,,,,,,,,,,,,,,,,,,,,,,,0,4,4,4,1,,,,,,,,,,,,,,,,,,,,,,,,,,,,,,,,,,,,,,,,,,,,,,
100545,001,2022-11-20_17h47.58.299,Info_measure_main_exp,2022.2.2,Win32,59.01445854,,,,,,,,,,,,,,,,,,masks/mask_005.jpg,,,,,,,,,,,,,,,,,,,,,,,,,,,,,,,,,,,,,,,,,,,,,,,,0,0,0,4,1,,,,,,,,,,,,,,,,,,,,,,,,,,,,,,,,,,,,,,,,,
100545,001,2022-11-20_17h47.58.299,Info_measure_main_exp,2022.2.2,Win32,59.01445854,,,,,,,,,,,,,,,,,,masks/mask_001.jpg,,,,,,,,,,,,,,,,,,,,,,,,,,,,,,,,,,,,,,,,,,,,,,,,0,1,1,0,1,,,,,,,,,,,,,,,,,,,,,,,,,,,,,,,,,,,,,,,,,
100545,001,2022-11-20_17h47.58.299,Info_measure_main_exp,2022.2.2,Win32,59.01445854,,,,,,,,,,,,,,,,,,masks/mask_004.jpg,,,,,,,,,,,,,,,,,,,,,,,,,,,,,,,,,,,,,,,,,,,,,,,,0,2,2,3,1,,,,,,,,,,,,,,,,,,,,,,,,,,,,,,,,,,,,,,,,,
100545,001,2022-11-20_17h47.58.299,Info_measure_main_exp,2022.2.2,Win32,59.01445854,,,,,,,,,,,,,,,,,,masks/mask_003.jpg,,,,,,,,,,,,,,,,,,,,,,,,,,,,,,,,,,,,,,,,,,,,,,,,0,3,3,2,1,,,,,,,,,,,,,,,,,,,,,,,,,,,,,,,,,,,,,,,,,
100545,001,2022-11-20_17h47.58.299,Info_measure_main_exp,2022.2.2,Win32,59.01445854,,,,,,,,,,,,,,,,,,masks/mask_002.jpg,,,,,,,,,,,,,,,,,,,,,,,,,,,,,,,,,,,,,,,,,,,,,,,,0,4,4,1,1,,,,,,,,,,,,,,,,,,,,,,,,,,,,,,,,,,,,,,,,,
100545,001,2022-11-20_17h47.58.299,Info_measure_main_exp,2022.2.2,Win32,59.01445854,,,,,,,,,,,,,,,,,,,,,,,,,,,,,,7,0.8674,1,,,,,,,,,,,,0,131,5,5,1974,2298,absent_patch/patch0001974.jpg,absent_patch/patch0002298.jpg,,,,,,,,,,,,,,,,,,,,0.041666667,0.080729167,1,0,0,response1disk,14,-0.001302083,0.0078125,1,0,0,center_square,0,13,13,6,1,,,,,,,,,,,,,,,,,,,,,,,
100545,001,2022-11-20_17h47.58.299,Info_measure_main_exp,2022.2.2,Win32,59.01445854,,,,,,,,,,,,,,,,,,masks/mask_002.jpg,,,,,,,,,,,,,,,,,,,,,,,,,,,,,,,,,,,,,,,,,,,0,0,0,1,1,,,,,,,,,,,,,,,,,,,,,,,,,,,,,,,,,,,,,,,,,,,,,,
100545,001,2022-11-20_17h47.58.299,Info_measure_main_exp,2022.2.2,Win32,59.01445854,,,,,,,,,,,,,,,,,,masks/mask_003.jpg,,,,,,,,,,,,,,,,,,,,,,,,,,,,,,,,,,,,,,,,,,,0,1,1,2,1,,,,,,,,,,,,,,,,,,,,,,,,,,,,,,,,,,,,,,,,,,,,,,
100545,001,2022-11-20_17h47.58.299,Info_measure_main_exp,2022.2.2,Win32,59.01445854,,,,,,,,,,,,,,,,,,masks/mask_004.jpg,,,,,,,,,,,,,,,,,,,,,,,,,,,,,,,,,,,,,,,,,,,0,2,2,3,1,,,,,,,,,,,,,,,,,,,,,,,,,,,,,,,,,,,,,,,,,,,,,,
100545,001,2022-11-20_17h47.58.299,Info_measure_main_exp,2022.2.2,Win32,59.01445854,,,,,,,,,,,,,,,,,,masks/mask_005.jpg,,,,,,,,,,,,,,,,,,,,,,,,,,,,,,,,,,,,,,,,,,,0,3,3,4,1,,,,,,,,,,,,,,,,,,,,,,,,,,,,,,,,,,,,,,,,,,,,,,
100545,001,2022-11-20_17h47.58.299,Info_measure_main_exp,2022.2.2,Win32,59.01445854,,,,,,,,,,,,,,,,,,masks/mask_001.jpg,,,,,,,,,,,,,,,,,,,,,,,,,,,,,,,,,,,,,,,,,,,0,4,4,0,1,,,,,,,,,,,,,,,,,,,,,,,,,,,,,,,,,,,,,,,,,,,,,,
100545,001,2022-11-20_17h47.58.299,Info_measure_main_exp,2022.2.2,Win32,59.01445854,,,,,,,,,,,,,,,,,,masks/mask_001.jpg,,,,,,,,,,,,,,,,,,,,,,,,,,,,,,,,,,,,,,,,,,,,,,,,0,0,0,0,1,,,,,,,,,,,,,,,,,,,,,,,,,,,,,,,,,,,,,,,,,
100545,001,2022-11-20_17h47.58.299,Info_measure_main_exp,2022.2.2,Win32,59.01445854,,,,,,,,,,,,,,,,,,masks/mask_004.jpg,,,,,,,,,,,,,,,,,,,,,,,,,,,,,,,,,,,,,,,,,,,,,,,,0,1,1,3,1,,,,,,,,,,,,,,,,,,,,,,,,,,,,,,,,,,,,,,,,,
100545,001,2022-11-20_17h47.58.299,Info_measure_main_exp,2022.2.2,Win32,59.01445854,,,,,,,,,,,,,,,,,,masks/mask_002.jpg,,,,,,,,,,,,,,,,,,,,,,,,,,,,,,,,,,,,,,,,,,,,,,,,0,2,2,1,1,,,,,,,,,,,,,,,,,,,,,,,,,,,,,,,,,,,,,,,,,
100545,001,2022-11-20_17h47.58.299,Info_measure_main_exp,2022.2.2,Win32,59.01445854,,,,,,,,,,,,,,,,,,masks/mask_005.jpg,,,,,,,,,,,,,,,,,,,,,,,,,,,,,,,,,,,,,,,,,,,,,,,,0,3,3,4,1,,,,,,,,,,,,,,,,,,,,,,,,,,,,,,,,,,,,,,,,,
100545,001,2022-11-20_17h47.58.299,Info_measure_main_exp,2022.2.2,Win32,59.01445854,,,,,,,,,,,,,,,,,,masks/mask_003.jpg,,,,,,,,,,,,,,,,,,,,,,,,,,,,,,,,,,,,,,,,,,,,,,,,0,4,4,2,1,,,,,,,,,,,,,,,,,,,,,,,,,,,,,,,,,,,,,,,,,
100545,001,2022-11-20_17h47.58.299,Info_measure_main_exp,2022.2.2,Win32,59.01445854,,,,,,,,,,,,,,,,,,,,,,,,,,,,,,3,1.3326,1,,,,,,,,,,,,0,131,5,5,2178,1986,absent_patch/patch0002178.jpg,absent_patch/patch0001986.jpg,,,,,,,,,,,,,,,,,,,,-0.022135417,-0.095052083,1,0,0,response5disk,15,0.001302083,0.0078125,1,0,0,center_square,0,14,14,46,1,,,,,,,,,,,,,,,,,,,,,,,
100545,001,2022-11-20_17h47.58.299,Info_measure_main_exp,2022.2.2,Win32,59.01445854,,,,,,,,,,,,,,,,,,masks/mask_003.jpg,,,,,,,,,,,,,,,,,,,,,,,,,,,,,,,,,,,,,,,,,,,0,0,0,2,1,,,,,,,,,,,,,,,,,,,,,,,,,,,,,,,,,,,,,,,,,,,,,,
100545,001,2022-11-20_17h47.58.299,Info_measure_main_exp,2022.2.2,Win32,59.01445854,,,,,,,,,,,,,,,,,,masks/mask_005.jpg,,,,,,,,,,,,,,,,,,,,,,,,,,,,,,,,,,,,,,,,,,,0,1,1,4,1,,,,,,,,,,,,,,,,,,,,,,,,,,,,,,,,,,,,,,,,,,,,,,
100545,001,2022-11-20_17h47.58.299,Info_measure_main_exp,2022.2.2,Win32,59.01445854,,,,,,,,,,,,,,,,,,masks/mask_004.jpg,,,,,,,,,,,,,,,,,,,,,,,,,,,,,,,,,,,,,,,,,,,0,2,2,3,1,,,,,,,,,,,,,,,,,,,,,,,,,,,,,,,,,,,,,,,,,,,,,,
100545,001,2022-11-20_17h47.58.299,Info_measure_main_exp,2022.2.2,Win32,59.01445854,,,,,,,,,,,,,,,,,,masks/mask_002.jpg,,,,,,,,,,,,,,,,,,,,,,,,,,,,,,,,,,,,,,,,,,,0,3,3,1,1,,,,,,,,,,,,,,,,,,,,,,,,,,,,,,,,,,,,,,,,,,,,,,
100545,001,2022-11-20_17h47.58.299,Info_measure_main_exp,2022.2.2,Win32,59.01445854,,,,,,,,,,,,,,,,,,masks/mask_001.jpg,,,,,,,,,,,,,,,,,,,,,,,,,,,,,,,,,,,,,,,,,,,0,4,4,0,1,,,,,,,,,,,,,,,,,,,,,,,,,,,,,,,,,,,,,,,,,,,,,,
100545,001,2022-11-20_17h47.58.299,Info_measure_main_exp,2022.2.2,Win32,59.01445854,,,,,,,,,,,,,,,,,,masks/mask_005.jpg,,,,,,,,,,,,,,,,,,,,,,,,,,,,,,,,,,,,,,,,,,,,,,,,0,0,0,4,1,,,,,,,,,,,,,,,,,,,,,,,,,,,,,,,,,,,,,,,,,
100545,001,2022-11-20_17h47.58.299,Info_measure_main_exp,2022.2.2,Win32,59.01445854,,,,,,,,,,,,,,,,,,masks/mask_004.jpg,,,,,,,,,,,,,,,,,,,,,,,,,,,,,,,,,,,,,,,,,,,,,,,,0,1,1,3,1,,,,,,,,,,,,,,,,,,,,,,,,,,,,,,,,,,,,,,,,,
100545,001,2022-11-20_17h47.58.299,Info_measure_main_exp,2022.2.2,Win32,59.01445854,,,,,,,,,,,,,,,,,,masks/mask_001.jpg,,,,,,,,,,,,,,,,,,,,,,,,,,,,,,,,,,,,,,,,,,,,,,,,0,2,2,0,1,,,,,,,,,,,,,,,,,,,,,,,,,,,,,,,,,,,,,,,,,
100545,001,2022-11-20_17h47.58.299,Info_measure_main_exp,2022.2.2,Win32,59.01445854,,,,,,,,,,,,,,,,,,masks/mask_002.jpg,,,,,,,,,,,,,,,,,,,,,,,,,,,,,,,,,,,,,,,,,,,,,,,,0,3,3,1,1,,,,,,,,,,,,,,,,,,,,,,,,,,,,,,,,,,,,,,,,,
100545,001,2022-11-20_17h47.58.299,Info_measure_main_exp,2022.2.2,Win32,59.01445854,,,,,,,,,,,,,,,,,,masks/mask_003.jpg,,,,,,,,,,,,,,,,,,,,,,,,,,,,,,,,,,,,,,,,,,,,,,,,0,4,4,2,1,,,,,,,,,,,,,,,,,,,,,,,,,,,,,,,,,,,,,,,,,
100545,001,2022-11-20_17h47.58.299,Info_measure_main_exp,2022.2.2,Win32,59.01445854,,,,,,,,,,,,,,,,,,,,,,,,,,,,,,5,1.0325,1,,,,,,,,,,,,1,131,5,5,2082,1,absent_patch/patch0002082.jpg,present_patch/cong_131_5_a.jpg,,,,,,,,,,,,,,,,,,,,0.065104167,-0.04296875,1,0,0,response3disk,16,0.002604167,-0.001302083,1,0,0,center_square,0,15,15,65,1,,,,,,,,,,,,,,,,,,,,,,,
100545,001,2022-11-20_17h47.58.299,Info_measure_main_exp,2022.2.2,Win32,59.01445854,,,,,,,,,,,,,,,,,,masks/mask_005.jpg,,,,,,,,,,,,,,,,,,,,,,,,,,,,,,,,,,,,,,,,,,,0,0,0,4,1,,,,,,,,,,,,,,,,,,,,,,,,,,,,,,,,,,,,,,,,,,,,,,
100545,001,2022-11-20_17h47.58.299,Info_measure_main_exp,2022.2.2,Win32,59.01445854,,,,,,,,,,,,,,,,,,masks/mask_004.jpg,,,,,,,,,,,,,,,,,,,,,,,,,,,,,,,,,,,,,,,,,,,0,1,1,3,1,,,,,,,,,,,,,,,,,,,,,,,,,,,,,,,,,,,,,,,,,,,,,,
100545,001,2022-11-20_17h47.58.299,Info_measure_main_exp,2022.2.2,Win32,59.01445854,,,,,,,,,,,,,,,,,,masks/mask_002.jpg,,,,,,,,,,,,,,,,,,,,,,,,,,,,,,,,,,,,,,,,,,,0,2,2,1,1,,,,,,,,,,,,,,,,,,,,,,,,,,,,,,,,,,,,,,,,,,,,,,
100545,001,2022-11-20_17h47.58.299,Info_measure_main_exp,2022.2.2,Win32,59.01445854,,,,,,,,,,,,,,,,,,masks/mask_003.jpg,,,,,,,,,,,,,,,,,,,,,,,,,,,,,,,,,,,,,,,,,,,0,3,3,2,1,,,,,,,,,,,,,,,,,,,,,,,,,,,,,,,,,,,,,,,,,,,,,,
100545,001,2022-11-20_17h47.58.299,Info_measure_main_exp,2022.2.2,Win32,59.01445854,,,,,,,,,,,,,,,,,,masks/mask_001.jpg,,,,,,,,,,,,,,,,,,,,,,,,,,,,,,,,,,,,,,,,,,,0,4,4,0,1,,,,,,,,,,,,,,,,,,,,,,,,,,,,,,,,,,,,,,,,,,,,,,
100545,001,2022-11-20_17h47.58.299,Info_measure_main_exp,2022.2.2,Win32,59.01445854,,,,,,,,,,,,,,,,,,masks/mask_005.jpg,,,,,,,,,,,,,,,,,,,,,,,,,,,,,,,,,,,,,,,,,,,,,,,,0,0,0,4,1,,,,,,,,,,,,,,,,,,,,,,,,,,,,,,,,,,,,,,,,,
100545,001,2022-11-20_17h47.58.299,Info_measure_main_exp,2022.2.2,Win32,59.01445854,,,,,,,,,,,,,,,,,,masks/mask_003.jpg,,,,,,,,,,,,,,,,,,,,,,,,,,,,,,,,,,,,,,,,,,,,,,,,0,1,1,2,1,,,,,,,,,,,,,,,,,,,,,,,,,,,,,,,,,,,,,,,,,
100545,001,2022-11-20_17h47.58.299,Info_measure_main_exp,2022.2.2,Win32,59.01445854,,,,,,,,,,,,,,,,,,masks/mask_002.jpg,,,,,,,,,,,,,,,,,,,,,,,,,,,,,,,,,,,,,,,,,,,,,,,,0,2,2,1,1,,,,,,,,,,,,,,,,,,,,,,,,,,,,,,,,,,,,,,,,,
100545,001,2022-11-20_17h47.58.299,Info_measure_main_exp,2022.2.2,Win32,59.01445854,,,,,,,,,,,,,,,,,,masks/mask_004.jpg,,,,,,,,,,,,,,,,,,,,,,,,,,,,,,,,,,,,,,,,,,,,,,,,0,3,3,3,1,,,,,,,,,,,,,,,,,,,,,,,,,,,,,,,,,,,,,,,,,
100545,001,2022-11-20_17h47.58.299,Info_measure_main_exp,2022.2.2,Win32,59.01445854,,,,,,,,,,,,,,,,,,masks/mask_001.jpg,,,,,,,,,,,,,,,,,,,,,,,,,,,,,,,,,,,,,,,,,,,,,,,,0,4,4,0,1,,,,,,,,,,,,,,,,,,,,,,,,,,,,,,,,,,,,,,,,,
100545,001,2022-11-20_17h47.58.299,Info_measure_main_exp,2022.2.2,Win32,59.01445854,,,,,,,,,,,,,,,,,,,,,,,,,,,,,,5,2.333,1,,,,,,,,,,,,0,131,5,5,2274,2082,absent_patch/patch0002274.jpg,absent_patch/patch0002082.jpg,,,,,,,,,,,,,,,,,,,,0.115885417,-0.0390625,1,0,0,response3disk,17,0.001302083,-0.005208333,1,0,0,center_square,0,16,16,100,1,,,,,,,,,,,,,,,,,,,,,,,
100545,001,2022-11-20_17h47.58.299,Info_measure_main_exp,2022.2.2,Win32,59.01445854,,,,,,,,,,,,,,,,,,masks/mask_004.jpg,,,,,,,,,,,,,,,,,,,,,,,,,,,,,,,,,,,,,,,,,,,0,0,0,3,1,,,,,,,,,,,,,,,,,,,,,,,,,,,,,,,,,,,,,,,,,,,,,,
100545,001,2022-11-20_17h47.58.299,Info_measure_main_exp,2022.2.2,Win32,59.01445854,,,,,,,,,,,,,,,,,,masks/mask_002.jpg,,,,,,,,,,,,,,,,,,,,,,,,,,,,,,,,,,,,,,,,,,,0,1,1,1,1,,,,,,,,,,,,,,,,,,,,,,,,,,,,,,,,,,,,,,,,,,,,,,
100545,001,2022-11-20_17h47.58.299,Info_measure_main_exp,2022.2.2,Win32,59.01445854,,,,,,,,,,,,,,,,,,masks/mask_003.jpg,,,,,,,,,,,,,,,,,,,,,,,,,,,,,,,,,,,,,,,,,,,0,2,2,2,1,,,,,,,,,,,,,,,,,,,,,,,,,,,,,,,,,,,,,,,,,,,,,,
100545,001,2022-11-20_17h47.58.299,Info_measure_main_exp,2022.2.2,Win32,59.01445854,,,,,,,,,,,,,,,,,,masks/mask_001.jpg,,,,,,,,,,,,,,,,,,,,,,,,,,,,,,,,,,,,,,,,,,,0,3,3,0,1,,,,,,,,,,,,,,,,,,,,,,,,,,,,,,,,,,,,,,,,,,,,,,
100545,001,2022-11-20_17h47.58.299,Info_measure_main_exp,2022.2.2,Win32,59.01445854,,,,,,,,,,,,,,,,,,masks/mask_005.jpg,,,,,,,,,,,,,,,,,,,,,,,,,,,,,,,,,,,,,,,,,,,0,4,4,4,1,,,,,,,,,,,,,,,,,,,,,,,,,,,,,,,,,,,,,,,,,,,,,,
100545,001,2022-11-20_17h47.58.299,Info_measure_main_exp,2022.2.2,Win32,59.01445854,,,,,,,,,,,,,,,,,,masks/mask_002.jpg,,,,,,,,,,,,,,,,,,,,,,,,,,,,,,,,,,,,,,,,,,,,,,,,0,0,0,1,1,,,,,,,,,,,,,,,,,,,,,,,,,,,,,,,,,,,,,,,,,
100545,001,2022-11-20_17h47.58.299,Info_measure_main_exp,2022.2.2,Win32,59.01445854,,,,,,,,,,,,,,,,,,masks/mask_004.jpg,,,,,,,,,,,,,,,,,,,,,,,,,,,,,,,,,,,,,,,,,,,,,,,,0,1,1,3,1,,,,,,,,,,,,,,,,,,,,,,,,,,,,,,,,,,,,,,,,,
100545,001,2022-11-20_17h47.58.299,Info_measure_main_exp,2022.2.2,Win32,59.01445854,,,,,,,,,,,,,,,,,,masks/mask_001.jpg,,,,,,,,,,,,,,,,,,,,,,,,,,,,,,,,,,,,,,,,,,,,,,,,0,2,2,0,1,,,,,,,,,,,,,,,,,,,,,,,,,,,,,,,,,,,,,,,,,
100545,001,2022-11-20_17h47.58.299,Info_measure_main_exp,2022.2.2,Win32,59.01445854,,,,,,,,,,,,,,,,,,masks/mask_005.jpg,,,,,,,,,,,,,,,,,,,,,,,,,,,,,,,,,,,,,,,,,,,,,,,,0,3,3,4,1,,,,,,,,,,,,,,,,,,,,,,,,,,,,,,,,,,,,,,,,,
100545,001,2022-11-20_17h47.58.299,Info_measure_main_exp,2022.2.2,Win32,59.01445854,,,,,,,,,,,,,,,,,,masks/mask_003.jpg,,,,,,,,,,,,,,,,,,,,,,,,,,,,,,,,,,,,,,,,,,,,,,,,0,4,4,2,1,,,,,,,,,,,,,,,,,,,,,,,,,,,,,,,,,,,,,,,,,
100545,001,2022-11-20_17h47.58.299,Info_measure_main_exp,2022.2.2,Win32,59.01445854,,,,,,,,,,,,,,,,,,,,,,,,,,,,,,2,1.1161,1,,,,,,,,,,,,0,131,5,5,2190,2214,absent_patch/patch0002190.jpg,absent_patch/patch0002214.jpg,,,,,,,,,,,,,,,,,,,,-0.067708333,-0.065104167,1,0,0,response5disk,18,0.005208333,-0.002604167,1,0,0,center_square,0,17,17,35,1,,,,,,,,,,,,,,,,,,,,,,,
100545,001,2022-11-20_17h47.58.299,Info_measure_main_exp,2022.2.2,Win32,59.01445854,,,,,,,,,,,,,,,,,,masks/mask_002.jpg,,,,,,,,,,,,,,,,,,,,,,,,,,,,,,,,,,,,,,,,,,,0,0,0,1,1,,,,,,,,,,,,,,,,,,,,,,,,,,,,,,,,,,,,,,,,,,,,,,
100545,001,2022-11-20_17h47.58.299,Info_measure_main_exp,2022.2.2,Win32,59.01445854,,,,,,,,,,,,,,,,,,masks/mask_003.jpg,,,,,,,,,,,,,,,,,,,,,,,,,,,,,,,,,,,,,,,,,,,0,1,1,2,1,,,,,,,,,,,,,,,,,,,,,,,,,,,,,,,,,,,,,,,,,,,,,,
100545,001,2022-11-20_17h47.58.299,Info_measure_main_exp,2022.2.2,Win32,59.01445854,,,,,,,,,,,,,,,,,,masks/mask_005.jpg,,,,,,,,,,,,,,,,,,,,,,,,,,,,,,,,,,,,,,,,,,,0,2,2,4,1,,,,,,,,,,,,,,,,,,,,,,,,,,,,,,,,,,,,,,,,,,,,,,
100545,001,2022-11-20_17h47.58.299,Info_measure_main_exp,2022.2.2,Win32,59.01445854,,,,,,,,,,,,,,,,,,masks/mask_001.jpg,,,,,,,,,,,,,,,,,,,,,,,,,,,,,,,,,,,,,,,,,,,0,3,3,0,1,,,,,,,,,,,,,,,,,,,,,,,,,,,,,,,,,,,,,,,,,,,,,,
100545,001,2022-11-20_17h47.58.299,Info_measure_main_exp,2022.2.2,Win32,59.01445854,,,,,,,,,,,,,,,,,,masks/mask_004.jpg,,,,,,,,,,,,,,,,,,,,,,,,,,,,,,,,,,,,,,,,,,,0,4,4,3,1,,,,,,,,,,,,,,,,,,,,,,,,,,,,,,,,,,,,,,,,,,,,,,
100545,001,2022-11-20_17h47.58.299,Info_measure_main_exp,2022.2.2,Win32,59.01445854,,,,,,,,,,,,,,,,,,masks/mask_002.jpg,,,,,,,,,,,,,,,,,,,,,,,,,,,,,,,,,,,,,,,,,,,,,,,,0,0,0,1,1,,,,,,,,,,,,,,,,,,,,,,,,,,,,,,,,,,,,,,,,,
100545,001,2022-11-20_17h47.58.299,Info_measure_main_exp,2022.2.2,Win32,59.01445854,,,,,,,,,,,,,,,,,,masks/mask_005.jpg,,,,,,,,,,,,,,,,,,,,,,,,,,,,,,,,,,,,,,,,,,,,,,,,0,1,1,4,1,,,,,,,,,,,,,,,,,,,,,,,,,,,,,,,,,,,,,,,,,
100545,001,2022-11-20_17h47.58.299,Info_measure_main_exp,2022.2.2,Win32,59.01445854,,,,,,,,,,,,,,,,,,masks/mask_001.jpg,,,,,,,,,,,,,,,,,,,,,,,,,,,,,,,,,,,,,,,,,,,,,,,,0,2,2,0,1,,,,,,,,,,,,,,,,,,,,,,,,,,,,,,,,,,,,,,,,,
100545,001,2022-11-20_17h47.58.299,Info_measure_main_exp,2022.2.2,Win32,59.01445854,,,,,,,,,,,,,,,,,,masks/mask_003.jpg,,,,,,,,,,,,,,,,,,,,,,,,,,,,,,,,,,,,,,,,,,,,,,,,0,3,3,2,1,,,,,,,,,,,,,,,,,,,,,,,,,,,,,,,,,,,,,,,,,
100545,001,2022-11-20_17h47.58.299,Info_measure_main_exp,2022.2.2,Win32,59.01445854,,,,,,,,,,,,,,,,,,masks/mask_004.jpg,,,,,,,,,,,,,,,,,,,,,,,,,,,,,,,,,,,,,,,,,,,,,,,,0,4,4,3,1,,,,,,,,,,,,,,,,,,,,,,,,,,,,,,,,,,,,,,,,,
100545,001,2022-11-20_17h47.58.299,Info_measure_main_exp,2022.2.2,Win32,59.01445854,,,,,,,,,,,,,,,,,,,,,,,,,,,,,,5,1.8986,1,,,,,,,,,,,,0,131,5,5,2250,2142,absent_patch/patch0002250.jpg,absent_patch/patch0002142.jpg,,,,,,,,,,,,,,,,,,,,0.088541667,-0.048177083,1,0,0,response3disk,19,0.013020833,-0.0078125,1,0,0,center_square,0,18,18,71,1,,,,,,,,,,,,,,,,,,,,,,,
100545,001,2022-11-20_17h47.58.299,Info_measure_main_exp,2022.2.2,Win32,59.01445854,,,,,,,,,,,,,,,,,,masks/mask_005.jpg,,,,,,,,,,,,,,,,,,,,,,,,,,,,,,,,,,,,,,,,,,,0,0,0,4,1,,,,,,,,,,,,,,,,,,,,,,,,,,,,,,,,,,,,,,,,,,,,,,
100545,001,2022-11-20_17h47.58.299,Info_measure_main_exp,2022.2.2,Win32,59.01445854,,,,,,,,,,,,,,,,,,masks/mask_004.jpg,,,,,,,,,,,,,,,,,,,,,,,,,,,,,,,,,,,,,,,,,,,0,1,1,3,1,,,,,,,,,,,,,,,,,,,,,,,,,,,,,,,,,,,,,,,,,,,,,,
100545,001,2022-11-20_17h47.58.299,Info_measure_main_exp,2022.2.2,Win32,59.01445854,,,,,,,,,,,,,,,,,,masks/mask_003.jpg,,,,,,,,,,,,,,,,,,,,,,,,,,,,,,,,,,,,,,,,,,,0,2,2,2,1,,,,,,,,,,,,,,,,,,,,,,,,,,,,,,,,,,,,,,,,,,,,,,
100545,001,2022-11-20_17h47.58.299,Info_measure_main_exp,2022.2.2,Win32,59.01445854,,,,,,,,,,,,,,,,,,masks/mask_002.jpg,,,,,,,,,,,,,,,,,,,,,,,,,,,,,,,,,,,,,,,,,,,0,3,3,1,1,,,,,,,,,,,,,,,,,,,,,,,,,,,,,,,,,,,,,,,,,,,,,,
100545,001,2022-11-20_17h47.58.299,Info_measure_main_exp,2022.2.2,Win32,59.01445854,,,,,,,,,,,,,,,,,,masks/mask_001.jpg,,,,,,,,,,,,,,,,,,,,,,,,,,,,,,,,,,,,,,,,,,,0,4,4,0,1,,,,,,,,,,,,,,,,,,,,,,,,,,,,,,,,,,,,,,,,,,,,,,
100545,001,2022-11-20_17h47.58.299,Info_measure_main_exp,2022.2.2,Win32,59.01445854,,,,,,,,,,,,,,,,,,masks/mask_005.jpg,,,,,,,,,,,,,,,,,,,,,,,,,,,,,,,,,,,,,,,,,,,,,,,,0,0,0,4,1,,,,,,,,,,,,,,,,,,,,,,,,,,,,,,,,,,,,,,,,,
100545,001,2022-11-20_17h47.58.299,Info_measure_main_exp,2022.2.2,Win32,59.01445854,,,,,,,,,,,,,,,,,,masks/mask_004.jpg,,,,,,,,,,,,,,,,,,,,,,,,,,,,,,,,,,,,,,,,,,,,,,,,0,1,1,3,1,,,,,,,,,,,,,,,,,,,,,,,,,,,,,,,,,,,,,,,,,
100545,001,2022-11-20_17h47.58.299,Info_measure_main_exp,2022.2.2,Win32,59.01445854,,,,,,,,,,,,,,,,,,masks/mask_003.jpg,,,,,,,,,,,,,,,,,,,,,,,,,,,,,,,,,,,,,,,,,,,,,,,,0,2,2,2,1,,,,,,,,,,,,,,,,,,,,,,,,,,,,,,,,,,,,,,,,,
100545,001,2022-11-20_17h47.58.299,Info_measure_main_exp,2022.2.2,Win32,59.01445854,,,,,,,,,,,,,,,,,,masks/mask_001.jpg,,,,,,,,,,,,,,,,,,,,,,,,,,,,,,,,,,,,,,,,,,,,,,,,0,3,3,0,1,,,,,,,,,,,,,,,,,,,,,,,,,,,,,,,,,,,,,,,,,
100545,001,2022-11-20_17h47.58.299,Info_measure_main_exp,2022.2.2,Win32,59.01445854,,,,,,,,,,,,,,,,,,masks/mask_002.jpg,,,,,,,,,,,,,,,,,,,,,,,,,,,,,,,,,,,,,,,,,,,,,,,,0,4,4,1,1,,,,,,,,,,,,,,,,,,,,,,,,,,,,,,,,,,,,,,,,,
100545,001,2022-11-20_17h47.58.299,Info_measure_main_exp,2022.2.2,Win32,59.01445854,,,,,,,,,,,,,,,,,,,,,,,,,,,,,,3,2.8494,1,,,,,,,,,,,,0,131,5,5,1986,1974,absent_patch/patch0001986.jpg,absent_patch/patch0001974.jpg,,,,,,,,,,,,,,,,,,,,-0.002604167,-0.071614583,1,0,0,response5disk,20,0.005208333,0.001302083,1,0,0,center_square,0,19,19,25,1,,,,,,,,,,,,,,,,,,,,,,,
100545,001,2022-11-20_17h47.58.299,Info_measure_main_exp,2022.2.2,Win32,59.01445854,,,,,,,,,,,,,,,,,,masks/mask_005.jpg,,,,,,,,,,,,,,,,,,,,,,,,,,,,,,,,,,,,,,,,,,,0,0,0,4,1,,,,,,,,,,,,,,,,,,,,,,,,,,,,,,,,,,,,,,,,,,,,,,
100545,001,2022-11-20_17h47.58.299,Info_measure_main_exp,2022.2.2,Win32,59.01445854,,,,,,,,,,,,,,,,,,masks/mask_003.jpg,,,,,,,,,,,,,,,,,,,,,,,,,,,,,,,,,,,,,,,,,,,0,1,1,2,1,,,,,,,,,,,,,,,,,,,,,,,,,,,,,,,,,,,,,,,,,,,,,,
100545,001,2022-11-20_17h47.58.299,Info_measure_main_exp,2022.2.2,Win32,59.01445854,,,,,,,,,,,,,,,,,,masks/mask_001.jpg,,,,,,,,,,,,,,,,,,,,,,,,,,,,,,,,,,,,,,,,,,,0,2,2,0,1,,,,,,,,,,,,,,,,,,,,,,,,,,,,,,,,,,,,,,,,,,,,,,
100545,001,2022-11-20_17h47.58.299,Info_measure_main_exp,2022.2.2,Win32,59.01445854,,,,,,,,,,,,,,,,,,masks/mask_004.jpg,,,,,,,,,,,,,,,,,,,,,,,,,,,,,,,,,,,,,,,,,,,0,3,3,3,1,,,,,,,,,,,,,,,,,,,,,,,,,,,,,,,,,,,,,,,,,,,,,,
100545,001,2022-11-20_17h47.58.299,Info_measure_main_exp,2022.2.2,Win32,59.01445854,,,,,,,,,,,,,,,,,,masks/mask_002.jpg,,,,,,,,,,,,,,,,,,,,,,,,,,,,,,,,,,,,,,,,,,,0,4,4,1,1,,,,,,,,,,,,,,,,,,,,,,,,,,,,,,,,,,,,,,,,,,,,,,
100545,001,2022-11-20_17h47.58.299,Info_measure_main_exp,2022.2.2,Win32,59.01445854,,,,,,,,,,,,,,,,,,masks/mask_002.jpg,,,,,,,,,,,,,,,,,,,,,,,,,,,,,,,,,,,,,,,,,,,,,,,,0,0,0,1,1,,,,,,,,,,,,,,,,,,,,,,,,,,,,,,,,,,,,,,,,,
100545,001,2022-11-20_17h47.58.299,Info_measure_main_exp,2022.2.2,Win32,59.01445854,,,,,,,,,,,,,,,,,,masks/mask_003.jpg,,,,,,,,,,,,,,,,,,,,,,,,,,,,,,,,,,,,,,,,,,,,,,,,0,1,1,2,1,,,,,,,,,,,,,,,,,,,,,,,,,,,,,,,,,,,,,,,,,
100545,001,2022-11-20_17h47.58.299,Info_measure_main_exp,2022.2.2,Win32,59.01445854,,,,,,,,,,,,,,,,,,masks/mask_004.jpg,,,,,,,,,,,,,,,,,,,,,,,,,,,,,,,,,,,,,,,,,,,,,,,,0,2,2,3,1,,,,,,,,,,,,,,,,,,,,,,,,,,,,,,,,,,,,,,,,,
100545,001,2022-11-20_17h47.58.299,Info_measure_main_exp,2022.2.2,Win32,59.01445854,,,,,,,,,,,,,,,,,,masks/mask_005.jpg,,,,,,,,,,,,,,,,,,,,,,,,,,,,,,,,,,,,,,,,,,,,,,,,0,3,3,4,1,,,,,,,,,,,,,,,,,,,,,,,,,,,,,,,,,,,,,,,,,
100545,001,2022-11-20_17h47.58.299,Info_measure_main_exp,2022.2.2,Win32,59.01445854,,,,,,,,,,,,,,,,,,masks/mask_001.jpg,,,,,,,,,,,,,,,,,,,,,,,,,,,,,,,,,,,,,,,,,,,,,,,,0,4,4,0,1,,,,,,,,,,,,,,,,,,,,,,,,,,,,,,,,,,,,,,,,,
100545,001,2022-11-20_17h47.58.299,Info_measure_main_exp,2022.2.2,Win32,59.01445854,,,,,,,,,,,,,,,,,,,,,,,,,,,,,,6,0.8828,1,,,,,,,,,,,,0,131,5,5,2082,2154,absent_patch/patch0002082.jpg,absent_patch/patch0002154.jpg,,,,,,,,,,,,,,,,,,,,0.079427083,0.0625,1,0,0,response1disk,21,-0.014322917,-0.00390625,1,0,0,center_square,0,20,20,33,1,,,,,,,,,,,,,,,,,,,,,,,
100545,001,2022-11-20_17h47.58.299,Info_measure_main_exp,2022.2.2,Win32,59.01445854,,,,,,,,,,,,,,,,,,masks/mask_004.jpg,,,,,,,,,,,,,,,,,,,,,,,,,,,,,,,,,,,,,,,,,,,0,0,0,3,1,,,,,,,,,,,,,,,,,,,,,,,,,,,,,,,,,,,,,,,,,,,,,,
100545,001,2022-11-20_17h47.58.299,Info_measure_main_exp,2022.2.2,Win32,59.01445854,,,,,,,,,,,,,,,,,,masks/mask_002.jpg,,,,,,,,,,,,,,,,,,,,,,,,,,,,,,,,,,,,,,,,,,,0,1,1,1,1,,,,,,,,,,,,,,,,,,,,,,,,,,,,,,,,,,,,,,,,,,,,,,
100545,001,2022-11-20_17h47.58.299,Info_measure_main_exp,2022.2.2,Win32,59.01445854,,,,,,,,,,,,,,,,,,masks/mask_005.jpg,,,,,,,,,,,,,,,,,,,,,,,,,,,,,,,,,,,,,,,,,,,0,2,2,4,1,,,,,,,,,,,,,,,,,,,,,,,,,,,,,,,,,,,,,,,,,,,,,,
100545,001,2022-11-20_17h47.58.299,Info_measure_main_exp,2022.2.2,Win32,59.01445854,,,,,,,,,,,,,,,,,,masks/mask_001.jpg,,,,,,,,,,,,,,,,,,,,,,,,,,,,,,,,,,,,,,,,,,,0,3,3,0,1,,,,,,,,,,,,,,,,,,,,,,,,,,,,,,,,,,,,,,,,,,,,,,
100545,001,2022-11-20_17h47.58.299,Info_measure_main_exp,2022.2.2,Win32,59.01445854,,,,,,,,,,,,,,,,,,masks/mask_003.jpg,,,,,,,,,,,,,,,,,,,,,,,,,,,,,,,,,,,,,,,,,,,0,4,4,2,1,,,,,,,,,,,,,,,,,,,,,,,,,,,,,,,,,,,,,,,,,,,,,,
100545,001,2022-11-20_17h47.58.299,Info_measure_main_exp,2022.2.2,Win32,59.01445854,,,,,,,,,,,,,,,,,,masks/mask_003.jpg,,,,,,,,,,,,,,,,,,,,,,,,,,,,,,,,,,,,,,,,,,,,,,,,0,0,0,2,1,,,,,,,,,,,,,,,,,,,,,,,,,,,,,,,,,,,,,,,,,
100545,001,2022-11-20_17h47.58.299,Info_measure_main_exp,2022.2.2,Win32,59.01445854,,,,,,,,,,,,,,,,,,masks/mask_001.jpg,,,,,,,,,,,,,,,,,,,,,,,,,,,,,,,,,,,,,,,,,,,,,,,,0,1,1,0,1,,,,,,,,,,,,,,,,,,,,,,,,,,,,,,,,,,,,,,,,,
100545,001,2022-11-20_17h47.58.299,Info_measure_main_exp,2022.2.2,Win32,59.01445854,,,,,,,,,,,,,,,,,,masks/mask_002.jpg,,,,,,,,,,,,,,,,,,,,,,,,,,,,,,,,,,,,,,,,,,,,,,,,0,2,2,1,1,,,,,,,,,,,,,,,,,,,,,,,,,,,,,,,,,,,,,,,,,
100545,001,2022-11-20_17h47.58.299,Info_measure_main_exp,2022.2.2,Win32,59.01445854,,,,,,,,,,,,,,,,,,masks/mask_005.jpg,,,,,,,,,,,,,,,,,,,,,,,,,,,,,,,,,,,,,,,,,,,,,,,,0,3,3,4,1,,,,,,,,,,,,,,,,,,,,,,,,,,,,,,,,,,,,,,,,,
100545,001,2022-11-20_17h47.58.299,Info_measure_main_exp,2022.2.2,Win32,59.01445854,,,,,,,,,,,,,,,,,,masks/mask_004.jpg,,,,,,,,,,,,,,,,,,,,,,,,,,,,,,,,,,,,,,,,,,,,,,,,0,4,4,3,1,,,,,,,,,,,,,,,,,,,,,,,,,,,,,,,,,,,,,,,,,
100545,001,2022-11-20_17h47.58.299,Info_measure_main_exp,2022.2.2,Win32,59.01445854,,,,,,,,,,,,,,,,,,,,,,,,,,,,,,7,1.0455,1,,,,,,,,,,,,1,131,5,5,2190,1,absent_patch/patch0002190.jpg,present_patch/cong_131_5_a.jpg,,,,,,,,,,,,,,,,,,,,0.046875,0.108072917,1,0,0,response1disk,22,0.0078125,-0.006510417,1,0,0,center_square,0,21,21,64,1,,,,,,,,,,,,,,,,,,,,,,,
100545,001,2022-11-20_17h47.58.299,Info_measure_main_exp,2022.2.2,Win32,59.01445854,,,,,,,,,,,,,,,,,,masks/mask_005.jpg,,,,,,,,,,,,,,,,,,,,,,,,,,,,,,,,,,,,,,,,,,,0,0,0,4,1,,,,,,,,,,,,,,,,,,,,,,,,,,,,,,,,,,,,,,,,,,,,,,
100545,001,2022-11-20_17h47.58.299,Info_measure_main_exp,2022.2.2,Win32,59.01445854,,,,,,,,,,,,,,,,,,masks/mask_001.jpg,,,,,,,,,,,,,,,,,,,,,,,,,,,,,,,,,,,,,,,,,,,0,1,1,0,1,,,,,,,,,,,,,,,,,,,,,,,,,,,,,,,,,,,,,,,,,,,,,,
100545,001,2022-11-20_17h47.58.299,Info_measure_main_exp,2022.2.2,Win32,59.01445854,,,,,,,,,,,,,,,,,,masks/mask_004.jpg,,,,,,,,,,,,,,,,,,,,,,,,,,,,,,,,,,,,,,,,,,,0,2,2,3,1,,,,,,,,,,,,,,,,,,,,,,,,,,,,,,,,,,,,,,,,,,,,,,
100545,001,2022-11-20_17h47.58.299,Info_measure_main_exp,2022.2.2,Win32,59.01445854,,,,,,,,,,,,,,,,,,masks/mask_003.jpg,,,,,,,,,,,,,,,,,,,,,,,,,,,,,,,,,,,,,,,,,,,0,3,3,2,1,,,,,,,,,,,,,,,,,,,,,,,,,,,,,,,,,,,,,,,,,,,,,,
100545,001,2022-11-20_17h47.58.299,Info_measure_main_exp,2022.2.2,Win32,59.01445854,,,,,,,,,,,,,,,,,,masks/mask_002.jpg,,,,,,,,,,,,,,,,,,,,,,,,,,,,,,,,,,,,,,,,,,,0,4,4,1,1,,,,,,,,,,,,,,,,,,,,,,,,,,,,,,,,,,,,,,,,,,,,,,
100545,001,2022-11-20_17h47.58.299,Info_measure_main_exp,2022.2.2,Win32,59.01445854,,,,,,,,,,,,,,,,,,masks/mask_002.jpg,,,,,,,,,,,,,,,,,,,,,,,,,,,,,,,,,,,,,,,,,,,,,,,,0,0,0,1,1,,,,,,,,,,,,,,,,,,,,,,,,,,,,,,,,,,,,,,,,,
100545,001,2022-11-20_17h47.58.299,Info_measure_main_exp,2022.2.2,Win32,59.01445854,,,,,,,,,,,,,,,,,,masks/mask_003.jpg,,,,,,,,,,,,,,,,,,,,,,,,,,,,,,,,,,,,,,,,,,,,,,,,0,1,1,2,1,,,,,,,,,,,,,,,,,,,,,,,,,,,,,,,,,,,,,,,,,
100545,001,2022-11-20_17h47.58.299,Info_measure_main_exp,2022.2.2,Win32,59.01445854,,,,,,,,,,,,,,,,,,masks/mask_001.jpg,,,,,,,,,,,,,,,,,,,,,,,,,,,,,,,,,,,,,,,,,,,,,,,,0,2,2,0,1,,,,,,,,,,,,,,,,,,,,,,,,,,,,,,,,,,,,,,,,,
100545,001,2022-11-20_17h47.58.299,Info_measure_main_exp,2022.2.2,Win32,59.01445854,,,,,,,,,,,,,,,,,,masks/mask_004.jpg,,,,,,,,,,,,,,,,,,,,,,,,,,,,,,,,,,,,,,,,,,,,,,,,0,3,3,3,1,,,,,,,,,,,,,,,,,,,,,,,,,,,,,,,,,,,,,,,,,
100545,001,2022-11-20_17h47.58.299,Info_measure_main_exp,2022.2.2,Win32,59.01445854,,,,,,,,,,,,,,,,,,masks/mask_005.jpg,,,,,,,,,,,,,,,,,,,,,,,,,,,,,,,,,,,,,,,,,,,,,,,,0,4,4,4,1,,,,,,,,,,,,,,,,,,,,,,,,,,,,,,,,,,,,,,,,,
100545,001,2022-11-20_17h47.58.299,Info_measure_main_exp,2022.2.2,Win32,59.01445854,,,,,,,,,,,,,,,,,,,,,,,,,,,,,,7,0.8703,1,,,,,,,,,,,,0,131,5,5,2250,1986,absent_patch/patch0002250.jpg,absent_patch/patch0001986.jpg,,,,,,,,,,,,,,,,,,,,0.052083333,0.080729167,1,0,0,response1disk,23,0.006510417,0,1,0,0,center_square,0,22,22,29,1,,,,,,,,,,,,,,,,,,,,,,,
100545,001,2022-11-20_17h47.58.299,Info_measure_main_exp,2022.2.2,Win32,59.01445854,,,,,,,,,,,,,,,,,,masks/mask_004.jpg,,,,,,,,,,,,,,,,,,,,,,,,,,,,,,,,,,,,,,,,,,,0,0,0,3,1,,,,,,,,,,,,,,,,,,,,,,,,,,,,,,,,,,,,,,,,,,,,,,
100545,001,2022-11-20_17h47.58.299,Info_measure_main_exp,2022.2.2,Win32,59.01445854,,,,,,,,,,,,,,,,,,masks/mask_005.jpg,,,,,,,,,,,,,,,,,,,,,,,,,,,,,,,,,,,,,,,,,,,0,1,1,4,1,,,,,,,,,,,,,,,,,,,,,,,,,,,,,,,,,,,,,,,,,,,,,,
100545,001,2022-11-20_17h47.58.299,Info_measure_main_exp,2022.2.2,Win32,59.01445854,,,,,,,,,,,,,,,,,,masks/mask_003.jpg,,,,,,,,,,,,,,,,,,,,,,,,,,,,,,,,,,,,,,,,,,,0,2,2,2,1,,,,,,,,,,,,,,,,,,,,,,,,,,,,,,,,,,,,,,,,,,,,,,
100545,001,2022-11-20_17h47.58.299,Info_measure_main_exp,2022.2.2,Win32,59.01445854,,,,,,,,,,,,,,,,,,masks/mask_002.jpg,,,,,,,,,,,,,,,,,,,,,,,,,,,,,,,,,,,,,,,,,,,0,3,3,1,1,,,,,,,,,,,,,,,,,,,,,,,,,,,,,,,,,,,,,,,,,,,,,,
100545,001,2022-11-20_17h47.58.299,Info_measure_main_exp,2022.2.2,Win32,59.01445854,,,,,,,,,,,,,,,,,,masks/mask_001.jpg,,,,,,,,,,,,,,,,,,,,,,,,,,,,,,,,,,,,,,,,,,,0,4,4,0,1,,,,,,,,,,,,,,,,,,,,,,,,,,,,,,,,,,,,,,,,,,,,,,
100545,001,2022-11-20_17h47.58.299,Info_measure_main_exp,2022.2.2,Win32,59.01445854,,,,,,,,,,,,,,,,,,masks/mask_005.jpg,,,,,,,,,,,,,,,,,,,,,,,,,,,,,,,,,,,,,,,,,,,,,,,,0,0,0,4,1,,,,,,,,,,,,,,,,,,,,,,,,,,,,,,,,,,,,,,,,,
100545,001,2022-11-20_17h47.58.299,Info_measure_main_exp,2022.2.2,Win32,59.01445854,,,,,,,,,,,,,,,,,,masks/mask_001.jpg,,,,,,,,,,,,,,,,,,,,,,,,,,,,,,,,,,,,,,,,,,,,,,,,0,1,1,0,1,,,,,,,,,,,,,,,,,,,,,,,,,,,,,,,,,,,,,,,,,
100545,001,2022-11-20_17h47.58.299,Info_measure_main_exp,2022.2.2,Win32,59.01445854,,,,,,,,,,,,,,,,,,masks/mask_002.jpg,,,,,,,,,,,,,,,,,,,,,,,,,,,,,,,,,,,,,,,,,,,,,,,,0,2,2,1,1,,,,,,,,,,,,,,,,,,,,,,,,,,,,,,,,,,,,,,,,,
100545,001,2022-11-20_17h47.58.299,Info_measure_main_exp,2022.2.2,Win32,59.01445854,,,,,,,,,,,,,,,,,,masks/mask_003.jpg,,,,,,,,,,,,,,,,,,,,,,,,,,,,,,,,,,,,,,,,,,,,,,,,0,3,3,2,1,,,,,,,,,,,,,,,,,,,,,,,,,,,,,,,,,,,,,,,,,
100545,001,2022-11-20_17h47.58.299,Info_measure_main_exp,2022.2.2,Win32,59.01445854,,,,,,,,,,,,,,,,,,masks/mask_004.jpg,,,,,,,,,,,,,,,,,,,,,,,,,,,,,,,,,,,,,,,,,,,,,,,,0,4,4,3,1,,,,,,,,,,,,,,,,,,,,,,,,,,,,,,,,,,,,,,,,,
100545,001,2022-11-20_17h47.58.299,Info_measure_main_exp,2022.2.2,Win32,59.01445854,,,,,,,,,,,,,,,,,,,,,,,,,,,,,,7,1.1327,1,,,,,,,,,,,,0,131,5,5,2214,1986,absent_patch/patch0002214.jpg,absent_patch/patch0001986.jpg,,,,,,,,,,,,,,,,,,,,0.029947917,0.079427083,1,0,0,response1disk,24,-0.00390625,-0.013020833,1,0,0,center_square,0,23,23,34,1,,,,,,,,,,,,,,,,,,,,,,,
100545,001,2022-11-20_17h47.58.299,Info_measure_main_exp,2022.2.2,Win32,59.01445854,,,,,,,,,,,,,,,,,,masks/mask_002.jpg,,,,,,,,,,,,,,,,,,,,,,,,,,,,,,,,,,,,,,,,,,,0,0,0,1,1,,,,,,,,,,,,,,,,,,,,,,,,,,,,,,,,,,,,,,,,,,,,,,
100545,001,2022-11-20_17h47.58.299,Info_measure_main_exp,2022.2.2,Win32,59.01445854,,,,,,,,,,,,,,,,,,masks/mask_004.jpg,,,,,,,,,,,,,,,,,,,,,,,,,,,,,,,,,,,,,,,,,,,0,1,1,3,1,,,,,,,,,,,,,,,,,,,,,,,,,,,,,,,,,,,,,,,,,,,,,,
100545,001,2022-11-20_17h47.58.299,Info_measure_main_exp,2022.2.2,Win32,59.01445854,,,,,,,,,,,,,,,,,,masks/mask_003.jpg,,,,,,,,,,,,,,,,,,,,,,,,,,,,,,,,,,,,,,,,,,,0,2,2,2,1,,,,,,,,,,,,,,,,,,,,,,,,,,,,,,,,,,,,,,,,,,,,,,
100545,001,2022-11-20_17h47.58.299,Info_measure_main_exp,2022.2.2,Win32,59.01445854,,,,,,,,,,,,,,,,,,masks/mask_005.jpg,,,,,,,,,,,,,,,,,,,,,,,,,,,,,,,,,,,,,,,,,,,0,3,3,4,1,,,,,,,,,,,,,,,,,,,,,,,,,,,,,,,,,,,,,,,,,,,,,,
100545,001,2022-11-20_17h47.58.299,Info_measure_main_exp,2022.2.2,Win32,59.01445854,,,,,,,,,,,,,,,,,,masks/mask_001.jpg,,,,,,,,,,,,,,,,,,,,,,,,,,,,,,,,,,,,,,,,,,,0,4,4,0,1,,,,,,,,,,,,,,,,,,,,,,,,,,,,,,,,,,,,,,,,,,,,,,
100545,001,2022-11-20_17h47.58.299,Info_measure_main_exp,2022.2.2,Win32,59.01445854,,,,,,,,,,,,,,,,,,masks/mask_003.jpg,,,,,,,,,,,,,,,,,,,,,,,,,,,,,,,,,,,,,,,,,,,,,,,,0,0,0,2,1,,,,,,,,,,,,,,,,,,,,,,,,,,,,,,,,,,,,,,,,,
100545,001,2022-11-20_17h47.58.299,Info_measure_main_exp,2022.2.2,Win32,59.01445854,,,,,,,,,,,,,,,,,,masks/mask_005.jpg,,,,,,,,,,,,,,,,,,,,,,,,,,,,,,,,,,,,,,,,,,,,,,,,0,1,1,4,1,,,,,,,,,,,,,,,,,,,,,,,,,,,,,,,,,,,,,,,,,
100545,001,2022-11-20_17h47.58.299,Info_measure_main_exp,2022.2.2,Win32,59.01445854,,,,,,,,,,,,,,,,,,masks/mask_004.jpg,,,,,,,,,,,,,,,,,,,,,,,,,,,,,,,,,,,,,,,,,,,,,,,,0,2,2,3,1,,,,,,,,,,,,,,,,,,,,,,,,,,,,,,,,,,,,,,,,,
100545,001,2022-11-20_17h47.58.299,Info_measure_main_exp,2022.2.2,Win32,59.01445854,,,,,,,,,,,,,,,,,,masks/mask_001.jpg,,,,,,,,,,,,,,,,,,,,,,,,,,,,,,,,,,,,,,,,,,,,,,,,0,3,3,0,1,,,,,,,,,,,,,,,,,,,,,,,,,,,,,,,,,,,,,,,,,
100545,001,2022-11-20_17h47.58.299,Info_measure_main_exp,2022.2.2,Win32,59.01445854,,,,,,,,,,,,,,,,,,masks/mask_002.jpg,,,,,,,,,,,,,,,,,,,,,,,,,,,,,,,,,,,,,,,,,,,,,,,,0,4,4,1,1,,,,,,,,,,,,,,,,,,,,,,,,,,,,,,,,,,,,,,,,,
100545,001,2022-11-20_17h47.58.299,Info_measure_main_exp,2022.2.2,Win32,59.01445854,,,,,,,,,,,,,,,,,,,,,,,,,,,,,,6,1.2992,1,,,,,,,,,,,,0,131,5,5,2214,2178,absent_patch/patch0002214.jpg,absent_patch/patch0002178.jpg,,,,,,,,,,,,,,,,,,,,0.095052083,0.059895833,1,0,0,response1disk,25,-0.0078125,-0.013020833,1,0,0,center_square,0,24,24,62,1,,,,,,,,,,,,,,,,,,,,,,,
100545,001,2022-11-20_17h47.58.299,Info_measure_main_exp,2022.2.2,Win32,59.01445854,,,,,,,,,,,,,,,,,,masks/mask_003.jpg,,,,,,,,,,,,,,,,,,,,,,,,,,,,,,,,,,,,,,,,,,,0,0,0,2,1,,,,,,,,,,,,,,,,,,,,,,,,,,,,,,,,,,,,,,,,,,,,,,
100545,001,2022-11-20_17h47.58.299,Info_measure_main_exp,2022.2.2,Win32,59.01445854,,,,,,,,,,,,,,,,,,masks/mask_001.jpg,,,,,,,,,,,,,,,,,,,,,,,,,,,,,,,,,,,,,,,,,,,0,1,1,0,1,,,,,,,,,,,,,,,,,,,,,,,,,,,,,,,,,,,,,,,,,,,,,,
100545,001,2022-11-20_17h47.58.299,Info_measure_main_exp,2022.2.2,Win32,59.01445854,,,,,,,,,,,,,,,,,,masks/mask_004.jpg,,,,,,,,,,,,,,,,,,,,,,,,,,,,,,,,,,,,,,,,,,,0,2,2,3,1,,,,,,,,,,,,,,,,,,,,,,,,,,,,,,,,,,,,,,,,,,,,,,
100545,001,2022-11-20_17h47.58.299,Info_measure_main_exp,2022.2.2,Win32,59.01445854,,,,,,,,,,,,,,,,,,masks/mask_002.jpg,,,,,,,,,,,,,,,,,,,,,,,,,,,,,,,,,,,,,,,,,,,0,3,3,1,1,,,,,,,,,,,,,,,,,,,,,,,,,,,,,,,,,,,,,,,,,,,,,,
100545,001,2022-11-20_17h47.58.299,Info_measure_main_exp,2022.2.2,Win32,59.01445854,,,,,,,,,,,,,,,,,,masks/mask_005.jpg,,,,,,,,,,,,,,,,,,,,,,,,,,,,,,,,,,,,,,,,,,,0,4,4,4,1,,,,,,,,,,,,,,,,,,,,,,,,,,,,,,,,,,,,,,,,,,,,,,
100545,001,2022-11-20_17h47.58.299,Info_measure_main_exp,2022.2.2,Win32,59.01445854,,,,,,,,,,,,,,,,,,masks/mask_001.jpg,,,,,,,,,,,,,,,,,,,,,,,,,,,,,,,,,,,,,,,,,,,,,,,,0,0,0,0,1,,,,,,,,,,,,,,,,,,,,,,,,,,,,,,,,,,,,,,,,,
100545,001,2022-11-20_17h47.58.299,Info_measure_main_exp,2022.2.2,Win32,59.01445854,,,,,,,,,,,,,,,,,,masks/mask_003.jpg,,,,,,,,,,,,,,,,,,,,,,,,,,,,,,,,,,,,,,,,,,,,,,,,0,1,1,2,1,,,,,,,,,,,,,,,,,,,,,,,,,,,,,,,,,,,,,,,,,
100545,001,2022-11-20_17h47.58.299,Info_measure_main_exp,2022.2.2,Win32,59.01445854,,,,,,,,,,,,,,,,,,masks/mask_005.jpg,,,,,,,,,,,,,,,,,,,,,,,,,,,,,,,,,,,,,,,,,,,,,,,,0,2,2,4,1,,,,,,,,,,,,,,,,,,,,,,,,,,,,,,,,,,,,,,,,,
100545,001,2022-11-20_17h47.58.299,Info_measure_main_exp,2022.2.2,Win32,59.01445854,,,,,,,,,,,,,,,,,,masks/mask_004.jpg,,,,,,,,,,,,,,,,,,,,,,,,,,,,,,,,,,,,,,,,,,,,,,,,0,3,3,3,1,,,,,,,,,,,,,,,,,,,,,,,,,,,,,,,,,,,,,,,,,
100545,001,2022-11-20_17h47.58.299,Info_measure_main_exp,2022.2.2,Win32,59.01445854,,,,,,,,,,,,,,,,,,masks/mask_002.jpg,,,,,,,,,,,,,,,,,,,,,,,,,,,,,,,,,,,,,,,,,,,,,,,,0,4,4,1,1,,,,,,,,,,,,,,,,,,,,,,,,,,,,,,,,,,,,,,,,,
100545,001,2022-11-20_17h47.58.299,Info_measure_main_exp,2022.2.2,Win32,59.01445854,,,,,,,,,,,,,,,,,,,,,,,,,,,,,,3,1.4665,1,,,,,,,,,,,,0,131,5,5,2166,2154,absent_patch/patch0002166.jpg,absent_patch/patch0002154.jpg,,,,,,,,,,,,,,,,,,,,-0.024739583,-0.092447917,1,0,0,response5disk,26,0.006510417,0.0078125,1,0,0,center_square,0,25,25,79,1,,,,,,,,,,,,,,,,,,,,,,,
100545,001,2022-11-20_17h47.58.299,Info_measure_main_exp,2022.2.2,Win32,59.01445854,,,,,,,,,,,,,,,,,,masks/mask_004.jpg,,,,,,,,,,,,,,,,,,,,,,,,,,,,,,,,,,,,,,,,,,,0,0,0,3,1,,,,,,,,,,,,,,,,,,,,,,,,,,,,,,,,,,,,,,,,,,,,,,
100545,001,2022-11-20_17h47.58.299,Info_measure_main_exp,2022.2.2,Win32,59.01445854,,,,,,,,,,,,,,,,,,masks/mask_005.jpg,,,,,,,,,,,,,,,,,,,,,,,,,,,,,,,,,,,,,,,,,,,0,1,1,4,1,,,,,,,,,,,,,,,,,,,,,,,,,,,,,,,,,,,,,,,,,,,,,,
100545,001,2022-11-20_17h47.58.299,Info_measure_main_exp,2022.2.2,Win32,59.01445854,,,,,,,,,,,,,,,,,,masks/mask_003.jpg,,,,,,,,,,,,,,,,,,,,,,,,,,,,,,,,,,,,,,,,,,,0,2,2,2,1,,,,,,,,,,,,,,,,,,,,,,,,,,,,,,,,,,,,,,,,,,,,,,
100545,001,2022-11-20_17h47.58.299,Info_measure_main_exp,2022.2.2,Win32,59.01445854,,,,,,,,,,,,,,,,,,masks/mask_001.jpg,,,,,,,,,,,,,,,,,,,,,,,,,,,,,,,,,,,,,,,,,,,0,3,3,0,1,,,,,,,,,,,,,,,,,,,,,,,,,,,,,,,,,,,,,,,,,,,,,,
100545,001,2022-11-20_17h47.58.299,Info_measure_main_exp,2022.2.2,Win32,59.01445854,,,,,,,,,,,,,,,,,,masks/mask_002.jpg,,,,,,,,,,,,,,,,,,,,,,,,,,,,,,,,,,,,,,,,,,,0,4,4,1,1,,,,,,,,,,,,,,,,,,,,,,,,,,,,,,,,,,,,,,,,,,,,,,
100545,001,2022-11-20_17h47.58.299,Info_measure_main_exp,2022.2.2,Win32,59.01445854,,,,,,,,,,,,,,,,,,masks/mask_002.jpg,,,,,,,,,,,,,,,,,,,,,,,,,,,,,,,,,,,,,,,,,,,,,,,,0,0,0,1,1,,,,,,,,,,,,,,,,,,,,,,,,,,,,,,,,,,,,,,,,,
100545,001,2022-11-20_17h47.58.299,Info_measure_main_exp,2022.2.2,Win32,59.01445854,,,,,,,,,,,,,,,,,,masks/mask_003.jpg,,,,,,,,,,,,,,,,,,,,,,,,,,,,,,,,,,,,,,,,,,,,,,,,0,1,1,2,1,,,,,,,,,,,,,,,,,,,,,,,,,,,,,,,,,,,,,,,,,
100545,001,2022-11-20_17h47.58.299,Info_measure_main_exp,2022.2.2,Win32,59.01445854,,,,,,,,,,,,,,,,,,masks/mask_005.jpg,,,,,,,,,,,,,,,,,,,,,,,,,,,,,,,,,,,,,,,,,,,,,,,,0,2,2,4,1,,,,,,,,,,,,,,,,,,,,,,,,,,,,,,,,,,,,,,,,,
100545,001,2022-11-20_17h47.58.299,Info_measure_main_exp,2022.2.2,Win32,59.01445854,,,,,,,,,,,,,,,,,,masks/mask_001.jpg,,,,,,,,,,,,,,,,,,,,,,,,,,,,,,,,,,,,,,,,,,,,,,,,0,3,3,0,1,,,,,,,,,,,,,,,,,,,,,,,,,,,,,,,,,,,,,,,,,
100545,001,2022-11-20_17h47.58.299,Info_measure_main_exp,2022.2.2,Win32,59.01445854,,,,,,,,,,,,,,,,,,masks/mask_004.jpg,,,,,,,,,,,,,,,,,,,,,,,,,,,,,,,,,,,,,,,,,,,,,,,,0,4,4,3,1,,,,,,,,,,,,,,,,,,,,,,,,,,,,,,,,,,,,,,,,,
100545,001,2022-11-20_17h47.58.299,Info_measure_main_exp,2022.2.2,Win32,59.01445854,,,,,,,,,,,,,,,,,,,,,,,,,,,,,,5,0.8825,1,,,,,,,,,,,,0,131,5,5,2214,2166,absent_patch/patch0002214.jpg,absent_patch/patch0002166.jpg,,,,,,,,,,,,,,,,,,,,0.06640625,-0.032552083,1,0,0,response3disk,27,-0.005208333,-0.001302083,1,0,0,center_square,0,26,26,109,1,,,,,,,,,,,,,,,,,,,,,,,
100545,001,2022-11-20_17h47.58.299,Info_measure_main_exp,2022.2.2,Win32,59.01445854,,,,,,,,,,,,,,,,,,masks/mask_003.jpg,,,,,,,,,,,,,,,,,,,,,,,,,,,,,,,,,,,,,,,,,,,0,0,0,2,1,,,,,,,,,,,,,,,,,,,,,,,,,,,,,,,,,,,,,,,,,,,,,,
100545,001,2022-11-20_17h47.58.299,Info_measure_main_exp,2022.2.2,Win32,59.01445854,,,,,,,,,,,,,,,,,,masks/mask_004.jpg,,,,,,,,,,,,,,,,,,,,,,,,,,,,,,,,,,,,,,,,,,,0,1,1,3,1,,,,,,,,,,,,,,,,,,,,,,,,,,,,,,,,,,,,,,,,,,,,,,
100545,001,2022-11-20_17h47.58.299,Info_measure_main_exp,2022.2.2,Win32,59.01445854,,,,,,,,,,,,,,,,,,masks/mask_002.jpg,,,,,,,,,,,,,,,,,,,,,,,,,,,,,,,,,,,,,,,,,,,0,2,2,1,1,,,,,,,,,,,,,,,,,,,,,,,,,,,,,,,,,,,,,,,,,,,,,,
100545,001,2022-11-20_17h47.58.299,Info_measure_main_exp,2022.2.2,Win32,59.01445854,,,,,,,,,,,,,,,,,,masks/mask_001.jpg,,,,,,,,,,,,,,,,,,,,,,,,,,,,,,,,,,,,,,,,,,,0,3,3,0,1,,,,,,,,,,,,,,,,,,,,,,,,,,,,,,,,,,,,,,,,,,,,,,
100545,001,2022-11-20_17h47.58.299,Info_measure_main_exp,2022.2.2,Win32,59.01445854,,,,,,,,,,,,,,,,,,masks/mask_005.jpg,,,,,,,,,,,,,,,,,,,,,,,,,,,,,,,,,,,,,,,,,,,0,4,4,4,1,,,,,,,,,,,,,,,,,,,,,,,,,,,,,,,,,,,,,,,,,,,,,,
100545,001,2022-11-20_17h47.58.299,Info_measure_main_exp,2022.2.2,Win32,59.01445854,,,,,,,,,,,,,,,,,,masks/mask_002.jpg,,,,,,,,,,,,,,,,,,,,,,,,,,,,,,,,,,,,,,,,,,,,,,,,0,0,0,1,1,,,,,,,,,,,,,,,,,,,,,,,,,,,,,,,,,,,,,,,,,
100545,001,2022-11-20_17h47.58.299,Info_measure_main_exp,2022.2.2,Win32,59.01445854,,,,,,,,,,,,,,,,,,masks/mask_004.jpg,,,,,,,,,,,,,,,,,,,,,,,,,,,,,,,,,,,,,,,,,,,,,,,,0,1,1,3,1,,,,,,,,,,,,,,,,,,,,,,,,,,,,,,,,,,,,,,,,,
100545,001,2022-11-20_17h47.58.299,Info_measure_main_exp,2022.2.2,Win32,59.01445854,,,,,,,,,,,,,,,,,,masks/mask_003.jpg,,,,,,,,,,,,,,,,,,,,,,,,,,,,,,,,,,,,,,,,,,,,,,,,0,2,2,2,1,,,,,,,,,,,,,,,,,,,,,,,,,,,,,,,,,,,,,,,,,
100545,001,2022-11-20_17h47.58.299,Info_measure_main_exp,2022.2.2,Win32,59.01445854,,,,,,,,,,,,,,,,,,masks/mask_005.jpg,,,,,,,,,,,,,,,,,,,,,,,,,,,,,,,,,,,,,,,,,,,,,,,,0,3,3,4,1,,,,,,,,,,,,,,,,,,,,,,,,,,,,,,,,,,,,,,,,,
100545,001,2022-11-20_17h47.58.299,Info_measure_main_exp,2022.2.2,Win32,59.01445854,,,,,,,,,,,,,,,,,,masks/mask_001.jpg,,,,,,,,,,,,,,,,,,,,,,,,,,,,,,,,,,,,,,,,,,,,,,,,0,4,4,0,1,,,,,,,,,,,,,,,,,,,,,,,,,,,,,,,,,,,,,,,,,
100545,001,2022-11-20_17h47.58.299,Info_measure_main_exp,2022.2.2,Win32,59.01445854,,,,,,,,,,,,,,,,,,,,,,,,,,,,,,7,0.8004,1,,,,,,,,,,,,0,131,5,5,2082,1986,absent_patch/patch0002082.jpg,absent_patch/patch0001986.jpg,,,,,,,,,,,,,,,,,,,,0.03515625,0.09375,1,0,0,response1disk,28,0.002604167,-0.014322917,1,0,0,center_square,0,27,27,94,1,,,,,,,,,,,,,,,,,,,,,,,
100545,001,2022-11-20_17h47.58.299,Info_measure_main_exp,2022.2.2,Win32,59.01445854,,,,,,,,,,,,,,,,,,masks/mask_001.jpg,,,,,,,,,,,,,,,,,,,,,,,,,,,,,,,,,,,,,,,,,,,0,0,0,0,1,,,,,,,,,,,,,,,,,,,,,,,,,,,,,,,,,,,,,,,,,,,,,,
100545,001,2022-11-20_17h47.58.299,Info_measure_main_exp,2022.2.2,Win32,59.01445854,,,,,,,,,,,,,,,,,,masks/mask_005.jpg,,,,,,,,,,,,,,,,,,,,,,,,,,,,,,,,,,,,,,,,,,,0,1,1,4,1,,,,,,,,,,,,,,,,,,,,,,,,,,,,,,,,,,,,,,,,,,,,,,
100545,001,2022-11-20_17h47.58.299,Info_measure_main_exp,2022.2.2,Win32,59.01445854,,,,,,,,,,,,,,,,,,masks/mask_004.jpg,,,,,,,,,,,,,,,,,,,,,,,,,,,,,,,,,,,,,,,,,,,0,2,2,3,1,,,,,,,,,,,,,,,,,,,,,,,,,,,,,,,,,,,,,,,,,,,,,,
100545,001,2022-11-20_17h47.58.299,Info_measure_main_exp,2022.2.2,Win32,59.01445854,,,,,,,,,,,,,,,,,,masks/mask_003.jpg,,,,,,,,,,,,,,,,,,,,,,,,,,,,,,,,,,,,,,,,,,,0,3,3,2,1,,,,,,,,,,,,,,,,,,,,,,,,,,,,,,,,,,,,,,,,,,,,,,
100545,001,2022-11-20_17h47.58.299,Info_measure_main_exp,2022.2.2,Win32,59.01445854,,,,,,,,,,,,,,,,,,masks/mask_002.jpg,,,,,,,,,,,,,,,,,,,,,,,,,,,,,,,,,,,,,,,,,,,0,4,4,1,1,,,,,,,,,,,,,,,,,,,,,,,,,,,,,,,,,,,,,,,,,,,,,,
100545,001,2022-11-20_17h47.58.299,Info_measure_main_exp,2022.2.2,Win32,59.01445854,,,,,,,,,,,,,,,,,,masks/mask_004.jpg,,,,,,,,,,,,,,,,,,,,,,,,,,,,,,,,,,,,,,,,,,,,,,,,0,0,0,3,1,,,,,,,,,,,,,,,,,,,,,,,,,,,,,,,,,,,,,,,,,
100545,001,2022-11-20_17h47.58.299,Info_measure_main_exp,2022.2.2,Win32,59.01445854,,,,,,,,,,,,,,,,,,masks/mask_002.jpg,,,,,,,,,,,,,,,,,,,,,,,,,,,,,,,,,,,,,,,,,,,,,,,,0,1,1,1,1,,,,,,,,,,,,,,,,,,,,,,,,,,,,,,,,,,,,,,,,,
100545,001,2022-11-20_17h47.58.299,Info_measure_main_exp,2022.2.2,Win32,59.01445854,,,,,,,,,,,,,,,,,,masks/mask_001.jpg,,,,,,,,,,,,,,,,,,,,,,,,,,,,,,,,,,,,,,,,,,,,,,,,0,2,2,0,1,,,,,,,,,,,,,,,,,,,,,,,,,,,,,,,,,,,,,,,,,
100545,001,2022-11-20_17h47.58.299,Info_measure_main_exp,2022.2.2,Win32,59.01445854,,,,,,,,,,,,,,,,,,masks/mask_005.jpg,,,,,,,,,,,,,,,,,,,,,,,,,,,,,,,,,,,,,,,,,,,,,,,,0,3,3,4,1,,,,,,,,,,,,,,,,,,,,,,,,,,,,,,,,,,,,,,,,,
100545,001,2022-11-20_17h47.58.299,Info_measure_main_exp,2022.2.2,Win32,59.01445854,,,,,,,,,,,,,,,,,,masks/mask_003.jpg,,,,,,,,,,,,,,,,,,,,,,,,,,,,,,,,,,,,,,,,,,,,,,,,0,4,4,2,1,,,,,,,,,,,,,,,,,,,,,,,,,,,,,,,,,,,,,,,,,
100545,001,2022-11-20_17h47.58.299,Info_measure_main_exp,2022.2.2,Win32,59.01445854,,,,,,,,,,,,,,,,,,,,,,,,,,,,,,6,0.7999,1,,,,,,,,,,,,0,131,5,5,2190,2250,absent_patch/patch0002190.jpg,absent_patch/patch0002250.jpg,,,,,,,,,,,,,,,,,,,,0.067708333,0.029947917,1,0,0,response1disk,29,0,-0.010416667,1,0,0,center_square,0,28,28,93,1,,,,,,,,,,,,,,,,,,,,,,,
100545,001,2022-11-20_17h47.58.299,Info_measure_main_exp,2022.2.2,Win32,59.01445854,,,,,,,,,,,,,,,,,,masks/mask_005.jpg,,,,,,,,,,,,,,,,,,,,,,,,,,,,,,,,,,,,,,,,,,,0,0,0,4,1,,,,,,,,,,,,,,,,,,,,,,,,,,,,,,,,,,,,,,,,,,,,,,
100545,001,2022-11-20_17h47.58.299,Info_measure_main_exp,2022.2.2,Win32,59.01445854,,,,,,,,,,,,,,,,,,masks/mask_003.jpg,,,,,,,,,,,,,,,,,,,,,,,,,,,,,,,,,,,,,,,,,,,0,1,1,2,1,,,,,,,,,,,,,,,,,,,,,,,,,,,,,,,,,,,,,,,,,,,,,,
100545,001,2022-11-20_17h47.58.299,Info_measure_main_exp,2022.2.2,Win32,59.01445854,,,,,,,,,,,,,,,,,,masks/mask_004.jpg,,,,,,,,,,,,,,,,,,,,,,,,,,,,,,,,,,,,,,,,,,,0,2,2,3,1,,,,,,,,,,,,,,,,,,,,,,,,,,,,,,,,,,,,,,,,,,,,,,
100545,001,2022-11-20_17h47.58.299,Info_measure_main_exp,2022.2.2,Win32,59.01445854,,,,,,,,,,,,,,,,,,masks/mask_001.jpg,,,,,,,,,,,,,,,,,,,,,,,,,,,,,,,,,,,,,,,,,,,0,3,3,0,1,,,,,,,,,,,,,,,,,,,,,,,,,,,,,,,,,,,,,,,,,,,,,,
100545,001,2022-11-20_17h47.58.299,Info_measure_main_exp,2022.2.2,Win32,59.01445854,,,,,,,,,,,,,,,,,,masks/mask_002.jpg,,,,,,,,,,,,,,,,,,,,,,,,,,,,,,,,,,,,,,,,,,,0,4,4,1,1,,,,,,,,,,,,,,,,,,,,,,,,,,,,,,,,,,,,,,,,,,,,,,
100545,001,2022-11-20_17h47.58.299,Info_measure_main_exp,2022.2.2,Win32,59.01445854,,,,,,,,,,,,,,,,,,masks/mask_001.jpg,,,,,,,,,,,,,,,,,,,,,,,,,,,,,,,,,,,,,,,,,,,,,,,,0,0,0,0,1,,,,,,,,,,,,,,,,,,,,,,,,,,,,,,,,,,,,,,,,,
100545,001,2022-11-20_17h47.58.299,Info_measure_main_exp,2022.2.2,Win32,59.01445854,,,,,,,,,,,,,,,,,,masks/mask_005.jpg,,,,,,,,,,,,,,,,,,,,,,,,,,,,,,,,,,,,,,,,,,,,,,,,0,1,1,4,1,,,,,,,,,,,,,,,,,,,,,,,,,,,,,,,,,,,,,,,,,
100545,001,2022-11-20_17h47.58.299,Info_measure_main_exp,2022.2.2,Win32,59.01445854,,,,,,,,,,,,,,,,,,masks/mask_003.jpg,,,,,,,,,,,,,,,,,,,,,,,,,,,,,,,,,,,,,,,,,,,,,,,,0,2,2,2,1,,,,,,,,,,,,,,,,,,,,,,,,,,,,,,,,,,,,,,,,,
100545,001,2022-11-20_17h47.58.299,Info_measure_main_exp,2022.2.2,Win32,59.01445854,,,,,,,,,,,,,,,,,,masks/mask_004.jpg,,,,,,,,,,,,,,,,,,,,,,,,,,,,,,,,,,,,,,,,,,,,,,,,0,3,3,3,1,,,,,,,,,,,,,,,,,,,,,,,,,,,,,,,,,,,,,,,,,
100545,001,2022-11-20_17h47.58.299,Info_measure_main_exp,2022.2.2,Win32,59.01445854,,,,,,,,,,,,,,,,,,masks/mask_002.jpg,,,,,,,,,,,,,,,,,,,,,,,,,,,,,,,,,,,,,,,,,,,,,,,,0,4,4,1,1,,,,,,,,,,,,,,,,,,,,,,,,,,,,,,,,,,,,,,,,,
100545,001,2022-11-20_17h47.58.299,Info_measure_main_exp,2022.2.2,Win32,59.01445854,,,,,,,,,,,,,,,,,,,,,,,,,,,,,,3,1.4664,1,,,,,,,,,,,,0,131,5,5,2214,2082,absent_patch/patch0002214.jpg,absent_patch/patch0002082.jpg,,,,,,,,,,,,,,,,,,,,-0.041666667,-0.080729167,1,0,0,response5disk,30,0.010416667,0.009114583,1,0,0,center_square,0,29,29,103,1,,,,,,,,,,,,,,,,,,,,,,,
100545,001,2022-11-20_17h47.58.299,Info_measure_main_exp,2022.2.2,Win32,59.01445854,,,,,,,,,,,,,,,,,,masks/mask_001.jpg,,,,,,,,,,,,,,,,,,,,,,,,,,,,,,,,,,,,,,,,,,,0,0,0,0,1,,,,,,,,,,,,,,,,,,,,,,,,,,,,,,,,,,,,,,,,,,,,,,
100545,001,2022-11-20_17h47.58.299,Info_measure_main_exp,2022.2.2,Win32,59.01445854,,,,,,,,,,,,,,,,,,masks/mask_003.jpg,,,,,,,,,,,,,,,,,,,,,,,,,,,,,,,,,,,,,,,,,,,0,1,1,2,1,,,,,,,,,,,,,,,,,,,,,,,,,,,,,,,,,,,,,,,,,,,,,,
100545,001,2022-11-20_17h47.58.299,Info_measure_main_exp,2022.2.2,Win32,59.01445854,,,,,,,,,,,,,,,,,,masks/mask_005.jpg,,,,,,,,,,,,,,,,,,,,,,,,,,,,,,,,,,,,,,,,,,,0,2,2,4,1,,,,,,,,,,,,,,,,,,,,,,,,,,,,,,,,,,,,,,,,,,,,,,
100545,001,2022-11-20_17h47.58.299,Info_measure_main_exp,2022.2.2,Win32,59.01445854,,,,,,,,,,,,,,,,,,masks/mask_002.jpg,,,,,,,,,,,,,,,,,,,,,,,,,,,,,,,,,,,,,,,,,,,0,3,3,1,1,,,,,,,,,,,,,,,,,,,,,,,,,,,,,,,,,,,,,,,,,,,,,,
100545,001,2022-11-20_17h47.58.299,Info_measure_main_exp,2022.2.2,Win32,59.01445854,,,,,,,,,,,,,,,,,,masks/mask_004.jpg,,,,,,,,,,,,,,,,,,,,,,,,,,,,,,,,,,,,,,,,,,,0,4,4,3,1,,,,,,,,,,,,,,,,,,,,,,,,,,,,,,,,,,,,,,,,,,,,,,
100545,001,2022-11-20_17h47.58.299,Info_measure_main_exp,2022.2.2,Win32,59.01445854,,,,,,,,,,,,,,,,,,masks/mask_005.jpg,,,,,,,,,,,,,,,,,,,,,,,,,,,,,,,,,,,,,,,,,,,,,,,,0,0,0,4,1,,,,,,,,,,,,,,,,,,,,,,,,,,,,,,,,,,,,,,,,,
100545,001,2022-11-20_17h47.58.299,Info_measure_main_exp,2022.2.2,Win32,59.01445854,,,,,,,,,,,,,,,,,,masks/mask_001.jpg,,,,,,,,,,,,,,,,,,,,,,,,,,,,,,,,,,,,,,,,,,,,,,,,0,1,1,0,1,,,,,,,,,,,,,,,,,,,,,,,,,,,,,,,,,,,,,,,,,
100545,001,2022-11-20_17h47.58.299,Info_measure_main_exp,2022.2.2,Win32,59.01445854,,,,,,,,,,,,,,,,,,masks/mask_002.jpg,,,,,,,,,,,,,,,,,,,,,,,,,,,,,,,,,,,,,,,,,,,,,,,,0,2,2,1,1,,,,,,,,,,,,,,,,,,,,,,,,,,,,,,,,,,,,,,,,,
100545,001,2022-11-20_17h47.58.299,Info_measure_main_exp,2022.2.2,Win32,59.01445854,,,,,,,,,,,,,,,,,,masks/mask_004.jpg,,,,,,,,,,,,,,,,,,,,,,,,,,,,,,,,,,,,,,,,,,,,,,,,0,3,3,3,1,,,,,,,,,,,,,,,,,,,,,,,,,,,,,,,,,,,,,,,,,
100545,001,2022-11-20_17h47.58.299,Info_measure_main_exp,2022.2.2,Win32,59.01445854,,,,,,,,,,,,,,,,,,masks/mask_003.jpg,,,,,,,,,,,,,,,,,,,,,,,,,,,,,,,,,,,,,,,,,,,,,,,,0,4,4,2,1,,,,,,,,,,,,,,,,,,,,,,,,,,,,,,,,,,,,,,,,,
100545,001,2022-11-20_17h47.58.299,Info_measure_main_exp,2022.2.2,Win32,59.01445854,,,,,,,,,,,,,,,,,,,,,,,,,,,,,,0,0.7832,1,,,,,,,,,,,,0,131,5,5,2154,2154,absent_patch/patch0002154.jpg,absent_patch/patch0002154.jpg,,,,,,,,,,,,,,,,,,,,-0.036458333,0.078125,1,0,0,response7disk,31,-0.0078125,0.001302083,1,0,0,center_square,0,30,30,89,1,,,,,,,,,,,,,,,,,,,,,,,
100545,001,2022-11-20_17h47.58.299,Info_measure_main_exp,2022.2.2,Win32,59.01445854,,,,,,,,,,,,,,,,,,masks/mask_001.jpg,,,,,,,,,,,,,,,,,,,,,,,,,,,,,,,,,,,,,,,,,,,0,0,0,0,1,,,,,,,,,,,,,,,,,,,,,,,,,,,,,,,,,,,,,,,,,,,,,,
100545,001,2022-11-20_17h47.58.299,Info_measure_main_exp,2022.2.2,Win32,59.01445854,,,,,,,,,,,,,,,,,,masks/mask_003.jpg,,,,,,,,,,,,,,,,,,,,,,,,,,,,,,,,,,,,,,,,,,,0,1,1,2,1,,,,,,,,,,,,,,,,,,,,,,,,,,,,,,,,,,,,,,,,,,,,,,
100545,001,2022-11-20_17h47.58.299,Info_measure_main_exp,2022.2.2,Win32,59.01445854,,,,,,,,,,,,,,,,,,masks/mask_004.jpg,,,,,,,,,,,,,,,,,,,,,,,,,,,,,,,,,,,,,,,,,,,0,2,2,3,1,,,,,,,,,,,,,,,,,,,,,,,,,,,,,,,,,,,,,,,,,,,,,,
100545,001,2022-11-20_17h47.58.299,Info_measure_main_exp,2022.2.2,Win32,59.01445854,,,,,,,,,,,,,,,,,,masks/mask_005.jpg,,,,,,,,,,,,,,,,,,,,,,,,,,,,,,,,,,,,,,,,,,,0,3,3,4,1,,,,,,,,,,,,,,,,,,,,,,,,,,,,,,,,,,,,,,,,,,,,,,
100545,001,2022-11-20_17h47.58.299,Info_measure_main_exp,2022.2.2,Win32,59.01445854,,,,,,,,,,,,,,,,,,masks/mask_002.jpg,,,,,,,,,,,,,,,,,,,,,,,,,,,,,,,,,,,,,,,,,,,0,4,4,1,1,,,,,,,,,,,,,,,,,,,,,,,,,,,,,,,,,,,,,,,,,,,,,,
100545,001,2022-11-20_17h47.58.299,Info_measure_main_exp,2022.2.2,Win32,59.01445854,,,,,,,,,,,,,,,,,,masks/mask_004.jpg,,,,,,,,,,,,,,,,,,,,,,,,,,,,,,,,,,,,,,,,,,,,,,,,0,0,0,3,1,,,,,,,,,,,,,,,,,,,,,,,,,,,,,,,,,,,,,,,,,
100545,001,2022-11-20_17h47.58.299,Info_measure_main_exp,2022.2.2,Win32,59.01445854,,,,,,,,,,,,,,,,,,masks/mask_001.jpg,,,,,,,,,,,,,,,,,,,,,,,,,,,,,,,,,,,,,,,,,,,,,,,,0,1,1,0,1,,,,,,,,,,,,,,,,,,,,,,,,,,,,,,,,,,,,,,,,,
100545,001,2022-11-20_17h47.58.299,Info_measure_main_exp,2022.2.2,Win32,59.01445854,,,,,,,,,,,,,,,,,,masks/mask_005.jpg,,,,,,,,,,,,,,,,,,,,,,,,,,,,,,,,,,,,,,,,,,,,,,,,0,2,2,4,1,,,,,,,,,,,,,,,,,,,,,,,,,,,,,,,,,,,,,,,,,
100545,001,2022-11-20_17h47.58.299,Info_measure_main_exp,2022.2.2,Win32,59.01445854,,,,,,,,,,,,,,,,,,masks/mask_002.jpg,,,,,,,,,,,,,,,,,,,,,,,,,,,,,,,,,,,,,,,,,,,,,,,,0,3,3,1,1,,,,,,,,,,,,,,,,,,,,,,,,,,,,,,,,,,,,,,,,,
100545,001,2022-11-20_17h47.58.299,Info_measure_main_exp,2022.2.2,Win32,59.01445854,,,,,,,,,,,,,,,,,,masks/mask_003.jpg,,,,,,,,,,,,,,,,,,,,,,,,,,,,,,,,,,,,,,,,,,,,,,,,0,4,4,2,1,,,,,,,,,,,,,,,,,,,,,,,,,,,,,,,,,,,,,,,,,
100545,001,2022-11-20_17h47.58.299,Info_measure_main_exp,2022.2.2,Win32,59.01445854,,,,,,,,,,,,,,,,,,,,,,,,,,,,,,0,0.75,1,,,,,,,,,,,,0,131,5,5,1986,1986,absent_patch/patch0001986.jpg,absent_patch/patch0001986.jpg,,,,,,,,,,,,,,,,,,,,-0.0546875,0.09375,1,0,0,response7disk,32,-0.005208333,0,1,0,0,center_square,0,31,31,19,1,,,,,,,,,,,,,,,,,,,,,,,
100545,001,2022-11-20_17h47.58.299,Info_measure_main_exp,2022.2.2,Win32,59.01445854,,,,,,,,,,,,,,,,,,masks/mask_001.jpg,,,,,,,,,,,,,,,,,,,,,,,,,,,,,,,,,,,,,,,,,,,0,0,0,0,1,,,,,,,,,,,,,,,,,,,,,,,,,,,,,,,,,,,,,,,,,,,,,,
100545,001,2022-11-20_17h47.58.299,Info_measure_main_exp,2022.2.2,Win32,59.01445854,,,,,,,,,,,,,,,,,,masks/mask_005.jpg,,,,,,,,,,,,,,,,,,,,,,,,,,,,,,,,,,,,,,,,,,,0,1,1,4,1,,,,,,,,,,,,,,,,,,,,,,,,,,,,,,,,,,,,,,,,,,,,,,
100545,001,2022-11-20_17h47.58.299,Info_measure_main_exp,2022.2.2,Win32,59.01445854,,,,,,,,,,,,,,,,,,masks/mask_002.jpg,,,,,,,,,,,,,,,,,,,,,,,,,,,,,,,,,,,,,,,,,,,0,2,2,1,1,,,,,,,,,,,,,,,,,,,,,,,,,,,,,,,,,,,,,,,,,,,,,,
100545,001,2022-11-20_17h47.58.299,Info_measure_main_exp,2022.2.2,Win32,59.01445854,,,,,,,,,,,,,,,,,,masks/mask_004.jpg,,,,,,,,,,,,,,,,,,,,,,,,,,,,,,,,,,,,,,,,,,,0,3,3,3,1,,,,,,,,,,,,,,,,,,,,,,,,,,,,,,,,,,,,,,,,,,,,,,
100545,001,2022-11-20_17h47.58.299,Info_measure_main_exp,2022.2.2,Win32,59.01445854,,,,,,,,,,,,,,,,,,masks/mask_003.jpg,,,,,,,,,,,,,,,,,,,,,,,,,,,,,,,,,,,,,,,,,,,0,4,4,2,1,,,,,,,,,,,,,,,,,,,,,,,,,,,,,,,,,,,,,,,,,,,,,,
100545,001,2022-11-20_17h47.58.299,Info_measure_main_exp,2022.2.2,Win32,59.01445854,,,,,,,,,,,,,,,,,,masks/mask_002.jpg,,,,,,,,,,,,,,,,,,,,,,,,,,,,,,,,,,,,,,,,,,,,,,,,0,0,0,1,1,,,,,,,,,,,,,,,,,,,,,,,,,,,,,,,,,,,,,,,,,
100545,001,2022-11-20_17h47.58.299,Info_measure_main_exp,2022.2.2,Win32,59.01445854,,,,,,,,,,,,,,,,,,masks/mask_001.jpg,,,,,,,,,,,,,,,,,,,,,,,,,,,,,,,,,,,,,,,,,,,,,,,,0,1,1,0,1,,,,,,,,,,,,,,,,,,,,,,,,,,,,,,,,,,,,,,,,,
100545,001,2022-11-20_17h47.58.299,Info_measure_main_exp,2022.2.2,Win32,59.01445854,,,,,,,,,,,,,,,,,,masks/mask_003.jpg,,,,,,,,,,,,,,,,,,,,,,,,,,,,,,,,,,,,,,,,,,,,,,,,0,2,2,2,1,,,,,,,,,,,,,,,,,,,,,,,,,,,,,,,,,,,,,,,,,
100545,001,2022-11-20_17h47.58.299,Info_measure_main_exp,2022.2.2,Win32,59.01445854,,,,,,,,,,,,,,,,,,masks/mask_005.jpg,,,,,,,,,,,,,,,,,,,,,,,,,,,,,,,,,,,,,,,,,,,,,,,,0,3,3,4,1,,,,,,,,,,,,,,,,,,,,,,,,,,,,,,,,,,,,,,,,,
100545,001,2022-11-20_17h47.58.299,Info_measure_main_exp,2022.2.2,Win32,59.01445854,,,,,,,,,,,,,,,,,,masks/mask_004.jpg,,,,,,,,,,,,,,,,,,,,,,,,,,,,,,,,,,,,,,,,,,,,,,,,0,4,4,3,1,,,,,,,,,,,,,,,,,,,,,,,,,,,,,,,,,,,,,,,,,
100545,001,2022-11-20_17h47.58.299,Info_measure_main_exp,2022.2.2,Win32,59.01445854,,,,,,,,,,,,,,,,,,,,,,,,,,,,,,4,1.3831,1,,,,,,,,,,,,1,131,5,5,1,2142,present_patch/cong_131_5_a.jpg,absent_patch/patch0002142.jpg,,,,,,,,,,,,,,,,,,,,0.020833333,-0.072916667,1,0,0,response3disk,33,-0.005208333,0.0078125,1,0,0,center_square,0,32,32,80,1,,,,,,,,,,,,,,,,,,,,,,,
100545,001,2022-11-20_17h47.58.299,Info_measure_main_exp,2022.2.2,Win32,59.01445854,,,,,,,,,,,,,,,,,,masks/mask_002.jpg,,,,,,,,,,,,,,,,,,,,,,,,,,,,,,,,,,,,,,,,,,,0,0,0,1,1,,,,,,,,,,,,,,,,,,,,,,,,,,,,,,,,,,,,,,,,,,,,,,
100545,001,2022-11-20_17h47.58.299,Info_measure_main_exp,2022.2.2,Win32,59.01445854,,,,,,,,,,,,,,,,,,masks/mask_001.jpg,,,,,,,,,,,,,,,,,,,,,,,,,,,,,,,,,,,,,,,,,,,0,1,1,0,1,,,,,,,,,,,,,,,,,,,,,,,,,,,,,,,,,,,,,,,,,,,,,,
100545,001,2022-11-20_17h47.58.299,Info_measure_main_exp,2022.2.2,Win32,59.01445854,,,,,,,,,,,,,,,,,,masks/mask_004.jpg,,,,,,,,,,,,,,,,,,,,,,,,,,,,,,,,,,,,,,,,,,,0,2,2,3,1,,,,,,,,,,,,,,,,,,,,,,,,,,,,,,,,,,,,,,,,,,,,,,
100545,001,2022-11-20_17h47.58.299,Info_measure_main_exp,2022.2.2,Win32,59.01445854,,,,,,,,,,,,,,,,,,masks/mask_003.jpg,,,,,,,,,,,,,,,,,,,,,,,,,,,,,,,,,,,,,,,,,,,0,3,3,2,1,,,,,,,,,,,,,,,,,,,,,,,,,,,,,,,,,,,,,,,,,,,,,,
100545,001,2022-11-20_17h47.58.299,Info_measure_main_exp,2022.2.2,Win32,59.01445854,,,,,,,,,,,,,,,,,,masks/mask_005.jpg,,,,,,,,,,,,,,,,,,,,,,,,,,,,,,,,,,,,,,,,,,,0,4,4,4,1,,,,,,,,,,,,,,,,,,,,,,,,,,,,,,,,,,,,,,,,,,,,,,
100545,001,2022-11-20_17h47.58.299,Info_measure_main_exp,2022.2.2,Win32,59.01445854,,,,,,,,,,,,,,,,,,masks/mask_004.jpg,,,,,,,,,,,,,,,,,,,,,,,,,,,,,,,,,,,,,,,,,,,,,,,,0,0,0,3,1,,,,,,,,,,,,,,,,,,,,,,,,,,,,,,,,,,,,,,,,,
100545,001,2022-11-20_17h47.58.299,Info_measure_main_exp,2022.2.2,Win32,59.01445854,,,,,,,,,,,,,,,,,,masks/mask_002.jpg,,,,,,,,,,,,,,,,,,,,,,,,,,,,,,,,,,,,,,,,,,,,,,,,0,1,1,1,1,,,,,,,,,,,,,,,,,,,,,,,,,,,,,,,,,,,,,,,,,
100545,001,2022-11-20_17h47.58.299,Info_measure_main_exp,2022.2.2,Win32,59.01445854,,,,,,,,,,,,,,,,,,masks/mask_001.jpg,,,,,,,,,,,,,,,,,,,,,,,,,,,,,,,,,,,,,,,,,,,,,,,,0,2,2,0,1,,,,,,,,,,,,,,,,,,,,,,,,,,,,,,,,,,,,,,,,,
100545,001,2022-11-20_17h47.58.299,Info_measure_main_exp,2022.2.2,Win32,59.01445854,,,,,,,,,,,,,,,,,,masks/mask_005.jpg,,,,,,,,,,,,,,,,,,,,,,,,,,,,,,,,,,,,,,,,,,,,,,,,0,3,3,4,1,,,,,,,,,,,,,,,,,,,,,,,,,,,,,,,,,,,,,,,,,
100545,001,2022-11-20_17h47.58.299,Info_measure_main_exp,2022.2.2,Win32,59.01445854,,,,,,,,,,,,,,,,,,masks/mask_003.jpg,,,,,,,,,,,,,,,,,,,,,,,,,,,,,,,,,,,,,,,,,,,,,,,,0,4,4,2,1,,,,,,,,,,,,,,,,,,,,,,,,,,,,,,,,,,,,,,,,,
100545,001,2022-11-20_17h47.58.299,Info_measure_main_exp,2022.2.2,Win32,59.01445854,,,,,,,,,,,,,,,,,,,,,,,,,,,,,,2,0.8334,1,,,,,,,,,,,,0,131,5,5,2274,2142,absent_patch/patch0002274.jpg,absent_patch/patch0002142.jpg,,,,,,,,,,,,,,,,,,,,-0.092447917,-0.0234375,1,0,0,response5disk,34,-0.00390625,0.002604167,1,0,0,center_square,0,33,33,75,1,,,,,,,,,,,,,,,,,,,,,,,
100545,001,2022-11-20_17h47.58.299,Info_measure_main_exp,2022.2.2,Win32,59.01445854,,,,,,,,,,,,,,,,,,masks/mask_002.jpg,,,,,,,,,,,,,,,,,,,,,,,,,,,,,,,,,,,,,,,,,,,0,0,0,1,1,,,,,,,,,,,,,,,,,,,,,,,,,,,,,,,,,,,,,,,,,,,,,,
100545,001,2022-11-20_17h47.58.299,Info_measure_main_exp,2022.2.2,Win32,59.01445854,,,,,,,,,,,,,,,,,,masks/mask_001.jpg,,,,,,,,,,,,,,,,,,,,,,,,,,,,,,,,,,,,,,,,,,,0,1,1,0,1,,,,,,,,,,,,,,,,,,,,,,,,,,,,,,,,,,,,,,,,,,,,,,
100545,001,2022-11-20_17h47.58.299,Info_measure_main_exp,2022.2.2,Win32,59.01445854,,,,,,,,,,,,,,,,,,masks/mask_005.jpg,,,,,,,,,,,,,,,,,,,,,,,,,,,,,,,,,,,,,,,,,,,0,2,2,4,1,,,,,,,,,,,,,,,,,,,,,,,,,,,,,,,,,,,,,,,,,,,,,,
100545,001,2022-11-20_17h47.58.299,Info_measure_main_exp,2022.2.2,Win32,59.01445854,,,,,,,,,,,,,,,,,,masks/mask_004.jpg,,,,,,,,,,,,,,,,,,,,,,,,,,,,,,,,,,,,,,,,,,,0,3,3,3,1,,,,,,,,,,,,,,,,,,,,,,,,,,,,,,,,,,,,,,,,,,,,,,
100545,001,2022-11-20_17h47.58.299,Info_measure_main_exp,2022.2.2,Win32,59.01445854,,,,,,,,,,,,,,,,,,masks/mask_003.jpg,,,,,,,,,,,,,,,,,,,,,,,,,,,,,,,,,,,,,,,,,,,0,4,4,2,1,,,,,,,,,,,,,,,,,,,,,,,,,,,,,,,,,,,,,,,,,,,,,,
100545,001,2022-11-20_17h47.58.299,Info_measure_main_exp,2022.2.2,Win32,59.01445854,,,,,,,,,,,,,,,,,,masks/mask_003.jpg,,,,,,,,,,,,,,,,,,,,,,,,,,,,,,,,,,,,,,,,,,,,,,,,0,0,0,2,1,,,,,,,,,,,,,,,,,,,,,,,,,,,,,,,,,,,,,,,,,
100545,001,2022-11-20_17h47.58.299,Info_measure_main_exp,2022.2.2,Win32,59.01445854,,,,,,,,,,,,,,,,,,masks/mask_001.jpg,,,,,,,,,,,,,,,,,,,,,,,,,,,,,,,,,,,,,,,,,,,,,,,,0,1,1,0,1,,,,,,,,,,,,,,,,,,,,,,,,,,,,,,,,,,,,,,,,,
100545,001,2022-11-20_17h47.58.299,Info_measure_main_exp,2022.2.2,Win32,59.01445854,,,,,,,,,,,,,,,,,,masks/mask_004.jpg,,,,,,,,,,,,,,,,,,,,,,,,,,,,,,,,,,,,,,,,,,,,,,,,0,2,2,3,1,,,,,,,,,,,,,,,,,,,,,,,,,,,,,,,,,,,,,,,,,
100545,001,2022-11-20_17h47.58.299,Info_measure_main_exp,2022.2.2,Win32,59.01445854,,,,,,,,,,,,,,,,,,masks/mask_002.jpg,,,,,,,,,,,,,,,,,,,,,,,,,,,,,,,,,,,,,,,,,,,,,,,,0,3,3,1,1,,,,,,,,,,,,,,,,,,,,,,,,,,,,,,,,,,,,,,,,,
