participant,session,date,expName,psychopyVersion,OS,frameRate,space_press_continue.keys,space_press_continue.rt,space_press_continue_2.keys,space_press_continue_2.rt,space_press_continue_3.keys,space_press_continue_3.rt,space_press_continue_4.keys,space_press_continue_4.rt,space_press_continue_5.keys,space_press_continue_5.rt,space_press_continue_6.keys,space_press_continue_6.rt,prac_mask_loop_1.thisRepN,prac_mask_loop_1.thisTrialN,prac_mask_loop_1.thisN,prac_mask_loop_1.thisIndex,prac_mask_loop_1.ran,mask_name,prac_mask_loop_2.thisRepN,prac_mask_loop_2.thisTrialN,prac_mask_loop_2.thisN,prac_mask_loop_2.thisIndex,prac_mask_loop_2.ran,mouse_2.x,mouse_2.y,mouse_2.leftButton,mouse_2.midButton,mouse_2.rightButton,mouse_2.clicked_name,similarity,response_time,Pass,mouse_12.x,mouse_12.y,mouse_12.leftButton,mouse_12.midButton,mouse_12.rightButton,mouse_12.clicked_name,prac_loop.thisRepN,prac_loop.thisTrialN,prac_loop.thisN,prac_loop.thisIndex,prac_loop.ran,Pair_type,Image_num,Patch_1_loc,Patch_2_loc,Patch_1_info,Patch_2_info,Patch_1_name,Patch_2_name,mouse_1.x,mouse_1.y,mouse_1.leftButton,mouse_1.midButton,mouse_1.rightButton,mouse_1.time,mouse_1.clicked_name,space_press_continue_7.keys,space_press_continue_7.rt,mask_loop.thisRepN,mask_loop.thisTrialN,mask_loop.thisN,mask_loop.thisIndex,mask_loop.ran,mask_loop_2.thisRepN,mask_loop_2.thisTrialN,mask_loop_2.thisN,mask_loop_2.thisIndex,mask_loop_2.ran,mouse.x,mouse.y,mouse.leftButton,mouse.midButton,mouse.rightButton,mouse.clicked_name,trialNumber,mouse_11.x,mouse_11.y,mouse_11.leftButton,mouse_11.midButton,mouse_11.rightButton,mouse_11.clicked_name,first_pass_loop.thisRepN,first_pass_loop.thisTrialN,first_pass_loop.thisN,first_pass_loop.thisIndex,first_pass_loop.ran,mask_loop_3.thisRepN,mask_loop_3.thisTrialN,mask_loop_3.thisN,mask_loop_3.thisIndex,mask_loop_3.ran,mask_loop_4.thisRepN,mask_loop_4.thisTrialN,mask_loop_4.thisN,mask_loop_4.thisIndex,mask_loop_4.ran,mouse_3.x,mouse_3.y,mouse_3.leftButton,mouse_3.midButton,mouse_3.rightButton,mouse_3.clicked_name,double_pass_loop.thisRepN,double_pass_loop.thisTrialN,double_pass_loop.thisN,double_pass_loop.thisIndex,double_pass_loop.ran,space_exit.keys,space_exit.rt
102386,001,2022-11-21_24h48.25.629,Info_measure_main_exp,2022.2.2,Win32,60.13952369,,,,,,,,,,,,,,,,,,,,,,,,,,,,,,,,,,,,,,,,,,,,,,,,,,,,,,,,,,,,,,,,,,,,,,,,,,,,,,,,,,,,,,,,,,,,,,,,,,,,,,,,,,,,,,,
102386,001,2022-11-21_24h48.25.629,Info_measure_main_exp,2022.2.2,Win32,60.13952369,,,,,,,,,,,,,,,,,,,,,,,,,,,,,,,,,,,,,,,,,,,,,,,,,,,,,,,,,,,,,,,,,,,,,,,,,,,,,,,,,,,,,,,,,,,,,,,,,,,,,,,,,,,,,,,
102386,001,2022-11-21_24h48.25.629,Info_measure_main_exp,2022.2.2,Win32,60.13952369,space,8.9326,,,,,,,,,,,,,,,,,,,,,,,,,,,,,,,,,,,,,,,,,,,,,,,,,,,,,,,,,,,,,,,,,,,,,,,,,,,,,,,,,,,,,,,,,,,,,,,,,,,,,,,,,,,,,
102386,001,2022-11-21_24h48.25.629,Info_measure_main_exp,2022.2.2,Win32,60.13952369,,,space,1953.7562,,,,,,,,,,,,,,,,,,,,,,,,,,,,,,,,,,,,,,,,,,,,,,,,,,,,,,,,,,,,,,,,,,,,,,,,,,,,,,,,,,,,,,,,,,,,,,,,,,,,,,,,,,,
102386,001,2022-11-21_24h48.25.629,Info_measure_main_exp,2022.2.2,Win32,60.13952369,,,,,space,6.2908,,,,,,,,,,,,,,,,,,,,,,,,,,,,,,,,,,,,,,,,,,,,,,,,,,,,,,,,,,,,,,,,,,,,,,,,,,,,,,,,,,,,,,,,,,,,,,,,,,,,,,,,,
102386,001,2022-11-21_24h48.25.629,Info_measure_main_exp,2022.2.2,Win32,60.13952369,,,,,,,space,35.4732,,,,,,,,,,,,,,,,,,,,,,,,,,,,,,,,,,,,,,,,,,,,,,,,,,,,,,,,,,,,,,,,,,,,,,,,,,,,,,,,,,,,,,,,,,,,,,,,,,,,,,,
102386,001,2022-11-21_24h48.25.629,Info_measure_main_exp,2022.2.2,Win32,60.13952369,,,,,,,,,space,10.2934,,,,,,,,,,,,,,,,,,,,,,,,,,,,,,,,,,,,,,,,,,,,,,,,,,,,,,,,,,,,,,,,,,,,,,,,,,,,,,,,,,,,,,,,,,,,,,,,,,,,,
102386,001,2022-11-21_24h48.25.629,Info_measure_main_exp,2022.2.2,Win32,60.13952369,,,,,,,,,,,space,4.8165,,,,,,,,,,,,,,,,,,,,,,,,,,,,,,,,,,,,,,,,,,,,,,,,,,,,,,,,,,,,,,,,,,,,,,,,,,,,,,,,,,,,,,,,,,,,,,,,,,,
102386,001,2022-11-21_24h48.25.629,Info_measure_main_exp,2022.2.2,Win32,60.13952369,,,,,,,,,,,,,0,0,0,1,1,masks/mask_002.jpg,,,,,,,,,,,,,,,,,,,,,,,,,,,,,,,,,,,,,,,,,,,,,,,,,,,,,,,,,,,,,,,,,,,,,,,,,,,,,,,,,,,,,,,,,,,,,
102386,001,2022-11-21_24h48.25.629,Info_measure_main_exp,2022.2.2,Win32,60.13952369,,,,,,,,,,,,,0,1,1,0,1,masks/mask_001.jpg,,,,,,,,,,,,,,,,,,,,,,,,,,,,,,,,,,,,,,,,,,,,,,,,,,,,,,,,,,,,,,,,,,,,,,,,,,,,,,,,,,,,,,,,,,,,,
102386,001,2022-11-21_24h48.25.629,Info_measure_main_exp,2022.2.2,Win32,60.13952369,,,,,,,,,,,,,0,2,2,2,1,masks/mask_003.jpg,,,,,,,,,,,,,,,,,,,,,,,,,,,,,,,,,,,,,,,,,,,,,,,,,,,,,,,,,,,,,,,,,,,,,,,,,,,,,,,,,,,,,,,,,,,,,
102386,001,2022-11-21_24h48.25.629,Info_measure_main_exp,2022.2.2,Win32,60.13952369,,,,,,,,,,,,,0,3,3,3,1,masks/mask_004.jpg,,,,,,,,,,,,,,,,,,,,,,,,,,,,,,,,,,,,,,,,,,,,,,,,,,,,,,,,,,,,,,,,,,,,,,,,,,,,,,,,,,,,,,,,,,,,,
102386,001,2022-11-21_24h48.25.629,Info_measure_main_exp,2022.2.2,Win32,60.13952369,,,,,,,,,,,,,0,4,4,4,1,masks/mask_005.jpg,,,,,,,,,,,,,,,,,,,,,,,,,,,,,,,,,,,,,,,,,,,,,,,,,,,,,,,,,,,,,,,,,,,,,,,,,,,,,,,,,,,,,,,,,,,,,
102386,001,2022-11-21_24h48.25.629,Info_measure_main_exp,2022.2.2,Win32,60.13952369,,,,,,,,,,,,,,,,,,masks/mask_001.jpg,0,0,0,0,1,,,,,,,,,,,,,,,,,,,,,,,,,,,,,,,,,,,,,,,,,,,,,,,,,,,,,,,,,,,,,,,,,,,,,,,,,,,,,,,,,,,,,,,,
102386,001,2022-11-21_24h48.25.629,Info_measure_main_exp,2022.2.2,Win32,60.13952369,,,,,,,,,,,,,,,,,,masks/mask_004.jpg,0,1,1,3,1,,,,,,,,,,,,,,,,,,,,,,,,,,,,,,,,,,,,,,,,,,,,,,,,,,,,,,,,,,,,,,,,,,,,,,,,,,,,,,,,,,,,,,,,
102386,001,2022-11-21_24h48.25.629,Info_measure_main_exp,2022.2.2,Win32,60.13952369,,,,,,,,,,,,,,,,,,masks/mask_003.jpg,0,2,2,2,1,,,,,,,,,,,,,,,,,,,,,,,,,,,,,,,,,,,,,,,,,,,,,,,,,,,,,,,,,,,,,,,,,,,,,,,,,,,,,,,,,,,,,,,,
102386,001,2022-11-21_24h48.25.629,Info_measure_main_exp,2022.2.2,Win32,60.13952369,,,,,,,,,,,,,,,,,,masks/mask_005.jpg,0,3,3,4,1,,,,,,,,,,,,,,,,,,,,,,,,,,,,,,,,,,,,,,,,,,,,,,,,,,,,,,,,,,,,,,,,,,,,,,,,,,,,,,,,,,,,,,,,
102386,001,2022-11-21_24h48.25.629,Info_measure_main_exp,2022.2.2,Win32,60.13952369,,,,,,,,,,,,,,,,,,masks/mask_002.jpg,0,4,4,1,1,,,,,,,,,,,,,,,,,,,,,,,,,,,,,,,,,,,,,,,,,,,,,,,,,,,,,,,,,,,,,,,,,,,,,,,,,,,,,,,,,,,,,,,,
102386,001,2022-11-21_24h48.25.629,Info_measure_main_exp,2022.2.2,Win32,60.13952369,,,,,,,,,,,,,,,,,,,,,,,,0.04350131,-0.107161828,1,0,0,response3disk,4,2023.5955,1,-0.001060992,-0.003183056,1,0,0,center_square,0,0,0,2,1,0,131,5,5,2526,2526,prac_patch/patch0002526.jpg,prac_patch/patch0002526.jpg,,,,,,,,,,,,,,,,,,,,,,,,,,,,,,,,,,,,,,,,,,,,,,,,,,,,,,,,,,,,
102386,001,2022-11-21_24h48.25.629,Info_measure_main_exp,2022.2.2,Win32,60.13952369,,,,,,,,,,,,,0,0,0,2,1,masks/mask_003.jpg,,,,,,,,,,,,,,,,,,,,,,,,,,,,,,,,,,,,,,,,,,,,,,,,,,,,,,,,,,,,,,,,,,,,,,,,,,,,,,,,,,,,,,,,,,,,,
102386,001,2022-11-21_24h48.25.629,Info_measure_main_exp,2022.2.2,Win32,60.13952369,,,,,,,,,,,,,0,1,1,1,1,masks/mask_002.jpg,,,,,,,,,,,,,,,,,,,,,,,,,,,,,,,,,,,,,,,,,,,,,,,,,,,,,,,,,,,,,,,,,,,,,,,,,,,,,,,,,,,,,,,,,,,,,
102386,001,2022-11-21_24h48.25.629,Info_measure_main_exp,2022.2.2,Win32,60.13952369,,,,,,,,,,,,,0,2,2,3,1,masks/mask_004.jpg,,,,,,,,,,,,,,,,,,,,,,,,,,,,,,,,,,,,,,,,,,,,,,,,,,,,,,,,,,,,,,,,,,,,,,,,,,,,,,,,,,,,,,,,,,,,,
102386,001,2022-11-21_24h48.25.629,Info_measure_main_exp,2022.2.2,Win32,60.13952369,,,,,,,,,,,,,0,3,3,0,1,masks/mask_001.jpg,,,,,,,,,,,,,,,,,,,,,,,,,,,,,,,,,,,,,,,,,,,,,,,,,,,,,,,,,,,,,,,,,,,,,,,,,,,,,,,,,,,,,,,,,,,,,
102386,001,2022-11-21_24h48.25.629,Info_measure_main_exp,2022.2.2,Win32,60.13952369,,,,,,,,,,,,,0,4,4,4,1,masks/mask_005.jpg,,,,,,,,,,,,,,,,,,,,,,,,,,,,,,,,,,,,,,,,,,,,,,,,,,,,,,,,,,,,,,,,,,,,,,,,,,,,,,,,,,,,,,,,,,,,,
102386,001,2022-11-21_24h48.25.629,Info_measure_main_exp,2022.2.2,Win32,60.13952369,,,,,,,,,,,,,,,,,,masks/mask_001.jpg,0,0,0,0,1,,,,,,,,,,,,,,,,,,,,,,,,,,,,,,,,,,,,,,,,,,,,,,,,,,,,,,,,,,,,,,,,,,,,,,,,,,,,,,,,,,,,,,,,
102386,001,2022-11-21_24h48.25.629,Info_measure_main_exp,2022.2.2,Win32,60.13952369,,,,,,,,,,,,,,,,,,masks/mask_004.jpg,0,1,1,3,1,,,,,,,,,,,,,,,,,,,,,,,,,,,,,,,,,,,,,,,,,,,,,,,,,,,,,,,,,,,,,,,,,,,,,,,,,,,,,,,,,,,,,,,,
102386,001,2022-11-21_24h48.25.629,Info_measure_main_exp,2022.2.2,Win32,60.13952369,,,,,,,,,,,,,,,,,,masks/mask_003.jpg,0,2,2,2,1,,,,,,,,,,,,,,,,,,,,,,,,,,,,,,,,,,,,,,,,,,,,,,,,,,,,,,,,,,,,,,,,,,,,,,,,,,,,,,,,,,,,,,,,
102386,001,2022-11-21_24h48.25.629,Info_measure_main_exp,2022.2.2,Win32,60.13952369,,,,,,,,,,,,,,,,,,masks/mask_002.jpg,0,3,3,1,1,,,,,,,,,,,,,,,,,,,,,,,,,,,,,,,,,,,,,,,,,,,,,,,,,,,,,,,,,,,,,,,,,,,,,,,,,,,,,,,,,,,,,,,,
102386,001,2022-11-21_24h48.25.629,Info_measure_main_exp,2022.2.2,Win32,60.13952369,,,,,,,,,,,,,,,,,,masks/mask_005.jpg,0,4,4,4,1,,,,,,,,,,,,,,,,,,,,,,,,,,,,,,,,,,,,,,,,,,,,,,,,,,,,,,,,,,,,,,,,,,,,,,,,,,,,,,,,,,,,,,,,
102386,001,2022-11-21_24h48.25.629,Info_measure_main_exp,2022.2.2,Win32,60.13952369,,,,,,,,,,,,,,,,,,,,,,,,-0.022281151,-0.10822282,1,0,0,response5disk,3,2035.4971,1,-0.001060992,-0.003183056,1,0,0,center_square,0,1,1,1,1,0,131,5,5,2514,2490,prac_patch/patch0002514.jpg,prac_patch/patch0002490.jpg,,,,,,,,,,,,,,,,,,,,,,,,,,,,,,,,,,,,,,,,,,,,,,,,,,,,,,,,,,,,
102386,001,2022-11-21_24h48.25.629,Info_measure_main_exp,2022.2.2,Win32,60.13952369,,,,,,,,,,,,,0,0,0,4,1,masks/mask_005.jpg,,,,,,,,,,,,,,,,,,,,,,,,,,,,,,,,,,,,,,,,,,,,,,,,,,,,,,,,,,,,,,,,,,,,,,,,,,,,,,,,,,,,,,,,,,,,,
102386,001,2022-11-21_24h48.25.629,Info_measure_main_exp,2022.2.2,Win32,60.13952369,,,,,,,,,,,,,0,1,1,2,1,masks/mask_003.jpg,,,,,,,,,,,,,,,,,,,,,,,,,,,,,,,,,,,,,,,,,,,,,,,,,,,,,,,,,,,,,,,,,,,,,,,,,,,,,,,,,,,,,,,,,,,,,
102386,001,2022-11-21_24h48.25.629,Info_measure_main_exp,2022.2.2,Win32,60.13952369,,,,,,,,,,,,,0,2,2,3,1,masks/mask_004.jpg,,,,,,,,,,,,,,,,,,,,,,,,,,,,,,,,,,,,,,,,,,,,,,,,,,,,,,,,,,,,,,,,,,,,,,,,,,,,,,,,,,,,,,,,,,,,,
102386,001,2022-11-21_24h48.25.629,Info_measure_main_exp,2022.2.2,Win32,60.13952369,,,,,,,,,,,,,0,3,3,0,1,masks/mask_001.jpg,,,,,,,,,,,,,,,,,,,,,,,,,,,,,,,,,,,,,,,,,,,,,,,,,,,,,,,,,,,,,,,,,,,,,,,,,,,,,,,,,,,,,,,,,,,,,
102386,001,2022-11-21_24h48.25.629,Info_measure_main_exp,2022.2.2,Win32,60.13952369,,,,,,,,,,,,,0,4,4,1,1,masks/mask_002.jpg,,,,,,,,,,,,,,,,,,,,,,,,,,,,,,,,,,,,,,,,,,,,,,,,,,,,,,,,,,,,,,,,,,,,,,,,,,,,,,,,,,,,,,,,,,,,,
102386,001,2022-11-21_24h48.25.629,Info_measure_main_exp,2022.2.2,Win32,60.13952369,,,,,,,,,,,,,,,,,,masks/mask_002.jpg,0,0,0,1,1,,,,,,,,,,,,,,,,,,,,,,,,,,,,,,,,,,,,,,,,,,,,,,,,,,,,,,,,,,,,,,,,,,,,,,,,,,,,,,,,,,,,,,,,
102386,001,2022-11-21_24h48.25.629,Info_measure_main_exp,2022.2.2,Win32,60.13952369,,,,,,,,,,,,,,,,,,masks/mask_001.jpg,0,1,1,0,1,,,,,,,,,,,,,,,,,,,,,,,,,,,,,,,,,,,,,,,,,,,,,,,,,,,,,,,,,,,,,,,,,,,,,,,,,,,,,,,,,,,,,,,,
102386,001,2022-11-21_24h48.25.629,Info_measure_main_exp,2022.2.2,Win32,60.13952369,,,,,,,,,,,,,,,,,,masks/mask_004.jpg,0,2,2,3,1,,,,,,,,,,,,,,,,,,,,,,,,,,,,,,,,,,,,,,,,,,,,,,,,,,,,,,,,,,,,,,,,,,,,,,,,,,,,,,,,,,,,,,,,
102386,001,2022-11-21_24h48.25.629,Info_measure_main_exp,2022.2.2,Win32,60.13952369,,,,,,,,,,,,,,,,,,masks/mask_005.jpg,0,3,3,4,1,,,,,,,,,,,,,,,,,,,,,,,,,,,,,,,,,,,,,,,,,,,,,,,,,,,,,,,,,,,,,,,,,,,,,,,,,,,,,,,,,,,,,,,,
102386,001,2022-11-21_24h48.25.629,Info_measure_main_exp,2022.2.2,Win32,60.13952369,,,,,,,,,,,,,,,,,,masks/mask_003.jpg,0,4,4,2,1,,,,,,,,,,,,,,,,,,,,,,,,,,,,,,,,,,,,,,,,,,,,,,,,,,,,,,,,,,,,,,,,,,,,,,,,,,,,,,,,,,,,,,,,
102386,001,2022-11-21_24h48.25.629,Info_measure_main_exp,2022.2.2,Win32,60.13952369,,,,,,,,,,,,,,,,,,,,,,,,0.15702921,0.040318294,1,0,0,response1disk,6,2044.1164,1,0.001060992,-0.009549088,1,0,0,center_square,0,2,2,0,1,0,131,5,5,2370,2406,prac_patch/patch0002370.jpg,prac_patch/patch0002406.jpg,,,,,,,,,,,,,,,,,,,,,,,,,,,,,,,,,,,,,,,,,,,,,,,,,,,,,,,,,,,,
102386,001,2022-11-21_24h48.25.629,Info_measure_main_exp,2022.2.2,Win32,60.13952369,,,,,,,,,,,,,,,,,,,,,,,,,,,,,,,,,,,,,,,,,,,,,,,,,,,,,,,,,,,space,2.7573,,,,,,,,,,,,,,,,,,,,,,,,,,,,,,,,,,,,,,,,,,,,,,,,,,,
102386,001,2022-11-21_24h48.25.629,Info_measure_main_exp,2022.2.2,Win32,60.13952369,,,,,,,,,,,,,,,,,,masks/mask_004.jpg,,,,,,,,,,,,,,,,,,,,,,,,,,,,,,,,,,,,,,,,,,,0,0,0,3,1,,,,,,,,,,,,,,,,,,,,,,,,,,,,,,,,,,,,,,,,,,,,,,
102386,001,2022-11-21_24h48.25.629,Info_measure_main_exp,2022.2.2,Win32,60.13952369,,,,,,,,,,,,,,,,,,masks/mask_001.jpg,,,,,,,,,,,,,,,,,,,,,,,,,,,,,,,,,,,,,,,,,,,0,1,1,0,1,,,,,,,,,,,,,,,,,,,,,,,,,,,,,,,,,,,,,,,,,,,,,,
102386,001,2022-11-21_24h48.25.629,Info_measure_main_exp,2022.2.2,Win32,60.13952369,,,,,,,,,,,,,,,,,,masks/mask_005.jpg,,,,,,,,,,,,,,,,,,,,,,,,,,,,,,,,,,,,,,,,,,,0,2,2,4,1,,,,,,,,,,,,,,,,,,,,,,,,,,,,,,,,,,,,,,,,,,,,,,
102386,001,2022-11-21_24h48.25.629,Info_measure_main_exp,2022.2.2,Win32,60.13952369,,,,,,,,,,,,,,,,,,masks/mask_003.jpg,,,,,,,,,,,,,,,,,,,,,,,,,,,,,,,,,,,,,,,,,,,0,3,3,2,1,,,,,,,,,,,,,,,,,,,,,,,,,,,,,,,,,,,,,,,,,,,,,,
102386,001,2022-11-21_24h48.25.629,Info_measure_main_exp,2022.2.2,Win32,60.13952369,,,,,,,,,,,,,,,,,,masks/mask_002.jpg,,,,,,,,,,,,,,,,,,,,,,,,,,,,,,,,,,,,,,,,,,,0,4,4,1,1,,,,,,,,,,,,,,,,,,,,,,,,,,,,,,,,,,,,,,,,,,,,,,
102386,001,2022-11-21_24h48.25.629,Info_measure_main_exp,2022.2.2,Win32,60.13952369,,,,,,,,,,,,,,,,,,masks/mask_003.jpg,,,,,,,,,,,,,,,,,,,,,,,,,,,,,,,,,,,,,,,,,,,,,,,,0,0,0,2,1,,,,,,,,,,,,,,,,,,,,,,,,,,,,,,,,,,,,,,,,,
102386,001,2022-11-21_24h48.25.629,Info_measure_main_exp,2022.2.2,Win32,60.13952369,,,,,,,,,,,,,,,,,,masks/mask_005.jpg,,,,,,,,,,,,,,,,,,,,,,,,,,,,,,,,,,,,,,,,,,,,,,,,0,1,1,4,1,,,,,,,,,,,,,,,,,,,,,,,,,,,,,,,,,,,,,,,,,
102386,001,2022-11-21_24h48.25.629,Info_measure_main_exp,2022.2.2,Win32,60.13952369,,,,,,,,,,,,,,,,,,masks/mask_004.jpg,,,,,,,,,,,,,,,,,,,,,,,,,,,,,,,,,,,,,,,,,,,,,,,,0,2,2,3,1,,,,,,,,,,,,,,,,,,,,,,,,,,,,,,,,,,,,,,,,,
102386,001,2022-11-21_24h48.25.629,Info_measure_main_exp,2022.2.2,Win32,60.13952369,,,,,,,,,,,,,,,,,,masks/mask_002.jpg,,,,,,,,,,,,,,,,,,,,,,,,,,,,,,,,,,,,,,,,,,,,,,,,0,3,3,1,1,,,,,,,,,,,,,,,,,,,,,,,,,,,,,,,,,,,,,,,,,
102386,001,2022-11-21_24h48.25.629,Info_measure_main_exp,2022.2.2,Win32,60.13952369,,,,,,,,,,,,,,,,,,masks/mask_001.jpg,,,,,,,,,,,,,,,,,,,,,,,,,,,,,,,,,,,,,,,,,,,,,,,,0,4,4,0,1,,,,,,,,,,,,,,,,,,,,,,,,,,,,,,,,,,,,,,,,,
102386,001,2022-11-21_24h48.25.629,Info_measure_main_exp,2022.2.2,Win32,60.13952369,,,,,,,,,,,,,,,,,,,,,,,,,,,,,,5,2.9305,1,,,,,,,,,,,,1,131,5,5,2238,1,absent_patch/patch0002238.jpg,present_patch/cong_131_5_a.jpg,,,,,,,,,,,,,,,,,,,,0.126259963,-0.055172422,1,0,0,response3disk,1,-0.012732063,-0.003183056,1,0,0,center_square,0,0,0,104,1,,,,,,,,,,,,,,,,,,,,,,,
102386,001,2022-11-21_24h48.25.629,Info_measure_main_exp,2022.2.2,Win32,60.13952369,,,,,,,,,,,,,,,,,,masks/mask_002.jpg,,,,,,,,,,,,,,,,,,,,,,,,,,,,,,,,,,,,,,,,,,,0,0,0,1,1,,,,,,,,,,,,,,,,,,,,,,,,,,,,,,,,,,,,,,,,,,,,,,
102386,001,2022-11-21_24h48.25.629,Info_measure_main_exp,2022.2.2,Win32,60.13952369,,,,,,,,,,,,,,,,,,masks/mask_004.jpg,,,,,,,,,,,,,,,,,,,,,,,,,,,,,,,,,,,,,,,,,,,0,1,1,3,1,,,,,,,,,,,,,,,,,,,,,,,,,,,,,,,,,,,,,,,,,,,,,,
102386,001,2022-11-21_24h48.25.629,Info_measure_main_exp,2022.2.2,Win32,60.13952369,,,,,,,,,,,,,,,,,,masks/mask_003.jpg,,,,,,,,,,,,,,,,,,,,,,,,,,,,,,,,,,,,,,,,,,,0,2,2,2,1,,,,,,,,,,,,,,,,,,,,,,,,,,,,,,,,,,,,,,,,,,,,,,
102386,001,2022-11-21_24h48.25.629,Info_measure_main_exp,2022.2.2,Win32,60.13952369,,,,,,,,,,,,,,,,,,masks/mask_001.jpg,,,,,,,,,,,,,,,,,,,,,,,,,,,,,,,,,,,,,,,,,,,0,3,3,0,1,,,,,,,,,,,,,,,,,,,,,,,,,,,,,,,,,,,,,,,,,,,,,,
102386,001,2022-11-21_24h48.25.629,Info_measure_main_exp,2022.2.2,Win32,60.13952369,,,,,,,,,,,,,,,,,,masks/mask_005.jpg,,,,,,,,,,,,,,,,,,,,,,,,,,,,,,,,,,,,,,,,,,,0,4,4,4,1,,,,,,,,,,,,,,,,,,,,,,,,,,,,,,,,,,,,,,,,,,,,,,
102386,001,2022-11-21_24h48.25.629,Info_measure_main_exp,2022.2.2,Win32,60.13952369,,,,,,,,,,,,,,,,,,masks/mask_002.jpg,,,,,,,,,,,,,,,,,,,,,,,,,,,,,,,,,,,,,,,,,,,,,,,,0,0,0,1,1,,,,,,,,,,,,,,,,,,,,,,,,,,,,,,,,,,,,,,,,,
102386,001,2022-11-21_24h48.25.629,Info_measure_main_exp,2022.2.2,Win32,60.13952369,,,,,,,,,,,,,,,,,,masks/mask_005.jpg,,,,,,,,,,,,,,,,,,,,,,,,,,,,,,,,,,,,,,,,,,,,,,,,0,1,1,4,1,,,,,,,,,,,,,,,,,,,,,,,,,,,,,,,,,,,,,,,,,
102386,001,2022-11-21_24h48.25.629,Info_measure_main_exp,2022.2.2,Win32,60.13952369,,,,,,,,,,,,,,,,,,masks/mask_003.jpg,,,,,,,,,,,,,,,,,,,,,,,,,,,,,,,,,,,,,,,,,,,,,,,,0,2,2,2,1,,,,,,,,,,,,,,,,,,,,,,,,,,,,,,,,,,,,,,,,,
102386,001,2022-11-21_24h48.25.629,Info_measure_main_exp,2022.2.2,Win32,60.13952369,,,,,,,,,,,,,,,,,,masks/mask_001.jpg,,,,,,,,,,,,,,,,,,,,,,,,,,,,,,,,,,,,,,,,,,,,,,,,0,3,3,0,1,,,,,,,,,,,,,,,,,,,,,,,,,,,,,,,,,,,,,,,,,
102386,001,2022-11-21_24h48.25.629,Info_measure_main_exp,2022.2.2,Win32,60.13952369,,,,,,,,,,,,,,,,,,masks/mask_004.jpg,,,,,,,,,,,,,,,,,,,,,,,,,,,,,,,,,,,,,,,,,,,,,,,,0,4,4,3,1,,,,,,,,,,,,,,,,,,,,,,,,,,,,,,,,,,,,,,,,,
102386,001,2022-11-21_24h48.25.629,Info_measure_main_exp,2022.2.2,Win32,60.13952369,,,,,,,,,,,,,,,,,,,,,,,,,,,,,,7,1.1162,1,,,,,,,,,,,,0,131,5,5,2154,2190,absent_patch/patch0002154.jpg,absent_patch/patch0002190.jpg,,,,,,,,,,,,,,,,,,,,0.025464207,0.08169758,1,0,0,response1disk,2,0.00530504,0.004244008,1,0,0,center_square,0,1,1,68,1,,,,,,,,,,,,,,,,,,,,,,,
102386,001,2022-11-21_24h48.25.629,Info_measure_main_exp,2022.2.2,Win32,60.13952369,,,,,,,,,,,,,,,,,,masks/mask_004.jpg,,,,,,,,,,,,,,,,,,,,,,,,,,,,,,,,,,,,,,,,,,,0,0,0,3,1,,,,,,,,,,,,,,,,,,,,,,,,,,,,,,,,,,,,,,,,,,,,,,
102386,001,2022-11-21_24h48.25.629,Info_measure_main_exp,2022.2.2,Win32,60.13952369,,,,,,,,,,,,,,,,,,masks/mask_005.jpg,,,,,,,,,,,,,,,,,,,,,,,,,,,,,,,,,,,,,,,,,,,0,1,1,4,1,,,,,,,,,,,,,,,,,,,,,,,,,,,,,,,,,,,,,,,,,,,,,,
102386,001,2022-11-21_24h48.25.629,Info_measure_main_exp,2022.2.2,Win32,60.13952369,,,,,,,,,,,,,,,,,,masks/mask_001.jpg,,,,,,,,,,,,,,,,,,,,,,,,,,,,,,,,,,,,,,,,,,,0,2,2,0,1,,,,,,,,,,,,,,,,,,,,,,,,,,,,,,,,,,,,,,,,,,,,,,
102386,001,2022-11-21_24h48.25.629,Info_measure_main_exp,2022.2.2,Win32,60.13952369,,,,,,,,,,,,,,,,,,masks/mask_003.jpg,,,,,,,,,,,,,,,,,,,,,,,,,,,,,,,,,,,,,,,,,,,0,3,3,2,1,,,,,,,,,,,,,,,,,,,,,,,,,,,,,,,,,,,,,,,,,,,,,,
102386,001,2022-11-21_24h48.25.629,Info_measure_main_exp,2022.2.2,Win32,60.13952369,,,,,,,,,,,,,,,,,,masks/mask_002.jpg,,,,,,,,,,,,,,,,,,,,,,,,,,,,,,,,,,,,,,,,,,,0,4,4,1,1,,,,,,,,,,,,,,,,,,,,,,,,,,,,,,,,,,,,,,,,,,,,,,
102386,001,2022-11-21_24h48.25.629,Info_measure_main_exp,2022.2.2,Win32,60.13952369,,,,,,,,,,,,,,,,,,masks/mask_003.jpg,,,,,,,,,,,,,,,,,,,,,,,,,,,,,,,,,,,,,,,,,,,,,,,,0,0,0,2,1,,,,,,,,,,,,,,,,,,,,,,,,,,,,,,,,,,,,,,,,,
102386,001,2022-11-21_24h48.25.629,Info_measure_main_exp,2022.2.2,Win32,60.13952369,,,,,,,,,,,,,,,,,,masks/mask_001.jpg,,,,,,,,,,,,,,,,,,,,,,,,,,,,,,,,,,,,,,,,,,,,,,,,0,1,1,0,1,,,,,,,,,,,,,,,,,,,,,,,,,,,,,,,,,,,,,,,,,
102386,001,2022-11-21_24h48.25.629,Info_measure_main_exp,2022.2.2,Win32,60.13952369,,,,,,,,,,,,,,,,,,masks/mask_002.jpg,,,,,,,,,,,,,,,,,,,,,,,,,,,,,,,,,,,,,,,,,,,,,,,,0,2,2,1,1,,,,,,,,,,,,,,,,,,,,,,,,,,,,,,,,,,,,,,,,,
102386,001,2022-11-21_24h48.25.629,Info_measure_main_exp,2022.2.2,Win32,60.13952369,,,,,,,,,,,,,,,,,,masks/mask_004.jpg,,,,,,,,,,,,,,,,,,,,,,,,,,,,,,,,,,,,,,,,,,,,,,,,0,3,3,3,1,,,,,,,,,,,,,,,,,,,,,,,,,,,,,,,,,,,,,,,,,
102386,001,2022-11-21_24h48.25.629,Info_measure_main_exp,2022.2.2,Win32,60.13952369,,,,,,,,,,,,,,,,,,masks/mask_005.jpg,,,,,,,,,,,,,,,,,,,,,,,,,,,,,,,,,,,,,,,,,,,,,,,,0,4,4,4,1,,,,,,,,,,,,,,,,,,,,,,,,,,,,,,,,,,,,,,,,,
102386,001,2022-11-21_24h48.25.629,Info_measure_main_exp,2022.2.2,Win32,60.13952369,,,,,,,,,,,,,,,,,,,,,,,,,,,,,,5,1.8645,1,,,,,,,,,,,,0,131,5,5,2274,2250,absent_patch/patch0002274.jpg,absent_patch/patch0002250.jpg,,,,,,,,,,,,,,,,,,,,0.153846154,-0.033952263,1,0,0,response3disk,3,0.003183056,-0.003183056,1,0,0,center_square,0,2,2,28,1,,,,,,,,,,,,,,,,,,,,,,,
102386,001,2022-11-21_24h48.25.629,Info_measure_main_exp,2022.2.2,Win32,60.13952369,,,,,,,,,,,,,,,,,,masks/mask_001.jpg,,,,,,,,,,,,,,,,,,,,,,,,,,,,,,,,,,,,,,,,,,,0,0,0,0,1,,,,,,,,,,,,,,,,,,,,,,,,,,,,,,,,,,,,,,,,,,,,,,
102386,001,2022-11-21_24h48.25.629,Info_measure_main_exp,2022.2.2,Win32,60.13952369,,,,,,,,,,,,,,,,,,masks/mask_003.jpg,,,,,,,,,,,,,,,,,,,,,,,,,,,,,,,,,,,,,,,,,,,0,1,1,2,1,,,,,,,,,,,,,,,,,,,,,,,,,,,,,,,,,,,,,,,,,,,,,,
102386,001,2022-11-21_24h48.25.629,Info_measure_main_exp,2022.2.2,Win32,60.13952369,,,,,,,,,,,,,,,,,,masks/mask_004.jpg,,,,,,,,,,,,,,,,,,,,,,,,,,,,,,,,,,,,,,,,,,,0,2,2,3,1,,,,,,,,,,,,,,,,,,,,,,,,,,,,,,,,,,,,,,,,,,,,,,
102386,001,2022-11-21_24h48.25.629,Info_measure_main_exp,2022.2.2,Win32,60.13952369,,,,,,,,,,,,,,,,,,masks/mask_002.jpg,,,,,,,,,,,,,,,,,,,,,,,,,,,,,,,,,,,,,,,,,,,0,3,3,1,1,,,,,,,,,,,,,,,,,,,,,,,,,,,,,,,,,,,,,,,,,,,,,,
102386,001,2022-11-21_24h48.25.629,Info_measure_main_exp,2022.2.2,Win32,60.13952369,,,,,,,,,,,,,,,,,,masks/mask_005.jpg,,,,,,,,,,,,,,,,,,,,,,,,,,,,,,,,,,,,,,,,,,,0,4,4,4,1,,,,,,,,,,,,,,,,,,,,,,,,,,,,,,,,,,,,,,,,,,,,,,
102386,001,2022-11-21_24h48.25.629,Info_measure_main_exp,2022.2.2,Win32,60.13952369,,,,,,,,,,,,,,,,,,masks/mask_001.jpg,,,,,,,,,,,,,,,,,,,,,,,,,,,,,,,,,,,,,,,,,,,,,,,,0,0,0,0,1,,,,,,,,,,,,,,,,,,,,,,,,,,,,,,,,,,,,,,,,,
102386,001,2022-11-21_24h48.25.629,Info_measure_main_exp,2022.2.2,Win32,60.13952369,,,,,,,,,,,,,,,,,,masks/mask_004.jpg,,,,,,,,,,,,,,,,,,,,,,,,,,,,,,,,,,,,,,,,,,,,,,,,0,1,1,3,1,,,,,,,,,,,,,,,,,,,,,,,,,,,,,,,,,,,,,,,,,
102386,001,2022-11-21_24h48.25.629,Info_measure_main_exp,2022.2.2,Win32,60.13952369,,,,,,,,,,,,,,,,,,masks/mask_002.jpg,,,,,,,,,,,,,,,,,,,,,,,,,,,,,,,,,,,,,,,,,,,,,,,,0,2,2,1,1,,,,,,,,,,,,,,,,,,,,,,,,,,,,,,,,,,,,,,,,,
102386,001,2022-11-21_24h48.25.629,Info_measure_main_exp,2022.2.2,Win32,60.13952369,,,,,,,,,,,,,,,,,,masks/mask_003.jpg,,,,,,,,,,,,,,,,,,,,,,,,,,,,,,,,,,,,,,,,,,,,,,,,0,3,3,2,1,,,,,,,,,,,,,,,,,,,,,,,,,,,,,,,,,,,,,,,,,
102386,001,2022-11-21_24h48.25.629,Info_measure_main_exp,2022.2.2,Win32,60.13952369,,,,,,,,,,,,,,,,,,masks/mask_005.jpg,,,,,,,,,,,,,,,,,,,,,,,,,,,,,,,,,,,,,,,,,,,,,,,,0,4,4,4,1,,,,,,,,,,,,,,,,,,,,,,,,,,,,,,,,,,,,,,,,,
102386,001,2022-11-21_24h48.25.629,Info_measure_main_exp,2022.2.2,Win32,60.13952369,,,,,,,,,,,,,,,,,,,,,,,,,,,,,,7,0.9499,1,,,,,,,,,,,,1,131,5,5,1,2214,present_patch/cong_131_5_a.jpg,absent_patch/patch0002214.jpg,,,,,,,,,,,,,,,,,,,,0.056233454,0.091246668,1,0,0,response1disk,4,-0.01061008,0,1,0,0,center_square,0,3,3,4,1,,,,,,,,,,,,,,,,,,,,,,,
102386,001,2022-11-21_24h48.25.629,Info_measure_main_exp,2022.2.2,Win32,60.13952369,,,,,,,,,,,,,,,,,,masks/mask_003.jpg,,,,,,,,,,,,,,,,,,,,,,,,,,,,,,,,,,,,,,,,,,,0,0,0,2,1,,,,,,,,,,,,,,,,,,,,,,,,,,,,,,,,,,,,,,,,,,,,,,
102386,001,2022-11-21_24h48.25.629,Info_measure_main_exp,2022.2.2,Win32,60.13952369,,,,,,,,,,,,,,,,,,masks/mask_001.jpg,,,,,,,,,,,,,,,,,,,,,,,,,,,,,,,,,,,,,,,,,,,0,1,1,0,1,,,,,,,,,,,,,,,,,,,,,,,,,,,,,,,,,,,,,,,,,,,,,,
102386,001,2022-11-21_24h48.25.629,Info_measure_main_exp,2022.2.2,Win32,60.13952369,,,,,,,,,,,,,,,,,,masks/mask_002.jpg,,,,,,,,,,,,,,,,,,,,,,,,,,,,,,,,,,,,,,,,,,,0,2,2,1,1,,,,,,,,,,,,,,,,,,,,,,,,,,,,,,,,,,,,,,,,,,,,,,
102386,001,2022-11-21_24h48.25.629,Info_measure_main_exp,2022.2.2,Win32,60.13952369,,,,,,,,,,,,,,,,,,masks/mask_004.jpg,,,,,,,,,,,,,,,,,,,,,,,,,,,,,,,,,,,,,,,,,,,0,3,3,3,1,,,,,,,,,,,,,,,,,,,,,,,,,,,,,,,,,,,,,,,,,,,,,,
102386,001,2022-11-21_24h48.25.629,Info_measure_main_exp,2022.2.2,Win32,60.13952369,,,,,,,,,,,,,,,,,,masks/mask_005.jpg,,,,,,,,,,,,,,,,,,,,,,,,,,,,,,,,,,,,,,,,,,,0,4,4,4,1,,,,,,,,,,,,,,,,,,,,,,,,,,,,,,,,,,,,,,,,,,,,,,
102386,001,2022-11-21_24h48.25.629,Info_measure_main_exp,2022.2.2,Win32,60.13952369,,,,,,,,,,,,,,,,,,masks/mask_003.jpg,,,,,,,,,,,,,,,,,,,,,,,,,,,,,,,,,,,,,,,,,,,,,,,,0,0,0,2,1,,,,,,,,,,,,,,,,,,,,,,,,,,,,,,,,,,,,,,,,,
102386,001,2022-11-21_24h48.25.629,Info_measure_main_exp,2022.2.2,Win32,60.13952369,,,,,,,,,,,,,,,,,,masks/mask_001.jpg,,,,,,,,,,,,,,,,,,,,,,,,,,,,,,,,,,,,,,,,,,,,,,,,0,1,1,0,1,,,,,,,,,,,,,,,,,,,,,,,,,,,,,,,,,,,,,,,,,
102386,001,2022-11-21_24h48.25.629,Info_measure_main_exp,2022.2.2,Win32,60.13952369,,,,,,,,,,,,,,,,,,masks/mask_005.jpg,,,,,,,,,,,,,,,,,,,,,,,,,,,,,,,,,,,,,,,,,,,,,,,,0,2,2,4,1,,,,,,,,,,,,,,,,,,,,,,,,,,,,,,,,,,,,,,,,,
102386,001,2022-11-21_24h48.25.629,Info_measure_main_exp,2022.2.2,Win32,60.13952369,,,,,,,,,,,,,,,,,,masks/mask_002.jpg,,,,,,,,,,,,,,,,,,,,,,,,,,,,,,,,,,,,,,,,,,,,,,,,0,3,3,1,1,,,,,,,,,,,,,,,,,,,,,,,,,,,,,,,,,,,,,,,,,
102386,001,2022-11-21_24h48.25.629,Info_measure_main_exp,2022.2.2,Win32,60.13952369,,,,,,,,,,,,,,,,,,masks/mask_004.jpg,,,,,,,,,,,,,,,,,,,,,,,,,,,,,,,,,,,,,,,,,,,,,,,,0,4,4,3,1,,,,,,,,,,,,,,,,,,,,,,,,,,,,,,,,,,,,,,,,,
102386,001,2022-11-21_24h48.25.629,Info_measure_main_exp,2022.2.2,Win32,60.13952369,,,,,,,,,,,,,,,,,,,,,,,,,,,,,,1,1.3652,1,,,,,,,,,,,,1,131,5,5,1,1986,present_patch/cong_131_5_a.jpg,absent_patch/patch0001986.jpg,,,,,,,,,,,,,,,,,,,,-0.093368652,0.042440318,1,0,0,response7disk,5,0.002122064,-0.009549088,1,0,0,center_square,0,4,4,106,1,,,,,,,,,,,,,,,,,,,,,,,
102386,001,2022-11-21_24h48.25.629,Info_measure_main_exp,2022.2.2,Win32,60.13952369,,,,,,,,,,,,,,,,,,masks/mask_004.jpg,,,,,,,,,,,,,,,,,,,,,,,,,,,,,,,,,,,,,,,,,,,0,0,0,3,1,,,,,,,,,,,,,,,,,,,,,,,,,,,,,,,,,,,,,,,,,,,,,,
102386,001,2022-11-21_24h48.25.629,Info_measure_main_exp,2022.2.2,Win32,60.13952369,,,,,,,,,,,,,,,,,,masks/mask_005.jpg,,,,,,,,,,,,,,,,,,,,,,,,,,,,,,,,,,,,,,,,,,,0,1,1,4,1,,,,,,,,,,,,,,,,,,,,,,,,,,,,,,,,,,,,,,,,,,,,,,
102386,001,2022-11-21_24h48.25.629,Info_measure_main_exp,2022.2.2,Win32,60.13952369,,,,,,,,,,,,,,,,,,masks/mask_001.jpg,,,,,,,,,,,,,,,,,,,,,,,,,,,,,,,,,,,,,,,,,,,0,2,2,0,1,,,,,,,,,,,,,,,,,,,,,,,,,,,,,,,,,,,,,,,,,,,,,,
102386,001,2022-11-21_24h48.25.629,Info_measure_main_exp,2022.2.2,Win32,60.13952369,,,,,,,,,,,,,,,,,,masks/mask_003.jpg,,,,,,,,,,,,,,,,,,,,,,,,,,,,,,,,,,,,,,,,,,,0,3,3,2,1,,,,,,,,,,,,,,,,,,,,,,,,,,,,,,,,,,,,,,,,,,,,,,
102386,001,2022-11-21_24h48.25.629,Info_measure_main_exp,2022.2.2,Win32,60.13952369,,,,,,,,,,,,,,,,,,masks/mask_002.jpg,,,,,,,,,,,,,,,,,,,,,,,,,,,,,,,,,,,,,,,,,,,0,4,4,1,1,,,,,,,,,,,,,,,,,,,,,,,,,,,,,,,,,,,,,,,,,,,,,,
102386,001,2022-11-21_24h48.25.629,Info_measure_main_exp,2022.2.2,Win32,60.13952369,,,,,,,,,,,,,,,,,,masks/mask_004.jpg,,,,,,,,,,,,,,,,,,,,,,,,,,,,,,,,,,,,,,,,,,,,,,,,0,0,0,3,1,,,,,,,,,,,,,,,,,,,,,,,,,,,,,,,,,,,,,,,,,
102386,001,2022-11-21_24h48.25.629,Info_measure_main_exp,2022.2.2,Win32,60.13952369,,,,,,,,,,,,,,,,,,masks/mask_001.jpg,,,,,,,,,,,,,,,,,,,,,,,,,,,,,,,,,,,,,,,,,,,,,,,,0,1,1,0,1,,,,,,,,,,,,,,,,,,,,,,,,,,,,,,,,,,,,,,,,,
102386,001,2022-11-21_24h48.25.629,Info_measure_main_exp,2022.2.2,Win32,60.13952369,,,,,,,,,,,,,,,,,,masks/mask_002.jpg,,,,,,,,,,,,,,,,,,,,,,,,,,,,,,,,,,,,,,,,,,,,,,,,0,2,2,1,1,,,,,,,,,,,,,,,,,,,,,,,,,,,,,,,,,,,,,,,,,
102386,001,2022-11-21_24h48.25.629,Info_measure_main_exp,2022.2.2,Win32,60.13952369,,,,,,,,,,,,,,,,,,masks/mask_005.jpg,,,,,,,,,,,,,,,,,,,,,,,,,,,,,,,,,,,,,,,,,,,,,,,,0,3,3,4,1,,,,,,,,,,,,,,,,,,,,,,,,,,,,,,,,,,,,,,,,,
102386,001,2022-11-21_24h48.25.629,Info_measure_main_exp,2022.2.2,Win32,60.13952369,,,,,,,,,,,,,,,,,,masks/mask_003.jpg,,,,,,,,,,,,,,,,,,,,,,,,,,,,,,,,,,,,,,,,,,,,,,,,0,4,4,2,1,,,,,,,,,,,,,,,,,,,,,,,,,,,,,,,,,,,,,,,,,
102386,001,2022-11-21_24h48.25.629,Info_measure_main_exp,2022.2.2,Win32,60.13952369,,,,,,,,,,,,,,,,,,,,,,,,,,,,,,4,1.3009,1,,,,,,,,,,,,0,131,5,5,2214,2166,absent_patch/patch0002214.jpg,absent_patch/patch0002166.jpg,,,,,,,,,,,,,,,,,,,,0.031830239,-0.074270557,1,0,0,response3disk,6,-0.008488015,0.006366032,1,0,0,center_square,0,5,5,109,1,,,,,,,,,,,,,,,,,,,,,,,
102386,001,2022-11-21_24h48.25.629,Info_measure_main_exp,2022.2.2,Win32,60.13952369,,,,,,,,,,,,,,,,,,masks/mask_004.jpg,,,,,,,,,,,,,,,,,,,,,,,,,,,,,,,,,,,,,,,,,,,0,0,0,3,1,,,,,,,,,,,,,,,,,,,,,,,,,,,,,,,,,,,,,,,,,,,,,,
102386,001,2022-11-21_24h48.25.629,Info_measure_main_exp,2022.2.2,Win32,60.13952369,,,,,,,,,,,,,,,,,,masks/mask_005.jpg,,,,,,,,,,,,,,,,,,,,,,,,,,,,,,,,,,,,,,,,,,,0,1,1,4,1,,,,,,,,,,,,,,,,,,,,,,,,,,,,,,,,,,,,,,,,,,,,,,
102386,001,2022-11-21_24h48.25.629,Info_measure_main_exp,2022.2.2,Win32,60.13952369,,,,,,,,,,,,,,,,,,masks/mask_001.jpg,,,,,,,,,,,,,,,,,,,,,,,,,,,,,,,,,,,,,,,,,,,0,2,2,0,1,,,,,,,,,,,,,,,,,,,,,,,,,,,,,,,,,,,,,,,,,,,,,,
102386,001,2022-11-21_24h48.25.629,Info_measure_main_exp,2022.2.2,Win32,60.13952369,,,,,,,,,,,,,,,,,,masks/mask_002.jpg,,,,,,,,,,,,,,,,,,,,,,,,,,,,,,,,,,,,,,,,,,,0,3,3,1,1,,,,,,,,,,,,,,,,,,,,,,,,,,,,,,,,,,,,,,,,,,,,,,
102386,001,2022-11-21_24h48.25.629,Info_measure_main_exp,2022.2.2,Win32,60.13952369,,,,,,,,,,,,,,,,,,masks/mask_003.jpg,,,,,,,,,,,,,,,,,,,,,,,,,,,,,,,,,,,,,,,,,,,0,4,4,2,1,,,,,,,,,,,,,,,,,,,,,,,,,,,,,,,,,,,,,,,,,,,,,,
102386,001,2022-11-21_24h48.25.629,Info_measure_main_exp,2022.2.2,Win32,60.13952369,,,,,,,,,,,,,,,,,,masks/mask_003.jpg,,,,,,,,,,,,,,,,,,,,,,,,,,,,,,,,,,,,,,,,,,,,,,,,0,0,0,2,1,,,,,,,,,,,,,,,,,,,,,,,,,,,,,,,,,,,,,,,,,
102386,001,2022-11-21_24h48.25.629,Info_measure_main_exp,2022.2.2,Win32,60.13952369,,,,,,,,,,,,,,,,,,masks/mask_002.jpg,,,,,,,,,,,,,,,,,,,,,,,,,,,,,,,,,,,,,,,,,,,,,,,,0,1,1,1,1,,,,,,,,,,,,,,,,,,,,,,,,,,,,,,,,,,,,,,,,,
102386,001,2022-11-21_24h48.25.629,Info_measure_main_exp,2022.2.2,Win32,60.13952369,,,,,,,,,,,,,,,,,,masks/mask_005.jpg,,,,,,,,,,,,,,,,,,,,,,,,,,,,,,,,,,,,,,,,,,,,,,,,0,2,2,4,1,,,,,,,,,,,,,,,,,,,,,,,,,,,,,,,,,,,,,,,,,
102386,001,2022-11-21_24h48.25.629,Info_measure_main_exp,2022.2.2,Win32,60.13952369,,,,,,,,,,,,,,,,,,masks/mask_001.jpg,,,,,,,,,,,,,,,,,,,,,,,,,,,,,,,,,,,,,,,,,,,,,,,,0,3,3,0,1,,,,,,,,,,,,,,,,,,,,,,,,,,,,,,,,,,,,,,,,,
102386,001,2022-11-21_24h48.25.629,Info_measure_main_exp,2022.2.2,Win32,60.13952369,,,,,,,,,,,,,,,,,,masks/mask_004.jpg,,,,,,,,,,,,,,,,,,,,,,,,,,,,,,,,,,,,,,,,,,,,,,,,0,4,4,3,1,,,,,,,,,,,,,,,,,,,,,,,,,,,,,,,,,,,,,,,,,
102386,001,2022-11-21_24h48.25.629,Info_measure_main_exp,2022.2.2,Win32,60.13952369,,,,,,,,,,,,,,,,,,,,,,,,,,,,,,3,1.9139,1,,,,,,,,,,,,0,131,5,5,2082,2250,absent_patch/patch0002082.jpg,absent_patch/patch0002250.jpg,,,,,,,,,,,,,,,,,,,,-0.026525199,-0.060477462,1,0,0,response5disk,7,0.004244048,-0.001061032,1,0,0,center_square,0,6,6,3,1,,,,,,,,,,,,,,,,,,,,,,,
102386,001,2022-11-21_24h48.25.629,Info_measure_main_exp,2022.2.2,Win32,60.13952369,,,,,,,,,,,,,,,,,,masks/mask_005.jpg,,,,,,,,,,,,,,,,,,,,,,,,,,,,,,,,,,,,,,,,,,,0,0,0,4,1,,,,,,,,,,,,,,,,,,,,,,,,,,,,,,,,,,,,,,,,,,,,,,
102386,001,2022-11-21_24h48.25.629,Info_measure_main_exp,2022.2.2,Win32,60.13952369,,,,,,,,,,,,,,,,,,masks/mask_002.jpg,,,,,,,,,,,,,,,,,,,,,,,,,,,,,,,,,,,,,,,,,,,0,1,1,1,1,,,,,,,,,,,,,,,,,,,,,,,,,,,,,,,,,,,,,,,,,,,,,,
102386,001,2022-11-21_24h48.25.629,Info_measure_main_exp,2022.2.2,Win32,60.13952369,,,,,,,,,,,,,,,,,,masks/mask_004.jpg,,,,,,,,,,,,,,,,,,,,,,,,,,,,,,,,,,,,,,,,,,,0,2,2,3,1,,,,,,,,,,,,,,,,,,,,,,,,,,,,,,,,,,,,,,,,,,,,,,
102386,001,2022-11-21_24h48.25.629,Info_measure_main_exp,2022.2.2,Win32,60.13952369,,,,,,,,,,,,,,,,,,masks/mask_003.jpg,,,,,,,,,,,,,,,,,,,,,,,,,,,,,,,,,,,,,,,,,,,0,3,3,2,1,,,,,,,,,,,,,,,,,,,,,,,,,,,,,,,,,,,,,,,,,,,,,,
102386,001,2022-11-21_24h48.25.629,Info_measure_main_exp,2022.2.2,Win32,60.13952369,,,,,,,,,,,,,,,,,,masks/mask_001.jpg,,,,,,,,,,,,,,,,,,,,,,,,,,,,,,,,,,,,,,,,,,,0,4,4,0,1,,,,,,,,,,,,,,,,,,,,,,,,,,,,,,,,,,,,,,,,,,,,,,
102386,001,2022-11-21_24h48.25.629,Info_measure_main_exp,2022.2.2,Win32,60.13952369,,,,,,,,,,,,,,,,,,masks/mask_003.jpg,,,,,,,,,,,,,,,,,,,,,,,,,,,,,,,,,,,,,,,,,,,,,,,,0,0,0,2,1,,,,,,,,,,,,,,,,,,,,,,,,,,,,,,,,,,,,,,,,,
102386,001,2022-11-21_24h48.25.629,Info_measure_main_exp,2022.2.2,Win32,60.13952369,,,,,,,,,,,,,,,,,,masks/mask_001.jpg,,,,,,,,,,,,,,,,,,,,,,,,,,,,,,,,,,,,,,,,,,,,,,,,0,1,1,0,1,,,,,,,,,,,,,,,,,,,,,,,,,,,,,,,,,,,,,,,,,
102386,001,2022-11-21_24h48.25.629,Info_measure_main_exp,2022.2.2,Win32,60.13952369,,,,,,,,,,,,,,,,,,masks/mask_004.jpg,,,,,,,,,,,,,,,,,,,,,,,,,,,,,,,,,,,,,,,,,,,,,,,,0,2,2,3,1,,,,,,,,,,,,,,,,,,,,,,,,,,,,,,,,,,,,,,,,,
102386,001,2022-11-21_24h48.25.629,Info_measure_main_exp,2022.2.2,Win32,60.13952369,,,,,,,,,,,,,,,,,,masks/mask_002.jpg,,,,,,,,,,,,,,,,,,,,,,,,,,,,,,,,,,,,,,,,,,,,,,,,0,3,3,1,1,,,,,,,,,,,,,,,,,,,,,,,,,,,,,,,,,,,,,,,,,
102386,001,2022-11-21_24h48.25.629,Info_measure_main_exp,2022.2.2,Win32,60.13952369,,,,,,,,,,,,,,,,,,masks/mask_005.jpg,,,,,,,,,,,,,,,,,,,,,,,,,,,,,,,,,,,,,,,,,,,,,,,,0,4,4,4,1,,,,,,,,,,,,,,,,,,,,,,,,,,,,,,,,,,,,,,,,,
102386,001,2022-11-21_24h48.25.629,Info_measure_main_exp,2022.2.2,Win32,60.13952369,,,,,,,,,,,,,,,,,,,,,,,,,,,,,,2,2.6178,1,,,,,,,,,,,,0,131,5,5,2298,2190,absent_patch/patch0002298.jpg,absent_patch/patch0002190.jpg,,,,,,,,,,,,,,,,,,,,-0.105039804,-0.022281191,1,0,0,response5disk,8,-0.00530504,0.001060992,1,0,0,center_square,0,7,7,20,1,,,,,,,,,,,,,,,,,,,,,,,
102386,001,2022-11-21_24h48.25.629,Info_measure_main_exp,2022.2.2,Win32,60.13952369,,,,,,,,,,,,,,,,,,masks/mask_005.jpg,,,,,,,,,,,,,,,,,,,,,,,,,,,,,,,,,,,,,,,,,,,0,0,0,4,1,,,,,,,,,,,,,,,,,,,,,,,,,,,,,,,,,,,,,,,,,,,,,,
102386,001,2022-11-21_24h48.25.629,Info_measure_main_exp,2022.2.2,Win32,60.13952369,,,,,,,,,,,,,,,,,,masks/mask_002.jpg,,,,,,,,,,,,,,,,,,,,,,,,,,,,,,,,,,,,,,,,,,,0,1,1,1,1,,,,,,,,,,,,,,,,,,,,,,,,,,,,,,,,,,,,,,,,,,,,,,
102386,001,2022-11-21_24h48.25.629,Info_measure_main_exp,2022.2.2,Win32,60.13952369,,,,,,,,,,,,,,,,,,masks/mask_003.jpg,,,,,,,,,,,,,,,,,,,,,,,,,,,,,,,,,,,,,,,,,,,0,2,2,2,1,,,,,,,,,,,,,,,,,,,,,,,,,,,,,,,,,,,,,,,,,,,,,,
102386,001,2022-11-21_24h48.25.629,Info_measure_main_exp,2022.2.2,Win32,60.13952369,,,,,,,,,,,,,,,,,,masks/mask_001.jpg,,,,,,,,,,,,,,,,,,,,,,,,,,,,,,,,,,,,,,,,,,,0,3,3,0,1,,,,,,,,,,,,,,,,,,,,,,,,,,,,,,,,,,,,,,,,,,,,,,
102386,001,2022-11-21_24h48.25.629,Info_measure_main_exp,2022.2.2,Win32,60.13952369,,,,,,,,,,,,,,,,,,masks/mask_004.jpg,,,,,,,,,,,,,,,,,,,,,,,,,,,,,,,,,,,,,,,,,,,0,4,4,3,1,,,,,,,,,,,,,,,,,,,,,,,,,,,,,,,,,,,,,,,,,,,,,,
102386,001,2022-11-21_24h48.25.629,Info_measure_main_exp,2022.2.2,Win32,60.13952369,,,,,,,,,,,,,,,,,,masks/mask_001.jpg,,,,,,,,,,,,,,,,,,,,,,,,,,,,,,,,,,,,,,,,,,,,,,,,0,0,0,0,1,,,,,,,,,,,,,,,,,,,,,,,,,,,,,,,,,,,,,,,,,
102386,001,2022-11-21_24h48.25.629,Info_measure_main_exp,2022.2.2,Win32,60.13952369,,,,,,,,,,,,,,,,,,masks/mask_005.jpg,,,,,,,,,,,,,,,,,,,,,,,,,,,,,,,,,,,,,,,,,,,,,,,,0,1,1,4,1,,,,,,,,,,,,,,,,,,,,,,,,,,,,,,,,,,,,,,,,,
102386,001,2022-11-21_24h48.25.629,Info_measure_main_exp,2022.2.2,Win32,60.13952369,,,,,,,,,,,,,,,,,,masks/mask_003.jpg,,,,,,,,,,,,,,,,,,,,,,,,,,,,,,,,,,,,,,,,,,,,,,,,0,2,2,2,1,,,,,,,,,,,,,,,,,,,,,,,,,,,,,,,,,,,,,,,,,
102386,001,2022-11-21_24h48.25.629,Info_measure_main_exp,2022.2.2,Win32,60.13952369,,,,,,,,,,,,,,,,,,masks/mask_002.jpg,,,,,,,,,,,,,,,,,,,,,,,,,,,,,,,,,,,,,,,,,,,,,,,,0,3,3,1,1,,,,,,,,,,,,,,,,,,,,,,,,,,,,,,,,,,,,,,,,,
102386,001,2022-11-21_24h48.25.629,Info_measure_main_exp,2022.2.2,Win32,60.13952369,,,,,,,,,,,,,,,,,,masks/mask_004.jpg,,,,,,,,,,,,,,,,,,,,,,,,,,,,,,,,,,,,,,,,,,,,,,,,0,4,4,3,1,,,,,,,,,,,,,,,,,,,,,,,,,,,,,,,,,,,,,,,,,
102386,001,2022-11-21_24h48.25.629,Info_measure_main_exp,2022.2.2,Win32,60.13952369,,,,,,,,,,,,,,,,,,,,,,,,,,,,,,1,2.6564,1,,,,,,,,,,,,1,131,5,5,1,2142,present_patch/cong_131_5_a.jpg,absent_patch/patch0002142.jpg,,,,,,,,,,,,,,,,,,,,-0.00530504,0.001060992,1,0,0,response7disk,9,-0.004244048,0,1,0,0,center_square,0,8,8,80,1,,,,,,,,,,,,,,,,,,,,,,,
102386,001,2022-11-21_24h48.25.629,Info_measure_main_exp,2022.2.2,Win32,60.13952369,,,,,,,,,,,,,,,,,,masks/mask_001.jpg,,,,,,,,,,,,,,,,,,,,,,,,,,,,,,,,,,,,,,,,,,,0,0,0,0,1,,,,,,,,,,,,,,,,,,,,,,,,,,,,,,,,,,,,,,,,,,,,,,
102386,001,2022-11-21_24h48.25.629,Info_measure_main_exp,2022.2.2,Win32,60.13952369,,,,,,,,,,,,,,,,,,masks/mask_003.jpg,,,,,,,,,,,,,,,,,,,,,,,,,,,,,,,,,,,,,,,,,,,0,1,1,2,1,,,,,,,,,,,,,,,,,,,,,,,,,,,,,,,,,,,,,,,,,,,,,,
102386,001,2022-11-21_24h48.25.629,Info_measure_main_exp,2022.2.2,Win32,60.13952369,,,,,,,,,,,,,,,,,,masks/mask_005.jpg,,,,,,,,,,,,,,,,,,,,,,,,,,,,,,,,,,,,,,,,,,,0,2,2,4,1,,,,,,,,,,,,,,,,,,,,,,,,,,,,,,,,,,,,,,,,,,,,,,
102386,001,2022-11-21_24h48.25.629,Info_measure_main_exp,2022.2.2,Win32,60.13952369,,,,,,,,,,,,,,,,,,masks/mask_004.jpg,,,,,,,,,,,,,,,,,,,,,,,,,,,,,,,,,,,,,,,,,,,0,3,3,3,1,,,,,,,,,,,,,,,,,,,,,,,,,,,,,,,,,,,,,,,,,,,,,,
102386,001,2022-11-21_24h48.25.629,Info_measure_main_exp,2022.2.2,Win32,60.13952369,,,,,,,,,,,,,,,,,,masks/mask_002.jpg,,,,,,,,,,,,,,,,,,,,,,,,,,,,,,,,,,,,,,,,,,,0,4,4,1,1,,,,,,,,,,,,,,,,,,,,,,,,,,,,,,,,,,,,,,,,,,,,,,
102386,001,2022-11-21_24h48.25.629,Info_measure_main_exp,2022.2.2,Win32,60.13952369,,,,,,,,,,,,,,,,,,masks/mask_004.jpg,,,,,,,,,,,,,,,,,,,,,,,,,,,,,,,,,,,,,,,,,,,,,,,,0,0,0,3,1,,,,,,,,,,,,,,,,,,,,,,,,,,,,,,,,,,,,,,,,,
102386,001,2022-11-21_24h48.25.629,Info_measure_main_exp,2022.2.2,Win32,60.13952369,,,,,,,,,,,,,,,,,,masks/mask_001.jpg,,,,,,,,,,,,,,,,,,,,,,,,,,,,,,,,,,,,,,,,,,,,,,,,0,1,1,0,1,,,,,,,,,,,,,,,,,,,,,,,,,,,,,,,,,,,,,,,,,
102386,001,2022-11-21_24h48.25.629,Info_measure_main_exp,2022.2.2,Win32,60.13952369,,,,,,,,,,,,,,,,,,masks/mask_003.jpg,,,,,,,,,,,,,,,,,,,,,,,,,,,,,,,,,,,,,,,,,,,,,,,,0,2,2,2,1,,,,,,,,,,,,,,,,,,,,,,,,,,,,,,,,,,,,,,,,,
102386,001,2022-11-21_24h48.25.629,Info_measure_main_exp,2022.2.2,Win32,60.13952369,,,,,,,,,,,,,,,,,,masks/mask_005.jpg,,,,,,,,,,,,,,,,,,,,,,,,,,,,,,,,,,,,,,,,,,,,,,,,0,3,3,4,1,,,,,,,,,,,,,,,,,,,,,,,,,,,,,,,,,,,,,,,,,
102386,001,2022-11-21_24h48.25.629,Info_measure_main_exp,2022.2.2,Win32,60.13952369,,,,,,,,,,,,,,,,,,masks/mask_002.jpg,,,,,,,,,,,,,,,,,,,,,,,,,,,,,,,,,,,,,,,,,,,,,,,,0,4,4,1,1,,,,,,,,,,,,,,,,,,,,,,,,,,,,,,,,,,,,,,,,,
102386,001,2022-11-21_24h48.25.629,Info_measure_main_exp,2022.2.2,Win32,60.13952369,,,,,,,,,,,,,,,,,,,,,,,,,,,,,,7,0.9258,1,,,,,,,,,,,,0,131,5,5,2274,1950,absent_patch/patch0002274.jpg,absent_patch/patch0001950.jpg,,,,,,,,,,,,,,,,,,,,0.076392622,0.079575597,1,0,0,response1disk,10,0.006366032,0.007427023,1,0,0,center_square,0,9,9,10,1,,,,,,,,,,,,,,,,,,,,,,,
102386,001,2022-11-21_24h48.25.629,Info_measure_main_exp,2022.2.2,Win32,60.13952369,,,,,,,,,,,,,,,,,,masks/mask_005.jpg,,,,,,,,,,,,,,,,,,,,,,,,,,,,,,,,,,,,,,,,,,,0,0,0,4,1,,,,,,,,,,,,,,,,,,,,,,,,,,,,,,,,,,,,,,,,,,,,,,
102386,001,2022-11-21_24h48.25.629,Info_measure_main_exp,2022.2.2,Win32,60.13952369,,,,,,,,,,,,,,,,,,masks/mask_004.jpg,,,,,,,,,,,,,,,,,,,,,,,,,,,,,,,,,,,,,,,,,,,0,1,1,3,1,,,,,,,,,,,,,,,,,,,,,,,,,,,,,,,,,,,,,,,,,,,,,,
102386,001,2022-11-21_24h48.25.629,Info_measure_main_exp,2022.2.2,Win32,60.13952369,,,,,,,,,,,,,,,,,,masks/mask_002.jpg,,,,,,,,,,,,,,,,,,,,,,,,,,,,,,,,,,,,,,,,,,,0,2,2,1,1,,,,,,,,,,,,,,,,,,,,,,,,,,,,,,,,,,,,,,,,,,,,,,
102386,001,2022-11-21_24h48.25.629,Info_measure_main_exp,2022.2.2,Win32,60.13952369,,,,,,,,,,,,,,,,,,masks/mask_003.jpg,,,,,,,,,,,,,,,,,,,,,,,,,,,,,,,,,,,,,,,,,,,0,3,3,2,1,,,,,,,,,,,,,,,,,,,,,,,,,,,,,,,,,,,,,,,,,,,,,,
102386,001,2022-11-21_24h48.25.629,Info_measure_main_exp,2022.2.2,Win32,60.13952369,,,,,,,,,,,,,,,,,,masks/mask_001.jpg,,,,,,,,,,,,,,,,,,,,,,,,,,,,,,,,,,,,,,,,,,,0,4,4,0,1,,,,,,,,,,,,,,,,,,,,,,,,,,,,,,,,,,,,,,,,,,,,,,
102386,001,2022-11-21_24h48.25.629,Info_measure_main_exp,2022.2.2,Win32,60.13952369,,,,,,,,,,,,,,,,,,masks/mask_002.jpg,,,,,,,,,,,,,,,,,,,,,,,,,,,,,,,,,,,,,,,,,,,,,,,,0,0,0,1,1,,,,,,,,,,,,,,,,,,,,,,,,,,,,,,,,,,,,,,,,,
102386,001,2022-11-21_24h48.25.629,Info_measure_main_exp,2022.2.2,Win32,60.13952369,,,,,,,,,,,,,,,,,,masks/mask_003.jpg,,,,,,,,,,,,,,,,,,,,,,,,,,,,,,,,,,,,,,,,,,,,,,,,0,1,1,2,1,,,,,,,,,,,,,,,,,,,,,,,,,,,,,,,,,,,,,,,,,
102386,001,2022-11-21_24h48.25.629,Info_measure_main_exp,2022.2.2,Win32,60.13952369,,,,,,,,,,,,,,,,,,masks/mask_004.jpg,,,,,,,,,,,,,,,,,,,,,,,,,,,,,,,,,,,,,,,,,,,,,,,,0,2,2,3,1,,,,,,,,,,,,,,,,,,,,,,,,,,,,,,,,,,,,,,,,,
102386,001,2022-11-21_24h48.25.629,Info_measure_main_exp,2022.2.2,Win32,60.13952369,,,,,,,,,,,,,,,,,,masks/mask_001.jpg,,,,,,,,,,,,,,,,,,,,,,,,,,,,,,,,,,,,,,,,,,,,,,,,0,3,3,0,1,,,,,,,,,,,,,,,,,,,,,,,,,,,,,,,,,,,,,,,,,
102386,001,2022-11-21_24h48.25.629,Info_measure_main_exp,2022.2.2,Win32,60.13952369,,,,,,,,,,,,,,,,,,masks/mask_005.jpg,,,,,,,,,,,,,,,,,,,,,,,,,,,,,,,,,,,,,,,,,,,,,,,,0,4,4,4,1,,,,,,,,,,,,,,,,,,,,,,,,,,,,,,,,,,,,,,,,,
102386,001,2022-11-21_24h48.25.629,Info_measure_main_exp,2022.2.2,Win32,60.13952369,,,,,,,,,,,,,,,,,,,,,,,,,,,,,,2,0.6382,1,,,,,,,,,,,,0,131,5,5,1974,2142,absent_patch/patch0001974.jpg,absent_patch/patch0002142.jpg,,,,,,,,,,,,,,,,,,,,-0.073209565,-0.019098176,1,0,0,response5disk,11,-0.003182975,0,1,0,0,center_square,0,10,10,38,1,,,,,,,,,,,,,,,,,,,,,,,
102386,001,2022-11-21_24h48.25.629,Info_measure_main_exp,2022.2.2,Win32,60.13952369,,,,,,,,,,,,,,,,,,masks/mask_002.jpg,,,,,,,,,,,,,,,,,,,,,,,,,,,,,,,,,,,,,,,,,,,0,0,0,1,1,,,,,,,,,,,,,,,,,,,,,,,,,,,,,,,,,,,,,,,,,,,,,,
102386,001,2022-11-21_24h48.25.629,Info_measure_main_exp,2022.2.2,Win32,60.13952369,,,,,,,,,,,,,,,,,,masks/mask_004.jpg,,,,,,,,,,,,,,,,,,,,,,,,,,,,,,,,,,,,,,,,,,,0,1,1,3,1,,,,,,,,,,,,,,,,,,,,,,,,,,,,,,,,,,,,,,,,,,,,,,
102386,001,2022-11-21_24h48.25.629,Info_measure_main_exp,2022.2.2,Win32,60.13952369,,,,,,,,,,,,,,,,,,masks/mask_001.jpg,,,,,,,,,,,,,,,,,,,,,,,,,,,,,,,,,,,,,,,,,,,0,2,2,0,1,,,,,,,,,,,,,,,,,,,,,,,,,,,,,,,,,,,,,,,,,,,,,,
102386,001,2022-11-21_24h48.25.629,Info_measure_main_exp,2022.2.2,Win32,60.13952369,,,,,,,,,,,,,,,,,,masks/mask_005.jpg,,,,,,,,,,,,,,,,,,,,,,,,,,,,,,,,,,,,,,,,,,,0,3,3,4,1,,,,,,,,,,,,,,,,,,,,,,,,,,,,,,,,,,,,,,,,,,,,,,
102386,001,2022-11-21_24h48.25.629,Info_measure_main_exp,2022.2.2,Win32,60.13952369,,,,,,,,,,,,,,,,,,masks/mask_003.jpg,,,,,,,,,,,,,,,,,,,,,,,,,,,,,,,,,,,,,,,,,,,0,4,4,2,1,,,,,,,,,,,,,,,,,,,,,,,,,,,,,,,,,,,,,,,,,,,,,,
102386,001,2022-11-21_24h48.25.629,Info_measure_main_exp,2022.2.2,Win32,60.13952369,,,,,,,,,,,,,,,,,,masks/mask_005.jpg,,,,,,,,,,,,,,,,,,,,,,,,,,,,,,,,,,,,,,,,,,,,,,,,0,0,0,4,1,,,,,,,,,,,,,,,,,,,,,,,,,,,,,,,,,,,,,,,,,
102386,001,2022-11-21_24h48.25.629,Info_measure_main_exp,2022.2.2,Win32,60.13952369,,,,,,,,,,,,,,,,,,masks/mask_004.jpg,,,,,,,,,,,,,,,,,,,,,,,,,,,,,,,,,,,,,,,,,,,,,,,,0,1,1,3,1,,,,,,,,,,,,,,,,,,,,,,,,,,,,,,,,,,,,,,,,,
102386,001,2022-11-21_24h48.25.629,Info_measure_main_exp,2022.2.2,Win32,60.13952369,,,,,,,,,,,,,,,,,,masks/mask_002.jpg,,,,,,,,,,,,,,,,,,,,,,,,,,,,,,,,,,,,,,,,,,,,,,,,0,2,2,1,1,,,,,,,,,,,,,,,,,,,,,,,,,,,,,,,,,,,,,,,,,
102386,001,2022-11-21_24h48.25.629,Info_measure_main_exp,2022.2.2,Win32,60.13952369,,,,,,,,,,,,,,,,,,masks/mask_003.jpg,,,,,,,,,,,,,,,,,,,,,,,,,,,,,,,,,,,,,,,,,,,,,,,,0,3,3,2,1,,,,,,,,,,,,,,,,,,,,,,,,,,,,,,,,,,,,,,,,,
102386,001,2022-11-21_24h48.25.629,Info_measure_main_exp,2022.2.2,Win32,60.13952369,,,,,,,,,,,,,,,,,,masks/mask_001.jpg,,,,,,,,,,,,,,,,,,,,,,,,,,,,,,,,,,,,,,,,,,,,,,,,0,4,4,0,1,,,,,,,,,,,,,,,,,,,,,,,,,,,,,,,,,,,,,,,,,
102386,001,2022-11-21_24h48.25.629,Info_measure_main_exp,2022.2.2,Win32,60.13952369,,,,,,,,,,,,,,,,,,,,,,,,,,,,,,1,0.8659,1,,,,,,,,,,,,0,131,5,5,1974,1974,absent_patch/patch0001974.jpg,absent_patch/patch0001974.jpg,,,,,,,,,,,,,,,,,,,,-0.072148493,0.016976111,1,0,0,response7disk,12,-0.002121984,0,1,0,0,center_square,0,11,11,113,1,,,,,,,,,,,,,,,,,,,,,,,
102386,001,2022-11-21_24h48.25.629,Info_measure_main_exp,2022.2.2,Win32,60.13952369,,,,,,,,,,,,,,,,,,masks/mask_003.jpg,,,,,,,,,,,,,,,,,,,,,,,,,,,,,,,,,,,,,,,,,,,0,0,0,2,1,,,,,,,,,,,,,,,,,,,,,,,,,,,,,,,,,,,,,,,,,,,,,,
102386,001,2022-11-21_24h48.25.629,Info_measure_main_exp,2022.2.2,Win32,60.13952369,,,,,,,,,,,,,,,,,,masks/mask_004.jpg,,,,,,,,,,,,,,,,,,,,,,,,,,,,,,,,,,,,,,,,,,,0,1,1,3,1,,,,,,,,,,,,,,,,,,,,,,,,,,,,,,,,,,,,,,,,,,,,,,
102386,001,2022-11-21_24h48.25.629,Info_measure_main_exp,2022.2.2,Win32,60.13952369,,,,,,,,,,,,,,,,,,masks/mask_001.jpg,,,,,,,,,,,,,,,,,,,,,,,,,,,,,,,,,,,,,,,,,,,0,2,2,0,1,,,,,,,,,,,,,,,,,,,,,,,,,,,,,,,,,,,,,,,,,,,,,,
102386,001,2022-11-21_24h48.25.629,Info_measure_main_exp,2022.2.2,Win32,60.13952369,,,,,,,,,,,,,,,,,,masks/mask_005.jpg,,,,,,,,,,,,,,,,,,,,,,,,,,,,,,,,,,,,,,,,,,,0,3,3,4,1,,,,,,,,,,,,,,,,,,,,,,,,,,,,,,,,,,,,,,,,,,,,,,
102386,001,2022-11-21_24h48.25.629,Info_measure_main_exp,2022.2.2,Win32,60.13952369,,,,,,,,,,,,,,,,,,masks/mask_002.jpg,,,,,,,,,,,,,,,,,,,,,,,,,,,,,,,,,,,,,,,,,,,0,4,4,1,1,,,,,,,,,,,,,,,,,,,,,,,,,,,,,,,,,,,,,,,,,,,,,,
102386,001,2022-11-21_24h48.25.629,Info_measure_main_exp,2022.2.2,Win32,60.13952369,,,,,,,,,,,,,,,,,,masks/mask_003.jpg,,,,,,,,,,,,,,,,,,,,,,,,,,,,,,,,,,,,,,,,,,,,,,,,0,0,0,2,1,,,,,,,,,,,,,,,,,,,,,,,,,,,,,,,,,,,,,,,,,
102386,001,2022-11-21_24h48.25.629,Info_measure_main_exp,2022.2.2,Win32,60.13952369,,,,,,,,,,,,,,,,,,masks/mask_002.jpg,,,,,,,,,,,,,,,,,,,,,,,,,,,,,,,,,,,,,,,,,,,,,,,,0,1,1,1,1,,,,,,,,,,,,,,,,,,,,,,,,,,,,,,,,,,,,,,,,,
102386,001,2022-11-21_24h48.25.629,Info_measure_main_exp,2022.2.2,Win32,60.13952369,,,,,,,,,,,,,,,,,,masks/mask_005.jpg,,,,,,,,,,,,,,,,,,,,,,,,,,,,,,,,,,,,,,,,,,,,,,,,0,2,2,4,1,,,,,,,,,,,,,,,,,,,,,,,,,,,,,,,,,,,,,,,,,
102386,001,2022-11-21_24h48.25.629,Info_measure_main_exp,2022.2.2,Win32,60.13952369,,,,,,,,,,,,,,,,,,masks/mask_001.jpg,,,,,,,,,,,,,,,,,,,,,,,,,,,,,,,,,,,,,,,,,,,,,,,,0,3,3,0,1,,,,,,,,,,,,,,,,,,,,,,,,,,,,,,,,,,,,,,,,,
102386,001,2022-11-21_24h48.25.629,Info_measure_main_exp,2022.2.2,Win32,60.13952369,,,,,,,,,,,,,,,,,,masks/mask_004.jpg,,,,,,,,,,,,,,,,,,,,,,,,,,,,,,,,,,,,,,,,,,,,,,,,0,4,4,3,1,,,,,,,,,,,,,,,,,,,,,,,,,,,,,,,,,,,,,,,,,
102386,001,2022-11-21_24h48.25.629,Info_measure_main_exp,2022.2.2,Win32,60.13952369,,,,,,,,,,,,,,,,,,,,,,,,,,,,,,4,1.3153,1,,,,,,,,,,,,0,131,5,5,2178,1986,absent_patch/patch0002178.jpg,absent_patch/patch0001986.jpg,,,,,,,,,,,,,,,,,,,,0.024403215,-0.041379327,1,0,0,response3disk,13,0.001060992,0.002121984,1,0,0,center_square,0,12,12,46,1,,,,,,,,,,,,,,,,,,,,,,,
102386,001,2022-11-21_24h48.25.629,Info_measure_main_exp,2022.2.2,Win32,60.13952369,,,,,,,,,,,,,,,,,,masks/mask_001.jpg,,,,,,,,,,,,,,,,,,,,,,,,,,,,,,,,,,,,,,,,,,,0,0,0,0,1,,,,,,,,,,,,,,,,,,,,,,,,,,,,,,,,,,,,,,,,,,,,,,
102386,001,2022-11-21_24h48.25.629,Info_measure_main_exp,2022.2.2,Win32,60.13952369,,,,,,,,,,,,,,,,,,masks/mask_003.jpg,,,,,,,,,,,,,,,,,,,,,,,,,,,,,,,,,,,,,,,,,,,0,1,1,2,1,,,,,,,,,,,,,,,,,,,,,,,,,,,,,,,,,,,,,,,,,,,,,,
102386,001,2022-11-21_24h48.25.629,Info_measure_main_exp,2022.2.2,Win32,60.13952369,,,,,,,,,,,,,,,,,,masks/mask_004.jpg,,,,,,,,,,,,,,,,,,,,,,,,,,,,,,,,,,,,,,,,,,,0,2,2,3,1,,,,,,,,,,,,,,,,,,,,,,,,,,,,,,,,,,,,,,,,,,,,,,
102386,001,2022-11-21_24h48.25.629,Info_measure_main_exp,2022.2.2,Win32,60.13952369,,,,,,,,,,,,,,,,,,masks/mask_005.jpg,,,,,,,,,,,,,,,,,,,,,,,,,,,,,,,,,,,,,,,,,,,0,3,3,4,1,,,,,,,,,,,,,,,,,,,,,,,,,,,,,,,,,,,,,,,,,,,,,,
102386,001,2022-11-21_24h48.25.629,Info_measure_main_exp,2022.2.2,Win32,60.13952369,,,,,,,,,,,,,,,,,,masks/mask_002.jpg,,,,,,,,,,,,,,,,,,,,,,,,,,,,,,,,,,,,,,,,,,,0,4,4,1,1,,,,,,,,,,,,,,,,,,,,,,,,,,,,,,,,,,,,,,,,,,,,,,
102386,001,2022-11-21_24h48.25.629,Info_measure_main_exp,2022.2.2,Win32,60.13952369,,,,,,,,,,,,,,,,,,masks/mask_004.jpg,,,,,,,,,,,,,,,,,,,,,,,,,,,,,,,,,,,,,,,,,,,,,,,,0,0,0,3,1,,,,,,,,,,,,,,,,,,,,,,,,,,,,,,,,,,,,,,,,,
102386,001,2022-11-21_24h48.25.629,Info_measure_main_exp,2022.2.2,Win32,60.13952369,,,,,,,,,,,,,,,,,,masks/mask_001.jpg,,,,,,,,,,,,,,,,,,,,,,,,,,,,,,,,,,,,,,,,,,,,,,,,0,1,1,0,1,,,,,,,,,,,,,,,,,,,,,,,,,,,,,,,,,,,,,,,,,
102386,001,2022-11-21_24h48.25.629,Info_measure_main_exp,2022.2.2,Win32,60.13952369,,,,,,,,,,,,,,,,,,masks/mask_005.jpg,,,,,,,,,,,,,,,,,,,,,,,,,,,,,,,,,,,,,,,,,,,,,,,,0,2,2,4,1,,,,,,,,,,,,,,,,,,,,,,,,,,,,,,,,,,,,,,,,,
102386,001,2022-11-21_24h48.25.629,Info_measure_main_exp,2022.2.2,Win32,60.13952369,,,,,,,,,,,,,,,,,,masks/mask_003.jpg,,,,,,,,,,,,,,,,,,,,,,,,,,,,,,,,,,,,,,,,,,,,,,,,0,3,3,2,1,,,,,,,,,,,,,,,,,,,,,,,,,,,,,,,,,,,,,,,,,
102386,001,2022-11-21_24h48.25.629,Info_measure_main_exp,2022.2.2,Win32,60.13952369,,,,,,,,,,,,,,,,,,masks/mask_002.jpg,,,,,,,,,,,,,,,,,,,,,,,,,,,,,,,,,,,,,,,,,,,,,,,,0,4,4,1,1,,,,,,,,,,,,,,,,,,,,,,,,,,,,,,,,,,,,,,,,,
102386,001,2022-11-21_24h48.25.629,Info_measure_main_exp,2022.2.2,Win32,60.13952369,,,,,,,,,,,,,,,,,,,,,,,,,,,,,,6,0.7127,1,,,,,,,,,,,,0,131,5,5,2190,1974,absent_patch/patch0002190.jpg,absent_patch/patch0001974.jpg,,,,,,,,,,,,,,,,,,,,0.115649884,0.060477421,1,0,0,response1disk,14,-0.003182975,-0.003183056,1,0,0,center_square,0,13,13,119,1,,,,,,,,,,,,,,,,,,,,,,,
102386,001,2022-11-21_24h48.25.629,Info_measure_main_exp,2022.2.2,Win32,60.13952369,,,,,,,,,,,,,,,,,,masks/mask_001.jpg,,,,,,,,,,,,,,,,,,,,,,,,,,,,,,,,,,,,,,,,,,,0,0,0,0,1,,,,,,,,,,,,,,,,,,,,,,,,,,,,,,,,,,,,,,,,,,,,,,
102386,001,2022-11-21_24h48.25.629,Info_measure_main_exp,2022.2.2,Win32,60.13952369,,,,,,,,,,,,,,,,,,masks/mask_005.jpg,,,,,,,,,,,,,,,,,,,,,,,,,,,,,,,,,,,,,,,,,,,0,1,1,4,1,,,,,,,,,,,,,,,,,,,,,,,,,,,,,,,,,,,,,,,,,,,,,,
102386,001,2022-11-21_24h48.25.629,Info_measure_main_exp,2022.2.2,Win32,60.13952369,,,,,,,,,,,,,,,,,,masks/mask_004.jpg,,,,,,,,,,,,,,,,,,,,,,,,,,,,,,,,,,,,,,,,,,,0,2,2,3,1,,,,,,,,,,,,,,,,,,,,,,,,,,,,,,,,,,,,,,,,,,,,,,
102386,001,2022-11-21_24h48.25.629,Info_measure_main_exp,2022.2.2,Win32,60.13952369,,,,,,,,,,,,,,,,,,masks/mask_002.jpg,,,,,,,,,,,,,,,,,,,,,,,,,,,,,,,,,,,,,,,,,,,0,3,3,1,1,,,,,,,,,,,,,,,,,,,,,,,,,,,,,,,,,,,,,,,,,,,,,,
102386,001,2022-11-21_24h48.25.629,Info_measure_main_exp,2022.2.2,Win32,60.13952369,,,,,,,,,,,,,,,,,,masks/mask_003.jpg,,,,,,,,,,,,,,,,,,,,,,,,,,,,,,,,,,,,,,,,,,,0,4,4,2,1,,,,,,,,,,,,,,,,,,,,,,,,,,,,,,,,,,,,,,,,,,,,,,
102386,001,2022-11-21_24h48.25.629,Info_measure_main_exp,2022.2.2,Win32,60.13952369,,,,,,,,,,,,,,,,,,masks/mask_001.jpg,,,,,,,,,,,,,,,,,,,,,,,,,,,,,,,,,,,,,,,,,,,,,,,,0,0,0,0,1,,,,,,,,,,,,,,,,,,,,,,,,,,,,,,,,,,,,,,,,,
102386,001,2022-11-21_24h48.25.629,Info_measure_main_exp,2022.2.2,Win32,60.13952369,,,,,,,,,,,,,,,,,,masks/mask_002.jpg,,,,,,,,,,,,,,,,,,,,,,,,,,,,,,,,,,,,,,,,,,,,,,,,0,1,1,1,1,,,,,,,,,,,,,,,,,,,,,,,,,,,,,,,,,,,,,,,,,
102386,001,2022-11-21_24h48.25.629,Info_measure_main_exp,2022.2.2,Win32,60.13952369,,,,,,,,,,,,,,,,,,masks/mask_005.jpg,,,,,,,,,,,,,,,,,,,,,,,,,,,,,,,,,,,,,,,,,,,,,,,,0,2,2,4,1,,,,,,,,,,,,,,,,,,,,,,,,,,,,,,,,,,,,,,,,,
102386,001,2022-11-21_24h48.25.629,Info_measure_main_exp,2022.2.2,Win32,60.13952369,,,,,,,,,,,,,,,,,,masks/mask_004.jpg,,,,,,,,,,,,,,,,,,,,,,,,,,,,,,,,,,,,,,,,,,,,,,,,0,3,3,3,1,,,,,,,,,,,,,,,,,,,,,,,,,,,,,,,,,,,,,,,,,
102386,001,2022-11-21_24h48.25.629,Info_measure_main_exp,2022.2.2,Win32,60.13952369,,,,,,,,,,,,,,,,,,masks/mask_003.jpg,,,,,,,,,,,,,,,,,,,,,,,,,,,,,,,,,,,,,,,,,,,,,,,,0,4,4,2,1,,,,,,,,,,,,,,,,,,,,,,,,,,,,,,,,,,,,,,,,,
102386,001,2022-11-21_24h48.25.629,Info_measure_main_exp,2022.2.2,Win32,60.13952369,,,,,,,,,,,,,,,,,,,,,,,,,,,,,,3,0.8178,1,,,,,,,,,,,,0,131,5,5,2190,2082,absent_patch/patch0002190.jpg,absent_patch/patch0002082.jpg,,,,,,,,,,,,,,,,,,,,-0.051989406,-0.05941647,1,0,0,response5disk,15,-0.011671071,0.01061008,1,0,0,center_square,0,14,14,112,1,,,,,,,,,,,,,,,,,,,,,,,
102386,001,2022-11-21_24h48.25.629,Info_measure_main_exp,2022.2.2,Win32,60.13952369,,,,,,,,,,,,,,,,,,masks/mask_003.jpg,,,,,,,,,,,,,,,,,,,,,,,,,,,,,,,,,,,,,,,,,,,0,0,0,2,1,,,,,,,,,,,,,,,,,,,,,,,,,,,,,,,,,,,,,,,,,,,,,,
102386,001,2022-11-21_24h48.25.629,Info_measure_main_exp,2022.2.2,Win32,60.13952369,,,,,,,,,,,,,,,,,,masks/mask_004.jpg,,,,,,,,,,,,,,,,,,,,,,,,,,,,,,,,,,,,,,,,,,,0,1,1,3,1,,,,,,,,,,,,,,,,,,,,,,,,,,,,,,,,,,,,,,,,,,,,,,
102386,001,2022-11-21_24h48.25.629,Info_measure_main_exp,2022.2.2,Win32,60.13952369,,,,,,,,,,,,,,,,,,masks/mask_002.jpg,,,,,,,,,,,,,,,,,,,,,,,,,,,,,,,,,,,,,,,,,,,0,2,2,1,1,,,,,,,,,,,,,,,,,,,,,,,,,,,,,,,,,,,,,,,,,,,,,,
102386,001,2022-11-21_24h48.25.629,Info_measure_main_exp,2022.2.2,Win32,60.13952369,,,,,,,,,,,,,,,,,,masks/mask_005.jpg,,,,,,,,,,,,,,,,,,,,,,,,,,,,,,,,,,,,,,,,,,,0,3,3,4,1,,,,,,,,,,,,,,,,,,,,,,,,,,,,,,,,,,,,,,,,,,,,,,
102386,001,2022-11-21_24h48.25.629,Info_measure_main_exp,2022.2.2,Win32,60.13952369,,,,,,,,,,,,,,,,,,masks/mask_001.jpg,,,,,,,,,,,,,,,,,,,,,,,,,,,,,,,,,,,,,,,,,,,0,4,4,0,1,,,,,,,,,,,,,,,,,,,,,,,,,,,,,,,,,,,,,,,,,,,,,,
102386,001,2022-11-21_24h48.25.629,Info_measure_main_exp,2022.2.2,Win32,60.13952369,,,,,,,,,,,,,,,,,,masks/mask_001.jpg,,,,,,,,,,,,,,,,,,,,,,,,,,,,,,,,,,,,,,,,,,,,,,,,0,0,0,0,1,,,,,,,,,,,,,,,,,,,,,,,,,,,,,,,,,,,,,,,,,
102386,001,2022-11-21_24h48.25.629,Info_measure_main_exp,2022.2.2,Win32,60.13952369,,,,,,,,,,,,,,,,,,masks/mask_004.jpg,,,,,,,,,,,,,,,,,,,,,,,,,,,,,,,,,,,,,,,,,,,,,,,,0,1,1,3,1,,,,,,,,,,,,,,,,,,,,,,,,,,,,,,,,,,,,,,,,,
102386,001,2022-11-21_24h48.25.629,Info_measure_main_exp,2022.2.2,Win32,60.13952369,,,,,,,,,,,,,,,,,,masks/mask_005.jpg,,,,,,,,,,,,,,,,,,,,,,,,,,,,,,,,,,,,,,,,,,,,,,,,0,2,2,4,1,,,,,,,,,,,,,,,,,,,,,,,,,,,,,,,,,,,,,,,,,
102386,001,2022-11-21_24h48.25.629,Info_measure_main_exp,2022.2.2,Win32,60.13952369,,,,,,,,,,,,,,,,,,masks/mask_002.jpg,,,,,,,,,,,,,,,,,,,,,,,,,,,,,,,,,,,,,,,,,,,,,,,,0,3,3,1,1,,,,,,,,,,,,,,,,,,,,,,,,,,,,,,,,,,,,,,,,,
102386,001,2022-11-21_24h48.25.629,Info_measure_main_exp,2022.2.2,Win32,60.13952369,,,,,,,,,,,,,,,,,,masks/mask_003.jpg,,,,,,,,,,,,,,,,,,,,,,,,,,,,,,,,,,,,,,,,,,,,,,,,0,4,4,2,1,,,,,,,,,,,,,,,,,,,,,,,,,,,,,,,,,,,,,,,,,
102386,001,2022-11-21_24h48.25.629,Info_measure_main_exp,2022.2.2,Win32,60.13952369,,,,,,,,,,,,,,,,,,,,,,,,,,,,,,7,0.739,1,,,,,,,,,,,,0,131,5,5,2178,2238,absent_patch/patch0002178.jpg,absent_patch/patch0002238.jpg,,,,,,,,,,,,,,,,,,,,0.045623375,0.096551708,1,0,0,response1disk,16,-0.003182975,0.001060992,1,0,0,center_square,0,15,15,57,1,,,,,,,,,,,,,,,,,,,,,,,
102386,001,2022-11-21_24h48.25.629,Info_measure_main_exp,2022.2.2,Win32,60.13952369,,,,,,,,,,,,,,,,,,masks/mask_003.jpg,,,,,,,,,,,,,,,,,,,,,,,,,,,,,,,,,,,,,,,,,,,0,0,0,2,1,,,,,,,,,,,,,,,,,,,,,,,,,,,,,,,,,,,,,,,,,,,,,,
102386,001,2022-11-21_24h48.25.629,Info_measure_main_exp,2022.2.2,Win32,60.13952369,,,,,,,,,,,,,,,,,,masks/mask_004.jpg,,,,,,,,,,,,,,,,,,,,,,,,,,,,,,,,,,,,,,,,,,,0,1,1,3,1,,,,,,,,,,,,,,,,,,,,,,,,,,,,,,,,,,,,,,,,,,,,,,
102386,001,2022-11-21_24h48.25.629,Info_measure_main_exp,2022.2.2,Win32,60.13952369,,,,,,,,,,,,,,,,,,masks/mask_002.jpg,,,,,,,,,,,,,,,,,,,,,,,,,,,,,,,,,,,,,,,,,,,0,2,2,1,1,,,,,,,,,,,,,,,,,,,,,,,,,,,,,,,,,,,,,,,,,,,,,,
102386,001,2022-11-21_24h48.25.629,Info_measure_main_exp,2022.2.2,Win32,60.13952369,,,,,,,,,,,,,,,,,,masks/mask_005.jpg,,,,,,,,,,,,,,,,,,,,,,,,,,,,,,,,,,,,,,,,,,,0,3,3,4,1,,,,,,,,,,,,,,,,,,,,,,,,,,,,,,,,,,,,,,,,,,,,,,
102386,001,2022-11-21_24h48.25.629,Info_measure_main_exp,2022.2.2,Win32,60.13952369,,,,,,,,,,,,,,,,,,masks/mask_001.jpg,,,,,,,,,,,,,,,,,,,,,,,,,,,,,,,,,,,,,,,,,,,0,4,4,0,1,,,,,,,,,,,,,,,,,,,,,,,,,,,,,,,,,,,,,,,,,,,,,,
102386,001,2022-11-21_24h48.25.629,Info_measure_main_exp,2022.2.2,Win32,60.13952369,,,,,,,,,,,,,,,,,,masks/mask_005.jpg,,,,,,,,,,,,,,,,,,,,,,,,,,,,,,,,,,,,,,,,,,,,,,,,0,0,0,4,1,,,,,,,,,,,,,,,,,,,,,,,,,,,,,,,,,,,,,,,,,
102386,001,2022-11-21_24h48.25.629,Info_measure_main_exp,2022.2.2,Win32,60.13952369,,,,,,,,,,,,,,,,,,masks/mask_004.jpg,,,,,,,,,,,,,,,,,,,,,,,,,,,,,,,,,,,,,,,,,,,,,,,,0,1,1,3,1,,,,,,,,,,,,,,,,,,,,,,,,,,,,,,,,,,,,,,,,,
102386,001,2022-11-21_24h48.25.629,Info_measure_main_exp,2022.2.2,Win32,60.13952369,,,,,,,,,,,,,,,,,,masks/mask_002.jpg,,,,,,,,,,,,,,,,,,,,,,,,,,,,,,,,,,,,,,,,,,,,,,,,0,2,2,1,1,,,,,,,,,,,,,,,,,,,,,,,,,,,,,,,,,,,,,,,,,
102386,001,2022-11-21_24h48.25.629,Info_measure_main_exp,2022.2.2,Win32,60.13952369,,,,,,,,,,,,,,,,,,masks/mask_001.jpg,,,,,,,,,,,,,,,,,,,,,,,,,,,,,,,,,,,,,,,,,,,,,,,,0,3,3,0,1,,,,,,,,,,,,,,,,,,,,,,,,,,,,,,,,,,,,,,,,,
102386,001,2022-11-21_24h48.25.629,Info_measure_main_exp,2022.2.2,Win32,60.13952369,,,,,,,,,,,,,,,,,,masks/mask_003.jpg,,,,,,,,,,,,,,,,,,,,,,,,,,,,,,,,,,,,,,,,,,,,,,,,0,4,4,2,1,,,,,,,,,,,,,,,,,,,,,,,,,,,,,,,,,,,,,,,,,
102386,001,2022-11-21_24h48.25.629,Info_measure_main_exp,2022.2.2,Win32,60.13952369,,,,,,,,,,,,,,,,,,,,,,,,,,,,,,1,0.9308,1,,,,,,,,,,,,0,131,5,5,1986,1950,absent_patch/patch0001986.jpg,absent_patch/patch0001950.jpg,,,,,,,,,,,,,,,,,,,,-0.082758572,0.012732063,1,0,0,response7disk,17,-0.007427023,0.001060992,1,0,0,center_square,0,16,16,15,1,,,,,,,,,,,,,,,,,,,,,,,
102386,001,2022-11-21_24h48.25.629,Info_measure_main_exp,2022.2.2,Win32,60.13952369,,,,,,,,,,,,,,,,,,masks/mask_001.jpg,,,,,,,,,,,,,,,,,,,,,,,,,,,,,,,,,,,,,,,,,,,0,0,0,0,1,,,,,,,,,,,,,,,,,,,,,,,,,,,,,,,,,,,,,,,,,,,,,,
102386,001,2022-11-21_24h48.25.629,Info_measure_main_exp,2022.2.2,Win32,60.13952369,,,,,,,,,,,,,,,,,,masks/mask_003.jpg,,,,,,,,,,,,,,,,,,,,,,,,,,,,,,,,,,,,,,,,,,,0,1,1,2,1,,,,,,,,,,,,,,,,,,,,,,,,,,,,,,,,,,,,,,,,,,,,,,
102386,001,2022-11-21_24h48.25.629,Info_measure_main_exp,2022.2.2,Win32,60.13952369,,,,,,,,,,,,,,,,,,masks/mask_002.jpg,,,,,,,,,,,,,,,,,,,,,,,,,,,,,,,,,,,,,,,,,,,0,2,2,1,1,,,,,,,,,,,,,,,,,,,,,,,,,,,,,,,,,,,,,,,,,,,,,,
102386,001,2022-11-21_24h48.25.629,Info_measure_main_exp,2022.2.2,Win32,60.13952369,,,,,,,,,,,,,,,,,,masks/mask_004.jpg,,,,,,,,,,,,,,,,,,,,,,,,,,,,,,,,,,,,,,,,,,,0,3,3,3,1,,,,,,,,,,,,,,,,,,,,,,,,,,,,,,,,,,,,,,,,,,,,,,
102386,001,2022-11-21_24h48.25.629,Info_measure_main_exp,2022.2.2,Win32,60.13952369,,,,,,,,,,,,,,,,,,masks/mask_005.jpg,,,,,,,,,,,,,,,,,,,,,,,,,,,,,,,,,,,,,,,,,,,0,4,4,4,1,,,,,,,,,,,,,,,,,,,,,,,,,,,,,,,,,,,,,,,,,,,,,,
102386,001,2022-11-21_24h48.25.629,Info_measure_main_exp,2022.2.2,Win32,60.13952369,,,,,,,,,,,,,,,,,,masks/mask_001.jpg,,,,,,,,,,,,,,,,,,,,,,,,,,,,,,,,,,,,,,,,,,,,,,,,0,0,0,0,1,,,,,,,,,,,,,,,,,,,,,,,,,,,,,,,,,,,,,,,,,
102386,001,2022-11-21_24h48.25.629,Info_measure_main_exp,2022.2.2,Win32,60.13952369,,,,,,,,,,,,,,,,,,masks/mask_004.jpg,,,,,,,,,,,,,,,,,,,,,,,,,,,,,,,,,,,,,,,,,,,,,,,,0,1,1,3,1,,,,,,,,,,,,,,,,,,,,,,,,,,,,,,,,,,,,,,,,,
102386,001,2022-11-21_24h48.25.629,Info_measure_main_exp,2022.2.2,Win32,60.13952369,,,,,,,,,,,,,,,,,,masks/mask_005.jpg,,,,,,,,,,,,,,,,,,,,,,,,,,,,,,,,,,,,,,,,,,,,,,,,0,2,2,4,1,,,,,,,,,,,,,,,,,,,,,,,,,,,,,,,,,,,,,,,,,
102386,001,2022-11-21_24h48.25.629,Info_measure_main_exp,2022.2.2,Win32,60.13952369,,,,,,,,,,,,,,,,,,masks/mask_002.jpg,,,,,,,,,,,,,,,,,,,,,,,,,,,,,,,,,,,,,,,,,,,,,,,,0,3,3,1,1,,,,,,,,,,,,,,,,,,,,,,,,,,,,,,,,,,,,,,,,,
102386,001,2022-11-21_24h48.25.629,Info_measure_main_exp,2022.2.2,Win32,60.13952369,,,,,,,,,,,,,,,,,,masks/mask_003.jpg,,,,,,,,,,,,,,,,,,,,,,,,,,,,,,,,,,,,,,,,,,,,,,,,0,4,4,2,1,,,,,,,,,,,,,,,,,,,,,,,,,,,,,,,,,,,,,,,,,
102386,001,2022-11-21_24h48.25.629,Info_measure_main_exp,2022.2.2,Win32,60.13952369,,,,,,,,,,,,,,,,,,,,,,,,,,,,,,2,0.7658,1,,,,,,,,,,,,0,131,5,5,2274,2166,absent_patch/patch0002274.jpg,absent_patch/patch0002166.jpg,,,,,,,,,,,,,,,,,,,,-0.0976127,-0.036074287,1,0,0,response5disk,18,0.004244048,-0.002122024,1,0,0,center_square,0,17,17,78,1,,,,,,,,,,,,,,,,,,,,,,,
102386,001,2022-11-21_24h48.25.629,Info_measure_main_exp,2022.2.2,Win32,60.13952369,,,,,,,,,,,,,,,,,,masks/mask_005.jpg,,,,,,,,,,,,,,,,,,,,,,,,,,,,,,,,,,,,,,,,,,,0,0,0,4,1,,,,,,,,,,,,,,,,,,,,,,,,,,,,,,,,,,,,,,,,,,,,,,
102386,001,2022-11-21_24h48.25.629,Info_measure_main_exp,2022.2.2,Win32,60.13952369,,,,,,,,,,,,,,,,,,masks/mask_003.jpg,,,,,,,,,,,,,,,,,,,,,,,,,,,,,,,,,,,,,,,,,,,0,1,1,2,1,,,,,,,,,,,,,,,,,,,,,,,,,,,,,,,,,,,,,,,,,,,,,,
102386,001,2022-11-21_24h48.25.629,Info_measure_main_exp,2022.2.2,Win32,60.13952369,,,,,,,,,,,,,,,,,,masks/mask_001.jpg,,,,,,,,,,,,,,,,,,,,,,,,,,,,,,,,,,,,,,,,,,,0,2,2,0,1,,,,,,,,,,,,,,,,,,,,,,,,,,,,,,,,,,,,,,,,,,,,,,
102386,001,2022-11-21_24h48.25.629,Info_measure_main_exp,2022.2.2,Win32,60.13952369,,,,,,,,,,,,,,,,,,masks/mask_002.jpg,,,,,,,,,,,,,,,,,,,,,,,,,,,,,,,,,,,,,,,,,,,0,3,3,1,1,,,,,,,,,,,,,,,,,,,,,,,,,,,,,,,,,,,,,,,,,,,,,,
102386,001,2022-11-21_24h48.25.629,Info_measure_main_exp,2022.2.2,Win32,60.13952369,,,,,,,,,,,,,,,,,,masks/mask_004.jpg,,,,,,,,,,,,,,,,,,,,,,,,,,,,,,,,,,,,,,,,,,,0,4,4,3,1,,,,,,,,,,,,,,,,,,,,,,,,,,,,,,,,,,,,,,,,,,,,,,
102386,001,2022-11-21_24h48.25.629,Info_measure_main_exp,2022.2.2,Win32,60.13952369,,,,,,,,,,,,,,,,,,masks/mask_004.jpg,,,,,,,,,,,,,,,,,,,,,,,,,,,,,,,,,,,,,,,,,,,,,,,,0,0,0,3,1,,,,,,,,,,,,,,,,,,,,,,,,,,,,,,,,,,,,,,,,,
102386,001,2022-11-21_24h48.25.629,Info_measure_main_exp,2022.2.2,Win32,60.13952369,,,,,,,,,,,,,,,,,,masks/mask_003.jpg,,,,,,,,,,,,,,,,,,,,,,,,,,,,,,,,,,,,,,,,,,,,,,,,0,1,1,2,1,,,,,,,,,,,,,,,,,,,,,,,,,,,,,,,,,,,,,,,,,
102386,001,2022-11-21_24h48.25.629,Info_measure_main_exp,2022.2.2,Win32,60.13952369,,,,,,,,,,,,,,,,,,masks/mask_002.jpg,,,,,,,,,,,,,,,,,,,,,,,,,,,,,,,,,,,,,,,,,,,,,,,,0,2,2,1,1,,,,,,,,,,,,,,,,,,,,,,,,,,,,,,,,,,,,,,,,,
102386,001,2022-11-21_24h48.25.629,Info_measure_main_exp,2022.2.2,Win32,60.13952369,,,,,,,,,,,,,,,,,,masks/mask_001.jpg,,,,,,,,,,,,,,,,,,,,,,,,,,,,,,,,,,,,,,,,,,,,,,,,0,3,3,0,1,,,,,,,,,,,,,,,,,,,,,,,,,,,,,,,,,,,,,,,,,
102386,001,2022-11-21_24h48.25.629,Info_measure_main_exp,2022.2.2,Win32,60.13952369,,,,,,,,,,,,,,,,,,masks/mask_005.jpg,,,,,,,,,,,,,,,,,,,,,,,,,,,,,,,,,,,,,,,,,,,,,,,,0,4,4,4,1,,,,,,,,,,,,,,,,,,,,,,,,,,,,,,,,,,,,,,,,,
102386,001,2022-11-21_24h48.25.629,Info_measure_main_exp,2022.2.2,Win32,60.13952369,,,,,,,,,,,,,,,,,,,,,,,,,,,,,,0,0.9325,1,,,,,,,,,,,,0,131,5,5,2154,2154,absent_patch/patch0002154.jpg,absent_patch/patch0002154.jpg,,,,,,,,,,,,,,,,,,,,-0.026525199,0.109283812,1,0,0,response7disk,19,0.001060992,0.006366032,1,0,0,center_square,0,18,18,89,1,,,,,,,,,,,,,,,,,,,,,,,
102386,001,2022-11-21_24h48.25.629,Info_measure_main_exp,2022.2.2,Win32,60.13952369,,,,,,,,,,,,,,,,,,masks/mask_002.jpg,,,,,,,,,,,,,,,,,,,,,,,,,,,,,,,,,,,,,,,,,,,0,0,0,1,1,,,,,,,,,,,,,,,,,,,,,,,,,,,,,,,,,,,,,,,,,,,,,,
102386,001,2022-11-21_24h48.25.629,Info_measure_main_exp,2022.2.2,Win32,60.13952369,,,,,,,,,,,,,,,,,,masks/mask_004.jpg,,,,,,,,,,,,,,,,,,,,,,,,,,,,,,,,,,,,,,,,,,,0,1,1,3,1,,,,,,,,,,,,,,,,,,,,,,,,,,,,,,,,,,,,,,,,,,,,,,
102386,001,2022-11-21_24h48.25.629,Info_measure_main_exp,2022.2.2,Win32,60.13952369,,,,,,,,,,,,,,,,,,masks/mask_005.jpg,,,,,,,,,,,,,,,,,,,,,,,,,,,,,,,,,,,,,,,,,,,0,2,2,4,1,,,,,,,,,,,,,,,,,,,,,,,,,,,,,,,,,,,,,,,,,,,,,,
102386,001,2022-11-21_24h48.25.629,Info_measure_main_exp,2022.2.2,Win32,60.13952369,,,,,,,,,,,,,,,,,,masks/mask_001.jpg,,,,,,,,,,,,,,,,,,,,,,,,,,,,,,,,,,,,,,,,,,,0,3,3,0,1,,,,,,,,,,,,,,,,,,,,,,,,,,,,,,,,,,,,,,,,,,,,,,
102386,001,2022-11-21_24h48.25.629,Info_measure_main_exp,2022.2.2,Win32,60.13952369,,,,,,,,,,,,,,,,,,masks/mask_003.jpg,,,,,,,,,,,,,,,,,,,,,,,,,,,,,,,,,,,,,,,,,,,0,4,4,2,1,,,,,,,,,,,,,,,,,,,,,,,,,,,,,,,,,,,,,,,,,,,,,,
102386,001,2022-11-21_24h48.25.629,Info_measure_main_exp,2022.2.2,Win32,60.13952369,,,,,,,,,,,,,,,,,,masks/mask_003.jpg,,,,,,,,,,,,,,,,,,,,,,,,,,,,,,,,,,,,,,,,,,,,,,,,0,0,0,2,1,,,,,,,,,,,,,,,,,,,,,,,,,,,,,,,,,,,,,,,,,
102386,001,2022-11-21_24h48.25.629,Info_measure_main_exp,2022.2.2,Win32,60.13952369,,,,,,,,,,,,,,,,,,masks/mask_005.jpg,,,,,,,,,,,,,,,,,,,,,,,,,,,,,,,,,,,,,,,,,,,,,,,,0,1,1,4,1,,,,,,,,,,,,,,,,,,,,,,,,,,,,,,,,,,,,,,,,,
102386,001,2022-11-21_24h48.25.629,Info_measure_main_exp,2022.2.2,Win32,60.13952369,,,,,,,,,,,,,,,,,,masks/mask_004.jpg,,,,,,,,,,,,,,,,,,,,,,,,,,,,,,,,,,,,,,,,,,,,,,,,0,2,2,3,1,,,,,,,,,,,,,,,,,,,,,,,,,,,,,,,,,,,,,,,,,
102386,001,2022-11-21_24h48.25.629,Info_measure_main_exp,2022.2.2,Win32,60.13952369,,,,,,,,,,,,,,,,,,masks/mask_001.jpg,,,,,,,,,,,,,,,,,,,,,,,,,,,,,,,,,,,,,,,,,,,,,,,,0,3,3,0,1,,,,,,,,,,,,,,,,,,,,,,,,,,,,,,,,,,,,,,,,,
102386,001,2022-11-21_24h48.25.629,Info_measure_main_exp,2022.2.2,Win32,60.13952369,,,,,,,,,,,,,,,,,,masks/mask_002.jpg,,,,,,,,,,,,,,,,,,,,,,,,,,,,,,,,,,,,,,,,,,,,,,,,0,4,4,1,1,,,,,,,,,,,,,,,,,,,,,,,,,,,,,,,,,,,,,,,,,
102386,001,2022-11-21_24h48.25.629,Info_measure_main_exp,2022.2.2,Win32,60.13952369,,,,,,,,,,,,,,,,,,,,,,,,,,,,,,0,0.5864,1,,,,,,,,,,,,0,131,5,5,2190,2190,absent_patch/patch0002190.jpg,absent_patch/patch0002190.jpg,,,,,,,,,,,,,,,,,,,,-0.062599486,0.142175042,1,0,0,response7disk,20,-0.002121984,0.003183016,1,0,0,center_square,0,19,19,86,1,,,,,,,,,,,,,,,,,,,,,,,
102386,001,2022-11-21_24h48.25.629,Info_measure_main_exp,2022.2.2,Win32,60.13952369,,,,,,,,,,,,,,,,,,masks/mask_002.jpg,,,,,,,,,,,,,,,,,,,,,,,,,,,,,,,,,,,,,,,,,,,0,0,0,1,1,,,,,,,,,,,,,,,,,,,,,,,,,,,,,,,,,,,,,,,,,,,,,,
102386,001,2022-11-21_24h48.25.629,Info_measure_main_exp,2022.2.2,Win32,60.13952369,,,,,,,,,,,,,,,,,,masks/mask_001.jpg,,,,,,,,,,,,,,,,,,,,,,,,,,,,,,,,,,,,,,,,,,,0,1,1,0,1,,,,,,,,,,,,,,,,,,,,,,,,,,,,,,,,,,,,,,,,,,,,,,
102386,001,2022-11-21_24h48.25.629,Info_measure_main_exp,2022.2.2,Win32,60.13952369,,,,,,,,,,,,,,,,,,masks/mask_005.jpg,,,,,,,,,,,,,,,,,,,,,,,,,,,,,,,,,,,,,,,,,,,0,2,2,4,1,,,,,,,,,,,,,,,,,,,,,,,,,,,,,,,,,,,,,,,,,,,,,,
102386,001,2022-11-21_24h48.25.629,Info_measure_main_exp,2022.2.2,Win32,60.13952369,,,,,,,,,,,,,,,,,,masks/mask_003.jpg,,,,,,,,,,,,,,,,,,,,,,,,,,,,,,,,,,,,,,,,,,,0,3,3,2,1,,,,,,,,,,,,,,,,,,,,,,,,,,,,,,,,,,,,,,,,,,,,,,
102386,001,2022-11-21_24h48.25.629,Info_measure_main_exp,2022.2.2,Win32,60.13952369,,,,,,,,,,,,,,,,,,masks/mask_004.jpg,,,,,,,,,,,,,,,,,,,,,,,,,,,,,,,,,,,,,,,,,,,0,4,4,3,1,,,,,,,,,,,,,,,,,,,,,,,,,,,,,,,,,,,,,,,,,,,,,,
102386,001,2022-11-21_24h48.25.629,Info_measure_main_exp,2022.2.2,Win32,60.13952369,,,,,,,,,,,,,,,,,,masks/mask_001.jpg,,,,,,,,,,,,,,,,,,,,,,,,,,,,,,,,,,,,,,,,,,,,,,,,0,0,0,0,1,,,,,,,,,,,,,,,,,,,,,,,,,,,,,,,,,,,,,,,,,
102386,001,2022-11-21_24h48.25.629,Info_measure_main_exp,2022.2.2,Win32,60.13952369,,,,,,,,,,,,,,,,,,masks/mask_005.jpg,,,,,,,,,,,,,,,,,,,,,,,,,,,,,,,,,,,,,,,,,,,,,,,,0,1,1,4,1,,,,,,,,,,,,,,,,,,,,,,,,,,,,,,,,,,,,,,,,,
102386,001,2022-11-21_24h48.25.629,Info_measure_main_exp,2022.2.2,Win32,60.13952369,,,,,,,,,,,,,,,,,,masks/mask_004.jpg,,,,,,,,,,,,,,,,,,,,,,,,,,,,,,,,,,,,,,,,,,,,,,,,0,2,2,3,1,,,,,,,,,,,,,,,,,,,,,,,,,,,,,,,,,,,,,,,,,
102386,001,2022-11-21_24h48.25.629,Info_measure_main_exp,2022.2.2,Win32,60.13952369,,,,,,,,,,,,,,,,,,masks/mask_002.jpg,,,,,,,,,,,,,,,,,,,,,,,,,,,,,,,,,,,,,,,,,,,,,,,,0,3,3,1,1,,,,,,,,,,,,,,,,,,,,,,,,,,,,,,,,,,,,,,,,,
102386,001,2022-11-21_24h48.25.629,Info_measure_main_exp,2022.2.2,Win32,60.13952369,,,,,,,,,,,,,,,,,,masks/mask_003.jpg,,,,,,,,,,,,,,,,,,,,,,,,,,,,,,,,,,,,,,,,,,,,,,,,0,4,4,2,1,,,,,,,,,,,,,,,,,,,,,,,,,,,,,,,,,,,,,,,,,
102386,001,2022-11-21_24h48.25.629,Info_measure_main_exp,2022.2.2,Win32,60.13952369,,,,,,,,,,,,,,,,,,,,,,,,,,,,,,3,0.7831,1,,,,,,,,,,,,0,131,5,5,2250,1986,absent_patch/patch0002250.jpg,absent_patch/patch0001986.jpg,,,,,,,,,,,,,,,,,,,,-0.040318254,-0.067904525,1,0,0,response5disk,21,0.01061008,-0.003183056,1,0,0,center_square,0,20,20,29,1,,,,,,,,,,,,,,,,,,,,,,,
102386,001,2022-11-21_24h48.25.629,Info_measure_main_exp,2022.2.2,Win32,60.13952369,,,,,,,,,,,,,,,,,,masks/mask_004.jpg,,,,,,,,,,,,,,,,,,,,,,,,,,,,,,,,,,,,,,,,,,,0,0,0,3,1,,,,,,,,,,,,,,,,,,,,,,,,,,,,,,,,,,,,,,,,,,,,,,
102386,001,2022-11-21_24h48.25.629,Info_measure_main_exp,2022.2.2,Win32,60.13952369,,,,,,,,,,,,,,,,,,masks/mask_005.jpg,,,,,,,,,,,,,,,,,,,,,,,,,,,,,,,,,,,,,,,,,,,0,1,1,4,1,,,,,,,,,,,,,,,,,,,,,,,,,,,,,,,,,,,,,,,,,,,,,,
102386,001,2022-11-21_24h48.25.629,Info_measure_main_exp,2022.2.2,Win32,60.13952369,,,,,,,,,,,,,,,,,,masks/mask_003.jpg,,,,,,,,,,,,,,,,,,,,,,,,,,,,,,,,,,,,,,,,,,,0,2,2,2,1,,,,,,,,,,,,,,,,,,,,,,,,,,,,,,,,,,,,,,,,,,,,,,
102386,001,2022-11-21_24h48.25.629,Info_measure_main_exp,2022.2.2,Win32,60.13952369,,,,,,,,,,,,,,,,,,masks/mask_001.jpg,,,,,,,,,,,,,,,,,,,,,,,,,,,,,,,,,,,,,,,,,,,0,3,3,0,1,,,,,,,,,,,,,,,,,,,,,,,,,,,,,,,,,,,,,,,,,,,,,,
102386,001,2022-11-21_24h48.25.629,Info_measure_main_exp,2022.2.2,Win32,60.13952369,,,,,,,,,,,,,,,,,,masks/mask_002.jpg,,,,,,,,,,,,,,,,,,,,,,,,,,,,,,,,,,,,,,,,,,,0,4,4,1,1,,,,,,,,,,,,,,,,,,,,,,,,,,,,,,,,,,,,,,,,,,,,,,
102386,001,2022-11-21_24h48.25.629,Info_measure_main_exp,2022.2.2,Win32,60.13952369,,,,,,,,,,,,,,,,,,masks/mask_003.jpg,,,,,,,,,,,,,,,,,,,,,,,,,,,,,,,,,,,,,,,,,,,,,,,,0,0,0,2,1,,,,,,,,,,,,,,,,,,,,,,,,,,,,,,,,,,,,,,,,,
102386,001,2022-11-21_24h48.25.629,Info_measure_main_exp,2022.2.2,Win32,60.13952369,,,,,,,,,,,,,,,,,,masks/mask_005.jpg,,,,,,,,,,,,,,,,,,,,,,,,,,,,,,,,,,,,,,,,,,,,,,,,0,1,1,4,1,,,,,,,,,,,,,,,,,,,,,,,,,,,,,,,,,,,,,,,,,
102386,001,2022-11-21_24h48.25.629,Info_measure_main_exp,2022.2.2,Win32,60.13952369,,,,,,,,,,,,,,,,,,masks/mask_002.jpg,,,,,,,,,,,,,,,,,,,,,,,,,,,,,,,,,,,,,,,,,,,,,,,,0,2,2,1,1,,,,,,,,,,,,,,,,,,,,,,,,,,,,,,,,,,,,,,,,,
102386,001,2022-11-21_24h48.25.629,Info_measure_main_exp,2022.2.2,Win32,60.13952369,,,,,,,,,,,,,,,,,,masks/mask_001.jpg,,,,,,,,,,,,,,,,,,,,,,,,,,,,,,,,,,,,,,,,,,,,,,,,0,3,3,0,1,,,,,,,,,,,,,,,,,,,,,,,,,,,,,,,,,,,,,,,,,
102386,001,2022-11-21_24h48.25.629,Info_measure_main_exp,2022.2.2,Win32,60.13952369,,,,,,,,,,,,,,,,,,masks/mask_004.jpg,,,,,,,,,,,,,,,,,,,,,,,,,,,,,,,,,,,,,,,,,,,,,,,,0,4,4,3,1,,,,,,,,,,,,,,,,,,,,,,,,,,,,,,,,,,,,,,,,,
102386,001,2022-11-21_24h48.25.629,Info_measure_main_exp,2022.2.2,Win32,60.13952369,,,,,,,,,,,,,,,,,,,,,,,,,,,,,,4,0.7019,1,,,,,,,,,,,,1,131,5,5,1,2166,present_patch/cong_131_5_a.jpg,absent_patch/patch0002166.jpg,,,,,,,,,,,,,,,,,,,,0.018037184,-0.070026549,1,0,0,response3disk,22,-0.014854128,0.003183016,1,0,0,center_square,0,21,21,54,1,,,,,,,,,,,,,,,,,,,,,,,
102386,001,2022-11-21_24h48.25.629,Info_measure_main_exp,2022.2.2,Win32,60.13952369,,,,,,,,,,,,,,,,,,masks/mask_004.jpg,,,,,,,,,,,,,,,,,,,,,,,,,,,,,,,,,,,,,,,,,,,0,0,0,3,1,,,,,,,,,,,,,,,,,,,,,,,,,,,,,,,,,,,,,,,,,,,,,,
102386,001,2022-11-21_24h48.25.629,Info_measure_main_exp,2022.2.2,Win32,60.13952369,,,,,,,,,,,,,,,,,,masks/mask_003.jpg,,,,,,,,,,,,,,,,,,,,,,,,,,,,,,,,,,,,,,,,,,,0,1,1,2,1,,,,,,,,,,,,,,,,,,,,,,,,,,,,,,,,,,,,,,,,,,,,,,
102386,001,2022-11-21_24h48.25.629,Info_measure_main_exp,2022.2.2,Win32,60.13952369,,,,,,,,,,,,,,,,,,masks/mask_002.jpg,,,,,,,,,,,,,,,,,,,,,,,,,,,,,,,,,,,,,,,,,,,0,2,2,1,1,,,,,,,,,,,,,,,,,,,,,,,,,,,,,,,,,,,,,,,,,,,,,,
102386,001,2022-11-21_24h48.25.629,Info_measure_main_exp,2022.2.2,Win32,60.13952369,,,,,,,,,,,,,,,,,,masks/mask_005.jpg,,,,,,,,,,,,,,,,,,,,,,,,,,,,,,,,,,,,,,,,,,,0,3,3,4,1,,,,,,,,,,,,,,,,,,,,,,,,,,,,,,,,,,,,,,,,,,,,,,
102386,001,2022-11-21_24h48.25.629,Info_measure_main_exp,2022.2.2,Win32,60.13952369,,,,,,,,,,,,,,,,,,masks/mask_001.jpg,,,,,,,,,,,,,,,,,,,,,,,,,,,,,,,,,,,,,,,,,,,0,4,4,0,1,,,,,,,,,,,,,,,,,,,,,,,,,,,,,,,,,,,,,,,,,,,,,,
102386,001,2022-11-21_24h48.25.629,Info_measure_main_exp,2022.2.2,Win32,60.13952369,,,,,,,,,,,,,,,,,,masks/mask_003.jpg,,,,,,,,,,,,,,,,,,,,,,,,,,,,,,,,,,,,,,,,,,,,,,,,0,0,0,2,1,,,,,,,,,,,,,,,,,,,,,,,,,,,,,,,,,,,,,,,,,
102386,001,2022-11-21_24h48.25.629,Info_measure_main_exp,2022.2.2,Win32,60.13952369,,,,,,,,,,,,,,,,,,masks/mask_005.jpg,,,,,,,,,,,,,,,,,,,,,,,,,,,,,,,,,,,,,,,,,,,,,,,,0,1,1,4,1,,,,,,,,,,,,,,,,,,,,,,,,,,,,,,,,,,,,,,,,,
102386,001,2022-11-21_24h48.25.629,Info_measure_main_exp,2022.2.2,Win32,60.13952369,,,,,,,,,,,,,,,,,,masks/mask_002.jpg,,,,,,,,,,,,,,,,,,,,,,,,,,,,,,,,,,,,,,,,,,,,,,,,0,2,2,1,1,,,,,,,,,,,,,,,,,,,,,,,,,,,,,,,,,,,,,,,,,
102386,001,2022-11-21_24h48.25.629,Info_measure_main_exp,2022.2.2,Win32,60.13952369,,,,,,,,,,,,,,,,,,masks/mask_001.jpg,,,,,,,,,,,,,,,,,,,,,,,,,,,,,,,,,,,,,,,,,,,,,,,,0,3,3,0,1,,,,,,,,,,,,,,,,,,,,,,,,,,,,,,,,,,,,,,,,,
102386,001,2022-11-21_24h48.25.629,Info_measure_main_exp,2022.2.2,Win32,60.13952369,,,,,,,,,,,,,,,,,,masks/mask_004.jpg,,,,,,,,,,,,,,,,,,,,,,,,,,,,,,,,,,,,,,,,,,,,,,,,0,4,4,3,1,,,,,,,,,,,,,,,,,,,,,,,,,,,,,,,,,,,,,,,,,
102386,001,2022-11-21_24h48.25.629,Info_measure_main_exp,2022.2.2,Win32,60.13952369,,,,,,,,,,,,,,,,,,,,,,,,,,,,,,2,1.2555,1,,,,,,,,,,,,0,131,5,5,1950,2142,absent_patch/patch0001950.jpg,absent_patch/patch0002142.jpg,,,,,,,,,,,,,,,,,,,,-0.12519889,-0.031830239,1,0,0,response5disk,23,-0.003182975,-0.004244048,1,0,0,center_square,0,22,22,83,1,,,,,,,,,,,,,,,,,,,,,,,
102386,001,2022-11-21_24h48.25.629,Info_measure_main_exp,2022.2.2,Win32,60.13952369,,,,,,,,,,,,,,,,,,masks/mask_002.jpg,,,,,,,,,,,,,,,,,,,,,,,,,,,,,,,,,,,,,,,,,,,0,0,0,1,1,,,,,,,,,,,,,,,,,,,,,,,,,,,,,,,,,,,,,,,,,,,,,,
102386,001,2022-11-21_24h48.25.629,Info_measure_main_exp,2022.2.2,Win32,60.13952369,,,,,,,,,,,,,,,,,,masks/mask_003.jpg,,,,,,,,,,,,,,,,,,,,,,,,,,,,,,,,,,,,,,,,,,,0,1,1,2,1,,,,,,,,,,,,,,,,,,,,,,,,,,,,,,,,,,,,,,,,,,,,,,
102386,001,2022-11-21_24h48.25.629,Info_measure_main_exp,2022.2.2,Win32,60.13952369,,,,,,,,,,,,,,,,,,masks/mask_001.jpg,,,,,,,,,,,,,,,,,,,,,,,,,,,,,,,,,,,,,,,,,,,0,2,2,0,1,,,,,,,,,,,,,,,,,,,,,,,,,,,,,,,,,,,,,,,,,,,,,,
102386,001,2022-11-21_24h48.25.629,Info_measure_main_exp,2022.2.2,Win32,60.13952369,,,,,,,,,,,,,,,,,,masks/mask_005.jpg,,,,,,,,,,,,,,,,,,,,,,,,,,,,,,,,,,,,,,,,,,,0,3,3,4,1,,,,,,,,,,,,,,,,,,,,,,,,,,,,,,,,,,,,,,,,,,,,,,
102386,001,2022-11-21_24h48.25.629,Info_measure_main_exp,2022.2.2,Win32,60.13952369,,,,,,,,,,,,,,,,,,masks/mask_004.jpg,,,,,,,,,,,,,,,,,,,,,,,,,,,,,,,,,,,,,,,,,,,0,4,4,3,1,,,,,,,,,,,,,,,,,,,,,,,,,,,,,,,,,,,,,,,,,,,,,,
102386,001,2022-11-21_24h48.25.629,Info_measure_main_exp,2022.2.2,Win32,60.13952369,,,,,,,,,,,,,,,,,,masks/mask_002.jpg,,,,,,,,,,,,,,,,,,,,,,,,,,,,,,,,,,,,,,,,,,,,,,,,0,0,0,1,1,,,,,,,,,,,,,,,,,,,,,,,,,,,,,,,,,,,,,,,,,
102386,001,2022-11-21_24h48.25.629,Info_measure_main_exp,2022.2.2,Win32,60.13952369,,,,,,,,,,,,,,,,,,masks/mask_004.jpg,,,,,,,,,,,,,,,,,,,,,,,,,,,,,,,,,,,,,,,,,,,,,,,,0,1,1,3,1,,,,,,,,,,,,,,,,,,,,,,,,,,,,,,,,,,,,,,,,,
102386,001,2022-11-21_24h48.25.629,Info_measure_main_exp,2022.2.2,Win32,60.13952369,,,,,,,,,,,,,,,,,,masks/mask_005.jpg,,,,,,,,,,,,,,,,,,,,,,,,,,,,,,,,,,,,,,,,,,,,,,,,0,2,2,4,1,,,,,,,,,,,,,,,,,,,,,,,,,,,,,,,,,,,,,,,,,
102386,001,2022-11-21_24h48.25.629,Info_measure_main_exp,2022.2.2,Win32,60.13952369,,,,,,,,,,,,,,,,,,masks/mask_001.jpg,,,,,,,,,,,,,,,,,,,,,,,,,,,,,,,,,,,,,,,,,,,,,,,,0,3,3,0,1,,,,,,,,,,,,,,,,,,,,,,,,,,,,,,,,,,,,,,,,,
102386,001,2022-11-21_24h48.25.629,Info_measure_main_exp,2022.2.2,Win32,60.13952369,,,,,,,,,,,,,,,,,,masks/mask_003.jpg,,,,,,,,,,,,,,,,,,,,,,,,,,,,,,,,,,,,,,,,,,,,,,,,0,4,4,2,1,,,,,,,,,,,,,,,,,,,,,,,,,,,,,,,,,,,,,,,,,
102386,001,2022-11-21_24h48.25.629,Info_measure_main_exp,2022.2.2,Win32,60.13952369,,,,,,,,,,,,,,,,,,,,,,,,,,,,,,7,0.8609,1,,,,,,,,,,,,0,131,5,5,2190,1986,absent_patch/patch0002190.jpg,absent_patch/patch0001986.jpg,,,,,,,,,,,,,,,,,,,,0.063660477,0.111405836,1,0,0,response1disk,24,0.011671071,0.007427023,1,0,0,center_square,0,23,23,111,1,,,,,,,,,,,,,,,,,,,,,,,
102386,001,2022-11-21_24h48.25.629,Info_measure_main_exp,2022.2.2,Win32,60.13952369,,,,,,,,,,,,,,,,,,masks/mask_004.jpg,,,,,,,,,,,,,,,,,,,,,,,,,,,,,,,,,,,,,,,,,,,0,0,0,3,1,,,,,,,,,,,,,,,,,,,,,,,,,,,,,,,,,,,,,,,,,,,,,,
102386,001,2022-11-21_24h48.25.629,Info_measure_main_exp,2022.2.2,Win32,60.13952369,,,,,,,,,,,,,,,,,,masks/mask_002.jpg,,,,,,,,,,,,,,,,,,,,,,,,,,,,,,,,,,,,,,,,,,,0,1,1,1,1,,,,,,,,,,,,,,,,,,,,,,,,,,,,,,,,,,,,,,,,,,,,,,
102386,001,2022-11-21_24h48.25.629,Info_measure_main_exp,2022.2.2,Win32,60.13952369,,,,,,,,,,,,,,,,,,masks/mask_001.jpg,,,,,,,,,,,,,,,,,,,,,,,,,,,,,,,,,,,,,,,,,,,0,2,2,0,1,,,,,,,,,,,,,,,,,,,,,,,,,,,,,,,,,,,,,,,,,,,,,,
102386,001,2022-11-21_24h48.25.629,Info_measure_main_exp,2022.2.2,Win32,60.13952369,,,,,,,,,,,,,,,,,,masks/mask_003.jpg,,,,,,,,,,,,,,,,,,,,,,,,,,,,,,,,,,,,,,,,,,,0,3,3,2,1,,,,,,,,,,,,,,,,,,,,,,,,,,,,,,,,,,,,,,,,,,,,,,
102386,001,2022-11-21_24h48.25.629,Info_measure_main_exp,2022.2.2,Win32,60.13952369,,,,,,,,,,,,,,,,,,masks/mask_005.jpg,,,,,,,,,,,,,,,,,,,,,,,,,,,,,,,,,,,,,,,,,,,0,4,4,4,1,,,,,,,,,,,,,,,,,,,,,,,,,,,,,,,,,,,,,,,,,,,,,,
102386,001,2022-11-21_24h48.25.629,Info_measure_main_exp,2022.2.2,Win32,60.13952369,,,,,,,,,,,,,,,,,,masks/mask_002.jpg,,,,,,,,,,,,,,,,,,,,,,,,,,,,,,,,,,,,,,,,,,,,,,,,0,0,0,1,1,,,,,,,,,,,,,,,,,,,,,,,,,,,,,,,,,,,,,,,,,
102386,001,2022-11-21_24h48.25.629,Info_measure_main_exp,2022.2.2,Win32,60.13952369,,,,,,,,,,,,,,,,,,masks/mask_005.jpg,,,,,,,,,,,,,,,,,,,,,,,,,,,,,,,,,,,,,,,,,,,,,,,,0,1,1,4,1,,,,,,,,,,,,,,,,,,,,,,,,,,,,,,,,,,,,,,,,,
102386,001,2022-11-21_24h48.25.629,Info_measure_main_exp,2022.2.2,Win32,60.13952369,,,,,,,,,,,,,,,,,,masks/mask_003.jpg,,,,,,,,,,,,,,,,,,,,,,,,,,,,,,,,,,,,,,,,,,,,,,,,0,2,2,2,1,,,,,,,,,,,,,,,,,,,,,,,,,,,,,,,,,,,,,,,,,
102386,001,2022-11-21_24h48.25.629,Info_measure_main_exp,2022.2.2,Win32,60.13952369,,,,,,,,,,,,,,,,,,masks/mask_001.jpg,,,,,,,,,,,,,,,,,,,,,,,,,,,,,,,,,,,,,,,,,,,,,,,,0,3,3,0,1,,,,,,,,,,,,,,,,,,,,,,,,,,,,,,,,,,,,,,,,,
102386,001,2022-11-21_24h48.25.629,Info_measure_main_exp,2022.2.2,Win32,60.13952369,,,,,,,,,,,,,,,,,,masks/mask_004.jpg,,,,,,,,,,,,,,,,,,,,,,,,,,,,,,,,,,,,,,,,,,,,,,,,0,4,4,3,1,,,,,,,,,,,,,,,,,,,,,,,,,,,,,,,,,,,,,,,,,
102386,001,2022-11-21_24h48.25.629,Info_measure_main_exp,2022.2.2,Win32,60.13952369,,,,,,,,,,,,,,,,,,,,,,,,,,,,,,2,1.3647,1,,,,,,,,,,,,0,131,5,5,2082,1974,absent_patch/patch0002082.jpg,absent_patch/patch0001974.jpg,,,,,,,,,,,,,,,,,,,,-0.119893851,-0.035013295,1,0,0,response5disk,25,-0.002121984,-0.008488096,1,0,0,center_square,0,24,24,26,1,,,,,,,,,,,,,,,,,,,,,,,
102386,001,2022-11-21_24h48.25.629,Info_measure_main_exp,2022.2.2,Win32,60.13952369,,,,,,,,,,,,,,,,,,masks/mask_002.jpg,,,,,,,,,,,,,,,,,,,,,,,,,,,,,,,,,,,,,,,,,,,0,0,0,1,1,,,,,,,,,,,,,,,,,,,,,,,,,,,,,,,,,,,,,,,,,,,,,,
102386,001,2022-11-21_24h48.25.629,Info_measure_main_exp,2022.2.2,Win32,60.13952369,,,,,,,,,,,,,,,,,,masks/mask_001.jpg,,,,,,,,,,,,,,,,,,,,,,,,,,,,,,,,,,,,,,,,,,,0,1,1,0,1,,,,,,,,,,,,,,,,,,,,,,,,,,,,,,,,,,,,,,,,,,,,,,
102386,001,2022-11-21_24h48.25.629,Info_measure_main_exp,2022.2.2,Win32,60.13952369,,,,,,,,,,,,,,,,,,masks/mask_005.jpg,,,,,,,,,,,,,,,,,,,,,,,,,,,,,,,,,,,,,,,,,,,0,2,2,4,1,,,,,,,,,,,,,,,,,,,,,,,,,,,,,,,,,,,,,,,,,,,,,,
102386,001,2022-11-21_24h48.25.629,Info_measure_main_exp,2022.2.2,Win32,60.13952369,,,,,,,,,,,,,,,,,,masks/mask_004.jpg,,,,,,,,,,,,,,,,,,,,,,,,,,,,,,,,,,,,,,,,,,,0,3,3,3,1,,,,,,,,,,,,,,,,,,,,,,,,,,,,,,,,,,,,,,,,,,,,,,
102386,001,2022-11-21_24h48.25.629,Info_measure_main_exp,2022.2.2,Win32,60.13952369,,,,,,,,,,,,,,,,,,masks/mask_003.jpg,,,,,,,,,,,,,,,,,,,,,,,,,,,,,,,,,,,,,,,,,,,0,4,4,2,1,,,,,,,,,,,,,,,,,,,,,,,,,,,,,,,,,,,,,,,,,,,,,,
102386,001,2022-11-21_24h48.25.629,Info_measure_main_exp,2022.2.2,Win32,60.13952369,,,,,,,,,,,,,,,,,,masks/mask_003.jpg,,,,,,,,,,,,,,,,,,,,,,,,,,,,,,,,,,,,,,,,,,,,,,,,0,0,0,2,1,,,,,,,,,,,,,,,,,,,,,,,,,,,,,,,,,,,,,,,,,
102386,001,2022-11-21_24h48.25.629,Info_measure_main_exp,2022.2.2,Win32,60.13952369,,,,,,,,,,,,,,,,,,masks/mask_001.jpg,,,,,,,,,,,,,,,,,,,,,,,,,,,,,,,,,,,,,,,,,,,,,,,,0,1,1,0,1,,,,,,,,,,,,,,,,,,,,,,,,,,,,,,,,,,,,,,,,,
102386,001,2022-11-21_24h48.25.629,Info_measure_main_exp,2022.2.2,Win32,60.13952369,,,,,,,,,,,,,,,,,,masks/mask_004.jpg,,,,,,,,,,,,,,,,,,,,,,,,,,,,,,,,,,,,,,,,,,,,,,,,0,2,2,3,1,,,,,,,,,,,,,,,,,,,,,,,,,,,,,,,,,,,,,,,,,
102386,001,2022-11-21_24h48.25.629,Info_measure_main_exp,2022.2.2,Win32,60.13952369,,,,,,,,,,,,,,,,,,masks/mask_005.jpg,,,,,,,,,,,,,,,,,,,,,,,,,,,,,,,,,,,,,,,,,,,,,,,,0,3,3,4,1,,,,,,,,,,,,,,,,,,,,,,,,,,,,,,,,,,,,,,,,,
102386,001,2022-11-21_24h48.25.629,Info_measure_main_exp,2022.2.2,Win32,60.13952369,,,,,,,,,,,,,,,,,,masks/mask_002.jpg,,,,,,,,,,,,,,,,,,,,,,,,,,,,,,,,,,,,,,,,,,,,,,,,0,4,4,1,1,,,,,,,,,,,,,,,,,,,,,,,,,,,,,,,,,,,,,,,,,
102386,001,2022-11-21_24h48.25.629,Info_measure_main_exp,2022.2.2,Win32,60.13952369,,,,,,,,,,,,,,,,,,,,,,,,,,,,,,3,1.6953,1,,,,,,,,,,,,0,131,5,5,2178,2142,absent_patch/patch0002178.jpg,absent_patch/patch0002142.jpg,,,,,,,,,,,,,,,,,,,,-0.039257262,-0.055172422,1,0,0,response5disk,26,-0.009549088,0.004244008,1,0,0,center_square,0,25,25,41,1,,,,,,,,,,,,,,,,,,,,,,,
102386,001,2022-11-21_24h48.25.629,Info_measure_main_exp,2022.2.2,Win32,60.13952369,,,,,,,,,,,,,,,,,,masks/mask_005.jpg,,,,,,,,,,,,,,,,,,,,,,,,,,,,,,,,,,,,,,,,,,,0,0,0,4,1,,,,,,,,,,,,,,,,,,,,,,,,,,,,,,,,,,,,,,,,,,,,,,
102386,001,2022-11-21_24h48.25.629,Info_measure_main_exp,2022.2.2,Win32,60.13952369,,,,,,,,,,,,,,,,,,masks/mask_004.jpg,,,,,,,,,,,,,,,,,,,,,,,,,,,,,,,,,,,,,,,,,,,0,1,1,3,1,,,,,,,,,,,,,,,,,,,,,,,,,,,,,,,,,,,,,,,,,,,,,,
102386,001,2022-11-21_24h48.25.629,Info_measure_main_exp,2022.2.2,Win32,60.13952369,,,,,,,,,,,,,,,,,,masks/mask_002.jpg,,,,,,,,,,,,,,,,,,,,,,,,,,,,,,,,,,,,,,,,,,,0,2,2,1,1,,,,,,,,,,,,,,,,,,,,,,,,,,,,,,,,,,,,,,,,,,,,,,
102386,001,2022-11-21_24h48.25.629,Info_measure_main_exp,2022.2.2,Win32,60.13952369,,,,,,,,,,,,,,,,,,masks/mask_001.jpg,,,,,,,,,,,,,,,,,,,,,,,,,,,,,,,,,,,,,,,,,,,0,3,3,0,1,,,,,,,,,,,,,,,,,,,,,,,,,,,,,,,,,,,,,,,,,,,,,,
102386,001,2022-11-21_24h48.25.629,Info_measure_main_exp,2022.2.2,Win32,60.13952369,,,,,,,,,,,,,,,,,,masks/mask_003.jpg,,,,,,,,,,,,,,,,,,,,,,,,,,,,,,,,,,,,,,,,,,,0,4,4,2,1,,,,,,,,,,,,,,,,,,,,,,,,,,,,,,,,,,,,,,,,,,,,,,
102386,001,2022-11-21_24h48.25.629,Info_measure_main_exp,2022.2.2,Win32,60.13952369,,,,,,,,,,,,,,,,,,masks/mask_001.jpg,,,,,,,,,,,,,,,,,,,,,,,,,,,,,,,,,,,,,,,,,,,,,,,,0,0,0,0,1,,,,,,,,,,,,,,,,,,,,,,,,,,,,,,,,,,,,,,,,,
102386,001,2022-11-21_24h48.25.629,Info_measure_main_exp,2022.2.2,Win32,60.13952369,,,,,,,,,,,,,,,,,,masks/mask_004.jpg,,,,,,,,,,,,,,,,,,,,,,,,,,,,,,,,,,,,,,,,,,,,,,,,0,1,1,3,1,,,,,,,,,,,,,,,,,,,,,,,,,,,,,,,,,,,,,,,,,
102386,001,2022-11-21_24h48.25.629,Info_measure_main_exp,2022.2.2,Win32,60.13952369,,,,,,,,,,,,,,,,,,masks/mask_005.jpg,,,,,,,,,,,,,,,,,,,,,,,,,,,,,,,,,,,,,,,,,,,,,,,,0,2,2,4,1,,,,,,,,,,,,,,,,,,,,,,,,,,,,,,,,,,,,,,,,,
102386,001,2022-11-21_24h48.25.629,Info_measure_main_exp,2022.2.2,Win32,60.13952369,,,,,,,,,,,,,,,,,,masks/mask_002.jpg,,,,,,,,,,,,,,,,,,,,,,,,,,,,,,,,,,,,,,,,,,,,,,,,0,3,3,1,1,,,,,,,,,,,,,,,,,,,,,,,,,,,,,,,,,,,,,,,,,
102386,001,2022-11-21_24h48.25.629,Info_measure_main_exp,2022.2.2,Win32,60.13952369,,,,,,,,,,,,,,,,,,masks/mask_003.jpg,,,,,,,,,,,,,,,,,,,,,,,,,,,,,,,,,,,,,,,,,,,,,,,,0,4,4,2,1,,,,,,,,,,,,,,,,,,,,,,,,,,,,,,,,,,,,,,,,,
102386,001,2022-11-21_24h48.25.629,Info_measure_main_exp,2022.2.2,Win32,60.13952369,,,,,,,,,,,,,,,,,,,,,,,,,,,,,,6,0.7088,1,,,,,,,,,,,,0,131,5,5,2250,2298,absent_patch/patch0002250.jpg,absent_patch/patch0002298.jpg,,,,,,,,,,,,,,,,,,,,0.161273258,0.064721469,1,0,0,response1disk,27,-0.012732063,0.006366032,1,0,0,center_square,0,26,26,59,1,,,,,,,,,,,,,,,,,,,,,,,
102386,001,2022-11-21_24h48.25.629,Info_measure_main_exp,2022.2.2,Win32,60.13952369,,,,,,,,,,,,,,,,,,masks/mask_002.jpg,,,,,,,,,,,,,,,,,,,,,,,,,,,,,,,,,,,,,,,,,,,0,0,0,1,1,,,,,,,,,,,,,,,,,,,,,,,,,,,,,,,,,,,,,,,,,,,,,,
102386,001,2022-11-21_24h48.25.629,Info_measure_main_exp,2022.2.2,Win32,60.13952369,,,,,,,,,,,,,,,,,,masks/mask_005.jpg,,,,,,,,,,,,,,,,,,,,,,,,,,,,,,,,,,,,,,,,,,,0,1,1,4,1,,,,,,,,,,,,,,,,,,,,,,,,,,,,,,,,,,,,,,,,,,,,,,
102386,001,2022-11-21_24h48.25.629,Info_measure_main_exp,2022.2.2,Win32,60.13952369,,,,,,,,,,,,,,,,,,masks/mask_003.jpg,,,,,,,,,,,,,,,,,,,,,,,,,,,,,,,,,,,,,,,,,,,0,2,2,2,1,,,,,,,,,,,,,,,,,,,,,,,,,,,,,,,,,,,,,,,,,,,,,,
102386,001,2022-11-21_24h48.25.629,Info_measure_main_exp,2022.2.2,Win32,60.13952369,,,,,,,,,,,,,,,,,,masks/mask_004.jpg,,,,,,,,,,,,,,,,,,,,,,,,,,,,,,,,,,,,,,,,,,,0,3,3,3,1,,,,,,,,,,,,,,,,,,,,,,,,,,,,,,,,,,,,,,,,,,,,,,
102386,001,2022-11-21_24h48.25.629,Info_measure_main_exp,2022.2.2,Win32,60.13952369,,,,,,,,,,,,,,,,,,masks/mask_001.jpg,,,,,,,,,,,,,,,,,,,,,,,,,,,,,,,,,,,,,,,,,,,0,4,4,0,1,,,,,,,,,,,,,,,,,,,,,,,,,,,,,,,,,,,,,,,,,,,,,,
102386,001,2022-11-21_24h48.25.629,Info_measure_main_exp,2022.2.2,Win32,60.13952369,,,,,,,,,,,,,,,,,,masks/mask_005.jpg,,,,,,,,,,,,,,,,,,,,,,,,,,,,,,,,,,,,,,,,,,,,,,,,0,0,0,4,1,,,,,,,,,,,,,,,,,,,,,,,,,,,,,,,,,,,,,,,,,
102386,001,2022-11-21_24h48.25.629,Info_measure_main_exp,2022.2.2,Win32,60.13952369,,,,,,,,,,,,,,,,,,masks/mask_001.jpg,,,,,,,,,,,,,,,,,,,,,,,,,,,,,,,,,,,,,,,,,,,,,,,,0,1,1,0,1,,,,,,,,,,,,,,,,,,,,,,,,,,,,,,,,,,,,,,,,,
102386,001,2022-11-21_24h48.25.629,Info_measure_main_exp,2022.2.2,Win32,60.13952369,,,,,,,,,,,,,,,,,,masks/mask_004.jpg,,,,,,,,,,,,,,,,,,,,,,,,,,,,,,,,,,,,,,,,,,,,,,,,0,2,2,3,1,,,,,,,,,,,,,,,,,,,,,,,,,,,,,,,,,,,,,,,,,
102386,001,2022-11-21_24h48.25.629,Info_measure_main_exp,2022.2.2,Win32,60.13952369,,,,,,,,,,,,,,,,,,masks/mask_003.jpg,,,,,,,,,,,,,,,,,,,,,,,,,,,,,,,,,,,,,,,,,,,,,,,,0,3,3,2,1,,,,,,,,,,,,,,,,,,,,,,,,,,,,,,,,,,,,,,,,,
102386,001,2022-11-21_24h48.25.629,Info_measure_main_exp,2022.2.2,Win32,60.13952369,,,,,,,,,,,,,,,,,,masks/mask_002.jpg,,,,,,,,,,,,,,,,,,,,,,,,,,,,,,,,,,,,,,,,,,,,,,,,0,4,4,1,1,,,,,,,,,,,,,,,,,,,,,,,,,,,,,,,,,,,,,,,,,
102386,001,2022-11-21_24h48.25.629,Info_measure_main_exp,2022.2.2,Win32,60.13952369,,,,,,,,,,,,,,,,,,,,,,,,,,,,,,1,1.3648,1,,,,,,,,,,,,0,131,5,5,2082,2238,absent_patch/patch0002082.jpg,absent_patch/patch0002238.jpg,,,,,,,,,,,,,,,,,,,,-0.059416429,0.029708215,1,0,0,response7disk,28,-0.007427023,0.001060992,1,0,0,center_square,0,27,27,22,1,,,,,,,,,,,,,,,,,,,,,,,
102386,001,2022-11-21_24h48.25.629,Info_measure_main_exp,2022.2.2,Win32,60.13952369,,,,,,,,,,,,,,,,,,masks/mask_004.jpg,,,,,,,,,,,,,,,,,,,,,,,,,,,,,,,,,,,,,,,,,,,0,0,0,3,1,,,,,,,,,,,,,,,,,,,,,,,,,,,,,,,,,,,,,,,,,,,,,,
102386,001,2022-11-21_24h48.25.629,Info_measure_main_exp,2022.2.2,Win32,60.13952369,,,,,,,,,,,,,,,,,,masks/mask_002.jpg,,,,,,,,,,,,,,,,,,,,,,,,,,,,,,,,,,,,,,,,,,,0,1,1,1,1,,,,,,,,,,,,,,,,,,,,,,,,,,,,,,,,,,,,,,,,,,,,,,
102386,001,2022-11-21_24h48.25.629,Info_measure_main_exp,2022.2.2,Win32,60.13952369,,,,,,,,,,,,,,,,,,masks/mask_005.jpg,,,,,,,,,,,,,,,,,,,,,,,,,,,,,,,,,,,,,,,,,,,0,2,2,4,1,,,,,,,,,,,,,,,,,,,,,,,,,,,,,,,,,,,,,,,,,,,,,,
102386,001,2022-11-21_24h48.25.629,Info_measure_main_exp,2022.2.2,Win32,60.13952369,,,,,,,,,,,,,,,,,,masks/mask_001.jpg,,,,,,,,,,,,,,,,,,,,,,,,,,,,,,,,,,,,,,,,,,,0,3,3,0,1,,,,,,,,,,,,,,,,,,,,,,,,,,,,,,,,,,,,,,,,,,,,,,
102386,001,2022-11-21_24h48.25.629,Info_measure_main_exp,2022.2.2,Win32,60.13952369,,,,,,,,,,,,,,,,,,masks/mask_003.jpg,,,,,,,,,,,,,,,,,,,,,,,,,,,,,,,,,,,,,,,,,,,0,4,4,2,1,,,,,,,,,,,,,,,,,,,,,,,,,,,,,,,,,,,,,,,,,,,,,,
102386,001,2022-11-21_24h48.25.629,Info_measure_main_exp,2022.2.2,Win32,60.13952369,,,,,,,,,,,,,,,,,,masks/mask_003.jpg,,,,,,,,,,,,,,,,,,,,,,,,,,,,,,,,,,,,,,,,,,,,,,,,0,0,0,2,1,,,,,,,,,,,,,,,,,,,,,,,,,,,,,,,,,,,,,,,,,
102386,001,2022-11-21_24h48.25.629,Info_measure_main_exp,2022.2.2,Win32,60.13952369,,,,,,,,,,,,,,,,,,masks/mask_005.jpg,,,,,,,,,,,,,,,,,,,,,,,,,,,,,,,,,,,,,,,,,,,,,,,,0,1,1,4,1,,,,,,,,,,,,,,,,,,,,,,,,,,,,,,,,,,,,,,,,,
102386,001,2022-11-21_24h48.25.629,Info_measure_main_exp,2022.2.2,Win32,60.13952369,,,,,,,,,,,,,,,,,,masks/mask_002.jpg,,,,,,,,,,,,,,,,,,,,,,,,,,,,,,,,,,,,,,,,,,,,,,,,0,2,2,1,1,,,,,,,,,,,,,,,,,,,,,,,,,,,,,,,,,,,,,,,,,
102386,001,2022-11-21_24h48.25.629,Info_measure_main_exp,2022.2.2,Win32,60.13952369,,,,,,,,,,,,,,,,,,masks/mask_001.jpg,,,,,,,,,,,,,,,,,,,,,,,,,,,,,,,,,,,,,,,,,,,,,,,,0,3,3,0,1,,,,,,,,,,,,,,,,,,,,,,,,,,,,,,,,,,,,,,,,,
102386,001,2022-11-21_24h48.25.629,Info_measure_main_exp,2022.2.2,Win32,60.13952369,,,,,,,,,,,,,,,,,,masks/mask_004.jpg,,,,,,,,,,,,,,,,,,,,,,,,,,,,,,,,,,,,,,,,,,,,,,,,0,4,4,3,1,,,,,,,,,,,,,,,,,,,,,,,,,,,,,,,,,,,,,,,,,
102386,001,2022-11-21_24h48.25.629,Info_measure_main_exp,2022.2.2,Win32,60.13952369,,,,,,,,,,,,,,,,,,,,,,,,,,,,,,4,0.7325,1,,,,,,,,,,,,0,131,5,5,1986,2142,absent_patch/patch0001986.jpg,absent_patch/patch0002142.jpg,,,,,,,,,,,,,,,,,,,,0.024403215,-0.072148533,1,0,0,response3disk,29,-0.002121984,-0.00530504,1,0,0,center_square,0,28,28,76,1,,,,,,,,,,,,,,,,,,,,,,,
102386,001,2022-11-21_24h48.25.629,Info_measure_main_exp,2022.2.2,Win32,60.13952369,,,,,,,,,,,,,,,,,,masks/mask_005.jpg,,,,,,,,,,,,,,,,,,,,,,,,,,,,,,,,,,,,,,,,,,,0,0,0,4,1,,,,,,,,,,,,,,,,,,,,,,,,,,,,,,,,,,,,,,,,,,,,,,
102386,001,2022-11-21_24h48.25.629,Info_measure_main_exp,2022.2.2,Win32,60.13952369,,,,,,,,,,,,,,,,,,masks/mask_002.jpg,,,,,,,,,,,,,,,,,,,,,,,,,,,,,,,,,,,,,,,,,,,0,1,1,1,1,,,,,,,,,,,,,,,,,,,,,,,,,,,,,,,,,,,,,,,,,,,,,,
102386,001,2022-11-21_24h48.25.629,Info_measure_main_exp,2022.2.2,Win32,60.13952369,,,,,,,,,,,,,,,,,,masks/mask_004.jpg,,,,,,,,,,,,,,,,,,,,,,,,,,,,,,,,,,,,,,,,,,,0,2,2,3,1,,,,,,,,,,,,,,,,,,,,,,,,,,,,,,,,,,,,,,,,,,,,,,
102386,001,2022-11-21_24h48.25.629,Info_measure_main_exp,2022.2.2,Win32,60.13952369,,,,,,,,,,,,,,,,,,masks/mask_001.jpg,,,,,,,,,,,,,,,,,,,,,,,,,,,,,,,,,,,,,,,,,,,0,3,3,0,1,,,,,,,,,,,,,,,,,,,,,,,,,,,,,,,,,,,,,,,,,,,,,,
102386,001,2022-11-21_24h48.25.629,Info_measure_main_exp,2022.2.2,Win32,60.13952369,,,,,,,,,,,,,,,,,,masks/mask_003.jpg,,,,,,,,,,,,,,,,,,,,,,,,,,,,,,,,,,,,,,,,,,,0,4,4,2,1,,,,,,,,,,,,,,,,,,,,,,,,,,,,,,,,,,,,,,,,,,,,,,
102386,001,2022-11-21_24h48.25.629,Info_measure_main_exp,2022.2.2,Win32,60.13952369,,,,,,,,,,,,,,,,,,masks/mask_004.jpg,,,,,,,,,,,,,,,,,,,,,,,,,,,,,,,,,,,,,,,,,,,,,,,,0,0,0,3,1,,,,,,,,,,,,,,,,,,,,,,,,,,,,,,,,,,,,,,,,,
102386,001,2022-11-21_24h48.25.629,Info_measure_main_exp,2022.2.2,Win32,60.13952369,,,,,,,,,,,,,,,,,,masks/mask_003.jpg,,,,,,,,,,,,,,,,,,,,,,,,,,,,,,,,,,,,,,,,,,,,,,,,0,1,1,2,1,,,,,,,,,,,,,,,,,,,,,,,,,,,,,,,,,,,,,,,,,
102386,001,2022-11-21_24h48.25.629,Info_measure_main_exp,2022.2.2,Win32,60.13952369,,,,,,,,,,,,,,,,,,masks/mask_005.jpg,,,,,,,,,,,,,,,,,,,,,,,,,,,,,,,,,,,,,,,,,,,,,,,,0,2,2,4,1,,,,,,,,,,,,,,,,,,,,,,,,,,,,,,,,,,,,,,,,,
102386,001,2022-11-21_24h48.25.629,Info_measure_main_exp,2022.2.2,Win32,60.13952369,,,,,,,,,,,,,,,,,,masks/mask_001.jpg,,,,,,,,,,,,,,,,,,,,,,,,,,,,,,,,,,,,,,,,,,,,,,,,0,3,3,0,1,,,,,,,,,,,,,,,,,,,,,,,,,,,,,,,,,,,,,,,,,
102386,001,2022-11-21_24h48.25.629,Info_measure_main_exp,2022.2.2,Win32,60.13952369,,,,,,,,,,,,,,,,,,masks/mask_002.jpg,,,,,,,,,,,,,,,,,,,,,,,,,,,,,,,,,,,,,,,,,,,,,,,,0,4,4,1,1,,,,,,,,,,,,,,,,,,,,,,,,,,,,,,,,,,,,,,,,,
102386,001,2022-11-21_24h48.25.629,Info_measure_main_exp,2022.2.2,Win32,60.13952369,,,,,,,,,,,,,,,,,,,,,,,,,,,,,,0,1.4282,1,,,,,,,,,,,,0,131,5,5,2250,2250,absent_patch/patch0002250.jpg,absent_patch/patch0002250.jpg,,,,,,,,,,,,,,,,,,,,-0.039257262,0.093368692,1,0,0,response7disk,30,0,0.003183016,1,0,0,center_square,0,29,29,56,1,,,,,,,,,,,,,,,,,,,,,,,
102386,001,2022-11-21_24h48.25.629,Info_measure_main_exp,2022.2.2,Win32,60.13952369,,,,,,,,,,,,,,,,,,masks/mask_003.jpg,,,,,,,,,,,,,,,,,,,,,,,,,,,,,,,,,,,,,,,,,,,0,0,0,2,1,,,,,,,,,,,,,,,,,,,,,,,,,,,,,,,,,,,,,,,,,,,,,,
102386,001,2022-11-21_24h48.25.629,Info_measure_main_exp,2022.2.2,Win32,60.13952369,,,,,,,,,,,,,,,,,,masks/mask_001.jpg,,,,,,,,,,,,,,,,,,,,,,,,,,,,,,,,,,,,,,,,,,,0,1,1,0,1,,,,,,,,,,,,,,,,,,,,,,,,,,,,,,,,,,,,,,,,,,,,,,
102386,001,2022-11-21_24h48.25.629,Info_measure_main_exp,2022.2.2,Win32,60.13952369,,,,,,,,,,,,,,,,,,masks/mask_004.jpg,,,,,,,,,,,,,,,,,,,,,,,,,,,,,,,,,,,,,,,,,,,0,2,2,3,1,,,,,,,,,,,,,,,,,,,,,,,,,,,,,,,,,,,,,,,,,,,,,,
102386,001,2022-11-21_24h48.25.629,Info_measure_main_exp,2022.2.2,Win32,60.13952369,,,,,,,,,,,,,,,,,,masks/mask_005.jpg,,,,,,,,,,,,,,,,,,,,,,,,,,,,,,,,,,,,,,,,,,,0,3,3,4,1,,,,,,,,,,,,,,,,,,,,,,,,,,,,,,,,,,,,,,,,,,,,,,
102386,001,2022-11-21_24h48.25.629,Info_measure_main_exp,2022.2.2,Win32,60.13952369,,,,,,,,,,,,,,,,,,masks/mask_002.jpg,,,,,,,,,,,,,,,,,,,,,,,,,,,,,,,,,,,,,,,,,,,0,4,4,1,1,,,,,,,,,,,,,,,,,,,,,,,,,,,,,,,,,,,,,,,,,,,,,,
102386,001,2022-11-21_24h48.25.629,Info_measure_main_exp,2022.2.2,Win32,60.13952369,,,,,,,,,,,,,,,,,,masks/mask_004.jpg,,,,,,,,,,,,,,,,,,,,,,,,,,,,,,,,,,,,,,,,,,,,,,,,0,0,0,3,1,,,,,,,,,,,,,,,,,,,,,,,,,,,,,,,,,,,,,,,,,
102386,001,2022-11-21_24h48.25.629,Info_measure_main_exp,2022.2.2,Win32,60.13952369,,,,,,,,,,,,,,,,,,masks/mask_003.jpg,,,,,,,,,,,,,,,,,,,,,,,,,,,,,,,,,,,,,,,,,,,,,,,,0,1,1,2,1,,,,,,,,,,,,,,,,,,,,,,,,,,,,,,,,,,,,,,,,,
102386,001,2022-11-21_24h48.25.629,Info_measure_main_exp,2022.2.2,Win32,60.13952369,,,,,,,,,,,,,,,,,,masks/mask_005.jpg,,,,,,,,,,,,,,,,,,,,,,,,,,,,,,,,,,,,,,,,,,,,,,,,0,2,2,4,1,,,,,,,,,,,,,,,,,,,,,,,,,,,,,,,,,,,,,,,,,
102386,001,2022-11-21_24h48.25.629,Info_measure_main_exp,2022.2.2,Win32,60.13952369,,,,,,,,,,,,,,,,,,masks/mask_001.jpg,,,,,,,,,,,,,,,,,,,,,,,,,,,,,,,,,,,,,,,,,,,,,,,,0,3,3,0,1,,,,,,,,,,,,,,,,,,,,,,,,,,,,,,,,,,,,,,,,,
102386,001,2022-11-21_24h48.25.629,Info_measure_main_exp,2022.2.2,Win32,60.13952369,,,,,,,,,,,,,,,,,,masks/mask_002.jpg,,,,,,,,,,,,,,,,,,,,,,,,,,,,,,,,,,,,,,,,,,,,,,,,0,4,4,1,1,,,,,,,,,,,,,,,,,,,,,,,,,,,,,,,,,,,,,,,,,
102386,001,2022-11-21_24h48.25.629,Info_measure_main_exp,2022.2.2,Win32,60.13952369,,,,,,,,,,,,,,,,,,,,,,,,,,,,,,3,4.6323,1,,,,,,,,,,,,0,131,5,5,2274,2178,absent_patch/patch0002274.jpg,absent_patch/patch0002178.jpg,,,,,,,,,,,,,,,,,,,,-0.031830239,-0.087002661,1,0,0,response5disk,31,-0.008488015,-0.002122024,1,0,0,center_square,0,30,30,117,1,,,,,,,,,,,,,,,,,,,,,,,
102386,001,2022-11-21_24h48.25.629,Info_measure_main_exp,2022.2.2,Win32,60.13952369,,,,,,,,,,,,,,,,,,masks/mask_001.jpg,,,,,,,,,,,,,,,,,,,,,,,,,,,,,,,,,,,,,,,,,,,0,0,0,0,1,,,,,,,,,,,,,,,,,,,,,,,,,,,,,,,,,,,,,,,,,,,,,,
102386,001,2022-11-21_24h48.25.629,Info_measure_main_exp,2022.2.2,Win32,60.13952369,,,,,,,,,,,,,,,,,,masks/mask_002.jpg,,,,,,,,,,,,,,,,,,,,,,,,,,,,,,,,,,,,,,,,,,,0,1,1,1,1,,,,,,,,,,,,,,,,,,,,,,,,,,,,,,,,,,,,,,,,,,,,,,
102386,001,2022-11-21_24h48.25.629,Info_measure_main_exp,2022.2.2,Win32,60.13952369,,,,,,,,,,,,,,,,,,masks/mask_004.jpg,,,,,,,,,,,,,,,,,,,,,,,,,,,,,,,,,,,,,,,,,,,0,2,2,3,1,,,,,,,,,,,,,,,,,,,,,,,,,,,,,,,,,,,,,,,,,,,,,,
102386,001,2022-11-21_24h48.25.629,Info_measure_main_exp,2022.2.2,Win32,60.13952369,,,,,,,,,,,,,,,,,,masks/mask_005.jpg,,,,,,,,,,,,,,,,,,,,,,,,,,,,,,,,,,,,,,,,,,,0,3,3,4,1,,,,,,,,,,,,,,,,,,,,,,,,,,,,,,,,,,,,,,,,,,,,,,
102386,001,2022-11-21_24h48.25.629,Info_measure_main_exp,2022.2.2,Win32,60.13952369,,,,,,,,,,,,,,,,,,masks/mask_003.jpg,,,,,,,,,,,,,,,,,,,,,,,,,,,,,,,,,,,,,,,,,,,0,4,4,2,1,,,,,,,,,,,,,,,,,,,,,,,,,,,,,,,,,,,,,,,,,,,,,,
102386,001,2022-11-21_24h48.25.629,Info_measure_main_exp,2022.2.2,Win32,60.13952369,,,,,,,,,,,,,,,,,,masks/mask_004.jpg,,,,,,,,,,,,,,,,,,,,,,,,,,,,,,,,,,,,,,,,,,,,,,,,0,0,0,3,1,,,,,,,,,,,,,,,,,,,,,,,,,,,,,,,,,,,,,,,,,
102386,001,2022-11-21_24h48.25.629,Info_measure_main_exp,2022.2.2,Win32,60.13952369,,,,,,,,,,,,,,,,,,masks/mask_003.jpg,,,,,,,,,,,,,,,,,,,,,,,,,,,,,,,,,,,,,,,,,,,,,,,,0,1,1,2,1,,,,,,,,,,,,,,,,,,,,,,,,,,,,,,,,,,,,,,,,,
102386,001,2022-11-21_24h48.25.629,Info_measure_main_exp,2022.2.2,Win32,60.13952369,,,,,,,,,,,,,,,,,,masks/mask_002.jpg,,,,,,,,,,,,,,,,,,,,,,,,,,,,,,,,,,,,,,,,,,,,,,,,0,2,2,1,1,,,,,,,,,,,,,,,,,,,,,,,,,,,,,,,,,,,,,,,,,
102386,001,2022-11-21_24h48.25.629,Info_measure_main_exp,2022.2.2,Win32,60.13952369,,,,,,,,,,,,,,,,,,masks/mask_005.jpg,,,,,,,,,,,,,,,,,,,,,,,,,,,,,,,,,,,,,,,,,,,,,,,,0,3,3,4,1,,,,,,,,,,,,,,,,,,,,,,,,,,,,,,,,,,,,,,,,,
102386,001,2022-11-21_24h48.25.629,Info_measure_main_exp,2022.2.2,Win32,60.13952369,,,,,,,,,,,,,,,,,,masks/mask_001.jpg,,,,,,,,,,,,,,,,,,,,,,,,,,,,,,,,,,,,,,,,,,,,,,,,0,4,4,0,1,,,,,,,,,,,,,,,,,,,,,,,,,,,,,,,,,,,,,,,,,
102386,001,2022-11-21_24h48.25.629,Info_measure_main_exp,2022.2.2,Win32,60.13952369,,,,,,,,,,,,,,,,,,,,,,,,,,,,,,0,0.5175,1,,,,,,,,,,,,0,131,5,5,2214,2214,absent_patch/patch0002214.jpg,absent_patch/patch0002214.jpg,,,,,,,,,,,,,,,,,,,,-0.04880635,0.118832859,1,0,0,response7disk,32,0.006366032,0.002121984,1,0,0,center_square,0,31,31,115,1,,,,,,,,,,,,,,,,,,,,,,,
102386,001,2022-11-21_24h48.25.629,Info_measure_main_exp,2022.2.2,Win32,60.13952369,,,,,,,,,,,,,,,,,,masks/mask_004.jpg,,,,,,,,,,,,,,,,,,,,,,,,,,,,,,,,,,,,,,,,,,,0,0,0,3,1,,,,,,,,,,,,,,,,,,,,,,,,,,,,,,,,,,,,,,,,,,,,,,
102386,001,2022-11-21_24h48.25.629,Info_measure_main_exp,2022.2.2,Win32,60.13952369,,,,,,,,,,,,,,,,,,masks/mask_001.jpg,,,,,,,,,,,,,,,,,,,,,,,,,,,,,,,,,,,,,,,,,,,0,1,1,0,1,,,,,,,,,,,,,,,,,,,,,,,,,,,,,,,,,,,,,,,,,,,,,,
102386,001,2022-11-21_24h48.25.629,Info_measure_main_exp,2022.2.2,Win32,60.13952369,,,,,,,,,,,,,,,,,,masks/mask_003.jpg,,,,,,,,,,,,,,,,,,,,,,,,,,,,,,,,,,,,,,,,,,,0,2,2,2,1,,,,,,,,,,,,,,,,,,,,,,,,,,,,,,,,,,,,,,,,,,,,,,
102386,001,2022-11-21_24h48.25.629,Info_measure_main_exp,2022.2.2,Win32,60.13952369,,,,,,,,,,,,,,,,,,masks/mask_002.jpg,,,,,,,,,,,,,,,,,,,,,,,,,,,,,,,,,,,,,,,,,,,0,3,3,1,1,,,,,,,,,,,,,,,,,,,,,,,,,,,,,,,,,,,,,,,,,,,,,,
102386,001,2022-11-21_24h48.25.629,Info_measure_main_exp,2022.2.2,Win32,60.13952369,,,,,,,,,,,,,,,,,,masks/mask_005.jpg,,,,,,,,,,,,,,,,,,,,,,,,,,,,,,,,,,,,,,,,,,,0,4,4,4,1,,,,,,,,,,,,,,,,,,,,,,,,,,,,,,,,,,,,,,,,,,,,,,
102386,001,2022-11-21_24h48.25.629,Info_measure_main_exp,2022.2.2,Win32,60.13952369,,,,,,,,,,,,,,,,,,masks/mask_004.jpg,,,,,,,,,,,,,,,,,,,,,,,,,,,,,,,,,,,,,,,,,,,,,,,,0,0,0,3,1,,,,,,,,,,,,,,,,,,,,,,,,,,,,,,,,,,,,,,,,,
102386,001,2022-11-21_24h48.25.629,Info_measure_main_exp,2022.2.2,Win32,60.13952369,,,,,,,,,,,,,,,,,,masks/mask_005.jpg,,,,,,,,,,,,,,,,,,,,,,,,,,,,,,,,,,,,,,,,,,,,,,,,0,1,1,4,1,,,,,,,,,,,,,,,,,,,,,,,,,,,,,,,,,,,,,,,,,
102386,001,2022-11-21_24h48.25.629,Info_measure_main_exp,2022.2.2,Win32,60.13952369,,,,,,,,,,,,,,,,,,masks/mask_003.jpg,,,,,,,,,,,,,,,,,,,,,,,,,,,,,,,,,,,,,,,,,,,,,,,,0,2,2,2,1,,,,,,,,,,,,,,,,,,,,,,,,,,,,,,,,,,,,,,,,,
102386,001,2022-11-21_24h48.25.629,Info_measure_main_exp,2022.2.2,Win32,60.13952369,,,,,,,,,,,,,,,,,,masks/mask_002.jpg,,,,,,,,,,,,,,,,,,,,,,,,,,,,,,,,,,,,,,,,,,,,,,,,0,3,3,1,1,,,,,,,,,,,,,,,,,,,,,,,,,,,,,,,,,,,,,,,,,
102386,001,2022-11-21_24h48.25.629,Info_measure_main_exp,2022.2.2,Win32,60.13952369,,,,,,,,,,,,,,,,,,masks/mask_001.jpg,,,,,,,,,,,,,,,,,,,,,,,,,,,,,,,,,,,,,,,,,,,,,,,,0,4,4,0,1,,,,,,,,,,,,,,,,,,,,,,,,,,,,,,,,,,,,,,,,,
102386,001,2022-11-21_24h48.25.629,Info_measure_main_exp,2022.2.2,Win32,60.13952369,,,,,,,,,,,,,,,,,,,,,,,,,,,,,,5,1.6325,1,,,,,,,,,,,,0,131,5,5,2166,2298,absent_patch/patch0002166.jpg,absent_patch/patch0002298.jpg,,,,,,,,,,,,,,,,,,,,0.12413798,-0.067904525,1,0,0,response3disk,33,0.003183056,0.01061008,1,0,0,center_square,0,32,32,52,1,,,,,,,,,,,,,,,,,,,,,,,
102386,001,2022-11-21_24h48.25.629,Info_measure_main_exp,2022.2.2,Win32,60.13952369,,,,,,,,,,,,,,,,,,masks/mask_002.jpg,,,,,,,,,,,,,,,,,,,,,,,,,,,,,,,,,,,,,,,,,,,0,0,0,1,1,,,,,,,,,,,,,,,,,,,,,,,,,,,,,,,,,,,,,,,,,,,,,,
102386,001,2022-11-21_24h48.25.629,Info_measure_main_exp,2022.2.2,Win32,60.13952369,,,,,,,,,,,,,,,,,,masks/mask_005.jpg,,,,,,,,,,,,,,,,,,,,,,,,,,,,,,,,,,,,,,,,,,,0,1,1,4,1,,,,,,,,,,,,,,,,,,,,,,,,,,,,,,,,,,,,,,,,,,,,,,
102386,001,2022-11-21_24h48.25.629,Info_measure_main_exp,2022.2.2,Win32,60.13952369,,,,,,,,,,,,,,,,,,masks/mask_001.jpg,,,,,,,,,,,,,,,,,,,,,,,,,,,,,,,,,,,,,,,,,,,0,2,2,0,1,,,,,,,,,,,,,,,,,,,,,,,,,,,,,,,,,,,,,,,,,,,,,,
102386,001,2022-11-21_24h48.25.629,Info_measure_main_exp,2022.2.2,Win32,60.13952369,,,,,,,,,,,,,,,,,,masks/mask_003.jpg,,,,,,,,,,,,,,,,,,,,,,,,,,,,,,,,,,,,,,,,,,,0,3,3,2,1,,,,,,,,,,,,,,,,,,,,,,,,,,,,,,,,,,,,,,,,,,,,,,
102386,001,2022-11-21_24h48.25.629,Info_measure_main_exp,2022.2.2,Win32,60.13952369,,,,,,,,,,,,,,,,,,masks/mask_004.jpg,,,,,,,,,,,,,,,,,,,,,,,,,,,,,,,,,,,,,,,,,,,0,4,4,3,1,,,,,,,,,,,,,,,,,,,,,,,,,,,,,,,,,,,,,,,,,,,,,,
102386,001,2022-11-21_24h48.25.629,Info_measure_main_exp,2022.2.2,Win32,60.13952369,,,,,,,,,,,,,,,,,,masks/mask_003.jpg,,,,,,,,,,,,,,,,,,,,,,,,,,,,,,,,,,,,,,,,,,,,,,,,0,0,0,2,1,,,,,,,,,,,,,,,,,,,,,,,,,,,,,,,,,,,,,,,,,
102386,001,2022-11-21_24h48.25.629,Info_measure_main_exp,2022.2.2,Win32,60.13952369,,,,,,,,,,,,,,,,,,masks/mask_004.jpg,,,,,,,,,,,,,,,,,,,,,,,,,,,,,,,,,,,,,,,,,,,,,,,,0,1,1,3,1,,,,,,,,,,,,,,,,,,,,,,,,,,,,,,,,,,,,,,,,,
102386,001,2022-11-21_24h48.25.629,Info_measure_main_exp,2022.2.2,Win32,60.13952369,,,,,,,,,,,,,,,,,,masks/mask_005.jpg,,,,,,,,,,,,,,,,,,,,,,,,,,,,,,,,,,,,,,,,,,,,,,,,0,2,2,4,1,,,,,,,,,,,,,,,,,,,,,,,,,,,,,,,,,,,,,,,,,
102386,001,2022-11-21_24h48.25.629,Info_measure_main_exp,2022.2.2,Win32,60.13952369,,,,,,,,,,,,,,,,,,masks/mask_002.jpg,,,,,,,,,,,,,,,,,,,,,,,,,,,,,,,,,,,,,,,,,,,,,,,,0,3,3,1,1,,,,,,,,,,,,,,,,,,,,,,,,,,,,,,,,,,,,,,,,,
102386,001,2022-11-21_24h48.25.629,Info_measure_main_exp,2022.2.2,Win32,60.13952369,,,,,,,,,,,,,,,,,,masks/mask_001.jpg,,,,,,,,,,,,,,,,,,,,,,,,,,,,,,,,,,,,,,,,,,,,,,,,0,4,4,0,1,,,,,,,,,,,,,,,,,,,,,,,,,,,,,,,,,,,,,,,,,
102386,001,2022-11-21_24h48.25.629,Info_measure_main_exp,2022.2.2,Win32,60.13952369,,,,,,,,,,,,,,,,,,,,,,,,,,,,,,0,0.6757,1,,,,,,,,,,,,1,131,5,5,1,1,present_patch/cong_131_5_a.jpg,present_patch/cong_131_5_a.jpg,,,,,,,,,,,,,,,,,,,,-0.111405836,0.144297066,1,0,0,response7disk,34,0.002122064,-0.001061032,1,0,0,center_square,0,33,33,30,1,,,,,,,,,,,,,,,,,,,,,,,
102386,001,2022-11-21_24h48.25.629,Info_measure_main_exp,2022.2.2,Win32,60.13952369,,,,,,,,,,,,,,,,,,masks/mask_001.jpg,,,,,,,,,,,,,,,,,,,,,,,,,,,,,,,,,,,,,,,,,,,0,0,0,0,1,,,,,,,,,,,,,,,,,,,,,,,,,,,,,,,,,,,,,,,,,,,,,,
102386,001,2022-11-21_24h48.25.629,Info_measure_main_exp,2022.2.2,Win32,60.13952369,,,,,,,,,,,,,,,,,,masks/mask_005.jpg,,,,,,,,,,,,,,,,,,,,,,,,,,,,,,,,,,,,,,,,,,,0,1,1,4,1,,,,,,,,,,,,,,,,,,,,,,,,,,,,,,,,,,,,,,,,,,,,,,
102386,001,2022-11-21_24h48.25.629,Info_measure_main_exp,2022.2.2,Win32,60.13952369,,,,,,,,,,,,,,,,,,masks/mask_003.jpg,,,,,,,,,,,,,,,,,,,,,,,,,,,,,,,,,,,,,,,,,,,0,2,2,2,1,,,,,,,,,,,,,,,,,,,,,,,,,,,,,,,,,,,,,,,,,,,,,,
102386,001,2022-11-21_24h48.25.629,Info_measure_main_exp,2022.2.2,Win32,60.13952369,,,,,,,,,,,,,,,,,,masks/mask_004.jpg,,,,,,,,,,,,,,,,,,,,,,,,,,,,,,,,,,,,,,,,,,,0,3,3,3,1,,,,,,,,,,,,,,,,,,,,,,,,,,,,,,,,,,,,,,,,,,,,,,
102386,001,2022-11-21_24h48.25.629,Info_measure_main_exp,2022.2.2,Win32,60.13952369,,,,,,,,,,,,,,,,,,masks/mask_002.jpg,,,,,,,,,,,,,,,,,,,,,,,,,,,,,,,,,,,,,,,,,,,0,4,4,1,1,,,,,,,,,,,,,,,,,,,,,,,,,,,,,,,,,,,,,,,,,,,,,,
102386,001,2022-11-21_24h48.25.629,Info_measure_main_exp,2022.2.2,Win32,60.13952369,,,,,,,,,,,,,,,,,,masks/mask_003.jpg,,,,,,,,,,,,,,,,,,,,,,,,,,,,,,,,,,,,,,,,,,,,,,,,0,0,0,2,1,,,,,,,,,,,,,,,,,,,,,,,,,,,,,,,,,,,,,,,,,
102386,001,2022-11-21_24h48.25.629,Info_measure_main_exp,2022.2.2,Win32,60.13952369,,,,,,,,,,,,,,,,,,masks/mask_001.jpg,,,,,,,,,,,,,,,,,,,,,,,,,,,,,,,,,,,,,,,,,,,,,,,,0,1,1,0,1,,,,,,,,,,,,,,,,,,,,,,,,,,,,,,,,,,,,,,,,,
102386,001,2022-11-21_24h48.25.629,Info_measure_main_exp,2022.2.2,Win32,60.13952369,,,,,,,,,,,,,,,,,,masks/mask_004.jpg,,,,,,,,,,,,,,,,,,,,,,,,,,,,,,,,,,,,,,,,,,,,,,,,0,2,2,3,1,,,,,,,,,,,,,,,,,,,,,,,,,,,,,,,,,,,,,,,,,
102386,001,2022-11-21_24h48.25.629,Info_measure_main_exp,2022.2.2,Win32,60.13952369,,,,,,,,,,,,,,,,,,masks/mask_005.jpg,,,,,,,,,,,,,,,,,,,,,,,,,,,,,,,,,,,,,,,,,,,,,,,,0,3,3,4,1,,,,,,,,,,,,,,,,,,,,,,,,,,,,,,,,,,,,,,,,,
