participant,session,date,expName,psychopyVersion,OS,frameRate,space_press_continue.keys,space_press_continue.rt,space_press_continue_2.keys,space_press_continue_2.rt,space_press_continue_3.keys,space_press_continue_3.rt,space_press_continue_4.keys,space_press_continue_4.rt,space_press_continue_5.keys,space_press_continue_5.rt,space_press_continue_6.keys,space_press_continue_6.rt,prac_mask_loop_1.thisRepN,prac_mask_loop_1.thisTrialN,prac_mask_loop_1.thisN,prac_mask_loop_1.thisIndex,prac_mask_loop_1.ran,mask_name,prac_mask_loop_2.thisRepN,prac_mask_loop_2.thisTrialN,prac_mask_loop_2.thisN,prac_mask_loop_2.thisIndex,prac_mask_loop_2.ran,mouse_2.x,mouse_2.y,mouse_2.leftButton,mouse_2.midButton,mouse_2.rightButton,mouse_2.clicked_name,similarity,response_time,Pass,mouse_12.x,mouse_12.y,mouse_12.leftButton,mouse_12.midButton,mouse_12.rightButton,mouse_12.clicked_name,prac_loop.thisRepN,prac_loop.thisTrialN,prac_loop.thisN,prac_loop.thisIndex,prac_loop.ran,Pair_type,Image_num,Patch_1_loc,Patch_2_loc,Patch_1_info,Patch_2_info,Patch_1_name,Patch_2_name,mouse_1.x,mouse_1.y,mouse_1.leftButton,mouse_1.midButton,mouse_1.rightButton,mouse_1.time,mouse_1.clicked_name,space_press_continue_7.keys,space_press_continue_7.rt,mask_loop.thisRepN,mask_loop.thisTrialN,mask_loop.thisN,mask_loop.thisIndex,mask_loop.ran,mask_loop_2.thisRepN,mask_loop_2.thisTrialN,mask_loop_2.thisN,mask_loop_2.thisIndex,mask_loop_2.ran,mouse.x,mouse.y,mouse.leftButton,mouse.midButton,mouse.rightButton,mouse.clicked_name,trialNumber,mouse_11.x,mouse_11.y,mouse_11.leftButton,mouse_11.midButton,mouse_11.rightButton,mouse_11.clicked_name,first_pass_loop.thisRepN,first_pass_loop.thisTrialN,first_pass_loop.thisN,first_pass_loop.thisIndex,first_pass_loop.ran,mask_loop_3.thisRepN,mask_loop_3.thisTrialN,mask_loop_3.thisN,mask_loop_3.thisIndex,mask_loop_3.ran,mask_loop_4.thisRepN,mask_loop_4.thisTrialN,mask_loop_4.thisN,mask_loop_4.thisIndex,mask_loop_4.ran,mouse_3.x,mouse_3.y,mouse_3.leftButton,mouse_3.midButton,mouse_3.rightButton,mouse_3.clicked_name,double_pass_loop.thisRepN,double_pass_loop.thisTrialN,double_pass_loop.thisN,double_pass_loop.thisIndex,double_pass_loop.ran,space_exit.keys,space_exit.rt
107952,001,2022-11-21_24h51.19.034,Info_measure_main_exp,2022.2.2,Win32,58.95878781,,,,,,,,,,,,,,,,,,,,,,,,,,,,,,,,,,,,,,,,,,,,,,,,,,,,,,,,,,,,,,,,,,,,,,,,,,,,,,,,,,,,,,,,,,,,,,,,,,,,,,,,,,,,,,,
107952,001,2022-11-21_24h51.19.034,Info_measure_main_exp,2022.2.2,Win32,58.95878781,,,,,,,,,,,,,,,,,,,,,,,,,,,,,,,,,,,,,,,,,,,,,,,,,,,,,,,,,,,,,,,,,,,,,,,,,,,,,,,,,,,,,,,,,,,,,,,,,,,,,,,,,,,,,,,
107952,001,2022-11-21_24h51.19.034,Info_measure_main_exp,2022.2.2,Win32,58.95878781,space,11.9658,,,,,,,,,,,,,,,,,,,,,,,,,,,,,,,,,,,,,,,,,,,,,,,,,,,,,,,,,,,,,,,,,,,,,,,,,,,,,,,,,,,,,,,,,,,,,,,,,,,,,,,,,,,,,
107952,001,2022-11-21_24h51.19.034,Info_measure_main_exp,2022.2.2,Win32,58.95878781,,,space,10.514,,,,,,,,,,,,,,,,,,,,,,,,,,,,,,,,,,,,,,,,,,,,,,,,,,,,,,,,,,,,,,,,,,,,,,,,,,,,,,,,,,,,,,,,,,,,,,,,,,,,,,,,,,,
107952,001,2022-11-21_24h51.19.034,Info_measure_main_exp,2022.2.2,Win32,58.95878781,,,,,space,8.336,,,,,,,,,,,,,,,,,,,,,,,,,,,,,,,,,,,,,,,,,,,,,,,,,,,,,,,,,,,,,,,,,,,,,,,,,,,,,,,,,,,,,,,,,,,,,,,,,,,,,,,,,
107952,001,2022-11-21_24h51.19.034,Info_measure_main_exp,2022.2.2,Win32,58.95878781,,,,,,,space,10.999,,,,,,,,,,,,,,,,,,,,,,,,,,,,,,,,,,,,,,,,,,,,,,,,,,,,,,,,,,,,,,,,,,,,,,,,,,,,,,,,,,,,,,,,,,,,,,,,,,,,,,,
107952,001,2022-11-21_24h51.19.034,Info_measure_main_exp,2022.2.2,Win32,58.95878781,,,,,,,,,space,5.4569,,,,,,,,,,,,,,,,,,,,,,,,,,,,,,,,,,,,,,,,,,,,,,,,,,,,,,,,,,,,,,,,,,,,,,,,,,,,,,,,,,,,,,,,,,,,,,,,,,,,,
107952,001,2022-11-21_24h51.19.034,Info_measure_main_exp,2022.2.2,Win32,58.95878781,,,,,,,,,,,space,3.1303,,,,,,,,,,,,,,,,,,,,,,,,,,,,,,,,,,,,,,,,,,,,,,,,,,,,,,,,,,,,,,,,,,,,,,,,,,,,,,,,,,,,,,,,,,,,,,,,,,,
107952,001,2022-11-21_24h51.19.034,Info_measure_main_exp,2022.2.2,Win32,58.95878781,,,,,,,,,,,,,0,0,0,1,1,masks/mask_002.jpg,,,,,,,,,,,,,,,,,,,,,,,,,,,,,,,,,,,,,,,,,,,,,,,,,,,,,,,,,,,,,,,,,,,,,,,,,,,,,,,,,,,,,,,,,,,,,
107952,001,2022-11-21_24h51.19.034,Info_measure_main_exp,2022.2.2,Win32,58.95878781,,,,,,,,,,,,,0,1,1,3,1,masks/mask_004.jpg,,,,,,,,,,,,,,,,,,,,,,,,,,,,,,,,,,,,,,,,,,,,,,,,,,,,,,,,,,,,,,,,,,,,,,,,,,,,,,,,,,,,,,,,,,,,,
107952,001,2022-11-21_24h51.19.034,Info_measure_main_exp,2022.2.2,Win32,58.95878781,,,,,,,,,,,,,0,2,2,4,1,masks/mask_005.jpg,,,,,,,,,,,,,,,,,,,,,,,,,,,,,,,,,,,,,,,,,,,,,,,,,,,,,,,,,,,,,,,,,,,,,,,,,,,,,,,,,,,,,,,,,,,,,
107952,001,2022-11-21_24h51.19.034,Info_measure_main_exp,2022.2.2,Win32,58.95878781,,,,,,,,,,,,,0,3,3,0,1,masks/mask_001.jpg,,,,,,,,,,,,,,,,,,,,,,,,,,,,,,,,,,,,,,,,,,,,,,,,,,,,,,,,,,,,,,,,,,,,,,,,,,,,,,,,,,,,,,,,,,,,,
107952,001,2022-11-21_24h51.19.034,Info_measure_main_exp,2022.2.2,Win32,58.95878781,,,,,,,,,,,,,0,4,4,2,1,masks/mask_003.jpg,,,,,,,,,,,,,,,,,,,,,,,,,,,,,,,,,,,,,,,,,,,,,,,,,,,,,,,,,,,,,,,,,,,,,,,,,,,,,,,,,,,,,,,,,,,,,
107952,001,2022-11-21_24h51.19.034,Info_measure_main_exp,2022.2.2,Win32,58.95878781,,,,,,,,,,,,,,,,,,masks/mask_001.jpg,0,0,0,0,1,,,,,,,,,,,,,,,,,,,,,,,,,,,,,,,,,,,,,,,,,,,,,,,,,,,,,,,,,,,,,,,,,,,,,,,,,,,,,,,,,,,,,,,,
107952,001,2022-11-21_24h51.19.034,Info_measure_main_exp,2022.2.2,Win32,58.95878781,,,,,,,,,,,,,,,,,,masks/mask_002.jpg,0,1,1,1,1,,,,,,,,,,,,,,,,,,,,,,,,,,,,,,,,,,,,,,,,,,,,,,,,,,,,,,,,,,,,,,,,,,,,,,,,,,,,,,,,,,,,,,,,
107952,001,2022-11-21_24h51.19.034,Info_measure_main_exp,2022.2.2,Win32,58.95878781,,,,,,,,,,,,,,,,,,masks/mask_004.jpg,0,2,2,3,1,,,,,,,,,,,,,,,,,,,,,,,,,,,,,,,,,,,,,,,,,,,,,,,,,,,,,,,,,,,,,,,,,,,,,,,,,,,,,,,,,,,,,,,,
107952,001,2022-11-21_24h51.19.034,Info_measure_main_exp,2022.2.2,Win32,58.95878781,,,,,,,,,,,,,,,,,,masks/mask_003.jpg,0,3,3,2,1,,,,,,,,,,,,,,,,,,,,,,,,,,,,,,,,,,,,,,,,,,,,,,,,,,,,,,,,,,,,,,,,,,,,,,,,,,,,,,,,,,,,,,,,
107952,001,2022-11-21_24h51.19.034,Info_measure_main_exp,2022.2.2,Win32,58.95878781,,,,,,,,,,,,,,,,,,masks/mask_005.jpg,0,4,4,4,1,,,,,,,,,,,,,,,,,,,,,,,,,,,,,,,,,,,,,,,,,,,,,,,,,,,,,,,,,,,,,,,,,,,,,,,,,,,,,,,,,,,,,,,,
107952,001,2022-11-21_24h51.19.034,Info_measure_main_exp,2022.2.2,Win32,58.95878781,,,,,,,,,,,,,,,,,,,,,,,,-0.012380952,-0.096190476,1,0,0,response5disk,3,54.8994,1,0,0.001904762,1,0,0,center_square,0,0,0,0,1,0,131,5,5,2370,2406,prac_patch/patch0002370.jpg,prac_patch/patch0002406.jpg,,,,,,,,,,,,,,,,,,,,,,,,,,,,,,,,,,,,,,,,,,,,,,,,,,,,,,,,,,,,
107952,001,2022-11-21_24h51.19.034,Info_measure_main_exp,2022.2.2,Win32,58.95878781,,,,,,,,,,,,,0,0,0,4,1,masks/mask_005.jpg,,,,,,,,,,,,,,,,,,,,,,,,,,,,,,,,,,,,,,,,,,,,,,,,,,,,,,,,,,,,,,,,,,,,,,,,,,,,,,,,,,,,,,,,,,,,,
107952,001,2022-11-21_24h51.19.034,Info_measure_main_exp,2022.2.2,Win32,58.95878781,,,,,,,,,,,,,0,1,1,3,1,masks/mask_004.jpg,,,,,,,,,,,,,,,,,,,,,,,,,,,,,,,,,,,,,,,,,,,,,,,,,,,,,,,,,,,,,,,,,,,,,,,,,,,,,,,,,,,,,,,,,,,,,
107952,001,2022-11-21_24h51.19.034,Info_measure_main_exp,2022.2.2,Win32,58.95878781,,,,,,,,,,,,,0,2,2,0,1,masks/mask_001.jpg,,,,,,,,,,,,,,,,,,,,,,,,,,,,,,,,,,,,,,,,,,,,,,,,,,,,,,,,,,,,,,,,,,,,,,,,,,,,,,,,,,,,,,,,,,,,,
107952,001,2022-11-21_24h51.19.034,Info_measure_main_exp,2022.2.2,Win32,58.95878781,,,,,,,,,,,,,0,3,3,1,1,masks/mask_002.jpg,,,,,,,,,,,,,,,,,,,,,,,,,,,,,,,,,,,,,,,,,,,,,,,,,,,,,,,,,,,,,,,,,,,,,,,,,,,,,,,,,,,,,,,,,,,,,
107952,001,2022-11-21_24h51.19.034,Info_measure_main_exp,2022.2.2,Win32,58.95878781,,,,,,,,,,,,,0,4,4,2,1,masks/mask_003.jpg,,,,,,,,,,,,,,,,,,,,,,,,,,,,,,,,,,,,,,,,,,,,,,,,,,,,,,,,,,,,,,,,,,,,,,,,,,,,,,,,,,,,,,,,,,,,,
107952,001,2022-11-21_24h51.19.034,Info_measure_main_exp,2022.2.2,Win32,58.95878781,,,,,,,,,,,,,,,,,,masks/mask_005.jpg,0,0,0,4,1,,,,,,,,,,,,,,,,,,,,,,,,,,,,,,,,,,,,,,,,,,,,,,,,,,,,,,,,,,,,,,,,,,,,,,,,,,,,,,,,,,,,,,,,
107952,001,2022-11-21_24h51.19.034,Info_measure_main_exp,2022.2.2,Win32,58.95878781,,,,,,,,,,,,,,,,,,masks/mask_003.jpg,0,1,1,2,1,,,,,,,,,,,,,,,,,,,,,,,,,,,,,,,,,,,,,,,,,,,,,,,,,,,,,,,,,,,,,,,,,,,,,,,,,,,,,,,,,,,,,,,,
107952,001,2022-11-21_24h51.19.034,Info_measure_main_exp,2022.2.2,Win32,58.95878781,,,,,,,,,,,,,,,,,,masks/mask_004.jpg,0,2,2,3,1,,,,,,,,,,,,,,,,,,,,,,,,,,,,,,,,,,,,,,,,,,,,,,,,,,,,,,,,,,,,,,,,,,,,,,,,,,,,,,,,,,,,,,,,
107952,001,2022-11-21_24h51.19.034,Info_measure_main_exp,2022.2.2,Win32,58.95878781,,,,,,,,,,,,,,,,,,masks/mask_001.jpg,0,3,3,0,1,,,,,,,,,,,,,,,,,,,,,,,,,,,,,,,,,,,,,,,,,,,,,,,,,,,,,,,,,,,,,,,,,,,,,,,,,,,,,,,,,,,,,,,,
107952,001,2022-11-21_24h51.19.034,Info_measure_main_exp,2022.2.2,Win32,58.95878781,,,,,,,,,,,,,,,,,,masks/mask_002.jpg,0,4,4,1,1,,,,,,,,,,,,,,,,,,,,,,,,,,,,,,,,,,,,,,,,,,,,,,,,,,,,,,,,,,,,,,,,,,,,,,,,,,,,,,,,,,,,,,,,
107952,001,2022-11-21_24h51.19.034,Info_measure_main_exp,2022.2.2,Win32,58.95878781,,,,,,,,,,,,,,,,,,,,,,,,0.098095238,-0.033333333,1,0,0,response3disk,5,69.4766,1,0,-0.000952381,1,0,0,center_square,0,1,1,2,1,0,131,5,5,2526,2526,prac_patch/patch0002526.jpg,prac_patch/patch0002526.jpg,,,,,,,,,,,,,,,,,,,,,,,,,,,,,,,,,,,,,,,,,,,,,,,,,,,,,,,,,,,,
107952,001,2022-11-21_24h51.19.034,Info_measure_main_exp,2022.2.2,Win32,58.95878781,,,,,,,,,,,,,0,0,0,0,1,masks/mask_001.jpg,,,,,,,,,,,,,,,,,,,,,,,,,,,,,,,,,,,,,,,,,,,,,,,,,,,,,,,,,,,,,,,,,,,,,,,,,,,,,,,,,,,,,,,,,,,,,
107952,001,2022-11-21_24h51.19.034,Info_measure_main_exp,2022.2.2,Win32,58.95878781,,,,,,,,,,,,,0,1,1,1,1,masks/mask_002.jpg,,,,,,,,,,,,,,,,,,,,,,,,,,,,,,,,,,,,,,,,,,,,,,,,,,,,,,,,,,,,,,,,,,,,,,,,,,,,,,,,,,,,,,,,,,,,,
107952,001,2022-11-21_24h51.19.034,Info_measure_main_exp,2022.2.2,Win32,58.95878781,,,,,,,,,,,,,0,2,2,2,1,masks/mask_003.jpg,,,,,,,,,,,,,,,,,,,,,,,,,,,,,,,,,,,,,,,,,,,,,,,,,,,,,,,,,,,,,,,,,,,,,,,,,,,,,,,,,,,,,,,,,,,,,
107952,001,2022-11-21_24h51.19.034,Info_measure_main_exp,2022.2.2,Win32,58.95878781,,,,,,,,,,,,,0,3,3,3,1,masks/mask_004.jpg,,,,,,,,,,,,,,,,,,,,,,,,,,,,,,,,,,,,,,,,,,,,,,,,,,,,,,,,,,,,,,,,,,,,,,,,,,,,,,,,,,,,,,,,,,,,,
107952,001,2022-11-21_24h51.19.034,Info_measure_main_exp,2022.2.2,Win32,58.95878781,,,,,,,,,,,,,0,4,4,4,1,masks/mask_005.jpg,,,,,,,,,,,,,,,,,,,,,,,,,,,,,,,,,,,,,,,,,,,,,,,,,,,,,,,,,,,,,,,,,,,,,,,,,,,,,,,,,,,,,,,,,,,,,
107952,001,2022-11-21_24h51.19.034,Info_measure_main_exp,2022.2.2,Win32,58.95878781,,,,,,,,,,,,,,,,,,masks/mask_001.jpg,0,0,0,0,1,,,,,,,,,,,,,,,,,,,,,,,,,,,,,,,,,,,,,,,,,,,,,,,,,,,,,,,,,,,,,,,,,,,,,,,,,,,,,,,,,,,,,,,,
107952,001,2022-11-21_24h51.19.034,Info_measure_main_exp,2022.2.2,Win32,58.95878781,,,,,,,,,,,,,,,,,,masks/mask_002.jpg,0,1,1,1,1,,,,,,,,,,,,,,,,,,,,,,,,,,,,,,,,,,,,,,,,,,,,,,,,,,,,,,,,,,,,,,,,,,,,,,,,,,,,,,,,,,,,,,,,
107952,001,2022-11-21_24h51.19.034,Info_measure_main_exp,2022.2.2,Win32,58.95878781,,,,,,,,,,,,,,,,,,masks/mask_004.jpg,0,2,2,3,1,,,,,,,,,,,,,,,,,,,,,,,,,,,,,,,,,,,,,,,,,,,,,,,,,,,,,,,,,,,,,,,,,,,,,,,,,,,,,,,,,,,,,,,,
107952,001,2022-11-21_24h51.19.034,Info_measure_main_exp,2022.2.2,Win32,58.95878781,,,,,,,,,,,,,,,,,,masks/mask_003.jpg,0,3,3,2,1,,,,,,,,,,,,,,,,,,,,,,,,,,,,,,,,,,,,,,,,,,,,,,,,,,,,,,,,,,,,,,,,,,,,,,,,,,,,,,,,,,,,,,,,
107952,001,2022-11-21_24h51.19.034,Info_measure_main_exp,2022.2.2,Win32,58.95878781,,,,,,,,,,,,,,,,,,masks/mask_005.jpg,0,4,4,4,1,,,,,,,,,,,,,,,,,,,,,,,,,,,,,,,,,,,,,,,,,,,,,,,,,,,,,,,,,,,,,,,,,,,,,,,,,,,,,,,,,,,,,,,,
107952,001,2022-11-21_24h51.19.034,Info_measure_main_exp,2022.2.2,Win32,58.95878781,,,,,,,,,,,,,,,,,,,,,,,,-0.078095238,-0.017142857,1,0,0,response5disk,2,79.2863,1,-0.002857143,0.003809524,1,0,0,center_square,0,2,2,1,1,0,131,5,5,2514,2490,prac_patch/patch0002514.jpg,prac_patch/patch0002490.jpg,,,,,,,,,,,,,,,,,,,,,,,,,,,,,,,,,,,,,,,,,,,,,,,,,,,,,,,,,,,,
107952,001,2022-11-21_24h51.19.034,Info_measure_main_exp,2022.2.2,Win32,58.95878781,,,,,,,,,,,,,,,,,,,,,,,,,,,,,,,,,,,,,,,,,,,,,,,,,,,,,,,,,,,space,2.9519,,,,,,,,,,,,,,,,,,,,,,,,,,,,,,,,,,,,,,,,,,,,,,,,,,,
107952,001,2022-11-21_24h51.19.034,Info_measure_main_exp,2022.2.2,Win32,58.95878781,,,,,,,,,,,,,,,,,,masks/mask_001.jpg,,,,,,,,,,,,,,,,,,,,,,,,,,,,,,,,,,,,,,,,,,,0,0,0,0,1,,,,,,,,,,,,,,,,,,,,,,,,,,,,,,,,,,,,,,,,,,,,,,
107952,001,2022-11-21_24h51.19.034,Info_measure_main_exp,2022.2.2,Win32,58.95878781,,,,,,,,,,,,,,,,,,masks/mask_005.jpg,,,,,,,,,,,,,,,,,,,,,,,,,,,,,,,,,,,,,,,,,,,0,1,1,4,1,,,,,,,,,,,,,,,,,,,,,,,,,,,,,,,,,,,,,,,,,,,,,,
107952,001,2022-11-21_24h51.19.034,Info_measure_main_exp,2022.2.2,Win32,58.95878781,,,,,,,,,,,,,,,,,,masks/mask_003.jpg,,,,,,,,,,,,,,,,,,,,,,,,,,,,,,,,,,,,,,,,,,,0,2,2,2,1,,,,,,,,,,,,,,,,,,,,,,,,,,,,,,,,,,,,,,,,,,,,,,
107952,001,2022-11-21_24h51.19.034,Info_measure_main_exp,2022.2.2,Win32,58.95878781,,,,,,,,,,,,,,,,,,masks/mask_004.jpg,,,,,,,,,,,,,,,,,,,,,,,,,,,,,,,,,,,,,,,,,,,0,3,3,3,1,,,,,,,,,,,,,,,,,,,,,,,,,,,,,,,,,,,,,,,,,,,,,,
107952,001,2022-11-21_24h51.19.034,Info_measure_main_exp,2022.2.2,Win32,58.95878781,,,,,,,,,,,,,,,,,,masks/mask_002.jpg,,,,,,,,,,,,,,,,,,,,,,,,,,,,,,,,,,,,,,,,,,,0,4,4,1,1,,,,,,,,,,,,,,,,,,,,,,,,,,,,,,,,,,,,,,,,,,,,,,
107952,001,2022-11-21_24h51.19.034,Info_measure_main_exp,2022.2.2,Win32,58.95878781,,,,,,,,,,,,,,,,,,masks/mask_001.jpg,,,,,,,,,,,,,,,,,,,,,,,,,,,,,,,,,,,,,,,,,,,,,,,,0,0,0,0,1,,,,,,,,,,,,,,,,,,,,,,,,,,,,,,,,,,,,,,,,,
107952,001,2022-11-21_24h51.19.034,Info_measure_main_exp,2022.2.2,Win32,58.95878781,,,,,,,,,,,,,,,,,,masks/mask_004.jpg,,,,,,,,,,,,,,,,,,,,,,,,,,,,,,,,,,,,,,,,,,,,,,,,0,1,1,3,1,,,,,,,,,,,,,,,,,,,,,,,,,,,,,,,,,,,,,,,,,
107952,001,2022-11-21_24h51.19.034,Info_measure_main_exp,2022.2.2,Win32,58.95878781,,,,,,,,,,,,,,,,,,masks/mask_003.jpg,,,,,,,,,,,,,,,,,,,,,,,,,,,,,,,,,,,,,,,,,,,,,,,,0,2,2,2,1,,,,,,,,,,,,,,,,,,,,,,,,,,,,,,,,,,,,,,,,,
107952,001,2022-11-21_24h51.19.034,Info_measure_main_exp,2022.2.2,Win32,58.95878781,,,,,,,,,,,,,,,,,,masks/mask_002.jpg,,,,,,,,,,,,,,,,,,,,,,,,,,,,,,,,,,,,,,,,,,,,,,,,0,3,3,1,1,,,,,,,,,,,,,,,,,,,,,,,,,,,,,,,,,,,,,,,,,
107952,001,2022-11-21_24h51.19.034,Info_measure_main_exp,2022.2.2,Win32,58.95878781,,,,,,,,,,,,,,,,,,masks/mask_005.jpg,,,,,,,,,,,,,,,,,,,,,,,,,,,,,,,,,,,,,,,,,,,,,,,,0,4,4,4,1,,,,,,,,,,,,,,,,,,,,,,,,,,,,,,,,,,,,,,,,,
107952,001,2022-11-21_24h51.19.034,Info_measure_main_exp,2022.2.2,Win32,58.95878781,,,,,,,,,,,,,,,,,,,,,,,,,,,,,,4,1.7807,1,,,,,,,,,,,,1,131,5,5,2298,1,absent_patch/patch0002298.jpg,present_patch/cong_131_5_a.jpg,,,,,,,,,,,,,,,,,,,,0.03047619,-0.079047619,1,0,0,response3disk,1,-0.000952381,0.002857143,1,0,0,center_square,0,0,0,45,1,,,,,,,,,,,,,,,,,,,,,,,
107952,001,2022-11-21_24h51.19.034,Info_measure_main_exp,2022.2.2,Win32,58.95878781,,,,,,,,,,,,,,,,,,masks/mask_004.jpg,,,,,,,,,,,,,,,,,,,,,,,,,,,,,,,,,,,,,,,,,,,0,0,0,3,1,,,,,,,,,,,,,,,,,,,,,,,,,,,,,,,,,,,,,,,,,,,,,,
107952,001,2022-11-21_24h51.19.034,Info_measure_main_exp,2022.2.2,Win32,58.95878781,,,,,,,,,,,,,,,,,,masks/mask_003.jpg,,,,,,,,,,,,,,,,,,,,,,,,,,,,,,,,,,,,,,,,,,,0,1,1,2,1,,,,,,,,,,,,,,,,,,,,,,,,,,,,,,,,,,,,,,,,,,,,,,
107952,001,2022-11-21_24h51.19.034,Info_measure_main_exp,2022.2.2,Win32,58.95878781,,,,,,,,,,,,,,,,,,masks/mask_002.jpg,,,,,,,,,,,,,,,,,,,,,,,,,,,,,,,,,,,,,,,,,,,0,2,2,1,1,,,,,,,,,,,,,,,,,,,,,,,,,,,,,,,,,,,,,,,,,,,,,,
107952,001,2022-11-21_24h51.19.034,Info_measure_main_exp,2022.2.2,Win32,58.95878781,,,,,,,,,,,,,,,,,,masks/mask_001.jpg,,,,,,,,,,,,,,,,,,,,,,,,,,,,,,,,,,,,,,,,,,,0,3,3,0,1,,,,,,,,,,,,,,,,,,,,,,,,,,,,,,,,,,,,,,,,,,,,,,
107952,001,2022-11-21_24h51.19.034,Info_measure_main_exp,2022.2.2,Win32,58.95878781,,,,,,,,,,,,,,,,,,masks/mask_005.jpg,,,,,,,,,,,,,,,,,,,,,,,,,,,,,,,,,,,,,,,,,,,0,4,4,4,1,,,,,,,,,,,,,,,,,,,,,,,,,,,,,,,,,,,,,,,,,,,,,,
107952,001,2022-11-21_24h51.19.034,Info_measure_main_exp,2022.2.2,Win32,58.95878781,,,,,,,,,,,,,,,,,,masks/mask_002.jpg,,,,,,,,,,,,,,,,,,,,,,,,,,,,,,,,,,,,,,,,,,,,,,,,0,0,0,1,1,,,,,,,,,,,,,,,,,,,,,,,,,,,,,,,,,,,,,,,,,
107952,001,2022-11-21_24h51.19.034,Info_measure_main_exp,2022.2.2,Win32,58.95878781,,,,,,,,,,,,,,,,,,masks/mask_001.jpg,,,,,,,,,,,,,,,,,,,,,,,,,,,,,,,,,,,,,,,,,,,,,,,,0,1,1,0,1,,,,,,,,,,,,,,,,,,,,,,,,,,,,,,,,,,,,,,,,,
107952,001,2022-11-21_24h51.19.034,Info_measure_main_exp,2022.2.2,Win32,58.95878781,,,,,,,,,,,,,,,,,,masks/mask_004.jpg,,,,,,,,,,,,,,,,,,,,,,,,,,,,,,,,,,,,,,,,,,,,,,,,0,2,2,3,1,,,,,,,,,,,,,,,,,,,,,,,,,,,,,,,,,,,,,,,,,
107952,001,2022-11-21_24h51.19.034,Info_measure_main_exp,2022.2.2,Win32,58.95878781,,,,,,,,,,,,,,,,,,masks/mask_003.jpg,,,,,,,,,,,,,,,,,,,,,,,,,,,,,,,,,,,,,,,,,,,,,,,,0,3,3,2,1,,,,,,,,,,,,,,,,,,,,,,,,,,,,,,,,,,,,,,,,,
107952,001,2022-11-21_24h51.19.034,Info_measure_main_exp,2022.2.2,Win32,58.95878781,,,,,,,,,,,,,,,,,,masks/mask_005.jpg,,,,,,,,,,,,,,,,,,,,,,,,,,,,,,,,,,,,,,,,,,,,,,,,0,4,4,4,1,,,,,,,,,,,,,,,,,,,,,,,,,,,,,,,,,,,,,,,,,
107952,001,2022-11-21_24h51.19.034,Info_measure_main_exp,2022.2.2,Win32,58.95878781,,,,,,,,,,,,,,,,,,,,,,,,,,,,,,7,1.7362,1,,,,,,,,,,,,0,131,5,5,2250,2238,absent_patch/patch0002250.jpg,absent_patch/patch0002238.jpg,,,,,,,,,,,,,,,,,,,,0.024761905,0.062857143,1,0,0,response1disk,2,-0.001904762,0.001904762,1,0,0,center_square,0,1,1,110,1,,,,,,,,,,,,,,,,,,,,,,,
107952,001,2022-11-21_24h51.19.034,Info_measure_main_exp,2022.2.2,Win32,58.95878781,,,,,,,,,,,,,,,,,,masks/mask_005.jpg,,,,,,,,,,,,,,,,,,,,,,,,,,,,,,,,,,,,,,,,,,,0,0,0,4,1,,,,,,,,,,,,,,,,,,,,,,,,,,,,,,,,,,,,,,,,,,,,,,
107952,001,2022-11-21_24h51.19.034,Info_measure_main_exp,2022.2.2,Win32,58.95878781,,,,,,,,,,,,,,,,,,masks/mask_004.jpg,,,,,,,,,,,,,,,,,,,,,,,,,,,,,,,,,,,,,,,,,,,0,1,1,3,1,,,,,,,,,,,,,,,,,,,,,,,,,,,,,,,,,,,,,,,,,,,,,,
107952,001,2022-11-21_24h51.19.034,Info_measure_main_exp,2022.2.2,Win32,58.95878781,,,,,,,,,,,,,,,,,,masks/mask_001.jpg,,,,,,,,,,,,,,,,,,,,,,,,,,,,,,,,,,,,,,,,,,,0,2,2,0,1,,,,,,,,,,,,,,,,,,,,,,,,,,,,,,,,,,,,,,,,,,,,,,
107952,001,2022-11-21_24h51.19.034,Info_measure_main_exp,2022.2.2,Win32,58.95878781,,,,,,,,,,,,,,,,,,masks/mask_003.jpg,,,,,,,,,,,,,,,,,,,,,,,,,,,,,,,,,,,,,,,,,,,0,3,3,2,1,,,,,,,,,,,,,,,,,,,,,,,,,,,,,,,,,,,,,,,,,,,,,,
107952,001,2022-11-21_24h51.19.034,Info_measure_main_exp,2022.2.2,Win32,58.95878781,,,,,,,,,,,,,,,,,,masks/mask_002.jpg,,,,,,,,,,,,,,,,,,,,,,,,,,,,,,,,,,,,,,,,,,,0,4,4,1,1,,,,,,,,,,,,,,,,,,,,,,,,,,,,,,,,,,,,,,,,,,,,,,
107952,001,2022-11-21_24h51.19.034,Info_measure_main_exp,2022.2.2,Win32,58.95878781,,,,,,,,,,,,,,,,,,masks/mask_005.jpg,,,,,,,,,,,,,,,,,,,,,,,,,,,,,,,,,,,,,,,,,,,,,,,,0,0,0,4,1,,,,,,,,,,,,,,,,,,,,,,,,,,,,,,,,,,,,,,,,,
107952,001,2022-11-21_24h51.19.034,Info_measure_main_exp,2022.2.2,Win32,58.95878781,,,,,,,,,,,,,,,,,,masks/mask_001.jpg,,,,,,,,,,,,,,,,,,,,,,,,,,,,,,,,,,,,,,,,,,,,,,,,0,1,1,0,1,,,,,,,,,,,,,,,,,,,,,,,,,,,,,,,,,,,,,,,,,
107952,001,2022-11-21_24h51.19.034,Info_measure_main_exp,2022.2.2,Win32,58.95878781,,,,,,,,,,,,,,,,,,masks/mask_004.jpg,,,,,,,,,,,,,,,,,,,,,,,,,,,,,,,,,,,,,,,,,,,,,,,,0,2,2,3,1,,,,,,,,,,,,,,,,,,,,,,,,,,,,,,,,,,,,,,,,,
107952,001,2022-11-21_24h51.19.034,Info_measure_main_exp,2022.2.2,Win32,58.95878781,,,,,,,,,,,,,,,,,,masks/mask_003.jpg,,,,,,,,,,,,,,,,,,,,,,,,,,,,,,,,,,,,,,,,,,,,,,,,0,3,3,2,1,,,,,,,,,,,,,,,,,,,,,,,,,,,,,,,,,,,,,,,,,
107952,001,2022-11-21_24h51.19.034,Info_measure_main_exp,2022.2.2,Win32,58.95878781,,,,,,,,,,,,,,,,,,masks/mask_002.jpg,,,,,,,,,,,,,,,,,,,,,,,,,,,,,,,,,,,,,,,,,,,,,,,,0,4,4,1,1,,,,,,,,,,,,,,,,,,,,,,,,,,,,,,,,,,,,,,,,,
107952,001,2022-11-21_24h51.19.034,Info_measure_main_exp,2022.2.2,Win32,58.95878781,,,,,,,,,,,,,,,,,,,,,,,,,,,,,,6,0.9524,1,,,,,,,,,,,,0,131,5,5,2274,2214,absent_patch/patch0002274.jpg,absent_patch/patch0002214.jpg,,,,,,,,,,,,,,,,,,,,0.052380952,0.022857143,1,0,0,response1disk,3,-0.003809524,0.000952381,1,0,0,center_square,0,2,2,11,1,,,,,,,,,,,,,,,,,,,,,,,
107952,001,2022-11-21_24h51.19.034,Info_measure_main_exp,2022.2.2,Win32,58.95878781,,,,,,,,,,,,,,,,,,masks/mask_005.jpg,,,,,,,,,,,,,,,,,,,,,,,,,,,,,,,,,,,,,,,,,,,0,0,0,4,1,,,,,,,,,,,,,,,,,,,,,,,,,,,,,,,,,,,,,,,,,,,,,,
107952,001,2022-11-21_24h51.19.034,Info_measure_main_exp,2022.2.2,Win32,58.95878781,,,,,,,,,,,,,,,,,,masks/mask_003.jpg,,,,,,,,,,,,,,,,,,,,,,,,,,,,,,,,,,,,,,,,,,,0,1,1,2,1,,,,,,,,,,,,,,,,,,,,,,,,,,,,,,,,,,,,,,,,,,,,,,
107952,001,2022-11-21_24h51.19.034,Info_measure_main_exp,2022.2.2,Win32,58.95878781,,,,,,,,,,,,,,,,,,masks/mask_004.jpg,,,,,,,,,,,,,,,,,,,,,,,,,,,,,,,,,,,,,,,,,,,0,2,2,3,1,,,,,,,,,,,,,,,,,,,,,,,,,,,,,,,,,,,,,,,,,,,,,,
107952,001,2022-11-21_24h51.19.034,Info_measure_main_exp,2022.2.2,Win32,58.95878781,,,,,,,,,,,,,,,,,,masks/mask_002.jpg,,,,,,,,,,,,,,,,,,,,,,,,,,,,,,,,,,,,,,,,,,,0,3,3,1,1,,,,,,,,,,,,,,,,,,,,,,,,,,,,,,,,,,,,,,,,,,,,,,
107952,001,2022-11-21_24h51.19.034,Info_measure_main_exp,2022.2.2,Win32,58.95878781,,,,,,,,,,,,,,,,,,masks/mask_001.jpg,,,,,,,,,,,,,,,,,,,,,,,,,,,,,,,,,,,,,,,,,,,0,4,4,0,1,,,,,,,,,,,,,,,,,,,,,,,,,,,,,,,,,,,,,,,,,,,,,,
107952,001,2022-11-21_24h51.19.034,Info_measure_main_exp,2022.2.2,Win32,58.95878781,,,,,,,,,,,,,,,,,,masks/mask_003.jpg,,,,,,,,,,,,,,,,,,,,,,,,,,,,,,,,,,,,,,,,,,,,,,,,0,0,0,2,1,,,,,,,,,,,,,,,,,,,,,,,,,,,,,,,,,,,,,,,,,
107952,001,2022-11-21_24h51.19.034,Info_measure_main_exp,2022.2.2,Win32,58.95878781,,,,,,,,,,,,,,,,,,masks/mask_001.jpg,,,,,,,,,,,,,,,,,,,,,,,,,,,,,,,,,,,,,,,,,,,,,,,,0,1,1,0,1,,,,,,,,,,,,,,,,,,,,,,,,,,,,,,,,,,,,,,,,,
107952,001,2022-11-21_24h51.19.034,Info_measure_main_exp,2022.2.2,Win32,58.95878781,,,,,,,,,,,,,,,,,,masks/mask_005.jpg,,,,,,,,,,,,,,,,,,,,,,,,,,,,,,,,,,,,,,,,,,,,,,,,0,2,2,4,1,,,,,,,,,,,,,,,,,,,,,,,,,,,,,,,,,,,,,,,,,
107952,001,2022-11-21_24h51.19.034,Info_measure_main_exp,2022.2.2,Win32,58.95878781,,,,,,,,,,,,,,,,,,masks/mask_002.jpg,,,,,,,,,,,,,,,,,,,,,,,,,,,,,,,,,,,,,,,,,,,,,,,,0,3,3,1,1,,,,,,,,,,,,,,,,,,,,,,,,,,,,,,,,,,,,,,,,,
107952,001,2022-11-21_24h51.19.034,Info_measure_main_exp,2022.2.2,Win32,58.95878781,,,,,,,,,,,,,,,,,,masks/mask_004.jpg,,,,,,,,,,,,,,,,,,,,,,,,,,,,,,,,,,,,,,,,,,,,,,,,0,4,4,3,1,,,,,,,,,,,,,,,,,,,,,,,,,,,,,,,,,,,,,,,,,
107952,001,2022-11-21_24h51.19.034,Info_measure_main_exp,2022.2.2,Win32,58.95878781,,,,,,,,,,,,,,,,,,,,,,,,,,,,,,4,2.0861,1,,,,,,,,,,,,0,131,5,5,2166,2298,absent_patch/patch0002166.jpg,absent_patch/patch0002298.jpg,,,,,,,,,,,,,,,,,,,,0.025714286,-0.048571429,1,0,0,response3disk,4,-0.001904762,0.01047619,1,0,0,center_square,0,3,3,52,1,,,,,,,,,,,,,,,,,,,,,,,
107952,001,2022-11-21_24h51.19.034,Info_measure_main_exp,2022.2.2,Win32,58.95878781,,,,,,,,,,,,,,,,,,masks/mask_002.jpg,,,,,,,,,,,,,,,,,,,,,,,,,,,,,,,,,,,,,,,,,,,0,0,0,1,1,,,,,,,,,,,,,,,,,,,,,,,,,,,,,,,,,,,,,,,,,,,,,,
107952,001,2022-11-21_24h51.19.034,Info_measure_main_exp,2022.2.2,Win32,58.95878781,,,,,,,,,,,,,,,,,,masks/mask_004.jpg,,,,,,,,,,,,,,,,,,,,,,,,,,,,,,,,,,,,,,,,,,,0,1,1,3,1,,,,,,,,,,,,,,,,,,,,,,,,,,,,,,,,,,,,,,,,,,,,,,
107952,001,2022-11-21_24h51.19.034,Info_measure_main_exp,2022.2.2,Win32,58.95878781,,,,,,,,,,,,,,,,,,masks/mask_001.jpg,,,,,,,,,,,,,,,,,,,,,,,,,,,,,,,,,,,,,,,,,,,0,2,2,0,1,,,,,,,,,,,,,,,,,,,,,,,,,,,,,,,,,,,,,,,,,,,,,,
107952,001,2022-11-21_24h51.19.034,Info_measure_main_exp,2022.2.2,Win32,58.95878781,,,,,,,,,,,,,,,,,,masks/mask_005.jpg,,,,,,,,,,,,,,,,,,,,,,,,,,,,,,,,,,,,,,,,,,,0,3,3,4,1,,,,,,,,,,,,,,,,,,,,,,,,,,,,,,,,,,,,,,,,,,,,,,
107952,001,2022-11-21_24h51.19.034,Info_measure_main_exp,2022.2.2,Win32,58.95878781,,,,,,,,,,,,,,,,,,masks/mask_003.jpg,,,,,,,,,,,,,,,,,,,,,,,,,,,,,,,,,,,,,,,,,,,0,4,4,2,1,,,,,,,,,,,,,,,,,,,,,,,,,,,,,,,,,,,,,,,,,,,,,,
107952,001,2022-11-21_24h51.19.034,Info_measure_main_exp,2022.2.2,Win32,58.95878781,,,,,,,,,,,,,,,,,,masks/mask_002.jpg,,,,,,,,,,,,,,,,,,,,,,,,,,,,,,,,,,,,,,,,,,,,,,,,0,0,0,1,1,,,,,,,,,,,,,,,,,,,,,,,,,,,,,,,,,,,,,,,,,
107952,001,2022-11-21_24h51.19.034,Info_measure_main_exp,2022.2.2,Win32,58.95878781,,,,,,,,,,,,,,,,,,masks/mask_004.jpg,,,,,,,,,,,,,,,,,,,,,,,,,,,,,,,,,,,,,,,,,,,,,,,,0,1,1,3,1,,,,,,,,,,,,,,,,,,,,,,,,,,,,,,,,,,,,,,,,,
107952,001,2022-11-21_24h51.19.034,Info_measure_main_exp,2022.2.2,Win32,58.95878781,,,,,,,,,,,,,,,,,,masks/mask_003.jpg,,,,,,,,,,,,,,,,,,,,,,,,,,,,,,,,,,,,,,,,,,,,,,,,0,2,2,2,1,,,,,,,,,,,,,,,,,,,,,,,,,,,,,,,,,,,,,,,,,
107952,001,2022-11-21_24h51.19.034,Info_measure_main_exp,2022.2.2,Win32,58.95878781,,,,,,,,,,,,,,,,,,masks/mask_001.jpg,,,,,,,,,,,,,,,,,,,,,,,,,,,,,,,,,,,,,,,,,,,,,,,,0,3,3,0,1,,,,,,,,,,,,,,,,,,,,,,,,,,,,,,,,,,,,,,,,,
107952,001,2022-11-21_24h51.19.034,Info_measure_main_exp,2022.2.2,Win32,58.95878781,,,,,,,,,,,,,,,,,,masks/mask_005.jpg,,,,,,,,,,,,,,,,,,,,,,,,,,,,,,,,,,,,,,,,,,,,,,,,0,4,4,4,1,,,,,,,,,,,,,,,,,,,,,,,,,,,,,,,,,,,,,,,,,
107952,001,2022-11-21_24h51.19.034,Info_measure_main_exp,2022.2.2,Win32,58.95878781,,,,,,,,,,,,,,,,,,,,,,,,,,,,,,5,1.2303,1,,,,,,,,,,,,1,131,5,5,1,2142,present_patch/cong_131_5_a.jpg,absent_patch/patch0002142.jpg,,,,,,,,,,,,,,,,,,,,0.063809524,-0.027619048,1,0,0,response3disk,5,0.002857143,0.003809524,1,0,0,center_square,0,4,4,80,1,,,,,,,,,,,,,,,,,,,,,,,
107952,001,2022-11-21_24h51.19.034,Info_measure_main_exp,2022.2.2,Win32,58.95878781,,,,,,,,,,,,,,,,,,masks/mask_003.jpg,,,,,,,,,,,,,,,,,,,,,,,,,,,,,,,,,,,,,,,,,,,0,0,0,2,1,,,,,,,,,,,,,,,,,,,,,,,,,,,,,,,,,,,,,,,,,,,,,,
107952,001,2022-11-21_24h51.19.034,Info_measure_main_exp,2022.2.2,Win32,58.95878781,,,,,,,,,,,,,,,,,,masks/mask_005.jpg,,,,,,,,,,,,,,,,,,,,,,,,,,,,,,,,,,,,,,,,,,,0,1,1,4,1,,,,,,,,,,,,,,,,,,,,,,,,,,,,,,,,,,,,,,,,,,,,,,
107952,001,2022-11-21_24h51.19.034,Info_measure_main_exp,2022.2.2,Win32,58.95878781,,,,,,,,,,,,,,,,,,masks/mask_001.jpg,,,,,,,,,,,,,,,,,,,,,,,,,,,,,,,,,,,,,,,,,,,0,2,2,0,1,,,,,,,,,,,,,,,,,,,,,,,,,,,,,,,,,,,,,,,,,,,,,,
107952,001,2022-11-21_24h51.19.034,Info_measure_main_exp,2022.2.2,Win32,58.95878781,,,,,,,,,,,,,,,,,,masks/mask_004.jpg,,,,,,,,,,,,,,,,,,,,,,,,,,,,,,,,,,,,,,,,,,,0,3,3,3,1,,,,,,,,,,,,,,,,,,,,,,,,,,,,,,,,,,,,,,,,,,,,,,
107952,001,2022-11-21_24h51.19.034,Info_measure_main_exp,2022.2.2,Win32,58.95878781,,,,,,,,,,,,,,,,,,masks/mask_002.jpg,,,,,,,,,,,,,,,,,,,,,,,,,,,,,,,,,,,,,,,,,,,0,4,4,1,1,,,,,,,,,,,,,,,,,,,,,,,,,,,,,,,,,,,,,,,,,,,,,,
107952,001,2022-11-21_24h51.19.034,Info_measure_main_exp,2022.2.2,Win32,58.95878781,,,,,,,,,,,,,,,,,,masks/mask_001.jpg,,,,,,,,,,,,,,,,,,,,,,,,,,,,,,,,,,,,,,,,,,,,,,,,0,0,0,0,1,,,,,,,,,,,,,,,,,,,,,,,,,,,,,,,,,,,,,,,,,
107952,001,2022-11-21_24h51.19.034,Info_measure_main_exp,2022.2.2,Win32,58.95878781,,,,,,,,,,,,,,,,,,masks/mask_003.jpg,,,,,,,,,,,,,,,,,,,,,,,,,,,,,,,,,,,,,,,,,,,,,,,,0,1,1,2,1,,,,,,,,,,,,,,,,,,,,,,,,,,,,,,,,,,,,,,,,,
107952,001,2022-11-21_24h51.19.034,Info_measure_main_exp,2022.2.2,Win32,58.95878781,,,,,,,,,,,,,,,,,,masks/mask_004.jpg,,,,,,,,,,,,,,,,,,,,,,,,,,,,,,,,,,,,,,,,,,,,,,,,0,2,2,3,1,,,,,,,,,,,,,,,,,,,,,,,,,,,,,,,,,,,,,,,,,
107952,001,2022-11-21_24h51.19.034,Info_measure_main_exp,2022.2.2,Win32,58.95878781,,,,,,,,,,,,,,,,,,masks/mask_002.jpg,,,,,,,,,,,,,,,,,,,,,,,,,,,,,,,,,,,,,,,,,,,,,,,,0,3,3,1,1,,,,,,,,,,,,,,,,,,,,,,,,,,,,,,,,,,,,,,,,,
107952,001,2022-11-21_24h51.19.034,Info_measure_main_exp,2022.2.2,Win32,58.95878781,,,,,,,,,,,,,,,,,,masks/mask_005.jpg,,,,,,,,,,,,,,,,,,,,,,,,,,,,,,,,,,,,,,,,,,,,,,,,0,4,4,4,1,,,,,,,,,,,,,,,,,,,,,,,,,,,,,,,,,,,,,,,,,
107952,001,2022-11-21_24h51.19.034,Info_measure_main_exp,2022.2.2,Win32,58.95878781,,,,,,,,,,,,,,,,,,,,,,,,,,,,,,3,1.5198,1,,,,,,,,,,,,0,131,5,5,2250,2178,absent_patch/patch0002250.jpg,absent_patch/patch0002178.jpg,,,,,,,,,,,,,,,,,,,,-0.043809524,-0.092380952,1,0,0,response5disk,6,-0.000952381,-0.000952381,1,0,0,center_square,0,5,5,48,1,,,,,,,,,,,,,,,,,,,,,,,
107952,001,2022-11-21_24h51.19.034,Info_measure_main_exp,2022.2.2,Win32,58.95878781,,,,,,,,,,,,,,,,,,masks/mask_004.jpg,,,,,,,,,,,,,,,,,,,,,,,,,,,,,,,,,,,,,,,,,,,0,0,0,3,1,,,,,,,,,,,,,,,,,,,,,,,,,,,,,,,,,,,,,,,,,,,,,,
107952,001,2022-11-21_24h51.19.034,Info_measure_main_exp,2022.2.2,Win32,58.95878781,,,,,,,,,,,,,,,,,,masks/mask_005.jpg,,,,,,,,,,,,,,,,,,,,,,,,,,,,,,,,,,,,,,,,,,,0,1,1,4,1,,,,,,,,,,,,,,,,,,,,,,,,,,,,,,,,,,,,,,,,,,,,,,
107952,001,2022-11-21_24h51.19.034,Info_measure_main_exp,2022.2.2,Win32,58.95878781,,,,,,,,,,,,,,,,,,masks/mask_001.jpg,,,,,,,,,,,,,,,,,,,,,,,,,,,,,,,,,,,,,,,,,,,0,2,2,0,1,,,,,,,,,,,,,,,,,,,,,,,,,,,,,,,,,,,,,,,,,,,,,,
107952,001,2022-11-21_24h51.19.034,Info_measure_main_exp,2022.2.2,Win32,58.95878781,,,,,,,,,,,,,,,,,,masks/mask_003.jpg,,,,,,,,,,,,,,,,,,,,,,,,,,,,,,,,,,,,,,,,,,,0,3,3,2,1,,,,,,,,,,,,,,,,,,,,,,,,,,,,,,,,,,,,,,,,,,,,,,
107952,001,2022-11-21_24h51.19.034,Info_measure_main_exp,2022.2.2,Win32,58.95878781,,,,,,,,,,,,,,,,,,masks/mask_002.jpg,,,,,,,,,,,,,,,,,,,,,,,,,,,,,,,,,,,,,,,,,,,0,4,4,1,1,,,,,,,,,,,,,,,,,,,,,,,,,,,,,,,,,,,,,,,,,,,,,,
107952,001,2022-11-21_24h51.19.034,Info_measure_main_exp,2022.2.2,Win32,58.95878781,,,,,,,,,,,,,,,,,,masks/mask_002.jpg,,,,,,,,,,,,,,,,,,,,,,,,,,,,,,,,,,,,,,,,,,,,,,,,0,0,0,1,1,,,,,,,,,,,,,,,,,,,,,,,,,,,,,,,,,,,,,,,,,
107952,001,2022-11-21_24h51.19.034,Info_measure_main_exp,2022.2.2,Win32,58.95878781,,,,,,,,,,,,,,,,,,masks/mask_004.jpg,,,,,,,,,,,,,,,,,,,,,,,,,,,,,,,,,,,,,,,,,,,,,,,,0,1,1,3,1,,,,,,,,,,,,,,,,,,,,,,,,,,,,,,,,,,,,,,,,,
107952,001,2022-11-21_24h51.19.034,Info_measure_main_exp,2022.2.2,Win32,58.95878781,,,,,,,,,,,,,,,,,,masks/mask_001.jpg,,,,,,,,,,,,,,,,,,,,,,,,,,,,,,,,,,,,,,,,,,,,,,,,0,2,2,0,1,,,,,,,,,,,,,,,,,,,,,,,,,,,,,,,,,,,,,,,,,
107952,001,2022-11-21_24h51.19.034,Info_measure_main_exp,2022.2.2,Win32,58.95878781,,,,,,,,,,,,,,,,,,masks/mask_003.jpg,,,,,,,,,,,,,,,,,,,,,,,,,,,,,,,,,,,,,,,,,,,,,,,,0,3,3,2,1,,,,,,,,,,,,,,,,,,,,,,,,,,,,,,,,,,,,,,,,,
107952,001,2022-11-21_24h51.19.034,Info_measure_main_exp,2022.2.2,Win32,58.95878781,,,,,,,,,,,,,,,,,,masks/mask_005.jpg,,,,,,,,,,,,,,,,,,,,,,,,,,,,,,,,,,,,,,,,,,,,,,,,0,4,4,4,1,,,,,,,,,,,,,,,,,,,,,,,,,,,,,,,,,,,,,,,,,
107952,001,2022-11-21_24h51.19.034,Info_measure_main_exp,2022.2.2,Win32,58.95878781,,,,,,,,,,,,,,,,,,,,,,,,,,,,,,2,1.9872,1,,,,,,,,,,,,0,131,5,5,2154,2214,absent_patch/patch0002154.jpg,absent_patch/patch0002214.jpg,,,,,,,,,,,,,,,,,,,,-0.054285714,-0.020952381,1,0,0,response5disk,7,0.008571429,0.01047619,1,0,0,center_square,0,6,6,67,1,,,,,,,,,,,,,,,,,,,,,,,
107952,001,2022-11-21_24h51.19.034,Info_measure_main_exp,2022.2.2,Win32,58.95878781,,,,,,,,,,,,,,,,,,masks/mask_005.jpg,,,,,,,,,,,,,,,,,,,,,,,,,,,,,,,,,,,,,,,,,,,0,0,0,4,1,,,,,,,,,,,,,,,,,,,,,,,,,,,,,,,,,,,,,,,,,,,,,,
107952,001,2022-11-21_24h51.19.034,Info_measure_main_exp,2022.2.2,Win32,58.95878781,,,,,,,,,,,,,,,,,,masks/mask_003.jpg,,,,,,,,,,,,,,,,,,,,,,,,,,,,,,,,,,,,,,,,,,,0,1,1,2,1,,,,,,,,,,,,,,,,,,,,,,,,,,,,,,,,,,,,,,,,,,,,,,
107952,001,2022-11-21_24h51.19.034,Info_measure_main_exp,2022.2.2,Win32,58.95878781,,,,,,,,,,,,,,,,,,masks/mask_004.jpg,,,,,,,,,,,,,,,,,,,,,,,,,,,,,,,,,,,,,,,,,,,0,2,2,3,1,,,,,,,,,,,,,,,,,,,,,,,,,,,,,,,,,,,,,,,,,,,,,,
107952,001,2022-11-21_24h51.19.034,Info_measure_main_exp,2022.2.2,Win32,58.95878781,,,,,,,,,,,,,,,,,,masks/mask_002.jpg,,,,,,,,,,,,,,,,,,,,,,,,,,,,,,,,,,,,,,,,,,,0,3,3,1,1,,,,,,,,,,,,,,,,,,,,,,,,,,,,,,,,,,,,,,,,,,,,,,
107952,001,2022-11-21_24h51.19.034,Info_measure_main_exp,2022.2.2,Win32,58.95878781,,,,,,,,,,,,,,,,,,masks/mask_001.jpg,,,,,,,,,,,,,,,,,,,,,,,,,,,,,,,,,,,,,,,,,,,0,4,4,0,1,,,,,,,,,,,,,,,,,,,,,,,,,,,,,,,,,,,,,,,,,,,,,,
107952,001,2022-11-21_24h51.19.034,Info_measure_main_exp,2022.2.2,Win32,58.95878781,,,,,,,,,,,,,,,,,,masks/mask_002.jpg,,,,,,,,,,,,,,,,,,,,,,,,,,,,,,,,,,,,,,,,,,,,,,,,0,0,0,1,1,,,,,,,,,,,,,,,,,,,,,,,,,,,,,,,,,,,,,,,,,
107952,001,2022-11-21_24h51.19.034,Info_measure_main_exp,2022.2.2,Win32,58.95878781,,,,,,,,,,,,,,,,,,masks/mask_001.jpg,,,,,,,,,,,,,,,,,,,,,,,,,,,,,,,,,,,,,,,,,,,,,,,,0,1,1,0,1,,,,,,,,,,,,,,,,,,,,,,,,,,,,,,,,,,,,,,,,,
107952,001,2022-11-21_24h51.19.034,Info_measure_main_exp,2022.2.2,Win32,58.95878781,,,,,,,,,,,,,,,,,,masks/mask_003.jpg,,,,,,,,,,,,,,,,,,,,,,,,,,,,,,,,,,,,,,,,,,,,,,,,0,2,2,2,1,,,,,,,,,,,,,,,,,,,,,,,,,,,,,,,,,,,,,,,,,
107952,001,2022-11-21_24h51.19.034,Info_measure_main_exp,2022.2.2,Win32,58.95878781,,,,,,,,,,,,,,,,,,masks/mask_005.jpg,,,,,,,,,,,,,,,,,,,,,,,,,,,,,,,,,,,,,,,,,,,,,,,,0,3,3,4,1,,,,,,,,,,,,,,,,,,,,,,,,,,,,,,,,,,,,,,,,,
107952,001,2022-11-21_24h51.19.034,Info_measure_main_exp,2022.2.2,Win32,58.95878781,,,,,,,,,,,,,,,,,,masks/mask_004.jpg,,,,,,,,,,,,,,,,,,,,,,,,,,,,,,,,,,,,,,,,,,,,,,,,0,4,4,3,1,,,,,,,,,,,,,,,,,,,,,,,,,,,,,,,,,,,,,,,,,
107952,001,2022-11-21_24h51.19.034,Info_measure_main_exp,2022.2.2,Win32,58.95878781,,,,,,,,,,,,,,,,,,,,,,,,,,,,,,0,2.0537,1,,,,,,,,,,,,0,131,5,5,2142,2142,absent_patch/patch0002142.jpg,absent_patch/patch0002142.jpg,,,,,,,,,,,,,,,,,,,,-0.032380952,0.058095238,1,0,0,response7disk,8,0.003809524,-0.003809524,1,0,0,center_square,0,7,7,13,1,,,,,,,,,,,,,,,,,,,,,,,
107952,001,2022-11-21_24h51.19.034,Info_measure_main_exp,2022.2.2,Win32,58.95878781,,,,,,,,,,,,,,,,,,masks/mask_004.jpg,,,,,,,,,,,,,,,,,,,,,,,,,,,,,,,,,,,,,,,,,,,0,0,0,3,1,,,,,,,,,,,,,,,,,,,,,,,,,,,,,,,,,,,,,,,,,,,,,,
107952,001,2022-11-21_24h51.19.034,Info_measure_main_exp,2022.2.2,Win32,58.95878781,,,,,,,,,,,,,,,,,,masks/mask_002.jpg,,,,,,,,,,,,,,,,,,,,,,,,,,,,,,,,,,,,,,,,,,,0,1,1,1,1,,,,,,,,,,,,,,,,,,,,,,,,,,,,,,,,,,,,,,,,,,,,,,
107952,001,2022-11-21_24h51.19.034,Info_measure_main_exp,2022.2.2,Win32,58.95878781,,,,,,,,,,,,,,,,,,masks/mask_001.jpg,,,,,,,,,,,,,,,,,,,,,,,,,,,,,,,,,,,,,,,,,,,0,2,2,0,1,,,,,,,,,,,,,,,,,,,,,,,,,,,,,,,,,,,,,,,,,,,,,,
107952,001,2022-11-21_24h51.19.034,Info_measure_main_exp,2022.2.2,Win32,58.95878781,,,,,,,,,,,,,,,,,,masks/mask_003.jpg,,,,,,,,,,,,,,,,,,,,,,,,,,,,,,,,,,,,,,,,,,,0,3,3,2,1,,,,,,,,,,,,,,,,,,,,,,,,,,,,,,,,,,,,,,,,,,,,,,
107952,001,2022-11-21_24h51.19.034,Info_measure_main_exp,2022.2.2,Win32,58.95878781,,,,,,,,,,,,,,,,,,masks/mask_005.jpg,,,,,,,,,,,,,,,,,,,,,,,,,,,,,,,,,,,,,,,,,,,0,4,4,4,1,,,,,,,,,,,,,,,,,,,,,,,,,,,,,,,,,,,,,,,,,,,,,,
107952,001,2022-11-21_24h51.19.034,Info_measure_main_exp,2022.2.2,Win32,58.95878781,,,,,,,,,,,,,,,,,,masks/mask_004.jpg,,,,,,,,,,,,,,,,,,,,,,,,,,,,,,,,,,,,,,,,,,,,,,,,0,0,0,3,1,,,,,,,,,,,,,,,,,,,,,,,,,,,,,,,,,,,,,,,,,
107952,001,2022-11-21_24h51.19.034,Info_measure_main_exp,2022.2.2,Win32,58.95878781,,,,,,,,,,,,,,,,,,masks/mask_001.jpg,,,,,,,,,,,,,,,,,,,,,,,,,,,,,,,,,,,,,,,,,,,,,,,,0,1,1,0,1,,,,,,,,,,,,,,,,,,,,,,,,,,,,,,,,,,,,,,,,,
107952,001,2022-11-21_24h51.19.034,Info_measure_main_exp,2022.2.2,Win32,58.95878781,,,,,,,,,,,,,,,,,,masks/mask_005.jpg,,,,,,,,,,,,,,,,,,,,,,,,,,,,,,,,,,,,,,,,,,,,,,,,0,2,2,4,1,,,,,,,,,,,,,,,,,,,,,,,,,,,,,,,,,,,,,,,,,
107952,001,2022-11-21_24h51.19.034,Info_measure_main_exp,2022.2.2,Win32,58.95878781,,,,,,,,,,,,,,,,,,masks/mask_003.jpg,,,,,,,,,,,,,,,,,,,,,,,,,,,,,,,,,,,,,,,,,,,,,,,,0,3,3,2,1,,,,,,,,,,,,,,,,,,,,,,,,,,,,,,,,,,,,,,,,,
107952,001,2022-11-21_24h51.19.034,Info_measure_main_exp,2022.2.2,Win32,58.95878781,,,,,,,,,,,,,,,,,,masks/mask_002.jpg,,,,,,,,,,,,,,,,,,,,,,,,,,,,,,,,,,,,,,,,,,,,,,,,0,4,4,1,1,,,,,,,,,,,,,,,,,,,,,,,,,,,,,,,,,,,,,,,,,
107952,001,2022-11-21_24h51.19.034,Info_measure_main_exp,2022.2.2,Win32,58.95878781,,,,,,,,,,,,,,,,,,,,,,,,,,,,,,3,1.0822,1,,,,,,,,,,,,0,131,5,5,1950,2142,absent_patch/patch0001950.jpg,absent_patch/patch0002142.jpg,,,,,,,,,,,,,,,,,,,,-0.03047619,-0.063809524,1,0,0,response5disk,9,0.002857143,0.003809524,1,0,0,center_square,0,8,8,83,1,,,,,,,,,,,,,,,,,,,,,,,
107952,001,2022-11-21_24h51.19.034,Info_measure_main_exp,2022.2.2,Win32,58.95878781,,,,,,,,,,,,,,,,,,masks/mask_003.jpg,,,,,,,,,,,,,,,,,,,,,,,,,,,,,,,,,,,,,,,,,,,0,0,0,2,1,,,,,,,,,,,,,,,,,,,,,,,,,,,,,,,,,,,,,,,,,,,,,,
107952,001,2022-11-21_24h51.19.034,Info_measure_main_exp,2022.2.2,Win32,58.95878781,,,,,,,,,,,,,,,,,,masks/mask_002.jpg,,,,,,,,,,,,,,,,,,,,,,,,,,,,,,,,,,,,,,,,,,,0,1,1,1,1,,,,,,,,,,,,,,,,,,,,,,,,,,,,,,,,,,,,,,,,,,,,,,
107952,001,2022-11-21_24h51.19.034,Info_measure_main_exp,2022.2.2,Win32,58.95878781,,,,,,,,,,,,,,,,,,masks/mask_001.jpg,,,,,,,,,,,,,,,,,,,,,,,,,,,,,,,,,,,,,,,,,,,0,2,2,0,1,,,,,,,,,,,,,,,,,,,,,,,,,,,,,,,,,,,,,,,,,,,,,,
107952,001,2022-11-21_24h51.19.034,Info_measure_main_exp,2022.2.2,Win32,58.95878781,,,,,,,,,,,,,,,,,,masks/mask_005.jpg,,,,,,,,,,,,,,,,,,,,,,,,,,,,,,,,,,,,,,,,,,,0,3,3,4,1,,,,,,,,,,,,,,,,,,,,,,,,,,,,,,,,,,,,,,,,,,,,,,
107952,001,2022-11-21_24h51.19.034,Info_measure_main_exp,2022.2.2,Win32,58.95878781,,,,,,,,,,,,,,,,,,masks/mask_004.jpg,,,,,,,,,,,,,,,,,,,,,,,,,,,,,,,,,,,,,,,,,,,0,4,4,3,1,,,,,,,,,,,,,,,,,,,,,,,,,,,,,,,,,,,,,,,,,,,,,,
107952,001,2022-11-21_24h51.19.034,Info_measure_main_exp,2022.2.2,Win32,58.95878781,,,,,,,,,,,,,,,,,,masks/mask_005.jpg,,,,,,,,,,,,,,,,,,,,,,,,,,,,,,,,,,,,,,,,,,,,,,,,0,0,0,4,1,,,,,,,,,,,,,,,,,,,,,,,,,,,,,,,,,,,,,,,,,
107952,001,2022-11-21_24h51.19.034,Info_measure_main_exp,2022.2.2,Win32,58.95878781,,,,,,,,,,,,,,,,,,masks/mask_003.jpg,,,,,,,,,,,,,,,,,,,,,,,,,,,,,,,,,,,,,,,,,,,,,,,,0,1,1,2,1,,,,,,,,,,,,,,,,,,,,,,,,,,,,,,,,,,,,,,,,,
107952,001,2022-11-21_24h51.19.034,Info_measure_main_exp,2022.2.2,Win32,58.95878781,,,,,,,,,,,,,,,,,,masks/mask_002.jpg,,,,,,,,,,,,,,,,,,,,,,,,,,,,,,,,,,,,,,,,,,,,,,,,0,2,2,1,1,,,,,,,,,,,,,,,,,,,,,,,,,,,,,,,,,,,,,,,,,
107952,001,2022-11-21_24h51.19.034,Info_measure_main_exp,2022.2.2,Win32,58.95878781,,,,,,,,,,,,,,,,,,masks/mask_004.jpg,,,,,,,,,,,,,,,,,,,,,,,,,,,,,,,,,,,,,,,,,,,,,,,,0,3,3,3,1,,,,,,,,,,,,,,,,,,,,,,,,,,,,,,,,,,,,,,,,,
107952,001,2022-11-21_24h51.19.034,Info_measure_main_exp,2022.2.2,Win32,58.95878781,,,,,,,,,,,,,,,,,,masks/mask_001.jpg,,,,,,,,,,,,,,,,,,,,,,,,,,,,,,,,,,,,,,,,,,,,,,,,0,4,4,0,1,,,,,,,,,,,,,,,,,,,,,,,,,,,,,,,,,,,,,,,,,
107952,001,2022-11-21_24h51.19.034,Info_measure_main_exp,2022.2.2,Win32,58.95878781,,,,,,,,,,,,,,,,,,,,,,,,,,,,,,5,0.9863,1,,,,,,,,,,,,0,131,5,5,1950,2238,absent_patch/patch0001950.jpg,absent_patch/patch0002238.jpg,,,,,,,,,,,,,,,,,,,,0.039047619,-0.026666667,1,0,0,response3disk,10,0.001904762,0.001904762,1,0,0,center_square,0,9,9,8,1,,,,,,,,,,,,,,,,,,,,,,,
107952,001,2022-11-21_24h51.19.034,Info_measure_main_exp,2022.2.2,Win32,58.95878781,,,,,,,,,,,,,,,,,,masks/mask_002.jpg,,,,,,,,,,,,,,,,,,,,,,,,,,,,,,,,,,,,,,,,,,,0,0,0,1,1,,,,,,,,,,,,,,,,,,,,,,,,,,,,,,,,,,,,,,,,,,,,,,
107952,001,2022-11-21_24h51.19.034,Info_measure_main_exp,2022.2.2,Win32,58.95878781,,,,,,,,,,,,,,,,,,masks/mask_005.jpg,,,,,,,,,,,,,,,,,,,,,,,,,,,,,,,,,,,,,,,,,,,0,1,1,4,1,,,,,,,,,,,,,,,,,,,,,,,,,,,,,,,,,,,,,,,,,,,,,,
107952,001,2022-11-21_24h51.19.034,Info_measure_main_exp,2022.2.2,Win32,58.95878781,,,,,,,,,,,,,,,,,,masks/mask_004.jpg,,,,,,,,,,,,,,,,,,,,,,,,,,,,,,,,,,,,,,,,,,,0,2,2,3,1,,,,,,,,,,,,,,,,,,,,,,,,,,,,,,,,,,,,,,,,,,,,,,
107952,001,2022-11-21_24h51.19.034,Info_measure_main_exp,2022.2.2,Win32,58.95878781,,,,,,,,,,,,,,,,,,masks/mask_003.jpg,,,,,,,,,,,,,,,,,,,,,,,,,,,,,,,,,,,,,,,,,,,0,3,3,2,1,,,,,,,,,,,,,,,,,,,,,,,,,,,,,,,,,,,,,,,,,,,,,,
107952,001,2022-11-21_24h51.19.034,Info_measure_main_exp,2022.2.2,Win32,58.95878781,,,,,,,,,,,,,,,,,,masks/mask_001.jpg,,,,,,,,,,,,,,,,,,,,,,,,,,,,,,,,,,,,,,,,,,,0,4,4,0,1,,,,,,,,,,,,,,,,,,,,,,,,,,,,,,,,,,,,,,,,,,,,,,
107952,001,2022-11-21_24h51.19.034,Info_measure_main_exp,2022.2.2,Win32,58.95878781,,,,,,,,,,,,,,,,,,masks/mask_003.jpg,,,,,,,,,,,,,,,,,,,,,,,,,,,,,,,,,,,,,,,,,,,,,,,,0,0,0,2,1,,,,,,,,,,,,,,,,,,,,,,,,,,,,,,,,,,,,,,,,,
107952,001,2022-11-21_24h51.19.034,Info_measure_main_exp,2022.2.2,Win32,58.95878781,,,,,,,,,,,,,,,,,,masks/mask_004.jpg,,,,,,,,,,,,,,,,,,,,,,,,,,,,,,,,,,,,,,,,,,,,,,,,0,1,1,3,1,,,,,,,,,,,,,,,,,,,,,,,,,,,,,,,,,,,,,,,,,
107952,001,2022-11-21_24h51.19.034,Info_measure_main_exp,2022.2.2,Win32,58.95878781,,,,,,,,,,,,,,,,,,masks/mask_005.jpg,,,,,,,,,,,,,,,,,,,,,,,,,,,,,,,,,,,,,,,,,,,,,,,,0,2,2,4,1,,,,,,,,,,,,,,,,,,,,,,,,,,,,,,,,,,,,,,,,,
107952,001,2022-11-21_24h51.19.034,Info_measure_main_exp,2022.2.2,Win32,58.95878781,,,,,,,,,,,,,,,,,,masks/mask_002.jpg,,,,,,,,,,,,,,,,,,,,,,,,,,,,,,,,,,,,,,,,,,,,,,,,0,3,3,1,1,,,,,,,,,,,,,,,,,,,,,,,,,,,,,,,,,,,,,,,,,
107952,001,2022-11-21_24h51.19.034,Info_measure_main_exp,2022.2.2,Win32,58.95878781,,,,,,,,,,,,,,,,,,masks/mask_001.jpg,,,,,,,,,,,,,,,,,,,,,,,,,,,,,,,,,,,,,,,,,,,,,,,,0,4,4,0,1,,,,,,,,,,,,,,,,,,,,,,,,,,,,,,,,,,,,,,,,,
107952,001,2022-11-21_24h51.19.034,Info_measure_main_exp,2022.2.2,Win32,58.95878781,,,,,,,,,,,,,,,,,,,,,,,,,,,,,,0,1.0882,1,,,,,,,,,,,,0,131,5,5,2154,2154,absent_patch/patch0002154.jpg,absent_patch/patch0002154.jpg,,,,,,,,,,,,,,,,,,,,-0.027619048,0.063809524,1,0,0,response7disk,11,0.000952381,-0.000952381,1,0,0,center_square,0,10,10,89,1,,,,,,,,,,,,,,,,,,,,,,,
107952,001,2022-11-21_24h51.19.034,Info_measure_main_exp,2022.2.2,Win32,58.95878781,,,,,,,,,,,,,,,,,,masks/mask_005.jpg,,,,,,,,,,,,,,,,,,,,,,,,,,,,,,,,,,,,,,,,,,,0,0,0,4,1,,,,,,,,,,,,,,,,,,,,,,,,,,,,,,,,,,,,,,,,,,,,,,
107952,001,2022-11-21_24h51.19.034,Info_measure_main_exp,2022.2.2,Win32,58.95878781,,,,,,,,,,,,,,,,,,masks/mask_002.jpg,,,,,,,,,,,,,,,,,,,,,,,,,,,,,,,,,,,,,,,,,,,0,1,1,1,1,,,,,,,,,,,,,,,,,,,,,,,,,,,,,,,,,,,,,,,,,,,,,,
107952,001,2022-11-21_24h51.19.034,Info_measure_main_exp,2022.2.2,Win32,58.95878781,,,,,,,,,,,,,,,,,,masks/mask_003.jpg,,,,,,,,,,,,,,,,,,,,,,,,,,,,,,,,,,,,,,,,,,,0,2,2,2,1,,,,,,,,,,,,,,,,,,,,,,,,,,,,,,,,,,,,,,,,,,,,,,
107952,001,2022-11-21_24h51.19.034,Info_measure_main_exp,2022.2.2,Win32,58.95878781,,,,,,,,,,,,,,,,,,masks/mask_004.jpg,,,,,,,,,,,,,,,,,,,,,,,,,,,,,,,,,,,,,,,,,,,0,3,3,3,1,,,,,,,,,,,,,,,,,,,,,,,,,,,,,,,,,,,,,,,,,,,,,,
107952,001,2022-11-21_24h51.19.034,Info_measure_main_exp,2022.2.2,Win32,58.95878781,,,,,,,,,,,,,,,,,,masks/mask_001.jpg,,,,,,,,,,,,,,,,,,,,,,,,,,,,,,,,,,,,,,,,,,,0,4,4,0,1,,,,,,,,,,,,,,,,,,,,,,,,,,,,,,,,,,,,,,,,,,,,,,
107952,001,2022-11-21_24h51.19.034,Info_measure_main_exp,2022.2.2,Win32,58.95878781,,,,,,,,,,,,,,,,,,masks/mask_002.jpg,,,,,,,,,,,,,,,,,,,,,,,,,,,,,,,,,,,,,,,,,,,,,,,,0,0,0,1,1,,,,,,,,,,,,,,,,,,,,,,,,,,,,,,,,,,,,,,,,,
107952,001,2022-11-21_24h51.19.034,Info_measure_main_exp,2022.2.2,Win32,58.95878781,,,,,,,,,,,,,,,,,,masks/mask_005.jpg,,,,,,,,,,,,,,,,,,,,,,,,,,,,,,,,,,,,,,,,,,,,,,,,0,1,1,4,1,,,,,,,,,,,,,,,,,,,,,,,,,,,,,,,,,,,,,,,,,
107952,001,2022-11-21_24h51.19.034,Info_measure_main_exp,2022.2.2,Win32,58.95878781,,,,,,,,,,,,,,,,,,masks/mask_001.jpg,,,,,,,,,,,,,,,,,,,,,,,,,,,,,,,,,,,,,,,,,,,,,,,,0,2,2,0,1,,,,,,,,,,,,,,,,,,,,,,,,,,,,,,,,,,,,,,,,,
107952,001,2022-11-21_24h51.19.034,Info_measure_main_exp,2022.2.2,Win32,58.95878781,,,,,,,,,,,,,,,,,,masks/mask_004.jpg,,,,,,,,,,,,,,,,,,,,,,,,,,,,,,,,,,,,,,,,,,,,,,,,0,3,3,3,1,,,,,,,,,,,,,,,,,,,,,,,,,,,,,,,,,,,,,,,,,
107952,001,2022-11-21_24h51.19.034,Info_measure_main_exp,2022.2.2,Win32,58.95878781,,,,,,,,,,,,,,,,,,masks/mask_003.jpg,,,,,,,,,,,,,,,,,,,,,,,,,,,,,,,,,,,,,,,,,,,,,,,,0,4,4,2,1,,,,,,,,,,,,,,,,,,,,,,,,,,,,,,,,,,,,,,,,,
107952,001,2022-11-21_24h51.19.034,Info_measure_main_exp,2022.2.2,Win32,58.95878781,,,,,,,,,,,,,,,,,,,,,,,,,,,,,,3,1.3026,1,,,,,,,,,,,,0,131,5,5,2214,2082,absent_patch/patch0002214.jpg,absent_patch/patch0002082.jpg,,,,,,,,,,,,,,,,,,,,-0.023809524,-0.053333333,1,0,0,response5disk,12,0.002857143,-0.004761905,1,0,0,center_square,0,11,11,103,1,,,,,,,,,,,,,,,,,,,,,,,
107952,001,2022-11-21_24h51.19.034,Info_measure_main_exp,2022.2.2,Win32,58.95878781,,,,,,,,,,,,,,,,,,masks/mask_003.jpg,,,,,,,,,,,,,,,,,,,,,,,,,,,,,,,,,,,,,,,,,,,0,0,0,2,1,,,,,,,,,,,,,,,,,,,,,,,,,,,,,,,,,,,,,,,,,,,,,,
107952,001,2022-11-21_24h51.19.034,Info_measure_main_exp,2022.2.2,Win32,58.95878781,,,,,,,,,,,,,,,,,,masks/mask_002.jpg,,,,,,,,,,,,,,,,,,,,,,,,,,,,,,,,,,,,,,,,,,,0,1,1,1,1,,,,,,,,,,,,,,,,,,,,,,,,,,,,,,,,,,,,,,,,,,,,,,
107952,001,2022-11-21_24h51.19.034,Info_measure_main_exp,2022.2.2,Win32,58.95878781,,,,,,,,,,,,,,,,,,masks/mask_004.jpg,,,,,,,,,,,,,,,,,,,,,,,,,,,,,,,,,,,,,,,,,,,0,2,2,3,1,,,,,,,,,,,,,,,,,,,,,,,,,,,,,,,,,,,,,,,,,,,,,,
107952,001,2022-11-21_24h51.19.034,Info_measure_main_exp,2022.2.2,Win32,58.95878781,,,,,,,,,,,,,,,,,,masks/mask_005.jpg,,,,,,,,,,,,,,,,,,,,,,,,,,,,,,,,,,,,,,,,,,,0,3,3,4,1,,,,,,,,,,,,,,,,,,,,,,,,,,,,,,,,,,,,,,,,,,,,,,
107952,001,2022-11-21_24h51.19.034,Info_measure_main_exp,2022.2.2,Win32,58.95878781,,,,,,,,,,,,,,,,,,masks/mask_001.jpg,,,,,,,,,,,,,,,,,,,,,,,,,,,,,,,,,,,,,,,,,,,0,4,4,0,1,,,,,,,,,,,,,,,,,,,,,,,,,,,,,,,,,,,,,,,,,,,,,,
107952,001,2022-11-21_24h51.19.034,Info_measure_main_exp,2022.2.2,Win32,58.95878781,,,,,,,,,,,,,,,,,,masks/mask_002.jpg,,,,,,,,,,,,,,,,,,,,,,,,,,,,,,,,,,,,,,,,,,,,,,,,0,0,0,1,1,,,,,,,,,,,,,,,,,,,,,,,,,,,,,,,,,,,,,,,,,
107952,001,2022-11-21_24h51.19.034,Info_measure_main_exp,2022.2.2,Win32,58.95878781,,,,,,,,,,,,,,,,,,masks/mask_005.jpg,,,,,,,,,,,,,,,,,,,,,,,,,,,,,,,,,,,,,,,,,,,,,,,,0,1,1,4,1,,,,,,,,,,,,,,,,,,,,,,,,,,,,,,,,,,,,,,,,,
107952,001,2022-11-21_24h51.19.034,Info_measure_main_exp,2022.2.2,Win32,58.95878781,,,,,,,,,,,,,,,,,,masks/mask_001.jpg,,,,,,,,,,,,,,,,,,,,,,,,,,,,,,,,,,,,,,,,,,,,,,,,0,2,2,0,1,,,,,,,,,,,,,,,,,,,,,,,,,,,,,,,,,,,,,,,,,
107952,001,2022-11-21_24h51.19.034,Info_measure_main_exp,2022.2.2,Win32,58.95878781,,,,,,,,,,,,,,,,,,masks/mask_003.jpg,,,,,,,,,,,,,,,,,,,,,,,,,,,,,,,,,,,,,,,,,,,,,,,,0,3,3,2,1,,,,,,,,,,,,,,,,,,,,,,,,,,,,,,,,,,,,,,,,,
107952,001,2022-11-21_24h51.19.034,Info_measure_main_exp,2022.2.2,Win32,58.95878781,,,,,,,,,,,,,,,,,,masks/mask_004.jpg,,,,,,,,,,,,,,,,,,,,,,,,,,,,,,,,,,,,,,,,,,,,,,,,0,4,4,3,1,,,,,,,,,,,,,,,,,,,,,,,,,,,,,,,,,,,,,,,,,
107952,001,2022-11-21_24h51.19.034,Info_measure_main_exp,2022.2.2,Win32,58.95878781,,,,,,,,,,,,,,,,,,,,,,,,,,,,,,5,1.5522,1,,,,,,,,,,,,0,131,5,5,2238,2166,absent_patch/patch0002238.jpg,absent_patch/patch0002166.jpg,,,,,,,,,,,,,,,,,,,,0.052380952,-0.019047619,1,0,0,response3disk,13,-0.003809524,0.003809524,1,0,0,center_square,0,12,12,118,1,,,,,,,,,,,,,,,,,,,,,,,
107952,001,2022-11-21_24h51.19.034,Info_measure_main_exp,2022.2.2,Win32,58.95878781,,,,,,,,,,,,,,,,,,masks/mask_005.jpg,,,,,,,,,,,,,,,,,,,,,,,,,,,,,,,,,,,,,,,,,,,0,0,0,4,1,,,,,,,,,,,,,,,,,,,,,,,,,,,,,,,,,,,,,,,,,,,,,,
107952,001,2022-11-21_24h51.19.034,Info_measure_main_exp,2022.2.2,Win32,58.95878781,,,,,,,,,,,,,,,,,,masks/mask_001.jpg,,,,,,,,,,,,,,,,,,,,,,,,,,,,,,,,,,,,,,,,,,,0,1,1,0,1,,,,,,,,,,,,,,,,,,,,,,,,,,,,,,,,,,,,,,,,,,,,,,
107952,001,2022-11-21_24h51.19.034,Info_measure_main_exp,2022.2.2,Win32,58.95878781,,,,,,,,,,,,,,,,,,masks/mask_002.jpg,,,,,,,,,,,,,,,,,,,,,,,,,,,,,,,,,,,,,,,,,,,0,2,2,1,1,,,,,,,,,,,,,,,,,,,,,,,,,,,,,,,,,,,,,,,,,,,,,,
107952,001,2022-11-21_24h51.19.034,Info_measure_main_exp,2022.2.2,Win32,58.95878781,,,,,,,,,,,,,,,,,,masks/mask_004.jpg,,,,,,,,,,,,,,,,,,,,,,,,,,,,,,,,,,,,,,,,,,,0,3,3,3,1,,,,,,,,,,,,,,,,,,,,,,,,,,,,,,,,,,,,,,,,,,,,,,
107952,001,2022-11-21_24h51.19.034,Info_measure_main_exp,2022.2.2,Win32,58.95878781,,,,,,,,,,,,,,,,,,masks/mask_003.jpg,,,,,,,,,,,,,,,,,,,,,,,,,,,,,,,,,,,,,,,,,,,0,4,4,2,1,,,,,,,,,,,,,,,,,,,,,,,,,,,,,,,,,,,,,,,,,,,,,,
107952,001,2022-11-21_24h51.19.034,Info_measure_main_exp,2022.2.2,Win32,58.95878781,,,,,,,,,,,,,,,,,,masks/mask_002.jpg,,,,,,,,,,,,,,,,,,,,,,,,,,,,,,,,,,,,,,,,,,,,,,,,0,0,0,1,1,,,,,,,,,,,,,,,,,,,,,,,,,,,,,,,,,,,,,,,,,
107952,001,2022-11-21_24h51.19.034,Info_measure_main_exp,2022.2.2,Win32,58.95878781,,,,,,,,,,,,,,,,,,masks/mask_004.jpg,,,,,,,,,,,,,,,,,,,,,,,,,,,,,,,,,,,,,,,,,,,,,,,,0,1,1,3,1,,,,,,,,,,,,,,,,,,,,,,,,,,,,,,,,,,,,,,,,,
107952,001,2022-11-21_24h51.19.034,Info_measure_main_exp,2022.2.2,Win32,58.95878781,,,,,,,,,,,,,,,,,,masks/mask_005.jpg,,,,,,,,,,,,,,,,,,,,,,,,,,,,,,,,,,,,,,,,,,,,,,,,0,2,2,4,1,,,,,,,,,,,,,,,,,,,,,,,,,,,,,,,,,,,,,,,,,
107952,001,2022-11-21_24h51.19.034,Info_measure_main_exp,2022.2.2,Win32,58.95878781,,,,,,,,,,,,,,,,,,masks/mask_003.jpg,,,,,,,,,,,,,,,,,,,,,,,,,,,,,,,,,,,,,,,,,,,,,,,,0,3,3,2,1,,,,,,,,,,,,,,,,,,,,,,,,,,,,,,,,,,,,,,,,,
107952,001,2022-11-21_24h51.19.034,Info_measure_main_exp,2022.2.2,Win32,58.95878781,,,,,,,,,,,,,,,,,,masks/mask_001.jpg,,,,,,,,,,,,,,,,,,,,,,,,,,,,,,,,,,,,,,,,,,,,,,,,0,4,4,0,1,,,,,,,,,,,,,,,,,,,,,,,,,,,,,,,,,,,,,,,,,
107952,001,2022-11-21_24h51.19.034,Info_measure_main_exp,2022.2.2,Win32,58.95878781,,,,,,,,,,,,,,,,,,,,,,,,,,,,,,3,1.8443,1,,,,,,,,,,,,0,131,5,5,2298,2214,absent_patch/patch0002298.jpg,absent_patch/patch0002214.jpg,,,,,,,,,,,,,,,,,,,,-0.018095238,-0.079047619,1,0,0,response5disk,14,0.002857143,0.001904762,1,0,0,center_square,0,13,13,99,1,,,,,,,,,,,,,,,,,,,,,,,
107952,001,2022-11-21_24h51.19.034,Info_measure_main_exp,2022.2.2,Win32,58.95878781,,,,,,,,,,,,,,,,,,masks/mask_001.jpg,,,,,,,,,,,,,,,,,,,,,,,,,,,,,,,,,,,,,,,,,,,0,0,0,0,1,,,,,,,,,,,,,,,,,,,,,,,,,,,,,,,,,,,,,,,,,,,,,,
107952,001,2022-11-21_24h51.19.034,Info_measure_main_exp,2022.2.2,Win32,58.95878781,,,,,,,,,,,,,,,,,,masks/mask_004.jpg,,,,,,,,,,,,,,,,,,,,,,,,,,,,,,,,,,,,,,,,,,,0,1,1,3,1,,,,,,,,,,,,,,,,,,,,,,,,,,,,,,,,,,,,,,,,,,,,,,
107952,001,2022-11-21_24h51.19.034,Info_measure_main_exp,2022.2.2,Win32,58.95878781,,,,,,,,,,,,,,,,,,masks/mask_003.jpg,,,,,,,,,,,,,,,,,,,,,,,,,,,,,,,,,,,,,,,,,,,0,2,2,2,1,,,,,,,,,,,,,,,,,,,,,,,,,,,,,,,,,,,,,,,,,,,,,,
107952,001,2022-11-21_24h51.19.034,Info_measure_main_exp,2022.2.2,Win32,58.95878781,,,,,,,,,,,,,,,,,,masks/mask_005.jpg,,,,,,,,,,,,,,,,,,,,,,,,,,,,,,,,,,,,,,,,,,,0,3,3,4,1,,,,,,,,,,,,,,,,,,,,,,,,,,,,,,,,,,,,,,,,,,,,,,
107952,001,2022-11-21_24h51.19.034,Info_measure_main_exp,2022.2.2,Win32,58.95878781,,,,,,,,,,,,,,,,,,masks/mask_002.jpg,,,,,,,,,,,,,,,,,,,,,,,,,,,,,,,,,,,,,,,,,,,0,4,4,1,1,,,,,,,,,,,,,,,,,,,,,,,,,,,,,,,,,,,,,,,,,,,,,,
107952,001,2022-11-21_24h51.19.034,Info_measure_main_exp,2022.2.2,Win32,58.95878781,,,,,,,,,,,,,,,,,,masks/mask_002.jpg,,,,,,,,,,,,,,,,,,,,,,,,,,,,,,,,,,,,,,,,,,,,,,,,0,0,0,1,1,,,,,,,,,,,,,,,,,,,,,,,,,,,,,,,,,,,,,,,,,
107952,001,2022-11-21_24h51.19.034,Info_measure_main_exp,2022.2.2,Win32,58.95878781,,,,,,,,,,,,,,,,,,masks/mask_001.jpg,,,,,,,,,,,,,,,,,,,,,,,,,,,,,,,,,,,,,,,,,,,,,,,,0,1,1,0,1,,,,,,,,,,,,,,,,,,,,,,,,,,,,,,,,,,,,,,,,,
107952,001,2022-11-21_24h51.19.034,Info_measure_main_exp,2022.2.2,Win32,58.95878781,,,,,,,,,,,,,,,,,,masks/mask_005.jpg,,,,,,,,,,,,,,,,,,,,,,,,,,,,,,,,,,,,,,,,,,,,,,,,0,2,2,4,1,,,,,,,,,,,,,,,,,,,,,,,,,,,,,,,,,,,,,,,,,
107952,001,2022-11-21_24h51.19.034,Info_measure_main_exp,2022.2.2,Win32,58.95878781,,,,,,,,,,,,,,,,,,masks/mask_004.jpg,,,,,,,,,,,,,,,,,,,,,,,,,,,,,,,,,,,,,,,,,,,,,,,,0,3,3,3,1,,,,,,,,,,,,,,,,,,,,,,,,,,,,,,,,,,,,,,,,,
107952,001,2022-11-21_24h51.19.034,Info_measure_main_exp,2022.2.2,Win32,58.95878781,,,,,,,,,,,,,,,,,,masks/mask_003.jpg,,,,,,,,,,,,,,,,,,,,,,,,,,,,,,,,,,,,,,,,,,,,,,,,0,4,4,2,1,,,,,,,,,,,,,,,,,,,,,,,,,,,,,,,,,,,,,,,,,
107952,001,2022-11-21_24h51.19.034,Info_measure_main_exp,2022.2.2,Win32,58.95878781,,,,,,,,,,,,,,,,,,,,,,,,,,,,,,0,0.7186,1,,,,,,,,,,,,0,131,5,5,2274,2274,absent_patch/patch0002274.jpg,absent_patch/patch0002274.jpg,,,,,,,,,,,,,,,,,,,,-0.014285714,0.039047619,1,0,0,response7disk,15,0,-0.003809524,1,0,0,center_square,0,14,14,114,1,,,,,,,,,,,,,,,,,,,,,,,
107952,001,2022-11-21_24h51.19.034,Info_measure_main_exp,2022.2.2,Win32,58.95878781,,,,,,,,,,,,,,,,,,masks/mask_005.jpg,,,,,,,,,,,,,,,,,,,,,,,,,,,,,,,,,,,,,,,,,,,0,0,0,4,1,,,,,,,,,,,,,,,,,,,,,,,,,,,,,,,,,,,,,,,,,,,,,,
107952,001,2022-11-21_24h51.19.034,Info_measure_main_exp,2022.2.2,Win32,58.95878781,,,,,,,,,,,,,,,,,,masks/mask_001.jpg,,,,,,,,,,,,,,,,,,,,,,,,,,,,,,,,,,,,,,,,,,,0,1,1,0,1,,,,,,,,,,,,,,,,,,,,,,,,,,,,,,,,,,,,,,,,,,,,,,
107952,001,2022-11-21_24h51.19.034,Info_measure_main_exp,2022.2.2,Win32,58.95878781,,,,,,,,,,,,,,,,,,masks/mask_003.jpg,,,,,,,,,,,,,,,,,,,,,,,,,,,,,,,,,,,,,,,,,,,0,2,2,2,1,,,,,,,,,,,,,,,,,,,,,,,,,,,,,,,,,,,,,,,,,,,,,,
107952,001,2022-11-21_24h51.19.034,Info_measure_main_exp,2022.2.2,Win32,58.95878781,,,,,,,,,,,,,,,,,,masks/mask_004.jpg,,,,,,,,,,,,,,,,,,,,,,,,,,,,,,,,,,,,,,,,,,,0,3,3,3,1,,,,,,,,,,,,,,,,,,,,,,,,,,,,,,,,,,,,,,,,,,,,,,
107952,001,2022-11-21_24h51.19.034,Info_measure_main_exp,2022.2.2,Win32,58.95878781,,,,,,,,,,,,,,,,,,masks/mask_002.jpg,,,,,,,,,,,,,,,,,,,,,,,,,,,,,,,,,,,,,,,,,,,0,4,4,1,1,,,,,,,,,,,,,,,,,,,,,,,,,,,,,,,,,,,,,,,,,,,,,,
107952,001,2022-11-21_24h51.19.034,Info_measure_main_exp,2022.2.2,Win32,58.95878781,,,,,,,,,,,,,,,,,,masks/mask_004.jpg,,,,,,,,,,,,,,,,,,,,,,,,,,,,,,,,,,,,,,,,,,,,,,,,0,0,0,3,1,,,,,,,,,,,,,,,,,,,,,,,,,,,,,,,,,,,,,,,,,
107952,001,2022-11-21_24h51.19.034,Info_measure_main_exp,2022.2.2,Win32,58.95878781,,,,,,,,,,,,,,,,,,masks/mask_002.jpg,,,,,,,,,,,,,,,,,,,,,,,,,,,,,,,,,,,,,,,,,,,,,,,,0,1,1,1,1,,,,,,,,,,,,,,,,,,,,,,,,,,,,,,,,,,,,,,,,,
107952,001,2022-11-21_24h51.19.034,Info_measure_main_exp,2022.2.2,Win32,58.95878781,,,,,,,,,,,,,,,,,,masks/mask_003.jpg,,,,,,,,,,,,,,,,,,,,,,,,,,,,,,,,,,,,,,,,,,,,,,,,0,2,2,2,1,,,,,,,,,,,,,,,,,,,,,,,,,,,,,,,,,,,,,,,,,
107952,001,2022-11-21_24h51.19.034,Info_measure_main_exp,2022.2.2,Win32,58.95878781,,,,,,,,,,,,,,,,,,masks/mask_005.jpg,,,,,,,,,,,,,,,,,,,,,,,,,,,,,,,,,,,,,,,,,,,,,,,,0,3,3,4,1,,,,,,,,,,,,,,,,,,,,,,,,,,,,,,,,,,,,,,,,,
107952,001,2022-11-21_24h51.19.034,Info_measure_main_exp,2022.2.2,Win32,58.95878781,,,,,,,,,,,,,,,,,,masks/mask_001.jpg,,,,,,,,,,,,,,,,,,,,,,,,,,,,,,,,,,,,,,,,,,,,,,,,0,4,4,0,1,,,,,,,,,,,,,,,,,,,,,,,,,,,,,,,,,,,,,,,,,
107952,001,2022-11-21_24h51.19.034,Info_measure_main_exp,2022.2.2,Win32,58.95878781,,,,,,,,,,,,,,,,,,,,,,,,,,,,,,6,2.4408,1,,,,,,,,,,,,0,131,5,5,2178,2238,absent_patch/patch0002178.jpg,absent_patch/patch0002238.jpg,,,,,,,,,,,,,,,,,,,,0.071428571,0.015238095,1,0,0,response1disk,16,0,0.000952381,1,0,0,center_square,0,15,15,57,1,,,,,,,,,,,,,,,,,,,,,,,
107952,001,2022-11-21_24h51.19.034,Info_measure_main_exp,2022.2.2,Win32,58.95878781,,,,,,,,,,,,,,,,,,masks/mask_002.jpg,,,,,,,,,,,,,,,,,,,,,,,,,,,,,,,,,,,,,,,,,,,0,0,0,1,1,,,,,,,,,,,,,,,,,,,,,,,,,,,,,,,,,,,,,,,,,,,,,,
107952,001,2022-11-21_24h51.19.034,Info_measure_main_exp,2022.2.2,Win32,58.95878781,,,,,,,,,,,,,,,,,,masks/mask_005.jpg,,,,,,,,,,,,,,,,,,,,,,,,,,,,,,,,,,,,,,,,,,,0,1,1,4,1,,,,,,,,,,,,,,,,,,,,,,,,,,,,,,,,,,,,,,,,,,,,,,
107952,001,2022-11-21_24h51.19.034,Info_measure_main_exp,2022.2.2,Win32,58.95878781,,,,,,,,,,,,,,,,,,masks/mask_003.jpg,,,,,,,,,,,,,,,,,,,,,,,,,,,,,,,,,,,,,,,,,,,0,2,2,2,1,,,,,,,,,,,,,,,,,,,,,,,,,,,,,,,,,,,,,,,,,,,,,,
107952,001,2022-11-21_24h51.19.034,Info_measure_main_exp,2022.2.2,Win32,58.95878781,,,,,,,,,,,,,,,,,,masks/mask_001.jpg,,,,,,,,,,,,,,,,,,,,,,,,,,,,,,,,,,,,,,,,,,,0,3,3,0,1,,,,,,,,,,,,,,,,,,,,,,,,,,,,,,,,,,,,,,,,,,,,,,
107952,001,2022-11-21_24h51.19.034,Info_measure_main_exp,2022.2.2,Win32,58.95878781,,,,,,,,,,,,,,,,,,masks/mask_004.jpg,,,,,,,,,,,,,,,,,,,,,,,,,,,,,,,,,,,,,,,,,,,0,4,4,3,1,,,,,,,,,,,,,,,,,,,,,,,,,,,,,,,,,,,,,,,,,,,,,,
107952,001,2022-11-21_24h51.19.034,Info_measure_main_exp,2022.2.2,Win32,58.95878781,,,,,,,,,,,,,,,,,,masks/mask_002.jpg,,,,,,,,,,,,,,,,,,,,,,,,,,,,,,,,,,,,,,,,,,,,,,,,0,0,0,1,1,,,,,,,,,,,,,,,,,,,,,,,,,,,,,,,,,,,,,,,,,
107952,001,2022-11-21_24h51.19.034,Info_measure_main_exp,2022.2.2,Win32,58.95878781,,,,,,,,,,,,,,,,,,masks/mask_004.jpg,,,,,,,,,,,,,,,,,,,,,,,,,,,,,,,,,,,,,,,,,,,,,,,,0,1,1,3,1,,,,,,,,,,,,,,,,,,,,,,,,,,,,,,,,,,,,,,,,,
107952,001,2022-11-21_24h51.19.034,Info_measure_main_exp,2022.2.2,Win32,58.95878781,,,,,,,,,,,,,,,,,,masks/mask_001.jpg,,,,,,,,,,,,,,,,,,,,,,,,,,,,,,,,,,,,,,,,,,,,,,,,0,2,2,0,1,,,,,,,,,,,,,,,,,,,,,,,,,,,,,,,,,,,,,,,,,
107952,001,2022-11-21_24h51.19.034,Info_measure_main_exp,2022.2.2,Win32,58.95878781,,,,,,,,,,,,,,,,,,masks/mask_005.jpg,,,,,,,,,,,,,,,,,,,,,,,,,,,,,,,,,,,,,,,,,,,,,,,,0,3,3,4,1,,,,,,,,,,,,,,,,,,,,,,,,,,,,,,,,,,,,,,,,,
107952,001,2022-11-21_24h51.19.034,Info_measure_main_exp,2022.2.2,Win32,58.95878781,,,,,,,,,,,,,,,,,,masks/mask_003.jpg,,,,,,,,,,,,,,,,,,,,,,,,,,,,,,,,,,,,,,,,,,,,,,,,0,4,4,2,1,,,,,,,,,,,,,,,,,,,,,,,,,,,,,,,,,,,,,,,,,
107952,001,2022-11-21_24h51.19.034,Info_measure_main_exp,2022.2.2,Win32,58.95878781,,,,,,,,,,,,,,,,,,,,,,,,,,,,,,4,1.2013,1,,,,,,,,,,,,1,131,5,5,2082,1,absent_patch/patch0002082.jpg,present_patch/cong_131_5_a.jpg,,,,,,,,,,,,,,,,,,,,0.026666667,-0.059047619,1,0,0,response3disk,17,0.000952381,-0.000952381,1,0,0,center_square,0,16,16,65,1,,,,,,,,,,,,,,,,,,,,,,,
107952,001,2022-11-21_24h51.19.034,Info_measure_main_exp,2022.2.2,Win32,58.95878781,,,,,,,,,,,,,,,,,,masks/mask_002.jpg,,,,,,,,,,,,,,,,,,,,,,,,,,,,,,,,,,,,,,,,,,,0,0,0,1,1,,,,,,,,,,,,,,,,,,,,,,,,,,,,,,,,,,,,,,,,,,,,,,
107952,001,2022-11-21_24h51.19.034,Info_measure_main_exp,2022.2.2,Win32,58.95878781,,,,,,,,,,,,,,,,,,masks/mask_001.jpg,,,,,,,,,,,,,,,,,,,,,,,,,,,,,,,,,,,,,,,,,,,0,1,1,0,1,,,,,,,,,,,,,,,,,,,,,,,,,,,,,,,,,,,,,,,,,,,,,,
107952,001,2022-11-21_24h51.19.034,Info_measure_main_exp,2022.2.2,Win32,58.95878781,,,,,,,,,,,,,,,,,,masks/mask_004.jpg,,,,,,,,,,,,,,,,,,,,,,,,,,,,,,,,,,,,,,,,,,,0,2,2,3,1,,,,,,,,,,,,,,,,,,,,,,,,,,,,,,,,,,,,,,,,,,,,,,
107952,001,2022-11-21_24h51.19.034,Info_measure_main_exp,2022.2.2,Win32,58.95878781,,,,,,,,,,,,,,,,,,masks/mask_005.jpg,,,,,,,,,,,,,,,,,,,,,,,,,,,,,,,,,,,,,,,,,,,0,3,3,4,1,,,,,,,,,,,,,,,,,,,,,,,,,,,,,,,,,,,,,,,,,,,,,,
107952,001,2022-11-21_24h51.19.034,Info_measure_main_exp,2022.2.2,Win32,58.95878781,,,,,,,,,,,,,,,,,,masks/mask_003.jpg,,,,,,,,,,,,,,,,,,,,,,,,,,,,,,,,,,,,,,,,,,,0,4,4,2,1,,,,,,,,,,,,,,,,,,,,,,,,,,,,,,,,,,,,,,,,,,,,,,
107952,001,2022-11-21_24h51.19.034,Info_measure_main_exp,2022.2.2,Win32,58.95878781,,,,,,,,,,,,,,,,,,masks/mask_002.jpg,,,,,,,,,,,,,,,,,,,,,,,,,,,,,,,,,,,,,,,,,,,,,,,,0,0,0,1,1,,,,,,,,,,,,,,,,,,,,,,,,,,,,,,,,,,,,,,,,,
107952,001,2022-11-21_24h51.19.034,Info_measure_main_exp,2022.2.2,Win32,58.95878781,,,,,,,,,,,,,,,,,,masks/mask_005.jpg,,,,,,,,,,,,,,,,,,,,,,,,,,,,,,,,,,,,,,,,,,,,,,,,0,1,1,4,1,,,,,,,,,,,,,,,,,,,,,,,,,,,,,,,,,,,,,,,,,
107952,001,2022-11-21_24h51.19.034,Info_measure_main_exp,2022.2.2,Win32,58.95878781,,,,,,,,,,,,,,,,,,masks/mask_004.jpg,,,,,,,,,,,,,,,,,,,,,,,,,,,,,,,,,,,,,,,,,,,,,,,,0,2,2,3,1,,,,,,,,,,,,,,,,,,,,,,,,,,,,,,,,,,,,,,,,,
107952,001,2022-11-21_24h51.19.034,Info_measure_main_exp,2022.2.2,Win32,58.95878781,,,,,,,,,,,,,,,,,,masks/mask_003.jpg,,,,,,,,,,,,,,,,,,,,,,,,,,,,,,,,,,,,,,,,,,,,,,,,0,3,3,2,1,,,,,,,,,,,,,,,,,,,,,,,,,,,,,,,,,,,,,,,,,
107952,001,2022-11-21_24h51.19.034,Info_measure_main_exp,2022.2.2,Win32,58.95878781,,,,,,,,,,,,,,,,,,masks/mask_001.jpg,,,,,,,,,,,,,,,,,,,,,,,,,,,,,,,,,,,,,,,,,,,,,,,,0,4,4,0,1,,,,,,,,,,,,,,,,,,,,,,,,,,,,,,,,,,,,,,,,,
107952,001,2022-11-21_24h51.19.034,Info_measure_main_exp,2022.2.2,Win32,58.95878781,,,,,,,,,,,,,,,,,,,,,,,,,,,,,,2,1.0029,1,,,,,,,,,,,,0,131,5,5,2298,2190,absent_patch/patch0002298.jpg,absent_patch/patch0002190.jpg,,,,,,,,,,,,,,,,,,,,-0.038095238,-0.001904762,1,0,0,response5disk,18,0.001904762,0.001904762,1,0,0,center_square,0,17,17,20,1,,,,,,,,,,,,,,,,,,,,,,,
107952,001,2022-11-21_24h51.19.034,Info_measure_main_exp,2022.2.2,Win32,58.95878781,,,,,,,,,,,,,,,,,,masks/mask_003.jpg,,,,,,,,,,,,,,,,,,,,,,,,,,,,,,,,,,,,,,,,,,,0,0,0,2,1,,,,,,,,,,,,,,,,,,,,,,,,,,,,,,,,,,,,,,,,,,,,,,
107952,001,2022-11-21_24h51.19.034,Info_measure_main_exp,2022.2.2,Win32,58.95878781,,,,,,,,,,,,,,,,,,masks/mask_004.jpg,,,,,,,,,,,,,,,,,,,,,,,,,,,,,,,,,,,,,,,,,,,0,1,1,3,1,,,,,,,,,,,,,,,,,,,,,,,,,,,,,,,,,,,,,,,,,,,,,,
107952,001,2022-11-21_24h51.19.034,Info_measure_main_exp,2022.2.2,Win32,58.95878781,,,,,,,,,,,,,,,,,,masks/mask_001.jpg,,,,,,,,,,,,,,,,,,,,,,,,,,,,,,,,,,,,,,,,,,,0,2,2,0,1,,,,,,,,,,,,,,,,,,,,,,,,,,,,,,,,,,,,,,,,,,,,,,
107952,001,2022-11-21_24h51.19.034,Info_measure_main_exp,2022.2.2,Win32,58.95878781,,,,,,,,,,,,,,,,,,masks/mask_005.jpg,,,,,,,,,,,,,,,,,,,,,,,,,,,,,,,,,,,,,,,,,,,0,3,3,4,1,,,,,,,,,,,,,,,,,,,,,,,,,,,,,,,,,,,,,,,,,,,,,,
107952,001,2022-11-21_24h51.19.034,Info_measure_main_exp,2022.2.2,Win32,58.95878781,,,,,,,,,,,,,,,,,,masks/mask_002.jpg,,,,,,,,,,,,,,,,,,,,,,,,,,,,,,,,,,,,,,,,,,,0,4,4,1,1,,,,,,,,,,,,,,,,,,,,,,,,,,,,,,,,,,,,,,,,,,,,,,
107952,001,2022-11-21_24h51.19.034,Info_measure_main_exp,2022.2.2,Win32,58.95878781,,,,,,,,,,,,,,,,,,masks/mask_005.jpg,,,,,,,,,,,,,,,,,,,,,,,,,,,,,,,,,,,,,,,,,,,,,,,,0,0,0,4,1,,,,,,,,,,,,,,,,,,,,,,,,,,,,,,,,,,,,,,,,,
107952,001,2022-11-21_24h51.19.034,Info_measure_main_exp,2022.2.2,Win32,58.95878781,,,,,,,,,,,,,,,,,,masks/mask_004.jpg,,,,,,,,,,,,,,,,,,,,,,,,,,,,,,,,,,,,,,,,,,,,,,,,0,1,1,3,1,,,,,,,,,,,,,,,,,,,,,,,,,,,,,,,,,,,,,,,,,
107952,001,2022-11-21_24h51.19.034,Info_measure_main_exp,2022.2.2,Win32,58.95878781,,,,,,,,,,,,,,,,,,masks/mask_001.jpg,,,,,,,,,,,,,,,,,,,,,,,,,,,,,,,,,,,,,,,,,,,,,,,,0,2,2,0,1,,,,,,,,,,,,,,,,,,,,,,,,,,,,,,,,,,,,,,,,,
107952,001,2022-11-21_24h51.19.034,Info_measure_main_exp,2022.2.2,Win32,58.95878781,,,,,,,,,,,,,,,,,,masks/mask_002.jpg,,,,,,,,,,,,,,,,,,,,,,,,,,,,,,,,,,,,,,,,,,,,,,,,0,3,3,1,1,,,,,,,,,,,,,,,,,,,,,,,,,,,,,,,,,,,,,,,,,
107952,001,2022-11-21_24h51.19.034,Info_measure_main_exp,2022.2.2,Win32,58.95878781,,,,,,,,,,,,,,,,,,masks/mask_003.jpg,,,,,,,,,,,,,,,,,,,,,,,,,,,,,,,,,,,,,,,,,,,,,,,,0,4,4,2,1,,,,,,,,,,,,,,,,,,,,,,,,,,,,,,,,,,,,,,,,,
107952,001,2022-11-21_24h51.19.034,Info_measure_main_exp,2022.2.2,Win32,58.95878781,,,,,,,,,,,,,,,,,,,,,,,,,,,,,,4,1.5359,1,,,,,,,,,,,,0,131,5,5,1950,2178,absent_patch/patch0001950.jpg,absent_patch/patch0002178.jpg,,,,,,,,,,,,,,,,,,,,0.014285714,-0.048571429,1,0,0,response3disk,19,0.001904762,0.002857143,1,0,0,center_square,0,18,18,61,1,,,,,,,,,,,,,,,,,,,,,,,
107952,001,2022-11-21_24h51.19.034,Info_measure_main_exp,2022.2.2,Win32,58.95878781,,,,,,,,,,,,,,,,,,masks/mask_003.jpg,,,,,,,,,,,,,,,,,,,,,,,,,,,,,,,,,,,,,,,,,,,0,0,0,2,1,,,,,,,,,,,,,,,,,,,,,,,,,,,,,,,,,,,,,,,,,,,,,,
107952,001,2022-11-21_24h51.19.034,Info_measure_main_exp,2022.2.2,Win32,58.95878781,,,,,,,,,,,,,,,,,,masks/mask_005.jpg,,,,,,,,,,,,,,,,,,,,,,,,,,,,,,,,,,,,,,,,,,,0,1,1,4,1,,,,,,,,,,,,,,,,,,,,,,,,,,,,,,,,,,,,,,,,,,,,,,
107952,001,2022-11-21_24h51.19.034,Info_measure_main_exp,2022.2.2,Win32,58.95878781,,,,,,,,,,,,,,,,,,masks/mask_004.jpg,,,,,,,,,,,,,,,,,,,,,,,,,,,,,,,,,,,,,,,,,,,0,2,2,3,1,,,,,,,,,,,,,,,,,,,,,,,,,,,,,,,,,,,,,,,,,,,,,,
107952,001,2022-11-21_24h51.19.034,Info_measure_main_exp,2022.2.2,Win32,58.95878781,,,,,,,,,,,,,,,,,,masks/mask_002.jpg,,,,,,,,,,,,,,,,,,,,,,,,,,,,,,,,,,,,,,,,,,,0,3,3,1,1,,,,,,,,,,,,,,,,,,,,,,,,,,,,,,,,,,,,,,,,,,,,,,
107952,001,2022-11-21_24h51.19.034,Info_measure_main_exp,2022.2.2,Win32,58.95878781,,,,,,,,,,,,,,,,,,masks/mask_001.jpg,,,,,,,,,,,,,,,,,,,,,,,,,,,,,,,,,,,,,,,,,,,0,4,4,0,1,,,,,,,,,,,,,,,,,,,,,,,,,,,,,,,,,,,,,,,,,,,,,,
107952,001,2022-11-21_24h51.19.034,Info_measure_main_exp,2022.2.2,Win32,58.95878781,,,,,,,,,,,,,,,,,,masks/mask_004.jpg,,,,,,,,,,,,,,,,,,,,,,,,,,,,,,,,,,,,,,,,,,,,,,,,0,0,0,3,1,,,,,,,,,,,,,,,,,,,,,,,,,,,,,,,,,,,,,,,,,
107952,001,2022-11-21_24h51.19.034,Info_measure_main_exp,2022.2.2,Win32,58.95878781,,,,,,,,,,,,,,,,,,masks/mask_005.jpg,,,,,,,,,,,,,,,,,,,,,,,,,,,,,,,,,,,,,,,,,,,,,,,,0,1,1,4,1,,,,,,,,,,,,,,,,,,,,,,,,,,,,,,,,,,,,,,,,,
107952,001,2022-11-21_24h51.19.034,Info_measure_main_exp,2022.2.2,Win32,58.95878781,,,,,,,,,,,,,,,,,,masks/mask_001.jpg,,,,,,,,,,,,,,,,,,,,,,,,,,,,,,,,,,,,,,,,,,,,,,,,0,2,2,0,1,,,,,,,,,,,,,,,,,,,,,,,,,,,,,,,,,,,,,,,,,
107952,001,2022-11-21_24h51.19.034,Info_measure_main_exp,2022.2.2,Win32,58.95878781,,,,,,,,,,,,,,,,,,masks/mask_002.jpg,,,,,,,,,,,,,,,,,,,,,,,,,,,,,,,,,,,,,,,,,,,,,,,,0,3,3,1,1,,,,,,,,,,,,,,,,,,,,,,,,,,,,,,,,,,,,,,,,,
107952,001,2022-11-21_24h51.19.034,Info_measure_main_exp,2022.2.2,Win32,58.95878781,,,,,,,,,,,,,,,,,,masks/mask_003.jpg,,,,,,,,,,,,,,,,,,,,,,,,,,,,,,,,,,,,,,,,,,,,,,,,0,4,4,2,1,,,,,,,,,,,,,,,,,,,,,,,,,,,,,,,,,,,,,,,,,
107952,001,2022-11-21_24h51.19.034,Info_measure_main_exp,2022.2.2,Win32,58.95878781,,,,,,,,,,,,,,,,,,,,,,,,,,,,,,6,0.9017,1,,,,,,,,,,,,0,131,5,5,1974,2166,absent_patch/patch0001974.jpg,absent_patch/patch0002166.jpg,,,,,,,,,,,,,,,,,,,,0.057142857,0.008571429,1,0,0,response1disk,20,-0.001904762,-0.000952381,1,0,0,center_square,0,19,19,77,1,,,,,,,,,,,,,,,,,,,,,,,
107952,001,2022-11-21_24h51.19.034,Info_measure_main_exp,2022.2.2,Win32,58.95878781,,,,,,,,,,,,,,,,,,masks/mask_003.jpg,,,,,,,,,,,,,,,,,,,,,,,,,,,,,,,,,,,,,,,,,,,0,0,0,2,1,,,,,,,,,,,,,,,,,,,,,,,,,,,,,,,,,,,,,,,,,,,,,,
107952,001,2022-11-21_24h51.19.034,Info_measure_main_exp,2022.2.2,Win32,58.95878781,,,,,,,,,,,,,,,,,,masks/mask_005.jpg,,,,,,,,,,,,,,,,,,,,,,,,,,,,,,,,,,,,,,,,,,,0,1,1,4,1,,,,,,,,,,,,,,,,,,,,,,,,,,,,,,,,,,,,,,,,,,,,,,
107952,001,2022-11-21_24h51.19.034,Info_measure_main_exp,2022.2.2,Win32,58.95878781,,,,,,,,,,,,,,,,,,masks/mask_002.jpg,,,,,,,,,,,,,,,,,,,,,,,,,,,,,,,,,,,,,,,,,,,0,2,2,1,1,,,,,,,,,,,,,,,,,,,,,,,,,,,,,,,,,,,,,,,,,,,,,,
107952,001,2022-11-21_24h51.19.034,Info_measure_main_exp,2022.2.2,Win32,58.95878781,,,,,,,,,,,,,,,,,,masks/mask_001.jpg,,,,,,,,,,,,,,,,,,,,,,,,,,,,,,,,,,,,,,,,,,,0,3,3,0,1,,,,,,,,,,,,,,,,,,,,,,,,,,,,,,,,,,,,,,,,,,,,,,
107952,001,2022-11-21_24h51.19.034,Info_measure_main_exp,2022.2.2,Win32,58.95878781,,,,,,,,,,,,,,,,,,masks/mask_004.jpg,,,,,,,,,,,,,,,,,,,,,,,,,,,,,,,,,,,,,,,,,,,0,4,4,3,1,,,,,,,,,,,,,,,,,,,,,,,,,,,,,,,,,,,,,,,,,,,,,,
107952,001,2022-11-21_24h51.19.034,Info_measure_main_exp,2022.2.2,Win32,58.95878781,,,,,,,,,,,,,,,,,,masks/mask_003.jpg,,,,,,,,,,,,,,,,,,,,,,,,,,,,,,,,,,,,,,,,,,,,,,,,0,0,0,2,1,,,,,,,,,,,,,,,,,,,,,,,,,,,,,,,,,,,,,,,,,
107952,001,2022-11-21_24h51.19.034,Info_measure_main_exp,2022.2.2,Win32,58.95878781,,,,,,,,,,,,,,,,,,masks/mask_001.jpg,,,,,,,,,,,,,,,,,,,,,,,,,,,,,,,,,,,,,,,,,,,,,,,,0,1,1,0,1,,,,,,,,,,,,,,,,,,,,,,,,,,,,,,,,,,,,,,,,,
107952,001,2022-11-21_24h51.19.034,Info_measure_main_exp,2022.2.2,Win32,58.95878781,,,,,,,,,,,,,,,,,,masks/mask_002.jpg,,,,,,,,,,,,,,,,,,,,,,,,,,,,,,,,,,,,,,,,,,,,,,,,0,2,2,1,1,,,,,,,,,,,,,,,,,,,,,,,,,,,,,,,,,,,,,,,,,
107952,001,2022-11-21_24h51.19.034,Info_measure_main_exp,2022.2.2,Win32,58.95878781,,,,,,,,,,,,,,,,,,masks/mask_004.jpg,,,,,,,,,,,,,,,,,,,,,,,,,,,,,,,,,,,,,,,,,,,,,,,,0,3,3,3,1,,,,,,,,,,,,,,,,,,,,,,,,,,,,,,,,,,,,,,,,,
107952,001,2022-11-21_24h51.19.034,Info_measure_main_exp,2022.2.2,Win32,58.95878781,,,,,,,,,,,,,,,,,,masks/mask_005.jpg,,,,,,,,,,,,,,,,,,,,,,,,,,,,,,,,,,,,,,,,,,,,,,,,0,4,4,4,1,,,,,,,,,,,,,,,,,,,,,,,,,,,,,,,,,,,,,,,,,
107952,001,2022-11-21_24h51.19.034,Info_measure_main_exp,2022.2.2,Win32,58.95878781,,,,,,,,,,,,,,,,,,,,,,,,,,,,,,6,3.0507,1,,,,,,,,,,,,0,131,5,5,2154,1950,absent_patch/patch0002154.jpg,absent_patch/patch0001950.jpg,,,,,,,,,,,,,,,,,,,,0.058095238,0.026666667,1,0,0,response1disk,21,-0.000952381,0.000952381,1,0,0,center_square,0,20,20,96,1,,,,,,,,,,,,,,,,,,,,,,,
107952,001,2022-11-21_24h51.19.034,Info_measure_main_exp,2022.2.2,Win32,58.95878781,,,,,,,,,,,,,,,,,,masks/mask_005.jpg,,,,,,,,,,,,,,,,,,,,,,,,,,,,,,,,,,,,,,,,,,,0,0,0,4,1,,,,,,,,,,,,,,,,,,,,,,,,,,,,,,,,,,,,,,,,,,,,,,
107952,001,2022-11-21_24h51.19.034,Info_measure_main_exp,2022.2.2,Win32,58.95878781,,,,,,,,,,,,,,,,,,masks/mask_003.jpg,,,,,,,,,,,,,,,,,,,,,,,,,,,,,,,,,,,,,,,,,,,0,1,1,2,1,,,,,,,,,,,,,,,,,,,,,,,,,,,,,,,,,,,,,,,,,,,,,,
107952,001,2022-11-21_24h51.19.034,Info_measure_main_exp,2022.2.2,Win32,58.95878781,,,,,,,,,,,,,,,,,,masks/mask_004.jpg,,,,,,,,,,,,,,,,,,,,,,,,,,,,,,,,,,,,,,,,,,,0,2,2,3,1,,,,,,,,,,,,,,,,,,,,,,,,,,,,,,,,,,,,,,,,,,,,,,
107952,001,2022-11-21_24h51.19.034,Info_measure_main_exp,2022.2.2,Win32,58.95878781,,,,,,,,,,,,,,,,,,masks/mask_002.jpg,,,,,,,,,,,,,,,,,,,,,,,,,,,,,,,,,,,,,,,,,,,0,3,3,1,1,,,,,,,,,,,,,,,,,,,,,,,,,,,,,,,,,,,,,,,,,,,,,,
107952,001,2022-11-21_24h51.19.034,Info_measure_main_exp,2022.2.2,Win32,58.95878781,,,,,,,,,,,,,,,,,,masks/mask_001.jpg,,,,,,,,,,,,,,,,,,,,,,,,,,,,,,,,,,,,,,,,,,,0,4,4,0,1,,,,,,,,,,,,,,,,,,,,,,,,,,,,,,,,,,,,,,,,,,,,,,
107952,001,2022-11-21_24h51.19.034,Info_measure_main_exp,2022.2.2,Win32,58.95878781,,,,,,,,,,,,,,,,,,masks/mask_004.jpg,,,,,,,,,,,,,,,,,,,,,,,,,,,,,,,,,,,,,,,,,,,,,,,,0,0,0,3,1,,,,,,,,,,,,,,,,,,,,,,,,,,,,,,,,,,,,,,,,,
107952,001,2022-11-21_24h51.19.034,Info_measure_main_exp,2022.2.2,Win32,58.95878781,,,,,,,,,,,,,,,,,,masks/mask_002.jpg,,,,,,,,,,,,,,,,,,,,,,,,,,,,,,,,,,,,,,,,,,,,,,,,0,1,1,1,1,,,,,,,,,,,,,,,,,,,,,,,,,,,,,,,,,,,,,,,,,
107952,001,2022-11-21_24h51.19.034,Info_measure_main_exp,2022.2.2,Win32,58.95878781,,,,,,,,,,,,,,,,,,masks/mask_003.jpg,,,,,,,,,,,,,,,,,,,,,,,,,,,,,,,,,,,,,,,,,,,,,,,,0,2,2,2,1,,,,,,,,,,,,,,,,,,,,,,,,,,,,,,,,,,,,,,,,,
107952,001,2022-11-21_24h51.19.034,Info_measure_main_exp,2022.2.2,Win32,58.95878781,,,,,,,,,,,,,,,,,,masks/mask_005.jpg,,,,,,,,,,,,,,,,,,,,,,,,,,,,,,,,,,,,,,,,,,,,,,,,0,3,3,4,1,,,,,,,,,,,,,,,,,,,,,,,,,,,,,,,,,,,,,,,,,
107952,001,2022-11-21_24h51.19.034,Info_measure_main_exp,2022.2.2,Win32,58.95878781,,,,,,,,,,,,,,,,,,masks/mask_001.jpg,,,,,,,,,,,,,,,,,,,,,,,,,,,,,,,,,,,,,,,,,,,,,,,,0,4,4,0,1,,,,,,,,,,,,,,,,,,,,,,,,,,,,,,,,,,,,,,,,,
107952,001,2022-11-21_24h51.19.034,Info_measure_main_exp,2022.2.2,Win32,58.95878781,,,,,,,,,,,,,,,,,,,,,,,,,,,,,,6,1.883,1,,,,,,,,,,,,0,131,5,5,2154,2298,absent_patch/patch0002154.jpg,absent_patch/patch0002298.jpg,,,,,,,,,,,,,,,,,,,,0.066666667,0.032380952,1,0,0,response1disk,22,0.006666667,-0.003809524,1,0,0,center_square,0,21,21,27,1,,,,,,,,,,,,,,,,,,,,,,,
107952,001,2022-11-21_24h51.19.034,Info_measure_main_exp,2022.2.2,Win32,58.95878781,,,,,,,,,,,,,,,,,,masks/mask_004.jpg,,,,,,,,,,,,,,,,,,,,,,,,,,,,,,,,,,,,,,,,,,,0,0,0,3,1,,,,,,,,,,,,,,,,,,,,,,,,,,,,,,,,,,,,,,,,,,,,,,
107952,001,2022-11-21_24h51.19.034,Info_measure_main_exp,2022.2.2,Win32,58.95878781,,,,,,,,,,,,,,,,,,masks/mask_002.jpg,,,,,,,,,,,,,,,,,,,,,,,,,,,,,,,,,,,,,,,,,,,0,1,1,1,1,,,,,,,,,,,,,,,,,,,,,,,,,,,,,,,,,,,,,,,,,,,,,,
107952,001,2022-11-21_24h51.19.034,Info_measure_main_exp,2022.2.2,Win32,58.95878781,,,,,,,,,,,,,,,,,,masks/mask_003.jpg,,,,,,,,,,,,,,,,,,,,,,,,,,,,,,,,,,,,,,,,,,,0,2,2,2,1,,,,,,,,,,,,,,,,,,,,,,,,,,,,,,,,,,,,,,,,,,,,,,
107952,001,2022-11-21_24h51.19.034,Info_measure_main_exp,2022.2.2,Win32,58.95878781,,,,,,,,,,,,,,,,,,masks/mask_005.jpg,,,,,,,,,,,,,,,,,,,,,,,,,,,,,,,,,,,,,,,,,,,0,3,3,4,1,,,,,,,,,,,,,,,,,,,,,,,,,,,,,,,,,,,,,,,,,,,,,,
107952,001,2022-11-21_24h51.19.034,Info_measure_main_exp,2022.2.2,Win32,58.95878781,,,,,,,,,,,,,,,,,,masks/mask_001.jpg,,,,,,,,,,,,,,,,,,,,,,,,,,,,,,,,,,,,,,,,,,,0,4,4,0,1,,,,,,,,,,,,,,,,,,,,,,,,,,,,,,,,,,,,,,,,,,,,,,
107952,001,2022-11-21_24h51.19.034,Info_measure_main_exp,2022.2.2,Win32,58.95878781,,,,,,,,,,,,,,,,,,masks/mask_005.jpg,,,,,,,,,,,,,,,,,,,,,,,,,,,,,,,,,,,,,,,,,,,,,,,,0,0,0,4,1,,,,,,,,,,,,,,,,,,,,,,,,,,,,,,,,,,,,,,,,,
107952,001,2022-11-21_24h51.19.034,Info_measure_main_exp,2022.2.2,Win32,58.95878781,,,,,,,,,,,,,,,,,,masks/mask_001.jpg,,,,,,,,,,,,,,,,,,,,,,,,,,,,,,,,,,,,,,,,,,,,,,,,0,1,1,0,1,,,,,,,,,,,,,,,,,,,,,,,,,,,,,,,,,,,,,,,,,
107952,001,2022-11-21_24h51.19.034,Info_measure_main_exp,2022.2.2,Win32,58.95878781,,,,,,,,,,,,,,,,,,masks/mask_003.jpg,,,,,,,,,,,,,,,,,,,,,,,,,,,,,,,,,,,,,,,,,,,,,,,,0,2,2,2,1,,,,,,,,,,,,,,,,,,,,,,,,,,,,,,,,,,,,,,,,,
107952,001,2022-11-21_24h51.19.034,Info_measure_main_exp,2022.2.2,Win32,58.95878781,,,,,,,,,,,,,,,,,,masks/mask_002.jpg,,,,,,,,,,,,,,,,,,,,,,,,,,,,,,,,,,,,,,,,,,,,,,,,0,3,3,1,1,,,,,,,,,,,,,,,,,,,,,,,,,,,,,,,,,,,,,,,,,
107952,001,2022-11-21_24h51.19.034,Info_measure_main_exp,2022.2.2,Win32,58.95878781,,,,,,,,,,,,,,,,,,masks/mask_004.jpg,,,,,,,,,,,,,,,,,,,,,,,,,,,,,,,,,,,,,,,,,,,,,,,,0,4,4,3,1,,,,,,,,,,,,,,,,,,,,,,,,,,,,,,,,,,,,,,,,,
107952,001,2022-11-21_24h51.19.034,Info_measure_main_exp,2022.2.2,Win32,58.95878781,,,,,,,,,,,,,,,,,,,,,,,,,,,,,,7,0.9521,1,,,,,,,,,,,,0,131,5,5,2214,2142,absent_patch/patch0002214.jpg,absent_patch/patch0002142.jpg,,,,,,,,,,,,,,,,,,,,0.024761905,0.045714286,1,0,0,response1disk,23,0,0.000952381,1,0,0,center_square,0,22,22,102,1,,,,,,,,,,,,,,,,,,,,,,,
107952,001,2022-11-21_24h51.19.034,Info_measure_main_exp,2022.2.2,Win32,58.95878781,,,,,,,,,,,,,,,,,,masks/mask_002.jpg,,,,,,,,,,,,,,,,,,,,,,,,,,,,,,,,,,,,,,,,,,,0,0,0,1,1,,,,,,,,,,,,,,,,,,,,,,,,,,,,,,,,,,,,,,,,,,,,,,
107952,001,2022-11-21_24h51.19.034,Info_measure_main_exp,2022.2.2,Win32,58.95878781,,,,,,,,,,,,,,,,,,masks/mask_001.jpg,,,,,,,,,,,,,,,,,,,,,,,,,,,,,,,,,,,,,,,,,,,0,1,1,0,1,,,,,,,,,,,,,,,,,,,,,,,,,,,,,,,,,,,,,,,,,,,,,,
107952,001,2022-11-21_24h51.19.034,Info_measure_main_exp,2022.2.2,Win32,58.95878781,,,,,,,,,,,,,,,,,,masks/mask_003.jpg,,,,,,,,,,,,,,,,,,,,,,,,,,,,,,,,,,,,,,,,,,,0,2,2,2,1,,,,,,,,,,,,,,,,,,,,,,,,,,,,,,,,,,,,,,,,,,,,,,
107952,001,2022-11-21_24h51.19.034,Info_measure_main_exp,2022.2.2,Win32,58.95878781,,,,,,,,,,,,,,,,,,masks/mask_004.jpg,,,,,,,,,,,,,,,,,,,,,,,,,,,,,,,,,,,,,,,,,,,0,3,3,3,1,,,,,,,,,,,,,,,,,,,,,,,,,,,,,,,,,,,,,,,,,,,,,,
107952,001,2022-11-21_24h51.19.034,Info_measure_main_exp,2022.2.2,Win32,58.95878781,,,,,,,,,,,,,,,,,,masks/mask_005.jpg,,,,,,,,,,,,,,,,,,,,,,,,,,,,,,,,,,,,,,,,,,,0,4,4,4,1,,,,,,,,,,,,,,,,,,,,,,,,,,,,,,,,,,,,,,,,,,,,,,
107952,001,2022-11-21_24h51.19.034,Info_measure_main_exp,2022.2.2,Win32,58.95878781,,,,,,,,,,,,,,,,,,masks/mask_004.jpg,,,,,,,,,,,,,,,,,,,,,,,,,,,,,,,,,,,,,,,,,,,,,,,,0,0,0,3,1,,,,,,,,,,,,,,,,,,,,,,,,,,,,,,,,,,,,,,,,,
107952,001,2022-11-21_24h51.19.034,Info_measure_main_exp,2022.2.2,Win32,58.95878781,,,,,,,,,,,,,,,,,,masks/mask_001.jpg,,,,,,,,,,,,,,,,,,,,,,,,,,,,,,,,,,,,,,,,,,,,,,,,0,1,1,0,1,,,,,,,,,,,,,,,,,,,,,,,,,,,,,,,,,,,,,,,,,
107952,001,2022-11-21_24h51.19.034,Info_measure_main_exp,2022.2.2,Win32,58.95878781,,,,,,,,,,,,,,,,,,masks/mask_003.jpg,,,,,,,,,,,,,,,,,,,,,,,,,,,,,,,,,,,,,,,,,,,,,,,,0,2,2,2,1,,,,,,,,,,,,,,,,,,,,,,,,,,,,,,,,,,,,,,,,,
107952,001,2022-11-21_24h51.19.034,Info_measure_main_exp,2022.2.2,Win32,58.95878781,,,,,,,,,,,,,,,,,,masks/mask_002.jpg,,,,,,,,,,,,,,,,,,,,,,,,,,,,,,,,,,,,,,,,,,,,,,,,0,3,3,1,1,,,,,,,,,,,,,,,,,,,,,,,,,,,,,,,,,,,,,,,,,
107952,001,2022-11-21_24h51.19.034,Info_measure_main_exp,2022.2.2,Win32,58.95878781,,,,,,,,,,,,,,,,,,masks/mask_005.jpg,,,,,,,,,,,,,,,,,,,,,,,,,,,,,,,,,,,,,,,,,,,,,,,,0,4,4,4,1,,,,,,,,,,,,,,,,,,,,,,,,,,,,,,,,,,,,,,,,,
107952,001,2022-11-21_24h51.19.034,Info_measure_main_exp,2022.2.2,Win32,58.95878781,,,,,,,,,,,,,,,,,,,,,,,,,,,,,,7,0.9374,1,,,,,,,,,,,,0,131,5,5,2190,2250,absent_patch/patch0002190.jpg,absent_patch/patch0002250.jpg,,,,,,,,,,,,,,,,,,,,0.017142857,0.033333333,1,0,0,response1disk,24,-0.000952381,-0.000952381,1,0,0,center_square,0,23,23,93,1,,,,,,,,,,,,,,,,,,,,,,,
107952,001,2022-11-21_24h51.19.034,Info_measure_main_exp,2022.2.2,Win32,58.95878781,,,,,,,,,,,,,,,,,,masks/mask_005.jpg,,,,,,,,,,,,,,,,,,,,,,,,,,,,,,,,,,,,,,,,,,,0,0,0,4,1,,,,,,,,,,,,,,,,,,,,,,,,,,,,,,,,,,,,,,,,,,,,,,
107952,001,2022-11-21_24h51.19.034,Info_measure_main_exp,2022.2.2,Win32,58.95878781,,,,,,,,,,,,,,,,,,masks/mask_002.jpg,,,,,,,,,,,,,,,,,,,,,,,,,,,,,,,,,,,,,,,,,,,0,1,1,1,1,,,,,,,,,,,,,,,,,,,,,,,,,,,,,,,,,,,,,,,,,,,,,,
107952,001,2022-11-21_24h51.19.034,Info_measure_main_exp,2022.2.2,Win32,58.95878781,,,,,,,,,,,,,,,,,,masks/mask_003.jpg,,,,,,,,,,,,,,,,,,,,,,,,,,,,,,,,,,,,,,,,,,,0,2,2,2,1,,,,,,,,,,,,,,,,,,,,,,,,,,,,,,,,,,,,,,,,,,,,,,
107952,001,2022-11-21_24h51.19.034,Info_measure_main_exp,2022.2.2,Win32,58.95878781,,,,,,,,,,,,,,,,,,masks/mask_004.jpg,,,,,,,,,,,,,,,,,,,,,,,,,,,,,,,,,,,,,,,,,,,0,3,3,3,1,,,,,,,,,,,,,,,,,,,,,,,,,,,,,,,,,,,,,,,,,,,,,,
107952,001,2022-11-21_24h51.19.034,Info_measure_main_exp,2022.2.2,Win32,58.95878781,,,,,,,,,,,,,,,,,,masks/mask_001.jpg,,,,,,,,,,,,,,,,,,,,,,,,,,,,,,,,,,,,,,,,,,,0,4,4,0,1,,,,,,,,,,,,,,,,,,,,,,,,,,,,,,,,,,,,,,,,,,,,,,
107952,001,2022-11-21_24h51.19.034,Info_measure_main_exp,2022.2.2,Win32,58.95878781,,,,,,,,,,,,,,,,,,masks/mask_001.jpg,,,,,,,,,,,,,,,,,,,,,,,,,,,,,,,,,,,,,,,,,,,,,,,,0,0,0,0,1,,,,,,,,,,,,,,,,,,,,,,,,,,,,,,,,,,,,,,,,,
107952,001,2022-11-21_24h51.19.034,Info_measure_main_exp,2022.2.2,Win32,58.95878781,,,,,,,,,,,,,,,,,,masks/mask_003.jpg,,,,,,,,,,,,,,,,,,,,,,,,,,,,,,,,,,,,,,,,,,,,,,,,0,1,1,2,1,,,,,,,,,,,,,,,,,,,,,,,,,,,,,,,,,,,,,,,,,
107952,001,2022-11-21_24h51.19.034,Info_measure_main_exp,2022.2.2,Win32,58.95878781,,,,,,,,,,,,,,,,,,masks/mask_004.jpg,,,,,,,,,,,,,,,,,,,,,,,,,,,,,,,,,,,,,,,,,,,,,,,,0,2,2,3,1,,,,,,,,,,,,,,,,,,,,,,,,,,,,,,,,,,,,,,,,,
107952,001,2022-11-21_24h51.19.034,Info_measure_main_exp,2022.2.2,Win32,58.95878781,,,,,,,,,,,,,,,,,,masks/mask_002.jpg,,,,,,,,,,,,,,,,,,,,,,,,,,,,,,,,,,,,,,,,,,,,,,,,0,3,3,1,1,,,,,,,,,,,,,,,,,,,,,,,,,,,,,,,,,,,,,,,,,
107952,001,2022-11-21_24h51.19.034,Info_measure_main_exp,2022.2.2,Win32,58.95878781,,,,,,,,,,,,,,,,,,masks/mask_005.jpg,,,,,,,,,,,,,,,,,,,,,,,,,,,,,,,,,,,,,,,,,,,,,,,,0,4,4,4,1,,,,,,,,,,,,,,,,,,,,,,,,,,,,,,,,,,,,,,,,,
107952,001,2022-11-21_24h51.19.034,Info_measure_main_exp,2022.2.2,Win32,58.95878781,,,,,,,,,,,,,,,,,,,,,,,,,,,,,,3,0.7356,1,,,,,,,,,,,,0,131,5,5,2190,2214,absent_patch/patch0002190.jpg,absent_patch/patch0002214.jpg,,,,,,,,,,,,,,,,,,,,-0.028571429,-0.044761905,1,0,0,response5disk,25,0,0.005714286,1,0,0,center_square,0,24,24,35,1,,,,,,,,,,,,,,,,,,,,,,,
107952,001,2022-11-21_24h51.19.034,Info_measure_main_exp,2022.2.2,Win32,58.95878781,,,,,,,,,,,,,,,,,,masks/mask_001.jpg,,,,,,,,,,,,,,,,,,,,,,,,,,,,,,,,,,,,,,,,,,,0,0,0,0,1,,,,,,,,,,,,,,,,,,,,,,,,,,,,,,,,,,,,,,,,,,,,,,
107952,001,2022-11-21_24h51.19.034,Info_measure_main_exp,2022.2.2,Win32,58.95878781,,,,,,,,,,,,,,,,,,masks/mask_003.jpg,,,,,,,,,,,,,,,,,,,,,,,,,,,,,,,,,,,,,,,,,,,0,1,1,2,1,,,,,,,,,,,,,,,,,,,,,,,,,,,,,,,,,,,,,,,,,,,,,,
107952,001,2022-11-21_24h51.19.034,Info_measure_main_exp,2022.2.2,Win32,58.95878781,,,,,,,,,,,,,,,,,,masks/mask_002.jpg,,,,,,,,,,,,,,,,,,,,,,,,,,,,,,,,,,,,,,,,,,,0,2,2,1,1,,,,,,,,,,,,,,,,,,,,,,,,,,,,,,,,,,,,,,,,,,,,,,
107952,001,2022-11-21_24h51.19.034,Info_measure_main_exp,2022.2.2,Win32,58.95878781,,,,,,,,,,,,,,,,,,masks/mask_005.jpg,,,,,,,,,,,,,,,,,,,,,,,,,,,,,,,,,,,,,,,,,,,0,3,3,4,1,,,,,,,,,,,,,,,,,,,,,,,,,,,,,,,,,,,,,,,,,,,,,,
107952,001,2022-11-21_24h51.19.034,Info_measure_main_exp,2022.2.2,Win32,58.95878781,,,,,,,,,,,,,,,,,,masks/mask_004.jpg,,,,,,,,,,,,,,,,,,,,,,,,,,,,,,,,,,,,,,,,,,,0,4,4,3,1,,,,,,,,,,,,,,,,,,,,,,,,,,,,,,,,,,,,,,,,,,,,,,
107952,001,2022-11-21_24h51.19.034,Info_measure_main_exp,2022.2.2,Win32,58.95878781,,,,,,,,,,,,,,,,,,masks/mask_003.jpg,,,,,,,,,,,,,,,,,,,,,,,,,,,,,,,,,,,,,,,,,,,,,,,,0,0,0,2,1,,,,,,,,,,,,,,,,,,,,,,,,,,,,,,,,,,,,,,,,,
107952,001,2022-11-21_24h51.19.034,Info_measure_main_exp,2022.2.2,Win32,58.95878781,,,,,,,,,,,,,,,,,,masks/mask_005.jpg,,,,,,,,,,,,,,,,,,,,,,,,,,,,,,,,,,,,,,,,,,,,,,,,0,1,1,4,1,,,,,,,,,,,,,,,,,,,,,,,,,,,,,,,,,,,,,,,,,
107952,001,2022-11-21_24h51.19.034,Info_measure_main_exp,2022.2.2,Win32,58.95878781,,,,,,,,,,,,,,,,,,masks/mask_004.jpg,,,,,,,,,,,,,,,,,,,,,,,,,,,,,,,,,,,,,,,,,,,,,,,,0,2,2,3,1,,,,,,,,,,,,,,,,,,,,,,,,,,,,,,,,,,,,,,,,,
107952,001,2022-11-21_24h51.19.034,Info_measure_main_exp,2022.2.2,Win32,58.95878781,,,,,,,,,,,,,,,,,,masks/mask_001.jpg,,,,,,,,,,,,,,,,,,,,,,,,,,,,,,,,,,,,,,,,,,,,,,,,0,3,3,0,1,,,,,,,,,,,,,,,,,,,,,,,,,,,,,,,,,,,,,,,,,
107952,001,2022-11-21_24h51.19.034,Info_measure_main_exp,2022.2.2,Win32,58.95878781,,,,,,,,,,,,,,,,,,masks/mask_002.jpg,,,,,,,,,,,,,,,,,,,,,,,,,,,,,,,,,,,,,,,,,,,,,,,,0,4,4,1,1,,,,,,,,,,,,,,,,,,,,,,,,,,,,,,,,,,,,,,,,,
107952,001,2022-11-21_24h51.19.034,Info_measure_main_exp,2022.2.2,Win32,58.95878781,,,,,,,,,,,,,,,,,,,,,,,,,,,,,,5,0.7852,1,,,,,,,,,,,,0,131,5,5,2238,2214,absent_patch/patch0002238.jpg,absent_patch/patch0002214.jpg,,,,,,,,,,,,,,,,,,,,0.045714286,-0.023809524,1,0,0,response3disk,26,-0.001904762,-0.003809524,1,0,0,center_square,0,25,25,81,1,,,,,,,,,,,,,,,,,,,,,,,
107952,001,2022-11-21_24h51.19.034,Info_measure_main_exp,2022.2.2,Win32,58.95878781,,,,,,,,,,,,,,,,,,masks/mask_005.jpg,,,,,,,,,,,,,,,,,,,,,,,,,,,,,,,,,,,,,,,,,,,0,0,0,4,1,,,,,,,,,,,,,,,,,,,,,,,,,,,,,,,,,,,,,,,,,,,,,,
107952,001,2022-11-21_24h51.19.034,Info_measure_main_exp,2022.2.2,Win32,58.95878781,,,,,,,,,,,,,,,,,,masks/mask_002.jpg,,,,,,,,,,,,,,,,,,,,,,,,,,,,,,,,,,,,,,,,,,,0,1,1,1,1,,,,,,,,,,,,,,,,,,,,,,,,,,,,,,,,,,,,,,,,,,,,,,
107952,001,2022-11-21_24h51.19.034,Info_measure_main_exp,2022.2.2,Win32,58.95878781,,,,,,,,,,,,,,,,,,masks/mask_003.jpg,,,,,,,,,,,,,,,,,,,,,,,,,,,,,,,,,,,,,,,,,,,0,2,2,2,1,,,,,,,,,,,,,,,,,,,,,,,,,,,,,,,,,,,,,,,,,,,,,,
107952,001,2022-11-21_24h51.19.034,Info_measure_main_exp,2022.2.2,Win32,58.95878781,,,,,,,,,,,,,,,,,,masks/mask_004.jpg,,,,,,,,,,,,,,,,,,,,,,,,,,,,,,,,,,,,,,,,,,,0,3,3,3,1,,,,,,,,,,,,,,,,,,,,,,,,,,,,,,,,,,,,,,,,,,,,,,
107952,001,2022-11-21_24h51.19.034,Info_measure_main_exp,2022.2.2,Win32,58.95878781,,,,,,,,,,,,,,,,,,masks/mask_001.jpg,,,,,,,,,,,,,,,,,,,,,,,,,,,,,,,,,,,,,,,,,,,0,4,4,0,1,,,,,,,,,,,,,,,,,,,,,,,,,,,,,,,,,,,,,,,,,,,,,,
107952,001,2022-11-21_24h51.19.034,Info_measure_main_exp,2022.2.2,Win32,58.95878781,,,,,,,,,,,,,,,,,,masks/mask_004.jpg,,,,,,,,,,,,,,,,,,,,,,,,,,,,,,,,,,,,,,,,,,,,,,,,0,0,0,3,1,,,,,,,,,,,,,,,,,,,,,,,,,,,,,,,,,,,,,,,,,
107952,001,2022-11-21_24h51.19.034,Info_measure_main_exp,2022.2.2,Win32,58.95878781,,,,,,,,,,,,,,,,,,masks/mask_005.jpg,,,,,,,,,,,,,,,,,,,,,,,,,,,,,,,,,,,,,,,,,,,,,,,,0,1,1,4,1,,,,,,,,,,,,,,,,,,,,,,,,,,,,,,,,,,,,,,,,,
107952,001,2022-11-21_24h51.19.034,Info_measure_main_exp,2022.2.2,Win32,58.95878781,,,,,,,,,,,,,,,,,,masks/mask_001.jpg,,,,,,,,,,,,,,,,,,,,,,,,,,,,,,,,,,,,,,,,,,,,,,,,0,2,2,0,1,,,,,,,,,,,,,,,,,,,,,,,,,,,,,,,,,,,,,,,,,
107952,001,2022-11-21_24h51.19.034,Info_measure_main_exp,2022.2.2,Win32,58.95878781,,,,,,,,,,,,,,,,,,masks/mask_003.jpg,,,,,,,,,,,,,,,,,,,,,,,,,,,,,,,,,,,,,,,,,,,,,,,,0,3,3,2,1,,,,,,,,,,,,,,,,,,,,,,,,,,,,,,,,,,,,,,,,,
107952,001,2022-11-21_24h51.19.034,Info_measure_main_exp,2022.2.2,Win32,58.95878781,,,,,,,,,,,,,,,,,,masks/mask_002.jpg,,,,,,,,,,,,,,,,,,,,,,,,,,,,,,,,,,,,,,,,,,,,,,,,0,4,4,1,1,,,,,,,,,,,,,,,,,,,,,,,,,,,,,,,,,,,,,,,,,
107952,001,2022-11-21_24h51.19.034,Info_measure_main_exp,2022.2.2,Win32,58.95878781,,,,,,,,,,,,,,,,,,,,,,,,,,,,,,2,1.2685,1,,,,,,,,,,,,0,131,5,5,1986,2154,absent_patch/patch0001986.jpg,absent_patch/patch0002154.jpg,,,,,,,,,,,,,,,,,,,,-0.032380952,-0.013333333,1,0,0,response5disk,27,-0.006666667,0.000952381,1,0,0,center_square,0,26,26,36,1,,,,,,,,,,,,,,,,,,,,,,,
107952,001,2022-11-21_24h51.19.034,Info_measure_main_exp,2022.2.2,Win32,58.95878781,,,,,,,,,,,,,,,,,,masks/mask_001.jpg,,,,,,,,,,,,,,,,,,,,,,,,,,,,,,,,,,,,,,,,,,,0,0,0,0,1,,,,,,,,,,,,,,,,,,,,,,,,,,,,,,,,,,,,,,,,,,,,,,
107952,001,2022-11-21_24h51.19.034,Info_measure_main_exp,2022.2.2,Win32,58.95878781,,,,,,,,,,,,,,,,,,masks/mask_004.jpg,,,,,,,,,,,,,,,,,,,,,,,,,,,,,,,,,,,,,,,,,,,0,1,1,3,1,,,,,,,,,,,,,,,,,,,,,,,,,,,,,,,,,,,,,,,,,,,,,,
107952,001,2022-11-21_24h51.19.034,Info_measure_main_exp,2022.2.2,Win32,58.95878781,,,,,,,,,,,,,,,,,,masks/mask_003.jpg,,,,,,,,,,,,,,,,,,,,,,,,,,,,,,,,,,,,,,,,,,,0,2,2,2,1,,,,,,,,,,,,,,,,,,,,,,,,,,,,,,,,,,,,,,,,,,,,,,
107952,001,2022-11-21_24h51.19.034,Info_measure_main_exp,2022.2.2,Win32,58.95878781,,,,,,,,,,,,,,,,,,masks/mask_005.jpg,,,,,,,,,,,,,,,,,,,,,,,,,,,,,,,,,,,,,,,,,,,0,3,3,4,1,,,,,,,,,,,,,,,,,,,,,,,,,,,,,,,,,,,,,,,,,,,,,,
107952,001,2022-11-21_24h51.19.034,Info_measure_main_exp,2022.2.2,Win32,58.95878781,,,,,,,,,,,,,,,,,,masks/mask_002.jpg,,,,,,,,,,,,,,,,,,,,,,,,,,,,,,,,,,,,,,,,,,,0,4,4,1,1,,,,,,,,,,,,,,,,,,,,,,,,,,,,,,,,,,,,,,,,,,,,,,
107952,001,2022-11-21_24h51.19.034,Info_measure_main_exp,2022.2.2,Win32,58.95878781,,,,,,,,,,,,,,,,,,masks/mask_005.jpg,,,,,,,,,,,,,,,,,,,,,,,,,,,,,,,,,,,,,,,,,,,,,,,,0,0,0,4,1,,,,,,,,,,,,,,,,,,,,,,,,,,,,,,,,,,,,,,,,,
107952,001,2022-11-21_24h51.19.034,Info_measure_main_exp,2022.2.2,Win32,58.95878781,,,,,,,,,,,,,,,,,,masks/mask_001.jpg,,,,,,,,,,,,,,,,,,,,,,,,,,,,,,,,,,,,,,,,,,,,,,,,0,1,1,0,1,,,,,,,,,,,,,,,,,,,,,,,,,,,,,,,,,,,,,,,,,
107952,001,2022-11-21_24h51.19.034,Info_measure_main_exp,2022.2.2,Win32,58.95878781,,,,,,,,,,,,,,,,,,masks/mask_003.jpg,,,,,,,,,,,,,,,,,,,,,,,,,,,,,,,,,,,,,,,,,,,,,,,,0,2,2,2,1,,,,,,,,,,,,,,,,,,,,,,,,,,,,,,,,,,,,,,,,,
107952,001,2022-11-21_24h51.19.034,Info_measure_main_exp,2022.2.2,Win32,58.95878781,,,,,,,,,,,,,,,,,,masks/mask_002.jpg,,,,,,,,,,,,,,,,,,,,,,,,,,,,,,,,,,,,,,,,,,,,,,,,0,3,3,1,1,,,,,,,,,,,,,,,,,,,,,,,,,,,,,,,,,,,,,,,,,
107952,001,2022-11-21_24h51.19.034,Info_measure_main_exp,2022.2.2,Win32,58.95878781,,,,,,,,,,,,,,,,,,masks/mask_004.jpg,,,,,,,,,,,,,,,,,,,,,,,,,,,,,,,,,,,,,,,,,,,,,,,,0,4,4,3,1,,,,,,,,,,,,,,,,,,,,,,,,,,,,,,,,,,,,,,,,,
107952,001,2022-11-21_24h51.19.034,Info_measure_main_exp,2022.2.2,Win32,58.95878781,,,,,,,,,,,,,,,,,,,,,,,,,,,,,,4,1.0353,1,,,,,,,,,,,,0,131,5,5,2082,2166,absent_patch/patch0002082.jpg,absent_patch/patch0002166.jpg,,,,,,,,,,,,,,,,,,,,0.023809524,-0.052380952,1,0,0,response3disk,28,-0.002857143,0.000952381,1,0,0,center_square,0,27,27,43,1,,,,,,,,,,,,,,,,,,,,,,,
107952,001,2022-11-21_24h51.19.034,Info_measure_main_exp,2022.2.2,Win32,58.95878781,,,,,,,,,,,,,,,,,,masks/mask_004.jpg,,,,,,,,,,,,,,,,,,,,,,,,,,,,,,,,,,,,,,,,,,,0,0,0,3,1,,,,,,,,,,,,,,,,,,,,,,,,,,,,,,,,,,,,,,,,,,,,,,
107952,001,2022-11-21_24h51.19.034,Info_measure_main_exp,2022.2.2,Win32,58.95878781,,,,,,,,,,,,,,,,,,masks/mask_002.jpg,,,,,,,,,,,,,,,,,,,,,,,,,,,,,,,,,,,,,,,,,,,0,1,1,1,1,,,,,,,,,,,,,,,,,,,,,,,,,,,,,,,,,,,,,,,,,,,,,,
107952,001,2022-11-21_24h51.19.034,Info_measure_main_exp,2022.2.2,Win32,58.95878781,,,,,,,,,,,,,,,,,,masks/mask_005.jpg,,,,,,,,,,,,,,,,,,,,,,,,,,,,,,,,,,,,,,,,,,,0,2,2,4,1,,,,,,,,,,,,,,,,,,,,,,,,,,,,,,,,,,,,,,,,,,,,,,
107952,001,2022-11-21_24h51.19.034,Info_measure_main_exp,2022.2.2,Win32,58.95878781,,,,,,,,,,,,,,,,,,masks/mask_003.jpg,,,,,,,,,,,,,,,,,,,,,,,,,,,,,,,,,,,,,,,,,,,0,3,3,2,1,,,,,,,,,,,,,,,,,,,,,,,,,,,,,,,,,,,,,,,,,,,,,,
107952,001,2022-11-21_24h51.19.034,Info_measure_main_exp,2022.2.2,Win32,58.95878781,,,,,,,,,,,,,,,,,,masks/mask_001.jpg,,,,,,,,,,,,,,,,,,,,,,,,,,,,,,,,,,,,,,,,,,,0,4,4,0,1,,,,,,,,,,,,,,,,,,,,,,,,,,,,,,,,,,,,,,,,,,,,,,
107952,001,2022-11-21_24h51.19.034,Info_measure_main_exp,2022.2.2,Win32,58.95878781,,,,,,,,,,,,,,,,,,masks/mask_004.jpg,,,,,,,,,,,,,,,,,,,,,,,,,,,,,,,,,,,,,,,,,,,,,,,,0,0,0,3,1,,,,,,,,,,,,,,,,,,,,,,,,,,,,,,,,,,,,,,,,,
107952,001,2022-11-21_24h51.19.034,Info_measure_main_exp,2022.2.2,Win32,58.95878781,,,,,,,,,,,,,,,,,,masks/mask_003.jpg,,,,,,,,,,,,,,,,,,,,,,,,,,,,,,,,,,,,,,,,,,,,,,,,0,1,1,2,1,,,,,,,,,,,,,,,,,,,,,,,,,,,,,,,,,,,,,,,,,
107952,001,2022-11-21_24h51.19.034,Info_measure_main_exp,2022.2.2,Win32,58.95878781,,,,,,,,,,,,,,,,,,masks/mask_002.jpg,,,,,,,,,,,,,,,,,,,,,,,,,,,,,,,,,,,,,,,,,,,,,,,,0,2,2,1,1,,,,,,,,,,,,,,,,,,,,,,,,,,,,,,,,,,,,,,,,,
107952,001,2022-11-21_24h51.19.034,Info_measure_main_exp,2022.2.2,Win32,58.95878781,,,,,,,,,,,,,,,,,,masks/mask_001.jpg,,,,,,,,,,,,,,,,,,,,,,,,,,,,,,,,,,,,,,,,,,,,,,,,0,3,3,0,1,,,,,,,,,,,,,,,,,,,,,,,,,,,,,,,,,,,,,,,,,
107952,001,2022-11-21_24h51.19.034,Info_measure_main_exp,2022.2.2,Win32,58.95878781,,,,,,,,,,,,,,,,,,masks/mask_005.jpg,,,,,,,,,,,,,,,,,,,,,,,,,,,,,,,,,,,,,,,,,,,,,,,,0,4,4,4,1,,,,,,,,,,,,,,,,,,,,,,,,,,,,,,,,,,,,,,,,,
107952,001,2022-11-21_24h51.19.034,Info_measure_main_exp,2022.2.2,Win32,58.95878781,,,,,,,,,,,,,,,,,,,,,,,,,,,,,,4,1.7529,1,,,,,,,,,,,,0,131,5,5,2142,2154,absent_patch/patch0002142.jpg,absent_patch/patch0002154.jpg,,,,,,,,,,,,,,,,,,,,0.023809524,-0.039047619,1,0,0,response3disk,29,0.000952381,-0.002857143,1,0,0,center_square,0,28,28,9,1,,,,,,,,,,,,,,,,,,,,,,,
107952,001,2022-11-21_24h51.19.034,Info_measure_main_exp,2022.2.2,Win32,58.95878781,,,,,,,,,,,,,,,,,,masks/mask_003.jpg,,,,,,,,,,,,,,,,,,,,,,,,,,,,,,,,,,,,,,,,,,,0,0,0,2,1,,,,,,,,,,,,,,,,,,,,,,,,,,,,,,,,,,,,,,,,,,,,,,
107952,001,2022-11-21_24h51.19.034,Info_measure_main_exp,2022.2.2,Win32,58.95878781,,,,,,,,,,,,,,,,,,masks/mask_001.jpg,,,,,,,,,,,,,,,,,,,,,,,,,,,,,,,,,,,,,,,,,,,0,1,1,0,1,,,,,,,,,,,,,,,,,,,,,,,,,,,,,,,,,,,,,,,,,,,,,,
107952,001,2022-11-21_24h51.19.034,Info_measure_main_exp,2022.2.2,Win32,58.95878781,,,,,,,,,,,,,,,,,,masks/mask_005.jpg,,,,,,,,,,,,,,,,,,,,,,,,,,,,,,,,,,,,,,,,,,,0,2,2,4,1,,,,,,,,,,,,,,,,,,,,,,,,,,,,,,,,,,,,,,,,,,,,,,
107952,001,2022-11-21_24h51.19.034,Info_measure_main_exp,2022.2.2,Win32,58.95878781,,,,,,,,,,,,,,,,,,masks/mask_004.jpg,,,,,,,,,,,,,,,,,,,,,,,,,,,,,,,,,,,,,,,,,,,0,3,3,3,1,,,,,,,,,,,,,,,,,,,,,,,,,,,,,,,,,,,,,,,,,,,,,,
107952,001,2022-11-21_24h51.19.034,Info_measure_main_exp,2022.2.2,Win32,58.95878781,,,,,,,,,,,,,,,,,,masks/mask_002.jpg,,,,,,,,,,,,,,,,,,,,,,,,,,,,,,,,,,,,,,,,,,,0,4,4,1,1,,,,,,,,,,,,,,,,,,,,,,,,,,,,,,,,,,,,,,,,,,,,,,
107952,001,2022-11-21_24h51.19.034,Info_measure_main_exp,2022.2.2,Win32,58.95878781,,,,,,,,,,,,,,,,,,masks/mask_004.jpg,,,,,,,,,,,,,,,,,,,,,,,,,,,,,,,,,,,,,,,,,,,,,,,,0,0,0,3,1,,,,,,,,,,,,,,,,,,,,,,,,,,,,,,,,,,,,,,,,,
107952,001,2022-11-21_24h51.19.034,Info_measure_main_exp,2022.2.2,Win32,58.95878781,,,,,,,,,,,,,,,,,,masks/mask_003.jpg,,,,,,,,,,,,,,,,,,,,,,,,,,,,,,,,,,,,,,,,,,,,,,,,0,1,1,2,1,,,,,,,,,,,,,,,,,,,,,,,,,,,,,,,,,,,,,,,,,
107952,001,2022-11-21_24h51.19.034,Info_measure_main_exp,2022.2.2,Win32,58.95878781,,,,,,,,,,,,,,,,,,masks/mask_001.jpg,,,,,,,,,,,,,,,,,,,,,,,,,,,,,,,,,,,,,,,,,,,,,,,,0,2,2,0,1,,,,,,,,,,,,,,,,,,,,,,,,,,,,,,,,,,,,,,,,,
107952,001,2022-11-21_24h51.19.034,Info_measure_main_exp,2022.2.2,Win32,58.95878781,,,,,,,,,,,,,,,,,,masks/mask_002.jpg,,,,,,,,,,,,,,,,,,,,,,,,,,,,,,,,,,,,,,,,,,,,,,,,0,3,3,1,1,,,,,,,,,,,,,,,,,,,,,,,,,,,,,,,,,,,,,,,,,
107952,001,2022-11-21_24h51.19.034,Info_measure_main_exp,2022.2.2,Win32,58.95878781,,,,,,,,,,,,,,,,,,masks/mask_005.jpg,,,,,,,,,,,,,,,,,,,,,,,,,,,,,,,,,,,,,,,,,,,,,,,,0,4,4,4,1,,,,,,,,,,,,,,,,,,,,,,,,,,,,,,,,,,,,,,,,,
107952,001,2022-11-21_24h51.19.034,Info_measure_main_exp,2022.2.2,Win32,58.95878781,,,,,,,,,,,,,,,,,,,,,,,,,,,,,,3,1.4513,1,,,,,,,,,,,,0,131,5,5,1950,2082,absent_patch/patch0001950.jpg,absent_patch/patch0002082.jpg,,,,,,,,,,,,,,,,,,,,-0.018095238,-0.041904762,1,0,0,response5disk,30,-0.002857143,-0.002857143,1,0,0,center_square,0,29,29,12,1,,,,,,,,,,,,,,,,,,,,,,,
107952,001,2022-11-21_24h51.19.034,Info_measure_main_exp,2022.2.2,Win32,58.95878781,,,,,,,,,,,,,,,,,,masks/mask_004.jpg,,,,,,,,,,,,,,,,,,,,,,,,,,,,,,,,,,,,,,,,,,,0,0,0,3,1,,,,,,,,,,,,,,,,,,,,,,,,,,,,,,,,,,,,,,,,,,,,,,
107952,001,2022-11-21_24h51.19.034,Info_measure_main_exp,2022.2.2,Win32,58.95878781,,,,,,,,,,,,,,,,,,masks/mask_003.jpg,,,,,,,,,,,,,,,,,,,,,,,,,,,,,,,,,,,,,,,,,,,0,1,1,2,1,,,,,,,,,,,,,,,,,,,,,,,,,,,,,,,,,,,,,,,,,,,,,,
107952,001,2022-11-21_24h51.19.034,Info_measure_main_exp,2022.2.2,Win32,58.95878781,,,,,,,,,,,,,,,,,,masks/mask_002.jpg,,,,,,,,,,,,,,,,,,,,,,,,,,,,,,,,,,,,,,,,,,,0,2,2,1,1,,,,,,,,,,,,,,,,,,,,,,,,,,,,,,,,,,,,,,,,,,,,,,
107952,001,2022-11-21_24h51.19.034,Info_measure_main_exp,2022.2.2,Win32,58.95878781,,,,,,,,,,,,,,,,,,masks/mask_001.jpg,,,,,,,,,,,,,,,,,,,,,,,,,,,,,,,,,,,,,,,,,,,0,3,3,0,1,,,,,,,,,,,,,,,,,,,,,,,,,,,,,,,,,,,,,,,,,,,,,,
107952,001,2022-11-21_24h51.19.034,Info_measure_main_exp,2022.2.2,Win32,58.95878781,,,,,,,,,,,,,,,,,,masks/mask_005.jpg,,,,,,,,,,,,,,,,,,,,,,,,,,,,,,,,,,,,,,,,,,,0,4,4,4,1,,,,,,,,,,,,,,,,,,,,,,,,,,,,,,,,,,,,,,,,,,,,,,
107952,001,2022-11-21_24h51.19.034,Info_measure_main_exp,2022.2.2,Win32,58.95878781,,,,,,,,,,,,,,,,,,masks/mask_002.jpg,,,,,,,,,,,,,,,,,,,,,,,,,,,,,,,,,,,,,,,,,,,,,,,,0,0,0,1,1,,,,,,,,,,,,,,,,,,,,,,,,,,,,,,,,,,,,,,,,,
107952,001,2022-11-21_24h51.19.034,Info_measure_main_exp,2022.2.2,Win32,58.95878781,,,,,,,,,,,,,,,,,,masks/mask_003.jpg,,,,,,,,,,,,,,,,,,,,,,,,,,,,,,,,,,,,,,,,,,,,,,,,0,1,1,2,1,,,,,,,,,,,,,,,,,,,,,,,,,,,,,,,,,,,,,,,,,
107952,001,2022-11-21_24h51.19.034,Info_measure_main_exp,2022.2.2,Win32,58.95878781,,,,,,,,,,,,,,,,,,masks/mask_004.jpg,,,,,,,,,,,,,,,,,,,,,,,,,,,,,,,,,,,,,,,,,,,,,,,,0,2,2,3,1,,,,,,,,,,,,,,,,,,,,,,,,,,,,,,,,,,,,,,,,,
107952,001,2022-11-21_24h51.19.034,Info_measure_main_exp,2022.2.2,Win32,58.95878781,,,,,,,,,,,,,,,,,,masks/mask_001.jpg,,,,,,,,,,,,,,,,,,,,,,,,,,,,,,,,,,,,,,,,,,,,,,,,0,3,3,0,1,,,,,,,,,,,,,,,,,,,,,,,,,,,,,,,,,,,,,,,,,
107952,001,2022-11-21_24h51.19.034,Info_measure_main_exp,2022.2.2,Win32,58.95878781,,,,,,,,,,,,,,,,,,masks/mask_005.jpg,,,,,,,,,,,,,,,,,,,,,,,,,,,,,,,,,,,,,,,,,,,,,,,,0,4,4,4,1,,,,,,,,,,,,,,,,,,,,,,,,,,,,,,,,,,,,,,,,,
107952,001,2022-11-21_24h51.19.034,Info_measure_main_exp,2022.2.2,Win32,58.95878781,,,,,,,,,,,,,,,,,,,,,,,,,,,,,,1,2.0841,1,,,,,,,,,,,,0,131,5,5,2142,2238,absent_patch/patch0002142.jpg,absent_patch/patch0002238.jpg,,,,,,,,,,,,,,,,,,,,-0.073333333,0.01047619,1,0,0,response7disk,31,-0.000952381,0,1,0,0,center_square,0,30,30,101,1,,,,,,,,,,,,,,,,,,,,,,,
107952,001,2022-11-21_24h51.19.034,Info_measure_main_exp,2022.2.2,Win32,58.95878781,,,,,,,,,,,,,,,,,,masks/mask_002.jpg,,,,,,,,,,,,,,,,,,,,,,,,,,,,,,,,,,,,,,,,,,,0,0,0,1,1,,,,,,,,,,,,,,,,,,,,,,,,,,,,,,,,,,,,,,,,,,,,,,
107952,001,2022-11-21_24h51.19.034,Info_measure_main_exp,2022.2.2,Win32,58.95878781,,,,,,,,,,,,,,,,,,masks/mask_005.jpg,,,,,,,,,,,,,,,,,,,,,,,,,,,,,,,,,,,,,,,,,,,0,1,1,4,1,,,,,,,,,,,,,,,,,,,,,,,,,,,,,,,,,,,,,,,,,,,,,,
107952,001,2022-11-21_24h51.19.034,Info_measure_main_exp,2022.2.2,Win32,58.95878781,,,,,,,,,,,,,,,,,,masks/mask_001.jpg,,,,,,,,,,,,,,,,,,,,,,,,,,,,,,,,,,,,,,,,,,,0,2,2,0,1,,,,,,,,,,,,,,,,,,,,,,,,,,,,,,,,,,,,,,,,,,,,,,
107952,001,2022-11-21_24h51.19.034,Info_measure_main_exp,2022.2.2,Win32,58.95878781,,,,,,,,,,,,,,,,,,masks/mask_003.jpg,,,,,,,,,,,,,,,,,,,,,,,,,,,,,,,,,,,,,,,,,,,0,3,3,2,1,,,,,,,,,,,,,,,,,,,,,,,,,,,,,,,,,,,,,,,,,,,,,,
107952,001,2022-11-21_24h51.19.034,Info_measure_main_exp,2022.2.2,Win32,58.95878781,,,,,,,,,,,,,,,,,,masks/mask_004.jpg,,,,,,,,,,,,,,,,,,,,,,,,,,,,,,,,,,,,,,,,,,,0,4,4,3,1,,,,,,,,,,,,,,,,,,,,,,,,,,,,,,,,,,,,,,,,,,,,,,
107952,001,2022-11-21_24h51.19.034,Info_measure_main_exp,2022.2.2,Win32,58.95878781,,,,,,,,,,,,,,,,,,masks/mask_002.jpg,,,,,,,,,,,,,,,,,,,,,,,,,,,,,,,,,,,,,,,,,,,,,,,,0,0,0,1,1,,,,,,,,,,,,,,,,,,,,,,,,,,,,,,,,,,,,,,,,,
107952,001,2022-11-21_24h51.19.034,Info_measure_main_exp,2022.2.2,Win32,58.95878781,,,,,,,,,,,,,,,,,,masks/mask_005.jpg,,,,,,,,,,,,,,,,,,,,,,,,,,,,,,,,,,,,,,,,,,,,,,,,0,1,1,4,1,,,,,,,,,,,,,,,,,,,,,,,,,,,,,,,,,,,,,,,,,
107952,001,2022-11-21_24h51.19.034,Info_measure_main_exp,2022.2.2,Win32,58.95878781,,,,,,,,,,,,,,,,,,masks/mask_001.jpg,,,,,,,,,,,,,,,,,,,,,,,,,,,,,,,,,,,,,,,,,,,,,,,,0,2,2,0,1,,,,,,,,,,,,,,,,,,,,,,,,,,,,,,,,,,,,,,,,,
107952,001,2022-11-21_24h51.19.034,Info_measure_main_exp,2022.2.2,Win32,58.95878781,,,,,,,,,,,,,,,,,,masks/mask_004.jpg,,,,,,,,,,,,,,,,,,,,,,,,,,,,,,,,,,,,,,,,,,,,,,,,0,3,3,3,1,,,,,,,,,,,,,,,,,,,,,,,,,,,,,,,,,,,,,,,,,
107952,001,2022-11-21_24h51.19.034,Info_measure_main_exp,2022.2.2,Win32,58.95878781,,,,,,,,,,,,,,,,,,masks/mask_003.jpg,,,,,,,,,,,,,,,,,,,,,,,,,,,,,,,,,,,,,,,,,,,,,,,,0,4,4,2,1,,,,,,,,,,,,,,,,,,,,,,,,,,,,,,,,,,,,,,,,,
107952,001,2022-11-21_24h51.19.034,Info_measure_main_exp,2022.2.2,Win32,58.95878781,,,,,,,,,,,,,,,,,,,,,,,,,,,,,,3,1.9012,1,,,,,,,,,,,,0,131,5,5,1974,2178,absent_patch/patch0001974.jpg,absent_patch/patch0002178.jpg,,,,,,,,,,,,,,,,,,,,-0.012380952,-0.031428571,1,0,0,response5disk,32,0.000952381,-0.003809524,1,0,0,center_square,0,31,31,44,1,,,,,,,,,,,,,,,,,,,,,,,
107952,001,2022-11-21_24h51.19.034,Info_measure_main_exp,2022.2.2,Win32,58.95878781,,,,,,,,,,,,,,,,,,masks/mask_004.jpg,,,,,,,,,,,,,,,,,,,,,,,,,,,,,,,,,,,,,,,,,,,0,0,0,3,1,,,,,,,,,,,,,,,,,,,,,,,,,,,,,,,,,,,,,,,,,,,,,,
107952,001,2022-11-21_24h51.19.034,Info_measure_main_exp,2022.2.2,Win32,58.95878781,,,,,,,,,,,,,,,,,,masks/mask_005.jpg,,,,,,,,,,,,,,,,,,,,,,,,,,,,,,,,,,,,,,,,,,,0,1,1,4,1,,,,,,,,,,,,,,,,,,,,,,,,,,,,,,,,,,,,,,,,,,,,,,
107952,001,2022-11-21_24h51.19.034,Info_measure_main_exp,2022.2.2,Win32,58.95878781,,,,,,,,,,,,,,,,,,masks/mask_003.jpg,,,,,,,,,,,,,,,,,,,,,,,,,,,,,,,,,,,,,,,,,,,0,2,2,2,1,,,,,,,,,,,,,,,,,,,,,,,,,,,,,,,,,,,,,,,,,,,,,,
107952,001,2022-11-21_24h51.19.034,Info_measure_main_exp,2022.2.2,Win32,58.95878781,,,,,,,,,,,,,,,,,,masks/mask_002.jpg,,,,,,,,,,,,,,,,,,,,,,,,,,,,,,,,,,,,,,,,,,,0,3,3,1,1,,,,,,,,,,,,,,,,,,,,,,,,,,,,,,,,,,,,,,,,,,,,,,
107952,001,2022-11-21_24h51.19.034,Info_measure_main_exp,2022.2.2,Win32,58.95878781,,,,,,,,,,,,,,,,,,masks/mask_001.jpg,,,,,,,,,,,,,,,,,,,,,,,,,,,,,,,,,,,,,,,,,,,0,4,4,0,1,,,,,,,,,,,,,,,,,,,,,,,,,,,,,,,,,,,,,,,,,,,,,,
107952,001,2022-11-21_24h51.19.034,Info_measure_main_exp,2022.2.2,Win32,58.95878781,,,,,,,,,,,,,,,,,,masks/mask_001.jpg,,,,,,,,,,,,,,,,,,,,,,,,,,,,,,,,,,,,,,,,,,,,,,,,0,0,0,0,1,,,,,,,,,,,,,,,,,,,,,,,,,,,,,,,,,,,,,,,,,
107952,001,2022-11-21_24h51.19.034,Info_measure_main_exp,2022.2.2,Win32,58.95878781,,,,,,,,,,,,,,,,,,masks/mask_002.jpg,,,,,,,,,,,,,,,,,,,,,,,,,,,,,,,,,,,,,,,,,,,,,,,,0,1,1,1,1,,,,,,,,,,,,,,,,,,,,,,,,,,,,,,,,,,,,,,,,,
107952,001,2022-11-21_24h51.19.034,Info_measure_main_exp,2022.2.2,Win32,58.95878781,,,,,,,,,,,,,,,,,,masks/mask_004.jpg,,,,,,,,,,,,,,,,,,,,,,,,,,,,,,,,,,,,,,,,,,,,,,,,0,2,2,3,1,,,,,,,,,,,,,,,,,,,,,,,,,,,,,,,,,,,,,,,,,
107952,001,2022-11-21_24h51.19.034,Info_measure_main_exp,2022.2.2,Win32,58.95878781,,,,,,,,,,,,,,,,,,masks/mask_005.jpg,,,,,,,,,,,,,,,,,,,,,,,,,,,,,,,,,,,,,,,,,,,,,,,,0,3,3,4,1,,,,,,,,,,,,,,,,,,,,,,,,,,,,,,,,,,,,,,,,,
107952,001,2022-11-21_24h51.19.034,Info_measure_main_exp,2022.2.2,Win32,58.95878781,,,,,,,,,,,,,,,,,,masks/mask_003.jpg,,,,,,,,,,,,,,,,,,,,,,,,,,,,,,,,,,,,,,,,,,,,,,,,0,4,4,2,1,,,,,,,,,,,,,,,,,,,,,,,,,,,,,,,,,,,,,,,,,
107952,001,2022-11-21_24h51.19.034,Info_measure_main_exp,2022.2.2,Win32,58.95878781,,,,,,,,,,,,,,,,,,,,,,,,,,,,,,5,1.1357,1,,,,,,,,,,,,0,131,5,5,2082,1986,absent_patch/patch0002082.jpg,absent_patch/patch0001986.jpg,,,,,,,,,,,,,,,,,,,,0.020952381,-0.00952381,1,0,0,response3disk,33,-0.00952381,0.005714286,1,0,0,center_square,0,32,32,94,1,,,,,,,,,,,,,,,,,,,,,,,
107952,001,2022-11-21_24h51.19.034,Info_measure_main_exp,2022.2.2,Win32,58.95878781,,,,,,,,,,,,,,,,,,masks/mask_001.jpg,,,,,,,,,,,,,,,,,,,,,,,,,,,,,,,,,,,,,,,,,,,0,0,0,0,1,,,,,,,,,,,,,,,,,,,,,,,,,,,,,,,,,,,,,,,,,,,,,,
107952,001,2022-11-21_24h51.19.034,Info_measure_main_exp,2022.2.2,Win32,58.95878781,,,,,,,,,,,,,,,,,,masks/mask_003.jpg,,,,,,,,,,,,,,,,,,,,,,,,,,,,,,,,,,,,,,,,,,,0,1,1,2,1,,,,,,,,,,,,,,,,,,,,,,,,,,,,,,,,,,,,,,,,,,,,,,
107952,001,2022-11-21_24h51.19.034,Info_measure_main_exp,2022.2.2,Win32,58.95878781,,,,,,,,,,,,,,,,,,masks/mask_005.jpg,,,,,,,,,,,,,,,,,,,,,,,,,,,,,,,,,,,,,,,,,,,0,2,2,4,1,,,,,,,,,,,,,,,,,,,,,,,,,,,,,,,,,,,,,,,,,,,,,,
107952,001,2022-11-21_24h51.19.034,Info_measure_main_exp,2022.2.2,Win32,58.95878781,,,,,,,,,,,,,,,,,,masks/mask_004.jpg,,,,,,,,,,,,,,,,,,,,,,,,,,,,,,,,,,,,,,,,,,,0,3,3,3,1,,,,,,,,,,,,,,,,,,,,,,,,,,,,,,,,,,,,,,,,,,,,,,
107952,001,2022-11-21_24h51.19.034,Info_measure_main_exp,2022.2.2,Win32,58.95878781,,,,,,,,,,,,,,,,,,masks/mask_002.jpg,,,,,,,,,,,,,,,,,,,,,,,,,,,,,,,,,,,,,,,,,,,0,4,4,1,1,,,,,,,,,,,,,,,,,,,,,,,,,,,,,,,,,,,,,,,,,,,,,,
107952,001,2022-11-21_24h51.19.034,Info_measure_main_exp,2022.2.2,Win32,58.95878781,,,,,,,,,,,,,,,,,,masks/mask_002.jpg,,,,,,,,,,,,,,,,,,,,,,,,,,,,,,,,,,,,,,,,,,,,,,,,0,0,0,1,1,,,,,,,,,,,,,,,,,,,,,,,,,,,,,,,,,,,,,,,,,
107952,001,2022-11-21_24h51.19.034,Info_measure_main_exp,2022.2.2,Win32,58.95878781,,,,,,,,,,,,,,,,,,masks/mask_003.jpg,,,,,,,,,,,,,,,,,,,,,,,,,,,,,,,,,,,,,,,,,,,,,,,,0,1,1,2,1,,,,,,,,,,,,,,,,,,,,,,,,,,,,,,,,,,,,,,,,,
107952,001,2022-11-21_24h51.19.034,Info_measure_main_exp,2022.2.2,Win32,58.95878781,,,,,,,,,,,,,,,,,,masks/mask_004.jpg,,,,,,,,,,,,,,,,,,,,,,,,,,,,,,,,,,,,,,,,,,,,,,,,0,2,2,3,1,,,,,,,,,,,,,,,,,,,,,,,,,,,,,,,,,,,,,,,,,
107952,001,2022-11-21_24h51.19.034,Info_measure_main_exp,2022.2.2,Win32,58.95878781,,,,,,,,,,,,,,,,,,masks/mask_005.jpg,,,,,,,,,,,,,,,,,,,,,,,,,,,,,,,,,,,,,,,,,,,,,,,,0,3,3,4,1,,,,,,,,,,,,,,,,,,,,,,,,,,,,,,,,,,,,,,,,,
107952,001,2022-11-21_24h51.19.034,Info_measure_main_exp,2022.2.2,Win32,58.95878781,,,,,,,,,,,,,,,,,,masks/mask_001.jpg,,,,,,,,,,,,,,,,,,,,,,,,,,,,,,,,,,,,,,,,,,,,,,,,0,4,4,0,1,,,,,,,,,,,,,,,,,,,,,,,,,,,,,,,,,,,,,,,,,
107952,001,2022-11-21_24h51.19.034,Info_measure_main_exp,2022.2.2,Win32,58.95878781,,,,,,,,,,,,,,,,,,,,,,,,,,,,,,0,0.6352,1,,,,,,,,,,,,0,131,5,5,2214,2214,absent_patch/patch0002214.jpg,absent_patch/patch0002214.jpg,,,,,,,,,,,,,,,,,,,,-0.017142857,0.045714286,1,0,0,response7disk,34,0.000952381,-0.000952381,1,0,0,center_square,0,33,33,115,1,,,,,,,,,,,,,,,,,,,,,,,
107952,001,2022-11-21_24h51.19.034,Info_measure_main_exp,2022.2.2,Win32,58.95878781,,,,,,,,,,,,,,,,,,masks/mask_002.jpg,,,,,,,,,,,,,,,,,,,,,,,,,,,,,,,,,,,,,,,,,,,0,0,0,1,1,,,,,,,,,,,,,,,,,,,,,,,,,,,,,,,,,,,,,,,,,,,,,,
107952,001,2022-11-21_24h51.19.034,Info_measure_main_exp,2022.2.2,Win32,58.95878781,,,,,,,,,,,,,,,,,,masks/mask_004.jpg,,,,,,,,,,,,,,,,,,,,,,,,,,,,,,,,,,,,,,,,,,,0,1,1,3,1,,,,,,,,,,,,,,,,,,,,,,,,,,,,,,,,,,,,,,,,,,,,,,
107952,001,2022-11-21_24h51.19.034,Info_measure_main_exp,2022.2.2,Win32,58.95878781,,,,,,,,,,,,,,,,,,masks/mask_005.jpg,,,,,,,,,,,,,,,,,,,,,,,,,,,,,,,,,,,,,,,,,,,0,2,2,4,1,,,,,,,,,,,,,,,,,,,,,,,,,,,,,,,,,,,,,,,,,,,,,,
107952,001,2022-11-21_24h51.19.034,Info_measure_main_exp,2022.2.2,Win32,58.95878781,,,,,,,,,,,,,,,,,,masks/mask_003.jpg,,,,,,,,,,,,,,,,,,,,,,,,,,,,,,,,,,,,,,,,,,,0,3,3,2,1,,,,,,,,,,,,,,,,,,,,,,,,,,,,,,,,,,,,,,,,,,,,,,
107952,001,2022-11-21_24h51.19.034,Info_measure_main_exp,2022.2.2,Win32,58.95878781,,,,,,,,,,,,,,,,,,masks/mask_001.jpg,,,,,,,,,,,,,,,,,,,,,,,,,,,,,,,,,,,,,,,,,,,0,4,4,0,1,,,,,,,,,,,,,,,,,,,,,,,,,,,,,,,,,,,,,,,,,,,,,,
107952,001,2022-11-21_24h51.19.034,Info_measure_main_exp,2022.2.2,Win32,58.95878781,,,,,,,,,,,,,,,,,,masks/mask_001.jpg,,,,,,,,,,,,,,,,,,,,,,,,,,,,,,,,,,,,,,,,,,,,,,,,0,0,0,0,1,,,,,,,,,,,,,,,,,,,,,,,,,,,,,,,,,,,,,,,,,
107952,001,2022-11-21_24h51.19.034,Info_measure_main_exp,2022.2.2,Win32,58.95878781,,,,,,,,,,,,,,,,,,masks/mask_003.jpg,,,,,,,,,,,,,,,,,,,,,,,,,,,,,,,,,,,,,,,,,,,,,,,,0,1,1,2,1,,,,,,,,,,,,,,,,,,,,,,,,,,,,,,,,,,,,,,,,,
107952,001,2022-11-21_24h51.19.034,Info_measure_main_exp,2022.2.2,Win32,58.95878781,,,,,,,,,,,,,,,,,,masks/mask_004.jpg,,,,,,,,,,,,,,,,,,,,,,,,,,,,,,,,,,,,,,,,,,,,,,,,0,2,2,3,1,,,,,,,,,,,,,,,,,,,,,,,,,,,,,,,,,,,,,,,,,
107952,001,2022-11-21_24h51.19.034,Info_measure_main_exp,2022.2.2,Win32,58.95878781,,,,,,,,,,,,,,,,,,masks/mask_005.jpg,,,,,,,,,,,,,,,,,,,,,,,,,,,,,,,,,,,,,,,,,,,,,,,,0,3,3,4,1,,,,,,,,,,,,,,,,,,,,,,,,,,,,,,,,,,,,,,,,,
