participant,session,date,expName,psychopyVersion,OS,frameRate,space_press_continue.keys,space_press_continue.rt,space_press_continue_2.keys,space_press_continue_2.rt,space_press_continue_3.keys,space_press_continue_3.rt,space_press_continue_4.keys,space_press_continue_4.rt,space_press_continue_5.keys,space_press_continue_5.rt,space_press_continue_6.keys,space_press_continue_6.rt,prac_mask_loop_1.thisRepN,prac_mask_loop_1.thisTrialN,prac_mask_loop_1.thisN,prac_mask_loop_1.thisIndex,prac_mask_loop_1.ran,mask_name,prac_mask_loop_2.thisRepN,prac_mask_loop_2.thisTrialN,prac_mask_loop_2.thisN,prac_mask_loop_2.thisIndex,prac_mask_loop_2.ran,mouse_2.x,mouse_2.y,mouse_2.leftButton,mouse_2.midButton,mouse_2.rightButton,mouse_2.clicked_name,similarity,response_time,Pass,mouse_12.x,mouse_12.y,mouse_12.leftButton,mouse_12.midButton,mouse_12.rightButton,mouse_12.clicked_name,prac_loop.thisRepN,prac_loop.thisTrialN,prac_loop.thisN,prac_loop.thisIndex,prac_loop.ran,Pair_type,Image_num,Patch_1_loc,Patch_2_loc,Patch_1_info,Patch_2_info,Patch_1_name,Patch_2_name,mouse_1.x,mouse_1.y,mouse_1.leftButton,mouse_1.midButton,mouse_1.rightButton,mouse_1.time,mouse_1.clicked_name,space_press_continue_7.keys,mask_loop.thisRepN,mask_loop.thisTrialN,mask_loop.thisN,mask_loop.thisIndex,mask_loop.ran,mask_loop_2.thisRepN,mask_loop_2.thisTrialN,mask_loop_2.thisN,mask_loop_2.thisIndex,mask_loop_2.ran,mouse.x,mouse.y,mouse.leftButton,mouse.midButton,mouse.rightButton,mouse.clicked_name,trialNumber,mouse_11.x,mouse_11.y,mouse_11.leftButton,mouse_11.midButton,mouse_11.rightButton,mouse_11.clicked_name,first_pass_loop.thisRepN,first_pass_loop.thisTrialN,first_pass_loop.thisN,first_pass_loop.thisIndex,first_pass_loop.ran,mask_loop_3.thisRepN,mask_loop_3.thisTrialN,mask_loop_3.thisN,mask_loop_3.thisIndex,mask_loop_3.ran,mask_loop_4.thisRepN,mask_loop_4.thisTrialN,mask_loop_4.thisN,mask_loop_4.thisIndex,mask_loop_4.ran,mouse_3.x,mouse_3.y,mouse_3.leftButton,mouse_3.midButton,mouse_3.rightButton,mouse_3.clicked_name,double_pass_loop.thisRepN,double_pass_loop.thisTrialN,double_pass_loop.thisN,double_pass_loop.thisIndex,double_pass_loop.ran,space_exit.keys,space_exit.rt
109640,001,2022-11-21_24h54.16.559,Info_measure_main_exp,2022.2.2,Win32,59.66231132,,,,,,,,,,,,,,,,,,,,,,,,,,,,,,,,,,,,,,,,,,,,,,,,,,,,,,,,,,,,,,,,,,,,,,,,,,,,,,,,,,,,,,,,,,,,,,,,,,,,,,,,,,,,,,
109640,001,2022-11-21_24h54.16.559,Info_measure_main_exp,2022.2.2,Win32,59.66231132,,,,,,,,,,,,,,,,,,,,,,,,,,,,,,,,,,,,,,,,,,,,,,,,,,,,,,,,,,,,,,,,,,,,,,,,,,,,,,,,,,,,,,,,,,,,,,,,,,,,,,,,,,,,,,
109640,001,2022-11-21_24h54.16.559,Info_measure_main_exp,2022.2.2,Win32,59.66231132,space,12.4353,,,,,,,,,,,,,,,,,,,,,,,,,,,,,,,,,,,,,,,,,,,,,,,,,,,,,,,,,,,,,,,,,,,,,,,,,,,,,,,,,,,,,,,,,,,,,,,,,,,,,,,,,,,,
109640,001,2022-11-21_24h54.16.559,Info_measure_main_exp,2022.2.2,Win32,59.66231132,,,space,16.5479,,,,,,,,,,,,,,,,,,,,,,,,,,,,,,,,,,,,,,,,,,,,,,,,,,,,,,,,,,,,,,,,,,,,,,,,,,,,,,,,,,,,,,,,,,,,,,,,,,,,,,,,,,
109640,001,2022-11-21_24h54.16.559,Info_measure_main_exp,2022.2.2,Win32,59.66231132,,,,,space,7.4477,,,,,,,,,,,,,,,,,,,,,,,,,,,,,,,,,,,,,,,,,,,,,,,,,,,,,,,,,,,,,,,,,,,,,,,,,,,,,,,,,,,,,,,,,,,,,,,,,,,,,,,,
109640,001,2022-11-21_24h54.16.559,Info_measure_main_exp,2022.2.2,Win32,59.66231132,,,,,,,space,21.1462,,,,,,,,,,,,,,,,,,,,,,,,,,,,,,,,,,,,,,,,,,,,,,,,,,,,,,,,,,,,,,,,,,,,,,,,,,,,,,,,,,,,,,,,,,,,,,,,,,,,,,
109640,001,2022-11-21_24h54.16.559,Info_measure_main_exp,2022.2.2,Win32,59.66231132,,,,,,,,,space,8.8387,,,,,,,,,,,,,,,,,,,,,,,,,,,,,,,,,,,,,,,,,,,,,,,,,,,,,,,,,,,,,,,,,,,,,,,,,,,,,,,,,,,,,,,,,,,,,,,,,,,,
109640,001,2022-11-21_24h54.16.559,Info_measure_main_exp,2022.2.2,Win32,59.66231132,,,,,,,,,,,space,3.2789,,,,,,,,,,,,,,,,,,,,,,,,,,,,,,,,,,,,,,,,,,,,,,,,,,,,,,,,,,,,,,,,,,,,,,,,,,,,,,,,,,,,,,,,,,,,,,,,,,
109640,001,2022-11-21_24h54.16.559,Info_measure_main_exp,2022.2.2,Win32,59.66231132,,,,,,,,,,,,,0,0,0,2,1,masks/mask_003.jpg,,,,,,,,,,,,,,,,,,,,,,,,,,,,,,,,,,,,,,,,,,,,,,,,,,,,,,,,,,,,,,,,,,,,,,,,,,,,,,,,,,,,,,,,,,,,
109640,001,2022-11-21_24h54.16.559,Info_measure_main_exp,2022.2.2,Win32,59.66231132,,,,,,,,,,,,,0,1,1,1,1,masks/mask_002.jpg,,,,,,,,,,,,,,,,,,,,,,,,,,,,,,,,,,,,,,,,,,,,,,,,,,,,,,,,,,,,,,,,,,,,,,,,,,,,,,,,,,,,,,,,,,,,
109640,001,2022-11-21_24h54.16.559,Info_measure_main_exp,2022.2.2,Win32,59.66231132,,,,,,,,,,,,,0,2,2,0,1,masks/mask_001.jpg,,,,,,,,,,,,,,,,,,,,,,,,,,,,,,,,,,,,,,,,,,,,,,,,,,,,,,,,,,,,,,,,,,,,,,,,,,,,,,,,,,,,,,,,,,,,
109640,001,2022-11-21_24h54.16.559,Info_measure_main_exp,2022.2.2,Win32,59.66231132,,,,,,,,,,,,,0,3,3,4,1,masks/mask_005.jpg,,,,,,,,,,,,,,,,,,,,,,,,,,,,,,,,,,,,,,,,,,,,,,,,,,,,,,,,,,,,,,,,,,,,,,,,,,,,,,,,,,,,,,,,,,,,
109640,001,2022-11-21_24h54.16.559,Info_measure_main_exp,2022.2.2,Win32,59.66231132,,,,,,,,,,,,,0,4,4,3,1,masks/mask_004.jpg,,,,,,,,,,,,,,,,,,,,,,,,,,,,,,,,,,,,,,,,,,,,,,,,,,,,,,,,,,,,,,,,,,,,,,,,,,,,,,,,,,,,,,,,,,,,
109640,001,2022-11-21_24h54.16.559,Info_measure_main_exp,2022.2.2,Win32,59.66231132,,,,,,,,,,,,,,,,,,masks/mask_003.jpg,0,0,0,2,1,,,,,,,,,,,,,,,,,,,,,,,,,,,,,,,,,,,,,,,,,,,,,,,,,,,,,,,,,,,,,,,,,,,,,,,,,,,,,,,,,,,,,,,
109640,001,2022-11-21_24h54.16.559,Info_measure_main_exp,2022.2.2,Win32,59.66231132,,,,,,,,,,,,,,,,,,masks/mask_002.jpg,0,1,1,1,1,,,,,,,,,,,,,,,,,,,,,,,,,,,,,,,,,,,,,,,,,,,,,,,,,,,,,,,,,,,,,,,,,,,,,,,,,,,,,,,,,,,,,,,
109640,001,2022-11-21_24h54.16.559,Info_measure_main_exp,2022.2.2,Win32,59.66231132,,,,,,,,,,,,,,,,,,masks/mask_001.jpg,0,2,2,0,1,,,,,,,,,,,,,,,,,,,,,,,,,,,,,,,,,,,,,,,,,,,,,,,,,,,,,,,,,,,,,,,,,,,,,,,,,,,,,,,,,,,,,,,
109640,001,2022-11-21_24h54.16.559,Info_measure_main_exp,2022.2.2,Win32,59.66231132,,,,,,,,,,,,,,,,,,masks/mask_004.jpg,0,3,3,3,1,,,,,,,,,,,,,,,,,,,,,,,,,,,,,,,,,,,,,,,,,,,,,,,,,,,,,,,,,,,,,,,,,,,,,,,,,,,,,,,,,,,,,,,
109640,001,2022-11-21_24h54.16.559,Info_measure_main_exp,2022.2.2,Win32,59.66231132,,,,,,,,,,,,,,,,,,masks/mask_005.jpg,0,4,4,4,1,,,,,,,,,,,,,,,,,,,,,,,,,,,,,,,,,,,,,,,,,,,,,,,,,,,,,,,,,,,,,,,,,,,,,,,,,,,,,,,,,,,,,,,
109640,001,2022-11-21_24h54.16.559,Info_measure_main_exp,2022.2.2,Win32,59.66231132,,,,,,,,,,,,,,,,,,,,,,,,0.058333333,0.107407407,1,0,0,response1disk,7,76.7499,1,-0.001851852,0.002777778,1,0,0,center_square,0,0,0,0,1,0,131,5,5,2370,2406,prac_patch/patch0002370.jpg,prac_patch/patch0002406.jpg,,,,,,,,,,,,,,,,,,,,,,,,,,,,,,,,,,,,,,,,,,,,,,,,,,,,,,,,,,,
109640,001,2022-11-21_24h54.16.559,Info_measure_main_exp,2022.2.2,Win32,59.66231132,,,,,,,,,,,,,0,0,0,4,1,masks/mask_005.jpg,,,,,,,,,,,,,,,,,,,,,,,,,,,,,,,,,,,,,,,,,,,,,,,,,,,,,,,,,,,,,,,,,,,,,,,,,,,,,,,,,,,,,,,,,,,,
109640,001,2022-11-21_24h54.16.559,Info_measure_main_exp,2022.2.2,Win32,59.66231132,,,,,,,,,,,,,0,1,1,2,1,masks/mask_003.jpg,,,,,,,,,,,,,,,,,,,,,,,,,,,,,,,,,,,,,,,,,,,,,,,,,,,,,,,,,,,,,,,,,,,,,,,,,,,,,,,,,,,,,,,,,,,,
109640,001,2022-11-21_24h54.16.559,Info_measure_main_exp,2022.2.2,Win32,59.66231132,,,,,,,,,,,,,0,2,2,1,1,masks/mask_002.jpg,,,,,,,,,,,,,,,,,,,,,,,,,,,,,,,,,,,,,,,,,,,,,,,,,,,,,,,,,,,,,,,,,,,,,,,,,,,,,,,,,,,,,,,,,,,,
109640,001,2022-11-21_24h54.16.559,Info_measure_main_exp,2022.2.2,Win32,59.66231132,,,,,,,,,,,,,0,3,3,3,1,masks/mask_004.jpg,,,,,,,,,,,,,,,,,,,,,,,,,,,,,,,,,,,,,,,,,,,,,,,,,,,,,,,,,,,,,,,,,,,,,,,,,,,,,,,,,,,,,,,,,,,,
109640,001,2022-11-21_24h54.16.559,Info_measure_main_exp,2022.2.2,Win32,59.66231132,,,,,,,,,,,,,0,4,4,0,1,masks/mask_001.jpg,,,,,,,,,,,,,,,,,,,,,,,,,,,,,,,,,,,,,,,,,,,,,,,,,,,,,,,,,,,,,,,,,,,,,,,,,,,,,,,,,,,,,,,,,,,,
109640,001,2022-11-21_24h54.16.559,Info_measure_main_exp,2022.2.2,Win32,59.66231132,,,,,,,,,,,,,,,,,,masks/mask_002.jpg,0,0,0,1,1,,,,,,,,,,,,,,,,,,,,,,,,,,,,,,,,,,,,,,,,,,,,,,,,,,,,,,,,,,,,,,,,,,,,,,,,,,,,,,,,,,,,,,,
109640,001,2022-11-21_24h54.16.559,Info_measure_main_exp,2022.2.2,Win32,59.66231132,,,,,,,,,,,,,,,,,,masks/mask_004.jpg,0,1,1,3,1,,,,,,,,,,,,,,,,,,,,,,,,,,,,,,,,,,,,,,,,,,,,,,,,,,,,,,,,,,,,,,,,,,,,,,,,,,,,,,,,,,,,,,,
109640,001,2022-11-21_24h54.16.559,Info_measure_main_exp,2022.2.2,Win32,59.66231132,,,,,,,,,,,,,,,,,,masks/mask_003.jpg,0,2,2,2,1,,,,,,,,,,,,,,,,,,,,,,,,,,,,,,,,,,,,,,,,,,,,,,,,,,,,,,,,,,,,,,,,,,,,,,,,,,,,,,,,,,,,,,,
109640,001,2022-11-21_24h54.16.559,Info_measure_main_exp,2022.2.2,Win32,59.66231132,,,,,,,,,,,,,,,,,,masks/mask_005.jpg,0,3,3,4,1,,,,,,,,,,,,,,,,,,,,,,,,,,,,,,,,,,,,,,,,,,,,,,,,,,,,,,,,,,,,,,,,,,,,,,,,,,,,,,,,,,,,,,,
109640,001,2022-11-21_24h54.16.559,Info_measure_main_exp,2022.2.2,Win32,59.66231132,,,,,,,,,,,,,,,,,,masks/mask_001.jpg,0,4,4,0,1,,,,,,,,,,,,,,,,,,,,,,,,,,,,,,,,,,,,,,,,,,,,,,,,,,,,,,,,,,,,,,,,,,,,,,,,,,,,,,,,,,,,,,,
109640,001,2022-11-21_24h54.16.559,Info_measure_main_exp,2022.2.2,Win32,59.66231132,,,,,,,,,,,,,,,,,,,,,,,,-0.088888889,0.15462963,1,0,0,response7disk,0,87.0636,1,-0.003703704,0.007407407,1,0,0,center_square,0,1,1,2,1,0,131,5,5,2526,2526,prac_patch/patch0002526.jpg,prac_patch/patch0002526.jpg,,,,,,,,,,,,,,,,,,,,,,,,,,,,,,,,,,,,,,,,,,,,,,,,,,,,,,,,,,,
109640,001,2022-11-21_24h54.16.559,Info_measure_main_exp,2022.2.2,Win32,59.66231132,,,,,,,,,,,,,0,0,0,1,1,masks/mask_002.jpg,,,,,,,,,,,,,,,,,,,,,,,,,,,,,,,,,,,,,,,,,,,,,,,,,,,,,,,,,,,,,,,,,,,,,,,,,,,,,,,,,,,,,,,,,,,,
109640,001,2022-11-21_24h54.16.559,Info_measure_main_exp,2022.2.2,Win32,59.66231132,,,,,,,,,,,,,0,1,1,4,1,masks/mask_005.jpg,,,,,,,,,,,,,,,,,,,,,,,,,,,,,,,,,,,,,,,,,,,,,,,,,,,,,,,,,,,,,,,,,,,,,,,,,,,,,,,,,,,,,,,,,,,,
109640,001,2022-11-21_24h54.16.559,Info_measure_main_exp,2022.2.2,Win32,59.66231132,,,,,,,,,,,,,0,2,2,2,1,masks/mask_003.jpg,,,,,,,,,,,,,,,,,,,,,,,,,,,,,,,,,,,,,,,,,,,,,,,,,,,,,,,,,,,,,,,,,,,,,,,,,,,,,,,,,,,,,,,,,,,,
109640,001,2022-11-21_24h54.16.559,Info_measure_main_exp,2022.2.2,Win32,59.66231132,,,,,,,,,,,,,0,3,3,0,1,masks/mask_001.jpg,,,,,,,,,,,,,,,,,,,,,,,,,,,,,,,,,,,,,,,,,,,,,,,,,,,,,,,,,,,,,,,,,,,,,,,,,,,,,,,,,,,,,,,,,,,,
109640,001,2022-11-21_24h54.16.559,Info_measure_main_exp,2022.2.2,Win32,59.66231132,,,,,,,,,,,,,0,4,4,3,1,masks/mask_004.jpg,,,,,,,,,,,,,,,,,,,,,,,,,,,,,,,,,,,,,,,,,,,,,,,,,,,,,,,,,,,,,,,,,,,,,,,,,,,,,,,,,,,,,,,,,,,,
109640,001,2022-11-21_24h54.16.559,Info_measure_main_exp,2022.2.2,Win32,59.66231132,,,,,,,,,,,,,,,,,,masks/mask_004.jpg,0,0,0,3,1,,,,,,,,,,,,,,,,,,,,,,,,,,,,,,,,,,,,,,,,,,,,,,,,,,,,,,,,,,,,,,,,,,,,,,,,,,,,,,,,,,,,,,,
109640,001,2022-11-21_24h54.16.559,Info_measure_main_exp,2022.2.2,Win32,59.66231132,,,,,,,,,,,,,,,,,,masks/mask_002.jpg,0,1,1,1,1,,,,,,,,,,,,,,,,,,,,,,,,,,,,,,,,,,,,,,,,,,,,,,,,,,,,,,,,,,,,,,,,,,,,,,,,,,,,,,,,,,,,,,,
109640,001,2022-11-21_24h54.16.559,Info_measure_main_exp,2022.2.2,Win32,59.66231132,,,,,,,,,,,,,,,,,,masks/mask_005.jpg,0,2,2,4,1,,,,,,,,,,,,,,,,,,,,,,,,,,,,,,,,,,,,,,,,,,,,,,,,,,,,,,,,,,,,,,,,,,,,,,,,,,,,,,,,,,,,,,,
109640,001,2022-11-21_24h54.16.559,Info_measure_main_exp,2022.2.2,Win32,59.66231132,,,,,,,,,,,,,,,,,,masks/mask_003.jpg,0,3,3,2,1,,,,,,,,,,,,,,,,,,,,,,,,,,,,,,,,,,,,,,,,,,,,,,,,,,,,,,,,,,,,,,,,,,,,,,,,,,,,,,,,,,,,,,,
109640,001,2022-11-21_24h54.16.559,Info_measure_main_exp,2022.2.2,Win32,59.66231132,,,,,,,,,,,,,,,,,,masks/mask_001.jpg,0,4,4,0,1,,,,,,,,,,,,,,,,,,,,,,,,,,,,,,,,,,,,,,,,,,,,,,,,,,,,,,,,,,,,,,,,,,,,,,,,,,,,,,,,,,,,,,,
109640,001,2022-11-21_24h54.16.559,Info_measure_main_exp,2022.2.2,Win32,59.66231132,,,,,,,,,,,,,,,,,,,,,,,,-0.062962963,-0.122222222,1,0,0,response5disk,3,96.7136,1,0.002777778,0.008333333,1,0,0,center_square,0,2,2,1,1,0,131,5,5,2514,2490,prac_patch/patch0002514.jpg,prac_patch/patch0002490.jpg,,,,,,,,,,,,,,,,,,,,,,,,,,,,,,,,,,,,,,,,,,,,,,,,,,,,,,,,,,,
109640,001,2022-11-21_24h54.16.559,Info_measure_main_exp,2022.2.2,Win32,59.66231132,,,,,,,,,,,,,,,,,,,,,,,,,,,,,,,,,,,,,,,,,,,,,,,,,,,,-0.005555556,-0.00462963,1,0,0,2.0161,center_square,,,,,,,,,,,,,,,,,,,,,,,,,,,,,,,,,,,,,,,,,,,,,,,,,,,,
109640,001,2022-11-21_24h54.16.559,Info_measure_main_exp,2022.2.2,Win32,59.66231132,,,,,,,,,,,,,,,,,,masks/mask_001.jpg,,,,,,,,,,,,,,,,,,,,,,,,,,,,,,,,,,,,,,,,,,0,0,0,0,1,,,,,,,,,,,,,,,,,,,,,,,,,,,,,,,,,,,,,,,,,,,,,,
109640,001,2022-11-21_24h54.16.559,Info_measure_main_exp,2022.2.2,Win32,59.66231132,,,,,,,,,,,,,,,,,,masks/mask_005.jpg,,,,,,,,,,,,,,,,,,,,,,,,,,,,,,,,,,,,,,,,,,0,1,1,4,1,,,,,,,,,,,,,,,,,,,,,,,,,,,,,,,,,,,,,,,,,,,,,,
109640,001,2022-11-21_24h54.16.559,Info_measure_main_exp,2022.2.2,Win32,59.66231132,,,,,,,,,,,,,,,,,,masks/mask_004.jpg,,,,,,,,,,,,,,,,,,,,,,,,,,,,,,,,,,,,,,,,,,0,2,2,3,1,,,,,,,,,,,,,,,,,,,,,,,,,,,,,,,,,,,,,,,,,,,,,,
109640,001,2022-11-21_24h54.16.559,Info_measure_main_exp,2022.2.2,Win32,59.66231132,,,,,,,,,,,,,,,,,,masks/mask_002.jpg,,,,,,,,,,,,,,,,,,,,,,,,,,,,,,,,,,,,,,,,,,0,3,3,1,1,,,,,,,,,,,,,,,,,,,,,,,,,,,,,,,,,,,,,,,,,,,,,,
109640,001,2022-11-21_24h54.16.559,Info_measure_main_exp,2022.2.2,Win32,59.66231132,,,,,,,,,,,,,,,,,,masks/mask_003.jpg,,,,,,,,,,,,,,,,,,,,,,,,,,,,,,,,,,,,,,,,,,0,4,4,2,1,,,,,,,,,,,,,,,,,,,,,,,,,,,,,,,,,,,,,,,,,,,,,,
109640,001,2022-11-21_24h54.16.559,Info_measure_main_exp,2022.2.2,Win32,59.66231132,,,,,,,,,,,,,,,,,,masks/mask_003.jpg,,,,,,,,,,,,,,,,,,,,,,,,,,,,,,,,,,,,,,,,,,,,,,,0,0,0,2,1,,,,,,,,,,,,,,,,,,,,,,,,,,,,,,,,,,,,,,,,,
109640,001,2022-11-21_24h54.16.559,Info_measure_main_exp,2022.2.2,Win32,59.66231132,,,,,,,,,,,,,,,,,,masks/mask_005.jpg,,,,,,,,,,,,,,,,,,,,,,,,,,,,,,,,,,,,,,,,,,,,,,,0,1,1,4,1,,,,,,,,,,,,,,,,,,,,,,,,,,,,,,,,,,,,,,,,,
109640,001,2022-11-21_24h54.16.559,Info_measure_main_exp,2022.2.2,Win32,59.66231132,,,,,,,,,,,,,,,,,,masks/mask_002.jpg,,,,,,,,,,,,,,,,,,,,,,,,,,,,,,,,,,,,,,,,,,,,,,,0,2,2,1,1,,,,,,,,,,,,,,,,,,,,,,,,,,,,,,,,,,,,,,,,,
109640,001,2022-11-21_24h54.16.559,Info_measure_main_exp,2022.2.2,Win32,59.66231132,,,,,,,,,,,,,,,,,,masks/mask_001.jpg,,,,,,,,,,,,,,,,,,,,,,,,,,,,,,,,,,,,,,,,,,,,,,,0,3,3,0,1,,,,,,,,,,,,,,,,,,,,,,,,,,,,,,,,,,,,,,,,,
109640,001,2022-11-21_24h54.16.559,Info_measure_main_exp,2022.2.2,Win32,59.66231132,,,,,,,,,,,,,,,,,,masks/mask_004.jpg,,,,,,,,,,,,,,,,,,,,,,,,,,,,,,,,,,,,,,,,,,,,,,,0,4,4,3,1,,,,,,,,,,,,,,,,,,,,,,,,,,,,,,,,,,,,,,,,,
109640,001,2022-11-21_24h54.16.559,Info_measure_main_exp,2022.2.2,Win32,59.66231132,,,,,,,,,,,,,,,,,,,,,,,,,,,,,,0,0.8666,1,,,,,,,,,,,,0,131,5,5,2274,2166,absent_patch/patch0002274.jpg,absent_patch/patch0002166.jpg,,,,,,,,,,,,,,,,,,,-0.064814815,0.131481481,1,0,0,response7disk,1,0,0,1,0,0,center_square,0,0,0,78,1,,,,,,,,,,,,,,,,,,,,,,,
109640,001,2022-11-21_24h54.16.559,Info_measure_main_exp,2022.2.2,Win32,59.66231132,,,,,,,,,,,,,,,,,,masks/mask_005.jpg,,,,,,,,,,,,,,,,,,,,,,,,,,,,,,,,,,,,,,,,,,0,0,0,4,1,,,,,,,,,,,,,,,,,,,,,,,,,,,,,,,,,,,,,,,,,,,,,,
109640,001,2022-11-21_24h54.16.559,Info_measure_main_exp,2022.2.2,Win32,59.66231132,,,,,,,,,,,,,,,,,,masks/mask_003.jpg,,,,,,,,,,,,,,,,,,,,,,,,,,,,,,,,,,,,,,,,,,0,1,1,2,1,,,,,,,,,,,,,,,,,,,,,,,,,,,,,,,,,,,,,,,,,,,,,,
109640,001,2022-11-21_24h54.16.559,Info_measure_main_exp,2022.2.2,Win32,59.66231132,,,,,,,,,,,,,,,,,,masks/mask_001.jpg,,,,,,,,,,,,,,,,,,,,,,,,,,,,,,,,,,,,,,,,,,0,2,2,0,1,,,,,,,,,,,,,,,,,,,,,,,,,,,,,,,,,,,,,,,,,,,,,,
109640,001,2022-11-21_24h54.16.559,Info_measure_main_exp,2022.2.2,Win32,59.66231132,,,,,,,,,,,,,,,,,,masks/mask_002.jpg,,,,,,,,,,,,,,,,,,,,,,,,,,,,,,,,,,,,,,,,,,0,3,3,1,1,,,,,,,,,,,,,,,,,,,,,,,,,,,,,,,,,,,,,,,,,,,,,,
109640,001,2022-11-21_24h54.16.559,Info_measure_main_exp,2022.2.2,Win32,59.66231132,,,,,,,,,,,,,,,,,,masks/mask_004.jpg,,,,,,,,,,,,,,,,,,,,,,,,,,,,,,,,,,,,,,,,,,0,4,4,3,1,,,,,,,,,,,,,,,,,,,,,,,,,,,,,,,,,,,,,,,,,,,,,,
109640,001,2022-11-21_24h54.16.559,Info_measure_main_exp,2022.2.2,Win32,59.66231132,,,,,,,,,,,,,,,,,,masks/mask_005.jpg,,,,,,,,,,,,,,,,,,,,,,,,,,,,,,,,,,,,,,,,,,,,,,,0,0,0,4,1,,,,,,,,,,,,,,,,,,,,,,,,,,,,,,,,,,,,,,,,,
109640,001,2022-11-21_24h54.16.559,Info_measure_main_exp,2022.2.2,Win32,59.66231132,,,,,,,,,,,,,,,,,,masks/mask_003.jpg,,,,,,,,,,,,,,,,,,,,,,,,,,,,,,,,,,,,,,,,,,,,,,,0,1,1,2,1,,,,,,,,,,,,,,,,,,,,,,,,,,,,,,,,,,,,,,,,,
109640,001,2022-11-21_24h54.16.559,Info_measure_main_exp,2022.2.2,Win32,59.66231132,,,,,,,,,,,,,,,,,,masks/mask_004.jpg,,,,,,,,,,,,,,,,,,,,,,,,,,,,,,,,,,,,,,,,,,,,,,,0,2,2,3,1,,,,,,,,,,,,,,,,,,,,,,,,,,,,,,,,,,,,,,,,,
109640,001,2022-11-21_24h54.16.559,Info_measure_main_exp,2022.2.2,Win32,59.66231132,,,,,,,,,,,,,,,,,,masks/mask_002.jpg,,,,,,,,,,,,,,,,,,,,,,,,,,,,,,,,,,,,,,,,,,,,,,,0,3,3,1,1,,,,,,,,,,,,,,,,,,,,,,,,,,,,,,,,,,,,,,,,,
109640,001,2022-11-21_24h54.16.559,Info_measure_main_exp,2022.2.2,Win32,59.66231132,,,,,,,,,,,,,,,,,,masks/mask_001.jpg,,,,,,,,,,,,,,,,,,,,,,,,,,,,,,,,,,,,,,,,,,,,,,,0,4,4,0,1,,,,,,,,,,,,,,,,,,,,,,,,,,,,,,,,,,,,,,,,,
109640,001,2022-11-21_24h54.16.559,Info_measure_main_exp,2022.2.2,Win32,59.66231132,,,,,,,,,,,,,,,,,,,,,,,,,,,,,,7,0.8334,1,,,,,,,,,,,,0,131,5,5,2190,1986,absent_patch/patch0002190.jpg,absent_patch/patch0001986.jpg,,,,,,,,,,,,,,,,,,,0.052777778,0.152777778,1,0,0,response1disk,2,-0.001851852,-0.003703704,1,0,0,center_square,0,1,1,111,1,,,,,,,,,,,,,,,,,,,,,,,
109640,001,2022-11-21_24h54.16.559,Info_measure_main_exp,2022.2.2,Win32,59.66231132,,,,,,,,,,,,,,,,,,masks/mask_005.jpg,,,,,,,,,,,,,,,,,,,,,,,,,,,,,,,,,,,,,,,,,,0,0,0,4,1,,,,,,,,,,,,,,,,,,,,,,,,,,,,,,,,,,,,,,,,,,,,,,
109640,001,2022-11-21_24h54.16.559,Info_measure_main_exp,2022.2.2,Win32,59.66231132,,,,,,,,,,,,,,,,,,masks/mask_001.jpg,,,,,,,,,,,,,,,,,,,,,,,,,,,,,,,,,,,,,,,,,,0,1,1,0,1,,,,,,,,,,,,,,,,,,,,,,,,,,,,,,,,,,,,,,,,,,,,,,
109640,001,2022-11-21_24h54.16.559,Info_measure_main_exp,2022.2.2,Win32,59.66231132,,,,,,,,,,,,,,,,,,masks/mask_004.jpg,,,,,,,,,,,,,,,,,,,,,,,,,,,,,,,,,,,,,,,,,,0,2,2,3,1,,,,,,,,,,,,,,,,,,,,,,,,,,,,,,,,,,,,,,,,,,,,,,
109640,001,2022-11-21_24h54.16.559,Info_measure_main_exp,2022.2.2,Win32,59.66231132,,,,,,,,,,,,,,,,,,masks/mask_002.jpg,,,,,,,,,,,,,,,,,,,,,,,,,,,,,,,,,,,,,,,,,,0,3,3,1,1,,,,,,,,,,,,,,,,,,,,,,,,,,,,,,,,,,,,,,,,,,,,,,
109640,001,2022-11-21_24h54.16.559,Info_measure_main_exp,2022.2.2,Win32,59.66231132,,,,,,,,,,,,,,,,,,masks/mask_003.jpg,,,,,,,,,,,,,,,,,,,,,,,,,,,,,,,,,,,,,,,,,,0,4,4,2,1,,,,,,,,,,,,,,,,,,,,,,,,,,,,,,,,,,,,,,,,,,,,,,
109640,001,2022-11-21_24h54.16.559,Info_measure_main_exp,2022.2.2,Win32,59.66231132,,,,,,,,,,,,,,,,,,masks/mask_004.jpg,,,,,,,,,,,,,,,,,,,,,,,,,,,,,,,,,,,,,,,,,,,,,,,0,0,0,3,1,,,,,,,,,,,,,,,,,,,,,,,,,,,,,,,,,,,,,,,,,
109640,001,2022-11-21_24h54.16.559,Info_measure_main_exp,2022.2.2,Win32,59.66231132,,,,,,,,,,,,,,,,,,masks/mask_005.jpg,,,,,,,,,,,,,,,,,,,,,,,,,,,,,,,,,,,,,,,,,,,,,,,0,1,1,4,1,,,,,,,,,,,,,,,,,,,,,,,,,,,,,,,,,,,,,,,,,
109640,001,2022-11-21_24h54.16.559,Info_measure_main_exp,2022.2.2,Win32,59.66231132,,,,,,,,,,,,,,,,,,masks/mask_001.jpg,,,,,,,,,,,,,,,,,,,,,,,,,,,,,,,,,,,,,,,,,,,,,,,0,2,2,0,1,,,,,,,,,,,,,,,,,,,,,,,,,,,,,,,,,,,,,,,,,
109640,001,2022-11-21_24h54.16.559,Info_measure_main_exp,2022.2.2,Win32,59.66231132,,,,,,,,,,,,,,,,,,masks/mask_003.jpg,,,,,,,,,,,,,,,,,,,,,,,,,,,,,,,,,,,,,,,,,,,,,,,0,3,3,2,1,,,,,,,,,,,,,,,,,,,,,,,,,,,,,,,,,,,,,,,,,
109640,001,2022-11-21_24h54.16.559,Info_measure_main_exp,2022.2.2,Win32,59.66231132,,,,,,,,,,,,,,,,,,masks/mask_002.jpg,,,,,,,,,,,,,,,,,,,,,,,,,,,,,,,,,,,,,,,,,,,,,,,0,4,4,1,1,,,,,,,,,,,,,,,,,,,,,,,,,,,,,,,,,,,,,,,,,
109640,001,2022-11-21_24h54.16.559,Info_measure_main_exp,2022.2.2,Win32,59.66231132,,,,,,,,,,,,,,,,,,,,,,,,,,,,,,7,0.7835,1,,,,,,,,,,,,0,131,5,5,1986,1950,absent_patch/patch0001986.jpg,absent_patch/patch0001950.jpg,,,,,,,,,,,,,,,,,,,0.043518519,0.141666667,1,0,0,response1disk,3,0.00462963,-0.005555556,1,0,0,center_square,0,2,2,15,1,,,,,,,,,,,,,,,,,,,,,,,
109640,001,2022-11-21_24h54.16.559,Info_measure_main_exp,2022.2.2,Win32,59.66231132,,,,,,,,,,,,,,,,,,masks/mask_002.jpg,,,,,,,,,,,,,,,,,,,,,,,,,,,,,,,,,,,,,,,,,,0,0,0,1,1,,,,,,,,,,,,,,,,,,,,,,,,,,,,,,,,,,,,,,,,,,,,,,
109640,001,2022-11-21_24h54.16.559,Info_measure_main_exp,2022.2.2,Win32,59.66231132,,,,,,,,,,,,,,,,,,masks/mask_003.jpg,,,,,,,,,,,,,,,,,,,,,,,,,,,,,,,,,,,,,,,,,,0,1,1,2,1,,,,,,,,,,,,,,,,,,,,,,,,,,,,,,,,,,,,,,,,,,,,,,
109640,001,2022-11-21_24h54.16.559,Info_measure_main_exp,2022.2.2,Win32,59.66231132,,,,,,,,,,,,,,,,,,masks/mask_004.jpg,,,,,,,,,,,,,,,,,,,,,,,,,,,,,,,,,,,,,,,,,,0,2,2,3,1,,,,,,,,,,,,,,,,,,,,,,,,,,,,,,,,,,,,,,,,,,,,,,
109640,001,2022-11-21_24h54.16.559,Info_measure_main_exp,2022.2.2,Win32,59.66231132,,,,,,,,,,,,,,,,,,masks/mask_001.jpg,,,,,,,,,,,,,,,,,,,,,,,,,,,,,,,,,,,,,,,,,,0,3,3,0,1,,,,,,,,,,,,,,,,,,,,,,,,,,,,,,,,,,,,,,,,,,,,,,
109640,001,2022-11-21_24h54.16.559,Info_measure_main_exp,2022.2.2,Win32,59.66231132,,,,,,,,,,,,,,,,,,masks/mask_005.jpg,,,,,,,,,,,,,,,,,,,,,,,,,,,,,,,,,,,,,,,,,,0,4,4,4,1,,,,,,,,,,,,,,,,,,,,,,,,,,,,,,,,,,,,,,,,,,,,,,
109640,001,2022-11-21_24h54.16.559,Info_measure_main_exp,2022.2.2,Win32,59.66231132,,,,,,,,,,,,,,,,,,masks/mask_003.jpg,,,,,,,,,,,,,,,,,,,,,,,,,,,,,,,,,,,,,,,,,,,,,,,0,0,0,2,1,,,,,,,,,,,,,,,,,,,,,,,,,,,,,,,,,,,,,,,,,
109640,001,2022-11-21_24h54.16.559,Info_measure_main_exp,2022.2.2,Win32,59.66231132,,,,,,,,,,,,,,,,,,masks/mask_001.jpg,,,,,,,,,,,,,,,,,,,,,,,,,,,,,,,,,,,,,,,,,,,,,,,0,1,1,0,1,,,,,,,,,,,,,,,,,,,,,,,,,,,,,,,,,,,,,,,,,
109640,001,2022-11-21_24h54.16.559,Info_measure_main_exp,2022.2.2,Win32,59.66231132,,,,,,,,,,,,,,,,,,masks/mask_004.jpg,,,,,,,,,,,,,,,,,,,,,,,,,,,,,,,,,,,,,,,,,,,,,,,0,2,2,3,1,,,,,,,,,,,,,,,,,,,,,,,,,,,,,,,,,,,,,,,,,
109640,001,2022-11-21_24h54.16.559,Info_measure_main_exp,2022.2.2,Win32,59.66231132,,,,,,,,,,,,,,,,,,masks/mask_005.jpg,,,,,,,,,,,,,,,,,,,,,,,,,,,,,,,,,,,,,,,,,,,,,,,0,3,3,4,1,,,,,,,,,,,,,,,,,,,,,,,,,,,,,,,,,,,,,,,,,
109640,001,2022-11-21_24h54.16.559,Info_measure_main_exp,2022.2.2,Win32,59.66231132,,,,,,,,,,,,,,,,,,masks/mask_002.jpg,,,,,,,,,,,,,,,,,,,,,,,,,,,,,,,,,,,,,,,,,,,,,,,0,4,4,1,1,,,,,,,,,,,,,,,,,,,,,,,,,,,,,,,,,,,,,,,,,
109640,001,2022-11-21_24h54.16.559,Info_measure_main_exp,2022.2.2,Win32,59.66231132,,,,,,,,,,,,,,,,,,,,,,,,,,,,,,4,1.4832,1,,,,,,,,,,,,0,131,5,5,2214,2082,absent_patch/patch0002214.jpg,absent_patch/patch0002082.jpg,,,,,,,,,,,,,,,,,,,0.039814815,-0.115740741,1,0,0,response3disk,4,-0.00462963,-0.005555556,1,0,0,center_square,0,3,3,103,1,,,,,,,,,,,,,,,,,,,,,,,
109640,001,2022-11-21_24h54.16.559,Info_measure_main_exp,2022.2.2,Win32,59.66231132,,,,,,,,,,,,,,,,,,masks/mask_002.jpg,,,,,,,,,,,,,,,,,,,,,,,,,,,,,,,,,,,,,,,,,,0,0,0,1,1,,,,,,,,,,,,,,,,,,,,,,,,,,,,,,,,,,,,,,,,,,,,,,
109640,001,2022-11-21_24h54.16.559,Info_measure_main_exp,2022.2.2,Win32,59.66231132,,,,,,,,,,,,,,,,,,masks/mask_003.jpg,,,,,,,,,,,,,,,,,,,,,,,,,,,,,,,,,,,,,,,,,,0,1,1,2,1,,,,,,,,,,,,,,,,,,,,,,,,,,,,,,,,,,,,,,,,,,,,,,
109640,001,2022-11-21_24h54.16.559,Info_measure_main_exp,2022.2.2,Win32,59.66231132,,,,,,,,,,,,,,,,,,masks/mask_001.jpg,,,,,,,,,,,,,,,,,,,,,,,,,,,,,,,,,,,,,,,,,,0,2,2,0,1,,,,,,,,,,,,,,,,,,,,,,,,,,,,,,,,,,,,,,,,,,,,,,
109640,001,2022-11-21_24h54.16.559,Info_measure_main_exp,2022.2.2,Win32,59.66231132,,,,,,,,,,,,,,,,,,masks/mask_005.jpg,,,,,,,,,,,,,,,,,,,,,,,,,,,,,,,,,,,,,,,,,,0,3,3,4,1,,,,,,,,,,,,,,,,,,,,,,,,,,,,,,,,,,,,,,,,,,,,,,
109640,001,2022-11-21_24h54.16.559,Info_measure_main_exp,2022.2.2,Win32,59.66231132,,,,,,,,,,,,,,,,,,masks/mask_004.jpg,,,,,,,,,,,,,,,,,,,,,,,,,,,,,,,,,,,,,,,,,,0,4,4,3,1,,,,,,,,,,,,,,,,,,,,,,,,,,,,,,,,,,,,,,,,,,,,,,
109640,001,2022-11-21_24h54.16.559,Info_measure_main_exp,2022.2.2,Win32,59.66231132,,,,,,,,,,,,,,,,,,masks/mask_005.jpg,,,,,,,,,,,,,,,,,,,,,,,,,,,,,,,,,,,,,,,,,,,,,,,0,0,0,4,1,,,,,,,,,,,,,,,,,,,,,,,,,,,,,,,,,,,,,,,,,
109640,001,2022-11-21_24h54.16.559,Info_measure_main_exp,2022.2.2,Win32,59.66231132,,,,,,,,,,,,,,,,,,masks/mask_001.jpg,,,,,,,,,,,,,,,,,,,,,,,,,,,,,,,,,,,,,,,,,,,,,,,0,1,1,0,1,,,,,,,,,,,,,,,,,,,,,,,,,,,,,,,,,,,,,,,,,
109640,001,2022-11-21_24h54.16.559,Info_measure_main_exp,2022.2.2,Win32,59.66231132,,,,,,,,,,,,,,,,,,masks/mask_003.jpg,,,,,,,,,,,,,,,,,,,,,,,,,,,,,,,,,,,,,,,,,,,,,,,0,2,2,2,1,,,,,,,,,,,,,,,,,,,,,,,,,,,,,,,,,,,,,,,,,
109640,001,2022-11-21_24h54.16.559,Info_measure_main_exp,2022.2.2,Win32,59.66231132,,,,,,,,,,,,,,,,,,masks/mask_004.jpg,,,,,,,,,,,,,,,,,,,,,,,,,,,,,,,,,,,,,,,,,,,,,,,0,3,3,3,1,,,,,,,,,,,,,,,,,,,,,,,,,,,,,,,,,,,,,,,,,
109640,001,2022-11-21_24h54.16.559,Info_measure_main_exp,2022.2.2,Win32,59.66231132,,,,,,,,,,,,,,,,,,masks/mask_002.jpg,,,,,,,,,,,,,,,,,,,,,,,,,,,,,,,,,,,,,,,,,,,,,,,0,4,4,1,1,,,,,,,,,,,,,,,,,,,,,,,,,,,,,,,,,,,,,,,,,
109640,001,2022-11-21_24h54.16.559,Info_measure_main_exp,2022.2.2,Win32,59.66231132,,,,,,,,,,,,,,,,,,,,,,,,,,,,,,5,2.9499,1,,,,,,,,,,,,1,131,5,5,1,2274,present_patch/cong_131_5_a.jpg,absent_patch/patch0002274.jpg,,,,,,,,,,,,,,,,,,,0.113888889,-0.051851852,1,0,0,response3disk,5,-0.003703704,0.000925926,1,0,0,center_square,0,4,4,105,1,,,,,,,,,,,,,,,,,,,,,,,
109640,001,2022-11-21_24h54.16.559,Info_measure_main_exp,2022.2.2,Win32,59.66231132,,,,,,,,,,,,,,,,,,masks/mask_005.jpg,,,,,,,,,,,,,,,,,,,,,,,,,,,,,,,,,,,,,,,,,,0,0,0,4,1,,,,,,,,,,,,,,,,,,,,,,,,,,,,,,,,,,,,,,,,,,,,,,
109640,001,2022-11-21_24h54.16.559,Info_measure_main_exp,2022.2.2,Win32,59.66231132,,,,,,,,,,,,,,,,,,masks/mask_002.jpg,,,,,,,,,,,,,,,,,,,,,,,,,,,,,,,,,,,,,,,,,,0,1,1,1,1,,,,,,,,,,,,,,,,,,,,,,,,,,,,,,,,,,,,,,,,,,,,,,
109640,001,2022-11-21_24h54.16.559,Info_measure_main_exp,2022.2.2,Win32,59.66231132,,,,,,,,,,,,,,,,,,masks/mask_001.jpg,,,,,,,,,,,,,,,,,,,,,,,,,,,,,,,,,,,,,,,,,,0,2,2,0,1,,,,,,,,,,,,,,,,,,,,,,,,,,,,,,,,,,,,,,,,,,,,,,
109640,001,2022-11-21_24h54.16.559,Info_measure_main_exp,2022.2.2,Win32,59.66231132,,,,,,,,,,,,,,,,,,masks/mask_004.jpg,,,,,,,,,,,,,,,,,,,,,,,,,,,,,,,,,,,,,,,,,,0,3,3,3,1,,,,,,,,,,,,,,,,,,,,,,,,,,,,,,,,,,,,,,,,,,,,,,
109640,001,2022-11-21_24h54.16.559,Info_measure_main_exp,2022.2.2,Win32,59.66231132,,,,,,,,,,,,,,,,,,masks/mask_003.jpg,,,,,,,,,,,,,,,,,,,,,,,,,,,,,,,,,,,,,,,,,,0,4,4,2,1,,,,,,,,,,,,,,,,,,,,,,,,,,,,,,,,,,,,,,,,,,,,,,
109640,001,2022-11-21_24h54.16.559,Info_measure_main_exp,2022.2.2,Win32,59.66231132,,,,,,,,,,,,,,,,,,masks/mask_004.jpg,,,,,,,,,,,,,,,,,,,,,,,,,,,,,,,,,,,,,,,,,,,,,,,0,0,0,3,1,,,,,,,,,,,,,,,,,,,,,,,,,,,,,,,,,,,,,,,,,
109640,001,2022-11-21_24h54.16.559,Info_measure_main_exp,2022.2.2,Win32,59.66231132,,,,,,,,,,,,,,,,,,masks/mask_002.jpg,,,,,,,,,,,,,,,,,,,,,,,,,,,,,,,,,,,,,,,,,,,,,,,0,1,1,1,1,,,,,,,,,,,,,,,,,,,,,,,,,,,,,,,,,,,,,,,,,
109640,001,2022-11-21_24h54.16.559,Info_measure_main_exp,2022.2.2,Win32,59.66231132,,,,,,,,,,,,,,,,,,masks/mask_003.jpg,,,,,,,,,,,,,,,,,,,,,,,,,,,,,,,,,,,,,,,,,,,,,,,0,2,2,2,1,,,,,,,,,,,,,,,,,,,,,,,,,,,,,,,,,,,,,,,,,
109640,001,2022-11-21_24h54.16.559,Info_measure_main_exp,2022.2.2,Win32,59.66231132,,,,,,,,,,,,,,,,,,masks/mask_005.jpg,,,,,,,,,,,,,,,,,,,,,,,,,,,,,,,,,,,,,,,,,,,,,,,0,3,3,4,1,,,,,,,,,,,,,,,,,,,,,,,,,,,,,,,,,,,,,,,,,
109640,001,2022-11-21_24h54.16.559,Info_measure_main_exp,2022.2.2,Win32,59.66231132,,,,,,,,,,,,,,,,,,masks/mask_001.jpg,,,,,,,,,,,,,,,,,,,,,,,,,,,,,,,,,,,,,,,,,,,,,,,0,4,4,0,1,,,,,,,,,,,,,,,,,,,,,,,,,,,,,,,,,,,,,,,,,
109640,001,2022-11-21_24h54.16.559,Info_measure_main_exp,2022.2.2,Win32,59.66231132,,,,,,,,,,,,,,,,,,,,,,,,,,,,,,5,1.3333,1,,,,,,,,,,,,0,131,5,5,2178,2142,absent_patch/patch0002178.jpg,absent_patch/patch0002142.jpg,,,,,,,,,,,,,,,,,,,0.112037037,-0.038888889,1,0,0,response3disk,6,0.006481481,-0.000925926,1,0,0,center_square,0,5,5,41,1,,,,,,,,,,,,,,,,,,,,,,,
109640,001,2022-11-21_24h54.16.559,Info_measure_main_exp,2022.2.2,Win32,59.66231132,,,,,,,,,,,,,,,,,,masks/mask_002.jpg,,,,,,,,,,,,,,,,,,,,,,,,,,,,,,,,,,,,,,,,,,0,0,0,1,1,,,,,,,,,,,,,,,,,,,,,,,,,,,,,,,,,,,,,,,,,,,,,,
109640,001,2022-11-21_24h54.16.559,Info_measure_main_exp,2022.2.2,Win32,59.66231132,,,,,,,,,,,,,,,,,,masks/mask_001.jpg,,,,,,,,,,,,,,,,,,,,,,,,,,,,,,,,,,,,,,,,,,0,1,1,0,1,,,,,,,,,,,,,,,,,,,,,,,,,,,,,,,,,,,,,,,,,,,,,,
109640,001,2022-11-21_24h54.16.559,Info_measure_main_exp,2022.2.2,Win32,59.66231132,,,,,,,,,,,,,,,,,,masks/mask_003.jpg,,,,,,,,,,,,,,,,,,,,,,,,,,,,,,,,,,,,,,,,,,0,2,2,2,1,,,,,,,,,,,,,,,,,,,,,,,,,,,,,,,,,,,,,,,,,,,,,,
109640,001,2022-11-21_24h54.16.559,Info_measure_main_exp,2022.2.2,Win32,59.66231132,,,,,,,,,,,,,,,,,,masks/mask_005.jpg,,,,,,,,,,,,,,,,,,,,,,,,,,,,,,,,,,,,,,,,,,0,3,3,4,1,,,,,,,,,,,,,,,,,,,,,,,,,,,,,,,,,,,,,,,,,,,,,,
109640,001,2022-11-21_24h54.16.559,Info_measure_main_exp,2022.2.2,Win32,59.66231132,,,,,,,,,,,,,,,,,,masks/mask_004.jpg,,,,,,,,,,,,,,,,,,,,,,,,,,,,,,,,,,,,,,,,,,0,4,4,3,1,,,,,,,,,,,,,,,,,,,,,,,,,,,,,,,,,,,,,,,,,,,,,,
109640,001,2022-11-21_24h54.16.559,Info_measure_main_exp,2022.2.2,Win32,59.66231132,,,,,,,,,,,,,,,,,,masks/mask_005.jpg,,,,,,,,,,,,,,,,,,,,,,,,,,,,,,,,,,,,,,,,,,,,,,,0,0,0,4,1,,,,,,,,,,,,,,,,,,,,,,,,,,,,,,,,,,,,,,,,,
109640,001,2022-11-21_24h54.16.559,Info_measure_main_exp,2022.2.2,Win32,59.66231132,,,,,,,,,,,,,,,,,,masks/mask_003.jpg,,,,,,,,,,,,,,,,,,,,,,,,,,,,,,,,,,,,,,,,,,,,,,,0,1,1,2,1,,,,,,,,,,,,,,,,,,,,,,,,,,,,,,,,,,,,,,,,,
109640,001,2022-11-21_24h54.16.559,Info_measure_main_exp,2022.2.2,Win32,59.66231132,,,,,,,,,,,,,,,,,,masks/mask_004.jpg,,,,,,,,,,,,,,,,,,,,,,,,,,,,,,,,,,,,,,,,,,,,,,,0,2,2,3,1,,,,,,,,,,,,,,,,,,,,,,,,,,,,,,,,,,,,,,,,,
109640,001,2022-11-21_24h54.16.559,Info_measure_main_exp,2022.2.2,Win32,59.66231132,,,,,,,,,,,,,,,,,,masks/mask_001.jpg,,,,,,,,,,,,,,,,,,,,,,,,,,,,,,,,,,,,,,,,,,,,,,,0,3,3,0,1,,,,,,,,,,,,,,,,,,,,,,,,,,,,,,,,,,,,,,,,,
109640,001,2022-11-21_24h54.16.559,Info_measure_main_exp,2022.2.2,Win32,59.66231132,,,,,,,,,,,,,,,,,,masks/mask_002.jpg,,,,,,,,,,,,,,,,,,,,,,,,,,,,,,,,,,,,,,,,,,,,,,,0,4,4,1,1,,,,,,,,,,,,,,,,,,,,,,,,,,,,,,,,,,,,,,,,,
109640,001,2022-11-21_24h54.16.559,Info_measure_main_exp,2022.2.2,Win32,59.66231132,,,,,,,,,,,,,,,,,,,,,,,,,,,,,,3,1.9835,1,,,,,,,,,,,,0,131,5,5,1974,2250,absent_patch/patch0001974.jpg,absent_patch/patch0002250.jpg,,,,,,,,,,,,,,,,,,,-0.053703704,-0.082407407,1,0,0,response5disk,7,-0.003703704,-0.001851852,1,0,0,center_square,0,6,6,55,1,,,,,,,,,,,,,,,,,,,,,,,
109640,001,2022-11-21_24h54.16.559,Info_measure_main_exp,2022.2.2,Win32,59.66231132,,,,,,,,,,,,,,,,,,masks/mask_002.jpg,,,,,,,,,,,,,,,,,,,,,,,,,,,,,,,,,,,,,,,,,,0,0,0,1,1,,,,,,,,,,,,,,,,,,,,,,,,,,,,,,,,,,,,,,,,,,,,,,
109640,001,2022-11-21_24h54.16.559,Info_measure_main_exp,2022.2.2,Win32,59.66231132,,,,,,,,,,,,,,,,,,masks/mask_001.jpg,,,,,,,,,,,,,,,,,,,,,,,,,,,,,,,,,,,,,,,,,,0,1,1,0,1,,,,,,,,,,,,,,,,,,,,,,,,,,,,,,,,,,,,,,,,,,,,,,
109640,001,2022-11-21_24h54.16.559,Info_measure_main_exp,2022.2.2,Win32,59.66231132,,,,,,,,,,,,,,,,,,masks/mask_004.jpg,,,,,,,,,,,,,,,,,,,,,,,,,,,,,,,,,,,,,,,,,,0,2,2,3,1,,,,,,,,,,,,,,,,,,,,,,,,,,,,,,,,,,,,,,,,,,,,,,
109640,001,2022-11-21_24h54.16.559,Info_measure_main_exp,2022.2.2,Win32,59.66231132,,,,,,,,,,,,,,,,,,masks/mask_005.jpg,,,,,,,,,,,,,,,,,,,,,,,,,,,,,,,,,,,,,,,,,,0,3,3,4,1,,,,,,,,,,,,,,,,,,,,,,,,,,,,,,,,,,,,,,,,,,,,,,
109640,001,2022-11-21_24h54.16.559,Info_measure_main_exp,2022.2.2,Win32,59.66231132,,,,,,,,,,,,,,,,,,masks/mask_003.jpg,,,,,,,,,,,,,,,,,,,,,,,,,,,,,,,,,,,,,,,,,,0,4,4,2,1,,,,,,,,,,,,,,,,,,,,,,,,,,,,,,,,,,,,,,,,,,,,,,
109640,001,2022-11-21_24h54.16.559,Info_measure_main_exp,2022.2.2,Win32,59.66231132,,,,,,,,,,,,,,,,,,masks/mask_003.jpg,,,,,,,,,,,,,,,,,,,,,,,,,,,,,,,,,,,,,,,,,,,,,,,0,0,0,2,1,,,,,,,,,,,,,,,,,,,,,,,,,,,,,,,,,,,,,,,,,
109640,001,2022-11-21_24h54.16.559,Info_measure_main_exp,2022.2.2,Win32,59.66231132,,,,,,,,,,,,,,,,,,masks/mask_001.jpg,,,,,,,,,,,,,,,,,,,,,,,,,,,,,,,,,,,,,,,,,,,,,,,0,1,1,0,1,,,,,,,,,,,,,,,,,,,,,,,,,,,,,,,,,,,,,,,,,
109640,001,2022-11-21_24h54.16.559,Info_measure_main_exp,2022.2.2,Win32,59.66231132,,,,,,,,,,,,,,,,,,masks/mask_004.jpg,,,,,,,,,,,,,,,,,,,,,,,,,,,,,,,,,,,,,,,,,,,,,,,0,2,2,3,1,,,,,,,,,,,,,,,,,,,,,,,,,,,,,,,,,,,,,,,,,
109640,001,2022-11-21_24h54.16.559,Info_measure_main_exp,2022.2.2,Win32,59.66231132,,,,,,,,,,,,,,,,,,masks/mask_005.jpg,,,,,,,,,,,,,,,,,,,,,,,,,,,,,,,,,,,,,,,,,,,,,,,0,3,3,4,1,,,,,,,,,,,,,,,,,,,,,,,,,,,,,,,,,,,,,,,,,
109640,001,2022-11-21_24h54.16.559,Info_measure_main_exp,2022.2.2,Win32,59.66231132,,,,,,,,,,,,,,,,,,masks/mask_002.jpg,,,,,,,,,,,,,,,,,,,,,,,,,,,,,,,,,,,,,,,,,,,,,,,0,4,4,1,1,,,,,,,,,,,,,,,,,,,,,,,,,,,,,,,,,,,,,,,,,
109640,001,2022-11-21_24h54.16.559,Info_measure_main_exp,2022.2.2,Win32,59.66231132,,,,,,,,,,,,,,,,,,,,,,,,,,,,,,5,1.8,1,,,,,,,,,,,,0,131,5,5,1986,2142,absent_patch/patch0001986.jpg,absent_patch/patch0002142.jpg,,,,,,,,,,,,,,,,,,,0.126851852,-0.022222222,1,0,0,response3disk,8,0,0.002777778,1,0,0,center_square,0,7,7,76,1,,,,,,,,,,,,,,,,,,,,,,,
109640,001,2022-11-21_24h54.16.559,Info_measure_main_exp,2022.2.2,Win32,59.66231132,,,,,,,,,,,,,,,,,,masks/mask_003.jpg,,,,,,,,,,,,,,,,,,,,,,,,,,,,,,,,,,,,,,,,,,0,0,0,2,1,,,,,,,,,,,,,,,,,,,,,,,,,,,,,,,,,,,,,,,,,,,,,,
109640,001,2022-11-21_24h54.16.559,Info_measure_main_exp,2022.2.2,Win32,59.66231132,,,,,,,,,,,,,,,,,,masks/mask_001.jpg,,,,,,,,,,,,,,,,,,,,,,,,,,,,,,,,,,,,,,,,,,0,1,1,0,1,,,,,,,,,,,,,,,,,,,,,,,,,,,,,,,,,,,,,,,,,,,,,,
109640,001,2022-11-21_24h54.16.559,Info_measure_main_exp,2022.2.2,Win32,59.66231132,,,,,,,,,,,,,,,,,,masks/mask_004.jpg,,,,,,,,,,,,,,,,,,,,,,,,,,,,,,,,,,,,,,,,,,0,2,2,3,1,,,,,,,,,,,,,,,,,,,,,,,,,,,,,,,,,,,,,,,,,,,,,,
109640,001,2022-11-21_24h54.16.559,Info_measure_main_exp,2022.2.2,Win32,59.66231132,,,,,,,,,,,,,,,,,,masks/mask_005.jpg,,,,,,,,,,,,,,,,,,,,,,,,,,,,,,,,,,,,,,,,,,0,3,3,4,1,,,,,,,,,,,,,,,,,,,,,,,,,,,,,,,,,,,,,,,,,,,,,,
109640,001,2022-11-21_24h54.16.559,Info_measure_main_exp,2022.2.2,Win32,59.66231132,,,,,,,,,,,,,,,,,,masks/mask_002.jpg,,,,,,,,,,,,,,,,,,,,,,,,,,,,,,,,,,,,,,,,,,0,4,4,1,1,,,,,,,,,,,,,,,,,,,,,,,,,,,,,,,,,,,,,,,,,,,,,,
109640,001,2022-11-21_24h54.16.559,Info_measure_main_exp,2022.2.2,Win32,59.66231132,,,,,,,,,,,,,,,,,,masks/mask_003.jpg,,,,,,,,,,,,,,,,,,,,,,,,,,,,,,,,,,,,,,,,,,,,,,,0,0,0,2,1,,,,,,,,,,,,,,,,,,,,,,,,,,,,,,,,,,,,,,,,,
109640,001,2022-11-21_24h54.16.559,Info_measure_main_exp,2022.2.2,Win32,59.66231132,,,,,,,,,,,,,,,,,,masks/mask_004.jpg,,,,,,,,,,,,,,,,,,,,,,,,,,,,,,,,,,,,,,,,,,,,,,,0,1,1,3,1,,,,,,,,,,,,,,,,,,,,,,,,,,,,,,,,,,,,,,,,,
109640,001,2022-11-21_24h54.16.559,Info_measure_main_exp,2022.2.2,Win32,59.66231132,,,,,,,,,,,,,,,,,,masks/mask_005.jpg,,,,,,,,,,,,,,,,,,,,,,,,,,,,,,,,,,,,,,,,,,,,,,,0,2,2,4,1,,,,,,,,,,,,,,,,,,,,,,,,,,,,,,,,,,,,,,,,,
109640,001,2022-11-21_24h54.16.559,Info_measure_main_exp,2022.2.2,Win32,59.66231132,,,,,,,,,,,,,,,,,,masks/mask_002.jpg,,,,,,,,,,,,,,,,,,,,,,,,,,,,,,,,,,,,,,,,,,,,,,,0,3,3,1,1,,,,,,,,,,,,,,,,,,,,,,,,,,,,,,,,,,,,,,,,,
109640,001,2022-11-21_24h54.16.559,Info_measure_main_exp,2022.2.2,Win32,59.66231132,,,,,,,,,,,,,,,,,,masks/mask_001.jpg,,,,,,,,,,,,,,,,,,,,,,,,,,,,,,,,,,,,,,,,,,,,,,,0,4,4,0,1,,,,,,,,,,,,,,,,,,,,,,,,,,,,,,,,,,,,,,,,,
109640,001,2022-11-21_24h54.16.559,Info_measure_main_exp,2022.2.2,Win32,59.66231132,,,,,,,,,,,,,,,,,,,,,,,,,,,,,,6,1.4675,1,,,,,,,,,,,,0,131,5,5,2190,2082,absent_patch/patch0002190.jpg,absent_patch/patch0002082.jpg,,,,,,,,,,,,,,,,,,,0.108333333,0.041666667,1,0,0,response1disk,9,-0.006481481,-0.002777778,1,0,0,center_square,0,8,8,112,1,,,,,,,,,,,,,,,,,,,,,,,
109640,001,2022-11-21_24h54.16.559,Info_measure_main_exp,2022.2.2,Win32,59.66231132,,,,,,,,,,,,,,,,,,masks/mask_004.jpg,,,,,,,,,,,,,,,,,,,,,,,,,,,,,,,,,,,,,,,,,,0,0,0,3,1,,,,,,,,,,,,,,,,,,,,,,,,,,,,,,,,,,,,,,,,,,,,,,
109640,001,2022-11-21_24h54.16.559,Info_measure_main_exp,2022.2.2,Win32,59.66231132,,,,,,,,,,,,,,,,,,masks/mask_001.jpg,,,,,,,,,,,,,,,,,,,,,,,,,,,,,,,,,,,,,,,,,,0,1,1,0,1,,,,,,,,,,,,,,,,,,,,,,,,,,,,,,,,,,,,,,,,,,,,,,
109640,001,2022-11-21_24h54.16.559,Info_measure_main_exp,2022.2.2,Win32,59.66231132,,,,,,,,,,,,,,,,,,masks/mask_002.jpg,,,,,,,,,,,,,,,,,,,,,,,,,,,,,,,,,,,,,,,,,,0,2,2,1,1,,,,,,,,,,,,,,,,,,,,,,,,,,,,,,,,,,,,,,,,,,,,,,
109640,001,2022-11-21_24h54.16.559,Info_measure_main_exp,2022.2.2,Win32,59.66231132,,,,,,,,,,,,,,,,,,masks/mask_003.jpg,,,,,,,,,,,,,,,,,,,,,,,,,,,,,,,,,,,,,,,,,,0,3,3,2,1,,,,,,,,,,,,,,,,,,,,,,,,,,,,,,,,,,,,,,,,,,,,,,
109640,001,2022-11-21_24h54.16.559,Info_measure_main_exp,2022.2.2,Win32,59.66231132,,,,,,,,,,,,,,,,,,masks/mask_005.jpg,,,,,,,,,,,,,,,,,,,,,,,,,,,,,,,,,,,,,,,,,,0,4,4,4,1,,,,,,,,,,,,,,,,,,,,,,,,,,,,,,,,,,,,,,,,,,,,,,
109640,001,2022-11-21_24h54.16.559,Info_measure_main_exp,2022.2.2,Win32,59.66231132,,,,,,,,,,,,,,,,,,masks/mask_003.jpg,,,,,,,,,,,,,,,,,,,,,,,,,,,,,,,,,,,,,,,,,,,,,,,0,0,0,2,1,,,,,,,,,,,,,,,,,,,,,,,,,,,,,,,,,,,,,,,,,
109640,001,2022-11-21_24h54.16.559,Info_measure_main_exp,2022.2.2,Win32,59.66231132,,,,,,,,,,,,,,,,,,masks/mask_005.jpg,,,,,,,,,,,,,,,,,,,,,,,,,,,,,,,,,,,,,,,,,,,,,,,0,1,1,4,1,,,,,,,,,,,,,,,,,,,,,,,,,,,,,,,,,,,,,,,,,
109640,001,2022-11-21_24h54.16.559,Info_measure_main_exp,2022.2.2,Win32,59.66231132,,,,,,,,,,,,,,,,,,masks/mask_002.jpg,,,,,,,,,,,,,,,,,,,,,,,,,,,,,,,,,,,,,,,,,,,,,,,0,2,2,1,1,,,,,,,,,,,,,,,,,,,,,,,,,,,,,,,,,,,,,,,,,
109640,001,2022-11-21_24h54.16.559,Info_measure_main_exp,2022.2.2,Win32,59.66231132,,,,,,,,,,,,,,,,,,masks/mask_004.jpg,,,,,,,,,,,,,,,,,,,,,,,,,,,,,,,,,,,,,,,,,,,,,,,0,3,3,3,1,,,,,,,,,,,,,,,,,,,,,,,,,,,,,,,,,,,,,,,,,
109640,001,2022-11-21_24h54.16.559,Info_measure_main_exp,2022.2.2,Win32,59.66231132,,,,,,,,,,,,,,,,,,masks/mask_001.jpg,,,,,,,,,,,,,,,,,,,,,,,,,,,,,,,,,,,,,,,,,,,,,,,0,4,4,0,1,,,,,,,,,,,,,,,,,,,,,,,,,,,,,,,,,,,,,,,,,
109640,001,2022-11-21_24h54.16.559,Info_measure_main_exp,2022.2.2,Win32,59.66231132,,,,,,,,,,,,,,,,,,,,,,,,,,,,,,6,0.9831,1,,,,,,,,,,,,0,131,5,5,2274,2142,absent_patch/patch0002274.jpg,absent_patch/patch0002142.jpg,,,,,,,,,,,,,,,,,,,0.122222222,0.043518519,1,0,0,response1disk,10,0.000925926,0.000925926,1,0,0,center_square,0,9,9,75,1,,,,,,,,,,,,,,,,,,,,,,,
109640,001,2022-11-21_24h54.16.559,Info_measure_main_exp,2022.2.2,Win32,59.66231132,,,,,,,,,,,,,,,,,,masks/mask_003.jpg,,,,,,,,,,,,,,,,,,,,,,,,,,,,,,,,,,,,,,,,,,0,0,0,2,1,,,,,,,,,,,,,,,,,,,,,,,,,,,,,,,,,,,,,,,,,,,,,,
109640,001,2022-11-21_24h54.16.559,Info_measure_main_exp,2022.2.2,Win32,59.66231132,,,,,,,,,,,,,,,,,,masks/mask_002.jpg,,,,,,,,,,,,,,,,,,,,,,,,,,,,,,,,,,,,,,,,,,0,1,1,1,1,,,,,,,,,,,,,,,,,,,,,,,,,,,,,,,,,,,,,,,,,,,,,,
109640,001,2022-11-21_24h54.16.559,Info_measure_main_exp,2022.2.2,Win32,59.66231132,,,,,,,,,,,,,,,,,,masks/mask_001.jpg,,,,,,,,,,,,,,,,,,,,,,,,,,,,,,,,,,,,,,,,,,0,2,2,0,1,,,,,,,,,,,,,,,,,,,,,,,,,,,,,,,,,,,,,,,,,,,,,,
109640,001,2022-11-21_24h54.16.559,Info_measure_main_exp,2022.2.2,Win32,59.66231132,,,,,,,,,,,,,,,,,,masks/mask_005.jpg,,,,,,,,,,,,,,,,,,,,,,,,,,,,,,,,,,,,,,,,,,0,3,3,4,1,,,,,,,,,,,,,,,,,,,,,,,,,,,,,,,,,,,,,,,,,,,,,,
109640,001,2022-11-21_24h54.16.559,Info_measure_main_exp,2022.2.2,Win32,59.66231132,,,,,,,,,,,,,,,,,,masks/mask_004.jpg,,,,,,,,,,,,,,,,,,,,,,,,,,,,,,,,,,,,,,,,,,0,4,4,3,1,,,,,,,,,,,,,,,,,,,,,,,,,,,,,,,,,,,,,,,,,,,,,,
109640,001,2022-11-21_24h54.16.559,Info_measure_main_exp,2022.2.2,Win32,59.66231132,,,,,,,,,,,,,,,,,,masks/mask_003.jpg,,,,,,,,,,,,,,,,,,,,,,,,,,,,,,,,,,,,,,,,,,,,,,,0,0,0,2,1,,,,,,,,,,,,,,,,,,,,,,,,,,,,,,,,,,,,,,,,,
109640,001,2022-11-21_24h54.16.559,Info_measure_main_exp,2022.2.2,Win32,59.66231132,,,,,,,,,,,,,,,,,,masks/mask_005.jpg,,,,,,,,,,,,,,,,,,,,,,,,,,,,,,,,,,,,,,,,,,,,,,,0,1,1,4,1,,,,,,,,,,,,,,,,,,,,,,,,,,,,,,,,,,,,,,,,,
109640,001,2022-11-21_24h54.16.559,Info_measure_main_exp,2022.2.2,Win32,59.66231132,,,,,,,,,,,,,,,,,,masks/mask_002.jpg,,,,,,,,,,,,,,,,,,,,,,,,,,,,,,,,,,,,,,,,,,,,,,,0,2,2,1,1,,,,,,,,,,,,,,,,,,,,,,,,,,,,,,,,,,,,,,,,,
109640,001,2022-11-21_24h54.16.559,Info_measure_main_exp,2022.2.2,Win32,59.66231132,,,,,,,,,,,,,,,,,,masks/mask_001.jpg,,,,,,,,,,,,,,,,,,,,,,,,,,,,,,,,,,,,,,,,,,,,,,,0,3,3,0,1,,,,,,,,,,,,,,,,,,,,,,,,,,,,,,,,,,,,,,,,,
109640,001,2022-11-21_24h54.16.559,Info_measure_main_exp,2022.2.2,Win32,59.66231132,,,,,,,,,,,,,,,,,,masks/mask_004.jpg,,,,,,,,,,,,,,,,,,,,,,,,,,,,,,,,,,,,,,,,,,,,,,,0,4,4,3,1,,,,,,,,,,,,,,,,,,,,,,,,,,,,,,,,,,,,,,,,,
109640,001,2022-11-21_24h54.16.559,Info_measure_main_exp,2022.2.2,Win32,59.66231132,,,,,,,,,,,,,,,,,,,,,,,,,,,,,,6,0.6165,1,,,,,,,,,,,,0,131,5,5,2274,1950,absent_patch/patch0002274.jpg,absent_patch/patch0001950.jpg,,,,,,,,,,,,,,,,,,,0.108333333,0.046296296,1,0,0,response1disk,11,-0.007407407,-0.006481481,1,0,0,center_square,0,10,10,10,1,,,,,,,,,,,,,,,,,,,,,,,
109640,001,2022-11-21_24h54.16.559,Info_measure_main_exp,2022.2.2,Win32,59.66231132,,,,,,,,,,,,,,,,,,masks/mask_004.jpg,,,,,,,,,,,,,,,,,,,,,,,,,,,,,,,,,,,,,,,,,,0,0,0,3,1,,,,,,,,,,,,,,,,,,,,,,,,,,,,,,,,,,,,,,,,,,,,,,
109640,001,2022-11-21_24h54.16.559,Info_measure_main_exp,2022.2.2,Win32,59.66231132,,,,,,,,,,,,,,,,,,masks/mask_001.jpg,,,,,,,,,,,,,,,,,,,,,,,,,,,,,,,,,,,,,,,,,,0,1,1,0,1,,,,,,,,,,,,,,,,,,,,,,,,,,,,,,,,,,,,,,,,,,,,,,
109640,001,2022-11-21_24h54.16.559,Info_measure_main_exp,2022.2.2,Win32,59.66231132,,,,,,,,,,,,,,,,,,masks/mask_003.jpg,,,,,,,,,,,,,,,,,,,,,,,,,,,,,,,,,,,,,,,,,,0,2,2,2,1,,,,,,,,,,,,,,,,,,,,,,,,,,,,,,,,,,,,,,,,,,,,,,
109640,001,2022-11-21_24h54.16.559,Info_measure_main_exp,2022.2.2,Win32,59.66231132,,,,,,,,,,,,,,,,,,masks/mask_005.jpg,,,,,,,,,,,,,,,,,,,,,,,,,,,,,,,,,,,,,,,,,,0,3,3,4,1,,,,,,,,,,,,,,,,,,,,,,,,,,,,,,,,,,,,,,,,,,,,,,
109640,001,2022-11-21_24h54.16.559,Info_measure_main_exp,2022.2.2,Win32,59.66231132,,,,,,,,,,,,,,,,,,masks/mask_002.jpg,,,,,,,,,,,,,,,,,,,,,,,,,,,,,,,,,,,,,,,,,,0,4,4,1,1,,,,,,,,,,,,,,,,,,,,,,,,,,,,,,,,,,,,,,,,,,,,,,
109640,001,2022-11-21_24h54.16.559,Info_measure_main_exp,2022.2.2,Win32,59.66231132,,,,,,,,,,,,,,,,,,masks/mask_003.jpg,,,,,,,,,,,,,,,,,,,,,,,,,,,,,,,,,,,,,,,,,,,,,,,0,0,0,2,1,,,,,,,,,,,,,,,,,,,,,,,,,,,,,,,,,,,,,,,,,
109640,001,2022-11-21_24h54.16.559,Info_measure_main_exp,2022.2.2,Win32,59.66231132,,,,,,,,,,,,,,,,,,masks/mask_002.jpg,,,,,,,,,,,,,,,,,,,,,,,,,,,,,,,,,,,,,,,,,,,,,,,0,1,1,1,1,,,,,,,,,,,,,,,,,,,,,,,,,,,,,,,,,,,,,,,,,
109640,001,2022-11-21_24h54.16.559,Info_measure_main_exp,2022.2.2,Win32,59.66231132,,,,,,,,,,,,,,,,,,masks/mask_004.jpg,,,,,,,,,,,,,,,,,,,,,,,,,,,,,,,,,,,,,,,,,,,,,,,0,2,2,3,1,,,,,,,,,,,,,,,,,,,,,,,,,,,,,,,,,,,,,,,,,
109640,001,2022-11-21_24h54.16.559,Info_measure_main_exp,2022.2.2,Win32,59.66231132,,,,,,,,,,,,,,,,,,masks/mask_001.jpg,,,,,,,,,,,,,,,,,,,,,,,,,,,,,,,,,,,,,,,,,,,,,,,0,3,3,0,1,,,,,,,,,,,,,,,,,,,,,,,,,,,,,,,,,,,,,,,,,
109640,001,2022-11-21_24h54.16.559,Info_measure_main_exp,2022.2.2,Win32,59.66231132,,,,,,,,,,,,,,,,,,masks/mask_005.jpg,,,,,,,,,,,,,,,,,,,,,,,,,,,,,,,,,,,,,,,,,,,,,,,0,4,4,4,1,,,,,,,,,,,,,,,,,,,,,,,,,,,,,,,,,,,,,,,,,
109640,001,2022-11-21_24h54.16.559,Info_measure_main_exp,2022.2.2,Win32,59.66231132,,,,,,,,,,,,,,,,,,,,,,,,,,,,,,7,1.1001,1,,,,,,,,,,,,0,131,5,5,2238,2214,absent_patch/patch0002238.jpg,absent_patch/patch0002214.jpg,,,,,,,,,,,,,,,,,,,0.064814815,0.110185185,1,0,0,response1disk,12,0.002777778,-0.007407407,1,0,0,center_square,0,11,11,81,1,,,,,,,,,,,,,,,,,,,,,,,
109640,001,2022-11-21_24h54.16.559,Info_measure_main_exp,2022.2.2,Win32,59.66231132,,,,,,,,,,,,,,,,,,masks/mask_001.jpg,,,,,,,,,,,,,,,,,,,,,,,,,,,,,,,,,,,,,,,,,,0,0,0,0,1,,,,,,,,,,,,,,,,,,,,,,,,,,,,,,,,,,,,,,,,,,,,,,
109640,001,2022-11-21_24h54.16.559,Info_measure_main_exp,2022.2.2,Win32,59.66231132,,,,,,,,,,,,,,,,,,masks/mask_004.jpg,,,,,,,,,,,,,,,,,,,,,,,,,,,,,,,,,,,,,,,,,,0,1,1,3,1,,,,,,,,,,,,,,,,,,,,,,,,,,,,,,,,,,,,,,,,,,,,,,
109640,001,2022-11-21_24h54.16.559,Info_measure_main_exp,2022.2.2,Win32,59.66231132,,,,,,,,,,,,,,,,,,masks/mask_005.jpg,,,,,,,,,,,,,,,,,,,,,,,,,,,,,,,,,,,,,,,,,,0,2,2,4,1,,,,,,,,,,,,,,,,,,,,,,,,,,,,,,,,,,,,,,,,,,,,,,
109640,001,2022-11-21_24h54.16.559,Info_measure_main_exp,2022.2.2,Win32,59.66231132,,,,,,,,,,,,,,,,,,masks/mask_002.jpg,,,,,,,,,,,,,,,,,,,,,,,,,,,,,,,,,,,,,,,,,,0,3,3,1,1,,,,,,,,,,,,,,,,,,,,,,,,,,,,,,,,,,,,,,,,,,,,,,
109640,001,2022-11-21_24h54.16.559,Info_measure_main_exp,2022.2.2,Win32,59.66231132,,,,,,,,,,,,,,,,,,masks/mask_003.jpg,,,,,,,,,,,,,,,,,,,,,,,,,,,,,,,,,,,,,,,,,,0,4,4,2,1,,,,,,,,,,,,,,,,,,,,,,,,,,,,,,,,,,,,,,,,,,,,,,
109640,001,2022-11-21_24h54.16.559,Info_measure_main_exp,2022.2.2,Win32,59.66231132,,,,,,,,,,,,,,,,,,masks/mask_002.jpg,,,,,,,,,,,,,,,,,,,,,,,,,,,,,,,,,,,,,,,,,,,,,,,0,0,0,1,1,,,,,,,,,,,,,,,,,,,,,,,,,,,,,,,,,,,,,,,,,
109640,001,2022-11-21_24h54.16.559,Info_measure_main_exp,2022.2.2,Win32,59.66231132,,,,,,,,,,,,,,,,,,masks/mask_004.jpg,,,,,,,,,,,,,,,,,,,,,,,,,,,,,,,,,,,,,,,,,,,,,,,0,1,1,3,1,,,,,,,,,,,,,,,,,,,,,,,,,,,,,,,,,,,,,,,,,
109640,001,2022-11-21_24h54.16.559,Info_measure_main_exp,2022.2.2,Win32,59.66231132,,,,,,,,,,,,,,,,,,masks/mask_001.jpg,,,,,,,,,,,,,,,,,,,,,,,,,,,,,,,,,,,,,,,,,,,,,,,0,2,2,0,1,,,,,,,,,,,,,,,,,,,,,,,,,,,,,,,,,,,,,,,,,
109640,001,2022-11-21_24h54.16.559,Info_measure_main_exp,2022.2.2,Win32,59.66231132,,,,,,,,,,,,,,,,,,masks/mask_003.jpg,,,,,,,,,,,,,,,,,,,,,,,,,,,,,,,,,,,,,,,,,,,,,,,0,3,3,2,1,,,,,,,,,,,,,,,,,,,,,,,,,,,,,,,,,,,,,,,,,
109640,001,2022-11-21_24h54.16.559,Info_measure_main_exp,2022.2.2,Win32,59.66231132,,,,,,,,,,,,,,,,,,masks/mask_005.jpg,,,,,,,,,,,,,,,,,,,,,,,,,,,,,,,,,,,,,,,,,,,,,,,0,4,4,4,1,,,,,,,,,,,,,,,,,,,,,,,,,,,,,,,,,,,,,,,,,
109640,001,2022-11-21_24h54.16.559,Info_measure_main_exp,2022.2.2,Win32,59.66231132,,,,,,,,,,,,,,,,,,,,,,,,,,,,,,7,1.0674,1,,,,,,,,,,,,0,131,5,5,2082,2298,absent_patch/patch0002082.jpg,absent_patch/patch0002298.jpg,,,,,,,,,,,,,,,,,,,0.044444444,0.087037037,1,0,0,response1disk,13,0.007407407,0.005555556,1,0,0,center_square,0,12,12,107,1,,,,,,,,,,,,,,,,,,,,,,,
109640,001,2022-11-21_24h54.16.559,Info_measure_main_exp,2022.2.2,Win32,59.66231132,,,,,,,,,,,,,,,,,,masks/mask_003.jpg,,,,,,,,,,,,,,,,,,,,,,,,,,,,,,,,,,,,,,,,,,0,0,0,2,1,,,,,,,,,,,,,,,,,,,,,,,,,,,,,,,,,,,,,,,,,,,,,,
109640,001,2022-11-21_24h54.16.559,Info_measure_main_exp,2022.2.2,Win32,59.66231132,,,,,,,,,,,,,,,,,,masks/mask_004.jpg,,,,,,,,,,,,,,,,,,,,,,,,,,,,,,,,,,,,,,,,,,0,1,1,3,1,,,,,,,,,,,,,,,,,,,,,,,,,,,,,,,,,,,,,,,,,,,,,,
109640,001,2022-11-21_24h54.16.559,Info_measure_main_exp,2022.2.2,Win32,59.66231132,,,,,,,,,,,,,,,,,,masks/mask_005.jpg,,,,,,,,,,,,,,,,,,,,,,,,,,,,,,,,,,,,,,,,,,0,2,2,4,1,,,,,,,,,,,,,,,,,,,,,,,,,,,,,,,,,,,,,,,,,,,,,,
109640,001,2022-11-21_24h54.16.559,Info_measure_main_exp,2022.2.2,Win32,59.66231132,,,,,,,,,,,,,,,,,,masks/mask_002.jpg,,,,,,,,,,,,,,,,,,,,,,,,,,,,,,,,,,,,,,,,,,0,3,3,1,1,,,,,,,,,,,,,,,,,,,,,,,,,,,,,,,,,,,,,,,,,,,,,,
109640,001,2022-11-21_24h54.16.559,Info_measure_main_exp,2022.2.2,Win32,59.66231132,,,,,,,,,,,,,,,,,,masks/mask_001.jpg,,,,,,,,,,,,,,,,,,,,,,,,,,,,,,,,,,,,,,,,,,0,4,4,0,1,,,,,,,,,,,,,,,,,,,,,,,,,,,,,,,,,,,,,,,,,,,,,,
109640,001,2022-11-21_24h54.16.559,Info_measure_main_exp,2022.2.2,Win32,59.66231132,,,,,,,,,,,,,,,,,,masks/mask_003.jpg,,,,,,,,,,,,,,,,,,,,,,,,,,,,,,,,,,,,,,,,,,,,,,,0,0,0,2,1,,,,,,,,,,,,,,,,,,,,,,,,,,,,,,,,,,,,,,,,,
109640,001,2022-11-21_24h54.16.559,Info_measure_main_exp,2022.2.2,Win32,59.66231132,,,,,,,,,,,,,,,,,,masks/mask_002.jpg,,,,,,,,,,,,,,,,,,,,,,,,,,,,,,,,,,,,,,,,,,,,,,,0,1,1,1,1,,,,,,,,,,,,,,,,,,,,,,,,,,,,,,,,,,,,,,,,,
109640,001,2022-11-21_24h54.16.559,Info_measure_main_exp,2022.2.2,Win32,59.66231132,,,,,,,,,,,,,,,,,,masks/mask_001.jpg,,,,,,,,,,,,,,,,,,,,,,,,,,,,,,,,,,,,,,,,,,,,,,,0,2,2,0,1,,,,,,,,,,,,,,,,,,,,,,,,,,,,,,,,,,,,,,,,,
109640,001,2022-11-21_24h54.16.559,Info_measure_main_exp,2022.2.2,Win32,59.66231132,,,,,,,,,,,,,,,,,,masks/mask_004.jpg,,,,,,,,,,,,,,,,,,,,,,,,,,,,,,,,,,,,,,,,,,,,,,,0,3,3,3,1,,,,,,,,,,,,,,,,,,,,,,,,,,,,,,,,,,,,,,,,,
109640,001,2022-11-21_24h54.16.559,Info_measure_main_exp,2022.2.2,Win32,59.66231132,,,,,,,,,,,,,,,,,,masks/mask_005.jpg,,,,,,,,,,,,,,,,,,,,,,,,,,,,,,,,,,,,,,,,,,,,,,,0,4,4,4,1,,,,,,,,,,,,,,,,,,,,,,,,,,,,,,,,,,,,,,,,,
109640,001,2022-11-21_24h54.16.559,Info_measure_main_exp,2022.2.2,Win32,59.66231132,,,,,,,,,,,,,,,,,,,,,,,,,,,,,,0,1.234,1,,,,,,,,,,,,0,131,5,5,1986,2154,absent_patch/patch0001986.jpg,absent_patch/patch0002154.jpg,,,,,,,,,,,,,,,,,,,-0.050925926,0.098148148,1,0,0,response7disk,14,-0.00462963,0.000925926,1,0,0,center_square,0,13,13,36,1,,,,,,,,,,,,,,,,,,,,,,,
109640,001,2022-11-21_24h54.16.559,Info_measure_main_exp,2022.2.2,Win32,59.66231132,,,,,,,,,,,,,,,,,,masks/mask_003.jpg,,,,,,,,,,,,,,,,,,,,,,,,,,,,,,,,,,,,,,,,,,0,0,0,2,1,,,,,,,,,,,,,,,,,,,,,,,,,,,,,,,,,,,,,,,,,,,,,,
109640,001,2022-11-21_24h54.16.559,Info_measure_main_exp,2022.2.2,Win32,59.66231132,,,,,,,,,,,,,,,,,,masks/mask_004.jpg,,,,,,,,,,,,,,,,,,,,,,,,,,,,,,,,,,,,,,,,,,0,1,1,3,1,,,,,,,,,,,,,,,,,,,,,,,,,,,,,,,,,,,,,,,,,,,,,,
109640,001,2022-11-21_24h54.16.559,Info_measure_main_exp,2022.2.2,Win32,59.66231132,,,,,,,,,,,,,,,,,,masks/mask_001.jpg,,,,,,,,,,,,,,,,,,,,,,,,,,,,,,,,,,,,,,,,,,0,2,2,0,1,,,,,,,,,,,,,,,,,,,,,,,,,,,,,,,,,,,,,,,,,,,,,,
109640,001,2022-11-21_24h54.16.559,Info_measure_main_exp,2022.2.2,Win32,59.66231132,,,,,,,,,,,,,,,,,,masks/mask_005.jpg,,,,,,,,,,,,,,,,,,,,,,,,,,,,,,,,,,,,,,,,,,0,3,3,4,1,,,,,,,,,,,,,,,,,,,,,,,,,,,,,,,,,,,,,,,,,,,,,,
109640,001,2022-11-21_24h54.16.559,Info_measure_main_exp,2022.2.2,Win32,59.66231132,,,,,,,,,,,,,,,,,,masks/mask_002.jpg,,,,,,,,,,,,,,,,,,,,,,,,,,,,,,,,,,,,,,,,,,0,4,4,1,1,,,,,,,,,,,,,,,,,,,,,,,,,,,,,,,,,,,,,,,,,,,,,,
109640,001,2022-11-21_24h54.16.559,Info_measure_main_exp,2022.2.2,Win32,59.66231132,,,,,,,,,,,,,,,,,,masks/mask_005.jpg,,,,,,,,,,,,,,,,,,,,,,,,,,,,,,,,,,,,,,,,,,,,,,,0,0,0,4,1,,,,,,,,,,,,,,,,,,,,,,,,,,,,,,,,,,,,,,,,,
109640,001,2022-11-21_24h54.16.559,Info_measure_main_exp,2022.2.2,Win32,59.66231132,,,,,,,,,,,,,,,,,,masks/mask_003.jpg,,,,,,,,,,,,,,,,,,,,,,,,,,,,,,,,,,,,,,,,,,,,,,,0,1,1,2,1,,,,,,,,,,,,,,,,,,,,,,,,,,,,,,,,,,,,,,,,,
109640,001,2022-11-21_24h54.16.559,Info_measure_main_exp,2022.2.2,Win32,59.66231132,,,,,,,,,,,,,,,,,,masks/mask_004.jpg,,,,,,,,,,,,,,,,,,,,,,,,,,,,,,,,,,,,,,,,,,,,,,,0,2,2,3,1,,,,,,,,,,,,,,,,,,,,,,,,,,,,,,,,,,,,,,,,,
109640,001,2022-11-21_24h54.16.559,Info_measure_main_exp,2022.2.2,Win32,59.66231132,,,,,,,,,,,,,,,,,,masks/mask_002.jpg,,,,,,,,,,,,,,,,,,,,,,,,,,,,,,,,,,,,,,,,,,,,,,,0,3,3,1,1,,,,,,,,,,,,,,,,,,,,,,,,,,,,,,,,,,,,,,,,,
109640,001,2022-11-21_24h54.16.559,Info_measure_main_exp,2022.2.2,Win32,59.66231132,,,,,,,,,,,,,,,,,,masks/mask_001.jpg,,,,,,,,,,,,,,,,,,,,,,,,,,,,,,,,,,,,,,,,,,,,,,,0,4,4,0,1,,,,,,,,,,,,,,,,,,,,,,,,,,,,,,,,,,,,,,,,,
109640,001,2022-11-21_24h54.16.559,Info_measure_main_exp,2022.2.2,Win32,59.66231132,,,,,,,,,,,,,,,,,,,,,,,,,,,,,,7,0.5999,1,,,,,,,,,,,,1,131,5,5,1,2214,present_patch/cong_131_5_a.jpg,absent_patch/patch0002214.jpg,,,,,,,,,,,,,,,,,,,0.059259259,0.107407407,1,0,0,response1disk,15,0.012037037,-0.002777778,1,0,0,center_square,0,14,14,4,1,,,,,,,,,,,,,,,,,,,,,,,
109640,001,2022-11-21_24h54.16.559,Info_measure_main_exp,2022.2.2,Win32,59.66231132,,,,,,,,,,,,,,,,,,masks/mask_002.jpg,,,,,,,,,,,,,,,,,,,,,,,,,,,,,,,,,,,,,,,,,,0,0,0,1,1,,,,,,,,,,,,,,,,,,,,,,,,,,,,,,,,,,,,,,,,,,,,,,
109640,001,2022-11-21_24h54.16.559,Info_measure_main_exp,2022.2.2,Win32,59.66231132,,,,,,,,,,,,,,,,,,masks/mask_001.jpg,,,,,,,,,,,,,,,,,,,,,,,,,,,,,,,,,,,,,,,,,,0,1,1,0,1,,,,,,,,,,,,,,,,,,,,,,,,,,,,,,,,,,,,,,,,,,,,,,
109640,001,2022-11-21_24h54.16.559,Info_measure_main_exp,2022.2.2,Win32,59.66231132,,,,,,,,,,,,,,,,,,masks/mask_005.jpg,,,,,,,,,,,,,,,,,,,,,,,,,,,,,,,,,,,,,,,,,,0,2,2,4,1,,,,,,,,,,,,,,,,,,,,,,,,,,,,,,,,,,,,,,,,,,,,,,
109640,001,2022-11-21_24h54.16.559,Info_measure_main_exp,2022.2.2,Win32,59.66231132,,,,,,,,,,,,,,,,,,masks/mask_004.jpg,,,,,,,,,,,,,,,,,,,,,,,,,,,,,,,,,,,,,,,,,,0,3,3,3,1,,,,,,,,,,,,,,,,,,,,,,,,,,,,,,,,,,,,,,,,,,,,,,
109640,001,2022-11-21_24h54.16.559,Info_measure_main_exp,2022.2.2,Win32,59.66231132,,,,,,,,,,,,,,,,,,masks/mask_003.jpg,,,,,,,,,,,,,,,,,,,,,,,,,,,,,,,,,,,,,,,,,,0,4,4,2,1,,,,,,,,,,,,,,,,,,,,,,,,,,,,,,,,,,,,,,,,,,,,,,
109640,001,2022-11-21_24h54.16.559,Info_measure_main_exp,2022.2.2,Win32,59.66231132,,,,,,,,,,,,,,,,,,masks/mask_001.jpg,,,,,,,,,,,,,,,,,,,,,,,,,,,,,,,,,,,,,,,,,,,,,,,0,0,0,0,1,,,,,,,,,,,,,,,,,,,,,,,,,,,,,,,,,,,,,,,,,
109640,001,2022-11-21_24h54.16.559,Info_measure_main_exp,2022.2.2,Win32,59.66231132,,,,,,,,,,,,,,,,,,masks/mask_002.jpg,,,,,,,,,,,,,,,,,,,,,,,,,,,,,,,,,,,,,,,,,,,,,,,0,1,1,1,1,,,,,,,,,,,,,,,,,,,,,,,,,,,,,,,,,,,,,,,,,
109640,001,2022-11-21_24h54.16.559,Info_measure_main_exp,2022.2.2,Win32,59.66231132,,,,,,,,,,,,,,,,,,masks/mask_004.jpg,,,,,,,,,,,,,,,,,,,,,,,,,,,,,,,,,,,,,,,,,,,,,,,0,2,2,3,1,,,,,,,,,,,,,,,,,,,,,,,,,,,,,,,,,,,,,,,,,
109640,001,2022-11-21_24h54.16.559,Info_measure_main_exp,2022.2.2,Win32,59.66231132,,,,,,,,,,,,,,,,,,masks/mask_005.jpg,,,,,,,,,,,,,,,,,,,,,,,,,,,,,,,,,,,,,,,,,,,,,,,0,3,3,4,1,,,,,,,,,,,,,,,,,,,,,,,,,,,,,,,,,,,,,,,,,
109640,001,2022-11-21_24h54.16.559,Info_measure_main_exp,2022.2.2,Win32,59.66231132,,,,,,,,,,,,,,,,,,masks/mask_003.jpg,,,,,,,,,,,,,,,,,,,,,,,,,,,,,,,,,,,,,,,,,,,,,,,0,4,4,2,1,,,,,,,,,,,,,,,,,,,,,,,,,,,,,,,,,,,,,,,,,
109640,001,2022-11-21_24h54.16.559,Info_measure_main_exp,2022.2.2,Win32,59.66231132,,,,,,,,,,,,,,,,,,,,,,,,,,,,,,2,2.0833,1,,,,,,,,,,,,0,131,5,5,1974,2142,absent_patch/patch0001974.jpg,absent_patch/patch0002142.jpg,,,,,,,,,,,,,,,,,,,-0.108333333,-0.071296296,1,0,0,response5disk,16,0.000925926,-0.003703704,1,0,0,center_square,0,15,15,38,1,,,,,,,,,,,,,,,,,,,,,,,
109640,001,2022-11-21_24h54.16.559,Info_measure_main_exp,2022.2.2,Win32,59.66231132,,,,,,,,,,,,,,,,,,masks/mask_004.jpg,,,,,,,,,,,,,,,,,,,,,,,,,,,,,,,,,,,,,,,,,,0,0,0,3,1,,,,,,,,,,,,,,,,,,,,,,,,,,,,,,,,,,,,,,,,,,,,,,
109640,001,2022-11-21_24h54.16.559,Info_measure_main_exp,2022.2.2,Win32,59.66231132,,,,,,,,,,,,,,,,,,masks/mask_002.jpg,,,,,,,,,,,,,,,,,,,,,,,,,,,,,,,,,,,,,,,,,,0,1,1,1,1,,,,,,,,,,,,,,,,,,,,,,,,,,,,,,,,,,,,,,,,,,,,,,
109640,001,2022-11-21_24h54.16.559,Info_measure_main_exp,2022.2.2,Win32,59.66231132,,,,,,,,,,,,,,,,,,masks/mask_001.jpg,,,,,,,,,,,,,,,,,,,,,,,,,,,,,,,,,,,,,,,,,,0,2,2,0,1,,,,,,,,,,,,,,,,,,,,,,,,,,,,,,,,,,,,,,,,,,,,,,
109640,001,2022-11-21_24h54.16.559,Info_measure_main_exp,2022.2.2,Win32,59.66231132,,,,,,,,,,,,,,,,,,masks/mask_005.jpg,,,,,,,,,,,,,,,,,,,,,,,,,,,,,,,,,,,,,,,,,,0,3,3,4,1,,,,,,,,,,,,,,,,,,,,,,,,,,,,,,,,,,,,,,,,,,,,,,
109640,001,2022-11-21_24h54.16.559,Info_measure_main_exp,2022.2.2,Win32,59.66231132,,,,,,,,,,,,,,,,,,masks/mask_003.jpg,,,,,,,,,,,,,,,,,,,,,,,,,,,,,,,,,,,,,,,,,,0,4,4,2,1,,,,,,,,,,,,,,,,,,,,,,,,,,,,,,,,,,,,,,,,,,,,,,
109640,001,2022-11-21_24h54.16.559,Info_measure_main_exp,2022.2.2,Win32,59.66231132,,,,,,,,,,,,,,,,,,masks/mask_004.jpg,,,,,,,,,,,,,,,,,,,,,,,,,,,,,,,,,,,,,,,,,,,,,,,0,0,0,3,1,,,,,,,,,,,,,,,,,,,,,,,,,,,,,,,,,,,,,,,,,
109640,001,2022-11-21_24h54.16.559,Info_measure_main_exp,2022.2.2,Win32,59.66231132,,,,,,,,,,,,,,,,,,masks/mask_001.jpg,,,,,,,,,,,,,,,,,,,,,,,,,,,,,,,,,,,,,,,,,,,,,,,0,1,1,0,1,,,,,,,,,,,,,,,,,,,,,,,,,,,,,,,,,,,,,,,,,
109640,001,2022-11-21_24h54.16.559,Info_measure_main_exp,2022.2.2,Win32,59.66231132,,,,,,,,,,,,,,,,,,masks/mask_002.jpg,,,,,,,,,,,,,,,,,,,,,,,,,,,,,,,,,,,,,,,,,,,,,,,0,2,2,1,1,,,,,,,,,,,,,,,,,,,,,,,,,,,,,,,,,,,,,,,,,
109640,001,2022-11-21_24h54.16.559,Info_measure_main_exp,2022.2.2,Win32,59.66231132,,,,,,,,,,,,,,,,,,masks/mask_005.jpg,,,,,,,,,,,,,,,,,,,,,,,,,,,,,,,,,,,,,,,,,,,,,,,0,3,3,4,1,,,,,,,,,,,,,,,,,,,,,,,,,,,,,,,,,,,,,,,,,
109640,001,2022-11-21_24h54.16.559,Info_measure_main_exp,2022.2.2,Win32,59.66231132,,,,,,,,,,,,,,,,,,masks/mask_003.jpg,,,,,,,,,,,,,,,,,,,,,,,,,,,,,,,,,,,,,,,,,,,,,,,0,4,4,2,1,,,,,,,,,,,,,,,,,,,,,,,,,,,,,,,,,,,,,,,,,
109640,001,2022-11-21_24h54.16.559,Info_measure_main_exp,2022.2.2,Win32,59.66231132,,,,,,,,,,,,,,,,,,,,,,,,,,,,,,0,0.6508,1,,,,,,,,,,,,1,131,5,5,1,1,present_patch/cong_131_5_a.jpg,present_patch/cong_131_5_a.jpg,,,,,,,,,,,,,,,,,,,-0.024074074,0.094444444,1,0,0,response7disk,17,-0.000925926,0.006481481,1,0,0,center_square,0,16,16,30,1,,,,,,,,,,,,,,,,,,,,,,,
109640,001,2022-11-21_24h54.16.559,Info_measure_main_exp,2022.2.2,Win32,59.66231132,,,,,,,,,,,,,,,,,,masks/mask_001.jpg,,,,,,,,,,,,,,,,,,,,,,,,,,,,,,,,,,,,,,,,,,0,0,0,0,1,,,,,,,,,,,,,,,,,,,,,,,,,,,,,,,,,,,,,,,,,,,,,,
109640,001,2022-11-21_24h54.16.559,Info_measure_main_exp,2022.2.2,Win32,59.66231132,,,,,,,,,,,,,,,,,,masks/mask_002.jpg,,,,,,,,,,,,,,,,,,,,,,,,,,,,,,,,,,,,,,,,,,0,1,1,1,1,,,,,,,,,,,,,,,,,,,,,,,,,,,,,,,,,,,,,,,,,,,,,,
109640,001,2022-11-21_24h54.16.559,Info_measure_main_exp,2022.2.2,Win32,59.66231132,,,,,,,,,,,,,,,,,,masks/mask_003.jpg,,,,,,,,,,,,,,,,,,,,,,,,,,,,,,,,,,,,,,,,,,0,2,2,2,1,,,,,,,,,,,,,,,,,,,,,,,,,,,,,,,,,,,,,,,,,,,,,,
109640,001,2022-11-21_24h54.16.559,Info_measure_main_exp,2022.2.2,Win32,59.66231132,,,,,,,,,,,,,,,,,,masks/mask_004.jpg,,,,,,,,,,,,,,,,,,,,,,,,,,,,,,,,,,,,,,,,,,0,3,3,3,1,,,,,,,,,,,,,,,,,,,,,,,,,,,,,,,,,,,,,,,,,,,,,,
109640,001,2022-11-21_24h54.16.559,Info_measure_main_exp,2022.2.2,Win32,59.66231132,,,,,,,,,,,,,,,,,,masks/mask_005.jpg,,,,,,,,,,,,,,,,,,,,,,,,,,,,,,,,,,,,,,,,,,0,4,4,4,1,,,,,,,,,,,,,,,,,,,,,,,,,,,,,,,,,,,,,,,,,,,,,,
109640,001,2022-11-21_24h54.16.559,Info_measure_main_exp,2022.2.2,Win32,59.66231132,,,,,,,,,,,,,,,,,,masks/mask_003.jpg,,,,,,,,,,,,,,,,,,,,,,,,,,,,,,,,,,,,,,,,,,,,,,,0,0,0,2,1,,,,,,,,,,,,,,,,,,,,,,,,,,,,,,,,,,,,,,,,,
109640,001,2022-11-21_24h54.16.559,Info_measure_main_exp,2022.2.2,Win32,59.66231132,,,,,,,,,,,,,,,,,,masks/mask_005.jpg,,,,,,,,,,,,,,,,,,,,,,,,,,,,,,,,,,,,,,,,,,,,,,,0,1,1,4,1,,,,,,,,,,,,,,,,,,,,,,,,,,,,,,,,,,,,,,,,,
109640,001,2022-11-21_24h54.16.559,Info_measure_main_exp,2022.2.2,Win32,59.66231132,,,,,,,,,,,,,,,,,,masks/mask_004.jpg,,,,,,,,,,,,,,,,,,,,,,,,,,,,,,,,,,,,,,,,,,,,,,,0,2,2,3,1,,,,,,,,,,,,,,,,,,,,,,,,,,,,,,,,,,,,,,,,,
109640,001,2022-11-21_24h54.16.559,Info_measure_main_exp,2022.2.2,Win32,59.66231132,,,,,,,,,,,,,,,,,,masks/mask_001.jpg,,,,,,,,,,,,,,,,,,,,,,,,,,,,,,,,,,,,,,,,,,,,,,,0,3,3,0,1,,,,,,,,,,,,,,,,,,,,,,,,,,,,,,,,,,,,,,,,,
109640,001,2022-11-21_24h54.16.559,Info_measure_main_exp,2022.2.2,Win32,59.66231132,,,,,,,,,,,,,,,,,,masks/mask_002.jpg,,,,,,,,,,,,,,,,,,,,,,,,,,,,,,,,,,,,,,,,,,,,,,,0,4,4,1,1,,,,,,,,,,,,,,,,,,,,,,,,,,,,,,,,,,,,,,,,,
109640,001,2022-11-21_24h54.16.559,Info_measure_main_exp,2022.2.2,Win32,59.66231132,,,,,,,,,,,,,,,,,,,,,,,,,,,,,,7,1.1666,1,,,,,,,,,,,,0,131,5,5,2166,2298,absent_patch/patch0002166.jpg,absent_patch/patch0002298.jpg,,,,,,,,,,,,,,,,,,,0.057407407,0.131481481,1,0,0,response1disk,18,-0.000925926,0.002777778,1,0,0,center_square,0,17,17,52,1,,,,,,,,,,,,,,,,,,,,,,,
109640,001,2022-11-21_24h54.16.559,Info_measure_main_exp,2022.2.2,Win32,59.66231132,,,,,,,,,,,,,,,,,,masks/mask_001.jpg,,,,,,,,,,,,,,,,,,,,,,,,,,,,,,,,,,,,,,,,,,0,0,0,0,1,,,,,,,,,,,,,,,,,,,,,,,,,,,,,,,,,,,,,,,,,,,,,,
109640,001,2022-11-21_24h54.16.559,Info_measure_main_exp,2022.2.2,Win32,59.66231132,,,,,,,,,,,,,,,,,,masks/mask_005.jpg,,,,,,,,,,,,,,,,,,,,,,,,,,,,,,,,,,,,,,,,,,0,1,1,4,1,,,,,,,,,,,,,,,,,,,,,,,,,,,,,,,,,,,,,,,,,,,,,,
109640,001,2022-11-21_24h54.16.559,Info_measure_main_exp,2022.2.2,Win32,59.66231132,,,,,,,,,,,,,,,,,,masks/mask_003.jpg,,,,,,,,,,,,,,,,,,,,,,,,,,,,,,,,,,,,,,,,,,0,2,2,2,1,,,,,,,,,,,,,,,,,,,,,,,,,,,,,,,,,,,,,,,,,,,,,,
109640,001,2022-11-21_24h54.16.559,Info_measure_main_exp,2022.2.2,Win32,59.66231132,,,,,,,,,,,,,,,,,,masks/mask_002.jpg,,,,,,,,,,,,,,,,,,,,,,,,,,,,,,,,,,,,,,,,,,0,3,3,1,1,,,,,,,,,,,,,,,,,,,,,,,,,,,,,,,,,,,,,,,,,,,,,,
109640,001,2022-11-21_24h54.16.559,Info_measure_main_exp,2022.2.2,Win32,59.66231132,,,,,,,,,,,,,,,,,,masks/mask_004.jpg,,,,,,,,,,,,,,,,,,,,,,,,,,,,,,,,,,,,,,,,,,0,4,4,3,1,,,,,,,,,,,,,,,,,,,,,,,,,,,,,,,,,,,,,,,,,,,,,,
109640,001,2022-11-21_24h54.16.559,Info_measure_main_exp,2022.2.2,Win32,59.66231132,,,,,,,,,,,,,,,,,,masks/mask_002.jpg,,,,,,,,,,,,,,,,,,,,,,,,,,,,,,,,,,,,,,,,,,,,,,,0,0,0,1,1,,,,,,,,,,,,,,,,,,,,,,,,,,,,,,,,,,,,,,,,,
109640,001,2022-11-21_24h54.16.559,Info_measure_main_exp,2022.2.2,Win32,59.66231132,,,,,,,,,,,,,,,,,,masks/mask_001.jpg,,,,,,,,,,,,,,,,,,,,,,,,,,,,,,,,,,,,,,,,,,,,,,,0,1,1,0,1,,,,,,,,,,,,,,,,,,,,,,,,,,,,,,,,,,,,,,,,,
109640,001,2022-11-21_24h54.16.559,Info_measure_main_exp,2022.2.2,Win32,59.66231132,,,,,,,,,,,,,,,,,,masks/mask_004.jpg,,,,,,,,,,,,,,,,,,,,,,,,,,,,,,,,,,,,,,,,,,,,,,,0,2,2,3,1,,,,,,,,,,,,,,,,,,,,,,,,,,,,,,,,,,,,,,,,,
109640,001,2022-11-21_24h54.16.559,Info_measure_main_exp,2022.2.2,Win32,59.66231132,,,,,,,,,,,,,,,,,,masks/mask_003.jpg,,,,,,,,,,,,,,,,,,,,,,,,,,,,,,,,,,,,,,,,,,,,,,,0,3,3,2,1,,,,,,,,,,,,,,,,,,,,,,,,,,,,,,,,,,,,,,,,,
109640,001,2022-11-21_24h54.16.559,Info_measure_main_exp,2022.2.2,Win32,59.66231132,,,,,,,,,,,,,,,,,,masks/mask_005.jpg,,,,,,,,,,,,,,,,,,,,,,,,,,,,,,,,,,,,,,,,,,,,,,,0,4,4,4,1,,,,,,,,,,,,,,,,,,,,,,,,,,,,,,,,,,,,,,,,,
109640,001,2022-11-21_24h54.16.559,Info_measure_main_exp,2022.2.2,Win32,59.66231132,,,,,,,,,,,,,,,,,,,,,,,,,,,,,,0,0.9165,1,,,,,,,,,,,,0,131,5,5,1974,1950,absent_patch/patch0001974.jpg,absent_patch/patch0001950.jpg,,,,,,,,,,,,,,,,,,,-0.036111111,0.091666667,1,0,0,response7disk,19,-0.003703704,-0.007407407,1,0,0,center_square,0,18,18,17,1,,,,,,,,,,,,,,,,,,,,,,,
109640,001,2022-11-21_24h54.16.559,Info_measure_main_exp,2022.2.2,Win32,59.66231132,,,,,,,,,,,,,,,,,,masks/mask_005.jpg,,,,,,,,,,,,,,,,,,,,,,,,,,,,,,,,,,,,,,,,,,0,0,0,4,1,,,,,,,,,,,,,,,,,,,,,,,,,,,,,,,,,,,,,,,,,,,,,,
109640,001,2022-11-21_24h54.16.559,Info_measure_main_exp,2022.2.2,Win32,59.66231132,,,,,,,,,,,,,,,,,,masks/mask_002.jpg,,,,,,,,,,,,,,,,,,,,,,,,,,,,,,,,,,,,,,,,,,0,1,1,1,1,,,,,,,,,,,,,,,,,,,,,,,,,,,,,,,,,,,,,,,,,,,,,,
109640,001,2022-11-21_24h54.16.559,Info_measure_main_exp,2022.2.2,Win32,59.66231132,,,,,,,,,,,,,,,,,,masks/mask_003.jpg,,,,,,,,,,,,,,,,,,,,,,,,,,,,,,,,,,,,,,,,,,0,2,2,2,1,,,,,,,,,,,,,,,,,,,,,,,,,,,,,,,,,,,,,,,,,,,,,,
109640,001,2022-11-21_24h54.16.559,Info_measure_main_exp,2022.2.2,Win32,59.66231132,,,,,,,,,,,,,,,,,,masks/mask_004.jpg,,,,,,,,,,,,,,,,,,,,,,,,,,,,,,,,,,,,,,,,,,0,3,3,3,1,,,,,,,,,,,,,,,,,,,,,,,,,,,,,,,,,,,,,,,,,,,,,,
109640,001,2022-11-21_24h54.16.559,Info_measure_main_exp,2022.2.2,Win32,59.66231132,,,,,,,,,,,,,,,,,,masks/mask_001.jpg,,,,,,,,,,,,,,,,,,,,,,,,,,,,,,,,,,,,,,,,,,0,4,4,0,1,,,,,,,,,,,,,,,,,,,,,,,,,,,,,,,,,,,,,,,,,,,,,,
109640,001,2022-11-21_24h54.16.559,Info_measure_main_exp,2022.2.2,Win32,59.66231132,,,,,,,,,,,,,,,,,,masks/mask_002.jpg,,,,,,,,,,,,,,,,,,,,,,,,,,,,,,,,,,,,,,,,,,,,,,,0,0,0,1,1,,,,,,,,,,,,,,,,,,,,,,,,,,,,,,,,,,,,,,,,,
109640,001,2022-11-21_24h54.16.559,Info_measure_main_exp,2022.2.2,Win32,59.66231132,,,,,,,,,,,,,,,,,,masks/mask_004.jpg,,,,,,,,,,,,,,,,,,,,,,,,,,,,,,,,,,,,,,,,,,,,,,,0,1,1,3,1,,,,,,,,,,,,,,,,,,,,,,,,,,,,,,,,,,,,,,,,,
109640,001,2022-11-21_24h54.16.559,Info_measure_main_exp,2022.2.2,Win32,59.66231132,,,,,,,,,,,,,,,,,,masks/mask_003.jpg,,,,,,,,,,,,,,,,,,,,,,,,,,,,,,,,,,,,,,,,,,,,,,,0,2,2,2,1,,,,,,,,,,,,,,,,,,,,,,,,,,,,,,,,,,,,,,,,,
109640,001,2022-11-21_24h54.16.559,Info_measure_main_exp,2022.2.2,Win32,59.66231132,,,,,,,,,,,,,,,,,,masks/mask_005.jpg,,,,,,,,,,,,,,,,,,,,,,,,,,,,,,,,,,,,,,,,,,,,,,,0,3,3,4,1,,,,,,,,,,,,,,,,,,,,,,,,,,,,,,,,,,,,,,,,,
109640,001,2022-11-21_24h54.16.559,Info_measure_main_exp,2022.2.2,Win32,59.66231132,,,,,,,,,,,,,,,,,,masks/mask_001.jpg,,,,,,,,,,,,,,,,,,,,,,,,,,,,,,,,,,,,,,,,,,,,,,,0,4,4,0,1,,,,,,,,,,,,,,,,,,,,,,,,,,,,,,,,,,,,,,,,,
109640,001,2022-11-21_24h54.16.559,Info_measure_main_exp,2022.2.2,Win32,59.66231132,,,,,,,,,,,,,,,,,,,,,,,,,,,,,,7,1,1,,,,,,,,,,,,0,131,5,5,2214,2142,absent_patch/patch0002214.jpg,absent_patch/patch0002142.jpg,,,,,,,,,,,,,,,,,,,0.059259259,0.097222222,1,0,0,response1disk,20,0.001851852,-0.012962963,1,0,0,center_square,0,19,19,102,1,,,,,,,,,,,,,,,,,,,,,,,
109640,001,2022-11-21_24h54.16.559,Info_measure_main_exp,2022.2.2,Win32,59.66231132,,,,,,,,,,,,,,,,,,masks/mask_001.jpg,,,,,,,,,,,,,,,,,,,,,,,,,,,,,,,,,,,,,,,,,,0,0,0,0,1,,,,,,,,,,,,,,,,,,,,,,,,,,,,,,,,,,,,,,,,,,,,,,
109640,001,2022-11-21_24h54.16.559,Info_measure_main_exp,2022.2.2,Win32,59.66231132,,,,,,,,,,,,,,,,,,masks/mask_005.jpg,,,,,,,,,,,,,,,,,,,,,,,,,,,,,,,,,,,,,,,,,,0,1,1,4,1,,,,,,,,,,,,,,,,,,,,,,,,,,,,,,,,,,,,,,,,,,,,,,
109640,001,2022-11-21_24h54.16.559,Info_measure_main_exp,2022.2.2,Win32,59.66231132,,,,,,,,,,,,,,,,,,masks/mask_004.jpg,,,,,,,,,,,,,,,,,,,,,,,,,,,,,,,,,,,,,,,,,,0,2,2,3,1,,,,,,,,,,,,,,,,,,,,,,,,,,,,,,,,,,,,,,,,,,,,,,
109640,001,2022-11-21_24h54.16.559,Info_measure_main_exp,2022.2.2,Win32,59.66231132,,,,,,,,,,,,,,,,,,masks/mask_002.jpg,,,,,,,,,,,,,,,,,,,,,,,,,,,,,,,,,,,,,,,,,,0,3,3,1,1,,,,,,,,,,,,,,,,,,,,,,,,,,,,,,,,,,,,,,,,,,,,,,
109640,001,2022-11-21_24h54.16.559,Info_measure_main_exp,2022.2.2,Win32,59.66231132,,,,,,,,,,,,,,,,,,masks/mask_003.jpg,,,,,,,,,,,,,,,,,,,,,,,,,,,,,,,,,,,,,,,,,,0,4,4,2,1,,,,,,,,,,,,,,,,,,,,,,,,,,,,,,,,,,,,,,,,,,,,,,
109640,001,2022-11-21_24h54.16.559,Info_measure_main_exp,2022.2.2,Win32,59.66231132,,,,,,,,,,,,,,,,,,masks/mask_001.jpg,,,,,,,,,,,,,,,,,,,,,,,,,,,,,,,,,,,,,,,,,,,,,,,0,0,0,0,1,,,,,,,,,,,,,,,,,,,,,,,,,,,,,,,,,,,,,,,,,
109640,001,2022-11-21_24h54.16.559,Info_measure_main_exp,2022.2.2,Win32,59.66231132,,,,,,,,,,,,,,,,,,masks/mask_004.jpg,,,,,,,,,,,,,,,,,,,,,,,,,,,,,,,,,,,,,,,,,,,,,,,0,1,1,3,1,,,,,,,,,,,,,,,,,,,,,,,,,,,,,,,,,,,,,,,,,
109640,001,2022-11-21_24h54.16.559,Info_measure_main_exp,2022.2.2,Win32,59.66231132,,,,,,,,,,,,,,,,,,masks/mask_005.jpg,,,,,,,,,,,,,,,,,,,,,,,,,,,,,,,,,,,,,,,,,,,,,,,0,2,2,4,1,,,,,,,,,,,,,,,,,,,,,,,,,,,,,,,,,,,,,,,,,
109640,001,2022-11-21_24h54.16.559,Info_measure_main_exp,2022.2.2,Win32,59.66231132,,,,,,,,,,,,,,,,,,masks/mask_002.jpg,,,,,,,,,,,,,,,,,,,,,,,,,,,,,,,,,,,,,,,,,,,,,,,0,3,3,1,1,,,,,,,,,,,,,,,,,,,,,,,,,,,,,,,,,,,,,,,,,
109640,001,2022-11-21_24h54.16.559,Info_measure_main_exp,2022.2.2,Win32,59.66231132,,,,,,,,,,,,,,,,,,masks/mask_003.jpg,,,,,,,,,,,,,,,,,,,,,,,,,,,,,,,,,,,,,,,,,,,,,,,0,4,4,2,1,,,,,,,,,,,,,,,,,,,,,,,,,,,,,,,,,,,,,,,,,
109640,001,2022-11-21_24h54.16.559,Info_measure_main_exp,2022.2.2,Win32,59.66231132,,,,,,,,,,,,,,,,,,,,,,,,,,,,,,7,0.8333,1,,,,,,,,,,,,0,131,5,5,2142,2190,absent_patch/patch0002142.jpg,absent_patch/patch0002190.jpg,,,,,,,,,,,,,,,,,,,0.078703704,0.101851852,1,0,0,response1disk,21,0.008333333,0.000925926,1,0,0,center_square,0,20,20,70,1,,,,,,,,,,,,,,,,,,,,,,,
109640,001,2022-11-21_24h54.16.559,Info_measure_main_exp,2022.2.2,Win32,59.66231132,,,,,,,,,,,,,,,,,,masks/mask_002.jpg,,,,,,,,,,,,,,,,,,,,,,,,,,,,,,,,,,,,,,,,,,0,0,0,1,1,,,,,,,,,,,,,,,,,,,,,,,,,,,,,,,,,,,,,,,,,,,,,,
109640,001,2022-11-21_24h54.16.559,Info_measure_main_exp,2022.2.2,Win32,59.66231132,,,,,,,,,,,,,,,,,,masks/mask_001.jpg,,,,,,,,,,,,,,,,,,,,,,,,,,,,,,,,,,,,,,,,,,0,1,1,0,1,,,,,,,,,,,,,,,,,,,,,,,,,,,,,,,,,,,,,,,,,,,,,,
109640,001,2022-11-21_24h54.16.559,Info_measure_main_exp,2022.2.2,Win32,59.66231132,,,,,,,,,,,,,,,,,,masks/mask_003.jpg,,,,,,,,,,,,,,,,,,,,,,,,,,,,,,,,,,,,,,,,,,0,2,2,2,1,,,,,,,,,,,,,,,,,,,,,,,,,,,,,,,,,,,,,,,,,,,,,,
109640,001,2022-11-21_24h54.16.559,Info_measure_main_exp,2022.2.2,Win32,59.66231132,,,,,,,,,,,,,,,,,,masks/mask_004.jpg,,,,,,,,,,,,,,,,,,,,,,,,,,,,,,,,,,,,,,,,,,0,3,3,3,1,,,,,,,,,,,,,,,,,,,,,,,,,,,,,,,,,,,,,,,,,,,,,,
109640,001,2022-11-21_24h54.16.559,Info_measure_main_exp,2022.2.2,Win32,59.66231132,,,,,,,,,,,,,,,,,,masks/mask_005.jpg,,,,,,,,,,,,,,,,,,,,,,,,,,,,,,,,,,,,,,,,,,0,4,4,4,1,,,,,,,,,,,,,,,,,,,,,,,,,,,,,,,,,,,,,,,,,,,,,,
109640,001,2022-11-21_24h54.16.559,Info_measure_main_exp,2022.2.2,Win32,59.66231132,,,,,,,,,,,,,,,,,,masks/mask_005.jpg,,,,,,,,,,,,,,,,,,,,,,,,,,,,,,,,,,,,,,,,,,,,,,,0,0,0,4,1,,,,,,,,,,,,,,,,,,,,,,,,,,,,,,,,,,,,,,,,,
109640,001,2022-11-21_24h54.16.559,Info_measure_main_exp,2022.2.2,Win32,59.66231132,,,,,,,,,,,,,,,,,,masks/mask_002.jpg,,,,,,,,,,,,,,,,,,,,,,,,,,,,,,,,,,,,,,,,,,,,,,,0,1,1,1,1,,,,,,,,,,,,,,,,,,,,,,,,,,,,,,,,,,,,,,,,,
109640,001,2022-11-21_24h54.16.559,Info_measure_main_exp,2022.2.2,Win32,59.66231132,,,,,,,,,,,,,,,,,,masks/mask_003.jpg,,,,,,,,,,,,,,,,,,,,,,,,,,,,,,,,,,,,,,,,,,,,,,,0,2,2,2,1,,,,,,,,,,,,,,,,,,,,,,,,,,,,,,,,,,,,,,,,,
109640,001,2022-11-21_24h54.16.559,Info_measure_main_exp,2022.2.2,Win32,59.66231132,,,,,,,,,,,,,,,,,,masks/mask_001.jpg,,,,,,,,,,,,,,,,,,,,,,,,,,,,,,,,,,,,,,,,,,,,,,,0,3,3,0,1,,,,,,,,,,,,,,,,,,,,,,,,,,,,,,,,,,,,,,,,,
109640,001,2022-11-21_24h54.16.559,Info_measure_main_exp,2022.2.2,Win32,59.66231132,,,,,,,,,,,,,,,,,,masks/mask_004.jpg,,,,,,,,,,,,,,,,,,,,,,,,,,,,,,,,,,,,,,,,,,,,,,,0,4,4,3,1,,,,,,,,,,,,,,,,,,,,,,,,,,,,,,,,,,,,,,,,,
109640,001,2022-11-21_24h54.16.559,Info_measure_main_exp,2022.2.2,Win32,59.66231132,,,,,,,,,,,,,,,,,,,,,,,,,,,,,,7,0.6665,1,,,,,,,,,,,,0,131,5,5,1974,2238,absent_patch/patch0001974.jpg,absent_patch/patch0002238.jpg,,,,,,,,,,,,,,,,,,,0.039814815,0.109259259,1,0,0,response1disk,22,0.008333333,0.007407407,1,0,0,center_square,0,21,21,95,1,,,,,,,,,,,,,,,,,,,,,,,
109640,001,2022-11-21_24h54.16.559,Info_measure_main_exp,2022.2.2,Win32,59.66231132,,,,,,,,,,,,,,,,,,masks/mask_005.jpg,,,,,,,,,,,,,,,,,,,,,,,,,,,,,,,,,,,,,,,,,,0,0,0,4,1,,,,,,,,,,,,,,,,,,,,,,,,,,,,,,,,,,,,,,,,,,,,,,
109640,001,2022-11-21_24h54.16.559,Info_measure_main_exp,2022.2.2,Win32,59.66231132,,,,,,,,,,,,,,,,,,masks/mask_004.jpg,,,,,,,,,,,,,,,,,,,,,,,,,,,,,,,,,,,,,,,,,,0,1,1,3,1,,,,,,,,,,,,,,,,,,,,,,,,,,,,,,,,,,,,,,,,,,,,,,
109640,001,2022-11-21_24h54.16.559,Info_measure_main_exp,2022.2.2,Win32,59.66231132,,,,,,,,,,,,,,,,,,masks/mask_002.jpg,,,,,,,,,,,,,,,,,,,,,,,,,,,,,,,,,,,,,,,,,,0,2,2,1,1,,,,,,,,,,,,,,,,,,,,,,,,,,,,,,,,,,,,,,,,,,,,,,
109640,001,2022-11-21_24h54.16.559,Info_measure_main_exp,2022.2.2,Win32,59.66231132,,,,,,,,,,,,,,,,,,masks/mask_003.jpg,,,,,,,,,,,,,,,,,,,,,,,,,,,,,,,,,,,,,,,,,,0,3,3,2,1,,,,,,,,,,,,,,,,,,,,,,,,,,,,,,,,,,,,,,,,,,,,,,
109640,001,2022-11-21_24h54.16.559,Info_measure_main_exp,2022.2.2,Win32,59.66231132,,,,,,,,,,,,,,,,,,masks/mask_001.jpg,,,,,,,,,,,,,,,,,,,,,,,,,,,,,,,,,,,,,,,,,,0,4,4,0,1,,,,,,,,,,,,,,,,,,,,,,,,,,,,,,,,,,,,,,,,,,,,,,
109640,001,2022-11-21_24h54.16.559,Info_measure_main_exp,2022.2.2,Win32,59.66231132,,,,,,,,,,,,,,,,,,masks/mask_003.jpg,,,,,,,,,,,,,,,,,,,,,,,,,,,,,,,,,,,,,,,,,,,,,,,0,0,0,2,1,,,,,,,,,,,,,,,,,,,,,,,,,,,,,,,,,,,,,,,,,
109640,001,2022-11-21_24h54.16.559,Info_measure_main_exp,2022.2.2,Win32,59.66231132,,,,,,,,,,,,,,,,,,masks/mask_005.jpg,,,,,,,,,,,,,,,,,,,,,,,,,,,,,,,,,,,,,,,,,,,,,,,0,1,1,4,1,,,,,,,,,,,,,,,,,,,,,,,,,,,,,,,,,,,,,,,,,
109640,001,2022-11-21_24h54.16.559,Info_measure_main_exp,2022.2.2,Win32,59.66231132,,,,,,,,,,,,,,,,,,masks/mask_004.jpg,,,,,,,,,,,,,,,,,,,,,,,,,,,,,,,,,,,,,,,,,,,,,,,0,2,2,3,1,,,,,,,,,,,,,,,,,,,,,,,,,,,,,,,,,,,,,,,,,
109640,001,2022-11-21_24h54.16.559,Info_measure_main_exp,2022.2.2,Win32,59.66231132,,,,,,,,,,,,,,,,,,masks/mask_002.jpg,,,,,,,,,,,,,,,,,,,,,,,,,,,,,,,,,,,,,,,,,,,,,,,0,3,3,1,1,,,,,,,,,,,,,,,,,,,,,,,,,,,,,,,,,,,,,,,,,
109640,001,2022-11-21_24h54.16.559,Info_measure_main_exp,2022.2.2,Win32,59.66231132,,,,,,,,,,,,,,,,,,masks/mask_001.jpg,,,,,,,,,,,,,,,,,,,,,,,,,,,,,,,,,,,,,,,,,,,,,,,0,4,4,0,1,,,,,,,,,,,,,,,,,,,,,,,,,,,,,,,,,,,,,,,,,
109640,001,2022-11-21_24h54.16.559,Info_measure_main_exp,2022.2.2,Win32,59.66231132,,,,,,,,,,,,,,,,,,,,,,,,,,,,,,4,1.6166,1,,,,,,,,,,,,0,131,5,5,2082,1974,absent_patch/patch0002082.jpg,absent_patch/patch0001974.jpg,,,,,,,,,,,,,,,,,,,0.039814815,-0.075,1,0,0,response3disk,23,-0.002777778,-0.005555556,1,0,0,center_square,0,22,22,26,1,,,,,,,,,,,,,,,,,,,,,,,
109640,001,2022-11-21_24h54.16.559,Info_measure_main_exp,2022.2.2,Win32,59.66231132,,,,,,,,,,,,,,,,,,masks/mask_002.jpg,,,,,,,,,,,,,,,,,,,,,,,,,,,,,,,,,,,,,,,,,,0,0,0,1,1,,,,,,,,,,,,,,,,,,,,,,,,,,,,,,,,,,,,,,,,,,,,,,
109640,001,2022-11-21_24h54.16.559,Info_measure_main_exp,2022.2.2,Win32,59.66231132,,,,,,,,,,,,,,,,,,masks/mask_001.jpg,,,,,,,,,,,,,,,,,,,,,,,,,,,,,,,,,,,,,,,,,,0,1,1,0,1,,,,,,,,,,,,,,,,,,,,,,,,,,,,,,,,,,,,,,,,,,,,,,
109640,001,2022-11-21_24h54.16.559,Info_measure_main_exp,2022.2.2,Win32,59.66231132,,,,,,,,,,,,,,,,,,masks/mask_005.jpg,,,,,,,,,,,,,,,,,,,,,,,,,,,,,,,,,,,,,,,,,,0,2,2,4,1,,,,,,,,,,,,,,,,,,,,,,,,,,,,,,,,,,,,,,,,,,,,,,
109640,001,2022-11-21_24h54.16.559,Info_measure_main_exp,2022.2.2,Win32,59.66231132,,,,,,,,,,,,,,,,,,masks/mask_004.jpg,,,,,,,,,,,,,,,,,,,,,,,,,,,,,,,,,,,,,,,,,,0,3,3,3,1,,,,,,,,,,,,,,,,,,,,,,,,,,,,,,,,,,,,,,,,,,,,,,
109640,001,2022-11-21_24h54.16.559,Info_measure_main_exp,2022.2.2,Win32,59.66231132,,,,,,,,,,,,,,,,,,masks/mask_003.jpg,,,,,,,,,,,,,,,,,,,,,,,,,,,,,,,,,,,,,,,,,,0,4,4,2,1,,,,,,,,,,,,,,,,,,,,,,,,,,,,,,,,,,,,,,,,,,,,,,
109640,001,2022-11-21_24h54.16.559,Info_measure_main_exp,2022.2.2,Win32,59.66231132,,,,,,,,,,,,,,,,,,masks/mask_001.jpg,,,,,,,,,,,,,,,,,,,,,,,,,,,,,,,,,,,,,,,,,,,,,,,0,0,0,0,1,,,,,,,,,,,,,,,,,,,,,,,,,,,,,,,,,,,,,,,,,
109640,001,2022-11-21_24h54.16.559,Info_measure_main_exp,2022.2.2,Win32,59.66231132,,,,,,,,,,,,,,,,,,masks/mask_002.jpg,,,,,,,,,,,,,,,,,,,,,,,,,,,,,,,,,,,,,,,,,,,,,,,0,1,1,1,1,,,,,,,,,,,,,,,,,,,,,,,,,,,,,,,,,,,,,,,,,
109640,001,2022-11-21_24h54.16.559,Info_measure_main_exp,2022.2.2,Win32,59.66231132,,,,,,,,,,,,,,,,,,masks/mask_004.jpg,,,,,,,,,,,,,,,,,,,,,,,,,,,,,,,,,,,,,,,,,,,,,,,0,2,2,3,1,,,,,,,,,,,,,,,,,,,,,,,,,,,,,,,,,,,,,,,,,
109640,001,2022-11-21_24h54.16.559,Info_measure_main_exp,2022.2.2,Win32,59.66231132,,,,,,,,,,,,,,,,,,masks/mask_003.jpg,,,,,,,,,,,,,,,,,,,,,,,,,,,,,,,,,,,,,,,,,,,,,,,0,3,3,2,1,,,,,,,,,,,,,,,,,,,,,,,,,,,,,,,,,,,,,,,,,
109640,001,2022-11-21_24h54.16.559,Info_measure_main_exp,2022.2.2,Win32,59.66231132,,,,,,,,,,,,,,,,,,masks/mask_005.jpg,,,,,,,,,,,,,,,,,,,,,,,,,,,,,,,,,,,,,,,,,,,,,,,0,4,4,4,1,,,,,,,,,,,,,,,,,,,,,,,,,,,,,,,,,,,,,,,,,
109640,001,2022-11-21_24h54.16.559,Info_measure_main_exp,2022.2.2,Win32,59.66231132,,,,,,,,,,,,,,,,,,,,,,,,,,,,,,7,0.5831,1,,,,,,,,,,,,0,131,5,5,1950,2166,absent_patch/patch0001950.jpg,absent_patch/patch0002166.jpg,,,,,,,,,,,,,,,,,,,0.025925926,0.076851852,1,0,0,response1disk,24,0.006481481,-0.005555556,1,0,0,center_square,0,23,23,0,1,,,,,,,,,,,,,,,,,,,,,,,
109640,001,2022-11-21_24h54.16.559,Info_measure_main_exp,2022.2.2,Win32,59.66231132,,,,,,,,,,,,,,,,,,masks/mask_003.jpg,,,,,,,,,,,,,,,,,,,,,,,,,,,,,,,,,,,,,,,,,,0,0,0,2,1,,,,,,,,,,,,,,,,,,,,,,,,,,,,,,,,,,,,,,,,,,,,,,
109640,001,2022-11-21_24h54.16.559,Info_measure_main_exp,2022.2.2,Win32,59.66231132,,,,,,,,,,,,,,,,,,masks/mask_001.jpg,,,,,,,,,,,,,,,,,,,,,,,,,,,,,,,,,,,,,,,,,,0,1,1,0,1,,,,,,,,,,,,,,,,,,,,,,,,,,,,,,,,,,,,,,,,,,,,,,
109640,001,2022-11-21_24h54.16.559,Info_measure_main_exp,2022.2.2,Win32,59.66231132,,,,,,,,,,,,,,,,,,masks/mask_002.jpg,,,,,,,,,,,,,,,,,,,,,,,,,,,,,,,,,,,,,,,,,,0,2,2,1,1,,,,,,,,,,,,,,,,,,,,,,,,,,,,,,,,,,,,,,,,,,,,,,
109640,001,2022-11-21_24h54.16.559,Info_measure_main_exp,2022.2.2,Win32,59.66231132,,,,,,,,,,,,,,,,,,masks/mask_005.jpg,,,,,,,,,,,,,,,,,,,,,,,,,,,,,,,,,,,,,,,,,,0,3,3,4,1,,,,,,,,,,,,,,,,,,,,,,,,,,,,,,,,,,,,,,,,,,,,,,
109640,001,2022-11-21_24h54.16.559,Info_measure_main_exp,2022.2.2,Win32,59.66231132,,,,,,,,,,,,,,,,,,masks/mask_004.jpg,,,,,,,,,,,,,,,,,,,,,,,,,,,,,,,,,,,,,,,,,,0,4,4,3,1,,,,,,,,,,,,,,,,,,,,,,,,,,,,,,,,,,,,,,,,,,,,,,
109640,001,2022-11-21_24h54.16.559,Info_measure_main_exp,2022.2.2,Win32,59.66231132,,,,,,,,,,,,,,,,,,masks/mask_005.jpg,,,,,,,,,,,,,,,,,,,,,,,,,,,,,,,,,,,,,,,,,,,,,,,0,0,0,4,1,,,,,,,,,,,,,,,,,,,,,,,,,,,,,,,,,,,,,,,,,
109640,001,2022-11-21_24h54.16.559,Info_measure_main_exp,2022.2.2,Win32,59.66231132,,,,,,,,,,,,,,,,,,masks/mask_002.jpg,,,,,,,,,,,,,,,,,,,,,,,,,,,,,,,,,,,,,,,,,,,,,,,0,1,1,1,1,,,,,,,,,,,,,,,,,,,,,,,,,,,,,,,,,,,,,,,,,
109640,001,2022-11-21_24h54.16.559,Info_measure_main_exp,2022.2.2,Win32,59.66231132,,,,,,,,,,,,,,,,,,masks/mask_004.jpg,,,,,,,,,,,,,,,,,,,,,,,,,,,,,,,,,,,,,,,,,,,,,,,0,2,2,3,1,,,,,,,,,,,,,,,,,,,,,,,,,,,,,,,,,,,,,,,,,
109640,001,2022-11-21_24h54.16.559,Info_measure_main_exp,2022.2.2,Win32,59.66231132,,,,,,,,,,,,,,,,,,masks/mask_001.jpg,,,,,,,,,,,,,,,,,,,,,,,,,,,,,,,,,,,,,,,,,,,,,,,0,3,3,0,1,,,,,,,,,,,,,,,,,,,,,,,,,,,,,,,,,,,,,,,,,
109640,001,2022-11-21_24h54.16.559,Info_measure_main_exp,2022.2.2,Win32,59.66231132,,,,,,,,,,,,,,,,,,masks/mask_003.jpg,,,,,,,,,,,,,,,,,,,,,,,,,,,,,,,,,,,,,,,,,,,,,,,0,4,4,2,1,,,,,,,,,,,,,,,,,,,,,,,,,,,,,,,,,,,,,,,,,
109640,001,2022-11-21_24h54.16.559,Info_measure_main_exp,2022.2.2,Win32,59.66231132,,,,,,,,,,,,,,,,,,,,,,,,,,,,,,0,0.5002,1,,,,,,,,,,,,0,131,5,5,2214,2214,absent_patch/patch0002214.jpg,absent_patch/patch0002214.jpg,,,,,,,,,,,,,,,,,,,-0.042592593,0.07962963,1,0,0,response7disk,25,-0.007407407,0.002777778,1,0,0,center_square,0,24,24,115,1,,,,,,,,,,,,,,,,,,,,,,,
109640,001,2022-11-21_24h54.16.559,Info_measure_main_exp,2022.2.2,Win32,59.66231132,,,,,,,,,,,,,,,,,,masks/mask_002.jpg,,,,,,,,,,,,,,,,,,,,,,,,,,,,,,,,,,,,,,,,,,0,0,0,1,1,,,,,,,,,,,,,,,,,,,,,,,,,,,,,,,,,,,,,,,,,,,,,,
109640,001,2022-11-21_24h54.16.559,Info_measure_main_exp,2022.2.2,Win32,59.66231132,,,,,,,,,,,,,,,,,,masks/mask_004.jpg,,,,,,,,,,,,,,,,,,,,,,,,,,,,,,,,,,,,,,,,,,0,1,1,3,1,,,,,,,,,,,,,,,,,,,,,,,,,,,,,,,,,,,,,,,,,,,,,,
109640,001,2022-11-21_24h54.16.559,Info_measure_main_exp,2022.2.2,Win32,59.66231132,,,,,,,,,,,,,,,,,,masks/mask_005.jpg,,,,,,,,,,,,,,,,,,,,,,,,,,,,,,,,,,,,,,,,,,0,2,2,4,1,,,,,,,,,,,,,,,,,,,,,,,,,,,,,,,,,,,,,,,,,,,,,,
109640,001,2022-11-21_24h54.16.559,Info_measure_main_exp,2022.2.2,Win32,59.66231132,,,,,,,,,,,,,,,,,,masks/mask_001.jpg,,,,,,,,,,,,,,,,,,,,,,,,,,,,,,,,,,,,,,,,,,0,3,3,0,1,,,,,,,,,,,,,,,,,,,,,,,,,,,,,,,,,,,,,,,,,,,,,,
109640,001,2022-11-21_24h54.16.559,Info_measure_main_exp,2022.2.2,Win32,59.66231132,,,,,,,,,,,,,,,,,,masks/mask_003.jpg,,,,,,,,,,,,,,,,,,,,,,,,,,,,,,,,,,,,,,,,,,0,4,4,2,1,,,,,,,,,,,,,,,,,,,,,,,,,,,,,,,,,,,,,,,,,,,,,,
109640,001,2022-11-21_24h54.16.559,Info_measure_main_exp,2022.2.2,Win32,59.66231132,,,,,,,,,,,,,,,,,,masks/mask_003.jpg,,,,,,,,,,,,,,,,,,,,,,,,,,,,,,,,,,,,,,,,,,,,,,,0,0,0,2,1,,,,,,,,,,,,,,,,,,,,,,,,,,,,,,,,,,,,,,,,,
109640,001,2022-11-21_24h54.16.559,Info_measure_main_exp,2022.2.2,Win32,59.66231132,,,,,,,,,,,,,,,,,,masks/mask_005.jpg,,,,,,,,,,,,,,,,,,,,,,,,,,,,,,,,,,,,,,,,,,,,,,,0,1,1,4,1,,,,,,,,,,,,,,,,,,,,,,,,,,,,,,,,,,,,,,,,,
109640,001,2022-11-21_24h54.16.559,Info_measure_main_exp,2022.2.2,Win32,59.66231132,,,,,,,,,,,,,,,,,,masks/mask_001.jpg,,,,,,,,,,,,,,,,,,,,,,,,,,,,,,,,,,,,,,,,,,,,,,,0,2,2,0,1,,,,,,,,,,,,,,,,,,,,,,,,,,,,,,,,,,,,,,,,,
109640,001,2022-11-21_24h54.16.559,Info_measure_main_exp,2022.2.2,Win32,59.66231132,,,,,,,,,,,,,,,,,,masks/mask_004.jpg,,,,,,,,,,,,,,,,,,,,,,,,,,,,,,,,,,,,,,,,,,,,,,,0,3,3,3,1,,,,,,,,,,,,,,,,,,,,,,,,,,,,,,,,,,,,,,,,,
109640,001,2022-11-21_24h54.16.559,Info_measure_main_exp,2022.2.2,Win32,59.66231132,,,,,,,,,,,,,,,,,,masks/mask_002.jpg,,,,,,,,,,,,,,,,,,,,,,,,,,,,,,,,,,,,,,,,,,,,,,,0,4,4,1,1,,,,,,,,,,,,,,,,,,,,,,,,,,,,,,,,,,,,,,,,,
109640,001,2022-11-21_24h54.16.559,Info_measure_main_exp,2022.2.2,Win32,59.66231132,,,,,,,,,,,,,,,,,,,,,,,,,,,,,,2,1.5831,1,,,,,,,,,,,,0,131,5,5,1986,2274,absent_patch/patch0001986.jpg,absent_patch/patch0002274.jpg,,,,,,,,,,,,,,,,,,,-0.1,-0.038888889,1,0,0,response5disk,26,-0.011111111,0.002777778,1,0,0,center_square,0,25,25,7,1,,,,,,,,,,,,,,,,,,,,,,,
109640,001,2022-11-21_24h54.16.559,Info_measure_main_exp,2022.2.2,Win32,59.66231132,,,,,,,,,,,,,,,,,,masks/mask_002.jpg,,,,,,,,,,,,,,,,,,,,,,,,,,,,,,,,,,,,,,,,,,0,0,0,1,1,,,,,,,,,,,,,,,,,,,,,,,,,,,,,,,,,,,,,,,,,,,,,,
109640,001,2022-11-21_24h54.16.559,Info_measure_main_exp,2022.2.2,Win32,59.66231132,,,,,,,,,,,,,,,,,,masks/mask_001.jpg,,,,,,,,,,,,,,,,,,,,,,,,,,,,,,,,,,,,,,,,,,0,1,1,0,1,,,,,,,,,,,,,,,,,,,,,,,,,,,,,,,,,,,,,,,,,,,,,,
109640,001,2022-11-21_24h54.16.559,Info_measure_main_exp,2022.2.2,Win32,59.66231132,,,,,,,,,,,,,,,,,,masks/mask_004.jpg,,,,,,,,,,,,,,,,,,,,,,,,,,,,,,,,,,,,,,,,,,0,2,2,3,1,,,,,,,,,,,,,,,,,,,,,,,,,,,,,,,,,,,,,,,,,,,,,,
109640,001,2022-11-21_24h54.16.559,Info_measure_main_exp,2022.2.2,Win32,59.66231132,,,,,,,,,,,,,,,,,,masks/mask_003.jpg,,,,,,,,,,,,,,,,,,,,,,,,,,,,,,,,,,,,,,,,,,0,3,3,2,1,,,,,,,,,,,,,,,,,,,,,,,,,,,,,,,,,,,,,,,,,,,,,,
109640,001,2022-11-21_24h54.16.559,Info_measure_main_exp,2022.2.2,Win32,59.66231132,,,,,,,,,,,,,,,,,,masks/mask_005.jpg,,,,,,,,,,,,,,,,,,,,,,,,,,,,,,,,,,,,,,,,,,0,4,4,4,1,,,,,,,,,,,,,,,,,,,,,,,,,,,,,,,,,,,,,,,,,,,,,,
109640,001,2022-11-21_24h54.16.559,Info_measure_main_exp,2022.2.2,Win32,59.66231132,,,,,,,,,,,,,,,,,,masks/mask_005.jpg,,,,,,,,,,,,,,,,,,,,,,,,,,,,,,,,,,,,,,,,,,,,,,,0,0,0,4,1,,,,,,,,,,,,,,,,,,,,,,,,,,,,,,,,,,,,,,,,,
109640,001,2022-11-21_24h54.16.559,Info_measure_main_exp,2022.2.2,Win32,59.66231132,,,,,,,,,,,,,,,,,,masks/mask_004.jpg,,,,,,,,,,,,,,,,,,,,,,,,,,,,,,,,,,,,,,,,,,,,,,,0,1,1,3,1,,,,,,,,,,,,,,,,,,,,,,,,,,,,,,,,,,,,,,,,,
109640,001,2022-11-21_24h54.16.559,Info_measure_main_exp,2022.2.2,Win32,59.66231132,,,,,,,,,,,,,,,,,,masks/mask_001.jpg,,,,,,,,,,,,,,,,,,,,,,,,,,,,,,,,,,,,,,,,,,,,,,,0,2,2,0,1,,,,,,,,,,,,,,,,,,,,,,,,,,,,,,,,,,,,,,,,,
109640,001,2022-11-21_24h54.16.559,Info_measure_main_exp,2022.2.2,Win32,59.66231132,,,,,,,,,,,,,,,,,,masks/mask_002.jpg,,,,,,,,,,,,,,,,,,,,,,,,,,,,,,,,,,,,,,,,,,,,,,,0,3,3,1,1,,,,,,,,,,,,,,,,,,,,,,,,,,,,,,,,,,,,,,,,,
109640,001,2022-11-21_24h54.16.559,Info_measure_main_exp,2022.2.2,Win32,59.66231132,,,,,,,,,,,,,,,,,,masks/mask_003.jpg,,,,,,,,,,,,,,,,,,,,,,,,,,,,,,,,,,,,,,,,,,,,,,,0,4,4,2,1,,,,,,,,,,,,,,,,,,,,,,,,,,,,,,,,,,,,,,,,,
109640,001,2022-11-21_24h54.16.559,Info_measure_main_exp,2022.2.2,Win32,59.66231132,,,,,,,,,,,,,,,,,,,,,,,,,,,,,,7,0.6834,1,,,,,,,,,,,,0,131,5,5,2190,2238,absent_patch/patch0002190.jpg,absent_patch/patch0002238.jpg,,,,,,,,,,,,,,,,,,,0.049074074,0.083333333,1,0,0,response1disk,27,0.006481481,-0.000925926,1,0,0,center_square,0,26,26,53,1,,,,,,,,,,,,,,,,,,,,,,,
109640,001,2022-11-21_24h54.16.559,Info_measure_main_exp,2022.2.2,Win32,59.66231132,,,,,,,,,,,,,,,,,,masks/mask_002.jpg,,,,,,,,,,,,,,,,,,,,,,,,,,,,,,,,,,,,,,,,,,0,0,0,1,1,,,,,,,,,,,,,,,,,,,,,,,,,,,,,,,,,,,,,,,,,,,,,,
109640,001,2022-11-21_24h54.16.559,Info_measure_main_exp,2022.2.2,Win32,59.66231132,,,,,,,,,,,,,,,,,,masks/mask_004.jpg,,,,,,,,,,,,,,,,,,,,,,,,,,,,,,,,,,,,,,,,,,0,1,1,3,1,,,,,,,,,,,,,,,,,,,,,,,,,,,,,,,,,,,,,,,,,,,,,,
109640,001,2022-11-21_24h54.16.559,Info_measure_main_exp,2022.2.2,Win32,59.66231132,,,,,,,,,,,,,,,,,,masks/mask_005.jpg,,,,,,,,,,,,,,,,,,,,,,,,,,,,,,,,,,,,,,,,,,0,2,2,4,1,,,,,,,,,,,,,,,,,,,,,,,,,,,,,,,,,,,,,,,,,,,,,,
109640,001,2022-11-21_24h54.16.559,Info_measure_main_exp,2022.2.2,Win32,59.66231132,,,,,,,,,,,,,,,,,,masks/mask_001.jpg,,,,,,,,,,,,,,,,,,,,,,,,,,,,,,,,,,,,,,,,,,0,3,3,0,1,,,,,,,,,,,,,,,,,,,,,,,,,,,,,,,,,,,,,,,,,,,,,,
109640,001,2022-11-21_24h54.16.559,Info_measure_main_exp,2022.2.2,Win32,59.66231132,,,,,,,,,,,,,,,,,,masks/mask_003.jpg,,,,,,,,,,,,,,,,,,,,,,,,,,,,,,,,,,,,,,,,,,0,4,4,2,1,,,,,,,,,,,,,,,,,,,,,,,,,,,,,,,,,,,,,,,,,,,,,,
109640,001,2022-11-21_24h54.16.559,Info_measure_main_exp,2022.2.2,Win32,59.66231132,,,,,,,,,,,,,,,,,,masks/mask_003.jpg,,,,,,,,,,,,,,,,,,,,,,,,,,,,,,,,,,,,,,,,,,,,,,,0,0,0,2,1,,,,,,,,,,,,,,,,,,,,,,,,,,,,,,,,,,,,,,,,,
109640,001,2022-11-21_24h54.16.559,Info_measure_main_exp,2022.2.2,Win32,59.66231132,,,,,,,,,,,,,,,,,,masks/mask_004.jpg,,,,,,,,,,,,,,,,,,,,,,,,,,,,,,,,,,,,,,,,,,,,,,,0,1,1,3,1,,,,,,,,,,,,,,,,,,,,,,,,,,,,,,,,,,,,,,,,,
109640,001,2022-11-21_24h54.16.559,Info_measure_main_exp,2022.2.2,Win32,59.66231132,,,,,,,,,,,,,,,,,,masks/mask_002.jpg,,,,,,,,,,,,,,,,,,,,,,,,,,,,,,,,,,,,,,,,,,,,,,,0,2,2,1,1,,,,,,,,,,,,,,,,,,,,,,,,,,,,,,,,,,,,,,,,,
109640,001,2022-11-21_24h54.16.559,Info_measure_main_exp,2022.2.2,Win32,59.66231132,,,,,,,,,,,,,,,,,,masks/mask_001.jpg,,,,,,,,,,,,,,,,,,,,,,,,,,,,,,,,,,,,,,,,,,,,,,,0,3,3,0,1,,,,,,,,,,,,,,,,,,,,,,,,,,,,,,,,,,,,,,,,,
109640,001,2022-11-21_24h54.16.559,Info_measure_main_exp,2022.2.2,Win32,59.66231132,,,,,,,,,,,,,,,,,,masks/mask_005.jpg,,,,,,,,,,,,,,,,,,,,,,,,,,,,,,,,,,,,,,,,,,,,,,,0,4,4,4,1,,,,,,,,,,,,,,,,,,,,,,,,,,,,,,,,,,,,,,,,,
109640,001,2022-11-21_24h54.16.559,Info_measure_main_exp,2022.2.2,Win32,59.66231132,,,,,,,,,,,,,,,,,,,,,,,,,,,,,,7,0.5333,1,,,,,,,,,,,,0,131,5,5,2082,1986,absent_patch/patch0002082.jpg,absent_patch/patch0001986.jpg,,,,,,,,,,,,,,,,,,,0.037962963,0.089814815,1,0,0,response1disk,28,0.008333333,0.011111111,1,0,0,center_square,0,27,27,94,1,,,,,,,,,,,,,,,,,,,,,,,
109640,001,2022-11-21_24h54.16.559,Info_measure_main_exp,2022.2.2,Win32,59.66231132,,,,,,,,,,,,,,,,,,masks/mask_005.jpg,,,,,,,,,,,,,,,,,,,,,,,,,,,,,,,,,,,,,,,,,,0,0,0,4,1,,,,,,,,,,,,,,,,,,,,,,,,,,,,,,,,,,,,,,,,,,,,,,
109640,001,2022-11-21_24h54.16.559,Info_measure_main_exp,2022.2.2,Win32,59.66231132,,,,,,,,,,,,,,,,,,masks/mask_001.jpg,,,,,,,,,,,,,,,,,,,,,,,,,,,,,,,,,,,,,,,,,,0,1,1,0,1,,,,,,,,,,,,,,,,,,,,,,,,,,,,,,,,,,,,,,,,,,,,,,
109640,001,2022-11-21_24h54.16.559,Info_measure_main_exp,2022.2.2,Win32,59.66231132,,,,,,,,,,,,,,,,,,masks/mask_004.jpg,,,,,,,,,,,,,,,,,,,,,,,,,,,,,,,,,,,,,,,,,,0,2,2,3,1,,,,,,,,,,,,,,,,,,,,,,,,,,,,,,,,,,,,,,,,,,,,,,
109640,001,2022-11-21_24h54.16.559,Info_measure_main_exp,2022.2.2,Win32,59.66231132,,,,,,,,,,,,,,,,,,masks/mask_003.jpg,,,,,,,,,,,,,,,,,,,,,,,,,,,,,,,,,,,,,,,,,,0,3,3,2,1,,,,,,,,,,,,,,,,,,,,,,,,,,,,,,,,,,,,,,,,,,,,,,
109640,001,2022-11-21_24h54.16.559,Info_measure_main_exp,2022.2.2,Win32,59.66231132,,,,,,,,,,,,,,,,,,masks/mask_002.jpg,,,,,,,,,,,,,,,,,,,,,,,,,,,,,,,,,,,,,,,,,,0,4,4,1,1,,,,,,,,,,,,,,,,,,,,,,,,,,,,,,,,,,,,,,,,,,,,,,
109640,001,2022-11-21_24h54.16.559,Info_measure_main_exp,2022.2.2,Win32,59.66231132,,,,,,,,,,,,,,,,,,masks/mask_003.jpg,,,,,,,,,,,,,,,,,,,,,,,,,,,,,,,,,,,,,,,,,,,,,,,0,0,0,2,1,,,,,,,,,,,,,,,,,,,,,,,,,,,,,,,,,,,,,,,,,
109640,001,2022-11-21_24h54.16.559,Info_measure_main_exp,2022.2.2,Win32,59.66231132,,,,,,,,,,,,,,,,,,masks/mask_002.jpg,,,,,,,,,,,,,,,,,,,,,,,,,,,,,,,,,,,,,,,,,,,,,,,0,1,1,1,1,,,,,,,,,,,,,,,,,,,,,,,,,,,,,,,,,,,,,,,,,
109640,001,2022-11-21_24h54.16.559,Info_measure_main_exp,2022.2.2,Win32,59.66231132,,,,,,,,,,,,,,,,,,masks/mask_001.jpg,,,,,,,,,,,,,,,,,,,,,,,,,,,,,,,,,,,,,,,,,,,,,,,0,2,2,0,1,,,,,,,,,,,,,,,,,,,,,,,,,,,,,,,,,,,,,,,,,
109640,001,2022-11-21_24h54.16.559,Info_measure_main_exp,2022.2.2,Win32,59.66231132,,,,,,,,,,,,,,,,,,masks/mask_004.jpg,,,,,,,,,,,,,,,,,,,,,,,,,,,,,,,,,,,,,,,,,,,,,,,0,3,3,3,1,,,,,,,,,,,,,,,,,,,,,,,,,,,,,,,,,,,,,,,,,
109640,001,2022-11-21_24h54.16.559,Info_measure_main_exp,2022.2.2,Win32,59.66231132,,,,,,,,,,,,,,,,,,masks/mask_005.jpg,,,,,,,,,,,,,,,,,,,,,,,,,,,,,,,,,,,,,,,,,,,,,,,0,4,4,4,1,,,,,,,,,,,,,,,,,,,,,,,,,,,,,,,,,,,,,,,,,
109640,001,2022-11-21_24h54.16.559,Info_measure_main_exp,2022.2.2,Win32,59.66231132,,,,,,,,,,,,,,,,,,,,,,,,,,,,,,7,0.4335,1,,,,,,,,,,,,0,131,5,5,2250,2238,absent_patch/patch0002250.jpg,absent_patch/patch0002238.jpg,,,,,,,,,,,,,,,,,,,0.032407407,0.075925926,1,0,0,response1disk,29,0,0.002777778,1,0,0,center_square,0,28,28,110,1,,,,,,,,,,,,,,,,,,,,,,,
109640,001,2022-11-21_24h54.16.559,Info_measure_main_exp,2022.2.2,Win32,59.66231132,,,,,,,,,,,,,,,,,,masks/mask_001.jpg,,,,,,,,,,,,,,,,,,,,,,,,,,,,,,,,,,,,,,,,,,0,0,0,0,1,,,,,,,,,,,,,,,,,,,,,,,,,,,,,,,,,,,,,,,,,,,,,,
109640,001,2022-11-21_24h54.16.559,Info_measure_main_exp,2022.2.2,Win32,59.66231132,,,,,,,,,,,,,,,,,,masks/mask_002.jpg,,,,,,,,,,,,,,,,,,,,,,,,,,,,,,,,,,,,,,,,,,0,1,1,1,1,,,,,,,,,,,,,,,,,,,,,,,,,,,,,,,,,,,,,,,,,,,,,,
109640,001,2022-11-21_24h54.16.559,Info_measure_main_exp,2022.2.2,Win32,59.66231132,,,,,,,,,,,,,,,,,,masks/mask_004.jpg,,,,,,,,,,,,,,,,,,,,,,,,,,,,,,,,,,,,,,,,,,0,2,2,3,1,,,,,,,,,,,,,,,,,,,,,,,,,,,,,,,,,,,,,,,,,,,,,,
109640,001,2022-11-21_24h54.16.559,Info_measure_main_exp,2022.2.2,Win32,59.66231132,,,,,,,,,,,,,,,,,,masks/mask_005.jpg,,,,,,,,,,,,,,,,,,,,,,,,,,,,,,,,,,,,,,,,,,0,3,3,4,1,,,,,,,,,,,,,,,,,,,,,,,,,,,,,,,,,,,,,,,,,,,,,,
109640,001,2022-11-21_24h54.16.559,Info_measure_main_exp,2022.2.2,Win32,59.66231132,,,,,,,,,,,,,,,,,,masks/mask_003.jpg,,,,,,,,,,,,,,,,,,,,,,,,,,,,,,,,,,,,,,,,,,0,4,4,2,1,,,,,,,,,,,,,,,,,,,,,,,,,,,,,,,,,,,,,,,,,,,,,,
109640,001,2022-11-21_24h54.16.559,Info_measure_main_exp,2022.2.2,Win32,59.66231132,,,,,,,,,,,,,,,,,,masks/mask_001.jpg,,,,,,,,,,,,,,,,,,,,,,,,,,,,,,,,,,,,,,,,,,,,,,,0,0,0,0,1,,,,,,,,,,,,,,,,,,,,,,,,,,,,,,,,,,,,,,,,,
109640,001,2022-11-21_24h54.16.559,Info_measure_main_exp,2022.2.2,Win32,59.66231132,,,,,,,,,,,,,,,,,,masks/mask_005.jpg,,,,,,,,,,,,,,,,,,,,,,,,,,,,,,,,,,,,,,,,,,,,,,,0,1,1,4,1,,,,,,,,,,,,,,,,,,,,,,,,,,,,,,,,,,,,,,,,,
109640,001,2022-11-21_24h54.16.559,Info_measure_main_exp,2022.2.2,Win32,59.66231132,,,,,,,,,,,,,,,,,,masks/mask_002.jpg,,,,,,,,,,,,,,,,,,,,,,,,,,,,,,,,,,,,,,,,,,,,,,,0,2,2,1,1,,,,,,,,,,,,,,,,,,,,,,,,,,,,,,,,,,,,,,,,,
109640,001,2022-11-21_24h54.16.559,Info_measure_main_exp,2022.2.2,Win32,59.66231132,,,,,,,,,,,,,,,,,,masks/mask_003.jpg,,,,,,,,,,,,,,,,,,,,,,,,,,,,,,,,,,,,,,,,,,,,,,,0,3,3,2,1,,,,,,,,,,,,,,,,,,,,,,,,,,,,,,,,,,,,,,,,,
109640,001,2022-11-21_24h54.16.559,Info_measure_main_exp,2022.2.2,Win32,59.66231132,,,,,,,,,,,,,,,,,,masks/mask_004.jpg,,,,,,,,,,,,,,,,,,,,,,,,,,,,,,,,,,,,,,,,,,,,,,,0,4,4,3,1,,,,,,,,,,,,,,,,,,,,,,,,,,,,,,,,,,,,,,,,,
109640,001,2022-11-21_24h54.16.559,Info_measure_main_exp,2022.2.2,Win32,59.66231132,,,,,,,,,,,,,,,,,,,,,,,,,,,,,,0,0.4499,1,,,,,,,,,,,,0,131,5,5,2166,2166,absent_patch/patch0002166.jpg,absent_patch/patch0002166.jpg,,,,,,,,,,,,,,,,,,,-0.022222222,0.087962963,1,0,0,response7disk,30,0.007407407,-0.00462963,1,0,0,center_square,0,29,29,42,1,,,,,,,,,,,,,,,,,,,,,,,
109640,001,2022-11-21_24h54.16.559,Info_measure_main_exp,2022.2.2,Win32,59.66231132,,,,,,,,,,,,,,,,,,masks/mask_001.jpg,,,,,,,,,,,,,,,,,,,,,,,,,,,,,,,,,,,,,,,,,,0,0,0,0,1,,,,,,,,,,,,,,,,,,,,,,,,,,,,,,,,,,,,,,,,,,,,,,
109640,001,2022-11-21_24h54.16.559,Info_measure_main_exp,2022.2.2,Win32,59.66231132,,,,,,,,,,,,,,,,,,masks/mask_002.jpg,,,,,,,,,,,,,,,,,,,,,,,,,,,,,,,,,,,,,,,,,,0,1,1,1,1,,,,,,,,,,,,,,,,,,,,,,,,,,,,,,,,,,,,,,,,,,,,,,
109640,001,2022-11-21_24h54.16.559,Info_measure_main_exp,2022.2.2,Win32,59.66231132,,,,,,,,,,,,,,,,,,masks/mask_004.jpg,,,,,,,,,,,,,,,,,,,,,,,,,,,,,,,,,,,,,,,,,,0,2,2,3,1,,,,,,,,,,,,,,,,,,,,,,,,,,,,,,,,,,,,,,,,,,,,,,
109640,001,2022-11-21_24h54.16.559,Info_measure_main_exp,2022.2.2,Win32,59.66231132,,,,,,,,,,,,,,,,,,masks/mask_003.jpg,,,,,,,,,,,,,,,,,,,,,,,,,,,,,,,,,,,,,,,,,,0,3,3,2,1,,,,,,,,,,,,,,,,,,,,,,,,,,,,,,,,,,,,,,,,,,,,,,
109640,001,2022-11-21_24h54.16.559,Info_measure_main_exp,2022.2.2,Win32,59.66231132,,,,,,,,,,,,,,,,,,masks/mask_005.jpg,,,,,,,,,,,,,,,,,,,,,,,,,,,,,,,,,,,,,,,,,,0,4,4,4,1,,,,,,,,,,,,,,,,,,,,,,,,,,,,,,,,,,,,,,,,,,,,,,
109640,001,2022-11-21_24h54.16.559,Info_measure_main_exp,2022.2.2,Win32,59.66231132,,,,,,,,,,,,,,,,,,masks/mask_003.jpg,,,,,,,,,,,,,,,,,,,,,,,,,,,,,,,,,,,,,,,,,,,,,,,0,0,0,2,1,,,,,,,,,,,,,,,,,,,,,,,,,,,,,,,,,,,,,,,,,
109640,001,2022-11-21_24h54.16.559,Info_measure_main_exp,2022.2.2,Win32,59.66231132,,,,,,,,,,,,,,,,,,masks/mask_005.jpg,,,,,,,,,,,,,,,,,,,,,,,,,,,,,,,,,,,,,,,,,,,,,,,0,1,1,4,1,,,,,,,,,,,,,,,,,,,,,,,,,,,,,,,,,,,,,,,,,
109640,001,2022-11-21_24h54.16.559,Info_measure_main_exp,2022.2.2,Win32,59.66231132,,,,,,,,,,,,,,,,,,masks/mask_001.jpg,,,,,,,,,,,,,,,,,,,,,,,,,,,,,,,,,,,,,,,,,,,,,,,0,2,2,0,1,,,,,,,,,,,,,,,,,,,,,,,,,,,,,,,,,,,,,,,,,
109640,001,2022-11-21_24h54.16.559,Info_measure_main_exp,2022.2.2,Win32,59.66231132,,,,,,,,,,,,,,,,,,masks/mask_002.jpg,,,,,,,,,,,,,,,,,,,,,,,,,,,,,,,,,,,,,,,,,,,,,,,0,3,3,1,1,,,,,,,,,,,,,,,,,,,,,,,,,,,,,,,,,,,,,,,,,
109640,001,2022-11-21_24h54.16.559,Info_measure_main_exp,2022.2.2,Win32,59.66231132,,,,,,,,,,,,,,,,,,masks/mask_004.jpg,,,,,,,,,,,,,,,,,,,,,,,,,,,,,,,,,,,,,,,,,,,,,,,0,4,4,3,1,,,,,,,,,,,,,,,,,,,,,,,,,,,,,,,,,,,,,,,,,
109640,001,2022-11-21_24h54.16.559,Info_measure_main_exp,2022.2.2,Win32,59.66231132,,,,,,,,,,,,,,,,,,,,,,,,,,,,,,7,0.5336,1,,,,,,,,,,,,0,131,5,5,1974,2178,absent_patch/patch0001974.jpg,absent_patch/patch0002178.jpg,,,,,,,,,,,,,,,,,,,0.039814815,0.1,1,0,0,response1disk,31,0.007407407,0.000925926,1,0,0,center_square,0,30,30,44,1,,,,,,,,,,,,,,,,,,,,,,,
109640,001,2022-11-21_24h54.16.559,Info_measure_main_exp,2022.2.2,Win32,59.66231132,,,,,,,,,,,,,,,,,,masks/mask_003.jpg,,,,,,,,,,,,,,,,,,,,,,,,,,,,,,,,,,,,,,,,,,0,0,0,2,1,,,,,,,,,,,,,,,,,,,,,,,,,,,,,,,,,,,,,,,,,,,,,,
109640,001,2022-11-21_24h54.16.559,Info_measure_main_exp,2022.2.2,Win32,59.66231132,,,,,,,,,,,,,,,,,,masks/mask_002.jpg,,,,,,,,,,,,,,,,,,,,,,,,,,,,,,,,,,,,,,,,,,0,1,1,1,1,,,,,,,,,,,,,,,,,,,,,,,,,,,,,,,,,,,,,,,,,,,,,,
109640,001,2022-11-21_24h54.16.559,Info_measure_main_exp,2022.2.2,Win32,59.66231132,,,,,,,,,,,,,,,,,,masks/mask_001.jpg,,,,,,,,,,,,,,,,,,,,,,,,,,,,,,,,,,,,,,,,,,0,2,2,0,1,,,,,,,,,,,,,,,,,,,,,,,,,,,,,,,,,,,,,,,,,,,,,,
109640,001,2022-11-21_24h54.16.559,Info_measure_main_exp,2022.2.2,Win32,59.66231132,,,,,,,,,,,,,,,,,,masks/mask_005.jpg,,,,,,,,,,,,,,,,,,,,,,,,,,,,,,,,,,,,,,,,,,0,3,3,4,1,,,,,,,,,,,,,,,,,,,,,,,,,,,,,,,,,,,,,,,,,,,,,,
109640,001,2022-11-21_24h54.16.559,Info_measure_main_exp,2022.2.2,Win32,59.66231132,,,,,,,,,,,,,,,,,,masks/mask_004.jpg,,,,,,,,,,,,,,,,,,,,,,,,,,,,,,,,,,,,,,,,,,0,4,4,3,1,,,,,,,,,,,,,,,,,,,,,,,,,,,,,,,,,,,,,,,,,,,,,,
109640,001,2022-11-21_24h54.16.559,Info_measure_main_exp,2022.2.2,Win32,59.66231132,,,,,,,,,,,,,,,,,,masks/mask_004.jpg,,,,,,,,,,,,,,,,,,,,,,,,,,,,,,,,,,,,,,,,,,,,,,,0,0,0,3,1,,,,,,,,,,,,,,,,,,,,,,,,,,,,,,,,,,,,,,,,,
109640,001,2022-11-21_24h54.16.559,Info_measure_main_exp,2022.2.2,Win32,59.66231132,,,,,,,,,,,,,,,,,,masks/mask_001.jpg,,,,,,,,,,,,,,,,,,,,,,,,,,,,,,,,,,,,,,,,,,,,,,,0,1,1,0,1,,,,,,,,,,,,,,,,,,,,,,,,,,,,,,,,,,,,,,,,,
109640,001,2022-11-21_24h54.16.559,Info_measure_main_exp,2022.2.2,Win32,59.66231132,,,,,,,,,,,,,,,,,,masks/mask_005.jpg,,,,,,,,,,,,,,,,,,,,,,,,,,,,,,,,,,,,,,,,,,,,,,,0,2,2,4,1,,,,,,,,,,,,,,,,,,,,,,,,,,,,,,,,,,,,,,,,,
109640,001,2022-11-21_24h54.16.559,Info_measure_main_exp,2022.2.2,Win32,59.66231132,,,,,,,,,,,,,,,,,,masks/mask_002.jpg,,,,,,,,,,,,,,,,,,,,,,,,,,,,,,,,,,,,,,,,,,,,,,,0,3,3,1,1,,,,,,,,,,,,,,,,,,,,,,,,,,,,,,,,,,,,,,,,,
109640,001,2022-11-21_24h54.16.559,Info_measure_main_exp,2022.2.2,Win32,59.66231132,,,,,,,,,,,,,,,,,,masks/mask_003.jpg,,,,,,,,,,,,,,,,,,,,,,,,,,,,,,,,,,,,,,,,,,,,,,,0,4,4,2,1,,,,,,,,,,,,,,,,,,,,,,,,,,,,,,,,,,,,,,,,,
109640,001,2022-11-21_24h54.16.559,Info_measure_main_exp,2022.2.2,Win32,59.66231132,,,,,,,,,,,,,,,,,,,,,,,,,,,,,,7,0.4168,1,,,,,,,,,,,,0,131,5,5,2082,2238,absent_patch/patch0002082.jpg,absent_patch/patch0002238.jpg,,,,,,,,,,,,,,,,,,,0.025925926,0.073148148,1,0,0,response1disk,32,-0.000925926,0.000925926,1,0,0,center_square,0,31,31,22,1,,,,,,,,,,,,,,,,,,,,,,,
109640,001,2022-11-21_24h54.16.559,Info_measure_main_exp,2022.2.2,Win32,59.66231132,,,,,,,,,,,,,,,,,,masks/mask_002.jpg,,,,,,,,,,,,,,,,,,,,,,,,,,,,,,,,,,,,,,,,,,0,0,0,1,1,,,,,,,,,,,,,,,,,,,,,,,,,,,,,,,,,,,,,,,,,,,,,,
109640,001,2022-11-21_24h54.16.559,Info_measure_main_exp,2022.2.2,Win32,59.66231132,,,,,,,,,,,,,,,,,,masks/mask_001.jpg,,,,,,,,,,,,,,,,,,,,,,,,,,,,,,,,,,,,,,,,,,0,1,1,0,1,,,,,,,,,,,,,,,,,,,,,,,,,,,,,,,,,,,,,,,,,,,,,,
109640,001,2022-11-21_24h54.16.559,Info_measure_main_exp,2022.2.2,Win32,59.66231132,,,,,,,,,,,,,,,,,,masks/mask_003.jpg,,,,,,,,,,,,,,,,,,,,,,,,,,,,,,,,,,,,,,,,,,0,2,2,2,1,,,,,,,,,,,,,,,,,,,,,,,,,,,,,,,,,,,,,,,,,,,,,,
109640,001,2022-11-21_24h54.16.559,Info_measure_main_exp,2022.2.2,Win32,59.66231132,,,,,,,,,,,,,,,,,,masks/mask_005.jpg,,,,,,,,,,,,,,,,,,,,,,,,,,,,,,,,,,,,,,,,,,0,3,3,4,1,,,,,,,,,,,,,,,,,,,,,,,,,,,,,,,,,,,,,,,,,,,,,,
109640,001,2022-11-21_24h54.16.559,Info_measure_main_exp,2022.2.2,Win32,59.66231132,,,,,,,,,,,,,,,,,,masks/mask_004.jpg,,,,,,,,,,,,,,,,,,,,,,,,,,,,,,,,,,,,,,,,,,0,4,4,3,1,,,,,,,,,,,,,,,,,,,,,,,,,,,,,,,,,,,,,,,,,,,,,,
109640,001,2022-11-21_24h54.16.559,Info_measure_main_exp,2022.2.2,Win32,59.66231132,,,,,,,,,,,,,,,,,,masks/mask_002.jpg,,,,,,,,,,,,,,,,,,,,,,,,,,,,,,,,,,,,,,,,,,,,,,,0,0,0,1,1,,,,,,,,,,,,,,,,,,,,,,,,,,,,,,,,,,,,,,,,,
109640,001,2022-11-21_24h54.16.559,Info_measure_main_exp,2022.2.2,Win32,59.66231132,,,,,,,,,,,,,,,,,,masks/mask_003.jpg,,,,,,,,,,,,,,,,,,,,,,,,,,,,,,,,,,,,,,,,,,,,,,,0,1,1,2,1,,,,,,,,,,,,,,,,,,,,,,,,,,,,,,,,,,,,,,,,,
109640,001,2022-11-21_24h54.16.559,Info_measure_main_exp,2022.2.2,Win32,59.66231132,,,,,,,,,,,,,,,,,,masks/mask_004.jpg,,,,,,,,,,,,,,,,,,,,,,,,,,,,,,,,,,,,,,,,,,,,,,,0,2,2,3,1,,,,,,,,,,,,,,,,,,,,,,,,,,,,,,,,,,,,,,,,,
109640,001,2022-11-21_24h54.16.559,Info_measure_main_exp,2022.2.2,Win32,59.66231132,,,,,,,,,,,,,,,,,,masks/mask_001.jpg,,,,,,,,,,,,,,,,,,,,,,,,,,,,,,,,,,,,,,,,,,,,,,,0,3,3,0,1,,,,,,,,,,,,,,,,,,,,,,,,,,,,,,,,,,,,,,,,,
109640,001,2022-11-21_24h54.16.559,Info_measure_main_exp,2022.2.2,Win32,59.66231132,,,,,,,,,,,,,,,,,,masks/mask_005.jpg,,,,,,,,,,,,,,,,,,,,,,,,,,,,,,,,,,,,,,,,,,,,,,,0,4,4,4,1,,,,,,,,,,,,,,,,,,,,,,,,,,,,,,,,,,,,,,,,,
109640,001,2022-11-21_24h54.16.559,Info_measure_main_exp,2022.2.2,Win32,59.66231132,,,,,,,,,,,,,,,,,,,,,,,,,,,,,,7,0.6331,1,,,,,,,,,,,,1,131,5,5,1,2178,present_patch/cong_131_5_a.jpg,absent_patch/patch0002178.jpg,,,,,,,,,,,,,,,,,,,0.028703704,0.086111111,1,0,0,response1disk,33,0.002777778,-0.005555556,1,0,0,center_square,0,32,32,40,1,,,,,,,,,,,,,,,,,,,,,,,
109640,001,2022-11-21_24h54.16.559,Info_measure_main_exp,2022.2.2,Win32,59.66231132,,,,,,,,,,,,,,,,,,masks/mask_003.jpg,,,,,,,,,,,,,,,,,,,,,,,,,,,,,,,,,,,,,,,,,,0,0,0,2,1,,,,,,,,,,,,,,,,,,,,,,,,,,,,,,,,,,,,,,,,,,,,,,
109640,001,2022-11-21_24h54.16.559,Info_measure_main_exp,2022.2.2,Win32,59.66231132,,,,,,,,,,,,,,,,,,masks/mask_002.jpg,,,,,,,,,,,,,,,,,,,,,,,,,,,,,,,,,,,,,,,,,,0,1,1,1,1,,,,,,,,,,,,,,,,,,,,,,,,,,,,,,,,,,,,,,,,,,,,,,
109640,001,2022-11-21_24h54.16.559,Info_measure_main_exp,2022.2.2,Win32,59.66231132,,,,,,,,,,,,,,,,,,masks/mask_004.jpg,,,,,,,,,,,,,,,,,,,,,,,,,,,,,,,,,,,,,,,,,,0,2,2,3,1,,,,,,,,,,,,,,,,,,,,,,,,,,,,,,,,,,,,,,,,,,,,,,
109640,001,2022-11-21_24h54.16.559,Info_measure_main_exp,2022.2.2,Win32,59.66231132,,,,,,,,,,,,,,,,,,masks/mask_001.jpg,,,,,,,,,,,,,,,,,,,,,,,,,,,,,,,,,,,,,,,,,,0,3,3,0,1,,,,,,,,,,,,,,,,,,,,,,,,,,,,,,,,,,,,,,,,,,,,,,
109640,001,2022-11-21_24h54.16.559,Info_measure_main_exp,2022.2.2,Win32,59.66231132,,,,,,,,,,,,,,,,,,masks/mask_005.jpg,,,,,,,,,,,,,,,,,,,,,,,,,,,,,,,,,,,,,,,,,,0,4,4,4,1,,,,,,,,,,,,,,,,,,,,,,,,,,,,,,,,,,,,,,,,,,,,,,
109640,001,2022-11-21_24h54.16.559,Info_measure_main_exp,2022.2.2,Win32,59.66231132,,,,,,,,,,,,,,,,,,masks/mask_002.jpg,,,,,,,,,,,,,,,,,,,,,,,,,,,,,,,,,,,,,,,,,,,,,,,0,0,0,1,1,,,,,,,,,,,,,,,,,,,,,,,,,,,,,,,,,,,,,,,,,
109640,001,2022-11-21_24h54.16.559,Info_measure_main_exp,2022.2.2,Win32,59.66231132,,,,,,,,,,,,,,,,,,masks/mask_004.jpg,,,,,,,,,,,,,,,,,,,,,,,,,,,,,,,,,,,,,,,,,,,,,,,0,1,1,3,1,,,,,,,,,,,,,,,,,,,,,,,,,,,,,,,,,,,,,,,,,
109640,001,2022-11-21_24h54.16.559,Info_measure_main_exp,2022.2.2,Win32,59.66231132,,,,,,,,,,,,,,,,,,masks/mask_003.jpg,,,,,,,,,,,,,,,,,,,,,,,,,,,,,,,,,,,,,,,,,,,,,,,0,2,2,2,1,,,,,,,,,,,,,,,,,,,,,,,,,,,,,,,,,,,,,,,,,
109640,001,2022-11-21_24h54.16.559,Info_measure_main_exp,2022.2.2,Win32,59.66231132,,,,,,,,,,,,,,,,,,masks/mask_001.jpg,,,,,,,,,,,,,,,,,,,,,,,,,,,,,,,,,,,,,,,,,,,,,,,0,3,3,0,1,,,,,,,,,,,,,,,,,,,,,,,,,,,,,,,,,,,,,,,,,
109640,001,2022-11-21_24h54.16.559,Info_measure_main_exp,2022.2.2,Win32,59.66231132,,,,,,,,,,,,,,,,,,masks/mask_005.jpg,,,,,,,,,,,,,,,,,,,,,,,,,,,,,,,,,,,,,,,,,,,,,,,0,4,4,4,1,,,,,,,,,,,,,,,,,,,,,,,,,,,,,,,,,,,,,,,,,
109640,001,2022-11-21_24h54.16.559,Info_measure_main_exp,2022.2.2,Win32,59.66231132,,,,,,,,,,,,,,,,,,,,,,,,,,,,,,7,0.3667,1,,,,,,,,,,,,0,131,5,5,2178,2238,absent_patch/patch0002178.jpg,absent_patch/patch0002238.jpg,,,,,,,,,,,,,,,,,,,0.031481481,0.069444444,1,0,0,response1disk,34,0.012037037,-0.003703704,1,0,0,center_square,0,33,33,57,1,,,,,,,,,,,,,,,,,,,,,,,
109640,001,2022-11-21_24h54.16.559,Info_measure_main_exp,2022.2.2,Win32,59.66231132,,,,,,,,,,,,,,,,,,masks/mask_004.jpg,,,,,,,,,,,,,,,,,,,,,,,,,,,,,,,,,,,,,,,,,,0,0,0,3,1,,,,,,,,,,,,,,,,,,,,,,,,,,,,,,,,,,,,,,,,,,,,,,
109640,001,2022-11-21_24h54.16.559,Info_measure_main_exp,2022.2.2,Win32,59.66231132,,,,,,,,,,,,,,,,,,masks/mask_003.jpg,,,,,,,,,,,,,,,,,,,,,,,,,,,,,,,,,,,,,,,,,,0,1,1,2,1,,,,,,,,,,,,,,,,,,,,,,,,,,,,,,,,,,,,,,,,,,,,,,
109640,001,2022-11-21_24h54.16.559,Info_measure_main_exp,2022.2.2,Win32,59.66231132,,,,,,,,,,,,,,,,,,masks/mask_001.jpg,,,,,,,,,,,,,,,,,,,,,,,,,,,,,,,,,,,,,,,,,,0,2,2,0,1,,,,,,,,,,,,,,,,,,,,,,,,,,,,,,,,,,,,,,,,,,,,,,
109640,001,2022-11-21_24h54.16.559,Info_measure_main_exp,2022.2.2,Win32,59.66231132,,,,,,,,,,,,,,,,,,masks/mask_002.jpg,,,,,,,,,,,,,,,,,,,,,,,,,,,,,,,,,,,,,,,,,,0,3,3,1,1,,,,,,,,,,,,,,,,,,,,,,,,,,,,,,,,,,,,,,,,,,,,,,
109640,001,2022-11-21_24h54.16.559,Info_measure_main_exp,2022.2.2,Win32,59.66231132,,,,,,,,,,,,,,,,,,masks/mask_005.jpg,,,,,,,,,,,,,,,,,,,,,,,,,,,,,,,,,,,,,,,,,,0,4,4,4,1,,,,,,,,,,,,,,,,,,,,,,,,,,,,,,,,,,,,,,,,,,,,,,
109640,001,2022-11-21_24h54.16.559,Info_measure_main_exp,2022.2.2,Win32,59.66231132,,,,,,,,,,,,,,,,,,masks/mask_004.jpg,,,,,,,,,,,,,,,,,,,,,,,,,,,,,,,,,,,,,,,,,,,,,,,0,0,0,3,1,,,,,,,,,,,,,,,,,,,,,,,,,,,,,,,,,,,,,,,,,
109640,001,2022-11-21_24h54.16.559,Info_measure_main_exp,2022.2.2,Win32,59.66231132,,,,,,,,,,,,,,,,,,masks/mask_003.jpg,,,,,,,,,,,,,,,,,,,,,,,,,,,,,,,,,,,,,,,,,,,,,,,0,1,1,2,1,,,,,,,,,,,,,,,,,,,,,,,,,,,,,,,,,,,,,,,,,
109640,001,2022-11-21_24h54.16.559,Info_measure_main_exp,2022.2.2,Win32,59.66231132,,,,,,,,,,,,,,,,,,masks/mask_005.jpg,,,,,,,,,,,,,,,,,,,,,,,,,,,,,,,,,,,,,,,,,,,,,,,0,2,2,4,1,,,,,,,,,,,,,,,,,,,,,,,,,,,,,,,,,,,,,,,,,
109640,001,2022-11-21_24h54.16.559,Info_measure_main_exp,2022.2.2,Win32,59.66231132,,,,,,,,,,,,,,,,,,masks/mask_002.jpg,,,,,,,,,,,,,,,,,,,,,,,,,,,,,,,,,,,,,,,,,,,,,,,0,3,3,1,1,,,,,,,,,,,,,,,,,,,,,,,,,,,,,,,,,,,,,,,,,
109640,001,2022-11-21_24h54.16.559,Info_measure_main_exp,2022.2.2,Win32,59.66231132,,,,,,,,,,,,,,,,,,masks/mask_001.jpg,,,,,,,,,,,,,,,,,,,,,,,,,,,,,,,,,,,,,,,,,,,,,,,0,4,4,0,1,,,,,,,,,,,,,,,,,,,,,,,,,,,,,,,,,,,,,,,,,
