participant,session,date,expName,psychopyVersion,OS,frameRate,space_press_continue.keys,space_press_continue.rt,space_press_continue_2.keys,space_press_continue_2.rt,space_press_continue_3.keys,space_press_continue_3.rt,space_press_continue_4.keys,space_press_continue_4.rt,space_press_continue_5.keys,space_press_continue_5.rt,space_press_continue_6.keys,space_press_continue_6.rt,prac_mask_loop_1.thisRepN,prac_mask_loop_1.thisTrialN,prac_mask_loop_1.thisN,prac_mask_loop_1.thisIndex,prac_mask_loop_1.ran,mask_name,prac_mask_loop_2.thisRepN,prac_mask_loop_2.thisTrialN,prac_mask_loop_2.thisN,prac_mask_loop_2.thisIndex,prac_mask_loop_2.ran,mouse_2.x,mouse_2.y,mouse_2.leftButton,mouse_2.midButton,mouse_2.rightButton,mouse_2.clicked_name,similarity,response_time,Pass,mouse_12.x,mouse_12.y,mouse_12.leftButton,mouse_12.midButton,mouse_12.rightButton,mouse_12.clicked_name,prac_loop.thisRepN,prac_loop.thisTrialN,prac_loop.thisN,prac_loop.thisIndex,prac_loop.ran,Pair_type,Image_num,Patch_1_loc,Patch_2_loc,Patch_1_info,Patch_2_info,Patch_1_name,Patch_2_name,mouse_1.x,mouse_1.y,mouse_1.leftButton,mouse_1.midButton,mouse_1.rightButton,mouse_1.time,mouse_1.clicked_name,space_press_continue_7.keys,space_press_continue_7.rt,mask_loop.thisRepN,mask_loop.thisTrialN,mask_loop.thisN,mask_loop.thisIndex,mask_loop.ran,mask_loop_2.thisRepN,mask_loop_2.thisTrialN,mask_loop_2.thisN,mask_loop_2.thisIndex,mask_loop_2.ran,mouse.x,mouse.y,mouse.leftButton,mouse.midButton,mouse.rightButton,mouse.clicked_name,trialNumber,mouse_11.x,mouse_11.y,mouse_11.leftButton,mouse_11.midButton,mouse_11.rightButton,mouse_11.clicked_name,first_pass_loop.thisRepN,first_pass_loop.thisTrialN,first_pass_loop.thisN,first_pass_loop.thisIndex,first_pass_loop.ran,mask_loop_3.thisRepN,mask_loop_3.thisTrialN,mask_loop_3.thisN,mask_loop_3.thisIndex,mask_loop_3.ran,mask_loop_4.thisRepN,mask_loop_4.thisTrialN,mask_loop_4.thisN,mask_loop_4.thisIndex,mask_loop_4.ran,mouse_3.x,mouse_3.y,mouse_3.leftButton,mouse_3.midButton,mouse_3.rightButton,mouse_3.clicked_name,double_pass_loop.thisRepN,double_pass_loop.thisTrialN,double_pass_loop.thisN,double_pass_loop.thisIndex,double_pass_loop.ran,space_exit.keys,space_exit.rt
120589,001,2022-11-20_23h58.51.464,Info_measure_main_exp,2022.2.2,Win32,60.28090904,,,,,,,,,,,,,,,,,,,,,,,,,,,,,,,,,,,,,,,,,,,,,,,,,,,,,,,,,,,,,,,,,,,,,,,,,,,,,,,,,,,,,,,,,,,,,,,,,,,,,,,,,,,,,,,
120589,001,2022-11-20_23h58.51.464,Info_measure_main_exp,2022.2.2,Win32,60.28090904,,,,,,,,,,,,,,,,,,,,,,,,,,,,,,,,,,,,,,,,,,,,,,,,,,,,,,,,,,,,,,,,,,,,,,,,,,,,,,,,,,,,,,,,,,,,,,,,,,,,,,,,,,,,,,,
120589,001,2022-11-20_23h58.51.464,Info_measure_main_exp,2022.2.2,Win32,60.28090904,space,9.8972,,,,,,,,,,,,,,,,,,,,,,,,,,,,,,,,,,,,,,,,,,,,,,,,,,,,,,,,,,,,,,,,,,,,,,,,,,,,,,,,,,,,,,,,,,,,,,,,,,,,,,,,,,,,,
120589,001,2022-11-20_23h58.51.464,Info_measure_main_exp,2022.2.2,Win32,60.28090904,,,space,8.8877,,,,,,,,,,,,,,,,,,,,,,,,,,,,,,,,,,,,,,,,,,,,,,,,,,,,,,,,,,,,,,,,,,,,,,,,,,,,,,,,,,,,,,,,,,,,,,,,,,,,,,,,,,,
120589,001,2022-11-20_23h58.51.464,Info_measure_main_exp,2022.2.2,Win32,60.28090904,,,,,space,8.4622,,,,,,,,,,,,,,,,,,,,,,,,,,,,,,,,,,,,,,,,,,,,,,,,,,,,,,,,,,,,,,,,,,,,,,,,,,,,,,,,,,,,,,,,,,,,,,,,,,,,,,,,,
120589,001,2022-11-20_23h58.51.464,Info_measure_main_exp,2022.2.2,Win32,60.28090904,,,,,,,space,18.6921,,,,,,,,,,,,,,,,,,,,,,,,,,,,,,,,,,,,,,,,,,,,,,,,,,,,,,,,,,,,,,,,,,,,,,,,,,,,,,,,,,,,,,,,,,,,,,,,,,,,,,,
120589,001,2022-11-20_23h58.51.464,Info_measure_main_exp,2022.2.2,Win32,60.28090904,,,,,,,,,space,8.7915,,,,,,,,,,,,,,,,,,,,,,,,,,,,,,,,,,,,,,,,,,,,,,,,,,,,,,,,,,,,,,,,,,,,,,,,,,,,,,,,,,,,,,,,,,,,,,,,,,,,,
120589,001,2022-11-20_23h58.51.464,Info_measure_main_exp,2022.2.2,Win32,60.28090904,,,,,,,,,,,space,3.8749,,,,,,,,,,,,,,,,,,,,,,,,,,,,,,,,,,,,,,,,,,,,,,,,,,,,,,,,,,,,,,,,,,,,,,,,,,,,,,,,,,,,,,,,,,,,,,,,,,,
120589,001,2022-11-20_23h58.51.464,Info_measure_main_exp,2022.2.2,Win32,60.28090904,,,,,,,,,,,,,0,0,0,1,1,masks/mask_002.jpg,,,,,,,,,,,,,,,,,,,,,,,,,,,,,,,,,,,,,,,,,,,,,,,,,,,,,,,,,,,,,,,,,,,,,,,,,,,,,,,,,,,,,,,,,,,,,
120589,001,2022-11-20_23h58.51.464,Info_measure_main_exp,2022.2.2,Win32,60.28090904,,,,,,,,,,,,,0,1,1,0,1,masks/mask_001.jpg,,,,,,,,,,,,,,,,,,,,,,,,,,,,,,,,,,,,,,,,,,,,,,,,,,,,,,,,,,,,,,,,,,,,,,,,,,,,,,,,,,,,,,,,,,,,,
120589,001,2022-11-20_23h58.51.464,Info_measure_main_exp,2022.2.2,Win32,60.28090904,,,,,,,,,,,,,0,2,2,2,1,masks/mask_003.jpg,,,,,,,,,,,,,,,,,,,,,,,,,,,,,,,,,,,,,,,,,,,,,,,,,,,,,,,,,,,,,,,,,,,,,,,,,,,,,,,,,,,,,,,,,,,,,
120589,001,2022-11-20_23h58.51.464,Info_measure_main_exp,2022.2.2,Win32,60.28090904,,,,,,,,,,,,,0,3,3,4,1,masks/mask_005.jpg,,,,,,,,,,,,,,,,,,,,,,,,,,,,,,,,,,,,,,,,,,,,,,,,,,,,,,,,,,,,,,,,,,,,,,,,,,,,,,,,,,,,,,,,,,,,,
120589,001,2022-11-20_23h58.51.464,Info_measure_main_exp,2022.2.2,Win32,60.28090904,,,,,,,,,,,,,0,4,4,3,1,masks/mask_004.jpg,,,,,,,,,,,,,,,,,,,,,,,,,,,,,,,,,,,,,,,,,,,,,,,,,,,,,,,,,,,,,,,,,,,,,,,,,,,,,,,,,,,,,,,,,,,,,
120589,001,2022-11-20_23h58.51.464,Info_measure_main_exp,2022.2.2,Win32,60.28090904,,,,,,,,,,,,,,,,,,masks/mask_003.jpg,0,0,0,2,1,,,,,,,,,,,,,,,,,,,,,,,,,,,,,,,,,,,,,,,,,,,,,,,,,,,,,,,,,,,,,,,,,,,,,,,,,,,,,,,,,,,,,,,,
120589,001,2022-11-20_23h58.51.464,Info_measure_main_exp,2022.2.2,Win32,60.28090904,,,,,,,,,,,,,,,,,,masks/mask_004.jpg,0,1,1,3,1,,,,,,,,,,,,,,,,,,,,,,,,,,,,,,,,,,,,,,,,,,,,,,,,,,,,,,,,,,,,,,,,,,,,,,,,,,,,,,,,,,,,,,,,
120589,001,2022-11-20_23h58.51.464,Info_measure_main_exp,2022.2.2,Win32,60.28090904,,,,,,,,,,,,,,,,,,masks/mask_002.jpg,0,2,2,1,1,,,,,,,,,,,,,,,,,,,,,,,,,,,,,,,,,,,,,,,,,,,,,,,,,,,,,,,,,,,,,,,,,,,,,,,,,,,,,,,,,,,,,,,,
120589,001,2022-11-20_23h58.51.464,Info_measure_main_exp,2022.2.2,Win32,60.28090904,,,,,,,,,,,,,,,,,,masks/mask_001.jpg,0,3,3,0,1,,,,,,,,,,,,,,,,,,,,,,,,,,,,,,,,,,,,,,,,,,,,,,,,,,,,,,,,,,,,,,,,,,,,,,,,,,,,,,,,,,,,,,,,
120589,001,2022-11-20_23h58.51.464,Info_measure_main_exp,2022.2.2,Win32,60.28090904,,,,,,,,,,,,,,,,,,masks/mask_005.jpg,0,4,4,4,1,,,,,,,,,,,,,,,,,,,,,,,,,,,,,,,,,,,,,,,,,,,,,,,,,,,,,,,,,,,,,,,,,,,,,,,,,,,,,,,,,,,,,,,,
120589,001,2022-11-20_23h58.51.464,Info_measure_main_exp,2022.2.2,Win32,60.28090904,,,,,,,,,,,,,,,,,,,,,,,,-0.162037037,-0.061111132,1,0,0,response5disk,2,62.712,1,-0.003703718,0,1,0,0,center_square,0,0,0,1,1,0,131,5,5,2514,2490,prac_patch/patch0002514.jpg,prac_patch/patch0002490.jpg,,,,,,,,,,,,,,,,,,,,,,,,,,,,,,,,,,,,,,,,,,,,,,,,,,,,,,,,,,,,
120589,001,2022-11-20_23h58.51.464,Info_measure_main_exp,2022.2.2,Win32,60.28090904,,,,,,,,,,,,,0,0,0,2,1,masks/mask_003.jpg,,,,,,,,,,,,,,,,,,,,,,,,,,,,,,,,,,,,,,,,,,,,,,,,,,,,,,,,,,,,,,,,,,,,,,,,,,,,,,,,,,,,,,,,,,,,,
120589,001,2022-11-20_23h58.51.464,Info_measure_main_exp,2022.2.2,Win32,60.28090904,,,,,,,,,,,,,0,1,1,3,1,masks/mask_004.jpg,,,,,,,,,,,,,,,,,,,,,,,,,,,,,,,,,,,,,,,,,,,,,,,,,,,,,,,,,,,,,,,,,,,,,,,,,,,,,,,,,,,,,,,,,,,,,
120589,001,2022-11-20_23h58.51.464,Info_measure_main_exp,2022.2.2,Win32,60.28090904,,,,,,,,,,,,,0,2,2,0,1,masks/mask_001.jpg,,,,,,,,,,,,,,,,,,,,,,,,,,,,,,,,,,,,,,,,,,,,,,,,,,,,,,,,,,,,,,,,,,,,,,,,,,,,,,,,,,,,,,,,,,,,,
120589,001,2022-11-20_23h58.51.464,Info_measure_main_exp,2022.2.2,Win32,60.28090904,,,,,,,,,,,,,0,3,3,1,1,masks/mask_002.jpg,,,,,,,,,,,,,,,,,,,,,,,,,,,,,,,,,,,,,,,,,,,,,,,,,,,,,,,,,,,,,,,,,,,,,,,,,,,,,,,,,,,,,,,,,,,,,
120589,001,2022-11-20_23h58.51.464,Info_measure_main_exp,2022.2.2,Win32,60.28090904,,,,,,,,,,,,,0,4,4,4,1,masks/mask_005.jpg,,,,,,,,,,,,,,,,,,,,,,,,,,,,,,,,,,,,,,,,,,,,,,,,,,,,,,,,,,,,,,,,,,,,,,,,,,,,,,,,,,,,,,,,,,,,,
120589,001,2022-11-20_23h58.51.464,Info_measure_main_exp,2022.2.2,Win32,60.28090904,,,,,,,,,,,,,,,,,,masks/mask_003.jpg,0,0,0,2,1,,,,,,,,,,,,,,,,,,,,,,,,,,,,,,,,,,,,,,,,,,,,,,,,,,,,,,,,,,,,,,,,,,,,,,,,,,,,,,,,,,,,,,,,
120589,001,2022-11-20_23h58.51.464,Info_measure_main_exp,2022.2.2,Win32,60.28090904,,,,,,,,,,,,,,,,,,masks/mask_004.jpg,0,1,1,3,1,,,,,,,,,,,,,,,,,,,,,,,,,,,,,,,,,,,,,,,,,,,,,,,,,,,,,,,,,,,,,,,,,,,,,,,,,,,,,,,,,,,,,,,,
120589,001,2022-11-20_23h58.51.464,Info_measure_main_exp,2022.2.2,Win32,60.28090904,,,,,,,,,,,,,,,,,,masks/mask_001.jpg,0,2,2,0,1,,,,,,,,,,,,,,,,,,,,,,,,,,,,,,,,,,,,,,,,,,,,,,,,,,,,,,,,,,,,,,,,,,,,,,,,,,,,,,,,,,,,,,,,
120589,001,2022-11-20_23h58.51.464,Info_measure_main_exp,2022.2.2,Win32,60.28090904,,,,,,,,,,,,,,,,,,masks/mask_005.jpg,0,3,3,4,1,,,,,,,,,,,,,,,,,,,,,,,,,,,,,,,,,,,,,,,,,,,,,,,,,,,,,,,,,,,,,,,,,,,,,,,,,,,,,,,,,,,,,,,,
120589,001,2022-11-20_23h58.51.464,Info_measure_main_exp,2022.2.2,Win32,60.28090904,,,,,,,,,,,,,,,,,,masks/mask_002.jpg,0,4,4,1,1,,,,,,,,,,,,,,,,,,,,,,,,,,,,,,,,,,,,,,,,,,,,,,,,,,,,,,,,,,,,,,,,,,,,,,,,,,,,,,,,,,,,,,,,
120589,001,2022-11-20_23h58.51.464,Info_measure_main_exp,2022.2.2,Win32,60.28090904,,,,,,,,,,,,,,,,,,,,,,,,0.054629644,0.096296275,1,0,0,response1disk,7,75.9588,1,-0.005555541,0.000925912,1,0,0,center_square,0,1,1,0,1,0,131,5,5,2370,2406,prac_patch/patch0002370.jpg,prac_patch/patch0002406.jpg,,,,,,,,,,,,,,,,,,,,,,,,,,,,,,,,,,,,,,,,,,,,,,,,,,,,,,,,,,,,
120589,001,2022-11-20_23h58.51.464,Info_measure_main_exp,2022.2.2,Win32,60.28090904,,,,,,,,,,,,,0,0,0,1,1,masks/mask_002.jpg,,,,,,,,,,,,,,,,,,,,,,,,,,,,,,,,,,,,,,,,,,,,,,,,,,,,,,,,,,,,,,,,,,,,,,,,,,,,,,,,,,,,,,,,,,,,,
120589,001,2022-11-20_23h58.51.464,Info_measure_main_exp,2022.2.2,Win32,60.28090904,,,,,,,,,,,,,0,1,1,0,1,masks/mask_001.jpg,,,,,,,,,,,,,,,,,,,,,,,,,,,,,,,,,,,,,,,,,,,,,,,,,,,,,,,,,,,,,,,,,,,,,,,,,,,,,,,,,,,,,,,,,,,,,
120589,001,2022-11-20_23h58.51.464,Info_measure_main_exp,2022.2.2,Win32,60.28090904,,,,,,,,,,,,,0,2,2,3,1,masks/mask_004.jpg,,,,,,,,,,,,,,,,,,,,,,,,,,,,,,,,,,,,,,,,,,,,,,,,,,,,,,,,,,,,,,,,,,,,,,,,,,,,,,,,,,,,,,,,,,,,,
120589,001,2022-11-20_23h58.51.464,Info_measure_main_exp,2022.2.2,Win32,60.28090904,,,,,,,,,,,,,0,3,3,4,1,masks/mask_005.jpg,,,,,,,,,,,,,,,,,,,,,,,,,,,,,,,,,,,,,,,,,,,,,,,,,,,,,,,,,,,,,,,,,,,,,,,,,,,,,,,,,,,,,,,,,,,,,
120589,001,2022-11-20_23h58.51.464,Info_measure_main_exp,2022.2.2,Win32,60.28090904,,,,,,,,,,,,,0,4,4,2,1,masks/mask_003.jpg,,,,,,,,,,,,,,,,,,,,,,,,,,,,,,,,,,,,,,,,,,,,,,,,,,,,,,,,,,,,,,,,,,,,,,,,,,,,,,,,,,,,,,,,,,,,,
120589,001,2022-11-20_23h58.51.464,Info_measure_main_exp,2022.2.2,Win32,60.28090904,,,,,,,,,,,,,,,,,,masks/mask_003.jpg,0,0,0,2,1,,,,,,,,,,,,,,,,,,,,,,,,,,,,,,,,,,,,,,,,,,,,,,,,,,,,,,,,,,,,,,,,,,,,,,,,,,,,,,,,,,,,,,,,
120589,001,2022-11-20_23h58.51.464,Info_measure_main_exp,2022.2.2,Win32,60.28090904,,,,,,,,,,,,,,,,,,masks/mask_002.jpg,0,1,1,1,1,,,,,,,,,,,,,,,,,,,,,,,,,,,,,,,,,,,,,,,,,,,,,,,,,,,,,,,,,,,,,,,,,,,,,,,,,,,,,,,,,,,,,,,,
120589,001,2022-11-20_23h58.51.464,Info_measure_main_exp,2022.2.2,Win32,60.28090904,,,,,,,,,,,,,,,,,,masks/mask_005.jpg,0,2,2,4,1,,,,,,,,,,,,,,,,,,,,,,,,,,,,,,,,,,,,,,,,,,,,,,,,,,,,,,,,,,,,,,,,,,,,,,,,,,,,,,,,,,,,,,,,
120589,001,2022-11-20_23h58.51.464,Info_measure_main_exp,2022.2.2,Win32,60.28090904,,,,,,,,,,,,,,,,,,masks/mask_001.jpg,0,3,3,0,1,,,,,,,,,,,,,,,,,,,,,,,,,,,,,,,,,,,,,,,,,,,,,,,,,,,,,,,,,,,,,,,,,,,,,,,,,,,,,,,,,,,,,,,,
120589,001,2022-11-20_23h58.51.464,Info_measure_main_exp,2022.2.2,Win32,60.28090904,,,,,,,,,,,,,,,,,,masks/mask_004.jpg,0,4,4,3,1,,,,,,,,,,,,,,,,,,,,,,,,,,,,,,,,,,,,,,,,,,,,,,,,,,,,,,,,,,,,,,,,,,,,,,,,,,,,,,,,,,,,,,,,
120589,001,2022-11-20_23h58.51.464,Info_measure_main_exp,2022.2.2,Win32,60.28090904,,,,,,,,,,,,,,,,,,,,,,,,-0.025925884,0.090740734,1,0,0,response7disk,0,85.4245,1,0.000925912,0.010185171,1,0,0,center_square,0,2,2,2,1,0,131,5,5,2526,2526,prac_patch/patch0002526.jpg,prac_patch/patch0002526.jpg,,,,,,,,,,,,,,,,,,,,,,,,,,,,,,,,,,,,,,,,,,,,,,,,,,,,,,,,,,,,
120589,001,2022-11-20_23h58.51.464,Info_measure_main_exp,2022.2.2,Win32,60.28090904,,,,,,,,,,,,,,,,,,,,,,,,,,,,,,,,,,,,,,,,,,,,,,,,,,,,,,,,,,,space,1.7905,,,,,,,,,,,,,,,,,,,,,,,,,,,,,,,,,,,,,,,,,,,,,,,,,,,
120589,001,2022-11-20_23h58.51.464,Info_measure_main_exp,2022.2.2,Win32,60.28090904,,,,,,,,,,,,,,,,,,masks/mask_001.jpg,,,,,,,,,,,,,,,,,,,,,,,,,,,,,,,,,,,,,,,,,,,0,0,0,0,1,,,,,,,,,,,,,,,,,,,,,,,,,,,,,,,,,,,,,,,,,,,,,,
120589,001,2022-11-20_23h58.51.464,Info_measure_main_exp,2022.2.2,Win32,60.28090904,,,,,,,,,,,,,,,,,,masks/mask_002.jpg,,,,,,,,,,,,,,,,,,,,,,,,,,,,,,,,,,,,,,,,,,,0,1,1,1,1,,,,,,,,,,,,,,,,,,,,,,,,,,,,,,,,,,,,,,,,,,,,,,
120589,001,2022-11-20_23h58.51.464,Info_measure_main_exp,2022.2.2,Win32,60.28090904,,,,,,,,,,,,,,,,,,masks/mask_005.jpg,,,,,,,,,,,,,,,,,,,,,,,,,,,,,,,,,,,,,,,,,,,0,2,2,4,1,,,,,,,,,,,,,,,,,,,,,,,,,,,,,,,,,,,,,,,,,,,,,,
120589,001,2022-11-20_23h58.51.464,Info_measure_main_exp,2022.2.2,Win32,60.28090904,,,,,,,,,,,,,,,,,,masks/mask_004.jpg,,,,,,,,,,,,,,,,,,,,,,,,,,,,,,,,,,,,,,,,,,,0,3,3,3,1,,,,,,,,,,,,,,,,,,,,,,,,,,,,,,,,,,,,,,,,,,,,,,
120589,001,2022-11-20_23h58.51.464,Info_measure_main_exp,2022.2.2,Win32,60.28090904,,,,,,,,,,,,,,,,,,masks/mask_003.jpg,,,,,,,,,,,,,,,,,,,,,,,,,,,,,,,,,,,,,,,,,,,0,4,4,2,1,,,,,,,,,,,,,,,,,,,,,,,,,,,,,,,,,,,,,,,,,,,,,,
120589,001,2022-11-20_23h58.51.464,Info_measure_main_exp,2022.2.2,Win32,60.28090904,,,,,,,,,,,,,,,,,,masks/mask_005.jpg,,,,,,,,,,,,,,,,,,,,,,,,,,,,,,,,,,,,,,,,,,,,,,,,0,0,0,4,1,,,,,,,,,,,,,,,,,,,,,,,,,,,,,,,,,,,,,,,,,
120589,001,2022-11-20_23h58.51.464,Info_measure_main_exp,2022.2.2,Win32,60.28090904,,,,,,,,,,,,,,,,,,masks/mask_001.jpg,,,,,,,,,,,,,,,,,,,,,,,,,,,,,,,,,,,,,,,,,,,,,,,,0,1,1,0,1,,,,,,,,,,,,,,,,,,,,,,,,,,,,,,,,,,,,,,,,,
120589,001,2022-11-20_23h58.51.464,Info_measure_main_exp,2022.2.2,Win32,60.28090904,,,,,,,,,,,,,,,,,,masks/mask_003.jpg,,,,,,,,,,,,,,,,,,,,,,,,,,,,,,,,,,,,,,,,,,,,,,,,0,2,2,2,1,,,,,,,,,,,,,,,,,,,,,,,,,,,,,,,,,,,,,,,,,
120589,001,2022-11-20_23h58.51.464,Info_measure_main_exp,2022.2.2,Win32,60.28090904,,,,,,,,,,,,,,,,,,masks/mask_002.jpg,,,,,,,,,,,,,,,,,,,,,,,,,,,,,,,,,,,,,,,,,,,,,,,,0,3,3,1,1,,,,,,,,,,,,,,,,,,,,,,,,,,,,,,,,,,,,,,,,,
120589,001,2022-11-20_23h58.51.464,Info_measure_main_exp,2022.2.2,Win32,60.28090904,,,,,,,,,,,,,,,,,,masks/mask_004.jpg,,,,,,,,,,,,,,,,,,,,,,,,,,,,,,,,,,,,,,,,,,,,,,,,0,4,4,3,1,,,,,,,,,,,,,,,,,,,,,,,,,,,,,,,,,,,,,,,,,
120589,001,2022-11-20_23h58.51.464,Info_measure_main_exp,2022.2.2,Win32,60.28090904,,,,,,,,,,,,,,,,,,,,,,,,,,,,,,7,1.9347,1,,,,,,,,,,,,0,131,5,5,2250,2214,absent_patch/patch0002250.jpg,absent_patch/patch0002214.jpg,,,,,,,,,,,,,,,,,,,,0.054629644,0.105555534,1,0,0,response1disk,1,0.003703718,0.005555541,1,0,0,center_square,0,0,0,97,1,,,,,,,,,,,,,,,,,,,,,,,
120589,001,2022-11-20_23h58.51.464,Info_measure_main_exp,2022.2.2,Win32,60.28090904,,,,,,,,,,,,,,,,,,masks/mask_004.jpg,,,,,,,,,,,,,,,,,,,,,,,,,,,,,,,,,,,,,,,,,,,0,0,0,3,1,,,,,,,,,,,,,,,,,,,,,,,,,,,,,,,,,,,,,,,,,,,,,,
120589,001,2022-11-20_23h58.51.464,Info_measure_main_exp,2022.2.2,Win32,60.28090904,,,,,,,,,,,,,,,,,,masks/mask_002.jpg,,,,,,,,,,,,,,,,,,,,,,,,,,,,,,,,,,,,,,,,,,,0,1,1,1,1,,,,,,,,,,,,,,,,,,,,,,,,,,,,,,,,,,,,,,,,,,,,,,
120589,001,2022-11-20_23h58.51.464,Info_measure_main_exp,2022.2.2,Win32,60.28090904,,,,,,,,,,,,,,,,,,masks/mask_005.jpg,,,,,,,,,,,,,,,,,,,,,,,,,,,,,,,,,,,,,,,,,,,0,2,2,4,1,,,,,,,,,,,,,,,,,,,,,,,,,,,,,,,,,,,,,,,,,,,,,,
120589,001,2022-11-20_23h58.51.464,Info_measure_main_exp,2022.2.2,Win32,60.28090904,,,,,,,,,,,,,,,,,,masks/mask_001.jpg,,,,,,,,,,,,,,,,,,,,,,,,,,,,,,,,,,,,,,,,,,,0,3,3,0,1,,,,,,,,,,,,,,,,,,,,,,,,,,,,,,,,,,,,,,,,,,,,,,
120589,001,2022-11-20_23h58.51.464,Info_measure_main_exp,2022.2.2,Win32,60.28090904,,,,,,,,,,,,,,,,,,masks/mask_003.jpg,,,,,,,,,,,,,,,,,,,,,,,,,,,,,,,,,,,,,,,,,,,0,4,4,2,1,,,,,,,,,,,,,,,,,,,,,,,,,,,,,,,,,,,,,,,,,,,,,,
120589,001,2022-11-20_23h58.51.464,Info_measure_main_exp,2022.2.2,Win32,60.28090904,,,,,,,,,,,,,,,,,,masks/mask_005.jpg,,,,,,,,,,,,,,,,,,,,,,,,,,,,,,,,,,,,,,,,,,,,,,,,0,0,0,4,1,,,,,,,,,,,,,,,,,,,,,,,,,,,,,,,,,,,,,,,,,
120589,001,2022-11-20_23h58.51.464,Info_measure_main_exp,2022.2.2,Win32,60.28090904,,,,,,,,,,,,,,,,,,masks/mask_003.jpg,,,,,,,,,,,,,,,,,,,,,,,,,,,,,,,,,,,,,,,,,,,,,,,,0,1,1,2,1,,,,,,,,,,,,,,,,,,,,,,,,,,,,,,,,,,,,,,,,,
120589,001,2022-11-20_23h58.51.464,Info_measure_main_exp,2022.2.2,Win32,60.28090904,,,,,,,,,,,,,,,,,,masks/mask_002.jpg,,,,,,,,,,,,,,,,,,,,,,,,,,,,,,,,,,,,,,,,,,,,,,,,0,2,2,1,1,,,,,,,,,,,,,,,,,,,,,,,,,,,,,,,,,,,,,,,,,
120589,001,2022-11-20_23h58.51.464,Info_measure_main_exp,2022.2.2,Win32,60.28090904,,,,,,,,,,,,,,,,,,masks/mask_001.jpg,,,,,,,,,,,,,,,,,,,,,,,,,,,,,,,,,,,,,,,,,,,,,,,,0,3,3,0,1,,,,,,,,,,,,,,,,,,,,,,,,,,,,,,,,,,,,,,,,,
120589,001,2022-11-20_23h58.51.464,Info_measure_main_exp,2022.2.2,Win32,60.28090904,,,,,,,,,,,,,,,,,,masks/mask_004.jpg,,,,,,,,,,,,,,,,,,,,,,,,,,,,,,,,,,,,,,,,,,,,,,,,0,4,4,3,1,,,,,,,,,,,,,,,,,,,,,,,,,,,,,,,,,,,,,,,,,
120589,001,2022-11-20_23h58.51.464,Info_measure_main_exp,2022.2.2,Win32,60.28090904,,,,,,,,,,,,,,,,,,,,,,,,,,,,,,6,1.5169,1,,,,,,,,,,,,0,131,5,5,2274,2190,absent_patch/patch0002274.jpg,absent_patch/patch0002190.jpg,,,,,,,,,,,,,,,,,,,,0.119444459,0.035185178,1,0,0,response1disk,2,0.001851894,0.002777771,1,0,0,center_square,0,1,1,116,1,,,,,,,,,,,,,,,,,,,,,,,
120589,001,2022-11-20_23h58.51.464,Info_measure_main_exp,2022.2.2,Win32,60.28090904,,,,,,,,,,,,,,,,,,masks/mask_001.jpg,,,,,,,,,,,,,,,,,,,,,,,,,,,,,,,,,,,,,,,,,,,0,0,0,0,1,,,,,,,,,,,,,,,,,,,,,,,,,,,,,,,,,,,,,,,,,,,,,,
120589,001,2022-11-20_23h58.51.464,Info_measure_main_exp,2022.2.2,Win32,60.28090904,,,,,,,,,,,,,,,,,,masks/mask_003.jpg,,,,,,,,,,,,,,,,,,,,,,,,,,,,,,,,,,,,,,,,,,,0,1,1,2,1,,,,,,,,,,,,,,,,,,,,,,,,,,,,,,,,,,,,,,,,,,,,,,
120589,001,2022-11-20_23h58.51.464,Info_measure_main_exp,2022.2.2,Win32,60.28090904,,,,,,,,,,,,,,,,,,masks/mask_005.jpg,,,,,,,,,,,,,,,,,,,,,,,,,,,,,,,,,,,,,,,,,,,0,2,2,4,1,,,,,,,,,,,,,,,,,,,,,,,,,,,,,,,,,,,,,,,,,,,,,,
120589,001,2022-11-20_23h58.51.464,Info_measure_main_exp,2022.2.2,Win32,60.28090904,,,,,,,,,,,,,,,,,,masks/mask_002.jpg,,,,,,,,,,,,,,,,,,,,,,,,,,,,,,,,,,,,,,,,,,,0,3,3,1,1,,,,,,,,,,,,,,,,,,,,,,,,,,,,,,,,,,,,,,,,,,,,,,
120589,001,2022-11-20_23h58.51.464,Info_measure_main_exp,2022.2.2,Win32,60.28090904,,,,,,,,,,,,,,,,,,masks/mask_004.jpg,,,,,,,,,,,,,,,,,,,,,,,,,,,,,,,,,,,,,,,,,,,0,4,4,3,1,,,,,,,,,,,,,,,,,,,,,,,,,,,,,,,,,,,,,,,,,,,,,,
120589,001,2022-11-20_23h58.51.464,Info_measure_main_exp,2022.2.2,Win32,60.28090904,,,,,,,,,,,,,,,,,,masks/mask_002.jpg,,,,,,,,,,,,,,,,,,,,,,,,,,,,,,,,,,,,,,,,,,,,,,,,0,0,0,1,1,,,,,,,,,,,,,,,,,,,,,,,,,,,,,,,,,,,,,,,,,
120589,001,2022-11-20_23h58.51.464,Info_measure_main_exp,2022.2.2,Win32,60.28090904,,,,,,,,,,,,,,,,,,masks/mask_001.jpg,,,,,,,,,,,,,,,,,,,,,,,,,,,,,,,,,,,,,,,,,,,,,,,,0,1,1,0,1,,,,,,,,,,,,,,,,,,,,,,,,,,,,,,,,,,,,,,,,,
120589,001,2022-11-20_23h58.51.464,Info_measure_main_exp,2022.2.2,Win32,60.28090904,,,,,,,,,,,,,,,,,,masks/mask_005.jpg,,,,,,,,,,,,,,,,,,,,,,,,,,,,,,,,,,,,,,,,,,,,,,,,0,2,2,4,1,,,,,,,,,,,,,,,,,,,,,,,,,,,,,,,,,,,,,,,,,
120589,001,2022-11-20_23h58.51.464,Info_measure_main_exp,2022.2.2,Win32,60.28090904,,,,,,,,,,,,,,,,,,masks/mask_003.jpg,,,,,,,,,,,,,,,,,,,,,,,,,,,,,,,,,,,,,,,,,,,,,,,,0,3,3,2,1,,,,,,,,,,,,,,,,,,,,,,,,,,,,,,,,,,,,,,,,,
120589,001,2022-11-20_23h58.51.464,Info_measure_main_exp,2022.2.2,Win32,60.28090904,,,,,,,,,,,,,,,,,,masks/mask_004.jpg,,,,,,,,,,,,,,,,,,,,,,,,,,,,,,,,,,,,,,,,,,,,,,,,0,4,4,3,1,,,,,,,,,,,,,,,,,,,,,,,,,,,,,,,,,,,,,,,,,
120589,001,2022-11-20_23h58.51.464,Info_measure_main_exp,2022.2.2,Win32,60.28090904,,,,,,,,,,,,,,,,,,,,,,,,,,,,,,6,1.7994,1,,,,,,,,,,,,0,131,5,5,1950,2298,absent_patch/patch0001950.jpg,absent_patch/patch0002298.jpg,,,,,,,,,,,,,,,,,,,,0.089814857,0.033333319,1,0,0,response1disk,3,-0.012962977,0,1,0,0,center_square,0,2,2,18,1,,,,,,,,,,,,,,,,,,,,,,,
120589,001,2022-11-20_23h58.51.464,Info_measure_main_exp,2022.2.2,Win32,60.28090904,,,,,,,,,,,,,,,,,,masks/mask_002.jpg,,,,,,,,,,,,,,,,,,,,,,,,,,,,,,,,,,,,,,,,,,,0,0,0,1,1,,,,,,,,,,,,,,,,,,,,,,,,,,,,,,,,,,,,,,,,,,,,,,
120589,001,2022-11-20_23h58.51.464,Info_measure_main_exp,2022.2.2,Win32,60.28090904,,,,,,,,,,,,,,,,,,masks/mask_004.jpg,,,,,,,,,,,,,,,,,,,,,,,,,,,,,,,,,,,,,,,,,,,0,1,1,3,1,,,,,,,,,,,,,,,,,,,,,,,,,,,,,,,,,,,,,,,,,,,,,,
120589,001,2022-11-20_23h58.51.464,Info_measure_main_exp,2022.2.2,Win32,60.28090904,,,,,,,,,,,,,,,,,,masks/mask_003.jpg,,,,,,,,,,,,,,,,,,,,,,,,,,,,,,,,,,,,,,,,,,,0,2,2,2,1,,,,,,,,,,,,,,,,,,,,,,,,,,,,,,,,,,,,,,,,,,,,,,
120589,001,2022-11-20_23h58.51.464,Info_measure_main_exp,2022.2.2,Win32,60.28090904,,,,,,,,,,,,,,,,,,masks/mask_001.jpg,,,,,,,,,,,,,,,,,,,,,,,,,,,,,,,,,,,,,,,,,,,0,3,3,0,1,,,,,,,,,,,,,,,,,,,,,,,,,,,,,,,,,,,,,,,,,,,,,,
120589,001,2022-11-20_23h58.51.464,Info_measure_main_exp,2022.2.2,Win32,60.28090904,,,,,,,,,,,,,,,,,,masks/mask_005.jpg,,,,,,,,,,,,,,,,,,,,,,,,,,,,,,,,,,,,,,,,,,,0,4,4,4,1,,,,,,,,,,,,,,,,,,,,,,,,,,,,,,,,,,,,,,,,,,,,,,
120589,001,2022-11-20_23h58.51.464,Info_measure_main_exp,2022.2.2,Win32,60.28090904,,,,,,,,,,,,,,,,,,masks/mask_001.jpg,,,,,,,,,,,,,,,,,,,,,,,,,,,,,,,,,,,,,,,,,,,,,,,,0,0,0,0,1,,,,,,,,,,,,,,,,,,,,,,,,,,,,,,,,,,,,,,,,,
120589,001,2022-11-20_23h58.51.464,Info_measure_main_exp,2022.2.2,Win32,60.28090904,,,,,,,,,,,,,,,,,,masks/mask_004.jpg,,,,,,,,,,,,,,,,,,,,,,,,,,,,,,,,,,,,,,,,,,,,,,,,0,1,1,3,1,,,,,,,,,,,,,,,,,,,,,,,,,,,,,,,,,,,,,,,,,
120589,001,2022-11-20_23h58.51.464,Info_measure_main_exp,2022.2.2,Win32,60.28090904,,,,,,,,,,,,,,,,,,masks/mask_002.jpg,,,,,,,,,,,,,,,,,,,,,,,,,,,,,,,,,,,,,,,,,,,,,,,,0,2,2,1,1,,,,,,,,,,,,,,,,,,,,,,,,,,,,,,,,,,,,,,,,,
120589,001,2022-11-20_23h58.51.464,Info_measure_main_exp,2022.2.2,Win32,60.28090904,,,,,,,,,,,,,,,,,,masks/mask_003.jpg,,,,,,,,,,,,,,,,,,,,,,,,,,,,,,,,,,,,,,,,,,,,,,,,0,3,3,2,1,,,,,,,,,,,,,,,,,,,,,,,,,,,,,,,,,,,,,,,,,
120589,001,2022-11-20_23h58.51.464,Info_measure_main_exp,2022.2.2,Win32,60.28090904,,,,,,,,,,,,,,,,,,masks/mask_005.jpg,,,,,,,,,,,,,,,,,,,,,,,,,,,,,,,,,,,,,,,,,,,,,,,,0,4,4,4,1,,,,,,,,,,,,,,,,,,,,,,,,,,,,,,,,,,,,,,,,,
120589,001,2022-11-20_23h58.51.464,Info_measure_main_exp,2022.2.2,Win32,60.28090904,,,,,,,,,,,,,,,,,,,,,,,,,,,,,,7,0.6505,1,,,,,,,,,,,,0,131,5,5,2190,2190,absent_patch/patch0002190.jpg,absent_patch/patch0002190.jpg,,,,,,,,,,,,,,,,,,,,0.050000014,0.140740748,1,0,0,response1disk,4,-0.006481453,0.003703683,1,0,0,center_square,0,3,3,86,1,,,,,,,,,,,,,,,,,,,,,,,
120589,001,2022-11-20_23h58.51.464,Info_measure_main_exp,2022.2.2,Win32,60.28090904,,,,,,,,,,,,,,,,,,masks/mask_002.jpg,,,,,,,,,,,,,,,,,,,,,,,,,,,,,,,,,,,,,,,,,,,0,0,0,1,1,,,,,,,,,,,,,,,,,,,,,,,,,,,,,,,,,,,,,,,,,,,,,,
120589,001,2022-11-20_23h58.51.464,Info_measure_main_exp,2022.2.2,Win32,60.28090904,,,,,,,,,,,,,,,,,,masks/mask_003.jpg,,,,,,,,,,,,,,,,,,,,,,,,,,,,,,,,,,,,,,,,,,,0,1,1,2,1,,,,,,,,,,,,,,,,,,,,,,,,,,,,,,,,,,,,,,,,,,,,,,
120589,001,2022-11-20_23h58.51.464,Info_measure_main_exp,2022.2.2,Win32,60.28090904,,,,,,,,,,,,,,,,,,masks/mask_004.jpg,,,,,,,,,,,,,,,,,,,,,,,,,,,,,,,,,,,,,,,,,,,0,2,2,3,1,,,,,,,,,,,,,,,,,,,,,,,,,,,,,,,,,,,,,,,,,,,,,,
120589,001,2022-11-20_23h58.51.464,Info_measure_main_exp,2022.2.2,Win32,60.28090904,,,,,,,,,,,,,,,,,,masks/mask_005.jpg,,,,,,,,,,,,,,,,,,,,,,,,,,,,,,,,,,,,,,,,,,,0,3,3,4,1,,,,,,,,,,,,,,,,,,,,,,,,,,,,,,,,,,,,,,,,,,,,,,
120589,001,2022-11-20_23h58.51.464,Info_measure_main_exp,2022.2.2,Win32,60.28090904,,,,,,,,,,,,,,,,,,masks/mask_001.jpg,,,,,,,,,,,,,,,,,,,,,,,,,,,,,,,,,,,,,,,,,,,0,4,4,0,1,,,,,,,,,,,,,,,,,,,,,,,,,,,,,,,,,,,,,,,,,,,,,,
120589,001,2022-11-20_23h58.51.464,Info_measure_main_exp,2022.2.2,Win32,60.28090904,,,,,,,,,,,,,,,,,,masks/mask_004.jpg,,,,,,,,,,,,,,,,,,,,,,,,,,,,,,,,,,,,,,,,,,,,,,,,0,0,0,3,1,,,,,,,,,,,,,,,,,,,,,,,,,,,,,,,,,,,,,,,,,
120589,001,2022-11-20_23h58.51.464,Info_measure_main_exp,2022.2.2,Win32,60.28090904,,,,,,,,,,,,,,,,,,masks/mask_005.jpg,,,,,,,,,,,,,,,,,,,,,,,,,,,,,,,,,,,,,,,,,,,,,,,,0,1,1,4,1,,,,,,,,,,,,,,,,,,,,,,,,,,,,,,,,,,,,,,,,,
120589,001,2022-11-20_23h58.51.464,Info_measure_main_exp,2022.2.2,Win32,60.28090904,,,,,,,,,,,,,,,,,,masks/mask_003.jpg,,,,,,,,,,,,,,,,,,,,,,,,,,,,,,,,,,,,,,,,,,,,,,,,0,2,2,2,1,,,,,,,,,,,,,,,,,,,,,,,,,,,,,,,,,,,,,,,,,
120589,001,2022-11-20_23h58.51.464,Info_measure_main_exp,2022.2.2,Win32,60.28090904,,,,,,,,,,,,,,,,,,masks/mask_002.jpg,,,,,,,,,,,,,,,,,,,,,,,,,,,,,,,,,,,,,,,,,,,,,,,,0,3,3,1,1,,,,,,,,,,,,,,,,,,,,,,,,,,,,,,,,,,,,,,,,,
120589,001,2022-11-20_23h58.51.464,Info_measure_main_exp,2022.2.2,Win32,60.28090904,,,,,,,,,,,,,,,,,,masks/mask_001.jpg,,,,,,,,,,,,,,,,,,,,,,,,,,,,,,,,,,,,,,,,,,,,,,,,0,4,4,0,1,,,,,,,,,,,,,,,,,,,,,,,,,,,,,,,,,,,,,,,,,
120589,001,2022-11-20_23h58.51.464,Info_measure_main_exp,2022.2.2,Win32,60.28090904,,,,,,,,,,,,,,,,,,,,,,,,,,,,,,5,3.0834,1,,,,,,,,,,,,0,131,5,5,1974,2166,absent_patch/patch0001974.jpg,absent_patch/patch0002166.jpg,,,,,,,,,,,,,,,,,,,,0.094444487,-0.050925926,1,0,0,response3disk,5,0.007407436,-0.008333347,1,0,0,center_square,0,4,4,77,1,,,,,,,,,,,,,,,,,,,,,,,
120589,001,2022-11-20_23h58.51.464,Info_measure_main_exp,2022.2.2,Win32,60.28090904,,,,,,,,,,,,,,,,,,masks/mask_002.jpg,,,,,,,,,,,,,,,,,,,,,,,,,,,,,,,,,,,,,,,,,,,0,0,0,1,1,,,,,,,,,,,,,,,,,,,,,,,,,,,,,,,,,,,,,,,,,,,,,,
120589,001,2022-11-20_23h58.51.464,Info_measure_main_exp,2022.2.2,Win32,60.28090904,,,,,,,,,,,,,,,,,,masks/mask_004.jpg,,,,,,,,,,,,,,,,,,,,,,,,,,,,,,,,,,,,,,,,,,,0,1,1,3,1,,,,,,,,,,,,,,,,,,,,,,,,,,,,,,,,,,,,,,,,,,,,,,
120589,001,2022-11-20_23h58.51.464,Info_measure_main_exp,2022.2.2,Win32,60.28090904,,,,,,,,,,,,,,,,,,masks/mask_005.jpg,,,,,,,,,,,,,,,,,,,,,,,,,,,,,,,,,,,,,,,,,,,0,2,2,4,1,,,,,,,,,,,,,,,,,,,,,,,,,,,,,,,,,,,,,,,,,,,,,,
120589,001,2022-11-20_23h58.51.464,Info_measure_main_exp,2022.2.2,Win32,60.28090904,,,,,,,,,,,,,,,,,,masks/mask_001.jpg,,,,,,,,,,,,,,,,,,,,,,,,,,,,,,,,,,,,,,,,,,,0,3,3,0,1,,,,,,,,,,,,,,,,,,,,,,,,,,,,,,,,,,,,,,,,,,,,,,
120589,001,2022-11-20_23h58.51.464,Info_measure_main_exp,2022.2.2,Win32,60.28090904,,,,,,,,,,,,,,,,,,masks/mask_003.jpg,,,,,,,,,,,,,,,,,,,,,,,,,,,,,,,,,,,,,,,,,,,0,4,4,2,1,,,,,,,,,,,,,,,,,,,,,,,,,,,,,,,,,,,,,,,,,,,,,,
120589,001,2022-11-20_23h58.51.464,Info_measure_main_exp,2022.2.2,Win32,60.28090904,,,,,,,,,,,,,,,,,,masks/mask_001.jpg,,,,,,,,,,,,,,,,,,,,,,,,,,,,,,,,,,,,,,,,,,,,,,,,0,0,0,0,1,,,,,,,,,,,,,,,,,,,,,,,,,,,,,,,,,,,,,,,,,
120589,001,2022-11-20_23h58.51.464,Info_measure_main_exp,2022.2.2,Win32,60.28090904,,,,,,,,,,,,,,,,,,masks/mask_002.jpg,,,,,,,,,,,,,,,,,,,,,,,,,,,,,,,,,,,,,,,,,,,,,,,,0,1,1,1,1,,,,,,,,,,,,,,,,,,,,,,,,,,,,,,,,,,,,,,,,,
120589,001,2022-11-20_23h58.51.464,Info_measure_main_exp,2022.2.2,Win32,60.28090904,,,,,,,,,,,,,,,,,,masks/mask_005.jpg,,,,,,,,,,,,,,,,,,,,,,,,,,,,,,,,,,,,,,,,,,,,,,,,0,2,2,4,1,,,,,,,,,,,,,,,,,,,,,,,,,,,,,,,,,,,,,,,,,
120589,001,2022-11-20_23h58.51.464,Info_measure_main_exp,2022.2.2,Win32,60.28090904,,,,,,,,,,,,,,,,,,masks/mask_004.jpg,,,,,,,,,,,,,,,,,,,,,,,,,,,,,,,,,,,,,,,,,,,,,,,,0,3,3,3,1,,,,,,,,,,,,,,,,,,,,,,,,,,,,,,,,,,,,,,,,,
120589,001,2022-11-20_23h58.51.464,Info_measure_main_exp,2022.2.2,Win32,60.28090904,,,,,,,,,,,,,,,,,,masks/mask_003.jpg,,,,,,,,,,,,,,,,,,,,,,,,,,,,,,,,,,,,,,,,,,,,,,,,0,4,4,2,1,,,,,,,,,,,,,,,,,,,,,,,,,,,,,,,,,,,,,,,,,
120589,001,2022-11-20_23h58.51.464,Info_measure_main_exp,2022.2.2,Win32,60.28090904,,,,,,,,,,,,,,,,,,,,,,,,,,,,,,0,0.8001,1,,,,,,,,,,,,0,131,5,5,2142,2142,absent_patch/patch0002142.jpg,absent_patch/patch0002142.jpg,,,,,,,,,,,,,,,,,,,,-0.027777778,0.11296297,1,0,0,response7disk,6,0.003703718,0.001851859,1,0,0,center_square,0,5,5,13,1,,,,,,,,,,,,,,,,,,,,,,,
120589,001,2022-11-20_23h58.51.464,Info_measure_main_exp,2022.2.2,Win32,60.28090904,,,,,,,,,,,,,,,,,,masks/mask_002.jpg,,,,,,,,,,,,,,,,,,,,,,,,,,,,,,,,,,,,,,,,,,,0,0,0,1,1,,,,,,,,,,,,,,,,,,,,,,,,,,,,,,,,,,,,,,,,,,,,,,
120589,001,2022-11-20_23h58.51.464,Info_measure_main_exp,2022.2.2,Win32,60.28090904,,,,,,,,,,,,,,,,,,masks/mask_001.jpg,,,,,,,,,,,,,,,,,,,,,,,,,,,,,,,,,,,,,,,,,,,0,1,1,0,1,,,,,,,,,,,,,,,,,,,,,,,,,,,,,,,,,,,,,,,,,,,,,,
120589,001,2022-11-20_23h58.51.464,Info_measure_main_exp,2022.2.2,Win32,60.28090904,,,,,,,,,,,,,,,,,,masks/mask_003.jpg,,,,,,,,,,,,,,,,,,,,,,,,,,,,,,,,,,,,,,,,,,,0,2,2,2,1,,,,,,,,,,,,,,,,,,,,,,,,,,,,,,,,,,,,,,,,,,,,,,
120589,001,2022-11-20_23h58.51.464,Info_measure_main_exp,2022.2.2,Win32,60.28090904,,,,,,,,,,,,,,,,,,masks/mask_004.jpg,,,,,,,,,,,,,,,,,,,,,,,,,,,,,,,,,,,,,,,,,,,0,3,3,3,1,,,,,,,,,,,,,,,,,,,,,,,,,,,,,,,,,,,,,,,,,,,,,,
120589,001,2022-11-20_23h58.51.464,Info_measure_main_exp,2022.2.2,Win32,60.28090904,,,,,,,,,,,,,,,,,,masks/mask_005.jpg,,,,,,,,,,,,,,,,,,,,,,,,,,,,,,,,,,,,,,,,,,,0,4,4,4,1,,,,,,,,,,,,,,,,,,,,,,,,,,,,,,,,,,,,,,,,,,,,,,
120589,001,2022-11-20_23h58.51.464,Info_measure_main_exp,2022.2.2,Win32,60.28090904,,,,,,,,,,,,,,,,,,masks/mask_003.jpg,,,,,,,,,,,,,,,,,,,,,,,,,,,,,,,,,,,,,,,,,,,,,,,,0,0,0,2,1,,,,,,,,,,,,,,,,,,,,,,,,,,,,,,,,,,,,,,,,,
120589,001,2022-11-20_23h58.51.464,Info_measure_main_exp,2022.2.2,Win32,60.28090904,,,,,,,,,,,,,,,,,,masks/mask_001.jpg,,,,,,,,,,,,,,,,,,,,,,,,,,,,,,,,,,,,,,,,,,,,,,,,0,1,1,0,1,,,,,,,,,,,,,,,,,,,,,,,,,,,,,,,,,,,,,,,,,
120589,001,2022-11-20_23h58.51.464,Info_measure_main_exp,2022.2.2,Win32,60.28090904,,,,,,,,,,,,,,,,,,masks/mask_002.jpg,,,,,,,,,,,,,,,,,,,,,,,,,,,,,,,,,,,,,,,,,,,,,,,,0,2,2,1,1,,,,,,,,,,,,,,,,,,,,,,,,,,,,,,,,,,,,,,,,,
120589,001,2022-11-20_23h58.51.464,Info_measure_main_exp,2022.2.2,Win32,60.28090904,,,,,,,,,,,,,,,,,,masks/mask_005.jpg,,,,,,,,,,,,,,,,,,,,,,,,,,,,,,,,,,,,,,,,,,,,,,,,0,3,3,4,1,,,,,,,,,,,,,,,,,,,,,,,,,,,,,,,,,,,,,,,,,
120589,001,2022-11-20_23h58.51.464,Info_measure_main_exp,2022.2.2,Win32,60.28090904,,,,,,,,,,,,,,,,,,masks/mask_004.jpg,,,,,,,,,,,,,,,,,,,,,,,,,,,,,,,,,,,,,,,,,,,,,,,,0,4,4,3,1,,,,,,,,,,,,,,,,,,,,,,,,,,,,,,,,,,,,,,,,,
120589,001,2022-11-20_23h58.51.464,Info_measure_main_exp,2022.2.2,Win32,60.28090904,,,,,,,,,,,,,,,,,,,,,,,,,,,,,,6,1.3832,1,,,,,,,,,,,,0,131,5,5,2214,2082,absent_patch/patch0002214.jpg,absent_patch/patch0002082.jpg,,,,,,,,,,,,,,,,,,,,0.093518504,0.04074072,1,0,0,response1disk,7,0.005555541,-0.000925947,1,0,0,center_square,0,6,6,103,1,,,,,,,,,,,,,,,,,,,,,,,
120589,001,2022-11-20_23h58.51.464,Info_measure_main_exp,2022.2.2,Win32,60.28090904,,,,,,,,,,,,,,,,,,masks/mask_001.jpg,,,,,,,,,,,,,,,,,,,,,,,,,,,,,,,,,,,,,,,,,,,0,0,0,0,1,,,,,,,,,,,,,,,,,,,,,,,,,,,,,,,,,,,,,,,,,,,,,,
120589,001,2022-11-20_23h58.51.464,Info_measure_main_exp,2022.2.2,Win32,60.28090904,,,,,,,,,,,,,,,,,,masks/mask_003.jpg,,,,,,,,,,,,,,,,,,,,,,,,,,,,,,,,,,,,,,,,,,,0,1,1,2,1,,,,,,,,,,,,,,,,,,,,,,,,,,,,,,,,,,,,,,,,,,,,,,
120589,001,2022-11-20_23h58.51.464,Info_measure_main_exp,2022.2.2,Win32,60.28090904,,,,,,,,,,,,,,,,,,masks/mask_002.jpg,,,,,,,,,,,,,,,,,,,,,,,,,,,,,,,,,,,,,,,,,,,0,2,2,1,1,,,,,,,,,,,,,,,,,,,,,,,,,,,,,,,,,,,,,,,,,,,,,,
120589,001,2022-11-20_23h58.51.464,Info_measure_main_exp,2022.2.2,Win32,60.28090904,,,,,,,,,,,,,,,,,,masks/mask_004.jpg,,,,,,,,,,,,,,,,,,,,,,,,,,,,,,,,,,,,,,,,,,,0,3,3,3,1,,,,,,,,,,,,,,,,,,,,,,,,,,,,,,,,,,,,,,,,,,,,,,
120589,001,2022-11-20_23h58.51.464,Info_measure_main_exp,2022.2.2,Win32,60.28090904,,,,,,,,,,,,,,,,,,masks/mask_005.jpg,,,,,,,,,,,,,,,,,,,,,,,,,,,,,,,,,,,,,,,,,,,0,4,4,4,1,,,,,,,,,,,,,,,,,,,,,,,,,,,,,,,,,,,,,,,,,,,,,,
120589,001,2022-11-20_23h58.51.464,Info_measure_main_exp,2022.2.2,Win32,60.28090904,,,,,,,,,,,,,,,,,,masks/mask_002.jpg,,,,,,,,,,,,,,,,,,,,,,,,,,,,,,,,,,,,,,,,,,,,,,,,0,0,0,1,1,,,,,,,,,,,,,,,,,,,,,,,,,,,,,,,,,,,,,,,,,
120589,001,2022-11-20_23h58.51.464,Info_measure_main_exp,2022.2.2,Win32,60.28090904,,,,,,,,,,,,,,,,,,masks/mask_005.jpg,,,,,,,,,,,,,,,,,,,,,,,,,,,,,,,,,,,,,,,,,,,,,,,,0,1,1,4,1,,,,,,,,,,,,,,,,,,,,,,,,,,,,,,,,,,,,,,,,,
120589,001,2022-11-20_23h58.51.464,Info_measure_main_exp,2022.2.2,Win32,60.28090904,,,,,,,,,,,,,,,,,,masks/mask_004.jpg,,,,,,,,,,,,,,,,,,,,,,,,,,,,,,,,,,,,,,,,,,,,,,,,0,2,2,3,1,,,,,,,,,,,,,,,,,,,,,,,,,,,,,,,,,,,,,,,,,
120589,001,2022-11-20_23h58.51.464,Info_measure_main_exp,2022.2.2,Win32,60.28090904,,,,,,,,,,,,,,,,,,masks/mask_001.jpg,,,,,,,,,,,,,,,,,,,,,,,,,,,,,,,,,,,,,,,,,,,,,,,,0,3,3,0,1,,,,,,,,,,,,,,,,,,,,,,,,,,,,,,,,,,,,,,,,,
120589,001,2022-11-20_23h58.51.464,Info_measure_main_exp,2022.2.2,Win32,60.28090904,,,,,,,,,,,,,,,,,,masks/mask_003.jpg,,,,,,,,,,,,,,,,,,,,,,,,,,,,,,,,,,,,,,,,,,,,,,,,0,4,4,2,1,,,,,,,,,,,,,,,,,,,,,,,,,,,,,,,,,,,,,,,,,
120589,001,2022-11-20_23h58.51.464,Info_measure_main_exp,2022.2.2,Win32,60.28090904,,,,,,,,,,,,,,,,,,,,,,,,,,,,,,4,1.4333,1,,,,,,,,,,,,0,131,5,5,2190,1950,absent_patch/patch0002190.jpg,absent_patch/patch0001950.jpg,,,,,,,,,,,,,,,,,,,,0.005555541,-0.080555563,1,0,0,response3disk,8,-0.003703718,-0.006481489,1,0,0,center_square,0,7,7,73,1,,,,,,,,,,,,,,,,,,,,,,,
120589,001,2022-11-20_23h58.51.464,Info_measure_main_exp,2022.2.2,Win32,60.28090904,,,,,,,,,,,,,,,,,,masks/mask_002.jpg,,,,,,,,,,,,,,,,,,,,,,,,,,,,,,,,,,,,,,,,,,,0,0,0,1,1,,,,,,,,,,,,,,,,,,,,,,,,,,,,,,,,,,,,,,,,,,,,,,
120589,001,2022-11-20_23h58.51.464,Info_measure_main_exp,2022.2.2,Win32,60.28090904,,,,,,,,,,,,,,,,,,masks/mask_001.jpg,,,,,,,,,,,,,,,,,,,,,,,,,,,,,,,,,,,,,,,,,,,0,1,1,0,1,,,,,,,,,,,,,,,,,,,,,,,,,,,,,,,,,,,,,,,,,,,,,,
120589,001,2022-11-20_23h58.51.464,Info_measure_main_exp,2022.2.2,Win32,60.28090904,,,,,,,,,,,,,,,,,,masks/mask_005.jpg,,,,,,,,,,,,,,,,,,,,,,,,,,,,,,,,,,,,,,,,,,,0,2,2,4,1,,,,,,,,,,,,,,,,,,,,,,,,,,,,,,,,,,,,,,,,,,,,,,
120589,001,2022-11-20_23h58.51.464,Info_measure_main_exp,2022.2.2,Win32,60.28090904,,,,,,,,,,,,,,,,,,masks/mask_003.jpg,,,,,,,,,,,,,,,,,,,,,,,,,,,,,,,,,,,,,,,,,,,0,3,3,2,1,,,,,,,,,,,,,,,,,,,,,,,,,,,,,,,,,,,,,,,,,,,,,,
120589,001,2022-11-20_23h58.51.464,Info_measure_main_exp,2022.2.2,Win32,60.28090904,,,,,,,,,,,,,,,,,,masks/mask_004.jpg,,,,,,,,,,,,,,,,,,,,,,,,,,,,,,,,,,,,,,,,,,,0,4,4,3,1,,,,,,,,,,,,,,,,,,,,,,,,,,,,,,,,,,,,,,,,,,,,,,
120589,001,2022-11-20_23h58.51.464,Info_measure_main_exp,2022.2.2,Win32,60.28090904,,,,,,,,,,,,,,,,,,masks/mask_005.jpg,,,,,,,,,,,,,,,,,,,,,,,,,,,,,,,,,,,,,,,,,,,,,,,,0,0,0,4,1,,,,,,,,,,,,,,,,,,,,,,,,,,,,,,,,,,,,,,,,,
120589,001,2022-11-20_23h58.51.464,Info_measure_main_exp,2022.2.2,Win32,60.28090904,,,,,,,,,,,,,,,,,,masks/mask_003.jpg,,,,,,,,,,,,,,,,,,,,,,,,,,,,,,,,,,,,,,,,,,,,,,,,0,1,1,2,1,,,,,,,,,,,,,,,,,,,,,,,,,,,,,,,,,,,,,,,,,
120589,001,2022-11-20_23h58.51.464,Info_measure_main_exp,2022.2.2,Win32,60.28090904,,,,,,,,,,,,,,,,,,masks/mask_002.jpg,,,,,,,,,,,,,,,,,,,,,,,,,,,,,,,,,,,,,,,,,,,,,,,,0,2,2,1,1,,,,,,,,,,,,,,,,,,,,,,,,,,,,,,,,,,,,,,,,,
120589,001,2022-11-20_23h58.51.464,Info_measure_main_exp,2022.2.2,Win32,60.28090904,,,,,,,,,,,,,,,,,,masks/mask_001.jpg,,,,,,,,,,,,,,,,,,,,,,,,,,,,,,,,,,,,,,,,,,,,,,,,0,3,3,0,1,,,,,,,,,,,,,,,,,,,,,,,,,,,,,,,,,,,,,,,,,
120589,001,2022-11-20_23h58.51.464,Info_measure_main_exp,2022.2.2,Win32,60.28090904,,,,,,,,,,,,,,,,,,masks/mask_004.jpg,,,,,,,,,,,,,,,,,,,,,,,,,,,,,,,,,,,,,,,,,,,,,,,,0,4,4,3,1,,,,,,,,,,,,,,,,,,,,,,,,,,,,,,,,,,,,,,,,,
120589,001,2022-11-20_23h58.51.464,Info_measure_main_exp,2022.2.2,Win32,60.28090904,,,,,,,,,,,,,,,,,,,,,,,,,,,,,,5,2.1667,1,,,,,,,,,,,,1,131,5,5,1,2154,present_patch/cong_131_5_a.jpg,absent_patch/patch0002154.jpg,,,,,,,,,,,,,,,,,,,,0.089814857,-0.037037037,1,0,0,response3disk,9,0.005555541,-0.000925947,1,0,0,center_square,0,8,8,87,1,,,,,,,,,,,,,,,,,,,,,,,
120589,001,2022-11-20_23h58.51.464,Info_measure_main_exp,2022.2.2,Win32,60.28090904,,,,,,,,,,,,,,,,,,masks/mask_003.jpg,,,,,,,,,,,,,,,,,,,,,,,,,,,,,,,,,,,,,,,,,,,0,0,0,2,1,,,,,,,,,,,,,,,,,,,,,,,,,,,,,,,,,,,,,,,,,,,,,,
120589,001,2022-11-20_23h58.51.464,Info_measure_main_exp,2022.2.2,Win32,60.28090904,,,,,,,,,,,,,,,,,,masks/mask_002.jpg,,,,,,,,,,,,,,,,,,,,,,,,,,,,,,,,,,,,,,,,,,,0,1,1,1,1,,,,,,,,,,,,,,,,,,,,,,,,,,,,,,,,,,,,,,,,,,,,,,
120589,001,2022-11-20_23h58.51.464,Info_measure_main_exp,2022.2.2,Win32,60.28090904,,,,,,,,,,,,,,,,,,masks/mask_001.jpg,,,,,,,,,,,,,,,,,,,,,,,,,,,,,,,,,,,,,,,,,,,0,2,2,0,1,,,,,,,,,,,,,,,,,,,,,,,,,,,,,,,,,,,,,,,,,,,,,,
120589,001,2022-11-20_23h58.51.464,Info_measure_main_exp,2022.2.2,Win32,60.28090904,,,,,,,,,,,,,,,,,,masks/mask_005.jpg,,,,,,,,,,,,,,,,,,,,,,,,,,,,,,,,,,,,,,,,,,,0,3,3,4,1,,,,,,,,,,,,,,,,,,,,,,,,,,,,,,,,,,,,,,,,,,,,,,
120589,001,2022-11-20_23h58.51.464,Info_measure_main_exp,2022.2.2,Win32,60.28090904,,,,,,,,,,,,,,,,,,masks/mask_004.jpg,,,,,,,,,,,,,,,,,,,,,,,,,,,,,,,,,,,,,,,,,,,0,4,4,3,1,,,,,,,,,,,,,,,,,,,,,,,,,,,,,,,,,,,,,,,,,,,,,,
120589,001,2022-11-20_23h58.51.464,Info_measure_main_exp,2022.2.2,Win32,60.28090904,,,,,,,,,,,,,,,,,,masks/mask_003.jpg,,,,,,,,,,,,,,,,,,,,,,,,,,,,,,,,,,,,,,,,,,,,,,,,0,0,0,2,1,,,,,,,,,,,,,,,,,,,,,,,,,,,,,,,,,,,,,,,,,
120589,001,2022-11-20_23h58.51.464,Info_measure_main_exp,2022.2.2,Win32,60.28090904,,,,,,,,,,,,,,,,,,masks/mask_002.jpg,,,,,,,,,,,,,,,,,,,,,,,,,,,,,,,,,,,,,,,,,,,,,,,,0,1,1,1,1,,,,,,,,,,,,,,,,,,,,,,,,,,,,,,,,,,,,,,,,,
120589,001,2022-11-20_23h58.51.464,Info_measure_main_exp,2022.2.2,Win32,60.28090904,,,,,,,,,,,,,,,,,,masks/mask_004.jpg,,,,,,,,,,,,,,,,,,,,,,,,,,,,,,,,,,,,,,,,,,,,,,,,0,2,2,3,1,,,,,,,,,,,,,,,,,,,,,,,,,,,,,,,,,,,,,,,,,
120589,001,2022-11-20_23h58.51.464,Info_measure_main_exp,2022.2.2,Win32,60.28090904,,,,,,,,,,,,,,,,,,masks/mask_001.jpg,,,,,,,,,,,,,,,,,,,,,,,,,,,,,,,,,,,,,,,,,,,,,,,,0,3,3,0,1,,,,,,,,,,,,,,,,,,,,,,,,,,,,,,,,,,,,,,,,,
120589,001,2022-11-20_23h58.51.464,Info_measure_main_exp,2022.2.2,Win32,60.28090904,,,,,,,,,,,,,,,,,,masks/mask_005.jpg,,,,,,,,,,,,,,,,,,,,,,,,,,,,,,,,,,,,,,,,,,,,,,,,0,4,4,4,1,,,,,,,,,,,,,,,,,,,,,,,,,,,,,,,,,,,,,,,,,
120589,001,2022-11-20_23h58.51.464,Info_measure_main_exp,2022.2.2,Win32,60.28090904,,,,,,,,,,,,,,,,,,,,,,,,,,,,,,6,0.9832,1,,,,,,,,,,,,1,131,5,5,1,2142,present_patch/cong_131_5_a.jpg,absent_patch/patch0002142.jpg,,,,,,,,,,,,,,,,,,,,0.112963005,0.097222222,1,0,0,response1disk,10,0.010185171,0.005555541,1,0,0,center_square,0,9,9,80,1,,,,,,,,,,,,,,,,,,,,,,,
120589,001,2022-11-20_23h58.51.464,Info_measure_main_exp,2022.2.2,Win32,60.28090904,,,,,,,,,,,,,,,,,,masks/mask_001.jpg,,,,,,,,,,,,,,,,,,,,,,,,,,,,,,,,,,,,,,,,,,,0,0,0,0,1,,,,,,,,,,,,,,,,,,,,,,,,,,,,,,,,,,,,,,,,,,,,,,
120589,001,2022-11-20_23h58.51.464,Info_measure_main_exp,2022.2.2,Win32,60.28090904,,,,,,,,,,,,,,,,,,masks/mask_003.jpg,,,,,,,,,,,,,,,,,,,,,,,,,,,,,,,,,,,,,,,,,,,0,1,1,2,1,,,,,,,,,,,,,,,,,,,,,,,,,,,,,,,,,,,,,,,,,,,,,,
120589,001,2022-11-20_23h58.51.464,Info_measure_main_exp,2022.2.2,Win32,60.28090904,,,,,,,,,,,,,,,,,,masks/mask_005.jpg,,,,,,,,,,,,,,,,,,,,,,,,,,,,,,,,,,,,,,,,,,,0,2,2,4,1,,,,,,,,,,,,,,,,,,,,,,,,,,,,,,,,,,,,,,,,,,,,,,
120589,001,2022-11-20_23h58.51.464,Info_measure_main_exp,2022.2.2,Win32,60.28090904,,,,,,,,,,,,,,,,,,masks/mask_004.jpg,,,,,,,,,,,,,,,,,,,,,,,,,,,,,,,,,,,,,,,,,,,0,3,3,3,1,,,,,,,,,,,,,,,,,,,,,,,,,,,,,,,,,,,,,,,,,,,,,,
120589,001,2022-11-20_23h58.51.464,Info_measure_main_exp,2022.2.2,Win32,60.28090904,,,,,,,,,,,,,,,,,,masks/mask_002.jpg,,,,,,,,,,,,,,,,,,,,,,,,,,,,,,,,,,,,,,,,,,,0,4,4,1,1,,,,,,,,,,,,,,,,,,,,,,,,,,,,,,,,,,,,,,,,,,,,,,
120589,001,2022-11-20_23h58.51.464,Info_measure_main_exp,2022.2.2,Win32,60.28090904,,,,,,,,,,,,,,,,,,masks/mask_005.jpg,,,,,,,,,,,,,,,,,,,,,,,,,,,,,,,,,,,,,,,,,,,,,,,,0,0,0,4,1,,,,,,,,,,,,,,,,,,,,,,,,,,,,,,,,,,,,,,,,,
120589,001,2022-11-20_23h58.51.464,Info_measure_main_exp,2022.2.2,Win32,60.28090904,,,,,,,,,,,,,,,,,,masks/mask_004.jpg,,,,,,,,,,,,,,,,,,,,,,,,,,,,,,,,,,,,,,,,,,,,,,,,0,1,1,3,1,,,,,,,,,,,,,,,,,,,,,,,,,,,,,,,,,,,,,,,,,
120589,001,2022-11-20_23h58.51.464,Info_measure_main_exp,2022.2.2,Win32,60.28090904,,,,,,,,,,,,,,,,,,masks/mask_002.jpg,,,,,,,,,,,,,,,,,,,,,,,,,,,,,,,,,,,,,,,,,,,,,,,,0,2,2,1,1,,,,,,,,,,,,,,,,,,,,,,,,,,,,,,,,,,,,,,,,,
120589,001,2022-11-20_23h58.51.464,Info_measure_main_exp,2022.2.2,Win32,60.28090904,,,,,,,,,,,,,,,,,,masks/mask_003.jpg,,,,,,,,,,,,,,,,,,,,,,,,,,,,,,,,,,,,,,,,,,,,,,,,0,3,3,2,1,,,,,,,,,,,,,,,,,,,,,,,,,,,,,,,,,,,,,,,,,
120589,001,2022-11-20_23h58.51.464,Info_measure_main_exp,2022.2.2,Win32,60.28090904,,,,,,,,,,,,,,,,,,masks/mask_001.jpg,,,,,,,,,,,,,,,,,,,,,,,,,,,,,,,,,,,,,,,,,,,,,,,,0,4,4,0,1,,,,,,,,,,,,,,,,,,,,,,,,,,,,,,,,,,,,,,,,,
120589,001,2022-11-20_23h58.51.464,Info_measure_main_exp,2022.2.2,Win32,60.28090904,,,,,,,,,,,,,,,,,,,,,,,,,,,,,,7,0.7835,1,,,,,,,,,,,,0,131,5,5,2214,1986,absent_patch/patch0002214.jpg,absent_patch/patch0001986.jpg,,,,,,,,,,,,,,,,,,,,0.031481496,0.104629623,1,0,0,response1disk,11,0.008333347,0.006481489,1,0,0,center_square,0,10,10,34,1,,,,,,,,,,,,,,,,,,,,,,,
120589,001,2022-11-20_23h58.51.464,Info_measure_main_exp,2022.2.2,Win32,60.28090904,,,,,,,,,,,,,,,,,,masks/mask_002.jpg,,,,,,,,,,,,,,,,,,,,,,,,,,,,,,,,,,,,,,,,,,,0,0,0,1,1,,,,,,,,,,,,,,,,,,,,,,,,,,,,,,,,,,,,,,,,,,,,,,
120589,001,2022-11-20_23h58.51.464,Info_measure_main_exp,2022.2.2,Win32,60.28090904,,,,,,,,,,,,,,,,,,masks/mask_005.jpg,,,,,,,,,,,,,,,,,,,,,,,,,,,,,,,,,,,,,,,,,,,0,1,1,4,1,,,,,,,,,,,,,,,,,,,,,,,,,,,,,,,,,,,,,,,,,,,,,,
120589,001,2022-11-20_23h58.51.464,Info_measure_main_exp,2022.2.2,Win32,60.28090904,,,,,,,,,,,,,,,,,,masks/mask_001.jpg,,,,,,,,,,,,,,,,,,,,,,,,,,,,,,,,,,,,,,,,,,,0,2,2,0,1,,,,,,,,,,,,,,,,,,,,,,,,,,,,,,,,,,,,,,,,,,,,,,
120589,001,2022-11-20_23h58.51.464,Info_measure_main_exp,2022.2.2,Win32,60.28090904,,,,,,,,,,,,,,,,,,masks/mask_004.jpg,,,,,,,,,,,,,,,,,,,,,,,,,,,,,,,,,,,,,,,,,,,0,3,3,3,1,,,,,,,,,,,,,,,,,,,,,,,,,,,,,,,,,,,,,,,,,,,,,,
120589,001,2022-11-20_23h58.51.464,Info_measure_main_exp,2022.2.2,Win32,60.28090904,,,,,,,,,,,,,,,,,,masks/mask_003.jpg,,,,,,,,,,,,,,,,,,,,,,,,,,,,,,,,,,,,,,,,,,,0,4,4,2,1,,,,,,,,,,,,,,,,,,,,,,,,,,,,,,,,,,,,,,,,,,,,,,
120589,001,2022-11-20_23h58.51.464,Info_measure_main_exp,2022.2.2,Win32,60.28090904,,,,,,,,,,,,,,,,,,masks/mask_004.jpg,,,,,,,,,,,,,,,,,,,,,,,,,,,,,,,,,,,,,,,,,,,,,,,,0,0,0,3,1,,,,,,,,,,,,,,,,,,,,,,,,,,,,,,,,,,,,,,,,,
120589,001,2022-11-20_23h58.51.464,Info_measure_main_exp,2022.2.2,Win32,60.28090904,,,,,,,,,,,,,,,,,,masks/mask_003.jpg,,,,,,,,,,,,,,,,,,,,,,,,,,,,,,,,,,,,,,,,,,,,,,,,0,1,1,2,1,,,,,,,,,,,,,,,,,,,,,,,,,,,,,,,,,,,,,,,,,
120589,001,2022-11-20_23h58.51.464,Info_measure_main_exp,2022.2.2,Win32,60.28090904,,,,,,,,,,,,,,,,,,masks/mask_002.jpg,,,,,,,,,,,,,,,,,,,,,,,,,,,,,,,,,,,,,,,,,,,,,,,,0,2,2,1,1,,,,,,,,,,,,,,,,,,,,,,,,,,,,,,,,,,,,,,,,,
120589,001,2022-11-20_23h58.51.464,Info_measure_main_exp,2022.2.2,Win32,60.28090904,,,,,,,,,,,,,,,,,,masks/mask_005.jpg,,,,,,,,,,,,,,,,,,,,,,,,,,,,,,,,,,,,,,,,,,,,,,,,0,3,3,4,1,,,,,,,,,,,,,,,,,,,,,,,,,,,,,,,,,,,,,,,,,
120589,001,2022-11-20_23h58.51.464,Info_measure_main_exp,2022.2.2,Win32,60.28090904,,,,,,,,,,,,,,,,,,masks/mask_001.jpg,,,,,,,,,,,,,,,,,,,,,,,,,,,,,,,,,,,,,,,,,,,,,,,,0,4,4,0,1,,,,,,,,,,,,,,,,,,,,,,,,,,,,,,,,,,,,,,,,,
120589,001,2022-11-20_23h58.51.464,Info_measure_main_exp,2022.2.2,Win32,60.28090904,,,,,,,,,,,,,,,,,,,,,,,,,,,,,,7,0.7179,1,,,,,,,,,,,,0,131,5,5,2274,2214,absent_patch/patch0002274.jpg,absent_patch/patch0002214.jpg,,,,,,,,,,,,,,,,,,,,0.027777778,0.092592593,1,0,0,response1disk,12,-0.00462963,-0.001851859,1,0,0,center_square,0,11,11,11,1,,,,,,,,,,,,,,,,,,,,,,,
120589,001,2022-11-20_23h58.51.464,Info_measure_main_exp,2022.2.2,Win32,60.28090904,,,,,,,,,,,,,,,,,,masks/mask_004.jpg,,,,,,,,,,,,,,,,,,,,,,,,,,,,,,,,,,,,,,,,,,,0,0,0,3,1,,,,,,,,,,,,,,,,,,,,,,,,,,,,,,,,,,,,,,,,,,,,,,
120589,001,2022-11-20_23h58.51.464,Info_measure_main_exp,2022.2.2,Win32,60.28090904,,,,,,,,,,,,,,,,,,masks/mask_001.jpg,,,,,,,,,,,,,,,,,,,,,,,,,,,,,,,,,,,,,,,,,,,0,1,1,0,1,,,,,,,,,,,,,,,,,,,,,,,,,,,,,,,,,,,,,,,,,,,,,,
120589,001,2022-11-20_23h58.51.464,Info_measure_main_exp,2022.2.2,Win32,60.28090904,,,,,,,,,,,,,,,,,,masks/mask_005.jpg,,,,,,,,,,,,,,,,,,,,,,,,,,,,,,,,,,,,,,,,,,,0,2,2,4,1,,,,,,,,,,,,,,,,,,,,,,,,,,,,,,,,,,,,,,,,,,,,,,
120589,001,2022-11-20_23h58.51.464,Info_measure_main_exp,2022.2.2,Win32,60.28090904,,,,,,,,,,,,,,,,,,masks/mask_003.jpg,,,,,,,,,,,,,,,,,,,,,,,,,,,,,,,,,,,,,,,,,,,0,3,3,2,1,,,,,,,,,,,,,,,,,,,,,,,,,,,,,,,,,,,,,,,,,,,,,,
120589,001,2022-11-20_23h58.51.464,Info_measure_main_exp,2022.2.2,Win32,60.28090904,,,,,,,,,,,,,,,,,,masks/mask_002.jpg,,,,,,,,,,,,,,,,,,,,,,,,,,,,,,,,,,,,,,,,,,,0,4,4,1,1,,,,,,,,,,,,,,,,,,,,,,,,,,,,,,,,,,,,,,,,,,,,,,
120589,001,2022-11-20_23h58.51.464,Info_measure_main_exp,2022.2.2,Win32,60.28090904,,,,,,,,,,,,,,,,,,masks/mask_002.jpg,,,,,,,,,,,,,,,,,,,,,,,,,,,,,,,,,,,,,,,,,,,,,,,,0,0,0,1,1,,,,,,,,,,,,,,,,,,,,,,,,,,,,,,,,,,,,,,,,,
120589,001,2022-11-20_23h58.51.464,Info_measure_main_exp,2022.2.2,Win32,60.28090904,,,,,,,,,,,,,,,,,,masks/mask_003.jpg,,,,,,,,,,,,,,,,,,,,,,,,,,,,,,,,,,,,,,,,,,,,,,,,0,1,1,2,1,,,,,,,,,,,,,,,,,,,,,,,,,,,,,,,,,,,,,,,,,
120589,001,2022-11-20_23h58.51.464,Info_measure_main_exp,2022.2.2,Win32,60.28090904,,,,,,,,,,,,,,,,,,masks/mask_001.jpg,,,,,,,,,,,,,,,,,,,,,,,,,,,,,,,,,,,,,,,,,,,,,,,,0,2,2,0,1,,,,,,,,,,,,,,,,,,,,,,,,,,,,,,,,,,,,,,,,,
120589,001,2022-11-20_23h58.51.464,Info_measure_main_exp,2022.2.2,Win32,60.28090904,,,,,,,,,,,,,,,,,,masks/mask_004.jpg,,,,,,,,,,,,,,,,,,,,,,,,,,,,,,,,,,,,,,,,,,,,,,,,0,3,3,3,1,,,,,,,,,,,,,,,,,,,,,,,,,,,,,,,,,,,,,,,,,
120589,001,2022-11-20_23h58.51.464,Info_measure_main_exp,2022.2.2,Win32,60.28090904,,,,,,,,,,,,,,,,,,masks/mask_005.jpg,,,,,,,,,,,,,,,,,,,,,,,,,,,,,,,,,,,,,,,,,,,,,,,,0,4,4,4,1,,,,,,,,,,,,,,,,,,,,,,,,,,,,,,,,,,,,,,,,,
120589,001,2022-11-20_23h58.51.464,Info_measure_main_exp,2022.2.2,Win32,60.28090904,,,,,,,,,,,,,,,,,,,,,,,,,,,,,,3,2.8496,1,,,,,,,,,,,,0,131,5,5,2154,2190,absent_patch/patch0002154.jpg,absent_patch/patch0002190.jpg,,,,,,,,,,,,,,,,,,,,-0.007407365,-0.034259266,1,0,0,response5disk,13,0,-0.005555577,1,0,0,center_square,0,12,12,68,1,,,,,,,,,,,,,,,,,,,,,,,
120589,001,2022-11-20_23h58.51.464,Info_measure_main_exp,2022.2.2,Win32,60.28090904,,,,,,,,,,,,,,,,,,masks/mask_004.jpg,,,,,,,,,,,,,,,,,,,,,,,,,,,,,,,,,,,,,,,,,,,0,0,0,3,1,,,,,,,,,,,,,,,,,,,,,,,,,,,,,,,,,,,,,,,,,,,,,,
120589,001,2022-11-20_23h58.51.464,Info_measure_main_exp,2022.2.2,Win32,60.28090904,,,,,,,,,,,,,,,,,,masks/mask_005.jpg,,,,,,,,,,,,,,,,,,,,,,,,,,,,,,,,,,,,,,,,,,,0,1,1,4,1,,,,,,,,,,,,,,,,,,,,,,,,,,,,,,,,,,,,,,,,,,,,,,
120589,001,2022-11-20_23h58.51.464,Info_measure_main_exp,2022.2.2,Win32,60.28090904,,,,,,,,,,,,,,,,,,masks/mask_001.jpg,,,,,,,,,,,,,,,,,,,,,,,,,,,,,,,,,,,,,,,,,,,0,2,2,0,1,,,,,,,,,,,,,,,,,,,,,,,,,,,,,,,,,,,,,,,,,,,,,,
120589,001,2022-11-20_23h58.51.464,Info_measure_main_exp,2022.2.2,Win32,60.28090904,,,,,,,,,,,,,,,,,,masks/mask_002.jpg,,,,,,,,,,,,,,,,,,,,,,,,,,,,,,,,,,,,,,,,,,,0,3,3,1,1,,,,,,,,,,,,,,,,,,,,,,,,,,,,,,,,,,,,,,,,,,,,,,
120589,001,2022-11-20_23h58.51.464,Info_measure_main_exp,2022.2.2,Win32,60.28090904,,,,,,,,,,,,,,,,,,masks/mask_003.jpg,,,,,,,,,,,,,,,,,,,,,,,,,,,,,,,,,,,,,,,,,,,0,4,4,2,1,,,,,,,,,,,,,,,,,,,,,,,,,,,,,,,,,,,,,,,,,,,,,,
120589,001,2022-11-20_23h58.51.464,Info_measure_main_exp,2022.2.2,Win32,60.28090904,,,,,,,,,,,,,,,,,,masks/mask_004.jpg,,,,,,,,,,,,,,,,,,,,,,,,,,,,,,,,,,,,,,,,,,,,,,,,0,0,0,3,1,,,,,,,,,,,,,,,,,,,,,,,,,,,,,,,,,,,,,,,,,
120589,001,2022-11-20_23h58.51.464,Info_measure_main_exp,2022.2.2,Win32,60.28090904,,,,,,,,,,,,,,,,,,masks/mask_001.jpg,,,,,,,,,,,,,,,,,,,,,,,,,,,,,,,,,,,,,,,,,,,,,,,,0,1,1,0,1,,,,,,,,,,,,,,,,,,,,,,,,,,,,,,,,,,,,,,,,,
120589,001,2022-11-20_23h58.51.464,Info_measure_main_exp,2022.2.2,Win32,60.28090904,,,,,,,,,,,,,,,,,,masks/mask_002.jpg,,,,,,,,,,,,,,,,,,,,,,,,,,,,,,,,,,,,,,,,,,,,,,,,0,2,2,1,1,,,,,,,,,,,,,,,,,,,,,,,,,,,,,,,,,,,,,,,,,
120589,001,2022-11-20_23h58.51.464,Info_measure_main_exp,2022.2.2,Win32,60.28090904,,,,,,,,,,,,,,,,,,masks/mask_003.jpg,,,,,,,,,,,,,,,,,,,,,,,,,,,,,,,,,,,,,,,,,,,,,,,,0,3,3,2,1,,,,,,,,,,,,,,,,,,,,,,,,,,,,,,,,,,,,,,,,,
120589,001,2022-11-20_23h58.51.464,Info_measure_main_exp,2022.2.2,Win32,60.28090904,,,,,,,,,,,,,,,,,,masks/mask_005.jpg,,,,,,,,,,,,,,,,,,,,,,,,,,,,,,,,,,,,,,,,,,,,,,,,0,4,4,4,1,,,,,,,,,,,,,,,,,,,,,,,,,,,,,,,,,,,,,,,,,
120589,001,2022-11-20_23h58.51.464,Info_measure_main_exp,2022.2.2,Win32,60.28090904,,,,,,,,,,,,,,,,,,,,,,,,,,,,,,6,0.9499,1,,,,,,,,,,,,0,131,5,5,2190,2214,absent_patch/patch0002190.jpg,absent_patch/patch0002214.jpg,,,,,,,,,,,,,,,,,,,,0.056481467,0.027777778,1,0,0,response1disk,14,0.003703718,0.002777771,1,0,0,center_square,0,13,13,35,1,,,,,,,,,,,,,,,,,,,,,,,
120589,001,2022-11-20_23h58.51.464,Info_measure_main_exp,2022.2.2,Win32,60.28090904,,,,,,,,,,,,,,,,,,masks/mask_002.jpg,,,,,,,,,,,,,,,,,,,,,,,,,,,,,,,,,,,,,,,,,,,0,0,0,1,1,,,,,,,,,,,,,,,,,,,,,,,,,,,,,,,,,,,,,,,,,,,,,,
120589,001,2022-11-20_23h58.51.464,Info_measure_main_exp,2022.2.2,Win32,60.28090904,,,,,,,,,,,,,,,,,,masks/mask_003.jpg,,,,,,,,,,,,,,,,,,,,,,,,,,,,,,,,,,,,,,,,,,,0,1,1,2,1,,,,,,,,,,,,,,,,,,,,,,,,,,,,,,,,,,,,,,,,,,,,,,
120589,001,2022-11-20_23h58.51.464,Info_measure_main_exp,2022.2.2,Win32,60.28090904,,,,,,,,,,,,,,,,,,masks/mask_005.jpg,,,,,,,,,,,,,,,,,,,,,,,,,,,,,,,,,,,,,,,,,,,0,2,2,4,1,,,,,,,,,,,,,,,,,,,,,,,,,,,,,,,,,,,,,,,,,,,,,,
120589,001,2022-11-20_23h58.51.464,Info_measure_main_exp,2022.2.2,Win32,60.28090904,,,,,,,,,,,,,,,,,,masks/mask_001.jpg,,,,,,,,,,,,,,,,,,,,,,,,,,,,,,,,,,,,,,,,,,,0,3,3,0,1,,,,,,,,,,,,,,,,,,,,,,,,,,,,,,,,,,,,,,,,,,,,,,
120589,001,2022-11-20_23h58.51.464,Info_measure_main_exp,2022.2.2,Win32,60.28090904,,,,,,,,,,,,,,,,,,masks/mask_004.jpg,,,,,,,,,,,,,,,,,,,,,,,,,,,,,,,,,,,,,,,,,,,0,4,4,3,1,,,,,,,,,,,,,,,,,,,,,,,,,,,,,,,,,,,,,,,,,,,,,,
120589,001,2022-11-20_23h58.51.464,Info_measure_main_exp,2022.2.2,Win32,60.28090904,,,,,,,,,,,,,,,,,,masks/mask_001.jpg,,,,,,,,,,,,,,,,,,,,,,,,,,,,,,,,,,,,,,,,,,,,,,,,0,0,0,0,1,,,,,,,,,,,,,,,,,,,,,,,,,,,,,,,,,,,,,,,,,
120589,001,2022-11-20_23h58.51.464,Info_measure_main_exp,2022.2.2,Win32,60.28090904,,,,,,,,,,,,,,,,,,masks/mask_002.jpg,,,,,,,,,,,,,,,,,,,,,,,,,,,,,,,,,,,,,,,,,,,,,,,,0,1,1,1,1,,,,,,,,,,,,,,,,,,,,,,,,,,,,,,,,,,,,,,,,,
120589,001,2022-11-20_23h58.51.464,Info_measure_main_exp,2022.2.2,Win32,60.28090904,,,,,,,,,,,,,,,,,,masks/mask_004.jpg,,,,,,,,,,,,,,,,,,,,,,,,,,,,,,,,,,,,,,,,,,,,,,,,0,2,2,3,1,,,,,,,,,,,,,,,,,,,,,,,,,,,,,,,,,,,,,,,,,
120589,001,2022-11-20_23h58.51.464,Info_measure_main_exp,2022.2.2,Win32,60.28090904,,,,,,,,,,,,,,,,,,masks/mask_003.jpg,,,,,,,,,,,,,,,,,,,,,,,,,,,,,,,,,,,,,,,,,,,,,,,,0,3,3,2,1,,,,,,,,,,,,,,,,,,,,,,,,,,,,,,,,,,,,,,,,,
120589,001,2022-11-20_23h58.51.464,Info_measure_main_exp,2022.2.2,Win32,60.28090904,,,,,,,,,,,,,,,,,,masks/mask_005.jpg,,,,,,,,,,,,,,,,,,,,,,,,,,,,,,,,,,,,,,,,,,,,,,,,0,4,4,4,1,,,,,,,,,,,,,,,,,,,,,,,,,,,,,,,,,,,,,,,,,
120589,001,2022-11-20_23h58.51.464,Info_measure_main_exp,2022.2.2,Win32,60.28090904,,,,,,,,,,,,,,,,,,,,,,,,,,,,,,0,0.7767,1,,,,,,,,,,,,0,131,5,5,2154,2154,absent_patch/patch0002154.jpg,absent_patch/patch0002154.jpg,,,,,,,,,,,,,,,,,,,,-0.025925884,0.112037023,1,0,0,response7disk,15,0.010185171,-0.002777771,1,0,0,center_square,0,14,14,89,1,,,,,,,,,,,,,,,,,,,,,,,
120589,001,2022-11-20_23h58.51.464,Info_measure_main_exp,2022.2.2,Win32,60.28090904,,,,,,,,,,,,,,,,,,masks/mask_004.jpg,,,,,,,,,,,,,,,,,,,,,,,,,,,,,,,,,,,,,,,,,,,0,0,0,3,1,,,,,,,,,,,,,,,,,,,,,,,,,,,,,,,,,,,,,,,,,,,,,,
120589,001,2022-11-20_23h58.51.464,Info_measure_main_exp,2022.2.2,Win32,60.28090904,,,,,,,,,,,,,,,,,,masks/mask_005.jpg,,,,,,,,,,,,,,,,,,,,,,,,,,,,,,,,,,,,,,,,,,,0,1,1,4,1,,,,,,,,,,,,,,,,,,,,,,,,,,,,,,,,,,,,,,,,,,,,,,
120589,001,2022-11-20_23h58.51.464,Info_measure_main_exp,2022.2.2,Win32,60.28090904,,,,,,,,,,,,,,,,,,masks/mask_001.jpg,,,,,,,,,,,,,,,,,,,,,,,,,,,,,,,,,,,,,,,,,,,0,2,2,0,1,,,,,,,,,,,,,,,,,,,,,,,,,,,,,,,,,,,,,,,,,,,,,,
120589,001,2022-11-20_23h58.51.464,Info_measure_main_exp,2022.2.2,Win32,60.28090904,,,,,,,,,,,,,,,,,,masks/mask_003.jpg,,,,,,,,,,,,,,,,,,,,,,,,,,,,,,,,,,,,,,,,,,,0,3,3,2,1,,,,,,,,,,,,,,,,,,,,,,,,,,,,,,,,,,,,,,,,,,,,,,
120589,001,2022-11-20_23h58.51.464,Info_measure_main_exp,2022.2.2,Win32,60.28090904,,,,,,,,,,,,,,,,,,masks/mask_002.jpg,,,,,,,,,,,,,,,,,,,,,,,,,,,,,,,,,,,,,,,,,,,0,4,4,1,1,,,,,,,,,,,,,,,,,,,,,,,,,,,,,,,,,,,,,,,,,,,,,,
120589,001,2022-11-20_23h58.51.464,Info_measure_main_exp,2022.2.2,Win32,60.28090904,,,,,,,,,,,,,,,,,,masks/mask_004.jpg,,,,,,,,,,,,,,,,,,,,,,,,,,,,,,,,,,,,,,,,,,,,,,,,0,0,0,3,1,,,,,,,,,,,,,,,,,,,,,,,,,,,,,,,,,,,,,,,,,
120589,001,2022-11-20_23h58.51.464,Info_measure_main_exp,2022.2.2,Win32,60.28090904,,,,,,,,,,,,,,,,,,masks/mask_005.jpg,,,,,,,,,,,,,,,,,,,,,,,,,,,,,,,,,,,,,,,,,,,,,,,,0,1,1,4,1,,,,,,,,,,,,,,,,,,,,,,,,,,,,,,,,,,,,,,,,,
120589,001,2022-11-20_23h58.51.464,Info_measure_main_exp,2022.2.2,Win32,60.28090904,,,,,,,,,,,,,,,,,,masks/mask_003.jpg,,,,,,,,,,,,,,,,,,,,,,,,,,,,,,,,,,,,,,,,,,,,,,,,0,2,2,2,1,,,,,,,,,,,,,,,,,,,,,,,,,,,,,,,,,,,,,,,,,
120589,001,2022-11-20_23h58.51.464,Info_measure_main_exp,2022.2.2,Win32,60.28090904,,,,,,,,,,,,,,,,,,masks/mask_001.jpg,,,,,,,,,,,,,,,,,,,,,,,,,,,,,,,,,,,,,,,,,,,,,,,,0,3,3,0,1,,,,,,,,,,,,,,,,,,,,,,,,,,,,,,,,,,,,,,,,,
120589,001,2022-11-20_23h58.51.464,Info_measure_main_exp,2022.2.2,Win32,60.28090904,,,,,,,,,,,,,,,,,,masks/mask_002.jpg,,,,,,,,,,,,,,,,,,,,,,,,,,,,,,,,,,,,,,,,,,,,,,,,0,4,4,1,1,,,,,,,,,,,,,,,,,,,,,,,,,,,,,,,,,,,,,,,,,
120589,001,2022-11-20_23h58.51.464,Info_measure_main_exp,2022.2.2,Win32,60.28090904,,,,,,,,,,,,,,,,,,,,,,,,,,,,,,2,1.3666,1,,,,,,,,,,,,0,131,5,5,2190,2082,absent_patch/patch0002190.jpg,absent_patch/patch0002082.jpg,,,,,,,,,,,,,,,,,,,,-0.075925898,-0.028703725,1,0,0,response5disk,16,0.006481524,0.008333312,1,0,0,center_square,0,15,15,112,1,,,,,,,,,,,,,,,,,,,,,,,
120589,001,2022-11-20_23h58.51.464,Info_measure_main_exp,2022.2.2,Win32,60.28090904,,,,,,,,,,,,,,,,,,masks/mask_003.jpg,,,,,,,,,,,,,,,,,,,,,,,,,,,,,,,,,,,,,,,,,,,0,0,0,2,1,,,,,,,,,,,,,,,,,,,,,,,,,,,,,,,,,,,,,,,,,,,,,,
120589,001,2022-11-20_23h58.51.464,Info_measure_main_exp,2022.2.2,Win32,60.28090904,,,,,,,,,,,,,,,,,,masks/mask_004.jpg,,,,,,,,,,,,,,,,,,,,,,,,,,,,,,,,,,,,,,,,,,,0,1,1,3,1,,,,,,,,,,,,,,,,,,,,,,,,,,,,,,,,,,,,,,,,,,,,,,
120589,001,2022-11-20_23h58.51.464,Info_measure_main_exp,2022.2.2,Win32,60.28090904,,,,,,,,,,,,,,,,,,masks/mask_001.jpg,,,,,,,,,,,,,,,,,,,,,,,,,,,,,,,,,,,,,,,,,,,0,2,2,0,1,,,,,,,,,,,,,,,,,,,,,,,,,,,,,,,,,,,,,,,,,,,,,,
120589,001,2022-11-20_23h58.51.464,Info_measure_main_exp,2022.2.2,Win32,60.28090904,,,,,,,,,,,,,,,,,,masks/mask_002.jpg,,,,,,,,,,,,,,,,,,,,,,,,,,,,,,,,,,,,,,,,,,,0,3,3,1,1,,,,,,,,,,,,,,,,,,,,,,,,,,,,,,,,,,,,,,,,,,,,,,
120589,001,2022-11-20_23h58.51.464,Info_measure_main_exp,2022.2.2,Win32,60.28090904,,,,,,,,,,,,,,,,,,masks/mask_005.jpg,,,,,,,,,,,,,,,,,,,,,,,,,,,,,,,,,,,,,,,,,,,0,4,4,4,1,,,,,,,,,,,,,,,,,,,,,,,,,,,,,,,,,,,,,,,,,,,,,,
120589,001,2022-11-20_23h58.51.464,Info_measure_main_exp,2022.2.2,Win32,60.28090904,,,,,,,,,,,,,,,,,,masks/mask_004.jpg,,,,,,,,,,,,,,,,,,,,,,,,,,,,,,,,,,,,,,,,,,,,,,,,0,0,0,3,1,,,,,,,,,,,,,,,,,,,,,,,,,,,,,,,,,,,,,,,,,
120589,001,2022-11-20_23h58.51.464,Info_measure_main_exp,2022.2.2,Win32,60.28090904,,,,,,,,,,,,,,,,,,masks/mask_001.jpg,,,,,,,,,,,,,,,,,,,,,,,,,,,,,,,,,,,,,,,,,,,,,,,,0,1,1,0,1,,,,,,,,,,,,,,,,,,,,,,,,,,,,,,,,,,,,,,,,,
120589,001,2022-11-20_23h58.51.464,Info_measure_main_exp,2022.2.2,Win32,60.28090904,,,,,,,,,,,,,,,,,,masks/mask_003.jpg,,,,,,,,,,,,,,,,,,,,,,,,,,,,,,,,,,,,,,,,,,,,,,,,0,2,2,2,1,,,,,,,,,,,,,,,,,,,,,,,,,,,,,,,,,,,,,,,,,
120589,001,2022-11-20_23h58.51.464,Info_measure_main_exp,2022.2.2,Win32,60.28090904,,,,,,,,,,,,,,,,,,masks/mask_002.jpg,,,,,,,,,,,,,,,,,,,,,,,,,,,,,,,,,,,,,,,,,,,,,,,,0,3,3,1,1,,,,,,,,,,,,,,,,,,,,,,,,,,,,,,,,,,,,,,,,,
120589,001,2022-11-20_23h58.51.464,Info_measure_main_exp,2022.2.2,Win32,60.28090904,,,,,,,,,,,,,,,,,,masks/mask_005.jpg,,,,,,,,,,,,,,,,,,,,,,,,,,,,,,,,,,,,,,,,,,,,,,,,0,4,4,4,1,,,,,,,,,,,,,,,,,,,,,,,,,,,,,,,,,,,,,,,,,
120589,001,2022-11-20_23h58.51.464,Info_measure_main_exp,2022.2.2,Win32,60.28090904,,,,,,,,,,,,,,,,,,,,,,,,,,,,,,7,1.2334,1,,,,,,,,,,,,0,131,5,5,2250,2238,absent_patch/patch0002250.jpg,absent_patch/patch0002238.jpg,,,,,,,,,,,,,,,,,,,,0.039814843,0.102777764,1,0,0,response1disk,17,0.003703718,0,1,0,0,center_square,0,16,16,110,1,,,,,,,,,,,,,,,,,,,,,,,
120589,001,2022-11-20_23h58.51.464,Info_measure_main_exp,2022.2.2,Win32,60.28090904,,,,,,,,,,,,,,,,,,masks/mask_003.jpg,,,,,,,,,,,,,,,,,,,,,,,,,,,,,,,,,,,,,,,,,,,0,0,0,2,1,,,,,,,,,,,,,,,,,,,,,,,,,,,,,,,,,,,,,,,,,,,,,,
120589,001,2022-11-20_23h58.51.464,Info_measure_main_exp,2022.2.2,Win32,60.28090904,,,,,,,,,,,,,,,,,,masks/mask_001.jpg,,,,,,,,,,,,,,,,,,,,,,,,,,,,,,,,,,,,,,,,,,,0,1,1,0,1,,,,,,,,,,,,,,,,,,,,,,,,,,,,,,,,,,,,,,,,,,,,,,
120589,001,2022-11-20_23h58.51.464,Info_measure_main_exp,2022.2.2,Win32,60.28090904,,,,,,,,,,,,,,,,,,masks/mask_005.jpg,,,,,,,,,,,,,,,,,,,,,,,,,,,,,,,,,,,,,,,,,,,0,2,2,4,1,,,,,,,,,,,,,,,,,,,,,,,,,,,,,,,,,,,,,,,,,,,,,,
120589,001,2022-11-20_23h58.51.464,Info_measure_main_exp,2022.2.2,Win32,60.28090904,,,,,,,,,,,,,,,,,,masks/mask_004.jpg,,,,,,,,,,,,,,,,,,,,,,,,,,,,,,,,,,,,,,,,,,,0,3,3,3,1,,,,,,,,,,,,,,,,,,,,,,,,,,,,,,,,,,,,,,,,,,,,,,
120589,001,2022-11-20_23h58.51.464,Info_measure_main_exp,2022.2.2,Win32,60.28090904,,,,,,,,,,,,,,,,,,masks/mask_002.jpg,,,,,,,,,,,,,,,,,,,,,,,,,,,,,,,,,,,,,,,,,,,0,4,4,1,1,,,,,,,,,,,,,,,,,,,,,,,,,,,,,,,,,,,,,,,,,,,,,,
120589,001,2022-11-20_23h58.51.464,Info_measure_main_exp,2022.2.2,Win32,60.28090904,,,,,,,,,,,,,,,,,,masks/mask_002.jpg,,,,,,,,,,,,,,,,,,,,,,,,,,,,,,,,,,,,,,,,,,,,,,,,0,0,0,1,1,,,,,,,,,,,,,,,,,,,,,,,,,,,,,,,,,,,,,,,,,
120589,001,2022-11-20_23h58.51.464,Info_measure_main_exp,2022.2.2,Win32,60.28090904,,,,,,,,,,,,,,,,,,masks/mask_004.jpg,,,,,,,,,,,,,,,,,,,,,,,,,,,,,,,,,,,,,,,,,,,,,,,,0,1,1,3,1,,,,,,,,,,,,,,,,,,,,,,,,,,,,,,,,,,,,,,,,,
120589,001,2022-11-20_23h58.51.464,Info_measure_main_exp,2022.2.2,Win32,60.28090904,,,,,,,,,,,,,,,,,,masks/mask_001.jpg,,,,,,,,,,,,,,,,,,,,,,,,,,,,,,,,,,,,,,,,,,,,,,,,0,2,2,0,1,,,,,,,,,,,,,,,,,,,,,,,,,,,,,,,,,,,,,,,,,
120589,001,2022-11-20_23h58.51.464,Info_measure_main_exp,2022.2.2,Win32,60.28090904,,,,,,,,,,,,,,,,,,masks/mask_003.jpg,,,,,,,,,,,,,,,,,,,,,,,,,,,,,,,,,,,,,,,,,,,,,,,,0,3,3,2,1,,,,,,,,,,,,,,,,,,,,,,,,,,,,,,,,,,,,,,,,,
120589,001,2022-11-20_23h58.51.464,Info_measure_main_exp,2022.2.2,Win32,60.28090904,,,,,,,,,,,,,,,,,,masks/mask_005.jpg,,,,,,,,,,,,,,,,,,,,,,,,,,,,,,,,,,,,,,,,,,,,,,,,0,4,4,4,1,,,,,,,,,,,,,,,,,,,,,,,,,,,,,,,,,,,,,,,,,
120589,001,2022-11-20_23h58.51.464,Info_measure_main_exp,2022.2.2,Win32,60.28090904,,,,,,,,,,,,,,,,,,,,,,,,,,,,,,3,0.9947,1,,,,,,,,,,,,0,131,5,5,1974,2142,absent_patch/patch0001974.jpg,absent_patch/patch0002142.jpg,,,,,,,,,,,,,,,,,,,,-0.020370342,-0.054629644,1,0,0,response5disk,18,-0.007407365,-0.008333347,1,0,0,center_square,0,17,17,38,1,,,,,,,,,,,,,,,,,,,,,,,
120589,001,2022-11-20_23h58.51.464,Info_measure_main_exp,2022.2.2,Win32,60.28090904,,,,,,,,,,,,,,,,,,masks/mask_002.jpg,,,,,,,,,,,,,,,,,,,,,,,,,,,,,,,,,,,,,,,,,,,0,0,0,1,1,,,,,,,,,,,,,,,,,,,,,,,,,,,,,,,,,,,,,,,,,,,,,,
120589,001,2022-11-20_23h58.51.464,Info_measure_main_exp,2022.2.2,Win32,60.28090904,,,,,,,,,,,,,,,,,,masks/mask_005.jpg,,,,,,,,,,,,,,,,,,,,,,,,,,,,,,,,,,,,,,,,,,,0,1,1,4,1,,,,,,,,,,,,,,,,,,,,,,,,,,,,,,,,,,,,,,,,,,,,,,
120589,001,2022-11-20_23h58.51.464,Info_measure_main_exp,2022.2.2,Win32,60.28090904,,,,,,,,,,,,,,,,,,masks/mask_004.jpg,,,,,,,,,,,,,,,,,,,,,,,,,,,,,,,,,,,,,,,,,,,0,2,2,3,1,,,,,,,,,,,,,,,,,,,,,,,,,,,,,,,,,,,,,,,,,,,,,,
120589,001,2022-11-20_23h58.51.464,Info_measure_main_exp,2022.2.2,Win32,60.28090904,,,,,,,,,,,,,,,,,,masks/mask_001.jpg,,,,,,,,,,,,,,,,,,,,,,,,,,,,,,,,,,,,,,,,,,,0,3,3,0,1,,,,,,,,,,,,,,,,,,,,,,,,,,,,,,,,,,,,,,,,,,,,,,
120589,001,2022-11-20_23h58.51.464,Info_measure_main_exp,2022.2.2,Win32,60.28090904,,,,,,,,,,,,,,,,,,masks/mask_003.jpg,,,,,,,,,,,,,,,,,,,,,,,,,,,,,,,,,,,,,,,,,,,0,4,4,2,1,,,,,,,,,,,,,,,,,,,,,,,,,,,,,,,,,,,,,,,,,,,,,,
120589,001,2022-11-20_23h58.51.464,Info_measure_main_exp,2022.2.2,Win32,60.28090904,,,,,,,,,,,,,,,,,,masks/mask_004.jpg,,,,,,,,,,,,,,,,,,,,,,,,,,,,,,,,,,,,,,,,,,,,,,,,0,0,0,3,1,,,,,,,,,,,,,,,,,,,,,,,,,,,,,,,,,,,,,,,,,
120589,001,2022-11-20_23h58.51.464,Info_measure_main_exp,2022.2.2,Win32,60.28090904,,,,,,,,,,,,,,,,,,masks/mask_005.jpg,,,,,,,,,,,,,,,,,,,,,,,,,,,,,,,,,,,,,,,,,,,,,,,,0,1,1,4,1,,,,,,,,,,,,,,,,,,,,,,,,,,,,,,,,,,,,,,,,,
120589,001,2022-11-20_23h58.51.464,Info_measure_main_exp,2022.2.2,Win32,60.28090904,,,,,,,,,,,,,,,,,,masks/mask_001.jpg,,,,,,,,,,,,,,,,,,,,,,,,,,,,,,,,,,,,,,,,,,,,,,,,0,2,2,0,1,,,,,,,,,,,,,,,,,,,,,,,,,,,,,,,,,,,,,,,,,
120589,001,2022-11-20_23h58.51.464,Info_measure_main_exp,2022.2.2,Win32,60.28090904,,,,,,,,,,,,,,,,,,masks/mask_003.jpg,,,,,,,,,,,,,,,,,,,,,,,,,,,,,,,,,,,,,,,,,,,,,,,,0,3,3,2,1,,,,,,,,,,,,,,,,,,,,,,,,,,,,,,,,,,,,,,,,,
120589,001,2022-11-20_23h58.51.464,Info_measure_main_exp,2022.2.2,Win32,60.28090904,,,,,,,,,,,,,,,,,,masks/mask_002.jpg,,,,,,,,,,,,,,,,,,,,,,,,,,,,,,,,,,,,,,,,,,,,,,,,0,4,4,1,1,,,,,,,,,,,,,,,,,,,,,,,,,,,,,,,,,,,,,,,,,
120589,001,2022-11-20_23h58.51.464,Info_measure_main_exp,2022.2.2,Win32,60.28090904,,,,,,,,,,,,,,,,,,,,,,,,,,,,,,4,1.4835,1,,,,,,,,,,,,0,131,5,5,1974,2178,absent_patch/patch0001974.jpg,absent_patch/patch0002178.jpg,,,,,,,,,,,,,,,,,,,,0.025925954,-0.078703704,1,0,0,response3disk,19,-0.00462963,-0.012962977,1,0,0,center_square,0,18,18,44,1,,,,,,,,,,,,,,,,,,,,,,,
120589,001,2022-11-20_23h58.51.464,Info_measure_main_exp,2022.2.2,Win32,60.28090904,,,,,,,,,,,,,,,,,,masks/mask_001.jpg,,,,,,,,,,,,,,,,,,,,,,,,,,,,,,,,,,,,,,,,,,,0,0,0,0,1,,,,,,,,,,,,,,,,,,,,,,,,,,,,,,,,,,,,,,,,,,,,,,
120589,001,2022-11-20_23h58.51.464,Info_measure_main_exp,2022.2.2,Win32,60.28090904,,,,,,,,,,,,,,,,,,masks/mask_004.jpg,,,,,,,,,,,,,,,,,,,,,,,,,,,,,,,,,,,,,,,,,,,0,1,1,3,1,,,,,,,,,,,,,,,,,,,,,,,,,,,,,,,,,,,,,,,,,,,,,,
120589,001,2022-11-20_23h58.51.464,Info_measure_main_exp,2022.2.2,Win32,60.28090904,,,,,,,,,,,,,,,,,,masks/mask_002.jpg,,,,,,,,,,,,,,,,,,,,,,,,,,,,,,,,,,,,,,,,,,,0,2,2,1,1,,,,,,,,,,,,,,,,,,,,,,,,,,,,,,,,,,,,,,,,,,,,,,
120589,001,2022-11-20_23h58.51.464,Info_measure_main_exp,2022.2.2,Win32,60.28090904,,,,,,,,,,,,,,,,,,masks/mask_003.jpg,,,,,,,,,,,,,,,,,,,,,,,,,,,,,,,,,,,,,,,,,,,0,3,3,2,1,,,,,,,,,,,,,,,,,,,,,,,,,,,,,,,,,,,,,,,,,,,,,,
120589,001,2022-11-20_23h58.51.464,Info_measure_main_exp,2022.2.2,Win32,60.28090904,,,,,,,,,,,,,,,,,,masks/mask_005.jpg,,,,,,,,,,,,,,,,,,,,,,,,,,,,,,,,,,,,,,,,,,,0,4,4,4,1,,,,,,,,,,,,,,,,,,,,,,,,,,,,,,,,,,,,,,,,,,,,,,
120589,001,2022-11-20_23h58.51.464,Info_measure_main_exp,2022.2.2,Win32,60.28090904,,,,,,,,,,,,,,,,,,masks/mask_004.jpg,,,,,,,,,,,,,,,,,,,,,,,,,,,,,,,,,,,,,,,,,,,,,,,,0,0,0,3,1,,,,,,,,,,,,,,,,,,,,,,,,,,,,,,,,,,,,,,,,,
120589,001,2022-11-20_23h58.51.464,Info_measure_main_exp,2022.2.2,Win32,60.28090904,,,,,,,,,,,,,,,,,,masks/mask_001.jpg,,,,,,,,,,,,,,,,,,,,,,,,,,,,,,,,,,,,,,,,,,,,,,,,0,1,1,0,1,,,,,,,,,,,,,,,,,,,,,,,,,,,,,,,,,,,,,,,,,
120589,001,2022-11-20_23h58.51.464,Info_measure_main_exp,2022.2.2,Win32,60.28090904,,,,,,,,,,,,,,,,,,masks/mask_003.jpg,,,,,,,,,,,,,,,,,,,,,,,,,,,,,,,,,,,,,,,,,,,,,,,,0,2,2,2,1,,,,,,,,,,,,,,,,,,,,,,,,,,,,,,,,,,,,,,,,,
120589,001,2022-11-20_23h58.51.464,Info_measure_main_exp,2022.2.2,Win32,60.28090904,,,,,,,,,,,,,,,,,,masks/mask_005.jpg,,,,,,,,,,,,,,,,,,,,,,,,,,,,,,,,,,,,,,,,,,,,,,,,0,3,3,4,1,,,,,,,,,,,,,,,,,,,,,,,,,,,,,,,,,,,,,,,,,
120589,001,2022-11-20_23h58.51.464,Info_measure_main_exp,2022.2.2,Win32,60.28090904,,,,,,,,,,,,,,,,,,masks/mask_002.jpg,,,,,,,,,,,,,,,,,,,,,,,,,,,,,,,,,,,,,,,,,,,,,,,,0,4,4,1,1,,,,,,,,,,,,,,,,,,,,,,,,,,,,,,,,,,,,,,,,,
120589,001,2022-11-20_23h58.51.464,Info_measure_main_exp,2022.2.2,Win32,60.28090904,,,,,,,,,,,,,,,,,,,,,,,,,,,,,,7,0.9168,1,,,,,,,,,,,,0,131,5,5,2274,1950,absent_patch/patch0002274.jpg,absent_patch/patch0001950.jpg,,,,,,,,,,,,,,,,,,,,0.074999986,0.122222229,1,0,0,response1disk,20,0.001851894,-0.0074074,1,0,0,center_square,0,19,19,10,1,,,,,,,,,,,,,,,,,,,,,,,
120589,001,2022-11-20_23h58.51.464,Info_measure_main_exp,2022.2.2,Win32,60.28090904,,,,,,,,,,,,,,,,,,masks/mask_003.jpg,,,,,,,,,,,,,,,,,,,,,,,,,,,,,,,,,,,,,,,,,,,0,0,0,2,1,,,,,,,,,,,,,,,,,,,,,,,,,,,,,,,,,,,,,,,,,,,,,,
120589,001,2022-11-20_23h58.51.464,Info_measure_main_exp,2022.2.2,Win32,60.28090904,,,,,,,,,,,,,,,,,,masks/mask_001.jpg,,,,,,,,,,,,,,,,,,,,,,,,,,,,,,,,,,,,,,,,,,,0,1,1,0,1,,,,,,,,,,,,,,,,,,,,,,,,,,,,,,,,,,,,,,,,,,,,,,
120589,001,2022-11-20_23h58.51.464,Info_measure_main_exp,2022.2.2,Win32,60.28090904,,,,,,,,,,,,,,,,,,masks/mask_004.jpg,,,,,,,,,,,,,,,,,,,,,,,,,,,,,,,,,,,,,,,,,,,0,2,2,3,1,,,,,,,,,,,,,,,,,,,,,,,,,,,,,,,,,,,,,,,,,,,,,,
120589,001,2022-11-20_23h58.51.464,Info_measure_main_exp,2022.2.2,Win32,60.28090904,,,,,,,,,,,,,,,,,,masks/mask_005.jpg,,,,,,,,,,,,,,,,,,,,,,,,,,,,,,,,,,,,,,,,,,,0,3,3,4,1,,,,,,,,,,,,,,,,,,,,,,,,,,,,,,,,,,,,,,,,,,,,,,
120589,001,2022-11-20_23h58.51.464,Info_measure_main_exp,2022.2.2,Win32,60.28090904,,,,,,,,,,,,,,,,,,masks/mask_002.jpg,,,,,,,,,,,,,,,,,,,,,,,,,,,,,,,,,,,,,,,,,,,0,4,4,1,1,,,,,,,,,,,,,,,,,,,,,,,,,,,,,,,,,,,,,,,,,,,,,,
120589,001,2022-11-20_23h58.51.464,Info_measure_main_exp,2022.2.2,Win32,60.28090904,,,,,,,,,,,,,,,,,,masks/mask_005.jpg,,,,,,,,,,,,,,,,,,,,,,,,,,,,,,,,,,,,,,,,,,,,,,,,0,0,0,4,1,,,,,,,,,,,,,,,,,,,,,,,,,,,,,,,,,,,,,,,,,
120589,001,2022-11-20_23h58.51.464,Info_measure_main_exp,2022.2.2,Win32,60.28090904,,,,,,,,,,,,,,,,,,masks/mask_003.jpg,,,,,,,,,,,,,,,,,,,,,,,,,,,,,,,,,,,,,,,,,,,,,,,,0,1,1,2,1,,,,,,,,,,,,,,,,,,,,,,,,,,,,,,,,,,,,,,,,,
120589,001,2022-11-20_23h58.51.464,Info_measure_main_exp,2022.2.2,Win32,60.28090904,,,,,,,,,,,,,,,,,,masks/mask_004.jpg,,,,,,,,,,,,,,,,,,,,,,,,,,,,,,,,,,,,,,,,,,,,,,,,0,2,2,3,1,,,,,,,,,,,,,,,,,,,,,,,,,,,,,,,,,,,,,,,,,
120589,001,2022-11-20_23h58.51.464,Info_measure_main_exp,2022.2.2,Win32,60.28090904,,,,,,,,,,,,,,,,,,masks/mask_002.jpg,,,,,,,,,,,,,,,,,,,,,,,,,,,,,,,,,,,,,,,,,,,,,,,,0,3,3,1,1,,,,,,,,,,,,,,,,,,,,,,,,,,,,,,,,,,,,,,,,,
120589,001,2022-11-20_23h58.51.464,Info_measure_main_exp,2022.2.2,Win32,60.28090904,,,,,,,,,,,,,,,,,,masks/mask_001.jpg,,,,,,,,,,,,,,,,,,,,,,,,,,,,,,,,,,,,,,,,,,,,,,,,0,4,4,0,1,,,,,,,,,,,,,,,,,,,,,,,,,,,,,,,,,,,,,,,,,
120589,001,2022-11-20_23h58.51.464,Info_measure_main_exp,2022.2.2,Win32,60.28090904,,,,,,,,,,,,,,,,,,,,,,,,,,,,,,6,1.1666,1,,,,,,,,,,,,0,131,5,5,2154,2298,absent_patch/patch0002154.jpg,absent_patch/patch0002298.jpg,,,,,,,,,,,,,,,,,,,,0.070370356,0.032407407,1,0,0,response1disk,21,-0.000925912,0.005555541,1,0,0,center_square,0,20,20,27,1,,,,,,,,,,,,,,,,,,,,,,,
120589,001,2022-11-20_23h58.51.464,Info_measure_main_exp,2022.2.2,Win32,60.28090904,,,,,,,,,,,,,,,,,,masks/mask_003.jpg,,,,,,,,,,,,,,,,,,,,,,,,,,,,,,,,,,,,,,,,,,,0,0,0,2,1,,,,,,,,,,,,,,,,,,,,,,,,,,,,,,,,,,,,,,,,,,,,,,
120589,001,2022-11-20_23h58.51.464,Info_measure_main_exp,2022.2.2,Win32,60.28090904,,,,,,,,,,,,,,,,,,masks/mask_002.jpg,,,,,,,,,,,,,,,,,,,,,,,,,,,,,,,,,,,,,,,,,,,0,1,1,1,1,,,,,,,,,,,,,,,,,,,,,,,,,,,,,,,,,,,,,,,,,,,,,,
120589,001,2022-11-20_23h58.51.464,Info_measure_main_exp,2022.2.2,Win32,60.28090904,,,,,,,,,,,,,,,,,,masks/mask_001.jpg,,,,,,,,,,,,,,,,,,,,,,,,,,,,,,,,,,,,,,,,,,,0,2,2,0,1,,,,,,,,,,,,,,,,,,,,,,,,,,,,,,,,,,,,,,,,,,,,,,
120589,001,2022-11-20_23h58.51.464,Info_measure_main_exp,2022.2.2,Win32,60.28090904,,,,,,,,,,,,,,,,,,masks/mask_004.jpg,,,,,,,,,,,,,,,,,,,,,,,,,,,,,,,,,,,,,,,,,,,0,3,3,3,1,,,,,,,,,,,,,,,,,,,,,,,,,,,,,,,,,,,,,,,,,,,,,,
120589,001,2022-11-20_23h58.51.464,Info_measure_main_exp,2022.2.2,Win32,60.28090904,,,,,,,,,,,,,,,,,,masks/mask_005.jpg,,,,,,,,,,,,,,,,,,,,,,,,,,,,,,,,,,,,,,,,,,,0,4,4,4,1,,,,,,,,,,,,,,,,,,,,,,,,,,,,,,,,,,,,,,,,,,,,,,
120589,001,2022-11-20_23h58.51.464,Info_measure_main_exp,2022.2.2,Win32,60.28090904,,,,,,,,,,,,,,,,,,masks/mask_003.jpg,,,,,,,,,,,,,,,,,,,,,,,,,,,,,,,,,,,,,,,,,,,,,,,,0,0,0,2,1,,,,,,,,,,,,,,,,,,,,,,,,,,,,,,,,,,,,,,,,,
120589,001,2022-11-20_23h58.51.464,Info_measure_main_exp,2022.2.2,Win32,60.28090904,,,,,,,,,,,,,,,,,,masks/mask_002.jpg,,,,,,,,,,,,,,,,,,,,,,,,,,,,,,,,,,,,,,,,,,,,,,,,0,1,1,1,1,,,,,,,,,,,,,,,,,,,,,,,,,,,,,,,,,,,,,,,,,
120589,001,2022-11-20_23h58.51.464,Info_measure_main_exp,2022.2.2,Win32,60.28090904,,,,,,,,,,,,,,,,,,masks/mask_004.jpg,,,,,,,,,,,,,,,,,,,,,,,,,,,,,,,,,,,,,,,,,,,,,,,,0,2,2,3,1,,,,,,,,,,,,,,,,,,,,,,,,,,,,,,,,,,,,,,,,,
120589,001,2022-11-20_23h58.51.464,Info_measure_main_exp,2022.2.2,Win32,60.28090904,,,,,,,,,,,,,,,,,,masks/mask_001.jpg,,,,,,,,,,,,,,,,,,,,,,,,,,,,,,,,,,,,,,,,,,,,,,,,0,3,3,0,1,,,,,,,,,,,,,,,,,,,,,,,,,,,,,,,,,,,,,,,,,
120589,001,2022-11-20_23h58.51.464,Info_measure_main_exp,2022.2.2,Win32,60.28090904,,,,,,,,,,,,,,,,,,masks/mask_005.jpg,,,,,,,,,,,,,,,,,,,,,,,,,,,,,,,,,,,,,,,,,,,,,,,,0,4,4,4,1,,,,,,,,,,,,,,,,,,,,,,,,,,,,,,,,,,,,,,,,,
120589,001,2022-11-20_23h58.51.464,Info_measure_main_exp,2022.2.2,Win32,60.28090904,,,,,,,,,,,,,,,,,,,,,,,,,,,,,,6,0.7838,1,,,,,,,,,,,,1,131,5,5,1,2166,present_patch/cong_131_5_a.jpg,absent_patch/patch0002166.jpg,,,,,,,,,,,,,,,,,,,,0.046296296,0.025000007,1,0,0,response1disk,22,-0.002777735,0.006481489,1,0,0,center_square,0,21,21,54,1,,,,,,,,,,,,,,,,,,,,,,,
120589,001,2022-11-20_23h58.51.464,Info_measure_main_exp,2022.2.2,Win32,60.28090904,,,,,,,,,,,,,,,,,,masks/mask_004.jpg,,,,,,,,,,,,,,,,,,,,,,,,,,,,,,,,,,,,,,,,,,,0,0,0,3,1,,,,,,,,,,,,,,,,,,,,,,,,,,,,,,,,,,,,,,,,,,,,,,
120589,001,2022-11-20_23h58.51.464,Info_measure_main_exp,2022.2.2,Win32,60.28090904,,,,,,,,,,,,,,,,,,masks/mask_005.jpg,,,,,,,,,,,,,,,,,,,,,,,,,,,,,,,,,,,,,,,,,,,0,1,1,4,1,,,,,,,,,,,,,,,,,,,,,,,,,,,,,,,,,,,,,,,,,,,,,,
120589,001,2022-11-20_23h58.51.464,Info_measure_main_exp,2022.2.2,Win32,60.28090904,,,,,,,,,,,,,,,,,,masks/mask_001.jpg,,,,,,,,,,,,,,,,,,,,,,,,,,,,,,,,,,,,,,,,,,,0,2,2,0,1,,,,,,,,,,,,,,,,,,,,,,,,,,,,,,,,,,,,,,,,,,,,,,
120589,001,2022-11-20_23h58.51.464,Info_measure_main_exp,2022.2.2,Win32,60.28090904,,,,,,,,,,,,,,,,,,masks/mask_002.jpg,,,,,,,,,,,,,,,,,,,,,,,,,,,,,,,,,,,,,,,,,,,0,3,3,1,1,,,,,,,,,,,,,,,,,,,,,,,,,,,,,,,,,,,,,,,,,,,,,,
120589,001,2022-11-20_23h58.51.464,Info_measure_main_exp,2022.2.2,Win32,60.28090904,,,,,,,,,,,,,,,,,,masks/mask_003.jpg,,,,,,,,,,,,,,,,,,,,,,,,,,,,,,,,,,,,,,,,,,,0,4,4,2,1,,,,,,,,,,,,,,,,,,,,,,,,,,,,,,,,,,,,,,,,,,,,,,
120589,001,2022-11-20_23h58.51.464,Info_measure_main_exp,2022.2.2,Win32,60.28090904,,,,,,,,,,,,,,,,,,masks/mask_004.jpg,,,,,,,,,,,,,,,,,,,,,,,,,,,,,,,,,,,,,,,,,,,,,,,,0,0,0,3,1,,,,,,,,,,,,,,,,,,,,,,,,,,,,,,,,,,,,,,,,,
120589,001,2022-11-20_23h58.51.464,Info_measure_main_exp,2022.2.2,Win32,60.28090904,,,,,,,,,,,,,,,,,,masks/mask_003.jpg,,,,,,,,,,,,,,,,,,,,,,,,,,,,,,,,,,,,,,,,,,,,,,,,0,1,1,2,1,,,,,,,,,,,,,,,,,,,,,,,,,,,,,,,,,,,,,,,,,
120589,001,2022-11-20_23h58.51.464,Info_measure_main_exp,2022.2.2,Win32,60.28090904,,,,,,,,,,,,,,,,,,masks/mask_005.jpg,,,,,,,,,,,,,,,,,,,,,,,,,,,,,,,,,,,,,,,,,,,,,,,,0,2,2,4,1,,,,,,,,,,,,,,,,,,,,,,,,,,,,,,,,,,,,,,,,,
120589,001,2022-11-20_23h58.51.464,Info_measure_main_exp,2022.2.2,Win32,60.28090904,,,,,,,,,,,,,,,,,,masks/mask_001.jpg,,,,,,,,,,,,,,,,,,,,,,,,,,,,,,,,,,,,,,,,,,,,,,,,0,3,3,0,1,,,,,,,,,,,,,,,,,,,,,,,,,,,,,,,,,,,,,,,,,
120589,001,2022-11-20_23h58.51.464,Info_measure_main_exp,2022.2.2,Win32,60.28090904,,,,,,,,,,,,,,,,,,masks/mask_002.jpg,,,,,,,,,,,,,,,,,,,,,,,,,,,,,,,,,,,,,,,,,,,,,,,,0,4,4,1,1,,,,,,,,,,,,,,,,,,,,,,,,,,,,,,,,,,,,,,,,,
120589,001,2022-11-20_23h58.51.464,Info_measure_main_exp,2022.2.2,Win32,60.28090904,,,,,,,,,,,,,,,,,,,,,,,,,,,,,,7,0.9891,1,,,,,,,,,,,,0,131,5,5,2298,2274,absent_patch/patch0002298.jpg,absent_patch/patch0002274.jpg,,,,,,,,,,,,,,,,,,,,0.030555584,0.087037016,1,0,0,response1disk,23,0,0.010185171,1,0,0,center_square,0,22,22,1,1,,,,,,,,,,,,,,,,,,,,,,,
120589,001,2022-11-20_23h58.51.464,Info_measure_main_exp,2022.2.2,Win32,60.28090904,,,,,,,,,,,,,,,,,,masks/mask_005.jpg,,,,,,,,,,,,,,,,,,,,,,,,,,,,,,,,,,,,,,,,,,,0,0,0,4,1,,,,,,,,,,,,,,,,,,,,,,,,,,,,,,,,,,,,,,,,,,,,,,
120589,001,2022-11-20_23h58.51.464,Info_measure_main_exp,2022.2.2,Win32,60.28090904,,,,,,,,,,,,,,,,,,masks/mask_003.jpg,,,,,,,,,,,,,,,,,,,,,,,,,,,,,,,,,,,,,,,,,,,0,1,1,2,1,,,,,,,,,,,,,,,,,,,,,,,,,,,,,,,,,,,,,,,,,,,,,,
120589,001,2022-11-20_23h58.51.464,Info_measure_main_exp,2022.2.2,Win32,60.28090904,,,,,,,,,,,,,,,,,,masks/mask_001.jpg,,,,,,,,,,,,,,,,,,,,,,,,,,,,,,,,,,,,,,,,,,,0,2,2,0,1,,,,,,,,,,,,,,,,,,,,,,,,,,,,,,,,,,,,,,,,,,,,,,
120589,001,2022-11-20_23h58.51.464,Info_measure_main_exp,2022.2.2,Win32,60.28090904,,,,,,,,,,,,,,,,,,masks/mask_002.jpg,,,,,,,,,,,,,,,,,,,,,,,,,,,,,,,,,,,,,,,,,,,0,3,3,1,1,,,,,,,,,,,,,,,,,,,,,,,,,,,,,,,,,,,,,,,,,,,,,,
120589,001,2022-11-20_23h58.51.464,Info_measure_main_exp,2022.2.2,Win32,60.28090904,,,,,,,,,,,,,,,,,,masks/mask_004.jpg,,,,,,,,,,,,,,,,,,,,,,,,,,,,,,,,,,,,,,,,,,,0,4,4,3,1,,,,,,,,,,,,,,,,,,,,,,,,,,,,,,,,,,,,,,,,,,,,,,
120589,001,2022-11-20_23h58.51.464,Info_measure_main_exp,2022.2.2,Win32,60.28090904,,,,,,,,,,,,,,,,,,masks/mask_003.jpg,,,,,,,,,,,,,,,,,,,,,,,,,,,,,,,,,,,,,,,,,,,,,,,,0,0,0,2,1,,,,,,,,,,,,,,,,,,,,,,,,,,,,,,,,,,,,,,,,,
120589,001,2022-11-20_23h58.51.464,Info_measure_main_exp,2022.2.2,Win32,60.28090904,,,,,,,,,,,,,,,,,,masks/mask_001.jpg,,,,,,,,,,,,,,,,,,,,,,,,,,,,,,,,,,,,,,,,,,,,,,,,0,1,1,0,1,,,,,,,,,,,,,,,,,,,,,,,,,,,,,,,,,,,,,,,,,
120589,001,2022-11-20_23h58.51.464,Info_measure_main_exp,2022.2.2,Win32,60.28090904,,,,,,,,,,,,,,,,,,masks/mask_004.jpg,,,,,,,,,,,,,,,,,,,,,,,,,,,,,,,,,,,,,,,,,,,,,,,,0,2,2,3,1,,,,,,,,,,,,,,,,,,,,,,,,,,,,,,,,,,,,,,,,,
120589,001,2022-11-20_23h58.51.464,Info_measure_main_exp,2022.2.2,Win32,60.28090904,,,,,,,,,,,,,,,,,,masks/mask_002.jpg,,,,,,,,,,,,,,,,,,,,,,,,,,,,,,,,,,,,,,,,,,,,,,,,0,3,3,1,1,,,,,,,,,,,,,,,,,,,,,,,,,,,,,,,,,,,,,,,,,
120589,001,2022-11-20_23h58.51.464,Info_measure_main_exp,2022.2.2,Win32,60.28090904,,,,,,,,,,,,,,,,,,masks/mask_005.jpg,,,,,,,,,,,,,,,,,,,,,,,,,,,,,,,,,,,,,,,,,,,,,,,,0,4,4,4,1,,,,,,,,,,,,,,,,,,,,,,,,,,,,,,,,,,,,,,,,,
120589,001,2022-11-20_23h58.51.464,Info_measure_main_exp,2022.2.2,Win32,60.28090904,,,,,,,,,,,,,,,,,,,,,,,,,,,,,,7,0.6,1,,,,,,,,,,,,0,131,5,5,2178,2238,absent_patch/patch0002178.jpg,absent_patch/patch0002238.jpg,,,,,,,,,,,,,,,,,,,,0.037962949,0.078703704,1,0,0,response1disk,24,0.005555541,0.010185171,1,0,0,center_square,0,23,23,57,1,,,,,,,,,,,,,,,,,,,,,,,
120589,001,2022-11-20_23h58.51.464,Info_measure_main_exp,2022.2.2,Win32,60.28090904,,,,,,,,,,,,,,,,,,masks/mask_004.jpg,,,,,,,,,,,,,,,,,,,,,,,,,,,,,,,,,,,,,,,,,,,0,0,0,3,1,,,,,,,,,,,,,,,,,,,,,,,,,,,,,,,,,,,,,,,,,,,,,,
120589,001,2022-11-20_23h58.51.464,Info_measure_main_exp,2022.2.2,Win32,60.28090904,,,,,,,,,,,,,,,,,,masks/mask_001.jpg,,,,,,,,,,,,,,,,,,,,,,,,,,,,,,,,,,,,,,,,,,,0,1,1,0,1,,,,,,,,,,,,,,,,,,,,,,,,,,,,,,,,,,,,,,,,,,,,,,
120589,001,2022-11-20_23h58.51.464,Info_measure_main_exp,2022.2.2,Win32,60.28090904,,,,,,,,,,,,,,,,,,masks/mask_003.jpg,,,,,,,,,,,,,,,,,,,,,,,,,,,,,,,,,,,,,,,,,,,0,2,2,2,1,,,,,,,,,,,,,,,,,,,,,,,,,,,,,,,,,,,,,,,,,,,,,,
120589,001,2022-11-20_23h58.51.464,Info_measure_main_exp,2022.2.2,Win32,60.28090904,,,,,,,,,,,,,,,,,,masks/mask_002.jpg,,,,,,,,,,,,,,,,,,,,,,,,,,,,,,,,,,,,,,,,,,,0,3,3,1,1,,,,,,,,,,,,,,,,,,,,,,,,,,,,,,,,,,,,,,,,,,,,,,
120589,001,2022-11-20_23h58.51.464,Info_measure_main_exp,2022.2.2,Win32,60.28090904,,,,,,,,,,,,,,,,,,masks/mask_005.jpg,,,,,,,,,,,,,,,,,,,,,,,,,,,,,,,,,,,,,,,,,,,0,4,4,4,1,,,,,,,,,,,,,,,,,,,,,,,,,,,,,,,,,,,,,,,,,,,,,,
120589,001,2022-11-20_23h58.51.464,Info_measure_main_exp,2022.2.2,Win32,60.28090904,,,,,,,,,,,,,,,,,,masks/mask_001.jpg,,,,,,,,,,,,,,,,,,,,,,,,,,,,,,,,,,,,,,,,,,,,,,,,0,0,0,0,1,,,,,,,,,,,,,,,,,,,,,,,,,,,,,,,,,,,,,,,,,
120589,001,2022-11-20_23h58.51.464,Info_measure_main_exp,2022.2.2,Win32,60.28090904,,,,,,,,,,,,,,,,,,masks/mask_004.jpg,,,,,,,,,,,,,,,,,,,,,,,,,,,,,,,,,,,,,,,,,,,,,,,,0,1,1,3,1,,,,,,,,,,,,,,,,,,,,,,,,,,,,,,,,,,,,,,,,,
120589,001,2022-11-20_23h58.51.464,Info_measure_main_exp,2022.2.2,Win32,60.28090904,,,,,,,,,,,,,,,,,,masks/mask_003.jpg,,,,,,,,,,,,,,,,,,,,,,,,,,,,,,,,,,,,,,,,,,,,,,,,0,2,2,2,1,,,,,,,,,,,,,,,,,,,,,,,,,,,,,,,,,,,,,,,,,
120589,001,2022-11-20_23h58.51.464,Info_measure_main_exp,2022.2.2,Win32,60.28090904,,,,,,,,,,,,,,,,,,masks/mask_005.jpg,,,,,,,,,,,,,,,,,,,,,,,,,,,,,,,,,,,,,,,,,,,,,,,,0,3,3,4,1,,,,,,,,,,,,,,,,,,,,,,,,,,,,,,,,,,,,,,,,,
120589,001,2022-11-20_23h58.51.464,Info_measure_main_exp,2022.2.2,Win32,60.28090904,,,,,,,,,,,,,,,,,,masks/mask_002.jpg,,,,,,,,,,,,,,,,,,,,,,,,,,,,,,,,,,,,,,,,,,,,,,,,0,4,4,1,1,,,,,,,,,,,,,,,,,,,,,,,,,,,,,,,,,,,,,,,,,
120589,001,2022-11-20_23h58.51.464,Info_measure_main_exp,2022.2.2,Win32,60.28090904,,,,,,,,,,,,,,,,,,,,,,,,,,,,,,6,1.1167,1,,,,,,,,,,,,0,131,5,5,1974,2250,absent_patch/patch0001974.jpg,absent_patch/patch0002250.jpg,,,,,,,,,,,,,,,,,,,,0.043518561,0.03611109,1,0,0,response1disk,25,-0.014814801,-0.00462963,1,0,0,center_square,0,24,24,55,1,,,,,,,,,,,,,,,,,,,,,,,
120589,001,2022-11-20_23h58.51.464,Info_measure_main_exp,2022.2.2,Win32,60.28090904,,,,,,,,,,,,,,,,,,masks/mask_004.jpg,,,,,,,,,,,,,,,,,,,,,,,,,,,,,,,,,,,,,,,,,,,0,0,0,3,1,,,,,,,,,,,,,,,,,,,,,,,,,,,,,,,,,,,,,,,,,,,,,,
120589,001,2022-11-20_23h58.51.464,Info_measure_main_exp,2022.2.2,Win32,60.28090904,,,,,,,,,,,,,,,,,,masks/mask_002.jpg,,,,,,,,,,,,,,,,,,,,,,,,,,,,,,,,,,,,,,,,,,,0,1,1,1,1,,,,,,,,,,,,,,,,,,,,,,,,,,,,,,,,,,,,,,,,,,,,,,
120589,001,2022-11-20_23h58.51.464,Info_measure_main_exp,2022.2.2,Win32,60.28090904,,,,,,,,,,,,,,,,,,masks/mask_001.jpg,,,,,,,,,,,,,,,,,,,,,,,,,,,,,,,,,,,,,,,,,,,0,2,2,0,1,,,,,,,,,,,,,,,,,,,,,,,,,,,,,,,,,,,,,,,,,,,,,,
120589,001,2022-11-20_23h58.51.464,Info_measure_main_exp,2022.2.2,Win32,60.28090904,,,,,,,,,,,,,,,,,,masks/mask_005.jpg,,,,,,,,,,,,,,,,,,,,,,,,,,,,,,,,,,,,,,,,,,,0,3,3,4,1,,,,,,,,,,,,,,,,,,,,,,,,,,,,,,,,,,,,,,,,,,,,,,
120589,001,2022-11-20_23h58.51.464,Info_measure_main_exp,2022.2.2,Win32,60.28090904,,,,,,,,,,,,,,,,,,masks/mask_003.jpg,,,,,,,,,,,,,,,,,,,,,,,,,,,,,,,,,,,,,,,,,,,0,4,4,2,1,,,,,,,,,,,,,,,,,,,,,,,,,,,,,,,,,,,,,,,,,,,,,,
120589,001,2022-11-20_23h58.51.464,Info_measure_main_exp,2022.2.2,Win32,60.28090904,,,,,,,,,,,,,,,,,,masks/mask_005.jpg,,,,,,,,,,,,,,,,,,,,,,,,,,,,,,,,,,,,,,,,,,,,,,,,0,0,0,4,1,,,,,,,,,,,,,,,,,,,,,,,,,,,,,,,,,,,,,,,,,
120589,001,2022-11-20_23h58.51.464,Info_measure_main_exp,2022.2.2,Win32,60.28090904,,,,,,,,,,,,,,,,,,masks/mask_001.jpg,,,,,,,,,,,,,,,,,,,,,,,,,,,,,,,,,,,,,,,,,,,,,,,,0,1,1,0,1,,,,,,,,,,,,,,,,,,,,,,,,,,,,,,,,,,,,,,,,,
120589,001,2022-11-20_23h58.51.464,Info_measure_main_exp,2022.2.2,Win32,60.28090904,,,,,,,,,,,,,,,,,,masks/mask_002.jpg,,,,,,,,,,,,,,,,,,,,,,,,,,,,,,,,,,,,,,,,,,,,,,,,0,2,2,1,1,,,,,,,,,,,,,,,,,,,,,,,,,,,,,,,,,,,,,,,,,
120589,001,2022-11-20_23h58.51.464,Info_measure_main_exp,2022.2.2,Win32,60.28090904,,,,,,,,,,,,,,,,,,masks/mask_004.jpg,,,,,,,,,,,,,,,,,,,,,,,,,,,,,,,,,,,,,,,,,,,,,,,,0,3,3,3,1,,,,,,,,,,,,,,,,,,,,,,,,,,,,,,,,,,,,,,,,,
120589,001,2022-11-20_23h58.51.464,Info_measure_main_exp,2022.2.2,Win32,60.28090904,,,,,,,,,,,,,,,,,,masks/mask_003.jpg,,,,,,,,,,,,,,,,,,,,,,,,,,,,,,,,,,,,,,,,,,,,,,,,0,4,4,2,1,,,,,,,,,,,,,,,,,,,,,,,,,,,,,,,,,,,,,,,,,
120589,001,2022-11-20_23h58.51.464,Info_measure_main_exp,2022.2.2,Win32,60.28090904,,,,,,,,,,,,,,,,,,,,,,,,,,,,,,7,0.5832,1,,,,,,,,,,,,0,131,5,5,2142,2238,absent_patch/patch0002142.jpg,absent_patch/patch0002238.jpg,,,,,,,,,,,,,,,,,,,,0.026851866,0.064814815,1,0,0,response1disk,26,0,0.009259259,1,0,0,center_square,0,25,25,101,1,,,,,,,,,,,,,,,,,,,,,,,
120589,001,2022-11-20_23h58.51.464,Info_measure_main_exp,2022.2.2,Win32,60.28090904,,,,,,,,,,,,,,,,,,masks/mask_002.jpg,,,,,,,,,,,,,,,,,,,,,,,,,,,,,,,,,,,,,,,,,,,0,0,0,1,1,,,,,,,,,,,,,,,,,,,,,,,,,,,,,,,,,,,,,,,,,,,,,,
120589,001,2022-11-20_23h58.51.464,Info_measure_main_exp,2022.2.2,Win32,60.28090904,,,,,,,,,,,,,,,,,,masks/mask_003.jpg,,,,,,,,,,,,,,,,,,,,,,,,,,,,,,,,,,,,,,,,,,,0,1,1,2,1,,,,,,,,,,,,,,,,,,,,,,,,,,,,,,,,,,,,,,,,,,,,,,
120589,001,2022-11-20_23h58.51.464,Info_measure_main_exp,2022.2.2,Win32,60.28090904,,,,,,,,,,,,,,,,,,masks/mask_005.jpg,,,,,,,,,,,,,,,,,,,,,,,,,,,,,,,,,,,,,,,,,,,0,2,2,4,1,,,,,,,,,,,,,,,,,,,,,,,,,,,,,,,,,,,,,,,,,,,,,,
120589,001,2022-11-20_23h58.51.464,Info_measure_main_exp,2022.2.2,Win32,60.28090904,,,,,,,,,,,,,,,,,,masks/mask_004.jpg,,,,,,,,,,,,,,,,,,,,,,,,,,,,,,,,,,,,,,,,,,,0,3,3,3,1,,,,,,,,,,,,,,,,,,,,,,,,,,,,,,,,,,,,,,,,,,,,,,
120589,001,2022-11-20_23h58.51.464,Info_measure_main_exp,2022.2.2,Win32,60.28090904,,,,,,,,,,,,,,,,,,masks/mask_001.jpg,,,,,,,,,,,,,,,,,,,,,,,,,,,,,,,,,,,,,,,,,,,0,4,4,0,1,,,,,,,,,,,,,,,,,,,,,,,,,,,,,,,,,,,,,,,,,,,,,,
120589,001,2022-11-20_23h58.51.464,Info_measure_main_exp,2022.2.2,Win32,60.28090904,,,,,,,,,,,,,,,,,,masks/mask_004.jpg,,,,,,,,,,,,,,,,,,,,,,,,,,,,,,,,,,,,,,,,,,,,,,,,0,0,0,3,1,,,,,,,,,,,,,,,,,,,,,,,,,,,,,,,,,,,,,,,,,
120589,001,2022-11-20_23h58.51.464,Info_measure_main_exp,2022.2.2,Win32,60.28090904,,,,,,,,,,,,,,,,,,masks/mask_002.jpg,,,,,,,,,,,,,,,,,,,,,,,,,,,,,,,,,,,,,,,,,,,,,,,,0,1,1,1,1,,,,,,,,,,,,,,,,,,,,,,,,,,,,,,,,,,,,,,,,,
120589,001,2022-11-20_23h58.51.464,Info_measure_main_exp,2022.2.2,Win32,60.28090904,,,,,,,,,,,,,,,,,,masks/mask_001.jpg,,,,,,,,,,,,,,,,,,,,,,,,,,,,,,,,,,,,,,,,,,,,,,,,0,2,2,0,1,,,,,,,,,,,,,,,,,,,,,,,,,,,,,,,,,,,,,,,,,
120589,001,2022-11-20_23h58.51.464,Info_measure_main_exp,2022.2.2,Win32,60.28090904,,,,,,,,,,,,,,,,,,masks/mask_003.jpg,,,,,,,,,,,,,,,,,,,,,,,,,,,,,,,,,,,,,,,,,,,,,,,,0,3,3,2,1,,,,,,,,,,,,,,,,,,,,,,,,,,,,,,,,,,,,,,,,,
120589,001,2022-11-20_23h58.51.464,Info_measure_main_exp,2022.2.2,Win32,60.28090904,,,,,,,,,,,,,,,,,,masks/mask_005.jpg,,,,,,,,,,,,,,,,,,,,,,,,,,,,,,,,,,,,,,,,,,,,,,,,0,4,4,4,1,,,,,,,,,,,,,,,,,,,,,,,,,,,,,,,,,,,,,,,,,
120589,001,2022-11-20_23h58.51.464,Info_measure_main_exp,2022.2.2,Win32,60.28090904,,,,,,,,,,,,,,,,,,,,,,,,,,,,,,2,1.7232,1,,,,,,,,,,,,0,131,5,5,2238,2166,absent_patch/patch0002238.jpg,absent_patch/patch0002166.jpg,,,,,,,,,,,,,,,,,,,,-0.128703718,-0.044444437,1,0,0,response5disk,27,-0.006481453,-0.002777771,1,0,0,center_square,0,26,26,118,1,,,,,,,,,,,,,,,,,,,,,,,
120589,001,2022-11-20_23h58.51.464,Info_measure_main_exp,2022.2.2,Win32,60.28090904,,,,,,,,,,,,,,,,,,masks/mask_005.jpg,,,,,,,,,,,,,,,,,,,,,,,,,,,,,,,,,,,,,,,,,,,0,0,0,4,1,,,,,,,,,,,,,,,,,,,,,,,,,,,,,,,,,,,,,,,,,,,,,,
120589,001,2022-11-20_23h58.51.464,Info_measure_main_exp,2022.2.2,Win32,60.28090904,,,,,,,,,,,,,,,,,,masks/mask_003.jpg,,,,,,,,,,,,,,,,,,,,,,,,,,,,,,,,,,,,,,,,,,,0,1,1,2,1,,,,,,,,,,,,,,,,,,,,,,,,,,,,,,,,,,,,,,,,,,,,,,
120589,001,2022-11-20_23h58.51.464,Info_measure_main_exp,2022.2.2,Win32,60.28090904,,,,,,,,,,,,,,,,,,masks/mask_004.jpg,,,,,,,,,,,,,,,,,,,,,,,,,,,,,,,,,,,,,,,,,,,0,2,2,3,1,,,,,,,,,,,,,,,,,,,,,,,,,,,,,,,,,,,,,,,,,,,,,,
120589,001,2022-11-20_23h58.51.464,Info_measure_main_exp,2022.2.2,Win32,60.28090904,,,,,,,,,,,,,,,,,,masks/mask_001.jpg,,,,,,,,,,,,,,,,,,,,,,,,,,,,,,,,,,,,,,,,,,,0,3,3,0,1,,,,,,,,,,,,,,,,,,,,,,,,,,,,,,,,,,,,,,,,,,,,,,
120589,001,2022-11-20_23h58.51.464,Info_measure_main_exp,2022.2.2,Win32,60.28090904,,,,,,,,,,,,,,,,,,masks/mask_002.jpg,,,,,,,,,,,,,,,,,,,,,,,,,,,,,,,,,,,,,,,,,,,0,4,4,1,1,,,,,,,,,,,,,,,,,,,,,,,,,,,,,,,,,,,,,,,,,,,,,,
120589,001,2022-11-20_23h58.51.464,Info_measure_main_exp,2022.2.2,Win32,60.28090904,,,,,,,,,,,,,,,,,,masks/mask_005.jpg,,,,,,,,,,,,,,,,,,,,,,,,,,,,,,,,,,,,,,,,,,,,,,,,0,0,0,4,1,,,,,,,,,,,,,,,,,,,,,,,,,,,,,,,,,,,,,,,,,
120589,001,2022-11-20_23h58.51.464,Info_measure_main_exp,2022.2.2,Win32,60.28090904,,,,,,,,,,,,,,,,,,masks/mask_001.jpg,,,,,,,,,,,,,,,,,,,,,,,,,,,,,,,,,,,,,,,,,,,,,,,,0,1,1,0,1,,,,,,,,,,,,,,,,,,,,,,,,,,,,,,,,,,,,,,,,,
120589,001,2022-11-20_23h58.51.464,Info_measure_main_exp,2022.2.2,Win32,60.28090904,,,,,,,,,,,,,,,,,,masks/mask_003.jpg,,,,,,,,,,,,,,,,,,,,,,,,,,,,,,,,,,,,,,,,,,,,,,,,0,2,2,2,1,,,,,,,,,,,,,,,,,,,,,,,,,,,,,,,,,,,,,,,,,
120589,001,2022-11-20_23h58.51.464,Info_measure_main_exp,2022.2.2,Win32,60.28090904,,,,,,,,,,,,,,,,,,masks/mask_004.jpg,,,,,,,,,,,,,,,,,,,,,,,,,,,,,,,,,,,,,,,,,,,,,,,,0,3,3,3,1,,,,,,,,,,,,,,,,,,,,,,,,,,,,,,,,,,,,,,,,,
120589,001,2022-11-20_23h58.51.464,Info_measure_main_exp,2022.2.2,Win32,60.28090904,,,,,,,,,,,,,,,,,,masks/mask_002.jpg,,,,,,,,,,,,,,,,,,,,,,,,,,,,,,,,,,,,,,,,,,,,,,,,0,4,4,1,1,,,,,,,,,,,,,,,,,,,,,,,,,,,,,,,,,,,,,,,,,
120589,001,2022-11-20_23h58.51.464,Info_measure_main_exp,2022.2.2,Win32,60.28090904,,,,,,,,,,,,,,,,,,,,,,,,,,,,,,6,0.9729,1,,,,,,,,,,,,1,131,5,5,2082,1,absent_patch/patch0002082.jpg,present_patch/cong_131_5_a.jpg,,,,,,,,,,,,,,,,,,,,0.07222225,0.027777778,1,0,0,response1disk,28,-0.00462963,0.002777771,1,0,0,center_square,0,27,27,65,1,,,,,,,,,,,,,,,,,,,,,,,
120589,001,2022-11-20_23h58.51.464,Info_measure_main_exp,2022.2.2,Win32,60.28090904,,,,,,,,,,,,,,,,,,masks/mask_003.jpg,,,,,,,,,,,,,,,,,,,,,,,,,,,,,,,,,,,,,,,,,,,0,0,0,2,1,,,,,,,,,,,,,,,,,,,,,,,,,,,,,,,,,,,,,,,,,,,,,,
120589,001,2022-11-20_23h58.51.464,Info_measure_main_exp,2022.2.2,Win32,60.28090904,,,,,,,,,,,,,,,,,,masks/mask_005.jpg,,,,,,,,,,,,,,,,,,,,,,,,,,,,,,,,,,,,,,,,,,,0,1,1,4,1,,,,,,,,,,,,,,,,,,,,,,,,,,,,,,,,,,,,,,,,,,,,,,
120589,001,2022-11-20_23h58.51.464,Info_measure_main_exp,2022.2.2,Win32,60.28090904,,,,,,,,,,,,,,,,,,masks/mask_002.jpg,,,,,,,,,,,,,,,,,,,,,,,,,,,,,,,,,,,,,,,,,,,0,2,2,1,1,,,,,,,,,,,,,,,,,,,,,,,,,,,,,,,,,,,,,,,,,,,,,,
120589,001,2022-11-20_23h58.51.464,Info_measure_main_exp,2022.2.2,Win32,60.28090904,,,,,,,,,,,,,,,,,,masks/mask_004.jpg,,,,,,,,,,,,,,,,,,,,,,,,,,,,,,,,,,,,,,,,,,,0,3,3,3,1,,,,,,,,,,,,,,,,,,,,,,,,,,,,,,,,,,,,,,,,,,,,,,
120589,001,2022-11-20_23h58.51.464,Info_measure_main_exp,2022.2.2,Win32,60.28090904,,,,,,,,,,,,,,,,,,masks/mask_001.jpg,,,,,,,,,,,,,,,,,,,,,,,,,,,,,,,,,,,,,,,,,,,0,4,4,0,1,,,,,,,,,,,,,,,,,,,,,,,,,,,,,,,,,,,,,,,,,,,,,,
120589,001,2022-11-20_23h58.51.464,Info_measure_main_exp,2022.2.2,Win32,60.28090904,,,,,,,,,,,,,,,,,,masks/mask_004.jpg,,,,,,,,,,,,,,,,,,,,,,,,,,,,,,,,,,,,,,,,,,,,,,,,0,0,0,3,1,,,,,,,,,,,,,,,,,,,,,,,,,,,,,,,,,,,,,,,,,
120589,001,2022-11-20_23h58.51.464,Info_measure_main_exp,2022.2.2,Win32,60.28090904,,,,,,,,,,,,,,,,,,masks/mask_002.jpg,,,,,,,,,,,,,,,,,,,,,,,,,,,,,,,,,,,,,,,,,,,,,,,,0,1,1,1,1,,,,,,,,,,,,,,,,,,,,,,,,,,,,,,,,,,,,,,,,,
120589,001,2022-11-20_23h58.51.464,Info_measure_main_exp,2022.2.2,Win32,60.28090904,,,,,,,,,,,,,,,,,,masks/mask_001.jpg,,,,,,,,,,,,,,,,,,,,,,,,,,,,,,,,,,,,,,,,,,,,,,,,0,2,2,0,1,,,,,,,,,,,,,,,,,,,,,,,,,,,,,,,,,,,,,,,,,
120589,001,2022-11-20_23h58.51.464,Info_measure_main_exp,2022.2.2,Win32,60.28090904,,,,,,,,,,,,,,,,,,masks/mask_003.jpg,,,,,,,,,,,,,,,,,,,,,,,,,,,,,,,,,,,,,,,,,,,,,,,,0,3,3,2,1,,,,,,,,,,,,,,,,,,,,,,,,,,,,,,,,,,,,,,,,,
120589,001,2022-11-20_23h58.51.464,Info_measure_main_exp,2022.2.2,Win32,60.28090904,,,,,,,,,,,,,,,,,,masks/mask_005.jpg,,,,,,,,,,,,,,,,,,,,,,,,,,,,,,,,,,,,,,,,,,,,,,,,0,4,4,4,1,,,,,,,,,,,,,,,,,,,,,,,,,,,,,,,,,,,,,,,,,
120589,001,2022-11-20_23h58.51.464,Info_measure_main_exp,2022.2.2,Win32,60.28090904,,,,,,,,,,,,,,,,,,,,,,,,,,,,,,6,0.8003,1,,,,,,,,,,,,0,131,5,5,1950,2238,absent_patch/patch0001950.jpg,absent_patch/patch0002238.jpg,,,,,,,,,,,,,,,,,,,,0.061111097,0.025000007,1,0,0,response1disk,29,0.011111153,0.002777771,1,0,0,center_square,0,28,28,8,1,,,,,,,,,,,,,,,,,,,,,,,
120589,001,2022-11-20_23h58.51.464,Info_measure_main_exp,2022.2.2,Win32,60.28090904,,,,,,,,,,,,,,,,,,masks/mask_005.jpg,,,,,,,,,,,,,,,,,,,,,,,,,,,,,,,,,,,,,,,,,,,0,0,0,4,1,,,,,,,,,,,,,,,,,,,,,,,,,,,,,,,,,,,,,,,,,,,,,,
120589,001,2022-11-20_23h58.51.464,Info_measure_main_exp,2022.2.2,Win32,60.28090904,,,,,,,,,,,,,,,,,,masks/mask_002.jpg,,,,,,,,,,,,,,,,,,,,,,,,,,,,,,,,,,,,,,,,,,,0,1,1,1,1,,,,,,,,,,,,,,,,,,,,,,,,,,,,,,,,,,,,,,,,,,,,,,
120589,001,2022-11-20_23h58.51.464,Info_measure_main_exp,2022.2.2,Win32,60.28090904,,,,,,,,,,,,,,,,,,masks/mask_003.jpg,,,,,,,,,,,,,,,,,,,,,,,,,,,,,,,,,,,,,,,,,,,0,2,2,2,1,,,,,,,,,,,,,,,,,,,,,,,,,,,,,,,,,,,,,,,,,,,,,,
120589,001,2022-11-20_23h58.51.464,Info_measure_main_exp,2022.2.2,Win32,60.28090904,,,,,,,,,,,,,,,,,,masks/mask_001.jpg,,,,,,,,,,,,,,,,,,,,,,,,,,,,,,,,,,,,,,,,,,,0,3,3,0,1,,,,,,,,,,,,,,,,,,,,,,,,,,,,,,,,,,,,,,,,,,,,,,
120589,001,2022-11-20_23h58.51.464,Info_measure_main_exp,2022.2.2,Win32,60.28090904,,,,,,,,,,,,,,,,,,masks/mask_004.jpg,,,,,,,,,,,,,,,,,,,,,,,,,,,,,,,,,,,,,,,,,,,0,4,4,3,1,,,,,,,,,,,,,,,,,,,,,,,,,,,,,,,,,,,,,,,,,,,,,,
120589,001,2022-11-20_23h58.51.464,Info_measure_main_exp,2022.2.2,Win32,60.28090904,,,,,,,,,,,,,,,,,,masks/mask_003.jpg,,,,,,,,,,,,,,,,,,,,,,,,,,,,,,,,,,,,,,,,,,,,,,,,0,0,0,2,1,,,,,,,,,,,,,,,,,,,,,,,,,,,,,,,,,,,,,,,,,
120589,001,2022-11-20_23h58.51.464,Info_measure_main_exp,2022.2.2,Win32,60.28090904,,,,,,,,,,,,,,,,,,masks/mask_001.jpg,,,,,,,,,,,,,,,,,,,,,,,,,,,,,,,,,,,,,,,,,,,,,,,,0,1,1,0,1,,,,,,,,,,,,,,,,,,,,,,,,,,,,,,,,,,,,,,,,,
120589,001,2022-11-20_23h58.51.464,Info_measure_main_exp,2022.2.2,Win32,60.28090904,,,,,,,,,,,,,,,,,,masks/mask_002.jpg,,,,,,,,,,,,,,,,,,,,,,,,,,,,,,,,,,,,,,,,,,,,,,,,0,2,2,1,1,,,,,,,,,,,,,,,,,,,,,,,,,,,,,,,,,,,,,,,,,
120589,001,2022-11-20_23h58.51.464,Info_measure_main_exp,2022.2.2,Win32,60.28090904,,,,,,,,,,,,,,,,,,masks/mask_004.jpg,,,,,,,,,,,,,,,,,,,,,,,,,,,,,,,,,,,,,,,,,,,,,,,,0,3,3,3,1,,,,,,,,,,,,,,,,,,,,,,,,,,,,,,,,,,,,,,,,,
120589,001,2022-11-20_23h58.51.464,Info_measure_main_exp,2022.2.2,Win32,60.28090904,,,,,,,,,,,,,,,,,,masks/mask_005.jpg,,,,,,,,,,,,,,,,,,,,,,,,,,,,,,,,,,,,,,,,,,,,,,,,0,4,4,4,1,,,,,,,,,,,,,,,,,,,,,,,,,,,,,,,,,,,,,,,,,
120589,001,2022-11-20_23h58.51.464,Info_measure_main_exp,2022.2.2,Win32,60.28090904,,,,,,,,,,,,,,,,,,,,,,,,,,,,,,7,0.7497,1,,,,,,,,,,,,0,131,5,5,1986,1974,absent_patch/patch0001986.jpg,absent_patch/patch0001974.jpg,,,,,,,,,,,,,,,,,,,,0.027777778,0.098148134,1,0,0,response1disk,30,-0.000925912,0.01203703,1,0,0,center_square,0,29,29,25,1,,,,,,,,,,,,,,,,,,,,,,,
120589,001,2022-11-20_23h58.51.464,Info_measure_main_exp,2022.2.2,Win32,60.28090904,,,,,,,,,,,,,,,,,,masks/mask_002.jpg,,,,,,,,,,,,,,,,,,,,,,,,,,,,,,,,,,,,,,,,,,,0,0,0,1,1,,,,,,,,,,,,,,,,,,,,,,,,,,,,,,,,,,,,,,,,,,,,,,
120589,001,2022-11-20_23h58.51.464,Info_measure_main_exp,2022.2.2,Win32,60.28090904,,,,,,,,,,,,,,,,,,masks/mask_005.jpg,,,,,,,,,,,,,,,,,,,,,,,,,,,,,,,,,,,,,,,,,,,0,1,1,4,1,,,,,,,,,,,,,,,,,,,,,,,,,,,,,,,,,,,,,,,,,,,,,,
120589,001,2022-11-20_23h58.51.464,Info_measure_main_exp,2022.2.2,Win32,60.28090904,,,,,,,,,,,,,,,,,,masks/mask_004.jpg,,,,,,,,,,,,,,,,,,,,,,,,,,,,,,,,,,,,,,,,,,,0,2,2,3,1,,,,,,,,,,,,,,,,,,,,,,,,,,,,,,,,,,,,,,,,,,,,,,
120589,001,2022-11-20_23h58.51.464,Info_measure_main_exp,2022.2.2,Win32,60.28090904,,,,,,,,,,,,,,,,,,masks/mask_003.jpg,,,,,,,,,,,,,,,,,,,,,,,,,,,,,,,,,,,,,,,,,,,0,3,3,2,1,,,,,,,,,,,,,,,,,,,,,,,,,,,,,,,,,,,,,,,,,,,,,,
120589,001,2022-11-20_23h58.51.464,Info_measure_main_exp,2022.2.2,Win32,60.28090904,,,,,,,,,,,,,,,,,,masks/mask_001.jpg,,,,,,,,,,,,,,,,,,,,,,,,,,,,,,,,,,,,,,,,,,,0,4,4,0,1,,,,,,,,,,,,,,,,,,,,,,,,,,,,,,,,,,,,,,,,,,,,,,
120589,001,2022-11-20_23h58.51.464,Info_measure_main_exp,2022.2.2,Win32,60.28090904,,,,,,,,,,,,,,,,,,masks/mask_003.jpg,,,,,,,,,,,,,,,,,,,,,,,,,,,,,,,,,,,,,,,,,,,,,,,,0,0,0,2,1,,,,,,,,,,,,,,,,,,,,,,,,,,,,,,,,,,,,,,,,,
120589,001,2022-11-20_23h58.51.464,Info_measure_main_exp,2022.2.2,Win32,60.28090904,,,,,,,,,,,,,,,,,,masks/mask_002.jpg,,,,,,,,,,,,,,,,,,,,,,,,,,,,,,,,,,,,,,,,,,,,,,,,0,1,1,1,1,,,,,,,,,,,,,,,,,,,,,,,,,,,,,,,,,,,,,,,,,
120589,001,2022-11-20_23h58.51.464,Info_measure_main_exp,2022.2.2,Win32,60.28090904,,,,,,,,,,,,,,,,,,masks/mask_005.jpg,,,,,,,,,,,,,,,,,,,,,,,,,,,,,,,,,,,,,,,,,,,,,,,,0,2,2,4,1,,,,,,,,,,,,,,,,,,,,,,,,,,,,,,,,,,,,,,,,,
120589,001,2022-11-20_23h58.51.464,Info_measure_main_exp,2022.2.2,Win32,60.28090904,,,,,,,,,,,,,,,,,,masks/mask_001.jpg,,,,,,,,,,,,,,,,,,,,,,,,,,,,,,,,,,,,,,,,,,,,,,,,0,3,3,0,1,,,,,,,,,,,,,,,,,,,,,,,,,,,,,,,,,,,,,,,,,
120589,001,2022-11-20_23h58.51.464,Info_measure_main_exp,2022.2.2,Win32,60.28090904,,,,,,,,,,,,,,,,,,masks/mask_004.jpg,,,,,,,,,,,,,,,,,,,,,,,,,,,,,,,,,,,,,,,,,,,,,,,,0,4,4,3,1,,,,,,,,,,,,,,,,,,,,,,,,,,,,,,,,,,,,,,,,,
120589,001,2022-11-20_23h58.51.464,Info_measure_main_exp,2022.2.2,Win32,60.28090904,,,,,,,,,,,,,,,,,,,,,,,,,,,,,,7,0.6996,1,,,,,,,,,,,,0,131,5,5,1986,2142,absent_patch/patch0001986.jpg,absent_patch/patch0002142.jpg,,,,,,,,,,,,,,,,,,,,0.039814843,0.110185164,1,0,0,response1disk,31,-0.003703718,0.001851859,1,0,0,center_square,0,30,30,76,1,,,,,,,,,,,,,,,,,,,,,,,
120589,001,2022-11-20_23h58.51.464,Info_measure_main_exp,2022.2.2,Win32,60.28090904,,,,,,,,,,,,,,,,,,masks/mask_003.jpg,,,,,,,,,,,,,,,,,,,,,,,,,,,,,,,,,,,,,,,,,,,0,0,0,2,1,,,,,,,,,,,,,,,,,,,,,,,,,,,,,,,,,,,,,,,,,,,,,,
120589,001,2022-11-20_23h58.51.464,Info_measure_main_exp,2022.2.2,Win32,60.28090904,,,,,,,,,,,,,,,,,,masks/mask_005.jpg,,,,,,,,,,,,,,,,,,,,,,,,,,,,,,,,,,,,,,,,,,,0,1,1,4,1,,,,,,,,,,,,,,,,,,,,,,,,,,,,,,,,,,,,,,,,,,,,,,
120589,001,2022-11-20_23h58.51.464,Info_measure_main_exp,2022.2.2,Win32,60.28090904,,,,,,,,,,,,,,,,,,masks/mask_004.jpg,,,,,,,,,,,,,,,,,,,,,,,,,,,,,,,,,,,,,,,,,,,0,2,2,3,1,,,,,,,,,,,,,,,,,,,,,,,,,,,,,,,,,,,,,,,,,,,,,,
120589,001,2022-11-20_23h58.51.464,Info_measure_main_exp,2022.2.2,Win32,60.28090904,,,,,,,,,,,,,,,,,,masks/mask_001.jpg,,,,,,,,,,,,,,,,,,,,,,,,,,,,,,,,,,,,,,,,,,,0,3,3,0,1,,,,,,,,,,,,,,,,,,,,,,,,,,,,,,,,,,,,,,,,,,,,,,
120589,001,2022-11-20_23h58.51.464,Info_measure_main_exp,2022.2.2,Win32,60.28090904,,,,,,,,,,,,,,,,,,masks/mask_002.jpg,,,,,,,,,,,,,,,,,,,,,,,,,,,,,,,,,,,,,,,,,,,0,4,4,1,1,,,,,,,,,,,,,,,,,,,,,,,,,,,,,,,,,,,,,,,,,,,,,,
120589,001,2022-11-20_23h58.51.464,Info_measure_main_exp,2022.2.2,Win32,60.28090904,,,,,,,,,,,,,,,,,,masks/mask_002.jpg,,,,,,,,,,,,,,,,,,,,,,,,,,,,,,,,,,,,,,,,,,,,,,,,0,0,0,1,1,,,,,,,,,,,,,,,,,,,,,,,,,,,,,,,,,,,,,,,,,
120589,001,2022-11-20_23h58.51.464,Info_measure_main_exp,2022.2.2,Win32,60.28090904,,,,,,,,,,,,,,,,,,masks/mask_004.jpg,,,,,,,,,,,,,,,,,,,,,,,,,,,,,,,,,,,,,,,,,,,,,,,,0,1,1,3,1,,,,,,,,,,,,,,,,,,,,,,,,,,,,,,,,,,,,,,,,,
120589,001,2022-11-20_23h58.51.464,Info_measure_main_exp,2022.2.2,Win32,60.28090904,,,,,,,,,,,,,,,,,,masks/mask_003.jpg,,,,,,,,,,,,,,,,,,,,,,,,,,,,,,,,,,,,,,,,,,,,,,,,0,2,2,2,1,,,,,,,,,,,,,,,,,,,,,,,,,,,,,,,,,,,,,,,,,
120589,001,2022-11-20_23h58.51.464,Info_measure_main_exp,2022.2.2,Win32,60.28090904,,,,,,,,,,,,,,,,,,masks/mask_005.jpg,,,,,,,,,,,,,,,,,,,,,,,,,,,,,,,,,,,,,,,,,,,,,,,,0,3,3,4,1,,,,,,,,,,,,,,,,,,,,,,,,,,,,,,,,,,,,,,,,,
120589,001,2022-11-20_23h58.51.464,Info_measure_main_exp,2022.2.2,Win32,60.28090904,,,,,,,,,,,,,,,,,,masks/mask_001.jpg,,,,,,,,,,,,,,,,,,,,,,,,,,,,,,,,,,,,,,,,,,,,,,,,0,4,4,0,1,,,,,,,,,,,,,,,,,,,,,,,,,,,,,,,,,,,,,,,,,
120589,001,2022-11-20_23h58.51.464,Info_measure_main_exp,2022.2.2,Win32,60.28090904,,,,,,,,,,,,,,,,,,,,,,,,,,,,,,3,1.4836,1,,,,,,,,,,,,0,131,5,5,1986,2274,absent_patch/patch0001986.jpg,absent_patch/patch0002274.jpg,,,,,,,,,,,,,,,,,,,,-0.022222236,-0.057407414,1,0,0,response5disk,32,0.005555541,-0.006481489,1,0,0,center_square,0,31,31,7,1,,,,,,,,,,,,,,,,,,,,,,,
120589,001,2022-11-20_23h58.51.464,Info_measure_main_exp,2022.2.2,Win32,60.28090904,,,,,,,,,,,,,,,,,,masks/mask_002.jpg,,,,,,,,,,,,,,,,,,,,,,,,,,,,,,,,,,,,,,,,,,,0,0,0,1,1,,,,,,,,,,,,,,,,,,,,,,,,,,,,,,,,,,,,,,,,,,,,,,
120589,001,2022-11-20_23h58.51.464,Info_measure_main_exp,2022.2.2,Win32,60.28090904,,,,,,,,,,,,,,,,,,masks/mask_001.jpg,,,,,,,,,,,,,,,,,,,,,,,,,,,,,,,,,,,,,,,,,,,0,1,1,0,1,,,,,,,,,,,,,,,,,,,,,,,,,,,,,,,,,,,,,,,,,,,,,,
120589,001,2022-11-20_23h58.51.464,Info_measure_main_exp,2022.2.2,Win32,60.28090904,,,,,,,,,,,,,,,,,,masks/mask_003.jpg,,,,,,,,,,,,,,,,,,,,,,,,,,,,,,,,,,,,,,,,,,,0,2,2,2,1,,,,,,,,,,,,,,,,,,,,,,,,,,,,,,,,,,,,,,,,,,,,,,
120589,001,2022-11-20_23h58.51.464,Info_measure_main_exp,2022.2.2,Win32,60.28090904,,,,,,,,,,,,,,,,,,masks/mask_004.jpg,,,,,,,,,,,,,,,,,,,,,,,,,,,,,,,,,,,,,,,,,,,0,3,3,3,1,,,,,,,,,,,,,,,,,,,,,,,,,,,,,,,,,,,,,,,,,,,,,,
120589,001,2022-11-20_23h58.51.464,Info_measure_main_exp,2022.2.2,Win32,60.28090904,,,,,,,,,,,,,,,,,,masks/mask_005.jpg,,,,,,,,,,,,,,,,,,,,,,,,,,,,,,,,,,,,,,,,,,,0,4,4,4,1,,,,,,,,,,,,,,,,,,,,,,,,,,,,,,,,,,,,,,,,,,,,,,
120589,001,2022-11-20_23h58.51.464,Info_measure_main_exp,2022.2.2,Win32,60.28090904,,,,,,,,,,,,,,,,,,masks/mask_001.jpg,,,,,,,,,,,,,,,,,,,,,,,,,,,,,,,,,,,,,,,,,,,,,,,,0,0,0,0,1,,,,,,,,,,,,,,,,,,,,,,,,,,,,,,,,,,,,,,,,,
120589,001,2022-11-20_23h58.51.464,Info_measure_main_exp,2022.2.2,Win32,60.28090904,,,,,,,,,,,,,,,,,,masks/mask_003.jpg,,,,,,,,,,,,,,,,,,,,,,,,,,,,,,,,,,,,,,,,,,,,,,,,0,1,1,2,1,,,,,,,,,,,,,,,,,,,,,,,,,,,,,,,,,,,,,,,,,
120589,001,2022-11-20_23h58.51.464,Info_measure_main_exp,2022.2.2,Win32,60.28090904,,,,,,,,,,,,,,,,,,masks/mask_002.jpg,,,,,,,,,,,,,,,,,,,,,,,,,,,,,,,,,,,,,,,,,,,,,,,,0,2,2,1,1,,,,,,,,,,,,,,,,,,,,,,,,,,,,,,,,,,,,,,,,,
120589,001,2022-11-20_23h58.51.464,Info_measure_main_exp,2022.2.2,Win32,60.28090904,,,,,,,,,,,,,,,,,,masks/mask_005.jpg,,,,,,,,,,,,,,,,,,,,,,,,,,,,,,,,,,,,,,,,,,,,,,,,0,3,3,4,1,,,,,,,,,,,,,,,,,,,,,,,,,,,,,,,,,,,,,,,,,
120589,001,2022-11-20_23h58.51.464,Info_measure_main_exp,2022.2.2,Win32,60.28090904,,,,,,,,,,,,,,,,,,masks/mask_004.jpg,,,,,,,,,,,,,,,,,,,,,,,,,,,,,,,,,,,,,,,,,,,,,,,,0,4,4,3,1,,,,,,,,,,,,,,,,,,,,,,,,,,,,,,,,,,,,,,,,,
120589,001,2022-11-20_23h58.51.464,Info_measure_main_exp,2022.2.2,Win32,60.28090904,,,,,,,,,,,,,,,,,,,,,,,,,,,,,,6,0.8836,1,,,,,,,,,,,,1,131,5,5,2250,1,absent_patch/patch0002250.jpg,present_patch/cong_131_5_a.jpg,,,,,,,,,,,,,,,,,,,,0.054629644,0.021296289,1,0,0,response1disk,33,-0.007407365,-0.002777771,1,0,0,center_square,0,32,32,5,1,,,,,,,,,,,,,,,,,,,,,,,
120589,001,2022-11-20_23h58.51.464,Info_measure_main_exp,2022.2.2,Win32,60.28090904,,,,,,,,,,,,,,,,,,masks/mask_004.jpg,,,,,,,,,,,,,,,,,,,,,,,,,,,,,,,,,,,,,,,,,,,0,0,0,3,1,,,,,,,,,,,,,,,,,,,,,,,,,,,,,,,,,,,,,,,,,,,,,,
120589,001,2022-11-20_23h58.51.464,Info_measure_main_exp,2022.2.2,Win32,60.28090904,,,,,,,,,,,,,,,,,,masks/mask_003.jpg,,,,,,,,,,,,,,,,,,,,,,,,,,,,,,,,,,,,,,,,,,,0,1,1,2,1,,,,,,,,,,,,,,,,,,,,,,,,,,,,,,,,,,,,,,,,,,,,,,
120589,001,2022-11-20_23h58.51.464,Info_measure_main_exp,2022.2.2,Win32,60.28090904,,,,,,,,,,,,,,,,,,masks/mask_005.jpg,,,,,,,,,,,,,,,,,,,,,,,,,,,,,,,,,,,,,,,,,,,0,2,2,4,1,,,,,,,,,,,,,,,,,,,,,,,,,,,,,,,,,,,,,,,,,,,,,,
120589,001,2022-11-20_23h58.51.464,Info_measure_main_exp,2022.2.2,Win32,60.28090904,,,,,,,,,,,,,,,,,,masks/mask_002.jpg,,,,,,,,,,,,,,,,,,,,,,,,,,,,,,,,,,,,,,,,,,,0,3,3,1,1,,,,,,,,,,,,,,,,,,,,,,,,,,,,,,,,,,,,,,,,,,,,,,
120589,001,2022-11-20_23h58.51.464,Info_measure_main_exp,2022.2.2,Win32,60.28090904,,,,,,,,,,,,,,,,,,masks/mask_001.jpg,,,,,,,,,,,,,,,,,,,,,,,,,,,,,,,,,,,,,,,,,,,0,4,4,0,1,,,,,,,,,,,,,,,,,,,,,,,,,,,,,,,,,,,,,,,,,,,,,,
120589,001,2022-11-20_23h58.51.464,Info_measure_main_exp,2022.2.2,Win32,60.28090904,,,,,,,,,,,,,,,,,,masks/mask_002.jpg,,,,,,,,,,,,,,,,,,,,,,,,,,,,,,,,,,,,,,,,,,,,,,,,0,0,0,1,1,,,,,,,,,,,,,,,,,,,,,,,,,,,,,,,,,,,,,,,,,
120589,001,2022-11-20_23h58.51.464,Info_measure_main_exp,2022.2.2,Win32,60.28090904,,,,,,,,,,,,,,,,,,masks/mask_005.jpg,,,,,,,,,,,,,,,,,,,,,,,,,,,,,,,,,,,,,,,,,,,,,,,,0,1,1,4,1,,,,,,,,,,,,,,,,,,,,,,,,,,,,,,,,,,,,,,,,,
120589,001,2022-11-20_23h58.51.464,Info_measure_main_exp,2022.2.2,Win32,60.28090904,,,,,,,,,,,,,,,,,,masks/mask_004.jpg,,,,,,,,,,,,,,,,,,,,,,,,,,,,,,,,,,,,,,,,,,,,,,,,0,2,2,3,1,,,,,,,,,,,,,,,,,,,,,,,,,,,,,,,,,,,,,,,,,
120589,001,2022-11-20_23h58.51.464,Info_measure_main_exp,2022.2.2,Win32,60.28090904,,,,,,,,,,,,,,,,,,masks/mask_001.jpg,,,,,,,,,,,,,,,,,,,,,,,,,,,,,,,,,,,,,,,,,,,,,,,,0,3,3,0,1,,,,,,,,,,,,,,,,,,,,,,,,,,,,,,,,,,,,,,,,,
120589,001,2022-11-20_23h58.51.464,Info_measure_main_exp,2022.2.2,Win32,60.28090904,,,,,,,,,,,,,,,,,,masks/mask_003.jpg,,,,,,,,,,,,,,,,,,,,,,,,,,,,,,,,,,,,,,,,,,,,,,,,0,4,4,2,1,,,,,,,,,,,,,,,,,,,,,,,,,,,,,,,,,,,,,,,,,
120589,001,2022-11-20_23h58.51.464,Info_measure_main_exp,2022.2.2,Win32,60.28090904,,,,,,,,,,,,,,,,,,,,,,,,,,,,,,7,0.9995,1,,,,,,,,,,,,0,131,5,5,2214,2166,absent_patch/patch0002214.jpg,absent_patch/patch0002166.jpg,,,,,,,,,,,,,,,,,,,,0.060185185,0.106481481,1,0,0,response1disk,34,0.006481524,-0.0074074,1,0,0,center_square,0,33,33,109,1,,,,,,,,,,,,,,,,,,,,,,,
120589,001,2022-11-20_23h58.51.464,Info_measure_main_exp,2022.2.2,Win32,60.28090904,,,,,,,,,,,,,,,,,,masks/mask_003.jpg,,,,,,,,,,,,,,,,,,,,,,,,,,,,,,,,,,,,,,,,,,,0,0,0,2,1,,,,,,,,,,,,,,,,,,,,,,,,,,,,,,,,,,,,,,,,,,,,,,
120589,001,2022-11-20_23h58.51.464,Info_measure_main_exp,2022.2.2,Win32,60.28090904,,,,,,,,,,,,,,,,,,masks/mask_001.jpg,,,,,,,,,,,,,,,,,,,,,,,,,,,,,,,,,,,,,,,,,,,0,1,1,0,1,,,,,,,,,,,,,,,,,,,,,,,,,,,,,,,,,,,,,,,,,,,,,,
120589,001,2022-11-20_23h58.51.464,Info_measure_main_exp,2022.2.2,Win32,60.28090904,,,,,,,,,,,,,,,,,,masks/mask_002.jpg,,,,,,,,,,,,,,,,,,,,,,,,,,,,,,,,,,,,,,,,,,,0,2,2,1,1,,,,,,,,,,,,,,,,,,,,,,,,,,,,,,,,,,,,,,,,,,,,,,
120589,001,2022-11-20_23h58.51.464,Info_measure_main_exp,2022.2.2,Win32,60.28090904,,,,,,,,,,,,,,,,,,masks/mask_004.jpg,,,,,,,,,,,,,,,,,,,,,,,,,,,,,,,,,,,,,,,,,,,0,3,3,3,1,,,,,,,,,,,,,,,,,,,,,,,,,,,,,,,,,,,,,,,,,,,,,,
120589,001,2022-11-20_23h58.51.464,Info_measure_main_exp,2022.2.2,Win32,60.28090904,,,,,,,,,,,,,,,,,,masks/mask_005.jpg,,,,,,,,,,,,,,,,,,,,,,,,,,,,,,,,,,,,,,,,,,,0,4,4,4,1,,,,,,,,,,,,,,,,,,,,,,,,,,,,,,,,,,,,,,,,,,,,,,
120589,001,2022-11-20_23h58.51.464,Info_measure_main_exp,2022.2.2,Win32,60.28090904,,,,,,,,,,,,,,,,,,masks/mask_005.jpg,,,,,,,,,,,,,,,,,,,,,,,,,,,,,,,,,,,,,,,,,,,,,,,,0,0,0,4,1,,,,,,,,,,,,,,,,,,,,,,,,,,,,,,,,,,,,,,,,,
120589,001,2022-11-20_23h58.51.464,Info_measure_main_exp,2022.2.2,Win32,60.28090904,,,,,,,,,,,,,,,,,,masks/mask_002.jpg,,,,,,,,,,,,,,,,,,,,,,,,,,,,,,,,,,,,,,,,,,,,,,,,0,1,1,1,1,,,,,,,,,,,,,,,,,,,,,,,,,,,,,,,,,,,,,,,,,
120589,001,2022-11-20_23h58.51.464,Info_measure_main_exp,2022.2.2,Win32,60.28090904,,,,,,,,,,,,,,,,,,masks/mask_004.jpg,,,,,,,,,,,,,,,,,,,,,,,,,,,,,,,,,,,,,,,,,,,,,,,,0,2,2,3,1,,,,,,,,,,,,,,,,,,,,,,,,,,,,,,,,,,,,,,,,,
120589,001,2022-11-20_23h58.51.464,Info_measure_main_exp,2022.2.2,Win32,60.28090904,,,,,,,,,,,,,,,,,,masks/mask_003.jpg,,,,,,,,,,,,,,,,,,,,,,,,,,,,,,,,,,,,,,,,,,,,,,,,0,3,3,2,1,,,,,,,,,,,,,,,,,,,,,,,,,,,,,,,,,,,,,,,,,
