participant,session,date,expName,psychopyVersion,OS,frameRate,space_press_continue.keys,space_press_continue.rt,space_press_continue_2.keys,space_press_continue_2.rt,space_press_continue_3.keys,space_press_continue_3.rt,space_press_continue_4.keys,space_press_continue_4.rt,space_press_continue_5.keys,space_press_continue_5.rt,space_press_continue_6.keys,space_press_continue_6.rt,prac_mask_loop_1.thisRepN,prac_mask_loop_1.thisTrialN,prac_mask_loop_1.thisN,prac_mask_loop_1.thisIndex,prac_mask_loop_1.ran,mask_name,prac_mask_loop_2.thisRepN,prac_mask_loop_2.thisTrialN,prac_mask_loop_2.thisN,prac_mask_loop_2.thisIndex,prac_mask_loop_2.ran,mouse_2.x,mouse_2.y,mouse_2.leftButton,mouse_2.midButton,mouse_2.rightButton,mouse_2.clicked_name,similarity,response_time,Pass,mouse_12.x,mouse_12.y,mouse_12.leftButton,mouse_12.midButton,mouse_12.rightButton,mouse_12.clicked_name,prac_loop.thisRepN,prac_loop.thisTrialN,prac_loop.thisN,prac_loop.thisIndex,prac_loop.ran,Pair_type,Image_num,Patch_1_loc,Patch_2_loc,Patch_1_info,Patch_2_info,Patch_1_name,Patch_2_name,mouse_1.x,mouse_1.y,mouse_1.leftButton,mouse_1.midButton,mouse_1.rightButton,mouse_1.time,mouse_1.clicked_name,space_press_continue_7.keys,space_press_continue_7.rt,mask_loop.thisRepN,mask_loop.thisTrialN,mask_loop.thisN,mask_loop.thisIndex,mask_loop.ran,mask_loop_2.thisRepN,mask_loop_2.thisTrialN,mask_loop_2.thisN,mask_loop_2.thisIndex,mask_loop_2.ran,mouse.x,mouse.y,mouse.leftButton,mouse.midButton,mouse.rightButton,mouse.clicked_name,trialNumber,mouse_11.x,mouse_11.y,mouse_11.leftButton,mouse_11.midButton,mouse_11.rightButton,mouse_11.clicked_name,first_pass_loop.thisRepN,first_pass_loop.thisTrialN,first_pass_loop.thisN,first_pass_loop.thisIndex,first_pass_loop.ran,mask_loop_3.thisRepN,mask_loop_3.thisTrialN,mask_loop_3.thisN,mask_loop_3.thisIndex,mask_loop_3.ran,mask_loop_4.thisRepN,mask_loop_4.thisTrialN,mask_loop_4.thisN,mask_loop_4.thisIndex,mask_loop_4.ran,mouse_3.x,mouse_3.y,mouse_3.leftButton,mouse_3.midButton,mouse_3.rightButton,mouse_3.clicked_name,double_pass_loop.thisRepN,double_pass_loop.thisTrialN,double_pass_loop.thisN,double_pass_loop.thisIndex,double_pass_loop.ran,space_exit.keys,space_exit.rt
123524,001,2022-11-21_24h52.21.572,Info_measure_main_exp,2022.2.2,Win32,60.00960154,,,,,,,,,,,,,,,,,,,,,,,,,,,,,,,,,,,,,,,,,,,,,,,,,,,,,,,,,,,,,,,,,,,,,,,,,,,,,,,,,,,,,,,,,,,,,,,,,,,,,,,,,,,,,,,
123524,001,2022-11-21_24h52.21.572,Info_measure_main_exp,2022.2.2,Win32,60.00960154,,,,,,,,,,,,,,,,,,,,,,,,,,,,,,,,,,,,,,,,,,,,,,,,,,,,,,,,,,,,,,,,,,,,,,,,,,,,,,,,,,,,,,,,,,,,,,,,,,,,,,,,,,,,,,,
123524,001,2022-11-21_24h52.21.572,Info_measure_main_exp,2022.2.2,Win32,60.00960154,space,41.1439,,,,,,,,,,,,,,,,,,,,,,,,,,,,,,,,,,,,,,,,,,,,,,,,,,,,,,,,,,,,,,,,,,,,,,,,,,,,,,,,,,,,,,,,,,,,,,,,,,,,,,,,,,,,,
123524,001,2022-11-21_24h52.21.572,Info_measure_main_exp,2022.2.2,Win32,60.00960154,,,space,44.694,,,,,,,,,,,,,,,,,,,,,,,,,,,,,,,,,,,,,,,,,,,,,,,,,,,,,,,,,,,,,,,,,,,,,,,,,,,,,,,,,,,,,,,,,,,,,,,,,,,,,,,,,,,
123524,001,2022-11-21_24h52.21.572,Info_measure_main_exp,2022.2.2,Win32,60.00960154,,,,,space,5.4488,,,,,,,,,,,,,,,,,,,,,,,,,,,,,,,,,,,,,,,,,,,,,,,,,,,,,,,,,,,,,,,,,,,,,,,,,,,,,,,,,,,,,,,,,,,,,,,,,,,,,,,,,
123524,001,2022-11-21_24h52.21.572,Info_measure_main_exp,2022.2.2,Win32,60.00960154,,,,,,,space,4.553,,,,,,,,,,,,,,,,,,,,,,,,,,,,,,,,,,,,,,,,,,,,,,,,,,,,,,,,,,,,,,,,,,,,,,,,,,,,,,,,,,,,,,,,,,,,,,,,,,,,,,,
123524,001,2022-11-21_24h52.21.572,Info_measure_main_exp,2022.2.2,Win32,60.00960154,,,,,,,,,space,9.2592,,,,,,,,,,,,,,,,,,,,,,,,,,,,,,,,,,,,,,,,,,,,,,,,,,,,,,,,,,,,,,,,,,,,,,,,,,,,,,,,,,,,,,,,,,,,,,,,,,,,,
123524,001,2022-11-21_24h52.21.572,Info_measure_main_exp,2022.2.2,Win32,60.00960154,,,,,,,,,,,space,2.7161,,,,,,,,,,,,,,,,,,,,,,,,,,,,,,,,,,,,,,,,,,,,,,,,,,,,,,,,,,,,,,,,,,,,,,,,,,,,,,,,,,,,,,,,,,,,,,,,,,,
123524,001,2022-11-21_24h52.21.572,Info_measure_main_exp,2022.2.2,Win32,60.00960154,,,,,,,,,,,,,0,0,0,3,1,masks/mask_004.jpg,,,,,,,,,,,,,,,,,,,,,,,,,,,,,,,,,,,,,,,,,,,,,,,,,,,,,,,,,,,,,,,,,,,,,,,,,,,,,,,,,,,,,,,,,,,,,
123524,001,2022-11-21_24h52.21.572,Info_measure_main_exp,2022.2.2,Win32,60.00960154,,,,,,,,,,,,,0,1,1,0,1,masks/mask_001.jpg,,,,,,,,,,,,,,,,,,,,,,,,,,,,,,,,,,,,,,,,,,,,,,,,,,,,,,,,,,,,,,,,,,,,,,,,,,,,,,,,,,,,,,,,,,,,,
123524,001,2022-11-21_24h52.21.572,Info_measure_main_exp,2022.2.2,Win32,60.00960154,,,,,,,,,,,,,0,2,2,4,1,masks/mask_005.jpg,,,,,,,,,,,,,,,,,,,,,,,,,,,,,,,,,,,,,,,,,,,,,,,,,,,,,,,,,,,,,,,,,,,,,,,,,,,,,,,,,,,,,,,,,,,,,
123524,001,2022-11-21_24h52.21.572,Info_measure_main_exp,2022.2.2,Win32,60.00960154,,,,,,,,,,,,,0,3,3,1,1,masks/mask_002.jpg,,,,,,,,,,,,,,,,,,,,,,,,,,,,,,,,,,,,,,,,,,,,,,,,,,,,,,,,,,,,,,,,,,,,,,,,,,,,,,,,,,,,,,,,,,,,,
123524,001,2022-11-21_24h52.21.572,Info_measure_main_exp,2022.2.2,Win32,60.00960154,,,,,,,,,,,,,0,4,4,2,1,masks/mask_003.jpg,,,,,,,,,,,,,,,,,,,,,,,,,,,,,,,,,,,,,,,,,,,,,,,,,,,,,,,,,,,,,,,,,,,,,,,,,,,,,,,,,,,,,,,,,,,,,
123524,001,2022-11-21_24h52.21.572,Info_measure_main_exp,2022.2.2,Win32,60.00960154,,,,,,,,,,,,,,,,,,masks/mask_001.jpg,0,0,0,0,1,,,,,,,,,,,,,,,,,,,,,,,,,,,,,,,,,,,,,,,,,,,,,,,,,,,,,,,,,,,,,,,,,,,,,,,,,,,,,,,,,,,,,,,,
123524,001,2022-11-21_24h52.21.572,Info_measure_main_exp,2022.2.2,Win32,60.00960154,,,,,,,,,,,,,,,,,,masks/mask_004.jpg,0,1,1,3,1,,,,,,,,,,,,,,,,,,,,,,,,,,,,,,,,,,,,,,,,,,,,,,,,,,,,,,,,,,,,,,,,,,,,,,,,,,,,,,,,,,,,,,,,
123524,001,2022-11-21_24h52.21.572,Info_measure_main_exp,2022.2.2,Win32,60.00960154,,,,,,,,,,,,,,,,,,masks/mask_002.jpg,0,2,2,1,1,,,,,,,,,,,,,,,,,,,,,,,,,,,,,,,,,,,,,,,,,,,,,,,,,,,,,,,,,,,,,,,,,,,,,,,,,,,,,,,,,,,,,,,,
123524,001,2022-11-21_24h52.21.572,Info_measure_main_exp,2022.2.2,Win32,60.00960154,,,,,,,,,,,,,,,,,,masks/mask_003.jpg,0,3,3,2,1,,,,,,,,,,,,,,,,,,,,,,,,,,,,,,,,,,,,,,,,,,,,,,,,,,,,,,,,,,,,,,,,,,,,,,,,,,,,,,,,,,,,,,,,
123524,001,2022-11-21_24h52.21.572,Info_measure_main_exp,2022.2.2,Win32,60.00960154,,,,,,,,,,,,,,,,,,masks/mask_005.jpg,0,4,4,4,1,,,,,,,,,,,,,,,,,,,,,,,,,,,,,,,,,,,,,,,,,,,,,,,,,,,,,,,,,,,,,,,,,,,,,,,,,,,,,,,,,,,,,,,,
123524,001,2022-11-21_24h52.21.572,Info_measure_main_exp,2022.2.2,Win32,60.00960154,,,,,,,,,,,,,,,,,,,,,,,,-0.007407407,-0.000925926,1,0,0,response5disk,2,111.6472,1,0.001851852,0,1,0,0,center_square,0,0,0,0,1,0,131,5,5,2370,2406,prac_patch/patch0002370.jpg,prac_patch/patch0002406.jpg,,,,,,,,,,,,,,,,,,,,,,,,,,,,,,,,,,,,,,,,,,,,,,,,,,,,,,,,,,,,
123524,001,2022-11-21_24h52.21.572,Info_measure_main_exp,2022.2.2,Win32,60.00960154,,,,,,,,,,,,,0,0,0,4,1,masks/mask_005.jpg,,,,,,,,,,,,,,,,,,,,,,,,,,,,,,,,,,,,,,,,,,,,,,,,,,,,,,,,,,,,,,,,,,,,,,,,,,,,,,,,,,,,,,,,,,,,,
123524,001,2022-11-21_24h52.21.572,Info_measure_main_exp,2022.2.2,Win32,60.00960154,,,,,,,,,,,,,0,1,1,2,1,masks/mask_003.jpg,,,,,,,,,,,,,,,,,,,,,,,,,,,,,,,,,,,,,,,,,,,,,,,,,,,,,,,,,,,,,,,,,,,,,,,,,,,,,,,,,,,,,,,,,,,,,
123524,001,2022-11-21_24h52.21.572,Info_measure_main_exp,2022.2.2,Win32,60.00960154,,,,,,,,,,,,,0,2,2,1,1,masks/mask_002.jpg,,,,,,,,,,,,,,,,,,,,,,,,,,,,,,,,,,,,,,,,,,,,,,,,,,,,,,,,,,,,,,,,,,,,,,,,,,,,,,,,,,,,,,,,,,,,,
123524,001,2022-11-21_24h52.21.572,Info_measure_main_exp,2022.2.2,Win32,60.00960154,,,,,,,,,,,,,0,3,3,0,1,masks/mask_001.jpg,,,,,,,,,,,,,,,,,,,,,,,,,,,,,,,,,,,,,,,,,,,,,,,,,,,,,,,,,,,,,,,,,,,,,,,,,,,,,,,,,,,,,,,,,,,,,
123524,001,2022-11-21_24h52.21.572,Info_measure_main_exp,2022.2.2,Win32,60.00960154,,,,,,,,,,,,,0,4,4,3,1,masks/mask_004.jpg,,,,,,,,,,,,,,,,,,,,,,,,,,,,,,,,,,,,,,,,,,,,,,,,,,,,,,,,,,,,,,,,,,,,,,,,,,,,,,,,,,,,,,,,,,,,,
123524,001,2022-11-21_24h52.21.572,Info_measure_main_exp,2022.2.2,Win32,60.00960154,,,,,,,,,,,,,,,,,,masks/mask_004.jpg,0,0,0,3,1,,,,,,,,,,,,,,,,,,,,,,,,,,,,,,,,,,,,,,,,,,,,,,,,,,,,,,,,,,,,,,,,,,,,,,,,,,,,,,,,,,,,,,,,
123524,001,2022-11-21_24h52.21.572,Info_measure_main_exp,2022.2.2,Win32,60.00960154,,,,,,,,,,,,,,,,,,masks/mask_002.jpg,0,1,1,1,1,,,,,,,,,,,,,,,,,,,,,,,,,,,,,,,,,,,,,,,,,,,,,,,,,,,,,,,,,,,,,,,,,,,,,,,,,,,,,,,,,,,,,,,,
123524,001,2022-11-21_24h52.21.572,Info_measure_main_exp,2022.2.2,Win32,60.00960154,,,,,,,,,,,,,,,,,,masks/mask_001.jpg,0,2,2,0,1,,,,,,,,,,,,,,,,,,,,,,,,,,,,,,,,,,,,,,,,,,,,,,,,,,,,,,,,,,,,,,,,,,,,,,,,,,,,,,,,,,,,,,,,
123524,001,2022-11-21_24h52.21.572,Info_measure_main_exp,2022.2.2,Win32,60.00960154,,,,,,,,,,,,,,,,,,masks/mask_005.jpg,0,3,3,4,1,,,,,,,,,,,,,,,,,,,,,,,,,,,,,,,,,,,,,,,,,,,,,,,,,,,,,,,,,,,,,,,,,,,,,,,,,,,,,,,,,,,,,,,,
123524,001,2022-11-21_24h52.21.572,Info_measure_main_exp,2022.2.2,Win32,60.00960154,,,,,,,,,,,,,,,,,,masks/mask_003.jpg,0,4,4,2,1,,,,,,,,,,,,,,,,,,,,,,,,,,,,,,,,,,,,,,,,,,,,,,,,,,,,,,,,,,,,,,,,,,,,,,,,,,,,,,,,,,,,,,,,
123524,001,2022-11-21_24h52.21.572,Info_measure_main_exp,2022.2.2,Win32,60.00960154,,,,,,,,,,,,,,,,,,,,,,,,-0.047222222,-0.048148148,1,0,0,response5disk,3,122.0628,1,-0.002777778,-0.000925926,1,0,0,center_square,0,1,1,1,1,0,131,5,5,2514,2490,prac_patch/patch0002514.jpg,prac_patch/patch0002490.jpg,,,,,,,,,,,,,,,,,,,,,,,,,,,,,,,,,,,,,,,,,,,,,,,,,,,,,,,,,,,,
123524,001,2022-11-21_24h52.21.572,Info_measure_main_exp,2022.2.2,Win32,60.00960154,,,,,,,,,,,,,0,0,0,3,1,masks/mask_004.jpg,,,,,,,,,,,,,,,,,,,,,,,,,,,,,,,,,,,,,,,,,,,,,,,,,,,,,,,,,,,,,,,,,,,,,,,,,,,,,,,,,,,,,,,,,,,,,
123524,001,2022-11-21_24h52.21.572,Info_measure_main_exp,2022.2.2,Win32,60.00960154,,,,,,,,,,,,,0,1,1,2,1,masks/mask_003.jpg,,,,,,,,,,,,,,,,,,,,,,,,,,,,,,,,,,,,,,,,,,,,,,,,,,,,,,,,,,,,,,,,,,,,,,,,,,,,,,,,,,,,,,,,,,,,,
123524,001,2022-11-21_24h52.21.572,Info_measure_main_exp,2022.2.2,Win32,60.00960154,,,,,,,,,,,,,0,2,2,0,1,masks/mask_001.jpg,,,,,,,,,,,,,,,,,,,,,,,,,,,,,,,,,,,,,,,,,,,,,,,,,,,,,,,,,,,,,,,,,,,,,,,,,,,,,,,,,,,,,,,,,,,,,
123524,001,2022-11-21_24h52.21.572,Info_measure_main_exp,2022.2.2,Win32,60.00960154,,,,,,,,,,,,,0,3,3,4,1,masks/mask_005.jpg,,,,,,,,,,,,,,,,,,,,,,,,,,,,,,,,,,,,,,,,,,,,,,,,,,,,,,,,,,,,,,,,,,,,,,,,,,,,,,,,,,,,,,,,,,,,,
123524,001,2022-11-21_24h52.21.572,Info_measure_main_exp,2022.2.2,Win32,60.00960154,,,,,,,,,,,,,0,4,4,1,1,masks/mask_002.jpg,,,,,,,,,,,,,,,,,,,,,,,,,,,,,,,,,,,,,,,,,,,,,,,,,,,,,,,,,,,,,,,,,,,,,,,,,,,,,,,,,,,,,,,,,,,,,
123524,001,2022-11-21_24h52.21.572,Info_measure_main_exp,2022.2.2,Win32,60.00960154,,,,,,,,,,,,,,,,,,masks/mask_002.jpg,0,0,0,1,1,,,,,,,,,,,,,,,,,,,,,,,,,,,,,,,,,,,,,,,,,,,,,,,,,,,,,,,,,,,,,,,,,,,,,,,,,,,,,,,,,,,,,,,,
123524,001,2022-11-21_24h52.21.572,Info_measure_main_exp,2022.2.2,Win32,60.00960154,,,,,,,,,,,,,,,,,,masks/mask_001.jpg,0,1,1,0,1,,,,,,,,,,,,,,,,,,,,,,,,,,,,,,,,,,,,,,,,,,,,,,,,,,,,,,,,,,,,,,,,,,,,,,,,,,,,,,,,,,,,,,,,
123524,001,2022-11-21_24h52.21.572,Info_measure_main_exp,2022.2.2,Win32,60.00960154,,,,,,,,,,,,,,,,,,masks/mask_004.jpg,0,2,2,3,1,,,,,,,,,,,,,,,,,,,,,,,,,,,,,,,,,,,,,,,,,,,,,,,,,,,,,,,,,,,,,,,,,,,,,,,,,,,,,,,,,,,,,,,,
123524,001,2022-11-21_24h52.21.572,Info_measure_main_exp,2022.2.2,Win32,60.00960154,,,,,,,,,,,,,,,,,,masks/mask_005.jpg,0,3,3,4,1,,,,,,,,,,,,,,,,,,,,,,,,,,,,,,,,,,,,,,,,,,,,,,,,,,,,,,,,,,,,,,,,,,,,,,,,,,,,,,,,,,,,,,,,
123524,001,2022-11-21_24h52.21.572,Info_measure_main_exp,2022.2.2,Win32,60.00960154,,,,,,,,,,,,,,,,,,masks/mask_003.jpg,0,4,4,2,1,,,,,,,,,,,,,,,,,,,,,,,,,,,,,,,,,,,,,,,,,,,,,,,,,,,,,,,,,,,,,,,,,,,,,,,,,,,,,,,,,,,,,,,,
123524,001,2022-11-21_24h52.21.572,Info_measure_main_exp,2022.2.2,Win32,60.00960154,,,,,,,,,,,,,,,,,,,,,,,,0.026851852,-0.027777778,1,0,0,response3disk,4,131.546,1,-0.002777778,-0.002777778,1,0,0,center_square,0,2,2,2,1,0,131,5,5,2526,2526,prac_patch/patch0002526.jpg,prac_patch/patch0002526.jpg,,,,,,,,,,,,,,,,,,,,,,,,,,,,,,,,,,,,,,,,,,,,,,,,,,,,,,,,,,,,
123524,001,2022-11-21_24h52.21.572,Info_measure_main_exp,2022.2.2,Win32,60.00960154,,,,,,,,,,,,,,,,,,,,,,,,,,,,,,,,,,,,,,,,,,,,,,,,,,,,,,,,,,,space,2.3273,,,,,,,,,,,,,,,,,,,,,,,,,,,,,,,,,,,,,,,,,,,,,,,,,,,
123524,001,2022-11-21_24h52.21.572,Info_measure_main_exp,2022.2.2,Win32,60.00960154,,,,,,,,,,,,,,,,,,masks/mask_003.jpg,,,,,,,,,,,,,,,,,,,,,,,,,,,,,,,,,,,,,,,,,,,0,0,0,2,1,,,,,,,,,,,,,,,,,,,,,,,,,,,,,,,,,,,,,,,,,,,,,,
123524,001,2022-11-21_24h52.21.572,Info_measure_main_exp,2022.2.2,Win32,60.00960154,,,,,,,,,,,,,,,,,,masks/mask_004.jpg,,,,,,,,,,,,,,,,,,,,,,,,,,,,,,,,,,,,,,,,,,,0,1,1,3,1,,,,,,,,,,,,,,,,,,,,,,,,,,,,,,,,,,,,,,,,,,,,,,
123524,001,2022-11-21_24h52.21.572,Info_measure_main_exp,2022.2.2,Win32,60.00960154,,,,,,,,,,,,,,,,,,masks/mask_002.jpg,,,,,,,,,,,,,,,,,,,,,,,,,,,,,,,,,,,,,,,,,,,0,2,2,1,1,,,,,,,,,,,,,,,,,,,,,,,,,,,,,,,,,,,,,,,,,,,,,,
123524,001,2022-11-21_24h52.21.572,Info_measure_main_exp,2022.2.2,Win32,60.00960154,,,,,,,,,,,,,,,,,,masks/mask_001.jpg,,,,,,,,,,,,,,,,,,,,,,,,,,,,,,,,,,,,,,,,,,,0,3,3,0,1,,,,,,,,,,,,,,,,,,,,,,,,,,,,,,,,,,,,,,,,,,,,,,
123524,001,2022-11-21_24h52.21.572,Info_measure_main_exp,2022.2.2,Win32,60.00960154,,,,,,,,,,,,,,,,,,masks/mask_005.jpg,,,,,,,,,,,,,,,,,,,,,,,,,,,,,,,,,,,,,,,,,,,0,4,4,4,1,,,,,,,,,,,,,,,,,,,,,,,,,,,,,,,,,,,,,,,,,,,,,,
123524,001,2022-11-21_24h52.21.572,Info_measure_main_exp,2022.2.2,Win32,60.00960154,,,,,,,,,,,,,,,,,,masks/mask_005.jpg,,,,,,,,,,,,,,,,,,,,,,,,,,,,,,,,,,,,,,,,,,,,,,,,0,0,0,4,1,,,,,,,,,,,,,,,,,,,,,,,,,,,,,,,,,,,,,,,,,
123524,001,2022-11-21_24h52.21.572,Info_measure_main_exp,2022.2.2,Win32,60.00960154,,,,,,,,,,,,,,,,,,masks/mask_001.jpg,,,,,,,,,,,,,,,,,,,,,,,,,,,,,,,,,,,,,,,,,,,,,,,,0,1,1,0,1,,,,,,,,,,,,,,,,,,,,,,,,,,,,,,,,,,,,,,,,,
123524,001,2022-11-21_24h52.21.572,Info_measure_main_exp,2022.2.2,Win32,60.00960154,,,,,,,,,,,,,,,,,,masks/mask_003.jpg,,,,,,,,,,,,,,,,,,,,,,,,,,,,,,,,,,,,,,,,,,,,,,,,0,2,2,2,1,,,,,,,,,,,,,,,,,,,,,,,,,,,,,,,,,,,,,,,,,
123524,001,2022-11-21_24h52.21.572,Info_measure_main_exp,2022.2.2,Win32,60.00960154,,,,,,,,,,,,,,,,,,masks/mask_002.jpg,,,,,,,,,,,,,,,,,,,,,,,,,,,,,,,,,,,,,,,,,,,,,,,,0,3,3,1,1,,,,,,,,,,,,,,,,,,,,,,,,,,,,,,,,,,,,,,,,,
123524,001,2022-11-21_24h52.21.572,Info_measure_main_exp,2022.2.2,Win32,60.00960154,,,,,,,,,,,,,,,,,,masks/mask_004.jpg,,,,,,,,,,,,,,,,,,,,,,,,,,,,,,,,,,,,,,,,,,,,,,,,0,4,4,3,1,,,,,,,,,,,,,,,,,,,,,,,,,,,,,,,,,,,,,,,,,
123524,001,2022-11-21_24h52.21.572,Info_measure_main_exp,2022.2.2,Win32,60.00960154,,,,,,,,,,,,,,,,,,,,,,,,,,,,,,0,1.5364,1,,,,,,,,,,,,0,131,5,5,2166,1986,absent_patch/patch0002166.jpg,absent_patch/patch0001986.jpg,,,,,,,,,,,,,,,,,,,,-0.044444444,0.176851852,1,0,0,response7disk,1,0.000925926,0.006481481,1,0,0,center_square,0,0,0,47,1,,,,,,,,,,,,,,,,,,,,,,,
123524,001,2022-11-21_24h52.21.572,Info_measure_main_exp,2022.2.2,Win32,60.00960154,,,,,,,,,,,,,,,,,,masks/mask_005.jpg,,,,,,,,,,,,,,,,,,,,,,,,,,,,,,,,,,,,,,,,,,,0,0,0,4,1,,,,,,,,,,,,,,,,,,,,,,,,,,,,,,,,,,,,,,,,,,,,,,
123524,001,2022-11-21_24h52.21.572,Info_measure_main_exp,2022.2.2,Win32,60.00960154,,,,,,,,,,,,,,,,,,masks/mask_003.jpg,,,,,,,,,,,,,,,,,,,,,,,,,,,,,,,,,,,,,,,,,,,0,1,1,2,1,,,,,,,,,,,,,,,,,,,,,,,,,,,,,,,,,,,,,,,,,,,,,,
123524,001,2022-11-21_24h52.21.572,Info_measure_main_exp,2022.2.2,Win32,60.00960154,,,,,,,,,,,,,,,,,,masks/mask_002.jpg,,,,,,,,,,,,,,,,,,,,,,,,,,,,,,,,,,,,,,,,,,,0,2,2,1,1,,,,,,,,,,,,,,,,,,,,,,,,,,,,,,,,,,,,,,,,,,,,,,
123524,001,2022-11-21_24h52.21.572,Info_measure_main_exp,2022.2.2,Win32,60.00960154,,,,,,,,,,,,,,,,,,masks/mask_001.jpg,,,,,,,,,,,,,,,,,,,,,,,,,,,,,,,,,,,,,,,,,,,0,3,3,0,1,,,,,,,,,,,,,,,,,,,,,,,,,,,,,,,,,,,,,,,,,,,,,,
123524,001,2022-11-21_24h52.21.572,Info_measure_main_exp,2022.2.2,Win32,60.00960154,,,,,,,,,,,,,,,,,,masks/mask_004.jpg,,,,,,,,,,,,,,,,,,,,,,,,,,,,,,,,,,,,,,,,,,,0,4,4,3,1,,,,,,,,,,,,,,,,,,,,,,,,,,,,,,,,,,,,,,,,,,,,,,
123524,001,2022-11-21_24h52.21.572,Info_measure_main_exp,2022.2.2,Win32,60.00960154,,,,,,,,,,,,,,,,,,masks/mask_001.jpg,,,,,,,,,,,,,,,,,,,,,,,,,,,,,,,,,,,,,,,,,,,,,,,,0,0,0,0,1,,,,,,,,,,,,,,,,,,,,,,,,,,,,,,,,,,,,,,,,,
123524,001,2022-11-21_24h52.21.572,Info_measure_main_exp,2022.2.2,Win32,60.00960154,,,,,,,,,,,,,,,,,,masks/mask_003.jpg,,,,,,,,,,,,,,,,,,,,,,,,,,,,,,,,,,,,,,,,,,,,,,,,0,1,1,2,1,,,,,,,,,,,,,,,,,,,,,,,,,,,,,,,,,,,,,,,,,
123524,001,2022-11-21_24h52.21.572,Info_measure_main_exp,2022.2.2,Win32,60.00960154,,,,,,,,,,,,,,,,,,masks/mask_004.jpg,,,,,,,,,,,,,,,,,,,,,,,,,,,,,,,,,,,,,,,,,,,,,,,,0,2,2,3,1,,,,,,,,,,,,,,,,,,,,,,,,,,,,,,,,,,,,,,,,,
123524,001,2022-11-21_24h52.21.572,Info_measure_main_exp,2022.2.2,Win32,60.00960154,,,,,,,,,,,,,,,,,,masks/mask_005.jpg,,,,,,,,,,,,,,,,,,,,,,,,,,,,,,,,,,,,,,,,,,,,,,,,0,3,3,4,1,,,,,,,,,,,,,,,,,,,,,,,,,,,,,,,,,,,,,,,,,
123524,001,2022-11-21_24h52.21.572,Info_measure_main_exp,2022.2.2,Win32,60.00960154,,,,,,,,,,,,,,,,,,masks/mask_002.jpg,,,,,,,,,,,,,,,,,,,,,,,,,,,,,,,,,,,,,,,,,,,,,,,,0,4,4,1,1,,,,,,,,,,,,,,,,,,,,,,,,,,,,,,,,,,,,,,,,,
123524,001,2022-11-21_24h52.21.572,Info_measure_main_exp,2022.2.2,Win32,60.00960154,,,,,,,,,,,,,,,,,,,,,,,,,,,,,,0,0.9167,1,,,,,,,,,,,,0,131,5,5,2298,1986,absent_patch/patch0002298.jpg,absent_patch/patch0001986.jpg,,,,,,,,,,,,,,,,,,,,-0.074074074,0.168518519,1,0,0,response7disk,2,0.003703704,0.002777778,1,0,0,center_square,0,1,1,32,1,,,,,,,,,,,,,,,,,,,,,,,
123524,001,2022-11-21_24h52.21.572,Info_measure_main_exp,2022.2.2,Win32,60.00960154,,,,,,,,,,,,,,,,,,masks/mask_004.jpg,,,,,,,,,,,,,,,,,,,,,,,,,,,,,,,,,,,,,,,,,,,0,0,0,3,1,,,,,,,,,,,,,,,,,,,,,,,,,,,,,,,,,,,,,,,,,,,,,,
123524,001,2022-11-21_24h52.21.572,Info_measure_main_exp,2022.2.2,Win32,60.00960154,,,,,,,,,,,,,,,,,,masks/mask_002.jpg,,,,,,,,,,,,,,,,,,,,,,,,,,,,,,,,,,,,,,,,,,,0,1,1,1,1,,,,,,,,,,,,,,,,,,,,,,,,,,,,,,,,,,,,,,,,,,,,,,
123524,001,2022-11-21_24h52.21.572,Info_measure_main_exp,2022.2.2,Win32,60.00960154,,,,,,,,,,,,,,,,,,masks/mask_005.jpg,,,,,,,,,,,,,,,,,,,,,,,,,,,,,,,,,,,,,,,,,,,0,2,2,4,1,,,,,,,,,,,,,,,,,,,,,,,,,,,,,,,,,,,,,,,,,,,,,,
123524,001,2022-11-21_24h52.21.572,Info_measure_main_exp,2022.2.2,Win32,60.00960154,,,,,,,,,,,,,,,,,,masks/mask_003.jpg,,,,,,,,,,,,,,,,,,,,,,,,,,,,,,,,,,,,,,,,,,,0,3,3,2,1,,,,,,,,,,,,,,,,,,,,,,,,,,,,,,,,,,,,,,,,,,,,,,
123524,001,2022-11-21_24h52.21.572,Info_measure_main_exp,2022.2.2,Win32,60.00960154,,,,,,,,,,,,,,,,,,masks/mask_001.jpg,,,,,,,,,,,,,,,,,,,,,,,,,,,,,,,,,,,,,,,,,,,0,4,4,0,1,,,,,,,,,,,,,,,,,,,,,,,,,,,,,,,,,,,,,,,,,,,,,,
123524,001,2022-11-21_24h52.21.572,Info_measure_main_exp,2022.2.2,Win32,60.00960154,,,,,,,,,,,,,,,,,,masks/mask_001.jpg,,,,,,,,,,,,,,,,,,,,,,,,,,,,,,,,,,,,,,,,,,,,,,,,0,0,0,0,1,,,,,,,,,,,,,,,,,,,,,,,,,,,,,,,,,,,,,,,,,
123524,001,2022-11-21_24h52.21.572,Info_measure_main_exp,2022.2.2,Win32,60.00960154,,,,,,,,,,,,,,,,,,masks/mask_004.jpg,,,,,,,,,,,,,,,,,,,,,,,,,,,,,,,,,,,,,,,,,,,,,,,,0,1,1,3,1,,,,,,,,,,,,,,,,,,,,,,,,,,,,,,,,,,,,,,,,,
123524,001,2022-11-21_24h52.21.572,Info_measure_main_exp,2022.2.2,Win32,60.00960154,,,,,,,,,,,,,,,,,,masks/mask_005.jpg,,,,,,,,,,,,,,,,,,,,,,,,,,,,,,,,,,,,,,,,,,,,,,,,0,2,2,4,1,,,,,,,,,,,,,,,,,,,,,,,,,,,,,,,,,,,,,,,,,
123524,001,2022-11-21_24h52.21.572,Info_measure_main_exp,2022.2.2,Win32,60.00960154,,,,,,,,,,,,,,,,,,masks/mask_002.jpg,,,,,,,,,,,,,,,,,,,,,,,,,,,,,,,,,,,,,,,,,,,,,,,,0,3,3,1,1,,,,,,,,,,,,,,,,,,,,,,,,,,,,,,,,,,,,,,,,,
123524,001,2022-11-21_24h52.21.572,Info_measure_main_exp,2022.2.2,Win32,60.00960154,,,,,,,,,,,,,,,,,,masks/mask_003.jpg,,,,,,,,,,,,,,,,,,,,,,,,,,,,,,,,,,,,,,,,,,,,,,,,0,4,4,2,1,,,,,,,,,,,,,,,,,,,,,,,,,,,,,,,,,,,,,,,,,
123524,001,2022-11-21_24h52.21.572,Info_measure_main_exp,2022.2.2,Win32,60.00960154,,,,,,,,,,,,,,,,,,,,,,,,,,,,,,0,1.3374,1,,,,,,,,,,,,0,131,5,5,1950,2178,absent_patch/patch0001950.jpg,absent_patch/patch0002178.jpg,,,,,,,,,,,,,,,,,,,,-0.055555556,0.152777778,1,0,0,response7disk,3,-0.001851852,0.001851852,1,0,0,center_square,0,2,2,61,1,,,,,,,,,,,,,,,,,,,,,,,
123524,001,2022-11-21_24h52.21.572,Info_measure_main_exp,2022.2.2,Win32,60.00960154,,,,,,,,,,,,,,,,,,masks/mask_004.jpg,,,,,,,,,,,,,,,,,,,,,,,,,,,,,,,,,,,,,,,,,,,0,0,0,3,1,,,,,,,,,,,,,,,,,,,,,,,,,,,,,,,,,,,,,,,,,,,,,,
123524,001,2022-11-21_24h52.21.572,Info_measure_main_exp,2022.2.2,Win32,60.00960154,,,,,,,,,,,,,,,,,,masks/mask_005.jpg,,,,,,,,,,,,,,,,,,,,,,,,,,,,,,,,,,,,,,,,,,,0,1,1,4,1,,,,,,,,,,,,,,,,,,,,,,,,,,,,,,,,,,,,,,,,,,,,,,
123524,001,2022-11-21_24h52.21.572,Info_measure_main_exp,2022.2.2,Win32,60.00960154,,,,,,,,,,,,,,,,,,masks/mask_003.jpg,,,,,,,,,,,,,,,,,,,,,,,,,,,,,,,,,,,,,,,,,,,0,2,2,2,1,,,,,,,,,,,,,,,,,,,,,,,,,,,,,,,,,,,,,,,,,,,,,,
123524,001,2022-11-21_24h52.21.572,Info_measure_main_exp,2022.2.2,Win32,60.00960154,,,,,,,,,,,,,,,,,,masks/mask_001.jpg,,,,,,,,,,,,,,,,,,,,,,,,,,,,,,,,,,,,,,,,,,,0,3,3,0,1,,,,,,,,,,,,,,,,,,,,,,,,,,,,,,,,,,,,,,,,,,,,,,
123524,001,2022-11-21_24h52.21.572,Info_measure_main_exp,2022.2.2,Win32,60.00960154,,,,,,,,,,,,,,,,,,masks/mask_002.jpg,,,,,,,,,,,,,,,,,,,,,,,,,,,,,,,,,,,,,,,,,,,0,4,4,1,1,,,,,,,,,,,,,,,,,,,,,,,,,,,,,,,,,,,,,,,,,,,,,,
123524,001,2022-11-21_24h52.21.572,Info_measure_main_exp,2022.2.2,Win32,60.00960154,,,,,,,,,,,,,,,,,,masks/mask_003.jpg,,,,,,,,,,,,,,,,,,,,,,,,,,,,,,,,,,,,,,,,,,,,,,,,0,0,0,2,1,,,,,,,,,,,,,,,,,,,,,,,,,,,,,,,,,,,,,,,,,
123524,001,2022-11-21_24h52.21.572,Info_measure_main_exp,2022.2.2,Win32,60.00960154,,,,,,,,,,,,,,,,,,masks/mask_004.jpg,,,,,,,,,,,,,,,,,,,,,,,,,,,,,,,,,,,,,,,,,,,,,,,,0,1,1,3,1,,,,,,,,,,,,,,,,,,,,,,,,,,,,,,,,,,,,,,,,,
123524,001,2022-11-21_24h52.21.572,Info_measure_main_exp,2022.2.2,Win32,60.00960154,,,,,,,,,,,,,,,,,,masks/mask_005.jpg,,,,,,,,,,,,,,,,,,,,,,,,,,,,,,,,,,,,,,,,,,,,,,,,0,2,2,4,1,,,,,,,,,,,,,,,,,,,,,,,,,,,,,,,,,,,,,,,,,
123524,001,2022-11-21_24h52.21.572,Info_measure_main_exp,2022.2.2,Win32,60.00960154,,,,,,,,,,,,,,,,,,masks/mask_001.jpg,,,,,,,,,,,,,,,,,,,,,,,,,,,,,,,,,,,,,,,,,,,,,,,,0,3,3,0,1,,,,,,,,,,,,,,,,,,,,,,,,,,,,,,,,,,,,,,,,,
123524,001,2022-11-21_24h52.21.572,Info_measure_main_exp,2022.2.2,Win32,60.00960154,,,,,,,,,,,,,,,,,,masks/mask_002.jpg,,,,,,,,,,,,,,,,,,,,,,,,,,,,,,,,,,,,,,,,,,,,,,,,0,4,4,1,1,,,,,,,,,,,,,,,,,,,,,,,,,,,,,,,,,,,,,,,,,
123524,001,2022-11-21_24h52.21.572,Info_measure_main_exp,2022.2.2,Win32,60.00960154,,,,,,,,,,,,,,,,,,,,,,,,,,,,,,0,0.7666,1,,,,,,,,,,,,1,131,5,5,1,2142,present_patch/cong_131_5_a.jpg,absent_patch/patch0002142.jpg,,,,,,,,,,,,,,,,,,,,-0.067592593,0.175925926,1,0,0,response7disk,4,-0.001851852,0.00462963,1,0,0,center_square,0,3,3,80,1,,,,,,,,,,,,,,,,,,,,,,,
123524,001,2022-11-21_24h52.21.572,Info_measure_main_exp,2022.2.2,Win32,60.00960154,,,,,,,,,,,,,,,,,,masks/mask_002.jpg,,,,,,,,,,,,,,,,,,,,,,,,,,,,,,,,,,,,,,,,,,,0,0,0,1,1,,,,,,,,,,,,,,,,,,,,,,,,,,,,,,,,,,,,,,,,,,,,,,
123524,001,2022-11-21_24h52.21.572,Info_measure_main_exp,2022.2.2,Win32,60.00960154,,,,,,,,,,,,,,,,,,masks/mask_005.jpg,,,,,,,,,,,,,,,,,,,,,,,,,,,,,,,,,,,,,,,,,,,0,1,1,4,1,,,,,,,,,,,,,,,,,,,,,,,,,,,,,,,,,,,,,,,,,,,,,,
123524,001,2022-11-21_24h52.21.572,Info_measure_main_exp,2022.2.2,Win32,60.00960154,,,,,,,,,,,,,,,,,,masks/mask_004.jpg,,,,,,,,,,,,,,,,,,,,,,,,,,,,,,,,,,,,,,,,,,,0,2,2,3,1,,,,,,,,,,,,,,,,,,,,,,,,,,,,,,,,,,,,,,,,,,,,,,
123524,001,2022-11-21_24h52.21.572,Info_measure_main_exp,2022.2.2,Win32,60.00960154,,,,,,,,,,,,,,,,,,masks/mask_001.jpg,,,,,,,,,,,,,,,,,,,,,,,,,,,,,,,,,,,,,,,,,,,0,3,3,0,1,,,,,,,,,,,,,,,,,,,,,,,,,,,,,,,,,,,,,,,,,,,,,,
123524,001,2022-11-21_24h52.21.572,Info_measure_main_exp,2022.2.2,Win32,60.00960154,,,,,,,,,,,,,,,,,,masks/mask_003.jpg,,,,,,,,,,,,,,,,,,,,,,,,,,,,,,,,,,,,,,,,,,,0,4,4,2,1,,,,,,,,,,,,,,,,,,,,,,,,,,,,,,,,,,,,,,,,,,,,,,
123524,001,2022-11-21_24h52.21.572,Info_measure_main_exp,2022.2.2,Win32,60.00960154,,,,,,,,,,,,,,,,,,masks/mask_001.jpg,,,,,,,,,,,,,,,,,,,,,,,,,,,,,,,,,,,,,,,,,,,,,,,,0,0,0,0,1,,,,,,,,,,,,,,,,,,,,,,,,,,,,,,,,,,,,,,,,,
123524,001,2022-11-21_24h52.21.572,Info_measure_main_exp,2022.2.2,Win32,60.00960154,,,,,,,,,,,,,,,,,,masks/mask_005.jpg,,,,,,,,,,,,,,,,,,,,,,,,,,,,,,,,,,,,,,,,,,,,,,,,0,1,1,4,1,,,,,,,,,,,,,,,,,,,,,,,,,,,,,,,,,,,,,,,,,
123524,001,2022-11-21_24h52.21.572,Info_measure_main_exp,2022.2.2,Win32,60.00960154,,,,,,,,,,,,,,,,,,masks/mask_002.jpg,,,,,,,,,,,,,,,,,,,,,,,,,,,,,,,,,,,,,,,,,,,,,,,,0,2,2,1,1,,,,,,,,,,,,,,,,,,,,,,,,,,,,,,,,,,,,,,,,,
123524,001,2022-11-21_24h52.21.572,Info_measure_main_exp,2022.2.2,Win32,60.00960154,,,,,,,,,,,,,,,,,,masks/mask_004.jpg,,,,,,,,,,,,,,,,,,,,,,,,,,,,,,,,,,,,,,,,,,,,,,,,0,3,3,3,1,,,,,,,,,,,,,,,,,,,,,,,,,,,,,,,,,,,,,,,,,
123524,001,2022-11-21_24h52.21.572,Info_measure_main_exp,2022.2.2,Win32,60.00960154,,,,,,,,,,,,,,,,,,masks/mask_003.jpg,,,,,,,,,,,,,,,,,,,,,,,,,,,,,,,,,,,,,,,,,,,,,,,,0,4,4,2,1,,,,,,,,,,,,,,,,,,,,,,,,,,,,,,,,,,,,,,,,,
123524,001,2022-11-21_24h52.21.572,Info_measure_main_exp,2022.2.2,Win32,60.00960154,,,,,,,,,,,,,,,,,,,,,,,,,,,,,,0,0.9833,1,,,,,,,,,,,,0,131,5,5,2142,2154,absent_patch/patch0002142.jpg,absent_patch/patch0002154.jpg,,,,,,,,,,,,,,,,,,,,-0.077777778,0.167592593,1,0,0,response7disk,5,-0.001851852,0.007407407,1,0,0,center_square,0,4,4,9,1,,,,,,,,,,,,,,,,,,,,,,,
123524,001,2022-11-21_24h52.21.572,Info_measure_main_exp,2022.2.2,Win32,60.00960154,,,,,,,,,,,,,,,,,,masks/mask_005.jpg,,,,,,,,,,,,,,,,,,,,,,,,,,,,,,,,,,,,,,,,,,,0,0,0,4,1,,,,,,,,,,,,,,,,,,,,,,,,,,,,,,,,,,,,,,,,,,,,,,
123524,001,2022-11-21_24h52.21.572,Info_measure_main_exp,2022.2.2,Win32,60.00960154,,,,,,,,,,,,,,,,,,masks/mask_004.jpg,,,,,,,,,,,,,,,,,,,,,,,,,,,,,,,,,,,,,,,,,,,0,1,1,3,1,,,,,,,,,,,,,,,,,,,,,,,,,,,,,,,,,,,,,,,,,,,,,,
123524,001,2022-11-21_24h52.21.572,Info_measure_main_exp,2022.2.2,Win32,60.00960154,,,,,,,,,,,,,,,,,,masks/mask_003.jpg,,,,,,,,,,,,,,,,,,,,,,,,,,,,,,,,,,,,,,,,,,,0,2,2,2,1,,,,,,,,,,,,,,,,,,,,,,,,,,,,,,,,,,,,,,,,,,,,,,
123524,001,2022-11-21_24h52.21.572,Info_measure_main_exp,2022.2.2,Win32,60.00960154,,,,,,,,,,,,,,,,,,masks/mask_002.jpg,,,,,,,,,,,,,,,,,,,,,,,,,,,,,,,,,,,,,,,,,,,0,3,3,1,1,,,,,,,,,,,,,,,,,,,,,,,,,,,,,,,,,,,,,,,,,,,,,,
123524,001,2022-11-21_24h52.21.572,Info_measure_main_exp,2022.2.2,Win32,60.00960154,,,,,,,,,,,,,,,,,,masks/mask_001.jpg,,,,,,,,,,,,,,,,,,,,,,,,,,,,,,,,,,,,,,,,,,,0,4,4,0,1,,,,,,,,,,,,,,,,,,,,,,,,,,,,,,,,,,,,,,,,,,,,,,
123524,001,2022-11-21_24h52.21.572,Info_measure_main_exp,2022.2.2,Win32,60.00960154,,,,,,,,,,,,,,,,,,masks/mask_005.jpg,,,,,,,,,,,,,,,,,,,,,,,,,,,,,,,,,,,,,,,,,,,,,,,,0,0,0,4,1,,,,,,,,,,,,,,,,,,,,,,,,,,,,,,,,,,,,,,,,,
123524,001,2022-11-21_24h52.21.572,Info_measure_main_exp,2022.2.2,Win32,60.00960154,,,,,,,,,,,,,,,,,,masks/mask_004.jpg,,,,,,,,,,,,,,,,,,,,,,,,,,,,,,,,,,,,,,,,,,,,,,,,0,1,1,3,1,,,,,,,,,,,,,,,,,,,,,,,,,,,,,,,,,,,,,,,,,
123524,001,2022-11-21_24h52.21.572,Info_measure_main_exp,2022.2.2,Win32,60.00960154,,,,,,,,,,,,,,,,,,masks/mask_003.jpg,,,,,,,,,,,,,,,,,,,,,,,,,,,,,,,,,,,,,,,,,,,,,,,,0,2,2,2,1,,,,,,,,,,,,,,,,,,,,,,,,,,,,,,,,,,,,,,,,,
123524,001,2022-11-21_24h52.21.572,Info_measure_main_exp,2022.2.2,Win32,60.00960154,,,,,,,,,,,,,,,,,,masks/mask_002.jpg,,,,,,,,,,,,,,,,,,,,,,,,,,,,,,,,,,,,,,,,,,,,,,,,0,3,3,1,1,,,,,,,,,,,,,,,,,,,,,,,,,,,,,,,,,,,,,,,,,
123524,001,2022-11-21_24h52.21.572,Info_measure_main_exp,2022.2.2,Win32,60.00960154,,,,,,,,,,,,,,,,,,masks/mask_001.jpg,,,,,,,,,,,,,,,,,,,,,,,,,,,,,,,,,,,,,,,,,,,,,,,,0,4,4,0,1,,,,,,,,,,,,,,,,,,,,,,,,,,,,,,,,,,,,,,,,,
123524,001,2022-11-21_24h52.21.572,Info_measure_main_exp,2022.2.2,Win32,60.00960154,,,,,,,,,,,,,,,,,,,,,,,,,,,,,,2,5.0665,1,,,,,,,,,,,,0,131,5,5,2214,2082,absent_patch/patch0002214.jpg,absent_patch/patch0002082.jpg,,,,,,,,,,,,,,,,,,,,-0.112962963,-0.07037037,1,0,0,response5disk,6,0,-0.003703704,1,0,0,center_square,0,5,5,103,1,,,,,,,,,,,,,,,,,,,,,,,
123524,001,2022-11-21_24h52.21.572,Info_measure_main_exp,2022.2.2,Win32,60.00960154,,,,,,,,,,,,,,,,,,masks/mask_005.jpg,,,,,,,,,,,,,,,,,,,,,,,,,,,,,,,,,,,,,,,,,,,0,0,0,4,1,,,,,,,,,,,,,,,,,,,,,,,,,,,,,,,,,,,,,,,,,,,,,,
123524,001,2022-11-21_24h52.21.572,Info_measure_main_exp,2022.2.2,Win32,60.00960154,,,,,,,,,,,,,,,,,,masks/mask_003.jpg,,,,,,,,,,,,,,,,,,,,,,,,,,,,,,,,,,,,,,,,,,,0,1,1,2,1,,,,,,,,,,,,,,,,,,,,,,,,,,,,,,,,,,,,,,,,,,,,,,
123524,001,2022-11-21_24h52.21.572,Info_measure_main_exp,2022.2.2,Win32,60.00960154,,,,,,,,,,,,,,,,,,masks/mask_002.jpg,,,,,,,,,,,,,,,,,,,,,,,,,,,,,,,,,,,,,,,,,,,0,2,2,1,1,,,,,,,,,,,,,,,,,,,,,,,,,,,,,,,,,,,,,,,,,,,,,,
123524,001,2022-11-21_24h52.21.572,Info_measure_main_exp,2022.2.2,Win32,60.00960154,,,,,,,,,,,,,,,,,,masks/mask_004.jpg,,,,,,,,,,,,,,,,,,,,,,,,,,,,,,,,,,,,,,,,,,,0,3,3,3,1,,,,,,,,,,,,,,,,,,,,,,,,,,,,,,,,,,,,,,,,,,,,,,
123524,001,2022-11-21_24h52.21.572,Info_measure_main_exp,2022.2.2,Win32,60.00960154,,,,,,,,,,,,,,,,,,masks/mask_001.jpg,,,,,,,,,,,,,,,,,,,,,,,,,,,,,,,,,,,,,,,,,,,0,4,4,0,1,,,,,,,,,,,,,,,,,,,,,,,,,,,,,,,,,,,,,,,,,,,,,,
123524,001,2022-11-21_24h52.21.572,Info_measure_main_exp,2022.2.2,Win32,60.00960154,,,,,,,,,,,,,,,,,,masks/mask_005.jpg,,,,,,,,,,,,,,,,,,,,,,,,,,,,,,,,,,,,,,,,,,,,,,,,0,0,0,4,1,,,,,,,,,,,,,,,,,,,,,,,,,,,,,,,,,,,,,,,,,
123524,001,2022-11-21_24h52.21.572,Info_measure_main_exp,2022.2.2,Win32,60.00960154,,,,,,,,,,,,,,,,,,masks/mask_003.jpg,,,,,,,,,,,,,,,,,,,,,,,,,,,,,,,,,,,,,,,,,,,,,,,,0,1,1,2,1,,,,,,,,,,,,,,,,,,,,,,,,,,,,,,,,,,,,,,,,,
123524,001,2022-11-21_24h52.21.572,Info_measure_main_exp,2022.2.2,Win32,60.00960154,,,,,,,,,,,,,,,,,,masks/mask_001.jpg,,,,,,,,,,,,,,,,,,,,,,,,,,,,,,,,,,,,,,,,,,,,,,,,0,2,2,0,1,,,,,,,,,,,,,,,,,,,,,,,,,,,,,,,,,,,,,,,,,
123524,001,2022-11-21_24h52.21.572,Info_measure_main_exp,2022.2.2,Win32,60.00960154,,,,,,,,,,,,,,,,,,masks/mask_004.jpg,,,,,,,,,,,,,,,,,,,,,,,,,,,,,,,,,,,,,,,,,,,,,,,,0,3,3,3,1,,,,,,,,,,,,,,,,,,,,,,,,,,,,,,,,,,,,,,,,,
123524,001,2022-11-21_24h52.21.572,Info_measure_main_exp,2022.2.2,Win32,60.00960154,,,,,,,,,,,,,,,,,,masks/mask_002.jpg,,,,,,,,,,,,,,,,,,,,,,,,,,,,,,,,,,,,,,,,,,,,,,,,0,4,4,1,1,,,,,,,,,,,,,,,,,,,,,,,,,,,,,,,,,,,,,,,,,
123524,001,2022-11-21_24h52.21.572,Info_measure_main_exp,2022.2.2,Win32,60.00960154,,,,,,,,,,,,,,,,,,,,,,,,,,,,,,1,1.2707,1,,,,,,,,,,,,0,131,5,5,2274,2082,absent_patch/patch0002274.jpg,absent_patch/patch0002082.jpg,,,,,,,,,,,,,,,,,,,,-0.150925926,0.050925926,1,0,0,response7disk,7,0.015740741,0.001851852,1,0,0,center_square,0,6,6,100,1,,,,,,,,,,,,,,,,,,,,,,,
123524,001,2022-11-21_24h52.21.572,Info_measure_main_exp,2022.2.2,Win32,60.00960154,,,,,,,,,,,,,,,,,,masks/mask_001.jpg,,,,,,,,,,,,,,,,,,,,,,,,,,,,,,,,,,,,,,,,,,,0,0,0,0,1,,,,,,,,,,,,,,,,,,,,,,,,,,,,,,,,,,,,,,,,,,,,,,
123524,001,2022-11-21_24h52.21.572,Info_measure_main_exp,2022.2.2,Win32,60.00960154,,,,,,,,,,,,,,,,,,masks/mask_004.jpg,,,,,,,,,,,,,,,,,,,,,,,,,,,,,,,,,,,,,,,,,,,0,1,1,3,1,,,,,,,,,,,,,,,,,,,,,,,,,,,,,,,,,,,,,,,,,,,,,,
123524,001,2022-11-21_24h52.21.572,Info_measure_main_exp,2022.2.2,Win32,60.00960154,,,,,,,,,,,,,,,,,,masks/mask_005.jpg,,,,,,,,,,,,,,,,,,,,,,,,,,,,,,,,,,,,,,,,,,,0,2,2,4,1,,,,,,,,,,,,,,,,,,,,,,,,,,,,,,,,,,,,,,,,,,,,,,
123524,001,2022-11-21_24h52.21.572,Info_measure_main_exp,2022.2.2,Win32,60.00960154,,,,,,,,,,,,,,,,,,masks/mask_002.jpg,,,,,,,,,,,,,,,,,,,,,,,,,,,,,,,,,,,,,,,,,,,0,3,3,1,1,,,,,,,,,,,,,,,,,,,,,,,,,,,,,,,,,,,,,,,,,,,,,,
123524,001,2022-11-21_24h52.21.572,Info_measure_main_exp,2022.2.2,Win32,60.00960154,,,,,,,,,,,,,,,,,,masks/mask_003.jpg,,,,,,,,,,,,,,,,,,,,,,,,,,,,,,,,,,,,,,,,,,,0,4,4,2,1,,,,,,,,,,,,,,,,,,,,,,,,,,,,,,,,,,,,,,,,,,,,,,
123524,001,2022-11-21_24h52.21.572,Info_measure_main_exp,2022.2.2,Win32,60.00960154,,,,,,,,,,,,,,,,,,masks/mask_002.jpg,,,,,,,,,,,,,,,,,,,,,,,,,,,,,,,,,,,,,,,,,,,,,,,,0,0,0,1,1,,,,,,,,,,,,,,,,,,,,,,,,,,,,,,,,,,,,,,,,,
123524,001,2022-11-21_24h52.21.572,Info_measure_main_exp,2022.2.2,Win32,60.00960154,,,,,,,,,,,,,,,,,,masks/mask_001.jpg,,,,,,,,,,,,,,,,,,,,,,,,,,,,,,,,,,,,,,,,,,,,,,,,0,1,1,0,1,,,,,,,,,,,,,,,,,,,,,,,,,,,,,,,,,,,,,,,,,
123524,001,2022-11-21_24h52.21.572,Info_measure_main_exp,2022.2.2,Win32,60.00960154,,,,,,,,,,,,,,,,,,masks/mask_004.jpg,,,,,,,,,,,,,,,,,,,,,,,,,,,,,,,,,,,,,,,,,,,,,,,,0,2,2,3,1,,,,,,,,,,,,,,,,,,,,,,,,,,,,,,,,,,,,,,,,,
123524,001,2022-11-21_24h52.21.572,Info_measure_main_exp,2022.2.2,Win32,60.00960154,,,,,,,,,,,,,,,,,,masks/mask_005.jpg,,,,,,,,,,,,,,,,,,,,,,,,,,,,,,,,,,,,,,,,,,,,,,,,0,3,3,4,1,,,,,,,,,,,,,,,,,,,,,,,,,,,,,,,,,,,,,,,,,
123524,001,2022-11-21_24h52.21.572,Info_measure_main_exp,2022.2.2,Win32,60.00960154,,,,,,,,,,,,,,,,,,masks/mask_003.jpg,,,,,,,,,,,,,,,,,,,,,,,,,,,,,,,,,,,,,,,,,,,,,,,,0,4,4,2,1,,,,,,,,,,,,,,,,,,,,,,,,,,,,,,,,,,,,,,,,,
123524,001,2022-11-21_24h52.21.572,Info_measure_main_exp,2022.2.2,Win32,60.00960154,,,,,,,,,,,,,,,,,,,,,,,,,,,,,,0,0.8831,1,,,,,,,,,,,,0,131,5,5,2238,2298,absent_patch/patch0002238.jpg,absent_patch/patch0002298.jpg,,,,,,,,,,,,,,,,,,,,-0.064814815,0.142592593,1,0,0,response7disk,8,-0.00462963,0.005555556,1,0,0,center_square,0,7,7,51,1,,,,,,,,,,,,,,,,,,,,,,,
123524,001,2022-11-21_24h52.21.572,Info_measure_main_exp,2022.2.2,Win32,60.00960154,,,,,,,,,,,,,,,,,,masks/mask_003.jpg,,,,,,,,,,,,,,,,,,,,,,,,,,,,,,,,,,,,,,,,,,,0,0,0,2,1,,,,,,,,,,,,,,,,,,,,,,,,,,,,,,,,,,,,,,,,,,,,,,
123524,001,2022-11-21_24h52.21.572,Info_measure_main_exp,2022.2.2,Win32,60.00960154,,,,,,,,,,,,,,,,,,masks/mask_002.jpg,,,,,,,,,,,,,,,,,,,,,,,,,,,,,,,,,,,,,,,,,,,0,1,1,1,1,,,,,,,,,,,,,,,,,,,,,,,,,,,,,,,,,,,,,,,,,,,,,,
123524,001,2022-11-21_24h52.21.572,Info_measure_main_exp,2022.2.2,Win32,60.00960154,,,,,,,,,,,,,,,,,,masks/mask_004.jpg,,,,,,,,,,,,,,,,,,,,,,,,,,,,,,,,,,,,,,,,,,,0,2,2,3,1,,,,,,,,,,,,,,,,,,,,,,,,,,,,,,,,,,,,,,,,,,,,,,
123524,001,2022-11-21_24h52.21.572,Info_measure_main_exp,2022.2.2,Win32,60.00960154,,,,,,,,,,,,,,,,,,masks/mask_001.jpg,,,,,,,,,,,,,,,,,,,,,,,,,,,,,,,,,,,,,,,,,,,0,3,3,0,1,,,,,,,,,,,,,,,,,,,,,,,,,,,,,,,,,,,,,,,,,,,,,,
123524,001,2022-11-21_24h52.21.572,Info_measure_main_exp,2022.2.2,Win32,60.00960154,,,,,,,,,,,,,,,,,,masks/mask_005.jpg,,,,,,,,,,,,,,,,,,,,,,,,,,,,,,,,,,,,,,,,,,,0,4,4,4,1,,,,,,,,,,,,,,,,,,,,,,,,,,,,,,,,,,,,,,,,,,,,,,
123524,001,2022-11-21_24h52.21.572,Info_measure_main_exp,2022.2.2,Win32,60.00960154,,,,,,,,,,,,,,,,,,masks/mask_002.jpg,,,,,,,,,,,,,,,,,,,,,,,,,,,,,,,,,,,,,,,,,,,,,,,,0,0,0,1,1,,,,,,,,,,,,,,,,,,,,,,,,,,,,,,,,,,,,,,,,,
123524,001,2022-11-21_24h52.21.572,Info_measure_main_exp,2022.2.2,Win32,60.00960154,,,,,,,,,,,,,,,,,,masks/mask_003.jpg,,,,,,,,,,,,,,,,,,,,,,,,,,,,,,,,,,,,,,,,,,,,,,,,0,1,1,2,1,,,,,,,,,,,,,,,,,,,,,,,,,,,,,,,,,,,,,,,,,
123524,001,2022-11-21_24h52.21.572,Info_measure_main_exp,2022.2.2,Win32,60.00960154,,,,,,,,,,,,,,,,,,masks/mask_005.jpg,,,,,,,,,,,,,,,,,,,,,,,,,,,,,,,,,,,,,,,,,,,,,,,,0,2,2,4,1,,,,,,,,,,,,,,,,,,,,,,,,,,,,,,,,,,,,,,,,,
123524,001,2022-11-21_24h52.21.572,Info_measure_main_exp,2022.2.2,Win32,60.00960154,,,,,,,,,,,,,,,,,,masks/mask_001.jpg,,,,,,,,,,,,,,,,,,,,,,,,,,,,,,,,,,,,,,,,,,,,,,,,0,3,3,0,1,,,,,,,,,,,,,,,,,,,,,,,,,,,,,,,,,,,,,,,,,
123524,001,2022-11-21_24h52.21.572,Info_measure_main_exp,2022.2.2,Win32,60.00960154,,,,,,,,,,,,,,,,,,masks/mask_004.jpg,,,,,,,,,,,,,,,,,,,,,,,,,,,,,,,,,,,,,,,,,,,,,,,,0,4,4,3,1,,,,,,,,,,,,,,,,,,,,,,,,,,,,,,,,,,,,,,,,,
123524,001,2022-11-21_24h52.21.572,Info_measure_main_exp,2022.2.2,Win32,60.00960154,,,,,,,,,,,,,,,,,,,,,,,,,,,,,,6,1.259,1,,,,,,,,,,,,0,131,5,5,2298,2190,absent_patch/patch0002298.jpg,absent_patch/patch0002190.jpg,,,,,,,,,,,,,,,,,,,,0.175925926,0.038888889,1,0,0,response1disk,9,0,0.011111111,1,0,0,center_square,0,8,8,20,1,,,,,,,,,,,,,,,,,,,,,,,
123524,001,2022-11-21_24h52.21.572,Info_measure_main_exp,2022.2.2,Win32,60.00960154,,,,,,,,,,,,,,,,,,masks/mask_002.jpg,,,,,,,,,,,,,,,,,,,,,,,,,,,,,,,,,,,,,,,,,,,0,0,0,1,1,,,,,,,,,,,,,,,,,,,,,,,,,,,,,,,,,,,,,,,,,,,,,,
123524,001,2022-11-21_24h52.21.572,Info_measure_main_exp,2022.2.2,Win32,60.00960154,,,,,,,,,,,,,,,,,,masks/mask_004.jpg,,,,,,,,,,,,,,,,,,,,,,,,,,,,,,,,,,,,,,,,,,,0,1,1,3,1,,,,,,,,,,,,,,,,,,,,,,,,,,,,,,,,,,,,,,,,,,,,,,
123524,001,2022-11-21_24h52.21.572,Info_measure_main_exp,2022.2.2,Win32,60.00960154,,,,,,,,,,,,,,,,,,masks/mask_003.jpg,,,,,,,,,,,,,,,,,,,,,,,,,,,,,,,,,,,,,,,,,,,0,2,2,2,1,,,,,,,,,,,,,,,,,,,,,,,,,,,,,,,,,,,,,,,,,,,,,,
123524,001,2022-11-21_24h52.21.572,Info_measure_main_exp,2022.2.2,Win32,60.00960154,,,,,,,,,,,,,,,,,,masks/mask_001.jpg,,,,,,,,,,,,,,,,,,,,,,,,,,,,,,,,,,,,,,,,,,,0,3,3,0,1,,,,,,,,,,,,,,,,,,,,,,,,,,,,,,,,,,,,,,,,,,,,,,
123524,001,2022-11-21_24h52.21.572,Info_measure_main_exp,2022.2.2,Win32,60.00960154,,,,,,,,,,,,,,,,,,masks/mask_005.jpg,,,,,,,,,,,,,,,,,,,,,,,,,,,,,,,,,,,,,,,,,,,0,4,4,4,1,,,,,,,,,,,,,,,,,,,,,,,,,,,,,,,,,,,,,,,,,,,,,,
123524,001,2022-11-21_24h52.21.572,Info_measure_main_exp,2022.2.2,Win32,60.00960154,,,,,,,,,,,,,,,,,,masks/mask_002.jpg,,,,,,,,,,,,,,,,,,,,,,,,,,,,,,,,,,,,,,,,,,,,,,,,0,0,0,1,1,,,,,,,,,,,,,,,,,,,,,,,,,,,,,,,,,,,,,,,,,
123524,001,2022-11-21_24h52.21.572,Info_measure_main_exp,2022.2.2,Win32,60.00960154,,,,,,,,,,,,,,,,,,masks/mask_001.jpg,,,,,,,,,,,,,,,,,,,,,,,,,,,,,,,,,,,,,,,,,,,,,,,,0,1,1,0,1,,,,,,,,,,,,,,,,,,,,,,,,,,,,,,,,,,,,,,,,,
123524,001,2022-11-21_24h52.21.572,Info_measure_main_exp,2022.2.2,Win32,60.00960154,,,,,,,,,,,,,,,,,,masks/mask_003.jpg,,,,,,,,,,,,,,,,,,,,,,,,,,,,,,,,,,,,,,,,,,,,,,,,0,2,2,2,1,,,,,,,,,,,,,,,,,,,,,,,,,,,,,,,,,,,,,,,,,
123524,001,2022-11-21_24h52.21.572,Info_measure_main_exp,2022.2.2,Win32,60.00960154,,,,,,,,,,,,,,,,,,masks/mask_005.jpg,,,,,,,,,,,,,,,,,,,,,,,,,,,,,,,,,,,,,,,,,,,,,,,,0,3,3,4,1,,,,,,,,,,,,,,,,,,,,,,,,,,,,,,,,,,,,,,,,,
123524,001,2022-11-21_24h52.21.572,Info_measure_main_exp,2022.2.2,Win32,60.00960154,,,,,,,,,,,,,,,,,,masks/mask_004.jpg,,,,,,,,,,,,,,,,,,,,,,,,,,,,,,,,,,,,,,,,,,,,,,,,0,4,4,3,1,,,,,,,,,,,,,,,,,,,,,,,,,,,,,,,,,,,,,,,,,
123524,001,2022-11-21_24h52.21.572,Info_measure_main_exp,2022.2.2,Win32,60.00960154,,,,,,,,,,,,,,,,,,,,,,,,,,,,,,3,1.0425,1,,,,,,,,,,,,0,131,5,5,1986,2142,absent_patch/patch0001986.jpg,absent_patch/patch0002142.jpg,,,,,,,,,,,,,,,,,,,,-0.050925926,-0.126851852,1,0,0,response5disk,10,0.006481481,0.000925926,1,0,0,center_square,0,9,9,76,1,,,,,,,,,,,,,,,,,,,,,,,
123524,001,2022-11-21_24h52.21.572,Info_measure_main_exp,2022.2.2,Win32,60.00960154,,,,,,,,,,,,,,,,,,masks/mask_005.jpg,,,,,,,,,,,,,,,,,,,,,,,,,,,,,,,,,,,,,,,,,,,0,0,0,4,1,,,,,,,,,,,,,,,,,,,,,,,,,,,,,,,,,,,,,,,,,,,,,,
123524,001,2022-11-21_24h52.21.572,Info_measure_main_exp,2022.2.2,Win32,60.00960154,,,,,,,,,,,,,,,,,,masks/mask_004.jpg,,,,,,,,,,,,,,,,,,,,,,,,,,,,,,,,,,,,,,,,,,,0,1,1,3,1,,,,,,,,,,,,,,,,,,,,,,,,,,,,,,,,,,,,,,,,,,,,,,
123524,001,2022-11-21_24h52.21.572,Info_measure_main_exp,2022.2.2,Win32,60.00960154,,,,,,,,,,,,,,,,,,masks/mask_001.jpg,,,,,,,,,,,,,,,,,,,,,,,,,,,,,,,,,,,,,,,,,,,0,2,2,0,1,,,,,,,,,,,,,,,,,,,,,,,,,,,,,,,,,,,,,,,,,,,,,,
123524,001,2022-11-21_24h52.21.572,Info_measure_main_exp,2022.2.2,Win32,60.00960154,,,,,,,,,,,,,,,,,,masks/mask_003.jpg,,,,,,,,,,,,,,,,,,,,,,,,,,,,,,,,,,,,,,,,,,,0,3,3,2,1,,,,,,,,,,,,,,,,,,,,,,,,,,,,,,,,,,,,,,,,,,,,,,
123524,001,2022-11-21_24h52.21.572,Info_measure_main_exp,2022.2.2,Win32,60.00960154,,,,,,,,,,,,,,,,,,masks/mask_002.jpg,,,,,,,,,,,,,,,,,,,,,,,,,,,,,,,,,,,,,,,,,,,0,4,4,1,1,,,,,,,,,,,,,,,,,,,,,,,,,,,,,,,,,,,,,,,,,,,,,,
123524,001,2022-11-21_24h52.21.572,Info_measure_main_exp,2022.2.2,Win32,60.00960154,,,,,,,,,,,,,,,,,,masks/mask_002.jpg,,,,,,,,,,,,,,,,,,,,,,,,,,,,,,,,,,,,,,,,,,,,,,,,0,0,0,1,1,,,,,,,,,,,,,,,,,,,,,,,,,,,,,,,,,,,,,,,,,
123524,001,2022-11-21_24h52.21.572,Info_measure_main_exp,2022.2.2,Win32,60.00960154,,,,,,,,,,,,,,,,,,masks/mask_001.jpg,,,,,,,,,,,,,,,,,,,,,,,,,,,,,,,,,,,,,,,,,,,,,,,,0,1,1,0,1,,,,,,,,,,,,,,,,,,,,,,,,,,,,,,,,,,,,,,,,,
123524,001,2022-11-21_24h52.21.572,Info_measure_main_exp,2022.2.2,Win32,60.00960154,,,,,,,,,,,,,,,,,,masks/mask_005.jpg,,,,,,,,,,,,,,,,,,,,,,,,,,,,,,,,,,,,,,,,,,,,,,,,0,2,2,4,1,,,,,,,,,,,,,,,,,,,,,,,,,,,,,,,,,,,,,,,,,
123524,001,2022-11-21_24h52.21.572,Info_measure_main_exp,2022.2.2,Win32,60.00960154,,,,,,,,,,,,,,,,,,masks/mask_003.jpg,,,,,,,,,,,,,,,,,,,,,,,,,,,,,,,,,,,,,,,,,,,,,,,,0,3,3,2,1,,,,,,,,,,,,,,,,,,,,,,,,,,,,,,,,,,,,,,,,,
123524,001,2022-11-21_24h52.21.572,Info_measure_main_exp,2022.2.2,Win32,60.00960154,,,,,,,,,,,,,,,,,,masks/mask_004.jpg,,,,,,,,,,,,,,,,,,,,,,,,,,,,,,,,,,,,,,,,,,,,,,,,0,4,4,3,1,,,,,,,,,,,,,,,,,,,,,,,,,,,,,,,,,,,,,,,,,
123524,001,2022-11-21_24h52.21.572,Info_measure_main_exp,2022.2.2,Win32,60.00960154,,,,,,,,,,,,,,,,,,,,,,,,,,,,,,2,1.0207,1,,,,,,,,,,,,0,131,5,5,2154,2190,absent_patch/patch0002154.jpg,absent_patch/patch0002190.jpg,,,,,,,,,,,,,,,,,,,,-0.109259259,-0.034259259,1,0,0,response5disk,11,-0.016666667,0.011111111,1,0,0,center_square,0,10,10,68,1,,,,,,,,,,,,,,,,,,,,,,,
123524,001,2022-11-21_24h52.21.572,Info_measure_main_exp,2022.2.2,Win32,60.00960154,,,,,,,,,,,,,,,,,,masks/mask_004.jpg,,,,,,,,,,,,,,,,,,,,,,,,,,,,,,,,,,,,,,,,,,,0,0,0,3,1,,,,,,,,,,,,,,,,,,,,,,,,,,,,,,,,,,,,,,,,,,,,,,
123524,001,2022-11-21_24h52.21.572,Info_measure_main_exp,2022.2.2,Win32,60.00960154,,,,,,,,,,,,,,,,,,masks/mask_001.jpg,,,,,,,,,,,,,,,,,,,,,,,,,,,,,,,,,,,,,,,,,,,0,1,1,0,1,,,,,,,,,,,,,,,,,,,,,,,,,,,,,,,,,,,,,,,,,,,,,,
123524,001,2022-11-21_24h52.21.572,Info_measure_main_exp,2022.2.2,Win32,60.00960154,,,,,,,,,,,,,,,,,,masks/mask_003.jpg,,,,,,,,,,,,,,,,,,,,,,,,,,,,,,,,,,,,,,,,,,,0,2,2,2,1,,,,,,,,,,,,,,,,,,,,,,,,,,,,,,,,,,,,,,,,,,,,,,
123524,001,2022-11-21_24h52.21.572,Info_measure_main_exp,2022.2.2,Win32,60.00960154,,,,,,,,,,,,,,,,,,masks/mask_005.jpg,,,,,,,,,,,,,,,,,,,,,,,,,,,,,,,,,,,,,,,,,,,0,3,3,4,1,,,,,,,,,,,,,,,,,,,,,,,,,,,,,,,,,,,,,,,,,,,,,,
123524,001,2022-11-21_24h52.21.572,Info_measure_main_exp,2022.2.2,Win32,60.00960154,,,,,,,,,,,,,,,,,,masks/mask_002.jpg,,,,,,,,,,,,,,,,,,,,,,,,,,,,,,,,,,,,,,,,,,,0,4,4,1,1,,,,,,,,,,,,,,,,,,,,,,,,,,,,,,,,,,,,,,,,,,,,,,
123524,001,2022-11-21_24h52.21.572,Info_measure_main_exp,2022.2.2,Win32,60.00960154,,,,,,,,,,,,,,,,,,masks/mask_005.jpg,,,,,,,,,,,,,,,,,,,,,,,,,,,,,,,,,,,,,,,,,,,,,,,,0,0,0,4,1,,,,,,,,,,,,,,,,,,,,,,,,,,,,,,,,,,,,,,,,,
123524,001,2022-11-21_24h52.21.572,Info_measure_main_exp,2022.2.2,Win32,60.00960154,,,,,,,,,,,,,,,,,,masks/mask_001.jpg,,,,,,,,,,,,,,,,,,,,,,,,,,,,,,,,,,,,,,,,,,,,,,,,0,1,1,0,1,,,,,,,,,,,,,,,,,,,,,,,,,,,,,,,,,,,,,,,,,
123524,001,2022-11-21_24h52.21.572,Info_measure_main_exp,2022.2.2,Win32,60.00960154,,,,,,,,,,,,,,,,,,masks/mask_002.jpg,,,,,,,,,,,,,,,,,,,,,,,,,,,,,,,,,,,,,,,,,,,,,,,,0,2,2,1,1,,,,,,,,,,,,,,,,,,,,,,,,,,,,,,,,,,,,,,,,,
123524,001,2022-11-21_24h52.21.572,Info_measure_main_exp,2022.2.2,Win32,60.00960154,,,,,,,,,,,,,,,,,,masks/mask_003.jpg,,,,,,,,,,,,,,,,,,,,,,,,,,,,,,,,,,,,,,,,,,,,,,,,0,3,3,2,1,,,,,,,,,,,,,,,,,,,,,,,,,,,,,,,,,,,,,,,,,
123524,001,2022-11-21_24h52.21.572,Info_measure_main_exp,2022.2.2,Win32,60.00960154,,,,,,,,,,,,,,,,,,masks/mask_004.jpg,,,,,,,,,,,,,,,,,,,,,,,,,,,,,,,,,,,,,,,,,,,,,,,,0,4,4,3,1,,,,,,,,,,,,,,,,,,,,,,,,,,,,,,,,,,,,,,,,,
123524,001,2022-11-21_24h52.21.572,Info_measure_main_exp,2022.2.2,Win32,60.00960154,,,,,,,,,,,,,,,,,,,,,,,,,,,,,,3,1.0372,1,,,,,,,,,,,,0,131,5,5,2190,1950,absent_patch/patch0002190.jpg,absent_patch/patch0001950.jpg,,,,,,,,,,,,,,,,,,,,-0.046296296,-0.162962963,1,0,0,response5disk,12,-0.002777778,-0.008333333,1,0,0,center_square,0,11,11,73,1,,,,,,,,,,,,,,,,,,,,,,,
123524,001,2022-11-21_24h52.21.572,Info_measure_main_exp,2022.2.2,Win32,60.00960154,,,,,,,,,,,,,,,,,,masks/mask_005.jpg,,,,,,,,,,,,,,,,,,,,,,,,,,,,,,,,,,,,,,,,,,,0,0,0,4,1,,,,,,,,,,,,,,,,,,,,,,,,,,,,,,,,,,,,,,,,,,,,,,
123524,001,2022-11-21_24h52.21.572,Info_measure_main_exp,2022.2.2,Win32,60.00960154,,,,,,,,,,,,,,,,,,masks/mask_002.jpg,,,,,,,,,,,,,,,,,,,,,,,,,,,,,,,,,,,,,,,,,,,0,1,1,1,1,,,,,,,,,,,,,,,,,,,,,,,,,,,,,,,,,,,,,,,,,,,,,,
123524,001,2022-11-21_24h52.21.572,Info_measure_main_exp,2022.2.2,Win32,60.00960154,,,,,,,,,,,,,,,,,,masks/mask_003.jpg,,,,,,,,,,,,,,,,,,,,,,,,,,,,,,,,,,,,,,,,,,,0,2,2,2,1,,,,,,,,,,,,,,,,,,,,,,,,,,,,,,,,,,,,,,,,,,,,,,
123524,001,2022-11-21_24h52.21.572,Info_measure_main_exp,2022.2.2,Win32,60.00960154,,,,,,,,,,,,,,,,,,masks/mask_004.jpg,,,,,,,,,,,,,,,,,,,,,,,,,,,,,,,,,,,,,,,,,,,0,3,3,3,1,,,,,,,,,,,,,,,,,,,,,,,,,,,,,,,,,,,,,,,,,,,,,,
123524,001,2022-11-21_24h52.21.572,Info_measure_main_exp,2022.2.2,Win32,60.00960154,,,,,,,,,,,,,,,,,,masks/mask_001.jpg,,,,,,,,,,,,,,,,,,,,,,,,,,,,,,,,,,,,,,,,,,,0,4,4,0,1,,,,,,,,,,,,,,,,,,,,,,,,,,,,,,,,,,,,,,,,,,,,,,
123524,001,2022-11-21_24h52.21.572,Info_measure_main_exp,2022.2.2,Win32,60.00960154,,,,,,,,,,,,,,,,,,masks/mask_001.jpg,,,,,,,,,,,,,,,,,,,,,,,,,,,,,,,,,,,,,,,,,,,,,,,,0,0,0,0,1,,,,,,,,,,,,,,,,,,,,,,,,,,,,,,,,,,,,,,,,,
123524,001,2022-11-21_24h52.21.572,Info_measure_main_exp,2022.2.2,Win32,60.00960154,,,,,,,,,,,,,,,,,,masks/mask_003.jpg,,,,,,,,,,,,,,,,,,,,,,,,,,,,,,,,,,,,,,,,,,,,,,,,0,1,1,2,1,,,,,,,,,,,,,,,,,,,,,,,,,,,,,,,,,,,,,,,,,
123524,001,2022-11-21_24h52.21.572,Info_measure_main_exp,2022.2.2,Win32,60.00960154,,,,,,,,,,,,,,,,,,masks/mask_002.jpg,,,,,,,,,,,,,,,,,,,,,,,,,,,,,,,,,,,,,,,,,,,,,,,,0,2,2,1,1,,,,,,,,,,,,,,,,,,,,,,,,,,,,,,,,,,,,,,,,,
123524,001,2022-11-21_24h52.21.572,Info_measure_main_exp,2022.2.2,Win32,60.00960154,,,,,,,,,,,,,,,,,,masks/mask_005.jpg,,,,,,,,,,,,,,,,,,,,,,,,,,,,,,,,,,,,,,,,,,,,,,,,0,3,3,4,1,,,,,,,,,,,,,,,,,,,,,,,,,,,,,,,,,,,,,,,,,
123524,001,2022-11-21_24h52.21.572,Info_measure_main_exp,2022.2.2,Win32,60.00960154,,,,,,,,,,,,,,,,,,masks/mask_004.jpg,,,,,,,,,,,,,,,,,,,,,,,,,,,,,,,,,,,,,,,,,,,,,,,,0,4,4,3,1,,,,,,,,,,,,,,,,,,,,,,,,,,,,,,,,,,,,,,,,,
123524,001,2022-11-21_24h52.21.572,Info_measure_main_exp,2022.2.2,Win32,60.00960154,,,,,,,,,,,,,,,,,,,,,,,,,,,,,,2,1.5999,1,,,,,,,,,,,,0,131,5,5,2190,2166,absent_patch/patch0002190.jpg,absent_patch/patch0002166.jpg,,,,,,,,,,,,,,,,,,,,-0.127777778,-0.057407407,1,0,0,response5disk,13,0.010185185,-0.002777778,1,0,0,center_square,0,12,12,50,1,,,,,,,,,,,,,,,,,,,,,,,
123524,001,2022-11-21_24h52.21.572,Info_measure_main_exp,2022.2.2,Win32,60.00960154,,,,,,,,,,,,,,,,,,masks/mask_002.jpg,,,,,,,,,,,,,,,,,,,,,,,,,,,,,,,,,,,,,,,,,,,0,0,0,1,1,,,,,,,,,,,,,,,,,,,,,,,,,,,,,,,,,,,,,,,,,,,,,,
123524,001,2022-11-21_24h52.21.572,Info_measure_main_exp,2022.2.2,Win32,60.00960154,,,,,,,,,,,,,,,,,,masks/mask_005.jpg,,,,,,,,,,,,,,,,,,,,,,,,,,,,,,,,,,,,,,,,,,,0,1,1,4,1,,,,,,,,,,,,,,,,,,,,,,,,,,,,,,,,,,,,,,,,,,,,,,
123524,001,2022-11-21_24h52.21.572,Info_measure_main_exp,2022.2.2,Win32,60.00960154,,,,,,,,,,,,,,,,,,masks/mask_004.jpg,,,,,,,,,,,,,,,,,,,,,,,,,,,,,,,,,,,,,,,,,,,0,2,2,3,1,,,,,,,,,,,,,,,,,,,,,,,,,,,,,,,,,,,,,,,,,,,,,,
123524,001,2022-11-21_24h52.21.572,Info_measure_main_exp,2022.2.2,Win32,60.00960154,,,,,,,,,,,,,,,,,,masks/mask_003.jpg,,,,,,,,,,,,,,,,,,,,,,,,,,,,,,,,,,,,,,,,,,,0,3,3,2,1,,,,,,,,,,,,,,,,,,,,,,,,,,,,,,,,,,,,,,,,,,,,,,
123524,001,2022-11-21_24h52.21.572,Info_measure_main_exp,2022.2.2,Win32,60.00960154,,,,,,,,,,,,,,,,,,masks/mask_001.jpg,,,,,,,,,,,,,,,,,,,,,,,,,,,,,,,,,,,,,,,,,,,0,4,4,0,1,,,,,,,,,,,,,,,,,,,,,,,,,,,,,,,,,,,,,,,,,,,,,,
123524,001,2022-11-21_24h52.21.572,Info_measure_main_exp,2022.2.2,Win32,60.00960154,,,,,,,,,,,,,,,,,,masks/mask_005.jpg,,,,,,,,,,,,,,,,,,,,,,,,,,,,,,,,,,,,,,,,,,,,,,,,0,0,0,4,1,,,,,,,,,,,,,,,,,,,,,,,,,,,,,,,,,,,,,,,,,
123524,001,2022-11-21_24h52.21.572,Info_measure_main_exp,2022.2.2,Win32,60.00960154,,,,,,,,,,,,,,,,,,masks/mask_004.jpg,,,,,,,,,,,,,,,,,,,,,,,,,,,,,,,,,,,,,,,,,,,,,,,,0,1,1,3,1,,,,,,,,,,,,,,,,,,,,,,,,,,,,,,,,,,,,,,,,,
123524,001,2022-11-21_24h52.21.572,Info_measure_main_exp,2022.2.2,Win32,60.00960154,,,,,,,,,,,,,,,,,,masks/mask_001.jpg,,,,,,,,,,,,,,,,,,,,,,,,,,,,,,,,,,,,,,,,,,,,,,,,0,2,2,0,1,,,,,,,,,,,,,,,,,,,,,,,,,,,,,,,,,,,,,,,,,
123524,001,2022-11-21_24h52.21.572,Info_measure_main_exp,2022.2.2,Win32,60.00960154,,,,,,,,,,,,,,,,,,masks/mask_002.jpg,,,,,,,,,,,,,,,,,,,,,,,,,,,,,,,,,,,,,,,,,,,,,,,,0,3,3,1,1,,,,,,,,,,,,,,,,,,,,,,,,,,,,,,,,,,,,,,,,,
123524,001,2022-11-21_24h52.21.572,Info_measure_main_exp,2022.2.2,Win32,60.00960154,,,,,,,,,,,,,,,,,,masks/mask_003.jpg,,,,,,,,,,,,,,,,,,,,,,,,,,,,,,,,,,,,,,,,,,,,,,,,0,4,4,2,1,,,,,,,,,,,,,,,,,,,,,,,,,,,,,,,,,,,,,,,,,
123524,001,2022-11-21_24h52.21.572,Info_measure_main_exp,2022.2.2,Win32,60.00960154,,,,,,,,,,,,,,,,,,,,,,,,,,,,,,2,1.5,1,,,,,,,,,,,,0,131,5,5,2190,2190,absent_patch/patch0002190.jpg,absent_patch/patch0002190.jpg,,,,,,,,,,,,,,,,,,,,-0.165740741,-0.059259259,1,0,0,response5disk,14,0.001851852,0.002777778,1,0,0,center_square,0,13,13,86,1,,,,,,,,,,,,,,,,,,,,,,,
123524,001,2022-11-21_24h52.21.572,Info_measure_main_exp,2022.2.2,Win32,60.00960154,,,,,,,,,,,,,,,,,,masks/mask_003.jpg,,,,,,,,,,,,,,,,,,,,,,,,,,,,,,,,,,,,,,,,,,,0,0,0,2,1,,,,,,,,,,,,,,,,,,,,,,,,,,,,,,,,,,,,,,,,,,,,,,
123524,001,2022-11-21_24h52.21.572,Info_measure_main_exp,2022.2.2,Win32,60.00960154,,,,,,,,,,,,,,,,,,masks/mask_002.jpg,,,,,,,,,,,,,,,,,,,,,,,,,,,,,,,,,,,,,,,,,,,0,1,1,1,1,,,,,,,,,,,,,,,,,,,,,,,,,,,,,,,,,,,,,,,,,,,,,,
123524,001,2022-11-21_24h52.21.572,Info_measure_main_exp,2022.2.2,Win32,60.00960154,,,,,,,,,,,,,,,,,,masks/mask_005.jpg,,,,,,,,,,,,,,,,,,,,,,,,,,,,,,,,,,,,,,,,,,,0,2,2,4,1,,,,,,,,,,,,,,,,,,,,,,,,,,,,,,,,,,,,,,,,,,,,,,
123524,001,2022-11-21_24h52.21.572,Info_measure_main_exp,2022.2.2,Win32,60.00960154,,,,,,,,,,,,,,,,,,masks/mask_004.jpg,,,,,,,,,,,,,,,,,,,,,,,,,,,,,,,,,,,,,,,,,,,0,3,3,3,1,,,,,,,,,,,,,,,,,,,,,,,,,,,,,,,,,,,,,,,,,,,,,,
123524,001,2022-11-21_24h52.21.572,Info_measure_main_exp,2022.2.2,Win32,60.00960154,,,,,,,,,,,,,,,,,,masks/mask_001.jpg,,,,,,,,,,,,,,,,,,,,,,,,,,,,,,,,,,,,,,,,,,,0,4,4,0,1,,,,,,,,,,,,,,,,,,,,,,,,,,,,,,,,,,,,,,,,,,,,,,
123524,001,2022-11-21_24h52.21.572,Info_measure_main_exp,2022.2.2,Win32,60.00960154,,,,,,,,,,,,,,,,,,masks/mask_004.jpg,,,,,,,,,,,,,,,,,,,,,,,,,,,,,,,,,,,,,,,,,,,,,,,,0,0,0,3,1,,,,,,,,,,,,,,,,,,,,,,,,,,,,,,,,,,,,,,,,,
123524,001,2022-11-21_24h52.21.572,Info_measure_main_exp,2022.2.2,Win32,60.00960154,,,,,,,,,,,,,,,,,,masks/mask_001.jpg,,,,,,,,,,,,,,,,,,,,,,,,,,,,,,,,,,,,,,,,,,,,,,,,0,1,1,0,1,,,,,,,,,,,,,,,,,,,,,,,,,,,,,,,,,,,,,,,,,
123524,001,2022-11-21_24h52.21.572,Info_measure_main_exp,2022.2.2,Win32,60.00960154,,,,,,,,,,,,,,,,,,masks/mask_005.jpg,,,,,,,,,,,,,,,,,,,,,,,,,,,,,,,,,,,,,,,,,,,,,,,,0,2,2,4,1,,,,,,,,,,,,,,,,,,,,,,,,,,,,,,,,,,,,,,,,,
123524,001,2022-11-21_24h52.21.572,Info_measure_main_exp,2022.2.2,Win32,60.00960154,,,,,,,,,,,,,,,,,,masks/mask_003.jpg,,,,,,,,,,,,,,,,,,,,,,,,,,,,,,,,,,,,,,,,,,,,,,,,0,3,3,2,1,,,,,,,,,,,,,,,,,,,,,,,,,,,,,,,,,,,,,,,,,
123524,001,2022-11-21_24h52.21.572,Info_measure_main_exp,2022.2.2,Win32,60.00960154,,,,,,,,,,,,,,,,,,masks/mask_002.jpg,,,,,,,,,,,,,,,,,,,,,,,,,,,,,,,,,,,,,,,,,,,,,,,,0,4,4,1,1,,,,,,,,,,,,,,,,,,,,,,,,,,,,,,,,,,,,,,,,,
123524,001,2022-11-21_24h52.21.572,Info_measure_main_exp,2022.2.2,Win32,60.00960154,,,,,,,,,,,,,,,,,,,,,,,,,,,,,,3,1.6164,1,,,,,,,,,,,,0,131,5,5,2190,2214,absent_patch/patch0002190.jpg,absent_patch/patch0002214.jpg,,,,,,,,,,,,,,,,,,,,-0.016666667,-0.082407407,1,0,0,response5disk,15,0.005555556,-0.003703704,1,0,0,center_square,0,14,14,35,1,,,,,,,,,,,,,,,,,,,,,,,
123524,001,2022-11-21_24h52.21.572,Info_measure_main_exp,2022.2.2,Win32,60.00960154,,,,,,,,,,,,,,,,,,masks/mask_005.jpg,,,,,,,,,,,,,,,,,,,,,,,,,,,,,,,,,,,,,,,,,,,0,0,0,4,1,,,,,,,,,,,,,,,,,,,,,,,,,,,,,,,,,,,,,,,,,,,,,,
123524,001,2022-11-21_24h52.21.572,Info_measure_main_exp,2022.2.2,Win32,60.00960154,,,,,,,,,,,,,,,,,,masks/mask_002.jpg,,,,,,,,,,,,,,,,,,,,,,,,,,,,,,,,,,,,,,,,,,,0,1,1,1,1,,,,,,,,,,,,,,,,,,,,,,,,,,,,,,,,,,,,,,,,,,,,,,
123524,001,2022-11-21_24h52.21.572,Info_measure_main_exp,2022.2.2,Win32,60.00960154,,,,,,,,,,,,,,,,,,masks/mask_003.jpg,,,,,,,,,,,,,,,,,,,,,,,,,,,,,,,,,,,,,,,,,,,0,2,2,2,1,,,,,,,,,,,,,,,,,,,,,,,,,,,,,,,,,,,,,,,,,,,,,,
123524,001,2022-11-21_24h52.21.572,Info_measure_main_exp,2022.2.2,Win32,60.00960154,,,,,,,,,,,,,,,,,,masks/mask_001.jpg,,,,,,,,,,,,,,,,,,,,,,,,,,,,,,,,,,,,,,,,,,,0,3,3,0,1,,,,,,,,,,,,,,,,,,,,,,,,,,,,,,,,,,,,,,,,,,,,,,
123524,001,2022-11-21_24h52.21.572,Info_measure_main_exp,2022.2.2,Win32,60.00960154,,,,,,,,,,,,,,,,,,masks/mask_004.jpg,,,,,,,,,,,,,,,,,,,,,,,,,,,,,,,,,,,,,,,,,,,0,4,4,3,1,,,,,,,,,,,,,,,,,,,,,,,,,,,,,,,,,,,,,,,,,,,,,,
123524,001,2022-11-21_24h52.21.572,Info_measure_main_exp,2022.2.2,Win32,60.00960154,,,,,,,,,,,,,,,,,,masks/mask_002.jpg,,,,,,,,,,,,,,,,,,,,,,,,,,,,,,,,,,,,,,,,,,,,,,,,0,0,0,1,1,,,,,,,,,,,,,,,,,,,,,,,,,,,,,,,,,,,,,,,,,
123524,001,2022-11-21_24h52.21.572,Info_measure_main_exp,2022.2.2,Win32,60.00960154,,,,,,,,,,,,,,,,,,masks/mask_005.jpg,,,,,,,,,,,,,,,,,,,,,,,,,,,,,,,,,,,,,,,,,,,,,,,,0,1,1,4,1,,,,,,,,,,,,,,,,,,,,,,,,,,,,,,,,,,,,,,,,,
123524,001,2022-11-21_24h52.21.572,Info_measure_main_exp,2022.2.2,Win32,60.00960154,,,,,,,,,,,,,,,,,,masks/mask_001.jpg,,,,,,,,,,,,,,,,,,,,,,,,,,,,,,,,,,,,,,,,,,,,,,,,0,2,2,0,1,,,,,,,,,,,,,,,,,,,,,,,,,,,,,,,,,,,,,,,,,
123524,001,2022-11-21_24h52.21.572,Info_measure_main_exp,2022.2.2,Win32,60.00960154,,,,,,,,,,,,,,,,,,masks/mask_004.jpg,,,,,,,,,,,,,,,,,,,,,,,,,,,,,,,,,,,,,,,,,,,,,,,,0,3,3,3,1,,,,,,,,,,,,,,,,,,,,,,,,,,,,,,,,,,,,,,,,,
123524,001,2022-11-21_24h52.21.572,Info_measure_main_exp,2022.2.2,Win32,60.00960154,,,,,,,,,,,,,,,,,,masks/mask_003.jpg,,,,,,,,,,,,,,,,,,,,,,,,,,,,,,,,,,,,,,,,,,,,,,,,0,4,4,2,1,,,,,,,,,,,,,,,,,,,,,,,,,,,,,,,,,,,,,,,,,
123524,001,2022-11-21_24h52.21.572,Info_measure_main_exp,2022.2.2,Win32,60.00960154,,,,,,,,,,,,,,,,,,,,,,,,,,,,,,3,1.5832,1,,,,,,,,,,,,0,131,5,5,2082,2250,absent_patch/patch0002082.jpg,absent_patch/patch0002250.jpg,,,,,,,,,,,,,,,,,,,,-0.069444444,-0.137037037,1,0,0,response5disk,16,0.007407407,0.014814815,1,0,0,center_square,0,15,15,3,1,,,,,,,,,,,,,,,,,,,,,,,
123524,001,2022-11-21_24h52.21.572,Info_measure_main_exp,2022.2.2,Win32,60.00960154,,,,,,,,,,,,,,,,,,masks/mask_002.jpg,,,,,,,,,,,,,,,,,,,,,,,,,,,,,,,,,,,,,,,,,,,0,0,0,1,1,,,,,,,,,,,,,,,,,,,,,,,,,,,,,,,,,,,,,,,,,,,,,,
123524,001,2022-11-21_24h52.21.572,Info_measure_main_exp,2022.2.2,Win32,60.00960154,,,,,,,,,,,,,,,,,,masks/mask_005.jpg,,,,,,,,,,,,,,,,,,,,,,,,,,,,,,,,,,,,,,,,,,,0,1,1,4,1,,,,,,,,,,,,,,,,,,,,,,,,,,,,,,,,,,,,,,,,,,,,,,
123524,001,2022-11-21_24h52.21.572,Info_measure_main_exp,2022.2.2,Win32,60.00960154,,,,,,,,,,,,,,,,,,masks/mask_004.jpg,,,,,,,,,,,,,,,,,,,,,,,,,,,,,,,,,,,,,,,,,,,0,2,2,3,1,,,,,,,,,,,,,,,,,,,,,,,,,,,,,,,,,,,,,,,,,,,,,,
123524,001,2022-11-21_24h52.21.572,Info_measure_main_exp,2022.2.2,Win32,60.00960154,,,,,,,,,,,,,,,,,,masks/mask_003.jpg,,,,,,,,,,,,,,,,,,,,,,,,,,,,,,,,,,,,,,,,,,,0,3,3,2,1,,,,,,,,,,,,,,,,,,,,,,,,,,,,,,,,,,,,,,,,,,,,,,
123524,001,2022-11-21_24h52.21.572,Info_measure_main_exp,2022.2.2,Win32,60.00960154,,,,,,,,,,,,,,,,,,masks/mask_001.jpg,,,,,,,,,,,,,,,,,,,,,,,,,,,,,,,,,,,,,,,,,,,0,4,4,0,1,,,,,,,,,,,,,,,,,,,,,,,,,,,,,,,,,,,,,,,,,,,,,,
123524,001,2022-11-21_24h52.21.572,Info_measure_main_exp,2022.2.2,Win32,60.00960154,,,,,,,,,,,,,,,,,,masks/mask_001.jpg,,,,,,,,,,,,,,,,,,,,,,,,,,,,,,,,,,,,,,,,,,,,,,,,0,0,0,0,1,,,,,,,,,,,,,,,,,,,,,,,,,,,,,,,,,,,,,,,,,
123524,001,2022-11-21_24h52.21.572,Info_measure_main_exp,2022.2.2,Win32,60.00960154,,,,,,,,,,,,,,,,,,masks/mask_002.jpg,,,,,,,,,,,,,,,,,,,,,,,,,,,,,,,,,,,,,,,,,,,,,,,,0,1,1,1,1,,,,,,,,,,,,,,,,,,,,,,,,,,,,,,,,,,,,,,,,,
123524,001,2022-11-21_24h52.21.572,Info_measure_main_exp,2022.2.2,Win32,60.00960154,,,,,,,,,,,,,,,,,,masks/mask_003.jpg,,,,,,,,,,,,,,,,,,,,,,,,,,,,,,,,,,,,,,,,,,,,,,,,0,2,2,2,1,,,,,,,,,,,,,,,,,,,,,,,,,,,,,,,,,,,,,,,,,
123524,001,2022-11-21_24h52.21.572,Info_measure_main_exp,2022.2.2,Win32,60.00960154,,,,,,,,,,,,,,,,,,masks/mask_004.jpg,,,,,,,,,,,,,,,,,,,,,,,,,,,,,,,,,,,,,,,,,,,,,,,,0,3,3,3,1,,,,,,,,,,,,,,,,,,,,,,,,,,,,,,,,,,,,,,,,,
123524,001,2022-11-21_24h52.21.572,Info_measure_main_exp,2022.2.2,Win32,60.00960154,,,,,,,,,,,,,,,,,,masks/mask_005.jpg,,,,,,,,,,,,,,,,,,,,,,,,,,,,,,,,,,,,,,,,,,,,,,,,0,4,4,4,1,,,,,,,,,,,,,,,,,,,,,,,,,,,,,,,,,,,,,,,,,
123524,001,2022-11-21_24h52.21.572,Info_measure_main_exp,2022.2.2,Win32,60.00960154,,,,,,,,,,,,,,,,,,,,,,,,,,,,,,2,8.7665,1,,,,,,,,,,,,0,131,5,5,2082,2082,absent_patch/patch0002082.jpg,absent_patch/patch0002082.jpg,,,,,,,,,,,,,,,,,,,,-0.117592593,-0.062962963,1,0,0,response5disk,17,-0.010185185,-0.003703704,1,0,0,center_square,0,16,16,74,1,,,,,,,,,,,,,,,,,,,,,,,
123524,001,2022-11-21_24h52.21.572,Info_measure_main_exp,2022.2.2,Win32,60.00960154,,,,,,,,,,,,,,,,,,masks/mask_003.jpg,,,,,,,,,,,,,,,,,,,,,,,,,,,,,,,,,,,,,,,,,,,0,0,0,2,1,,,,,,,,,,,,,,,,,,,,,,,,,,,,,,,,,,,,,,,,,,,,,,
123524,001,2022-11-21_24h52.21.572,Info_measure_main_exp,2022.2.2,Win32,60.00960154,,,,,,,,,,,,,,,,,,masks/mask_001.jpg,,,,,,,,,,,,,,,,,,,,,,,,,,,,,,,,,,,,,,,,,,,0,1,1,0,1,,,,,,,,,,,,,,,,,,,,,,,,,,,,,,,,,,,,,,,,,,,,,,
123524,001,2022-11-21_24h52.21.572,Info_measure_main_exp,2022.2.2,Win32,60.00960154,,,,,,,,,,,,,,,,,,masks/mask_002.jpg,,,,,,,,,,,,,,,,,,,,,,,,,,,,,,,,,,,,,,,,,,,0,2,2,1,1,,,,,,,,,,,,,,,,,,,,,,,,,,,,,,,,,,,,,,,,,,,,,,
123524,001,2022-11-21_24h52.21.572,Info_measure_main_exp,2022.2.2,Win32,60.00960154,,,,,,,,,,,,,,,,,,masks/mask_005.jpg,,,,,,,,,,,,,,,,,,,,,,,,,,,,,,,,,,,,,,,,,,,0,3,3,4,1,,,,,,,,,,,,,,,,,,,,,,,,,,,,,,,,,,,,,,,,,,,,,,
123524,001,2022-11-21_24h52.21.572,Info_measure_main_exp,2022.2.2,Win32,60.00960154,,,,,,,,,,,,,,,,,,masks/mask_004.jpg,,,,,,,,,,,,,,,,,,,,,,,,,,,,,,,,,,,,,,,,,,,0,4,4,3,1,,,,,,,,,,,,,,,,,,,,,,,,,,,,,,,,,,,,,,,,,,,,,,
123524,001,2022-11-21_24h52.21.572,Info_measure_main_exp,2022.2.2,Win32,60.00960154,,,,,,,,,,,,,,,,,,masks/mask_001.jpg,,,,,,,,,,,,,,,,,,,,,,,,,,,,,,,,,,,,,,,,,,,,,,,,0,0,0,0,1,,,,,,,,,,,,,,,,,,,,,,,,,,,,,,,,,,,,,,,,,
123524,001,2022-11-21_24h52.21.572,Info_measure_main_exp,2022.2.2,Win32,60.00960154,,,,,,,,,,,,,,,,,,masks/mask_004.jpg,,,,,,,,,,,,,,,,,,,,,,,,,,,,,,,,,,,,,,,,,,,,,,,,0,1,1,3,1,,,,,,,,,,,,,,,,,,,,,,,,,,,,,,,,,,,,,,,,,
123524,001,2022-11-21_24h52.21.572,Info_measure_main_exp,2022.2.2,Win32,60.00960154,,,,,,,,,,,,,,,,,,masks/mask_005.jpg,,,,,,,,,,,,,,,,,,,,,,,,,,,,,,,,,,,,,,,,,,,,,,,,0,2,2,4,1,,,,,,,,,,,,,,,,,,,,,,,,,,,,,,,,,,,,,,,,,
123524,001,2022-11-21_24h52.21.572,Info_measure_main_exp,2022.2.2,Win32,60.00960154,,,,,,,,,,,,,,,,,,masks/mask_002.jpg,,,,,,,,,,,,,,,,,,,,,,,,,,,,,,,,,,,,,,,,,,,,,,,,0,3,3,1,1,,,,,,,,,,,,,,,,,,,,,,,,,,,,,,,,,,,,,,,,,
123524,001,2022-11-21_24h52.21.572,Info_measure_main_exp,2022.2.2,Win32,60.00960154,,,,,,,,,,,,,,,,,,masks/mask_003.jpg,,,,,,,,,,,,,,,,,,,,,,,,,,,,,,,,,,,,,,,,,,,,,,,,0,4,4,2,1,,,,,,,,,,,,,,,,,,,,,,,,,,,,,,,,,,,,,,,,,
123524,001,2022-11-21_24h52.21.572,Info_measure_main_exp,2022.2.2,Win32,60.00960154,,,,,,,,,,,,,,,,,,,,,,,,,,,,,,2,0.9833,1,,,,,,,,,,,,0,131,5,5,1950,2238,absent_patch/patch0001950.jpg,absent_patch/patch0002238.jpg,,,,,,,,,,,,,,,,,,,,-0.102777778,-0.042592593,1,0,0,response5disk,18,0.003703704,-0.002777778,1,0,0,center_square,0,17,17,8,1,,,,,,,,,,,,,,,,,,,,,,,
123524,001,2022-11-21_24h52.21.572,Info_measure_main_exp,2022.2.2,Win32,60.00960154,,,,,,,,,,,,,,,,,,masks/mask_002.jpg,,,,,,,,,,,,,,,,,,,,,,,,,,,,,,,,,,,,,,,,,,,0,0,0,1,1,,,,,,,,,,,,,,,,,,,,,,,,,,,,,,,,,,,,,,,,,,,,,,
123524,001,2022-11-21_24h52.21.572,Info_measure_main_exp,2022.2.2,Win32,60.00960154,,,,,,,,,,,,,,,,,,masks/mask_004.jpg,,,,,,,,,,,,,,,,,,,,,,,,,,,,,,,,,,,,,,,,,,,0,1,1,3,1,,,,,,,,,,,,,,,,,,,,,,,,,,,,,,,,,,,,,,,,,,,,,,
123524,001,2022-11-21_24h52.21.572,Info_measure_main_exp,2022.2.2,Win32,60.00960154,,,,,,,,,,,,,,,,,,masks/mask_001.jpg,,,,,,,,,,,,,,,,,,,,,,,,,,,,,,,,,,,,,,,,,,,0,2,2,0,1,,,,,,,,,,,,,,,,,,,,,,,,,,,,,,,,,,,,,,,,,,,,,,
123524,001,2022-11-21_24h52.21.572,Info_measure_main_exp,2022.2.2,Win32,60.00960154,,,,,,,,,,,,,,,,,,masks/mask_003.jpg,,,,,,,,,,,,,,,,,,,,,,,,,,,,,,,,,,,,,,,,,,,0,3,3,2,1,,,,,,,,,,,,,,,,,,,,,,,,,,,,,,,,,,,,,,,,,,,,,,
123524,001,2022-11-21_24h52.21.572,Info_measure_main_exp,2022.2.2,Win32,60.00960154,,,,,,,,,,,,,,,,,,masks/mask_005.jpg,,,,,,,,,,,,,,,,,,,,,,,,,,,,,,,,,,,,,,,,,,,0,4,4,4,1,,,,,,,,,,,,,,,,,,,,,,,,,,,,,,,,,,,,,,,,,,,,,,
123524,001,2022-11-21_24h52.21.572,Info_measure_main_exp,2022.2.2,Win32,60.00960154,,,,,,,,,,,,,,,,,,masks/mask_005.jpg,,,,,,,,,,,,,,,,,,,,,,,,,,,,,,,,,,,,,,,,,,,,,,,,0,0,0,4,1,,,,,,,,,,,,,,,,,,,,,,,,,,,,,,,,,,,,,,,,,
123524,001,2022-11-21_24h52.21.572,Info_measure_main_exp,2022.2.2,Win32,60.00960154,,,,,,,,,,,,,,,,,,masks/mask_002.jpg,,,,,,,,,,,,,,,,,,,,,,,,,,,,,,,,,,,,,,,,,,,,,,,,0,1,1,1,1,,,,,,,,,,,,,,,,,,,,,,,,,,,,,,,,,,,,,,,,,
123524,001,2022-11-21_24h52.21.572,Info_measure_main_exp,2022.2.2,Win32,60.00960154,,,,,,,,,,,,,,,,,,masks/mask_003.jpg,,,,,,,,,,,,,,,,,,,,,,,,,,,,,,,,,,,,,,,,,,,,,,,,0,2,2,2,1,,,,,,,,,,,,,,,,,,,,,,,,,,,,,,,,,,,,,,,,,
123524,001,2022-11-21_24h52.21.572,Info_measure_main_exp,2022.2.2,Win32,60.00960154,,,,,,,,,,,,,,,,,,masks/mask_001.jpg,,,,,,,,,,,,,,,,,,,,,,,,,,,,,,,,,,,,,,,,,,,,,,,,0,3,3,0,1,,,,,,,,,,,,,,,,,,,,,,,,,,,,,,,,,,,,,,,,,
123524,001,2022-11-21_24h52.21.572,Info_measure_main_exp,2022.2.2,Win32,60.00960154,,,,,,,,,,,,,,,,,,masks/mask_004.jpg,,,,,,,,,,,,,,,,,,,,,,,,,,,,,,,,,,,,,,,,,,,,,,,,0,4,4,3,1,,,,,,,,,,,,,,,,,,,,,,,,,,,,,,,,,,,,,,,,,
123524,001,2022-11-21_24h52.21.572,Info_measure_main_exp,2022.2.2,Win32,60.00960154,,,,,,,,,,,,,,,,,,,,,,,,,,,,,,1,1.0333,1,,,,,,,,,,,,0,131,5,5,2214,2178,absent_patch/patch0002214.jpg,absent_patch/patch0002178.jpg,,,,,,,,,,,,,,,,,,,,-0.140740741,0.051851852,1,0,0,response7disk,19,-0.000925926,0.000925926,1,0,0,center_square,0,18,18,62,1,,,,,,,,,,,,,,,,,,,,,,,
123524,001,2022-11-21_24h52.21.572,Info_measure_main_exp,2022.2.2,Win32,60.00960154,,,,,,,,,,,,,,,,,,masks/mask_001.jpg,,,,,,,,,,,,,,,,,,,,,,,,,,,,,,,,,,,,,,,,,,,0,0,0,0,1,,,,,,,,,,,,,,,,,,,,,,,,,,,,,,,,,,,,,,,,,,,,,,
123524,001,2022-11-21_24h52.21.572,Info_measure_main_exp,2022.2.2,Win32,60.00960154,,,,,,,,,,,,,,,,,,masks/mask_003.jpg,,,,,,,,,,,,,,,,,,,,,,,,,,,,,,,,,,,,,,,,,,,0,1,1,2,1,,,,,,,,,,,,,,,,,,,,,,,,,,,,,,,,,,,,,,,,,,,,,,
123524,001,2022-11-21_24h52.21.572,Info_measure_main_exp,2022.2.2,Win32,60.00960154,,,,,,,,,,,,,,,,,,masks/mask_005.jpg,,,,,,,,,,,,,,,,,,,,,,,,,,,,,,,,,,,,,,,,,,,0,2,2,4,1,,,,,,,,,,,,,,,,,,,,,,,,,,,,,,,,,,,,,,,,,,,,,,
123524,001,2022-11-21_24h52.21.572,Info_measure_main_exp,2022.2.2,Win32,60.00960154,,,,,,,,,,,,,,,,,,masks/mask_004.jpg,,,,,,,,,,,,,,,,,,,,,,,,,,,,,,,,,,,,,,,,,,,0,3,3,3,1,,,,,,,,,,,,,,,,,,,,,,,,,,,,,,,,,,,,,,,,,,,,,,
123524,001,2022-11-21_24h52.21.572,Info_measure_main_exp,2022.2.2,Win32,60.00960154,,,,,,,,,,,,,,,,,,masks/mask_002.jpg,,,,,,,,,,,,,,,,,,,,,,,,,,,,,,,,,,,,,,,,,,,0,4,4,1,1,,,,,,,,,,,,,,,,,,,,,,,,,,,,,,,,,,,,,,,,,,,,,,
123524,001,2022-11-21_24h52.21.572,Info_measure_main_exp,2022.2.2,Win32,60.00960154,,,,,,,,,,,,,,,,,,masks/mask_002.jpg,,,,,,,,,,,,,,,,,,,,,,,,,,,,,,,,,,,,,,,,,,,,,,,,0,0,0,1,1,,,,,,,,,,,,,,,,,,,,,,,,,,,,,,,,,,,,,,,,,
123524,001,2022-11-21_24h52.21.572,Info_measure_main_exp,2022.2.2,Win32,60.00960154,,,,,,,,,,,,,,,,,,masks/mask_003.jpg,,,,,,,,,,,,,,,,,,,,,,,,,,,,,,,,,,,,,,,,,,,,,,,,0,1,1,2,1,,,,,,,,,,,,,,,,,,,,,,,,,,,,,,,,,,,,,,,,,
123524,001,2022-11-21_24h52.21.572,Info_measure_main_exp,2022.2.2,Win32,60.00960154,,,,,,,,,,,,,,,,,,masks/mask_005.jpg,,,,,,,,,,,,,,,,,,,,,,,,,,,,,,,,,,,,,,,,,,,,,,,,0,2,2,4,1,,,,,,,,,,,,,,,,,,,,,,,,,,,,,,,,,,,,,,,,,
123524,001,2022-11-21_24h52.21.572,Info_measure_main_exp,2022.2.2,Win32,60.00960154,,,,,,,,,,,,,,,,,,masks/mask_004.jpg,,,,,,,,,,,,,,,,,,,,,,,,,,,,,,,,,,,,,,,,,,,,,,,,0,3,3,3,1,,,,,,,,,,,,,,,,,,,,,,,,,,,,,,,,,,,,,,,,,
123524,001,2022-11-21_24h52.21.572,Info_measure_main_exp,2022.2.2,Win32,60.00960154,,,,,,,,,,,,,,,,,,masks/mask_001.jpg,,,,,,,,,,,,,,,,,,,,,,,,,,,,,,,,,,,,,,,,,,,,,,,,0,4,4,0,1,,,,,,,,,,,,,,,,,,,,,,,,,,,,,,,,,,,,,,,,,
123524,001,2022-11-21_24h52.21.572,Info_measure_main_exp,2022.2.2,Win32,60.00960154,,,,,,,,,,,,,,,,,,,,,,,,,,,,,,7,1.4167,1,,,,,,,,,,,,0,131,5,5,1986,1986,absent_patch/patch0001986.jpg,absent_patch/patch0001986.jpg,,,,,,,,,,,,,,,,,,,,0.136111111,0.177777778,1,0,0,response1disk,20,0.013888889,0.00462963,1,0,0,center_square,0,19,19,19,1,,,,,,,,,,,,,,,,,,,,,,,
123524,001,2022-11-21_24h52.21.572,Info_measure_main_exp,2022.2.2,Win32,60.00960154,,,,,,,,,,,,,,,,,,masks/mask_004.jpg,,,,,,,,,,,,,,,,,,,,,,,,,,,,,,,,,,,,,,,,,,,0,0,0,3,1,,,,,,,,,,,,,,,,,,,,,,,,,,,,,,,,,,,,,,,,,,,,,,
123524,001,2022-11-21_24h52.21.572,Info_measure_main_exp,2022.2.2,Win32,60.00960154,,,,,,,,,,,,,,,,,,masks/mask_002.jpg,,,,,,,,,,,,,,,,,,,,,,,,,,,,,,,,,,,,,,,,,,,0,1,1,1,1,,,,,,,,,,,,,,,,,,,,,,,,,,,,,,,,,,,,,,,,,,,,,,
123524,001,2022-11-21_24h52.21.572,Info_measure_main_exp,2022.2.2,Win32,60.00960154,,,,,,,,,,,,,,,,,,masks/mask_001.jpg,,,,,,,,,,,,,,,,,,,,,,,,,,,,,,,,,,,,,,,,,,,0,2,2,0,1,,,,,,,,,,,,,,,,,,,,,,,,,,,,,,,,,,,,,,,,,,,,,,
123524,001,2022-11-21_24h52.21.572,Info_measure_main_exp,2022.2.2,Win32,60.00960154,,,,,,,,,,,,,,,,,,masks/mask_003.jpg,,,,,,,,,,,,,,,,,,,,,,,,,,,,,,,,,,,,,,,,,,,0,3,3,2,1,,,,,,,,,,,,,,,,,,,,,,,,,,,,,,,,,,,,,,,,,,,,,,
123524,001,2022-11-21_24h52.21.572,Info_measure_main_exp,2022.2.2,Win32,60.00960154,,,,,,,,,,,,,,,,,,masks/mask_005.jpg,,,,,,,,,,,,,,,,,,,,,,,,,,,,,,,,,,,,,,,,,,,0,4,4,4,1,,,,,,,,,,,,,,,,,,,,,,,,,,,,,,,,,,,,,,,,,,,,,,
123524,001,2022-11-21_24h52.21.572,Info_measure_main_exp,2022.2.2,Win32,60.00960154,,,,,,,,,,,,,,,,,,masks/mask_001.jpg,,,,,,,,,,,,,,,,,,,,,,,,,,,,,,,,,,,,,,,,,,,,,,,,0,0,0,0,1,,,,,,,,,,,,,,,,,,,,,,,,,,,,,,,,,,,,,,,,,
123524,001,2022-11-21_24h52.21.572,Info_measure_main_exp,2022.2.2,Win32,60.00960154,,,,,,,,,,,,,,,,,,masks/mask_002.jpg,,,,,,,,,,,,,,,,,,,,,,,,,,,,,,,,,,,,,,,,,,,,,,,,0,1,1,1,1,,,,,,,,,,,,,,,,,,,,,,,,,,,,,,,,,,,,,,,,,
123524,001,2022-11-21_24h52.21.572,Info_measure_main_exp,2022.2.2,Win32,60.00960154,,,,,,,,,,,,,,,,,,masks/mask_004.jpg,,,,,,,,,,,,,,,,,,,,,,,,,,,,,,,,,,,,,,,,,,,,,,,,0,2,2,3,1,,,,,,,,,,,,,,,,,,,,,,,,,,,,,,,,,,,,,,,,,
123524,001,2022-11-21_24h52.21.572,Info_measure_main_exp,2022.2.2,Win32,60.00960154,,,,,,,,,,,,,,,,,,masks/mask_005.jpg,,,,,,,,,,,,,,,,,,,,,,,,,,,,,,,,,,,,,,,,,,,,,,,,0,3,3,4,1,,,,,,,,,,,,,,,,,,,,,,,,,,,,,,,,,,,,,,,,,
123524,001,2022-11-21_24h52.21.572,Info_measure_main_exp,2022.2.2,Win32,60.00960154,,,,,,,,,,,,,,,,,,masks/mask_003.jpg,,,,,,,,,,,,,,,,,,,,,,,,,,,,,,,,,,,,,,,,,,,,,,,,0,4,4,2,1,,,,,,,,,,,,,,,,,,,,,,,,,,,,,,,,,,,,,,,,,
123524,001,2022-11-21_24h52.21.572,Info_measure_main_exp,2022.2.2,Win32,60.00960154,,,,,,,,,,,,,,,,,,,,,,,,,,,,,,1,0.5166,1,,,,,,,,,,,,1,131,5,5,1,2166,present_patch/cong_131_5_a.jpg,absent_patch/patch0002166.jpg,,,,,,,,,,,,,,,,,,,,-0.114814815,0.047222222,1,0,0,response7disk,21,-0.003703704,0,1,0,0,center_square,0,20,20,54,1,,,,,,,,,,,,,,,,,,,,,,,
123524,001,2022-11-21_24h52.21.572,Info_measure_main_exp,2022.2.2,Win32,60.00960154,,,,,,,,,,,,,,,,,,masks/mask_005.jpg,,,,,,,,,,,,,,,,,,,,,,,,,,,,,,,,,,,,,,,,,,,0,0,0,4,1,,,,,,,,,,,,,,,,,,,,,,,,,,,,,,,,,,,,,,,,,,,,,,
123524,001,2022-11-21_24h52.21.572,Info_measure_main_exp,2022.2.2,Win32,60.00960154,,,,,,,,,,,,,,,,,,masks/mask_002.jpg,,,,,,,,,,,,,,,,,,,,,,,,,,,,,,,,,,,,,,,,,,,0,1,1,1,1,,,,,,,,,,,,,,,,,,,,,,,,,,,,,,,,,,,,,,,,,,,,,,
123524,001,2022-11-21_24h52.21.572,Info_measure_main_exp,2022.2.2,Win32,60.00960154,,,,,,,,,,,,,,,,,,masks/mask_004.jpg,,,,,,,,,,,,,,,,,,,,,,,,,,,,,,,,,,,,,,,,,,,0,2,2,3,1,,,,,,,,,,,,,,,,,,,,,,,,,,,,,,,,,,,,,,,,,,,,,,
123524,001,2022-11-21_24h52.21.572,Info_measure_main_exp,2022.2.2,Win32,60.00960154,,,,,,,,,,,,,,,,,,masks/mask_003.jpg,,,,,,,,,,,,,,,,,,,,,,,,,,,,,,,,,,,,,,,,,,,0,3,3,2,1,,,,,,,,,,,,,,,,,,,,,,,,,,,,,,,,,,,,,,,,,,,,,,
123524,001,2022-11-21_24h52.21.572,Info_measure_main_exp,2022.2.2,Win32,60.00960154,,,,,,,,,,,,,,,,,,masks/mask_001.jpg,,,,,,,,,,,,,,,,,,,,,,,,,,,,,,,,,,,,,,,,,,,0,4,4,0,1,,,,,,,,,,,,,,,,,,,,,,,,,,,,,,,,,,,,,,,,,,,,,,
123524,001,2022-11-21_24h52.21.572,Info_measure_main_exp,2022.2.2,Win32,60.00960154,,,,,,,,,,,,,,,,,,masks/mask_005.jpg,,,,,,,,,,,,,,,,,,,,,,,,,,,,,,,,,,,,,,,,,,,,,,,,0,0,0,4,1,,,,,,,,,,,,,,,,,,,,,,,,,,,,,,,,,,,,,,,,,
123524,001,2022-11-21_24h52.21.572,Info_measure_main_exp,2022.2.2,Win32,60.00960154,,,,,,,,,,,,,,,,,,masks/mask_002.jpg,,,,,,,,,,,,,,,,,,,,,,,,,,,,,,,,,,,,,,,,,,,,,,,,0,1,1,1,1,,,,,,,,,,,,,,,,,,,,,,,,,,,,,,,,,,,,,,,,,
123524,001,2022-11-21_24h52.21.572,Info_measure_main_exp,2022.2.2,Win32,60.00960154,,,,,,,,,,,,,,,,,,masks/mask_004.jpg,,,,,,,,,,,,,,,,,,,,,,,,,,,,,,,,,,,,,,,,,,,,,,,,0,2,2,3,1,,,,,,,,,,,,,,,,,,,,,,,,,,,,,,,,,,,,,,,,,
123524,001,2022-11-21_24h52.21.572,Info_measure_main_exp,2022.2.2,Win32,60.00960154,,,,,,,,,,,,,,,,,,masks/mask_003.jpg,,,,,,,,,,,,,,,,,,,,,,,,,,,,,,,,,,,,,,,,,,,,,,,,0,3,3,2,1,,,,,,,,,,,,,,,,,,,,,,,,,,,,,,,,,,,,,,,,,
123524,001,2022-11-21_24h52.21.572,Info_measure_main_exp,2022.2.2,Win32,60.00960154,,,,,,,,,,,,,,,,,,masks/mask_001.jpg,,,,,,,,,,,,,,,,,,,,,,,,,,,,,,,,,,,,,,,,,,,,,,,,0,4,4,0,1,,,,,,,,,,,,,,,,,,,,,,,,,,,,,,,,,,,,,,,,,
123524,001,2022-11-21_24h52.21.572,Info_measure_main_exp,2022.2.2,Win32,60.00960154,,,,,,,,,,,,,,,,,,,,,,,,,,,,,,6,1.0501,1,,,,,,,,,,,,0,131,5,5,2250,2238,absent_patch/patch0002250.jpg,absent_patch/patch0002238.jpg,,,,,,,,,,,,,,,,,,,,0.201851852,0.12962963,1,0,0,response1disk,22,-0.010185185,-0.011111111,1,0,0,center_square,0,21,21,110,1,,,,,,,,,,,,,,,,,,,,,,,
123524,001,2022-11-21_24h52.21.572,Info_measure_main_exp,2022.2.2,Win32,60.00960154,,,,,,,,,,,,,,,,,,masks/mask_004.jpg,,,,,,,,,,,,,,,,,,,,,,,,,,,,,,,,,,,,,,,,,,,0,0,0,3,1,,,,,,,,,,,,,,,,,,,,,,,,,,,,,,,,,,,,,,,,,,,,,,
123524,001,2022-11-21_24h52.21.572,Info_measure_main_exp,2022.2.2,Win32,60.00960154,,,,,,,,,,,,,,,,,,masks/mask_005.jpg,,,,,,,,,,,,,,,,,,,,,,,,,,,,,,,,,,,,,,,,,,,0,1,1,4,1,,,,,,,,,,,,,,,,,,,,,,,,,,,,,,,,,,,,,,,,,,,,,,
123524,001,2022-11-21_24h52.21.572,Info_measure_main_exp,2022.2.2,Win32,60.00960154,,,,,,,,,,,,,,,,,,masks/mask_003.jpg,,,,,,,,,,,,,,,,,,,,,,,,,,,,,,,,,,,,,,,,,,,0,2,2,2,1,,,,,,,,,,,,,,,,,,,,,,,,,,,,,,,,,,,,,,,,,,,,,,
123524,001,2022-11-21_24h52.21.572,Info_measure_main_exp,2022.2.2,Win32,60.00960154,,,,,,,,,,,,,,,,,,masks/mask_002.jpg,,,,,,,,,,,,,,,,,,,,,,,,,,,,,,,,,,,,,,,,,,,0,3,3,1,1,,,,,,,,,,,,,,,,,,,,,,,,,,,,,,,,,,,,,,,,,,,,,,
123524,001,2022-11-21_24h52.21.572,Info_measure_main_exp,2022.2.2,Win32,60.00960154,,,,,,,,,,,,,,,,,,masks/mask_001.jpg,,,,,,,,,,,,,,,,,,,,,,,,,,,,,,,,,,,,,,,,,,,0,4,4,0,1,,,,,,,,,,,,,,,,,,,,,,,,,,,,,,,,,,,,,,,,,,,,,,
123524,001,2022-11-21_24h52.21.572,Info_measure_main_exp,2022.2.2,Win32,60.00960154,,,,,,,,,,,,,,,,,,masks/mask_002.jpg,,,,,,,,,,,,,,,,,,,,,,,,,,,,,,,,,,,,,,,,,,,,,,,,0,0,0,1,1,,,,,,,,,,,,,,,,,,,,,,,,,,,,,,,,,,,,,,,,,
123524,001,2022-11-21_24h52.21.572,Info_measure_main_exp,2022.2.2,Win32,60.00960154,,,,,,,,,,,,,,,,,,masks/mask_001.jpg,,,,,,,,,,,,,,,,,,,,,,,,,,,,,,,,,,,,,,,,,,,,,,,,0,1,1,0,1,,,,,,,,,,,,,,,,,,,,,,,,,,,,,,,,,,,,,,,,,
123524,001,2022-11-21_24h52.21.572,Info_measure_main_exp,2022.2.2,Win32,60.00960154,,,,,,,,,,,,,,,,,,masks/mask_003.jpg,,,,,,,,,,,,,,,,,,,,,,,,,,,,,,,,,,,,,,,,,,,,,,,,0,2,2,2,1,,,,,,,,,,,,,,,,,,,,,,,,,,,,,,,,,,,,,,,,,
123524,001,2022-11-21_24h52.21.572,Info_measure_main_exp,2022.2.2,Win32,60.00960154,,,,,,,,,,,,,,,,,,masks/mask_004.jpg,,,,,,,,,,,,,,,,,,,,,,,,,,,,,,,,,,,,,,,,,,,,,,,,0,3,3,3,1,,,,,,,,,,,,,,,,,,,,,,,,,,,,,,,,,,,,,,,,,
123524,001,2022-11-21_24h52.21.572,Info_measure_main_exp,2022.2.2,Win32,60.00960154,,,,,,,,,,,,,,,,,,masks/mask_005.jpg,,,,,,,,,,,,,,,,,,,,,,,,,,,,,,,,,,,,,,,,,,,,,,,,0,4,4,4,1,,,,,,,,,,,,,,,,,,,,,,,,,,,,,,,,,,,,,,,,,
123524,001,2022-11-21_24h52.21.572,Info_measure_main_exp,2022.2.2,Win32,60.00960154,,,,,,,,,,,,,,,,,,,,,,,,,,,,,,6,1.0997,1,,,,,,,,,,,,0,131,5,5,2274,2274,absent_patch/patch0002274.jpg,absent_patch/patch0002274.jpg,,,,,,,,,,,,,,,,,,,,0.131481481,0.091666667,1,0,0,response1disk,23,-0.007407407,0.000925926,1,0,0,center_square,0,22,22,114,1,,,,,,,,,,,,,,,,,,,,,,,
123524,001,2022-11-21_24h52.21.572,Info_measure_main_exp,2022.2.2,Win32,60.00960154,,,,,,,,,,,,,,,,,,masks/mask_004.jpg,,,,,,,,,,,,,,,,,,,,,,,,,,,,,,,,,,,,,,,,,,,0,0,0,3,1,,,,,,,,,,,,,,,,,,,,,,,,,,,,,,,,,,,,,,,,,,,,,,
123524,001,2022-11-21_24h52.21.572,Info_measure_main_exp,2022.2.2,Win32,60.00960154,,,,,,,,,,,,,,,,,,masks/mask_003.jpg,,,,,,,,,,,,,,,,,,,,,,,,,,,,,,,,,,,,,,,,,,,0,1,1,2,1,,,,,,,,,,,,,,,,,,,,,,,,,,,,,,,,,,,,,,,,,,,,,,
123524,001,2022-11-21_24h52.21.572,Info_measure_main_exp,2022.2.2,Win32,60.00960154,,,,,,,,,,,,,,,,,,masks/mask_001.jpg,,,,,,,,,,,,,,,,,,,,,,,,,,,,,,,,,,,,,,,,,,,0,2,2,0,1,,,,,,,,,,,,,,,,,,,,,,,,,,,,,,,,,,,,,,,,,,,,,,
123524,001,2022-11-21_24h52.21.572,Info_measure_main_exp,2022.2.2,Win32,60.00960154,,,,,,,,,,,,,,,,,,masks/mask_005.jpg,,,,,,,,,,,,,,,,,,,,,,,,,,,,,,,,,,,,,,,,,,,0,3,3,4,1,,,,,,,,,,,,,,,,,,,,,,,,,,,,,,,,,,,,,,,,,,,,,,
123524,001,2022-11-21_24h52.21.572,Info_measure_main_exp,2022.2.2,Win32,60.00960154,,,,,,,,,,,,,,,,,,masks/mask_002.jpg,,,,,,,,,,,,,,,,,,,,,,,,,,,,,,,,,,,,,,,,,,,0,4,4,1,1,,,,,,,,,,,,,,,,,,,,,,,,,,,,,,,,,,,,,,,,,,,,,,
123524,001,2022-11-21_24h52.21.572,Info_measure_main_exp,2022.2.2,Win32,60.00960154,,,,,,,,,,,,,,,,,,masks/mask_004.jpg,,,,,,,,,,,,,,,,,,,,,,,,,,,,,,,,,,,,,,,,,,,,,,,,0,0,0,3,1,,,,,,,,,,,,,,,,,,,,,,,,,,,,,,,,,,,,,,,,,
123524,001,2022-11-21_24h52.21.572,Info_measure_main_exp,2022.2.2,Win32,60.00960154,,,,,,,,,,,,,,,,,,masks/mask_001.jpg,,,,,,,,,,,,,,,,,,,,,,,,,,,,,,,,,,,,,,,,,,,,,,,,0,1,1,0,1,,,,,,,,,,,,,,,,,,,,,,,,,,,,,,,,,,,,,,,,,
123524,001,2022-11-21_24h52.21.572,Info_measure_main_exp,2022.2.2,Win32,60.00960154,,,,,,,,,,,,,,,,,,masks/mask_002.jpg,,,,,,,,,,,,,,,,,,,,,,,,,,,,,,,,,,,,,,,,,,,,,,,,0,2,2,1,1,,,,,,,,,,,,,,,,,,,,,,,,,,,,,,,,,,,,,,,,,
123524,001,2022-11-21_24h52.21.572,Info_measure_main_exp,2022.2.2,Win32,60.00960154,,,,,,,,,,,,,,,,,,masks/mask_003.jpg,,,,,,,,,,,,,,,,,,,,,,,,,,,,,,,,,,,,,,,,,,,,,,,,0,3,3,2,1,,,,,,,,,,,,,,,,,,,,,,,,,,,,,,,,,,,,,,,,,
123524,001,2022-11-21_24h52.21.572,Info_measure_main_exp,2022.2.2,Win32,60.00960154,,,,,,,,,,,,,,,,,,masks/mask_005.jpg,,,,,,,,,,,,,,,,,,,,,,,,,,,,,,,,,,,,,,,,,,,,,,,,0,4,4,4,1,,,,,,,,,,,,,,,,,,,,,,,,,,,,,,,,,,,,,,,,,
123524,001,2022-11-21_24h52.21.572,Info_measure_main_exp,2022.2.2,Win32,60.00960154,,,,,,,,,,,,,,,,,,,,,,,,,,,,,,1,0.7168,1,,,,,,,,,,,,0,131,5,5,2298,2298,absent_patch/patch0002298.jpg,absent_patch/patch0002298.jpg,,,,,,,,,,,,,,,,,,,,-0.162037037,0.086111111,1,0,0,response7disk,24,-0.010185185,0.006481481,1,0,0,center_square,0,23,23,37,1,,,,,,,,,,,,,,,,,,,,,,,
123524,001,2022-11-21_24h52.21.572,Info_measure_main_exp,2022.2.2,Win32,60.00960154,,,,,,,,,,,,,,,,,,masks/mask_004.jpg,,,,,,,,,,,,,,,,,,,,,,,,,,,,,,,,,,,,,,,,,,,0,0,0,3,1,,,,,,,,,,,,,,,,,,,,,,,,,,,,,,,,,,,,,,,,,,,,,,
123524,001,2022-11-21_24h52.21.572,Info_measure_main_exp,2022.2.2,Win32,60.00960154,,,,,,,,,,,,,,,,,,masks/mask_005.jpg,,,,,,,,,,,,,,,,,,,,,,,,,,,,,,,,,,,,,,,,,,,0,1,1,4,1,,,,,,,,,,,,,,,,,,,,,,,,,,,,,,,,,,,,,,,,,,,,,,
123524,001,2022-11-21_24h52.21.572,Info_measure_main_exp,2022.2.2,Win32,60.00960154,,,,,,,,,,,,,,,,,,masks/mask_002.jpg,,,,,,,,,,,,,,,,,,,,,,,,,,,,,,,,,,,,,,,,,,,0,2,2,1,1,,,,,,,,,,,,,,,,,,,,,,,,,,,,,,,,,,,,,,,,,,,,,,
123524,001,2022-11-21_24h52.21.572,Info_measure_main_exp,2022.2.2,Win32,60.00960154,,,,,,,,,,,,,,,,,,masks/mask_001.jpg,,,,,,,,,,,,,,,,,,,,,,,,,,,,,,,,,,,,,,,,,,,0,3,3,0,1,,,,,,,,,,,,,,,,,,,,,,,,,,,,,,,,,,,,,,,,,,,,,,
123524,001,2022-11-21_24h52.21.572,Info_measure_main_exp,2022.2.2,Win32,60.00960154,,,,,,,,,,,,,,,,,,masks/mask_003.jpg,,,,,,,,,,,,,,,,,,,,,,,,,,,,,,,,,,,,,,,,,,,0,4,4,2,1,,,,,,,,,,,,,,,,,,,,,,,,,,,,,,,,,,,,,,,,,,,,,,
123524,001,2022-11-21_24h52.21.572,Info_measure_main_exp,2022.2.2,Win32,60.00960154,,,,,,,,,,,,,,,,,,masks/mask_002.jpg,,,,,,,,,,,,,,,,,,,,,,,,,,,,,,,,,,,,,,,,,,,,,,,,0,0,0,1,1,,,,,,,,,,,,,,,,,,,,,,,,,,,,,,,,,,,,,,,,,
123524,001,2022-11-21_24h52.21.572,Info_measure_main_exp,2022.2.2,Win32,60.00960154,,,,,,,,,,,,,,,,,,masks/mask_001.jpg,,,,,,,,,,,,,,,,,,,,,,,,,,,,,,,,,,,,,,,,,,,,,,,,0,1,1,0,1,,,,,,,,,,,,,,,,,,,,,,,,,,,,,,,,,,,,,,,,,
123524,001,2022-11-21_24h52.21.572,Info_measure_main_exp,2022.2.2,Win32,60.00960154,,,,,,,,,,,,,,,,,,masks/mask_004.jpg,,,,,,,,,,,,,,,,,,,,,,,,,,,,,,,,,,,,,,,,,,,,,,,,0,2,2,3,1,,,,,,,,,,,,,,,,,,,,,,,,,,,,,,,,,,,,,,,,,
123524,001,2022-11-21_24h52.21.572,Info_measure_main_exp,2022.2.2,Win32,60.00960154,,,,,,,,,,,,,,,,,,masks/mask_005.jpg,,,,,,,,,,,,,,,,,,,,,,,,,,,,,,,,,,,,,,,,,,,,,,,,0,3,3,4,1,,,,,,,,,,,,,,,,,,,,,,,,,,,,,,,,,,,,,,,,,
123524,001,2022-11-21_24h52.21.572,Info_measure_main_exp,2022.2.2,Win32,60.00960154,,,,,,,,,,,,,,,,,,masks/mask_003.jpg,,,,,,,,,,,,,,,,,,,,,,,,,,,,,,,,,,,,,,,,,,,,,,,,0,4,4,2,1,,,,,,,,,,,,,,,,,,,,,,,,,,,,,,,,,,,,,,,,,
123524,001,2022-11-21_24h52.21.572,Info_measure_main_exp,2022.2.2,Win32,60.00960154,,,,,,,,,,,,,,,,,,,,,,,,,,,,,,6,0.7166,1,,,,,,,,,,,,0,131,5,5,2154,2154,absent_patch/patch0002154.jpg,absent_patch/patch0002154.jpg,,,,,,,,,,,,,,,,,,,,0.134259259,0.035185185,1,0,0,response1disk,25,0.015740741,0.000925926,1,0,0,center_square,0,24,24,89,1,,,,,,,,,,,,,,,,,,,,,,,
123524,001,2022-11-21_24h52.21.572,Info_measure_main_exp,2022.2.2,Win32,60.00960154,,,,,,,,,,,,,,,,,,masks/mask_002.jpg,,,,,,,,,,,,,,,,,,,,,,,,,,,,,,,,,,,,,,,,,,,0,0,0,1,1,,,,,,,,,,,,,,,,,,,,,,,,,,,,,,,,,,,,,,,,,,,,,,
123524,001,2022-11-21_24h52.21.572,Info_measure_main_exp,2022.2.2,Win32,60.00960154,,,,,,,,,,,,,,,,,,masks/mask_005.jpg,,,,,,,,,,,,,,,,,,,,,,,,,,,,,,,,,,,,,,,,,,,0,1,1,4,1,,,,,,,,,,,,,,,,,,,,,,,,,,,,,,,,,,,,,,,,,,,,,,
123524,001,2022-11-21_24h52.21.572,Info_measure_main_exp,2022.2.2,Win32,60.00960154,,,,,,,,,,,,,,,,,,masks/mask_004.jpg,,,,,,,,,,,,,,,,,,,,,,,,,,,,,,,,,,,,,,,,,,,0,2,2,3,1,,,,,,,,,,,,,,,,,,,,,,,,,,,,,,,,,,,,,,,,,,,,,,
123524,001,2022-11-21_24h52.21.572,Info_measure_main_exp,2022.2.2,Win32,60.00960154,,,,,,,,,,,,,,,,,,masks/mask_003.jpg,,,,,,,,,,,,,,,,,,,,,,,,,,,,,,,,,,,,,,,,,,,0,3,3,2,1,,,,,,,,,,,,,,,,,,,,,,,,,,,,,,,,,,,,,,,,,,,,,,
123524,001,2022-11-21_24h52.21.572,Info_measure_main_exp,2022.2.2,Win32,60.00960154,,,,,,,,,,,,,,,,,,masks/mask_001.jpg,,,,,,,,,,,,,,,,,,,,,,,,,,,,,,,,,,,,,,,,,,,0,4,4,0,1,,,,,,,,,,,,,,,,,,,,,,,,,,,,,,,,,,,,,,,,,,,,,,
123524,001,2022-11-21_24h52.21.572,Info_measure_main_exp,2022.2.2,Win32,60.00960154,,,,,,,,,,,,,,,,,,masks/mask_001.jpg,,,,,,,,,,,,,,,,,,,,,,,,,,,,,,,,,,,,,,,,,,,,,,,,0,0,0,0,1,,,,,,,,,,,,,,,,,,,,,,,,,,,,,,,,,,,,,,,,,
123524,001,2022-11-21_24h52.21.572,Info_measure_main_exp,2022.2.2,Win32,60.00960154,,,,,,,,,,,,,,,,,,masks/mask_004.jpg,,,,,,,,,,,,,,,,,,,,,,,,,,,,,,,,,,,,,,,,,,,,,,,,0,1,1,3,1,,,,,,,,,,,,,,,,,,,,,,,,,,,,,,,,,,,,,,,,,
123524,001,2022-11-21_24h52.21.572,Info_measure_main_exp,2022.2.2,Win32,60.00960154,,,,,,,,,,,,,,,,,,masks/mask_005.jpg,,,,,,,,,,,,,,,,,,,,,,,,,,,,,,,,,,,,,,,,,,,,,,,,0,2,2,4,1,,,,,,,,,,,,,,,,,,,,,,,,,,,,,,,,,,,,,,,,,
123524,001,2022-11-21_24h52.21.572,Info_measure_main_exp,2022.2.2,Win32,60.00960154,,,,,,,,,,,,,,,,,,masks/mask_003.jpg,,,,,,,,,,,,,,,,,,,,,,,,,,,,,,,,,,,,,,,,,,,,,,,,0,3,3,2,1,,,,,,,,,,,,,,,,,,,,,,,,,,,,,,,,,,,,,,,,,
123524,001,2022-11-21_24h52.21.572,Info_measure_main_exp,2022.2.2,Win32,60.00960154,,,,,,,,,,,,,,,,,,masks/mask_002.jpg,,,,,,,,,,,,,,,,,,,,,,,,,,,,,,,,,,,,,,,,,,,,,,,,0,4,4,1,1,,,,,,,,,,,,,,,,,,,,,,,,,,,,,,,,,,,,,,,,,
123524,001,2022-11-21_24h52.21.572,Info_measure_main_exp,2022.2.2,Win32,60.00960154,,,,,,,,,,,,,,,,,,,,,,,,,,,,,,1,0.3332,1,,,,,,,,,,,,0,131,5,5,2214,2214,absent_patch/patch0002214.jpg,absent_patch/patch0002214.jpg,,,,,,,,,,,,,,,,,,,,-0.142592593,0.00462963,1,0,0,response7disk,26,0.009259259,-0.015740741,1,0,0,center_square,0,25,25,115,1,,,,,,,,,,,,,,,,,,,,,,,
123524,001,2022-11-21_24h52.21.572,Info_measure_main_exp,2022.2.2,Win32,60.00960154,,,,,,,,,,,,,,,,,,masks/mask_003.jpg,,,,,,,,,,,,,,,,,,,,,,,,,,,,,,,,,,,,,,,,,,,0,0,0,2,1,,,,,,,,,,,,,,,,,,,,,,,,,,,,,,,,,,,,,,,,,,,,,,
123524,001,2022-11-21_24h52.21.572,Info_measure_main_exp,2022.2.2,Win32,60.00960154,,,,,,,,,,,,,,,,,,masks/mask_002.jpg,,,,,,,,,,,,,,,,,,,,,,,,,,,,,,,,,,,,,,,,,,,0,1,1,1,1,,,,,,,,,,,,,,,,,,,,,,,,,,,,,,,,,,,,,,,,,,,,,,
123524,001,2022-11-21_24h52.21.572,Info_measure_main_exp,2022.2.2,Win32,60.00960154,,,,,,,,,,,,,,,,,,masks/mask_004.jpg,,,,,,,,,,,,,,,,,,,,,,,,,,,,,,,,,,,,,,,,,,,0,2,2,3,1,,,,,,,,,,,,,,,,,,,,,,,,,,,,,,,,,,,,,,,,,,,,,,
123524,001,2022-11-21_24h52.21.572,Info_measure_main_exp,2022.2.2,Win32,60.00960154,,,,,,,,,,,,,,,,,,masks/mask_005.jpg,,,,,,,,,,,,,,,,,,,,,,,,,,,,,,,,,,,,,,,,,,,0,3,3,4,1,,,,,,,,,,,,,,,,,,,,,,,,,,,,,,,,,,,,,,,,,,,,,,
123524,001,2022-11-21_24h52.21.572,Info_measure_main_exp,2022.2.2,Win32,60.00960154,,,,,,,,,,,,,,,,,,masks/mask_001.jpg,,,,,,,,,,,,,,,,,,,,,,,,,,,,,,,,,,,,,,,,,,,0,4,4,0,1,,,,,,,,,,,,,,,,,,,,,,,,,,,,,,,,,,,,,,,,,,,,,,
123524,001,2022-11-21_24h52.21.572,Info_measure_main_exp,2022.2.2,Win32,60.00960154,,,,,,,,,,,,,,,,,,masks/mask_004.jpg,,,,,,,,,,,,,,,,,,,,,,,,,,,,,,,,,,,,,,,,,,,,,,,,0,0,0,3,1,,,,,,,,,,,,,,,,,,,,,,,,,,,,,,,,,,,,,,,,,
123524,001,2022-11-21_24h52.21.572,Info_measure_main_exp,2022.2.2,Win32,60.00960154,,,,,,,,,,,,,,,,,,masks/mask_003.jpg,,,,,,,,,,,,,,,,,,,,,,,,,,,,,,,,,,,,,,,,,,,,,,,,0,1,1,2,1,,,,,,,,,,,,,,,,,,,,,,,,,,,,,,,,,,,,,,,,,
123524,001,2022-11-21_24h52.21.572,Info_measure_main_exp,2022.2.2,Win32,60.00960154,,,,,,,,,,,,,,,,,,masks/mask_001.jpg,,,,,,,,,,,,,,,,,,,,,,,,,,,,,,,,,,,,,,,,,,,,,,,,0,2,2,0,1,,,,,,,,,,,,,,,,,,,,,,,,,,,,,,,,,,,,,,,,,
123524,001,2022-11-21_24h52.21.572,Info_measure_main_exp,2022.2.2,Win32,60.00960154,,,,,,,,,,,,,,,,,,masks/mask_002.jpg,,,,,,,,,,,,,,,,,,,,,,,,,,,,,,,,,,,,,,,,,,,,,,,,0,3,3,1,1,,,,,,,,,,,,,,,,,,,,,,,,,,,,,,,,,,,,,,,,,
123524,001,2022-11-21_24h52.21.572,Info_measure_main_exp,2022.2.2,Win32,60.00960154,,,,,,,,,,,,,,,,,,masks/mask_005.jpg,,,,,,,,,,,,,,,,,,,,,,,,,,,,,,,,,,,,,,,,,,,,,,,,0,4,4,4,1,,,,,,,,,,,,,,,,,,,,,,,,,,,,,,,,,,,,,,,,,
123524,001,2022-11-21_24h52.21.572,Info_measure_main_exp,2022.2.2,Win32,60.00960154,,,,,,,,,,,,,,,,,,,,,,,,,,,,,,1,4.3835,1,,,,,,,,,,,,1,131,5,5,2250,1,absent_patch/patch0002250.jpg,present_patch/cong_131_5_a.jpg,,,,,,,,,,,,,,,,,,,,-0.206481481,0.037962963,1,0,0,response7disk,27,0.010185185,-0.00462963,1,0,0,center_square,0,26,26,5,1,,,,,,,,,,,,,,,,,,,,,,,
123524,001,2022-11-21_24h52.21.572,Info_measure_main_exp,2022.2.2,Win32,60.00960154,,,,,,,,,,,,,,,,,,masks/mask_002.jpg,,,,,,,,,,,,,,,,,,,,,,,,,,,,,,,,,,,,,,,,,,,0,0,0,1,1,,,,,,,,,,,,,,,,,,,,,,,,,,,,,,,,,,,,,,,,,,,,,,
123524,001,2022-11-21_24h52.21.572,Info_measure_main_exp,2022.2.2,Win32,60.00960154,,,,,,,,,,,,,,,,,,masks/mask_005.jpg,,,,,,,,,,,,,,,,,,,,,,,,,,,,,,,,,,,,,,,,,,,0,1,1,4,1,,,,,,,,,,,,,,,,,,,,,,,,,,,,,,,,,,,,,,,,,,,,,,
123524,001,2022-11-21_24h52.21.572,Info_measure_main_exp,2022.2.2,Win32,60.00960154,,,,,,,,,,,,,,,,,,masks/mask_004.jpg,,,,,,,,,,,,,,,,,,,,,,,,,,,,,,,,,,,,,,,,,,,0,2,2,3,1,,,,,,,,,,,,,,,,,,,,,,,,,,,,,,,,,,,,,,,,,,,,,,
123524,001,2022-11-21_24h52.21.572,Info_measure_main_exp,2022.2.2,Win32,60.00960154,,,,,,,,,,,,,,,,,,masks/mask_001.jpg,,,,,,,,,,,,,,,,,,,,,,,,,,,,,,,,,,,,,,,,,,,0,3,3,0,1,,,,,,,,,,,,,,,,,,,,,,,,,,,,,,,,,,,,,,,,,,,,,,
123524,001,2022-11-21_24h52.21.572,Info_measure_main_exp,2022.2.2,Win32,60.00960154,,,,,,,,,,,,,,,,,,masks/mask_003.jpg,,,,,,,,,,,,,,,,,,,,,,,,,,,,,,,,,,,,,,,,,,,0,4,4,2,1,,,,,,,,,,,,,,,,,,,,,,,,,,,,,,,,,,,,,,,,,,,,,,
123524,001,2022-11-21_24h52.21.572,Info_measure_main_exp,2022.2.2,Win32,60.00960154,,,,,,,,,,,,,,,,,,masks/mask_002.jpg,,,,,,,,,,,,,,,,,,,,,,,,,,,,,,,,,,,,,,,,,,,,,,,,0,0,0,1,1,,,,,,,,,,,,,,,,,,,,,,,,,,,,,,,,,,,,,,,,,
123524,001,2022-11-21_24h52.21.572,Info_measure_main_exp,2022.2.2,Win32,60.00960154,,,,,,,,,,,,,,,,,,masks/mask_004.jpg,,,,,,,,,,,,,,,,,,,,,,,,,,,,,,,,,,,,,,,,,,,,,,,,0,1,1,3,1,,,,,,,,,,,,,,,,,,,,,,,,,,,,,,,,,,,,,,,,,
123524,001,2022-11-21_24h52.21.572,Info_measure_main_exp,2022.2.2,Win32,60.00960154,,,,,,,,,,,,,,,,,,masks/mask_001.jpg,,,,,,,,,,,,,,,,,,,,,,,,,,,,,,,,,,,,,,,,,,,,,,,,0,2,2,0,1,,,,,,,,,,,,,,,,,,,,,,,,,,,,,,,,,,,,,,,,,
123524,001,2022-11-21_24h52.21.572,Info_measure_main_exp,2022.2.2,Win32,60.00960154,,,,,,,,,,,,,,,,,,masks/mask_003.jpg,,,,,,,,,,,,,,,,,,,,,,,,,,,,,,,,,,,,,,,,,,,,,,,,0,3,3,2,1,,,,,,,,,,,,,,,,,,,,,,,,,,,,,,,,,,,,,,,,,
123524,001,2022-11-21_24h52.21.572,Info_measure_main_exp,2022.2.2,Win32,60.00960154,,,,,,,,,,,,,,,,,,masks/mask_005.jpg,,,,,,,,,,,,,,,,,,,,,,,,,,,,,,,,,,,,,,,,,,,,,,,,0,4,4,4,1,,,,,,,,,,,,,,,,,,,,,,,,,,,,,,,,,,,,,,,,,
123524,001,2022-11-21_24h52.21.572,Info_measure_main_exp,2022.2.2,Win32,60.00960154,,,,,,,,,,,,,,,,,,,,,,,,,,,,,,2,4.1728,1,,,,,,,,,,,,0,131,5,5,2274,2250,absent_patch/patch0002274.jpg,absent_patch/patch0002250.jpg,,,,,,,,,,,,,,,,,,,,-0.12037037,-0.052777778,1,0,0,response5disk,28,-0.005555556,0.002777778,1,0,0,center_square,0,27,27,28,1,,,,,,,,,,,,,,,,,,,,,,,
123524,001,2022-11-21_24h52.21.572,Info_measure_main_exp,2022.2.2,Win32,60.00960154,,,,,,,,,,,,,,,,,,masks/mask_005.jpg,,,,,,,,,,,,,,,,,,,,,,,,,,,,,,,,,,,,,,,,,,,0,0,0,4,1,,,,,,,,,,,,,,,,,,,,,,,,,,,,,,,,,,,,,,,,,,,,,,
123524,001,2022-11-21_24h52.21.572,Info_measure_main_exp,2022.2.2,Win32,60.00960154,,,,,,,,,,,,,,,,,,masks/mask_003.jpg,,,,,,,,,,,,,,,,,,,,,,,,,,,,,,,,,,,,,,,,,,,0,1,1,2,1,,,,,,,,,,,,,,,,,,,,,,,,,,,,,,,,,,,,,,,,,,,,,,
123524,001,2022-11-21_24h52.21.572,Info_measure_main_exp,2022.2.2,Win32,60.00960154,,,,,,,,,,,,,,,,,,masks/mask_002.jpg,,,,,,,,,,,,,,,,,,,,,,,,,,,,,,,,,,,,,,,,,,,0,2,2,1,1,,,,,,,,,,,,,,,,,,,,,,,,,,,,,,,,,,,,,,,,,,,,,,
123524,001,2022-11-21_24h52.21.572,Info_measure_main_exp,2022.2.2,Win32,60.00960154,,,,,,,,,,,,,,,,,,masks/mask_001.jpg,,,,,,,,,,,,,,,,,,,,,,,,,,,,,,,,,,,,,,,,,,,0,3,3,0,1,,,,,,,,,,,,,,,,,,,,,,,,,,,,,,,,,,,,,,,,,,,,,,
123524,001,2022-11-21_24h52.21.572,Info_measure_main_exp,2022.2.2,Win32,60.00960154,,,,,,,,,,,,,,,,,,masks/mask_004.jpg,,,,,,,,,,,,,,,,,,,,,,,,,,,,,,,,,,,,,,,,,,,0,4,4,3,1,,,,,,,,,,,,,,,,,,,,,,,,,,,,,,,,,,,,,,,,,,,,,,
123524,001,2022-11-21_24h52.21.572,Info_measure_main_exp,2022.2.2,Win32,60.00960154,,,,,,,,,,,,,,,,,,masks/mask_001.jpg,,,,,,,,,,,,,,,,,,,,,,,,,,,,,,,,,,,,,,,,,,,,,,,,0,0,0,0,1,,,,,,,,,,,,,,,,,,,,,,,,,,,,,,,,,,,,,,,,,
123524,001,2022-11-21_24h52.21.572,Info_measure_main_exp,2022.2.2,Win32,60.00960154,,,,,,,,,,,,,,,,,,masks/mask_003.jpg,,,,,,,,,,,,,,,,,,,,,,,,,,,,,,,,,,,,,,,,,,,,,,,,0,1,1,2,1,,,,,,,,,,,,,,,,,,,,,,,,,,,,,,,,,,,,,,,,,
123524,001,2022-11-21_24h52.21.572,Info_measure_main_exp,2022.2.2,Win32,60.00960154,,,,,,,,,,,,,,,,,,masks/mask_005.jpg,,,,,,,,,,,,,,,,,,,,,,,,,,,,,,,,,,,,,,,,,,,,,,,,0,2,2,4,1,,,,,,,,,,,,,,,,,,,,,,,,,,,,,,,,,,,,,,,,,
123524,001,2022-11-21_24h52.21.572,Info_measure_main_exp,2022.2.2,Win32,60.00960154,,,,,,,,,,,,,,,,,,masks/mask_002.jpg,,,,,,,,,,,,,,,,,,,,,,,,,,,,,,,,,,,,,,,,,,,,,,,,0,3,3,1,1,,,,,,,,,,,,,,,,,,,,,,,,,,,,,,,,,,,,,,,,,
123524,001,2022-11-21_24h52.21.572,Info_measure_main_exp,2022.2.2,Win32,60.00960154,,,,,,,,,,,,,,,,,,masks/mask_004.jpg,,,,,,,,,,,,,,,,,,,,,,,,,,,,,,,,,,,,,,,,,,,,,,,,0,4,4,3,1,,,,,,,,,,,,,,,,,,,,,,,,,,,,,,,,,,,,,,,,,
123524,001,2022-11-21_24h52.21.572,Info_measure_main_exp,2022.2.2,Win32,60.00960154,,,,,,,,,,,,,,,,,,,,,,,,,,,,,,2,2.864,1,,,,,,,,,,,,0,131,5,5,1950,2082,absent_patch/patch0001950.jpg,absent_patch/patch0002082.jpg,,,,,,,,,,,,,,,,,,,,-0.106481481,-0.052777778,1,0,0,response5disk,29,-0.017592593,0.012037037,1,0,0,center_square,0,28,28,12,1,,,,,,,,,,,,,,,,,,,,,,,
123524,001,2022-11-21_24h52.21.572,Info_measure_main_exp,2022.2.2,Win32,60.00960154,,,,,,,,,,,,,,,,,,masks/mask_001.jpg,,,,,,,,,,,,,,,,,,,,,,,,,,,,,,,,,,,,,,,,,,,0,0,0,0,1,,,,,,,,,,,,,,,,,,,,,,,,,,,,,,,,,,,,,,,,,,,,,,
123524,001,2022-11-21_24h52.21.572,Info_measure_main_exp,2022.2.2,Win32,60.00960154,,,,,,,,,,,,,,,,,,masks/mask_005.jpg,,,,,,,,,,,,,,,,,,,,,,,,,,,,,,,,,,,,,,,,,,,0,1,1,4,1,,,,,,,,,,,,,,,,,,,,,,,,,,,,,,,,,,,,,,,,,,,,,,
123524,001,2022-11-21_24h52.21.572,Info_measure_main_exp,2022.2.2,Win32,60.00960154,,,,,,,,,,,,,,,,,,masks/mask_002.jpg,,,,,,,,,,,,,,,,,,,,,,,,,,,,,,,,,,,,,,,,,,,0,2,2,1,1,,,,,,,,,,,,,,,,,,,,,,,,,,,,,,,,,,,,,,,,,,,,,,
123524,001,2022-11-21_24h52.21.572,Info_measure_main_exp,2022.2.2,Win32,60.00960154,,,,,,,,,,,,,,,,,,masks/mask_004.jpg,,,,,,,,,,,,,,,,,,,,,,,,,,,,,,,,,,,,,,,,,,,0,3,3,3,1,,,,,,,,,,,,,,,,,,,,,,,,,,,,,,,,,,,,,,,,,,,,,,
123524,001,2022-11-21_24h52.21.572,Info_measure_main_exp,2022.2.2,Win32,60.00960154,,,,,,,,,,,,,,,,,,masks/mask_003.jpg,,,,,,,,,,,,,,,,,,,,,,,,,,,,,,,,,,,,,,,,,,,0,4,4,2,1,,,,,,,,,,,,,,,,,,,,,,,,,,,,,,,,,,,,,,,,,,,,,,
123524,001,2022-11-21_24h52.21.572,Info_measure_main_exp,2022.2.2,Win32,60.00960154,,,,,,,,,,,,,,,,,,masks/mask_002.jpg,,,,,,,,,,,,,,,,,,,,,,,,,,,,,,,,,,,,,,,,,,,,,,,,0,0,0,1,1,,,,,,,,,,,,,,,,,,,,,,,,,,,,,,,,,,,,,,,,,
123524,001,2022-11-21_24h52.21.572,Info_measure_main_exp,2022.2.2,Win32,60.00960154,,,,,,,,,,,,,,,,,,masks/mask_005.jpg,,,,,,,,,,,,,,,,,,,,,,,,,,,,,,,,,,,,,,,,,,,,,,,,0,1,1,4,1,,,,,,,,,,,,,,,,,,,,,,,,,,,,,,,,,,,,,,,,,
123524,001,2022-11-21_24h52.21.572,Info_measure_main_exp,2022.2.2,Win32,60.00960154,,,,,,,,,,,,,,,,,,masks/mask_001.jpg,,,,,,,,,,,,,,,,,,,,,,,,,,,,,,,,,,,,,,,,,,,,,,,,0,2,2,0,1,,,,,,,,,,,,,,,,,,,,,,,,,,,,,,,,,,,,,,,,,
123524,001,2022-11-21_24h52.21.572,Info_measure_main_exp,2022.2.2,Win32,60.00960154,,,,,,,,,,,,,,,,,,masks/mask_003.jpg,,,,,,,,,,,,,,,,,,,,,,,,,,,,,,,,,,,,,,,,,,,,,,,,0,3,3,2,1,,,,,,,,,,,,,,,,,,,,,,,,,,,,,,,,,,,,,,,,,
123524,001,2022-11-21_24h52.21.572,Info_measure_main_exp,2022.2.2,Win32,60.00960154,,,,,,,,,,,,,,,,,,masks/mask_004.jpg,,,,,,,,,,,,,,,,,,,,,,,,,,,,,,,,,,,,,,,,,,,,,,,,0,4,4,3,1,,,,,,,,,,,,,,,,,,,,,,,,,,,,,,,,,,,,,,,,,
123524,001,2022-11-21_24h52.21.572,Info_measure_main_exp,2022.2.2,Win32,60.00960154,,,,,,,,,,,,,,,,,,,,,,,,,,,,,,2,5.404,1,,,,,,,,,,,,0,131,5,5,2178,1986,absent_patch/patch0002178.jpg,absent_patch/patch0001986.jpg,,,,,,,,,,,,,,,,,,,,-0.17037037,-0.060185185,1,0,0,response5disk,30,0.013888889,0.007407407,1,0,0,center_square,0,29,29,46,1,,,,,,,,,,,,,,,,,,,,,,,
123524,001,2022-11-21_24h52.21.572,Info_measure_main_exp,2022.2.2,Win32,60.00960154,,,,,,,,,,,,,,,,,,masks/mask_002.jpg,,,,,,,,,,,,,,,,,,,,,,,,,,,,,,,,,,,,,,,,,,,0,0,0,1,1,,,,,,,,,,,,,,,,,,,,,,,,,,,,,,,,,,,,,,,,,,,,,,
123524,001,2022-11-21_24h52.21.572,Info_measure_main_exp,2022.2.2,Win32,60.00960154,,,,,,,,,,,,,,,,,,masks/mask_005.jpg,,,,,,,,,,,,,,,,,,,,,,,,,,,,,,,,,,,,,,,,,,,0,1,1,4,1,,,,,,,,,,,,,,,,,,,,,,,,,,,,,,,,,,,,,,,,,,,,,,
123524,001,2022-11-21_24h52.21.572,Info_measure_main_exp,2022.2.2,Win32,60.00960154,,,,,,,,,,,,,,,,,,masks/mask_004.jpg,,,,,,,,,,,,,,,,,,,,,,,,,,,,,,,,,,,,,,,,,,,0,2,2,3,1,,,,,,,,,,,,,,,,,,,,,,,,,,,,,,,,,,,,,,,,,,,,,,
123524,001,2022-11-21_24h52.21.572,Info_measure_main_exp,2022.2.2,Win32,60.00960154,,,,,,,,,,,,,,,,,,masks/mask_003.jpg,,,,,,,,,,,,,,,,,,,,,,,,,,,,,,,,,,,,,,,,,,,0,3,3,2,1,,,,,,,,,,,,,,,,,,,,,,,,,,,,,,,,,,,,,,,,,,,,,,
123524,001,2022-11-21_24h52.21.572,Info_measure_main_exp,2022.2.2,Win32,60.00960154,,,,,,,,,,,,,,,,,,masks/mask_001.jpg,,,,,,,,,,,,,,,,,,,,,,,,,,,,,,,,,,,,,,,,,,,0,4,4,0,1,,,,,,,,,,,,,,,,,,,,,,,,,,,,,,,,,,,,,,,,,,,,,,
123524,001,2022-11-21_24h52.21.572,Info_measure_main_exp,2022.2.2,Win32,60.00960154,,,,,,,,,,,,,,,,,,masks/mask_004.jpg,,,,,,,,,,,,,,,,,,,,,,,,,,,,,,,,,,,,,,,,,,,,,,,,0,0,0,3,1,,,,,,,,,,,,,,,,,,,,,,,,,,,,,,,,,,,,,,,,,
123524,001,2022-11-21_24h52.21.572,Info_measure_main_exp,2022.2.2,Win32,60.00960154,,,,,,,,,,,,,,,,,,masks/mask_002.jpg,,,,,,,,,,,,,,,,,,,,,,,,,,,,,,,,,,,,,,,,,,,,,,,,0,1,1,1,1,,,,,,,,,,,,,,,,,,,,,,,,,,,,,,,,,,,,,,,,,
123524,001,2022-11-21_24h52.21.572,Info_measure_main_exp,2022.2.2,Win32,60.00960154,,,,,,,,,,,,,,,,,,masks/mask_003.jpg,,,,,,,,,,,,,,,,,,,,,,,,,,,,,,,,,,,,,,,,,,,,,,,,0,2,2,2,1,,,,,,,,,,,,,,,,,,,,,,,,,,,,,,,,,,,,,,,,,
123524,001,2022-11-21_24h52.21.572,Info_measure_main_exp,2022.2.2,Win32,60.00960154,,,,,,,,,,,,,,,,,,masks/mask_005.jpg,,,,,,,,,,,,,,,,,,,,,,,,,,,,,,,,,,,,,,,,,,,,,,,,0,3,3,4,1,,,,,,,,,,,,,,,,,,,,,,,,,,,,,,,,,,,,,,,,,
123524,001,2022-11-21_24h52.21.572,Info_measure_main_exp,2022.2.2,Win32,60.00960154,,,,,,,,,,,,,,,,,,masks/mask_001.jpg,,,,,,,,,,,,,,,,,,,,,,,,,,,,,,,,,,,,,,,,,,,,,,,,0,4,4,0,1,,,,,,,,,,,,,,,,,,,,,,,,,,,,,,,,,,,,,,,,,
123524,001,2022-11-21_24h52.21.572,Info_measure_main_exp,2022.2.2,Win32,60.00960154,,,,,,,,,,,,,,,,,,,,,,,,,,,,,,3,0.8213,1,,,,,,,,,,,,0,131,5,5,1974,1974,absent_patch/patch0001974.jpg,absent_patch/patch0001974.jpg,,,,,,,,,,,,,,,,,,,,-0.037037037,-0.134259259,1,0,0,response5disk,31,0.00462963,0.003703704,1,0,0,center_square,0,30,30,113,1,,,,,,,,,,,,,,,,,,,,,,,
123524,001,2022-11-21_24h52.21.572,Info_measure_main_exp,2022.2.2,Win32,60.00960154,,,,,,,,,,,,,,,,,,masks/mask_003.jpg,,,,,,,,,,,,,,,,,,,,,,,,,,,,,,,,,,,,,,,,,,,0,0,0,2,1,,,,,,,,,,,,,,,,,,,,,,,,,,,,,,,,,,,,,,,,,,,,,,
123524,001,2022-11-21_24h52.21.572,Info_measure_main_exp,2022.2.2,Win32,60.00960154,,,,,,,,,,,,,,,,,,masks/mask_004.jpg,,,,,,,,,,,,,,,,,,,,,,,,,,,,,,,,,,,,,,,,,,,0,1,1,3,1,,,,,,,,,,,,,,,,,,,,,,,,,,,,,,,,,,,,,,,,,,,,,,
123524,001,2022-11-21_24h52.21.572,Info_measure_main_exp,2022.2.2,Win32,60.00960154,,,,,,,,,,,,,,,,,,masks/mask_002.jpg,,,,,,,,,,,,,,,,,,,,,,,,,,,,,,,,,,,,,,,,,,,0,2,2,1,1,,,,,,,,,,,,,,,,,,,,,,,,,,,,,,,,,,,,,,,,,,,,,,
123524,001,2022-11-21_24h52.21.572,Info_measure_main_exp,2022.2.2,Win32,60.00960154,,,,,,,,,,,,,,,,,,masks/mask_001.jpg,,,,,,,,,,,,,,,,,,,,,,,,,,,,,,,,,,,,,,,,,,,0,3,3,0,1,,,,,,,,,,,,,,,,,,,,,,,,,,,,,,,,,,,,,,,,,,,,,,
123524,001,2022-11-21_24h52.21.572,Info_measure_main_exp,2022.2.2,Win32,60.00960154,,,,,,,,,,,,,,,,,,masks/mask_005.jpg,,,,,,,,,,,,,,,,,,,,,,,,,,,,,,,,,,,,,,,,,,,0,4,4,4,1,,,,,,,,,,,,,,,,,,,,,,,,,,,,,,,,,,,,,,,,,,,,,,
123524,001,2022-11-21_24h52.21.572,Info_measure_main_exp,2022.2.2,Win32,60.00960154,,,,,,,,,,,,,,,,,,masks/mask_003.jpg,,,,,,,,,,,,,,,,,,,,,,,,,,,,,,,,,,,,,,,,,,,,,,,,0,0,0,2,1,,,,,,,,,,,,,,,,,,,,,,,,,,,,,,,,,,,,,,,,,
123524,001,2022-11-21_24h52.21.572,Info_measure_main_exp,2022.2.2,Win32,60.00960154,,,,,,,,,,,,,,,,,,masks/mask_004.jpg,,,,,,,,,,,,,,,,,,,,,,,,,,,,,,,,,,,,,,,,,,,,,,,,0,1,1,3,1,,,,,,,,,,,,,,,,,,,,,,,,,,,,,,,,,,,,,,,,,
123524,001,2022-11-21_24h52.21.572,Info_measure_main_exp,2022.2.2,Win32,60.00960154,,,,,,,,,,,,,,,,,,masks/mask_001.jpg,,,,,,,,,,,,,,,,,,,,,,,,,,,,,,,,,,,,,,,,,,,,,,,,0,2,2,0,1,,,,,,,,,,,,,,,,,,,,,,,,,,,,,,,,,,,,,,,,,
123524,001,2022-11-21_24h52.21.572,Info_measure_main_exp,2022.2.2,Win32,60.00960154,,,,,,,,,,,,,,,,,,masks/mask_005.jpg,,,,,,,,,,,,,,,,,,,,,,,,,,,,,,,,,,,,,,,,,,,,,,,,0,3,3,4,1,,,,,,,,,,,,,,,,,,,,,,,,,,,,,,,,,,,,,,,,,
123524,001,2022-11-21_24h52.21.572,Info_measure_main_exp,2022.2.2,Win32,60.00960154,,,,,,,,,,,,,,,,,,masks/mask_002.jpg,,,,,,,,,,,,,,,,,,,,,,,,,,,,,,,,,,,,,,,,,,,,,,,,0,4,4,1,1,,,,,,,,,,,,,,,,,,,,,,,,,,,,,,,,,,,,,,,,,
123524,001,2022-11-21_24h52.21.572,Info_measure_main_exp,2022.2.2,Win32,60.00960154,,,,,,,,,,,,,,,,,,,,,,,,,,,,,,3,0.4167,1,,,,,,,,,,,,0,131,5,5,2274,2142,absent_patch/patch0002274.jpg,absent_patch/patch0002142.jpg,,,,,,,,,,,,,,,,,,,,-0.059259259,-0.144444444,1,0,0,response5disk,32,0.003703704,0.002777778,1,0,0,center_square,0,31,31,75,1,,,,,,,,,,,,,,,,,,,,,,,
123524,001,2022-11-21_24h52.21.572,Info_measure_main_exp,2022.2.2,Win32,60.00960154,,,,,,,,,,,,,,,,,,masks/mask_005.jpg,,,,,,,,,,,,,,,,,,,,,,,,,,,,,,,,,,,,,,,,,,,0,0,0,4,1,,,,,,,,,,,,,,,,,,,,,,,,,,,,,,,,,,,,,,,,,,,,,,
123524,001,2022-11-21_24h52.21.572,Info_measure_main_exp,2022.2.2,Win32,60.00960154,,,,,,,,,,,,,,,,,,masks/mask_001.jpg,,,,,,,,,,,,,,,,,,,,,,,,,,,,,,,,,,,,,,,,,,,0,1,1,0,1,,,,,,,,,,,,,,,,,,,,,,,,,,,,,,,,,,,,,,,,,,,,,,
123524,001,2022-11-21_24h52.21.572,Info_measure_main_exp,2022.2.2,Win32,60.00960154,,,,,,,,,,,,,,,,,,masks/mask_004.jpg,,,,,,,,,,,,,,,,,,,,,,,,,,,,,,,,,,,,,,,,,,,0,2,2,3,1,,,,,,,,,,,,,,,,,,,,,,,,,,,,,,,,,,,,,,,,,,,,,,
123524,001,2022-11-21_24h52.21.572,Info_measure_main_exp,2022.2.2,Win32,60.00960154,,,,,,,,,,,,,,,,,,masks/mask_003.jpg,,,,,,,,,,,,,,,,,,,,,,,,,,,,,,,,,,,,,,,,,,,0,3,3,2,1,,,,,,,,,,,,,,,,,,,,,,,,,,,,,,,,,,,,,,,,,,,,,,
123524,001,2022-11-21_24h52.21.572,Info_measure_main_exp,2022.2.2,Win32,60.00960154,,,,,,,,,,,,,,,,,,masks/mask_002.jpg,,,,,,,,,,,,,,,,,,,,,,,,,,,,,,,,,,,,,,,,,,,0,4,4,1,1,,,,,,,,,,,,,,,,,,,,,,,,,,,,,,,,,,,,,,,,,,,,,,
123524,001,2022-11-21_24h52.21.572,Info_measure_main_exp,2022.2.2,Win32,60.00960154,,,,,,,,,,,,,,,,,,masks/mask_001.jpg,,,,,,,,,,,,,,,,,,,,,,,,,,,,,,,,,,,,,,,,,,,,,,,,0,0,0,0,1,,,,,,,,,,,,,,,,,,,,,,,,,,,,,,,,,,,,,,,,,
123524,001,2022-11-21_24h52.21.572,Info_measure_main_exp,2022.2.2,Win32,60.00960154,,,,,,,,,,,,,,,,,,masks/mask_002.jpg,,,,,,,,,,,,,,,,,,,,,,,,,,,,,,,,,,,,,,,,,,,,,,,,0,1,1,1,1,,,,,,,,,,,,,,,,,,,,,,,,,,,,,,,,,,,,,,,,,
123524,001,2022-11-21_24h52.21.572,Info_measure_main_exp,2022.2.2,Win32,60.00960154,,,,,,,,,,,,,,,,,,masks/mask_005.jpg,,,,,,,,,,,,,,,,,,,,,,,,,,,,,,,,,,,,,,,,,,,,,,,,0,2,2,4,1,,,,,,,,,,,,,,,,,,,,,,,,,,,,,,,,,,,,,,,,,
123524,001,2022-11-21_24h52.21.572,Info_measure_main_exp,2022.2.2,Win32,60.00960154,,,,,,,,,,,,,,,,,,masks/mask_004.jpg,,,,,,,,,,,,,,,,,,,,,,,,,,,,,,,,,,,,,,,,,,,,,,,,0,3,3,3,1,,,,,,,,,,,,,,,,,,,,,,,,,,,,,,,,,,,,,,,,,
123524,001,2022-11-21_24h52.21.572,Info_measure_main_exp,2022.2.2,Win32,60.00960154,,,,,,,,,,,,,,,,,,masks/mask_003.jpg,,,,,,,,,,,,,,,,,,,,,,,,,,,,,,,,,,,,,,,,,,,,,,,,0,4,4,2,1,,,,,,,,,,,,,,,,,,,,,,,,,,,,,,,,,,,,,,,,,
123524,001,2022-11-21_24h52.21.572,Info_measure_main_exp,2022.2.2,Win32,60.00960154,,,,,,,,,,,,,,,,,,,,,,,,,,,,,,2,0.4742,1,,,,,,,,,,,,0,131,5,5,2250,1950,absent_patch/patch0002250.jpg,absent_patch/patch0001950.jpg,,,,,,,,,,,,,,,,,,,,-0.097222222,-0.074074074,1,0,0,response5disk,33,0.011111111,0.000925926,1,0,0,center_square,0,32,32,16,1,,,,,,,,,,,,,,,,,,,,,,,
123524,001,2022-11-21_24h52.21.572,Info_measure_main_exp,2022.2.2,Win32,60.00960154,,,,,,,,,,,,,,,,,,masks/mask_003.jpg,,,,,,,,,,,,,,,,,,,,,,,,,,,,,,,,,,,,,,,,,,,0,0,0,2,1,,,,,,,,,,,,,,,,,,,,,,,,,,,,,,,,,,,,,,,,,,,,,,
123524,001,2022-11-21_24h52.21.572,Info_measure_main_exp,2022.2.2,Win32,60.00960154,,,,,,,,,,,,,,,,,,masks/mask_004.jpg,,,,,,,,,,,,,,,,,,,,,,,,,,,,,,,,,,,,,,,,,,,0,1,1,3,1,,,,,,,,,,,,,,,,,,,,,,,,,,,,,,,,,,,,,,,,,,,,,,
123524,001,2022-11-21_24h52.21.572,Info_measure_main_exp,2022.2.2,Win32,60.00960154,,,,,,,,,,,,,,,,,,masks/mask_001.jpg,,,,,,,,,,,,,,,,,,,,,,,,,,,,,,,,,,,,,,,,,,,0,2,2,0,1,,,,,,,,,,,,,,,,,,,,,,,,,,,,,,,,,,,,,,,,,,,,,,
123524,001,2022-11-21_24h52.21.572,Info_measure_main_exp,2022.2.2,Win32,60.00960154,,,,,,,,,,,,,,,,,,masks/mask_005.jpg,,,,,,,,,,,,,,,,,,,,,,,,,,,,,,,,,,,,,,,,,,,0,3,3,4,1,,,,,,,,,,,,,,,,,,,,,,,,,,,,,,,,,,,,,,,,,,,,,,
123524,001,2022-11-21_24h52.21.572,Info_measure_main_exp,2022.2.2,Win32,60.00960154,,,,,,,,,,,,,,,,,,masks/mask_002.jpg,,,,,,,,,,,,,,,,,,,,,,,,,,,,,,,,,,,,,,,,,,,0,4,4,1,1,,,,,,,,,,,,,,,,,,,,,,,,,,,,,,,,,,,,,,,,,,,,,,
123524,001,2022-11-21_24h52.21.572,Info_measure_main_exp,2022.2.2,Win32,60.00960154,,,,,,,,,,,,,,,,,,masks/mask_004.jpg,,,,,,,,,,,,,,,,,,,,,,,,,,,,,,,,,,,,,,,,,,,,,,,,0,0,0,3,1,,,,,,,,,,,,,,,,,,,,,,,,,,,,,,,,,,,,,,,,,
123524,001,2022-11-21_24h52.21.572,Info_measure_main_exp,2022.2.2,Win32,60.00960154,,,,,,,,,,,,,,,,,,masks/mask_003.jpg,,,,,,,,,,,,,,,,,,,,,,,,,,,,,,,,,,,,,,,,,,,,,,,,0,1,1,2,1,,,,,,,,,,,,,,,,,,,,,,,,,,,,,,,,,,,,,,,,,
123524,001,2022-11-21_24h52.21.572,Info_measure_main_exp,2022.2.2,Win32,60.00960154,,,,,,,,,,,,,,,,,,masks/mask_005.jpg,,,,,,,,,,,,,,,,,,,,,,,,,,,,,,,,,,,,,,,,,,,,,,,,0,2,2,4,1,,,,,,,,,,,,,,,,,,,,,,,,,,,,,,,,,,,,,,,,,
123524,001,2022-11-21_24h52.21.572,Info_measure_main_exp,2022.2.2,Win32,60.00960154,,,,,,,,,,,,,,,,,,masks/mask_001.jpg,,,,,,,,,,,,,,,,,,,,,,,,,,,,,,,,,,,,,,,,,,,,,,,,0,3,3,0,1,,,,,,,,,,,,,,,,,,,,,,,,,,,,,,,,,,,,,,,,,
123524,001,2022-11-21_24h52.21.572,Info_measure_main_exp,2022.2.2,Win32,60.00960154,,,,,,,,,,,,,,,,,,masks/mask_002.jpg,,,,,,,,,,,,,,,,,,,,,,,,,,,,,,,,,,,,,,,,,,,,,,,,0,4,4,1,1,,,,,,,,,,,,,,,,,,,,,,,,,,,,,,,,,,,,,,,,,
123524,001,2022-11-21_24h52.21.572,Info_measure_main_exp,2022.2.2,Win32,60.00960154,,,,,,,,,,,,,,,,,,,,,,,,,,,,,,2,0.6833,1,,,,,,,,,,,,0,131,5,5,2166,2166,absent_patch/patch0002166.jpg,absent_patch/patch0002166.jpg,,,,,,,,,,,,,,,,,,,,-0.149074074,-0.080555556,1,0,0,response5disk,34,0.008333333,0.012962963,1,0,0,center_square,0,33,33,42,1,,,,,,,,,,,,,,,,,,,,,,,
123524,001,2022-11-21_24h52.21.572,Info_measure_main_exp,2022.2.2,Win32,60.00960154,,,,,,,,,,,,,,,,,,masks/mask_002.jpg,,,,,,,,,,,,,,,,,,,,,,,,,,,,,,,,,,,,,,,,,,,0,0,0,1,1,,,,,,,,,,,,,,,,,,,,,,,,,,,,,,,,,,,,,,,,,,,,,,
123524,001,2022-11-21_24h52.21.572,Info_measure_main_exp,2022.2.2,Win32,60.00960154,,,,,,,,,,,,,,,,,,masks/mask_001.jpg,,,,,,,,,,,,,,,,,,,,,,,,,,,,,,,,,,,,,,,,,,,0,1,1,0,1,,,,,,,,,,,,,,,,,,,,,,,,,,,,,,,,,,,,,,,,,,,,,,
123524,001,2022-11-21_24h52.21.572,Info_measure_main_exp,2022.2.2,Win32,60.00960154,,,,,,,,,,,,,,,,,,masks/mask_004.jpg,,,,,,,,,,,,,,,,,,,,,,,,,,,,,,,,,,,,,,,,,,,0,2,2,3,1,,,,,,,,,,,,,,,,,,,,,,,,,,,,,,,,,,,,,,,,,,,,,,
123524,001,2022-11-21_24h52.21.572,Info_measure_main_exp,2022.2.2,Win32,60.00960154,,,,,,,,,,,,,,,,,,masks/mask_005.jpg,,,,,,,,,,,,,,,,,,,,,,,,,,,,,,,,,,,,,,,,,,,0,3,3,4,1,,,,,,,,,,,,,,,,,,,,,,,,,,,,,,,,,,,,,,,,,,,,,,
123524,001,2022-11-21_24h52.21.572,Info_measure_main_exp,2022.2.2,Win32,60.00960154,,,,,,,,,,,,,,,,,,masks/mask_003.jpg,,,,,,,,,,,,,,,,,,,,,,,,,,,,,,,,,,,,,,,,,,,0,4,4,2,1,,,,,,,,,,,,,,,,,,,,,,,,,,,,,,,,,,,,,,,,,,,,,,
123524,001,2022-11-21_24h52.21.572,Info_measure_main_exp,2022.2.2,Win32,60.00960154,,,,,,,,,,,,,,,,,,masks/mask_001.jpg,,,,,,,,,,,,,,,,,,,,,,,,,,,,,,,,,,,,,,,,,,,,,,,,0,0,0,0,1,,,,,,,,,,,,,,,,,,,,,,,,,,,,,,,,,,,,,,,,,
123524,001,2022-11-21_24h52.21.572,Info_measure_main_exp,2022.2.2,Win32,60.00960154,,,,,,,,,,,,,,,,,,masks/mask_005.jpg,,,,,,,,,,,,,,,,,,,,,,,,,,,,,,,,,,,,,,,,,,,,,,,,0,1,1,4,1,,,,,,,,,,,,,,,,,,,,,,,,,,,,,,,,,,,,,,,,,
123524,001,2022-11-21_24h52.21.572,Info_measure_main_exp,2022.2.2,Win32,60.00960154,,,,,,,,,,,,,,,,,,masks/mask_002.jpg,,,,,,,,,,,,,,,,,,,,,,,,,,,,,,,,,,,,,,,,,,,,,,,,0,2,2,1,1,,,,,,,,,,,,,,,,,,,,,,,,,,,,,,,,,,,,,,,,,
123524,001,2022-11-21_24h52.21.572,Info_measure_main_exp,2022.2.2,Win32,60.00960154,,,,,,,,,,,,,,,,,,masks/mask_003.jpg,,,,,,,,,,,,,,,,,,,,,,,,,,,,,,,,,,,,,,,,,,,,,,,,0,3,3,2,1,,,,,,,,,,,,,,,,,,,,,,,,,,,,,,,,,,,,,,,,,
