participant,session,date,expName,psychopyVersion,OS,frameRate,space_press_continue.keys,space_press_continue.rt,space_press_continue_2.keys,space_press_continue_2.rt,space_press_continue_3.keys,space_press_continue_3.rt,space_press_continue_4.keys,space_press_continue_4.rt,space_press_continue_5.keys,space_press_continue_5.rt,space_press_continue_6.keys,space_press_continue_6.rt,prac_mask_loop_1.thisRepN,prac_mask_loop_1.thisTrialN,prac_mask_loop_1.thisN,prac_mask_loop_1.thisIndex,prac_mask_loop_1.ran,mask_name,prac_mask_loop_2.thisRepN,prac_mask_loop_2.thisTrialN,prac_mask_loop_2.thisN,prac_mask_loop_2.thisIndex,prac_mask_loop_2.ran,mouse_2.x,mouse_2.y,mouse_2.leftButton,mouse_2.midButton,mouse_2.rightButton,mouse_2.clicked_name,similarity,response_time,Pass,mouse_12.x,mouse_12.y,mouse_12.leftButton,mouse_12.midButton,mouse_12.rightButton,mouse_12.clicked_name,prac_loop.thisRepN,prac_loop.thisTrialN,prac_loop.thisN,prac_loop.thisIndex,prac_loop.ran,Pair_type,Image_num,Patch_1_loc,Patch_2_loc,Patch_1_info,Patch_2_info,Patch_1_name,Patch_2_name,mouse_1.x,mouse_1.y,mouse_1.leftButton,mouse_1.midButton,mouse_1.rightButton,mouse_1.time,mouse_1.clicked_name,space_press_continue_7.keys,mask_loop.thisRepN,mask_loop.thisTrialN,mask_loop.thisN,mask_loop.thisIndex,mask_loop.ran,mask_loop_2.thisRepN,mask_loop_2.thisTrialN,mask_loop_2.thisN,mask_loop_2.thisIndex,mask_loop_2.ran,mouse.x,mouse.y,mouse.leftButton,mouse.midButton,mouse.rightButton,mouse.clicked_name,trialNumber,mouse_11.x,mouse_11.y,mouse_11.leftButton,mouse_11.midButton,mouse_11.rightButton,mouse_11.clicked_name,first_pass_loop.thisRepN,first_pass_loop.thisTrialN,first_pass_loop.thisN,first_pass_loop.thisIndex,first_pass_loop.ran,mask_loop_3.thisRepN,mask_loop_3.thisTrialN,mask_loop_3.thisN,mask_loop_3.thisIndex,mask_loop_3.ran,mask_loop_4.thisRepN,mask_loop_4.thisTrialN,mask_loop_4.thisN,mask_loop_4.thisIndex,mask_loop_4.ran,mouse_3.x,mouse_3.y,mouse_3.leftButton,mouse_3.midButton,mouse_3.rightButton,mouse_3.clicked_name,double_pass_loop.thisRepN,double_pass_loop.thisTrialN,double_pass_loop.thisN,double_pass_loop.thisIndex,double_pass_loop.ran,space_exit.keys,space_exit.rt
138003,001,2022-11-20_21h18.55.012,Info_measure_main_exp,2022.2.2,Win32,59.92329818,,,,,,,,,,,,,,,,,,,,,,,,,,,,,,,,,,,,,,,,,,,,,,,,,,,,,,,,,,,,,,,,,,,,,,,,,,,,,,,,,,,,,,,,,,,,,,,,,,,,,,,,,,,,,,
138003,001,2022-11-20_21h18.55.012,Info_measure_main_exp,2022.2.2,Win32,59.92329818,,,,,,,,,,,,,,,,,,,,,,,,,,,,,,,,,,,,,,,,,,,,,,,,,,,,,,,,,,,,,,,,,,,,,,,,,,,,,,,,,,,,,,,,,,,,,,,,,,,,,,,,,,,,,,
138003,001,2022-11-20_21h18.55.012,Info_measure_main_exp,2022.2.2,Win32,59.92329818,space,1.4001,,,,,,,,,,,,,,,,,,,,,,,,,,,,,,,,,,,,,,,,,,,,,,,,,,,,,,,,,,,,,,,,,,,,,,,,,,,,,,,,,,,,,,,,,,,,,,,,,,,,,,,,,,,,
138003,001,2022-11-20_21h18.55.012,Info_measure_main_exp,2022.2.2,Win32,59.92329818,,,space,0.6855,,,,,,,,,,,,,,,,,,,,,,,,,,,,,,,,,,,,,,,,,,,,,,,,,,,,,,,,,,,,,,,,,,,,,,,,,,,,,,,,,,,,,,,,,,,,,,,,,,,,,,,,,,
138003,001,2022-11-20_21h18.55.012,Info_measure_main_exp,2022.2.2,Win32,59.92329818,,,,,space,0.277,,,,,,,,,,,,,,,,,,,,,,,,,,,,,,,,,,,,,,,,,,,,,,,,,,,,,,,,,,,,,,,,,,,,,,,,,,,,,,,,,,,,,,,,,,,,,,,,,,,,,,,,
138003,001,2022-11-20_21h18.55.012,Info_measure_main_exp,2022.2.2,Win32,59.92329818,,,,,,,space,0.1216,,,,,,,,,,,,,,,,,,,,,,,,,,,,,,,,,,,,,,,,,,,,,,,,,,,,,,,,,,,,,,,,,,,,,,,,,,,,,,,,,,,,,,,,,,,,,,,,,,,,,,
138003,001,2022-11-20_21h18.55.012,Info_measure_main_exp,2022.2.2,Win32,59.92329818,,,,,,,,,space,0.2044,,,,,,,,,,,,,,,,,,,,,,,,,,,,,,,,,,,,,,,,,,,,,,,,,,,,,,,,,,,,,,,,,,,,,,,,,,,,,,,,,,,,,,,,,,,,,,,,,,,,
138003,001,2022-11-20_21h18.55.012,Info_measure_main_exp,2022.2.2,Win32,59.92329818,,,,,,,,,,,space,0.4889,,,,,,,,,,,,,,,,,,,,,,,,,,,,,,,,,,,,,,,,,,,,,,,,,,,,,,,,,,,,,,,,,,,,,,,,,,,,,,,,,,,,,,,,,,,,,,,,,,
138003,001,2022-11-20_21h18.55.012,Info_measure_main_exp,2022.2.2,Win32,59.92329818,,,,,,,,,,,,,0,0,0,1,1,masks/mask_002.jpg,,,,,,,,,,,,,,,,,,,,,,,,,,,,,,,,,,,,,,,,,,,,,,,,,,,,,,,,,,,,,,,,,,,,,,,,,,,,,,,,,,,,,,,,,,,,
138003,001,2022-11-20_21h18.55.012,Info_measure_main_exp,2022.2.2,Win32,59.92329818,,,,,,,,,,,,,0,1,1,0,1,masks/mask_001.jpg,,,,,,,,,,,,,,,,,,,,,,,,,,,,,,,,,,,,,,,,,,,,,,,,,,,,,,,,,,,,,,,,,,,,,,,,,,,,,,,,,,,,,,,,,,,,
138003,001,2022-11-20_21h18.55.012,Info_measure_main_exp,2022.2.2,Win32,59.92329818,,,,,,,,,,,,,0,2,2,4,1,masks/mask_005.jpg,,,,,,,,,,,,,,,,,,,,,,,,,,,,,,,,,,,,,,,,,,,,,,,,,,,,,,,,,,,,,,,,,,,,,,,,,,,,,,,,,,,,,,,,,,,,
138003,001,2022-11-20_21h18.55.012,Info_measure_main_exp,2022.2.2,Win32,59.92329818,,,,,,,,,,,,,0,3,3,2,1,masks/mask_003.jpg,,,,,,,,,,,,,,,,,,,,,,,,,,,,,,,,,,,,,,,,,,,,,,,,,,,,,,,,,,,,,,,,,,,,,,,,,,,,,,,,,,,,,,,,,,,,
138003,001,2022-11-20_21h18.55.012,Info_measure_main_exp,2022.2.2,Win32,59.92329818,,,,,,,,,,,,,0,4,4,3,1,masks/mask_004.jpg,,,,,,,,,,,,,,,,,,,,,,,,,,,,,,,,,,,,,,,,,,,,,,,,,,,,,,,,,,,,,,,,,,,,,,,,,,,,,,,,,,,,,,,,,,,,
138003,001,2022-11-20_21h18.55.012,Info_measure_main_exp,2022.2.2,Win32,59.92329818,,,,,,,,,,,,,,,,,,masks/mask_003.jpg,0,0,0,2,1,,,,,,,,,,,,,,,,,,,,,,,,,,,,,,,,,,,,,,,,,,,,,,,,,,,,,,,,,,,,,,,,,,,,,,,,,,,,,,,,,,,,,,,
138003,001,2022-11-20_21h18.55.012,Info_measure_main_exp,2022.2.2,Win32,59.92329818,,,,,,,,,,,,,,,,,,masks/mask_002.jpg,0,1,1,1,1,,,,,,,,,,,,,,,,,,,,,,,,,,,,,,,,,,,,,,,,,,,,,,,,,,,,,,,,,,,,,,,,,,,,,,,,,,,,,,,,,,,,,,,
138003,001,2022-11-20_21h18.55.012,Info_measure_main_exp,2022.2.2,Win32,59.92329818,,,,,,,,,,,,,,,,,,masks/mask_004.jpg,0,2,2,3,1,,,,,,,,,,,,,,,,,,,,,,,,,,,,,,,,,,,,,,,,,,,,,,,,,,,,,,,,,,,,,,,,,,,,,,,,,,,,,,,,,,,,,,,
138003,001,2022-11-20_21h18.55.012,Info_measure_main_exp,2022.2.2,Win32,59.92329818,,,,,,,,,,,,,,,,,,masks/mask_001.jpg,0,3,3,0,1,,,,,,,,,,,,,,,,,,,,,,,,,,,,,,,,,,,,,,,,,,,,,,,,,,,,,,,,,,,,,,,,,,,,,,,,,,,,,,,,,,,,,,,
138003,001,2022-11-20_21h18.55.012,Info_measure_main_exp,2022.2.2,Win32,59.92329818,,,,,,,,,,,,,,,,,,masks/mask_005.jpg,0,4,4,4,1,,,,,,,,,,,,,,,,,,,,,,,,,,,,,,,,,,,,,,,,,,,,,,,,,,,,,,,,,,,,,,,,,,,,,,,,,,,,,,,,,,,,,,,
138003,001,2022-11-20_21h18.55.012,Info_measure_main_exp,2022.2.2,Win32,59.92329818,,,,,,,,,,,,,,,,,,,,,,,,0.040740755,0.078703704,1,0,0,response1disk,7,5.7372,1,0.013888889,0.008333312,1,0,0,center_square,0,0,0,1,1,0,131,5,5,2514,2490,prac_patch/patch0002514.jpg,prac_patch/patch0002490.jpg,,,,,,,,,,,,,,,,,,,,,,,,,,,,,,,,,,,,,,,,,,,,,,,,,,,,,,,,,,,
138003,001,2022-11-20_21h18.55.012,Info_measure_main_exp,2022.2.2,Win32,59.92329818,,,,,,,,,,,,,0,0,0,2,1,masks/mask_003.jpg,,,,,,,,,,,,,,,,,,,,,,,,,,,,,,,,,,,,,,,,,,,,,,,,,,,,,,,,,,,,,,,,,,,,,,,,,,,,,,,,,,,,,,,,,,,,
138003,001,2022-11-20_21h18.55.012,Info_measure_main_exp,2022.2.2,Win32,59.92329818,,,,,,,,,,,,,0,1,1,4,1,masks/mask_005.jpg,,,,,,,,,,,,,,,,,,,,,,,,,,,,,,,,,,,,,,,,,,,,,,,,,,,,,,,,,,,,,,,,,,,,,,,,,,,,,,,,,,,,,,,,,,,,
138003,001,2022-11-20_21h18.55.012,Info_measure_main_exp,2022.2.2,Win32,59.92329818,,,,,,,,,,,,,0,2,2,3,1,masks/mask_004.jpg,,,,,,,,,,,,,,,,,,,,,,,,,,,,,,,,,,,,,,,,,,,,,,,,,,,,,,,,,,,,,,,,,,,,,,,,,,,,,,,,,,,,,,,,,,,,
138003,001,2022-11-20_21h18.55.012,Info_measure_main_exp,2022.2.2,Win32,59.92329818,,,,,,,,,,,,,0,3,3,0,1,masks/mask_001.jpg,,,,,,,,,,,,,,,,,,,,,,,,,,,,,,,,,,,,,,,,,,,,,,,,,,,,,,,,,,,,,,,,,,,,,,,,,,,,,,,,,,,,,,,,,,,,
138003,001,2022-11-20_21h18.55.012,Info_measure_main_exp,2022.2.2,Win32,59.92329818,,,,,,,,,,,,,0,4,4,1,1,masks/mask_002.jpg,,,,,,,,,,,,,,,,,,,,,,,,,,,,,,,,,,,,,,,,,,,,,,,,,,,,,,,,,,,,,,,,,,,,,,,,,,,,,,,,,,,,,,,,,,,,
138003,001,2022-11-20_21h18.55.012,Info_measure_main_exp,2022.2.2,Win32,59.92329818,,,,,,,,,,,,,,,,,,masks/mask_004.jpg,0,0,0,3,1,,,,,,,,,,,,,,,,,,,,,,,,,,,,,,,,,,,,,,,,,,,,,,,,,,,,,,,,,,,,,,,,,,,,,,,,,,,,,,,,,,,,,,,
138003,001,2022-11-20_21h18.55.012,Info_measure_main_exp,2022.2.2,Win32,59.92329818,,,,,,,,,,,,,,,,,,masks/mask_002.jpg,0,1,1,1,1,,,,,,,,,,,,,,,,,,,,,,,,,,,,,,,,,,,,,,,,,,,,,,,,,,,,,,,,,,,,,,,,,,,,,,,,,,,,,,,,,,,,,,,
138003,001,2022-11-20_21h18.55.012,Info_measure_main_exp,2022.2.2,Win32,59.92329818,,,,,,,,,,,,,,,,,,masks/mask_003.jpg,0,2,2,2,1,,,,,,,,,,,,,,,,,,,,,,,,,,,,,,,,,,,,,,,,,,,,,,,,,,,,,,,,,,,,,,,,,,,,,,,,,,,,,,,,,,,,,,,
138003,001,2022-11-20_21h18.55.012,Info_measure_main_exp,2022.2.2,Win32,59.92329818,,,,,,,,,,,,,,,,,,masks/mask_001.jpg,0,3,3,0,1,,,,,,,,,,,,,,,,,,,,,,,,,,,,,,,,,,,,,,,,,,,,,,,,,,,,,,,,,,,,,,,,,,,,,,,,,,,,,,,,,,,,,,,
138003,001,2022-11-20_21h18.55.012,Info_measure_main_exp,2022.2.2,Win32,59.92329818,,,,,,,,,,,,,,,,,,masks/mask_005.jpg,0,4,4,4,1,,,,,,,,,,,,,,,,,,,,,,,,,,,,,,,,,,,,,,,,,,,,,,,,,,,,,,,,,,,,,,,,,,,,,,,,,,,,,,,,,,,,,,,
138003,001,2022-11-20_21h18.55.012,Info_measure_main_exp,2022.2.2,Win32,59.92329818,,,,,,,,,,,,,,,,,,,,,,,,0.093518504,0.03148146,1,0,0,response1disk,6,12.7015,1,-0.00462963,-0.013888889,1,0,0,center_square,0,1,1,0,1,0,131,5,5,2370,2406,prac_patch/patch0002370.jpg,prac_patch/patch0002406.jpg,,,,,,,,,,,,,,,,,,,,,,,,,,,,,,,,,,,,,,,,,,,,,,,,,,,,,,,,,,,
138003,001,2022-11-20_21h18.55.012,Info_measure_main_exp,2022.2.2,Win32,59.92329818,,,,,,,,,,,,,0,0,0,0,1,masks/mask_001.jpg,,,,,,,,,,,,,,,,,,,,,,,,,,,,,,,,,,,,,,,,,,,,,,,,,,,,,,,,,,,,,,,,,,,,,,,,,,,,,,,,,,,,,,,,,,,,
138003,001,2022-11-20_21h18.55.012,Info_measure_main_exp,2022.2.2,Win32,59.92329818,,,,,,,,,,,,,0,1,1,1,1,masks/mask_002.jpg,,,,,,,,,,,,,,,,,,,,,,,,,,,,,,,,,,,,,,,,,,,,,,,,,,,,,,,,,,,,,,,,,,,,,,,,,,,,,,,,,,,,,,,,,,,,
138003,001,2022-11-20_21h18.55.012,Info_measure_main_exp,2022.2.2,Win32,59.92329818,,,,,,,,,,,,,0,2,2,4,1,masks/mask_005.jpg,,,,,,,,,,,,,,,,,,,,,,,,,,,,,,,,,,,,,,,,,,,,,,,,,,,,,,,,,,,,,,,,,,,,,,,,,,,,,,,,,,,,,,,,,,,,
138003,001,2022-11-20_21h18.55.012,Info_measure_main_exp,2022.2.2,Win32,59.92329818,,,,,,,,,,,,,0,3,3,3,1,masks/mask_004.jpg,,,,,,,,,,,,,,,,,,,,,,,,,,,,,,,,,,,,,,,,,,,,,,,,,,,,,,,,,,,,,,,,,,,,,,,,,,,,,,,,,,,,,,,,,,,,
138003,001,2022-11-20_21h18.55.012,Info_measure_main_exp,2022.2.2,Win32,59.92329818,,,,,,,,,,,,,0,4,4,2,1,masks/mask_003.jpg,,,,,,,,,,,,,,,,,,,,,,,,,,,,,,,,,,,,,,,,,,,,,,,,,,,,,,,,,,,,,,,,,,,,,,,,,,,,,,,,,,,,,,,,,,,,
138003,001,2022-11-20_21h18.55.012,Info_measure_main_exp,2022.2.2,Win32,59.92329818,,,,,,,,,,,,,,,,,,masks/mask_001.jpg,0,0,0,0,1,,,,,,,,,,,,,,,,,,,,,,,,,,,,,,,,,,,,,,,,,,,,,,,,,,,,,,,,,,,,,,,,,,,,,,,,,,,,,,,,,,,,,,,
138003,001,2022-11-20_21h18.55.012,Info_measure_main_exp,2022.2.2,Win32,59.92329818,,,,,,,,,,,,,,,,,,masks/mask_002.jpg,0,1,1,1,1,,,,,,,,,,,,,,,,,,,,,,,,,,,,,,,,,,,,,,,,,,,,,,,,,,,,,,,,,,,,,,,,,,,,,,,,,,,,,,,,,,,,,,,
138003,001,2022-11-20_21h18.55.012,Info_measure_main_exp,2022.2.2,Win32,59.92329818,,,,,,,,,,,,,,,,,,masks/mask_004.jpg,0,2,2,3,1,,,,,,,,,,,,,,,,,,,,,,,,,,,,,,,,,,,,,,,,,,,,,,,,,,,,,,,,,,,,,,,,,,,,,,,,,,,,,,,,,,,,,,,
138003,001,2022-11-20_21h18.55.012,Info_measure_main_exp,2022.2.2,Win32,59.92329818,,,,,,,,,,,,,,,,,,masks/mask_005.jpg,0,3,3,4,1,,,,,,,,,,,,,,,,,,,,,,,,,,,,,,,,,,,,,,,,,,,,,,,,,,,,,,,,,,,,,,,,,,,,,,,,,,,,,,,,,,,,,,,
138003,001,2022-11-20_21h18.55.012,Info_measure_main_exp,2022.2.2,Win32,59.92329818,,,,,,,,,,,,,,,,,,masks/mask_003.jpg,0,4,4,2,1,,,,,,,,,,,,,,,,,,,,,,,,,,,,,,,,,,,,,,,,,,,,,,,,,,,,,,,,,,,,,,,,,,,,,,,,,,,,,,,,,,,,,,,
138003,001,2022-11-20_21h18.55.012,Info_measure_main_exp,2022.2.2,Win32,59.92329818,,,,,,,,,,,,,,,,,,,,,,,,-0.055555556,0.096296275,1,0,0,response7disk,0,20.1034,1,0.012962977,-0.013888889,1,0,0,center_square,0,2,2,2,1,0,131,5,5,2526,2526,prac_patch/patch0002526.jpg,prac_patch/patch0002526.jpg,,,,,,,,,,,,,,,,,,,,,,,,,,,,,,,,,,,,,,,,,,,,,,,,,,,,,,,,,,,
138003,001,2022-11-20_21h18.55.012,Info_measure_main_exp,2022.2.2,Win32,59.92329818,,,,,,,,,,,,,,,,,,,,,,,,,,,,,,,,,,,,,,,,,,,,,,,,,,,,0.012962977,-0.008333347,1,0,0,0.132,center_square,,,,,,,,,,,,,,,,,,,,,,,,,,,,,,,,,,,,,,,,,,,,,,,,,,,,
138003,001,2022-11-20_21h18.55.012,Info_measure_main_exp,2022.2.2,Win32,59.92329818,,,,,,,,,,,,,,,,,,masks/mask_001.jpg,,,,,,,,,,,,,,,,,,,,,,,,,,,,,,,,,,,,,,,,,,0,0,0,0,1,,,,,,,,,,,,,,,,,,,,,,,,,,,,,,,,,,,,,,,,,,,,,,
138003,001,2022-11-20_21h18.55.012,Info_measure_main_exp,2022.2.2,Win32,59.92329818,,,,,,,,,,,,,,,,,,masks/mask_002.jpg,,,,,,,,,,,,,,,,,,,,,,,,,,,,,,,,,,,,,,,,,,0,1,1,1,1,,,,,,,,,,,,,,,,,,,,,,,,,,,,,,,,,,,,,,,,,,,,,,
138003,001,2022-11-20_21h18.55.012,Info_measure_main_exp,2022.2.2,Win32,59.92329818,,,,,,,,,,,,,,,,,,masks/mask_005.jpg,,,,,,,,,,,,,,,,,,,,,,,,,,,,,,,,,,,,,,,,,,0,2,2,4,1,,,,,,,,,,,,,,,,,,,,,,,,,,,,,,,,,,,,,,,,,,,,,,
138003,001,2022-11-20_21h18.55.012,Info_measure_main_exp,2022.2.2,Win32,59.92329818,,,,,,,,,,,,,,,,,,masks/mask_003.jpg,,,,,,,,,,,,,,,,,,,,,,,,,,,,,,,,,,,,,,,,,,0,3,3,2,1,,,,,,,,,,,,,,,,,,,,,,,,,,,,,,,,,,,,,,,,,,,,,,
138003,001,2022-11-20_21h18.55.012,Info_measure_main_exp,2022.2.2,Win32,59.92329818,,,,,,,,,,,,,,,,,,masks/mask_004.jpg,,,,,,,,,,,,,,,,,,,,,,,,,,,,,,,,,,,,,,,,,,0,4,4,3,1,,,,,,,,,,,,,,,,,,,,,,,,,,,,,,,,,,,,,,,,,,,,,,
138003,001,2022-11-20_21h18.55.012,Info_measure_main_exp,2022.2.2,Win32,59.92329818,,,,,,,,,,,,,,,,,,masks/mask_004.jpg,,,,,,,,,,,,,,,,,,,,,,,,,,,,,,,,,,,,,,,,,,,,,,,0,0,0,3,1,,,,,,,,,,,,,,,,,,,,,,,,,,,,,,,,,,,,,,,,,
138003,001,2022-11-20_21h18.55.012,Info_measure_main_exp,2022.2.2,Win32,59.92329818,,,,,,,,,,,,,,,,,,masks/mask_005.jpg,,,,,,,,,,,,,,,,,,,,,,,,,,,,,,,,,,,,,,,,,,,,,,,0,1,1,4,1,,,,,,,,,,,,,,,,,,,,,,,,,,,,,,,,,,,,,,,,,
138003,001,2022-11-20_21h18.55.012,Info_measure_main_exp,2022.2.2,Win32,59.92329818,,,,,,,,,,,,,,,,,,masks/mask_002.jpg,,,,,,,,,,,,,,,,,,,,,,,,,,,,,,,,,,,,,,,,,,,,,,,0,2,2,1,1,,,,,,,,,,,,,,,,,,,,,,,,,,,,,,,,,,,,,,,,,
138003,001,2022-11-20_21h18.55.012,Info_measure_main_exp,2022.2.2,Win32,59.92329818,,,,,,,,,,,,,,,,,,masks/mask_001.jpg,,,,,,,,,,,,,,,,,,,,,,,,,,,,,,,,,,,,,,,,,,,,,,,0,3,3,0,1,,,,,,,,,,,,,,,,,,,,,,,,,,,,,,,,,,,,,,,,,
138003,001,2022-11-20_21h18.55.012,Info_measure_main_exp,2022.2.2,Win32,59.92329818,,,,,,,,,,,,,,,,,,masks/mask_003.jpg,,,,,,,,,,,,,,,,,,,,,,,,,,,,,,,,,,,,,,,,,,,,,,,0,4,4,2,1,,,,,,,,,,,,,,,,,,,,,,,,,,,,,,,,,,,,,,,,,
138003,001,2022-11-20_21h18.55.012,Info_measure_main_exp,2022.2.2,Win32,59.92329818,,,,,,,,,,,,,,,,,,,,,,,,,,,,,,6,0.6167,1,,,,,,,,,,,,0,131,5,5,2214,2142,absent_patch/patch0002214.jpg,absent_patch/patch0002142.jpg,,,,,,,,,,,,,,,,,,,0.086111139,0.052777785,1,0,0,response1disk,1,-0.014814801,0.000925912,1,0,0,center_square,0,0,0,102,1,,,,,,,,,,,,,,,,,,,,,,,
138003,001,2022-11-20_21h18.55.012,Info_measure_main_exp,2022.2.2,Win32,59.92329818,,,,,,,,,,,,,,,,,,masks/mask_001.jpg,,,,,,,,,,,,,,,,,,,,,,,,,,,,,,,,,,,,,,,,,,0,0,0,0,1,,,,,,,,,,,,,,,,,,,,,,,,,,,,,,,,,,,,,,,,,,,,,,
138003,001,2022-11-20_21h18.55.012,Info_measure_main_exp,2022.2.2,Win32,59.92329818,,,,,,,,,,,,,,,,,,masks/mask_005.jpg,,,,,,,,,,,,,,,,,,,,,,,,,,,,,,,,,,,,,,,,,,0,1,1,4,1,,,,,,,,,,,,,,,,,,,,,,,,,,,,,,,,,,,,,,,,,,,,,,
138003,001,2022-11-20_21h18.55.012,Info_measure_main_exp,2022.2.2,Win32,59.92329818,,,,,,,,,,,,,,,,,,masks/mask_004.jpg,,,,,,,,,,,,,,,,,,,,,,,,,,,,,,,,,,,,,,,,,,0,2,2,3,1,,,,,,,,,,,,,,,,,,,,,,,,,,,,,,,,,,,,,,,,,,,,,,
138003,001,2022-11-20_21h18.55.012,Info_measure_main_exp,2022.2.2,Win32,59.92329818,,,,,,,,,,,,,,,,,,masks/mask_002.jpg,,,,,,,,,,,,,,,,,,,,,,,,,,,,,,,,,,,,,,,,,,0,3,3,1,1,,,,,,,,,,,,,,,,,,,,,,,,,,,,,,,,,,,,,,,,,,,,,,
138003,001,2022-11-20_21h18.55.012,Info_measure_main_exp,2022.2.2,Win32,59.92329818,,,,,,,,,,,,,,,,,,masks/mask_003.jpg,,,,,,,,,,,,,,,,,,,,,,,,,,,,,,,,,,,,,,,,,,0,4,4,2,1,,,,,,,,,,,,,,,,,,,,,,,,,,,,,,,,,,,,,,,,,,,,,,
138003,001,2022-11-20_21h18.55.012,Info_measure_main_exp,2022.2.2,Win32,59.92329818,,,,,,,,,,,,,,,,,,masks/mask_002.jpg,,,,,,,,,,,,,,,,,,,,,,,,,,,,,,,,,,,,,,,,,,,,,,,0,0,0,1,1,,,,,,,,,,,,,,,,,,,,,,,,,,,,,,,,,,,,,,,,,
138003,001,2022-11-20_21h18.55.012,Info_measure_main_exp,2022.2.2,Win32,59.92329818,,,,,,,,,,,,,,,,,,masks/mask_005.jpg,,,,,,,,,,,,,,,,,,,,,,,,,,,,,,,,,,,,,,,,,,,,,,,0,1,1,4,1,,,,,,,,,,,,,,,,,,,,,,,,,,,,,,,,,,,,,,,,,
138003,001,2022-11-20_21h18.55.012,Info_measure_main_exp,2022.2.2,Win32,59.92329818,,,,,,,,,,,,,,,,,,masks/mask_004.jpg,,,,,,,,,,,,,,,,,,,,,,,,,,,,,,,,,,,,,,,,,,,,,,,0,2,2,3,1,,,,,,,,,,,,,,,,,,,,,,,,,,,,,,,,,,,,,,,,,
138003,001,2022-11-20_21h18.55.012,Info_measure_main_exp,2022.2.2,Win32,59.92329818,,,,,,,,,,,,,,,,,,masks/mask_003.jpg,,,,,,,,,,,,,,,,,,,,,,,,,,,,,,,,,,,,,,,,,,,,,,,0,3,3,2,1,,,,,,,,,,,,,,,,,,,,,,,,,,,,,,,,,,,,,,,,,
138003,001,2022-11-20_21h18.55.012,Info_measure_main_exp,2022.2.2,Win32,59.92329818,,,,,,,,,,,,,,,,,,masks/mask_001.jpg,,,,,,,,,,,,,,,,,,,,,,,,,,,,,,,,,,,,,,,,,,,,,,,0,4,4,0,1,,,,,,,,,,,,,,,,,,,,,,,,,,,,,,,,,,,,,,,,,
138003,001,2022-11-20_21h18.55.012,Info_measure_main_exp,2022.2.2,Win32,59.92329818,,,,,,,,,,,,,,,,,,,,,,,,,,,,,,6,0.3669,1,,,,,,,,,,,,1,131,5,5,2082,1,absent_patch/patch0002082.jpg,present_patch/cong_131_5_a.jpg,,,,,,,,,,,,,,,,,,,0.137037065,0.092592593,1,0,0,response1disk,2,-0.002777735,0.00462963,1,0,0,center_square,0,1,1,65,1,,,,,,,,,,,,,,,,,,,,,,,
138003,001,2022-11-20_21h18.55.012,Info_measure_main_exp,2022.2.2,Win32,59.92329818,,,,,,,,,,,,,,,,,,masks/mask_003.jpg,,,,,,,,,,,,,,,,,,,,,,,,,,,,,,,,,,,,,,,,,,0,0,0,2,1,,,,,,,,,,,,,,,,,,,,,,,,,,,,,,,,,,,,,,,,,,,,,,
138003,001,2022-11-20_21h18.55.012,Info_measure_main_exp,2022.2.2,Win32,59.92329818,,,,,,,,,,,,,,,,,,masks/mask_001.jpg,,,,,,,,,,,,,,,,,,,,,,,,,,,,,,,,,,,,,,,,,,0,1,1,0,1,,,,,,,,,,,,,,,,,,,,,,,,,,,,,,,,,,,,,,,,,,,,,,
138003,001,2022-11-20_21h18.55.012,Info_measure_main_exp,2022.2.2,Win32,59.92329818,,,,,,,,,,,,,,,,,,masks/mask_005.jpg,,,,,,,,,,,,,,,,,,,,,,,,,,,,,,,,,,,,,,,,,,0,2,2,4,1,,,,,,,,,,,,,,,,,,,,,,,,,,,,,,,,,,,,,,,,,,,,,,
138003,001,2022-11-20_21h18.55.012,Info_measure_main_exp,2022.2.2,Win32,59.92329818,,,,,,,,,,,,,,,,,,masks/mask_002.jpg,,,,,,,,,,,,,,,,,,,,,,,,,,,,,,,,,,,,,,,,,,0,3,3,1,1,,,,,,,,,,,,,,,,,,,,,,,,,,,,,,,,,,,,,,,,,,,,,,
138003,001,2022-11-20_21h18.55.012,Info_measure_main_exp,2022.2.2,Win32,59.92329818,,,,,,,,,,,,,,,,,,masks/mask_004.jpg,,,,,,,,,,,,,,,,,,,,,,,,,,,,,,,,,,,,,,,,,,0,4,4,3,1,,,,,,,,,,,,,,,,,,,,,,,,,,,,,,,,,,,,,,,,,,,,,,
138003,001,2022-11-20_21h18.55.012,Info_measure_main_exp,2022.2.2,Win32,59.92329818,,,,,,,,,,,,,,,,,,masks/mask_005.jpg,,,,,,,,,,,,,,,,,,,,,,,,,,,,,,,,,,,,,,,,,,,,,,,0,0,0,4,1,,,,,,,,,,,,,,,,,,,,,,,,,,,,,,,,,,,,,,,,,
138003,001,2022-11-20_21h18.55.012,Info_measure_main_exp,2022.2.2,Win32,59.92329818,,,,,,,,,,,,,,,,,,masks/mask_001.jpg,,,,,,,,,,,,,,,,,,,,,,,,,,,,,,,,,,,,,,,,,,,,,,,0,1,1,0,1,,,,,,,,,,,,,,,,,,,,,,,,,,,,,,,,,,,,,,,,,
138003,001,2022-11-20_21h18.55.012,Info_measure_main_exp,2022.2.2,Win32,59.92329818,,,,,,,,,,,,,,,,,,masks/mask_002.jpg,,,,,,,,,,,,,,,,,,,,,,,,,,,,,,,,,,,,,,,,,,,,,,,0,2,2,1,1,,,,,,,,,,,,,,,,,,,,,,,,,,,,,,,,,,,,,,,,,
138003,001,2022-11-20_21h18.55.012,Info_measure_main_exp,2022.2.2,Win32,59.92329818,,,,,,,,,,,,,,,,,,masks/mask_004.jpg,,,,,,,,,,,,,,,,,,,,,,,,,,,,,,,,,,,,,,,,,,,,,,,0,3,3,3,1,,,,,,,,,,,,,,,,,,,,,,,,,,,,,,,,,,,,,,,,,
138003,001,2022-11-20_21h18.55.012,Info_measure_main_exp,2022.2.2,Win32,59.92329818,,,,,,,,,,,,,,,,,,masks/mask_003.jpg,,,,,,,,,,,,,,,,,,,,,,,,,,,,,,,,,,,,,,,,,,,,,,,0,4,4,2,1,,,,,,,,,,,,,,,,,,,,,,,,,,,,,,,,,,,,,,,,,
138003,001,2022-11-20_21h18.55.012,Info_measure_main_exp,2022.2.2,Win32,59.92329818,,,,,,,,,,,,,,,,,,,,,,,,,,,,,,5,0.627,1,,,,,,,,,,,,0,131,5,5,2142,2238,absent_patch/patch0002142.jpg,absent_patch/patch0002238.jpg,,,,,,,,,,,,,,,,,,,0.102777764,-0.044444437,1,0,0,response3disk,3,-0.000925912,-0.0074074,1,0,0,center_square,0,2,2,101,1,,,,,,,,,,,,,,,,,,,,,,,
138003,001,2022-11-20_21h18.55.012,Info_measure_main_exp,2022.2.2,Win32,59.92329818,,,,,,,,,,,,,,,,,,masks/mask_003.jpg,,,,,,,,,,,,,,,,,,,,,,,,,,,,,,,,,,,,,,,,,,0,0,0,2,1,,,,,,,,,,,,,,,,,,,,,,,,,,,,,,,,,,,,,,,,,,,,,,
138003,001,2022-11-20_21h18.55.012,Info_measure_main_exp,2022.2.2,Win32,59.92329818,,,,,,,,,,,,,,,,,,masks/mask_002.jpg,,,,,,,,,,,,,,,,,,,,,,,,,,,,,,,,,,,,,,,,,,0,1,1,1,1,,,,,,,,,,,,,,,,,,,,,,,,,,,,,,,,,,,,,,,,,,,,,,
138003,001,2022-11-20_21h18.55.012,Info_measure_main_exp,2022.2.2,Win32,59.92329818,,,,,,,,,,,,,,,,,,masks/mask_001.jpg,,,,,,,,,,,,,,,,,,,,,,,,,,,,,,,,,,,,,,,,,,0,2,2,0,1,,,,,,,,,,,,,,,,,,,,,,,,,,,,,,,,,,,,,,,,,,,,,,
138003,001,2022-11-20_21h18.55.012,Info_measure_main_exp,2022.2.2,Win32,59.92329818,,,,,,,,,,,,,,,,,,masks/mask_005.jpg,,,,,,,,,,,,,,,,,,,,,,,,,,,,,,,,,,,,,,,,,,0,3,3,4,1,,,,,,,,,,,,,,,,,,,,,,,,,,,,,,,,,,,,,,,,,,,,,,
138003,001,2022-11-20_21h18.55.012,Info_measure_main_exp,2022.2.2,Win32,59.92329818,,,,,,,,,,,,,,,,,,masks/mask_004.jpg,,,,,,,,,,,,,,,,,,,,,,,,,,,,,,,,,,,,,,,,,,0,4,4,3,1,,,,,,,,,,,,,,,,,,,,,,,,,,,,,,,,,,,,,,,,,,,,,,
138003,001,2022-11-20_21h18.55.012,Info_measure_main_exp,2022.2.2,Win32,59.92329818,,,,,,,,,,,,,,,,,,masks/mask_004.jpg,,,,,,,,,,,,,,,,,,,,,,,,,,,,,,,,,,,,,,,,,,,,,,,0,0,0,3,1,,,,,,,,,,,,,,,,,,,,,,,,,,,,,,,,,,,,,,,,,
138003,001,2022-11-20_21h18.55.012,Info_measure_main_exp,2022.2.2,Win32,59.92329818,,,,,,,,,,,,,,,,,,masks/mask_002.jpg,,,,,,,,,,,,,,,,,,,,,,,,,,,,,,,,,,,,,,,,,,,,,,,0,1,1,1,1,,,,,,,,,,,,,,,,,,,,,,,,,,,,,,,,,,,,,,,,,
138003,001,2022-11-20_21h18.55.012,Info_measure_main_exp,2022.2.2,Win32,59.92329818,,,,,,,,,,,,,,,,,,masks/mask_003.jpg,,,,,,,,,,,,,,,,,,,,,,,,,,,,,,,,,,,,,,,,,,,,,,,0,2,2,2,1,,,,,,,,,,,,,,,,,,,,,,,,,,,,,,,,,,,,,,,,,
138003,001,2022-11-20_21h18.55.012,Info_measure_main_exp,2022.2.2,Win32,59.92329818,,,,,,,,,,,,,,,,,,masks/mask_005.jpg,,,,,,,,,,,,,,,,,,,,,,,,,,,,,,,,,,,,,,,,,,,,,,,0,3,3,4,1,,,,,,,,,,,,,,,,,,,,,,,,,,,,,,,,,,,,,,,,,
138003,001,2022-11-20_21h18.55.012,Info_measure_main_exp,2022.2.2,Win32,59.92329818,,,,,,,,,,,,,,,,,,masks/mask_001.jpg,,,,,,,,,,,,,,,,,,,,,,,,,,,,,,,,,,,,,,,,,,,,,,,0,4,4,0,1,,,,,,,,,,,,,,,,,,,,,,,,,,,,,,,,,,,,,,,,,
138003,001,2022-11-20_21h18.55.012,Info_measure_main_exp,2022.2.2,Win32,59.92329818,,,,,,,,,,,,,,,,,,,,,,,,,,,,,,6,0.6777,1,,,,,,,,,,,,0,131,5,5,2190,1986,absent_patch/patch0002190.jpg,absent_patch/patch0001986.jpg,,,,,,,,,,,,,,,,,,,0.126851894,0.02870369,1,0,0,response1disk,4,-0.001851824,-0.009259259,1,0,0,center_square,0,3,3,111,1,,,,,,,,,,,,,,,,,,,,,,,
138003,001,2022-11-20_21h18.55.012,Info_measure_main_exp,2022.2.2,Win32,59.92329818,,,,,,,,,,,,,,,,,,masks/mask_001.jpg,,,,,,,,,,,,,,,,,,,,,,,,,,,,,,,,,,,,,,,,,,0,0,0,0,1,,,,,,,,,,,,,,,,,,,,,,,,,,,,,,,,,,,,,,,,,,,,,,
138003,001,2022-11-20_21h18.55.012,Info_measure_main_exp,2022.2.2,Win32,59.92329818,,,,,,,,,,,,,,,,,,masks/mask_002.jpg,,,,,,,,,,,,,,,,,,,,,,,,,,,,,,,,,,,,,,,,,,0,1,1,1,1,,,,,,,,,,,,,,,,,,,,,,,,,,,,,,,,,,,,,,,,,,,,,,
138003,001,2022-11-20_21h18.55.012,Info_measure_main_exp,2022.2.2,Win32,59.92329818,,,,,,,,,,,,,,,,,,masks/mask_004.jpg,,,,,,,,,,,,,,,,,,,,,,,,,,,,,,,,,,,,,,,,,,0,2,2,3,1,,,,,,,,,,,,,,,,,,,,,,,,,,,,,,,,,,,,,,,,,,,,,,
138003,001,2022-11-20_21h18.55.012,Info_measure_main_exp,2022.2.2,Win32,59.92329818,,,,,,,,,,,,,,,,,,masks/mask_005.jpg,,,,,,,,,,,,,,,,,,,,,,,,,,,,,,,,,,,,,,,,,,0,3,3,4,1,,,,,,,,,,,,,,,,,,,,,,,,,,,,,,,,,,,,,,,,,,,,,,
138003,001,2022-11-20_21h18.55.012,Info_measure_main_exp,2022.2.2,Win32,59.92329818,,,,,,,,,,,,,,,,,,masks/mask_003.jpg,,,,,,,,,,,,,,,,,,,,,,,,,,,,,,,,,,,,,,,,,,0,4,4,2,1,,,,,,,,,,,,,,,,,,,,,,,,,,,,,,,,,,,,,,,,,,,,,,
138003,001,2022-11-20_21h18.55.012,Info_measure_main_exp,2022.2.2,Win32,59.92329818,,,,,,,,,,,,,,,,,,masks/mask_005.jpg,,,,,,,,,,,,,,,,,,,,,,,,,,,,,,,,,,,,,,,,,,,,,,,0,0,0,4,1,,,,,,,,,,,,,,,,,,,,,,,,,,,,,,,,,,,,,,,,,
138003,001,2022-11-20_21h18.55.012,Info_measure_main_exp,2022.2.2,Win32,59.92329818,,,,,,,,,,,,,,,,,,masks/mask_001.jpg,,,,,,,,,,,,,,,,,,,,,,,,,,,,,,,,,,,,,,,,,,,,,,,0,1,1,0,1,,,,,,,,,,,,,,,,,,,,,,,,,,,,,,,,,,,,,,,,,
138003,001,2022-11-20_21h18.55.012,Info_measure_main_exp,2022.2.2,Win32,59.92329818,,,,,,,,,,,,,,,,,,masks/mask_003.jpg,,,,,,,,,,,,,,,,,,,,,,,,,,,,,,,,,,,,,,,,,,,,,,,0,2,2,2,1,,,,,,,,,,,,,,,,,,,,,,,,,,,,,,,,,,,,,,,,,
138003,001,2022-11-20_21h18.55.012,Info_measure_main_exp,2022.2.2,Win32,59.92329818,,,,,,,,,,,,,,,,,,masks/mask_002.jpg,,,,,,,,,,,,,,,,,,,,,,,,,,,,,,,,,,,,,,,,,,,,,,,0,3,3,1,1,,,,,,,,,,,,,,,,,,,,,,,,,,,,,,,,,,,,,,,,,
138003,001,2022-11-20_21h18.55.012,Info_measure_main_exp,2022.2.2,Win32,59.92329818,,,,,,,,,,,,,,,,,,masks/mask_004.jpg,,,,,,,,,,,,,,,,,,,,,,,,,,,,,,,,,,,,,,,,,,,,,,,0,4,4,3,1,,,,,,,,,,,,,,,,,,,,,,,,,,,,,,,,,,,,,,,,,
138003,001,2022-11-20_21h18.55.012,Info_measure_main_exp,2022.2.2,Win32,59.92329818,,,,,,,,,,,,,,,,,,,,,,,,,,,,,,7,0.3332,1,,,,,,,,,,,,0,131,5,5,2154,2190,absent_patch/patch0002154.jpg,absent_patch/patch0002190.jpg,,,,,,,,,,,,,,,,,,,0.071296339,0.113888882,1,0,0,response1disk,5,-0.008333347,-0.008333347,1,0,0,center_square,0,4,4,68,1,,,,,,,,,,,,,,,,,,,,,,,
138003,001,2022-11-20_21h18.55.012,Info_measure_main_exp,2022.2.2,Win32,59.92329818,,,,,,,,,,,,,,,,,,masks/mask_004.jpg,,,,,,,,,,,,,,,,,,,,,,,,,,,,,,,,,,,,,,,,,,0,0,0,3,1,,,,,,,,,,,,,,,,,,,,,,,,,,,,,,,,,,,,,,,,,,,,,,
138003,001,2022-11-20_21h18.55.012,Info_measure_main_exp,2022.2.2,Win32,59.92329818,,,,,,,,,,,,,,,,,,masks/mask_003.jpg,,,,,,,,,,,,,,,,,,,,,,,,,,,,,,,,,,,,,,,,,,0,1,1,2,1,,,,,,,,,,,,,,,,,,,,,,,,,,,,,,,,,,,,,,,,,,,,,,
138003,001,2022-11-20_21h18.55.012,Info_measure_main_exp,2022.2.2,Win32,59.92329818,,,,,,,,,,,,,,,,,,masks/mask_001.jpg,,,,,,,,,,,,,,,,,,,,,,,,,,,,,,,,,,,,,,,,,,0,2,2,0,1,,,,,,,,,,,,,,,,,,,,,,,,,,,,,,,,,,,,,,,,,,,,,,
138003,001,2022-11-20_21h18.55.012,Info_measure_main_exp,2022.2.2,Win32,59.92329818,,,,,,,,,,,,,,,,,,masks/mask_002.jpg,,,,,,,,,,,,,,,,,,,,,,,,,,,,,,,,,,,,,,,,,,0,3,3,1,1,,,,,,,,,,,,,,,,,,,,,,,,,,,,,,,,,,,,,,,,,,,,,,
138003,001,2022-11-20_21h18.55.012,Info_measure_main_exp,2022.2.2,Win32,59.92329818,,,,,,,,,,,,,,,,,,masks/mask_005.jpg,,,,,,,,,,,,,,,,,,,,,,,,,,,,,,,,,,,,,,,,,,0,4,4,4,1,,,,,,,,,,,,,,,,,,,,,,,,,,,,,,,,,,,,,,,,,,,,,,
138003,001,2022-11-20_21h18.55.012,Info_measure_main_exp,2022.2.2,Win32,59.92329818,,,,,,,,,,,,,,,,,,masks/mask_001.jpg,,,,,,,,,,,,,,,,,,,,,,,,,,,,,,,,,,,,,,,,,,,,,,,0,0,0,0,1,,,,,,,,,,,,,,,,,,,,,,,,,,,,,,,,,,,,,,,,,
138003,001,2022-11-20_21h18.55.012,Info_measure_main_exp,2022.2.2,Win32,59.92329818,,,,,,,,,,,,,,,,,,masks/mask_003.jpg,,,,,,,,,,,,,,,,,,,,,,,,,,,,,,,,,,,,,,,,,,,,,,,0,1,1,2,1,,,,,,,,,,,,,,,,,,,,,,,,,,,,,,,,,,,,,,,,,
138003,001,2022-11-20_21h18.55.012,Info_measure_main_exp,2022.2.2,Win32,59.92329818,,,,,,,,,,,,,,,,,,masks/mask_002.jpg,,,,,,,,,,,,,,,,,,,,,,,,,,,,,,,,,,,,,,,,,,,,,,,0,2,2,1,1,,,,,,,,,,,,,,,,,,,,,,,,,,,,,,,,,,,,,,,,,
138003,001,2022-11-20_21h18.55.012,Info_measure_main_exp,2022.2.2,Win32,59.92329818,,,,,,,,,,,,,,,,,,masks/mask_005.jpg,,,,,,,,,,,,,,,,,,,,,,,,,,,,,,,,,,,,,,,,,,,,,,,0,3,3,4,1,,,,,,,,,,,,,,,,,,,,,,,,,,,,,,,,,,,,,,,,,
138003,001,2022-11-20_21h18.55.012,Info_measure_main_exp,2022.2.2,Win32,59.92329818,,,,,,,,,,,,,,,,,,masks/mask_004.jpg,,,,,,,,,,,,,,,,,,,,,,,,,,,,,,,,,,,,,,,,,,,,,,,0,4,4,3,1,,,,,,,,,,,,,,,,,,,,,,,,,,,,,,,,,,,,,,,,,
138003,001,2022-11-20_21h18.55.012,Info_measure_main_exp,2022.2.2,Win32,59.92329818,,,,,,,,,,,,,,,,,,,,,,,,,,,,,,4,1.1499,1,,,,,,,,,,,,0,131,5,5,2166,2154,absent_patch/patch0002166.jpg,absent_patch/patch0002154.jpg,,,,,,,,,,,,,,,,,,,0.022222236,-0.098148134,1,0,0,response3disk,6,0.006481524,0.005555541,1,0,0,center_square,0,5,5,79,1,,,,,,,,,,,,,,,,,,,,,,,
138003,001,2022-11-20_21h18.55.012,Info_measure_main_exp,2022.2.2,Win32,59.92329818,,,,,,,,,,,,,,,,,,masks/mask_004.jpg,,,,,,,,,,,,,,,,,,,,,,,,,,,,,,,,,,,,,,,,,,0,0,0,3,1,,,,,,,,,,,,,,,,,,,,,,,,,,,,,,,,,,,,,,,,,,,,,,
138003,001,2022-11-20_21h18.55.012,Info_measure_main_exp,2022.2.2,Win32,59.92329818,,,,,,,,,,,,,,,,,,masks/mask_002.jpg,,,,,,,,,,,,,,,,,,,,,,,,,,,,,,,,,,,,,,,,,,0,1,1,1,1,,,,,,,,,,,,,,,,,,,,,,,,,,,,,,,,,,,,,,,,,,,,,,
138003,001,2022-11-20_21h18.55.012,Info_measure_main_exp,2022.2.2,Win32,59.92329818,,,,,,,,,,,,,,,,,,masks/mask_001.jpg,,,,,,,,,,,,,,,,,,,,,,,,,,,,,,,,,,,,,,,,,,0,2,2,0,1,,,,,,,,,,,,,,,,,,,,,,,,,,,,,,,,,,,,,,,,,,,,,,
138003,001,2022-11-20_21h18.55.012,Info_measure_main_exp,2022.2.2,Win32,59.92329818,,,,,,,,,,,,,,,,,,masks/mask_005.jpg,,,,,,,,,,,,,,,,,,,,,,,,,,,,,,,,,,,,,,,,,,0,3,3,4,1,,,,,,,,,,,,,,,,,,,,,,,,,,,,,,,,,,,,,,,,,,,,,,
138003,001,2022-11-20_21h18.55.012,Info_measure_main_exp,2022.2.2,Win32,59.92329818,,,,,,,,,,,,,,,,,,masks/mask_003.jpg,,,,,,,,,,,,,,,,,,,,,,,,,,,,,,,,,,,,,,,,,,0,4,4,2,1,,,,,,,,,,,,,,,,,,,,,,,,,,,,,,,,,,,,,,,,,,,,,,
138003,001,2022-11-20_21h18.55.012,Info_measure_main_exp,2022.2.2,Win32,59.92329818,,,,,,,,,,,,,,,,,,masks/mask_003.jpg,,,,,,,,,,,,,,,,,,,,,,,,,,,,,,,,,,,,,,,,,,,,,,,0,0,0,2,1,,,,,,,,,,,,,,,,,,,,,,,,,,,,,,,,,,,,,,,,,
138003,001,2022-11-20_21h18.55.012,Info_measure_main_exp,2022.2.2,Win32,59.92329818,,,,,,,,,,,,,,,,,,masks/mask_001.jpg,,,,,,,,,,,,,,,,,,,,,,,,,,,,,,,,,,,,,,,,,,,,,,,0,1,1,0,1,,,,,,,,,,,,,,,,,,,,,,,,,,,,,,,,,,,,,,,,,
138003,001,2022-11-20_21h18.55.012,Info_measure_main_exp,2022.2.2,Win32,59.92329818,,,,,,,,,,,,,,,,,,masks/mask_005.jpg,,,,,,,,,,,,,,,,,,,,,,,,,,,,,,,,,,,,,,,,,,,,,,,0,2,2,4,1,,,,,,,,,,,,,,,,,,,,,,,,,,,,,,,,,,,,,,,,,
138003,001,2022-11-20_21h18.55.012,Info_measure_main_exp,2022.2.2,Win32,59.92329818,,,,,,,,,,,,,,,,,,masks/mask_002.jpg,,,,,,,,,,,,,,,,,,,,,,,,,,,,,,,,,,,,,,,,,,,,,,,0,3,3,1,1,,,,,,,,,,,,,,,,,,,,,,,,,,,,,,,,,,,,,,,,,
138003,001,2022-11-20_21h18.55.012,Info_measure_main_exp,2022.2.2,Win32,59.92329818,,,,,,,,,,,,,,,,,,masks/mask_004.jpg,,,,,,,,,,,,,,,,,,,,,,,,,,,,,,,,,,,,,,,,,,,,,,,0,4,4,3,1,,,,,,,,,,,,,,,,,,,,,,,,,,,,,,,,,,,,,,,,,
138003,001,2022-11-20_21h18.55.012,Info_measure_main_exp,2022.2.2,Win32,59.92329818,,,,,,,,,,,,,,,,,,,,,,,,,,,,,,2,1.45,1,,,,,,,,,,,,0,131,5,5,2298,2190,absent_patch/patch0002298.jpg,absent_patch/patch0002190.jpg,,,,,,,,,,,,,,,,,,,-0.112962935,-0.060185185,1,0,0,response5disk,7,-0.009259259,-0.009259259,1,0,0,center_square,0,6,6,20,1,,,,,,,,,,,,,,,,,,,,,,,
138003,001,2022-11-20_21h18.55.012,Info_measure_main_exp,2022.2.2,Win32,59.92329818,,,,,,,,,,,,,,,,,,masks/mask_005.jpg,,,,,,,,,,,,,,,,,,,,,,,,,,,,,,,,,,,,,,,,,,0,0,0,4,1,,,,,,,,,,,,,,,,,,,,,,,,,,,,,,,,,,,,,,,,,,,,,,
138003,001,2022-11-20_21h18.55.012,Info_measure_main_exp,2022.2.2,Win32,59.92329818,,,,,,,,,,,,,,,,,,masks/mask_004.jpg,,,,,,,,,,,,,,,,,,,,,,,,,,,,,,,,,,,,,,,,,,0,1,1,3,1,,,,,,,,,,,,,,,,,,,,,,,,,,,,,,,,,,,,,,,,,,,,,,
138003,001,2022-11-20_21h18.55.012,Info_measure_main_exp,2022.2.2,Win32,59.92329818,,,,,,,,,,,,,,,,,,masks/mask_001.jpg,,,,,,,,,,,,,,,,,,,,,,,,,,,,,,,,,,,,,,,,,,0,2,2,0,1,,,,,,,,,,,,,,,,,,,,,,,,,,,,,,,,,,,,,,,,,,,,,,
138003,001,2022-11-20_21h18.55.012,Info_measure_main_exp,2022.2.2,Win32,59.92329818,,,,,,,,,,,,,,,,,,masks/mask_003.jpg,,,,,,,,,,,,,,,,,,,,,,,,,,,,,,,,,,,,,,,,,,0,3,3,2,1,,,,,,,,,,,,,,,,,,,,,,,,,,,,,,,,,,,,,,,,,,,,,,
138003,001,2022-11-20_21h18.55.012,Info_measure_main_exp,2022.2.2,Win32,59.92329818,,,,,,,,,,,,,,,,,,masks/mask_002.jpg,,,,,,,,,,,,,,,,,,,,,,,,,,,,,,,,,,,,,,,,,,0,4,4,1,1,,,,,,,,,,,,,,,,,,,,,,,,,,,,,,,,,,,,,,,,,,,,,,
138003,001,2022-11-20_21h18.55.012,Info_measure_main_exp,2022.2.2,Win32,59.92329818,,,,,,,,,,,,,,,,,,masks/mask_003.jpg,,,,,,,,,,,,,,,,,,,,,,,,,,,,,,,,,,,,,,,,,,,,,,,0,0,0,2,1,,,,,,,,,,,,,,,,,,,,,,,,,,,,,,,,,,,,,,,,,
138003,001,2022-11-20_21h18.55.012,Info_measure_main_exp,2022.2.2,Win32,59.92329818,,,,,,,,,,,,,,,,,,masks/mask_005.jpg,,,,,,,,,,,,,,,,,,,,,,,,,,,,,,,,,,,,,,,,,,,,,,,0,1,1,4,1,,,,,,,,,,,,,,,,,,,,,,,,,,,,,,,,,,,,,,,,,
138003,001,2022-11-20_21h18.55.012,Info_measure_main_exp,2022.2.2,Win32,59.92329818,,,,,,,,,,,,,,,,,,masks/mask_001.jpg,,,,,,,,,,,,,,,,,,,,,,,,,,,,,,,,,,,,,,,,,,,,,,,0,2,2,0,1,,,,,,,,,,,,,,,,,,,,,,,,,,,,,,,,,,,,,,,,,
138003,001,2022-11-20_21h18.55.012,Info_measure_main_exp,2022.2.2,Win32,59.92329818,,,,,,,,,,,,,,,,,,masks/mask_002.jpg,,,,,,,,,,,,,,,,,,,,,,,,,,,,,,,,,,,,,,,,,,,,,,,0,3,3,1,1,,,,,,,,,,,,,,,,,,,,,,,,,,,,,,,,,,,,,,,,,
138003,001,2022-11-20_21h18.55.012,Info_measure_main_exp,2022.2.2,Win32,59.92329818,,,,,,,,,,,,,,,,,,masks/mask_004.jpg,,,,,,,,,,,,,,,,,,,,,,,,,,,,,,,,,,,,,,,,,,,,,,,0,4,4,3,1,,,,,,,,,,,,,,,,,,,,,,,,,,,,,,,,,,,,,,,,,
138003,001,2022-11-20_21h18.55.012,Info_measure_main_exp,2022.2.2,Win32,59.92329818,,,,,,,,,,,,,,,,,,,,,,,,,,,,,,7,0.7165,1,,,,,,,,,,,,0,131,5,5,2190,2166,absent_patch/patch0002190.jpg,absent_patch/patch0002166.jpg,,,,,,,,,,,,,,,,,,,0.031481496,0.078703704,1,0,0,response1disk,8,0.006481524,-0.005555577,1,0,0,center_square,0,7,7,50,1,,,,,,,,,,,,,,,,,,,,,,,
138003,001,2022-11-20_21h18.55.012,Info_measure_main_exp,2022.2.2,Win32,59.92329818,,,,,,,,,,,,,,,,,,masks/mask_003.jpg,,,,,,,,,,,,,,,,,,,,,,,,,,,,,,,,,,,,,,,,,,0,0,0,2,1,,,,,,,,,,,,,,,,,,,,,,,,,,,,,,,,,,,,,,,,,,,,,,
138003,001,2022-11-20_21h18.55.012,Info_measure_main_exp,2022.2.2,Win32,59.92329818,,,,,,,,,,,,,,,,,,masks/mask_002.jpg,,,,,,,,,,,,,,,,,,,,,,,,,,,,,,,,,,,,,,,,,,0,1,1,1,1,,,,,,,,,,,,,,,,,,,,,,,,,,,,,,,,,,,,,,,,,,,,,,
138003,001,2022-11-20_21h18.55.012,Info_measure_main_exp,2022.2.2,Win32,59.92329818,,,,,,,,,,,,,,,,,,masks/mask_004.jpg,,,,,,,,,,,,,,,,,,,,,,,,,,,,,,,,,,,,,,,,,,0,2,2,3,1,,,,,,,,,,,,,,,,,,,,,,,,,,,,,,,,,,,,,,,,,,,,,,
138003,001,2022-11-20_21h18.55.012,Info_measure_main_exp,2022.2.2,Win32,59.92329818,,,,,,,,,,,,,,,,,,masks/mask_005.jpg,,,,,,,,,,,,,,,,,,,,,,,,,,,,,,,,,,,,,,,,,,0,3,3,4,1,,,,,,,,,,,,,,,,,,,,,,,,,,,,,,,,,,,,,,,,,,,,,,
138003,001,2022-11-20_21h18.55.012,Info_measure_main_exp,2022.2.2,Win32,59.92329818,,,,,,,,,,,,,,,,,,masks/mask_001.jpg,,,,,,,,,,,,,,,,,,,,,,,,,,,,,,,,,,,,,,,,,,0,4,4,0,1,,,,,,,,,,,,,,,,,,,,,,,,,,,,,,,,,,,,,,,,,,,,,,
138003,001,2022-11-20_21h18.55.012,Info_measure_main_exp,2022.2.2,Win32,59.92329818,,,,,,,,,,,,,,,,,,masks/mask_003.jpg,,,,,,,,,,,,,,,,,,,,,,,,,,,,,,,,,,,,,,,,,,,,,,,0,0,0,2,1,,,,,,,,,,,,,,,,,,,,,,,,,,,,,,,,,,,,,,,,,
138003,001,2022-11-20_21h18.55.012,Info_measure_main_exp,2022.2.2,Win32,59.92329818,,,,,,,,,,,,,,,,,,masks/mask_001.jpg,,,,,,,,,,,,,,,,,,,,,,,,,,,,,,,,,,,,,,,,,,,,,,,0,1,1,0,1,,,,,,,,,,,,,,,,,,,,,,,,,,,,,,,,,,,,,,,,,
138003,001,2022-11-20_21h18.55.012,Info_measure_main_exp,2022.2.2,Win32,59.92329818,,,,,,,,,,,,,,,,,,masks/mask_004.jpg,,,,,,,,,,,,,,,,,,,,,,,,,,,,,,,,,,,,,,,,,,,,,,,0,2,2,3,1,,,,,,,,,,,,,,,,,,,,,,,,,,,,,,,,,,,,,,,,,
138003,001,2022-11-20_21h18.55.012,Info_measure_main_exp,2022.2.2,Win32,59.92329818,,,,,,,,,,,,,,,,,,masks/mask_002.jpg,,,,,,,,,,,,,,,,,,,,,,,,,,,,,,,,,,,,,,,,,,,,,,,0,3,3,1,1,,,,,,,,,,,,,,,,,,,,,,,,,,,,,,,,,,,,,,,,,
138003,001,2022-11-20_21h18.55.012,Info_measure_main_exp,2022.2.2,Win32,59.92329818,,,,,,,,,,,,,,,,,,masks/mask_005.jpg,,,,,,,,,,,,,,,,,,,,,,,,,,,,,,,,,,,,,,,,,,,,,,,0,4,4,4,1,,,,,,,,,,,,,,,,,,,,,,,,,,,,,,,,,,,,,,,,,
138003,001,2022-11-20_21h18.55.012,Info_measure_main_exp,2022.2.2,Win32,59.92329818,,,,,,,,,,,,,,,,,,,,,,,,,,,,,,7,0.556,1,,,,,,,,,,,,0,131,5,5,2178,2154,absent_patch/patch0002178.jpg,absent_patch/patch0002154.jpg,,,,,,,,,,,,,,,,,,,0.032407407,0.069444444,1,0,0,response1disk,9,-0.000925912,0.000925912,1,0,0,center_square,0,8,8,63,1,,,,,,,,,,,,,,,,,,,,,,,
138003,001,2022-11-20_21h18.55.012,Info_measure_main_exp,2022.2.2,Win32,59.92329818,,,,,,,,,,,,,,,,,,masks/mask_001.jpg,,,,,,,,,,,,,,,,,,,,,,,,,,,,,,,,,,,,,,,,,,0,0,0,0,1,,,,,,,,,,,,,,,,,,,,,,,,,,,,,,,,,,,,,,,,,,,,,,
138003,001,2022-11-20_21h18.55.012,Info_measure_main_exp,2022.2.2,Win32,59.92329818,,,,,,,,,,,,,,,,,,masks/mask_005.jpg,,,,,,,,,,,,,,,,,,,,,,,,,,,,,,,,,,,,,,,,,,0,1,1,4,1,,,,,,,,,,,,,,,,,,,,,,,,,,,,,,,,,,,,,,,,,,,,,,
138003,001,2022-11-20_21h18.55.012,Info_measure_main_exp,2022.2.2,Win32,59.92329818,,,,,,,,,,,,,,,,,,masks/mask_004.jpg,,,,,,,,,,,,,,,,,,,,,,,,,,,,,,,,,,,,,,,,,,0,2,2,3,1,,,,,,,,,,,,,,,,,,,,,,,,,,,,,,,,,,,,,,,,,,,,,,
138003,001,2022-11-20_21h18.55.012,Info_measure_main_exp,2022.2.2,Win32,59.92329818,,,,,,,,,,,,,,,,,,masks/mask_003.jpg,,,,,,,,,,,,,,,,,,,,,,,,,,,,,,,,,,,,,,,,,,0,3,3,2,1,,,,,,,,,,,,,,,,,,,,,,,,,,,,,,,,,,,,,,,,,,,,,,
138003,001,2022-11-20_21h18.55.012,Info_measure_main_exp,2022.2.2,Win32,59.92329818,,,,,,,,,,,,,,,,,,masks/mask_002.jpg,,,,,,,,,,,,,,,,,,,,,,,,,,,,,,,,,,,,,,,,,,0,4,4,1,1,,,,,,,,,,,,,,,,,,,,,,,,,,,,,,,,,,,,,,,,,,,,,,
138003,001,2022-11-20_21h18.55.012,Info_measure_main_exp,2022.2.2,Win32,59.92329818,,,,,,,,,,,,,,,,,,masks/mask_005.jpg,,,,,,,,,,,,,,,,,,,,,,,,,,,,,,,,,,,,,,,,,,,,,,,0,0,0,4,1,,,,,,,,,,,,,,,,,,,,,,,,,,,,,,,,,,,,,,,,,
138003,001,2022-11-20_21h18.55.012,Info_measure_main_exp,2022.2.2,Win32,59.92329818,,,,,,,,,,,,,,,,,,masks/mask_003.jpg,,,,,,,,,,,,,,,,,,,,,,,,,,,,,,,,,,,,,,,,,,,,,,,0,1,1,2,1,,,,,,,,,,,,,,,,,,,,,,,,,,,,,,,,,,,,,,,,,
138003,001,2022-11-20_21h18.55.012,Info_measure_main_exp,2022.2.2,Win32,59.92329818,,,,,,,,,,,,,,,,,,masks/mask_004.jpg,,,,,,,,,,,,,,,,,,,,,,,,,,,,,,,,,,,,,,,,,,,,,,,0,2,2,3,1,,,,,,,,,,,,,,,,,,,,,,,,,,,,,,,,,,,,,,,,,
138003,001,2022-11-20_21h18.55.012,Info_measure_main_exp,2022.2.2,Win32,59.92329818,,,,,,,,,,,,,,,,,,masks/mask_002.jpg,,,,,,,,,,,,,,,,,,,,,,,,,,,,,,,,,,,,,,,,,,,,,,,0,3,3,1,1,,,,,,,,,,,,,,,,,,,,,,,,,,,,,,,,,,,,,,,,,
138003,001,2022-11-20_21h18.55.012,Info_measure_main_exp,2022.2.2,Win32,59.92329818,,,,,,,,,,,,,,,,,,masks/mask_001.jpg,,,,,,,,,,,,,,,,,,,,,,,,,,,,,,,,,,,,,,,,,,,,,,,0,4,4,0,1,,,,,,,,,,,,,,,,,,,,,,,,,,,,,,,,,,,,,,,,,
138003,001,2022-11-20_21h18.55.012,Info_measure_main_exp,2022.2.2,Win32,59.92329818,,,,,,,,,,,,,,,,,,,,,,,,,,,,,,3,0.5835,1,,,,,,,,,,,,0,131,5,5,2274,2154,absent_patch/patch0002274.jpg,absent_patch/patch0002154.jpg,,,,,,,,,,,,,,,,,,,-0.026851866,-0.080555563,1,0,0,response5disk,10,-0.001851824,0.009259259,1,0,0,center_square,0,9,9,23,1,,,,,,,,,,,,,,,,,,,,,,,
138003,001,2022-11-20_21h18.55.012,Info_measure_main_exp,2022.2.2,Win32,59.92329818,,,,,,,,,,,,,,,,,,masks/mask_004.jpg,,,,,,,,,,,,,,,,,,,,,,,,,,,,,,,,,,,,,,,,,,0,0,0,3,1,,,,,,,,,,,,,,,,,,,,,,,,,,,,,,,,,,,,,,,,,,,,,,
138003,001,2022-11-20_21h18.55.012,Info_measure_main_exp,2022.2.2,Win32,59.92329818,,,,,,,,,,,,,,,,,,masks/mask_001.jpg,,,,,,,,,,,,,,,,,,,,,,,,,,,,,,,,,,,,,,,,,,0,1,1,0,1,,,,,,,,,,,,,,,,,,,,,,,,,,,,,,,,,,,,,,,,,,,,,,
138003,001,2022-11-20_21h18.55.012,Info_measure_main_exp,2022.2.2,Win32,59.92329818,,,,,,,,,,,,,,,,,,masks/mask_002.jpg,,,,,,,,,,,,,,,,,,,,,,,,,,,,,,,,,,,,,,,,,,0,2,2,1,1,,,,,,,,,,,,,,,,,,,,,,,,,,,,,,,,,,,,,,,,,,,,,,
138003,001,2022-11-20_21h18.55.012,Info_measure_main_exp,2022.2.2,Win32,59.92329818,,,,,,,,,,,,,,,,,,masks/mask_003.jpg,,,,,,,,,,,,,,,,,,,,,,,,,,,,,,,,,,,,,,,,,,0,3,3,2,1,,,,,,,,,,,,,,,,,,,,,,,,,,,,,,,,,,,,,,,,,,,,,,
138003,001,2022-11-20_21h18.55.012,Info_measure_main_exp,2022.2.2,Win32,59.92329818,,,,,,,,,,,,,,,,,,masks/mask_005.jpg,,,,,,,,,,,,,,,,,,,,,,,,,,,,,,,,,,,,,,,,,,0,4,4,4,1,,,,,,,,,,,,,,,,,,,,,,,,,,,,,,,,,,,,,,,,,,,,,,
138003,001,2022-11-20_21h18.55.012,Info_measure_main_exp,2022.2.2,Win32,59.92329818,,,,,,,,,,,,,,,,,,masks/mask_001.jpg,,,,,,,,,,,,,,,,,,,,,,,,,,,,,,,,,,,,,,,,,,,,,,,0,0,0,0,1,,,,,,,,,,,,,,,,,,,,,,,,,,,,,,,,,,,,,,,,,
138003,001,2022-11-20_21h18.55.012,Info_measure_main_exp,2022.2.2,Win32,59.92329818,,,,,,,,,,,,,,,,,,masks/mask_005.jpg,,,,,,,,,,,,,,,,,,,,,,,,,,,,,,,,,,,,,,,,,,,,,,,0,1,1,4,1,,,,,,,,,,,,,,,,,,,,,,,,,,,,,,,,,,,,,,,,,
138003,001,2022-11-20_21h18.55.012,Info_measure_main_exp,2022.2.2,Win32,59.92329818,,,,,,,,,,,,,,,,,,masks/mask_002.jpg,,,,,,,,,,,,,,,,,,,,,,,,,,,,,,,,,,,,,,,,,,,,,,,0,2,2,1,1,,,,,,,,,,,,,,,,,,,,,,,,,,,,,,,,,,,,,,,,,
138003,001,2022-11-20_21h18.55.012,Info_measure_main_exp,2022.2.2,Win32,59.92329818,,,,,,,,,,,,,,,,,,masks/mask_004.jpg,,,,,,,,,,,,,,,,,,,,,,,,,,,,,,,,,,,,,,,,,,,,,,,0,3,3,3,1,,,,,,,,,,,,,,,,,,,,,,,,,,,,,,,,,,,,,,,,,
138003,001,2022-11-20_21h18.55.012,Info_measure_main_exp,2022.2.2,Win32,59.92329818,,,,,,,,,,,,,,,,,,masks/mask_003.jpg,,,,,,,,,,,,,,,,,,,,,,,,,,,,,,,,,,,,,,,,,,,,,,,0,4,4,2,1,,,,,,,,,,,,,,,,,,,,,,,,,,,,,,,,,,,,,,,,,
138003,001,2022-11-20_21h18.55.012,Info_measure_main_exp,2022.2.2,Win32,59.92329818,,,,,,,,,,,,,,,,,,,,,,,,,,,,,,7,0.4499,1,,,,,,,,,,,,0,131,5,5,1986,1974,absent_patch/patch0001986.jpg,absent_patch/patch0001974.jpg,,,,,,,,,,,,,,,,,,,0.030555584,0.086111104,1,0,0,response1disk,11,0.003703718,0.006481489,1,0,0,center_square,0,10,10,25,1,,,,,,,,,,,,,,,,,,,,,,,
138003,001,2022-11-20_21h18.55.012,Info_measure_main_exp,2022.2.2,Win32,59.92329818,,,,,,,,,,,,,,,,,,masks/mask_001.jpg,,,,,,,,,,,,,,,,,,,,,,,,,,,,,,,,,,,,,,,,,,0,0,0,0,1,,,,,,,,,,,,,,,,,,,,,,,,,,,,,,,,,,,,,,,,,,,,,,
138003,001,2022-11-20_21h18.55.012,Info_measure_main_exp,2022.2.2,Win32,59.92329818,,,,,,,,,,,,,,,,,,masks/mask_003.jpg,,,,,,,,,,,,,,,,,,,,,,,,,,,,,,,,,,,,,,,,,,0,1,1,2,1,,,,,,,,,,,,,,,,,,,,,,,,,,,,,,,,,,,,,,,,,,,,,,
138003,001,2022-11-20_21h18.55.012,Info_measure_main_exp,2022.2.2,Win32,59.92329818,,,,,,,,,,,,,,,,,,masks/mask_004.jpg,,,,,,,,,,,,,,,,,,,,,,,,,,,,,,,,,,,,,,,,,,0,2,2,3,1,,,,,,,,,,,,,,,,,,,,,,,,,,,,,,,,,,,,,,,,,,,,,,
138003,001,2022-11-20_21h18.55.012,Info_measure_main_exp,2022.2.2,Win32,59.92329818,,,,,,,,,,,,,,,,,,masks/mask_002.jpg,,,,,,,,,,,,,,,,,,,,,,,,,,,,,,,,,,,,,,,,,,0,3,3,1,1,,,,,,,,,,,,,,,,,,,,,,,,,,,,,,,,,,,,,,,,,,,,,,
138003,001,2022-11-20_21h18.55.012,Info_measure_main_exp,2022.2.2,Win32,59.92329818,,,,,,,,,,,,,,,,,,masks/mask_005.jpg,,,,,,,,,,,,,,,,,,,,,,,,,,,,,,,,,,,,,,,,,,0,4,4,4,1,,,,,,,,,,,,,,,,,,,,,,,,,,,,,,,,,,,,,,,,,,,,,,
138003,001,2022-11-20_21h18.55.012,Info_measure_main_exp,2022.2.2,Win32,59.92329818,,,,,,,,,,,,,,,,,,masks/mask_001.jpg,,,,,,,,,,,,,,,,,,,,,,,,,,,,,,,,,,,,,,,,,,,,,,,0,0,0,0,1,,,,,,,,,,,,,,,,,,,,,,,,,,,,,,,,,,,,,,,,,
138003,001,2022-11-20_21h18.55.012,Info_measure_main_exp,2022.2.2,Win32,59.92329818,,,,,,,,,,,,,,,,,,masks/mask_005.jpg,,,,,,,,,,,,,,,,,,,,,,,,,,,,,,,,,,,,,,,,,,,,,,,0,1,1,4,1,,,,,,,,,,,,,,,,,,,,,,,,,,,,,,,,,,,,,,,,,
138003,001,2022-11-20_21h18.55.012,Info_measure_main_exp,2022.2.2,Win32,59.92329818,,,,,,,,,,,,,,,,,,masks/mask_004.jpg,,,,,,,,,,,,,,,,,,,,,,,,,,,,,,,,,,,,,,,,,,,,,,,0,2,2,3,1,,,,,,,,,,,,,,,,,,,,,,,,,,,,,,,,,,,,,,,,,
138003,001,2022-11-20_21h18.55.012,Info_measure_main_exp,2022.2.2,Win32,59.92329818,,,,,,,,,,,,,,,,,,masks/mask_002.jpg,,,,,,,,,,,,,,,,,,,,,,,,,,,,,,,,,,,,,,,,,,,,,,,0,3,3,1,1,,,,,,,,,,,,,,,,,,,,,,,,,,,,,,,,,,,,,,,,,
138003,001,2022-11-20_21h18.55.012,Info_measure_main_exp,2022.2.2,Win32,59.92329818,,,,,,,,,,,,,,,,,,masks/mask_003.jpg,,,,,,,,,,,,,,,,,,,,,,,,,,,,,,,,,,,,,,,,,,,,,,,0,4,4,2,1,,,,,,,,,,,,,,,,,,,,,,,,,,,,,,,,,,,,,,,,,
138003,001,2022-11-20_21h18.55.012,Info_measure_main_exp,2022.2.2,Win32,59.92329818,,,,,,,,,,,,,,,,,,,,,,,,,,,,,,7,0.4334,1,,,,,,,,,,,,1,131,5,5,1,1974,present_patch/cong_131_5_a.jpg,absent_patch/patch0001974.jpg,,,,,,,,,,,,,,,,,,,0.008333347,0.103703711,1,0,0,response1disk,12,-0.006481453,-0.014814836,1,0,0,center_square,0,11,11,69,1,,,,,,,,,,,,,,,,,,,,,,,
138003,001,2022-11-20_21h18.55.012,Info_measure_main_exp,2022.2.2,Win32,59.92329818,,,,,,,,,,,,,,,,,,masks/mask_001.jpg,,,,,,,,,,,,,,,,,,,,,,,,,,,,,,,,,,,,,,,,,,0,0,0,0,1,,,,,,,,,,,,,,,,,,,,,,,,,,,,,,,,,,,,,,,,,,,,,,
138003,001,2022-11-20_21h18.55.012,Info_measure_main_exp,2022.2.2,Win32,59.92329818,,,,,,,,,,,,,,,,,,masks/mask_002.jpg,,,,,,,,,,,,,,,,,,,,,,,,,,,,,,,,,,,,,,,,,,0,1,1,1,1,,,,,,,,,,,,,,,,,,,,,,,,,,,,,,,,,,,,,,,,,,,,,,
138003,001,2022-11-20_21h18.55.012,Info_measure_main_exp,2022.2.2,Win32,59.92329818,,,,,,,,,,,,,,,,,,masks/mask_005.jpg,,,,,,,,,,,,,,,,,,,,,,,,,,,,,,,,,,,,,,,,,,0,2,2,4,1,,,,,,,,,,,,,,,,,,,,,,,,,,,,,,,,,,,,,,,,,,,,,,
138003,001,2022-11-20_21h18.55.012,Info_measure_main_exp,2022.2.2,Win32,59.92329818,,,,,,,,,,,,,,,,,,masks/mask_003.jpg,,,,,,,,,,,,,,,,,,,,,,,,,,,,,,,,,,,,,,,,,,0,3,3,2,1,,,,,,,,,,,,,,,,,,,,,,,,,,,,,,,,,,,,,,,,,,,,,,
138003,001,2022-11-20_21h18.55.012,Info_measure_main_exp,2022.2.2,Win32,59.92329818,,,,,,,,,,,,,,,,,,masks/mask_004.jpg,,,,,,,,,,,,,,,,,,,,,,,,,,,,,,,,,,,,,,,,,,0,4,4,3,1,,,,,,,,,,,,,,,,,,,,,,,,,,,,,,,,,,,,,,,,,,,,,,
138003,001,2022-11-20_21h18.55.012,Info_measure_main_exp,2022.2.2,Win32,59.92329818,,,,,,,,,,,,,,,,,,masks/mask_002.jpg,,,,,,,,,,,,,,,,,,,,,,,,,,,,,,,,,,,,,,,,,,,,,,,0,0,0,1,1,,,,,,,,,,,,,,,,,,,,,,,,,,,,,,,,,,,,,,,,,
138003,001,2022-11-20_21h18.55.012,Info_measure_main_exp,2022.2.2,Win32,59.92329818,,,,,,,,,,,,,,,,,,masks/mask_004.jpg,,,,,,,,,,,,,,,,,,,,,,,,,,,,,,,,,,,,,,,,,,,,,,,0,1,1,3,1,,,,,,,,,,,,,,,,,,,,,,,,,,,,,,,,,,,,,,,,,
138003,001,2022-11-20_21h18.55.012,Info_measure_main_exp,2022.2.2,Win32,59.92329818,,,,,,,,,,,,,,,,,,masks/mask_005.jpg,,,,,,,,,,,,,,,,,,,,,,,,,,,,,,,,,,,,,,,,,,,,,,,0,2,2,4,1,,,,,,,,,,,,,,,,,,,,,,,,,,,,,,,,,,,,,,,,,
138003,001,2022-11-20_21h18.55.012,Info_measure_main_exp,2022.2.2,Win32,59.92329818,,,,,,,,,,,,,,,,,,masks/mask_003.jpg,,,,,,,,,,,,,,,,,,,,,,,,,,,,,,,,,,,,,,,,,,,,,,,0,3,3,2,1,,,,,,,,,,,,,,,,,,,,,,,,,,,,,,,,,,,,,,,,,
138003,001,2022-11-20_21h18.55.012,Info_measure_main_exp,2022.2.2,Win32,59.92329818,,,,,,,,,,,,,,,,,,masks/mask_001.jpg,,,,,,,,,,,,,,,,,,,,,,,,,,,,,,,,,,,,,,,,,,,,,,,0,4,4,0,1,,,,,,,,,,,,,,,,,,,,,,,,,,,,,,,,,,,,,,,,,
138003,001,2022-11-20_21h18.55.012,Info_measure_main_exp,2022.2.2,Win32,59.92329818,,,,,,,,,,,,,,,,,,,,,,,,,,,,,,7,0.417,1,,,,,,,,,,,,0,131,5,5,1974,2166,absent_patch/patch0001974.jpg,absent_patch/patch0002166.jpg,,,,,,,,,,,,,,,,,,,0.032407407,0.101851852,1,0,0,response1disk,13,0.006481524,-0.012962977,1,0,0,center_square,0,12,12,77,1,,,,,,,,,,,,,,,,,,,,,,,
138003,001,2022-11-20_21h18.55.012,Info_measure_main_exp,2022.2.2,Win32,59.92329818,,,,,,,,,,,,,,,,,,masks/mask_005.jpg,,,,,,,,,,,,,,,,,,,,,,,,,,,,,,,,,,,,,,,,,,0,0,0,4,1,,,,,,,,,,,,,,,,,,,,,,,,,,,,,,,,,,,,,,,,,,,,,,
138003,001,2022-11-20_21h18.55.012,Info_measure_main_exp,2022.2.2,Win32,59.92329818,,,,,,,,,,,,,,,,,,masks/mask_004.jpg,,,,,,,,,,,,,,,,,,,,,,,,,,,,,,,,,,,,,,,,,,0,1,1,3,1,,,,,,,,,,,,,,,,,,,,,,,,,,,,,,,,,,,,,,,,,,,,,,
138003,001,2022-11-20_21h18.55.012,Info_measure_main_exp,2022.2.2,Win32,59.92329818,,,,,,,,,,,,,,,,,,masks/mask_001.jpg,,,,,,,,,,,,,,,,,,,,,,,,,,,,,,,,,,,,,,,,,,0,2,2,0,1,,,,,,,,,,,,,,,,,,,,,,,,,,,,,,,,,,,,,,,,,,,,,,
138003,001,2022-11-20_21h18.55.012,Info_measure_main_exp,2022.2.2,Win32,59.92329818,,,,,,,,,,,,,,,,,,masks/mask_002.jpg,,,,,,,,,,,,,,,,,,,,,,,,,,,,,,,,,,,,,,,,,,0,3,3,1,1,,,,,,,,,,,,,,,,,,,,,,,,,,,,,,,,,,,,,,,,,,,,,,
138003,001,2022-11-20_21h18.55.012,Info_measure_main_exp,2022.2.2,Win32,59.92329818,,,,,,,,,,,,,,,,,,masks/mask_003.jpg,,,,,,,,,,,,,,,,,,,,,,,,,,,,,,,,,,,,,,,,,,0,4,4,2,1,,,,,,,,,,,,,,,,,,,,,,,,,,,,,,,,,,,,,,,,,,,,,,
138003,001,2022-11-20_21h18.55.012,Info_measure_main_exp,2022.2.2,Win32,59.92329818,,,,,,,,,,,,,,,,,,masks/mask_001.jpg,,,,,,,,,,,,,,,,,,,,,,,,,,,,,,,,,,,,,,,,,,,,,,,0,0,0,0,1,,,,,,,,,,,,,,,,,,,,,,,,,,,,,,,,,,,,,,,,,
138003,001,2022-11-20_21h18.55.012,Info_measure_main_exp,2022.2.2,Win32,59.92329818,,,,,,,,,,,,,,,,,,masks/mask_005.jpg,,,,,,,,,,,,,,,,,,,,,,,,,,,,,,,,,,,,,,,,,,,,,,,0,1,1,4,1,,,,,,,,,,,,,,,,,,,,,,,,,,,,,,,,,,,,,,,,,
138003,001,2022-11-20_21h18.55.012,Info_measure_main_exp,2022.2.2,Win32,59.92329818,,,,,,,,,,,,,,,,,,masks/mask_004.jpg,,,,,,,,,,,,,,,,,,,,,,,,,,,,,,,,,,,,,,,,,,,,,,,0,2,2,3,1,,,,,,,,,,,,,,,,,,,,,,,,,,,,,,,,,,,,,,,,,
138003,001,2022-11-20_21h18.55.012,Info_measure_main_exp,2022.2.2,Win32,59.92329818,,,,,,,,,,,,,,,,,,masks/mask_002.jpg,,,,,,,,,,,,,,,,,,,,,,,,,,,,,,,,,,,,,,,,,,,,,,,0,3,3,1,1,,,,,,,,,,,,,,,,,,,,,,,,,,,,,,,,,,,,,,,,,
138003,001,2022-11-20_21h18.55.012,Info_measure_main_exp,2022.2.2,Win32,59.92329818,,,,,,,,,,,,,,,,,,masks/mask_003.jpg,,,,,,,,,,,,,,,,,,,,,,,,,,,,,,,,,,,,,,,,,,,,,,,0,4,4,2,1,,,,,,,,,,,,,,,,,,,,,,,,,,,,,,,,,,,,,,,,,
138003,001,2022-11-20_21h18.55.012,Info_measure_main_exp,2022.2.2,Win32,59.92329818,,,,,,,,,,,,,,,,,,,,,,,,,,,,,,7,0.3836,1,,,,,,,,,,,,0,131,5,5,2214,2082,absent_patch/patch0002214.jpg,absent_patch/patch0002082.jpg,,,,,,,,,,,,,,,,,,,0.062037079,0.085185192,1,0,0,response1disk,14,0.002777806,0.011111118,1,0,0,center_square,0,13,13,103,1,,,,,,,,,,,,,,,,,,,,,,,
138003,001,2022-11-20_21h18.55.012,Info_measure_main_exp,2022.2.2,Win32,59.92329818,,,,,,,,,,,,,,,,,,masks/mask_005.jpg,,,,,,,,,,,,,,,,,,,,,,,,,,,,,,,,,,,,,,,,,,0,0,0,4,1,,,,,,,,,,,,,,,,,,,,,,,,,,,,,,,,,,,,,,,,,,,,,,
138003,001,2022-11-20_21h18.55.012,Info_measure_main_exp,2022.2.2,Win32,59.92329818,,,,,,,,,,,,,,,,,,masks/mask_004.jpg,,,,,,,,,,,,,,,,,,,,,,,,,,,,,,,,,,,,,,,,,,0,1,1,3,1,,,,,,,,,,,,,,,,,,,,,,,,,,,,,,,,,,,,,,,,,,,,,,
138003,001,2022-11-20_21h18.55.012,Info_measure_main_exp,2022.2.2,Win32,59.92329818,,,,,,,,,,,,,,,,,,masks/mask_001.jpg,,,,,,,,,,,,,,,,,,,,,,,,,,,,,,,,,,,,,,,,,,0,2,2,0,1,,,,,,,,,,,,,,,,,,,,,,,,,,,,,,,,,,,,,,,,,,,,,,
138003,001,2022-11-20_21h18.55.012,Info_measure_main_exp,2022.2.2,Win32,59.92329818,,,,,,,,,,,,,,,,,,masks/mask_003.jpg,,,,,,,,,,,,,,,,,,,,,,,,,,,,,,,,,,,,,,,,,,0,3,3,2,1,,,,,,,,,,,,,,,,,,,,,,,,,,,,,,,,,,,,,,,,,,,,,,
138003,001,2022-11-20_21h18.55.012,Info_measure_main_exp,2022.2.2,Win32,59.92329818,,,,,,,,,,,,,,,,,,masks/mask_002.jpg,,,,,,,,,,,,,,,,,,,,,,,,,,,,,,,,,,,,,,,,,,0,4,4,1,1,,,,,,,,,,,,,,,,,,,,,,,,,,,,,,,,,,,,,,,,,,,,,,
138003,001,2022-11-20_21h18.55.012,Info_measure_main_exp,2022.2.2,Win32,59.92329818,,,,,,,,,,,,,,,,,,masks/mask_005.jpg,,,,,,,,,,,,,,,,,,,,,,,,,,,,,,,,,,,,,,,,,,,,,,,0,0,0,4,1,,,,,,,,,,,,,,,,,,,,,,,,,,,,,,,,,,,,,,,,,
138003,001,2022-11-20_21h18.55.012,Info_measure_main_exp,2022.2.2,Win32,59.92329818,,,,,,,,,,,,,,,,,,masks/mask_004.jpg,,,,,,,,,,,,,,,,,,,,,,,,,,,,,,,,,,,,,,,,,,,,,,,0,1,1,3,1,,,,,,,,,,,,,,,,,,,,,,,,,,,,,,,,,,,,,,,,,
138003,001,2022-11-20_21h18.55.012,Info_measure_main_exp,2022.2.2,Win32,59.92329818,,,,,,,,,,,,,,,,,,masks/mask_003.jpg,,,,,,,,,,,,,,,,,,,,,,,,,,,,,,,,,,,,,,,,,,,,,,,0,2,2,2,1,,,,,,,,,,,,,,,,,,,,,,,,,,,,,,,,,,,,,,,,,
138003,001,2022-11-20_21h18.55.012,Info_measure_main_exp,2022.2.2,Win32,59.92329818,,,,,,,,,,,,,,,,,,masks/mask_002.jpg,,,,,,,,,,,,,,,,,,,,,,,,,,,,,,,,,,,,,,,,,,,,,,,0,3,3,1,1,,,,,,,,,,,,,,,,,,,,,,,,,,,,,,,,,,,,,,,,,
138003,001,2022-11-20_21h18.55.012,Info_measure_main_exp,2022.2.2,Win32,59.92329818,,,,,,,,,,,,,,,,,,masks/mask_001.jpg,,,,,,,,,,,,,,,,,,,,,,,,,,,,,,,,,,,,,,,,,,,,,,,0,4,4,0,1,,,,,,,,,,,,,,,,,,,,,,,,,,,,,,,,,,,,,,,,,
138003,001,2022-11-20_21h18.55.012,Info_measure_main_exp,2022.2.2,Win32,59.92329818,,,,,,,,,,,,,,,,,,,,,,,,,,,,,,7,0.3669,1,,,,,,,,,,,,0,131,5,5,2250,1950,absent_patch/patch0002250.jpg,absent_patch/patch0001950.jpg,,,,,,,,,,,,,,,,,,,0.068518533,0.112037023,1,0,0,response1disk,15,0.009259259,-0.01203703,1,0,0,center_square,0,14,14,16,1,,,,,,,,,,,,,,,,,,,,,,,
138003,001,2022-11-20_21h18.55.012,Info_measure_main_exp,2022.2.2,Win32,59.92329818,,,,,,,,,,,,,,,,,,masks/mask_001.jpg,,,,,,,,,,,,,,,,,,,,,,,,,,,,,,,,,,,,,,,,,,0,0,0,0,1,,,,,,,,,,,,,,,,,,,,,,,,,,,,,,,,,,,,,,,,,,,,,,
138003,001,2022-11-20_21h18.55.012,Info_measure_main_exp,2022.2.2,Win32,59.92329818,,,,,,,,,,,,,,,,,,masks/mask_004.jpg,,,,,,,,,,,,,,,,,,,,,,,,,,,,,,,,,,,,,,,,,,0,1,1,3,1,,,,,,,,,,,,,,,,,,,,,,,,,,,,,,,,,,,,,,,,,,,,,,
138003,001,2022-11-20_21h18.55.012,Info_measure_main_exp,2022.2.2,Win32,59.92329818,,,,,,,,,,,,,,,,,,masks/mask_002.jpg,,,,,,,,,,,,,,,,,,,,,,,,,,,,,,,,,,,,,,,,,,0,2,2,1,1,,,,,,,,,,,,,,,,,,,,,,,,,,,,,,,,,,,,,,,,,,,,,,
138003,001,2022-11-20_21h18.55.012,Info_measure_main_exp,2022.2.2,Win32,59.92329818,,,,,,,,,,,,,,,,,,masks/mask_003.jpg,,,,,,,,,,,,,,,,,,,,,,,,,,,,,,,,,,,,,,,,,,0,3,3,2,1,,,,,,,,,,,,,,,,,,,,,,,,,,,,,,,,,,,,,,,,,,,,,,
138003,001,2022-11-20_21h18.55.012,Info_measure_main_exp,2022.2.2,Win32,59.92329818,,,,,,,,,,,,,,,,,,masks/mask_005.jpg,,,,,,,,,,,,,,,,,,,,,,,,,,,,,,,,,,,,,,,,,,0,4,4,4,1,,,,,,,,,,,,,,,,,,,,,,,,,,,,,,,,,,,,,,,,,,,,,,
138003,001,2022-11-20_21h18.55.012,Info_measure_main_exp,2022.2.2,Win32,59.92329818,,,,,,,,,,,,,,,,,,masks/mask_003.jpg,,,,,,,,,,,,,,,,,,,,,,,,,,,,,,,,,,,,,,,,,,,,,,,0,0,0,2,1,,,,,,,,,,,,,,,,,,,,,,,,,,,,,,,,,,,,,,,,,
138003,001,2022-11-20_21h18.55.012,Info_measure_main_exp,2022.2.2,Win32,59.92329818,,,,,,,,,,,,,,,,,,masks/mask_004.jpg,,,,,,,,,,,,,,,,,,,,,,,,,,,,,,,,,,,,,,,,,,,,,,,0,1,1,3,1,,,,,,,,,,,,,,,,,,,,,,,,,,,,,,,,,,,,,,,,,
138003,001,2022-11-20_21h18.55.012,Info_measure_main_exp,2022.2.2,Win32,59.92329818,,,,,,,,,,,,,,,,,,masks/mask_001.jpg,,,,,,,,,,,,,,,,,,,,,,,,,,,,,,,,,,,,,,,,,,,,,,,0,2,2,0,1,,,,,,,,,,,,,,,,,,,,,,,,,,,,,,,,,,,,,,,,,
138003,001,2022-11-20_21h18.55.012,Info_measure_main_exp,2022.2.2,Win32,59.92329818,,,,,,,,,,,,,,,,,,masks/mask_005.jpg,,,,,,,,,,,,,,,,,,,,,,,,,,,,,,,,,,,,,,,,,,,,,,,0,3,3,4,1,,,,,,,,,,,,,,,,,,,,,,,,,,,,,,,,,,,,,,,,,
138003,001,2022-11-20_21h18.55.012,Info_measure_main_exp,2022.2.2,Win32,59.92329818,,,,,,,,,,,,,,,,,,masks/mask_002.jpg,,,,,,,,,,,,,,,,,,,,,,,,,,,,,,,,,,,,,,,,,,,,,,,0,4,4,1,1,,,,,,,,,,,,,,,,,,,,,,,,,,,,,,,,,,,,,,,,,
138003,001,2022-11-20_21h18.55.012,Info_measure_main_exp,2022.2.2,Win32,59.92329818,,,,,,,,,,,,,,,,,,,,,,,,,,,,,,7,0.3159,1,,,,,,,,,,,,0,131,5,5,1986,1950,absent_patch/patch0001986.jpg,absent_patch/patch0001950.jpg,,,,,,,,,,,,,,,,,,,0.030555584,0.071296303,1,0,0,response1disk,16,-0.003703718,-0.011111118,1,0,0,center_square,0,15,15,15,1,,,,,,,,,,,,,,,,,,,,,,,
138003,001,2022-11-20_21h18.55.012,Info_measure_main_exp,2022.2.2,Win32,59.92329818,,,,,,,,,,,,,,,,,,masks/mask_003.jpg,,,,,,,,,,,,,,,,,,,,,,,,,,,,,,,,,,,,,,,,,,0,0,0,2,1,,,,,,,,,,,,,,,,,,,,,,,,,,,,,,,,,,,,,,,,,,,,,,
138003,001,2022-11-20_21h18.55.012,Info_measure_main_exp,2022.2.2,Win32,59.92329818,,,,,,,,,,,,,,,,,,masks/mask_004.jpg,,,,,,,,,,,,,,,,,,,,,,,,,,,,,,,,,,,,,,,,,,0,1,1,3,1,,,,,,,,,,,,,,,,,,,,,,,,,,,,,,,,,,,,,,,,,,,,,,
138003,001,2022-11-20_21h18.55.012,Info_measure_main_exp,2022.2.2,Win32,59.92329818,,,,,,,,,,,,,,,,,,masks/mask_002.jpg,,,,,,,,,,,,,,,,,,,,,,,,,,,,,,,,,,,,,,,,,,0,2,2,1,1,,,,,,,,,,,,,,,,,,,,,,,,,,,,,,,,,,,,,,,,,,,,,,
138003,001,2022-11-20_21h18.55.012,Info_measure_main_exp,2022.2.2,Win32,59.92329818,,,,,,,,,,,,,,,,,,masks/mask_005.jpg,,,,,,,,,,,,,,,,,,,,,,,,,,,,,,,,,,,,,,,,,,0,3,3,4,1,,,,,,,,,,,,,,,,,,,,,,,,,,,,,,,,,,,,,,,,,,,,,,
138003,001,2022-11-20_21h18.55.012,Info_measure_main_exp,2022.2.2,Win32,59.92329818,,,,,,,,,,,,,,,,,,masks/mask_001.jpg,,,,,,,,,,,,,,,,,,,,,,,,,,,,,,,,,,,,,,,,,,0,4,4,0,1,,,,,,,,,,,,,,,,,,,,,,,,,,,,,,,,,,,,,,,,,,,,,,
138003,001,2022-11-20_21h18.55.012,Info_measure_main_exp,2022.2.2,Win32,59.92329818,,,,,,,,,,,,,,,,,,masks/mask_002.jpg,,,,,,,,,,,,,,,,,,,,,,,,,,,,,,,,,,,,,,,,,,,,,,,0,0,0,1,1,,,,,,,,,,,,,,,,,,,,,,,,,,,,,,,,,,,,,,,,,
138003,001,2022-11-20_21h18.55.012,Info_measure_main_exp,2022.2.2,Win32,59.92329818,,,,,,,,,,,,,,,,,,masks/mask_003.jpg,,,,,,,,,,,,,,,,,,,,,,,,,,,,,,,,,,,,,,,,,,,,,,,0,1,1,2,1,,,,,,,,,,,,,,,,,,,,,,,,,,,,,,,,,,,,,,,,,
138003,001,2022-11-20_21h18.55.012,Info_measure_main_exp,2022.2.2,Win32,59.92329818,,,,,,,,,,,,,,,,,,masks/mask_001.jpg,,,,,,,,,,,,,,,,,,,,,,,,,,,,,,,,,,,,,,,,,,,,,,,0,2,2,0,1,,,,,,,,,,,,,,,,,,,,,,,,,,,,,,,,,,,,,,,,,
138003,001,2022-11-20_21h18.55.012,Info_measure_main_exp,2022.2.2,Win32,59.92329818,,,,,,,,,,,,,,,,,,masks/mask_005.jpg,,,,,,,,,,,,,,,,,,,,,,,,,,,,,,,,,,,,,,,,,,,,,,,0,3,3,4,1,,,,,,,,,,,,,,,,,,,,,,,,,,,,,,,,,,,,,,,,,
138003,001,2022-11-20_21h18.55.012,Info_measure_main_exp,2022.2.2,Win32,59.92329818,,,,,,,,,,,,,,,,,,masks/mask_004.jpg,,,,,,,,,,,,,,,,,,,,,,,,,,,,,,,,,,,,,,,,,,,,,,,0,4,4,3,1,,,,,,,,,,,,,,,,,,,,,,,,,,,,,,,,,,,,,,,,,
138003,001,2022-11-20_21h18.55.012,Info_measure_main_exp,2022.2.2,Win32,59.92329818,,,,,,,,,,,,,,,,,,,,,,,,,,,,,,7,1.1277,1,,,,,,,,,,,,0,131,5,5,2166,2298,absent_patch/patch0002166.jpg,absent_patch/patch0002298.jpg,,,,,,,,,,,,,,,,,,,0.017592607,0.095370363,1,0,0,response1disk,17,0.006481524,0.002777771,1,0,0,center_square,0,16,16,52,1,,,,,,,,,,,,,,,,,,,,,,,
138003,001,2022-11-20_21h18.55.012,Info_measure_main_exp,2022.2.2,Win32,59.92329818,,,,,,,,,,,,,,,,,,masks/mask_003.jpg,,,,,,,,,,,,,,,,,,,,,,,,,,,,,,,,,,,,,,,,,,0,0,0,2,1,,,,,,,,,,,,,,,,,,,,,,,,,,,,,,,,,,,,,,,,,,,,,,
138003,001,2022-11-20_21h18.55.012,Info_measure_main_exp,2022.2.2,Win32,59.92329818,,,,,,,,,,,,,,,,,,masks/mask_004.jpg,,,,,,,,,,,,,,,,,,,,,,,,,,,,,,,,,,,,,,,,,,0,1,1,3,1,,,,,,,,,,,,,,,,,,,,,,,,,,,,,,,,,,,,,,,,,,,,,,
138003,001,2022-11-20_21h18.55.012,Info_measure_main_exp,2022.2.2,Win32,59.92329818,,,,,,,,,,,,,,,,,,masks/mask_002.jpg,,,,,,,,,,,,,,,,,,,,,,,,,,,,,,,,,,,,,,,,,,0,2,2,1,1,,,,,,,,,,,,,,,,,,,,,,,,,,,,,,,,,,,,,,,,,,,,,,
138003,001,2022-11-20_21h18.55.012,Info_measure_main_exp,2022.2.2,Win32,59.92329818,,,,,,,,,,,,,,,,,,masks/mask_001.jpg,,,,,,,,,,,,,,,,,,,,,,,,,,,,,,,,,,,,,,,,,,0,3,3,0,1,,,,,,,,,,,,,,,,,,,,,,,,,,,,,,,,,,,,,,,,,,,,,,
138003,001,2022-11-20_21h18.55.012,Info_measure_main_exp,2022.2.2,Win32,59.92329818,,,,,,,,,,,,,,,,,,masks/mask_005.jpg,,,,,,,,,,,,,,,,,,,,,,,,,,,,,,,,,,,,,,,,,,0,4,4,4,1,,,,,,,,,,,,,,,,,,,,,,,,,,,,,,,,,,,,,,,,,,,,,,
138003,001,2022-11-20_21h18.55.012,Info_measure_main_exp,2022.2.2,Win32,59.92329818,,,,,,,,,,,,,,,,,,masks/mask_003.jpg,,,,,,,,,,,,,,,,,,,,,,,,,,,,,,,,,,,,,,,,,,,,,,,0,0,0,2,1,,,,,,,,,,,,,,,,,,,,,,,,,,,,,,,,,,,,,,,,,
138003,001,2022-11-20_21h18.55.012,Info_measure_main_exp,2022.2.2,Win32,59.92329818,,,,,,,,,,,,,,,,,,masks/mask_001.jpg,,,,,,,,,,,,,,,,,,,,,,,,,,,,,,,,,,,,,,,,,,,,,,,0,1,1,0,1,,,,,,,,,,,,,,,,,,,,,,,,,,,,,,,,,,,,,,,,,
138003,001,2022-11-20_21h18.55.012,Info_measure_main_exp,2022.2.2,Win32,59.92329818,,,,,,,,,,,,,,,,,,masks/mask_004.jpg,,,,,,,,,,,,,,,,,,,,,,,,,,,,,,,,,,,,,,,,,,,,,,,0,2,2,3,1,,,,,,,,,,,,,,,,,,,,,,,,,,,,,,,,,,,,,,,,,
138003,001,2022-11-20_21h18.55.012,Info_measure_main_exp,2022.2.2,Win32,59.92329818,,,,,,,,,,,,,,,,,,masks/mask_002.jpg,,,,,,,,,,,,,,,,,,,,,,,,,,,,,,,,,,,,,,,,,,,,,,,0,3,3,1,1,,,,,,,,,,,,,,,,,,,,,,,,,,,,,,,,,,,,,,,,,
138003,001,2022-11-20_21h18.55.012,Info_measure_main_exp,2022.2.2,Win32,59.92329818,,,,,,,,,,,,,,,,,,masks/mask_005.jpg,,,,,,,,,,,,,,,,,,,,,,,,,,,,,,,,,,,,,,,,,,,,,,,0,4,4,4,1,,,,,,,,,,,,,,,,,,,,,,,,,,,,,,,,,,,,,,,,,
138003,001,2022-11-20_21h18.55.012,Info_measure_main_exp,2022.2.2,Win32,59.92329818,,,,,,,,,,,,,,,,,,,,,,,,,,,,,,0,0.3773,1,,,,,,,,,,,,0,131,5,5,1950,1950,absent_patch/patch0001950.jpg,absent_patch/patch0001950.jpg,,,,,,,,,,,,,,,,,,,-0.02870369,0.150000007,1,0,0,response7disk,18,-0.006481453,-0.00462963,1,0,0,center_square,0,17,17,92,1,,,,,,,,,,,,,,,,,,,,,,,
138003,001,2022-11-20_21h18.55.012,Info_measure_main_exp,2022.2.2,Win32,59.92329818,,,,,,,,,,,,,,,,,,masks/mask_004.jpg,,,,,,,,,,,,,,,,,,,,,,,,,,,,,,,,,,,,,,,,,,0,0,0,3,1,,,,,,,,,,,,,,,,,,,,,,,,,,,,,,,,,,,,,,,,,,,,,,
138003,001,2022-11-20_21h18.55.012,Info_measure_main_exp,2022.2.2,Win32,59.92329818,,,,,,,,,,,,,,,,,,masks/mask_003.jpg,,,,,,,,,,,,,,,,,,,,,,,,,,,,,,,,,,,,,,,,,,0,1,1,2,1,,,,,,,,,,,,,,,,,,,,,,,,,,,,,,,,,,,,,,,,,,,,,,
138003,001,2022-11-20_21h18.55.012,Info_measure_main_exp,2022.2.2,Win32,59.92329818,,,,,,,,,,,,,,,,,,masks/mask_002.jpg,,,,,,,,,,,,,,,,,,,,,,,,,,,,,,,,,,,,,,,,,,0,2,2,1,1,,,,,,,,,,,,,,,,,,,,,,,,,,,,,,,,,,,,,,,,,,,,,,
138003,001,2022-11-20_21h18.55.012,Info_measure_main_exp,2022.2.2,Win32,59.92329818,,,,,,,,,,,,,,,,,,masks/mask_001.jpg,,,,,,,,,,,,,,,,,,,,,,,,,,,,,,,,,,,,,,,,,,0,3,3,0,1,,,,,,,,,,,,,,,,,,,,,,,,,,,,,,,,,,,,,,,,,,,,,,
138003,001,2022-11-20_21h18.55.012,Info_measure_main_exp,2022.2.2,Win32,59.92329818,,,,,,,,,,,,,,,,,,masks/mask_005.jpg,,,,,,,,,,,,,,,,,,,,,,,,,,,,,,,,,,,,,,,,,,0,4,4,4,1,,,,,,,,,,,,,,,,,,,,,,,,,,,,,,,,,,,,,,,,,,,,,,
138003,001,2022-11-20_21h18.55.012,Info_measure_main_exp,2022.2.2,Win32,59.92329818,,,,,,,,,,,,,,,,,,masks/mask_003.jpg,,,,,,,,,,,,,,,,,,,,,,,,,,,,,,,,,,,,,,,,,,,,,,,0,0,0,2,1,,,,,,,,,,,,,,,,,,,,,,,,,,,,,,,,,,,,,,,,,
138003,001,2022-11-20_21h18.55.012,Info_measure_main_exp,2022.2.2,Win32,59.92329818,,,,,,,,,,,,,,,,,,masks/mask_001.jpg,,,,,,,,,,,,,,,,,,,,,,,,,,,,,,,,,,,,,,,,,,,,,,,0,1,1,0,1,,,,,,,,,,,,,,,,,,,,,,,,,,,,,,,,,,,,,,,,,
138003,001,2022-11-20_21h18.55.012,Info_measure_main_exp,2022.2.2,Win32,59.92329818,,,,,,,,,,,,,,,,,,masks/mask_002.jpg,,,,,,,,,,,,,,,,,,,,,,,,,,,,,,,,,,,,,,,,,,,,,,,0,2,2,1,1,,,,,,,,,,,,,,,,,,,,,,,,,,,,,,,,,,,,,,,,,
138003,001,2022-11-20_21h18.55.012,Info_measure_main_exp,2022.2.2,Win32,59.92329818,,,,,,,,,,,,,,,,,,masks/mask_004.jpg,,,,,,,,,,,,,,,,,,,,,,,,,,,,,,,,,,,,,,,,,,,,,,,0,3,3,3,1,,,,,,,,,,,,,,,,,,,,,,,,,,,,,,,,,,,,,,,,,
138003,001,2022-11-20_21h18.55.012,Info_measure_main_exp,2022.2.2,Win32,59.92329818,,,,,,,,,,,,,,,,,,masks/mask_005.jpg,,,,,,,,,,,,,,,,,,,,,,,,,,,,,,,,,,,,,,,,,,,,,,,0,4,4,4,1,,,,,,,,,,,,,,,,,,,,,,,,,,,,,,,,,,,,,,,,,
138003,001,2022-11-20_21h18.55.012,Info_measure_main_exp,2022.2.2,Win32,59.92329818,,,,,,,,,,,,,,,,,,,,,,,,,,,,,,7,0.339,1,,,,,,,,,,,,0,131,5,5,2082,2238,absent_patch/patch0002082.jpg,absent_patch/patch0002238.jpg,,,,,,,,,,,,,,,,,,,0.037037037,0.092592593,1,0,0,response1disk,19,0.010185171,0.006481489,1,0,0,center_square,0,18,18,22,1,,,,,,,,,,,,,,,,,,,,,,,
138003,001,2022-11-20_21h18.55.012,Info_measure_main_exp,2022.2.2,Win32,59.92329818,,,,,,,,,,,,,,,,,,masks/mask_004.jpg,,,,,,,,,,,,,,,,,,,,,,,,,,,,,,,,,,,,,,,,,,0,0,0,3,1,,,,,,,,,,,,,,,,,,,,,,,,,,,,,,,,,,,,,,,,,,,,,,
138003,001,2022-11-20_21h18.55.012,Info_measure_main_exp,2022.2.2,Win32,59.92329818,,,,,,,,,,,,,,,,,,masks/mask_001.jpg,,,,,,,,,,,,,,,,,,,,,,,,,,,,,,,,,,,,,,,,,,0,1,1,0,1,,,,,,,,,,,,,,,,,,,,,,,,,,,,,,,,,,,,,,,,,,,,,,
138003,001,2022-11-20_21h18.55.012,Info_measure_main_exp,2022.2.2,Win32,59.92329818,,,,,,,,,,,,,,,,,,masks/mask_003.jpg,,,,,,,,,,,,,,,,,,,,,,,,,,,,,,,,,,,,,,,,,,0,2,2,2,1,,,,,,,,,,,,,,,,,,,,,,,,,,,,,,,,,,,,,,,,,,,,,,
138003,001,2022-11-20_21h18.55.012,Info_measure_main_exp,2022.2.2,Win32,59.92329818,,,,,,,,,,,,,,,,,,masks/mask_005.jpg,,,,,,,,,,,,,,,,,,,,,,,,,,,,,,,,,,,,,,,,,,0,3,3,4,1,,,,,,,,,,,,,,,,,,,,,,,,,,,,,,,,,,,,,,,,,,,,,,
138003,001,2022-11-20_21h18.55.012,Info_measure_main_exp,2022.2.2,Win32,59.92329818,,,,,,,,,,,,,,,,,,masks/mask_002.jpg,,,,,,,,,,,,,,,,,,,,,,,,,,,,,,,,,,,,,,,,,,0,4,4,1,1,,,,,,,,,,,,,,,,,,,,,,,,,,,,,,,,,,,,,,,,,,,,,,
138003,001,2022-11-20_21h18.55.012,Info_measure_main_exp,2022.2.2,Win32,59.92329818,,,,,,,,,,,,,,,,,,masks/mask_005.jpg,,,,,,,,,,,,,,,,,,,,,,,,,,,,,,,,,,,,,,,,,,,,,,,0,0,0,4,1,,,,,,,,,,,,,,,,,,,,,,,,,,,,,,,,,,,,,,,,,
138003,001,2022-11-20_21h18.55.012,Info_measure_main_exp,2022.2.2,Win32,59.92329818,,,,,,,,,,,,,,,,,,masks/mask_003.jpg,,,,,,,,,,,,,,,,,,,,,,,,,,,,,,,,,,,,,,,,,,,,,,,0,1,1,2,1,,,,,,,,,,,,,,,,,,,,,,,,,,,,,,,,,,,,,,,,,
138003,001,2022-11-20_21h18.55.012,Info_measure_main_exp,2022.2.2,Win32,59.92329818,,,,,,,,,,,,,,,,,,masks/mask_001.jpg,,,,,,,,,,,,,,,,,,,,,,,,,,,,,,,,,,,,,,,,,,,,,,,0,2,2,0,1,,,,,,,,,,,,,,,,,,,,,,,,,,,,,,,,,,,,,,,,,
138003,001,2022-11-20_21h18.55.012,Info_measure_main_exp,2022.2.2,Win32,59.92329818,,,,,,,,,,,,,,,,,,masks/mask_004.jpg,,,,,,,,,,,,,,,,,,,,,,,,,,,,,,,,,,,,,,,,,,,,,,,0,3,3,3,1,,,,,,,,,,,,,,,,,,,,,,,,,,,,,,,,,,,,,,,,,
138003,001,2022-11-20_21h18.55.012,Info_measure_main_exp,2022.2.2,Win32,59.92329818,,,,,,,,,,,,,,,,,,masks/mask_002.jpg,,,,,,,,,,,,,,,,,,,,,,,,,,,,,,,,,,,,,,,,,,,,,,,0,4,4,1,1,,,,,,,,,,,,,,,,,,,,,,,,,,,,,,,,,,,,,,,,,
138003,001,2022-11-20_21h18.55.012,Info_measure_main_exp,2022.2.2,Win32,59.92329818,,,,,,,,,,,,,,,,,,,,,,,,,,,,,,0,0.4001,1,,,,,,,,,,,,0,131,5,5,2178,2178,absent_patch/patch0002178.jpg,absent_patch/patch0002178.jpg,,,,,,,,,,,,,,,,,,,-0.054629644,0.159259266,1,0,0,response7disk,20,-0.001851824,0.009259259,1,0,0,center_square,0,19,19,98,1,,,,,,,,,,,,,,,,,,,,,,,
138003,001,2022-11-20_21h18.55.012,Info_measure_main_exp,2022.2.2,Win32,59.92329818,,,,,,,,,,,,,,,,,,masks/mask_003.jpg,,,,,,,,,,,,,,,,,,,,,,,,,,,,,,,,,,,,,,,,,,0,0,0,2,1,,,,,,,,,,,,,,,,,,,,,,,,,,,,,,,,,,,,,,,,,,,,,,
138003,001,2022-11-20_21h18.55.012,Info_measure_main_exp,2022.2.2,Win32,59.92329818,,,,,,,,,,,,,,,,,,masks/mask_001.jpg,,,,,,,,,,,,,,,,,,,,,,,,,,,,,,,,,,,,,,,,,,0,1,1,0,1,,,,,,,,,,,,,,,,,,,,,,,,,,,,,,,,,,,,,,,,,,,,,,
138003,001,2022-11-20_21h18.55.012,Info_measure_main_exp,2022.2.2,Win32,59.92329818,,,,,,,,,,,,,,,,,,masks/mask_004.jpg,,,,,,,,,,,,,,,,,,,,,,,,,,,,,,,,,,,,,,,,,,0,2,2,3,1,,,,,,,,,,,,,,,,,,,,,,,,,,,,,,,,,,,,,,,,,,,,,,
138003,001,2022-11-20_21h18.55.012,Info_measure_main_exp,2022.2.2,Win32,59.92329818,,,,,,,,,,,,,,,,,,masks/mask_002.jpg,,,,,,,,,,,,,,,,,,,,,,,,,,,,,,,,,,,,,,,,,,0,3,3,1,1,,,,,,,,,,,,,,,,,,,,,,,,,,,,,,,,,,,,,,,,,,,,,,
138003,001,2022-11-20_21h18.55.012,Info_measure_main_exp,2022.2.2,Win32,59.92329818,,,,,,,,,,,,,,,,,,masks/mask_005.jpg,,,,,,,,,,,,,,,,,,,,,,,,,,,,,,,,,,,,,,,,,,0,4,4,4,1,,,,,,,,,,,,,,,,,,,,,,,,,,,,,,,,,,,,,,,,,,,,,,
138003,001,2022-11-20_21h18.55.012,Info_measure_main_exp,2022.2.2,Win32,59.92329818,,,,,,,,,,,,,,,,,,masks/mask_001.jpg,,,,,,,,,,,,,,,,,,,,,,,,,,,,,,,,,,,,,,,,,,,,,,,0,0,0,0,1,,,,,,,,,,,,,,,,,,,,,,,,,,,,,,,,,,,,,,,,,
138003,001,2022-11-20_21h18.55.012,Info_measure_main_exp,2022.2.2,Win32,59.92329818,,,,,,,,,,,,,,,,,,masks/mask_005.jpg,,,,,,,,,,,,,,,,,,,,,,,,,,,,,,,,,,,,,,,,,,,,,,,0,1,1,4,1,,,,,,,,,,,,,,,,,,,,,,,,,,,,,,,,,,,,,,,,,
138003,001,2022-11-20_21h18.55.012,Info_measure_main_exp,2022.2.2,Win32,59.92329818,,,,,,,,,,,,,,,,,,masks/mask_002.jpg,,,,,,,,,,,,,,,,,,,,,,,,,,,,,,,,,,,,,,,,,,,,,,,0,2,2,1,1,,,,,,,,,,,,,,,,,,,,,,,,,,,,,,,,,,,,,,,,,
138003,001,2022-11-20_21h18.55.012,Info_measure_main_exp,2022.2.2,Win32,59.92329818,,,,,,,,,,,,,,,,,,masks/mask_003.jpg,,,,,,,,,,,,,,,,,,,,,,,,,,,,,,,,,,,,,,,,,,,,,,,0,3,3,2,1,,,,,,,,,,,,,,,,,,,,,,,,,,,,,,,,,,,,,,,,,
138003,001,2022-11-20_21h18.55.012,Info_measure_main_exp,2022.2.2,Win32,59.92329818,,,,,,,,,,,,,,,,,,masks/mask_004.jpg,,,,,,,,,,,,,,,,,,,,,,,,,,,,,,,,,,,,,,,,,,,,,,,0,4,4,3,1,,,,,,,,,,,,,,,,,,,,,,,,,,,,,,,,,,,,,,,,,
138003,001,2022-11-20_21h18.55.012,Info_measure_main_exp,2022.2.2,Win32,59.92329818,,,,,,,,,,,,,,,,,,,,,,,,,,,,,,1,0.5834,1,,,,,,,,,,,,0,131,5,5,1986,2154,absent_patch/patch0001986.jpg,absent_patch/patch0002154.jpg,,,,,,,,,,,,,,,,,,,-0.077777792,0.0074074,1,0,0,response7disk,21,-0.003703718,-0.006481489,1,0,0,center_square,0,20,20,36,1,,,,,,,,,,,,,,,,,,,,,,,
138003,001,2022-11-20_21h18.55.012,Info_measure_main_exp,2022.2.2,Win32,59.92329818,,,,,,,,,,,,,,,,,,masks/mask_005.jpg,,,,,,,,,,,,,,,,,,,,,,,,,,,,,,,,,,,,,,,,,,0,0,0,4,1,,,,,,,,,,,,,,,,,,,,,,,,,,,,,,,,,,,,,,,,,,,,,,
138003,001,2022-11-20_21h18.55.012,Info_measure_main_exp,2022.2.2,Win32,59.92329818,,,,,,,,,,,,,,,,,,masks/mask_001.jpg,,,,,,,,,,,,,,,,,,,,,,,,,,,,,,,,,,,,,,,,,,0,1,1,0,1,,,,,,,,,,,,,,,,,,,,,,,,,,,,,,,,,,,,,,,,,,,,,,
138003,001,2022-11-20_21h18.55.012,Info_measure_main_exp,2022.2.2,Win32,59.92329818,,,,,,,,,,,,,,,,,,masks/mask_002.jpg,,,,,,,,,,,,,,,,,,,,,,,,,,,,,,,,,,,,,,,,,,0,2,2,1,1,,,,,,,,,,,,,,,,,,,,,,,,,,,,,,,,,,,,,,,,,,,,,,
138003,001,2022-11-20_21h18.55.012,Info_measure_main_exp,2022.2.2,Win32,59.92329818,,,,,,,,,,,,,,,,,,masks/mask_004.jpg,,,,,,,,,,,,,,,,,,,,,,,,,,,,,,,,,,,,,,,,,,0,3,3,3,1,,,,,,,,,,,,,,,,,,,,,,,,,,,,,,,,,,,,,,,,,,,,,,
138003,001,2022-11-20_21h18.55.012,Info_measure_main_exp,2022.2.2,Win32,59.92329818,,,,,,,,,,,,,,,,,,masks/mask_003.jpg,,,,,,,,,,,,,,,,,,,,,,,,,,,,,,,,,,,,,,,,,,0,4,4,2,1,,,,,,,,,,,,,,,,,,,,,,,,,,,,,,,,,,,,,,,,,,,,,,
138003,001,2022-11-20_21h18.55.012,Info_measure_main_exp,2022.2.2,Win32,59.92329818,,,,,,,,,,,,,,,,,,masks/mask_004.jpg,,,,,,,,,,,,,,,,,,,,,,,,,,,,,,,,,,,,,,,,,,,,,,,0,0,0,3,1,,,,,,,,,,,,,,,,,,,,,,,,,,,,,,,,,,,,,,,,,
138003,001,2022-11-20_21h18.55.012,Info_measure_main_exp,2022.2.2,Win32,59.92329818,,,,,,,,,,,,,,,,,,masks/mask_005.jpg,,,,,,,,,,,,,,,,,,,,,,,,,,,,,,,,,,,,,,,,,,,,,,,0,1,1,4,1,,,,,,,,,,,,,,,,,,,,,,,,,,,,,,,,,,,,,,,,,
138003,001,2022-11-20_21h18.55.012,Info_measure_main_exp,2022.2.2,Win32,59.92329818,,,,,,,,,,,,,,,,,,masks/mask_003.jpg,,,,,,,,,,,,,,,,,,,,,,,,,,,,,,,,,,,,,,,,,,,,,,,0,2,2,2,1,,,,,,,,,,,,,,,,,,,,,,,,,,,,,,,,,,,,,,,,,
138003,001,2022-11-20_21h18.55.012,Info_measure_main_exp,2022.2.2,Win32,59.92329818,,,,,,,,,,,,,,,,,,masks/mask_002.jpg,,,,,,,,,,,,,,,,,,,,,,,,,,,,,,,,,,,,,,,,,,,,,,,0,3,3,1,1,,,,,,,,,,,,,,,,,,,,,,,,,,,,,,,,,,,,,,,,,
138003,001,2022-11-20_21h18.55.012,Info_measure_main_exp,2022.2.2,Win32,59.92329818,,,,,,,,,,,,,,,,,,masks/mask_001.jpg,,,,,,,,,,,,,,,,,,,,,,,,,,,,,,,,,,,,,,,,,,,,,,,0,4,4,0,1,,,,,,,,,,,,,,,,,,,,,,,,,,,,,,,,,,,,,,,,,
138003,001,2022-11-20_21h18.55.012,Info_measure_main_exp,2022.2.2,Win32,59.92329818,,,,,,,,,,,,,,,,,,,,,,,,,,,,,,0,0.4443,1,,,,,,,,,,,,0,131,5,5,2298,2298,absent_patch/patch0002298.jpg,absent_patch/patch0002298.jpg,,,,,,,,,,,,,,,,,,,-0.031481496,0.073148127,1,0,0,response7disk,22,0.00462963,-0.0074074,1,0,0,center_square,0,21,21,37,1,,,,,,,,,,,,,,,,,,,,,,,
138003,001,2022-11-20_21h18.55.012,Info_measure_main_exp,2022.2.2,Win32,59.92329818,,,,,,,,,,,,,,,,,,masks/mask_004.jpg,,,,,,,,,,,,,,,,,,,,,,,,,,,,,,,,,,,,,,,,,,0,0,0,3,1,,,,,,,,,,,,,,,,,,,,,,,,,,,,,,,,,,,,,,,,,,,,,,
138003,001,2022-11-20_21h18.55.012,Info_measure_main_exp,2022.2.2,Win32,59.92329818,,,,,,,,,,,,,,,,,,masks/mask_003.jpg,,,,,,,,,,,,,,,,,,,,,,,,,,,,,,,,,,,,,,,,,,0,1,1,2,1,,,,,,,,,,,,,,,,,,,,,,,,,,,,,,,,,,,,,,,,,,,,,,
138003,001,2022-11-20_21h18.55.012,Info_measure_main_exp,2022.2.2,Win32,59.92329818,,,,,,,,,,,,,,,,,,masks/mask_001.jpg,,,,,,,,,,,,,,,,,,,,,,,,,,,,,,,,,,,,,,,,,,0,2,2,0,1,,,,,,,,,,,,,,,,,,,,,,,,,,,,,,,,,,,,,,,,,,,,,,
138003,001,2022-11-20_21h18.55.012,Info_measure_main_exp,2022.2.2,Win32,59.92329818,,,,,,,,,,,,,,,,,,masks/mask_005.jpg,,,,,,,,,,,,,,,,,,,,,,,,,,,,,,,,,,,,,,,,,,0,3,3,4,1,,,,,,,,,,,,,,,,,,,,,,,,,,,,,,,,,,,,,,,,,,,,,,
138003,001,2022-11-20_21h18.55.012,Info_measure_main_exp,2022.2.2,Win32,59.92329818,,,,,,,,,,,,,,,,,,masks/mask_002.jpg,,,,,,,,,,,,,,,,,,,,,,,,,,,,,,,,,,,,,,,,,,0,4,4,1,1,,,,,,,,,,,,,,,,,,,,,,,,,,,,,,,,,,,,,,,,,,,,,,
138003,001,2022-11-20_21h18.55.012,Info_measure_main_exp,2022.2.2,Win32,59.92329818,,,,,,,,,,,,,,,,,,masks/mask_005.jpg,,,,,,,,,,,,,,,,,,,,,,,,,,,,,,,,,,,,,,,,,,,,,,,0,0,0,4,1,,,,,,,,,,,,,,,,,,,,,,,,,,,,,,,,,,,,,,,,,
138003,001,2022-11-20_21h18.55.012,Info_measure_main_exp,2022.2.2,Win32,59.92329818,,,,,,,,,,,,,,,,,,masks/mask_004.jpg,,,,,,,,,,,,,,,,,,,,,,,,,,,,,,,,,,,,,,,,,,,,,,,0,1,1,3,1,,,,,,,,,,,,,,,,,,,,,,,,,,,,,,,,,,,,,,,,,
138003,001,2022-11-20_21h18.55.012,Info_measure_main_exp,2022.2.2,Win32,59.92329818,,,,,,,,,,,,,,,,,,masks/mask_003.jpg,,,,,,,,,,,,,,,,,,,,,,,,,,,,,,,,,,,,,,,,,,,,,,,0,2,2,2,1,,,,,,,,,,,,,,,,,,,,,,,,,,,,,,,,,,,,,,,,,
138003,001,2022-11-20_21h18.55.012,Info_measure_main_exp,2022.2.2,Win32,59.92329818,,,,,,,,,,,,,,,,,,masks/mask_002.jpg,,,,,,,,,,,,,,,,,,,,,,,,,,,,,,,,,,,,,,,,,,,,,,,0,3,3,1,1,,,,,,,,,,,,,,,,,,,,,,,,,,,,,,,,,,,,,,,,,
138003,001,2022-11-20_21h18.55.012,Info_measure_main_exp,2022.2.2,Win32,59.92329818,,,,,,,,,,,,,,,,,,masks/mask_001.jpg,,,,,,,,,,,,,,,,,,,,,,,,,,,,,,,,,,,,,,,,,,,,,,,0,4,4,0,1,,,,,,,,,,,,,,,,,,,,,,,,,,,,,,,,,,,,,,,,,
138003,001,2022-11-20_21h18.55.012,Info_measure_main_exp,2022.2.2,Win32,59.92329818,,,,,,,,,,,,,,,,,,,,,,,,,,,,,,7,0.3722,1,,,,,,,,,,,,0,131,5,5,2298,2178,absent_patch/patch0002298.jpg,absent_patch/patch0002178.jpg,,,,,,,,,,,,,,,,,,,0.029629672,0.101851852,1,0,0,response1disk,23,-0.001851824,-0.00462963,1,0,0,center_square,0,22,22,84,1,,,,,,,,,,,,,,,,,,,,,,,
138003,001,2022-11-20_21h18.55.012,Info_measure_main_exp,2022.2.2,Win32,59.92329818,,,,,,,,,,,,,,,,,,masks/mask_003.jpg,,,,,,,,,,,,,,,,,,,,,,,,,,,,,,,,,,,,,,,,,,0,0,0,2,1,,,,,,,,,,,,,,,,,,,,,,,,,,,,,,,,,,,,,,,,,,,,,,
138003,001,2022-11-20_21h18.55.012,Info_measure_main_exp,2022.2.2,Win32,59.92329818,,,,,,,,,,,,,,,,,,masks/mask_001.jpg,,,,,,,,,,,,,,,,,,,,,,,,,,,,,,,,,,,,,,,,,,0,1,1,0,1,,,,,,,,,,,,,,,,,,,,,,,,,,,,,,,,,,,,,,,,,,,,,,
138003,001,2022-11-20_21h18.55.012,Info_measure_main_exp,2022.2.2,Win32,59.92329818,,,,,,,,,,,,,,,,,,masks/mask_004.jpg,,,,,,,,,,,,,,,,,,,,,,,,,,,,,,,,,,,,,,,,,,0,2,2,3,1,,,,,,,,,,,,,,,,,,,,,,,,,,,,,,,,,,,,,,,,,,,,,,
138003,001,2022-11-20_21h18.55.012,Info_measure_main_exp,2022.2.2,Win32,59.92329818,,,,,,,,,,,,,,,,,,masks/mask_002.jpg,,,,,,,,,,,,,,,,,,,,,,,,,,,,,,,,,,,,,,,,,,0,3,3,1,1,,,,,,,,,,,,,,,,,,,,,,,,,,,,,,,,,,,,,,,,,,,,,,
138003,001,2022-11-20_21h18.55.012,Info_measure_main_exp,2022.2.2,Win32,59.92329818,,,,,,,,,,,,,,,,,,masks/mask_005.jpg,,,,,,,,,,,,,,,,,,,,,,,,,,,,,,,,,,,,,,,,,,0,4,4,4,1,,,,,,,,,,,,,,,,,,,,,,,,,,,,,,,,,,,,,,,,,,,,,,
138003,001,2022-11-20_21h18.55.012,Info_measure_main_exp,2022.2.2,Win32,59.92329818,,,,,,,,,,,,,,,,,,masks/mask_003.jpg,,,,,,,,,,,,,,,,,,,,,,,,,,,,,,,,,,,,,,,,,,,,,,,0,0,0,2,1,,,,,,,,,,,,,,,,,,,,,,,,,,,,,,,,,,,,,,,,,
138003,001,2022-11-20_21h18.55.012,Info_measure_main_exp,2022.2.2,Win32,59.92329818,,,,,,,,,,,,,,,,,,masks/mask_001.jpg,,,,,,,,,,,,,,,,,,,,,,,,,,,,,,,,,,,,,,,,,,,,,,,0,1,1,0,1,,,,,,,,,,,,,,,,,,,,,,,,,,,,,,,,,,,,,,,,,
138003,001,2022-11-20_21h18.55.012,Info_measure_main_exp,2022.2.2,Win32,59.92329818,,,,,,,,,,,,,,,,,,masks/mask_005.jpg,,,,,,,,,,,,,,,,,,,,,,,,,,,,,,,,,,,,,,,,,,,,,,,0,2,2,4,1,,,,,,,,,,,,,,,,,,,,,,,,,,,,,,,,,,,,,,,,,
138003,001,2022-11-20_21h18.55.012,Info_measure_main_exp,2022.2.2,Win32,59.92329818,,,,,,,,,,,,,,,,,,masks/mask_004.jpg,,,,,,,,,,,,,,,,,,,,,,,,,,,,,,,,,,,,,,,,,,,,,,,0,3,3,3,1,,,,,,,,,,,,,,,,,,,,,,,,,,,,,,,,,,,,,,,,,
138003,001,2022-11-20_21h18.55.012,Info_measure_main_exp,2022.2.2,Win32,59.92329818,,,,,,,,,,,,,,,,,,masks/mask_002.jpg,,,,,,,,,,,,,,,,,,,,,,,,,,,,,,,,,,,,,,,,,,,,,,,0,4,4,1,1,,,,,,,,,,,,,,,,,,,,,,,,,,,,,,,,,,,,,,,,,
138003,001,2022-11-20_21h18.55.012,Info_measure_main_exp,2022.2.2,Win32,59.92329818,,,,,,,,,,,,,,,,,,,,,,,,,,,,,,2,0.5727,1,,,,,,,,,,,,0,131,5,5,2274,2166,absent_patch/patch0002274.jpg,absent_patch/patch0002166.jpg,,,,,,,,,,,,,,,,,,,-0.104629587,-0.031481496,1,0,0,response5disk,24,0.001851894,0.002777771,1,0,0,center_square,0,23,23,78,1,,,,,,,,,,,,,,,,,,,,,,,
138003,001,2022-11-20_21h18.55.012,Info_measure_main_exp,2022.2.2,Win32,59.92329818,,,,,,,,,,,,,,,,,,masks/mask_005.jpg,,,,,,,,,,,,,,,,,,,,,,,,,,,,,,,,,,,,,,,,,,0,0,0,4,1,,,,,,,,,,,,,,,,,,,,,,,,,,,,,,,,,,,,,,,,,,,,,,
138003,001,2022-11-20_21h18.55.012,Info_measure_main_exp,2022.2.2,Win32,59.92329818,,,,,,,,,,,,,,,,,,masks/mask_002.jpg,,,,,,,,,,,,,,,,,,,,,,,,,,,,,,,,,,,,,,,,,,0,1,1,1,1,,,,,,,,,,,,,,,,,,,,,,,,,,,,,,,,,,,,,,,,,,,,,,
138003,001,2022-11-20_21h18.55.012,Info_measure_main_exp,2022.2.2,Win32,59.92329818,,,,,,,,,,,,,,,,,,masks/mask_003.jpg,,,,,,,,,,,,,,,,,,,,,,,,,,,,,,,,,,,,,,,,,,0,2,2,2,1,,,,,,,,,,,,,,,,,,,,,,,,,,,,,,,,,,,,,,,,,,,,,,
138003,001,2022-11-20_21h18.55.012,Info_measure_main_exp,2022.2.2,Win32,59.92329818,,,,,,,,,,,,,,,,,,masks/mask_004.jpg,,,,,,,,,,,,,,,,,,,,,,,,,,,,,,,,,,,,,,,,,,0,3,3,3,1,,,,,,,,,,,,,,,,,,,,,,,,,,,,,,,,,,,,,,,,,,,,,,
138003,001,2022-11-20_21h18.55.012,Info_measure_main_exp,2022.2.2,Win32,59.92329818,,,,,,,,,,,,,,,,,,masks/mask_001.jpg,,,,,,,,,,,,,,,,,,,,,,,,,,,,,,,,,,,,,,,,,,0,4,4,0,1,,,,,,,,,,,,,,,,,,,,,,,,,,,,,,,,,,,,,,,,,,,,,,
138003,001,2022-11-20_21h18.55.012,Info_measure_main_exp,2022.2.2,Win32,59.92329818,,,,,,,,,,,,,,,,,,masks/mask_005.jpg,,,,,,,,,,,,,,,,,,,,,,,,,,,,,,,,,,,,,,,,,,,,,,,0,0,0,4,1,,,,,,,,,,,,,,,,,,,,,,,,,,,,,,,,,,,,,,,,,
138003,001,2022-11-20_21h18.55.012,Info_measure_main_exp,2022.2.2,Win32,59.92329818,,,,,,,,,,,,,,,,,,masks/mask_001.jpg,,,,,,,,,,,,,,,,,,,,,,,,,,,,,,,,,,,,,,,,,,,,,,,0,1,1,0,1,,,,,,,,,,,,,,,,,,,,,,,,,,,,,,,,,,,,,,,,,
138003,001,2022-11-20_21h18.55.012,Info_measure_main_exp,2022.2.2,Win32,59.92329818,,,,,,,,,,,,,,,,,,masks/mask_003.jpg,,,,,,,,,,,,,,,,,,,,,,,,,,,,,,,,,,,,,,,,,,,,,,,0,2,2,2,1,,,,,,,,,,,,,,,,,,,,,,,,,,,,,,,,,,,,,,,,,
138003,001,2022-11-20_21h18.55.012,Info_measure_main_exp,2022.2.2,Win32,59.92329818,,,,,,,,,,,,,,,,,,masks/mask_004.jpg,,,,,,,,,,,,,,,,,,,,,,,,,,,,,,,,,,,,,,,,,,,,,,,0,3,3,3,1,,,,,,,,,,,,,,,,,,,,,,,,,,,,,,,,,,,,,,,,,
138003,001,2022-11-20_21h18.55.012,Info_measure_main_exp,2022.2.2,Win32,59.92329818,,,,,,,,,,,,,,,,,,masks/mask_002.jpg,,,,,,,,,,,,,,,,,,,,,,,,,,,,,,,,,,,,,,,,,,,,,,,0,4,4,1,1,,,,,,,,,,,,,,,,,,,,,,,,,,,,,,,,,,,,,,,,,
138003,001,2022-11-20_21h18.55.012,Info_measure_main_exp,2022.2.2,Win32,59.92329818,,,,,,,,,,,,,,,,,,,,,,,,,,,,,,7,0.3779,1,,,,,,,,,,,,0,131,5,5,1974,2298,absent_patch/patch0001974.jpg,absent_patch/patch0002298.jpg,,,,,,,,,,,,,,,,,,,0.034259302,0.113888882,1,0,0,response1disk,25,0.012962977,-0.010185206,1,0,0,center_square,0,24,24,6,1,,,,,,,,,,,,,,,,,,,,,,,
138003,001,2022-11-20_21h18.55.012,Info_measure_main_exp,2022.2.2,Win32,59.92329818,,,,,,,,,,,,,,,,,,masks/mask_004.jpg,,,,,,,,,,,,,,,,,,,,,,,,,,,,,,,,,,,,,,,,,,0,0,0,3,1,,,,,,,,,,,,,,,,,,,,,,,,,,,,,,,,,,,,,,,,,,,,,,
138003,001,2022-11-20_21h18.55.012,Info_measure_main_exp,2022.2.2,Win32,59.92329818,,,,,,,,,,,,,,,,,,masks/mask_001.jpg,,,,,,,,,,,,,,,,,,,,,,,,,,,,,,,,,,,,,,,,,,0,1,1,0,1,,,,,,,,,,,,,,,,,,,,,,,,,,,,,,,,,,,,,,,,,,,,,,
138003,001,2022-11-20_21h18.55.012,Info_measure_main_exp,2022.2.2,Win32,59.92329818,,,,,,,,,,,,,,,,,,masks/mask_002.jpg,,,,,,,,,,,,,,,,,,,,,,,,,,,,,,,,,,,,,,,,,,0,2,2,1,1,,,,,,,,,,,,,,,,,,,,,,,,,,,,,,,,,,,,,,,,,,,,,,
138003,001,2022-11-20_21h18.55.012,Info_measure_main_exp,2022.2.2,Win32,59.92329818,,,,,,,,,,,,,,,,,,masks/mask_005.jpg,,,,,,,,,,,,,,,,,,,,,,,,,,,,,,,,,,,,,,,,,,0,3,3,4,1,,,,,,,,,,,,,,,,,,,,,,,,,,,,,,,,,,,,,,,,,,,,,,
138003,001,2022-11-20_21h18.55.012,Info_measure_main_exp,2022.2.2,Win32,59.92329818,,,,,,,,,,,,,,,,,,masks/mask_003.jpg,,,,,,,,,,,,,,,,,,,,,,,,,,,,,,,,,,,,,,,,,,0,4,4,2,1,,,,,,,,,,,,,,,,,,,,,,,,,,,,,,,,,,,,,,,,,,,,,,
138003,001,2022-11-20_21h18.55.012,Info_measure_main_exp,2022.2.2,Win32,59.92329818,,,,,,,,,,,,,,,,,,masks/mask_004.jpg,,,,,,,,,,,,,,,,,,,,,,,,,,,,,,,,,,,,,,,,,,,,,,,0,0,0,3,1,,,,,,,,,,,,,,,,,,,,,,,,,,,,,,,,,,,,,,,,,
138003,001,2022-11-20_21h18.55.012,Info_measure_main_exp,2022.2.2,Win32,59.92329818,,,,,,,,,,,,,,,,,,masks/mask_005.jpg,,,,,,,,,,,,,,,,,,,,,,,,,,,,,,,,,,,,,,,,,,,,,,,0,1,1,4,1,,,,,,,,,,,,,,,,,,,,,,,,,,,,,,,,,,,,,,,,,
138003,001,2022-11-20_21h18.55.012,Info_measure_main_exp,2022.2.2,Win32,59.92329818,,,,,,,,,,,,,,,,,,masks/mask_002.jpg,,,,,,,,,,,,,,,,,,,,,,,,,,,,,,,,,,,,,,,,,,,,,,,0,2,2,1,1,,,,,,,,,,,,,,,,,,,,,,,,,,,,,,,,,,,,,,,,,
138003,001,2022-11-20_21h18.55.012,Info_measure_main_exp,2022.2.2,Win32,59.92329818,,,,,,,,,,,,,,,,,,masks/mask_001.jpg,,,,,,,,,,,,,,,,,,,,,,,,,,,,,,,,,,,,,,,,,,,,,,,0,3,3,0,1,,,,,,,,,,,,,,,,,,,,,,,,,,,,,,,,,,,,,,,,,
138003,001,2022-11-20_21h18.55.012,Info_measure_main_exp,2022.2.2,Win32,59.92329818,,,,,,,,,,,,,,,,,,masks/mask_003.jpg,,,,,,,,,,,,,,,,,,,,,,,,,,,,,,,,,,,,,,,,,,,,,,,0,4,4,2,1,,,,,,,,,,,,,,,,,,,,,,,,,,,,,,,,,,,,,,,,,
138003,001,2022-11-20_21h18.55.012,Info_measure_main_exp,2022.2.2,Win32,59.92329818,,,,,,,,,,,,,,,,,,,,,,,,,,,,,,3,0.6,1,,,,,,,,,,,,0,131,5,5,2238,2166,absent_patch/patch0002238.jpg,absent_patch/patch0002166.jpg,,,,,,,,,,,,,,,,,,,-0.005555541,-0.080555563,1,0,0,response5disk,26,0.008333347,-0.01203703,1,0,0,center_square,0,25,25,118,1,,,,,,,,,,,,,,,,,,,,,,,
138003,001,2022-11-20_21h18.55.012,Info_measure_main_exp,2022.2.2,Win32,59.92329818,,,,,,,,,,,,,,,,,,masks/mask_003.jpg,,,,,,,,,,,,,,,,,,,,,,,,,,,,,,,,,,,,,,,,,,0,0,0,2,1,,,,,,,,,,,,,,,,,,,,,,,,,,,,,,,,,,,,,,,,,,,,,,
138003,001,2022-11-20_21h18.55.012,Info_measure_main_exp,2022.2.2,Win32,59.92329818,,,,,,,,,,,,,,,,,,masks/mask_005.jpg,,,,,,,,,,,,,,,,,,,,,,,,,,,,,,,,,,,,,,,,,,0,1,1,4,1,,,,,,,,,,,,,,,,,,,,,,,,,,,,,,,,,,,,,,,,,,,,,,
138003,001,2022-11-20_21h18.55.012,Info_measure_main_exp,2022.2.2,Win32,59.92329818,,,,,,,,,,,,,,,,,,masks/mask_004.jpg,,,,,,,,,,,,,,,,,,,,,,,,,,,,,,,,,,,,,,,,,,0,2,2,3,1,,,,,,,,,,,,,,,,,,,,,,,,,,,,,,,,,,,,,,,,,,,,,,
138003,001,2022-11-20_21h18.55.012,Info_measure_main_exp,2022.2.2,Win32,59.92329818,,,,,,,,,,,,,,,,,,masks/mask_001.jpg,,,,,,,,,,,,,,,,,,,,,,,,,,,,,,,,,,,,,,,,,,0,3,3,0,1,,,,,,,,,,,,,,,,,,,,,,,,,,,,,,,,,,,,,,,,,,,,,,
138003,001,2022-11-20_21h18.55.012,Info_measure_main_exp,2022.2.2,Win32,59.92329818,,,,,,,,,,,,,,,,,,masks/mask_002.jpg,,,,,,,,,,,,,,,,,,,,,,,,,,,,,,,,,,,,,,,,,,0,4,4,1,1,,,,,,,,,,,,,,,,,,,,,,,,,,,,,,,,,,,,,,,,,,,,,,
138003,001,2022-11-20_21h18.55.012,Info_measure_main_exp,2022.2.2,Win32,59.92329818,,,,,,,,,,,,,,,,,,masks/mask_001.jpg,,,,,,,,,,,,,,,,,,,,,,,,,,,,,,,,,,,,,,,,,,,,,,,0,0,0,0,1,,,,,,,,,,,,,,,,,,,,,,,,,,,,,,,,,,,,,,,,,
138003,001,2022-11-20_21h18.55.012,Info_measure_main_exp,2022.2.2,Win32,59.92329818,,,,,,,,,,,,,,,,,,masks/mask_003.jpg,,,,,,,,,,,,,,,,,,,,,,,,,,,,,,,,,,,,,,,,,,,,,,,0,1,1,2,1,,,,,,,,,,,,,,,,,,,,,,,,,,,,,,,,,,,,,,,,,
138003,001,2022-11-20_21h18.55.012,Info_measure_main_exp,2022.2.2,Win32,59.92329818,,,,,,,,,,,,,,,,,,masks/mask_002.jpg,,,,,,,,,,,,,,,,,,,,,,,,,,,,,,,,,,,,,,,,,,,,,,,0,2,2,1,1,,,,,,,,,,,,,,,,,,,,,,,,,,,,,,,,,,,,,,,,,
138003,001,2022-11-20_21h18.55.012,Info_measure_main_exp,2022.2.2,Win32,59.92329818,,,,,,,,,,,,,,,,,,masks/mask_005.jpg,,,,,,,,,,,,,,,,,,,,,,,,,,,,,,,,,,,,,,,,,,,,,,,0,3,3,4,1,,,,,,,,,,,,,,,,,,,,,,,,,,,,,,,,,,,,,,,,,
138003,001,2022-11-20_21h18.55.012,Info_measure_main_exp,2022.2.2,Win32,59.92329818,,,,,,,,,,,,,,,,,,masks/mask_004.jpg,,,,,,,,,,,,,,,,,,,,,,,,,,,,,,,,,,,,,,,,,,,,,,,0,4,4,3,1,,,,,,,,,,,,,,,,,,,,,,,,,,,,,,,,,,,,,,,,,
138003,001,2022-11-20_21h18.55.012,Info_measure_main_exp,2022.2.2,Win32,59.92329818,,,,,,,,,,,,,,,,,,,,,,,,,,,,,,3,0.5666,1,,,,,,,,,,,,0,131,5,5,2274,2238,absent_patch/patch0002274.jpg,absent_patch/patch0002238.jpg,,,,,,,,,,,,,,,,,,,-0.041666667,-0.089814822,1,0,0,response5disk,27,-0.010185171,-0.009259259,1,0,0,center_square,0,26,26,91,1,,,,,,,,,,,,,,,,,,,,,,,
138003,001,2022-11-20_21h18.55.012,Info_measure_main_exp,2022.2.2,Win32,59.92329818,,,,,,,,,,,,,,,,,,masks/mask_003.jpg,,,,,,,,,,,,,,,,,,,,,,,,,,,,,,,,,,,,,,,,,,0,0,0,2,1,,,,,,,,,,,,,,,,,,,,,,,,,,,,,,,,,,,,,,,,,,,,,,
138003,001,2022-11-20_21h18.55.012,Info_measure_main_exp,2022.2.2,Win32,59.92329818,,,,,,,,,,,,,,,,,,masks/mask_001.jpg,,,,,,,,,,,,,,,,,,,,,,,,,,,,,,,,,,,,,,,,,,0,1,1,0,1,,,,,,,,,,,,,,,,,,,,,,,,,,,,,,,,,,,,,,,,,,,,,,
138003,001,2022-11-20_21h18.55.012,Info_measure_main_exp,2022.2.2,Win32,59.92329818,,,,,,,,,,,,,,,,,,masks/mask_002.jpg,,,,,,,,,,,,,,,,,,,,,,,,,,,,,,,,,,,,,,,,,,0,2,2,1,1,,,,,,,,,,,,,,,,,,,,,,,,,,,,,,,,,,,,,,,,,,,,,,
138003,001,2022-11-20_21h18.55.012,Info_measure_main_exp,2022.2.2,Win32,59.92329818,,,,,,,,,,,,,,,,,,masks/mask_005.jpg,,,,,,,,,,,,,,,,,,,,,,,,,,,,,,,,,,,,,,,,,,0,3,3,4,1,,,,,,,,,,,,,,,,,,,,,,,,,,,,,,,,,,,,,,,,,,,,,,
138003,001,2022-11-20_21h18.55.012,Info_measure_main_exp,2022.2.2,Win32,59.92329818,,,,,,,,,,,,,,,,,,masks/mask_004.jpg,,,,,,,,,,,,,,,,,,,,,,,,,,,,,,,,,,,,,,,,,,0,4,4,3,1,,,,,,,,,,,,,,,,,,,,,,,,,,,,,,,,,,,,,,,,,,,,,,
138003,001,2022-11-20_21h18.55.012,Info_measure_main_exp,2022.2.2,Win32,59.92329818,,,,,,,,,,,,,,,,,,masks/mask_005.jpg,,,,,,,,,,,,,,,,,,,,,,,,,,,,,,,,,,,,,,,,,,,,,,,0,0,0,4,1,,,,,,,,,,,,,,,,,,,,,,,,,,,,,,,,,,,,,,,,,
138003,001,2022-11-20_21h18.55.012,Info_measure_main_exp,2022.2.2,Win32,59.92329818,,,,,,,,,,,,,,,,,,masks/mask_004.jpg,,,,,,,,,,,,,,,,,,,,,,,,,,,,,,,,,,,,,,,,,,,,,,,0,1,1,3,1,,,,,,,,,,,,,,,,,,,,,,,,,,,,,,,,,,,,,,,,,
138003,001,2022-11-20_21h18.55.012,Info_measure_main_exp,2022.2.2,Win32,59.92329818,,,,,,,,,,,,,,,,,,masks/mask_001.jpg,,,,,,,,,,,,,,,,,,,,,,,,,,,,,,,,,,,,,,,,,,,,,,,0,2,2,0,1,,,,,,,,,,,,,,,,,,,,,,,,,,,,,,,,,,,,,,,,,
138003,001,2022-11-20_21h18.55.012,Info_measure_main_exp,2022.2.2,Win32,59.92329818,,,,,,,,,,,,,,,,,,masks/mask_003.jpg,,,,,,,,,,,,,,,,,,,,,,,,,,,,,,,,,,,,,,,,,,,,,,,0,3,3,2,1,,,,,,,,,,,,,,,,,,,,,,,,,,,,,,,,,,,,,,,,,
138003,001,2022-11-20_21h18.55.012,Info_measure_main_exp,2022.2.2,Win32,59.92329818,,,,,,,,,,,,,,,,,,masks/mask_002.jpg,,,,,,,,,,,,,,,,,,,,,,,,,,,,,,,,,,,,,,,,,,,,,,,0,4,4,1,1,,,,,,,,,,,,,,,,,,,,,,,,,,,,,,,,,,,,,,,,,
138003,001,2022-11-20_21h18.55.012,Info_measure_main_exp,2022.2.2,Win32,59.92329818,,,,,,,,,,,,,,,,,,,,,,,,,,,,,,6,1.1163,1,,,,,,,,,,,,0,131,5,5,1974,2142,absent_patch/patch0001974.jpg,absent_patch/patch0002142.jpg,,,,,,,,,,,,,,,,,,,0.07685188,0.035185178,1,0,0,response1disk,28,0.005555541,-0.014814836,1,0,0,center_square,0,27,27,38,1,,,,,,,,,,,,,,,,,,,,,,,
138003,001,2022-11-20_21h18.55.012,Info_measure_main_exp,2022.2.2,Win32,59.92329818,,,,,,,,,,,,,,,,,,masks/mask_001.jpg,,,,,,,,,,,,,,,,,,,,,,,,,,,,,,,,,,,,,,,,,,0,0,0,0,1,,,,,,,,,,,,,,,,,,,,,,,,,,,,,,,,,,,,,,,,,,,,,,
138003,001,2022-11-20_21h18.55.012,Info_measure_main_exp,2022.2.2,Win32,59.92329818,,,,,,,,,,,,,,,,,,masks/mask_002.jpg,,,,,,,,,,,,,,,,,,,,,,,,,,,,,,,,,,,,,,,,,,0,1,1,1,1,,,,,,,,,,,,,,,,,,,,,,,,,,,,,,,,,,,,,,,,,,,,,,
138003,001,2022-11-20_21h18.55.012,Info_measure_main_exp,2022.2.2,Win32,59.92329818,,,,,,,,,,,,,,,,,,masks/mask_005.jpg,,,,,,,,,,,,,,,,,,,,,,,,,,,,,,,,,,,,,,,,,,0,2,2,4,1,,,,,,,,,,,,,,,,,,,,,,,,,,,,,,,,,,,,,,,,,,,,,,
138003,001,2022-11-20_21h18.55.012,Info_measure_main_exp,2022.2.2,Win32,59.92329818,,,,,,,,,,,,,,,,,,masks/mask_004.jpg,,,,,,,,,,,,,,,,,,,,,,,,,,,,,,,,,,,,,,,,,,0,3,3,3,1,,,,,,,,,,,,,,,,,,,,,,,,,,,,,,,,,,,,,,,,,,,,,,
138003,001,2022-11-20_21h18.55.012,Info_measure_main_exp,2022.2.2,Win32,59.92329818,,,,,,,,,,,,,,,,,,masks/mask_003.jpg,,,,,,,,,,,,,,,,,,,,,,,,,,,,,,,,,,,,,,,,,,0,4,4,2,1,,,,,,,,,,,,,,,,,,,,,,,,,,,,,,,,,,,,,,,,,,,,,,
138003,001,2022-11-20_21h18.55.012,Info_measure_main_exp,2022.2.2,Win32,59.92329818,,,,,,,,,,,,,,,,,,masks/mask_003.jpg,,,,,,,,,,,,,,,,,,,,,,,,,,,,,,,,,,,,,,,,,,,,,,,0,0,0,2,1,,,,,,,,,,,,,,,,,,,,,,,,,,,,,,,,,,,,,,,,,
138003,001,2022-11-20_21h18.55.012,Info_measure_main_exp,2022.2.2,Win32,59.92329818,,,,,,,,,,,,,,,,,,masks/mask_004.jpg,,,,,,,,,,,,,,,,,,,,,,,,,,,,,,,,,,,,,,,,,,,,,,,0,1,1,3,1,,,,,,,,,,,,,,,,,,,,,,,,,,,,,,,,,,,,,,,,,
138003,001,2022-11-20_21h18.55.012,Info_measure_main_exp,2022.2.2,Win32,59.92329818,,,,,,,,,,,,,,,,,,masks/mask_002.jpg,,,,,,,,,,,,,,,,,,,,,,,,,,,,,,,,,,,,,,,,,,,,,,,0,2,2,1,1,,,,,,,,,,,,,,,,,,,,,,,,,,,,,,,,,,,,,,,,,
138003,001,2022-11-20_21h18.55.012,Info_measure_main_exp,2022.2.2,Win32,59.92329818,,,,,,,,,,,,,,,,,,masks/mask_005.jpg,,,,,,,,,,,,,,,,,,,,,,,,,,,,,,,,,,,,,,,,,,,,,,,0,3,3,4,1,,,,,,,,,,,,,,,,,,,,,,,,,,,,,,,,,,,,,,,,,
138003,001,2022-11-20_21h18.55.012,Info_measure_main_exp,2022.2.2,Win32,59.92329818,,,,,,,,,,,,,,,,,,masks/mask_001.jpg,,,,,,,,,,,,,,,,,,,,,,,,,,,,,,,,,,,,,,,,,,,,,,,0,4,4,0,1,,,,,,,,,,,,,,,,,,,,,,,,,,,,,,,,,,,,,,,,,
138003,001,2022-11-20_21h18.55.012,Info_measure_main_exp,2022.2.2,Win32,59.92329818,,,,,,,,,,,,,,,,,,,,,,,,,,,,,,0,0.4829,1,,,,,,,,,,,,0,131,5,5,2082,2082,absent_patch/patch0002082.jpg,absent_patch/patch0002082.jpg,,,,,,,,,,,,,,,,,,,-0.032407407,0.060185185,1,0,0,response7disk,29,-0.002777735,-0.014814836,1,0,0,center_square,0,28,28,74,1,,,,,,,,,,,,,,,,,,,,,,,
138003,001,2022-11-20_21h18.55.012,Info_measure_main_exp,2022.2.2,Win32,59.92329818,,,,,,,,,,,,,,,,,,masks/mask_002.jpg,,,,,,,,,,,,,,,,,,,,,,,,,,,,,,,,,,,,,,,,,,0,0,0,1,1,,,,,,,,,,,,,,,,,,,,,,,,,,,,,,,,,,,,,,,,,,,,,,
138003,001,2022-11-20_21h18.55.012,Info_measure_main_exp,2022.2.2,Win32,59.92329818,,,,,,,,,,,,,,,,,,masks/mask_005.jpg,,,,,,,,,,,,,,,,,,,,,,,,,,,,,,,,,,,,,,,,,,0,1,1,4,1,,,,,,,,,,,,,,,,,,,,,,,,,,,,,,,,,,,,,,,,,,,,,,
138003,001,2022-11-20_21h18.55.012,Info_measure_main_exp,2022.2.2,Win32,59.92329818,,,,,,,,,,,,,,,,,,masks/mask_001.jpg,,,,,,,,,,,,,,,,,,,,,,,,,,,,,,,,,,,,,,,,,,0,2,2,0,1,,,,,,,,,,,,,,,,,,,,,,,,,,,,,,,,,,,,,,,,,,,,,,
138003,001,2022-11-20_21h18.55.012,Info_measure_main_exp,2022.2.2,Win32,59.92329818,,,,,,,,,,,,,,,,,,masks/mask_003.jpg,,,,,,,,,,,,,,,,,,,,,,,,,,,,,,,,,,,,,,,,,,0,3,3,2,1,,,,,,,,,,,,,,,,,,,,,,,,,,,,,,,,,,,,,,,,,,,,,,
138003,001,2022-11-20_21h18.55.012,Info_measure_main_exp,2022.2.2,Win32,59.92329818,,,,,,,,,,,,,,,,,,masks/mask_004.jpg,,,,,,,,,,,,,,,,,,,,,,,,,,,,,,,,,,,,,,,,,,0,4,4,3,1,,,,,,,,,,,,,,,,,,,,,,,,,,,,,,,,,,,,,,,,,,,,,,
138003,001,2022-11-20_21h18.55.012,Info_measure_main_exp,2022.2.2,Win32,59.92329818,,,,,,,,,,,,,,,,,,masks/mask_001.jpg,,,,,,,,,,,,,,,,,,,,,,,,,,,,,,,,,,,,,,,,,,,,,,,0,0,0,0,1,,,,,,,,,,,,,,,,,,,,,,,,,,,,,,,,,,,,,,,,,
138003,001,2022-11-20_21h18.55.012,Info_measure_main_exp,2022.2.2,Win32,59.92329818,,,,,,,,,,,,,,,,,,masks/mask_005.jpg,,,,,,,,,,,,,,,,,,,,,,,,,,,,,,,,,,,,,,,,,,,,,,,0,1,1,4,1,,,,,,,,,,,,,,,,,,,,,,,,,,,,,,,,,,,,,,,,,
138003,001,2022-11-20_21h18.55.012,Info_measure_main_exp,2022.2.2,Win32,59.92329818,,,,,,,,,,,,,,,,,,masks/mask_002.jpg,,,,,,,,,,,,,,,,,,,,,,,,,,,,,,,,,,,,,,,,,,,,,,,0,2,2,1,1,,,,,,,,,,,,,,,,,,,,,,,,,,,,,,,,,,,,,,,,,
138003,001,2022-11-20_21h18.55.012,Info_measure_main_exp,2022.2.2,Win32,59.92329818,,,,,,,,,,,,,,,,,,masks/mask_003.jpg,,,,,,,,,,,,,,,,,,,,,,,,,,,,,,,,,,,,,,,,,,,,,,,0,3,3,2,1,,,,,,,,,,,,,,,,,,,,,,,,,,,,,,,,,,,,,,,,,
138003,001,2022-11-20_21h18.55.012,Info_measure_main_exp,2022.2.2,Win32,59.92329818,,,,,,,,,,,,,,,,,,masks/mask_004.jpg,,,,,,,,,,,,,,,,,,,,,,,,,,,,,,,,,,,,,,,,,,,,,,,0,4,4,3,1,,,,,,,,,,,,,,,,,,,,,,,,,,,,,,,,,,,,,,,,,
138003,001,2022-11-20_21h18.55.012,Info_measure_main_exp,2022.2.2,Win32,59.92329818,,,,,,,,,,,,,,,,,,,,,,,,,,,,,,3,0.9831,1,,,,,,,,,,,,1,131,5,5,1,2166,present_patch/cong_131_5_a.jpg,absent_patch/patch0002166.jpg,,,,,,,,,,,,,,,,,,,-0.02870369,-0.150000042,1,0,0,response5disk,30,0.012037065,0.005555541,1,0,0,center_square,0,29,29,54,1,,,,,,,,,,,,,,,,,,,,,,,
138003,001,2022-11-20_21h18.55.012,Info_measure_main_exp,2022.2.2,Win32,59.92329818,,,,,,,,,,,,,,,,,,masks/mask_003.jpg,,,,,,,,,,,,,,,,,,,,,,,,,,,,,,,,,,,,,,,,,,0,0,0,2,1,,,,,,,,,,,,,,,,,,,,,,,,,,,,,,,,,,,,,,,,,,,,,,
138003,001,2022-11-20_21h18.55.012,Info_measure_main_exp,2022.2.2,Win32,59.92329818,,,,,,,,,,,,,,,,,,masks/mask_004.jpg,,,,,,,,,,,,,,,,,,,,,,,,,,,,,,,,,,,,,,,,,,0,1,1,3,1,,,,,,,,,,,,,,,,,,,,,,,,,,,,,,,,,,,,,,,,,,,,,,
138003,001,2022-11-20_21h18.55.012,Info_measure_main_exp,2022.2.2,Win32,59.92329818,,,,,,,,,,,,,,,,,,masks/mask_001.jpg,,,,,,,,,,,,,,,,,,,,,,,,,,,,,,,,,,,,,,,,,,0,2,2,0,1,,,,,,,,,,,,,,,,,,,,,,,,,,,,,,,,,,,,,,,,,,,,,,
138003,001,2022-11-20_21h18.55.012,Info_measure_main_exp,2022.2.2,Win32,59.92329818,,,,,,,,,,,,,,,,,,masks/mask_005.jpg,,,,,,,,,,,,,,,,,,,,,,,,,,,,,,,,,,,,,,,,,,0,3,3,4,1,,,,,,,,,,,,,,,,,,,,,,,,,,,,,,,,,,,,,,,,,,,,,,
138003,001,2022-11-20_21h18.55.012,Info_measure_main_exp,2022.2.2,Win32,59.92329818,,,,,,,,,,,,,,,,,,masks/mask_002.jpg,,,,,,,,,,,,,,,,,,,,,,,,,,,,,,,,,,,,,,,,,,0,4,4,1,1,,,,,,,,,,,,,,,,,,,,,,,,,,,,,,,,,,,,,,,,,,,,,,
138003,001,2022-11-20_21h18.55.012,Info_measure_main_exp,2022.2.2,Win32,59.92329818,,,,,,,,,,,,,,,,,,masks/mask_001.jpg,,,,,,,,,,,,,,,,,,,,,,,,,,,,,,,,,,,,,,,,,,,,,,,0,0,0,0,1,,,,,,,,,,,,,,,,,,,,,,,,,,,,,,,,,,,,,,,,,
138003,001,2022-11-20_21h18.55.012,Info_measure_main_exp,2022.2.2,Win32,59.92329818,,,,,,,,,,,,,,,,,,masks/mask_002.jpg,,,,,,,,,,,,,,,,,,,,,,,,,,,,,,,,,,,,,,,,,,,,,,,0,1,1,1,1,,,,,,,,,,,,,,,,,,,,,,,,,,,,,,,,,,,,,,,,,
138003,001,2022-11-20_21h18.55.012,Info_measure_main_exp,2022.2.2,Win32,59.92329818,,,,,,,,,,,,,,,,,,masks/mask_004.jpg,,,,,,,,,,,,,,,,,,,,,,,,,,,,,,,,,,,,,,,,,,,,,,,0,2,2,3,1,,,,,,,,,,,,,,,,,,,,,,,,,,,,,,,,,,,,,,,,,
138003,001,2022-11-20_21h18.55.012,Info_measure_main_exp,2022.2.2,Win32,59.92329818,,,,,,,,,,,,,,,,,,masks/mask_003.jpg,,,,,,,,,,,,,,,,,,,,,,,,,,,,,,,,,,,,,,,,,,,,,,,0,3,3,2,1,,,,,,,,,,,,,,,,,,,,,,,,,,,,,,,,,,,,,,,,,
138003,001,2022-11-20_21h18.55.012,Info_measure_main_exp,2022.2.2,Win32,59.92329818,,,,,,,,,,,,,,,,,,masks/mask_005.jpg,,,,,,,,,,,,,,,,,,,,,,,,,,,,,,,,,,,,,,,,,,,,,,,0,4,4,4,1,,,,,,,,,,,,,,,,,,,,,,,,,,,,,,,,,,,,,,,,,
138003,001,2022-11-20_21h18.55.012,Info_measure_main_exp,2022.2.2,Win32,59.92329818,,,,,,,,,,,,,,,,,,,,,,,,,,,,,,7,0.6393,1,,,,,,,,,,,,0,131,5,5,2274,1974,absent_patch/patch0002274.jpg,absent_patch/patch0001974.jpg,,,,,,,,,,,,,,,,,,,0.031481496,0.138888889,1,0,0,response1disk,31,0.008333347,-0.009259259,1,0,0,center_square,0,30,30,90,1,,,,,,,,,,,,,,,,,,,,,,,
138003,001,2022-11-20_21h18.55.012,Info_measure_main_exp,2022.2.2,Win32,59.92329818,,,,,,,,,,,,,,,,,,masks/mask_004.jpg,,,,,,,,,,,,,,,,,,,,,,,,,,,,,,,,,,,,,,,,,,0,0,0,3,1,,,,,,,,,,,,,,,,,,,,,,,,,,,,,,,,,,,,,,,,,,,,,,
138003,001,2022-11-20_21h18.55.012,Info_measure_main_exp,2022.2.2,Win32,59.92329818,,,,,,,,,,,,,,,,,,masks/mask_005.jpg,,,,,,,,,,,,,,,,,,,,,,,,,,,,,,,,,,,,,,,,,,0,1,1,4,1,,,,,,,,,,,,,,,,,,,,,,,,,,,,,,,,,,,,,,,,,,,,,,
138003,001,2022-11-20_21h18.55.012,Info_measure_main_exp,2022.2.2,Win32,59.92329818,,,,,,,,,,,,,,,,,,masks/mask_002.jpg,,,,,,,,,,,,,,,,,,,,,,,,,,,,,,,,,,,,,,,,,,0,2,2,1,1,,,,,,,,,,,,,,,,,,,,,,,,,,,,,,,,,,,,,,,,,,,,,,
138003,001,2022-11-20_21h18.55.012,Info_measure_main_exp,2022.2.2,Win32,59.92329818,,,,,,,,,,,,,,,,,,masks/mask_001.jpg,,,,,,,,,,,,,,,,,,,,,,,,,,,,,,,,,,,,,,,,,,0,3,3,0,1,,,,,,,,,,,,,,,,,,,,,,,,,,,,,,,,,,,,,,,,,,,,,,
138003,001,2022-11-20_21h18.55.012,Info_measure_main_exp,2022.2.2,Win32,59.92329818,,,,,,,,,,,,,,,,,,masks/mask_003.jpg,,,,,,,,,,,,,,,,,,,,,,,,,,,,,,,,,,,,,,,,,,0,4,4,2,1,,,,,,,,,,,,,,,,,,,,,,,,,,,,,,,,,,,,,,,,,,,,,,
138003,001,2022-11-20_21h18.55.012,Info_measure_main_exp,2022.2.2,Win32,59.92329818,,,,,,,,,,,,,,,,,,masks/mask_001.jpg,,,,,,,,,,,,,,,,,,,,,,,,,,,,,,,,,,,,,,,,,,,,,,,0,0,0,0,1,,,,,,,,,,,,,,,,,,,,,,,,,,,,,,,,,,,,,,,,,
138003,001,2022-11-20_21h18.55.012,Info_measure_main_exp,2022.2.2,Win32,59.92329818,,,,,,,,,,,,,,,,,,masks/mask_004.jpg,,,,,,,,,,,,,,,,,,,,,,,,,,,,,,,,,,,,,,,,,,,,,,,0,1,1,3,1,,,,,,,,,,,,,,,,,,,,,,,,,,,,,,,,,,,,,,,,,
138003,001,2022-11-20_21h18.55.012,Info_measure_main_exp,2022.2.2,Win32,59.92329818,,,,,,,,,,,,,,,,,,masks/mask_005.jpg,,,,,,,,,,,,,,,,,,,,,,,,,,,,,,,,,,,,,,,,,,,,,,,0,2,2,4,1,,,,,,,,,,,,,,,,,,,,,,,,,,,,,,,,,,,,,,,,,
138003,001,2022-11-20_21h18.55.012,Info_measure_main_exp,2022.2.2,Win32,59.92329818,,,,,,,,,,,,,,,,,,masks/mask_002.jpg,,,,,,,,,,,,,,,,,,,,,,,,,,,,,,,,,,,,,,,,,,,,,,,0,3,3,1,1,,,,,,,,,,,,,,,,,,,,,,,,,,,,,,,,,,,,,,,,,
138003,001,2022-11-20_21h18.55.012,Info_measure_main_exp,2022.2.2,Win32,59.92329818,,,,,,,,,,,,,,,,,,masks/mask_003.jpg,,,,,,,,,,,,,,,,,,,,,,,,,,,,,,,,,,,,,,,,,,,,,,,0,4,4,2,1,,,,,,,,,,,,,,,,,,,,,,,,,,,,,,,,,,,,,,,,,
138003,001,2022-11-20_21h18.55.012,Info_measure_main_exp,2022.2.2,Win32,59.92329818,,,,,,,,,,,,,,,,,,,,,,,,,,,,,,2,0.5946,1,,,,,,,,,,,,1,131,5,5,1,2154,present_patch/cong_131_5_a.jpg,absent_patch/patch0002154.jpg,,,,,,,,,,,,,,,,,,,-0.175000014,-0.063888903,1,0,0,response5disk,32,0.00462963,-0.012962977,1,0,0,center_square,0,31,31,87,1,,,,,,,,,,,,,,,,,,,,,,,
138003,001,2022-11-20_21h18.55.012,Info_measure_main_exp,2022.2.2,Win32,59.92329818,,,,,,,,,,,,,,,,,,masks/mask_004.jpg,,,,,,,,,,,,,,,,,,,,,,,,,,,,,,,,,,,,,,,,,,0,0,0,3,1,,,,,,,,,,,,,,,,,,,,,,,,,,,,,,,,,,,,,,,,,,,,,,
138003,001,2022-11-20_21h18.55.012,Info_measure_main_exp,2022.2.2,Win32,59.92329818,,,,,,,,,,,,,,,,,,masks/mask_003.jpg,,,,,,,,,,,,,,,,,,,,,,,,,,,,,,,,,,,,,,,,,,0,1,1,2,1,,,,,,,,,,,,,,,,,,,,,,,,,,,,,,,,,,,,,,,,,,,,,,
138003,001,2022-11-20_21h18.55.012,Info_measure_main_exp,2022.2.2,Win32,59.92329818,,,,,,,,,,,,,,,,,,masks/mask_001.jpg,,,,,,,,,,,,,,,,,,,,,,,,,,,,,,,,,,,,,,,,,,0,2,2,0,1,,,,,,,,,,,,,,,,,,,,,,,,,,,,,,,,,,,,,,,,,,,,,,
138003,001,2022-11-20_21h18.55.012,Info_measure_main_exp,2022.2.2,Win32,59.92329818,,,,,,,,,,,,,,,,,,masks/mask_002.jpg,,,,,,,,,,,,,,,,,,,,,,,,,,,,,,,,,,,,,,,,,,0,3,3,1,1,,,,,,,,,,,,,,,,,,,,,,,,,,,,,,,,,,,,,,,,,,,,,,
138003,001,2022-11-20_21h18.55.012,Info_measure_main_exp,2022.2.2,Win32,59.92329818,,,,,,,,,,,,,,,,,,masks/mask_005.jpg,,,,,,,,,,,,,,,,,,,,,,,,,,,,,,,,,,,,,,,,,,0,4,4,4,1,,,,,,,,,,,,,,,,,,,,,,,,,,,,,,,,,,,,,,,,,,,,,,
138003,001,2022-11-20_21h18.55.012,Info_measure_main_exp,2022.2.2,Win32,59.92329818,,,,,,,,,,,,,,,,,,masks/mask_003.jpg,,,,,,,,,,,,,,,,,,,,,,,,,,,,,,,,,,,,,,,,,,,,,,,0,0,0,2,1,,,,,,,,,,,,,,,,,,,,,,,,,,,,,,,,,,,,,,,,,
138003,001,2022-11-20_21h18.55.012,Info_measure_main_exp,2022.2.2,Win32,59.92329818,,,,,,,,,,,,,,,,,,masks/mask_002.jpg,,,,,,,,,,,,,,,,,,,,,,,,,,,,,,,,,,,,,,,,,,,,,,,0,1,1,1,1,,,,,,,,,,,,,,,,,,,,,,,,,,,,,,,,,,,,,,,,,
138003,001,2022-11-20_21h18.55.012,Info_measure_main_exp,2022.2.2,Win32,59.92329818,,,,,,,,,,,,,,,,,,masks/mask_004.jpg,,,,,,,,,,,,,,,,,,,,,,,,,,,,,,,,,,,,,,,,,,,,,,,0,2,2,3,1,,,,,,,,,,,,,,,,,,,,,,,,,,,,,,,,,,,,,,,,,
138003,001,2022-11-20_21h18.55.012,Info_measure_main_exp,2022.2.2,Win32,59.92329818,,,,,,,,,,,,,,,,,,masks/mask_001.jpg,,,,,,,,,,,,,,,,,,,,,,,,,,,,,,,,,,,,,,,,,,,,,,,0,3,3,0,1,,,,,,,,,,,,,,,,,,,,,,,,,,,,,,,,,,,,,,,,,
138003,001,2022-11-20_21h18.55.012,Info_measure_main_exp,2022.2.2,Win32,59.92329818,,,,,,,,,,,,,,,,,,masks/mask_005.jpg,,,,,,,,,,,,,,,,,,,,,,,,,,,,,,,,,,,,,,,,,,,,,,,0,4,4,4,1,,,,,,,,,,,,,,,,,,,,,,,,,,,,,,,,,,,,,,,,,
138003,001,2022-11-20_21h18.55.012,Info_measure_main_exp,2022.2.2,Win32,59.92329818,,,,,,,,,,,,,,,,,,,,,,,,,,,,,,7,0.4831,1,,,,,,,,,,,,0,131,5,5,2250,2178,absent_patch/patch0002250.jpg,absent_patch/patch0002178.jpg,,,,,,,,,,,,,,,,,,,0.161111125,0.187037044,1,0,0,response1disk,33,0.002777806,0.001851859,1,0,0,center_square,0,32,32,48,1,,,,,,,,,,,,,,,,,,,,,,,
138003,001,2022-11-20_21h18.55.012,Info_measure_main_exp,2022.2.2,Win32,59.92329818,,,,,,,,,,,,,,,,,,masks/mask_005.jpg,,,,,,,,,,,,,,,,,,,,,,,,,,,,,,,,,,,,,,,,,,0,0,0,4,1,,,,,,,,,,,,,,,,,,,,,,,,,,,,,,,,,,,,,,,,,,,,,,
138003,001,2022-11-20_21h18.55.012,Info_measure_main_exp,2022.2.2,Win32,59.92329818,,,,,,,,,,,,,,,,,,masks/mask_004.jpg,,,,,,,,,,,,,,,,,,,,,,,,,,,,,,,,,,,,,,,,,,0,1,1,3,1,,,,,,,,,,,,,,,,,,,,,,,,,,,,,,,,,,,,,,,,,,,,,,
138003,001,2022-11-20_21h18.55.012,Info_measure_main_exp,2022.2.2,Win32,59.92329818,,,,,,,,,,,,,,,,,,masks/mask_002.jpg,,,,,,,,,,,,,,,,,,,,,,,,,,,,,,,,,,,,,,,,,,0,2,2,1,1,,,,,,,,,,,,,,,,,,,,,,,,,,,,,,,,,,,,,,,,,,,,,,
138003,001,2022-11-20_21h18.55.012,Info_measure_main_exp,2022.2.2,Win32,59.92329818,,,,,,,,,,,,,,,,,,masks/mask_003.jpg,,,,,,,,,,,,,,,,,,,,,,,,,,,,,,,,,,,,,,,,,,0,3,3,2,1,,,,,,,,,,,,,,,,,,,,,,,,,,,,,,,,,,,,,,,,,,,,,,
138003,001,2022-11-20_21h18.55.012,Info_measure_main_exp,2022.2.2,Win32,59.92329818,,,,,,,,,,,,,,,,,,masks/mask_001.jpg,,,,,,,,,,,,,,,,,,,,,,,,,,,,,,,,,,,,,,,,,,0,4,4,0,1,,,,,,,,,,,,,,,,,,,,,,,,,,,,,,,,,,,,,,,,,,,,,,
138003,001,2022-11-20_21h18.55.012,Info_measure_main_exp,2022.2.2,Win32,59.92329818,,,,,,,,,,,,,,,,,,masks/mask_002.jpg,,,,,,,,,,,,,,,,,,,,,,,,,,,,,,,,,,,,,,,,,,,,,,,0,0,0,1,1,,,,,,,,,,,,,,,,,,,,,,,,,,,,,,,,,,,,,,,,,
138003,001,2022-11-20_21h18.55.012,Info_measure_main_exp,2022.2.2,Win32,59.92329818,,,,,,,,,,,,,,,,,,masks/mask_003.jpg,,,,,,,,,,,,,,,,,,,,,,,,,,,,,,,,,,,,,,,,,,,,,,,0,1,1,2,1,,,,,,,,,,,,,,,,,,,,,,,,,,,,,,,,,,,,,,,,,
138003,001,2022-11-20_21h18.55.012,Info_measure_main_exp,2022.2.2,Win32,59.92329818,,,,,,,,,,,,,,,,,,masks/mask_004.jpg,,,,,,,,,,,,,,,,,,,,,,,,,,,,,,,,,,,,,,,,,,,,,,,0,2,2,3,1,,,,,,,,,,,,,,,,,,,,,,,,,,,,,,,,,,,,,,,,,
138003,001,2022-11-20_21h18.55.012,Info_measure_main_exp,2022.2.2,Win32,59.92329818,,,,,,,,,,,,,,,,,,masks/mask_005.jpg,,,,,,,,,,,,,,,,,,,,,,,,,,,,,,,,,,,,,,,,,,,,,,,0,3,3,4,1,,,,,,,,,,,,,,,,,,,,,,,,,,,,,,,,,,,,,,,,,
138003,001,2022-11-20_21h18.55.012,Info_measure_main_exp,2022.2.2,Win32,59.92329818,,,,,,,,,,,,,,,,,,masks/mask_001.jpg,,,,,,,,,,,,,,,,,,,,,,,,,,,,,,,,,,,,,,,,,,,,,,,0,4,4,0,1,,,,,,,,,,,,,,,,,,,,,,,,,,,,,,,,,,,,,,,,,
138003,001,2022-11-20_21h18.55.012,Info_measure_main_exp,2022.2.2,Win32,59.92329818,,,,,,,,,,,,,,,,,,,,,,,,,,,,,,7,1.1331,1,,,,,,,,,,,,0,131,5,5,1950,2166,absent_patch/patch0001950.jpg,absent_patch/patch0002166.jpg,,,,,,,,,,,,,,,,,,,0.070370356,0.14166666,1,0,0,response1disk,34,-0.002777735,-0.012962977,1,0,0,center_square,0,33,33,0,1,,,,,,,,,,,,,,,,,,,,,,,
138003,001,2022-11-20_21h18.55.012,Info_measure_main_exp,2022.2.2,Win32,59.92329818,,,,,,,,,,,,,,,,,,masks/mask_002.jpg,,,,,,,,,,,,,,,,,,,,,,,,,,,,,,,,,,,,,,,,,,0,0,0,1,1,,,,,,,,,,,,,,,,,,,,,,,,,,,,,,,,,,,,,,,,,,,,,,
138003,001,2022-11-20_21h18.55.012,Info_measure_main_exp,2022.2.2,Win32,59.92329818,,,,,,,,,,,,,,,,,,masks/mask_003.jpg,,,,,,,,,,,,,,,,,,,,,,,,,,,,,,,,,,,,,,,,,,0,1,1,2,1,,,,,,,,,,,,,,,,,,,,,,,,,,,,,,,,,,,,,,,,,,,,,,
138003,001,2022-11-20_21h18.55.012,Info_measure_main_exp,2022.2.2,Win32,59.92329818,,,,,,,,,,,,,,,,,,masks/mask_004.jpg,,,,,,,,,,,,,,,,,,,,,,,,,,,,,,,,,,,,,,,,,,0,2,2,3,1,,,,,,,,,,,,,,,,,,,,,,,,,,,,,,,,,,,,,,,,,,,,,,
138003,001,2022-11-20_21h18.55.012,Info_measure_main_exp,2022.2.2,Win32,59.92329818,,,,,,,,,,,,,,,,,,masks/mask_001.jpg,,,,,,,,,,,,,,,,,,,,,,,,,,,,,,,,,,,,,,,,,,0,3,3,0,1,,,,,,,,,,,,,,,,,,,,,,,,,,,,,,,,,,,,,,,,,,,,,,
138003,001,2022-11-20_21h18.55.012,Info_measure_main_exp,2022.2.2,Win32,59.92329818,,,,,,,,,,,,,,,,,,masks/mask_005.jpg,,,,,,,,,,,,,,,,,,,,,,,,,,,,,,,,,,,,,,,,,,0,4,4,4,1,,,,,,,,,,,,,,,,,,,,,,,,,,,,,,,,,,,,,,,,,,,,,,
138003,001,2022-11-20_21h18.55.012,Info_measure_main_exp,2022.2.2,Win32,59.92329818,,,,,,,,,,,,,,,,,,masks/mask_003.jpg,,,,,,,,,,,,,,,,,,,,,,,,,,,,,,,,,,,,,,,,,,,,,,,0,0,0,2,1,,,,,,,,,,,,,,,,,,,,,,,,,,,,,,,,,,,,,,,,,
138003,001,2022-11-20_21h18.55.012,Info_measure_main_exp,2022.2.2,Win32,59.92329818,,,,,,,,,,,,,,,,,,masks/mask_004.jpg,,,,,,,,,,,,,,,,,,,,,,,,,,,,,,,,,,,,,,,,,,,,,,,0,1,1,3,1,,,,,,,,,,,,,,,,,,,,,,,,,,,,,,,,,,,,,,,,,
138003,001,2022-11-20_21h18.55.012,Info_measure_main_exp,2022.2.2,Win32,59.92329818,,,,,,,,,,,,,,,,,,masks/mask_005.jpg,,,,,,,,,,,,,,,,,,,,,,,,,,,,,,,,,,,,,,,,,,,,,,,0,2,2,4,1,,,,,,,,,,,,,,,,,,,,,,,,,,,,,,,,,,,,,,,,,
138003,001,2022-11-20_21h18.55.012,Info_measure_main_exp,2022.2.2,Win32,59.92329818,,,,,,,,,,,,,,,,,,masks/mask_002.jpg,,,,,,,,,,,,,,,,,,,,,,,,,,,,,,,,,,,,,,,,,,,,,,,0,3,3,1,1,,,,,,,,,,,,,,,,,,,,,,,,,,,,,,,,,,,,,,,,,
138003,001,2022-11-20_21h18.55.012,Info_measure_main_exp,2022.2.2,Win32,59.92329818,,,,,,,,,,,,,,,,,,masks/mask_001.jpg,,,,,,,,,,,,,,,,,,,,,,,,,,,,,,,,,,,,,,,,,,,,,,,0,4,4,0,1,,,,,,,,,,,,,,,,,,,,,,,,,,,,,,,,,,,,,,,,,
