participant,session,date,expName,psychopyVersion,OS,frameRate,space_press_continue.keys,space_press_continue.rt,space_press_continue_2.keys,space_press_continue_2.rt,space_press_continue_3.keys,space_press_continue_3.rt,space_press_continue_4.keys,space_press_continue_4.rt,space_press_continue_5.keys,space_press_continue_5.rt,space_press_continue_6.keys,space_press_continue_6.rt,prac_mask_loop_1.thisRepN,prac_mask_loop_1.thisTrialN,prac_mask_loop_1.thisN,prac_mask_loop_1.thisIndex,prac_mask_loop_1.ran,mask_name,prac_mask_loop_2.thisRepN,prac_mask_loop_2.thisTrialN,prac_mask_loop_2.thisN,prac_mask_loop_2.thisIndex,prac_mask_loop_2.ran,mouse_2.x,mouse_2.y,mouse_2.leftButton,mouse_2.midButton,mouse_2.rightButton,mouse_2.clicked_name,similarity,response_time,Pass,mouse_12.x,mouse_12.y,mouse_12.leftButton,mouse_12.midButton,mouse_12.rightButton,mouse_12.clicked_name,prac_loop.thisRepN,prac_loop.thisTrialN,prac_loop.thisN,prac_loop.thisIndex,prac_loop.ran,Pair_type,Image_num,Patch_1_loc,Patch_2_loc,Patch_1_info,Patch_2_info,Patch_1_name,Patch_2_name,mouse_1.x,mouse_1.y,mouse_1.leftButton,mouse_1.midButton,mouse_1.rightButton,mouse_1.time,mouse_1.clicked_name,space_press_continue_7.keys,space_press_continue_7.rt,mask_loop.thisRepN,mask_loop.thisTrialN,mask_loop.thisN,mask_loop.thisIndex,mask_loop.ran,mask_loop_2.thisRepN,mask_loop_2.thisTrialN,mask_loop_2.thisN,mask_loop_2.thisIndex,mask_loop_2.ran,mouse.x,mouse.y,mouse.leftButton,mouse.midButton,mouse.rightButton,mouse.clicked_name,trialNumber,mouse_11.x,mouse_11.y,mouse_11.leftButton,mouse_11.midButton,mouse_11.rightButton,mouse_11.clicked_name,first_pass_loop.thisRepN,first_pass_loop.thisTrialN,first_pass_loop.thisN,first_pass_loop.thisIndex,first_pass_loop.ran,mask_loop_3.thisRepN,mask_loop_3.thisTrialN,mask_loop_3.thisN,mask_loop_3.thisIndex,mask_loop_3.ran,mask_loop_4.thisRepN,mask_loop_4.thisTrialN,mask_loop_4.thisN,mask_loop_4.thisIndex,mask_loop_4.ran,mouse_3.x,mouse_3.y,mouse_3.leftButton,mouse_3.midButton,mouse_3.rightButton,mouse_3.clicked_name,double_pass_loop.thisRepN,double_pass_loop.thisTrialN,double_pass_loop.thisN,double_pass_loop.thisIndex,double_pass_loop.ran,space_exit.keys,space_exit.rt
138592,001,2022-11-20_23h50.11.675,Info_measure_main_exp,2022.2.2,Win32,60.07810153,,,,,,,,,,,,,,,,,,,,,,,,,,,,,,,,,,,,,,,,,,,,,,,,,,,,,,,,,,,,,,,,,,,,,,,,,,,,,,,,,,,,,,,,,,,,,,,,,,,,,,,,,,,,,,,
138592,001,2022-11-20_23h50.11.675,Info_measure_main_exp,2022.2.2,Win32,60.07810153,,,,,,,,,,,,,,,,,,,,,,,,,,,,,,,,,,,,,,,,,,,,,,,,,,,,,,,,,,,,,,,,,,,,,,,,,,,,,,,,,,,,,,,,,,,,,,,,,,,,,,,,,,,,,,,
138592,001,2022-11-20_23h50.11.675,Info_measure_main_exp,2022.2.2,Win32,60.07810153,space,11.0043,,,,,,,,,,,,,,,,,,,,,,,,,,,,,,,,,,,,,,,,,,,,,,,,,,,,,,,,,,,,,,,,,,,,,,,,,,,,,,,,,,,,,,,,,,,,,,,,,,,,,,,,,,,,,
138592,001,2022-11-20_23h50.11.675,Info_measure_main_exp,2022.2.2,Win32,60.07810153,,,space,8.607,,,,,,,,,,,,,,,,,,,,,,,,,,,,,,,,,,,,,,,,,,,,,,,,,,,,,,,,,,,,,,,,,,,,,,,,,,,,,,,,,,,,,,,,,,,,,,,,,,,,,,,,,,,
138592,001,2022-11-20_23h50.11.675,Info_measure_main_exp,2022.2.2,Win32,60.07810153,,,,,space,7.5241,,,,,,,,,,,,,,,,,,,,,,,,,,,,,,,,,,,,,,,,,,,,,,,,,,,,,,,,,,,,,,,,,,,,,,,,,,,,,,,,,,,,,,,,,,,,,,,,,,,,,,,,,
138592,001,2022-11-20_23h50.11.675,Info_measure_main_exp,2022.2.2,Win32,60.07810153,,,,,,,space,14.9631,,,,,,,,,,,,,,,,,,,,,,,,,,,,,,,,,,,,,,,,,,,,,,,,,,,,,,,,,,,,,,,,,,,,,,,,,,,,,,,,,,,,,,,,,,,,,,,,,,,,,,,
138592,001,2022-11-20_23h50.11.675,Info_measure_main_exp,2022.2.2,Win32,60.07810153,,,,,,,,,space,6.3416,,,,,,,,,,,,,,,,,,,,,,,,,,,,,,,,,,,,,,,,,,,,,,,,,,,,,,,,,,,,,,,,,,,,,,,,,,,,,,,,,,,,,,,,,,,,,,,,,,,,,
138592,001,2022-11-20_23h50.11.675,Info_measure_main_exp,2022.2.2,Win32,60.07810153,,,,,,,,,,,space,11.7166,,,,,,,,,,,,,,,,,,,,,,,,,,,,,,,,,,,,,,,,,,,,,,,,,,,,,,,,,,,,,,,,,,,,,,,,,,,,,,,,,,,,,,,,,,,,,,,,,,,
138592,001,2022-11-20_23h50.11.675,Info_measure_main_exp,2022.2.2,Win32,60.07810153,,,,,,,,,,,,,0,0,0,4,1,masks/mask_005.jpg,,,,,,,,,,,,,,,,,,,,,,,,,,,,,,,,,,,,,,,,,,,,,,,,,,,,,,,,,,,,,,,,,,,,,,,,,,,,,,,,,,,,,,,,,,,,,
138592,001,2022-11-20_23h50.11.675,Info_measure_main_exp,2022.2.2,Win32,60.07810153,,,,,,,,,,,,,0,1,1,0,1,masks/mask_001.jpg,,,,,,,,,,,,,,,,,,,,,,,,,,,,,,,,,,,,,,,,,,,,,,,,,,,,,,,,,,,,,,,,,,,,,,,,,,,,,,,,,,,,,,,,,,,,,
138592,001,2022-11-20_23h50.11.675,Info_measure_main_exp,2022.2.2,Win32,60.07810153,,,,,,,,,,,,,0,2,2,3,1,masks/mask_004.jpg,,,,,,,,,,,,,,,,,,,,,,,,,,,,,,,,,,,,,,,,,,,,,,,,,,,,,,,,,,,,,,,,,,,,,,,,,,,,,,,,,,,,,,,,,,,,,
138592,001,2022-11-20_23h50.11.675,Info_measure_main_exp,2022.2.2,Win32,60.07810153,,,,,,,,,,,,,0,3,3,2,1,masks/mask_003.jpg,,,,,,,,,,,,,,,,,,,,,,,,,,,,,,,,,,,,,,,,,,,,,,,,,,,,,,,,,,,,,,,,,,,,,,,,,,,,,,,,,,,,,,,,,,,,,
138592,001,2022-11-20_23h50.11.675,Info_measure_main_exp,2022.2.2,Win32,60.07810153,,,,,,,,,,,,,0,4,4,1,1,masks/mask_002.jpg,,,,,,,,,,,,,,,,,,,,,,,,,,,,,,,,,,,,,,,,,,,,,,,,,,,,,,,,,,,,,,,,,,,,,,,,,,,,,,,,,,,,,,,,,,,,,
138592,001,2022-11-20_23h50.11.675,Info_measure_main_exp,2022.2.2,Win32,60.07810153,,,,,,,,,,,,,,,,,,masks/mask_001.jpg,0,0,0,0,1,,,,,,,,,,,,,,,,,,,,,,,,,,,,,,,,,,,,,,,,,,,,,,,,,,,,,,,,,,,,,,,,,,,,,,,,,,,,,,,,,,,,,,,,
138592,001,2022-11-20_23h50.11.675,Info_measure_main_exp,2022.2.2,Win32,60.07810153,,,,,,,,,,,,,,,,,,masks/mask_003.jpg,0,1,1,2,1,,,,,,,,,,,,,,,,,,,,,,,,,,,,,,,,,,,,,,,,,,,,,,,,,,,,,,,,,,,,,,,,,,,,,,,,,,,,,,,,,,,,,,,,
138592,001,2022-11-20_23h50.11.675,Info_measure_main_exp,2022.2.2,Win32,60.07810153,,,,,,,,,,,,,,,,,,masks/mask_002.jpg,0,2,2,1,1,,,,,,,,,,,,,,,,,,,,,,,,,,,,,,,,,,,,,,,,,,,,,,,,,,,,,,,,,,,,,,,,,,,,,,,,,,,,,,,,,,,,,,,,
138592,001,2022-11-20_23h50.11.675,Info_measure_main_exp,2022.2.2,Win32,60.07810153,,,,,,,,,,,,,,,,,,masks/mask_004.jpg,0,3,3,3,1,,,,,,,,,,,,,,,,,,,,,,,,,,,,,,,,,,,,,,,,,,,,,,,,,,,,,,,,,,,,,,,,,,,,,,,,,,,,,,,,,,,,,,,,
138592,001,2022-11-20_23h50.11.675,Info_measure_main_exp,2022.2.2,Win32,60.07810153,,,,,,,,,,,,,,,,,,masks/mask_005.jpg,0,4,4,4,1,,,,,,,,,,,,,,,,,,,,,,,,,,,,,,,,,,,,,,,,,,,,,,,,,,,,,,,,,,,,,,,,,,,,,,,,,,,,,,,,,,,,,,,,
138592,001,2022-11-20_23h50.11.675,Info_measure_main_exp,2022.2.2,Win32,60.07810153,,,,,,,,,,,,,,,,,,,,,,,,-0.040740741,0.101851852,1,0,0,response7disk,0,63.6963,1,0.000925926,0.005555556,1,0,0,center_square,0,0,0,0,1,0,131,5,5,2370,2406,prac_patch/patch0002370.jpg,prac_patch/patch0002406.jpg,,,,,,,,,,,,,,,,,,,,,,,,,,,,,,,,,,,,,,,,,,,,,,,,,,,,,,,,,,,,
138592,001,2022-11-20_23h50.11.675,Info_measure_main_exp,2022.2.2,Win32,60.07810153,,,,,,,,,,,,,0,0,0,0,1,masks/mask_001.jpg,,,,,,,,,,,,,,,,,,,,,,,,,,,,,,,,,,,,,,,,,,,,,,,,,,,,,,,,,,,,,,,,,,,,,,,,,,,,,,,,,,,,,,,,,,,,,
138592,001,2022-11-20_23h50.11.675,Info_measure_main_exp,2022.2.2,Win32,60.07810153,,,,,,,,,,,,,0,1,1,3,1,masks/mask_004.jpg,,,,,,,,,,,,,,,,,,,,,,,,,,,,,,,,,,,,,,,,,,,,,,,,,,,,,,,,,,,,,,,,,,,,,,,,,,,,,,,,,,,,,,,,,,,,,
138592,001,2022-11-20_23h50.11.675,Info_measure_main_exp,2022.2.2,Win32,60.07810153,,,,,,,,,,,,,0,2,2,4,1,masks/mask_005.jpg,,,,,,,,,,,,,,,,,,,,,,,,,,,,,,,,,,,,,,,,,,,,,,,,,,,,,,,,,,,,,,,,,,,,,,,,,,,,,,,,,,,,,,,,,,,,,
138592,001,2022-11-20_23h50.11.675,Info_measure_main_exp,2022.2.2,Win32,60.07810153,,,,,,,,,,,,,0,3,3,1,1,masks/mask_002.jpg,,,,,,,,,,,,,,,,,,,,,,,,,,,,,,,,,,,,,,,,,,,,,,,,,,,,,,,,,,,,,,,,,,,,,,,,,,,,,,,,,,,,,,,,,,,,,
138592,001,2022-11-20_23h50.11.675,Info_measure_main_exp,2022.2.2,Win32,60.07810153,,,,,,,,,,,,,0,4,4,2,1,masks/mask_003.jpg,,,,,,,,,,,,,,,,,,,,,,,,,,,,,,,,,,,,,,,,,,,,,,,,,,,,,,,,,,,,,,,,,,,,,,,,,,,,,,,,,,,,,,,,,,,,,
138592,001,2022-11-20_23h50.11.675,Info_measure_main_exp,2022.2.2,Win32,60.07810153,,,,,,,,,,,,,,,,,,masks/mask_002.jpg,0,0,0,1,1,,,,,,,,,,,,,,,,,,,,,,,,,,,,,,,,,,,,,,,,,,,,,,,,,,,,,,,,,,,,,,,,,,,,,,,,,,,,,,,,,,,,,,,,
138592,001,2022-11-20_23h50.11.675,Info_measure_main_exp,2022.2.2,Win32,60.07810153,,,,,,,,,,,,,,,,,,masks/mask_005.jpg,0,1,1,4,1,,,,,,,,,,,,,,,,,,,,,,,,,,,,,,,,,,,,,,,,,,,,,,,,,,,,,,,,,,,,,,,,,,,,,,,,,,,,,,,,,,,,,,,,
138592,001,2022-11-20_23h50.11.675,Info_measure_main_exp,2022.2.2,Win32,60.07810153,,,,,,,,,,,,,,,,,,masks/mask_003.jpg,0,2,2,2,1,,,,,,,,,,,,,,,,,,,,,,,,,,,,,,,,,,,,,,,,,,,,,,,,,,,,,,,,,,,,,,,,,,,,,,,,,,,,,,,,,,,,,,,,
138592,001,2022-11-20_23h50.11.675,Info_measure_main_exp,2022.2.2,Win32,60.07810153,,,,,,,,,,,,,,,,,,masks/mask_001.jpg,0,3,3,0,1,,,,,,,,,,,,,,,,,,,,,,,,,,,,,,,,,,,,,,,,,,,,,,,,,,,,,,,,,,,,,,,,,,,,,,,,,,,,,,,,,,,,,,,,
138592,001,2022-11-20_23h50.11.675,Info_measure_main_exp,2022.2.2,Win32,60.07810153,,,,,,,,,,,,,,,,,,masks/mask_004.jpg,0,4,4,3,1,,,,,,,,,,,,,,,,,,,,,,,,,,,,,,,,,,,,,,,,,,,,,,,,,,,,,,,,,,,,,,,,,,,,,,,,,,,,,,,,,,,,,,,,
138592,001,2022-11-20_23h50.11.675,Info_measure_main_exp,2022.2.2,Win32,60.07810153,,,,,,,,,,,,,,,,,,,,,,,,-0.059259259,-0.021296296,1,0,0,response5disk,2,84.3799,1,-0.007407407,-0.000925926,1,0,0,center_square,0,1,1,1,1,0,131,5,5,2514,2490,prac_patch/patch0002514.jpg,prac_patch/patch0002490.jpg,,,,,,,,,,,,,,,,,,,,,,,,,,,,,,,,,,,,,,,,,,,,,,,,,,,,,,,,,,,,
138592,001,2022-11-20_23h50.11.675,Info_measure_main_exp,2022.2.2,Win32,60.07810153,,,,,,,,,,,,,0,0,0,3,1,masks/mask_004.jpg,,,,,,,,,,,,,,,,,,,,,,,,,,,,,,,,,,,,,,,,,,,,,,,,,,,,,,,,,,,,,,,,,,,,,,,,,,,,,,,,,,,,,,,,,,,,,
138592,001,2022-11-20_23h50.11.675,Info_measure_main_exp,2022.2.2,Win32,60.07810153,,,,,,,,,,,,,0,1,1,4,1,masks/mask_005.jpg,,,,,,,,,,,,,,,,,,,,,,,,,,,,,,,,,,,,,,,,,,,,,,,,,,,,,,,,,,,,,,,,,,,,,,,,,,,,,,,,,,,,,,,,,,,,,
138592,001,2022-11-20_23h50.11.675,Info_measure_main_exp,2022.2.2,Win32,60.07810153,,,,,,,,,,,,,0,2,2,1,1,masks/mask_002.jpg,,,,,,,,,,,,,,,,,,,,,,,,,,,,,,,,,,,,,,,,,,,,,,,,,,,,,,,,,,,,,,,,,,,,,,,,,,,,,,,,,,,,,,,,,,,,,
138592,001,2022-11-20_23h50.11.675,Info_measure_main_exp,2022.2.2,Win32,60.07810153,,,,,,,,,,,,,0,3,3,2,1,masks/mask_003.jpg,,,,,,,,,,,,,,,,,,,,,,,,,,,,,,,,,,,,,,,,,,,,,,,,,,,,,,,,,,,,,,,,,,,,,,,,,,,,,,,,,,,,,,,,,,,,,
138592,001,2022-11-20_23h50.11.675,Info_measure_main_exp,2022.2.2,Win32,60.07810153,,,,,,,,,,,,,0,4,4,0,1,masks/mask_001.jpg,,,,,,,,,,,,,,,,,,,,,,,,,,,,,,,,,,,,,,,,,,,,,,,,,,,,,,,,,,,,,,,,,,,,,,,,,,,,,,,,,,,,,,,,,,,,,
138592,001,2022-11-20_23h50.11.675,Info_measure_main_exp,2022.2.2,Win32,60.07810153,,,,,,,,,,,,,,,,,,masks/mask_001.jpg,0,0,0,0,1,,,,,,,,,,,,,,,,,,,,,,,,,,,,,,,,,,,,,,,,,,,,,,,,,,,,,,,,,,,,,,,,,,,,,,,,,,,,,,,,,,,,,,,,
138592,001,2022-11-20_23h50.11.675,Info_measure_main_exp,2022.2.2,Win32,60.07810153,,,,,,,,,,,,,,,,,,masks/mask_003.jpg,0,1,1,2,1,,,,,,,,,,,,,,,,,,,,,,,,,,,,,,,,,,,,,,,,,,,,,,,,,,,,,,,,,,,,,,,,,,,,,,,,,,,,,,,,,,,,,,,,
138592,001,2022-11-20_23h50.11.675,Info_measure_main_exp,2022.2.2,Win32,60.07810153,,,,,,,,,,,,,,,,,,masks/mask_005.jpg,0,2,2,4,1,,,,,,,,,,,,,,,,,,,,,,,,,,,,,,,,,,,,,,,,,,,,,,,,,,,,,,,,,,,,,,,,,,,,,,,,,,,,,,,,,,,,,,,,
138592,001,2022-11-20_23h50.11.675,Info_measure_main_exp,2022.2.2,Win32,60.07810153,,,,,,,,,,,,,,,,,,masks/mask_004.jpg,0,3,3,3,1,,,,,,,,,,,,,,,,,,,,,,,,,,,,,,,,,,,,,,,,,,,,,,,,,,,,,,,,,,,,,,,,,,,,,,,,,,,,,,,,,,,,,,,,
138592,001,2022-11-20_23h50.11.675,Info_measure_main_exp,2022.2.2,Win32,60.07810153,,,,,,,,,,,,,,,,,,masks/mask_002.jpg,0,4,4,1,1,,,,,,,,,,,,,,,,,,,,,,,,,,,,,,,,,,,,,,,,,,,,,,,,,,,,,,,,,,,,,,,,,,,,,,,,,,,,,,,,,,,,,,,,
138592,001,2022-11-20_23h50.11.675,Info_measure_main_exp,2022.2.2,Win32,60.07810153,,,,,,,,,,,,,,,,,,,,,,,,0.068518519,0.12962963,1,0,0,response1disk,7,99.9475,1,0.00462963,-0.00462963,1,0,0,center_square,0,2,2,2,1,0,131,5,5,2526,2526,prac_patch/patch0002526.jpg,prac_patch/patch0002526.jpg,,,,,,,,,,,,,,,,,,,,,,,,,,,,,,,,,,,,,,,,,,,,,,,,,,,,,,,,,,,,
138592,001,2022-11-20_23h50.11.675,Info_measure_main_exp,2022.2.2,Win32,60.07810153,,,,,,,,,,,,,,,,,,,,,,,,,,,,,,,,,,,,,,,,,,,,,,,,,,,,,,,,,,,space,3.7302,,,,,,,,,,,,,,,,,,,,,,,,,,,,,,,,,,,,,,,,,,,,,,,,,,,
138592,001,2022-11-20_23h50.11.675,Info_measure_main_exp,2022.2.2,Win32,60.07810153,,,,,,,,,,,,,,,,,,masks/mask_001.jpg,,,,,,,,,,,,,,,,,,,,,,,,,,,,,,,,,,,,,,,,,,,0,0,0,0,1,,,,,,,,,,,,,,,,,,,,,,,,,,,,,,,,,,,,,,,,,,,,,,
138592,001,2022-11-20_23h50.11.675,Info_measure_main_exp,2022.2.2,Win32,60.07810153,,,,,,,,,,,,,,,,,,masks/mask_005.jpg,,,,,,,,,,,,,,,,,,,,,,,,,,,,,,,,,,,,,,,,,,,0,1,1,4,1,,,,,,,,,,,,,,,,,,,,,,,,,,,,,,,,,,,,,,,,,,,,,,
138592,001,2022-11-20_23h50.11.675,Info_measure_main_exp,2022.2.2,Win32,60.07810153,,,,,,,,,,,,,,,,,,masks/mask_003.jpg,,,,,,,,,,,,,,,,,,,,,,,,,,,,,,,,,,,,,,,,,,,0,2,2,2,1,,,,,,,,,,,,,,,,,,,,,,,,,,,,,,,,,,,,,,,,,,,,,,
138592,001,2022-11-20_23h50.11.675,Info_measure_main_exp,2022.2.2,Win32,60.07810153,,,,,,,,,,,,,,,,,,masks/mask_004.jpg,,,,,,,,,,,,,,,,,,,,,,,,,,,,,,,,,,,,,,,,,,,0,3,3,3,1,,,,,,,,,,,,,,,,,,,,,,,,,,,,,,,,,,,,,,,,,,,,,,
138592,001,2022-11-20_23h50.11.675,Info_measure_main_exp,2022.2.2,Win32,60.07810153,,,,,,,,,,,,,,,,,,masks/mask_002.jpg,,,,,,,,,,,,,,,,,,,,,,,,,,,,,,,,,,,,,,,,,,,0,4,4,1,1,,,,,,,,,,,,,,,,,,,,,,,,,,,,,,,,,,,,,,,,,,,,,,
138592,001,2022-11-20_23h50.11.675,Info_measure_main_exp,2022.2.2,Win32,60.07810153,,,,,,,,,,,,,,,,,,masks/mask_001.jpg,,,,,,,,,,,,,,,,,,,,,,,,,,,,,,,,,,,,,,,,,,,,,,,,0,0,0,0,1,,,,,,,,,,,,,,,,,,,,,,,,,,,,,,,,,,,,,,,,,
138592,001,2022-11-20_23h50.11.675,Info_measure_main_exp,2022.2.2,Win32,60.07810153,,,,,,,,,,,,,,,,,,masks/mask_002.jpg,,,,,,,,,,,,,,,,,,,,,,,,,,,,,,,,,,,,,,,,,,,,,,,,0,1,1,1,1,,,,,,,,,,,,,,,,,,,,,,,,,,,,,,,,,,,,,,,,,
138592,001,2022-11-20_23h50.11.675,Info_measure_main_exp,2022.2.2,Win32,60.07810153,,,,,,,,,,,,,,,,,,masks/mask_005.jpg,,,,,,,,,,,,,,,,,,,,,,,,,,,,,,,,,,,,,,,,,,,,,,,,0,2,2,4,1,,,,,,,,,,,,,,,,,,,,,,,,,,,,,,,,,,,,,,,,,
138592,001,2022-11-20_23h50.11.675,Info_measure_main_exp,2022.2.2,Win32,60.07810153,,,,,,,,,,,,,,,,,,masks/mask_004.jpg,,,,,,,,,,,,,,,,,,,,,,,,,,,,,,,,,,,,,,,,,,,,,,,,0,3,3,3,1,,,,,,,,,,,,,,,,,,,,,,,,,,,,,,,,,,,,,,,,,
138592,001,2022-11-20_23h50.11.675,Info_measure_main_exp,2022.2.2,Win32,60.07810153,,,,,,,,,,,,,,,,,,masks/mask_003.jpg,,,,,,,,,,,,,,,,,,,,,,,,,,,,,,,,,,,,,,,,,,,,,,,,0,4,4,2,1,,,,,,,,,,,,,,,,,,,,,,,,,,,,,,,,,,,,,,,,,
138592,001,2022-11-20_23h50.11.675,Info_measure_main_exp,2022.2.2,Win32,60.07810153,,,,,,,,,,,,,,,,,,,,,,,,,,,,,,5,2.8977,1,,,,,,,,,,,,0,131,5,5,2082,2250,absent_patch/patch0002082.jpg,absent_patch/patch0002250.jpg,,,,,,,,,,,,,,,,,,,,0.126851852,-0.042592593,1,0,0,response3disk,1,0.002777778,0.003703704,1,0,0,center_square,0,0,0,3,1,,,,,,,,,,,,,,,,,,,,,,,
138592,001,2022-11-20_23h50.11.675,Info_measure_main_exp,2022.2.2,Win32,60.07810153,,,,,,,,,,,,,,,,,,masks/mask_003.jpg,,,,,,,,,,,,,,,,,,,,,,,,,,,,,,,,,,,,,,,,,,,0,0,0,2,1,,,,,,,,,,,,,,,,,,,,,,,,,,,,,,,,,,,,,,,,,,,,,,
138592,001,2022-11-20_23h50.11.675,Info_measure_main_exp,2022.2.2,Win32,60.07810153,,,,,,,,,,,,,,,,,,masks/mask_005.jpg,,,,,,,,,,,,,,,,,,,,,,,,,,,,,,,,,,,,,,,,,,,0,1,1,4,1,,,,,,,,,,,,,,,,,,,,,,,,,,,,,,,,,,,,,,,,,,,,,,
138592,001,2022-11-20_23h50.11.675,Info_measure_main_exp,2022.2.2,Win32,60.07810153,,,,,,,,,,,,,,,,,,masks/mask_002.jpg,,,,,,,,,,,,,,,,,,,,,,,,,,,,,,,,,,,,,,,,,,,0,2,2,1,1,,,,,,,,,,,,,,,,,,,,,,,,,,,,,,,,,,,,,,,,,,,,,,
138592,001,2022-11-20_23h50.11.675,Info_measure_main_exp,2022.2.2,Win32,60.07810153,,,,,,,,,,,,,,,,,,masks/mask_001.jpg,,,,,,,,,,,,,,,,,,,,,,,,,,,,,,,,,,,,,,,,,,,0,3,3,0,1,,,,,,,,,,,,,,,,,,,,,,,,,,,,,,,,,,,,,,,,,,,,,,
138592,001,2022-11-20_23h50.11.675,Info_measure_main_exp,2022.2.2,Win32,60.07810153,,,,,,,,,,,,,,,,,,masks/mask_004.jpg,,,,,,,,,,,,,,,,,,,,,,,,,,,,,,,,,,,,,,,,,,,0,4,4,3,1,,,,,,,,,,,,,,,,,,,,,,,,,,,,,,,,,,,,,,,,,,,,,,
138592,001,2022-11-20_23h50.11.675,Info_measure_main_exp,2022.2.2,Win32,60.07810153,,,,,,,,,,,,,,,,,,masks/mask_004.jpg,,,,,,,,,,,,,,,,,,,,,,,,,,,,,,,,,,,,,,,,,,,,,,,,0,0,0,3,1,,,,,,,,,,,,,,,,,,,,,,,,,,,,,,,,,,,,,,,,,
138592,001,2022-11-20_23h50.11.675,Info_measure_main_exp,2022.2.2,Win32,60.07810153,,,,,,,,,,,,,,,,,,masks/mask_005.jpg,,,,,,,,,,,,,,,,,,,,,,,,,,,,,,,,,,,,,,,,,,,,,,,,0,1,1,4,1,,,,,,,,,,,,,,,,,,,,,,,,,,,,,,,,,,,,,,,,,
138592,001,2022-11-20_23h50.11.675,Info_measure_main_exp,2022.2.2,Win32,60.07810153,,,,,,,,,,,,,,,,,,masks/mask_003.jpg,,,,,,,,,,,,,,,,,,,,,,,,,,,,,,,,,,,,,,,,,,,,,,,,0,2,2,2,1,,,,,,,,,,,,,,,,,,,,,,,,,,,,,,,,,,,,,,,,,
138592,001,2022-11-20_23h50.11.675,Info_measure_main_exp,2022.2.2,Win32,60.07810153,,,,,,,,,,,,,,,,,,masks/mask_001.jpg,,,,,,,,,,,,,,,,,,,,,,,,,,,,,,,,,,,,,,,,,,,,,,,,0,3,3,0,1,,,,,,,,,,,,,,,,,,,,,,,,,,,,,,,,,,,,,,,,,
138592,001,2022-11-20_23h50.11.675,Info_measure_main_exp,2022.2.2,Win32,60.07810153,,,,,,,,,,,,,,,,,,masks/mask_002.jpg,,,,,,,,,,,,,,,,,,,,,,,,,,,,,,,,,,,,,,,,,,,,,,,,0,4,4,1,1,,,,,,,,,,,,,,,,,,,,,,,,,,,,,,,,,,,,,,,,,
138592,001,2022-11-20_23h50.11.675,Info_measure_main_exp,2022.2.2,Win32,60.07810153,,,,,,,,,,,,,,,,,,,,,,,,,,,,,,7,1.35,1,,,,,,,,,,,,1,131,5,5,2250,1,absent_patch/patch0002250.jpg,present_patch/cong_131_5_a.jpg,,,,,,,,,,,,,,,,,,,,0.057407407,0.127777778,1,0,0,response1disk,2,0.000925926,-0.003703704,1,0,0,center_square,0,1,1,5,1,,,,,,,,,,,,,,,,,,,,,,,
138592,001,2022-11-20_23h50.11.675,Info_measure_main_exp,2022.2.2,Win32,60.07810153,,,,,,,,,,,,,,,,,,masks/mask_002.jpg,,,,,,,,,,,,,,,,,,,,,,,,,,,,,,,,,,,,,,,,,,,0,0,0,1,1,,,,,,,,,,,,,,,,,,,,,,,,,,,,,,,,,,,,,,,,,,,,,,
138592,001,2022-11-20_23h50.11.675,Info_measure_main_exp,2022.2.2,Win32,60.07810153,,,,,,,,,,,,,,,,,,masks/mask_005.jpg,,,,,,,,,,,,,,,,,,,,,,,,,,,,,,,,,,,,,,,,,,,0,1,1,4,1,,,,,,,,,,,,,,,,,,,,,,,,,,,,,,,,,,,,,,,,,,,,,,
138592,001,2022-11-20_23h50.11.675,Info_measure_main_exp,2022.2.2,Win32,60.07810153,,,,,,,,,,,,,,,,,,masks/mask_003.jpg,,,,,,,,,,,,,,,,,,,,,,,,,,,,,,,,,,,,,,,,,,,0,2,2,2,1,,,,,,,,,,,,,,,,,,,,,,,,,,,,,,,,,,,,,,,,,,,,,,
138592,001,2022-11-20_23h50.11.675,Info_measure_main_exp,2022.2.2,Win32,60.07810153,,,,,,,,,,,,,,,,,,masks/mask_004.jpg,,,,,,,,,,,,,,,,,,,,,,,,,,,,,,,,,,,,,,,,,,,0,3,3,3,1,,,,,,,,,,,,,,,,,,,,,,,,,,,,,,,,,,,,,,,,,,,,,,
138592,001,2022-11-20_23h50.11.675,Info_measure_main_exp,2022.2.2,Win32,60.07810153,,,,,,,,,,,,,,,,,,masks/mask_001.jpg,,,,,,,,,,,,,,,,,,,,,,,,,,,,,,,,,,,,,,,,,,,0,4,4,0,1,,,,,,,,,,,,,,,,,,,,,,,,,,,,,,,,,,,,,,,,,,,,,,
138592,001,2022-11-20_23h50.11.675,Info_measure_main_exp,2022.2.2,Win32,60.07810153,,,,,,,,,,,,,,,,,,masks/mask_004.jpg,,,,,,,,,,,,,,,,,,,,,,,,,,,,,,,,,,,,,,,,,,,,,,,,0,0,0,3,1,,,,,,,,,,,,,,,,,,,,,,,,,,,,,,,,,,,,,,,,,
138592,001,2022-11-20_23h50.11.675,Info_measure_main_exp,2022.2.2,Win32,60.07810153,,,,,,,,,,,,,,,,,,masks/mask_001.jpg,,,,,,,,,,,,,,,,,,,,,,,,,,,,,,,,,,,,,,,,,,,,,,,,0,1,1,0,1,,,,,,,,,,,,,,,,,,,,,,,,,,,,,,,,,,,,,,,,,
138592,001,2022-11-20_23h50.11.675,Info_measure_main_exp,2022.2.2,Win32,60.07810153,,,,,,,,,,,,,,,,,,masks/mask_005.jpg,,,,,,,,,,,,,,,,,,,,,,,,,,,,,,,,,,,,,,,,,,,,,,,,0,2,2,4,1,,,,,,,,,,,,,,,,,,,,,,,,,,,,,,,,,,,,,,,,,
138592,001,2022-11-20_23h50.11.675,Info_measure_main_exp,2022.2.2,Win32,60.07810153,,,,,,,,,,,,,,,,,,masks/mask_002.jpg,,,,,,,,,,,,,,,,,,,,,,,,,,,,,,,,,,,,,,,,,,,,,,,,0,3,3,1,1,,,,,,,,,,,,,,,,,,,,,,,,,,,,,,,,,,,,,,,,,
138592,001,2022-11-20_23h50.11.675,Info_measure_main_exp,2022.2.2,Win32,60.07810153,,,,,,,,,,,,,,,,,,masks/mask_003.jpg,,,,,,,,,,,,,,,,,,,,,,,,,,,,,,,,,,,,,,,,,,,,,,,,0,4,4,2,1,,,,,,,,,,,,,,,,,,,,,,,,,,,,,,,,,,,,,,,,,
138592,001,2022-11-20_23h50.11.675,Info_measure_main_exp,2022.2.2,Win32,60.07810153,,,,,,,,,,,,,,,,,,,,,,,,,,,,,,7,1.5502,1,,,,,,,,,,,,0,131,5,5,2166,1986,absent_patch/patch0002166.jpg,absent_patch/patch0001986.jpg,,,,,,,,,,,,,,,,,,,,0.074074074,0.100925926,1,0,0,response1disk,3,-0.00462963,0.011111111,1,0,0,center_square,0,2,2,47,1,,,,,,,,,,,,,,,,,,,,,,,
138592,001,2022-11-20_23h50.11.675,Info_measure_main_exp,2022.2.2,Win32,60.07810153,,,,,,,,,,,,,,,,,,masks/mask_001.jpg,,,,,,,,,,,,,,,,,,,,,,,,,,,,,,,,,,,,,,,,,,,0,0,0,0,1,,,,,,,,,,,,,,,,,,,,,,,,,,,,,,,,,,,,,,,,,,,,,,
138592,001,2022-11-20_23h50.11.675,Info_measure_main_exp,2022.2.2,Win32,60.07810153,,,,,,,,,,,,,,,,,,masks/mask_002.jpg,,,,,,,,,,,,,,,,,,,,,,,,,,,,,,,,,,,,,,,,,,,0,1,1,1,1,,,,,,,,,,,,,,,,,,,,,,,,,,,,,,,,,,,,,,,,,,,,,,
138592,001,2022-11-20_23h50.11.675,Info_measure_main_exp,2022.2.2,Win32,60.07810153,,,,,,,,,,,,,,,,,,masks/mask_005.jpg,,,,,,,,,,,,,,,,,,,,,,,,,,,,,,,,,,,,,,,,,,,0,2,2,4,1,,,,,,,,,,,,,,,,,,,,,,,,,,,,,,,,,,,,,,,,,,,,,,
138592,001,2022-11-20_23h50.11.675,Info_measure_main_exp,2022.2.2,Win32,60.07810153,,,,,,,,,,,,,,,,,,masks/mask_004.jpg,,,,,,,,,,,,,,,,,,,,,,,,,,,,,,,,,,,,,,,,,,,0,3,3,3,1,,,,,,,,,,,,,,,,,,,,,,,,,,,,,,,,,,,,,,,,,,,,,,
138592,001,2022-11-20_23h50.11.675,Info_measure_main_exp,2022.2.2,Win32,60.07810153,,,,,,,,,,,,,,,,,,masks/mask_003.jpg,,,,,,,,,,,,,,,,,,,,,,,,,,,,,,,,,,,,,,,,,,,0,4,4,2,1,,,,,,,,,,,,,,,,,,,,,,,,,,,,,,,,,,,,,,,,,,,,,,
138592,001,2022-11-20_23h50.11.675,Info_measure_main_exp,2022.2.2,Win32,60.07810153,,,,,,,,,,,,,,,,,,masks/mask_001.jpg,,,,,,,,,,,,,,,,,,,,,,,,,,,,,,,,,,,,,,,,,,,,,,,,0,0,0,0,1,,,,,,,,,,,,,,,,,,,,,,,,,,,,,,,,,,,,,,,,,
138592,001,2022-11-20_23h50.11.675,Info_measure_main_exp,2022.2.2,Win32,60.07810153,,,,,,,,,,,,,,,,,,masks/mask_004.jpg,,,,,,,,,,,,,,,,,,,,,,,,,,,,,,,,,,,,,,,,,,,,,,,,0,1,1,3,1,,,,,,,,,,,,,,,,,,,,,,,,,,,,,,,,,,,,,,,,,
138592,001,2022-11-20_23h50.11.675,Info_measure_main_exp,2022.2.2,Win32,60.07810153,,,,,,,,,,,,,,,,,,masks/mask_003.jpg,,,,,,,,,,,,,,,,,,,,,,,,,,,,,,,,,,,,,,,,,,,,,,,,0,2,2,2,1,,,,,,,,,,,,,,,,,,,,,,,,,,,,,,,,,,,,,,,,,
138592,001,2022-11-20_23h50.11.675,Info_measure_main_exp,2022.2.2,Win32,60.07810153,,,,,,,,,,,,,,,,,,masks/mask_005.jpg,,,,,,,,,,,,,,,,,,,,,,,,,,,,,,,,,,,,,,,,,,,,,,,,0,3,3,4,1,,,,,,,,,,,,,,,,,,,,,,,,,,,,,,,,,,,,,,,,,
138592,001,2022-11-20_23h50.11.675,Info_measure_main_exp,2022.2.2,Win32,60.07810153,,,,,,,,,,,,,,,,,,masks/mask_002.jpg,,,,,,,,,,,,,,,,,,,,,,,,,,,,,,,,,,,,,,,,,,,,,,,,0,4,4,1,1,,,,,,,,,,,,,,,,,,,,,,,,,,,,,,,,,,,,,,,,,
138592,001,2022-11-20_23h50.11.675,Info_measure_main_exp,2022.2.2,Win32,60.07810153,,,,,,,,,,,,,,,,,,,,,,,,,,,,,,3,1.3167,1,,,,,,,,,,,,0,131,5,5,1950,2178,absent_patch/patch0001950.jpg,absent_patch/patch0002178.jpg,,,,,,,,,,,,,,,,,,,,-0.051851852,-0.110185185,1,0,0,response5disk,4,-0.00462963,-0.00462963,1,0,0,center_square,0,3,3,61,1,,,,,,,,,,,,,,,,,,,,,,,
138592,001,2022-11-20_23h50.11.675,Info_measure_main_exp,2022.2.2,Win32,60.07810153,,,,,,,,,,,,,,,,,,masks/mask_001.jpg,,,,,,,,,,,,,,,,,,,,,,,,,,,,,,,,,,,,,,,,,,,0,0,0,0,1,,,,,,,,,,,,,,,,,,,,,,,,,,,,,,,,,,,,,,,,,,,,,,
138592,001,2022-11-20_23h50.11.675,Info_measure_main_exp,2022.2.2,Win32,60.07810153,,,,,,,,,,,,,,,,,,masks/mask_003.jpg,,,,,,,,,,,,,,,,,,,,,,,,,,,,,,,,,,,,,,,,,,,0,1,1,2,1,,,,,,,,,,,,,,,,,,,,,,,,,,,,,,,,,,,,,,,,,,,,,,
138592,001,2022-11-20_23h50.11.675,Info_measure_main_exp,2022.2.2,Win32,60.07810153,,,,,,,,,,,,,,,,,,masks/mask_004.jpg,,,,,,,,,,,,,,,,,,,,,,,,,,,,,,,,,,,,,,,,,,,0,2,2,3,1,,,,,,,,,,,,,,,,,,,,,,,,,,,,,,,,,,,,,,,,,,,,,,
138592,001,2022-11-20_23h50.11.675,Info_measure_main_exp,2022.2.2,Win32,60.07810153,,,,,,,,,,,,,,,,,,masks/mask_002.jpg,,,,,,,,,,,,,,,,,,,,,,,,,,,,,,,,,,,,,,,,,,,0,3,3,1,1,,,,,,,,,,,,,,,,,,,,,,,,,,,,,,,,,,,,,,,,,,,,,,
138592,001,2022-11-20_23h50.11.675,Info_measure_main_exp,2022.2.2,Win32,60.07810153,,,,,,,,,,,,,,,,,,masks/mask_005.jpg,,,,,,,,,,,,,,,,,,,,,,,,,,,,,,,,,,,,,,,,,,,0,4,4,4,1,,,,,,,,,,,,,,,,,,,,,,,,,,,,,,,,,,,,,,,,,,,,,,
138592,001,2022-11-20_23h50.11.675,Info_measure_main_exp,2022.2.2,Win32,60.07810153,,,,,,,,,,,,,,,,,,masks/mask_003.jpg,,,,,,,,,,,,,,,,,,,,,,,,,,,,,,,,,,,,,,,,,,,,,,,,0,0,0,2,1,,,,,,,,,,,,,,,,,,,,,,,,,,,,,,,,,,,,,,,,,
138592,001,2022-11-20_23h50.11.675,Info_measure_main_exp,2022.2.2,Win32,60.07810153,,,,,,,,,,,,,,,,,,masks/mask_001.jpg,,,,,,,,,,,,,,,,,,,,,,,,,,,,,,,,,,,,,,,,,,,,,,,,0,1,1,0,1,,,,,,,,,,,,,,,,,,,,,,,,,,,,,,,,,,,,,,,,,
138592,001,2022-11-20_23h50.11.675,Info_measure_main_exp,2022.2.2,Win32,60.07810153,,,,,,,,,,,,,,,,,,masks/mask_004.jpg,,,,,,,,,,,,,,,,,,,,,,,,,,,,,,,,,,,,,,,,,,,,,,,,0,2,2,3,1,,,,,,,,,,,,,,,,,,,,,,,,,,,,,,,,,,,,,,,,,
138592,001,2022-11-20_23h50.11.675,Info_measure_main_exp,2022.2.2,Win32,60.07810153,,,,,,,,,,,,,,,,,,masks/mask_002.jpg,,,,,,,,,,,,,,,,,,,,,,,,,,,,,,,,,,,,,,,,,,,,,,,,0,3,3,1,1,,,,,,,,,,,,,,,,,,,,,,,,,,,,,,,,,,,,,,,,,
138592,001,2022-11-20_23h50.11.675,Info_measure_main_exp,2022.2.2,Win32,60.07810153,,,,,,,,,,,,,,,,,,masks/mask_005.jpg,,,,,,,,,,,,,,,,,,,,,,,,,,,,,,,,,,,,,,,,,,,,,,,,0,4,4,4,1,,,,,,,,,,,,,,,,,,,,,,,,,,,,,,,,,,,,,,,,,
138592,001,2022-11-20_23h50.11.675,Info_measure_main_exp,2022.2.2,Win32,60.07810153,,,,,,,,,,,,,,,,,,,,,,,,,,,,,,5,1.9665,1,,,,,,,,,,,,0,131,5,5,2166,2298,absent_patch/patch0002166.jpg,absent_patch/patch0002298.jpg,,,,,,,,,,,,,,,,,,,,0.137037037,-0.025925926,1,0,0,response3disk,5,0.005555556,-0.001851852,1,0,0,center_square,0,4,4,52,1,,,,,,,,,,,,,,,,,,,,,,,
138592,001,2022-11-20_23h50.11.675,Info_measure_main_exp,2022.2.2,Win32,60.07810153,,,,,,,,,,,,,,,,,,masks/mask_002.jpg,,,,,,,,,,,,,,,,,,,,,,,,,,,,,,,,,,,,,,,,,,,0,0,0,1,1,,,,,,,,,,,,,,,,,,,,,,,,,,,,,,,,,,,,,,,,,,,,,,
138592,001,2022-11-20_23h50.11.675,Info_measure_main_exp,2022.2.2,Win32,60.07810153,,,,,,,,,,,,,,,,,,masks/mask_001.jpg,,,,,,,,,,,,,,,,,,,,,,,,,,,,,,,,,,,,,,,,,,,0,1,1,0,1,,,,,,,,,,,,,,,,,,,,,,,,,,,,,,,,,,,,,,,,,,,,,,
138592,001,2022-11-20_23h50.11.675,Info_measure_main_exp,2022.2.2,Win32,60.07810153,,,,,,,,,,,,,,,,,,masks/mask_004.jpg,,,,,,,,,,,,,,,,,,,,,,,,,,,,,,,,,,,,,,,,,,,0,2,2,3,1,,,,,,,,,,,,,,,,,,,,,,,,,,,,,,,,,,,,,,,,,,,,,,
138592,001,2022-11-20_23h50.11.675,Info_measure_main_exp,2022.2.2,Win32,60.07810153,,,,,,,,,,,,,,,,,,masks/mask_003.jpg,,,,,,,,,,,,,,,,,,,,,,,,,,,,,,,,,,,,,,,,,,,0,3,3,2,1,,,,,,,,,,,,,,,,,,,,,,,,,,,,,,,,,,,,,,,,,,,,,,
138592,001,2022-11-20_23h50.11.675,Info_measure_main_exp,2022.2.2,Win32,60.07810153,,,,,,,,,,,,,,,,,,masks/mask_005.jpg,,,,,,,,,,,,,,,,,,,,,,,,,,,,,,,,,,,,,,,,,,,0,4,4,4,1,,,,,,,,,,,,,,,,,,,,,,,,,,,,,,,,,,,,,,,,,,,,,,
138592,001,2022-11-20_23h50.11.675,Info_measure_main_exp,2022.2.2,Win32,60.07810153,,,,,,,,,,,,,,,,,,masks/mask_003.jpg,,,,,,,,,,,,,,,,,,,,,,,,,,,,,,,,,,,,,,,,,,,,,,,,0,0,0,2,1,,,,,,,,,,,,,,,,,,,,,,,,,,,,,,,,,,,,,,,,,
138592,001,2022-11-20_23h50.11.675,Info_measure_main_exp,2022.2.2,Win32,60.07810153,,,,,,,,,,,,,,,,,,masks/mask_002.jpg,,,,,,,,,,,,,,,,,,,,,,,,,,,,,,,,,,,,,,,,,,,,,,,,0,1,1,1,1,,,,,,,,,,,,,,,,,,,,,,,,,,,,,,,,,,,,,,,,,
138592,001,2022-11-20_23h50.11.675,Info_measure_main_exp,2022.2.2,Win32,60.07810153,,,,,,,,,,,,,,,,,,masks/mask_005.jpg,,,,,,,,,,,,,,,,,,,,,,,,,,,,,,,,,,,,,,,,,,,,,,,,0,2,2,4,1,,,,,,,,,,,,,,,,,,,,,,,,,,,,,,,,,,,,,,,,,
138592,001,2022-11-20_23h50.11.675,Info_measure_main_exp,2022.2.2,Win32,60.07810153,,,,,,,,,,,,,,,,,,masks/mask_004.jpg,,,,,,,,,,,,,,,,,,,,,,,,,,,,,,,,,,,,,,,,,,,,,,,,0,3,3,3,1,,,,,,,,,,,,,,,,,,,,,,,,,,,,,,,,,,,,,,,,,
138592,001,2022-11-20_23h50.11.675,Info_measure_main_exp,2022.2.2,Win32,60.07810153,,,,,,,,,,,,,,,,,,masks/mask_001.jpg,,,,,,,,,,,,,,,,,,,,,,,,,,,,,,,,,,,,,,,,,,,,,,,,0,4,4,0,1,,,,,,,,,,,,,,,,,,,,,,,,,,,,,,,,,,,,,,,,,
138592,001,2022-11-20_23h50.11.675,Info_measure_main_exp,2022.2.2,Win32,60.07810153,,,,,,,,,,,,,,,,,,,,,,,,,,,,,,4,2.4334,1,,,,,,,,,,,,0,131,5,5,2190,2166,absent_patch/patch0002190.jpg,absent_patch/patch0002166.jpg,,,,,,,,,,,,,,,,,,,,0.057407407,-0.116666667,1,0,0,response3disk,6,0.015740741,0,1,0,0,center_square,0,5,5,50,1,,,,,,,,,,,,,,,,,,,,,,,
138592,001,2022-11-20_23h50.11.675,Info_measure_main_exp,2022.2.2,Win32,60.07810153,,,,,,,,,,,,,,,,,,masks/mask_003.jpg,,,,,,,,,,,,,,,,,,,,,,,,,,,,,,,,,,,,,,,,,,,0,0,0,2,1,,,,,,,,,,,,,,,,,,,,,,,,,,,,,,,,,,,,,,,,,,,,,,
138592,001,2022-11-20_23h50.11.675,Info_measure_main_exp,2022.2.2,Win32,60.07810153,,,,,,,,,,,,,,,,,,masks/mask_005.jpg,,,,,,,,,,,,,,,,,,,,,,,,,,,,,,,,,,,,,,,,,,,0,1,1,4,1,,,,,,,,,,,,,,,,,,,,,,,,,,,,,,,,,,,,,,,,,,,,,,
138592,001,2022-11-20_23h50.11.675,Info_measure_main_exp,2022.2.2,Win32,60.07810153,,,,,,,,,,,,,,,,,,masks/mask_002.jpg,,,,,,,,,,,,,,,,,,,,,,,,,,,,,,,,,,,,,,,,,,,0,2,2,1,1,,,,,,,,,,,,,,,,,,,,,,,,,,,,,,,,,,,,,,,,,,,,,,
138592,001,2022-11-20_23h50.11.675,Info_measure_main_exp,2022.2.2,Win32,60.07810153,,,,,,,,,,,,,,,,,,masks/mask_004.jpg,,,,,,,,,,,,,,,,,,,,,,,,,,,,,,,,,,,,,,,,,,,0,3,3,3,1,,,,,,,,,,,,,,,,,,,,,,,,,,,,,,,,,,,,,,,,,,,,,,
138592,001,2022-11-20_23h50.11.675,Info_measure_main_exp,2022.2.2,Win32,60.07810153,,,,,,,,,,,,,,,,,,masks/mask_001.jpg,,,,,,,,,,,,,,,,,,,,,,,,,,,,,,,,,,,,,,,,,,,0,4,4,0,1,,,,,,,,,,,,,,,,,,,,,,,,,,,,,,,,,,,,,,,,,,,,,,
138592,001,2022-11-20_23h50.11.675,Info_measure_main_exp,2022.2.2,Win32,60.07810153,,,,,,,,,,,,,,,,,,masks/mask_004.jpg,,,,,,,,,,,,,,,,,,,,,,,,,,,,,,,,,,,,,,,,,,,,,,,,0,0,0,3,1,,,,,,,,,,,,,,,,,,,,,,,,,,,,,,,,,,,,,,,,,
138592,001,2022-11-20_23h50.11.675,Info_measure_main_exp,2022.2.2,Win32,60.07810153,,,,,,,,,,,,,,,,,,masks/mask_001.jpg,,,,,,,,,,,,,,,,,,,,,,,,,,,,,,,,,,,,,,,,,,,,,,,,0,1,1,0,1,,,,,,,,,,,,,,,,,,,,,,,,,,,,,,,,,,,,,,,,,
138592,001,2022-11-20_23h50.11.675,Info_measure_main_exp,2022.2.2,Win32,60.07810153,,,,,,,,,,,,,,,,,,masks/mask_005.jpg,,,,,,,,,,,,,,,,,,,,,,,,,,,,,,,,,,,,,,,,,,,,,,,,0,2,2,4,1,,,,,,,,,,,,,,,,,,,,,,,,,,,,,,,,,,,,,,,,,
138592,001,2022-11-20_23h50.11.675,Info_measure_main_exp,2022.2.2,Win32,60.07810153,,,,,,,,,,,,,,,,,,masks/mask_002.jpg,,,,,,,,,,,,,,,,,,,,,,,,,,,,,,,,,,,,,,,,,,,,,,,,0,3,3,1,1,,,,,,,,,,,,,,,,,,,,,,,,,,,,,,,,,,,,,,,,,
138592,001,2022-11-20_23h50.11.675,Info_measure_main_exp,2022.2.2,Win32,60.07810153,,,,,,,,,,,,,,,,,,masks/mask_003.jpg,,,,,,,,,,,,,,,,,,,,,,,,,,,,,,,,,,,,,,,,,,,,,,,,0,4,4,2,1,,,,,,,,,,,,,,,,,,,,,,,,,,,,,,,,,,,,,,,,,
138592,001,2022-11-20_23h50.11.675,Info_measure_main_exp,2022.2.2,Win32,60.07810153,,,,,,,,,,,,,,,,,,,,,,,,,,,,,,0,1.0002,1,,,,,,,,,,,,0,131,5,5,2082,2082,absent_patch/patch0002082.jpg,absent_patch/patch0002082.jpg,,,,,,,,,,,,,,,,,,,,-0.05462963,0.127777778,1,0,0,response7disk,7,-0.006481481,0,1,0,0,center_square,0,6,6,74,1,,,,,,,,,,,,,,,,,,,,,,,
138592,001,2022-11-20_23h50.11.675,Info_measure_main_exp,2022.2.2,Win32,60.07810153,,,,,,,,,,,,,,,,,,masks/mask_002.jpg,,,,,,,,,,,,,,,,,,,,,,,,,,,,,,,,,,,,,,,,,,,0,0,0,1,1,,,,,,,,,,,,,,,,,,,,,,,,,,,,,,,,,,,,,,,,,,,,,,
138592,001,2022-11-20_23h50.11.675,Info_measure_main_exp,2022.2.2,Win32,60.07810153,,,,,,,,,,,,,,,,,,masks/mask_004.jpg,,,,,,,,,,,,,,,,,,,,,,,,,,,,,,,,,,,,,,,,,,,0,1,1,3,1,,,,,,,,,,,,,,,,,,,,,,,,,,,,,,,,,,,,,,,,,,,,,,
138592,001,2022-11-20_23h50.11.675,Info_measure_main_exp,2022.2.2,Win32,60.07810153,,,,,,,,,,,,,,,,,,masks/mask_003.jpg,,,,,,,,,,,,,,,,,,,,,,,,,,,,,,,,,,,,,,,,,,,0,2,2,2,1,,,,,,,,,,,,,,,,,,,,,,,,,,,,,,,,,,,,,,,,,,,,,,
138592,001,2022-11-20_23h50.11.675,Info_measure_main_exp,2022.2.2,Win32,60.07810153,,,,,,,,,,,,,,,,,,masks/mask_005.jpg,,,,,,,,,,,,,,,,,,,,,,,,,,,,,,,,,,,,,,,,,,,0,3,3,4,1,,,,,,,,,,,,,,,,,,,,,,,,,,,,,,,,,,,,,,,,,,,,,,
138592,001,2022-11-20_23h50.11.675,Info_measure_main_exp,2022.2.2,Win32,60.07810153,,,,,,,,,,,,,,,,,,masks/mask_001.jpg,,,,,,,,,,,,,,,,,,,,,,,,,,,,,,,,,,,,,,,,,,,0,4,4,0,1,,,,,,,,,,,,,,,,,,,,,,,,,,,,,,,,,,,,,,,,,,,,,,
138592,001,2022-11-20_23h50.11.675,Info_measure_main_exp,2022.2.2,Win32,60.07810153,,,,,,,,,,,,,,,,,,masks/mask_003.jpg,,,,,,,,,,,,,,,,,,,,,,,,,,,,,,,,,,,,,,,,,,,,,,,,0,0,0,2,1,,,,,,,,,,,,,,,,,,,,,,,,,,,,,,,,,,,,,,,,,
138592,001,2022-11-20_23h50.11.675,Info_measure_main_exp,2022.2.2,Win32,60.07810153,,,,,,,,,,,,,,,,,,masks/mask_005.jpg,,,,,,,,,,,,,,,,,,,,,,,,,,,,,,,,,,,,,,,,,,,,,,,,0,1,1,4,1,,,,,,,,,,,,,,,,,,,,,,,,,,,,,,,,,,,,,,,,,
138592,001,2022-11-20_23h50.11.675,Info_measure_main_exp,2022.2.2,Win32,60.07810153,,,,,,,,,,,,,,,,,,masks/mask_004.jpg,,,,,,,,,,,,,,,,,,,,,,,,,,,,,,,,,,,,,,,,,,,,,,,,0,2,2,3,1,,,,,,,,,,,,,,,,,,,,,,,,,,,,,,,,,,,,,,,,,
138592,001,2022-11-20_23h50.11.675,Info_measure_main_exp,2022.2.2,Win32,60.07810153,,,,,,,,,,,,,,,,,,masks/mask_001.jpg,,,,,,,,,,,,,,,,,,,,,,,,,,,,,,,,,,,,,,,,,,,,,,,,0,3,3,0,1,,,,,,,,,,,,,,,,,,,,,,,,,,,,,,,,,,,,,,,,,
138592,001,2022-11-20_23h50.11.675,Info_measure_main_exp,2022.2.2,Win32,60.07810153,,,,,,,,,,,,,,,,,,masks/mask_002.jpg,,,,,,,,,,,,,,,,,,,,,,,,,,,,,,,,,,,,,,,,,,,,,,,,0,4,4,1,1,,,,,,,,,,,,,,,,,,,,,,,,,,,,,,,,,,,,,,,,,
138592,001,2022-11-20_23h50.11.675,Info_measure_main_exp,2022.2.2,Win32,60.07810153,,,,,,,,,,,,,,,,,,,,,,,,,,,,,,1,1.6666,1,,,,,,,,,,,,1,131,5,5,1,1986,present_patch/cong_131_5_a.jpg,absent_patch/patch0001986.jpg,,,,,,,,,,,,,,,,,,,,-0.10462963,0.042592593,1,0,0,response7disk,8,0.002777778,-0.009259259,1,0,0,center_square,0,7,7,106,1,,,,,,,,,,,,,,,,,,,,,,,
138592,001,2022-11-20_23h50.11.675,Info_measure_main_exp,2022.2.2,Win32,60.07810153,,,,,,,,,,,,,,,,,,masks/mask_003.jpg,,,,,,,,,,,,,,,,,,,,,,,,,,,,,,,,,,,,,,,,,,,0,0,0,2,1,,,,,,,,,,,,,,,,,,,,,,,,,,,,,,,,,,,,,,,,,,,,,,
138592,001,2022-11-20_23h50.11.675,Info_measure_main_exp,2022.2.2,Win32,60.07810153,,,,,,,,,,,,,,,,,,masks/mask_004.jpg,,,,,,,,,,,,,,,,,,,,,,,,,,,,,,,,,,,,,,,,,,,0,1,1,3,1,,,,,,,,,,,,,,,,,,,,,,,,,,,,,,,,,,,,,,,,,,,,,,
138592,001,2022-11-20_23h50.11.675,Info_measure_main_exp,2022.2.2,Win32,60.07810153,,,,,,,,,,,,,,,,,,masks/mask_005.jpg,,,,,,,,,,,,,,,,,,,,,,,,,,,,,,,,,,,,,,,,,,,0,2,2,4,1,,,,,,,,,,,,,,,,,,,,,,,,,,,,,,,,,,,,,,,,,,,,,,
138592,001,2022-11-20_23h50.11.675,Info_measure_main_exp,2022.2.2,Win32,60.07810153,,,,,,,,,,,,,,,,,,masks/mask_002.jpg,,,,,,,,,,,,,,,,,,,,,,,,,,,,,,,,,,,,,,,,,,,0,3,3,1,1,,,,,,,,,,,,,,,,,,,,,,,,,,,,,,,,,,,,,,,,,,,,,,
138592,001,2022-11-20_23h50.11.675,Info_measure_main_exp,2022.2.2,Win32,60.07810153,,,,,,,,,,,,,,,,,,masks/mask_001.jpg,,,,,,,,,,,,,,,,,,,,,,,,,,,,,,,,,,,,,,,,,,,0,4,4,0,1,,,,,,,,,,,,,,,,,,,,,,,,,,,,,,,,,,,,,,,,,,,,,,
138592,001,2022-11-20_23h50.11.675,Info_measure_main_exp,2022.2.2,Win32,60.07810153,,,,,,,,,,,,,,,,,,masks/mask_005.jpg,,,,,,,,,,,,,,,,,,,,,,,,,,,,,,,,,,,,,,,,,,,,,,,,0,0,0,4,1,,,,,,,,,,,,,,,,,,,,,,,,,,,,,,,,,,,,,,,,,
138592,001,2022-11-20_23h50.11.675,Info_measure_main_exp,2022.2.2,Win32,60.07810153,,,,,,,,,,,,,,,,,,masks/mask_002.jpg,,,,,,,,,,,,,,,,,,,,,,,,,,,,,,,,,,,,,,,,,,,,,,,,0,1,1,1,1,,,,,,,,,,,,,,,,,,,,,,,,,,,,,,,,,,,,,,,,,
138592,001,2022-11-20_23h50.11.675,Info_measure_main_exp,2022.2.2,Win32,60.07810153,,,,,,,,,,,,,,,,,,masks/mask_003.jpg,,,,,,,,,,,,,,,,,,,,,,,,,,,,,,,,,,,,,,,,,,,,,,,,0,2,2,2,1,,,,,,,,,,,,,,,,,,,,,,,,,,,,,,,,,,,,,,,,,
138592,001,2022-11-20_23h50.11.675,Info_measure_main_exp,2022.2.2,Win32,60.07810153,,,,,,,,,,,,,,,,,,masks/mask_001.jpg,,,,,,,,,,,,,,,,,,,,,,,,,,,,,,,,,,,,,,,,,,,,,,,,0,3,3,0,1,,,,,,,,,,,,,,,,,,,,,,,,,,,,,,,,,,,,,,,,,
138592,001,2022-11-20_23h50.11.675,Info_measure_main_exp,2022.2.2,Win32,60.07810153,,,,,,,,,,,,,,,,,,masks/mask_004.jpg,,,,,,,,,,,,,,,,,,,,,,,,,,,,,,,,,,,,,,,,,,,,,,,,0,4,4,3,1,,,,,,,,,,,,,,,,,,,,,,,,,,,,,,,,,,,,,,,,,
138592,001,2022-11-20_23h50.11.675,Info_measure_main_exp,2022.2.2,Win32,60.07810153,,,,,,,,,,,,,,,,,,,,,,,,,,,,,,6,1.4499,1,,,,,,,,,,,,0,131,5,5,2250,2178,absent_patch/patch0002250.jpg,absent_patch/patch0002178.jpg,,,,,,,,,,,,,,,,,,,,0.126851852,0.015740741,1,0,0,response1disk,9,0.003703704,-0.009259259,1,0,0,center_square,0,8,8,48,1,,,,,,,,,,,,,,,,,,,,,,,
138592,001,2022-11-20_23h50.11.675,Info_measure_main_exp,2022.2.2,Win32,60.07810153,,,,,,,,,,,,,,,,,,masks/mask_001.jpg,,,,,,,,,,,,,,,,,,,,,,,,,,,,,,,,,,,,,,,,,,,0,0,0,0,1,,,,,,,,,,,,,,,,,,,,,,,,,,,,,,,,,,,,,,,,,,,,,,
138592,001,2022-11-20_23h50.11.675,Info_measure_main_exp,2022.2.2,Win32,60.07810153,,,,,,,,,,,,,,,,,,masks/mask_002.jpg,,,,,,,,,,,,,,,,,,,,,,,,,,,,,,,,,,,,,,,,,,,0,1,1,1,1,,,,,,,,,,,,,,,,,,,,,,,,,,,,,,,,,,,,,,,,,,,,,,
138592,001,2022-11-20_23h50.11.675,Info_measure_main_exp,2022.2.2,Win32,60.07810153,,,,,,,,,,,,,,,,,,masks/mask_005.jpg,,,,,,,,,,,,,,,,,,,,,,,,,,,,,,,,,,,,,,,,,,,0,2,2,4,1,,,,,,,,,,,,,,,,,,,,,,,,,,,,,,,,,,,,,,,,,,,,,,
138592,001,2022-11-20_23h50.11.675,Info_measure_main_exp,2022.2.2,Win32,60.07810153,,,,,,,,,,,,,,,,,,masks/mask_003.jpg,,,,,,,,,,,,,,,,,,,,,,,,,,,,,,,,,,,,,,,,,,,0,3,3,2,1,,,,,,,,,,,,,,,,,,,,,,,,,,,,,,,,,,,,,,,,,,,,,,
138592,001,2022-11-20_23h50.11.675,Info_measure_main_exp,2022.2.2,Win32,60.07810153,,,,,,,,,,,,,,,,,,masks/mask_004.jpg,,,,,,,,,,,,,,,,,,,,,,,,,,,,,,,,,,,,,,,,,,,0,4,4,3,1,,,,,,,,,,,,,,,,,,,,,,,,,,,,,,,,,,,,,,,,,,,,,,
138592,001,2022-11-20_23h50.11.675,Info_measure_main_exp,2022.2.2,Win32,60.07810153,,,,,,,,,,,,,,,,,,masks/mask_002.jpg,,,,,,,,,,,,,,,,,,,,,,,,,,,,,,,,,,,,,,,,,,,,,,,,0,0,0,1,1,,,,,,,,,,,,,,,,,,,,,,,,,,,,,,,,,,,,,,,,,
138592,001,2022-11-20_23h50.11.675,Info_measure_main_exp,2022.2.2,Win32,60.07810153,,,,,,,,,,,,,,,,,,masks/mask_001.jpg,,,,,,,,,,,,,,,,,,,,,,,,,,,,,,,,,,,,,,,,,,,,,,,,0,1,1,0,1,,,,,,,,,,,,,,,,,,,,,,,,,,,,,,,,,,,,,,,,,
138592,001,2022-11-20_23h50.11.675,Info_measure_main_exp,2022.2.2,Win32,60.07810153,,,,,,,,,,,,,,,,,,masks/mask_003.jpg,,,,,,,,,,,,,,,,,,,,,,,,,,,,,,,,,,,,,,,,,,,,,,,,0,2,2,2,1,,,,,,,,,,,,,,,,,,,,,,,,,,,,,,,,,,,,,,,,,
138592,001,2022-11-20_23h50.11.675,Info_measure_main_exp,2022.2.2,Win32,60.07810153,,,,,,,,,,,,,,,,,,masks/mask_005.jpg,,,,,,,,,,,,,,,,,,,,,,,,,,,,,,,,,,,,,,,,,,,,,,,,0,3,3,4,1,,,,,,,,,,,,,,,,,,,,,,,,,,,,,,,,,,,,,,,,,
138592,001,2022-11-20_23h50.11.675,Info_measure_main_exp,2022.2.2,Win32,60.07810153,,,,,,,,,,,,,,,,,,masks/mask_004.jpg,,,,,,,,,,,,,,,,,,,,,,,,,,,,,,,,,,,,,,,,,,,,,,,,0,4,4,3,1,,,,,,,,,,,,,,,,,,,,,,,,,,,,,,,,,,,,,,,,,
138592,001,2022-11-20_23h50.11.675,Info_measure_main_exp,2022.2.2,Win32,60.07810153,,,,,,,,,,,,,,,,,,,,,,,,,,,,,,7,1.1334,1,,,,,,,,,,,,1,131,5,5,1,2214,present_patch/cong_131_5_a.jpg,absent_patch/patch0002214.jpg,,,,,,,,,,,,,,,,,,,,0.055555556,0.102777778,1,0,0,response1disk,10,-0.000925926,0.002777778,1,0,0,center_square,0,9,9,4,1,,,,,,,,,,,,,,,,,,,,,,,
138592,001,2022-11-20_23h50.11.675,Info_measure_main_exp,2022.2.2,Win32,60.07810153,,,,,,,,,,,,,,,,,,masks/mask_003.jpg,,,,,,,,,,,,,,,,,,,,,,,,,,,,,,,,,,,,,,,,,,,0,0,0,2,1,,,,,,,,,,,,,,,,,,,,,,,,,,,,,,,,,,,,,,,,,,,,,,
138592,001,2022-11-20_23h50.11.675,Info_measure_main_exp,2022.2.2,Win32,60.07810153,,,,,,,,,,,,,,,,,,masks/mask_001.jpg,,,,,,,,,,,,,,,,,,,,,,,,,,,,,,,,,,,,,,,,,,,0,1,1,0,1,,,,,,,,,,,,,,,,,,,,,,,,,,,,,,,,,,,,,,,,,,,,,,
138592,001,2022-11-20_23h50.11.675,Info_measure_main_exp,2022.2.2,Win32,60.07810153,,,,,,,,,,,,,,,,,,masks/mask_005.jpg,,,,,,,,,,,,,,,,,,,,,,,,,,,,,,,,,,,,,,,,,,,0,2,2,4,1,,,,,,,,,,,,,,,,,,,,,,,,,,,,,,,,,,,,,,,,,,,,,,
138592,001,2022-11-20_23h50.11.675,Info_measure_main_exp,2022.2.2,Win32,60.07810153,,,,,,,,,,,,,,,,,,masks/mask_002.jpg,,,,,,,,,,,,,,,,,,,,,,,,,,,,,,,,,,,,,,,,,,,0,3,3,1,1,,,,,,,,,,,,,,,,,,,,,,,,,,,,,,,,,,,,,,,,,,,,,,
138592,001,2022-11-20_23h50.11.675,Info_measure_main_exp,2022.2.2,Win32,60.07810153,,,,,,,,,,,,,,,,,,masks/mask_004.jpg,,,,,,,,,,,,,,,,,,,,,,,,,,,,,,,,,,,,,,,,,,,0,4,4,3,1,,,,,,,,,,,,,,,,,,,,,,,,,,,,,,,,,,,,,,,,,,,,,,
138592,001,2022-11-20_23h50.11.675,Info_measure_main_exp,2022.2.2,Win32,60.07810153,,,,,,,,,,,,,,,,,,masks/mask_002.jpg,,,,,,,,,,,,,,,,,,,,,,,,,,,,,,,,,,,,,,,,,,,,,,,,0,0,0,1,1,,,,,,,,,,,,,,,,,,,,,,,,,,,,,,,,,,,,,,,,,
138592,001,2022-11-20_23h50.11.675,Info_measure_main_exp,2022.2.2,Win32,60.07810153,,,,,,,,,,,,,,,,,,masks/mask_003.jpg,,,,,,,,,,,,,,,,,,,,,,,,,,,,,,,,,,,,,,,,,,,,,,,,0,1,1,2,1,,,,,,,,,,,,,,,,,,,,,,,,,,,,,,,,,,,,,,,,,
138592,001,2022-11-20_23h50.11.675,Info_measure_main_exp,2022.2.2,Win32,60.07810153,,,,,,,,,,,,,,,,,,masks/mask_004.jpg,,,,,,,,,,,,,,,,,,,,,,,,,,,,,,,,,,,,,,,,,,,,,,,,0,2,2,3,1,,,,,,,,,,,,,,,,,,,,,,,,,,,,,,,,,,,,,,,,,
138592,001,2022-11-20_23h50.11.675,Info_measure_main_exp,2022.2.2,Win32,60.07810153,,,,,,,,,,,,,,,,,,masks/mask_005.jpg,,,,,,,,,,,,,,,,,,,,,,,,,,,,,,,,,,,,,,,,,,,,,,,,0,3,3,4,1,,,,,,,,,,,,,,,,,,,,,,,,,,,,,,,,,,,,,,,,,
138592,001,2022-11-20_23h50.11.675,Info_measure_main_exp,2022.2.2,Win32,60.07810153,,,,,,,,,,,,,,,,,,masks/mask_001.jpg,,,,,,,,,,,,,,,,,,,,,,,,,,,,,,,,,,,,,,,,,,,,,,,,0,4,4,0,1,,,,,,,,,,,,,,,,,,,,,,,,,,,,,,,,,,,,,,,,,
138592,001,2022-11-20_23h50.11.675,Info_measure_main_exp,2022.2.2,Win32,60.07810153,,,,,,,,,,,,,,,,,,,,,,,,,,,,,,3,1.2668,1,,,,,,,,,,,,0,131,5,5,2190,1950,absent_patch/patch0002190.jpg,absent_patch/patch0001950.jpg,,,,,,,,,,,,,,,,,,,,-0.046296296,-0.111111111,1,0,0,response5disk,11,0.00462963,0.005555556,1,0,0,center_square,0,10,10,73,1,,,,,,,,,,,,,,,,,,,,,,,
138592,001,2022-11-20_23h50.11.675,Info_measure_main_exp,2022.2.2,Win32,60.07810153,,,,,,,,,,,,,,,,,,masks/mask_002.jpg,,,,,,,,,,,,,,,,,,,,,,,,,,,,,,,,,,,,,,,,,,,0,0,0,1,1,,,,,,,,,,,,,,,,,,,,,,,,,,,,,,,,,,,,,,,,,,,,,,
138592,001,2022-11-20_23h50.11.675,Info_measure_main_exp,2022.2.2,Win32,60.07810153,,,,,,,,,,,,,,,,,,masks/mask_001.jpg,,,,,,,,,,,,,,,,,,,,,,,,,,,,,,,,,,,,,,,,,,,0,1,1,0,1,,,,,,,,,,,,,,,,,,,,,,,,,,,,,,,,,,,,,,,,,,,,,,
138592,001,2022-11-20_23h50.11.675,Info_measure_main_exp,2022.2.2,Win32,60.07810153,,,,,,,,,,,,,,,,,,masks/mask_004.jpg,,,,,,,,,,,,,,,,,,,,,,,,,,,,,,,,,,,,,,,,,,,0,2,2,3,1,,,,,,,,,,,,,,,,,,,,,,,,,,,,,,,,,,,,,,,,,,,,,,
138592,001,2022-11-20_23h50.11.675,Info_measure_main_exp,2022.2.2,Win32,60.07810153,,,,,,,,,,,,,,,,,,masks/mask_003.jpg,,,,,,,,,,,,,,,,,,,,,,,,,,,,,,,,,,,,,,,,,,,0,3,3,2,1,,,,,,,,,,,,,,,,,,,,,,,,,,,,,,,,,,,,,,,,,,,,,,
138592,001,2022-11-20_23h50.11.675,Info_measure_main_exp,2022.2.2,Win32,60.07810153,,,,,,,,,,,,,,,,,,masks/mask_005.jpg,,,,,,,,,,,,,,,,,,,,,,,,,,,,,,,,,,,,,,,,,,,0,4,4,4,1,,,,,,,,,,,,,,,,,,,,,,,,,,,,,,,,,,,,,,,,,,,,,,
138592,001,2022-11-20_23h50.11.675,Info_measure_main_exp,2022.2.2,Win32,60.07810153,,,,,,,,,,,,,,,,,,masks/mask_002.jpg,,,,,,,,,,,,,,,,,,,,,,,,,,,,,,,,,,,,,,,,,,,,,,,,0,0,0,1,1,,,,,,,,,,,,,,,,,,,,,,,,,,,,,,,,,,,,,,,,,
138592,001,2022-11-20_23h50.11.675,Info_measure_main_exp,2022.2.2,Win32,60.07810153,,,,,,,,,,,,,,,,,,masks/mask_001.jpg,,,,,,,,,,,,,,,,,,,,,,,,,,,,,,,,,,,,,,,,,,,,,,,,0,1,1,0,1,,,,,,,,,,,,,,,,,,,,,,,,,,,,,,,,,,,,,,,,,
138592,001,2022-11-20_23h50.11.675,Info_measure_main_exp,2022.2.2,Win32,60.07810153,,,,,,,,,,,,,,,,,,masks/mask_005.jpg,,,,,,,,,,,,,,,,,,,,,,,,,,,,,,,,,,,,,,,,,,,,,,,,0,2,2,4,1,,,,,,,,,,,,,,,,,,,,,,,,,,,,,,,,,,,,,,,,,
138592,001,2022-11-20_23h50.11.675,Info_measure_main_exp,2022.2.2,Win32,60.07810153,,,,,,,,,,,,,,,,,,masks/mask_003.jpg,,,,,,,,,,,,,,,,,,,,,,,,,,,,,,,,,,,,,,,,,,,,,,,,0,3,3,2,1,,,,,,,,,,,,,,,,,,,,,,,,,,,,,,,,,,,,,,,,,
138592,001,2022-11-20_23h50.11.675,Info_measure_main_exp,2022.2.2,Win32,60.07810153,,,,,,,,,,,,,,,,,,masks/mask_004.jpg,,,,,,,,,,,,,,,,,,,,,,,,,,,,,,,,,,,,,,,,,,,,,,,,0,4,4,3,1,,,,,,,,,,,,,,,,,,,,,,,,,,,,,,,,,,,,,,,,,
138592,001,2022-11-20_23h50.11.675,Info_measure_main_exp,2022.2.2,Win32,60.07810153,,,,,,,,,,,,,,,,,,,,,,,,,,,,,,3,1.4502,1,,,,,,,,,,,,0,131,5,5,2082,1974,absent_patch/patch0002082.jpg,absent_patch/patch0001974.jpg,,,,,,,,,,,,,,,,,,,,-0.026851852,-0.075925926,1,0,0,response5disk,12,0.000925926,0.00462963,1,0,0,center_square,0,11,11,26,1,,,,,,,,,,,,,,,,,,,,,,,
138592,001,2022-11-20_23h50.11.675,Info_measure_main_exp,2022.2.2,Win32,60.07810153,,,,,,,,,,,,,,,,,,masks/mask_002.jpg,,,,,,,,,,,,,,,,,,,,,,,,,,,,,,,,,,,,,,,,,,,0,0,0,1,1,,,,,,,,,,,,,,,,,,,,,,,,,,,,,,,,,,,,,,,,,,,,,,
138592,001,2022-11-20_23h50.11.675,Info_measure_main_exp,2022.2.2,Win32,60.07810153,,,,,,,,,,,,,,,,,,masks/mask_003.jpg,,,,,,,,,,,,,,,,,,,,,,,,,,,,,,,,,,,,,,,,,,,0,1,1,2,1,,,,,,,,,,,,,,,,,,,,,,,,,,,,,,,,,,,,,,,,,,,,,,
138592,001,2022-11-20_23h50.11.675,Info_measure_main_exp,2022.2.2,Win32,60.07810153,,,,,,,,,,,,,,,,,,masks/mask_001.jpg,,,,,,,,,,,,,,,,,,,,,,,,,,,,,,,,,,,,,,,,,,,0,2,2,0,1,,,,,,,,,,,,,,,,,,,,,,,,,,,,,,,,,,,,,,,,,,,,,,
138592,001,2022-11-20_23h50.11.675,Info_measure_main_exp,2022.2.2,Win32,60.07810153,,,,,,,,,,,,,,,,,,masks/mask_005.jpg,,,,,,,,,,,,,,,,,,,,,,,,,,,,,,,,,,,,,,,,,,,0,3,3,4,1,,,,,,,,,,,,,,,,,,,,,,,,,,,,,,,,,,,,,,,,,,,,,,
138592,001,2022-11-20_23h50.11.675,Info_measure_main_exp,2022.2.2,Win32,60.07810153,,,,,,,,,,,,,,,,,,masks/mask_004.jpg,,,,,,,,,,,,,,,,,,,,,,,,,,,,,,,,,,,,,,,,,,,0,4,4,3,1,,,,,,,,,,,,,,,,,,,,,,,,,,,,,,,,,,,,,,,,,,,,,,
138592,001,2022-11-20_23h50.11.675,Info_measure_main_exp,2022.2.2,Win32,60.07810153,,,,,,,,,,,,,,,,,,masks/mask_001.jpg,,,,,,,,,,,,,,,,,,,,,,,,,,,,,,,,,,,,,,,,,,,,,,,,0,0,0,0,1,,,,,,,,,,,,,,,,,,,,,,,,,,,,,,,,,,,,,,,,,
138592,001,2022-11-20_23h50.11.675,Info_measure_main_exp,2022.2.2,Win32,60.07810153,,,,,,,,,,,,,,,,,,masks/mask_003.jpg,,,,,,,,,,,,,,,,,,,,,,,,,,,,,,,,,,,,,,,,,,,,,,,,0,1,1,2,1,,,,,,,,,,,,,,,,,,,,,,,,,,,,,,,,,,,,,,,,,
138592,001,2022-11-20_23h50.11.675,Info_measure_main_exp,2022.2.2,Win32,60.07810153,,,,,,,,,,,,,,,,,,masks/mask_002.jpg,,,,,,,,,,,,,,,,,,,,,,,,,,,,,,,,,,,,,,,,,,,,,,,,0,2,2,1,1,,,,,,,,,,,,,,,,,,,,,,,,,,,,,,,,,,,,,,,,,
138592,001,2022-11-20_23h50.11.675,Info_measure_main_exp,2022.2.2,Win32,60.07810153,,,,,,,,,,,,,,,,,,masks/mask_005.jpg,,,,,,,,,,,,,,,,,,,,,,,,,,,,,,,,,,,,,,,,,,,,,,,,0,3,3,4,1,,,,,,,,,,,,,,,,,,,,,,,,,,,,,,,,,,,,,,,,,
138592,001,2022-11-20_23h50.11.675,Info_measure_main_exp,2022.2.2,Win32,60.07810153,,,,,,,,,,,,,,,,,,masks/mask_004.jpg,,,,,,,,,,,,,,,,,,,,,,,,,,,,,,,,,,,,,,,,,,,,,,,,0,4,4,3,1,,,,,,,,,,,,,,,,,,,,,,,,,,,,,,,,,,,,,,,,,
138592,001,2022-11-20_23h50.11.675,Info_measure_main_exp,2022.2.2,Win32,60.07810153,,,,,,,,,,,,,,,,,,,,,,,,,,,,,,6,2.6834,1,,,,,,,,,,,,0,131,5,5,2274,1974,absent_patch/patch0002274.jpg,absent_patch/patch0001974.jpg,,,,,,,,,,,,,,,,,,,,0.124074074,0.024074074,1,0,0,response1disk,13,0.00462963,0.005555556,1,0,0,center_square,0,12,12,90,1,,,,,,,,,,,,,,,,,,,,,,,
138592,001,2022-11-20_23h50.11.675,Info_measure_main_exp,2022.2.2,Win32,60.07810153,,,,,,,,,,,,,,,,,,masks/mask_001.jpg,,,,,,,,,,,,,,,,,,,,,,,,,,,,,,,,,,,,,,,,,,,0,0,0,0,1,,,,,,,,,,,,,,,,,,,,,,,,,,,,,,,,,,,,,,,,,,,,,,
138592,001,2022-11-20_23h50.11.675,Info_measure_main_exp,2022.2.2,Win32,60.07810153,,,,,,,,,,,,,,,,,,masks/mask_003.jpg,,,,,,,,,,,,,,,,,,,,,,,,,,,,,,,,,,,,,,,,,,,0,1,1,2,1,,,,,,,,,,,,,,,,,,,,,,,,,,,,,,,,,,,,,,,,,,,,,,
138592,001,2022-11-20_23h50.11.675,Info_measure_main_exp,2022.2.2,Win32,60.07810153,,,,,,,,,,,,,,,,,,masks/mask_002.jpg,,,,,,,,,,,,,,,,,,,,,,,,,,,,,,,,,,,,,,,,,,,0,2,2,1,1,,,,,,,,,,,,,,,,,,,,,,,,,,,,,,,,,,,,,,,,,,,,,,
138592,001,2022-11-20_23h50.11.675,Info_measure_main_exp,2022.2.2,Win32,60.07810153,,,,,,,,,,,,,,,,,,masks/mask_005.jpg,,,,,,,,,,,,,,,,,,,,,,,,,,,,,,,,,,,,,,,,,,,0,3,3,4,1,,,,,,,,,,,,,,,,,,,,,,,,,,,,,,,,,,,,,,,,,,,,,,
138592,001,2022-11-20_23h50.11.675,Info_measure_main_exp,2022.2.2,Win32,60.07810153,,,,,,,,,,,,,,,,,,masks/mask_004.jpg,,,,,,,,,,,,,,,,,,,,,,,,,,,,,,,,,,,,,,,,,,,0,4,4,3,1,,,,,,,,,,,,,,,,,,,,,,,,,,,,,,,,,,,,,,,,,,,,,,
138592,001,2022-11-20_23h50.11.675,Info_measure_main_exp,2022.2.2,Win32,60.07810153,,,,,,,,,,,,,,,,,,masks/mask_004.jpg,,,,,,,,,,,,,,,,,,,,,,,,,,,,,,,,,,,,,,,,,,,,,,,,0,0,0,3,1,,,,,,,,,,,,,,,,,,,,,,,,,,,,,,,,,,,,,,,,,
138592,001,2022-11-20_23h50.11.675,Info_measure_main_exp,2022.2.2,Win32,60.07810153,,,,,,,,,,,,,,,,,,masks/mask_002.jpg,,,,,,,,,,,,,,,,,,,,,,,,,,,,,,,,,,,,,,,,,,,,,,,,0,1,1,1,1,,,,,,,,,,,,,,,,,,,,,,,,,,,,,,,,,,,,,,,,,
138592,001,2022-11-20_23h50.11.675,Info_measure_main_exp,2022.2.2,Win32,60.07810153,,,,,,,,,,,,,,,,,,masks/mask_005.jpg,,,,,,,,,,,,,,,,,,,,,,,,,,,,,,,,,,,,,,,,,,,,,,,,0,2,2,4,1,,,,,,,,,,,,,,,,,,,,,,,,,,,,,,,,,,,,,,,,,
138592,001,2022-11-20_23h50.11.675,Info_measure_main_exp,2022.2.2,Win32,60.07810153,,,,,,,,,,,,,,,,,,masks/mask_003.jpg,,,,,,,,,,,,,,,,,,,,,,,,,,,,,,,,,,,,,,,,,,,,,,,,0,3,3,2,1,,,,,,,,,,,,,,,,,,,,,,,,,,,,,,,,,,,,,,,,,
138592,001,2022-11-20_23h50.11.675,Info_measure_main_exp,2022.2.2,Win32,60.07810153,,,,,,,,,,,,,,,,,,masks/mask_001.jpg,,,,,,,,,,,,,,,,,,,,,,,,,,,,,,,,,,,,,,,,,,,,,,,,0,4,4,0,1,,,,,,,,,,,,,,,,,,,,,,,,,,,,,,,,,,,,,,,,,
138592,001,2022-11-20_23h50.11.675,Info_measure_main_exp,2022.2.2,Win32,60.07810153,,,,,,,,,,,,,,,,,,,,,,,,,,,,,,7,1.8331,1,,,,,,,,,,,,0,131,5,5,2274,2082,absent_patch/patch0002274.jpg,absent_patch/patch0002082.jpg,,,,,,,,,,,,,,,,,,,,0.055555556,0.094444444,1,0,0,response1disk,14,0.001851852,0.006481481,1,0,0,center_square,0,13,13,100,1,,,,,,,,,,,,,,,,,,,,,,,
138592,001,2022-11-20_23h50.11.675,Info_measure_main_exp,2022.2.2,Win32,60.07810153,,,,,,,,,,,,,,,,,,masks/mask_001.jpg,,,,,,,,,,,,,,,,,,,,,,,,,,,,,,,,,,,,,,,,,,,0,0,0,0,1,,,,,,,,,,,,,,,,,,,,,,,,,,,,,,,,,,,,,,,,,,,,,,
138592,001,2022-11-20_23h50.11.675,Info_measure_main_exp,2022.2.2,Win32,60.07810153,,,,,,,,,,,,,,,,,,masks/mask_003.jpg,,,,,,,,,,,,,,,,,,,,,,,,,,,,,,,,,,,,,,,,,,,0,1,1,2,1,,,,,,,,,,,,,,,,,,,,,,,,,,,,,,,,,,,,,,,,,,,,,,
138592,001,2022-11-20_23h50.11.675,Info_measure_main_exp,2022.2.2,Win32,60.07810153,,,,,,,,,,,,,,,,,,masks/mask_004.jpg,,,,,,,,,,,,,,,,,,,,,,,,,,,,,,,,,,,,,,,,,,,0,2,2,3,1,,,,,,,,,,,,,,,,,,,,,,,,,,,,,,,,,,,,,,,,,,,,,,
138592,001,2022-11-20_23h50.11.675,Info_measure_main_exp,2022.2.2,Win32,60.07810153,,,,,,,,,,,,,,,,,,masks/mask_002.jpg,,,,,,,,,,,,,,,,,,,,,,,,,,,,,,,,,,,,,,,,,,,0,3,3,1,1,,,,,,,,,,,,,,,,,,,,,,,,,,,,,,,,,,,,,,,,,,,,,,
138592,001,2022-11-20_23h50.11.675,Info_measure_main_exp,2022.2.2,Win32,60.07810153,,,,,,,,,,,,,,,,,,masks/mask_005.jpg,,,,,,,,,,,,,,,,,,,,,,,,,,,,,,,,,,,,,,,,,,,0,4,4,4,1,,,,,,,,,,,,,,,,,,,,,,,,,,,,,,,,,,,,,,,,,,,,,,
138592,001,2022-11-20_23h50.11.675,Info_measure_main_exp,2022.2.2,Win32,60.07810153,,,,,,,,,,,,,,,,,,masks/mask_003.jpg,,,,,,,,,,,,,,,,,,,,,,,,,,,,,,,,,,,,,,,,,,,,,,,,0,0,0,2,1,,,,,,,,,,,,,,,,,,,,,,,,,,,,,,,,,,,,,,,,,
138592,001,2022-11-20_23h50.11.675,Info_measure_main_exp,2022.2.2,Win32,60.07810153,,,,,,,,,,,,,,,,,,masks/mask_005.jpg,,,,,,,,,,,,,,,,,,,,,,,,,,,,,,,,,,,,,,,,,,,,,,,,0,1,1,4,1,,,,,,,,,,,,,,,,,,,,,,,,,,,,,,,,,,,,,,,,,
138592,001,2022-11-20_23h50.11.675,Info_measure_main_exp,2022.2.2,Win32,60.07810153,,,,,,,,,,,,,,,,,,masks/mask_001.jpg,,,,,,,,,,,,,,,,,,,,,,,,,,,,,,,,,,,,,,,,,,,,,,,,0,2,2,0,1,,,,,,,,,,,,,,,,,,,,,,,,,,,,,,,,,,,,,,,,,
138592,001,2022-11-20_23h50.11.675,Info_measure_main_exp,2022.2.2,Win32,60.07810153,,,,,,,,,,,,,,,,,,masks/mask_002.jpg,,,,,,,,,,,,,,,,,,,,,,,,,,,,,,,,,,,,,,,,,,,,,,,,0,3,3,1,1,,,,,,,,,,,,,,,,,,,,,,,,,,,,,,,,,,,,,,,,,
138592,001,2022-11-20_23h50.11.675,Info_measure_main_exp,2022.2.2,Win32,60.07810153,,,,,,,,,,,,,,,,,,masks/mask_004.jpg,,,,,,,,,,,,,,,,,,,,,,,,,,,,,,,,,,,,,,,,,,,,,,,,0,4,4,3,1,,,,,,,,,,,,,,,,,,,,,,,,,,,,,,,,,,,,,,,,,
138592,001,2022-11-20_23h50.11.675,Info_measure_main_exp,2022.2.2,Win32,60.07810153,,,,,,,,,,,,,,,,,,,,,,,,,,,,,,3,1.0668,1,,,,,,,,,,,,0,131,5,5,2178,2142,absent_patch/patch0002178.jpg,absent_patch/patch0002142.jpg,,,,,,,,,,,,,,,,,,,,-0.025,-0.107407407,1,0,0,response5disk,15,0.011111111,-0.006481481,1,0,0,center_square,0,14,14,41,1,,,,,,,,,,,,,,,,,,,,,,,
138592,001,2022-11-20_23h50.11.675,Info_measure_main_exp,2022.2.2,Win32,60.07810153,,,,,,,,,,,,,,,,,,masks/mask_005.jpg,,,,,,,,,,,,,,,,,,,,,,,,,,,,,,,,,,,,,,,,,,,0,0,0,4,1,,,,,,,,,,,,,,,,,,,,,,,,,,,,,,,,,,,,,,,,,,,,,,
138592,001,2022-11-20_23h50.11.675,Info_measure_main_exp,2022.2.2,Win32,60.07810153,,,,,,,,,,,,,,,,,,masks/mask_002.jpg,,,,,,,,,,,,,,,,,,,,,,,,,,,,,,,,,,,,,,,,,,,0,1,1,1,1,,,,,,,,,,,,,,,,,,,,,,,,,,,,,,,,,,,,,,,,,,,,,,
138592,001,2022-11-20_23h50.11.675,Info_measure_main_exp,2022.2.2,Win32,60.07810153,,,,,,,,,,,,,,,,,,masks/mask_003.jpg,,,,,,,,,,,,,,,,,,,,,,,,,,,,,,,,,,,,,,,,,,,0,2,2,2,1,,,,,,,,,,,,,,,,,,,,,,,,,,,,,,,,,,,,,,,,,,,,,,
138592,001,2022-11-20_23h50.11.675,Info_measure_main_exp,2022.2.2,Win32,60.07810153,,,,,,,,,,,,,,,,,,masks/mask_001.jpg,,,,,,,,,,,,,,,,,,,,,,,,,,,,,,,,,,,,,,,,,,,0,3,3,0,1,,,,,,,,,,,,,,,,,,,,,,,,,,,,,,,,,,,,,,,,,,,,,,
138592,001,2022-11-20_23h50.11.675,Info_measure_main_exp,2022.2.2,Win32,60.07810153,,,,,,,,,,,,,,,,,,masks/mask_004.jpg,,,,,,,,,,,,,,,,,,,,,,,,,,,,,,,,,,,,,,,,,,,0,4,4,3,1,,,,,,,,,,,,,,,,,,,,,,,,,,,,,,,,,,,,,,,,,,,,,,
138592,001,2022-11-20_23h50.11.675,Info_measure_main_exp,2022.2.2,Win32,60.07810153,,,,,,,,,,,,,,,,,,masks/mask_003.jpg,,,,,,,,,,,,,,,,,,,,,,,,,,,,,,,,,,,,,,,,,,,,,,,,0,0,0,2,1,,,,,,,,,,,,,,,,,,,,,,,,,,,,,,,,,,,,,,,,,
138592,001,2022-11-20_23h50.11.675,Info_measure_main_exp,2022.2.2,Win32,60.07810153,,,,,,,,,,,,,,,,,,masks/mask_001.jpg,,,,,,,,,,,,,,,,,,,,,,,,,,,,,,,,,,,,,,,,,,,,,,,,0,1,1,0,1,,,,,,,,,,,,,,,,,,,,,,,,,,,,,,,,,,,,,,,,,
138592,001,2022-11-20_23h50.11.675,Info_measure_main_exp,2022.2.2,Win32,60.07810153,,,,,,,,,,,,,,,,,,masks/mask_005.jpg,,,,,,,,,,,,,,,,,,,,,,,,,,,,,,,,,,,,,,,,,,,,,,,,0,2,2,4,1,,,,,,,,,,,,,,,,,,,,,,,,,,,,,,,,,,,,,,,,,
138592,001,2022-11-20_23h50.11.675,Info_measure_main_exp,2022.2.2,Win32,60.07810153,,,,,,,,,,,,,,,,,,masks/mask_004.jpg,,,,,,,,,,,,,,,,,,,,,,,,,,,,,,,,,,,,,,,,,,,,,,,,0,3,3,3,1,,,,,,,,,,,,,,,,,,,,,,,,,,,,,,,,,,,,,,,,,
138592,001,2022-11-20_23h50.11.675,Info_measure_main_exp,2022.2.2,Win32,60.07810153,,,,,,,,,,,,,,,,,,masks/mask_002.jpg,,,,,,,,,,,,,,,,,,,,,,,,,,,,,,,,,,,,,,,,,,,,,,,,0,4,4,1,1,,,,,,,,,,,,,,,,,,,,,,,,,,,,,,,,,,,,,,,,,
138592,001,2022-11-20_23h50.11.675,Info_measure_main_exp,2022.2.2,Win32,60.07810153,,,,,,,,,,,,,,,,,,,,,,,,,,,,,,5,1.2336,1,,,,,,,,,,,,1,131,5,5,1,1974,present_patch/cong_131_5_a.jpg,absent_patch/patch0001974.jpg,,,,,,,,,,,,,,,,,,,,0.110185185,-0.030555556,1,0,0,response3disk,16,0.000925926,-0.005555556,1,0,0,center_square,0,15,15,69,1,,,,,,,,,,,,,,,,,,,,,,,
138592,001,2022-11-20_23h50.11.675,Info_measure_main_exp,2022.2.2,Win32,60.07810153,,,,,,,,,,,,,,,,,,masks/mask_003.jpg,,,,,,,,,,,,,,,,,,,,,,,,,,,,,,,,,,,,,,,,,,,0,0,0,2,1,,,,,,,,,,,,,,,,,,,,,,,,,,,,,,,,,,,,,,,,,,,,,,
138592,001,2022-11-20_23h50.11.675,Info_measure_main_exp,2022.2.2,Win32,60.07810153,,,,,,,,,,,,,,,,,,masks/mask_001.jpg,,,,,,,,,,,,,,,,,,,,,,,,,,,,,,,,,,,,,,,,,,,0,1,1,0,1,,,,,,,,,,,,,,,,,,,,,,,,,,,,,,,,,,,,,,,,,,,,,,
138592,001,2022-11-20_23h50.11.675,Info_measure_main_exp,2022.2.2,Win32,60.07810153,,,,,,,,,,,,,,,,,,masks/mask_002.jpg,,,,,,,,,,,,,,,,,,,,,,,,,,,,,,,,,,,,,,,,,,,0,2,2,1,1,,,,,,,,,,,,,,,,,,,,,,,,,,,,,,,,,,,,,,,,,,,,,,
138592,001,2022-11-20_23h50.11.675,Info_measure_main_exp,2022.2.2,Win32,60.07810153,,,,,,,,,,,,,,,,,,masks/mask_005.jpg,,,,,,,,,,,,,,,,,,,,,,,,,,,,,,,,,,,,,,,,,,,0,3,3,4,1,,,,,,,,,,,,,,,,,,,,,,,,,,,,,,,,,,,,,,,,,,,,,,
138592,001,2022-11-20_23h50.11.675,Info_measure_main_exp,2022.2.2,Win32,60.07810153,,,,,,,,,,,,,,,,,,masks/mask_004.jpg,,,,,,,,,,,,,,,,,,,,,,,,,,,,,,,,,,,,,,,,,,,0,4,4,3,1,,,,,,,,,,,,,,,,,,,,,,,,,,,,,,,,,,,,,,,,,,,,,,
138592,001,2022-11-20_23h50.11.675,Info_measure_main_exp,2022.2.2,Win32,60.07810153,,,,,,,,,,,,,,,,,,masks/mask_003.jpg,,,,,,,,,,,,,,,,,,,,,,,,,,,,,,,,,,,,,,,,,,,,,,,,0,0,0,2,1,,,,,,,,,,,,,,,,,,,,,,,,,,,,,,,,,,,,,,,,,
138592,001,2022-11-20_23h50.11.675,Info_measure_main_exp,2022.2.2,Win32,60.07810153,,,,,,,,,,,,,,,,,,masks/mask_004.jpg,,,,,,,,,,,,,,,,,,,,,,,,,,,,,,,,,,,,,,,,,,,,,,,,0,1,1,3,1,,,,,,,,,,,,,,,,,,,,,,,,,,,,,,,,,,,,,,,,,
138592,001,2022-11-20_23h50.11.675,Info_measure_main_exp,2022.2.2,Win32,60.07810153,,,,,,,,,,,,,,,,,,masks/mask_002.jpg,,,,,,,,,,,,,,,,,,,,,,,,,,,,,,,,,,,,,,,,,,,,,,,,0,2,2,1,1,,,,,,,,,,,,,,,,,,,,,,,,,,,,,,,,,,,,,,,,,
138592,001,2022-11-20_23h50.11.675,Info_measure_main_exp,2022.2.2,Win32,60.07810153,,,,,,,,,,,,,,,,,,masks/mask_005.jpg,,,,,,,,,,,,,,,,,,,,,,,,,,,,,,,,,,,,,,,,,,,,,,,,0,3,3,4,1,,,,,,,,,,,,,,,,,,,,,,,,,,,,,,,,,,,,,,,,,
138592,001,2022-11-20_23h50.11.675,Info_measure_main_exp,2022.2.2,Win32,60.07810153,,,,,,,,,,,,,,,,,,masks/mask_001.jpg,,,,,,,,,,,,,,,,,,,,,,,,,,,,,,,,,,,,,,,,,,,,,,,,0,4,4,0,1,,,,,,,,,,,,,,,,,,,,,,,,,,,,,,,,,,,,,,,,,
138592,001,2022-11-20_23h50.11.675,Info_measure_main_exp,2022.2.2,Win32,60.07810153,,,,,,,,,,,,,,,,,,,,,,,,,,,,,,6,0.9665,1,,,,,,,,,,,,1,131,5,5,2298,1,absent_patch/patch0002298.jpg,present_patch/cong_131_5_a.jpg,,,,,,,,,,,,,,,,,,,,0.098148148,0.037037037,1,0,0,response1disk,17,-0.012037037,0.000925926,1,0,0,center_square,0,16,16,45,1,,,,,,,,,,,,,,,,,,,,,,,
138592,001,2022-11-20_23h50.11.675,Info_measure_main_exp,2022.2.2,Win32,60.07810153,,,,,,,,,,,,,,,,,,masks/mask_003.jpg,,,,,,,,,,,,,,,,,,,,,,,,,,,,,,,,,,,,,,,,,,,0,0,0,2,1,,,,,,,,,,,,,,,,,,,,,,,,,,,,,,,,,,,,,,,,,,,,,,
138592,001,2022-11-20_23h50.11.675,Info_measure_main_exp,2022.2.2,Win32,60.07810153,,,,,,,,,,,,,,,,,,masks/mask_005.jpg,,,,,,,,,,,,,,,,,,,,,,,,,,,,,,,,,,,,,,,,,,,0,1,1,4,1,,,,,,,,,,,,,,,,,,,,,,,,,,,,,,,,,,,,,,,,,,,,,,
138592,001,2022-11-20_23h50.11.675,Info_measure_main_exp,2022.2.2,Win32,60.07810153,,,,,,,,,,,,,,,,,,masks/mask_002.jpg,,,,,,,,,,,,,,,,,,,,,,,,,,,,,,,,,,,,,,,,,,,0,2,2,1,1,,,,,,,,,,,,,,,,,,,,,,,,,,,,,,,,,,,,,,,,,,,,,,
138592,001,2022-11-20_23h50.11.675,Info_measure_main_exp,2022.2.2,Win32,60.07810153,,,,,,,,,,,,,,,,,,masks/mask_001.jpg,,,,,,,,,,,,,,,,,,,,,,,,,,,,,,,,,,,,,,,,,,,0,3,3,0,1,,,,,,,,,,,,,,,,,,,,,,,,,,,,,,,,,,,,,,,,,,,,,,
138592,001,2022-11-20_23h50.11.675,Info_measure_main_exp,2022.2.2,Win32,60.07810153,,,,,,,,,,,,,,,,,,masks/mask_004.jpg,,,,,,,,,,,,,,,,,,,,,,,,,,,,,,,,,,,,,,,,,,,0,4,4,3,1,,,,,,,,,,,,,,,,,,,,,,,,,,,,,,,,,,,,,,,,,,,,,,
138592,001,2022-11-20_23h50.11.675,Info_measure_main_exp,2022.2.2,Win32,60.07810153,,,,,,,,,,,,,,,,,,masks/mask_004.jpg,,,,,,,,,,,,,,,,,,,,,,,,,,,,,,,,,,,,,,,,,,,,,,,,0,0,0,3,1,,,,,,,,,,,,,,,,,,,,,,,,,,,,,,,,,,,,,,,,,
138592,001,2022-11-20_23h50.11.675,Info_measure_main_exp,2022.2.2,Win32,60.07810153,,,,,,,,,,,,,,,,,,masks/mask_001.jpg,,,,,,,,,,,,,,,,,,,,,,,,,,,,,,,,,,,,,,,,,,,,,,,,0,1,1,0,1,,,,,,,,,,,,,,,,,,,,,,,,,,,,,,,,,,,,,,,,,
138592,001,2022-11-20_23h50.11.675,Info_measure_main_exp,2022.2.2,Win32,60.07810153,,,,,,,,,,,,,,,,,,masks/mask_003.jpg,,,,,,,,,,,,,,,,,,,,,,,,,,,,,,,,,,,,,,,,,,,,,,,,0,2,2,2,1,,,,,,,,,,,,,,,,,,,,,,,,,,,,,,,,,,,,,,,,,
138592,001,2022-11-20_23h50.11.675,Info_measure_main_exp,2022.2.2,Win32,60.07810153,,,,,,,,,,,,,,,,,,masks/mask_002.jpg,,,,,,,,,,,,,,,,,,,,,,,,,,,,,,,,,,,,,,,,,,,,,,,,0,3,3,1,1,,,,,,,,,,,,,,,,,,,,,,,,,,,,,,,,,,,,,,,,,
138592,001,2022-11-20_23h50.11.675,Info_measure_main_exp,2022.2.2,Win32,60.07810153,,,,,,,,,,,,,,,,,,masks/mask_005.jpg,,,,,,,,,,,,,,,,,,,,,,,,,,,,,,,,,,,,,,,,,,,,,,,,0,4,4,4,1,,,,,,,,,,,,,,,,,,,,,,,,,,,,,,,,,,,,,,,,,
138592,001,2022-11-20_23h50.11.675,Info_measure_main_exp,2022.2.2,Win32,60.07810153,,,,,,,,,,,,,,,,,,,,,,,,,,,,,,6,1.1668,1,,,,,,,,,,,,0,131,5,5,2154,2250,absent_patch/patch0002154.jpg,absent_patch/patch0002250.jpg,,,,,,,,,,,,,,,,,,,,0.101851852,0.021296296,1,0,0,response1disk,18,0.009259259,-0.002777778,1,0,0,center_square,0,17,17,108,1,,,,,,,,,,,,,,,,,,,,,,,
138592,001,2022-11-20_23h50.11.675,Info_measure_main_exp,2022.2.2,Win32,60.07810153,,,,,,,,,,,,,,,,,,masks/mask_005.jpg,,,,,,,,,,,,,,,,,,,,,,,,,,,,,,,,,,,,,,,,,,,0,0,0,4,1,,,,,,,,,,,,,,,,,,,,,,,,,,,,,,,,,,,,,,,,,,,,,,
138592,001,2022-11-20_23h50.11.675,Info_measure_main_exp,2022.2.2,Win32,60.07810153,,,,,,,,,,,,,,,,,,masks/mask_004.jpg,,,,,,,,,,,,,,,,,,,,,,,,,,,,,,,,,,,,,,,,,,,0,1,1,3,1,,,,,,,,,,,,,,,,,,,,,,,,,,,,,,,,,,,,,,,,,,,,,,
138592,001,2022-11-20_23h50.11.675,Info_measure_main_exp,2022.2.2,Win32,60.07810153,,,,,,,,,,,,,,,,,,masks/mask_003.jpg,,,,,,,,,,,,,,,,,,,,,,,,,,,,,,,,,,,,,,,,,,,0,2,2,2,1,,,,,,,,,,,,,,,,,,,,,,,,,,,,,,,,,,,,,,,,,,,,,,
138592,001,2022-11-20_23h50.11.675,Info_measure_main_exp,2022.2.2,Win32,60.07810153,,,,,,,,,,,,,,,,,,masks/mask_002.jpg,,,,,,,,,,,,,,,,,,,,,,,,,,,,,,,,,,,,,,,,,,,0,3,3,1,1,,,,,,,,,,,,,,,,,,,,,,,,,,,,,,,,,,,,,,,,,,,,,,
138592,001,2022-11-20_23h50.11.675,Info_measure_main_exp,2022.2.2,Win32,60.07810153,,,,,,,,,,,,,,,,,,masks/mask_001.jpg,,,,,,,,,,,,,,,,,,,,,,,,,,,,,,,,,,,,,,,,,,,0,4,4,0,1,,,,,,,,,,,,,,,,,,,,,,,,,,,,,,,,,,,,,,,,,,,,,,
138592,001,2022-11-20_23h50.11.675,Info_measure_main_exp,2022.2.2,Win32,60.07810153,,,,,,,,,,,,,,,,,,masks/mask_001.jpg,,,,,,,,,,,,,,,,,,,,,,,,,,,,,,,,,,,,,,,,,,,,,,,,0,0,0,0,1,,,,,,,,,,,,,,,,,,,,,,,,,,,,,,,,,,,,,,,,,
138592,001,2022-11-20_23h50.11.675,Info_measure_main_exp,2022.2.2,Win32,60.07810153,,,,,,,,,,,,,,,,,,masks/mask_002.jpg,,,,,,,,,,,,,,,,,,,,,,,,,,,,,,,,,,,,,,,,,,,,,,,,0,1,1,1,1,,,,,,,,,,,,,,,,,,,,,,,,,,,,,,,,,,,,,,,,,
138592,001,2022-11-20_23h50.11.675,Info_measure_main_exp,2022.2.2,Win32,60.07810153,,,,,,,,,,,,,,,,,,masks/mask_005.jpg,,,,,,,,,,,,,,,,,,,,,,,,,,,,,,,,,,,,,,,,,,,,,,,,0,2,2,4,1,,,,,,,,,,,,,,,,,,,,,,,,,,,,,,,,,,,,,,,,,
138592,001,2022-11-20_23h50.11.675,Info_measure_main_exp,2022.2.2,Win32,60.07810153,,,,,,,,,,,,,,,,,,masks/mask_004.jpg,,,,,,,,,,,,,,,,,,,,,,,,,,,,,,,,,,,,,,,,,,,,,,,,0,3,3,3,1,,,,,,,,,,,,,,,,,,,,,,,,,,,,,,,,,,,,,,,,,
138592,001,2022-11-20_23h50.11.675,Info_measure_main_exp,2022.2.2,Win32,60.07810153,,,,,,,,,,,,,,,,,,masks/mask_003.jpg,,,,,,,,,,,,,,,,,,,,,,,,,,,,,,,,,,,,,,,,,,,,,,,,0,4,4,2,1,,,,,,,,,,,,,,,,,,,,,,,,,,,,,,,,,,,,,,,,,
138592,001,2022-11-20_23h50.11.675,Info_measure_main_exp,2022.2.2,Win32,60.07810153,,,,,,,,,,,,,,,,,,,,,,,,,,,,,,0,0.6833,1,,,,,,,,,,,,0,131,5,5,1950,1950,absent_patch/patch0001950.jpg,absent_patch/patch0001950.jpg,,,,,,,,,,,,,,,,,,,,-0.039814815,0.094444444,1,0,0,response7disk,19,0.002777778,0.008333333,1,0,0,center_square,0,18,18,92,1,,,,,,,,,,,,,,,,,,,,,,,
138592,001,2022-11-20_23h50.11.675,Info_measure_main_exp,2022.2.2,Win32,60.07810153,,,,,,,,,,,,,,,,,,masks/mask_005.jpg,,,,,,,,,,,,,,,,,,,,,,,,,,,,,,,,,,,,,,,,,,,0,0,0,4,1,,,,,,,,,,,,,,,,,,,,,,,,,,,,,,,,,,,,,,,,,,,,,,
138592,001,2022-11-20_23h50.11.675,Info_measure_main_exp,2022.2.2,Win32,60.07810153,,,,,,,,,,,,,,,,,,masks/mask_004.jpg,,,,,,,,,,,,,,,,,,,,,,,,,,,,,,,,,,,,,,,,,,,0,1,1,3,1,,,,,,,,,,,,,,,,,,,,,,,,,,,,,,,,,,,,,,,,,,,,,,
138592,001,2022-11-20_23h50.11.675,Info_measure_main_exp,2022.2.2,Win32,60.07810153,,,,,,,,,,,,,,,,,,masks/mask_002.jpg,,,,,,,,,,,,,,,,,,,,,,,,,,,,,,,,,,,,,,,,,,,0,2,2,1,1,,,,,,,,,,,,,,,,,,,,,,,,,,,,,,,,,,,,,,,,,,,,,,
138592,001,2022-11-20_23h50.11.675,Info_measure_main_exp,2022.2.2,Win32,60.07810153,,,,,,,,,,,,,,,,,,masks/mask_001.jpg,,,,,,,,,,,,,,,,,,,,,,,,,,,,,,,,,,,,,,,,,,,0,3,3,0,1,,,,,,,,,,,,,,,,,,,,,,,,,,,,,,,,,,,,,,,,,,,,,,
138592,001,2022-11-20_23h50.11.675,Info_measure_main_exp,2022.2.2,Win32,60.07810153,,,,,,,,,,,,,,,,,,masks/mask_003.jpg,,,,,,,,,,,,,,,,,,,,,,,,,,,,,,,,,,,,,,,,,,,0,4,4,2,1,,,,,,,,,,,,,,,,,,,,,,,,,,,,,,,,,,,,,,,,,,,,,,
138592,001,2022-11-20_23h50.11.675,Info_measure_main_exp,2022.2.2,Win32,60.07810153,,,,,,,,,,,,,,,,,,masks/mask_001.jpg,,,,,,,,,,,,,,,,,,,,,,,,,,,,,,,,,,,,,,,,,,,,,,,,0,0,0,0,1,,,,,,,,,,,,,,,,,,,,,,,,,,,,,,,,,,,,,,,,,
138592,001,2022-11-20_23h50.11.675,Info_measure_main_exp,2022.2.2,Win32,60.07810153,,,,,,,,,,,,,,,,,,masks/mask_005.jpg,,,,,,,,,,,,,,,,,,,,,,,,,,,,,,,,,,,,,,,,,,,,,,,,0,1,1,4,1,,,,,,,,,,,,,,,,,,,,,,,,,,,,,,,,,,,,,,,,,
138592,001,2022-11-20_23h50.11.675,Info_measure_main_exp,2022.2.2,Win32,60.07810153,,,,,,,,,,,,,,,,,,masks/mask_002.jpg,,,,,,,,,,,,,,,,,,,,,,,,,,,,,,,,,,,,,,,,,,,,,,,,0,2,2,1,1,,,,,,,,,,,,,,,,,,,,,,,,,,,,,,,,,,,,,,,,,
138592,001,2022-11-20_23h50.11.675,Info_measure_main_exp,2022.2.2,Win32,60.07810153,,,,,,,,,,,,,,,,,,masks/mask_004.jpg,,,,,,,,,,,,,,,,,,,,,,,,,,,,,,,,,,,,,,,,,,,,,,,,0,3,3,3,1,,,,,,,,,,,,,,,,,,,,,,,,,,,,,,,,,,,,,,,,,
138592,001,2022-11-20_23h50.11.675,Info_measure_main_exp,2022.2.2,Win32,60.07810153,,,,,,,,,,,,,,,,,,masks/mask_003.jpg,,,,,,,,,,,,,,,,,,,,,,,,,,,,,,,,,,,,,,,,,,,,,,,,0,4,4,2,1,,,,,,,,,,,,,,,,,,,,,,,,,,,,,,,,,,,,,,,,,
138592,001,2022-11-20_23h50.11.675,Info_measure_main_exp,2022.2.2,Win32,60.07810153,,,,,,,,,,,,,,,,,,,,,,,,,,,,,,2,0.9832,1,,,,,,,,,,,,0,131,5,5,2190,2178,absent_patch/patch0002190.jpg,absent_patch/patch0002178.jpg,,,,,,,,,,,,,,,,,,,,-0.096296296,-0.030555556,1,0,0,response5disk,20,-0.006481481,-0.005555556,1,0,0,center_square,0,19,19,14,1,,,,,,,,,,,,,,,,,,,,,,,
138592,001,2022-11-20_23h50.11.675,Info_measure_main_exp,2022.2.2,Win32,60.07810153,,,,,,,,,,,,,,,,,,masks/mask_002.jpg,,,,,,,,,,,,,,,,,,,,,,,,,,,,,,,,,,,,,,,,,,,0,0,0,1,1,,,,,,,,,,,,,,,,,,,,,,,,,,,,,,,,,,,,,,,,,,,,,,
138592,001,2022-11-20_23h50.11.675,Info_measure_main_exp,2022.2.2,Win32,60.07810153,,,,,,,,,,,,,,,,,,masks/mask_004.jpg,,,,,,,,,,,,,,,,,,,,,,,,,,,,,,,,,,,,,,,,,,,0,1,1,3,1,,,,,,,,,,,,,,,,,,,,,,,,,,,,,,,,,,,,,,,,,,,,,,
138592,001,2022-11-20_23h50.11.675,Info_measure_main_exp,2022.2.2,Win32,60.07810153,,,,,,,,,,,,,,,,,,masks/mask_005.jpg,,,,,,,,,,,,,,,,,,,,,,,,,,,,,,,,,,,,,,,,,,,0,2,2,4,1,,,,,,,,,,,,,,,,,,,,,,,,,,,,,,,,,,,,,,,,,,,,,,
138592,001,2022-11-20_23h50.11.675,Info_measure_main_exp,2022.2.2,Win32,60.07810153,,,,,,,,,,,,,,,,,,masks/mask_003.jpg,,,,,,,,,,,,,,,,,,,,,,,,,,,,,,,,,,,,,,,,,,,0,3,3,2,1,,,,,,,,,,,,,,,,,,,,,,,,,,,,,,,,,,,,,,,,,,,,,,
138592,001,2022-11-20_23h50.11.675,Info_measure_main_exp,2022.2.2,Win32,60.07810153,,,,,,,,,,,,,,,,,,masks/mask_001.jpg,,,,,,,,,,,,,,,,,,,,,,,,,,,,,,,,,,,,,,,,,,,0,4,4,0,1,,,,,,,,,,,,,,,,,,,,,,,,,,,,,,,,,,,,,,,,,,,,,,
138592,001,2022-11-20_23h50.11.675,Info_measure_main_exp,2022.2.2,Win32,60.07810153,,,,,,,,,,,,,,,,,,masks/mask_004.jpg,,,,,,,,,,,,,,,,,,,,,,,,,,,,,,,,,,,,,,,,,,,,,,,,0,0,0,3,1,,,,,,,,,,,,,,,,,,,,,,,,,,,,,,,,,,,,,,,,,
138592,001,2022-11-20_23h50.11.675,Info_measure_main_exp,2022.2.2,Win32,60.07810153,,,,,,,,,,,,,,,,,,masks/mask_003.jpg,,,,,,,,,,,,,,,,,,,,,,,,,,,,,,,,,,,,,,,,,,,,,,,,0,1,1,2,1,,,,,,,,,,,,,,,,,,,,,,,,,,,,,,,,,,,,,,,,,
138592,001,2022-11-20_23h50.11.675,Info_measure_main_exp,2022.2.2,Win32,60.07810153,,,,,,,,,,,,,,,,,,masks/mask_002.jpg,,,,,,,,,,,,,,,,,,,,,,,,,,,,,,,,,,,,,,,,,,,,,,,,0,2,2,1,1,,,,,,,,,,,,,,,,,,,,,,,,,,,,,,,,,,,,,,,,,
138592,001,2022-11-20_23h50.11.675,Info_measure_main_exp,2022.2.2,Win32,60.07810153,,,,,,,,,,,,,,,,,,masks/mask_001.jpg,,,,,,,,,,,,,,,,,,,,,,,,,,,,,,,,,,,,,,,,,,,,,,,,0,3,3,0,1,,,,,,,,,,,,,,,,,,,,,,,,,,,,,,,,,,,,,,,,,
138592,001,2022-11-20_23h50.11.675,Info_measure_main_exp,2022.2.2,Win32,60.07810153,,,,,,,,,,,,,,,,,,masks/mask_005.jpg,,,,,,,,,,,,,,,,,,,,,,,,,,,,,,,,,,,,,,,,,,,,,,,,0,4,4,4,1,,,,,,,,,,,,,,,,,,,,,,,,,,,,,,,,,,,,,,,,,
138592,001,2022-11-20_23h50.11.675,Info_measure_main_exp,2022.2.2,Win32,60.07810153,,,,,,,,,,,,,,,,,,,,,,,,,,,,,,3,1.2166,1,,,,,,,,,,,,0,131,5,5,2214,2166,absent_patch/patch0002214.jpg,absent_patch/patch0002166.jpg,,,,,,,,,,,,,,,,,,,,-0.042592593,-0.096296296,1,0,0,response5disk,21,0.007407407,-0.013888889,1,0,0,center_square,0,20,20,109,1,,,,,,,,,,,,,,,,,,,,,,,
138592,001,2022-11-20_23h50.11.675,Info_measure_main_exp,2022.2.2,Win32,60.07810153,,,,,,,,,,,,,,,,,,masks/mask_001.jpg,,,,,,,,,,,,,,,,,,,,,,,,,,,,,,,,,,,,,,,,,,,0,0,0,0,1,,,,,,,,,,,,,,,,,,,,,,,,,,,,,,,,,,,,,,,,,,,,,,
138592,001,2022-11-20_23h50.11.675,Info_measure_main_exp,2022.2.2,Win32,60.07810153,,,,,,,,,,,,,,,,,,masks/mask_003.jpg,,,,,,,,,,,,,,,,,,,,,,,,,,,,,,,,,,,,,,,,,,,0,1,1,2,1,,,,,,,,,,,,,,,,,,,,,,,,,,,,,,,,,,,,,,,,,,,,,,
138592,001,2022-11-20_23h50.11.675,Info_measure_main_exp,2022.2.2,Win32,60.07810153,,,,,,,,,,,,,,,,,,masks/mask_005.jpg,,,,,,,,,,,,,,,,,,,,,,,,,,,,,,,,,,,,,,,,,,,0,2,2,4,1,,,,,,,,,,,,,,,,,,,,,,,,,,,,,,,,,,,,,,,,,,,,,,
138592,001,2022-11-20_23h50.11.675,Info_measure_main_exp,2022.2.2,Win32,60.07810153,,,,,,,,,,,,,,,,,,masks/mask_002.jpg,,,,,,,,,,,,,,,,,,,,,,,,,,,,,,,,,,,,,,,,,,,0,3,3,1,1,,,,,,,,,,,,,,,,,,,,,,,,,,,,,,,,,,,,,,,,,,,,,,
138592,001,2022-11-20_23h50.11.675,Info_measure_main_exp,2022.2.2,Win32,60.07810153,,,,,,,,,,,,,,,,,,masks/mask_004.jpg,,,,,,,,,,,,,,,,,,,,,,,,,,,,,,,,,,,,,,,,,,,0,4,4,3,1,,,,,,,,,,,,,,,,,,,,,,,,,,,,,,,,,,,,,,,,,,,,,,
138592,001,2022-11-20_23h50.11.675,Info_measure_main_exp,2022.2.2,Win32,60.07810153,,,,,,,,,,,,,,,,,,masks/mask_001.jpg,,,,,,,,,,,,,,,,,,,,,,,,,,,,,,,,,,,,,,,,,,,,,,,,0,0,0,0,1,,,,,,,,,,,,,,,,,,,,,,,,,,,,,,,,,,,,,,,,,
138592,001,2022-11-20_23h50.11.675,Info_measure_main_exp,2022.2.2,Win32,60.07810153,,,,,,,,,,,,,,,,,,masks/mask_002.jpg,,,,,,,,,,,,,,,,,,,,,,,,,,,,,,,,,,,,,,,,,,,,,,,,0,1,1,1,1,,,,,,,,,,,,,,,,,,,,,,,,,,,,,,,,,,,,,,,,,
138592,001,2022-11-20_23h50.11.675,Info_measure_main_exp,2022.2.2,Win32,60.07810153,,,,,,,,,,,,,,,,,,masks/mask_005.jpg,,,,,,,,,,,,,,,,,,,,,,,,,,,,,,,,,,,,,,,,,,,,,,,,0,2,2,4,1,,,,,,,,,,,,,,,,,,,,,,,,,,,,,,,,,,,,,,,,,
138592,001,2022-11-20_23h50.11.675,Info_measure_main_exp,2022.2.2,Win32,60.07810153,,,,,,,,,,,,,,,,,,masks/mask_004.jpg,,,,,,,,,,,,,,,,,,,,,,,,,,,,,,,,,,,,,,,,,,,,,,,,0,3,3,3,1,,,,,,,,,,,,,,,,,,,,,,,,,,,,,,,,,,,,,,,,,
138592,001,2022-11-20_23h50.11.675,Info_measure_main_exp,2022.2.2,Win32,60.07810153,,,,,,,,,,,,,,,,,,masks/mask_003.jpg,,,,,,,,,,,,,,,,,,,,,,,,,,,,,,,,,,,,,,,,,,,,,,,,0,4,4,2,1,,,,,,,,,,,,,,,,,,,,,,,,,,,,,,,,,,,,,,,,,
138592,001,2022-11-20_23h50.11.675,Info_measure_main_exp,2022.2.2,Win32,60.07810153,,,,,,,,,,,,,,,,,,,,,,,,,,,,,,5,0.9164,1,,,,,,,,,,,,0,131,5,5,1950,2214,absent_patch/patch0001950.jpg,absent_patch/patch0002214.jpg,,,,,,,,,,,,,,,,,,,,0.085185185,-0.041666667,1,0,0,response3disk,22,0.010185185,0.003703704,1,0,0,center_square,0,21,21,85,1,,,,,,,,,,,,,,,,,,,,,,,
138592,001,2022-11-20_23h50.11.675,Info_measure_main_exp,2022.2.2,Win32,60.07810153,,,,,,,,,,,,,,,,,,masks/mask_004.jpg,,,,,,,,,,,,,,,,,,,,,,,,,,,,,,,,,,,,,,,,,,,0,0,0,3,1,,,,,,,,,,,,,,,,,,,,,,,,,,,,,,,,,,,,,,,,,,,,,,
138592,001,2022-11-20_23h50.11.675,Info_measure_main_exp,2022.2.2,Win32,60.07810153,,,,,,,,,,,,,,,,,,masks/mask_002.jpg,,,,,,,,,,,,,,,,,,,,,,,,,,,,,,,,,,,,,,,,,,,0,1,1,1,1,,,,,,,,,,,,,,,,,,,,,,,,,,,,,,,,,,,,,,,,,,,,,,
138592,001,2022-11-20_23h50.11.675,Info_measure_main_exp,2022.2.2,Win32,60.07810153,,,,,,,,,,,,,,,,,,masks/mask_005.jpg,,,,,,,,,,,,,,,,,,,,,,,,,,,,,,,,,,,,,,,,,,,0,2,2,4,1,,,,,,,,,,,,,,,,,,,,,,,,,,,,,,,,,,,,,,,,,,,,,,
138592,001,2022-11-20_23h50.11.675,Info_measure_main_exp,2022.2.2,Win32,60.07810153,,,,,,,,,,,,,,,,,,masks/mask_003.jpg,,,,,,,,,,,,,,,,,,,,,,,,,,,,,,,,,,,,,,,,,,,0,3,3,2,1,,,,,,,,,,,,,,,,,,,,,,,,,,,,,,,,,,,,,,,,,,,,,,
138592,001,2022-11-20_23h50.11.675,Info_measure_main_exp,2022.2.2,Win32,60.07810153,,,,,,,,,,,,,,,,,,masks/mask_001.jpg,,,,,,,,,,,,,,,,,,,,,,,,,,,,,,,,,,,,,,,,,,,0,4,4,0,1,,,,,,,,,,,,,,,,,,,,,,,,,,,,,,,,,,,,,,,,,,,,,,
138592,001,2022-11-20_23h50.11.675,Info_measure_main_exp,2022.2.2,Win32,60.07810153,,,,,,,,,,,,,,,,,,masks/mask_003.jpg,,,,,,,,,,,,,,,,,,,,,,,,,,,,,,,,,,,,,,,,,,,,,,,,0,0,0,2,1,,,,,,,,,,,,,,,,,,,,,,,,,,,,,,,,,,,,,,,,,
138592,001,2022-11-20_23h50.11.675,Info_measure_main_exp,2022.2.2,Win32,60.07810153,,,,,,,,,,,,,,,,,,masks/mask_002.jpg,,,,,,,,,,,,,,,,,,,,,,,,,,,,,,,,,,,,,,,,,,,,,,,,0,1,1,1,1,,,,,,,,,,,,,,,,,,,,,,,,,,,,,,,,,,,,,,,,,
138592,001,2022-11-20_23h50.11.675,Info_measure_main_exp,2022.2.2,Win32,60.07810153,,,,,,,,,,,,,,,,,,masks/mask_001.jpg,,,,,,,,,,,,,,,,,,,,,,,,,,,,,,,,,,,,,,,,,,,,,,,,0,2,2,0,1,,,,,,,,,,,,,,,,,,,,,,,,,,,,,,,,,,,,,,,,,
138592,001,2022-11-20_23h50.11.675,Info_measure_main_exp,2022.2.2,Win32,60.07810153,,,,,,,,,,,,,,,,,,masks/mask_004.jpg,,,,,,,,,,,,,,,,,,,,,,,,,,,,,,,,,,,,,,,,,,,,,,,,0,3,3,3,1,,,,,,,,,,,,,,,,,,,,,,,,,,,,,,,,,,,,,,,,,
138592,001,2022-11-20_23h50.11.675,Info_measure_main_exp,2022.2.2,Win32,60.07810153,,,,,,,,,,,,,,,,,,masks/mask_005.jpg,,,,,,,,,,,,,,,,,,,,,,,,,,,,,,,,,,,,,,,,,,,,,,,,0,4,4,4,1,,,,,,,,,,,,,,,,,,,,,,,,,,,,,,,,,,,,,,,,,
138592,001,2022-11-20_23h50.11.675,Info_measure_main_exp,2022.2.2,Win32,60.07810153,,,,,,,,,,,,,,,,,,,,,,,,,,,,,,4,1.2169,1,,,,,,,,,,,,0,131,5,5,1950,2166,absent_patch/patch0001950.jpg,absent_patch/patch0002166.jpg,,,,,,,,,,,,,,,,,,,,0.032407407,-0.071296296,1,0,0,response3disk,23,-0.007407407,0.005555556,1,0,0,center_square,0,22,22,0,1,,,,,,,,,,,,,,,,,,,,,,,
138592,001,2022-11-20_23h50.11.675,Info_measure_main_exp,2022.2.2,Win32,60.07810153,,,,,,,,,,,,,,,,,,masks/mask_001.jpg,,,,,,,,,,,,,,,,,,,,,,,,,,,,,,,,,,,,,,,,,,,0,0,0,0,1,,,,,,,,,,,,,,,,,,,,,,,,,,,,,,,,,,,,,,,,,,,,,,
138592,001,2022-11-20_23h50.11.675,Info_measure_main_exp,2022.2.2,Win32,60.07810153,,,,,,,,,,,,,,,,,,masks/mask_003.jpg,,,,,,,,,,,,,,,,,,,,,,,,,,,,,,,,,,,,,,,,,,,0,1,1,2,1,,,,,,,,,,,,,,,,,,,,,,,,,,,,,,,,,,,,,,,,,,,,,,
138592,001,2022-11-20_23h50.11.675,Info_measure_main_exp,2022.2.2,Win32,60.07810153,,,,,,,,,,,,,,,,,,masks/mask_002.jpg,,,,,,,,,,,,,,,,,,,,,,,,,,,,,,,,,,,,,,,,,,,0,2,2,1,1,,,,,,,,,,,,,,,,,,,,,,,,,,,,,,,,,,,,,,,,,,,,,,
138592,001,2022-11-20_23h50.11.675,Info_measure_main_exp,2022.2.2,Win32,60.07810153,,,,,,,,,,,,,,,,,,masks/mask_005.jpg,,,,,,,,,,,,,,,,,,,,,,,,,,,,,,,,,,,,,,,,,,,0,3,3,4,1,,,,,,,,,,,,,,,,,,,,,,,,,,,,,,,,,,,,,,,,,,,,,,
138592,001,2022-11-20_23h50.11.675,Info_measure_main_exp,2022.2.2,Win32,60.07810153,,,,,,,,,,,,,,,,,,masks/mask_004.jpg,,,,,,,,,,,,,,,,,,,,,,,,,,,,,,,,,,,,,,,,,,,0,4,4,3,1,,,,,,,,,,,,,,,,,,,,,,,,,,,,,,,,,,,,,,,,,,,,,,
138592,001,2022-11-20_23h50.11.675,Info_measure_main_exp,2022.2.2,Win32,60.07810153,,,,,,,,,,,,,,,,,,masks/mask_004.jpg,,,,,,,,,,,,,,,,,,,,,,,,,,,,,,,,,,,,,,,,,,,,,,,,0,0,0,3,1,,,,,,,,,,,,,,,,,,,,,,,,,,,,,,,,,,,,,,,,,
138592,001,2022-11-20_23h50.11.675,Info_measure_main_exp,2022.2.2,Win32,60.07810153,,,,,,,,,,,,,,,,,,masks/mask_002.jpg,,,,,,,,,,,,,,,,,,,,,,,,,,,,,,,,,,,,,,,,,,,,,,,,0,1,1,1,1,,,,,,,,,,,,,,,,,,,,,,,,,,,,,,,,,,,,,,,,,
138592,001,2022-11-20_23h50.11.675,Info_measure_main_exp,2022.2.2,Win32,60.07810153,,,,,,,,,,,,,,,,,,masks/mask_005.jpg,,,,,,,,,,,,,,,,,,,,,,,,,,,,,,,,,,,,,,,,,,,,,,,,0,2,2,4,1,,,,,,,,,,,,,,,,,,,,,,,,,,,,,,,,,,,,,,,,,
138592,001,2022-11-20_23h50.11.675,Info_measure_main_exp,2022.2.2,Win32,60.07810153,,,,,,,,,,,,,,,,,,masks/mask_001.jpg,,,,,,,,,,,,,,,,,,,,,,,,,,,,,,,,,,,,,,,,,,,,,,,,0,3,3,0,1,,,,,,,,,,,,,,,,,,,,,,,,,,,,,,,,,,,,,,,,,
138592,001,2022-11-20_23h50.11.675,Info_measure_main_exp,2022.2.2,Win32,60.07810153,,,,,,,,,,,,,,,,,,masks/mask_003.jpg,,,,,,,,,,,,,,,,,,,,,,,,,,,,,,,,,,,,,,,,,,,,,,,,0,4,4,2,1,,,,,,,,,,,,,,,,,,,,,,,,,,,,,,,,,,,,,,,,,
138592,001,2022-11-20_23h50.11.675,Info_measure_main_exp,2022.2.2,Win32,60.07810153,,,,,,,,,,,,,,,,,,,,,,,,,,,,,,3,1.1663,1,,,,,,,,,,,,0,131,5,5,2154,2214,absent_patch/patch0002154.jpg,absent_patch/patch0002214.jpg,,,,,,,,,,,,,,,,,,,,-0.02037037,-0.072222222,1,0,0,response5disk,24,0.001851852,-0.007407407,1,0,0,center_square,0,23,23,67,1,,,,,,,,,,,,,,,,,,,,,,,
138592,001,2022-11-20_23h50.11.675,Info_measure_main_exp,2022.2.2,Win32,60.07810153,,,,,,,,,,,,,,,,,,masks/mask_004.jpg,,,,,,,,,,,,,,,,,,,,,,,,,,,,,,,,,,,,,,,,,,,0,0,0,3,1,,,,,,,,,,,,,,,,,,,,,,,,,,,,,,,,,,,,,,,,,,,,,,
138592,001,2022-11-20_23h50.11.675,Info_measure_main_exp,2022.2.2,Win32,60.07810153,,,,,,,,,,,,,,,,,,masks/mask_001.jpg,,,,,,,,,,,,,,,,,,,,,,,,,,,,,,,,,,,,,,,,,,,0,1,1,0,1,,,,,,,,,,,,,,,,,,,,,,,,,,,,,,,,,,,,,,,,,,,,,,
138592,001,2022-11-20_23h50.11.675,Info_measure_main_exp,2022.2.2,Win32,60.07810153,,,,,,,,,,,,,,,,,,masks/mask_005.jpg,,,,,,,,,,,,,,,,,,,,,,,,,,,,,,,,,,,,,,,,,,,0,2,2,4,1,,,,,,,,,,,,,,,,,,,,,,,,,,,,,,,,,,,,,,,,,,,,,,
138592,001,2022-11-20_23h50.11.675,Info_measure_main_exp,2022.2.2,Win32,60.07810153,,,,,,,,,,,,,,,,,,masks/mask_002.jpg,,,,,,,,,,,,,,,,,,,,,,,,,,,,,,,,,,,,,,,,,,,0,3,3,1,1,,,,,,,,,,,,,,,,,,,,,,,,,,,,,,,,,,,,,,,,,,,,,,
138592,001,2022-11-20_23h50.11.675,Info_measure_main_exp,2022.2.2,Win32,60.07810153,,,,,,,,,,,,,,,,,,masks/mask_003.jpg,,,,,,,,,,,,,,,,,,,,,,,,,,,,,,,,,,,,,,,,,,,0,4,4,2,1,,,,,,,,,,,,,,,,,,,,,,,,,,,,,,,,,,,,,,,,,,,,,,
138592,001,2022-11-20_23h50.11.675,Info_measure_main_exp,2022.2.2,Win32,60.07810153,,,,,,,,,,,,,,,,,,masks/mask_001.jpg,,,,,,,,,,,,,,,,,,,,,,,,,,,,,,,,,,,,,,,,,,,,,,,,0,0,0,0,1,,,,,,,,,,,,,,,,,,,,,,,,,,,,,,,,,,,,,,,,,
138592,001,2022-11-20_23h50.11.675,Info_measure_main_exp,2022.2.2,Win32,60.07810153,,,,,,,,,,,,,,,,,,masks/mask_004.jpg,,,,,,,,,,,,,,,,,,,,,,,,,,,,,,,,,,,,,,,,,,,,,,,,0,1,1,3,1,,,,,,,,,,,,,,,,,,,,,,,,,,,,,,,,,,,,,,,,,
138592,001,2022-11-20_23h50.11.675,Info_measure_main_exp,2022.2.2,Win32,60.07810153,,,,,,,,,,,,,,,,,,masks/mask_002.jpg,,,,,,,,,,,,,,,,,,,,,,,,,,,,,,,,,,,,,,,,,,,,,,,,0,2,2,1,1,,,,,,,,,,,,,,,,,,,,,,,,,,,,,,,,,,,,,,,,,
138592,001,2022-11-20_23h50.11.675,Info_measure_main_exp,2022.2.2,Win32,60.07810153,,,,,,,,,,,,,,,,,,masks/mask_005.jpg,,,,,,,,,,,,,,,,,,,,,,,,,,,,,,,,,,,,,,,,,,,,,,,,0,3,3,4,1,,,,,,,,,,,,,,,,,,,,,,,,,,,,,,,,,,,,,,,,,
138592,001,2022-11-20_23h50.11.675,Info_measure_main_exp,2022.2.2,Win32,60.07810153,,,,,,,,,,,,,,,,,,masks/mask_003.jpg,,,,,,,,,,,,,,,,,,,,,,,,,,,,,,,,,,,,,,,,,,,,,,,,0,4,4,2,1,,,,,,,,,,,,,,,,,,,,,,,,,,,,,,,,,,,,,,,,,
138592,001,2022-11-20_23h50.11.675,Info_measure_main_exp,2022.2.2,Win32,60.07810153,,,,,,,,,,,,,,,,,,,,,,,,,,,,,,0,0.6667,1,,,,,,,,,,,,0,131,5,5,2238,2238,absent_patch/patch0002238.jpg,absent_patch/patch0002238.jpg,,,,,,,,,,,,,,,,,,,,-0.062037037,0.09537037,1,0,0,response7disk,25,-0.008333333,0.010185185,1,0,0,center_square,0,24,24,58,1,,,,,,,,,,,,,,,,,,,,,,,
138592,001,2022-11-20_23h50.11.675,Info_measure_main_exp,2022.2.2,Win32,60.07810153,,,,,,,,,,,,,,,,,,masks/mask_005.jpg,,,,,,,,,,,,,,,,,,,,,,,,,,,,,,,,,,,,,,,,,,,0,0,0,4,1,,,,,,,,,,,,,,,,,,,,,,,,,,,,,,,,,,,,,,,,,,,,,,
138592,001,2022-11-20_23h50.11.675,Info_measure_main_exp,2022.2.2,Win32,60.07810153,,,,,,,,,,,,,,,,,,masks/mask_003.jpg,,,,,,,,,,,,,,,,,,,,,,,,,,,,,,,,,,,,,,,,,,,0,1,1,2,1,,,,,,,,,,,,,,,,,,,,,,,,,,,,,,,,,,,,,,,,,,,,,,
138592,001,2022-11-20_23h50.11.675,Info_measure_main_exp,2022.2.2,Win32,60.07810153,,,,,,,,,,,,,,,,,,masks/mask_004.jpg,,,,,,,,,,,,,,,,,,,,,,,,,,,,,,,,,,,,,,,,,,,0,2,2,3,1,,,,,,,,,,,,,,,,,,,,,,,,,,,,,,,,,,,,,,,,,,,,,,
138592,001,2022-11-20_23h50.11.675,Info_measure_main_exp,2022.2.2,Win32,60.07810153,,,,,,,,,,,,,,,,,,masks/mask_001.jpg,,,,,,,,,,,,,,,,,,,,,,,,,,,,,,,,,,,,,,,,,,,0,3,3,0,1,,,,,,,,,,,,,,,,,,,,,,,,,,,,,,,,,,,,,,,,,,,,,,
138592,001,2022-11-20_23h50.11.675,Info_measure_main_exp,2022.2.2,Win32,60.07810153,,,,,,,,,,,,,,,,,,masks/mask_002.jpg,,,,,,,,,,,,,,,,,,,,,,,,,,,,,,,,,,,,,,,,,,,0,4,4,1,1,,,,,,,,,,,,,,,,,,,,,,,,,,,,,,,,,,,,,,,,,,,,,,
138592,001,2022-11-20_23h50.11.675,Info_measure_main_exp,2022.2.2,Win32,60.07810153,,,,,,,,,,,,,,,,,,masks/mask_004.jpg,,,,,,,,,,,,,,,,,,,,,,,,,,,,,,,,,,,,,,,,,,,,,,,,0,0,0,3,1,,,,,,,,,,,,,,,,,,,,,,,,,,,,,,,,,,,,,,,,,
138592,001,2022-11-20_23h50.11.675,Info_measure_main_exp,2022.2.2,Win32,60.07810153,,,,,,,,,,,,,,,,,,masks/mask_005.jpg,,,,,,,,,,,,,,,,,,,,,,,,,,,,,,,,,,,,,,,,,,,,,,,,0,1,1,4,1,,,,,,,,,,,,,,,,,,,,,,,,,,,,,,,,,,,,,,,,,
138592,001,2022-11-20_23h50.11.675,Info_measure_main_exp,2022.2.2,Win32,60.07810153,,,,,,,,,,,,,,,,,,masks/mask_001.jpg,,,,,,,,,,,,,,,,,,,,,,,,,,,,,,,,,,,,,,,,,,,,,,,,0,2,2,0,1,,,,,,,,,,,,,,,,,,,,,,,,,,,,,,,,,,,,,,,,,
138592,001,2022-11-20_23h50.11.675,Info_measure_main_exp,2022.2.2,Win32,60.07810153,,,,,,,,,,,,,,,,,,masks/mask_003.jpg,,,,,,,,,,,,,,,,,,,,,,,,,,,,,,,,,,,,,,,,,,,,,,,,0,3,3,2,1,,,,,,,,,,,,,,,,,,,,,,,,,,,,,,,,,,,,,,,,,
138592,001,2022-11-20_23h50.11.675,Info_measure_main_exp,2022.2.2,Win32,60.07810153,,,,,,,,,,,,,,,,,,masks/mask_002.jpg,,,,,,,,,,,,,,,,,,,,,,,,,,,,,,,,,,,,,,,,,,,,,,,,0,4,4,1,1,,,,,,,,,,,,,,,,,,,,,,,,,,,,,,,,,,,,,,,,,
138592,001,2022-11-20_23h50.11.675,Info_measure_main_exp,2022.2.2,Win32,60.07810153,,,,,,,,,,,,,,,,,,,,,,,,,,,,,,7,3.2665,1,,,,,,,,,,,,0,131,5,5,1974,2214,absent_patch/patch0001974.jpg,absent_patch/patch0002214.jpg,,,,,,,,,,,,,,,,,,,,0.074074074,0.109259259,1,0,0,response1disk,26,0.006481481,0.011111111,1,0,0,center_square,0,25,25,24,1,,,,,,,,,,,,,,,,,,,,,,,
138592,001,2022-11-20_23h50.11.675,Info_measure_main_exp,2022.2.2,Win32,60.07810153,,,,,,,,,,,,,,,,,,masks/mask_004.jpg,,,,,,,,,,,,,,,,,,,,,,,,,,,,,,,,,,,,,,,,,,,0,0,0,3,1,,,,,,,,,,,,,,,,,,,,,,,,,,,,,,,,,,,,,,,,,,,,,,
138592,001,2022-11-20_23h50.11.675,Info_measure_main_exp,2022.2.2,Win32,60.07810153,,,,,,,,,,,,,,,,,,masks/mask_001.jpg,,,,,,,,,,,,,,,,,,,,,,,,,,,,,,,,,,,,,,,,,,,0,1,1,0,1,,,,,,,,,,,,,,,,,,,,,,,,,,,,,,,,,,,,,,,,,,,,,,
138592,001,2022-11-20_23h50.11.675,Info_measure_main_exp,2022.2.2,Win32,60.07810153,,,,,,,,,,,,,,,,,,masks/mask_003.jpg,,,,,,,,,,,,,,,,,,,,,,,,,,,,,,,,,,,,,,,,,,,0,2,2,2,1,,,,,,,,,,,,,,,,,,,,,,,,,,,,,,,,,,,,,,,,,,,,,,
138592,001,2022-11-20_23h50.11.675,Info_measure_main_exp,2022.2.2,Win32,60.07810153,,,,,,,,,,,,,,,,,,masks/mask_005.jpg,,,,,,,,,,,,,,,,,,,,,,,,,,,,,,,,,,,,,,,,,,,0,3,3,4,1,,,,,,,,,,,,,,,,,,,,,,,,,,,,,,,,,,,,,,,,,,,,,,
138592,001,2022-11-20_23h50.11.675,Info_measure_main_exp,2022.2.2,Win32,60.07810153,,,,,,,,,,,,,,,,,,masks/mask_002.jpg,,,,,,,,,,,,,,,,,,,,,,,,,,,,,,,,,,,,,,,,,,,0,4,4,1,1,,,,,,,,,,,,,,,,,,,,,,,,,,,,,,,,,,,,,,,,,,,,,,
138592,001,2022-11-20_23h50.11.675,Info_measure_main_exp,2022.2.2,Win32,60.07810153,,,,,,,,,,,,,,,,,,masks/mask_001.jpg,,,,,,,,,,,,,,,,,,,,,,,,,,,,,,,,,,,,,,,,,,,,,,,,0,0,0,0,1,,,,,,,,,,,,,,,,,,,,,,,,,,,,,,,,,,,,,,,,,
138592,001,2022-11-20_23h50.11.675,Info_measure_main_exp,2022.2.2,Win32,60.07810153,,,,,,,,,,,,,,,,,,masks/mask_003.jpg,,,,,,,,,,,,,,,,,,,,,,,,,,,,,,,,,,,,,,,,,,,,,,,,0,1,1,2,1,,,,,,,,,,,,,,,,,,,,,,,,,,,,,,,,,,,,,,,,,
138592,001,2022-11-20_23h50.11.675,Info_measure_main_exp,2022.2.2,Win32,60.07810153,,,,,,,,,,,,,,,,,,masks/mask_005.jpg,,,,,,,,,,,,,,,,,,,,,,,,,,,,,,,,,,,,,,,,,,,,,,,,0,2,2,4,1,,,,,,,,,,,,,,,,,,,,,,,,,,,,,,,,,,,,,,,,,
138592,001,2022-11-20_23h50.11.675,Info_measure_main_exp,2022.2.2,Win32,60.07810153,,,,,,,,,,,,,,,,,,masks/mask_002.jpg,,,,,,,,,,,,,,,,,,,,,,,,,,,,,,,,,,,,,,,,,,,,,,,,0,3,3,1,1,,,,,,,,,,,,,,,,,,,,,,,,,,,,,,,,,,,,,,,,,
138592,001,2022-11-20_23h50.11.675,Info_measure_main_exp,2022.2.2,Win32,60.07810153,,,,,,,,,,,,,,,,,,masks/mask_004.jpg,,,,,,,,,,,,,,,,,,,,,,,,,,,,,,,,,,,,,,,,,,,,,,,,0,4,4,3,1,,,,,,,,,,,,,,,,,,,,,,,,,,,,,,,,,,,,,,,,,
138592,001,2022-11-20_23h50.11.675,Info_measure_main_exp,2022.2.2,Win32,60.07810153,,,,,,,,,,,,,,,,,,,,,,,,,,,,,,0,0.4335,1,,,,,,,,,,,,0,131,5,5,2298,2298,absent_patch/patch0002298.jpg,absent_patch/patch0002298.jpg,,,,,,,,,,,,,,,,,,,,-0.038888889,0.100925926,1,0,0,response7disk,27,0.002777778,0.008333333,1,0,0,center_square,0,26,26,37,1,,,,,,,,,,,,,,,,,,,,,,,
138592,001,2022-11-20_23h50.11.675,Info_measure_main_exp,2022.2.2,Win32,60.07810153,,,,,,,,,,,,,,,,,,masks/mask_005.jpg,,,,,,,,,,,,,,,,,,,,,,,,,,,,,,,,,,,,,,,,,,,0,0,0,4,1,,,,,,,,,,,,,,,,,,,,,,,,,,,,,,,,,,,,,,,,,,,,,,
138592,001,2022-11-20_23h50.11.675,Info_measure_main_exp,2022.2.2,Win32,60.07810153,,,,,,,,,,,,,,,,,,masks/mask_004.jpg,,,,,,,,,,,,,,,,,,,,,,,,,,,,,,,,,,,,,,,,,,,0,1,1,3,1,,,,,,,,,,,,,,,,,,,,,,,,,,,,,,,,,,,,,,,,,,,,,,
138592,001,2022-11-20_23h50.11.675,Info_measure_main_exp,2022.2.2,Win32,60.07810153,,,,,,,,,,,,,,,,,,masks/mask_002.jpg,,,,,,,,,,,,,,,,,,,,,,,,,,,,,,,,,,,,,,,,,,,0,2,2,1,1,,,,,,,,,,,,,,,,,,,,,,,,,,,,,,,,,,,,,,,,,,,,,,
138592,001,2022-11-20_23h50.11.675,Info_measure_main_exp,2022.2.2,Win32,60.07810153,,,,,,,,,,,,,,,,,,masks/mask_003.jpg,,,,,,,,,,,,,,,,,,,,,,,,,,,,,,,,,,,,,,,,,,,0,3,3,2,1,,,,,,,,,,,,,,,,,,,,,,,,,,,,,,,,,,,,,,,,,,,,,,
138592,001,2022-11-20_23h50.11.675,Info_measure_main_exp,2022.2.2,Win32,60.07810153,,,,,,,,,,,,,,,,,,masks/mask_001.jpg,,,,,,,,,,,,,,,,,,,,,,,,,,,,,,,,,,,,,,,,,,,0,4,4,0,1,,,,,,,,,,,,,,,,,,,,,,,,,,,,,,,,,,,,,,,,,,,,,,
138592,001,2022-11-20_23h50.11.675,Info_measure_main_exp,2022.2.2,Win32,60.07810153,,,,,,,,,,,,,,,,,,masks/mask_003.jpg,,,,,,,,,,,,,,,,,,,,,,,,,,,,,,,,,,,,,,,,,,,,,,,,0,0,0,2,1,,,,,,,,,,,,,,,,,,,,,,,,,,,,,,,,,,,,,,,,,
138592,001,2022-11-20_23h50.11.675,Info_measure_main_exp,2022.2.2,Win32,60.07810153,,,,,,,,,,,,,,,,,,masks/mask_002.jpg,,,,,,,,,,,,,,,,,,,,,,,,,,,,,,,,,,,,,,,,,,,,,,,,0,1,1,1,1,,,,,,,,,,,,,,,,,,,,,,,,,,,,,,,,,,,,,,,,,
138592,001,2022-11-20_23h50.11.675,Info_measure_main_exp,2022.2.2,Win32,60.07810153,,,,,,,,,,,,,,,,,,masks/mask_001.jpg,,,,,,,,,,,,,,,,,,,,,,,,,,,,,,,,,,,,,,,,,,,,,,,,0,2,2,0,1,,,,,,,,,,,,,,,,,,,,,,,,,,,,,,,,,,,,,,,,,
138592,001,2022-11-20_23h50.11.675,Info_measure_main_exp,2022.2.2,Win32,60.07810153,,,,,,,,,,,,,,,,,,masks/mask_004.jpg,,,,,,,,,,,,,,,,,,,,,,,,,,,,,,,,,,,,,,,,,,,,,,,,0,3,3,3,1,,,,,,,,,,,,,,,,,,,,,,,,,,,,,,,,,,,,,,,,,
138592,001,2022-11-20_23h50.11.675,Info_measure_main_exp,2022.2.2,Win32,60.07810153,,,,,,,,,,,,,,,,,,masks/mask_005.jpg,,,,,,,,,,,,,,,,,,,,,,,,,,,,,,,,,,,,,,,,,,,,,,,,0,4,4,4,1,,,,,,,,,,,,,,,,,,,,,,,,,,,,,,,,,,,,,,,,,
138592,001,2022-11-20_23h50.11.675,Info_measure_main_exp,2022.2.2,Win32,60.07810153,,,,,,,,,,,,,,,,,,,,,,,,,,,,,,1,0.65,1,,,,,,,,,,,,0,131,5,5,2298,1986,absent_patch/patch0002298.jpg,absent_patch/patch0001986.jpg,,,,,,,,,,,,,,,,,,,,-0.071296296,0.014814815,1,0,0,response7disk,28,-0.007407407,-0.001851852,1,0,0,center_square,0,27,27,32,1,,,,,,,,,,,,,,,,,,,,,,,
138592,001,2022-11-20_23h50.11.675,Info_measure_main_exp,2022.2.2,Win32,60.07810153,,,,,,,,,,,,,,,,,,masks/mask_002.jpg,,,,,,,,,,,,,,,,,,,,,,,,,,,,,,,,,,,,,,,,,,,0,0,0,1,1,,,,,,,,,,,,,,,,,,,,,,,,,,,,,,,,,,,,,,,,,,,,,,
138592,001,2022-11-20_23h50.11.675,Info_measure_main_exp,2022.2.2,Win32,60.07810153,,,,,,,,,,,,,,,,,,masks/mask_003.jpg,,,,,,,,,,,,,,,,,,,,,,,,,,,,,,,,,,,,,,,,,,,0,1,1,2,1,,,,,,,,,,,,,,,,,,,,,,,,,,,,,,,,,,,,,,,,,,,,,,
138592,001,2022-11-20_23h50.11.675,Info_measure_main_exp,2022.2.2,Win32,60.07810153,,,,,,,,,,,,,,,,,,masks/mask_001.jpg,,,,,,,,,,,,,,,,,,,,,,,,,,,,,,,,,,,,,,,,,,,0,2,2,0,1,,,,,,,,,,,,,,,,,,,,,,,,,,,,,,,,,,,,,,,,,,,,,,
138592,001,2022-11-20_23h50.11.675,Info_measure_main_exp,2022.2.2,Win32,60.07810153,,,,,,,,,,,,,,,,,,masks/mask_004.jpg,,,,,,,,,,,,,,,,,,,,,,,,,,,,,,,,,,,,,,,,,,,0,3,3,3,1,,,,,,,,,,,,,,,,,,,,,,,,,,,,,,,,,,,,,,,,,,,,,,
138592,001,2022-11-20_23h50.11.675,Info_measure_main_exp,2022.2.2,Win32,60.07810153,,,,,,,,,,,,,,,,,,masks/mask_005.jpg,,,,,,,,,,,,,,,,,,,,,,,,,,,,,,,,,,,,,,,,,,,0,4,4,4,1,,,,,,,,,,,,,,,,,,,,,,,,,,,,,,,,,,,,,,,,,,,,,,
138592,001,2022-11-20_23h50.11.675,Info_measure_main_exp,2022.2.2,Win32,60.07810153,,,,,,,,,,,,,,,,,,masks/mask_001.jpg,,,,,,,,,,,,,,,,,,,,,,,,,,,,,,,,,,,,,,,,,,,,,,,,0,0,0,0,1,,,,,,,,,,,,,,,,,,,,,,,,,,,,,,,,,,,,,,,,,
138592,001,2022-11-20_23h50.11.675,Info_measure_main_exp,2022.2.2,Win32,60.07810153,,,,,,,,,,,,,,,,,,masks/mask_004.jpg,,,,,,,,,,,,,,,,,,,,,,,,,,,,,,,,,,,,,,,,,,,,,,,,0,1,1,3,1,,,,,,,,,,,,,,,,,,,,,,,,,,,,,,,,,,,,,,,,,
138592,001,2022-11-20_23h50.11.675,Info_measure_main_exp,2022.2.2,Win32,60.07810153,,,,,,,,,,,,,,,,,,masks/mask_003.jpg,,,,,,,,,,,,,,,,,,,,,,,,,,,,,,,,,,,,,,,,,,,,,,,,0,2,2,2,1,,,,,,,,,,,,,,,,,,,,,,,,,,,,,,,,,,,,,,,,,
138592,001,2022-11-20_23h50.11.675,Info_measure_main_exp,2022.2.2,Win32,60.07810153,,,,,,,,,,,,,,,,,,masks/mask_002.jpg,,,,,,,,,,,,,,,,,,,,,,,,,,,,,,,,,,,,,,,,,,,,,,,,0,3,3,1,1,,,,,,,,,,,,,,,,,,,,,,,,,,,,,,,,,,,,,,,,,
138592,001,2022-11-20_23h50.11.675,Info_measure_main_exp,2022.2.2,Win32,60.07810153,,,,,,,,,,,,,,,,,,masks/mask_005.jpg,,,,,,,,,,,,,,,,,,,,,,,,,,,,,,,,,,,,,,,,,,,,,,,,0,4,4,4,1,,,,,,,,,,,,,,,,,,,,,,,,,,,,,,,,,,,,,,,,,
138592,001,2022-11-20_23h50.11.675,Info_measure_main_exp,2022.2.2,Win32,60.07810153,,,,,,,,,,,,,,,,,,,,,,,,,,,,,,3,1.1335,1,,,,,,,,,,,,0,131,5,5,2154,2190,absent_patch/patch0002154.jpg,absent_patch/patch0002190.jpg,,,,,,,,,,,,,,,,,,,,-0.022222222,-0.090740741,1,0,0,response5disk,29,0.006481481,0.009259259,1,0,0,center_square,0,28,28,68,1,,,,,,,,,,,,,,,,,,,,,,,
138592,001,2022-11-20_23h50.11.675,Info_measure_main_exp,2022.2.2,Win32,60.07810153,,,,,,,,,,,,,,,,,,masks/mask_003.jpg,,,,,,,,,,,,,,,,,,,,,,,,,,,,,,,,,,,,,,,,,,,0,0,0,2,1,,,,,,,,,,,,,,,,,,,,,,,,,,,,,,,,,,,,,,,,,,,,,,
138592,001,2022-11-20_23h50.11.675,Info_measure_main_exp,2022.2.2,Win32,60.07810153,,,,,,,,,,,,,,,,,,masks/mask_004.jpg,,,,,,,,,,,,,,,,,,,,,,,,,,,,,,,,,,,,,,,,,,,0,1,1,3,1,,,,,,,,,,,,,,,,,,,,,,,,,,,,,,,,,,,,,,,,,,,,,,
138592,001,2022-11-20_23h50.11.675,Info_measure_main_exp,2022.2.2,Win32,60.07810153,,,,,,,,,,,,,,,,,,masks/mask_002.jpg,,,,,,,,,,,,,,,,,,,,,,,,,,,,,,,,,,,,,,,,,,,0,2,2,1,1,,,,,,,,,,,,,,,,,,,,,,,,,,,,,,,,,,,,,,,,,,,,,,
138592,001,2022-11-20_23h50.11.675,Info_measure_main_exp,2022.2.2,Win32,60.07810153,,,,,,,,,,,,,,,,,,masks/mask_005.jpg,,,,,,,,,,,,,,,,,,,,,,,,,,,,,,,,,,,,,,,,,,,0,3,3,4,1,,,,,,,,,,,,,,,,,,,,,,,,,,,,,,,,,,,,,,,,,,,,,,
138592,001,2022-11-20_23h50.11.675,Info_measure_main_exp,2022.2.2,Win32,60.07810153,,,,,,,,,,,,,,,,,,masks/mask_001.jpg,,,,,,,,,,,,,,,,,,,,,,,,,,,,,,,,,,,,,,,,,,,0,4,4,0,1,,,,,,,,,,,,,,,,,,,,,,,,,,,,,,,,,,,,,,,,,,,,,,
138592,001,2022-11-20_23h50.11.675,Info_measure_main_exp,2022.2.2,Win32,60.07810153,,,,,,,,,,,,,,,,,,masks/mask_003.jpg,,,,,,,,,,,,,,,,,,,,,,,,,,,,,,,,,,,,,,,,,,,,,,,,0,0,0,2,1,,,,,,,,,,,,,,,,,,,,,,,,,,,,,,,,,,,,,,,,,
138592,001,2022-11-20_23h50.11.675,Info_measure_main_exp,2022.2.2,Win32,60.07810153,,,,,,,,,,,,,,,,,,masks/mask_005.jpg,,,,,,,,,,,,,,,,,,,,,,,,,,,,,,,,,,,,,,,,,,,,,,,,0,1,1,4,1,,,,,,,,,,,,,,,,,,,,,,,,,,,,,,,,,,,,,,,,,
138592,001,2022-11-20_23h50.11.675,Info_measure_main_exp,2022.2.2,Win32,60.07810153,,,,,,,,,,,,,,,,,,masks/mask_001.jpg,,,,,,,,,,,,,,,,,,,,,,,,,,,,,,,,,,,,,,,,,,,,,,,,0,2,2,0,1,,,,,,,,,,,,,,,,,,,,,,,,,,,,,,,,,,,,,,,,,
138592,001,2022-11-20_23h50.11.675,Info_measure_main_exp,2022.2.2,Win32,60.07810153,,,,,,,,,,,,,,,,,,masks/mask_004.jpg,,,,,,,,,,,,,,,,,,,,,,,,,,,,,,,,,,,,,,,,,,,,,,,,0,3,3,3,1,,,,,,,,,,,,,,,,,,,,,,,,,,,,,,,,,,,,,,,,,
138592,001,2022-11-20_23h50.11.675,Info_measure_main_exp,2022.2.2,Win32,60.07810153,,,,,,,,,,,,,,,,,,masks/mask_002.jpg,,,,,,,,,,,,,,,,,,,,,,,,,,,,,,,,,,,,,,,,,,,,,,,,0,4,4,1,1,,,,,,,,,,,,,,,,,,,,,,,,,,,,,,,,,,,,,,,,,
138592,001,2022-11-20_23h50.11.675,Info_measure_main_exp,2022.2.2,Win32,60.07810153,,,,,,,,,,,,,,,,,,,,,,,,,,,,,,5,4.1168,1,,,,,,,,,,,,0,131,5,5,2154,1950,absent_patch/patch0002154.jpg,absent_patch/patch0001950.jpg,,,,,,,,,,,,,,,,,,,,0.072222222,-0.02962963,1,0,0,response3disk,30,0.012037037,-0.005555556,1,0,0,center_square,0,29,29,96,1,,,,,,,,,,,,,,,,,,,,,,,
138592,001,2022-11-20_23h50.11.675,Info_measure_main_exp,2022.2.2,Win32,60.07810153,,,,,,,,,,,,,,,,,,masks/mask_005.jpg,,,,,,,,,,,,,,,,,,,,,,,,,,,,,,,,,,,,,,,,,,,0,0,0,4,1,,,,,,,,,,,,,,,,,,,,,,,,,,,,,,,,,,,,,,,,,,,,,,
138592,001,2022-11-20_23h50.11.675,Info_measure_main_exp,2022.2.2,Win32,60.07810153,,,,,,,,,,,,,,,,,,masks/mask_001.jpg,,,,,,,,,,,,,,,,,,,,,,,,,,,,,,,,,,,,,,,,,,,0,1,1,0,1,,,,,,,,,,,,,,,,,,,,,,,,,,,,,,,,,,,,,,,,,,,,,,
138592,001,2022-11-20_23h50.11.675,Info_measure_main_exp,2022.2.2,Win32,60.07810153,,,,,,,,,,,,,,,,,,masks/mask_004.jpg,,,,,,,,,,,,,,,,,,,,,,,,,,,,,,,,,,,,,,,,,,,0,2,2,3,1,,,,,,,,,,,,,,,,,,,,,,,,,,,,,,,,,,,,,,,,,,,,,,
138592,001,2022-11-20_23h50.11.675,Info_measure_main_exp,2022.2.2,Win32,60.07810153,,,,,,,,,,,,,,,,,,masks/mask_003.jpg,,,,,,,,,,,,,,,,,,,,,,,,,,,,,,,,,,,,,,,,,,,0,3,3,2,1,,,,,,,,,,,,,,,,,,,,,,,,,,,,,,,,,,,,,,,,,,,,,,
138592,001,2022-11-20_23h50.11.675,Info_measure_main_exp,2022.2.2,Win32,60.07810153,,,,,,,,,,,,,,,,,,masks/mask_002.jpg,,,,,,,,,,,,,,,,,,,,,,,,,,,,,,,,,,,,,,,,,,,0,4,4,1,1,,,,,,,,,,,,,,,,,,,,,,,,,,,,,,,,,,,,,,,,,,,,,,
138592,001,2022-11-20_23h50.11.675,Info_measure_main_exp,2022.2.2,Win32,60.07810153,,,,,,,,,,,,,,,,,,masks/mask_004.jpg,,,,,,,,,,,,,,,,,,,,,,,,,,,,,,,,,,,,,,,,,,,,,,,,0,0,0,3,1,,,,,,,,,,,,,,,,,,,,,,,,,,,,,,,,,,,,,,,,,
138592,001,2022-11-20_23h50.11.675,Info_measure_main_exp,2022.2.2,Win32,60.07810153,,,,,,,,,,,,,,,,,,masks/mask_002.jpg,,,,,,,,,,,,,,,,,,,,,,,,,,,,,,,,,,,,,,,,,,,,,,,,0,1,1,1,1,,,,,,,,,,,,,,,,,,,,,,,,,,,,,,,,,,,,,,,,,
138592,001,2022-11-20_23h50.11.675,Info_measure_main_exp,2022.2.2,Win32,60.07810153,,,,,,,,,,,,,,,,,,masks/mask_001.jpg,,,,,,,,,,,,,,,,,,,,,,,,,,,,,,,,,,,,,,,,,,,,,,,,0,2,2,0,1,,,,,,,,,,,,,,,,,,,,,,,,,,,,,,,,,,,,,,,,,
138592,001,2022-11-20_23h50.11.675,Info_measure_main_exp,2022.2.2,Win32,60.07810153,,,,,,,,,,,,,,,,,,masks/mask_003.jpg,,,,,,,,,,,,,,,,,,,,,,,,,,,,,,,,,,,,,,,,,,,,,,,,0,3,3,2,1,,,,,,,,,,,,,,,,,,,,,,,,,,,,,,,,,,,,,,,,,
138592,001,2022-11-20_23h50.11.675,Info_measure_main_exp,2022.2.2,Win32,60.07810153,,,,,,,,,,,,,,,,,,masks/mask_005.jpg,,,,,,,,,,,,,,,,,,,,,,,,,,,,,,,,,,,,,,,,,,,,,,,,0,4,4,4,1,,,,,,,,,,,,,,,,,,,,,,,,,,,,,,,,,,,,,,,,,
138592,001,2022-11-20_23h50.11.675,Info_measure_main_exp,2022.2.2,Win32,60.07810153,,,,,,,,,,,,,,,,,,,,,,,,,,,,,,2,0.7001,1,,,,,,,,,,,,0,131,5,5,2298,2142,absent_patch/patch0002298.jpg,absent_patch/patch0002142.jpg,,,,,,,,,,,,,,,,,,,,-0.090740741,-0.049074074,1,0,0,response5disk,31,-0.006481481,0,1,0,0,center_square,0,30,30,49,1,,,,,,,,,,,,,,,,,,,,,,,
138592,001,2022-11-20_23h50.11.675,Info_measure_main_exp,2022.2.2,Win32,60.07810153,,,,,,,,,,,,,,,,,,masks/mask_002.jpg,,,,,,,,,,,,,,,,,,,,,,,,,,,,,,,,,,,,,,,,,,,0,0,0,1,1,,,,,,,,,,,,,,,,,,,,,,,,,,,,,,,,,,,,,,,,,,,,,,
138592,001,2022-11-20_23h50.11.675,Info_measure_main_exp,2022.2.2,Win32,60.07810153,,,,,,,,,,,,,,,,,,masks/mask_003.jpg,,,,,,,,,,,,,,,,,,,,,,,,,,,,,,,,,,,,,,,,,,,0,1,1,2,1,,,,,,,,,,,,,,,,,,,,,,,,,,,,,,,,,,,,,,,,,,,,,,
138592,001,2022-11-20_23h50.11.675,Info_measure_main_exp,2022.2.2,Win32,60.07810153,,,,,,,,,,,,,,,,,,masks/mask_005.jpg,,,,,,,,,,,,,,,,,,,,,,,,,,,,,,,,,,,,,,,,,,,0,2,2,4,1,,,,,,,,,,,,,,,,,,,,,,,,,,,,,,,,,,,,,,,,,,,,,,
138592,001,2022-11-20_23h50.11.675,Info_measure_main_exp,2022.2.2,Win32,60.07810153,,,,,,,,,,,,,,,,,,masks/mask_004.jpg,,,,,,,,,,,,,,,,,,,,,,,,,,,,,,,,,,,,,,,,,,,0,3,3,3,1,,,,,,,,,,,,,,,,,,,,,,,,,,,,,,,,,,,,,,,,,,,,,,
138592,001,2022-11-20_23h50.11.675,Info_measure_main_exp,2022.2.2,Win32,60.07810153,,,,,,,,,,,,,,,,,,masks/mask_001.jpg,,,,,,,,,,,,,,,,,,,,,,,,,,,,,,,,,,,,,,,,,,,0,4,4,0,1,,,,,,,,,,,,,,,,,,,,,,,,,,,,,,,,,,,,,,,,,,,,,,
138592,001,2022-11-20_23h50.11.675,Info_measure_main_exp,2022.2.2,Win32,60.07810153,,,,,,,,,,,,,,,,,,masks/mask_003.jpg,,,,,,,,,,,,,,,,,,,,,,,,,,,,,,,,,,,,,,,,,,,,,,,,0,0,0,2,1,,,,,,,,,,,,,,,,,,,,,,,,,,,,,,,,,,,,,,,,,
138592,001,2022-11-20_23h50.11.675,Info_measure_main_exp,2022.2.2,Win32,60.07810153,,,,,,,,,,,,,,,,,,masks/mask_005.jpg,,,,,,,,,,,,,,,,,,,,,,,,,,,,,,,,,,,,,,,,,,,,,,,,0,1,1,4,1,,,,,,,,,,,,,,,,,,,,,,,,,,,,,,,,,,,,,,,,,
138592,001,2022-11-20_23h50.11.675,Info_measure_main_exp,2022.2.2,Win32,60.07810153,,,,,,,,,,,,,,,,,,masks/mask_002.jpg,,,,,,,,,,,,,,,,,,,,,,,,,,,,,,,,,,,,,,,,,,,,,,,,0,2,2,1,1,,,,,,,,,,,,,,,,,,,,,,,,,,,,,,,,,,,,,,,,,
138592,001,2022-11-20_23h50.11.675,Info_measure_main_exp,2022.2.2,Win32,60.07810153,,,,,,,,,,,,,,,,,,masks/mask_001.jpg,,,,,,,,,,,,,,,,,,,,,,,,,,,,,,,,,,,,,,,,,,,,,,,,0,3,3,0,1,,,,,,,,,,,,,,,,,,,,,,,,,,,,,,,,,,,,,,,,,
138592,001,2022-11-20_23h50.11.675,Info_measure_main_exp,2022.2.2,Win32,60.07810153,,,,,,,,,,,,,,,,,,masks/mask_004.jpg,,,,,,,,,,,,,,,,,,,,,,,,,,,,,,,,,,,,,,,,,,,,,,,,0,4,4,3,1,,,,,,,,,,,,,,,,,,,,,,,,,,,,,,,,,,,,,,,,,
138592,001,2022-11-20_23h50.11.675,Info_measure_main_exp,2022.2.2,Win32,60.07810153,,,,,,,,,,,,,,,,,,,,,,,,,,,,,,2,0.767,1,,,,,,,,,,,,0,131,5,5,2298,2274,absent_patch/patch0002298.jpg,absent_patch/patch0002274.jpg,,,,,,,,,,,,,,,,,,,,-0.097222222,-0.025925926,1,0,0,response5disk,32,-0.006481481,0.005555556,1,0,0,center_square,0,31,31,1,1,,,,,,,,,,,,,,,,,,,,,,,
138592,001,2022-11-20_23h50.11.675,Info_measure_main_exp,2022.2.2,Win32,60.07810153,,,,,,,,,,,,,,,,,,masks/mask_001.jpg,,,,,,,,,,,,,,,,,,,,,,,,,,,,,,,,,,,,,,,,,,,0,0,0,0,1,,,,,,,,,,,,,,,,,,,,,,,,,,,,,,,,,,,,,,,,,,,,,,
138592,001,2022-11-20_23h50.11.675,Info_measure_main_exp,2022.2.2,Win32,60.07810153,,,,,,,,,,,,,,,,,,masks/mask_005.jpg,,,,,,,,,,,,,,,,,,,,,,,,,,,,,,,,,,,,,,,,,,,0,1,1,4,1,,,,,,,,,,,,,,,,,,,,,,,,,,,,,,,,,,,,,,,,,,,,,,
138592,001,2022-11-20_23h50.11.675,Info_measure_main_exp,2022.2.2,Win32,60.07810153,,,,,,,,,,,,,,,,,,masks/mask_002.jpg,,,,,,,,,,,,,,,,,,,,,,,,,,,,,,,,,,,,,,,,,,,0,2,2,1,1,,,,,,,,,,,,,,,,,,,,,,,,,,,,,,,,,,,,,,,,,,,,,,
138592,001,2022-11-20_23h50.11.675,Info_measure_main_exp,2022.2.2,Win32,60.07810153,,,,,,,,,,,,,,,,,,masks/mask_003.jpg,,,,,,,,,,,,,,,,,,,,,,,,,,,,,,,,,,,,,,,,,,,0,3,3,2,1,,,,,,,,,,,,,,,,,,,,,,,,,,,,,,,,,,,,,,,,,,,,,,
138592,001,2022-11-20_23h50.11.675,Info_measure_main_exp,2022.2.2,Win32,60.07810153,,,,,,,,,,,,,,,,,,masks/mask_004.jpg,,,,,,,,,,,,,,,,,,,,,,,,,,,,,,,,,,,,,,,,,,,0,4,4,3,1,,,,,,,,,,,,,,,,,,,,,,,,,,,,,,,,,,,,,,,,,,,,,,
138592,001,2022-11-20_23h50.11.675,Info_measure_main_exp,2022.2.2,Win32,60.07810153,,,,,,,,,,,,,,,,,,masks/mask_002.jpg,,,,,,,,,,,,,,,,,,,,,,,,,,,,,,,,,,,,,,,,,,,,,,,,0,0,0,1,1,,,,,,,,,,,,,,,,,,,,,,,,,,,,,,,,,,,,,,,,,
138592,001,2022-11-20_23h50.11.675,Info_measure_main_exp,2022.2.2,Win32,60.07810153,,,,,,,,,,,,,,,,,,masks/mask_001.jpg,,,,,,,,,,,,,,,,,,,,,,,,,,,,,,,,,,,,,,,,,,,,,,,,0,1,1,0,1,,,,,,,,,,,,,,,,,,,,,,,,,,,,,,,,,,,,,,,,,
138592,001,2022-11-20_23h50.11.675,Info_measure_main_exp,2022.2.2,Win32,60.07810153,,,,,,,,,,,,,,,,,,masks/mask_005.jpg,,,,,,,,,,,,,,,,,,,,,,,,,,,,,,,,,,,,,,,,,,,,,,,,0,2,2,4,1,,,,,,,,,,,,,,,,,,,,,,,,,,,,,,,,,,,,,,,,,
138592,001,2022-11-20_23h50.11.675,Info_measure_main_exp,2022.2.2,Win32,60.07810153,,,,,,,,,,,,,,,,,,masks/mask_004.jpg,,,,,,,,,,,,,,,,,,,,,,,,,,,,,,,,,,,,,,,,,,,,,,,,0,3,3,3,1,,,,,,,,,,,,,,,,,,,,,,,,,,,,,,,,,,,,,,,,,
138592,001,2022-11-20_23h50.11.675,Info_measure_main_exp,2022.2.2,Win32,60.07810153,,,,,,,,,,,,,,,,,,masks/mask_003.jpg,,,,,,,,,,,,,,,,,,,,,,,,,,,,,,,,,,,,,,,,,,,,,,,,0,4,4,2,1,,,,,,,,,,,,,,,,,,,,,,,,,,,,,,,,,,,,,,,,,
138592,001,2022-11-20_23h50.11.675,Info_measure_main_exp,2022.2.2,Win32,60.07810153,,,,,,,,,,,,,,,,,,,,,,,,,,,,,,3,1.4671,1,,,,,,,,,,,,0,131,5,5,2250,1950,absent_patch/patch0002250.jpg,absent_patch/patch0001950.jpg,,,,,,,,,,,,,,,,,,,,-0.031481481,-0.058333333,1,0,0,response5disk,33,0.006481481,0.000925926,1,0,0,center_square,0,32,32,16,1,,,,,,,,,,,,,,,,,,,,,,,
138592,001,2022-11-20_23h50.11.675,Info_measure_main_exp,2022.2.2,Win32,60.07810153,,,,,,,,,,,,,,,,,,masks/mask_003.jpg,,,,,,,,,,,,,,,,,,,,,,,,,,,,,,,,,,,,,,,,,,,0,0,0,2,1,,,,,,,,,,,,,,,,,,,,,,,,,,,,,,,,,,,,,,,,,,,,,,
138592,001,2022-11-20_23h50.11.675,Info_measure_main_exp,2022.2.2,Win32,60.07810153,,,,,,,,,,,,,,,,,,masks/mask_001.jpg,,,,,,,,,,,,,,,,,,,,,,,,,,,,,,,,,,,,,,,,,,,0,1,1,0,1,,,,,,,,,,,,,,,,,,,,,,,,,,,,,,,,,,,,,,,,,,,,,,
138592,001,2022-11-20_23h50.11.675,Info_measure_main_exp,2022.2.2,Win32,60.07810153,,,,,,,,,,,,,,,,,,masks/mask_002.jpg,,,,,,,,,,,,,,,,,,,,,,,,,,,,,,,,,,,,,,,,,,,0,2,2,1,1,,,,,,,,,,,,,,,,,,,,,,,,,,,,,,,,,,,,,,,,,,,,,,
138592,001,2022-11-20_23h50.11.675,Info_measure_main_exp,2022.2.2,Win32,60.07810153,,,,,,,,,,,,,,,,,,masks/mask_004.jpg,,,,,,,,,,,,,,,,,,,,,,,,,,,,,,,,,,,,,,,,,,,0,3,3,3,1,,,,,,,,,,,,,,,,,,,,,,,,,,,,,,,,,,,,,,,,,,,,,,
138592,001,2022-11-20_23h50.11.675,Info_measure_main_exp,2022.2.2,Win32,60.07810153,,,,,,,,,,,,,,,,,,masks/mask_005.jpg,,,,,,,,,,,,,,,,,,,,,,,,,,,,,,,,,,,,,,,,,,,0,4,4,4,1,,,,,,,,,,,,,,,,,,,,,,,,,,,,,,,,,,,,,,,,,,,,,,
138592,001,2022-11-20_23h50.11.675,Info_measure_main_exp,2022.2.2,Win32,60.07810153,,,,,,,,,,,,,,,,,,masks/mask_005.jpg,,,,,,,,,,,,,,,,,,,,,,,,,,,,,,,,,,,,,,,,,,,,,,,,0,0,0,4,1,,,,,,,,,,,,,,,,,,,,,,,,,,,,,,,,,,,,,,,,,
138592,001,2022-11-20_23h50.11.675,Info_measure_main_exp,2022.2.2,Win32,60.07810153,,,,,,,,,,,,,,,,,,masks/mask_003.jpg,,,,,,,,,,,,,,,,,,,,,,,,,,,,,,,,,,,,,,,,,,,,,,,,0,1,1,2,1,,,,,,,,,,,,,,,,,,,,,,,,,,,,,,,,,,,,,,,,,
138592,001,2022-11-20_23h50.11.675,Info_measure_main_exp,2022.2.2,Win32,60.07810153,,,,,,,,,,,,,,,,,,masks/mask_002.jpg,,,,,,,,,,,,,,,,,,,,,,,,,,,,,,,,,,,,,,,,,,,,,,,,0,2,2,1,1,,,,,,,,,,,,,,,,,,,,,,,,,,,,,,,,,,,,,,,,,
138592,001,2022-11-20_23h50.11.675,Info_measure_main_exp,2022.2.2,Win32,60.07810153,,,,,,,,,,,,,,,,,,masks/mask_001.jpg,,,,,,,,,,,,,,,,,,,,,,,,,,,,,,,,,,,,,,,,,,,,,,,,0,3,3,0,1,,,,,,,,,,,,,,,,,,,,,,,,,,,,,,,,,,,,,,,,,
138592,001,2022-11-20_23h50.11.675,Info_measure_main_exp,2022.2.2,Win32,60.07810153,,,,,,,,,,,,,,,,,,masks/mask_004.jpg,,,,,,,,,,,,,,,,,,,,,,,,,,,,,,,,,,,,,,,,,,,,,,,,0,4,4,3,1,,,,,,,,,,,,,,,,,,,,,,,,,,,,,,,,,,,,,,,,,
138592,001,2022-11-20_23h50.11.675,Info_measure_main_exp,2022.2.2,Win32,60.07810153,,,,,,,,,,,,,,,,,,,,,,,,,,,,,,6,0.9835,1,,,,,,,,,,,,0,131,5,5,2238,2166,absent_patch/patch0002238.jpg,absent_patch/patch0002166.jpg,,,,,,,,,,,,,,,,,,,,0.085185185,0.017592593,1,0,0,response1disk,34,0.000925926,0.006481481,1,0,0,center_square,0,33,33,118,1,,,,,,,,,,,,,,,,,,,,,,,
138592,001,2022-11-20_23h50.11.675,Info_measure_main_exp,2022.2.2,Win32,60.07810153,,,,,,,,,,,,,,,,,,masks/mask_004.jpg,,,,,,,,,,,,,,,,,,,,,,,,,,,,,,,,,,,,,,,,,,,0,0,0,3,1,,,,,,,,,,,,,,,,,,,,,,,,,,,,,,,,,,,,,,,,,,,,,,
138592,001,2022-11-20_23h50.11.675,Info_measure_main_exp,2022.2.2,Win32,60.07810153,,,,,,,,,,,,,,,,,,masks/mask_005.jpg,,,,,,,,,,,,,,,,,,,,,,,,,,,,,,,,,,,,,,,,,,,0,1,1,4,1,,,,,,,,,,,,,,,,,,,,,,,,,,,,,,,,,,,,,,,,,,,,,,
138592,001,2022-11-20_23h50.11.675,Info_measure_main_exp,2022.2.2,Win32,60.07810153,,,,,,,,,,,,,,,,,,masks/mask_001.jpg,,,,,,,,,,,,,,,,,,,,,,,,,,,,,,,,,,,,,,,,,,,0,2,2,0,1,,,,,,,,,,,,,,,,,,,,,,,,,,,,,,,,,,,,,,,,,,,,,,
138592,001,2022-11-20_23h50.11.675,Info_measure_main_exp,2022.2.2,Win32,60.07810153,,,,,,,,,,,,,,,,,,masks/mask_002.jpg,,,,,,,,,,,,,,,,,,,,,,,,,,,,,,,,,,,,,,,,,,,0,3,3,1,1,,,,,,,,,,,,,,,,,,,,,,,,,,,,,,,,,,,,,,,,,,,,,,
138592,001,2022-11-20_23h50.11.675,Info_measure_main_exp,2022.2.2,Win32,60.07810153,,,,,,,,,,,,,,,,,,masks/mask_003.jpg,,,,,,,,,,,,,,,,,,,,,,,,,,,,,,,,,,,,,,,,,,,0,4,4,2,1,,,,,,,,,,,,,,,,,,,,,,,,,,,,,,,,,,,,,,,,,,,,,,
138592,001,2022-11-20_23h50.11.675,Info_measure_main_exp,2022.2.2,Win32,60.07810153,,,,,,,,,,,,,,,,,,masks/mask_004.jpg,,,,,,,,,,,,,,,,,,,,,,,,,,,,,,,,,,,,,,,,,,,,,,,,0,0,0,3,1,,,,,,,,,,,,,,,,,,,,,,,,,,,,,,,,,,,,,,,,,
138592,001,2022-11-20_23h50.11.675,Info_measure_main_exp,2022.2.2,Win32,60.07810153,,,,,,,,,,,,,,,,,,masks/mask_002.jpg,,,,,,,,,,,,,,,,,,,,,,,,,,,,,,,,,,,,,,,,,,,,,,,,0,1,1,1,1,,,,,,,,,,,,,,,,,,,,,,,,,,,,,,,,,,,,,,,,,
138592,001,2022-11-20_23h50.11.675,Info_measure_main_exp,2022.2.2,Win32,60.07810153,,,,,,,,,,,,,,,,,,masks/mask_003.jpg,,,,,,,,,,,,,,,,,,,,,,,,,,,,,,,,,,,,,,,,,,,,,,,,0,2,2,2,1,,,,,,,,,,,,,,,,,,,,,,,,,,,,,,,,,,,,,,,,,
138592,001,2022-11-20_23h50.11.675,Info_measure_main_exp,2022.2.2,Win32,60.07810153,,,,,,,,,,,,,,,,,,masks/mask_001.jpg,,,,,,,,,,,,,,,,,,,,,,,,,,,,,,,,,,,,,,,,,,,,,,,,0,3,3,0,1,,,,,,,,,,,,,,,,,,,,,,,,,,,,,,,,,,,,,,,,,
