participant,session,date,expName,psychopyVersion,OS,frameRate,space_press_continue.keys,space_press_continue.rt,space_press_continue_2.keys,space_press_continue_2.rt,space_press_continue_3.keys,space_press_continue_3.rt,space_press_continue_4.keys,space_press_continue_4.rt,space_press_continue_5.keys,space_press_continue_5.rt,space_press_continue_6.keys,space_press_continue_6.rt,prac_mask_loop_1.thisRepN,prac_mask_loop_1.thisTrialN,prac_mask_loop_1.thisN,prac_mask_loop_1.thisIndex,prac_mask_loop_1.ran,mask_name,prac_mask_loop_2.thisRepN,prac_mask_loop_2.thisTrialN,prac_mask_loop_2.thisN,prac_mask_loop_2.thisIndex,prac_mask_loop_2.ran,mouse_2.x,mouse_2.y,mouse_2.leftButton,mouse_2.midButton,mouse_2.rightButton,mouse_2.clicked_name,similarity,response_time,Pass,mouse_12.x,mouse_12.y,mouse_12.leftButton,mouse_12.midButton,mouse_12.rightButton,mouse_12.clicked_name,prac_loop.thisRepN,prac_loop.thisTrialN,prac_loop.thisN,prac_loop.thisIndex,prac_loop.ran,Pair_type,Image_num,Patch_1_loc,Patch_2_loc,Patch_1_info,Patch_2_info,Patch_1_name,Patch_2_name,mouse_1.x,mouse_1.y,mouse_1.leftButton,mouse_1.midButton,mouse_1.rightButton,mouse_1.time,mouse_1.clicked_name,space_press_continue_7.keys,space_press_continue_7.rt,mask_loop.thisRepN,mask_loop.thisTrialN,mask_loop.thisN,mask_loop.thisIndex,mask_loop.ran,mask_loop_2.thisRepN,mask_loop_2.thisTrialN,mask_loop_2.thisN,mask_loop_2.thisIndex,mask_loop_2.ran,mouse.x,mouse.y,mouse.leftButton,mouse.midButton,mouse.rightButton,mouse.clicked_name,trialNumber,mouse_11.x,mouse_11.y,mouse_11.leftButton,mouse_11.midButton,mouse_11.rightButton,mouse_11.clicked_name,first_pass_loop.thisRepN,first_pass_loop.thisTrialN,first_pass_loop.thisN,first_pass_loop.thisIndex,first_pass_loop.ran,mask_loop_3.thisRepN,mask_loop_3.thisTrialN,mask_loop_3.thisN,mask_loop_3.thisIndex,mask_loop_3.ran,mask_loop_4.thisRepN,mask_loop_4.thisTrialN,mask_loop_4.thisN,mask_loop_4.thisIndex,mask_loop_4.ran,mouse_3.x,mouse_3.y,mouse_3.leftButton,mouse_3.midButton,mouse_3.rightButton,mouse_3.clicked_name,double_pass_loop.thisRepN,double_pass_loop.thisTrialN,double_pass_loop.thisN,double_pass_loop.thisIndex,double_pass_loop.ran,space_exit.keys,space_exit.rt
153027,001,2022-11-21_24h54.46.886,Info_measure_main_exp,2022.2.2,Win32,165.0709805,,,,,,,,,,,,,,,,,,,,,,,,,,,,,,,,,,,,,,,,,,,,,,,,,,,,,,,,,,,,,,,,,,,,,,,,,,,,,,,,,,,,,,,,,,,,,,,,,,,,,,,,,,,,,,,
153027,001,2022-11-21_24h54.46.886,Info_measure_main_exp,2022.2.2,Win32,165.0709805,,,,,,,,,,,,,,,,,,,,,,,,,,,,,,,,,,,,,,,,,,,,,,,,,,,,,,,,,,,,,,,,,,,,,,,,,,,,,,,,,,,,,,,,,,,,,,,,,,,,,,,,,,,,,,,
153027,001,2022-11-21_24h54.46.886,Info_measure_main_exp,2022.2.2,Win32,165.0709805,space,5.1417,,,,,,,,,,,,,,,,,,,,,,,,,,,,,,,,,,,,,,,,,,,,,,,,,,,,,,,,,,,,,,,,,,,,,,,,,,,,,,,,,,,,,,,,,,,,,,,,,,,,,,,,,,,,,
153027,001,2022-11-21_24h54.46.886,Info_measure_main_exp,2022.2.2,Win32,165.0709805,,,space,13.5973,,,,,,,,,,,,,,,,,,,,,,,,,,,,,,,,,,,,,,,,,,,,,,,,,,,,,,,,,,,,,,,,,,,,,,,,,,,,,,,,,,,,,,,,,,,,,,,,,,,,,,,,,,,
153027,001,2022-11-21_24h54.46.886,Info_measure_main_exp,2022.2.2,Win32,165.0709805,,,,,space,4.6623,,,,,,,,,,,,,,,,,,,,,,,,,,,,,,,,,,,,,,,,,,,,,,,,,,,,,,,,,,,,,,,,,,,,,,,,,,,,,,,,,,,,,,,,,,,,,,,,,,,,,,,,,
153027,001,2022-11-21_24h54.46.886,Info_measure_main_exp,2022.2.2,Win32,165.0709805,,,,,,,space,18.769,,,,,,,,,,,,,,,,,,,,,,,,,,,,,,,,,,,,,,,,,,,,,,,,,,,,,,,,,,,,,,,,,,,,,,,,,,,,,,,,,,,,,,,,,,,,,,,,,,,,,,,
153027,001,2022-11-21_24h54.46.886,Info_measure_main_exp,2022.2.2,Win32,165.0709805,,,,,,,,,space,7.5838,,,,,,,,,,,,,,,,,,,,,,,,,,,,,,,,,,,,,,,,,,,,,,,,,,,,,,,,,,,,,,,,,,,,,,,,,,,,,,,,,,,,,,,,,,,,,,,,,,,,,
153027,001,2022-11-21_24h54.46.886,Info_measure_main_exp,2022.2.2,Win32,165.0709805,,,,,,,,,,,space,3.0499,,,,,,,,,,,,,,,,,,,,,,,,,,,,,,,,,,,,,,,,,,,,,,,,,,,,,,,,,,,,,,,,,,,,,,,,,,,,,,,,,,,,,,,,,,,,,,,,,,,
153027,001,2022-11-21_24h54.46.886,Info_measure_main_exp,2022.2.2,Win32,165.0709805,,,,,,,,,,,,,0,0,0,4,1,masks/mask_005.jpg,,,,,,,,,,,,,,,,,,,,,,,,,,,,,,,,,,,,,,,,,,,,,,,,,,,,,,,,,,,,,,,,,,,,,,,,,,,,,,,,,,,,,,,,,,,,,
153027,001,2022-11-21_24h54.46.886,Info_measure_main_exp,2022.2.2,Win32,165.0709805,,,,,,,,,,,,,0,1,1,2,1,masks/mask_003.jpg,,,,,,,,,,,,,,,,,,,,,,,,,,,,,,,,,,,,,,,,,,,,,,,,,,,,,,,,,,,,,,,,,,,,,,,,,,,,,,,,,,,,,,,,,,,,,
153027,001,2022-11-21_24h54.46.886,Info_measure_main_exp,2022.2.2,Win32,165.0709805,,,,,,,,,,,,,0,2,2,1,1,masks/mask_002.jpg,,,,,,,,,,,,,,,,,,,,,,,,,,,,,,,,,,,,,,,,,,,,,,,,,,,,,,,,,,,,,,,,,,,,,,,,,,,,,,,,,,,,,,,,,,,,,
153027,001,2022-11-21_24h54.46.886,Info_measure_main_exp,2022.2.2,Win32,165.0709805,,,,,,,,,,,,,0,3,3,3,1,masks/mask_004.jpg,,,,,,,,,,,,,,,,,,,,,,,,,,,,,,,,,,,,,,,,,,,,,,,,,,,,,,,,,,,,,,,,,,,,,,,,,,,,,,,,,,,,,,,,,,,,,
153027,001,2022-11-21_24h54.46.886,Info_measure_main_exp,2022.2.2,Win32,165.0709805,,,,,,,,,,,,,0,4,4,0,1,masks/mask_001.jpg,,,,,,,,,,,,,,,,,,,,,,,,,,,,,,,,,,,,,,,,,,,,,,,,,,,,,,,,,,,,,,,,,,,,,,,,,,,,,,,,,,,,,,,,,,,,,
153027,001,2022-11-21_24h54.46.886,Info_measure_main_exp,2022.2.2,Win32,165.0709805,,,,,,,,,,,,,,,,,,masks/mask_001.jpg,0,0,0,0,1,,,,,,,,,,,,,,,,,,,,,,,,,,,,,,,,,,,,,,,,,,,,,,,,,,,,,,,,,,,,,,,,,,,,,,,,,,,,,,,,,,,,,,,,
153027,001,2022-11-21_24h54.46.886,Info_measure_main_exp,2022.2.2,Win32,165.0709805,,,,,,,,,,,,,,,,,,masks/mask_004.jpg,0,1,1,3,1,,,,,,,,,,,,,,,,,,,,,,,,,,,,,,,,,,,,,,,,,,,,,,,,,,,,,,,,,,,,,,,,,,,,,,,,,,,,,,,,,,,,,,,,
153027,001,2022-11-21_24h54.46.886,Info_measure_main_exp,2022.2.2,Win32,165.0709805,,,,,,,,,,,,,,,,,,masks/mask_005.jpg,0,2,2,4,1,,,,,,,,,,,,,,,,,,,,,,,,,,,,,,,,,,,,,,,,,,,,,,,,,,,,,,,,,,,,,,,,,,,,,,,,,,,,,,,,,,,,,,,,
153027,001,2022-11-21_24h54.46.886,Info_measure_main_exp,2022.2.2,Win32,165.0709805,,,,,,,,,,,,,,,,,,masks/mask_003.jpg,0,3,3,2,1,,,,,,,,,,,,,,,,,,,,,,,,,,,,,,,,,,,,,,,,,,,,,,,,,,,,,,,,,,,,,,,,,,,,,,,,,,,,,,,,,,,,,,,,
153027,001,2022-11-21_24h54.46.886,Info_measure_main_exp,2022.2.2,Win32,165.0709805,,,,,,,,,,,,,,,,,,masks/mask_002.jpg,0,4,4,1,1,,,,,,,,,,,,,,,,,,,,,,,,,,,,,,,,,,,,,,,,,,,,,,,,,,,,,,,,,,,,,,,,,,,,,,,,,,,,,,,,,,,,,,,,
153027,001,2022-11-21_24h54.46.886,Info_measure_main_exp,2022.2.2,Win32,165.0709805,,,,,,,,,,,,,,,,,,,,,,,,0.11875,-0.079861111,1,0,0,response3disk,5,58.446,1,0.000694444,-0.001388889,1,0,0,center_square,0,0,0,0,1,0,131,5,5,2370,2406,prac_patch/patch0002370.jpg,prac_patch/patch0002406.jpg,,,,,,,,,,,,,,,,,,,,,,,,,,,,,,,,,,,,,,,,,,,,,,,,,,,,,,,,,,,,
153027,001,2022-11-21_24h54.46.886,Info_measure_main_exp,2022.2.2,Win32,165.0709805,,,,,,,,,,,,,0,0,0,0,1,masks/mask_001.jpg,,,,,,,,,,,,,,,,,,,,,,,,,,,,,,,,,,,,,,,,,,,,,,,,,,,,,,,,,,,,,,,,,,,,,,,,,,,,,,,,,,,,,,,,,,,,,
153027,001,2022-11-21_24h54.46.886,Info_measure_main_exp,2022.2.2,Win32,165.0709805,,,,,,,,,,,,,0,1,1,1,1,masks/mask_002.jpg,,,,,,,,,,,,,,,,,,,,,,,,,,,,,,,,,,,,,,,,,,,,,,,,,,,,,,,,,,,,,,,,,,,,,,,,,,,,,,,,,,,,,,,,,,,,,
153027,001,2022-11-21_24h54.46.886,Info_measure_main_exp,2022.2.2,Win32,165.0709805,,,,,,,,,,,,,0,2,2,2,1,masks/mask_003.jpg,,,,,,,,,,,,,,,,,,,,,,,,,,,,,,,,,,,,,,,,,,,,,,,,,,,,,,,,,,,,,,,,,,,,,,,,,,,,,,,,,,,,,,,,,,,,,
153027,001,2022-11-21_24h54.46.886,Info_measure_main_exp,2022.2.2,Win32,165.0709805,,,,,,,,,,,,,0,3,3,3,1,masks/mask_004.jpg,,,,,,,,,,,,,,,,,,,,,,,,,,,,,,,,,,,,,,,,,,,,,,,,,,,,,,,,,,,,,,,,,,,,,,,,,,,,,,,,,,,,,,,,,,,,,
153027,001,2022-11-21_24h54.46.886,Info_measure_main_exp,2022.2.2,Win32,165.0709805,,,,,,,,,,,,,0,4,4,4,1,masks/mask_005.jpg,,,,,,,,,,,,,,,,,,,,,,,,,,,,,,,,,,,,,,,,,,,,,,,,,,,,,,,,,,,,,,,,,,,,,,,,,,,,,,,,,,,,,,,,,,,,,
153027,001,2022-11-21_24h54.46.886,Info_measure_main_exp,2022.2.2,Win32,165.0709805,,,,,,,,,,,,,,,,,,masks/mask_005.jpg,0,0,0,4,1,,,,,,,,,,,,,,,,,,,,,,,,,,,,,,,,,,,,,,,,,,,,,,,,,,,,,,,,,,,,,,,,,,,,,,,,,,,,,,,,,,,,,,,,
153027,001,2022-11-21_24h54.46.886,Info_measure_main_exp,2022.2.2,Win32,165.0709805,,,,,,,,,,,,,,,,,,masks/mask_001.jpg,0,1,1,0,1,,,,,,,,,,,,,,,,,,,,,,,,,,,,,,,,,,,,,,,,,,,,,,,,,,,,,,,,,,,,,,,,,,,,,,,,,,,,,,,,,,,,,,,,
153027,001,2022-11-21_24h54.46.886,Info_measure_main_exp,2022.2.2,Win32,165.0709805,,,,,,,,,,,,,,,,,,masks/mask_003.jpg,0,2,2,2,1,,,,,,,,,,,,,,,,,,,,,,,,,,,,,,,,,,,,,,,,,,,,,,,,,,,,,,,,,,,,,,,,,,,,,,,,,,,,,,,,,,,,,,,,
153027,001,2022-11-21_24h54.46.886,Info_measure_main_exp,2022.2.2,Win32,165.0709805,,,,,,,,,,,,,,,,,,masks/mask_004.jpg,0,3,3,3,1,,,,,,,,,,,,,,,,,,,,,,,,,,,,,,,,,,,,,,,,,,,,,,,,,,,,,,,,,,,,,,,,,,,,,,,,,,,,,,,,,,,,,,,,
153027,001,2022-11-21_24h54.46.886,Info_measure_main_exp,2022.2.2,Win32,165.0709805,,,,,,,,,,,,,,,,,,masks/mask_002.jpg,0,4,4,1,1,,,,,,,,,,,,,,,,,,,,,,,,,,,,,,,,,,,,,,,,,,,,,,,,,,,,,,,,,,,,,,,,,,,,,,,,,,,,,,,,,,,,,,,,
153027,001,2022-11-21_24h54.46.886,Info_measure_main_exp,2022.2.2,Win32,165.0709805,,,,,,,,,,,,,,,,,,,,,,,,-0.139583333,-0.058333333,1,0,0,response5disk,2,72.7101,1,0.001388889,-0.001388889,1,0,0,center_square,0,1,1,1,1,0,131,5,5,2514,2490,prac_patch/patch0002514.jpg,prac_patch/patch0002490.jpg,,,,,,,,,,,,,,,,,,,,,,,,,,,,,,,,,,,,,,,,,,,,,,,,,,,,,,,,,,,,
153027,001,2022-11-21_24h54.46.886,Info_measure_main_exp,2022.2.2,Win32,165.0709805,,,,,,,,,,,,,0,0,0,4,1,masks/mask_005.jpg,,,,,,,,,,,,,,,,,,,,,,,,,,,,,,,,,,,,,,,,,,,,,,,,,,,,,,,,,,,,,,,,,,,,,,,,,,,,,,,,,,,,,,,,,,,,,
153027,001,2022-11-21_24h54.46.886,Info_measure_main_exp,2022.2.2,Win32,165.0709805,,,,,,,,,,,,,0,1,1,3,1,masks/mask_004.jpg,,,,,,,,,,,,,,,,,,,,,,,,,,,,,,,,,,,,,,,,,,,,,,,,,,,,,,,,,,,,,,,,,,,,,,,,,,,,,,,,,,,,,,,,,,,,,
153027,001,2022-11-21_24h54.46.886,Info_measure_main_exp,2022.2.2,Win32,165.0709805,,,,,,,,,,,,,0,2,2,0,1,masks/mask_001.jpg,,,,,,,,,,,,,,,,,,,,,,,,,,,,,,,,,,,,,,,,,,,,,,,,,,,,,,,,,,,,,,,,,,,,,,,,,,,,,,,,,,,,,,,,,,,,,
153027,001,2022-11-21_24h54.46.886,Info_measure_main_exp,2022.2.2,Win32,165.0709805,,,,,,,,,,,,,0,3,3,2,1,masks/mask_003.jpg,,,,,,,,,,,,,,,,,,,,,,,,,,,,,,,,,,,,,,,,,,,,,,,,,,,,,,,,,,,,,,,,,,,,,,,,,,,,,,,,,,,,,,,,,,,,,
153027,001,2022-11-21_24h54.46.886,Info_measure_main_exp,2022.2.2,Win32,165.0709805,,,,,,,,,,,,,0,4,4,1,1,masks/mask_002.jpg,,,,,,,,,,,,,,,,,,,,,,,,,,,,,,,,,,,,,,,,,,,,,,,,,,,,,,,,,,,,,,,,,,,,,,,,,,,,,,,,,,,,,,,,,,,,,
153027,001,2022-11-21_24h54.46.886,Info_measure_main_exp,2022.2.2,Win32,165.0709805,,,,,,,,,,,,,,,,,,masks/mask_002.jpg,0,0,0,1,1,,,,,,,,,,,,,,,,,,,,,,,,,,,,,,,,,,,,,,,,,,,,,,,,,,,,,,,,,,,,,,,,,,,,,,,,,,,,,,,,,,,,,,,,
153027,001,2022-11-21_24h54.46.886,Info_measure_main_exp,2022.2.2,Win32,165.0709805,,,,,,,,,,,,,,,,,,masks/mask_004.jpg,0,1,1,3,1,,,,,,,,,,,,,,,,,,,,,,,,,,,,,,,,,,,,,,,,,,,,,,,,,,,,,,,,,,,,,,,,,,,,,,,,,,,,,,,,,,,,,,,,
153027,001,2022-11-21_24h54.46.886,Info_measure_main_exp,2022.2.2,Win32,165.0709805,,,,,,,,,,,,,,,,,,masks/mask_001.jpg,0,2,2,0,1,,,,,,,,,,,,,,,,,,,,,,,,,,,,,,,,,,,,,,,,,,,,,,,,,,,,,,,,,,,,,,,,,,,,,,,,,,,,,,,,,,,,,,,,
153027,001,2022-11-21_24h54.46.886,Info_measure_main_exp,2022.2.2,Win32,165.0709805,,,,,,,,,,,,,,,,,,masks/mask_005.jpg,0,3,3,4,1,,,,,,,,,,,,,,,,,,,,,,,,,,,,,,,,,,,,,,,,,,,,,,,,,,,,,,,,,,,,,,,,,,,,,,,,,,,,,,,,,,,,,,,,
153027,001,2022-11-21_24h54.46.886,Info_measure_main_exp,2022.2.2,Win32,165.0709805,,,,,,,,,,,,,,,,,,masks/mask_003.jpg,0,4,4,2,1,,,,,,,,,,,,,,,,,,,,,,,,,,,,,,,,,,,,,,,,,,,,,,,,,,,,,,,,,,,,,,,,,,,,,,,,,,,,,,,,,,,,,,,,
153027,001,2022-11-21_24h54.46.886,Info_measure_main_exp,2022.2.2,Win32,165.0709805,,,,,,,,,,,,,,,,,,,,,,,,0.036805556,-0.128472222,1,0,0,response3disk,4,82.5497,1,-0.002083333,-0.002777778,1,0,0,center_square,0,2,2,2,1,0,131,5,5,2526,2526,prac_patch/patch0002526.jpg,prac_patch/patch0002526.jpg,,,,,,,,,,,,,,,,,,,,,,,,,,,,,,,,,,,,,,,,,,,,,,,,,,,,,,,,,,,,
153027,001,2022-11-21_24h54.46.886,Info_measure_main_exp,2022.2.2,Win32,165.0709805,,,,,,,,,,,,,,,,,,,,,,,,,,,,,,,,,,,,,,,,,,,,,,,,,,,,,,,,,,,space,2.4849,,,,,,,,,,,,,,,,,,,,,,,,,,,,,,,,,,,,,,,,,,,,,,,,,,,
153027,001,2022-11-21_24h54.46.886,Info_measure_main_exp,2022.2.2,Win32,165.0709805,,,,,,,,,,,,,,,,,,masks/mask_001.jpg,,,,,,,,,,,,,,,,,,,,,,,,,,,,,,,,,,,,,,,,,,,0,0,0,0,1,,,,,,,,,,,,,,,,,,,,,,,,,,,,,,,,,,,,,,,,,,,,,,
153027,001,2022-11-21_24h54.46.886,Info_measure_main_exp,2022.2.2,Win32,165.0709805,,,,,,,,,,,,,,,,,,masks/mask_003.jpg,,,,,,,,,,,,,,,,,,,,,,,,,,,,,,,,,,,,,,,,,,,0,1,1,2,1,,,,,,,,,,,,,,,,,,,,,,,,,,,,,,,,,,,,,,,,,,,,,,
153027,001,2022-11-21_24h54.46.886,Info_measure_main_exp,2022.2.2,Win32,165.0709805,,,,,,,,,,,,,,,,,,masks/mask_005.jpg,,,,,,,,,,,,,,,,,,,,,,,,,,,,,,,,,,,,,,,,,,,0,2,2,4,1,,,,,,,,,,,,,,,,,,,,,,,,,,,,,,,,,,,,,,,,,,,,,,
153027,001,2022-11-21_24h54.46.886,Info_measure_main_exp,2022.2.2,Win32,165.0709805,,,,,,,,,,,,,,,,,,masks/mask_004.jpg,,,,,,,,,,,,,,,,,,,,,,,,,,,,,,,,,,,,,,,,,,,0,3,3,3,1,,,,,,,,,,,,,,,,,,,,,,,,,,,,,,,,,,,,,,,,,,,,,,
153027,001,2022-11-21_24h54.46.886,Info_measure_main_exp,2022.2.2,Win32,165.0709805,,,,,,,,,,,,,,,,,,masks/mask_002.jpg,,,,,,,,,,,,,,,,,,,,,,,,,,,,,,,,,,,,,,,,,,,0,4,4,1,1,,,,,,,,,,,,,,,,,,,,,,,,,,,,,,,,,,,,,,,,,,,,,,
153027,001,2022-11-21_24h54.46.886,Info_measure_main_exp,2022.2.2,Win32,165.0709805,,,,,,,,,,,,,,,,,,masks/mask_002.jpg,,,,,,,,,,,,,,,,,,,,,,,,,,,,,,,,,,,,,,,,,,,,,,,,0,0,0,1,1,,,,,,,,,,,,,,,,,,,,,,,,,,,,,,,,,,,,,,,,,
153027,001,2022-11-21_24h54.46.886,Info_measure_main_exp,2022.2.2,Win32,165.0709805,,,,,,,,,,,,,,,,,,masks/mask_004.jpg,,,,,,,,,,,,,,,,,,,,,,,,,,,,,,,,,,,,,,,,,,,,,,,,0,1,1,3,1,,,,,,,,,,,,,,,,,,,,,,,,,,,,,,,,,,,,,,,,,
153027,001,2022-11-21_24h54.46.886,Info_measure_main_exp,2022.2.2,Win32,165.0709805,,,,,,,,,,,,,,,,,,masks/mask_001.jpg,,,,,,,,,,,,,,,,,,,,,,,,,,,,,,,,,,,,,,,,,,,,,,,,0,2,2,0,1,,,,,,,,,,,,,,,,,,,,,,,,,,,,,,,,,,,,,,,,,
153027,001,2022-11-21_24h54.46.886,Info_measure_main_exp,2022.2.2,Win32,165.0709805,,,,,,,,,,,,,,,,,,masks/mask_003.jpg,,,,,,,,,,,,,,,,,,,,,,,,,,,,,,,,,,,,,,,,,,,,,,,,0,3,3,2,1,,,,,,,,,,,,,,,,,,,,,,,,,,,,,,,,,,,,,,,,,
153027,001,2022-11-21_24h54.46.886,Info_measure_main_exp,2022.2.2,Win32,165.0709805,,,,,,,,,,,,,,,,,,masks/mask_005.jpg,,,,,,,,,,,,,,,,,,,,,,,,,,,,,,,,,,,,,,,,,,,,,,,,0,4,4,4,1,,,,,,,,,,,,,,,,,,,,,,,,,,,,,,,,,,,,,,,,,
153027,001,2022-11-21_24h54.46.886,Info_measure_main_exp,2022.2.2,Win32,165.0709805,,,,,,,,,,,,,,,,,,,,,,,,,,,,,,3,1.5956,1,,,,,,,,,,,,0,131,5,5,1974,2178,absent_patch/patch0001974.jpg,absent_patch/patch0002178.jpg,,,,,,,,,,,,,,,,,,,,-0.020833333,-0.127083333,1,0,0,response5disk,1,0.002777778,-0.008333333,1,0,0,center_square,0,0,0,44,1,,,,,,,,,,,,,,,,,,,,,,,
153027,001,2022-11-21_24h54.46.886,Info_measure_main_exp,2022.2.2,Win32,165.0709805,,,,,,,,,,,,,,,,,,masks/mask_003.jpg,,,,,,,,,,,,,,,,,,,,,,,,,,,,,,,,,,,,,,,,,,,0,0,0,2,1,,,,,,,,,,,,,,,,,,,,,,,,,,,,,,,,,,,,,,,,,,,,,,
153027,001,2022-11-21_24h54.46.886,Info_measure_main_exp,2022.2.2,Win32,165.0709805,,,,,,,,,,,,,,,,,,masks/mask_005.jpg,,,,,,,,,,,,,,,,,,,,,,,,,,,,,,,,,,,,,,,,,,,0,1,1,4,1,,,,,,,,,,,,,,,,,,,,,,,,,,,,,,,,,,,,,,,,,,,,,,
153027,001,2022-11-21_24h54.46.886,Info_measure_main_exp,2022.2.2,Win32,165.0709805,,,,,,,,,,,,,,,,,,masks/mask_001.jpg,,,,,,,,,,,,,,,,,,,,,,,,,,,,,,,,,,,,,,,,,,,0,2,2,0,1,,,,,,,,,,,,,,,,,,,,,,,,,,,,,,,,,,,,,,,,,,,,,,
153027,001,2022-11-21_24h54.46.886,Info_measure_main_exp,2022.2.2,Win32,165.0709805,,,,,,,,,,,,,,,,,,masks/mask_002.jpg,,,,,,,,,,,,,,,,,,,,,,,,,,,,,,,,,,,,,,,,,,,0,3,3,1,1,,,,,,,,,,,,,,,,,,,,,,,,,,,,,,,,,,,,,,,,,,,,,,
153027,001,2022-11-21_24h54.46.886,Info_measure_main_exp,2022.2.2,Win32,165.0709805,,,,,,,,,,,,,,,,,,masks/mask_004.jpg,,,,,,,,,,,,,,,,,,,,,,,,,,,,,,,,,,,,,,,,,,,0,4,4,3,1,,,,,,,,,,,,,,,,,,,,,,,,,,,,,,,,,,,,,,,,,,,,,,
153027,001,2022-11-21_24h54.46.886,Info_measure_main_exp,2022.2.2,Win32,165.0709805,,,,,,,,,,,,,,,,,,masks/mask_003.jpg,,,,,,,,,,,,,,,,,,,,,,,,,,,,,,,,,,,,,,,,,,,,,,,,0,0,0,2,1,,,,,,,,,,,,,,,,,,,,,,,,,,,,,,,,,,,,,,,,,
153027,001,2022-11-21_24h54.46.886,Info_measure_main_exp,2022.2.2,Win32,165.0709805,,,,,,,,,,,,,,,,,,masks/mask_005.jpg,,,,,,,,,,,,,,,,,,,,,,,,,,,,,,,,,,,,,,,,,,,,,,,,0,1,1,4,1,,,,,,,,,,,,,,,,,,,,,,,,,,,,,,,,,,,,,,,,,
153027,001,2022-11-21_24h54.46.886,Info_measure_main_exp,2022.2.2,Win32,165.0709805,,,,,,,,,,,,,,,,,,masks/mask_001.jpg,,,,,,,,,,,,,,,,,,,,,,,,,,,,,,,,,,,,,,,,,,,,,,,,0,2,2,0,1,,,,,,,,,,,,,,,,,,,,,,,,,,,,,,,,,,,,,,,,,
153027,001,2022-11-21_24h54.46.886,Info_measure_main_exp,2022.2.2,Win32,165.0709805,,,,,,,,,,,,,,,,,,masks/mask_004.jpg,,,,,,,,,,,,,,,,,,,,,,,,,,,,,,,,,,,,,,,,,,,,,,,,0,3,3,3,1,,,,,,,,,,,,,,,,,,,,,,,,,,,,,,,,,,,,,,,,,
153027,001,2022-11-21_24h54.46.886,Info_measure_main_exp,2022.2.2,Win32,165.0709805,,,,,,,,,,,,,,,,,,masks/mask_002.jpg,,,,,,,,,,,,,,,,,,,,,,,,,,,,,,,,,,,,,,,,,,,,,,,,0,4,4,1,1,,,,,,,,,,,,,,,,,,,,,,,,,,,,,,,,,,,,,,,,,
153027,001,2022-11-21_24h54.46.886,Info_measure_main_exp,2022.2.2,Win32,165.0709805,,,,,,,,,,,,,,,,,,,,,,,,,,,,,,2,1.5348,1,,,,,,,,,,,,0,131,5,5,1986,2274,absent_patch/patch0001986.jpg,absent_patch/patch0002274.jpg,,,,,,,,,,,,,,,,,,,,-0.089583333,-0.020138889,1,0,0,response5disk,2,0.005555556,0.003472222,1,0,0,center_square,0,1,1,7,1,,,,,,,,,,,,,,,,,,,,,,,
153027,001,2022-11-21_24h54.46.886,Info_measure_main_exp,2022.2.2,Win32,165.0709805,,,,,,,,,,,,,,,,,,masks/mask_003.jpg,,,,,,,,,,,,,,,,,,,,,,,,,,,,,,,,,,,,,,,,,,,0,0,0,2,1,,,,,,,,,,,,,,,,,,,,,,,,,,,,,,,,,,,,,,,,,,,,,,
153027,001,2022-11-21_24h54.46.886,Info_measure_main_exp,2022.2.2,Win32,165.0709805,,,,,,,,,,,,,,,,,,masks/mask_004.jpg,,,,,,,,,,,,,,,,,,,,,,,,,,,,,,,,,,,,,,,,,,,0,1,1,3,1,,,,,,,,,,,,,,,,,,,,,,,,,,,,,,,,,,,,,,,,,,,,,,
153027,001,2022-11-21_24h54.46.886,Info_measure_main_exp,2022.2.2,Win32,165.0709805,,,,,,,,,,,,,,,,,,masks/mask_001.jpg,,,,,,,,,,,,,,,,,,,,,,,,,,,,,,,,,,,,,,,,,,,0,2,2,0,1,,,,,,,,,,,,,,,,,,,,,,,,,,,,,,,,,,,,,,,,,,,,,,
153027,001,2022-11-21_24h54.46.886,Info_measure_main_exp,2022.2.2,Win32,165.0709805,,,,,,,,,,,,,,,,,,masks/mask_002.jpg,,,,,,,,,,,,,,,,,,,,,,,,,,,,,,,,,,,,,,,,,,,0,3,3,1,1,,,,,,,,,,,,,,,,,,,,,,,,,,,,,,,,,,,,,,,,,,,,,,
153027,001,2022-11-21_24h54.46.886,Info_measure_main_exp,2022.2.2,Win32,165.0709805,,,,,,,,,,,,,,,,,,masks/mask_005.jpg,,,,,,,,,,,,,,,,,,,,,,,,,,,,,,,,,,,,,,,,,,,0,4,4,4,1,,,,,,,,,,,,,,,,,,,,,,,,,,,,,,,,,,,,,,,,,,,,,,
153027,001,2022-11-21_24h54.46.886,Info_measure_main_exp,2022.2.2,Win32,165.0709805,,,,,,,,,,,,,,,,,,masks/mask_001.jpg,,,,,,,,,,,,,,,,,,,,,,,,,,,,,,,,,,,,,,,,,,,,,,,,0,0,0,0,1,,,,,,,,,,,,,,,,,,,,,,,,,,,,,,,,,,,,,,,,,
153027,001,2022-11-21_24h54.46.886,Info_measure_main_exp,2022.2.2,Win32,165.0709805,,,,,,,,,,,,,,,,,,masks/mask_004.jpg,,,,,,,,,,,,,,,,,,,,,,,,,,,,,,,,,,,,,,,,,,,,,,,,0,1,1,3,1,,,,,,,,,,,,,,,,,,,,,,,,,,,,,,,,,,,,,,,,,
153027,001,2022-11-21_24h54.46.886,Info_measure_main_exp,2022.2.2,Win32,165.0709805,,,,,,,,,,,,,,,,,,masks/mask_002.jpg,,,,,,,,,,,,,,,,,,,,,,,,,,,,,,,,,,,,,,,,,,,,,,,,0,2,2,1,1,,,,,,,,,,,,,,,,,,,,,,,,,,,,,,,,,,,,,,,,,
153027,001,2022-11-21_24h54.46.886,Info_measure_main_exp,2022.2.2,Win32,165.0709805,,,,,,,,,,,,,,,,,,masks/mask_003.jpg,,,,,,,,,,,,,,,,,,,,,,,,,,,,,,,,,,,,,,,,,,,,,,,,0,3,3,2,1,,,,,,,,,,,,,,,,,,,,,,,,,,,,,,,,,,,,,,,,,
153027,001,2022-11-21_24h54.46.886,Info_measure_main_exp,2022.2.2,Win32,165.0709805,,,,,,,,,,,,,,,,,,masks/mask_005.jpg,,,,,,,,,,,,,,,,,,,,,,,,,,,,,,,,,,,,,,,,,,,,,,,,0,4,4,4,1,,,,,,,,,,,,,,,,,,,,,,,,,,,,,,,,,,,,,,,,,
153027,001,2022-11-21_24h54.46.886,Info_measure_main_exp,2022.2.2,Win32,165.0709805,,,,,,,,,,,,,,,,,,,,,,,,,,,,,,4,0.8371,1,,,,,,,,,,,,1,131,5,5,2238,1,absent_patch/patch0002238.jpg,present_patch/cong_131_5_a.jpg,,,,,,,,,,,,,,,,,,,,0.05625,-0.104861111,1,0,0,response3disk,3,0.004166667,-0.005555556,1,0,0,center_square,0,2,2,104,1,,,,,,,,,,,,,,,,,,,,,,,
153027,001,2022-11-21_24h54.46.886,Info_measure_main_exp,2022.2.2,Win32,165.0709805,,,,,,,,,,,,,,,,,,masks/mask_001.jpg,,,,,,,,,,,,,,,,,,,,,,,,,,,,,,,,,,,,,,,,,,,0,0,0,0,1,,,,,,,,,,,,,,,,,,,,,,,,,,,,,,,,,,,,,,,,,,,,,,
153027,001,2022-11-21_24h54.46.886,Info_measure_main_exp,2022.2.2,Win32,165.0709805,,,,,,,,,,,,,,,,,,masks/mask_004.jpg,,,,,,,,,,,,,,,,,,,,,,,,,,,,,,,,,,,,,,,,,,,0,1,1,3,1,,,,,,,,,,,,,,,,,,,,,,,,,,,,,,,,,,,,,,,,,,,,,,
153027,001,2022-11-21_24h54.46.886,Info_measure_main_exp,2022.2.2,Win32,165.0709805,,,,,,,,,,,,,,,,,,masks/mask_005.jpg,,,,,,,,,,,,,,,,,,,,,,,,,,,,,,,,,,,,,,,,,,,0,2,2,4,1,,,,,,,,,,,,,,,,,,,,,,,,,,,,,,,,,,,,,,,,,,,,,,
153027,001,2022-11-21_24h54.46.886,Info_measure_main_exp,2022.2.2,Win32,165.0709805,,,,,,,,,,,,,,,,,,masks/mask_002.jpg,,,,,,,,,,,,,,,,,,,,,,,,,,,,,,,,,,,,,,,,,,,0,3,3,1,1,,,,,,,,,,,,,,,,,,,,,,,,,,,,,,,,,,,,,,,,,,,,,,
153027,001,2022-11-21_24h54.46.886,Info_measure_main_exp,2022.2.2,Win32,165.0709805,,,,,,,,,,,,,,,,,,masks/mask_003.jpg,,,,,,,,,,,,,,,,,,,,,,,,,,,,,,,,,,,,,,,,,,,0,4,4,2,1,,,,,,,,,,,,,,,,,,,,,,,,,,,,,,,,,,,,,,,,,,,,,,
153027,001,2022-11-21_24h54.46.886,Info_measure_main_exp,2022.2.2,Win32,165.0709805,,,,,,,,,,,,,,,,,,masks/mask_005.jpg,,,,,,,,,,,,,,,,,,,,,,,,,,,,,,,,,,,,,,,,,,,,,,,,0,0,0,4,1,,,,,,,,,,,,,,,,,,,,,,,,,,,,,,,,,,,,,,,,,
153027,001,2022-11-21_24h54.46.886,Info_measure_main_exp,2022.2.2,Win32,165.0709805,,,,,,,,,,,,,,,,,,masks/mask_003.jpg,,,,,,,,,,,,,,,,,,,,,,,,,,,,,,,,,,,,,,,,,,,,,,,,0,1,1,2,1,,,,,,,,,,,,,,,,,,,,,,,,,,,,,,,,,,,,,,,,,
153027,001,2022-11-21_24h54.46.886,Info_measure_main_exp,2022.2.2,Win32,165.0709805,,,,,,,,,,,,,,,,,,masks/mask_004.jpg,,,,,,,,,,,,,,,,,,,,,,,,,,,,,,,,,,,,,,,,,,,,,,,,0,2,2,3,1,,,,,,,,,,,,,,,,,,,,,,,,,,,,,,,,,,,,,,,,,
153027,001,2022-11-21_24h54.46.886,Info_measure_main_exp,2022.2.2,Win32,165.0709805,,,,,,,,,,,,,,,,,,masks/mask_002.jpg,,,,,,,,,,,,,,,,,,,,,,,,,,,,,,,,,,,,,,,,,,,,,,,,0,3,3,1,1,,,,,,,,,,,,,,,,,,,,,,,,,,,,,,,,,,,,,,,,,
153027,001,2022-11-21_24h54.46.886,Info_measure_main_exp,2022.2.2,Win32,165.0709805,,,,,,,,,,,,,,,,,,masks/mask_001.jpg,,,,,,,,,,,,,,,,,,,,,,,,,,,,,,,,,,,,,,,,,,,,,,,,0,4,4,0,1,,,,,,,,,,,,,,,,,,,,,,,,,,,,,,,,,,,,,,,,,
153027,001,2022-11-21_24h54.46.886,Info_measure_main_exp,2022.2.2,Win32,165.0709805,,,,,,,,,,,,,,,,,,,,,,,,,,,,,,7,1.0858,1,,,,,,,,,,,,0,131,5,5,2178,1986,absent_patch/patch0002178.jpg,absent_patch/patch0001986.jpg,,,,,,,,,,,,,,,,,,,,0.041666667,0.101388889,1,0,0,response1disk,4,-0.004166667,0.002777778,1,0,0,center_square,0,3,3,46,1,,,,,,,,,,,,,,,,,,,,,,,
153027,001,2022-11-21_24h54.46.886,Info_measure_main_exp,2022.2.2,Win32,165.0709805,,,,,,,,,,,,,,,,,,masks/mask_004.jpg,,,,,,,,,,,,,,,,,,,,,,,,,,,,,,,,,,,,,,,,,,,0,0,0,3,1,,,,,,,,,,,,,,,,,,,,,,,,,,,,,,,,,,,,,,,,,,,,,,
153027,001,2022-11-21_24h54.46.886,Info_measure_main_exp,2022.2.2,Win32,165.0709805,,,,,,,,,,,,,,,,,,masks/mask_005.jpg,,,,,,,,,,,,,,,,,,,,,,,,,,,,,,,,,,,,,,,,,,,0,1,1,4,1,,,,,,,,,,,,,,,,,,,,,,,,,,,,,,,,,,,,,,,,,,,,,,
153027,001,2022-11-21_24h54.46.886,Info_measure_main_exp,2022.2.2,Win32,165.0709805,,,,,,,,,,,,,,,,,,masks/mask_003.jpg,,,,,,,,,,,,,,,,,,,,,,,,,,,,,,,,,,,,,,,,,,,0,2,2,2,1,,,,,,,,,,,,,,,,,,,,,,,,,,,,,,,,,,,,,,,,,,,,,,
153027,001,2022-11-21_24h54.46.886,Info_measure_main_exp,2022.2.2,Win32,165.0709805,,,,,,,,,,,,,,,,,,masks/mask_001.jpg,,,,,,,,,,,,,,,,,,,,,,,,,,,,,,,,,,,,,,,,,,,0,3,3,0,1,,,,,,,,,,,,,,,,,,,,,,,,,,,,,,,,,,,,,,,,,,,,,,
153027,001,2022-11-21_24h54.46.886,Info_measure_main_exp,2022.2.2,Win32,165.0709805,,,,,,,,,,,,,,,,,,masks/mask_002.jpg,,,,,,,,,,,,,,,,,,,,,,,,,,,,,,,,,,,,,,,,,,,0,4,4,1,1,,,,,,,,,,,,,,,,,,,,,,,,,,,,,,,,,,,,,,,,,,,,,,
153027,001,2022-11-21_24h54.46.886,Info_measure_main_exp,2022.2.2,Win32,165.0709805,,,,,,,,,,,,,,,,,,masks/mask_003.jpg,,,,,,,,,,,,,,,,,,,,,,,,,,,,,,,,,,,,,,,,,,,,,,,,0,0,0,2,1,,,,,,,,,,,,,,,,,,,,,,,,,,,,,,,,,,,,,,,,,
153027,001,2022-11-21_24h54.46.886,Info_measure_main_exp,2022.2.2,Win32,165.0709805,,,,,,,,,,,,,,,,,,masks/mask_004.jpg,,,,,,,,,,,,,,,,,,,,,,,,,,,,,,,,,,,,,,,,,,,,,,,,0,1,1,3,1,,,,,,,,,,,,,,,,,,,,,,,,,,,,,,,,,,,,,,,,,
153027,001,2022-11-21_24h54.46.886,Info_measure_main_exp,2022.2.2,Win32,165.0709805,,,,,,,,,,,,,,,,,,masks/mask_001.jpg,,,,,,,,,,,,,,,,,,,,,,,,,,,,,,,,,,,,,,,,,,,,,,,,0,2,2,0,1,,,,,,,,,,,,,,,,,,,,,,,,,,,,,,,,,,,,,,,,,
153027,001,2022-11-21_24h54.46.886,Info_measure_main_exp,2022.2.2,Win32,165.0709805,,,,,,,,,,,,,,,,,,masks/mask_005.jpg,,,,,,,,,,,,,,,,,,,,,,,,,,,,,,,,,,,,,,,,,,,,,,,,0,3,3,4,1,,,,,,,,,,,,,,,,,,,,,,,,,,,,,,,,,,,,,,,,,
153027,001,2022-11-21_24h54.46.886,Info_measure_main_exp,2022.2.2,Win32,165.0709805,,,,,,,,,,,,,,,,,,masks/mask_002.jpg,,,,,,,,,,,,,,,,,,,,,,,,,,,,,,,,,,,,,,,,,,,,,,,,0,4,4,1,1,,,,,,,,,,,,,,,,,,,,,,,,,,,,,,,,,,,,,,,,,
153027,001,2022-11-21_24h54.46.886,Info_measure_main_exp,2022.2.2,Win32,165.0709805,,,,,,,,,,,,,,,,,,,,,,,,,,,,,,4,1.001,1,,,,,,,,,,,,0,131,5,5,2250,1950,absent_patch/patch0002250.jpg,absent_patch/patch0001950.jpg,,,,,,,,,,,,,,,,,,,,0.027777778,-0.102083333,1,0,0,response3disk,5,-0.009027778,-0.009722222,1,0,0,center_square,0,4,4,16,1,,,,,,,,,,,,,,,,,,,,,,,
153027,001,2022-11-21_24h54.46.886,Info_measure_main_exp,2022.2.2,Win32,165.0709805,,,,,,,,,,,,,,,,,,masks/mask_002.jpg,,,,,,,,,,,,,,,,,,,,,,,,,,,,,,,,,,,,,,,,,,,0,0,0,1,1,,,,,,,,,,,,,,,,,,,,,,,,,,,,,,,,,,,,,,,,,,,,,,
153027,001,2022-11-21_24h54.46.886,Info_measure_main_exp,2022.2.2,Win32,165.0709805,,,,,,,,,,,,,,,,,,masks/mask_001.jpg,,,,,,,,,,,,,,,,,,,,,,,,,,,,,,,,,,,,,,,,,,,0,1,1,0,1,,,,,,,,,,,,,,,,,,,,,,,,,,,,,,,,,,,,,,,,,,,,,,
153027,001,2022-11-21_24h54.46.886,Info_measure_main_exp,2022.2.2,Win32,165.0709805,,,,,,,,,,,,,,,,,,masks/mask_004.jpg,,,,,,,,,,,,,,,,,,,,,,,,,,,,,,,,,,,,,,,,,,,0,2,2,3,1,,,,,,,,,,,,,,,,,,,,,,,,,,,,,,,,,,,,,,,,,,,,,,
153027,001,2022-11-21_24h54.46.886,Info_measure_main_exp,2022.2.2,Win32,165.0709805,,,,,,,,,,,,,,,,,,masks/mask_005.jpg,,,,,,,,,,,,,,,,,,,,,,,,,,,,,,,,,,,,,,,,,,,0,3,3,4,1,,,,,,,,,,,,,,,,,,,,,,,,,,,,,,,,,,,,,,,,,,,,,,
153027,001,2022-11-21_24h54.46.886,Info_measure_main_exp,2022.2.2,Win32,165.0709805,,,,,,,,,,,,,,,,,,masks/mask_003.jpg,,,,,,,,,,,,,,,,,,,,,,,,,,,,,,,,,,,,,,,,,,,0,4,4,2,1,,,,,,,,,,,,,,,,,,,,,,,,,,,,,,,,,,,,,,,,,,,,,,
153027,001,2022-11-21_24h54.46.886,Info_measure_main_exp,2022.2.2,Win32,165.0709805,,,,,,,,,,,,,,,,,,masks/mask_005.jpg,,,,,,,,,,,,,,,,,,,,,,,,,,,,,,,,,,,,,,,,,,,,,,,,0,0,0,4,1,,,,,,,,,,,,,,,,,,,,,,,,,,,,,,,,,,,,,,,,,
153027,001,2022-11-21_24h54.46.886,Info_measure_main_exp,2022.2.2,Win32,165.0709805,,,,,,,,,,,,,,,,,,masks/mask_004.jpg,,,,,,,,,,,,,,,,,,,,,,,,,,,,,,,,,,,,,,,,,,,,,,,,0,1,1,3,1,,,,,,,,,,,,,,,,,,,,,,,,,,,,,,,,,,,,,,,,,
153027,001,2022-11-21_24h54.46.886,Info_measure_main_exp,2022.2.2,Win32,165.0709805,,,,,,,,,,,,,,,,,,masks/mask_003.jpg,,,,,,,,,,,,,,,,,,,,,,,,,,,,,,,,,,,,,,,,,,,,,,,,0,2,2,2,1,,,,,,,,,,,,,,,,,,,,,,,,,,,,,,,,,,,,,,,,,
153027,001,2022-11-21_24h54.46.886,Info_measure_main_exp,2022.2.2,Win32,165.0709805,,,,,,,,,,,,,,,,,,masks/mask_001.jpg,,,,,,,,,,,,,,,,,,,,,,,,,,,,,,,,,,,,,,,,,,,,,,,,0,3,3,0,1,,,,,,,,,,,,,,,,,,,,,,,,,,,,,,,,,,,,,,,,,
153027,001,2022-11-21_24h54.46.886,Info_measure_main_exp,2022.2.2,Win32,165.0709805,,,,,,,,,,,,,,,,,,masks/mask_002.jpg,,,,,,,,,,,,,,,,,,,,,,,,,,,,,,,,,,,,,,,,,,,,,,,,0,4,4,1,1,,,,,,,,,,,,,,,,,,,,,,,,,,,,,,,,,,,,,,,,,
153027,001,2022-11-21_24h54.46.886,Info_measure_main_exp,2022.2.2,Win32,165.0709805,,,,,,,,,,,,,,,,,,,,,,,,,,,,,,2,1.2315,1,,,,,,,,,,,,0,131,5,5,1974,1974,absent_patch/patch0001974.jpg,absent_patch/patch0001974.jpg,,,,,,,,,,,,,,,,,,,,-0.05,-0.021527778,1,0,0,response5disk,6,-0.003472222,0.004861111,1,0,0,center_square,0,5,5,113,1,,,,,,,,,,,,,,,,,,,,,,,
153027,001,2022-11-21_24h54.46.886,Info_measure_main_exp,2022.2.2,Win32,165.0709805,,,,,,,,,,,,,,,,,,masks/mask_002.jpg,,,,,,,,,,,,,,,,,,,,,,,,,,,,,,,,,,,,,,,,,,,0,0,0,1,1,,,,,,,,,,,,,,,,,,,,,,,,,,,,,,,,,,,,,,,,,,,,,,
153027,001,2022-11-21_24h54.46.886,Info_measure_main_exp,2022.2.2,Win32,165.0709805,,,,,,,,,,,,,,,,,,masks/mask_001.jpg,,,,,,,,,,,,,,,,,,,,,,,,,,,,,,,,,,,,,,,,,,,0,1,1,0,1,,,,,,,,,,,,,,,,,,,,,,,,,,,,,,,,,,,,,,,,,,,,,,
153027,001,2022-11-21_24h54.46.886,Info_measure_main_exp,2022.2.2,Win32,165.0709805,,,,,,,,,,,,,,,,,,masks/mask_004.jpg,,,,,,,,,,,,,,,,,,,,,,,,,,,,,,,,,,,,,,,,,,,0,2,2,3,1,,,,,,,,,,,,,,,,,,,,,,,,,,,,,,,,,,,,,,,,,,,,,,
153027,001,2022-11-21_24h54.46.886,Info_measure_main_exp,2022.2.2,Win32,165.0709805,,,,,,,,,,,,,,,,,,masks/mask_005.jpg,,,,,,,,,,,,,,,,,,,,,,,,,,,,,,,,,,,,,,,,,,,0,3,3,4,1,,,,,,,,,,,,,,,,,,,,,,,,,,,,,,,,,,,,,,,,,,,,,,
153027,001,2022-11-21_24h54.46.886,Info_measure_main_exp,2022.2.2,Win32,165.0709805,,,,,,,,,,,,,,,,,,masks/mask_003.jpg,,,,,,,,,,,,,,,,,,,,,,,,,,,,,,,,,,,,,,,,,,,0,4,4,2,1,,,,,,,,,,,,,,,,,,,,,,,,,,,,,,,,,,,,,,,,,,,,,,
153027,001,2022-11-21_24h54.46.886,Info_measure_main_exp,2022.2.2,Win32,165.0709805,,,,,,,,,,,,,,,,,,masks/mask_005.jpg,,,,,,,,,,,,,,,,,,,,,,,,,,,,,,,,,,,,,,,,,,,,,,,,0,0,0,4,1,,,,,,,,,,,,,,,,,,,,,,,,,,,,,,,,,,,,,,,,,
153027,001,2022-11-21_24h54.46.886,Info_measure_main_exp,2022.2.2,Win32,165.0709805,,,,,,,,,,,,,,,,,,masks/mask_002.jpg,,,,,,,,,,,,,,,,,,,,,,,,,,,,,,,,,,,,,,,,,,,,,,,,0,1,1,1,1,,,,,,,,,,,,,,,,,,,,,,,,,,,,,,,,,,,,,,,,,
153027,001,2022-11-21_24h54.46.886,Info_measure_main_exp,2022.2.2,Win32,165.0709805,,,,,,,,,,,,,,,,,,masks/mask_003.jpg,,,,,,,,,,,,,,,,,,,,,,,,,,,,,,,,,,,,,,,,,,,,,,,,0,2,2,2,1,,,,,,,,,,,,,,,,,,,,,,,,,,,,,,,,,,,,,,,,,
153027,001,2022-11-21_24h54.46.886,Info_measure_main_exp,2022.2.2,Win32,165.0709805,,,,,,,,,,,,,,,,,,masks/mask_001.jpg,,,,,,,,,,,,,,,,,,,,,,,,,,,,,,,,,,,,,,,,,,,,,,,,0,3,3,0,1,,,,,,,,,,,,,,,,,,,,,,,,,,,,,,,,,,,,,,,,,
153027,001,2022-11-21_24h54.46.886,Info_measure_main_exp,2022.2.2,Win32,165.0709805,,,,,,,,,,,,,,,,,,masks/mask_004.jpg,,,,,,,,,,,,,,,,,,,,,,,,,,,,,,,,,,,,,,,,,,,,,,,,0,4,4,3,1,,,,,,,,,,,,,,,,,,,,,,,,,,,,,,,,,,,,,,,,,
153027,001,2022-11-21_24h54.46.886,Info_measure_main_exp,2022.2.2,Win32,165.0709805,,,,,,,,,,,,,,,,,,,,,,,,,,,,,,3,1.4377,1,,,,,,,,,,,,0,131,5,5,2178,2142,absent_patch/patch0002178.jpg,absent_patch/patch0002142.jpg,,,,,,,,,,,,,,,,,,,,-0.063194444,-0.095138889,1,0,0,response5disk,7,-0.004166667,-0.003472222,1,0,0,center_square,0,6,6,41,1,,,,,,,,,,,,,,,,,,,,,,,
153027,001,2022-11-21_24h54.46.886,Info_measure_main_exp,2022.2.2,Win32,165.0709805,,,,,,,,,,,,,,,,,,masks/mask_001.jpg,,,,,,,,,,,,,,,,,,,,,,,,,,,,,,,,,,,,,,,,,,,0,0,0,0,1,,,,,,,,,,,,,,,,,,,,,,,,,,,,,,,,,,,,,,,,,,,,,,
153027,001,2022-11-21_24h54.46.886,Info_measure_main_exp,2022.2.2,Win32,165.0709805,,,,,,,,,,,,,,,,,,masks/mask_003.jpg,,,,,,,,,,,,,,,,,,,,,,,,,,,,,,,,,,,,,,,,,,,0,1,1,2,1,,,,,,,,,,,,,,,,,,,,,,,,,,,,,,,,,,,,,,,,,,,,,,
153027,001,2022-11-21_24h54.46.886,Info_measure_main_exp,2022.2.2,Win32,165.0709805,,,,,,,,,,,,,,,,,,masks/mask_005.jpg,,,,,,,,,,,,,,,,,,,,,,,,,,,,,,,,,,,,,,,,,,,0,2,2,4,1,,,,,,,,,,,,,,,,,,,,,,,,,,,,,,,,,,,,,,,,,,,,,,
153027,001,2022-11-21_24h54.46.886,Info_measure_main_exp,2022.2.2,Win32,165.0709805,,,,,,,,,,,,,,,,,,masks/mask_002.jpg,,,,,,,,,,,,,,,,,,,,,,,,,,,,,,,,,,,,,,,,,,,0,3,3,1,1,,,,,,,,,,,,,,,,,,,,,,,,,,,,,,,,,,,,,,,,,,,,,,
153027,001,2022-11-21_24h54.46.886,Info_measure_main_exp,2022.2.2,Win32,165.0709805,,,,,,,,,,,,,,,,,,masks/mask_004.jpg,,,,,,,,,,,,,,,,,,,,,,,,,,,,,,,,,,,,,,,,,,,0,4,4,3,1,,,,,,,,,,,,,,,,,,,,,,,,,,,,,,,,,,,,,,,,,,,,,,
153027,001,2022-11-21_24h54.46.886,Info_measure_main_exp,2022.2.2,Win32,165.0709805,,,,,,,,,,,,,,,,,,masks/mask_002.jpg,,,,,,,,,,,,,,,,,,,,,,,,,,,,,,,,,,,,,,,,,,,,,,,,0,0,0,1,1,,,,,,,,,,,,,,,,,,,,,,,,,,,,,,,,,,,,,,,,,
153027,001,2022-11-21_24h54.46.886,Info_measure_main_exp,2022.2.2,Win32,165.0709805,,,,,,,,,,,,,,,,,,masks/mask_003.jpg,,,,,,,,,,,,,,,,,,,,,,,,,,,,,,,,,,,,,,,,,,,,,,,,0,1,1,2,1,,,,,,,,,,,,,,,,,,,,,,,,,,,,,,,,,,,,,,,,,
153027,001,2022-11-21_24h54.46.886,Info_measure_main_exp,2022.2.2,Win32,165.0709805,,,,,,,,,,,,,,,,,,masks/mask_005.jpg,,,,,,,,,,,,,,,,,,,,,,,,,,,,,,,,,,,,,,,,,,,,,,,,0,2,2,4,1,,,,,,,,,,,,,,,,,,,,,,,,,,,,,,,,,,,,,,,,,
153027,001,2022-11-21_24h54.46.886,Info_measure_main_exp,2022.2.2,Win32,165.0709805,,,,,,,,,,,,,,,,,,masks/mask_004.jpg,,,,,,,,,,,,,,,,,,,,,,,,,,,,,,,,,,,,,,,,,,,,,,,,0,3,3,3,1,,,,,,,,,,,,,,,,,,,,,,,,,,,,,,,,,,,,,,,,,
153027,001,2022-11-21_24h54.46.886,Info_measure_main_exp,2022.2.2,Win32,165.0709805,,,,,,,,,,,,,,,,,,masks/mask_001.jpg,,,,,,,,,,,,,,,,,,,,,,,,,,,,,,,,,,,,,,,,,,,,,,,,0,4,4,0,1,,,,,,,,,,,,,,,,,,,,,,,,,,,,,,,,,,,,,,,,,
153027,001,2022-11-21_24h54.46.886,Info_measure_main_exp,2022.2.2,Win32,165.0709805,,,,,,,,,,,,,,,,,,,,,,,,,,,,,,2,0.6915,1,,,,,,,,,,,,0,131,5,5,2190,1974,absent_patch/patch0002190.jpg,absent_patch/patch0001974.jpg,,,,,,,,,,,,,,,,,,,,-0.098611111,-0.05625,1,0,0,response5disk,8,-0.002083333,-0.001388889,1,0,0,center_square,0,7,7,119,1,,,,,,,,,,,,,,,,,,,,,,,
153027,001,2022-11-21_24h54.46.886,Info_measure_main_exp,2022.2.2,Win32,165.0709805,,,,,,,,,,,,,,,,,,masks/mask_004.jpg,,,,,,,,,,,,,,,,,,,,,,,,,,,,,,,,,,,,,,,,,,,0,0,0,3,1,,,,,,,,,,,,,,,,,,,,,,,,,,,,,,,,,,,,,,,,,,,,,,
153027,001,2022-11-21_24h54.46.886,Info_measure_main_exp,2022.2.2,Win32,165.0709805,,,,,,,,,,,,,,,,,,masks/mask_005.jpg,,,,,,,,,,,,,,,,,,,,,,,,,,,,,,,,,,,,,,,,,,,0,1,1,4,1,,,,,,,,,,,,,,,,,,,,,,,,,,,,,,,,,,,,,,,,,,,,,,
153027,001,2022-11-21_24h54.46.886,Info_measure_main_exp,2022.2.2,Win32,165.0709805,,,,,,,,,,,,,,,,,,masks/mask_001.jpg,,,,,,,,,,,,,,,,,,,,,,,,,,,,,,,,,,,,,,,,,,,0,2,2,0,1,,,,,,,,,,,,,,,,,,,,,,,,,,,,,,,,,,,,,,,,,,,,,,
153027,001,2022-11-21_24h54.46.886,Info_measure_main_exp,2022.2.2,Win32,165.0709805,,,,,,,,,,,,,,,,,,masks/mask_002.jpg,,,,,,,,,,,,,,,,,,,,,,,,,,,,,,,,,,,,,,,,,,,0,3,3,1,1,,,,,,,,,,,,,,,,,,,,,,,,,,,,,,,,,,,,,,,,,,,,,,
153027,001,2022-11-21_24h54.46.886,Info_measure_main_exp,2022.2.2,Win32,165.0709805,,,,,,,,,,,,,,,,,,masks/mask_003.jpg,,,,,,,,,,,,,,,,,,,,,,,,,,,,,,,,,,,,,,,,,,,0,4,4,2,1,,,,,,,,,,,,,,,,,,,,,,,,,,,,,,,,,,,,,,,,,,,,,,
153027,001,2022-11-21_24h54.46.886,Info_measure_main_exp,2022.2.2,Win32,165.0709805,,,,,,,,,,,,,,,,,,masks/mask_004.jpg,,,,,,,,,,,,,,,,,,,,,,,,,,,,,,,,,,,,,,,,,,,,,,,,0,0,0,3,1,,,,,,,,,,,,,,,,,,,,,,,,,,,,,,,,,,,,,,,,,
153027,001,2022-11-21_24h54.46.886,Info_measure_main_exp,2022.2.2,Win32,165.0709805,,,,,,,,,,,,,,,,,,masks/mask_005.jpg,,,,,,,,,,,,,,,,,,,,,,,,,,,,,,,,,,,,,,,,,,,,,,,,0,1,1,4,1,,,,,,,,,,,,,,,,,,,,,,,,,,,,,,,,,,,,,,,,,
153027,001,2022-11-21_24h54.46.886,Info_measure_main_exp,2022.2.2,Win32,165.0709805,,,,,,,,,,,,,,,,,,masks/mask_003.jpg,,,,,,,,,,,,,,,,,,,,,,,,,,,,,,,,,,,,,,,,,,,,,,,,0,2,2,2,1,,,,,,,,,,,,,,,,,,,,,,,,,,,,,,,,,,,,,,,,,
153027,001,2022-11-21_24h54.46.886,Info_measure_main_exp,2022.2.2,Win32,165.0709805,,,,,,,,,,,,,,,,,,masks/mask_002.jpg,,,,,,,,,,,,,,,,,,,,,,,,,,,,,,,,,,,,,,,,,,,,,,,,0,3,3,1,1,,,,,,,,,,,,,,,,,,,,,,,,,,,,,,,,,,,,,,,,,
153027,001,2022-11-21_24h54.46.886,Info_measure_main_exp,2022.2.2,Win32,165.0709805,,,,,,,,,,,,,,,,,,masks/mask_001.jpg,,,,,,,,,,,,,,,,,,,,,,,,,,,,,,,,,,,,,,,,,,,,,,,,0,4,4,0,1,,,,,,,,,,,,,,,,,,,,,,,,,,,,,,,,,,,,,,,,,
153027,001,2022-11-21_24h54.46.886,Info_measure_main_exp,2022.2.2,Win32,165.0709805,,,,,,,,,,,,,,,,,,,,,,,,,,,,,,6,0.7097,1,,,,,,,,,,,,0,131,5,5,2274,1974,absent_patch/patch0002274.jpg,absent_patch/patch0001974.jpg,,,,,,,,,,,,,,,,,,,,0.085416667,0.029166667,1,0,0,response1disk,9,-0.003472222,-0.009027778,1,0,0,center_square,0,8,8,90,1,,,,,,,,,,,,,,,,,,,,,,,
153027,001,2022-11-21_24h54.46.886,Info_measure_main_exp,2022.2.2,Win32,165.0709805,,,,,,,,,,,,,,,,,,masks/mask_003.jpg,,,,,,,,,,,,,,,,,,,,,,,,,,,,,,,,,,,,,,,,,,,0,0,0,2,1,,,,,,,,,,,,,,,,,,,,,,,,,,,,,,,,,,,,,,,,,,,,,,
153027,001,2022-11-21_24h54.46.886,Info_measure_main_exp,2022.2.2,Win32,165.0709805,,,,,,,,,,,,,,,,,,masks/mask_004.jpg,,,,,,,,,,,,,,,,,,,,,,,,,,,,,,,,,,,,,,,,,,,0,1,1,3,1,,,,,,,,,,,,,,,,,,,,,,,,,,,,,,,,,,,,,,,,,,,,,,
153027,001,2022-11-21_24h54.46.886,Info_measure_main_exp,2022.2.2,Win32,165.0709805,,,,,,,,,,,,,,,,,,masks/mask_002.jpg,,,,,,,,,,,,,,,,,,,,,,,,,,,,,,,,,,,,,,,,,,,0,2,2,1,1,,,,,,,,,,,,,,,,,,,,,,,,,,,,,,,,,,,,,,,,,,,,,,
153027,001,2022-11-21_24h54.46.886,Info_measure_main_exp,2022.2.2,Win32,165.0709805,,,,,,,,,,,,,,,,,,masks/mask_001.jpg,,,,,,,,,,,,,,,,,,,,,,,,,,,,,,,,,,,,,,,,,,,0,3,3,0,1,,,,,,,,,,,,,,,,,,,,,,,,,,,,,,,,,,,,,,,,,,,,,,
153027,001,2022-11-21_24h54.46.886,Info_measure_main_exp,2022.2.2,Win32,165.0709805,,,,,,,,,,,,,,,,,,masks/mask_005.jpg,,,,,,,,,,,,,,,,,,,,,,,,,,,,,,,,,,,,,,,,,,,0,4,4,4,1,,,,,,,,,,,,,,,,,,,,,,,,,,,,,,,,,,,,,,,,,,,,,,
153027,001,2022-11-21_24h54.46.886,Info_measure_main_exp,2022.2.2,Win32,165.0709805,,,,,,,,,,,,,,,,,,masks/mask_005.jpg,,,,,,,,,,,,,,,,,,,,,,,,,,,,,,,,,,,,,,,,,,,,,,,,0,0,0,4,1,,,,,,,,,,,,,,,,,,,,,,,,,,,,,,,,,,,,,,,,,
153027,001,2022-11-21_24h54.46.886,Info_measure_main_exp,2022.2.2,Win32,165.0709805,,,,,,,,,,,,,,,,,,masks/mask_004.jpg,,,,,,,,,,,,,,,,,,,,,,,,,,,,,,,,,,,,,,,,,,,,,,,,0,1,1,3,1,,,,,,,,,,,,,,,,,,,,,,,,,,,,,,,,,,,,,,,,,
153027,001,2022-11-21_24h54.46.886,Info_measure_main_exp,2022.2.2,Win32,165.0709805,,,,,,,,,,,,,,,,,,masks/mask_003.jpg,,,,,,,,,,,,,,,,,,,,,,,,,,,,,,,,,,,,,,,,,,,,,,,,0,2,2,2,1,,,,,,,,,,,,,,,,,,,,,,,,,,,,,,,,,,,,,,,,,
153027,001,2022-11-21_24h54.46.886,Info_measure_main_exp,2022.2.2,Win32,165.0709805,,,,,,,,,,,,,,,,,,masks/mask_001.jpg,,,,,,,,,,,,,,,,,,,,,,,,,,,,,,,,,,,,,,,,,,,,,,,,0,3,3,0,1,,,,,,,,,,,,,,,,,,,,,,,,,,,,,,,,,,,,,,,,,
153027,001,2022-11-21_24h54.46.886,Info_measure_main_exp,2022.2.2,Win32,165.0709805,,,,,,,,,,,,,,,,,,masks/mask_002.jpg,,,,,,,,,,,,,,,,,,,,,,,,,,,,,,,,,,,,,,,,,,,,,,,,0,4,4,1,1,,,,,,,,,,,,,,,,,,,,,,,,,,,,,,,,,,,,,,,,,
153027,001,2022-11-21_24h54.46.886,Info_measure_main_exp,2022.2.2,Win32,165.0709805,,,,,,,,,,,,,,,,,,,,,,,,,,,,,,1,1.3709,1,,,,,,,,,,,,1,131,5,5,1,1,present_patch/cong_131_5_a.jpg,present_patch/cong_131_5_a.jpg,,,,,,,,,,,,,,,,,,,,-0.150694444,0.052083333,1,0,0,response7disk,10,0.003472222,-0.002777778,1,0,0,center_square,0,9,9,30,1,,,,,,,,,,,,,,,,,,,,,,,
153027,001,2022-11-21_24h54.46.886,Info_measure_main_exp,2022.2.2,Win32,165.0709805,,,,,,,,,,,,,,,,,,masks/mask_001.jpg,,,,,,,,,,,,,,,,,,,,,,,,,,,,,,,,,,,,,,,,,,,0,0,0,0,1,,,,,,,,,,,,,,,,,,,,,,,,,,,,,,,,,,,,,,,,,,,,,,
153027,001,2022-11-21_24h54.46.886,Info_measure_main_exp,2022.2.2,Win32,165.0709805,,,,,,,,,,,,,,,,,,masks/mask_005.jpg,,,,,,,,,,,,,,,,,,,,,,,,,,,,,,,,,,,,,,,,,,,0,1,1,4,1,,,,,,,,,,,,,,,,,,,,,,,,,,,,,,,,,,,,,,,,,,,,,,
153027,001,2022-11-21_24h54.46.886,Info_measure_main_exp,2022.2.2,Win32,165.0709805,,,,,,,,,,,,,,,,,,masks/mask_003.jpg,,,,,,,,,,,,,,,,,,,,,,,,,,,,,,,,,,,,,,,,,,,0,2,2,2,1,,,,,,,,,,,,,,,,,,,,,,,,,,,,,,,,,,,,,,,,,,,,,,
153027,001,2022-11-21_24h54.46.886,Info_measure_main_exp,2022.2.2,Win32,165.0709805,,,,,,,,,,,,,,,,,,masks/mask_004.jpg,,,,,,,,,,,,,,,,,,,,,,,,,,,,,,,,,,,,,,,,,,,0,3,3,3,1,,,,,,,,,,,,,,,,,,,,,,,,,,,,,,,,,,,,,,,,,,,,,,
153027,001,2022-11-21_24h54.46.886,Info_measure_main_exp,2022.2.2,Win32,165.0709805,,,,,,,,,,,,,,,,,,masks/mask_002.jpg,,,,,,,,,,,,,,,,,,,,,,,,,,,,,,,,,,,,,,,,,,,0,4,4,1,1,,,,,,,,,,,,,,,,,,,,,,,,,,,,,,,,,,,,,,,,,,,,,,
153027,001,2022-11-21_24h54.46.886,Info_measure_main_exp,2022.2.2,Win32,165.0709805,,,,,,,,,,,,,,,,,,masks/mask_005.jpg,,,,,,,,,,,,,,,,,,,,,,,,,,,,,,,,,,,,,,,,,,,,,,,,0,0,0,4,1,,,,,,,,,,,,,,,,,,,,,,,,,,,,,,,,,,,,,,,,,
153027,001,2022-11-21_24h54.46.886,Info_measure_main_exp,2022.2.2,Win32,165.0709805,,,,,,,,,,,,,,,,,,masks/mask_002.jpg,,,,,,,,,,,,,,,,,,,,,,,,,,,,,,,,,,,,,,,,,,,,,,,,0,1,1,1,1,,,,,,,,,,,,,,,,,,,,,,,,,,,,,,,,,,,,,,,,,
153027,001,2022-11-21_24h54.46.886,Info_measure_main_exp,2022.2.2,Win32,165.0709805,,,,,,,,,,,,,,,,,,masks/mask_004.jpg,,,,,,,,,,,,,,,,,,,,,,,,,,,,,,,,,,,,,,,,,,,,,,,,0,2,2,3,1,,,,,,,,,,,,,,,,,,,,,,,,,,,,,,,,,,,,,,,,,
153027,001,2022-11-21_24h54.46.886,Info_measure_main_exp,2022.2.2,Win32,165.0709805,,,,,,,,,,,,,,,,,,masks/mask_003.jpg,,,,,,,,,,,,,,,,,,,,,,,,,,,,,,,,,,,,,,,,,,,,,,,,0,3,3,2,1,,,,,,,,,,,,,,,,,,,,,,,,,,,,,,,,,,,,,,,,,
153027,001,2022-11-21_24h54.46.886,Info_measure_main_exp,2022.2.2,Win32,165.0709805,,,,,,,,,,,,,,,,,,masks/mask_001.jpg,,,,,,,,,,,,,,,,,,,,,,,,,,,,,,,,,,,,,,,,,,,,,,,,0,4,4,0,1,,,,,,,,,,,,,,,,,,,,,,,,,,,,,,,,,,,,,,,,,
153027,001,2022-11-21_24h54.46.886,Info_measure_main_exp,2022.2.2,Win32,165.0709805,,,,,,,,,,,,,,,,,,,,,,,,,,,,,,3,0.8735,1,,,,,,,,,,,,0,131,5,5,2190,2166,absent_patch/patch0002190.jpg,absent_patch/patch0002166.jpg,,,,,,,,,,,,,,,,,,,,-0.033333333,-0.088194444,1,0,0,response5disk,11,-0.000694444,-0.008333333,1,0,0,center_square,0,10,10,50,1,,,,,,,,,,,,,,,,,,,,,,,
153027,001,2022-11-21_24h54.46.886,Info_measure_main_exp,2022.2.2,Win32,165.0709805,,,,,,,,,,,,,,,,,,masks/mask_001.jpg,,,,,,,,,,,,,,,,,,,,,,,,,,,,,,,,,,,,,,,,,,,0,0,0,0,1,,,,,,,,,,,,,,,,,,,,,,,,,,,,,,,,,,,,,,,,,,,,,,
153027,001,2022-11-21_24h54.46.886,Info_measure_main_exp,2022.2.2,Win32,165.0709805,,,,,,,,,,,,,,,,,,masks/mask_003.jpg,,,,,,,,,,,,,,,,,,,,,,,,,,,,,,,,,,,,,,,,,,,0,1,1,2,1,,,,,,,,,,,,,,,,,,,,,,,,,,,,,,,,,,,,,,,,,,,,,,
153027,001,2022-11-21_24h54.46.886,Info_measure_main_exp,2022.2.2,Win32,165.0709805,,,,,,,,,,,,,,,,,,masks/mask_005.jpg,,,,,,,,,,,,,,,,,,,,,,,,,,,,,,,,,,,,,,,,,,,0,2,2,4,1,,,,,,,,,,,,,,,,,,,,,,,,,,,,,,,,,,,,,,,,,,,,,,
153027,001,2022-11-21_24h54.46.886,Info_measure_main_exp,2022.2.2,Win32,165.0709805,,,,,,,,,,,,,,,,,,masks/mask_002.jpg,,,,,,,,,,,,,,,,,,,,,,,,,,,,,,,,,,,,,,,,,,,0,3,3,1,1,,,,,,,,,,,,,,,,,,,,,,,,,,,,,,,,,,,,,,,,,,,,,,
153027,001,2022-11-21_24h54.46.886,Info_measure_main_exp,2022.2.2,Win32,165.0709805,,,,,,,,,,,,,,,,,,masks/mask_004.jpg,,,,,,,,,,,,,,,,,,,,,,,,,,,,,,,,,,,,,,,,,,,0,4,4,3,1,,,,,,,,,,,,,,,,,,,,,,,,,,,,,,,,,,,,,,,,,,,,,,
153027,001,2022-11-21_24h54.46.886,Info_measure_main_exp,2022.2.2,Win32,165.0709805,,,,,,,,,,,,,,,,,,masks/mask_002.jpg,,,,,,,,,,,,,,,,,,,,,,,,,,,,,,,,,,,,,,,,,,,,,,,,0,0,0,1,1,,,,,,,,,,,,,,,,,,,,,,,,,,,,,,,,,,,,,,,,,
153027,001,2022-11-21_24h54.46.886,Info_measure_main_exp,2022.2.2,Win32,165.0709805,,,,,,,,,,,,,,,,,,masks/mask_005.jpg,,,,,,,,,,,,,,,,,,,,,,,,,,,,,,,,,,,,,,,,,,,,,,,,0,1,1,4,1,,,,,,,,,,,,,,,,,,,,,,,,,,,,,,,,,,,,,,,,,
153027,001,2022-11-21_24h54.46.886,Info_measure_main_exp,2022.2.2,Win32,165.0709805,,,,,,,,,,,,,,,,,,masks/mask_001.jpg,,,,,,,,,,,,,,,,,,,,,,,,,,,,,,,,,,,,,,,,,,,,,,,,0,2,2,0,1,,,,,,,,,,,,,,,,,,,,,,,,,,,,,,,,,,,,,,,,,
153027,001,2022-11-21_24h54.46.886,Info_measure_main_exp,2022.2.2,Win32,165.0709805,,,,,,,,,,,,,,,,,,masks/mask_003.jpg,,,,,,,,,,,,,,,,,,,,,,,,,,,,,,,,,,,,,,,,,,,,,,,,0,3,3,2,1,,,,,,,,,,,,,,,,,,,,,,,,,,,,,,,,,,,,,,,,,
153027,001,2022-11-21_24h54.46.886,Info_measure_main_exp,2022.2.2,Win32,165.0709805,,,,,,,,,,,,,,,,,,masks/mask_004.jpg,,,,,,,,,,,,,,,,,,,,,,,,,,,,,,,,,,,,,,,,,,,,,,,,0,4,4,3,1,,,,,,,,,,,,,,,,,,,,,,,,,,,,,,,,,,,,,,,,,
153027,001,2022-11-21_24h54.46.886,Info_measure_main_exp,2022.2.2,Win32,165.0709805,,,,,,,,,,,,,,,,,,,,,,,,,,,,,,5,1.1283,1,,,,,,,,,,,,0,131,5,5,2238,2214,absent_patch/patch0002238.jpg,absent_patch/patch0002214.jpg,,,,,,,,,,,,,,,,,,,,0.072916667,-0.024305556,1,0,0,response3disk,12,0.004166667,-0.001388889,1,0,0,center_square,0,11,11,81,1,,,,,,,,,,,,,,,,,,,,,,,
153027,001,2022-11-21_24h54.46.886,Info_measure_main_exp,2022.2.2,Win32,165.0709805,,,,,,,,,,,,,,,,,,masks/mask_002.jpg,,,,,,,,,,,,,,,,,,,,,,,,,,,,,,,,,,,,,,,,,,,0,0,0,1,1,,,,,,,,,,,,,,,,,,,,,,,,,,,,,,,,,,,,,,,,,,,,,,
153027,001,2022-11-21_24h54.46.886,Info_measure_main_exp,2022.2.2,Win32,165.0709805,,,,,,,,,,,,,,,,,,masks/mask_003.jpg,,,,,,,,,,,,,,,,,,,,,,,,,,,,,,,,,,,,,,,,,,,0,1,1,2,1,,,,,,,,,,,,,,,,,,,,,,,,,,,,,,,,,,,,,,,,,,,,,,
153027,001,2022-11-21_24h54.46.886,Info_measure_main_exp,2022.2.2,Win32,165.0709805,,,,,,,,,,,,,,,,,,masks/mask_005.jpg,,,,,,,,,,,,,,,,,,,,,,,,,,,,,,,,,,,,,,,,,,,0,2,2,4,1,,,,,,,,,,,,,,,,,,,,,,,,,,,,,,,,,,,,,,,,,,,,,,
153027,001,2022-11-21_24h54.46.886,Info_measure_main_exp,2022.2.2,Win32,165.0709805,,,,,,,,,,,,,,,,,,masks/mask_001.jpg,,,,,,,,,,,,,,,,,,,,,,,,,,,,,,,,,,,,,,,,,,,0,3,3,0,1,,,,,,,,,,,,,,,,,,,,,,,,,,,,,,,,,,,,,,,,,,,,,,
153027,001,2022-11-21_24h54.46.886,Info_measure_main_exp,2022.2.2,Win32,165.0709805,,,,,,,,,,,,,,,,,,masks/mask_004.jpg,,,,,,,,,,,,,,,,,,,,,,,,,,,,,,,,,,,,,,,,,,,0,4,4,3,1,,,,,,,,,,,,,,,,,,,,,,,,,,,,,,,,,,,,,,,,,,,,,,
153027,001,2022-11-21_24h54.46.886,Info_measure_main_exp,2022.2.2,Win32,165.0709805,,,,,,,,,,,,,,,,,,masks/mask_005.jpg,,,,,,,,,,,,,,,,,,,,,,,,,,,,,,,,,,,,,,,,,,,,,,,,0,0,0,4,1,,,,,,,,,,,,,,,,,,,,,,,,,,,,,,,,,,,,,,,,,
153027,001,2022-11-21_24h54.46.886,Info_measure_main_exp,2022.2.2,Win32,165.0709805,,,,,,,,,,,,,,,,,,masks/mask_004.jpg,,,,,,,,,,,,,,,,,,,,,,,,,,,,,,,,,,,,,,,,,,,,,,,,0,1,1,3,1,,,,,,,,,,,,,,,,,,,,,,,,,,,,,,,,,,,,,,,,,
153027,001,2022-11-21_24h54.46.886,Info_measure_main_exp,2022.2.2,Win32,165.0709805,,,,,,,,,,,,,,,,,,masks/mask_003.jpg,,,,,,,,,,,,,,,,,,,,,,,,,,,,,,,,,,,,,,,,,,,,,,,,0,2,2,2,1,,,,,,,,,,,,,,,,,,,,,,,,,,,,,,,,,,,,,,,,,
153027,001,2022-11-21_24h54.46.886,Info_measure_main_exp,2022.2.2,Win32,165.0709805,,,,,,,,,,,,,,,,,,masks/mask_001.jpg,,,,,,,,,,,,,,,,,,,,,,,,,,,,,,,,,,,,,,,,,,,,,,,,0,3,3,0,1,,,,,,,,,,,,,,,,,,,,,,,,,,,,,,,,,,,,,,,,,
153027,001,2022-11-21_24h54.46.886,Info_measure_main_exp,2022.2.2,Win32,165.0709805,,,,,,,,,,,,,,,,,,masks/mask_002.jpg,,,,,,,,,,,,,,,,,,,,,,,,,,,,,,,,,,,,,,,,,,,,,,,,0,4,4,1,1,,,,,,,,,,,,,,,,,,,,,,,,,,,,,,,,,,,,,,,,,
153027,001,2022-11-21_24h54.46.886,Info_measure_main_exp,2022.2.2,Win32,165.0709805,,,,,,,,,,,,,,,,,,,,,,,,,,,,,,2,0.6733,1,,,,,,,,,,,,0,131,5,5,1974,1950,absent_patch/patch0001974.jpg,absent_patch/patch0001950.jpg,,,,,,,,,,,,,,,,,,,,-0.1125,-0.016666667,1,0,0,response5disk,13,0.002083333,0.004861111,1,0,0,center_square,0,12,12,17,1,,,,,,,,,,,,,,,,,,,,,,,
153027,001,2022-11-21_24h54.46.886,Info_measure_main_exp,2022.2.2,Win32,165.0709805,,,,,,,,,,,,,,,,,,masks/mask_002.jpg,,,,,,,,,,,,,,,,,,,,,,,,,,,,,,,,,,,,,,,,,,,0,0,0,1,1,,,,,,,,,,,,,,,,,,,,,,,,,,,,,,,,,,,,,,,,,,,,,,
153027,001,2022-11-21_24h54.46.886,Info_measure_main_exp,2022.2.2,Win32,165.0709805,,,,,,,,,,,,,,,,,,masks/mask_005.jpg,,,,,,,,,,,,,,,,,,,,,,,,,,,,,,,,,,,,,,,,,,,0,1,1,4,1,,,,,,,,,,,,,,,,,,,,,,,,,,,,,,,,,,,,,,,,,,,,,,
153027,001,2022-11-21_24h54.46.886,Info_measure_main_exp,2022.2.2,Win32,165.0709805,,,,,,,,,,,,,,,,,,masks/mask_001.jpg,,,,,,,,,,,,,,,,,,,,,,,,,,,,,,,,,,,,,,,,,,,0,2,2,0,1,,,,,,,,,,,,,,,,,,,,,,,,,,,,,,,,,,,,,,,,,,,,,,
153027,001,2022-11-21_24h54.46.886,Info_measure_main_exp,2022.2.2,Win32,165.0709805,,,,,,,,,,,,,,,,,,masks/mask_003.jpg,,,,,,,,,,,,,,,,,,,,,,,,,,,,,,,,,,,,,,,,,,,0,3,3,2,1,,,,,,,,,,,,,,,,,,,,,,,,,,,,,,,,,,,,,,,,,,,,,,
153027,001,2022-11-21_24h54.46.886,Info_measure_main_exp,2022.2.2,Win32,165.0709805,,,,,,,,,,,,,,,,,,masks/mask_004.jpg,,,,,,,,,,,,,,,,,,,,,,,,,,,,,,,,,,,,,,,,,,,0,4,4,3,1,,,,,,,,,,,,,,,,,,,,,,,,,,,,,,,,,,,,,,,,,,,,,,
153027,001,2022-11-21_24h54.46.886,Info_measure_main_exp,2022.2.2,Win32,165.0709805,,,,,,,,,,,,,,,,,,masks/mask_002.jpg,,,,,,,,,,,,,,,,,,,,,,,,,,,,,,,,,,,,,,,,,,,,,,,,0,0,0,1,1,,,,,,,,,,,,,,,,,,,,,,,,,,,,,,,,,,,,,,,,,
153027,001,2022-11-21_24h54.46.886,Info_measure_main_exp,2022.2.2,Win32,165.0709805,,,,,,,,,,,,,,,,,,masks/mask_003.jpg,,,,,,,,,,,,,,,,,,,,,,,,,,,,,,,,,,,,,,,,,,,,,,,,0,1,1,2,1,,,,,,,,,,,,,,,,,,,,,,,,,,,,,,,,,,,,,,,,,
153027,001,2022-11-21_24h54.46.886,Info_measure_main_exp,2022.2.2,Win32,165.0709805,,,,,,,,,,,,,,,,,,masks/mask_005.jpg,,,,,,,,,,,,,,,,,,,,,,,,,,,,,,,,,,,,,,,,,,,,,,,,0,2,2,4,1,,,,,,,,,,,,,,,,,,,,,,,,,,,,,,,,,,,,,,,,,
153027,001,2022-11-21_24h54.46.886,Info_measure_main_exp,2022.2.2,Win32,165.0709805,,,,,,,,,,,,,,,,,,masks/mask_001.jpg,,,,,,,,,,,,,,,,,,,,,,,,,,,,,,,,,,,,,,,,,,,,,,,,0,3,3,0,1,,,,,,,,,,,,,,,,,,,,,,,,,,,,,,,,,,,,,,,,,
153027,001,2022-11-21_24h54.46.886,Info_measure_main_exp,2022.2.2,Win32,165.0709805,,,,,,,,,,,,,,,,,,masks/mask_004.jpg,,,,,,,,,,,,,,,,,,,,,,,,,,,,,,,,,,,,,,,,,,,,,,,,0,4,4,3,1,,,,,,,,,,,,,,,,,,,,,,,,,,,,,,,,,,,,,,,,,
153027,001,2022-11-21_24h54.46.886,Info_measure_main_exp,2022.2.2,Win32,165.0709805,,,,,,,,,,,,,,,,,,,,,,,,,,,,,,4,0.746,1,,,,,,,,,,,,0,131,5,5,2154,2298,absent_patch/patch0002154.jpg,absent_patch/patch0002298.jpg,,,,,,,,,,,,,,,,,,,,0.011805556,-0.094444444,1,0,0,response3disk,14,-0.009722222,-0.000694444,1,0,0,center_square,0,13,13,27,1,,,,,,,,,,,,,,,,,,,,,,,
153027,001,2022-11-21_24h54.46.886,Info_measure_main_exp,2022.2.2,Win32,165.0709805,,,,,,,,,,,,,,,,,,masks/mask_002.jpg,,,,,,,,,,,,,,,,,,,,,,,,,,,,,,,,,,,,,,,,,,,0,0,0,1,1,,,,,,,,,,,,,,,,,,,,,,,,,,,,,,,,,,,,,,,,,,,,,,
153027,001,2022-11-21_24h54.46.886,Info_measure_main_exp,2022.2.2,Win32,165.0709805,,,,,,,,,,,,,,,,,,masks/mask_005.jpg,,,,,,,,,,,,,,,,,,,,,,,,,,,,,,,,,,,,,,,,,,,0,1,1,4,1,,,,,,,,,,,,,,,,,,,,,,,,,,,,,,,,,,,,,,,,,,,,,,
153027,001,2022-11-21_24h54.46.886,Info_measure_main_exp,2022.2.2,Win32,165.0709805,,,,,,,,,,,,,,,,,,masks/mask_001.jpg,,,,,,,,,,,,,,,,,,,,,,,,,,,,,,,,,,,,,,,,,,,0,2,2,0,1,,,,,,,,,,,,,,,,,,,,,,,,,,,,,,,,,,,,,,,,,,,,,,
153027,001,2022-11-21_24h54.46.886,Info_measure_main_exp,2022.2.2,Win32,165.0709805,,,,,,,,,,,,,,,,,,masks/mask_004.jpg,,,,,,,,,,,,,,,,,,,,,,,,,,,,,,,,,,,,,,,,,,,0,3,3,3,1,,,,,,,,,,,,,,,,,,,,,,,,,,,,,,,,,,,,,,,,,,,,,,
153027,001,2022-11-21_24h54.46.886,Info_measure_main_exp,2022.2.2,Win32,165.0709805,,,,,,,,,,,,,,,,,,masks/mask_003.jpg,,,,,,,,,,,,,,,,,,,,,,,,,,,,,,,,,,,,,,,,,,,0,4,4,2,1,,,,,,,,,,,,,,,,,,,,,,,,,,,,,,,,,,,,,,,,,,,,,,
153027,001,2022-11-21_24h54.46.886,Info_measure_main_exp,2022.2.2,Win32,165.0709805,,,,,,,,,,,,,,,,,,masks/mask_004.jpg,,,,,,,,,,,,,,,,,,,,,,,,,,,,,,,,,,,,,,,,,,,,,,,,0,0,0,3,1,,,,,,,,,,,,,,,,,,,,,,,,,,,,,,,,,,,,,,,,,
153027,001,2022-11-21_24h54.46.886,Info_measure_main_exp,2022.2.2,Win32,165.0709805,,,,,,,,,,,,,,,,,,masks/mask_005.jpg,,,,,,,,,,,,,,,,,,,,,,,,,,,,,,,,,,,,,,,,,,,,,,,,0,1,1,4,1,,,,,,,,,,,,,,,,,,,,,,,,,,,,,,,,,,,,,,,,,
153027,001,2022-11-21_24h54.46.886,Info_measure_main_exp,2022.2.2,Win32,165.0709805,,,,,,,,,,,,,,,,,,masks/mask_003.jpg,,,,,,,,,,,,,,,,,,,,,,,,,,,,,,,,,,,,,,,,,,,,,,,,0,2,2,2,1,,,,,,,,,,,,,,,,,,,,,,,,,,,,,,,,,,,,,,,,,
153027,001,2022-11-21_24h54.46.886,Info_measure_main_exp,2022.2.2,Win32,165.0709805,,,,,,,,,,,,,,,,,,masks/mask_001.jpg,,,,,,,,,,,,,,,,,,,,,,,,,,,,,,,,,,,,,,,,,,,,,,,,0,3,3,0,1,,,,,,,,,,,,,,,,,,,,,,,,,,,,,,,,,,,,,,,,,
153027,001,2022-11-21_24h54.46.886,Info_measure_main_exp,2022.2.2,Win32,165.0709805,,,,,,,,,,,,,,,,,,masks/mask_002.jpg,,,,,,,,,,,,,,,,,,,,,,,,,,,,,,,,,,,,,,,,,,,,,,,,0,4,4,1,1,,,,,,,,,,,,,,,,,,,,,,,,,,,,,,,,,,,,,,,,,
153027,001,2022-11-21_24h54.46.886,Info_measure_main_exp,2022.2.2,Win32,165.0709805,,,,,,,,,,,,,,,,,,,,,,,,,,,,,,3,1.2435,1,,,,,,,,,,,,0,131,5,5,2250,2298,absent_patch/patch0002250.jpg,absent_patch/patch0002298.jpg,,,,,,,,,,,,,,,,,,,,-0.053472222,-0.082638889,1,0,0,response5disk,15,-0.003472222,-0.010416667,1,0,0,center_square,0,14,14,59,1,,,,,,,,,,,,,,,,,,,,,,,
153027,001,2022-11-21_24h54.46.886,Info_measure_main_exp,2022.2.2,Win32,165.0709805,,,,,,,,,,,,,,,,,,masks/mask_004.jpg,,,,,,,,,,,,,,,,,,,,,,,,,,,,,,,,,,,,,,,,,,,0,0,0,3,1,,,,,,,,,,,,,,,,,,,,,,,,,,,,,,,,,,,,,,,,,,,,,,
153027,001,2022-11-21_24h54.46.886,Info_measure_main_exp,2022.2.2,Win32,165.0709805,,,,,,,,,,,,,,,,,,masks/mask_003.jpg,,,,,,,,,,,,,,,,,,,,,,,,,,,,,,,,,,,,,,,,,,,0,1,1,2,1,,,,,,,,,,,,,,,,,,,,,,,,,,,,,,,,,,,,,,,,,,,,,,
153027,001,2022-11-21_24h54.46.886,Info_measure_main_exp,2022.2.2,Win32,165.0709805,,,,,,,,,,,,,,,,,,masks/mask_001.jpg,,,,,,,,,,,,,,,,,,,,,,,,,,,,,,,,,,,,,,,,,,,0,2,2,0,1,,,,,,,,,,,,,,,,,,,,,,,,,,,,,,,,,,,,,,,,,,,,,,
153027,001,2022-11-21_24h54.46.886,Info_measure_main_exp,2022.2.2,Win32,165.0709805,,,,,,,,,,,,,,,,,,masks/mask_005.jpg,,,,,,,,,,,,,,,,,,,,,,,,,,,,,,,,,,,,,,,,,,,0,3,3,4,1,,,,,,,,,,,,,,,,,,,,,,,,,,,,,,,,,,,,,,,,,,,,,,
153027,001,2022-11-21_24h54.46.886,Info_measure_main_exp,2022.2.2,Win32,165.0709805,,,,,,,,,,,,,,,,,,masks/mask_002.jpg,,,,,,,,,,,,,,,,,,,,,,,,,,,,,,,,,,,,,,,,,,,0,4,4,1,1,,,,,,,,,,,,,,,,,,,,,,,,,,,,,,,,,,,,,,,,,,,,,,
153027,001,2022-11-21_24h54.46.886,Info_measure_main_exp,2022.2.2,Win32,165.0709805,,,,,,,,,,,,,,,,,,masks/mask_004.jpg,,,,,,,,,,,,,,,,,,,,,,,,,,,,,,,,,,,,,,,,,,,,,,,,0,0,0,3,1,,,,,,,,,,,,,,,,,,,,,,,,,,,,,,,,,,,,,,,,,
153027,001,2022-11-21_24h54.46.886,Info_measure_main_exp,2022.2.2,Win32,165.0709805,,,,,,,,,,,,,,,,,,masks/mask_002.jpg,,,,,,,,,,,,,,,,,,,,,,,,,,,,,,,,,,,,,,,,,,,,,,,,0,1,1,1,1,,,,,,,,,,,,,,,,,,,,,,,,,,,,,,,,,,,,,,,,,
153027,001,2022-11-21_24h54.46.886,Info_measure_main_exp,2022.2.2,Win32,165.0709805,,,,,,,,,,,,,,,,,,masks/mask_005.jpg,,,,,,,,,,,,,,,,,,,,,,,,,,,,,,,,,,,,,,,,,,,,,,,,0,2,2,4,1,,,,,,,,,,,,,,,,,,,,,,,,,,,,,,,,,,,,,,,,,
153027,001,2022-11-21_24h54.46.886,Info_measure_main_exp,2022.2.2,Win32,165.0709805,,,,,,,,,,,,,,,,,,masks/mask_003.jpg,,,,,,,,,,,,,,,,,,,,,,,,,,,,,,,,,,,,,,,,,,,,,,,,0,3,3,2,1,,,,,,,,,,,,,,,,,,,,,,,,,,,,,,,,,,,,,,,,,
153027,001,2022-11-21_24h54.46.886,Info_measure_main_exp,2022.2.2,Win32,165.0709805,,,,,,,,,,,,,,,,,,masks/mask_001.jpg,,,,,,,,,,,,,,,,,,,,,,,,,,,,,,,,,,,,,,,,,,,,,,,,0,4,4,0,1,,,,,,,,,,,,,,,,,,,,,,,,,,,,,,,,,,,,,,,,,
153027,001,2022-11-21_24h54.46.886,Info_measure_main_exp,2022.2.2,Win32,165.0709805,,,,,,,,,,,,,,,,,,,,,,,,,,,,,,3,1.1525,1,,,,,,,,,,,,1,131,5,5,1,2274,present_patch/cong_131_5_a.jpg,absent_patch/patch0002274.jpg,,,,,,,,,,,,,,,,,,,,-0.035416667,-0.09375,1,0,0,response5disk,16,-0.00625,-0.003472222,1,0,0,center_square,0,15,15,105,1,,,,,,,,,,,,,,,,,,,,,,,
153027,001,2022-11-21_24h54.46.886,Info_measure_main_exp,2022.2.2,Win32,165.0709805,,,,,,,,,,,,,,,,,,masks/mask_002.jpg,,,,,,,,,,,,,,,,,,,,,,,,,,,,,,,,,,,,,,,,,,,0,0,0,1,1,,,,,,,,,,,,,,,,,,,,,,,,,,,,,,,,,,,,,,,,,,,,,,
153027,001,2022-11-21_24h54.46.886,Info_measure_main_exp,2022.2.2,Win32,165.0709805,,,,,,,,,,,,,,,,,,masks/mask_004.jpg,,,,,,,,,,,,,,,,,,,,,,,,,,,,,,,,,,,,,,,,,,,0,1,1,3,1,,,,,,,,,,,,,,,,,,,,,,,,,,,,,,,,,,,,,,,,,,,,,,
153027,001,2022-11-21_24h54.46.886,Info_measure_main_exp,2022.2.2,Win32,165.0709805,,,,,,,,,,,,,,,,,,masks/mask_003.jpg,,,,,,,,,,,,,,,,,,,,,,,,,,,,,,,,,,,,,,,,,,,0,2,2,2,1,,,,,,,,,,,,,,,,,,,,,,,,,,,,,,,,,,,,,,,,,,,,,,
153027,001,2022-11-21_24h54.46.886,Info_measure_main_exp,2022.2.2,Win32,165.0709805,,,,,,,,,,,,,,,,,,masks/mask_001.jpg,,,,,,,,,,,,,,,,,,,,,,,,,,,,,,,,,,,,,,,,,,,0,3,3,0,1,,,,,,,,,,,,,,,,,,,,,,,,,,,,,,,,,,,,,,,,,,,,,,
153027,001,2022-11-21_24h54.46.886,Info_measure_main_exp,2022.2.2,Win32,165.0709805,,,,,,,,,,,,,,,,,,masks/mask_005.jpg,,,,,,,,,,,,,,,,,,,,,,,,,,,,,,,,,,,,,,,,,,,0,4,4,4,1,,,,,,,,,,,,,,,,,,,,,,,,,,,,,,,,,,,,,,,,,,,,,,
153027,001,2022-11-21_24h54.46.886,Info_measure_main_exp,2022.2.2,Win32,165.0709805,,,,,,,,,,,,,,,,,,masks/mask_004.jpg,,,,,,,,,,,,,,,,,,,,,,,,,,,,,,,,,,,,,,,,,,,,,,,,0,0,0,3,1,,,,,,,,,,,,,,,,,,,,,,,,,,,,,,,,,,,,,,,,,
153027,001,2022-11-21_24h54.46.886,Info_measure_main_exp,2022.2.2,Win32,165.0709805,,,,,,,,,,,,,,,,,,masks/mask_005.jpg,,,,,,,,,,,,,,,,,,,,,,,,,,,,,,,,,,,,,,,,,,,,,,,,0,1,1,4,1,,,,,,,,,,,,,,,,,,,,,,,,,,,,,,,,,,,,,,,,,
153027,001,2022-11-21_24h54.46.886,Info_measure_main_exp,2022.2.2,Win32,165.0709805,,,,,,,,,,,,,,,,,,masks/mask_002.jpg,,,,,,,,,,,,,,,,,,,,,,,,,,,,,,,,,,,,,,,,,,,,,,,,0,2,2,1,1,,,,,,,,,,,,,,,,,,,,,,,,,,,,,,,,,,,,,,,,,
153027,001,2022-11-21_24h54.46.886,Info_measure_main_exp,2022.2.2,Win32,165.0709805,,,,,,,,,,,,,,,,,,masks/mask_003.jpg,,,,,,,,,,,,,,,,,,,,,,,,,,,,,,,,,,,,,,,,,,,,,,,,0,3,3,2,1,,,,,,,,,,,,,,,,,,,,,,,,,,,,,,,,,,,,,,,,,
153027,001,2022-11-21_24h54.46.886,Info_measure_main_exp,2022.2.2,Win32,165.0709805,,,,,,,,,,,,,,,,,,masks/mask_001.jpg,,,,,,,,,,,,,,,,,,,,,,,,,,,,,,,,,,,,,,,,,,,,,,,,0,4,4,0,1,,,,,,,,,,,,,,,,,,,,,,,,,,,,,,,,,,,,,,,,,
153027,001,2022-11-21_24h54.46.886,Info_measure_main_exp,2022.2.2,Win32,165.0709805,,,,,,,,,,,,,,,,,,,,,,,,,,,,,,4,0.5459,1,,,,,,,,,,,,0,131,5,5,2298,1986,absent_patch/patch0002298.jpg,absent_patch/patch0001986.jpg,,,,,,,,,,,,,,,,,,,,0.04375,-0.090277778,1,0,0,response3disk,17,0.000694444,0.002083333,1,0,0,center_square,0,16,16,32,1,,,,,,,,,,,,,,,,,,,,,,,
153027,001,2022-11-21_24h54.46.886,Info_measure_main_exp,2022.2.2,Win32,165.0709805,,,,,,,,,,,,,,,,,,masks/mask_001.jpg,,,,,,,,,,,,,,,,,,,,,,,,,,,,,,,,,,,,,,,,,,,0,0,0,0,1,,,,,,,,,,,,,,,,,,,,,,,,,,,,,,,,,,,,,,,,,,,,,,
153027,001,2022-11-21_24h54.46.886,Info_measure_main_exp,2022.2.2,Win32,165.0709805,,,,,,,,,,,,,,,,,,masks/mask_002.jpg,,,,,,,,,,,,,,,,,,,,,,,,,,,,,,,,,,,,,,,,,,,0,1,1,1,1,,,,,,,,,,,,,,,,,,,,,,,,,,,,,,,,,,,,,,,,,,,,,,
153027,001,2022-11-21_24h54.46.886,Info_measure_main_exp,2022.2.2,Win32,165.0709805,,,,,,,,,,,,,,,,,,masks/mask_003.jpg,,,,,,,,,,,,,,,,,,,,,,,,,,,,,,,,,,,,,,,,,,,0,2,2,2,1,,,,,,,,,,,,,,,,,,,,,,,,,,,,,,,,,,,,,,,,,,,,,,
153027,001,2022-11-21_24h54.46.886,Info_measure_main_exp,2022.2.2,Win32,165.0709805,,,,,,,,,,,,,,,,,,masks/mask_005.jpg,,,,,,,,,,,,,,,,,,,,,,,,,,,,,,,,,,,,,,,,,,,0,3,3,4,1,,,,,,,,,,,,,,,,,,,,,,,,,,,,,,,,,,,,,,,,,,,,,,
153027,001,2022-11-21_24h54.46.886,Info_measure_main_exp,2022.2.2,Win32,165.0709805,,,,,,,,,,,,,,,,,,masks/mask_004.jpg,,,,,,,,,,,,,,,,,,,,,,,,,,,,,,,,,,,,,,,,,,,0,4,4,3,1,,,,,,,,,,,,,,,,,,,,,,,,,,,,,,,,,,,,,,,,,,,,,,
153027,001,2022-11-21_24h54.46.886,Info_measure_main_exp,2022.2.2,Win32,165.0709805,,,,,,,,,,,,,,,,,,masks/mask_005.jpg,,,,,,,,,,,,,,,,,,,,,,,,,,,,,,,,,,,,,,,,,,,,,,,,0,0,0,4,1,,,,,,,,,,,,,,,,,,,,,,,,,,,,,,,,,,,,,,,,,
153027,001,2022-11-21_24h54.46.886,Info_measure_main_exp,2022.2.2,Win32,165.0709805,,,,,,,,,,,,,,,,,,masks/mask_001.jpg,,,,,,,,,,,,,,,,,,,,,,,,,,,,,,,,,,,,,,,,,,,,,,,,0,1,1,0,1,,,,,,,,,,,,,,,,,,,,,,,,,,,,,,,,,,,,,,,,,
153027,001,2022-11-21_24h54.46.886,Info_measure_main_exp,2022.2.2,Win32,165.0709805,,,,,,,,,,,,,,,,,,masks/mask_003.jpg,,,,,,,,,,,,,,,,,,,,,,,,,,,,,,,,,,,,,,,,,,,,,,,,0,2,2,2,1,,,,,,,,,,,,,,,,,,,,,,,,,,,,,,,,,,,,,,,,,
153027,001,2022-11-21_24h54.46.886,Info_measure_main_exp,2022.2.2,Win32,165.0709805,,,,,,,,,,,,,,,,,,masks/mask_002.jpg,,,,,,,,,,,,,,,,,,,,,,,,,,,,,,,,,,,,,,,,,,,,,,,,0,3,3,1,1,,,,,,,,,,,,,,,,,,,,,,,,,,,,,,,,,,,,,,,,,
153027,001,2022-11-21_24h54.46.886,Info_measure_main_exp,2022.2.2,Win32,165.0709805,,,,,,,,,,,,,,,,,,masks/mask_004.jpg,,,,,,,,,,,,,,,,,,,,,,,,,,,,,,,,,,,,,,,,,,,,,,,,0,4,4,3,1,,,,,,,,,,,,,,,,,,,,,,,,,,,,,,,,,,,,,,,,,
153027,001,2022-11-21_24h54.46.886,Info_measure_main_exp,2022.2.2,Win32,165.0709805,,,,,,,,,,,,,,,,,,,,,,,,,,,,,,2,0.8734,1,,,,,,,,,,,,0,131,5,5,2214,2142,absent_patch/patch0002214.jpg,absent_patch/patch0002142.jpg,,,,,,,,,,,,,,,,,,,,-0.094444444,-0.036805556,1,0,0,response5disk,18,0.001388889,0.004166667,1,0,0,center_square,0,17,17,102,1,,,,,,,,,,,,,,,,,,,,,,,
153027,001,2022-11-21_24h54.46.886,Info_measure_main_exp,2022.2.2,Win32,165.0709805,,,,,,,,,,,,,,,,,,masks/mask_003.jpg,,,,,,,,,,,,,,,,,,,,,,,,,,,,,,,,,,,,,,,,,,,0,0,0,2,1,,,,,,,,,,,,,,,,,,,,,,,,,,,,,,,,,,,,,,,,,,,,,,
153027,001,2022-11-21_24h54.46.886,Info_measure_main_exp,2022.2.2,Win32,165.0709805,,,,,,,,,,,,,,,,,,masks/mask_001.jpg,,,,,,,,,,,,,,,,,,,,,,,,,,,,,,,,,,,,,,,,,,,0,1,1,0,1,,,,,,,,,,,,,,,,,,,,,,,,,,,,,,,,,,,,,,,,,,,,,,
153027,001,2022-11-21_24h54.46.886,Info_measure_main_exp,2022.2.2,Win32,165.0709805,,,,,,,,,,,,,,,,,,masks/mask_004.jpg,,,,,,,,,,,,,,,,,,,,,,,,,,,,,,,,,,,,,,,,,,,0,2,2,3,1,,,,,,,,,,,,,,,,,,,,,,,,,,,,,,,,,,,,,,,,,,,,,,
153027,001,2022-11-21_24h54.46.886,Info_measure_main_exp,2022.2.2,Win32,165.0709805,,,,,,,,,,,,,,,,,,masks/mask_002.jpg,,,,,,,,,,,,,,,,,,,,,,,,,,,,,,,,,,,,,,,,,,,0,3,3,1,1,,,,,,,,,,,,,,,,,,,,,,,,,,,,,,,,,,,,,,,,,,,,,,
153027,001,2022-11-21_24h54.46.886,Info_measure_main_exp,2022.2.2,Win32,165.0709805,,,,,,,,,,,,,,,,,,masks/mask_005.jpg,,,,,,,,,,,,,,,,,,,,,,,,,,,,,,,,,,,,,,,,,,,0,4,4,4,1,,,,,,,,,,,,,,,,,,,,,,,,,,,,,,,,,,,,,,,,,,,,,,
153027,001,2022-11-21_24h54.46.886,Info_measure_main_exp,2022.2.2,Win32,165.0709805,,,,,,,,,,,,,,,,,,masks/mask_004.jpg,,,,,,,,,,,,,,,,,,,,,,,,,,,,,,,,,,,,,,,,,,,,,,,,0,0,0,3,1,,,,,,,,,,,,,,,,,,,,,,,,,,,,,,,,,,,,,,,,,
153027,001,2022-11-21_24h54.46.886,Info_measure_main_exp,2022.2.2,Win32,165.0709805,,,,,,,,,,,,,,,,,,masks/mask_005.jpg,,,,,,,,,,,,,,,,,,,,,,,,,,,,,,,,,,,,,,,,,,,,,,,,0,1,1,4,1,,,,,,,,,,,,,,,,,,,,,,,,,,,,,,,,,,,,,,,,,
153027,001,2022-11-21_24h54.46.886,Info_measure_main_exp,2022.2.2,Win32,165.0709805,,,,,,,,,,,,,,,,,,masks/mask_001.jpg,,,,,,,,,,,,,,,,,,,,,,,,,,,,,,,,,,,,,,,,,,,,,,,,0,2,2,0,1,,,,,,,,,,,,,,,,,,,,,,,,,,,,,,,,,,,,,,,,,
153027,001,2022-11-21_24h54.46.886,Info_measure_main_exp,2022.2.2,Win32,165.0709805,,,,,,,,,,,,,,,,,,masks/mask_002.jpg,,,,,,,,,,,,,,,,,,,,,,,,,,,,,,,,,,,,,,,,,,,,,,,,0,3,3,1,1,,,,,,,,,,,,,,,,,,,,,,,,,,,,,,,,,,,,,,,,,
153027,001,2022-11-21_24h54.46.886,Info_measure_main_exp,2022.2.2,Win32,165.0709805,,,,,,,,,,,,,,,,,,masks/mask_003.jpg,,,,,,,,,,,,,,,,,,,,,,,,,,,,,,,,,,,,,,,,,,,,,,,,0,4,4,2,1,,,,,,,,,,,,,,,,,,,,,,,,,,,,,,,,,,,,,,,,,
153027,001,2022-11-21_24h54.46.886,Info_measure_main_exp,2022.2.2,Win32,165.0709805,,,,,,,,,,,,,,,,,,,,,,,,,,,,,,1,0.8493,1,,,,,,,,,,,,0,131,5,5,1986,2154,absent_patch/patch0001986.jpg,absent_patch/patch0002154.jpg,,,,,,,,,,,,,,,,,,,,-0.094444444,0.038888889,1,0,0,response7disk,19,0,0.005555556,1,0,0,center_square,0,18,18,36,1,,,,,,,,,,,,,,,,,,,,,,,
153027,001,2022-11-21_24h54.46.886,Info_measure_main_exp,2022.2.2,Win32,165.0709805,,,,,,,,,,,,,,,,,,masks/mask_003.jpg,,,,,,,,,,,,,,,,,,,,,,,,,,,,,,,,,,,,,,,,,,,0,0,0,2,1,,,,,,,,,,,,,,,,,,,,,,,,,,,,,,,,,,,,,,,,,,,,,,
153027,001,2022-11-21_24h54.46.886,Info_measure_main_exp,2022.2.2,Win32,165.0709805,,,,,,,,,,,,,,,,,,masks/mask_002.jpg,,,,,,,,,,,,,,,,,,,,,,,,,,,,,,,,,,,,,,,,,,,0,1,1,1,1,,,,,,,,,,,,,,,,,,,,,,,,,,,,,,,,,,,,,,,,,,,,,,
153027,001,2022-11-21_24h54.46.886,Info_measure_main_exp,2022.2.2,Win32,165.0709805,,,,,,,,,,,,,,,,,,masks/mask_001.jpg,,,,,,,,,,,,,,,,,,,,,,,,,,,,,,,,,,,,,,,,,,,0,2,2,0,1,,,,,,,,,,,,,,,,,,,,,,,,,,,,,,,,,,,,,,,,,,,,,,
153027,001,2022-11-21_24h54.46.886,Info_measure_main_exp,2022.2.2,Win32,165.0709805,,,,,,,,,,,,,,,,,,masks/mask_004.jpg,,,,,,,,,,,,,,,,,,,,,,,,,,,,,,,,,,,,,,,,,,,0,3,3,3,1,,,,,,,,,,,,,,,,,,,,,,,,,,,,,,,,,,,,,,,,,,,,,,
153027,001,2022-11-21_24h54.46.886,Info_measure_main_exp,2022.2.2,Win32,165.0709805,,,,,,,,,,,,,,,,,,masks/mask_005.jpg,,,,,,,,,,,,,,,,,,,,,,,,,,,,,,,,,,,,,,,,,,,0,4,4,4,1,,,,,,,,,,,,,,,,,,,,,,,,,,,,,,,,,,,,,,,,,,,,,,
153027,001,2022-11-21_24h54.46.886,Info_measure_main_exp,2022.2.2,Win32,165.0709805,,,,,,,,,,,,,,,,,,masks/mask_002.jpg,,,,,,,,,,,,,,,,,,,,,,,,,,,,,,,,,,,,,,,,,,,,,,,,0,0,0,1,1,,,,,,,,,,,,,,,,,,,,,,,,,,,,,,,,,,,,,,,,,
153027,001,2022-11-21_24h54.46.886,Info_measure_main_exp,2022.2.2,Win32,165.0709805,,,,,,,,,,,,,,,,,,masks/mask_001.jpg,,,,,,,,,,,,,,,,,,,,,,,,,,,,,,,,,,,,,,,,,,,,,,,,0,1,1,0,1,,,,,,,,,,,,,,,,,,,,,,,,,,,,,,,,,,,,,,,,,
153027,001,2022-11-21_24h54.46.886,Info_measure_main_exp,2022.2.2,Win32,165.0709805,,,,,,,,,,,,,,,,,,masks/mask_003.jpg,,,,,,,,,,,,,,,,,,,,,,,,,,,,,,,,,,,,,,,,,,,,,,,,0,2,2,2,1,,,,,,,,,,,,,,,,,,,,,,,,,,,,,,,,,,,,,,,,,
153027,001,2022-11-21_24h54.46.886,Info_measure_main_exp,2022.2.2,Win32,165.0709805,,,,,,,,,,,,,,,,,,masks/mask_004.jpg,,,,,,,,,,,,,,,,,,,,,,,,,,,,,,,,,,,,,,,,,,,,,,,,0,3,3,3,1,,,,,,,,,,,,,,,,,,,,,,,,,,,,,,,,,,,,,,,,,
153027,001,2022-11-21_24h54.46.886,Info_measure_main_exp,2022.2.2,Win32,165.0709805,,,,,,,,,,,,,,,,,,masks/mask_005.jpg,,,,,,,,,,,,,,,,,,,,,,,,,,,,,,,,,,,,,,,,,,,,,,,,0,4,4,4,1,,,,,,,,,,,,,,,,,,,,,,,,,,,,,,,,,,,,,,,,,
153027,001,2022-11-21_24h54.46.886,Info_measure_main_exp,2022.2.2,Win32,165.0709805,,,,,,,,,,,,,,,,,,,,,,,,,,,,,,6,1.8258,1,,,,,,,,,,,,0,131,5,5,1974,2166,absent_patch/patch0001974.jpg,absent_patch/patch0002166.jpg,,,,,,,,,,,,,,,,,,,,0.106944444,0.03125,1,0,0,response1disk,20,0.0125,-0.003472222,1,0,0,center_square,0,19,19,77,1,,,,,,,,,,,,,,,,,,,,,,,
153027,001,2022-11-21_24h54.46.886,Info_measure_main_exp,2022.2.2,Win32,165.0709805,,,,,,,,,,,,,,,,,,masks/mask_003.jpg,,,,,,,,,,,,,,,,,,,,,,,,,,,,,,,,,,,,,,,,,,,0,0,0,2,1,,,,,,,,,,,,,,,,,,,,,,,,,,,,,,,,,,,,,,,,,,,,,,
153027,001,2022-11-21_24h54.46.886,Info_measure_main_exp,2022.2.2,Win32,165.0709805,,,,,,,,,,,,,,,,,,masks/mask_004.jpg,,,,,,,,,,,,,,,,,,,,,,,,,,,,,,,,,,,,,,,,,,,0,1,1,3,1,,,,,,,,,,,,,,,,,,,,,,,,,,,,,,,,,,,,,,,,,,,,,,
153027,001,2022-11-21_24h54.46.886,Info_measure_main_exp,2022.2.2,Win32,165.0709805,,,,,,,,,,,,,,,,,,masks/mask_002.jpg,,,,,,,,,,,,,,,,,,,,,,,,,,,,,,,,,,,,,,,,,,,0,2,2,1,1,,,,,,,,,,,,,,,,,,,,,,,,,,,,,,,,,,,,,,,,,,,,,,
153027,001,2022-11-21_24h54.46.886,Info_measure_main_exp,2022.2.2,Win32,165.0709805,,,,,,,,,,,,,,,,,,masks/mask_005.jpg,,,,,,,,,,,,,,,,,,,,,,,,,,,,,,,,,,,,,,,,,,,0,3,3,4,1,,,,,,,,,,,,,,,,,,,,,,,,,,,,,,,,,,,,,,,,,,,,,,
153027,001,2022-11-21_24h54.46.886,Info_measure_main_exp,2022.2.2,Win32,165.0709805,,,,,,,,,,,,,,,,,,masks/mask_001.jpg,,,,,,,,,,,,,,,,,,,,,,,,,,,,,,,,,,,,,,,,,,,0,4,4,0,1,,,,,,,,,,,,,,,,,,,,,,,,,,,,,,,,,,,,,,,,,,,,,,
153027,001,2022-11-21_24h54.46.886,Info_measure_main_exp,2022.2.2,Win32,165.0709805,,,,,,,,,,,,,,,,,,masks/mask_002.jpg,,,,,,,,,,,,,,,,,,,,,,,,,,,,,,,,,,,,,,,,,,,,,,,,0,0,0,1,1,,,,,,,,,,,,,,,,,,,,,,,,,,,,,,,,,,,,,,,,,
153027,001,2022-11-21_24h54.46.886,Info_measure_main_exp,2022.2.2,Win32,165.0709805,,,,,,,,,,,,,,,,,,masks/mask_004.jpg,,,,,,,,,,,,,,,,,,,,,,,,,,,,,,,,,,,,,,,,,,,,,,,,0,1,1,3,1,,,,,,,,,,,,,,,,,,,,,,,,,,,,,,,,,,,,,,,,,
153027,001,2022-11-21_24h54.46.886,Info_measure_main_exp,2022.2.2,Win32,165.0709805,,,,,,,,,,,,,,,,,,masks/mask_005.jpg,,,,,,,,,,,,,,,,,,,,,,,,,,,,,,,,,,,,,,,,,,,,,,,,0,2,2,4,1,,,,,,,,,,,,,,,,,,,,,,,,,,,,,,,,,,,,,,,,,
153027,001,2022-11-21_24h54.46.886,Info_measure_main_exp,2022.2.2,Win32,165.0709805,,,,,,,,,,,,,,,,,,masks/mask_001.jpg,,,,,,,,,,,,,,,,,,,,,,,,,,,,,,,,,,,,,,,,,,,,,,,,0,3,3,0,1,,,,,,,,,,,,,,,,,,,,,,,,,,,,,,,,,,,,,,,,,
153027,001,2022-11-21_24h54.46.886,Info_measure_main_exp,2022.2.2,Win32,165.0709805,,,,,,,,,,,,,,,,,,masks/mask_003.jpg,,,,,,,,,,,,,,,,,,,,,,,,,,,,,,,,,,,,,,,,,,,,,,,,0,4,4,2,1,,,,,,,,,,,,,,,,,,,,,,,,,,,,,,,,,,,,,,,,,
153027,001,2022-11-21_24h54.46.886,Info_measure_main_exp,2022.2.2,Win32,165.0709805,,,,,,,,,,,,,,,,,,,,,,,,,,,,,,3,1.098,1,,,,,,,,,,,,0,131,5,5,2154,2214,absent_patch/patch0002154.jpg,absent_patch/patch0002214.jpg,,,,,,,,,,,,,,,,,,,,-0.017361111,-0.105555556,1,0,0,response5disk,21,-0.001388889,-0.004861111,1,0,0,center_square,0,20,20,67,1,,,,,,,,,,,,,,,,,,,,,,,
153027,001,2022-11-21_24h54.46.886,Info_measure_main_exp,2022.2.2,Win32,165.0709805,,,,,,,,,,,,,,,,,,masks/mask_002.jpg,,,,,,,,,,,,,,,,,,,,,,,,,,,,,,,,,,,,,,,,,,,0,0,0,1,1,,,,,,,,,,,,,,,,,,,,,,,,,,,,,,,,,,,,,,,,,,,,,,
153027,001,2022-11-21_24h54.46.886,Info_measure_main_exp,2022.2.2,Win32,165.0709805,,,,,,,,,,,,,,,,,,masks/mask_005.jpg,,,,,,,,,,,,,,,,,,,,,,,,,,,,,,,,,,,,,,,,,,,0,1,1,4,1,,,,,,,,,,,,,,,,,,,,,,,,,,,,,,,,,,,,,,,,,,,,,,
153027,001,2022-11-21_24h54.46.886,Info_measure_main_exp,2022.2.2,Win32,165.0709805,,,,,,,,,,,,,,,,,,masks/mask_001.jpg,,,,,,,,,,,,,,,,,,,,,,,,,,,,,,,,,,,,,,,,,,,0,2,2,0,1,,,,,,,,,,,,,,,,,,,,,,,,,,,,,,,,,,,,,,,,,,,,,,
153027,001,2022-11-21_24h54.46.886,Info_measure_main_exp,2022.2.2,Win32,165.0709805,,,,,,,,,,,,,,,,,,masks/mask_004.jpg,,,,,,,,,,,,,,,,,,,,,,,,,,,,,,,,,,,,,,,,,,,0,3,3,3,1,,,,,,,,,,,,,,,,,,,,,,,,,,,,,,,,,,,,,,,,,,,,,,
153027,001,2022-11-21_24h54.46.886,Info_measure_main_exp,2022.2.2,Win32,165.0709805,,,,,,,,,,,,,,,,,,masks/mask_003.jpg,,,,,,,,,,,,,,,,,,,,,,,,,,,,,,,,,,,,,,,,,,,0,4,4,2,1,,,,,,,,,,,,,,,,,,,,,,,,,,,,,,,,,,,,,,,,,,,,,,
153027,001,2022-11-21_24h54.46.886,Info_measure_main_exp,2022.2.2,Win32,165.0709805,,,,,,,,,,,,,,,,,,masks/mask_003.jpg,,,,,,,,,,,,,,,,,,,,,,,,,,,,,,,,,,,,,,,,,,,,,,,,0,0,0,2,1,,,,,,,,,,,,,,,,,,,,,,,,,,,,,,,,,,,,,,,,,
153027,001,2022-11-21_24h54.46.886,Info_measure_main_exp,2022.2.2,Win32,165.0709805,,,,,,,,,,,,,,,,,,masks/mask_002.jpg,,,,,,,,,,,,,,,,,,,,,,,,,,,,,,,,,,,,,,,,,,,,,,,,0,1,1,1,1,,,,,,,,,,,,,,,,,,,,,,,,,,,,,,,,,,,,,,,,,
153027,001,2022-11-21_24h54.46.886,Info_measure_main_exp,2022.2.2,Win32,165.0709805,,,,,,,,,,,,,,,,,,masks/mask_001.jpg,,,,,,,,,,,,,,,,,,,,,,,,,,,,,,,,,,,,,,,,,,,,,,,,0,2,2,0,1,,,,,,,,,,,,,,,,,,,,,,,,,,,,,,,,,,,,,,,,,
153027,001,2022-11-21_24h54.46.886,Info_measure_main_exp,2022.2.2,Win32,165.0709805,,,,,,,,,,,,,,,,,,masks/mask_005.jpg,,,,,,,,,,,,,,,,,,,,,,,,,,,,,,,,,,,,,,,,,,,,,,,,0,3,3,4,1,,,,,,,,,,,,,,,,,,,,,,,,,,,,,,,,,,,,,,,,,
153027,001,2022-11-21_24h54.46.886,Info_measure_main_exp,2022.2.2,Win32,165.0709805,,,,,,,,,,,,,,,,,,masks/mask_004.jpg,,,,,,,,,,,,,,,,,,,,,,,,,,,,,,,,,,,,,,,,,,,,,,,,0,4,4,3,1,,,,,,,,,,,,,,,,,,,,,,,,,,,,,,,,,,,,,,,,,
153027,001,2022-11-21_24h54.46.886,Info_measure_main_exp,2022.2.2,Win32,165.0709805,,,,,,,,,,,,,,,,,,,,,,,,,,,,,,2,0.9644,1,,,,,,,,,,,,0,131,5,5,2298,2190,absent_patch/patch0002298.jpg,absent_patch/patch0002190.jpg,,,,,,,,,,,,,,,,,,,,-0.097916667,-0.017361111,1,0,0,response5disk,22,-0.013888889,0.006944444,1,0,0,center_square,0,21,21,20,1,,,,,,,,,,,,,,,,,,,,,,,
153027,001,2022-11-21_24h54.46.886,Info_measure_main_exp,2022.2.2,Win32,165.0709805,,,,,,,,,,,,,,,,,,masks/mask_005.jpg,,,,,,,,,,,,,,,,,,,,,,,,,,,,,,,,,,,,,,,,,,,0,0,0,4,1,,,,,,,,,,,,,,,,,,,,,,,,,,,,,,,,,,,,,,,,,,,,,,
153027,001,2022-11-21_24h54.46.886,Info_measure_main_exp,2022.2.2,Win32,165.0709805,,,,,,,,,,,,,,,,,,masks/mask_001.jpg,,,,,,,,,,,,,,,,,,,,,,,,,,,,,,,,,,,,,,,,,,,0,1,1,0,1,,,,,,,,,,,,,,,,,,,,,,,,,,,,,,,,,,,,,,,,,,,,,,
153027,001,2022-11-21_24h54.46.886,Info_measure_main_exp,2022.2.2,Win32,165.0709805,,,,,,,,,,,,,,,,,,masks/mask_003.jpg,,,,,,,,,,,,,,,,,,,,,,,,,,,,,,,,,,,,,,,,,,,0,2,2,2,1,,,,,,,,,,,,,,,,,,,,,,,,,,,,,,,,,,,,,,,,,,,,,,
153027,001,2022-11-21_24h54.46.886,Info_measure_main_exp,2022.2.2,Win32,165.0709805,,,,,,,,,,,,,,,,,,masks/mask_002.jpg,,,,,,,,,,,,,,,,,,,,,,,,,,,,,,,,,,,,,,,,,,,0,3,3,1,1,,,,,,,,,,,,,,,,,,,,,,,,,,,,,,,,,,,,,,,,,,,,,,
153027,001,2022-11-21_24h54.46.886,Info_measure_main_exp,2022.2.2,Win32,165.0709805,,,,,,,,,,,,,,,,,,masks/mask_004.jpg,,,,,,,,,,,,,,,,,,,,,,,,,,,,,,,,,,,,,,,,,,,0,4,4,3,1,,,,,,,,,,,,,,,,,,,,,,,,,,,,,,,,,,,,,,,,,,,,,,
153027,001,2022-11-21_24h54.46.886,Info_measure_main_exp,2022.2.2,Win32,165.0709805,,,,,,,,,,,,,,,,,,masks/mask_001.jpg,,,,,,,,,,,,,,,,,,,,,,,,,,,,,,,,,,,,,,,,,,,,,,,,0,0,0,0,1,,,,,,,,,,,,,,,,,,,,,,,,,,,,,,,,,,,,,,,,,
153027,001,2022-11-21_24h54.46.886,Info_measure_main_exp,2022.2.2,Win32,165.0709805,,,,,,,,,,,,,,,,,,masks/mask_002.jpg,,,,,,,,,,,,,,,,,,,,,,,,,,,,,,,,,,,,,,,,,,,,,,,,0,1,1,1,1,,,,,,,,,,,,,,,,,,,,,,,,,,,,,,,,,,,,,,,,,
153027,001,2022-11-21_24h54.46.886,Info_measure_main_exp,2022.2.2,Win32,165.0709805,,,,,,,,,,,,,,,,,,masks/mask_004.jpg,,,,,,,,,,,,,,,,,,,,,,,,,,,,,,,,,,,,,,,,,,,,,,,,0,2,2,3,1,,,,,,,,,,,,,,,,,,,,,,,,,,,,,,,,,,,,,,,,,
153027,001,2022-11-21_24h54.46.886,Info_measure_main_exp,2022.2.2,Win32,165.0709805,,,,,,,,,,,,,,,,,,masks/mask_005.jpg,,,,,,,,,,,,,,,,,,,,,,,,,,,,,,,,,,,,,,,,,,,,,,,,0,3,3,4,1,,,,,,,,,,,,,,,,,,,,,,,,,,,,,,,,,,,,,,,,,
153027,001,2022-11-21_24h54.46.886,Info_measure_main_exp,2022.2.2,Win32,165.0709805,,,,,,,,,,,,,,,,,,masks/mask_003.jpg,,,,,,,,,,,,,,,,,,,,,,,,,,,,,,,,,,,,,,,,,,,,,,,,0,4,4,2,1,,,,,,,,,,,,,,,,,,,,,,,,,,,,,,,,,,,,,,,,,
153027,001,2022-11-21_24h54.46.886,Info_measure_main_exp,2022.2.2,Win32,165.0709805,,,,,,,,,,,,,,,,,,,,,,,,,,,,,,0,1.0736,1,,,,,,,,,,,,0,131,5,5,2274,2274,absent_patch/patch0002274.jpg,absent_patch/patch0002274.jpg,,,,,,,,,,,,,,,,,,,,-0.084027778,0.125694444,1,0,0,response7disk,23,-0.000694444,0.005555556,1,0,0,center_square,0,22,22,114,1,,,,,,,,,,,,,,,,,,,,,,,
153027,001,2022-11-21_24h54.46.886,Info_measure_main_exp,2022.2.2,Win32,165.0709805,,,,,,,,,,,,,,,,,,masks/mask_001.jpg,,,,,,,,,,,,,,,,,,,,,,,,,,,,,,,,,,,,,,,,,,,0,0,0,0,1,,,,,,,,,,,,,,,,,,,,,,,,,,,,,,,,,,,,,,,,,,,,,,
153027,001,2022-11-21_24h54.46.886,Info_measure_main_exp,2022.2.2,Win32,165.0709805,,,,,,,,,,,,,,,,,,masks/mask_002.jpg,,,,,,,,,,,,,,,,,,,,,,,,,,,,,,,,,,,,,,,,,,,0,1,1,1,1,,,,,,,,,,,,,,,,,,,,,,,,,,,,,,,,,,,,,,,,,,,,,,
153027,001,2022-11-21_24h54.46.886,Info_measure_main_exp,2022.2.2,Win32,165.0709805,,,,,,,,,,,,,,,,,,masks/mask_005.jpg,,,,,,,,,,,,,,,,,,,,,,,,,,,,,,,,,,,,,,,,,,,0,2,2,4,1,,,,,,,,,,,,,,,,,,,,,,,,,,,,,,,,,,,,,,,,,,,,,,
153027,001,2022-11-21_24h54.46.886,Info_measure_main_exp,2022.2.2,Win32,165.0709805,,,,,,,,,,,,,,,,,,masks/mask_004.jpg,,,,,,,,,,,,,,,,,,,,,,,,,,,,,,,,,,,,,,,,,,,0,3,3,3,1,,,,,,,,,,,,,,,,,,,,,,,,,,,,,,,,,,,,,,,,,,,,,,
153027,001,2022-11-21_24h54.46.886,Info_measure_main_exp,2022.2.2,Win32,165.0709805,,,,,,,,,,,,,,,,,,masks/mask_003.jpg,,,,,,,,,,,,,,,,,,,,,,,,,,,,,,,,,,,,,,,,,,,0,4,4,2,1,,,,,,,,,,,,,,,,,,,,,,,,,,,,,,,,,,,,,,,,,,,,,,
153027,001,2022-11-21_24h54.46.886,Info_measure_main_exp,2022.2.2,Win32,165.0709805,,,,,,,,,,,,,,,,,,masks/mask_004.jpg,,,,,,,,,,,,,,,,,,,,,,,,,,,,,,,,,,,,,,,,,,,,,,,,0,0,0,3,1,,,,,,,,,,,,,,,,,,,,,,,,,,,,,,,,,,,,,,,,,
153027,001,2022-11-21_24h54.46.886,Info_measure_main_exp,2022.2.2,Win32,165.0709805,,,,,,,,,,,,,,,,,,masks/mask_001.jpg,,,,,,,,,,,,,,,,,,,,,,,,,,,,,,,,,,,,,,,,,,,,,,,,0,1,1,0,1,,,,,,,,,,,,,,,,,,,,,,,,,,,,,,,,,,,,,,,,,
153027,001,2022-11-21_24h54.46.886,Info_measure_main_exp,2022.2.2,Win32,165.0709805,,,,,,,,,,,,,,,,,,masks/mask_003.jpg,,,,,,,,,,,,,,,,,,,,,,,,,,,,,,,,,,,,,,,,,,,,,,,,0,2,2,2,1,,,,,,,,,,,,,,,,,,,,,,,,,,,,,,,,,,,,,,,,,
153027,001,2022-11-21_24h54.46.886,Info_measure_main_exp,2022.2.2,Win32,165.0709805,,,,,,,,,,,,,,,,,,masks/mask_005.jpg,,,,,,,,,,,,,,,,,,,,,,,,,,,,,,,,,,,,,,,,,,,,,,,,0,3,3,4,1,,,,,,,,,,,,,,,,,,,,,,,,,,,,,,,,,,,,,,,,,
153027,001,2022-11-21_24h54.46.886,Info_measure_main_exp,2022.2.2,Win32,165.0709805,,,,,,,,,,,,,,,,,,masks/mask_002.jpg,,,,,,,,,,,,,,,,,,,,,,,,,,,,,,,,,,,,,,,,,,,,,,,,0,4,4,1,1,,,,,,,,,,,,,,,,,,,,,,,,,,,,,,,,,,,,,,,,,
153027,001,2022-11-21_24h54.46.886,Info_measure_main_exp,2022.2.2,Win32,165.0709805,,,,,,,,,,,,,,,,,,,,,,,,,,,,,,1,2.3233,1,,,,,,,,,,,,0,131,5,5,1974,2298,absent_patch/patch0001974.jpg,absent_patch/patch0002298.jpg,,,,,,,,,,,,,,,,,,,,-0.099305556,0.034027778,1,0,0,response7disk,24,-0.016666667,0.006944444,1,0,0,center_square,0,23,23,6,1,,,,,,,,,,,,,,,,,,,,,,,
153027,001,2022-11-21_24h54.46.886,Info_measure_main_exp,2022.2.2,Win32,165.0709805,,,,,,,,,,,,,,,,,,masks/mask_004.jpg,,,,,,,,,,,,,,,,,,,,,,,,,,,,,,,,,,,,,,,,,,,0,0,0,3,1,,,,,,,,,,,,,,,,,,,,,,,,,,,,,,,,,,,,,,,,,,,,,,
153027,001,2022-11-21_24h54.46.886,Info_measure_main_exp,2022.2.2,Win32,165.0709805,,,,,,,,,,,,,,,,,,masks/mask_003.jpg,,,,,,,,,,,,,,,,,,,,,,,,,,,,,,,,,,,,,,,,,,,0,1,1,2,1,,,,,,,,,,,,,,,,,,,,,,,,,,,,,,,,,,,,,,,,,,,,,,
153027,001,2022-11-21_24h54.46.886,Info_measure_main_exp,2022.2.2,Win32,165.0709805,,,,,,,,,,,,,,,,,,masks/mask_005.jpg,,,,,,,,,,,,,,,,,,,,,,,,,,,,,,,,,,,,,,,,,,,0,2,2,4,1,,,,,,,,,,,,,,,,,,,,,,,,,,,,,,,,,,,,,,,,,,,,,,
153027,001,2022-11-21_24h54.46.886,Info_measure_main_exp,2022.2.2,Win32,165.0709805,,,,,,,,,,,,,,,,,,masks/mask_002.jpg,,,,,,,,,,,,,,,,,,,,,,,,,,,,,,,,,,,,,,,,,,,0,3,3,1,1,,,,,,,,,,,,,,,,,,,,,,,,,,,,,,,,,,,,,,,,,,,,,,
153027,001,2022-11-21_24h54.46.886,Info_measure_main_exp,2022.2.2,Win32,165.0709805,,,,,,,,,,,,,,,,,,masks/mask_001.jpg,,,,,,,,,,,,,,,,,,,,,,,,,,,,,,,,,,,,,,,,,,,0,4,4,0,1,,,,,,,,,,,,,,,,,,,,,,,,,,,,,,,,,,,,,,,,,,,,,,
153027,001,2022-11-21_24h54.46.886,Info_measure_main_exp,2022.2.2,Win32,165.0709805,,,,,,,,,,,,,,,,,,masks/mask_005.jpg,,,,,,,,,,,,,,,,,,,,,,,,,,,,,,,,,,,,,,,,,,,,,,,,0,0,0,4,1,,,,,,,,,,,,,,,,,,,,,,,,,,,,,,,,,,,,,,,,,
153027,001,2022-11-21_24h54.46.886,Info_measure_main_exp,2022.2.2,Win32,165.0709805,,,,,,,,,,,,,,,,,,masks/mask_004.jpg,,,,,,,,,,,,,,,,,,,,,,,,,,,,,,,,,,,,,,,,,,,,,,,,0,1,1,3,1,,,,,,,,,,,,,,,,,,,,,,,,,,,,,,,,,,,,,,,,,
153027,001,2022-11-21_24h54.46.886,Info_measure_main_exp,2022.2.2,Win32,165.0709805,,,,,,,,,,,,,,,,,,masks/mask_002.jpg,,,,,,,,,,,,,,,,,,,,,,,,,,,,,,,,,,,,,,,,,,,,,,,,0,2,2,1,1,,,,,,,,,,,,,,,,,,,,,,,,,,,,,,,,,,,,,,,,,
153027,001,2022-11-21_24h54.46.886,Info_measure_main_exp,2022.2.2,Win32,165.0709805,,,,,,,,,,,,,,,,,,masks/mask_001.jpg,,,,,,,,,,,,,,,,,,,,,,,,,,,,,,,,,,,,,,,,,,,,,,,,0,3,3,0,1,,,,,,,,,,,,,,,,,,,,,,,,,,,,,,,,,,,,,,,,,
153027,001,2022-11-21_24h54.46.886,Info_measure_main_exp,2022.2.2,Win32,165.0709805,,,,,,,,,,,,,,,,,,masks/mask_003.jpg,,,,,,,,,,,,,,,,,,,,,,,,,,,,,,,,,,,,,,,,,,,,,,,,0,4,4,2,1,,,,,,,,,,,,,,,,,,,,,,,,,,,,,,,,,,,,,,,,,
153027,001,2022-11-21_24h54.46.886,Info_measure_main_exp,2022.2.2,Win32,165.0709805,,,,,,,,,,,,,,,,,,,,,,,,,,,,,,1,1.371,1,,,,,,,,,,,,1,131,5,5,1,2154,present_patch/cong_131_5_a.jpg,absent_patch/patch0002154.jpg,,,,,,,,,,,,,,,,,,,,-0.056944444,0.025,1,0,0,response7disk,25,-0.009722222,-0.000694444,1,0,0,center_square,0,24,24,87,1,,,,,,,,,,,,,,,,,,,,,,,
153027,001,2022-11-21_24h54.46.886,Info_measure_main_exp,2022.2.2,Win32,165.0709805,,,,,,,,,,,,,,,,,,masks/mask_001.jpg,,,,,,,,,,,,,,,,,,,,,,,,,,,,,,,,,,,,,,,,,,,0,0,0,0,1,,,,,,,,,,,,,,,,,,,,,,,,,,,,,,,,,,,,,,,,,,,,,,
153027,001,2022-11-21_24h54.46.886,Info_measure_main_exp,2022.2.2,Win32,165.0709805,,,,,,,,,,,,,,,,,,masks/mask_005.jpg,,,,,,,,,,,,,,,,,,,,,,,,,,,,,,,,,,,,,,,,,,,0,1,1,4,1,,,,,,,,,,,,,,,,,,,,,,,,,,,,,,,,,,,,,,,,,,,,,,
153027,001,2022-11-21_24h54.46.886,Info_measure_main_exp,2022.2.2,Win32,165.0709805,,,,,,,,,,,,,,,,,,masks/mask_002.jpg,,,,,,,,,,,,,,,,,,,,,,,,,,,,,,,,,,,,,,,,,,,0,2,2,1,1,,,,,,,,,,,,,,,,,,,,,,,,,,,,,,,,,,,,,,,,,,,,,,
153027,001,2022-11-21_24h54.46.886,Info_measure_main_exp,2022.2.2,Win32,165.0709805,,,,,,,,,,,,,,,,,,masks/mask_003.jpg,,,,,,,,,,,,,,,,,,,,,,,,,,,,,,,,,,,,,,,,,,,0,3,3,2,1,,,,,,,,,,,,,,,,,,,,,,,,,,,,,,,,,,,,,,,,,,,,,,
153027,001,2022-11-21_24h54.46.886,Info_measure_main_exp,2022.2.2,Win32,165.0709805,,,,,,,,,,,,,,,,,,masks/mask_004.jpg,,,,,,,,,,,,,,,,,,,,,,,,,,,,,,,,,,,,,,,,,,,0,4,4,3,1,,,,,,,,,,,,,,,,,,,,,,,,,,,,,,,,,,,,,,,,,,,,,,
153027,001,2022-11-21_24h54.46.886,Info_measure_main_exp,2022.2.2,Win32,165.0709805,,,,,,,,,,,,,,,,,,masks/mask_001.jpg,,,,,,,,,,,,,,,,,,,,,,,,,,,,,,,,,,,,,,,,,,,,,,,,0,0,0,0,1,,,,,,,,,,,,,,,,,,,,,,,,,,,,,,,,,,,,,,,,,
153027,001,2022-11-21_24h54.46.886,Info_measure_main_exp,2022.2.2,Win32,165.0709805,,,,,,,,,,,,,,,,,,masks/mask_003.jpg,,,,,,,,,,,,,,,,,,,,,,,,,,,,,,,,,,,,,,,,,,,,,,,,0,1,1,2,1,,,,,,,,,,,,,,,,,,,,,,,,,,,,,,,,,,,,,,,,,
153027,001,2022-11-21_24h54.46.886,Info_measure_main_exp,2022.2.2,Win32,165.0709805,,,,,,,,,,,,,,,,,,masks/mask_002.jpg,,,,,,,,,,,,,,,,,,,,,,,,,,,,,,,,,,,,,,,,,,,,,,,,0,2,2,1,1,,,,,,,,,,,,,,,,,,,,,,,,,,,,,,,,,,,,,,,,,
153027,001,2022-11-21_24h54.46.886,Info_measure_main_exp,2022.2.2,Win32,165.0709805,,,,,,,,,,,,,,,,,,masks/mask_004.jpg,,,,,,,,,,,,,,,,,,,,,,,,,,,,,,,,,,,,,,,,,,,,,,,,0,3,3,3,1,,,,,,,,,,,,,,,,,,,,,,,,,,,,,,,,,,,,,,,,,
153027,001,2022-11-21_24h54.46.886,Info_measure_main_exp,2022.2.2,Win32,165.0709805,,,,,,,,,,,,,,,,,,masks/mask_005.jpg,,,,,,,,,,,,,,,,,,,,,,,,,,,,,,,,,,,,,,,,,,,,,,,,0,4,4,4,1,,,,,,,,,,,,,,,,,,,,,,,,,,,,,,,,,,,,,,,,,
153027,001,2022-11-21_24h54.46.886,Info_measure_main_exp,2022.2.2,Win32,165.0709805,,,,,,,,,,,,,,,,,,,,,,,,,,,,,,4,0.819,1,,,,,,,,,,,,1,131,5,5,1,2166,present_patch/cong_131_5_a.jpg,absent_patch/patch0002166.jpg,,,,,,,,,,,,,,,,,,,,0.027083333,-0.109722222,1,0,0,response3disk,26,-0.003472222,-0.016666667,1,0,0,center_square,0,25,25,54,1,,,,,,,,,,,,,,,,,,,,,,,
153027,001,2022-11-21_24h54.46.886,Info_measure_main_exp,2022.2.2,Win32,165.0709805,,,,,,,,,,,,,,,,,,masks/mask_005.jpg,,,,,,,,,,,,,,,,,,,,,,,,,,,,,,,,,,,,,,,,,,,0,0,0,4,1,,,,,,,,,,,,,,,,,,,,,,,,,,,,,,,,,,,,,,,,,,,,,,
153027,001,2022-11-21_24h54.46.886,Info_measure_main_exp,2022.2.2,Win32,165.0709805,,,,,,,,,,,,,,,,,,masks/mask_003.jpg,,,,,,,,,,,,,,,,,,,,,,,,,,,,,,,,,,,,,,,,,,,0,1,1,2,1,,,,,,,,,,,,,,,,,,,,,,,,,,,,,,,,,,,,,,,,,,,,,,
153027,001,2022-11-21_24h54.46.886,Info_measure_main_exp,2022.2.2,Win32,165.0709805,,,,,,,,,,,,,,,,,,masks/mask_004.jpg,,,,,,,,,,,,,,,,,,,,,,,,,,,,,,,,,,,,,,,,,,,0,2,2,3,1,,,,,,,,,,,,,,,,,,,,,,,,,,,,,,,,,,,,,,,,,,,,,,
153027,001,2022-11-21_24h54.46.886,Info_measure_main_exp,2022.2.2,Win32,165.0709805,,,,,,,,,,,,,,,,,,masks/mask_001.jpg,,,,,,,,,,,,,,,,,,,,,,,,,,,,,,,,,,,,,,,,,,,0,3,3,0,1,,,,,,,,,,,,,,,,,,,,,,,,,,,,,,,,,,,,,,,,,,,,,,
153027,001,2022-11-21_24h54.46.886,Info_measure_main_exp,2022.2.2,Win32,165.0709805,,,,,,,,,,,,,,,,,,masks/mask_002.jpg,,,,,,,,,,,,,,,,,,,,,,,,,,,,,,,,,,,,,,,,,,,0,4,4,1,1,,,,,,,,,,,,,,,,,,,,,,,,,,,,,,,,,,,,,,,,,,,,,,
153027,001,2022-11-21_24h54.46.886,Info_measure_main_exp,2022.2.2,Win32,165.0709805,,,,,,,,,,,,,,,,,,masks/mask_002.jpg,,,,,,,,,,,,,,,,,,,,,,,,,,,,,,,,,,,,,,,,,,,,,,,,0,0,0,1,1,,,,,,,,,,,,,,,,,,,,,,,,,,,,,,,,,,,,,,,,,
153027,001,2022-11-21_24h54.46.886,Info_measure_main_exp,2022.2.2,Win32,165.0709805,,,,,,,,,,,,,,,,,,masks/mask_003.jpg,,,,,,,,,,,,,,,,,,,,,,,,,,,,,,,,,,,,,,,,,,,,,,,,0,1,1,2,1,,,,,,,,,,,,,,,,,,,,,,,,,,,,,,,,,,,,,,,,,
153027,001,2022-11-21_24h54.46.886,Info_measure_main_exp,2022.2.2,Win32,165.0709805,,,,,,,,,,,,,,,,,,masks/mask_004.jpg,,,,,,,,,,,,,,,,,,,,,,,,,,,,,,,,,,,,,,,,,,,,,,,,0,2,2,3,1,,,,,,,,,,,,,,,,,,,,,,,,,,,,,,,,,,,,,,,,,
153027,001,2022-11-21_24h54.46.886,Info_measure_main_exp,2022.2.2,Win32,165.0709805,,,,,,,,,,,,,,,,,,masks/mask_001.jpg,,,,,,,,,,,,,,,,,,,,,,,,,,,,,,,,,,,,,,,,,,,,,,,,0,3,3,0,1,,,,,,,,,,,,,,,,,,,,,,,,,,,,,,,,,,,,,,,,,
153027,001,2022-11-21_24h54.46.886,Info_measure_main_exp,2022.2.2,Win32,165.0709805,,,,,,,,,,,,,,,,,,masks/mask_005.jpg,,,,,,,,,,,,,,,,,,,,,,,,,,,,,,,,,,,,,,,,,,,,,,,,0,4,4,4,1,,,,,,,,,,,,,,,,,,,,,,,,,,,,,,,,,,,,,,,,,
153027,001,2022-11-21_24h54.46.886,Info_measure_main_exp,2022.2.2,Win32,165.0709805,,,,,,,,,,,,,,,,,,,,,,,,,,,,,,0,0.5641,1,,,,,,,,,,,,0,131,5,5,2214,2214,absent_patch/patch0002214.jpg,absent_patch/patch0002214.jpg,,,,,,,,,,,,,,,,,,,,-0.072222222,0.153472222,1,0,0,response7disk,27,-0.005555556,0.002777778,1,0,0,center_square,0,26,26,115,1,,,,,,,,,,,,,,,,,,,,,,,
153027,001,2022-11-21_24h54.46.886,Info_measure_main_exp,2022.2.2,Win32,165.0709805,,,,,,,,,,,,,,,,,,masks/mask_003.jpg,,,,,,,,,,,,,,,,,,,,,,,,,,,,,,,,,,,,,,,,,,,0,0,0,2,1,,,,,,,,,,,,,,,,,,,,,,,,,,,,,,,,,,,,,,,,,,,,,,
153027,001,2022-11-21_24h54.46.886,Info_measure_main_exp,2022.2.2,Win32,165.0709805,,,,,,,,,,,,,,,,,,masks/mask_005.jpg,,,,,,,,,,,,,,,,,,,,,,,,,,,,,,,,,,,,,,,,,,,0,1,1,4,1,,,,,,,,,,,,,,,,,,,,,,,,,,,,,,,,,,,,,,,,,,,,,,
153027,001,2022-11-21_24h54.46.886,Info_measure_main_exp,2022.2.2,Win32,165.0709805,,,,,,,,,,,,,,,,,,masks/mask_004.jpg,,,,,,,,,,,,,,,,,,,,,,,,,,,,,,,,,,,,,,,,,,,0,2,2,3,1,,,,,,,,,,,,,,,,,,,,,,,,,,,,,,,,,,,,,,,,,,,,,,
153027,001,2022-11-21_24h54.46.886,Info_measure_main_exp,2022.2.2,Win32,165.0709805,,,,,,,,,,,,,,,,,,masks/mask_001.jpg,,,,,,,,,,,,,,,,,,,,,,,,,,,,,,,,,,,,,,,,,,,0,3,3,0,1,,,,,,,,,,,,,,,,,,,,,,,,,,,,,,,,,,,,,,,,,,,,,,
153027,001,2022-11-21_24h54.46.886,Info_measure_main_exp,2022.2.2,Win32,165.0709805,,,,,,,,,,,,,,,,,,masks/mask_002.jpg,,,,,,,,,,,,,,,,,,,,,,,,,,,,,,,,,,,,,,,,,,,0,4,4,1,1,,,,,,,,,,,,,,,,,,,,,,,,,,,,,,,,,,,,,,,,,,,,,,
153027,001,2022-11-21_24h54.46.886,Info_measure_main_exp,2022.2.2,Win32,165.0709805,,,,,,,,,,,,,,,,,,masks/mask_001.jpg,,,,,,,,,,,,,,,,,,,,,,,,,,,,,,,,,,,,,,,,,,,,,,,,0,0,0,0,1,,,,,,,,,,,,,,,,,,,,,,,,,,,,,,,,,,,,,,,,,
153027,001,2022-11-21_24h54.46.886,Info_measure_main_exp,2022.2.2,Win32,165.0709805,,,,,,,,,,,,,,,,,,masks/mask_005.jpg,,,,,,,,,,,,,,,,,,,,,,,,,,,,,,,,,,,,,,,,,,,,,,,,0,1,1,4,1,,,,,,,,,,,,,,,,,,,,,,,,,,,,,,,,,,,,,,,,,
153027,001,2022-11-21_24h54.46.886,Info_measure_main_exp,2022.2.2,Win32,165.0709805,,,,,,,,,,,,,,,,,,masks/mask_002.jpg,,,,,,,,,,,,,,,,,,,,,,,,,,,,,,,,,,,,,,,,,,,,,,,,0,2,2,1,1,,,,,,,,,,,,,,,,,,,,,,,,,,,,,,,,,,,,,,,,,
153027,001,2022-11-21_24h54.46.886,Info_measure_main_exp,2022.2.2,Win32,165.0709805,,,,,,,,,,,,,,,,,,masks/mask_003.jpg,,,,,,,,,,,,,,,,,,,,,,,,,,,,,,,,,,,,,,,,,,,,,,,,0,3,3,2,1,,,,,,,,,,,,,,,,,,,,,,,,,,,,,,,,,,,,,,,,,
153027,001,2022-11-21_24h54.46.886,Info_measure_main_exp,2022.2.2,Win32,165.0709805,,,,,,,,,,,,,,,,,,masks/mask_004.jpg,,,,,,,,,,,,,,,,,,,,,,,,,,,,,,,,,,,,,,,,,,,,,,,,0,4,4,3,1,,,,,,,,,,,,,,,,,,,,,,,,,,,,,,,,,,,,,,,,,
153027,001,2022-11-21_24h54.46.886,Info_measure_main_exp,2022.2.2,Win32,165.0709805,,,,,,,,,,,,,,,,,,,,,,,,,,,,,,0,2.2445,1,,,,,,,,,,,,0,131,5,5,1986,1986,absent_patch/patch0001986.jpg,absent_patch/patch0001986.jpg,,,,,,,,,,,,,,,,,,,,-0.067361111,0.188194444,1,0,0,response7disk,28,0,-0.000694444,1,0,0,center_square,0,27,27,19,1,,,,,,,,,,,,,,,,,,,,,,,
153027,001,2022-11-21_24h54.46.886,Info_measure_main_exp,2022.2.2,Win32,165.0709805,,,,,,,,,,,,,,,,,,masks/mask_003.jpg,,,,,,,,,,,,,,,,,,,,,,,,,,,,,,,,,,,,,,,,,,,0,0,0,2,1,,,,,,,,,,,,,,,,,,,,,,,,,,,,,,,,,,,,,,,,,,,,,,
153027,001,2022-11-21_24h54.46.886,Info_measure_main_exp,2022.2.2,Win32,165.0709805,,,,,,,,,,,,,,,,,,masks/mask_001.jpg,,,,,,,,,,,,,,,,,,,,,,,,,,,,,,,,,,,,,,,,,,,0,1,1,0,1,,,,,,,,,,,,,,,,,,,,,,,,,,,,,,,,,,,,,,,,,,,,,,
153027,001,2022-11-21_24h54.46.886,Info_measure_main_exp,2022.2.2,Win32,165.0709805,,,,,,,,,,,,,,,,,,masks/mask_002.jpg,,,,,,,,,,,,,,,,,,,,,,,,,,,,,,,,,,,,,,,,,,,0,2,2,1,1,,,,,,,,,,,,,,,,,,,,,,,,,,,,,,,,,,,,,,,,,,,,,,
153027,001,2022-11-21_24h54.46.886,Info_measure_main_exp,2022.2.2,Win32,165.0709805,,,,,,,,,,,,,,,,,,masks/mask_004.jpg,,,,,,,,,,,,,,,,,,,,,,,,,,,,,,,,,,,,,,,,,,,0,3,3,3,1,,,,,,,,,,,,,,,,,,,,,,,,,,,,,,,,,,,,,,,,,,,,,,
153027,001,2022-11-21_24h54.46.886,Info_measure_main_exp,2022.2.2,Win32,165.0709805,,,,,,,,,,,,,,,,,,masks/mask_005.jpg,,,,,,,,,,,,,,,,,,,,,,,,,,,,,,,,,,,,,,,,,,,0,4,4,4,1,,,,,,,,,,,,,,,,,,,,,,,,,,,,,,,,,,,,,,,,,,,,,,
153027,001,2022-11-21_24h54.46.886,Info_measure_main_exp,2022.2.2,Win32,165.0709805,,,,,,,,,,,,,,,,,,masks/mask_004.jpg,,,,,,,,,,,,,,,,,,,,,,,,,,,,,,,,,,,,,,,,,,,,,,,,0,0,0,3,1,,,,,,,,,,,,,,,,,,,,,,,,,,,,,,,,,,,,,,,,,
153027,001,2022-11-21_24h54.46.886,Info_measure_main_exp,2022.2.2,Win32,165.0709805,,,,,,,,,,,,,,,,,,masks/mask_001.jpg,,,,,,,,,,,,,,,,,,,,,,,,,,,,,,,,,,,,,,,,,,,,,,,,0,1,1,0,1,,,,,,,,,,,,,,,,,,,,,,,,,,,,,,,,,,,,,,,,,
153027,001,2022-11-21_24h54.46.886,Info_measure_main_exp,2022.2.2,Win32,165.0709805,,,,,,,,,,,,,,,,,,masks/mask_003.jpg,,,,,,,,,,,,,,,,,,,,,,,,,,,,,,,,,,,,,,,,,,,,,,,,0,2,2,2,1,,,,,,,,,,,,,,,,,,,,,,,,,,,,,,,,,,,,,,,,,
153027,001,2022-11-21_24h54.46.886,Info_measure_main_exp,2022.2.2,Win32,165.0709805,,,,,,,,,,,,,,,,,,masks/mask_005.jpg,,,,,,,,,,,,,,,,,,,,,,,,,,,,,,,,,,,,,,,,,,,,,,,,0,3,3,4,1,,,,,,,,,,,,,,,,,,,,,,,,,,,,,,,,,,,,,,,,,
153027,001,2022-11-21_24h54.46.886,Info_measure_main_exp,2022.2.2,Win32,165.0709805,,,,,,,,,,,,,,,,,,masks/mask_002.jpg,,,,,,,,,,,,,,,,,,,,,,,,,,,,,,,,,,,,,,,,,,,,,,,,0,4,4,1,1,,,,,,,,,,,,,,,,,,,,,,,,,,,,,,,,,,,,,,,,,
153027,001,2022-11-21_24h54.46.886,Info_measure_main_exp,2022.2.2,Win32,165.0709805,,,,,,,,,,,,,,,,,,,,,,,,,,,,,,6,0.9099,1,,,,,,,,,,,,1,131,5,5,1,2214,present_patch/cong_131_5_a.jpg,absent_patch/patch0002214.jpg,,,,,,,,,,,,,,,,,,,,0.095138889,0.020138889,1,0,0,response1disk,29,0.0125,-0.010416667,1,0,0,center_square,0,28,28,4,1,,,,,,,,,,,,,,,,,,,,,,,
153027,001,2022-11-21_24h54.46.886,Info_measure_main_exp,2022.2.2,Win32,165.0709805,,,,,,,,,,,,,,,,,,masks/mask_002.jpg,,,,,,,,,,,,,,,,,,,,,,,,,,,,,,,,,,,,,,,,,,,0,0,0,1,1,,,,,,,,,,,,,,,,,,,,,,,,,,,,,,,,,,,,,,,,,,,,,,
153027,001,2022-11-21_24h54.46.886,Info_measure_main_exp,2022.2.2,Win32,165.0709805,,,,,,,,,,,,,,,,,,masks/mask_004.jpg,,,,,,,,,,,,,,,,,,,,,,,,,,,,,,,,,,,,,,,,,,,0,1,1,3,1,,,,,,,,,,,,,,,,,,,,,,,,,,,,,,,,,,,,,,,,,,,,,,
153027,001,2022-11-21_24h54.46.886,Info_measure_main_exp,2022.2.2,Win32,165.0709805,,,,,,,,,,,,,,,,,,masks/mask_001.jpg,,,,,,,,,,,,,,,,,,,,,,,,,,,,,,,,,,,,,,,,,,,0,2,2,0,1,,,,,,,,,,,,,,,,,,,,,,,,,,,,,,,,,,,,,,,,,,,,,,
153027,001,2022-11-21_24h54.46.886,Info_measure_main_exp,2022.2.2,Win32,165.0709805,,,,,,,,,,,,,,,,,,masks/mask_005.jpg,,,,,,,,,,,,,,,,,,,,,,,,,,,,,,,,,,,,,,,,,,,0,3,3,4,1,,,,,,,,,,,,,,,,,,,,,,,,,,,,,,,,,,,,,,,,,,,,,,
153027,001,2022-11-21_24h54.46.886,Info_measure_main_exp,2022.2.2,Win32,165.0709805,,,,,,,,,,,,,,,,,,masks/mask_003.jpg,,,,,,,,,,,,,,,,,,,,,,,,,,,,,,,,,,,,,,,,,,,0,4,4,2,1,,,,,,,,,,,,,,,,,,,,,,,,,,,,,,,,,,,,,,,,,,,,,,
153027,001,2022-11-21_24h54.46.886,Info_measure_main_exp,2022.2.2,Win32,165.0709805,,,,,,,,,,,,,,,,,,masks/mask_004.jpg,,,,,,,,,,,,,,,,,,,,,,,,,,,,,,,,,,,,,,,,,,,,,,,,0,0,0,3,1,,,,,,,,,,,,,,,,,,,,,,,,,,,,,,,,,,,,,,,,,
153027,001,2022-11-21_24h54.46.886,Info_measure_main_exp,2022.2.2,Win32,165.0709805,,,,,,,,,,,,,,,,,,masks/mask_003.jpg,,,,,,,,,,,,,,,,,,,,,,,,,,,,,,,,,,,,,,,,,,,,,,,,0,1,1,2,1,,,,,,,,,,,,,,,,,,,,,,,,,,,,,,,,,,,,,,,,,
153027,001,2022-11-21_24h54.46.886,Info_measure_main_exp,2022.2.2,Win32,165.0709805,,,,,,,,,,,,,,,,,,masks/mask_002.jpg,,,,,,,,,,,,,,,,,,,,,,,,,,,,,,,,,,,,,,,,,,,,,,,,0,2,2,1,1,,,,,,,,,,,,,,,,,,,,,,,,,,,,,,,,,,,,,,,,,
153027,001,2022-11-21_24h54.46.886,Info_measure_main_exp,2022.2.2,Win32,165.0709805,,,,,,,,,,,,,,,,,,masks/mask_001.jpg,,,,,,,,,,,,,,,,,,,,,,,,,,,,,,,,,,,,,,,,,,,,,,,,0,3,3,0,1,,,,,,,,,,,,,,,,,,,,,,,,,,,,,,,,,,,,,,,,,
153027,001,2022-11-21_24h54.46.886,Info_measure_main_exp,2022.2.2,Win32,165.0709805,,,,,,,,,,,,,,,,,,masks/mask_005.jpg,,,,,,,,,,,,,,,,,,,,,,,,,,,,,,,,,,,,,,,,,,,,,,,,0,4,4,4,1,,,,,,,,,,,,,,,,,,,,,,,,,,,,,,,,,,,,,,,,,
153027,001,2022-11-21_24h54.46.886,Info_measure_main_exp,2022.2.2,Win32,165.0709805,,,,,,,,,,,,,,,,,,,,,,,,,,,,,,3,0.5883,1,,,,,,,,,,,,0,131,5,5,2274,2190,absent_patch/patch0002274.jpg,absent_patch/patch0002190.jpg,,,,,,,,,,,,,,,,,,,,-0.015277778,-0.06875,1,0,0,response5disk,30,-0.009027778,-0.010416667,1,0,0,center_square,0,29,29,116,1,,,,,,,,,,,,,,,,,,,,,,,
153027,001,2022-11-21_24h54.46.886,Info_measure_main_exp,2022.2.2,Win32,165.0709805,,,,,,,,,,,,,,,,,,masks/mask_003.jpg,,,,,,,,,,,,,,,,,,,,,,,,,,,,,,,,,,,,,,,,,,,0,0,0,2,1,,,,,,,,,,,,,,,,,,,,,,,,,,,,,,,,,,,,,,,,,,,,,,
153027,001,2022-11-21_24h54.46.886,Info_measure_main_exp,2022.2.2,Win32,165.0709805,,,,,,,,,,,,,,,,,,masks/mask_002.jpg,,,,,,,,,,,,,,,,,,,,,,,,,,,,,,,,,,,,,,,,,,,0,1,1,1,1,,,,,,,,,,,,,,,,,,,,,,,,,,,,,,,,,,,,,,,,,,,,,,
153027,001,2022-11-21_24h54.46.886,Info_measure_main_exp,2022.2.2,Win32,165.0709805,,,,,,,,,,,,,,,,,,masks/mask_004.jpg,,,,,,,,,,,,,,,,,,,,,,,,,,,,,,,,,,,,,,,,,,,0,2,2,3,1,,,,,,,,,,,,,,,,,,,,,,,,,,,,,,,,,,,,,,,,,,,,,,
153027,001,2022-11-21_24h54.46.886,Info_measure_main_exp,2022.2.2,Win32,165.0709805,,,,,,,,,,,,,,,,,,masks/mask_005.jpg,,,,,,,,,,,,,,,,,,,,,,,,,,,,,,,,,,,,,,,,,,,0,3,3,4,1,,,,,,,,,,,,,,,,,,,,,,,,,,,,,,,,,,,,,,,,,,,,,,
153027,001,2022-11-21_24h54.46.886,Info_measure_main_exp,2022.2.2,Win32,165.0709805,,,,,,,,,,,,,,,,,,masks/mask_001.jpg,,,,,,,,,,,,,,,,,,,,,,,,,,,,,,,,,,,,,,,,,,,0,4,4,0,1,,,,,,,,,,,,,,,,,,,,,,,,,,,,,,,,,,,,,,,,,,,,,,
153027,001,2022-11-21_24h54.46.886,Info_measure_main_exp,2022.2.2,Win32,165.0709805,,,,,,,,,,,,,,,,,,masks/mask_004.jpg,,,,,,,,,,,,,,,,,,,,,,,,,,,,,,,,,,,,,,,,,,,,,,,,0,0,0,3,1,,,,,,,,,,,,,,,,,,,,,,,,,,,,,,,,,,,,,,,,,
153027,001,2022-11-21_24h54.46.886,Info_measure_main_exp,2022.2.2,Win32,165.0709805,,,,,,,,,,,,,,,,,,masks/mask_005.jpg,,,,,,,,,,,,,,,,,,,,,,,,,,,,,,,,,,,,,,,,,,,,,,,,0,1,1,4,1,,,,,,,,,,,,,,,,,,,,,,,,,,,,,,,,,,,,,,,,,
153027,001,2022-11-21_24h54.46.886,Info_measure_main_exp,2022.2.2,Win32,165.0709805,,,,,,,,,,,,,,,,,,masks/mask_001.jpg,,,,,,,,,,,,,,,,,,,,,,,,,,,,,,,,,,,,,,,,,,,,,,,,0,2,2,0,1,,,,,,,,,,,,,,,,,,,,,,,,,,,,,,,,,,,,,,,,,
153027,001,2022-11-21_24h54.46.886,Info_measure_main_exp,2022.2.2,Win32,165.0709805,,,,,,,,,,,,,,,,,,masks/mask_003.jpg,,,,,,,,,,,,,,,,,,,,,,,,,,,,,,,,,,,,,,,,,,,,,,,,0,3,3,2,1,,,,,,,,,,,,,,,,,,,,,,,,,,,,,,,,,,,,,,,,,
153027,001,2022-11-21_24h54.46.886,Info_measure_main_exp,2022.2.2,Win32,165.0709805,,,,,,,,,,,,,,,,,,masks/mask_002.jpg,,,,,,,,,,,,,,,,,,,,,,,,,,,,,,,,,,,,,,,,,,,,,,,,0,4,4,1,1,,,,,,,,,,,,,,,,,,,,,,,,,,,,,,,,,,,,,,,,,
153027,001,2022-11-21_24h54.46.886,Info_measure_main_exp,2022.2.2,Win32,165.0709805,,,,,,,,,,,,,,,,,,,,,,,,,,,,,,3,0.4245,1,,,,,,,,,,,,0,131,5,5,2298,2274,absent_patch/patch0002298.jpg,absent_patch/patch0002274.jpg,,,,,,,,,,,,,,,,,,,,-0.029861111,-0.074305556,1,0,0,response5disk,31,-0.003472222,-0.002083333,1,0,0,center_square,0,30,30,1,1,,,,,,,,,,,,,,,,,,,,,,,
153027,001,2022-11-21_24h54.46.886,Info_measure_main_exp,2022.2.2,Win32,165.0709805,,,,,,,,,,,,,,,,,,masks/mask_004.jpg,,,,,,,,,,,,,,,,,,,,,,,,,,,,,,,,,,,,,,,,,,,0,0,0,3,1,,,,,,,,,,,,,,,,,,,,,,,,,,,,,,,,,,,,,,,,,,,,,,
153027,001,2022-11-21_24h54.46.886,Info_measure_main_exp,2022.2.2,Win32,165.0709805,,,,,,,,,,,,,,,,,,masks/mask_003.jpg,,,,,,,,,,,,,,,,,,,,,,,,,,,,,,,,,,,,,,,,,,,0,1,1,2,1,,,,,,,,,,,,,,,,,,,,,,,,,,,,,,,,,,,,,,,,,,,,,,
153027,001,2022-11-21_24h54.46.886,Info_measure_main_exp,2022.2.2,Win32,165.0709805,,,,,,,,,,,,,,,,,,masks/mask_005.jpg,,,,,,,,,,,,,,,,,,,,,,,,,,,,,,,,,,,,,,,,,,,0,2,2,4,1,,,,,,,,,,,,,,,,,,,,,,,,,,,,,,,,,,,,,,,,,,,,,,
153027,001,2022-11-21_24h54.46.886,Info_measure_main_exp,2022.2.2,Win32,165.0709805,,,,,,,,,,,,,,,,,,masks/mask_002.jpg,,,,,,,,,,,,,,,,,,,,,,,,,,,,,,,,,,,,,,,,,,,0,3,3,1,1,,,,,,,,,,,,,,,,,,,,,,,,,,,,,,,,,,,,,,,,,,,,,,
153027,001,2022-11-21_24h54.46.886,Info_measure_main_exp,2022.2.2,Win32,165.0709805,,,,,,,,,,,,,,,,,,masks/mask_001.jpg,,,,,,,,,,,,,,,,,,,,,,,,,,,,,,,,,,,,,,,,,,,0,4,4,0,1,,,,,,,,,,,,,,,,,,,,,,,,,,,,,,,,,,,,,,,,,,,,,,
153027,001,2022-11-21_24h54.46.886,Info_measure_main_exp,2022.2.2,Win32,165.0709805,,,,,,,,,,,,,,,,,,masks/mask_004.jpg,,,,,,,,,,,,,,,,,,,,,,,,,,,,,,,,,,,,,,,,,,,,,,,,0,0,0,3,1,,,,,,,,,,,,,,,,,,,,,,,,,,,,,,,,,,,,,,,,,
153027,001,2022-11-21_24h54.46.886,Info_measure_main_exp,2022.2.2,Win32,165.0709805,,,,,,,,,,,,,,,,,,masks/mask_002.jpg,,,,,,,,,,,,,,,,,,,,,,,,,,,,,,,,,,,,,,,,,,,,,,,,0,1,1,1,1,,,,,,,,,,,,,,,,,,,,,,,,,,,,,,,,,,,,,,,,,
153027,001,2022-11-21_24h54.46.886,Info_measure_main_exp,2022.2.2,Win32,165.0709805,,,,,,,,,,,,,,,,,,masks/mask_005.jpg,,,,,,,,,,,,,,,,,,,,,,,,,,,,,,,,,,,,,,,,,,,,,,,,0,2,2,4,1,,,,,,,,,,,,,,,,,,,,,,,,,,,,,,,,,,,,,,,,,
153027,001,2022-11-21_24h54.46.886,Info_measure_main_exp,2022.2.2,Win32,165.0709805,,,,,,,,,,,,,,,,,,masks/mask_003.jpg,,,,,,,,,,,,,,,,,,,,,,,,,,,,,,,,,,,,,,,,,,,,,,,,0,3,3,2,1,,,,,,,,,,,,,,,,,,,,,,,,,,,,,,,,,,,,,,,,,
153027,001,2022-11-21_24h54.46.886,Info_measure_main_exp,2022.2.2,Win32,165.0709805,,,,,,,,,,,,,,,,,,masks/mask_001.jpg,,,,,,,,,,,,,,,,,,,,,,,,,,,,,,,,,,,,,,,,,,,,,,,,0,4,4,0,1,,,,,,,,,,,,,,,,,,,,,,,,,,,,,,,,,,,,,,,,,
153027,001,2022-11-21_24h54.46.886,Info_measure_main_exp,2022.2.2,Win32,165.0709805,,,,,,,,,,,,,,,,,,,,,,,,,,,,,,0,0.4368,1,,,,,,,,,,,,0,131,5,5,2238,2238,absent_patch/patch0002238.jpg,absent_patch/patch0002238.jpg,,,,,,,,,,,,,,,,,,,,-0.047222222,0.097222222,1,0,0,response7disk,32,-0.001388889,0.000694444,1,0,0,center_square,0,31,31,58,1,,,,,,,,,,,,,,,,,,,,,,,
153027,001,2022-11-21_24h54.46.886,Info_measure_main_exp,2022.2.2,Win32,165.0709805,,,,,,,,,,,,,,,,,,masks/mask_001.jpg,,,,,,,,,,,,,,,,,,,,,,,,,,,,,,,,,,,,,,,,,,,0,0,0,0,1,,,,,,,,,,,,,,,,,,,,,,,,,,,,,,,,,,,,,,,,,,,,,,
153027,001,2022-11-21_24h54.46.886,Info_measure_main_exp,2022.2.2,Win32,165.0709805,,,,,,,,,,,,,,,,,,masks/mask_003.jpg,,,,,,,,,,,,,,,,,,,,,,,,,,,,,,,,,,,,,,,,,,,0,1,1,2,1,,,,,,,,,,,,,,,,,,,,,,,,,,,,,,,,,,,,,,,,,,,,,,
153027,001,2022-11-21_24h54.46.886,Info_measure_main_exp,2022.2.2,Win32,165.0709805,,,,,,,,,,,,,,,,,,masks/mask_002.jpg,,,,,,,,,,,,,,,,,,,,,,,,,,,,,,,,,,,,,,,,,,,0,2,2,1,1,,,,,,,,,,,,,,,,,,,,,,,,,,,,,,,,,,,,,,,,,,,,,,
153027,001,2022-11-21_24h54.46.886,Info_measure_main_exp,2022.2.2,Win32,165.0709805,,,,,,,,,,,,,,,,,,masks/mask_005.jpg,,,,,,,,,,,,,,,,,,,,,,,,,,,,,,,,,,,,,,,,,,,0,3,3,4,1,,,,,,,,,,,,,,,,,,,,,,,,,,,,,,,,,,,,,,,,,,,,,,
153027,001,2022-11-21_24h54.46.886,Info_measure_main_exp,2022.2.2,Win32,165.0709805,,,,,,,,,,,,,,,,,,masks/mask_004.jpg,,,,,,,,,,,,,,,,,,,,,,,,,,,,,,,,,,,,,,,,,,,0,4,4,3,1,,,,,,,,,,,,,,,,,,,,,,,,,,,,,,,,,,,,,,,,,,,,,,
153027,001,2022-11-21_24h54.46.886,Info_measure_main_exp,2022.2.2,Win32,165.0709805,,,,,,,,,,,,,,,,,,masks/mask_004.jpg,,,,,,,,,,,,,,,,,,,,,,,,,,,,,,,,,,,,,,,,,,,,,,,,0,0,0,3,1,,,,,,,,,,,,,,,,,,,,,,,,,,,,,,,,,,,,,,,,,
153027,001,2022-11-21_24h54.46.886,Info_measure_main_exp,2022.2.2,Win32,165.0709805,,,,,,,,,,,,,,,,,,masks/mask_003.jpg,,,,,,,,,,,,,,,,,,,,,,,,,,,,,,,,,,,,,,,,,,,,,,,,0,1,1,2,1,,,,,,,,,,,,,,,,,,,,,,,,,,,,,,,,,,,,,,,,,
153027,001,2022-11-21_24h54.46.886,Info_measure_main_exp,2022.2.2,Win32,165.0709805,,,,,,,,,,,,,,,,,,masks/mask_002.jpg,,,,,,,,,,,,,,,,,,,,,,,,,,,,,,,,,,,,,,,,,,,,,,,,0,2,2,1,1,,,,,,,,,,,,,,,,,,,,,,,,,,,,,,,,,,,,,,,,,
153027,001,2022-11-21_24h54.46.886,Info_measure_main_exp,2022.2.2,Win32,165.0709805,,,,,,,,,,,,,,,,,,masks/mask_005.jpg,,,,,,,,,,,,,,,,,,,,,,,,,,,,,,,,,,,,,,,,,,,,,,,,0,3,3,4,1,,,,,,,,,,,,,,,,,,,,,,,,,,,,,,,,,,,,,,,,,
153027,001,2022-11-21_24h54.46.886,Info_measure_main_exp,2022.2.2,Win32,165.0709805,,,,,,,,,,,,,,,,,,masks/mask_001.jpg,,,,,,,,,,,,,,,,,,,,,,,,,,,,,,,,,,,,,,,,,,,,,,,,0,4,4,0,1,,,,,,,,,,,,,,,,,,,,,,,,,,,,,,,,,,,,,,,,,
153027,001,2022-11-21_24h54.46.886,Info_measure_main_exp,2022.2.2,Win32,165.0709805,,,,,,,,,,,,,,,,,,,,,,,,,,,,,,2,0.9766,1,,,,,,,,,,,,0,131,5,5,1974,2142,absent_patch/patch0001974.jpg,absent_patch/patch0002142.jpg,,,,,,,,,,,,,,,,,,,,-0.114583333,-0.026388889,1,0,0,response5disk,33,-0.004166667,0.003472222,1,0,0,center_square,0,32,32,38,1,,,,,,,,,,,,,,,,,,,,,,,
153027,001,2022-11-21_24h54.46.886,Info_measure_main_exp,2022.2.2,Win32,165.0709805,,,,,,,,,,,,,,,,,,masks/mask_001.jpg,,,,,,,,,,,,,,,,,,,,,,,,,,,,,,,,,,,,,,,,,,,0,0,0,0,1,,,,,,,,,,,,,,,,,,,,,,,,,,,,,,,,,,,,,,,,,,,,,,
153027,001,2022-11-21_24h54.46.886,Info_measure_main_exp,2022.2.2,Win32,165.0709805,,,,,,,,,,,,,,,,,,masks/mask_005.jpg,,,,,,,,,,,,,,,,,,,,,,,,,,,,,,,,,,,,,,,,,,,0,1,1,4,1,,,,,,,,,,,,,,,,,,,,,,,,,,,,,,,,,,,,,,,,,,,,,,
153027,001,2022-11-21_24h54.46.886,Info_measure_main_exp,2022.2.2,Win32,165.0709805,,,,,,,,,,,,,,,,,,masks/mask_004.jpg,,,,,,,,,,,,,,,,,,,,,,,,,,,,,,,,,,,,,,,,,,,0,2,2,3,1,,,,,,,,,,,,,,,,,,,,,,,,,,,,,,,,,,,,,,,,,,,,,,
153027,001,2022-11-21_24h54.46.886,Info_measure_main_exp,2022.2.2,Win32,165.0709805,,,,,,,,,,,,,,,,,,masks/mask_003.jpg,,,,,,,,,,,,,,,,,,,,,,,,,,,,,,,,,,,,,,,,,,,0,3,3,2,1,,,,,,,,,,,,,,,,,,,,,,,,,,,,,,,,,,,,,,,,,,,,,,
153027,001,2022-11-21_24h54.46.886,Info_measure_main_exp,2022.2.2,Win32,165.0709805,,,,,,,,,,,,,,,,,,masks/mask_002.jpg,,,,,,,,,,,,,,,,,,,,,,,,,,,,,,,,,,,,,,,,,,,0,4,4,1,1,,,,,,,,,,,,,,,,,,,,,,,,,,,,,,,,,,,,,,,,,,,,,,
153027,001,2022-11-21_24h54.46.886,Info_measure_main_exp,2022.2.2,Win32,165.0709805,,,,,,,,,,,,,,,,,,masks/mask_004.jpg,,,,,,,,,,,,,,,,,,,,,,,,,,,,,,,,,,,,,,,,,,,,,,,,0,0,0,3,1,,,,,,,,,,,,,,,,,,,,,,,,,,,,,,,,,,,,,,,,,
153027,001,2022-11-21_24h54.46.886,Info_measure_main_exp,2022.2.2,Win32,165.0709805,,,,,,,,,,,,,,,,,,masks/mask_001.jpg,,,,,,,,,,,,,,,,,,,,,,,,,,,,,,,,,,,,,,,,,,,,,,,,0,1,1,0,1,,,,,,,,,,,,,,,,,,,,,,,,,,,,,,,,,,,,,,,,,
153027,001,2022-11-21_24h54.46.886,Info_measure_main_exp,2022.2.2,Win32,165.0709805,,,,,,,,,,,,,,,,,,masks/mask_003.jpg,,,,,,,,,,,,,,,,,,,,,,,,,,,,,,,,,,,,,,,,,,,,,,,,0,2,2,2,1,,,,,,,,,,,,,,,,,,,,,,,,,,,,,,,,,,,,,,,,,
153027,001,2022-11-21_24h54.46.886,Info_measure_main_exp,2022.2.2,Win32,165.0709805,,,,,,,,,,,,,,,,,,masks/mask_005.jpg,,,,,,,,,,,,,,,,,,,,,,,,,,,,,,,,,,,,,,,,,,,,,,,,0,3,3,4,1,,,,,,,,,,,,,,,,,,,,,,,,,,,,,,,,,,,,,,,,,
153027,001,2022-11-21_24h54.46.886,Info_measure_main_exp,2022.2.2,Win32,165.0709805,,,,,,,,,,,,,,,,,,masks/mask_002.jpg,,,,,,,,,,,,,,,,,,,,,,,,,,,,,,,,,,,,,,,,,,,,,,,,0,4,4,1,1,,,,,,,,,,,,,,,,,,,,,,,,,,,,,,,,,,,,,,,,,
153027,001,2022-11-21_24h54.46.886,Info_measure_main_exp,2022.2.2,Win32,165.0709805,,,,,,,,,,,,,,,,,,,,,,,,,,,,,,3,0.6369,1,,,,,,,,,,,,0,131,5,5,2250,2166,absent_patch/patch0002250.jpg,absent_patch/patch0002166.jpg,,,,,,,,,,,,,,,,,,,,-0.047222222,-0.069444444,1,0,0,response5disk,34,-0.014583333,0.004861111,1,0,0,center_square,0,33,33,60,1,,,,,,,,,,,,,,,,,,,,,,,
153027,001,2022-11-21_24h54.46.886,Info_measure_main_exp,2022.2.2,Win32,165.0709805,,,,,,,,,,,,,,,,,,masks/mask_003.jpg,,,,,,,,,,,,,,,,,,,,,,,,,,,,,,,,,,,,,,,,,,,0,0,0,2,1,,,,,,,,,,,,,,,,,,,,,,,,,,,,,,,,,,,,,,,,,,,,,,
153027,001,2022-11-21_24h54.46.886,Info_measure_main_exp,2022.2.2,Win32,165.0709805,,,,,,,,,,,,,,,,,,masks/mask_005.jpg,,,,,,,,,,,,,,,,,,,,,,,,,,,,,,,,,,,,,,,,,,,0,1,1,4,1,,,,,,,,,,,,,,,,,,,,,,,,,,,,,,,,,,,,,,,,,,,,,,
153027,001,2022-11-21_24h54.46.886,Info_measure_main_exp,2022.2.2,Win32,165.0709805,,,,,,,,,,,,,,,,,,masks/mask_001.jpg,,,,,,,,,,,,,,,,,,,,,,,,,,,,,,,,,,,,,,,,,,,0,2,2,0,1,,,,,,,,,,,,,,,,,,,,,,,,,,,,,,,,,,,,,,,,,,,,,,
153027,001,2022-11-21_24h54.46.886,Info_measure_main_exp,2022.2.2,Win32,165.0709805,,,,,,,,,,,,,,,,,,masks/mask_002.jpg,,,,,,,,,,,,,,,,,,,,,,,,,,,,,,,,,,,,,,,,,,,0,3,3,1,1,,,,,,,,,,,,,,,,,,,,,,,,,,,,,,,,,,,,,,,,,,,,,,
153027,001,2022-11-21_24h54.46.886,Info_measure_main_exp,2022.2.2,Win32,165.0709805,,,,,,,,,,,,,,,,,,masks/mask_004.jpg,,,,,,,,,,,,,,,,,,,,,,,,,,,,,,,,,,,,,,,,,,,0,4,4,3,1,,,,,,,,,,,,,,,,,,,,,,,,,,,,,,,,,,,,,,,,,,,,,,
153027,001,2022-11-21_24h54.46.886,Info_measure_main_exp,2022.2.2,Win32,165.0709805,,,,,,,,,,,,,,,,,,masks/mask_005.jpg,,,,,,,,,,,,,,,,,,,,,,,,,,,,,,,,,,,,,,,,,,,,,,,,0,0,0,4,1,,,,,,,,,,,,,,,,,,,,,,,,,,,,,,,,,,,,,,,,,
153027,001,2022-11-21_24h54.46.886,Info_measure_main_exp,2022.2.2,Win32,165.0709805,,,,,,,,,,,,,,,,,,masks/mask_004.jpg,,,,,,,,,,,,,,,,,,,,,,,,,,,,,,,,,,,,,,,,,,,,,,,,0,1,1,3,1,,,,,,,,,,,,,,,,,,,,,,,,,,,,,,,,,,,,,,,,,
153027,001,2022-11-21_24h54.46.886,Info_measure_main_exp,2022.2.2,Win32,165.0709805,,,,,,,,,,,,,,,,,,masks/mask_003.jpg,,,,,,,,,,,,,,,,,,,,,,,,,,,,,,,,,,,,,,,,,,,,,,,,0,2,2,2,1,,,,,,,,,,,,,,,,,,,,,,,,,,,,,,,,,,,,,,,,,
153027,001,2022-11-21_24h54.46.886,Info_measure_main_exp,2022.2.2,Win32,165.0709805,,,,,,,,,,,,,,,,,,masks/mask_002.jpg,,,,,,,,,,,,,,,,,,,,,,,,,,,,,,,,,,,,,,,,,,,,,,,,0,3,3,1,1,,,,,,,,,,,,,,,,,,,,,,,,,,,,,,,,,,,,,,,,,
