participant,session,date,expName,psychopyVersion,OS,frameRate,space_press_continue.keys,space_press_continue.rt,space_press_continue_2.keys,space_press_continue_2.rt,space_press_continue_3.keys,space_press_continue_3.rt,space_press_continue_4.keys,space_press_continue_4.rt,space_press_continue_5.keys,space_press_continue_5.rt,space_press_continue_6.keys,space_press_continue_6.rt,prac_mask_loop_1.thisRepN,prac_mask_loop_1.thisTrialN,prac_mask_loop_1.thisN,prac_mask_loop_1.thisIndex,prac_mask_loop_1.ran,mask_name,prac_mask_loop_2.thisRepN,prac_mask_loop_2.thisTrialN,prac_mask_loop_2.thisN,prac_mask_loop_2.thisIndex,prac_mask_loop_2.ran,mouse_2.x,mouse_2.y,mouse_2.leftButton,mouse_2.midButton,mouse_2.rightButton,mouse_2.clicked_name,similarity,response_time,Pass,mouse_12.x,mouse_12.y,mouse_12.leftButton,mouse_12.midButton,mouse_12.rightButton,mouse_12.clicked_name,prac_loop.thisRepN,prac_loop.thisTrialN,prac_loop.thisN,prac_loop.thisIndex,prac_loop.ran,Pair_type,Image_num,Patch_1_loc,Patch_2_loc,Patch_1_info,Patch_2_info,Patch_1_name,Patch_2_name,mouse_1.x,mouse_1.y,mouse_1.leftButton,mouse_1.midButton,mouse_1.rightButton,mouse_1.time,mouse_1.clicked_name,space_press_continue_7.keys,space_press_continue_7.rt,mask_loop.thisRepN,mask_loop.thisTrialN,mask_loop.thisN,mask_loop.thisIndex,mask_loop.ran,mask_loop_2.thisRepN,mask_loop_2.thisTrialN,mask_loop_2.thisN,mask_loop_2.thisIndex,mask_loop_2.ran,mouse.x,mouse.y,mouse.leftButton,mouse.midButton,mouse.rightButton,mouse.clicked_name,trialNumber,mouse_11.x,mouse_11.y,mouse_11.leftButton,mouse_11.midButton,mouse_11.rightButton,mouse_11.clicked_name,first_pass_loop.thisRepN,first_pass_loop.thisTrialN,first_pass_loop.thisN,first_pass_loop.thisIndex,first_pass_loop.ran,mask_loop_3.thisRepN,mask_loop_3.thisTrialN,mask_loop_3.thisN,mask_loop_3.thisIndex,mask_loop_3.ran,mask_loop_4.thisRepN,mask_loop_4.thisTrialN,mask_loop_4.thisN,mask_loop_4.thisIndex,mask_loop_4.ran,mouse_3.x,mouse_3.y,mouse_3.leftButton,mouse_3.midButton,mouse_3.rightButton,mouse_3.clicked_name,double_pass_loop.thisRepN,double_pass_loop.thisTrialN,double_pass_loop.thisN,double_pass_loop.thisIndex,double_pass_loop.ran,space_exit.keys,space_exit.rt
153791,001,2022-11-21_01h30.39.720,Info_measure_main_exp,2022.2.2,Win32,119.9472232,,,,,,,,,,,,,,,,,,,,,,,,,,,,,,,,,,,,,,,,,,,,,,,,,,,,,,,,,,,,,,,,,,,,,,,,,,,,,,,,,,,,,,,,,,,,,,,,,,,,,,,,,,,,,,,
153791,001,2022-11-21_01h30.39.720,Info_measure_main_exp,2022.2.2,Win32,119.9472232,,,,,,,,,,,,,,,,,,,,,,,,,,,,,,,,,,,,,,,,,,,,,,,,,,,,,,,,,,,,,,,,,,,,,,,,,,,,,,,,,,,,,,,,,,,,,,,,,,,,,,,,,,,,,,,
153791,001,2022-11-21_01h30.39.720,Info_measure_main_exp,2022.2.2,Win32,119.9472232,space,11.2283,,,,,,,,,,,,,,,,,,,,,,,,,,,,,,,,,,,,,,,,,,,,,,,,,,,,,,,,,,,,,,,,,,,,,,,,,,,,,,,,,,,,,,,,,,,,,,,,,,,,,,,,,,,,,
153791,001,2022-11-21_01h30.39.720,Info_measure_main_exp,2022.2.2,Win32,119.9472232,,,space,17.5916,,,,,,,,,,,,,,,,,,,,,,,,,,,,,,,,,,,,,,,,,,,,,,,,,,,,,,,,,,,,,,,,,,,,,,,,,,,,,,,,,,,,,,,,,,,,,,,,,,,,,,,,,,,
153791,001,2022-11-21_01h30.39.720,Info_measure_main_exp,2022.2.2,Win32,119.9472232,,,,,space,6.2649,,,,,,,,,,,,,,,,,,,,,,,,,,,,,,,,,,,,,,,,,,,,,,,,,,,,,,,,,,,,,,,,,,,,,,,,,,,,,,,,,,,,,,,,,,,,,,,,,,,,,,,,,
153791,001,2022-11-21_01h30.39.720,Info_measure_main_exp,2022.2.2,Win32,119.9472232,,,,,,,space,21.0146,,,,,,,,,,,,,,,,,,,,,,,,,,,,,,,,,,,,,,,,,,,,,,,,,,,,,,,,,,,,,,,,,,,,,,,,,,,,,,,,,,,,,,,,,,,,,,,,,,,,,,,
153791,001,2022-11-21_01h30.39.720,Info_measure_main_exp,2022.2.2,Win32,119.9472232,,,,,,,,,space,6.7078,,,,,,,,,,,,,,,,,,,,,,,,,,,,,,,,,,,,,,,,,,,,,,,,,,,,,,,,,,,,,,,,,,,,,,,,,,,,,,,,,,,,,,,,,,,,,,,,,,,,,
153791,001,2022-11-21_01h30.39.720,Info_measure_main_exp,2022.2.2,Win32,119.9472232,,,,,,,,,,,space,2.8206,,,,,,,,,,,,,,,,,,,,,,,,,,,,,,,,,,,,,,,,,,,,,,,,,,,,,,,,,,,,,,,,,,,,,,,,,,,,,,,,,,,,,,,,,,,,,,,,,,,
153791,001,2022-11-21_01h30.39.720,Info_measure_main_exp,2022.2.2,Win32,119.9472232,,,,,,,,,,,,,0,0,0,3,1,masks/mask_004.jpg,,,,,,,,,,,,,,,,,,,,,,,,,,,,,,,,,,,,,,,,,,,,,,,,,,,,,,,,,,,,,,,,,,,,,,,,,,,,,,,,,,,,,,,,,,,,,
153791,001,2022-11-21_01h30.39.720,Info_measure_main_exp,2022.2.2,Win32,119.9472232,,,,,,,,,,,,,0,1,1,0,1,masks/mask_001.jpg,,,,,,,,,,,,,,,,,,,,,,,,,,,,,,,,,,,,,,,,,,,,,,,,,,,,,,,,,,,,,,,,,,,,,,,,,,,,,,,,,,,,,,,,,,,,,
153791,001,2022-11-21_01h30.39.720,Info_measure_main_exp,2022.2.2,Win32,119.9472232,,,,,,,,,,,,,0,2,2,1,1,masks/mask_002.jpg,,,,,,,,,,,,,,,,,,,,,,,,,,,,,,,,,,,,,,,,,,,,,,,,,,,,,,,,,,,,,,,,,,,,,,,,,,,,,,,,,,,,,,,,,,,,,
153791,001,2022-11-21_01h30.39.720,Info_measure_main_exp,2022.2.2,Win32,119.9472232,,,,,,,,,,,,,0,3,3,4,1,masks/mask_005.jpg,,,,,,,,,,,,,,,,,,,,,,,,,,,,,,,,,,,,,,,,,,,,,,,,,,,,,,,,,,,,,,,,,,,,,,,,,,,,,,,,,,,,,,,,,,,,,
153791,001,2022-11-21_01h30.39.720,Info_measure_main_exp,2022.2.2,Win32,119.9472232,,,,,,,,,,,,,0,4,4,2,1,masks/mask_003.jpg,,,,,,,,,,,,,,,,,,,,,,,,,,,,,,,,,,,,,,,,,,,,,,,,,,,,,,,,,,,,,,,,,,,,,,,,,,,,,,,,,,,,,,,,,,,,,
153791,001,2022-11-21_01h30.39.720,Info_measure_main_exp,2022.2.2,Win32,119.9472232,,,,,,,,,,,,,,,,,,masks/mask_001.jpg,0,0,0,0,1,,,,,,,,,,,,,,,,,,,,,,,,,,,,,,,,,,,,,,,,,,,,,,,,,,,,,,,,,,,,,,,,,,,,,,,,,,,,,,,,,,,,,,,,
153791,001,2022-11-21_01h30.39.720,Info_measure_main_exp,2022.2.2,Win32,119.9472232,,,,,,,,,,,,,,,,,,masks/mask_004.jpg,0,1,1,3,1,,,,,,,,,,,,,,,,,,,,,,,,,,,,,,,,,,,,,,,,,,,,,,,,,,,,,,,,,,,,,,,,,,,,,,,,,,,,,,,,,,,,,,,,
153791,001,2022-11-21_01h30.39.720,Info_measure_main_exp,2022.2.2,Win32,119.9472232,,,,,,,,,,,,,,,,,,masks/mask_005.jpg,0,2,2,4,1,,,,,,,,,,,,,,,,,,,,,,,,,,,,,,,,,,,,,,,,,,,,,,,,,,,,,,,,,,,,,,,,,,,,,,,,,,,,,,,,,,,,,,,,
153791,001,2022-11-21_01h30.39.720,Info_measure_main_exp,2022.2.2,Win32,119.9472232,,,,,,,,,,,,,,,,,,masks/mask_003.jpg,0,3,3,2,1,,,,,,,,,,,,,,,,,,,,,,,,,,,,,,,,,,,,,,,,,,,,,,,,,,,,,,,,,,,,,,,,,,,,,,,,,,,,,,,,,,,,,,,,
153791,001,2022-11-21_01h30.39.720,Info_measure_main_exp,2022.2.2,Win32,119.9472232,,,,,,,,,,,,,,,,,,masks/mask_002.jpg,0,4,4,1,1,,,,,,,,,,,,,,,,,,,,,,,,,,,,,,,,,,,,,,,,,,,,,,,,,,,,,,,,,,,,,,,,,,,,,,,,,,,,,,,,,,,,,,,,
153791,001,2022-11-21_01h30.39.720,Info_measure_main_exp,2022.2.2,Win32,119.9472232,,,,,,,,,,,,,,,,,,,,,,,,-0.058333291,0.157407407,1,0,0,response7disk,0,71.9209,1,0.005555541,-0.001851859,1,0,0,center_square,0,0,0,2,1,0,131,5,5,2526,2526,prac_patch/patch0002526.jpg,prac_patch/patch0002526.jpg,,,,,,,,,,,,,,,,,,,,,,,,,,,,,,,,,,,,,,,,,,,,,,,,,,,,,,,,,,,,
153791,001,2022-11-21_01h30.39.720,Info_measure_main_exp,2022.2.2,Win32,119.9472232,,,,,,,,,,,,,0,0,0,0,1,masks/mask_001.jpg,,,,,,,,,,,,,,,,,,,,,,,,,,,,,,,,,,,,,,,,,,,,,,,,,,,,,,,,,,,,,,,,,,,,,,,,,,,,,,,,,,,,,,,,,,,,,
153791,001,2022-11-21_01h30.39.720,Info_measure_main_exp,2022.2.2,Win32,119.9472232,,,,,,,,,,,,,0,1,1,1,1,masks/mask_002.jpg,,,,,,,,,,,,,,,,,,,,,,,,,,,,,,,,,,,,,,,,,,,,,,,,,,,,,,,,,,,,,,,,,,,,,,,,,,,,,,,,,,,,,,,,,,,,,
153791,001,2022-11-21_01h30.39.720,Info_measure_main_exp,2022.2.2,Win32,119.9472232,,,,,,,,,,,,,0,2,2,3,1,masks/mask_004.jpg,,,,,,,,,,,,,,,,,,,,,,,,,,,,,,,,,,,,,,,,,,,,,,,,,,,,,,,,,,,,,,,,,,,,,,,,,,,,,,,,,,,,,,,,,,,,,
153791,001,2022-11-21_01h30.39.720,Info_measure_main_exp,2022.2.2,Win32,119.9472232,,,,,,,,,,,,,0,3,3,2,1,masks/mask_003.jpg,,,,,,,,,,,,,,,,,,,,,,,,,,,,,,,,,,,,,,,,,,,,,,,,,,,,,,,,,,,,,,,,,,,,,,,,,,,,,,,,,,,,,,,,,,,,,
153791,001,2022-11-21_01h30.39.720,Info_measure_main_exp,2022.2.2,Win32,119.9472232,,,,,,,,,,,,,0,4,4,4,1,masks/mask_005.jpg,,,,,,,,,,,,,,,,,,,,,,,,,,,,,,,,,,,,,,,,,,,,,,,,,,,,,,,,,,,,,,,,,,,,,,,,,,,,,,,,,,,,,,,,,,,,,
153791,001,2022-11-21_01h30.39.720,Info_measure_main_exp,2022.2.2,Win32,119.9472232,,,,,,,,,,,,,,,,,,masks/mask_004.jpg,0,0,0,3,1,,,,,,,,,,,,,,,,,,,,,,,,,,,,,,,,,,,,,,,,,,,,,,,,,,,,,,,,,,,,,,,,,,,,,,,,,,,,,,,,,,,,,,,,
153791,001,2022-11-21_01h30.39.720,Info_measure_main_exp,2022.2.2,Win32,119.9472232,,,,,,,,,,,,,,,,,,masks/mask_003.jpg,0,1,1,2,1,,,,,,,,,,,,,,,,,,,,,,,,,,,,,,,,,,,,,,,,,,,,,,,,,,,,,,,,,,,,,,,,,,,,,,,,,,,,,,,,,,,,,,,,
153791,001,2022-11-21_01h30.39.720,Info_measure_main_exp,2022.2.2,Win32,119.9472232,,,,,,,,,,,,,,,,,,masks/mask_001.jpg,0,2,2,0,1,,,,,,,,,,,,,,,,,,,,,,,,,,,,,,,,,,,,,,,,,,,,,,,,,,,,,,,,,,,,,,,,,,,,,,,,,,,,,,,,,,,,,,,,
153791,001,2022-11-21_01h30.39.720,Info_measure_main_exp,2022.2.2,Win32,119.9472232,,,,,,,,,,,,,,,,,,masks/mask_002.jpg,0,3,3,1,1,,,,,,,,,,,,,,,,,,,,,,,,,,,,,,,,,,,,,,,,,,,,,,,,,,,,,,,,,,,,,,,,,,,,,,,,,,,,,,,,,,,,,,,,
153791,001,2022-11-21_01h30.39.720,Info_measure_main_exp,2022.2.2,Win32,119.9472232,,,,,,,,,,,,,,,,,,masks/mask_005.jpg,0,4,4,4,1,,,,,,,,,,,,,,,,,,,,,,,,,,,,,,,,,,,,,,,,,,,,,,,,,,,,,,,,,,,,,,,,,,,,,,,,,,,,,,,,,,,,,,,,
153791,001,2022-11-21_01h30.39.720,Info_measure_main_exp,2022.2.2,Win32,119.9472232,,,,,,,,,,,,,,,,,,,,,,,,0.055555556,0.114814794,1,0,0,response1disk,7,81.0481,1,0.001851894,0.002777771,1,0,0,center_square,0,1,1,0,1,0,131,5,5,2370,2406,prac_patch/patch0002370.jpg,prac_patch/patch0002406.jpg,,,,,,,,,,,,,,,,,,,,,,,,,,,,,,,,,,,,,,,,,,,,,,,,,,,,,,,,,,,,
153791,001,2022-11-21_01h30.39.720,Info_measure_main_exp,2022.2.2,Win32,119.9472232,,,,,,,,,,,,,0,0,0,0,1,masks/mask_001.jpg,,,,,,,,,,,,,,,,,,,,,,,,,,,,,,,,,,,,,,,,,,,,,,,,,,,,,,,,,,,,,,,,,,,,,,,,,,,,,,,,,,,,,,,,,,,,,
153791,001,2022-11-21_01h30.39.720,Info_measure_main_exp,2022.2.2,Win32,119.9472232,,,,,,,,,,,,,0,1,1,2,1,masks/mask_003.jpg,,,,,,,,,,,,,,,,,,,,,,,,,,,,,,,,,,,,,,,,,,,,,,,,,,,,,,,,,,,,,,,,,,,,,,,,,,,,,,,,,,,,,,,,,,,,,
153791,001,2022-11-21_01h30.39.720,Info_measure_main_exp,2022.2.2,Win32,119.9472232,,,,,,,,,,,,,0,2,2,1,1,masks/mask_002.jpg,,,,,,,,,,,,,,,,,,,,,,,,,,,,,,,,,,,,,,,,,,,,,,,,,,,,,,,,,,,,,,,,,,,,,,,,,,,,,,,,,,,,,,,,,,,,,
153791,001,2022-11-21_01h30.39.720,Info_measure_main_exp,2022.2.2,Win32,119.9472232,,,,,,,,,,,,,0,3,3,4,1,masks/mask_005.jpg,,,,,,,,,,,,,,,,,,,,,,,,,,,,,,,,,,,,,,,,,,,,,,,,,,,,,,,,,,,,,,,,,,,,,,,,,,,,,,,,,,,,,,,,,,,,,
153791,001,2022-11-21_01h30.39.720,Info_measure_main_exp,2022.2.2,Win32,119.9472232,,,,,,,,,,,,,0,4,4,3,1,masks/mask_004.jpg,,,,,,,,,,,,,,,,,,,,,,,,,,,,,,,,,,,,,,,,,,,,,,,,,,,,,,,,,,,,,,,,,,,,,,,,,,,,,,,,,,,,,,,,,,,,,
153791,001,2022-11-21_01h30.39.720,Info_measure_main_exp,2022.2.2,Win32,119.9472232,,,,,,,,,,,,,,,,,,masks/mask_005.jpg,0,0,0,4,1,,,,,,,,,,,,,,,,,,,,,,,,,,,,,,,,,,,,,,,,,,,,,,,,,,,,,,,,,,,,,,,,,,,,,,,,,,,,,,,,,,,,,,,,
153791,001,2022-11-21_01h30.39.720,Info_measure_main_exp,2022.2.2,Win32,119.9472232,,,,,,,,,,,,,,,,,,masks/mask_004.jpg,0,1,1,3,1,,,,,,,,,,,,,,,,,,,,,,,,,,,,,,,,,,,,,,,,,,,,,,,,,,,,,,,,,,,,,,,,,,,,,,,,,,,,,,,,,,,,,,,,
153791,001,2022-11-21_01h30.39.720,Info_measure_main_exp,2022.2.2,Win32,119.9472232,,,,,,,,,,,,,,,,,,masks/mask_002.jpg,0,2,2,1,1,,,,,,,,,,,,,,,,,,,,,,,,,,,,,,,,,,,,,,,,,,,,,,,,,,,,,,,,,,,,,,,,,,,,,,,,,,,,,,,,,,,,,,,,
153791,001,2022-11-21_01h30.39.720,Info_measure_main_exp,2022.2.2,Win32,119.9472232,,,,,,,,,,,,,,,,,,masks/mask_003.jpg,0,3,3,2,1,,,,,,,,,,,,,,,,,,,,,,,,,,,,,,,,,,,,,,,,,,,,,,,,,,,,,,,,,,,,,,,,,,,,,,,,,,,,,,,,,,,,,,,,
153791,001,2022-11-21_01h30.39.720,Info_measure_main_exp,2022.2.2,Win32,119.9472232,,,,,,,,,,,,,,,,,,masks/mask_001.jpg,0,4,4,0,1,,,,,,,,,,,,,,,,,,,,,,,,,,,,,,,,,,,,,,,,,,,,,,,,,,,,,,,,,,,,,,,,,,,,,,,,,,,,,,,,,,,,,,,,
153791,001,2022-11-21_01h30.39.720,Info_measure_main_exp,2022.2.2,Win32,119.9472232,,,,,,,,,,,,,,,,,,,,,,,,0.02870369,-0.053703697,1,0,0,response3disk,4,91.5148,1,-0.003703718,-0.00462963,1,0,0,center_square,0,2,2,1,1,0,131,5,5,2514,2490,prac_patch/patch0002514.jpg,prac_patch/patch0002490.jpg,,,,,,,,,,,,,,,,,,,,,,,,,,,,,,,,,,,,,,,,,,,,,,,,,,,,,,,,,,,,
153791,001,2022-11-21_01h30.39.720,Info_measure_main_exp,2022.2.2,Win32,119.9472232,,,,,,,,,,,,,,,,,,,,,,,,,,,,,,,,,,,,,,,,,,,,,,,,,,,,,,,,,,,space,2.4699,,,,,,,,,,,,,,,,,,,,,,,,,,,,,,,,,,,,,,,,,,,,,,,,,,,
153791,001,2022-11-21_01h30.39.720,Info_measure_main_exp,2022.2.2,Win32,119.9472232,,,,,,,,,,,,,,,,,,masks/mask_005.jpg,,,,,,,,,,,,,,,,,,,,,,,,,,,,,,,,,,,,,,,,,,,0,0,0,4,1,,,,,,,,,,,,,,,,,,,,,,,,,,,,,,,,,,,,,,,,,,,,,,
153791,001,2022-11-21_01h30.39.720,Info_measure_main_exp,2022.2.2,Win32,119.9472232,,,,,,,,,,,,,,,,,,masks/mask_003.jpg,,,,,,,,,,,,,,,,,,,,,,,,,,,,,,,,,,,,,,,,,,,0,1,1,2,1,,,,,,,,,,,,,,,,,,,,,,,,,,,,,,,,,,,,,,,,,,,,,,
153791,001,2022-11-21_01h30.39.720,Info_measure_main_exp,2022.2.2,Win32,119.9472232,,,,,,,,,,,,,,,,,,masks/mask_002.jpg,,,,,,,,,,,,,,,,,,,,,,,,,,,,,,,,,,,,,,,,,,,0,2,2,1,1,,,,,,,,,,,,,,,,,,,,,,,,,,,,,,,,,,,,,,,,,,,,,,
153791,001,2022-11-21_01h30.39.720,Info_measure_main_exp,2022.2.2,Win32,119.9472232,,,,,,,,,,,,,,,,,,masks/mask_004.jpg,,,,,,,,,,,,,,,,,,,,,,,,,,,,,,,,,,,,,,,,,,,0,3,3,3,1,,,,,,,,,,,,,,,,,,,,,,,,,,,,,,,,,,,,,,,,,,,,,,
153791,001,2022-11-21_01h30.39.720,Info_measure_main_exp,2022.2.2,Win32,119.9472232,,,,,,,,,,,,,,,,,,masks/mask_001.jpg,,,,,,,,,,,,,,,,,,,,,,,,,,,,,,,,,,,,,,,,,,,0,4,4,0,1,,,,,,,,,,,,,,,,,,,,,,,,,,,,,,,,,,,,,,,,,,,,,,
153791,001,2022-11-21_01h30.39.720,Info_measure_main_exp,2022.2.2,Win32,119.9472232,,,,,,,,,,,,,,,,,,masks/mask_003.jpg,,,,,,,,,,,,,,,,,,,,,,,,,,,,,,,,,,,,,,,,,,,,,,,,0,0,0,2,1,,,,,,,,,,,,,,,,,,,,,,,,,,,,,,,,,,,,,,,,,
153791,001,2022-11-21_01h30.39.720,Info_measure_main_exp,2022.2.2,Win32,119.9472232,,,,,,,,,,,,,,,,,,masks/mask_001.jpg,,,,,,,,,,,,,,,,,,,,,,,,,,,,,,,,,,,,,,,,,,,,,,,,0,1,1,0,1,,,,,,,,,,,,,,,,,,,,,,,,,,,,,,,,,,,,,,,,,
153791,001,2022-11-21_01h30.39.720,Info_measure_main_exp,2022.2.2,Win32,119.9472232,,,,,,,,,,,,,,,,,,masks/mask_004.jpg,,,,,,,,,,,,,,,,,,,,,,,,,,,,,,,,,,,,,,,,,,,,,,,,0,2,2,3,1,,,,,,,,,,,,,,,,,,,,,,,,,,,,,,,,,,,,,,,,,
153791,001,2022-11-21_01h30.39.720,Info_measure_main_exp,2022.2.2,Win32,119.9472232,,,,,,,,,,,,,,,,,,masks/mask_002.jpg,,,,,,,,,,,,,,,,,,,,,,,,,,,,,,,,,,,,,,,,,,,,,,,,0,3,3,1,1,,,,,,,,,,,,,,,,,,,,,,,,,,,,,,,,,,,,,,,,,
153791,001,2022-11-21_01h30.39.720,Info_measure_main_exp,2022.2.2,Win32,119.9472232,,,,,,,,,,,,,,,,,,masks/mask_005.jpg,,,,,,,,,,,,,,,,,,,,,,,,,,,,,,,,,,,,,,,,,,,,,,,,0,4,4,4,1,,,,,,,,,,,,,,,,,,,,,,,,,,,,,,,,,,,,,,,,,
153791,001,2022-11-21_01h30.39.720,Info_measure_main_exp,2022.2.2,Win32,119.9472232,,,,,,,,,,,,,,,,,,,,,,,,,,,,,,7,0.7917,1,,,,,,,,,,,,1,131,5,5,1,2214,present_patch/cong_131_5_a.jpg,absent_patch/patch0002214.jpg,,,,,,,,,,,,,,,,,,,,0.085185228,0.146296289,1,0,0,response1disk,1,-0.003703718,-0.003703718,1,0,0,center_square,0,0,0,4,1,,,,,,,,,,,,,,,,,,,,,,,
153791,001,2022-11-21_01h30.39.720,Info_measure_main_exp,2022.2.2,Win32,119.9472232,,,,,,,,,,,,,,,,,,masks/mask_003.jpg,,,,,,,,,,,,,,,,,,,,,,,,,,,,,,,,,,,,,,,,,,,0,0,0,2,1,,,,,,,,,,,,,,,,,,,,,,,,,,,,,,,,,,,,,,,,,,,,,,
153791,001,2022-11-21_01h30.39.720,Info_measure_main_exp,2022.2.2,Win32,119.9472232,,,,,,,,,,,,,,,,,,masks/mask_002.jpg,,,,,,,,,,,,,,,,,,,,,,,,,,,,,,,,,,,,,,,,,,,0,1,1,1,1,,,,,,,,,,,,,,,,,,,,,,,,,,,,,,,,,,,,,,,,,,,,,,
153791,001,2022-11-21_01h30.39.720,Info_measure_main_exp,2022.2.2,Win32,119.9472232,,,,,,,,,,,,,,,,,,masks/mask_004.jpg,,,,,,,,,,,,,,,,,,,,,,,,,,,,,,,,,,,,,,,,,,,0,2,2,3,1,,,,,,,,,,,,,,,,,,,,,,,,,,,,,,,,,,,,,,,,,,,,,,
153791,001,2022-11-21_01h30.39.720,Info_measure_main_exp,2022.2.2,Win32,119.9472232,,,,,,,,,,,,,,,,,,masks/mask_005.jpg,,,,,,,,,,,,,,,,,,,,,,,,,,,,,,,,,,,,,,,,,,,0,3,3,4,1,,,,,,,,,,,,,,,,,,,,,,,,,,,,,,,,,,,,,,,,,,,,,,
153791,001,2022-11-21_01h30.39.720,Info_measure_main_exp,2022.2.2,Win32,119.9472232,,,,,,,,,,,,,,,,,,masks/mask_001.jpg,,,,,,,,,,,,,,,,,,,,,,,,,,,,,,,,,,,,,,,,,,,0,4,4,0,1,,,,,,,,,,,,,,,,,,,,,,,,,,,,,,,,,,,,,,,,,,,,,,
153791,001,2022-11-21_01h30.39.720,Info_measure_main_exp,2022.2.2,Win32,119.9472232,,,,,,,,,,,,,,,,,,masks/mask_002.jpg,,,,,,,,,,,,,,,,,,,,,,,,,,,,,,,,,,,,,,,,,,,,,,,,0,0,0,1,1,,,,,,,,,,,,,,,,,,,,,,,,,,,,,,,,,,,,,,,,,
153791,001,2022-11-21_01h30.39.720,Info_measure_main_exp,2022.2.2,Win32,119.9472232,,,,,,,,,,,,,,,,,,masks/mask_003.jpg,,,,,,,,,,,,,,,,,,,,,,,,,,,,,,,,,,,,,,,,,,,,,,,,0,1,1,2,1,,,,,,,,,,,,,,,,,,,,,,,,,,,,,,,,,,,,,,,,,
153791,001,2022-11-21_01h30.39.720,Info_measure_main_exp,2022.2.2,Win32,119.9472232,,,,,,,,,,,,,,,,,,masks/mask_004.jpg,,,,,,,,,,,,,,,,,,,,,,,,,,,,,,,,,,,,,,,,,,,,,,,,0,2,2,3,1,,,,,,,,,,,,,,,,,,,,,,,,,,,,,,,,,,,,,,,,,
153791,001,2022-11-21_01h30.39.720,Info_measure_main_exp,2022.2.2,Win32,119.9472232,,,,,,,,,,,,,,,,,,masks/mask_001.jpg,,,,,,,,,,,,,,,,,,,,,,,,,,,,,,,,,,,,,,,,,,,,,,,,0,3,3,0,1,,,,,,,,,,,,,,,,,,,,,,,,,,,,,,,,,,,,,,,,,
153791,001,2022-11-21_01h30.39.720,Info_measure_main_exp,2022.2.2,Win32,119.9472232,,,,,,,,,,,,,,,,,,masks/mask_005.jpg,,,,,,,,,,,,,,,,,,,,,,,,,,,,,,,,,,,,,,,,,,,,,,,,0,4,4,4,1,,,,,,,,,,,,,,,,,,,,,,,,,,,,,,,,,,,,,,,,,
153791,001,2022-11-21_01h30.39.720,Info_measure_main_exp,2022.2.2,Win32,119.9472232,,,,,,,,,,,,,,,,,,,,,,,,,,,,,,6,2.1501,1,,,,,,,,,,,,0,131,5,5,1950,2214,absent_patch/patch0001950.jpg,absent_patch/patch0002214.jpg,,,,,,,,,,,,,,,,,,,,0.131481524,0.02407406,1,0,0,response1disk,2,0.009259259,-0.008333347,1,0,0,center_square,0,1,1,85,1,,,,,,,,,,,,,,,,,,,,,,,
153791,001,2022-11-21_01h30.39.720,Info_measure_main_exp,2022.2.2,Win32,119.9472232,,,,,,,,,,,,,,,,,,masks/mask_004.jpg,,,,,,,,,,,,,,,,,,,,,,,,,,,,,,,,,,,,,,,,,,,0,0,0,3,1,,,,,,,,,,,,,,,,,,,,,,,,,,,,,,,,,,,,,,,,,,,,,,
153791,001,2022-11-21_01h30.39.720,Info_measure_main_exp,2022.2.2,Win32,119.9472232,,,,,,,,,,,,,,,,,,masks/mask_005.jpg,,,,,,,,,,,,,,,,,,,,,,,,,,,,,,,,,,,,,,,,,,,0,1,1,4,1,,,,,,,,,,,,,,,,,,,,,,,,,,,,,,,,,,,,,,,,,,,,,,
153791,001,2022-11-21_01h30.39.720,Info_measure_main_exp,2022.2.2,Win32,119.9472232,,,,,,,,,,,,,,,,,,masks/mask_002.jpg,,,,,,,,,,,,,,,,,,,,,,,,,,,,,,,,,,,,,,,,,,,0,2,2,1,1,,,,,,,,,,,,,,,,,,,,,,,,,,,,,,,,,,,,,,,,,,,,,,
153791,001,2022-11-21_01h30.39.720,Info_measure_main_exp,2022.2.2,Win32,119.9472232,,,,,,,,,,,,,,,,,,masks/mask_001.jpg,,,,,,,,,,,,,,,,,,,,,,,,,,,,,,,,,,,,,,,,,,,0,3,3,0,1,,,,,,,,,,,,,,,,,,,,,,,,,,,,,,,,,,,,,,,,,,,,,,
153791,001,2022-11-21_01h30.39.720,Info_measure_main_exp,2022.2.2,Win32,119.9472232,,,,,,,,,,,,,,,,,,masks/mask_003.jpg,,,,,,,,,,,,,,,,,,,,,,,,,,,,,,,,,,,,,,,,,,,0,4,4,2,1,,,,,,,,,,,,,,,,,,,,,,,,,,,,,,,,,,,,,,,,,,,,,,
153791,001,2022-11-21_01h30.39.720,Info_measure_main_exp,2022.2.2,Win32,119.9472232,,,,,,,,,,,,,,,,,,masks/mask_005.jpg,,,,,,,,,,,,,,,,,,,,,,,,,,,,,,,,,,,,,,,,,,,,,,,,0,0,0,4,1,,,,,,,,,,,,,,,,,,,,,,,,,,,,,,,,,,,,,,,,,
153791,001,2022-11-21_01h30.39.720,Info_measure_main_exp,2022.2.2,Win32,119.9472232,,,,,,,,,,,,,,,,,,masks/mask_001.jpg,,,,,,,,,,,,,,,,,,,,,,,,,,,,,,,,,,,,,,,,,,,,,,,,0,1,1,0,1,,,,,,,,,,,,,,,,,,,,,,,,,,,,,,,,,,,,,,,,,
153791,001,2022-11-21_01h30.39.720,Info_measure_main_exp,2022.2.2,Win32,119.9472232,,,,,,,,,,,,,,,,,,masks/mask_003.jpg,,,,,,,,,,,,,,,,,,,,,,,,,,,,,,,,,,,,,,,,,,,,,,,,0,2,2,2,1,,,,,,,,,,,,,,,,,,,,,,,,,,,,,,,,,,,,,,,,,
153791,001,2022-11-21_01h30.39.720,Info_measure_main_exp,2022.2.2,Win32,119.9472232,,,,,,,,,,,,,,,,,,masks/mask_004.jpg,,,,,,,,,,,,,,,,,,,,,,,,,,,,,,,,,,,,,,,,,,,,,,,,0,3,3,3,1,,,,,,,,,,,,,,,,,,,,,,,,,,,,,,,,,,,,,,,,,
153791,001,2022-11-21_01h30.39.720,Info_measure_main_exp,2022.2.2,Win32,119.9472232,,,,,,,,,,,,,,,,,,masks/mask_002.jpg,,,,,,,,,,,,,,,,,,,,,,,,,,,,,,,,,,,,,,,,,,,,,,,,0,4,4,1,1,,,,,,,,,,,,,,,,,,,,,,,,,,,,,,,,,,,,,,,,,
153791,001,2022-11-21_01h30.39.720,Info_measure_main_exp,2022.2.2,Win32,119.9472232,,,,,,,,,,,,,,,,,,,,,,,,,,,,,,0,0.75,1,,,,,,,,,,,,0,131,5,5,2082,2082,absent_patch/patch0002082.jpg,absent_patch/patch0002082.jpg,,,,,,,,,,,,,,,,,,,,-0.053703661,0.118518511,1,0,0,response7disk,3,0.010185171,-0.006481489,1,0,0,center_square,0,2,2,74,1,,,,,,,,,,,,,,,,,,,,,,,
153791,001,2022-11-21_01h30.39.720,Info_measure_main_exp,2022.2.2,Win32,119.9472232,,,,,,,,,,,,,,,,,,masks/mask_005.jpg,,,,,,,,,,,,,,,,,,,,,,,,,,,,,,,,,,,,,,,,,,,0,0,0,4,1,,,,,,,,,,,,,,,,,,,,,,,,,,,,,,,,,,,,,,,,,,,,,,
153791,001,2022-11-21_01h30.39.720,Info_measure_main_exp,2022.2.2,Win32,119.9472232,,,,,,,,,,,,,,,,,,masks/mask_004.jpg,,,,,,,,,,,,,,,,,,,,,,,,,,,,,,,,,,,,,,,,,,,0,1,1,3,1,,,,,,,,,,,,,,,,,,,,,,,,,,,,,,,,,,,,,,,,,,,,,,
153791,001,2022-11-21_01h30.39.720,Info_measure_main_exp,2022.2.2,Win32,119.9472232,,,,,,,,,,,,,,,,,,masks/mask_001.jpg,,,,,,,,,,,,,,,,,,,,,,,,,,,,,,,,,,,,,,,,,,,0,2,2,0,1,,,,,,,,,,,,,,,,,,,,,,,,,,,,,,,,,,,,,,,,,,,,,,
153791,001,2022-11-21_01h30.39.720,Info_measure_main_exp,2022.2.2,Win32,119.9472232,,,,,,,,,,,,,,,,,,masks/mask_002.jpg,,,,,,,,,,,,,,,,,,,,,,,,,,,,,,,,,,,,,,,,,,,0,3,3,1,1,,,,,,,,,,,,,,,,,,,,,,,,,,,,,,,,,,,,,,,,,,,,,,
153791,001,2022-11-21_01h30.39.720,Info_measure_main_exp,2022.2.2,Win32,119.9472232,,,,,,,,,,,,,,,,,,masks/mask_003.jpg,,,,,,,,,,,,,,,,,,,,,,,,,,,,,,,,,,,,,,,,,,,0,4,4,2,1,,,,,,,,,,,,,,,,,,,,,,,,,,,,,,,,,,,,,,,,,,,,,,
153791,001,2022-11-21_01h30.39.720,Info_measure_main_exp,2022.2.2,Win32,119.9472232,,,,,,,,,,,,,,,,,,masks/mask_001.jpg,,,,,,,,,,,,,,,,,,,,,,,,,,,,,,,,,,,,,,,,,,,,,,,,0,0,0,0,1,,,,,,,,,,,,,,,,,,,,,,,,,,,,,,,,,,,,,,,,,
153791,001,2022-11-21_01h30.39.720,Info_measure_main_exp,2022.2.2,Win32,119.9472232,,,,,,,,,,,,,,,,,,masks/mask_003.jpg,,,,,,,,,,,,,,,,,,,,,,,,,,,,,,,,,,,,,,,,,,,,,,,,0,1,1,2,1,,,,,,,,,,,,,,,,,,,,,,,,,,,,,,,,,,,,,,,,,
153791,001,2022-11-21_01h30.39.720,Info_measure_main_exp,2022.2.2,Win32,119.9472232,,,,,,,,,,,,,,,,,,masks/mask_005.jpg,,,,,,,,,,,,,,,,,,,,,,,,,,,,,,,,,,,,,,,,,,,,,,,,0,2,2,4,1,,,,,,,,,,,,,,,,,,,,,,,,,,,,,,,,,,,,,,,,,
153791,001,2022-11-21_01h30.39.720,Info_measure_main_exp,2022.2.2,Win32,119.9472232,,,,,,,,,,,,,,,,,,masks/mask_002.jpg,,,,,,,,,,,,,,,,,,,,,,,,,,,,,,,,,,,,,,,,,,,,,,,,0,3,3,1,1,,,,,,,,,,,,,,,,,,,,,,,,,,,,,,,,,,,,,,,,,
153791,001,2022-11-21_01h30.39.720,Info_measure_main_exp,2022.2.2,Win32,119.9472232,,,,,,,,,,,,,,,,,,masks/mask_004.jpg,,,,,,,,,,,,,,,,,,,,,,,,,,,,,,,,,,,,,,,,,,,,,,,,0,4,4,3,1,,,,,,,,,,,,,,,,,,,,,,,,,,,,,,,,,,,,,,,,,
153791,001,2022-11-21_01h30.39.720,Info_measure_main_exp,2022.2.2,Win32,119.9472232,,,,,,,,,,,,,,,,,,,,,,,,,,,,,,7,1.0251,1,,,,,,,,,,,,0,131,5,5,1974,2166,absent_patch/patch0001974.jpg,absent_patch/patch0002166.jpg,,,,,,,,,,,,,,,,,,,,0.053703732,0.119444423,1,0,0,response1disk,4,0.00462963,0.00462963,1,0,0,center_square,0,3,3,77,1,,,,,,,,,,,,,,,,,,,,,,,
153791,001,2022-11-21_01h30.39.720,Info_measure_main_exp,2022.2.2,Win32,119.9472232,,,,,,,,,,,,,,,,,,masks/mask_001.jpg,,,,,,,,,,,,,,,,,,,,,,,,,,,,,,,,,,,,,,,,,,,0,0,0,0,1,,,,,,,,,,,,,,,,,,,,,,,,,,,,,,,,,,,,,,,,,,,,,,
153791,001,2022-11-21_01h30.39.720,Info_measure_main_exp,2022.2.2,Win32,119.9472232,,,,,,,,,,,,,,,,,,masks/mask_004.jpg,,,,,,,,,,,,,,,,,,,,,,,,,,,,,,,,,,,,,,,,,,,0,1,1,3,1,,,,,,,,,,,,,,,,,,,,,,,,,,,,,,,,,,,,,,,,,,,,,,
153791,001,2022-11-21_01h30.39.720,Info_measure_main_exp,2022.2.2,Win32,119.9472232,,,,,,,,,,,,,,,,,,masks/mask_005.jpg,,,,,,,,,,,,,,,,,,,,,,,,,,,,,,,,,,,,,,,,,,,0,2,2,4,1,,,,,,,,,,,,,,,,,,,,,,,,,,,,,,,,,,,,,,,,,,,,,,
153791,001,2022-11-21_01h30.39.720,Info_measure_main_exp,2022.2.2,Win32,119.9472232,,,,,,,,,,,,,,,,,,masks/mask_003.jpg,,,,,,,,,,,,,,,,,,,,,,,,,,,,,,,,,,,,,,,,,,,0,3,3,2,1,,,,,,,,,,,,,,,,,,,,,,,,,,,,,,,,,,,,,,,,,,,,,,
153791,001,2022-11-21_01h30.39.720,Info_measure_main_exp,2022.2.2,Win32,119.9472232,,,,,,,,,,,,,,,,,,masks/mask_002.jpg,,,,,,,,,,,,,,,,,,,,,,,,,,,,,,,,,,,,,,,,,,,0,4,4,1,1,,,,,,,,,,,,,,,,,,,,,,,,,,,,,,,,,,,,,,,,,,,,,,
153791,001,2022-11-21_01h30.39.720,Info_measure_main_exp,2022.2.2,Win32,119.9472232,,,,,,,,,,,,,,,,,,masks/mask_002.jpg,,,,,,,,,,,,,,,,,,,,,,,,,,,,,,,,,,,,,,,,,,,,,,,,0,0,0,1,1,,,,,,,,,,,,,,,,,,,,,,,,,,,,,,,,,,,,,,,,,
153791,001,2022-11-21_01h30.39.720,Info_measure_main_exp,2022.2.2,Win32,119.9472232,,,,,,,,,,,,,,,,,,masks/mask_004.jpg,,,,,,,,,,,,,,,,,,,,,,,,,,,,,,,,,,,,,,,,,,,,,,,,0,1,1,3,1,,,,,,,,,,,,,,,,,,,,,,,,,,,,,,,,,,,,,,,,,
153791,001,2022-11-21_01h30.39.720,Info_measure_main_exp,2022.2.2,Win32,119.9472232,,,,,,,,,,,,,,,,,,masks/mask_003.jpg,,,,,,,,,,,,,,,,,,,,,,,,,,,,,,,,,,,,,,,,,,,,,,,,0,2,2,2,1,,,,,,,,,,,,,,,,,,,,,,,,,,,,,,,,,,,,,,,,,
153791,001,2022-11-21_01h30.39.720,Info_measure_main_exp,2022.2.2,Win32,119.9472232,,,,,,,,,,,,,,,,,,masks/mask_001.jpg,,,,,,,,,,,,,,,,,,,,,,,,,,,,,,,,,,,,,,,,,,,,,,,,0,3,3,0,1,,,,,,,,,,,,,,,,,,,,,,,,,,,,,,,,,,,,,,,,,
153791,001,2022-11-21_01h30.39.720,Info_measure_main_exp,2022.2.2,Win32,119.9472232,,,,,,,,,,,,,,,,,,masks/mask_005.jpg,,,,,,,,,,,,,,,,,,,,,,,,,,,,,,,,,,,,,,,,,,,,,,,,0,4,4,4,1,,,,,,,,,,,,,,,,,,,,,,,,,,,,,,,,,,,,,,,,,
153791,001,2022-11-21_01h30.39.720,Info_measure_main_exp,2022.2.2,Win32,119.9472232,,,,,,,,,,,,,,,,,,,,,,,,,,,,,,5,1.6167,1,,,,,,,,,,,,0,131,5,5,2274,2214,absent_patch/patch0002274.jpg,absent_patch/patch0002214.jpg,,,,,,,,,,,,,,,,,,,,0.176851838,-0.089814822,1,0,0,response3disk,5,-0.001851824,-0.006481489,1,0,0,center_square,0,4,4,11,1,,,,,,,,,,,,,,,,,,,,,,,
153791,001,2022-11-21_01h30.39.720,Info_measure_main_exp,2022.2.2,Win32,119.9472232,,,,,,,,,,,,,,,,,,masks/mask_003.jpg,,,,,,,,,,,,,,,,,,,,,,,,,,,,,,,,,,,,,,,,,,,0,0,0,2,1,,,,,,,,,,,,,,,,,,,,,,,,,,,,,,,,,,,,,,,,,,,,,,
153791,001,2022-11-21_01h30.39.720,Info_measure_main_exp,2022.2.2,Win32,119.9472232,,,,,,,,,,,,,,,,,,masks/mask_002.jpg,,,,,,,,,,,,,,,,,,,,,,,,,,,,,,,,,,,,,,,,,,,0,1,1,1,1,,,,,,,,,,,,,,,,,,,,,,,,,,,,,,,,,,,,,,,,,,,,,,
153791,001,2022-11-21_01h30.39.720,Info_measure_main_exp,2022.2.2,Win32,119.9472232,,,,,,,,,,,,,,,,,,masks/mask_001.jpg,,,,,,,,,,,,,,,,,,,,,,,,,,,,,,,,,,,,,,,,,,,0,2,2,0,1,,,,,,,,,,,,,,,,,,,,,,,,,,,,,,,,,,,,,,,,,,,,,,
153791,001,2022-11-21_01h30.39.720,Info_measure_main_exp,2022.2.2,Win32,119.9472232,,,,,,,,,,,,,,,,,,masks/mask_004.jpg,,,,,,,,,,,,,,,,,,,,,,,,,,,,,,,,,,,,,,,,,,,0,3,3,3,1,,,,,,,,,,,,,,,,,,,,,,,,,,,,,,,,,,,,,,,,,,,,,,
153791,001,2022-11-21_01h30.39.720,Info_measure_main_exp,2022.2.2,Win32,119.9472232,,,,,,,,,,,,,,,,,,masks/mask_005.jpg,,,,,,,,,,,,,,,,,,,,,,,,,,,,,,,,,,,,,,,,,,,0,4,4,4,1,,,,,,,,,,,,,,,,,,,,,,,,,,,,,,,,,,,,,,,,,,,,,,
153791,001,2022-11-21_01h30.39.720,Info_measure_main_exp,2022.2.2,Win32,119.9472232,,,,,,,,,,,,,,,,,,masks/mask_001.jpg,,,,,,,,,,,,,,,,,,,,,,,,,,,,,,,,,,,,,,,,,,,,,,,,0,0,0,0,1,,,,,,,,,,,,,,,,,,,,,,,,,,,,,,,,,,,,,,,,,
153791,001,2022-11-21_01h30.39.720,Info_measure_main_exp,2022.2.2,Win32,119.9472232,,,,,,,,,,,,,,,,,,masks/mask_005.jpg,,,,,,,,,,,,,,,,,,,,,,,,,,,,,,,,,,,,,,,,,,,,,,,,0,1,1,4,1,,,,,,,,,,,,,,,,,,,,,,,,,,,,,,,,,,,,,,,,,
153791,001,2022-11-21_01h30.39.720,Info_measure_main_exp,2022.2.2,Win32,119.9472232,,,,,,,,,,,,,,,,,,masks/mask_003.jpg,,,,,,,,,,,,,,,,,,,,,,,,,,,,,,,,,,,,,,,,,,,,,,,,0,2,2,2,1,,,,,,,,,,,,,,,,,,,,,,,,,,,,,,,,,,,,,,,,,
153791,001,2022-11-21_01h30.39.720,Info_measure_main_exp,2022.2.2,Win32,119.9472232,,,,,,,,,,,,,,,,,,masks/mask_004.jpg,,,,,,,,,,,,,,,,,,,,,,,,,,,,,,,,,,,,,,,,,,,,,,,,0,3,3,3,1,,,,,,,,,,,,,,,,,,,,,,,,,,,,,,,,,,,,,,,,,
153791,001,2022-11-21_01h30.39.720,Info_measure_main_exp,2022.2.2,Win32,119.9472232,,,,,,,,,,,,,,,,,,masks/mask_002.jpg,,,,,,,,,,,,,,,,,,,,,,,,,,,,,,,,,,,,,,,,,,,,,,,,0,4,4,1,1,,,,,,,,,,,,,,,,,,,,,,,,,,,,,,,,,,,,,,,,,
153791,001,2022-11-21_01h30.39.720,Info_measure_main_exp,2022.2.2,Win32,119.9472232,,,,,,,,,,,,,,,,,,,,,,,,,,,,,,4,4.8418,1,,,,,,,,,,,,0,131,5,5,2082,1974,absent_patch/patch0002082.jpg,absent_patch/patch0001974.jpg,,,,,,,,,,,,,,,,,,,,0.005555541,-0.116666653,1,0,0,response3disk,6,-0.001851824,-0.005555577,1,0,0,center_square,0,5,5,26,1,,,,,,,,,,,,,,,,,,,,,,,
153791,001,2022-11-21_01h30.39.720,Info_measure_main_exp,2022.2.2,Win32,119.9472232,,,,,,,,,,,,,,,,,,masks/mask_002.jpg,,,,,,,,,,,,,,,,,,,,,,,,,,,,,,,,,,,,,,,,,,,0,0,0,1,1,,,,,,,,,,,,,,,,,,,,,,,,,,,,,,,,,,,,,,,,,,,,,,
153791,001,2022-11-21_01h30.39.720,Info_measure_main_exp,2022.2.2,Win32,119.9472232,,,,,,,,,,,,,,,,,,masks/mask_001.jpg,,,,,,,,,,,,,,,,,,,,,,,,,,,,,,,,,,,,,,,,,,,0,1,1,0,1,,,,,,,,,,,,,,,,,,,,,,,,,,,,,,,,,,,,,,,,,,,,,,
153791,001,2022-11-21_01h30.39.720,Info_measure_main_exp,2022.2.2,Win32,119.9472232,,,,,,,,,,,,,,,,,,masks/mask_003.jpg,,,,,,,,,,,,,,,,,,,,,,,,,,,,,,,,,,,,,,,,,,,0,2,2,2,1,,,,,,,,,,,,,,,,,,,,,,,,,,,,,,,,,,,,,,,,,,,,,,
153791,001,2022-11-21_01h30.39.720,Info_measure_main_exp,2022.2.2,Win32,119.9472232,,,,,,,,,,,,,,,,,,masks/mask_005.jpg,,,,,,,,,,,,,,,,,,,,,,,,,,,,,,,,,,,,,,,,,,,0,3,3,4,1,,,,,,,,,,,,,,,,,,,,,,,,,,,,,,,,,,,,,,,,,,,,,,
153791,001,2022-11-21_01h30.39.720,Info_measure_main_exp,2022.2.2,Win32,119.9472232,,,,,,,,,,,,,,,,,,masks/mask_004.jpg,,,,,,,,,,,,,,,,,,,,,,,,,,,,,,,,,,,,,,,,,,,0,4,4,3,1,,,,,,,,,,,,,,,,,,,,,,,,,,,,,,,,,,,,,,,,,,,,,,
153791,001,2022-11-21_01h30.39.720,Info_measure_main_exp,2022.2.2,Win32,119.9472232,,,,,,,,,,,,,,,,,,masks/mask_001.jpg,,,,,,,,,,,,,,,,,,,,,,,,,,,,,,,,,,,,,,,,,,,,,,,,0,0,0,0,1,,,,,,,,,,,,,,,,,,,,,,,,,,,,,,,,,,,,,,,,,
153791,001,2022-11-21_01h30.39.720,Info_measure_main_exp,2022.2.2,Win32,119.9472232,,,,,,,,,,,,,,,,,,masks/mask_004.jpg,,,,,,,,,,,,,,,,,,,,,,,,,,,,,,,,,,,,,,,,,,,,,,,,0,1,1,3,1,,,,,,,,,,,,,,,,,,,,,,,,,,,,,,,,,,,,,,,,,
153791,001,2022-11-21_01h30.39.720,Info_measure_main_exp,2022.2.2,Win32,119.9472232,,,,,,,,,,,,,,,,,,masks/mask_002.jpg,,,,,,,,,,,,,,,,,,,,,,,,,,,,,,,,,,,,,,,,,,,,,,,,0,2,2,1,1,,,,,,,,,,,,,,,,,,,,,,,,,,,,,,,,,,,,,,,,,
153791,001,2022-11-21_01h30.39.720,Info_measure_main_exp,2022.2.2,Win32,119.9472232,,,,,,,,,,,,,,,,,,masks/mask_005.jpg,,,,,,,,,,,,,,,,,,,,,,,,,,,,,,,,,,,,,,,,,,,,,,,,0,3,3,4,1,,,,,,,,,,,,,,,,,,,,,,,,,,,,,,,,,,,,,,,,,
153791,001,2022-11-21_01h30.39.720,Info_measure_main_exp,2022.2.2,Win32,119.9472232,,,,,,,,,,,,,,,,,,masks/mask_003.jpg,,,,,,,,,,,,,,,,,,,,,,,,,,,,,,,,,,,,,,,,,,,,,,,,0,4,4,2,1,,,,,,,,,,,,,,,,,,,,,,,,,,,,,,,,,,,,,,,,,
153791,001,2022-11-21_01h30.39.720,Info_measure_main_exp,2022.2.2,Win32,119.9472232,,,,,,,,,,,,,,,,,,,,,,,,,,,,,,3,3.3418,1,,,,,,,,,,,,1,131,5,5,1,2166,present_patch/cong_131_5_a.jpg,absent_patch/patch0002166.jpg,,,,,,,,,,,,,,,,,,,,-0.016666624,-0.139814801,1,0,0,response5disk,7,-0.008333347,-0.001851859,1,0,0,center_square,0,6,6,54,1,,,,,,,,,,,,,,,,,,,,,,,
153791,001,2022-11-21_01h30.39.720,Info_measure_main_exp,2022.2.2,Win32,119.9472232,,,,,,,,,,,,,,,,,,masks/mask_001.jpg,,,,,,,,,,,,,,,,,,,,,,,,,,,,,,,,,,,,,,,,,,,0,0,0,0,1,,,,,,,,,,,,,,,,,,,,,,,,,,,,,,,,,,,,,,,,,,,,,,
153791,001,2022-11-21_01h30.39.720,Info_measure_main_exp,2022.2.2,Win32,119.9472232,,,,,,,,,,,,,,,,,,masks/mask_003.jpg,,,,,,,,,,,,,,,,,,,,,,,,,,,,,,,,,,,,,,,,,,,0,1,1,2,1,,,,,,,,,,,,,,,,,,,,,,,,,,,,,,,,,,,,,,,,,,,,,,
153791,001,2022-11-21_01h30.39.720,Info_measure_main_exp,2022.2.2,Win32,119.9472232,,,,,,,,,,,,,,,,,,masks/mask_005.jpg,,,,,,,,,,,,,,,,,,,,,,,,,,,,,,,,,,,,,,,,,,,0,2,2,4,1,,,,,,,,,,,,,,,,,,,,,,,,,,,,,,,,,,,,,,,,,,,,,,
153791,001,2022-11-21_01h30.39.720,Info_measure_main_exp,2022.2.2,Win32,119.9472232,,,,,,,,,,,,,,,,,,masks/mask_002.jpg,,,,,,,,,,,,,,,,,,,,,,,,,,,,,,,,,,,,,,,,,,,0,3,3,1,1,,,,,,,,,,,,,,,,,,,,,,,,,,,,,,,,,,,,,,,,,,,,,,
153791,001,2022-11-21_01h30.39.720,Info_measure_main_exp,2022.2.2,Win32,119.9472232,,,,,,,,,,,,,,,,,,masks/mask_004.jpg,,,,,,,,,,,,,,,,,,,,,,,,,,,,,,,,,,,,,,,,,,,0,4,4,3,1,,,,,,,,,,,,,,,,,,,,,,,,,,,,,,,,,,,,,,,,,,,,,,
153791,001,2022-11-21_01h30.39.720,Info_measure_main_exp,2022.2.2,Win32,119.9472232,,,,,,,,,,,,,,,,,,masks/mask_004.jpg,,,,,,,,,,,,,,,,,,,,,,,,,,,,,,,,,,,,,,,,,,,,,,,,0,0,0,3,1,,,,,,,,,,,,,,,,,,,,,,,,,,,,,,,,,,,,,,,,,
153791,001,2022-11-21_01h30.39.720,Info_measure_main_exp,2022.2.2,Win32,119.9472232,,,,,,,,,,,,,,,,,,masks/mask_003.jpg,,,,,,,,,,,,,,,,,,,,,,,,,,,,,,,,,,,,,,,,,,,,,,,,0,1,1,2,1,,,,,,,,,,,,,,,,,,,,,,,,,,,,,,,,,,,,,,,,,
153791,001,2022-11-21_01h30.39.720,Info_measure_main_exp,2022.2.2,Win32,119.9472232,,,,,,,,,,,,,,,,,,masks/mask_002.jpg,,,,,,,,,,,,,,,,,,,,,,,,,,,,,,,,,,,,,,,,,,,,,,,,0,2,2,1,1,,,,,,,,,,,,,,,,,,,,,,,,,,,,,,,,,,,,,,,,,
153791,001,2022-11-21_01h30.39.720,Info_measure_main_exp,2022.2.2,Win32,119.9472232,,,,,,,,,,,,,,,,,,masks/mask_001.jpg,,,,,,,,,,,,,,,,,,,,,,,,,,,,,,,,,,,,,,,,,,,,,,,,0,3,3,0,1,,,,,,,,,,,,,,,,,,,,,,,,,,,,,,,,,,,,,,,,,
153791,001,2022-11-21_01h30.39.720,Info_measure_main_exp,2022.2.2,Win32,119.9472232,,,,,,,,,,,,,,,,,,masks/mask_005.jpg,,,,,,,,,,,,,,,,,,,,,,,,,,,,,,,,,,,,,,,,,,,,,,,,0,4,4,4,1,,,,,,,,,,,,,,,,,,,,,,,,,,,,,,,,,,,,,,,,,
153791,001,2022-11-21_01h30.39.720,Info_measure_main_exp,2022.2.2,Win32,119.9472232,,,,,,,,,,,,,,,,,,,,,,,,,,,,,,2,2.3418,1,,,,,,,,,,,,0,131,5,5,2190,2178,absent_patch/patch0002190.jpg,absent_patch/patch0002178.jpg,,,,,,,,,,,,,,,,,,,,-0.080555527,-0.048148155,1,0,0,response5disk,8,-0.00462963,0,1,0,0,center_square,0,7,7,14,1,,,,,,,,,,,,,,,,,,,,,,,
153791,001,2022-11-21_01h30.39.720,Info_measure_main_exp,2022.2.2,Win32,119.9472232,,,,,,,,,,,,,,,,,,masks/mask_003.jpg,,,,,,,,,,,,,,,,,,,,,,,,,,,,,,,,,,,,,,,,,,,0,0,0,2,1,,,,,,,,,,,,,,,,,,,,,,,,,,,,,,,,,,,,,,,,,,,,,,
153791,001,2022-11-21_01h30.39.720,Info_measure_main_exp,2022.2.2,Win32,119.9472232,,,,,,,,,,,,,,,,,,masks/mask_004.jpg,,,,,,,,,,,,,,,,,,,,,,,,,,,,,,,,,,,,,,,,,,,0,1,1,3,1,,,,,,,,,,,,,,,,,,,,,,,,,,,,,,,,,,,,,,,,,,,,,,
153791,001,2022-11-21_01h30.39.720,Info_measure_main_exp,2022.2.2,Win32,119.9472232,,,,,,,,,,,,,,,,,,masks/mask_005.jpg,,,,,,,,,,,,,,,,,,,,,,,,,,,,,,,,,,,,,,,,,,,0,2,2,4,1,,,,,,,,,,,,,,,,,,,,,,,,,,,,,,,,,,,,,,,,,,,,,,
153791,001,2022-11-21_01h30.39.720,Info_measure_main_exp,2022.2.2,Win32,119.9472232,,,,,,,,,,,,,,,,,,masks/mask_002.jpg,,,,,,,,,,,,,,,,,,,,,,,,,,,,,,,,,,,,,,,,,,,0,3,3,1,1,,,,,,,,,,,,,,,,,,,,,,,,,,,,,,,,,,,,,,,,,,,,,,
153791,001,2022-11-21_01h30.39.720,Info_measure_main_exp,2022.2.2,Win32,119.9472232,,,,,,,,,,,,,,,,,,masks/mask_001.jpg,,,,,,,,,,,,,,,,,,,,,,,,,,,,,,,,,,,,,,,,,,,0,4,4,0,1,,,,,,,,,,,,,,,,,,,,,,,,,,,,,,,,,,,,,,,,,,,,,,
153791,001,2022-11-21_01h30.39.720,Info_measure_main_exp,2022.2.2,Win32,119.9472232,,,,,,,,,,,,,,,,,,masks/mask_001.jpg,,,,,,,,,,,,,,,,,,,,,,,,,,,,,,,,,,,,,,,,,,,,,,,,0,0,0,0,1,,,,,,,,,,,,,,,,,,,,,,,,,,,,,,,,,,,,,,,,,
153791,001,2022-11-21_01h30.39.720,Info_measure_main_exp,2022.2.2,Win32,119.9472232,,,,,,,,,,,,,,,,,,masks/mask_003.jpg,,,,,,,,,,,,,,,,,,,,,,,,,,,,,,,,,,,,,,,,,,,,,,,,0,1,1,2,1,,,,,,,,,,,,,,,,,,,,,,,,,,,,,,,,,,,,,,,,,
153791,001,2022-11-21_01h30.39.720,Info_measure_main_exp,2022.2.2,Win32,119.9472232,,,,,,,,,,,,,,,,,,masks/mask_002.jpg,,,,,,,,,,,,,,,,,,,,,,,,,,,,,,,,,,,,,,,,,,,,,,,,0,2,2,1,1,,,,,,,,,,,,,,,,,,,,,,,,,,,,,,,,,,,,,,,,,
153791,001,2022-11-21_01h30.39.720,Info_measure_main_exp,2022.2.2,Win32,119.9472232,,,,,,,,,,,,,,,,,,masks/mask_005.jpg,,,,,,,,,,,,,,,,,,,,,,,,,,,,,,,,,,,,,,,,,,,,,,,,0,3,3,4,1,,,,,,,,,,,,,,,,,,,,,,,,,,,,,,,,,,,,,,,,,
153791,001,2022-11-21_01h30.39.720,Info_measure_main_exp,2022.2.2,Win32,119.9472232,,,,,,,,,,,,,,,,,,masks/mask_004.jpg,,,,,,,,,,,,,,,,,,,,,,,,,,,,,,,,,,,,,,,,,,,,,,,,0,4,4,3,1,,,,,,,,,,,,,,,,,,,,,,,,,,,,,,,,,,,,,,,,,
153791,001,2022-11-21_01h30.39.720,Info_measure_main_exp,2022.2.2,Win32,119.9472232,,,,,,,,,,,,,,,,,,,,,,,,,,,,,,7,1.056,1,,,,,,,,,,,,0,131,5,5,1986,1950,absent_patch/patch0001986.jpg,absent_patch/patch0001950.jpg,,,,,,,,,,,,,,,,,,,,0.058333362,0.096296275,1,0,0,response1disk,9,0.003703718,0,1,0,0,center_square,0,8,8,15,1,,,,,,,,,,,,,,,,,,,,,,,
153791,001,2022-11-21_01h30.39.720,Info_measure_main_exp,2022.2.2,Win32,119.9472232,,,,,,,,,,,,,,,,,,masks/mask_005.jpg,,,,,,,,,,,,,,,,,,,,,,,,,,,,,,,,,,,,,,,,,,,0,0,0,4,1,,,,,,,,,,,,,,,,,,,,,,,,,,,,,,,,,,,,,,,,,,,,,,
153791,001,2022-11-21_01h30.39.720,Info_measure_main_exp,2022.2.2,Win32,119.9472232,,,,,,,,,,,,,,,,,,masks/mask_003.jpg,,,,,,,,,,,,,,,,,,,,,,,,,,,,,,,,,,,,,,,,,,,0,1,1,2,1,,,,,,,,,,,,,,,,,,,,,,,,,,,,,,,,,,,,,,,,,,,,,,
153791,001,2022-11-21_01h30.39.720,Info_measure_main_exp,2022.2.2,Win32,119.9472232,,,,,,,,,,,,,,,,,,masks/mask_002.jpg,,,,,,,,,,,,,,,,,,,,,,,,,,,,,,,,,,,,,,,,,,,0,2,2,1,1,,,,,,,,,,,,,,,,,,,,,,,,,,,,,,,,,,,,,,,,,,,,,,
153791,001,2022-11-21_01h30.39.720,Info_measure_main_exp,2022.2.2,Win32,119.9472232,,,,,,,,,,,,,,,,,,masks/mask_001.jpg,,,,,,,,,,,,,,,,,,,,,,,,,,,,,,,,,,,,,,,,,,,0,3,3,0,1,,,,,,,,,,,,,,,,,,,,,,,,,,,,,,,,,,,,,,,,,,,,,,
153791,001,2022-11-21_01h30.39.720,Info_measure_main_exp,2022.2.2,Win32,119.9472232,,,,,,,,,,,,,,,,,,masks/mask_004.jpg,,,,,,,,,,,,,,,,,,,,,,,,,,,,,,,,,,,,,,,,,,,0,4,4,3,1,,,,,,,,,,,,,,,,,,,,,,,,,,,,,,,,,,,,,,,,,,,,,,
153791,001,2022-11-21_01h30.39.720,Info_measure_main_exp,2022.2.2,Win32,119.9472232,,,,,,,,,,,,,,,,,,masks/mask_004.jpg,,,,,,,,,,,,,,,,,,,,,,,,,,,,,,,,,,,,,,,,,,,,,,,,0,0,0,3,1,,,,,,,,,,,,,,,,,,,,,,,,,,,,,,,,,,,,,,,,,
153791,001,2022-11-21_01h30.39.720,Info_measure_main_exp,2022.2.2,Win32,119.9472232,,,,,,,,,,,,,,,,,,masks/mask_002.jpg,,,,,,,,,,,,,,,,,,,,,,,,,,,,,,,,,,,,,,,,,,,,,,,,0,1,1,1,1,,,,,,,,,,,,,,,,,,,,,,,,,,,,,,,,,,,,,,,,,
153791,001,2022-11-21_01h30.39.720,Info_measure_main_exp,2022.2.2,Win32,119.9472232,,,,,,,,,,,,,,,,,,masks/mask_005.jpg,,,,,,,,,,,,,,,,,,,,,,,,,,,,,,,,,,,,,,,,,,,,,,,,0,2,2,4,1,,,,,,,,,,,,,,,,,,,,,,,,,,,,,,,,,,,,,,,,,
153791,001,2022-11-21_01h30.39.720,Info_measure_main_exp,2022.2.2,Win32,119.9472232,,,,,,,,,,,,,,,,,,masks/mask_003.jpg,,,,,,,,,,,,,,,,,,,,,,,,,,,,,,,,,,,,,,,,,,,,,,,,0,3,3,2,1,,,,,,,,,,,,,,,,,,,,,,,,,,,,,,,,,,,,,,,,,
153791,001,2022-11-21_01h30.39.720,Info_measure_main_exp,2022.2.2,Win32,119.9472232,,,,,,,,,,,,,,,,,,masks/mask_001.jpg,,,,,,,,,,,,,,,,,,,,,,,,,,,,,,,,,,,,,,,,,,,,,,,,0,4,4,0,1,,,,,,,,,,,,,,,,,,,,,,,,,,,,,,,,,,,,,,,,,
153791,001,2022-11-21_01h30.39.720,Info_measure_main_exp,2022.2.2,Win32,119.9472232,,,,,,,,,,,,,,,,,,,,,,,,,,,,,,3,1.4144,1,,,,,,,,,,,,0,131,5,5,2190,1950,absent_patch/patch0002190.jpg,absent_patch/patch0001950.jpg,,,,,,,,,,,,,,,,,,,,-0.021296254,-0.087037051,1,0,0,response5disk,10,-0.000925912,-0.003703718,1,0,0,center_square,0,9,9,73,1,,,,,,,,,,,,,,,,,,,,,,,
153791,001,2022-11-21_01h30.39.720,Info_measure_main_exp,2022.2.2,Win32,119.9472232,,,,,,,,,,,,,,,,,,masks/mask_004.jpg,,,,,,,,,,,,,,,,,,,,,,,,,,,,,,,,,,,,,,,,,,,0,0,0,3,1,,,,,,,,,,,,,,,,,,,,,,,,,,,,,,,,,,,,,,,,,,,,,,
153791,001,2022-11-21_01h30.39.720,Info_measure_main_exp,2022.2.2,Win32,119.9472232,,,,,,,,,,,,,,,,,,masks/mask_003.jpg,,,,,,,,,,,,,,,,,,,,,,,,,,,,,,,,,,,,,,,,,,,0,1,1,2,1,,,,,,,,,,,,,,,,,,,,,,,,,,,,,,,,,,,,,,,,,,,,,,
153791,001,2022-11-21_01h30.39.720,Info_measure_main_exp,2022.2.2,Win32,119.9472232,,,,,,,,,,,,,,,,,,masks/mask_001.jpg,,,,,,,,,,,,,,,,,,,,,,,,,,,,,,,,,,,,,,,,,,,0,2,2,0,1,,,,,,,,,,,,,,,,,,,,,,,,,,,,,,,,,,,,,,,,,,,,,,
153791,001,2022-11-21_01h30.39.720,Info_measure_main_exp,2022.2.2,Win32,119.9472232,,,,,,,,,,,,,,,,,,masks/mask_005.jpg,,,,,,,,,,,,,,,,,,,,,,,,,,,,,,,,,,,,,,,,,,,0,3,3,4,1,,,,,,,,,,,,,,,,,,,,,,,,,,,,,,,,,,,,,,,,,,,,,,
153791,001,2022-11-21_01h30.39.720,Info_measure_main_exp,2022.2.2,Win32,119.9472232,,,,,,,,,,,,,,,,,,masks/mask_002.jpg,,,,,,,,,,,,,,,,,,,,,,,,,,,,,,,,,,,,,,,,,,,0,4,4,1,1,,,,,,,,,,,,,,,,,,,,,,,,,,,,,,,,,,,,,,,,,,,,,,
153791,001,2022-11-21_01h30.39.720,Info_measure_main_exp,2022.2.2,Win32,119.9472232,,,,,,,,,,,,,,,,,,masks/mask_002.jpg,,,,,,,,,,,,,,,,,,,,,,,,,,,,,,,,,,,,,,,,,,,,,,,,0,0,0,1,1,,,,,,,,,,,,,,,,,,,,,,,,,,,,,,,,,,,,,,,,,
153791,001,2022-11-21_01h30.39.720,Info_measure_main_exp,2022.2.2,Win32,119.9472232,,,,,,,,,,,,,,,,,,masks/mask_003.jpg,,,,,,,,,,,,,,,,,,,,,,,,,,,,,,,,,,,,,,,,,,,,,,,,0,1,1,2,1,,,,,,,,,,,,,,,,,,,,,,,,,,,,,,,,,,,,,,,,,
153791,001,2022-11-21_01h30.39.720,Info_measure_main_exp,2022.2.2,Win32,119.9472232,,,,,,,,,,,,,,,,,,masks/mask_001.jpg,,,,,,,,,,,,,,,,,,,,,,,,,,,,,,,,,,,,,,,,,,,,,,,,0,2,2,0,1,,,,,,,,,,,,,,,,,,,,,,,,,,,,,,,,,,,,,,,,,
153791,001,2022-11-21_01h30.39.720,Info_measure_main_exp,2022.2.2,Win32,119.9472232,,,,,,,,,,,,,,,,,,masks/mask_005.jpg,,,,,,,,,,,,,,,,,,,,,,,,,,,,,,,,,,,,,,,,,,,,,,,,0,3,3,4,1,,,,,,,,,,,,,,,,,,,,,,,,,,,,,,,,,,,,,,,,,
153791,001,2022-11-21_01h30.39.720,Info_measure_main_exp,2022.2.2,Win32,119.9472232,,,,,,,,,,,,,,,,,,masks/mask_004.jpg,,,,,,,,,,,,,,,,,,,,,,,,,,,,,,,,,,,,,,,,,,,,,,,,0,4,4,3,1,,,,,,,,,,,,,,,,,,,,,,,,,,,,,,,,,,,,,,,,,
153791,001,2022-11-21_01h30.39.720,Info_measure_main_exp,2022.2.2,Win32,119.9472232,,,,,,,,,,,,,,,,,,,,,,,,,,,,,,0,0.4998,1,,,,,,,,,,,,0,131,5,5,2154,2154,absent_patch/patch0002154.jpg,absent_patch/patch0002154.jpg,,,,,,,,,,,,,,,,,,,,-0.068518533,0.138888889,1,0,0,response7disk,11,0.00462963,-0.002777771,1,0,0,center_square,0,10,10,89,1,,,,,,,,,,,,,,,,,,,,,,,
153791,001,2022-11-21_01h30.39.720,Info_measure_main_exp,2022.2.2,Win32,119.9472232,,,,,,,,,,,,,,,,,,masks/mask_001.jpg,,,,,,,,,,,,,,,,,,,,,,,,,,,,,,,,,,,,,,,,,,,0,0,0,0,1,,,,,,,,,,,,,,,,,,,,,,,,,,,,,,,,,,,,,,,,,,,,,,
153791,001,2022-11-21_01h30.39.720,Info_measure_main_exp,2022.2.2,Win32,119.9472232,,,,,,,,,,,,,,,,,,masks/mask_004.jpg,,,,,,,,,,,,,,,,,,,,,,,,,,,,,,,,,,,,,,,,,,,0,1,1,3,1,,,,,,,,,,,,,,,,,,,,,,,,,,,,,,,,,,,,,,,,,,,,,,
153791,001,2022-11-21_01h30.39.720,Info_measure_main_exp,2022.2.2,Win32,119.9472232,,,,,,,,,,,,,,,,,,masks/mask_003.jpg,,,,,,,,,,,,,,,,,,,,,,,,,,,,,,,,,,,,,,,,,,,0,2,2,2,1,,,,,,,,,,,,,,,,,,,,,,,,,,,,,,,,,,,,,,,,,,,,,,
153791,001,2022-11-21_01h30.39.720,Info_measure_main_exp,2022.2.2,Win32,119.9472232,,,,,,,,,,,,,,,,,,masks/mask_005.jpg,,,,,,,,,,,,,,,,,,,,,,,,,,,,,,,,,,,,,,,,,,,0,3,3,4,1,,,,,,,,,,,,,,,,,,,,,,,,,,,,,,,,,,,,,,,,,,,,,,
153791,001,2022-11-21_01h30.39.720,Info_measure_main_exp,2022.2.2,Win32,119.9472232,,,,,,,,,,,,,,,,,,masks/mask_002.jpg,,,,,,,,,,,,,,,,,,,,,,,,,,,,,,,,,,,,,,,,,,,0,4,4,1,1,,,,,,,,,,,,,,,,,,,,,,,,,,,,,,,,,,,,,,,,,,,,,,
153791,001,2022-11-21_01h30.39.720,Info_measure_main_exp,2022.2.2,Win32,119.9472232,,,,,,,,,,,,,,,,,,masks/mask_005.jpg,,,,,,,,,,,,,,,,,,,,,,,,,,,,,,,,,,,,,,,,,,,,,,,,0,0,0,4,1,,,,,,,,,,,,,,,,,,,,,,,,,,,,,,,,,,,,,,,,,
153791,001,2022-11-21_01h30.39.720,Info_measure_main_exp,2022.2.2,Win32,119.9472232,,,,,,,,,,,,,,,,,,masks/mask_004.jpg,,,,,,,,,,,,,,,,,,,,,,,,,,,,,,,,,,,,,,,,,,,,,,,,0,1,1,3,1,,,,,,,,,,,,,,,,,,,,,,,,,,,,,,,,,,,,,,,,,
153791,001,2022-11-21_01h30.39.720,Info_measure_main_exp,2022.2.2,Win32,119.9472232,,,,,,,,,,,,,,,,,,masks/mask_002.jpg,,,,,,,,,,,,,,,,,,,,,,,,,,,,,,,,,,,,,,,,,,,,,,,,0,2,2,1,1,,,,,,,,,,,,,,,,,,,,,,,,,,,,,,,,,,,,,,,,,
153791,001,2022-11-21_01h30.39.720,Info_measure_main_exp,2022.2.2,Win32,119.9472232,,,,,,,,,,,,,,,,,,masks/mask_003.jpg,,,,,,,,,,,,,,,,,,,,,,,,,,,,,,,,,,,,,,,,,,,,,,,,0,3,3,2,1,,,,,,,,,,,,,,,,,,,,,,,,,,,,,,,,,,,,,,,,,
153791,001,2022-11-21_01h30.39.720,Info_measure_main_exp,2022.2.2,Win32,119.9472232,,,,,,,,,,,,,,,,,,masks/mask_001.jpg,,,,,,,,,,,,,,,,,,,,,,,,,,,,,,,,,,,,,,,,,,,,,,,,0,4,4,0,1,,,,,,,,,,,,,,,,,,,,,,,,,,,,,,,,,,,,,,,,,
153791,001,2022-11-21_01h30.39.720,Info_measure_main_exp,2022.2.2,Win32,119.9472232,,,,,,,,,,,,,,,,,,,,,,,,,,,,,,4,2.9084,1,,,,,,,,,,,,0,131,5,5,2154,2190,absent_patch/patch0002154.jpg,absent_patch/patch0002190.jpg,,,,,,,,,,,,,,,,,,,,0.011111153,-0.081481474,1,0,0,response3disk,12,-0.003703718,-0.011111118,1,0,0,center_square,0,11,11,68,1,,,,,,,,,,,,,,,,,,,,,,,
153791,001,2022-11-21_01h30.39.720,Info_measure_main_exp,2022.2.2,Win32,119.9472232,,,,,,,,,,,,,,,,,,masks/mask_003.jpg,,,,,,,,,,,,,,,,,,,,,,,,,,,,,,,,,,,,,,,,,,,0,0,0,2,1,,,,,,,,,,,,,,,,,,,,,,,,,,,,,,,,,,,,,,,,,,,,,,
153791,001,2022-11-21_01h30.39.720,Info_measure_main_exp,2022.2.2,Win32,119.9472232,,,,,,,,,,,,,,,,,,masks/mask_005.jpg,,,,,,,,,,,,,,,,,,,,,,,,,,,,,,,,,,,,,,,,,,,0,1,1,4,1,,,,,,,,,,,,,,,,,,,,,,,,,,,,,,,,,,,,,,,,,,,,,,
153791,001,2022-11-21_01h30.39.720,Info_measure_main_exp,2022.2.2,Win32,119.9472232,,,,,,,,,,,,,,,,,,masks/mask_004.jpg,,,,,,,,,,,,,,,,,,,,,,,,,,,,,,,,,,,,,,,,,,,0,2,2,3,1,,,,,,,,,,,,,,,,,,,,,,,,,,,,,,,,,,,,,,,,,,,,,,
153791,001,2022-11-21_01h30.39.720,Info_measure_main_exp,2022.2.2,Win32,119.9472232,,,,,,,,,,,,,,,,,,masks/mask_002.jpg,,,,,,,,,,,,,,,,,,,,,,,,,,,,,,,,,,,,,,,,,,,0,3,3,1,1,,,,,,,,,,,,,,,,,,,,,,,,,,,,,,,,,,,,,,,,,,,,,,
153791,001,2022-11-21_01h30.39.720,Info_measure_main_exp,2022.2.2,Win32,119.9472232,,,,,,,,,,,,,,,,,,masks/mask_001.jpg,,,,,,,,,,,,,,,,,,,,,,,,,,,,,,,,,,,,,,,,,,,0,4,4,0,1,,,,,,,,,,,,,,,,,,,,,,,,,,,,,,,,,,,,,,,,,,,,,,
153791,001,2022-11-21_01h30.39.720,Info_measure_main_exp,2022.2.2,Win32,119.9472232,,,,,,,,,,,,,,,,,,masks/mask_002.jpg,,,,,,,,,,,,,,,,,,,,,,,,,,,,,,,,,,,,,,,,,,,,,,,,0,0,0,1,1,,,,,,,,,,,,,,,,,,,,,,,,,,,,,,,,,,,,,,,,,
153791,001,2022-11-21_01h30.39.720,Info_measure_main_exp,2022.2.2,Win32,119.9472232,,,,,,,,,,,,,,,,,,masks/mask_005.jpg,,,,,,,,,,,,,,,,,,,,,,,,,,,,,,,,,,,,,,,,,,,,,,,,0,1,1,4,1,,,,,,,,,,,,,,,,,,,,,,,,,,,,,,,,,,,,,,,,,
153791,001,2022-11-21_01h30.39.720,Info_measure_main_exp,2022.2.2,Win32,119.9472232,,,,,,,,,,,,,,,,,,masks/mask_001.jpg,,,,,,,,,,,,,,,,,,,,,,,,,,,,,,,,,,,,,,,,,,,,,,,,0,2,2,0,1,,,,,,,,,,,,,,,,,,,,,,,,,,,,,,,,,,,,,,,,,
153791,001,2022-11-21_01h30.39.720,Info_measure_main_exp,2022.2.2,Win32,119.9472232,,,,,,,,,,,,,,,,,,masks/mask_003.jpg,,,,,,,,,,,,,,,,,,,,,,,,,,,,,,,,,,,,,,,,,,,,,,,,0,3,3,2,1,,,,,,,,,,,,,,,,,,,,,,,,,,,,,,,,,,,,,,,,,
153791,001,2022-11-21_01h30.39.720,Info_measure_main_exp,2022.2.2,Win32,119.9472232,,,,,,,,,,,,,,,,,,masks/mask_004.jpg,,,,,,,,,,,,,,,,,,,,,,,,,,,,,,,,,,,,,,,,,,,,,,,,0,4,4,3,1,,,,,,,,,,,,,,,,,,,,,,,,,,,,,,,,,,,,,,,,,
153791,001,2022-11-21_01h30.39.720,Info_measure_main_exp,2022.2.2,Win32,119.9472232,,,,,,,,,,,,,,,,,,,,,,,,,,,,,,0,0.5001,1,,,,,,,,,,,,0,131,5,5,2166,2166,absent_patch/patch0002166.jpg,absent_patch/patch0002166.jpg,,,,,,,,,,,,,,,,,,,,-0.051851838,0.119444423,1,0,0,response7disk,13,-0.000925912,-0.000925947,1,0,0,center_square,0,12,12,42,1,,,,,,,,,,,,,,,,,,,,,,,
153791,001,2022-11-21_01h30.39.720,Info_measure_main_exp,2022.2.2,Win32,119.9472232,,,,,,,,,,,,,,,,,,masks/mask_003.jpg,,,,,,,,,,,,,,,,,,,,,,,,,,,,,,,,,,,,,,,,,,,0,0,0,2,1,,,,,,,,,,,,,,,,,,,,,,,,,,,,,,,,,,,,,,,,,,,,,,
153791,001,2022-11-21_01h30.39.720,Info_measure_main_exp,2022.2.2,Win32,119.9472232,,,,,,,,,,,,,,,,,,masks/mask_005.jpg,,,,,,,,,,,,,,,,,,,,,,,,,,,,,,,,,,,,,,,,,,,0,1,1,4,1,,,,,,,,,,,,,,,,,,,,,,,,,,,,,,,,,,,,,,,,,,,,,,
153791,001,2022-11-21_01h30.39.720,Info_measure_main_exp,2022.2.2,Win32,119.9472232,,,,,,,,,,,,,,,,,,masks/mask_002.jpg,,,,,,,,,,,,,,,,,,,,,,,,,,,,,,,,,,,,,,,,,,,0,2,2,1,1,,,,,,,,,,,,,,,,,,,,,,,,,,,,,,,,,,,,,,,,,,,,,,
153791,001,2022-11-21_01h30.39.720,Info_measure_main_exp,2022.2.2,Win32,119.9472232,,,,,,,,,,,,,,,,,,masks/mask_004.jpg,,,,,,,,,,,,,,,,,,,,,,,,,,,,,,,,,,,,,,,,,,,0,3,3,3,1,,,,,,,,,,,,,,,,,,,,,,,,,,,,,,,,,,,,,,,,,,,,,,
153791,001,2022-11-21_01h30.39.720,Info_measure_main_exp,2022.2.2,Win32,119.9472232,,,,,,,,,,,,,,,,,,masks/mask_001.jpg,,,,,,,,,,,,,,,,,,,,,,,,,,,,,,,,,,,,,,,,,,,0,4,4,0,1,,,,,,,,,,,,,,,,,,,,,,,,,,,,,,,,,,,,,,,,,,,,,,
153791,001,2022-11-21_01h30.39.720,Info_measure_main_exp,2022.2.2,Win32,119.9472232,,,,,,,,,,,,,,,,,,masks/mask_002.jpg,,,,,,,,,,,,,,,,,,,,,,,,,,,,,,,,,,,,,,,,,,,,,,,,0,0,0,1,1,,,,,,,,,,,,,,,,,,,,,,,,,,,,,,,,,,,,,,,,,
153791,001,2022-11-21_01h30.39.720,Info_measure_main_exp,2022.2.2,Win32,119.9472232,,,,,,,,,,,,,,,,,,masks/mask_001.jpg,,,,,,,,,,,,,,,,,,,,,,,,,,,,,,,,,,,,,,,,,,,,,,,,0,1,1,0,1,,,,,,,,,,,,,,,,,,,,,,,,,,,,,,,,,,,,,,,,,
153791,001,2022-11-21_01h30.39.720,Info_measure_main_exp,2022.2.2,Win32,119.9472232,,,,,,,,,,,,,,,,,,masks/mask_004.jpg,,,,,,,,,,,,,,,,,,,,,,,,,,,,,,,,,,,,,,,,,,,,,,,,0,2,2,3,1,,,,,,,,,,,,,,,,,,,,,,,,,,,,,,,,,,,,,,,,,
153791,001,2022-11-21_01h30.39.720,Info_measure_main_exp,2022.2.2,Win32,119.9472232,,,,,,,,,,,,,,,,,,masks/mask_003.jpg,,,,,,,,,,,,,,,,,,,,,,,,,,,,,,,,,,,,,,,,,,,,,,,,0,3,3,2,1,,,,,,,,,,,,,,,,,,,,,,,,,,,,,,,,,,,,,,,,,
153791,001,2022-11-21_01h30.39.720,Info_measure_main_exp,2022.2.2,Win32,119.9472232,,,,,,,,,,,,,,,,,,masks/mask_005.jpg,,,,,,,,,,,,,,,,,,,,,,,,,,,,,,,,,,,,,,,,,,,,,,,,0,4,4,4,1,,,,,,,,,,,,,,,,,,,,,,,,,,,,,,,,,,,,,,,,,
153791,001,2022-11-21_01h30.39.720,Info_measure_main_exp,2022.2.2,Win32,119.9472232,,,,,,,,,,,,,,,,,,,,,,,,,,,,,,3,2.2167,1,,,,,,,,,,,,0,131,5,5,2166,1986,absent_patch/patch0002166.jpg,absent_patch/patch0001986.jpg,,,,,,,,,,,,,,,,,,,,-0.097222222,-0.148148148,1,0,0,response5disk,14,0.00462963,0.000925912,1,0,0,center_square,0,13,13,47,1,,,,,,,,,,,,,,,,,,,,,,,
153791,001,2022-11-21_01h30.39.720,Info_measure_main_exp,2022.2.2,Win32,119.9472232,,,,,,,,,,,,,,,,,,masks/mask_005.jpg,,,,,,,,,,,,,,,,,,,,,,,,,,,,,,,,,,,,,,,,,,,0,0,0,4,1,,,,,,,,,,,,,,,,,,,,,,,,,,,,,,,,,,,,,,,,,,,,,,
153791,001,2022-11-21_01h30.39.720,Info_measure_main_exp,2022.2.2,Win32,119.9472232,,,,,,,,,,,,,,,,,,masks/mask_002.jpg,,,,,,,,,,,,,,,,,,,,,,,,,,,,,,,,,,,,,,,,,,,0,1,1,1,1,,,,,,,,,,,,,,,,,,,,,,,,,,,,,,,,,,,,,,,,,,,,,,
153791,001,2022-11-21_01h30.39.720,Info_measure_main_exp,2022.2.2,Win32,119.9472232,,,,,,,,,,,,,,,,,,masks/mask_001.jpg,,,,,,,,,,,,,,,,,,,,,,,,,,,,,,,,,,,,,,,,,,,0,2,2,0,1,,,,,,,,,,,,,,,,,,,,,,,,,,,,,,,,,,,,,,,,,,,,,,
153791,001,2022-11-21_01h30.39.720,Info_measure_main_exp,2022.2.2,Win32,119.9472232,,,,,,,,,,,,,,,,,,masks/mask_003.jpg,,,,,,,,,,,,,,,,,,,,,,,,,,,,,,,,,,,,,,,,,,,0,3,3,2,1,,,,,,,,,,,,,,,,,,,,,,,,,,,,,,,,,,,,,,,,,,,,,,
153791,001,2022-11-21_01h30.39.720,Info_measure_main_exp,2022.2.2,Win32,119.9472232,,,,,,,,,,,,,,,,,,masks/mask_004.jpg,,,,,,,,,,,,,,,,,,,,,,,,,,,,,,,,,,,,,,,,,,,0,4,4,3,1,,,,,,,,,,,,,,,,,,,,,,,,,,,,,,,,,,,,,,,,,,,,,,
153791,001,2022-11-21_01h30.39.720,Info_measure_main_exp,2022.2.2,Win32,119.9472232,,,,,,,,,,,,,,,,,,masks/mask_004.jpg,,,,,,,,,,,,,,,,,,,,,,,,,,,,,,,,,,,,,,,,,,,,,,,,0,0,0,3,1,,,,,,,,,,,,,,,,,,,,,,,,,,,,,,,,,,,,,,,,,
153791,001,2022-11-21_01h30.39.720,Info_measure_main_exp,2022.2.2,Win32,119.9472232,,,,,,,,,,,,,,,,,,masks/mask_002.jpg,,,,,,,,,,,,,,,,,,,,,,,,,,,,,,,,,,,,,,,,,,,,,,,,0,1,1,1,1,,,,,,,,,,,,,,,,,,,,,,,,,,,,,,,,,,,,,,,,,
153791,001,2022-11-21_01h30.39.720,Info_measure_main_exp,2022.2.2,Win32,119.9472232,,,,,,,,,,,,,,,,,,masks/mask_001.jpg,,,,,,,,,,,,,,,,,,,,,,,,,,,,,,,,,,,,,,,,,,,,,,,,0,2,2,0,1,,,,,,,,,,,,,,,,,,,,,,,,,,,,,,,,,,,,,,,,,
153791,001,2022-11-21_01h30.39.720,Info_measure_main_exp,2022.2.2,Win32,119.9472232,,,,,,,,,,,,,,,,,,masks/mask_003.jpg,,,,,,,,,,,,,,,,,,,,,,,,,,,,,,,,,,,,,,,,,,,,,,,,0,3,3,2,1,,,,,,,,,,,,,,,,,,,,,,,,,,,,,,,,,,,,,,,,,
153791,001,2022-11-21_01h30.39.720,Info_measure_main_exp,2022.2.2,Win32,119.9472232,,,,,,,,,,,,,,,,,,masks/mask_005.jpg,,,,,,,,,,,,,,,,,,,,,,,,,,,,,,,,,,,,,,,,,,,,,,,,0,4,4,4,1,,,,,,,,,,,,,,,,,,,,,,,,,,,,,,,,,,,,,,,,,
153791,001,2022-11-21_01h30.39.720,Info_measure_main_exp,2022.2.2,Win32,119.9472232,,,,,,,,,,,,,,,,,,,,,,,,,,,,,,0,0.433,1,,,,,,,,,,,,1,131,5,5,1,1,present_patch/cong_131_5_a.jpg,present_patch/cong_131_5_a.jpg,,,,,,,,,,,,,,,,,,,,-0.069444444,0.118518511,1,0,0,response7disk,15,0.015740783,0.000925912,1,0,0,center_square,0,14,14,30,1,,,,,,,,,,,,,,,,,,,,,,,
153791,001,2022-11-21_01h30.39.720,Info_measure_main_exp,2022.2.2,Win32,119.9472232,,,,,,,,,,,,,,,,,,masks/mask_001.jpg,,,,,,,,,,,,,,,,,,,,,,,,,,,,,,,,,,,,,,,,,,,0,0,0,0,1,,,,,,,,,,,,,,,,,,,,,,,,,,,,,,,,,,,,,,,,,,,,,,
153791,001,2022-11-21_01h30.39.720,Info_measure_main_exp,2022.2.2,Win32,119.9472232,,,,,,,,,,,,,,,,,,masks/mask_002.jpg,,,,,,,,,,,,,,,,,,,,,,,,,,,,,,,,,,,,,,,,,,,0,1,1,1,1,,,,,,,,,,,,,,,,,,,,,,,,,,,,,,,,,,,,,,,,,,,,,,
153791,001,2022-11-21_01h30.39.720,Info_measure_main_exp,2022.2.2,Win32,119.9472232,,,,,,,,,,,,,,,,,,masks/mask_003.jpg,,,,,,,,,,,,,,,,,,,,,,,,,,,,,,,,,,,,,,,,,,,0,2,2,2,1,,,,,,,,,,,,,,,,,,,,,,,,,,,,,,,,,,,,,,,,,,,,,,
153791,001,2022-11-21_01h30.39.720,Info_measure_main_exp,2022.2.2,Win32,119.9472232,,,,,,,,,,,,,,,,,,masks/mask_005.jpg,,,,,,,,,,,,,,,,,,,,,,,,,,,,,,,,,,,,,,,,,,,0,3,3,4,1,,,,,,,,,,,,,,,,,,,,,,,,,,,,,,,,,,,,,,,,,,,,,,
153791,001,2022-11-21_01h30.39.720,Info_measure_main_exp,2022.2.2,Win32,119.9472232,,,,,,,,,,,,,,,,,,masks/mask_004.jpg,,,,,,,,,,,,,,,,,,,,,,,,,,,,,,,,,,,,,,,,,,,0,4,4,3,1,,,,,,,,,,,,,,,,,,,,,,,,,,,,,,,,,,,,,,,,,,,,,,
153791,001,2022-11-21_01h30.39.720,Info_measure_main_exp,2022.2.2,Win32,119.9472232,,,,,,,,,,,,,,,,,,masks/mask_005.jpg,,,,,,,,,,,,,,,,,,,,,,,,,,,,,,,,,,,,,,,,,,,,,,,,0,0,0,4,1,,,,,,,,,,,,,,,,,,,,,,,,,,,,,,,,,,,,,,,,,
153791,001,2022-11-21_01h30.39.720,Info_measure_main_exp,2022.2.2,Win32,119.9472232,,,,,,,,,,,,,,,,,,masks/mask_002.jpg,,,,,,,,,,,,,,,,,,,,,,,,,,,,,,,,,,,,,,,,,,,,,,,,0,1,1,1,1,,,,,,,,,,,,,,,,,,,,,,,,,,,,,,,,,,,,,,,,,
153791,001,2022-11-21_01h30.39.720,Info_measure_main_exp,2022.2.2,Win32,119.9472232,,,,,,,,,,,,,,,,,,masks/mask_003.jpg,,,,,,,,,,,,,,,,,,,,,,,,,,,,,,,,,,,,,,,,,,,,,,,,0,2,2,2,1,,,,,,,,,,,,,,,,,,,,,,,,,,,,,,,,,,,,,,,,,
153791,001,2022-11-21_01h30.39.720,Info_measure_main_exp,2022.2.2,Win32,119.9472232,,,,,,,,,,,,,,,,,,masks/mask_001.jpg,,,,,,,,,,,,,,,,,,,,,,,,,,,,,,,,,,,,,,,,,,,,,,,,0,3,3,0,1,,,,,,,,,,,,,,,,,,,,,,,,,,,,,,,,,,,,,,,,,
153791,001,2022-11-21_01h30.39.720,Info_measure_main_exp,2022.2.2,Win32,119.9472232,,,,,,,,,,,,,,,,,,masks/mask_004.jpg,,,,,,,,,,,,,,,,,,,,,,,,,,,,,,,,,,,,,,,,,,,,,,,,0,4,4,3,1,,,,,,,,,,,,,,,,,,,,,,,,,,,,,,,,,,,,,,,,,
153791,001,2022-11-21_01h30.39.720,Info_measure_main_exp,2022.2.2,Win32,119.9472232,,,,,,,,,,,,,,,,,,,,,,,,,,,,,,7,1.5726,1,,,,,,,,,,,,0,131,5,5,2082,2154,absent_patch/patch0002082.jpg,absent_patch/patch0002154.jpg,,,,,,,,,,,,,,,,,,,,0.041666667,0.090740734,1,0,0,response1disk,16,-0.002777735,-0.00462963,1,0,0,center_square,0,15,15,33,1,,,,,,,,,,,,,,,,,,,,,,,
153791,001,2022-11-21_01h30.39.720,Info_measure_main_exp,2022.2.2,Win32,119.9472232,,,,,,,,,,,,,,,,,,masks/mask_003.jpg,,,,,,,,,,,,,,,,,,,,,,,,,,,,,,,,,,,,,,,,,,,0,0,0,2,1,,,,,,,,,,,,,,,,,,,,,,,,,,,,,,,,,,,,,,,,,,,,,,
153791,001,2022-11-21_01h30.39.720,Info_measure_main_exp,2022.2.2,Win32,119.9472232,,,,,,,,,,,,,,,,,,masks/mask_002.jpg,,,,,,,,,,,,,,,,,,,,,,,,,,,,,,,,,,,,,,,,,,,0,1,1,1,1,,,,,,,,,,,,,,,,,,,,,,,,,,,,,,,,,,,,,,,,,,,,,,
153791,001,2022-11-21_01h30.39.720,Info_measure_main_exp,2022.2.2,Win32,119.9472232,,,,,,,,,,,,,,,,,,masks/mask_005.jpg,,,,,,,,,,,,,,,,,,,,,,,,,,,,,,,,,,,,,,,,,,,0,2,2,4,1,,,,,,,,,,,,,,,,,,,,,,,,,,,,,,,,,,,,,,,,,,,,,,
153791,001,2022-11-21_01h30.39.720,Info_measure_main_exp,2022.2.2,Win32,119.9472232,,,,,,,,,,,,,,,,,,masks/mask_004.jpg,,,,,,,,,,,,,,,,,,,,,,,,,,,,,,,,,,,,,,,,,,,0,3,3,3,1,,,,,,,,,,,,,,,,,,,,,,,,,,,,,,,,,,,,,,,,,,,,,,
153791,001,2022-11-21_01h30.39.720,Info_measure_main_exp,2022.2.2,Win32,119.9472232,,,,,,,,,,,,,,,,,,masks/mask_001.jpg,,,,,,,,,,,,,,,,,,,,,,,,,,,,,,,,,,,,,,,,,,,0,4,4,0,1,,,,,,,,,,,,,,,,,,,,,,,,,,,,,,,,,,,,,,,,,,,,,,
153791,001,2022-11-21_01h30.39.720,Info_measure_main_exp,2022.2.2,Win32,119.9472232,,,,,,,,,,,,,,,,,,masks/mask_004.jpg,,,,,,,,,,,,,,,,,,,,,,,,,,,,,,,,,,,,,,,,,,,,,,,,0,0,0,3,1,,,,,,,,,,,,,,,,,,,,,,,,,,,,,,,,,,,,,,,,,
153791,001,2022-11-21_01h30.39.720,Info_measure_main_exp,2022.2.2,Win32,119.9472232,,,,,,,,,,,,,,,,,,masks/mask_002.jpg,,,,,,,,,,,,,,,,,,,,,,,,,,,,,,,,,,,,,,,,,,,,,,,,0,1,1,1,1,,,,,,,,,,,,,,,,,,,,,,,,,,,,,,,,,,,,,,,,,
153791,001,2022-11-21_01h30.39.720,Info_measure_main_exp,2022.2.2,Win32,119.9472232,,,,,,,,,,,,,,,,,,masks/mask_005.jpg,,,,,,,,,,,,,,,,,,,,,,,,,,,,,,,,,,,,,,,,,,,,,,,,0,2,2,4,1,,,,,,,,,,,,,,,,,,,,,,,,,,,,,,,,,,,,,,,,,
153791,001,2022-11-21_01h30.39.720,Info_measure_main_exp,2022.2.2,Win32,119.9472232,,,,,,,,,,,,,,,,,,masks/mask_001.jpg,,,,,,,,,,,,,,,,,,,,,,,,,,,,,,,,,,,,,,,,,,,,,,,,0,3,3,0,1,,,,,,,,,,,,,,,,,,,,,,,,,,,,,,,,,,,,,,,,,
153791,001,2022-11-21_01h30.39.720,Info_measure_main_exp,2022.2.2,Win32,119.9472232,,,,,,,,,,,,,,,,,,masks/mask_003.jpg,,,,,,,,,,,,,,,,,,,,,,,,,,,,,,,,,,,,,,,,,,,,,,,,0,4,4,2,1,,,,,,,,,,,,,,,,,,,,,,,,,,,,,,,,,,,,,,,,,
153791,001,2022-11-21_01h30.39.720,Info_measure_main_exp,2022.2.2,Win32,119.9472232,,,,,,,,,,,,,,,,,,,,,,,,,,,,,,3,2.5916,1,,,,,,,,,,,,0,131,5,5,2190,1974,absent_patch/patch0002190.jpg,absent_patch/patch0001974.jpg,,,,,,,,,,,,,,,,,,,,-0.012962977,-0.150925954,1,0,0,response5disk,17,-0.010185171,-0.009259259,1,0,0,center_square,0,16,16,119,1,,,,,,,,,,,,,,,,,,,,,,,
153791,001,2022-11-21_01h30.39.720,Info_measure_main_exp,2022.2.2,Win32,119.9472232,,,,,,,,,,,,,,,,,,masks/mask_002.jpg,,,,,,,,,,,,,,,,,,,,,,,,,,,,,,,,,,,,,,,,,,,0,0,0,1,1,,,,,,,,,,,,,,,,,,,,,,,,,,,,,,,,,,,,,,,,,,,,,,
153791,001,2022-11-21_01h30.39.720,Info_measure_main_exp,2022.2.2,Win32,119.9472232,,,,,,,,,,,,,,,,,,masks/mask_004.jpg,,,,,,,,,,,,,,,,,,,,,,,,,,,,,,,,,,,,,,,,,,,0,1,1,3,1,,,,,,,,,,,,,,,,,,,,,,,,,,,,,,,,,,,,,,,,,,,,,,
153791,001,2022-11-21_01h30.39.720,Info_measure_main_exp,2022.2.2,Win32,119.9472232,,,,,,,,,,,,,,,,,,masks/mask_005.jpg,,,,,,,,,,,,,,,,,,,,,,,,,,,,,,,,,,,,,,,,,,,0,2,2,4,1,,,,,,,,,,,,,,,,,,,,,,,,,,,,,,,,,,,,,,,,,,,,,,
153791,001,2022-11-21_01h30.39.720,Info_measure_main_exp,2022.2.2,Win32,119.9472232,,,,,,,,,,,,,,,,,,masks/mask_003.jpg,,,,,,,,,,,,,,,,,,,,,,,,,,,,,,,,,,,,,,,,,,,0,3,3,2,1,,,,,,,,,,,,,,,,,,,,,,,,,,,,,,,,,,,,,,,,,,,,,,
153791,001,2022-11-21_01h30.39.720,Info_measure_main_exp,2022.2.2,Win32,119.9472232,,,,,,,,,,,,,,,,,,masks/mask_001.jpg,,,,,,,,,,,,,,,,,,,,,,,,,,,,,,,,,,,,,,,,,,,0,4,4,0,1,,,,,,,,,,,,,,,,,,,,,,,,,,,,,,,,,,,,,,,,,,,,,,
153791,001,2022-11-21_01h30.39.720,Info_measure_main_exp,2022.2.2,Win32,119.9472232,,,,,,,,,,,,,,,,,,masks/mask_003.jpg,,,,,,,,,,,,,,,,,,,,,,,,,,,,,,,,,,,,,,,,,,,,,,,,0,0,0,2,1,,,,,,,,,,,,,,,,,,,,,,,,,,,,,,,,,,,,,,,,,
153791,001,2022-11-21_01h30.39.720,Info_measure_main_exp,2022.2.2,Win32,119.9472232,,,,,,,,,,,,,,,,,,masks/mask_004.jpg,,,,,,,,,,,,,,,,,,,,,,,,,,,,,,,,,,,,,,,,,,,,,,,,0,1,1,3,1,,,,,,,,,,,,,,,,,,,,,,,,,,,,,,,,,,,,,,,,,
153791,001,2022-11-21_01h30.39.720,Info_measure_main_exp,2022.2.2,Win32,119.9472232,,,,,,,,,,,,,,,,,,masks/mask_001.jpg,,,,,,,,,,,,,,,,,,,,,,,,,,,,,,,,,,,,,,,,,,,,,,,,0,2,2,0,1,,,,,,,,,,,,,,,,,,,,,,,,,,,,,,,,,,,,,,,,,
153791,001,2022-11-21_01h30.39.720,Info_measure_main_exp,2022.2.2,Win32,119.9472232,,,,,,,,,,,,,,,,,,masks/mask_002.jpg,,,,,,,,,,,,,,,,,,,,,,,,,,,,,,,,,,,,,,,,,,,,,,,,0,3,3,1,1,,,,,,,,,,,,,,,,,,,,,,,,,,,,,,,,,,,,,,,,,
153791,001,2022-11-21_01h30.39.720,Info_measure_main_exp,2022.2.2,Win32,119.9472232,,,,,,,,,,,,,,,,,,masks/mask_005.jpg,,,,,,,,,,,,,,,,,,,,,,,,,,,,,,,,,,,,,,,,,,,,,,,,0,4,4,4,1,,,,,,,,,,,,,,,,,,,,,,,,,,,,,,,,,,,,,,,,,
153791,001,2022-11-21_01h30.39.720,Info_measure_main_exp,2022.2.2,Win32,119.9472232,,,,,,,,,,,,,,,,,,,,,,,,,,,,,,3,1.2839,1,,,,,,,,,,,,0,131,5,5,2298,2142,absent_patch/patch0002298.jpg,absent_patch/patch0002142.jpg,,,,,,,,,,,,,,,,,,,,-0.025925884,-0.109259288,1,0,0,response5disk,18,0,-0.005555577,1,0,0,center_square,0,17,17,49,1,,,,,,,,,,,,,,,,,,,,,,,
153791,001,2022-11-21_01h30.39.720,Info_measure_main_exp,2022.2.2,Win32,119.9472232,,,,,,,,,,,,,,,,,,masks/mask_004.jpg,,,,,,,,,,,,,,,,,,,,,,,,,,,,,,,,,,,,,,,,,,,0,0,0,3,1,,,,,,,,,,,,,,,,,,,,,,,,,,,,,,,,,,,,,,,,,,,,,,
153791,001,2022-11-21_01h30.39.720,Info_measure_main_exp,2022.2.2,Win32,119.9472232,,,,,,,,,,,,,,,,,,masks/mask_001.jpg,,,,,,,,,,,,,,,,,,,,,,,,,,,,,,,,,,,,,,,,,,,0,1,1,0,1,,,,,,,,,,,,,,,,,,,,,,,,,,,,,,,,,,,,,,,,,,,,,,
153791,001,2022-11-21_01h30.39.720,Info_measure_main_exp,2022.2.2,Win32,119.9472232,,,,,,,,,,,,,,,,,,masks/mask_005.jpg,,,,,,,,,,,,,,,,,,,,,,,,,,,,,,,,,,,,,,,,,,,0,2,2,4,1,,,,,,,,,,,,,,,,,,,,,,,,,,,,,,,,,,,,,,,,,,,,,,
153791,001,2022-11-21_01h30.39.720,Info_measure_main_exp,2022.2.2,Win32,119.9472232,,,,,,,,,,,,,,,,,,masks/mask_002.jpg,,,,,,,,,,,,,,,,,,,,,,,,,,,,,,,,,,,,,,,,,,,0,3,3,1,1,,,,,,,,,,,,,,,,,,,,,,,,,,,,,,,,,,,,,,,,,,,,,,
153791,001,2022-11-21_01h30.39.720,Info_measure_main_exp,2022.2.2,Win32,119.9472232,,,,,,,,,,,,,,,,,,masks/mask_003.jpg,,,,,,,,,,,,,,,,,,,,,,,,,,,,,,,,,,,,,,,,,,,0,4,4,2,1,,,,,,,,,,,,,,,,,,,,,,,,,,,,,,,,,,,,,,,,,,,,,,
153791,001,2022-11-21_01h30.39.720,Info_measure_main_exp,2022.2.2,Win32,119.9472232,,,,,,,,,,,,,,,,,,masks/mask_005.jpg,,,,,,,,,,,,,,,,,,,,,,,,,,,,,,,,,,,,,,,,,,,,,,,,0,0,0,4,1,,,,,,,,,,,,,,,,,,,,,,,,,,,,,,,,,,,,,,,,,
153791,001,2022-11-21_01h30.39.720,Info_measure_main_exp,2022.2.2,Win32,119.9472232,,,,,,,,,,,,,,,,,,masks/mask_002.jpg,,,,,,,,,,,,,,,,,,,,,,,,,,,,,,,,,,,,,,,,,,,,,,,,0,1,1,1,1,,,,,,,,,,,,,,,,,,,,,,,,,,,,,,,,,,,,,,,,,
153791,001,2022-11-21_01h30.39.720,Info_measure_main_exp,2022.2.2,Win32,119.9472232,,,,,,,,,,,,,,,,,,masks/mask_003.jpg,,,,,,,,,,,,,,,,,,,,,,,,,,,,,,,,,,,,,,,,,,,,,,,,0,2,2,2,1,,,,,,,,,,,,,,,,,,,,,,,,,,,,,,,,,,,,,,,,,
153791,001,2022-11-21_01h30.39.720,Info_measure_main_exp,2022.2.2,Win32,119.9472232,,,,,,,,,,,,,,,,,,masks/mask_004.jpg,,,,,,,,,,,,,,,,,,,,,,,,,,,,,,,,,,,,,,,,,,,,,,,,0,3,3,3,1,,,,,,,,,,,,,,,,,,,,,,,,,,,,,,,,,,,,,,,,,
153791,001,2022-11-21_01h30.39.720,Info_measure_main_exp,2022.2.2,Win32,119.9472232,,,,,,,,,,,,,,,,,,masks/mask_001.jpg,,,,,,,,,,,,,,,,,,,,,,,,,,,,,,,,,,,,,,,,,,,,,,,,0,4,4,0,1,,,,,,,,,,,,,,,,,,,,,,,,,,,,,,,,,,,,,,,,,
153791,001,2022-11-21_01h30.39.720,Info_measure_main_exp,2022.2.2,Win32,119.9472232,,,,,,,,,,,,,,,,,,,,,,,,,,,,,,7,1.7835,1,,,,,,,,,,,,0,131,5,5,1974,2238,absent_patch/patch0001974.jpg,absent_patch/patch0002238.jpg,,,,,,,,,,,,,,,,,,,,0.050000014,0.092592593,1,0,0,response1disk,19,0.005555541,0.000925912,1,0,0,center_square,0,18,18,95,1,,,,,,,,,,,,,,,,,,,,,,,
153791,001,2022-11-21_01h30.39.720,Info_measure_main_exp,2022.2.2,Win32,119.9472232,,,,,,,,,,,,,,,,,,masks/mask_003.jpg,,,,,,,,,,,,,,,,,,,,,,,,,,,,,,,,,,,,,,,,,,,0,0,0,2,1,,,,,,,,,,,,,,,,,,,,,,,,,,,,,,,,,,,,,,,,,,,,,,
153791,001,2022-11-21_01h30.39.720,Info_measure_main_exp,2022.2.2,Win32,119.9472232,,,,,,,,,,,,,,,,,,masks/mask_002.jpg,,,,,,,,,,,,,,,,,,,,,,,,,,,,,,,,,,,,,,,,,,,0,1,1,1,1,,,,,,,,,,,,,,,,,,,,,,,,,,,,,,,,,,,,,,,,,,,,,,
153791,001,2022-11-21_01h30.39.720,Info_measure_main_exp,2022.2.2,Win32,119.9472232,,,,,,,,,,,,,,,,,,masks/mask_001.jpg,,,,,,,,,,,,,,,,,,,,,,,,,,,,,,,,,,,,,,,,,,,0,2,2,0,1,,,,,,,,,,,,,,,,,,,,,,,,,,,,,,,,,,,,,,,,,,,,,,
153791,001,2022-11-21_01h30.39.720,Info_measure_main_exp,2022.2.2,Win32,119.9472232,,,,,,,,,,,,,,,,,,masks/mask_005.jpg,,,,,,,,,,,,,,,,,,,,,,,,,,,,,,,,,,,,,,,,,,,0,3,3,4,1,,,,,,,,,,,,,,,,,,,,,,,,,,,,,,,,,,,,,,,,,,,,,,
153791,001,2022-11-21_01h30.39.720,Info_measure_main_exp,2022.2.2,Win32,119.9472232,,,,,,,,,,,,,,,,,,masks/mask_004.jpg,,,,,,,,,,,,,,,,,,,,,,,,,,,,,,,,,,,,,,,,,,,0,4,4,3,1,,,,,,,,,,,,,,,,,,,,,,,,,,,,,,,,,,,,,,,,,,,,,,
153791,001,2022-11-21_01h30.39.720,Info_measure_main_exp,2022.2.2,Win32,119.9472232,,,,,,,,,,,,,,,,,,masks/mask_001.jpg,,,,,,,,,,,,,,,,,,,,,,,,,,,,,,,,,,,,,,,,,,,,,,,,0,0,0,0,1,,,,,,,,,,,,,,,,,,,,,,,,,,,,,,,,,,,,,,,,,
153791,001,2022-11-21_01h30.39.720,Info_measure_main_exp,2022.2.2,Win32,119.9472232,,,,,,,,,,,,,,,,,,masks/mask_005.jpg,,,,,,,,,,,,,,,,,,,,,,,,,,,,,,,,,,,,,,,,,,,,,,,,0,1,1,4,1,,,,,,,,,,,,,,,,,,,,,,,,,,,,,,,,,,,,,,,,,
153791,001,2022-11-21_01h30.39.720,Info_measure_main_exp,2022.2.2,Win32,119.9472232,,,,,,,,,,,,,,,,,,masks/mask_003.jpg,,,,,,,,,,,,,,,,,,,,,,,,,,,,,,,,,,,,,,,,,,,,,,,,0,2,2,2,1,,,,,,,,,,,,,,,,,,,,,,,,,,,,,,,,,,,,,,,,,
153791,001,2022-11-21_01h30.39.720,Info_measure_main_exp,2022.2.2,Win32,119.9472232,,,,,,,,,,,,,,,,,,masks/mask_004.jpg,,,,,,,,,,,,,,,,,,,,,,,,,,,,,,,,,,,,,,,,,,,,,,,,0,3,3,3,1,,,,,,,,,,,,,,,,,,,,,,,,,,,,,,,,,,,,,,,,,
153791,001,2022-11-21_01h30.39.720,Info_measure_main_exp,2022.2.2,Win32,119.9472232,,,,,,,,,,,,,,,,,,masks/mask_002.jpg,,,,,,,,,,,,,,,,,,,,,,,,,,,,,,,,,,,,,,,,,,,,,,,,0,4,4,1,1,,,,,,,,,,,,,,,,,,,,,,,,,,,,,,,,,,,,,,,,,
153791,001,2022-11-21_01h30.39.720,Info_measure_main_exp,2022.2.2,Win32,119.9472232,,,,,,,,,,,,,,,,,,,,,,,,,,,,,,6,1.8,1,,,,,,,,,,,,0,131,5,5,2274,2082,absent_patch/patch0002274.jpg,absent_patch/patch0002082.jpg,,,,,,,,,,,,,,,,,,,,0.068518533,0.038888896,1,0,0,response1disk,20,0.009259259,0.0074074,1,0,0,center_square,0,19,19,100,1,,,,,,,,,,,,,,,,,,,,,,,
153791,001,2022-11-21_01h30.39.720,Info_measure_main_exp,2022.2.2,Win32,119.9472232,,,,,,,,,,,,,,,,,,masks/mask_003.jpg,,,,,,,,,,,,,,,,,,,,,,,,,,,,,,,,,,,,,,,,,,,0,0,0,2,1,,,,,,,,,,,,,,,,,,,,,,,,,,,,,,,,,,,,,,,,,,,,,,
153791,001,2022-11-21_01h30.39.720,Info_measure_main_exp,2022.2.2,Win32,119.9472232,,,,,,,,,,,,,,,,,,masks/mask_005.jpg,,,,,,,,,,,,,,,,,,,,,,,,,,,,,,,,,,,,,,,,,,,0,1,1,4,1,,,,,,,,,,,,,,,,,,,,,,,,,,,,,,,,,,,,,,,,,,,,,,
153791,001,2022-11-21_01h30.39.720,Info_measure_main_exp,2022.2.2,Win32,119.9472232,,,,,,,,,,,,,,,,,,masks/mask_002.jpg,,,,,,,,,,,,,,,,,,,,,,,,,,,,,,,,,,,,,,,,,,,0,2,2,1,1,,,,,,,,,,,,,,,,,,,,,,,,,,,,,,,,,,,,,,,,,,,,,,
153791,001,2022-11-21_01h30.39.720,Info_measure_main_exp,2022.2.2,Win32,119.9472232,,,,,,,,,,,,,,,,,,masks/mask_001.jpg,,,,,,,,,,,,,,,,,,,,,,,,,,,,,,,,,,,,,,,,,,,0,3,3,0,1,,,,,,,,,,,,,,,,,,,,,,,,,,,,,,,,,,,,,,,,,,,,,,
153791,001,2022-11-21_01h30.39.720,Info_measure_main_exp,2022.2.2,Win32,119.9472232,,,,,,,,,,,,,,,,,,masks/mask_004.jpg,,,,,,,,,,,,,,,,,,,,,,,,,,,,,,,,,,,,,,,,,,,0,4,4,3,1,,,,,,,,,,,,,,,,,,,,,,,,,,,,,,,,,,,,,,,,,,,,,,
153791,001,2022-11-21_01h30.39.720,Info_measure_main_exp,2022.2.2,Win32,119.9472232,,,,,,,,,,,,,,,,,,masks/mask_004.jpg,,,,,,,,,,,,,,,,,,,,,,,,,,,,,,,,,,,,,,,,,,,,,,,,0,0,0,3,1,,,,,,,,,,,,,,,,,,,,,,,,,,,,,,,,,,,,,,,,,
153791,001,2022-11-21_01h30.39.720,Info_measure_main_exp,2022.2.2,Win32,119.9472232,,,,,,,,,,,,,,,,,,masks/mask_001.jpg,,,,,,,,,,,,,,,,,,,,,,,,,,,,,,,,,,,,,,,,,,,,,,,,0,1,1,0,1,,,,,,,,,,,,,,,,,,,,,,,,,,,,,,,,,,,,,,,,,
153791,001,2022-11-21_01h30.39.720,Info_measure_main_exp,2022.2.2,Win32,119.9472232,,,,,,,,,,,,,,,,,,masks/mask_002.jpg,,,,,,,,,,,,,,,,,,,,,,,,,,,,,,,,,,,,,,,,,,,,,,,,0,2,2,1,1,,,,,,,,,,,,,,,,,,,,,,,,,,,,,,,,,,,,,,,,,
153791,001,2022-11-21_01h30.39.720,Info_measure_main_exp,2022.2.2,Win32,119.9472232,,,,,,,,,,,,,,,,,,masks/mask_005.jpg,,,,,,,,,,,,,,,,,,,,,,,,,,,,,,,,,,,,,,,,,,,,,,,,0,3,3,4,1,,,,,,,,,,,,,,,,,,,,,,,,,,,,,,,,,,,,,,,,,
153791,001,2022-11-21_01h30.39.720,Info_measure_main_exp,2022.2.2,Win32,119.9472232,,,,,,,,,,,,,,,,,,masks/mask_003.jpg,,,,,,,,,,,,,,,,,,,,,,,,,,,,,,,,,,,,,,,,,,,,,,,,0,4,4,2,1,,,,,,,,,,,,,,,,,,,,,,,,,,,,,,,,,,,,,,,,,
153791,001,2022-11-21_01h30.39.720,Info_measure_main_exp,2022.2.2,Win32,119.9472232,,,,,,,,,,,,,,,,,,,,,,,,,,,,,,3,1.7417,1,,,,,,,,,,,,1,131,5,5,1,2274,present_patch/cong_131_5_a.jpg,absent_patch/patch0002274.jpg,,,,,,,,,,,,,,,,,,,,-0.086111069,-0.131481524,1,0,0,response5disk,21,-0.014814801,-0.0074074,1,0,0,center_square,0,20,20,105,1,,,,,,,,,,,,,,,,,,,,,,,
153791,001,2022-11-21_01h30.39.720,Info_measure_main_exp,2022.2.2,Win32,119.9472232,,,,,,,,,,,,,,,,,,masks/mask_004.jpg,,,,,,,,,,,,,,,,,,,,,,,,,,,,,,,,,,,,,,,,,,,0,0,0,3,1,,,,,,,,,,,,,,,,,,,,,,,,,,,,,,,,,,,,,,,,,,,,,,
153791,001,2022-11-21_01h30.39.720,Info_measure_main_exp,2022.2.2,Win32,119.9472232,,,,,,,,,,,,,,,,,,masks/mask_003.jpg,,,,,,,,,,,,,,,,,,,,,,,,,,,,,,,,,,,,,,,,,,,0,1,1,2,1,,,,,,,,,,,,,,,,,,,,,,,,,,,,,,,,,,,,,,,,,,,,,,
153791,001,2022-11-21_01h30.39.720,Info_measure_main_exp,2022.2.2,Win32,119.9472232,,,,,,,,,,,,,,,,,,masks/mask_005.jpg,,,,,,,,,,,,,,,,,,,,,,,,,,,,,,,,,,,,,,,,,,,0,2,2,4,1,,,,,,,,,,,,,,,,,,,,,,,,,,,,,,,,,,,,,,,,,,,,,,
153791,001,2022-11-21_01h30.39.720,Info_measure_main_exp,2022.2.2,Win32,119.9472232,,,,,,,,,,,,,,,,,,masks/mask_001.jpg,,,,,,,,,,,,,,,,,,,,,,,,,,,,,,,,,,,,,,,,,,,0,3,3,0,1,,,,,,,,,,,,,,,,,,,,,,,,,,,,,,,,,,,,,,,,,,,,,,
153791,001,2022-11-21_01h30.39.720,Info_measure_main_exp,2022.2.2,Win32,119.9472232,,,,,,,,,,,,,,,,,,masks/mask_002.jpg,,,,,,,,,,,,,,,,,,,,,,,,,,,,,,,,,,,,,,,,,,,0,4,4,1,1,,,,,,,,,,,,,,,,,,,,,,,,,,,,,,,,,,,,,,,,,,,,,,
153791,001,2022-11-21_01h30.39.720,Info_measure_main_exp,2022.2.2,Win32,119.9472232,,,,,,,,,,,,,,,,,,masks/mask_005.jpg,,,,,,,,,,,,,,,,,,,,,,,,,,,,,,,,,,,,,,,,,,,,,,,,0,0,0,4,1,,,,,,,,,,,,,,,,,,,,,,,,,,,,,,,,,,,,,,,,,
153791,001,2022-11-21_01h30.39.720,Info_measure_main_exp,2022.2.2,Win32,119.9472232,,,,,,,,,,,,,,,,,,masks/mask_002.jpg,,,,,,,,,,,,,,,,,,,,,,,,,,,,,,,,,,,,,,,,,,,,,,,,0,1,1,1,1,,,,,,,,,,,,,,,,,,,,,,,,,,,,,,,,,,,,,,,,,
153791,001,2022-11-21_01h30.39.720,Info_measure_main_exp,2022.2.2,Win32,119.9472232,,,,,,,,,,,,,,,,,,masks/mask_001.jpg,,,,,,,,,,,,,,,,,,,,,,,,,,,,,,,,,,,,,,,,,,,,,,,,0,2,2,0,1,,,,,,,,,,,,,,,,,,,,,,,,,,,,,,,,,,,,,,,,,
153791,001,2022-11-21_01h30.39.720,Info_measure_main_exp,2022.2.2,Win32,119.9472232,,,,,,,,,,,,,,,,,,masks/mask_004.jpg,,,,,,,,,,,,,,,,,,,,,,,,,,,,,,,,,,,,,,,,,,,,,,,,0,3,3,3,1,,,,,,,,,,,,,,,,,,,,,,,,,,,,,,,,,,,,,,,,,
153791,001,2022-11-21_01h30.39.720,Info_measure_main_exp,2022.2.2,Win32,119.9472232,,,,,,,,,,,,,,,,,,masks/mask_003.jpg,,,,,,,,,,,,,,,,,,,,,,,,,,,,,,,,,,,,,,,,,,,,,,,,0,4,4,2,1,,,,,,,,,,,,,,,,,,,,,,,,,,,,,,,,,,,,,,,,,
153791,001,2022-11-21_01h30.39.720,Info_measure_main_exp,2022.2.2,Win32,119.9472232,,,,,,,,,,,,,,,,,,,,,,,,,,,,,,5,1.3917,1,,,,,,,,,,,,0,131,5,5,2298,2274,absent_patch/patch0002298.jpg,absent_patch/patch0002274.jpg,,,,,,,,,,,,,,,,,,,,0.058333362,-0.034259266,1,0,0,response3disk,22,0.007407436,-0.000925947,1,0,0,center_square,0,21,21,1,1,,,,,,,,,,,,,,,,,,,,,,,
153791,001,2022-11-21_01h30.39.720,Info_measure_main_exp,2022.2.2,Win32,119.9472232,,,,,,,,,,,,,,,,,,masks/mask_004.jpg,,,,,,,,,,,,,,,,,,,,,,,,,,,,,,,,,,,,,,,,,,,0,0,0,3,1,,,,,,,,,,,,,,,,,,,,,,,,,,,,,,,,,,,,,,,,,,,,,,
153791,001,2022-11-21_01h30.39.720,Info_measure_main_exp,2022.2.2,Win32,119.9472232,,,,,,,,,,,,,,,,,,masks/mask_003.jpg,,,,,,,,,,,,,,,,,,,,,,,,,,,,,,,,,,,,,,,,,,,0,1,1,2,1,,,,,,,,,,,,,,,,,,,,,,,,,,,,,,,,,,,,,,,,,,,,,,
153791,001,2022-11-21_01h30.39.720,Info_measure_main_exp,2022.2.2,Win32,119.9472232,,,,,,,,,,,,,,,,,,masks/mask_002.jpg,,,,,,,,,,,,,,,,,,,,,,,,,,,,,,,,,,,,,,,,,,,0,2,2,1,1,,,,,,,,,,,,,,,,,,,,,,,,,,,,,,,,,,,,,,,,,,,,,,
153791,001,2022-11-21_01h30.39.720,Info_measure_main_exp,2022.2.2,Win32,119.9472232,,,,,,,,,,,,,,,,,,masks/mask_005.jpg,,,,,,,,,,,,,,,,,,,,,,,,,,,,,,,,,,,,,,,,,,,0,3,3,4,1,,,,,,,,,,,,,,,,,,,,,,,,,,,,,,,,,,,,,,,,,,,,,,
153791,001,2022-11-21_01h30.39.720,Info_measure_main_exp,2022.2.2,Win32,119.9472232,,,,,,,,,,,,,,,,,,masks/mask_001.jpg,,,,,,,,,,,,,,,,,,,,,,,,,,,,,,,,,,,,,,,,,,,0,4,4,0,1,,,,,,,,,,,,,,,,,,,,,,,,,,,,,,,,,,,,,,,,,,,,,,
153791,001,2022-11-21_01h30.39.720,Info_measure_main_exp,2022.2.2,Win32,119.9472232,,,,,,,,,,,,,,,,,,masks/mask_002.jpg,,,,,,,,,,,,,,,,,,,,,,,,,,,,,,,,,,,,,,,,,,,,,,,,0,0,0,1,1,,,,,,,,,,,,,,,,,,,,,,,,,,,,,,,,,,,,,,,,,
153791,001,2022-11-21_01h30.39.720,Info_measure_main_exp,2022.2.2,Win32,119.9472232,,,,,,,,,,,,,,,,,,masks/mask_004.jpg,,,,,,,,,,,,,,,,,,,,,,,,,,,,,,,,,,,,,,,,,,,,,,,,0,1,1,3,1,,,,,,,,,,,,,,,,,,,,,,,,,,,,,,,,,,,,,,,,,
153791,001,2022-11-21_01h30.39.720,Info_measure_main_exp,2022.2.2,Win32,119.9472232,,,,,,,,,,,,,,,,,,masks/mask_001.jpg,,,,,,,,,,,,,,,,,,,,,,,,,,,,,,,,,,,,,,,,,,,,,,,,0,2,2,0,1,,,,,,,,,,,,,,,,,,,,,,,,,,,,,,,,,,,,,,,,,
153791,001,2022-11-21_01h30.39.720,Info_measure_main_exp,2022.2.2,Win32,119.9472232,,,,,,,,,,,,,,,,,,masks/mask_005.jpg,,,,,,,,,,,,,,,,,,,,,,,,,,,,,,,,,,,,,,,,,,,,,,,,0,3,3,4,1,,,,,,,,,,,,,,,,,,,,,,,,,,,,,,,,,,,,,,,,,
153791,001,2022-11-21_01h30.39.720,Info_measure_main_exp,2022.2.2,Win32,119.9472232,,,,,,,,,,,,,,,,,,masks/mask_003.jpg,,,,,,,,,,,,,,,,,,,,,,,,,,,,,,,,,,,,,,,,,,,,,,,,0,4,4,2,1,,,,,,,,,,,,,,,,,,,,,,,,,,,,,,,,,,,,,,,,,
153791,001,2022-11-21_01h30.39.720,Info_measure_main_exp,2022.2.2,Win32,119.9472232,,,,,,,,,,,,,,,,,,,,,,,,,,,,,,4,2.7834,1,,,,,,,,,,,,0,131,5,5,2142,2082,absent_patch/patch0002142.jpg,absent_patch/patch0002082.jpg,,,,,,,,,,,,,,,,,,,,0.064814815,-0.119444459,1,0,0,response3disk,23,0.003703718,0.000925912,1,0,0,center_square,0,22,22,88,1,,,,,,,,,,,,,,,,,,,,,,,
153791,001,2022-11-21_01h30.39.720,Info_measure_main_exp,2022.2.2,Win32,119.9472232,,,,,,,,,,,,,,,,,,masks/mask_001.jpg,,,,,,,,,,,,,,,,,,,,,,,,,,,,,,,,,,,,,,,,,,,0,0,0,0,1,,,,,,,,,,,,,,,,,,,,,,,,,,,,,,,,,,,,,,,,,,,,,,
153791,001,2022-11-21_01h30.39.720,Info_measure_main_exp,2022.2.2,Win32,119.9472232,,,,,,,,,,,,,,,,,,masks/mask_002.jpg,,,,,,,,,,,,,,,,,,,,,,,,,,,,,,,,,,,,,,,,,,,0,1,1,1,1,,,,,,,,,,,,,,,,,,,,,,,,,,,,,,,,,,,,,,,,,,,,,,
153791,001,2022-11-21_01h30.39.720,Info_measure_main_exp,2022.2.2,Win32,119.9472232,,,,,,,,,,,,,,,,,,masks/mask_004.jpg,,,,,,,,,,,,,,,,,,,,,,,,,,,,,,,,,,,,,,,,,,,0,2,2,3,1,,,,,,,,,,,,,,,,,,,,,,,,,,,,,,,,,,,,,,,,,,,,,,
153791,001,2022-11-21_01h30.39.720,Info_measure_main_exp,2022.2.2,Win32,119.9472232,,,,,,,,,,,,,,,,,,masks/mask_005.jpg,,,,,,,,,,,,,,,,,,,,,,,,,,,,,,,,,,,,,,,,,,,0,3,3,4,1,,,,,,,,,,,,,,,,,,,,,,,,,,,,,,,,,,,,,,,,,,,,,,
153791,001,2022-11-21_01h30.39.720,Info_measure_main_exp,2022.2.2,Win32,119.9472232,,,,,,,,,,,,,,,,,,masks/mask_003.jpg,,,,,,,,,,,,,,,,,,,,,,,,,,,,,,,,,,,,,,,,,,,0,4,4,2,1,,,,,,,,,,,,,,,,,,,,,,,,,,,,,,,,,,,,,,,,,,,,,,
153791,001,2022-11-21_01h30.39.720,Info_measure_main_exp,2022.2.2,Win32,119.9472232,,,,,,,,,,,,,,,,,,masks/mask_001.jpg,,,,,,,,,,,,,,,,,,,,,,,,,,,,,,,,,,,,,,,,,,,,,,,,0,0,0,0,1,,,,,,,,,,,,,,,,,,,,,,,,,,,,,,,,,,,,,,,,,
153791,001,2022-11-21_01h30.39.720,Info_measure_main_exp,2022.2.2,Win32,119.9472232,,,,,,,,,,,,,,,,,,masks/mask_002.jpg,,,,,,,,,,,,,,,,,,,,,,,,,,,,,,,,,,,,,,,,,,,,,,,,0,1,1,1,1,,,,,,,,,,,,,,,,,,,,,,,,,,,,,,,,,,,,,,,,,
153791,001,2022-11-21_01h30.39.720,Info_measure_main_exp,2022.2.2,Win32,119.9472232,,,,,,,,,,,,,,,,,,masks/mask_005.jpg,,,,,,,,,,,,,,,,,,,,,,,,,,,,,,,,,,,,,,,,,,,,,,,,0,2,2,4,1,,,,,,,,,,,,,,,,,,,,,,,,,,,,,,,,,,,,,,,,,
153791,001,2022-11-21_01h30.39.720,Info_measure_main_exp,2022.2.2,Win32,119.9472232,,,,,,,,,,,,,,,,,,masks/mask_003.jpg,,,,,,,,,,,,,,,,,,,,,,,,,,,,,,,,,,,,,,,,,,,,,,,,0,3,3,2,1,,,,,,,,,,,,,,,,,,,,,,,,,,,,,,,,,,,,,,,,,
153791,001,2022-11-21_01h30.39.720,Info_measure_main_exp,2022.2.2,Win32,119.9472232,,,,,,,,,,,,,,,,,,masks/mask_004.jpg,,,,,,,,,,,,,,,,,,,,,,,,,,,,,,,,,,,,,,,,,,,,,,,,0,4,4,3,1,,,,,,,,,,,,,,,,,,,,,,,,,,,,,,,,,,,,,,,,,
153791,001,2022-11-21_01h30.39.720,Info_measure_main_exp,2022.2.2,Win32,119.9472232,,,,,,,,,,,,,,,,,,,,,,,,,,,,,,7,1.3583,1,,,,,,,,,,,,0,131,5,5,2274,2250,absent_patch/patch0002274.jpg,absent_patch/patch0002250.jpg,,,,,,,,,,,,,,,,,,,,0.063888903,0.1175926,1,0,0,response1disk,24,0.000925912,-0.002777771,1,0,0,center_square,0,23,23,28,1,,,,,,,,,,,,,,,,,,,,,,,
153791,001,2022-11-21_01h30.39.720,Info_measure_main_exp,2022.2.2,Win32,119.9472232,,,,,,,,,,,,,,,,,,masks/mask_002.jpg,,,,,,,,,,,,,,,,,,,,,,,,,,,,,,,,,,,,,,,,,,,0,0,0,1,1,,,,,,,,,,,,,,,,,,,,,,,,,,,,,,,,,,,,,,,,,,,,,,
153791,001,2022-11-21_01h30.39.720,Info_measure_main_exp,2022.2.2,Win32,119.9472232,,,,,,,,,,,,,,,,,,masks/mask_003.jpg,,,,,,,,,,,,,,,,,,,,,,,,,,,,,,,,,,,,,,,,,,,0,1,1,2,1,,,,,,,,,,,,,,,,,,,,,,,,,,,,,,,,,,,,,,,,,,,,,,
153791,001,2022-11-21_01h30.39.720,Info_measure_main_exp,2022.2.2,Win32,119.9472232,,,,,,,,,,,,,,,,,,masks/mask_005.jpg,,,,,,,,,,,,,,,,,,,,,,,,,,,,,,,,,,,,,,,,,,,0,2,2,4,1,,,,,,,,,,,,,,,,,,,,,,,,,,,,,,,,,,,,,,,,,,,,,,
153791,001,2022-11-21_01h30.39.720,Info_measure_main_exp,2022.2.2,Win32,119.9472232,,,,,,,,,,,,,,,,,,masks/mask_004.jpg,,,,,,,,,,,,,,,,,,,,,,,,,,,,,,,,,,,,,,,,,,,0,3,3,3,1,,,,,,,,,,,,,,,,,,,,,,,,,,,,,,,,,,,,,,,,,,,,,,
153791,001,2022-11-21_01h30.39.720,Info_measure_main_exp,2022.2.2,Win32,119.9472232,,,,,,,,,,,,,,,,,,masks/mask_001.jpg,,,,,,,,,,,,,,,,,,,,,,,,,,,,,,,,,,,,,,,,,,,0,4,4,0,1,,,,,,,,,,,,,,,,,,,,,,,,,,,,,,,,,,,,,,,,,,,,,,
153791,001,2022-11-21_01h30.39.720,Info_measure_main_exp,2022.2.2,Win32,119.9472232,,,,,,,,,,,,,,,,,,masks/mask_004.jpg,,,,,,,,,,,,,,,,,,,,,,,,,,,,,,,,,,,,,,,,,,,,,,,,0,0,0,3,1,,,,,,,,,,,,,,,,,,,,,,,,,,,,,,,,,,,,,,,,,
153791,001,2022-11-21_01h30.39.720,Info_measure_main_exp,2022.2.2,Win32,119.9472232,,,,,,,,,,,,,,,,,,masks/mask_001.jpg,,,,,,,,,,,,,,,,,,,,,,,,,,,,,,,,,,,,,,,,,,,,,,,,0,1,1,0,1,,,,,,,,,,,,,,,,,,,,,,,,,,,,,,,,,,,,,,,,,
153791,001,2022-11-21_01h30.39.720,Info_measure_main_exp,2022.2.2,Win32,119.9472232,,,,,,,,,,,,,,,,,,masks/mask_003.jpg,,,,,,,,,,,,,,,,,,,,,,,,,,,,,,,,,,,,,,,,,,,,,,,,0,2,2,2,1,,,,,,,,,,,,,,,,,,,,,,,,,,,,,,,,,,,,,,,,,
153791,001,2022-11-21_01h30.39.720,Info_measure_main_exp,2022.2.2,Win32,119.9472232,,,,,,,,,,,,,,,,,,masks/mask_005.jpg,,,,,,,,,,,,,,,,,,,,,,,,,,,,,,,,,,,,,,,,,,,,,,,,0,3,3,4,1,,,,,,,,,,,,,,,,,,,,,,,,,,,,,,,,,,,,,,,,,
153791,001,2022-11-21_01h30.39.720,Info_measure_main_exp,2022.2.2,Win32,119.9472232,,,,,,,,,,,,,,,,,,masks/mask_002.jpg,,,,,,,,,,,,,,,,,,,,,,,,,,,,,,,,,,,,,,,,,,,,,,,,0,4,4,1,1,,,,,,,,,,,,,,,,,,,,,,,,,,,,,,,,,,,,,,,,,
153791,001,2022-11-21_01h30.39.720,Info_measure_main_exp,2022.2.2,Win32,119.9472232,,,,,,,,,,,,,,,,,,,,,,,,,,,,,,6,1.788,1,,,,,,,,,,,,0,131,5,5,2298,2214,absent_patch/patch0002298.jpg,absent_patch/patch0002214.jpg,,,,,,,,,,,,,,,,,,,,0.086111139,0.022222201,1,0,0,response1disk,25,0.012962977,-0.001851859,1,0,0,center_square,0,24,24,99,1,,,,,,,,,,,,,,,,,,,,,,,
153791,001,2022-11-21_01h30.39.720,Info_measure_main_exp,2022.2.2,Win32,119.9472232,,,,,,,,,,,,,,,,,,masks/mask_001.jpg,,,,,,,,,,,,,,,,,,,,,,,,,,,,,,,,,,,,,,,,,,,0,0,0,0,1,,,,,,,,,,,,,,,,,,,,,,,,,,,,,,,,,,,,,,,,,,,,,,
153791,001,2022-11-21_01h30.39.720,Info_measure_main_exp,2022.2.2,Win32,119.9472232,,,,,,,,,,,,,,,,,,masks/mask_002.jpg,,,,,,,,,,,,,,,,,,,,,,,,,,,,,,,,,,,,,,,,,,,0,1,1,1,1,,,,,,,,,,,,,,,,,,,,,,,,,,,,,,,,,,,,,,,,,,,,,,
153791,001,2022-11-21_01h30.39.720,Info_measure_main_exp,2022.2.2,Win32,119.9472232,,,,,,,,,,,,,,,,,,masks/mask_004.jpg,,,,,,,,,,,,,,,,,,,,,,,,,,,,,,,,,,,,,,,,,,,0,2,2,3,1,,,,,,,,,,,,,,,,,,,,,,,,,,,,,,,,,,,,,,,,,,,,,,
153791,001,2022-11-21_01h30.39.720,Info_measure_main_exp,2022.2.2,Win32,119.9472232,,,,,,,,,,,,,,,,,,masks/mask_003.jpg,,,,,,,,,,,,,,,,,,,,,,,,,,,,,,,,,,,,,,,,,,,0,3,3,2,1,,,,,,,,,,,,,,,,,,,,,,,,,,,,,,,,,,,,,,,,,,,,,,
153791,001,2022-11-21_01h30.39.720,Info_measure_main_exp,2022.2.2,Win32,119.9472232,,,,,,,,,,,,,,,,,,masks/mask_005.jpg,,,,,,,,,,,,,,,,,,,,,,,,,,,,,,,,,,,,,,,,,,,0,4,4,4,1,,,,,,,,,,,,,,,,,,,,,,,,,,,,,,,,,,,,,,,,,,,,,,
153791,001,2022-11-21_01h30.39.720,Info_measure_main_exp,2022.2.2,Win32,119.9472232,,,,,,,,,,,,,,,,,,masks/mask_004.jpg,,,,,,,,,,,,,,,,,,,,,,,,,,,,,,,,,,,,,,,,,,,,,,,,0,0,0,3,1,,,,,,,,,,,,,,,,,,,,,,,,,,,,,,,,,,,,,,,,,
153791,001,2022-11-21_01h30.39.720,Info_measure_main_exp,2022.2.2,Win32,119.9472232,,,,,,,,,,,,,,,,,,masks/mask_002.jpg,,,,,,,,,,,,,,,,,,,,,,,,,,,,,,,,,,,,,,,,,,,,,,,,0,1,1,1,1,,,,,,,,,,,,,,,,,,,,,,,,,,,,,,,,,,,,,,,,,
153791,001,2022-11-21_01h30.39.720,Info_measure_main_exp,2022.2.2,Win32,119.9472232,,,,,,,,,,,,,,,,,,masks/mask_003.jpg,,,,,,,,,,,,,,,,,,,,,,,,,,,,,,,,,,,,,,,,,,,,,,,,0,2,2,2,1,,,,,,,,,,,,,,,,,,,,,,,,,,,,,,,,,,,,,,,,,
153791,001,2022-11-21_01h30.39.720,Info_measure_main_exp,2022.2.2,Win32,119.9472232,,,,,,,,,,,,,,,,,,masks/mask_005.jpg,,,,,,,,,,,,,,,,,,,,,,,,,,,,,,,,,,,,,,,,,,,,,,,,0,3,3,4,1,,,,,,,,,,,,,,,,,,,,,,,,,,,,,,,,,,,,,,,,,
153791,001,2022-11-21_01h30.39.720,Info_measure_main_exp,2022.2.2,Win32,119.9472232,,,,,,,,,,,,,,,,,,masks/mask_001.jpg,,,,,,,,,,,,,,,,,,,,,,,,,,,,,,,,,,,,,,,,,,,,,,,,0,4,4,0,1,,,,,,,,,,,,,,,,,,,,,,,,,,,,,,,,,,,,,,,,,
153791,001,2022-11-21_01h30.39.720,Info_measure_main_exp,2022.2.2,Win32,119.9472232,,,,,,,,,,,,,,,,,,,,,,,,,,,,,,2,2.1083,1,,,,,,,,,,,,0,131,5,5,1986,2154,absent_patch/patch0001986.jpg,absent_patch/patch0002154.jpg,,,,,,,,,,,,,,,,,,,,-0.122222194,-0.01203703,1,0,0,response5disk,26,-0.007407365,0,1,0,0,center_square,0,25,25,36,1,,,,,,,,,,,,,,,,,,,,,,,
153791,001,2022-11-21_01h30.39.720,Info_measure_main_exp,2022.2.2,Win32,119.9472232,,,,,,,,,,,,,,,,,,masks/mask_004.jpg,,,,,,,,,,,,,,,,,,,,,,,,,,,,,,,,,,,,,,,,,,,0,0,0,3,1,,,,,,,,,,,,,,,,,,,,,,,,,,,,,,,,,,,,,,,,,,,,,,
153791,001,2022-11-21_01h30.39.720,Info_measure_main_exp,2022.2.2,Win32,119.9472232,,,,,,,,,,,,,,,,,,masks/mask_001.jpg,,,,,,,,,,,,,,,,,,,,,,,,,,,,,,,,,,,,,,,,,,,0,1,1,0,1,,,,,,,,,,,,,,,,,,,,,,,,,,,,,,,,,,,,,,,,,,,,,,
153791,001,2022-11-21_01h30.39.720,Info_measure_main_exp,2022.2.2,Win32,119.9472232,,,,,,,,,,,,,,,,,,masks/mask_005.jpg,,,,,,,,,,,,,,,,,,,,,,,,,,,,,,,,,,,,,,,,,,,0,2,2,4,1,,,,,,,,,,,,,,,,,,,,,,,,,,,,,,,,,,,,,,,,,,,,,,
153791,001,2022-11-21_01h30.39.720,Info_measure_main_exp,2022.2.2,Win32,119.9472232,,,,,,,,,,,,,,,,,,masks/mask_002.jpg,,,,,,,,,,,,,,,,,,,,,,,,,,,,,,,,,,,,,,,,,,,0,3,3,1,1,,,,,,,,,,,,,,,,,,,,,,,,,,,,,,,,,,,,,,,,,,,,,,
153791,001,2022-11-21_01h30.39.720,Info_measure_main_exp,2022.2.2,Win32,119.9472232,,,,,,,,,,,,,,,,,,masks/mask_003.jpg,,,,,,,,,,,,,,,,,,,,,,,,,,,,,,,,,,,,,,,,,,,0,4,4,2,1,,,,,,,,,,,,,,,,,,,,,,,,,,,,,,,,,,,,,,,,,,,,,,
153791,001,2022-11-21_01h30.39.720,Info_measure_main_exp,2022.2.2,Win32,119.9472232,,,,,,,,,,,,,,,,,,masks/mask_004.jpg,,,,,,,,,,,,,,,,,,,,,,,,,,,,,,,,,,,,,,,,,,,,,,,,0,0,0,3,1,,,,,,,,,,,,,,,,,,,,,,,,,,,,,,,,,,,,,,,,,
153791,001,2022-11-21_01h30.39.720,Info_measure_main_exp,2022.2.2,Win32,119.9472232,,,,,,,,,,,,,,,,,,masks/mask_002.jpg,,,,,,,,,,,,,,,,,,,,,,,,,,,,,,,,,,,,,,,,,,,,,,,,0,1,1,1,1,,,,,,,,,,,,,,,,,,,,,,,,,,,,,,,,,,,,,,,,,
153791,001,2022-11-21_01h30.39.720,Info_measure_main_exp,2022.2.2,Win32,119.9472232,,,,,,,,,,,,,,,,,,masks/mask_005.jpg,,,,,,,,,,,,,,,,,,,,,,,,,,,,,,,,,,,,,,,,,,,,,,,,0,2,2,4,1,,,,,,,,,,,,,,,,,,,,,,,,,,,,,,,,,,,,,,,,,
153791,001,2022-11-21_01h30.39.720,Info_measure_main_exp,2022.2.2,Win32,119.9472232,,,,,,,,,,,,,,,,,,masks/mask_003.jpg,,,,,,,,,,,,,,,,,,,,,,,,,,,,,,,,,,,,,,,,,,,,,,,,0,3,3,2,1,,,,,,,,,,,,,,,,,,,,,,,,,,,,,,,,,,,,,,,,,
153791,001,2022-11-21_01h30.39.720,Info_measure_main_exp,2022.2.2,Win32,119.9472232,,,,,,,,,,,,,,,,,,masks/mask_001.jpg,,,,,,,,,,,,,,,,,,,,,,,,,,,,,,,,,,,,,,,,,,,,,,,,0,4,4,0,1,,,,,,,,,,,,,,,,,,,,,,,,,,,,,,,,,,,,,,,,,
153791,001,2022-11-21_01h30.39.720,Info_measure_main_exp,2022.2.2,Win32,119.9472232,,,,,,,,,,,,,,,,,,,,,,,,,,,,,,6,1.3667,1,,,,,,,,,,,,0,131,5,5,2154,1974,absent_patch/patch0002154.jpg,absent_patch/patch0001974.jpg,,,,,,,,,,,,,,,,,,,,0.095370399,0.032407407,1,0,0,response1disk,27,0.012037065,0.005555541,1,0,0,center_square,0,26,26,82,1,,,,,,,,,,,,,,,,,,,,,,,
153791,001,2022-11-21_01h30.39.720,Info_measure_main_exp,2022.2.2,Win32,119.9472232,,,,,,,,,,,,,,,,,,masks/mask_005.jpg,,,,,,,,,,,,,,,,,,,,,,,,,,,,,,,,,,,,,,,,,,,0,0,0,4,1,,,,,,,,,,,,,,,,,,,,,,,,,,,,,,,,,,,,,,,,,,,,,,
153791,001,2022-11-21_01h30.39.720,Info_measure_main_exp,2022.2.2,Win32,119.9472232,,,,,,,,,,,,,,,,,,masks/mask_001.jpg,,,,,,,,,,,,,,,,,,,,,,,,,,,,,,,,,,,,,,,,,,,0,1,1,0,1,,,,,,,,,,,,,,,,,,,,,,,,,,,,,,,,,,,,,,,,,,,,,,
153791,001,2022-11-21_01h30.39.720,Info_measure_main_exp,2022.2.2,Win32,119.9472232,,,,,,,,,,,,,,,,,,masks/mask_003.jpg,,,,,,,,,,,,,,,,,,,,,,,,,,,,,,,,,,,,,,,,,,,0,2,2,2,1,,,,,,,,,,,,,,,,,,,,,,,,,,,,,,,,,,,,,,,,,,,,,,
153791,001,2022-11-21_01h30.39.720,Info_measure_main_exp,2022.2.2,Win32,119.9472232,,,,,,,,,,,,,,,,,,masks/mask_002.jpg,,,,,,,,,,,,,,,,,,,,,,,,,,,,,,,,,,,,,,,,,,,0,3,3,1,1,,,,,,,,,,,,,,,,,,,,,,,,,,,,,,,,,,,,,,,,,,,,,,
153791,001,2022-11-21_01h30.39.720,Info_measure_main_exp,2022.2.2,Win32,119.9472232,,,,,,,,,,,,,,,,,,masks/mask_004.jpg,,,,,,,,,,,,,,,,,,,,,,,,,,,,,,,,,,,,,,,,,,,0,4,4,3,1,,,,,,,,,,,,,,,,,,,,,,,,,,,,,,,,,,,,,,,,,,,,,,
153791,001,2022-11-21_01h30.39.720,Info_measure_main_exp,2022.2.2,Win32,119.9472232,,,,,,,,,,,,,,,,,,masks/mask_004.jpg,,,,,,,,,,,,,,,,,,,,,,,,,,,,,,,,,,,,,,,,,,,,,,,,0,0,0,3,1,,,,,,,,,,,,,,,,,,,,,,,,,,,,,,,,,,,,,,,,,
153791,001,2022-11-21_01h30.39.720,Info_measure_main_exp,2022.2.2,Win32,119.9472232,,,,,,,,,,,,,,,,,,masks/mask_005.jpg,,,,,,,,,,,,,,,,,,,,,,,,,,,,,,,,,,,,,,,,,,,,,,,,0,1,1,4,1,,,,,,,,,,,,,,,,,,,,,,,,,,,,,,,,,,,,,,,,,
153791,001,2022-11-21_01h30.39.720,Info_measure_main_exp,2022.2.2,Win32,119.9472232,,,,,,,,,,,,,,,,,,masks/mask_002.jpg,,,,,,,,,,,,,,,,,,,,,,,,,,,,,,,,,,,,,,,,,,,,,,,,0,2,2,1,1,,,,,,,,,,,,,,,,,,,,,,,,,,,,,,,,,,,,,,,,,
153791,001,2022-11-21_01h30.39.720,Info_measure_main_exp,2022.2.2,Win32,119.9472232,,,,,,,,,,,,,,,,,,masks/mask_003.jpg,,,,,,,,,,,,,,,,,,,,,,,,,,,,,,,,,,,,,,,,,,,,,,,,0,3,3,2,1,,,,,,,,,,,,,,,,,,,,,,,,,,,,,,,,,,,,,,,,,
153791,001,2022-11-21_01h30.39.720,Info_measure_main_exp,2022.2.2,Win32,119.9472232,,,,,,,,,,,,,,,,,,masks/mask_001.jpg,,,,,,,,,,,,,,,,,,,,,,,,,,,,,,,,,,,,,,,,,,,,,,,,0,4,4,0,1,,,,,,,,,,,,,,,,,,,,,,,,,,,,,,,,,,,,,,,,,
153791,001,2022-11-21_01h30.39.720,Info_measure_main_exp,2022.2.2,Win32,119.9472232,,,,,,,,,,,,,,,,,,,,,,,,,,,,,,0,0.7835,1,,,,,,,,,,,,0,131,5,5,2298,2298,absent_patch/patch0002298.jpg,absent_patch/patch0002298.jpg,,,,,,,,,,,,,,,,,,,,-0.047222208,0.095370363,1,0,0,response7disk,28,0.002777806,0.00462963,1,0,0,center_square,0,27,27,37,1,,,,,,,,,,,,,,,,,,,,,,,
153791,001,2022-11-21_01h30.39.720,Info_measure_main_exp,2022.2.2,Win32,119.9472232,,,,,,,,,,,,,,,,,,masks/mask_004.jpg,,,,,,,,,,,,,,,,,,,,,,,,,,,,,,,,,,,,,,,,,,,0,0,0,3,1,,,,,,,,,,,,,,,,,,,,,,,,,,,,,,,,,,,,,,,,,,,,,,
153791,001,2022-11-21_01h30.39.720,Info_measure_main_exp,2022.2.2,Win32,119.9472232,,,,,,,,,,,,,,,,,,masks/mask_001.jpg,,,,,,,,,,,,,,,,,,,,,,,,,,,,,,,,,,,,,,,,,,,0,1,1,0,1,,,,,,,,,,,,,,,,,,,,,,,,,,,,,,,,,,,,,,,,,,,,,,
153791,001,2022-11-21_01h30.39.720,Info_measure_main_exp,2022.2.2,Win32,119.9472232,,,,,,,,,,,,,,,,,,masks/mask_003.jpg,,,,,,,,,,,,,,,,,,,,,,,,,,,,,,,,,,,,,,,,,,,0,2,2,2,1,,,,,,,,,,,,,,,,,,,,,,,,,,,,,,,,,,,,,,,,,,,,,,
153791,001,2022-11-21_01h30.39.720,Info_measure_main_exp,2022.2.2,Win32,119.9472232,,,,,,,,,,,,,,,,,,masks/mask_002.jpg,,,,,,,,,,,,,,,,,,,,,,,,,,,,,,,,,,,,,,,,,,,0,3,3,1,1,,,,,,,,,,,,,,,,,,,,,,,,,,,,,,,,,,,,,,,,,,,,,,
153791,001,2022-11-21_01h30.39.720,Info_measure_main_exp,2022.2.2,Win32,119.9472232,,,,,,,,,,,,,,,,,,masks/mask_005.jpg,,,,,,,,,,,,,,,,,,,,,,,,,,,,,,,,,,,,,,,,,,,0,4,4,4,1,,,,,,,,,,,,,,,,,,,,,,,,,,,,,,,,,,,,,,,,,,,,,,
153791,001,2022-11-21_01h30.39.720,Info_measure_main_exp,2022.2.2,Win32,119.9472232,,,,,,,,,,,,,,,,,,masks/mask_002.jpg,,,,,,,,,,,,,,,,,,,,,,,,,,,,,,,,,,,,,,,,,,,,,,,,0,0,0,1,1,,,,,,,,,,,,,,,,,,,,,,,,,,,,,,,,,,,,,,,,,
153791,001,2022-11-21_01h30.39.720,Info_measure_main_exp,2022.2.2,Win32,119.9472232,,,,,,,,,,,,,,,,,,masks/mask_003.jpg,,,,,,,,,,,,,,,,,,,,,,,,,,,,,,,,,,,,,,,,,,,,,,,,0,1,1,2,1,,,,,,,,,,,,,,,,,,,,,,,,,,,,,,,,,,,,,,,,,
153791,001,2022-11-21_01h30.39.720,Info_measure_main_exp,2022.2.2,Win32,119.9472232,,,,,,,,,,,,,,,,,,masks/mask_005.jpg,,,,,,,,,,,,,,,,,,,,,,,,,,,,,,,,,,,,,,,,,,,,,,,,0,2,2,4,1,,,,,,,,,,,,,,,,,,,,,,,,,,,,,,,,,,,,,,,,,
153791,001,2022-11-21_01h30.39.720,Info_measure_main_exp,2022.2.2,Win32,119.9472232,,,,,,,,,,,,,,,,,,masks/mask_004.jpg,,,,,,,,,,,,,,,,,,,,,,,,,,,,,,,,,,,,,,,,,,,,,,,,0,3,3,3,1,,,,,,,,,,,,,,,,,,,,,,,,,,,,,,,,,,,,,,,,,
153791,001,2022-11-21_01h30.39.720,Info_measure_main_exp,2022.2.2,Win32,119.9472232,,,,,,,,,,,,,,,,,,masks/mask_001.jpg,,,,,,,,,,,,,,,,,,,,,,,,,,,,,,,,,,,,,,,,,,,,,,,,0,4,4,0,1,,,,,,,,,,,,,,,,,,,,,,,,,,,,,,,,,,,,,,,,,
153791,001,2022-11-21_01h30.39.720,Info_measure_main_exp,2022.2.2,Win32,119.9472232,,,,,,,,,,,,,,,,,,,,,,,,,,,,,,4,2.0834,1,,,,,,,,,,,,0,131,5,5,1950,2142,absent_patch/patch0001950.jpg,absent_patch/patch0002142.jpg,,,,,,,,,,,,,,,,,,,,0.077777792,-0.154629672,1,0,0,response3disk,29,-0.001851824,0.003703683,1,0,0,center_square,0,28,28,83,1,,,,,,,,,,,,,,,,,,,,,,,
153791,001,2022-11-21_01h30.39.720,Info_measure_main_exp,2022.2.2,Win32,119.9472232,,,,,,,,,,,,,,,,,,masks/mask_001.jpg,,,,,,,,,,,,,,,,,,,,,,,,,,,,,,,,,,,,,,,,,,,0,0,0,0,1,,,,,,,,,,,,,,,,,,,,,,,,,,,,,,,,,,,,,,,,,,,,,,
153791,001,2022-11-21_01h30.39.720,Info_measure_main_exp,2022.2.2,Win32,119.9472232,,,,,,,,,,,,,,,,,,masks/mask_002.jpg,,,,,,,,,,,,,,,,,,,,,,,,,,,,,,,,,,,,,,,,,,,0,1,1,1,1,,,,,,,,,,,,,,,,,,,,,,,,,,,,,,,,,,,,,,,,,,,,,,
153791,001,2022-11-21_01h30.39.720,Info_measure_main_exp,2022.2.2,Win32,119.9472232,,,,,,,,,,,,,,,,,,masks/mask_005.jpg,,,,,,,,,,,,,,,,,,,,,,,,,,,,,,,,,,,,,,,,,,,0,2,2,4,1,,,,,,,,,,,,,,,,,,,,,,,,,,,,,,,,,,,,,,,,,,,,,,
153791,001,2022-11-21_01h30.39.720,Info_measure_main_exp,2022.2.2,Win32,119.9472232,,,,,,,,,,,,,,,,,,masks/mask_004.jpg,,,,,,,,,,,,,,,,,,,,,,,,,,,,,,,,,,,,,,,,,,,0,3,3,3,1,,,,,,,,,,,,,,,,,,,,,,,,,,,,,,,,,,,,,,,,,,,,,,
153791,001,2022-11-21_01h30.39.720,Info_measure_main_exp,2022.2.2,Win32,119.9472232,,,,,,,,,,,,,,,,,,masks/mask_003.jpg,,,,,,,,,,,,,,,,,,,,,,,,,,,,,,,,,,,,,,,,,,,0,4,4,2,1,,,,,,,,,,,,,,,,,,,,,,,,,,,,,,,,,,,,,,,,,,,,,,
153791,001,2022-11-21_01h30.39.720,Info_measure_main_exp,2022.2.2,Win32,119.9472232,,,,,,,,,,,,,,,,,,masks/mask_005.jpg,,,,,,,,,,,,,,,,,,,,,,,,,,,,,,,,,,,,,,,,,,,,,,,,0,0,0,4,1,,,,,,,,,,,,,,,,,,,,,,,,,,,,,,,,,,,,,,,,,
153791,001,2022-11-21_01h30.39.720,Info_measure_main_exp,2022.2.2,Win32,119.9472232,,,,,,,,,,,,,,,,,,masks/mask_002.jpg,,,,,,,,,,,,,,,,,,,,,,,,,,,,,,,,,,,,,,,,,,,,,,,,0,1,1,1,1,,,,,,,,,,,,,,,,,,,,,,,,,,,,,,,,,,,,,,,,,
153791,001,2022-11-21_01h30.39.720,Info_measure_main_exp,2022.2.2,Win32,119.9472232,,,,,,,,,,,,,,,,,,masks/mask_003.jpg,,,,,,,,,,,,,,,,,,,,,,,,,,,,,,,,,,,,,,,,,,,,,,,,0,2,2,2,1,,,,,,,,,,,,,,,,,,,,,,,,,,,,,,,,,,,,,,,,,
153791,001,2022-11-21_01h30.39.720,Info_measure_main_exp,2022.2.2,Win32,119.9472232,,,,,,,,,,,,,,,,,,masks/mask_001.jpg,,,,,,,,,,,,,,,,,,,,,,,,,,,,,,,,,,,,,,,,,,,,,,,,0,3,3,0,1,,,,,,,,,,,,,,,,,,,,,,,,,,,,,,,,,,,,,,,,,
153791,001,2022-11-21_01h30.39.720,Info_measure_main_exp,2022.2.2,Win32,119.9472232,,,,,,,,,,,,,,,,,,masks/mask_004.jpg,,,,,,,,,,,,,,,,,,,,,,,,,,,,,,,,,,,,,,,,,,,,,,,,0,4,4,3,1,,,,,,,,,,,,,,,,,,,,,,,,,,,,,,,,,,,,,,,,,
153791,001,2022-11-21_01h30.39.720,Info_measure_main_exp,2022.2.2,Win32,119.9472232,,,,,,,,,,,,,,,,,,,,,,,,,,,,,,6,0.6584,1,,,,,,,,,,,,0,131,5,5,1986,1974,absent_patch/patch0001986.jpg,absent_patch/patch0001974.jpg,,,,,,,,,,,,,,,,,,,,0.064814815,0.03148146,1,0,0,response1disk,30,0.005555541,0.001851859,1,0,0,center_square,0,29,29,25,1,,,,,,,,,,,,,,,,,,,,,,,
153791,001,2022-11-21_01h30.39.720,Info_measure_main_exp,2022.2.2,Win32,119.9472232,,,,,,,,,,,,,,,,,,masks/mask_004.jpg,,,,,,,,,,,,,,,,,,,,,,,,,,,,,,,,,,,,,,,,,,,0,0,0,3,1,,,,,,,,,,,,,,,,,,,,,,,,,,,,,,,,,,,,,,,,,,,,,,
153791,001,2022-11-21_01h30.39.720,Info_measure_main_exp,2022.2.2,Win32,119.9472232,,,,,,,,,,,,,,,,,,masks/mask_002.jpg,,,,,,,,,,,,,,,,,,,,,,,,,,,,,,,,,,,,,,,,,,,0,1,1,1,1,,,,,,,,,,,,,,,,,,,,,,,,,,,,,,,,,,,,,,,,,,,,,,
153791,001,2022-11-21_01h30.39.720,Info_measure_main_exp,2022.2.2,Win32,119.9472232,,,,,,,,,,,,,,,,,,masks/mask_001.jpg,,,,,,,,,,,,,,,,,,,,,,,,,,,,,,,,,,,,,,,,,,,0,2,2,0,1,,,,,,,,,,,,,,,,,,,,,,,,,,,,,,,,,,,,,,,,,,,,,,
153791,001,2022-11-21_01h30.39.720,Info_measure_main_exp,2022.2.2,Win32,119.9472232,,,,,,,,,,,,,,,,,,masks/mask_003.jpg,,,,,,,,,,,,,,,,,,,,,,,,,,,,,,,,,,,,,,,,,,,0,3,3,2,1,,,,,,,,,,,,,,,,,,,,,,,,,,,,,,,,,,,,,,,,,,,,,,
153791,001,2022-11-21_01h30.39.720,Info_measure_main_exp,2022.2.2,Win32,119.9472232,,,,,,,,,,,,,,,,,,masks/mask_005.jpg,,,,,,,,,,,,,,,,,,,,,,,,,,,,,,,,,,,,,,,,,,,0,4,4,4,1,,,,,,,,,,,,,,,,,,,,,,,,,,,,,,,,,,,,,,,,,,,,,,
153791,001,2022-11-21_01h30.39.720,Info_measure_main_exp,2022.2.2,Win32,119.9472232,,,,,,,,,,,,,,,,,,masks/mask_001.jpg,,,,,,,,,,,,,,,,,,,,,,,,,,,,,,,,,,,,,,,,,,,,,,,,0,0,0,0,1,,,,,,,,,,,,,,,,,,,,,,,,,,,,,,,,,,,,,,,,,
153791,001,2022-11-21_01h30.39.720,Info_measure_main_exp,2022.2.2,Win32,119.9472232,,,,,,,,,,,,,,,,,,masks/mask_004.jpg,,,,,,,,,,,,,,,,,,,,,,,,,,,,,,,,,,,,,,,,,,,,,,,,0,1,1,3,1,,,,,,,,,,,,,,,,,,,,,,,,,,,,,,,,,,,,,,,,,
153791,001,2022-11-21_01h30.39.720,Info_measure_main_exp,2022.2.2,Win32,119.9472232,,,,,,,,,,,,,,,,,,masks/mask_002.jpg,,,,,,,,,,,,,,,,,,,,,,,,,,,,,,,,,,,,,,,,,,,,,,,,0,2,2,1,1,,,,,,,,,,,,,,,,,,,,,,,,,,,,,,,,,,,,,,,,,
153791,001,2022-11-21_01h30.39.720,Info_measure_main_exp,2022.2.2,Win32,119.9472232,,,,,,,,,,,,,,,,,,masks/mask_003.jpg,,,,,,,,,,,,,,,,,,,,,,,,,,,,,,,,,,,,,,,,,,,,,,,,0,3,3,2,1,,,,,,,,,,,,,,,,,,,,,,,,,,,,,,,,,,,,,,,,,
153791,001,2022-11-21_01h30.39.720,Info_measure_main_exp,2022.2.2,Win32,119.9472232,,,,,,,,,,,,,,,,,,masks/mask_005.jpg,,,,,,,,,,,,,,,,,,,,,,,,,,,,,,,,,,,,,,,,,,,,,,,,0,4,4,4,1,,,,,,,,,,,,,,,,,,,,,,,,,,,,,,,,,,,,,,,,,
153791,001,2022-11-21_01h30.39.720,Info_measure_main_exp,2022.2.2,Win32,119.9472232,,,,,,,,,,,,,,,,,,,,,,,,,,,,,,6,0.8916,1,,,,,,,,,,,,0,131,5,5,2238,2298,absent_patch/patch0002238.jpg,absent_patch/patch0002298.jpg,,,,,,,,,,,,,,,,,,,,0.077777792,0.02870369,1,0,0,response1disk,31,-0.006481453,-0.000925947,1,0,0,center_square,0,30,30,51,1,,,,,,,,,,,,,,,,,,,,,,,
153791,001,2022-11-21_01h30.39.720,Info_measure_main_exp,2022.2.2,Win32,119.9472232,,,,,,,,,,,,,,,,,,masks/mask_005.jpg,,,,,,,,,,,,,,,,,,,,,,,,,,,,,,,,,,,,,,,,,,,0,0,0,4,1,,,,,,,,,,,,,,,,,,,,,,,,,,,,,,,,,,,,,,,,,,,,,,
153791,001,2022-11-21_01h30.39.720,Info_measure_main_exp,2022.2.2,Win32,119.9472232,,,,,,,,,,,,,,,,,,masks/mask_004.jpg,,,,,,,,,,,,,,,,,,,,,,,,,,,,,,,,,,,,,,,,,,,0,1,1,3,1,,,,,,,,,,,,,,,,,,,,,,,,,,,,,,,,,,,,,,,,,,,,,,
153791,001,2022-11-21_01h30.39.720,Info_measure_main_exp,2022.2.2,Win32,119.9472232,,,,,,,,,,,,,,,,,,masks/mask_003.jpg,,,,,,,,,,,,,,,,,,,,,,,,,,,,,,,,,,,,,,,,,,,0,2,2,2,1,,,,,,,,,,,,,,,,,,,,,,,,,,,,,,,,,,,,,,,,,,,,,,
153791,001,2022-11-21_01h30.39.720,Info_measure_main_exp,2022.2.2,Win32,119.9472232,,,,,,,,,,,,,,,,,,masks/mask_002.jpg,,,,,,,,,,,,,,,,,,,,,,,,,,,,,,,,,,,,,,,,,,,0,3,3,1,1,,,,,,,,,,,,,,,,,,,,,,,,,,,,,,,,,,,,,,,,,,,,,,
153791,001,2022-11-21_01h30.39.720,Info_measure_main_exp,2022.2.2,Win32,119.9472232,,,,,,,,,,,,,,,,,,masks/mask_001.jpg,,,,,,,,,,,,,,,,,,,,,,,,,,,,,,,,,,,,,,,,,,,0,4,4,0,1,,,,,,,,,,,,,,,,,,,,,,,,,,,,,,,,,,,,,,,,,,,,,,
153791,001,2022-11-21_01h30.39.720,Info_measure_main_exp,2022.2.2,Win32,119.9472232,,,,,,,,,,,,,,,,,,masks/mask_004.jpg,,,,,,,,,,,,,,,,,,,,,,,,,,,,,,,,,,,,,,,,,,,,,,,,0,0,0,3,1,,,,,,,,,,,,,,,,,,,,,,,,,,,,,,,,,,,,,,,,,
153791,001,2022-11-21_01h30.39.720,Info_measure_main_exp,2022.2.2,Win32,119.9472232,,,,,,,,,,,,,,,,,,masks/mask_003.jpg,,,,,,,,,,,,,,,,,,,,,,,,,,,,,,,,,,,,,,,,,,,,,,,,0,1,1,2,1,,,,,,,,,,,,,,,,,,,,,,,,,,,,,,,,,,,,,,,,,
153791,001,2022-11-21_01h30.39.720,Info_measure_main_exp,2022.2.2,Win32,119.9472232,,,,,,,,,,,,,,,,,,masks/mask_002.jpg,,,,,,,,,,,,,,,,,,,,,,,,,,,,,,,,,,,,,,,,,,,,,,,,0,2,2,1,1,,,,,,,,,,,,,,,,,,,,,,,,,,,,,,,,,,,,,,,,,
153791,001,2022-11-21_01h30.39.720,Info_measure_main_exp,2022.2.2,Win32,119.9472232,,,,,,,,,,,,,,,,,,masks/mask_001.jpg,,,,,,,,,,,,,,,,,,,,,,,,,,,,,,,,,,,,,,,,,,,,,,,,0,3,3,0,1,,,,,,,,,,,,,,,,,,,,,,,,,,,,,,,,,,,,,,,,,
153791,001,2022-11-21_01h30.39.720,Info_measure_main_exp,2022.2.2,Win32,119.9472232,,,,,,,,,,,,,,,,,,masks/mask_005.jpg,,,,,,,,,,,,,,,,,,,,,,,,,,,,,,,,,,,,,,,,,,,,,,,,0,4,4,4,1,,,,,,,,,,,,,,,,,,,,,,,,,,,,,,,,,,,,,,,,,
153791,001,2022-11-21_01h30.39.720,Info_measure_main_exp,2022.2.2,Win32,119.9472232,,,,,,,,,,,,,,,,,,,,,,,,,,,,,,3,2.7084,1,,,,,,,,,,,,0,131,5,5,2298,2178,absent_patch/patch0002298.jpg,absent_patch/patch0002178.jpg,,,,,,,,,,,,,,,,,,,,-0.031481496,-0.078703704,1,0,0,response5disk,32,-0.002777735,-0.003703718,1,0,0,center_square,0,31,31,84,1,,,,,,,,,,,,,,,,,,,,,,,
153791,001,2022-11-21_01h30.39.720,Info_measure_main_exp,2022.2.2,Win32,119.9472232,,,,,,,,,,,,,,,,,,masks/mask_001.jpg,,,,,,,,,,,,,,,,,,,,,,,,,,,,,,,,,,,,,,,,,,,0,0,0,0,1,,,,,,,,,,,,,,,,,,,,,,,,,,,,,,,,,,,,,,,,,,,,,,
153791,001,2022-11-21_01h30.39.720,Info_measure_main_exp,2022.2.2,Win32,119.9472232,,,,,,,,,,,,,,,,,,masks/mask_003.jpg,,,,,,,,,,,,,,,,,,,,,,,,,,,,,,,,,,,,,,,,,,,0,1,1,2,1,,,,,,,,,,,,,,,,,,,,,,,,,,,,,,,,,,,,,,,,,,,,,,
153791,001,2022-11-21_01h30.39.720,Info_measure_main_exp,2022.2.2,Win32,119.9472232,,,,,,,,,,,,,,,,,,masks/mask_005.jpg,,,,,,,,,,,,,,,,,,,,,,,,,,,,,,,,,,,,,,,,,,,0,2,2,4,1,,,,,,,,,,,,,,,,,,,,,,,,,,,,,,,,,,,,,,,,,,,,,,
153791,001,2022-11-21_01h30.39.720,Info_measure_main_exp,2022.2.2,Win32,119.9472232,,,,,,,,,,,,,,,,,,masks/mask_004.jpg,,,,,,,,,,,,,,,,,,,,,,,,,,,,,,,,,,,,,,,,,,,0,3,3,3,1,,,,,,,,,,,,,,,,,,,,,,,,,,,,,,,,,,,,,,,,,,,,,,
153791,001,2022-11-21_01h30.39.720,Info_measure_main_exp,2022.2.2,Win32,119.9472232,,,,,,,,,,,,,,,,,,masks/mask_002.jpg,,,,,,,,,,,,,,,,,,,,,,,,,,,,,,,,,,,,,,,,,,,0,4,4,1,1,,,,,,,,,,,,,,,,,,,,,,,,,,,,,,,,,,,,,,,,,,,,,,
153791,001,2022-11-21_01h30.39.720,Info_measure_main_exp,2022.2.2,Win32,119.9472232,,,,,,,,,,,,,,,,,,masks/mask_002.jpg,,,,,,,,,,,,,,,,,,,,,,,,,,,,,,,,,,,,,,,,,,,,,,,,0,0,0,1,1,,,,,,,,,,,,,,,,,,,,,,,,,,,,,,,,,,,,,,,,,
153791,001,2022-11-21_01h30.39.720,Info_measure_main_exp,2022.2.2,Win32,119.9472232,,,,,,,,,,,,,,,,,,masks/mask_004.jpg,,,,,,,,,,,,,,,,,,,,,,,,,,,,,,,,,,,,,,,,,,,,,,,,0,1,1,3,1,,,,,,,,,,,,,,,,,,,,,,,,,,,,,,,,,,,,,,,,,
153791,001,2022-11-21_01h30.39.720,Info_measure_main_exp,2022.2.2,Win32,119.9472232,,,,,,,,,,,,,,,,,,masks/mask_005.jpg,,,,,,,,,,,,,,,,,,,,,,,,,,,,,,,,,,,,,,,,,,,,,,,,0,2,2,4,1,,,,,,,,,,,,,,,,,,,,,,,,,,,,,,,,,,,,,,,,,
153791,001,2022-11-21_01h30.39.720,Info_measure_main_exp,2022.2.2,Win32,119.9472232,,,,,,,,,,,,,,,,,,masks/mask_003.jpg,,,,,,,,,,,,,,,,,,,,,,,,,,,,,,,,,,,,,,,,,,,,,,,,0,3,3,2,1,,,,,,,,,,,,,,,,,,,,,,,,,,,,,,,,,,,,,,,,,
153791,001,2022-11-21_01h30.39.720,Info_measure_main_exp,2022.2.2,Win32,119.9472232,,,,,,,,,,,,,,,,,,masks/mask_001.jpg,,,,,,,,,,,,,,,,,,,,,,,,,,,,,,,,,,,,,,,,,,,,,,,,0,4,4,0,1,,,,,,,,,,,,,,,,,,,,,,,,,,,,,,,,,,,,,,,,,
153791,001,2022-11-21_01h30.39.720,Info_measure_main_exp,2022.2.2,Win32,119.9472232,,,,,,,,,,,,,,,,,,,,,,,,,,,,,,2,1.9169,1,,,,,,,,,,,,0,131,5,5,2154,2238,absent_patch/patch0002154.jpg,absent_patch/patch0002238.jpg,,,,,,,,,,,,,,,,,,,,-0.113888847,-0.048148155,1,0,0,response5disk,33,0,0.003703683,1,0,0,center_square,0,32,32,21,1,,,,,,,,,,,,,,,,,,,,,,,
153791,001,2022-11-21_01h30.39.720,Info_measure_main_exp,2022.2.2,Win32,119.9472232,,,,,,,,,,,,,,,,,,masks/mask_003.jpg,,,,,,,,,,,,,,,,,,,,,,,,,,,,,,,,,,,,,,,,,,,0,0,0,2,1,,,,,,,,,,,,,,,,,,,,,,,,,,,,,,,,,,,,,,,,,,,,,,
153791,001,2022-11-21_01h30.39.720,Info_measure_main_exp,2022.2.2,Win32,119.9472232,,,,,,,,,,,,,,,,,,masks/mask_001.jpg,,,,,,,,,,,,,,,,,,,,,,,,,,,,,,,,,,,,,,,,,,,0,1,1,0,1,,,,,,,,,,,,,,,,,,,,,,,,,,,,,,,,,,,,,,,,,,,,,,
153791,001,2022-11-21_01h30.39.720,Info_measure_main_exp,2022.2.2,Win32,119.9472232,,,,,,,,,,,,,,,,,,masks/mask_002.jpg,,,,,,,,,,,,,,,,,,,,,,,,,,,,,,,,,,,,,,,,,,,0,2,2,1,1,,,,,,,,,,,,,,,,,,,,,,,,,,,,,,,,,,,,,,,,,,,,,,
153791,001,2022-11-21_01h30.39.720,Info_measure_main_exp,2022.2.2,Win32,119.9472232,,,,,,,,,,,,,,,,,,masks/mask_005.jpg,,,,,,,,,,,,,,,,,,,,,,,,,,,,,,,,,,,,,,,,,,,0,3,3,4,1,,,,,,,,,,,,,,,,,,,,,,,,,,,,,,,,,,,,,,,,,,,,,,
153791,001,2022-11-21_01h30.39.720,Info_measure_main_exp,2022.2.2,Win32,119.9472232,,,,,,,,,,,,,,,,,,masks/mask_004.jpg,,,,,,,,,,,,,,,,,,,,,,,,,,,,,,,,,,,,,,,,,,,0,4,4,3,1,,,,,,,,,,,,,,,,,,,,,,,,,,,,,,,,,,,,,,,,,,,,,,
153791,001,2022-11-21_01h30.39.720,Info_measure_main_exp,2022.2.2,Win32,119.9472232,,,,,,,,,,,,,,,,,,masks/mask_002.jpg,,,,,,,,,,,,,,,,,,,,,,,,,,,,,,,,,,,,,,,,,,,,,,,,0,0,0,1,1,,,,,,,,,,,,,,,,,,,,,,,,,,,,,,,,,,,,,,,,,
153791,001,2022-11-21_01h30.39.720,Info_measure_main_exp,2022.2.2,Win32,119.9472232,,,,,,,,,,,,,,,,,,masks/mask_005.jpg,,,,,,,,,,,,,,,,,,,,,,,,,,,,,,,,,,,,,,,,,,,,,,,,0,1,1,4,1,,,,,,,,,,,,,,,,,,,,,,,,,,,,,,,,,,,,,,,,,
153791,001,2022-11-21_01h30.39.720,Info_measure_main_exp,2022.2.2,Win32,119.9472232,,,,,,,,,,,,,,,,,,masks/mask_003.jpg,,,,,,,,,,,,,,,,,,,,,,,,,,,,,,,,,,,,,,,,,,,,,,,,0,2,2,2,1,,,,,,,,,,,,,,,,,,,,,,,,,,,,,,,,,,,,,,,,,
153791,001,2022-11-21_01h30.39.720,Info_measure_main_exp,2022.2.2,Win32,119.9472232,,,,,,,,,,,,,,,,,,masks/mask_004.jpg,,,,,,,,,,,,,,,,,,,,,,,,,,,,,,,,,,,,,,,,,,,,,,,,0,3,3,3,1,,,,,,,,,,,,,,,,,,,,,,,,,,,,,,,,,,,,,,,,,
153791,001,2022-11-21_01h30.39.720,Info_measure_main_exp,2022.2.2,Win32,119.9472232,,,,,,,,,,,,,,,,,,masks/mask_001.jpg,,,,,,,,,,,,,,,,,,,,,,,,,,,,,,,,,,,,,,,,,,,,,,,,0,4,4,0,1,,,,,,,,,,,,,,,,,,,,,,,,,,,,,,,,,,,,,,,,,
153791,001,2022-11-21_01h30.39.720,Info_measure_main_exp,2022.2.2,Win32,119.9472232,,,,,,,,,,,,,,,,,,,,,,,,,,,,,,6,1.869,1,,,,,,,,,,,,0,131,5,5,2154,2298,absent_patch/patch0002154.jpg,absent_patch/patch0002298.jpg,,,,,,,,,,,,,,,,,,,,0.114814829,0.026851831,1,0,0,response1disk,34,0.002777806,0.009259259,1,0,0,center_square,0,33,33,27,1,,,,,,,,,,,,,,,,,,,,,,,
153791,001,2022-11-21_01h30.39.720,Info_measure_main_exp,2022.2.2,Win32,119.9472232,,,,,,,,,,,,,,,,,,masks/mask_004.jpg,,,,,,,,,,,,,,,,,,,,,,,,,,,,,,,,,,,,,,,,,,,0,0,0,3,1,,,,,,,,,,,,,,,,,,,,,,,,,,,,,,,,,,,,,,,,,,,,,,
153791,001,2022-11-21_01h30.39.720,Info_measure_main_exp,2022.2.2,Win32,119.9472232,,,,,,,,,,,,,,,,,,masks/mask_003.jpg,,,,,,,,,,,,,,,,,,,,,,,,,,,,,,,,,,,,,,,,,,,0,1,1,2,1,,,,,,,,,,,,,,,,,,,,,,,,,,,,,,,,,,,,,,,,,,,,,,
153791,001,2022-11-21_01h30.39.720,Info_measure_main_exp,2022.2.2,Win32,119.9472232,,,,,,,,,,,,,,,,,,masks/mask_002.jpg,,,,,,,,,,,,,,,,,,,,,,,,,,,,,,,,,,,,,,,,,,,0,2,2,1,1,,,,,,,,,,,,,,,,,,,,,,,,,,,,,,,,,,,,,,,,,,,,,,
153791,001,2022-11-21_01h30.39.720,Info_measure_main_exp,2022.2.2,Win32,119.9472232,,,,,,,,,,,,,,,,,,masks/mask_001.jpg,,,,,,,,,,,,,,,,,,,,,,,,,,,,,,,,,,,,,,,,,,,0,3,3,0,1,,,,,,,,,,,,,,,,,,,,,,,,,,,,,,,,,,,,,,,,,,,,,,
153791,001,2022-11-21_01h30.39.720,Info_measure_main_exp,2022.2.2,Win32,119.9472232,,,,,,,,,,,,,,,,,,masks/mask_005.jpg,,,,,,,,,,,,,,,,,,,,,,,,,,,,,,,,,,,,,,,,,,,0,4,4,4,1,,,,,,,,,,,,,,,,,,,,,,,,,,,,,,,,,,,,,,,,,,,,,,
153791,001,2022-11-21_01h30.39.720,Info_measure_main_exp,2022.2.2,Win32,119.9472232,,,,,,,,,,,,,,,,,,masks/mask_004.jpg,,,,,,,,,,,,,,,,,,,,,,,,,,,,,,,,,,,,,,,,,,,,,,,,0,0,0,3,1,,,,,,,,,,,,,,,,,,,,,,,,,,,,,,,,,,,,,,,,,
153791,001,2022-11-21_01h30.39.720,Info_measure_main_exp,2022.2.2,Win32,119.9472232,,,,,,,,,,,,,,,,,,masks/mask_003.jpg,,,,,,,,,,,,,,,,,,,,,,,,,,,,,,,,,,,,,,,,,,,,,,,,0,1,1,2,1,,,,,,,,,,,,,,,,,,,,,,,,,,,,,,,,,,,,,,,,,
153791,001,2022-11-21_01h30.39.720,Info_measure_main_exp,2022.2.2,Win32,119.9472232,,,,,,,,,,,,,,,,,,masks/mask_005.jpg,,,,,,,,,,,,,,,,,,,,,,,,,,,,,,,,,,,,,,,,,,,,,,,,0,2,2,4,1,,,,,,,,,,,,,,,,,,,,,,,,,,,,,,,,,,,,,,,,,
153791,001,2022-11-21_01h30.39.720,Info_measure_main_exp,2022.2.2,Win32,119.9472232,,,,,,,,,,,,,,,,,,masks/mask_002.jpg,,,,,,,,,,,,,,,,,,,,,,,,,,,,,,,,,,,,,,,,,,,,,,,,0,3,3,1,1,,,,,,,,,,,,,,,,,,,,,,,,,,,,,,,,,,,,,,,,,
