participant,session,date,expName,psychopyVersion,OS,frameRate,space_press_continue.keys,space_press_continue.rt,space_press_continue_2.keys,space_press_continue_2.rt,space_press_continue_3.keys,space_press_continue_3.rt,space_press_continue_4.keys,space_press_continue_4.rt,space_press_continue_5.keys,space_press_continue_5.rt,space_press_continue_6.keys,space_press_continue_6.rt,prac_mask_loop_1.thisRepN,prac_mask_loop_1.thisTrialN,prac_mask_loop_1.thisN,prac_mask_loop_1.thisIndex,prac_mask_loop_1.ran,mask_name,prac_mask_loop_2.thisRepN,prac_mask_loop_2.thisTrialN,prac_mask_loop_2.thisN,prac_mask_loop_2.thisIndex,prac_mask_loop_2.ran,mouse_2.x,mouse_2.y,mouse_2.leftButton,mouse_2.midButton,mouse_2.rightButton,mouse_2.clicked_name,similarity,response_time,Pass,mouse_12.x,mouse_12.y,mouse_12.leftButton,mouse_12.midButton,mouse_12.rightButton,mouse_12.clicked_name,prac_loop.thisRepN,prac_loop.thisTrialN,prac_loop.thisN,prac_loop.thisIndex,prac_loop.ran,Pair_type,Image_num,Patch_1_loc,Patch_2_loc,Patch_1_info,Patch_2_info,Patch_1_name,Patch_2_name,mouse_1.x,mouse_1.y,mouse_1.leftButton,mouse_1.midButton,mouse_1.rightButton,mouse_1.time,mouse_1.clicked_name,space_press_continue_7.keys,space_press_continue_7.rt,mask_loop.thisRepN,mask_loop.thisTrialN,mask_loop.thisN,mask_loop.thisIndex,mask_loop.ran,mask_loop_2.thisRepN,mask_loop_2.thisTrialN,mask_loop_2.thisN,mask_loop_2.thisIndex,mask_loop_2.ran,mouse.x,mouse.y,mouse.leftButton,mouse.midButton,mouse.rightButton,mouse.clicked_name,trialNumber,mouse_11.x,mouse_11.y,mouse_11.leftButton,mouse_11.midButton,mouse_11.rightButton,mouse_11.clicked_name,first_pass_loop.thisRepN,first_pass_loop.thisTrialN,first_pass_loop.thisN,first_pass_loop.thisIndex,first_pass_loop.ran,mask_loop_3.thisRepN,mask_loop_3.thisTrialN,mask_loop_3.thisN,mask_loop_3.thisIndex,mask_loop_3.ran,mask_loop_4.thisRepN,mask_loop_4.thisTrialN,mask_loop_4.thisN,mask_loop_4.thisIndex,mask_loop_4.ran,mouse_3.x,mouse_3.y,mouse_3.leftButton,mouse_3.midButton,mouse_3.rightButton,mouse_3.clicked_name,double_pass_loop.thisRepN,double_pass_loop.thisTrialN,double_pass_loop.thisN,double_pass_loop.thisIndex,double_pass_loop.ran,space_exit.keys,space_exit.rt
156141,001,2022-11-20_23h49.34.751,Info_measure_main_exp,2022.2.2,Win32,164.4195988,,,,,,,,,,,,,,,,,,,,,,,,,,,,,,,,,,,,,,,,,,,,,,,,,,,,,,,,,,,,,,,,,,,,,,,,,,,,,,,,,,,,,,,,,,,,,,,,,,,,,,,,,,,,,,,
156141,001,2022-11-20_23h49.34.751,Info_measure_main_exp,2022.2.2,Win32,164.4195988,,,,,,,,,,,,,,,,,,,,,,,,,,,,,,,,,,,,,,,,,,,,,,,,,,,,,,,,,,,,,,,,,,,,,,,,,,,,,,,,,,,,,,,,,,,,,,,,,,,,,,,,,,,,,,,
156141,001,2022-11-20_23h49.34.751,Info_measure_main_exp,2022.2.2,Win32,164.4195988,space,6.6978,,,,,,,,,,,,,,,,,,,,,,,,,,,,,,,,,,,,,,,,,,,,,,,,,,,,,,,,,,,,,,,,,,,,,,,,,,,,,,,,,,,,,,,,,,,,,,,,,,,,,,,,,,,,,
156141,001,2022-11-20_23h49.34.751,Info_measure_main_exp,2022.2.2,Win32,164.4195988,,,space,14.324,,,,,,,,,,,,,,,,,,,,,,,,,,,,,,,,,,,,,,,,,,,,,,,,,,,,,,,,,,,,,,,,,,,,,,,,,,,,,,,,,,,,,,,,,,,,,,,,,,,,,,,,,,,
156141,001,2022-11-20_23h49.34.751,Info_measure_main_exp,2022.2.2,Win32,164.4195988,,,,,space,8.4205,,,,,,,,,,,,,,,,,,,,,,,,,,,,,,,,,,,,,,,,,,,,,,,,,,,,,,,,,,,,,,,,,,,,,,,,,,,,,,,,,,,,,,,,,,,,,,,,,,,,,,,,,
156141,001,2022-11-20_23h49.34.751,Info_measure_main_exp,2022.2.2,Win32,164.4195988,,,,,,,space,13.2959,,,,,,,,,,,,,,,,,,,,,,,,,,,,,,,,,,,,,,,,,,,,,,,,,,,,,,,,,,,,,,,,,,,,,,,,,,,,,,,,,,,,,,,,,,,,,,,,,,,,,,,
156141,001,2022-11-20_23h49.34.751,Info_measure_main_exp,2022.2.2,Win32,164.4195988,,,,,,,,,space,7.357,,,,,,,,,,,,,,,,,,,,,,,,,,,,,,,,,,,,,,,,,,,,,,,,,,,,,,,,,,,,,,,,,,,,,,,,,,,,,,,,,,,,,,,,,,,,,,,,,,,,,
156141,001,2022-11-20_23h49.34.751,Info_measure_main_exp,2022.2.2,Win32,164.4195988,,,,,,,,,,,space,12.2345,,,,,,,,,,,,,,,,,,,,,,,,,,,,,,,,,,,,,,,,,,,,,,,,,,,,,,,,,,,,,,,,,,,,,,,,,,,,,,,,,,,,,,,,,,,,,,,,,,,
156141,001,2022-11-20_23h49.34.751,Info_measure_main_exp,2022.2.2,Win32,164.4195988,,,,,,,,,,,,,0,0,0,3,1,masks/mask_004.jpg,,,,,,,,,,,,,,,,,,,,,,,,,,,,,,,,,,,,,,,,,,,,,,,,,,,,,,,,,,,,,,,,,,,,,,,,,,,,,,,,,,,,,,,,,,,,,
156141,001,2022-11-20_23h49.34.751,Info_measure_main_exp,2022.2.2,Win32,164.4195988,,,,,,,,,,,,,0,1,1,0,1,masks/mask_001.jpg,,,,,,,,,,,,,,,,,,,,,,,,,,,,,,,,,,,,,,,,,,,,,,,,,,,,,,,,,,,,,,,,,,,,,,,,,,,,,,,,,,,,,,,,,,,,,
156141,001,2022-11-20_23h49.34.751,Info_measure_main_exp,2022.2.2,Win32,164.4195988,,,,,,,,,,,,,0,2,2,4,1,masks/mask_005.jpg,,,,,,,,,,,,,,,,,,,,,,,,,,,,,,,,,,,,,,,,,,,,,,,,,,,,,,,,,,,,,,,,,,,,,,,,,,,,,,,,,,,,,,,,,,,,,
156141,001,2022-11-20_23h49.34.751,Info_measure_main_exp,2022.2.2,Win32,164.4195988,,,,,,,,,,,,,0,3,3,2,1,masks/mask_003.jpg,,,,,,,,,,,,,,,,,,,,,,,,,,,,,,,,,,,,,,,,,,,,,,,,,,,,,,,,,,,,,,,,,,,,,,,,,,,,,,,,,,,,,,,,,,,,,
156141,001,2022-11-20_23h49.34.751,Info_measure_main_exp,2022.2.2,Win32,164.4195988,,,,,,,,,,,,,0,4,4,1,1,masks/mask_002.jpg,,,,,,,,,,,,,,,,,,,,,,,,,,,,,,,,,,,,,,,,,,,,,,,,,,,,,,,,,,,,,,,,,,,,,,,,,,,,,,,,,,,,,,,,,,,,,
156141,001,2022-11-20_23h49.34.751,Info_measure_main_exp,2022.2.2,Win32,164.4195988,,,,,,,,,,,,,,,,,,masks/mask_001.jpg,0,0,0,0,1,,,,,,,,,,,,,,,,,,,,,,,,,,,,,,,,,,,,,,,,,,,,,,,,,,,,,,,,,,,,,,,,,,,,,,,,,,,,,,,,,,,,,,,,
156141,001,2022-11-20_23h49.34.751,Info_measure_main_exp,2022.2.2,Win32,164.4195988,,,,,,,,,,,,,,,,,,masks/mask_002.jpg,0,1,1,1,1,,,,,,,,,,,,,,,,,,,,,,,,,,,,,,,,,,,,,,,,,,,,,,,,,,,,,,,,,,,,,,,,,,,,,,,,,,,,,,,,,,,,,,,,
156141,001,2022-11-20_23h49.34.751,Info_measure_main_exp,2022.2.2,Win32,164.4195988,,,,,,,,,,,,,,,,,,masks/mask_004.jpg,0,2,2,3,1,,,,,,,,,,,,,,,,,,,,,,,,,,,,,,,,,,,,,,,,,,,,,,,,,,,,,,,,,,,,,,,,,,,,,,,,,,,,,,,,,,,,,,,,
156141,001,2022-11-20_23h49.34.751,Info_measure_main_exp,2022.2.2,Win32,164.4195988,,,,,,,,,,,,,,,,,,masks/mask_005.jpg,0,3,3,4,1,,,,,,,,,,,,,,,,,,,,,,,,,,,,,,,,,,,,,,,,,,,,,,,,,,,,,,,,,,,,,,,,,,,,,,,,,,,,,,,,,,,,,,,,
156141,001,2022-11-20_23h49.34.751,Info_measure_main_exp,2022.2.2,Win32,164.4195988,,,,,,,,,,,,,,,,,,masks/mask_003.jpg,0,4,4,2,1,,,,,,,,,,,,,,,,,,,,,,,,,,,,,,,,,,,,,,,,,,,,,,,,,,,,,,,,,,,,,,,,,,,,,,,,,,,,,,,,,,,,,,,,
156141,001,2022-11-20_23h49.34.751,Info_measure_main_exp,2022.2.2,Win32,164.4195988,,,,,,,,,,,,,,,,,,,,,,,,0.084311633,-0.161686233,1,0,0,response3disk,4,68.4944,1,0.008537887,0.003735326,1,0,0,center_square,0,0,0,0,1,0,131,5,5,2370,2406,prac_patch/patch0002370.jpg,prac_patch/patch0002406.jpg,,,,,,,,,,,,,,,,,,,,,,,,,,,,,,,,,,,,,,,,,,,,,,,,,,,,,,,,,,,,
156141,001,2022-11-20_23h49.34.751,Info_measure_main_exp,2022.2.2,Win32,164.4195988,,,,,,,,,,,,,0,0,0,1,1,masks/mask_002.jpg,,,,,,,,,,,,,,,,,,,,,,,,,,,,,,,,,,,,,,,,,,,,,,,,,,,,,,,,,,,,,,,,,,,,,,,,,,,,,,,,,,,,,,,,,,,,,
156141,001,2022-11-20_23h49.34.751,Info_measure_main_exp,2022.2.2,Win32,164.4195988,,,,,,,,,,,,,0,1,1,4,1,masks/mask_005.jpg,,,,,,,,,,,,,,,,,,,,,,,,,,,,,,,,,,,,,,,,,,,,,,,,,,,,,,,,,,,,,,,,,,,,,,,,,,,,,,,,,,,,,,,,,,,,,
156141,001,2022-11-20_23h49.34.751,Info_measure_main_exp,2022.2.2,Win32,164.4195988,,,,,,,,,,,,,0,2,2,3,1,masks/mask_004.jpg,,,,,,,,,,,,,,,,,,,,,,,,,,,,,,,,,,,,,,,,,,,,,,,,,,,,,,,,,,,,,,,,,,,,,,,,,,,,,,,,,,,,,,,,,,,,,
156141,001,2022-11-20_23h49.34.751,Info_measure_main_exp,2022.2.2,Win32,164.4195988,,,,,,,,,,,,,0,3,3,0,1,masks/mask_001.jpg,,,,,,,,,,,,,,,,,,,,,,,,,,,,,,,,,,,,,,,,,,,,,,,,,,,,,,,,,,,,,,,,,,,,,,,,,,,,,,,,,,,,,,,,,,,,,
156141,001,2022-11-20_23h49.34.751,Info_measure_main_exp,2022.2.2,Win32,164.4195988,,,,,,,,,,,,,0,4,4,2,1,masks/mask_003.jpg,,,,,,,,,,,,,,,,,,,,,,,,,,,,,,,,,,,,,,,,,,,,,,,,,,,,,,,,,,,,,,,,,,,,,,,,,,,,,,,,,,,,,,,,,,,,,
156141,001,2022-11-20_23h49.34.751,Info_measure_main_exp,2022.2.2,Win32,164.4195988,,,,,,,,,,,,,,,,,,masks/mask_005.jpg,0,0,0,4,1,,,,,,,,,,,,,,,,,,,,,,,,,,,,,,,,,,,,,,,,,,,,,,,,,,,,,,,,,,,,,,,,,,,,,,,,,,,,,,,,,,,,,,,,
156141,001,2022-11-20_23h49.34.751,Info_measure_main_exp,2022.2.2,Win32,164.4195988,,,,,,,,,,,,,,,,,,masks/mask_003.jpg,0,1,1,2,1,,,,,,,,,,,,,,,,,,,,,,,,,,,,,,,,,,,,,,,,,,,,,,,,,,,,,,,,,,,,,,,,,,,,,,,,,,,,,,,,,,,,,,,,
156141,001,2022-11-20_23h49.34.751,Info_measure_main_exp,2022.2.2,Win32,164.4195988,,,,,,,,,,,,,,,,,,masks/mask_001.jpg,0,2,2,0,1,,,,,,,,,,,,,,,,,,,,,,,,,,,,,,,,,,,,,,,,,,,,,,,,,,,,,,,,,,,,,,,,,,,,,,,,,,,,,,,,,,,,,,,,
156141,001,2022-11-20_23h49.34.751,Info_measure_main_exp,2022.2.2,Win32,164.4195988,,,,,,,,,,,,,,,,,,masks/mask_002.jpg,0,3,3,1,1,,,,,,,,,,,,,,,,,,,,,,,,,,,,,,,,,,,,,,,,,,,,,,,,,,,,,,,,,,,,,,,,,,,,,,,,,,,,,,,,,,,,,,,,
156141,001,2022-11-20_23h49.34.751,Info_measure_main_exp,2022.2.2,Win32,164.4195988,,,,,,,,,,,,,,,,,,masks/mask_004.jpg,0,4,4,3,1,,,,,,,,,,,,,,,,,,,,,,,,,,,,,,,,,,,,,,,,,,,,,,,,,,,,,,,,,,,,,,,,,,,,,,,,,,,,,,,,,,,,,,,,
156141,001,2022-11-20_23h49.34.751,Info_measure_main_exp,2022.2.2,Win32,164.4195988,,,,,,,,,,,,,,,,,,,,,,,,-0.187833511,0.151013874,1,0,0,response7disk,1,84.2775,1,0.003201708,-0.00266809,1,0,0,center_square,0,1,1,2,1,0,131,5,5,2526,2526,prac_patch/patch0002526.jpg,prac_patch/patch0002526.jpg,,,,,,,,,,,,,,,,,,,,,,,,,,,,,,,,,,,,,,,,,,,,,,,,,,,,,,,,,,,,
156141,001,2022-11-20_23h49.34.751,Info_measure_main_exp,2022.2.2,Win32,164.4195988,,,,,,,,,,,,,0,0,0,2,1,masks/mask_003.jpg,,,,,,,,,,,,,,,,,,,,,,,,,,,,,,,,,,,,,,,,,,,,,,,,,,,,,,,,,,,,,,,,,,,,,,,,,,,,,,,,,,,,,,,,,,,,,
156141,001,2022-11-20_23h49.34.751,Info_measure_main_exp,2022.2.2,Win32,164.4195988,,,,,,,,,,,,,0,1,1,0,1,masks/mask_001.jpg,,,,,,,,,,,,,,,,,,,,,,,,,,,,,,,,,,,,,,,,,,,,,,,,,,,,,,,,,,,,,,,,,,,,,,,,,,,,,,,,,,,,,,,,,,,,,
156141,001,2022-11-20_23h49.34.751,Info_measure_main_exp,2022.2.2,Win32,164.4195988,,,,,,,,,,,,,0,2,2,3,1,masks/mask_004.jpg,,,,,,,,,,,,,,,,,,,,,,,,,,,,,,,,,,,,,,,,,,,,,,,,,,,,,,,,,,,,,,,,,,,,,,,,,,,,,,,,,,,,,,,,,,,,,
156141,001,2022-11-20_23h49.34.751,Info_measure_main_exp,2022.2.2,Win32,164.4195988,,,,,,,,,,,,,0,3,3,4,1,masks/mask_005.jpg,,,,,,,,,,,,,,,,,,,,,,,,,,,,,,,,,,,,,,,,,,,,,,,,,,,,,,,,,,,,,,,,,,,,,,,,,,,,,,,,,,,,,,,,,,,,,
156141,001,2022-11-20_23h49.34.751,Info_measure_main_exp,2022.2.2,Win32,164.4195988,,,,,,,,,,,,,0,4,4,1,1,masks/mask_002.jpg,,,,,,,,,,,,,,,,,,,,,,,,,,,,,,,,,,,,,,,,,,,,,,,,,,,,,,,,,,,,,,,,,,,,,,,,,,,,,,,,,,,,,,,,,,,,,
156141,001,2022-11-20_23h49.34.751,Info_measure_main_exp,2022.2.2,Win32,164.4195988,,,,,,,,,,,,,,,,,,masks/mask_005.jpg,0,0,0,4,1,,,,,,,,,,,,,,,,,,,,,,,,,,,,,,,,,,,,,,,,,,,,,,,,,,,,,,,,,,,,,,,,,,,,,,,,,,,,,,,,,,,,,,,,
156141,001,2022-11-20_23h49.34.751,Info_measure_main_exp,2022.2.2,Win32,164.4195988,,,,,,,,,,,,,,,,,,masks/mask_003.jpg,0,1,1,2,1,,,,,,,,,,,,,,,,,,,,,,,,,,,,,,,,,,,,,,,,,,,,,,,,,,,,,,,,,,,,,,,,,,,,,,,,,,,,,,,,,,,,,,,,
156141,001,2022-11-20_23h49.34.751,Info_measure_main_exp,2022.2.2,Win32,164.4195988,,,,,,,,,,,,,,,,,,masks/mask_004.jpg,0,2,2,3,1,,,,,,,,,,,,,,,,,,,,,,,,,,,,,,,,,,,,,,,,,,,,,,,,,,,,,,,,,,,,,,,,,,,,,,,,,,,,,,,,,,,,,,,,
156141,001,2022-11-20_23h49.34.751,Info_measure_main_exp,2022.2.2,Win32,164.4195988,,,,,,,,,,,,,,,,,,masks/mask_001.jpg,0,3,3,0,1,,,,,,,,,,,,,,,,,,,,,,,,,,,,,,,,,,,,,,,,,,,,,,,,,,,,,,,,,,,,,,,,,,,,,,,,,,,,,,,,,,,,,,,,
156141,001,2022-11-20_23h49.34.751,Info_measure_main_exp,2022.2.2,Win32,164.4195988,,,,,,,,,,,,,,,,,,masks/mask_002.jpg,0,4,4,1,1,,,,,,,,,,,,,,,,,,,,,,,,,,,,,,,,,,,,,,,,,,,,,,,,,,,,,,,,,,,,,,,,,,,,,,,,,,,,,,,,,,,,,,,,
156141,001,2022-11-20_23h49.34.751,Info_measure_main_exp,2022.2.2,Win32,164.4195988,,,,,,,,,,,,,,,,,,,,,,,,0.131270011,-0.096584845,1,0,0,response3disk,5,91.7963,1,-0.001067236,-0.012273212,1,0,0,center_square,0,2,2,1,1,0,131,5,5,2514,2490,prac_patch/patch0002514.jpg,prac_patch/patch0002490.jpg,,,,,,,,,,,,,,,,,,,,,,,,,,,,,,,,,,,,,,,,,,,,,,,,,,,,,,,,,,,,
156141,001,2022-11-20_23h49.34.751,Info_measure_main_exp,2022.2.2,Win32,164.4195988,,,,,,,,,,,,,,,,,,,,,,,,,,,,,,,,,,,,,,,,,,,,,,,,,,,,,,,,,,,space,3.4691,,,,,,,,,,,,,,,,,,,,,,,,,,,,,,,,,,,,,,,,,,,,,,,,,,,
156141,001,2022-11-20_23h49.34.751,Info_measure_main_exp,2022.2.2,Win32,164.4195988,,,,,,,,,,,,,,,,,,masks/mask_002.jpg,,,,,,,,,,,,,,,,,,,,,,,,,,,,,,,,,,,,,,,,,,,0,0,0,1,1,,,,,,,,,,,,,,,,,,,,,,,,,,,,,,,,,,,,,,,,,,,,,,
156141,001,2022-11-20_23h49.34.751,Info_measure_main_exp,2022.2.2,Win32,164.4195988,,,,,,,,,,,,,,,,,,masks/mask_003.jpg,,,,,,,,,,,,,,,,,,,,,,,,,,,,,,,,,,,,,,,,,,,0,1,1,2,1,,,,,,,,,,,,,,,,,,,,,,,,,,,,,,,,,,,,,,,,,,,,,,
156141,001,2022-11-20_23h49.34.751,Info_measure_main_exp,2022.2.2,Win32,164.4195988,,,,,,,,,,,,,,,,,,masks/mask_005.jpg,,,,,,,,,,,,,,,,,,,,,,,,,,,,,,,,,,,,,,,,,,,0,2,2,4,1,,,,,,,,,,,,,,,,,,,,,,,,,,,,,,,,,,,,,,,,,,,,,,
156141,001,2022-11-20_23h49.34.751,Info_measure_main_exp,2022.2.2,Win32,164.4195988,,,,,,,,,,,,,,,,,,masks/mask_001.jpg,,,,,,,,,,,,,,,,,,,,,,,,,,,,,,,,,,,,,,,,,,,0,3,3,0,1,,,,,,,,,,,,,,,,,,,,,,,,,,,,,,,,,,,,,,,,,,,,,,
156141,001,2022-11-20_23h49.34.751,Info_measure_main_exp,2022.2.2,Win32,164.4195988,,,,,,,,,,,,,,,,,,masks/mask_004.jpg,,,,,,,,,,,,,,,,,,,,,,,,,,,,,,,,,,,,,,,,,,,0,4,4,3,1,,,,,,,,,,,,,,,,,,,,,,,,,,,,,,,,,,,,,,,,,,,,,,
156141,001,2022-11-20_23h49.34.751,Info_measure_main_exp,2022.2.2,Win32,164.4195988,,,,,,,,,,,,,,,,,,masks/mask_003.jpg,,,,,,,,,,,,,,,,,,,,,,,,,,,,,,,,,,,,,,,,,,,,,,,,0,0,0,2,1,,,,,,,,,,,,,,,,,,,,,,,,,,,,,,,,,,,,,,,,,
156141,001,2022-11-20_23h49.34.751,Info_measure_main_exp,2022.2.2,Win32,164.4195988,,,,,,,,,,,,,,,,,,masks/mask_002.jpg,,,,,,,,,,,,,,,,,,,,,,,,,,,,,,,,,,,,,,,,,,,,,,,,0,1,1,1,1,,,,,,,,,,,,,,,,,,,,,,,,,,,,,,,,,,,,,,,,,
156141,001,2022-11-20_23h49.34.751,Info_measure_main_exp,2022.2.2,Win32,164.4195988,,,,,,,,,,,,,,,,,,masks/mask_004.jpg,,,,,,,,,,,,,,,,,,,,,,,,,,,,,,,,,,,,,,,,,,,,,,,,0,2,2,3,1,,,,,,,,,,,,,,,,,,,,,,,,,,,,,,,,,,,,,,,,,
156141,001,2022-11-20_23h49.34.751,Info_measure_main_exp,2022.2.2,Win32,164.4195988,,,,,,,,,,,,,,,,,,masks/mask_001.jpg,,,,,,,,,,,,,,,,,,,,,,,,,,,,,,,,,,,,,,,,,,,,,,,,0,3,3,0,1,,,,,,,,,,,,,,,,,,,,,,,,,,,,,,,,,,,,,,,,,
156141,001,2022-11-20_23h49.34.751,Info_measure_main_exp,2022.2.2,Win32,164.4195988,,,,,,,,,,,,,,,,,,masks/mask_005.jpg,,,,,,,,,,,,,,,,,,,,,,,,,,,,,,,,,,,,,,,,,,,,,,,,0,4,4,4,1,,,,,,,,,,,,,,,,,,,,,,,,,,,,,,,,,,,,,,,,,
156141,001,2022-11-20_23h49.34.751,Info_measure_main_exp,2022.2.2,Win32,164.4195988,,,,,,,,,,,,,,,,,,,,,,,,,,,,,,2,0.928,1,,,,,,,,,,,,0,131,5,5,2274,2190,absent_patch/patch0002274.jpg,absent_patch/patch0002190.jpg,,,,,,,,,,,,,,,,,,,,-0.139807898,-0.092315902,1,0,0,response5disk,1,-0.004268943,-0.011205977,1,0,0,center_square,0,0,0,116,1,,,,,,,,,,,,,,,,,,,,,,,
156141,001,2022-11-20_23h49.34.751,Info_measure_main_exp,2022.2.2,Win32,164.4195988,,,,,,,,,,,,,,,,,,masks/mask_002.jpg,,,,,,,,,,,,,,,,,,,,,,,,,,,,,,,,,,,,,,,,,,,0,0,0,1,1,,,,,,,,,,,,,,,,,,,,,,,,,,,,,,,,,,,,,,,,,,,,,,
156141,001,2022-11-20_23h49.34.751,Info_measure_main_exp,2022.2.2,Win32,164.4195988,,,,,,,,,,,,,,,,,,masks/mask_001.jpg,,,,,,,,,,,,,,,,,,,,,,,,,,,,,,,,,,,,,,,,,,,0,1,1,0,1,,,,,,,,,,,,,,,,,,,,,,,,,,,,,,,,,,,,,,,,,,,,,,
156141,001,2022-11-20_23h49.34.751,Info_measure_main_exp,2022.2.2,Win32,164.4195988,,,,,,,,,,,,,,,,,,masks/mask_005.jpg,,,,,,,,,,,,,,,,,,,,,,,,,,,,,,,,,,,,,,,,,,,0,2,2,4,1,,,,,,,,,,,,,,,,,,,,,,,,,,,,,,,,,,,,,,,,,,,,,,
156141,001,2022-11-20_23h49.34.751,Info_measure_main_exp,2022.2.2,Win32,164.4195988,,,,,,,,,,,,,,,,,,masks/mask_003.jpg,,,,,,,,,,,,,,,,,,,,,,,,,,,,,,,,,,,,,,,,,,,0,3,3,2,1,,,,,,,,,,,,,,,,,,,,,,,,,,,,,,,,,,,,,,,,,,,,,,
156141,001,2022-11-20_23h49.34.751,Info_measure_main_exp,2022.2.2,Win32,164.4195988,,,,,,,,,,,,,,,,,,masks/mask_004.jpg,,,,,,,,,,,,,,,,,,,,,,,,,,,,,,,,,,,,,,,,,,,0,4,4,3,1,,,,,,,,,,,,,,,,,,,,,,,,,,,,,,,,,,,,,,,,,,,,,,
156141,001,2022-11-20_23h49.34.751,Info_measure_main_exp,2022.2.2,Win32,164.4195988,,,,,,,,,,,,,,,,,,masks/mask_004.jpg,,,,,,,,,,,,,,,,,,,,,,,,,,,,,,,,,,,,,,,,,,,,,,,,0,0,0,3,1,,,,,,,,,,,,,,,,,,,,,,,,,,,,,,,,,,,,,,,,,
156141,001,2022-11-20_23h49.34.751,Info_measure_main_exp,2022.2.2,Win32,164.4195988,,,,,,,,,,,,,,,,,,masks/mask_003.jpg,,,,,,,,,,,,,,,,,,,,,,,,,,,,,,,,,,,,,,,,,,,,,,,,0,1,1,2,1,,,,,,,,,,,,,,,,,,,,,,,,,,,,,,,,,,,,,,,,,
156141,001,2022-11-20_23h49.34.751,Info_measure_main_exp,2022.2.2,Win32,164.4195988,,,,,,,,,,,,,,,,,,masks/mask_001.jpg,,,,,,,,,,,,,,,,,,,,,,,,,,,,,,,,,,,,,,,,,,,,,,,,0,2,2,0,1,,,,,,,,,,,,,,,,,,,,,,,,,,,,,,,,,,,,,,,,,
156141,001,2022-11-20_23h49.34.751,Info_measure_main_exp,2022.2.2,Win32,164.4195988,,,,,,,,,,,,,,,,,,masks/mask_002.jpg,,,,,,,,,,,,,,,,,,,,,,,,,,,,,,,,,,,,,,,,,,,,,,,,0,3,3,1,1,,,,,,,,,,,,,,,,,,,,,,,,,,,,,,,,,,,,,,,,,
156141,001,2022-11-20_23h49.34.751,Info_measure_main_exp,2022.2.2,Win32,164.4195988,,,,,,,,,,,,,,,,,,masks/mask_005.jpg,,,,,,,,,,,,,,,,,,,,,,,,,,,,,,,,,,,,,,,,,,,,,,,,0,4,4,4,1,,,,,,,,,,,,,,,,,,,,,,,,,,,,,,,,,,,,,,,,,
156141,001,2022-11-20_23h49.34.751,Info_measure_main_exp,2022.2.2,Win32,164.4195988,,,,,,,,,,,,,,,,,,,,,,,,,,,,,,1,0.7639,1,,,,,,,,,,,,0,131,5,5,2214,2214,absent_patch/patch0002214.jpg,absent_patch/patch0002214.jpg,,,,,,,,,,,,,,,,,,,,-0.153681964,0.074172892,1,0,0,response7disk,2,-0.007470651,-0.000533618,1,0,0,center_square,0,1,1,115,1,,,,,,,,,,,,,,,,,,,,,,,
156141,001,2022-11-20_23h49.34.751,Info_measure_main_exp,2022.2.2,Win32,164.4195988,,,,,,,,,,,,,,,,,,masks/mask_005.jpg,,,,,,,,,,,,,,,,,,,,,,,,,,,,,,,,,,,,,,,,,,,0,0,0,4,1,,,,,,,,,,,,,,,,,,,,,,,,,,,,,,,,,,,,,,,,,,,,,,
156141,001,2022-11-20_23h49.34.751,Info_measure_main_exp,2022.2.2,Win32,164.4195988,,,,,,,,,,,,,,,,,,masks/mask_004.jpg,,,,,,,,,,,,,,,,,,,,,,,,,,,,,,,,,,,,,,,,,,,0,1,1,3,1,,,,,,,,,,,,,,,,,,,,,,,,,,,,,,,,,,,,,,,,,,,,,,
156141,001,2022-11-20_23h49.34.751,Info_measure_main_exp,2022.2.2,Win32,164.4195988,,,,,,,,,,,,,,,,,,masks/mask_002.jpg,,,,,,,,,,,,,,,,,,,,,,,,,,,,,,,,,,,,,,,,,,,0,2,2,1,1,,,,,,,,,,,,,,,,,,,,,,,,,,,,,,,,,,,,,,,,,,,,,,
156141,001,2022-11-20_23h49.34.751,Info_measure_main_exp,2022.2.2,Win32,164.4195988,,,,,,,,,,,,,,,,,,masks/mask_003.jpg,,,,,,,,,,,,,,,,,,,,,,,,,,,,,,,,,,,,,,,,,,,0,3,3,2,1,,,,,,,,,,,,,,,,,,,,,,,,,,,,,,,,,,,,,,,,,,,,,,
156141,001,2022-11-20_23h49.34.751,Info_measure_main_exp,2022.2.2,Win32,164.4195988,,,,,,,,,,,,,,,,,,masks/mask_001.jpg,,,,,,,,,,,,,,,,,,,,,,,,,,,,,,,,,,,,,,,,,,,0,4,4,0,1,,,,,,,,,,,,,,,,,,,,,,,,,,,,,,,,,,,,,,,,,,,,,,
156141,001,2022-11-20_23h49.34.751,Info_measure_main_exp,2022.2.2,Win32,164.4195988,,,,,,,,,,,,,,,,,,masks/mask_002.jpg,,,,,,,,,,,,,,,,,,,,,,,,,,,,,,,,,,,,,,,,,,,,,,,,0,0,0,1,1,,,,,,,,,,,,,,,,,,,,,,,,,,,,,,,,,,,,,,,,,
156141,001,2022-11-20_23h49.34.751,Info_measure_main_exp,2022.2.2,Win32,164.4195988,,,,,,,,,,,,,,,,,,masks/mask_005.jpg,,,,,,,,,,,,,,,,,,,,,,,,,,,,,,,,,,,,,,,,,,,,,,,,0,1,1,4,1,,,,,,,,,,,,,,,,,,,,,,,,,,,,,,,,,,,,,,,,,
156141,001,2022-11-20_23h49.34.751,Info_measure_main_exp,2022.2.2,Win32,164.4195988,,,,,,,,,,,,,,,,,,masks/mask_004.jpg,,,,,,,,,,,,,,,,,,,,,,,,,,,,,,,,,,,,,,,,,,,,,,,,0,2,2,3,1,,,,,,,,,,,,,,,,,,,,,,,,,,,,,,,,,,,,,,,,,
156141,001,2022-11-20_23h49.34.751,Info_measure_main_exp,2022.2.2,Win32,164.4195988,,,,,,,,,,,,,,,,,,masks/mask_003.jpg,,,,,,,,,,,,,,,,,,,,,,,,,,,,,,,,,,,,,,,,,,,,,,,,0,3,3,2,1,,,,,,,,,,,,,,,,,,,,,,,,,,,,,,,,,,,,,,,,,
156141,001,2022-11-20_23h49.34.751,Info_measure_main_exp,2022.2.2,Win32,164.4195988,,,,,,,,,,,,,,,,,,masks/mask_001.jpg,,,,,,,,,,,,,,,,,,,,,,,,,,,,,,,,,,,,,,,,,,,,,,,,0,4,4,0,1,,,,,,,,,,,,,,,,,,,,,,,,,,,,,,,,,,,,,,,,,
156141,001,2022-11-20_23h49.34.751,Info_measure_main_exp,2022.2.2,Win32,164.4195988,,,,,,,,,,,,,,,,,,,,,,,,,,,,,,6,0.8431,1,,,,,,,,,,,,0,131,5,5,1950,2166,absent_patch/patch0001950.jpg,absent_patch/patch0002166.jpg,,,,,,,,,,,,,,,,,,,,0.164354322,0.03361793,1,0,0,response1disk,3,0.005336179,-0.011205977,1,0,0,center_square,0,2,2,0,1,,,,,,,,,,,,,,,,,,,,,,,
156141,001,2022-11-20_23h49.34.751,Info_measure_main_exp,2022.2.2,Win32,164.4195988,,,,,,,,,,,,,,,,,,masks/mask_003.jpg,,,,,,,,,,,,,,,,,,,,,,,,,,,,,,,,,,,,,,,,,,,0,0,0,2,1,,,,,,,,,,,,,,,,,,,,,,,,,,,,,,,,,,,,,,,,,,,,,,
156141,001,2022-11-20_23h49.34.751,Info_measure_main_exp,2022.2.2,Win32,164.4195988,,,,,,,,,,,,,,,,,,masks/mask_001.jpg,,,,,,,,,,,,,,,,,,,,,,,,,,,,,,,,,,,,,,,,,,,0,1,1,0,1,,,,,,,,,,,,,,,,,,,,,,,,,,,,,,,,,,,,,,,,,,,,,,
156141,001,2022-11-20_23h49.34.751,Info_measure_main_exp,2022.2.2,Win32,164.4195988,,,,,,,,,,,,,,,,,,masks/mask_002.jpg,,,,,,,,,,,,,,,,,,,,,,,,,,,,,,,,,,,,,,,,,,,0,2,2,1,1,,,,,,,,,,,,,,,,,,,,,,,,,,,,,,,,,,,,,,,,,,,,,,
156141,001,2022-11-20_23h49.34.751,Info_measure_main_exp,2022.2.2,Win32,164.4195988,,,,,,,,,,,,,,,,,,masks/mask_004.jpg,,,,,,,,,,,,,,,,,,,,,,,,,,,,,,,,,,,,,,,,,,,0,3,3,3,1,,,,,,,,,,,,,,,,,,,,,,,,,,,,,,,,,,,,,,,,,,,,,,
156141,001,2022-11-20_23h49.34.751,Info_measure_main_exp,2022.2.2,Win32,164.4195988,,,,,,,,,,,,,,,,,,masks/mask_005.jpg,,,,,,,,,,,,,,,,,,,,,,,,,,,,,,,,,,,,,,,,,,,0,4,4,4,1,,,,,,,,,,,,,,,,,,,,,,,,,,,,,,,,,,,,,,,,,,,,,,
156141,001,2022-11-20_23h49.34.751,Info_measure_main_exp,2022.2.2,Win32,164.4195988,,,,,,,,,,,,,,,,,,masks/mask_001.jpg,,,,,,,,,,,,,,,,,,,,,,,,,,,,,,,,,,,,,,,,,,,,,,,,0,0,0,0,1,,,,,,,,,,,,,,,,,,,,,,,,,,,,,,,,,,,,,,,,,
156141,001,2022-11-20_23h49.34.751,Info_measure_main_exp,2022.2.2,Win32,164.4195988,,,,,,,,,,,,,,,,,,masks/mask_003.jpg,,,,,,,,,,,,,,,,,,,,,,,,,,,,,,,,,,,,,,,,,,,,,,,,0,1,1,2,1,,,,,,,,,,,,,,,,,,,,,,,,,,,,,,,,,,,,,,,,,
156141,001,2022-11-20_23h49.34.751,Info_measure_main_exp,2022.2.2,Win32,164.4195988,,,,,,,,,,,,,,,,,,masks/mask_002.jpg,,,,,,,,,,,,,,,,,,,,,,,,,,,,,,,,,,,,,,,,,,,,,,,,0,2,2,1,1,,,,,,,,,,,,,,,,,,,,,,,,,,,,,,,,,,,,,,,,,
156141,001,2022-11-20_23h49.34.751,Info_measure_main_exp,2022.2.2,Win32,164.4195988,,,,,,,,,,,,,,,,,,masks/mask_005.jpg,,,,,,,,,,,,,,,,,,,,,,,,,,,,,,,,,,,,,,,,,,,,,,,,0,3,3,4,1,,,,,,,,,,,,,,,,,,,,,,,,,,,,,,,,,,,,,,,,,
156141,001,2022-11-20_23h49.34.751,Info_measure_main_exp,2022.2.2,Win32,164.4195988,,,,,,,,,,,,,,,,,,masks/mask_004.jpg,,,,,,,,,,,,,,,,,,,,,,,,,,,,,,,,,,,,,,,,,,,,,,,,0,4,4,3,1,,,,,,,,,,,,,,,,,,,,,,,,,,,,,,,,,,,,,,,,,
156141,001,2022-11-20_23h49.34.751,Info_measure_main_exp,2022.2.2,Win32,164.4195988,,,,,,,,,,,,,,,,,,,,,,,,,,,,,,7,0.7639,1,,,,,,,,,,,,0,131,5,5,2274,1974,absent_patch/patch0002274.jpg,absent_patch/patch0001974.jpg,,,,,,,,,,,,,,,,,,,,0.056563501,0.148879402,1,0,0,response1disk,4,0.009605123,-0.000533618,1,0,0,center_square,0,3,3,90,1,,,,,,,,,,,,,,,,,,,,,,,
156141,001,2022-11-20_23h49.34.751,Info_measure_main_exp,2022.2.2,Win32,164.4195988,,,,,,,,,,,,,,,,,,masks/mask_005.jpg,,,,,,,,,,,,,,,,,,,,,,,,,,,,,,,,,,,,,,,,,,,0,0,0,4,1,,,,,,,,,,,,,,,,,,,,,,,,,,,,,,,,,,,,,,,,,,,,,,
156141,001,2022-11-20_23h49.34.751,Info_measure_main_exp,2022.2.2,Win32,164.4195988,,,,,,,,,,,,,,,,,,masks/mask_002.jpg,,,,,,,,,,,,,,,,,,,,,,,,,,,,,,,,,,,,,,,,,,,0,1,1,1,1,,,,,,,,,,,,,,,,,,,,,,,,,,,,,,,,,,,,,,,,,,,,,,
156141,001,2022-11-20_23h49.34.751,Info_measure_main_exp,2022.2.2,Win32,164.4195988,,,,,,,,,,,,,,,,,,masks/mask_001.jpg,,,,,,,,,,,,,,,,,,,,,,,,,,,,,,,,,,,,,,,,,,,0,2,2,0,1,,,,,,,,,,,,,,,,,,,,,,,,,,,,,,,,,,,,,,,,,,,,,,
156141,001,2022-11-20_23h49.34.751,Info_measure_main_exp,2022.2.2,Win32,164.4195988,,,,,,,,,,,,,,,,,,masks/mask_004.jpg,,,,,,,,,,,,,,,,,,,,,,,,,,,,,,,,,,,,,,,,,,,0,3,3,3,1,,,,,,,,,,,,,,,,,,,,,,,,,,,,,,,,,,,,,,,,,,,,,,
156141,001,2022-11-20_23h49.34.751,Info_measure_main_exp,2022.2.2,Win32,164.4195988,,,,,,,,,,,,,,,,,,masks/mask_003.jpg,,,,,,,,,,,,,,,,,,,,,,,,,,,,,,,,,,,,,,,,,,,0,4,4,2,1,,,,,,,,,,,,,,,,,,,,,,,,,,,,,,,,,,,,,,,,,,,,,,
156141,001,2022-11-20_23h49.34.751,Info_measure_main_exp,2022.2.2,Win32,164.4195988,,,,,,,,,,,,,,,,,,masks/mask_003.jpg,,,,,,,,,,,,,,,,,,,,,,,,,,,,,,,,,,,,,,,,,,,,,,,,0,0,0,2,1,,,,,,,,,,,,,,,,,,,,,,,,,,,,,,,,,,,,,,,,,
156141,001,2022-11-20_23h49.34.751,Info_measure_main_exp,2022.2.2,Win32,164.4195988,,,,,,,,,,,,,,,,,,masks/mask_004.jpg,,,,,,,,,,,,,,,,,,,,,,,,,,,,,,,,,,,,,,,,,,,,,,,,0,1,1,3,1,,,,,,,,,,,,,,,,,,,,,,,,,,,,,,,,,,,,,,,,,
156141,001,2022-11-20_23h49.34.751,Info_measure_main_exp,2022.2.2,Win32,164.4195988,,,,,,,,,,,,,,,,,,masks/mask_005.jpg,,,,,,,,,,,,,,,,,,,,,,,,,,,,,,,,,,,,,,,,,,,,,,,,0,2,2,4,1,,,,,,,,,,,,,,,,,,,,,,,,,,,,,,,,,,,,,,,,,
156141,001,2022-11-20_23h49.34.751,Info_measure_main_exp,2022.2.2,Win32,164.4195988,,,,,,,,,,,,,,,,,,masks/mask_001.jpg,,,,,,,,,,,,,,,,,,,,,,,,,,,,,,,,,,,,,,,,,,,,,,,,0,3,3,0,1,,,,,,,,,,,,,,,,,,,,,,,,,,,,,,,,,,,,,,,,,
156141,001,2022-11-20_23h49.34.751,Info_measure_main_exp,2022.2.2,Win32,164.4195988,,,,,,,,,,,,,,,,,,masks/mask_002.jpg,,,,,,,,,,,,,,,,,,,,,,,,,,,,,,,,,,,,,,,,,,,,,,,,0,4,4,1,1,,,,,,,,,,,,,,,,,,,,,,,,,,,,,,,,,,,,,,,,,
156141,001,2022-11-20_23h49.34.751,Info_measure_main_exp,2022.2.2,Win32,164.4195988,,,,,,,,,,,,,,,,,,,,,,,,,,,,,,5,1.4615,1,,,,,,,,,,,,0,131,5,5,2142,2238,absent_patch/patch0002142.jpg,absent_patch/patch0002238.jpg,,,,,,,,,,,,,,,,,,,,0.161152615,-0.062433298,1,0,0,response3disk,5,0,-0.004802561,1,0,0,center_square,0,4,4,101,1,,,,,,,,,,,,,,,,,,,,,,,
156141,001,2022-11-20_23h49.34.751,Info_measure_main_exp,2022.2.2,Win32,164.4195988,,,,,,,,,,,,,,,,,,masks/mask_004.jpg,,,,,,,,,,,,,,,,,,,,,,,,,,,,,,,,,,,,,,,,,,,0,0,0,3,1,,,,,,,,,,,,,,,,,,,,,,,,,,,,,,,,,,,,,,,,,,,,,,
156141,001,2022-11-20_23h49.34.751,Info_measure_main_exp,2022.2.2,Win32,164.4195988,,,,,,,,,,,,,,,,,,masks/mask_001.jpg,,,,,,,,,,,,,,,,,,,,,,,,,,,,,,,,,,,,,,,,,,,0,1,1,0,1,,,,,,,,,,,,,,,,,,,,,,,,,,,,,,,,,,,,,,,,,,,,,,
156141,001,2022-11-20_23h49.34.751,Info_measure_main_exp,2022.2.2,Win32,164.4195988,,,,,,,,,,,,,,,,,,masks/mask_002.jpg,,,,,,,,,,,,,,,,,,,,,,,,,,,,,,,,,,,,,,,,,,,0,2,2,1,1,,,,,,,,,,,,,,,,,,,,,,,,,,,,,,,,,,,,,,,,,,,,,,
156141,001,2022-11-20_23h49.34.751,Info_measure_main_exp,2022.2.2,Win32,164.4195988,,,,,,,,,,,,,,,,,,masks/mask_005.jpg,,,,,,,,,,,,,,,,,,,,,,,,,,,,,,,,,,,,,,,,,,,0,3,3,4,1,,,,,,,,,,,,,,,,,,,,,,,,,,,,,,,,,,,,,,,,,,,,,,
156141,001,2022-11-20_23h49.34.751,Info_measure_main_exp,2022.2.2,Win32,164.4195988,,,,,,,,,,,,,,,,,,masks/mask_003.jpg,,,,,,,,,,,,,,,,,,,,,,,,,,,,,,,,,,,,,,,,,,,0,4,4,2,1,,,,,,,,,,,,,,,,,,,,,,,,,,,,,,,,,,,,,,,,,,,,,,
156141,001,2022-11-20_23h49.34.751,Info_measure_main_exp,2022.2.2,Win32,164.4195988,,,,,,,,,,,,,,,,,,masks/mask_003.jpg,,,,,,,,,,,,,,,,,,,,,,,,,,,,,,,,,,,,,,,,,,,,,,,,0,0,0,2,1,,,,,,,,,,,,,,,,,,,,,,,,,,,,,,,,,,,,,,,,,
156141,001,2022-11-20_23h49.34.751,Info_measure_main_exp,2022.2.2,Win32,164.4195988,,,,,,,,,,,,,,,,,,masks/mask_005.jpg,,,,,,,,,,,,,,,,,,,,,,,,,,,,,,,,,,,,,,,,,,,,,,,,0,1,1,4,1,,,,,,,,,,,,,,,,,,,,,,,,,,,,,,,,,,,,,,,,,
156141,001,2022-11-20_23h49.34.751,Info_measure_main_exp,2022.2.2,Win32,164.4195988,,,,,,,,,,,,,,,,,,masks/mask_002.jpg,,,,,,,,,,,,,,,,,,,,,,,,,,,,,,,,,,,,,,,,,,,,,,,,0,2,2,1,1,,,,,,,,,,,,,,,,,,,,,,,,,,,,,,,,,,,,,,,,,
156141,001,2022-11-20_23h49.34.751,Info_measure_main_exp,2022.2.2,Win32,164.4195988,,,,,,,,,,,,,,,,,,masks/mask_001.jpg,,,,,,,,,,,,,,,,,,,,,,,,,,,,,,,,,,,,,,,,,,,,,,,,0,3,3,0,1,,,,,,,,,,,,,,,,,,,,,,,,,,,,,,,,,,,,,,,,,
156141,001,2022-11-20_23h49.34.751,Info_measure_main_exp,2022.2.2,Win32,164.4195988,,,,,,,,,,,,,,,,,,masks/mask_004.jpg,,,,,,,,,,,,,,,,,,,,,,,,,,,,,,,,,,,,,,,,,,,,,,,,0,4,4,3,1,,,,,,,,,,,,,,,,,,,,,,,,,,,,,,,,,,,,,,,,,
156141,001,2022-11-20_23h49.34.751,Info_measure_main_exp,2022.2.2,Win32,164.4195988,,,,,,,,,,,,,,,,,,,,,,,,,,,,,,4,2.2192,1,,,,,,,,,,,,0,131,5,5,2082,1974,absent_patch/patch0002082.jpg,absent_patch/patch0001974.jpg,,,,,,,,,,,,,,,,,,,,0.051227321,-0.157417289,1,0,0,response3disk,6,0.008537887,-0.008004269,1,0,0,center_square,0,5,5,26,1,,,,,,,,,,,,,,,,,,,,,,,
156141,001,2022-11-20_23h49.34.751,Info_measure_main_exp,2022.2.2,Win32,164.4195988,,,,,,,,,,,,,,,,,,masks/mask_003.jpg,,,,,,,,,,,,,,,,,,,,,,,,,,,,,,,,,,,,,,,,,,,0,0,0,2,1,,,,,,,,,,,,,,,,,,,,,,,,,,,,,,,,,,,,,,,,,,,,,,
156141,001,2022-11-20_23h49.34.751,Info_measure_main_exp,2022.2.2,Win32,164.4195988,,,,,,,,,,,,,,,,,,masks/mask_001.jpg,,,,,,,,,,,,,,,,,,,,,,,,,,,,,,,,,,,,,,,,,,,0,1,1,0,1,,,,,,,,,,,,,,,,,,,,,,,,,,,,,,,,,,,,,,,,,,,,,,
156141,001,2022-11-20_23h49.34.751,Info_measure_main_exp,2022.2.2,Win32,164.4195988,,,,,,,,,,,,,,,,,,masks/mask_004.jpg,,,,,,,,,,,,,,,,,,,,,,,,,,,,,,,,,,,,,,,,,,,0,2,2,3,1,,,,,,,,,,,,,,,,,,,,,,,,,,,,,,,,,,,,,,,,,,,,,,
156141,001,2022-11-20_23h49.34.751,Info_measure_main_exp,2022.2.2,Win32,164.4195988,,,,,,,,,,,,,,,,,,masks/mask_002.jpg,,,,,,,,,,,,,,,,,,,,,,,,,,,,,,,,,,,,,,,,,,,0,3,3,1,1,,,,,,,,,,,,,,,,,,,,,,,,,,,,,,,,,,,,,,,,,,,,,,
156141,001,2022-11-20_23h49.34.751,Info_measure_main_exp,2022.2.2,Win32,164.4195988,,,,,,,,,,,,,,,,,,masks/mask_005.jpg,,,,,,,,,,,,,,,,,,,,,,,,,,,,,,,,,,,,,,,,,,,0,4,4,4,1,,,,,,,,,,,,,,,,,,,,,,,,,,,,,,,,,,,,,,,,,,,,,,
156141,001,2022-11-20_23h49.34.751,Info_measure_main_exp,2022.2.2,Win32,164.4195988,,,,,,,,,,,,,,,,,,masks/mask_004.jpg,,,,,,,,,,,,,,,,,,,,,,,,,,,,,,,,,,,,,,,,,,,,,,,,0,0,0,3,1,,,,,,,,,,,,,,,,,,,,,,,,,,,,,,,,,,,,,,,,,
156141,001,2022-11-20_23h49.34.751,Info_measure_main_exp,2022.2.2,Win32,164.4195988,,,,,,,,,,,,,,,,,,masks/mask_005.jpg,,,,,,,,,,,,,,,,,,,,,,,,,,,,,,,,,,,,,,,,,,,,,,,,0,1,1,4,1,,,,,,,,,,,,,,,,,,,,,,,,,,,,,,,,,,,,,,,,,
156141,001,2022-11-20_23h49.34.751,Info_measure_main_exp,2022.2.2,Win32,164.4195988,,,,,,,,,,,,,,,,,,masks/mask_001.jpg,,,,,,,,,,,,,,,,,,,,,,,,,,,,,,,,,,,,,,,,,,,,,,,,0,2,2,0,1,,,,,,,,,,,,,,,,,,,,,,,,,,,,,,,,,,,,,,,,,
156141,001,2022-11-20_23h49.34.751,Info_measure_main_exp,2022.2.2,Win32,164.4195988,,,,,,,,,,,,,,,,,,masks/mask_002.jpg,,,,,,,,,,,,,,,,,,,,,,,,,,,,,,,,,,,,,,,,,,,,,,,,0,3,3,1,1,,,,,,,,,,,,,,,,,,,,,,,,,,,,,,,,,,,,,,,,,
156141,001,2022-11-20_23h49.34.751,Info_measure_main_exp,2022.2.2,Win32,164.4195988,,,,,,,,,,,,,,,,,,masks/mask_003.jpg,,,,,,,,,,,,,,,,,,,,,,,,,,,,,,,,,,,,,,,,,,,,,,,,0,4,4,2,1,,,,,,,,,,,,,,,,,,,,,,,,,,,,,,,,,,,,,,,,,
156141,001,2022-11-20_23h49.34.751,Info_measure_main_exp,2022.2.2,Win32,164.4195988,,,,,,,,,,,,,,,,,,,,,,,,,,,,,,5,0.6063,1,,,,,,,,,,,,0,131,5,5,2190,2214,absent_patch/patch0002190.jpg,absent_patch/patch0002214.jpg,,,,,,,,,,,,,,,,,,,,0.150480256,-0.04642476,1,0,0,response3disk,7,0.017075774,-0.001600854,1,0,0,center_square,0,6,6,35,1,,,,,,,,,,,,,,,,,,,,,,,
156141,001,2022-11-20_23h49.34.751,Info_measure_main_exp,2022.2.2,Win32,164.4195988,,,,,,,,,,,,,,,,,,masks/mask_005.jpg,,,,,,,,,,,,,,,,,,,,,,,,,,,,,,,,,,,,,,,,,,,0,0,0,4,1,,,,,,,,,,,,,,,,,,,,,,,,,,,,,,,,,,,,,,,,,,,,,,
156141,001,2022-11-20_23h49.34.751,Info_measure_main_exp,2022.2.2,Win32,164.4195988,,,,,,,,,,,,,,,,,,masks/mask_002.jpg,,,,,,,,,,,,,,,,,,,,,,,,,,,,,,,,,,,,,,,,,,,0,1,1,1,1,,,,,,,,,,,,,,,,,,,,,,,,,,,,,,,,,,,,,,,,,,,,,,
156141,001,2022-11-20_23h49.34.751,Info_measure_main_exp,2022.2.2,Win32,164.4195988,,,,,,,,,,,,,,,,,,masks/mask_001.jpg,,,,,,,,,,,,,,,,,,,,,,,,,,,,,,,,,,,,,,,,,,,0,2,2,0,1,,,,,,,,,,,,,,,,,,,,,,,,,,,,,,,,,,,,,,,,,,,,,,
156141,001,2022-11-20_23h49.34.751,Info_measure_main_exp,2022.2.2,Win32,164.4195988,,,,,,,,,,,,,,,,,,masks/mask_003.jpg,,,,,,,,,,,,,,,,,,,,,,,,,,,,,,,,,,,,,,,,,,,0,3,3,2,1,,,,,,,,,,,,,,,,,,,,,,,,,,,,,,,,,,,,,,,,,,,,,,
156141,001,2022-11-20_23h49.34.751,Info_measure_main_exp,2022.2.2,Win32,164.4195988,,,,,,,,,,,,,,,,,,masks/mask_004.jpg,,,,,,,,,,,,,,,,,,,,,,,,,,,,,,,,,,,,,,,,,,,0,4,4,3,1,,,,,,,,,,,,,,,,,,,,,,,,,,,,,,,,,,,,,,,,,,,,,,
156141,001,2022-11-20_23h49.34.751,Info_measure_main_exp,2022.2.2,Win32,164.4195988,,,,,,,,,,,,,,,,,,masks/mask_002.jpg,,,,,,,,,,,,,,,,,,,,,,,,,,,,,,,,,,,,,,,,,,,,,,,,0,0,0,1,1,,,,,,,,,,,,,,,,,,,,,,,,,,,,,,,,,,,,,,,,,
156141,001,2022-11-20_23h49.34.751,Info_measure_main_exp,2022.2.2,Win32,164.4195988,,,,,,,,,,,,,,,,,,masks/mask_004.jpg,,,,,,,,,,,,,,,,,,,,,,,,,,,,,,,,,,,,,,,,,,,,,,,,0,1,1,3,1,,,,,,,,,,,,,,,,,,,,,,,,,,,,,,,,,,,,,,,,,
156141,001,2022-11-20_23h49.34.751,Info_measure_main_exp,2022.2.2,Win32,164.4195988,,,,,,,,,,,,,,,,,,masks/mask_003.jpg,,,,,,,,,,,,,,,,,,,,,,,,,,,,,,,,,,,,,,,,,,,,,,,,0,2,2,2,1,,,,,,,,,,,,,,,,,,,,,,,,,,,,,,,,,,,,,,,,,
156141,001,2022-11-20_23h49.34.751,Info_measure_main_exp,2022.2.2,Win32,164.4195988,,,,,,,,,,,,,,,,,,masks/mask_001.jpg,,,,,,,,,,,,,,,,,,,,,,,,,,,,,,,,,,,,,,,,,,,,,,,,0,3,3,0,1,,,,,,,,,,,,,,,,,,,,,,,,,,,,,,,,,,,,,,,,,
156141,001,2022-11-20_23h49.34.751,Info_measure_main_exp,2022.2.2,Win32,164.4195988,,,,,,,,,,,,,,,,,,masks/mask_005.jpg,,,,,,,,,,,,,,,,,,,,,,,,,,,,,,,,,,,,,,,,,,,,,,,,0,4,4,4,1,,,,,,,,,,,,,,,,,,,,,,,,,,,,,,,,,,,,,,,,,
156141,001,2022-11-20_23h49.34.751,Info_measure_main_exp,2022.2.2,Win32,164.4195988,,,,,,,,,,,,,,,,,,,,,,,,,,,,,,6,2.0434,1,,,,,,,,,,,,0,131,5,5,2142,2190,absent_patch/patch0002142.jpg,absent_patch/patch0002190.jpg,,,,,,,,,,,,,,,,,,,,0.178228388,0.036819637,1,0,0,response1disk,8,0.002134472,-0.00266809,1,0,0,center_square,0,7,7,70,1,,,,,,,,,,,,,,,,,,,,,,,
156141,001,2022-11-20_23h49.34.751,Info_measure_main_exp,2022.2.2,Win32,164.4195988,,,,,,,,,,,,,,,,,,masks/mask_001.jpg,,,,,,,,,,,,,,,,,,,,,,,,,,,,,,,,,,,,,,,,,,,0,0,0,0,1,,,,,,,,,,,,,,,,,,,,,,,,,,,,,,,,,,,,,,,,,,,,,,
156141,001,2022-11-20_23h49.34.751,Info_measure_main_exp,2022.2.2,Win32,164.4195988,,,,,,,,,,,,,,,,,,masks/mask_004.jpg,,,,,,,,,,,,,,,,,,,,,,,,,,,,,,,,,,,,,,,,,,,0,1,1,3,1,,,,,,,,,,,,,,,,,,,,,,,,,,,,,,,,,,,,,,,,,,,,,,
156141,001,2022-11-20_23h49.34.751,Info_measure_main_exp,2022.2.2,Win32,164.4195988,,,,,,,,,,,,,,,,,,masks/mask_003.jpg,,,,,,,,,,,,,,,,,,,,,,,,,,,,,,,,,,,,,,,,,,,0,2,2,2,1,,,,,,,,,,,,,,,,,,,,,,,,,,,,,,,,,,,,,,,,,,,,,,
156141,001,2022-11-20_23h49.34.751,Info_measure_main_exp,2022.2.2,Win32,164.4195988,,,,,,,,,,,,,,,,,,masks/mask_005.jpg,,,,,,,,,,,,,,,,,,,,,,,,,,,,,,,,,,,,,,,,,,,0,3,3,4,1,,,,,,,,,,,,,,,,,,,,,,,,,,,,,,,,,,,,,,,,,,,,,,
156141,001,2022-11-20_23h49.34.751,Info_measure_main_exp,2022.2.2,Win32,164.4195988,,,,,,,,,,,,,,,,,,masks/mask_002.jpg,,,,,,,,,,,,,,,,,,,,,,,,,,,,,,,,,,,,,,,,,,,0,4,4,1,1,,,,,,,,,,,,,,,,,,,,,,,,,,,,,,,,,,,,,,,,,,,,,,
156141,001,2022-11-20_23h49.34.751,Info_measure_main_exp,2022.2.2,Win32,164.4195988,,,,,,,,,,,,,,,,,,masks/mask_001.jpg,,,,,,,,,,,,,,,,,,,,,,,,,,,,,,,,,,,,,,,,,,,,,,,,0,0,0,0,1,,,,,,,,,,,,,,,,,,,,,,,,,,,,,,,,,,,,,,,,,
156141,001,2022-11-20_23h49.34.751,Info_measure_main_exp,2022.2.2,Win32,164.4195988,,,,,,,,,,,,,,,,,,masks/mask_002.jpg,,,,,,,,,,,,,,,,,,,,,,,,,,,,,,,,,,,,,,,,,,,,,,,,0,1,1,1,1,,,,,,,,,,,,,,,,,,,,,,,,,,,,,,,,,,,,,,,,,
156141,001,2022-11-20_23h49.34.751,Info_measure_main_exp,2022.2.2,Win32,164.4195988,,,,,,,,,,,,,,,,,,masks/mask_003.jpg,,,,,,,,,,,,,,,,,,,,,,,,,,,,,,,,,,,,,,,,,,,,,,,,0,2,2,2,1,,,,,,,,,,,,,,,,,,,,,,,,,,,,,,,,,,,,,,,,,
156141,001,2022-11-20_23h49.34.751,Info_measure_main_exp,2022.2.2,Win32,164.4195988,,,,,,,,,,,,,,,,,,masks/mask_005.jpg,,,,,,,,,,,,,,,,,,,,,,,,,,,,,,,,,,,,,,,,,,,,,,,,0,3,3,4,1,,,,,,,,,,,,,,,,,,,,,,,,,,,,,,,,,,,,,,,,,
156141,001,2022-11-20_23h49.34.751,Info_measure_main_exp,2022.2.2,Win32,164.4195988,,,,,,,,,,,,,,,,,,masks/mask_004.jpg,,,,,,,,,,,,,,,,,,,,,,,,,,,,,,,,,,,,,,,,,,,,,,,,0,4,4,3,1,,,,,,,,,,,,,,,,,,,,,,,,,,,,,,,,,,,,,,,,,
156141,001,2022-11-20_23h49.34.751,Info_measure_main_exp,2022.2.2,Win32,164.4195988,,,,,,,,,,,,,,,,,,,,,,,,,,,,,,3,3.7232,1,,,,,,,,,,,,0,131,5,5,2082,2082,absent_patch/patch0002082.jpg,absent_patch/patch0002082.jpg,,,,,,,,,,,,,,,,,,,,-0.056563501,-0.167022412,1,0,0,response5disk,9,-0.001067236,0.008004269,1,0,0,center_square,0,8,8,74,1,,,,,,,,,,,,,,,,,,,,,,,
156141,001,2022-11-20_23h49.34.751,Info_measure_main_exp,2022.2.2,Win32,164.4195988,,,,,,,,,,,,,,,,,,masks/mask_002.jpg,,,,,,,,,,,,,,,,,,,,,,,,,,,,,,,,,,,,,,,,,,,0,0,0,1,1,,,,,,,,,,,,,,,,,,,,,,,,,,,,,,,,,,,,,,,,,,,,,,
156141,001,2022-11-20_23h49.34.751,Info_measure_main_exp,2022.2.2,Win32,164.4195988,,,,,,,,,,,,,,,,,,masks/mask_005.jpg,,,,,,,,,,,,,,,,,,,,,,,,,,,,,,,,,,,,,,,,,,,0,1,1,4,1,,,,,,,,,,,,,,,,,,,,,,,,,,,,,,,,,,,,,,,,,,,,,,
156141,001,2022-11-20_23h49.34.751,Info_measure_main_exp,2022.2.2,Win32,164.4195988,,,,,,,,,,,,,,,,,,masks/mask_001.jpg,,,,,,,,,,,,,,,,,,,,,,,,,,,,,,,,,,,,,,,,,,,0,2,2,0,1,,,,,,,,,,,,,,,,,,,,,,,,,,,,,,,,,,,,,,,,,,,,,,
156141,001,2022-11-20_23h49.34.751,Info_measure_main_exp,2022.2.2,Win32,164.4195988,,,,,,,,,,,,,,,,,,masks/mask_003.jpg,,,,,,,,,,,,,,,,,,,,,,,,,,,,,,,,,,,,,,,,,,,0,3,3,2,1,,,,,,,,,,,,,,,,,,,,,,,,,,,,,,,,,,,,,,,,,,,,,,
156141,001,2022-11-20_23h49.34.751,Info_measure_main_exp,2022.2.2,Win32,164.4195988,,,,,,,,,,,,,,,,,,masks/mask_004.jpg,,,,,,,,,,,,,,,,,,,,,,,,,,,,,,,,,,,,,,,,,,,0,4,4,3,1,,,,,,,,,,,,,,,,,,,,,,,,,,,,,,,,,,,,,,,,,,,,,,
156141,001,2022-11-20_23h49.34.751,Info_measure_main_exp,2022.2.2,Win32,164.4195988,,,,,,,,,,,,,,,,,,masks/mask_002.jpg,,,,,,,,,,,,,,,,,,,,,,,,,,,,,,,,,,,,,,,,,,,,,,,,0,0,0,1,1,,,,,,,,,,,,,,,,,,,,,,,,,,,,,,,,,,,,,,,,,
156141,001,2022-11-20_23h49.34.751,Info_measure_main_exp,2022.2.2,Win32,164.4195988,,,,,,,,,,,,,,,,,,masks/mask_005.jpg,,,,,,,,,,,,,,,,,,,,,,,,,,,,,,,,,,,,,,,,,,,,,,,,0,1,1,4,1,,,,,,,,,,,,,,,,,,,,,,,,,,,,,,,,,,,,,,,,,
156141,001,2022-11-20_23h49.34.751,Info_measure_main_exp,2022.2.2,Win32,164.4195988,,,,,,,,,,,,,,,,,,masks/mask_004.jpg,,,,,,,,,,,,,,,,,,,,,,,,,,,,,,,,,,,,,,,,,,,,,,,,0,2,2,3,1,,,,,,,,,,,,,,,,,,,,,,,,,,,,,,,,,,,,,,,,,
156141,001,2022-11-20_23h49.34.751,Info_measure_main_exp,2022.2.2,Win32,164.4195988,,,,,,,,,,,,,,,,,,masks/mask_003.jpg,,,,,,,,,,,,,,,,,,,,,,,,,,,,,,,,,,,,,,,,,,,,,,,,0,3,3,2,1,,,,,,,,,,,,,,,,,,,,,,,,,,,,,,,,,,,,,,,,,
156141,001,2022-11-20_23h49.34.751,Info_measure_main_exp,2022.2.2,Win32,164.4195988,,,,,,,,,,,,,,,,,,masks/mask_001.jpg,,,,,,,,,,,,,,,,,,,,,,,,,,,,,,,,,,,,,,,,,,,,,,,,0,4,4,0,1,,,,,,,,,,,,,,,,,,,,,,,,,,,,,,,,,,,,,,,,,
156141,001,2022-11-20_23h49.34.751,Info_measure_main_exp,2022.2.2,Win32,164.4195988,,,,,,,,,,,,,,,,,,,,,,,,,,,,,,5,0.5699,1,,,,,,,,,,,,0,131,5,5,2154,2190,absent_patch/patch0002154.jpg,absent_patch/patch0002190.jpg,,,,,,,,,,,,,,,,,,,,0.192102455,-0.056029883,1,0,0,response3disk,10,0.013874066,-0.000533618,1,0,0,center_square,0,9,9,68,1,,,,,,,,,,,,,,,,,,,,,,,
156141,001,2022-11-20_23h49.34.751,Info_measure_main_exp,2022.2.2,Win32,164.4195988,,,,,,,,,,,,,,,,,,masks/mask_005.jpg,,,,,,,,,,,,,,,,,,,,,,,,,,,,,,,,,,,,,,,,,,,0,0,0,4,1,,,,,,,,,,,,,,,,,,,,,,,,,,,,,,,,,,,,,,,,,,,,,,
156141,001,2022-11-20_23h49.34.751,Info_measure_main_exp,2022.2.2,Win32,164.4195988,,,,,,,,,,,,,,,,,,masks/mask_004.jpg,,,,,,,,,,,,,,,,,,,,,,,,,,,,,,,,,,,,,,,,,,,0,1,1,3,1,,,,,,,,,,,,,,,,,,,,,,,,,,,,,,,,,,,,,,,,,,,,,,
156141,001,2022-11-20_23h49.34.751,Info_measure_main_exp,2022.2.2,Win32,164.4195988,,,,,,,,,,,,,,,,,,masks/mask_003.jpg,,,,,,,,,,,,,,,,,,,,,,,,,,,,,,,,,,,,,,,,,,,0,2,2,2,1,,,,,,,,,,,,,,,,,,,,,,,,,,,,,,,,,,,,,,,,,,,,,,
156141,001,2022-11-20_23h49.34.751,Info_measure_main_exp,2022.2.2,Win32,164.4195988,,,,,,,,,,,,,,,,,,masks/mask_001.jpg,,,,,,,,,,,,,,,,,,,,,,,,,,,,,,,,,,,,,,,,,,,0,3,3,0,1,,,,,,,,,,,,,,,,,,,,,,,,,,,,,,,,,,,,,,,,,,,,,,
156141,001,2022-11-20_23h49.34.751,Info_measure_main_exp,2022.2.2,Win32,164.4195988,,,,,,,,,,,,,,,,,,masks/mask_002.jpg,,,,,,,,,,,,,,,,,,,,,,,,,,,,,,,,,,,,,,,,,,,0,4,4,1,1,,,,,,,,,,,,,,,,,,,,,,,,,,,,,,,,,,,,,,,,,,,,,,
156141,001,2022-11-20_23h49.34.751,Info_measure_main_exp,2022.2.2,Win32,164.4195988,,,,,,,,,,,,,,,,,,masks/mask_001.jpg,,,,,,,,,,,,,,,,,,,,,,,,,,,,,,,,,,,,,,,,,,,,,,,,0,0,0,0,1,,,,,,,,,,,,,,,,,,,,,,,,,,,,,,,,,,,,,,,,,
156141,001,2022-11-20_23h49.34.751,Info_measure_main_exp,2022.2.2,Win32,164.4195988,,,,,,,,,,,,,,,,,,masks/mask_005.jpg,,,,,,,,,,,,,,,,,,,,,,,,,,,,,,,,,,,,,,,,,,,,,,,,0,1,1,4,1,,,,,,,,,,,,,,,,,,,,,,,,,,,,,,,,,,,,,,,,,
156141,001,2022-11-20_23h49.34.751,Info_measure_main_exp,2022.2.2,Win32,164.4195988,,,,,,,,,,,,,,,,,,masks/mask_004.jpg,,,,,,,,,,,,,,,,,,,,,,,,,,,,,,,,,,,,,,,,,,,,,,,,0,2,2,3,1,,,,,,,,,,,,,,,,,,,,,,,,,,,,,,,,,,,,,,,,,
156141,001,2022-11-20_23h49.34.751,Info_measure_main_exp,2022.2.2,Win32,164.4195988,,,,,,,,,,,,,,,,,,masks/mask_002.jpg,,,,,,,,,,,,,,,,,,,,,,,,,,,,,,,,,,,,,,,,,,,,,,,,0,3,3,1,1,,,,,,,,,,,,,,,,,,,,,,,,,,,,,,,,,,,,,,,,,
156141,001,2022-11-20_23h49.34.751,Info_measure_main_exp,2022.2.2,Win32,164.4195988,,,,,,,,,,,,,,,,,,masks/mask_003.jpg,,,,,,,,,,,,,,,,,,,,,,,,,,,,,,,,,,,,,,,,,,,,,,,,0,4,4,2,1,,,,,,,,,,,,,,,,,,,,,,,,,,,,,,,,,,,,,,,,,
156141,001,2022-11-20_23h49.34.751,Info_measure_main_exp,2022.2.2,Win32,164.4195988,,,,,,,,,,,,,,,,,,,,,,,,,,,,,,6,0.5745,1,,,,,,,,,,,,0,131,5,5,2214,2082,absent_patch/patch0002214.jpg,absent_patch/patch0002082.jpg,,,,,,,,,,,,,,,,,,,,0.199573106,0.018676628,1,0,0,response1disk,11,0.01280683,-0.004802561,1,0,0,center_square,0,10,10,103,1,,,,,,,,,,,,,,,,,,,,,,,
156141,001,2022-11-20_23h49.34.751,Info_measure_main_exp,2022.2.2,Win32,164.4195988,,,,,,,,,,,,,,,,,,masks/mask_003.jpg,,,,,,,,,,,,,,,,,,,,,,,,,,,,,,,,,,,,,,,,,,,0,0,0,2,1,,,,,,,,,,,,,,,,,,,,,,,,,,,,,,,,,,,,,,,,,,,,,,
156141,001,2022-11-20_23h49.34.751,Info_measure_main_exp,2022.2.2,Win32,164.4195988,,,,,,,,,,,,,,,,,,masks/mask_001.jpg,,,,,,,,,,,,,,,,,,,,,,,,,,,,,,,,,,,,,,,,,,,0,1,1,0,1,,,,,,,,,,,,,,,,,,,,,,,,,,,,,,,,,,,,,,,,,,,,,,
156141,001,2022-11-20_23h49.34.751,Info_measure_main_exp,2022.2.2,Win32,164.4195988,,,,,,,,,,,,,,,,,,masks/mask_005.jpg,,,,,,,,,,,,,,,,,,,,,,,,,,,,,,,,,,,,,,,,,,,0,2,2,4,1,,,,,,,,,,,,,,,,,,,,,,,,,,,,,,,,,,,,,,,,,,,,,,
156141,001,2022-11-20_23h49.34.751,Info_measure_main_exp,2022.2.2,Win32,164.4195988,,,,,,,,,,,,,,,,,,masks/mask_004.jpg,,,,,,,,,,,,,,,,,,,,,,,,,,,,,,,,,,,,,,,,,,,0,3,3,3,1,,,,,,,,,,,,,,,,,,,,,,,,,,,,,,,,,,,,,,,,,,,,,,
156141,001,2022-11-20_23h49.34.751,Info_measure_main_exp,2022.2.2,Win32,164.4195988,,,,,,,,,,,,,,,,,,masks/mask_002.jpg,,,,,,,,,,,,,,,,,,,,,,,,,,,,,,,,,,,,,,,,,,,0,4,4,1,1,,,,,,,,,,,,,,,,,,,,,,,,,,,,,,,,,,,,,,,,,,,,,,
156141,001,2022-11-20_23h49.34.751,Info_measure_main_exp,2022.2.2,Win32,164.4195988,,,,,,,,,,,,,,,,,,masks/mask_003.jpg,,,,,,,,,,,,,,,,,,,,,,,,,,,,,,,,,,,,,,,,,,,,,,,,0,0,0,2,1,,,,,,,,,,,,,,,,,,,,,,,,,,,,,,,,,,,,,,,,,
156141,001,2022-11-20_23h49.34.751,Info_measure_main_exp,2022.2.2,Win32,164.4195988,,,,,,,,,,,,,,,,,,masks/mask_001.jpg,,,,,,,,,,,,,,,,,,,,,,,,,,,,,,,,,,,,,,,,,,,,,,,,0,1,1,0,1,,,,,,,,,,,,,,,,,,,,,,,,,,,,,,,,,,,,,,,,,
156141,001,2022-11-20_23h49.34.751,Info_measure_main_exp,2022.2.2,Win32,164.4195988,,,,,,,,,,,,,,,,,,masks/mask_002.jpg,,,,,,,,,,,,,,,,,,,,,,,,,,,,,,,,,,,,,,,,,,,,,,,,0,2,2,1,1,,,,,,,,,,,,,,,,,,,,,,,,,,,,,,,,,,,,,,,,,
156141,001,2022-11-20_23h49.34.751,Info_measure_main_exp,2022.2.2,Win32,164.4195988,,,,,,,,,,,,,,,,,,masks/mask_005.jpg,,,,,,,,,,,,,,,,,,,,,,,,,,,,,,,,,,,,,,,,,,,,,,,,0,3,3,4,1,,,,,,,,,,,,,,,,,,,,,,,,,,,,,,,,,,,,,,,,,
156141,001,2022-11-20_23h49.34.751,Info_measure_main_exp,2022.2.2,Win32,164.4195988,,,,,,,,,,,,,,,,,,masks/mask_004.jpg,,,,,,,,,,,,,,,,,,,,,,,,,,,,,,,,,,,,,,,,,,,,,,,,0,4,4,3,1,,,,,,,,,,,,,,,,,,,,,,,,,,,,,,,,,,,,,,,,,
156141,001,2022-11-20_23h49.34.751,Info_measure_main_exp,2022.2.2,Win32,164.4195988,,,,,,,,,,,,,,,,,,,,,,,,,,,,,,7,0.8306,1,,,,,,,,,,,,1,131,5,5,1950,1,absent_patch/patch0001950.jpg,present_patch/cong_131_5_a.jpg,,,,,,,,,,,,,,,,,,,,0.077908218,0.154215582,1,0,0,response1disk,12,0,-0.016542156,1,0,0,center_square,0,11,11,39,1,,,,,,,,,,,,,,,,,,,,,,,
156141,001,2022-11-20_23h49.34.751,Info_measure_main_exp,2022.2.2,Win32,164.4195988,,,,,,,,,,,,,,,,,,masks/mask_002.jpg,,,,,,,,,,,,,,,,,,,,,,,,,,,,,,,,,,,,,,,,,,,0,0,0,1,1,,,,,,,,,,,,,,,,,,,,,,,,,,,,,,,,,,,,,,,,,,,,,,
156141,001,2022-11-20_23h49.34.751,Info_measure_main_exp,2022.2.2,Win32,164.4195988,,,,,,,,,,,,,,,,,,masks/mask_003.jpg,,,,,,,,,,,,,,,,,,,,,,,,,,,,,,,,,,,,,,,,,,,0,1,1,2,1,,,,,,,,,,,,,,,,,,,,,,,,,,,,,,,,,,,,,,,,,,,,,,
156141,001,2022-11-20_23h49.34.751,Info_measure_main_exp,2022.2.2,Win32,164.4195988,,,,,,,,,,,,,,,,,,masks/mask_001.jpg,,,,,,,,,,,,,,,,,,,,,,,,,,,,,,,,,,,,,,,,,,,0,2,2,0,1,,,,,,,,,,,,,,,,,,,,,,,,,,,,,,,,,,,,,,,,,,,,,,
156141,001,2022-11-20_23h49.34.751,Info_measure_main_exp,2022.2.2,Win32,164.4195988,,,,,,,,,,,,,,,,,,masks/mask_005.jpg,,,,,,,,,,,,,,,,,,,,,,,,,,,,,,,,,,,,,,,,,,,0,3,3,4,1,,,,,,,,,,,,,,,,,,,,,,,,,,,,,,,,,,,,,,,,,,,,,,
156141,001,2022-11-20_23h49.34.751,Info_measure_main_exp,2022.2.2,Win32,164.4195988,,,,,,,,,,,,,,,,,,masks/mask_004.jpg,,,,,,,,,,,,,,,,,,,,,,,,,,,,,,,,,,,,,,,,,,,0,4,4,3,1,,,,,,,,,,,,,,,,,,,,,,,,,,,,,,,,,,,,,,,,,,,,,,
156141,001,2022-11-20_23h49.34.751,Info_measure_main_exp,2022.2.2,Win32,164.4195988,,,,,,,,,,,,,,,,,,masks/mask_004.jpg,,,,,,,,,,,,,,,,,,,,,,,,,,,,,,,,,,,,,,,,,,,,,,,,0,0,0,3,1,,,,,,,,,,,,,,,,,,,,,,,,,,,,,,,,,,,,,,,,,
156141,001,2022-11-20_23h49.34.751,Info_measure_main_exp,2022.2.2,Win32,164.4195988,,,,,,,,,,,,,,,,,,masks/mask_002.jpg,,,,,,,,,,,,,,,,,,,,,,,,,,,,,,,,,,,,,,,,,,,,,,,,0,1,1,1,1,,,,,,,,,,,,,,,,,,,,,,,,,,,,,,,,,,,,,,,,,
156141,001,2022-11-20_23h49.34.751,Info_measure_main_exp,2022.2.2,Win32,164.4195988,,,,,,,,,,,,,,,,,,masks/mask_003.jpg,,,,,,,,,,,,,,,,,,,,,,,,,,,,,,,,,,,,,,,,,,,,,,,,0,2,2,2,1,,,,,,,,,,,,,,,,,,,,,,,,,,,,,,,,,,,,,,,,,
156141,001,2022-11-20_23h49.34.751,Info_measure_main_exp,2022.2.2,Win32,164.4195988,,,,,,,,,,,,,,,,,,masks/mask_005.jpg,,,,,,,,,,,,,,,,,,,,,,,,,,,,,,,,,,,,,,,,,,,,,,,,0,3,3,4,1,,,,,,,,,,,,,,,,,,,,,,,,,,,,,,,,,,,,,,,,,
156141,001,2022-11-20_23h49.34.751,Info_measure_main_exp,2022.2.2,Win32,164.4195988,,,,,,,,,,,,,,,,,,masks/mask_001.jpg,,,,,,,,,,,,,,,,,,,,,,,,,,,,,,,,,,,,,,,,,,,,,,,,0,4,4,0,1,,,,,,,,,,,,,,,,,,,,,,,,,,,,,,,,,,,,,,,,,
156141,001,2022-11-20_23h49.34.751,Info_measure_main_exp,2022.2.2,Win32,164.4195988,,,,,,,,,,,,,,,,,,,,,,,,,,,,,,4,4.0505,1,,,,,,,,,,,,0,131,5,5,1986,2154,absent_patch/patch0001986.jpg,absent_patch/patch0002154.jpg,,,,,,,,,,,,,,,,,,,,0.070437567,-0.127534685,1,0,0,response3disk,13,-0.011739594,0.01547492,1,0,0,center_square,0,12,12,36,1,,,,,,,,,,,,,,,,,,,,,,,
156141,001,2022-11-20_23h49.34.751,Info_measure_main_exp,2022.2.2,Win32,164.4195988,,,,,,,,,,,,,,,,,,masks/mask_002.jpg,,,,,,,,,,,,,,,,,,,,,,,,,,,,,,,,,,,,,,,,,,,0,0,0,1,1,,,,,,,,,,,,,,,,,,,,,,,,,,,,,,,,,,,,,,,,,,,,,,
156141,001,2022-11-20_23h49.34.751,Info_measure_main_exp,2022.2.2,Win32,164.4195988,,,,,,,,,,,,,,,,,,masks/mask_004.jpg,,,,,,,,,,,,,,,,,,,,,,,,,,,,,,,,,,,,,,,,,,,0,1,1,3,1,,,,,,,,,,,,,,,,,,,,,,,,,,,,,,,,,,,,,,,,,,,,,,
156141,001,2022-11-20_23h49.34.751,Info_measure_main_exp,2022.2.2,Win32,164.4195988,,,,,,,,,,,,,,,,,,masks/mask_001.jpg,,,,,,,,,,,,,,,,,,,,,,,,,,,,,,,,,,,,,,,,,,,0,2,2,0,1,,,,,,,,,,,,,,,,,,,,,,,,,,,,,,,,,,,,,,,,,,,,,,
156141,001,2022-11-20_23h49.34.751,Info_measure_main_exp,2022.2.2,Win32,164.4195988,,,,,,,,,,,,,,,,,,masks/mask_005.jpg,,,,,,,,,,,,,,,,,,,,,,,,,,,,,,,,,,,,,,,,,,,0,3,3,4,1,,,,,,,,,,,,,,,,,,,,,,,,,,,,,,,,,,,,,,,,,,,,,,
156141,001,2022-11-20_23h49.34.751,Info_measure_main_exp,2022.2.2,Win32,164.4195988,,,,,,,,,,,,,,,,,,masks/mask_003.jpg,,,,,,,,,,,,,,,,,,,,,,,,,,,,,,,,,,,,,,,,,,,0,4,4,2,1,,,,,,,,,,,,,,,,,,,,,,,,,,,,,,,,,,,,,,,,,,,,,,
156141,001,2022-11-20_23h49.34.751,Info_measure_main_exp,2022.2.2,Win32,164.4195988,,,,,,,,,,,,,,,,,,masks/mask_005.jpg,,,,,,,,,,,,,,,,,,,,,,,,,,,,,,,,,,,,,,,,,,,,,,,,0,0,0,4,1,,,,,,,,,,,,,,,,,,,,,,,,,,,,,,,,,,,,,,,,,
156141,001,2022-11-20_23h49.34.751,Info_measure_main_exp,2022.2.2,Win32,164.4195988,,,,,,,,,,,,,,,,,,masks/mask_002.jpg,,,,,,,,,,,,,,,,,,,,,,,,,,,,,,,,,,,,,,,,,,,,,,,,0,1,1,1,1,,,,,,,,,,,,,,,,,,,,,,,,,,,,,,,,,,,,,,,,,
156141,001,2022-11-20_23h49.34.751,Info_measure_main_exp,2022.2.2,Win32,164.4195988,,,,,,,,,,,,,,,,,,masks/mask_004.jpg,,,,,,,,,,,,,,,,,,,,,,,,,,,,,,,,,,,,,,,,,,,,,,,,0,2,2,3,1,,,,,,,,,,,,,,,,,,,,,,,,,,,,,,,,,,,,,,,,,
156141,001,2022-11-20_23h49.34.751,Info_measure_main_exp,2022.2.2,Win32,164.4195988,,,,,,,,,,,,,,,,,,masks/mask_001.jpg,,,,,,,,,,,,,,,,,,,,,,,,,,,,,,,,,,,,,,,,,,,,,,,,0,3,3,0,1,,,,,,,,,,,,,,,,,,,,,,,,,,,,,,,,,,,,,,,,,
156141,001,2022-11-20_23h49.34.751,Info_measure_main_exp,2022.2.2,Win32,164.4195988,,,,,,,,,,,,,,,,,,masks/mask_003.jpg,,,,,,,,,,,,,,,,,,,,,,,,,,,,,,,,,,,,,,,,,,,,,,,,0,4,4,2,1,,,,,,,,,,,,,,,,,,,,,,,,,,,,,,,,,,,,,,,,,
156141,001,2022-11-20_23h49.34.751,Info_measure_main_exp,2022.2.2,Win32,164.4195988,,,,,,,,,,,,,,,,,,,,,,,,,,,,,,5,0.709,1,,,,,,,,,,,,0,131,5,5,2178,2154,absent_patch/patch0002178.jpg,absent_patch/patch0002154.jpg,,,,,,,,,,,,,,,,,,,,0.203842049,-0.043223052,1,0,0,response3disk,14,-0.003201708,0.003735326,1,0,0,center_square,0,13,13,63,1,,,,,,,,,,,,,,,,,,,,,,,
156141,001,2022-11-20_23h49.34.751,Info_measure_main_exp,2022.2.2,Win32,164.4195988,,,,,,,,,,,,,,,,,,masks/mask_002.jpg,,,,,,,,,,,,,,,,,,,,,,,,,,,,,,,,,,,,,,,,,,,0,0,0,1,1,,,,,,,,,,,,,,,,,,,,,,,,,,,,,,,,,,,,,,,,,,,,,,
156141,001,2022-11-20_23h49.34.751,Info_measure_main_exp,2022.2.2,Win32,164.4195988,,,,,,,,,,,,,,,,,,masks/mask_004.jpg,,,,,,,,,,,,,,,,,,,,,,,,,,,,,,,,,,,,,,,,,,,0,1,1,3,1,,,,,,,,,,,,,,,,,,,,,,,,,,,,,,,,,,,,,,,,,,,,,,
156141,001,2022-11-20_23h49.34.751,Info_measure_main_exp,2022.2.2,Win32,164.4195988,,,,,,,,,,,,,,,,,,masks/mask_003.jpg,,,,,,,,,,,,,,,,,,,,,,,,,,,,,,,,,,,,,,,,,,,0,2,2,2,1,,,,,,,,,,,,,,,,,,,,,,,,,,,,,,,,,,,,,,,,,,,,,,
156141,001,2022-11-20_23h49.34.751,Info_measure_main_exp,2022.2.2,Win32,164.4195988,,,,,,,,,,,,,,,,,,masks/mask_005.jpg,,,,,,,,,,,,,,,,,,,,,,,,,,,,,,,,,,,,,,,,,,,0,3,3,4,1,,,,,,,,,,,,,,,,,,,,,,,,,,,,,,,,,,,,,,,,,,,,,,
156141,001,2022-11-20_23h49.34.751,Info_measure_main_exp,2022.2.2,Win32,164.4195988,,,,,,,,,,,,,,,,,,masks/mask_001.jpg,,,,,,,,,,,,,,,,,,,,,,,,,,,,,,,,,,,,,,,,,,,0,4,4,0,1,,,,,,,,,,,,,,,,,,,,,,,,,,,,,,,,,,,,,,,,,,,,,,
156141,001,2022-11-20_23h49.34.751,Info_measure_main_exp,2022.2.2,Win32,164.4195988,,,,,,,,,,,,,,,,,,masks/mask_004.jpg,,,,,,,,,,,,,,,,,,,,,,,,,,,,,,,,,,,,,,,,,,,,,,,,0,0,0,3,1,,,,,,,,,,,,,,,,,,,,,,,,,,,,,,,,,,,,,,,,,
156141,001,2022-11-20_23h49.34.751,Info_measure_main_exp,2022.2.2,Win32,164.4195988,,,,,,,,,,,,,,,,,,masks/mask_002.jpg,,,,,,,,,,,,,,,,,,,,,,,,,,,,,,,,,,,,,,,,,,,,,,,,0,1,1,1,1,,,,,,,,,,,,,,,,,,,,,,,,,,,,,,,,,,,,,,,,,
156141,001,2022-11-20_23h49.34.751,Info_measure_main_exp,2022.2.2,Win32,164.4195988,,,,,,,,,,,,,,,,,,masks/mask_003.jpg,,,,,,,,,,,,,,,,,,,,,,,,,,,,,,,,,,,,,,,,,,,,,,,,0,2,2,2,1,,,,,,,,,,,,,,,,,,,,,,,,,,,,,,,,,,,,,,,,,
156141,001,2022-11-20_23h49.34.751,Info_measure_main_exp,2022.2.2,Win32,164.4195988,,,,,,,,,,,,,,,,,,masks/mask_005.jpg,,,,,,,,,,,,,,,,,,,,,,,,,,,,,,,,,,,,,,,,,,,,,,,,0,3,3,4,1,,,,,,,,,,,,,,,,,,,,,,,,,,,,,,,,,,,,,,,,,
156141,001,2022-11-20_23h49.34.751,Info_measure_main_exp,2022.2.2,Win32,164.4195988,,,,,,,,,,,,,,,,,,masks/mask_001.jpg,,,,,,,,,,,,,,,,,,,,,,,,,,,,,,,,,,,,,,,,,,,,,,,,0,4,4,0,1,,,,,,,,,,,,,,,,,,,,,,,,,,,,,,,,,,,,,,,,,
156141,001,2022-11-20_23h49.34.751,Info_measure_main_exp,2022.2.2,Win32,164.4195988,,,,,,,,,,,,,,,,,,,,,,,,,,,,,,4,0.9275,1,,,,,,,,,,,,0,131,5,5,1950,2298,absent_patch/patch0001950.jpg,absent_patch/patch0002298.jpg,,,,,,,,,,,,,,,,,,,,0.073639274,-0.151013874,1,0,0,response3disk,15,-0.004268943,-0.017609392,1,0,0,center_square,0,14,14,18,1,,,,,,,,,,,,,,,,,,,,,,,
156141,001,2022-11-20_23h49.34.751,Info_measure_main_exp,2022.2.2,Win32,164.4195988,,,,,,,,,,,,,,,,,,masks/mask_004.jpg,,,,,,,,,,,,,,,,,,,,,,,,,,,,,,,,,,,,,,,,,,,0,0,0,3,1,,,,,,,,,,,,,,,,,,,,,,,,,,,,,,,,,,,,,,,,,,,,,,
156141,001,2022-11-20_23h49.34.751,Info_measure_main_exp,2022.2.2,Win32,164.4195988,,,,,,,,,,,,,,,,,,masks/mask_001.jpg,,,,,,,,,,,,,,,,,,,,,,,,,,,,,,,,,,,,,,,,,,,0,1,1,0,1,,,,,,,,,,,,,,,,,,,,,,,,,,,,,,,,,,,,,,,,,,,,,,
156141,001,2022-11-20_23h49.34.751,Info_measure_main_exp,2022.2.2,Win32,164.4195988,,,,,,,,,,,,,,,,,,masks/mask_003.jpg,,,,,,,,,,,,,,,,,,,,,,,,,,,,,,,,,,,,,,,,,,,0,2,2,2,1,,,,,,,,,,,,,,,,,,,,,,,,,,,,,,,,,,,,,,,,,,,,,,
156141,001,2022-11-20_23h49.34.751,Info_measure_main_exp,2022.2.2,Win32,164.4195988,,,,,,,,,,,,,,,,,,masks/mask_002.jpg,,,,,,,,,,,,,,,,,,,,,,,,,,,,,,,,,,,,,,,,,,,0,3,3,1,1,,,,,,,,,,,,,,,,,,,,,,,,,,,,,,,,,,,,,,,,,,,,,,
156141,001,2022-11-20_23h49.34.751,Info_measure_main_exp,2022.2.2,Win32,164.4195988,,,,,,,,,,,,,,,,,,masks/mask_005.jpg,,,,,,,,,,,,,,,,,,,,,,,,,,,,,,,,,,,,,,,,,,,0,4,4,4,1,,,,,,,,,,,,,,,,,,,,,,,,,,,,,,,,,,,,,,,,,,,,,,
156141,001,2022-11-20_23h49.34.751,Info_measure_main_exp,2022.2.2,Win32,164.4195988,,,,,,,,,,,,,,,,,,masks/mask_001.jpg,,,,,,,,,,,,,,,,,,,,,,,,,,,,,,,,,,,,,,,,,,,,,,,,0,0,0,0,1,,,,,,,,,,,,,,,,,,,,,,,,,,,,,,,,,,,,,,,,,
156141,001,2022-11-20_23h49.34.751,Info_measure_main_exp,2022.2.2,Win32,164.4195988,,,,,,,,,,,,,,,,,,masks/mask_003.jpg,,,,,,,,,,,,,,,,,,,,,,,,,,,,,,,,,,,,,,,,,,,,,,,,0,1,1,2,1,,,,,,,,,,,,,,,,,,,,,,,,,,,,,,,,,,,,,,,,,
156141,001,2022-11-20_23h49.34.751,Info_measure_main_exp,2022.2.2,Win32,164.4195988,,,,,,,,,,,,,,,,,,masks/mask_005.jpg,,,,,,,,,,,,,,,,,,,,,,,,,,,,,,,,,,,,,,,,,,,,,,,,0,2,2,4,1,,,,,,,,,,,,,,,,,,,,,,,,,,,,,,,,,,,,,,,,,
156141,001,2022-11-20_23h49.34.751,Info_measure_main_exp,2022.2.2,Win32,164.4195988,,,,,,,,,,,,,,,,,,masks/mask_002.jpg,,,,,,,,,,,,,,,,,,,,,,,,,,,,,,,,,,,,,,,,,,,,,,,,0,3,3,1,1,,,,,,,,,,,,,,,,,,,,,,,,,,,,,,,,,,,,,,,,,
156141,001,2022-11-20_23h49.34.751,Info_measure_main_exp,2022.2.2,Win32,164.4195988,,,,,,,,,,,,,,,,,,masks/mask_004.jpg,,,,,,,,,,,,,,,,,,,,,,,,,,,,,,,,,,,,,,,,,,,,,,,,0,4,4,3,1,,,,,,,,,,,,,,,,,,,,,,,,,,,,,,,,,,,,,,,,,
156141,001,2022-11-20_23h49.34.751,Info_measure_main_exp,2022.2.2,Win32,164.4195988,,,,,,,,,,,,,,,,,,,,,,,,,,,,,,6,0.5697,1,,,,,,,,,,,,0,131,5,5,1986,1950,absent_patch/patch0001986.jpg,absent_patch/patch0001950.jpg,,,,,,,,,,,,,,,,,,,,0.166488794,0.058164354,1,0,0,response1disk,16,0.01280683,0.014407684,1,0,0,center_square,0,15,15,15,1,,,,,,,,,,,,,,,,,,,,,,,
156141,001,2022-11-20_23h49.34.751,Info_measure_main_exp,2022.2.2,Win32,164.4195988,,,,,,,,,,,,,,,,,,masks/mask_001.jpg,,,,,,,,,,,,,,,,,,,,,,,,,,,,,,,,,,,,,,,,,,,0,0,0,0,1,,,,,,,,,,,,,,,,,,,,,,,,,,,,,,,,,,,,,,,,,,,,,,
156141,001,2022-11-20_23h49.34.751,Info_measure_main_exp,2022.2.2,Win32,164.4195988,,,,,,,,,,,,,,,,,,masks/mask_004.jpg,,,,,,,,,,,,,,,,,,,,,,,,,,,,,,,,,,,,,,,,,,,0,1,1,3,1,,,,,,,,,,,,,,,,,,,,,,,,,,,,,,,,,,,,,,,,,,,,,,
156141,001,2022-11-20_23h49.34.751,Info_measure_main_exp,2022.2.2,Win32,164.4195988,,,,,,,,,,,,,,,,,,masks/mask_002.jpg,,,,,,,,,,,,,,,,,,,,,,,,,,,,,,,,,,,,,,,,,,,0,2,2,1,1,,,,,,,,,,,,,,,,,,,,,,,,,,,,,,,,,,,,,,,,,,,,,,
156141,001,2022-11-20_23h49.34.751,Info_measure_main_exp,2022.2.2,Win32,164.4195988,,,,,,,,,,,,,,,,,,masks/mask_005.jpg,,,,,,,,,,,,,,,,,,,,,,,,,,,,,,,,,,,,,,,,,,,0,3,3,4,1,,,,,,,,,,,,,,,,,,,,,,,,,,,,,,,,,,,,,,,,,,,,,,
156141,001,2022-11-20_23h49.34.751,Info_measure_main_exp,2022.2.2,Win32,164.4195988,,,,,,,,,,,,,,,,,,masks/mask_003.jpg,,,,,,,,,,,,,,,,,,,,,,,,,,,,,,,,,,,,,,,,,,,0,4,4,2,1,,,,,,,,,,,,,,,,,,,,,,,,,,,,,,,,,,,,,,,,,,,,,,
156141,001,2022-11-20_23h49.34.751,Info_measure_main_exp,2022.2.2,Win32,164.4195988,,,,,,,,,,,,,,,,,,masks/mask_001.jpg,,,,,,,,,,,,,,,,,,,,,,,,,,,,,,,,,,,,,,,,,,,,,,,,0,0,0,0,1,,,,,,,,,,,,,,,,,,,,,,,,,,,,,,,,,,,,,,,,,
156141,001,2022-11-20_23h49.34.751,Info_measure_main_exp,2022.2.2,Win32,164.4195988,,,,,,,,,,,,,,,,,,masks/mask_005.jpg,,,,,,,,,,,,,,,,,,,,,,,,,,,,,,,,,,,,,,,,,,,,,,,,0,1,1,4,1,,,,,,,,,,,,,,,,,,,,,,,,,,,,,,,,,,,,,,,,,
156141,001,2022-11-20_23h49.34.751,Info_measure_main_exp,2022.2.2,Win32,164.4195988,,,,,,,,,,,,,,,,,,masks/mask_003.jpg,,,,,,,,,,,,,,,,,,,,,,,,,,,,,,,,,,,,,,,,,,,,,,,,0,2,2,2,1,,,,,,,,,,,,,,,,,,,,,,,,,,,,,,,,,,,,,,,,,
156141,001,2022-11-20_23h49.34.751,Info_measure_main_exp,2022.2.2,Win32,164.4195988,,,,,,,,,,,,,,,,,,masks/mask_004.jpg,,,,,,,,,,,,,,,,,,,,,,,,,,,,,,,,,,,,,,,,,,,,,,,,0,3,3,3,1,,,,,,,,,,,,,,,,,,,,,,,,,,,,,,,,,,,,,,,,,
156141,001,2022-11-20_23h49.34.751,Info_measure_main_exp,2022.2.2,Win32,164.4195988,,,,,,,,,,,,,,,,,,masks/mask_002.jpg,,,,,,,,,,,,,,,,,,,,,,,,,,,,,,,,,,,,,,,,,,,,,,,,0,4,4,1,1,,,,,,,,,,,,,,,,,,,,,,,,,,,,,,,,,,,,,,,,,
156141,001,2022-11-20_23h49.34.751,Info_measure_main_exp,2022.2.2,Win32,164.4195988,,,,,,,,,,,,,,,,,,,,,,,,,,,,,,3,0.7274,1,,,,,,,,,,,,0,131,5,5,2274,2154,absent_patch/patch0002274.jpg,absent_patch/patch0002154.jpg,,,,,,,,,,,,,,,,,,,,-0.053361793,-0.146744931,1,0,0,response5disk,17,-0.014941302,-0.008004269,1,0,0,center_square,0,16,16,23,1,,,,,,,,,,,,,,,,,,,,,,,
156141,001,2022-11-20_23h49.34.751,Info_measure_main_exp,2022.2.2,Win32,164.4195988,,,,,,,,,,,,,,,,,,masks/mask_004.jpg,,,,,,,,,,,,,,,,,,,,,,,,,,,,,,,,,,,,,,,,,,,0,0,0,3,1,,,,,,,,,,,,,,,,,,,,,,,,,,,,,,,,,,,,,,,,,,,,,,
156141,001,2022-11-20_23h49.34.751,Info_measure_main_exp,2022.2.2,Win32,164.4195988,,,,,,,,,,,,,,,,,,masks/mask_005.jpg,,,,,,,,,,,,,,,,,,,,,,,,,,,,,,,,,,,,,,,,,,,0,1,1,4,1,,,,,,,,,,,,,,,,,,,,,,,,,,,,,,,,,,,,,,,,,,,,,,
156141,001,2022-11-20_23h49.34.751,Info_measure_main_exp,2022.2.2,Win32,164.4195988,,,,,,,,,,,,,,,,,,masks/mask_001.jpg,,,,,,,,,,,,,,,,,,,,,,,,,,,,,,,,,,,,,,,,,,,0,2,2,0,1,,,,,,,,,,,,,,,,,,,,,,,,,,,,,,,,,,,,,,,,,,,,,,
156141,001,2022-11-20_23h49.34.751,Info_measure_main_exp,2022.2.2,Win32,164.4195988,,,,,,,,,,,,,,,,,,masks/mask_002.jpg,,,,,,,,,,,,,,,,,,,,,,,,,,,,,,,,,,,,,,,,,,,0,3,3,1,1,,,,,,,,,,,,,,,,,,,,,,,,,,,,,,,,,,,,,,,,,,,,,,
156141,001,2022-11-20_23h49.34.751,Info_measure_main_exp,2022.2.2,Win32,164.4195988,,,,,,,,,,,,,,,,,,masks/mask_003.jpg,,,,,,,,,,,,,,,,,,,,,,,,,,,,,,,,,,,,,,,,,,,0,4,4,2,1,,,,,,,,,,,,,,,,,,,,,,,,,,,,,,,,,,,,,,,,,,,,,,
156141,001,2022-11-20_23h49.34.751,Info_measure_main_exp,2022.2.2,Win32,164.4195988,,,,,,,,,,,,,,,,,,masks/mask_005.jpg,,,,,,,,,,,,,,,,,,,,,,,,,,,,,,,,,,,,,,,,,,,,,,,,0,0,0,4,1,,,,,,,,,,,,,,,,,,,,,,,,,,,,,,,,,,,,,,,,,
156141,001,2022-11-20_23h49.34.751,Info_measure_main_exp,2022.2.2,Win32,164.4195988,,,,,,,,,,,,,,,,,,masks/mask_001.jpg,,,,,,,,,,,,,,,,,,,,,,,,,,,,,,,,,,,,,,,,,,,,,,,,0,1,1,0,1,,,,,,,,,,,,,,,,,,,,,,,,,,,,,,,,,,,,,,,,,
156141,001,2022-11-20_23h49.34.751,Info_measure_main_exp,2022.2.2,Win32,164.4195988,,,,,,,,,,,,,,,,,,masks/mask_002.jpg,,,,,,,,,,,,,,,,,,,,,,,,,,,,,,,,,,,,,,,,,,,,,,,,0,2,2,1,1,,,,,,,,,,,,,,,,,,,,,,,,,,,,,,,,,,,,,,,,,
156141,001,2022-11-20_23h49.34.751,Info_measure_main_exp,2022.2.2,Win32,164.4195988,,,,,,,,,,,,,,,,,,masks/mask_004.jpg,,,,,,,,,,,,,,,,,,,,,,,,,,,,,,,,,,,,,,,,,,,,,,,,0,3,3,3,1,,,,,,,,,,,,,,,,,,,,,,,,,,,,,,,,,,,,,,,,,
156141,001,2022-11-20_23h49.34.751,Info_measure_main_exp,2022.2.2,Win32,164.4195988,,,,,,,,,,,,,,,,,,masks/mask_003.jpg,,,,,,,,,,,,,,,,,,,,,,,,,,,,,,,,,,,,,,,,,,,,,,,,0,4,4,2,1,,,,,,,,,,,,,,,,,,,,,,,,,,,,,,,,,,,,,,,,,
156141,001,2022-11-20_23h49.34.751,Info_measure_main_exp,2022.2.2,Win32,164.4195988,,,,,,,,,,,,,,,,,,,,,,,,,,,,,,4,0.4123,1,,,,,,,,,,,,0,131,5,5,2190,1974,absent_patch/patch0002190.jpg,absent_patch/patch0001974.jpg,,,,,,,,,,,,,,,,,,,,0.114194237,-0.192636073,1,0,0,response3disk,18,-0.014941302,-0.011205977,1,0,0,center_square,0,17,17,119,1,,,,,,,,,,,,,,,,,,,,,,,
156141,001,2022-11-20_23h49.34.751,Info_measure_main_exp,2022.2.2,Win32,164.4195988,,,,,,,,,,,,,,,,,,masks/mask_005.jpg,,,,,,,,,,,,,,,,,,,,,,,,,,,,,,,,,,,,,,,,,,,0,0,0,4,1,,,,,,,,,,,,,,,,,,,,,,,,,,,,,,,,,,,,,,,,,,,,,,
156141,001,2022-11-20_23h49.34.751,Info_measure_main_exp,2022.2.2,Win32,164.4195988,,,,,,,,,,,,,,,,,,masks/mask_002.jpg,,,,,,,,,,,,,,,,,,,,,,,,,,,,,,,,,,,,,,,,,,,0,1,1,1,1,,,,,,,,,,,,,,,,,,,,,,,,,,,,,,,,,,,,,,,,,,,,,,
156141,001,2022-11-20_23h49.34.751,Info_measure_main_exp,2022.2.2,Win32,164.4195988,,,,,,,,,,,,,,,,,,masks/mask_004.jpg,,,,,,,,,,,,,,,,,,,,,,,,,,,,,,,,,,,,,,,,,,,0,2,2,3,1,,,,,,,,,,,,,,,,,,,,,,,,,,,,,,,,,,,,,,,,,,,,,,
156141,001,2022-11-20_23h49.34.751,Info_measure_main_exp,2022.2.2,Win32,164.4195988,,,,,,,,,,,,,,,,,,masks/mask_001.jpg,,,,,,,,,,,,,,,,,,,,,,,,,,,,,,,,,,,,,,,,,,,0,3,3,0,1,,,,,,,,,,,,,,,,,,,,,,,,,,,,,,,,,,,,,,,,,,,,,,
156141,001,2022-11-20_23h49.34.751,Info_measure_main_exp,2022.2.2,Win32,164.4195988,,,,,,,,,,,,,,,,,,masks/mask_003.jpg,,,,,,,,,,,,,,,,,,,,,,,,,,,,,,,,,,,,,,,,,,,0,4,4,2,1,,,,,,,,,,,,,,,,,,,,,,,,,,,,,,,,,,,,,,,,,,,,,,
156141,001,2022-11-20_23h49.34.751,Info_measure_main_exp,2022.2.2,Win32,164.4195988,,,,,,,,,,,,,,,,,,masks/mask_005.jpg,,,,,,,,,,,,,,,,,,,,,,,,,,,,,,,,,,,,,,,,,,,,,,,,0,0,0,4,1,,,,,,,,,,,,,,,,,,,,,,,,,,,,,,,,,,,,,,,,,
156141,001,2022-11-20_23h49.34.751,Info_measure_main_exp,2022.2.2,Win32,164.4195988,,,,,,,,,,,,,,,,,,masks/mask_003.jpg,,,,,,,,,,,,,,,,,,,,,,,,,,,,,,,,,,,,,,,,,,,,,,,,0,1,1,2,1,,,,,,,,,,,,,,,,,,,,,,,,,,,,,,,,,,,,,,,,,
156141,001,2022-11-20_23h49.34.751,Info_measure_main_exp,2022.2.2,Win32,164.4195988,,,,,,,,,,,,,,,,,,masks/mask_001.jpg,,,,,,,,,,,,,,,,,,,,,,,,,,,,,,,,,,,,,,,,,,,,,,,,0,2,2,0,1,,,,,,,,,,,,,,,,,,,,,,,,,,,,,,,,,,,,,,,,,
156141,001,2022-11-20_23h49.34.751,Info_measure_main_exp,2022.2.2,Win32,164.4195988,,,,,,,,,,,,,,,,,,masks/mask_004.jpg,,,,,,,,,,,,,,,,,,,,,,,,,,,,,,,,,,,,,,,,,,,,,,,,0,3,3,3,1,,,,,,,,,,,,,,,,,,,,,,,,,,,,,,,,,,,,,,,,,
156141,001,2022-11-20_23h49.34.751,Info_measure_main_exp,2022.2.2,Win32,164.4195988,,,,,,,,,,,,,,,,,,masks/mask_002.jpg,,,,,,,,,,,,,,,,,,,,,,,,,,,,,,,,,,,,,,,,,,,,,,,,0,4,4,1,1,,,,,,,,,,,,,,,,,,,,,,,,,,,,,,,,,,,,,,,,,
156141,001,2022-11-20_23h49.34.751,Info_measure_main_exp,2022.2.2,Win32,164.4195988,,,,,,,,,,,,,,,,,,,,,,,,,,,,,,4,0.7213,1,,,,,,,,,,,,0,131,5,5,1986,2142,absent_patch/patch0001986.jpg,absent_patch/patch0002142.jpg,,,,,,,,,,,,,,,,,,,,0.068303095,-0.172358591,1,0,0,response3disk,19,0.009605123,-0.014407684,1,0,0,center_square,0,18,18,76,1,,,,,,,,,,,,,,,,,,,,,,,
156141,001,2022-11-20_23h49.34.751,Info_measure_main_exp,2022.2.2,Win32,164.4195988,,,,,,,,,,,,,,,,,,masks/mask_001.jpg,,,,,,,,,,,,,,,,,,,,,,,,,,,,,,,,,,,,,,,,,,,0,0,0,0,1,,,,,,,,,,,,,,,,,,,,,,,,,,,,,,,,,,,,,,,,,,,,,,
156141,001,2022-11-20_23h49.34.751,Info_measure_main_exp,2022.2.2,Win32,164.4195988,,,,,,,,,,,,,,,,,,masks/mask_002.jpg,,,,,,,,,,,,,,,,,,,,,,,,,,,,,,,,,,,,,,,,,,,0,1,1,1,1,,,,,,,,,,,,,,,,,,,,,,,,,,,,,,,,,,,,,,,,,,,,,,
156141,001,2022-11-20_23h49.34.751,Info_measure_main_exp,2022.2.2,Win32,164.4195988,,,,,,,,,,,,,,,,,,masks/mask_005.jpg,,,,,,,,,,,,,,,,,,,,,,,,,,,,,,,,,,,,,,,,,,,0,2,2,4,1,,,,,,,,,,,,,,,,,,,,,,,,,,,,,,,,,,,,,,,,,,,,,,
156141,001,2022-11-20_23h49.34.751,Info_measure_main_exp,2022.2.2,Win32,164.4195988,,,,,,,,,,,,,,,,,,masks/mask_004.jpg,,,,,,,,,,,,,,,,,,,,,,,,,,,,,,,,,,,,,,,,,,,0,3,3,3,1,,,,,,,,,,,,,,,,,,,,,,,,,,,,,,,,,,,,,,,,,,,,,,
156141,001,2022-11-20_23h49.34.751,Info_measure_main_exp,2022.2.2,Win32,164.4195988,,,,,,,,,,,,,,,,,,masks/mask_003.jpg,,,,,,,,,,,,,,,,,,,,,,,,,,,,,,,,,,,,,,,,,,,0,4,4,2,1,,,,,,,,,,,,,,,,,,,,,,,,,,,,,,,,,,,,,,,,,,,,,,
156141,001,2022-11-20_23h49.34.751,Info_measure_main_exp,2022.2.2,Win32,164.4195988,,,,,,,,,,,,,,,,,,masks/mask_001.jpg,,,,,,,,,,,,,,,,,,,,,,,,,,,,,,,,,,,,,,,,,,,,,,,,0,0,0,0,1,,,,,,,,,,,,,,,,,,,,,,,,,,,,,,,,,,,,,,,,,
156141,001,2022-11-20_23h49.34.751,Info_measure_main_exp,2022.2.2,Win32,164.4195988,,,,,,,,,,,,,,,,,,masks/mask_003.jpg,,,,,,,,,,,,,,,,,,,,,,,,,,,,,,,,,,,,,,,,,,,,,,,,0,1,1,2,1,,,,,,,,,,,,,,,,,,,,,,,,,,,,,,,,,,,,,,,,,
156141,001,2022-11-20_23h49.34.751,Info_measure_main_exp,2022.2.2,Win32,164.4195988,,,,,,,,,,,,,,,,,,masks/mask_002.jpg,,,,,,,,,,,,,,,,,,,,,,,,,,,,,,,,,,,,,,,,,,,,,,,,0,2,2,1,1,,,,,,,,,,,,,,,,,,,,,,,,,,,,,,,,,,,,,,,,,
156141,001,2022-11-20_23h49.34.751,Info_measure_main_exp,2022.2.2,Win32,164.4195988,,,,,,,,,,,,,,,,,,masks/mask_004.jpg,,,,,,,,,,,,,,,,,,,,,,,,,,,,,,,,,,,,,,,,,,,,,,,,0,3,3,3,1,,,,,,,,,,,,,,,,,,,,,,,,,,,,,,,,,,,,,,,,,
156141,001,2022-11-20_23h49.34.751,Info_measure_main_exp,2022.2.2,Win32,164.4195988,,,,,,,,,,,,,,,,,,masks/mask_005.jpg,,,,,,,,,,,,,,,,,,,,,,,,,,,,,,,,,,,,,,,,,,,,,,,,0,4,4,4,1,,,,,,,,,,,,,,,,,,,,,,,,,,,,,,,,,,,,,,,,,
156141,001,2022-11-20_23h49.34.751,Info_measure_main_exp,2022.2.2,Win32,164.4195988,,,,,,,,,,,,,,,,,,,,,,,,,,,,,,3,1.0067,1,,,,,,,,,,,,0,131,5,5,2190,1950,absent_patch/patch0002190.jpg,absent_patch/patch0001950.jpg,,,,,,,,,,,,,,,,,,,,-0.088580576,-0.162753469,1,0,0,response5disk,20,-0.005336179,-0.004802561,1,0,0,center_square,0,19,19,73,1,,,,,,,,,,,,,,,,,,,,,,,
156141,001,2022-11-20_23h49.34.751,Info_measure_main_exp,2022.2.2,Win32,164.4195988,,,,,,,,,,,,,,,,,,masks/mask_004.jpg,,,,,,,,,,,,,,,,,,,,,,,,,,,,,,,,,,,,,,,,,,,0,0,0,3,1,,,,,,,,,,,,,,,,,,,,,,,,,,,,,,,,,,,,,,,,,,,,,,
156141,001,2022-11-20_23h49.34.751,Info_measure_main_exp,2022.2.2,Win32,164.4195988,,,,,,,,,,,,,,,,,,masks/mask_001.jpg,,,,,,,,,,,,,,,,,,,,,,,,,,,,,,,,,,,,,,,,,,,0,1,1,0,1,,,,,,,,,,,,,,,,,,,,,,,,,,,,,,,,,,,,,,,,,,,,,,
156141,001,2022-11-20_23h49.34.751,Info_measure_main_exp,2022.2.2,Win32,164.4195988,,,,,,,,,,,,,,,,,,masks/mask_003.jpg,,,,,,,,,,,,,,,,,,,,,,,,,,,,,,,,,,,,,,,,,,,0,2,2,2,1,,,,,,,,,,,,,,,,,,,,,,,,,,,,,,,,,,,,,,,,,,,,,,
156141,001,2022-11-20_23h49.34.751,Info_measure_main_exp,2022.2.2,Win32,164.4195988,,,,,,,,,,,,,,,,,,masks/mask_002.jpg,,,,,,,,,,,,,,,,,,,,,,,,,,,,,,,,,,,,,,,,,,,0,3,3,1,1,,,,,,,,,,,,,,,,,,,,,,,,,,,,,,,,,,,,,,,,,,,,,,
156141,001,2022-11-20_23h49.34.751,Info_measure_main_exp,2022.2.2,Win32,164.4195988,,,,,,,,,,,,,,,,,,masks/mask_005.jpg,,,,,,,,,,,,,,,,,,,,,,,,,,,,,,,,,,,,,,,,,,,0,4,4,4,1,,,,,,,,,,,,,,,,,,,,,,,,,,,,,,,,,,,,,,,,,,,,,,
156141,001,2022-11-20_23h49.34.751,Info_measure_main_exp,2022.2.2,Win32,164.4195988,,,,,,,,,,,,,,,,,,masks/mask_005.jpg,,,,,,,,,,,,,,,,,,,,,,,,,,,,,,,,,,,,,,,,,,,,,,,,0,0,0,4,1,,,,,,,,,,,,,,,,,,,,,,,,,,,,,,,,,,,,,,,,,
156141,001,2022-11-20_23h49.34.751,Info_measure_main_exp,2022.2.2,Win32,164.4195988,,,,,,,,,,,,,,,,,,masks/mask_002.jpg,,,,,,,,,,,,,,,,,,,,,,,,,,,,,,,,,,,,,,,,,,,,,,,,0,1,1,1,1,,,,,,,,,,,,,,,,,,,,,,,,,,,,,,,,,,,,,,,,,
156141,001,2022-11-20_23h49.34.751,Info_measure_main_exp,2022.2.2,Win32,164.4195988,,,,,,,,,,,,,,,,,,masks/mask_001.jpg,,,,,,,,,,,,,,,,,,,,,,,,,,,,,,,,,,,,,,,,,,,,,,,,0,2,2,0,1,,,,,,,,,,,,,,,,,,,,,,,,,,,,,,,,,,,,,,,,,
156141,001,2022-11-20_23h49.34.751,Info_measure_main_exp,2022.2.2,Win32,164.4195988,,,,,,,,,,,,,,,,,,masks/mask_003.jpg,,,,,,,,,,,,,,,,,,,,,,,,,,,,,,,,,,,,,,,,,,,,,,,,0,3,3,2,1,,,,,,,,,,,,,,,,,,,,,,,,,,,,,,,,,,,,,,,,,
156141,001,2022-11-20_23h49.34.751,Info_measure_main_exp,2022.2.2,Win32,164.4195988,,,,,,,,,,,,,,,,,,masks/mask_004.jpg,,,,,,,,,,,,,,,,,,,,,,,,,,,,,,,,,,,,,,,,,,,,,,,,0,4,4,3,1,,,,,,,,,,,,,,,,,,,,,,,,,,,,,,,,,,,,,,,,,
156141,001,2022-11-20_23h49.34.751,Info_measure_main_exp,2022.2.2,Win32,164.4195988,,,,,,,,,,,,,,,,,,,,,,,,,,,,,,5,0.576,1,,,,,,,,,,,,0,131,5,5,2142,2154,absent_patch/patch0002142.jpg,absent_patch/patch0002154.jpg,,,,,,,,,,,,,,,,,,,,0.199573106,-0.074172892,1,0,0,response3disk,21,-0.01280683,-0.004802561,1,0,0,center_square,0,20,20,9,1,,,,,,,,,,,,,,,,,,,,,,,
156141,001,2022-11-20_23h49.34.751,Info_measure_main_exp,2022.2.2,Win32,164.4195988,,,,,,,,,,,,,,,,,,masks/mask_002.jpg,,,,,,,,,,,,,,,,,,,,,,,,,,,,,,,,,,,,,,,,,,,0,0,0,1,1,,,,,,,,,,,,,,,,,,,,,,,,,,,,,,,,,,,,,,,,,,,,,,
156141,001,2022-11-20_23h49.34.751,Info_measure_main_exp,2022.2.2,Win32,164.4195988,,,,,,,,,,,,,,,,,,masks/mask_005.jpg,,,,,,,,,,,,,,,,,,,,,,,,,,,,,,,,,,,,,,,,,,,0,1,1,4,1,,,,,,,,,,,,,,,,,,,,,,,,,,,,,,,,,,,,,,,,,,,,,,
156141,001,2022-11-20_23h49.34.751,Info_measure_main_exp,2022.2.2,Win32,164.4195988,,,,,,,,,,,,,,,,,,masks/mask_004.jpg,,,,,,,,,,,,,,,,,,,,,,,,,,,,,,,,,,,,,,,,,,,0,2,2,3,1,,,,,,,,,,,,,,,,,,,,,,,,,,,,,,,,,,,,,,,,,,,,,,
156141,001,2022-11-20_23h49.34.751,Info_measure_main_exp,2022.2.2,Win32,164.4195988,,,,,,,,,,,,,,,,,,masks/mask_003.jpg,,,,,,,,,,,,,,,,,,,,,,,,,,,,,,,,,,,,,,,,,,,0,3,3,2,1,,,,,,,,,,,,,,,,,,,,,,,,,,,,,,,,,,,,,,,,,,,,,,
156141,001,2022-11-20_23h49.34.751,Info_measure_main_exp,2022.2.2,Win32,164.4195988,,,,,,,,,,,,,,,,,,masks/mask_001.jpg,,,,,,,,,,,,,,,,,,,,,,,,,,,,,,,,,,,,,,,,,,,0,4,4,0,1,,,,,,,,,,,,,,,,,,,,,,,,,,,,,,,,,,,,,,,,,,,,,,
156141,001,2022-11-20_23h49.34.751,Info_measure_main_exp,2022.2.2,Win32,164.4195988,,,,,,,,,,,,,,,,,,masks/mask_003.jpg,,,,,,,,,,,,,,,,,,,,,,,,,,,,,,,,,,,,,,,,,,,,,,,,0,0,0,2,1,,,,,,,,,,,,,,,,,,,,,,,,,,,,,,,,,,,,,,,,,
156141,001,2022-11-20_23h49.34.751,Info_measure_main_exp,2022.2.2,Win32,164.4195988,,,,,,,,,,,,,,,,,,masks/mask_001.jpg,,,,,,,,,,,,,,,,,,,,,,,,,,,,,,,,,,,,,,,,,,,,,,,,0,1,1,0,1,,,,,,,,,,,,,,,,,,,,,,,,,,,,,,,,,,,,,,,,,
156141,001,2022-11-20_23h49.34.751,Info_measure_main_exp,2022.2.2,Win32,164.4195988,,,,,,,,,,,,,,,,,,masks/mask_004.jpg,,,,,,,,,,,,,,,,,,,,,,,,,,,,,,,,,,,,,,,,,,,,,,,,0,2,2,3,1,,,,,,,,,,,,,,,,,,,,,,,,,,,,,,,,,,,,,,,,,
156141,001,2022-11-20_23h49.34.751,Info_measure_main_exp,2022.2.2,Win32,164.4195988,,,,,,,,,,,,,,,,,,masks/mask_002.jpg,,,,,,,,,,,,,,,,,,,,,,,,,,,,,,,,,,,,,,,,,,,,,,,,0,3,3,1,1,,,,,,,,,,,,,,,,,,,,,,,,,,,,,,,,,,,,,,,,,
156141,001,2022-11-20_23h49.34.751,Info_measure_main_exp,2022.2.2,Win32,164.4195988,,,,,,,,,,,,,,,,,,masks/mask_005.jpg,,,,,,,,,,,,,,,,,,,,,,,,,,,,,,,,,,,,,,,,,,,,,,,,0,4,4,4,1,,,,,,,,,,,,,,,,,,,,,,,,,,,,,,,,,,,,,,,,,
156141,001,2022-11-20_23h49.34.751,Info_measure_main_exp,2022.2.2,Win32,164.4195988,,,,,,,,,,,,,,,,,,,,,,,,,,,,,,4,0.5334,1,,,,,,,,,,,,0,131,5,5,2082,2298,absent_patch/patch0002082.jpg,absent_patch/patch0002298.jpg,,,,,,,,,,,,,,,,,,,,0.077908218,-0.149946638,1,0,0,response3disk,22,0.009605123,-0.004802561,1,0,0,center_square,0,21,21,107,1,,,,,,,,,,,,,,,,,,,,,,,
156141,001,2022-11-20_23h49.34.751,Info_measure_main_exp,2022.2.2,Win32,164.4195988,,,,,,,,,,,,,,,,,,masks/mask_002.jpg,,,,,,,,,,,,,,,,,,,,,,,,,,,,,,,,,,,,,,,,,,,0,0,0,1,1,,,,,,,,,,,,,,,,,,,,,,,,,,,,,,,,,,,,,,,,,,,,,,
156141,001,2022-11-20_23h49.34.751,Info_measure_main_exp,2022.2.2,Win32,164.4195988,,,,,,,,,,,,,,,,,,masks/mask_005.jpg,,,,,,,,,,,,,,,,,,,,,,,,,,,,,,,,,,,,,,,,,,,0,1,1,4,1,,,,,,,,,,,,,,,,,,,,,,,,,,,,,,,,,,,,,,,,,,,,,,
156141,001,2022-11-20_23h49.34.751,Info_measure_main_exp,2022.2.2,Win32,164.4195988,,,,,,,,,,,,,,,,,,masks/mask_001.jpg,,,,,,,,,,,,,,,,,,,,,,,,,,,,,,,,,,,,,,,,,,,0,2,2,0,1,,,,,,,,,,,,,,,,,,,,,,,,,,,,,,,,,,,,,,,,,,,,,,
156141,001,2022-11-20_23h49.34.751,Info_measure_main_exp,2022.2.2,Win32,164.4195988,,,,,,,,,,,,,,,,,,masks/mask_003.jpg,,,,,,,,,,,,,,,,,,,,,,,,,,,,,,,,,,,,,,,,,,,0,3,3,2,1,,,,,,,,,,,,,,,,,,,,,,,,,,,,,,,,,,,,,,,,,,,,,,
156141,001,2022-11-20_23h49.34.751,Info_measure_main_exp,2022.2.2,Win32,164.4195988,,,,,,,,,,,,,,,,,,masks/mask_004.jpg,,,,,,,,,,,,,,,,,,,,,,,,,,,,,,,,,,,,,,,,,,,0,4,4,3,1,,,,,,,,,,,,,,,,,,,,,,,,,,,,,,,,,,,,,,,,,,,,,,
156141,001,2022-11-20_23h49.34.751,Info_measure_main_exp,2022.2.2,Win32,164.4195988,,,,,,,,,,,,,,,,,,masks/mask_003.jpg,,,,,,,,,,,,,,,,,,,,,,,,,,,,,,,,,,,,,,,,,,,,,,,,0,0,0,2,1,,,,,,,,,,,,,,,,,,,,,,,,,,,,,,,,,,,,,,,,,
156141,001,2022-11-20_23h49.34.751,Info_measure_main_exp,2022.2.2,Win32,164.4195988,,,,,,,,,,,,,,,,,,masks/mask_002.jpg,,,,,,,,,,,,,,,,,,,,,,,,,,,,,,,,,,,,,,,,,,,,,,,,0,1,1,1,1,,,,,,,,,,,,,,,,,,,,,,,,,,,,,,,,,,,,,,,,,
156141,001,2022-11-20_23h49.34.751,Info_measure_main_exp,2022.2.2,Win32,164.4195988,,,,,,,,,,,,,,,,,,masks/mask_004.jpg,,,,,,,,,,,,,,,,,,,,,,,,,,,,,,,,,,,,,,,,,,,,,,,,0,2,2,3,1,,,,,,,,,,,,,,,,,,,,,,,,,,,,,,,,,,,,,,,,,
156141,001,2022-11-20_23h49.34.751,Info_measure_main_exp,2022.2.2,Win32,164.4195988,,,,,,,,,,,,,,,,,,masks/mask_005.jpg,,,,,,,,,,,,,,,,,,,,,,,,,,,,,,,,,,,,,,,,,,,,,,,,0,3,3,4,1,,,,,,,,,,,,,,,,,,,,,,,,,,,,,,,,,,,,,,,,,
156141,001,2022-11-20_23h49.34.751,Info_measure_main_exp,2022.2.2,Win32,164.4195988,,,,,,,,,,,,,,,,,,masks/mask_001.jpg,,,,,,,,,,,,,,,,,,,,,,,,,,,,,,,,,,,,,,,,,,,,,,,,0,4,4,0,1,,,,,,,,,,,,,,,,,,,,,,,,,,,,,,,,,,,,,,,,,
156141,001,2022-11-20_23h49.34.751,Info_measure_main_exp,2022.2.2,Win32,164.4195988,,,,,,,,,,,,,,,,,,,,,,,,,,,,,,6,0.5276,1,,,,,,,,,,,,0,131,5,5,2274,2178,absent_patch/patch0002274.jpg,absent_patch/patch0002178.jpg,,,,,,,,,,,,,,,,,,,,0.137673426,0.037886873,1,0,0,response1disk,23,0.008537887,-0.003735326,1,0,0,center_square,0,22,22,117,1,,,,,,,,,,,,,,,,,,,,,,,
156141,001,2022-11-20_23h49.34.751,Info_measure_main_exp,2022.2.2,Win32,164.4195988,,,,,,,,,,,,,,,,,,masks/mask_004.jpg,,,,,,,,,,,,,,,,,,,,,,,,,,,,,,,,,,,,,,,,,,,0,0,0,3,1,,,,,,,,,,,,,,,,,,,,,,,,,,,,,,,,,,,,,,,,,,,,,,
156141,001,2022-11-20_23h49.34.751,Info_measure_main_exp,2022.2.2,Win32,164.4195988,,,,,,,,,,,,,,,,,,masks/mask_002.jpg,,,,,,,,,,,,,,,,,,,,,,,,,,,,,,,,,,,,,,,,,,,0,1,1,1,1,,,,,,,,,,,,,,,,,,,,,,,,,,,,,,,,,,,,,,,,,,,,,,
156141,001,2022-11-20_23h49.34.751,Info_measure_main_exp,2022.2.2,Win32,164.4195988,,,,,,,,,,,,,,,,,,masks/mask_005.jpg,,,,,,,,,,,,,,,,,,,,,,,,,,,,,,,,,,,,,,,,,,,0,2,2,4,1,,,,,,,,,,,,,,,,,,,,,,,,,,,,,,,,,,,,,,,,,,,,,,
156141,001,2022-11-20_23h49.34.751,Info_measure_main_exp,2022.2.2,Win32,164.4195988,,,,,,,,,,,,,,,,,,masks/mask_001.jpg,,,,,,,,,,,,,,,,,,,,,,,,,,,,,,,,,,,,,,,,,,,0,3,3,0,1,,,,,,,,,,,,,,,,,,,,,,,,,,,,,,,,,,,,,,,,,,,,,,
156141,001,2022-11-20_23h49.34.751,Info_measure_main_exp,2022.2.2,Win32,164.4195988,,,,,,,,,,,,,,,,,,masks/mask_003.jpg,,,,,,,,,,,,,,,,,,,,,,,,,,,,,,,,,,,,,,,,,,,0,4,4,2,1,,,,,,,,,,,,,,,,,,,,,,,,,,,,,,,,,,,,,,,,,,,,,,
156141,001,2022-11-20_23h49.34.751,Info_measure_main_exp,2022.2.2,Win32,164.4195988,,,,,,,,,,,,,,,,,,masks/mask_002.jpg,,,,,,,,,,,,,,,,,,,,,,,,,,,,,,,,,,,,,,,,,,,,,,,,0,0,0,1,1,,,,,,,,,,,,,,,,,,,,,,,,,,,,,,,,,,,,,,,,,
156141,001,2022-11-20_23h49.34.751,Info_measure_main_exp,2022.2.2,Win32,164.4195988,,,,,,,,,,,,,,,,,,masks/mask_003.jpg,,,,,,,,,,,,,,,,,,,,,,,,,,,,,,,,,,,,,,,,,,,,,,,,0,1,1,2,1,,,,,,,,,,,,,,,,,,,,,,,,,,,,,,,,,,,,,,,,,
156141,001,2022-11-20_23h49.34.751,Info_measure_main_exp,2022.2.2,Win32,164.4195988,,,,,,,,,,,,,,,,,,masks/mask_004.jpg,,,,,,,,,,,,,,,,,,,,,,,,,,,,,,,,,,,,,,,,,,,,,,,,0,2,2,3,1,,,,,,,,,,,,,,,,,,,,,,,,,,,,,,,,,,,,,,,,,
156141,001,2022-11-20_23h49.34.751,Info_measure_main_exp,2022.2.2,Win32,164.4195988,,,,,,,,,,,,,,,,,,masks/mask_005.jpg,,,,,,,,,,,,,,,,,,,,,,,,,,,,,,,,,,,,,,,,,,,,,,,,0,3,3,4,1,,,,,,,,,,,,,,,,,,,,,,,,,,,,,,,,,,,,,,,,,
156141,001,2022-11-20_23h49.34.751,Info_measure_main_exp,2022.2.2,Win32,164.4195988,,,,,,,,,,,,,,,,,,masks/mask_001.jpg,,,,,,,,,,,,,,,,,,,,,,,,,,,,,,,,,,,,,,,,,,,,,,,,0,4,4,0,1,,,,,,,,,,,,,,,,,,,,,,,,,,,,,,,,,,,,,,,,,
156141,001,2022-11-20_23h49.34.751,Info_measure_main_exp,2022.2.2,Win32,164.4195988,,,,,,,,,,,,,,,,,,,,,,,,,,,,,,7,0.5819,1,,,,,,,,,,,,0,131,5,5,1974,2166,absent_patch/patch0001974.jpg,absent_patch/patch0002166.jpg,,,,,,,,,,,,,,,,,,,,0.071504803,0.162753469,1,0,0,response1disk,24,-0.002134472,-0.004802561,1,0,0,center_square,0,23,23,77,1,,,,,,,,,,,,,,,,,,,,,,,
156141,001,2022-11-20_23h49.34.751,Info_measure_main_exp,2022.2.2,Win32,164.4195988,,,,,,,,,,,,,,,,,,masks/mask_005.jpg,,,,,,,,,,,,,,,,,,,,,,,,,,,,,,,,,,,,,,,,,,,0,0,0,4,1,,,,,,,,,,,,,,,,,,,,,,,,,,,,,,,,,,,,,,,,,,,,,,
156141,001,2022-11-20_23h49.34.751,Info_measure_main_exp,2022.2.2,Win32,164.4195988,,,,,,,,,,,,,,,,,,masks/mask_004.jpg,,,,,,,,,,,,,,,,,,,,,,,,,,,,,,,,,,,,,,,,,,,0,1,1,3,1,,,,,,,,,,,,,,,,,,,,,,,,,,,,,,,,,,,,,,,,,,,,,,
156141,001,2022-11-20_23h49.34.751,Info_measure_main_exp,2022.2.2,Win32,164.4195988,,,,,,,,,,,,,,,,,,masks/mask_002.jpg,,,,,,,,,,,,,,,,,,,,,,,,,,,,,,,,,,,,,,,,,,,0,2,2,1,1,,,,,,,,,,,,,,,,,,,,,,,,,,,,,,,,,,,,,,,,,,,,,,
156141,001,2022-11-20_23h49.34.751,Info_measure_main_exp,2022.2.2,Win32,164.4195988,,,,,,,,,,,,,,,,,,masks/mask_001.jpg,,,,,,,,,,,,,,,,,,,,,,,,,,,,,,,,,,,,,,,,,,,0,3,3,0,1,,,,,,,,,,,,,,,,,,,,,,,,,,,,,,,,,,,,,,,,,,,,,,
156141,001,2022-11-20_23h49.34.751,Info_measure_main_exp,2022.2.2,Win32,164.4195988,,,,,,,,,,,,,,,,,,masks/mask_003.jpg,,,,,,,,,,,,,,,,,,,,,,,,,,,,,,,,,,,,,,,,,,,0,4,4,2,1,,,,,,,,,,,,,,,,,,,,,,,,,,,,,,,,,,,,,,,,,,,,,,
156141,001,2022-11-20_23h49.34.751,Info_measure_main_exp,2022.2.2,Win32,164.4195988,,,,,,,,,,,,,,,,,,masks/mask_002.jpg,,,,,,,,,,,,,,,,,,,,,,,,,,,,,,,,,,,,,,,,,,,,,,,,0,0,0,1,1,,,,,,,,,,,,,,,,,,,,,,,,,,,,,,,,,,,,,,,,,
156141,001,2022-11-20_23h49.34.751,Info_measure_main_exp,2022.2.2,Win32,164.4195988,,,,,,,,,,,,,,,,,,masks/mask_005.jpg,,,,,,,,,,,,,,,,,,,,,,,,,,,,,,,,,,,,,,,,,,,,,,,,0,1,1,4,1,,,,,,,,,,,,,,,,,,,,,,,,,,,,,,,,,,,,,,,,,
156141,001,2022-11-20_23h49.34.751,Info_measure_main_exp,2022.2.2,Win32,164.4195988,,,,,,,,,,,,,,,,,,masks/mask_004.jpg,,,,,,,,,,,,,,,,,,,,,,,,,,,,,,,,,,,,,,,,,,,,,,,,0,2,2,3,1,,,,,,,,,,,,,,,,,,,,,,,,,,,,,,,,,,,,,,,,,
156141,001,2022-11-20_23h49.34.751,Info_measure_main_exp,2022.2.2,Win32,164.4195988,,,,,,,,,,,,,,,,,,masks/mask_003.jpg,,,,,,,,,,,,,,,,,,,,,,,,,,,,,,,,,,,,,,,,,,,,,,,,0,3,3,2,1,,,,,,,,,,,,,,,,,,,,,,,,,,,,,,,,,,,,,,,,,
156141,001,2022-11-20_23h49.34.751,Info_measure_main_exp,2022.2.2,Win32,164.4195988,,,,,,,,,,,,,,,,,,masks/mask_001.jpg,,,,,,,,,,,,,,,,,,,,,,,,,,,,,,,,,,,,,,,,,,,,,,,,0,4,4,0,1,,,,,,,,,,,,,,,,,,,,,,,,,,,,,,,,,,,,,,,,,
156141,001,2022-11-20_23h49.34.751,Info_measure_main_exp,2022.2.2,Win32,164.4195988,,,,,,,,,,,,,,,,,,,,,,,,,,,,,,1,0.6488,1,,,,,,,,,,,,0,131,5,5,2178,2178,absent_patch/patch0002178.jpg,absent_patch/patch0002178.jpg,,,,,,,,,,,,,,,,,,,,-0.159018143,0.056029883,1,0,0,response7disk,25,-0.007470651,0.00266809,1,0,0,center_square,0,24,24,98,1,,,,,,,,,,,,,,,,,,,,,,,
156141,001,2022-11-20_23h49.34.751,Info_measure_main_exp,2022.2.2,Win32,164.4195988,,,,,,,,,,,,,,,,,,masks/mask_005.jpg,,,,,,,,,,,,,,,,,,,,,,,,,,,,,,,,,,,,,,,,,,,0,0,0,4,1,,,,,,,,,,,,,,,,,,,,,,,,,,,,,,,,,,,,,,,,,,,,,,
156141,001,2022-11-20_23h49.34.751,Info_measure_main_exp,2022.2.2,Win32,164.4195988,,,,,,,,,,,,,,,,,,masks/mask_001.jpg,,,,,,,,,,,,,,,,,,,,,,,,,,,,,,,,,,,,,,,,,,,0,1,1,0,1,,,,,,,,,,,,,,,,,,,,,,,,,,,,,,,,,,,,,,,,,,,,,,
156141,001,2022-11-20_23h49.34.751,Info_measure_main_exp,2022.2.2,Win32,164.4195988,,,,,,,,,,,,,,,,,,masks/mask_002.jpg,,,,,,,,,,,,,,,,,,,,,,,,,,,,,,,,,,,,,,,,,,,0,2,2,1,1,,,,,,,,,,,,,,,,,,,,,,,,,,,,,,,,,,,,,,,,,,,,,,
156141,001,2022-11-20_23h49.34.751,Info_measure_main_exp,2022.2.2,Win32,164.4195988,,,,,,,,,,,,,,,,,,masks/mask_004.jpg,,,,,,,,,,,,,,,,,,,,,,,,,,,,,,,,,,,,,,,,,,,0,3,3,3,1,,,,,,,,,,,,,,,,,,,,,,,,,,,,,,,,,,,,,,,,,,,,,,
156141,001,2022-11-20_23h49.34.751,Info_measure_main_exp,2022.2.2,Win32,164.4195988,,,,,,,,,,,,,,,,,,masks/mask_003.jpg,,,,,,,,,,,,,,,,,,,,,,,,,,,,,,,,,,,,,,,,,,,0,4,4,2,1,,,,,,,,,,,,,,,,,,,,,,,,,,,,,,,,,,,,,,,,,,,,,,
156141,001,2022-11-20_23h49.34.751,Info_measure_main_exp,2022.2.2,Win32,164.4195988,,,,,,,,,,,,,,,,,,masks/mask_003.jpg,,,,,,,,,,,,,,,,,,,,,,,,,,,,,,,,,,,,,,,,,,,,,,,,0,0,0,2,1,,,,,,,,,,,,,,,,,,,,,,,,,,,,,,,,,,,,,,,,,
156141,001,2022-11-20_23h49.34.751,Info_measure_main_exp,2022.2.2,Win32,164.4195988,,,,,,,,,,,,,,,,,,masks/mask_001.jpg,,,,,,,,,,,,,,,,,,,,,,,,,,,,,,,,,,,,,,,,,,,,,,,,0,1,1,0,1,,,,,,,,,,,,,,,,,,,,,,,,,,,,,,,,,,,,,,,,,
156141,001,2022-11-20_23h49.34.751,Info_measure_main_exp,2022.2.2,Win32,164.4195988,,,,,,,,,,,,,,,,,,masks/mask_005.jpg,,,,,,,,,,,,,,,,,,,,,,,,,,,,,,,,,,,,,,,,,,,,,,,,0,2,2,4,1,,,,,,,,,,,,,,,,,,,,,,,,,,,,,,,,,,,,,,,,,
156141,001,2022-11-20_23h49.34.751,Info_measure_main_exp,2022.2.2,Win32,164.4195988,,,,,,,,,,,,,,,,,,masks/mask_004.jpg,,,,,,,,,,,,,,,,,,,,,,,,,,,,,,,,,,,,,,,,,,,,,,,,0,3,3,3,1,,,,,,,,,,,,,,,,,,,,,,,,,,,,,,,,,,,,,,,,,
156141,001,2022-11-20_23h49.34.751,Info_measure_main_exp,2022.2.2,Win32,164.4195988,,,,,,,,,,,,,,,,,,masks/mask_002.jpg,,,,,,,,,,,,,,,,,,,,,,,,,,,,,,,,,,,,,,,,,,,,,,,,0,4,4,1,1,,,,,,,,,,,,,,,,,,,,,,,,,,,,,,,,,,,,,,,,,
156141,001,2022-11-20_23h49.34.751,Info_measure_main_exp,2022.2.2,Win32,164.4195988,,,,,,,,,,,,,,,,,,,,,,,,,,,,,,1,0.497,1,,,,,,,,,,,,0,131,5,5,1986,2274,absent_patch/patch0001986.jpg,absent_patch/patch0002274.jpg,,,,,,,,,,,,,,,,,,,,-0.106723586,0.029348986,1,0,0,response7disk,26,0.007470651,0.00266809,1,0,0,center_square,0,25,25,7,1,,,,,,,,,,,,,,,,,,,,,,,
156141,001,2022-11-20_23h49.34.751,Info_measure_main_exp,2022.2.2,Win32,164.4195988,,,,,,,,,,,,,,,,,,masks/mask_001.jpg,,,,,,,,,,,,,,,,,,,,,,,,,,,,,,,,,,,,,,,,,,,0,0,0,0,1,,,,,,,,,,,,,,,,,,,,,,,,,,,,,,,,,,,,,,,,,,,,,,
156141,001,2022-11-20_23h49.34.751,Info_measure_main_exp,2022.2.2,Win32,164.4195988,,,,,,,,,,,,,,,,,,masks/mask_002.jpg,,,,,,,,,,,,,,,,,,,,,,,,,,,,,,,,,,,,,,,,,,,0,1,1,1,1,,,,,,,,,,,,,,,,,,,,,,,,,,,,,,,,,,,,,,,,,,,,,,
156141,001,2022-11-20_23h49.34.751,Info_measure_main_exp,2022.2.2,Win32,164.4195988,,,,,,,,,,,,,,,,,,masks/mask_005.jpg,,,,,,,,,,,,,,,,,,,,,,,,,,,,,,,,,,,,,,,,,,,0,2,2,4,1,,,,,,,,,,,,,,,,,,,,,,,,,,,,,,,,,,,,,,,,,,,,,,
156141,001,2022-11-20_23h49.34.751,Info_measure_main_exp,2022.2.2,Win32,164.4195988,,,,,,,,,,,,,,,,,,masks/mask_004.jpg,,,,,,,,,,,,,,,,,,,,,,,,,,,,,,,,,,,,,,,,,,,0,3,3,3,1,,,,,,,,,,,,,,,,,,,,,,,,,,,,,,,,,,,,,,,,,,,,,,
156141,001,2022-11-20_23h49.34.751,Info_measure_main_exp,2022.2.2,Win32,164.4195988,,,,,,,,,,,,,,,,,,masks/mask_003.jpg,,,,,,,,,,,,,,,,,,,,,,,,,,,,,,,,,,,,,,,,,,,0,4,4,2,1,,,,,,,,,,,,,,,,,,,,,,,,,,,,,,,,,,,,,,,,,,,,,,
156141,001,2022-11-20_23h49.34.751,Info_measure_main_exp,2022.2.2,Win32,164.4195988,,,,,,,,,,,,,,,,,,masks/mask_002.jpg,,,,,,,,,,,,,,,,,,,,,,,,,,,,,,,,,,,,,,,,,,,,,,,,0,0,0,1,1,,,,,,,,,,,,,,,,,,,,,,,,,,,,,,,,,,,,,,,,,
156141,001,2022-11-20_23h49.34.751,Info_measure_main_exp,2022.2.2,Win32,164.4195988,,,,,,,,,,,,,,,,,,masks/mask_004.jpg,,,,,,,,,,,,,,,,,,,,,,,,,,,,,,,,,,,,,,,,,,,,,,,,0,1,1,3,1,,,,,,,,,,,,,,,,,,,,,,,,,,,,,,,,,,,,,,,,,
156141,001,2022-11-20_23h49.34.751,Info_measure_main_exp,2022.2.2,Win32,164.4195988,,,,,,,,,,,,,,,,,,masks/mask_001.jpg,,,,,,,,,,,,,,,,,,,,,,,,,,,,,,,,,,,,,,,,,,,,,,,,0,2,2,0,1,,,,,,,,,,,,,,,,,,,,,,,,,,,,,,,,,,,,,,,,,
156141,001,2022-11-20_23h49.34.751,Info_measure_main_exp,2022.2.2,Win32,164.4195988,,,,,,,,,,,,,,,,,,masks/mask_005.jpg,,,,,,,,,,,,,,,,,,,,,,,,,,,,,,,,,,,,,,,,,,,,,,,,0,3,3,4,1,,,,,,,,,,,,,,,,,,,,,,,,,,,,,,,,,,,,,,,,,
156141,001,2022-11-20_23h49.34.751,Info_measure_main_exp,2022.2.2,Win32,164.4195988,,,,,,,,,,,,,,,,,,masks/mask_003.jpg,,,,,,,,,,,,,,,,,,,,,,,,,,,,,,,,,,,,,,,,,,,,,,,,0,4,4,2,1,,,,,,,,,,,,,,,,,,,,,,,,,,,,,,,,,,,,,,,,,
156141,001,2022-11-20_23h49.34.751,Info_measure_main_exp,2022.2.2,Win32,164.4195988,,,,,,,,,,,,,,,,,,,,,,,,,,,,,,4,0.394,1,,,,,,,,,,,,0,131,5,5,2238,2214,absent_patch/patch0002238.jpg,absent_patch/patch0002214.jpg,,,,,,,,,,,,,,,,,,,,0.048025614,-0.178762006,1,0,0,response3disk,27,0.008537887,-0.006937033,1,0,0,center_square,0,26,26,81,1,,,,,,,,,,,,,,,,,,,,,,,
156141,001,2022-11-20_23h49.34.751,Info_measure_main_exp,2022.2.2,Win32,164.4195988,,,,,,,,,,,,,,,,,,masks/mask_005.jpg,,,,,,,,,,,,,,,,,,,,,,,,,,,,,,,,,,,,,,,,,,,0,0,0,4,1,,,,,,,,,,,,,,,,,,,,,,,,,,,,,,,,,,,,,,,,,,,,,,
156141,001,2022-11-20_23h49.34.751,Info_measure_main_exp,2022.2.2,Win32,164.4195988,,,,,,,,,,,,,,,,,,masks/mask_004.jpg,,,,,,,,,,,,,,,,,,,,,,,,,,,,,,,,,,,,,,,,,,,0,1,1,3,1,,,,,,,,,,,,,,,,,,,,,,,,,,,,,,,,,,,,,,,,,,,,,,
156141,001,2022-11-20_23h49.34.751,Info_measure_main_exp,2022.2.2,Win32,164.4195988,,,,,,,,,,,,,,,,,,masks/mask_002.jpg,,,,,,,,,,,,,,,,,,,,,,,,,,,,,,,,,,,,,,,,,,,0,2,2,1,1,,,,,,,,,,,,,,,,,,,,,,,,,,,,,,,,,,,,,,,,,,,,,,
156141,001,2022-11-20_23h49.34.751,Info_measure_main_exp,2022.2.2,Win32,164.4195988,,,,,,,,,,,,,,,,,,masks/mask_003.jpg,,,,,,,,,,,,,,,,,,,,,,,,,,,,,,,,,,,,,,,,,,,0,3,3,2,1,,,,,,,,,,,,,,,,,,,,,,,,,,,,,,,,,,,,,,,,,,,,,,
156141,001,2022-11-20_23h49.34.751,Info_measure_main_exp,2022.2.2,Win32,164.4195988,,,,,,,,,,,,,,,,,,masks/mask_001.jpg,,,,,,,,,,,,,,,,,,,,,,,,,,,,,,,,,,,,,,,,,,,0,4,4,0,1,,,,,,,,,,,,,,,,,,,,,,,,,,,,,,,,,,,,,,,,,,,,,,
156141,001,2022-11-20_23h49.34.751,Info_measure_main_exp,2022.2.2,Win32,164.4195988,,,,,,,,,,,,,,,,,,masks/mask_005.jpg,,,,,,,,,,,,,,,,,,,,,,,,,,,,,,,,,,,,,,,,,,,,,,,,0,0,0,4,1,,,,,,,,,,,,,,,,,,,,,,,,,,,,,,,,,,,,,,,,,
156141,001,2022-11-20_23h49.34.751,Info_measure_main_exp,2022.2.2,Win32,164.4195988,,,,,,,,,,,,,,,,,,masks/mask_004.jpg,,,,,,,,,,,,,,,,,,,,,,,,,,,,,,,,,,,,,,,,,,,,,,,,0,1,1,3,1,,,,,,,,,,,,,,,,,,,,,,,,,,,,,,,,,,,,,,,,,
156141,001,2022-11-20_23h49.34.751,Info_measure_main_exp,2022.2.2,Win32,164.4195988,,,,,,,,,,,,,,,,,,masks/mask_001.jpg,,,,,,,,,,,,,,,,,,,,,,,,,,,,,,,,,,,,,,,,,,,,,,,,0,2,2,0,1,,,,,,,,,,,,,,,,,,,,,,,,,,,,,,,,,,,,,,,,,
156141,001,2022-11-20_23h49.34.751,Info_measure_main_exp,2022.2.2,Win32,164.4195988,,,,,,,,,,,,,,,,,,masks/mask_003.jpg,,,,,,,,,,,,,,,,,,,,,,,,,,,,,,,,,,,,,,,,,,,,,,,,0,3,3,2,1,,,,,,,,,,,,,,,,,,,,,,,,,,,,,,,,,,,,,,,,,
156141,001,2022-11-20_23h49.34.751,Info_measure_main_exp,2022.2.2,Win32,164.4195988,,,,,,,,,,,,,,,,,,masks/mask_002.jpg,,,,,,,,,,,,,,,,,,,,,,,,,,,,,,,,,,,,,,,,,,,,,,,,0,4,4,1,1,,,,,,,,,,,,,,,,,,,,,,,,,,,,,,,,,,,,,,,,,
156141,001,2022-11-20_23h49.34.751,Info_measure_main_exp,2022.2.2,Win32,164.4195988,,,,,,,,,,,,,,,,,,,,,,,,,,,,,,5,0.3699,1,,,,,,,,,,,,0,131,5,5,2274,2142,absent_patch/patch0002274.jpg,absent_patch/patch0002142.jpg,,,,,,,,,,,,,,,,,,,,0.187833511,-0.070971185,1,0,0,response3disk,28,-0.003201708,-0.016542156,1,0,0,center_square,0,27,27,75,1,,,,,,,,,,,,,,,,,,,,,,,
156141,001,2022-11-20_23h49.34.751,Info_measure_main_exp,2022.2.2,Win32,164.4195988,,,,,,,,,,,,,,,,,,masks/mask_003.jpg,,,,,,,,,,,,,,,,,,,,,,,,,,,,,,,,,,,,,,,,,,,0,0,0,2,1,,,,,,,,,,,,,,,,,,,,,,,,,,,,,,,,,,,,,,,,,,,,,,
156141,001,2022-11-20_23h49.34.751,Info_measure_main_exp,2022.2.2,Win32,164.4195988,,,,,,,,,,,,,,,,,,masks/mask_004.jpg,,,,,,,,,,,,,,,,,,,,,,,,,,,,,,,,,,,,,,,,,,,0,1,1,3,1,,,,,,,,,,,,,,,,,,,,,,,,,,,,,,,,,,,,,,,,,,,,,,
156141,001,2022-11-20_23h49.34.751,Info_measure_main_exp,2022.2.2,Win32,164.4195988,,,,,,,,,,,,,,,,,,masks/mask_001.jpg,,,,,,,,,,,,,,,,,,,,,,,,,,,,,,,,,,,,,,,,,,,0,2,2,0,1,,,,,,,,,,,,,,,,,,,,,,,,,,,,,,,,,,,,,,,,,,,,,,
156141,001,2022-11-20_23h49.34.751,Info_measure_main_exp,2022.2.2,Win32,164.4195988,,,,,,,,,,,,,,,,,,masks/mask_002.jpg,,,,,,,,,,,,,,,,,,,,,,,,,,,,,,,,,,,,,,,,,,,0,3,3,1,1,,,,,,,,,,,,,,,,,,,,,,,,,,,,,,,,,,,,,,,,,,,,,,
156141,001,2022-11-20_23h49.34.751,Info_measure_main_exp,2022.2.2,Win32,164.4195988,,,,,,,,,,,,,,,,,,masks/mask_005.jpg,,,,,,,,,,,,,,,,,,,,,,,,,,,,,,,,,,,,,,,,,,,0,4,4,4,1,,,,,,,,,,,,,,,,,,,,,,,,,,,,,,,,,,,,,,,,,,,,,,
156141,001,2022-11-20_23h49.34.751,Info_measure_main_exp,2022.2.2,Win32,164.4195988,,,,,,,,,,,,,,,,,,masks/mask_003.jpg,,,,,,,,,,,,,,,,,,,,,,,,,,,,,,,,,,,,,,,,,,,,,,,,0,0,0,2,1,,,,,,,,,,,,,,,,,,,,,,,,,,,,,,,,,,,,,,,,,
156141,001,2022-11-20_23h49.34.751,Info_measure_main_exp,2022.2.2,Win32,164.4195988,,,,,,,,,,,,,,,,,,masks/mask_004.jpg,,,,,,,,,,,,,,,,,,,,,,,,,,,,,,,,,,,,,,,,,,,,,,,,0,1,1,3,1,,,,,,,,,,,,,,,,,,,,,,,,,,,,,,,,,,,,,,,,,
156141,001,2022-11-20_23h49.34.751,Info_measure_main_exp,2022.2.2,Win32,164.4195988,,,,,,,,,,,,,,,,,,masks/mask_001.jpg,,,,,,,,,,,,,,,,,,,,,,,,,,,,,,,,,,,,,,,,,,,,,,,,0,2,2,0,1,,,,,,,,,,,,,,,,,,,,,,,,,,,,,,,,,,,,,,,,,
156141,001,2022-11-20_23h49.34.751,Info_measure_main_exp,2022.2.2,Win32,164.4195988,,,,,,,,,,,,,,,,,,masks/mask_002.jpg,,,,,,,,,,,,,,,,,,,,,,,,,,,,,,,,,,,,,,,,,,,,,,,,0,3,3,1,1,,,,,,,,,,,,,,,,,,,,,,,,,,,,,,,,,,,,,,,,,
156141,001,2022-11-20_23h49.34.751,Info_measure_main_exp,2022.2.2,Win32,164.4195988,,,,,,,,,,,,,,,,,,masks/mask_005.jpg,,,,,,,,,,,,,,,,,,,,,,,,,,,,,,,,,,,,,,,,,,,,,,,,0,4,4,4,1,,,,,,,,,,,,,,,,,,,,,,,,,,,,,,,,,,,,,,,,,
156141,001,2022-11-20_23h49.34.751,Info_measure_main_exp,2022.2.2,Win32,164.4195988,,,,,,,,,,,,,,,,,,,,,,,,,,,,,,3,0.5216,1,,,,,,,,,,,,0,131,5,5,2082,2166,absent_patch/patch0002082.jpg,absent_patch/patch0002166.jpg,,,,,,,,,,,,,,,,,,,,-0.066168623,-0.156350053,1,0,0,response5disk,29,-0.01280683,0.018676628,1,0,0,center_square,0,28,28,43,1,,,,,,,,,,,,,,,,,,,,,,,
156141,001,2022-11-20_23h49.34.751,Info_measure_main_exp,2022.2.2,Win32,164.4195988,,,,,,,,,,,,,,,,,,masks/mask_003.jpg,,,,,,,,,,,,,,,,,,,,,,,,,,,,,,,,,,,,,,,,,,,0,0,0,2,1,,,,,,,,,,,,,,,,,,,,,,,,,,,,,,,,,,,,,,,,,,,,,,
156141,001,2022-11-20_23h49.34.751,Info_measure_main_exp,2022.2.2,Win32,164.4195988,,,,,,,,,,,,,,,,,,masks/mask_002.jpg,,,,,,,,,,,,,,,,,,,,,,,,,,,,,,,,,,,,,,,,,,,0,1,1,1,1,,,,,,,,,,,,,,,,,,,,,,,,,,,,,,,,,,,,,,,,,,,,,,
156141,001,2022-11-20_23h49.34.751,Info_measure_main_exp,2022.2.2,Win32,164.4195988,,,,,,,,,,,,,,,,,,masks/mask_001.jpg,,,,,,,,,,,,,,,,,,,,,,,,,,,,,,,,,,,,,,,,,,,0,2,2,0,1,,,,,,,,,,,,,,,,,,,,,,,,,,,,,,,,,,,,,,,,,,,,,,
156141,001,2022-11-20_23h49.34.751,Info_measure_main_exp,2022.2.2,Win32,164.4195988,,,,,,,,,,,,,,,,,,masks/mask_005.jpg,,,,,,,,,,,,,,,,,,,,,,,,,,,,,,,,,,,,,,,,,,,0,3,3,4,1,,,,,,,,,,,,,,,,,,,,,,,,,,,,,,,,,,,,,,,,,,,,,,
156141,001,2022-11-20_23h49.34.751,Info_measure_main_exp,2022.2.2,Win32,164.4195988,,,,,,,,,,,,,,,,,,masks/mask_004.jpg,,,,,,,,,,,,,,,,,,,,,,,,,,,,,,,,,,,,,,,,,,,0,4,4,3,1,,,,,,,,,,,,,,,,,,,,,,,,,,,,,,,,,,,,,,,,,,,,,,
156141,001,2022-11-20_23h49.34.751,Info_measure_main_exp,2022.2.2,Win32,164.4195988,,,,,,,,,,,,,,,,,,masks/mask_003.jpg,,,,,,,,,,,,,,,,,,,,,,,,,,,,,,,,,,,,,,,,,,,,,,,,0,0,0,2,1,,,,,,,,,,,,,,,,,,,,,,,,,,,,,,,,,,,,,,,,,
156141,001,2022-11-20_23h49.34.751,Info_measure_main_exp,2022.2.2,Win32,164.4195988,,,,,,,,,,,,,,,,,,masks/mask_004.jpg,,,,,,,,,,,,,,,,,,,,,,,,,,,,,,,,,,,,,,,,,,,,,,,,0,1,1,3,1,,,,,,,,,,,,,,,,,,,,,,,,,,,,,,,,,,,,,,,,,
156141,001,2022-11-20_23h49.34.751,Info_measure_main_exp,2022.2.2,Win32,164.4195988,,,,,,,,,,,,,,,,,,masks/mask_002.jpg,,,,,,,,,,,,,,,,,,,,,,,,,,,,,,,,,,,,,,,,,,,,,,,,0,2,2,1,1,,,,,,,,,,,,,,,,,,,,,,,,,,,,,,,,,,,,,,,,,
156141,001,2022-11-20_23h49.34.751,Info_measure_main_exp,2022.2.2,Win32,164.4195988,,,,,,,,,,,,,,,,,,masks/mask_001.jpg,,,,,,,,,,,,,,,,,,,,,,,,,,,,,,,,,,,,,,,,,,,,,,,,0,3,3,0,1,,,,,,,,,,,,,,,,,,,,,,,,,,,,,,,,,,,,,,,,,
156141,001,2022-11-20_23h49.34.751,Info_measure_main_exp,2022.2.2,Win32,164.4195988,,,,,,,,,,,,,,,,,,masks/mask_005.jpg,,,,,,,,,,,,,,,,,,,,,,,,,,,,,,,,,,,,,,,,,,,,,,,,0,4,4,4,1,,,,,,,,,,,,,,,,,,,,,,,,,,,,,,,,,,,,,,,,,
156141,001,2022-11-20_23h49.34.751,Info_measure_main_exp,2022.2.2,Win32,164.4195988,,,,,,,,,,,,,,,,,,,,,,,,,,,,,,6,0.6549,1,,,,,,,,,,,,1,131,5,5,2298,1,absent_patch/patch0002298.jpg,present_patch/cong_131_5_a.jpg,,,,,,,,,,,,,,,,,,,,0.175026681,0.061366062,1,0,0,response1disk,30,0.016008538,0.003735326,1,0,0,center_square,0,29,29,45,1,,,,,,,,,,,,,,,,,,,,,,,
156141,001,2022-11-20_23h49.34.751,Info_measure_main_exp,2022.2.2,Win32,164.4195988,,,,,,,,,,,,,,,,,,masks/mask_002.jpg,,,,,,,,,,,,,,,,,,,,,,,,,,,,,,,,,,,,,,,,,,,0,0,0,1,1,,,,,,,,,,,,,,,,,,,,,,,,,,,,,,,,,,,,,,,,,,,,,,
156141,001,2022-11-20_23h49.34.751,Info_measure_main_exp,2022.2.2,Win32,164.4195988,,,,,,,,,,,,,,,,,,masks/mask_001.jpg,,,,,,,,,,,,,,,,,,,,,,,,,,,,,,,,,,,,,,,,,,,0,1,1,0,1,,,,,,,,,,,,,,,,,,,,,,,,,,,,,,,,,,,,,,,,,,,,,,
156141,001,2022-11-20_23h49.34.751,Info_measure_main_exp,2022.2.2,Win32,164.4195988,,,,,,,,,,,,,,,,,,masks/mask_005.jpg,,,,,,,,,,,,,,,,,,,,,,,,,,,,,,,,,,,,,,,,,,,0,2,2,4,1,,,,,,,,,,,,,,,,,,,,,,,,,,,,,,,,,,,,,,,,,,,,,,
156141,001,2022-11-20_23h49.34.751,Info_measure_main_exp,2022.2.2,Win32,164.4195988,,,,,,,,,,,,,,,,,,masks/mask_003.jpg,,,,,,,,,,,,,,,,,,,,,,,,,,,,,,,,,,,,,,,,,,,0,3,3,2,1,,,,,,,,,,,,,,,,,,,,,,,,,,,,,,,,,,,,,,,,,,,,,,
156141,001,2022-11-20_23h49.34.751,Info_measure_main_exp,2022.2.2,Win32,164.4195988,,,,,,,,,,,,,,,,,,masks/mask_004.jpg,,,,,,,,,,,,,,,,,,,,,,,,,,,,,,,,,,,,,,,,,,,0,4,4,3,1,,,,,,,,,,,,,,,,,,,,,,,,,,,,,,,,,,,,,,,,,,,,,,
156141,001,2022-11-20_23h49.34.751,Info_measure_main_exp,2022.2.2,Win32,164.4195988,,,,,,,,,,,,,,,,,,masks/mask_004.jpg,,,,,,,,,,,,,,,,,,,,,,,,,,,,,,,,,,,,,,,,,,,,,,,,0,0,0,3,1,,,,,,,,,,,,,,,,,,,,,,,,,,,,,,,,,,,,,,,,,
156141,001,2022-11-20_23h49.34.751,Info_measure_main_exp,2022.2.2,Win32,164.4195988,,,,,,,,,,,,,,,,,,masks/mask_005.jpg,,,,,,,,,,,,,,,,,,,,,,,,,,,,,,,,,,,,,,,,,,,,,,,,0,1,1,4,1,,,,,,,,,,,,,,,,,,,,,,,,,,,,,,,,,,,,,,,,,
156141,001,2022-11-20_23h49.34.751,Info_measure_main_exp,2022.2.2,Win32,164.4195988,,,,,,,,,,,,,,,,,,masks/mask_001.jpg,,,,,,,,,,,,,,,,,,,,,,,,,,,,,,,,,,,,,,,,,,,,,,,,0,2,2,0,1,,,,,,,,,,,,,,,,,,,,,,,,,,,,,,,,,,,,,,,,,
156141,001,2022-11-20_23h49.34.751,Info_measure_main_exp,2022.2.2,Win32,164.4195988,,,,,,,,,,,,,,,,,,masks/mask_003.jpg,,,,,,,,,,,,,,,,,,,,,,,,,,,,,,,,,,,,,,,,,,,,,,,,0,3,3,2,1,,,,,,,,,,,,,,,,,,,,,,,,,,,,,,,,,,,,,,,,,
156141,001,2022-11-20_23h49.34.751,Info_measure_main_exp,2022.2.2,Win32,164.4195988,,,,,,,,,,,,,,,,,,masks/mask_002.jpg,,,,,,,,,,,,,,,,,,,,,,,,,,,,,,,,,,,,,,,,,,,,,,,,0,4,4,1,1,,,,,,,,,,,,,,,,,,,,,,,,,,,,,,,,,,,,,,,,,
156141,001,2022-11-20_23h49.34.751,Info_measure_main_exp,2022.2.2,Win32,164.4195988,,,,,,,,,,,,,,,,,,,,,,,,,,,,,,7,0.4182,1,,,,,,,,,,,,0,131,5,5,2190,1986,absent_patch/patch0002190.jpg,absent_patch/patch0001986.jpg,,,,,,,,,,,,,,,,,,,,0.040554963,0.138207044,1,0,0,response1disk,31,-0.005336179,0.009071505,1,0,0,center_square,0,30,30,111,1,,,,,,,,,,,,,,,,,,,,,,,
156141,001,2022-11-20_23h49.34.751,Info_measure_main_exp,2022.2.2,Win32,164.4195988,,,,,,,,,,,,,,,,,,masks/mask_003.jpg,,,,,,,,,,,,,,,,,,,,,,,,,,,,,,,,,,,,,,,,,,,0,0,0,2,1,,,,,,,,,,,,,,,,,,,,,,,,,,,,,,,,,,,,,,,,,,,,,,
156141,001,2022-11-20_23h49.34.751,Info_measure_main_exp,2022.2.2,Win32,164.4195988,,,,,,,,,,,,,,,,,,masks/mask_001.jpg,,,,,,,,,,,,,,,,,,,,,,,,,,,,,,,,,,,,,,,,,,,0,1,1,0,1,,,,,,,,,,,,,,,,,,,,,,,,,,,,,,,,,,,,,,,,,,,,,,
156141,001,2022-11-20_23h49.34.751,Info_measure_main_exp,2022.2.2,Win32,164.4195988,,,,,,,,,,,,,,,,,,masks/mask_004.jpg,,,,,,,,,,,,,,,,,,,,,,,,,,,,,,,,,,,,,,,,,,,0,2,2,3,1,,,,,,,,,,,,,,,,,,,,,,,,,,,,,,,,,,,,,,,,,,,,,,
156141,001,2022-11-20_23h49.34.751,Info_measure_main_exp,2022.2.2,Win32,164.4195988,,,,,,,,,,,,,,,,,,masks/mask_002.jpg,,,,,,,,,,,,,,,,,,,,,,,,,,,,,,,,,,,,,,,,,,,0,3,3,1,1,,,,,,,,,,,,,,,,,,,,,,,,,,,,,,,,,,,,,,,,,,,,,,
156141,001,2022-11-20_23h49.34.751,Info_measure_main_exp,2022.2.2,Win32,164.4195988,,,,,,,,,,,,,,,,,,masks/mask_005.jpg,,,,,,,,,,,,,,,,,,,,,,,,,,,,,,,,,,,,,,,,,,,0,4,4,4,1,,,,,,,,,,,,,,,,,,,,,,,,,,,,,,,,,,,,,,,,,,,,,,
156141,001,2022-11-20_23h49.34.751,Info_measure_main_exp,2022.2.2,Win32,164.4195988,,,,,,,,,,,,,,,,,,masks/mask_002.jpg,,,,,,,,,,,,,,,,,,,,,,,,,,,,,,,,,,,,,,,,,,,,,,,,0,0,0,1,1,,,,,,,,,,,,,,,,,,,,,,,,,,,,,,,,,,,,,,,,,
156141,001,2022-11-20_23h49.34.751,Info_measure_main_exp,2022.2.2,Win32,164.4195988,,,,,,,,,,,,,,,,,,masks/mask_004.jpg,,,,,,,,,,,,,,,,,,,,,,,,,,,,,,,,,,,,,,,,,,,,,,,,0,1,1,3,1,,,,,,,,,,,,,,,,,,,,,,,,,,,,,,,,,,,,,,,,,
156141,001,2022-11-20_23h49.34.751,Info_measure_main_exp,2022.2.2,Win32,164.4195988,,,,,,,,,,,,,,,,,,masks/mask_001.jpg,,,,,,,,,,,,,,,,,,,,,,,,,,,,,,,,,,,,,,,,,,,,,,,,0,2,2,0,1,,,,,,,,,,,,,,,,,,,,,,,,,,,,,,,,,,,,,,,,,
156141,001,2022-11-20_23h49.34.751,Info_measure_main_exp,2022.2.2,Win32,164.4195988,,,,,,,,,,,,,,,,,,masks/mask_003.jpg,,,,,,,,,,,,,,,,,,,,,,,,,,,,,,,,,,,,,,,,,,,,,,,,0,3,3,2,1,,,,,,,,,,,,,,,,,,,,,,,,,,,,,,,,,,,,,,,,,
156141,001,2022-11-20_23h49.34.751,Info_measure_main_exp,2022.2.2,Win32,164.4195988,,,,,,,,,,,,,,,,,,masks/mask_005.jpg,,,,,,,,,,,,,,,,,,,,,,,,,,,,,,,,,,,,,,,,,,,,,,,,0,4,4,4,1,,,,,,,,,,,,,,,,,,,,,,,,,,,,,,,,,,,,,,,,,
156141,001,2022-11-20_23h49.34.751,Info_measure_main_exp,2022.2.2,Win32,164.4195988,,,,,,,,,,,,,,,,,,,,,,,,,,,,,,4,0.6979,1,,,,,,,,,,,,1,131,5,5,1,2178,present_patch/cong_131_5_a.jpg,absent_patch/patch0002178.jpg,,,,,,,,,,,,,,,,,,,,0.050160085,-0.1339381,1,0,0,response3disk,32,0.006403415,0.008004269,1,0,0,center_square,0,31,31,40,1,,,,,,,,,,,,,,,,,,,,,,,
156141,001,2022-11-20_23h49.34.751,Info_measure_main_exp,2022.2.2,Win32,164.4195988,,,,,,,,,,,,,,,,,,masks/mask_004.jpg,,,,,,,,,,,,,,,,,,,,,,,,,,,,,,,,,,,,,,,,,,,0,0,0,3,1,,,,,,,,,,,,,,,,,,,,,,,,,,,,,,,,,,,,,,,,,,,,,,
156141,001,2022-11-20_23h49.34.751,Info_measure_main_exp,2022.2.2,Win32,164.4195988,,,,,,,,,,,,,,,,,,masks/mask_002.jpg,,,,,,,,,,,,,,,,,,,,,,,,,,,,,,,,,,,,,,,,,,,0,1,1,1,1,,,,,,,,,,,,,,,,,,,,,,,,,,,,,,,,,,,,,,,,,,,,,,
156141,001,2022-11-20_23h49.34.751,Info_measure_main_exp,2022.2.2,Win32,164.4195988,,,,,,,,,,,,,,,,,,masks/mask_003.jpg,,,,,,,,,,,,,,,,,,,,,,,,,,,,,,,,,,,,,,,,,,,0,2,2,2,1,,,,,,,,,,,,,,,,,,,,,,,,,,,,,,,,,,,,,,,,,,,,,,
156141,001,2022-11-20_23h49.34.751,Info_measure_main_exp,2022.2.2,Win32,164.4195988,,,,,,,,,,,,,,,,,,masks/mask_005.jpg,,,,,,,,,,,,,,,,,,,,,,,,,,,,,,,,,,,,,,,,,,,0,3,3,4,1,,,,,,,,,,,,,,,,,,,,,,,,,,,,,,,,,,,,,,,,,,,,,,
156141,001,2022-11-20_23h49.34.751,Info_measure_main_exp,2022.2.2,Win32,164.4195988,,,,,,,,,,,,,,,,,,masks/mask_001.jpg,,,,,,,,,,,,,,,,,,,,,,,,,,,,,,,,,,,,,,,,,,,0,4,4,0,1,,,,,,,,,,,,,,,,,,,,,,,,,,,,,,,,,,,,,,,,,,,,,,
156141,001,2022-11-20_23h49.34.751,Info_measure_main_exp,2022.2.2,Win32,164.4195988,,,,,,,,,,,,,,,,,,masks/mask_001.jpg,,,,,,,,,,,,,,,,,,,,,,,,,,,,,,,,,,,,,,,,,,,,,,,,0,0,0,0,1,,,,,,,,,,,,,,,,,,,,,,,,,,,,,,,,,,,,,,,,,
156141,001,2022-11-20_23h49.34.751,Info_measure_main_exp,2022.2.2,Win32,164.4195988,,,,,,,,,,,,,,,,,,masks/mask_005.jpg,,,,,,,,,,,,,,,,,,,,,,,,,,,,,,,,,,,,,,,,,,,,,,,,0,1,1,4,1,,,,,,,,,,,,,,,,,,,,,,,,,,,,,,,,,,,,,,,,,
156141,001,2022-11-20_23h49.34.751,Info_measure_main_exp,2022.2.2,Win32,164.4195988,,,,,,,,,,,,,,,,,,masks/mask_003.jpg,,,,,,,,,,,,,,,,,,,,,,,,,,,,,,,,,,,,,,,,,,,,,,,,0,2,2,2,1,,,,,,,,,,,,,,,,,,,,,,,,,,,,,,,,,,,,,,,,,
156141,001,2022-11-20_23h49.34.751,Info_measure_main_exp,2022.2.2,Win32,164.4195988,,,,,,,,,,,,,,,,,,masks/mask_002.jpg,,,,,,,,,,,,,,,,,,,,,,,,,,,,,,,,,,,,,,,,,,,,,,,,0,3,3,1,1,,,,,,,,,,,,,,,,,,,,,,,,,,,,,,,,,,,,,,,,,
156141,001,2022-11-20_23h49.34.751,Info_measure_main_exp,2022.2.2,Win32,164.4195988,,,,,,,,,,,,,,,,,,masks/mask_004.jpg,,,,,,,,,,,,,,,,,,,,,,,,,,,,,,,,,,,,,,,,,,,,,,,,0,4,4,3,1,,,,,,,,,,,,,,,,,,,,,,,,,,,,,,,,,,,,,,,,,
156141,001,2022-11-20_23h49.34.751,Info_measure_main_exp,2022.2.2,Win32,164.4195988,,,,,,,,,,,,,,,,,,,,,,,,,,,,,,6,0.6373,1,,,,,,,,,,,,0,131,5,5,2082,2238,absent_patch/patch0002082.jpg,absent_patch/patch0002238.jpg,,,,,,,,,,,,,,,,,,,,0.104589114,0.051760939,1,0,0,response1disk,33,0.004268943,-0.001600854,1,0,0,center_square,0,32,32,22,1,,,,,,,,,,,,,,,,,,,,,,,
156141,001,2022-11-20_23h49.34.751,Info_measure_main_exp,2022.2.2,Win32,164.4195988,,,,,,,,,,,,,,,,,,masks/mask_002.jpg,,,,,,,,,,,,,,,,,,,,,,,,,,,,,,,,,,,,,,,,,,,0,0,0,1,1,,,,,,,,,,,,,,,,,,,,,,,,,,,,,,,,,,,,,,,,,,,,,,
156141,001,2022-11-20_23h49.34.751,Info_measure_main_exp,2022.2.2,Win32,164.4195988,,,,,,,,,,,,,,,,,,masks/mask_005.jpg,,,,,,,,,,,,,,,,,,,,,,,,,,,,,,,,,,,,,,,,,,,0,1,1,4,1,,,,,,,,,,,,,,,,,,,,,,,,,,,,,,,,,,,,,,,,,,,,,,
156141,001,2022-11-20_23h49.34.751,Info_measure_main_exp,2022.2.2,Win32,164.4195988,,,,,,,,,,,,,,,,,,masks/mask_003.jpg,,,,,,,,,,,,,,,,,,,,,,,,,,,,,,,,,,,,,,,,,,,0,2,2,2,1,,,,,,,,,,,,,,,,,,,,,,,,,,,,,,,,,,,,,,,,,,,,,,
156141,001,2022-11-20_23h49.34.751,Info_measure_main_exp,2022.2.2,Win32,164.4195988,,,,,,,,,,,,,,,,,,masks/mask_001.jpg,,,,,,,,,,,,,,,,,,,,,,,,,,,,,,,,,,,,,,,,,,,0,3,3,0,1,,,,,,,,,,,,,,,,,,,,,,,,,,,,,,,,,,,,,,,,,,,,,,
156141,001,2022-11-20_23h49.34.751,Info_measure_main_exp,2022.2.2,Win32,164.4195988,,,,,,,,,,,,,,,,,,masks/mask_004.jpg,,,,,,,,,,,,,,,,,,,,,,,,,,,,,,,,,,,,,,,,,,,0,4,4,3,1,,,,,,,,,,,,,,,,,,,,,,,,,,,,,,,,,,,,,,,,,,,,,,
156141,001,2022-11-20_23h49.34.751,Info_measure_main_exp,2022.2.2,Win32,164.4195988,,,,,,,,,,,,,,,,,,masks/mask_001.jpg,,,,,,,,,,,,,,,,,,,,,,,,,,,,,,,,,,,,,,,,,,,,,,,,0,0,0,0,1,,,,,,,,,,,,,,,,,,,,,,,,,,,,,,,,,,,,,,,,,
156141,001,2022-11-20_23h49.34.751,Info_measure_main_exp,2022.2.2,Win32,164.4195988,,,,,,,,,,,,,,,,,,masks/mask_002.jpg,,,,,,,,,,,,,,,,,,,,,,,,,,,,,,,,,,,,,,,,,,,,,,,,0,1,1,1,1,,,,,,,,,,,,,,,,,,,,,,,,,,,,,,,,,,,,,,,,,
156141,001,2022-11-20_23h49.34.751,Info_measure_main_exp,2022.2.2,Win32,164.4195988,,,,,,,,,,,,,,,,,,masks/mask_004.jpg,,,,,,,,,,,,,,,,,,,,,,,,,,,,,,,,,,,,,,,,,,,,,,,,0,2,2,3,1,,,,,,,,,,,,,,,,,,,,,,,,,,,,,,,,,,,,,,,,,
156141,001,2022-11-20_23h49.34.751,Info_measure_main_exp,2022.2.2,Win32,164.4195988,,,,,,,,,,,,,,,,,,masks/mask_003.jpg,,,,,,,,,,,,,,,,,,,,,,,,,,,,,,,,,,,,,,,,,,,,,,,,0,3,3,2,1,,,,,,,,,,,,,,,,,,,,,,,,,,,,,,,,,,,,,,,,,
156141,001,2022-11-20_23h49.34.751,Info_measure_main_exp,2022.2.2,Win32,164.4195988,,,,,,,,,,,,,,,,,,masks/mask_005.jpg,,,,,,,,,,,,,,,,,,,,,,,,,,,,,,,,,,,,,,,,,,,,,,,,0,4,4,4,1,,,,,,,,,,,,,,,,,,,,,,,,,,,,,,,,,,,,,,,,,
156141,001,2022-11-20_23h49.34.751,Info_measure_main_exp,2022.2.2,Win32,164.4195988,,,,,,,,,,,,,,,,,,,,,,,,,,,,,,4,0.6489,1,,,,,,,,,,,,1,131,5,5,1,1974,present_patch/cong_131_5_a.jpg,absent_patch/patch0001974.jpg,,,,,,,,,,,,,,,,,,,,0.020277481,-0.148879402,1,0,0,response3disk,34,0.011739594,0.000533618,1,0,0,center_square,0,33,33,69,1,,,,,,,,,,,,,,,,,,,,,,,
156141,001,2022-11-20_23h49.34.751,Info_measure_main_exp,2022.2.2,Win32,164.4195988,,,,,,,,,,,,,,,,,,masks/mask_003.jpg,,,,,,,,,,,,,,,,,,,,,,,,,,,,,,,,,,,,,,,,,,,0,0,0,2,1,,,,,,,,,,,,,,,,,,,,,,,,,,,,,,,,,,,,,,,,,,,,,,
156141,001,2022-11-20_23h49.34.751,Info_measure_main_exp,2022.2.2,Win32,164.4195988,,,,,,,,,,,,,,,,,,masks/mask_004.jpg,,,,,,,,,,,,,,,,,,,,,,,,,,,,,,,,,,,,,,,,,,,0,1,1,3,1,,,,,,,,,,,,,,,,,,,,,,,,,,,,,,,,,,,,,,,,,,,,,,
156141,001,2022-11-20_23h49.34.751,Info_measure_main_exp,2022.2.2,Win32,164.4195988,,,,,,,,,,,,,,,,,,masks/mask_002.jpg,,,,,,,,,,,,,,,,,,,,,,,,,,,,,,,,,,,,,,,,,,,0,2,2,1,1,,,,,,,,,,,,,,,,,,,,,,,,,,,,,,,,,,,,,,,,,,,,,,
156141,001,2022-11-20_23h49.34.751,Info_measure_main_exp,2022.2.2,Win32,164.4195988,,,,,,,,,,,,,,,,,,masks/mask_005.jpg,,,,,,,,,,,,,,,,,,,,,,,,,,,,,,,,,,,,,,,,,,,0,3,3,4,1,,,,,,,,,,,,,,,,,,,,,,,,,,,,,,,,,,,,,,,,,,,,,,
156141,001,2022-11-20_23h49.34.751,Info_measure_main_exp,2022.2.2,Win32,164.4195988,,,,,,,,,,,,,,,,,,masks/mask_001.jpg,,,,,,,,,,,,,,,,,,,,,,,,,,,,,,,,,,,,,,,,,,,0,4,4,0,1,,,,,,,,,,,,,,,,,,,,,,,,,,,,,,,,,,,,,,,,,,,,,,
156141,001,2022-11-20_23h49.34.751,Info_measure_main_exp,2022.2.2,Win32,164.4195988,,,,,,,,,,,,,,,,,,masks/mask_004.jpg,,,,,,,,,,,,,,,,,,,,,,,,,,,,,,,,,,,,,,,,,,,,,,,,0,0,0,3,1,,,,,,,,,,,,,,,,,,,,,,,,,,,,,,,,,,,,,,,,,
156141,001,2022-11-20_23h49.34.751,Info_measure_main_exp,2022.2.2,Win32,164.4195988,,,,,,,,,,,,,,,,,,masks/mask_002.jpg,,,,,,,,,,,,,,,,,,,,,,,,,,,,,,,,,,,,,,,,,,,,,,,,0,1,1,1,1,,,,,,,,,,,,,,,,,,,,,,,,,,,,,,,,,,,,,,,,,
156141,001,2022-11-20_23h49.34.751,Info_measure_main_exp,2022.2.2,Win32,164.4195988,,,,,,,,,,,,,,,,,,masks/mask_003.jpg,,,,,,,,,,,,,,,,,,,,,,,,,,,,,,,,,,,,,,,,,,,,,,,,0,2,2,2,1,,,,,,,,,,,,,,,,,,,,,,,,,,,,,,,,,,,,,,,,,
156141,001,2022-11-20_23h49.34.751,Info_measure_main_exp,2022.2.2,Win32,164.4195988,,,,,,,,,,,,,,,,,,masks/mask_005.jpg,,,,,,,,,,,,,,,,,,,,,,,,,,,,,,,,,,,,,,,,,,,,,,,,0,3,3,4,1,,,,,,,,,,,,,,,,,,,,,,,,,,,,,,,,,,,,,,,,,
