participant,session,date,expName,psychopyVersion,OS,frameRate,space_press_continue.keys,space_press_continue.rt,space_press_continue_2.keys,space_press_continue_2.rt,space_press_continue_3.keys,space_press_continue_3.rt,space_press_continue_4.keys,space_press_continue_4.rt,space_press_continue_5.keys,space_press_continue_5.rt,space_press_continue_6.keys,space_press_continue_6.rt,prac_mask_loop_1.thisRepN,prac_mask_loop_1.thisTrialN,prac_mask_loop_1.thisN,prac_mask_loop_1.thisIndex,prac_mask_loop_1.ran,mask_name,prac_mask_loop_2.thisRepN,prac_mask_loop_2.thisTrialN,prac_mask_loop_2.thisN,prac_mask_loop_2.thisIndex,prac_mask_loop_2.ran,mouse_2.x,mouse_2.y,mouse_2.leftButton,mouse_2.midButton,mouse_2.rightButton,mouse_2.clicked_name,similarity,response_time,Pass,mouse_12.x,mouse_12.y,mouse_12.leftButton,mouse_12.midButton,mouse_12.rightButton,mouse_12.clicked_name,prac_loop.thisRepN,prac_loop.thisTrialN,prac_loop.thisN,prac_loop.thisIndex,prac_loop.ran,Pair_type,Image_num,Patch_1_loc,Patch_2_loc,Patch_1_info,Patch_2_info,Patch_1_name,Patch_2_name,mouse_1.x,mouse_1.y,mouse_1.leftButton,mouse_1.midButton,mouse_1.rightButton,mouse_1.time,mouse_1.clicked_name,space_press_continue_7.keys,space_press_continue_7.rt,mask_loop.thisRepN,mask_loop.thisTrialN,mask_loop.thisN,mask_loop.thisIndex,mask_loop.ran,mask_loop_2.thisRepN,mask_loop_2.thisTrialN,mask_loop_2.thisN,mask_loop_2.thisIndex,mask_loop_2.ran,mouse.x,mouse.y,mouse.leftButton,mouse.midButton,mouse.rightButton,mouse.clicked_name,trialNumber,mouse_11.x,mouse_11.y,mouse_11.leftButton,mouse_11.midButton,mouse_11.rightButton,mouse_11.clicked_name,first_pass_loop.thisRepN,first_pass_loop.thisTrialN,first_pass_loop.thisN,first_pass_loop.thisIndex,first_pass_loop.ran,mask_loop_3.thisRepN,mask_loop_3.thisTrialN,mask_loop_3.thisN,mask_loop_3.thisIndex,mask_loop_3.ran,mask_loop_4.thisRepN,mask_loop_4.thisTrialN,mask_loop_4.thisN,mask_loop_4.thisIndex,mask_loop_4.ran,mouse_3.x,mouse_3.y,mouse_3.leftButton,mouse_3.midButton,mouse_3.rightButton,mouse_3.clicked_name,double_pass_loop.thisRepN,double_pass_loop.thisTrialN,double_pass_loop.thisN,double_pass_loop.thisIndex,double_pass_loop.ran,space_exit.keys,space_exit.rt
157749,001,2022-11-20_19h57.05.336,Info_measure_main_exp,2022.2.2,Win32,59.74786401,,,,,,,,,,,,,,,,,,,,,,,,,,,,,,,,,,,,,,,,,,,,,,,,,,,,,,,,,,,,,,,,,,,,,,,,,,,,,,,,,,,,,,,,,,,,,,,,,,,,,,,,,,,,,,,
157749,001,2022-11-20_19h57.05.336,Info_measure_main_exp,2022.2.2,Win32,59.74786401,,,,,,,,,,,,,,,,,,,,,,,,,,,,,,,,,,,,,,,,,,,,,,,,,,,,,,,,,,,,,,,,,,,,,,,,,,,,,,,,,,,,,,,,,,,,,,,,,,,,,,,,,,,,,,,
157749,001,2022-11-20_19h57.05.336,Info_measure_main_exp,2022.2.2,Win32,59.74786401,space,14.7712,,,,,,,,,,,,,,,,,,,,,,,,,,,,,,,,,,,,,,,,,,,,,,,,,,,,,,,,,,,,,,,,,,,,,,,,,,,,,,,,,,,,,,,,,,,,,,,,,,,,,,,,,,,,,
157749,001,2022-11-20_19h57.05.336,Info_measure_main_exp,2022.2.2,Win32,59.74786401,,,space,23.5039,,,,,,,,,,,,,,,,,,,,,,,,,,,,,,,,,,,,,,,,,,,,,,,,,,,,,,,,,,,,,,,,,,,,,,,,,,,,,,,,,,,,,,,,,,,,,,,,,,,,,,,,,,,
157749,001,2022-11-20_19h57.05.336,Info_measure_main_exp,2022.2.2,Win32,59.74786401,,,,,space,15.9703,,,,,,,,,,,,,,,,,,,,,,,,,,,,,,,,,,,,,,,,,,,,,,,,,,,,,,,,,,,,,,,,,,,,,,,,,,,,,,,,,,,,,,,,,,,,,,,,,,,,,,,,,
157749,001,2022-11-20_19h57.05.336,Info_measure_main_exp,2022.2.2,Win32,59.74786401,,,,,,,space,37.9825,,,,,,,,,,,,,,,,,,,,,,,,,,,,,,,,,,,,,,,,,,,,,,,,,,,,,,,,,,,,,,,,,,,,,,,,,,,,,,,,,,,,,,,,,,,,,,,,,,,,,,,
157749,001,2022-11-20_19h57.05.336,Info_measure_main_exp,2022.2.2,Win32,59.74786401,,,,,,,,,space,8.7444,,,,,,,,,,,,,,,,,,,,,,,,,,,,,,,,,,,,,,,,,,,,,,,,,,,,,,,,,,,,,,,,,,,,,,,,,,,,,,,,,,,,,,,,,,,,,,,,,,,,,
157749,001,2022-11-20_19h57.05.336,Info_measure_main_exp,2022.2.2,Win32,59.74786401,,,,,,,,,,,space,10.3863,,,,,,,,,,,,,,,,,,,,,,,,,,,,,,,,,,,,,,,,,,,,,,,,,,,,,,,,,,,,,,,,,,,,,,,,,,,,,,,,,,,,,,,,,,,,,,,,,,,
157749,001,2022-11-20_19h57.05.336,Info_measure_main_exp,2022.2.2,Win32,59.74786401,,,,,,,,,,,,,0,0,0,1,1,masks/mask_002.jpg,,,,,,,,,,,,,,,,,,,,,,,,,,,,,,,,,,,,,,,,,,,,,,,,,,,,,,,,,,,,,,,,,,,,,,,,,,,,,,,,,,,,,,,,,,,,,
157749,001,2022-11-20_19h57.05.336,Info_measure_main_exp,2022.2.2,Win32,59.74786401,,,,,,,,,,,,,0,1,1,2,1,masks/mask_003.jpg,,,,,,,,,,,,,,,,,,,,,,,,,,,,,,,,,,,,,,,,,,,,,,,,,,,,,,,,,,,,,,,,,,,,,,,,,,,,,,,,,,,,,,,,,,,,,
157749,001,2022-11-20_19h57.05.336,Info_measure_main_exp,2022.2.2,Win32,59.74786401,,,,,,,,,,,,,0,2,2,0,1,masks/mask_001.jpg,,,,,,,,,,,,,,,,,,,,,,,,,,,,,,,,,,,,,,,,,,,,,,,,,,,,,,,,,,,,,,,,,,,,,,,,,,,,,,,,,,,,,,,,,,,,,
157749,001,2022-11-20_19h57.05.336,Info_measure_main_exp,2022.2.2,Win32,59.74786401,,,,,,,,,,,,,0,3,3,3,1,masks/mask_004.jpg,,,,,,,,,,,,,,,,,,,,,,,,,,,,,,,,,,,,,,,,,,,,,,,,,,,,,,,,,,,,,,,,,,,,,,,,,,,,,,,,,,,,,,,,,,,,,
157749,001,2022-11-20_19h57.05.336,Info_measure_main_exp,2022.2.2,Win32,59.74786401,,,,,,,,,,,,,0,4,4,4,1,masks/mask_005.jpg,,,,,,,,,,,,,,,,,,,,,,,,,,,,,,,,,,,,,,,,,,,,,,,,,,,,,,,,,,,,,,,,,,,,,,,,,,,,,,,,,,,,,,,,,,,,,
157749,001,2022-11-20_19h57.05.336,Info_measure_main_exp,2022.2.2,Win32,59.74786401,,,,,,,,,,,,,,,,,,masks/mask_004.jpg,0,0,0,3,1,,,,,,,,,,,,,,,,,,,,,,,,,,,,,,,,,,,,,,,,,,,,,,,,,,,,,,,,,,,,,,,,,,,,,,,,,,,,,,,,,,,,,,,,
157749,001,2022-11-20_19h57.05.336,Info_measure_main_exp,2022.2.2,Win32,59.74786401,,,,,,,,,,,,,,,,,,masks/mask_002.jpg,0,1,1,1,1,,,,,,,,,,,,,,,,,,,,,,,,,,,,,,,,,,,,,,,,,,,,,,,,,,,,,,,,,,,,,,,,,,,,,,,,,,,,,,,,,,,,,,,,
157749,001,2022-11-20_19h57.05.336,Info_measure_main_exp,2022.2.2,Win32,59.74786401,,,,,,,,,,,,,,,,,,masks/mask_001.jpg,0,2,2,0,1,,,,,,,,,,,,,,,,,,,,,,,,,,,,,,,,,,,,,,,,,,,,,,,,,,,,,,,,,,,,,,,,,,,,,,,,,,,,,,,,,,,,,,,,
157749,001,2022-11-20_19h57.05.336,Info_measure_main_exp,2022.2.2,Win32,59.74786401,,,,,,,,,,,,,,,,,,masks/mask_003.jpg,0,3,3,2,1,,,,,,,,,,,,,,,,,,,,,,,,,,,,,,,,,,,,,,,,,,,,,,,,,,,,,,,,,,,,,,,,,,,,,,,,,,,,,,,,,,,,,,,,
157749,001,2022-11-20_19h57.05.336,Info_measure_main_exp,2022.2.2,Win32,59.74786401,,,,,,,,,,,,,,,,,,masks/mask_005.jpg,0,4,4,4,1,,,,,,,,,,,,,,,,,,,,,,,,,,,,,,,,,,,,,,,,,,,,,,,,,,,,,,,,,,,,,,,,,,,,,,,,,,,,,,,,,,,,,,,,
157749,001,2022-11-20_19h57.05.336,Info_measure_main_exp,2022.2.2,Win32,59.74786401,,,,,,,,,,,,,,,,,,,,,,,,0.145833333,0.020833333,1,0,0,response1disk,6,118.8775,1,-0.001302083,0,1,0,0,center_square,0,0,0,0,1,0,131,5,5,2370,2406,prac_patch/patch0002370.jpg,prac_patch/patch0002406.jpg,,,,,,,,,,,,,,,,,,,,,,,,,,,,,,,,,,,,,,,,,,,,,,,,,,,,,,,,,,,,
157749,001,2022-11-20_19h57.05.336,Info_measure_main_exp,2022.2.2,Win32,59.74786401,,,,,,,,,,,,,0,0,0,1,1,masks/mask_002.jpg,,,,,,,,,,,,,,,,,,,,,,,,,,,,,,,,,,,,,,,,,,,,,,,,,,,,,,,,,,,,,,,,,,,,,,,,,,,,,,,,,,,,,,,,,,,,,
157749,001,2022-11-20_19h57.05.336,Info_measure_main_exp,2022.2.2,Win32,59.74786401,,,,,,,,,,,,,0,1,1,4,1,masks/mask_005.jpg,,,,,,,,,,,,,,,,,,,,,,,,,,,,,,,,,,,,,,,,,,,,,,,,,,,,,,,,,,,,,,,,,,,,,,,,,,,,,,,,,,,,,,,,,,,,,
157749,001,2022-11-20_19h57.05.336,Info_measure_main_exp,2022.2.2,Win32,59.74786401,,,,,,,,,,,,,0,2,2,0,1,masks/mask_001.jpg,,,,,,,,,,,,,,,,,,,,,,,,,,,,,,,,,,,,,,,,,,,,,,,,,,,,,,,,,,,,,,,,,,,,,,,,,,,,,,,,,,,,,,,,,,,,,
157749,001,2022-11-20_19h57.05.336,Info_measure_main_exp,2022.2.2,Win32,59.74786401,,,,,,,,,,,,,0,3,3,3,1,masks/mask_004.jpg,,,,,,,,,,,,,,,,,,,,,,,,,,,,,,,,,,,,,,,,,,,,,,,,,,,,,,,,,,,,,,,,,,,,,,,,,,,,,,,,,,,,,,,,,,,,,
157749,001,2022-11-20_19h57.05.336,Info_measure_main_exp,2022.2.2,Win32,59.74786401,,,,,,,,,,,,,0,4,4,2,1,masks/mask_003.jpg,,,,,,,,,,,,,,,,,,,,,,,,,,,,,,,,,,,,,,,,,,,,,,,,,,,,,,,,,,,,,,,,,,,,,,,,,,,,,,,,,,,,,,,,,,,,,
157749,001,2022-11-20_19h57.05.336,Info_measure_main_exp,2022.2.2,Win32,59.74786401,,,,,,,,,,,,,,,,,,masks/mask_005.jpg,0,0,0,4,1,,,,,,,,,,,,,,,,,,,,,,,,,,,,,,,,,,,,,,,,,,,,,,,,,,,,,,,,,,,,,,,,,,,,,,,,,,,,,,,,,,,,,,,,
157749,001,2022-11-20_19h57.05.336,Info_measure_main_exp,2022.2.2,Win32,59.74786401,,,,,,,,,,,,,,,,,,masks/mask_003.jpg,0,1,1,2,1,,,,,,,,,,,,,,,,,,,,,,,,,,,,,,,,,,,,,,,,,,,,,,,,,,,,,,,,,,,,,,,,,,,,,,,,,,,,,,,,,,,,,,,,
157749,001,2022-11-20_19h57.05.336,Info_measure_main_exp,2022.2.2,Win32,59.74786401,,,,,,,,,,,,,,,,,,masks/mask_004.jpg,0,2,2,3,1,,,,,,,,,,,,,,,,,,,,,,,,,,,,,,,,,,,,,,,,,,,,,,,,,,,,,,,,,,,,,,,,,,,,,,,,,,,,,,,,,,,,,,,,
157749,001,2022-11-20_19h57.05.336,Info_measure_main_exp,2022.2.2,Win32,59.74786401,,,,,,,,,,,,,,,,,,masks/mask_002.jpg,0,3,3,1,1,,,,,,,,,,,,,,,,,,,,,,,,,,,,,,,,,,,,,,,,,,,,,,,,,,,,,,,,,,,,,,,,,,,,,,,,,,,,,,,,,,,,,,,,
157749,001,2022-11-20_19h57.05.336,Info_measure_main_exp,2022.2.2,Win32,59.74786401,,,,,,,,,,,,,,,,,,masks/mask_001.jpg,0,4,4,0,1,,,,,,,,,,,,,,,,,,,,,,,,,,,,,,,,,,,,,,,,,,,,,,,,,,,,,,,,,,,,,,,,,,,,,,,,,,,,,,,,,,,,,,,,
157749,001,2022-11-20_19h57.05.336,Info_measure_main_exp,2022.2.2,Win32,59.74786401,,,,,,,,,,,,,,,,,,,,,,,,0.110677083,-0.04296875,1,0,0,response3disk,5,131.2969,1,0.005208333,-0.005208333,1,0,0,center_square,0,1,1,1,1,0,131,5,5,2514,2490,prac_patch/patch0002514.jpg,prac_patch/patch0002490.jpg,,,,,,,,,,,,,,,,,,,,,,,,,,,,,,,,,,,,,,,,,,,,,,,,,,,,,,,,,,,,
157749,001,2022-11-20_19h57.05.336,Info_measure_main_exp,2022.2.2,Win32,59.74786401,,,,,,,,,,,,,0,0,0,2,1,masks/mask_003.jpg,,,,,,,,,,,,,,,,,,,,,,,,,,,,,,,,,,,,,,,,,,,,,,,,,,,,,,,,,,,,,,,,,,,,,,,,,,,,,,,,,,,,,,,,,,,,,
157749,001,2022-11-20_19h57.05.336,Info_measure_main_exp,2022.2.2,Win32,59.74786401,,,,,,,,,,,,,0,1,1,0,1,masks/mask_001.jpg,,,,,,,,,,,,,,,,,,,,,,,,,,,,,,,,,,,,,,,,,,,,,,,,,,,,,,,,,,,,,,,,,,,,,,,,,,,,,,,,,,,,,,,,,,,,,
157749,001,2022-11-20_19h57.05.336,Info_measure_main_exp,2022.2.2,Win32,59.74786401,,,,,,,,,,,,,0,2,2,4,1,masks/mask_005.jpg,,,,,,,,,,,,,,,,,,,,,,,,,,,,,,,,,,,,,,,,,,,,,,,,,,,,,,,,,,,,,,,,,,,,,,,,,,,,,,,,,,,,,,,,,,,,,
157749,001,2022-11-20_19h57.05.336,Info_measure_main_exp,2022.2.2,Win32,59.74786401,,,,,,,,,,,,,0,3,3,1,1,masks/mask_002.jpg,,,,,,,,,,,,,,,,,,,,,,,,,,,,,,,,,,,,,,,,,,,,,,,,,,,,,,,,,,,,,,,,,,,,,,,,,,,,,,,,,,,,,,,,,,,,,
157749,001,2022-11-20_19h57.05.336,Info_measure_main_exp,2022.2.2,Win32,59.74786401,,,,,,,,,,,,,0,4,4,3,1,masks/mask_004.jpg,,,,,,,,,,,,,,,,,,,,,,,,,,,,,,,,,,,,,,,,,,,,,,,,,,,,,,,,,,,,,,,,,,,,,,,,,,,,,,,,,,,,,,,,,,,,,
157749,001,2022-11-20_19h57.05.336,Info_measure_main_exp,2022.2.2,Win32,59.74786401,,,,,,,,,,,,,,,,,,masks/mask_002.jpg,0,0,0,1,1,,,,,,,,,,,,,,,,,,,,,,,,,,,,,,,,,,,,,,,,,,,,,,,,,,,,,,,,,,,,,,,,,,,,,,,,,,,,,,,,,,,,,,,,
157749,001,2022-11-20_19h57.05.336,Info_measure_main_exp,2022.2.2,Win32,59.74786401,,,,,,,,,,,,,,,,,,masks/mask_003.jpg,0,1,1,2,1,,,,,,,,,,,,,,,,,,,,,,,,,,,,,,,,,,,,,,,,,,,,,,,,,,,,,,,,,,,,,,,,,,,,,,,,,,,,,,,,,,,,,,,,
157749,001,2022-11-20_19h57.05.336,Info_measure_main_exp,2022.2.2,Win32,59.74786401,,,,,,,,,,,,,,,,,,masks/mask_001.jpg,0,2,2,0,1,,,,,,,,,,,,,,,,,,,,,,,,,,,,,,,,,,,,,,,,,,,,,,,,,,,,,,,,,,,,,,,,,,,,,,,,,,,,,,,,,,,,,,,,
157749,001,2022-11-20_19h57.05.336,Info_measure_main_exp,2022.2.2,Win32,59.74786401,,,,,,,,,,,,,,,,,,masks/mask_004.jpg,0,3,3,3,1,,,,,,,,,,,,,,,,,,,,,,,,,,,,,,,,,,,,,,,,,,,,,,,,,,,,,,,,,,,,,,,,,,,,,,,,,,,,,,,,,,,,,,,,
157749,001,2022-11-20_19h57.05.336,Info_measure_main_exp,2022.2.2,Win32,59.74786401,,,,,,,,,,,,,,,,,,masks/mask_005.jpg,0,4,4,4,1,,,,,,,,,,,,,,,,,,,,,,,,,,,,,,,,,,,,,,,,,,,,,,,,,,,,,,,,,,,,,,,,,,,,,,,,,,,,,,,,,,,,,,,,
157749,001,2022-11-20_19h57.05.336,Info_measure_main_exp,2022.2.2,Win32,59.74786401,,,,,,,,,,,,,,,,,,,,,,,,-0.071614583,0.110677083,1,0,0,response7disk,0,140.6817,1,0,0.006510417,1,0,0,center_square,0,2,2,2,1,0,131,5,5,2526,2526,prac_patch/patch0002526.jpg,prac_patch/patch0002526.jpg,,,,,,,,,,,,,,,,,,,,,,,,,,,,,,,,,,,,,,,,,,,,,,,,,,,,,,,,,,,,
157749,001,2022-11-20_19h57.05.336,Info_measure_main_exp,2022.2.2,Win32,59.74786401,,,,,,,,,,,,,,,,,,,,,,,,,,,,,,,,,,,,,,,,,,,,,,,,,,,,,,,,,,,space,6.2391,,,,,,,,,,,,,,,,,,,,,,,,,,,,,,,,,,,,,,,,,,,,,,,,,,,
157749,001,2022-11-20_19h57.05.336,Info_measure_main_exp,2022.2.2,Win32,59.74786401,,,,,,,,,,,,,,,,,,masks/mask_001.jpg,,,,,,,,,,,,,,,,,,,,,,,,,,,,,,,,,,,,,,,,,,,0,0,0,0,1,,,,,,,,,,,,,,,,,,,,,,,,,,,,,,,,,,,,,,,,,,,,,,
157749,001,2022-11-20_19h57.05.336,Info_measure_main_exp,2022.2.2,Win32,59.74786401,,,,,,,,,,,,,,,,,,masks/mask_002.jpg,,,,,,,,,,,,,,,,,,,,,,,,,,,,,,,,,,,,,,,,,,,0,1,1,1,1,,,,,,,,,,,,,,,,,,,,,,,,,,,,,,,,,,,,,,,,,,,,,,
157749,001,2022-11-20_19h57.05.336,Info_measure_main_exp,2022.2.2,Win32,59.74786401,,,,,,,,,,,,,,,,,,masks/mask_005.jpg,,,,,,,,,,,,,,,,,,,,,,,,,,,,,,,,,,,,,,,,,,,0,2,2,4,1,,,,,,,,,,,,,,,,,,,,,,,,,,,,,,,,,,,,,,,,,,,,,,
157749,001,2022-11-20_19h57.05.336,Info_measure_main_exp,2022.2.2,Win32,59.74786401,,,,,,,,,,,,,,,,,,masks/mask_003.jpg,,,,,,,,,,,,,,,,,,,,,,,,,,,,,,,,,,,,,,,,,,,0,3,3,2,1,,,,,,,,,,,,,,,,,,,,,,,,,,,,,,,,,,,,,,,,,,,,,,
157749,001,2022-11-20_19h57.05.336,Info_measure_main_exp,2022.2.2,Win32,59.74786401,,,,,,,,,,,,,,,,,,masks/mask_004.jpg,,,,,,,,,,,,,,,,,,,,,,,,,,,,,,,,,,,,,,,,,,,0,4,4,3,1,,,,,,,,,,,,,,,,,,,,,,,,,,,,,,,,,,,,,,,,,,,,,,
157749,001,2022-11-20_19h57.05.336,Info_measure_main_exp,2022.2.2,Win32,59.74786401,,,,,,,,,,,,,,,,,,masks/mask_003.jpg,,,,,,,,,,,,,,,,,,,,,,,,,,,,,,,,,,,,,,,,,,,,,,,,0,0,0,2,1,,,,,,,,,,,,,,,,,,,,,,,,,,,,,,,,,,,,,,,,,
157749,001,2022-11-20_19h57.05.336,Info_measure_main_exp,2022.2.2,Win32,59.74786401,,,,,,,,,,,,,,,,,,masks/mask_002.jpg,,,,,,,,,,,,,,,,,,,,,,,,,,,,,,,,,,,,,,,,,,,,,,,,0,1,1,1,1,,,,,,,,,,,,,,,,,,,,,,,,,,,,,,,,,,,,,,,,,
157749,001,2022-11-20_19h57.05.336,Info_measure_main_exp,2022.2.2,Win32,59.74786401,,,,,,,,,,,,,,,,,,masks/mask_001.jpg,,,,,,,,,,,,,,,,,,,,,,,,,,,,,,,,,,,,,,,,,,,,,,,,0,2,2,0,1,,,,,,,,,,,,,,,,,,,,,,,,,,,,,,,,,,,,,,,,,
157749,001,2022-11-20_19h57.05.336,Info_measure_main_exp,2022.2.2,Win32,59.74786401,,,,,,,,,,,,,,,,,,masks/mask_004.jpg,,,,,,,,,,,,,,,,,,,,,,,,,,,,,,,,,,,,,,,,,,,,,,,,0,3,3,3,1,,,,,,,,,,,,,,,,,,,,,,,,,,,,,,,,,,,,,,,,,
157749,001,2022-11-20_19h57.05.336,Info_measure_main_exp,2022.2.2,Win32,59.74786401,,,,,,,,,,,,,,,,,,masks/mask_005.jpg,,,,,,,,,,,,,,,,,,,,,,,,,,,,,,,,,,,,,,,,,,,,,,,,0,4,4,4,1,,,,,,,,,,,,,,,,,,,,,,,,,,,,,,,,,,,,,,,,,
157749,001,2022-11-20_19h57.05.336,Info_measure_main_exp,2022.2.2,Win32,59.74786401,,,,,,,,,,,,,,,,,,,,,,,,,,,,,,5,3.0172,1,,,,,,,,,,,,0,131,5,5,1986,1974,absent_patch/patch0001986.jpg,absent_patch/patch0001974.jpg,,,,,,,,,,,,,,,,,,,,0.114583333,-0.05078125,1,0,0,response3disk,1,0.001302083,0.0078125,1,0,0,center_square,0,0,0,25,1,,,,,,,,,,,,,,,,,,,,,,,
157749,001,2022-11-20_19h57.05.336,Info_measure_main_exp,2022.2.2,Win32,59.74786401,,,,,,,,,,,,,,,,,,masks/mask_004.jpg,,,,,,,,,,,,,,,,,,,,,,,,,,,,,,,,,,,,,,,,,,,0,0,0,3,1,,,,,,,,,,,,,,,,,,,,,,,,,,,,,,,,,,,,,,,,,,,,,,
157749,001,2022-11-20_19h57.05.336,Info_measure_main_exp,2022.2.2,Win32,59.74786401,,,,,,,,,,,,,,,,,,masks/mask_003.jpg,,,,,,,,,,,,,,,,,,,,,,,,,,,,,,,,,,,,,,,,,,,0,1,1,2,1,,,,,,,,,,,,,,,,,,,,,,,,,,,,,,,,,,,,,,,,,,,,,,
157749,001,2022-11-20_19h57.05.336,Info_measure_main_exp,2022.2.2,Win32,59.74786401,,,,,,,,,,,,,,,,,,masks/mask_002.jpg,,,,,,,,,,,,,,,,,,,,,,,,,,,,,,,,,,,,,,,,,,,0,2,2,1,1,,,,,,,,,,,,,,,,,,,,,,,,,,,,,,,,,,,,,,,,,,,,,,
157749,001,2022-11-20_19h57.05.336,Info_measure_main_exp,2022.2.2,Win32,59.74786401,,,,,,,,,,,,,,,,,,masks/mask_001.jpg,,,,,,,,,,,,,,,,,,,,,,,,,,,,,,,,,,,,,,,,,,,0,3,3,0,1,,,,,,,,,,,,,,,,,,,,,,,,,,,,,,,,,,,,,,,,,,,,,,
157749,001,2022-11-20_19h57.05.336,Info_measure_main_exp,2022.2.2,Win32,59.74786401,,,,,,,,,,,,,,,,,,masks/mask_005.jpg,,,,,,,,,,,,,,,,,,,,,,,,,,,,,,,,,,,,,,,,,,,0,4,4,4,1,,,,,,,,,,,,,,,,,,,,,,,,,,,,,,,,,,,,,,,,,,,,,,
157749,001,2022-11-20_19h57.05.336,Info_measure_main_exp,2022.2.2,Win32,59.74786401,,,,,,,,,,,,,,,,,,masks/mask_005.jpg,,,,,,,,,,,,,,,,,,,,,,,,,,,,,,,,,,,,,,,,,,,,,,,,0,0,0,4,1,,,,,,,,,,,,,,,,,,,,,,,,,,,,,,,,,,,,,,,,,
157749,001,2022-11-20_19h57.05.336,Info_measure_main_exp,2022.2.2,Win32,59.74786401,,,,,,,,,,,,,,,,,,masks/mask_001.jpg,,,,,,,,,,,,,,,,,,,,,,,,,,,,,,,,,,,,,,,,,,,,,,,,0,1,1,0,1,,,,,,,,,,,,,,,,,,,,,,,,,,,,,,,,,,,,,,,,,
157749,001,2022-11-20_19h57.05.336,Info_measure_main_exp,2022.2.2,Win32,59.74786401,,,,,,,,,,,,,,,,,,masks/mask_002.jpg,,,,,,,,,,,,,,,,,,,,,,,,,,,,,,,,,,,,,,,,,,,,,,,,0,2,2,1,1,,,,,,,,,,,,,,,,,,,,,,,,,,,,,,,,,,,,,,,,,
157749,001,2022-11-20_19h57.05.336,Info_measure_main_exp,2022.2.2,Win32,59.74786401,,,,,,,,,,,,,,,,,,masks/mask_004.jpg,,,,,,,,,,,,,,,,,,,,,,,,,,,,,,,,,,,,,,,,,,,,,,,,0,3,3,3,1,,,,,,,,,,,,,,,,,,,,,,,,,,,,,,,,,,,,,,,,,
157749,001,2022-11-20_19h57.05.336,Info_measure_main_exp,2022.2.2,Win32,59.74786401,,,,,,,,,,,,,,,,,,masks/mask_003.jpg,,,,,,,,,,,,,,,,,,,,,,,,,,,,,,,,,,,,,,,,,,,,,,,,0,4,4,2,1,,,,,,,,,,,,,,,,,,,,,,,,,,,,,,,,,,,,,,,,,
157749,001,2022-11-20_19h57.05.336,Info_measure_main_exp,2022.2.2,Win32,59.74786401,,,,,,,,,,,,,,,,,,,,,,,,,,,,,,6,1.5499,1,,,,,,,,,,,,0,131,5,5,2250,2298,absent_patch/patch0002250.jpg,absent_patch/patch0002298.jpg,,,,,,,,,,,,,,,,,,,,0.1484375,0.06640625,1,0,0,response1disk,2,-0.002604167,-0.001302083,1,0,0,center_square,0,1,1,59,1,,,,,,,,,,,,,,,,,,,,,,,
157749,001,2022-11-20_19h57.05.336,Info_measure_main_exp,2022.2.2,Win32,59.74786401,,,,,,,,,,,,,,,,,,masks/mask_003.jpg,,,,,,,,,,,,,,,,,,,,,,,,,,,,,,,,,,,,,,,,,,,0,0,0,2,1,,,,,,,,,,,,,,,,,,,,,,,,,,,,,,,,,,,,,,,,,,,,,,
157749,001,2022-11-20_19h57.05.336,Info_measure_main_exp,2022.2.2,Win32,59.74786401,,,,,,,,,,,,,,,,,,masks/mask_002.jpg,,,,,,,,,,,,,,,,,,,,,,,,,,,,,,,,,,,,,,,,,,,0,1,1,1,1,,,,,,,,,,,,,,,,,,,,,,,,,,,,,,,,,,,,,,,,,,,,,,
157749,001,2022-11-20_19h57.05.336,Info_measure_main_exp,2022.2.2,Win32,59.74786401,,,,,,,,,,,,,,,,,,masks/mask_004.jpg,,,,,,,,,,,,,,,,,,,,,,,,,,,,,,,,,,,,,,,,,,,0,2,2,3,1,,,,,,,,,,,,,,,,,,,,,,,,,,,,,,,,,,,,,,,,,,,,,,
157749,001,2022-11-20_19h57.05.336,Info_measure_main_exp,2022.2.2,Win32,59.74786401,,,,,,,,,,,,,,,,,,masks/mask_005.jpg,,,,,,,,,,,,,,,,,,,,,,,,,,,,,,,,,,,,,,,,,,,0,3,3,4,1,,,,,,,,,,,,,,,,,,,,,,,,,,,,,,,,,,,,,,,,,,,,,,
157749,001,2022-11-20_19h57.05.336,Info_measure_main_exp,2022.2.2,Win32,59.74786401,,,,,,,,,,,,,,,,,,masks/mask_001.jpg,,,,,,,,,,,,,,,,,,,,,,,,,,,,,,,,,,,,,,,,,,,0,4,4,0,1,,,,,,,,,,,,,,,,,,,,,,,,,,,,,,,,,,,,,,,,,,,,,,
157749,001,2022-11-20_19h57.05.336,Info_measure_main_exp,2022.2.2,Win32,59.74786401,,,,,,,,,,,,,,,,,,masks/mask_004.jpg,,,,,,,,,,,,,,,,,,,,,,,,,,,,,,,,,,,,,,,,,,,,,,,,0,0,0,3,1,,,,,,,,,,,,,,,,,,,,,,,,,,,,,,,,,,,,,,,,,
157749,001,2022-11-20_19h57.05.336,Info_measure_main_exp,2022.2.2,Win32,59.74786401,,,,,,,,,,,,,,,,,,masks/mask_001.jpg,,,,,,,,,,,,,,,,,,,,,,,,,,,,,,,,,,,,,,,,,,,,,,,,0,1,1,0,1,,,,,,,,,,,,,,,,,,,,,,,,,,,,,,,,,,,,,,,,,
157749,001,2022-11-20_19h57.05.336,Info_measure_main_exp,2022.2.2,Win32,59.74786401,,,,,,,,,,,,,,,,,,masks/mask_005.jpg,,,,,,,,,,,,,,,,,,,,,,,,,,,,,,,,,,,,,,,,,,,,,,,,0,2,2,4,1,,,,,,,,,,,,,,,,,,,,,,,,,,,,,,,,,,,,,,,,,
157749,001,2022-11-20_19h57.05.336,Info_measure_main_exp,2022.2.2,Win32,59.74786401,,,,,,,,,,,,,,,,,,masks/mask_003.jpg,,,,,,,,,,,,,,,,,,,,,,,,,,,,,,,,,,,,,,,,,,,,,,,,0,3,3,2,1,,,,,,,,,,,,,,,,,,,,,,,,,,,,,,,,,,,,,,,,,
157749,001,2022-11-20_19h57.05.336,Info_measure_main_exp,2022.2.2,Win32,59.74786401,,,,,,,,,,,,,,,,,,masks/mask_002.jpg,,,,,,,,,,,,,,,,,,,,,,,,,,,,,,,,,,,,,,,,,,,,,,,,0,4,4,1,1,,,,,,,,,,,,,,,,,,,,,,,,,,,,,,,,,,,,,,,,,
157749,001,2022-11-20_19h57.05.336,Info_measure_main_exp,2022.2.2,Win32,59.74786401,,,,,,,,,,,,,,,,,,,,,,,,,,,,,,4,1.5332,1,,,,,,,,,,,,0,131,5,5,2154,1950,absent_patch/patch0002154.jpg,absent_patch/patch0001950.jpg,,,,,,,,,,,,,,,,,,,,0.05078125,-0.104166667,1,0,0,response3disk,3,-0.002604167,0.005208333,1,0,0,center_square,0,2,2,96,1,,,,,,,,,,,,,,,,,,,,,,,
157749,001,2022-11-20_19h57.05.336,Info_measure_main_exp,2022.2.2,Win32,59.74786401,,,,,,,,,,,,,,,,,,masks/mask_001.jpg,,,,,,,,,,,,,,,,,,,,,,,,,,,,,,,,,,,,,,,,,,,0,0,0,0,1,,,,,,,,,,,,,,,,,,,,,,,,,,,,,,,,,,,,,,,,,,,,,,
157749,001,2022-11-20_19h57.05.336,Info_measure_main_exp,2022.2.2,Win32,59.74786401,,,,,,,,,,,,,,,,,,masks/mask_004.jpg,,,,,,,,,,,,,,,,,,,,,,,,,,,,,,,,,,,,,,,,,,,0,1,1,3,1,,,,,,,,,,,,,,,,,,,,,,,,,,,,,,,,,,,,,,,,,,,,,,
157749,001,2022-11-20_19h57.05.336,Info_measure_main_exp,2022.2.2,Win32,59.74786401,,,,,,,,,,,,,,,,,,masks/mask_002.jpg,,,,,,,,,,,,,,,,,,,,,,,,,,,,,,,,,,,,,,,,,,,0,2,2,1,1,,,,,,,,,,,,,,,,,,,,,,,,,,,,,,,,,,,,,,,,,,,,,,
157749,001,2022-11-20_19h57.05.336,Info_measure_main_exp,2022.2.2,Win32,59.74786401,,,,,,,,,,,,,,,,,,masks/mask_003.jpg,,,,,,,,,,,,,,,,,,,,,,,,,,,,,,,,,,,,,,,,,,,0,3,3,2,1,,,,,,,,,,,,,,,,,,,,,,,,,,,,,,,,,,,,,,,,,,,,,,
157749,001,2022-11-20_19h57.05.336,Info_measure_main_exp,2022.2.2,Win32,59.74786401,,,,,,,,,,,,,,,,,,masks/mask_005.jpg,,,,,,,,,,,,,,,,,,,,,,,,,,,,,,,,,,,,,,,,,,,0,4,4,4,1,,,,,,,,,,,,,,,,,,,,,,,,,,,,,,,,,,,,,,,,,,,,,,
157749,001,2022-11-20_19h57.05.336,Info_measure_main_exp,2022.2.2,Win32,59.74786401,,,,,,,,,,,,,,,,,,masks/mask_002.jpg,,,,,,,,,,,,,,,,,,,,,,,,,,,,,,,,,,,,,,,,,,,,,,,,0,0,0,1,1,,,,,,,,,,,,,,,,,,,,,,,,,,,,,,,,,,,,,,,,,
157749,001,2022-11-20_19h57.05.336,Info_measure_main_exp,2022.2.2,Win32,59.74786401,,,,,,,,,,,,,,,,,,masks/mask_003.jpg,,,,,,,,,,,,,,,,,,,,,,,,,,,,,,,,,,,,,,,,,,,,,,,,0,1,1,2,1,,,,,,,,,,,,,,,,,,,,,,,,,,,,,,,,,,,,,,,,,
157749,001,2022-11-20_19h57.05.336,Info_measure_main_exp,2022.2.2,Win32,59.74786401,,,,,,,,,,,,,,,,,,masks/mask_001.jpg,,,,,,,,,,,,,,,,,,,,,,,,,,,,,,,,,,,,,,,,,,,,,,,,0,2,2,0,1,,,,,,,,,,,,,,,,,,,,,,,,,,,,,,,,,,,,,,,,,
157749,001,2022-11-20_19h57.05.336,Info_measure_main_exp,2022.2.2,Win32,59.74786401,,,,,,,,,,,,,,,,,,masks/mask_005.jpg,,,,,,,,,,,,,,,,,,,,,,,,,,,,,,,,,,,,,,,,,,,,,,,,0,3,3,4,1,,,,,,,,,,,,,,,,,,,,,,,,,,,,,,,,,,,,,,,,,
157749,001,2022-11-20_19h57.05.336,Info_measure_main_exp,2022.2.2,Win32,59.74786401,,,,,,,,,,,,,,,,,,masks/mask_004.jpg,,,,,,,,,,,,,,,,,,,,,,,,,,,,,,,,,,,,,,,,,,,,,,,,0,4,4,3,1,,,,,,,,,,,,,,,,,,,,,,,,,,,,,,,,,,,,,,,,,
157749,001,2022-11-20_19h57.05.336,Info_measure_main_exp,2022.2.2,Win32,59.74786401,,,,,,,,,,,,,,,,,,,,,,,,,,,,,,4,2.8662,1,,,,,,,,,,,,0,131,5,5,1950,2082,absent_patch/patch0001950.jpg,absent_patch/patch0002082.jpg,,,,,,,,,,,,,,,,,,,,0.016927083,-0.087239583,1,0,0,response3disk,4,0.006510417,0.00390625,1,0,0,center_square,0,3,3,12,1,,,,,,,,,,,,,,,,,,,,,,,
157749,001,2022-11-20_19h57.05.336,Info_measure_main_exp,2022.2.2,Win32,59.74786401,,,,,,,,,,,,,,,,,,masks/mask_002.jpg,,,,,,,,,,,,,,,,,,,,,,,,,,,,,,,,,,,,,,,,,,,0,0,0,1,1,,,,,,,,,,,,,,,,,,,,,,,,,,,,,,,,,,,,,,,,,,,,,,
157749,001,2022-11-20_19h57.05.336,Info_measure_main_exp,2022.2.2,Win32,59.74786401,,,,,,,,,,,,,,,,,,masks/mask_005.jpg,,,,,,,,,,,,,,,,,,,,,,,,,,,,,,,,,,,,,,,,,,,0,1,1,4,1,,,,,,,,,,,,,,,,,,,,,,,,,,,,,,,,,,,,,,,,,,,,,,
157749,001,2022-11-20_19h57.05.336,Info_measure_main_exp,2022.2.2,Win32,59.74786401,,,,,,,,,,,,,,,,,,masks/mask_003.jpg,,,,,,,,,,,,,,,,,,,,,,,,,,,,,,,,,,,,,,,,,,,0,2,2,2,1,,,,,,,,,,,,,,,,,,,,,,,,,,,,,,,,,,,,,,,,,,,,,,
157749,001,2022-11-20_19h57.05.336,Info_measure_main_exp,2022.2.2,Win32,59.74786401,,,,,,,,,,,,,,,,,,masks/mask_001.jpg,,,,,,,,,,,,,,,,,,,,,,,,,,,,,,,,,,,,,,,,,,,0,3,3,0,1,,,,,,,,,,,,,,,,,,,,,,,,,,,,,,,,,,,,,,,,,,,,,,
157749,001,2022-11-20_19h57.05.336,Info_measure_main_exp,2022.2.2,Win32,59.74786401,,,,,,,,,,,,,,,,,,masks/mask_004.jpg,,,,,,,,,,,,,,,,,,,,,,,,,,,,,,,,,,,,,,,,,,,0,4,4,3,1,,,,,,,,,,,,,,,,,,,,,,,,,,,,,,,,,,,,,,,,,,,,,,
157749,001,2022-11-20_19h57.05.336,Info_measure_main_exp,2022.2.2,Win32,59.74786401,,,,,,,,,,,,,,,,,,masks/mask_004.jpg,,,,,,,,,,,,,,,,,,,,,,,,,,,,,,,,,,,,,,,,,,,,,,,,0,0,0,3,1,,,,,,,,,,,,,,,,,,,,,,,,,,,,,,,,,,,,,,,,,
157749,001,2022-11-20_19h57.05.336,Info_measure_main_exp,2022.2.2,Win32,59.74786401,,,,,,,,,,,,,,,,,,masks/mask_005.jpg,,,,,,,,,,,,,,,,,,,,,,,,,,,,,,,,,,,,,,,,,,,,,,,,0,1,1,4,1,,,,,,,,,,,,,,,,,,,,,,,,,,,,,,,,,,,,,,,,,
157749,001,2022-11-20_19h57.05.336,Info_measure_main_exp,2022.2.2,Win32,59.74786401,,,,,,,,,,,,,,,,,,masks/mask_002.jpg,,,,,,,,,,,,,,,,,,,,,,,,,,,,,,,,,,,,,,,,,,,,,,,,0,2,2,1,1,,,,,,,,,,,,,,,,,,,,,,,,,,,,,,,,,,,,,,,,,
157749,001,2022-11-20_19h57.05.336,Info_measure_main_exp,2022.2.2,Win32,59.74786401,,,,,,,,,,,,,,,,,,masks/mask_001.jpg,,,,,,,,,,,,,,,,,,,,,,,,,,,,,,,,,,,,,,,,,,,,,,,,0,3,3,0,1,,,,,,,,,,,,,,,,,,,,,,,,,,,,,,,,,,,,,,,,,
157749,001,2022-11-20_19h57.05.336,Info_measure_main_exp,2022.2.2,Win32,59.74786401,,,,,,,,,,,,,,,,,,masks/mask_003.jpg,,,,,,,,,,,,,,,,,,,,,,,,,,,,,,,,,,,,,,,,,,,,,,,,0,4,4,2,1,,,,,,,,,,,,,,,,,,,,,,,,,,,,,,,,,,,,,,,,,
157749,001,2022-11-20_19h57.05.336,Info_measure_main_exp,2022.2.2,Win32,59.74786401,,,,,,,,,,,,,,,,,,,,,,,,,,,,,,6,1.6332,1,,,,,,,,,,,,1,131,5,5,2238,1,absent_patch/patch0002238.jpg,present_patch/cong_131_5_a.jpg,,,,,,,,,,,,,,,,,,,,0.118489583,0.052083333,1,0,0,response1disk,5,0.005208333,-0.00390625,1,0,0,center_square,0,4,4,104,1,,,,,,,,,,,,,,,,,,,,,,,
157749,001,2022-11-20_19h57.05.336,Info_measure_main_exp,2022.2.2,Win32,59.74786401,,,,,,,,,,,,,,,,,,masks/mask_002.jpg,,,,,,,,,,,,,,,,,,,,,,,,,,,,,,,,,,,,,,,,,,,0,0,0,1,1,,,,,,,,,,,,,,,,,,,,,,,,,,,,,,,,,,,,,,,,,,,,,,
157749,001,2022-11-20_19h57.05.336,Info_measure_main_exp,2022.2.2,Win32,59.74786401,,,,,,,,,,,,,,,,,,masks/mask_003.jpg,,,,,,,,,,,,,,,,,,,,,,,,,,,,,,,,,,,,,,,,,,,0,1,1,2,1,,,,,,,,,,,,,,,,,,,,,,,,,,,,,,,,,,,,,,,,,,,,,,
157749,001,2022-11-20_19h57.05.336,Info_measure_main_exp,2022.2.2,Win32,59.74786401,,,,,,,,,,,,,,,,,,masks/mask_004.jpg,,,,,,,,,,,,,,,,,,,,,,,,,,,,,,,,,,,,,,,,,,,0,2,2,3,1,,,,,,,,,,,,,,,,,,,,,,,,,,,,,,,,,,,,,,,,,,,,,,
157749,001,2022-11-20_19h57.05.336,Info_measure_main_exp,2022.2.2,Win32,59.74786401,,,,,,,,,,,,,,,,,,masks/mask_005.jpg,,,,,,,,,,,,,,,,,,,,,,,,,,,,,,,,,,,,,,,,,,,0,3,3,4,1,,,,,,,,,,,,,,,,,,,,,,,,,,,,,,,,,,,,,,,,,,,,,,
157749,001,2022-11-20_19h57.05.336,Info_measure_main_exp,2022.2.2,Win32,59.74786401,,,,,,,,,,,,,,,,,,masks/mask_001.jpg,,,,,,,,,,,,,,,,,,,,,,,,,,,,,,,,,,,,,,,,,,,0,4,4,0,1,,,,,,,,,,,,,,,,,,,,,,,,,,,,,,,,,,,,,,,,,,,,,,
157749,001,2022-11-20_19h57.05.336,Info_measure_main_exp,2022.2.2,Win32,59.74786401,,,,,,,,,,,,,,,,,,masks/mask_001.jpg,,,,,,,,,,,,,,,,,,,,,,,,,,,,,,,,,,,,,,,,,,,,,,,,0,0,0,0,1,,,,,,,,,,,,,,,,,,,,,,,,,,,,,,,,,,,,,,,,,
157749,001,2022-11-20_19h57.05.336,Info_measure_main_exp,2022.2.2,Win32,59.74786401,,,,,,,,,,,,,,,,,,masks/mask_002.jpg,,,,,,,,,,,,,,,,,,,,,,,,,,,,,,,,,,,,,,,,,,,,,,,,0,1,1,1,1,,,,,,,,,,,,,,,,,,,,,,,,,,,,,,,,,,,,,,,,,
157749,001,2022-11-20_19h57.05.336,Info_measure_main_exp,2022.2.2,Win32,59.74786401,,,,,,,,,,,,,,,,,,masks/mask_005.jpg,,,,,,,,,,,,,,,,,,,,,,,,,,,,,,,,,,,,,,,,,,,,,,,,0,2,2,4,1,,,,,,,,,,,,,,,,,,,,,,,,,,,,,,,,,,,,,,,,,
157749,001,2022-11-20_19h57.05.336,Info_measure_main_exp,2022.2.2,Win32,59.74786401,,,,,,,,,,,,,,,,,,masks/mask_003.jpg,,,,,,,,,,,,,,,,,,,,,,,,,,,,,,,,,,,,,,,,,,,,,,,,0,3,3,2,1,,,,,,,,,,,,,,,,,,,,,,,,,,,,,,,,,,,,,,,,,
157749,001,2022-11-20_19h57.05.336,Info_measure_main_exp,2022.2.2,Win32,59.74786401,,,,,,,,,,,,,,,,,,masks/mask_004.jpg,,,,,,,,,,,,,,,,,,,,,,,,,,,,,,,,,,,,,,,,,,,,,,,,0,4,4,3,1,,,,,,,,,,,,,,,,,,,,,,,,,,,,,,,,,,,,,,,,,
157749,001,2022-11-20_19h57.05.336,Info_measure_main_exp,2022.2.2,Win32,59.74786401,,,,,,,,,,,,,,,,,,,,,,,,,,,,,,7,1.2693,1,,,,,,,,,,,,0,131,5,5,2166,2154,absent_patch/patch0002166.jpg,absent_patch/patch0002154.jpg,,,,,,,,,,,,,,,,,,,,0.061197917,0.1171875,1,0,0,response1disk,6,0.005208333,-0.002604167,1,0,0,center_square,0,5,5,79,1,,,,,,,,,,,,,,,,,,,,,,,
157749,001,2022-11-20_19h57.05.336,Info_measure_main_exp,2022.2.2,Win32,59.74786401,,,,,,,,,,,,,,,,,,masks/mask_004.jpg,,,,,,,,,,,,,,,,,,,,,,,,,,,,,,,,,,,,,,,,,,,0,0,0,3,1,,,,,,,,,,,,,,,,,,,,,,,,,,,,,,,,,,,,,,,,,,,,,,
157749,001,2022-11-20_19h57.05.336,Info_measure_main_exp,2022.2.2,Win32,59.74786401,,,,,,,,,,,,,,,,,,masks/mask_002.jpg,,,,,,,,,,,,,,,,,,,,,,,,,,,,,,,,,,,,,,,,,,,0,1,1,1,1,,,,,,,,,,,,,,,,,,,,,,,,,,,,,,,,,,,,,,,,,,,,,,
157749,001,2022-11-20_19h57.05.336,Info_measure_main_exp,2022.2.2,Win32,59.74786401,,,,,,,,,,,,,,,,,,masks/mask_003.jpg,,,,,,,,,,,,,,,,,,,,,,,,,,,,,,,,,,,,,,,,,,,0,2,2,2,1,,,,,,,,,,,,,,,,,,,,,,,,,,,,,,,,,,,,,,,,,,,,,,
157749,001,2022-11-20_19h57.05.336,Info_measure_main_exp,2022.2.2,Win32,59.74786401,,,,,,,,,,,,,,,,,,masks/mask_001.jpg,,,,,,,,,,,,,,,,,,,,,,,,,,,,,,,,,,,,,,,,,,,0,3,3,0,1,,,,,,,,,,,,,,,,,,,,,,,,,,,,,,,,,,,,,,,,,,,,,,
157749,001,2022-11-20_19h57.05.336,Info_measure_main_exp,2022.2.2,Win32,59.74786401,,,,,,,,,,,,,,,,,,masks/mask_005.jpg,,,,,,,,,,,,,,,,,,,,,,,,,,,,,,,,,,,,,,,,,,,0,4,4,4,1,,,,,,,,,,,,,,,,,,,,,,,,,,,,,,,,,,,,,,,,,,,,,,
157749,001,2022-11-20_19h57.05.336,Info_measure_main_exp,2022.2.2,Win32,59.74786401,,,,,,,,,,,,,,,,,,masks/mask_003.jpg,,,,,,,,,,,,,,,,,,,,,,,,,,,,,,,,,,,,,,,,,,,,,,,,0,0,0,2,1,,,,,,,,,,,,,,,,,,,,,,,,,,,,,,,,,,,,,,,,,
157749,001,2022-11-20_19h57.05.336,Info_measure_main_exp,2022.2.2,Win32,59.74786401,,,,,,,,,,,,,,,,,,masks/mask_002.jpg,,,,,,,,,,,,,,,,,,,,,,,,,,,,,,,,,,,,,,,,,,,,,,,,0,1,1,1,1,,,,,,,,,,,,,,,,,,,,,,,,,,,,,,,,,,,,,,,,,
157749,001,2022-11-20_19h57.05.336,Info_measure_main_exp,2022.2.2,Win32,59.74786401,,,,,,,,,,,,,,,,,,masks/mask_001.jpg,,,,,,,,,,,,,,,,,,,,,,,,,,,,,,,,,,,,,,,,,,,,,,,,0,2,2,0,1,,,,,,,,,,,,,,,,,,,,,,,,,,,,,,,,,,,,,,,,,
157749,001,2022-11-20_19h57.05.336,Info_measure_main_exp,2022.2.2,Win32,59.74786401,,,,,,,,,,,,,,,,,,masks/mask_005.jpg,,,,,,,,,,,,,,,,,,,,,,,,,,,,,,,,,,,,,,,,,,,,,,,,0,3,3,4,1,,,,,,,,,,,,,,,,,,,,,,,,,,,,,,,,,,,,,,,,,
157749,001,2022-11-20_19h57.05.336,Info_measure_main_exp,2022.2.2,Win32,59.74786401,,,,,,,,,,,,,,,,,,masks/mask_004.jpg,,,,,,,,,,,,,,,,,,,,,,,,,,,,,,,,,,,,,,,,,,,,,,,,0,4,4,3,1,,,,,,,,,,,,,,,,,,,,,,,,,,,,,,,,,,,,,,,,,
157749,001,2022-11-20_19h57.05.336,Info_measure_main_exp,2022.2.2,Win32,59.74786401,,,,,,,,,,,,,,,,,,,,,,,,,,,,,,4,1.9972,1,,,,,,,,,,,,0,131,5,5,2190,2166,absent_patch/patch0002190.jpg,absent_patch/patch0002166.jpg,,,,,,,,,,,,,,,,,,,,0.0625,-0.110677083,1,0,0,response3disk,7,-0.001302083,0,1,0,0,center_square,0,6,6,50,1,,,,,,,,,,,,,,,,,,,,,,,
157749,001,2022-11-20_19h57.05.336,Info_measure_main_exp,2022.2.2,Win32,59.74786401,,,,,,,,,,,,,,,,,,masks/mask_002.jpg,,,,,,,,,,,,,,,,,,,,,,,,,,,,,,,,,,,,,,,,,,,0,0,0,1,1,,,,,,,,,,,,,,,,,,,,,,,,,,,,,,,,,,,,,,,,,,,,,,
157749,001,2022-11-20_19h57.05.336,Info_measure_main_exp,2022.2.2,Win32,59.74786401,,,,,,,,,,,,,,,,,,masks/mask_001.jpg,,,,,,,,,,,,,,,,,,,,,,,,,,,,,,,,,,,,,,,,,,,0,1,1,0,1,,,,,,,,,,,,,,,,,,,,,,,,,,,,,,,,,,,,,,,,,,,,,,
157749,001,2022-11-20_19h57.05.336,Info_measure_main_exp,2022.2.2,Win32,59.74786401,,,,,,,,,,,,,,,,,,masks/mask_005.jpg,,,,,,,,,,,,,,,,,,,,,,,,,,,,,,,,,,,,,,,,,,,0,2,2,4,1,,,,,,,,,,,,,,,,,,,,,,,,,,,,,,,,,,,,,,,,,,,,,,
157749,001,2022-11-20_19h57.05.336,Info_measure_main_exp,2022.2.2,Win32,59.74786401,,,,,,,,,,,,,,,,,,masks/mask_003.jpg,,,,,,,,,,,,,,,,,,,,,,,,,,,,,,,,,,,,,,,,,,,0,3,3,2,1,,,,,,,,,,,,,,,,,,,,,,,,,,,,,,,,,,,,,,,,,,,,,,
157749,001,2022-11-20_19h57.05.336,Info_measure_main_exp,2022.2.2,Win32,59.74786401,,,,,,,,,,,,,,,,,,masks/mask_004.jpg,,,,,,,,,,,,,,,,,,,,,,,,,,,,,,,,,,,,,,,,,,,0,4,4,3,1,,,,,,,,,,,,,,,,,,,,,,,,,,,,,,,,,,,,,,,,,,,,,,
157749,001,2022-11-20_19h57.05.336,Info_measure_main_exp,2022.2.2,Win32,59.74786401,,,,,,,,,,,,,,,,,,masks/mask_002.jpg,,,,,,,,,,,,,,,,,,,,,,,,,,,,,,,,,,,,,,,,,,,,,,,,0,0,0,1,1,,,,,,,,,,,,,,,,,,,,,,,,,,,,,,,,,,,,,,,,,
157749,001,2022-11-20_19h57.05.336,Info_measure_main_exp,2022.2.2,Win32,59.74786401,,,,,,,,,,,,,,,,,,masks/mask_003.jpg,,,,,,,,,,,,,,,,,,,,,,,,,,,,,,,,,,,,,,,,,,,,,,,,0,1,1,2,1,,,,,,,,,,,,,,,,,,,,,,,,,,,,,,,,,,,,,,,,,
157749,001,2022-11-20_19h57.05.336,Info_measure_main_exp,2022.2.2,Win32,59.74786401,,,,,,,,,,,,,,,,,,masks/mask_005.jpg,,,,,,,,,,,,,,,,,,,,,,,,,,,,,,,,,,,,,,,,,,,,,,,,0,2,2,4,1,,,,,,,,,,,,,,,,,,,,,,,,,,,,,,,,,,,,,,,,,
157749,001,2022-11-20_19h57.05.336,Info_measure_main_exp,2022.2.2,Win32,59.74786401,,,,,,,,,,,,,,,,,,masks/mask_004.jpg,,,,,,,,,,,,,,,,,,,,,,,,,,,,,,,,,,,,,,,,,,,,,,,,0,3,3,3,1,,,,,,,,,,,,,,,,,,,,,,,,,,,,,,,,,,,,,,,,,
157749,001,2022-11-20_19h57.05.336,Info_measure_main_exp,2022.2.2,Win32,59.74786401,,,,,,,,,,,,,,,,,,masks/mask_001.jpg,,,,,,,,,,,,,,,,,,,,,,,,,,,,,,,,,,,,,,,,,,,,,,,,0,4,4,0,1,,,,,,,,,,,,,,,,,,,,,,,,,,,,,,,,,,,,,,,,,
157749,001,2022-11-20_19h57.05.336,Info_measure_main_exp,2022.2.2,Win32,59.74786401,,,,,,,,,,,,,,,,,,,,,,,,,,,,,,6,1.6666,1,,,,,,,,,,,,0,131,5,5,2166,2298,absent_patch/patch0002166.jpg,absent_patch/patch0002298.jpg,,,,,,,,,,,,,,,,,,,,0.17578125,0.05859375,1,0,0,response1disk,8,-0.01171875,-0.00390625,1,0,0,center_square,0,7,7,52,1,,,,,,,,,,,,,,,,,,,,,,,
157749,001,2022-11-20_19h57.05.336,Info_measure_main_exp,2022.2.2,Win32,59.74786401,,,,,,,,,,,,,,,,,,masks/mask_003.jpg,,,,,,,,,,,,,,,,,,,,,,,,,,,,,,,,,,,,,,,,,,,0,0,0,2,1,,,,,,,,,,,,,,,,,,,,,,,,,,,,,,,,,,,,,,,,,,,,,,
157749,001,2022-11-20_19h57.05.336,Info_measure_main_exp,2022.2.2,Win32,59.74786401,,,,,,,,,,,,,,,,,,masks/mask_001.jpg,,,,,,,,,,,,,,,,,,,,,,,,,,,,,,,,,,,,,,,,,,,0,1,1,0,1,,,,,,,,,,,,,,,,,,,,,,,,,,,,,,,,,,,,,,,,,,,,,,
157749,001,2022-11-20_19h57.05.336,Info_measure_main_exp,2022.2.2,Win32,59.74786401,,,,,,,,,,,,,,,,,,masks/mask_002.jpg,,,,,,,,,,,,,,,,,,,,,,,,,,,,,,,,,,,,,,,,,,,0,2,2,1,1,,,,,,,,,,,,,,,,,,,,,,,,,,,,,,,,,,,,,,,,,,,,,,
157749,001,2022-11-20_19h57.05.336,Info_measure_main_exp,2022.2.2,Win32,59.74786401,,,,,,,,,,,,,,,,,,masks/mask_004.jpg,,,,,,,,,,,,,,,,,,,,,,,,,,,,,,,,,,,,,,,,,,,0,3,3,3,1,,,,,,,,,,,,,,,,,,,,,,,,,,,,,,,,,,,,,,,,,,,,,,
157749,001,2022-11-20_19h57.05.336,Info_measure_main_exp,2022.2.2,Win32,59.74786401,,,,,,,,,,,,,,,,,,masks/mask_005.jpg,,,,,,,,,,,,,,,,,,,,,,,,,,,,,,,,,,,,,,,,,,,0,4,4,4,1,,,,,,,,,,,,,,,,,,,,,,,,,,,,,,,,,,,,,,,,,,,,,,
157749,001,2022-11-20_19h57.05.336,Info_measure_main_exp,2022.2.2,Win32,59.74786401,,,,,,,,,,,,,,,,,,masks/mask_003.jpg,,,,,,,,,,,,,,,,,,,,,,,,,,,,,,,,,,,,,,,,,,,,,,,,0,0,0,2,1,,,,,,,,,,,,,,,,,,,,,,,,,,,,,,,,,,,,,,,,,
157749,001,2022-11-20_19h57.05.336,Info_measure_main_exp,2022.2.2,Win32,59.74786401,,,,,,,,,,,,,,,,,,masks/mask_001.jpg,,,,,,,,,,,,,,,,,,,,,,,,,,,,,,,,,,,,,,,,,,,,,,,,0,1,1,0,1,,,,,,,,,,,,,,,,,,,,,,,,,,,,,,,,,,,,,,,,,
157749,001,2022-11-20_19h57.05.336,Info_measure_main_exp,2022.2.2,Win32,59.74786401,,,,,,,,,,,,,,,,,,masks/mask_005.jpg,,,,,,,,,,,,,,,,,,,,,,,,,,,,,,,,,,,,,,,,,,,,,,,,0,2,2,4,1,,,,,,,,,,,,,,,,,,,,,,,,,,,,,,,,,,,,,,,,,
157749,001,2022-11-20_19h57.05.336,Info_measure_main_exp,2022.2.2,Win32,59.74786401,,,,,,,,,,,,,,,,,,masks/mask_004.jpg,,,,,,,,,,,,,,,,,,,,,,,,,,,,,,,,,,,,,,,,,,,,,,,,0,3,3,3,1,,,,,,,,,,,,,,,,,,,,,,,,,,,,,,,,,,,,,,,,,
157749,001,2022-11-20_19h57.05.336,Info_measure_main_exp,2022.2.2,Win32,59.74786401,,,,,,,,,,,,,,,,,,masks/mask_002.jpg,,,,,,,,,,,,,,,,,,,,,,,,,,,,,,,,,,,,,,,,,,,,,,,,0,4,4,1,1,,,,,,,,,,,,,,,,,,,,,,,,,,,,,,,,,,,,,,,,,
157749,001,2022-11-20_19h57.05.336,Info_measure_main_exp,2022.2.2,Win32,59.74786401,,,,,,,,,,,,,,,,,,,,,,,,,,,,,,7,1.5013,1,,,,,,,,,,,,0,131,5,5,1986,2238,absent_patch/patch0001986.jpg,absent_patch/patch0002238.jpg,,,,,,,,,,,,,,,,,,,,0.098958333,0.1484375,1,0,0,response1disk,9,0.006510417,-0.001302083,1,0,0,center_square,0,8,8,31,1,,,,,,,,,,,,,,,,,,,,,,,
157749,001,2022-11-20_19h57.05.336,Info_measure_main_exp,2022.2.2,Win32,59.74786401,,,,,,,,,,,,,,,,,,masks/mask_003.jpg,,,,,,,,,,,,,,,,,,,,,,,,,,,,,,,,,,,,,,,,,,,0,0,0,2,1,,,,,,,,,,,,,,,,,,,,,,,,,,,,,,,,,,,,,,,,,,,,,,
157749,001,2022-11-20_19h57.05.336,Info_measure_main_exp,2022.2.2,Win32,59.74786401,,,,,,,,,,,,,,,,,,masks/mask_005.jpg,,,,,,,,,,,,,,,,,,,,,,,,,,,,,,,,,,,,,,,,,,,0,1,1,4,1,,,,,,,,,,,,,,,,,,,,,,,,,,,,,,,,,,,,,,,,,,,,,,
157749,001,2022-11-20_19h57.05.336,Info_measure_main_exp,2022.2.2,Win32,59.74786401,,,,,,,,,,,,,,,,,,masks/mask_001.jpg,,,,,,,,,,,,,,,,,,,,,,,,,,,,,,,,,,,,,,,,,,,0,2,2,0,1,,,,,,,,,,,,,,,,,,,,,,,,,,,,,,,,,,,,,,,,,,,,,,
157749,001,2022-11-20_19h57.05.336,Info_measure_main_exp,2022.2.2,Win32,59.74786401,,,,,,,,,,,,,,,,,,masks/mask_002.jpg,,,,,,,,,,,,,,,,,,,,,,,,,,,,,,,,,,,,,,,,,,,0,3,3,1,1,,,,,,,,,,,,,,,,,,,,,,,,,,,,,,,,,,,,,,,,,,,,,,
157749,001,2022-11-20_19h57.05.336,Info_measure_main_exp,2022.2.2,Win32,59.74786401,,,,,,,,,,,,,,,,,,masks/mask_004.jpg,,,,,,,,,,,,,,,,,,,,,,,,,,,,,,,,,,,,,,,,,,,0,4,4,3,1,,,,,,,,,,,,,,,,,,,,,,,,,,,,,,,,,,,,,,,,,,,,,,
157749,001,2022-11-20_19h57.05.336,Info_measure_main_exp,2022.2.2,Win32,59.74786401,,,,,,,,,,,,,,,,,,masks/mask_001.jpg,,,,,,,,,,,,,,,,,,,,,,,,,,,,,,,,,,,,,,,,,,,,,,,,0,0,0,0,1,,,,,,,,,,,,,,,,,,,,,,,,,,,,,,,,,,,,,,,,,
157749,001,2022-11-20_19h57.05.336,Info_measure_main_exp,2022.2.2,Win32,59.74786401,,,,,,,,,,,,,,,,,,masks/mask_004.jpg,,,,,,,,,,,,,,,,,,,,,,,,,,,,,,,,,,,,,,,,,,,,,,,,0,1,1,3,1,,,,,,,,,,,,,,,,,,,,,,,,,,,,,,,,,,,,,,,,,
157749,001,2022-11-20_19h57.05.336,Info_measure_main_exp,2022.2.2,Win32,59.74786401,,,,,,,,,,,,,,,,,,masks/mask_003.jpg,,,,,,,,,,,,,,,,,,,,,,,,,,,,,,,,,,,,,,,,,,,,,,,,0,2,2,2,1,,,,,,,,,,,,,,,,,,,,,,,,,,,,,,,,,,,,,,,,,
157749,001,2022-11-20_19h57.05.336,Info_measure_main_exp,2022.2.2,Win32,59.74786401,,,,,,,,,,,,,,,,,,masks/mask_005.jpg,,,,,,,,,,,,,,,,,,,,,,,,,,,,,,,,,,,,,,,,,,,,,,,,0,3,3,4,1,,,,,,,,,,,,,,,,,,,,,,,,,,,,,,,,,,,,,,,,,
157749,001,2022-11-20_19h57.05.336,Info_measure_main_exp,2022.2.2,Win32,59.74786401,,,,,,,,,,,,,,,,,,masks/mask_002.jpg,,,,,,,,,,,,,,,,,,,,,,,,,,,,,,,,,,,,,,,,,,,,,,,,0,4,4,1,1,,,,,,,,,,,,,,,,,,,,,,,,,,,,,,,,,,,,,,,,,
157749,001,2022-11-20_19h57.05.336,Info_measure_main_exp,2022.2.2,Win32,59.74786401,,,,,,,,,,,,,,,,,,,,,,,,,,,,,,3,1.7503,1,,,,,,,,,,,,0,131,5,5,2274,2238,absent_patch/patch0002274.jpg,absent_patch/patch0002238.jpg,,,,,,,,,,,,,,,,,,,,-0.071614583,-0.115885417,1,0,0,response5disk,10,-0.001302083,-0.001302083,1,0,0,center_square,0,9,9,91,1,,,,,,,,,,,,,,,,,,,,,,,
157749,001,2022-11-20_19h57.05.336,Info_measure_main_exp,2022.2.2,Win32,59.74786401,,,,,,,,,,,,,,,,,,masks/mask_004.jpg,,,,,,,,,,,,,,,,,,,,,,,,,,,,,,,,,,,,,,,,,,,0,0,0,3,1,,,,,,,,,,,,,,,,,,,,,,,,,,,,,,,,,,,,,,,,,,,,,,
157749,001,2022-11-20_19h57.05.336,Info_measure_main_exp,2022.2.2,Win32,59.74786401,,,,,,,,,,,,,,,,,,masks/mask_003.jpg,,,,,,,,,,,,,,,,,,,,,,,,,,,,,,,,,,,,,,,,,,,0,1,1,2,1,,,,,,,,,,,,,,,,,,,,,,,,,,,,,,,,,,,,,,,,,,,,,,
157749,001,2022-11-20_19h57.05.336,Info_measure_main_exp,2022.2.2,Win32,59.74786401,,,,,,,,,,,,,,,,,,masks/mask_005.jpg,,,,,,,,,,,,,,,,,,,,,,,,,,,,,,,,,,,,,,,,,,,0,2,2,4,1,,,,,,,,,,,,,,,,,,,,,,,,,,,,,,,,,,,,,,,,,,,,,,
157749,001,2022-11-20_19h57.05.336,Info_measure_main_exp,2022.2.2,Win32,59.74786401,,,,,,,,,,,,,,,,,,masks/mask_001.jpg,,,,,,,,,,,,,,,,,,,,,,,,,,,,,,,,,,,,,,,,,,,0,3,3,0,1,,,,,,,,,,,,,,,,,,,,,,,,,,,,,,,,,,,,,,,,,,,,,,
157749,001,2022-11-20_19h57.05.336,Info_measure_main_exp,2022.2.2,Win32,59.74786401,,,,,,,,,,,,,,,,,,masks/mask_002.jpg,,,,,,,,,,,,,,,,,,,,,,,,,,,,,,,,,,,,,,,,,,,0,4,4,1,1,,,,,,,,,,,,,,,,,,,,,,,,,,,,,,,,,,,,,,,,,,,,,,
157749,001,2022-11-20_19h57.05.336,Info_measure_main_exp,2022.2.2,Win32,59.74786401,,,,,,,,,,,,,,,,,,masks/mask_003.jpg,,,,,,,,,,,,,,,,,,,,,,,,,,,,,,,,,,,,,,,,,,,,,,,,0,0,0,2,1,,,,,,,,,,,,,,,,,,,,,,,,,,,,,,,,,,,,,,,,,
157749,001,2022-11-20_19h57.05.336,Info_measure_main_exp,2022.2.2,Win32,59.74786401,,,,,,,,,,,,,,,,,,masks/mask_004.jpg,,,,,,,,,,,,,,,,,,,,,,,,,,,,,,,,,,,,,,,,,,,,,,,,0,1,1,3,1,,,,,,,,,,,,,,,,,,,,,,,,,,,,,,,,,,,,,,,,,
157749,001,2022-11-20_19h57.05.336,Info_measure_main_exp,2022.2.2,Win32,59.74786401,,,,,,,,,,,,,,,,,,masks/mask_001.jpg,,,,,,,,,,,,,,,,,,,,,,,,,,,,,,,,,,,,,,,,,,,,,,,,0,2,2,0,1,,,,,,,,,,,,,,,,,,,,,,,,,,,,,,,,,,,,,,,,,
157749,001,2022-11-20_19h57.05.336,Info_measure_main_exp,2022.2.2,Win32,59.74786401,,,,,,,,,,,,,,,,,,masks/mask_002.jpg,,,,,,,,,,,,,,,,,,,,,,,,,,,,,,,,,,,,,,,,,,,,,,,,0,3,3,1,1,,,,,,,,,,,,,,,,,,,,,,,,,,,,,,,,,,,,,,,,,
157749,001,2022-11-20_19h57.05.336,Info_measure_main_exp,2022.2.2,Win32,59.74786401,,,,,,,,,,,,,,,,,,masks/mask_005.jpg,,,,,,,,,,,,,,,,,,,,,,,,,,,,,,,,,,,,,,,,,,,,,,,,0,4,4,4,1,,,,,,,,,,,,,,,,,,,,,,,,,,,,,,,,,,,,,,,,,
157749,001,2022-11-20_19h57.05.336,Info_measure_main_exp,2022.2.2,Win32,59.74786401,,,,,,,,,,,,,,,,,,,,,,,,,,,,,,5,1.4682,1,,,,,,,,,,,,0,131,5,5,2274,2214,absent_patch/patch0002274.jpg,absent_patch/patch0002214.jpg,,,,,,,,,,,,,,,,,,,,0.109375,-0.059895833,1,0,0,response3disk,11,-0.005208333,0.01171875,1,0,0,center_square,0,10,10,11,1,,,,,,,,,,,,,,,,,,,,,,,
157749,001,2022-11-20_19h57.05.336,Info_measure_main_exp,2022.2.2,Win32,59.74786401,,,,,,,,,,,,,,,,,,masks/mask_003.jpg,,,,,,,,,,,,,,,,,,,,,,,,,,,,,,,,,,,,,,,,,,,0,0,0,2,1,,,,,,,,,,,,,,,,,,,,,,,,,,,,,,,,,,,,,,,,,,,,,,
157749,001,2022-11-20_19h57.05.336,Info_measure_main_exp,2022.2.2,Win32,59.74786401,,,,,,,,,,,,,,,,,,masks/mask_005.jpg,,,,,,,,,,,,,,,,,,,,,,,,,,,,,,,,,,,,,,,,,,,0,1,1,4,1,,,,,,,,,,,,,,,,,,,,,,,,,,,,,,,,,,,,,,,,,,,,,,
157749,001,2022-11-20_19h57.05.336,Info_measure_main_exp,2022.2.2,Win32,59.74786401,,,,,,,,,,,,,,,,,,masks/mask_004.jpg,,,,,,,,,,,,,,,,,,,,,,,,,,,,,,,,,,,,,,,,,,,0,2,2,3,1,,,,,,,,,,,,,,,,,,,,,,,,,,,,,,,,,,,,,,,,,,,,,,
157749,001,2022-11-20_19h57.05.336,Info_measure_main_exp,2022.2.2,Win32,59.74786401,,,,,,,,,,,,,,,,,,masks/mask_001.jpg,,,,,,,,,,,,,,,,,,,,,,,,,,,,,,,,,,,,,,,,,,,0,3,3,0,1,,,,,,,,,,,,,,,,,,,,,,,,,,,,,,,,,,,,,,,,,,,,,,
157749,001,2022-11-20_19h57.05.336,Info_measure_main_exp,2022.2.2,Win32,59.74786401,,,,,,,,,,,,,,,,,,masks/mask_002.jpg,,,,,,,,,,,,,,,,,,,,,,,,,,,,,,,,,,,,,,,,,,,0,4,4,1,1,,,,,,,,,,,,,,,,,,,,,,,,,,,,,,,,,,,,,,,,,,,,,,
157749,001,2022-11-20_19h57.05.336,Info_measure_main_exp,2022.2.2,Win32,59.74786401,,,,,,,,,,,,,,,,,,masks/mask_002.jpg,,,,,,,,,,,,,,,,,,,,,,,,,,,,,,,,,,,,,,,,,,,,,,,,0,0,0,1,1,,,,,,,,,,,,,,,,,,,,,,,,,,,,,,,,,,,,,,,,,
157749,001,2022-11-20_19h57.05.336,Info_measure_main_exp,2022.2.2,Win32,59.74786401,,,,,,,,,,,,,,,,,,masks/mask_005.jpg,,,,,,,,,,,,,,,,,,,,,,,,,,,,,,,,,,,,,,,,,,,,,,,,0,1,1,4,1,,,,,,,,,,,,,,,,,,,,,,,,,,,,,,,,,,,,,,,,,
157749,001,2022-11-20_19h57.05.336,Info_measure_main_exp,2022.2.2,Win32,59.74786401,,,,,,,,,,,,,,,,,,masks/mask_004.jpg,,,,,,,,,,,,,,,,,,,,,,,,,,,,,,,,,,,,,,,,,,,,,,,,0,2,2,3,1,,,,,,,,,,,,,,,,,,,,,,,,,,,,,,,,,,,,,,,,,
157749,001,2022-11-20_19h57.05.336,Info_measure_main_exp,2022.2.2,Win32,59.74786401,,,,,,,,,,,,,,,,,,masks/mask_001.jpg,,,,,,,,,,,,,,,,,,,,,,,,,,,,,,,,,,,,,,,,,,,,,,,,0,3,3,0,1,,,,,,,,,,,,,,,,,,,,,,,,,,,,,,,,,,,,,,,,,
157749,001,2022-11-20_19h57.05.336,Info_measure_main_exp,2022.2.2,Win32,59.74786401,,,,,,,,,,,,,,,,,,masks/mask_003.jpg,,,,,,,,,,,,,,,,,,,,,,,,,,,,,,,,,,,,,,,,,,,,,,,,0,4,4,2,1,,,,,,,,,,,,,,,,,,,,,,,,,,,,,,,,,,,,,,,,,
157749,001,2022-11-20_19h57.05.336,Info_measure_main_exp,2022.2.2,Win32,59.74786401,,,,,,,,,,,,,,,,,,,,,,,,,,,,,,3,1.6353,1,,,,,,,,,,,,0,131,5,5,2214,2142,absent_patch/patch0002214.jpg,absent_patch/patch0002142.jpg,,,,,,,,,,,,,,,,,,,,-0.061197917,-0.135416667,1,0,0,response5disk,12,-0.005208333,0,1,0,0,center_square,0,11,11,102,1,,,,,,,,,,,,,,,,,,,,,,,
157749,001,2022-11-20_19h57.05.336,Info_measure_main_exp,2022.2.2,Win32,59.74786401,,,,,,,,,,,,,,,,,,masks/mask_001.jpg,,,,,,,,,,,,,,,,,,,,,,,,,,,,,,,,,,,,,,,,,,,0,0,0,0,1,,,,,,,,,,,,,,,,,,,,,,,,,,,,,,,,,,,,,,,,,,,,,,
157749,001,2022-11-20_19h57.05.336,Info_measure_main_exp,2022.2.2,Win32,59.74786401,,,,,,,,,,,,,,,,,,masks/mask_004.jpg,,,,,,,,,,,,,,,,,,,,,,,,,,,,,,,,,,,,,,,,,,,0,1,1,3,1,,,,,,,,,,,,,,,,,,,,,,,,,,,,,,,,,,,,,,,,,,,,,,
157749,001,2022-11-20_19h57.05.336,Info_measure_main_exp,2022.2.2,Win32,59.74786401,,,,,,,,,,,,,,,,,,masks/mask_005.jpg,,,,,,,,,,,,,,,,,,,,,,,,,,,,,,,,,,,,,,,,,,,0,2,2,4,1,,,,,,,,,,,,,,,,,,,,,,,,,,,,,,,,,,,,,,,,,,,,,,
157749,001,2022-11-20_19h57.05.336,Info_measure_main_exp,2022.2.2,Win32,59.74786401,,,,,,,,,,,,,,,,,,masks/mask_002.jpg,,,,,,,,,,,,,,,,,,,,,,,,,,,,,,,,,,,,,,,,,,,0,3,3,1,1,,,,,,,,,,,,,,,,,,,,,,,,,,,,,,,,,,,,,,,,,,,,,,
157749,001,2022-11-20_19h57.05.336,Info_measure_main_exp,2022.2.2,Win32,59.74786401,,,,,,,,,,,,,,,,,,masks/mask_003.jpg,,,,,,,,,,,,,,,,,,,,,,,,,,,,,,,,,,,,,,,,,,,0,4,4,2,1,,,,,,,,,,,,,,,,,,,,,,,,,,,,,,,,,,,,,,,,,,,,,,
157749,001,2022-11-20_19h57.05.336,Info_measure_main_exp,2022.2.2,Win32,59.74786401,,,,,,,,,,,,,,,,,,masks/mask_001.jpg,,,,,,,,,,,,,,,,,,,,,,,,,,,,,,,,,,,,,,,,,,,,,,,,0,0,0,0,1,,,,,,,,,,,,,,,,,,,,,,,,,,,,,,,,,,,,,,,,,
157749,001,2022-11-20_19h57.05.336,Info_measure_main_exp,2022.2.2,Win32,59.74786401,,,,,,,,,,,,,,,,,,masks/mask_004.jpg,,,,,,,,,,,,,,,,,,,,,,,,,,,,,,,,,,,,,,,,,,,,,,,,0,1,1,3,1,,,,,,,,,,,,,,,,,,,,,,,,,,,,,,,,,,,,,,,,,
157749,001,2022-11-20_19h57.05.336,Info_measure_main_exp,2022.2.2,Win32,59.74786401,,,,,,,,,,,,,,,,,,masks/mask_002.jpg,,,,,,,,,,,,,,,,,,,,,,,,,,,,,,,,,,,,,,,,,,,,,,,,0,2,2,1,1,,,,,,,,,,,,,,,,,,,,,,,,,,,,,,,,,,,,,,,,,
157749,001,2022-11-20_19h57.05.336,Info_measure_main_exp,2022.2.2,Win32,59.74786401,,,,,,,,,,,,,,,,,,masks/mask_003.jpg,,,,,,,,,,,,,,,,,,,,,,,,,,,,,,,,,,,,,,,,,,,,,,,,0,3,3,2,1,,,,,,,,,,,,,,,,,,,,,,,,,,,,,,,,,,,,,,,,,
157749,001,2022-11-20_19h57.05.336,Info_measure_main_exp,2022.2.2,Win32,59.74786401,,,,,,,,,,,,,,,,,,masks/mask_005.jpg,,,,,,,,,,,,,,,,,,,,,,,,,,,,,,,,,,,,,,,,,,,,,,,,0,4,4,4,1,,,,,,,,,,,,,,,,,,,,,,,,,,,,,,,,,,,,,,,,,
157749,001,2022-11-20_19h57.05.336,Info_measure_main_exp,2022.2.2,Win32,59.74786401,,,,,,,,,,,,,,,,,,,,,,,,,,,,,,1,1.6356,1,,,,,,,,,,,,0,131,5,5,2298,2214,absent_patch/patch0002298.jpg,absent_patch/patch0002214.jpg,,,,,,,,,,,,,,,,,,,,-0.075520833,0.026041667,1,0,0,response7disk,13,-0.002604167,0.00390625,1,0,0,center_square,0,12,12,99,1,,,,,,,,,,,,,,,,,,,,,,,
157749,001,2022-11-20_19h57.05.336,Info_measure_main_exp,2022.2.2,Win32,59.74786401,,,,,,,,,,,,,,,,,,masks/mask_003.jpg,,,,,,,,,,,,,,,,,,,,,,,,,,,,,,,,,,,,,,,,,,,0,0,0,2,1,,,,,,,,,,,,,,,,,,,,,,,,,,,,,,,,,,,,,,,,,,,,,,
157749,001,2022-11-20_19h57.05.336,Info_measure_main_exp,2022.2.2,Win32,59.74786401,,,,,,,,,,,,,,,,,,masks/mask_005.jpg,,,,,,,,,,,,,,,,,,,,,,,,,,,,,,,,,,,,,,,,,,,0,1,1,4,1,,,,,,,,,,,,,,,,,,,,,,,,,,,,,,,,,,,,,,,,,,,,,,
157749,001,2022-11-20_19h57.05.336,Info_measure_main_exp,2022.2.2,Win32,59.74786401,,,,,,,,,,,,,,,,,,masks/mask_002.jpg,,,,,,,,,,,,,,,,,,,,,,,,,,,,,,,,,,,,,,,,,,,0,2,2,1,1,,,,,,,,,,,,,,,,,,,,,,,,,,,,,,,,,,,,,,,,,,,,,,
157749,001,2022-11-20_19h57.05.336,Info_measure_main_exp,2022.2.2,Win32,59.74786401,,,,,,,,,,,,,,,,,,masks/mask_001.jpg,,,,,,,,,,,,,,,,,,,,,,,,,,,,,,,,,,,,,,,,,,,0,3,3,0,1,,,,,,,,,,,,,,,,,,,,,,,,,,,,,,,,,,,,,,,,,,,,,,
157749,001,2022-11-20_19h57.05.336,Info_measure_main_exp,2022.2.2,Win32,59.74786401,,,,,,,,,,,,,,,,,,masks/mask_004.jpg,,,,,,,,,,,,,,,,,,,,,,,,,,,,,,,,,,,,,,,,,,,0,4,4,3,1,,,,,,,,,,,,,,,,,,,,,,,,,,,,,,,,,,,,,,,,,,,,,,
157749,001,2022-11-20_19h57.05.336,Info_measure_main_exp,2022.2.2,Win32,59.74786401,,,,,,,,,,,,,,,,,,masks/mask_001.jpg,,,,,,,,,,,,,,,,,,,,,,,,,,,,,,,,,,,,,,,,,,,,,,,,0,0,0,0,1,,,,,,,,,,,,,,,,,,,,,,,,,,,,,,,,,,,,,,,,,
157749,001,2022-11-20_19h57.05.336,Info_measure_main_exp,2022.2.2,Win32,59.74786401,,,,,,,,,,,,,,,,,,masks/mask_002.jpg,,,,,,,,,,,,,,,,,,,,,,,,,,,,,,,,,,,,,,,,,,,,,,,,0,1,1,1,1,,,,,,,,,,,,,,,,,,,,,,,,,,,,,,,,,,,,,,,,,
157749,001,2022-11-20_19h57.05.336,Info_measure_main_exp,2022.2.2,Win32,59.74786401,,,,,,,,,,,,,,,,,,masks/mask_004.jpg,,,,,,,,,,,,,,,,,,,,,,,,,,,,,,,,,,,,,,,,,,,,,,,,0,2,2,3,1,,,,,,,,,,,,,,,,,,,,,,,,,,,,,,,,,,,,,,,,,
157749,001,2022-11-20_19h57.05.336,Info_measure_main_exp,2022.2.2,Win32,59.74786401,,,,,,,,,,,,,,,,,,masks/mask_003.jpg,,,,,,,,,,,,,,,,,,,,,,,,,,,,,,,,,,,,,,,,,,,,,,,,0,3,3,2,1,,,,,,,,,,,,,,,,,,,,,,,,,,,,,,,,,,,,,,,,,
157749,001,2022-11-20_19h57.05.336,Info_measure_main_exp,2022.2.2,Win32,59.74786401,,,,,,,,,,,,,,,,,,masks/mask_005.jpg,,,,,,,,,,,,,,,,,,,,,,,,,,,,,,,,,,,,,,,,,,,,,,,,0,4,4,4,1,,,,,,,,,,,,,,,,,,,,,,,,,,,,,,,,,,,,,,,,,
157749,001,2022-11-20_19h57.05.336,Info_measure_main_exp,2022.2.2,Win32,59.74786401,,,,,,,,,,,,,,,,,,,,,,,,,,,,,,2,2.2522,1,,,,,,,,,,,,0,131,5,5,1950,2166,absent_patch/patch0001950.jpg,absent_patch/patch0002166.jpg,,,,,,,,,,,,,,,,,,,,-0.11328125,-0.072916667,1,0,0,response5disk,14,0.00390625,-0.002604167,1,0,0,center_square,0,13,13,0,1,,,,,,,,,,,,,,,,,,,,,,,
157749,001,2022-11-20_19h57.05.336,Info_measure_main_exp,2022.2.2,Win32,59.74786401,,,,,,,,,,,,,,,,,,masks/mask_004.jpg,,,,,,,,,,,,,,,,,,,,,,,,,,,,,,,,,,,,,,,,,,,0,0,0,3,1,,,,,,,,,,,,,,,,,,,,,,,,,,,,,,,,,,,,,,,,,,,,,,
157749,001,2022-11-20_19h57.05.336,Info_measure_main_exp,2022.2.2,Win32,59.74786401,,,,,,,,,,,,,,,,,,masks/mask_003.jpg,,,,,,,,,,,,,,,,,,,,,,,,,,,,,,,,,,,,,,,,,,,0,1,1,2,1,,,,,,,,,,,,,,,,,,,,,,,,,,,,,,,,,,,,,,,,,,,,,,
157749,001,2022-11-20_19h57.05.336,Info_measure_main_exp,2022.2.2,Win32,59.74786401,,,,,,,,,,,,,,,,,,masks/mask_002.jpg,,,,,,,,,,,,,,,,,,,,,,,,,,,,,,,,,,,,,,,,,,,0,2,2,1,1,,,,,,,,,,,,,,,,,,,,,,,,,,,,,,,,,,,,,,,,,,,,,,
157749,001,2022-11-20_19h57.05.336,Info_measure_main_exp,2022.2.2,Win32,59.74786401,,,,,,,,,,,,,,,,,,masks/mask_001.jpg,,,,,,,,,,,,,,,,,,,,,,,,,,,,,,,,,,,,,,,,,,,0,3,3,0,1,,,,,,,,,,,,,,,,,,,,,,,,,,,,,,,,,,,,,,,,,,,,,,
157749,001,2022-11-20_19h57.05.336,Info_measure_main_exp,2022.2.2,Win32,59.74786401,,,,,,,,,,,,,,,,,,masks/mask_005.jpg,,,,,,,,,,,,,,,,,,,,,,,,,,,,,,,,,,,,,,,,,,,0,4,4,4,1,,,,,,,,,,,,,,,,,,,,,,,,,,,,,,,,,,,,,,,,,,,,,,
157749,001,2022-11-20_19h57.05.336,Info_measure_main_exp,2022.2.2,Win32,59.74786401,,,,,,,,,,,,,,,,,,masks/mask_001.jpg,,,,,,,,,,,,,,,,,,,,,,,,,,,,,,,,,,,,,,,,,,,,,,,,0,0,0,0,1,,,,,,,,,,,,,,,,,,,,,,,,,,,,,,,,,,,,,,,,,
157749,001,2022-11-20_19h57.05.336,Info_measure_main_exp,2022.2.2,Win32,59.74786401,,,,,,,,,,,,,,,,,,masks/mask_002.jpg,,,,,,,,,,,,,,,,,,,,,,,,,,,,,,,,,,,,,,,,,,,,,,,,0,1,1,1,1,,,,,,,,,,,,,,,,,,,,,,,,,,,,,,,,,,,,,,,,,
157749,001,2022-11-20_19h57.05.336,Info_measure_main_exp,2022.2.2,Win32,59.74786401,,,,,,,,,,,,,,,,,,masks/mask_004.jpg,,,,,,,,,,,,,,,,,,,,,,,,,,,,,,,,,,,,,,,,,,,,,,,,0,2,2,3,1,,,,,,,,,,,,,,,,,,,,,,,,,,,,,,,,,,,,,,,,,
157749,001,2022-11-20_19h57.05.336,Info_measure_main_exp,2022.2.2,Win32,59.74786401,,,,,,,,,,,,,,,,,,masks/mask_003.jpg,,,,,,,,,,,,,,,,,,,,,,,,,,,,,,,,,,,,,,,,,,,,,,,,0,3,3,2,1,,,,,,,,,,,,,,,,,,,,,,,,,,,,,,,,,,,,,,,,,
157749,001,2022-11-20_19h57.05.336,Info_measure_main_exp,2022.2.2,Win32,59.74786401,,,,,,,,,,,,,,,,,,masks/mask_005.jpg,,,,,,,,,,,,,,,,,,,,,,,,,,,,,,,,,,,,,,,,,,,,,,,,0,4,4,4,1,,,,,,,,,,,,,,,,,,,,,,,,,,,,,,,,,,,,,,,,,
157749,001,2022-11-20_19h57.05.336,Info_measure_main_exp,2022.2.2,Win32,59.74786401,,,,,,,,,,,,,,,,,,,,,,,,,,,,,,0,1.1174,1,,,,,,,,,,,,0,131,5,5,1974,1974,absent_patch/patch0001974.jpg,absent_patch/patch0001974.jpg,,,,,,,,,,,,,,,,,,,,-0.052083333,0.1328125,1,0,0,response7disk,15,0.002604167,-0.001302083,1,0,0,center_square,0,14,14,113,1,,,,,,,,,,,,,,,,,,,,,,,
157749,001,2022-11-20_19h57.05.336,Info_measure_main_exp,2022.2.2,Win32,59.74786401,,,,,,,,,,,,,,,,,,masks/mask_002.jpg,,,,,,,,,,,,,,,,,,,,,,,,,,,,,,,,,,,,,,,,,,,0,0,0,1,1,,,,,,,,,,,,,,,,,,,,,,,,,,,,,,,,,,,,,,,,,,,,,,
157749,001,2022-11-20_19h57.05.336,Info_measure_main_exp,2022.2.2,Win32,59.74786401,,,,,,,,,,,,,,,,,,masks/mask_004.jpg,,,,,,,,,,,,,,,,,,,,,,,,,,,,,,,,,,,,,,,,,,,0,1,1,3,1,,,,,,,,,,,,,,,,,,,,,,,,,,,,,,,,,,,,,,,,,,,,,,
157749,001,2022-11-20_19h57.05.336,Info_measure_main_exp,2022.2.2,Win32,59.74786401,,,,,,,,,,,,,,,,,,masks/mask_001.jpg,,,,,,,,,,,,,,,,,,,,,,,,,,,,,,,,,,,,,,,,,,,0,2,2,0,1,,,,,,,,,,,,,,,,,,,,,,,,,,,,,,,,,,,,,,,,,,,,,,
157749,001,2022-11-20_19h57.05.336,Info_measure_main_exp,2022.2.2,Win32,59.74786401,,,,,,,,,,,,,,,,,,masks/mask_003.jpg,,,,,,,,,,,,,,,,,,,,,,,,,,,,,,,,,,,,,,,,,,,0,3,3,2,1,,,,,,,,,,,,,,,,,,,,,,,,,,,,,,,,,,,,,,,,,,,,,,
157749,001,2022-11-20_19h57.05.336,Info_measure_main_exp,2022.2.2,Win32,59.74786401,,,,,,,,,,,,,,,,,,masks/mask_005.jpg,,,,,,,,,,,,,,,,,,,,,,,,,,,,,,,,,,,,,,,,,,,0,4,4,4,1,,,,,,,,,,,,,,,,,,,,,,,,,,,,,,,,,,,,,,,,,,,,,,
157749,001,2022-11-20_19h57.05.336,Info_measure_main_exp,2022.2.2,Win32,59.74786401,,,,,,,,,,,,,,,,,,masks/mask_004.jpg,,,,,,,,,,,,,,,,,,,,,,,,,,,,,,,,,,,,,,,,,,,,,,,,0,0,0,3,1,,,,,,,,,,,,,,,,,,,,,,,,,,,,,,,,,,,,,,,,,
157749,001,2022-11-20_19h57.05.336,Info_measure_main_exp,2022.2.2,Win32,59.74786401,,,,,,,,,,,,,,,,,,masks/mask_002.jpg,,,,,,,,,,,,,,,,,,,,,,,,,,,,,,,,,,,,,,,,,,,,,,,,0,1,1,1,1,,,,,,,,,,,,,,,,,,,,,,,,,,,,,,,,,,,,,,,,,
157749,001,2022-11-20_19h57.05.336,Info_measure_main_exp,2022.2.2,Win32,59.74786401,,,,,,,,,,,,,,,,,,masks/mask_001.jpg,,,,,,,,,,,,,,,,,,,,,,,,,,,,,,,,,,,,,,,,,,,,,,,,0,2,2,0,1,,,,,,,,,,,,,,,,,,,,,,,,,,,,,,,,,,,,,,,,,
157749,001,2022-11-20_19h57.05.336,Info_measure_main_exp,2022.2.2,Win32,59.74786401,,,,,,,,,,,,,,,,,,masks/mask_003.jpg,,,,,,,,,,,,,,,,,,,,,,,,,,,,,,,,,,,,,,,,,,,,,,,,0,3,3,2,1,,,,,,,,,,,,,,,,,,,,,,,,,,,,,,,,,,,,,,,,,
157749,001,2022-11-20_19h57.05.336,Info_measure_main_exp,2022.2.2,Win32,59.74786401,,,,,,,,,,,,,,,,,,masks/mask_005.jpg,,,,,,,,,,,,,,,,,,,,,,,,,,,,,,,,,,,,,,,,,,,,,,,,0,4,4,4,1,,,,,,,,,,,,,,,,,,,,,,,,,,,,,,,,,,,,,,,,,
157749,001,2022-11-20_19h57.05.336,Info_measure_main_exp,2022.2.2,Win32,59.74786401,,,,,,,,,,,,,,,,,,,,,,,,,,,,,,3,1.799,1,,,,,,,,,,,,1,131,5,5,1,2154,present_patch/cong_131_5_a.jpg,absent_patch/patch0002154.jpg,,,,,,,,,,,,,,,,,,,,-0.049479167,-0.130208333,1,0,0,response5disk,16,0.002604167,0,1,0,0,center_square,0,15,15,87,1,,,,,,,,,,,,,,,,,,,,,,,
157749,001,2022-11-20_19h57.05.336,Info_measure_main_exp,2022.2.2,Win32,59.74786401,,,,,,,,,,,,,,,,,,masks/mask_004.jpg,,,,,,,,,,,,,,,,,,,,,,,,,,,,,,,,,,,,,,,,,,,0,0,0,3,1,,,,,,,,,,,,,,,,,,,,,,,,,,,,,,,,,,,,,,,,,,,,,,
157749,001,2022-11-20_19h57.05.336,Info_measure_main_exp,2022.2.2,Win32,59.74786401,,,,,,,,,,,,,,,,,,masks/mask_001.jpg,,,,,,,,,,,,,,,,,,,,,,,,,,,,,,,,,,,,,,,,,,,0,1,1,0,1,,,,,,,,,,,,,,,,,,,,,,,,,,,,,,,,,,,,,,,,,,,,,,
157749,001,2022-11-20_19h57.05.336,Info_measure_main_exp,2022.2.2,Win32,59.74786401,,,,,,,,,,,,,,,,,,masks/mask_002.jpg,,,,,,,,,,,,,,,,,,,,,,,,,,,,,,,,,,,,,,,,,,,0,2,2,1,1,,,,,,,,,,,,,,,,,,,,,,,,,,,,,,,,,,,,,,,,,,,,,,
157749,001,2022-11-20_19h57.05.336,Info_measure_main_exp,2022.2.2,Win32,59.74786401,,,,,,,,,,,,,,,,,,masks/mask_005.jpg,,,,,,,,,,,,,,,,,,,,,,,,,,,,,,,,,,,,,,,,,,,0,3,3,4,1,,,,,,,,,,,,,,,,,,,,,,,,,,,,,,,,,,,,,,,,,,,,,,
157749,001,2022-11-20_19h57.05.336,Info_measure_main_exp,2022.2.2,Win32,59.74786401,,,,,,,,,,,,,,,,,,masks/mask_003.jpg,,,,,,,,,,,,,,,,,,,,,,,,,,,,,,,,,,,,,,,,,,,0,4,4,2,1,,,,,,,,,,,,,,,,,,,,,,,,,,,,,,,,,,,,,,,,,,,,,,
157749,001,2022-11-20_19h57.05.336,Info_measure_main_exp,2022.2.2,Win32,59.74786401,,,,,,,,,,,,,,,,,,masks/mask_005.jpg,,,,,,,,,,,,,,,,,,,,,,,,,,,,,,,,,,,,,,,,,,,,,,,,0,0,0,4,1,,,,,,,,,,,,,,,,,,,,,,,,,,,,,,,,,,,,,,,,,
157749,001,2022-11-20_19h57.05.336,Info_measure_main_exp,2022.2.2,Win32,59.74786401,,,,,,,,,,,,,,,,,,masks/mask_004.jpg,,,,,,,,,,,,,,,,,,,,,,,,,,,,,,,,,,,,,,,,,,,,,,,,0,1,1,3,1,,,,,,,,,,,,,,,,,,,,,,,,,,,,,,,,,,,,,,,,,
157749,001,2022-11-20_19h57.05.336,Info_measure_main_exp,2022.2.2,Win32,59.74786401,,,,,,,,,,,,,,,,,,masks/mask_001.jpg,,,,,,,,,,,,,,,,,,,,,,,,,,,,,,,,,,,,,,,,,,,,,,,,0,2,2,0,1,,,,,,,,,,,,,,,,,,,,,,,,,,,,,,,,,,,,,,,,,
157749,001,2022-11-20_19h57.05.336,Info_measure_main_exp,2022.2.2,Win32,59.74786401,,,,,,,,,,,,,,,,,,masks/mask_002.jpg,,,,,,,,,,,,,,,,,,,,,,,,,,,,,,,,,,,,,,,,,,,,,,,,0,3,3,1,1,,,,,,,,,,,,,,,,,,,,,,,,,,,,,,,,,,,,,,,,,
157749,001,2022-11-20_19h57.05.336,Info_measure_main_exp,2022.2.2,Win32,59.74786401,,,,,,,,,,,,,,,,,,masks/mask_003.jpg,,,,,,,,,,,,,,,,,,,,,,,,,,,,,,,,,,,,,,,,,,,,,,,,0,4,4,2,1,,,,,,,,,,,,,,,,,,,,,,,,,,,,,,,,,,,,,,,,,
157749,001,2022-11-20_19h57.05.336,Info_measure_main_exp,2022.2.2,Win32,59.74786401,,,,,,,,,,,,,,,,,,,,,,,,,,,,,,5,2.15,1,,,,,,,,,,,,0,131,5,5,2142,2154,absent_patch/patch0002142.jpg,absent_patch/patch0002154.jpg,,,,,,,,,,,,,,,,,,,,0.151041667,-0.0703125,1,0,0,response3disk,17,-0.00390625,0.009114583,1,0,0,center_square,0,16,16,9,1,,,,,,,,,,,,,,,,,,,,,,,
157749,001,2022-11-20_19h57.05.336,Info_measure_main_exp,2022.2.2,Win32,59.74786401,,,,,,,,,,,,,,,,,,masks/mask_002.jpg,,,,,,,,,,,,,,,,,,,,,,,,,,,,,,,,,,,,,,,,,,,0,0,0,1,1,,,,,,,,,,,,,,,,,,,,,,,,,,,,,,,,,,,,,,,,,,,,,,
157749,001,2022-11-20_19h57.05.336,Info_measure_main_exp,2022.2.2,Win32,59.74786401,,,,,,,,,,,,,,,,,,masks/mask_004.jpg,,,,,,,,,,,,,,,,,,,,,,,,,,,,,,,,,,,,,,,,,,,0,1,1,3,1,,,,,,,,,,,,,,,,,,,,,,,,,,,,,,,,,,,,,,,,,,,,,,
157749,001,2022-11-20_19h57.05.336,Info_measure_main_exp,2022.2.2,Win32,59.74786401,,,,,,,,,,,,,,,,,,masks/mask_001.jpg,,,,,,,,,,,,,,,,,,,,,,,,,,,,,,,,,,,,,,,,,,,0,2,2,0,1,,,,,,,,,,,,,,,,,,,,,,,,,,,,,,,,,,,,,,,,,,,,,,
157749,001,2022-11-20_19h57.05.336,Info_measure_main_exp,2022.2.2,Win32,59.74786401,,,,,,,,,,,,,,,,,,masks/mask_003.jpg,,,,,,,,,,,,,,,,,,,,,,,,,,,,,,,,,,,,,,,,,,,0,3,3,2,1,,,,,,,,,,,,,,,,,,,,,,,,,,,,,,,,,,,,,,,,,,,,,,
157749,001,2022-11-20_19h57.05.336,Info_measure_main_exp,2022.2.2,Win32,59.74786401,,,,,,,,,,,,,,,,,,masks/mask_005.jpg,,,,,,,,,,,,,,,,,,,,,,,,,,,,,,,,,,,,,,,,,,,0,4,4,4,1,,,,,,,,,,,,,,,,,,,,,,,,,,,,,,,,,,,,,,,,,,,,,,
157749,001,2022-11-20_19h57.05.336,Info_measure_main_exp,2022.2.2,Win32,59.74786401,,,,,,,,,,,,,,,,,,masks/mask_004.jpg,,,,,,,,,,,,,,,,,,,,,,,,,,,,,,,,,,,,,,,,,,,,,,,,0,0,0,3,1,,,,,,,,,,,,,,,,,,,,,,,,,,,,,,,,,,,,,,,,,
157749,001,2022-11-20_19h57.05.336,Info_measure_main_exp,2022.2.2,Win32,59.74786401,,,,,,,,,,,,,,,,,,masks/mask_002.jpg,,,,,,,,,,,,,,,,,,,,,,,,,,,,,,,,,,,,,,,,,,,,,,,,0,1,1,1,1,,,,,,,,,,,,,,,,,,,,,,,,,,,,,,,,,,,,,,,,,
157749,001,2022-11-20_19h57.05.336,Info_measure_main_exp,2022.2.2,Win32,59.74786401,,,,,,,,,,,,,,,,,,masks/mask_005.jpg,,,,,,,,,,,,,,,,,,,,,,,,,,,,,,,,,,,,,,,,,,,,,,,,0,2,2,4,1,,,,,,,,,,,,,,,,,,,,,,,,,,,,,,,,,,,,,,,,,
157749,001,2022-11-20_19h57.05.336,Info_measure_main_exp,2022.2.2,Win32,59.74786401,,,,,,,,,,,,,,,,,,masks/mask_001.jpg,,,,,,,,,,,,,,,,,,,,,,,,,,,,,,,,,,,,,,,,,,,,,,,,0,3,3,0,1,,,,,,,,,,,,,,,,,,,,,,,,,,,,,,,,,,,,,,,,,
157749,001,2022-11-20_19h57.05.336,Info_measure_main_exp,2022.2.2,Win32,59.74786401,,,,,,,,,,,,,,,,,,masks/mask_003.jpg,,,,,,,,,,,,,,,,,,,,,,,,,,,,,,,,,,,,,,,,,,,,,,,,0,4,4,2,1,,,,,,,,,,,,,,,,,,,,,,,,,,,,,,,,,,,,,,,,,
157749,001,2022-11-20_19h57.05.336,Info_measure_main_exp,2022.2.2,Win32,59.74786401,,,,,,,,,,,,,,,,,,,,,,,,,,,,,,0,1.0334,1,,,,,,,,,,,,0,131,5,5,2250,2250,absent_patch/patch0002250.jpg,absent_patch/patch0002250.jpg,,,,,,,,,,,,,,,,,,,,-0.044270833,0.162760417,1,0,0,response7disk,18,-0.001302083,0.002604167,1,0,0,center_square,0,17,17,56,1,,,,,,,,,,,,,,,,,,,,,,,
157749,001,2022-11-20_19h57.05.336,Info_measure_main_exp,2022.2.2,Win32,59.74786401,,,,,,,,,,,,,,,,,,masks/mask_002.jpg,,,,,,,,,,,,,,,,,,,,,,,,,,,,,,,,,,,,,,,,,,,0,0,0,1,1,,,,,,,,,,,,,,,,,,,,,,,,,,,,,,,,,,,,,,,,,,,,,,
157749,001,2022-11-20_19h57.05.336,Info_measure_main_exp,2022.2.2,Win32,59.74786401,,,,,,,,,,,,,,,,,,masks/mask_005.jpg,,,,,,,,,,,,,,,,,,,,,,,,,,,,,,,,,,,,,,,,,,,0,1,1,4,1,,,,,,,,,,,,,,,,,,,,,,,,,,,,,,,,,,,,,,,,,,,,,,
157749,001,2022-11-20_19h57.05.336,Info_measure_main_exp,2022.2.2,Win32,59.74786401,,,,,,,,,,,,,,,,,,masks/mask_001.jpg,,,,,,,,,,,,,,,,,,,,,,,,,,,,,,,,,,,,,,,,,,,0,2,2,0,1,,,,,,,,,,,,,,,,,,,,,,,,,,,,,,,,,,,,,,,,,,,,,,
157749,001,2022-11-20_19h57.05.336,Info_measure_main_exp,2022.2.2,Win32,59.74786401,,,,,,,,,,,,,,,,,,masks/mask_004.jpg,,,,,,,,,,,,,,,,,,,,,,,,,,,,,,,,,,,,,,,,,,,0,3,3,3,1,,,,,,,,,,,,,,,,,,,,,,,,,,,,,,,,,,,,,,,,,,,,,,
157749,001,2022-11-20_19h57.05.336,Info_measure_main_exp,2022.2.2,Win32,59.74786401,,,,,,,,,,,,,,,,,,masks/mask_003.jpg,,,,,,,,,,,,,,,,,,,,,,,,,,,,,,,,,,,,,,,,,,,0,4,4,2,1,,,,,,,,,,,,,,,,,,,,,,,,,,,,,,,,,,,,,,,,,,,,,,
157749,001,2022-11-20_19h57.05.336,Info_measure_main_exp,2022.2.2,Win32,59.74786401,,,,,,,,,,,,,,,,,,masks/mask_001.jpg,,,,,,,,,,,,,,,,,,,,,,,,,,,,,,,,,,,,,,,,,,,,,,,,0,0,0,0,1,,,,,,,,,,,,,,,,,,,,,,,,,,,,,,,,,,,,,,,,,
157749,001,2022-11-20_19h57.05.336,Info_measure_main_exp,2022.2.2,Win32,59.74786401,,,,,,,,,,,,,,,,,,masks/mask_004.jpg,,,,,,,,,,,,,,,,,,,,,,,,,,,,,,,,,,,,,,,,,,,,,,,,0,1,1,3,1,,,,,,,,,,,,,,,,,,,,,,,,,,,,,,,,,,,,,,,,,
157749,001,2022-11-20_19h57.05.336,Info_measure_main_exp,2022.2.2,Win32,59.74786401,,,,,,,,,,,,,,,,,,masks/mask_003.jpg,,,,,,,,,,,,,,,,,,,,,,,,,,,,,,,,,,,,,,,,,,,,,,,,0,2,2,2,1,,,,,,,,,,,,,,,,,,,,,,,,,,,,,,,,,,,,,,,,,
157749,001,2022-11-20_19h57.05.336,Info_measure_main_exp,2022.2.2,Win32,59.74786401,,,,,,,,,,,,,,,,,,masks/mask_005.jpg,,,,,,,,,,,,,,,,,,,,,,,,,,,,,,,,,,,,,,,,,,,,,,,,0,3,3,4,1,,,,,,,,,,,,,,,,,,,,,,,,,,,,,,,,,,,,,,,,,
157749,001,2022-11-20_19h57.05.336,Info_measure_main_exp,2022.2.2,Win32,59.74786401,,,,,,,,,,,,,,,,,,masks/mask_002.jpg,,,,,,,,,,,,,,,,,,,,,,,,,,,,,,,,,,,,,,,,,,,,,,,,0,4,4,1,1,,,,,,,,,,,,,,,,,,,,,,,,,,,,,,,,,,,,,,,,,
157749,001,2022-11-20_19h57.05.336,Info_measure_main_exp,2022.2.2,Win32,59.74786401,,,,,,,,,,,,,,,,,,,,,,,,,,,,,,3,2.8351,1,,,,,,,,,,,,0,131,5,5,1974,2166,absent_patch/patch0001974.jpg,absent_patch/patch0002166.jpg,,,,,,,,,,,,,,,,,,,,-0.033854167,-0.131510417,1,0,0,response5disk,19,-0.002604167,0.009114583,1,0,0,center_square,0,18,18,77,1,,,,,,,,,,,,,,,,,,,,,,,
157749,001,2022-11-20_19h57.05.336,Info_measure_main_exp,2022.2.2,Win32,59.74786401,,,,,,,,,,,,,,,,,,masks/mask_003.jpg,,,,,,,,,,,,,,,,,,,,,,,,,,,,,,,,,,,,,,,,,,,0,0,0,2,1,,,,,,,,,,,,,,,,,,,,,,,,,,,,,,,,,,,,,,,,,,,,,,
157749,001,2022-11-20_19h57.05.336,Info_measure_main_exp,2022.2.2,Win32,59.74786401,,,,,,,,,,,,,,,,,,masks/mask_005.jpg,,,,,,,,,,,,,,,,,,,,,,,,,,,,,,,,,,,,,,,,,,,0,1,1,4,1,,,,,,,,,,,,,,,,,,,,,,,,,,,,,,,,,,,,,,,,,,,,,,
157749,001,2022-11-20_19h57.05.336,Info_measure_main_exp,2022.2.2,Win32,59.74786401,,,,,,,,,,,,,,,,,,masks/mask_002.jpg,,,,,,,,,,,,,,,,,,,,,,,,,,,,,,,,,,,,,,,,,,,0,2,2,1,1,,,,,,,,,,,,,,,,,,,,,,,,,,,,,,,,,,,,,,,,,,,,,,
157749,001,2022-11-20_19h57.05.336,Info_measure_main_exp,2022.2.2,Win32,59.74786401,,,,,,,,,,,,,,,,,,masks/mask_001.jpg,,,,,,,,,,,,,,,,,,,,,,,,,,,,,,,,,,,,,,,,,,,0,3,3,0,1,,,,,,,,,,,,,,,,,,,,,,,,,,,,,,,,,,,,,,,,,,,,,,
157749,001,2022-11-20_19h57.05.336,Info_measure_main_exp,2022.2.2,Win32,59.74786401,,,,,,,,,,,,,,,,,,masks/mask_004.jpg,,,,,,,,,,,,,,,,,,,,,,,,,,,,,,,,,,,,,,,,,,,0,4,4,3,1,,,,,,,,,,,,,,,,,,,,,,,,,,,,,,,,,,,,,,,,,,,,,,
157749,001,2022-11-20_19h57.05.336,Info_measure_main_exp,2022.2.2,Win32,59.74786401,,,,,,,,,,,,,,,,,,masks/mask_005.jpg,,,,,,,,,,,,,,,,,,,,,,,,,,,,,,,,,,,,,,,,,,,,,,,,0,0,0,4,1,,,,,,,,,,,,,,,,,,,,,,,,,,,,,,,,,,,,,,,,,
157749,001,2022-11-20_19h57.05.336,Info_measure_main_exp,2022.2.2,Win32,59.74786401,,,,,,,,,,,,,,,,,,masks/mask_002.jpg,,,,,,,,,,,,,,,,,,,,,,,,,,,,,,,,,,,,,,,,,,,,,,,,0,1,1,1,1,,,,,,,,,,,,,,,,,,,,,,,,,,,,,,,,,,,,,,,,,
157749,001,2022-11-20_19h57.05.336,Info_measure_main_exp,2022.2.2,Win32,59.74786401,,,,,,,,,,,,,,,,,,masks/mask_001.jpg,,,,,,,,,,,,,,,,,,,,,,,,,,,,,,,,,,,,,,,,,,,,,,,,0,2,2,0,1,,,,,,,,,,,,,,,,,,,,,,,,,,,,,,,,,,,,,,,,,
157749,001,2022-11-20_19h57.05.336,Info_measure_main_exp,2022.2.2,Win32,59.74786401,,,,,,,,,,,,,,,,,,masks/mask_004.jpg,,,,,,,,,,,,,,,,,,,,,,,,,,,,,,,,,,,,,,,,,,,,,,,,0,3,3,3,1,,,,,,,,,,,,,,,,,,,,,,,,,,,,,,,,,,,,,,,,,
157749,001,2022-11-20_19h57.05.336,Info_measure_main_exp,2022.2.2,Win32,59.74786401,,,,,,,,,,,,,,,,,,masks/mask_003.jpg,,,,,,,,,,,,,,,,,,,,,,,,,,,,,,,,,,,,,,,,,,,,,,,,0,4,4,2,1,,,,,,,,,,,,,,,,,,,,,,,,,,,,,,,,,,,,,,,,,
157749,001,2022-11-20_19h57.05.336,Info_measure_main_exp,2022.2.2,Win32,59.74786401,,,,,,,,,,,,,,,,,,,,,,,,,,,,,,7,1.1509,1,,,,,,,,,,,,0,131,5,5,2238,2298,absent_patch/patch0002238.jpg,absent_patch/patch0002298.jpg,,,,,,,,,,,,,,,,,,,,0.048177083,0.1171875,1,0,0,response1disk,20,-0.002604167,0.00390625,1,0,0,center_square,0,19,19,51,1,,,,,,,,,,,,,,,,,,,,,,,
157749,001,2022-11-20_19h57.05.336,Info_measure_main_exp,2022.2.2,Win32,59.74786401,,,,,,,,,,,,,,,,,,masks/mask_002.jpg,,,,,,,,,,,,,,,,,,,,,,,,,,,,,,,,,,,,,,,,,,,0,0,0,1,1,,,,,,,,,,,,,,,,,,,,,,,,,,,,,,,,,,,,,,,,,,,,,,
157749,001,2022-11-20_19h57.05.336,Info_measure_main_exp,2022.2.2,Win32,59.74786401,,,,,,,,,,,,,,,,,,masks/mask_004.jpg,,,,,,,,,,,,,,,,,,,,,,,,,,,,,,,,,,,,,,,,,,,0,1,1,3,1,,,,,,,,,,,,,,,,,,,,,,,,,,,,,,,,,,,,,,,,,,,,,,
157749,001,2022-11-20_19h57.05.336,Info_measure_main_exp,2022.2.2,Win32,59.74786401,,,,,,,,,,,,,,,,,,masks/mask_005.jpg,,,,,,,,,,,,,,,,,,,,,,,,,,,,,,,,,,,,,,,,,,,0,2,2,4,1,,,,,,,,,,,,,,,,,,,,,,,,,,,,,,,,,,,,,,,,,,,,,,
157749,001,2022-11-20_19h57.05.336,Info_measure_main_exp,2022.2.2,Win32,59.74786401,,,,,,,,,,,,,,,,,,masks/mask_001.jpg,,,,,,,,,,,,,,,,,,,,,,,,,,,,,,,,,,,,,,,,,,,0,3,3,0,1,,,,,,,,,,,,,,,,,,,,,,,,,,,,,,,,,,,,,,,,,,,,,,
157749,001,2022-11-20_19h57.05.336,Info_measure_main_exp,2022.2.2,Win32,59.74786401,,,,,,,,,,,,,,,,,,masks/mask_003.jpg,,,,,,,,,,,,,,,,,,,,,,,,,,,,,,,,,,,,,,,,,,,0,4,4,2,1,,,,,,,,,,,,,,,,,,,,,,,,,,,,,,,,,,,,,,,,,,,,,,
157749,001,2022-11-20_19h57.05.336,Info_measure_main_exp,2022.2.2,Win32,59.74786401,,,,,,,,,,,,,,,,,,masks/mask_003.jpg,,,,,,,,,,,,,,,,,,,,,,,,,,,,,,,,,,,,,,,,,,,,,,,,0,0,0,2,1,,,,,,,,,,,,,,,,,,,,,,,,,,,,,,,,,,,,,,,,,
157749,001,2022-11-20_19h57.05.336,Info_measure_main_exp,2022.2.2,Win32,59.74786401,,,,,,,,,,,,,,,,,,masks/mask_004.jpg,,,,,,,,,,,,,,,,,,,,,,,,,,,,,,,,,,,,,,,,,,,,,,,,0,1,1,3,1,,,,,,,,,,,,,,,,,,,,,,,,,,,,,,,,,,,,,,,,,
157749,001,2022-11-20_19h57.05.336,Info_measure_main_exp,2022.2.2,Win32,59.74786401,,,,,,,,,,,,,,,,,,masks/mask_002.jpg,,,,,,,,,,,,,,,,,,,,,,,,,,,,,,,,,,,,,,,,,,,,,,,,0,2,2,1,1,,,,,,,,,,,,,,,,,,,,,,,,,,,,,,,,,,,,,,,,,
157749,001,2022-11-20_19h57.05.336,Info_measure_main_exp,2022.2.2,Win32,59.74786401,,,,,,,,,,,,,,,,,,masks/mask_001.jpg,,,,,,,,,,,,,,,,,,,,,,,,,,,,,,,,,,,,,,,,,,,,,,,,0,3,3,0,1,,,,,,,,,,,,,,,,,,,,,,,,,,,,,,,,,,,,,,,,,
157749,001,2022-11-20_19h57.05.336,Info_measure_main_exp,2022.2.2,Win32,59.74786401,,,,,,,,,,,,,,,,,,masks/mask_005.jpg,,,,,,,,,,,,,,,,,,,,,,,,,,,,,,,,,,,,,,,,,,,,,,,,0,4,4,4,1,,,,,,,,,,,,,,,,,,,,,,,,,,,,,,,,,,,,,,,,,
157749,001,2022-11-20_19h57.05.336,Info_measure_main_exp,2022.2.2,Win32,59.74786401,,,,,,,,,,,,,,,,,,,,,,,,,,,,,,0,1.034,1,,,,,,,,,,,,0,131,5,5,1950,1950,absent_patch/patch0001950.jpg,absent_patch/patch0001950.jpg,,,,,,,,,,,,,,,,,,,,-0.044270833,0.126302083,1,0,0,response7disk,21,-0.009114583,0.010416667,1,0,0,center_square,0,20,20,92,1,,,,,,,,,,,,,,,,,,,,,,,
157749,001,2022-11-20_19h57.05.336,Info_measure_main_exp,2022.2.2,Win32,59.74786401,,,,,,,,,,,,,,,,,,masks/mask_004.jpg,,,,,,,,,,,,,,,,,,,,,,,,,,,,,,,,,,,,,,,,,,,0,0,0,3,1,,,,,,,,,,,,,,,,,,,,,,,,,,,,,,,,,,,,,,,,,,,,,,
157749,001,2022-11-20_19h57.05.336,Info_measure_main_exp,2022.2.2,Win32,59.74786401,,,,,,,,,,,,,,,,,,masks/mask_001.jpg,,,,,,,,,,,,,,,,,,,,,,,,,,,,,,,,,,,,,,,,,,,0,1,1,0,1,,,,,,,,,,,,,,,,,,,,,,,,,,,,,,,,,,,,,,,,,,,,,,
157749,001,2022-11-20_19h57.05.336,Info_measure_main_exp,2022.2.2,Win32,59.74786401,,,,,,,,,,,,,,,,,,masks/mask_002.jpg,,,,,,,,,,,,,,,,,,,,,,,,,,,,,,,,,,,,,,,,,,,0,2,2,1,1,,,,,,,,,,,,,,,,,,,,,,,,,,,,,,,,,,,,,,,,,,,,,,
157749,001,2022-11-20_19h57.05.336,Info_measure_main_exp,2022.2.2,Win32,59.74786401,,,,,,,,,,,,,,,,,,masks/mask_005.jpg,,,,,,,,,,,,,,,,,,,,,,,,,,,,,,,,,,,,,,,,,,,0,3,3,4,1,,,,,,,,,,,,,,,,,,,,,,,,,,,,,,,,,,,,,,,,,,,,,,
157749,001,2022-11-20_19h57.05.336,Info_measure_main_exp,2022.2.2,Win32,59.74786401,,,,,,,,,,,,,,,,,,masks/mask_003.jpg,,,,,,,,,,,,,,,,,,,,,,,,,,,,,,,,,,,,,,,,,,,0,4,4,2,1,,,,,,,,,,,,,,,,,,,,,,,,,,,,,,,,,,,,,,,,,,,,,,
157749,001,2022-11-20_19h57.05.336,Info_measure_main_exp,2022.2.2,Win32,59.74786401,,,,,,,,,,,,,,,,,,masks/mask_005.jpg,,,,,,,,,,,,,,,,,,,,,,,,,,,,,,,,,,,,,,,,,,,,,,,,0,0,0,4,1,,,,,,,,,,,,,,,,,,,,,,,,,,,,,,,,,,,,,,,,,
157749,001,2022-11-20_19h57.05.336,Info_measure_main_exp,2022.2.2,Win32,59.74786401,,,,,,,,,,,,,,,,,,masks/mask_002.jpg,,,,,,,,,,,,,,,,,,,,,,,,,,,,,,,,,,,,,,,,,,,,,,,,0,1,1,1,1,,,,,,,,,,,,,,,,,,,,,,,,,,,,,,,,,,,,,,,,,
157749,001,2022-11-20_19h57.05.336,Info_measure_main_exp,2022.2.2,Win32,59.74786401,,,,,,,,,,,,,,,,,,masks/mask_004.jpg,,,,,,,,,,,,,,,,,,,,,,,,,,,,,,,,,,,,,,,,,,,,,,,,0,2,2,3,1,,,,,,,,,,,,,,,,,,,,,,,,,,,,,,,,,,,,,,,,,
157749,001,2022-11-20_19h57.05.336,Info_measure_main_exp,2022.2.2,Win32,59.74786401,,,,,,,,,,,,,,,,,,masks/mask_001.jpg,,,,,,,,,,,,,,,,,,,,,,,,,,,,,,,,,,,,,,,,,,,,,,,,0,3,3,0,1,,,,,,,,,,,,,,,,,,,,,,,,,,,,,,,,,,,,,,,,,
157749,001,2022-11-20_19h57.05.336,Info_measure_main_exp,2022.2.2,Win32,59.74786401,,,,,,,,,,,,,,,,,,masks/mask_003.jpg,,,,,,,,,,,,,,,,,,,,,,,,,,,,,,,,,,,,,,,,,,,,,,,,0,4,4,2,1,,,,,,,,,,,,,,,,,,,,,,,,,,,,,,,,,,,,,,,,,
157749,001,2022-11-20_19h57.05.336,Info_measure_main_exp,2022.2.2,Win32,59.74786401,,,,,,,,,,,,,,,,,,,,,,,,,,,,,,4,1.7516,1,,,,,,,,,,,,0,131,5,5,2274,1950,absent_patch/patch0002274.jpg,absent_patch/patch0001950.jpg,,,,,,,,,,,,,,,,,,,,0.0546875,-0.147135417,1,0,0,response3disk,22,-0.00390625,0.006510417,1,0,0,center_square,0,21,21,10,1,,,,,,,,,,,,,,,,,,,,,,,
157749,001,2022-11-20_19h57.05.336,Info_measure_main_exp,2022.2.2,Win32,59.74786401,,,,,,,,,,,,,,,,,,masks/mask_001.jpg,,,,,,,,,,,,,,,,,,,,,,,,,,,,,,,,,,,,,,,,,,,0,0,0,0,1,,,,,,,,,,,,,,,,,,,,,,,,,,,,,,,,,,,,,,,,,,,,,,
157749,001,2022-11-20_19h57.05.336,Info_measure_main_exp,2022.2.2,Win32,59.74786401,,,,,,,,,,,,,,,,,,masks/mask_002.jpg,,,,,,,,,,,,,,,,,,,,,,,,,,,,,,,,,,,,,,,,,,,0,1,1,1,1,,,,,,,,,,,,,,,,,,,,,,,,,,,,,,,,,,,,,,,,,,,,,,
157749,001,2022-11-20_19h57.05.336,Info_measure_main_exp,2022.2.2,Win32,59.74786401,,,,,,,,,,,,,,,,,,masks/mask_005.jpg,,,,,,,,,,,,,,,,,,,,,,,,,,,,,,,,,,,,,,,,,,,0,2,2,4,1,,,,,,,,,,,,,,,,,,,,,,,,,,,,,,,,,,,,,,,,,,,,,,
157749,001,2022-11-20_19h57.05.336,Info_measure_main_exp,2022.2.2,Win32,59.74786401,,,,,,,,,,,,,,,,,,masks/mask_004.jpg,,,,,,,,,,,,,,,,,,,,,,,,,,,,,,,,,,,,,,,,,,,0,3,3,3,1,,,,,,,,,,,,,,,,,,,,,,,,,,,,,,,,,,,,,,,,,,,,,,
157749,001,2022-11-20_19h57.05.336,Info_measure_main_exp,2022.2.2,Win32,59.74786401,,,,,,,,,,,,,,,,,,masks/mask_003.jpg,,,,,,,,,,,,,,,,,,,,,,,,,,,,,,,,,,,,,,,,,,,0,4,4,2,1,,,,,,,,,,,,,,,,,,,,,,,,,,,,,,,,,,,,,,,,,,,,,,
157749,001,2022-11-20_19h57.05.336,Info_measure_main_exp,2022.2.2,Win32,59.74786401,,,,,,,,,,,,,,,,,,masks/mask_005.jpg,,,,,,,,,,,,,,,,,,,,,,,,,,,,,,,,,,,,,,,,,,,,,,,,0,0,0,4,1,,,,,,,,,,,,,,,,,,,,,,,,,,,,,,,,,,,,,,,,,
157749,001,2022-11-20_19h57.05.336,Info_measure_main_exp,2022.2.2,Win32,59.74786401,,,,,,,,,,,,,,,,,,masks/mask_001.jpg,,,,,,,,,,,,,,,,,,,,,,,,,,,,,,,,,,,,,,,,,,,,,,,,0,1,1,0,1,,,,,,,,,,,,,,,,,,,,,,,,,,,,,,,,,,,,,,,,,
157749,001,2022-11-20_19h57.05.336,Info_measure_main_exp,2022.2.2,Win32,59.74786401,,,,,,,,,,,,,,,,,,masks/mask_003.jpg,,,,,,,,,,,,,,,,,,,,,,,,,,,,,,,,,,,,,,,,,,,,,,,,0,2,2,2,1,,,,,,,,,,,,,,,,,,,,,,,,,,,,,,,,,,,,,,,,,
157749,001,2022-11-20_19h57.05.336,Info_measure_main_exp,2022.2.2,Win32,59.74786401,,,,,,,,,,,,,,,,,,masks/mask_004.jpg,,,,,,,,,,,,,,,,,,,,,,,,,,,,,,,,,,,,,,,,,,,,,,,,0,3,3,3,1,,,,,,,,,,,,,,,,,,,,,,,,,,,,,,,,,,,,,,,,,
157749,001,2022-11-20_19h57.05.336,Info_measure_main_exp,2022.2.2,Win32,59.74786401,,,,,,,,,,,,,,,,,,masks/mask_002.jpg,,,,,,,,,,,,,,,,,,,,,,,,,,,,,,,,,,,,,,,,,,,,,,,,0,4,4,1,1,,,,,,,,,,,,,,,,,,,,,,,,,,,,,,,,,,,,,,,,,
157749,001,2022-11-20_19h57.05.336,Info_measure_main_exp,2022.2.2,Win32,59.74786401,,,,,,,,,,,,,,,,,,,,,,,,,,,,,,6,1.6519,1,,,,,,,,,,,,0,131,5,5,1974,2238,absent_patch/patch0001974.jpg,absent_patch/patch0002238.jpg,,,,,,,,,,,,,,,,,,,,0.162760417,0.03125,1,0,0,response1disk,23,0.005208333,0.00390625,1,0,0,center_square,0,22,22,95,1,,,,,,,,,,,,,,,,,,,,,,,
157749,001,2022-11-20_19h57.05.336,Info_measure_main_exp,2022.2.2,Win32,59.74786401,,,,,,,,,,,,,,,,,,masks/mask_003.jpg,,,,,,,,,,,,,,,,,,,,,,,,,,,,,,,,,,,,,,,,,,,0,0,0,2,1,,,,,,,,,,,,,,,,,,,,,,,,,,,,,,,,,,,,,,,,,,,,,,
157749,001,2022-11-20_19h57.05.336,Info_measure_main_exp,2022.2.2,Win32,59.74786401,,,,,,,,,,,,,,,,,,masks/mask_001.jpg,,,,,,,,,,,,,,,,,,,,,,,,,,,,,,,,,,,,,,,,,,,0,1,1,0,1,,,,,,,,,,,,,,,,,,,,,,,,,,,,,,,,,,,,,,,,,,,,,,
157749,001,2022-11-20_19h57.05.336,Info_measure_main_exp,2022.2.2,Win32,59.74786401,,,,,,,,,,,,,,,,,,masks/mask_005.jpg,,,,,,,,,,,,,,,,,,,,,,,,,,,,,,,,,,,,,,,,,,,0,2,2,4,1,,,,,,,,,,,,,,,,,,,,,,,,,,,,,,,,,,,,,,,,,,,,,,
157749,001,2022-11-20_19h57.05.336,Info_measure_main_exp,2022.2.2,Win32,59.74786401,,,,,,,,,,,,,,,,,,masks/mask_002.jpg,,,,,,,,,,,,,,,,,,,,,,,,,,,,,,,,,,,,,,,,,,,0,3,3,1,1,,,,,,,,,,,,,,,,,,,,,,,,,,,,,,,,,,,,,,,,,,,,,,
157749,001,2022-11-20_19h57.05.336,Info_measure_main_exp,2022.2.2,Win32,59.74786401,,,,,,,,,,,,,,,,,,masks/mask_004.jpg,,,,,,,,,,,,,,,,,,,,,,,,,,,,,,,,,,,,,,,,,,,0,4,4,3,1,,,,,,,,,,,,,,,,,,,,,,,,,,,,,,,,,,,,,,,,,,,,,,
157749,001,2022-11-20_19h57.05.336,Info_measure_main_exp,2022.2.2,Win32,59.74786401,,,,,,,,,,,,,,,,,,masks/mask_003.jpg,,,,,,,,,,,,,,,,,,,,,,,,,,,,,,,,,,,,,,,,,,,,,,,,0,0,0,2,1,,,,,,,,,,,,,,,,,,,,,,,,,,,,,,,,,,,,,,,,,
157749,001,2022-11-20_19h57.05.336,Info_measure_main_exp,2022.2.2,Win32,59.74786401,,,,,,,,,,,,,,,,,,masks/mask_002.jpg,,,,,,,,,,,,,,,,,,,,,,,,,,,,,,,,,,,,,,,,,,,,,,,,0,1,1,1,1,,,,,,,,,,,,,,,,,,,,,,,,,,,,,,,,,,,,,,,,,
157749,001,2022-11-20_19h57.05.336,Info_measure_main_exp,2022.2.2,Win32,59.74786401,,,,,,,,,,,,,,,,,,masks/mask_001.jpg,,,,,,,,,,,,,,,,,,,,,,,,,,,,,,,,,,,,,,,,,,,,,,,,0,2,2,0,1,,,,,,,,,,,,,,,,,,,,,,,,,,,,,,,,,,,,,,,,,
157749,001,2022-11-20_19h57.05.336,Info_measure_main_exp,2022.2.2,Win32,59.74786401,,,,,,,,,,,,,,,,,,masks/mask_005.jpg,,,,,,,,,,,,,,,,,,,,,,,,,,,,,,,,,,,,,,,,,,,,,,,,0,3,3,4,1,,,,,,,,,,,,,,,,,,,,,,,,,,,,,,,,,,,,,,,,,
157749,001,2022-11-20_19h57.05.336,Info_measure_main_exp,2022.2.2,Win32,59.74786401,,,,,,,,,,,,,,,,,,masks/mask_004.jpg,,,,,,,,,,,,,,,,,,,,,,,,,,,,,,,,,,,,,,,,,,,,,,,,0,4,4,3,1,,,,,,,,,,,,,,,,,,,,,,,,,,,,,,,,,,,,,,,,,
157749,001,2022-11-20_19h57.05.336,Info_measure_main_exp,2022.2.2,Win32,59.74786401,,,,,,,,,,,,,,,,,,,,,,,,,,,,,,0,0.8678,1,,,,,,,,,,,,0,131,5,5,2298,2298,absent_patch/patch0002298.jpg,absent_patch/patch0002298.jpg,,,,,,,,,,,,,,,,,,,,-0.053385417,0.154947917,1,0,0,response7disk,24,-0.0078125,0.00390625,1,0,0,center_square,0,23,23,37,1,,,,,,,,,,,,,,,,,,,,,,,
157749,001,2022-11-20_19h57.05.336,Info_measure_main_exp,2022.2.2,Win32,59.74786401,,,,,,,,,,,,,,,,,,masks/mask_004.jpg,,,,,,,,,,,,,,,,,,,,,,,,,,,,,,,,,,,,,,,,,,,0,0,0,3,1,,,,,,,,,,,,,,,,,,,,,,,,,,,,,,,,,,,,,,,,,,,,,,
157749,001,2022-11-20_19h57.05.336,Info_measure_main_exp,2022.2.2,Win32,59.74786401,,,,,,,,,,,,,,,,,,masks/mask_002.jpg,,,,,,,,,,,,,,,,,,,,,,,,,,,,,,,,,,,,,,,,,,,0,1,1,1,1,,,,,,,,,,,,,,,,,,,,,,,,,,,,,,,,,,,,,,,,,,,,,,
157749,001,2022-11-20_19h57.05.336,Info_measure_main_exp,2022.2.2,Win32,59.74786401,,,,,,,,,,,,,,,,,,masks/mask_005.jpg,,,,,,,,,,,,,,,,,,,,,,,,,,,,,,,,,,,,,,,,,,,0,2,2,4,1,,,,,,,,,,,,,,,,,,,,,,,,,,,,,,,,,,,,,,,,,,,,,,
157749,001,2022-11-20_19h57.05.336,Info_measure_main_exp,2022.2.2,Win32,59.74786401,,,,,,,,,,,,,,,,,,masks/mask_001.jpg,,,,,,,,,,,,,,,,,,,,,,,,,,,,,,,,,,,,,,,,,,,0,3,3,0,1,,,,,,,,,,,,,,,,,,,,,,,,,,,,,,,,,,,,,,,,,,,,,,
157749,001,2022-11-20_19h57.05.336,Info_measure_main_exp,2022.2.2,Win32,59.74786401,,,,,,,,,,,,,,,,,,masks/mask_003.jpg,,,,,,,,,,,,,,,,,,,,,,,,,,,,,,,,,,,,,,,,,,,0,4,4,2,1,,,,,,,,,,,,,,,,,,,,,,,,,,,,,,,,,,,,,,,,,,,,,,
157749,001,2022-11-20_19h57.05.336,Info_measure_main_exp,2022.2.2,Win32,59.74786401,,,,,,,,,,,,,,,,,,masks/mask_001.jpg,,,,,,,,,,,,,,,,,,,,,,,,,,,,,,,,,,,,,,,,,,,,,,,,0,0,0,0,1,,,,,,,,,,,,,,,,,,,,,,,,,,,,,,,,,,,,,,,,,
157749,001,2022-11-20_19h57.05.336,Info_measure_main_exp,2022.2.2,Win32,59.74786401,,,,,,,,,,,,,,,,,,masks/mask_005.jpg,,,,,,,,,,,,,,,,,,,,,,,,,,,,,,,,,,,,,,,,,,,,,,,,0,1,1,4,1,,,,,,,,,,,,,,,,,,,,,,,,,,,,,,,,,,,,,,,,,
157749,001,2022-11-20_19h57.05.336,Info_measure_main_exp,2022.2.2,Win32,59.74786401,,,,,,,,,,,,,,,,,,masks/mask_002.jpg,,,,,,,,,,,,,,,,,,,,,,,,,,,,,,,,,,,,,,,,,,,,,,,,0,2,2,1,1,,,,,,,,,,,,,,,,,,,,,,,,,,,,,,,,,,,,,,,,,
157749,001,2022-11-20_19h57.05.336,Info_measure_main_exp,2022.2.2,Win32,59.74786401,,,,,,,,,,,,,,,,,,masks/mask_003.jpg,,,,,,,,,,,,,,,,,,,,,,,,,,,,,,,,,,,,,,,,,,,,,,,,0,3,3,2,1,,,,,,,,,,,,,,,,,,,,,,,,,,,,,,,,,,,,,,,,,
157749,001,2022-11-20_19h57.05.336,Info_measure_main_exp,2022.2.2,Win32,59.74786401,,,,,,,,,,,,,,,,,,masks/mask_004.jpg,,,,,,,,,,,,,,,,,,,,,,,,,,,,,,,,,,,,,,,,,,,,,,,,0,4,4,3,1,,,,,,,,,,,,,,,,,,,,,,,,,,,,,,,,,,,,,,,,,
157749,001,2022-11-20_19h57.05.336,Info_measure_main_exp,2022.2.2,Win32,59.74786401,,,,,,,,,,,,,,,,,,,,,,,,,,,,,,6,1.2338,1,,,,,,,,,,,,0,131,5,5,2250,1986,absent_patch/patch0002250.jpg,absent_patch/patch0001986.jpg,,,,,,,,,,,,,,,,,,,,0.127604167,0.02734375,1,0,0,response1disk,25,0,0.009114583,1,0,0,center_square,0,24,24,29,1,,,,,,,,,,,,,,,,,,,,,,,
157749,001,2022-11-20_19h57.05.336,Info_measure_main_exp,2022.2.2,Win32,59.74786401,,,,,,,,,,,,,,,,,,masks/mask_001.jpg,,,,,,,,,,,,,,,,,,,,,,,,,,,,,,,,,,,,,,,,,,,0,0,0,0,1,,,,,,,,,,,,,,,,,,,,,,,,,,,,,,,,,,,,,,,,,,,,,,
157749,001,2022-11-20_19h57.05.336,Info_measure_main_exp,2022.2.2,Win32,59.74786401,,,,,,,,,,,,,,,,,,masks/mask_005.jpg,,,,,,,,,,,,,,,,,,,,,,,,,,,,,,,,,,,,,,,,,,,0,1,1,4,1,,,,,,,,,,,,,,,,,,,,,,,,,,,,,,,,,,,,,,,,,,,,,,
157749,001,2022-11-20_19h57.05.336,Info_measure_main_exp,2022.2.2,Win32,59.74786401,,,,,,,,,,,,,,,,,,masks/mask_002.jpg,,,,,,,,,,,,,,,,,,,,,,,,,,,,,,,,,,,,,,,,,,,0,2,2,1,1,,,,,,,,,,,,,,,,,,,,,,,,,,,,,,,,,,,,,,,,,,,,,,
157749,001,2022-11-20_19h57.05.336,Info_measure_main_exp,2022.2.2,Win32,59.74786401,,,,,,,,,,,,,,,,,,masks/mask_003.jpg,,,,,,,,,,,,,,,,,,,,,,,,,,,,,,,,,,,,,,,,,,,0,3,3,2,1,,,,,,,,,,,,,,,,,,,,,,,,,,,,,,,,,,,,,,,,,,,,,,
157749,001,2022-11-20_19h57.05.336,Info_measure_main_exp,2022.2.2,Win32,59.74786401,,,,,,,,,,,,,,,,,,masks/mask_004.jpg,,,,,,,,,,,,,,,,,,,,,,,,,,,,,,,,,,,,,,,,,,,0,4,4,3,1,,,,,,,,,,,,,,,,,,,,,,,,,,,,,,,,,,,,,,,,,,,,,,
157749,001,2022-11-20_19h57.05.336,Info_measure_main_exp,2022.2.2,Win32,59.74786401,,,,,,,,,,,,,,,,,,masks/mask_002.jpg,,,,,,,,,,,,,,,,,,,,,,,,,,,,,,,,,,,,,,,,,,,,,,,,0,0,0,1,1,,,,,,,,,,,,,,,,,,,,,,,,,,,,,,,,,,,,,,,,,
157749,001,2022-11-20_19h57.05.336,Info_measure_main_exp,2022.2.2,Win32,59.74786401,,,,,,,,,,,,,,,,,,masks/mask_004.jpg,,,,,,,,,,,,,,,,,,,,,,,,,,,,,,,,,,,,,,,,,,,,,,,,0,1,1,3,1,,,,,,,,,,,,,,,,,,,,,,,,,,,,,,,,,,,,,,,,,
157749,001,2022-11-20_19h57.05.336,Info_measure_main_exp,2022.2.2,Win32,59.74786401,,,,,,,,,,,,,,,,,,masks/mask_003.jpg,,,,,,,,,,,,,,,,,,,,,,,,,,,,,,,,,,,,,,,,,,,,,,,,0,2,2,2,1,,,,,,,,,,,,,,,,,,,,,,,,,,,,,,,,,,,,,,,,,
157749,001,2022-11-20_19h57.05.336,Info_measure_main_exp,2022.2.2,Win32,59.74786401,,,,,,,,,,,,,,,,,,masks/mask_005.jpg,,,,,,,,,,,,,,,,,,,,,,,,,,,,,,,,,,,,,,,,,,,,,,,,0,3,3,4,1,,,,,,,,,,,,,,,,,,,,,,,,,,,,,,,,,,,,,,,,,
157749,001,2022-11-20_19h57.05.336,Info_measure_main_exp,2022.2.2,Win32,59.74786401,,,,,,,,,,,,,,,,,,masks/mask_001.jpg,,,,,,,,,,,,,,,,,,,,,,,,,,,,,,,,,,,,,,,,,,,,,,,,0,4,4,0,1,,,,,,,,,,,,,,,,,,,,,,,,,,,,,,,,,,,,,,,,,
157749,001,2022-11-20_19h57.05.336,Info_measure_main_exp,2022.2.2,Win32,59.74786401,,,,,,,,,,,,,,,,,,,,,,,,,,,,,,6,1.118,1,,,,,,,,,,,,0,131,5,5,1950,2238,absent_patch/patch0001950.jpg,absent_patch/patch0002238.jpg,,,,,,,,,,,,,,,,,,,,0.08203125,0.053385417,1,0,0,response1disk,26,0.001302083,0.006510417,1,0,0,center_square,0,25,25,8,1,,,,,,,,,,,,,,,,,,,,,,,
157749,001,2022-11-20_19h57.05.336,Info_measure_main_exp,2022.2.2,Win32,59.74786401,,,,,,,,,,,,,,,,,,masks/mask_001.jpg,,,,,,,,,,,,,,,,,,,,,,,,,,,,,,,,,,,,,,,,,,,0,0,0,0,1,,,,,,,,,,,,,,,,,,,,,,,,,,,,,,,,,,,,,,,,,,,,,,
157749,001,2022-11-20_19h57.05.336,Info_measure_main_exp,2022.2.2,Win32,59.74786401,,,,,,,,,,,,,,,,,,masks/mask_004.jpg,,,,,,,,,,,,,,,,,,,,,,,,,,,,,,,,,,,,,,,,,,,0,1,1,3,1,,,,,,,,,,,,,,,,,,,,,,,,,,,,,,,,,,,,,,,,,,,,,,
157749,001,2022-11-20_19h57.05.336,Info_measure_main_exp,2022.2.2,Win32,59.74786401,,,,,,,,,,,,,,,,,,masks/mask_005.jpg,,,,,,,,,,,,,,,,,,,,,,,,,,,,,,,,,,,,,,,,,,,0,2,2,4,1,,,,,,,,,,,,,,,,,,,,,,,,,,,,,,,,,,,,,,,,,,,,,,
157749,001,2022-11-20_19h57.05.336,Info_measure_main_exp,2022.2.2,Win32,59.74786401,,,,,,,,,,,,,,,,,,masks/mask_003.jpg,,,,,,,,,,,,,,,,,,,,,,,,,,,,,,,,,,,,,,,,,,,0,3,3,2,1,,,,,,,,,,,,,,,,,,,,,,,,,,,,,,,,,,,,,,,,,,,,,,
157749,001,2022-11-20_19h57.05.336,Info_measure_main_exp,2022.2.2,Win32,59.74786401,,,,,,,,,,,,,,,,,,masks/mask_002.jpg,,,,,,,,,,,,,,,,,,,,,,,,,,,,,,,,,,,,,,,,,,,0,4,4,1,1,,,,,,,,,,,,,,,,,,,,,,,,,,,,,,,,,,,,,,,,,,,,,,
157749,001,2022-11-20_19h57.05.336,Info_measure_main_exp,2022.2.2,Win32,59.74786401,,,,,,,,,,,,,,,,,,masks/mask_004.jpg,,,,,,,,,,,,,,,,,,,,,,,,,,,,,,,,,,,,,,,,,,,,,,,,0,0,0,3,1,,,,,,,,,,,,,,,,,,,,,,,,,,,,,,,,,,,,,,,,,
157749,001,2022-11-20_19h57.05.336,Info_measure_main_exp,2022.2.2,Win32,59.74786401,,,,,,,,,,,,,,,,,,masks/mask_003.jpg,,,,,,,,,,,,,,,,,,,,,,,,,,,,,,,,,,,,,,,,,,,,,,,,0,1,1,2,1,,,,,,,,,,,,,,,,,,,,,,,,,,,,,,,,,,,,,,,,,
157749,001,2022-11-20_19h57.05.336,Info_measure_main_exp,2022.2.2,Win32,59.74786401,,,,,,,,,,,,,,,,,,masks/mask_002.jpg,,,,,,,,,,,,,,,,,,,,,,,,,,,,,,,,,,,,,,,,,,,,,,,,0,2,2,1,1,,,,,,,,,,,,,,,,,,,,,,,,,,,,,,,,,,,,,,,,,
157749,001,2022-11-20_19h57.05.336,Info_measure_main_exp,2022.2.2,Win32,59.74786401,,,,,,,,,,,,,,,,,,masks/mask_001.jpg,,,,,,,,,,,,,,,,,,,,,,,,,,,,,,,,,,,,,,,,,,,,,,,,0,3,3,0,1,,,,,,,,,,,,,,,,,,,,,,,,,,,,,,,,,,,,,,,,,
157749,001,2022-11-20_19h57.05.336,Info_measure_main_exp,2022.2.2,Win32,59.74786401,,,,,,,,,,,,,,,,,,masks/mask_005.jpg,,,,,,,,,,,,,,,,,,,,,,,,,,,,,,,,,,,,,,,,,,,,,,,,0,4,4,4,1,,,,,,,,,,,,,,,,,,,,,,,,,,,,,,,,,,,,,,,,,
157749,001,2022-11-20_19h57.05.336,Info_measure_main_exp,2022.2.2,Win32,59.74786401,,,,,,,,,,,,,,,,,,,,,,,,,,,,,,7,1.2169,1,,,,,,,,,,,,1,131,5,5,2190,1,absent_patch/patch0002190.jpg,present_patch/cong_131_5_a.jpg,,,,,,,,,,,,,,,,,,,,0.049479167,0.1171875,1,0,0,response1disk,27,-0.001302083,0.009114583,1,0,0,center_square,0,26,26,64,1,,,,,,,,,,,,,,,,,,,,,,,
157749,001,2022-11-20_19h57.05.336,Info_measure_main_exp,2022.2.2,Win32,59.74786401,,,,,,,,,,,,,,,,,,masks/mask_005.jpg,,,,,,,,,,,,,,,,,,,,,,,,,,,,,,,,,,,,,,,,,,,0,0,0,4,1,,,,,,,,,,,,,,,,,,,,,,,,,,,,,,,,,,,,,,,,,,,,,,
157749,001,2022-11-20_19h57.05.336,Info_measure_main_exp,2022.2.2,Win32,59.74786401,,,,,,,,,,,,,,,,,,masks/mask_001.jpg,,,,,,,,,,,,,,,,,,,,,,,,,,,,,,,,,,,,,,,,,,,0,1,1,0,1,,,,,,,,,,,,,,,,,,,,,,,,,,,,,,,,,,,,,,,,,,,,,,
157749,001,2022-11-20_19h57.05.336,Info_measure_main_exp,2022.2.2,Win32,59.74786401,,,,,,,,,,,,,,,,,,masks/mask_004.jpg,,,,,,,,,,,,,,,,,,,,,,,,,,,,,,,,,,,,,,,,,,,0,2,2,3,1,,,,,,,,,,,,,,,,,,,,,,,,,,,,,,,,,,,,,,,,,,,,,,
157749,001,2022-11-20_19h57.05.336,Info_measure_main_exp,2022.2.2,Win32,59.74786401,,,,,,,,,,,,,,,,,,masks/mask_002.jpg,,,,,,,,,,,,,,,,,,,,,,,,,,,,,,,,,,,,,,,,,,,0,3,3,1,1,,,,,,,,,,,,,,,,,,,,,,,,,,,,,,,,,,,,,,,,,,,,,,
157749,001,2022-11-20_19h57.05.336,Info_measure_main_exp,2022.2.2,Win32,59.74786401,,,,,,,,,,,,,,,,,,masks/mask_003.jpg,,,,,,,,,,,,,,,,,,,,,,,,,,,,,,,,,,,,,,,,,,,0,4,4,2,1,,,,,,,,,,,,,,,,,,,,,,,,,,,,,,,,,,,,,,,,,,,,,,
157749,001,2022-11-20_19h57.05.336,Info_measure_main_exp,2022.2.2,Win32,59.74786401,,,,,,,,,,,,,,,,,,masks/mask_001.jpg,,,,,,,,,,,,,,,,,,,,,,,,,,,,,,,,,,,,,,,,,,,,,,,,0,0,0,0,1,,,,,,,,,,,,,,,,,,,,,,,,,,,,,,,,,,,,,,,,,
157749,001,2022-11-20_19h57.05.336,Info_measure_main_exp,2022.2.2,Win32,59.74786401,,,,,,,,,,,,,,,,,,masks/mask_003.jpg,,,,,,,,,,,,,,,,,,,,,,,,,,,,,,,,,,,,,,,,,,,,,,,,0,1,1,2,1,,,,,,,,,,,,,,,,,,,,,,,,,,,,,,,,,,,,,,,,,
157749,001,2022-11-20_19h57.05.336,Info_measure_main_exp,2022.2.2,Win32,59.74786401,,,,,,,,,,,,,,,,,,masks/mask_005.jpg,,,,,,,,,,,,,,,,,,,,,,,,,,,,,,,,,,,,,,,,,,,,,,,,0,2,2,4,1,,,,,,,,,,,,,,,,,,,,,,,,,,,,,,,,,,,,,,,,,
157749,001,2022-11-20_19h57.05.336,Info_measure_main_exp,2022.2.2,Win32,59.74786401,,,,,,,,,,,,,,,,,,masks/mask_004.jpg,,,,,,,,,,,,,,,,,,,,,,,,,,,,,,,,,,,,,,,,,,,,,,,,0,3,3,3,1,,,,,,,,,,,,,,,,,,,,,,,,,,,,,,,,,,,,,,,,,
157749,001,2022-11-20_19h57.05.336,Info_measure_main_exp,2022.2.2,Win32,59.74786401,,,,,,,,,,,,,,,,,,masks/mask_002.jpg,,,,,,,,,,,,,,,,,,,,,,,,,,,,,,,,,,,,,,,,,,,,,,,,0,4,4,1,1,,,,,,,,,,,,,,,,,,,,,,,,,,,,,,,,,,,,,,,,,
157749,001,2022-11-20_19h57.05.336,Info_measure_main_exp,2022.2.2,Win32,59.74786401,,,,,,,,,,,,,,,,,,,,,,,,,,,,,,7,1.7655,1,,,,,,,,,,,,1,131,5,5,2082,1,absent_patch/patch0002082.jpg,present_patch/cong_131_5_a.jpg,,,,,,,,,,,,,,,,,,,,0.063802083,0.1015625,1,0,0,response1disk,28,0.002604167,0.006510417,1,0,0,center_square,0,27,27,65,1,,,,,,,,,,,,,,,,,,,,,,,
157749,001,2022-11-20_19h57.05.336,Info_measure_main_exp,2022.2.2,Win32,59.74786401,,,,,,,,,,,,,,,,,,masks/mask_002.jpg,,,,,,,,,,,,,,,,,,,,,,,,,,,,,,,,,,,,,,,,,,,0,0,0,1,1,,,,,,,,,,,,,,,,,,,,,,,,,,,,,,,,,,,,,,,,,,,,,,
157749,001,2022-11-20_19h57.05.336,Info_measure_main_exp,2022.2.2,Win32,59.74786401,,,,,,,,,,,,,,,,,,masks/mask_003.jpg,,,,,,,,,,,,,,,,,,,,,,,,,,,,,,,,,,,,,,,,,,,0,1,1,2,1,,,,,,,,,,,,,,,,,,,,,,,,,,,,,,,,,,,,,,,,,,,,,,
157749,001,2022-11-20_19h57.05.336,Info_measure_main_exp,2022.2.2,Win32,59.74786401,,,,,,,,,,,,,,,,,,masks/mask_004.jpg,,,,,,,,,,,,,,,,,,,,,,,,,,,,,,,,,,,,,,,,,,,0,2,2,3,1,,,,,,,,,,,,,,,,,,,,,,,,,,,,,,,,,,,,,,,,,,,,,,
157749,001,2022-11-20_19h57.05.336,Info_measure_main_exp,2022.2.2,Win32,59.74786401,,,,,,,,,,,,,,,,,,masks/mask_001.jpg,,,,,,,,,,,,,,,,,,,,,,,,,,,,,,,,,,,,,,,,,,,0,3,3,0,1,,,,,,,,,,,,,,,,,,,,,,,,,,,,,,,,,,,,,,,,,,,,,,
157749,001,2022-11-20_19h57.05.336,Info_measure_main_exp,2022.2.2,Win32,59.74786401,,,,,,,,,,,,,,,,,,masks/mask_005.jpg,,,,,,,,,,,,,,,,,,,,,,,,,,,,,,,,,,,,,,,,,,,0,4,4,4,1,,,,,,,,,,,,,,,,,,,,,,,,,,,,,,,,,,,,,,,,,,,,,,
157749,001,2022-11-20_19h57.05.336,Info_measure_main_exp,2022.2.2,Win32,59.74786401,,,,,,,,,,,,,,,,,,masks/mask_002.jpg,,,,,,,,,,,,,,,,,,,,,,,,,,,,,,,,,,,,,,,,,,,,,,,,0,0,0,1,1,,,,,,,,,,,,,,,,,,,,,,,,,,,,,,,,,,,,,,,,,
157749,001,2022-11-20_19h57.05.336,Info_measure_main_exp,2022.2.2,Win32,59.74786401,,,,,,,,,,,,,,,,,,masks/mask_001.jpg,,,,,,,,,,,,,,,,,,,,,,,,,,,,,,,,,,,,,,,,,,,,,,,,0,1,1,0,1,,,,,,,,,,,,,,,,,,,,,,,,,,,,,,,,,,,,,,,,,
157749,001,2022-11-20_19h57.05.336,Info_measure_main_exp,2022.2.2,Win32,59.74786401,,,,,,,,,,,,,,,,,,masks/mask_004.jpg,,,,,,,,,,,,,,,,,,,,,,,,,,,,,,,,,,,,,,,,,,,,,,,,0,2,2,3,1,,,,,,,,,,,,,,,,,,,,,,,,,,,,,,,,,,,,,,,,,
157749,001,2022-11-20_19h57.05.336,Info_measure_main_exp,2022.2.2,Win32,59.74786401,,,,,,,,,,,,,,,,,,masks/mask_003.jpg,,,,,,,,,,,,,,,,,,,,,,,,,,,,,,,,,,,,,,,,,,,,,,,,0,3,3,2,1,,,,,,,,,,,,,,,,,,,,,,,,,,,,,,,,,,,,,,,,,
157749,001,2022-11-20_19h57.05.336,Info_measure_main_exp,2022.2.2,Win32,59.74786401,,,,,,,,,,,,,,,,,,masks/mask_005.jpg,,,,,,,,,,,,,,,,,,,,,,,,,,,,,,,,,,,,,,,,,,,,,,,,0,4,4,4,1,,,,,,,,,,,,,,,,,,,,,,,,,,,,,,,,,,,,,,,,,
157749,001,2022-11-20_19h57.05.336,Info_measure_main_exp,2022.2.2,Win32,59.74786401,,,,,,,,,,,,,,,,,,,,,,,,,,,,,,3,1.7651,1,,,,,,,,,,,,0,131,5,5,2250,1950,absent_patch/patch0002250.jpg,absent_patch/patch0001950.jpg,,,,,,,,,,,,,,,,,,,,-0.036458333,-0.108072917,1,0,0,response5disk,29,-0.005208333,-0.00390625,1,0,0,center_square,0,28,28,16,1,,,,,,,,,,,,,,,,,,,,,,,
157749,001,2022-11-20_19h57.05.336,Info_measure_main_exp,2022.2.2,Win32,59.74786401,,,,,,,,,,,,,,,,,,masks/mask_001.jpg,,,,,,,,,,,,,,,,,,,,,,,,,,,,,,,,,,,,,,,,,,,0,0,0,0,1,,,,,,,,,,,,,,,,,,,,,,,,,,,,,,,,,,,,,,,,,,,,,,
157749,001,2022-11-20_19h57.05.336,Info_measure_main_exp,2022.2.2,Win32,59.74786401,,,,,,,,,,,,,,,,,,masks/mask_004.jpg,,,,,,,,,,,,,,,,,,,,,,,,,,,,,,,,,,,,,,,,,,,0,1,1,3,1,,,,,,,,,,,,,,,,,,,,,,,,,,,,,,,,,,,,,,,,,,,,,,
157749,001,2022-11-20_19h57.05.336,Info_measure_main_exp,2022.2.2,Win32,59.74786401,,,,,,,,,,,,,,,,,,masks/mask_002.jpg,,,,,,,,,,,,,,,,,,,,,,,,,,,,,,,,,,,,,,,,,,,0,2,2,1,1,,,,,,,,,,,,,,,,,,,,,,,,,,,,,,,,,,,,,,,,,,,,,,
157749,001,2022-11-20_19h57.05.336,Info_measure_main_exp,2022.2.2,Win32,59.74786401,,,,,,,,,,,,,,,,,,masks/mask_005.jpg,,,,,,,,,,,,,,,,,,,,,,,,,,,,,,,,,,,,,,,,,,,0,3,3,4,1,,,,,,,,,,,,,,,,,,,,,,,,,,,,,,,,,,,,,,,,,,,,,,
157749,001,2022-11-20_19h57.05.336,Info_measure_main_exp,2022.2.2,Win32,59.74786401,,,,,,,,,,,,,,,,,,masks/mask_003.jpg,,,,,,,,,,,,,,,,,,,,,,,,,,,,,,,,,,,,,,,,,,,0,4,4,2,1,,,,,,,,,,,,,,,,,,,,,,,,,,,,,,,,,,,,,,,,,,,,,,
157749,001,2022-11-20_19h57.05.336,Info_measure_main_exp,2022.2.2,Win32,59.74786401,,,,,,,,,,,,,,,,,,masks/mask_005.jpg,,,,,,,,,,,,,,,,,,,,,,,,,,,,,,,,,,,,,,,,,,,,,,,,0,0,0,4,1,,,,,,,,,,,,,,,,,,,,,,,,,,,,,,,,,,,,,,,,,
157749,001,2022-11-20_19h57.05.336,Info_measure_main_exp,2022.2.2,Win32,59.74786401,,,,,,,,,,,,,,,,,,masks/mask_003.jpg,,,,,,,,,,,,,,,,,,,,,,,,,,,,,,,,,,,,,,,,,,,,,,,,0,1,1,2,1,,,,,,,,,,,,,,,,,,,,,,,,,,,,,,,,,,,,,,,,,
157749,001,2022-11-20_19h57.05.336,Info_measure_main_exp,2022.2.2,Win32,59.74786401,,,,,,,,,,,,,,,,,,masks/mask_002.jpg,,,,,,,,,,,,,,,,,,,,,,,,,,,,,,,,,,,,,,,,,,,,,,,,0,2,2,1,1,,,,,,,,,,,,,,,,,,,,,,,,,,,,,,,,,,,,,,,,,
157749,001,2022-11-20_19h57.05.336,Info_measure_main_exp,2022.2.2,Win32,59.74786401,,,,,,,,,,,,,,,,,,masks/mask_001.jpg,,,,,,,,,,,,,,,,,,,,,,,,,,,,,,,,,,,,,,,,,,,,,,,,0,3,3,0,1,,,,,,,,,,,,,,,,,,,,,,,,,,,,,,,,,,,,,,,,,
157749,001,2022-11-20_19h57.05.336,Info_measure_main_exp,2022.2.2,Win32,59.74786401,,,,,,,,,,,,,,,,,,masks/mask_004.jpg,,,,,,,,,,,,,,,,,,,,,,,,,,,,,,,,,,,,,,,,,,,,,,,,0,4,4,3,1,,,,,,,,,,,,,,,,,,,,,,,,,,,,,,,,,,,,,,,,,
157749,001,2022-11-20_19h57.05.336,Info_measure_main_exp,2022.2.2,Win32,59.74786401,,,,,,,,,,,,,,,,,,,,,,,,,,,,,,4,1.4334,1,,,,,,,,,,,,0,131,5,5,2250,2166,absent_patch/patch0002250.jpg,absent_patch/patch0002166.jpg,,,,,,,,,,,,,,,,,,,,0.059895833,-0.09765625,1,0,0,response3disk,30,0.00390625,0.001302083,1,0,0,center_square,0,29,29,60,1,,,,,,,,,,,,,,,,,,,,,,,
157749,001,2022-11-20_19h57.05.336,Info_measure_main_exp,2022.2.2,Win32,59.74786401,,,,,,,,,,,,,,,,,,masks/mask_003.jpg,,,,,,,,,,,,,,,,,,,,,,,,,,,,,,,,,,,,,,,,,,,0,0,0,2,1,,,,,,,,,,,,,,,,,,,,,,,,,,,,,,,,,,,,,,,,,,,,,,
157749,001,2022-11-20_19h57.05.336,Info_measure_main_exp,2022.2.2,Win32,59.74786401,,,,,,,,,,,,,,,,,,masks/mask_001.jpg,,,,,,,,,,,,,,,,,,,,,,,,,,,,,,,,,,,,,,,,,,,0,1,1,0,1,,,,,,,,,,,,,,,,,,,,,,,,,,,,,,,,,,,,,,,,,,,,,,
157749,001,2022-11-20_19h57.05.336,Info_measure_main_exp,2022.2.2,Win32,59.74786401,,,,,,,,,,,,,,,,,,masks/mask_002.jpg,,,,,,,,,,,,,,,,,,,,,,,,,,,,,,,,,,,,,,,,,,,0,2,2,1,1,,,,,,,,,,,,,,,,,,,,,,,,,,,,,,,,,,,,,,,,,,,,,,
157749,001,2022-11-20_19h57.05.336,Info_measure_main_exp,2022.2.2,Win32,59.74786401,,,,,,,,,,,,,,,,,,masks/mask_005.jpg,,,,,,,,,,,,,,,,,,,,,,,,,,,,,,,,,,,,,,,,,,,0,3,3,4,1,,,,,,,,,,,,,,,,,,,,,,,,,,,,,,,,,,,,,,,,,,,,,,
157749,001,2022-11-20_19h57.05.336,Info_measure_main_exp,2022.2.2,Win32,59.74786401,,,,,,,,,,,,,,,,,,masks/mask_004.jpg,,,,,,,,,,,,,,,,,,,,,,,,,,,,,,,,,,,,,,,,,,,0,4,4,3,1,,,,,,,,,,,,,,,,,,,,,,,,,,,,,,,,,,,,,,,,,,,,,,
157749,001,2022-11-20_19h57.05.336,Info_measure_main_exp,2022.2.2,Win32,59.74786401,,,,,,,,,,,,,,,,,,masks/mask_004.jpg,,,,,,,,,,,,,,,,,,,,,,,,,,,,,,,,,,,,,,,,,,,,,,,,0,0,0,3,1,,,,,,,,,,,,,,,,,,,,,,,,,,,,,,,,,,,,,,,,,
157749,001,2022-11-20_19h57.05.336,Info_measure_main_exp,2022.2.2,Win32,59.74786401,,,,,,,,,,,,,,,,,,masks/mask_003.jpg,,,,,,,,,,,,,,,,,,,,,,,,,,,,,,,,,,,,,,,,,,,,,,,,0,1,1,2,1,,,,,,,,,,,,,,,,,,,,,,,,,,,,,,,,,,,,,,,,,
157749,001,2022-11-20_19h57.05.336,Info_measure_main_exp,2022.2.2,Win32,59.74786401,,,,,,,,,,,,,,,,,,masks/mask_002.jpg,,,,,,,,,,,,,,,,,,,,,,,,,,,,,,,,,,,,,,,,,,,,,,,,0,2,2,1,1,,,,,,,,,,,,,,,,,,,,,,,,,,,,,,,,,,,,,,,,,
157749,001,2022-11-20_19h57.05.336,Info_measure_main_exp,2022.2.2,Win32,59.74786401,,,,,,,,,,,,,,,,,,masks/mask_005.jpg,,,,,,,,,,,,,,,,,,,,,,,,,,,,,,,,,,,,,,,,,,,,,,,,0,3,3,4,1,,,,,,,,,,,,,,,,,,,,,,,,,,,,,,,,,,,,,,,,,
157749,001,2022-11-20_19h57.05.336,Info_measure_main_exp,2022.2.2,Win32,59.74786401,,,,,,,,,,,,,,,,,,masks/mask_001.jpg,,,,,,,,,,,,,,,,,,,,,,,,,,,,,,,,,,,,,,,,,,,,,,,,0,4,4,0,1,,,,,,,,,,,,,,,,,,,,,,,,,,,,,,,,,,,,,,,,,
157749,001,2022-11-20_19h57.05.336,Info_measure_main_exp,2022.2.2,Win32,59.74786401,,,,,,,,,,,,,,,,,,,,,,,,,,,,,,7,2.1173,1,,,,,,,,,,,,1,131,5,5,1,2166,present_patch/cong_131_5_a.jpg,absent_patch/patch0002166.jpg,,,,,,,,,,,,,,,,,,,,0.0625,0.114583333,1,0,0,response1disk,31,0.005208333,0.009114583,1,0,0,center_square,0,30,30,54,1,,,,,,,,,,,,,,,,,,,,,,,
157749,001,2022-11-20_19h57.05.336,Info_measure_main_exp,2022.2.2,Win32,59.74786401,,,,,,,,,,,,,,,,,,masks/mask_004.jpg,,,,,,,,,,,,,,,,,,,,,,,,,,,,,,,,,,,,,,,,,,,0,0,0,3,1,,,,,,,,,,,,,,,,,,,,,,,,,,,,,,,,,,,,,,,,,,,,,,
157749,001,2022-11-20_19h57.05.336,Info_measure_main_exp,2022.2.2,Win32,59.74786401,,,,,,,,,,,,,,,,,,masks/mask_001.jpg,,,,,,,,,,,,,,,,,,,,,,,,,,,,,,,,,,,,,,,,,,,0,1,1,0,1,,,,,,,,,,,,,,,,,,,,,,,,,,,,,,,,,,,,,,,,,,,,,,
157749,001,2022-11-20_19h57.05.336,Info_measure_main_exp,2022.2.2,Win32,59.74786401,,,,,,,,,,,,,,,,,,masks/mask_003.jpg,,,,,,,,,,,,,,,,,,,,,,,,,,,,,,,,,,,,,,,,,,,0,2,2,2,1,,,,,,,,,,,,,,,,,,,,,,,,,,,,,,,,,,,,,,,,,,,,,,
157749,001,2022-11-20_19h57.05.336,Info_measure_main_exp,2022.2.2,Win32,59.74786401,,,,,,,,,,,,,,,,,,masks/mask_002.jpg,,,,,,,,,,,,,,,,,,,,,,,,,,,,,,,,,,,,,,,,,,,0,3,3,1,1,,,,,,,,,,,,,,,,,,,,,,,,,,,,,,,,,,,,,,,,,,,,,,
157749,001,2022-11-20_19h57.05.336,Info_measure_main_exp,2022.2.2,Win32,59.74786401,,,,,,,,,,,,,,,,,,masks/mask_005.jpg,,,,,,,,,,,,,,,,,,,,,,,,,,,,,,,,,,,,,,,,,,,0,4,4,4,1,,,,,,,,,,,,,,,,,,,,,,,,,,,,,,,,,,,,,,,,,,,,,,
157749,001,2022-11-20_19h57.05.336,Info_measure_main_exp,2022.2.2,Win32,59.74786401,,,,,,,,,,,,,,,,,,masks/mask_002.jpg,,,,,,,,,,,,,,,,,,,,,,,,,,,,,,,,,,,,,,,,,,,,,,,,0,0,0,1,1,,,,,,,,,,,,,,,,,,,,,,,,,,,,,,,,,,,,,,,,,
157749,001,2022-11-20_19h57.05.336,Info_measure_main_exp,2022.2.2,Win32,59.74786401,,,,,,,,,,,,,,,,,,masks/mask_001.jpg,,,,,,,,,,,,,,,,,,,,,,,,,,,,,,,,,,,,,,,,,,,,,,,,0,1,1,0,1,,,,,,,,,,,,,,,,,,,,,,,,,,,,,,,,,,,,,,,,,
157749,001,2022-11-20_19h57.05.336,Info_measure_main_exp,2022.2.2,Win32,59.74786401,,,,,,,,,,,,,,,,,,masks/mask_005.jpg,,,,,,,,,,,,,,,,,,,,,,,,,,,,,,,,,,,,,,,,,,,,,,,,0,2,2,4,1,,,,,,,,,,,,,,,,,,,,,,,,,,,,,,,,,,,,,,,,,
157749,001,2022-11-20_19h57.05.336,Info_measure_main_exp,2022.2.2,Win32,59.74786401,,,,,,,,,,,,,,,,,,masks/mask_004.jpg,,,,,,,,,,,,,,,,,,,,,,,,,,,,,,,,,,,,,,,,,,,,,,,,0,3,3,3,1,,,,,,,,,,,,,,,,,,,,,,,,,,,,,,,,,,,,,,,,,
157749,001,2022-11-20_19h57.05.336,Info_measure_main_exp,2022.2.2,Win32,59.74786401,,,,,,,,,,,,,,,,,,masks/mask_003.jpg,,,,,,,,,,,,,,,,,,,,,,,,,,,,,,,,,,,,,,,,,,,,,,,,0,4,4,2,1,,,,,,,,,,,,,,,,,,,,,,,,,,,,,,,,,,,,,,,,,
157749,001,2022-11-20_19h57.05.336,Info_measure_main_exp,2022.2.2,Win32,59.74786401,,,,,,,,,,,,,,,,,,,,,,,,,,,,,,1,1.3506,1,,,,,,,,,,,,0,131,5,5,2298,2190,absent_patch/patch0002298.jpg,absent_patch/patch0002190.jpg,,,,,,,,,,,,,,,,,,,,-0.102864583,0.029947917,1,0,0,response7disk,32,-0.001302083,-0.005208333,1,0,0,center_square,0,31,31,20,1,,,,,,,,,,,,,,,,,,,,,,,
157749,001,2022-11-20_19h57.05.336,Info_measure_main_exp,2022.2.2,Win32,59.74786401,,,,,,,,,,,,,,,,,,masks/mask_004.jpg,,,,,,,,,,,,,,,,,,,,,,,,,,,,,,,,,,,,,,,,,,,0,0,0,3,1,,,,,,,,,,,,,,,,,,,,,,,,,,,,,,,,,,,,,,,,,,,,,,
157749,001,2022-11-20_19h57.05.336,Info_measure_main_exp,2022.2.2,Win32,59.74786401,,,,,,,,,,,,,,,,,,masks/mask_003.jpg,,,,,,,,,,,,,,,,,,,,,,,,,,,,,,,,,,,,,,,,,,,0,1,1,2,1,,,,,,,,,,,,,,,,,,,,,,,,,,,,,,,,,,,,,,,,,,,,,,
157749,001,2022-11-20_19h57.05.336,Info_measure_main_exp,2022.2.2,Win32,59.74786401,,,,,,,,,,,,,,,,,,masks/mask_002.jpg,,,,,,,,,,,,,,,,,,,,,,,,,,,,,,,,,,,,,,,,,,,0,2,2,1,1,,,,,,,,,,,,,,,,,,,,,,,,,,,,,,,,,,,,,,,,,,,,,,
157749,001,2022-11-20_19h57.05.336,Info_measure_main_exp,2022.2.2,Win32,59.74786401,,,,,,,,,,,,,,,,,,masks/mask_005.jpg,,,,,,,,,,,,,,,,,,,,,,,,,,,,,,,,,,,,,,,,,,,0,3,3,4,1,,,,,,,,,,,,,,,,,,,,,,,,,,,,,,,,,,,,,,,,,,,,,,
157749,001,2022-11-20_19h57.05.336,Info_measure_main_exp,2022.2.2,Win32,59.74786401,,,,,,,,,,,,,,,,,,masks/mask_001.jpg,,,,,,,,,,,,,,,,,,,,,,,,,,,,,,,,,,,,,,,,,,,0,4,4,0,1,,,,,,,,,,,,,,,,,,,,,,,,,,,,,,,,,,,,,,,,,,,,,,
157749,001,2022-11-20_19h57.05.336,Info_measure_main_exp,2022.2.2,Win32,59.74786401,,,,,,,,,,,,,,,,,,masks/mask_001.jpg,,,,,,,,,,,,,,,,,,,,,,,,,,,,,,,,,,,,,,,,,,,,,,,,0,0,0,0,1,,,,,,,,,,,,,,,,,,,,,,,,,,,,,,,,,,,,,,,,,
157749,001,2022-11-20_19h57.05.336,Info_measure_main_exp,2022.2.2,Win32,59.74786401,,,,,,,,,,,,,,,,,,masks/mask_004.jpg,,,,,,,,,,,,,,,,,,,,,,,,,,,,,,,,,,,,,,,,,,,,,,,,0,1,1,3,1,,,,,,,,,,,,,,,,,,,,,,,,,,,,,,,,,,,,,,,,,
157749,001,2022-11-20_19h57.05.336,Info_measure_main_exp,2022.2.2,Win32,59.74786401,,,,,,,,,,,,,,,,,,masks/mask_005.jpg,,,,,,,,,,,,,,,,,,,,,,,,,,,,,,,,,,,,,,,,,,,,,,,,0,2,2,4,1,,,,,,,,,,,,,,,,,,,,,,,,,,,,,,,,,,,,,,,,,
157749,001,2022-11-20_19h57.05.336,Info_measure_main_exp,2022.2.2,Win32,59.74786401,,,,,,,,,,,,,,,,,,masks/mask_002.jpg,,,,,,,,,,,,,,,,,,,,,,,,,,,,,,,,,,,,,,,,,,,,,,,,0,3,3,1,1,,,,,,,,,,,,,,,,,,,,,,,,,,,,,,,,,,,,,,,,,
157749,001,2022-11-20_19h57.05.336,Info_measure_main_exp,2022.2.2,Win32,59.74786401,,,,,,,,,,,,,,,,,,masks/mask_003.jpg,,,,,,,,,,,,,,,,,,,,,,,,,,,,,,,,,,,,,,,,,,,,,,,,0,4,4,2,1,,,,,,,,,,,,,,,,,,,,,,,,,,,,,,,,,,,,,,,,,
157749,001,2022-11-20_19h57.05.336,Info_measure_main_exp,2022.2.2,Win32,59.74786401,,,,,,,,,,,,,,,,,,,,,,,,,,,,,,4,1.4819,1,,,,,,,,,,,,0,131,5,5,1986,1950,absent_patch/patch0001986.jpg,absent_patch/patch0001950.jpg,,,,,,,,,,,,,,,,,,,,0.016927083,-0.102864583,1,0,0,response3disk,33,0.001302083,0.0078125,1,0,0,center_square,0,32,32,15,1,,,,,,,,,,,,,,,,,,,,,,,
157749,001,2022-11-20_19h57.05.336,Info_measure_main_exp,2022.2.2,Win32,59.74786401,,,,,,,,,,,,,,,,,,masks/mask_003.jpg,,,,,,,,,,,,,,,,,,,,,,,,,,,,,,,,,,,,,,,,,,,0,0,0,2,1,,,,,,,,,,,,,,,,,,,,,,,,,,,,,,,,,,,,,,,,,,,,,,
157749,001,2022-11-20_19h57.05.336,Info_measure_main_exp,2022.2.2,Win32,59.74786401,,,,,,,,,,,,,,,,,,masks/mask_005.jpg,,,,,,,,,,,,,,,,,,,,,,,,,,,,,,,,,,,,,,,,,,,0,1,1,4,1,,,,,,,,,,,,,,,,,,,,,,,,,,,,,,,,,,,,,,,,,,,,,,
157749,001,2022-11-20_19h57.05.336,Info_measure_main_exp,2022.2.2,Win32,59.74786401,,,,,,,,,,,,,,,,,,masks/mask_004.jpg,,,,,,,,,,,,,,,,,,,,,,,,,,,,,,,,,,,,,,,,,,,0,2,2,3,1,,,,,,,,,,,,,,,,,,,,,,,,,,,,,,,,,,,,,,,,,,,,,,
157749,001,2022-11-20_19h57.05.336,Info_measure_main_exp,2022.2.2,Win32,59.74786401,,,,,,,,,,,,,,,,,,masks/mask_002.jpg,,,,,,,,,,,,,,,,,,,,,,,,,,,,,,,,,,,,,,,,,,,0,3,3,1,1,,,,,,,,,,,,,,,,,,,,,,,,,,,,,,,,,,,,,,,,,,,,,,
157749,001,2022-11-20_19h57.05.336,Info_measure_main_exp,2022.2.2,Win32,59.74786401,,,,,,,,,,,,,,,,,,masks/mask_001.jpg,,,,,,,,,,,,,,,,,,,,,,,,,,,,,,,,,,,,,,,,,,,0,4,4,0,1,,,,,,,,,,,,,,,,,,,,,,,,,,,,,,,,,,,,,,,,,,,,,,
157749,001,2022-11-20_19h57.05.336,Info_measure_main_exp,2022.2.2,Win32,59.74786401,,,,,,,,,,,,,,,,,,masks/mask_002.jpg,,,,,,,,,,,,,,,,,,,,,,,,,,,,,,,,,,,,,,,,,,,,,,,,0,0,0,1,1,,,,,,,,,,,,,,,,,,,,,,,,,,,,,,,,,,,,,,,,,
157749,001,2022-11-20_19h57.05.336,Info_measure_main_exp,2022.2.2,Win32,59.74786401,,,,,,,,,,,,,,,,,,masks/mask_005.jpg,,,,,,,,,,,,,,,,,,,,,,,,,,,,,,,,,,,,,,,,,,,,,,,,0,1,1,4,1,,,,,,,,,,,,,,,,,,,,,,,,,,,,,,,,,,,,,,,,,
157749,001,2022-11-20_19h57.05.336,Info_measure_main_exp,2022.2.2,Win32,59.74786401,,,,,,,,,,,,,,,,,,masks/mask_004.jpg,,,,,,,,,,,,,,,,,,,,,,,,,,,,,,,,,,,,,,,,,,,,,,,,0,2,2,3,1,,,,,,,,,,,,,,,,,,,,,,,,,,,,,,,,,,,,,,,,,
157749,001,2022-11-20_19h57.05.336,Info_measure_main_exp,2022.2.2,Win32,59.74786401,,,,,,,,,,,,,,,,,,masks/mask_001.jpg,,,,,,,,,,,,,,,,,,,,,,,,,,,,,,,,,,,,,,,,,,,,,,,,0,3,3,0,1,,,,,,,,,,,,,,,,,,,,,,,,,,,,,,,,,,,,,,,,,
157749,001,2022-11-20_19h57.05.336,Info_measure_main_exp,2022.2.2,Win32,59.74786401,,,,,,,,,,,,,,,,,,masks/mask_003.jpg,,,,,,,,,,,,,,,,,,,,,,,,,,,,,,,,,,,,,,,,,,,,,,,,0,4,4,2,1,,,,,,,,,,,,,,,,,,,,,,,,,,,,,,,,,,,,,,,,,
157749,001,2022-11-20_19h57.05.336,Info_measure_main_exp,2022.2.2,Win32,59.74786401,,,,,,,,,,,,,,,,,,,,,,,,,,,,,,6,1.0523,1,,,,,,,,,,,,0,131,5,5,2274,2250,absent_patch/patch0002274.jpg,absent_patch/patch0002250.jpg,,,,,,,,,,,,,,,,,,,,0.063802083,0.028645833,1,0,0,response1disk,34,0.001302083,-0.009114583,1,0,0,center_square,0,33,33,28,1,,,,,,,,,,,,,,,,,,,,,,,
157749,001,2022-11-20_19h57.05.336,Info_measure_main_exp,2022.2.2,Win32,59.74786401,,,,,,,,,,,,,,,,,,masks/mask_001.jpg,,,,,,,,,,,,,,,,,,,,,,,,,,,,,,,,,,,,,,,,,,,0,0,0,0,1,,,,,,,,,,,,,,,,,,,,,,,,,,,,,,,,,,,,,,,,,,,,,,
157749,001,2022-11-20_19h57.05.336,Info_measure_main_exp,2022.2.2,Win32,59.74786401,,,,,,,,,,,,,,,,,,masks/mask_004.jpg,,,,,,,,,,,,,,,,,,,,,,,,,,,,,,,,,,,,,,,,,,,0,1,1,3,1,,,,,,,,,,,,,,,,,,,,,,,,,,,,,,,,,,,,,,,,,,,,,,
157749,001,2022-11-20_19h57.05.336,Info_measure_main_exp,2022.2.2,Win32,59.74786401,,,,,,,,,,,,,,,,,,masks/mask_005.jpg,,,,,,,,,,,,,,,,,,,,,,,,,,,,,,,,,,,,,,,,,,,0,2,2,4,1,,,,,,,,,,,,,,,,,,,,,,,,,,,,,,,,,,,,,,,,,,,,,,
157749,001,2022-11-20_19h57.05.336,Info_measure_main_exp,2022.2.2,Win32,59.74786401,,,,,,,,,,,,,,,,,,masks/mask_003.jpg,,,,,,,,,,,,,,,,,,,,,,,,,,,,,,,,,,,,,,,,,,,0,3,3,2,1,,,,,,,,,,,,,,,,,,,,,,,,,,,,,,,,,,,,,,,,,,,,,,
157749,001,2022-11-20_19h57.05.336,Info_measure_main_exp,2022.2.2,Win32,59.74786401,,,,,,,,,,,,,,,,,,masks/mask_002.jpg,,,,,,,,,,,,,,,,,,,,,,,,,,,,,,,,,,,,,,,,,,,0,4,4,1,1,,,,,,,,,,,,,,,,,,,,,,,,,,,,,,,,,,,,,,,,,,,,,,
157749,001,2022-11-20_19h57.05.336,Info_measure_main_exp,2022.2.2,Win32,59.74786401,,,,,,,,,,,,,,,,,,masks/mask_002.jpg,,,,,,,,,,,,,,,,,,,,,,,,,,,,,,,,,,,,,,,,,,,,,,,,0,0,0,1,1,,,,,,,,,,,,,,,,,,,,,,,,,,,,,,,,,,,,,,,,,
157749,001,2022-11-20_19h57.05.336,Info_measure_main_exp,2022.2.2,Win32,59.74786401,,,,,,,,,,,,,,,,,,masks/mask_005.jpg,,,,,,,,,,,,,,,,,,,,,,,,,,,,,,,,,,,,,,,,,,,,,,,,0,1,1,4,1,,,,,,,,,,,,,,,,,,,,,,,,,,,,,,,,,,,,,,,,,
157749,001,2022-11-20_19h57.05.336,Info_measure_main_exp,2022.2.2,Win32,59.74786401,,,,,,,,,,,,,,,,,,masks/mask_003.jpg,,,,,,,,,,,,,,,,,,,,,,,,,,,,,,,,,,,,,,,,,,,,,,,,0,2,2,2,1,,,,,,,,,,,,,,,,,,,,,,,,,,,,,,,,,,,,,,,,,
157749,001,2022-11-20_19h57.05.336,Info_measure_main_exp,2022.2.2,Win32,59.74786401,,,,,,,,,,,,,,,,,,masks/mask_001.jpg,,,,,,,,,,,,,,,,,,,,,,,,,,,,,,,,,,,,,,,,,,,,,,,,0,3,3,0,1,,,,,,,,,,,,,,,,,,,,,,,,,,,,,,,,,,,,,,,,,
