participant,session,date,expName,psychopyVersion,OS,frameRate,space_press_continue.keys,space_press_continue.rt,space_press_continue_2.keys,space_press_continue_2.rt,space_press_continue_3.keys,space_press_continue_3.rt,space_press_continue_4.keys,space_press_continue_4.rt,space_press_continue_5.keys,space_press_continue_5.rt,space_press_continue_6.keys,space_press_continue_6.rt,prac_mask_loop_1.thisRepN,prac_mask_loop_1.thisTrialN,prac_mask_loop_1.thisN,prac_mask_loop_1.thisIndex,prac_mask_loop_1.ran,mask_name,prac_mask_loop_2.thisRepN,prac_mask_loop_2.thisTrialN,prac_mask_loop_2.thisN,prac_mask_loop_2.thisIndex,prac_mask_loop_2.ran,mouse_2.x,mouse_2.y,mouse_2.leftButton,mouse_2.midButton,mouse_2.rightButton,mouse_2.clicked_name,similarity,response_time,Pass,mouse_12.x,mouse_12.y,mouse_12.leftButton,mouse_12.midButton,mouse_12.rightButton,mouse_12.clicked_name,prac_loop.thisRepN,prac_loop.thisTrialN,prac_loop.thisN,prac_loop.thisIndex,prac_loop.ran,Pair_type,Image_num,Patch_1_loc,Patch_2_loc,Patch_1_info,Patch_2_info,Patch_1_name,Patch_2_name,mouse_1.x,mouse_1.y,mouse_1.leftButton,mouse_1.midButton,mouse_1.rightButton,mouse_1.time,mouse_1.clicked_name,space_press_continue_7.keys,space_press_continue_7.rt,mask_loop.thisRepN,mask_loop.thisTrialN,mask_loop.thisN,mask_loop.thisIndex,mask_loop.ran,mask_loop_2.thisRepN,mask_loop_2.thisTrialN,mask_loop_2.thisN,mask_loop_2.thisIndex,mask_loop_2.ran,mouse.x,mouse.y,mouse.leftButton,mouse.midButton,mouse.rightButton,mouse.clicked_name,trialNumber,mouse_11.x,mouse_11.y,mouse_11.leftButton,mouse_11.midButton,mouse_11.rightButton,mouse_11.clicked_name,first_pass_loop.thisRepN,first_pass_loop.thisTrialN,first_pass_loop.thisN,first_pass_loop.thisIndex,first_pass_loop.ran,mask_loop_3.thisRepN,mask_loop_3.thisTrialN,mask_loop_3.thisN,mask_loop_3.thisIndex,mask_loop_3.ran,mask_loop_4.thisRepN,mask_loop_4.thisTrialN,mask_loop_4.thisN,mask_loop_4.thisIndex,mask_loop_4.ran,mouse_3.x,mouse_3.y,mouse_3.leftButton,mouse_3.midButton,mouse_3.rightButton,mouse_3.clicked_name,double_pass_loop.thisRepN,double_pass_loop.thisTrialN,double_pass_loop.thisN,double_pass_loop.thisIndex,double_pass_loop.ran,space_exit.keys,space_exit.rt
165917,001,2022-11-21_24h07.22.335,Info_measure_main_exp,2022.2.2,MacIntel,59.99520038,,,,,,,,,,,,,,,,,,,,,,,,,,,,,,,,,,,,,,,,,,,,,,,,,,,,,,,,,,,,,,,,,,,,,,,,,,,,,,,,,,,,,,,,,,,,,,,,,,,,,,,,,,,,,,,
165917,001,2022-11-21_24h07.22.335,Info_measure_main_exp,2022.2.2,MacIntel,59.99520038,,,,,,,,,,,,,,,,,,,,,,,,,,,,,,,,,,,,,,,,,,,,,,,,,,,,,,,,,,,,,,,,,,,,,,,,,,,,,,,,,,,,,,,,,,,,,,,,,,,,,,,,,,,,,,,
165917,001,2022-11-21_24h07.22.335,Info_measure_main_exp,2022.2.2,MacIntel,59.99520038,space,8.9685,,,,,,,,,,,,,,,,,,,,,,,,,,,,,,,,,,,,,,,,,,,,,,,,,,,,,,,,,,,,,,,,,,,,,,,,,,,,,,,,,,,,,,,,,,,,,,,,,,,,,,,,,,,,,
165917,001,2022-11-21_24h07.22.335,Info_measure_main_exp,2022.2.2,MacIntel,59.99520038,,,space,14.1094,,,,,,,,,,,,,,,,,,,,,,,,,,,,,,,,,,,,,,,,,,,,,,,,,,,,,,,,,,,,,,,,,,,,,,,,,,,,,,,,,,,,,,,,,,,,,,,,,,,,,,,,,,,
165917,001,2022-11-21_24h07.22.335,Info_measure_main_exp,2022.2.2,MacIntel,59.99520038,,,,,space,10.4519,,,,,,,,,,,,,,,,,,,,,,,,,,,,,,,,,,,,,,,,,,,,,,,,,,,,,,,,,,,,,,,,,,,,,,,,,,,,,,,,,,,,,,,,,,,,,,,,,,,,,,,,,
165917,001,2022-11-21_24h07.22.335,Info_measure_main_exp,2022.2.2,MacIntel,59.99520038,,,,,,,space,29.641,,,,,,,,,,,,,,,,,,,,,,,,,,,,,,,,,,,,,,,,,,,,,,,,,,,,,,,,,,,,,,,,,,,,,,,,,,,,,,,,,,,,,,,,,,,,,,,,,,,,,,,
165917,001,2022-11-21_24h07.22.335,Info_measure_main_exp,2022.2.2,MacIntel,59.99520038,,,,,,,,,space,7.9708,,,,,,,,,,,,,,,,,,,,,,,,,,,,,,,,,,,,,,,,,,,,,,,,,,,,,,,,,,,,,,,,,,,,,,,,,,,,,,,,,,,,,,,,,,,,,,,,,,,,,
165917,001,2022-11-21_24h07.22.335,Info_measure_main_exp,2022.2.2,MacIntel,59.99520038,,,,,,,,,,,space,4.6474,,,,,,,,,,,,,,,,,,,,,,,,,,,,,,,,,,,,,,,,,,,,,,,,,,,,,,,,,,,,,,,,,,,,,,,,,,,,,,,,,,,,,,,,,,,,,,,,,,,
165917,001,2022-11-21_24h07.22.335,Info_measure_main_exp,2022.2.2,MacIntel,59.99520038,,,,,,,,,,,,,0,0,0,3,1,masks/mask_004.jpg,,,,,,,,,,,,,,,,,,,,,,,,,,,,,,,,,,,,,,,,,,,,,,,,,,,,,,,,,,,,,,,,,,,,,,,,,,,,,,,,,,,,,,,,,,,,,
165917,001,2022-11-21_24h07.22.335,Info_measure_main_exp,2022.2.2,MacIntel,59.99520038,,,,,,,,,,,,,0,1,1,4,1,masks/mask_005.jpg,,,,,,,,,,,,,,,,,,,,,,,,,,,,,,,,,,,,,,,,,,,,,,,,,,,,,,,,,,,,,,,,,,,,,,,,,,,,,,,,,,,,,,,,,,,,,
165917,001,2022-11-21_24h07.22.335,Info_measure_main_exp,2022.2.2,MacIntel,59.99520038,,,,,,,,,,,,,0,2,2,2,1,masks/mask_003.jpg,,,,,,,,,,,,,,,,,,,,,,,,,,,,,,,,,,,,,,,,,,,,,,,,,,,,,,,,,,,,,,,,,,,,,,,,,,,,,,,,,,,,,,,,,,,,,
165917,001,2022-11-21_24h07.22.335,Info_measure_main_exp,2022.2.2,MacIntel,59.99520038,,,,,,,,,,,,,0,3,3,1,1,masks/mask_002.jpg,,,,,,,,,,,,,,,,,,,,,,,,,,,,,,,,,,,,,,,,,,,,,,,,,,,,,,,,,,,,,,,,,,,,,,,,,,,,,,,,,,,,,,,,,,,,,
165917,001,2022-11-21_24h07.22.335,Info_measure_main_exp,2022.2.2,MacIntel,59.99520038,,,,,,,,,,,,,0,4,4,0,1,masks/mask_001.jpg,,,,,,,,,,,,,,,,,,,,,,,,,,,,,,,,,,,,,,,,,,,,,,,,,,,,,,,,,,,,,,,,,,,,,,,,,,,,,,,,,,,,,,,,,,,,,
165917,001,2022-11-21_24h07.22.335,Info_measure_main_exp,2022.2.2,MacIntel,59.99520038,,,,,,,,,,,,,,,,,,masks/mask_002.jpg,0,0,0,1,1,,,,,,,,,,,,,,,,,,,,,,,,,,,,,,,,,,,,,,,,,,,,,,,,,,,,,,,,,,,,,,,,,,,,,,,,,,,,,,,,,,,,,,,,
165917,001,2022-11-21_24h07.22.335,Info_measure_main_exp,2022.2.2,MacIntel,59.99520038,,,,,,,,,,,,,,,,,,masks/mask_004.jpg,0,1,1,3,1,,,,,,,,,,,,,,,,,,,,,,,,,,,,,,,,,,,,,,,,,,,,,,,,,,,,,,,,,,,,,,,,,,,,,,,,,,,,,,,,,,,,,,,,
165917,001,2022-11-21_24h07.22.335,Info_measure_main_exp,2022.2.2,MacIntel,59.99520038,,,,,,,,,,,,,,,,,,masks/mask_001.jpg,0,2,2,0,1,,,,,,,,,,,,,,,,,,,,,,,,,,,,,,,,,,,,,,,,,,,,,,,,,,,,,,,,,,,,,,,,,,,,,,,,,,,,,,,,,,,,,,,,
165917,001,2022-11-21_24h07.22.335,Info_measure_main_exp,2022.2.2,MacIntel,59.99520038,,,,,,,,,,,,,,,,,,masks/mask_003.jpg,0,3,3,2,1,,,,,,,,,,,,,,,,,,,,,,,,,,,,,,,,,,,,,,,,,,,,,,,,,,,,,,,,,,,,,,,,,,,,,,,,,,,,,,,,,,,,,,,,
165917,001,2022-11-21_24h07.22.335,Info_measure_main_exp,2022.2.2,MacIntel,59.99520038,,,,,,,,,,,,,,,,,,masks/mask_005.jpg,0,4,4,4,1,,,,,,,,,,,,,,,,,,,,,,,,,,,,,,,,,,,,,,,,,,,,,,,,,,,,,,,,,,,,,,,,,,,,,,,,,,,,,,,,,,,,,,,,
165917,001,2022-11-21_24h07.22.335,Info_measure_main_exp,2022.2.2,MacIntel,59.99520038,,,,,,,,,,,,,,,,,,,,,,,,-0.119664559,-0.022606647,1,0,0,response5disk,2,86.9442,1,-0.012896825,0.001661706,1,0,0,center_square,0,0,0,1,1,0,131,5,5,2514,2490,prac_patch/patch0002514.jpg,prac_patch/patch0002490.jpg,,,,,,,,,,,,,,,,,,,,,,,,,,,,,,,,,,,,,,,,,,,,,,,,,,,,,,,,,,,,
165917,001,2022-11-21_24h07.22.335,Info_measure_main_exp,2022.2.2,MacIntel,59.99520038,,,,,,,,,,,,,0,0,0,2,1,masks/mask_003.jpg,,,,,,,,,,,,,,,,,,,,,,,,,,,,,,,,,,,,,,,,,,,,,,,,,,,,,,,,,,,,,,,,,,,,,,,,,,,,,,,,,,,,,,,,,,,,,
165917,001,2022-11-21_24h07.22.335,Info_measure_main_exp,2022.2.2,MacIntel,59.99520038,,,,,,,,,,,,,0,1,1,4,1,masks/mask_005.jpg,,,,,,,,,,,,,,,,,,,,,,,,,,,,,,,,,,,,,,,,,,,,,,,,,,,,,,,,,,,,,,,,,,,,,,,,,,,,,,,,,,,,,,,,,,,,,
165917,001,2022-11-21_24h07.22.335,Info_measure_main_exp,2022.2.2,MacIntel,59.99520038,,,,,,,,,,,,,0,2,2,1,1,masks/mask_002.jpg,,,,,,,,,,,,,,,,,,,,,,,,,,,,,,,,,,,,,,,,,,,,,,,,,,,,,,,,,,,,,,,,,,,,,,,,,,,,,,,,,,,,,,,,,,,,,
165917,001,2022-11-21_24h07.22.335,Info_measure_main_exp,2022.2.2,MacIntel,59.99520038,,,,,,,,,,,,,0,3,3,0,1,masks/mask_001.jpg,,,,,,,,,,,,,,,,,,,,,,,,,,,,,,,,,,,,,,,,,,,,,,,,,,,,,,,,,,,,,,,,,,,,,,,,,,,,,,,,,,,,,,,,,,,,,
165917,001,2022-11-21_24h07.22.335,Info_measure_main_exp,2022.2.2,MacIntel,59.99520038,,,,,,,,,,,,,0,4,4,3,1,masks/mask_004.jpg,,,,,,,,,,,,,,,,,,,,,,,,,,,,,,,,,,,,,,,,,,,,,,,,,,,,,,,,,,,,,,,,,,,,,,,,,,,,,,,,,,,,,,,,,,,,,
165917,001,2022-11-21_24h07.22.335,Info_measure_main_exp,2022.2.2,MacIntel,59.99520038,,,,,,,,,,,,,,,,,,masks/mask_002.jpg,0,0,0,1,1,,,,,,,,,,,,,,,,,,,,,,,,,,,,,,,,,,,,,,,,,,,,,,,,,,,,,,,,,,,,,,,,,,,,,,,,,,,,,,,,,,,,,,,,
165917,001,2022-11-21_24h07.22.335,Info_measure_main_exp,2022.2.2,MacIntel,59.99520038,,,,,,,,,,,,,,,,,,masks/mask_001.jpg,0,1,1,0,1,,,,,,,,,,,,,,,,,,,,,,,,,,,,,,,,,,,,,,,,,,,,,,,,,,,,,,,,,,,,,,,,,,,,,,,,,,,,,,,,,,,,,,,,
165917,001,2022-11-21_24h07.22.335,Info_measure_main_exp,2022.2.2,MacIntel,59.99520038,,,,,,,,,,,,,,,,,,masks/mask_005.jpg,0,2,2,4,1,,,,,,,,,,,,,,,,,,,,,,,,,,,,,,,,,,,,,,,,,,,,,,,,,,,,,,,,,,,,,,,,,,,,,,,,,,,,,,,,,,,,,,,,
165917,001,2022-11-21_24h07.22.335,Info_measure_main_exp,2022.2.2,MacIntel,59.99520038,,,,,,,,,,,,,,,,,,masks/mask_004.jpg,0,3,3,3,1,,,,,,,,,,,,,,,,,,,,,,,,,,,,,,,,,,,,,,,,,,,,,,,,,,,,,,,,,,,,,,,,,,,,,,,,,,,,,,,,,,,,,,,,
165917,001,2022-11-21_24h07.22.335,Info_measure_main_exp,2022.2.2,MacIntel,59.99520038,,,,,,,,,,,,,,,,,,masks/mask_003.jpg,0,4,4,2,1,,,,,,,,,,,,,,,,,,,,,,,,,,,,,,,,,,,,,,,,,,,,,,,,,,,,,,,,,,,,,,,,,,,,,,,,,,,,,,,,,,,,,,,,
165917,001,2022-11-21_24h07.22.335,Info_measure_main_exp,2022.2.2,MacIntel,59.99520038,,,,,,,,,,,,,,,,,,,,,,,,-0.074804687,0.151633805,1,0,0,response7disk,0,98.8612,1,-0.004163566,-0.000235615,1,0,0,center_square,0,1,1,2,1,0,131,5,5,2526,2526,prac_patch/patch0002526.jpg,prac_patch/patch0002526.jpg,,,,,,,,,,,,,,,,,,,,,,,,,,,,,,,,,,,,,,,,,,,,,,,,,,,,,,,,,,,,
165917,001,2022-11-21_24h07.22.335,Info_measure_main_exp,2022.2.2,MacIntel,59.99520038,,,,,,,,,,,,,0,0,0,3,1,masks/mask_004.jpg,,,,,,,,,,,,,,,,,,,,,,,,,,,,,,,,,,,,,,,,,,,,,,,,,,,,,,,,,,,,,,,,,,,,,,,,,,,,,,,,,,,,,,,,,,,,,
165917,001,2022-11-21_24h07.22.335,Info_measure_main_exp,2022.2.2,MacIntel,59.99520038,,,,,,,,,,,,,0,1,1,4,1,masks/mask_005.jpg,,,,,,,,,,,,,,,,,,,,,,,,,,,,,,,,,,,,,,,,,,,,,,,,,,,,,,,,,,,,,,,,,,,,,,,,,,,,,,,,,,,,,,,,,,,,,
165917,001,2022-11-21_24h07.22.335,Info_measure_main_exp,2022.2.2,MacIntel,59.99520038,,,,,,,,,,,,,0,2,2,1,1,masks/mask_002.jpg,,,,,,,,,,,,,,,,,,,,,,,,,,,,,,,,,,,,,,,,,,,,,,,,,,,,,,,,,,,,,,,,,,,,,,,,,,,,,,,,,,,,,,,,,,,,,
165917,001,2022-11-21_24h07.22.335,Info_measure_main_exp,2022.2.2,MacIntel,59.99520038,,,,,,,,,,,,,0,3,3,0,1,masks/mask_001.jpg,,,,,,,,,,,,,,,,,,,,,,,,,,,,,,,,,,,,,,,,,,,,,,,,,,,,,,,,,,,,,,,,,,,,,,,,,,,,,,,,,,,,,,,,,,,,,
165917,001,2022-11-21_24h07.22.335,Info_measure_main_exp,2022.2.2,MacIntel,59.99520038,,,,,,,,,,,,,0,4,4,2,1,masks/mask_003.jpg,,,,,,,,,,,,,,,,,,,,,,,,,,,,,,,,,,,,,,,,,,,,,,,,,,,,,,,,,,,,,,,,,,,,,,,,,,,,,,,,,,,,,,,,,,,,,
165917,001,2022-11-21_24h07.22.335,Info_measure_main_exp,2022.2.2,MacIntel,59.99520038,,,,,,,,,,,,,,,,,,masks/mask_003.jpg,0,0,0,2,1,,,,,,,,,,,,,,,,,,,,,,,,,,,,,,,,,,,,,,,,,,,,,,,,,,,,,,,,,,,,,,,,,,,,,,,,,,,,,,,,,,,,,,,,
165917,001,2022-11-21_24h07.22.335,Info_measure_main_exp,2022.2.2,MacIntel,59.99520038,,,,,,,,,,,,,,,,,,masks/mask_005.jpg,0,1,1,4,1,,,,,,,,,,,,,,,,,,,,,,,,,,,,,,,,,,,,,,,,,,,,,,,,,,,,,,,,,,,,,,,,,,,,,,,,,,,,,,,,,,,,,,,,
165917,001,2022-11-21_24h07.22.335,Info_measure_main_exp,2022.2.2,MacIntel,59.99520038,,,,,,,,,,,,,,,,,,masks/mask_002.jpg,0,2,2,1,1,,,,,,,,,,,,,,,,,,,,,,,,,,,,,,,,,,,,,,,,,,,,,,,,,,,,,,,,,,,,,,,,,,,,,,,,,,,,,,,,,,,,,,,,
165917,001,2022-11-21_24h07.22.335,Info_measure_main_exp,2022.2.2,MacIntel,59.99520038,,,,,,,,,,,,,,,,,,masks/mask_004.jpg,0,3,3,3,1,,,,,,,,,,,,,,,,,,,,,,,,,,,,,,,,,,,,,,,,,,,,,,,,,,,,,,,,,,,,,,,,,,,,,,,,,,,,,,,,,,,,,,,,
165917,001,2022-11-21_24h07.22.335,Info_measure_main_exp,2022.2.2,MacIntel,59.99520038,,,,,,,,,,,,,,,,,,masks/mask_001.jpg,0,4,4,0,1,,,,,,,,,,,,,,,,,,,,,,,,,,,,,,,,,,,,,,,,,,,,,,,,,,,,,,,,,,,,,,,,,,,,,,,,,,,,,,,,,,,,,,,,
165917,001,2022-11-21_24h07.22.335,Info_measure_main_exp,2022.2.2,MacIntel,59.99520038,,,,,,,,,,,,,,,,,,,,,,,,0.152746776,0.037868924,1,0,0,response1disk,6,109.912,1,0.000669643,0.005481151,1,0,0,center_square,0,2,2,0,1,0,131,5,5,2370,2406,prac_patch/patch0002370.jpg,prac_patch/patch0002406.jpg,,,,,,,,,,,,,,,,,,,,,,,,,,,,,,,,,,,,,,,,,,,,,,,,,,,,,,,,,,,,
165917,001,2022-11-21_24h07.22.335,Info_measure_main_exp,2022.2.2,MacIntel,59.99520038,,,,,,,,,,,,,,,,,,,,,,,,,,,,,,,,,,,,,,,,,,,,,,,,,,,,,,,,,,,space,3.9643,,,,,,,,,,,,,,,,,,,,,,,,,,,,,,,,,,,,,,,,,,,,,,,,,,,
165917,001,2022-11-21_24h07.22.335,Info_measure_main_exp,2022.2.2,MacIntel,59.99520038,,,,,,,,,,,,,,,,,,masks/mask_002.jpg,,,,,,,,,,,,,,,,,,,,,,,,,,,,,,,,,,,,,,,,,,,0,0,0,1,1,,,,,,,,,,,,,,,,,,,,,,,,,,,,,,,,,,,,,,,,,,,,,,
165917,001,2022-11-21_24h07.22.335,Info_measure_main_exp,2022.2.2,MacIntel,59.99520038,,,,,,,,,,,,,,,,,,masks/mask_005.jpg,,,,,,,,,,,,,,,,,,,,,,,,,,,,,,,,,,,,,,,,,,,0,1,1,4,1,,,,,,,,,,,,,,,,,,,,,,,,,,,,,,,,,,,,,,,,,,,,,,
165917,001,2022-11-21_24h07.22.335,Info_measure_main_exp,2022.2.2,MacIntel,59.99520038,,,,,,,,,,,,,,,,,,masks/mask_003.jpg,,,,,,,,,,,,,,,,,,,,,,,,,,,,,,,,,,,,,,,,,,,0,2,2,2,1,,,,,,,,,,,,,,,,,,,,,,,,,,,,,,,,,,,,,,,,,,,,,,
165917,001,2022-11-21_24h07.22.335,Info_measure_main_exp,2022.2.2,MacIntel,59.99520038,,,,,,,,,,,,,,,,,,masks/mask_004.jpg,,,,,,,,,,,,,,,,,,,,,,,,,,,,,,,,,,,,,,,,,,,0,3,3,3,1,,,,,,,,,,,,,,,,,,,,,,,,,,,,,,,,,,,,,,,,,,,,,,
165917,001,2022-11-21_24h07.22.335,Info_measure_main_exp,2022.2.2,MacIntel,59.99520038,,,,,,,,,,,,,,,,,,masks/mask_001.jpg,,,,,,,,,,,,,,,,,,,,,,,,,,,,,,,,,,,,,,,,,,,0,4,4,0,1,,,,,,,,,,,,,,,,,,,,,,,,,,,,,,,,,,,,,,,,,,,,,,
165917,001,2022-11-21_24h07.22.335,Info_measure_main_exp,2022.2.2,MacIntel,59.99520038,,,,,,,,,,,,,,,,,,masks/mask_002.jpg,,,,,,,,,,,,,,,,,,,,,,,,,,,,,,,,,,,,,,,,,,,,,,,,0,0,0,1,1,,,,,,,,,,,,,,,,,,,,,,,,,,,,,,,,,,,,,,,,,
165917,001,2022-11-21_24h07.22.335,Info_measure_main_exp,2022.2.2,MacIntel,59.99520038,,,,,,,,,,,,,,,,,,masks/mask_004.jpg,,,,,,,,,,,,,,,,,,,,,,,,,,,,,,,,,,,,,,,,,,,,,,,,0,1,1,3,1,,,,,,,,,,,,,,,,,,,,,,,,,,,,,,,,,,,,,,,,,
165917,001,2022-11-21_24h07.22.335,Info_measure_main_exp,2022.2.2,MacIntel,59.99520038,,,,,,,,,,,,,,,,,,masks/mask_005.jpg,,,,,,,,,,,,,,,,,,,,,,,,,,,,,,,,,,,,,,,,,,,,,,,,0,2,2,4,1,,,,,,,,,,,,,,,,,,,,,,,,,,,,,,,,,,,,,,,,,
165917,001,2022-11-21_24h07.22.335,Info_measure_main_exp,2022.2.2,MacIntel,59.99520038,,,,,,,,,,,,,,,,,,masks/mask_001.jpg,,,,,,,,,,,,,,,,,,,,,,,,,,,,,,,,,,,,,,,,,,,,,,,,0,3,3,0,1,,,,,,,,,,,,,,,,,,,,,,,,,,,,,,,,,,,,,,,,,
165917,001,2022-11-21_24h07.22.335,Info_measure_main_exp,2022.2.2,MacIntel,59.99520038,,,,,,,,,,,,,,,,,,masks/mask_003.jpg,,,,,,,,,,,,,,,,,,,,,,,,,,,,,,,,,,,,,,,,,,,,,,,,0,4,4,2,1,,,,,,,,,,,,,,,,,,,,,,,,,,,,,,,,,,,,,,,,,
165917,001,2022-11-21_24h07.22.335,Info_measure_main_exp,2022.2.2,MacIntel,59.99520038,,,,,,,,,,,,,,,,,,,,,,,,,,,,,,7,2.8484,1,,,,,,,,,,,,1,131,5,5,2238,1,absent_patch/patch0002238.jpg,present_patch/cong_131_5_a.jpg,,,,,,,,,,,,,,,,,,,,0.064233011,0.126109871,1,0,0,response1disk,1,-0.006194196,-0.005127728,1,0,0,center_square,0,0,0,104,1,,,,,,,,,,,,,,,,,,,,,,,
165917,001,2022-11-21_24h07.22.335,Info_measure_main_exp,2022.2.2,MacIntel,59.99520038,,,,,,,,,,,,,,,,,,masks/mask_005.jpg,,,,,,,,,,,,,,,,,,,,,,,,,,,,,,,,,,,,,,,,,,,0,0,0,4,1,,,,,,,,,,,,,,,,,,,,,,,,,,,,,,,,,,,,,,,,,,,,,,
165917,001,2022-11-21_24h07.22.335,Info_measure_main_exp,2022.2.2,MacIntel,59.99520038,,,,,,,,,,,,,,,,,,masks/mask_004.jpg,,,,,,,,,,,,,,,,,,,,,,,,,,,,,,,,,,,,,,,,,,,0,1,1,3,1,,,,,,,,,,,,,,,,,,,,,,,,,,,,,,,,,,,,,,,,,,,,,,
165917,001,2022-11-21_24h07.22.335,Info_measure_main_exp,2022.2.2,MacIntel,59.99520038,,,,,,,,,,,,,,,,,,masks/mask_002.jpg,,,,,,,,,,,,,,,,,,,,,,,,,,,,,,,,,,,,,,,,,,,0,2,2,1,1,,,,,,,,,,,,,,,,,,,,,,,,,,,,,,,,,,,,,,,,,,,,,,
165917,001,2022-11-21_24h07.22.335,Info_measure_main_exp,2022.2.2,MacIntel,59.99520038,,,,,,,,,,,,,,,,,,masks/mask_003.jpg,,,,,,,,,,,,,,,,,,,,,,,,,,,,,,,,,,,,,,,,,,,0,3,3,2,1,,,,,,,,,,,,,,,,,,,,,,,,,,,,,,,,,,,,,,,,,,,,,,
165917,001,2022-11-21_24h07.22.335,Info_measure_main_exp,2022.2.2,MacIntel,59.99520038,,,,,,,,,,,,,,,,,,masks/mask_001.jpg,,,,,,,,,,,,,,,,,,,,,,,,,,,,,,,,,,,,,,,,,,,0,4,4,0,1,,,,,,,,,,,,,,,,,,,,,,,,,,,,,,,,,,,,,,,,,,,,,,
165917,001,2022-11-21_24h07.22.335,Info_measure_main_exp,2022.2.2,MacIntel,59.99520038,,,,,,,,,,,,,,,,,,masks/mask_001.jpg,,,,,,,,,,,,,,,,,,,,,,,,,,,,,,,,,,,,,,,,,,,,,,,,0,0,0,0,1,,,,,,,,,,,,,,,,,,,,,,,,,,,,,,,,,,,,,,,,,
165917,001,2022-11-21_24h07.22.335,Info_measure_main_exp,2022.2.2,MacIntel,59.99520038,,,,,,,,,,,,,,,,,,masks/mask_005.jpg,,,,,,,,,,,,,,,,,,,,,,,,,,,,,,,,,,,,,,,,,,,,,,,,0,1,1,4,1,,,,,,,,,,,,,,,,,,,,,,,,,,,,,,,,,,,,,,,,,
165917,001,2022-11-21_24h07.22.335,Info_measure_main_exp,2022.2.2,MacIntel,59.99520038,,,,,,,,,,,,,,,,,,masks/mask_003.jpg,,,,,,,,,,,,,,,,,,,,,,,,,,,,,,,,,,,,,,,,,,,,,,,,0,2,2,2,1,,,,,,,,,,,,,,,,,,,,,,,,,,,,,,,,,,,,,,,,,
165917,001,2022-11-21_24h07.22.335,Info_measure_main_exp,2022.2.2,MacIntel,59.99520038,,,,,,,,,,,,,,,,,,masks/mask_002.jpg,,,,,,,,,,,,,,,,,,,,,,,,,,,,,,,,,,,,,,,,,,,,,,,,0,3,3,1,1,,,,,,,,,,,,,,,,,,,,,,,,,,,,,,,,,,,,,,,,,
165917,001,2022-11-21_24h07.22.335,Info_measure_main_exp,2022.2.2,MacIntel,59.99520038,,,,,,,,,,,,,,,,,,masks/mask_004.jpg,,,,,,,,,,,,,,,,,,,,,,,,,,,,,,,,,,,,,,,,,,,,,,,,0,4,4,3,1,,,,,,,,,,,,,,,,,,,,,,,,,,,,,,,,,,,,,,,,,
165917,001,2022-11-21_24h07.22.335,Info_measure_main_exp,2022.2.2,MacIntel,59.99520038,,,,,,,,,,,,,,,,,,,,,,,,,,,,,,7,1.3006,1,,,,,,,,,,,,1,131,5,5,1950,1,absent_patch/patch0001950.jpg,present_patch/cong_131_5_a.jpg,,,,,,,,,,,,,,,,,,,,0.064267113,0.097615947,1,0,0,response1disk,2,0.007431176,0.006107391,1,0,0,center_square,0,1,1,39,1,,,,,,,,,,,,,,,,,,,,,,,
165917,001,2022-11-21_24h07.22.335,Info_measure_main_exp,2022.2.2,MacIntel,59.99520038,,,,,,,,,,,,,,,,,,masks/mask_004.jpg,,,,,,,,,,,,,,,,,,,,,,,,,,,,,,,,,,,,,,,,,,,0,0,0,3,1,,,,,,,,,,,,,,,,,,,,,,,,,,,,,,,,,,,,,,,,,,,,,,
165917,001,2022-11-21_24h07.22.335,Info_measure_main_exp,2022.2.2,MacIntel,59.99520038,,,,,,,,,,,,,,,,,,masks/mask_001.jpg,,,,,,,,,,,,,,,,,,,,,,,,,,,,,,,,,,,,,,,,,,,0,1,1,0,1,,,,,,,,,,,,,,,,,,,,,,,,,,,,,,,,,,,,,,,,,,,,,,
165917,001,2022-11-21_24h07.22.335,Info_measure_main_exp,2022.2.2,MacIntel,59.99520038,,,,,,,,,,,,,,,,,,masks/mask_002.jpg,,,,,,,,,,,,,,,,,,,,,,,,,,,,,,,,,,,,,,,,,,,0,2,2,1,1,,,,,,,,,,,,,,,,,,,,,,,,,,,,,,,,,,,,,,,,,,,,,,
165917,001,2022-11-21_24h07.22.335,Info_measure_main_exp,2022.2.2,MacIntel,59.99520038,,,,,,,,,,,,,,,,,,masks/mask_005.jpg,,,,,,,,,,,,,,,,,,,,,,,,,,,,,,,,,,,,,,,,,,,0,3,3,4,1,,,,,,,,,,,,,,,,,,,,,,,,,,,,,,,,,,,,,,,,,,,,,,
165917,001,2022-11-21_24h07.22.335,Info_measure_main_exp,2022.2.2,MacIntel,59.99520038,,,,,,,,,,,,,,,,,,masks/mask_003.jpg,,,,,,,,,,,,,,,,,,,,,,,,,,,,,,,,,,,,,,,,,,,0,4,4,2,1,,,,,,,,,,,,,,,,,,,,,,,,,,,,,,,,,,,,,,,,,,,,,,
165917,001,2022-11-21_24h07.22.335,Info_measure_main_exp,2022.2.2,MacIntel,59.99520038,,,,,,,,,,,,,,,,,,masks/mask_002.jpg,,,,,,,,,,,,,,,,,,,,,,,,,,,,,,,,,,,,,,,,,,,,,,,,0,0,0,1,1,,,,,,,,,,,,,,,,,,,,,,,,,,,,,,,,,,,,,,,,,
165917,001,2022-11-21_24h07.22.335,Info_measure_main_exp,2022.2.2,MacIntel,59.99520038,,,,,,,,,,,,,,,,,,masks/mask_001.jpg,,,,,,,,,,,,,,,,,,,,,,,,,,,,,,,,,,,,,,,,,,,,,,,,0,1,1,0,1,,,,,,,,,,,,,,,,,,,,,,,,,,,,,,,,,,,,,,,,,
165917,001,2022-11-21_24h07.22.335,Info_measure_main_exp,2022.2.2,MacIntel,59.99520038,,,,,,,,,,,,,,,,,,masks/mask_005.jpg,,,,,,,,,,,,,,,,,,,,,,,,,,,,,,,,,,,,,,,,,,,,,,,,0,2,2,4,1,,,,,,,,,,,,,,,,,,,,,,,,,,,,,,,,,,,,,,,,,
165917,001,2022-11-21_24h07.22.335,Info_measure_main_exp,2022.2.2,MacIntel,59.99520038,,,,,,,,,,,,,,,,,,masks/mask_004.jpg,,,,,,,,,,,,,,,,,,,,,,,,,,,,,,,,,,,,,,,,,,,,,,,,0,3,3,3,1,,,,,,,,,,,,,,,,,,,,,,,,,,,,,,,,,,,,,,,,,
165917,001,2022-11-21_24h07.22.335,Info_measure_main_exp,2022.2.2,MacIntel,59.99520038,,,,,,,,,,,,,,,,,,masks/mask_003.jpg,,,,,,,,,,,,,,,,,,,,,,,,,,,,,,,,,,,,,,,,,,,,,,,,0,4,4,2,1,,,,,,,,,,,,,,,,,,,,,,,,,,,,,,,,,,,,,,,,,
165917,001,2022-11-21_24h07.22.335,Info_measure_main_exp,2022.2.2,MacIntel,59.99520038,,,,,,,,,,,,,,,,,,,,,,,,,,,,,,3,2.0181,1,,,,,,,,,,,,0,131,5,5,2190,2214,absent_patch/patch0002190.jpg,absent_patch/patch0002214.jpg,,,,,,,,,,,,,,,,,,,,-0.0562531,-0.158968874,1,0,0,response5disk,3,0.002852183,0.003958953,1,0,0,center_square,0,2,2,35,1,,,,,,,,,,,,,,,,,,,,,,,
165917,001,2022-11-21_24h07.22.335,Info_measure_main_exp,2022.2.2,MacIntel,59.99520038,,,,,,,,,,,,,,,,,,masks/mask_005.jpg,,,,,,,,,,,,,,,,,,,,,,,,,,,,,,,,,,,,,,,,,,,0,0,0,4,1,,,,,,,,,,,,,,,,,,,,,,,,,,,,,,,,,,,,,,,,,,,,,,
165917,001,2022-11-21_24h07.22.335,Info_measure_main_exp,2022.2.2,MacIntel,59.99520038,,,,,,,,,,,,,,,,,,masks/mask_001.jpg,,,,,,,,,,,,,,,,,,,,,,,,,,,,,,,,,,,,,,,,,,,0,1,1,0,1,,,,,,,,,,,,,,,,,,,,,,,,,,,,,,,,,,,,,,,,,,,,,,
165917,001,2022-11-21_24h07.22.335,Info_measure_main_exp,2022.2.2,MacIntel,59.99520038,,,,,,,,,,,,,,,,,,masks/mask_002.jpg,,,,,,,,,,,,,,,,,,,,,,,,,,,,,,,,,,,,,,,,,,,0,2,2,1,1,,,,,,,,,,,,,,,,,,,,,,,,,,,,,,,,,,,,,,,,,,,,,,
165917,001,2022-11-21_24h07.22.335,Info_measure_main_exp,2022.2.2,MacIntel,59.99520038,,,,,,,,,,,,,,,,,,masks/mask_003.jpg,,,,,,,,,,,,,,,,,,,,,,,,,,,,,,,,,,,,,,,,,,,0,3,3,2,1,,,,,,,,,,,,,,,,,,,,,,,,,,,,,,,,,,,,,,,,,,,,,,
165917,001,2022-11-21_24h07.22.335,Info_measure_main_exp,2022.2.2,MacIntel,59.99520038,,,,,,,,,,,,,,,,,,masks/mask_004.jpg,,,,,,,,,,,,,,,,,,,,,,,,,,,,,,,,,,,,,,,,,,,0,4,4,3,1,,,,,,,,,,,,,,,,,,,,,,,,,,,,,,,,,,,,,,,,,,,,,,
165917,001,2022-11-21_24h07.22.335,Info_measure_main_exp,2022.2.2,MacIntel,59.99520038,,,,,,,,,,,,,,,,,,masks/mask_004.jpg,,,,,,,,,,,,,,,,,,,,,,,,,,,,,,,,,,,,,,,,,,,,,,,,0,0,0,3,1,,,,,,,,,,,,,,,,,,,,,,,,,,,,,,,,,,,,,,,,,
165917,001,2022-11-21_24h07.22.335,Info_measure_main_exp,2022.2.2,MacIntel,59.99520038,,,,,,,,,,,,,,,,,,masks/mask_002.jpg,,,,,,,,,,,,,,,,,,,,,,,,,,,,,,,,,,,,,,,,,,,,,,,,0,1,1,1,1,,,,,,,,,,,,,,,,,,,,,,,,,,,,,,,,,,,,,,,,,
165917,001,2022-11-21_24h07.22.335,Info_measure_main_exp,2022.2.2,MacIntel,59.99520038,,,,,,,,,,,,,,,,,,masks/mask_001.jpg,,,,,,,,,,,,,,,,,,,,,,,,,,,,,,,,,,,,,,,,,,,,,,,,0,2,2,0,1,,,,,,,,,,,,,,,,,,,,,,,,,,,,,,,,,,,,,,,,,
165917,001,2022-11-21_24h07.22.335,Info_measure_main_exp,2022.2.2,MacIntel,59.99520038,,,,,,,,,,,,,,,,,,masks/mask_005.jpg,,,,,,,,,,,,,,,,,,,,,,,,,,,,,,,,,,,,,,,,,,,,,,,,0,3,3,4,1,,,,,,,,,,,,,,,,,,,,,,,,,,,,,,,,,,,,,,,,,
165917,001,2022-11-21_24h07.22.335,Info_measure_main_exp,2022.2.2,MacIntel,59.99520038,,,,,,,,,,,,,,,,,,masks/mask_003.jpg,,,,,,,,,,,,,,,,,,,,,,,,,,,,,,,,,,,,,,,,,,,,,,,,0,4,4,2,1,,,,,,,,,,,,,,,,,,,,,,,,,,,,,,,,,,,,,,,,,
165917,001,2022-11-21_24h07.22.335,Info_measure_main_exp,2022.2.2,MacIntel,59.99520038,,,,,,,,,,,,,,,,,,,,,,,,,,,,,,0,0.9338,1,,,,,,,,,,,,0,131,5,5,2250,2250,absent_patch/patch0002250.jpg,absent_patch/patch0002250.jpg,,,,,,,,,,,,,,,,,,,,-0.052241443,0.092798239,1,0,0,response7disk,4,-0.005409846,0.004104663,1,0,0,center_square,0,3,3,56,1,,,,,,,,,,,,,,,,,,,,,,,
165917,001,2022-11-21_24h07.22.335,Info_measure_main_exp,2022.2.2,MacIntel,59.99520038,,,,,,,,,,,,,,,,,,masks/mask_002.jpg,,,,,,,,,,,,,,,,,,,,,,,,,,,,,,,,,,,,,,,,,,,0,0,0,1,1,,,,,,,,,,,,,,,,,,,,,,,,,,,,,,,,,,,,,,,,,,,,,,
165917,001,2022-11-21_24h07.22.335,Info_measure_main_exp,2022.2.2,MacIntel,59.99520038,,,,,,,,,,,,,,,,,,masks/mask_005.jpg,,,,,,,,,,,,,,,,,,,,,,,,,,,,,,,,,,,,,,,,,,,0,1,1,4,1,,,,,,,,,,,,,,,,,,,,,,,,,,,,,,,,,,,,,,,,,,,,,,
165917,001,2022-11-21_24h07.22.335,Info_measure_main_exp,2022.2.2,MacIntel,59.99520038,,,,,,,,,,,,,,,,,,masks/mask_001.jpg,,,,,,,,,,,,,,,,,,,,,,,,,,,,,,,,,,,,,,,,,,,0,2,2,0,1,,,,,,,,,,,,,,,,,,,,,,,,,,,,,,,,,,,,,,,,,,,,,,
165917,001,2022-11-21_24h07.22.335,Info_measure_main_exp,2022.2.2,MacIntel,59.99520038,,,,,,,,,,,,,,,,,,masks/mask_004.jpg,,,,,,,,,,,,,,,,,,,,,,,,,,,,,,,,,,,,,,,,,,,0,3,3,3,1,,,,,,,,,,,,,,,,,,,,,,,,,,,,,,,,,,,,,,,,,,,,,,
165917,001,2022-11-21_24h07.22.335,Info_measure_main_exp,2022.2.2,MacIntel,59.99520038,,,,,,,,,,,,,,,,,,masks/mask_003.jpg,,,,,,,,,,,,,,,,,,,,,,,,,,,,,,,,,,,,,,,,,,,0,4,4,2,1,,,,,,,,,,,,,,,,,,,,,,,,,,,,,,,,,,,,,,,,,,,,,,
165917,001,2022-11-21_24h07.22.335,Info_measure_main_exp,2022.2.2,MacIntel,59.99520038,,,,,,,,,,,,,,,,,,masks/mask_003.jpg,,,,,,,,,,,,,,,,,,,,,,,,,,,,,,,,,,,,,,,,,,,,,,,,0,0,0,2,1,,,,,,,,,,,,,,,,,,,,,,,,,,,,,,,,,,,,,,,,,
165917,001,2022-11-21_24h07.22.335,Info_measure_main_exp,2022.2.2,MacIntel,59.99520038,,,,,,,,,,,,,,,,,,masks/mask_001.jpg,,,,,,,,,,,,,,,,,,,,,,,,,,,,,,,,,,,,,,,,,,,,,,,,0,1,1,0,1,,,,,,,,,,,,,,,,,,,,,,,,,,,,,,,,,,,,,,,,,
165917,001,2022-11-21_24h07.22.335,Info_measure_main_exp,2022.2.2,MacIntel,59.99520038,,,,,,,,,,,,,,,,,,masks/mask_004.jpg,,,,,,,,,,,,,,,,,,,,,,,,,,,,,,,,,,,,,,,,,,,,,,,,0,2,2,3,1,,,,,,,,,,,,,,,,,,,,,,,,,,,,,,,,,,,,,,,,,
165917,001,2022-11-21_24h07.22.335,Info_measure_main_exp,2022.2.2,MacIntel,59.99520038,,,,,,,,,,,,,,,,,,masks/mask_005.jpg,,,,,,,,,,,,,,,,,,,,,,,,,,,,,,,,,,,,,,,,,,,,,,,,0,3,3,4,1,,,,,,,,,,,,,,,,,,,,,,,,,,,,,,,,,,,,,,,,,
165917,001,2022-11-21_24h07.22.335,Info_measure_main_exp,2022.2.2,MacIntel,59.99520038,,,,,,,,,,,,,,,,,,masks/mask_002.jpg,,,,,,,,,,,,,,,,,,,,,,,,,,,,,,,,,,,,,,,,,,,,,,,,0,4,4,1,1,,,,,,,,,,,,,,,,,,,,,,,,,,,,,,,,,,,,,,,,,
165917,001,2022-11-21_24h07.22.335,Info_measure_main_exp,2022.2.2,MacIntel,59.99520038,,,,,,,,,,,,,,,,,,,,,,,,,,,,,,7,1.0339,1,,,,,,,,,,,,0,131,5,5,2298,2274,absent_patch/patch0002298.jpg,absent_patch/patch0002274.jpg,,,,,,,,,,,,,,,,,,,,0.064822049,0.135075645,1,0,0,response1disk,5,0.00421937,-0.003670635,1,0,0,center_square,0,4,4,1,1,,,,,,,,,,,,,,,,,,,,,,,
165917,001,2022-11-21_24h07.22.335,Info_measure_main_exp,2022.2.2,MacIntel,59.99520038,,,,,,,,,,,,,,,,,,masks/mask_004.jpg,,,,,,,,,,,,,,,,,,,,,,,,,,,,,,,,,,,,,,,,,,,0,0,0,3,1,,,,,,,,,,,,,,,,,,,,,,,,,,,,,,,,,,,,,,,,,,,,,,
165917,001,2022-11-21_24h07.22.335,Info_measure_main_exp,2022.2.2,MacIntel,59.99520038,,,,,,,,,,,,,,,,,,masks/mask_001.jpg,,,,,,,,,,,,,,,,,,,,,,,,,,,,,,,,,,,,,,,,,,,0,1,1,0,1,,,,,,,,,,,,,,,,,,,,,,,,,,,,,,,,,,,,,,,,,,,,,,
165917,001,2022-11-21_24h07.22.335,Info_measure_main_exp,2022.2.2,MacIntel,59.99520038,,,,,,,,,,,,,,,,,,masks/mask_003.jpg,,,,,,,,,,,,,,,,,,,,,,,,,,,,,,,,,,,,,,,,,,,0,2,2,2,1,,,,,,,,,,,,,,,,,,,,,,,,,,,,,,,,,,,,,,,,,,,,,,
165917,001,2022-11-21_24h07.22.335,Info_measure_main_exp,2022.2.2,MacIntel,59.99520038,,,,,,,,,,,,,,,,,,masks/mask_002.jpg,,,,,,,,,,,,,,,,,,,,,,,,,,,,,,,,,,,,,,,,,,,0,3,3,1,1,,,,,,,,,,,,,,,,,,,,,,,,,,,,,,,,,,,,,,,,,,,,,,
165917,001,2022-11-21_24h07.22.335,Info_measure_main_exp,2022.2.2,MacIntel,59.99520038,,,,,,,,,,,,,,,,,,masks/mask_005.jpg,,,,,,,,,,,,,,,,,,,,,,,,,,,,,,,,,,,,,,,,,,,0,4,4,4,1,,,,,,,,,,,,,,,,,,,,,,,,,,,,,,,,,,,,,,,,,,,,,,
165917,001,2022-11-21_24h07.22.335,Info_measure_main_exp,2022.2.2,MacIntel,59.99520038,,,,,,,,,,,,,,,,,,masks/mask_005.jpg,,,,,,,,,,,,,,,,,,,,,,,,,,,,,,,,,,,,,,,,,,,,,,,,0,0,0,4,1,,,,,,,,,,,,,,,,,,,,,,,,,,,,,,,,,,,,,,,,,
165917,001,2022-11-21_24h07.22.335,Info_measure_main_exp,2022.2.2,MacIntel,59.99520038,,,,,,,,,,,,,,,,,,masks/mask_002.jpg,,,,,,,,,,,,,,,,,,,,,,,,,,,,,,,,,,,,,,,,,,,,,,,,0,1,1,1,1,,,,,,,,,,,,,,,,,,,,,,,,,,,,,,,,,,,,,,,,,
165917,001,2022-11-21_24h07.22.335,Info_measure_main_exp,2022.2.2,MacIntel,59.99520038,,,,,,,,,,,,,,,,,,masks/mask_003.jpg,,,,,,,,,,,,,,,,,,,,,,,,,,,,,,,,,,,,,,,,,,,,,,,,0,2,2,2,1,,,,,,,,,,,,,,,,,,,,,,,,,,,,,,,,,,,,,,,,,
165917,001,2022-11-21_24h07.22.335,Info_measure_main_exp,2022.2.2,MacIntel,59.99520038,,,,,,,,,,,,,,,,,,masks/mask_001.jpg,,,,,,,,,,,,,,,,,,,,,,,,,,,,,,,,,,,,,,,,,,,,,,,,0,3,3,0,1,,,,,,,,,,,,,,,,,,,,,,,,,,,,,,,,,,,,,,,,,
165917,001,2022-11-21_24h07.22.335,Info_measure_main_exp,2022.2.2,MacIntel,59.99520038,,,,,,,,,,,,,,,,,,masks/mask_004.jpg,,,,,,,,,,,,,,,,,,,,,,,,,,,,,,,,,,,,,,,,,,,,,,,,0,4,4,3,1,,,,,,,,,,,,,,,,,,,,,,,,,,,,,,,,,,,,,,,,,
165917,001,2022-11-21_24h07.22.335,Info_measure_main_exp,2022.2.2,MacIntel,59.99520038,,,,,,,,,,,,,,,,,,,,,,,,,,,,,,7,1.415,1,,,,,,,,,,,,0,131,5,5,1986,1974,absent_patch/patch0001986.jpg,absent_patch/patch0001974.jpg,,,,,,,,,,,,,,,,,,,,0.035615079,0.073068576,1,0,0,response1disk,6,-0.002703373,-0.004386781,1,0,0,center_square,0,5,5,25,1,,,,,,,,,,,,,,,,,,,,,,,
165917,001,2022-11-21_24h07.22.335,Info_measure_main_exp,2022.2.2,MacIntel,59.99520038,,,,,,,,,,,,,,,,,,masks/mask_003.jpg,,,,,,,,,,,,,,,,,,,,,,,,,,,,,,,,,,,,,,,,,,,0,0,0,2,1,,,,,,,,,,,,,,,,,,,,,,,,,,,,,,,,,,,,,,,,,,,,,,
165917,001,2022-11-21_24h07.22.335,Info_measure_main_exp,2022.2.2,MacIntel,59.99520038,,,,,,,,,,,,,,,,,,masks/mask_004.jpg,,,,,,,,,,,,,,,,,,,,,,,,,,,,,,,,,,,,,,,,,,,0,1,1,3,1,,,,,,,,,,,,,,,,,,,,,,,,,,,,,,,,,,,,,,,,,,,,,,
165917,001,2022-11-21_24h07.22.335,Info_measure_main_exp,2022.2.2,MacIntel,59.99520038,,,,,,,,,,,,,,,,,,masks/mask_002.jpg,,,,,,,,,,,,,,,,,,,,,,,,,,,,,,,,,,,,,,,,,,,0,2,2,1,1,,,,,,,,,,,,,,,,,,,,,,,,,,,,,,,,,,,,,,,,,,,,,,
165917,001,2022-11-21_24h07.22.335,Info_measure_main_exp,2022.2.2,MacIntel,59.99520038,,,,,,,,,,,,,,,,,,masks/mask_005.jpg,,,,,,,,,,,,,,,,,,,,,,,,,,,,,,,,,,,,,,,,,,,0,3,3,4,1,,,,,,,,,,,,,,,,,,,,,,,,,,,,,,,,,,,,,,,,,,,,,,
165917,001,2022-11-21_24h07.22.335,Info_measure_main_exp,2022.2.2,MacIntel,59.99520038,,,,,,,,,,,,,,,,,,masks/mask_001.jpg,,,,,,,,,,,,,,,,,,,,,,,,,,,,,,,,,,,,,,,,,,,0,4,4,0,1,,,,,,,,,,,,,,,,,,,,,,,,,,,,,,,,,,,,,,,,,,,,,,
165917,001,2022-11-21_24h07.22.335,Info_measure_main_exp,2022.2.2,MacIntel,59.99520038,,,,,,,,,,,,,,,,,,masks/mask_002.jpg,,,,,,,,,,,,,,,,,,,,,,,,,,,,,,,,,,,,,,,,,,,,,,,,0,0,0,1,1,,,,,,,,,,,,,,,,,,,,,,,,,,,,,,,,,,,,,,,,,
165917,001,2022-11-21_24h07.22.335,Info_measure_main_exp,2022.2.2,MacIntel,59.99520038,,,,,,,,,,,,,,,,,,masks/mask_004.jpg,,,,,,,,,,,,,,,,,,,,,,,,,,,,,,,,,,,,,,,,,,,,,,,,0,1,1,3,1,,,,,,,,,,,,,,,,,,,,,,,,,,,,,,,,,,,,,,,,,
165917,001,2022-11-21_24h07.22.335,Info_measure_main_exp,2022.2.2,MacIntel,59.99520038,,,,,,,,,,,,,,,,,,masks/mask_001.jpg,,,,,,,,,,,,,,,,,,,,,,,,,,,,,,,,,,,,,,,,,,,,,,,,0,2,2,0,1,,,,,,,,,,,,,,,,,,,,,,,,,,,,,,,,,,,,,,,,,
165917,001,2022-11-21_24h07.22.335,Info_measure_main_exp,2022.2.2,MacIntel,59.99520038,,,,,,,,,,,,,,,,,,masks/mask_005.jpg,,,,,,,,,,,,,,,,,,,,,,,,,,,,,,,,,,,,,,,,,,,,,,,,0,3,3,4,1,,,,,,,,,,,,,,,,,,,,,,,,,,,,,,,,,,,,,,,,,
165917,001,2022-11-21_24h07.22.335,Info_measure_main_exp,2022.2.2,MacIntel,59.99520038,,,,,,,,,,,,,,,,,,masks/mask_003.jpg,,,,,,,,,,,,,,,,,,,,,,,,,,,,,,,,,,,,,,,,,,,,,,,,0,4,4,2,1,,,,,,,,,,,,,,,,,,,,,,,,,,,,,,,,,,,,,,,,,
165917,001,2022-11-21_24h07.22.335,Info_measure_main_exp,2022.2.2,MacIntel,59.99520038,,,,,,,,,,,,,,,,,,,,,,,,,,,,,,4,2.0329,1,,,,,,,,,,,,0,131,5,5,2082,2298,absent_patch/patch0002082.jpg,absent_patch/patch0002298.jpg,,,,,,,,,,,,,,,,,,,,0.08515315,-0.172780258,1,0,0,response3disk,7,-0.006209697,0.005580357,1,0,0,center_square,0,6,6,107,1,,,,,,,,,,,,,,,,,,,,,,,
165917,001,2022-11-21_24h07.22.335,Info_measure_main_exp,2022.2.2,MacIntel,59.99520038,,,,,,,,,,,,,,,,,,masks/mask_005.jpg,,,,,,,,,,,,,,,,,,,,,,,,,,,,,,,,,,,,,,,,,,,0,0,0,4,1,,,,,,,,,,,,,,,,,,,,,,,,,,,,,,,,,,,,,,,,,,,,,,
165917,001,2022-11-21_24h07.22.335,Info_measure_main_exp,2022.2.2,MacIntel,59.99520038,,,,,,,,,,,,,,,,,,masks/mask_002.jpg,,,,,,,,,,,,,,,,,,,,,,,,,,,,,,,,,,,,,,,,,,,0,1,1,1,1,,,,,,,,,,,,,,,,,,,,,,,,,,,,,,,,,,,,,,,,,,,,,,
165917,001,2022-11-21_24h07.22.335,Info_measure_main_exp,2022.2.2,MacIntel,59.99520038,,,,,,,,,,,,,,,,,,masks/mask_001.jpg,,,,,,,,,,,,,,,,,,,,,,,,,,,,,,,,,,,,,,,,,,,0,2,2,0,1,,,,,,,,,,,,,,,,,,,,,,,,,,,,,,,,,,,,,,,,,,,,,,
165917,001,2022-11-21_24h07.22.335,Info_measure_main_exp,2022.2.2,MacIntel,59.99520038,,,,,,,,,,,,,,,,,,masks/mask_003.jpg,,,,,,,,,,,,,,,,,,,,,,,,,,,,,,,,,,,,,,,,,,,0,3,3,2,1,,,,,,,,,,,,,,,,,,,,,,,,,,,,,,,,,,,,,,,,,,,,,,
165917,001,2022-11-21_24h07.22.335,Info_measure_main_exp,2022.2.2,MacIntel,59.99520038,,,,,,,,,,,,,,,,,,masks/mask_004.jpg,,,,,,,,,,,,,,,,,,,,,,,,,,,,,,,,,,,,,,,,,,,0,4,4,3,1,,,,,,,,,,,,,,,,,,,,,,,,,,,,,,,,,,,,,,,,,,,,,,
165917,001,2022-11-21_24h07.22.335,Info_measure_main_exp,2022.2.2,MacIntel,59.99520038,,,,,,,,,,,,,,,,,,masks/mask_004.jpg,,,,,,,,,,,,,,,,,,,,,,,,,,,,,,,,,,,,,,,,,,,,,,,,0,0,0,3,1,,,,,,,,,,,,,,,,,,,,,,,,,,,,,,,,,,,,,,,,,
165917,001,2022-11-21_24h07.22.335,Info_measure_main_exp,2022.2.2,MacIntel,59.99520038,,,,,,,,,,,,,,,,,,masks/mask_005.jpg,,,,,,,,,,,,,,,,,,,,,,,,,,,,,,,,,,,,,,,,,,,,,,,,0,1,1,4,1,,,,,,,,,,,,,,,,,,,,,,,,,,,,,,,,,,,,,,,,,
165917,001,2022-11-21_24h07.22.335,Info_measure_main_exp,2022.2.2,MacIntel,59.99520038,,,,,,,,,,,,,,,,,,masks/mask_001.jpg,,,,,,,,,,,,,,,,,,,,,,,,,,,,,,,,,,,,,,,,,,,,,,,,0,2,2,0,1,,,,,,,,,,,,,,,,,,,,,,,,,,,,,,,,,,,,,,,,,
165917,001,2022-11-21_24h07.22.335,Info_measure_main_exp,2022.2.2,MacIntel,59.99520038,,,,,,,,,,,,,,,,,,masks/mask_003.jpg,,,,,,,,,,,,,,,,,,,,,,,,,,,,,,,,,,,,,,,,,,,,,,,,0,3,3,2,1,,,,,,,,,,,,,,,,,,,,,,,,,,,,,,,,,,,,,,,,,
165917,001,2022-11-21_24h07.22.335,Info_measure_main_exp,2022.2.2,MacIntel,59.99520038,,,,,,,,,,,,,,,,,,masks/mask_002.jpg,,,,,,,,,,,,,,,,,,,,,,,,,,,,,,,,,,,,,,,,,,,,,,,,0,4,4,1,1,,,,,,,,,,,,,,,,,,,,,,,,,,,,,,,,,,,,,,,,,
165917,001,2022-11-21_24h07.22.335,Info_measure_main_exp,2022.2.2,MacIntel,59.99520038,,,,,,,,,,,,,,,,,,,,,,,,,,,,,,7,1.8175,1,,,,,,,,,,,,0,131,5,5,2274,2082,absent_patch/patch0002274.jpg,absent_patch/patch0002082.jpg,,,,,,,,,,,,,,,,,,,,0.037112475,0.110224454,1,0,0,response1disk,8,0.001150174,0.002619668,1,0,0,center_square,0,7,7,100,1,,,,,,,,,,,,,,,,,,,,,,,
165917,001,2022-11-21_24h07.22.335,Info_measure_main_exp,2022.2.2,MacIntel,59.99520038,,,,,,,,,,,,,,,,,,masks/mask_002.jpg,,,,,,,,,,,,,,,,,,,,,,,,,,,,,,,,,,,,,,,,,,,0,0,0,1,1,,,,,,,,,,,,,,,,,,,,,,,,,,,,,,,,,,,,,,,,,,,,,,
165917,001,2022-11-21_24h07.22.335,Info_measure_main_exp,2022.2.2,MacIntel,59.99520038,,,,,,,,,,,,,,,,,,masks/mask_001.jpg,,,,,,,,,,,,,,,,,,,,,,,,,,,,,,,,,,,,,,,,,,,0,1,1,0,1,,,,,,,,,,,,,,,,,,,,,,,,,,,,,,,,,,,,,,,,,,,,,,
165917,001,2022-11-21_24h07.22.335,Info_measure_main_exp,2022.2.2,MacIntel,59.99520038,,,,,,,,,,,,,,,,,,masks/mask_005.jpg,,,,,,,,,,,,,,,,,,,,,,,,,,,,,,,,,,,,,,,,,,,0,2,2,4,1,,,,,,,,,,,,,,,,,,,,,,,,,,,,,,,,,,,,,,,,,,,,,,
165917,001,2022-11-21_24h07.22.335,Info_measure_main_exp,2022.2.2,MacIntel,59.99520038,,,,,,,,,,,,,,,,,,masks/mask_003.jpg,,,,,,,,,,,,,,,,,,,,,,,,,,,,,,,,,,,,,,,,,,,0,3,3,2,1,,,,,,,,,,,,,,,,,,,,,,,,,,,,,,,,,,,,,,,,,,,,,,
165917,001,2022-11-21_24h07.22.335,Info_measure_main_exp,2022.2.2,MacIntel,59.99520038,,,,,,,,,,,,,,,,,,masks/mask_004.jpg,,,,,,,,,,,,,,,,,,,,,,,,,,,,,,,,,,,,,,,,,,,0,4,4,3,1,,,,,,,,,,,,,,,,,,,,,,,,,,,,,,,,,,,,,,,,,,,,,,
165917,001,2022-11-21_24h07.22.335,Info_measure_main_exp,2022.2.2,MacIntel,59.99520038,,,,,,,,,,,,,,,,,,masks/mask_004.jpg,,,,,,,,,,,,,,,,,,,,,,,,,,,,,,,,,,,,,,,,,,,,,,,,0,0,0,3,1,,,,,,,,,,,,,,,,,,,,,,,,,,,,,,,,,,,,,,,,,
165917,001,2022-11-21_24h07.22.335,Info_measure_main_exp,2022.2.2,MacIntel,59.99520038,,,,,,,,,,,,,,,,,,masks/mask_002.jpg,,,,,,,,,,,,,,,,,,,,,,,,,,,,,,,,,,,,,,,,,,,,,,,,0,1,1,1,1,,,,,,,,,,,,,,,,,,,,,,,,,,,,,,,,,,,,,,,,,
165917,001,2022-11-21_24h07.22.335,Info_measure_main_exp,2022.2.2,MacIntel,59.99520038,,,,,,,,,,,,,,,,,,masks/mask_001.jpg,,,,,,,,,,,,,,,,,,,,,,,,,,,,,,,,,,,,,,,,,,,,,,,,0,2,2,0,1,,,,,,,,,,,,,,,,,,,,,,,,,,,,,,,,,,,,,,,,,
165917,001,2022-11-21_24h07.22.335,Info_measure_main_exp,2022.2.2,MacIntel,59.99520038,,,,,,,,,,,,,,,,,,masks/mask_005.jpg,,,,,,,,,,,,,,,,,,,,,,,,,,,,,,,,,,,,,,,,,,,,,,,,0,3,3,4,1,,,,,,,,,,,,,,,,,,,,,,,,,,,,,,,,,,,,,,,,,
165917,001,2022-11-21_24h07.22.335,Info_measure_main_exp,2022.2.2,MacIntel,59.99520038,,,,,,,,,,,,,,,,,,masks/mask_003.jpg,,,,,,,,,,,,,,,,,,,,,,,,,,,,,,,,,,,,,,,,,,,,,,,,0,4,4,2,1,,,,,,,,,,,,,,,,,,,,,,,,,,,,,,,,,,,,,,,,,
165917,001,2022-11-21_24h07.22.335,Info_measure_main_exp,2022.2.2,MacIntel,59.99520038,,,,,,,,,,,,,,,,,,,,,,,,,,,,,,7,1.1498,1,,,,,,,,,,,,0,131,5,5,2178,2166,absent_patch/patch0002178.jpg,absent_patch/patch0002166.jpg,,,,,,,,,,,,,,,,,,,,0.033193824,0.11203807,1,0,0,response1disk,9,0.012633309,-0.005013021,1,0,0,center_square,0,8,8,72,1,,,,,,,,,,,,,,,,,,,,,,,
165917,001,2022-11-21_24h07.22.335,Info_measure_main_exp,2022.2.2,MacIntel,59.99520038,,,,,,,,,,,,,,,,,,masks/mask_004.jpg,,,,,,,,,,,,,,,,,,,,,,,,,,,,,,,,,,,,,,,,,,,0,0,0,3,1,,,,,,,,,,,,,,,,,,,,,,,,,,,,,,,,,,,,,,,,,,,,,,
165917,001,2022-11-21_24h07.22.335,Info_measure_main_exp,2022.2.2,MacIntel,59.99520038,,,,,,,,,,,,,,,,,,masks/mask_003.jpg,,,,,,,,,,,,,,,,,,,,,,,,,,,,,,,,,,,,,,,,,,,0,1,1,2,1,,,,,,,,,,,,,,,,,,,,,,,,,,,,,,,,,,,,,,,,,,,,,,
165917,001,2022-11-21_24h07.22.335,Info_measure_main_exp,2022.2.2,MacIntel,59.99520038,,,,,,,,,,,,,,,,,,masks/mask_002.jpg,,,,,,,,,,,,,,,,,,,,,,,,,,,,,,,,,,,,,,,,,,,0,2,2,1,1,,,,,,,,,,,,,,,,,,,,,,,,,,,,,,,,,,,,,,,,,,,,,,
165917,001,2022-11-21_24h07.22.335,Info_measure_main_exp,2022.2.2,MacIntel,59.99520038,,,,,,,,,,,,,,,,,,masks/mask_005.jpg,,,,,,,,,,,,,,,,,,,,,,,,,,,,,,,,,,,,,,,,,,,0,3,3,4,1,,,,,,,,,,,,,,,,,,,,,,,,,,,,,,,,,,,,,,,,,,,,,,
165917,001,2022-11-21_24h07.22.335,Info_measure_main_exp,2022.2.2,MacIntel,59.99520038,,,,,,,,,,,,,,,,,,masks/mask_001.jpg,,,,,,,,,,,,,,,,,,,,,,,,,,,,,,,,,,,,,,,,,,,0,4,4,0,1,,,,,,,,,,,,,,,,,,,,,,,,,,,,,,,,,,,,,,,,,,,,,,
165917,001,2022-11-21_24h07.22.335,Info_measure_main_exp,2022.2.2,MacIntel,59.99520038,,,,,,,,,,,,,,,,,,masks/mask_001.jpg,,,,,,,,,,,,,,,,,,,,,,,,,,,,,,,,,,,,,,,,,,,,,,,,0,0,0,0,1,,,,,,,,,,,,,,,,,,,,,,,,,,,,,,,,,,,,,,,,,
165917,001,2022-11-21_24h07.22.335,Info_measure_main_exp,2022.2.2,MacIntel,59.99520038,,,,,,,,,,,,,,,,,,masks/mask_004.jpg,,,,,,,,,,,,,,,,,,,,,,,,,,,,,,,,,,,,,,,,,,,,,,,,0,1,1,3,1,,,,,,,,,,,,,,,,,,,,,,,,,,,,,,,,,,,,,,,,,
165917,001,2022-11-21_24h07.22.335,Info_measure_main_exp,2022.2.2,MacIntel,59.99520038,,,,,,,,,,,,,,,,,,masks/mask_002.jpg,,,,,,,,,,,,,,,,,,,,,,,,,,,,,,,,,,,,,,,,,,,,,,,,0,2,2,1,1,,,,,,,,,,,,,,,,,,,,,,,,,,,,,,,,,,,,,,,,,
165917,001,2022-11-21_24h07.22.335,Info_measure_main_exp,2022.2.2,MacIntel,59.99520038,,,,,,,,,,,,,,,,,,masks/mask_003.jpg,,,,,,,,,,,,,,,,,,,,,,,,,,,,,,,,,,,,,,,,,,,,,,,,0,3,3,2,1,,,,,,,,,,,,,,,,,,,,,,,,,,,,,,,,,,,,,,,,,
165917,001,2022-11-21_24h07.22.335,Info_measure_main_exp,2022.2.2,MacIntel,59.99520038,,,,,,,,,,,,,,,,,,masks/mask_005.jpg,,,,,,,,,,,,,,,,,,,,,,,,,,,,,,,,,,,,,,,,,,,,,,,,0,4,4,4,1,,,,,,,,,,,,,,,,,,,,,,,,,,,,,,,,,,,,,,,,,
165917,001,2022-11-21_24h07.22.335,Info_measure_main_exp,2022.2.2,MacIntel,59.99520038,,,,,,,,,,,,,,,,,,,,,,,,,,,,,,0,0.6992,1,,,,,,,,,,,,0,131,5,5,1974,1974,absent_patch/patch0001974.jpg,absent_patch/patch0001974.jpg,,,,,,,,,,,,,,,,,,,,-0.024485367,0.096369668,1,0,0,response7disk,10,0.001981027,-0.00687624,1,0,0,center_square,0,9,9,113,1,,,,,,,,,,,,,,,,,,,,,,,
165917,001,2022-11-21_24h07.22.335,Info_measure_main_exp,2022.2.2,MacIntel,59.99520038,,,,,,,,,,,,,,,,,,masks/mask_004.jpg,,,,,,,,,,,,,,,,,,,,,,,,,,,,,,,,,,,,,,,,,,,0,0,0,3,1,,,,,,,,,,,,,,,,,,,,,,,,,,,,,,,,,,,,,,,,,,,,,,
165917,001,2022-11-21_24h07.22.335,Info_measure_main_exp,2022.2.2,MacIntel,59.99520038,,,,,,,,,,,,,,,,,,masks/mask_005.jpg,,,,,,,,,,,,,,,,,,,,,,,,,,,,,,,,,,,,,,,,,,,0,1,1,4,1,,,,,,,,,,,,,,,,,,,,,,,,,,,,,,,,,,,,,,,,,,,,,,
165917,001,2022-11-21_24h07.22.335,Info_measure_main_exp,2022.2.2,MacIntel,59.99520038,,,,,,,,,,,,,,,,,,masks/mask_002.jpg,,,,,,,,,,,,,,,,,,,,,,,,,,,,,,,,,,,,,,,,,,,0,2,2,1,1,,,,,,,,,,,,,,,,,,,,,,,,,,,,,,,,,,,,,,,,,,,,,,
165917,001,2022-11-21_24h07.22.335,Info_measure_main_exp,2022.2.2,MacIntel,59.99520038,,,,,,,,,,,,,,,,,,masks/mask_003.jpg,,,,,,,,,,,,,,,,,,,,,,,,,,,,,,,,,,,,,,,,,,,0,3,3,2,1,,,,,,,,,,,,,,,,,,,,,,,,,,,,,,,,,,,,,,,,,,,,,,
165917,001,2022-11-21_24h07.22.335,Info_measure_main_exp,2022.2.2,MacIntel,59.99520038,,,,,,,,,,,,,,,,,,masks/mask_001.jpg,,,,,,,,,,,,,,,,,,,,,,,,,,,,,,,,,,,,,,,,,,,0,4,4,0,1,,,,,,,,,,,,,,,,,,,,,,,,,,,,,,,,,,,,,,,,,,,,,,
165917,001,2022-11-21_24h07.22.335,Info_measure_main_exp,2022.2.2,MacIntel,59.99520038,,,,,,,,,,,,,,,,,,masks/mask_005.jpg,,,,,,,,,,,,,,,,,,,,,,,,,,,,,,,,,,,,,,,,,,,,,,,,0,0,0,4,1,,,,,,,,,,,,,,,,,,,,,,,,,,,,,,,,,,,,,,,,,
165917,001,2022-11-21_24h07.22.335,Info_measure_main_exp,2022.2.2,MacIntel,59.99520038,,,,,,,,,,,,,,,,,,masks/mask_004.jpg,,,,,,,,,,,,,,,,,,,,,,,,,,,,,,,,,,,,,,,,,,,,,,,,0,1,1,3,1,,,,,,,,,,,,,,,,,,,,,,,,,,,,,,,,,,,,,,,,,
165917,001,2022-11-21_24h07.22.335,Info_measure_main_exp,2022.2.2,MacIntel,59.99520038,,,,,,,,,,,,,,,,,,masks/mask_003.jpg,,,,,,,,,,,,,,,,,,,,,,,,,,,,,,,,,,,,,,,,,,,,,,,,0,2,2,2,1,,,,,,,,,,,,,,,,,,,,,,,,,,,,,,,,,,,,,,,,,
165917,001,2022-11-21_24h07.22.335,Info_measure_main_exp,2022.2.2,MacIntel,59.99520038,,,,,,,,,,,,,,,,,,masks/mask_001.jpg,,,,,,,,,,,,,,,,,,,,,,,,,,,,,,,,,,,,,,,,,,,,,,,,0,3,3,0,1,,,,,,,,,,,,,,,,,,,,,,,,,,,,,,,,,,,,,,,,,
165917,001,2022-11-21_24h07.22.335,Info_measure_main_exp,2022.2.2,MacIntel,59.99520038,,,,,,,,,,,,,,,,,,masks/mask_002.jpg,,,,,,,,,,,,,,,,,,,,,,,,,,,,,,,,,,,,,,,,,,,,,,,,0,4,4,1,1,,,,,,,,,,,,,,,,,,,,,,,,,,,,,,,,,,,,,,,,,
165917,001,2022-11-21_24h07.22.335,Info_measure_main_exp,2022.2.2,MacIntel,59.99520038,,,,,,,,,,,,,,,,,,,,,,,,,,,,,,7,2.9317,1,,,,,,,,,,,,0,131,5,5,2214,2166,absent_patch/patch0002214.jpg,absent_patch/patch0002166.jpg,,,,,,,,,,,,,,,,,,,,0.032685392,0.057545883,1,0,0,response1disk,11,-0.002244544,-0.004978919,1,0,0,center_square,0,10,10,109,1,,,,,,,,,,,,,,,,,,,,,,,
165917,001,2022-11-21_24h07.22.335,Info_measure_main_exp,2022.2.2,MacIntel,59.99520038,,,,,,,,,,,,,,,,,,masks/mask_005.jpg,,,,,,,,,,,,,,,,,,,,,,,,,,,,,,,,,,,,,,,,,,,0,0,0,4,1,,,,,,,,,,,,,,,,,,,,,,,,,,,,,,,,,,,,,,,,,,,,,,
165917,001,2022-11-21_24h07.22.335,Info_measure_main_exp,2022.2.2,MacIntel,59.99520038,,,,,,,,,,,,,,,,,,masks/mask_003.jpg,,,,,,,,,,,,,,,,,,,,,,,,,,,,,,,,,,,,,,,,,,,0,1,1,2,1,,,,,,,,,,,,,,,,,,,,,,,,,,,,,,,,,,,,,,,,,,,,,,
165917,001,2022-11-21_24h07.22.335,Info_measure_main_exp,2022.2.2,MacIntel,59.99520038,,,,,,,,,,,,,,,,,,masks/mask_002.jpg,,,,,,,,,,,,,,,,,,,,,,,,,,,,,,,,,,,,,,,,,,,0,2,2,1,1,,,,,,,,,,,,,,,,,,,,,,,,,,,,,,,,,,,,,,,,,,,,,,
165917,001,2022-11-21_24h07.22.335,Info_measure_main_exp,2022.2.2,MacIntel,59.99520038,,,,,,,,,,,,,,,,,,masks/mask_004.jpg,,,,,,,,,,,,,,,,,,,,,,,,,,,,,,,,,,,,,,,,,,,0,3,3,3,1,,,,,,,,,,,,,,,,,,,,,,,,,,,,,,,,,,,,,,,,,,,,,,
165917,001,2022-11-21_24h07.22.335,Info_measure_main_exp,2022.2.2,MacIntel,59.99520038,,,,,,,,,,,,,,,,,,masks/mask_001.jpg,,,,,,,,,,,,,,,,,,,,,,,,,,,,,,,,,,,,,,,,,,,0,4,4,0,1,,,,,,,,,,,,,,,,,,,,,,,,,,,,,,,,,,,,,,,,,,,,,,
165917,001,2022-11-21_24h07.22.335,Info_measure_main_exp,2022.2.2,MacIntel,59.99520038,,,,,,,,,,,,,,,,,,masks/mask_001.jpg,,,,,,,,,,,,,,,,,,,,,,,,,,,,,,,,,,,,,,,,,,,,,,,,0,0,0,0,1,,,,,,,,,,,,,,,,,,,,,,,,,,,,,,,,,,,,,,,,,
165917,001,2022-11-21_24h07.22.335,Info_measure_main_exp,2022.2.2,MacIntel,59.99520038,,,,,,,,,,,,,,,,,,masks/mask_003.jpg,,,,,,,,,,,,,,,,,,,,,,,,,,,,,,,,,,,,,,,,,,,,,,,,0,1,1,2,1,,,,,,,,,,,,,,,,,,,,,,,,,,,,,,,,,,,,,,,,,
165917,001,2022-11-21_24h07.22.335,Info_measure_main_exp,2022.2.2,MacIntel,59.99520038,,,,,,,,,,,,,,,,,,masks/mask_002.jpg,,,,,,,,,,,,,,,,,,,,,,,,,,,,,,,,,,,,,,,,,,,,,,,,0,2,2,1,1,,,,,,,,,,,,,,,,,,,,,,,,,,,,,,,,,,,,,,,,,
165917,001,2022-11-21_24h07.22.335,Info_measure_main_exp,2022.2.2,MacIntel,59.99520038,,,,,,,,,,,,,,,,,,masks/mask_005.jpg,,,,,,,,,,,,,,,,,,,,,,,,,,,,,,,,,,,,,,,,,,,,,,,,0,3,3,4,1,,,,,,,,,,,,,,,,,,,,,,,,,,,,,,,,,,,,,,,,,
165917,001,2022-11-21_24h07.22.335,Info_measure_main_exp,2022.2.2,MacIntel,59.99520038,,,,,,,,,,,,,,,,,,masks/mask_004.jpg,,,,,,,,,,,,,,,,,,,,,,,,,,,,,,,,,,,,,,,,,,,,,,,,0,4,4,3,1,,,,,,,,,,,,,,,,,,,,,,,,,,,,,,,,,,,,,,,,,
165917,001,2022-11-21_24h07.22.335,Info_measure_main_exp,2022.2.2,MacIntel,59.99520038,,,,,,,,,,,,,,,,,,,,,,,,,,,,,,7,0.9663,1,,,,,,,,,,,,0,131,5,5,2154,2190,absent_patch/patch0002154.jpg,absent_patch/patch0002190.jpg,,,,,,,,,,,,,,,,,,,,0.018998016,0.027396453,1,0,0,response1disk,12,0.002179439,0.0015563,1,0,0,center_square,0,11,11,68,1,,,,,,,,,,,,,,,,,,,,,,,
165917,001,2022-11-21_24h07.22.335,Info_measure_main_exp,2022.2.2,MacIntel,59.99520038,,,,,,,,,,,,,,,,,,masks/mask_003.jpg,,,,,,,,,,,,,,,,,,,,,,,,,,,,,,,,,,,,,,,,,,,0,0,0,2,1,,,,,,,,,,,,,,,,,,,,,,,,,,,,,,,,,,,,,,,,,,,,,,
165917,001,2022-11-21_24h07.22.335,Info_measure_main_exp,2022.2.2,MacIntel,59.99520038,,,,,,,,,,,,,,,,,,masks/mask_005.jpg,,,,,,,,,,,,,,,,,,,,,,,,,,,,,,,,,,,,,,,,,,,0,1,1,4,1,,,,,,,,,,,,,,,,,,,,,,,,,,,,,,,,,,,,,,,,,,,,,,
165917,001,2022-11-21_24h07.22.335,Info_measure_main_exp,2022.2.2,MacIntel,59.99520038,,,,,,,,,,,,,,,,,,masks/mask_001.jpg,,,,,,,,,,,,,,,,,,,,,,,,,,,,,,,,,,,,,,,,,,,0,2,2,0,1,,,,,,,,,,,,,,,,,,,,,,,,,,,,,,,,,,,,,,,,,,,,,,
165917,001,2022-11-21_24h07.22.335,Info_measure_main_exp,2022.2.2,MacIntel,59.99520038,,,,,,,,,,,,,,,,,,masks/mask_002.jpg,,,,,,,,,,,,,,,,,,,,,,,,,,,,,,,,,,,,,,,,,,,0,3,3,1,1,,,,,,,,,,,,,,,,,,,,,,,,,,,,,,,,,,,,,,,,,,,,,,
165917,001,2022-11-21_24h07.22.335,Info_measure_main_exp,2022.2.2,MacIntel,59.99520038,,,,,,,,,,,,,,,,,,masks/mask_004.jpg,,,,,,,,,,,,,,,,,,,,,,,,,,,,,,,,,,,,,,,,,,,0,4,4,3,1,,,,,,,,,,,,,,,,,,,,,,,,,,,,,,,,,,,,,,,,,,,,,,
165917,001,2022-11-21_24h07.22.335,Info_measure_main_exp,2022.2.2,MacIntel,59.99520038,,,,,,,,,,,,,,,,,,masks/mask_002.jpg,,,,,,,,,,,,,,,,,,,,,,,,,,,,,,,,,,,,,,,,,,,,,,,,0,0,0,1,1,,,,,,,,,,,,,,,,,,,,,,,,,,,,,,,,,,,,,,,,,
165917,001,2022-11-21_24h07.22.335,Info_measure_main_exp,2022.2.2,MacIntel,59.99520038,,,,,,,,,,,,,,,,,,masks/mask_005.jpg,,,,,,,,,,,,,,,,,,,,,,,,,,,,,,,,,,,,,,,,,,,,,,,,0,1,1,4,1,,,,,,,,,,,,,,,,,,,,,,,,,,,,,,,,,,,,,,,,,
165917,001,2022-11-21_24h07.22.335,Info_measure_main_exp,2022.2.2,MacIntel,59.99520038,,,,,,,,,,,,,,,,,,masks/mask_001.jpg,,,,,,,,,,,,,,,,,,,,,,,,,,,,,,,,,,,,,,,,,,,,,,,,0,2,2,0,1,,,,,,,,,,,,,,,,,,,,,,,,,,,,,,,,,,,,,,,,,
165917,001,2022-11-21_24h07.22.335,Info_measure_main_exp,2022.2.2,MacIntel,59.99520038,,,,,,,,,,,,,,,,,,masks/mask_003.jpg,,,,,,,,,,,,,,,,,,,,,,,,,,,,,,,,,,,,,,,,,,,,,,,,0,3,3,2,1,,,,,,,,,,,,,,,,,,,,,,,,,,,,,,,,,,,,,,,,,
165917,001,2022-11-21_24h07.22.335,Info_measure_main_exp,2022.2.2,MacIntel,59.99520038,,,,,,,,,,,,,,,,,,masks/mask_004.jpg,,,,,,,,,,,,,,,,,,,,,,,,,,,,,,,,,,,,,,,,,,,,,,,,0,4,4,3,1,,,,,,,,,,,,,,,,,,,,,,,,,,,,,,,,,,,,,,,,,
165917,001,2022-11-21_24h07.22.335,Info_measure_main_exp,2022.2.2,MacIntel,59.99520038,,,,,,,,,,,,,,,,,,,,,,,,,,,,,,3,1.9829,1,,,,,,,,,,,,0,131,5,5,2298,2214,absent_patch/patch0002298.jpg,absent_patch/patch0002214.jpg,,,,,,,,,,,,,,,,,,,,-0.048666915,-0.124541171,1,0,0,response5disk,13,-0.002985491,-0.000740947,1,0,0,center_square,0,12,12,99,1,,,,,,,,,,,,,,,,,,,,,,,
165917,001,2022-11-21_24h07.22.335,Info_measure_main_exp,2022.2.2,MacIntel,59.99520038,,,,,,,,,,,,,,,,,,masks/mask_001.jpg,,,,,,,,,,,,,,,,,,,,,,,,,,,,,,,,,,,,,,,,,,,0,0,0,0,1,,,,,,,,,,,,,,,,,,,,,,,,,,,,,,,,,,,,,,,,,,,,,,
165917,001,2022-11-21_24h07.22.335,Info_measure_main_exp,2022.2.2,MacIntel,59.99520038,,,,,,,,,,,,,,,,,,masks/mask_003.jpg,,,,,,,,,,,,,,,,,,,,,,,,,,,,,,,,,,,,,,,,,,,0,1,1,2,1,,,,,,,,,,,,,,,,,,,,,,,,,,,,,,,,,,,,,,,,,,,,,,
165917,001,2022-11-21_24h07.22.335,Info_measure_main_exp,2022.2.2,MacIntel,59.99520038,,,,,,,,,,,,,,,,,,masks/mask_005.jpg,,,,,,,,,,,,,,,,,,,,,,,,,,,,,,,,,,,,,,,,,,,0,2,2,4,1,,,,,,,,,,,,,,,,,,,,,,,,,,,,,,,,,,,,,,,,,,,,,,
165917,001,2022-11-21_24h07.22.335,Info_measure_main_exp,2022.2.2,MacIntel,59.99520038,,,,,,,,,,,,,,,,,,masks/mask_002.jpg,,,,,,,,,,,,,,,,,,,,,,,,,,,,,,,,,,,,,,,,,,,0,3,3,1,1,,,,,,,,,,,,,,,,,,,,,,,,,,,,,,,,,,,,,,,,,,,,,,
165917,001,2022-11-21_24h07.22.335,Info_measure_main_exp,2022.2.2,MacIntel,59.99520038,,,,,,,,,,,,,,,,,,masks/mask_004.jpg,,,,,,,,,,,,,,,,,,,,,,,,,,,,,,,,,,,,,,,,,,,0,4,4,3,1,,,,,,,,,,,,,,,,,,,,,,,,,,,,,,,,,,,,,,,,,,,,,,
165917,001,2022-11-21_24h07.22.335,Info_measure_main_exp,2022.2.2,MacIntel,59.99520038,,,,,,,,,,,,,,,,,,masks/mask_001.jpg,,,,,,,,,,,,,,,,,,,,,,,,,,,,,,,,,,,,,,,,,,,,,,,,0,0,0,0,1,,,,,,,,,,,,,,,,,,,,,,,,,,,,,,,,,,,,,,,,,
165917,001,2022-11-21_24h07.22.335,Info_measure_main_exp,2022.2.2,MacIntel,59.99520038,,,,,,,,,,,,,,,,,,masks/mask_003.jpg,,,,,,,,,,,,,,,,,,,,,,,,,,,,,,,,,,,,,,,,,,,,,,,,0,1,1,2,1,,,,,,,,,,,,,,,,,,,,,,,,,,,,,,,,,,,,,,,,,
165917,001,2022-11-21_24h07.22.335,Info_measure_main_exp,2022.2.2,MacIntel,59.99520038,,,,,,,,,,,,,,,,,,masks/mask_005.jpg,,,,,,,,,,,,,,,,,,,,,,,,,,,,,,,,,,,,,,,,,,,,,,,,0,2,2,4,1,,,,,,,,,,,,,,,,,,,,,,,,,,,,,,,,,,,,,,,,,
165917,001,2022-11-21_24h07.22.335,Info_measure_main_exp,2022.2.2,MacIntel,59.99520038,,,,,,,,,,,,,,,,,,masks/mask_002.jpg,,,,,,,,,,,,,,,,,,,,,,,,,,,,,,,,,,,,,,,,,,,,,,,,0,3,3,1,1,,,,,,,,,,,,,,,,,,,,,,,,,,,,,,,,,,,,,,,,,
165917,001,2022-11-21_24h07.22.335,Info_measure_main_exp,2022.2.2,MacIntel,59.99520038,,,,,,,,,,,,,,,,,,masks/mask_004.jpg,,,,,,,,,,,,,,,,,,,,,,,,,,,,,,,,,,,,,,,,,,,,,,,,0,4,4,3,1,,,,,,,,,,,,,,,,,,,,,,,,,,,,,,,,,,,,,,,,,
165917,001,2022-11-21_24h07.22.335,Info_measure_main_exp,2022.2.2,MacIntel,59.99520038,,,,,,,,,,,,,,,,,,,,,,,,,,,,,,0,0.8172,1,,,,,,,,,,,,0,131,5,5,1950,1950,absent_patch/patch0001950.jpg,absent_patch/patch0001950.jpg,,,,,,,,,,,,,,,,,,,,-0.027985491,0.133801463,1,0,0,response7disk,14,-0.005881076,-0.000353423,1,0,0,center_square,0,13,13,92,1,,,,,,,,,,,,,,,,,,,,,,,
165917,001,2022-11-21_24h07.22.335,Info_measure_main_exp,2022.2.2,MacIntel,59.99520038,,,,,,,,,,,,,,,,,,masks/mask_002.jpg,,,,,,,,,,,,,,,,,,,,,,,,,,,,,,,,,,,,,,,,,,,0,0,0,1,1,,,,,,,,,,,,,,,,,,,,,,,,,,,,,,,,,,,,,,,,,,,,,,
165917,001,2022-11-21_24h07.22.335,Info_measure_main_exp,2022.2.2,MacIntel,59.99520038,,,,,,,,,,,,,,,,,,masks/mask_005.jpg,,,,,,,,,,,,,,,,,,,,,,,,,,,,,,,,,,,,,,,,,,,0,1,1,4,1,,,,,,,,,,,,,,,,,,,,,,,,,,,,,,,,,,,,,,,,,,,,,,
165917,001,2022-11-21_24h07.22.335,Info_measure_main_exp,2022.2.2,MacIntel,59.99520038,,,,,,,,,,,,,,,,,,masks/mask_001.jpg,,,,,,,,,,,,,,,,,,,,,,,,,,,,,,,,,,,,,,,,,,,0,2,2,0,1,,,,,,,,,,,,,,,,,,,,,,,,,,,,,,,,,,,,,,,,,,,,,,
165917,001,2022-11-21_24h07.22.335,Info_measure_main_exp,2022.2.2,MacIntel,59.99520038,,,,,,,,,,,,,,,,,,masks/mask_004.jpg,,,,,,,,,,,,,,,,,,,,,,,,,,,,,,,,,,,,,,,,,,,0,3,3,3,1,,,,,,,,,,,,,,,,,,,,,,,,,,,,,,,,,,,,,,,,,,,,,,
165917,001,2022-11-21_24h07.22.335,Info_measure_main_exp,2022.2.2,MacIntel,59.99520038,,,,,,,,,,,,,,,,,,masks/mask_003.jpg,,,,,,,,,,,,,,,,,,,,,,,,,,,,,,,,,,,,,,,,,,,0,4,4,2,1,,,,,,,,,,,,,,,,,,,,,,,,,,,,,,,,,,,,,,,,,,,,,,
165917,001,2022-11-21_24h07.22.335,Info_measure_main_exp,2022.2.2,MacIntel,59.99520038,,,,,,,,,,,,,,,,,,masks/mask_003.jpg,,,,,,,,,,,,,,,,,,,,,,,,,,,,,,,,,,,,,,,,,,,,,,,,0,0,0,2,1,,,,,,,,,,,,,,,,,,,,,,,,,,,,,,,,,,,,,,,,,
165917,001,2022-11-21_24h07.22.335,Info_measure_main_exp,2022.2.2,MacIntel,59.99520038,,,,,,,,,,,,,,,,,,masks/mask_005.jpg,,,,,,,,,,,,,,,,,,,,,,,,,,,,,,,,,,,,,,,,,,,,,,,,0,1,1,4,1,,,,,,,,,,,,,,,,,,,,,,,,,,,,,,,,,,,,,,,,,
165917,001,2022-11-21_24h07.22.335,Info_measure_main_exp,2022.2.2,MacIntel,59.99520038,,,,,,,,,,,,,,,,,,masks/mask_002.jpg,,,,,,,,,,,,,,,,,,,,,,,,,,,,,,,,,,,,,,,,,,,,,,,,0,2,2,1,1,,,,,,,,,,,,,,,,,,,,,,,,,,,,,,,,,,,,,,,,,
165917,001,2022-11-21_24h07.22.335,Info_measure_main_exp,2022.2.2,MacIntel,59.99520038,,,,,,,,,,,,,,,,,,masks/mask_004.jpg,,,,,,,,,,,,,,,,,,,,,,,,,,,,,,,,,,,,,,,,,,,,,,,,0,3,3,3,1,,,,,,,,,,,,,,,,,,,,,,,,,,,,,,,,,,,,,,,,,
165917,001,2022-11-21_24h07.22.335,Info_measure_main_exp,2022.2.2,MacIntel,59.99520038,,,,,,,,,,,,,,,,,,masks/mask_001.jpg,,,,,,,,,,,,,,,,,,,,,,,,,,,,,,,,,,,,,,,,,,,,,,,,0,4,4,0,1,,,,,,,,,,,,,,,,,,,,,,,,,,,,,,,,,,,,,,,,,
165917,001,2022-11-21_24h07.22.335,Info_measure_main_exp,2022.2.2,MacIntel,59.99520038,,,,,,,,,,,,,,,,,,,,,,,,,,,,,,5,2.7008,1,,,,,,,,,,,,0,131,5,5,1974,2250,absent_patch/patch0001974.jpg,absent_patch/patch0002250.jpg,,,,,,,,,,,,,,,,,,,,0.120665923,-0.072538442,1,0,0,response3disk,15,-0.006758433,-0.000871156,1,0,0,center_square,0,14,14,55,1,,,,,,,,,,,,,,,,,,,,,,,
165917,001,2022-11-21_24h07.22.335,Info_measure_main_exp,2022.2.2,MacIntel,59.99520038,,,,,,,,,,,,,,,,,,masks/mask_002.jpg,,,,,,,,,,,,,,,,,,,,,,,,,,,,,,,,,,,,,,,,,,,0,0,0,1,1,,,,,,,,,,,,,,,,,,,,,,,,,,,,,,,,,,,,,,,,,,,,,,
165917,001,2022-11-21_24h07.22.335,Info_measure_main_exp,2022.2.2,MacIntel,59.99520038,,,,,,,,,,,,,,,,,,masks/mask_004.jpg,,,,,,,,,,,,,,,,,,,,,,,,,,,,,,,,,,,,,,,,,,,0,1,1,3,1,,,,,,,,,,,,,,,,,,,,,,,,,,,,,,,,,,,,,,,,,,,,,,
165917,001,2022-11-21_24h07.22.335,Info_measure_main_exp,2022.2.2,MacIntel,59.99520038,,,,,,,,,,,,,,,,,,masks/mask_005.jpg,,,,,,,,,,,,,,,,,,,,,,,,,,,,,,,,,,,,,,,,,,,0,2,2,4,1,,,,,,,,,,,,,,,,,,,,,,,,,,,,,,,,,,,,,,,,,,,,,,
165917,001,2022-11-21_24h07.22.335,Info_measure_main_exp,2022.2.2,MacIntel,59.99520038,,,,,,,,,,,,,,,,,,masks/mask_001.jpg,,,,,,,,,,,,,,,,,,,,,,,,,,,,,,,,,,,,,,,,,,,0,3,3,0,1,,,,,,,,,,,,,,,,,,,,,,,,,,,,,,,,,,,,,,,,,,,,,,
165917,001,2022-11-21_24h07.22.335,Info_measure_main_exp,2022.2.2,MacIntel,59.99520038,,,,,,,,,,,,,,,,,,masks/mask_003.jpg,,,,,,,,,,,,,,,,,,,,,,,,,,,,,,,,,,,,,,,,,,,0,4,4,2,1,,,,,,,,,,,,,,,,,,,,,,,,,,,,,,,,,,,,,,,,,,,,,,
165917,001,2022-11-21_24h07.22.335,Info_measure_main_exp,2022.2.2,MacIntel,59.99520038,,,,,,,,,,,,,,,,,,masks/mask_004.jpg,,,,,,,,,,,,,,,,,,,,,,,,,,,,,,,,,,,,,,,,,,,,,,,,0,0,0,3,1,,,,,,,,,,,,,,,,,,,,,,,,,,,,,,,,,,,,,,,,,
165917,001,2022-11-21_24h07.22.335,Info_measure_main_exp,2022.2.2,MacIntel,59.99520038,,,,,,,,,,,,,,,,,,masks/mask_001.jpg,,,,,,,,,,,,,,,,,,,,,,,,,,,,,,,,,,,,,,,,,,,,,,,,0,1,1,0,1,,,,,,,,,,,,,,,,,,,,,,,,,,,,,,,,,,,,,,,,,
165917,001,2022-11-21_24h07.22.335,Info_measure_main_exp,2022.2.2,MacIntel,59.99520038,,,,,,,,,,,,,,,,,,masks/mask_002.jpg,,,,,,,,,,,,,,,,,,,,,,,,,,,,,,,,,,,,,,,,,,,,,,,,0,2,2,1,1,,,,,,,,,,,,,,,,,,,,,,,,,,,,,,,,,,,,,,,,,
165917,001,2022-11-21_24h07.22.335,Info_measure_main_exp,2022.2.2,MacIntel,59.99520038,,,,,,,,,,,,,,,,,,masks/mask_003.jpg,,,,,,,,,,,,,,,,,,,,,,,,,,,,,,,,,,,,,,,,,,,,,,,,0,3,3,2,1,,,,,,,,,,,,,,,,,,,,,,,,,,,,,,,,,,,,,,,,,
165917,001,2022-11-21_24h07.22.335,Info_measure_main_exp,2022.2.2,MacIntel,59.99520038,,,,,,,,,,,,,,,,,,masks/mask_005.jpg,,,,,,,,,,,,,,,,,,,,,,,,,,,,,,,,,,,,,,,,,,,,,,,,0,4,4,4,1,,,,,,,,,,,,,,,,,,,,,,,,,,,,,,,,,,,,,,,,,
165917,001,2022-11-21_24h07.22.335,Info_measure_main_exp,2022.2.2,MacIntel,59.99520038,,,,,,,,,,,,,,,,,,,,,,,,,,,,,,7,1.1499,1,,,,,,,,,,,,1,131,5,5,1,2178,present_patch/cong_131_5_a.jpg,absent_patch/patch0002178.jpg,,,,,,,,,,,,,,,,,,,,0.020300099,0.053648934,1,0,0,response1disk,16,-0.003822545,-0.002545263,1,0,0,center_square,0,15,15,40,1,,,,,,,,,,,,,,,,,,,,,,,
165917,001,2022-11-21_24h07.22.335,Info_measure_main_exp,2022.2.2,MacIntel,59.99520038,,,,,,,,,,,,,,,,,,masks/mask_002.jpg,,,,,,,,,,,,,,,,,,,,,,,,,,,,,,,,,,,,,,,,,,,0,0,0,1,1,,,,,,,,,,,,,,,,,,,,,,,,,,,,,,,,,,,,,,,,,,,,,,
165917,001,2022-11-21_24h07.22.335,Info_measure_main_exp,2022.2.2,MacIntel,59.99520038,,,,,,,,,,,,,,,,,,masks/mask_004.jpg,,,,,,,,,,,,,,,,,,,,,,,,,,,,,,,,,,,,,,,,,,,0,1,1,3,1,,,,,,,,,,,,,,,,,,,,,,,,,,,,,,,,,,,,,,,,,,,,,,
165917,001,2022-11-21_24h07.22.335,Info_measure_main_exp,2022.2.2,MacIntel,59.99520038,,,,,,,,,,,,,,,,,,masks/mask_001.jpg,,,,,,,,,,,,,,,,,,,,,,,,,,,,,,,,,,,,,,,,,,,0,2,2,0,1,,,,,,,,,,,,,,,,,,,,,,,,,,,,,,,,,,,,,,,,,,,,,,
165917,001,2022-11-21_24h07.22.335,Info_measure_main_exp,2022.2.2,MacIntel,59.99520038,,,,,,,,,,,,,,,,,,masks/mask_005.jpg,,,,,,,,,,,,,,,,,,,,,,,,,,,,,,,,,,,,,,,,,,,0,3,3,4,1,,,,,,,,,,,,,,,,,,,,,,,,,,,,,,,,,,,,,,,,,,,,,,
165917,001,2022-11-21_24h07.22.335,Info_measure_main_exp,2022.2.2,MacIntel,59.99520038,,,,,,,,,,,,,,,,,,masks/mask_003.jpg,,,,,,,,,,,,,,,,,,,,,,,,,,,,,,,,,,,,,,,,,,,0,4,4,2,1,,,,,,,,,,,,,,,,,,,,,,,,,,,,,,,,,,,,,,,,,,,,,,
165917,001,2022-11-21_24h07.22.335,Info_measure_main_exp,2022.2.2,MacIntel,59.99520038,,,,,,,,,,,,,,,,,,masks/mask_003.jpg,,,,,,,,,,,,,,,,,,,,,,,,,,,,,,,,,,,,,,,,,,,,,,,,0,0,0,2,1,,,,,,,,,,,,,,,,,,,,,,,,,,,,,,,,,,,,,,,,,
165917,001,2022-11-21_24h07.22.335,Info_measure_main_exp,2022.2.2,MacIntel,59.99520038,,,,,,,,,,,,,,,,,,masks/mask_005.jpg,,,,,,,,,,,,,,,,,,,,,,,,,,,,,,,,,,,,,,,,,,,,,,,,0,1,1,4,1,,,,,,,,,,,,,,,,,,,,,,,,,,,,,,,,,,,,,,,,,
165917,001,2022-11-21_24h07.22.335,Info_measure_main_exp,2022.2.2,MacIntel,59.99520038,,,,,,,,,,,,,,,,,,masks/mask_004.jpg,,,,,,,,,,,,,,,,,,,,,,,,,,,,,,,,,,,,,,,,,,,,,,,,0,2,2,3,1,,,,,,,,,,,,,,,,,,,,,,,,,,,,,,,,,,,,,,,,,
165917,001,2022-11-21_24h07.22.335,Info_measure_main_exp,2022.2.2,MacIntel,59.99520038,,,,,,,,,,,,,,,,,,masks/mask_002.jpg,,,,,,,,,,,,,,,,,,,,,,,,,,,,,,,,,,,,,,,,,,,,,,,,0,3,3,1,1,,,,,,,,,,,,,,,,,,,,,,,,,,,,,,,,,,,,,,,,,
165917,001,2022-11-21_24h07.22.335,Info_measure_main_exp,2022.2.2,MacIntel,59.99520038,,,,,,,,,,,,,,,,,,masks/mask_001.jpg,,,,,,,,,,,,,,,,,,,,,,,,,,,,,,,,,,,,,,,,,,,,,,,,0,4,4,0,1,,,,,,,,,,,,,,,,,,,,,,,,,,,,,,,,,,,,,,,,,
165917,001,2022-11-21_24h07.22.335,Info_measure_main_exp,2022.2.2,MacIntel,59.99520038,,,,,,,,,,,,,,,,,,,,,,,,,,,,,,6,1.55,1,,,,,,,,,,,,0,131,5,5,1974,2142,absent_patch/patch0001974.jpg,absent_patch/patch0002142.jpg,,,,,,,,,,,,,,,,,,,,0.113833085,0.033869668,1,0,0,response1disk,17,-0.000325521,-0.005493552,1,0,0,center_square,0,16,16,38,1,,,,,,,,,,,,,,,,,,,,,,,
165917,001,2022-11-21_24h07.22.335,Info_measure_main_exp,2022.2.2,MacIntel,59.99520038,,,,,,,,,,,,,,,,,,masks/mask_001.jpg,,,,,,,,,,,,,,,,,,,,,,,,,,,,,,,,,,,,,,,,,,,0,0,0,0,1,,,,,,,,,,,,,,,,,,,,,,,,,,,,,,,,,,,,,,,,,,,,,,
165917,001,2022-11-21_24h07.22.335,Info_measure_main_exp,2022.2.2,MacIntel,59.99520038,,,,,,,,,,,,,,,,,,masks/mask_004.jpg,,,,,,,,,,,,,,,,,,,,,,,,,,,,,,,,,,,,,,,,,,,0,1,1,3,1,,,,,,,,,,,,,,,,,,,,,,,,,,,,,,,,,,,,,,,,,,,,,,
165917,001,2022-11-21_24h07.22.335,Info_measure_main_exp,2022.2.2,MacIntel,59.99520038,,,,,,,,,,,,,,,,,,masks/mask_005.jpg,,,,,,,,,,,,,,,,,,,,,,,,,,,,,,,,,,,,,,,,,,,0,2,2,4,1,,,,,,,,,,,,,,,,,,,,,,,,,,,,,,,,,,,,,,,,,,,,,,
165917,001,2022-11-21_24h07.22.335,Info_measure_main_exp,2022.2.2,MacIntel,59.99520038,,,,,,,,,,,,,,,,,,masks/mask_003.jpg,,,,,,,,,,,,,,,,,,,,,,,,,,,,,,,,,,,,,,,,,,,0,3,3,2,1,,,,,,,,,,,,,,,,,,,,,,,,,,,,,,,,,,,,,,,,,,,,,,
165917,001,2022-11-21_24h07.22.335,Info_measure_main_exp,2022.2.2,MacIntel,59.99520038,,,,,,,,,,,,,,,,,,masks/mask_002.jpg,,,,,,,,,,,,,,,,,,,,,,,,,,,,,,,,,,,,,,,,,,,0,4,4,1,1,,,,,,,,,,,,,,,,,,,,,,,,,,,,,,,,,,,,,,,,,,,,,,
165917,001,2022-11-21_24h07.22.335,Info_measure_main_exp,2022.2.2,MacIntel,59.99520038,,,,,,,,,,,,,,,,,,masks/mask_005.jpg,,,,,,,,,,,,,,,,,,,,,,,,,,,,,,,,,,,,,,,,,,,,,,,,0,0,0,4,1,,,,,,,,,,,,,,,,,,,,,,,,,,,,,,,,,,,,,,,,,
165917,001,2022-11-21_24h07.22.335,Info_measure_main_exp,2022.2.2,MacIntel,59.99520038,,,,,,,,,,,,,,,,,,masks/mask_004.jpg,,,,,,,,,,,,,,,,,,,,,,,,,,,,,,,,,,,,,,,,,,,,,,,,0,1,1,3,1,,,,,,,,,,,,,,,,,,,,,,,,,,,,,,,,,,,,,,,,,
165917,001,2022-11-21_24h07.22.335,Info_measure_main_exp,2022.2.2,MacIntel,59.99520038,,,,,,,,,,,,,,,,,,masks/mask_002.jpg,,,,,,,,,,,,,,,,,,,,,,,,,,,,,,,,,,,,,,,,,,,,,,,,0,2,2,1,1,,,,,,,,,,,,,,,,,,,,,,,,,,,,,,,,,,,,,,,,,
165917,001,2022-11-21_24h07.22.335,Info_measure_main_exp,2022.2.2,MacIntel,59.99520038,,,,,,,,,,,,,,,,,,masks/mask_001.jpg,,,,,,,,,,,,,,,,,,,,,,,,,,,,,,,,,,,,,,,,,,,,,,,,0,3,3,0,1,,,,,,,,,,,,,,,,,,,,,,,,,,,,,,,,,,,,,,,,,
165917,001,2022-11-21_24h07.22.335,Info_measure_main_exp,2022.2.2,MacIntel,59.99520038,,,,,,,,,,,,,,,,,,masks/mask_003.jpg,,,,,,,,,,,,,,,,,,,,,,,,,,,,,,,,,,,,,,,,,,,,,,,,0,4,4,2,1,,,,,,,,,,,,,,,,,,,,,,,,,,,,,,,,,,,,,,,,,
165917,001,2022-11-21_24h07.22.335,Info_measure_main_exp,2022.2.2,MacIntel,59.99520038,,,,,,,,,,,,,,,,,,,,,,,,,,,,,,0,0.6671,1,,,,,,,,,,,,0,131,5,5,2214,2214,absent_patch/patch0002214.jpg,absent_patch/patch0002214.jpg,,,,,,,,,,,,,,,,,,,,-0.038240947,0.115367684,1,0,0,response7disk,18,0.001373388,-0.001850818,1,0,0,center_square,0,17,17,115,1,,,,,,,,,,,,,,,,,,,,,,,
165917,001,2022-11-21_24h07.22.335,Info_measure_main_exp,2022.2.2,MacIntel,59.99520038,,,,,,,,,,,,,,,,,,masks/mask_004.jpg,,,,,,,,,,,,,,,,,,,,,,,,,,,,,,,,,,,,,,,,,,,0,0,0,3,1,,,,,,,,,,,,,,,,,,,,,,,,,,,,,,,,,,,,,,,,,,,,,,
165917,001,2022-11-21_24h07.22.335,Info_measure_main_exp,2022.2.2,MacIntel,59.99520038,,,,,,,,,,,,,,,,,,masks/mask_001.jpg,,,,,,,,,,,,,,,,,,,,,,,,,,,,,,,,,,,,,,,,,,,0,1,1,0,1,,,,,,,,,,,,,,,,,,,,,,,,,,,,,,,,,,,,,,,,,,,,,,
165917,001,2022-11-21_24h07.22.335,Info_measure_main_exp,2022.2.2,MacIntel,59.99520038,,,,,,,,,,,,,,,,,,masks/mask_003.jpg,,,,,,,,,,,,,,,,,,,,,,,,,,,,,,,,,,,,,,,,,,,0,2,2,2,1,,,,,,,,,,,,,,,,,,,,,,,,,,,,,,,,,,,,,,,,,,,,,,
165917,001,2022-11-21_24h07.22.335,Info_measure_main_exp,2022.2.2,MacIntel,59.99520038,,,,,,,,,,,,,,,,,,masks/mask_002.jpg,,,,,,,,,,,,,,,,,,,,,,,,,,,,,,,,,,,,,,,,,,,0,3,3,1,1,,,,,,,,,,,,,,,,,,,,,,,,,,,,,,,,,,,,,,,,,,,,,,
165917,001,2022-11-21_24h07.22.335,Info_measure_main_exp,2022.2.2,MacIntel,59.99520038,,,,,,,,,,,,,,,,,,masks/mask_005.jpg,,,,,,,,,,,,,,,,,,,,,,,,,,,,,,,,,,,,,,,,,,,0,4,4,4,1,,,,,,,,,,,,,,,,,,,,,,,,,,,,,,,,,,,,,,,,,,,,,,
165917,001,2022-11-21_24h07.22.335,Info_measure_main_exp,2022.2.2,MacIntel,59.99520038,,,,,,,,,,,,,,,,,,masks/mask_004.jpg,,,,,,,,,,,,,,,,,,,,,,,,,,,,,,,,,,,,,,,,,,,,,,,,0,0,0,3,1,,,,,,,,,,,,,,,,,,,,,,,,,,,,,,,,,,,,,,,,,
165917,001,2022-11-21_24h07.22.335,Info_measure_main_exp,2022.2.2,MacIntel,59.99520038,,,,,,,,,,,,,,,,,,masks/mask_001.jpg,,,,,,,,,,,,,,,,,,,,,,,,,,,,,,,,,,,,,,,,,,,,,,,,0,1,1,0,1,,,,,,,,,,,,,,,,,,,,,,,,,,,,,,,,,,,,,,,,,
165917,001,2022-11-21_24h07.22.335,Info_measure_main_exp,2022.2.2,MacIntel,59.99520038,,,,,,,,,,,,,,,,,,masks/mask_005.jpg,,,,,,,,,,,,,,,,,,,,,,,,,,,,,,,,,,,,,,,,,,,,,,,,0,2,2,4,1,,,,,,,,,,,,,,,,,,,,,,,,,,,,,,,,,,,,,,,,,
165917,001,2022-11-21_24h07.22.335,Info_measure_main_exp,2022.2.2,MacIntel,59.99520038,,,,,,,,,,,,,,,,,,masks/mask_002.jpg,,,,,,,,,,,,,,,,,,,,,,,,,,,,,,,,,,,,,,,,,,,,,,,,0,3,3,1,1,,,,,,,,,,,,,,,,,,,,,,,,,,,,,,,,,,,,,,,,,
165917,001,2022-11-21_24h07.22.335,Info_measure_main_exp,2022.2.2,MacIntel,59.99520038,,,,,,,,,,,,,,,,,,masks/mask_003.jpg,,,,,,,,,,,,,,,,,,,,,,,,,,,,,,,,,,,,,,,,,,,,,,,,0,4,4,2,1,,,,,,,,,,,,,,,,,,,,,,,,,,,,,,,,,,,,,,,,,
165917,001,2022-11-21_24h07.22.335,Info_measure_main_exp,2022.2.2,MacIntel,59.99520038,,,,,,,,,,,,,,,,,,,,,,,,,,,,,,7,2.0161,1,,,,,,,,,,,,1,131,5,5,1,2166,present_patch/cong_131_5_a.jpg,absent_patch/patch0002166.jpg,,,,,,,,,,,,,,,,,,,,0.039812748,0.094506448,1,0,0,response1disk,19,-0.000682044,-0.003385417,1,0,0,center_square,0,18,18,54,1,,,,,,,,,,,,,,,,,,,,,,,
165917,001,2022-11-21_24h07.22.335,Info_measure_main_exp,2022.2.2,MacIntel,59.99520038,,,,,,,,,,,,,,,,,,masks/mask_004.jpg,,,,,,,,,,,,,,,,,,,,,,,,,,,,,,,,,,,,,,,,,,,0,0,0,3,1,,,,,,,,,,,,,,,,,,,,,,,,,,,,,,,,,,,,,,,,,,,,,,
165917,001,2022-11-21_24h07.22.335,Info_measure_main_exp,2022.2.2,MacIntel,59.99520038,,,,,,,,,,,,,,,,,,masks/mask_005.jpg,,,,,,,,,,,,,,,,,,,,,,,,,,,,,,,,,,,,,,,,,,,0,1,1,4,1,,,,,,,,,,,,,,,,,,,,,,,,,,,,,,,,,,,,,,,,,,,,,,
165917,001,2022-11-21_24h07.22.335,Info_measure_main_exp,2022.2.2,MacIntel,59.99520038,,,,,,,,,,,,,,,,,,masks/mask_001.jpg,,,,,,,,,,,,,,,,,,,,,,,,,,,,,,,,,,,,,,,,,,,0,2,2,0,1,,,,,,,,,,,,,,,,,,,,,,,,,,,,,,,,,,,,,,,,,,,,,,
165917,001,2022-11-21_24h07.22.335,Info_measure_main_exp,2022.2.2,MacIntel,59.99520038,,,,,,,,,,,,,,,,,,masks/mask_002.jpg,,,,,,,,,,,,,,,,,,,,,,,,,,,,,,,,,,,,,,,,,,,0,3,3,1,1,,,,,,,,,,,,,,,,,,,,,,,,,,,,,,,,,,,,,,,,,,,,,,
165917,001,2022-11-21_24h07.22.335,Info_measure_main_exp,2022.2.2,MacIntel,59.99520038,,,,,,,,,,,,,,,,,,masks/mask_003.jpg,,,,,,,,,,,,,,,,,,,,,,,,,,,,,,,,,,,,,,,,,,,0,4,4,2,1,,,,,,,,,,,,,,,,,,,,,,,,,,,,,,,,,,,,,,,,,,,,,,
165917,001,2022-11-21_24h07.22.335,Info_measure_main_exp,2022.2.2,MacIntel,59.99520038,,,,,,,,,,,,,,,,,,masks/mask_001.jpg,,,,,,,,,,,,,,,,,,,,,,,,,,,,,,,,,,,,,,,,,,,,,,,,0,0,0,0,1,,,,,,,,,,,,,,,,,,,,,,,,,,,,,,,,,,,,,,,,,
165917,001,2022-11-21_24h07.22.335,Info_measure_main_exp,2022.2.2,MacIntel,59.99520038,,,,,,,,,,,,,,,,,,masks/mask_005.jpg,,,,,,,,,,,,,,,,,,,,,,,,,,,,,,,,,,,,,,,,,,,,,,,,0,1,1,4,1,,,,,,,,,,,,,,,,,,,,,,,,,,,,,,,,,,,,,,,,,
165917,001,2022-11-21_24h07.22.335,Info_measure_main_exp,2022.2.2,MacIntel,59.99520038,,,,,,,,,,,,,,,,,,masks/mask_003.jpg,,,,,,,,,,,,,,,,,,,,,,,,,,,,,,,,,,,,,,,,,,,,,,,,0,2,2,2,1,,,,,,,,,,,,,,,,,,,,,,,,,,,,,,,,,,,,,,,,,
165917,001,2022-11-21_24h07.22.335,Info_measure_main_exp,2022.2.2,MacIntel,59.99520038,,,,,,,,,,,,,,,,,,masks/mask_004.jpg,,,,,,,,,,,,,,,,,,,,,,,,,,,,,,,,,,,,,,,,,,,,,,,,0,3,3,3,1,,,,,,,,,,,,,,,,,,,,,,,,,,,,,,,,,,,,,,,,,
165917,001,2022-11-21_24h07.22.335,Info_measure_main_exp,2022.2.2,MacIntel,59.99520038,,,,,,,,,,,,,,,,,,masks/mask_002.jpg,,,,,,,,,,,,,,,,,,,,,,,,,,,,,,,,,,,,,,,,,,,,,,,,0,4,4,1,1,,,,,,,,,,,,,,,,,,,,,,,,,,,,,,,,,,,,,,,,,
165917,001,2022-11-21_24h07.22.335,Info_measure_main_exp,2022.2.2,MacIntel,59.99520038,,,,,,,,,,,,,,,,,,,,,,,,,,,,,,6,1.6165,1,,,,,,,,,,,,0,131,5,5,2274,2166,absent_patch/patch0002274.jpg,absent_patch/patch0002166.jpg,,,,,,,,,,,,,,,,,,,,0.048967634,0.021320064,1,0,0,response1disk,20,-0.006370908,-0.005456349,1,0,0,center_square,0,19,19,78,1,,,,,,,,,,,,,,,,,,,,,,,
165917,001,2022-11-21_24h07.22.335,Info_measure_main_exp,2022.2.2,MacIntel,59.99520038,,,,,,,,,,,,,,,,,,masks/mask_002.jpg,,,,,,,,,,,,,,,,,,,,,,,,,,,,,,,,,,,,,,,,,,,0,0,0,1,1,,,,,,,,,,,,,,,,,,,,,,,,,,,,,,,,,,,,,,,,,,,,,,
165917,001,2022-11-21_24h07.22.335,Info_measure_main_exp,2022.2.2,MacIntel,59.99520038,,,,,,,,,,,,,,,,,,masks/mask_001.jpg,,,,,,,,,,,,,,,,,,,,,,,,,,,,,,,,,,,,,,,,,,,0,1,1,0,1,,,,,,,,,,,,,,,,,,,,,,,,,,,,,,,,,,,,,,,,,,,,,,
165917,001,2022-11-21_24h07.22.335,Info_measure_main_exp,2022.2.2,MacIntel,59.99520038,,,,,,,,,,,,,,,,,,masks/mask_003.jpg,,,,,,,,,,,,,,,,,,,,,,,,,,,,,,,,,,,,,,,,,,,0,2,2,2,1,,,,,,,,,,,,,,,,,,,,,,,,,,,,,,,,,,,,,,,,,,,,,,
165917,001,2022-11-21_24h07.22.335,Info_measure_main_exp,2022.2.2,MacIntel,59.99520038,,,,,,,,,,,,,,,,,,masks/mask_005.jpg,,,,,,,,,,,,,,,,,,,,,,,,,,,,,,,,,,,,,,,,,,,0,3,3,4,1,,,,,,,,,,,,,,,,,,,,,,,,,,,,,,,,,,,,,,,,,,,,,,
165917,001,2022-11-21_24h07.22.335,Info_measure_main_exp,2022.2.2,MacIntel,59.99520038,,,,,,,,,,,,,,,,,,masks/mask_004.jpg,,,,,,,,,,,,,,,,,,,,,,,,,,,,,,,,,,,,,,,,,,,0,4,4,3,1,,,,,,,,,,,,,,,,,,,,,,,,,,,,,,,,,,,,,,,,,,,,,,
165917,001,2022-11-21_24h07.22.335,Info_measure_main_exp,2022.2.2,MacIntel,59.99520038,,,,,,,,,,,,,,,,,,masks/mask_004.jpg,,,,,,,,,,,,,,,,,,,,,,,,,,,,,,,,,,,,,,,,,,,,,,,,0,0,0,3,1,,,,,,,,,,,,,,,,,,,,,,,,,,,,,,,,,,,,,,,,,
165917,001,2022-11-21_24h07.22.335,Info_measure_main_exp,2022.2.2,MacIntel,59.99520038,,,,,,,,,,,,,,,,,,masks/mask_003.jpg,,,,,,,,,,,,,,,,,,,,,,,,,,,,,,,,,,,,,,,,,,,,,,,,0,1,1,2,1,,,,,,,,,,,,,,,,,,,,,,,,,,,,,,,,,,,,,,,,,
165917,001,2022-11-21_24h07.22.335,Info_measure_main_exp,2022.2.2,MacIntel,59.99520038,,,,,,,,,,,,,,,,,,masks/mask_005.jpg,,,,,,,,,,,,,,,,,,,,,,,,,,,,,,,,,,,,,,,,,,,,,,,,0,2,2,4,1,,,,,,,,,,,,,,,,,,,,,,,,,,,,,,,,,,,,,,,,,
165917,001,2022-11-21_24h07.22.335,Info_measure_main_exp,2022.2.2,MacIntel,59.99520038,,,,,,,,,,,,,,,,,,masks/mask_001.jpg,,,,,,,,,,,,,,,,,,,,,,,,,,,,,,,,,,,,,,,,,,,,,,,,0,3,3,0,1,,,,,,,,,,,,,,,,,,,,,,,,,,,,,,,,,,,,,,,,,
165917,001,2022-11-21_24h07.22.335,Info_measure_main_exp,2022.2.2,MacIntel,59.99520038,,,,,,,,,,,,,,,,,,masks/mask_002.jpg,,,,,,,,,,,,,,,,,,,,,,,,,,,,,,,,,,,,,,,,,,,,,,,,0,4,4,1,1,,,,,,,,,,,,,,,,,,,,,,,,,,,,,,,,,,,,,,,,,
165917,001,2022-11-21_24h07.22.335,Info_measure_main_exp,2022.2.2,MacIntel,59.99520038,,,,,,,,,,,,,,,,,,,,,,,,,,,,,,0,0.5317,1,,,,,,,,,,,,0,131,5,5,2166,2166,absent_patch/patch0002166.jpg,absent_patch/patch0002166.jpg,,,,,,,,,,,,,,,,,,,,-0.033503844,0.068191964,1,0,0,response7disk,21,-0.005217634,-0.004433284,1,0,0,center_square,0,20,20,42,1,,,,,,,,,,,,,,,,,,,,,,,
165917,001,2022-11-21_24h07.22.335,Info_measure_main_exp,2022.2.2,MacIntel,59.99520038,,,,,,,,,,,,,,,,,,masks/mask_004.jpg,,,,,,,,,,,,,,,,,,,,,,,,,,,,,,,,,,,,,,,,,,,0,0,0,3,1,,,,,,,,,,,,,,,,,,,,,,,,,,,,,,,,,,,,,,,,,,,,,,
165917,001,2022-11-21_24h07.22.335,Info_measure_main_exp,2022.2.2,MacIntel,59.99520038,,,,,,,,,,,,,,,,,,masks/mask_001.jpg,,,,,,,,,,,,,,,,,,,,,,,,,,,,,,,,,,,,,,,,,,,0,1,1,0,1,,,,,,,,,,,,,,,,,,,,,,,,,,,,,,,,,,,,,,,,,,,,,,
165917,001,2022-11-21_24h07.22.335,Info_measure_main_exp,2022.2.2,MacIntel,59.99520038,,,,,,,,,,,,,,,,,,masks/mask_005.jpg,,,,,,,,,,,,,,,,,,,,,,,,,,,,,,,,,,,,,,,,,,,0,2,2,4,1,,,,,,,,,,,,,,,,,,,,,,,,,,,,,,,,,,,,,,,,,,,,,,
165917,001,2022-11-21_24h07.22.335,Info_measure_main_exp,2022.2.2,MacIntel,59.99520038,,,,,,,,,,,,,,,,,,masks/mask_003.jpg,,,,,,,,,,,,,,,,,,,,,,,,,,,,,,,,,,,,,,,,,,,0,3,3,2,1,,,,,,,,,,,,,,,,,,,,,,,,,,,,,,,,,,,,,,,,,,,,,,
165917,001,2022-11-21_24h07.22.335,Info_measure_main_exp,2022.2.2,MacIntel,59.99520038,,,,,,,,,,,,,,,,,,masks/mask_002.jpg,,,,,,,,,,,,,,,,,,,,,,,,,,,,,,,,,,,,,,,,,,,0,4,4,1,1,,,,,,,,,,,,,,,,,,,,,,,,,,,,,,,,,,,,,,,,,,,,,,
165917,001,2022-11-21_24h07.22.335,Info_measure_main_exp,2022.2.2,MacIntel,59.99520038,,,,,,,,,,,,,,,,,,masks/mask_004.jpg,,,,,,,,,,,,,,,,,,,,,,,,,,,,,,,,,,,,,,,,,,,,,,,,0,0,0,3,1,,,,,,,,,,,,,,,,,,,,,,,,,,,,,,,,,,,,,,,,,
165917,001,2022-11-21_24h07.22.335,Info_measure_main_exp,2022.2.2,MacIntel,59.99520038,,,,,,,,,,,,,,,,,,masks/mask_002.jpg,,,,,,,,,,,,,,,,,,,,,,,,,,,,,,,,,,,,,,,,,,,,,,,,0,1,1,1,1,,,,,,,,,,,,,,,,,,,,,,,,,,,,,,,,,,,,,,,,,
165917,001,2022-11-21_24h07.22.335,Info_measure_main_exp,2022.2.2,MacIntel,59.99520038,,,,,,,,,,,,,,,,,,masks/mask_005.jpg,,,,,,,,,,,,,,,,,,,,,,,,,,,,,,,,,,,,,,,,,,,,,,,,0,2,2,4,1,,,,,,,,,,,,,,,,,,,,,,,,,,,,,,,,,,,,,,,,,
165917,001,2022-11-21_24h07.22.335,Info_measure_main_exp,2022.2.2,MacIntel,59.99520038,,,,,,,,,,,,,,,,,,masks/mask_001.jpg,,,,,,,,,,,,,,,,,,,,,,,,,,,,,,,,,,,,,,,,,,,,,,,,0,3,3,0,1,,,,,,,,,,,,,,,,,,,,,,,,,,,,,,,,,,,,,,,,,
165917,001,2022-11-21_24h07.22.335,Info_measure_main_exp,2022.2.2,MacIntel,59.99520038,,,,,,,,,,,,,,,,,,masks/mask_003.jpg,,,,,,,,,,,,,,,,,,,,,,,,,,,,,,,,,,,,,,,,,,,,,,,,0,4,4,2,1,,,,,,,,,,,,,,,,,,,,,,,,,,,,,,,,,,,,,,,,,
165917,001,2022-11-21_24h07.22.335,Info_measure_main_exp,2022.2.2,MacIntel,59.99520038,,,,,,,,,,,,,,,,,,,,,,,,,,,,,,6,2.1674,1,,,,,,,,,,,,0,131,5,5,2274,2250,absent_patch/patch0002274.jpg,absent_patch/patch0002250.jpg,,,,,,,,,,,,,,,,,,,,0.118678695,0.040268477,1,0,0,response1disk,22,-0.004730903,0.000654142,1,0,0,center_square,0,21,21,28,1,,,,,,,,,,,,,,,,,,,,,,,
165917,001,2022-11-21_24h07.22.335,Info_measure_main_exp,2022.2.2,MacIntel,59.99520038,,,,,,,,,,,,,,,,,,masks/mask_005.jpg,,,,,,,,,,,,,,,,,,,,,,,,,,,,,,,,,,,,,,,,,,,0,0,0,4,1,,,,,,,,,,,,,,,,,,,,,,,,,,,,,,,,,,,,,,,,,,,,,,
165917,001,2022-11-21_24h07.22.335,Info_measure_main_exp,2022.2.2,MacIntel,59.99520038,,,,,,,,,,,,,,,,,,masks/mask_003.jpg,,,,,,,,,,,,,,,,,,,,,,,,,,,,,,,,,,,,,,,,,,,0,1,1,2,1,,,,,,,,,,,,,,,,,,,,,,,,,,,,,,,,,,,,,,,,,,,,,,
165917,001,2022-11-21_24h07.22.335,Info_measure_main_exp,2022.2.2,MacIntel,59.99520038,,,,,,,,,,,,,,,,,,masks/mask_004.jpg,,,,,,,,,,,,,,,,,,,,,,,,,,,,,,,,,,,,,,,,,,,0,2,2,3,1,,,,,,,,,,,,,,,,,,,,,,,,,,,,,,,,,,,,,,,,,,,,,,
165917,001,2022-11-21_24h07.22.335,Info_measure_main_exp,2022.2.2,MacIntel,59.99520038,,,,,,,,,,,,,,,,,,masks/mask_001.jpg,,,,,,,,,,,,,,,,,,,,,,,,,,,,,,,,,,,,,,,,,,,0,3,3,0,1,,,,,,,,,,,,,,,,,,,,,,,,,,,,,,,,,,,,,,,,,,,,,,
165917,001,2022-11-21_24h07.22.335,Info_measure_main_exp,2022.2.2,MacIntel,59.99520038,,,,,,,,,,,,,,,,,,masks/mask_002.jpg,,,,,,,,,,,,,,,,,,,,,,,,,,,,,,,,,,,,,,,,,,,0,4,4,1,1,,,,,,,,,,,,,,,,,,,,,,,,,,,,,,,,,,,,,,,,,,,,,,
165917,001,2022-11-21_24h07.22.335,Info_measure_main_exp,2022.2.2,MacIntel,59.99520038,,,,,,,,,,,,,,,,,,masks/mask_005.jpg,,,,,,,,,,,,,,,,,,,,,,,,,,,,,,,,,,,,,,,,,,,,,,,,0,0,0,4,1,,,,,,,,,,,,,,,,,,,,,,,,,,,,,,,,,,,,,,,,,
165917,001,2022-11-21_24h07.22.335,Info_measure_main_exp,2022.2.2,MacIntel,59.99520038,,,,,,,,,,,,,,,,,,masks/mask_002.jpg,,,,,,,,,,,,,,,,,,,,,,,,,,,,,,,,,,,,,,,,,,,,,,,,0,1,1,1,1,,,,,,,,,,,,,,,,,,,,,,,,,,,,,,,,,,,,,,,,,
165917,001,2022-11-21_24h07.22.335,Info_measure_main_exp,2022.2.2,MacIntel,59.99520038,,,,,,,,,,,,,,,,,,masks/mask_003.jpg,,,,,,,,,,,,,,,,,,,,,,,,,,,,,,,,,,,,,,,,,,,,,,,,0,2,2,2,1,,,,,,,,,,,,,,,,,,,,,,,,,,,,,,,,,,,,,,,,,
165917,001,2022-11-21_24h07.22.335,Info_measure_main_exp,2022.2.2,MacIntel,59.99520038,,,,,,,,,,,,,,,,,,masks/mask_004.jpg,,,,,,,,,,,,,,,,,,,,,,,,,,,,,,,,,,,,,,,,,,,,,,,,0,3,3,3,1,,,,,,,,,,,,,,,,,,,,,,,,,,,,,,,,,,,,,,,,,
165917,001,2022-11-21_24h07.22.335,Info_measure_main_exp,2022.2.2,MacIntel,59.99520038,,,,,,,,,,,,,,,,,,masks/mask_001.jpg,,,,,,,,,,,,,,,,,,,,,,,,,,,,,,,,,,,,,,,,,,,,,,,,0,4,4,0,1,,,,,,,,,,,,,,,,,,,,,,,,,,,,,,,,,,,,,,,,,
165917,001,2022-11-21_24h07.22.335,Info_measure_main_exp,2022.2.2,MacIntel,59.99520038,,,,,,,,,,,,,,,,,,,,,,,,,,,,,,7,0.7674,1,,,,,,,,,,,,0,131,5,5,2298,2178,absent_patch/patch0002298.jpg,absent_patch/patch0002178.jpg,,,,,,,,,,,,,,,,,,,,0.032734995,0.089967758,1,0,0,response1disk,23,-0.003354415,0.002452257,1,0,0,center_square,0,22,22,84,1,,,,,,,,,,,,,,,,,,,,,,,
165917,001,2022-11-21_24h07.22.335,Info_measure_main_exp,2022.2.2,MacIntel,59.99520038,,,,,,,,,,,,,,,,,,masks/mask_003.jpg,,,,,,,,,,,,,,,,,,,,,,,,,,,,,,,,,,,,,,,,,,,0,0,0,2,1,,,,,,,,,,,,,,,,,,,,,,,,,,,,,,,,,,,,,,,,,,,,,,
165917,001,2022-11-21_24h07.22.335,Info_measure_main_exp,2022.2.2,MacIntel,59.99520038,,,,,,,,,,,,,,,,,,masks/mask_002.jpg,,,,,,,,,,,,,,,,,,,,,,,,,,,,,,,,,,,,,,,,,,,0,1,1,1,1,,,,,,,,,,,,,,,,,,,,,,,,,,,,,,,,,,,,,,,,,,,,,,
165917,001,2022-11-21_24h07.22.335,Info_measure_main_exp,2022.2.2,MacIntel,59.99520038,,,,,,,,,,,,,,,,,,masks/mask_004.jpg,,,,,,,,,,,,,,,,,,,,,,,,,,,,,,,,,,,,,,,,,,,0,2,2,3,1,,,,,,,,,,,,,,,,,,,,,,,,,,,,,,,,,,,,,,,,,,,,,,
165917,001,2022-11-21_24h07.22.335,Info_measure_main_exp,2022.2.2,MacIntel,59.99520038,,,,,,,,,,,,,,,,,,masks/mask_001.jpg,,,,,,,,,,,,,,,,,,,,,,,,,,,,,,,,,,,,,,,,,,,0,3,3,0,1,,,,,,,,,,,,,,,,,,,,,,,,,,,,,,,,,,,,,,,,,,,,,,
165917,001,2022-11-21_24h07.22.335,Info_measure_main_exp,2022.2.2,MacIntel,59.99520038,,,,,,,,,,,,,,,,,,masks/mask_005.jpg,,,,,,,,,,,,,,,,,,,,,,,,,,,,,,,,,,,,,,,,,,,0,4,4,4,1,,,,,,,,,,,,,,,,,,,,,,,,,,,,,,,,,,,,,,,,,,,,,,
165917,001,2022-11-21_24h07.22.335,Info_measure_main_exp,2022.2.2,MacIntel,59.99520038,,,,,,,,,,,,,,,,,,masks/mask_005.jpg,,,,,,,,,,,,,,,,,,,,,,,,,,,,,,,,,,,,,,,,,,,,,,,,0,0,0,4,1,,,,,,,,,,,,,,,,,,,,,,,,,,,,,,,,,,,,,,,,,
165917,001,2022-11-21_24h07.22.335,Info_measure_main_exp,2022.2.2,MacIntel,59.99520038,,,,,,,,,,,,,,,,,,masks/mask_004.jpg,,,,,,,,,,,,,,,,,,,,,,,,,,,,,,,,,,,,,,,,,,,,,,,,0,1,1,3,1,,,,,,,,,,,,,,,,,,,,,,,,,,,,,,,,,,,,,,,,,
165917,001,2022-11-21_24h07.22.335,Info_measure_main_exp,2022.2.2,MacIntel,59.99520038,,,,,,,,,,,,,,,,,,masks/mask_003.jpg,,,,,,,,,,,,,,,,,,,,,,,,,,,,,,,,,,,,,,,,,,,,,,,,0,2,2,2,1,,,,,,,,,,,,,,,,,,,,,,,,,,,,,,,,,,,,,,,,,
165917,001,2022-11-21_24h07.22.335,Info_measure_main_exp,2022.2.2,MacIntel,59.99520038,,,,,,,,,,,,,,,,,,masks/mask_002.jpg,,,,,,,,,,,,,,,,,,,,,,,,,,,,,,,,,,,,,,,,,,,,,,,,0,3,3,1,1,,,,,,,,,,,,,,,,,,,,,,,,,,,,,,,,,,,,,,,,,
165917,001,2022-11-21_24h07.22.335,Info_measure_main_exp,2022.2.2,MacIntel,59.99520038,,,,,,,,,,,,,,,,,,masks/mask_001.jpg,,,,,,,,,,,,,,,,,,,,,,,,,,,,,,,,,,,,,,,,,,,,,,,,0,4,4,0,1,,,,,,,,,,,,,,,,,,,,,,,,,,,,,,,,,,,,,,,,,
165917,001,2022-11-21_24h07.22.335,Info_measure_main_exp,2022.2.2,MacIntel,59.99520038,,,,,,,,,,,,,,,,,,,,,,,,,,,,,,5,1.8681,1,,,,,,,,,,,,0,131,5,5,2154,2238,absent_patch/patch0002154.jpg,absent_patch/patch0002238.jpg,,,,,,,,,,,,,,,,,,,,0.122470238,-0.085261657,1,0,0,response3disk,24,0.006808036,0.00890377,1,0,0,center_square,0,23,23,21,1,,,,,,,,,,,,,,,,,,,,,,,
165917,001,2022-11-21_24h07.22.335,Info_measure_main_exp,2022.2.2,MacIntel,59.99520038,,,,,,,,,,,,,,,,,,masks/mask_004.jpg,,,,,,,,,,,,,,,,,,,,,,,,,,,,,,,,,,,,,,,,,,,0,0,0,3,1,,,,,,,,,,,,,,,,,,,,,,,,,,,,,,,,,,,,,,,,,,,,,,
165917,001,2022-11-21_24h07.22.335,Info_measure_main_exp,2022.2.2,MacIntel,59.99520038,,,,,,,,,,,,,,,,,,masks/mask_005.jpg,,,,,,,,,,,,,,,,,,,,,,,,,,,,,,,,,,,,,,,,,,,0,1,1,4,1,,,,,,,,,,,,,,,,,,,,,,,,,,,,,,,,,,,,,,,,,,,,,,
165917,001,2022-11-21_24h07.22.335,Info_measure_main_exp,2022.2.2,MacIntel,59.99520038,,,,,,,,,,,,,,,,,,masks/mask_001.jpg,,,,,,,,,,,,,,,,,,,,,,,,,,,,,,,,,,,,,,,,,,,0,2,2,0,1,,,,,,,,,,,,,,,,,,,,,,,,,,,,,,,,,,,,,,,,,,,,,,
165917,001,2022-11-21_24h07.22.335,Info_measure_main_exp,2022.2.2,MacIntel,59.99520038,,,,,,,,,,,,,,,,,,masks/mask_003.jpg,,,,,,,,,,,,,,,,,,,,,,,,,,,,,,,,,,,,,,,,,,,0,3,3,2,1,,,,,,,,,,,,,,,,,,,,,,,,,,,,,,,,,,,,,,,,,,,,,,
165917,001,2022-11-21_24h07.22.335,Info_measure_main_exp,2022.2.2,MacIntel,59.99520038,,,,,,,,,,,,,,,,,,masks/mask_002.jpg,,,,,,,,,,,,,,,,,,,,,,,,,,,,,,,,,,,,,,,,,,,0,4,4,1,1,,,,,,,,,,,,,,,,,,,,,,,,,,,,,,,,,,,,,,,,,,,,,,
165917,001,2022-11-21_24h07.22.335,Info_measure_main_exp,2022.2.2,MacIntel,59.99520038,,,,,,,,,,,,,,,,,,masks/mask_001.jpg,,,,,,,,,,,,,,,,,,,,,,,,,,,,,,,,,,,,,,,,,,,,,,,,0,0,0,0,1,,,,,,,,,,,,,,,,,,,,,,,,,,,,,,,,,,,,,,,,,
165917,001,2022-11-21_24h07.22.335,Info_measure_main_exp,2022.2.2,MacIntel,59.99520038,,,,,,,,,,,,,,,,,,masks/mask_003.jpg,,,,,,,,,,,,,,,,,,,,,,,,,,,,,,,,,,,,,,,,,,,,,,,,0,1,1,2,1,,,,,,,,,,,,,,,,,,,,,,,,,,,,,,,,,,,,,,,,,
165917,001,2022-11-21_24h07.22.335,Info_measure_main_exp,2022.2.2,MacIntel,59.99520038,,,,,,,,,,,,,,,,,,masks/mask_002.jpg,,,,,,,,,,,,,,,,,,,,,,,,,,,,,,,,,,,,,,,,,,,,,,,,0,2,2,1,1,,,,,,,,,,,,,,,,,,,,,,,,,,,,,,,,,,,,,,,,,
165917,001,2022-11-21_24h07.22.335,Info_measure_main_exp,2022.2.2,MacIntel,59.99520038,,,,,,,,,,,,,,,,,,masks/mask_004.jpg,,,,,,,,,,,,,,,,,,,,,,,,,,,,,,,,,,,,,,,,,,,,,,,,0,3,3,3,1,,,,,,,,,,,,,,,,,,,,,,,,,,,,,,,,,,,,,,,,,
165917,001,2022-11-21_24h07.22.335,Info_measure_main_exp,2022.2.2,MacIntel,59.99520038,,,,,,,,,,,,,,,,,,masks/mask_005.jpg,,,,,,,,,,,,,,,,,,,,,,,,,,,,,,,,,,,,,,,,,,,,,,,,0,4,4,4,1,,,,,,,,,,,,,,,,,,,,,,,,,,,,,,,,,,,,,,,,,
165917,001,2022-11-21_24h07.22.335,Info_measure_main_exp,2022.2.2,MacIntel,59.99520038,,,,,,,,,,,,,,,,,,,,,,,,,,,,,,7,0.8847,1,,,,,,,,,,,,0,131,5,5,2274,1950,absent_patch/patch0002274.jpg,absent_patch/patch0001950.jpg,,,,,,,,,,,,,,,,,,,,0.024042039,0.078636533,1,0,0,response1disk,25,0.002393353,0.015039063,1,0,0,center_square,0,24,24,10,1,,,,,,,,,,,,,,,,,,,,,,,
165917,001,2022-11-21_24h07.22.335,Info_measure_main_exp,2022.2.2,MacIntel,59.99520038,,,,,,,,,,,,,,,,,,masks/mask_001.jpg,,,,,,,,,,,,,,,,,,,,,,,,,,,,,,,,,,,,,,,,,,,0,0,0,0,1,,,,,,,,,,,,,,,,,,,,,,,,,,,,,,,,,,,,,,,,,,,,,,
165917,001,2022-11-21_24h07.22.335,Info_measure_main_exp,2022.2.2,MacIntel,59.99520038,,,,,,,,,,,,,,,,,,masks/mask_004.jpg,,,,,,,,,,,,,,,,,,,,,,,,,,,,,,,,,,,,,,,,,,,0,1,1,3,1,,,,,,,,,,,,,,,,,,,,,,,,,,,,,,,,,,,,,,,,,,,,,,
165917,001,2022-11-21_24h07.22.335,Info_measure_main_exp,2022.2.2,MacIntel,59.99520038,,,,,,,,,,,,,,,,,,masks/mask_005.jpg,,,,,,,,,,,,,,,,,,,,,,,,,,,,,,,,,,,,,,,,,,,0,2,2,4,1,,,,,,,,,,,,,,,,,,,,,,,,,,,,,,,,,,,,,,,,,,,,,,
165917,001,2022-11-21_24h07.22.335,Info_measure_main_exp,2022.2.2,MacIntel,59.99520038,,,,,,,,,,,,,,,,,,masks/mask_003.jpg,,,,,,,,,,,,,,,,,,,,,,,,,,,,,,,,,,,,,,,,,,,0,3,3,2,1,,,,,,,,,,,,,,,,,,,,,,,,,,,,,,,,,,,,,,,,,,,,,,
165917,001,2022-11-21_24h07.22.335,Info_measure_main_exp,2022.2.2,MacIntel,59.99520038,,,,,,,,,,,,,,,,,,masks/mask_002.jpg,,,,,,,,,,,,,,,,,,,,,,,,,,,,,,,,,,,,,,,,,,,0,4,4,1,1,,,,,,,,,,,,,,,,,,,,,,,,,,,,,,,,,,,,,,,,,,,,,,
165917,001,2022-11-21_24h07.22.335,Info_measure_main_exp,2022.2.2,MacIntel,59.99520038,,,,,,,,,,,,,,,,,,masks/mask_005.jpg,,,,,,,,,,,,,,,,,,,,,,,,,,,,,,,,,,,,,,,,,,,,,,,,0,0,0,4,1,,,,,,,,,,,,,,,,,,,,,,,,,,,,,,,,,,,,,,,,,
165917,001,2022-11-21_24h07.22.335,Info_measure_main_exp,2022.2.2,MacIntel,59.99520038,,,,,,,,,,,,,,,,,,masks/mask_004.jpg,,,,,,,,,,,,,,,,,,,,,,,,,,,,,,,,,,,,,,,,,,,,,,,,0,1,1,3,1,,,,,,,,,,,,,,,,,,,,,,,,,,,,,,,,,,,,,,,,,
165917,001,2022-11-21_24h07.22.335,Info_measure_main_exp,2022.2.2,MacIntel,59.99520038,,,,,,,,,,,,,,,,,,masks/mask_003.jpg,,,,,,,,,,,,,,,,,,,,,,,,,,,,,,,,,,,,,,,,,,,,,,,,0,2,2,2,1,,,,,,,,,,,,,,,,,,,,,,,,,,,,,,,,,,,,,,,,,
165917,001,2022-11-21_24h07.22.335,Info_measure_main_exp,2022.2.2,MacIntel,59.99520038,,,,,,,,,,,,,,,,,,masks/mask_001.jpg,,,,,,,,,,,,,,,,,,,,,,,,,,,,,,,,,,,,,,,,,,,,,,,,0,3,3,0,1,,,,,,,,,,,,,,,,,,,,,,,,,,,,,,,,,,,,,,,,,
165917,001,2022-11-21_24h07.22.335,Info_measure_main_exp,2022.2.2,MacIntel,59.99520038,,,,,,,,,,,,,,,,,,masks/mask_002.jpg,,,,,,,,,,,,,,,,,,,,,,,,,,,,,,,,,,,,,,,,,,,,,,,,0,4,4,1,1,,,,,,,,,,,,,,,,,,,,,,,,,,,,,,,,,,,,,,,,,
165917,001,2022-11-21_24h07.22.335,Info_measure_main_exp,2022.2.2,MacIntel,59.99520038,,,,,,,,,,,,,,,,,,,,,,,,,,,,,,6,0.8666,1,,,,,,,,,,,,0,131,5,5,1986,2274,absent_patch/patch0001986.jpg,absent_patch/patch0002274.jpg,,,,,,,,,,,,,,,,,,,,0.100288318,0.010174851,1,0,0,response1disk,26,-0.004141865,-0.001131572,1,0,0,center_square,0,25,25,7,1,,,,,,,,,,,,,,,,,,,,,,,
165917,001,2022-11-21_24h07.22.335,Info_measure_main_exp,2022.2.2,MacIntel,59.99520038,,,,,,,,,,,,,,,,,,masks/mask_005.jpg,,,,,,,,,,,,,,,,,,,,,,,,,,,,,,,,,,,,,,,,,,,0,0,0,4,1,,,,,,,,,,,,,,,,,,,,,,,,,,,,,,,,,,,,,,,,,,,,,,
165917,001,2022-11-21_24h07.22.335,Info_measure_main_exp,2022.2.2,MacIntel,59.99520038,,,,,,,,,,,,,,,,,,masks/mask_003.jpg,,,,,,,,,,,,,,,,,,,,,,,,,,,,,,,,,,,,,,,,,,,0,1,1,2,1,,,,,,,,,,,,,,,,,,,,,,,,,,,,,,,,,,,,,,,,,,,,,,
165917,001,2022-11-21_24h07.22.335,Info_measure_main_exp,2022.2.2,MacIntel,59.99520038,,,,,,,,,,,,,,,,,,masks/mask_001.jpg,,,,,,,,,,,,,,,,,,,,,,,,,,,,,,,,,,,,,,,,,,,0,2,2,0,1,,,,,,,,,,,,,,,,,,,,,,,,,,,,,,,,,,,,,,,,,,,,,,
165917,001,2022-11-21_24h07.22.335,Info_measure_main_exp,2022.2.2,MacIntel,59.99520038,,,,,,,,,,,,,,,,,,masks/mask_004.jpg,,,,,,,,,,,,,,,,,,,,,,,,,,,,,,,,,,,,,,,,,,,0,3,3,3,1,,,,,,,,,,,,,,,,,,,,,,,,,,,,,,,,,,,,,,,,,,,,,,
165917,001,2022-11-21_24h07.22.335,Info_measure_main_exp,2022.2.2,MacIntel,59.99520038,,,,,,,,,,,,,,,,,,masks/mask_002.jpg,,,,,,,,,,,,,,,,,,,,,,,,,,,,,,,,,,,,,,,,,,,0,4,4,1,1,,,,,,,,,,,,,,,,,,,,,,,,,,,,,,,,,,,,,,,,,,,,,,
165917,001,2022-11-21_24h07.22.335,Info_measure_main_exp,2022.2.2,MacIntel,59.99520038,,,,,,,,,,,,,,,,,,masks/mask_003.jpg,,,,,,,,,,,,,,,,,,,,,,,,,,,,,,,,,,,,,,,,,,,,,,,,0,0,0,2,1,,,,,,,,,,,,,,,,,,,,,,,,,,,,,,,,,,,,,,,,,
165917,001,2022-11-21_24h07.22.335,Info_measure_main_exp,2022.2.2,MacIntel,59.99520038,,,,,,,,,,,,,,,,,,masks/mask_005.jpg,,,,,,,,,,,,,,,,,,,,,,,,,,,,,,,,,,,,,,,,,,,,,,,,0,1,1,4,1,,,,,,,,,,,,,,,,,,,,,,,,,,,,,,,,,,,,,,,,,
165917,001,2022-11-21_24h07.22.335,Info_measure_main_exp,2022.2.2,MacIntel,59.99520038,,,,,,,,,,,,,,,,,,masks/mask_002.jpg,,,,,,,,,,,,,,,,,,,,,,,,,,,,,,,,,,,,,,,,,,,,,,,,0,2,2,1,1,,,,,,,,,,,,,,,,,,,,,,,,,,,,,,,,,,,,,,,,,
165917,001,2022-11-21_24h07.22.335,Info_measure_main_exp,2022.2.2,MacIntel,59.99520038,,,,,,,,,,,,,,,,,,masks/mask_004.jpg,,,,,,,,,,,,,,,,,,,,,,,,,,,,,,,,,,,,,,,,,,,,,,,,0,3,3,3,1,,,,,,,,,,,,,,,,,,,,,,,,,,,,,,,,,,,,,,,,,
165917,001,2022-11-21_24h07.22.335,Info_measure_main_exp,2022.2.2,MacIntel,59.99520038,,,,,,,,,,,,,,,,,,masks/mask_001.jpg,,,,,,,,,,,,,,,,,,,,,,,,,,,,,,,,,,,,,,,,,,,,,,,,0,4,4,0,1,,,,,,,,,,,,,,,,,,,,,,,,,,,,,,,,,,,,,,,,,
165917,001,2022-11-21_24h07.22.335,Info_measure_main_exp,2022.2.2,MacIntel,59.99520038,,,,,,,,,,,,,,,,,,,,,,,,,,,,,,7,0.6009,1,,,,,,,,,,,,0,131,5,5,2274,2178,absent_patch/patch0002274.jpg,absent_patch/patch0002178.jpg,,,,,,,,,,,,,,,,,,,,0.031687128,0.077678571,1,0,0,response1disk,27,0.005484251,-0.001116071,1,0,0,center_square,0,26,26,117,1,,,,,,,,,,,,,,,,,,,,,,,
165917,001,2022-11-21_24h07.22.335,Info_measure_main_exp,2022.2.2,MacIntel,59.99520038,,,,,,,,,,,,,,,,,,masks/mask_003.jpg,,,,,,,,,,,,,,,,,,,,,,,,,,,,,,,,,,,,,,,,,,,0,0,0,2,1,,,,,,,,,,,,,,,,,,,,,,,,,,,,,,,,,,,,,,,,,,,,,,
165917,001,2022-11-21_24h07.22.335,Info_measure_main_exp,2022.2.2,MacIntel,59.99520038,,,,,,,,,,,,,,,,,,masks/mask_004.jpg,,,,,,,,,,,,,,,,,,,,,,,,,,,,,,,,,,,,,,,,,,,0,1,1,3,1,,,,,,,,,,,,,,,,,,,,,,,,,,,,,,,,,,,,,,,,,,,,,,
165917,001,2022-11-21_24h07.22.335,Info_measure_main_exp,2022.2.2,MacIntel,59.99520038,,,,,,,,,,,,,,,,,,masks/mask_001.jpg,,,,,,,,,,,,,,,,,,,,,,,,,,,,,,,,,,,,,,,,,,,0,2,2,0,1,,,,,,,,,,,,,,,,,,,,,,,,,,,,,,,,,,,,,,,,,,,,,,
165917,001,2022-11-21_24h07.22.335,Info_measure_main_exp,2022.2.2,MacIntel,59.99520038,,,,,,,,,,,,,,,,,,masks/mask_002.jpg,,,,,,,,,,,,,,,,,,,,,,,,,,,,,,,,,,,,,,,,,,,0,3,3,1,1,,,,,,,,,,,,,,,,,,,,,,,,,,,,,,,,,,,,,,,,,,,,,,
165917,001,2022-11-21_24h07.22.335,Info_measure_main_exp,2022.2.2,MacIntel,59.99520038,,,,,,,,,,,,,,,,,,masks/mask_005.jpg,,,,,,,,,,,,,,,,,,,,,,,,,,,,,,,,,,,,,,,,,,,0,4,4,4,1,,,,,,,,,,,,,,,,,,,,,,,,,,,,,,,,,,,,,,,,,,,,,,
165917,001,2022-11-21_24h07.22.335,Info_measure_main_exp,2022.2.2,MacIntel,59.99520038,,,,,,,,,,,,,,,,,,masks/mask_003.jpg,,,,,,,,,,,,,,,,,,,,,,,,,,,,,,,,,,,,,,,,,,,,,,,,0,0,0,2,1,,,,,,,,,,,,,,,,,,,,,,,,,,,,,,,,,,,,,,,,,
165917,001,2022-11-21_24h07.22.335,Info_measure_main_exp,2022.2.2,MacIntel,59.99520038,,,,,,,,,,,,,,,,,,masks/mask_002.jpg,,,,,,,,,,,,,,,,,,,,,,,,,,,,,,,,,,,,,,,,,,,,,,,,0,1,1,1,1,,,,,,,,,,,,,,,,,,,,,,,,,,,,,,,,,,,,,,,,,
165917,001,2022-11-21_24h07.22.335,Info_measure_main_exp,2022.2.2,MacIntel,59.99520038,,,,,,,,,,,,,,,,,,masks/mask_001.jpg,,,,,,,,,,,,,,,,,,,,,,,,,,,,,,,,,,,,,,,,,,,,,,,,0,2,2,0,1,,,,,,,,,,,,,,,,,,,,,,,,,,,,,,,,,,,,,,,,,
165917,001,2022-11-21_24h07.22.335,Info_measure_main_exp,2022.2.2,MacIntel,59.99520038,,,,,,,,,,,,,,,,,,masks/mask_005.jpg,,,,,,,,,,,,,,,,,,,,,,,,,,,,,,,,,,,,,,,,,,,,,,,,0,3,3,4,1,,,,,,,,,,,,,,,,,,,,,,,,,,,,,,,,,,,,,,,,,
165917,001,2022-11-21_24h07.22.335,Info_measure_main_exp,2022.2.2,MacIntel,59.99520038,,,,,,,,,,,,,,,,,,masks/mask_004.jpg,,,,,,,,,,,,,,,,,,,,,,,,,,,,,,,,,,,,,,,,,,,,,,,,0,4,4,3,1,,,,,,,,,,,,,,,,,,,,,,,,,,,,,,,,,,,,,,,,,
165917,001,2022-11-21_24h07.22.335,Info_measure_main_exp,2022.2.2,MacIntel,59.99520038,,,,,,,,,,,,,,,,,,,,,,,,,,,,,,0,0.5826,1,,,,,,,,,,,,0,131,5,5,2154,2154,absent_patch/patch0002154.jpg,absent_patch/patch0002154.jpg,,,,,,,,,,,,,,,,,,,,-0.015891617,0.073626612,1,0,0,response7disk,28,0.001674107,0.002942088,1,0,0,center_square,0,27,27,89,1,,,,,,,,,,,,,,,,,,,,,,,
165917,001,2022-11-21_24h07.22.335,Info_measure_main_exp,2022.2.2,MacIntel,59.99520038,,,,,,,,,,,,,,,,,,masks/mask_002.jpg,,,,,,,,,,,,,,,,,,,,,,,,,,,,,,,,,,,,,,,,,,,0,0,0,1,1,,,,,,,,,,,,,,,,,,,,,,,,,,,,,,,,,,,,,,,,,,,,,,
165917,001,2022-11-21_24h07.22.335,Info_measure_main_exp,2022.2.2,MacIntel,59.99520038,,,,,,,,,,,,,,,,,,masks/mask_004.jpg,,,,,,,,,,,,,,,,,,,,,,,,,,,,,,,,,,,,,,,,,,,0,1,1,3,1,,,,,,,,,,,,,,,,,,,,,,,,,,,,,,,,,,,,,,,,,,,,,,
165917,001,2022-11-21_24h07.22.335,Info_measure_main_exp,2022.2.2,MacIntel,59.99520038,,,,,,,,,,,,,,,,,,masks/mask_005.jpg,,,,,,,,,,,,,,,,,,,,,,,,,,,,,,,,,,,,,,,,,,,0,2,2,4,1,,,,,,,,,,,,,,,,,,,,,,,,,,,,,,,,,,,,,,,,,,,,,,
165917,001,2022-11-21_24h07.22.335,Info_measure_main_exp,2022.2.2,MacIntel,59.99520038,,,,,,,,,,,,,,,,,,masks/mask_003.jpg,,,,,,,,,,,,,,,,,,,,,,,,,,,,,,,,,,,,,,,,,,,0,3,3,2,1,,,,,,,,,,,,,,,,,,,,,,,,,,,,,,,,,,,,,,,,,,,,,,
165917,001,2022-11-21_24h07.22.335,Info_measure_main_exp,2022.2.2,MacIntel,59.99520038,,,,,,,,,,,,,,,,,,masks/mask_001.jpg,,,,,,,,,,,,,,,,,,,,,,,,,,,,,,,,,,,,,,,,,,,0,4,4,0,1,,,,,,,,,,,,,,,,,,,,,,,,,,,,,,,,,,,,,,,,,,,,,,
165917,001,2022-11-21_24h07.22.335,Info_measure_main_exp,2022.2.2,MacIntel,59.99520038,,,,,,,,,,,,,,,,,,masks/mask_001.jpg,,,,,,,,,,,,,,,,,,,,,,,,,,,,,,,,,,,,,,,,,,,,,,,,0,0,0,0,1,,,,,,,,,,,,,,,,,,,,,,,,,,,,,,,,,,,,,,,,,
165917,001,2022-11-21_24h07.22.335,Info_measure_main_exp,2022.2.2,MacIntel,59.99520038,,,,,,,,,,,,,,,,,,masks/mask_002.jpg,,,,,,,,,,,,,,,,,,,,,,,,,,,,,,,,,,,,,,,,,,,,,,,,0,1,1,1,1,,,,,,,,,,,,,,,,,,,,,,,,,,,,,,,,,,,,,,,,,
165917,001,2022-11-21_24h07.22.335,Info_measure_main_exp,2022.2.2,MacIntel,59.99520038,,,,,,,,,,,,,,,,,,masks/mask_004.jpg,,,,,,,,,,,,,,,,,,,,,,,,,,,,,,,,,,,,,,,,,,,,,,,,0,2,2,3,1,,,,,,,,,,,,,,,,,,,,,,,,,,,,,,,,,,,,,,,,,
165917,001,2022-11-21_24h07.22.335,Info_measure_main_exp,2022.2.2,MacIntel,59.99520038,,,,,,,,,,,,,,,,,,masks/mask_003.jpg,,,,,,,,,,,,,,,,,,,,,,,,,,,,,,,,,,,,,,,,,,,,,,,,0,3,3,2,1,,,,,,,,,,,,,,,,,,,,,,,,,,,,,,,,,,,,,,,,,
165917,001,2022-11-21_24h07.22.335,Info_measure_main_exp,2022.2.2,MacIntel,59.99520038,,,,,,,,,,,,,,,,,,masks/mask_005.jpg,,,,,,,,,,,,,,,,,,,,,,,,,,,,,,,,,,,,,,,,,,,,,,,,0,4,4,4,1,,,,,,,,,,,,,,,,,,,,,,,,,,,,,,,,,,,,,,,,,
165917,001,2022-11-21_24h07.22.335,Info_measure_main_exp,2022.2.2,MacIntel,59.99520038,,,,,,,,,,,,,,,,,,,,,,,,,,,,,,7,0.9666,1,,,,,,,,,,,,1,131,5,5,1,1974,present_patch/cong_131_5_a.jpg,absent_patch/patch0001974.jpg,,,,,,,,,,,,,,,,,,,,0.041511657,0.073093378,1,0,0,response1disk,29,0.004175967,-0.001351687,1,0,0,center_square,0,28,28,69,1,,,,,,,,,,,,,,,,,,,,,,,
165917,001,2022-11-21_24h07.22.335,Info_measure_main_exp,2022.2.2,MacIntel,59.99520038,,,,,,,,,,,,,,,,,,masks/mask_001.jpg,,,,,,,,,,,,,,,,,,,,,,,,,,,,,,,,,,,,,,,,,,,0,0,0,0,1,,,,,,,,,,,,,,,,,,,,,,,,,,,,,,,,,,,,,,,,,,,,,,
165917,001,2022-11-21_24h07.22.335,Info_measure_main_exp,2022.2.2,MacIntel,59.99520038,,,,,,,,,,,,,,,,,,masks/mask_004.jpg,,,,,,,,,,,,,,,,,,,,,,,,,,,,,,,,,,,,,,,,,,,0,1,1,3,1,,,,,,,,,,,,,,,,,,,,,,,,,,,,,,,,,,,,,,,,,,,,,,
165917,001,2022-11-21_24h07.22.335,Info_measure_main_exp,2022.2.2,MacIntel,59.99520038,,,,,,,,,,,,,,,,,,masks/mask_005.jpg,,,,,,,,,,,,,,,,,,,,,,,,,,,,,,,,,,,,,,,,,,,0,2,2,4,1,,,,,,,,,,,,,,,,,,,,,,,,,,,,,,,,,,,,,,,,,,,,,,
165917,001,2022-11-21_24h07.22.335,Info_measure_main_exp,2022.2.2,MacIntel,59.99520038,,,,,,,,,,,,,,,,,,masks/mask_003.jpg,,,,,,,,,,,,,,,,,,,,,,,,,,,,,,,,,,,,,,,,,,,0,3,3,2,1,,,,,,,,,,,,,,,,,,,,,,,,,,,,,,,,,,,,,,,,,,,,,,
165917,001,2022-11-21_24h07.22.335,Info_measure_main_exp,2022.2.2,MacIntel,59.99520038,,,,,,,,,,,,,,,,,,masks/mask_002.jpg,,,,,,,,,,,,,,,,,,,,,,,,,,,,,,,,,,,,,,,,,,,0,4,4,1,1,,,,,,,,,,,,,,,,,,,,,,,,,,,,,,,,,,,,,,,,,,,,,,
165917,001,2022-11-21_24h07.22.335,Info_measure_main_exp,2022.2.2,MacIntel,59.99520038,,,,,,,,,,,,,,,,,,masks/mask_002.jpg,,,,,,,,,,,,,,,,,,,,,,,,,,,,,,,,,,,,,,,,,,,,,,,,0,0,0,1,1,,,,,,,,,,,,,,,,,,,,,,,,,,,,,,,,,,,,,,,,,
165917,001,2022-11-21_24h07.22.335,Info_measure_main_exp,2022.2.2,MacIntel,59.99520038,,,,,,,,,,,,,,,,,,masks/mask_005.jpg,,,,,,,,,,,,,,,,,,,,,,,,,,,,,,,,,,,,,,,,,,,,,,,,0,1,1,4,1,,,,,,,,,,,,,,,,,,,,,,,,,,,,,,,,,,,,,,,,,
165917,001,2022-11-21_24h07.22.335,Info_measure_main_exp,2022.2.2,MacIntel,59.99520038,,,,,,,,,,,,,,,,,,masks/mask_003.jpg,,,,,,,,,,,,,,,,,,,,,,,,,,,,,,,,,,,,,,,,,,,,,,,,0,2,2,2,1,,,,,,,,,,,,,,,,,,,,,,,,,,,,,,,,,,,,,,,,,
165917,001,2022-11-21_24h07.22.335,Info_measure_main_exp,2022.2.2,MacIntel,59.99520038,,,,,,,,,,,,,,,,,,masks/mask_004.jpg,,,,,,,,,,,,,,,,,,,,,,,,,,,,,,,,,,,,,,,,,,,,,,,,0,3,3,3,1,,,,,,,,,,,,,,,,,,,,,,,,,,,,,,,,,,,,,,,,,
165917,001,2022-11-21_24h07.22.335,Info_measure_main_exp,2022.2.2,MacIntel,59.99520038,,,,,,,,,,,,,,,,,,masks/mask_001.jpg,,,,,,,,,,,,,,,,,,,,,,,,,,,,,,,,,,,,,,,,,,,,,,,,0,4,4,0,1,,,,,,,,,,,,,,,,,,,,,,,,,,,,,,,,,,,,,,,,,
165917,001,2022-11-21_24h07.22.335,Info_measure_main_exp,2022.2.2,MacIntel,59.99520038,,,,,,,,,,,,,,,,,,,,,,,,,,,,,,7,0.6999,1,,,,,,,,,,,,0,131,5,5,2298,1986,absent_patch/patch0002298.jpg,absent_patch/patch0001986.jpg,,,,,,,,,,,,,,,,,,,,0.024612475,0.05734437,1,0,0,response1disk,30,0.00281808,-0.001779514,1,0,0,center_square,0,29,29,32,1,,,,,,,,,,,,,,,,,,,,,,,
165917,001,2022-11-21_24h07.22.335,Info_measure_main_exp,2022.2.2,MacIntel,59.99520038,,,,,,,,,,,,,,,,,,masks/mask_002.jpg,,,,,,,,,,,,,,,,,,,,,,,,,,,,,,,,,,,,,,,,,,,0,0,0,1,1,,,,,,,,,,,,,,,,,,,,,,,,,,,,,,,,,,,,,,,,,,,,,,
165917,001,2022-11-21_24h07.22.335,Info_measure_main_exp,2022.2.2,MacIntel,59.99520038,,,,,,,,,,,,,,,,,,masks/mask_003.jpg,,,,,,,,,,,,,,,,,,,,,,,,,,,,,,,,,,,,,,,,,,,0,1,1,2,1,,,,,,,,,,,,,,,,,,,,,,,,,,,,,,,,,,,,,,,,,,,,,,
165917,001,2022-11-21_24h07.22.335,Info_measure_main_exp,2022.2.2,MacIntel,59.99520038,,,,,,,,,,,,,,,,,,masks/mask_001.jpg,,,,,,,,,,,,,,,,,,,,,,,,,,,,,,,,,,,,,,,,,,,0,2,2,0,1,,,,,,,,,,,,,,,,,,,,,,,,,,,,,,,,,,,,,,,,,,,,,,
165917,001,2022-11-21_24h07.22.335,Info_measure_main_exp,2022.2.2,MacIntel,59.99520038,,,,,,,,,,,,,,,,,,masks/mask_004.jpg,,,,,,,,,,,,,,,,,,,,,,,,,,,,,,,,,,,,,,,,,,,0,3,3,3,1,,,,,,,,,,,,,,,,,,,,,,,,,,,,,,,,,,,,,,,,,,,,,,
165917,001,2022-11-21_24h07.22.335,Info_measure_main_exp,2022.2.2,MacIntel,59.99520038,,,,,,,,,,,,,,,,,,masks/mask_005.jpg,,,,,,,,,,,,,,,,,,,,,,,,,,,,,,,,,,,,,,,,,,,0,4,4,4,1,,,,,,,,,,,,,,,,,,,,,,,,,,,,,,,,,,,,,,,,,,,,,,
165917,001,2022-11-21_24h07.22.335,Info_measure_main_exp,2022.2.2,MacIntel,59.99520038,,,,,,,,,,,,,,,,,,masks/mask_001.jpg,,,,,,,,,,,,,,,,,,,,,,,,,,,,,,,,,,,,,,,,,,,,,,,,0,0,0,0,1,,,,,,,,,,,,,,,,,,,,,,,,,,,,,,,,,,,,,,,,,
165917,001,2022-11-21_24h07.22.335,Info_measure_main_exp,2022.2.2,MacIntel,59.99520038,,,,,,,,,,,,,,,,,,masks/mask_002.jpg,,,,,,,,,,,,,,,,,,,,,,,,,,,,,,,,,,,,,,,,,,,,,,,,0,1,1,1,1,,,,,,,,,,,,,,,,,,,,,,,,,,,,,,,,,,,,,,,,,
165917,001,2022-11-21_24h07.22.335,Info_measure_main_exp,2022.2.2,MacIntel,59.99520038,,,,,,,,,,,,,,,,,,masks/mask_005.jpg,,,,,,,,,,,,,,,,,,,,,,,,,,,,,,,,,,,,,,,,,,,,,,,,0,2,2,4,1,,,,,,,,,,,,,,,,,,,,,,,,,,,,,,,,,,,,,,,,,
165917,001,2022-11-21_24h07.22.335,Info_measure_main_exp,2022.2.2,MacIntel,59.99520038,,,,,,,,,,,,,,,,,,masks/mask_003.jpg,,,,,,,,,,,,,,,,,,,,,,,,,,,,,,,,,,,,,,,,,,,,,,,,0,3,3,2,1,,,,,,,,,,,,,,,,,,,,,,,,,,,,,,,,,,,,,,,,,
165917,001,2022-11-21_24h07.22.335,Info_measure_main_exp,2022.2.2,MacIntel,59.99520038,,,,,,,,,,,,,,,,,,masks/mask_004.jpg,,,,,,,,,,,,,,,,,,,,,,,,,,,,,,,,,,,,,,,,,,,,,,,,0,4,4,3,1,,,,,,,,,,,,,,,,,,,,,,,,,,,,,,,,,,,,,,,,,
165917,001,2022-11-21_24h07.22.335,Info_measure_main_exp,2022.2.2,MacIntel,59.99520038,,,,,,,,,,,,,,,,,,,,,,,,,,,,,,7,1.0998,1,,,,,,,,,,,,0,131,5,5,2178,2154,absent_patch/patch0002178.jpg,absent_patch/patch0002154.jpg,,,,,,,,,,,,,,,,,,,,0.018009053,0.067844742,1,0,0,response1disk,31,0.002356151,-0.00578807,1,0,0,center_square,0,30,30,63,1,,,,,,,,,,,,,,,,,,,,,,,
165917,001,2022-11-21_24h07.22.335,Info_measure_main_exp,2022.2.2,MacIntel,59.99520038,,,,,,,,,,,,,,,,,,masks/mask_001.jpg,,,,,,,,,,,,,,,,,,,,,,,,,,,,,,,,,,,,,,,,,,,0,0,0,0,1,,,,,,,,,,,,,,,,,,,,,,,,,,,,,,,,,,,,,,,,,,,,,,
165917,001,2022-11-21_24h07.22.335,Info_measure_main_exp,2022.2.2,MacIntel,59.99520038,,,,,,,,,,,,,,,,,,masks/mask_003.jpg,,,,,,,,,,,,,,,,,,,,,,,,,,,,,,,,,,,,,,,,,,,0,1,1,2,1,,,,,,,,,,,,,,,,,,,,,,,,,,,,,,,,,,,,,,,,,,,,,,
165917,001,2022-11-21_24h07.22.335,Info_measure_main_exp,2022.2.2,MacIntel,59.99520038,,,,,,,,,,,,,,,,,,masks/mask_002.jpg,,,,,,,,,,,,,,,,,,,,,,,,,,,,,,,,,,,,,,,,,,,0,2,2,1,1,,,,,,,,,,,,,,,,,,,,,,,,,,,,,,,,,,,,,,,,,,,,,,
165917,001,2022-11-21_24h07.22.335,Info_measure_main_exp,2022.2.2,MacIntel,59.99520038,,,,,,,,,,,,,,,,,,masks/mask_004.jpg,,,,,,,,,,,,,,,,,,,,,,,,,,,,,,,,,,,,,,,,,,,0,3,3,3,1,,,,,,,,,,,,,,,,,,,,,,,,,,,,,,,,,,,,,,,,,,,,,,
165917,001,2022-11-21_24h07.22.335,Info_measure_main_exp,2022.2.2,MacIntel,59.99520038,,,,,,,,,,,,,,,,,,masks/mask_005.jpg,,,,,,,,,,,,,,,,,,,,,,,,,,,,,,,,,,,,,,,,,,,0,4,4,4,1,,,,,,,,,,,,,,,,,,,,,,,,,,,,,,,,,,,,,,,,,,,,,,
165917,001,2022-11-21_24h07.22.335,Info_measure_main_exp,2022.2.2,MacIntel,59.99520038,,,,,,,,,,,,,,,,,,masks/mask_003.jpg,,,,,,,,,,,,,,,,,,,,,,,,,,,,,,,,,,,,,,,,,,,,,,,,0,0,0,2,1,,,,,,,,,,,,,,,,,,,,,,,,,,,,,,,,,,,,,,,,,
165917,001,2022-11-21_24h07.22.335,Info_measure_main_exp,2022.2.2,MacIntel,59.99520038,,,,,,,,,,,,,,,,,,masks/mask_002.jpg,,,,,,,,,,,,,,,,,,,,,,,,,,,,,,,,,,,,,,,,,,,,,,,,0,1,1,1,1,,,,,,,,,,,,,,,,,,,,,,,,,,,,,,,,,,,,,,,,,
165917,001,2022-11-21_24h07.22.335,Info_measure_main_exp,2022.2.2,MacIntel,59.99520038,,,,,,,,,,,,,,,,,,masks/mask_005.jpg,,,,,,,,,,,,,,,,,,,,,,,,,,,,,,,,,,,,,,,,,,,,,,,,0,2,2,4,1,,,,,,,,,,,,,,,,,,,,,,,,,,,,,,,,,,,,,,,,,
165917,001,2022-11-21_24h07.22.335,Info_measure_main_exp,2022.2.2,MacIntel,59.99520038,,,,,,,,,,,,,,,,,,masks/mask_001.jpg,,,,,,,,,,,,,,,,,,,,,,,,,,,,,,,,,,,,,,,,,,,,,,,,0,3,3,0,1,,,,,,,,,,,,,,,,,,,,,,,,,,,,,,,,,,,,,,,,,
165917,001,2022-11-21_24h07.22.335,Info_measure_main_exp,2022.2.2,MacIntel,59.99520038,,,,,,,,,,,,,,,,,,masks/mask_004.jpg,,,,,,,,,,,,,,,,,,,,,,,,,,,,,,,,,,,,,,,,,,,,,,,,0,4,4,3,1,,,,,,,,,,,,,,,,,,,,,,,,,,,,,,,,,,,,,,,,,
165917,001,2022-11-21_24h07.22.335,Info_measure_main_exp,2022.2.2,MacIntel,59.99520038,,,,,,,,,,,,,,,,,,,,,,,,,,,,,,5,1.3154,1,,,,,,,,,,,,0,131,5,5,2274,2154,absent_patch/patch0002274.jpg,absent_patch/patch0002154.jpg,,,,,,,,,,,,,,,,,,,,0.137255084,-0.06297123,1,0,0,response3disk,32,-0.00562996,-0.005602059,1,0,0,center_square,0,31,31,23,1,,,,,,,,,,,,,,,,,,,,,,,
165917,001,2022-11-21_24h07.22.335,Info_measure_main_exp,2022.2.2,MacIntel,59.99520038,,,,,,,,,,,,,,,,,,masks/mask_004.jpg,,,,,,,,,,,,,,,,,,,,,,,,,,,,,,,,,,,,,,,,,,,0,0,0,3,1,,,,,,,,,,,,,,,,,,,,,,,,,,,,,,,,,,,,,,,,,,,,,,
165917,001,2022-11-21_24h07.22.335,Info_measure_main_exp,2022.2.2,MacIntel,59.99520038,,,,,,,,,,,,,,,,,,masks/mask_002.jpg,,,,,,,,,,,,,,,,,,,,,,,,,,,,,,,,,,,,,,,,,,,0,1,1,1,1,,,,,,,,,,,,,,,,,,,,,,,,,,,,,,,,,,,,,,,,,,,,,,
165917,001,2022-11-21_24h07.22.335,Info_measure_main_exp,2022.2.2,MacIntel,59.99520038,,,,,,,,,,,,,,,,,,masks/mask_001.jpg,,,,,,,,,,,,,,,,,,,,,,,,,,,,,,,,,,,,,,,,,,,0,2,2,0,1,,,,,,,,,,,,,,,,,,,,,,,,,,,,,,,,,,,,,,,,,,,,,,
165917,001,2022-11-21_24h07.22.335,Info_measure_main_exp,2022.2.2,MacIntel,59.99520038,,,,,,,,,,,,,,,,,,masks/mask_003.jpg,,,,,,,,,,,,,,,,,,,,,,,,,,,,,,,,,,,,,,,,,,,0,3,3,2,1,,,,,,,,,,,,,,,,,,,,,,,,,,,,,,,,,,,,,,,,,,,,,,
165917,001,2022-11-21_24h07.22.335,Info_measure_main_exp,2022.2.2,MacIntel,59.99520038,,,,,,,,,,,,,,,,,,masks/mask_005.jpg,,,,,,,,,,,,,,,,,,,,,,,,,,,,,,,,,,,,,,,,,,,0,4,4,4,1,,,,,,,,,,,,,,,,,,,,,,,,,,,,,,,,,,,,,,,,,,,,,,
165917,001,2022-11-21_24h07.22.335,Info_measure_main_exp,2022.2.2,MacIntel,59.99520038,,,,,,,,,,,,,,,,,,masks/mask_001.jpg,,,,,,,,,,,,,,,,,,,,,,,,,,,,,,,,,,,,,,,,,,,,,,,,0,0,0,0,1,,,,,,,,,,,,,,,,,,,,,,,,,,,,,,,,,,,,,,,,,
165917,001,2022-11-21_24h07.22.335,Info_measure_main_exp,2022.2.2,MacIntel,59.99520038,,,,,,,,,,,,,,,,,,masks/mask_004.jpg,,,,,,,,,,,,,,,,,,,,,,,,,,,,,,,,,,,,,,,,,,,,,,,,0,1,1,3,1,,,,,,,,,,,,,,,,,,,,,,,,,,,,,,,,,,,,,,,,,
165917,001,2022-11-21_24h07.22.335,Info_measure_main_exp,2022.2.2,MacIntel,59.99520038,,,,,,,,,,,,,,,,,,masks/mask_005.jpg,,,,,,,,,,,,,,,,,,,,,,,,,,,,,,,,,,,,,,,,,,,,,,,,0,2,2,4,1,,,,,,,,,,,,,,,,,,,,,,,,,,,,,,,,,,,,,,,,,
165917,001,2022-11-21_24h07.22.335,Info_measure_main_exp,2022.2.2,MacIntel,59.99520038,,,,,,,,,,,,,,,,,,masks/mask_002.jpg,,,,,,,,,,,,,,,,,,,,,,,,,,,,,,,,,,,,,,,,,,,,,,,,0,3,3,1,1,,,,,,,,,,,,,,,,,,,,,,,,,,,,,,,,,,,,,,,,,
165917,001,2022-11-21_24h07.22.335,Info_measure_main_exp,2022.2.2,MacIntel,59.99520038,,,,,,,,,,,,,,,,,,masks/mask_003.jpg,,,,,,,,,,,,,,,,,,,,,,,,,,,,,,,,,,,,,,,,,,,,,,,,0,4,4,2,1,,,,,,,,,,,,,,,,,,,,,,,,,,,,,,,,,,,,,,,,,
165917,001,2022-11-21_24h07.22.335,Info_measure_main_exp,2022.2.2,MacIntel,59.99520038,,,,,,,,,,,,,,,,,,,,,,,,,,,,,,0,0.482,1,,,,,,,,,,,,1,131,5,5,1,1,present_patch/cong_131_5_a.jpg,present_patch/cong_131_5_a.jpg,,,,,,,,,,,,,,,,,,,,-0.051119172,0.087196181,1,0,0,response7disk,33,-0.000232515,0.002260045,1,0,0,center_square,0,32,32,30,1,,,,,,,,,,,,,,,,,,,,,,,
165917,001,2022-11-21_24h07.22.335,Info_measure_main_exp,2022.2.2,MacIntel,59.99520038,,,,,,,,,,,,,,,,,,masks/mask_002.jpg,,,,,,,,,,,,,,,,,,,,,,,,,,,,,,,,,,,,,,,,,,,0,0,0,1,1,,,,,,,,,,,,,,,,,,,,,,,,,,,,,,,,,,,,,,,,,,,,,,
165917,001,2022-11-21_24h07.22.335,Info_measure_main_exp,2022.2.2,MacIntel,59.99520038,,,,,,,,,,,,,,,,,,masks/mask_001.jpg,,,,,,,,,,,,,,,,,,,,,,,,,,,,,,,,,,,,,,,,,,,0,1,1,0,1,,,,,,,,,,,,,,,,,,,,,,,,,,,,,,,,,,,,,,,,,,,,,,
165917,001,2022-11-21_24h07.22.335,Info_measure_main_exp,2022.2.2,MacIntel,59.99520038,,,,,,,,,,,,,,,,,,masks/mask_004.jpg,,,,,,,,,,,,,,,,,,,,,,,,,,,,,,,,,,,,,,,,,,,0,2,2,3,1,,,,,,,,,,,,,,,,,,,,,,,,,,,,,,,,,,,,,,,,,,,,,,
165917,001,2022-11-21_24h07.22.335,Info_measure_main_exp,2022.2.2,MacIntel,59.99520038,,,,,,,,,,,,,,,,,,masks/mask_003.jpg,,,,,,,,,,,,,,,,,,,,,,,,,,,,,,,,,,,,,,,,,,,0,3,3,2,1,,,,,,,,,,,,,,,,,,,,,,,,,,,,,,,,,,,,,,,,,,,,,,
165917,001,2022-11-21_24h07.22.335,Info_measure_main_exp,2022.2.2,MacIntel,59.99520038,,,,,,,,,,,,,,,,,,masks/mask_005.jpg,,,,,,,,,,,,,,,,,,,,,,,,,,,,,,,,,,,,,,,,,,,0,4,4,4,1,,,,,,,,,,,,,,,,,,,,,,,,,,,,,,,,,,,,,,,,,,,,,,
165917,001,2022-11-21_24h07.22.335,Info_measure_main_exp,2022.2.2,MacIntel,59.99520038,,,,,,,,,,,,,,,,,,masks/mask_004.jpg,,,,,,,,,,,,,,,,,,,,,,,,,,,,,,,,,,,,,,,,,,,,,,,,0,0,0,3,1,,,,,,,,,,,,,,,,,,,,,,,,,,,,,,,,,,,,,,,,,
165917,001,2022-11-21_24h07.22.335,Info_measure_main_exp,2022.2.2,MacIntel,59.99520038,,,,,,,,,,,,,,,,,,masks/mask_005.jpg,,,,,,,,,,,,,,,,,,,,,,,,,,,,,,,,,,,,,,,,,,,,,,,,0,1,1,4,1,,,,,,,,,,,,,,,,,,,,,,,,,,,,,,,,,,,,,,,,,
165917,001,2022-11-21_24h07.22.335,Info_measure_main_exp,2022.2.2,MacIntel,59.99520038,,,,,,,,,,,,,,,,,,masks/mask_003.jpg,,,,,,,,,,,,,,,,,,,,,,,,,,,,,,,,,,,,,,,,,,,,,,,,0,2,2,2,1,,,,,,,,,,,,,,,,,,,,,,,,,,,,,,,,,,,,,,,,,
165917,001,2022-11-21_24h07.22.335,Info_measure_main_exp,2022.2.2,MacIntel,59.99520038,,,,,,,,,,,,,,,,,,masks/mask_001.jpg,,,,,,,,,,,,,,,,,,,,,,,,,,,,,,,,,,,,,,,,,,,,,,,,0,3,3,0,1,,,,,,,,,,,,,,,,,,,,,,,,,,,,,,,,,,,,,,,,,
165917,001,2022-11-21_24h07.22.335,Info_measure_main_exp,2022.2.2,MacIntel,59.99520038,,,,,,,,,,,,,,,,,,masks/mask_002.jpg,,,,,,,,,,,,,,,,,,,,,,,,,,,,,,,,,,,,,,,,,,,,,,,,0,4,4,1,1,,,,,,,,,,,,,,,,,,,,,,,,,,,,,,,,,,,,,,,,,
165917,001,2022-11-21_24h07.22.335,Info_measure_main_exp,2022.2.2,MacIntel,59.99520038,,,,,,,,,,,,,,,,,,,,,,,,,,,,,,6,2.2662,1,,,,,,,,,,,,1,131,5,5,2250,1,absent_patch/patch0002250.jpg,present_patch/cong_131_5_a.jpg,,,,,,,,,,,,,,,,,,,,0.108677455,0.031690228,1,0,0,response1disk,34,0.007700893,0.011690848,1,0,0,center_square,0,33,33,5,1,,,,,,,,,,,,,,,,,,,,,,,
165917,001,2022-11-21_24h07.22.335,Info_measure_main_exp,2022.2.2,MacIntel,59.99520038,,,,,,,,,,,,,,,,,,masks/mask_002.jpg,,,,,,,,,,,,,,,,,,,,,,,,,,,,,,,,,,,,,,,,,,,0,0,0,1,1,,,,,,,,,,,,,,,,,,,,,,,,,,,,,,,,,,,,,,,,,,,,,,
165917,001,2022-11-21_24h07.22.335,Info_measure_main_exp,2022.2.2,MacIntel,59.99520038,,,,,,,,,,,,,,,,,,masks/mask_005.jpg,,,,,,,,,,,,,,,,,,,,,,,,,,,,,,,,,,,,,,,,,,,0,1,1,4,1,,,,,,,,,,,,,,,,,,,,,,,,,,,,,,,,,,,,,,,,,,,,,,
165917,001,2022-11-21_24h07.22.335,Info_measure_main_exp,2022.2.2,MacIntel,59.99520038,,,,,,,,,,,,,,,,,,masks/mask_004.jpg,,,,,,,,,,,,,,,,,,,,,,,,,,,,,,,,,,,,,,,,,,,0,2,2,3,1,,,,,,,,,,,,,,,,,,,,,,,,,,,,,,,,,,,,,,,,,,,,,,
