participant,session,date,expName,psychopyVersion,OS,frameRate,space_press_continue.keys,space_press_continue.rt,space_press_continue_2.keys,space_press_continue_2.rt,space_press_continue_3.keys,space_press_continue_3.rt,space_press_continue_4.keys,space_press_continue_4.rt,space_press_continue_5.keys,space_press_continue_5.rt,space_press_continue_6.keys,space_press_continue_6.rt,prac_mask_loop_1.thisRepN,prac_mask_loop_1.thisTrialN,prac_mask_loop_1.thisN,prac_mask_loop_1.thisIndex,prac_mask_loop_1.ran,mask_name,prac_mask_loop_2.thisRepN,prac_mask_loop_2.thisTrialN,prac_mask_loop_2.thisN,prac_mask_loop_2.thisIndex,prac_mask_loop_2.ran,mouse_2.x,mouse_2.y,mouse_2.leftButton,mouse_2.midButton,mouse_2.rightButton,mouse_2.clicked_name,similarity,response_time,Pass,mouse_12.x,mouse_12.y,mouse_12.leftButton,mouse_12.midButton,mouse_12.rightButton,mouse_12.clicked_name,prac_loop.thisRepN,prac_loop.thisTrialN,prac_loop.thisN,prac_loop.thisIndex,prac_loop.ran,Pair_type,Image_num,Patch_1_loc,Patch_2_loc,Patch_1_info,Patch_2_info,Patch_1_name,Patch_2_name,mouse_1.x,mouse_1.y,mouse_1.leftButton,mouse_1.midButton,mouse_1.rightButton,mouse_1.time,mouse_1.clicked_name,space_press_continue_7.keys,space_press_continue_7.rt,mask_loop.thisRepN,mask_loop.thisTrialN,mask_loop.thisN,mask_loop.thisIndex,mask_loop.ran,mask_loop_2.thisRepN,mask_loop_2.thisTrialN,mask_loop_2.thisN,mask_loop_2.thisIndex,mask_loop_2.ran,mouse.x,mouse.y,mouse.leftButton,mouse.midButton,mouse.rightButton,mouse.clicked_name,trialNumber,mouse_11.x,mouse_11.y,mouse_11.leftButton,mouse_11.midButton,mouse_11.rightButton,mouse_11.clicked_name,first_pass_loop.thisRepN,first_pass_loop.thisTrialN,first_pass_loop.thisN,first_pass_loop.thisIndex,first_pass_loop.ran,mask_loop_3.thisRepN,mask_loop_3.thisTrialN,mask_loop_3.thisN,mask_loop_3.thisIndex,mask_loop_3.ran,mask_loop_4.thisRepN,mask_loop_4.thisTrialN,mask_loop_4.thisN,mask_loop_4.thisIndex,mask_loop_4.ran,mouse_3.x,mouse_3.y,mouse_3.leftButton,mouse_3.midButton,mouse_3.rightButton,mouse_3.clicked_name,double_pass_loop.thisRepN,double_pass_loop.thisTrialN,double_pass_loop.thisN,double_pass_loop.thisIndex,double_pass_loop.ran,space_exit.keys,space_exit.rt
175604,001,2022-11-20_18h08.17.738,Info_measure_main_exp,2022.2.2,Win32,60.11421701,,,,,,,,,,,,,,,,,,,,,,,,,,,,,,,,,,,,,,,,,,,,,,,,,,,,,,,,,,,,,,,,,,,,,,,,,,,,,,,,,,,,,,,,,,,,,,,,,,,,,,,,,,,,,,,
175604,001,2022-11-20_18h08.17.738,Info_measure_main_exp,2022.2.2,Win32,60.11421701,,,,,,,,,,,,,,,,,,,,,,,,,,,,,,,,,,,,,,,,,,,,,,,,,,,,,,,,,,,,,,,,,,,,,,,,,,,,,,,,,,,,,,,,,,,,,,,,,,,,,,,,,,,,,,,
175604,001,2022-11-20_18h08.17.738,Info_measure_main_exp,2022.2.2,Win32,60.11421701,space,18.6911,,,,,,,,,,,,,,,,,,,,,,,,,,,,,,,,,,,,,,,,,,,,,,,,,,,,,,,,,,,,,,,,,,,,,,,,,,,,,,,,,,,,,,,,,,,,,,,,,,,,,,,,,,,,,
175604,001,2022-11-20_18h08.17.738,Info_measure_main_exp,2022.2.2,Win32,60.11421701,,,space,133.8122,,,,,,,,,,,,,,,,,,,,,,,,,,,,,,,,,,,,,,,,,,,,,,,,,,,,,,,,,,,,,,,,,,,,,,,,,,,,,,,,,,,,,,,,,,,,,,,,,,,,,,,,,,,
175604,001,2022-11-20_18h08.17.738,Info_measure_main_exp,2022.2.2,Win32,60.11421701,,,,,space,37.5415,,,,,,,,,,,,,,,,,,,,,,,,,,,,,,,,,,,,,,,,,,,,,,,,,,,,,,,,,,,,,,,,,,,,,,,,,,,,,,,,,,,,,,,,,,,,,,,,,,,,,,,,,
175604,001,2022-11-20_18h08.17.738,Info_measure_main_exp,2022.2.2,Win32,60.11421701,,,,,,,space,32.8486,,,,,,,,,,,,,,,,,,,,,,,,,,,,,,,,,,,,,,,,,,,,,,,,,,,,,,,,,,,,,,,,,,,,,,,,,,,,,,,,,,,,,,,,,,,,,,,,,,,,,,,
175604,001,2022-11-20_18h08.17.738,Info_measure_main_exp,2022.2.2,Win32,60.11421701,,,,,,,,,space,31.6562,,,,,,,,,,,,,,,,,,,,,,,,,,,,,,,,,,,,,,,,,,,,,,,,,,,,,,,,,,,,,,,,,,,,,,,,,,,,,,,,,,,,,,,,,,,,,,,,,,,,,
175604,001,2022-11-20_18h08.17.738,Info_measure_main_exp,2022.2.2,Win32,60.11421701,,,,,,,,,,,space,4.9456,,,,,,,,,,,,,,,,,,,,,,,,,,,,,,,,,,,,,,,,,,,,,,,,,,,,,,,,,,,,,,,,,,,,,,,,,,,,,,,,,,,,,,,,,,,,,,,,,,,
175604,001,2022-11-20_18h08.17.738,Info_measure_main_exp,2022.2.2,Win32,60.11421701,,,,,,,,,,,,,0,0,0,1,1,masks/mask_002.jpg,,,,,,,,,,,,,,,,,,,,,,,,,,,,,,,,,,,,,,,,,,,,,,,,,,,,,,,,,,,,,,,,,,,,,,,,,,,,,,,,,,,,,,,,,,,,,
175604,001,2022-11-20_18h08.17.738,Info_measure_main_exp,2022.2.2,Win32,60.11421701,,,,,,,,,,,,,0,1,1,4,1,masks/mask_005.jpg,,,,,,,,,,,,,,,,,,,,,,,,,,,,,,,,,,,,,,,,,,,,,,,,,,,,,,,,,,,,,,,,,,,,,,,,,,,,,,,,,,,,,,,,,,,,,
175604,001,2022-11-20_18h08.17.738,Info_measure_main_exp,2022.2.2,Win32,60.11421701,,,,,,,,,,,,,0,2,2,3,1,masks/mask_004.jpg,,,,,,,,,,,,,,,,,,,,,,,,,,,,,,,,,,,,,,,,,,,,,,,,,,,,,,,,,,,,,,,,,,,,,,,,,,,,,,,,,,,,,,,,,,,,,
175604,001,2022-11-20_18h08.17.738,Info_measure_main_exp,2022.2.2,Win32,60.11421701,,,,,,,,,,,,,0,3,3,2,1,masks/mask_003.jpg,,,,,,,,,,,,,,,,,,,,,,,,,,,,,,,,,,,,,,,,,,,,,,,,,,,,,,,,,,,,,,,,,,,,,,,,,,,,,,,,,,,,,,,,,,,,,
175604,001,2022-11-20_18h08.17.738,Info_measure_main_exp,2022.2.2,Win32,60.11421701,,,,,,,,,,,,,0,4,4,0,1,masks/mask_001.jpg,,,,,,,,,,,,,,,,,,,,,,,,,,,,,,,,,,,,,,,,,,,,,,,,,,,,,,,,,,,,,,,,,,,,,,,,,,,,,,,,,,,,,,,,,,,,,
175604,001,2022-11-20_18h08.17.738,Info_measure_main_exp,2022.2.2,Win32,60.11421701,,,,,,,,,,,,,,,,,,masks/mask_004.jpg,0,0,0,3,1,,,,,,,,,,,,,,,,,,,,,,,,,,,,,,,,,,,,,,,,,,,,,,,,,,,,,,,,,,,,,,,,,,,,,,,,,,,,,,,,,,,,,,,,
175604,001,2022-11-20_18h08.17.738,Info_measure_main_exp,2022.2.2,Win32,60.11421701,,,,,,,,,,,,,,,,,,masks/mask_003.jpg,0,1,1,2,1,,,,,,,,,,,,,,,,,,,,,,,,,,,,,,,,,,,,,,,,,,,,,,,,,,,,,,,,,,,,,,,,,,,,,,,,,,,,,,,,,,,,,,,,
175604,001,2022-11-20_18h08.17.738,Info_measure_main_exp,2022.2.2,Win32,60.11421701,,,,,,,,,,,,,,,,,,masks/mask_001.jpg,0,2,2,0,1,,,,,,,,,,,,,,,,,,,,,,,,,,,,,,,,,,,,,,,,,,,,,,,,,,,,,,,,,,,,,,,,,,,,,,,,,,,,,,,,,,,,,,,,
175604,001,2022-11-20_18h08.17.738,Info_measure_main_exp,2022.2.2,Win32,60.11421701,,,,,,,,,,,,,,,,,,masks/mask_002.jpg,0,3,3,1,1,,,,,,,,,,,,,,,,,,,,,,,,,,,,,,,,,,,,,,,,,,,,,,,,,,,,,,,,,,,,,,,,,,,,,,,,,,,,,,,,,,,,,,,,
175604,001,2022-11-20_18h08.17.738,Info_measure_main_exp,2022.2.2,Win32,60.11421701,,,,,,,,,,,,,,,,,,masks/mask_005.jpg,0,4,4,4,1,,,,,,,,,,,,,,,,,,,,,,,,,,,,,,,,,,,,,,,,,,,,,,,,,,,,,,,,,,,,,,,,,,,,,,,,,,,,,,,,,,,,,,,,
175604,001,2022-11-20_18h08.17.738,Info_measure_main_exp,2022.2.2,Win32,60.11421701,,,,,,,,,,,,,,,,,,,,,,,,-0.029947917,0.111979167,1,0,0,response7disk,0,264.6251,1,0.002604167,-0.002604167,1,0,0,center_square,0,0,0,2,1,0,131,5,5,2526,2526,prac_patch/patch0002526.jpg,prac_patch/patch0002526.jpg,,,,,,,,,,,,,,,,,,,,,,,,,,,,,,,,,,,,,,,,,,,,,,,,,,,,,,,,,,,,
175604,001,2022-11-20_18h08.17.738,Info_measure_main_exp,2022.2.2,Win32,60.11421701,,,,,,,,,,,,,0,0,0,4,1,masks/mask_005.jpg,,,,,,,,,,,,,,,,,,,,,,,,,,,,,,,,,,,,,,,,,,,,,,,,,,,,,,,,,,,,,,,,,,,,,,,,,,,,,,,,,,,,,,,,,,,,,
175604,001,2022-11-20_18h08.17.738,Info_measure_main_exp,2022.2.2,Win32,60.11421701,,,,,,,,,,,,,0,1,1,1,1,masks/mask_002.jpg,,,,,,,,,,,,,,,,,,,,,,,,,,,,,,,,,,,,,,,,,,,,,,,,,,,,,,,,,,,,,,,,,,,,,,,,,,,,,,,,,,,,,,,,,,,,,
175604,001,2022-11-20_18h08.17.738,Info_measure_main_exp,2022.2.2,Win32,60.11421701,,,,,,,,,,,,,0,2,2,3,1,masks/mask_004.jpg,,,,,,,,,,,,,,,,,,,,,,,,,,,,,,,,,,,,,,,,,,,,,,,,,,,,,,,,,,,,,,,,,,,,,,,,,,,,,,,,,,,,,,,,,,,,,
175604,001,2022-11-20_18h08.17.738,Info_measure_main_exp,2022.2.2,Win32,60.11421701,,,,,,,,,,,,,0,3,3,2,1,masks/mask_003.jpg,,,,,,,,,,,,,,,,,,,,,,,,,,,,,,,,,,,,,,,,,,,,,,,,,,,,,,,,,,,,,,,,,,,,,,,,,,,,,,,,,,,,,,,,,,,,,
175604,001,2022-11-20_18h08.17.738,Info_measure_main_exp,2022.2.2,Win32,60.11421701,,,,,,,,,,,,,0,4,4,0,1,masks/mask_001.jpg,,,,,,,,,,,,,,,,,,,,,,,,,,,,,,,,,,,,,,,,,,,,,,,,,,,,,,,,,,,,,,,,,,,,,,,,,,,,,,,,,,,,,,,,,,,,,
175604,001,2022-11-20_18h08.17.738,Info_measure_main_exp,2022.2.2,Win32,60.11421701,,,,,,,,,,,,,,,,,,masks/mask_003.jpg,0,0,0,2,1,,,,,,,,,,,,,,,,,,,,,,,,,,,,,,,,,,,,,,,,,,,,,,,,,,,,,,,,,,,,,,,,,,,,,,,,,,,,,,,,,,,,,,,,
175604,001,2022-11-20_18h08.17.738,Info_measure_main_exp,2022.2.2,Win32,60.11421701,,,,,,,,,,,,,,,,,,masks/mask_005.jpg,0,1,1,4,1,,,,,,,,,,,,,,,,,,,,,,,,,,,,,,,,,,,,,,,,,,,,,,,,,,,,,,,,,,,,,,,,,,,,,,,,,,,,,,,,,,,,,,,,
175604,001,2022-11-20_18h08.17.738,Info_measure_main_exp,2022.2.2,Win32,60.11421701,,,,,,,,,,,,,,,,,,masks/mask_004.jpg,0,2,2,3,1,,,,,,,,,,,,,,,,,,,,,,,,,,,,,,,,,,,,,,,,,,,,,,,,,,,,,,,,,,,,,,,,,,,,,,,,,,,,,,,,,,,,,,,,
175604,001,2022-11-20_18h08.17.738,Info_measure_main_exp,2022.2.2,Win32,60.11421701,,,,,,,,,,,,,,,,,,masks/mask_001.jpg,0,3,3,0,1,,,,,,,,,,,,,,,,,,,,,,,,,,,,,,,,,,,,,,,,,,,,,,,,,,,,,,,,,,,,,,,,,,,,,,,,,,,,,,,,,,,,,,,,
175604,001,2022-11-20_18h08.17.738,Info_measure_main_exp,2022.2.2,Win32,60.11421701,,,,,,,,,,,,,,,,,,masks/mask_002.jpg,0,4,4,1,1,,,,,,,,,,,,,,,,,,,,,,,,,,,,,,,,,,,,,,,,,,,,,,,,,,,,,,,,,,,,,,,,,,,,,,,,,,,,,,,,,,,,,,,,
175604,001,2022-11-20_18h08.17.738,Info_measure_main_exp,2022.2.2,Win32,60.11421701,,,,,,,,,,,,,,,,,,,,,,,,-0.115885417,0.020833333,1,0,0,response7disk,1,276.7937,1,0.002604167,-0.006510417,1,0,0,center_square,0,1,1,1,1,0,131,5,5,2514,2490,prac_patch/patch0002514.jpg,prac_patch/patch0002490.jpg,,,,,,,,,,,,,,,,,,,,,,,,,,,,,,,,,,,,,,,,,,,,,,,,,,,,,,,,,,,,
175604,001,2022-11-20_18h08.17.738,Info_measure_main_exp,2022.2.2,Win32,60.11421701,,,,,,,,,,,,,0,0,0,2,1,masks/mask_003.jpg,,,,,,,,,,,,,,,,,,,,,,,,,,,,,,,,,,,,,,,,,,,,,,,,,,,,,,,,,,,,,,,,,,,,,,,,,,,,,,,,,,,,,,,,,,,,,
175604,001,2022-11-20_18h08.17.738,Info_measure_main_exp,2022.2.2,Win32,60.11421701,,,,,,,,,,,,,0,1,1,4,1,masks/mask_005.jpg,,,,,,,,,,,,,,,,,,,,,,,,,,,,,,,,,,,,,,,,,,,,,,,,,,,,,,,,,,,,,,,,,,,,,,,,,,,,,,,,,,,,,,,,,,,,,
175604,001,2022-11-20_18h08.17.738,Info_measure_main_exp,2022.2.2,Win32,60.11421701,,,,,,,,,,,,,0,2,2,1,1,masks/mask_002.jpg,,,,,,,,,,,,,,,,,,,,,,,,,,,,,,,,,,,,,,,,,,,,,,,,,,,,,,,,,,,,,,,,,,,,,,,,,,,,,,,,,,,,,,,,,,,,,
175604,001,2022-11-20_18h08.17.738,Info_measure_main_exp,2022.2.2,Win32,60.11421701,,,,,,,,,,,,,0,3,3,3,1,masks/mask_004.jpg,,,,,,,,,,,,,,,,,,,,,,,,,,,,,,,,,,,,,,,,,,,,,,,,,,,,,,,,,,,,,,,,,,,,,,,,,,,,,,,,,,,,,,,,,,,,,
175604,001,2022-11-20_18h08.17.738,Info_measure_main_exp,2022.2.2,Win32,60.11421701,,,,,,,,,,,,,0,4,4,0,1,masks/mask_001.jpg,,,,,,,,,,,,,,,,,,,,,,,,,,,,,,,,,,,,,,,,,,,,,,,,,,,,,,,,,,,,,,,,,,,,,,,,,,,,,,,,,,,,,,,,,,,,,
175604,001,2022-11-20_18h08.17.738,Info_measure_main_exp,2022.2.2,Win32,60.11421701,,,,,,,,,,,,,,,,,,masks/mask_003.jpg,0,0,0,2,1,,,,,,,,,,,,,,,,,,,,,,,,,,,,,,,,,,,,,,,,,,,,,,,,,,,,,,,,,,,,,,,,,,,,,,,,,,,,,,,,,,,,,,,,
175604,001,2022-11-20_18h08.17.738,Info_measure_main_exp,2022.2.2,Win32,60.11421701,,,,,,,,,,,,,,,,,,masks/mask_002.jpg,0,1,1,1,1,,,,,,,,,,,,,,,,,,,,,,,,,,,,,,,,,,,,,,,,,,,,,,,,,,,,,,,,,,,,,,,,,,,,,,,,,,,,,,,,,,,,,,,,
175604,001,2022-11-20_18h08.17.738,Info_measure_main_exp,2022.2.2,Win32,60.11421701,,,,,,,,,,,,,,,,,,masks/mask_001.jpg,0,2,2,0,1,,,,,,,,,,,,,,,,,,,,,,,,,,,,,,,,,,,,,,,,,,,,,,,,,,,,,,,,,,,,,,,,,,,,,,,,,,,,,,,,,,,,,,,,
175604,001,2022-11-20_18h08.17.738,Info_measure_main_exp,2022.2.2,Win32,60.11421701,,,,,,,,,,,,,,,,,,masks/mask_004.jpg,0,3,3,3,1,,,,,,,,,,,,,,,,,,,,,,,,,,,,,,,,,,,,,,,,,,,,,,,,,,,,,,,,,,,,,,,,,,,,,,,,,,,,,,,,,,,,,,,,
175604,001,2022-11-20_18h08.17.738,Info_measure_main_exp,2022.2.2,Win32,60.11421701,,,,,,,,,,,,,,,,,,masks/mask_005.jpg,0,4,4,4,1,,,,,,,,,,,,,,,,,,,,,,,,,,,,,,,,,,,,,,,,,,,,,,,,,,,,,,,,,,,,,,,,,,,,,,,,,,,,,,,,,,,,,,,,
175604,001,2022-11-20_18h08.17.738,Info_measure_main_exp,2022.2.2,Win32,60.11421701,,,,,,,,,,,,,,,,,,,,,,,,0.0546875,0.106770833,1,0,0,response1disk,7,285.7631,1,-0.001302083,0,1,0,0,center_square,0,2,2,0,1,0,131,5,5,2370,2406,prac_patch/patch0002370.jpg,prac_patch/patch0002406.jpg,,,,,,,,,,,,,,,,,,,,,,,,,,,,,,,,,,,,,,,,,,,,,,,,,,,,,,,,,,,,
175604,001,2022-11-20_18h08.17.738,Info_measure_main_exp,2022.2.2,Win32,60.11421701,,,,,,,,,,,,,,,,,,,,,,,,,,,,,,,,,,,,,,,,,,,,,,,,,,,,,,,,,,,space,2.3988,,,,,,,,,,,,,,,,,,,,,,,,,,,,,,,,,,,,,,,,,,,,,,,,,,,
175604,001,2022-11-20_18h08.17.738,Info_measure_main_exp,2022.2.2,Win32,60.11421701,,,,,,,,,,,,,,,,,,masks/mask_003.jpg,,,,,,,,,,,,,,,,,,,,,,,,,,,,,,,,,,,,,,,,,,,0,0,0,2,1,,,,,,,,,,,,,,,,,,,,,,,,,,,,,,,,,,,,,,,,,,,,,,
175604,001,2022-11-20_18h08.17.738,Info_measure_main_exp,2022.2.2,Win32,60.11421701,,,,,,,,,,,,,,,,,,masks/mask_002.jpg,,,,,,,,,,,,,,,,,,,,,,,,,,,,,,,,,,,,,,,,,,,0,1,1,1,1,,,,,,,,,,,,,,,,,,,,,,,,,,,,,,,,,,,,,,,,,,,,,,
175604,001,2022-11-20_18h08.17.738,Info_measure_main_exp,2022.2.2,Win32,60.11421701,,,,,,,,,,,,,,,,,,masks/mask_001.jpg,,,,,,,,,,,,,,,,,,,,,,,,,,,,,,,,,,,,,,,,,,,0,2,2,0,1,,,,,,,,,,,,,,,,,,,,,,,,,,,,,,,,,,,,,,,,,,,,,,
175604,001,2022-11-20_18h08.17.738,Info_measure_main_exp,2022.2.2,Win32,60.11421701,,,,,,,,,,,,,,,,,,masks/mask_005.jpg,,,,,,,,,,,,,,,,,,,,,,,,,,,,,,,,,,,,,,,,,,,0,3,3,4,1,,,,,,,,,,,,,,,,,,,,,,,,,,,,,,,,,,,,,,,,,,,,,,
175604,001,2022-11-20_18h08.17.738,Info_measure_main_exp,2022.2.2,Win32,60.11421701,,,,,,,,,,,,,,,,,,masks/mask_004.jpg,,,,,,,,,,,,,,,,,,,,,,,,,,,,,,,,,,,,,,,,,,,0,4,4,3,1,,,,,,,,,,,,,,,,,,,,,,,,,,,,,,,,,,,,,,,,,,,,,,
175604,001,2022-11-20_18h08.17.738,Info_measure_main_exp,2022.2.2,Win32,60.11421701,,,,,,,,,,,,,,,,,,masks/mask_002.jpg,,,,,,,,,,,,,,,,,,,,,,,,,,,,,,,,,,,,,,,,,,,,,,,,0,0,0,1,1,,,,,,,,,,,,,,,,,,,,,,,,,,,,,,,,,,,,,,,,,
175604,001,2022-11-20_18h08.17.738,Info_measure_main_exp,2022.2.2,Win32,60.11421701,,,,,,,,,,,,,,,,,,masks/mask_001.jpg,,,,,,,,,,,,,,,,,,,,,,,,,,,,,,,,,,,,,,,,,,,,,,,,0,1,1,0,1,,,,,,,,,,,,,,,,,,,,,,,,,,,,,,,,,,,,,,,,,
175604,001,2022-11-20_18h08.17.738,Info_measure_main_exp,2022.2.2,Win32,60.11421701,,,,,,,,,,,,,,,,,,masks/mask_003.jpg,,,,,,,,,,,,,,,,,,,,,,,,,,,,,,,,,,,,,,,,,,,,,,,,0,2,2,2,1,,,,,,,,,,,,,,,,,,,,,,,,,,,,,,,,,,,,,,,,,
175604,001,2022-11-20_18h08.17.738,Info_measure_main_exp,2022.2.2,Win32,60.11421701,,,,,,,,,,,,,,,,,,masks/mask_005.jpg,,,,,,,,,,,,,,,,,,,,,,,,,,,,,,,,,,,,,,,,,,,,,,,,0,3,3,4,1,,,,,,,,,,,,,,,,,,,,,,,,,,,,,,,,,,,,,,,,,
175604,001,2022-11-20_18h08.17.738,Info_measure_main_exp,2022.2.2,Win32,60.11421701,,,,,,,,,,,,,,,,,,masks/mask_004.jpg,,,,,,,,,,,,,,,,,,,,,,,,,,,,,,,,,,,,,,,,,,,,,,,,0,4,4,3,1,,,,,,,,,,,,,,,,,,,,,,,,,,,,,,,,,,,,,,,,,
175604,001,2022-11-20_18h08.17.738,Info_measure_main_exp,2022.2.2,Win32,60.11421701,,,,,,,,,,,,,,,,,,,,,,,,,,,,,,0,1.0677,1,,,,,,,,,,,,0,131,5,5,2166,2166,absent_patch/patch0002166.jpg,absent_patch/patch0002166.jpg,,,,,,,,,,,,,,,,,,,,-0.0625,0.115885417,1,0,0,response7disk,1,0.006510417,0.001302083,1,0,0,center_square,0,0,0,42,1,,,,,,,,,,,,,,,,,,,,,,,
175604,001,2022-11-20_18h08.17.738,Info_measure_main_exp,2022.2.2,Win32,60.11421701,,,,,,,,,,,,,,,,,,masks/mask_005.jpg,,,,,,,,,,,,,,,,,,,,,,,,,,,,,,,,,,,,,,,,,,,0,0,0,4,1,,,,,,,,,,,,,,,,,,,,,,,,,,,,,,,,,,,,,,,,,,,,,,
175604,001,2022-11-20_18h08.17.738,Info_measure_main_exp,2022.2.2,Win32,60.11421701,,,,,,,,,,,,,,,,,,masks/mask_004.jpg,,,,,,,,,,,,,,,,,,,,,,,,,,,,,,,,,,,,,,,,,,,0,1,1,3,1,,,,,,,,,,,,,,,,,,,,,,,,,,,,,,,,,,,,,,,,,,,,,,
175604,001,2022-11-20_18h08.17.738,Info_measure_main_exp,2022.2.2,Win32,60.11421701,,,,,,,,,,,,,,,,,,masks/mask_002.jpg,,,,,,,,,,,,,,,,,,,,,,,,,,,,,,,,,,,,,,,,,,,0,2,2,1,1,,,,,,,,,,,,,,,,,,,,,,,,,,,,,,,,,,,,,,,,,,,,,,
175604,001,2022-11-20_18h08.17.738,Info_measure_main_exp,2022.2.2,Win32,60.11421701,,,,,,,,,,,,,,,,,,masks/mask_003.jpg,,,,,,,,,,,,,,,,,,,,,,,,,,,,,,,,,,,,,,,,,,,0,3,3,2,1,,,,,,,,,,,,,,,,,,,,,,,,,,,,,,,,,,,,,,,,,,,,,,
175604,001,2022-11-20_18h08.17.738,Info_measure_main_exp,2022.2.2,Win32,60.11421701,,,,,,,,,,,,,,,,,,masks/mask_001.jpg,,,,,,,,,,,,,,,,,,,,,,,,,,,,,,,,,,,,,,,,,,,0,4,4,0,1,,,,,,,,,,,,,,,,,,,,,,,,,,,,,,,,,,,,,,,,,,,,,,
175604,001,2022-11-20_18h08.17.738,Info_measure_main_exp,2022.2.2,Win32,60.11421701,,,,,,,,,,,,,,,,,,masks/mask_004.jpg,,,,,,,,,,,,,,,,,,,,,,,,,,,,,,,,,,,,,,,,,,,,,,,,0,0,0,3,1,,,,,,,,,,,,,,,,,,,,,,,,,,,,,,,,,,,,,,,,,
175604,001,2022-11-20_18h08.17.738,Info_measure_main_exp,2022.2.2,Win32,60.11421701,,,,,,,,,,,,,,,,,,masks/mask_001.jpg,,,,,,,,,,,,,,,,,,,,,,,,,,,,,,,,,,,,,,,,,,,,,,,,0,1,1,0,1,,,,,,,,,,,,,,,,,,,,,,,,,,,,,,,,,,,,,,,,,
175604,001,2022-11-20_18h08.17.738,Info_measure_main_exp,2022.2.2,Win32,60.11421701,,,,,,,,,,,,,,,,,,masks/mask_002.jpg,,,,,,,,,,,,,,,,,,,,,,,,,,,,,,,,,,,,,,,,,,,,,,,,0,2,2,1,1,,,,,,,,,,,,,,,,,,,,,,,,,,,,,,,,,,,,,,,,,
175604,001,2022-11-20_18h08.17.738,Info_measure_main_exp,2022.2.2,Win32,60.11421701,,,,,,,,,,,,,,,,,,masks/mask_005.jpg,,,,,,,,,,,,,,,,,,,,,,,,,,,,,,,,,,,,,,,,,,,,,,,,0,3,3,4,1,,,,,,,,,,,,,,,,,,,,,,,,,,,,,,,,,,,,,,,,,
175604,001,2022-11-20_18h08.17.738,Info_measure_main_exp,2022.2.2,Win32,60.11421701,,,,,,,,,,,,,,,,,,masks/mask_003.jpg,,,,,,,,,,,,,,,,,,,,,,,,,,,,,,,,,,,,,,,,,,,,,,,,0,4,4,2,1,,,,,,,,,,,,,,,,,,,,,,,,,,,,,,,,,,,,,,,,,
175604,001,2022-11-20_18h08.17.738,Info_measure_main_exp,2022.2.2,Win32,60.11421701,,,,,,,,,,,,,,,,,,,,,,,,,,,,,,7,1.1001,1,,,,,,,,,,,,1,131,5,5,2082,1,absent_patch/patch0002082.jpg,present_patch/cong_131_5_a.jpg,,,,,,,,,,,,,,,,,,,,0.013020833,0.11328125,1,0,0,response1disk,2,0.006510417,0.009114583,1,0,0,center_square,0,1,1,65,1,,,,,,,,,,,,,,,,,,,,,,,
175604,001,2022-11-20_18h08.17.738,Info_measure_main_exp,2022.2.2,Win32,60.11421701,,,,,,,,,,,,,,,,,,masks/mask_003.jpg,,,,,,,,,,,,,,,,,,,,,,,,,,,,,,,,,,,,,,,,,,,0,0,0,2,1,,,,,,,,,,,,,,,,,,,,,,,,,,,,,,,,,,,,,,,,,,,,,,
175604,001,2022-11-20_18h08.17.738,Info_measure_main_exp,2022.2.2,Win32,60.11421701,,,,,,,,,,,,,,,,,,masks/mask_004.jpg,,,,,,,,,,,,,,,,,,,,,,,,,,,,,,,,,,,,,,,,,,,0,1,1,3,1,,,,,,,,,,,,,,,,,,,,,,,,,,,,,,,,,,,,,,,,,,,,,,
175604,001,2022-11-20_18h08.17.738,Info_measure_main_exp,2022.2.2,Win32,60.11421701,,,,,,,,,,,,,,,,,,masks/mask_005.jpg,,,,,,,,,,,,,,,,,,,,,,,,,,,,,,,,,,,,,,,,,,,0,2,2,4,1,,,,,,,,,,,,,,,,,,,,,,,,,,,,,,,,,,,,,,,,,,,,,,
175604,001,2022-11-20_18h08.17.738,Info_measure_main_exp,2022.2.2,Win32,60.11421701,,,,,,,,,,,,,,,,,,masks/mask_001.jpg,,,,,,,,,,,,,,,,,,,,,,,,,,,,,,,,,,,,,,,,,,,0,3,3,0,1,,,,,,,,,,,,,,,,,,,,,,,,,,,,,,,,,,,,,,,,,,,,,,
175604,001,2022-11-20_18h08.17.738,Info_measure_main_exp,2022.2.2,Win32,60.11421701,,,,,,,,,,,,,,,,,,masks/mask_002.jpg,,,,,,,,,,,,,,,,,,,,,,,,,,,,,,,,,,,,,,,,,,,0,4,4,1,1,,,,,,,,,,,,,,,,,,,,,,,,,,,,,,,,,,,,,,,,,,,,,,
175604,001,2022-11-20_18h08.17.738,Info_measure_main_exp,2022.2.2,Win32,60.11421701,,,,,,,,,,,,,,,,,,masks/mask_001.jpg,,,,,,,,,,,,,,,,,,,,,,,,,,,,,,,,,,,,,,,,,,,,,,,,0,0,0,0,1,,,,,,,,,,,,,,,,,,,,,,,,,,,,,,,,,,,,,,,,,
175604,001,2022-11-20_18h08.17.738,Info_measure_main_exp,2022.2.2,Win32,60.11421701,,,,,,,,,,,,,,,,,,masks/mask_003.jpg,,,,,,,,,,,,,,,,,,,,,,,,,,,,,,,,,,,,,,,,,,,,,,,,0,1,1,2,1,,,,,,,,,,,,,,,,,,,,,,,,,,,,,,,,,,,,,,,,,
175604,001,2022-11-20_18h08.17.738,Info_measure_main_exp,2022.2.2,Win32,60.11421701,,,,,,,,,,,,,,,,,,masks/mask_002.jpg,,,,,,,,,,,,,,,,,,,,,,,,,,,,,,,,,,,,,,,,,,,,,,,,0,2,2,1,1,,,,,,,,,,,,,,,,,,,,,,,,,,,,,,,,,,,,,,,,,
175604,001,2022-11-20_18h08.17.738,Info_measure_main_exp,2022.2.2,Win32,60.11421701,,,,,,,,,,,,,,,,,,masks/mask_004.jpg,,,,,,,,,,,,,,,,,,,,,,,,,,,,,,,,,,,,,,,,,,,,,,,,0,3,3,3,1,,,,,,,,,,,,,,,,,,,,,,,,,,,,,,,,,,,,,,,,,
175604,001,2022-11-20_18h08.17.738,Info_measure_main_exp,2022.2.2,Win32,60.11421701,,,,,,,,,,,,,,,,,,masks/mask_005.jpg,,,,,,,,,,,,,,,,,,,,,,,,,,,,,,,,,,,,,,,,,,,,,,,,0,4,4,4,1,,,,,,,,,,,,,,,,,,,,,,,,,,,,,,,,,,,,,,,,,
175604,001,2022-11-20_18h08.17.738,Info_measure_main_exp,2022.2.2,Win32,60.11421701,,,,,,,,,,,,,,,,,,,,,,,,,,,,,,4,1.3438,1,,,,,,,,,,,,0,131,5,5,1950,2082,absent_patch/patch0001950.jpg,absent_patch/patch0002082.jpg,,,,,,,,,,,,,,,,,,,,0.067708333,-0.141927083,1,0,0,response3disk,3,-0.009114583,0.002604167,1,0,0,center_square,0,2,2,12,1,,,,,,,,,,,,,,,,,,,,,,,
175604,001,2022-11-20_18h08.17.738,Info_measure_main_exp,2022.2.2,Win32,60.11421701,,,,,,,,,,,,,,,,,,masks/mask_003.jpg,,,,,,,,,,,,,,,,,,,,,,,,,,,,,,,,,,,,,,,,,,,0,0,0,2,1,,,,,,,,,,,,,,,,,,,,,,,,,,,,,,,,,,,,,,,,,,,,,,
175604,001,2022-11-20_18h08.17.738,Info_measure_main_exp,2022.2.2,Win32,60.11421701,,,,,,,,,,,,,,,,,,masks/mask_002.jpg,,,,,,,,,,,,,,,,,,,,,,,,,,,,,,,,,,,,,,,,,,,0,1,1,1,1,,,,,,,,,,,,,,,,,,,,,,,,,,,,,,,,,,,,,,,,,,,,,,
175604,001,2022-11-20_18h08.17.738,Info_measure_main_exp,2022.2.2,Win32,60.11421701,,,,,,,,,,,,,,,,,,masks/mask_001.jpg,,,,,,,,,,,,,,,,,,,,,,,,,,,,,,,,,,,,,,,,,,,0,2,2,0,1,,,,,,,,,,,,,,,,,,,,,,,,,,,,,,,,,,,,,,,,,,,,,,
175604,001,2022-11-20_18h08.17.738,Info_measure_main_exp,2022.2.2,Win32,60.11421701,,,,,,,,,,,,,,,,,,masks/mask_005.jpg,,,,,,,,,,,,,,,,,,,,,,,,,,,,,,,,,,,,,,,,,,,0,3,3,4,1,,,,,,,,,,,,,,,,,,,,,,,,,,,,,,,,,,,,,,,,,,,,,,
175604,001,2022-11-20_18h08.17.738,Info_measure_main_exp,2022.2.2,Win32,60.11421701,,,,,,,,,,,,,,,,,,masks/mask_004.jpg,,,,,,,,,,,,,,,,,,,,,,,,,,,,,,,,,,,,,,,,,,,0,4,4,3,1,,,,,,,,,,,,,,,,,,,,,,,,,,,,,,,,,,,,,,,,,,,,,,
175604,001,2022-11-20_18h08.17.738,Info_measure_main_exp,2022.2.2,Win32,60.11421701,,,,,,,,,,,,,,,,,,masks/mask_003.jpg,,,,,,,,,,,,,,,,,,,,,,,,,,,,,,,,,,,,,,,,,,,,,,,,0,0,0,2,1,,,,,,,,,,,,,,,,,,,,,,,,,,,,,,,,,,,,,,,,,
175604,001,2022-11-20_18h08.17.738,Info_measure_main_exp,2022.2.2,Win32,60.11421701,,,,,,,,,,,,,,,,,,masks/mask_005.jpg,,,,,,,,,,,,,,,,,,,,,,,,,,,,,,,,,,,,,,,,,,,,,,,,0,1,1,4,1,,,,,,,,,,,,,,,,,,,,,,,,,,,,,,,,,,,,,,,,,
175604,001,2022-11-20_18h08.17.738,Info_measure_main_exp,2022.2.2,Win32,60.11421701,,,,,,,,,,,,,,,,,,masks/mask_001.jpg,,,,,,,,,,,,,,,,,,,,,,,,,,,,,,,,,,,,,,,,,,,,,,,,0,2,2,0,1,,,,,,,,,,,,,,,,,,,,,,,,,,,,,,,,,,,,,,,,,
175604,001,2022-11-20_18h08.17.738,Info_measure_main_exp,2022.2.2,Win32,60.11421701,,,,,,,,,,,,,,,,,,masks/mask_002.jpg,,,,,,,,,,,,,,,,,,,,,,,,,,,,,,,,,,,,,,,,,,,,,,,,0,3,3,1,1,,,,,,,,,,,,,,,,,,,,,,,,,,,,,,,,,,,,,,,,,
175604,001,2022-11-20_18h08.17.738,Info_measure_main_exp,2022.2.2,Win32,60.11421701,,,,,,,,,,,,,,,,,,masks/mask_004.jpg,,,,,,,,,,,,,,,,,,,,,,,,,,,,,,,,,,,,,,,,,,,,,,,,0,4,4,3,1,,,,,,,,,,,,,,,,,,,,,,,,,,,,,,,,,,,,,,,,,
175604,001,2022-11-20_18h08.17.738,Info_measure_main_exp,2022.2.2,Win32,60.11421701,,,,,,,,,,,,,,,,,,,,,,,,,,,,,,5,1.6003,1,,,,,,,,,,,,0,131,5,5,1950,2142,absent_patch/patch0001950.jpg,absent_patch/patch0002142.jpg,,,,,,,,,,,,,,,,,,,,0.157552083,-0.072916667,1,0,0,response3disk,4,-0.006510417,0.001302083,1,0,0,center_square,0,3,3,83,1,,,,,,,,,,,,,,,,,,,,,,,
175604,001,2022-11-20_18h08.17.738,Info_measure_main_exp,2022.2.2,Win32,60.11421701,,,,,,,,,,,,,,,,,,masks/mask_001.jpg,,,,,,,,,,,,,,,,,,,,,,,,,,,,,,,,,,,,,,,,,,,0,0,0,0,1,,,,,,,,,,,,,,,,,,,,,,,,,,,,,,,,,,,,,,,,,,,,,,
175604,001,2022-11-20_18h08.17.738,Info_measure_main_exp,2022.2.2,Win32,60.11421701,,,,,,,,,,,,,,,,,,masks/mask_005.jpg,,,,,,,,,,,,,,,,,,,,,,,,,,,,,,,,,,,,,,,,,,,0,1,1,4,1,,,,,,,,,,,,,,,,,,,,,,,,,,,,,,,,,,,,,,,,,,,,,,
175604,001,2022-11-20_18h08.17.738,Info_measure_main_exp,2022.2.2,Win32,60.11421701,,,,,,,,,,,,,,,,,,masks/mask_003.jpg,,,,,,,,,,,,,,,,,,,,,,,,,,,,,,,,,,,,,,,,,,,0,2,2,2,1,,,,,,,,,,,,,,,,,,,,,,,,,,,,,,,,,,,,,,,,,,,,,,
175604,001,2022-11-20_18h08.17.738,Info_measure_main_exp,2022.2.2,Win32,60.11421701,,,,,,,,,,,,,,,,,,masks/mask_004.jpg,,,,,,,,,,,,,,,,,,,,,,,,,,,,,,,,,,,,,,,,,,,0,3,3,3,1,,,,,,,,,,,,,,,,,,,,,,,,,,,,,,,,,,,,,,,,,,,,,,
175604,001,2022-11-20_18h08.17.738,Info_measure_main_exp,2022.2.2,Win32,60.11421701,,,,,,,,,,,,,,,,,,masks/mask_002.jpg,,,,,,,,,,,,,,,,,,,,,,,,,,,,,,,,,,,,,,,,,,,0,4,4,1,1,,,,,,,,,,,,,,,,,,,,,,,,,,,,,,,,,,,,,,,,,,,,,,
175604,001,2022-11-20_18h08.17.738,Info_measure_main_exp,2022.2.2,Win32,60.11421701,,,,,,,,,,,,,,,,,,masks/mask_003.jpg,,,,,,,,,,,,,,,,,,,,,,,,,,,,,,,,,,,,,,,,,,,,,,,,0,0,0,2,1,,,,,,,,,,,,,,,,,,,,,,,,,,,,,,,,,,,,,,,,,
175604,001,2022-11-20_18h08.17.738,Info_measure_main_exp,2022.2.2,Win32,60.11421701,,,,,,,,,,,,,,,,,,masks/mask_002.jpg,,,,,,,,,,,,,,,,,,,,,,,,,,,,,,,,,,,,,,,,,,,,,,,,0,1,1,1,1,,,,,,,,,,,,,,,,,,,,,,,,,,,,,,,,,,,,,,,,,
175604,001,2022-11-20_18h08.17.738,Info_measure_main_exp,2022.2.2,Win32,60.11421701,,,,,,,,,,,,,,,,,,masks/mask_005.jpg,,,,,,,,,,,,,,,,,,,,,,,,,,,,,,,,,,,,,,,,,,,,,,,,0,2,2,4,1,,,,,,,,,,,,,,,,,,,,,,,,,,,,,,,,,,,,,,,,,
175604,001,2022-11-20_18h08.17.738,Info_measure_main_exp,2022.2.2,Win32,60.11421701,,,,,,,,,,,,,,,,,,masks/mask_004.jpg,,,,,,,,,,,,,,,,,,,,,,,,,,,,,,,,,,,,,,,,,,,,,,,,0,3,3,3,1,,,,,,,,,,,,,,,,,,,,,,,,,,,,,,,,,,,,,,,,,
175604,001,2022-11-20_18h08.17.738,Info_measure_main_exp,2022.2.2,Win32,60.11421701,,,,,,,,,,,,,,,,,,masks/mask_001.jpg,,,,,,,,,,,,,,,,,,,,,,,,,,,,,,,,,,,,,,,,,,,,,,,,0,4,4,0,1,,,,,,,,,,,,,,,,,,,,,,,,,,,,,,,,,,,,,,,,,
175604,001,2022-11-20_18h08.17.738,Info_measure_main_exp,2022.2.2,Win32,60.11421701,,,,,,,,,,,,,,,,,,,,,,,,,,,,,,7,0.7349,1,,,,,,,,,,,,0,131,5,5,2082,2238,absent_patch/patch0002082.jpg,absent_patch/patch0002238.jpg,,,,,,,,,,,,,,,,,,,,0.04296875,0.092447917,1,0,0,response1disk,5,0,0.001302083,1,0,0,center_square,0,4,4,22,1,,,,,,,,,,,,,,,,,,,,,,,
175604,001,2022-11-20_18h08.17.738,Info_measure_main_exp,2022.2.2,Win32,60.11421701,,,,,,,,,,,,,,,,,,masks/mask_001.jpg,,,,,,,,,,,,,,,,,,,,,,,,,,,,,,,,,,,,,,,,,,,0,0,0,0,1,,,,,,,,,,,,,,,,,,,,,,,,,,,,,,,,,,,,,,,,,,,,,,
175604,001,2022-11-20_18h08.17.738,Info_measure_main_exp,2022.2.2,Win32,60.11421701,,,,,,,,,,,,,,,,,,masks/mask_002.jpg,,,,,,,,,,,,,,,,,,,,,,,,,,,,,,,,,,,,,,,,,,,0,1,1,1,1,,,,,,,,,,,,,,,,,,,,,,,,,,,,,,,,,,,,,,,,,,,,,,
175604,001,2022-11-20_18h08.17.738,Info_measure_main_exp,2022.2.2,Win32,60.11421701,,,,,,,,,,,,,,,,,,masks/mask_004.jpg,,,,,,,,,,,,,,,,,,,,,,,,,,,,,,,,,,,,,,,,,,,0,2,2,3,1,,,,,,,,,,,,,,,,,,,,,,,,,,,,,,,,,,,,,,,,,,,,,,
175604,001,2022-11-20_18h08.17.738,Info_measure_main_exp,2022.2.2,Win32,60.11421701,,,,,,,,,,,,,,,,,,masks/mask_003.jpg,,,,,,,,,,,,,,,,,,,,,,,,,,,,,,,,,,,,,,,,,,,0,3,3,2,1,,,,,,,,,,,,,,,,,,,,,,,,,,,,,,,,,,,,,,,,,,,,,,
175604,001,2022-11-20_18h08.17.738,Info_measure_main_exp,2022.2.2,Win32,60.11421701,,,,,,,,,,,,,,,,,,masks/mask_005.jpg,,,,,,,,,,,,,,,,,,,,,,,,,,,,,,,,,,,,,,,,,,,0,4,4,4,1,,,,,,,,,,,,,,,,,,,,,,,,,,,,,,,,,,,,,,,,,,,,,,
175604,001,2022-11-20_18h08.17.738,Info_measure_main_exp,2022.2.2,Win32,60.11421701,,,,,,,,,,,,,,,,,,masks/mask_001.jpg,,,,,,,,,,,,,,,,,,,,,,,,,,,,,,,,,,,,,,,,,,,,,,,,0,0,0,0,1,,,,,,,,,,,,,,,,,,,,,,,,,,,,,,,,,,,,,,,,,
175604,001,2022-11-20_18h08.17.738,Info_measure_main_exp,2022.2.2,Win32,60.11421701,,,,,,,,,,,,,,,,,,masks/mask_004.jpg,,,,,,,,,,,,,,,,,,,,,,,,,,,,,,,,,,,,,,,,,,,,,,,,0,1,1,3,1,,,,,,,,,,,,,,,,,,,,,,,,,,,,,,,,,,,,,,,,,
175604,001,2022-11-20_18h08.17.738,Info_measure_main_exp,2022.2.2,Win32,60.11421701,,,,,,,,,,,,,,,,,,masks/mask_003.jpg,,,,,,,,,,,,,,,,,,,,,,,,,,,,,,,,,,,,,,,,,,,,,,,,0,2,2,2,1,,,,,,,,,,,,,,,,,,,,,,,,,,,,,,,,,,,,,,,,,
175604,001,2022-11-20_18h08.17.738,Info_measure_main_exp,2022.2.2,Win32,60.11421701,,,,,,,,,,,,,,,,,,masks/mask_005.jpg,,,,,,,,,,,,,,,,,,,,,,,,,,,,,,,,,,,,,,,,,,,,,,,,0,3,3,4,1,,,,,,,,,,,,,,,,,,,,,,,,,,,,,,,,,,,,,,,,,
175604,001,2022-11-20_18h08.17.738,Info_measure_main_exp,2022.2.2,Win32,60.11421701,,,,,,,,,,,,,,,,,,masks/mask_002.jpg,,,,,,,,,,,,,,,,,,,,,,,,,,,,,,,,,,,,,,,,,,,,,,,,0,4,4,1,1,,,,,,,,,,,,,,,,,,,,,,,,,,,,,,,,,,,,,,,,,
175604,001,2022-11-20_18h08.17.738,Info_measure_main_exp,2022.2.2,Win32,60.11421701,,,,,,,,,,,,,,,,,,,,,,,,,,,,,,1,1.1824,1,,,,,,,,,,,,0,131,5,5,1974,1950,absent_patch/patch0001974.jpg,absent_patch/patch0001950.jpg,,,,,,,,,,,,,,,,,,,,-0.084635417,0.020833333,1,0,0,response7disk,6,0.002604167,0.002604167,1,0,0,center_square,0,5,5,17,1,,,,,,,,,,,,,,,,,,,,,,,
175604,001,2022-11-20_18h08.17.738,Info_measure_main_exp,2022.2.2,Win32,60.11421701,,,,,,,,,,,,,,,,,,masks/mask_005.jpg,,,,,,,,,,,,,,,,,,,,,,,,,,,,,,,,,,,,,,,,,,,0,0,0,4,1,,,,,,,,,,,,,,,,,,,,,,,,,,,,,,,,,,,,,,,,,,,,,,
175604,001,2022-11-20_18h08.17.738,Info_measure_main_exp,2022.2.2,Win32,60.11421701,,,,,,,,,,,,,,,,,,masks/mask_004.jpg,,,,,,,,,,,,,,,,,,,,,,,,,,,,,,,,,,,,,,,,,,,0,1,1,3,1,,,,,,,,,,,,,,,,,,,,,,,,,,,,,,,,,,,,,,,,,,,,,,
175604,001,2022-11-20_18h08.17.738,Info_measure_main_exp,2022.2.2,Win32,60.11421701,,,,,,,,,,,,,,,,,,masks/mask_001.jpg,,,,,,,,,,,,,,,,,,,,,,,,,,,,,,,,,,,,,,,,,,,0,2,2,0,1,,,,,,,,,,,,,,,,,,,,,,,,,,,,,,,,,,,,,,,,,,,,,,
175604,001,2022-11-20_18h08.17.738,Info_measure_main_exp,2022.2.2,Win32,60.11421701,,,,,,,,,,,,,,,,,,masks/mask_002.jpg,,,,,,,,,,,,,,,,,,,,,,,,,,,,,,,,,,,,,,,,,,,0,3,3,1,1,,,,,,,,,,,,,,,,,,,,,,,,,,,,,,,,,,,,,,,,,,,,,,
175604,001,2022-11-20_18h08.17.738,Info_measure_main_exp,2022.2.2,Win32,60.11421701,,,,,,,,,,,,,,,,,,masks/mask_003.jpg,,,,,,,,,,,,,,,,,,,,,,,,,,,,,,,,,,,,,,,,,,,0,4,4,2,1,,,,,,,,,,,,,,,,,,,,,,,,,,,,,,,,,,,,,,,,,,,,,,
175604,001,2022-11-20_18h08.17.738,Info_measure_main_exp,2022.2.2,Win32,60.11421701,,,,,,,,,,,,,,,,,,masks/mask_002.jpg,,,,,,,,,,,,,,,,,,,,,,,,,,,,,,,,,,,,,,,,,,,,,,,,0,0,0,1,1,,,,,,,,,,,,,,,,,,,,,,,,,,,,,,,,,,,,,,,,,
175604,001,2022-11-20_18h08.17.738,Info_measure_main_exp,2022.2.2,Win32,60.11421701,,,,,,,,,,,,,,,,,,masks/mask_005.jpg,,,,,,,,,,,,,,,,,,,,,,,,,,,,,,,,,,,,,,,,,,,,,,,,0,1,1,4,1,,,,,,,,,,,,,,,,,,,,,,,,,,,,,,,,,,,,,,,,,
175604,001,2022-11-20_18h08.17.738,Info_measure_main_exp,2022.2.2,Win32,60.11421701,,,,,,,,,,,,,,,,,,masks/mask_004.jpg,,,,,,,,,,,,,,,,,,,,,,,,,,,,,,,,,,,,,,,,,,,,,,,,0,2,2,3,1,,,,,,,,,,,,,,,,,,,,,,,,,,,,,,,,,,,,,,,,,
175604,001,2022-11-20_18h08.17.738,Info_measure_main_exp,2022.2.2,Win32,60.11421701,,,,,,,,,,,,,,,,,,masks/mask_003.jpg,,,,,,,,,,,,,,,,,,,,,,,,,,,,,,,,,,,,,,,,,,,,,,,,0,3,3,2,1,,,,,,,,,,,,,,,,,,,,,,,,,,,,,,,,,,,,,,,,,
175604,001,2022-11-20_18h08.17.738,Info_measure_main_exp,2022.2.2,Win32,60.11421701,,,,,,,,,,,,,,,,,,masks/mask_001.jpg,,,,,,,,,,,,,,,,,,,,,,,,,,,,,,,,,,,,,,,,,,,,,,,,0,4,4,0,1,,,,,,,,,,,,,,,,,,,,,,,,,,,,,,,,,,,,,,,,,
175604,001,2022-11-20_18h08.17.738,Info_measure_main_exp,2022.2.2,Win32,60.11421701,,,,,,,,,,,,,,,,,,,,,,,,,,,,,,7,1.083,1,,,,,,,,,,,,0,131,5,5,1974,2166,absent_patch/patch0001974.jpg,absent_patch/patch0002166.jpg,,,,,,,,,,,,,,,,,,,,0.028645833,0.095052083,1,0,0,response1disk,7,-0.002604167,-0.01171875,1,0,0,center_square,0,6,6,77,1,,,,,,,,,,,,,,,,,,,,,,,
175604,001,2022-11-20_18h08.17.738,Info_measure_main_exp,2022.2.2,Win32,60.11421701,,,,,,,,,,,,,,,,,,masks/mask_005.jpg,,,,,,,,,,,,,,,,,,,,,,,,,,,,,,,,,,,,,,,,,,,0,0,0,4,1,,,,,,,,,,,,,,,,,,,,,,,,,,,,,,,,,,,,,,,,,,,,,,
175604,001,2022-11-20_18h08.17.738,Info_measure_main_exp,2022.2.2,Win32,60.11421701,,,,,,,,,,,,,,,,,,masks/mask_002.jpg,,,,,,,,,,,,,,,,,,,,,,,,,,,,,,,,,,,,,,,,,,,0,1,1,1,1,,,,,,,,,,,,,,,,,,,,,,,,,,,,,,,,,,,,,,,,,,,,,,
175604,001,2022-11-20_18h08.17.738,Info_measure_main_exp,2022.2.2,Win32,60.11421701,,,,,,,,,,,,,,,,,,masks/mask_004.jpg,,,,,,,,,,,,,,,,,,,,,,,,,,,,,,,,,,,,,,,,,,,0,2,2,3,1,,,,,,,,,,,,,,,,,,,,,,,,,,,,,,,,,,,,,,,,,,,,,,
175604,001,2022-11-20_18h08.17.738,Info_measure_main_exp,2022.2.2,Win32,60.11421701,,,,,,,,,,,,,,,,,,masks/mask_003.jpg,,,,,,,,,,,,,,,,,,,,,,,,,,,,,,,,,,,,,,,,,,,0,3,3,2,1,,,,,,,,,,,,,,,,,,,,,,,,,,,,,,,,,,,,,,,,,,,,,,
175604,001,2022-11-20_18h08.17.738,Info_measure_main_exp,2022.2.2,Win32,60.11421701,,,,,,,,,,,,,,,,,,masks/mask_001.jpg,,,,,,,,,,,,,,,,,,,,,,,,,,,,,,,,,,,,,,,,,,,0,4,4,0,1,,,,,,,,,,,,,,,,,,,,,,,,,,,,,,,,,,,,,,,,,,,,,,
175604,001,2022-11-20_18h08.17.738,Info_measure_main_exp,2022.2.2,Win32,60.11421701,,,,,,,,,,,,,,,,,,masks/mask_004.jpg,,,,,,,,,,,,,,,,,,,,,,,,,,,,,,,,,,,,,,,,,,,,,,,,0,0,0,3,1,,,,,,,,,,,,,,,,,,,,,,,,,,,,,,,,,,,,,,,,,
175604,001,2022-11-20_18h08.17.738,Info_measure_main_exp,2022.2.2,Win32,60.11421701,,,,,,,,,,,,,,,,,,masks/mask_005.jpg,,,,,,,,,,,,,,,,,,,,,,,,,,,,,,,,,,,,,,,,,,,,,,,,0,1,1,4,1,,,,,,,,,,,,,,,,,,,,,,,,,,,,,,,,,,,,,,,,,
175604,001,2022-11-20_18h08.17.738,Info_measure_main_exp,2022.2.2,Win32,60.11421701,,,,,,,,,,,,,,,,,,masks/mask_003.jpg,,,,,,,,,,,,,,,,,,,,,,,,,,,,,,,,,,,,,,,,,,,,,,,,0,2,2,2,1,,,,,,,,,,,,,,,,,,,,,,,,,,,,,,,,,,,,,,,,,
175604,001,2022-11-20_18h08.17.738,Info_measure_main_exp,2022.2.2,Win32,60.11421701,,,,,,,,,,,,,,,,,,masks/mask_001.jpg,,,,,,,,,,,,,,,,,,,,,,,,,,,,,,,,,,,,,,,,,,,,,,,,0,3,3,0,1,,,,,,,,,,,,,,,,,,,,,,,,,,,,,,,,,,,,,,,,,
175604,001,2022-11-20_18h08.17.738,Info_measure_main_exp,2022.2.2,Win32,60.11421701,,,,,,,,,,,,,,,,,,masks/mask_002.jpg,,,,,,,,,,,,,,,,,,,,,,,,,,,,,,,,,,,,,,,,,,,,,,,,0,4,4,1,1,,,,,,,,,,,,,,,,,,,,,,,,,,,,,,,,,,,,,,,,,
175604,001,2022-11-20_18h08.17.738,Info_measure_main_exp,2022.2.2,Win32,60.11421701,,,,,,,,,,,,,,,,,,,,,,,,,,,,,,7,1.3692,1,,,,,,,,,,,,0,131,5,5,2274,2154,absent_patch/patch0002274.jpg,absent_patch/patch0002154.jpg,,,,,,,,,,,,,,,,,,,,0.0625,0.158854167,1,0,0,response1disk,8,0.010416667,-0.006510417,1,0,0,center_square,0,7,7,23,1,,,,,,,,,,,,,,,,,,,,,,,
175604,001,2022-11-20_18h08.17.738,Info_measure_main_exp,2022.2.2,Win32,60.11421701,,,,,,,,,,,,,,,,,,masks/mask_003.jpg,,,,,,,,,,,,,,,,,,,,,,,,,,,,,,,,,,,,,,,,,,,0,0,0,2,1,,,,,,,,,,,,,,,,,,,,,,,,,,,,,,,,,,,,,,,,,,,,,,
175604,001,2022-11-20_18h08.17.738,Info_measure_main_exp,2022.2.2,Win32,60.11421701,,,,,,,,,,,,,,,,,,masks/mask_001.jpg,,,,,,,,,,,,,,,,,,,,,,,,,,,,,,,,,,,,,,,,,,,0,1,1,0,1,,,,,,,,,,,,,,,,,,,,,,,,,,,,,,,,,,,,,,,,,,,,,,
175604,001,2022-11-20_18h08.17.738,Info_measure_main_exp,2022.2.2,Win32,60.11421701,,,,,,,,,,,,,,,,,,masks/mask_004.jpg,,,,,,,,,,,,,,,,,,,,,,,,,,,,,,,,,,,,,,,,,,,0,2,2,3,1,,,,,,,,,,,,,,,,,,,,,,,,,,,,,,,,,,,,,,,,,,,,,,
175604,001,2022-11-20_18h08.17.738,Info_measure_main_exp,2022.2.2,Win32,60.11421701,,,,,,,,,,,,,,,,,,masks/mask_005.jpg,,,,,,,,,,,,,,,,,,,,,,,,,,,,,,,,,,,,,,,,,,,0,3,3,4,1,,,,,,,,,,,,,,,,,,,,,,,,,,,,,,,,,,,,,,,,,,,,,,
175604,001,2022-11-20_18h08.17.738,Info_measure_main_exp,2022.2.2,Win32,60.11421701,,,,,,,,,,,,,,,,,,masks/mask_002.jpg,,,,,,,,,,,,,,,,,,,,,,,,,,,,,,,,,,,,,,,,,,,0,4,4,1,1,,,,,,,,,,,,,,,,,,,,,,,,,,,,,,,,,,,,,,,,,,,,,,
175604,001,2022-11-20_18h08.17.738,Info_measure_main_exp,2022.2.2,Win32,60.11421701,,,,,,,,,,,,,,,,,,masks/mask_003.jpg,,,,,,,,,,,,,,,,,,,,,,,,,,,,,,,,,,,,,,,,,,,,,,,,0,0,0,2,1,,,,,,,,,,,,,,,,,,,,,,,,,,,,,,,,,,,,,,,,,
175604,001,2022-11-20_18h08.17.738,Info_measure_main_exp,2022.2.2,Win32,60.11421701,,,,,,,,,,,,,,,,,,masks/mask_002.jpg,,,,,,,,,,,,,,,,,,,,,,,,,,,,,,,,,,,,,,,,,,,,,,,,0,1,1,1,1,,,,,,,,,,,,,,,,,,,,,,,,,,,,,,,,,,,,,,,,,
175604,001,2022-11-20_18h08.17.738,Info_measure_main_exp,2022.2.2,Win32,60.11421701,,,,,,,,,,,,,,,,,,masks/mask_004.jpg,,,,,,,,,,,,,,,,,,,,,,,,,,,,,,,,,,,,,,,,,,,,,,,,0,2,2,3,1,,,,,,,,,,,,,,,,,,,,,,,,,,,,,,,,,,,,,,,,,
175604,001,2022-11-20_18h08.17.738,Info_measure_main_exp,2022.2.2,Win32,60.11421701,,,,,,,,,,,,,,,,,,masks/mask_005.jpg,,,,,,,,,,,,,,,,,,,,,,,,,,,,,,,,,,,,,,,,,,,,,,,,0,3,3,4,1,,,,,,,,,,,,,,,,,,,,,,,,,,,,,,,,,,,,,,,,,
175604,001,2022-11-20_18h08.17.738,Info_measure_main_exp,2022.2.2,Win32,60.11421701,,,,,,,,,,,,,,,,,,masks/mask_001.jpg,,,,,,,,,,,,,,,,,,,,,,,,,,,,,,,,,,,,,,,,,,,,,,,,0,4,4,0,1,,,,,,,,,,,,,,,,,,,,,,,,,,,,,,,,,,,,,,,,,
175604,001,2022-11-20_18h08.17.738,Info_measure_main_exp,2022.2.2,Win32,60.11421701,,,,,,,,,,,,,,,,,,,,,,,,,,,,,,5,2.5802,1,,,,,,,,,,,,0,131,5,5,2190,2178,absent_patch/patch0002190.jpg,absent_patch/patch0002178.jpg,,,,,,,,,,,,,,,,,,,,0.119791667,-0.0546875,1,0,0,response3disk,9,-0.0078125,0.001302083,1,0,0,center_square,0,8,8,14,1,,,,,,,,,,,,,,,,,,,,,,,
175604,001,2022-11-20_18h08.17.738,Info_measure_main_exp,2022.2.2,Win32,60.11421701,,,,,,,,,,,,,,,,,,masks/mask_002.jpg,,,,,,,,,,,,,,,,,,,,,,,,,,,,,,,,,,,,,,,,,,,0,0,0,1,1,,,,,,,,,,,,,,,,,,,,,,,,,,,,,,,,,,,,,,,,,,,,,,
175604,001,2022-11-20_18h08.17.738,Info_measure_main_exp,2022.2.2,Win32,60.11421701,,,,,,,,,,,,,,,,,,masks/mask_003.jpg,,,,,,,,,,,,,,,,,,,,,,,,,,,,,,,,,,,,,,,,,,,0,1,1,2,1,,,,,,,,,,,,,,,,,,,,,,,,,,,,,,,,,,,,,,,,,,,,,,
175604,001,2022-11-20_18h08.17.738,Info_measure_main_exp,2022.2.2,Win32,60.11421701,,,,,,,,,,,,,,,,,,masks/mask_004.jpg,,,,,,,,,,,,,,,,,,,,,,,,,,,,,,,,,,,,,,,,,,,0,2,2,3,1,,,,,,,,,,,,,,,,,,,,,,,,,,,,,,,,,,,,,,,,,,,,,,
175604,001,2022-11-20_18h08.17.738,Info_measure_main_exp,2022.2.2,Win32,60.11421701,,,,,,,,,,,,,,,,,,masks/mask_005.jpg,,,,,,,,,,,,,,,,,,,,,,,,,,,,,,,,,,,,,,,,,,,0,3,3,4,1,,,,,,,,,,,,,,,,,,,,,,,,,,,,,,,,,,,,,,,,,,,,,,
175604,001,2022-11-20_18h08.17.738,Info_measure_main_exp,2022.2.2,Win32,60.11421701,,,,,,,,,,,,,,,,,,masks/mask_001.jpg,,,,,,,,,,,,,,,,,,,,,,,,,,,,,,,,,,,,,,,,,,,0,4,4,0,1,,,,,,,,,,,,,,,,,,,,,,,,,,,,,,,,,,,,,,,,,,,,,,
175604,001,2022-11-20_18h08.17.738,Info_measure_main_exp,2022.2.2,Win32,60.11421701,,,,,,,,,,,,,,,,,,masks/mask_005.jpg,,,,,,,,,,,,,,,,,,,,,,,,,,,,,,,,,,,,,,,,,,,,,,,,0,0,0,4,1,,,,,,,,,,,,,,,,,,,,,,,,,,,,,,,,,,,,,,,,,
175604,001,2022-11-20_18h08.17.738,Info_measure_main_exp,2022.2.2,Win32,60.11421701,,,,,,,,,,,,,,,,,,masks/mask_002.jpg,,,,,,,,,,,,,,,,,,,,,,,,,,,,,,,,,,,,,,,,,,,,,,,,0,1,1,1,1,,,,,,,,,,,,,,,,,,,,,,,,,,,,,,,,,,,,,,,,,
175604,001,2022-11-20_18h08.17.738,Info_measure_main_exp,2022.2.2,Win32,60.11421701,,,,,,,,,,,,,,,,,,masks/mask_003.jpg,,,,,,,,,,,,,,,,,,,,,,,,,,,,,,,,,,,,,,,,,,,,,,,,0,2,2,2,1,,,,,,,,,,,,,,,,,,,,,,,,,,,,,,,,,,,,,,,,,
175604,001,2022-11-20_18h08.17.738,Info_measure_main_exp,2022.2.2,Win32,60.11421701,,,,,,,,,,,,,,,,,,masks/mask_004.jpg,,,,,,,,,,,,,,,,,,,,,,,,,,,,,,,,,,,,,,,,,,,,,,,,0,3,3,3,1,,,,,,,,,,,,,,,,,,,,,,,,,,,,,,,,,,,,,,,,,
175604,001,2022-11-20_18h08.17.738,Info_measure_main_exp,2022.2.2,Win32,60.11421701,,,,,,,,,,,,,,,,,,masks/mask_001.jpg,,,,,,,,,,,,,,,,,,,,,,,,,,,,,,,,,,,,,,,,,,,,,,,,0,4,4,0,1,,,,,,,,,,,,,,,,,,,,,,,,,,,,,,,,,,,,,,,,,
175604,001,2022-11-20_18h08.17.738,Info_measure_main_exp,2022.2.2,Win32,60.11421701,,,,,,,,,,,,,,,,,,,,,,,,,,,,,,6,0.7692,1,,,,,,,,,,,,0,131,5,5,2142,2082,absent_patch/patch0002142.jpg,absent_patch/patch0002082.jpg,,,,,,,,,,,,,,,,,,,,0.122395833,0.033854167,1,0,0,response1disk,10,0.013020833,0.005208333,1,0,0,center_square,0,9,9,88,1,,,,,,,,,,,,,,,,,,,,,,,
175604,001,2022-11-20_18h08.17.738,Info_measure_main_exp,2022.2.2,Win32,60.11421701,,,,,,,,,,,,,,,,,,masks/mask_002.jpg,,,,,,,,,,,,,,,,,,,,,,,,,,,,,,,,,,,,,,,,,,,0,0,0,1,1,,,,,,,,,,,,,,,,,,,,,,,,,,,,,,,,,,,,,,,,,,,,,,
175604,001,2022-11-20_18h08.17.738,Info_measure_main_exp,2022.2.2,Win32,60.11421701,,,,,,,,,,,,,,,,,,masks/mask_004.jpg,,,,,,,,,,,,,,,,,,,,,,,,,,,,,,,,,,,,,,,,,,,0,1,1,3,1,,,,,,,,,,,,,,,,,,,,,,,,,,,,,,,,,,,,,,,,,,,,,,
175604,001,2022-11-20_18h08.17.738,Info_measure_main_exp,2022.2.2,Win32,60.11421701,,,,,,,,,,,,,,,,,,masks/mask_003.jpg,,,,,,,,,,,,,,,,,,,,,,,,,,,,,,,,,,,,,,,,,,,0,2,2,2,1,,,,,,,,,,,,,,,,,,,,,,,,,,,,,,,,,,,,,,,,,,,,,,
175604,001,2022-11-20_18h08.17.738,Info_measure_main_exp,2022.2.2,Win32,60.11421701,,,,,,,,,,,,,,,,,,masks/mask_001.jpg,,,,,,,,,,,,,,,,,,,,,,,,,,,,,,,,,,,,,,,,,,,0,3,3,0,1,,,,,,,,,,,,,,,,,,,,,,,,,,,,,,,,,,,,,,,,,,,,,,
175604,001,2022-11-20_18h08.17.738,Info_measure_main_exp,2022.2.2,Win32,60.11421701,,,,,,,,,,,,,,,,,,masks/mask_005.jpg,,,,,,,,,,,,,,,,,,,,,,,,,,,,,,,,,,,,,,,,,,,0,4,4,4,1,,,,,,,,,,,,,,,,,,,,,,,,,,,,,,,,,,,,,,,,,,,,,,
175604,001,2022-11-20_18h08.17.738,Info_measure_main_exp,2022.2.2,Win32,60.11421701,,,,,,,,,,,,,,,,,,masks/mask_001.jpg,,,,,,,,,,,,,,,,,,,,,,,,,,,,,,,,,,,,,,,,,,,,,,,,0,0,0,0,1,,,,,,,,,,,,,,,,,,,,,,,,,,,,,,,,,,,,,,,,,
175604,001,2022-11-20_18h08.17.738,Info_measure_main_exp,2022.2.2,Win32,60.11421701,,,,,,,,,,,,,,,,,,masks/mask_002.jpg,,,,,,,,,,,,,,,,,,,,,,,,,,,,,,,,,,,,,,,,,,,,,,,,0,1,1,1,1,,,,,,,,,,,,,,,,,,,,,,,,,,,,,,,,,,,,,,,,,
175604,001,2022-11-20_18h08.17.738,Info_measure_main_exp,2022.2.2,Win32,60.11421701,,,,,,,,,,,,,,,,,,masks/mask_003.jpg,,,,,,,,,,,,,,,,,,,,,,,,,,,,,,,,,,,,,,,,,,,,,,,,0,2,2,2,1,,,,,,,,,,,,,,,,,,,,,,,,,,,,,,,,,,,,,,,,,
175604,001,2022-11-20_18h08.17.738,Info_measure_main_exp,2022.2.2,Win32,60.11421701,,,,,,,,,,,,,,,,,,masks/mask_004.jpg,,,,,,,,,,,,,,,,,,,,,,,,,,,,,,,,,,,,,,,,,,,,,,,,0,3,3,3,1,,,,,,,,,,,,,,,,,,,,,,,,,,,,,,,,,,,,,,,,,
175604,001,2022-11-20_18h08.17.738,Info_measure_main_exp,2022.2.2,Win32,60.11421701,,,,,,,,,,,,,,,,,,masks/mask_005.jpg,,,,,,,,,,,,,,,,,,,,,,,,,,,,,,,,,,,,,,,,,,,,,,,,0,4,4,4,1,,,,,,,,,,,,,,,,,,,,,,,,,,,,,,,,,,,,,,,,,
175604,001,2022-11-20_18h08.17.738,Info_measure_main_exp,2022.2.2,Win32,60.11421701,,,,,,,,,,,,,,,,,,,,,,,,,,,,,,7,0.6022,1,,,,,,,,,,,,1,131,5,5,1950,1,absent_patch/patch0001950.jpg,present_patch/cong_131_5_a.jpg,,,,,,,,,,,,,,,,,,,,0.029947917,0.065104167,1,0,0,response1disk,11,0.0078125,-0.0078125,1,0,0,center_square,0,10,10,39,1,,,,,,,,,,,,,,,,,,,,,,,
175604,001,2022-11-20_18h08.17.738,Info_measure_main_exp,2022.2.2,Win32,60.11421701,,,,,,,,,,,,,,,,,,masks/mask_004.jpg,,,,,,,,,,,,,,,,,,,,,,,,,,,,,,,,,,,,,,,,,,,0,0,0,3,1,,,,,,,,,,,,,,,,,,,,,,,,,,,,,,,,,,,,,,,,,,,,,,
175604,001,2022-11-20_18h08.17.738,Info_measure_main_exp,2022.2.2,Win32,60.11421701,,,,,,,,,,,,,,,,,,masks/mask_001.jpg,,,,,,,,,,,,,,,,,,,,,,,,,,,,,,,,,,,,,,,,,,,0,1,1,0,1,,,,,,,,,,,,,,,,,,,,,,,,,,,,,,,,,,,,,,,,,,,,,,
175604,001,2022-11-20_18h08.17.738,Info_measure_main_exp,2022.2.2,Win32,60.11421701,,,,,,,,,,,,,,,,,,masks/mask_002.jpg,,,,,,,,,,,,,,,,,,,,,,,,,,,,,,,,,,,,,,,,,,,0,2,2,1,1,,,,,,,,,,,,,,,,,,,,,,,,,,,,,,,,,,,,,,,,,,,,,,
175604,001,2022-11-20_18h08.17.738,Info_measure_main_exp,2022.2.2,Win32,60.11421701,,,,,,,,,,,,,,,,,,masks/mask_005.jpg,,,,,,,,,,,,,,,,,,,,,,,,,,,,,,,,,,,,,,,,,,,0,3,3,4,1,,,,,,,,,,,,,,,,,,,,,,,,,,,,,,,,,,,,,,,,,,,,,,
175604,001,2022-11-20_18h08.17.738,Info_measure_main_exp,2022.2.2,Win32,60.11421701,,,,,,,,,,,,,,,,,,masks/mask_003.jpg,,,,,,,,,,,,,,,,,,,,,,,,,,,,,,,,,,,,,,,,,,,0,4,4,2,1,,,,,,,,,,,,,,,,,,,,,,,,,,,,,,,,,,,,,,,,,,,,,,
175604,001,2022-11-20_18h08.17.738,Info_measure_main_exp,2022.2.2,Win32,60.11421701,,,,,,,,,,,,,,,,,,masks/mask_003.jpg,,,,,,,,,,,,,,,,,,,,,,,,,,,,,,,,,,,,,,,,,,,,,,,,0,0,0,2,1,,,,,,,,,,,,,,,,,,,,,,,,,,,,,,,,,,,,,,,,,
175604,001,2022-11-20_18h08.17.738,Info_measure_main_exp,2022.2.2,Win32,60.11421701,,,,,,,,,,,,,,,,,,masks/mask_001.jpg,,,,,,,,,,,,,,,,,,,,,,,,,,,,,,,,,,,,,,,,,,,,,,,,0,1,1,0,1,,,,,,,,,,,,,,,,,,,,,,,,,,,,,,,,,,,,,,,,,
175604,001,2022-11-20_18h08.17.738,Info_measure_main_exp,2022.2.2,Win32,60.11421701,,,,,,,,,,,,,,,,,,masks/mask_005.jpg,,,,,,,,,,,,,,,,,,,,,,,,,,,,,,,,,,,,,,,,,,,,,,,,0,2,2,4,1,,,,,,,,,,,,,,,,,,,,,,,,,,,,,,,,,,,,,,,,,
175604,001,2022-11-20_18h08.17.738,Info_measure_main_exp,2022.2.2,Win32,60.11421701,,,,,,,,,,,,,,,,,,masks/mask_002.jpg,,,,,,,,,,,,,,,,,,,,,,,,,,,,,,,,,,,,,,,,,,,,,,,,0,3,3,1,1,,,,,,,,,,,,,,,,,,,,,,,,,,,,,,,,,,,,,,,,,
175604,001,2022-11-20_18h08.17.738,Info_measure_main_exp,2022.2.2,Win32,60.11421701,,,,,,,,,,,,,,,,,,masks/mask_004.jpg,,,,,,,,,,,,,,,,,,,,,,,,,,,,,,,,,,,,,,,,,,,,,,,,0,4,4,3,1,,,,,,,,,,,,,,,,,,,,,,,,,,,,,,,,,,,,,,,,,
175604,001,2022-11-20_18h08.17.738,Info_measure_main_exp,2022.2.2,Win32,60.11421701,,,,,,,,,,,,,,,,,,,,,,,,,,,,,,7,1.0661,1,,,,,,,,,,,,0,131,5,5,1986,1974,absent_patch/patch0001986.jpg,absent_patch/patch0001974.jpg,,,,,,,,,,,,,,,,,,,,0.040364583,0.141927083,1,0,0,response1disk,12,0.01171875,-0.014322917,1,0,0,center_square,0,11,11,25,1,,,,,,,,,,,,,,,,,,,,,,,
175604,001,2022-11-20_18h08.17.738,Info_measure_main_exp,2022.2.2,Win32,60.11421701,,,,,,,,,,,,,,,,,,masks/mask_004.jpg,,,,,,,,,,,,,,,,,,,,,,,,,,,,,,,,,,,,,,,,,,,0,0,0,3,1,,,,,,,,,,,,,,,,,,,,,,,,,,,,,,,,,,,,,,,,,,,,,,
175604,001,2022-11-20_18h08.17.738,Info_measure_main_exp,2022.2.2,Win32,60.11421701,,,,,,,,,,,,,,,,,,masks/mask_003.jpg,,,,,,,,,,,,,,,,,,,,,,,,,,,,,,,,,,,,,,,,,,,0,1,1,2,1,,,,,,,,,,,,,,,,,,,,,,,,,,,,,,,,,,,,,,,,,,,,,,
175604,001,2022-11-20_18h08.17.738,Info_measure_main_exp,2022.2.2,Win32,60.11421701,,,,,,,,,,,,,,,,,,masks/mask_002.jpg,,,,,,,,,,,,,,,,,,,,,,,,,,,,,,,,,,,,,,,,,,,0,2,2,1,1,,,,,,,,,,,,,,,,,,,,,,,,,,,,,,,,,,,,,,,,,,,,,,
175604,001,2022-11-20_18h08.17.738,Info_measure_main_exp,2022.2.2,Win32,60.11421701,,,,,,,,,,,,,,,,,,masks/mask_001.jpg,,,,,,,,,,,,,,,,,,,,,,,,,,,,,,,,,,,,,,,,,,,0,3,3,0,1,,,,,,,,,,,,,,,,,,,,,,,,,,,,,,,,,,,,,,,,,,,,,,
175604,001,2022-11-20_18h08.17.738,Info_measure_main_exp,2022.2.2,Win32,60.11421701,,,,,,,,,,,,,,,,,,masks/mask_005.jpg,,,,,,,,,,,,,,,,,,,,,,,,,,,,,,,,,,,,,,,,,,,0,4,4,4,1,,,,,,,,,,,,,,,,,,,,,,,,,,,,,,,,,,,,,,,,,,,,,,
175604,001,2022-11-20_18h08.17.738,Info_measure_main_exp,2022.2.2,Win32,60.11421701,,,,,,,,,,,,,,,,,,masks/mask_003.jpg,,,,,,,,,,,,,,,,,,,,,,,,,,,,,,,,,,,,,,,,,,,,,,,,0,0,0,2,1,,,,,,,,,,,,,,,,,,,,,,,,,,,,,,,,,,,,,,,,,
175604,001,2022-11-20_18h08.17.738,Info_measure_main_exp,2022.2.2,Win32,60.11421701,,,,,,,,,,,,,,,,,,masks/mask_005.jpg,,,,,,,,,,,,,,,,,,,,,,,,,,,,,,,,,,,,,,,,,,,,,,,,0,1,1,4,1,,,,,,,,,,,,,,,,,,,,,,,,,,,,,,,,,,,,,,,,,
175604,001,2022-11-20_18h08.17.738,Info_measure_main_exp,2022.2.2,Win32,60.11421701,,,,,,,,,,,,,,,,,,masks/mask_004.jpg,,,,,,,,,,,,,,,,,,,,,,,,,,,,,,,,,,,,,,,,,,,,,,,,0,2,2,3,1,,,,,,,,,,,,,,,,,,,,,,,,,,,,,,,,,,,,,,,,,
175604,001,2022-11-20_18h08.17.738,Info_measure_main_exp,2022.2.2,Win32,60.11421701,,,,,,,,,,,,,,,,,,masks/mask_001.jpg,,,,,,,,,,,,,,,,,,,,,,,,,,,,,,,,,,,,,,,,,,,,,,,,0,3,3,0,1,,,,,,,,,,,,,,,,,,,,,,,,,,,,,,,,,,,,,,,,,
175604,001,2022-11-20_18h08.17.738,Info_measure_main_exp,2022.2.2,Win32,60.11421701,,,,,,,,,,,,,,,,,,masks/mask_002.jpg,,,,,,,,,,,,,,,,,,,,,,,,,,,,,,,,,,,,,,,,,,,,,,,,0,4,4,1,1,,,,,,,,,,,,,,,,,,,,,,,,,,,,,,,,,,,,,,,,,
175604,001,2022-11-20_18h08.17.738,Info_measure_main_exp,2022.2.2,Win32,60.11421701,,,,,,,,,,,,,,,,,,,,,,,,,,,,,,7,0.7002,1,,,,,,,,,,,,0,131,5,5,2178,2238,absent_patch/patch0002178.jpg,absent_patch/patch0002238.jpg,,,,,,,,,,,,,,,,,,,,0.03515625,0.048177083,1,0,0,response1disk,13,0.010416667,0.006510417,1,0,0,center_square,0,12,12,57,1,,,,,,,,,,,,,,,,,,,,,,,
175604,001,2022-11-20_18h08.17.738,Info_measure_main_exp,2022.2.2,Win32,60.11421701,,,,,,,,,,,,,,,,,,masks/mask_004.jpg,,,,,,,,,,,,,,,,,,,,,,,,,,,,,,,,,,,,,,,,,,,0,0,0,3,1,,,,,,,,,,,,,,,,,,,,,,,,,,,,,,,,,,,,,,,,,,,,,,
175604,001,2022-11-20_18h08.17.738,Info_measure_main_exp,2022.2.2,Win32,60.11421701,,,,,,,,,,,,,,,,,,masks/mask_001.jpg,,,,,,,,,,,,,,,,,,,,,,,,,,,,,,,,,,,,,,,,,,,0,1,1,0,1,,,,,,,,,,,,,,,,,,,,,,,,,,,,,,,,,,,,,,,,,,,,,,
175604,001,2022-11-20_18h08.17.738,Info_measure_main_exp,2022.2.2,Win32,60.11421701,,,,,,,,,,,,,,,,,,masks/mask_005.jpg,,,,,,,,,,,,,,,,,,,,,,,,,,,,,,,,,,,,,,,,,,,0,2,2,4,1,,,,,,,,,,,,,,,,,,,,,,,,,,,,,,,,,,,,,,,,,,,,,,
175604,001,2022-11-20_18h08.17.738,Info_measure_main_exp,2022.2.2,Win32,60.11421701,,,,,,,,,,,,,,,,,,masks/mask_003.jpg,,,,,,,,,,,,,,,,,,,,,,,,,,,,,,,,,,,,,,,,,,,0,3,3,2,1,,,,,,,,,,,,,,,,,,,,,,,,,,,,,,,,,,,,,,,,,,,,,,
175604,001,2022-11-20_18h08.17.738,Info_measure_main_exp,2022.2.2,Win32,60.11421701,,,,,,,,,,,,,,,,,,masks/mask_002.jpg,,,,,,,,,,,,,,,,,,,,,,,,,,,,,,,,,,,,,,,,,,,0,4,4,1,1,,,,,,,,,,,,,,,,,,,,,,,,,,,,,,,,,,,,,,,,,,,,,,
175604,001,2022-11-20_18h08.17.738,Info_measure_main_exp,2022.2.2,Win32,60.11421701,,,,,,,,,,,,,,,,,,masks/mask_005.jpg,,,,,,,,,,,,,,,,,,,,,,,,,,,,,,,,,,,,,,,,,,,,,,,,0,0,0,4,1,,,,,,,,,,,,,,,,,,,,,,,,,,,,,,,,,,,,,,,,,
175604,001,2022-11-20_18h08.17.738,Info_measure_main_exp,2022.2.2,Win32,60.11421701,,,,,,,,,,,,,,,,,,masks/mask_004.jpg,,,,,,,,,,,,,,,,,,,,,,,,,,,,,,,,,,,,,,,,,,,,,,,,0,1,1,3,1,,,,,,,,,,,,,,,,,,,,,,,,,,,,,,,,,,,,,,,,,
175604,001,2022-11-20_18h08.17.738,Info_measure_main_exp,2022.2.2,Win32,60.11421701,,,,,,,,,,,,,,,,,,masks/mask_002.jpg,,,,,,,,,,,,,,,,,,,,,,,,,,,,,,,,,,,,,,,,,,,,,,,,0,2,2,1,1,,,,,,,,,,,,,,,,,,,,,,,,,,,,,,,,,,,,,,,,,
175604,001,2022-11-20_18h08.17.738,Info_measure_main_exp,2022.2.2,Win32,60.11421701,,,,,,,,,,,,,,,,,,masks/mask_001.jpg,,,,,,,,,,,,,,,,,,,,,,,,,,,,,,,,,,,,,,,,,,,,,,,,0,3,3,0,1,,,,,,,,,,,,,,,,,,,,,,,,,,,,,,,,,,,,,,,,,
175604,001,2022-11-20_18h08.17.738,Info_measure_main_exp,2022.2.2,Win32,60.11421701,,,,,,,,,,,,,,,,,,masks/mask_003.jpg,,,,,,,,,,,,,,,,,,,,,,,,,,,,,,,,,,,,,,,,,,,,,,,,0,4,4,2,1,,,,,,,,,,,,,,,,,,,,,,,,,,,,,,,,,,,,,,,,,
175604,001,2022-11-20_18h08.17.738,Info_measure_main_exp,2022.2.2,Win32,60.11421701,,,,,,,,,,,,,,,,,,,,,,,,,,,,,,7,0.7006,1,,,,,,,,,,,,0,131,5,5,2250,2298,absent_patch/patch0002250.jpg,absent_patch/patch0002298.jpg,,,,,,,,,,,,,,,,,,,,0.026041667,0.065104167,1,0,0,response1disk,14,0.009114583,-0.010416667,1,0,0,center_square,0,13,13,59,1,,,,,,,,,,,,,,,,,,,,,,,
175604,001,2022-11-20_18h08.17.738,Info_measure_main_exp,2022.2.2,Win32,60.11421701,,,,,,,,,,,,,,,,,,masks/mask_004.jpg,,,,,,,,,,,,,,,,,,,,,,,,,,,,,,,,,,,,,,,,,,,0,0,0,3,1,,,,,,,,,,,,,,,,,,,,,,,,,,,,,,,,,,,,,,,,,,,,,,
175604,001,2022-11-20_18h08.17.738,Info_measure_main_exp,2022.2.2,Win32,60.11421701,,,,,,,,,,,,,,,,,,masks/mask_005.jpg,,,,,,,,,,,,,,,,,,,,,,,,,,,,,,,,,,,,,,,,,,,0,1,1,4,1,,,,,,,,,,,,,,,,,,,,,,,,,,,,,,,,,,,,,,,,,,,,,,
175604,001,2022-11-20_18h08.17.738,Info_measure_main_exp,2022.2.2,Win32,60.11421701,,,,,,,,,,,,,,,,,,masks/mask_002.jpg,,,,,,,,,,,,,,,,,,,,,,,,,,,,,,,,,,,,,,,,,,,0,2,2,1,1,,,,,,,,,,,,,,,,,,,,,,,,,,,,,,,,,,,,,,,,,,,,,,
175604,001,2022-11-20_18h08.17.738,Info_measure_main_exp,2022.2.2,Win32,60.11421701,,,,,,,,,,,,,,,,,,masks/mask_001.jpg,,,,,,,,,,,,,,,,,,,,,,,,,,,,,,,,,,,,,,,,,,,0,3,3,0,1,,,,,,,,,,,,,,,,,,,,,,,,,,,,,,,,,,,,,,,,,,,,,,
175604,001,2022-11-20_18h08.17.738,Info_measure_main_exp,2022.2.2,Win32,60.11421701,,,,,,,,,,,,,,,,,,masks/mask_003.jpg,,,,,,,,,,,,,,,,,,,,,,,,,,,,,,,,,,,,,,,,,,,0,4,4,2,1,,,,,,,,,,,,,,,,,,,,,,,,,,,,,,,,,,,,,,,,,,,,,,
175604,001,2022-11-20_18h08.17.738,Info_measure_main_exp,2022.2.2,Win32,60.11421701,,,,,,,,,,,,,,,,,,masks/mask_004.jpg,,,,,,,,,,,,,,,,,,,,,,,,,,,,,,,,,,,,,,,,,,,,,,,,0,0,0,3,1,,,,,,,,,,,,,,,,,,,,,,,,,,,,,,,,,,,,,,,,,
175604,001,2022-11-20_18h08.17.738,Info_measure_main_exp,2022.2.2,Win32,60.11421701,,,,,,,,,,,,,,,,,,masks/mask_002.jpg,,,,,,,,,,,,,,,,,,,,,,,,,,,,,,,,,,,,,,,,,,,,,,,,0,1,1,1,1,,,,,,,,,,,,,,,,,,,,,,,,,,,,,,,,,,,,,,,,,
175604,001,2022-11-20_18h08.17.738,Info_measure_main_exp,2022.2.2,Win32,60.11421701,,,,,,,,,,,,,,,,,,masks/mask_001.jpg,,,,,,,,,,,,,,,,,,,,,,,,,,,,,,,,,,,,,,,,,,,,,,,,0,2,2,0,1,,,,,,,,,,,,,,,,,,,,,,,,,,,,,,,,,,,,,,,,,
175604,001,2022-11-20_18h08.17.738,Info_measure_main_exp,2022.2.2,Win32,60.11421701,,,,,,,,,,,,,,,,,,masks/mask_005.jpg,,,,,,,,,,,,,,,,,,,,,,,,,,,,,,,,,,,,,,,,,,,,,,,,0,3,3,4,1,,,,,,,,,,,,,,,,,,,,,,,,,,,,,,,,,,,,,,,,,
175604,001,2022-11-20_18h08.17.738,Info_measure_main_exp,2022.2.2,Win32,60.11421701,,,,,,,,,,,,,,,,,,masks/mask_003.jpg,,,,,,,,,,,,,,,,,,,,,,,,,,,,,,,,,,,,,,,,,,,,,,,,0,4,4,2,1,,,,,,,,,,,,,,,,,,,,,,,,,,,,,,,,,,,,,,,,,
175604,001,2022-11-20_18h08.17.738,Info_measure_main_exp,2022.2.2,Win32,60.11421701,,,,,,,,,,,,,,,,,,,,,,,,,,,,,,6,2.2816,1,,,,,,,,,,,,0,131,5,5,2250,2142,absent_patch/patch0002250.jpg,absent_patch/patch0002142.jpg,,,,,,,,,,,,,,,,,,,,0.151041667,0.065104167,1,0,0,response1disk,15,0,0.00390625,1,0,0,center_square,0,14,14,71,1,,,,,,,,,,,,,,,,,,,,,,,
175604,001,2022-11-20_18h08.17.738,Info_measure_main_exp,2022.2.2,Win32,60.11421701,,,,,,,,,,,,,,,,,,masks/mask_003.jpg,,,,,,,,,,,,,,,,,,,,,,,,,,,,,,,,,,,,,,,,,,,0,0,0,2,1,,,,,,,,,,,,,,,,,,,,,,,,,,,,,,,,,,,,,,,,,,,,,,
175604,001,2022-11-20_18h08.17.738,Info_measure_main_exp,2022.2.2,Win32,60.11421701,,,,,,,,,,,,,,,,,,masks/mask_004.jpg,,,,,,,,,,,,,,,,,,,,,,,,,,,,,,,,,,,,,,,,,,,0,1,1,3,1,,,,,,,,,,,,,,,,,,,,,,,,,,,,,,,,,,,,,,,,,,,,,,
175604,001,2022-11-20_18h08.17.738,Info_measure_main_exp,2022.2.2,Win32,60.11421701,,,,,,,,,,,,,,,,,,masks/mask_002.jpg,,,,,,,,,,,,,,,,,,,,,,,,,,,,,,,,,,,,,,,,,,,0,2,2,1,1,,,,,,,,,,,,,,,,,,,,,,,,,,,,,,,,,,,,,,,,,,,,,,
175604,001,2022-11-20_18h08.17.738,Info_measure_main_exp,2022.2.2,Win32,60.11421701,,,,,,,,,,,,,,,,,,masks/mask_001.jpg,,,,,,,,,,,,,,,,,,,,,,,,,,,,,,,,,,,,,,,,,,,0,3,3,0,1,,,,,,,,,,,,,,,,,,,,,,,,,,,,,,,,,,,,,,,,,,,,,,
175604,001,2022-11-20_18h08.17.738,Info_measure_main_exp,2022.2.2,Win32,60.11421701,,,,,,,,,,,,,,,,,,masks/mask_005.jpg,,,,,,,,,,,,,,,,,,,,,,,,,,,,,,,,,,,,,,,,,,,0,4,4,4,1,,,,,,,,,,,,,,,,,,,,,,,,,,,,,,,,,,,,,,,,,,,,,,
175604,001,2022-11-20_18h08.17.738,Info_measure_main_exp,2022.2.2,Win32,60.11421701,,,,,,,,,,,,,,,,,,masks/mask_003.jpg,,,,,,,,,,,,,,,,,,,,,,,,,,,,,,,,,,,,,,,,,,,,,,,,0,0,0,2,1,,,,,,,,,,,,,,,,,,,,,,,,,,,,,,,,,,,,,,,,,
175604,001,2022-11-20_18h08.17.738,Info_measure_main_exp,2022.2.2,Win32,60.11421701,,,,,,,,,,,,,,,,,,masks/mask_004.jpg,,,,,,,,,,,,,,,,,,,,,,,,,,,,,,,,,,,,,,,,,,,,,,,,0,1,1,3,1,,,,,,,,,,,,,,,,,,,,,,,,,,,,,,,,,,,,,,,,,
175604,001,2022-11-20_18h08.17.738,Info_measure_main_exp,2022.2.2,Win32,60.11421701,,,,,,,,,,,,,,,,,,masks/mask_005.jpg,,,,,,,,,,,,,,,,,,,,,,,,,,,,,,,,,,,,,,,,,,,,,,,,0,2,2,4,1,,,,,,,,,,,,,,,,,,,,,,,,,,,,,,,,,,,,,,,,,
175604,001,2022-11-20_18h08.17.738,Info_measure_main_exp,2022.2.2,Win32,60.11421701,,,,,,,,,,,,,,,,,,masks/mask_002.jpg,,,,,,,,,,,,,,,,,,,,,,,,,,,,,,,,,,,,,,,,,,,,,,,,0,3,3,1,1,,,,,,,,,,,,,,,,,,,,,,,,,,,,,,,,,,,,,,,,,
175604,001,2022-11-20_18h08.17.738,Info_measure_main_exp,2022.2.2,Win32,60.11421701,,,,,,,,,,,,,,,,,,masks/mask_001.jpg,,,,,,,,,,,,,,,,,,,,,,,,,,,,,,,,,,,,,,,,,,,,,,,,0,4,4,0,1,,,,,,,,,,,,,,,,,,,,,,,,,,,,,,,,,,,,,,,,,
175604,001,2022-11-20_18h08.17.738,Info_measure_main_exp,2022.2.2,Win32,60.11421701,,,,,,,,,,,,,,,,,,,,,,,,,,,,,,0,0.6159,1,,,,,,,,,,,,0,131,5,5,1974,1974,absent_patch/patch0001974.jpg,absent_patch/patch0001974.jpg,,,,,,,,,,,,,,,,,,,,-0.033854167,0.05859375,1,0,0,response7disk,16,-0.002604167,-0.006510417,1,0,0,center_square,0,15,15,113,1,,,,,,,,,,,,,,,,,,,,,,,
175604,001,2022-11-20_18h08.17.738,Info_measure_main_exp,2022.2.2,Win32,60.11421701,,,,,,,,,,,,,,,,,,masks/mask_003.jpg,,,,,,,,,,,,,,,,,,,,,,,,,,,,,,,,,,,,,,,,,,,0,0,0,2,1,,,,,,,,,,,,,,,,,,,,,,,,,,,,,,,,,,,,,,,,,,,,,,
175604,001,2022-11-20_18h08.17.738,Info_measure_main_exp,2022.2.2,Win32,60.11421701,,,,,,,,,,,,,,,,,,masks/mask_004.jpg,,,,,,,,,,,,,,,,,,,,,,,,,,,,,,,,,,,,,,,,,,,0,1,1,3,1,,,,,,,,,,,,,,,,,,,,,,,,,,,,,,,,,,,,,,,,,,,,,,
175604,001,2022-11-20_18h08.17.738,Info_measure_main_exp,2022.2.2,Win32,60.11421701,,,,,,,,,,,,,,,,,,masks/mask_002.jpg,,,,,,,,,,,,,,,,,,,,,,,,,,,,,,,,,,,,,,,,,,,0,2,2,1,1,,,,,,,,,,,,,,,,,,,,,,,,,,,,,,,,,,,,,,,,,,,,,,
175604,001,2022-11-20_18h08.17.738,Info_measure_main_exp,2022.2.2,Win32,60.11421701,,,,,,,,,,,,,,,,,,masks/mask_005.jpg,,,,,,,,,,,,,,,,,,,,,,,,,,,,,,,,,,,,,,,,,,,0,3,3,4,1,,,,,,,,,,,,,,,,,,,,,,,,,,,,,,,,,,,,,,,,,,,,,,
175604,001,2022-11-20_18h08.17.738,Info_measure_main_exp,2022.2.2,Win32,60.11421701,,,,,,,,,,,,,,,,,,masks/mask_001.jpg,,,,,,,,,,,,,,,,,,,,,,,,,,,,,,,,,,,,,,,,,,,0,4,4,0,1,,,,,,,,,,,,,,,,,,,,,,,,,,,,,,,,,,,,,,,,,,,,,,
175604,001,2022-11-20_18h08.17.738,Info_measure_main_exp,2022.2.2,Win32,60.11421701,,,,,,,,,,,,,,,,,,masks/mask_001.jpg,,,,,,,,,,,,,,,,,,,,,,,,,,,,,,,,,,,,,,,,,,,,,,,,0,0,0,0,1,,,,,,,,,,,,,,,,,,,,,,,,,,,,,,,,,,,,,,,,,
175604,001,2022-11-20_18h08.17.738,Info_measure_main_exp,2022.2.2,Win32,60.11421701,,,,,,,,,,,,,,,,,,masks/mask_002.jpg,,,,,,,,,,,,,,,,,,,,,,,,,,,,,,,,,,,,,,,,,,,,,,,,0,1,1,1,1,,,,,,,,,,,,,,,,,,,,,,,,,,,,,,,,,,,,,,,,,
175604,001,2022-11-20_18h08.17.738,Info_measure_main_exp,2022.2.2,Win32,60.11421701,,,,,,,,,,,,,,,,,,masks/mask_004.jpg,,,,,,,,,,,,,,,,,,,,,,,,,,,,,,,,,,,,,,,,,,,,,,,,0,2,2,3,1,,,,,,,,,,,,,,,,,,,,,,,,,,,,,,,,,,,,,,,,,
175604,001,2022-11-20_18h08.17.738,Info_measure_main_exp,2022.2.2,Win32,60.11421701,,,,,,,,,,,,,,,,,,masks/mask_005.jpg,,,,,,,,,,,,,,,,,,,,,,,,,,,,,,,,,,,,,,,,,,,,,,,,0,3,3,4,1,,,,,,,,,,,,,,,,,,,,,,,,,,,,,,,,,,,,,,,,,
175604,001,2022-11-20_18h08.17.738,Info_measure_main_exp,2022.2.2,Win32,60.11421701,,,,,,,,,,,,,,,,,,masks/mask_003.jpg,,,,,,,,,,,,,,,,,,,,,,,,,,,,,,,,,,,,,,,,,,,,,,,,0,4,4,2,1,,,,,,,,,,,,,,,,,,,,,,,,,,,,,,,,,,,,,,,,,
175604,001,2022-11-20_18h08.17.738,Info_measure_main_exp,2022.2.2,Win32,60.11421701,,,,,,,,,,,,,,,,,,,,,,,,,,,,,,0,0.6186,1,,,,,,,,,,,,0,131,5,5,2178,2178,absent_patch/patch0002178.jpg,absent_patch/patch0002178.jpg,,,,,,,,,,,,,,,,,,,,-0.02734375,0.092447917,1,0,0,response7disk,17,0.009114583,-0.002604167,1,0,0,center_square,0,16,16,98,1,,,,,,,,,,,,,,,,,,,,,,,
175604,001,2022-11-20_18h08.17.738,Info_measure_main_exp,2022.2.2,Win32,60.11421701,,,,,,,,,,,,,,,,,,masks/mask_005.jpg,,,,,,,,,,,,,,,,,,,,,,,,,,,,,,,,,,,,,,,,,,,0,0,0,4,1,,,,,,,,,,,,,,,,,,,,,,,,,,,,,,,,,,,,,,,,,,,,,,
175604,001,2022-11-20_18h08.17.738,Info_measure_main_exp,2022.2.2,Win32,60.11421701,,,,,,,,,,,,,,,,,,masks/mask_001.jpg,,,,,,,,,,,,,,,,,,,,,,,,,,,,,,,,,,,,,,,,,,,0,1,1,0,1,,,,,,,,,,,,,,,,,,,,,,,,,,,,,,,,,,,,,,,,,,,,,,
175604,001,2022-11-20_18h08.17.738,Info_measure_main_exp,2022.2.2,Win32,60.11421701,,,,,,,,,,,,,,,,,,masks/mask_002.jpg,,,,,,,,,,,,,,,,,,,,,,,,,,,,,,,,,,,,,,,,,,,0,2,2,1,1,,,,,,,,,,,,,,,,,,,,,,,,,,,,,,,,,,,,,,,,,,,,,,
175604,001,2022-11-20_18h08.17.738,Info_measure_main_exp,2022.2.2,Win32,60.11421701,,,,,,,,,,,,,,,,,,masks/mask_003.jpg,,,,,,,,,,,,,,,,,,,,,,,,,,,,,,,,,,,,,,,,,,,0,3,3,2,1,,,,,,,,,,,,,,,,,,,,,,,,,,,,,,,,,,,,,,,,,,,,,,
175604,001,2022-11-20_18h08.17.738,Info_measure_main_exp,2022.2.2,Win32,60.11421701,,,,,,,,,,,,,,,,,,masks/mask_004.jpg,,,,,,,,,,,,,,,,,,,,,,,,,,,,,,,,,,,,,,,,,,,0,4,4,3,1,,,,,,,,,,,,,,,,,,,,,,,,,,,,,,,,,,,,,,,,,,,,,,
175604,001,2022-11-20_18h08.17.738,Info_measure_main_exp,2022.2.2,Win32,60.11421701,,,,,,,,,,,,,,,,,,masks/mask_003.jpg,,,,,,,,,,,,,,,,,,,,,,,,,,,,,,,,,,,,,,,,,,,,,,,,0,0,0,2,1,,,,,,,,,,,,,,,,,,,,,,,,,,,,,,,,,,,,,,,,,
175604,001,2022-11-20_18h08.17.738,Info_measure_main_exp,2022.2.2,Win32,60.11421701,,,,,,,,,,,,,,,,,,masks/mask_005.jpg,,,,,,,,,,,,,,,,,,,,,,,,,,,,,,,,,,,,,,,,,,,,,,,,0,1,1,4,1,,,,,,,,,,,,,,,,,,,,,,,,,,,,,,,,,,,,,,,,,
175604,001,2022-11-20_18h08.17.738,Info_measure_main_exp,2022.2.2,Win32,60.11421701,,,,,,,,,,,,,,,,,,masks/mask_001.jpg,,,,,,,,,,,,,,,,,,,,,,,,,,,,,,,,,,,,,,,,,,,,,,,,0,2,2,0,1,,,,,,,,,,,,,,,,,,,,,,,,,,,,,,,,,,,,,,,,,
175604,001,2022-11-20_18h08.17.738,Info_measure_main_exp,2022.2.2,Win32,60.11421701,,,,,,,,,,,,,,,,,,masks/mask_002.jpg,,,,,,,,,,,,,,,,,,,,,,,,,,,,,,,,,,,,,,,,,,,,,,,,0,3,3,1,1,,,,,,,,,,,,,,,,,,,,,,,,,,,,,,,,,,,,,,,,,
175604,001,2022-11-20_18h08.17.738,Info_measure_main_exp,2022.2.2,Win32,60.11421701,,,,,,,,,,,,,,,,,,masks/mask_004.jpg,,,,,,,,,,,,,,,,,,,,,,,,,,,,,,,,,,,,,,,,,,,,,,,,0,4,4,3,1,,,,,,,,,,,,,,,,,,,,,,,,,,,,,,,,,,,,,,,,,
175604,001,2022-11-20_18h08.17.738,Info_measure_main_exp,2022.2.2,Win32,60.11421701,,,,,,,,,,,,,,,,,,,,,,,,,,,,,,7,0.6855,1,,,,,,,,,,,,1,131,5,5,1,2166,present_patch/cong_131_5_a.jpg,absent_patch/patch0002166.jpg,,,,,,,,,,,,,,,,,,,,0.032552083,0.071614583,1,0,0,response1disk,18,-0.006510417,0.001302083,1,0,0,center_square,0,17,17,54,1,,,,,,,,,,,,,,,,,,,,,,,
175604,001,2022-11-20_18h08.17.738,Info_measure_main_exp,2022.2.2,Win32,60.11421701,,,,,,,,,,,,,,,,,,masks/mask_005.jpg,,,,,,,,,,,,,,,,,,,,,,,,,,,,,,,,,,,,,,,,,,,0,0,0,4,1,,,,,,,,,,,,,,,,,,,,,,,,,,,,,,,,,,,,,,,,,,,,,,
175604,001,2022-11-20_18h08.17.738,Info_measure_main_exp,2022.2.2,Win32,60.11421701,,,,,,,,,,,,,,,,,,masks/mask_002.jpg,,,,,,,,,,,,,,,,,,,,,,,,,,,,,,,,,,,,,,,,,,,0,1,1,1,1,,,,,,,,,,,,,,,,,,,,,,,,,,,,,,,,,,,,,,,,,,,,,,
175604,001,2022-11-20_18h08.17.738,Info_measure_main_exp,2022.2.2,Win32,60.11421701,,,,,,,,,,,,,,,,,,masks/mask_001.jpg,,,,,,,,,,,,,,,,,,,,,,,,,,,,,,,,,,,,,,,,,,,0,2,2,0,1,,,,,,,,,,,,,,,,,,,,,,,,,,,,,,,,,,,,,,,,,,,,,,
175604,001,2022-11-20_18h08.17.738,Info_measure_main_exp,2022.2.2,Win32,60.11421701,,,,,,,,,,,,,,,,,,masks/mask_003.jpg,,,,,,,,,,,,,,,,,,,,,,,,,,,,,,,,,,,,,,,,,,,0,3,3,2,1,,,,,,,,,,,,,,,,,,,,,,,,,,,,,,,,,,,,,,,,,,,,,,
175604,001,2022-11-20_18h08.17.738,Info_measure_main_exp,2022.2.2,Win32,60.11421701,,,,,,,,,,,,,,,,,,masks/mask_004.jpg,,,,,,,,,,,,,,,,,,,,,,,,,,,,,,,,,,,,,,,,,,,0,4,4,3,1,,,,,,,,,,,,,,,,,,,,,,,,,,,,,,,,,,,,,,,,,,,,,,
175604,001,2022-11-20_18h08.17.738,Info_measure_main_exp,2022.2.2,Win32,60.11421701,,,,,,,,,,,,,,,,,,masks/mask_001.jpg,,,,,,,,,,,,,,,,,,,,,,,,,,,,,,,,,,,,,,,,,,,,,,,,0,0,0,0,1,,,,,,,,,,,,,,,,,,,,,,,,,,,,,,,,,,,,,,,,,
175604,001,2022-11-20_18h08.17.738,Info_measure_main_exp,2022.2.2,Win32,60.11421701,,,,,,,,,,,,,,,,,,masks/mask_004.jpg,,,,,,,,,,,,,,,,,,,,,,,,,,,,,,,,,,,,,,,,,,,,,,,,0,1,1,3,1,,,,,,,,,,,,,,,,,,,,,,,,,,,,,,,,,,,,,,,,,
175604,001,2022-11-20_18h08.17.738,Info_measure_main_exp,2022.2.2,Win32,60.11421701,,,,,,,,,,,,,,,,,,masks/mask_002.jpg,,,,,,,,,,,,,,,,,,,,,,,,,,,,,,,,,,,,,,,,,,,,,,,,0,2,2,1,1,,,,,,,,,,,,,,,,,,,,,,,,,,,,,,,,,,,,,,,,,
175604,001,2022-11-20_18h08.17.738,Info_measure_main_exp,2022.2.2,Win32,60.11421701,,,,,,,,,,,,,,,,,,masks/mask_005.jpg,,,,,,,,,,,,,,,,,,,,,,,,,,,,,,,,,,,,,,,,,,,,,,,,0,3,3,4,1,,,,,,,,,,,,,,,,,,,,,,,,,,,,,,,,,,,,,,,,,
175604,001,2022-11-20_18h08.17.738,Info_measure_main_exp,2022.2.2,Win32,60.11421701,,,,,,,,,,,,,,,,,,masks/mask_003.jpg,,,,,,,,,,,,,,,,,,,,,,,,,,,,,,,,,,,,,,,,,,,,,,,,0,4,4,2,1,,,,,,,,,,,,,,,,,,,,,,,,,,,,,,,,,,,,,,,,,
175604,001,2022-11-20_18h08.17.738,Info_measure_main_exp,2022.2.2,Win32,60.11421701,,,,,,,,,,,,,,,,,,,,,,,,,,,,,,7,1.217,1,,,,,,,,,,,,0,131,5,5,2274,2214,absent_patch/patch0002274.jpg,absent_patch/patch0002214.jpg,,,,,,,,,,,,,,,,,,,,0.071614583,0.173177083,1,0,0,response1disk,19,0.010416667,-0.002604167,1,0,0,center_square,0,18,18,11,1,,,,,,,,,,,,,,,,,,,,,,,
175604,001,2022-11-20_18h08.17.738,Info_measure_main_exp,2022.2.2,Win32,60.11421701,,,,,,,,,,,,,,,,,,masks/mask_004.jpg,,,,,,,,,,,,,,,,,,,,,,,,,,,,,,,,,,,,,,,,,,,0,0,0,3,1,,,,,,,,,,,,,,,,,,,,,,,,,,,,,,,,,,,,,,,,,,,,,,
175604,001,2022-11-20_18h08.17.738,Info_measure_main_exp,2022.2.2,Win32,60.11421701,,,,,,,,,,,,,,,,,,masks/mask_002.jpg,,,,,,,,,,,,,,,,,,,,,,,,,,,,,,,,,,,,,,,,,,,0,1,1,1,1,,,,,,,,,,,,,,,,,,,,,,,,,,,,,,,,,,,,,,,,,,,,,,
175604,001,2022-11-20_18h08.17.738,Info_measure_main_exp,2022.2.2,Win32,60.11421701,,,,,,,,,,,,,,,,,,masks/mask_003.jpg,,,,,,,,,,,,,,,,,,,,,,,,,,,,,,,,,,,,,,,,,,,0,2,2,2,1,,,,,,,,,,,,,,,,,,,,,,,,,,,,,,,,,,,,,,,,,,,,,,
175604,001,2022-11-20_18h08.17.738,Info_measure_main_exp,2022.2.2,Win32,60.11421701,,,,,,,,,,,,,,,,,,masks/mask_005.jpg,,,,,,,,,,,,,,,,,,,,,,,,,,,,,,,,,,,,,,,,,,,0,3,3,4,1,,,,,,,,,,,,,,,,,,,,,,,,,,,,,,,,,,,,,,,,,,,,,,
175604,001,2022-11-20_18h08.17.738,Info_measure_main_exp,2022.2.2,Win32,60.11421701,,,,,,,,,,,,,,,,,,masks/mask_001.jpg,,,,,,,,,,,,,,,,,,,,,,,,,,,,,,,,,,,,,,,,,,,0,4,4,0,1,,,,,,,,,,,,,,,,,,,,,,,,,,,,,,,,,,,,,,,,,,,,,,
175604,001,2022-11-20_18h08.17.738,Info_measure_main_exp,2022.2.2,Win32,60.11421701,,,,,,,,,,,,,,,,,,masks/mask_002.jpg,,,,,,,,,,,,,,,,,,,,,,,,,,,,,,,,,,,,,,,,,,,,,,,,0,0,0,1,1,,,,,,,,,,,,,,,,,,,,,,,,,,,,,,,,,,,,,,,,,
175604,001,2022-11-20_18h08.17.738,Info_measure_main_exp,2022.2.2,Win32,60.11421701,,,,,,,,,,,,,,,,,,masks/mask_004.jpg,,,,,,,,,,,,,,,,,,,,,,,,,,,,,,,,,,,,,,,,,,,,,,,,0,1,1,3,1,,,,,,,,,,,,,,,,,,,,,,,,,,,,,,,,,,,,,,,,,
175604,001,2022-11-20_18h08.17.738,Info_measure_main_exp,2022.2.2,Win32,60.11421701,,,,,,,,,,,,,,,,,,masks/mask_003.jpg,,,,,,,,,,,,,,,,,,,,,,,,,,,,,,,,,,,,,,,,,,,,,,,,0,2,2,2,1,,,,,,,,,,,,,,,,,,,,,,,,,,,,,,,,,,,,,,,,,
175604,001,2022-11-20_18h08.17.738,Info_measure_main_exp,2022.2.2,Win32,60.11421701,,,,,,,,,,,,,,,,,,masks/mask_001.jpg,,,,,,,,,,,,,,,,,,,,,,,,,,,,,,,,,,,,,,,,,,,,,,,,0,3,3,0,1,,,,,,,,,,,,,,,,,,,,,,,,,,,,,,,,,,,,,,,,,
175604,001,2022-11-20_18h08.17.738,Info_measure_main_exp,2022.2.2,Win32,60.11421701,,,,,,,,,,,,,,,,,,masks/mask_005.jpg,,,,,,,,,,,,,,,,,,,,,,,,,,,,,,,,,,,,,,,,,,,,,,,,0,4,4,4,1,,,,,,,,,,,,,,,,,,,,,,,,,,,,,,,,,,,,,,,,,
175604,001,2022-11-20_18h08.17.738,Info_measure_main_exp,2022.2.2,Win32,60.11421701,,,,,,,,,,,,,,,,,,,,,,,,,,,,,,4,1.7494,1,,,,,,,,,,,,0,131,5,5,2082,2166,absent_patch/patch0002082.jpg,absent_patch/patch0002166.jpg,,,,,,,,,,,,,,,,,,,,0.024739583,-0.075520833,1,0,0,response3disk,20,-0.001302083,0.0078125,1,0,0,center_square,0,19,19,43,1,,,,,,,,,,,,,,,,,,,,,,,
175604,001,2022-11-20_18h08.17.738,Info_measure_main_exp,2022.2.2,Win32,60.11421701,,,,,,,,,,,,,,,,,,masks/mask_003.jpg,,,,,,,,,,,,,,,,,,,,,,,,,,,,,,,,,,,,,,,,,,,0,0,0,2,1,,,,,,,,,,,,,,,,,,,,,,,,,,,,,,,,,,,,,,,,,,,,,,
175604,001,2022-11-20_18h08.17.738,Info_measure_main_exp,2022.2.2,Win32,60.11421701,,,,,,,,,,,,,,,,,,masks/mask_005.jpg,,,,,,,,,,,,,,,,,,,,,,,,,,,,,,,,,,,,,,,,,,,0,1,1,4,1,,,,,,,,,,,,,,,,,,,,,,,,,,,,,,,,,,,,,,,,,,,,,,
175604,001,2022-11-20_18h08.17.738,Info_measure_main_exp,2022.2.2,Win32,60.11421701,,,,,,,,,,,,,,,,,,masks/mask_001.jpg,,,,,,,,,,,,,,,,,,,,,,,,,,,,,,,,,,,,,,,,,,,0,2,2,0,1,,,,,,,,,,,,,,,,,,,,,,,,,,,,,,,,,,,,,,,,,,,,,,
175604,001,2022-11-20_18h08.17.738,Info_measure_main_exp,2022.2.2,Win32,60.11421701,,,,,,,,,,,,,,,,,,masks/mask_004.jpg,,,,,,,,,,,,,,,,,,,,,,,,,,,,,,,,,,,,,,,,,,,0,3,3,3,1,,,,,,,,,,,,,,,,,,,,,,,,,,,,,,,,,,,,,,,,,,,,,,
175604,001,2022-11-20_18h08.17.738,Info_measure_main_exp,2022.2.2,Win32,60.11421701,,,,,,,,,,,,,,,,,,masks/mask_002.jpg,,,,,,,,,,,,,,,,,,,,,,,,,,,,,,,,,,,,,,,,,,,0,4,4,1,1,,,,,,,,,,,,,,,,,,,,,,,,,,,,,,,,,,,,,,,,,,,,,,
175604,001,2022-11-20_18h08.17.738,Info_measure_main_exp,2022.2.2,Win32,60.11421701,,,,,,,,,,,,,,,,,,masks/mask_003.jpg,,,,,,,,,,,,,,,,,,,,,,,,,,,,,,,,,,,,,,,,,,,,,,,,0,0,0,2,1,,,,,,,,,,,,,,,,,,,,,,,,,,,,,,,,,,,,,,,,,
175604,001,2022-11-20_18h08.17.738,Info_measure_main_exp,2022.2.2,Win32,60.11421701,,,,,,,,,,,,,,,,,,masks/mask_002.jpg,,,,,,,,,,,,,,,,,,,,,,,,,,,,,,,,,,,,,,,,,,,,,,,,0,1,1,1,1,,,,,,,,,,,,,,,,,,,,,,,,,,,,,,,,,,,,,,,,,
175604,001,2022-11-20_18h08.17.738,Info_measure_main_exp,2022.2.2,Win32,60.11421701,,,,,,,,,,,,,,,,,,masks/mask_001.jpg,,,,,,,,,,,,,,,,,,,,,,,,,,,,,,,,,,,,,,,,,,,,,,,,0,2,2,0,1,,,,,,,,,,,,,,,,,,,,,,,,,,,,,,,,,,,,,,,,,
175604,001,2022-11-20_18h08.17.738,Info_measure_main_exp,2022.2.2,Win32,60.11421701,,,,,,,,,,,,,,,,,,masks/mask_005.jpg,,,,,,,,,,,,,,,,,,,,,,,,,,,,,,,,,,,,,,,,,,,,,,,,0,3,3,4,1,,,,,,,,,,,,,,,,,,,,,,,,,,,,,,,,,,,,,,,,,
175604,001,2022-11-20_18h08.17.738,Info_measure_main_exp,2022.2.2,Win32,60.11421701,,,,,,,,,,,,,,,,,,masks/mask_004.jpg,,,,,,,,,,,,,,,,,,,,,,,,,,,,,,,,,,,,,,,,,,,,,,,,0,4,4,3,1,,,,,,,,,,,,,,,,,,,,,,,,,,,,,,,,,,,,,,,,,
175604,001,2022-11-20_18h08.17.738,Info_measure_main_exp,2022.2.2,Win32,60.11421701,,,,,,,,,,,,,,,,,,,,,,,,,,,,,,7,0.6156,1,,,,,,,,,,,,0,131,5,5,2250,1986,absent_patch/patch0002250.jpg,absent_patch/patch0001986.jpg,,,,,,,,,,,,,,,,,,,,0.0234375,0.0546875,1,0,0,response1disk,21,0.002604167,-0.0078125,1,0,0,center_square,0,20,20,29,1,,,,,,,,,,,,,,,,,,,,,,,
175604,001,2022-11-20_18h08.17.738,Info_measure_main_exp,2022.2.2,Win32,60.11421701,,,,,,,,,,,,,,,,,,masks/mask_003.jpg,,,,,,,,,,,,,,,,,,,,,,,,,,,,,,,,,,,,,,,,,,,0,0,0,2,1,,,,,,,,,,,,,,,,,,,,,,,,,,,,,,,,,,,,,,,,,,,,,,
175604,001,2022-11-20_18h08.17.738,Info_measure_main_exp,2022.2.2,Win32,60.11421701,,,,,,,,,,,,,,,,,,masks/mask_001.jpg,,,,,,,,,,,,,,,,,,,,,,,,,,,,,,,,,,,,,,,,,,,0,1,1,0,1,,,,,,,,,,,,,,,,,,,,,,,,,,,,,,,,,,,,,,,,,,,,,,
175604,001,2022-11-20_18h08.17.738,Info_measure_main_exp,2022.2.2,Win32,60.11421701,,,,,,,,,,,,,,,,,,masks/mask_004.jpg,,,,,,,,,,,,,,,,,,,,,,,,,,,,,,,,,,,,,,,,,,,0,2,2,3,1,,,,,,,,,,,,,,,,,,,,,,,,,,,,,,,,,,,,,,,,,,,,,,
175604,001,2022-11-20_18h08.17.738,Info_measure_main_exp,2022.2.2,Win32,60.11421701,,,,,,,,,,,,,,,,,,masks/mask_002.jpg,,,,,,,,,,,,,,,,,,,,,,,,,,,,,,,,,,,,,,,,,,,0,3,3,1,1,,,,,,,,,,,,,,,,,,,,,,,,,,,,,,,,,,,,,,,,,,,,,,
175604,001,2022-11-20_18h08.17.738,Info_measure_main_exp,2022.2.2,Win32,60.11421701,,,,,,,,,,,,,,,,,,masks/mask_005.jpg,,,,,,,,,,,,,,,,,,,,,,,,,,,,,,,,,,,,,,,,,,,0,4,4,4,1,,,,,,,,,,,,,,,,,,,,,,,,,,,,,,,,,,,,,,,,,,,,,,
175604,001,2022-11-20_18h08.17.738,Info_measure_main_exp,2022.2.2,Win32,60.11421701,,,,,,,,,,,,,,,,,,masks/mask_002.jpg,,,,,,,,,,,,,,,,,,,,,,,,,,,,,,,,,,,,,,,,,,,,,,,,0,0,0,1,1,,,,,,,,,,,,,,,,,,,,,,,,,,,,,,,,,,,,,,,,,
175604,001,2022-11-20_18h08.17.738,Info_measure_main_exp,2022.2.2,Win32,60.11421701,,,,,,,,,,,,,,,,,,masks/mask_003.jpg,,,,,,,,,,,,,,,,,,,,,,,,,,,,,,,,,,,,,,,,,,,,,,,,0,1,1,2,1,,,,,,,,,,,,,,,,,,,,,,,,,,,,,,,,,,,,,,,,,
175604,001,2022-11-20_18h08.17.738,Info_measure_main_exp,2022.2.2,Win32,60.11421701,,,,,,,,,,,,,,,,,,masks/mask_001.jpg,,,,,,,,,,,,,,,,,,,,,,,,,,,,,,,,,,,,,,,,,,,,,,,,0,2,2,0,1,,,,,,,,,,,,,,,,,,,,,,,,,,,,,,,,,,,,,,,,,
175604,001,2022-11-20_18h08.17.738,Info_measure_main_exp,2022.2.2,Win32,60.11421701,,,,,,,,,,,,,,,,,,masks/mask_004.jpg,,,,,,,,,,,,,,,,,,,,,,,,,,,,,,,,,,,,,,,,,,,,,,,,0,3,3,3,1,,,,,,,,,,,,,,,,,,,,,,,,,,,,,,,,,,,,,,,,,
175604,001,2022-11-20_18h08.17.738,Info_measure_main_exp,2022.2.2,Win32,60.11421701,,,,,,,,,,,,,,,,,,masks/mask_005.jpg,,,,,,,,,,,,,,,,,,,,,,,,,,,,,,,,,,,,,,,,,,,,,,,,0,4,4,4,1,,,,,,,,,,,,,,,,,,,,,,,,,,,,,,,,,,,,,,,,,
175604,001,2022-11-20_18h08.17.738,Info_measure_main_exp,2022.2.2,Win32,60.11421701,,,,,,,,,,,,,,,,,,,,,,,,,,,,,,7,0.5855,1,,,,,,,,,,,,1,131,5,5,2250,1,absent_patch/patch0002250.jpg,present_patch/cong_131_5_a.jpg,,,,,,,,,,,,,,,,,,,,0.015625,0.087239583,1,0,0,response1disk,22,-0.00390625,-0.006510417,1,0,0,center_square,0,21,21,5,1,,,,,,,,,,,,,,,,,,,,,,,
175604,001,2022-11-20_18h08.17.738,Info_measure_main_exp,2022.2.2,Win32,60.11421701,,,,,,,,,,,,,,,,,,masks/mask_001.jpg,,,,,,,,,,,,,,,,,,,,,,,,,,,,,,,,,,,,,,,,,,,0,0,0,0,1,,,,,,,,,,,,,,,,,,,,,,,,,,,,,,,,,,,,,,,,,,,,,,
175604,001,2022-11-20_18h08.17.738,Info_measure_main_exp,2022.2.2,Win32,60.11421701,,,,,,,,,,,,,,,,,,masks/mask_002.jpg,,,,,,,,,,,,,,,,,,,,,,,,,,,,,,,,,,,,,,,,,,,0,1,1,1,1,,,,,,,,,,,,,,,,,,,,,,,,,,,,,,,,,,,,,,,,,,,,,,
175604,001,2022-11-20_18h08.17.738,Info_measure_main_exp,2022.2.2,Win32,60.11421701,,,,,,,,,,,,,,,,,,masks/mask_005.jpg,,,,,,,,,,,,,,,,,,,,,,,,,,,,,,,,,,,,,,,,,,,0,2,2,4,1,,,,,,,,,,,,,,,,,,,,,,,,,,,,,,,,,,,,,,,,,,,,,,
175604,001,2022-11-20_18h08.17.738,Info_measure_main_exp,2022.2.2,Win32,60.11421701,,,,,,,,,,,,,,,,,,masks/mask_003.jpg,,,,,,,,,,,,,,,,,,,,,,,,,,,,,,,,,,,,,,,,,,,0,3,3,2,1,,,,,,,,,,,,,,,,,,,,,,,,,,,,,,,,,,,,,,,,,,,,,,
175604,001,2022-11-20_18h08.17.738,Info_measure_main_exp,2022.2.2,Win32,60.11421701,,,,,,,,,,,,,,,,,,masks/mask_004.jpg,,,,,,,,,,,,,,,,,,,,,,,,,,,,,,,,,,,,,,,,,,,0,4,4,3,1,,,,,,,,,,,,,,,,,,,,,,,,,,,,,,,,,,,,,,,,,,,,,,
175604,001,2022-11-20_18h08.17.738,Info_measure_main_exp,2022.2.2,Win32,60.11421701,,,,,,,,,,,,,,,,,,masks/mask_003.jpg,,,,,,,,,,,,,,,,,,,,,,,,,,,,,,,,,,,,,,,,,,,,,,,,0,0,0,2,1,,,,,,,,,,,,,,,,,,,,,,,,,,,,,,,,,,,,,,,,,
175604,001,2022-11-20_18h08.17.738,Info_measure_main_exp,2022.2.2,Win32,60.11421701,,,,,,,,,,,,,,,,,,masks/mask_004.jpg,,,,,,,,,,,,,,,,,,,,,,,,,,,,,,,,,,,,,,,,,,,,,,,,0,1,1,3,1,,,,,,,,,,,,,,,,,,,,,,,,,,,,,,,,,,,,,,,,,
175604,001,2022-11-20_18h08.17.738,Info_measure_main_exp,2022.2.2,Win32,60.11421701,,,,,,,,,,,,,,,,,,masks/mask_002.jpg,,,,,,,,,,,,,,,,,,,,,,,,,,,,,,,,,,,,,,,,,,,,,,,,0,2,2,1,1,,,,,,,,,,,,,,,,,,,,,,,,,,,,,,,,,,,,,,,,,
175604,001,2022-11-20_18h08.17.738,Info_measure_main_exp,2022.2.2,Win32,60.11421701,,,,,,,,,,,,,,,,,,masks/mask_005.jpg,,,,,,,,,,,,,,,,,,,,,,,,,,,,,,,,,,,,,,,,,,,,,,,,0,3,3,4,1,,,,,,,,,,,,,,,,,,,,,,,,,,,,,,,,,,,,,,,,,
175604,001,2022-11-20_18h08.17.738,Info_measure_main_exp,2022.2.2,Win32,60.11421701,,,,,,,,,,,,,,,,,,masks/mask_001.jpg,,,,,,,,,,,,,,,,,,,,,,,,,,,,,,,,,,,,,,,,,,,,,,,,0,4,4,0,1,,,,,,,,,,,,,,,,,,,,,,,,,,,,,,,,,,,,,,,,,
175604,001,2022-11-20_18h08.17.738,Info_measure_main_exp,2022.2.2,Win32,60.11421701,,,,,,,,,,,,,,,,,,,,,,,,,,,,,,7,0.6349,1,,,,,,,,,,,,0,131,5,5,2214,1986,absent_patch/patch0002214.jpg,absent_patch/patch0001986.jpg,,,,,,,,,,,,,,,,,,,,0.03125,0.09375,1,0,0,response1disk,23,-0.010416667,0,1,0,0,center_square,0,22,22,34,1,,,,,,,,,,,,,,,,,,,,,,,
175604,001,2022-11-20_18h08.17.738,Info_measure_main_exp,2022.2.2,Win32,60.11421701,,,,,,,,,,,,,,,,,,masks/mask_001.jpg,,,,,,,,,,,,,,,,,,,,,,,,,,,,,,,,,,,,,,,,,,,0,0,0,0,1,,,,,,,,,,,,,,,,,,,,,,,,,,,,,,,,,,,,,,,,,,,,,,
175604,001,2022-11-20_18h08.17.738,Info_measure_main_exp,2022.2.2,Win32,60.11421701,,,,,,,,,,,,,,,,,,masks/mask_004.jpg,,,,,,,,,,,,,,,,,,,,,,,,,,,,,,,,,,,,,,,,,,,0,1,1,3,1,,,,,,,,,,,,,,,,,,,,,,,,,,,,,,,,,,,,,,,,,,,,,,
175604,001,2022-11-20_18h08.17.738,Info_measure_main_exp,2022.2.2,Win32,60.11421701,,,,,,,,,,,,,,,,,,masks/mask_002.jpg,,,,,,,,,,,,,,,,,,,,,,,,,,,,,,,,,,,,,,,,,,,0,2,2,1,1,,,,,,,,,,,,,,,,,,,,,,,,,,,,,,,,,,,,,,,,,,,,,,
175604,001,2022-11-20_18h08.17.738,Info_measure_main_exp,2022.2.2,Win32,60.11421701,,,,,,,,,,,,,,,,,,masks/mask_003.jpg,,,,,,,,,,,,,,,,,,,,,,,,,,,,,,,,,,,,,,,,,,,0,3,3,2,1,,,,,,,,,,,,,,,,,,,,,,,,,,,,,,,,,,,,,,,,,,,,,,
175604,001,2022-11-20_18h08.17.738,Info_measure_main_exp,2022.2.2,Win32,60.11421701,,,,,,,,,,,,,,,,,,masks/mask_005.jpg,,,,,,,,,,,,,,,,,,,,,,,,,,,,,,,,,,,,,,,,,,,0,4,4,4,1,,,,,,,,,,,,,,,,,,,,,,,,,,,,,,,,,,,,,,,,,,,,,,
175604,001,2022-11-20_18h08.17.738,Info_measure_main_exp,2022.2.2,Win32,60.11421701,,,,,,,,,,,,,,,,,,masks/mask_004.jpg,,,,,,,,,,,,,,,,,,,,,,,,,,,,,,,,,,,,,,,,,,,,,,,,0,0,0,3,1,,,,,,,,,,,,,,,,,,,,,,,,,,,,,,,,,,,,,,,,,
175604,001,2022-11-20_18h08.17.738,Info_measure_main_exp,2022.2.2,Win32,60.11421701,,,,,,,,,,,,,,,,,,masks/mask_005.jpg,,,,,,,,,,,,,,,,,,,,,,,,,,,,,,,,,,,,,,,,,,,,,,,,0,1,1,4,1,,,,,,,,,,,,,,,,,,,,,,,,,,,,,,,,,,,,,,,,,
175604,001,2022-11-20_18h08.17.738,Info_measure_main_exp,2022.2.2,Win32,60.11421701,,,,,,,,,,,,,,,,,,masks/mask_001.jpg,,,,,,,,,,,,,,,,,,,,,,,,,,,,,,,,,,,,,,,,,,,,,,,,0,2,2,0,1,,,,,,,,,,,,,,,,,,,,,,,,,,,,,,,,,,,,,,,,,
175604,001,2022-11-20_18h08.17.738,Info_measure_main_exp,2022.2.2,Win32,60.11421701,,,,,,,,,,,,,,,,,,masks/mask_003.jpg,,,,,,,,,,,,,,,,,,,,,,,,,,,,,,,,,,,,,,,,,,,,,,,,0,3,3,2,1,,,,,,,,,,,,,,,,,,,,,,,,,,,,,,,,,,,,,,,,,
175604,001,2022-11-20_18h08.17.738,Info_measure_main_exp,2022.2.2,Win32,60.11421701,,,,,,,,,,,,,,,,,,masks/mask_002.jpg,,,,,,,,,,,,,,,,,,,,,,,,,,,,,,,,,,,,,,,,,,,,,,,,0,4,4,1,1,,,,,,,,,,,,,,,,,,,,,,,,,,,,,,,,,,,,,,,,,
175604,001,2022-11-20_18h08.17.738,Info_measure_main_exp,2022.2.2,Win32,60.11421701,,,,,,,,,,,,,,,,,,,,,,,,,,,,,,7,0.7341,1,,,,,,,,,,,,1,131,5,5,1,2214,present_patch/cong_131_5_a.jpg,absent_patch/patch0002214.jpg,,,,,,,,,,,,,,,,,,,,0.0703125,0.139322917,1,0,0,response1disk,24,0.002604167,-0.014322917,1,0,0,center_square,0,23,23,4,1,,,,,,,,,,,,,,,,,,,,,,,
175604,001,2022-11-20_18h08.17.738,Info_measure_main_exp,2022.2.2,Win32,60.11421701,,,,,,,,,,,,,,,,,,masks/mask_002.jpg,,,,,,,,,,,,,,,,,,,,,,,,,,,,,,,,,,,,,,,,,,,0,0,0,1,1,,,,,,,,,,,,,,,,,,,,,,,,,,,,,,,,,,,,,,,,,,,,,,
175604,001,2022-11-20_18h08.17.738,Info_measure_main_exp,2022.2.2,Win32,60.11421701,,,,,,,,,,,,,,,,,,masks/mask_004.jpg,,,,,,,,,,,,,,,,,,,,,,,,,,,,,,,,,,,,,,,,,,,0,1,1,3,1,,,,,,,,,,,,,,,,,,,,,,,,,,,,,,,,,,,,,,,,,,,,,,
175604,001,2022-11-20_18h08.17.738,Info_measure_main_exp,2022.2.2,Win32,60.11421701,,,,,,,,,,,,,,,,,,masks/mask_003.jpg,,,,,,,,,,,,,,,,,,,,,,,,,,,,,,,,,,,,,,,,,,,0,2,2,2,1,,,,,,,,,,,,,,,,,,,,,,,,,,,,,,,,,,,,,,,,,,,,,,
175604,001,2022-11-20_18h08.17.738,Info_measure_main_exp,2022.2.2,Win32,60.11421701,,,,,,,,,,,,,,,,,,masks/mask_005.jpg,,,,,,,,,,,,,,,,,,,,,,,,,,,,,,,,,,,,,,,,,,,0,3,3,4,1,,,,,,,,,,,,,,,,,,,,,,,,,,,,,,,,,,,,,,,,,,,,,,
175604,001,2022-11-20_18h08.17.738,Info_measure_main_exp,2022.2.2,Win32,60.11421701,,,,,,,,,,,,,,,,,,masks/mask_001.jpg,,,,,,,,,,,,,,,,,,,,,,,,,,,,,,,,,,,,,,,,,,,0,4,4,0,1,,,,,,,,,,,,,,,,,,,,,,,,,,,,,,,,,,,,,,,,,,,,,,
175604,001,2022-11-20_18h08.17.738,Info_measure_main_exp,2022.2.2,Win32,60.11421701,,,,,,,,,,,,,,,,,,masks/mask_001.jpg,,,,,,,,,,,,,,,,,,,,,,,,,,,,,,,,,,,,,,,,,,,,,,,,0,0,0,0,1,,,,,,,,,,,,,,,,,,,,,,,,,,,,,,,,,,,,,,,,,
175604,001,2022-11-20_18h08.17.738,Info_measure_main_exp,2022.2.2,Win32,60.11421701,,,,,,,,,,,,,,,,,,masks/mask_004.jpg,,,,,,,,,,,,,,,,,,,,,,,,,,,,,,,,,,,,,,,,,,,,,,,,0,1,1,3,1,,,,,,,,,,,,,,,,,,,,,,,,,,,,,,,,,,,,,,,,,
175604,001,2022-11-20_18h08.17.738,Info_measure_main_exp,2022.2.2,Win32,60.11421701,,,,,,,,,,,,,,,,,,masks/mask_003.jpg,,,,,,,,,,,,,,,,,,,,,,,,,,,,,,,,,,,,,,,,,,,,,,,,0,2,2,2,1,,,,,,,,,,,,,,,,,,,,,,,,,,,,,,,,,,,,,,,,,
175604,001,2022-11-20_18h08.17.738,Info_measure_main_exp,2022.2.2,Win32,60.11421701,,,,,,,,,,,,,,,,,,masks/mask_002.jpg,,,,,,,,,,,,,,,,,,,,,,,,,,,,,,,,,,,,,,,,,,,,,,,,0,3,3,1,1,,,,,,,,,,,,,,,,,,,,,,,,,,,,,,,,,,,,,,,,,
175604,001,2022-11-20_18h08.17.738,Info_measure_main_exp,2022.2.2,Win32,60.11421701,,,,,,,,,,,,,,,,,,masks/mask_005.jpg,,,,,,,,,,,,,,,,,,,,,,,,,,,,,,,,,,,,,,,,,,,,,,,,0,4,4,4,1,,,,,,,,,,,,,,,,,,,,,,,,,,,,,,,,,,,,,,,,,
175604,001,2022-11-20_18h08.17.738,Info_measure_main_exp,2022.2.2,Win32,60.11421701,,,,,,,,,,,,,,,,,,,,,,,,,,,,,,4,1.7178,1,,,,,,,,,,,,0,131,5,5,1974,2298,absent_patch/patch0001974.jpg,absent_patch/patch0002298.jpg,,,,,,,,,,,,,,,,,,,,0.053385417,-0.072916667,1,0,0,response3disk,25,0.006510417,-0.001302083,1,0,0,center_square,0,24,24,6,1,,,,,,,,,,,,,,,,,,,,,,,
175604,001,2022-11-20_18h08.17.738,Info_measure_main_exp,2022.2.2,Win32,60.11421701,,,,,,,,,,,,,,,,,,masks/mask_003.jpg,,,,,,,,,,,,,,,,,,,,,,,,,,,,,,,,,,,,,,,,,,,0,0,0,2,1,,,,,,,,,,,,,,,,,,,,,,,,,,,,,,,,,,,,,,,,,,,,,,
175604,001,2022-11-20_18h08.17.738,Info_measure_main_exp,2022.2.2,Win32,60.11421701,,,,,,,,,,,,,,,,,,masks/mask_004.jpg,,,,,,,,,,,,,,,,,,,,,,,,,,,,,,,,,,,,,,,,,,,0,1,1,3,1,,,,,,,,,,,,,,,,,,,,,,,,,,,,,,,,,,,,,,,,,,,,,,
175604,001,2022-11-20_18h08.17.738,Info_measure_main_exp,2022.2.2,Win32,60.11421701,,,,,,,,,,,,,,,,,,masks/mask_005.jpg,,,,,,,,,,,,,,,,,,,,,,,,,,,,,,,,,,,,,,,,,,,0,2,2,4,1,,,,,,,,,,,,,,,,,,,,,,,,,,,,,,,,,,,,,,,,,,,,,,
175604,001,2022-11-20_18h08.17.738,Info_measure_main_exp,2022.2.2,Win32,60.11421701,,,,,,,,,,,,,,,,,,masks/mask_002.jpg,,,,,,,,,,,,,,,,,,,,,,,,,,,,,,,,,,,,,,,,,,,0,3,3,1,1,,,,,,,,,,,,,,,,,,,,,,,,,,,,,,,,,,,,,,,,,,,,,,
175604,001,2022-11-20_18h08.17.738,Info_measure_main_exp,2022.2.2,Win32,60.11421701,,,,,,,,,,,,,,,,,,masks/mask_001.jpg,,,,,,,,,,,,,,,,,,,,,,,,,,,,,,,,,,,,,,,,,,,0,4,4,0,1,,,,,,,,,,,,,,,,,,,,,,,,,,,,,,,,,,,,,,,,,,,,,,
175604,001,2022-11-20_18h08.17.738,Info_measure_main_exp,2022.2.2,Win32,60.11421701,,,,,,,,,,,,,,,,,,masks/mask_004.jpg,,,,,,,,,,,,,,,,,,,,,,,,,,,,,,,,,,,,,,,,,,,,,,,,0,0,0,3,1,,,,,,,,,,,,,,,,,,,,,,,,,,,,,,,,,,,,,,,,,
175604,001,2022-11-20_18h08.17.738,Info_measure_main_exp,2022.2.2,Win32,60.11421701,,,,,,,,,,,,,,,,,,masks/mask_001.jpg,,,,,,,,,,,,,,,,,,,,,,,,,,,,,,,,,,,,,,,,,,,,,,,,0,1,1,0,1,,,,,,,,,,,,,,,,,,,,,,,,,,,,,,,,,,,,,,,,,
175604,001,2022-11-20_18h08.17.738,Info_measure_main_exp,2022.2.2,Win32,60.11421701,,,,,,,,,,,,,,,,,,masks/mask_005.jpg,,,,,,,,,,,,,,,,,,,,,,,,,,,,,,,,,,,,,,,,,,,,,,,,0,2,2,4,1,,,,,,,,,,,,,,,,,,,,,,,,,,,,,,,,,,,,,,,,,
175604,001,2022-11-20_18h08.17.738,Info_measure_main_exp,2022.2.2,Win32,60.11421701,,,,,,,,,,,,,,,,,,masks/mask_002.jpg,,,,,,,,,,,,,,,,,,,,,,,,,,,,,,,,,,,,,,,,,,,,,,,,0,3,3,1,1,,,,,,,,,,,,,,,,,,,,,,,,,,,,,,,,,,,,,,,,,
175604,001,2022-11-20_18h08.17.738,Info_measure_main_exp,2022.2.2,Win32,60.11421701,,,,,,,,,,,,,,,,,,masks/mask_003.jpg,,,,,,,,,,,,,,,,,,,,,,,,,,,,,,,,,,,,,,,,,,,,,,,,0,4,4,2,1,,,,,,,,,,,,,,,,,,,,,,,,,,,,,,,,,,,,,,,,,
175604,001,2022-11-20_18h08.17.738,Info_measure_main_exp,2022.2.2,Win32,60.11421701,,,,,,,,,,,,,,,,,,,,,,,,,,,,,,7,1.1646,1,,,,,,,,,,,,0,131,5,5,2154,2250,absent_patch/patch0002154.jpg,absent_patch/patch0002250.jpg,,,,,,,,,,,,,,,,,,,,0.044270833,0.087239583,1,0,0,response1disk,26,0.010416667,-0.0078125,1,0,0,center_square,0,25,25,108,1,,,,,,,,,,,,,,,,,,,,,,,
175604,001,2022-11-20_18h08.17.738,Info_measure_main_exp,2022.2.2,Win32,60.11421701,,,,,,,,,,,,,,,,,,masks/mask_005.jpg,,,,,,,,,,,,,,,,,,,,,,,,,,,,,,,,,,,,,,,,,,,0,0,0,4,1,,,,,,,,,,,,,,,,,,,,,,,,,,,,,,,,,,,,,,,,,,,,,,
175604,001,2022-11-20_18h08.17.738,Info_measure_main_exp,2022.2.2,Win32,60.11421701,,,,,,,,,,,,,,,,,,masks/mask_002.jpg,,,,,,,,,,,,,,,,,,,,,,,,,,,,,,,,,,,,,,,,,,,0,1,1,1,1,,,,,,,,,,,,,,,,,,,,,,,,,,,,,,,,,,,,,,,,,,,,,,
175604,001,2022-11-20_18h08.17.738,Info_measure_main_exp,2022.2.2,Win32,60.11421701,,,,,,,,,,,,,,,,,,masks/mask_001.jpg,,,,,,,,,,,,,,,,,,,,,,,,,,,,,,,,,,,,,,,,,,,0,2,2,0,1,,,,,,,,,,,,,,,,,,,,,,,,,,,,,,,,,,,,,,,,,,,,,,
175604,001,2022-11-20_18h08.17.738,Info_measure_main_exp,2022.2.2,Win32,60.11421701,,,,,,,,,,,,,,,,,,masks/mask_004.jpg,,,,,,,,,,,,,,,,,,,,,,,,,,,,,,,,,,,,,,,,,,,0,3,3,3,1,,,,,,,,,,,,,,,,,,,,,,,,,,,,,,,,,,,,,,,,,,,,,,
175604,001,2022-11-20_18h08.17.738,Info_measure_main_exp,2022.2.2,Win32,60.11421701,,,,,,,,,,,,,,,,,,masks/mask_003.jpg,,,,,,,,,,,,,,,,,,,,,,,,,,,,,,,,,,,,,,,,,,,0,4,4,2,1,,,,,,,,,,,,,,,,,,,,,,,,,,,,,,,,,,,,,,,,,,,,,,
175604,001,2022-11-20_18h08.17.738,Info_measure_main_exp,2022.2.2,Win32,60.11421701,,,,,,,,,,,,,,,,,,masks/mask_005.jpg,,,,,,,,,,,,,,,,,,,,,,,,,,,,,,,,,,,,,,,,,,,,,,,,0,0,0,4,1,,,,,,,,,,,,,,,,,,,,,,,,,,,,,,,,,,,,,,,,,
175604,001,2022-11-20_18h08.17.738,Info_measure_main_exp,2022.2.2,Win32,60.11421701,,,,,,,,,,,,,,,,,,masks/mask_003.jpg,,,,,,,,,,,,,,,,,,,,,,,,,,,,,,,,,,,,,,,,,,,,,,,,0,1,1,2,1,,,,,,,,,,,,,,,,,,,,,,,,,,,,,,,,,,,,,,,,,
175604,001,2022-11-20_18h08.17.738,Info_measure_main_exp,2022.2.2,Win32,60.11421701,,,,,,,,,,,,,,,,,,masks/mask_001.jpg,,,,,,,,,,,,,,,,,,,,,,,,,,,,,,,,,,,,,,,,,,,,,,,,0,2,2,0,1,,,,,,,,,,,,,,,,,,,,,,,,,,,,,,,,,,,,,,,,,
175604,001,2022-11-20_18h08.17.738,Info_measure_main_exp,2022.2.2,Win32,60.11421701,,,,,,,,,,,,,,,,,,masks/mask_004.jpg,,,,,,,,,,,,,,,,,,,,,,,,,,,,,,,,,,,,,,,,,,,,,,,,0,3,3,3,1,,,,,,,,,,,,,,,,,,,,,,,,,,,,,,,,,,,,,,,,,
175604,001,2022-11-20_18h08.17.738,Info_measure_main_exp,2022.2.2,Win32,60.11421701,,,,,,,,,,,,,,,,,,masks/mask_002.jpg,,,,,,,,,,,,,,,,,,,,,,,,,,,,,,,,,,,,,,,,,,,,,,,,0,4,4,1,1,,,,,,,,,,,,,,,,,,,,,,,,,,,,,,,,,,,,,,,,,
175604,001,2022-11-20_18h08.17.738,Info_measure_main_exp,2022.2.2,Win32,60.11421701,,,,,,,,,,,,,,,,,,,,,,,,,,,,,,7,0.7818,1,,,,,,,,,,,,0,131,5,5,1974,2238,absent_patch/patch0001974.jpg,absent_patch/patch0002238.jpg,,,,,,,,,,,,,,,,,,,,0.059895833,0.147135417,1,0,0,response1disk,27,0.010416667,0.009114583,1,0,0,center_square,0,26,26,95,1,,,,,,,,,,,,,,,,,,,,,,,
175604,001,2022-11-20_18h08.17.738,Info_measure_main_exp,2022.2.2,Win32,60.11421701,,,,,,,,,,,,,,,,,,masks/mask_004.jpg,,,,,,,,,,,,,,,,,,,,,,,,,,,,,,,,,,,,,,,,,,,0,0,0,3,1,,,,,,,,,,,,,,,,,,,,,,,,,,,,,,,,,,,,,,,,,,,,,,
175604,001,2022-11-20_18h08.17.738,Info_measure_main_exp,2022.2.2,Win32,60.11421701,,,,,,,,,,,,,,,,,,masks/mask_001.jpg,,,,,,,,,,,,,,,,,,,,,,,,,,,,,,,,,,,,,,,,,,,0,1,1,0,1,,,,,,,,,,,,,,,,,,,,,,,,,,,,,,,,,,,,,,,,,,,,,,
175604,001,2022-11-20_18h08.17.738,Info_measure_main_exp,2022.2.2,Win32,60.11421701,,,,,,,,,,,,,,,,,,masks/mask_003.jpg,,,,,,,,,,,,,,,,,,,,,,,,,,,,,,,,,,,,,,,,,,,0,2,2,2,1,,,,,,,,,,,,,,,,,,,,,,,,,,,,,,,,,,,,,,,,,,,,,,
175604,001,2022-11-20_18h08.17.738,Info_measure_main_exp,2022.2.2,Win32,60.11421701,,,,,,,,,,,,,,,,,,masks/mask_005.jpg,,,,,,,,,,,,,,,,,,,,,,,,,,,,,,,,,,,,,,,,,,,0,3,3,4,1,,,,,,,,,,,,,,,,,,,,,,,,,,,,,,,,,,,,,,,,,,,,,,
175604,001,2022-11-20_18h08.17.738,Info_measure_main_exp,2022.2.2,Win32,60.11421701,,,,,,,,,,,,,,,,,,masks/mask_002.jpg,,,,,,,,,,,,,,,,,,,,,,,,,,,,,,,,,,,,,,,,,,,0,4,4,1,1,,,,,,,,,,,,,,,,,,,,,,,,,,,,,,,,,,,,,,,,,,,,,,
175604,001,2022-11-20_18h08.17.738,Info_measure_main_exp,2022.2.2,Win32,60.11421701,,,,,,,,,,,,,,,,,,masks/mask_002.jpg,,,,,,,,,,,,,,,,,,,,,,,,,,,,,,,,,,,,,,,,,,,,,,,,0,0,0,1,1,,,,,,,,,,,,,,,,,,,,,,,,,,,,,,,,,,,,,,,,,
175604,001,2022-11-20_18h08.17.738,Info_measure_main_exp,2022.2.2,Win32,60.11421701,,,,,,,,,,,,,,,,,,masks/mask_004.jpg,,,,,,,,,,,,,,,,,,,,,,,,,,,,,,,,,,,,,,,,,,,,,,,,0,1,1,3,1,,,,,,,,,,,,,,,,,,,,,,,,,,,,,,,,,,,,,,,,,
175604,001,2022-11-20_18h08.17.738,Info_measure_main_exp,2022.2.2,Win32,60.11421701,,,,,,,,,,,,,,,,,,masks/mask_001.jpg,,,,,,,,,,,,,,,,,,,,,,,,,,,,,,,,,,,,,,,,,,,,,,,,0,2,2,0,1,,,,,,,,,,,,,,,,,,,,,,,,,,,,,,,,,,,,,,,,,
175604,001,2022-11-20_18h08.17.738,Info_measure_main_exp,2022.2.2,Win32,60.11421701,,,,,,,,,,,,,,,,,,masks/mask_003.jpg,,,,,,,,,,,,,,,,,,,,,,,,,,,,,,,,,,,,,,,,,,,,,,,,0,3,3,2,1,,,,,,,,,,,,,,,,,,,,,,,,,,,,,,,,,,,,,,,,,
175604,001,2022-11-20_18h08.17.738,Info_measure_main_exp,2022.2.2,Win32,60.11421701,,,,,,,,,,,,,,,,,,masks/mask_005.jpg,,,,,,,,,,,,,,,,,,,,,,,,,,,,,,,,,,,,,,,,,,,,,,,,0,4,4,4,1,,,,,,,,,,,,,,,,,,,,,,,,,,,,,,,,,,,,,,,,,
175604,001,2022-11-20_18h08.17.738,Info_measure_main_exp,2022.2.2,Win32,60.11421701,,,,,,,,,,,,,,,,,,,,,,,,,,,,,,7,0.7003,1,,,,,,,,,,,,0,131,5,5,1950,2238,absent_patch/patch0001950.jpg,absent_patch/patch0002238.jpg,,,,,,,,,,,,,,,,,,,,0.032552083,0.08203125,1,0,0,response1disk,28,0.0078125,0.009114583,1,0,0,center_square,0,27,27,8,1,,,,,,,,,,,,,,,,,,,,,,,
175604,001,2022-11-20_18h08.17.738,Info_measure_main_exp,2022.2.2,Win32,60.11421701,,,,,,,,,,,,,,,,,,masks/mask_003.jpg,,,,,,,,,,,,,,,,,,,,,,,,,,,,,,,,,,,,,,,,,,,0,0,0,2,1,,,,,,,,,,,,,,,,,,,,,,,,,,,,,,,,,,,,,,,,,,,,,,
175604,001,2022-11-20_18h08.17.738,Info_measure_main_exp,2022.2.2,Win32,60.11421701,,,,,,,,,,,,,,,,,,masks/mask_002.jpg,,,,,,,,,,,,,,,,,,,,,,,,,,,,,,,,,,,,,,,,,,,0,1,1,1,1,,,,,,,,,,,,,,,,,,,,,,,,,,,,,,,,,,,,,,,,,,,,,,
175604,001,2022-11-20_18h08.17.738,Info_measure_main_exp,2022.2.2,Win32,60.11421701,,,,,,,,,,,,,,,,,,masks/mask_005.jpg,,,,,,,,,,,,,,,,,,,,,,,,,,,,,,,,,,,,,,,,,,,0,2,2,4,1,,,,,,,,,,,,,,,,,,,,,,,,,,,,,,,,,,,,,,,,,,,,,,
175604,001,2022-11-20_18h08.17.738,Info_measure_main_exp,2022.2.2,Win32,60.11421701,,,,,,,,,,,,,,,,,,masks/mask_001.jpg,,,,,,,,,,,,,,,,,,,,,,,,,,,,,,,,,,,,,,,,,,,0,3,3,0,1,,,,,,,,,,,,,,,,,,,,,,,,,,,,,,,,,,,,,,,,,,,,,,
175604,001,2022-11-20_18h08.17.738,Info_measure_main_exp,2022.2.2,Win32,60.11421701,,,,,,,,,,,,,,,,,,masks/mask_004.jpg,,,,,,,,,,,,,,,,,,,,,,,,,,,,,,,,,,,,,,,,,,,0,4,4,3,1,,,,,,,,,,,,,,,,,,,,,,,,,,,,,,,,,,,,,,,,,,,,,,
175604,001,2022-11-20_18h08.17.738,Info_measure_main_exp,2022.2.2,Win32,60.11421701,,,,,,,,,,,,,,,,,,masks/mask_005.jpg,,,,,,,,,,,,,,,,,,,,,,,,,,,,,,,,,,,,,,,,,,,,,,,,0,0,0,4,1,,,,,,,,,,,,,,,,,,,,,,,,,,,,,,,,,,,,,,,,,
175604,001,2022-11-20_18h08.17.738,Info_measure_main_exp,2022.2.2,Win32,60.11421701,,,,,,,,,,,,,,,,,,masks/mask_001.jpg,,,,,,,,,,,,,,,,,,,,,,,,,,,,,,,,,,,,,,,,,,,,,,,,0,1,1,0,1,,,,,,,,,,,,,,,,,,,,,,,,,,,,,,,,,,,,,,,,,
175604,001,2022-11-20_18h08.17.738,Info_measure_main_exp,2022.2.2,Win32,60.11421701,,,,,,,,,,,,,,,,,,masks/mask_003.jpg,,,,,,,,,,,,,,,,,,,,,,,,,,,,,,,,,,,,,,,,,,,,,,,,0,2,2,2,1,,,,,,,,,,,,,,,,,,,,,,,,,,,,,,,,,,,,,,,,,
175604,001,2022-11-20_18h08.17.738,Info_measure_main_exp,2022.2.2,Win32,60.11421701,,,,,,,,,,,,,,,,,,masks/mask_004.jpg,,,,,,,,,,,,,,,,,,,,,,,,,,,,,,,,,,,,,,,,,,,,,,,,0,3,3,3,1,,,,,,,,,,,,,,,,,,,,,,,,,,,,,,,,,,,,,,,,,
175604,001,2022-11-20_18h08.17.738,Info_measure_main_exp,2022.2.2,Win32,60.11421701,,,,,,,,,,,,,,,,,,masks/mask_002.jpg,,,,,,,,,,,,,,,,,,,,,,,,,,,,,,,,,,,,,,,,,,,,,,,,0,4,4,1,1,,,,,,,,,,,,,,,,,,,,,,,,,,,,,,,,,,,,,,,,,
175604,001,2022-11-20_18h08.17.738,Info_measure_main_exp,2022.2.2,Win32,60.11421701,,,,,,,,,,,,,,,,,,,,,,,,,,,,,,4,2.501,1,,,,,,,,,,,,0,131,5,5,2298,2214,absent_patch/patch0002298.jpg,absent_patch/patch0002214.jpg,,,,,,,,,,,,,,,,,,,,0.029947917,-0.134114583,1,0,0,response3disk,29,0.002604167,0.0078125,1,0,0,center_square,0,28,28,99,1,,,,,,,,,,,,,,,,,,,,,,,
175604,001,2022-11-20_18h08.17.738,Info_measure_main_exp,2022.2.2,Win32,60.11421701,,,,,,,,,,,,,,,,,,masks/mask_004.jpg,,,,,,,,,,,,,,,,,,,,,,,,,,,,,,,,,,,,,,,,,,,0,0,0,3,1,,,,,,,,,,,,,,,,,,,,,,,,,,,,,,,,,,,,,,,,,,,,,,
175604,001,2022-11-20_18h08.17.738,Info_measure_main_exp,2022.2.2,Win32,60.11421701,,,,,,,,,,,,,,,,,,masks/mask_001.jpg,,,,,,,,,,,,,,,,,,,,,,,,,,,,,,,,,,,,,,,,,,,0,1,1,0,1,,,,,,,,,,,,,,,,,,,,,,,,,,,,,,,,,,,,,,,,,,,,,,
175604,001,2022-11-20_18h08.17.738,Info_measure_main_exp,2022.2.2,Win32,60.11421701,,,,,,,,,,,,,,,,,,masks/mask_002.jpg,,,,,,,,,,,,,,,,,,,,,,,,,,,,,,,,,,,,,,,,,,,0,2,2,1,1,,,,,,,,,,,,,,,,,,,,,,,,,,,,,,,,,,,,,,,,,,,,,,
175604,001,2022-11-20_18h08.17.738,Info_measure_main_exp,2022.2.2,Win32,60.11421701,,,,,,,,,,,,,,,,,,masks/mask_005.jpg,,,,,,,,,,,,,,,,,,,,,,,,,,,,,,,,,,,,,,,,,,,0,3,3,4,1,,,,,,,,,,,,,,,,,,,,,,,,,,,,,,,,,,,,,,,,,,,,,,
175604,001,2022-11-20_18h08.17.738,Info_measure_main_exp,2022.2.2,Win32,60.11421701,,,,,,,,,,,,,,,,,,masks/mask_003.jpg,,,,,,,,,,,,,,,,,,,,,,,,,,,,,,,,,,,,,,,,,,,0,4,4,2,1,,,,,,,,,,,,,,,,,,,,,,,,,,,,,,,,,,,,,,,,,,,,,,
175604,001,2022-11-20_18h08.17.738,Info_measure_main_exp,2022.2.2,Win32,60.11421701,,,,,,,,,,,,,,,,,,masks/mask_005.jpg,,,,,,,,,,,,,,,,,,,,,,,,,,,,,,,,,,,,,,,,,,,,,,,,0,0,0,4,1,,,,,,,,,,,,,,,,,,,,,,,,,,,,,,,,,,,,,,,,,
175604,001,2022-11-20_18h08.17.738,Info_measure_main_exp,2022.2.2,Win32,60.11421701,,,,,,,,,,,,,,,,,,masks/mask_003.jpg,,,,,,,,,,,,,,,,,,,,,,,,,,,,,,,,,,,,,,,,,,,,,,,,0,1,1,2,1,,,,,,,,,,,,,,,,,,,,,,,,,,,,,,,,,,,,,,,,,
175604,001,2022-11-20_18h08.17.738,Info_measure_main_exp,2022.2.2,Win32,60.11421701,,,,,,,,,,,,,,,,,,masks/mask_004.jpg,,,,,,,,,,,,,,,,,,,,,,,,,,,,,,,,,,,,,,,,,,,,,,,,0,2,2,3,1,,,,,,,,,,,,,,,,,,,,,,,,,,,,,,,,,,,,,,,,,
175604,001,2022-11-20_18h08.17.738,Info_measure_main_exp,2022.2.2,Win32,60.11421701,,,,,,,,,,,,,,,,,,masks/mask_001.jpg,,,,,,,,,,,,,,,,,,,,,,,,,,,,,,,,,,,,,,,,,,,,,,,,0,3,3,0,1,,,,,,,,,,,,,,,,,,,,,,,,,,,,,,,,,,,,,,,,,
175604,001,2022-11-20_18h08.17.738,Info_measure_main_exp,2022.2.2,Win32,60.11421701,,,,,,,,,,,,,,,,,,masks/mask_002.jpg,,,,,,,,,,,,,,,,,,,,,,,,,,,,,,,,,,,,,,,,,,,,,,,,0,4,4,1,1,,,,,,,,,,,,,,,,,,,,,,,,,,,,,,,,,,,,,,,,,
175604,001,2022-11-20_18h08.17.738,Info_measure_main_exp,2022.2.2,Win32,60.11421701,,,,,,,,,,,,,,,,,,,,,,,,,,,,,,7,2.1797,1,,,,,,,,,,,,0,131,5,5,2250,2214,absent_patch/patch0002250.jpg,absent_patch/patch0002214.jpg,,,,,,,,,,,,,,,,,,,,0.063802083,0.127604167,1,0,0,response1disk,30,0.010416667,0.010416667,1,0,0,center_square,0,29,29,97,1,,,,,,,,,,,,,,,,,,,,,,,
175604,001,2022-11-20_18h08.17.738,Info_measure_main_exp,2022.2.2,Win32,60.11421701,,,,,,,,,,,,,,,,,,masks/mask_003.jpg,,,,,,,,,,,,,,,,,,,,,,,,,,,,,,,,,,,,,,,,,,,0,0,0,2,1,,,,,,,,,,,,,,,,,,,,,,,,,,,,,,,,,,,,,,,,,,,,,,
175604,001,2022-11-20_18h08.17.738,Info_measure_main_exp,2022.2.2,Win32,60.11421701,,,,,,,,,,,,,,,,,,masks/mask_004.jpg,,,,,,,,,,,,,,,,,,,,,,,,,,,,,,,,,,,,,,,,,,,0,1,1,3,1,,,,,,,,,,,,,,,,,,,,,,,,,,,,,,,,,,,,,,,,,,,,,,
175604,001,2022-11-20_18h08.17.738,Info_measure_main_exp,2022.2.2,Win32,60.11421701,,,,,,,,,,,,,,,,,,masks/mask_001.jpg,,,,,,,,,,,,,,,,,,,,,,,,,,,,,,,,,,,,,,,,,,,0,2,2,0,1,,,,,,,,,,,,,,,,,,,,,,,,,,,,,,,,,,,,,,,,,,,,,,
175604,001,2022-11-20_18h08.17.738,Info_measure_main_exp,2022.2.2,Win32,60.11421701,,,,,,,,,,,,,,,,,,masks/mask_005.jpg,,,,,,,,,,,,,,,,,,,,,,,,,,,,,,,,,,,,,,,,,,,0,3,3,4,1,,,,,,,,,,,,,,,,,,,,,,,,,,,,,,,,,,,,,,,,,,,,,,
175604,001,2022-11-20_18h08.17.738,Info_measure_main_exp,2022.2.2,Win32,60.11421701,,,,,,,,,,,,,,,,,,masks/mask_002.jpg,,,,,,,,,,,,,,,,,,,,,,,,,,,,,,,,,,,,,,,,,,,0,4,4,1,1,,,,,,,,,,,,,,,,,,,,,,,,,,,,,,,,,,,,,,,,,,,,,,
175604,001,2022-11-20_18h08.17.738,Info_measure_main_exp,2022.2.2,Win32,60.11421701,,,,,,,,,,,,,,,,,,masks/mask_001.jpg,,,,,,,,,,,,,,,,,,,,,,,,,,,,,,,,,,,,,,,,,,,,,,,,0,0,0,0,1,,,,,,,,,,,,,,,,,,,,,,,,,,,,,,,,,,,,,,,,,
175604,001,2022-11-20_18h08.17.738,Info_measure_main_exp,2022.2.2,Win32,60.11421701,,,,,,,,,,,,,,,,,,masks/mask_003.jpg,,,,,,,,,,,,,,,,,,,,,,,,,,,,,,,,,,,,,,,,,,,,,,,,0,1,1,2,1,,,,,,,,,,,,,,,,,,,,,,,,,,,,,,,,,,,,,,,,,
175604,001,2022-11-20_18h08.17.738,Info_measure_main_exp,2022.2.2,Win32,60.11421701,,,,,,,,,,,,,,,,,,masks/mask_005.jpg,,,,,,,,,,,,,,,,,,,,,,,,,,,,,,,,,,,,,,,,,,,,,,,,0,2,2,4,1,,,,,,,,,,,,,,,,,,,,,,,,,,,,,,,,,,,,,,,,,
175604,001,2022-11-20_18h08.17.738,Info_measure_main_exp,2022.2.2,Win32,60.11421701,,,,,,,,,,,,,,,,,,masks/mask_004.jpg,,,,,,,,,,,,,,,,,,,,,,,,,,,,,,,,,,,,,,,,,,,,,,,,0,3,3,3,1,,,,,,,,,,,,,,,,,,,,,,,,,,,,,,,,,,,,,,,,,
175604,001,2022-11-20_18h08.17.738,Info_measure_main_exp,2022.2.2,Win32,60.11421701,,,,,,,,,,,,,,,,,,masks/mask_002.jpg,,,,,,,,,,,,,,,,,,,,,,,,,,,,,,,,,,,,,,,,,,,,,,,,0,4,4,1,1,,,,,,,,,,,,,,,,,,,,,,,,,,,,,,,,,,,,,,,,,
175604,001,2022-11-20_18h08.17.738,Info_measure_main_exp,2022.2.2,Win32,60.11421701,,,,,,,,,,,,,,,,,,,,,,,,,,,,,,7,1.1029,1,,,,,,,,,,,,0,131,5,5,2274,2250,absent_patch/patch0002274.jpg,absent_patch/patch0002250.jpg,,,,,,,,,,,,,,,,,,,,0.01953125,0.091145833,1,0,0,response1disk,31,0.002604167,0.009114583,1,0,0,center_square,0,30,30,28,1,,,,,,,,,,,,,,,,,,,,,,,
175604,001,2022-11-20_18h08.17.738,Info_measure_main_exp,2022.2.2,Win32,60.11421701,,,,,,,,,,,,,,,,,,masks/mask_002.jpg,,,,,,,,,,,,,,,,,,,,,,,,,,,,,,,,,,,,,,,,,,,0,0,0,1,1,,,,,,,,,,,,,,,,,,,,,,,,,,,,,,,,,,,,,,,,,,,,,,
175604,001,2022-11-20_18h08.17.738,Info_measure_main_exp,2022.2.2,Win32,60.11421701,,,,,,,,,,,,,,,,,,masks/mask_001.jpg,,,,,,,,,,,,,,,,,,,,,,,,,,,,,,,,,,,,,,,,,,,0,1,1,0,1,,,,,,,,,,,,,,,,,,,,,,,,,,,,,,,,,,,,,,,,,,,,,,
175604,001,2022-11-20_18h08.17.738,Info_measure_main_exp,2022.2.2,Win32,60.11421701,,,,,,,,,,,,,,,,,,masks/mask_005.jpg,,,,,,,,,,,,,,,,,,,,,,,,,,,,,,,,,,,,,,,,,,,0,2,2,4,1,,,,,,,,,,,,,,,,,,,,,,,,,,,,,,,,,,,,,,,,,,,,,,
175604,001,2022-11-20_18h08.17.738,Info_measure_main_exp,2022.2.2,Win32,60.11421701,,,,,,,,,,,,,,,,,,masks/mask_004.jpg,,,,,,,,,,,,,,,,,,,,,,,,,,,,,,,,,,,,,,,,,,,0,3,3,3,1,,,,,,,,,,,,,,,,,,,,,,,,,,,,,,,,,,,,,,,,,,,,,,
175604,001,2022-11-20_18h08.17.738,Info_measure_main_exp,2022.2.2,Win32,60.11421701,,,,,,,,,,,,,,,,,,masks/mask_003.jpg,,,,,,,,,,,,,,,,,,,,,,,,,,,,,,,,,,,,,,,,,,,0,4,4,2,1,,,,,,,,,,,,,,,,,,,,,,,,,,,,,,,,,,,,,,,,,,,,,,
175604,001,2022-11-20_18h08.17.738,Info_measure_main_exp,2022.2.2,Win32,60.11421701,,,,,,,,,,,,,,,,,,masks/mask_002.jpg,,,,,,,,,,,,,,,,,,,,,,,,,,,,,,,,,,,,,,,,,,,,,,,,0,0,0,1,1,,,,,,,,,,,,,,,,,,,,,,,,,,,,,,,,,,,,,,,,,
175604,001,2022-11-20_18h08.17.738,Info_measure_main_exp,2022.2.2,Win32,60.11421701,,,,,,,,,,,,,,,,,,masks/mask_003.jpg,,,,,,,,,,,,,,,,,,,,,,,,,,,,,,,,,,,,,,,,,,,,,,,,0,1,1,2,1,,,,,,,,,,,,,,,,,,,,,,,,,,,,,,,,,,,,,,,,,
175604,001,2022-11-20_18h08.17.738,Info_measure_main_exp,2022.2.2,Win32,60.11421701,,,,,,,,,,,,,,,,,,masks/mask_005.jpg,,,,,,,,,,,,,,,,,,,,,,,,,,,,,,,,,,,,,,,,,,,,,,,,0,2,2,4,1,,,,,,,,,,,,,,,,,,,,,,,,,,,,,,,,,,,,,,,,,
175604,001,2022-11-20_18h08.17.738,Info_measure_main_exp,2022.2.2,Win32,60.11421701,,,,,,,,,,,,,,,,,,masks/mask_001.jpg,,,,,,,,,,,,,,,,,,,,,,,,,,,,,,,,,,,,,,,,,,,,,,,,0,3,3,0,1,,,,,,,,,,,,,,,,,,,,,,,,,,,,,,,,,,,,,,,,,
175604,001,2022-11-20_18h08.17.738,Info_measure_main_exp,2022.2.2,Win32,60.11421701,,,,,,,,,,,,,,,,,,masks/mask_004.jpg,,,,,,,,,,,,,,,,,,,,,,,,,,,,,,,,,,,,,,,,,,,,,,,,0,4,4,3,1,,,,,,,,,,,,,,,,,,,,,,,,,,,,,,,,,,,,,,,,,
175604,001,2022-11-20_18h08.17.738,Info_measure_main_exp,2022.2.2,Win32,60.11421701,,,,,,,,,,,,,,,,,,,,,,,,,,,,,,5,2.0822,1,,,,,,,,,,,,0,131,5,5,2190,2238,absent_patch/patch0002190.jpg,absent_patch/patch0002238.jpg,,,,,,,,,,,,,,,,,,,,0.145833333,-0.0234375,1,0,0,response3disk,32,-0.001302083,0.001302083,1,0,0,center_square,0,31,31,53,1,,,,,,,,,,,,,,,,,,,,,,,
175604,001,2022-11-20_18h08.17.738,Info_measure_main_exp,2022.2.2,Win32,60.11421701,,,,,,,,,,,,,,,,,,masks/mask_002.jpg,,,,,,,,,,,,,,,,,,,,,,,,,,,,,,,,,,,,,,,,,,,0,0,0,1,1,,,,,,,,,,,,,,,,,,,,,,,,,,,,,,,,,,,,,,,,,,,,,,
175604,001,2022-11-20_18h08.17.738,Info_measure_main_exp,2022.2.2,Win32,60.11421701,,,,,,,,,,,,,,,,,,masks/mask_005.jpg,,,,,,,,,,,,,,,,,,,,,,,,,,,,,,,,,,,,,,,,,,,0,1,1,4,1,,,,,,,,,,,,,,,,,,,,,,,,,,,,,,,,,,,,,,,,,,,,,,
175604,001,2022-11-20_18h08.17.738,Info_measure_main_exp,2022.2.2,Win32,60.11421701,,,,,,,,,,,,,,,,,,masks/mask_001.jpg,,,,,,,,,,,,,,,,,,,,,,,,,,,,,,,,,,,,,,,,,,,0,2,2,0,1,,,,,,,,,,,,,,,,,,,,,,,,,,,,,,,,,,,,,,,,,,,,,,
175604,001,2022-11-20_18h08.17.738,Info_measure_main_exp,2022.2.2,Win32,60.11421701,,,,,,,,,,,,,,,,,,masks/mask_004.jpg,,,,,,,,,,,,,,,,,,,,,,,,,,,,,,,,,,,,,,,,,,,0,3,3,3,1,,,,,,,,,,,,,,,,,,,,,,,,,,,,,,,,,,,,,,,,,,,,,,
175604,001,2022-11-20_18h08.17.738,Info_measure_main_exp,2022.2.2,Win32,60.11421701,,,,,,,,,,,,,,,,,,masks/mask_003.jpg,,,,,,,,,,,,,,,,,,,,,,,,,,,,,,,,,,,,,,,,,,,0,4,4,2,1,,,,,,,,,,,,,,,,,,,,,,,,,,,,,,,,,,,,,,,,,,,,,,
175604,001,2022-11-20_18h08.17.738,Info_measure_main_exp,2022.2.2,Win32,60.11421701,,,,,,,,,,,,,,,,,,masks/mask_002.jpg,,,,,,,,,,,,,,,,,,,,,,,,,,,,,,,,,,,,,,,,,,,,,,,,0,0,0,1,1,,,,,,,,,,,,,,,,,,,,,,,,,,,,,,,,,,,,,,,,,
175604,001,2022-11-20_18h08.17.738,Info_measure_main_exp,2022.2.2,Win32,60.11421701,,,,,,,,,,,,,,,,,,masks/mask_004.jpg,,,,,,,,,,,,,,,,,,,,,,,,,,,,,,,,,,,,,,,,,,,,,,,,0,1,1,3,1,,,,,,,,,,,,,,,,,,,,,,,,,,,,,,,,,,,,,,,,,
175604,001,2022-11-20_18h08.17.738,Info_measure_main_exp,2022.2.2,Win32,60.11421701,,,,,,,,,,,,,,,,,,masks/mask_003.jpg,,,,,,,,,,,,,,,,,,,,,,,,,,,,,,,,,,,,,,,,,,,,,,,,0,2,2,2,1,,,,,,,,,,,,,,,,,,,,,,,,,,,,,,,,,,,,,,,,,
175604,001,2022-11-20_18h08.17.738,Info_measure_main_exp,2022.2.2,Win32,60.11421701,,,,,,,,,,,,,,,,,,masks/mask_001.jpg,,,,,,,,,,,,,,,,,,,,,,,,,,,,,,,,,,,,,,,,,,,,,,,,0,3,3,0,1,,,,,,,,,,,,,,,,,,,,,,,,,,,,,,,,,,,,,,,,,
175604,001,2022-11-20_18h08.17.738,Info_measure_main_exp,2022.2.2,Win32,60.11421701,,,,,,,,,,,,,,,,,,masks/mask_005.jpg,,,,,,,,,,,,,,,,,,,,,,,,,,,,,,,,,,,,,,,,,,,,,,,,0,4,4,4,1,,,,,,,,,,,,,,,,,,,,,,,,,,,,,,,,,,,,,,,,,
175604,001,2022-11-20_18h08.17.738,Info_measure_main_exp,2022.2.2,Win32,60.11421701,,,,,,,,,,,,,,,,,,,,,,,,,,,,,,7,0.7834,1,,,,,,,,,,,,0,131,5,5,2178,2142,absent_patch/patch0002178.jpg,absent_patch/patch0002142.jpg,,,,,,,,,,,,,,,,,,,,0.024739583,0.1015625,1,0,0,response1disk,33,0.002604167,-0.001302083,1,0,0,center_square,0,32,32,41,1,,,,,,,,,,,,,,,,,,,,,,,
175604,001,2022-11-20_18h08.17.738,Info_measure_main_exp,2022.2.2,Win32,60.11421701,,,,,,,,,,,,,,,,,,masks/mask_005.jpg,,,,,,,,,,,,,,,,,,,,,,,,,,,,,,,,,,,,,,,,,,,0,0,0,4,1,,,,,,,,,,,,,,,,,,,,,,,,,,,,,,,,,,,,,,,,,,,,,,
175604,001,2022-11-20_18h08.17.738,Info_measure_main_exp,2022.2.2,Win32,60.11421701,,,,,,,,,,,,,,,,,,masks/mask_001.jpg,,,,,,,,,,,,,,,,,,,,,,,,,,,,,,,,,,,,,,,,,,,0,1,1,0,1,,,,,,,,,,,,,,,,,,,,,,,,,,,,,,,,,,,,,,,,,,,,,,
175604,001,2022-11-20_18h08.17.738,Info_measure_main_exp,2022.2.2,Win32,60.11421701,,,,,,,,,,,,,,,,,,masks/mask_003.jpg,,,,,,,,,,,,,,,,,,,,,,,,,,,,,,,,,,,,,,,,,,,0,2,2,2,1,,,,,,,,,,,,,,,,,,,,,,,,,,,,,,,,,,,,,,,,,,,,,,
175604,001,2022-11-20_18h08.17.738,Info_measure_main_exp,2022.2.2,Win32,60.11421701,,,,,,,,,,,,,,,,,,masks/mask_002.jpg,,,,,,,,,,,,,,,,,,,,,,,,,,,,,,,,,,,,,,,,,,,0,3,3,1,1,,,,,,,,,,,,,,,,,,,,,,,,,,,,,,,,,,,,,,,,,,,,,,
175604,001,2022-11-20_18h08.17.738,Info_measure_main_exp,2022.2.2,Win32,60.11421701,,,,,,,,,,,,,,,,,,masks/mask_004.jpg,,,,,,,,,,,,,,,,,,,,,,,,,,,,,,,,,,,,,,,,,,,0,4,4,3,1,,,,,,,,,,,,,,,,,,,,,,,,,,,,,,,,,,,,,,,,,,,,,,
175604,001,2022-11-20_18h08.17.738,Info_measure_main_exp,2022.2.2,Win32,60.11421701,,,,,,,,,,,,,,,,,,masks/mask_002.jpg,,,,,,,,,,,,,,,,,,,,,,,,,,,,,,,,,,,,,,,,,,,,,,,,0,0,0,1,1,,,,,,,,,,,,,,,,,,,,,,,,,,,,,,,,,,,,,,,,,
175604,001,2022-11-20_18h08.17.738,Info_measure_main_exp,2022.2.2,Win32,60.11421701,,,,,,,,,,,,,,,,,,masks/mask_004.jpg,,,,,,,,,,,,,,,,,,,,,,,,,,,,,,,,,,,,,,,,,,,,,,,,0,1,1,3,1,,,,,,,,,,,,,,,,,,,,,,,,,,,,,,,,,,,,,,,,,
175604,001,2022-11-20_18h08.17.738,Info_measure_main_exp,2022.2.2,Win32,60.11421701,,,,,,,,,,,,,,,,,,masks/mask_003.jpg,,,,,,,,,,,,,,,,,,,,,,,,,,,,,,,,,,,,,,,,,,,,,,,,0,2,2,2,1,,,,,,,,,,,,,,,,,,,,,,,,,,,,,,,,,,,,,,,,,
175604,001,2022-11-20_18h08.17.738,Info_measure_main_exp,2022.2.2,Win32,60.11421701,,,,,,,,,,,,,,,,,,masks/mask_005.jpg,,,,,,,,,,,,,,,,,,,,,,,,,,,,,,,,,,,,,,,,,,,,,,,,0,3,3,4,1,,,,,,,,,,,,,,,,,,,,,,,,,,,,,,,,,,,,,,,,,
175604,001,2022-11-20_18h08.17.738,Info_measure_main_exp,2022.2.2,Win32,60.11421701,,,,,,,,,,,,,,,,,,masks/mask_001.jpg,,,,,,,,,,,,,,,,,,,,,,,,,,,,,,,,,,,,,,,,,,,,,,,,0,4,4,0,1,,,,,,,,,,,,,,,,,,,,,,,,,,,,,,,,,,,,,,,,,
175604,001,2022-11-20_18h08.17.738,Info_measure_main_exp,2022.2.2,Win32,60.11421701,,,,,,,,,,,,,,,,,,,,,,,,,,,,,,7,0.8386,1,,,,,,,,,,,,0,131,5,5,2274,2178,absent_patch/patch0002274.jpg,absent_patch/patch0002178.jpg,,,,,,,,,,,,,,,,,,,,0.041666667,0.053385417,1,0,0,response1disk,34,0.010416667,0.00390625,1,0,0,center_square,0,33,33,117,1,,,,,,,,,,,,,,,,,,,,,,,
175604,001,2022-11-20_18h08.17.738,Info_measure_main_exp,2022.2.2,Win32,60.11421701,,,,,,,,,,,,,,,,,,masks/mask_005.jpg,,,,,,,,,,,,,,,,,,,,,,,,,,,,,,,,,,,,,,,,,,,0,0,0,4,1,,,,,,,,,,,,,,,,,,,,,,,,,,,,,,,,,,,,,,,,,,,,,,
175604,001,2022-11-20_18h08.17.738,Info_measure_main_exp,2022.2.2,Win32,60.11421701,,,,,,,,,,,,,,,,,,masks/mask_003.jpg,,,,,,,,,,,,,,,,,,,,,,,,,,,,,,,,,,,,,,,,,,,0,1,1,2,1,,,,,,,,,,,,,,,,,,,,,,,,,,,,,,,,,,,,,,,,,,,,,,
175604,001,2022-11-20_18h08.17.738,Info_measure_main_exp,2022.2.2,Win32,60.11421701,,,,,,,,,,,,,,,,,,masks/mask_004.jpg,,,,,,,,,,,,,,,,,,,,,,,,,,,,,,,,,,,,,,,,,,,0,2,2,3,1,,,,,,,,,,,,,,,,,,,,,,,,,,,,,,,,,,,,,,,,,,,,,,
175604,001,2022-11-20_18h08.17.738,Info_measure_main_exp,2022.2.2,Win32,60.11421701,,,,,,,,,,,,,,,,,,masks/mask_001.jpg,,,,,,,,,,,,,,,,,,,,,,,,,,,,,,,,,,,,,,,,,,,0,3,3,0,1,,,,,,,,,,,,,,,,,,,,,,,,,,,,,,,,,,,,,,,,,,,,,,
175604,001,2022-11-20_18h08.17.738,Info_measure_main_exp,2022.2.2,Win32,60.11421701,,,,,,,,,,,,,,,,,,masks/mask_002.jpg,,,,,,,,,,,,,,,,,,,,,,,,,,,,,,,,,,,,,,,,,,,0,4,4,1,1,,,,,,,,,,,,,,,,,,,,,,,,,,,,,,,,,,,,,,,,,,,,,,
175604,001,2022-11-20_18h08.17.738,Info_measure_main_exp,2022.2.2,Win32,60.11421701,,,,,,,,,,,,,,,,,,masks/mask_004.jpg,,,,,,,,,,,,,,,,,,,,,,,,,,,,,,,,,,,,,,,,,,,,,,,,0,0,0,3,1,,,,,,,,,,,,,,,,,,,,,,,,,,,,,,,,,,,,,,,,,
175604,001,2022-11-20_18h08.17.738,Info_measure_main_exp,2022.2.2,Win32,60.11421701,,,,,,,,,,,,,,,,,,masks/mask_005.jpg,,,,,,,,,,,,,,,,,,,,,,,,,,,,,,,,,,,,,,,,,,,,,,,,0,1,1,4,1,,,,,,,,,,,,,,,,,,,,,,,,,,,,,,,,,,,,,,,,,
175604,001,2022-11-20_18h08.17.738,Info_measure_main_exp,2022.2.2,Win32,60.11421701,,,,,,,,,,,,,,,,,,masks/mask_001.jpg,,,,,,,,,,,,,,,,,,,,,,,,,,,,,,,,,,,,,,,,,,,,,,,,0,2,2,0,1,,,,,,,,,,,,,,,,,,,,,,,,,,,,,,,,,,,,,,,,,
175604,001,2022-11-20_18h08.17.738,Info_measure_main_exp,2022.2.2,Win32,60.11421701,,,,,,,,,,,,,,,,,,masks/mask_003.jpg,,,,,,,,,,,,,,,,,,,,,,,,,,,,,,,,,,,,,,,,,,,,,,,,0,3,3,2,1,,,,,,,,,,,,,,,,,,,,,,,,,,,,,,,,,,,,,,,,,
