participant,session,date,expName,psychopyVersion,OS,frameRate,space_press_continue.keys,space_press_continue.rt,space_press_continue_2.keys,space_press_continue_2.rt,space_press_continue_3.keys,space_press_continue_3.rt,space_press_continue_4.keys,space_press_continue_4.rt,space_press_continue_5.keys,space_press_continue_5.rt,space_press_continue_6.keys,space_press_continue_6.rt,prac_mask_loop_1.thisRepN,prac_mask_loop_1.thisTrialN,prac_mask_loop_1.thisN,prac_mask_loop_1.thisIndex,prac_mask_loop_1.ran,mask_name,prac_mask_loop_2.thisRepN,prac_mask_loop_2.thisTrialN,prac_mask_loop_2.thisN,prac_mask_loop_2.thisIndex,prac_mask_loop_2.ran,mouse_2.x,mouse_2.y,mouse_2.leftButton,mouse_2.midButton,mouse_2.rightButton,mouse_2.clicked_name,similarity,response_time,Pass,mouse_12.x,mouse_12.y,mouse_12.leftButton,mouse_12.midButton,mouse_12.rightButton,mouse_12.clicked_name,prac_loop.thisRepN,prac_loop.thisTrialN,prac_loop.thisN,prac_loop.thisIndex,prac_loop.ran,Pair_type,Image_num,Patch_1_loc,Patch_2_loc,Patch_1_info,Patch_2_info,Patch_1_name,Patch_2_name,mouse_1.x,mouse_1.y,mouse_1.leftButton,mouse_1.midButton,mouse_1.rightButton,mouse_1.time,mouse_1.clicked_name,space_press_continue_7.keys,space_press_continue_7.rt,mask_loop.thisRepN,mask_loop.thisTrialN,mask_loop.thisN,mask_loop.thisIndex,mask_loop.ran,mask_loop_2.thisRepN,mask_loop_2.thisTrialN,mask_loop_2.thisN,mask_loop_2.thisIndex,mask_loop_2.ran,mouse.x,mouse.y,mouse.leftButton,mouse.midButton,mouse.rightButton,mouse.clicked_name,trialNumber,mouse_11.x,mouse_11.y,mouse_11.leftButton,mouse_11.midButton,mouse_11.rightButton,mouse_11.clicked_name,first_pass_loop.thisRepN,first_pass_loop.thisTrialN,first_pass_loop.thisN,first_pass_loop.thisIndex,first_pass_loop.ran,mask_loop_3.thisRepN,mask_loop_3.thisTrialN,mask_loop_3.thisN,mask_loop_3.thisIndex,mask_loop_3.ran,mask_loop_4.thisRepN,mask_loop_4.thisTrialN,mask_loop_4.thisN,mask_loop_4.thisIndex,mask_loop_4.ran,mouse_3.x,mouse_3.y,mouse_3.leftButton,mouse_3.midButton,mouse_3.rightButton,mouse_3.clicked_name,double_pass_loop.thisRepN,double_pass_loop.thisTrialN,double_pass_loop.thisN,double_pass_loop.thisIndex,double_pass_loop.ran,space_exit.keys,space_exit.rt
180815,001,2022-11-20_20h52.20.534,Info_measure_main_exp,2022.2.2,Win32,60.09615385,,,,,,,,,,,,,,,,,,,,,,,,,,,,,,,,,,,,,,,,,,,,,,,,,,,,,,,,,,,,,,,,,,,,,,,,,,,,,,,,,,,,,,,,,,,,,,,,,,,,,,,,,,,,,,,
180815,001,2022-11-20_20h52.20.534,Info_measure_main_exp,2022.2.2,Win32,60.09615385,,,,,,,,,,,,,,,,,,,,,,,,,,,,,,,,,,,,,,,,,,,,,,,,,,,,,,,,,,,,,,,,,,,,,,,,,,,,,,,,,,,,,,,,,,,,,,,,,,,,,,,,,,,,,,,
180815,001,2022-11-20_20h52.20.534,Info_measure_main_exp,2022.2.2,Win32,60.09615385,space,18.003,,,,,,,,,,,,,,,,,,,,,,,,,,,,,,,,,,,,,,,,,,,,,,,,,,,,,,,,,,,,,,,,,,,,,,,,,,,,,,,,,,,,,,,,,,,,,,,,,,,,,,,,,,,,,
180815,001,2022-11-20_20h52.20.534,Info_measure_main_exp,2022.2.2,Win32,60.09615385,,,space,6.517,,,,,,,,,,,,,,,,,,,,,,,,,,,,,,,,,,,,,,,,,,,,,,,,,,,,,,,,,,,,,,,,,,,,,,,,,,,,,,,,,,,,,,,,,,,,,,,,,,,,,,,,,,,
180815,001,2022-11-20_20h52.20.534,Info_measure_main_exp,2022.2.2,Win32,60.09615385,,,,,space,4.192,,,,,,,,,,,,,,,,,,,,,,,,,,,,,,,,,,,,,,,,,,,,,,,,,,,,,,,,,,,,,,,,,,,,,,,,,,,,,,,,,,,,,,,,,,,,,,,,,,,,,,,,,
180815,001,2022-11-20_20h52.20.534,Info_measure_main_exp,2022.2.2,Win32,60.09615385,,,,,,,space,48.47,,,,,,,,,,,,,,,,,,,,,,,,,,,,,,,,,,,,,,,,,,,,,,,,,,,,,,,,,,,,,,,,,,,,,,,,,,,,,,,,,,,,,,,,,,,,,,,,,,,,,,,
180815,001,2022-11-20_20h52.20.534,Info_measure_main_exp,2022.2.2,Win32,60.09615385,,,,,,,,,space,3.748,,,,,,,,,,,,,,,,,,,,,,,,,,,,,,,,,,,,,,,,,,,,,,,,,,,,,,,,,,,,,,,,,,,,,,,,,,,,,,,,,,,,,,,,,,,,,,,,,,,,,
180815,001,2022-11-20_20h52.20.534,Info_measure_main_exp,2022.2.2,Win32,60.09615385,,,,,,,,,,,space,3.726,,,,,,,,,,,,,,,,,,,,,,,,,,,,,,,,,,,,,,,,,,,,,,,,,,,,,,,,,,,,,,,,,,,,,,,,,,,,,,,,,,,,,,,,,,,,,,,,,,,
180815,001,2022-11-20_20h52.20.534,Info_measure_main_exp,2022.2.2,Win32,60.09615385,,,,,,,,,,,,,0,0,0,0,1,masks/mask_001.jpg,,,,,,,,,,,,,,,,,,,,,,,,,,,,,,,,,,,,,,,,,,,,,,,,,,,,,,,,,,,,,,,,,,,,,,,,,,,,,,,,,,,,,,,,,,,,,
180815,001,2022-11-20_20h52.20.534,Info_measure_main_exp,2022.2.2,Win32,60.09615385,,,,,,,,,,,,,0,1,1,1,1,masks/mask_002.jpg,,,,,,,,,,,,,,,,,,,,,,,,,,,,,,,,,,,,,,,,,,,,,,,,,,,,,,,,,,,,,,,,,,,,,,,,,,,,,,,,,,,,,,,,,,,,,
180815,001,2022-11-20_20h52.20.534,Info_measure_main_exp,2022.2.2,Win32,60.09615385,,,,,,,,,,,,,0,2,2,4,1,masks/mask_005.jpg,,,,,,,,,,,,,,,,,,,,,,,,,,,,,,,,,,,,,,,,,,,,,,,,,,,,,,,,,,,,,,,,,,,,,,,,,,,,,,,,,,,,,,,,,,,,,
180815,001,2022-11-20_20h52.20.534,Info_measure_main_exp,2022.2.2,Win32,60.09615385,,,,,,,,,,,,,0,3,3,2,1,masks/mask_003.jpg,,,,,,,,,,,,,,,,,,,,,,,,,,,,,,,,,,,,,,,,,,,,,,,,,,,,,,,,,,,,,,,,,,,,,,,,,,,,,,,,,,,,,,,,,,,,,
180815,001,2022-11-20_20h52.20.534,Info_measure_main_exp,2022.2.2,Win32,60.09615385,,,,,,,,,,,,,0,4,4,3,1,masks/mask_004.jpg,,,,,,,,,,,,,,,,,,,,,,,,,,,,,,,,,,,,,,,,,,,,,,,,,,,,,,,,,,,,,,,,,,,,,,,,,,,,,,,,,,,,,,,,,,,,,
180815,001,2022-11-20_20h52.20.534,Info_measure_main_exp,2022.2.2,Win32,60.09615385,,,,,,,,,,,,,,,,,,masks/mask_004.jpg,0,0,0,3,1,,,,,,,,,,,,,,,,,,,,,,,,,,,,,,,,,,,,,,,,,,,,,,,,,,,,,,,,,,,,,,,,,,,,,,,,,,,,,,,,,,,,,,,,
180815,001,2022-11-20_20h52.20.534,Info_measure_main_exp,2022.2.2,Win32,60.09615385,,,,,,,,,,,,,,,,,,masks/mask_005.jpg,0,1,1,4,1,,,,,,,,,,,,,,,,,,,,,,,,,,,,,,,,,,,,,,,,,,,,,,,,,,,,,,,,,,,,,,,,,,,,,,,,,,,,,,,,,,,,,,,,
180815,001,2022-11-20_20h52.20.534,Info_measure_main_exp,2022.2.2,Win32,60.09615385,,,,,,,,,,,,,,,,,,masks/mask_003.jpg,0,2,2,2,1,,,,,,,,,,,,,,,,,,,,,,,,,,,,,,,,,,,,,,,,,,,,,,,,,,,,,,,,,,,,,,,,,,,,,,,,,,,,,,,,,,,,,,,,
180815,001,2022-11-20_20h52.20.534,Info_measure_main_exp,2022.2.2,Win32,60.09615385,,,,,,,,,,,,,,,,,,masks/mask_001.jpg,0,3,3,0,1,,,,,,,,,,,,,,,,,,,,,,,,,,,,,,,,,,,,,,,,,,,,,,,,,,,,,,,,,,,,,,,,,,,,,,,,,,,,,,,,,,,,,,,,
180815,001,2022-11-20_20h52.20.534,Info_measure_main_exp,2022.2.2,Win32,60.09615385,,,,,,,,,,,,,,,,,,masks/mask_002.jpg,0,4,4,1,1,,,,,,,,,,,,,,,,,,,,,,,,,,,,,,,,,,,,,,,,,,,,,,,,,,,,,,,,,,,,,,,,,,,,,,,,,,,,,,,,,,,,,,,,
180815,001,2022-11-20_20h52.20.534,Info_measure_main_exp,2022.2.2,Win32,60.09615385,,,,,,,,,,,,,,,,,,,,,,,,-0.048611111,-0.136574074,1,0,0,response5disk,3,89.596,1,-0.010416667,-0.002314815,1,0,0,center_square,0,0,0,1,1,0,131,5,5,2514,2490,prac_patch/patch0002514.jpg,prac_patch/patch0002490.jpg,,,,,,,,,,,,,,,,,,,,,,,,,,,,,,,,,,,,,,,,,,,,,,,,,,,,,,,,,,,,
180815,001,2022-11-20_20h52.20.534,Info_measure_main_exp,2022.2.2,Win32,60.09615385,,,,,,,,,,,,,0,0,0,4,1,masks/mask_005.jpg,,,,,,,,,,,,,,,,,,,,,,,,,,,,,,,,,,,,,,,,,,,,,,,,,,,,,,,,,,,,,,,,,,,,,,,,,,,,,,,,,,,,,,,,,,,,,
180815,001,2022-11-20_20h52.20.534,Info_measure_main_exp,2022.2.2,Win32,60.09615385,,,,,,,,,,,,,0,1,1,2,1,masks/mask_003.jpg,,,,,,,,,,,,,,,,,,,,,,,,,,,,,,,,,,,,,,,,,,,,,,,,,,,,,,,,,,,,,,,,,,,,,,,,,,,,,,,,,,,,,,,,,,,,,
180815,001,2022-11-20_20h52.20.534,Info_measure_main_exp,2022.2.2,Win32,60.09615385,,,,,,,,,,,,,0,2,2,1,1,masks/mask_002.jpg,,,,,,,,,,,,,,,,,,,,,,,,,,,,,,,,,,,,,,,,,,,,,,,,,,,,,,,,,,,,,,,,,,,,,,,,,,,,,,,,,,,,,,,,,,,,,
180815,001,2022-11-20_20h52.20.534,Info_measure_main_exp,2022.2.2,Win32,60.09615385,,,,,,,,,,,,,0,3,3,3,1,masks/mask_004.jpg,,,,,,,,,,,,,,,,,,,,,,,,,,,,,,,,,,,,,,,,,,,,,,,,,,,,,,,,,,,,,,,,,,,,,,,,,,,,,,,,,,,,,,,,,,,,,
180815,001,2022-11-20_20h52.20.534,Info_measure_main_exp,2022.2.2,Win32,60.09615385,,,,,,,,,,,,,0,4,4,0,1,masks/mask_001.jpg,,,,,,,,,,,,,,,,,,,,,,,,,,,,,,,,,,,,,,,,,,,,,,,,,,,,,,,,,,,,,,,,,,,,,,,,,,,,,,,,,,,,,,,,,,,,,
180815,001,2022-11-20_20h52.20.534,Info_measure_main_exp,2022.2.2,Win32,60.09615385,,,,,,,,,,,,,,,,,,masks/mask_002.jpg,0,0,0,1,1,,,,,,,,,,,,,,,,,,,,,,,,,,,,,,,,,,,,,,,,,,,,,,,,,,,,,,,,,,,,,,,,,,,,,,,,,,,,,,,,,,,,,,,,
180815,001,2022-11-20_20h52.20.534,Info_measure_main_exp,2022.2.2,Win32,60.09615385,,,,,,,,,,,,,,,,,,masks/mask_004.jpg,0,1,1,3,1,,,,,,,,,,,,,,,,,,,,,,,,,,,,,,,,,,,,,,,,,,,,,,,,,,,,,,,,,,,,,,,,,,,,,,,,,,,,,,,,,,,,,,,,
180815,001,2022-11-20_20h52.20.534,Info_measure_main_exp,2022.2.2,Win32,60.09615385,,,,,,,,,,,,,,,,,,masks/mask_005.jpg,0,2,2,4,1,,,,,,,,,,,,,,,,,,,,,,,,,,,,,,,,,,,,,,,,,,,,,,,,,,,,,,,,,,,,,,,,,,,,,,,,,,,,,,,,,,,,,,,,
180815,001,2022-11-20_20h52.20.534,Info_measure_main_exp,2022.2.2,Win32,60.09615385,,,,,,,,,,,,,,,,,,masks/mask_003.jpg,0,3,3,2,1,,,,,,,,,,,,,,,,,,,,,,,,,,,,,,,,,,,,,,,,,,,,,,,,,,,,,,,,,,,,,,,,,,,,,,,,,,,,,,,,,,,,,,,,
180815,001,2022-11-20_20h52.20.534,Info_measure_main_exp,2022.2.2,Win32,60.09615385,,,,,,,,,,,,,,,,,,masks/mask_001.jpg,0,4,4,0,1,,,,,,,,,,,,,,,,,,,,,,,,,,,,,,,,,,,,,,,,,,,,,,,,,,,,,,,,,,,,,,,,,,,,,,,,,,,,,,,,,,,,,,,,
180815,001,2022-11-20_20h52.20.534,Info_measure_main_exp,2022.2.2,Win32,60.09615385,,,,,,,,,,,,,,,,,,,,,,,,-0.072916667,0.12962963,1,0,0,response7disk,0,98.29,1,0.001157407,0.006944444,1,0,0,center_square,0,1,1,2,1,0,131,5,5,2526,2526,prac_patch/patch0002526.jpg,prac_patch/patch0002526.jpg,,,,,,,,,,,,,,,,,,,,,,,,,,,,,,,,,,,,,,,,,,,,,,,,,,,,,,,,,,,,
180815,001,2022-11-20_20h52.20.534,Info_measure_main_exp,2022.2.2,Win32,60.09615385,,,,,,,,,,,,,0,0,0,4,1,masks/mask_005.jpg,,,,,,,,,,,,,,,,,,,,,,,,,,,,,,,,,,,,,,,,,,,,,,,,,,,,,,,,,,,,,,,,,,,,,,,,,,,,,,,,,,,,,,,,,,,,,
180815,001,2022-11-20_20h52.20.534,Info_measure_main_exp,2022.2.2,Win32,60.09615385,,,,,,,,,,,,,0,1,1,2,1,masks/mask_003.jpg,,,,,,,,,,,,,,,,,,,,,,,,,,,,,,,,,,,,,,,,,,,,,,,,,,,,,,,,,,,,,,,,,,,,,,,,,,,,,,,,,,,,,,,,,,,,,
180815,001,2022-11-20_20h52.20.534,Info_measure_main_exp,2022.2.2,Win32,60.09615385,,,,,,,,,,,,,0,2,2,1,1,masks/mask_002.jpg,,,,,,,,,,,,,,,,,,,,,,,,,,,,,,,,,,,,,,,,,,,,,,,,,,,,,,,,,,,,,,,,,,,,,,,,,,,,,,,,,,,,,,,,,,,,,
180815,001,2022-11-20_20h52.20.534,Info_measure_main_exp,2022.2.2,Win32,60.09615385,,,,,,,,,,,,,0,3,3,0,1,masks/mask_001.jpg,,,,,,,,,,,,,,,,,,,,,,,,,,,,,,,,,,,,,,,,,,,,,,,,,,,,,,,,,,,,,,,,,,,,,,,,,,,,,,,,,,,,,,,,,,,,,
180815,001,2022-11-20_20h52.20.534,Info_measure_main_exp,2022.2.2,Win32,60.09615385,,,,,,,,,,,,,0,4,4,3,1,masks/mask_004.jpg,,,,,,,,,,,,,,,,,,,,,,,,,,,,,,,,,,,,,,,,,,,,,,,,,,,,,,,,,,,,,,,,,,,,,,,,,,,,,,,,,,,,,,,,,,,,,
180815,001,2022-11-20_20h52.20.534,Info_measure_main_exp,2022.2.2,Win32,60.09615385,,,,,,,,,,,,,,,,,,masks/mask_004.jpg,0,0,0,3,1,,,,,,,,,,,,,,,,,,,,,,,,,,,,,,,,,,,,,,,,,,,,,,,,,,,,,,,,,,,,,,,,,,,,,,,,,,,,,,,,,,,,,,,,
180815,001,2022-11-20_20h52.20.534,Info_measure_main_exp,2022.2.2,Win32,60.09615385,,,,,,,,,,,,,,,,,,masks/mask_003.jpg,0,1,1,2,1,,,,,,,,,,,,,,,,,,,,,,,,,,,,,,,,,,,,,,,,,,,,,,,,,,,,,,,,,,,,,,,,,,,,,,,,,,,,,,,,,,,,,,,,
180815,001,2022-11-20_20h52.20.534,Info_measure_main_exp,2022.2.2,Win32,60.09615385,,,,,,,,,,,,,,,,,,masks/mask_001.jpg,0,2,2,0,1,,,,,,,,,,,,,,,,,,,,,,,,,,,,,,,,,,,,,,,,,,,,,,,,,,,,,,,,,,,,,,,,,,,,,,,,,,,,,,,,,,,,,,,,
180815,001,2022-11-20_20h52.20.534,Info_measure_main_exp,2022.2.2,Win32,60.09615385,,,,,,,,,,,,,,,,,,masks/mask_002.jpg,0,3,3,1,1,,,,,,,,,,,,,,,,,,,,,,,,,,,,,,,,,,,,,,,,,,,,,,,,,,,,,,,,,,,,,,,,,,,,,,,,,,,,,,,,,,,,,,,,
180815,001,2022-11-20_20h52.20.534,Info_measure_main_exp,2022.2.2,Win32,60.09615385,,,,,,,,,,,,,,,,,,masks/mask_005.jpg,0,4,4,4,1,,,,,,,,,,,,,,,,,,,,,,,,,,,,,,,,,,,,,,,,,,,,,,,,,,,,,,,,,,,,,,,,,,,,,,,,,,,,,,,,,,,,,,,,
180815,001,2022-11-20_20h52.20.534,Info_measure_main_exp,2022.2.2,Win32,60.09615385,,,,,,,,,,,,,,,,,,,,,,,,0.094907407,0.030092593,1,0,0,response1disk,6,106.872,1,0.00462963,0.012731481,1,0,0,center_square,0,2,2,0,1,0,131,5,5,2370,2406,prac_patch/patch0002370.jpg,prac_patch/patch0002406.jpg,,,,,,,,,,,,,,,,,,,,,,,,,,,,,,,,,,,,,,,,,,,,,,,,,,,,,,,,,,,,
180815,001,2022-11-20_20h52.20.534,Info_measure_main_exp,2022.2.2,Win32,60.09615385,,,,,,,,,,,,,,,,,,,,,,,,,,,,,,,,,,,,,,,,,,,,,,,,,,,,,,,,,,,space,2.244,,,,,,,,,,,,,,,,,,,,,,,,,,,,,,,,,,,,,,,,,,,,,,,,,,,
180815,001,2022-11-20_20h52.20.534,Info_measure_main_exp,2022.2.2,Win32,60.09615385,,,,,,,,,,,,,,,,,,masks/mask_002.jpg,,,,,,,,,,,,,,,,,,,,,,,,,,,,,,,,,,,,,,,,,,,0,0,0,1,1,,,,,,,,,,,,,,,,,,,,,,,,,,,,,,,,,,,,,,,,,,,,,,
180815,001,2022-11-20_20h52.20.534,Info_measure_main_exp,2022.2.2,Win32,60.09615385,,,,,,,,,,,,,,,,,,masks/mask_004.jpg,,,,,,,,,,,,,,,,,,,,,,,,,,,,,,,,,,,,,,,,,,,0,1,1,3,1,,,,,,,,,,,,,,,,,,,,,,,,,,,,,,,,,,,,,,,,,,,,,,
180815,001,2022-11-20_20h52.20.534,Info_measure_main_exp,2022.2.2,Win32,60.09615385,,,,,,,,,,,,,,,,,,masks/mask_005.jpg,,,,,,,,,,,,,,,,,,,,,,,,,,,,,,,,,,,,,,,,,,,0,2,2,4,1,,,,,,,,,,,,,,,,,,,,,,,,,,,,,,,,,,,,,,,,,,,,,,
180815,001,2022-11-20_20h52.20.534,Info_measure_main_exp,2022.2.2,Win32,60.09615385,,,,,,,,,,,,,,,,,,masks/mask_003.jpg,,,,,,,,,,,,,,,,,,,,,,,,,,,,,,,,,,,,,,,,,,,0,3,3,2,1,,,,,,,,,,,,,,,,,,,,,,,,,,,,,,,,,,,,,,,,,,,,,,
180815,001,2022-11-20_20h52.20.534,Info_measure_main_exp,2022.2.2,Win32,60.09615385,,,,,,,,,,,,,,,,,,masks/mask_001.jpg,,,,,,,,,,,,,,,,,,,,,,,,,,,,,,,,,,,,,,,,,,,0,4,4,0,1,,,,,,,,,,,,,,,,,,,,,,,,,,,,,,,,,,,,,,,,,,,,,,
180815,001,2022-11-20_20h52.20.534,Info_measure_main_exp,2022.2.2,Win32,60.09615385,,,,,,,,,,,,,,,,,,masks/mask_005.jpg,,,,,,,,,,,,,,,,,,,,,,,,,,,,,,,,,,,,,,,,,,,,,,,,0,0,0,4,1,,,,,,,,,,,,,,,,,,,,,,,,,,,,,,,,,,,,,,,,,
180815,001,2022-11-20_20h52.20.534,Info_measure_main_exp,2022.2.2,Win32,60.09615385,,,,,,,,,,,,,,,,,,masks/mask_003.jpg,,,,,,,,,,,,,,,,,,,,,,,,,,,,,,,,,,,,,,,,,,,,,,,,0,1,1,2,1,,,,,,,,,,,,,,,,,,,,,,,,,,,,,,,,,,,,,,,,,
180815,001,2022-11-20_20h52.20.534,Info_measure_main_exp,2022.2.2,Win32,60.09615385,,,,,,,,,,,,,,,,,,masks/mask_001.jpg,,,,,,,,,,,,,,,,,,,,,,,,,,,,,,,,,,,,,,,,,,,,,,,,0,2,2,0,1,,,,,,,,,,,,,,,,,,,,,,,,,,,,,,,,,,,,,,,,,
180815,001,2022-11-20_20h52.20.534,Info_measure_main_exp,2022.2.2,Win32,60.09615385,,,,,,,,,,,,,,,,,,masks/mask_002.jpg,,,,,,,,,,,,,,,,,,,,,,,,,,,,,,,,,,,,,,,,,,,,,,,,0,3,3,1,1,,,,,,,,,,,,,,,,,,,,,,,,,,,,,,,,,,,,,,,,,
180815,001,2022-11-20_20h52.20.534,Info_measure_main_exp,2022.2.2,Win32,60.09615385,,,,,,,,,,,,,,,,,,masks/mask_004.jpg,,,,,,,,,,,,,,,,,,,,,,,,,,,,,,,,,,,,,,,,,,,,,,,,0,4,4,3,1,,,,,,,,,,,,,,,,,,,,,,,,,,,,,,,,,,,,,,,,,
180815,001,2022-11-20_20h52.20.534,Info_measure_main_exp,2022.2.2,Win32,60.09615385,,,,,,,,,,,,,,,,,,,,,,,,,,,,,,5,1.216,1,,,,,,,,,,,,0,131,5,5,2082,2178,absent_patch/patch0002082.jpg,absent_patch/patch0002178.jpg,,,,,,,,,,,,,,,,,,,,0.142361111,-0.019675926,1,0,0,response3disk,1,0.00462963,0,1,0,0,center_square,0,0,0,2,1,,,,,,,,,,,,,,,,,,,,,,,
180815,001,2022-11-20_20h52.20.534,Info_measure_main_exp,2022.2.2,Win32,60.09615385,,,,,,,,,,,,,,,,,,masks/mask_005.jpg,,,,,,,,,,,,,,,,,,,,,,,,,,,,,,,,,,,,,,,,,,,0,0,0,4,1,,,,,,,,,,,,,,,,,,,,,,,,,,,,,,,,,,,,,,,,,,,,,,
180815,001,2022-11-20_20h52.20.534,Info_measure_main_exp,2022.2.2,Win32,60.09615385,,,,,,,,,,,,,,,,,,masks/mask_003.jpg,,,,,,,,,,,,,,,,,,,,,,,,,,,,,,,,,,,,,,,,,,,0,1,1,2,1,,,,,,,,,,,,,,,,,,,,,,,,,,,,,,,,,,,,,,,,,,,,,,
180815,001,2022-11-20_20h52.20.534,Info_measure_main_exp,2022.2.2,Win32,60.09615385,,,,,,,,,,,,,,,,,,masks/mask_002.jpg,,,,,,,,,,,,,,,,,,,,,,,,,,,,,,,,,,,,,,,,,,,0,2,2,1,1,,,,,,,,,,,,,,,,,,,,,,,,,,,,,,,,,,,,,,,,,,,,,,
180815,001,2022-11-20_20h52.20.534,Info_measure_main_exp,2022.2.2,Win32,60.09615385,,,,,,,,,,,,,,,,,,masks/mask_001.jpg,,,,,,,,,,,,,,,,,,,,,,,,,,,,,,,,,,,,,,,,,,,0,3,3,0,1,,,,,,,,,,,,,,,,,,,,,,,,,,,,,,,,,,,,,,,,,,,,,,
180815,001,2022-11-20_20h52.20.534,Info_measure_main_exp,2022.2.2,Win32,60.09615385,,,,,,,,,,,,,,,,,,masks/mask_004.jpg,,,,,,,,,,,,,,,,,,,,,,,,,,,,,,,,,,,,,,,,,,,0,4,4,3,1,,,,,,,,,,,,,,,,,,,,,,,,,,,,,,,,,,,,,,,,,,,,,,
180815,001,2022-11-20_20h52.20.534,Info_measure_main_exp,2022.2.2,Win32,60.09615385,,,,,,,,,,,,,,,,,,masks/mask_001.jpg,,,,,,,,,,,,,,,,,,,,,,,,,,,,,,,,,,,,,,,,,,,,,,,,0,0,0,0,1,,,,,,,,,,,,,,,,,,,,,,,,,,,,,,,,,,,,,,,,,
180815,001,2022-11-20_20h52.20.534,Info_measure_main_exp,2022.2.2,Win32,60.09615385,,,,,,,,,,,,,,,,,,masks/mask_002.jpg,,,,,,,,,,,,,,,,,,,,,,,,,,,,,,,,,,,,,,,,,,,,,,,,0,1,1,1,1,,,,,,,,,,,,,,,,,,,,,,,,,,,,,,,,,,,,,,,,,
180815,001,2022-11-20_20h52.20.534,Info_measure_main_exp,2022.2.2,Win32,60.09615385,,,,,,,,,,,,,,,,,,masks/mask_004.jpg,,,,,,,,,,,,,,,,,,,,,,,,,,,,,,,,,,,,,,,,,,,,,,,,0,2,2,3,1,,,,,,,,,,,,,,,,,,,,,,,,,,,,,,,,,,,,,,,,,
180815,001,2022-11-20_20h52.20.534,Info_measure_main_exp,2022.2.2,Win32,60.09615385,,,,,,,,,,,,,,,,,,masks/mask_005.jpg,,,,,,,,,,,,,,,,,,,,,,,,,,,,,,,,,,,,,,,,,,,,,,,,0,3,3,4,1,,,,,,,,,,,,,,,,,,,,,,,,,,,,,,,,,,,,,,,,,
180815,001,2022-11-20_20h52.20.534,Info_measure_main_exp,2022.2.2,Win32,60.09615385,,,,,,,,,,,,,,,,,,masks/mask_003.jpg,,,,,,,,,,,,,,,,,,,,,,,,,,,,,,,,,,,,,,,,,,,,,,,,0,4,4,2,1,,,,,,,,,,,,,,,,,,,,,,,,,,,,,,,,,,,,,,,,,
180815,001,2022-11-20_20h52.20.534,Info_measure_main_exp,2022.2.2,Win32,60.09615385,,,,,,,,,,,,,,,,,,,,,,,,,,,,,,5,1.117,1,,,,,,,,,,,,1,131,5,5,1,2214,present_patch/cong_131_5_a.jpg,absent_patch/patch0002214.jpg,,,,,,,,,,,,,,,,,,,,0.150462963,-0.074074074,1,0,0,response3disk,2,0.003472222,-0.008101852,1,0,0,center_square,0,1,1,4,1,,,,,,,,,,,,,,,,,,,,,,,
180815,001,2022-11-20_20h52.20.534,Info_measure_main_exp,2022.2.2,Win32,60.09615385,,,,,,,,,,,,,,,,,,masks/mask_005.jpg,,,,,,,,,,,,,,,,,,,,,,,,,,,,,,,,,,,,,,,,,,,0,0,0,4,1,,,,,,,,,,,,,,,,,,,,,,,,,,,,,,,,,,,,,,,,,,,,,,
180815,001,2022-11-20_20h52.20.534,Info_measure_main_exp,2022.2.2,Win32,60.09615385,,,,,,,,,,,,,,,,,,masks/mask_001.jpg,,,,,,,,,,,,,,,,,,,,,,,,,,,,,,,,,,,,,,,,,,,0,1,1,0,1,,,,,,,,,,,,,,,,,,,,,,,,,,,,,,,,,,,,,,,,,,,,,,
180815,001,2022-11-20_20h52.20.534,Info_measure_main_exp,2022.2.2,Win32,60.09615385,,,,,,,,,,,,,,,,,,masks/mask_004.jpg,,,,,,,,,,,,,,,,,,,,,,,,,,,,,,,,,,,,,,,,,,,0,2,2,3,1,,,,,,,,,,,,,,,,,,,,,,,,,,,,,,,,,,,,,,,,,,,,,,
180815,001,2022-11-20_20h52.20.534,Info_measure_main_exp,2022.2.2,Win32,60.09615385,,,,,,,,,,,,,,,,,,masks/mask_003.jpg,,,,,,,,,,,,,,,,,,,,,,,,,,,,,,,,,,,,,,,,,,,0,3,3,2,1,,,,,,,,,,,,,,,,,,,,,,,,,,,,,,,,,,,,,,,,,,,,,,
180815,001,2022-11-20_20h52.20.534,Info_measure_main_exp,2022.2.2,Win32,60.09615385,,,,,,,,,,,,,,,,,,masks/mask_002.jpg,,,,,,,,,,,,,,,,,,,,,,,,,,,,,,,,,,,,,,,,,,,0,4,4,1,1,,,,,,,,,,,,,,,,,,,,,,,,,,,,,,,,,,,,,,,,,,,,,,
180815,001,2022-11-20_20h52.20.534,Info_measure_main_exp,2022.2.2,Win32,60.09615385,,,,,,,,,,,,,,,,,,masks/mask_001.jpg,,,,,,,,,,,,,,,,,,,,,,,,,,,,,,,,,,,,,,,,,,,,,,,,0,0,0,0,1,,,,,,,,,,,,,,,,,,,,,,,,,,,,,,,,,,,,,,,,,
180815,001,2022-11-20_20h52.20.534,Info_measure_main_exp,2022.2.2,Win32,60.09615385,,,,,,,,,,,,,,,,,,masks/mask_004.jpg,,,,,,,,,,,,,,,,,,,,,,,,,,,,,,,,,,,,,,,,,,,,,,,,0,1,1,3,1,,,,,,,,,,,,,,,,,,,,,,,,,,,,,,,,,,,,,,,,,
180815,001,2022-11-20_20h52.20.534,Info_measure_main_exp,2022.2.2,Win32,60.09615385,,,,,,,,,,,,,,,,,,masks/mask_003.jpg,,,,,,,,,,,,,,,,,,,,,,,,,,,,,,,,,,,,,,,,,,,,,,,,0,2,2,2,1,,,,,,,,,,,,,,,,,,,,,,,,,,,,,,,,,,,,,,,,,
180815,001,2022-11-20_20h52.20.534,Info_measure_main_exp,2022.2.2,Win32,60.09615385,,,,,,,,,,,,,,,,,,masks/mask_002.jpg,,,,,,,,,,,,,,,,,,,,,,,,,,,,,,,,,,,,,,,,,,,,,,,,0,3,3,1,1,,,,,,,,,,,,,,,,,,,,,,,,,,,,,,,,,,,,,,,,,
180815,001,2022-11-20_20h52.20.534,Info_measure_main_exp,2022.2.2,Win32,60.09615385,,,,,,,,,,,,,,,,,,masks/mask_005.jpg,,,,,,,,,,,,,,,,,,,,,,,,,,,,,,,,,,,,,,,,,,,,,,,,0,4,4,4,1,,,,,,,,,,,,,,,,,,,,,,,,,,,,,,,,,,,,,,,,,
180815,001,2022-11-20_20h52.20.534,Info_measure_main_exp,2022.2.2,Win32,60.09615385,,,,,,,,,,,,,,,,,,,,,,,,,,,,,,0,0.683,1,,,,,,,,,,,,0,131,5,5,2082,2082,absent_patch/patch0002082.jpg,absent_patch/patch0002082.jpg,,,,,,,,,,,,,,,,,,,,-0.064814815,0.137731481,1,0,0,response7disk,3,-0.002314815,-0.00462963,1,0,0,center_square,0,2,2,74,1,,,,,,,,,,,,,,,,,,,,,,,
180815,001,2022-11-20_20h52.20.534,Info_measure_main_exp,2022.2.2,Win32,60.09615385,,,,,,,,,,,,,,,,,,masks/mask_002.jpg,,,,,,,,,,,,,,,,,,,,,,,,,,,,,,,,,,,,,,,,,,,0,0,0,1,1,,,,,,,,,,,,,,,,,,,,,,,,,,,,,,,,,,,,,,,,,,,,,,
180815,001,2022-11-20_20h52.20.534,Info_measure_main_exp,2022.2.2,Win32,60.09615385,,,,,,,,,,,,,,,,,,masks/mask_005.jpg,,,,,,,,,,,,,,,,,,,,,,,,,,,,,,,,,,,,,,,,,,,0,1,1,4,1,,,,,,,,,,,,,,,,,,,,,,,,,,,,,,,,,,,,,,,,,,,,,,
180815,001,2022-11-20_20h52.20.534,Info_measure_main_exp,2022.2.2,Win32,60.09615385,,,,,,,,,,,,,,,,,,masks/mask_001.jpg,,,,,,,,,,,,,,,,,,,,,,,,,,,,,,,,,,,,,,,,,,,0,2,2,0,1,,,,,,,,,,,,,,,,,,,,,,,,,,,,,,,,,,,,,,,,,,,,,,
180815,001,2022-11-20_20h52.20.534,Info_measure_main_exp,2022.2.2,Win32,60.09615385,,,,,,,,,,,,,,,,,,masks/mask_004.jpg,,,,,,,,,,,,,,,,,,,,,,,,,,,,,,,,,,,,,,,,,,,0,3,3,3,1,,,,,,,,,,,,,,,,,,,,,,,,,,,,,,,,,,,,,,,,,,,,,,
180815,001,2022-11-20_20h52.20.534,Info_measure_main_exp,2022.2.2,Win32,60.09615385,,,,,,,,,,,,,,,,,,masks/mask_003.jpg,,,,,,,,,,,,,,,,,,,,,,,,,,,,,,,,,,,,,,,,,,,0,4,4,2,1,,,,,,,,,,,,,,,,,,,,,,,,,,,,,,,,,,,,,,,,,,,,,,
180815,001,2022-11-20_20h52.20.534,Info_measure_main_exp,2022.2.2,Win32,60.09615385,,,,,,,,,,,,,,,,,,masks/mask_001.jpg,,,,,,,,,,,,,,,,,,,,,,,,,,,,,,,,,,,,,,,,,,,,,,,,0,0,0,0,1,,,,,,,,,,,,,,,,,,,,,,,,,,,,,,,,,,,,,,,,,
180815,001,2022-11-20_20h52.20.534,Info_measure_main_exp,2022.2.2,Win32,60.09615385,,,,,,,,,,,,,,,,,,masks/mask_004.jpg,,,,,,,,,,,,,,,,,,,,,,,,,,,,,,,,,,,,,,,,,,,,,,,,0,1,1,3,1,,,,,,,,,,,,,,,,,,,,,,,,,,,,,,,,,,,,,,,,,
180815,001,2022-11-20_20h52.20.534,Info_measure_main_exp,2022.2.2,Win32,60.09615385,,,,,,,,,,,,,,,,,,masks/mask_003.jpg,,,,,,,,,,,,,,,,,,,,,,,,,,,,,,,,,,,,,,,,,,,,,,,,0,2,2,2,1,,,,,,,,,,,,,,,,,,,,,,,,,,,,,,,,,,,,,,,,,
180815,001,2022-11-20_20h52.20.534,Info_measure_main_exp,2022.2.2,Win32,60.09615385,,,,,,,,,,,,,,,,,,masks/mask_005.jpg,,,,,,,,,,,,,,,,,,,,,,,,,,,,,,,,,,,,,,,,,,,,,,,,0,3,3,4,1,,,,,,,,,,,,,,,,,,,,,,,,,,,,,,,,,,,,,,,,,
180815,001,2022-11-20_20h52.20.534,Info_measure_main_exp,2022.2.2,Win32,60.09615385,,,,,,,,,,,,,,,,,,masks/mask_002.jpg,,,,,,,,,,,,,,,,,,,,,,,,,,,,,,,,,,,,,,,,,,,,,,,,0,4,4,1,1,,,,,,,,,,,,,,,,,,,,,,,,,,,,,,,,,,,,,,,,,
180815,001,2022-11-20_20h52.20.534,Info_measure_main_exp,2022.2.2,Win32,60.09615385,,,,,,,,,,,,,,,,,,,,,,,,,,,,,,6,0.633,1,,,,,,,,,,,,0,131,5,5,2214,2142,absent_patch/patch0002214.jpg,absent_patch/patch0002142.jpg,,,,,,,,,,,,,,,,,,,,0.121527778,0.037037037,1,0,0,response1disk,4,0.013888889,0.002314815,1,0,0,center_square,0,3,3,102,1,,,,,,,,,,,,,,,,,,,,,,,
180815,001,2022-11-20_20h52.20.534,Info_measure_main_exp,2022.2.2,Win32,60.09615385,,,,,,,,,,,,,,,,,,masks/mask_005.jpg,,,,,,,,,,,,,,,,,,,,,,,,,,,,,,,,,,,,,,,,,,,0,0,0,4,1,,,,,,,,,,,,,,,,,,,,,,,,,,,,,,,,,,,,,,,,,,,,,,
180815,001,2022-11-20_20h52.20.534,Info_measure_main_exp,2022.2.2,Win32,60.09615385,,,,,,,,,,,,,,,,,,masks/mask_002.jpg,,,,,,,,,,,,,,,,,,,,,,,,,,,,,,,,,,,,,,,,,,,0,1,1,1,1,,,,,,,,,,,,,,,,,,,,,,,,,,,,,,,,,,,,,,,,,,,,,,
180815,001,2022-11-20_20h52.20.534,Info_measure_main_exp,2022.2.2,Win32,60.09615385,,,,,,,,,,,,,,,,,,masks/mask_003.jpg,,,,,,,,,,,,,,,,,,,,,,,,,,,,,,,,,,,,,,,,,,,0,2,2,2,1,,,,,,,,,,,,,,,,,,,,,,,,,,,,,,,,,,,,,,,,,,,,,,
180815,001,2022-11-20_20h52.20.534,Info_measure_main_exp,2022.2.2,Win32,60.09615385,,,,,,,,,,,,,,,,,,masks/mask_001.jpg,,,,,,,,,,,,,,,,,,,,,,,,,,,,,,,,,,,,,,,,,,,0,3,3,0,1,,,,,,,,,,,,,,,,,,,,,,,,,,,,,,,,,,,,,,,,,,,,,,
180815,001,2022-11-20_20h52.20.534,Info_measure_main_exp,2022.2.2,Win32,60.09615385,,,,,,,,,,,,,,,,,,masks/mask_004.jpg,,,,,,,,,,,,,,,,,,,,,,,,,,,,,,,,,,,,,,,,,,,0,4,4,3,1,,,,,,,,,,,,,,,,,,,,,,,,,,,,,,,,,,,,,,,,,,,,,,
180815,001,2022-11-20_20h52.20.534,Info_measure_main_exp,2022.2.2,Win32,60.09615385,,,,,,,,,,,,,,,,,,masks/mask_001.jpg,,,,,,,,,,,,,,,,,,,,,,,,,,,,,,,,,,,,,,,,,,,,,,,,0,0,0,0,1,,,,,,,,,,,,,,,,,,,,,,,,,,,,,,,,,,,,,,,,,
180815,001,2022-11-20_20h52.20.534,Info_measure_main_exp,2022.2.2,Win32,60.09615385,,,,,,,,,,,,,,,,,,masks/mask_003.jpg,,,,,,,,,,,,,,,,,,,,,,,,,,,,,,,,,,,,,,,,,,,,,,,,0,1,1,2,1,,,,,,,,,,,,,,,,,,,,,,,,,,,,,,,,,,,,,,,,,
180815,001,2022-11-20_20h52.20.534,Info_measure_main_exp,2022.2.2,Win32,60.09615385,,,,,,,,,,,,,,,,,,masks/mask_005.jpg,,,,,,,,,,,,,,,,,,,,,,,,,,,,,,,,,,,,,,,,,,,,,,,,0,2,2,4,1,,,,,,,,,,,,,,,,,,,,,,,,,,,,,,,,,,,,,,,,,
180815,001,2022-11-20_20h52.20.534,Info_measure_main_exp,2022.2.2,Win32,60.09615385,,,,,,,,,,,,,,,,,,masks/mask_002.jpg,,,,,,,,,,,,,,,,,,,,,,,,,,,,,,,,,,,,,,,,,,,,,,,,0,3,3,1,1,,,,,,,,,,,,,,,,,,,,,,,,,,,,,,,,,,,,,,,,,
180815,001,2022-11-20_20h52.20.534,Info_measure_main_exp,2022.2.2,Win32,60.09615385,,,,,,,,,,,,,,,,,,masks/mask_004.jpg,,,,,,,,,,,,,,,,,,,,,,,,,,,,,,,,,,,,,,,,,,,,,,,,0,4,4,3,1,,,,,,,,,,,,,,,,,,,,,,,,,,,,,,,,,,,,,,,,,
180815,001,2022-11-20_20h52.20.534,Info_measure_main_exp,2022.2.2,Win32,60.09615385,,,,,,,,,,,,,,,,,,,,,,,,,,,,,,4,1.316,1,,,,,,,,,,,,0,131,5,5,1974,2178,absent_patch/patch0001974.jpg,absent_patch/patch0002178.jpg,,,,,,,,,,,,,,,,,,,,0.037037037,-0.127314815,1,0,0,response3disk,5,-0.002314815,0.010416667,1,0,0,center_square,0,4,4,44,1,,,,,,,,,,,,,,,,,,,,,,,
180815,001,2022-11-20_20h52.20.534,Info_measure_main_exp,2022.2.2,Win32,60.09615385,,,,,,,,,,,,,,,,,,masks/mask_005.jpg,,,,,,,,,,,,,,,,,,,,,,,,,,,,,,,,,,,,,,,,,,,0,0,0,4,1,,,,,,,,,,,,,,,,,,,,,,,,,,,,,,,,,,,,,,,,,,,,,,
180815,001,2022-11-20_20h52.20.534,Info_measure_main_exp,2022.2.2,Win32,60.09615385,,,,,,,,,,,,,,,,,,masks/mask_001.jpg,,,,,,,,,,,,,,,,,,,,,,,,,,,,,,,,,,,,,,,,,,,0,1,1,0,1,,,,,,,,,,,,,,,,,,,,,,,,,,,,,,,,,,,,,,,,,,,,,,
180815,001,2022-11-20_20h52.20.534,Info_measure_main_exp,2022.2.2,Win32,60.09615385,,,,,,,,,,,,,,,,,,masks/mask_002.jpg,,,,,,,,,,,,,,,,,,,,,,,,,,,,,,,,,,,,,,,,,,,0,2,2,1,1,,,,,,,,,,,,,,,,,,,,,,,,,,,,,,,,,,,,,,,,,,,,,,
180815,001,2022-11-20_20h52.20.534,Info_measure_main_exp,2022.2.2,Win32,60.09615385,,,,,,,,,,,,,,,,,,masks/mask_003.jpg,,,,,,,,,,,,,,,,,,,,,,,,,,,,,,,,,,,,,,,,,,,0,3,3,2,1,,,,,,,,,,,,,,,,,,,,,,,,,,,,,,,,,,,,,,,,,,,,,,
180815,001,2022-11-20_20h52.20.534,Info_measure_main_exp,2022.2.2,Win32,60.09615385,,,,,,,,,,,,,,,,,,masks/mask_004.jpg,,,,,,,,,,,,,,,,,,,,,,,,,,,,,,,,,,,,,,,,,,,0,4,4,3,1,,,,,,,,,,,,,,,,,,,,,,,,,,,,,,,,,,,,,,,,,,,,,,
180815,001,2022-11-20_20h52.20.534,Info_measure_main_exp,2022.2.2,Win32,60.09615385,,,,,,,,,,,,,,,,,,masks/mask_003.jpg,,,,,,,,,,,,,,,,,,,,,,,,,,,,,,,,,,,,,,,,,,,,,,,,0,0,0,2,1,,,,,,,,,,,,,,,,,,,,,,,,,,,,,,,,,,,,,,,,,
180815,001,2022-11-20_20h52.20.534,Info_measure_main_exp,2022.2.2,Win32,60.09615385,,,,,,,,,,,,,,,,,,masks/mask_001.jpg,,,,,,,,,,,,,,,,,,,,,,,,,,,,,,,,,,,,,,,,,,,,,,,,0,1,1,0,1,,,,,,,,,,,,,,,,,,,,,,,,,,,,,,,,,,,,,,,,,
180815,001,2022-11-20_20h52.20.534,Info_measure_main_exp,2022.2.2,Win32,60.09615385,,,,,,,,,,,,,,,,,,masks/mask_002.jpg,,,,,,,,,,,,,,,,,,,,,,,,,,,,,,,,,,,,,,,,,,,,,,,,0,2,2,1,1,,,,,,,,,,,,,,,,,,,,,,,,,,,,,,,,,,,,,,,,,
180815,001,2022-11-20_20h52.20.534,Info_measure_main_exp,2022.2.2,Win32,60.09615385,,,,,,,,,,,,,,,,,,masks/mask_005.jpg,,,,,,,,,,,,,,,,,,,,,,,,,,,,,,,,,,,,,,,,,,,,,,,,0,3,3,4,1,,,,,,,,,,,,,,,,,,,,,,,,,,,,,,,,,,,,,,,,,
180815,001,2022-11-20_20h52.20.534,Info_measure_main_exp,2022.2.2,Win32,60.09615385,,,,,,,,,,,,,,,,,,masks/mask_004.jpg,,,,,,,,,,,,,,,,,,,,,,,,,,,,,,,,,,,,,,,,,,,,,,,,0,4,4,3,1,,,,,,,,,,,,,,,,,,,,,,,,,,,,,,,,,,,,,,,,,
180815,001,2022-11-20_20h52.20.534,Info_measure_main_exp,2022.2.2,Win32,60.09615385,,,,,,,,,,,,,,,,,,,,,,,,,,,,,,6,3.2,1,,,,,,,,,,,,0,131,5,5,2214,1986,absent_patch/patch0002214.jpg,absent_patch/patch0001986.jpg,,,,,,,,,,,,,,,,,,,,0.172453704,0.042824074,1,0,0,response1disk,6,0,0.006944444,1,0,0,center_square,0,5,5,34,1,,,,,,,,,,,,,,,,,,,,,,,
180815,001,2022-11-20_20h52.20.534,Info_measure_main_exp,2022.2.2,Win32,60.09615385,,,,,,,,,,,,,,,,,,masks/mask_001.jpg,,,,,,,,,,,,,,,,,,,,,,,,,,,,,,,,,,,,,,,,,,,0,0,0,0,1,,,,,,,,,,,,,,,,,,,,,,,,,,,,,,,,,,,,,,,,,,,,,,
180815,001,2022-11-20_20h52.20.534,Info_measure_main_exp,2022.2.2,Win32,60.09615385,,,,,,,,,,,,,,,,,,masks/mask_004.jpg,,,,,,,,,,,,,,,,,,,,,,,,,,,,,,,,,,,,,,,,,,,0,1,1,3,1,,,,,,,,,,,,,,,,,,,,,,,,,,,,,,,,,,,,,,,,,,,,,,
180815,001,2022-11-20_20h52.20.534,Info_measure_main_exp,2022.2.2,Win32,60.09615385,,,,,,,,,,,,,,,,,,masks/mask_005.jpg,,,,,,,,,,,,,,,,,,,,,,,,,,,,,,,,,,,,,,,,,,,0,2,2,4,1,,,,,,,,,,,,,,,,,,,,,,,,,,,,,,,,,,,,,,,,,,,,,,
180815,001,2022-11-20_20h52.20.534,Info_measure_main_exp,2022.2.2,Win32,60.09615385,,,,,,,,,,,,,,,,,,masks/mask_002.jpg,,,,,,,,,,,,,,,,,,,,,,,,,,,,,,,,,,,,,,,,,,,0,3,3,1,1,,,,,,,,,,,,,,,,,,,,,,,,,,,,,,,,,,,,,,,,,,,,,,
180815,001,2022-11-20_20h52.20.534,Info_measure_main_exp,2022.2.2,Win32,60.09615385,,,,,,,,,,,,,,,,,,masks/mask_003.jpg,,,,,,,,,,,,,,,,,,,,,,,,,,,,,,,,,,,,,,,,,,,0,4,4,2,1,,,,,,,,,,,,,,,,,,,,,,,,,,,,,,,,,,,,,,,,,,,,,,
180815,001,2022-11-20_20h52.20.534,Info_measure_main_exp,2022.2.2,Win32,60.09615385,,,,,,,,,,,,,,,,,,masks/mask_005.jpg,,,,,,,,,,,,,,,,,,,,,,,,,,,,,,,,,,,,,,,,,,,,,,,,0,0,0,4,1,,,,,,,,,,,,,,,,,,,,,,,,,,,,,,,,,,,,,,,,,
180815,001,2022-11-20_20h52.20.534,Info_measure_main_exp,2022.2.2,Win32,60.09615385,,,,,,,,,,,,,,,,,,masks/mask_003.jpg,,,,,,,,,,,,,,,,,,,,,,,,,,,,,,,,,,,,,,,,,,,,,,,,0,1,1,2,1,,,,,,,,,,,,,,,,,,,,,,,,,,,,,,,,,,,,,,,,,
180815,001,2022-11-20_20h52.20.534,Info_measure_main_exp,2022.2.2,Win32,60.09615385,,,,,,,,,,,,,,,,,,masks/mask_002.jpg,,,,,,,,,,,,,,,,,,,,,,,,,,,,,,,,,,,,,,,,,,,,,,,,0,2,2,1,1,,,,,,,,,,,,,,,,,,,,,,,,,,,,,,,,,,,,,,,,,
180815,001,2022-11-20_20h52.20.534,Info_measure_main_exp,2022.2.2,Win32,60.09615385,,,,,,,,,,,,,,,,,,masks/mask_001.jpg,,,,,,,,,,,,,,,,,,,,,,,,,,,,,,,,,,,,,,,,,,,,,,,,0,3,3,0,1,,,,,,,,,,,,,,,,,,,,,,,,,,,,,,,,,,,,,,,,,
180815,001,2022-11-20_20h52.20.534,Info_measure_main_exp,2022.2.2,Win32,60.09615385,,,,,,,,,,,,,,,,,,masks/mask_004.jpg,,,,,,,,,,,,,,,,,,,,,,,,,,,,,,,,,,,,,,,,,,,,,,,,0,4,4,3,1,,,,,,,,,,,,,,,,,,,,,,,,,,,,,,,,,,,,,,,,,
180815,001,2022-11-20_20h52.20.534,Info_measure_main_exp,2022.2.2,Win32,60.09615385,,,,,,,,,,,,,,,,,,,,,,,,,,,,,,6,0.634,1,,,,,,,,,,,,0,131,5,5,2178,1986,absent_patch/patch0002178.jpg,absent_patch/patch0001986.jpg,,,,,,,,,,,,,,,,,,,,0.122685185,0.047453704,1,0,0,response1disk,7,-0.005787037,-0.005787037,1,0,0,center_square,0,6,6,46,1,,,,,,,,,,,,,,,,,,,,,,,
180815,001,2022-11-20_20h52.20.534,Info_measure_main_exp,2022.2.2,Win32,60.09615385,,,,,,,,,,,,,,,,,,masks/mask_001.jpg,,,,,,,,,,,,,,,,,,,,,,,,,,,,,,,,,,,,,,,,,,,0,0,0,0,1,,,,,,,,,,,,,,,,,,,,,,,,,,,,,,,,,,,,,,,,,,,,,,
180815,001,2022-11-20_20h52.20.534,Info_measure_main_exp,2022.2.2,Win32,60.09615385,,,,,,,,,,,,,,,,,,masks/mask_003.jpg,,,,,,,,,,,,,,,,,,,,,,,,,,,,,,,,,,,,,,,,,,,0,1,1,2,1,,,,,,,,,,,,,,,,,,,,,,,,,,,,,,,,,,,,,,,,,,,,,,
180815,001,2022-11-20_20h52.20.534,Info_measure_main_exp,2022.2.2,Win32,60.09615385,,,,,,,,,,,,,,,,,,masks/mask_002.jpg,,,,,,,,,,,,,,,,,,,,,,,,,,,,,,,,,,,,,,,,,,,0,2,2,1,1,,,,,,,,,,,,,,,,,,,,,,,,,,,,,,,,,,,,,,,,,,,,,,
180815,001,2022-11-20_20h52.20.534,Info_measure_main_exp,2022.2.2,Win32,60.09615385,,,,,,,,,,,,,,,,,,masks/mask_005.jpg,,,,,,,,,,,,,,,,,,,,,,,,,,,,,,,,,,,,,,,,,,,0,3,3,4,1,,,,,,,,,,,,,,,,,,,,,,,,,,,,,,,,,,,,,,,,,,,,,,
180815,001,2022-11-20_20h52.20.534,Info_measure_main_exp,2022.2.2,Win32,60.09615385,,,,,,,,,,,,,,,,,,masks/mask_004.jpg,,,,,,,,,,,,,,,,,,,,,,,,,,,,,,,,,,,,,,,,,,,0,4,4,3,1,,,,,,,,,,,,,,,,,,,,,,,,,,,,,,,,,,,,,,,,,,,,,,
180815,001,2022-11-20_20h52.20.534,Info_measure_main_exp,2022.2.2,Win32,60.09615385,,,,,,,,,,,,,,,,,,masks/mask_002.jpg,,,,,,,,,,,,,,,,,,,,,,,,,,,,,,,,,,,,,,,,,,,,,,,,0,0,0,1,1,,,,,,,,,,,,,,,,,,,,,,,,,,,,,,,,,,,,,,,,,
180815,001,2022-11-20_20h52.20.534,Info_measure_main_exp,2022.2.2,Win32,60.09615385,,,,,,,,,,,,,,,,,,masks/mask_003.jpg,,,,,,,,,,,,,,,,,,,,,,,,,,,,,,,,,,,,,,,,,,,,,,,,0,1,1,2,1,,,,,,,,,,,,,,,,,,,,,,,,,,,,,,,,,,,,,,,,,
180815,001,2022-11-20_20h52.20.534,Info_measure_main_exp,2022.2.2,Win32,60.09615385,,,,,,,,,,,,,,,,,,masks/mask_004.jpg,,,,,,,,,,,,,,,,,,,,,,,,,,,,,,,,,,,,,,,,,,,,,,,,0,2,2,3,1,,,,,,,,,,,,,,,,,,,,,,,,,,,,,,,,,,,,,,,,,
180815,001,2022-11-20_20h52.20.534,Info_measure_main_exp,2022.2.2,Win32,60.09615385,,,,,,,,,,,,,,,,,,masks/mask_001.jpg,,,,,,,,,,,,,,,,,,,,,,,,,,,,,,,,,,,,,,,,,,,,,,,,0,3,3,0,1,,,,,,,,,,,,,,,,,,,,,,,,,,,,,,,,,,,,,,,,,
180815,001,2022-11-20_20h52.20.534,Info_measure_main_exp,2022.2.2,Win32,60.09615385,,,,,,,,,,,,,,,,,,masks/mask_005.jpg,,,,,,,,,,,,,,,,,,,,,,,,,,,,,,,,,,,,,,,,,,,,,,,,0,4,4,4,1,,,,,,,,,,,,,,,,,,,,,,,,,,,,,,,,,,,,,,,,,
180815,001,2022-11-20_20h52.20.534,Info_measure_main_exp,2022.2.2,Win32,60.09615385,,,,,,,,,,,,,,,,,,,,,,,,,,,,,,6,0.934,1,,,,,,,,,,,,0,131,5,5,2190,2214,absent_patch/patch0002190.jpg,absent_patch/patch0002214.jpg,,,,,,,,,,,,,,,,,,,,0.178240741,0.06712963,1,0,0,response1disk,8,0.00462963,-0.002314815,1,0,0,center_square,0,7,7,35,1,,,,,,,,,,,,,,,,,,,,,,,
180815,001,2022-11-20_20h52.20.534,Info_measure_main_exp,2022.2.2,Win32,60.09615385,,,,,,,,,,,,,,,,,,masks/mask_003.jpg,,,,,,,,,,,,,,,,,,,,,,,,,,,,,,,,,,,,,,,,,,,0,0,0,2,1,,,,,,,,,,,,,,,,,,,,,,,,,,,,,,,,,,,,,,,,,,,,,,
180815,001,2022-11-20_20h52.20.534,Info_measure_main_exp,2022.2.2,Win32,60.09615385,,,,,,,,,,,,,,,,,,masks/mask_004.jpg,,,,,,,,,,,,,,,,,,,,,,,,,,,,,,,,,,,,,,,,,,,0,1,1,3,1,,,,,,,,,,,,,,,,,,,,,,,,,,,,,,,,,,,,,,,,,,,,,,
180815,001,2022-11-20_20h52.20.534,Info_measure_main_exp,2022.2.2,Win32,60.09615385,,,,,,,,,,,,,,,,,,masks/mask_002.jpg,,,,,,,,,,,,,,,,,,,,,,,,,,,,,,,,,,,,,,,,,,,0,2,2,1,1,,,,,,,,,,,,,,,,,,,,,,,,,,,,,,,,,,,,,,,,,,,,,,
180815,001,2022-11-20_20h52.20.534,Info_measure_main_exp,2022.2.2,Win32,60.09615385,,,,,,,,,,,,,,,,,,masks/mask_005.jpg,,,,,,,,,,,,,,,,,,,,,,,,,,,,,,,,,,,,,,,,,,,0,3,3,4,1,,,,,,,,,,,,,,,,,,,,,,,,,,,,,,,,,,,,,,,,,,,,,,
180815,001,2022-11-20_20h52.20.534,Info_measure_main_exp,2022.2.2,Win32,60.09615385,,,,,,,,,,,,,,,,,,masks/mask_001.jpg,,,,,,,,,,,,,,,,,,,,,,,,,,,,,,,,,,,,,,,,,,,0,4,4,0,1,,,,,,,,,,,,,,,,,,,,,,,,,,,,,,,,,,,,,,,,,,,,,,
180815,001,2022-11-20_20h52.20.534,Info_measure_main_exp,2022.2.2,Win32,60.09615385,,,,,,,,,,,,,,,,,,masks/mask_003.jpg,,,,,,,,,,,,,,,,,,,,,,,,,,,,,,,,,,,,,,,,,,,,,,,,0,0,0,2,1,,,,,,,,,,,,,,,,,,,,,,,,,,,,,,,,,,,,,,,,,
180815,001,2022-11-20_20h52.20.534,Info_measure_main_exp,2022.2.2,Win32,60.09615385,,,,,,,,,,,,,,,,,,masks/mask_004.jpg,,,,,,,,,,,,,,,,,,,,,,,,,,,,,,,,,,,,,,,,,,,,,,,,0,1,1,3,1,,,,,,,,,,,,,,,,,,,,,,,,,,,,,,,,,,,,,,,,,
180815,001,2022-11-20_20h52.20.534,Info_measure_main_exp,2022.2.2,Win32,60.09615385,,,,,,,,,,,,,,,,,,masks/mask_005.jpg,,,,,,,,,,,,,,,,,,,,,,,,,,,,,,,,,,,,,,,,,,,,,,,,0,2,2,4,1,,,,,,,,,,,,,,,,,,,,,,,,,,,,,,,,,,,,,,,,,
180815,001,2022-11-20_20h52.20.534,Info_measure_main_exp,2022.2.2,Win32,60.09615385,,,,,,,,,,,,,,,,,,masks/mask_001.jpg,,,,,,,,,,,,,,,,,,,,,,,,,,,,,,,,,,,,,,,,,,,,,,,,0,3,3,0,1,,,,,,,,,,,,,,,,,,,,,,,,,,,,,,,,,,,,,,,,,
180815,001,2022-11-20_20h52.20.534,Info_measure_main_exp,2022.2.2,Win32,60.09615385,,,,,,,,,,,,,,,,,,masks/mask_002.jpg,,,,,,,,,,,,,,,,,,,,,,,,,,,,,,,,,,,,,,,,,,,,,,,,0,4,4,1,1,,,,,,,,,,,,,,,,,,,,,,,,,,,,,,,,,,,,,,,,,
180815,001,2022-11-20_20h52.20.534,Info_measure_main_exp,2022.2.2,Win32,60.09615385,,,,,,,,,,,,,,,,,,,,,,,,,,,,,,4,0.817,1,,,,,,,,,,,,0,131,5,5,2298,2274,absent_patch/patch0002298.jpg,absent_patch/patch0002274.jpg,,,,,,,,,,,,,,,,,,,,0.016203704,-0.170138889,1,0,0,response3disk,9,-0.002314815,0.003472222,1,0,0,center_square,0,8,8,1,1,,,,,,,,,,,,,,,,,,,,,,,
180815,001,2022-11-20_20h52.20.534,Info_measure_main_exp,2022.2.2,Win32,60.09615385,,,,,,,,,,,,,,,,,,masks/mask_002.jpg,,,,,,,,,,,,,,,,,,,,,,,,,,,,,,,,,,,,,,,,,,,0,0,0,1,1,,,,,,,,,,,,,,,,,,,,,,,,,,,,,,,,,,,,,,,,,,,,,,
180815,001,2022-11-20_20h52.20.534,Info_measure_main_exp,2022.2.2,Win32,60.09615385,,,,,,,,,,,,,,,,,,masks/mask_004.jpg,,,,,,,,,,,,,,,,,,,,,,,,,,,,,,,,,,,,,,,,,,,0,1,1,3,1,,,,,,,,,,,,,,,,,,,,,,,,,,,,,,,,,,,,,,,,,,,,,,
180815,001,2022-11-20_20h52.20.534,Info_measure_main_exp,2022.2.2,Win32,60.09615385,,,,,,,,,,,,,,,,,,masks/mask_001.jpg,,,,,,,,,,,,,,,,,,,,,,,,,,,,,,,,,,,,,,,,,,,0,2,2,0,1,,,,,,,,,,,,,,,,,,,,,,,,,,,,,,,,,,,,,,,,,,,,,,
180815,001,2022-11-20_20h52.20.534,Info_measure_main_exp,2022.2.2,Win32,60.09615385,,,,,,,,,,,,,,,,,,masks/mask_003.jpg,,,,,,,,,,,,,,,,,,,,,,,,,,,,,,,,,,,,,,,,,,,0,3,3,2,1,,,,,,,,,,,,,,,,,,,,,,,,,,,,,,,,,,,,,,,,,,,,,,
180815,001,2022-11-20_20h52.20.534,Info_measure_main_exp,2022.2.2,Win32,60.09615385,,,,,,,,,,,,,,,,,,masks/mask_005.jpg,,,,,,,,,,,,,,,,,,,,,,,,,,,,,,,,,,,,,,,,,,,0,4,4,4,1,,,,,,,,,,,,,,,,,,,,,,,,,,,,,,,,,,,,,,,,,,,,,,
180815,001,2022-11-20_20h52.20.534,Info_measure_main_exp,2022.2.2,Win32,60.09615385,,,,,,,,,,,,,,,,,,masks/mask_003.jpg,,,,,,,,,,,,,,,,,,,,,,,,,,,,,,,,,,,,,,,,,,,,,,,,0,0,0,2,1,,,,,,,,,,,,,,,,,,,,,,,,,,,,,,,,,,,,,,,,,
180815,001,2022-11-20_20h52.20.534,Info_measure_main_exp,2022.2.2,Win32,60.09615385,,,,,,,,,,,,,,,,,,masks/mask_002.jpg,,,,,,,,,,,,,,,,,,,,,,,,,,,,,,,,,,,,,,,,,,,,,,,,0,1,1,1,1,,,,,,,,,,,,,,,,,,,,,,,,,,,,,,,,,,,,,,,,,
180815,001,2022-11-20_20h52.20.534,Info_measure_main_exp,2022.2.2,Win32,60.09615385,,,,,,,,,,,,,,,,,,masks/mask_001.jpg,,,,,,,,,,,,,,,,,,,,,,,,,,,,,,,,,,,,,,,,,,,,,,,,0,2,2,0,1,,,,,,,,,,,,,,,,,,,,,,,,,,,,,,,,,,,,,,,,,
180815,001,2022-11-20_20h52.20.534,Info_measure_main_exp,2022.2.2,Win32,60.09615385,,,,,,,,,,,,,,,,,,masks/mask_005.jpg,,,,,,,,,,,,,,,,,,,,,,,,,,,,,,,,,,,,,,,,,,,,,,,,0,3,3,4,1,,,,,,,,,,,,,,,,,,,,,,,,,,,,,,,,,,,,,,,,,
180815,001,2022-11-20_20h52.20.534,Info_measure_main_exp,2022.2.2,Win32,60.09615385,,,,,,,,,,,,,,,,,,masks/mask_004.jpg,,,,,,,,,,,,,,,,,,,,,,,,,,,,,,,,,,,,,,,,,,,,,,,,0,4,4,3,1,,,,,,,,,,,,,,,,,,,,,,,,,,,,,,,,,,,,,,,,,
180815,001,2022-11-20_20h52.20.534,Info_measure_main_exp,2022.2.2,Win32,60.09615385,,,,,,,,,,,,,,,,,,,,,,,,,,,,,,6,0.75,1,,,,,,,,,,,,0,131,5,5,1950,2298,absent_patch/patch0001950.jpg,absent_patch/patch0002298.jpg,,,,,,,,,,,,,,,,,,,,0.148148148,0.041666667,1,0,0,response1disk,10,0.002314815,-0.003472222,1,0,0,center_square,0,9,9,18,1,,,,,,,,,,,,,,,,,,,,,,,
180815,001,2022-11-20_20h52.20.534,Info_measure_main_exp,2022.2.2,Win32,60.09615385,,,,,,,,,,,,,,,,,,masks/mask_001.jpg,,,,,,,,,,,,,,,,,,,,,,,,,,,,,,,,,,,,,,,,,,,0,0,0,0,1,,,,,,,,,,,,,,,,,,,,,,,,,,,,,,,,,,,,,,,,,,,,,,
180815,001,2022-11-20_20h52.20.534,Info_measure_main_exp,2022.2.2,Win32,60.09615385,,,,,,,,,,,,,,,,,,masks/mask_003.jpg,,,,,,,,,,,,,,,,,,,,,,,,,,,,,,,,,,,,,,,,,,,0,1,1,2,1,,,,,,,,,,,,,,,,,,,,,,,,,,,,,,,,,,,,,,,,,,,,,,
180815,001,2022-11-20_20h52.20.534,Info_measure_main_exp,2022.2.2,Win32,60.09615385,,,,,,,,,,,,,,,,,,masks/mask_005.jpg,,,,,,,,,,,,,,,,,,,,,,,,,,,,,,,,,,,,,,,,,,,0,2,2,4,1,,,,,,,,,,,,,,,,,,,,,,,,,,,,,,,,,,,,,,,,,,,,,,
180815,001,2022-11-20_20h52.20.534,Info_measure_main_exp,2022.2.2,Win32,60.09615385,,,,,,,,,,,,,,,,,,masks/mask_002.jpg,,,,,,,,,,,,,,,,,,,,,,,,,,,,,,,,,,,,,,,,,,,0,3,3,1,1,,,,,,,,,,,,,,,,,,,,,,,,,,,,,,,,,,,,,,,,,,,,,,
180815,001,2022-11-20_20h52.20.534,Info_measure_main_exp,2022.2.2,Win32,60.09615385,,,,,,,,,,,,,,,,,,masks/mask_004.jpg,,,,,,,,,,,,,,,,,,,,,,,,,,,,,,,,,,,,,,,,,,,0,4,4,3,1,,,,,,,,,,,,,,,,,,,,,,,,,,,,,,,,,,,,,,,,,,,,,,
180815,001,2022-11-20_20h52.20.534,Info_measure_main_exp,2022.2.2,Win32,60.09615385,,,,,,,,,,,,,,,,,,masks/mask_004.jpg,,,,,,,,,,,,,,,,,,,,,,,,,,,,,,,,,,,,,,,,,,,,,,,,0,0,0,3,1,,,,,,,,,,,,,,,,,,,,,,,,,,,,,,,,,,,,,,,,,
180815,001,2022-11-20_20h52.20.534,Info_measure_main_exp,2022.2.2,Win32,60.09615385,,,,,,,,,,,,,,,,,,masks/mask_005.jpg,,,,,,,,,,,,,,,,,,,,,,,,,,,,,,,,,,,,,,,,,,,,,,,,0,1,1,4,1,,,,,,,,,,,,,,,,,,,,,,,,,,,,,,,,,,,,,,,,,
180815,001,2022-11-20_20h52.20.534,Info_measure_main_exp,2022.2.2,Win32,60.09615385,,,,,,,,,,,,,,,,,,masks/mask_003.jpg,,,,,,,,,,,,,,,,,,,,,,,,,,,,,,,,,,,,,,,,,,,,,,,,0,2,2,2,1,,,,,,,,,,,,,,,,,,,,,,,,,,,,,,,,,,,,,,,,,
180815,001,2022-11-20_20h52.20.534,Info_measure_main_exp,2022.2.2,Win32,60.09615385,,,,,,,,,,,,,,,,,,masks/mask_002.jpg,,,,,,,,,,,,,,,,,,,,,,,,,,,,,,,,,,,,,,,,,,,,,,,,0,3,3,1,1,,,,,,,,,,,,,,,,,,,,,,,,,,,,,,,,,,,,,,,,,
180815,001,2022-11-20_20h52.20.534,Info_measure_main_exp,2022.2.2,Win32,60.09615385,,,,,,,,,,,,,,,,,,masks/mask_001.jpg,,,,,,,,,,,,,,,,,,,,,,,,,,,,,,,,,,,,,,,,,,,,,,,,0,4,4,0,1,,,,,,,,,,,,,,,,,,,,,,,,,,,,,,,,,,,,,,,,,
180815,001,2022-11-20_20h52.20.534,Info_measure_main_exp,2022.2.2,Win32,60.09615385,,,,,,,,,,,,,,,,,,,,,,,,,,,,,,7,0.65,1,,,,,,,,,,,,0,131,5,5,2154,1974,absent_patch/patch0002154.jpg,absent_patch/patch0001974.jpg,,,,,,,,,,,,,,,,,,,,0.075231481,0.137731481,1,0,0,response1disk,11,0,-0.00462963,1,0,0,center_square,0,10,10,82,1,,,,,,,,,,,,,,,,,,,,,,,
180815,001,2022-11-20_20h52.20.534,Info_measure_main_exp,2022.2.2,Win32,60.09615385,,,,,,,,,,,,,,,,,,masks/mask_002.jpg,,,,,,,,,,,,,,,,,,,,,,,,,,,,,,,,,,,,,,,,,,,0,0,0,1,1,,,,,,,,,,,,,,,,,,,,,,,,,,,,,,,,,,,,,,,,,,,,,,
180815,001,2022-11-20_20h52.20.534,Info_measure_main_exp,2022.2.2,Win32,60.09615385,,,,,,,,,,,,,,,,,,masks/mask_004.jpg,,,,,,,,,,,,,,,,,,,,,,,,,,,,,,,,,,,,,,,,,,,0,1,1,3,1,,,,,,,,,,,,,,,,,,,,,,,,,,,,,,,,,,,,,,,,,,,,,,
180815,001,2022-11-20_20h52.20.534,Info_measure_main_exp,2022.2.2,Win32,60.09615385,,,,,,,,,,,,,,,,,,masks/mask_001.jpg,,,,,,,,,,,,,,,,,,,,,,,,,,,,,,,,,,,,,,,,,,,0,2,2,0,1,,,,,,,,,,,,,,,,,,,,,,,,,,,,,,,,,,,,,,,,,,,,,,
180815,001,2022-11-20_20h52.20.534,Info_measure_main_exp,2022.2.2,Win32,60.09615385,,,,,,,,,,,,,,,,,,masks/mask_003.jpg,,,,,,,,,,,,,,,,,,,,,,,,,,,,,,,,,,,,,,,,,,,0,3,3,2,1,,,,,,,,,,,,,,,,,,,,,,,,,,,,,,,,,,,,,,,,,,,,,,
180815,001,2022-11-20_20h52.20.534,Info_measure_main_exp,2022.2.2,Win32,60.09615385,,,,,,,,,,,,,,,,,,masks/mask_005.jpg,,,,,,,,,,,,,,,,,,,,,,,,,,,,,,,,,,,,,,,,,,,0,4,4,4,1,,,,,,,,,,,,,,,,,,,,,,,,,,,,,,,,,,,,,,,,,,,,,,
180815,001,2022-11-20_20h52.20.534,Info_measure_main_exp,2022.2.2,Win32,60.09615385,,,,,,,,,,,,,,,,,,masks/mask_002.jpg,,,,,,,,,,,,,,,,,,,,,,,,,,,,,,,,,,,,,,,,,,,,,,,,0,0,0,1,1,,,,,,,,,,,,,,,,,,,,,,,,,,,,,,,,,,,,,,,,,
180815,001,2022-11-20_20h52.20.534,Info_measure_main_exp,2022.2.2,Win32,60.09615385,,,,,,,,,,,,,,,,,,masks/mask_004.jpg,,,,,,,,,,,,,,,,,,,,,,,,,,,,,,,,,,,,,,,,,,,,,,,,0,1,1,3,1,,,,,,,,,,,,,,,,,,,,,,,,,,,,,,,,,,,,,,,,,
180815,001,2022-11-20_20h52.20.534,Info_measure_main_exp,2022.2.2,Win32,60.09615385,,,,,,,,,,,,,,,,,,masks/mask_005.jpg,,,,,,,,,,,,,,,,,,,,,,,,,,,,,,,,,,,,,,,,,,,,,,,,0,2,2,4,1,,,,,,,,,,,,,,,,,,,,,,,,,,,,,,,,,,,,,,,,,
180815,001,2022-11-20_20h52.20.534,Info_measure_main_exp,2022.2.2,Win32,60.09615385,,,,,,,,,,,,,,,,,,masks/mask_001.jpg,,,,,,,,,,,,,,,,,,,,,,,,,,,,,,,,,,,,,,,,,,,,,,,,0,3,3,0,1,,,,,,,,,,,,,,,,,,,,,,,,,,,,,,,,,,,,,,,,,
180815,001,2022-11-20_20h52.20.534,Info_measure_main_exp,2022.2.2,Win32,60.09615385,,,,,,,,,,,,,,,,,,masks/mask_003.jpg,,,,,,,,,,,,,,,,,,,,,,,,,,,,,,,,,,,,,,,,,,,,,,,,0,4,4,2,1,,,,,,,,,,,,,,,,,,,,,,,,,,,,,,,,,,,,,,,,,
180815,001,2022-11-20_20h52.20.534,Info_measure_main_exp,2022.2.2,Win32,60.09615385,,,,,,,,,,,,,,,,,,,,,,,,,,,,,,6,0.783,1,,,,,,,,,,,,0,131,5,5,2142,2190,absent_patch/patch0002142.jpg,absent_patch/patch0002190.jpg,,,,,,,,,,,,,,,,,,,,0.099537037,0.059027778,1,0,0,response1disk,12,-0.009259259,-0.006944444,1,0,0,center_square,0,11,11,70,1,,,,,,,,,,,,,,,,,,,,,,,
180815,001,2022-11-20_20h52.20.534,Info_measure_main_exp,2022.2.2,Win32,60.09615385,,,,,,,,,,,,,,,,,,masks/mask_005.jpg,,,,,,,,,,,,,,,,,,,,,,,,,,,,,,,,,,,,,,,,,,,0,0,0,4,1,,,,,,,,,,,,,,,,,,,,,,,,,,,,,,,,,,,,,,,,,,,,,,
180815,001,2022-11-20_20h52.20.534,Info_measure_main_exp,2022.2.2,Win32,60.09615385,,,,,,,,,,,,,,,,,,masks/mask_004.jpg,,,,,,,,,,,,,,,,,,,,,,,,,,,,,,,,,,,,,,,,,,,0,1,1,3,1,,,,,,,,,,,,,,,,,,,,,,,,,,,,,,,,,,,,,,,,,,,,,,
180815,001,2022-11-20_20h52.20.534,Info_measure_main_exp,2022.2.2,Win32,60.09615385,,,,,,,,,,,,,,,,,,masks/mask_001.jpg,,,,,,,,,,,,,,,,,,,,,,,,,,,,,,,,,,,,,,,,,,,0,2,2,0,1,,,,,,,,,,,,,,,,,,,,,,,,,,,,,,,,,,,,,,,,,,,,,,
180815,001,2022-11-20_20h52.20.534,Info_measure_main_exp,2022.2.2,Win32,60.09615385,,,,,,,,,,,,,,,,,,masks/mask_003.jpg,,,,,,,,,,,,,,,,,,,,,,,,,,,,,,,,,,,,,,,,,,,0,3,3,2,1,,,,,,,,,,,,,,,,,,,,,,,,,,,,,,,,,,,,,,,,,,,,,,
180815,001,2022-11-20_20h52.20.534,Info_measure_main_exp,2022.2.2,Win32,60.09615385,,,,,,,,,,,,,,,,,,masks/mask_002.jpg,,,,,,,,,,,,,,,,,,,,,,,,,,,,,,,,,,,,,,,,,,,0,4,4,1,1,,,,,,,,,,,,,,,,,,,,,,,,,,,,,,,,,,,,,,,,,,,,,,
180815,001,2022-11-20_20h52.20.534,Info_measure_main_exp,2022.2.2,Win32,60.09615385,,,,,,,,,,,,,,,,,,masks/mask_002.jpg,,,,,,,,,,,,,,,,,,,,,,,,,,,,,,,,,,,,,,,,,,,,,,,,0,0,0,1,1,,,,,,,,,,,,,,,,,,,,,,,,,,,,,,,,,,,,,,,,,
180815,001,2022-11-20_20h52.20.534,Info_measure_main_exp,2022.2.2,Win32,60.09615385,,,,,,,,,,,,,,,,,,masks/mask_003.jpg,,,,,,,,,,,,,,,,,,,,,,,,,,,,,,,,,,,,,,,,,,,,,,,,0,1,1,2,1,,,,,,,,,,,,,,,,,,,,,,,,,,,,,,,,,,,,,,,,,
180815,001,2022-11-20_20h52.20.534,Info_measure_main_exp,2022.2.2,Win32,60.09615385,,,,,,,,,,,,,,,,,,masks/mask_005.jpg,,,,,,,,,,,,,,,,,,,,,,,,,,,,,,,,,,,,,,,,,,,,,,,,0,2,2,4,1,,,,,,,,,,,,,,,,,,,,,,,,,,,,,,,,,,,,,,,,,
180815,001,2022-11-20_20h52.20.534,Info_measure_main_exp,2022.2.2,Win32,60.09615385,,,,,,,,,,,,,,,,,,masks/mask_001.jpg,,,,,,,,,,,,,,,,,,,,,,,,,,,,,,,,,,,,,,,,,,,,,,,,0,3,3,0,1,,,,,,,,,,,,,,,,,,,,,,,,,,,,,,,,,,,,,,,,,
180815,001,2022-11-20_20h52.20.534,Info_measure_main_exp,2022.2.2,Win32,60.09615385,,,,,,,,,,,,,,,,,,masks/mask_004.jpg,,,,,,,,,,,,,,,,,,,,,,,,,,,,,,,,,,,,,,,,,,,,,,,,0,4,4,3,1,,,,,,,,,,,,,,,,,,,,,,,,,,,,,,,,,,,,,,,,,
180815,001,2022-11-20_20h52.20.534,Info_measure_main_exp,2022.2.2,Win32,60.09615385,,,,,,,,,,,,,,,,,,,,,,,,,,,,,,4,1.334,1,,,,,,,,,,,,0,131,5,5,2274,2238,absent_patch/patch0002274.jpg,absent_patch/patch0002238.jpg,,,,,,,,,,,,,,,,,,,,0.043981481,-0.133101852,1,0,0,response3disk,13,-0.001157407,0.003472222,1,0,0,center_square,0,12,12,91,1,,,,,,,,,,,,,,,,,,,,,,,
180815,001,2022-11-20_20h52.20.534,Info_measure_main_exp,2022.2.2,Win32,60.09615385,,,,,,,,,,,,,,,,,,masks/mask_003.jpg,,,,,,,,,,,,,,,,,,,,,,,,,,,,,,,,,,,,,,,,,,,0,0,0,2,1,,,,,,,,,,,,,,,,,,,,,,,,,,,,,,,,,,,,,,,,,,,,,,
180815,001,2022-11-20_20h52.20.534,Info_measure_main_exp,2022.2.2,Win32,60.09615385,,,,,,,,,,,,,,,,,,masks/mask_005.jpg,,,,,,,,,,,,,,,,,,,,,,,,,,,,,,,,,,,,,,,,,,,0,1,1,4,1,,,,,,,,,,,,,,,,,,,,,,,,,,,,,,,,,,,,,,,,,,,,,,
180815,001,2022-11-20_20h52.20.534,Info_measure_main_exp,2022.2.2,Win32,60.09615385,,,,,,,,,,,,,,,,,,masks/mask_002.jpg,,,,,,,,,,,,,,,,,,,,,,,,,,,,,,,,,,,,,,,,,,,0,2,2,1,1,,,,,,,,,,,,,,,,,,,,,,,,,,,,,,,,,,,,,,,,,,,,,,
180815,001,2022-11-20_20h52.20.534,Info_measure_main_exp,2022.2.2,Win32,60.09615385,,,,,,,,,,,,,,,,,,masks/mask_004.jpg,,,,,,,,,,,,,,,,,,,,,,,,,,,,,,,,,,,,,,,,,,,0,3,3,3,1,,,,,,,,,,,,,,,,,,,,,,,,,,,,,,,,,,,,,,,,,,,,,,
180815,001,2022-11-20_20h52.20.534,Info_measure_main_exp,2022.2.2,Win32,60.09615385,,,,,,,,,,,,,,,,,,masks/mask_001.jpg,,,,,,,,,,,,,,,,,,,,,,,,,,,,,,,,,,,,,,,,,,,0,4,4,0,1,,,,,,,,,,,,,,,,,,,,,,,,,,,,,,,,,,,,,,,,,,,,,,
180815,001,2022-11-20_20h52.20.534,Info_measure_main_exp,2022.2.2,Win32,60.09615385,,,,,,,,,,,,,,,,,,masks/mask_005.jpg,,,,,,,,,,,,,,,,,,,,,,,,,,,,,,,,,,,,,,,,,,,,,,,,0,0,0,4,1,,,,,,,,,,,,,,,,,,,,,,,,,,,,,,,,,,,,,,,,,
180815,001,2022-11-20_20h52.20.534,Info_measure_main_exp,2022.2.2,Win32,60.09615385,,,,,,,,,,,,,,,,,,masks/mask_002.jpg,,,,,,,,,,,,,,,,,,,,,,,,,,,,,,,,,,,,,,,,,,,,,,,,0,1,1,1,1,,,,,,,,,,,,,,,,,,,,,,,,,,,,,,,,,,,,,,,,,
180815,001,2022-11-20_20h52.20.534,Info_measure_main_exp,2022.2.2,Win32,60.09615385,,,,,,,,,,,,,,,,,,masks/mask_004.jpg,,,,,,,,,,,,,,,,,,,,,,,,,,,,,,,,,,,,,,,,,,,,,,,,0,2,2,3,1,,,,,,,,,,,,,,,,,,,,,,,,,,,,,,,,,,,,,,,,,
180815,001,2022-11-20_20h52.20.534,Info_measure_main_exp,2022.2.2,Win32,60.09615385,,,,,,,,,,,,,,,,,,masks/mask_001.jpg,,,,,,,,,,,,,,,,,,,,,,,,,,,,,,,,,,,,,,,,,,,,,,,,0,3,3,0,1,,,,,,,,,,,,,,,,,,,,,,,,,,,,,,,,,,,,,,,,,
180815,001,2022-11-20_20h52.20.534,Info_measure_main_exp,2022.2.2,Win32,60.09615385,,,,,,,,,,,,,,,,,,masks/mask_003.jpg,,,,,,,,,,,,,,,,,,,,,,,,,,,,,,,,,,,,,,,,,,,,,,,,0,4,4,2,1,,,,,,,,,,,,,,,,,,,,,,,,,,,,,,,,,,,,,,,,,
180815,001,2022-11-20_20h52.20.534,Info_measure_main_exp,2022.2.2,Win32,60.09615385,,,,,,,,,,,,,,,,,,,,,,,,,,,,,,6,0.784,1,,,,,,,,,,,,0,131,5,5,2190,2178,absent_patch/patch0002190.jpg,absent_patch/patch0002178.jpg,,,,,,,,,,,,,,,,,,,,0.152777778,0.070601852,1,0,0,response1disk,14,0.00462963,-0.002314815,1,0,0,center_square,0,13,13,14,1,,,,,,,,,,,,,,,,,,,,,,,
180815,001,2022-11-20_20h52.20.534,Info_measure_main_exp,2022.2.2,Win32,60.09615385,,,,,,,,,,,,,,,,,,masks/mask_005.jpg,,,,,,,,,,,,,,,,,,,,,,,,,,,,,,,,,,,,,,,,,,,0,0,0,4,1,,,,,,,,,,,,,,,,,,,,,,,,,,,,,,,,,,,,,,,,,,,,,,
180815,001,2022-11-20_20h52.20.534,Info_measure_main_exp,2022.2.2,Win32,60.09615385,,,,,,,,,,,,,,,,,,masks/mask_002.jpg,,,,,,,,,,,,,,,,,,,,,,,,,,,,,,,,,,,,,,,,,,,0,1,1,1,1,,,,,,,,,,,,,,,,,,,,,,,,,,,,,,,,,,,,,,,,,,,,,,
180815,001,2022-11-20_20h52.20.534,Info_measure_main_exp,2022.2.2,Win32,60.09615385,,,,,,,,,,,,,,,,,,masks/mask_003.jpg,,,,,,,,,,,,,,,,,,,,,,,,,,,,,,,,,,,,,,,,,,,0,2,2,2,1,,,,,,,,,,,,,,,,,,,,,,,,,,,,,,,,,,,,,,,,,,,,,,
180815,001,2022-11-20_20h52.20.534,Info_measure_main_exp,2022.2.2,Win32,60.09615385,,,,,,,,,,,,,,,,,,masks/mask_001.jpg,,,,,,,,,,,,,,,,,,,,,,,,,,,,,,,,,,,,,,,,,,,0,3,3,0,1,,,,,,,,,,,,,,,,,,,,,,,,,,,,,,,,,,,,,,,,,,,,,,
180815,001,2022-11-20_20h52.20.534,Info_measure_main_exp,2022.2.2,Win32,60.09615385,,,,,,,,,,,,,,,,,,masks/mask_004.jpg,,,,,,,,,,,,,,,,,,,,,,,,,,,,,,,,,,,,,,,,,,,0,4,4,3,1,,,,,,,,,,,,,,,,,,,,,,,,,,,,,,,,,,,,,,,,,,,,,,
180815,001,2022-11-20_20h52.20.534,Info_measure_main_exp,2022.2.2,Win32,60.09615385,,,,,,,,,,,,,,,,,,masks/mask_003.jpg,,,,,,,,,,,,,,,,,,,,,,,,,,,,,,,,,,,,,,,,,,,,,,,,0,0,0,2,1,,,,,,,,,,,,,,,,,,,,,,,,,,,,,,,,,,,,,,,,,
180815,001,2022-11-20_20h52.20.534,Info_measure_main_exp,2022.2.2,Win32,60.09615385,,,,,,,,,,,,,,,,,,masks/mask_004.jpg,,,,,,,,,,,,,,,,,,,,,,,,,,,,,,,,,,,,,,,,,,,,,,,,0,1,1,3,1,,,,,,,,,,,,,,,,,,,,,,,,,,,,,,,,,,,,,,,,,
180815,001,2022-11-20_20h52.20.534,Info_measure_main_exp,2022.2.2,Win32,60.09615385,,,,,,,,,,,,,,,,,,masks/mask_002.jpg,,,,,,,,,,,,,,,,,,,,,,,,,,,,,,,,,,,,,,,,,,,,,,,,0,2,2,1,1,,,,,,,,,,,,,,,,,,,,,,,,,,,,,,,,,,,,,,,,,
180815,001,2022-11-20_20h52.20.534,Info_measure_main_exp,2022.2.2,Win32,60.09615385,,,,,,,,,,,,,,,,,,masks/mask_001.jpg,,,,,,,,,,,,,,,,,,,,,,,,,,,,,,,,,,,,,,,,,,,,,,,,0,3,3,0,1,,,,,,,,,,,,,,,,,,,,,,,,,,,,,,,,,,,,,,,,,
180815,001,2022-11-20_20h52.20.534,Info_measure_main_exp,2022.2.2,Win32,60.09615385,,,,,,,,,,,,,,,,,,masks/mask_005.jpg,,,,,,,,,,,,,,,,,,,,,,,,,,,,,,,,,,,,,,,,,,,,,,,,0,4,4,4,1,,,,,,,,,,,,,,,,,,,,,,,,,,,,,,,,,,,,,,,,,
180815,001,2022-11-20_20h52.20.534,Info_measure_main_exp,2022.2.2,Win32,60.09615385,,,,,,,,,,,,,,,,,,,,,,,,,,,,,,6,0.933,1,,,,,,,,,,,,0,131,5,5,2238,2214,absent_patch/patch0002238.jpg,absent_patch/patch0002214.jpg,,,,,,,,,,,,,,,,,,,,0.085648148,0.048611111,1,0,0,response1disk,15,-0.011574074,-0.008101852,1,0,0,center_square,0,14,14,81,1,,,,,,,,,,,,,,,,,,,,,,,
180815,001,2022-11-20_20h52.20.534,Info_measure_main_exp,2022.2.2,Win32,60.09615385,,,,,,,,,,,,,,,,,,masks/mask_003.jpg,,,,,,,,,,,,,,,,,,,,,,,,,,,,,,,,,,,,,,,,,,,0,0,0,2,1,,,,,,,,,,,,,,,,,,,,,,,,,,,,,,,,,,,,,,,,,,,,,,
180815,001,2022-11-20_20h52.20.534,Info_measure_main_exp,2022.2.2,Win32,60.09615385,,,,,,,,,,,,,,,,,,masks/mask_002.jpg,,,,,,,,,,,,,,,,,,,,,,,,,,,,,,,,,,,,,,,,,,,0,1,1,1,1,,,,,,,,,,,,,,,,,,,,,,,,,,,,,,,,,,,,,,,,,,,,,,
180815,001,2022-11-20_20h52.20.534,Info_measure_main_exp,2022.2.2,Win32,60.09615385,,,,,,,,,,,,,,,,,,masks/mask_001.jpg,,,,,,,,,,,,,,,,,,,,,,,,,,,,,,,,,,,,,,,,,,,0,2,2,0,1,,,,,,,,,,,,,,,,,,,,,,,,,,,,,,,,,,,,,,,,,,,,,,
180815,001,2022-11-20_20h52.20.534,Info_measure_main_exp,2022.2.2,Win32,60.09615385,,,,,,,,,,,,,,,,,,masks/mask_004.jpg,,,,,,,,,,,,,,,,,,,,,,,,,,,,,,,,,,,,,,,,,,,0,3,3,3,1,,,,,,,,,,,,,,,,,,,,,,,,,,,,,,,,,,,,,,,,,,,,,,
180815,001,2022-11-20_20h52.20.534,Info_measure_main_exp,2022.2.2,Win32,60.09615385,,,,,,,,,,,,,,,,,,masks/mask_005.jpg,,,,,,,,,,,,,,,,,,,,,,,,,,,,,,,,,,,,,,,,,,,0,4,4,4,1,,,,,,,,,,,,,,,,,,,,,,,,,,,,,,,,,,,,,,,,,,,,,,
180815,001,2022-11-20_20h52.20.534,Info_measure_main_exp,2022.2.2,Win32,60.09615385,,,,,,,,,,,,,,,,,,masks/mask_003.jpg,,,,,,,,,,,,,,,,,,,,,,,,,,,,,,,,,,,,,,,,,,,,,,,,0,0,0,2,1,,,,,,,,,,,,,,,,,,,,,,,,,,,,,,,,,,,,,,,,,
180815,001,2022-11-20_20h52.20.534,Info_measure_main_exp,2022.2.2,Win32,60.09615385,,,,,,,,,,,,,,,,,,masks/mask_002.jpg,,,,,,,,,,,,,,,,,,,,,,,,,,,,,,,,,,,,,,,,,,,,,,,,0,1,1,1,1,,,,,,,,,,,,,,,,,,,,,,,,,,,,,,,,,,,,,,,,,
180815,001,2022-11-20_20h52.20.534,Info_measure_main_exp,2022.2.2,Win32,60.09615385,,,,,,,,,,,,,,,,,,masks/mask_005.jpg,,,,,,,,,,,,,,,,,,,,,,,,,,,,,,,,,,,,,,,,,,,,,,,,0,2,2,4,1,,,,,,,,,,,,,,,,,,,,,,,,,,,,,,,,,,,,,,,,,
180815,001,2022-11-20_20h52.20.534,Info_measure_main_exp,2022.2.2,Win32,60.09615385,,,,,,,,,,,,,,,,,,masks/mask_001.jpg,,,,,,,,,,,,,,,,,,,,,,,,,,,,,,,,,,,,,,,,,,,,,,,,0,3,3,0,1,,,,,,,,,,,,,,,,,,,,,,,,,,,,,,,,,,,,,,,,,
180815,001,2022-11-20_20h52.20.534,Info_measure_main_exp,2022.2.2,Win32,60.09615385,,,,,,,,,,,,,,,,,,masks/mask_004.jpg,,,,,,,,,,,,,,,,,,,,,,,,,,,,,,,,,,,,,,,,,,,,,,,,0,4,4,3,1,,,,,,,,,,,,,,,,,,,,,,,,,,,,,,,,,,,,,,,,,
180815,001,2022-11-20_20h52.20.534,Info_measure_main_exp,2022.2.2,Win32,60.09615385,,,,,,,,,,,,,,,,,,,,,,,,,,,,,,6,22.113,1,,,,,,,,,,,,0,131,5,5,1974,2214,absent_patch/patch0001974.jpg,absent_patch/patch0002214.jpg,,,,,,,,,,,,,,,,,,,,0.113425926,0.047453704,1,0,0,response1disk,16,0.003472222,0,1,0,0,center_square,0,15,15,24,1,,,,,,,,,,,,,,,,,,,,,,,
180815,001,2022-11-20_20h52.20.534,Info_measure_main_exp,2022.2.2,Win32,60.09615385,,,,,,,,,,,,,,,,,,masks/mask_003.jpg,,,,,,,,,,,,,,,,,,,,,,,,,,,,,,,,,,,,,,,,,,,0,0,0,2,1,,,,,,,,,,,,,,,,,,,,,,,,,,,,,,,,,,,,,,,,,,,,,,
180815,001,2022-11-20_20h52.20.534,Info_measure_main_exp,2022.2.2,Win32,60.09615385,,,,,,,,,,,,,,,,,,masks/mask_001.jpg,,,,,,,,,,,,,,,,,,,,,,,,,,,,,,,,,,,,,,,,,,,0,1,1,0,1,,,,,,,,,,,,,,,,,,,,,,,,,,,,,,,,,,,,,,,,,,,,,,
180815,001,2022-11-20_20h52.20.534,Info_measure_main_exp,2022.2.2,Win32,60.09615385,,,,,,,,,,,,,,,,,,masks/mask_004.jpg,,,,,,,,,,,,,,,,,,,,,,,,,,,,,,,,,,,,,,,,,,,0,2,2,3,1,,,,,,,,,,,,,,,,,,,,,,,,,,,,,,,,,,,,,,,,,,,,,,
180815,001,2022-11-20_20h52.20.534,Info_measure_main_exp,2022.2.2,Win32,60.09615385,,,,,,,,,,,,,,,,,,masks/mask_005.jpg,,,,,,,,,,,,,,,,,,,,,,,,,,,,,,,,,,,,,,,,,,,0,3,3,4,1,,,,,,,,,,,,,,,,,,,,,,,,,,,,,,,,,,,,,,,,,,,,,,
180815,001,2022-11-20_20h52.20.534,Info_measure_main_exp,2022.2.2,Win32,60.09615385,,,,,,,,,,,,,,,,,,masks/mask_002.jpg,,,,,,,,,,,,,,,,,,,,,,,,,,,,,,,,,,,,,,,,,,,0,4,4,1,1,,,,,,,,,,,,,,,,,,,,,,,,,,,,,,,,,,,,,,,,,,,,,,
180815,001,2022-11-20_20h52.20.534,Info_measure_main_exp,2022.2.2,Win32,60.09615385,,,,,,,,,,,,,,,,,,masks/mask_004.jpg,,,,,,,,,,,,,,,,,,,,,,,,,,,,,,,,,,,,,,,,,,,,,,,,0,0,0,3,1,,,,,,,,,,,,,,,,,,,,,,,,,,,,,,,,,,,,,,,,,
180815,001,2022-11-20_20h52.20.534,Info_measure_main_exp,2022.2.2,Win32,60.09615385,,,,,,,,,,,,,,,,,,masks/mask_003.jpg,,,,,,,,,,,,,,,,,,,,,,,,,,,,,,,,,,,,,,,,,,,,,,,,0,1,1,2,1,,,,,,,,,,,,,,,,,,,,,,,,,,,,,,,,,,,,,,,,,
180815,001,2022-11-20_20h52.20.534,Info_measure_main_exp,2022.2.2,Win32,60.09615385,,,,,,,,,,,,,,,,,,masks/mask_002.jpg,,,,,,,,,,,,,,,,,,,,,,,,,,,,,,,,,,,,,,,,,,,,,,,,0,2,2,1,1,,,,,,,,,,,,,,,,,,,,,,,,,,,,,,,,,,,,,,,,,
180815,001,2022-11-20_20h52.20.534,Info_measure_main_exp,2022.2.2,Win32,60.09615385,,,,,,,,,,,,,,,,,,masks/mask_005.jpg,,,,,,,,,,,,,,,,,,,,,,,,,,,,,,,,,,,,,,,,,,,,,,,,0,3,3,4,1,,,,,,,,,,,,,,,,,,,,,,,,,,,,,,,,,,,,,,,,,
180815,001,2022-11-20_20h52.20.534,Info_measure_main_exp,2022.2.2,Win32,60.09615385,,,,,,,,,,,,,,,,,,masks/mask_001.jpg,,,,,,,,,,,,,,,,,,,,,,,,,,,,,,,,,,,,,,,,,,,,,,,,0,4,4,0,1,,,,,,,,,,,,,,,,,,,,,,,,,,,,,,,,,,,,,,,,,
180815,001,2022-11-20_20h52.20.534,Info_measure_main_exp,2022.2.2,Win32,60.09615385,,,,,,,,,,,,,,,,,,,,,,,,,,,,,,7,0.75,1,,,,,,,,,,,,0,131,5,5,1950,2214,absent_patch/patch0001950.jpg,absent_patch/patch0002214.jpg,,,,,,,,,,,,,,,,,,,,0.05787037,0.136574074,1,0,0,response1disk,17,0.001157407,0.005787037,1,0,0,center_square,0,16,16,85,1,,,,,,,,,,,,,,,,,,,,,,,
180815,001,2022-11-20_20h52.20.534,Info_measure_main_exp,2022.2.2,Win32,60.09615385,,,,,,,,,,,,,,,,,,masks/mask_001.jpg,,,,,,,,,,,,,,,,,,,,,,,,,,,,,,,,,,,,,,,,,,,0,0,0,0,1,,,,,,,,,,,,,,,,,,,,,,,,,,,,,,,,,,,,,,,,,,,,,,
180815,001,2022-11-20_20h52.20.534,Info_measure_main_exp,2022.2.2,Win32,60.09615385,,,,,,,,,,,,,,,,,,masks/mask_004.jpg,,,,,,,,,,,,,,,,,,,,,,,,,,,,,,,,,,,,,,,,,,,0,1,1,3,1,,,,,,,,,,,,,,,,,,,,,,,,,,,,,,,,,,,,,,,,,,,,,,
180815,001,2022-11-20_20h52.20.534,Info_measure_main_exp,2022.2.2,Win32,60.09615385,,,,,,,,,,,,,,,,,,masks/mask_005.jpg,,,,,,,,,,,,,,,,,,,,,,,,,,,,,,,,,,,,,,,,,,,0,2,2,4,1,,,,,,,,,,,,,,,,,,,,,,,,,,,,,,,,,,,,,,,,,,,,,,
180815,001,2022-11-20_20h52.20.534,Info_measure_main_exp,2022.2.2,Win32,60.09615385,,,,,,,,,,,,,,,,,,masks/mask_003.jpg,,,,,,,,,,,,,,,,,,,,,,,,,,,,,,,,,,,,,,,,,,,0,3,3,2,1,,,,,,,,,,,,,,,,,,,,,,,,,,,,,,,,,,,,,,,,,,,,,,
180815,001,2022-11-20_20h52.20.534,Info_measure_main_exp,2022.2.2,Win32,60.09615385,,,,,,,,,,,,,,,,,,masks/mask_002.jpg,,,,,,,,,,,,,,,,,,,,,,,,,,,,,,,,,,,,,,,,,,,0,4,4,1,1,,,,,,,,,,,,,,,,,,,,,,,,,,,,,,,,,,,,,,,,,,,,,,
180815,001,2022-11-20_20h52.20.534,Info_measure_main_exp,2022.2.2,Win32,60.09615385,,,,,,,,,,,,,,,,,,masks/mask_002.jpg,,,,,,,,,,,,,,,,,,,,,,,,,,,,,,,,,,,,,,,,,,,,,,,,0,0,0,1,1,,,,,,,,,,,,,,,,,,,,,,,,,,,,,,,,,,,,,,,,,
180815,001,2022-11-20_20h52.20.534,Info_measure_main_exp,2022.2.2,Win32,60.09615385,,,,,,,,,,,,,,,,,,masks/mask_001.jpg,,,,,,,,,,,,,,,,,,,,,,,,,,,,,,,,,,,,,,,,,,,,,,,,0,1,1,0,1,,,,,,,,,,,,,,,,,,,,,,,,,,,,,,,,,,,,,,,,,
180815,001,2022-11-20_20h52.20.534,Info_measure_main_exp,2022.2.2,Win32,60.09615385,,,,,,,,,,,,,,,,,,masks/mask_005.jpg,,,,,,,,,,,,,,,,,,,,,,,,,,,,,,,,,,,,,,,,,,,,,,,,0,2,2,4,1,,,,,,,,,,,,,,,,,,,,,,,,,,,,,,,,,,,,,,,,,
180815,001,2022-11-20_20h52.20.534,Info_measure_main_exp,2022.2.2,Win32,60.09615385,,,,,,,,,,,,,,,,,,masks/mask_003.jpg,,,,,,,,,,,,,,,,,,,,,,,,,,,,,,,,,,,,,,,,,,,,,,,,0,3,3,2,1,,,,,,,,,,,,,,,,,,,,,,,,,,,,,,,,,,,,,,,,,
180815,001,2022-11-20_20h52.20.534,Info_measure_main_exp,2022.2.2,Win32,60.09615385,,,,,,,,,,,,,,,,,,masks/mask_004.jpg,,,,,,,,,,,,,,,,,,,,,,,,,,,,,,,,,,,,,,,,,,,,,,,,0,4,4,3,1,,,,,,,,,,,,,,,,,,,,,,,,,,,,,,,,,,,,,,,,,
180815,001,2022-11-20_20h52.20.534,Info_measure_main_exp,2022.2.2,Win32,60.09615385,,,,,,,,,,,,,,,,,,,,,,,,,,,,,,3,2.416,1,,,,,,,,,,,,1,131,5,5,1,2154,present_patch/cong_131_5_a.jpg,absent_patch/patch0002154.jpg,,,,,,,,,,,,,,,,,,,,-0.034722222,-0.133101852,1,0,0,response5disk,18,-0.006944444,0.002314815,1,0,0,center_square,0,17,17,87,1,,,,,,,,,,,,,,,,,,,,,,,
180815,001,2022-11-20_20h52.20.534,Info_measure_main_exp,2022.2.2,Win32,60.09615385,,,,,,,,,,,,,,,,,,masks/mask_003.jpg,,,,,,,,,,,,,,,,,,,,,,,,,,,,,,,,,,,,,,,,,,,0,0,0,2,1,,,,,,,,,,,,,,,,,,,,,,,,,,,,,,,,,,,,,,,,,,,,,,
180815,001,2022-11-20_20h52.20.534,Info_measure_main_exp,2022.2.2,Win32,60.09615385,,,,,,,,,,,,,,,,,,masks/mask_001.jpg,,,,,,,,,,,,,,,,,,,,,,,,,,,,,,,,,,,,,,,,,,,0,1,1,0,1,,,,,,,,,,,,,,,,,,,,,,,,,,,,,,,,,,,,,,,,,,,,,,
180815,001,2022-11-20_20h52.20.534,Info_measure_main_exp,2022.2.2,Win32,60.09615385,,,,,,,,,,,,,,,,,,masks/mask_004.jpg,,,,,,,,,,,,,,,,,,,,,,,,,,,,,,,,,,,,,,,,,,,0,2,2,3,1,,,,,,,,,,,,,,,,,,,,,,,,,,,,,,,,,,,,,,,,,,,,,,
180815,001,2022-11-20_20h52.20.534,Info_measure_main_exp,2022.2.2,Win32,60.09615385,,,,,,,,,,,,,,,,,,masks/mask_002.jpg,,,,,,,,,,,,,,,,,,,,,,,,,,,,,,,,,,,,,,,,,,,0,3,3,1,1,,,,,,,,,,,,,,,,,,,,,,,,,,,,,,,,,,,,,,,,,,,,,,
180815,001,2022-11-20_20h52.20.534,Info_measure_main_exp,2022.2.2,Win32,60.09615385,,,,,,,,,,,,,,,,,,masks/mask_005.jpg,,,,,,,,,,,,,,,,,,,,,,,,,,,,,,,,,,,,,,,,,,,0,4,4,4,1,,,,,,,,,,,,,,,,,,,,,,,,,,,,,,,,,,,,,,,,,,,,,,
180815,001,2022-11-20_20h52.20.534,Info_measure_main_exp,2022.2.2,Win32,60.09615385,,,,,,,,,,,,,,,,,,masks/mask_001.jpg,,,,,,,,,,,,,,,,,,,,,,,,,,,,,,,,,,,,,,,,,,,,,,,,0,0,0,0,1,,,,,,,,,,,,,,,,,,,,,,,,,,,,,,,,,,,,,,,,,
180815,001,2022-11-20_20h52.20.534,Info_measure_main_exp,2022.2.2,Win32,60.09615385,,,,,,,,,,,,,,,,,,masks/mask_002.jpg,,,,,,,,,,,,,,,,,,,,,,,,,,,,,,,,,,,,,,,,,,,,,,,,0,1,1,1,1,,,,,,,,,,,,,,,,,,,,,,,,,,,,,,,,,,,,,,,,,
180815,001,2022-11-20_20h52.20.534,Info_measure_main_exp,2022.2.2,Win32,60.09615385,,,,,,,,,,,,,,,,,,masks/mask_003.jpg,,,,,,,,,,,,,,,,,,,,,,,,,,,,,,,,,,,,,,,,,,,,,,,,0,2,2,2,1,,,,,,,,,,,,,,,,,,,,,,,,,,,,,,,,,,,,,,,,,
180815,001,2022-11-20_20h52.20.534,Info_measure_main_exp,2022.2.2,Win32,60.09615385,,,,,,,,,,,,,,,,,,masks/mask_005.jpg,,,,,,,,,,,,,,,,,,,,,,,,,,,,,,,,,,,,,,,,,,,,,,,,0,3,3,4,1,,,,,,,,,,,,,,,,,,,,,,,,,,,,,,,,,,,,,,,,,
180815,001,2022-11-20_20h52.20.534,Info_measure_main_exp,2022.2.2,Win32,60.09615385,,,,,,,,,,,,,,,,,,masks/mask_004.jpg,,,,,,,,,,,,,,,,,,,,,,,,,,,,,,,,,,,,,,,,,,,,,,,,0,4,4,3,1,,,,,,,,,,,,,,,,,,,,,,,,,,,,,,,,,,,,,,,,,
180815,001,2022-11-20_20h52.20.534,Info_measure_main_exp,2022.2.2,Win32,60.09615385,,,,,,,,,,,,,,,,,,,,,,,,,,,,,,3,0.567,1,,,,,,,,,,,,0,131,5,5,2154,2238,absent_patch/patch0002154.jpg,absent_patch/patch0002238.jpg,,,,,,,,,,,,,,,,,,,,-0.019675926,-0.114583333,1,0,0,response5disk,19,0.002314815,0.00462963,1,0,0,center_square,0,18,18,21,1,,,,,,,,,,,,,,,,,,,,,,,
180815,001,2022-11-20_20h52.20.534,Info_measure_main_exp,2022.2.2,Win32,60.09615385,,,,,,,,,,,,,,,,,,masks/mask_002.jpg,,,,,,,,,,,,,,,,,,,,,,,,,,,,,,,,,,,,,,,,,,,0,0,0,1,1,,,,,,,,,,,,,,,,,,,,,,,,,,,,,,,,,,,,,,,,,,,,,,
180815,001,2022-11-20_20h52.20.534,Info_measure_main_exp,2022.2.2,Win32,60.09615385,,,,,,,,,,,,,,,,,,masks/mask_004.jpg,,,,,,,,,,,,,,,,,,,,,,,,,,,,,,,,,,,,,,,,,,,0,1,1,3,1,,,,,,,,,,,,,,,,,,,,,,,,,,,,,,,,,,,,,,,,,,,,,,
180815,001,2022-11-20_20h52.20.534,Info_measure_main_exp,2022.2.2,Win32,60.09615385,,,,,,,,,,,,,,,,,,masks/mask_001.jpg,,,,,,,,,,,,,,,,,,,,,,,,,,,,,,,,,,,,,,,,,,,0,2,2,0,1,,,,,,,,,,,,,,,,,,,,,,,,,,,,,,,,,,,,,,,,,,,,,,
180815,001,2022-11-20_20h52.20.534,Info_measure_main_exp,2022.2.2,Win32,60.09615385,,,,,,,,,,,,,,,,,,masks/mask_005.jpg,,,,,,,,,,,,,,,,,,,,,,,,,,,,,,,,,,,,,,,,,,,0,3,3,4,1,,,,,,,,,,,,,,,,,,,,,,,,,,,,,,,,,,,,,,,,,,,,,,
180815,001,2022-11-20_20h52.20.534,Info_measure_main_exp,2022.2.2,Win32,60.09615385,,,,,,,,,,,,,,,,,,masks/mask_003.jpg,,,,,,,,,,,,,,,,,,,,,,,,,,,,,,,,,,,,,,,,,,,0,4,4,2,1,,,,,,,,,,,,,,,,,,,,,,,,,,,,,,,,,,,,,,,,,,,,,,
180815,001,2022-11-20_20h52.20.534,Info_measure_main_exp,2022.2.2,Win32,60.09615385,,,,,,,,,,,,,,,,,,masks/mask_003.jpg,,,,,,,,,,,,,,,,,,,,,,,,,,,,,,,,,,,,,,,,,,,,,,,,0,0,0,2,1,,,,,,,,,,,,,,,,,,,,,,,,,,,,,,,,,,,,,,,,,
180815,001,2022-11-20_20h52.20.534,Info_measure_main_exp,2022.2.2,Win32,60.09615385,,,,,,,,,,,,,,,,,,masks/mask_005.jpg,,,,,,,,,,,,,,,,,,,,,,,,,,,,,,,,,,,,,,,,,,,,,,,,0,1,1,4,1,,,,,,,,,,,,,,,,,,,,,,,,,,,,,,,,,,,,,,,,,
180815,001,2022-11-20_20h52.20.534,Info_measure_main_exp,2022.2.2,Win32,60.09615385,,,,,,,,,,,,,,,,,,masks/mask_002.jpg,,,,,,,,,,,,,,,,,,,,,,,,,,,,,,,,,,,,,,,,,,,,,,,,0,2,2,1,1,,,,,,,,,,,,,,,,,,,,,,,,,,,,,,,,,,,,,,,,,
180815,001,2022-11-20_20h52.20.534,Info_measure_main_exp,2022.2.2,Win32,60.09615385,,,,,,,,,,,,,,,,,,masks/mask_004.jpg,,,,,,,,,,,,,,,,,,,,,,,,,,,,,,,,,,,,,,,,,,,,,,,,0,3,3,3,1,,,,,,,,,,,,,,,,,,,,,,,,,,,,,,,,,,,,,,,,,
180815,001,2022-11-20_20h52.20.534,Info_measure_main_exp,2022.2.2,Win32,60.09615385,,,,,,,,,,,,,,,,,,masks/mask_001.jpg,,,,,,,,,,,,,,,,,,,,,,,,,,,,,,,,,,,,,,,,,,,,,,,,0,4,4,0,1,,,,,,,,,,,,,,,,,,,,,,,,,,,,,,,,,,,,,,,,,
180815,001,2022-11-20_20h52.20.534,Info_measure_main_exp,2022.2.2,Win32,60.09615385,,,,,,,,,,,,,,,,,,,,,,,,,,,,,,0,0.583,1,,,,,,,,,,,,0,131,5,5,2274,2274,absent_patch/patch0002274.jpg,absent_patch/patch0002274.jpg,,,,,,,,,,,,,,,,,,,,-0.054398148,0.141203704,1,0,0,response7disk,20,0,0.006944444,1,0,0,center_square,0,19,19,114,1,,,,,,,,,,,,,,,,,,,,,,,
180815,001,2022-11-20_20h52.20.534,Info_measure_main_exp,2022.2.2,Win32,60.09615385,,,,,,,,,,,,,,,,,,masks/mask_002.jpg,,,,,,,,,,,,,,,,,,,,,,,,,,,,,,,,,,,,,,,,,,,0,0,0,1,1,,,,,,,,,,,,,,,,,,,,,,,,,,,,,,,,,,,,,,,,,,,,,,
180815,001,2022-11-20_20h52.20.534,Info_measure_main_exp,2022.2.2,Win32,60.09615385,,,,,,,,,,,,,,,,,,masks/mask_004.jpg,,,,,,,,,,,,,,,,,,,,,,,,,,,,,,,,,,,,,,,,,,,0,1,1,3,1,,,,,,,,,,,,,,,,,,,,,,,,,,,,,,,,,,,,,,,,,,,,,,
180815,001,2022-11-20_20h52.20.534,Info_measure_main_exp,2022.2.2,Win32,60.09615385,,,,,,,,,,,,,,,,,,masks/mask_003.jpg,,,,,,,,,,,,,,,,,,,,,,,,,,,,,,,,,,,,,,,,,,,0,2,2,2,1,,,,,,,,,,,,,,,,,,,,,,,,,,,,,,,,,,,,,,,,,,,,,,
180815,001,2022-11-20_20h52.20.534,Info_measure_main_exp,2022.2.2,Win32,60.09615385,,,,,,,,,,,,,,,,,,masks/mask_001.jpg,,,,,,,,,,,,,,,,,,,,,,,,,,,,,,,,,,,,,,,,,,,0,3,3,0,1,,,,,,,,,,,,,,,,,,,,,,,,,,,,,,,,,,,,,,,,,,,,,,
180815,001,2022-11-20_20h52.20.534,Info_measure_main_exp,2022.2.2,Win32,60.09615385,,,,,,,,,,,,,,,,,,masks/mask_005.jpg,,,,,,,,,,,,,,,,,,,,,,,,,,,,,,,,,,,,,,,,,,,0,4,4,4,1,,,,,,,,,,,,,,,,,,,,,,,,,,,,,,,,,,,,,,,,,,,,,,
180815,001,2022-11-20_20h52.20.534,Info_measure_main_exp,2022.2.2,Win32,60.09615385,,,,,,,,,,,,,,,,,,masks/mask_004.jpg,,,,,,,,,,,,,,,,,,,,,,,,,,,,,,,,,,,,,,,,,,,,,,,,0,0,0,3,1,,,,,,,,,,,,,,,,,,,,,,,,,,,,,,,,,,,,,,,,,
180815,001,2022-11-20_20h52.20.534,Info_measure_main_exp,2022.2.2,Win32,60.09615385,,,,,,,,,,,,,,,,,,masks/mask_001.jpg,,,,,,,,,,,,,,,,,,,,,,,,,,,,,,,,,,,,,,,,,,,,,,,,0,1,1,0,1,,,,,,,,,,,,,,,,,,,,,,,,,,,,,,,,,,,,,,,,,
180815,001,2022-11-20_20h52.20.534,Info_measure_main_exp,2022.2.2,Win32,60.09615385,,,,,,,,,,,,,,,,,,masks/mask_005.jpg,,,,,,,,,,,,,,,,,,,,,,,,,,,,,,,,,,,,,,,,,,,,,,,,0,2,2,4,1,,,,,,,,,,,,,,,,,,,,,,,,,,,,,,,,,,,,,,,,,
180815,001,2022-11-20_20h52.20.534,Info_measure_main_exp,2022.2.2,Win32,60.09615385,,,,,,,,,,,,,,,,,,masks/mask_003.jpg,,,,,,,,,,,,,,,,,,,,,,,,,,,,,,,,,,,,,,,,,,,,,,,,0,3,3,2,1,,,,,,,,,,,,,,,,,,,,,,,,,,,,,,,,,,,,,,,,,
180815,001,2022-11-20_20h52.20.534,Info_measure_main_exp,2022.2.2,Win32,60.09615385,,,,,,,,,,,,,,,,,,masks/mask_002.jpg,,,,,,,,,,,,,,,,,,,,,,,,,,,,,,,,,,,,,,,,,,,,,,,,0,4,4,1,1,,,,,,,,,,,,,,,,,,,,,,,,,,,,,,,,,,,,,,,,,
180815,001,2022-11-20_20h52.20.534,Info_measure_main_exp,2022.2.2,Win32,60.09615385,,,,,,,,,,,,,,,,,,,,,,,,,,,,,,6,0.716,1,,,,,,,,,,,,0,131,5,5,2250,2238,absent_patch/patch0002250.jpg,absent_patch/patch0002238.jpg,,,,,,,,,,,,,,,,,,,,0.122685185,0.020833333,1,0,0,response1disk,21,-0.002314815,-0.006944444,1,0,0,center_square,0,20,20,110,1,,,,,,,,,,,,,,,,,,,,,,,
180815,001,2022-11-20_20h52.20.534,Info_measure_main_exp,2022.2.2,Win32,60.09615385,,,,,,,,,,,,,,,,,,masks/mask_002.jpg,,,,,,,,,,,,,,,,,,,,,,,,,,,,,,,,,,,,,,,,,,,0,0,0,1,1,,,,,,,,,,,,,,,,,,,,,,,,,,,,,,,,,,,,,,,,,,,,,,
180815,001,2022-11-20_20h52.20.534,Info_measure_main_exp,2022.2.2,Win32,60.09615385,,,,,,,,,,,,,,,,,,masks/mask_003.jpg,,,,,,,,,,,,,,,,,,,,,,,,,,,,,,,,,,,,,,,,,,,0,1,1,2,1,,,,,,,,,,,,,,,,,,,,,,,,,,,,,,,,,,,,,,,,,,,,,,
180815,001,2022-11-20_20h52.20.534,Info_measure_main_exp,2022.2.2,Win32,60.09615385,,,,,,,,,,,,,,,,,,masks/mask_001.jpg,,,,,,,,,,,,,,,,,,,,,,,,,,,,,,,,,,,,,,,,,,,0,2,2,0,1,,,,,,,,,,,,,,,,,,,,,,,,,,,,,,,,,,,,,,,,,,,,,,
180815,001,2022-11-20_20h52.20.534,Info_measure_main_exp,2022.2.2,Win32,60.09615385,,,,,,,,,,,,,,,,,,masks/mask_005.jpg,,,,,,,,,,,,,,,,,,,,,,,,,,,,,,,,,,,,,,,,,,,0,3,3,4,1,,,,,,,,,,,,,,,,,,,,,,,,,,,,,,,,,,,,,,,,,,,,,,
180815,001,2022-11-20_20h52.20.534,Info_measure_main_exp,2022.2.2,Win32,60.09615385,,,,,,,,,,,,,,,,,,masks/mask_004.jpg,,,,,,,,,,,,,,,,,,,,,,,,,,,,,,,,,,,,,,,,,,,0,4,4,3,1,,,,,,,,,,,,,,,,,,,,,,,,,,,,,,,,,,,,,,,,,,,,,,
180815,001,2022-11-20_20h52.20.534,Info_measure_main_exp,2022.2.2,Win32,60.09615385,,,,,,,,,,,,,,,,,,masks/mask_005.jpg,,,,,,,,,,,,,,,,,,,,,,,,,,,,,,,,,,,,,,,,,,,,,,,,0,0,0,4,1,,,,,,,,,,,,,,,,,,,,,,,,,,,,,,,,,,,,,,,,,
180815,001,2022-11-20_20h52.20.534,Info_measure_main_exp,2022.2.2,Win32,60.09615385,,,,,,,,,,,,,,,,,,masks/mask_002.jpg,,,,,,,,,,,,,,,,,,,,,,,,,,,,,,,,,,,,,,,,,,,,,,,,0,1,1,1,1,,,,,,,,,,,,,,,,,,,,,,,,,,,,,,,,,,,,,,,,,
180815,001,2022-11-20_20h52.20.534,Info_measure_main_exp,2022.2.2,Win32,60.09615385,,,,,,,,,,,,,,,,,,masks/mask_001.jpg,,,,,,,,,,,,,,,,,,,,,,,,,,,,,,,,,,,,,,,,,,,,,,,,0,2,2,0,1,,,,,,,,,,,,,,,,,,,,,,,,,,,,,,,,,,,,,,,,,
180815,001,2022-11-20_20h52.20.534,Info_measure_main_exp,2022.2.2,Win32,60.09615385,,,,,,,,,,,,,,,,,,masks/mask_003.jpg,,,,,,,,,,,,,,,,,,,,,,,,,,,,,,,,,,,,,,,,,,,,,,,,0,3,3,2,1,,,,,,,,,,,,,,,,,,,,,,,,,,,,,,,,,,,,,,,,,
180815,001,2022-11-20_20h52.20.534,Info_measure_main_exp,2022.2.2,Win32,60.09615385,,,,,,,,,,,,,,,,,,masks/mask_004.jpg,,,,,,,,,,,,,,,,,,,,,,,,,,,,,,,,,,,,,,,,,,,,,,,,0,4,4,3,1,,,,,,,,,,,,,,,,,,,,,,,,,,,,,,,,,,,,,,,,,
180815,001,2022-11-20_20h52.20.534,Info_measure_main_exp,2022.2.2,Win32,60.09615385,,,,,,,,,,,,,,,,,,,,,,,,,,,,,,6,0.716,1,,,,,,,,,,,,0,131,5,5,1974,2298,absent_patch/patch0001974.jpg,absent_patch/patch0002298.jpg,,,,,,,,,,,,,,,,,,,,0.15162037,0.017361111,1,0,0,response1disk,22,0.008101852,0.010416667,1,0,0,center_square,0,21,21,6,1,,,,,,,,,,,,,,,,,,,,,,,
180815,001,2022-11-20_20h52.20.534,Info_measure_main_exp,2022.2.2,Win32,60.09615385,,,,,,,,,,,,,,,,,,masks/mask_001.jpg,,,,,,,,,,,,,,,,,,,,,,,,,,,,,,,,,,,,,,,,,,,0,0,0,0,1,,,,,,,,,,,,,,,,,,,,,,,,,,,,,,,,,,,,,,,,,,,,,,
180815,001,2022-11-20_20h52.20.534,Info_measure_main_exp,2022.2.2,Win32,60.09615385,,,,,,,,,,,,,,,,,,masks/mask_004.jpg,,,,,,,,,,,,,,,,,,,,,,,,,,,,,,,,,,,,,,,,,,,0,1,1,3,1,,,,,,,,,,,,,,,,,,,,,,,,,,,,,,,,,,,,,,,,,,,,,,
180815,001,2022-11-20_20h52.20.534,Info_measure_main_exp,2022.2.2,Win32,60.09615385,,,,,,,,,,,,,,,,,,masks/mask_002.jpg,,,,,,,,,,,,,,,,,,,,,,,,,,,,,,,,,,,,,,,,,,,0,2,2,1,1,,,,,,,,,,,,,,,,,,,,,,,,,,,,,,,,,,,,,,,,,,,,,,
180815,001,2022-11-20_20h52.20.534,Info_measure_main_exp,2022.2.2,Win32,60.09615385,,,,,,,,,,,,,,,,,,masks/mask_003.jpg,,,,,,,,,,,,,,,,,,,,,,,,,,,,,,,,,,,,,,,,,,,0,3,3,2,1,,,,,,,,,,,,,,,,,,,,,,,,,,,,,,,,,,,,,,,,,,,,,,
180815,001,2022-11-20_20h52.20.534,Info_measure_main_exp,2022.2.2,Win32,60.09615385,,,,,,,,,,,,,,,,,,masks/mask_005.jpg,,,,,,,,,,,,,,,,,,,,,,,,,,,,,,,,,,,,,,,,,,,0,4,4,4,1,,,,,,,,,,,,,,,,,,,,,,,,,,,,,,,,,,,,,,,,,,,,,,
180815,001,2022-11-20_20h52.20.534,Info_measure_main_exp,2022.2.2,Win32,60.09615385,,,,,,,,,,,,,,,,,,masks/mask_005.jpg,,,,,,,,,,,,,,,,,,,,,,,,,,,,,,,,,,,,,,,,,,,,,,,,0,0,0,4,1,,,,,,,,,,,,,,,,,,,,,,,,,,,,,,,,,,,,,,,,,
180815,001,2022-11-20_20h52.20.534,Info_measure_main_exp,2022.2.2,Win32,60.09615385,,,,,,,,,,,,,,,,,,masks/mask_002.jpg,,,,,,,,,,,,,,,,,,,,,,,,,,,,,,,,,,,,,,,,,,,,,,,,0,1,1,1,1,,,,,,,,,,,,,,,,,,,,,,,,,,,,,,,,,,,,,,,,,
180815,001,2022-11-20_20h52.20.534,Info_measure_main_exp,2022.2.2,Win32,60.09615385,,,,,,,,,,,,,,,,,,masks/mask_001.jpg,,,,,,,,,,,,,,,,,,,,,,,,,,,,,,,,,,,,,,,,,,,,,,,,0,2,2,0,1,,,,,,,,,,,,,,,,,,,,,,,,,,,,,,,,,,,,,,,,,
180815,001,2022-11-20_20h52.20.534,Info_measure_main_exp,2022.2.2,Win32,60.09615385,,,,,,,,,,,,,,,,,,masks/mask_003.jpg,,,,,,,,,,,,,,,,,,,,,,,,,,,,,,,,,,,,,,,,,,,,,,,,0,3,3,2,1,,,,,,,,,,,,,,,,,,,,,,,,,,,,,,,,,,,,,,,,,
180815,001,2022-11-20_20h52.20.534,Info_measure_main_exp,2022.2.2,Win32,60.09615385,,,,,,,,,,,,,,,,,,masks/mask_004.jpg,,,,,,,,,,,,,,,,,,,,,,,,,,,,,,,,,,,,,,,,,,,,,,,,0,4,4,3,1,,,,,,,,,,,,,,,,,,,,,,,,,,,,,,,,,,,,,,,,,
180815,001,2022-11-20_20h52.20.534,Info_measure_main_exp,2022.2.2,Win32,60.09615385,,,,,,,,,,,,,,,,,,,,,,,,,,,,,,6,44.442,1,,,,,,,,,,,,0,131,5,5,2142,2166,absent_patch/patch0002142.jpg,absent_patch/patch0002166.jpg,,,,,,,,,,,,,,,,,,,,0.133101852,0.047453704,1,0,0,response1disk,23,-0.003472222,-0.006944444,1,0,0,center_square,0,22,22,66,1,,,,,,,,,,,,,,,,,,,,,,,
180815,001,2022-11-20_20h52.20.534,Info_measure_main_exp,2022.2.2,Win32,60.09615385,,,,,,,,,,,,,,,,,,masks/mask_001.jpg,,,,,,,,,,,,,,,,,,,,,,,,,,,,,,,,,,,,,,,,,,,0,0,0,0,1,,,,,,,,,,,,,,,,,,,,,,,,,,,,,,,,,,,,,,,,,,,,,,
180815,001,2022-11-20_20h52.20.534,Info_measure_main_exp,2022.2.2,Win32,60.09615385,,,,,,,,,,,,,,,,,,masks/mask_002.jpg,,,,,,,,,,,,,,,,,,,,,,,,,,,,,,,,,,,,,,,,,,,0,1,1,1,1,,,,,,,,,,,,,,,,,,,,,,,,,,,,,,,,,,,,,,,,,,,,,,
180815,001,2022-11-20_20h52.20.534,Info_measure_main_exp,2022.2.2,Win32,60.09615385,,,,,,,,,,,,,,,,,,masks/mask_005.jpg,,,,,,,,,,,,,,,,,,,,,,,,,,,,,,,,,,,,,,,,,,,0,2,2,4,1,,,,,,,,,,,,,,,,,,,,,,,,,,,,,,,,,,,,,,,,,,,,,,
180815,001,2022-11-20_20h52.20.534,Info_measure_main_exp,2022.2.2,Win32,60.09615385,,,,,,,,,,,,,,,,,,masks/mask_003.jpg,,,,,,,,,,,,,,,,,,,,,,,,,,,,,,,,,,,,,,,,,,,0,3,3,2,1,,,,,,,,,,,,,,,,,,,,,,,,,,,,,,,,,,,,,,,,,,,,,,
180815,001,2022-11-20_20h52.20.534,Info_measure_main_exp,2022.2.2,Win32,60.09615385,,,,,,,,,,,,,,,,,,masks/mask_004.jpg,,,,,,,,,,,,,,,,,,,,,,,,,,,,,,,,,,,,,,,,,,,0,4,4,3,1,,,,,,,,,,,,,,,,,,,,,,,,,,,,,,,,,,,,,,,,,,,,,,
180815,001,2022-11-20_20h52.20.534,Info_measure_main_exp,2022.2.2,Win32,60.09615385,,,,,,,,,,,,,,,,,,masks/mask_002.jpg,,,,,,,,,,,,,,,,,,,,,,,,,,,,,,,,,,,,,,,,,,,,,,,,0,0,0,1,1,,,,,,,,,,,,,,,,,,,,,,,,,,,,,,,,,,,,,,,,,
180815,001,2022-11-20_20h52.20.534,Info_measure_main_exp,2022.2.2,Win32,60.09615385,,,,,,,,,,,,,,,,,,masks/mask_003.jpg,,,,,,,,,,,,,,,,,,,,,,,,,,,,,,,,,,,,,,,,,,,,,,,,0,1,1,2,1,,,,,,,,,,,,,,,,,,,,,,,,,,,,,,,,,,,,,,,,,
180815,001,2022-11-20_20h52.20.534,Info_measure_main_exp,2022.2.2,Win32,60.09615385,,,,,,,,,,,,,,,,,,masks/mask_004.jpg,,,,,,,,,,,,,,,,,,,,,,,,,,,,,,,,,,,,,,,,,,,,,,,,0,2,2,3,1,,,,,,,,,,,,,,,,,,,,,,,,,,,,,,,,,,,,,,,,,
180815,001,2022-11-20_20h52.20.534,Info_measure_main_exp,2022.2.2,Win32,60.09615385,,,,,,,,,,,,,,,,,,masks/mask_005.jpg,,,,,,,,,,,,,,,,,,,,,,,,,,,,,,,,,,,,,,,,,,,,,,,,0,3,3,4,1,,,,,,,,,,,,,,,,,,,,,,,,,,,,,,,,,,,,,,,,,
180815,001,2022-11-20_20h52.20.534,Info_measure_main_exp,2022.2.2,Win32,60.09615385,,,,,,,,,,,,,,,,,,masks/mask_001.jpg,,,,,,,,,,,,,,,,,,,,,,,,,,,,,,,,,,,,,,,,,,,,,,,,0,4,4,0,1,,,,,,,,,,,,,,,,,,,,,,,,,,,,,,,,,,,,,,,,,
180815,001,2022-11-20_20h52.20.534,Info_measure_main_exp,2022.2.2,Win32,60.09615385,,,,,,,,,,,,,,,,,,,,,,,,,,,,,,5,1.501,1,,,,,,,,,,,,0,131,5,5,2190,1974,absent_patch/patch0002190.jpg,absent_patch/patch0001974.jpg,,,,,,,,,,,,,,,,,,,,0.097222222,-0.039351852,1,0,0,response3disk,24,-0.012731481,0.003472222,1,0,0,center_square,0,23,23,119,1,,,,,,,,,,,,,,,,,,,,,,,
180815,001,2022-11-20_20h52.20.534,Info_measure_main_exp,2022.2.2,Win32,60.09615385,,,,,,,,,,,,,,,,,,masks/mask_005.jpg,,,,,,,,,,,,,,,,,,,,,,,,,,,,,,,,,,,,,,,,,,,0,0,0,4,1,,,,,,,,,,,,,,,,,,,,,,,,,,,,,,,,,,,,,,,,,,,,,,
180815,001,2022-11-20_20h52.20.534,Info_measure_main_exp,2022.2.2,Win32,60.09615385,,,,,,,,,,,,,,,,,,masks/mask_003.jpg,,,,,,,,,,,,,,,,,,,,,,,,,,,,,,,,,,,,,,,,,,,0,1,1,2,1,,,,,,,,,,,,,,,,,,,,,,,,,,,,,,,,,,,,,,,,,,,,,,
180815,001,2022-11-20_20h52.20.534,Info_measure_main_exp,2022.2.2,Win32,60.09615385,,,,,,,,,,,,,,,,,,masks/mask_001.jpg,,,,,,,,,,,,,,,,,,,,,,,,,,,,,,,,,,,,,,,,,,,0,2,2,0,1,,,,,,,,,,,,,,,,,,,,,,,,,,,,,,,,,,,,,,,,,,,,,,
180815,001,2022-11-20_20h52.20.534,Info_measure_main_exp,2022.2.2,Win32,60.09615385,,,,,,,,,,,,,,,,,,masks/mask_004.jpg,,,,,,,,,,,,,,,,,,,,,,,,,,,,,,,,,,,,,,,,,,,0,3,3,3,1,,,,,,,,,,,,,,,,,,,,,,,,,,,,,,,,,,,,,,,,,,,,,,
180815,001,2022-11-20_20h52.20.534,Info_measure_main_exp,2022.2.2,Win32,60.09615385,,,,,,,,,,,,,,,,,,masks/mask_002.jpg,,,,,,,,,,,,,,,,,,,,,,,,,,,,,,,,,,,,,,,,,,,0,4,4,1,1,,,,,,,,,,,,,,,,,,,,,,,,,,,,,,,,,,,,,,,,,,,,,,
180815,001,2022-11-20_20h52.20.534,Info_measure_main_exp,2022.2.2,Win32,60.09615385,,,,,,,,,,,,,,,,,,masks/mask_001.jpg,,,,,,,,,,,,,,,,,,,,,,,,,,,,,,,,,,,,,,,,,,,,,,,,0,0,0,0,1,,,,,,,,,,,,,,,,,,,,,,,,,,,,,,,,,,,,,,,,,
180815,001,2022-11-20_20h52.20.534,Info_measure_main_exp,2022.2.2,Win32,60.09615385,,,,,,,,,,,,,,,,,,masks/mask_003.jpg,,,,,,,,,,,,,,,,,,,,,,,,,,,,,,,,,,,,,,,,,,,,,,,,0,1,1,2,1,,,,,,,,,,,,,,,,,,,,,,,,,,,,,,,,,,,,,,,,,
180815,001,2022-11-20_20h52.20.534,Info_measure_main_exp,2022.2.2,Win32,60.09615385,,,,,,,,,,,,,,,,,,masks/mask_002.jpg,,,,,,,,,,,,,,,,,,,,,,,,,,,,,,,,,,,,,,,,,,,,,,,,0,2,2,1,1,,,,,,,,,,,,,,,,,,,,,,,,,,,,,,,,,,,,,,,,,
180815,001,2022-11-20_20h52.20.534,Info_measure_main_exp,2022.2.2,Win32,60.09615385,,,,,,,,,,,,,,,,,,masks/mask_004.jpg,,,,,,,,,,,,,,,,,,,,,,,,,,,,,,,,,,,,,,,,,,,,,,,,0,3,3,3,1,,,,,,,,,,,,,,,,,,,,,,,,,,,,,,,,,,,,,,,,,
180815,001,2022-11-20_20h52.20.534,Info_measure_main_exp,2022.2.2,Win32,60.09615385,,,,,,,,,,,,,,,,,,masks/mask_005.jpg,,,,,,,,,,,,,,,,,,,,,,,,,,,,,,,,,,,,,,,,,,,,,,,,0,4,4,4,1,,,,,,,,,,,,,,,,,,,,,,,,,,,,,,,,,,,,,,,,,
180815,001,2022-11-20_20h52.20.534,Info_measure_main_exp,2022.2.2,Win32,60.09615385,,,,,,,,,,,,,,,,,,,,,,,,,,,,,,6,0.65,1,,,,,,,,,,,,0,131,5,5,2274,2154,absent_patch/patch0002274.jpg,absent_patch/patch0002154.jpg,,,,,,,,,,,,,,,,,,,,0.136574074,0.039351852,1,0,0,response1disk,25,0.002314815,0.002314815,1,0,0,center_square,0,24,24,23,1,,,,,,,,,,,,,,,,,,,,,,,
180815,001,2022-11-20_20h52.20.534,Info_measure_main_exp,2022.2.2,Win32,60.09615385,,,,,,,,,,,,,,,,,,masks/mask_003.jpg,,,,,,,,,,,,,,,,,,,,,,,,,,,,,,,,,,,,,,,,,,,0,0,0,2,1,,,,,,,,,,,,,,,,,,,,,,,,,,,,,,,,,,,,,,,,,,,,,,
180815,001,2022-11-20_20h52.20.534,Info_measure_main_exp,2022.2.2,Win32,60.09615385,,,,,,,,,,,,,,,,,,masks/mask_004.jpg,,,,,,,,,,,,,,,,,,,,,,,,,,,,,,,,,,,,,,,,,,,0,1,1,3,1,,,,,,,,,,,,,,,,,,,,,,,,,,,,,,,,,,,,,,,,,,,,,,
180815,001,2022-11-20_20h52.20.534,Info_measure_main_exp,2022.2.2,Win32,60.09615385,,,,,,,,,,,,,,,,,,masks/mask_001.jpg,,,,,,,,,,,,,,,,,,,,,,,,,,,,,,,,,,,,,,,,,,,0,2,2,0,1,,,,,,,,,,,,,,,,,,,,,,,,,,,,,,,,,,,,,,,,,,,,,,
180815,001,2022-11-20_20h52.20.534,Info_measure_main_exp,2022.2.2,Win32,60.09615385,,,,,,,,,,,,,,,,,,masks/mask_002.jpg,,,,,,,,,,,,,,,,,,,,,,,,,,,,,,,,,,,,,,,,,,,0,3,3,1,1,,,,,,,,,,,,,,,,,,,,,,,,,,,,,,,,,,,,,,,,,,,,,,
180815,001,2022-11-20_20h52.20.534,Info_measure_main_exp,2022.2.2,Win32,60.09615385,,,,,,,,,,,,,,,,,,masks/mask_005.jpg,,,,,,,,,,,,,,,,,,,,,,,,,,,,,,,,,,,,,,,,,,,0,4,4,4,1,,,,,,,,,,,,,,,,,,,,,,,,,,,,,,,,,,,,,,,,,,,,,,
180815,001,2022-11-20_20h52.20.534,Info_measure_main_exp,2022.2.2,Win32,60.09615385,,,,,,,,,,,,,,,,,,masks/mask_002.jpg,,,,,,,,,,,,,,,,,,,,,,,,,,,,,,,,,,,,,,,,,,,,,,,,0,0,0,1,1,,,,,,,,,,,,,,,,,,,,,,,,,,,,,,,,,,,,,,,,,
180815,001,2022-11-20_20h52.20.534,Info_measure_main_exp,2022.2.2,Win32,60.09615385,,,,,,,,,,,,,,,,,,masks/mask_004.jpg,,,,,,,,,,,,,,,,,,,,,,,,,,,,,,,,,,,,,,,,,,,,,,,,0,1,1,3,1,,,,,,,,,,,,,,,,,,,,,,,,,,,,,,,,,,,,,,,,,
180815,001,2022-11-20_20h52.20.534,Info_measure_main_exp,2022.2.2,Win32,60.09615385,,,,,,,,,,,,,,,,,,masks/mask_003.jpg,,,,,,,,,,,,,,,,,,,,,,,,,,,,,,,,,,,,,,,,,,,,,,,,0,2,2,2,1,,,,,,,,,,,,,,,,,,,,,,,,,,,,,,,,,,,,,,,,,
180815,001,2022-11-20_20h52.20.534,Info_measure_main_exp,2022.2.2,Win32,60.09615385,,,,,,,,,,,,,,,,,,masks/mask_001.jpg,,,,,,,,,,,,,,,,,,,,,,,,,,,,,,,,,,,,,,,,,,,,,,,,0,3,3,0,1,,,,,,,,,,,,,,,,,,,,,,,,,,,,,,,,,,,,,,,,,
180815,001,2022-11-20_20h52.20.534,Info_measure_main_exp,2022.2.2,Win32,60.09615385,,,,,,,,,,,,,,,,,,masks/mask_005.jpg,,,,,,,,,,,,,,,,,,,,,,,,,,,,,,,,,,,,,,,,,,,,,,,,0,4,4,4,1,,,,,,,,,,,,,,,,,,,,,,,,,,,,,,,,,,,,,,,,,
180815,001,2022-11-20_20h52.20.534,Info_measure_main_exp,2022.2.2,Win32,60.09615385,,,,,,,,,,,,,,,,,,,,,,,,,,,,,,6,0.951,1,,,,,,,,,,,,1,131,5,5,1,2142,present_patch/cong_131_5_a.jpg,absent_patch/patch0002142.jpg,,,,,,,,,,,,,,,,,,,,0.114583333,0.016203704,1,0,0,response1disk,26,0.012731481,-0.005787037,1,0,0,center_square,0,25,25,80,1,,,,,,,,,,,,,,,,,,,,,,,
180815,001,2022-11-20_20h52.20.534,Info_measure_main_exp,2022.2.2,Win32,60.09615385,,,,,,,,,,,,,,,,,,masks/mask_004.jpg,,,,,,,,,,,,,,,,,,,,,,,,,,,,,,,,,,,,,,,,,,,0,0,0,3,1,,,,,,,,,,,,,,,,,,,,,,,,,,,,,,,,,,,,,,,,,,,,,,
180815,001,2022-11-20_20h52.20.534,Info_measure_main_exp,2022.2.2,Win32,60.09615385,,,,,,,,,,,,,,,,,,masks/mask_002.jpg,,,,,,,,,,,,,,,,,,,,,,,,,,,,,,,,,,,,,,,,,,,0,1,1,1,1,,,,,,,,,,,,,,,,,,,,,,,,,,,,,,,,,,,,,,,,,,,,,,
180815,001,2022-11-20_20h52.20.534,Info_measure_main_exp,2022.2.2,Win32,60.09615385,,,,,,,,,,,,,,,,,,masks/mask_005.jpg,,,,,,,,,,,,,,,,,,,,,,,,,,,,,,,,,,,,,,,,,,,0,2,2,4,1,,,,,,,,,,,,,,,,,,,,,,,,,,,,,,,,,,,,,,,,,,,,,,
180815,001,2022-11-20_20h52.20.534,Info_measure_main_exp,2022.2.2,Win32,60.09615385,,,,,,,,,,,,,,,,,,masks/mask_001.jpg,,,,,,,,,,,,,,,,,,,,,,,,,,,,,,,,,,,,,,,,,,,0,3,3,0,1,,,,,,,,,,,,,,,,,,,,,,,,,,,,,,,,,,,,,,,,,,,,,,
180815,001,2022-11-20_20h52.20.534,Info_measure_main_exp,2022.2.2,Win32,60.09615385,,,,,,,,,,,,,,,,,,masks/mask_003.jpg,,,,,,,,,,,,,,,,,,,,,,,,,,,,,,,,,,,,,,,,,,,0,4,4,2,1,,,,,,,,,,,,,,,,,,,,,,,,,,,,,,,,,,,,,,,,,,,,,,
180815,001,2022-11-20_20h52.20.534,Info_measure_main_exp,2022.2.2,Win32,60.09615385,,,,,,,,,,,,,,,,,,masks/mask_003.jpg,,,,,,,,,,,,,,,,,,,,,,,,,,,,,,,,,,,,,,,,,,,,,,,,0,0,0,2,1,,,,,,,,,,,,,,,,,,,,,,,,,,,,,,,,,,,,,,,,,
180815,001,2022-11-20_20h52.20.534,Info_measure_main_exp,2022.2.2,Win32,60.09615385,,,,,,,,,,,,,,,,,,masks/mask_002.jpg,,,,,,,,,,,,,,,,,,,,,,,,,,,,,,,,,,,,,,,,,,,,,,,,0,1,1,1,1,,,,,,,,,,,,,,,,,,,,,,,,,,,,,,,,,,,,,,,,,
180815,001,2022-11-20_20h52.20.534,Info_measure_main_exp,2022.2.2,Win32,60.09615385,,,,,,,,,,,,,,,,,,masks/mask_004.jpg,,,,,,,,,,,,,,,,,,,,,,,,,,,,,,,,,,,,,,,,,,,,,,,,0,2,2,3,1,,,,,,,,,,,,,,,,,,,,,,,,,,,,,,,,,,,,,,,,,
180815,001,2022-11-20_20h52.20.534,Info_measure_main_exp,2022.2.2,Win32,60.09615385,,,,,,,,,,,,,,,,,,masks/mask_005.jpg,,,,,,,,,,,,,,,,,,,,,,,,,,,,,,,,,,,,,,,,,,,,,,,,0,3,3,4,1,,,,,,,,,,,,,,,,,,,,,,,,,,,,,,,,,,,,,,,,,
180815,001,2022-11-20_20h52.20.534,Info_measure_main_exp,2022.2.2,Win32,60.09615385,,,,,,,,,,,,,,,,,,masks/mask_001.jpg,,,,,,,,,,,,,,,,,,,,,,,,,,,,,,,,,,,,,,,,,,,,,,,,0,4,4,0,1,,,,,,,,,,,,,,,,,,,,,,,,,,,,,,,,,,,,,,,,,
180815,001,2022-11-20_20h52.20.534,Info_measure_main_exp,2022.2.2,Win32,60.09615385,,,,,,,,,,,,,,,,,,,,,,,,,,,,,,0,0.467,1,,,,,,,,,,,,0,131,5,5,2178,2178,absent_patch/patch0002178.jpg,absent_patch/patch0002178.jpg,,,,,,,,,,,,,,,,,,,,-0.038194444,0.133101852,1,0,0,response7disk,27,0.006944444,-0.009259259,1,0,0,center_square,0,26,26,98,1,,,,,,,,,,,,,,,,,,,,,,,
180815,001,2022-11-20_20h52.20.534,Info_measure_main_exp,2022.2.2,Win32,60.09615385,,,,,,,,,,,,,,,,,,masks/mask_002.jpg,,,,,,,,,,,,,,,,,,,,,,,,,,,,,,,,,,,,,,,,,,,0,0,0,1,1,,,,,,,,,,,,,,,,,,,,,,,,,,,,,,,,,,,,,,,,,,,,,,
180815,001,2022-11-20_20h52.20.534,Info_measure_main_exp,2022.2.2,Win32,60.09615385,,,,,,,,,,,,,,,,,,masks/mask_003.jpg,,,,,,,,,,,,,,,,,,,,,,,,,,,,,,,,,,,,,,,,,,,0,1,1,2,1,,,,,,,,,,,,,,,,,,,,,,,,,,,,,,,,,,,,,,,,,,,,,,
180815,001,2022-11-20_20h52.20.534,Info_measure_main_exp,2022.2.2,Win32,60.09615385,,,,,,,,,,,,,,,,,,masks/mask_004.jpg,,,,,,,,,,,,,,,,,,,,,,,,,,,,,,,,,,,,,,,,,,,0,2,2,3,1,,,,,,,,,,,,,,,,,,,,,,,,,,,,,,,,,,,,,,,,,,,,,,
180815,001,2022-11-20_20h52.20.534,Info_measure_main_exp,2022.2.2,Win32,60.09615385,,,,,,,,,,,,,,,,,,masks/mask_001.jpg,,,,,,,,,,,,,,,,,,,,,,,,,,,,,,,,,,,,,,,,,,,0,3,3,0,1,,,,,,,,,,,,,,,,,,,,,,,,,,,,,,,,,,,,,,,,,,,,,,
180815,001,2022-11-20_20h52.20.534,Info_measure_main_exp,2022.2.2,Win32,60.09615385,,,,,,,,,,,,,,,,,,masks/mask_005.jpg,,,,,,,,,,,,,,,,,,,,,,,,,,,,,,,,,,,,,,,,,,,0,4,4,4,1,,,,,,,,,,,,,,,,,,,,,,,,,,,,,,,,,,,,,,,,,,,,,,
180815,001,2022-11-20_20h52.20.534,Info_measure_main_exp,2022.2.2,Win32,60.09615385,,,,,,,,,,,,,,,,,,masks/mask_003.jpg,,,,,,,,,,,,,,,,,,,,,,,,,,,,,,,,,,,,,,,,,,,,,,,,0,0,0,2,1,,,,,,,,,,,,,,,,,,,,,,,,,,,,,,,,,,,,,,,,,
180815,001,2022-11-20_20h52.20.534,Info_measure_main_exp,2022.2.2,Win32,60.09615385,,,,,,,,,,,,,,,,,,masks/mask_002.jpg,,,,,,,,,,,,,,,,,,,,,,,,,,,,,,,,,,,,,,,,,,,,,,,,0,1,1,1,1,,,,,,,,,,,,,,,,,,,,,,,,,,,,,,,,,,,,,,,,,
180815,001,2022-11-20_20h52.20.534,Info_measure_main_exp,2022.2.2,Win32,60.09615385,,,,,,,,,,,,,,,,,,masks/mask_005.jpg,,,,,,,,,,,,,,,,,,,,,,,,,,,,,,,,,,,,,,,,,,,,,,,,0,2,2,4,1,,,,,,,,,,,,,,,,,,,,,,,,,,,,,,,,,,,,,,,,,
180815,001,2022-11-20_20h52.20.534,Info_measure_main_exp,2022.2.2,Win32,60.09615385,,,,,,,,,,,,,,,,,,masks/mask_004.jpg,,,,,,,,,,,,,,,,,,,,,,,,,,,,,,,,,,,,,,,,,,,,,,,,0,3,3,3,1,,,,,,,,,,,,,,,,,,,,,,,,,,,,,,,,,,,,,,,,,
180815,001,2022-11-20_20h52.20.534,Info_measure_main_exp,2022.2.2,Win32,60.09615385,,,,,,,,,,,,,,,,,,masks/mask_001.jpg,,,,,,,,,,,,,,,,,,,,,,,,,,,,,,,,,,,,,,,,,,,,,,,,0,4,4,0,1,,,,,,,,,,,,,,,,,,,,,,,,,,,,,,,,,,,,,,,,,
180815,001,2022-11-20_20h52.20.534,Info_measure_main_exp,2022.2.2,Win32,60.09615385,,,,,,,,,,,,,,,,,,,,,,,,,,,,,,6,10.764,1,,,,,,,,,,,,0,131,5,5,2298,2190,absent_patch/patch0002298.jpg,absent_patch/patch0002190.jpg,,,,,,,,,,,,,,,,,,,,0.131944444,0.028935185,1,0,0,response1disk,28,0.002314815,-0.001157407,1,0,0,center_square,0,27,27,20,1,,,,,,,,,,,,,,,,,,,,,,,
180815,001,2022-11-20_20h52.20.534,Info_measure_main_exp,2022.2.2,Win32,60.09615385,,,,,,,,,,,,,,,,,,masks/mask_005.jpg,,,,,,,,,,,,,,,,,,,,,,,,,,,,,,,,,,,,,,,,,,,0,0,0,4,1,,,,,,,,,,,,,,,,,,,,,,,,,,,,,,,,,,,,,,,,,,,,,,
180815,001,2022-11-20_20h52.20.534,Info_measure_main_exp,2022.2.2,Win32,60.09615385,,,,,,,,,,,,,,,,,,masks/mask_001.jpg,,,,,,,,,,,,,,,,,,,,,,,,,,,,,,,,,,,,,,,,,,,0,1,1,0,1,,,,,,,,,,,,,,,,,,,,,,,,,,,,,,,,,,,,,,,,,,,,,,
180815,001,2022-11-20_20h52.20.534,Info_measure_main_exp,2022.2.2,Win32,60.09615385,,,,,,,,,,,,,,,,,,masks/mask_003.jpg,,,,,,,,,,,,,,,,,,,,,,,,,,,,,,,,,,,,,,,,,,,0,2,2,2,1,,,,,,,,,,,,,,,,,,,,,,,,,,,,,,,,,,,,,,,,,,,,,,
180815,001,2022-11-20_20h52.20.534,Info_measure_main_exp,2022.2.2,Win32,60.09615385,,,,,,,,,,,,,,,,,,masks/mask_004.jpg,,,,,,,,,,,,,,,,,,,,,,,,,,,,,,,,,,,,,,,,,,,0,3,3,3,1,,,,,,,,,,,,,,,,,,,,,,,,,,,,,,,,,,,,,,,,,,,,,,
180815,001,2022-11-20_20h52.20.534,Info_measure_main_exp,2022.2.2,Win32,60.09615385,,,,,,,,,,,,,,,,,,masks/mask_002.jpg,,,,,,,,,,,,,,,,,,,,,,,,,,,,,,,,,,,,,,,,,,,0,4,4,1,1,,,,,,,,,,,,,,,,,,,,,,,,,,,,,,,,,,,,,,,,,,,,,,
180815,001,2022-11-20_20h52.20.534,Info_measure_main_exp,2022.2.2,Win32,60.09615385,,,,,,,,,,,,,,,,,,masks/mask_003.jpg,,,,,,,,,,,,,,,,,,,,,,,,,,,,,,,,,,,,,,,,,,,,,,,,0,0,0,2,1,,,,,,,,,,,,,,,,,,,,,,,,,,,,,,,,,,,,,,,,,
180815,001,2022-11-20_20h52.20.534,Info_measure_main_exp,2022.2.2,Win32,60.09615385,,,,,,,,,,,,,,,,,,masks/mask_004.jpg,,,,,,,,,,,,,,,,,,,,,,,,,,,,,,,,,,,,,,,,,,,,,,,,0,1,1,3,1,,,,,,,,,,,,,,,,,,,,,,,,,,,,,,,,,,,,,,,,,
180815,001,2022-11-20_20h52.20.534,Info_measure_main_exp,2022.2.2,Win32,60.09615385,,,,,,,,,,,,,,,,,,masks/mask_005.jpg,,,,,,,,,,,,,,,,,,,,,,,,,,,,,,,,,,,,,,,,,,,,,,,,0,2,2,4,1,,,,,,,,,,,,,,,,,,,,,,,,,,,,,,,,,,,,,,,,,
180815,001,2022-11-20_20h52.20.534,Info_measure_main_exp,2022.2.2,Win32,60.09615385,,,,,,,,,,,,,,,,,,masks/mask_002.jpg,,,,,,,,,,,,,,,,,,,,,,,,,,,,,,,,,,,,,,,,,,,,,,,,0,3,3,1,1,,,,,,,,,,,,,,,,,,,,,,,,,,,,,,,,,,,,,,,,,
180815,001,2022-11-20_20h52.20.534,Info_measure_main_exp,2022.2.2,Win32,60.09615385,,,,,,,,,,,,,,,,,,masks/mask_001.jpg,,,,,,,,,,,,,,,,,,,,,,,,,,,,,,,,,,,,,,,,,,,,,,,,0,4,4,0,1,,,,,,,,,,,,,,,,,,,,,,,,,,,,,,,,,,,,,,,,,
180815,001,2022-11-20_20h52.20.534,Info_measure_main_exp,2022.2.2,Win32,60.09615385,,,,,,,,,,,,,,,,,,,,,,,,,,,,,,5,1.116,1,,,,,,,,,,,,0,131,5,5,2190,2082,absent_patch/patch0002190.jpg,absent_patch/patch0002082.jpg,,,,,,,,,,,,,,,,,,,,0.118055556,-0.070601852,1,0,0,response3disk,29,0.002314815,0.009259259,1,0,0,center_square,0,28,28,112,1,,,,,,,,,,,,,,,,,,,,,,,
180815,001,2022-11-20_20h52.20.534,Info_measure_main_exp,2022.2.2,Win32,60.09615385,,,,,,,,,,,,,,,,,,masks/mask_004.jpg,,,,,,,,,,,,,,,,,,,,,,,,,,,,,,,,,,,,,,,,,,,0,0,0,3,1,,,,,,,,,,,,,,,,,,,,,,,,,,,,,,,,,,,,,,,,,,,,,,
180815,001,2022-11-20_20h52.20.534,Info_measure_main_exp,2022.2.2,Win32,60.09615385,,,,,,,,,,,,,,,,,,masks/mask_002.jpg,,,,,,,,,,,,,,,,,,,,,,,,,,,,,,,,,,,,,,,,,,,0,1,1,1,1,,,,,,,,,,,,,,,,,,,,,,,,,,,,,,,,,,,,,,,,,,,,,,
180815,001,2022-11-20_20h52.20.534,Info_measure_main_exp,2022.2.2,Win32,60.09615385,,,,,,,,,,,,,,,,,,masks/mask_005.jpg,,,,,,,,,,,,,,,,,,,,,,,,,,,,,,,,,,,,,,,,,,,0,2,2,4,1,,,,,,,,,,,,,,,,,,,,,,,,,,,,,,,,,,,,,,,,,,,,,,
180815,001,2022-11-20_20h52.20.534,Info_measure_main_exp,2022.2.2,Win32,60.09615385,,,,,,,,,,,,,,,,,,masks/mask_003.jpg,,,,,,,,,,,,,,,,,,,,,,,,,,,,,,,,,,,,,,,,,,,0,3,3,2,1,,,,,,,,,,,,,,,,,,,,,,,,,,,,,,,,,,,,,,,,,,,,,,
180815,001,2022-11-20_20h52.20.534,Info_measure_main_exp,2022.2.2,Win32,60.09615385,,,,,,,,,,,,,,,,,,masks/mask_001.jpg,,,,,,,,,,,,,,,,,,,,,,,,,,,,,,,,,,,,,,,,,,,0,4,4,0,1,,,,,,,,,,,,,,,,,,,,,,,,,,,,,,,,,,,,,,,,,,,,,,
180815,001,2022-11-20_20h52.20.534,Info_measure_main_exp,2022.2.2,Win32,60.09615385,,,,,,,,,,,,,,,,,,masks/mask_002.jpg,,,,,,,,,,,,,,,,,,,,,,,,,,,,,,,,,,,,,,,,,,,,,,,,0,0,0,1,1,,,,,,,,,,,,,,,,,,,,,,,,,,,,,,,,,,,,,,,,,
180815,001,2022-11-20_20h52.20.534,Info_measure_main_exp,2022.2.2,Win32,60.09615385,,,,,,,,,,,,,,,,,,masks/mask_003.jpg,,,,,,,,,,,,,,,,,,,,,,,,,,,,,,,,,,,,,,,,,,,,,,,,0,1,1,2,1,,,,,,,,,,,,,,,,,,,,,,,,,,,,,,,,,,,,,,,,,
180815,001,2022-11-20_20h52.20.534,Info_measure_main_exp,2022.2.2,Win32,60.09615385,,,,,,,,,,,,,,,,,,masks/mask_001.jpg,,,,,,,,,,,,,,,,,,,,,,,,,,,,,,,,,,,,,,,,,,,,,,,,0,2,2,0,1,,,,,,,,,,,,,,,,,,,,,,,,,,,,,,,,,,,,,,,,,
180815,001,2022-11-20_20h52.20.534,Info_measure_main_exp,2022.2.2,Win32,60.09615385,,,,,,,,,,,,,,,,,,masks/mask_004.jpg,,,,,,,,,,,,,,,,,,,,,,,,,,,,,,,,,,,,,,,,,,,,,,,,0,3,3,3,1,,,,,,,,,,,,,,,,,,,,,,,,,,,,,,,,,,,,,,,,,
180815,001,2022-11-20_20h52.20.534,Info_measure_main_exp,2022.2.2,Win32,60.09615385,,,,,,,,,,,,,,,,,,masks/mask_005.jpg,,,,,,,,,,,,,,,,,,,,,,,,,,,,,,,,,,,,,,,,,,,,,,,,0,4,4,4,1,,,,,,,,,,,,,,,,,,,,,,,,,,,,,,,,,,,,,,,,,
180815,001,2022-11-20_20h52.20.534,Info_measure_main_exp,2022.2.2,Win32,60.09615385,,,,,,,,,,,,,,,,,,,,,,,,,,,,,,6,1.133,1,,,,,,,,,,,,0,131,5,5,2154,2154,absent_patch/patch0002154.jpg,absent_patch/patch0002154.jpg,,,,,,,,,,,,,,,,,,,,0.099537037,0.038194444,1,0,0,response1disk,30,0.011574074,0.002314815,1,0,0,center_square,0,29,29,89,1,,,,,,,,,,,,,,,,,,,,,,,
180815,001,2022-11-20_20h52.20.534,Info_measure_main_exp,2022.2.2,Win32,60.09615385,,,,,,,,,,,,,,,,,,masks/mask_005.jpg,,,,,,,,,,,,,,,,,,,,,,,,,,,,,,,,,,,,,,,,,,,0,0,0,4,1,,,,,,,,,,,,,,,,,,,,,,,,,,,,,,,,,,,,,,,,,,,,,,
180815,001,2022-11-20_20h52.20.534,Info_measure_main_exp,2022.2.2,Win32,60.09615385,,,,,,,,,,,,,,,,,,masks/mask_004.jpg,,,,,,,,,,,,,,,,,,,,,,,,,,,,,,,,,,,,,,,,,,,0,1,1,3,1,,,,,,,,,,,,,,,,,,,,,,,,,,,,,,,,,,,,,,,,,,,,,,
180815,001,2022-11-20_20h52.20.534,Info_measure_main_exp,2022.2.2,Win32,60.09615385,,,,,,,,,,,,,,,,,,masks/mask_001.jpg,,,,,,,,,,,,,,,,,,,,,,,,,,,,,,,,,,,,,,,,,,,0,2,2,0,1,,,,,,,,,,,,,,,,,,,,,,,,,,,,,,,,,,,,,,,,,,,,,,
180815,001,2022-11-20_20h52.20.534,Info_measure_main_exp,2022.2.2,Win32,60.09615385,,,,,,,,,,,,,,,,,,masks/mask_002.jpg,,,,,,,,,,,,,,,,,,,,,,,,,,,,,,,,,,,,,,,,,,,0,3,3,1,1,,,,,,,,,,,,,,,,,,,,,,,,,,,,,,,,,,,,,,,,,,,,,,
180815,001,2022-11-20_20h52.20.534,Info_measure_main_exp,2022.2.2,Win32,60.09615385,,,,,,,,,,,,,,,,,,masks/mask_003.jpg,,,,,,,,,,,,,,,,,,,,,,,,,,,,,,,,,,,,,,,,,,,0,4,4,2,1,,,,,,,,,,,,,,,,,,,,,,,,,,,,,,,,,,,,,,,,,,,,,,
180815,001,2022-11-20_20h52.20.534,Info_measure_main_exp,2022.2.2,Win32,60.09615385,,,,,,,,,,,,,,,,,,masks/mask_003.jpg,,,,,,,,,,,,,,,,,,,,,,,,,,,,,,,,,,,,,,,,,,,,,,,,0,0,0,2,1,,,,,,,,,,,,,,,,,,,,,,,,,,,,,,,,,,,,,,,,,
180815,001,2022-11-20_20h52.20.534,Info_measure_main_exp,2022.2.2,Win32,60.09615385,,,,,,,,,,,,,,,,,,masks/mask_002.jpg,,,,,,,,,,,,,,,,,,,,,,,,,,,,,,,,,,,,,,,,,,,,,,,,0,1,1,1,1,,,,,,,,,,,,,,,,,,,,,,,,,,,,,,,,,,,,,,,,,
180815,001,2022-11-20_20h52.20.534,Info_measure_main_exp,2022.2.2,Win32,60.09615385,,,,,,,,,,,,,,,,,,masks/mask_001.jpg,,,,,,,,,,,,,,,,,,,,,,,,,,,,,,,,,,,,,,,,,,,,,,,,0,2,2,0,1,,,,,,,,,,,,,,,,,,,,,,,,,,,,,,,,,,,,,,,,,
180815,001,2022-11-20_20h52.20.534,Info_measure_main_exp,2022.2.2,Win32,60.09615385,,,,,,,,,,,,,,,,,,masks/mask_005.jpg,,,,,,,,,,,,,,,,,,,,,,,,,,,,,,,,,,,,,,,,,,,,,,,,0,3,3,4,1,,,,,,,,,,,,,,,,,,,,,,,,,,,,,,,,,,,,,,,,,
180815,001,2022-11-20_20h52.20.534,Info_measure_main_exp,2022.2.2,Win32,60.09615385,,,,,,,,,,,,,,,,,,masks/mask_004.jpg,,,,,,,,,,,,,,,,,,,,,,,,,,,,,,,,,,,,,,,,,,,,,,,,0,4,4,3,1,,,,,,,,,,,,,,,,,,,,,,,,,,,,,,,,,,,,,,,,,
180815,001,2022-11-20_20h52.20.534,Info_measure_main_exp,2022.2.2,Win32,60.09615385,,,,,,,,,,,,,,,,,,,,,,,,,,,,,,7,0.483,1,,,,,,,,,,,,0,131,5,5,2154,1950,absent_patch/patch0002154.jpg,absent_patch/patch0001950.jpg,,,,,,,,,,,,,,,,,,,,0.074074074,0.118055556,1,0,0,response1disk,31,0.009259259,-0.001157407,1,0,0,center_square,0,30,30,96,1,,,,,,,,,,,,,,,,,,,,,,,
180815,001,2022-11-20_20h52.20.534,Info_measure_main_exp,2022.2.2,Win32,60.09615385,,,,,,,,,,,,,,,,,,masks/mask_001.jpg,,,,,,,,,,,,,,,,,,,,,,,,,,,,,,,,,,,,,,,,,,,0,0,0,0,1,,,,,,,,,,,,,,,,,,,,,,,,,,,,,,,,,,,,,,,,,,,,,,
180815,001,2022-11-20_20h52.20.534,Info_measure_main_exp,2022.2.2,Win32,60.09615385,,,,,,,,,,,,,,,,,,masks/mask_005.jpg,,,,,,,,,,,,,,,,,,,,,,,,,,,,,,,,,,,,,,,,,,,0,1,1,4,1,,,,,,,,,,,,,,,,,,,,,,,,,,,,,,,,,,,,,,,,,,,,,,
180815,001,2022-11-20_20h52.20.534,Info_measure_main_exp,2022.2.2,Win32,60.09615385,,,,,,,,,,,,,,,,,,masks/mask_003.jpg,,,,,,,,,,,,,,,,,,,,,,,,,,,,,,,,,,,,,,,,,,,0,2,2,2,1,,,,,,,,,,,,,,,,,,,,,,,,,,,,,,,,,,,,,,,,,,,,,,
180815,001,2022-11-20_20h52.20.534,Info_measure_main_exp,2022.2.2,Win32,60.09615385,,,,,,,,,,,,,,,,,,masks/mask_002.jpg,,,,,,,,,,,,,,,,,,,,,,,,,,,,,,,,,,,,,,,,,,,0,3,3,1,1,,,,,,,,,,,,,,,,,,,,,,,,,,,,,,,,,,,,,,,,,,,,,,
180815,001,2022-11-20_20h52.20.534,Info_measure_main_exp,2022.2.2,Win32,60.09615385,,,,,,,,,,,,,,,,,,masks/mask_004.jpg,,,,,,,,,,,,,,,,,,,,,,,,,,,,,,,,,,,,,,,,,,,0,4,4,3,1,,,,,,,,,,,,,,,,,,,,,,,,,,,,,,,,,,,,,,,,,,,,,,
180815,001,2022-11-20_20h52.20.534,Info_measure_main_exp,2022.2.2,Win32,60.09615385,,,,,,,,,,,,,,,,,,masks/mask_005.jpg,,,,,,,,,,,,,,,,,,,,,,,,,,,,,,,,,,,,,,,,,,,,,,,,0,0,0,4,1,,,,,,,,,,,,,,,,,,,,,,,,,,,,,,,,,,,,,,,,,
180815,001,2022-11-20_20h52.20.534,Info_measure_main_exp,2022.2.2,Win32,60.09615385,,,,,,,,,,,,,,,,,,masks/mask_002.jpg,,,,,,,,,,,,,,,,,,,,,,,,,,,,,,,,,,,,,,,,,,,,,,,,0,1,1,1,1,,,,,,,,,,,,,,,,,,,,,,,,,,,,,,,,,,,,,,,,,
180815,001,2022-11-20_20h52.20.534,Info_measure_main_exp,2022.2.2,Win32,60.09615385,,,,,,,,,,,,,,,,,,masks/mask_003.jpg,,,,,,,,,,,,,,,,,,,,,,,,,,,,,,,,,,,,,,,,,,,,,,,,0,2,2,2,1,,,,,,,,,,,,,,,,,,,,,,,,,,,,,,,,,,,,,,,,,
180815,001,2022-11-20_20h52.20.534,Info_measure_main_exp,2022.2.2,Win32,60.09615385,,,,,,,,,,,,,,,,,,masks/mask_004.jpg,,,,,,,,,,,,,,,,,,,,,,,,,,,,,,,,,,,,,,,,,,,,,,,,0,3,3,3,1,,,,,,,,,,,,,,,,,,,,,,,,,,,,,,,,,,,,,,,,,
180815,001,2022-11-20_20h52.20.534,Info_measure_main_exp,2022.2.2,Win32,60.09615385,,,,,,,,,,,,,,,,,,masks/mask_001.jpg,,,,,,,,,,,,,,,,,,,,,,,,,,,,,,,,,,,,,,,,,,,,,,,,0,4,4,0,1,,,,,,,,,,,,,,,,,,,,,,,,,,,,,,,,,,,,,,,,,
180815,001,2022-11-20_20h52.20.534,Info_measure_main_exp,2022.2.2,Win32,60.09615385,,,,,,,,,,,,,,,,,,,,,,,,,,,,,,6,1.367,1,,,,,,,,,,,,0,131,5,5,2142,2082,absent_patch/patch0002142.jpg,absent_patch/patch0002082.jpg,,,,,,,,,,,,,,,,,,,,0.084490741,0.03587963,1,0,0,response1disk,32,-0.006944444,-0.001157407,1,0,0,center_square,0,31,31,88,1,,,,,,,,,,,,,,,,,,,,,,,
180815,001,2022-11-20_20h52.20.534,Info_measure_main_exp,2022.2.2,Win32,60.09615385,,,,,,,,,,,,,,,,,,masks/mask_005.jpg,,,,,,,,,,,,,,,,,,,,,,,,,,,,,,,,,,,,,,,,,,,0,0,0,4,1,,,,,,,,,,,,,,,,,,,,,,,,,,,,,,,,,,,,,,,,,,,,,,
180815,001,2022-11-20_20h52.20.534,Info_measure_main_exp,2022.2.2,Win32,60.09615385,,,,,,,,,,,,,,,,,,masks/mask_003.jpg,,,,,,,,,,,,,,,,,,,,,,,,,,,,,,,,,,,,,,,,,,,0,1,1,2,1,,,,,,,,,,,,,,,,,,,,,,,,,,,,,,,,,,,,,,,,,,,,,,
180815,001,2022-11-20_20h52.20.534,Info_measure_main_exp,2022.2.2,Win32,60.09615385,,,,,,,,,,,,,,,,,,masks/mask_004.jpg,,,,,,,,,,,,,,,,,,,,,,,,,,,,,,,,,,,,,,,,,,,0,2,2,3,1,,,,,,,,,,,,,,,,,,,,,,,,,,,,,,,,,,,,,,,,,,,,,,
180815,001,2022-11-20_20h52.20.534,Info_measure_main_exp,2022.2.2,Win32,60.09615385,,,,,,,,,,,,,,,,,,masks/mask_001.jpg,,,,,,,,,,,,,,,,,,,,,,,,,,,,,,,,,,,,,,,,,,,0,3,3,0,1,,,,,,,,,,,,,,,,,,,,,,,,,,,,,,,,,,,,,,,,,,,,,,
180815,001,2022-11-20_20h52.20.534,Info_measure_main_exp,2022.2.2,Win32,60.09615385,,,,,,,,,,,,,,,,,,masks/mask_002.jpg,,,,,,,,,,,,,,,,,,,,,,,,,,,,,,,,,,,,,,,,,,,0,4,4,1,1,,,,,,,,,,,,,,,,,,,,,,,,,,,,,,,,,,,,,,,,,,,,,,
180815,001,2022-11-20_20h52.20.534,Info_measure_main_exp,2022.2.2,Win32,60.09615385,,,,,,,,,,,,,,,,,,masks/mask_005.jpg,,,,,,,,,,,,,,,,,,,,,,,,,,,,,,,,,,,,,,,,,,,,,,,,0,0,0,4,1,,,,,,,,,,,,,,,,,,,,,,,,,,,,,,,,,,,,,,,,,
180815,001,2022-11-20_20h52.20.534,Info_measure_main_exp,2022.2.2,Win32,60.09615385,,,,,,,,,,,,,,,,,,masks/mask_003.jpg,,,,,,,,,,,,,,,,,,,,,,,,,,,,,,,,,,,,,,,,,,,,,,,,0,1,1,2,1,,,,,,,,,,,,,,,,,,,,,,,,,,,,,,,,,,,,,,,,,
180815,001,2022-11-20_20h52.20.534,Info_measure_main_exp,2022.2.2,Win32,60.09615385,,,,,,,,,,,,,,,,,,masks/mask_004.jpg,,,,,,,,,,,,,,,,,,,,,,,,,,,,,,,,,,,,,,,,,,,,,,,,0,2,2,3,1,,,,,,,,,,,,,,,,,,,,,,,,,,,,,,,,,,,,,,,,,
180815,001,2022-11-20_20h52.20.534,Info_measure_main_exp,2022.2.2,Win32,60.09615385,,,,,,,,,,,,,,,,,,masks/mask_001.jpg,,,,,,,,,,,,,,,,,,,,,,,,,,,,,,,,,,,,,,,,,,,,,,,,0,3,3,0,1,,,,,,,,,,,,,,,,,,,,,,,,,,,,,,,,,,,,,,,,,
180815,001,2022-11-20_20h52.20.534,Info_measure_main_exp,2022.2.2,Win32,60.09615385,,,,,,,,,,,,,,,,,,masks/mask_002.jpg,,,,,,,,,,,,,,,,,,,,,,,,,,,,,,,,,,,,,,,,,,,,,,,,0,4,4,1,1,,,,,,,,,,,,,,,,,,,,,,,,,,,,,,,,,,,,,,,,,
180815,001,2022-11-20_20h52.20.534,Info_measure_main_exp,2022.2.2,Win32,60.09615385,,,,,,,,,,,,,,,,,,,,,,,,,,,,,,7,0.55,1,,,,,,,,,,,,0,131,5,5,1986,1974,absent_patch/patch0001986.jpg,absent_patch/patch0001974.jpg,,,,,,,,,,,,,,,,,,,,0.03587963,0.111111111,1,0,0,response1disk,33,-0.010416667,-0.015046296,1,0,0,center_square,0,32,32,25,1,,,,,,,,,,,,,,,,,,,,,,,
180815,001,2022-11-20_20h52.20.534,Info_measure_main_exp,2022.2.2,Win32,60.09615385,,,,,,,,,,,,,,,,,,masks/mask_004.jpg,,,,,,,,,,,,,,,,,,,,,,,,,,,,,,,,,,,,,,,,,,,0,0,0,3,1,,,,,,,,,,,,,,,,,,,,,,,,,,,,,,,,,,,,,,,,,,,,,,
180815,001,2022-11-20_20h52.20.534,Info_measure_main_exp,2022.2.2,Win32,60.09615385,,,,,,,,,,,,,,,,,,masks/mask_002.jpg,,,,,,,,,,,,,,,,,,,,,,,,,,,,,,,,,,,,,,,,,,,0,1,1,1,1,,,,,,,,,,,,,,,,,,,,,,,,,,,,,,,,,,,,,,,,,,,,,,
180815,001,2022-11-20_20h52.20.534,Info_measure_main_exp,2022.2.2,Win32,60.09615385,,,,,,,,,,,,,,,,,,masks/mask_005.jpg,,,,,,,,,,,,,,,,,,,,,,,,,,,,,,,,,,,,,,,,,,,0,2,2,4,1,,,,,,,,,,,,,,,,,,,,,,,,,,,,,,,,,,,,,,,,,,,,,,
180815,001,2022-11-20_20h52.20.534,Info_measure_main_exp,2022.2.2,Win32,60.09615385,,,,,,,,,,,,,,,,,,masks/mask_001.jpg,,,,,,,,,,,,,,,,,,,,,,,,,,,,,,,,,,,,,,,,,,,0,3,3,0,1,,,,,,,,,,,,,,,,,,,,,,,,,,,,,,,,,,,,,,,,,,,,,,
180815,001,2022-11-20_20h52.20.534,Info_measure_main_exp,2022.2.2,Win32,60.09615385,,,,,,,,,,,,,,,,,,masks/mask_003.jpg,,,,,,,,,,,,,,,,,,,,,,,,,,,,,,,,,,,,,,,,,,,0,4,4,2,1,,,,,,,,,,,,,,,,,,,,,,,,,,,,,,,,,,,,,,,,,,,,,,
180815,001,2022-11-20_20h52.20.534,Info_measure_main_exp,2022.2.2,Win32,60.09615385,,,,,,,,,,,,,,,,,,masks/mask_001.jpg,,,,,,,,,,,,,,,,,,,,,,,,,,,,,,,,,,,,,,,,,,,,,,,,0,0,0,0,1,,,,,,,,,,,,,,,,,,,,,,,,,,,,,,,,,,,,,,,,,
180815,001,2022-11-20_20h52.20.534,Info_measure_main_exp,2022.2.2,Win32,60.09615385,,,,,,,,,,,,,,,,,,masks/mask_004.jpg,,,,,,,,,,,,,,,,,,,,,,,,,,,,,,,,,,,,,,,,,,,,,,,,0,1,1,3,1,,,,,,,,,,,,,,,,,,,,,,,,,,,,,,,,,,,,,,,,,
180815,001,2022-11-20_20h52.20.534,Info_measure_main_exp,2022.2.2,Win32,60.09615385,,,,,,,,,,,,,,,,,,masks/mask_002.jpg,,,,,,,,,,,,,,,,,,,,,,,,,,,,,,,,,,,,,,,,,,,,,,,,0,2,2,1,1,,,,,,,,,,,,,,,,,,,,,,,,,,,,,,,,,,,,,,,,,
180815,001,2022-11-20_20h52.20.534,Info_measure_main_exp,2022.2.2,Win32,60.09615385,,,,,,,,,,,,,,,,,,masks/mask_003.jpg,,,,,,,,,,,,,,,,,,,,,,,,,,,,,,,,,,,,,,,,,,,,,,,,0,3,3,2,1,,,,,,,,,,,,,,,,,,,,,,,,,,,,,,,,,,,,,,,,,
180815,001,2022-11-20_20h52.20.534,Info_measure_main_exp,2022.2.2,Win32,60.09615385,,,,,,,,,,,,,,,,,,masks/mask_005.jpg,,,,,,,,,,,,,,,,,,,,,,,,,,,,,,,,,,,,,,,,,,,,,,,,0,4,4,4,1,,,,,,,,,,,,,,,,,,,,,,,,,,,,,,,,,,,,,,,,,
180815,001,2022-11-20_20h52.20.534,Info_measure_main_exp,2022.2.2,Win32,60.09615385,,,,,,,,,,,,,,,,,,,,,,,,,,,,,,6,1.05,1,,,,,,,,,,,,1,131,5,5,2082,1,absent_patch/patch0002082.jpg,present_patch/cong_131_5_a.jpg,,,,,,,,,,,,,,,,,,,,0.122685185,0.001157407,1,0,0,response1disk,34,0.002314815,-0.002314815,1,0,0,center_square,0,33,33,65,1,,,,,,,,,,,,,,,,,,,,,,,
180815,001,2022-11-20_20h52.20.534,Info_measure_main_exp,2022.2.2,Win32,60.09615385,,,,,,,,,,,,,,,,,,masks/mask_005.jpg,,,,,,,,,,,,,,,,,,,,,,,,,,,,,,,,,,,,,,,,,,,0,0,0,4,1,,,,,,,,,,,,,,,,,,,,,,,,,,,,,,,,,,,,,,,,,,,,,,
180815,001,2022-11-20_20h52.20.534,Info_measure_main_exp,2022.2.2,Win32,60.09615385,,,,,,,,,,,,,,,,,,masks/mask_001.jpg,,,,,,,,,,,,,,,,,,,,,,,,,,,,,,,,,,,,,,,,,,,0,1,1,0,1,,,,,,,,,,,,,,,,,,,,,,,,,,,,,,,,,,,,,,,,,,,,,,
180815,001,2022-11-20_20h52.20.534,Info_measure_main_exp,2022.2.2,Win32,60.09615385,,,,,,,,,,,,,,,,,,masks/mask_004.jpg,,,,,,,,,,,,,,,,,,,,,,,,,,,,,,,,,,,,,,,,,,,0,2,2,3,1,,,,,,,,,,,,,,,,,,,,,,,,,,,,,,,,,,,,,,,,,,,,,,
180815,001,2022-11-20_20h52.20.534,Info_measure_main_exp,2022.2.2,Win32,60.09615385,,,,,,,,,,,,,,,,,,masks/mask_003.jpg,,,,,,,,,,,,,,,,,,,,,,,,,,,,,,,,,,,,,,,,,,,0,3,3,2,1,,,,,,,,,,,,,,,,,,,,,,,,,,,,,,,,,,,,,,,,,,,,,,
180815,001,2022-11-20_20h52.20.534,Info_measure_main_exp,2022.2.2,Win32,60.09615385,,,,,,,,,,,,,,,,,,masks/mask_002.jpg,,,,,,,,,,,,,,,,,,,,,,,,,,,,,,,,,,,,,,,,,,,0,4,4,1,1,,,,,,,,,,,,,,,,,,,,,,,,,,,,,,,,,,,,,,,,,,,,,,
180815,001,2022-11-20_20h52.20.534,Info_measure_main_exp,2022.2.2,Win32,60.09615385,,,,,,,,,,,,,,,,,,masks/mask_004.jpg,,,,,,,,,,,,,,,,,,,,,,,,,,,,,,,,,,,,,,,,,,,,,,,,0,0,0,3,1,,,,,,,,,,,,,,,,,,,,,,,,,,,,,,,,,,,,,,,,,
180815,001,2022-11-20_20h52.20.534,Info_measure_main_exp,2022.2.2,Win32,60.09615385,,,,,,,,,,,,,,,,,,masks/mask_005.jpg,,,,,,,,,,,,,,,,,,,,,,,,,,,,,,,,,,,,,,,,,,,,,,,,0,1,1,4,1,,,,,,,,,,,,,,,,,,,,,,,,,,,,,,,,,,,,,,,,,
180815,001,2022-11-20_20h52.20.534,Info_measure_main_exp,2022.2.2,Win32,60.09615385,,,,,,,,,,,,,,,,,,masks/mask_003.jpg,,,,,,,,,,,,,,,,,,,,,,,,,,,,,,,,,,,,,,,,,,,,,,,,0,2,2,2,1,,,,,,,,,,,,,,,,,,,,,,,,,,,,,,,,,,,,,,,,,
180815,001,2022-11-20_20h52.20.534,Info_measure_main_exp,2022.2.2,Win32,60.09615385,,,,,,,,,,,,,,,,,,masks/mask_001.jpg,,,,,,,,,,,,,,,,,,,,,,,,,,,,,,,,,,,,,,,,,,,,,,,,0,3,3,0,1,,,,,,,,,,,,,,,,,,,,,,,,,,,,,,,,,,,,,,,,,
