participant,session,date,expName,psychopyVersion,OS,frameRate,space_press_continue.keys,space_press_continue.rt,space_press_continue_2.keys,space_press_continue_2.rt,space_press_continue_3.keys,space_press_continue_3.rt,space_press_continue_4.keys,space_press_continue_4.rt,space_press_continue_5.keys,space_press_continue_5.rt,space_press_continue_6.keys,space_press_continue_6.rt,prac_mask_loop_1.thisRepN,prac_mask_loop_1.thisTrialN,prac_mask_loop_1.thisN,prac_mask_loop_1.thisIndex,prac_mask_loop_1.ran,mask_name,prac_mask_loop_2.thisRepN,prac_mask_loop_2.thisTrialN,prac_mask_loop_2.thisN,prac_mask_loop_2.thisIndex,prac_mask_loop_2.ran,mouse_2.x,mouse_2.y,mouse_2.leftButton,mouse_2.midButton,mouse_2.rightButton,mouse_2.clicked_name,similarity,response_time,Pass,mouse_12.x,mouse_12.y,mouse_12.leftButton,mouse_12.midButton,mouse_12.rightButton,mouse_12.clicked_name,prac_loop.thisRepN,prac_loop.thisTrialN,prac_loop.thisN,prac_loop.thisIndex,prac_loop.ran,Pair_type,Image_num,Patch_1_loc,Patch_2_loc,Patch_1_info,Patch_2_info,Patch_1_name,Patch_2_name,mouse_1.x,mouse_1.y,mouse_1.leftButton,mouse_1.midButton,mouse_1.rightButton,mouse_1.time,mouse_1.clicked_name,space_press_continue_7.keys,space_press_continue_7.rt,mask_loop.thisRepN,mask_loop.thisTrialN,mask_loop.thisN,mask_loop.thisIndex,mask_loop.ran,mask_loop_2.thisRepN,mask_loop_2.thisTrialN,mask_loop_2.thisN,mask_loop_2.thisIndex,mask_loop_2.ran,mouse.x,mouse.y,mouse.leftButton,mouse.midButton,mouse.rightButton,mouse.clicked_name,trialNumber,mouse_11.x,mouse_11.y,mouse_11.leftButton,mouse_11.midButton,mouse_11.rightButton,mouse_11.clicked_name,first_pass_loop.thisRepN,first_pass_loop.thisTrialN,first_pass_loop.thisN,first_pass_loop.thisIndex,first_pass_loop.ran,mask_loop_3.thisRepN,mask_loop_3.thisTrialN,mask_loop_3.thisN,mask_loop_3.thisIndex,mask_loop_3.ran,mask_loop_4.thisRepN,mask_loop_4.thisTrialN,mask_loop_4.thisN,mask_loop_4.thisIndex,mask_loop_4.ran,mouse_3.x,mouse_3.y,mouse_3.leftButton,mouse_3.midButton,mouse_3.rightButton,mouse_3.clicked_name,double_pass_loop.thisRepN,double_pass_loop.thisTrialN,double_pass_loop.thisN,double_pass_loop.thisIndex,double_pass_loop.ran,space_exit.keys,space_exit.rt
190530,001,2022-11-20_15h56.57.417,Info_measure_main_exp,2022.2.2,MacIntel,59.97361161,,,,,,,,,,,,,,,,,,,,,,,,,,,,,,,,,,,,,,,,,,,,,,,,,,,,,,,,,,,,,,,,,,,,,,,,,,,,,,,,,,,,,,,,,,,,,,,,,,,,,,,,,,,,,,,
190530,001,2022-11-20_15h56.57.417,Info_measure_main_exp,2022.2.2,MacIntel,59.97361161,,,,,,,,,,,,,,,,,,,,,,,,,,,,,,,,,,,,,,,,,,,,,,,,,,,,,,,,,,,,,,,,,,,,,,,,,,,,,,,,,,,,,,,,,,,,,,,,,,,,,,,,,,,,,,,
190530,001,2022-11-20_15h56.57.417,Info_measure_main_exp,2022.2.2,MacIntel,59.97361161,space,6.4671,,,,,,,,,,,,,,,,,,,,,,,,,,,,,,,,,,,,,,,,,,,,,,,,,,,,,,,,,,,,,,,,,,,,,,,,,,,,,,,,,,,,,,,,,,,,,,,,,,,,,,,,,,,,,
190530,001,2022-11-20_15h56.57.417,Info_measure_main_exp,2022.2.2,MacIntel,59.97361161,,,space,15.6426,,,,,,,,,,,,,,,,,,,,,,,,,,,,,,,,,,,,,,,,,,,,,,,,,,,,,,,,,,,,,,,,,,,,,,,,,,,,,,,,,,,,,,,,,,,,,,,,,,,,,,,,,,,
190530,001,2022-11-20_15h56.57.417,Info_measure_main_exp,2022.2.2,MacIntel,59.97361161,,,,,space,7.3231,,,,,,,,,,,,,,,,,,,,,,,,,,,,,,,,,,,,,,,,,,,,,,,,,,,,,,,,,,,,,,,,,,,,,,,,,,,,,,,,,,,,,,,,,,,,,,,,,,,,,,,,,
190530,001,2022-11-20_15h56.57.417,Info_measure_main_exp,2022.2.2,MacIntel,59.97361161,,,,,,,space,29.4732,,,,,,,,,,,,,,,,,,,,,,,,,,,,,,,,,,,,,,,,,,,,,,,,,,,,,,,,,,,,,,,,,,,,,,,,,,,,,,,,,,,,,,,,,,,,,,,,,,,,,,,
190530,001,2022-11-20_15h56.57.417,Info_measure_main_exp,2022.2.2,MacIntel,59.97361161,,,,,,,,,space,6.2332,,,,,,,,,,,,,,,,,,,,,,,,,,,,,,,,,,,,,,,,,,,,,,,,,,,,,,,,,,,,,,,,,,,,,,,,,,,,,,,,,,,,,,,,,,,,,,,,,,,,,
190530,001,2022-11-20_15h56.57.417,Info_measure_main_exp,2022.2.2,MacIntel,59.97361161,,,,,,,,,,,space,5.6577,,,,,,,,,,,,,,,,,,,,,,,,,,,,,,,,,,,,,,,,,,,,,,,,,,,,,,,,,,,,,,,,,,,,,,,,,,,,,,,,,,,,,,,,,,,,,,,,,,,
190530,001,2022-11-20_15h56.57.417,Info_measure_main_exp,2022.2.2,MacIntel,59.97361161,,,,,,,,,,,,,0,0,0,2,1,masks/mask_003.jpg,,,,,,,,,,,,,,,,,,,,,,,,,,,,,,,,,,,,,,,,,,,,,,,,,,,,,,,,,,,,,,,,,,,,,,,,,,,,,,,,,,,,,,,,,,,,,
190530,001,2022-11-20_15h56.57.417,Info_measure_main_exp,2022.2.2,MacIntel,59.97361161,,,,,,,,,,,,,0,1,1,4,1,masks/mask_005.jpg,,,,,,,,,,,,,,,,,,,,,,,,,,,,,,,,,,,,,,,,,,,,,,,,,,,,,,,,,,,,,,,,,,,,,,,,,,,,,,,,,,,,,,,,,,,,,
190530,001,2022-11-20_15h56.57.417,Info_measure_main_exp,2022.2.2,MacIntel,59.97361161,,,,,,,,,,,,,0,2,2,1,1,masks/mask_002.jpg,,,,,,,,,,,,,,,,,,,,,,,,,,,,,,,,,,,,,,,,,,,,,,,,,,,,,,,,,,,,,,,,,,,,,,,,,,,,,,,,,,,,,,,,,,,,,
190530,001,2022-11-20_15h56.57.417,Info_measure_main_exp,2022.2.2,MacIntel,59.97361161,,,,,,,,,,,,,0,3,3,0,1,masks/mask_001.jpg,,,,,,,,,,,,,,,,,,,,,,,,,,,,,,,,,,,,,,,,,,,,,,,,,,,,,,,,,,,,,,,,,,,,,,,,,,,,,,,,,,,,,,,,,,,,,
190530,001,2022-11-20_15h56.57.417,Info_measure_main_exp,2022.2.2,MacIntel,59.97361161,,,,,,,,,,,,,0,4,4,3,1,masks/mask_004.jpg,,,,,,,,,,,,,,,,,,,,,,,,,,,,,,,,,,,,,,,,,,,,,,,,,,,,,,,,,,,,,,,,,,,,,,,,,,,,,,,,,,,,,,,,,,,,,
190530,001,2022-11-20_15h56.57.417,Info_measure_main_exp,2022.2.2,MacIntel,59.97361161,,,,,,,,,,,,,,,,,,masks/mask_003.jpg,0,0,0,2,1,,,,,,,,,,,,,,,,,,,,,,,,,,,,,,,,,,,,,,,,,,,,,,,,,,,,,,,,,,,,,,,,,,,,,,,,,,,,,,,,,,,,,,,,
190530,001,2022-11-20_15h56.57.417,Info_measure_main_exp,2022.2.2,MacIntel,59.97361161,,,,,,,,,,,,,,,,,,masks/mask_005.jpg,0,1,1,4,1,,,,,,,,,,,,,,,,,,,,,,,,,,,,,,,,,,,,,,,,,,,,,,,,,,,,,,,,,,,,,,,,,,,,,,,,,,,,,,,,,,,,,,,,
190530,001,2022-11-20_15h56.57.417,Info_measure_main_exp,2022.2.2,MacIntel,59.97361161,,,,,,,,,,,,,,,,,,masks/mask_004.jpg,0,2,2,3,1,,,,,,,,,,,,,,,,,,,,,,,,,,,,,,,,,,,,,,,,,,,,,,,,,,,,,,,,,,,,,,,,,,,,,,,,,,,,,,,,,,,,,,,,
190530,001,2022-11-20_15h56.57.417,Info_measure_main_exp,2022.2.2,MacIntel,59.97361161,,,,,,,,,,,,,,,,,,masks/mask_001.jpg,0,3,3,0,1,,,,,,,,,,,,,,,,,,,,,,,,,,,,,,,,,,,,,,,,,,,,,,,,,,,,,,,,,,,,,,,,,,,,,,,,,,,,,,,,,,,,,,,,
190530,001,2022-11-20_15h56.57.417,Info_measure_main_exp,2022.2.2,MacIntel,59.97361161,,,,,,,,,,,,,,,,,,masks/mask_002.jpg,0,4,4,1,1,,,,,,,,,,,,,,,,,,,,,,,,,,,,,,,,,,,,,,,,,,,,,,,,,,,,,,,,,,,,,,,,,,,,,,,,,,,,,,,,,,,,,,,,
190530,001,2022-11-20_15h56.57.417,Info_measure_main_exp,2022.2.2,MacIntel,59.97361161,,,,,,,,,,,,,,,,,,,,,,,,-0.030601654,0.133055954,1,0,0,response7disk,0,76.5657,1,0.001194916,-0.001546631,1,0,0,center_square,0,0,0,2,1,0,131,5,5,2526,2526,prac_patch/patch0002526.jpg,prac_patch/patch0002526.jpg,,,,,,,,,,,,,,,,,,,,,,,,,,,,,,,,,,,,,,,,,,,,,,,,,,,,,,,,,,,,
190530,001,2022-11-20_15h56.57.417,Info_measure_main_exp,2022.2.2,MacIntel,59.97361161,,,,,,,,,,,,,0,0,0,2,1,masks/mask_003.jpg,,,,,,,,,,,,,,,,,,,,,,,,,,,,,,,,,,,,,,,,,,,,,,,,,,,,,,,,,,,,,,,,,,,,,,,,,,,,,,,,,,,,,,,,,,,,,
190530,001,2022-11-20_15h56.57.417,Info_measure_main_exp,2022.2.2,MacIntel,59.97361161,,,,,,,,,,,,,0,1,1,4,1,masks/mask_005.jpg,,,,,,,,,,,,,,,,,,,,,,,,,,,,,,,,,,,,,,,,,,,,,,,,,,,,,,,,,,,,,,,,,,,,,,,,,,,,,,,,,,,,,,,,,,,,,
190530,001,2022-11-20_15h56.57.417,Info_measure_main_exp,2022.2.2,MacIntel,59.97361161,,,,,,,,,,,,,0,2,2,0,1,masks/mask_001.jpg,,,,,,,,,,,,,,,,,,,,,,,,,,,,,,,,,,,,,,,,,,,,,,,,,,,,,,,,,,,,,,,,,,,,,,,,,,,,,,,,,,,,,,,,,,,,,
190530,001,2022-11-20_15h56.57.417,Info_measure_main_exp,2022.2.2,MacIntel,59.97361161,,,,,,,,,,,,,0,3,3,1,1,masks/mask_002.jpg,,,,,,,,,,,,,,,,,,,,,,,,,,,,,,,,,,,,,,,,,,,,,,,,,,,,,,,,,,,,,,,,,,,,,,,,,,,,,,,,,,,,,,,,,,,,,
190530,001,2022-11-20_15h56.57.417,Info_measure_main_exp,2022.2.2,MacIntel,59.97361161,,,,,,,,,,,,,0,4,4,3,1,masks/mask_004.jpg,,,,,,,,,,,,,,,,,,,,,,,,,,,,,,,,,,,,,,,,,,,,,,,,,,,,,,,,,,,,,,,,,,,,,,,,,,,,,,,,,,,,,,,,,,,,,
190530,001,2022-11-20_15h56.57.417,Info_measure_main_exp,2022.2.2,MacIntel,59.97361161,,,,,,,,,,,,,,,,,,masks/mask_003.jpg,0,0,0,2,1,,,,,,,,,,,,,,,,,,,,,,,,,,,,,,,,,,,,,,,,,,,,,,,,,,,,,,,,,,,,,,,,,,,,,,,,,,,,,,,,,,,,,,,,
190530,001,2022-11-20_15h56.57.417,Info_measure_main_exp,2022.2.2,MacIntel,59.97361161,,,,,,,,,,,,,,,,,,masks/mask_004.jpg,0,1,1,3,1,,,,,,,,,,,,,,,,,,,,,,,,,,,,,,,,,,,,,,,,,,,,,,,,,,,,,,,,,,,,,,,,,,,,,,,,,,,,,,,,,,,,,,,,
190530,001,2022-11-20_15h56.57.417,Info_measure_main_exp,2022.2.2,MacIntel,59.97361161,,,,,,,,,,,,,,,,,,masks/mask_001.jpg,0,2,2,0,1,,,,,,,,,,,,,,,,,,,,,,,,,,,,,,,,,,,,,,,,,,,,,,,,,,,,,,,,,,,,,,,,,,,,,,,,,,,,,,,,,,,,,,,,
190530,001,2022-11-20_15h56.57.417,Info_measure_main_exp,2022.2.2,MacIntel,59.97361161,,,,,,,,,,,,,,,,,,masks/mask_005.jpg,0,3,3,4,1,,,,,,,,,,,,,,,,,,,,,,,,,,,,,,,,,,,,,,,,,,,,,,,,,,,,,,,,,,,,,,,,,,,,,,,,,,,,,,,,,,,,,,,,
190530,001,2022-11-20_15h56.57.417,Info_measure_main_exp,2022.2.2,MacIntel,59.97361161,,,,,,,,,,,,,,,,,,masks/mask_002.jpg,0,4,4,1,1,,,,,,,,,,,,,,,,,,,,,,,,,,,,,,,,,,,,,,,,,,,,,,,,,,,,,,,,,,,,,,,,,,,,,,,,,,,,,,,,,,,,,,,,
190530,001,2022-11-20_15h56.57.417,Info_measure_main_exp,2022.2.2,MacIntel,59.97361161,,,,,,,,,,,,,,,,,,,,,,,,0.018597717,0.076407394,1,0,0,response1disk,7,94.2973,1,1.98364E-06,-0.004540253,1,0,0,center_square,0,1,1,0,1,0,131,5,5,2370,2406,prac_patch/patch0002370.jpg,prac_patch/patch0002406.jpg,,,,,,,,,,,,,,,,,,,,,,,,,,,,,,,,,,,,,,,,,,,,,,,,,,,,,,,,,,,,
190530,001,2022-11-20_15h56.57.417,Info_measure_main_exp,2022.2.2,MacIntel,59.97361161,,,,,,,,,,,,,0,0,0,1,1,masks/mask_002.jpg,,,,,,,,,,,,,,,,,,,,,,,,,,,,,,,,,,,,,,,,,,,,,,,,,,,,,,,,,,,,,,,,,,,,,,,,,,,,,,,,,,,,,,,,,,,,,
190530,001,2022-11-20_15h56.57.417,Info_measure_main_exp,2022.2.2,MacIntel,59.97361161,,,,,,,,,,,,,0,1,1,3,1,masks/mask_004.jpg,,,,,,,,,,,,,,,,,,,,,,,,,,,,,,,,,,,,,,,,,,,,,,,,,,,,,,,,,,,,,,,,,,,,,,,,,,,,,,,,,,,,,,,,,,,,,
190530,001,2022-11-20_15h56.57.417,Info_measure_main_exp,2022.2.2,MacIntel,59.97361161,,,,,,,,,,,,,0,2,2,2,1,masks/mask_003.jpg,,,,,,,,,,,,,,,,,,,,,,,,,,,,,,,,,,,,,,,,,,,,,,,,,,,,,,,,,,,,,,,,,,,,,,,,,,,,,,,,,,,,,,,,,,,,,
190530,001,2022-11-20_15h56.57.417,Info_measure_main_exp,2022.2.2,MacIntel,59.97361161,,,,,,,,,,,,,0,3,3,0,1,masks/mask_001.jpg,,,,,,,,,,,,,,,,,,,,,,,,,,,,,,,,,,,,,,,,,,,,,,,,,,,,,,,,,,,,,,,,,,,,,,,,,,,,,,,,,,,,,,,,,,,,,
190530,001,2022-11-20_15h56.57.417,Info_measure_main_exp,2022.2.2,MacIntel,59.97361161,,,,,,,,,,,,,0,4,4,4,1,masks/mask_005.jpg,,,,,,,,,,,,,,,,,,,,,,,,,,,,,,,,,,,,,,,,,,,,,,,,,,,,,,,,,,,,,,,,,,,,,,,,,,,,,,,,,,,,,,,,,,,,,
190530,001,2022-11-20_15h56.57.417,Info_measure_main_exp,2022.2.2,MacIntel,59.97361161,,,,,,,,,,,,,,,,,,masks/mask_005.jpg,0,0,0,4,1,,,,,,,,,,,,,,,,,,,,,,,,,,,,,,,,,,,,,,,,,,,,,,,,,,,,,,,,,,,,,,,,,,,,,,,,,,,,,,,,,,,,,,,,
190530,001,2022-11-20_15h56.57.417,Info_measure_main_exp,2022.2.2,MacIntel,59.97361161,,,,,,,,,,,,,,,,,,masks/mask_001.jpg,0,1,1,0,1,,,,,,,,,,,,,,,,,,,,,,,,,,,,,,,,,,,,,,,,,,,,,,,,,,,,,,,,,,,,,,,,,,,,,,,,,,,,,,,,,,,,,,,,
190530,001,2022-11-20_15h56.57.417,Info_measure_main_exp,2022.2.2,MacIntel,59.97361161,,,,,,,,,,,,,,,,,,masks/mask_003.jpg,0,2,2,2,1,,,,,,,,,,,,,,,,,,,,,,,,,,,,,,,,,,,,,,,,,,,,,,,,,,,,,,,,,,,,,,,,,,,,,,,,,,,,,,,,,,,,,,,,
190530,001,2022-11-20_15h56.57.417,Info_measure_main_exp,2022.2.2,MacIntel,59.97361161,,,,,,,,,,,,,,,,,,masks/mask_004.jpg,0,3,3,3,1,,,,,,,,,,,,,,,,,,,,,,,,,,,,,,,,,,,,,,,,,,,,,,,,,,,,,,,,,,,,,,,,,,,,,,,,,,,,,,,,,,,,,,,,
190530,001,2022-11-20_15h56.57.417,Info_measure_main_exp,2022.2.2,MacIntel,59.97361161,,,,,,,,,,,,,,,,,,masks/mask_002.jpg,0,4,4,1,1,,,,,,,,,,,,,,,,,,,,,,,,,,,,,,,,,,,,,,,,,,,,,,,,,,,,,,,,,,,,,,,,,,,,,,,,,,,,,,,,,,,,,,,,
190530,001,2022-11-20_15h56.57.417,Info_measure_main_exp,2022.2.2,MacIntel,59.97361161,,,,,,,,,,,,,,,,,,,,,,,,0.03142807,-0.016991653,1,0,0,response3disk,5,105.8857,1,-0.00244339,0.003902893,1,0,0,center_square,0,2,2,1,1,0,131,5,5,2514,2490,prac_patch/patch0002514.jpg,prac_patch/patch0002490.jpg,,,,,,,,,,,,,,,,,,,,,,,,,,,,,,,,,,,,,,,,,,,,,,,,,,,,,,,,,,,,
190530,001,2022-11-20_15h56.57.417,Info_measure_main_exp,2022.2.2,MacIntel,59.97361161,,,,,,,,,,,,,,,,,,,,,,,,,,,,,,,,,,,,,,,,,,,,,,,,,,,,,,,,,,,space,3.0271,,,,,,,,,,,,,,,,,,,,,,,,,,,,,,,,,,,,,,,,,,,,,,,,,,,
190530,001,2022-11-20_15h56.57.417,Info_measure_main_exp,2022.2.2,MacIntel,59.97361161,,,,,,,,,,,,,,,,,,masks/mask_002.jpg,,,,,,,,,,,,,,,,,,,,,,,,,,,,,,,,,,,,,,,,,,,0,0,0,1,1,,,,,,,,,,,,,,,,,,,,,,,,,,,,,,,,,,,,,,,,,,,,,,
190530,001,2022-11-20_15h56.57.417,Info_measure_main_exp,2022.2.2,MacIntel,59.97361161,,,,,,,,,,,,,,,,,,masks/mask_005.jpg,,,,,,,,,,,,,,,,,,,,,,,,,,,,,,,,,,,,,,,,,,,0,1,1,4,1,,,,,,,,,,,,,,,,,,,,,,,,,,,,,,,,,,,,,,,,,,,,,,
190530,001,2022-11-20_15h56.57.417,Info_measure_main_exp,2022.2.2,MacIntel,59.97361161,,,,,,,,,,,,,,,,,,masks/mask_001.jpg,,,,,,,,,,,,,,,,,,,,,,,,,,,,,,,,,,,,,,,,,,,0,2,2,0,1,,,,,,,,,,,,,,,,,,,,,,,,,,,,,,,,,,,,,,,,,,,,,,
190530,001,2022-11-20_15h56.57.417,Info_measure_main_exp,2022.2.2,MacIntel,59.97361161,,,,,,,,,,,,,,,,,,masks/mask_004.jpg,,,,,,,,,,,,,,,,,,,,,,,,,,,,,,,,,,,,,,,,,,,0,3,3,3,1,,,,,,,,,,,,,,,,,,,,,,,,,,,,,,,,,,,,,,,,,,,,,,
190530,001,2022-11-20_15h56.57.417,Info_measure_main_exp,2022.2.2,MacIntel,59.97361161,,,,,,,,,,,,,,,,,,masks/mask_003.jpg,,,,,,,,,,,,,,,,,,,,,,,,,,,,,,,,,,,,,,,,,,,0,4,4,2,1,,,,,,,,,,,,,,,,,,,,,,,,,,,,,,,,,,,,,,,,,,,,,,
190530,001,2022-11-20_15h56.57.417,Info_measure_main_exp,2022.2.2,MacIntel,59.97361161,,,,,,,,,,,,,,,,,,masks/mask_005.jpg,,,,,,,,,,,,,,,,,,,,,,,,,,,,,,,,,,,,,,,,,,,,,,,,0,0,0,4,1,,,,,,,,,,,,,,,,,,,,,,,,,,,,,,,,,,,,,,,,,
190530,001,2022-11-20_15h56.57.417,Info_measure_main_exp,2022.2.2,MacIntel,59.97361161,,,,,,,,,,,,,,,,,,masks/mask_003.jpg,,,,,,,,,,,,,,,,,,,,,,,,,,,,,,,,,,,,,,,,,,,,,,,,0,1,1,2,1,,,,,,,,,,,,,,,,,,,,,,,,,,,,,,,,,,,,,,,,,
190530,001,2022-11-20_15h56.57.417,Info_measure_main_exp,2022.2.2,MacIntel,59.97361161,,,,,,,,,,,,,,,,,,masks/mask_004.jpg,,,,,,,,,,,,,,,,,,,,,,,,,,,,,,,,,,,,,,,,,,,,,,,,0,2,2,3,1,,,,,,,,,,,,,,,,,,,,,,,,,,,,,,,,,,,,,,,,,
190530,001,2022-11-20_15h56.57.417,Info_measure_main_exp,2022.2.2,MacIntel,59.97361161,,,,,,,,,,,,,,,,,,masks/mask_001.jpg,,,,,,,,,,,,,,,,,,,,,,,,,,,,,,,,,,,,,,,,,,,,,,,,0,3,3,0,1,,,,,,,,,,,,,,,,,,,,,,,,,,,,,,,,,,,,,,,,,
190530,001,2022-11-20_15h56.57.417,Info_measure_main_exp,2022.2.2,MacIntel,59.97361161,,,,,,,,,,,,,,,,,,masks/mask_002.jpg,,,,,,,,,,,,,,,,,,,,,,,,,,,,,,,,,,,,,,,,,,,,,,,,0,4,4,1,1,,,,,,,,,,,,,,,,,,,,,,,,,,,,,,,,,,,,,,,,,
190530,001,2022-11-20_15h56.57.417,Info_measure_main_exp,2022.2.2,MacIntel,59.97361161,,,,,,,,,,,,,,,,,,,,,,,,,,,,,,7,2.4512,1,,,,,,,,,,,,0,131,5,5,1950,2166,absent_patch/patch0001950.jpg,absent_patch/patch0002166.jpg,,,,,,,,,,,,,,,,,,,,0.014717712,0.049263268,1,0,0,response1disk,1,0.000909271,-0.003910751,1,0,0,center_square,0,0,0,0,1,,,,,,,,,,,,,,,,,,,,,,,
190530,001,2022-11-20_15h56.57.417,Info_measure_main_exp,2022.2.2,MacIntel,59.97361161,,,,,,,,,,,,,,,,,,masks/mask_003.jpg,,,,,,,,,,,,,,,,,,,,,,,,,,,,,,,,,,,,,,,,,,,0,0,0,2,1,,,,,,,,,,,,,,,,,,,,,,,,,,,,,,,,,,,,,,,,,,,,,,
190530,001,2022-11-20_15h56.57.417,Info_measure_main_exp,2022.2.2,MacIntel,59.97361161,,,,,,,,,,,,,,,,,,masks/mask_005.jpg,,,,,,,,,,,,,,,,,,,,,,,,,,,,,,,,,,,,,,,,,,,0,1,1,4,1,,,,,,,,,,,,,,,,,,,,,,,,,,,,,,,,,,,,,,,,,,,,,,
190530,001,2022-11-20_15h56.57.417,Info_measure_main_exp,2022.2.2,MacIntel,59.97361161,,,,,,,,,,,,,,,,,,masks/mask_001.jpg,,,,,,,,,,,,,,,,,,,,,,,,,,,,,,,,,,,,,,,,,,,0,2,2,0,1,,,,,,,,,,,,,,,,,,,,,,,,,,,,,,,,,,,,,,,,,,,,,,
190530,001,2022-11-20_15h56.57.417,Info_measure_main_exp,2022.2.2,MacIntel,59.97361161,,,,,,,,,,,,,,,,,,masks/mask_004.jpg,,,,,,,,,,,,,,,,,,,,,,,,,,,,,,,,,,,,,,,,,,,0,3,3,3,1,,,,,,,,,,,,,,,,,,,,,,,,,,,,,,,,,,,,,,,,,,,,,,
190530,001,2022-11-20_15h56.57.417,Info_measure_main_exp,2022.2.2,MacIntel,59.97361161,,,,,,,,,,,,,,,,,,masks/mask_002.jpg,,,,,,,,,,,,,,,,,,,,,,,,,,,,,,,,,,,,,,,,,,,0,4,4,1,1,,,,,,,,,,,,,,,,,,,,,,,,,,,,,,,,,,,,,,,,,,,,,,
190530,001,2022-11-20_15h56.57.417,Info_measure_main_exp,2022.2.2,MacIntel,59.97361161,,,,,,,,,,,,,,,,,,masks/mask_005.jpg,,,,,,,,,,,,,,,,,,,,,,,,,,,,,,,,,,,,,,,,,,,,,,,,0,0,0,4,1,,,,,,,,,,,,,,,,,,,,,,,,,,,,,,,,,,,,,,,,,
190530,001,2022-11-20_15h56.57.417,Info_measure_main_exp,2022.2.2,MacIntel,59.97361161,,,,,,,,,,,,,,,,,,masks/mask_002.jpg,,,,,,,,,,,,,,,,,,,,,,,,,,,,,,,,,,,,,,,,,,,,,,,,0,1,1,1,1,,,,,,,,,,,,,,,,,,,,,,,,,,,,,,,,,,,,,,,,,
190530,001,2022-11-20_15h56.57.417,Info_measure_main_exp,2022.2.2,MacIntel,59.97361161,,,,,,,,,,,,,,,,,,masks/mask_003.jpg,,,,,,,,,,,,,,,,,,,,,,,,,,,,,,,,,,,,,,,,,,,,,,,,0,2,2,2,1,,,,,,,,,,,,,,,,,,,,,,,,,,,,,,,,,,,,,,,,,
190530,001,2022-11-20_15h56.57.417,Info_measure_main_exp,2022.2.2,MacIntel,59.97361161,,,,,,,,,,,,,,,,,,masks/mask_004.jpg,,,,,,,,,,,,,,,,,,,,,,,,,,,,,,,,,,,,,,,,,,,,,,,,0,3,3,3,1,,,,,,,,,,,,,,,,,,,,,,,,,,,,,,,,,,,,,,,,,
190530,001,2022-11-20_15h56.57.417,Info_measure_main_exp,2022.2.2,MacIntel,59.97361161,,,,,,,,,,,,,,,,,,masks/mask_001.jpg,,,,,,,,,,,,,,,,,,,,,,,,,,,,,,,,,,,,,,,,,,,,,,,,0,4,4,0,1,,,,,,,,,,,,,,,,,,,,,,,,,,,,,,,,,,,,,,,,,
190530,001,2022-11-20_15h56.57.417,Info_measure_main_exp,2022.2.2,MacIntel,59.97361161,,,,,,,,,,,,,,,,,,,,,,,,,,,,,,7,2.7671,1,,,,,,,,,,,,0,131,5,5,2298,2142,absent_patch/patch0002298.jpg,absent_patch/patch0002142.jpg,,,,,,,,,,,,,,,,,,,,0.009605255,0.040000534,1,0,0,response1disk,2,0.000371552,0.001455307,1,0,0,center_square,0,1,1,49,1,,,,,,,,,,,,,,,,,,,,,,,
190530,001,2022-11-20_15h56.57.417,Info_measure_main_exp,2022.2.2,MacIntel,59.97361161,,,,,,,,,,,,,,,,,,masks/mask_001.jpg,,,,,,,,,,,,,,,,,,,,,,,,,,,,,,,,,,,,,,,,,,,0,0,0,0,1,,,,,,,,,,,,,,,,,,,,,,,,,,,,,,,,,,,,,,,,,,,,,,
190530,001,2022-11-20_15h56.57.417,Info_measure_main_exp,2022.2.2,MacIntel,59.97361161,,,,,,,,,,,,,,,,,,masks/mask_002.jpg,,,,,,,,,,,,,,,,,,,,,,,,,,,,,,,,,,,,,,,,,,,0,1,1,1,1,,,,,,,,,,,,,,,,,,,,,,,,,,,,,,,,,,,,,,,,,,,,,,
190530,001,2022-11-20_15h56.57.417,Info_measure_main_exp,2022.2.2,MacIntel,59.97361161,,,,,,,,,,,,,,,,,,masks/mask_004.jpg,,,,,,,,,,,,,,,,,,,,,,,,,,,,,,,,,,,,,,,,,,,0,2,2,3,1,,,,,,,,,,,,,,,,,,,,,,,,,,,,,,,,,,,,,,,,,,,,,,
190530,001,2022-11-20_15h56.57.417,Info_measure_main_exp,2022.2.2,MacIntel,59.97361161,,,,,,,,,,,,,,,,,,masks/mask_003.jpg,,,,,,,,,,,,,,,,,,,,,,,,,,,,,,,,,,,,,,,,,,,0,3,3,2,1,,,,,,,,,,,,,,,,,,,,,,,,,,,,,,,,,,,,,,,,,,,,,,
190530,001,2022-11-20_15h56.57.417,Info_measure_main_exp,2022.2.2,MacIntel,59.97361161,,,,,,,,,,,,,,,,,,masks/mask_005.jpg,,,,,,,,,,,,,,,,,,,,,,,,,,,,,,,,,,,,,,,,,,,0,4,4,4,1,,,,,,,,,,,,,,,,,,,,,,,,,,,,,,,,,,,,,,,,,,,,,,
190530,001,2022-11-20_15h56.57.417,Info_measure_main_exp,2022.2.2,MacIntel,59.97361161,,,,,,,,,,,,,,,,,,masks/mask_001.jpg,,,,,,,,,,,,,,,,,,,,,,,,,,,,,,,,,,,,,,,,,,,,,,,,0,0,0,0,1,,,,,,,,,,,,,,,,,,,,,,,,,,,,,,,,,,,,,,,,,
190530,001,2022-11-20_15h56.57.417,Info_measure_main_exp,2022.2.2,MacIntel,59.97361161,,,,,,,,,,,,,,,,,,masks/mask_002.jpg,,,,,,,,,,,,,,,,,,,,,,,,,,,,,,,,,,,,,,,,,,,,,,,,0,1,1,1,1,,,,,,,,,,,,,,,,,,,,,,,,,,,,,,,,,,,,,,,,,
190530,001,2022-11-20_15h56.57.417,Info_measure_main_exp,2022.2.2,MacIntel,59.97361161,,,,,,,,,,,,,,,,,,masks/mask_005.jpg,,,,,,,,,,,,,,,,,,,,,,,,,,,,,,,,,,,,,,,,,,,,,,,,0,2,2,4,1,,,,,,,,,,,,,,,,,,,,,,,,,,,,,,,,,,,,,,,,,
190530,001,2022-11-20_15h56.57.417,Info_measure_main_exp,2022.2.2,MacIntel,59.97361161,,,,,,,,,,,,,,,,,,masks/mask_003.jpg,,,,,,,,,,,,,,,,,,,,,,,,,,,,,,,,,,,,,,,,,,,,,,,,0,3,3,2,1,,,,,,,,,,,,,,,,,,,,,,,,,,,,,,,,,,,,,,,,,
190530,001,2022-11-20_15h56.57.417,Info_measure_main_exp,2022.2.2,MacIntel,59.97361161,,,,,,,,,,,,,,,,,,masks/mask_004.jpg,,,,,,,,,,,,,,,,,,,,,,,,,,,,,,,,,,,,,,,,,,,,,,,,0,4,4,3,1,,,,,,,,,,,,,,,,,,,,,,,,,,,,,,,,,,,,,,,,,
190530,001,2022-11-20_15h56.57.417,Info_measure_main_exp,2022.2.2,MacIntel,59.97361161,,,,,,,,,,,,,,,,,,,,,,,,,,,,,,6,4.582,1,,,,,,,,,,,,0,131,5,5,2082,2238,absent_patch/patch0002082.jpg,absent_patch/patch0002238.jpg,,,,,,,,,,,,,,,,,,,,0.036669388,0.014602356,1,0,0,response1disk,3,0.001810608,-0.00291954,1,0,0,center_square,0,2,2,22,1,,,,,,,,,,,,,,,,,,,,,,,
190530,001,2022-11-20_15h56.57.417,Info_measure_main_exp,2022.2.2,MacIntel,59.97361161,,,,,,,,,,,,,,,,,,masks/mask_003.jpg,,,,,,,,,,,,,,,,,,,,,,,,,,,,,,,,,,,,,,,,,,,0,0,0,2,1,,,,,,,,,,,,,,,,,,,,,,,,,,,,,,,,,,,,,,,,,,,,,,
190530,001,2022-11-20_15h56.57.417,Info_measure_main_exp,2022.2.2,MacIntel,59.97361161,,,,,,,,,,,,,,,,,,masks/mask_001.jpg,,,,,,,,,,,,,,,,,,,,,,,,,,,,,,,,,,,,,,,,,,,0,1,1,0,1,,,,,,,,,,,,,,,,,,,,,,,,,,,,,,,,,,,,,,,,,,,,,,
190530,001,2022-11-20_15h56.57.417,Info_measure_main_exp,2022.2.2,MacIntel,59.97361161,,,,,,,,,,,,,,,,,,masks/mask_002.jpg,,,,,,,,,,,,,,,,,,,,,,,,,,,,,,,,,,,,,,,,,,,0,2,2,1,1,,,,,,,,,,,,,,,,,,,,,,,,,,,,,,,,,,,,,,,,,,,,,,
190530,001,2022-11-20_15h56.57.417,Info_measure_main_exp,2022.2.2,MacIntel,59.97361161,,,,,,,,,,,,,,,,,,masks/mask_005.jpg,,,,,,,,,,,,,,,,,,,,,,,,,,,,,,,,,,,,,,,,,,,0,3,3,4,1,,,,,,,,,,,,,,,,,,,,,,,,,,,,,,,,,,,,,,,,,,,,,,
190530,001,2022-11-20_15h56.57.417,Info_measure_main_exp,2022.2.2,MacIntel,59.97361161,,,,,,,,,,,,,,,,,,masks/mask_004.jpg,,,,,,,,,,,,,,,,,,,,,,,,,,,,,,,,,,,,,,,,,,,0,4,4,3,1,,,,,,,,,,,,,,,,,,,,,,,,,,,,,,,,,,,,,,,,,,,,,,
190530,001,2022-11-20_15h56.57.417,Info_measure_main_exp,2022.2.2,MacIntel,59.97361161,,,,,,,,,,,,,,,,,,masks/mask_003.jpg,,,,,,,,,,,,,,,,,,,,,,,,,,,,,,,,,,,,,,,,,,,,,,,,0,0,0,2,1,,,,,,,,,,,,,,,,,,,,,,,,,,,,,,,,,,,,,,,,,
190530,001,2022-11-20_15h56.57.417,Info_measure_main_exp,2022.2.2,MacIntel,59.97361161,,,,,,,,,,,,,,,,,,masks/mask_001.jpg,,,,,,,,,,,,,,,,,,,,,,,,,,,,,,,,,,,,,,,,,,,,,,,,0,1,1,0,1,,,,,,,,,,,,,,,,,,,,,,,,,,,,,,,,,,,,,,,,,
190530,001,2022-11-20_15h56.57.417,Info_measure_main_exp,2022.2.2,MacIntel,59.97361161,,,,,,,,,,,,,,,,,,masks/mask_005.jpg,,,,,,,,,,,,,,,,,,,,,,,,,,,,,,,,,,,,,,,,,,,,,,,,0,2,2,4,1,,,,,,,,,,,,,,,,,,,,,,,,,,,,,,,,,,,,,,,,,
190530,001,2022-11-20_15h56.57.417,Info_measure_main_exp,2022.2.2,MacIntel,59.97361161,,,,,,,,,,,,,,,,,,masks/mask_002.jpg,,,,,,,,,,,,,,,,,,,,,,,,,,,,,,,,,,,,,,,,,,,,,,,,0,3,3,1,1,,,,,,,,,,,,,,,,,,,,,,,,,,,,,,,,,,,,,,,,,
190530,001,2022-11-20_15h56.57.417,Info_measure_main_exp,2022.2.2,MacIntel,59.97361161,,,,,,,,,,,,,,,,,,masks/mask_004.jpg,,,,,,,,,,,,,,,,,,,,,,,,,,,,,,,,,,,,,,,,,,,,,,,,0,4,4,3,1,,,,,,,,,,,,,,,,,,,,,,,,,,,,,,,,,,,,,,,,,
190530,001,2022-11-20_15h56.57.417,Info_measure_main_exp,2022.2.2,MacIntel,59.97361161,,,,,,,,,,,,,,,,,,,,,,,,,,,,,,5,2.5343,1,,,,,,,,,,,,0,131,5,5,2082,2166,absent_patch/patch0002082.jpg,absent_patch/patch0002166.jpg,,,,,,,,,,,,,,,,,,,,0.020272675,-0.012015991,1,0,0,response3disk,4,-0.006026764,-0.00054657,1,0,0,center_square,0,3,3,43,1,,,,,,,,,,,,,,,,,,,,,,,
190530,001,2022-11-20_15h56.57.417,Info_measure_main_exp,2022.2.2,MacIntel,59.97361161,,,,,,,,,,,,,,,,,,masks/mask_002.jpg,,,,,,,,,,,,,,,,,,,,,,,,,,,,,,,,,,,,,,,,,,,0,0,0,1,1,,,,,,,,,,,,,,,,,,,,,,,,,,,,,,,,,,,,,,,,,,,,,,
190530,001,2022-11-20_15h56.57.417,Info_measure_main_exp,2022.2.2,MacIntel,59.97361161,,,,,,,,,,,,,,,,,,masks/mask_005.jpg,,,,,,,,,,,,,,,,,,,,,,,,,,,,,,,,,,,,,,,,,,,0,1,1,4,1,,,,,,,,,,,,,,,,,,,,,,,,,,,,,,,,,,,,,,,,,,,,,,
190530,001,2022-11-20_15h56.57.417,Info_measure_main_exp,2022.2.2,MacIntel,59.97361161,,,,,,,,,,,,,,,,,,masks/mask_004.jpg,,,,,,,,,,,,,,,,,,,,,,,,,,,,,,,,,,,,,,,,,,,0,2,2,3,1,,,,,,,,,,,,,,,,,,,,,,,,,,,,,,,,,,,,,,,,,,,,,,
190530,001,2022-11-20_15h56.57.417,Info_measure_main_exp,2022.2.2,MacIntel,59.97361161,,,,,,,,,,,,,,,,,,masks/mask_003.jpg,,,,,,,,,,,,,,,,,,,,,,,,,,,,,,,,,,,,,,,,,,,0,3,3,2,1,,,,,,,,,,,,,,,,,,,,,,,,,,,,,,,,,,,,,,,,,,,,,,
190530,001,2022-11-20_15h56.57.417,Info_measure_main_exp,2022.2.2,MacIntel,59.97361161,,,,,,,,,,,,,,,,,,masks/mask_001.jpg,,,,,,,,,,,,,,,,,,,,,,,,,,,,,,,,,,,,,,,,,,,0,4,4,0,1,,,,,,,,,,,,,,,,,,,,,,,,,,,,,,,,,,,,,,,,,,,,,,
190530,001,2022-11-20_15h56.57.417,Info_measure_main_exp,2022.2.2,MacIntel,59.97361161,,,,,,,,,,,,,,,,,,masks/mask_003.jpg,,,,,,,,,,,,,,,,,,,,,,,,,,,,,,,,,,,,,,,,,,,,,,,,0,0,0,2,1,,,,,,,,,,,,,,,,,,,,,,,,,,,,,,,,,,,,,,,,,
190530,001,2022-11-20_15h56.57.417,Info_measure_main_exp,2022.2.2,MacIntel,59.97361161,,,,,,,,,,,,,,,,,,masks/mask_001.jpg,,,,,,,,,,,,,,,,,,,,,,,,,,,,,,,,,,,,,,,,,,,,,,,,0,1,1,0,1,,,,,,,,,,,,,,,,,,,,,,,,,,,,,,,,,,,,,,,,,
190530,001,2022-11-20_15h56.57.417,Info_measure_main_exp,2022.2.2,MacIntel,59.97361161,,,,,,,,,,,,,,,,,,masks/mask_005.jpg,,,,,,,,,,,,,,,,,,,,,,,,,,,,,,,,,,,,,,,,,,,,,,,,0,2,2,4,1,,,,,,,,,,,,,,,,,,,,,,,,,,,,,,,,,,,,,,,,,
190530,001,2022-11-20_15h56.57.417,Info_measure_main_exp,2022.2.2,MacIntel,59.97361161,,,,,,,,,,,,,,,,,,masks/mask_004.jpg,,,,,,,,,,,,,,,,,,,,,,,,,,,,,,,,,,,,,,,,,,,,,,,,0,3,3,3,1,,,,,,,,,,,,,,,,,,,,,,,,,,,,,,,,,,,,,,,,,
190530,001,2022-11-20_15h56.57.417,Info_measure_main_exp,2022.2.2,MacIntel,59.97361161,,,,,,,,,,,,,,,,,,masks/mask_002.jpg,,,,,,,,,,,,,,,,,,,,,,,,,,,,,,,,,,,,,,,,,,,,,,,,0,4,4,1,1,,,,,,,,,,,,,,,,,,,,,,,,,,,,,,,,,,,,,,,,,
190530,001,2022-11-20_15h56.57.417,Info_measure_main_exp,2022.2.2,MacIntel,59.97361161,,,,,,,,,,,,,,,,,,,,,,,,,,,,,,4,3.3675,1,,,,,,,,,,,,0,131,5,5,1950,2178,absent_patch/patch0001950.jpg,absent_patch/patch0002178.jpg,,,,,,,,,,,,,,,,,,,,0.010005569,-0.030690231,1,0,0,response3disk,5,-0.001917572,-5.74493E-05,1,0,0,center_square,0,4,4,61,1,,,,,,,,,,,,,,,,,,,,,,,
190530,001,2022-11-20_15h56.57.417,Info_measure_main_exp,2022.2.2,MacIntel,59.97361161,,,,,,,,,,,,,,,,,,masks/mask_002.jpg,,,,,,,,,,,,,,,,,,,,,,,,,,,,,,,,,,,,,,,,,,,0,0,0,1,1,,,,,,,,,,,,,,,,,,,,,,,,,,,,,,,,,,,,,,,,,,,,,,
190530,001,2022-11-20_15h56.57.417,Info_measure_main_exp,2022.2.2,MacIntel,59.97361161,,,,,,,,,,,,,,,,,,masks/mask_005.jpg,,,,,,,,,,,,,,,,,,,,,,,,,,,,,,,,,,,,,,,,,,,0,1,1,4,1,,,,,,,,,,,,,,,,,,,,,,,,,,,,,,,,,,,,,,,,,,,,,,
190530,001,2022-11-20_15h56.57.417,Info_measure_main_exp,2022.2.2,MacIntel,59.97361161,,,,,,,,,,,,,,,,,,masks/mask_001.jpg,,,,,,,,,,,,,,,,,,,,,,,,,,,,,,,,,,,,,,,,,,,0,2,2,0,1,,,,,,,,,,,,,,,,,,,,,,,,,,,,,,,,,,,,,,,,,,,,,,
190530,001,2022-11-20_15h56.57.417,Info_measure_main_exp,2022.2.2,MacIntel,59.97361161,,,,,,,,,,,,,,,,,,masks/mask_004.jpg,,,,,,,,,,,,,,,,,,,,,,,,,,,,,,,,,,,,,,,,,,,0,3,3,3,1,,,,,,,,,,,,,,,,,,,,,,,,,,,,,,,,,,,,,,,,,,,,,,
190530,001,2022-11-20_15h56.57.417,Info_measure_main_exp,2022.2.2,MacIntel,59.97361161,,,,,,,,,,,,,,,,,,masks/mask_003.jpg,,,,,,,,,,,,,,,,,,,,,,,,,,,,,,,,,,,,,,,,,,,0,4,4,2,1,,,,,,,,,,,,,,,,,,,,,,,,,,,,,,,,,,,,,,,,,,,,,,
190530,001,2022-11-20_15h56.57.417,Info_measure_main_exp,2022.2.2,MacIntel,59.97361161,,,,,,,,,,,,,,,,,,masks/mask_002.jpg,,,,,,,,,,,,,,,,,,,,,,,,,,,,,,,,,,,,,,,,,,,,,,,,0,0,0,1,1,,,,,,,,,,,,,,,,,,,,,,,,,,,,,,,,,,,,,,,,,
190530,001,2022-11-20_15h56.57.417,Info_measure_main_exp,2022.2.2,MacIntel,59.97361161,,,,,,,,,,,,,,,,,,masks/mask_003.jpg,,,,,,,,,,,,,,,,,,,,,,,,,,,,,,,,,,,,,,,,,,,,,,,,0,1,1,2,1,,,,,,,,,,,,,,,,,,,,,,,,,,,,,,,,,,,,,,,,,
190530,001,2022-11-20_15h56.57.417,Info_measure_main_exp,2022.2.2,MacIntel,59.97361161,,,,,,,,,,,,,,,,,,masks/mask_001.jpg,,,,,,,,,,,,,,,,,,,,,,,,,,,,,,,,,,,,,,,,,,,,,,,,0,2,2,0,1,,,,,,,,,,,,,,,,,,,,,,,,,,,,,,,,,,,,,,,,,
190530,001,2022-11-20_15h56.57.417,Info_measure_main_exp,2022.2.2,MacIntel,59.97361161,,,,,,,,,,,,,,,,,,masks/mask_004.jpg,,,,,,,,,,,,,,,,,,,,,,,,,,,,,,,,,,,,,,,,,,,,,,,,0,3,3,3,1,,,,,,,,,,,,,,,,,,,,,,,,,,,,,,,,,,,,,,,,,
190530,001,2022-11-20_15h56.57.417,Info_measure_main_exp,2022.2.2,MacIntel,59.97361161,,,,,,,,,,,,,,,,,,masks/mask_005.jpg,,,,,,,,,,,,,,,,,,,,,,,,,,,,,,,,,,,,,,,,,,,,,,,,0,4,4,4,1,,,,,,,,,,,,,,,,,,,,,,,,,,,,,,,,,,,,,,,,,
190530,001,2022-11-20_15h56.57.417,Info_measure_main_exp,2022.2.2,MacIntel,59.97361161,,,,,,,,,,,,,,,,,,,,,,,,,,,,,,7,1.3175,1,,,,,,,,,,,,0,131,5,5,2274,2214,absent_patch/patch0002274.jpg,absent_patch/patch0002214.jpg,,,,,,,,,,,,,,,,,,,,0.020932236,0.048561783,1,0,0,response1disk,6,-5.41687E-06,0.000724297,1,0,0,center_square,0,5,5,11,1,,,,,,,,,,,,,,,,,,,,,,,
190530,001,2022-11-20_15h56.57.417,Info_measure_main_exp,2022.2.2,MacIntel,59.97361161,,,,,,,,,,,,,,,,,,masks/mask_003.jpg,,,,,,,,,,,,,,,,,,,,,,,,,,,,,,,,,,,,,,,,,,,0,0,0,2,1,,,,,,,,,,,,,,,,,,,,,,,,,,,,,,,,,,,,,,,,,,,,,,
190530,001,2022-11-20_15h56.57.417,Info_measure_main_exp,2022.2.2,MacIntel,59.97361161,,,,,,,,,,,,,,,,,,masks/mask_001.jpg,,,,,,,,,,,,,,,,,,,,,,,,,,,,,,,,,,,,,,,,,,,0,1,1,0,1,,,,,,,,,,,,,,,,,,,,,,,,,,,,,,,,,,,,,,,,,,,,,,
190530,001,2022-11-20_15h56.57.417,Info_measure_main_exp,2022.2.2,MacIntel,59.97361161,,,,,,,,,,,,,,,,,,masks/mask_004.jpg,,,,,,,,,,,,,,,,,,,,,,,,,,,,,,,,,,,,,,,,,,,0,2,2,3,1,,,,,,,,,,,,,,,,,,,,,,,,,,,,,,,,,,,,,,,,,,,,,,
190530,001,2022-11-20_15h56.57.417,Info_measure_main_exp,2022.2.2,MacIntel,59.97361161,,,,,,,,,,,,,,,,,,masks/mask_002.jpg,,,,,,,,,,,,,,,,,,,,,,,,,,,,,,,,,,,,,,,,,,,0,3,3,1,1,,,,,,,,,,,,,,,,,,,,,,,,,,,,,,,,,,,,,,,,,,,,,,
190530,001,2022-11-20_15h56.57.417,Info_measure_main_exp,2022.2.2,MacIntel,59.97361161,,,,,,,,,,,,,,,,,,masks/mask_005.jpg,,,,,,,,,,,,,,,,,,,,,,,,,,,,,,,,,,,,,,,,,,,0,4,4,4,1,,,,,,,,,,,,,,,,,,,,,,,,,,,,,,,,,,,,,,,,,,,,,,
190530,001,2022-11-20_15h56.57.417,Info_measure_main_exp,2022.2.2,MacIntel,59.97361161,,,,,,,,,,,,,,,,,,masks/mask_002.jpg,,,,,,,,,,,,,,,,,,,,,,,,,,,,,,,,,,,,,,,,,,,,,,,,0,0,0,1,1,,,,,,,,,,,,,,,,,,,,,,,,,,,,,,,,,,,,,,,,,
190530,001,2022-11-20_15h56.57.417,Info_measure_main_exp,2022.2.2,MacIntel,59.97361161,,,,,,,,,,,,,,,,,,masks/mask_001.jpg,,,,,,,,,,,,,,,,,,,,,,,,,,,,,,,,,,,,,,,,,,,,,,,,0,1,1,0,1,,,,,,,,,,,,,,,,,,,,,,,,,,,,,,,,,,,,,,,,,
190530,001,2022-11-20_15h56.57.417,Info_measure_main_exp,2022.2.2,MacIntel,59.97361161,,,,,,,,,,,,,,,,,,masks/mask_004.jpg,,,,,,,,,,,,,,,,,,,,,,,,,,,,,,,,,,,,,,,,,,,,,,,,0,2,2,3,1,,,,,,,,,,,,,,,,,,,,,,,,,,,,,,,,,,,,,,,,,
190530,001,2022-11-20_15h56.57.417,Info_measure_main_exp,2022.2.2,MacIntel,59.97361161,,,,,,,,,,,,,,,,,,masks/mask_003.jpg,,,,,,,,,,,,,,,,,,,,,,,,,,,,,,,,,,,,,,,,,,,,,,,,0,3,3,2,1,,,,,,,,,,,,,,,,,,,,,,,,,,,,,,,,,,,,,,,,,
190530,001,2022-11-20_15h56.57.417,Info_measure_main_exp,2022.2.2,MacIntel,59.97361161,,,,,,,,,,,,,,,,,,masks/mask_005.jpg,,,,,,,,,,,,,,,,,,,,,,,,,,,,,,,,,,,,,,,,,,,,,,,,0,4,4,4,1,,,,,,,,,,,,,,,,,,,,,,,,,,,,,,,,,,,,,,,,,
190530,001,2022-11-20_15h56.57.417,Info_measure_main_exp,2022.2.2,MacIntel,59.97361161,,,,,,,,,,,,,,,,,,,,,,,,,,,,,,3,4.0673,1,,,,,,,,,,,,0,131,5,5,2154,1950,absent_patch/patch0002154.jpg,absent_patch/patch0001950.jpg,,,,,,,,,,,,,,,,,,,,-0.027364502,-0.059233322,1,0,0,response5disk,7,9.32312E-05,0.005359879,1,0,0,center_square,0,6,6,96,1,,,,,,,,,,,,,,,,,,,,,,,
190530,001,2022-11-20_15h56.57.417,Info_measure_main_exp,2022.2.2,MacIntel,59.97361161,,,,,,,,,,,,,,,,,,masks/mask_005.jpg,,,,,,,,,,,,,,,,,,,,,,,,,,,,,,,,,,,,,,,,,,,0,0,0,4,1,,,,,,,,,,,,,,,,,,,,,,,,,,,,,,,,,,,,,,,,,,,,,,
190530,001,2022-11-20_15h56.57.417,Info_measure_main_exp,2022.2.2,MacIntel,59.97361161,,,,,,,,,,,,,,,,,,masks/mask_002.jpg,,,,,,,,,,,,,,,,,,,,,,,,,,,,,,,,,,,,,,,,,,,0,1,1,1,1,,,,,,,,,,,,,,,,,,,,,,,,,,,,,,,,,,,,,,,,,,,,,,
190530,001,2022-11-20_15h56.57.417,Info_measure_main_exp,2022.2.2,MacIntel,59.97361161,,,,,,,,,,,,,,,,,,masks/mask_001.jpg,,,,,,,,,,,,,,,,,,,,,,,,,,,,,,,,,,,,,,,,,,,0,2,2,0,1,,,,,,,,,,,,,,,,,,,,,,,,,,,,,,,,,,,,,,,,,,,,,,
190530,001,2022-11-20_15h56.57.417,Info_measure_main_exp,2022.2.2,MacIntel,59.97361161,,,,,,,,,,,,,,,,,,masks/mask_004.jpg,,,,,,,,,,,,,,,,,,,,,,,,,,,,,,,,,,,,,,,,,,,0,3,3,3,1,,,,,,,,,,,,,,,,,,,,,,,,,,,,,,,,,,,,,,,,,,,,,,
190530,001,2022-11-20_15h56.57.417,Info_measure_main_exp,2022.2.2,MacIntel,59.97361161,,,,,,,,,,,,,,,,,,masks/mask_003.jpg,,,,,,,,,,,,,,,,,,,,,,,,,,,,,,,,,,,,,,,,,,,0,4,4,2,1,,,,,,,,,,,,,,,,,,,,,,,,,,,,,,,,,,,,,,,,,,,,,,
190530,001,2022-11-20_15h56.57.417,Info_measure_main_exp,2022.2.2,MacIntel,59.97361161,,,,,,,,,,,,,,,,,,masks/mask_004.jpg,,,,,,,,,,,,,,,,,,,,,,,,,,,,,,,,,,,,,,,,,,,,,,,,0,0,0,3,1,,,,,,,,,,,,,,,,,,,,,,,,,,,,,,,,,,,,,,,,,
190530,001,2022-11-20_15h56.57.417,Info_measure_main_exp,2022.2.2,MacIntel,59.97361161,,,,,,,,,,,,,,,,,,masks/mask_002.jpg,,,,,,,,,,,,,,,,,,,,,,,,,,,,,,,,,,,,,,,,,,,,,,,,0,1,1,1,1,,,,,,,,,,,,,,,,,,,,,,,,,,,,,,,,,,,,,,,,,
190530,001,2022-11-20_15h56.57.417,Info_measure_main_exp,2022.2.2,MacIntel,59.97361161,,,,,,,,,,,,,,,,,,masks/mask_001.jpg,,,,,,,,,,,,,,,,,,,,,,,,,,,,,,,,,,,,,,,,,,,,,,,,0,2,2,0,1,,,,,,,,,,,,,,,,,,,,,,,,,,,,,,,,,,,,,,,,,
190530,001,2022-11-20_15h56.57.417,Info_measure_main_exp,2022.2.2,MacIntel,59.97361161,,,,,,,,,,,,,,,,,,masks/mask_003.jpg,,,,,,,,,,,,,,,,,,,,,,,,,,,,,,,,,,,,,,,,,,,,,,,,0,3,3,2,1,,,,,,,,,,,,,,,,,,,,,,,,,,,,,,,,,,,,,,,,,
190530,001,2022-11-20_15h56.57.417,Info_measure_main_exp,2022.2.2,MacIntel,59.97361161,,,,,,,,,,,,,,,,,,masks/mask_005.jpg,,,,,,,,,,,,,,,,,,,,,,,,,,,,,,,,,,,,,,,,,,,,,,,,0,4,4,4,1,,,,,,,,,,,,,,,,,,,,,,,,,,,,,,,,,,,,,,,,,
190530,001,2022-11-20_15h56.57.417,Info_measure_main_exp,2022.2.2,MacIntel,59.97361161,,,,,,,,,,,,,,,,,,,,,,,,,,,,,,7,1.0343,1,,,,,,,,,,,,0,131,5,5,2298,1986,absent_patch/patch0002298.jpg,absent_patch/patch0001986.jpg,,,,,,,,,,,,,,,,,,,,0.016365814,0.044846268,1,0,0,response1disk,8,0.007004089,0.005217934,1,0,0,center_square,0,7,7,32,1,,,,,,,,,,,,,,,,,,,,,,,
190530,001,2022-11-20_15h56.57.417,Info_measure_main_exp,2022.2.2,MacIntel,59.97361161,,,,,,,,,,,,,,,,,,masks/mask_003.jpg,,,,,,,,,,,,,,,,,,,,,,,,,,,,,,,,,,,,,,,,,,,0,0,0,2,1,,,,,,,,,,,,,,,,,,,,,,,,,,,,,,,,,,,,,,,,,,,,,,
190530,001,2022-11-20_15h56.57.417,Info_measure_main_exp,2022.2.2,MacIntel,59.97361161,,,,,,,,,,,,,,,,,,masks/mask_004.jpg,,,,,,,,,,,,,,,,,,,,,,,,,,,,,,,,,,,,,,,,,,,0,1,1,3,1,,,,,,,,,,,,,,,,,,,,,,,,,,,,,,,,,,,,,,,,,,,,,,
190530,001,2022-11-20_15h56.57.417,Info_measure_main_exp,2022.2.2,MacIntel,59.97361161,,,,,,,,,,,,,,,,,,masks/mask_002.jpg,,,,,,,,,,,,,,,,,,,,,,,,,,,,,,,,,,,,,,,,,,,0,2,2,1,1,,,,,,,,,,,,,,,,,,,,,,,,,,,,,,,,,,,,,,,,,,,,,,
190530,001,2022-11-20_15h56.57.417,Info_measure_main_exp,2022.2.2,MacIntel,59.97361161,,,,,,,,,,,,,,,,,,masks/mask_001.jpg,,,,,,,,,,,,,,,,,,,,,,,,,,,,,,,,,,,,,,,,,,,0,3,3,0,1,,,,,,,,,,,,,,,,,,,,,,,,,,,,,,,,,,,,,,,,,,,,,,
190530,001,2022-11-20_15h56.57.417,Info_measure_main_exp,2022.2.2,MacIntel,59.97361161,,,,,,,,,,,,,,,,,,masks/mask_005.jpg,,,,,,,,,,,,,,,,,,,,,,,,,,,,,,,,,,,,,,,,,,,0,4,4,4,1,,,,,,,,,,,,,,,,,,,,,,,,,,,,,,,,,,,,,,,,,,,,,,
190530,001,2022-11-20_15h56.57.417,Info_measure_main_exp,2022.2.2,MacIntel,59.97361161,,,,,,,,,,,,,,,,,,masks/mask_003.jpg,,,,,,,,,,,,,,,,,,,,,,,,,,,,,,,,,,,,,,,,,,,,,,,,0,0,0,2,1,,,,,,,,,,,,,,,,,,,,,,,,,,,,,,,,,,,,,,,,,
190530,001,2022-11-20_15h56.57.417,Info_measure_main_exp,2022.2.2,MacIntel,59.97361161,,,,,,,,,,,,,,,,,,masks/mask_005.jpg,,,,,,,,,,,,,,,,,,,,,,,,,,,,,,,,,,,,,,,,,,,,,,,,0,1,1,4,1,,,,,,,,,,,,,,,,,,,,,,,,,,,,,,,,,,,,,,,,,
190530,001,2022-11-20_15h56.57.417,Info_measure_main_exp,2022.2.2,MacIntel,59.97361161,,,,,,,,,,,,,,,,,,masks/mask_001.jpg,,,,,,,,,,,,,,,,,,,,,,,,,,,,,,,,,,,,,,,,,,,,,,,,0,2,2,0,1,,,,,,,,,,,,,,,,,,,,,,,,,,,,,,,,,,,,,,,,,
190530,001,2022-11-20_15h56.57.417,Info_measure_main_exp,2022.2.2,MacIntel,59.97361161,,,,,,,,,,,,,,,,,,masks/mask_004.jpg,,,,,,,,,,,,,,,,,,,,,,,,,,,,,,,,,,,,,,,,,,,,,,,,0,3,3,3,1,,,,,,,,,,,,,,,,,,,,,,,,,,,,,,,,,,,,,,,,,
190530,001,2022-11-20_15h56.57.417,Info_measure_main_exp,2022.2.2,MacIntel,59.97361161,,,,,,,,,,,,,,,,,,masks/mask_002.jpg,,,,,,,,,,,,,,,,,,,,,,,,,,,,,,,,,,,,,,,,,,,,,,,,0,4,4,1,1,,,,,,,,,,,,,,,,,,,,,,,,,,,,,,,,,,,,,,,,,
190530,001,2022-11-20_15h56.57.417,Info_measure_main_exp,2022.2.2,MacIntel,59.97361161,,,,,,,,,,,,,,,,,,,,,,,,,,,,,,7,5.2024,1,,,,,,,,,,,,0,131,5,5,2154,2250,absent_patch/patch0002154.jpg,absent_patch/patch0002250.jpg,,,,,,,,,,,,,,,,,,,,0.013539734,0.029597511,1,0,0,response1disk,9,0.009234161,-0.004547348,1,0,0,center_square,0,8,8,108,1,,,,,,,,,,,,,,,,,,,,,,,
190530,001,2022-11-20_15h56.57.417,Info_measure_main_exp,2022.2.2,MacIntel,59.97361161,,,,,,,,,,,,,,,,,,masks/mask_003.jpg,,,,,,,,,,,,,,,,,,,,,,,,,,,,,,,,,,,,,,,,,,,0,0,0,2,1,,,,,,,,,,,,,,,,,,,,,,,,,,,,,,,,,,,,,,,,,,,,,,
190530,001,2022-11-20_15h56.57.417,Info_measure_main_exp,2022.2.2,MacIntel,59.97361161,,,,,,,,,,,,,,,,,,masks/mask_004.jpg,,,,,,,,,,,,,,,,,,,,,,,,,,,,,,,,,,,,,,,,,,,0,1,1,3,1,,,,,,,,,,,,,,,,,,,,,,,,,,,,,,,,,,,,,,,,,,,,,,
190530,001,2022-11-20_15h56.57.417,Info_measure_main_exp,2022.2.2,MacIntel,59.97361161,,,,,,,,,,,,,,,,,,masks/mask_002.jpg,,,,,,,,,,,,,,,,,,,,,,,,,,,,,,,,,,,,,,,,,,,0,2,2,1,1,,,,,,,,,,,,,,,,,,,,,,,,,,,,,,,,,,,,,,,,,,,,,,
190530,001,2022-11-20_15h56.57.417,Info_measure_main_exp,2022.2.2,MacIntel,59.97361161,,,,,,,,,,,,,,,,,,masks/mask_001.jpg,,,,,,,,,,,,,,,,,,,,,,,,,,,,,,,,,,,,,,,,,,,0,3,3,0,1,,,,,,,,,,,,,,,,,,,,,,,,,,,,,,,,,,,,,,,,,,,,,,
190530,001,2022-11-20_15h56.57.417,Info_measure_main_exp,2022.2.2,MacIntel,59.97361161,,,,,,,,,,,,,,,,,,masks/mask_005.jpg,,,,,,,,,,,,,,,,,,,,,,,,,,,,,,,,,,,,,,,,,,,0,4,4,4,1,,,,,,,,,,,,,,,,,,,,,,,,,,,,,,,,,,,,,,,,,,,,,,
190530,001,2022-11-20_15h56.57.417,Info_measure_main_exp,2022.2.2,MacIntel,59.97361161,,,,,,,,,,,,,,,,,,masks/mask_001.jpg,,,,,,,,,,,,,,,,,,,,,,,,,,,,,,,,,,,,,,,,,,,,,,,,0,0,0,0,1,,,,,,,,,,,,,,,,,,,,,,,,,,,,,,,,,,,,,,,,,
190530,001,2022-11-20_15h56.57.417,Info_measure_main_exp,2022.2.2,MacIntel,59.97361161,,,,,,,,,,,,,,,,,,masks/mask_003.jpg,,,,,,,,,,,,,,,,,,,,,,,,,,,,,,,,,,,,,,,,,,,,,,,,0,1,1,2,1,,,,,,,,,,,,,,,,,,,,,,,,,,,,,,,,,,,,,,,,,
190530,001,2022-11-20_15h56.57.417,Info_measure_main_exp,2022.2.2,MacIntel,59.97361161,,,,,,,,,,,,,,,,,,masks/mask_005.jpg,,,,,,,,,,,,,,,,,,,,,,,,,,,,,,,,,,,,,,,,,,,,,,,,0,2,2,4,1,,,,,,,,,,,,,,,,,,,,,,,,,,,,,,,,,,,,,,,,,
190530,001,2022-11-20_15h56.57.417,Info_measure_main_exp,2022.2.2,MacIntel,59.97361161,,,,,,,,,,,,,,,,,,masks/mask_002.jpg,,,,,,,,,,,,,,,,,,,,,,,,,,,,,,,,,,,,,,,,,,,,,,,,0,3,3,1,1,,,,,,,,,,,,,,,,,,,,,,,,,,,,,,,,,,,,,,,,,
190530,001,2022-11-20_15h56.57.417,Info_measure_main_exp,2022.2.2,MacIntel,59.97361161,,,,,,,,,,,,,,,,,,masks/mask_004.jpg,,,,,,,,,,,,,,,,,,,,,,,,,,,,,,,,,,,,,,,,,,,,,,,,0,4,4,3,1,,,,,,,,,,,,,,,,,,,,,,,,,,,,,,,,,,,,,,,,,
190530,001,2022-11-20_15h56.57.417,Info_measure_main_exp,2022.2.2,MacIntel,59.97361161,,,,,,,,,,,,,,,,,,,,,,,,,,,,,,7,0.8168,1,,,,,,,,,,,,1,131,5,5,2082,1,absent_patch/patch0002082.jpg,present_patch/cong_131_5_a.jpg,,,,,,,,,,,,,,,,,,,,0.016214676,0.021807938,1,0,0,response1disk,10,0.009672089,-0.002331734,1,0,0,center_square,0,9,9,65,1,,,,,,,,,,,,,,,,,,,,,,,
190530,001,2022-11-20_15h56.57.417,Info_measure_main_exp,2022.2.2,MacIntel,59.97361161,,,,,,,,,,,,,,,,,,masks/mask_004.jpg,,,,,,,,,,,,,,,,,,,,,,,,,,,,,,,,,,,,,,,,,,,0,0,0,3,1,,,,,,,,,,,,,,,,,,,,,,,,,,,,,,,,,,,,,,,,,,,,,,
190530,001,2022-11-20_15h56.57.417,Info_measure_main_exp,2022.2.2,MacIntel,59.97361161,,,,,,,,,,,,,,,,,,masks/mask_002.jpg,,,,,,,,,,,,,,,,,,,,,,,,,,,,,,,,,,,,,,,,,,,0,1,1,1,1,,,,,,,,,,,,,,,,,,,,,,,,,,,,,,,,,,,,,,,,,,,,,,
190530,001,2022-11-20_15h56.57.417,Info_measure_main_exp,2022.2.2,MacIntel,59.97361161,,,,,,,,,,,,,,,,,,masks/mask_003.jpg,,,,,,,,,,,,,,,,,,,,,,,,,,,,,,,,,,,,,,,,,,,0,2,2,2,1,,,,,,,,,,,,,,,,,,,,,,,,,,,,,,,,,,,,,,,,,,,,,,
190530,001,2022-11-20_15h56.57.417,Info_measure_main_exp,2022.2.2,MacIntel,59.97361161,,,,,,,,,,,,,,,,,,masks/mask_001.jpg,,,,,,,,,,,,,,,,,,,,,,,,,,,,,,,,,,,,,,,,,,,0,3,3,0,1,,,,,,,,,,,,,,,,,,,,,,,,,,,,,,,,,,,,,,,,,,,,,,
190530,001,2022-11-20_15h56.57.417,Info_measure_main_exp,2022.2.2,MacIntel,59.97361161,,,,,,,,,,,,,,,,,,masks/mask_005.jpg,,,,,,,,,,,,,,,,,,,,,,,,,,,,,,,,,,,,,,,,,,,0,4,4,4,1,,,,,,,,,,,,,,,,,,,,,,,,,,,,,,,,,,,,,,,,,,,,,,
190530,001,2022-11-20_15h56.57.417,Info_measure_main_exp,2022.2.2,MacIntel,59.97361161,,,,,,,,,,,,,,,,,,masks/mask_004.jpg,,,,,,,,,,,,,,,,,,,,,,,,,,,,,,,,,,,,,,,,,,,,,,,,0,0,0,3,1,,,,,,,,,,,,,,,,,,,,,,,,,,,,,,,,,,,,,,,,,
190530,001,2022-11-20_15h56.57.417,Info_measure_main_exp,2022.2.2,MacIntel,59.97361161,,,,,,,,,,,,,,,,,,masks/mask_003.jpg,,,,,,,,,,,,,,,,,,,,,,,,,,,,,,,,,,,,,,,,,,,,,,,,0,1,1,2,1,,,,,,,,,,,,,,,,,,,,,,,,,,,,,,,,,,,,,,,,,
190530,001,2022-11-20_15h56.57.417,Info_measure_main_exp,2022.2.2,MacIntel,59.97361161,,,,,,,,,,,,,,,,,,masks/mask_005.jpg,,,,,,,,,,,,,,,,,,,,,,,,,,,,,,,,,,,,,,,,,,,,,,,,0,2,2,4,1,,,,,,,,,,,,,,,,,,,,,,,,,,,,,,,,,,,,,,,,,
190530,001,2022-11-20_15h56.57.417,Info_measure_main_exp,2022.2.2,MacIntel,59.97361161,,,,,,,,,,,,,,,,,,masks/mask_001.jpg,,,,,,,,,,,,,,,,,,,,,,,,,,,,,,,,,,,,,,,,,,,,,,,,0,3,3,0,1,,,,,,,,,,,,,,,,,,,,,,,,,,,,,,,,,,,,,,,,,
190530,001,2022-11-20_15h56.57.417,Info_measure_main_exp,2022.2.2,MacIntel,59.97361161,,,,,,,,,,,,,,,,,,masks/mask_002.jpg,,,,,,,,,,,,,,,,,,,,,,,,,,,,,,,,,,,,,,,,,,,,,,,,0,4,4,1,1,,,,,,,,,,,,,,,,,,,,,,,,,,,,,,,,,,,,,,,,,
190530,001,2022-11-20_15h56.57.417,Info_measure_main_exp,2022.2.2,MacIntel,59.97361161,,,,,,,,,,,,,,,,,,,,,,,,,,,,,,0,0.7836,1,,,,,,,,,,,,0,131,5,5,2274,2274,absent_patch/patch0002274.jpg,absent_patch/patch0002274.jpg,,,,,,,,,,,,,,,,,,,,-0.030397415,0.061449814,1,0,0,response7disk,11,-0.001169281,0.00846283,1,0,0,center_square,0,10,10,114,1,,,,,,,,,,,,,,,,,,,,,,,
190530,001,2022-11-20_15h56.57.417,Info_measure_main_exp,2022.2.2,MacIntel,59.97361161,,,,,,,,,,,,,,,,,,masks/mask_002.jpg,,,,,,,,,,,,,,,,,,,,,,,,,,,,,,,,,,,,,,,,,,,0,0,0,1,1,,,,,,,,,,,,,,,,,,,,,,,,,,,,,,,,,,,,,,,,,,,,,,
190530,001,2022-11-20_15h56.57.417,Info_measure_main_exp,2022.2.2,MacIntel,59.97361161,,,,,,,,,,,,,,,,,,masks/mask_005.jpg,,,,,,,,,,,,,,,,,,,,,,,,,,,,,,,,,,,,,,,,,,,0,1,1,4,1,,,,,,,,,,,,,,,,,,,,,,,,,,,,,,,,,,,,,,,,,,,,,,
190530,001,2022-11-20_15h56.57.417,Info_measure_main_exp,2022.2.2,MacIntel,59.97361161,,,,,,,,,,,,,,,,,,masks/mask_004.jpg,,,,,,,,,,,,,,,,,,,,,,,,,,,,,,,,,,,,,,,,,,,0,2,2,3,1,,,,,,,,,,,,,,,,,,,,,,,,,,,,,,,,,,,,,,,,,,,,,,
190530,001,2022-11-20_15h56.57.417,Info_measure_main_exp,2022.2.2,MacIntel,59.97361161,,,,,,,,,,,,,,,,,,masks/mask_003.jpg,,,,,,,,,,,,,,,,,,,,,,,,,,,,,,,,,,,,,,,,,,,0,3,3,2,1,,,,,,,,,,,,,,,,,,,,,,,,,,,,,,,,,,,,,,,,,,,,,,
190530,001,2022-11-20_15h56.57.417,Info_measure_main_exp,2022.2.2,MacIntel,59.97361161,,,,,,,,,,,,,,,,,,masks/mask_001.jpg,,,,,,,,,,,,,,,,,,,,,,,,,,,,,,,,,,,,,,,,,,,0,4,4,0,1,,,,,,,,,,,,,,,,,,,,,,,,,,,,,,,,,,,,,,,,,,,,,,
190530,001,2022-11-20_15h56.57.417,Info_measure_main_exp,2022.2.2,MacIntel,59.97361161,,,,,,,,,,,,,,,,,,masks/mask_001.jpg,,,,,,,,,,,,,,,,,,,,,,,,,,,,,,,,,,,,,,,,,,,,,,,,0,0,0,0,1,,,,,,,,,,,,,,,,,,,,,,,,,,,,,,,,,,,,,,,,,
190530,001,2022-11-20_15h56.57.417,Info_measure_main_exp,2022.2.2,MacIntel,59.97361161,,,,,,,,,,,,,,,,,,masks/mask_005.jpg,,,,,,,,,,,,,,,,,,,,,,,,,,,,,,,,,,,,,,,,,,,,,,,,0,1,1,4,1,,,,,,,,,,,,,,,,,,,,,,,,,,,,,,,,,,,,,,,,,
190530,001,2022-11-20_15h56.57.417,Info_measure_main_exp,2022.2.2,MacIntel,59.97361161,,,,,,,,,,,,,,,,,,masks/mask_004.jpg,,,,,,,,,,,,,,,,,,,,,,,,,,,,,,,,,,,,,,,,,,,,,,,,0,2,2,3,1,,,,,,,,,,,,,,,,,,,,,,,,,,,,,,,,,,,,,,,,,
190530,001,2022-11-20_15h56.57.417,Info_measure_main_exp,2022.2.2,MacIntel,59.97361161,,,,,,,,,,,,,,,,,,masks/mask_003.jpg,,,,,,,,,,,,,,,,,,,,,,,,,,,,,,,,,,,,,,,,,,,,,,,,0,3,3,2,1,,,,,,,,,,,,,,,,,,,,,,,,,,,,,,,,,,,,,,,,,
190530,001,2022-11-20_15h56.57.417,Info_measure_main_exp,2022.2.2,MacIntel,59.97361161,,,,,,,,,,,,,,,,,,masks/mask_002.jpg,,,,,,,,,,,,,,,,,,,,,,,,,,,,,,,,,,,,,,,,,,,,,,,,0,4,4,1,1,,,,,,,,,,,,,,,,,,,,,,,,,,,,,,,,,,,,,,,,,
190530,001,2022-11-20_15h56.57.417,Info_measure_main_exp,2022.2.2,MacIntel,59.97361161,,,,,,,,,,,,,,,,,,,,,,,,,,,,,,6,1.4661,1,,,,,,,,,,,,0,131,5,5,2238,2298,absent_patch/patch0002238.jpg,absent_patch/patch0002298.jpg,,,,,,,,,,,,,,,,,,,,0.018559494,0.00678875,1,0,0,response1disk,12,-0.004199524,-0.006226883,1,0,0,center_square,0,11,11,51,1,,,,,,,,,,,,,,,,,,,,,,,
190530,001,2022-11-20_15h56.57.417,Info_measure_main_exp,2022.2.2,MacIntel,59.97361161,,,,,,,,,,,,,,,,,,masks/mask_004.jpg,,,,,,,,,,,,,,,,,,,,,,,,,,,,,,,,,,,,,,,,,,,0,0,0,3,1,,,,,,,,,,,,,,,,,,,,,,,,,,,,,,,,,,,,,,,,,,,,,,
190530,001,2022-11-20_15h56.57.417,Info_measure_main_exp,2022.2.2,MacIntel,59.97361161,,,,,,,,,,,,,,,,,,masks/mask_001.jpg,,,,,,,,,,,,,,,,,,,,,,,,,,,,,,,,,,,,,,,,,,,0,1,1,0,1,,,,,,,,,,,,,,,,,,,,,,,,,,,,,,,,,,,,,,,,,,,,,,
190530,001,2022-11-20_15h56.57.417,Info_measure_main_exp,2022.2.2,MacIntel,59.97361161,,,,,,,,,,,,,,,,,,masks/mask_003.jpg,,,,,,,,,,,,,,,,,,,,,,,,,,,,,,,,,,,,,,,,,,,0,2,2,2,1,,,,,,,,,,,,,,,,,,,,,,,,,,,,,,,,,,,,,,,,,,,,,,
190530,001,2022-11-20_15h56.57.417,Info_measure_main_exp,2022.2.2,MacIntel,59.97361161,,,,,,,,,,,,,,,,,,masks/mask_002.jpg,,,,,,,,,,,,,,,,,,,,,,,,,,,,,,,,,,,,,,,,,,,0,3,3,1,1,,,,,,,,,,,,,,,,,,,,,,,,,,,,,,,,,,,,,,,,,,,,,,
190530,001,2022-11-20_15h56.57.417,Info_measure_main_exp,2022.2.2,MacIntel,59.97361161,,,,,,,,,,,,,,,,,,masks/mask_005.jpg,,,,,,,,,,,,,,,,,,,,,,,,,,,,,,,,,,,,,,,,,,,0,4,4,4,1,,,,,,,,,,,,,,,,,,,,,,,,,,,,,,,,,,,,,,,,,,,,,,
190530,001,2022-11-20_15h56.57.417,Info_measure_main_exp,2022.2.2,MacIntel,59.97361161,,,,,,,,,,,,,,,,,,masks/mask_005.jpg,,,,,,,,,,,,,,,,,,,,,,,,,,,,,,,,,,,,,,,,,,,,,,,,0,0,0,4,1,,,,,,,,,,,,,,,,,,,,,,,,,,,,,,,,,,,,,,,,,
190530,001,2022-11-20_15h56.57.417,Info_measure_main_exp,2022.2.2,MacIntel,59.97361161,,,,,,,,,,,,,,,,,,masks/mask_004.jpg,,,,,,,,,,,,,,,,,,,,,,,,,,,,,,,,,,,,,,,,,,,,,,,,0,1,1,3,1,,,,,,,,,,,,,,,,,,,,,,,,,,,,,,,,,,,,,,,,,
190530,001,2022-11-20_15h56.57.417,Info_measure_main_exp,2022.2.2,MacIntel,59.97361161,,,,,,,,,,,,,,,,,,masks/mask_002.jpg,,,,,,,,,,,,,,,,,,,,,,,,,,,,,,,,,,,,,,,,,,,,,,,,0,2,2,1,1,,,,,,,,,,,,,,,,,,,,,,,,,,,,,,,,,,,,,,,,,
190530,001,2022-11-20_15h56.57.417,Info_measure_main_exp,2022.2.2,MacIntel,59.97361161,,,,,,,,,,,,,,,,,,masks/mask_003.jpg,,,,,,,,,,,,,,,,,,,,,,,,,,,,,,,,,,,,,,,,,,,,,,,,0,3,3,2,1,,,,,,,,,,,,,,,,,,,,,,,,,,,,,,,,,,,,,,,,,
190530,001,2022-11-20_15h56.57.417,Info_measure_main_exp,2022.2.2,MacIntel,59.97361161,,,,,,,,,,,,,,,,,,masks/mask_001.jpg,,,,,,,,,,,,,,,,,,,,,,,,,,,,,,,,,,,,,,,,,,,,,,,,0,4,4,0,1,,,,,,,,,,,,,,,,,,,,,,,,,,,,,,,,,,,,,,,,,
190530,001,2022-11-20_15h56.57.417,Info_measure_main_exp,2022.2.2,MacIntel,59.97361161,,,,,,,,,,,,,,,,,,,,,,,,,,,,,,7,0.9672,1,,,,,,,,,,,,0,131,5,5,2154,1974,absent_patch/patch0002154.jpg,absent_patch/patch0001974.jpg,,,,,,,,,,,,,,,,,,,,0.014025955,0.024106712,1,0,0,response1disk,13,0.00380928,-0.004935799,1,0,0,center_square,0,12,12,82,1,,,,,,,,,,,,,,,,,,,,,,,
190530,001,2022-11-20_15h56.57.417,Info_measure_main_exp,2022.2.2,MacIntel,59.97361161,,,,,,,,,,,,,,,,,,masks/mask_001.jpg,,,,,,,,,,,,,,,,,,,,,,,,,,,,,,,,,,,,,,,,,,,0,0,0,0,1,,,,,,,,,,,,,,,,,,,,,,,,,,,,,,,,,,,,,,,,,,,,,,
190530,001,2022-11-20_15h56.57.417,Info_measure_main_exp,2022.2.2,MacIntel,59.97361161,,,,,,,,,,,,,,,,,,masks/mask_003.jpg,,,,,,,,,,,,,,,,,,,,,,,,,,,,,,,,,,,,,,,,,,,0,1,1,2,1,,,,,,,,,,,,,,,,,,,,,,,,,,,,,,,,,,,,,,,,,,,,,,
190530,001,2022-11-20_15h56.57.417,Info_measure_main_exp,2022.2.2,MacIntel,59.97361161,,,,,,,,,,,,,,,,,,masks/mask_004.jpg,,,,,,,,,,,,,,,,,,,,,,,,,,,,,,,,,,,,,,,,,,,0,2,2,3,1,,,,,,,,,,,,,,,,,,,,,,,,,,,,,,,,,,,,,,,,,,,,,,
190530,001,2022-11-20_15h56.57.417,Info_measure_main_exp,2022.2.2,MacIntel,59.97361161,,,,,,,,,,,,,,,,,,masks/mask_005.jpg,,,,,,,,,,,,,,,,,,,,,,,,,,,,,,,,,,,,,,,,,,,0,3,3,4,1,,,,,,,,,,,,,,,,,,,,,,,,,,,,,,,,,,,,,,,,,,,,,,
190530,001,2022-11-20_15h56.57.417,Info_measure_main_exp,2022.2.2,MacIntel,59.97361161,,,,,,,,,,,,,,,,,,masks/mask_002.jpg,,,,,,,,,,,,,,,,,,,,,,,,,,,,,,,,,,,,,,,,,,,0,4,4,1,1,,,,,,,,,,,,,,,,,,,,,,,,,,,,,,,,,,,,,,,,,,,,,,
190530,001,2022-11-20_15h56.57.417,Info_measure_main_exp,2022.2.2,MacIntel,59.97361161,,,,,,,,,,,,,,,,,,masks/mask_002.jpg,,,,,,,,,,,,,,,,,,,,,,,,,,,,,,,,,,,,,,,,,,,,,,,,0,0,0,1,1,,,,,,,,,,,,,,,,,,,,,,,,,,,,,,,,,,,,,,,,,
190530,001,2022-11-20_15h56.57.417,Info_measure_main_exp,2022.2.2,MacIntel,59.97361161,,,,,,,,,,,,,,,,,,masks/mask_004.jpg,,,,,,,,,,,,,,,,,,,,,,,,,,,,,,,,,,,,,,,,,,,,,,,,0,1,1,3,1,,,,,,,,,,,,,,,,,,,,,,,,,,,,,,,,,,,,,,,,,
190530,001,2022-11-20_15h56.57.417,Info_measure_main_exp,2022.2.2,MacIntel,59.97361161,,,,,,,,,,,,,,,,,,masks/mask_003.jpg,,,,,,,,,,,,,,,,,,,,,,,,,,,,,,,,,,,,,,,,,,,,,,,,0,2,2,2,1,,,,,,,,,,,,,,,,,,,,,,,,,,,,,,,,,,,,,,,,,
190530,001,2022-11-20_15h56.57.417,Info_measure_main_exp,2022.2.2,MacIntel,59.97361161,,,,,,,,,,,,,,,,,,masks/mask_005.jpg,,,,,,,,,,,,,,,,,,,,,,,,,,,,,,,,,,,,,,,,,,,,,,,,0,3,3,4,1,,,,,,,,,,,,,,,,,,,,,,,,,,,,,,,,,,,,,,,,,
190530,001,2022-11-20_15h56.57.417,Info_measure_main_exp,2022.2.2,MacIntel,59.97361161,,,,,,,,,,,,,,,,,,masks/mask_001.jpg,,,,,,,,,,,,,,,,,,,,,,,,,,,,,,,,,,,,,,,,,,,,,,,,0,4,4,0,1,,,,,,,,,,,,,,,,,,,,,,,,,,,,,,,,,,,,,,,,,
190530,001,2022-11-20_15h56.57.417,Info_measure_main_exp,2022.2.2,MacIntel,59.97361161,,,,,,,,,,,,,,,,,,,,,,,,,,,,,,0,0.8502,1,,,,,,,,,,,,0,131,5,5,2250,2250,absent_patch/patch0002250.jpg,absent_patch/patch0002250.jpg,,,,,,,,,,,,,,,,,,,,-0.042018661,0.067402344,1,0,0,response7disk,14,-0.001274414,0.012164993,1,0,0,center_square,0,13,13,56,1,,,,,,,,,,,,,,,,,,,,,,,
190530,001,2022-11-20_15h56.57.417,Info_measure_main_exp,2022.2.2,MacIntel,59.97361161,,,,,,,,,,,,,,,,,,masks/mask_003.jpg,,,,,,,,,,,,,,,,,,,,,,,,,,,,,,,,,,,,,,,,,,,0,0,0,2,1,,,,,,,,,,,,,,,,,,,,,,,,,,,,,,,,,,,,,,,,,,,,,,
190530,001,2022-11-20_15h56.57.417,Info_measure_main_exp,2022.2.2,MacIntel,59.97361161,,,,,,,,,,,,,,,,,,masks/mask_002.jpg,,,,,,,,,,,,,,,,,,,,,,,,,,,,,,,,,,,,,,,,,,,0,1,1,1,1,,,,,,,,,,,,,,,,,,,,,,,,,,,,,,,,,,,,,,,,,,,,,,
190530,001,2022-11-20_15h56.57.417,Info_measure_main_exp,2022.2.2,MacIntel,59.97361161,,,,,,,,,,,,,,,,,,masks/mask_001.jpg,,,,,,,,,,,,,,,,,,,,,,,,,,,,,,,,,,,,,,,,,,,0,2,2,0,1,,,,,,,,,,,,,,,,,,,,,,,,,,,,,,,,,,,,,,,,,,,,,,
190530,001,2022-11-20_15h56.57.417,Info_measure_main_exp,2022.2.2,MacIntel,59.97361161,,,,,,,,,,,,,,,,,,masks/mask_004.jpg,,,,,,,,,,,,,,,,,,,,,,,,,,,,,,,,,,,,,,,,,,,0,3,3,3,1,,,,,,,,,,,,,,,,,,,,,,,,,,,,,,,,,,,,,,,,,,,,,,
190530,001,2022-11-20_15h56.57.417,Info_measure_main_exp,2022.2.2,MacIntel,59.97361161,,,,,,,,,,,,,,,,,,masks/mask_005.jpg,,,,,,,,,,,,,,,,,,,,,,,,,,,,,,,,,,,,,,,,,,,0,4,4,4,1,,,,,,,,,,,,,,,,,,,,,,,,,,,,,,,,,,,,,,,,,,,,,,
190530,001,2022-11-20_15h56.57.417,Info_measure_main_exp,2022.2.2,MacIntel,59.97361161,,,,,,,,,,,,,,,,,,masks/mask_005.jpg,,,,,,,,,,,,,,,,,,,,,,,,,,,,,,,,,,,,,,,,,,,,,,,,0,0,0,4,1,,,,,,,,,,,,,,,,,,,,,,,,,,,,,,,,,,,,,,,,,
190530,001,2022-11-20_15h56.57.417,Info_measure_main_exp,2022.2.2,MacIntel,59.97361161,,,,,,,,,,,,,,,,,,masks/mask_004.jpg,,,,,,,,,,,,,,,,,,,,,,,,,,,,,,,,,,,,,,,,,,,,,,,,0,1,1,3,1,,,,,,,,,,,,,,,,,,,,,,,,,,,,,,,,,,,,,,,,,
190530,001,2022-11-20_15h56.57.417,Info_measure_main_exp,2022.2.2,MacIntel,59.97361161,,,,,,,,,,,,,,,,,,masks/mask_002.jpg,,,,,,,,,,,,,,,,,,,,,,,,,,,,,,,,,,,,,,,,,,,,,,,,0,2,2,1,1,,,,,,,,,,,,,,,,,,,,,,,,,,,,,,,,,,,,,,,,,
190530,001,2022-11-20_15h56.57.417,Info_measure_main_exp,2022.2.2,MacIntel,59.97361161,,,,,,,,,,,,,,,,,,masks/mask_001.jpg,,,,,,,,,,,,,,,,,,,,,,,,,,,,,,,,,,,,,,,,,,,,,,,,0,3,3,0,1,,,,,,,,,,,,,,,,,,,,,,,,,,,,,,,,,,,,,,,,,
190530,001,2022-11-20_15h56.57.417,Info_measure_main_exp,2022.2.2,MacIntel,59.97361161,,,,,,,,,,,,,,,,,,masks/mask_003.jpg,,,,,,,,,,,,,,,,,,,,,,,,,,,,,,,,,,,,,,,,,,,,,,,,0,4,4,2,1,,,,,,,,,,,,,,,,,,,,,,,,,,,,,,,,,,,,,,,,,
190530,001,2022-11-20_15h56.57.417,Info_measure_main_exp,2022.2.2,MacIntel,59.97361161,,,,,,,,,,,,,,,,,,,,,,,,,,,,,,0,1.0183,1,,,,,,,,,,,,0,131,5,5,2238,2238,absent_patch/patch0002238.jpg,absent_patch/patch0002238.jpg,,,,,,,,,,,,,,,,,,,,-0.01584137,0.046073647,1,0,0,response7disk,15,0.002212753,-0.003695564,1,0,0,center_square,0,14,14,58,1,,,,,,,,,,,,,,,,,,,,,,,
190530,001,2022-11-20_15h56.57.417,Info_measure_main_exp,2022.2.2,MacIntel,59.97361161,,,,,,,,,,,,,,,,,,masks/mask_003.jpg,,,,,,,,,,,,,,,,,,,,,,,,,,,,,,,,,,,,,,,,,,,0,0,0,2,1,,,,,,,,,,,,,,,,,,,,,,,,,,,,,,,,,,,,,,,,,,,,,,
190530,001,2022-11-20_15h56.57.417,Info_measure_main_exp,2022.2.2,MacIntel,59.97361161,,,,,,,,,,,,,,,,,,masks/mask_005.jpg,,,,,,,,,,,,,,,,,,,,,,,,,,,,,,,,,,,,,,,,,,,0,1,1,4,1,,,,,,,,,,,,,,,,,,,,,,,,,,,,,,,,,,,,,,,,,,,,,,
190530,001,2022-11-20_15h56.57.417,Info_measure_main_exp,2022.2.2,MacIntel,59.97361161,,,,,,,,,,,,,,,,,,masks/mask_001.jpg,,,,,,,,,,,,,,,,,,,,,,,,,,,,,,,,,,,,,,,,,,,0,2,2,0,1,,,,,,,,,,,,,,,,,,,,,,,,,,,,,,,,,,,,,,,,,,,,,,
190530,001,2022-11-20_15h56.57.417,Info_measure_main_exp,2022.2.2,MacIntel,59.97361161,,,,,,,,,,,,,,,,,,masks/mask_004.jpg,,,,,,,,,,,,,,,,,,,,,,,,,,,,,,,,,,,,,,,,,,,0,3,3,3,1,,,,,,,,,,,,,,,,,,,,,,,,,,,,,,,,,,,,,,,,,,,,,,
190530,001,2022-11-20_15h56.57.417,Info_measure_main_exp,2022.2.2,MacIntel,59.97361161,,,,,,,,,,,,,,,,,,masks/mask_002.jpg,,,,,,,,,,,,,,,,,,,,,,,,,,,,,,,,,,,,,,,,,,,0,4,4,1,1,,,,,,,,,,,,,,,,,,,,,,,,,,,,,,,,,,,,,,,,,,,,,,
190530,001,2022-11-20_15h56.57.417,Info_measure_main_exp,2022.2.2,MacIntel,59.97361161,,,,,,,,,,,,,,,,,,masks/mask_005.jpg,,,,,,,,,,,,,,,,,,,,,,,,,,,,,,,,,,,,,,,,,,,,,,,,0,0,0,4,1,,,,,,,,,,,,,,,,,,,,,,,,,,,,,,,,,,,,,,,,,
190530,001,2022-11-20_15h56.57.417,Info_measure_main_exp,2022.2.2,MacIntel,59.97361161,,,,,,,,,,,,,,,,,,masks/mask_002.jpg,,,,,,,,,,,,,,,,,,,,,,,,,,,,,,,,,,,,,,,,,,,,,,,,0,1,1,1,1,,,,,,,,,,,,,,,,,,,,,,,,,,,,,,,,,,,,,,,,,
190530,001,2022-11-20_15h56.57.417,Info_measure_main_exp,2022.2.2,MacIntel,59.97361161,,,,,,,,,,,,,,,,,,masks/mask_004.jpg,,,,,,,,,,,,,,,,,,,,,,,,,,,,,,,,,,,,,,,,,,,,,,,,0,2,2,3,1,,,,,,,,,,,,,,,,,,,,,,,,,,,,,,,,,,,,,,,,,
190530,001,2022-11-20_15h56.57.417,Info_measure_main_exp,2022.2.2,MacIntel,59.97361161,,,,,,,,,,,,,,,,,,masks/mask_003.jpg,,,,,,,,,,,,,,,,,,,,,,,,,,,,,,,,,,,,,,,,,,,,,,,,0,3,3,2,1,,,,,,,,,,,,,,,,,,,,,,,,,,,,,,,,,,,,,,,,,
190530,001,2022-11-20_15h56.57.417,Info_measure_main_exp,2022.2.2,MacIntel,59.97361161,,,,,,,,,,,,,,,,,,masks/mask_001.jpg,,,,,,,,,,,,,,,,,,,,,,,,,,,,,,,,,,,,,,,,,,,,,,,,0,4,4,0,1,,,,,,,,,,,,,,,,,,,,,,,,,,,,,,,,,,,,,,,,,
190530,001,2022-11-20_15h56.57.417,Info_measure_main_exp,2022.2.2,MacIntel,59.97361161,,,,,,,,,,,,,,,,,,,,,,,,,,,,,,7,0.6344,1,,,,,,,,,,,,1,131,5,5,1,2214,present_patch/cong_131_5_a.jpg,absent_patch/patch0002214.jpg,,,,,,,,,,,,,,,,,,,,0.012083969,0.05002533,1,0,0,response1disk,16,0.000439453,0.000876617,1,0,0,center_square,0,15,15,4,1,,,,,,,,,,,,,,,,,,,,,,,
190530,001,2022-11-20_15h56.57.417,Info_measure_main_exp,2022.2.2,MacIntel,59.97361161,,,,,,,,,,,,,,,,,,masks/mask_005.jpg,,,,,,,,,,,,,,,,,,,,,,,,,,,,,,,,,,,,,,,,,,,0,0,0,4,1,,,,,,,,,,,,,,,,,,,,,,,,,,,,,,,,,,,,,,,,,,,,,,
190530,001,2022-11-20_15h56.57.417,Info_measure_main_exp,2022.2.2,MacIntel,59.97361161,,,,,,,,,,,,,,,,,,masks/mask_004.jpg,,,,,,,,,,,,,,,,,,,,,,,,,,,,,,,,,,,,,,,,,,,0,1,1,3,1,,,,,,,,,,,,,,,,,,,,,,,,,,,,,,,,,,,,,,,,,,,,,,
190530,001,2022-11-20_15h56.57.417,Info_measure_main_exp,2022.2.2,MacIntel,59.97361161,,,,,,,,,,,,,,,,,,masks/mask_003.jpg,,,,,,,,,,,,,,,,,,,,,,,,,,,,,,,,,,,,,,,,,,,0,2,2,2,1,,,,,,,,,,,,,,,,,,,,,,,,,,,,,,,,,,,,,,,,,,,,,,
190530,001,2022-11-20_15h56.57.417,Info_measure_main_exp,2022.2.2,MacIntel,59.97361161,,,,,,,,,,,,,,,,,,masks/mask_002.jpg,,,,,,,,,,,,,,,,,,,,,,,,,,,,,,,,,,,,,,,,,,,0,3,3,1,1,,,,,,,,,,,,,,,,,,,,,,,,,,,,,,,,,,,,,,,,,,,,,,
190530,001,2022-11-20_15h56.57.417,Info_measure_main_exp,2022.2.2,MacIntel,59.97361161,,,,,,,,,,,,,,,,,,masks/mask_001.jpg,,,,,,,,,,,,,,,,,,,,,,,,,,,,,,,,,,,,,,,,,,,0,4,4,0,1,,,,,,,,,,,,,,,,,,,,,,,,,,,,,,,,,,,,,,,,,,,,,,
190530,001,2022-11-20_15h56.57.417,Info_measure_main_exp,2022.2.2,MacIntel,59.97361161,,,,,,,,,,,,,,,,,,masks/mask_001.jpg,,,,,,,,,,,,,,,,,,,,,,,,,,,,,,,,,,,,,,,,,,,,,,,,0,0,0,0,1,,,,,,,,,,,,,,,,,,,,,,,,,,,,,,,,,,,,,,,,,
190530,001,2022-11-20_15h56.57.417,Info_measure_main_exp,2022.2.2,MacIntel,59.97361161,,,,,,,,,,,,,,,,,,masks/mask_002.jpg,,,,,,,,,,,,,,,,,,,,,,,,,,,,,,,,,,,,,,,,,,,,,,,,0,1,1,1,1,,,,,,,,,,,,,,,,,,,,,,,,,,,,,,,,,,,,,,,,,
190530,001,2022-11-20_15h56.57.417,Info_measure_main_exp,2022.2.2,MacIntel,59.97361161,,,,,,,,,,,,,,,,,,masks/mask_004.jpg,,,,,,,,,,,,,,,,,,,,,,,,,,,,,,,,,,,,,,,,,,,,,,,,0,2,2,3,1,,,,,,,,,,,,,,,,,,,,,,,,,,,,,,,,,,,,,,,,,
190530,001,2022-11-20_15h56.57.417,Info_measure_main_exp,2022.2.2,MacIntel,59.97361161,,,,,,,,,,,,,,,,,,masks/mask_003.jpg,,,,,,,,,,,,,,,,,,,,,,,,,,,,,,,,,,,,,,,,,,,,,,,,0,3,3,2,1,,,,,,,,,,,,,,,,,,,,,,,,,,,,,,,,,,,,,,,,,
190530,001,2022-11-20_15h56.57.417,Info_measure_main_exp,2022.2.2,MacIntel,59.97361161,,,,,,,,,,,,,,,,,,masks/mask_005.jpg,,,,,,,,,,,,,,,,,,,,,,,,,,,,,,,,,,,,,,,,,,,,,,,,0,4,4,4,1,,,,,,,,,,,,,,,,,,,,,,,,,,,,,,,,,,,,,,,,,
190530,001,2022-11-20_15h56.57.417,Info_measure_main_exp,2022.2.2,MacIntel,59.97361161,,,,,,,,,,,,,,,,,,,,,,,,,,,,,,3,2.3646,1,,,,,,,,,,,,0,131,5,5,2274,2142,absent_patch/patch0002274.jpg,absent_patch/patch0002142.jpg,,,,,,,,,,,,,,,,,,,,-0.012573624,-0.092655525,1,0,0,response5disk,17,0.000301514,-0.004954681,1,0,0,center_square,0,16,16,75,1,,,,,,,,,,,,,,,,,,,,,,,
190530,001,2022-11-20_15h56.57.417,Info_measure_main_exp,2022.2.2,MacIntel,59.97361161,,,,,,,,,,,,,,,,,,masks/mask_001.jpg,,,,,,,,,,,,,,,,,,,,,,,,,,,,,,,,,,,,,,,,,,,0,0,0,0,1,,,,,,,,,,,,,,,,,,,,,,,,,,,,,,,,,,,,,,,,,,,,,,
190530,001,2022-11-20_15h56.57.417,Info_measure_main_exp,2022.2.2,MacIntel,59.97361161,,,,,,,,,,,,,,,,,,masks/mask_004.jpg,,,,,,,,,,,,,,,,,,,,,,,,,,,,,,,,,,,,,,,,,,,0,1,1,3,1,,,,,,,,,,,,,,,,,,,,,,,,,,,,,,,,,,,,,,,,,,,,,,
190530,001,2022-11-20_15h56.57.417,Info_measure_main_exp,2022.2.2,MacIntel,59.97361161,,,,,,,,,,,,,,,,,,masks/mask_003.jpg,,,,,,,,,,,,,,,,,,,,,,,,,,,,,,,,,,,,,,,,,,,0,2,2,2,1,,,,,,,,,,,,,,,,,,,,,,,,,,,,,,,,,,,,,,,,,,,,,,
190530,001,2022-11-20_15h56.57.417,Info_measure_main_exp,2022.2.2,MacIntel,59.97361161,,,,,,,,,,,,,,,,,,masks/mask_002.jpg,,,,,,,,,,,,,,,,,,,,,,,,,,,,,,,,,,,,,,,,,,,0,3,3,1,1,,,,,,,,,,,,,,,,,,,,,,,,,,,,,,,,,,,,,,,,,,,,,,
190530,001,2022-11-20_15h56.57.417,Info_measure_main_exp,2022.2.2,MacIntel,59.97361161,,,,,,,,,,,,,,,,,,masks/mask_005.jpg,,,,,,,,,,,,,,,,,,,,,,,,,,,,,,,,,,,,,,,,,,,0,4,4,4,1,,,,,,,,,,,,,,,,,,,,,,,,,,,,,,,,,,,,,,,,,,,,,,
190530,001,2022-11-20_15h56.57.417,Info_measure_main_exp,2022.2.2,MacIntel,59.97361161,,,,,,,,,,,,,,,,,,masks/mask_005.jpg,,,,,,,,,,,,,,,,,,,,,,,,,,,,,,,,,,,,,,,,,,,,,,,,0,0,0,4,1,,,,,,,,,,,,,,,,,,,,,,,,,,,,,,,,,,,,,,,,,
190530,001,2022-11-20_15h56.57.417,Info_measure_main_exp,2022.2.2,MacIntel,59.97361161,,,,,,,,,,,,,,,,,,masks/mask_002.jpg,,,,,,,,,,,,,,,,,,,,,,,,,,,,,,,,,,,,,,,,,,,,,,,,0,1,1,1,1,,,,,,,,,,,,,,,,,,,,,,,,,,,,,,,,,,,,,,,,,
190530,001,2022-11-20_15h56.57.417,Info_measure_main_exp,2022.2.2,MacIntel,59.97361161,,,,,,,,,,,,,,,,,,masks/mask_003.jpg,,,,,,,,,,,,,,,,,,,,,,,,,,,,,,,,,,,,,,,,,,,,,,,,0,2,2,2,1,,,,,,,,,,,,,,,,,,,,,,,,,,,,,,,,,,,,,,,,,
190530,001,2022-11-20_15h56.57.417,Info_measure_main_exp,2022.2.2,MacIntel,59.97361161,,,,,,,,,,,,,,,,,,masks/mask_001.jpg,,,,,,,,,,,,,,,,,,,,,,,,,,,,,,,,,,,,,,,,,,,,,,,,0,3,3,0,1,,,,,,,,,,,,,,,,,,,,,,,,,,,,,,,,,,,,,,,,,
190530,001,2022-11-20_15h56.57.417,Info_measure_main_exp,2022.2.2,MacIntel,59.97361161,,,,,,,,,,,,,,,,,,masks/mask_004.jpg,,,,,,,,,,,,,,,,,,,,,,,,,,,,,,,,,,,,,,,,,,,,,,,,0,4,4,3,1,,,,,,,,,,,,,,,,,,,,,,,,,,,,,,,,,,,,,,,,,
190530,001,2022-11-20_15h56.57.417,Info_measure_main_exp,2022.2.2,MacIntel,59.97361161,,,,,,,,,,,,,,,,,,,,,,,,,,,,,,5,5.2762,1,,,,,,,,,,,,0,131,5,5,2250,1950,absent_patch/patch0002250.jpg,absent_patch/patch0001950.jpg,,,,,,,,,,,,,,,,,,,,0.062019119,-0.050779572,1,0,0,response3disk,18,0.004990463,-0.001693153,1,0,0,center_square,0,17,17,16,1,,,,,,,,,,,,,,,,,,,,,,,
190530,001,2022-11-20_15h56.57.417,Info_measure_main_exp,2022.2.2,MacIntel,59.97361161,,,,,,,,,,,,,,,,,,masks/mask_003.jpg,,,,,,,,,,,,,,,,,,,,,,,,,,,,,,,,,,,,,,,,,,,0,0,0,2,1,,,,,,,,,,,,,,,,,,,,,,,,,,,,,,,,,,,,,,,,,,,,,,
190530,001,2022-11-20_15h56.57.417,Info_measure_main_exp,2022.2.2,MacIntel,59.97361161,,,,,,,,,,,,,,,,,,masks/mask_004.jpg,,,,,,,,,,,,,,,,,,,,,,,,,,,,,,,,,,,,,,,,,,,0,1,1,3,1,,,,,,,,,,,,,,,,,,,,,,,,,,,,,,,,,,,,,,,,,,,,,,
190530,001,2022-11-20_15h56.57.417,Info_measure_main_exp,2022.2.2,MacIntel,59.97361161,,,,,,,,,,,,,,,,,,masks/mask_005.jpg,,,,,,,,,,,,,,,,,,,,,,,,,,,,,,,,,,,,,,,,,,,0,2,2,4,1,,,,,,,,,,,,,,,,,,,,,,,,,,,,,,,,,,,,,,,,,,,,,,
190530,001,2022-11-20_15h56.57.417,Info_measure_main_exp,2022.2.2,MacIntel,59.97361161,,,,,,,,,,,,,,,,,,masks/mask_001.jpg,,,,,,,,,,,,,,,,,,,,,,,,,,,,,,,,,,,,,,,,,,,0,3,3,0,1,,,,,,,,,,,,,,,,,,,,,,,,,,,,,,,,,,,,,,,,,,,,,,
190530,001,2022-11-20_15h56.57.417,Info_measure_main_exp,2022.2.2,MacIntel,59.97361161,,,,,,,,,,,,,,,,,,masks/mask_002.jpg,,,,,,,,,,,,,,,,,,,,,,,,,,,,,,,,,,,,,,,,,,,0,4,4,1,1,,,,,,,,,,,,,,,,,,,,,,,,,,,,,,,,,,,,,,,,,,,,,,
190530,001,2022-11-20_15h56.57.417,Info_measure_main_exp,2022.2.2,MacIntel,59.97361161,,,,,,,,,,,,,,,,,,masks/mask_004.jpg,,,,,,,,,,,,,,,,,,,,,,,,,,,,,,,,,,,,,,,,,,,,,,,,0,0,0,3,1,,,,,,,,,,,,,,,,,,,,,,,,,,,,,,,,,,,,,,,,,
190530,001,2022-11-20_15h56.57.417,Info_measure_main_exp,2022.2.2,MacIntel,59.97361161,,,,,,,,,,,,,,,,,,masks/mask_002.jpg,,,,,,,,,,,,,,,,,,,,,,,,,,,,,,,,,,,,,,,,,,,,,,,,0,1,1,1,1,,,,,,,,,,,,,,,,,,,,,,,,,,,,,,,,,,,,,,,,,
190530,001,2022-11-20_15h56.57.417,Info_measure_main_exp,2022.2.2,MacIntel,59.97361161,,,,,,,,,,,,,,,,,,masks/mask_005.jpg,,,,,,,,,,,,,,,,,,,,,,,,,,,,,,,,,,,,,,,,,,,,,,,,0,2,2,4,1,,,,,,,,,,,,,,,,,,,,,,,,,,,,,,,,,,,,,,,,,
190530,001,2022-11-20_15h56.57.417,Info_measure_main_exp,2022.2.2,MacIntel,59.97361161,,,,,,,,,,,,,,,,,,masks/mask_003.jpg,,,,,,,,,,,,,,,,,,,,,,,,,,,,,,,,,,,,,,,,,,,,,,,,0,3,3,2,1,,,,,,,,,,,,,,,,,,,,,,,,,,,,,,,,,,,,,,,,,
190530,001,2022-11-20_15h56.57.417,Info_measure_main_exp,2022.2.2,MacIntel,59.97361161,,,,,,,,,,,,,,,,,,masks/mask_001.jpg,,,,,,,,,,,,,,,,,,,,,,,,,,,,,,,,,,,,,,,,,,,,,,,,0,4,4,0,1,,,,,,,,,,,,,,,,,,,,,,,,,,,,,,,,,,,,,,,,,
190530,001,2022-11-20_15h56.57.417,Info_measure_main_exp,2022.2.2,MacIntel,59.97361161,,,,,,,,,,,,,,,,,,,,,,,,,,,,,,6,2.6666,1,,,,,,,,,,,,0,131,5,5,2250,2298,absent_patch/patch0002250.jpg,absent_patch/patch0002298.jpg,,,,,,,,,,,,,,,,,,,,0.066951981,0.021895561,1,0,0,response1disk,19,0.004697571,-0.000554161,1,0,0,center_square,0,18,18,59,1,,,,,,,,,,,,,,,,,,,,,,,
190530,001,2022-11-20_15h56.57.417,Info_measure_main_exp,2022.2.2,MacIntel,59.97361161,,,,,,,,,,,,,,,,,,masks/mask_001.jpg,,,,,,,,,,,,,,,,,,,,,,,,,,,,,,,,,,,,,,,,,,,0,0,0,0,1,,,,,,,,,,,,,,,,,,,,,,,,,,,,,,,,,,,,,,,,,,,,,,
190530,001,2022-11-20_15h56.57.417,Info_measure_main_exp,2022.2.2,MacIntel,59.97361161,,,,,,,,,,,,,,,,,,masks/mask_004.jpg,,,,,,,,,,,,,,,,,,,,,,,,,,,,,,,,,,,,,,,,,,,0,1,1,3,1,,,,,,,,,,,,,,,,,,,,,,,,,,,,,,,,,,,,,,,,,,,,,,
190530,001,2022-11-20_15h56.57.417,Info_measure_main_exp,2022.2.2,MacIntel,59.97361161,,,,,,,,,,,,,,,,,,masks/mask_003.jpg,,,,,,,,,,,,,,,,,,,,,,,,,,,,,,,,,,,,,,,,,,,0,2,2,2,1,,,,,,,,,,,,,,,,,,,,,,,,,,,,,,,,,,,,,,,,,,,,,,
190530,001,2022-11-20_15h56.57.417,Info_measure_main_exp,2022.2.2,MacIntel,59.97361161,,,,,,,,,,,,,,,,,,masks/mask_002.jpg,,,,,,,,,,,,,,,,,,,,,,,,,,,,,,,,,,,,,,,,,,,0,3,3,1,1,,,,,,,,,,,,,,,,,,,,,,,,,,,,,,,,,,,,,,,,,,,,,,
190530,001,2022-11-20_15h56.57.417,Info_measure_main_exp,2022.2.2,MacIntel,59.97361161,,,,,,,,,,,,,,,,,,masks/mask_005.jpg,,,,,,,,,,,,,,,,,,,,,,,,,,,,,,,,,,,,,,,,,,,0,4,4,4,1,,,,,,,,,,,,,,,,,,,,,,,,,,,,,,,,,,,,,,,,,,,,,,
190530,001,2022-11-20_15h56.57.417,Info_measure_main_exp,2022.2.2,MacIntel,59.97361161,,,,,,,,,,,,,,,,,,masks/mask_003.jpg,,,,,,,,,,,,,,,,,,,,,,,,,,,,,,,,,,,,,,,,,,,,,,,,0,0,0,2,1,,,,,,,,,,,,,,,,,,,,,,,,,,,,,,,,,,,,,,,,,
190530,001,2022-11-20_15h56.57.417,Info_measure_main_exp,2022.2.2,MacIntel,59.97361161,,,,,,,,,,,,,,,,,,masks/mask_002.jpg,,,,,,,,,,,,,,,,,,,,,,,,,,,,,,,,,,,,,,,,,,,,,,,,0,1,1,1,1,,,,,,,,,,,,,,,,,,,,,,,,,,,,,,,,,,,,,,,,,
190530,001,2022-11-20_15h56.57.417,Info_measure_main_exp,2022.2.2,MacIntel,59.97361161,,,,,,,,,,,,,,,,,,masks/mask_005.jpg,,,,,,,,,,,,,,,,,,,,,,,,,,,,,,,,,,,,,,,,,,,,,,,,0,2,2,4,1,,,,,,,,,,,,,,,,,,,,,,,,,,,,,,,,,,,,,,,,,
190530,001,2022-11-20_15h56.57.417,Info_measure_main_exp,2022.2.2,MacIntel,59.97361161,,,,,,,,,,,,,,,,,,masks/mask_001.jpg,,,,,,,,,,,,,,,,,,,,,,,,,,,,,,,,,,,,,,,,,,,,,,,,0,3,3,0,1,,,,,,,,,,,,,,,,,,,,,,,,,,,,,,,,,,,,,,,,,
190530,001,2022-11-20_15h56.57.417,Info_measure_main_exp,2022.2.2,MacIntel,59.97361161,,,,,,,,,,,,,,,,,,masks/mask_004.jpg,,,,,,,,,,,,,,,,,,,,,,,,,,,,,,,,,,,,,,,,,,,,,,,,0,4,4,3,1,,,,,,,,,,,,,,,,,,,,,,,,,,,,,,,,,,,,,,,,,
190530,001,2022-11-20_15h56.57.417,Info_measure_main_exp,2022.2.2,MacIntel,59.97361161,,,,,,,,,,,,,,,,,,,,,,,,,,,,,,7,0.8501,1,,,,,,,,,,,,0,131,5,5,2274,2178,absent_patch/patch0002274.jpg,absent_patch/patch0002178.jpg,,,,,,,,,,,,,,,,,,,,0.036703186,0.093641891,1,0,0,response1disk,20,-0.00061142,0.000292664,1,0,0,center_square,0,19,19,117,1,,,,,,,,,,,,,,,,,,,,,,,
190530,001,2022-11-20_15h56.57.417,Info_measure_main_exp,2022.2.2,MacIntel,59.97361161,,,,,,,,,,,,,,,,,,masks/mask_001.jpg,,,,,,,,,,,,,,,,,,,,,,,,,,,,,,,,,,,,,,,,,,,0,0,0,0,1,,,,,,,,,,,,,,,,,,,,,,,,,,,,,,,,,,,,,,,,,,,,,,
190530,001,2022-11-20_15h56.57.417,Info_measure_main_exp,2022.2.2,MacIntel,59.97361161,,,,,,,,,,,,,,,,,,masks/mask_004.jpg,,,,,,,,,,,,,,,,,,,,,,,,,,,,,,,,,,,,,,,,,,,0,1,1,3,1,,,,,,,,,,,,,,,,,,,,,,,,,,,,,,,,,,,,,,,,,,,,,,
190530,001,2022-11-20_15h56.57.417,Info_measure_main_exp,2022.2.2,MacIntel,59.97361161,,,,,,,,,,,,,,,,,,masks/mask_003.jpg,,,,,,,,,,,,,,,,,,,,,,,,,,,,,,,,,,,,,,,,,,,0,2,2,2,1,,,,,,,,,,,,,,,,,,,,,,,,,,,,,,,,,,,,,,,,,,,,,,
190530,001,2022-11-20_15h56.57.417,Info_measure_main_exp,2022.2.2,MacIntel,59.97361161,,,,,,,,,,,,,,,,,,masks/mask_002.jpg,,,,,,,,,,,,,,,,,,,,,,,,,,,,,,,,,,,,,,,,,,,0,3,3,1,1,,,,,,,,,,,,,,,,,,,,,,,,,,,,,,,,,,,,,,,,,,,,,,
190530,001,2022-11-20_15h56.57.417,Info_measure_main_exp,2022.2.2,MacIntel,59.97361161,,,,,,,,,,,,,,,,,,masks/mask_005.jpg,,,,,,,,,,,,,,,,,,,,,,,,,,,,,,,,,,,,,,,,,,,0,4,4,4,1,,,,,,,,,,,,,,,,,,,,,,,,,,,,,,,,,,,,,,,,,,,,,,
190530,001,2022-11-20_15h56.57.417,Info_measure_main_exp,2022.2.2,MacIntel,59.97361161,,,,,,,,,,,,,,,,,,masks/mask_003.jpg,,,,,,,,,,,,,,,,,,,,,,,,,,,,,,,,,,,,,,,,,,,,,,,,0,0,0,2,1,,,,,,,,,,,,,,,,,,,,,,,,,,,,,,,,,,,,,,,,,
190530,001,2022-11-20_15h56.57.417,Info_measure_main_exp,2022.2.2,MacIntel,59.97361161,,,,,,,,,,,,,,,,,,masks/mask_005.jpg,,,,,,,,,,,,,,,,,,,,,,,,,,,,,,,,,,,,,,,,,,,,,,,,0,1,1,4,1,,,,,,,,,,,,,,,,,,,,,,,,,,,,,,,,,,,,,,,,,
190530,001,2022-11-20_15h56.57.417,Info_measure_main_exp,2022.2.2,MacIntel,59.97361161,,,,,,,,,,,,,,,,,,masks/mask_004.jpg,,,,,,,,,,,,,,,,,,,,,,,,,,,,,,,,,,,,,,,,,,,,,,,,0,2,2,3,1,,,,,,,,,,,,,,,,,,,,,,,,,,,,,,,,,,,,,,,,,
190530,001,2022-11-20_15h56.57.417,Info_measure_main_exp,2022.2.2,MacIntel,59.97361161,,,,,,,,,,,,,,,,,,masks/mask_002.jpg,,,,,,,,,,,,,,,,,,,,,,,,,,,,,,,,,,,,,,,,,,,,,,,,0,3,3,1,1,,,,,,,,,,,,,,,,,,,,,,,,,,,,,,,,,,,,,,,,,
190530,001,2022-11-20_15h56.57.417,Info_measure_main_exp,2022.2.2,MacIntel,59.97361161,,,,,,,,,,,,,,,,,,masks/mask_001.jpg,,,,,,,,,,,,,,,,,,,,,,,,,,,,,,,,,,,,,,,,,,,,,,,,0,4,4,0,1,,,,,,,,,,,,,,,,,,,,,,,,,,,,,,,,,,,,,,,,,
190530,001,2022-11-20_15h56.57.417,Info_measure_main_exp,2022.2.2,MacIntel,59.97361161,,,,,,,,,,,,,,,,,,,,,,,,,,,,,,0,0.5687,1,,,,,,,,,,,,0,131,5,5,2166,2166,absent_patch/patch0002166.jpg,absent_patch/patch0002166.jpg,,,,,,,,,,,,,,,,,,,,-0.021678085,0.054375076,1,0,0,response7disk,21,-0.003338318,-0.002836685,1,0,0,center_square,0,20,20,42,1,,,,,,,,,,,,,,,,,,,,,,,
190530,001,2022-11-20_15h56.57.417,Info_measure_main_exp,2022.2.2,MacIntel,59.97361161,,,,,,,,,,,,,,,,,,masks/mask_004.jpg,,,,,,,,,,,,,,,,,,,,,,,,,,,,,,,,,,,,,,,,,,,0,0,0,3,1,,,,,,,,,,,,,,,,,,,,,,,,,,,,,,,,,,,,,,,,,,,,,,
190530,001,2022-11-20_15h56.57.417,Info_measure_main_exp,2022.2.2,MacIntel,59.97361161,,,,,,,,,,,,,,,,,,masks/mask_003.jpg,,,,,,,,,,,,,,,,,,,,,,,,,,,,,,,,,,,,,,,,,,,0,1,1,2,1,,,,,,,,,,,,,,,,,,,,,,,,,,,,,,,,,,,,,,,,,,,,,,
190530,001,2022-11-20_15h56.57.417,Info_measure_main_exp,2022.2.2,MacIntel,59.97361161,,,,,,,,,,,,,,,,,,masks/mask_005.jpg,,,,,,,,,,,,,,,,,,,,,,,,,,,,,,,,,,,,,,,,,,,0,2,2,4,1,,,,,,,,,,,,,,,,,,,,,,,,,,,,,,,,,,,,,,,,,,,,,,
190530,001,2022-11-20_15h56.57.417,Info_measure_main_exp,2022.2.2,MacIntel,59.97361161,,,,,,,,,,,,,,,,,,masks/mask_001.jpg,,,,,,,,,,,,,,,,,,,,,,,,,,,,,,,,,,,,,,,,,,,0,3,3,0,1,,,,,,,,,,,,,,,,,,,,,,,,,,,,,,,,,,,,,,,,,,,,,,
190530,001,2022-11-20_15h56.57.417,Info_measure_main_exp,2022.2.2,MacIntel,59.97361161,,,,,,,,,,,,,,,,,,masks/mask_002.jpg,,,,,,,,,,,,,,,,,,,,,,,,,,,,,,,,,,,,,,,,,,,0,4,4,1,1,,,,,,,,,,,,,,,,,,,,,,,,,,,,,,,,,,,,,,,,,,,,,,
190530,001,2022-11-20_15h56.57.417,Info_measure_main_exp,2022.2.2,MacIntel,59.97361161,,,,,,,,,,,,,,,,,,masks/mask_003.jpg,,,,,,,,,,,,,,,,,,,,,,,,,,,,,,,,,,,,,,,,,,,,,,,,0,0,0,2,1,,,,,,,,,,,,,,,,,,,,,,,,,,,,,,,,,,,,,,,,,
190530,001,2022-11-20_15h56.57.417,Info_measure_main_exp,2022.2.2,MacIntel,59.97361161,,,,,,,,,,,,,,,,,,masks/mask_005.jpg,,,,,,,,,,,,,,,,,,,,,,,,,,,,,,,,,,,,,,,,,,,,,,,,0,1,1,4,1,,,,,,,,,,,,,,,,,,,,,,,,,,,,,,,,,,,,,,,,,
190530,001,2022-11-20_15h56.57.417,Info_measure_main_exp,2022.2.2,MacIntel,59.97361161,,,,,,,,,,,,,,,,,,masks/mask_001.jpg,,,,,,,,,,,,,,,,,,,,,,,,,,,,,,,,,,,,,,,,,,,,,,,,0,2,2,0,1,,,,,,,,,,,,,,,,,,,,,,,,,,,,,,,,,,,,,,,,,
190530,001,2022-11-20_15h56.57.417,Info_measure_main_exp,2022.2.2,MacIntel,59.97361161,,,,,,,,,,,,,,,,,,masks/mask_004.jpg,,,,,,,,,,,,,,,,,,,,,,,,,,,,,,,,,,,,,,,,,,,,,,,,0,3,3,3,1,,,,,,,,,,,,,,,,,,,,,,,,,,,,,,,,,,,,,,,,,
190530,001,2022-11-20_15h56.57.417,Info_measure_main_exp,2022.2.2,MacIntel,59.97361161,,,,,,,,,,,,,,,,,,masks/mask_002.jpg,,,,,,,,,,,,,,,,,,,,,,,,,,,,,,,,,,,,,,,,,,,,,,,,0,4,4,1,1,,,,,,,,,,,,,,,,,,,,,,,,,,,,,,,,,,,,,,,,,
190530,001,2022-11-20_15h56.57.417,Info_measure_main_exp,2022.2.2,MacIntel,59.97361161,,,,,,,,,,,,,,,,,,,,,,,,,,,,,,4,1.3487,1,,,,,,,,,,,,0,131,5,5,2214,2082,absent_patch/patch0002214.jpg,absent_patch/patch0002082.jpg,,,,,,,,,,,,,,,,,,,,0.005902863,-0.051080627,1,0,0,response3disk,22,-2.36511E-05,-0.002821732,1,0,0,center_square,0,21,21,103,1,,,,,,,,,,,,,,,,,,,,,,,
190530,001,2022-11-20_15h56.57.417,Info_measure_main_exp,2022.2.2,MacIntel,59.97361161,,,,,,,,,,,,,,,,,,masks/mask_004.jpg,,,,,,,,,,,,,,,,,,,,,,,,,,,,,,,,,,,,,,,,,,,0,0,0,3,1,,,,,,,,,,,,,,,,,,,,,,,,,,,,,,,,,,,,,,,,,,,,,,
190530,001,2022-11-20_15h56.57.417,Info_measure_main_exp,2022.2.2,MacIntel,59.97361161,,,,,,,,,,,,,,,,,,masks/mask_001.jpg,,,,,,,,,,,,,,,,,,,,,,,,,,,,,,,,,,,,,,,,,,,0,1,1,0,1,,,,,,,,,,,,,,,,,,,,,,,,,,,,,,,,,,,,,,,,,,,,,,
190530,001,2022-11-20_15h56.57.417,Info_measure_main_exp,2022.2.2,MacIntel,59.97361161,,,,,,,,,,,,,,,,,,masks/mask_002.jpg,,,,,,,,,,,,,,,,,,,,,,,,,,,,,,,,,,,,,,,,,,,0,2,2,1,1,,,,,,,,,,,,,,,,,,,,,,,,,,,,,,,,,,,,,,,,,,,,,,
190530,001,2022-11-20_15h56.57.417,Info_measure_main_exp,2022.2.2,MacIntel,59.97361161,,,,,,,,,,,,,,,,,,masks/mask_005.jpg,,,,,,,,,,,,,,,,,,,,,,,,,,,,,,,,,,,,,,,,,,,0,3,3,4,1,,,,,,,,,,,,,,,,,,,,,,,,,,,,,,,,,,,,,,,,,,,,,,
190530,001,2022-11-20_15h56.57.417,Info_measure_main_exp,2022.2.2,MacIntel,59.97361161,,,,,,,,,,,,,,,,,,masks/mask_003.jpg,,,,,,,,,,,,,,,,,,,,,,,,,,,,,,,,,,,,,,,,,,,0,4,4,2,1,,,,,,,,,,,,,,,,,,,,,,,,,,,,,,,,,,,,,,,,,,,,,,
190530,001,2022-11-20_15h56.57.417,Info_measure_main_exp,2022.2.2,MacIntel,59.97361161,,,,,,,,,,,,,,,,,,masks/mask_002.jpg,,,,,,,,,,,,,,,,,,,,,,,,,,,,,,,,,,,,,,,,,,,,,,,,0,0,0,1,1,,,,,,,,,,,,,,,,,,,,,,,,,,,,,,,,,,,,,,,,,
190530,001,2022-11-20_15h56.57.417,Info_measure_main_exp,2022.2.2,MacIntel,59.97361161,,,,,,,,,,,,,,,,,,masks/mask_005.jpg,,,,,,,,,,,,,,,,,,,,,,,,,,,,,,,,,,,,,,,,,,,,,,,,0,1,1,4,1,,,,,,,,,,,,,,,,,,,,,,,,,,,,,,,,,,,,,,,,,
190530,001,2022-11-20_15h56.57.417,Info_measure_main_exp,2022.2.2,MacIntel,59.97361161,,,,,,,,,,,,,,,,,,masks/mask_004.jpg,,,,,,,,,,,,,,,,,,,,,,,,,,,,,,,,,,,,,,,,,,,,,,,,0,2,2,3,1,,,,,,,,,,,,,,,,,,,,,,,,,,,,,,,,,,,,,,,,,
190530,001,2022-11-20_15h56.57.417,Info_measure_main_exp,2022.2.2,MacIntel,59.97361161,,,,,,,,,,,,,,,,,,masks/mask_003.jpg,,,,,,,,,,,,,,,,,,,,,,,,,,,,,,,,,,,,,,,,,,,,,,,,0,3,3,2,1,,,,,,,,,,,,,,,,,,,,,,,,,,,,,,,,,,,,,,,,,
190530,001,2022-11-20_15h56.57.417,Info_measure_main_exp,2022.2.2,MacIntel,59.97361161,,,,,,,,,,,,,,,,,,masks/mask_001.jpg,,,,,,,,,,,,,,,,,,,,,,,,,,,,,,,,,,,,,,,,,,,,,,,,0,4,4,0,1,,,,,,,,,,,,,,,,,,,,,,,,,,,,,,,,,,,,,,,,,
190530,001,2022-11-20_15h56.57.417,Info_measure_main_exp,2022.2.2,MacIntel,59.97361161,,,,,,,,,,,,,,,,,,,,,,,,,,,,,,4,1.2005,1,,,,,,,,,,,,0,131,5,5,2142,2082,absent_patch/patch0002142.jpg,absent_patch/patch0002082.jpg,,,,,,,,,,,,,,,,,,,,0.007073517,-0.032166061,1,0,0,response3disk,23,-0.001226959,0.003214264,1,0,0,center_square,0,22,22,88,1,,,,,,,,,,,,,,,,,,,,,,,
190530,001,2022-11-20_15h56.57.417,Info_measure_main_exp,2022.2.2,MacIntel,59.97361161,,,,,,,,,,,,,,,,,,masks/mask_004.jpg,,,,,,,,,,,,,,,,,,,,,,,,,,,,,,,,,,,,,,,,,,,0,0,0,3,1,,,,,,,,,,,,,,,,,,,,,,,,,,,,,,,,,,,,,,,,,,,,,,
190530,001,2022-11-20_15h56.57.417,Info_measure_main_exp,2022.2.2,MacIntel,59.97361161,,,,,,,,,,,,,,,,,,masks/mask_002.jpg,,,,,,,,,,,,,,,,,,,,,,,,,,,,,,,,,,,,,,,,,,,0,1,1,1,1,,,,,,,,,,,,,,,,,,,,,,,,,,,,,,,,,,,,,,,,,,,,,,
190530,001,2022-11-20_15h56.57.417,Info_measure_main_exp,2022.2.2,MacIntel,59.97361161,,,,,,,,,,,,,,,,,,masks/mask_005.jpg,,,,,,,,,,,,,,,,,,,,,,,,,,,,,,,,,,,,,,,,,,,0,2,2,4,1,,,,,,,,,,,,,,,,,,,,,,,,,,,,,,,,,,,,,,,,,,,,,,
190530,001,2022-11-20_15h56.57.417,Info_measure_main_exp,2022.2.2,MacIntel,59.97361161,,,,,,,,,,,,,,,,,,masks/mask_001.jpg,,,,,,,,,,,,,,,,,,,,,,,,,,,,,,,,,,,,,,,,,,,0,3,3,0,1,,,,,,,,,,,,,,,,,,,,,,,,,,,,,,,,,,,,,,,,,,,,,,
190530,001,2022-11-20_15h56.57.417,Info_measure_main_exp,2022.2.2,MacIntel,59.97361161,,,,,,,,,,,,,,,,,,masks/mask_003.jpg,,,,,,,,,,,,,,,,,,,,,,,,,,,,,,,,,,,,,,,,,,,0,4,4,2,1,,,,,,,,,,,,,,,,,,,,,,,,,,,,,,,,,,,,,,,,,,,,,,
190530,001,2022-11-20_15h56.57.417,Info_measure_main_exp,2022.2.2,MacIntel,59.97361161,,,,,,,,,,,,,,,,,,masks/mask_002.jpg,,,,,,,,,,,,,,,,,,,,,,,,,,,,,,,,,,,,,,,,,,,,,,,,0,0,0,1,1,,,,,,,,,,,,,,,,,,,,,,,,,,,,,,,,,,,,,,,,,
190530,001,2022-11-20_15h56.57.417,Info_measure_main_exp,2022.2.2,MacIntel,59.97361161,,,,,,,,,,,,,,,,,,masks/mask_003.jpg,,,,,,,,,,,,,,,,,,,,,,,,,,,,,,,,,,,,,,,,,,,,,,,,0,1,1,2,1,,,,,,,,,,,,,,,,,,,,,,,,,,,,,,,,,,,,,,,,,
190530,001,2022-11-20_15h56.57.417,Info_measure_main_exp,2022.2.2,MacIntel,59.97361161,,,,,,,,,,,,,,,,,,masks/mask_001.jpg,,,,,,,,,,,,,,,,,,,,,,,,,,,,,,,,,,,,,,,,,,,,,,,,0,2,2,0,1,,,,,,,,,,,,,,,,,,,,,,,,,,,,,,,,,,,,,,,,,
190530,001,2022-11-20_15h56.57.417,Info_measure_main_exp,2022.2.2,MacIntel,59.97361161,,,,,,,,,,,,,,,,,,masks/mask_005.jpg,,,,,,,,,,,,,,,,,,,,,,,,,,,,,,,,,,,,,,,,,,,,,,,,0,3,3,4,1,,,,,,,,,,,,,,,,,,,,,,,,,,,,,,,,,,,,,,,,,
190530,001,2022-11-20_15h56.57.417,Info_measure_main_exp,2022.2.2,MacIntel,59.97361161,,,,,,,,,,,,,,,,,,masks/mask_004.jpg,,,,,,,,,,,,,,,,,,,,,,,,,,,,,,,,,,,,,,,,,,,,,,,,0,4,4,3,1,,,,,,,,,,,,,,,,,,,,,,,,,,,,,,,,,,,,,,,,,
190530,001,2022-11-20_15h56.57.417,Info_measure_main_exp,2022.2.2,MacIntel,59.97361161,,,,,,,,,,,,,,,,,,,,,,,,,,,,,,0,0.6166,1,,,,,,,,,,,,1,131,5,5,1,1,present_patch/cong_131_5_a.jpg,present_patch/cong_131_5_a.jpg,,,,,,,,,,,,,,,,,,,,-0.028794556,0.042762146,1,0,0,response7disk,24,0.000393219,0.007001877,1,0,0,center_square,0,23,23,30,1,,,,,,,,,,,,,,,,,,,,,,,
190530,001,2022-11-20_15h56.57.417,Info_measure_main_exp,2022.2.2,MacIntel,59.97361161,,,,,,,,,,,,,,,,,,masks/mask_001.jpg,,,,,,,,,,,,,,,,,,,,,,,,,,,,,,,,,,,,,,,,,,,0,0,0,0,1,,,,,,,,,,,,,,,,,,,,,,,,,,,,,,,,,,,,,,,,,,,,,,
190530,001,2022-11-20_15h56.57.417,Info_measure_main_exp,2022.2.2,MacIntel,59.97361161,,,,,,,,,,,,,,,,,,masks/mask_002.jpg,,,,,,,,,,,,,,,,,,,,,,,,,,,,,,,,,,,,,,,,,,,0,1,1,1,1,,,,,,,,,,,,,,,,,,,,,,,,,,,,,,,,,,,,,,,,,,,,,,
190530,001,2022-11-20_15h56.57.417,Info_measure_main_exp,2022.2.2,MacIntel,59.97361161,,,,,,,,,,,,,,,,,,masks/mask_004.jpg,,,,,,,,,,,,,,,,,,,,,,,,,,,,,,,,,,,,,,,,,,,0,2,2,3,1,,,,,,,,,,,,,,,,,,,,,,,,,,,,,,,,,,,,,,,,,,,,,,
190530,001,2022-11-20_15h56.57.417,Info_measure_main_exp,2022.2.2,MacIntel,59.97361161,,,,,,,,,,,,,,,,,,masks/mask_003.jpg,,,,,,,,,,,,,,,,,,,,,,,,,,,,,,,,,,,,,,,,,,,0,3,3,2,1,,,,,,,,,,,,,,,,,,,,,,,,,,,,,,,,,,,,,,,,,,,,,,
190530,001,2022-11-20_15h56.57.417,Info_measure_main_exp,2022.2.2,MacIntel,59.97361161,,,,,,,,,,,,,,,,,,masks/mask_005.jpg,,,,,,,,,,,,,,,,,,,,,,,,,,,,,,,,,,,,,,,,,,,0,4,4,4,1,,,,,,,,,,,,,,,,,,,,,,,,,,,,,,,,,,,,,,,,,,,,,,
190530,001,2022-11-20_15h56.57.417,Info_measure_main_exp,2022.2.2,MacIntel,59.97361161,,,,,,,,,,,,,,,,,,masks/mask_005.jpg,,,,,,,,,,,,,,,,,,,,,,,,,,,,,,,,,,,,,,,,,,,,,,,,0,0,0,4,1,,,,,,,,,,,,,,,,,,,,,,,,,,,,,,,,,,,,,,,,,
190530,001,2022-11-20_15h56.57.417,Info_measure_main_exp,2022.2.2,MacIntel,59.97361161,,,,,,,,,,,,,,,,,,masks/mask_004.jpg,,,,,,,,,,,,,,,,,,,,,,,,,,,,,,,,,,,,,,,,,,,,,,,,0,1,1,3,1,,,,,,,,,,,,,,,,,,,,,,,,,,,,,,,,,,,,,,,,,
190530,001,2022-11-20_15h56.57.417,Info_measure_main_exp,2022.2.2,MacIntel,59.97361161,,,,,,,,,,,,,,,,,,masks/mask_002.jpg,,,,,,,,,,,,,,,,,,,,,,,,,,,,,,,,,,,,,,,,,,,,,,,,0,2,2,1,1,,,,,,,,,,,,,,,,,,,,,,,,,,,,,,,,,,,,,,,,,
190530,001,2022-11-20_15h56.57.417,Info_measure_main_exp,2022.2.2,MacIntel,59.97361161,,,,,,,,,,,,,,,,,,masks/mask_001.jpg,,,,,,,,,,,,,,,,,,,,,,,,,,,,,,,,,,,,,,,,,,,,,,,,0,3,3,0,1,,,,,,,,,,,,,,,,,,,,,,,,,,,,,,,,,,,,,,,,,
190530,001,2022-11-20_15h56.57.417,Info_measure_main_exp,2022.2.2,MacIntel,59.97361161,,,,,,,,,,,,,,,,,,masks/mask_003.jpg,,,,,,,,,,,,,,,,,,,,,,,,,,,,,,,,,,,,,,,,,,,,,,,,0,4,4,2,1,,,,,,,,,,,,,,,,,,,,,,,,,,,,,,,,,,,,,,,,,
190530,001,2022-11-20_15h56.57.417,Info_measure_main_exp,2022.2.2,MacIntel,59.97361161,,,,,,,,,,,,,,,,,,,,,,,,,,,,,,5,4.9531,1,,,,,,,,,,,,0,131,5,5,2166,1986,absent_patch/patch0002166.jpg,absent_patch/patch0001986.jpg,,,,,,,,,,,,,,,,,,,,0.041839066,-0.0127285,1,0,0,response3disk,25,0.005720901,0.005698624,1,0,0,center_square,0,24,24,47,1,,,,,,,,,,,,,,,,,,,,,,,
190530,001,2022-11-20_15h56.57.417,Info_measure_main_exp,2022.2.2,MacIntel,59.97361161,,,,,,,,,,,,,,,,,,masks/mask_004.jpg,,,,,,,,,,,,,,,,,,,,,,,,,,,,,,,,,,,,,,,,,,,0,0,0,3,1,,,,,,,,,,,,,,,,,,,,,,,,,,,,,,,,,,,,,,,,,,,,,,
190530,001,2022-11-20_15h56.57.417,Info_measure_main_exp,2022.2.2,MacIntel,59.97361161,,,,,,,,,,,,,,,,,,masks/mask_005.jpg,,,,,,,,,,,,,,,,,,,,,,,,,,,,,,,,,,,,,,,,,,,0,1,1,4,1,,,,,,,,,,,,,,,,,,,,,,,,,,,,,,,,,,,,,,,,,,,,,,
190530,001,2022-11-20_15h56.57.417,Info_measure_main_exp,2022.2.2,MacIntel,59.97361161,,,,,,,,,,,,,,,,,,masks/mask_003.jpg,,,,,,,,,,,,,,,,,,,,,,,,,,,,,,,,,,,,,,,,,,,0,2,2,2,1,,,,,,,,,,,,,,,,,,,,,,,,,,,,,,,,,,,,,,,,,,,,,,
190530,001,2022-11-20_15h56.57.417,Info_measure_main_exp,2022.2.2,MacIntel,59.97361161,,,,,,,,,,,,,,,,,,masks/mask_002.jpg,,,,,,,,,,,,,,,,,,,,,,,,,,,,,,,,,,,,,,,,,,,0,3,3,1,1,,,,,,,,,,,,,,,,,,,,,,,,,,,,,,,,,,,,,,,,,,,,,,
190530,001,2022-11-20_15h56.57.417,Info_measure_main_exp,2022.2.2,MacIntel,59.97361161,,,,,,,,,,,,,,,,,,masks/mask_001.jpg,,,,,,,,,,,,,,,,,,,,,,,,,,,,,,,,,,,,,,,,,,,0,4,4,0,1,,,,,,,,,,,,,,,,,,,,,,,,,,,,,,,,,,,,,,,,,,,,,,
190530,001,2022-11-20_15h56.57.417,Info_measure_main_exp,2022.2.2,MacIntel,59.97361161,,,,,,,,,,,,,,,,,,masks/mask_001.jpg,,,,,,,,,,,,,,,,,,,,,,,,,,,,,,,,,,,,,,,,,,,,,,,,0,0,0,0,1,,,,,,,,,,,,,,,,,,,,,,,,,,,,,,,,,,,,,,,,,
190530,001,2022-11-20_15h56.57.417,Info_measure_main_exp,2022.2.2,MacIntel,59.97361161,,,,,,,,,,,,,,,,,,masks/mask_004.jpg,,,,,,,,,,,,,,,,,,,,,,,,,,,,,,,,,,,,,,,,,,,,,,,,0,1,1,3,1,,,,,,,,,,,,,,,,,,,,,,,,,,,,,,,,,,,,,,,,,
190530,001,2022-11-20_15h56.57.417,Info_measure_main_exp,2022.2.2,MacIntel,59.97361161,,,,,,,,,,,,,,,,,,masks/mask_003.jpg,,,,,,,,,,,,,,,,,,,,,,,,,,,,,,,,,,,,,,,,,,,,,,,,0,2,2,2,1,,,,,,,,,,,,,,,,,,,,,,,,,,,,,,,,,,,,,,,,,
190530,001,2022-11-20_15h56.57.417,Info_measure_main_exp,2022.2.2,MacIntel,59.97361161,,,,,,,,,,,,,,,,,,masks/mask_005.jpg,,,,,,,,,,,,,,,,,,,,,,,,,,,,,,,,,,,,,,,,,,,,,,,,0,3,3,4,1,,,,,,,,,,,,,,,,,,,,,,,,,,,,,,,,,,,,,,,,,
190530,001,2022-11-20_15h56.57.417,Info_measure_main_exp,2022.2.2,MacIntel,59.97361161,,,,,,,,,,,,,,,,,,masks/mask_002.jpg,,,,,,,,,,,,,,,,,,,,,,,,,,,,,,,,,,,,,,,,,,,,,,,,0,4,4,1,1,,,,,,,,,,,,,,,,,,,,,,,,,,,,,,,,,,,,,,,,,
190530,001,2022-11-20_15h56.57.417,Info_measure_main_exp,2022.2.2,MacIntel,59.97361161,,,,,,,,,,,,,,,,,,,,,,,,,,,,,,4,8.2714,1,,,,,,,,,,,,0,131,5,5,2274,1950,absent_patch/patch0002274.jpg,absent_patch/patch0001950.jpg,,,,,,,,,,,,,,,,,,,,0.0166465,-0.042405052,1,0,0,response3disk,26,-0.000588226,0.002908936,1,0,0,center_square,0,25,25,10,1,,,,,,,,,,,,,,,,,,,,,,,
190530,001,2022-11-20_15h56.57.417,Info_measure_main_exp,2022.2.2,MacIntel,59.97361161,,,,,,,,,,,,,,,,,,masks/mask_005.jpg,,,,,,,,,,,,,,,,,,,,,,,,,,,,,,,,,,,,,,,,,,,0,0,0,4,1,,,,,,,,,,,,,,,,,,,,,,,,,,,,,,,,,,,,,,,,,,,,,,
190530,001,2022-11-20_15h56.57.417,Info_measure_main_exp,2022.2.2,MacIntel,59.97361161,,,,,,,,,,,,,,,,,,masks/mask_003.jpg,,,,,,,,,,,,,,,,,,,,,,,,,,,,,,,,,,,,,,,,,,,0,1,1,2,1,,,,,,,,,,,,,,,,,,,,,,,,,,,,,,,,,,,,,,,,,,,,,,
190530,001,2022-11-20_15h56.57.417,Info_measure_main_exp,2022.2.2,MacIntel,59.97361161,,,,,,,,,,,,,,,,,,masks/mask_004.jpg,,,,,,,,,,,,,,,,,,,,,,,,,,,,,,,,,,,,,,,,,,,0,2,2,3,1,,,,,,,,,,,,,,,,,,,,,,,,,,,,,,,,,,,,,,,,,,,,,,
190530,001,2022-11-20_15h56.57.417,Info_measure_main_exp,2022.2.2,MacIntel,59.97361161,,,,,,,,,,,,,,,,,,masks/mask_001.jpg,,,,,,,,,,,,,,,,,,,,,,,,,,,,,,,,,,,,,,,,,,,0,3,3,0,1,,,,,,,,,,,,,,,,,,,,,,,,,,,,,,,,,,,,,,,,,,,,,,
190530,001,2022-11-20_15h56.57.417,Info_measure_main_exp,2022.2.2,MacIntel,59.97361161,,,,,,,,,,,,,,,,,,masks/mask_002.jpg,,,,,,,,,,,,,,,,,,,,,,,,,,,,,,,,,,,,,,,,,,,0,4,4,1,1,,,,,,,,,,,,,,,,,,,,,,,,,,,,,,,,,,,,,,,,,,,,,,
190530,001,2022-11-20_15h56.57.417,Info_measure_main_exp,2022.2.2,MacIntel,59.97361161,,,,,,,,,,,,,,,,,,masks/mask_002.jpg,,,,,,,,,,,,,,,,,,,,,,,,,,,,,,,,,,,,,,,,,,,,,,,,0,0,0,1,1,,,,,,,,,,,,,,,,,,,,,,,,,,,,,,,,,,,,,,,,,
190530,001,2022-11-20_15h56.57.417,Info_measure_main_exp,2022.2.2,MacIntel,59.97361161,,,,,,,,,,,,,,,,,,masks/mask_001.jpg,,,,,,,,,,,,,,,,,,,,,,,,,,,,,,,,,,,,,,,,,,,,,,,,0,1,1,0,1,,,,,,,,,,,,,,,,,,,,,,,,,,,,,,,,,,,,,,,,,
190530,001,2022-11-20_15h56.57.417,Info_measure_main_exp,2022.2.2,MacIntel,59.97361161,,,,,,,,,,,,,,,,,,masks/mask_005.jpg,,,,,,,,,,,,,,,,,,,,,,,,,,,,,,,,,,,,,,,,,,,,,,,,0,2,2,4,1,,,,,,,,,,,,,,,,,,,,,,,,,,,,,,,,,,,,,,,,,
190530,001,2022-11-20_15h56.57.417,Info_measure_main_exp,2022.2.2,MacIntel,59.97361161,,,,,,,,,,,,,,,,,,masks/mask_003.jpg,,,,,,,,,,,,,,,,,,,,,,,,,,,,,,,,,,,,,,,,,,,,,,,,0,3,3,2,1,,,,,,,,,,,,,,,,,,,,,,,,,,,,,,,,,,,,,,,,,
190530,001,2022-11-20_15h56.57.417,Info_measure_main_exp,2022.2.2,MacIntel,59.97361161,,,,,,,,,,,,,,,,,,masks/mask_004.jpg,,,,,,,,,,,,,,,,,,,,,,,,,,,,,,,,,,,,,,,,,,,,,,,,0,4,4,3,1,,,,,,,,,,,,,,,,,,,,,,,,,,,,,,,,,,,,,,,,,
190530,001,2022-11-20_15h56.57.417,Info_measure_main_exp,2022.2.2,MacIntel,59.97361161,,,,,,,,,,,,,,,,,,,,,,,,,,,,,,7,12.8082,1,,,,,,,,,,,,0,131,5,5,1974,2214,absent_patch/patch0001974.jpg,absent_patch/patch0002214.jpg,,,,,,,,,,,,,,,,,,,,0.023791504,0.048352165,1,0,0,response1disk,27,0.003881989,-0.000117187,1,0,0,center_square,0,26,26,24,1,,,,,,,,,,,,,,,,,,,,,,,
190530,001,2022-11-20_15h56.57.417,Info_measure_main_exp,2022.2.2,MacIntel,59.97361161,,,,,,,,,,,,,,,,,,masks/mask_001.jpg,,,,,,,,,,,,,,,,,,,,,,,,,,,,,,,,,,,,,,,,,,,0,0,0,0,1,,,,,,,,,,,,,,,,,,,,,,,,,,,,,,,,,,,,,,,,,,,,,,
190530,001,2022-11-20_15h56.57.417,Info_measure_main_exp,2022.2.2,MacIntel,59.97361161,,,,,,,,,,,,,,,,,,masks/mask_002.jpg,,,,,,,,,,,,,,,,,,,,,,,,,,,,,,,,,,,,,,,,,,,0,1,1,1,1,,,,,,,,,,,,,,,,,,,,,,,,,,,,,,,,,,,,,,,,,,,,,,
190530,001,2022-11-20_15h56.57.417,Info_measure_main_exp,2022.2.2,MacIntel,59.97361161,,,,,,,,,,,,,,,,,,masks/mask_005.jpg,,,,,,,,,,,,,,,,,,,,,,,,,,,,,,,,,,,,,,,,,,,0,2,2,4,1,,,,,,,,,,,,,,,,,,,,,,,,,,,,,,,,,,,,,,,,,,,,,,
190530,001,2022-11-20_15h56.57.417,Info_measure_main_exp,2022.2.2,MacIntel,59.97361161,,,,,,,,,,,,,,,,,,masks/mask_003.jpg,,,,,,,,,,,,,,,,,,,,,,,,,,,,,,,,,,,,,,,,,,,0,3,3,2,1,,,,,,,,,,,,,,,,,,,,,,,,,,,,,,,,,,,,,,,,,,,,,,
190530,001,2022-11-20_15h56.57.417,Info_measure_main_exp,2022.2.2,MacIntel,59.97361161,,,,,,,,,,,,,,,,,,masks/mask_004.jpg,,,,,,,,,,,,,,,,,,,,,,,,,,,,,,,,,,,,,,,,,,,0,4,4,3,1,,,,,,,,,,,,,,,,,,,,,,,,,,,,,,,,,,,,,,,,,,,,,,
190530,001,2022-11-20_15h56.57.417,Info_measure_main_exp,2022.2.2,MacIntel,59.97361161,,,,,,,,,,,,,,,,,,masks/mask_005.jpg,,,,,,,,,,,,,,,,,,,,,,,,,,,,,,,,,,,,,,,,,,,,,,,,0,0,0,4,1,,,,,,,,,,,,,,,,,,,,,,,,,,,,,,,,,,,,,,,,,
190530,001,2022-11-20_15h56.57.417,Info_measure_main_exp,2022.2.2,MacIntel,59.97361161,,,,,,,,,,,,,,,,,,masks/mask_002.jpg,,,,,,,,,,,,,,,,,,,,,,,,,,,,,,,,,,,,,,,,,,,,,,,,0,1,1,1,1,,,,,,,,,,,,,,,,,,,,,,,,,,,,,,,,,,,,,,,,,
190530,001,2022-11-20_15h56.57.417,Info_measure_main_exp,2022.2.2,MacIntel,59.97361161,,,,,,,,,,,,,,,,,,masks/mask_001.jpg,,,,,,,,,,,,,,,,,,,,,,,,,,,,,,,,,,,,,,,,,,,,,,,,0,2,2,0,1,,,,,,,,,,,,,,,,,,,,,,,,,,,,,,,,,,,,,,,,,
190530,001,2022-11-20_15h56.57.417,Info_measure_main_exp,2022.2.2,MacIntel,59.97361161,,,,,,,,,,,,,,,,,,masks/mask_003.jpg,,,,,,,,,,,,,,,,,,,,,,,,,,,,,,,,,,,,,,,,,,,,,,,,0,3,3,2,1,,,,,,,,,,,,,,,,,,,,,,,,,,,,,,,,,,,,,,,,,
190530,001,2022-11-20_15h56.57.417,Info_measure_main_exp,2022.2.2,MacIntel,59.97361161,,,,,,,,,,,,,,,,,,masks/mask_004.jpg,,,,,,,,,,,,,,,,,,,,,,,,,,,,,,,,,,,,,,,,,,,,,,,,0,4,4,3,1,,,,,,,,,,,,,,,,,,,,,,,,,,,,,,,,,,,,,,,,,
190530,001,2022-11-20_15h56.57.417,Info_measure_main_exp,2022.2.2,MacIntel,59.97361161,,,,,,,,,,,,,,,,,,,,,,,,,,,,,,6,19.8435,1,,,,,,,,,,,,0,131,5,5,2298,2214,absent_patch/patch0002298.jpg,absent_patch/patch0002214.jpg,,,,,,,,,,,,,,,,,,,,0.038115005,0.011757355,1,0,0,response1disk,28,0.00161972,-0.010455627,1,0,0,center_square,0,27,27,99,1,,,,,,,,,,,,,,,,,,,,,,,
190530,001,2022-11-20_15h56.57.417,Info_measure_main_exp,2022.2.2,MacIntel,59.97361161,,,,,,,,,,,,,,,,,,masks/mask_004.jpg,,,,,,,,,,,,,,,,,,,,,,,,,,,,,,,,,,,,,,,,,,,0,0,0,3,1,,,,,,,,,,,,,,,,,,,,,,,,,,,,,,,,,,,,,,,,,,,,,,
190530,001,2022-11-20_15h56.57.417,Info_measure_main_exp,2022.2.2,MacIntel,59.97361161,,,,,,,,,,,,,,,,,,masks/mask_003.jpg,,,,,,,,,,,,,,,,,,,,,,,,,,,,,,,,,,,,,,,,,,,0,1,1,2,1,,,,,,,,,,,,,,,,,,,,,,,,,,,,,,,,,,,,,,,,,,,,,,
190530,001,2022-11-20_15h56.57.417,Info_measure_main_exp,2022.2.2,MacIntel,59.97361161,,,,,,,,,,,,,,,,,,masks/mask_005.jpg,,,,,,,,,,,,,,,,,,,,,,,,,,,,,,,,,,,,,,,,,,,0,2,2,4,1,,,,,,,,,,,,,,,,,,,,,,,,,,,,,,,,,,,,,,,,,,,,,,
190530,001,2022-11-20_15h56.57.417,Info_measure_main_exp,2022.2.2,MacIntel,59.97361161,,,,,,,,,,,,,,,,,,masks/mask_002.jpg,,,,,,,,,,,,,,,,,,,,,,,,,,,,,,,,,,,,,,,,,,,0,3,3,1,1,,,,,,,,,,,,,,,,,,,,,,,,,,,,,,,,,,,,,,,,,,,,,,
190530,001,2022-11-20_15h56.57.417,Info_measure_main_exp,2022.2.2,MacIntel,59.97361161,,,,,,,,,,,,,,,,,,masks/mask_001.jpg,,,,,,,,,,,,,,,,,,,,,,,,,,,,,,,,,,,,,,,,,,,0,4,4,0,1,,,,,,,,,,,,,,,,,,,,,,,,,,,,,,,,,,,,,,,,,,,,,,
190530,001,2022-11-20_15h56.57.417,Info_measure_main_exp,2022.2.2,MacIntel,59.97361161,,,,,,,,,,,,,,,,,,masks/mask_005.jpg,,,,,,,,,,,,,,,,,,,,,,,,,,,,,,,,,,,,,,,,,,,,,,,,0,0,0,4,1,,,,,,,,,,,,,,,,,,,,,,,,,,,,,,,,,,,,,,,,,
190530,001,2022-11-20_15h56.57.417,Info_measure_main_exp,2022.2.2,MacIntel,59.97361161,,,,,,,,,,,,,,,,,,masks/mask_001.jpg,,,,,,,,,,,,,,,,,,,,,,,,,,,,,,,,,,,,,,,,,,,,,,,,0,1,1,0,1,,,,,,,,,,,,,,,,,,,,,,,,,,,,,,,,,,,,,,,,,
190530,001,2022-11-20_15h56.57.417,Info_measure_main_exp,2022.2.2,MacIntel,59.97361161,,,,,,,,,,,,,,,,,,masks/mask_002.jpg,,,,,,,,,,,,,,,,,,,,,,,,,,,,,,,,,,,,,,,,,,,,,,,,0,2,2,1,1,,,,,,,,,,,,,,,,,,,,,,,,,,,,,,,,,,,,,,,,,
190530,001,2022-11-20_15h56.57.417,Info_measure_main_exp,2022.2.2,MacIntel,59.97361161,,,,,,,,,,,,,,,,,,masks/mask_003.jpg,,,,,,,,,,,,,,,,,,,,,,,,,,,,,,,,,,,,,,,,,,,,,,,,0,3,3,2,1,,,,,,,,,,,,,,,,,,,,,,,,,,,,,,,,,,,,,,,,,
190530,001,2022-11-20_15h56.57.417,Info_measure_main_exp,2022.2.2,MacIntel,59.97361161,,,,,,,,,,,,,,,,,,masks/mask_004.jpg,,,,,,,,,,,,,,,,,,,,,,,,,,,,,,,,,,,,,,,,,,,,,,,,0,4,4,3,1,,,,,,,,,,,,,,,,,,,,,,,,,,,,,,,,,,,,,,,,,
190530,001,2022-11-20_15h56.57.417,Info_measure_main_exp,2022.2.2,MacIntel,59.97361161,,,,,,,,,,,,,,,,,,,,,,,,,,,,,,3,12.5387,1,,,,,,,,,,,,0,131,5,5,2238,2166,absent_patch/patch0002238.jpg,absent_patch/patch0002166.jpg,,,,,,,,,,,,,,,,,,,,-0.019658356,-0.043849792,1,0,0,response5disk,29,-0.0018647,0.001908646,1,0,0,center_square,0,28,28,118,1,,,,,,,,,,,,,,,,,,,,,,,
190530,001,2022-11-20_15h56.57.417,Info_measure_main_exp,2022.2.2,MacIntel,59.97361161,,,,,,,,,,,,,,,,,,masks/mask_004.jpg,,,,,,,,,,,,,,,,,,,,,,,,,,,,,,,,,,,,,,,,,,,0,0,0,3,1,,,,,,,,,,,,,,,,,,,,,,,,,,,,,,,,,,,,,,,,,,,,,,
190530,001,2022-11-20_15h56.57.417,Info_measure_main_exp,2022.2.2,MacIntel,59.97361161,,,,,,,,,,,,,,,,,,masks/mask_005.jpg,,,,,,,,,,,,,,,,,,,,,,,,,,,,,,,,,,,,,,,,,,,0,1,1,4,1,,,,,,,,,,,,,,,,,,,,,,,,,,,,,,,,,,,,,,,,,,,,,,
190530,001,2022-11-20_15h56.57.417,Info_measure_main_exp,2022.2.2,MacIntel,59.97361161,,,,,,,,,,,,,,,,,,masks/mask_002.jpg,,,,,,,,,,,,,,,,,,,,,,,,,,,,,,,,,,,,,,,,,,,0,2,2,1,1,,,,,,,,,,,,,,,,,,,,,,,,,,,,,,,,,,,,,,,,,,,,,,
190530,001,2022-11-20_15h56.57.417,Info_measure_main_exp,2022.2.2,MacIntel,59.97361161,,,,,,,,,,,,,,,,,,masks/mask_003.jpg,,,,,,,,,,,,,,,,,,,,,,,,,,,,,,,,,,,,,,,,,,,0,3,3,2,1,,,,,,,,,,,,,,,,,,,,,,,,,,,,,,,,,,,,,,,,,,,,,,
190530,001,2022-11-20_15h56.57.417,Info_measure_main_exp,2022.2.2,MacIntel,59.97361161,,,,,,,,,,,,,,,,,,masks/mask_001.jpg,,,,,,,,,,,,,,,,,,,,,,,,,,,,,,,,,,,,,,,,,,,0,4,4,0,1,,,,,,,,,,,,,,,,,,,,,,,,,,,,,,,,,,,,,,,,,,,,,,
190530,001,2022-11-20_15h56.57.417,Info_measure_main_exp,2022.2.2,MacIntel,59.97361161,,,,,,,,,,,,,,,,,,masks/mask_001.jpg,,,,,,,,,,,,,,,,,,,,,,,,,,,,,,,,,,,,,,,,,,,,,,,,0,0,0,0,1,,,,,,,,,,,,,,,,,,,,,,,,,,,,,,,,,,,,,,,,,
190530,001,2022-11-20_15h56.57.417,Info_measure_main_exp,2022.2.2,MacIntel,59.97361161,,,,,,,,,,,,,,,,,,masks/mask_004.jpg,,,,,,,,,,,,,,,,,,,,,,,,,,,,,,,,,,,,,,,,,,,,,,,,0,1,1,3,1,,,,,,,,,,,,,,,,,,,,,,,,,,,,,,,,,,,,,,,,,
190530,001,2022-11-20_15h56.57.417,Info_measure_main_exp,2022.2.2,MacIntel,59.97361161,,,,,,,,,,,,,,,,,,masks/mask_005.jpg,,,,,,,,,,,,,,,,,,,,,,,,,,,,,,,,,,,,,,,,,,,,,,,,0,2,2,4,1,,,,,,,,,,,,,,,,,,,,,,,,,,,,,,,,,,,,,,,,,
190530,001,2022-11-20_15h56.57.417,Info_measure_main_exp,2022.2.2,MacIntel,59.97361161,,,,,,,,,,,,,,,,,,masks/mask_003.jpg,,,,,,,,,,,,,,,,,,,,,,,,,,,,,,,,,,,,,,,,,,,,,,,,0,3,3,2,1,,,,,,,,,,,,,,,,,,,,,,,,,,,,,,,,,,,,,,,,,
190530,001,2022-11-20_15h56.57.417,Info_measure_main_exp,2022.2.2,MacIntel,59.97361161,,,,,,,,,,,,,,,,,,masks/mask_002.jpg,,,,,,,,,,,,,,,,,,,,,,,,,,,,,,,,,,,,,,,,,,,,,,,,0,4,4,1,1,,,,,,,,,,,,,,,,,,,,,,,,,,,,,,,,,,,,,,,,,
190530,001,2022-11-20_15h56.57.417,Info_measure_main_exp,2022.2.2,MacIntel,59.97361161,,,,,,,,,,,,,,,,,,,,,,,,,,,,,,7,14.9409,1,,,,,,,,,,,,0,131,5,5,2178,2238,absent_patch/patch0002178.jpg,absent_patch/patch0002238.jpg,,,,,,,,,,,,,,,,,,,,0.029322205,0.14056427,1,0,0,response1disk,30,-0.007414551,0.001913795,1,0,0,center_square,0,29,29,57,1,,,,,,,,,,,,,,,,,,,,,,,
190530,001,2022-11-20_15h56.57.417,Info_measure_main_exp,2022.2.2,MacIntel,59.97361161,,,,,,,,,,,,,,,,,,masks/mask_002.jpg,,,,,,,,,,,,,,,,,,,,,,,,,,,,,,,,,,,,,,,,,,,0,0,0,1,1,,,,,,,,,,,,,,,,,,,,,,,,,,,,,,,,,,,,,,,,,,,,,,
190530,001,2022-11-20_15h56.57.417,Info_measure_main_exp,2022.2.2,MacIntel,59.97361161,,,,,,,,,,,,,,,,,,masks/mask_005.jpg,,,,,,,,,,,,,,,,,,,,,,,,,,,,,,,,,,,,,,,,,,,0,1,1,4,1,,,,,,,,,,,,,,,,,,,,,,,,,,,,,,,,,,,,,,,,,,,,,,
190530,001,2022-11-20_15h56.57.417,Info_measure_main_exp,2022.2.2,MacIntel,59.97361161,,,,,,,,,,,,,,,,,,masks/mask_001.jpg,,,,,,,,,,,,,,,,,,,,,,,,,,,,,,,,,,,,,,,,,,,0,2,2,0,1,,,,,,,,,,,,,,,,,,,,,,,,,,,,,,,,,,,,,,,,,,,,,,
190530,001,2022-11-20_15h56.57.417,Info_measure_main_exp,2022.2.2,MacIntel,59.97361161,,,,,,,,,,,,,,,,,,masks/mask_003.jpg,,,,,,,,,,,,,,,,,,,,,,,,,,,,,,,,,,,,,,,,,,,0,3,3,2,1,,,,,,,,,,,,,,,,,,,,,,,,,,,,,,,,,,,,,,,,,,,,,,
190530,001,2022-11-20_15h56.57.417,Info_measure_main_exp,2022.2.2,MacIntel,59.97361161,,,,,,,,,,,,,,,,,,masks/mask_004.jpg,,,,,,,,,,,,,,,,,,,,,,,,,,,,,,,,,,,,,,,,,,,0,4,4,3,1,,,,,,,,,,,,,,,,,,,,,,,,,,,,,,,,,,,,,,,,,,,,,,
190530,001,2022-11-20_15h56.57.417,Info_measure_main_exp,2022.2.2,MacIntel,59.97361161,,,,,,,,,,,,,,,,,,masks/mask_005.jpg,,,,,,,,,,,,,,,,,,,,,,,,,,,,,,,,,,,,,,,,,,,,,,,,0,0,0,4,1,,,,,,,,,,,,,,,,,,,,,,,,,,,,,,,,,,,,,,,,,
190530,001,2022-11-20_15h56.57.417,Info_measure_main_exp,2022.2.2,MacIntel,59.97361161,,,,,,,,,,,,,,,,,,masks/mask_003.jpg,,,,,,,,,,,,,,,,,,,,,,,,,,,,,,,,,,,,,,,,,,,,,,,,0,1,1,2,1,,,,,,,,,,,,,,,,,,,,,,,,,,,,,,,,,,,,,,,,,
190530,001,2022-11-20_15h56.57.417,Info_measure_main_exp,2022.2.2,MacIntel,59.97361161,,,,,,,,,,,,,,,,,,masks/mask_004.jpg,,,,,,,,,,,,,,,,,,,,,,,,,,,,,,,,,,,,,,,,,,,,,,,,0,2,2,3,1,,,,,,,,,,,,,,,,,,,,,,,,,,,,,,,,,,,,,,,,,
190530,001,2022-11-20_15h56.57.417,Info_measure_main_exp,2022.2.2,MacIntel,59.97361161,,,,,,,,,,,,,,,,,,masks/mask_001.jpg,,,,,,,,,,,,,,,,,,,,,,,,,,,,,,,,,,,,,,,,,,,,,,,,0,3,3,0,1,,,,,,,,,,,,,,,,,,,,,,,,,,,,,,,,,,,,,,,,,
190530,001,2022-11-20_15h56.57.417,Info_measure_main_exp,2022.2.2,MacIntel,59.97361161,,,,,,,,,,,,,,,,,,masks/mask_002.jpg,,,,,,,,,,,,,,,,,,,,,,,,,,,,,,,,,,,,,,,,,,,,,,,,0,4,4,1,1,,,,,,,,,,,,,,,,,,,,,,,,,,,,,,,,,,,,,,,,,
190530,001,2022-11-20_15h56.57.417,Info_measure_main_exp,2022.2.2,MacIntel,59.97361161,,,,,,,,,,,,,,,,,,,,,,,,,,,,,,5,1.7181,1,,,,,,,,,,,,0,131,5,5,1974,2250,absent_patch/patch0001974.jpg,absent_patch/patch0002250.jpg,,,,,,,,,,,,,,,,,,,,0.03723671,-0.010690918,1,0,0,response3disk,31,0.003818359,0.00166317,1,0,0,center_square,0,30,30,55,1,,,,,,,,,,,,,,,,,,,,,,,
190530,001,2022-11-20_15h56.57.417,Info_measure_main_exp,2022.2.2,MacIntel,59.97361161,,,,,,,,,,,,,,,,,,masks/mask_004.jpg,,,,,,,,,,,,,,,,,,,,,,,,,,,,,,,,,,,,,,,,,,,0,0,0,3,1,,,,,,,,,,,,,,,,,,,,,,,,,,,,,,,,,,,,,,,,,,,,,,
190530,001,2022-11-20_15h56.57.417,Info_measure_main_exp,2022.2.2,MacIntel,59.97361161,,,,,,,,,,,,,,,,,,masks/mask_001.jpg,,,,,,,,,,,,,,,,,,,,,,,,,,,,,,,,,,,,,,,,,,,0,1,1,0,1,,,,,,,,,,,,,,,,,,,,,,,,,,,,,,,,,,,,,,,,,,,,,,
190530,001,2022-11-20_15h56.57.417,Info_measure_main_exp,2022.2.2,MacIntel,59.97361161,,,,,,,,,,,,,,,,,,masks/mask_003.jpg,,,,,,,,,,,,,,,,,,,,,,,,,,,,,,,,,,,,,,,,,,,0,2,2,2,1,,,,,,,,,,,,,,,,,,,,,,,,,,,,,,,,,,,,,,,,,,,,,,
190530,001,2022-11-20_15h56.57.417,Info_measure_main_exp,2022.2.2,MacIntel,59.97361161,,,,,,,,,,,,,,,,,,masks/mask_005.jpg,,,,,,,,,,,,,,,,,,,,,,,,,,,,,,,,,,,,,,,,,,,0,3,3,4,1,,,,,,,,,,,,,,,,,,,,,,,,,,,,,,,,,,,,,,,,,,,,,,
190530,001,2022-11-20_15h56.57.417,Info_measure_main_exp,2022.2.2,MacIntel,59.97361161,,,,,,,,,,,,,,,,,,masks/mask_002.jpg,,,,,,,,,,,,,,,,,,,,,,,,,,,,,,,,,,,,,,,,,,,0,4,4,1,1,,,,,,,,,,,,,,,,,,,,,,,,,,,,,,,,,,,,,,,,,,,,,,
190530,001,2022-11-20_15h56.57.417,Info_measure_main_exp,2022.2.2,MacIntel,59.97361161,,,,,,,,,,,,,,,,,,masks/mask_004.jpg,,,,,,,,,,,,,,,,,,,,,,,,,,,,,,,,,,,,,,,,,,,,,,,,0,0,0,3,1,,,,,,,,,,,,,,,,,,,,,,,,,,,,,,,,,,,,,,,,,
190530,001,2022-11-20_15h56.57.417,Info_measure_main_exp,2022.2.2,MacIntel,59.97361161,,,,,,,,,,,,,,,,,,masks/mask_001.jpg,,,,,,,,,,,,,,,,,,,,,,,,,,,,,,,,,,,,,,,,,,,,,,,,0,1,1,0,1,,,,,,,,,,,,,,,,,,,,,,,,,,,,,,,,,,,,,,,,,
190530,001,2022-11-20_15h56.57.417,Info_measure_main_exp,2022.2.2,MacIntel,59.97361161,,,,,,,,,,,,,,,,,,masks/mask_005.jpg,,,,,,,,,,,,,,,,,,,,,,,,,,,,,,,,,,,,,,,,,,,,,,,,0,2,2,4,1,,,,,,,,,,,,,,,,,,,,,,,,,,,,,,,,,,,,,,,,,
190530,001,2022-11-20_15h56.57.417,Info_measure_main_exp,2022.2.2,MacIntel,59.97361161,,,,,,,,,,,,,,,,,,masks/mask_003.jpg,,,,,,,,,,,,,,,,,,,,,,,,,,,,,,,,,,,,,,,,,,,,,,,,0,3,3,2,1,,,,,,,,,,,,,,,,,,,,,,,,,,,,,,,,,,,,,,,,,
190530,001,2022-11-20_15h56.57.417,Info_measure_main_exp,2022.2.2,MacIntel,59.97361161,,,,,,,,,,,,,,,,,,masks/mask_002.jpg,,,,,,,,,,,,,,,,,,,,,,,,,,,,,,,,,,,,,,,,,,,,,,,,0,4,4,1,1,,,,,,,,,,,,,,,,,,,,,,,,,,,,,,,,,,,,,,,,,
190530,001,2022-11-20_15h56.57.417,Info_measure_main_exp,2022.2.2,MacIntel,59.97361161,,,,,,,,,,,,,,,,,,,,,,,,,,,,,,3,2.7173,1,,,,,,,,,,,,0,131,5,5,1950,2142,absent_patch/patch0001950.jpg,absent_patch/patch0002142.jpg,,,,,,,,,,,,,,,,,,,,-0.01625885,-0.036347504,1,0,0,response5disk,32,-0.003886948,-0.006266937,1,0,0,center_square,0,31,31,83,1,,,,,,,,,,,,,,,,,,,,,,,
190530,001,2022-11-20_15h56.57.417,Info_measure_main_exp,2022.2.2,MacIntel,59.97361161,,,,,,,,,,,,,,,,,,masks/mask_001.jpg,,,,,,,,,,,,,,,,,,,,,,,,,,,,,,,,,,,,,,,,,,,0,0,0,0,1,,,,,,,,,,,,,,,,,,,,,,,,,,,,,,,,,,,,,,,,,,,,,,
190530,001,2022-11-20_15h56.57.417,Info_measure_main_exp,2022.2.2,MacIntel,59.97361161,,,,,,,,,,,,,,,,,,masks/mask_003.jpg,,,,,,,,,,,,,,,,,,,,,,,,,,,,,,,,,,,,,,,,,,,0,1,1,2,1,,,,,,,,,,,,,,,,,,,,,,,,,,,,,,,,,,,,,,,,,,,,,,
190530,001,2022-11-20_15h56.57.417,Info_measure_main_exp,2022.2.2,MacIntel,59.97361161,,,,,,,,,,,,,,,,,,masks/mask_004.jpg,,,,,,,,,,,,,,,,,,,,,,,,,,,,,,,,,,,,,,,,,,,0,2,2,3,1,,,,,,,,,,,,,,,,,,,,,,,,,,,,,,,,,,,,,,,,,,,,,,
190530,001,2022-11-20_15h56.57.417,Info_measure_main_exp,2022.2.2,MacIntel,59.97361161,,,,,,,,,,,,,,,,,,masks/mask_005.jpg,,,,,,,,,,,,,,,,,,,,,,,,,,,,,,,,,,,,,,,,,,,0,3,3,4,1,,,,,,,,,,,,,,,,,,,,,,,,,,,,,,,,,,,,,,,,,,,,,,
190530,001,2022-11-20_15h56.57.417,Info_measure_main_exp,2022.2.2,MacIntel,59.97361161,,,,,,,,,,,,,,,,,,masks/mask_002.jpg,,,,,,,,,,,,,,,,,,,,,,,,,,,,,,,,,,,,,,,,,,,0,4,4,1,1,,,,,,,,,,,,,,,,,,,,,,,,,,,,,,,,,,,,,,,,,,,,,,
190530,001,2022-11-20_15h56.57.417,Info_measure_main_exp,2022.2.2,MacIntel,59.97361161,,,,,,,,,,,,,,,,,,masks/mask_001.jpg,,,,,,,,,,,,,,,,,,,,,,,,,,,,,,,,,,,,,,,,,,,,,,,,0,0,0,0,1,,,,,,,,,,,,,,,,,,,,,,,,,,,,,,,,,,,,,,,,,
190530,001,2022-11-20_15h56.57.417,Info_measure_main_exp,2022.2.2,MacIntel,59.97361161,,,,,,,,,,,,,,,,,,masks/mask_004.jpg,,,,,,,,,,,,,,,,,,,,,,,,,,,,,,,,,,,,,,,,,,,,,,,,0,1,1,3,1,,,,,,,,,,,,,,,,,,,,,,,,,,,,,,,,,,,,,,,,,
190530,001,2022-11-20_15h56.57.417,Info_measure_main_exp,2022.2.2,MacIntel,59.97361161,,,,,,,,,,,,,,,,,,masks/mask_005.jpg,,,,,,,,,,,,,,,,,,,,,,,,,,,,,,,,,,,,,,,,,,,,,,,,0,2,2,4,1,,,,,,,,,,,,,,,,,,,,,,,,,,,,,,,,,,,,,,,,,
190530,001,2022-11-20_15h56.57.417,Info_measure_main_exp,2022.2.2,MacIntel,59.97361161,,,,,,,,,,,,,,,,,,masks/mask_002.jpg,,,,,,,,,,,,,,,,,,,,,,,,,,,,,,,,,,,,,,,,,,,,,,,,0,3,3,1,1,,,,,,,,,,,,,,,,,,,,,,,,,,,,,,,,,,,,,,,,,
190530,001,2022-11-20_15h56.57.417,Info_measure_main_exp,2022.2.2,MacIntel,59.97361161,,,,,,,,,,,,,,,,,,masks/mask_003.jpg,,,,,,,,,,,,,,,,,,,,,,,,,,,,,,,,,,,,,,,,,,,,,,,,0,4,4,2,1,,,,,,,,,,,,,,,,,,,,,,,,,,,,,,,,,,,,,,,,,
190530,001,2022-11-20_15h56.57.417,Info_measure_main_exp,2022.2.2,MacIntel,59.97361161,,,,,,,,,,,,,,,,,,,,,,,,,,,,,,5,1.3697,1,,,,,,,,,,,,0,131,5,5,1950,2082,absent_patch/patch0001950.jpg,absent_patch/patch0002082.jpg,,,,,,,,,,,,,,,,,,,,0.030588531,-0.006429939,1,0,0,response3disk,33,-0.005225372,0.005956345,1,0,0,center_square,0,32,32,12,1,,,,,,,,,,,,,,,,,,,,,,,
190530,001,2022-11-20_15h56.57.417,Info_measure_main_exp,2022.2.2,MacIntel,59.97361161,,,,,,,,,,,,,,,,,,masks/mask_004.jpg,,,,,,,,,,,,,,,,,,,,,,,,,,,,,,,,,,,,,,,,,,,0,0,0,3,1,,,,,,,,,,,,,,,,,,,,,,,,,,,,,,,,,,,,,,,,,,,,,,
190530,001,2022-11-20_15h56.57.417,Info_measure_main_exp,2022.2.2,MacIntel,59.97361161,,,,,,,,,,,,,,,,,,masks/mask_002.jpg,,,,,,,,,,,,,,,,,,,,,,,,,,,,,,,,,,,,,,,,,,,0,1,1,1,1,,,,,,,,,,,,,,,,,,,,,,,,,,,,,,,,,,,,,,,,,,,,,,
190530,001,2022-11-20_15h56.57.417,Info_measure_main_exp,2022.2.2,MacIntel,59.97361161,,,,,,,,,,,,,,,,,,masks/mask_005.jpg,,,,,,,,,,,,,,,,,,,,,,,,,,,,,,,,,,,,,,,,,,,0,2,2,4,1,,,,,,,,,,,,,,,,,,,,,,,,,,,,,,,,,,,,,,,,,,,,,,
190530,001,2022-11-20_15h56.57.417,Info_measure_main_exp,2022.2.2,MacIntel,59.97361161,,,,,,,,,,,,,,,,,,masks/mask_001.jpg,,,,,,,,,,,,,,,,,,,,,,,,,,,,,,,,,,,,,,,,,,,0,3,3,0,1,,,,,,,,,,,,,,,,,,,,,,,,,,,,,,,,,,,,,,,,,,,,,,
190530,001,2022-11-20_15h56.57.417,Info_measure_main_exp,2022.2.2,MacIntel,59.97361161,,,,,,,,,,,,,,,,,,masks/mask_003.jpg,,,,,,,,,,,,,,,,,,,,,,,,,,,,,,,,,,,,,,,,,,,0,4,4,2,1,,,,,,,,,,,,,,,,,,,,,,,,,,,,,,,,,,,,,,,,,,,,,,
190530,001,2022-11-20_15h56.57.417,Info_measure_main_exp,2022.2.2,MacIntel,59.97361161,,,,,,,,,,,,,,,,,,masks/mask_003.jpg,,,,,,,,,,,,,,,,,,,,,,,,,,,,,,,,,,,,,,,,,,,,,,,,0,0,0,2,1,,,,,,,,,,,,,,,,,,,,,,,,,,,,,,,,,,,,,,,,,
190530,001,2022-11-20_15h56.57.417,Info_measure_main_exp,2022.2.2,MacIntel,59.97361161,,,,,,,,,,,,,,,,,,masks/mask_005.jpg,,,,,,,,,,,,,,,,,,,,,,,,,,,,,,,,,,,,,,,,,,,,,,,,0,1,1,4,1,,,,,,,,,,,,,,,,,,,,,,,,,,,,,,,,,,,,,,,,,
190530,001,2022-11-20_15h56.57.417,Info_measure_main_exp,2022.2.2,MacIntel,59.97361161,,,,,,,,,,,,,,,,,,masks/mask_002.jpg,,,,,,,,,,,,,,,,,,,,,,,,,,,,,,,,,,,,,,,,,,,,,,,,0,2,2,1,1,,,,,,,,,,,,,,,,,,,,,,,,,,,,,,,,,,,,,,,,,
190530,001,2022-11-20_15h56.57.417,Info_measure_main_exp,2022.2.2,MacIntel,59.97361161,,,,,,,,,,,,,,,,,,masks/mask_001.jpg,,,,,,,,,,,,,,,,,,,,,,,,,,,,,,,,,,,,,,,,,,,,,,,,0,3,3,0,1,,,,,,,,,,,,,,,,,,,,,,,,,,,,,,,,,,,,,,,,,
190530,001,2022-11-20_15h56.57.417,Info_measure_main_exp,2022.2.2,MacIntel,59.97361161,,,,,,,,,,,,,,,,,,masks/mask_004.jpg,,,,,,,,,,,,,,,,,,,,,,,,,,,,,,,,,,,,,,,,,,,,,,,,0,4,4,3,1,,,,,,,,,,,,,,,,,,,,,,,,,,,,,,,,,,,,,,,,,
190530,001,2022-11-20_15h56.57.417,Info_measure_main_exp,2022.2.2,MacIntel,59.97361161,,,,,,,,,,,,,,,,,,,,,,,,,,,,,,7,1.1492,1,,,,,,,,,,,,0,131,5,5,2154,2298,absent_patch/patch0002154.jpg,absent_patch/patch0002298.jpg,,,,,,,,,,,,,,,,,,,,0.018552475,0.048559189,1,0,0,response1disk,34,-0.007653656,-0.011813354,1,0,0,center_square,0,33,33,27,1,,,,,,,,,,,,,,,,,,,,,,,
190530,001,2022-11-20_15h56.57.417,Info_measure_main_exp,2022.2.2,MacIntel,59.97361161,,,,,,,,,,,,,,,,,,masks/mask_001.jpg,,,,,,,,,,,,,,,,,,,,,,,,,,,,,,,,,,,,,,,,,,,0,0,0,0,1,,,,,,,,,,,,,,,,,,,,,,,,,,,,,,,,,,,,,,,,,,,,,,
190530,001,2022-11-20_15h56.57.417,Info_measure_main_exp,2022.2.2,MacIntel,59.97361161,,,,,,,,,,,,,,,,,,masks/mask_003.jpg,,,,,,,,,,,,,,,,,,,,,,,,,,,,,,,,,,,,,,,,,,,0,1,1,2,1,,,,,,,,,,,,,,,,,,,,,,,,,,,,,,,,,,,,,,,,,,,,,,
190530,001,2022-11-20_15h56.57.417,Info_measure_main_exp,2022.2.2,MacIntel,59.97361161,,,,,,,,,,,,,,,,,,masks/mask_005.jpg,,,,,,,,,,,,,,,,,,,,,,,,,,,,,,,,,,,,,,,,,,,0,2,2,4,1,,,,,,,,,,,,,,,,,,,,,,,,,,,,,,,,,,,,,,,,,,,,,,
