participant,session,date,expName,psychopyVersion,OS,frameRate,space_press_continue.keys,space_press_continue.rt,space_press_continue_2.keys,space_press_continue_2.rt,space_press_continue_3.keys,space_press_continue_3.rt,space_press_continue_4.keys,space_press_continue_4.rt,space_press_continue_5.keys,space_press_continue_5.rt,space_press_continue_6.keys,space_press_continue_6.rt,prac_mask_loop_1.thisRepN,prac_mask_loop_1.thisTrialN,prac_mask_loop_1.thisN,prac_mask_loop_1.thisIndex,prac_mask_loop_1.ran,mask_name,prac_mask_loop_2.thisRepN,prac_mask_loop_2.thisTrialN,prac_mask_loop_2.thisN,prac_mask_loop_2.thisIndex,prac_mask_loop_2.ran,mouse_2.x,mouse_2.y,mouse_2.leftButton,mouse_2.midButton,mouse_2.rightButton,mouse_2.clicked_name,similarity,response_time,Pass,mouse_12.x,mouse_12.y,mouse_12.leftButton,mouse_12.midButton,mouse_12.rightButton,mouse_12.clicked_name,prac_loop.thisRepN,prac_loop.thisTrialN,prac_loop.thisN,prac_loop.thisIndex,prac_loop.ran,Pair_type,Image_num,Patch_1_loc,Patch_2_loc,Patch_1_info,Patch_2_info,Patch_1_name,Patch_2_name,mouse_1.x,mouse_1.y,mouse_1.leftButton,mouse_1.midButton,mouse_1.rightButton,mouse_1.time,mouse_1.clicked_name,space_press_continue_7.keys,space_press_continue_7.rt,mask_loop.thisRepN,mask_loop.thisTrialN,mask_loop.thisN,mask_loop.thisIndex,mask_loop.ran,mask_loop_2.thisRepN,mask_loop_2.thisTrialN,mask_loop_2.thisN,mask_loop_2.thisIndex,mask_loop_2.ran,mouse.x,mouse.y,mouse.leftButton,mouse.midButton,mouse.rightButton,mouse.clicked_name,trialNumber,mouse_11.x,mouse_11.y,mouse_11.leftButton,mouse_11.midButton,mouse_11.rightButton,mouse_11.clicked_name,first_pass_loop.thisRepN,first_pass_loop.thisTrialN,first_pass_loop.thisN,first_pass_loop.thisIndex,first_pass_loop.ran,mask_loop_3.thisRepN,mask_loop_3.thisTrialN,mask_loop_3.thisN,mask_loop_3.thisIndex,mask_loop_3.ran,mask_loop_4.thisRepN,mask_loop_4.thisTrialN,mask_loop_4.thisN,mask_loop_4.thisIndex,mask_loop_4.ran,mouse_3.x,mouse_3.y,mouse_3.leftButton,mouse_3.midButton,mouse_3.rightButton,mouse_3.clicked_name,double_pass_loop.thisRepN,double_pass_loop.thisTrialN,double_pass_loop.thisN,double_pass_loop.thisIndex,double_pass_loop.ran,space_exit.keys,space_exit.rt
195310,001,2022-11-21_01h57.21.831,Info_measure_main_exp,2022.2.2,Win32,60.13229104,,,,,,,,,,,,,,,,,,,,,,,,,,,,,,,,,,,,,,,,,,,,,,,,,,,,,,,,,,,,,,,,,,,,,,,,,,,,,,,,,,,,,,,,,,,,,,,,,,,,,,,,,,,,,,,
195310,001,2022-11-21_01h57.21.831,Info_measure_main_exp,2022.2.2,Win32,60.13229104,,,,,,,,,,,,,,,,,,,,,,,,,,,,,,,,,,,,,,,,,,,,,,,,,,,,,,,,,,,,,,,,,,,,,,,,,,,,,,,,,,,,,,,,,,,,,,,,,,,,,,,,,,,,,,,
195310,001,2022-11-21_01h57.21.831,Info_measure_main_exp,2022.2.2,Win32,60.13229104,space,24.4418,,,,,,,,,,,,,,,,,,,,,,,,,,,,,,,,,,,,,,,,,,,,,,,,,,,,,,,,,,,,,,,,,,,,,,,,,,,,,,,,,,,,,,,,,,,,,,,,,,,,,,,,,,,,,
195310,001,2022-11-21_01h57.21.831,Info_measure_main_exp,2022.2.2,Win32,60.13229104,,,space,39.5579,,,,,,,,,,,,,,,,,,,,,,,,,,,,,,,,,,,,,,,,,,,,,,,,,,,,,,,,,,,,,,,,,,,,,,,,,,,,,,,,,,,,,,,,,,,,,,,,,,,,,,,,,,,
195310,001,2022-11-21_01h57.21.831,Info_measure_main_exp,2022.2.2,Win32,60.13229104,,,,,space,13.2689,,,,,,,,,,,,,,,,,,,,,,,,,,,,,,,,,,,,,,,,,,,,,,,,,,,,,,,,,,,,,,,,,,,,,,,,,,,,,,,,,,,,,,,,,,,,,,,,,,,,,,,,,
195310,001,2022-11-21_01h57.21.831,Info_measure_main_exp,2022.2.2,Win32,60.13229104,,,,,,,space,23.3279,,,,,,,,,,,,,,,,,,,,,,,,,,,,,,,,,,,,,,,,,,,,,,,,,,,,,,,,,,,,,,,,,,,,,,,,,,,,,,,,,,,,,,,,,,,,,,,,,,,,,,,
195310,001,2022-11-21_01h57.21.831,Info_measure_main_exp,2022.2.2,Win32,60.13229104,,,,,,,,,space,16.8198,,,,,,,,,,,,,,,,,,,,,,,,,,,,,,,,,,,,,,,,,,,,,,,,,,,,,,,,,,,,,,,,,,,,,,,,,,,,,,,,,,,,,,,,,,,,,,,,,,,,,
195310,001,2022-11-21_01h57.21.831,Info_measure_main_exp,2022.2.2,Win32,60.13229104,,,,,,,,,,,space,6.1115,,,,,,,,,,,,,,,,,,,,,,,,,,,,,,,,,,,,,,,,,,,,,,,,,,,,,,,,,,,,,,,,,,,,,,,,,,,,,,,,,,,,,,,,,,,,,,,,,,,
195310,001,2022-11-21_01h57.21.831,Info_measure_main_exp,2022.2.2,Win32,60.13229104,,,,,,,,,,,,,0,0,0,4,1,masks/mask_005.jpg,,,,,,,,,,,,,,,,,,,,,,,,,,,,,,,,,,,,,,,,,,,,,,,,,,,,,,,,,,,,,,,,,,,,,,,,,,,,,,,,,,,,,,,,,,,,,
195310,001,2022-11-21_01h57.21.831,Info_measure_main_exp,2022.2.2,Win32,60.13229104,,,,,,,,,,,,,0,1,1,1,1,masks/mask_002.jpg,,,,,,,,,,,,,,,,,,,,,,,,,,,,,,,,,,,,,,,,,,,,,,,,,,,,,,,,,,,,,,,,,,,,,,,,,,,,,,,,,,,,,,,,,,,,,
195310,001,2022-11-21_01h57.21.831,Info_measure_main_exp,2022.2.2,Win32,60.13229104,,,,,,,,,,,,,0,2,2,3,1,masks/mask_004.jpg,,,,,,,,,,,,,,,,,,,,,,,,,,,,,,,,,,,,,,,,,,,,,,,,,,,,,,,,,,,,,,,,,,,,,,,,,,,,,,,,,,,,,,,,,,,,,
195310,001,2022-11-21_01h57.21.831,Info_measure_main_exp,2022.2.2,Win32,60.13229104,,,,,,,,,,,,,0,3,3,0,1,masks/mask_001.jpg,,,,,,,,,,,,,,,,,,,,,,,,,,,,,,,,,,,,,,,,,,,,,,,,,,,,,,,,,,,,,,,,,,,,,,,,,,,,,,,,,,,,,,,,,,,,,
195310,001,2022-11-21_01h57.21.831,Info_measure_main_exp,2022.2.2,Win32,60.13229104,,,,,,,,,,,,,0,4,4,2,1,masks/mask_003.jpg,,,,,,,,,,,,,,,,,,,,,,,,,,,,,,,,,,,,,,,,,,,,,,,,,,,,,,,,,,,,,,,,,,,,,,,,,,,,,,,,,,,,,,,,,,,,,
195310,001,2022-11-21_01h57.21.831,Info_measure_main_exp,2022.2.2,Win32,60.13229104,,,,,,,,,,,,,,,,,,masks/mask_005.jpg,0,0,0,4,1,,,,,,,,,,,,,,,,,,,,,,,,,,,,,,,,,,,,,,,,,,,,,,,,,,,,,,,,,,,,,,,,,,,,,,,,,,,,,,,,,,,,,,,,
195310,001,2022-11-21_01h57.21.831,Info_measure_main_exp,2022.2.2,Win32,60.13229104,,,,,,,,,,,,,,,,,,masks/mask_001.jpg,0,1,1,0,1,,,,,,,,,,,,,,,,,,,,,,,,,,,,,,,,,,,,,,,,,,,,,,,,,,,,,,,,,,,,,,,,,,,,,,,,,,,,,,,,,,,,,,,,
195310,001,2022-11-21_01h57.21.831,Info_measure_main_exp,2022.2.2,Win32,60.13229104,,,,,,,,,,,,,,,,,,masks/mask_004.jpg,0,2,2,3,1,,,,,,,,,,,,,,,,,,,,,,,,,,,,,,,,,,,,,,,,,,,,,,,,,,,,,,,,,,,,,,,,,,,,,,,,,,,,,,,,,,,,,,,,
195310,001,2022-11-21_01h57.21.831,Info_measure_main_exp,2022.2.2,Win32,60.13229104,,,,,,,,,,,,,,,,,,masks/mask_003.jpg,0,3,3,2,1,,,,,,,,,,,,,,,,,,,,,,,,,,,,,,,,,,,,,,,,,,,,,,,,,,,,,,,,,,,,,,,,,,,,,,,,,,,,,,,,,,,,,,,,
195310,001,2022-11-21_01h57.21.831,Info_measure_main_exp,2022.2.2,Win32,60.13229104,,,,,,,,,,,,,,,,,,masks/mask_002.jpg,0,4,4,1,1,,,,,,,,,,,,,,,,,,,,,,,,,,,,,,,,,,,,,,,,,,,,,,,,,,,,,,,,,,,,,,,,,,,,,,,,,,,,,,,,,,,,,,,,
195310,001,2022-11-21_01h57.21.831,Info_measure_main_exp,2022.2.2,Win32,60.13229104,,,,,,,,,,,,,,,,,,,,,,,,0.012962977,-0.125925912,1,0,0,response3disk,4,129.5486,1,0.003703718,-0.003703718,1,0,0,center_square,0,0,0,0,1,0,131,5,5,2370,2406,prac_patch/patch0002370.jpg,prac_patch/patch0002406.jpg,,,,,,,,,,,,,,,,,,,,,,,,,,,,,,,,,,,,,,,,,,,,,,,,,,,,,,,,,,,,
195310,001,2022-11-21_01h57.21.831,Info_measure_main_exp,2022.2.2,Win32,60.13229104,,,,,,,,,,,,,0,0,0,0,1,masks/mask_001.jpg,,,,,,,,,,,,,,,,,,,,,,,,,,,,,,,,,,,,,,,,,,,,,,,,,,,,,,,,,,,,,,,,,,,,,,,,,,,,,,,,,,,,,,,,,,,,,
195310,001,2022-11-21_01h57.21.831,Info_measure_main_exp,2022.2.2,Win32,60.13229104,,,,,,,,,,,,,0,1,1,4,1,masks/mask_005.jpg,,,,,,,,,,,,,,,,,,,,,,,,,,,,,,,,,,,,,,,,,,,,,,,,,,,,,,,,,,,,,,,,,,,,,,,,,,,,,,,,,,,,,,,,,,,,,
195310,001,2022-11-21_01h57.21.831,Info_measure_main_exp,2022.2.2,Win32,60.13229104,,,,,,,,,,,,,0,2,2,2,1,masks/mask_003.jpg,,,,,,,,,,,,,,,,,,,,,,,,,,,,,,,,,,,,,,,,,,,,,,,,,,,,,,,,,,,,,,,,,,,,,,,,,,,,,,,,,,,,,,,,,,,,,
195310,001,2022-11-21_01h57.21.831,Info_measure_main_exp,2022.2.2,Win32,60.13229104,,,,,,,,,,,,,0,3,3,3,1,masks/mask_004.jpg,,,,,,,,,,,,,,,,,,,,,,,,,,,,,,,,,,,,,,,,,,,,,,,,,,,,,,,,,,,,,,,,,,,,,,,,,,,,,,,,,,,,,,,,,,,,,
195310,001,2022-11-21_01h57.21.831,Info_measure_main_exp,2022.2.2,Win32,60.13229104,,,,,,,,,,,,,0,4,4,1,1,masks/mask_002.jpg,,,,,,,,,,,,,,,,,,,,,,,,,,,,,,,,,,,,,,,,,,,,,,,,,,,,,,,,,,,,,,,,,,,,,,,,,,,,,,,,,,,,,,,,,,,,,
195310,001,2022-11-21_01h57.21.831,Info_measure_main_exp,2022.2.2,Win32,60.13229104,,,,,,,,,,,,,,,,,,masks/mask_001.jpg,0,0,0,0,1,,,,,,,,,,,,,,,,,,,,,,,,,,,,,,,,,,,,,,,,,,,,,,,,,,,,,,,,,,,,,,,,,,,,,,,,,,,,,,,,,,,,,,,,
195310,001,2022-11-21_01h57.21.831,Info_measure_main_exp,2022.2.2,Win32,60.13229104,,,,,,,,,,,,,,,,,,masks/mask_003.jpg,0,1,1,2,1,,,,,,,,,,,,,,,,,,,,,,,,,,,,,,,,,,,,,,,,,,,,,,,,,,,,,,,,,,,,,,,,,,,,,,,,,,,,,,,,,,,,,,,,
195310,001,2022-11-21_01h57.21.831,Info_measure_main_exp,2022.2.2,Win32,60.13229104,,,,,,,,,,,,,,,,,,masks/mask_005.jpg,0,2,2,4,1,,,,,,,,,,,,,,,,,,,,,,,,,,,,,,,,,,,,,,,,,,,,,,,,,,,,,,,,,,,,,,,,,,,,,,,,,,,,,,,,,,,,,,,,
195310,001,2022-11-21_01h57.21.831,Info_measure_main_exp,2022.2.2,Win32,60.13229104,,,,,,,,,,,,,,,,,,masks/mask_002.jpg,0,3,3,1,1,,,,,,,,,,,,,,,,,,,,,,,,,,,,,,,,,,,,,,,,,,,,,,,,,,,,,,,,,,,,,,,,,,,,,,,,,,,,,,,,,,,,,,,,
195310,001,2022-11-21_01h57.21.831,Info_measure_main_exp,2022.2.2,Win32,60.13229104,,,,,,,,,,,,,,,,,,masks/mask_004.jpg,0,4,4,3,1,,,,,,,,,,,,,,,,,,,,,,,,,,,,,,,,,,,,,,,,,,,,,,,,,,,,,,,,,,,,,,,,,,,,,,,,,,,,,,,,,,,,,,,,
195310,001,2022-11-21_01h57.21.831,Info_measure_main_exp,2022.2.2,Win32,60.13229104,,,,,,,,,,,,,,,,,,,,,,,,0.094444487,0.021296289,1,0,0,response1disk,6,147.537,1,0.003703718,0.002777771,1,0,0,center_square,0,1,1,1,1,0,131,5,5,2514,2490,prac_patch/patch0002514.jpg,prac_patch/patch0002490.jpg,,,,,,,,,,,,,,,,,,,,,,,,,,,,,,,,,,,,,,,,,,,,,,,,,,,,,,,,,,,,
195310,001,2022-11-21_01h57.21.831,Info_measure_main_exp,2022.2.2,Win32,60.13229104,,,,,,,,,,,,,0,0,0,3,1,masks/mask_004.jpg,,,,,,,,,,,,,,,,,,,,,,,,,,,,,,,,,,,,,,,,,,,,,,,,,,,,,,,,,,,,,,,,,,,,,,,,,,,,,,,,,,,,,,,,,,,,,
195310,001,2022-11-21_01h57.21.831,Info_measure_main_exp,2022.2.2,Win32,60.13229104,,,,,,,,,,,,,0,1,1,1,1,masks/mask_002.jpg,,,,,,,,,,,,,,,,,,,,,,,,,,,,,,,,,,,,,,,,,,,,,,,,,,,,,,,,,,,,,,,,,,,,,,,,,,,,,,,,,,,,,,,,,,,,,
195310,001,2022-11-21_01h57.21.831,Info_measure_main_exp,2022.2.2,Win32,60.13229104,,,,,,,,,,,,,0,2,2,2,1,masks/mask_003.jpg,,,,,,,,,,,,,,,,,,,,,,,,,,,,,,,,,,,,,,,,,,,,,,,,,,,,,,,,,,,,,,,,,,,,,,,,,,,,,,,,,,,,,,,,,,,,,
195310,001,2022-11-21_01h57.21.831,Info_measure_main_exp,2022.2.2,Win32,60.13229104,,,,,,,,,,,,,0,3,3,0,1,masks/mask_001.jpg,,,,,,,,,,,,,,,,,,,,,,,,,,,,,,,,,,,,,,,,,,,,,,,,,,,,,,,,,,,,,,,,,,,,,,,,,,,,,,,,,,,,,,,,,,,,,
195310,001,2022-11-21_01h57.21.831,Info_measure_main_exp,2022.2.2,Win32,60.13229104,,,,,,,,,,,,,0,4,4,4,1,masks/mask_005.jpg,,,,,,,,,,,,,,,,,,,,,,,,,,,,,,,,,,,,,,,,,,,,,,,,,,,,,,,,,,,,,,,,,,,,,,,,,,,,,,,,,,,,,,,,,,,,,
195310,001,2022-11-21_01h57.21.831,Info_measure_main_exp,2022.2.2,Win32,60.13229104,,,,,,,,,,,,,,,,,,masks/mask_004.jpg,0,0,0,3,1,,,,,,,,,,,,,,,,,,,,,,,,,,,,,,,,,,,,,,,,,,,,,,,,,,,,,,,,,,,,,,,,,,,,,,,,,,,,,,,,,,,,,,,,
195310,001,2022-11-21_01h57.21.831,Info_measure_main_exp,2022.2.2,Win32,60.13229104,,,,,,,,,,,,,,,,,,masks/mask_005.jpg,0,1,1,4,1,,,,,,,,,,,,,,,,,,,,,,,,,,,,,,,,,,,,,,,,,,,,,,,,,,,,,,,,,,,,,,,,,,,,,,,,,,,,,,,,,,,,,,,,
195310,001,2022-11-21_01h57.21.831,Info_measure_main_exp,2022.2.2,Win32,60.13229104,,,,,,,,,,,,,,,,,,masks/mask_002.jpg,0,2,2,1,1,,,,,,,,,,,,,,,,,,,,,,,,,,,,,,,,,,,,,,,,,,,,,,,,,,,,,,,,,,,,,,,,,,,,,,,,,,,,,,,,,,,,,,,,
195310,001,2022-11-21_01h57.21.831,Info_measure_main_exp,2022.2.2,Win32,60.13229104,,,,,,,,,,,,,,,,,,masks/mask_001.jpg,0,3,3,0,1,,,,,,,,,,,,,,,,,,,,,,,,,,,,,,,,,,,,,,,,,,,,,,,,,,,,,,,,,,,,,,,,,,,,,,,,,,,,,,,,,,,,,,,,
195310,001,2022-11-21_01h57.21.831,Info_measure_main_exp,2022.2.2,Win32,60.13229104,,,,,,,,,,,,,,,,,,masks/mask_003.jpg,0,4,4,2,1,,,,,,,,,,,,,,,,,,,,,,,,,,,,,,,,,,,,,,,,,,,,,,,,,,,,,,,,,,,,,,,,,,,,,,,,,,,,,,,,,,,,,,,,
195310,001,2022-11-21_01h57.21.831,Info_measure_main_exp,2022.2.2,Win32,60.13229104,,,,,,,,,,,,,,,,,,,,,,,,0.08148151,-0.018518519,1,0,0,response3disk,5,158.8713,1,0.001851894,0.003703683,1,0,0,center_square,0,2,2,2,1,0,131,5,5,2526,2526,prac_patch/patch0002526.jpg,prac_patch/patch0002526.jpg,,,,,,,,,,,,,,,,,,,,,,,,,,,,,,,,,,,,,,,,,,,,,,,,,,,,,,,,,,,,
195310,001,2022-11-21_01h57.21.831,Info_measure_main_exp,2022.2.2,Win32,60.13229104,,,,,,,,,,,,,,,,,,,,,,,,,,,,,,,,,,,,,,,,,,,,,,,,,,,,,,,,,,,space,6.1568,,,,,,,,,,,,,,,,,,,,,,,,,,,,,,,,,,,,,,,,,,,,,,,,,,,
195310,001,2022-11-21_01h57.21.831,Info_measure_main_exp,2022.2.2,Win32,60.13229104,,,,,,,,,,,,,,,,,,masks/mask_005.jpg,,,,,,,,,,,,,,,,,,,,,,,,,,,,,,,,,,,,,,,,,,,0,0,0,4,1,,,,,,,,,,,,,,,,,,,,,,,,,,,,,,,,,,,,,,,,,,,,,,
195310,001,2022-11-21_01h57.21.831,Info_measure_main_exp,2022.2.2,Win32,60.13229104,,,,,,,,,,,,,,,,,,masks/mask_002.jpg,,,,,,,,,,,,,,,,,,,,,,,,,,,,,,,,,,,,,,,,,,,0,1,1,1,1,,,,,,,,,,,,,,,,,,,,,,,,,,,,,,,,,,,,,,,,,,,,,,
195310,001,2022-11-21_01h57.21.831,Info_measure_main_exp,2022.2.2,Win32,60.13229104,,,,,,,,,,,,,,,,,,masks/mask_001.jpg,,,,,,,,,,,,,,,,,,,,,,,,,,,,,,,,,,,,,,,,,,,0,2,2,0,1,,,,,,,,,,,,,,,,,,,,,,,,,,,,,,,,,,,,,,,,,,,,,,
195310,001,2022-11-21_01h57.21.831,Info_measure_main_exp,2022.2.2,Win32,60.13229104,,,,,,,,,,,,,,,,,,masks/mask_004.jpg,,,,,,,,,,,,,,,,,,,,,,,,,,,,,,,,,,,,,,,,,,,0,3,3,3,1,,,,,,,,,,,,,,,,,,,,,,,,,,,,,,,,,,,,,,,,,,,,,,
195310,001,2022-11-21_01h57.21.831,Info_measure_main_exp,2022.2.2,Win32,60.13229104,,,,,,,,,,,,,,,,,,masks/mask_003.jpg,,,,,,,,,,,,,,,,,,,,,,,,,,,,,,,,,,,,,,,,,,,0,4,4,2,1,,,,,,,,,,,,,,,,,,,,,,,,,,,,,,,,,,,,,,,,,,,,,,
195310,001,2022-11-21_01h57.21.831,Info_measure_main_exp,2022.2.2,Win32,60.13229104,,,,,,,,,,,,,,,,,,masks/mask_002.jpg,,,,,,,,,,,,,,,,,,,,,,,,,,,,,,,,,,,,,,,,,,,,,,,,0,0,0,1,1,,,,,,,,,,,,,,,,,,,,,,,,,,,,,,,,,,,,,,,,,
195310,001,2022-11-21_01h57.21.831,Info_measure_main_exp,2022.2.2,Win32,60.13229104,,,,,,,,,,,,,,,,,,masks/mask_001.jpg,,,,,,,,,,,,,,,,,,,,,,,,,,,,,,,,,,,,,,,,,,,,,,,,0,1,1,0,1,,,,,,,,,,,,,,,,,,,,,,,,,,,,,,,,,,,,,,,,,
195310,001,2022-11-21_01h57.21.831,Info_measure_main_exp,2022.2.2,Win32,60.13229104,,,,,,,,,,,,,,,,,,masks/mask_005.jpg,,,,,,,,,,,,,,,,,,,,,,,,,,,,,,,,,,,,,,,,,,,,,,,,0,2,2,4,1,,,,,,,,,,,,,,,,,,,,,,,,,,,,,,,,,,,,,,,,,
195310,001,2022-11-21_01h57.21.831,Info_measure_main_exp,2022.2.2,Win32,60.13229104,,,,,,,,,,,,,,,,,,masks/mask_004.jpg,,,,,,,,,,,,,,,,,,,,,,,,,,,,,,,,,,,,,,,,,,,,,,,,0,3,3,3,1,,,,,,,,,,,,,,,,,,,,,,,,,,,,,,,,,,,,,,,,,
195310,001,2022-11-21_01h57.21.831,Info_measure_main_exp,2022.2.2,Win32,60.13229104,,,,,,,,,,,,,,,,,,masks/mask_003.jpg,,,,,,,,,,,,,,,,,,,,,,,,,,,,,,,,,,,,,,,,,,,,,,,,0,4,4,2,1,,,,,,,,,,,,,,,,,,,,,,,,,,,,,,,,,,,,,,,,,
195310,001,2022-11-21_01h57.21.831,Info_measure_main_exp,2022.2.2,Win32,60.13229104,,,,,,,,,,,,,,,,,,,,,,,,,,,,,,7,1.8271,1,,,,,,,,,,,,0,131,5,5,2082,2238,absent_patch/patch0002082.jpg,absent_patch/patch0002238.jpg,,,,,,,,,,,,,,,,,,,,0.078703704,0.127777771,1,0,0,response1disk,1,0.003703718,-0.00462963,1,0,0,center_square,0,0,0,22,1,,,,,,,,,,,,,,,,,,,,,,,
195310,001,2022-11-21_01h57.21.831,Info_measure_main_exp,2022.2.2,Win32,60.13229104,,,,,,,,,,,,,,,,,,masks/mask_001.jpg,,,,,,,,,,,,,,,,,,,,,,,,,,,,,,,,,,,,,,,,,,,0,0,0,0,1,,,,,,,,,,,,,,,,,,,,,,,,,,,,,,,,,,,,,,,,,,,,,,
195310,001,2022-11-21_01h57.21.831,Info_measure_main_exp,2022.2.2,Win32,60.13229104,,,,,,,,,,,,,,,,,,masks/mask_003.jpg,,,,,,,,,,,,,,,,,,,,,,,,,,,,,,,,,,,,,,,,,,,0,1,1,2,1,,,,,,,,,,,,,,,,,,,,,,,,,,,,,,,,,,,,,,,,,,,,,,
195310,001,2022-11-21_01h57.21.831,Info_measure_main_exp,2022.2.2,Win32,60.13229104,,,,,,,,,,,,,,,,,,masks/mask_005.jpg,,,,,,,,,,,,,,,,,,,,,,,,,,,,,,,,,,,,,,,,,,,0,2,2,4,1,,,,,,,,,,,,,,,,,,,,,,,,,,,,,,,,,,,,,,,,,,,,,,
195310,001,2022-11-21_01h57.21.831,Info_measure_main_exp,2022.2.2,Win32,60.13229104,,,,,,,,,,,,,,,,,,masks/mask_004.jpg,,,,,,,,,,,,,,,,,,,,,,,,,,,,,,,,,,,,,,,,,,,0,3,3,3,1,,,,,,,,,,,,,,,,,,,,,,,,,,,,,,,,,,,,,,,,,,,,,,
195310,001,2022-11-21_01h57.21.831,Info_measure_main_exp,2022.2.2,Win32,60.13229104,,,,,,,,,,,,,,,,,,masks/mask_002.jpg,,,,,,,,,,,,,,,,,,,,,,,,,,,,,,,,,,,,,,,,,,,0,4,4,1,1,,,,,,,,,,,,,,,,,,,,,,,,,,,,,,,,,,,,,,,,,,,,,,
195310,001,2022-11-21_01h57.21.831,Info_measure_main_exp,2022.2.2,Win32,60.13229104,,,,,,,,,,,,,,,,,,masks/mask_005.jpg,,,,,,,,,,,,,,,,,,,,,,,,,,,,,,,,,,,,,,,,,,,,,,,,0,0,0,4,1,,,,,,,,,,,,,,,,,,,,,,,,,,,,,,,,,,,,,,,,,
195310,001,2022-11-21_01h57.21.831,Info_measure_main_exp,2022.2.2,Win32,60.13229104,,,,,,,,,,,,,,,,,,masks/mask_002.jpg,,,,,,,,,,,,,,,,,,,,,,,,,,,,,,,,,,,,,,,,,,,,,,,,0,1,1,1,1,,,,,,,,,,,,,,,,,,,,,,,,,,,,,,,,,,,,,,,,,
195310,001,2022-11-21_01h57.21.831,Info_measure_main_exp,2022.2.2,Win32,60.13229104,,,,,,,,,,,,,,,,,,masks/mask_003.jpg,,,,,,,,,,,,,,,,,,,,,,,,,,,,,,,,,,,,,,,,,,,,,,,,0,2,2,2,1,,,,,,,,,,,,,,,,,,,,,,,,,,,,,,,,,,,,,,,,,
195310,001,2022-11-21_01h57.21.831,Info_measure_main_exp,2022.2.2,Win32,60.13229104,,,,,,,,,,,,,,,,,,masks/mask_004.jpg,,,,,,,,,,,,,,,,,,,,,,,,,,,,,,,,,,,,,,,,,,,,,,,,0,3,3,3,1,,,,,,,,,,,,,,,,,,,,,,,,,,,,,,,,,,,,,,,,,
195310,001,2022-11-21_01h57.21.831,Info_measure_main_exp,2022.2.2,Win32,60.13229104,,,,,,,,,,,,,,,,,,masks/mask_001.jpg,,,,,,,,,,,,,,,,,,,,,,,,,,,,,,,,,,,,,,,,,,,,,,,,0,4,4,0,1,,,,,,,,,,,,,,,,,,,,,,,,,,,,,,,,,,,,,,,,,
195310,001,2022-11-21_01h57.21.831,Info_measure_main_exp,2022.2.2,Win32,60.13229104,,,,,,,,,,,,,,,,,,,,,,,,,,,,,,2,1.432,1,,,,,,,,,,,,0,131,5,5,2190,2190,absent_patch/patch0002190.jpg,absent_patch/patch0002190.jpg,,,,,,,,,,,,,,,,,,,,-0.114814829,-0.052777785,1,0,0,response5disk,2,0.007407436,0.008333312,1,0,0,center_square,0,1,1,86,1,,,,,,,,,,,,,,,,,,,,,,,
195310,001,2022-11-21_01h57.21.831,Info_measure_main_exp,2022.2.2,Win32,60.13229104,,,,,,,,,,,,,,,,,,masks/mask_001.jpg,,,,,,,,,,,,,,,,,,,,,,,,,,,,,,,,,,,,,,,,,,,0,0,0,0,1,,,,,,,,,,,,,,,,,,,,,,,,,,,,,,,,,,,,,,,,,,,,,,
195310,001,2022-11-21_01h57.21.831,Info_measure_main_exp,2022.2.2,Win32,60.13229104,,,,,,,,,,,,,,,,,,masks/mask_002.jpg,,,,,,,,,,,,,,,,,,,,,,,,,,,,,,,,,,,,,,,,,,,0,1,1,1,1,,,,,,,,,,,,,,,,,,,,,,,,,,,,,,,,,,,,,,,,,,,,,,
195310,001,2022-11-21_01h57.21.831,Info_measure_main_exp,2022.2.2,Win32,60.13229104,,,,,,,,,,,,,,,,,,masks/mask_004.jpg,,,,,,,,,,,,,,,,,,,,,,,,,,,,,,,,,,,,,,,,,,,0,2,2,3,1,,,,,,,,,,,,,,,,,,,,,,,,,,,,,,,,,,,,,,,,,,,,,,
195310,001,2022-11-21_01h57.21.831,Info_measure_main_exp,2022.2.2,Win32,60.13229104,,,,,,,,,,,,,,,,,,masks/mask_003.jpg,,,,,,,,,,,,,,,,,,,,,,,,,,,,,,,,,,,,,,,,,,,0,3,3,2,1,,,,,,,,,,,,,,,,,,,,,,,,,,,,,,,,,,,,,,,,,,,,,,
195310,001,2022-11-21_01h57.21.831,Info_measure_main_exp,2022.2.2,Win32,60.13229104,,,,,,,,,,,,,,,,,,masks/mask_005.jpg,,,,,,,,,,,,,,,,,,,,,,,,,,,,,,,,,,,,,,,,,,,0,4,4,4,1,,,,,,,,,,,,,,,,,,,,,,,,,,,,,,,,,,,,,,,,,,,,,,
195310,001,2022-11-21_01h57.21.831,Info_measure_main_exp,2022.2.2,Win32,60.13229104,,,,,,,,,,,,,,,,,,masks/mask_005.jpg,,,,,,,,,,,,,,,,,,,,,,,,,,,,,,,,,,,,,,,,,,,,,,,,0,0,0,4,1,,,,,,,,,,,,,,,,,,,,,,,,,,,,,,,,,,,,,,,,,
195310,001,2022-11-21_01h57.21.831,Info_measure_main_exp,2022.2.2,Win32,60.13229104,,,,,,,,,,,,,,,,,,masks/mask_004.jpg,,,,,,,,,,,,,,,,,,,,,,,,,,,,,,,,,,,,,,,,,,,,,,,,0,1,1,3,1,,,,,,,,,,,,,,,,,,,,,,,,,,,,,,,,,,,,,,,,,
195310,001,2022-11-21_01h57.21.831,Info_measure_main_exp,2022.2.2,Win32,60.13229104,,,,,,,,,,,,,,,,,,masks/mask_003.jpg,,,,,,,,,,,,,,,,,,,,,,,,,,,,,,,,,,,,,,,,,,,,,,,,0,2,2,2,1,,,,,,,,,,,,,,,,,,,,,,,,,,,,,,,,,,,,,,,,,
195310,001,2022-11-21_01h57.21.831,Info_measure_main_exp,2022.2.2,Win32,60.13229104,,,,,,,,,,,,,,,,,,masks/mask_001.jpg,,,,,,,,,,,,,,,,,,,,,,,,,,,,,,,,,,,,,,,,,,,,,,,,0,3,3,0,1,,,,,,,,,,,,,,,,,,,,,,,,,,,,,,,,,,,,,,,,,
195310,001,2022-11-21_01h57.21.831,Info_measure_main_exp,2022.2.2,Win32,60.13229104,,,,,,,,,,,,,,,,,,masks/mask_002.jpg,,,,,,,,,,,,,,,,,,,,,,,,,,,,,,,,,,,,,,,,,,,,,,,,0,4,4,1,1,,,,,,,,,,,,,,,,,,,,,,,,,,,,,,,,,,,,,,,,,
195310,001,2022-11-21_01h57.21.831,Info_measure_main_exp,2022.2.2,Win32,60.13229104,,,,,,,,,,,,,,,,,,,,,,,,,,,,,,7,1.4742,1,,,,,,,,,,,,0,131,5,5,2250,2166,absent_patch/patch0002250.jpg,absent_patch/patch0002166.jpg,,,,,,,,,,,,,,,,,,,,0.037037037,0.13703703,1,0,0,response1disk,3,-0.009259259,0.000925912,1,0,0,center_square,0,2,2,60,1,,,,,,,,,,,,,,,,,,,,,,,
195310,001,2022-11-21_01h57.21.831,Info_measure_main_exp,2022.2.2,Win32,60.13229104,,,,,,,,,,,,,,,,,,masks/mask_004.jpg,,,,,,,,,,,,,,,,,,,,,,,,,,,,,,,,,,,,,,,,,,,0,0,0,3,1,,,,,,,,,,,,,,,,,,,,,,,,,,,,,,,,,,,,,,,,,,,,,,
195310,001,2022-11-21_01h57.21.831,Info_measure_main_exp,2022.2.2,Win32,60.13229104,,,,,,,,,,,,,,,,,,masks/mask_001.jpg,,,,,,,,,,,,,,,,,,,,,,,,,,,,,,,,,,,,,,,,,,,0,1,1,0,1,,,,,,,,,,,,,,,,,,,,,,,,,,,,,,,,,,,,,,,,,,,,,,
195310,001,2022-11-21_01h57.21.831,Info_measure_main_exp,2022.2.2,Win32,60.13229104,,,,,,,,,,,,,,,,,,masks/mask_003.jpg,,,,,,,,,,,,,,,,,,,,,,,,,,,,,,,,,,,,,,,,,,,0,2,2,2,1,,,,,,,,,,,,,,,,,,,,,,,,,,,,,,,,,,,,,,,,,,,,,,
195310,001,2022-11-21_01h57.21.831,Info_measure_main_exp,2022.2.2,Win32,60.13229104,,,,,,,,,,,,,,,,,,masks/mask_002.jpg,,,,,,,,,,,,,,,,,,,,,,,,,,,,,,,,,,,,,,,,,,,0,3,3,1,1,,,,,,,,,,,,,,,,,,,,,,,,,,,,,,,,,,,,,,,,,,,,,,
195310,001,2022-11-21_01h57.21.831,Info_measure_main_exp,2022.2.2,Win32,60.13229104,,,,,,,,,,,,,,,,,,masks/mask_005.jpg,,,,,,,,,,,,,,,,,,,,,,,,,,,,,,,,,,,,,,,,,,,0,4,4,4,1,,,,,,,,,,,,,,,,,,,,,,,,,,,,,,,,,,,,,,,,,,,,,,
195310,001,2022-11-21_01h57.21.831,Info_measure_main_exp,2022.2.2,Win32,60.13229104,,,,,,,,,,,,,,,,,,masks/mask_003.jpg,,,,,,,,,,,,,,,,,,,,,,,,,,,,,,,,,,,,,,,,,,,,,,,,0,0,0,2,1,,,,,,,,,,,,,,,,,,,,,,,,,,,,,,,,,,,,,,,,,
195310,001,2022-11-21_01h57.21.831,Info_measure_main_exp,2022.2.2,Win32,60.13229104,,,,,,,,,,,,,,,,,,masks/mask_004.jpg,,,,,,,,,,,,,,,,,,,,,,,,,,,,,,,,,,,,,,,,,,,,,,,,0,1,1,3,1,,,,,,,,,,,,,,,,,,,,,,,,,,,,,,,,,,,,,,,,,
195310,001,2022-11-21_01h57.21.831,Info_measure_main_exp,2022.2.2,Win32,60.13229104,,,,,,,,,,,,,,,,,,masks/mask_005.jpg,,,,,,,,,,,,,,,,,,,,,,,,,,,,,,,,,,,,,,,,,,,,,,,,0,2,2,4,1,,,,,,,,,,,,,,,,,,,,,,,,,,,,,,,,,,,,,,,,,
195310,001,2022-11-21_01h57.21.831,Info_measure_main_exp,2022.2.2,Win32,60.13229104,,,,,,,,,,,,,,,,,,masks/mask_001.jpg,,,,,,,,,,,,,,,,,,,,,,,,,,,,,,,,,,,,,,,,,,,,,,,,0,3,3,0,1,,,,,,,,,,,,,,,,,,,,,,,,,,,,,,,,,,,,,,,,,
195310,001,2022-11-21_01h57.21.831,Info_measure_main_exp,2022.2.2,Win32,60.13229104,,,,,,,,,,,,,,,,,,masks/mask_002.jpg,,,,,,,,,,,,,,,,,,,,,,,,,,,,,,,,,,,,,,,,,,,,,,,,0,4,4,1,1,,,,,,,,,,,,,,,,,,,,,,,,,,,,,,,,,,,,,,,,,
195310,001,2022-11-21_01h57.21.831,Info_measure_main_exp,2022.2.2,Win32,60.13229104,,,,,,,,,,,,,,,,,,,,,,,,,,,,,,7,1.5661,1,,,,,,,,,,,,0,131,5,5,1950,2166,absent_patch/patch0001950.jpg,absent_patch/patch0002166.jpg,,,,,,,,,,,,,,,,,,,,0.029629672,0.085185192,1,0,0,response1disk,4,0.002777806,0.000925912,1,0,0,center_square,0,3,3,0,1,,,,,,,,,,,,,,,,,,,,,,,
195310,001,2022-11-21_01h57.21.831,Info_measure_main_exp,2022.2.2,Win32,60.13229104,,,,,,,,,,,,,,,,,,masks/mask_005.jpg,,,,,,,,,,,,,,,,,,,,,,,,,,,,,,,,,,,,,,,,,,,0,0,0,4,1,,,,,,,,,,,,,,,,,,,,,,,,,,,,,,,,,,,,,,,,,,,,,,
195310,001,2022-11-21_01h57.21.831,Info_measure_main_exp,2022.2.2,Win32,60.13229104,,,,,,,,,,,,,,,,,,masks/mask_003.jpg,,,,,,,,,,,,,,,,,,,,,,,,,,,,,,,,,,,,,,,,,,,0,1,1,2,1,,,,,,,,,,,,,,,,,,,,,,,,,,,,,,,,,,,,,,,,,,,,,,
195310,001,2022-11-21_01h57.21.831,Info_measure_main_exp,2022.2.2,Win32,60.13229104,,,,,,,,,,,,,,,,,,masks/mask_001.jpg,,,,,,,,,,,,,,,,,,,,,,,,,,,,,,,,,,,,,,,,,,,0,2,2,0,1,,,,,,,,,,,,,,,,,,,,,,,,,,,,,,,,,,,,,,,,,,,,,,
195310,001,2022-11-21_01h57.21.831,Info_measure_main_exp,2022.2.2,Win32,60.13229104,,,,,,,,,,,,,,,,,,masks/mask_004.jpg,,,,,,,,,,,,,,,,,,,,,,,,,,,,,,,,,,,,,,,,,,,0,3,3,3,1,,,,,,,,,,,,,,,,,,,,,,,,,,,,,,,,,,,,,,,,,,,,,,
195310,001,2022-11-21_01h57.21.831,Info_measure_main_exp,2022.2.2,Win32,60.13229104,,,,,,,,,,,,,,,,,,masks/mask_002.jpg,,,,,,,,,,,,,,,,,,,,,,,,,,,,,,,,,,,,,,,,,,,0,4,4,1,1,,,,,,,,,,,,,,,,,,,,,,,,,,,,,,,,,,,,,,,,,,,,,,
195310,001,2022-11-21_01h57.21.831,Info_measure_main_exp,2022.2.2,Win32,60.13229104,,,,,,,,,,,,,,,,,,masks/mask_003.jpg,,,,,,,,,,,,,,,,,,,,,,,,,,,,,,,,,,,,,,,,,,,,,,,,0,0,0,2,1,,,,,,,,,,,,,,,,,,,,,,,,,,,,,,,,,,,,,,,,,
195310,001,2022-11-21_01h57.21.831,Info_measure_main_exp,2022.2.2,Win32,60.13229104,,,,,,,,,,,,,,,,,,masks/mask_004.jpg,,,,,,,,,,,,,,,,,,,,,,,,,,,,,,,,,,,,,,,,,,,,,,,,0,1,1,3,1,,,,,,,,,,,,,,,,,,,,,,,,,,,,,,,,,,,,,,,,,
195310,001,2022-11-21_01h57.21.831,Info_measure_main_exp,2022.2.2,Win32,60.13229104,,,,,,,,,,,,,,,,,,masks/mask_001.jpg,,,,,,,,,,,,,,,,,,,,,,,,,,,,,,,,,,,,,,,,,,,,,,,,0,2,2,0,1,,,,,,,,,,,,,,,,,,,,,,,,,,,,,,,,,,,,,,,,,
195310,001,2022-11-21_01h57.21.831,Info_measure_main_exp,2022.2.2,Win32,60.13229104,,,,,,,,,,,,,,,,,,masks/mask_005.jpg,,,,,,,,,,,,,,,,,,,,,,,,,,,,,,,,,,,,,,,,,,,,,,,,0,3,3,4,1,,,,,,,,,,,,,,,,,,,,,,,,,,,,,,,,,,,,,,,,,
195310,001,2022-11-21_01h57.21.831,Info_measure_main_exp,2022.2.2,Win32,60.13229104,,,,,,,,,,,,,,,,,,masks/mask_002.jpg,,,,,,,,,,,,,,,,,,,,,,,,,,,,,,,,,,,,,,,,,,,,,,,,0,4,4,1,1,,,,,,,,,,,,,,,,,,,,,,,,,,,,,,,,,,,,,,,,,
195310,001,2022-11-21_01h57.21.831,Info_measure_main_exp,2022.2.2,Win32,60.13229104,,,,,,,,,,,,,,,,,,,,,,,,,,,,,,3,2.3053,1,,,,,,,,,,,,1,131,5,5,1,1974,present_patch/cong_131_5_a.jpg,absent_patch/patch0001974.jpg,,,,,,,,,,,,,,,,,,,,-0.080555527,-0.12037037,1,0,0,response5disk,5,-0.00462963,-0.005555577,1,0,0,center_square,0,4,4,69,1,,,,,,,,,,,,,,,,,,,,,,,
195310,001,2022-11-21_01h57.21.831,Info_measure_main_exp,2022.2.2,Win32,60.13229104,,,,,,,,,,,,,,,,,,masks/mask_003.jpg,,,,,,,,,,,,,,,,,,,,,,,,,,,,,,,,,,,,,,,,,,,0,0,0,2,1,,,,,,,,,,,,,,,,,,,,,,,,,,,,,,,,,,,,,,,,,,,,,,
195310,001,2022-11-21_01h57.21.831,Info_measure_main_exp,2022.2.2,Win32,60.13229104,,,,,,,,,,,,,,,,,,masks/mask_002.jpg,,,,,,,,,,,,,,,,,,,,,,,,,,,,,,,,,,,,,,,,,,,0,1,1,1,1,,,,,,,,,,,,,,,,,,,,,,,,,,,,,,,,,,,,,,,,,,,,,,
195310,001,2022-11-21_01h57.21.831,Info_measure_main_exp,2022.2.2,Win32,60.13229104,,,,,,,,,,,,,,,,,,masks/mask_004.jpg,,,,,,,,,,,,,,,,,,,,,,,,,,,,,,,,,,,,,,,,,,,0,2,2,3,1,,,,,,,,,,,,,,,,,,,,,,,,,,,,,,,,,,,,,,,,,,,,,,
195310,001,2022-11-21_01h57.21.831,Info_measure_main_exp,2022.2.2,Win32,60.13229104,,,,,,,,,,,,,,,,,,masks/mask_005.jpg,,,,,,,,,,,,,,,,,,,,,,,,,,,,,,,,,,,,,,,,,,,0,3,3,4,1,,,,,,,,,,,,,,,,,,,,,,,,,,,,,,,,,,,,,,,,,,,,,,
195310,001,2022-11-21_01h57.21.831,Info_measure_main_exp,2022.2.2,Win32,60.13229104,,,,,,,,,,,,,,,,,,masks/mask_001.jpg,,,,,,,,,,,,,,,,,,,,,,,,,,,,,,,,,,,,,,,,,,,0,4,4,0,1,,,,,,,,,,,,,,,,,,,,,,,,,,,,,,,,,,,,,,,,,,,,,,
195310,001,2022-11-21_01h57.21.831,Info_measure_main_exp,2022.2.2,Win32,60.13229104,,,,,,,,,,,,,,,,,,masks/mask_001.jpg,,,,,,,,,,,,,,,,,,,,,,,,,,,,,,,,,,,,,,,,,,,,,,,,0,0,0,0,1,,,,,,,,,,,,,,,,,,,,,,,,,,,,,,,,,,,,,,,,,
195310,001,2022-11-21_01h57.21.831,Info_measure_main_exp,2022.2.2,Win32,60.13229104,,,,,,,,,,,,,,,,,,masks/mask_003.jpg,,,,,,,,,,,,,,,,,,,,,,,,,,,,,,,,,,,,,,,,,,,,,,,,0,1,1,2,1,,,,,,,,,,,,,,,,,,,,,,,,,,,,,,,,,,,,,,,,,
195310,001,2022-11-21_01h57.21.831,Info_measure_main_exp,2022.2.2,Win32,60.13229104,,,,,,,,,,,,,,,,,,masks/mask_002.jpg,,,,,,,,,,,,,,,,,,,,,,,,,,,,,,,,,,,,,,,,,,,,,,,,0,2,2,1,1,,,,,,,,,,,,,,,,,,,,,,,,,,,,,,,,,,,,,,,,,
195310,001,2022-11-21_01h57.21.831,Info_measure_main_exp,2022.2.2,Win32,60.13229104,,,,,,,,,,,,,,,,,,masks/mask_004.jpg,,,,,,,,,,,,,,,,,,,,,,,,,,,,,,,,,,,,,,,,,,,,,,,,0,3,3,3,1,,,,,,,,,,,,,,,,,,,,,,,,,,,,,,,,,,,,,,,,,
195310,001,2022-11-21_01h57.21.831,Info_measure_main_exp,2022.2.2,Win32,60.13229104,,,,,,,,,,,,,,,,,,masks/mask_005.jpg,,,,,,,,,,,,,,,,,,,,,,,,,,,,,,,,,,,,,,,,,,,,,,,,0,4,4,4,1,,,,,,,,,,,,,,,,,,,,,,,,,,,,,,,,,,,,,,,,,
195310,001,2022-11-21_01h57.21.831,Info_measure_main_exp,2022.2.2,Win32,60.13229104,,,,,,,,,,,,,,,,,,,,,,,,,,,,,,4,1.7322,1,,,,,,,,,,,,0,131,5,5,2190,2082,absent_patch/patch0002190.jpg,absent_patch/patch0002082.jpg,,,,,,,,,,,,,,,,,,,,0.042592578,-0.124074088,1,0,0,response3disk,6,0.000925912,0.00462963,1,0,0,center_square,0,5,5,112,1,,,,,,,,,,,,,,,,,,,,,,,
195310,001,2022-11-21_01h57.21.831,Info_measure_main_exp,2022.2.2,Win32,60.13229104,,,,,,,,,,,,,,,,,,masks/mask_004.jpg,,,,,,,,,,,,,,,,,,,,,,,,,,,,,,,,,,,,,,,,,,,0,0,0,3,1,,,,,,,,,,,,,,,,,,,,,,,,,,,,,,,,,,,,,,,,,,,,,,
195310,001,2022-11-21_01h57.21.831,Info_measure_main_exp,2022.2.2,Win32,60.13229104,,,,,,,,,,,,,,,,,,masks/mask_001.jpg,,,,,,,,,,,,,,,,,,,,,,,,,,,,,,,,,,,,,,,,,,,0,1,1,0,1,,,,,,,,,,,,,,,,,,,,,,,,,,,,,,,,,,,,,,,,,,,,,,
195310,001,2022-11-21_01h57.21.831,Info_measure_main_exp,2022.2.2,Win32,60.13229104,,,,,,,,,,,,,,,,,,masks/mask_002.jpg,,,,,,,,,,,,,,,,,,,,,,,,,,,,,,,,,,,,,,,,,,,0,2,2,1,1,,,,,,,,,,,,,,,,,,,,,,,,,,,,,,,,,,,,,,,,,,,,,,
195310,001,2022-11-21_01h57.21.831,Info_measure_main_exp,2022.2.2,Win32,60.13229104,,,,,,,,,,,,,,,,,,masks/mask_003.jpg,,,,,,,,,,,,,,,,,,,,,,,,,,,,,,,,,,,,,,,,,,,0,3,3,2,1,,,,,,,,,,,,,,,,,,,,,,,,,,,,,,,,,,,,,,,,,,,,,,
195310,001,2022-11-21_01h57.21.831,Info_measure_main_exp,2022.2.2,Win32,60.13229104,,,,,,,,,,,,,,,,,,masks/mask_005.jpg,,,,,,,,,,,,,,,,,,,,,,,,,,,,,,,,,,,,,,,,,,,0,4,4,4,1,,,,,,,,,,,,,,,,,,,,,,,,,,,,,,,,,,,,,,,,,,,,,,
195310,001,2022-11-21_01h57.21.831,Info_measure_main_exp,2022.2.2,Win32,60.13229104,,,,,,,,,,,,,,,,,,masks/mask_003.jpg,,,,,,,,,,,,,,,,,,,,,,,,,,,,,,,,,,,,,,,,,,,,,,,,0,0,0,2,1,,,,,,,,,,,,,,,,,,,,,,,,,,,,,,,,,,,,,,,,,
195310,001,2022-11-21_01h57.21.831,Info_measure_main_exp,2022.2.2,Win32,60.13229104,,,,,,,,,,,,,,,,,,masks/mask_005.jpg,,,,,,,,,,,,,,,,,,,,,,,,,,,,,,,,,,,,,,,,,,,,,,,,0,1,1,4,1,,,,,,,,,,,,,,,,,,,,,,,,,,,,,,,,,,,,,,,,,
195310,001,2022-11-21_01h57.21.831,Info_measure_main_exp,2022.2.2,Win32,60.13229104,,,,,,,,,,,,,,,,,,masks/mask_002.jpg,,,,,,,,,,,,,,,,,,,,,,,,,,,,,,,,,,,,,,,,,,,,,,,,0,2,2,1,1,,,,,,,,,,,,,,,,,,,,,,,,,,,,,,,,,,,,,,,,,
195310,001,2022-11-21_01h57.21.831,Info_measure_main_exp,2022.2.2,Win32,60.13229104,,,,,,,,,,,,,,,,,,masks/mask_001.jpg,,,,,,,,,,,,,,,,,,,,,,,,,,,,,,,,,,,,,,,,,,,,,,,,0,3,3,0,1,,,,,,,,,,,,,,,,,,,,,,,,,,,,,,,,,,,,,,,,,
195310,001,2022-11-21_01h57.21.831,Info_measure_main_exp,2022.2.2,Win32,60.13229104,,,,,,,,,,,,,,,,,,masks/mask_004.jpg,,,,,,,,,,,,,,,,,,,,,,,,,,,,,,,,,,,,,,,,,,,,,,,,0,4,4,3,1,,,,,,,,,,,,,,,,,,,,,,,,,,,,,,,,,,,,,,,,,
195310,001,2022-11-21_01h57.21.831,Info_measure_main_exp,2022.2.2,Win32,60.13229104,,,,,,,,,,,,,,,,,,,,,,,,,,,,,,2,2.5682,1,,,,,,,,,,,,0,131,5,5,2238,2166,absent_patch/patch0002238.jpg,absent_patch/patch0002166.jpg,,,,,,,,,,,,,,,,,,,,-0.126851824,-0.062962956,1,0,0,response5disk,7,-0.00462963,0.003703683,1,0,0,center_square,0,6,6,118,1,,,,,,,,,,,,,,,,,,,,,,,
195310,001,2022-11-21_01h57.21.831,Info_measure_main_exp,2022.2.2,Win32,60.13229104,,,,,,,,,,,,,,,,,,masks/mask_002.jpg,,,,,,,,,,,,,,,,,,,,,,,,,,,,,,,,,,,,,,,,,,,0,0,0,1,1,,,,,,,,,,,,,,,,,,,,,,,,,,,,,,,,,,,,,,,,,,,,,,
195310,001,2022-11-21_01h57.21.831,Info_measure_main_exp,2022.2.2,Win32,60.13229104,,,,,,,,,,,,,,,,,,masks/mask_001.jpg,,,,,,,,,,,,,,,,,,,,,,,,,,,,,,,,,,,,,,,,,,,0,1,1,0,1,,,,,,,,,,,,,,,,,,,,,,,,,,,,,,,,,,,,,,,,,,,,,,
195310,001,2022-11-21_01h57.21.831,Info_measure_main_exp,2022.2.2,Win32,60.13229104,,,,,,,,,,,,,,,,,,masks/mask_003.jpg,,,,,,,,,,,,,,,,,,,,,,,,,,,,,,,,,,,,,,,,,,,0,2,2,2,1,,,,,,,,,,,,,,,,,,,,,,,,,,,,,,,,,,,,,,,,,,,,,,
195310,001,2022-11-21_01h57.21.831,Info_measure_main_exp,2022.2.2,Win32,60.13229104,,,,,,,,,,,,,,,,,,masks/mask_005.jpg,,,,,,,,,,,,,,,,,,,,,,,,,,,,,,,,,,,,,,,,,,,0,3,3,4,1,,,,,,,,,,,,,,,,,,,,,,,,,,,,,,,,,,,,,,,,,,,,,,
195310,001,2022-11-21_01h57.21.831,Info_measure_main_exp,2022.2.2,Win32,60.13229104,,,,,,,,,,,,,,,,,,masks/mask_004.jpg,,,,,,,,,,,,,,,,,,,,,,,,,,,,,,,,,,,,,,,,,,,0,4,4,3,1,,,,,,,,,,,,,,,,,,,,,,,,,,,,,,,,,,,,,,,,,,,,,,
195310,001,2022-11-21_01h57.21.831,Info_measure_main_exp,2022.2.2,Win32,60.13229104,,,,,,,,,,,,,,,,,,masks/mask_004.jpg,,,,,,,,,,,,,,,,,,,,,,,,,,,,,,,,,,,,,,,,,,,,,,,,0,0,0,3,1,,,,,,,,,,,,,,,,,,,,,,,,,,,,,,,,,,,,,,,,,
195310,001,2022-11-21_01h57.21.831,Info_measure_main_exp,2022.2.2,Win32,60.13229104,,,,,,,,,,,,,,,,,,masks/mask_002.jpg,,,,,,,,,,,,,,,,,,,,,,,,,,,,,,,,,,,,,,,,,,,,,,,,0,1,1,1,1,,,,,,,,,,,,,,,,,,,,,,,,,,,,,,,,,,,,,,,,,
195310,001,2022-11-21_01h57.21.831,Info_measure_main_exp,2022.2.2,Win32,60.13229104,,,,,,,,,,,,,,,,,,masks/mask_001.jpg,,,,,,,,,,,,,,,,,,,,,,,,,,,,,,,,,,,,,,,,,,,,,,,,0,2,2,0,1,,,,,,,,,,,,,,,,,,,,,,,,,,,,,,,,,,,,,,,,,
195310,001,2022-11-21_01h57.21.831,Info_measure_main_exp,2022.2.2,Win32,60.13229104,,,,,,,,,,,,,,,,,,masks/mask_003.jpg,,,,,,,,,,,,,,,,,,,,,,,,,,,,,,,,,,,,,,,,,,,,,,,,0,3,3,2,1,,,,,,,,,,,,,,,,,,,,,,,,,,,,,,,,,,,,,,,,,
195310,001,2022-11-21_01h57.21.831,Info_measure_main_exp,2022.2.2,Win32,60.13229104,,,,,,,,,,,,,,,,,,masks/mask_005.jpg,,,,,,,,,,,,,,,,,,,,,,,,,,,,,,,,,,,,,,,,,,,,,,,,0,4,4,4,1,,,,,,,,,,,,,,,,,,,,,,,,,,,,,,,,,,,,,,,,,
195310,001,2022-11-21_01h57.21.831,Info_measure_main_exp,2022.2.2,Win32,60.13229104,,,,,,,,,,,,,,,,,,,,,,,,,,,,,,0,2.5645,1,,,,,,,,,,,,0,131,5,5,2274,2274,absent_patch/patch0002274.jpg,absent_patch/patch0002274.jpg,,,,,,,,,,,,,,,,,,,,-0.039814772,0.116666653,1,0,0,response7disk,8,-0.007407365,0.002777771,1,0,0,center_square,0,7,7,114,1,,,,,,,,,,,,,,,,,,,,,,,
195310,001,2022-11-21_01h57.21.831,Info_measure_main_exp,2022.2.2,Win32,60.13229104,,,,,,,,,,,,,,,,,,masks/mask_002.jpg,,,,,,,,,,,,,,,,,,,,,,,,,,,,,,,,,,,,,,,,,,,0,0,0,1,1,,,,,,,,,,,,,,,,,,,,,,,,,,,,,,,,,,,,,,,,,,,,,,
195310,001,2022-11-21_01h57.21.831,Info_measure_main_exp,2022.2.2,Win32,60.13229104,,,,,,,,,,,,,,,,,,masks/mask_001.jpg,,,,,,,,,,,,,,,,,,,,,,,,,,,,,,,,,,,,,,,,,,,0,1,1,0,1,,,,,,,,,,,,,,,,,,,,,,,,,,,,,,,,,,,,,,,,,,,,,,
195310,001,2022-11-21_01h57.21.831,Info_measure_main_exp,2022.2.2,Win32,60.13229104,,,,,,,,,,,,,,,,,,masks/mask_004.jpg,,,,,,,,,,,,,,,,,,,,,,,,,,,,,,,,,,,,,,,,,,,0,2,2,3,1,,,,,,,,,,,,,,,,,,,,,,,,,,,,,,,,,,,,,,,,,,,,,,
195310,001,2022-11-21_01h57.21.831,Info_measure_main_exp,2022.2.2,Win32,60.13229104,,,,,,,,,,,,,,,,,,masks/mask_003.jpg,,,,,,,,,,,,,,,,,,,,,,,,,,,,,,,,,,,,,,,,,,,0,3,3,2,1,,,,,,,,,,,,,,,,,,,,,,,,,,,,,,,,,,,,,,,,,,,,,,
195310,001,2022-11-21_01h57.21.831,Info_measure_main_exp,2022.2.2,Win32,60.13229104,,,,,,,,,,,,,,,,,,masks/mask_005.jpg,,,,,,,,,,,,,,,,,,,,,,,,,,,,,,,,,,,,,,,,,,,0,4,4,4,1,,,,,,,,,,,,,,,,,,,,,,,,,,,,,,,,,,,,,,,,,,,,,,
195310,001,2022-11-21_01h57.21.831,Info_measure_main_exp,2022.2.2,Win32,60.13229104,,,,,,,,,,,,,,,,,,masks/mask_001.jpg,,,,,,,,,,,,,,,,,,,,,,,,,,,,,,,,,,,,,,,,,,,,,,,,0,0,0,0,1,,,,,,,,,,,,,,,,,,,,,,,,,,,,,,,,,,,,,,,,,
195310,001,2022-11-21_01h57.21.831,Info_measure_main_exp,2022.2.2,Win32,60.13229104,,,,,,,,,,,,,,,,,,masks/mask_003.jpg,,,,,,,,,,,,,,,,,,,,,,,,,,,,,,,,,,,,,,,,,,,,,,,,0,1,1,2,1,,,,,,,,,,,,,,,,,,,,,,,,,,,,,,,,,,,,,,,,,
195310,001,2022-11-21_01h57.21.831,Info_measure_main_exp,2022.2.2,Win32,60.13229104,,,,,,,,,,,,,,,,,,masks/mask_005.jpg,,,,,,,,,,,,,,,,,,,,,,,,,,,,,,,,,,,,,,,,,,,,,,,,0,2,2,4,1,,,,,,,,,,,,,,,,,,,,,,,,,,,,,,,,,,,,,,,,,
195310,001,2022-11-21_01h57.21.831,Info_measure_main_exp,2022.2.2,Win32,60.13229104,,,,,,,,,,,,,,,,,,masks/mask_002.jpg,,,,,,,,,,,,,,,,,,,,,,,,,,,,,,,,,,,,,,,,,,,,,,,,0,3,3,1,1,,,,,,,,,,,,,,,,,,,,,,,,,,,,,,,,,,,,,,,,,
195310,001,2022-11-21_01h57.21.831,Info_measure_main_exp,2022.2.2,Win32,60.13229104,,,,,,,,,,,,,,,,,,masks/mask_004.jpg,,,,,,,,,,,,,,,,,,,,,,,,,,,,,,,,,,,,,,,,,,,,,,,,0,4,4,3,1,,,,,,,,,,,,,,,,,,,,,,,,,,,,,,,,,,,,,,,,,
195310,001,2022-11-21_01h57.21.831,Info_measure_main_exp,2022.2.2,Win32,60.13229104,,,,,,,,,,,,,,,,,,,,,,,,,,,,,,5,5.3867,1,,,,,,,,,,,,0,131,5,5,1950,2214,absent_patch/patch0001950.jpg,absent_patch/patch0002214.jpg,,,,,,,,,,,,,,,,,,,,0.117592635,-0.051851873,1,0,0,response3disk,9,0.00462963,0.005555541,1,0,0,center_square,0,8,8,85,1,,,,,,,,,,,,,,,,,,,,,,,
195310,001,2022-11-21_01h57.21.831,Info_measure_main_exp,2022.2.2,Win32,60.13229104,,,,,,,,,,,,,,,,,,masks/mask_005.jpg,,,,,,,,,,,,,,,,,,,,,,,,,,,,,,,,,,,,,,,,,,,0,0,0,4,1,,,,,,,,,,,,,,,,,,,,,,,,,,,,,,,,,,,,,,,,,,,,,,
195310,001,2022-11-21_01h57.21.831,Info_measure_main_exp,2022.2.2,Win32,60.13229104,,,,,,,,,,,,,,,,,,masks/mask_001.jpg,,,,,,,,,,,,,,,,,,,,,,,,,,,,,,,,,,,,,,,,,,,0,1,1,0,1,,,,,,,,,,,,,,,,,,,,,,,,,,,,,,,,,,,,,,,,,,,,,,
195310,001,2022-11-21_01h57.21.831,Info_measure_main_exp,2022.2.2,Win32,60.13229104,,,,,,,,,,,,,,,,,,masks/mask_003.jpg,,,,,,,,,,,,,,,,,,,,,,,,,,,,,,,,,,,,,,,,,,,0,2,2,2,1,,,,,,,,,,,,,,,,,,,,,,,,,,,,,,,,,,,,,,,,,,,,,,
195310,001,2022-11-21_01h57.21.831,Info_measure_main_exp,2022.2.2,Win32,60.13229104,,,,,,,,,,,,,,,,,,masks/mask_002.jpg,,,,,,,,,,,,,,,,,,,,,,,,,,,,,,,,,,,,,,,,,,,0,3,3,1,1,,,,,,,,,,,,,,,,,,,,,,,,,,,,,,,,,,,,,,,,,,,,,,
195310,001,2022-11-21_01h57.21.831,Info_measure_main_exp,2022.2.2,Win32,60.13229104,,,,,,,,,,,,,,,,,,masks/mask_004.jpg,,,,,,,,,,,,,,,,,,,,,,,,,,,,,,,,,,,,,,,,,,,0,4,4,3,1,,,,,,,,,,,,,,,,,,,,,,,,,,,,,,,,,,,,,,,,,,,,,,
195310,001,2022-11-21_01h57.21.831,Info_measure_main_exp,2022.2.2,Win32,60.13229104,,,,,,,,,,,,,,,,,,masks/mask_003.jpg,,,,,,,,,,,,,,,,,,,,,,,,,,,,,,,,,,,,,,,,,,,,,,,,0,0,0,2,1,,,,,,,,,,,,,,,,,,,,,,,,,,,,,,,,,,,,,,,,,
195310,001,2022-11-21_01h57.21.831,Info_measure_main_exp,2022.2.2,Win32,60.13229104,,,,,,,,,,,,,,,,,,masks/mask_002.jpg,,,,,,,,,,,,,,,,,,,,,,,,,,,,,,,,,,,,,,,,,,,,,,,,0,1,1,1,1,,,,,,,,,,,,,,,,,,,,,,,,,,,,,,,,,,,,,,,,,
195310,001,2022-11-21_01h57.21.831,Info_measure_main_exp,2022.2.2,Win32,60.13229104,,,,,,,,,,,,,,,,,,masks/mask_001.jpg,,,,,,,,,,,,,,,,,,,,,,,,,,,,,,,,,,,,,,,,,,,,,,,,0,2,2,0,1,,,,,,,,,,,,,,,,,,,,,,,,,,,,,,,,,,,,,,,,,
195310,001,2022-11-21_01h57.21.831,Info_measure_main_exp,2022.2.2,Win32,60.13229104,,,,,,,,,,,,,,,,,,masks/mask_005.jpg,,,,,,,,,,,,,,,,,,,,,,,,,,,,,,,,,,,,,,,,,,,,,,,,0,3,3,4,1,,,,,,,,,,,,,,,,,,,,,,,,,,,,,,,,,,,,,,,,,
195310,001,2022-11-21_01h57.21.831,Info_measure_main_exp,2022.2.2,Win32,60.13229104,,,,,,,,,,,,,,,,,,masks/mask_004.jpg,,,,,,,,,,,,,,,,,,,,,,,,,,,,,,,,,,,,,,,,,,,,,,,,0,4,4,3,1,,,,,,,,,,,,,,,,,,,,,,,,,,,,,,,,,,,,,,,,,
195310,001,2022-11-21_01h57.21.831,Info_measure_main_exp,2022.2.2,Win32,60.13229104,,,,,,,,,,,,,,,,,,,,,,,,,,,,,,7,1.3328,1,,,,,,,,,,,,0,131,5,5,2274,1950,absent_patch/patch0002274.jpg,absent_patch/patch0001950.jpg,,,,,,,,,,,,,,,,,,,,0.049074102,0.074074074,1,0,0,response1disk,10,0.009259259,-0.002777771,1,0,0,center_square,0,9,9,10,1,,,,,,,,,,,,,,,,,,,,,,,
195310,001,2022-11-21_01h57.21.831,Info_measure_main_exp,2022.2.2,Win32,60.13229104,,,,,,,,,,,,,,,,,,masks/mask_005.jpg,,,,,,,,,,,,,,,,,,,,,,,,,,,,,,,,,,,,,,,,,,,0,0,0,4,1,,,,,,,,,,,,,,,,,,,,,,,,,,,,,,,,,,,,,,,,,,,,,,
195310,001,2022-11-21_01h57.21.831,Info_measure_main_exp,2022.2.2,Win32,60.13229104,,,,,,,,,,,,,,,,,,masks/mask_004.jpg,,,,,,,,,,,,,,,,,,,,,,,,,,,,,,,,,,,,,,,,,,,0,1,1,3,1,,,,,,,,,,,,,,,,,,,,,,,,,,,,,,,,,,,,,,,,,,,,,,
195310,001,2022-11-21_01h57.21.831,Info_measure_main_exp,2022.2.2,Win32,60.13229104,,,,,,,,,,,,,,,,,,masks/mask_003.jpg,,,,,,,,,,,,,,,,,,,,,,,,,,,,,,,,,,,,,,,,,,,0,2,2,2,1,,,,,,,,,,,,,,,,,,,,,,,,,,,,,,,,,,,,,,,,,,,,,,
195310,001,2022-11-21_01h57.21.831,Info_measure_main_exp,2022.2.2,Win32,60.13229104,,,,,,,,,,,,,,,,,,masks/mask_002.jpg,,,,,,,,,,,,,,,,,,,,,,,,,,,,,,,,,,,,,,,,,,,0,3,3,1,1,,,,,,,,,,,,,,,,,,,,,,,,,,,,,,,,,,,,,,,,,,,,,,
195310,001,2022-11-21_01h57.21.831,Info_measure_main_exp,2022.2.2,Win32,60.13229104,,,,,,,,,,,,,,,,,,masks/mask_001.jpg,,,,,,,,,,,,,,,,,,,,,,,,,,,,,,,,,,,,,,,,,,,0,4,4,0,1,,,,,,,,,,,,,,,,,,,,,,,,,,,,,,,,,,,,,,,,,,,,,,
195310,001,2022-11-21_01h57.21.831,Info_measure_main_exp,2022.2.2,Win32,60.13229104,,,,,,,,,,,,,,,,,,masks/mask_002.jpg,,,,,,,,,,,,,,,,,,,,,,,,,,,,,,,,,,,,,,,,,,,,,,,,0,0,0,1,1,,,,,,,,,,,,,,,,,,,,,,,,,,,,,,,,,,,,,,,,,
195310,001,2022-11-21_01h57.21.831,Info_measure_main_exp,2022.2.2,Win32,60.13229104,,,,,,,,,,,,,,,,,,masks/mask_004.jpg,,,,,,,,,,,,,,,,,,,,,,,,,,,,,,,,,,,,,,,,,,,,,,,,0,1,1,3,1,,,,,,,,,,,,,,,,,,,,,,,,,,,,,,,,,,,,,,,,,
195310,001,2022-11-21_01h57.21.831,Info_measure_main_exp,2022.2.2,Win32,60.13229104,,,,,,,,,,,,,,,,,,masks/mask_001.jpg,,,,,,,,,,,,,,,,,,,,,,,,,,,,,,,,,,,,,,,,,,,,,,,,0,2,2,0,1,,,,,,,,,,,,,,,,,,,,,,,,,,,,,,,,,,,,,,,,,
195310,001,2022-11-21_01h57.21.831,Info_measure_main_exp,2022.2.2,Win32,60.13229104,,,,,,,,,,,,,,,,,,masks/mask_005.jpg,,,,,,,,,,,,,,,,,,,,,,,,,,,,,,,,,,,,,,,,,,,,,,,,0,3,3,4,1,,,,,,,,,,,,,,,,,,,,,,,,,,,,,,,,,,,,,,,,,
195310,001,2022-11-21_01h57.21.831,Info_measure_main_exp,2022.2.2,Win32,60.13229104,,,,,,,,,,,,,,,,,,masks/mask_003.jpg,,,,,,,,,,,,,,,,,,,,,,,,,,,,,,,,,,,,,,,,,,,,,,,,0,4,4,2,1,,,,,,,,,,,,,,,,,,,,,,,,,,,,,,,,,,,,,,,,,
195310,001,2022-11-21_01h57.21.831,Info_measure_main_exp,2022.2.2,Win32,60.13229104,,,,,,,,,,,,,,,,,,,,,,,,,,,,,,0,1.7881,1,,,,,,,,,,,,0,131,5,5,1950,1950,absent_patch/patch0001950.jpg,absent_patch/patch0001950.jpg,,,,,,,,,,,,,,,,,,,,-0.047222208,0.109259252,1,0,0,response7disk,11,-0.003703718,-0.011111118,1,0,0,center_square,0,10,10,92,1,,,,,,,,,,,,,,,,,,,,,,,
195310,001,2022-11-21_01h57.21.831,Info_measure_main_exp,2022.2.2,Win32,60.13229104,,,,,,,,,,,,,,,,,,masks/mask_002.jpg,,,,,,,,,,,,,,,,,,,,,,,,,,,,,,,,,,,,,,,,,,,0,0,0,1,1,,,,,,,,,,,,,,,,,,,,,,,,,,,,,,,,,,,,,,,,,,,,,,
195310,001,2022-11-21_01h57.21.831,Info_measure_main_exp,2022.2.2,Win32,60.13229104,,,,,,,,,,,,,,,,,,masks/mask_005.jpg,,,,,,,,,,,,,,,,,,,,,,,,,,,,,,,,,,,,,,,,,,,0,1,1,4,1,,,,,,,,,,,,,,,,,,,,,,,,,,,,,,,,,,,,,,,,,,,,,,
195310,001,2022-11-21_01h57.21.831,Info_measure_main_exp,2022.2.2,Win32,60.13229104,,,,,,,,,,,,,,,,,,masks/mask_003.jpg,,,,,,,,,,,,,,,,,,,,,,,,,,,,,,,,,,,,,,,,,,,0,2,2,2,1,,,,,,,,,,,,,,,,,,,,,,,,,,,,,,,,,,,,,,,,,,,,,,
195310,001,2022-11-21_01h57.21.831,Info_measure_main_exp,2022.2.2,Win32,60.13229104,,,,,,,,,,,,,,,,,,masks/mask_004.jpg,,,,,,,,,,,,,,,,,,,,,,,,,,,,,,,,,,,,,,,,,,,0,3,3,3,1,,,,,,,,,,,,,,,,,,,,,,,,,,,,,,,,,,,,,,,,,,,,,,
195310,001,2022-11-21_01h57.21.831,Info_measure_main_exp,2022.2.2,Win32,60.13229104,,,,,,,,,,,,,,,,,,masks/mask_001.jpg,,,,,,,,,,,,,,,,,,,,,,,,,,,,,,,,,,,,,,,,,,,0,4,4,0,1,,,,,,,,,,,,,,,,,,,,,,,,,,,,,,,,,,,,,,,,,,,,,,
195310,001,2022-11-21_01h57.21.831,Info_measure_main_exp,2022.2.2,Win32,60.13229104,,,,,,,,,,,,,,,,,,masks/mask_002.jpg,,,,,,,,,,,,,,,,,,,,,,,,,,,,,,,,,,,,,,,,,,,,,,,,0,0,0,1,1,,,,,,,,,,,,,,,,,,,,,,,,,,,,,,,,,,,,,,,,,
195310,001,2022-11-21_01h57.21.831,Info_measure_main_exp,2022.2.2,Win32,60.13229104,,,,,,,,,,,,,,,,,,masks/mask_004.jpg,,,,,,,,,,,,,,,,,,,,,,,,,,,,,,,,,,,,,,,,,,,,,,,,0,1,1,3,1,,,,,,,,,,,,,,,,,,,,,,,,,,,,,,,,,,,,,,,,,
195310,001,2022-11-21_01h57.21.831,Info_measure_main_exp,2022.2.2,Win32,60.13229104,,,,,,,,,,,,,,,,,,masks/mask_003.jpg,,,,,,,,,,,,,,,,,,,,,,,,,,,,,,,,,,,,,,,,,,,,,,,,0,2,2,2,1,,,,,,,,,,,,,,,,,,,,,,,,,,,,,,,,,,,,,,,,,
195310,001,2022-11-21_01h57.21.831,Info_measure_main_exp,2022.2.2,Win32,60.13229104,,,,,,,,,,,,,,,,,,masks/mask_001.jpg,,,,,,,,,,,,,,,,,,,,,,,,,,,,,,,,,,,,,,,,,,,,,,,,0,3,3,0,1,,,,,,,,,,,,,,,,,,,,,,,,,,,,,,,,,,,,,,,,,
195310,001,2022-11-21_01h57.21.831,Info_measure_main_exp,2022.2.2,Win32,60.13229104,,,,,,,,,,,,,,,,,,masks/mask_005.jpg,,,,,,,,,,,,,,,,,,,,,,,,,,,,,,,,,,,,,,,,,,,,,,,,0,4,4,4,1,,,,,,,,,,,,,,,,,,,,,,,,,,,,,,,,,,,,,,,,,
195310,001,2022-11-21_01h57.21.831,Info_measure_main_exp,2022.2.2,Win32,60.13229104,,,,,,,,,,,,,,,,,,,,,,,,,,,,,,3,1.656,1,,,,,,,,,,,,0,131,5,5,1974,2142,absent_patch/patch0001974.jpg,absent_patch/patch0002142.jpg,,,,,,,,,,,,,,,,,,,,-0.070370356,-0.131481524,1,0,0,response5disk,12,0.003703718,0.005555541,1,0,0,center_square,0,11,11,38,1,,,,,,,,,,,,,,,,,,,,,,,
195310,001,2022-11-21_01h57.21.831,Info_measure_main_exp,2022.2.2,Win32,60.13229104,,,,,,,,,,,,,,,,,,masks/mask_003.jpg,,,,,,,,,,,,,,,,,,,,,,,,,,,,,,,,,,,,,,,,,,,0,0,0,2,1,,,,,,,,,,,,,,,,,,,,,,,,,,,,,,,,,,,,,,,,,,,,,,
195310,001,2022-11-21_01h57.21.831,Info_measure_main_exp,2022.2.2,Win32,60.13229104,,,,,,,,,,,,,,,,,,masks/mask_004.jpg,,,,,,,,,,,,,,,,,,,,,,,,,,,,,,,,,,,,,,,,,,,0,1,1,3,1,,,,,,,,,,,,,,,,,,,,,,,,,,,,,,,,,,,,,,,,,,,,,,
195310,001,2022-11-21_01h57.21.831,Info_measure_main_exp,2022.2.2,Win32,60.13229104,,,,,,,,,,,,,,,,,,masks/mask_002.jpg,,,,,,,,,,,,,,,,,,,,,,,,,,,,,,,,,,,,,,,,,,,0,2,2,1,1,,,,,,,,,,,,,,,,,,,,,,,,,,,,,,,,,,,,,,,,,,,,,,
195310,001,2022-11-21_01h57.21.831,Info_measure_main_exp,2022.2.2,Win32,60.13229104,,,,,,,,,,,,,,,,,,masks/mask_005.jpg,,,,,,,,,,,,,,,,,,,,,,,,,,,,,,,,,,,,,,,,,,,0,3,3,4,1,,,,,,,,,,,,,,,,,,,,,,,,,,,,,,,,,,,,,,,,,,,,,,
195310,001,2022-11-21_01h57.21.831,Info_measure_main_exp,2022.2.2,Win32,60.13229104,,,,,,,,,,,,,,,,,,masks/mask_001.jpg,,,,,,,,,,,,,,,,,,,,,,,,,,,,,,,,,,,,,,,,,,,0,4,4,0,1,,,,,,,,,,,,,,,,,,,,,,,,,,,,,,,,,,,,,,,,,,,,,,
195310,001,2022-11-21_01h57.21.831,Info_measure_main_exp,2022.2.2,Win32,60.13229104,,,,,,,,,,,,,,,,,,masks/mask_005.jpg,,,,,,,,,,,,,,,,,,,,,,,,,,,,,,,,,,,,,,,,,,,,,,,,0,0,0,4,1,,,,,,,,,,,,,,,,,,,,,,,,,,,,,,,,,,,,,,,,,
195310,001,2022-11-21_01h57.21.831,Info_measure_main_exp,2022.2.2,Win32,60.13229104,,,,,,,,,,,,,,,,,,masks/mask_001.jpg,,,,,,,,,,,,,,,,,,,,,,,,,,,,,,,,,,,,,,,,,,,,,,,,0,1,1,0,1,,,,,,,,,,,,,,,,,,,,,,,,,,,,,,,,,,,,,,,,,
195310,001,2022-11-21_01h57.21.831,Info_measure_main_exp,2022.2.2,Win32,60.13229104,,,,,,,,,,,,,,,,,,masks/mask_003.jpg,,,,,,,,,,,,,,,,,,,,,,,,,,,,,,,,,,,,,,,,,,,,,,,,0,2,2,2,1,,,,,,,,,,,,,,,,,,,,,,,,,,,,,,,,,,,,,,,,,
195310,001,2022-11-21_01h57.21.831,Info_measure_main_exp,2022.2.2,Win32,60.13229104,,,,,,,,,,,,,,,,,,masks/mask_002.jpg,,,,,,,,,,,,,,,,,,,,,,,,,,,,,,,,,,,,,,,,,,,,,,,,0,3,3,1,1,,,,,,,,,,,,,,,,,,,,,,,,,,,,,,,,,,,,,,,,,
195310,001,2022-11-21_01h57.21.831,Info_measure_main_exp,2022.2.2,Win32,60.13229104,,,,,,,,,,,,,,,,,,masks/mask_004.jpg,,,,,,,,,,,,,,,,,,,,,,,,,,,,,,,,,,,,,,,,,,,,,,,,0,4,4,3,1,,,,,,,,,,,,,,,,,,,,,,,,,,,,,,,,,,,,,,,,,
195310,001,2022-11-21_01h57.21.831,Info_measure_main_exp,2022.2.2,Win32,60.13229104,,,,,,,,,,,,,,,,,,,,,,,,,,,,,,2,4.5999,1,,,,,,,,,,,,0,131,5,5,2154,2238,absent_patch/patch0002154.jpg,absent_patch/patch0002238.jpg,,,,,,,,,,,,,,,,,,,,-0.110185199,-0.020370377,1,0,0,response5disk,13,0.000925912,-0.005555577,1,0,0,center_square,0,12,12,21,1,,,,,,,,,,,,,,,,,,,,,,,
195310,001,2022-11-21_01h57.21.831,Info_measure_main_exp,2022.2.2,Win32,60.13229104,,,,,,,,,,,,,,,,,,masks/mask_003.jpg,,,,,,,,,,,,,,,,,,,,,,,,,,,,,,,,,,,,,,,,,,,0,0,0,2,1,,,,,,,,,,,,,,,,,,,,,,,,,,,,,,,,,,,,,,,,,,,,,,
195310,001,2022-11-21_01h57.21.831,Info_measure_main_exp,2022.2.2,Win32,60.13229104,,,,,,,,,,,,,,,,,,masks/mask_001.jpg,,,,,,,,,,,,,,,,,,,,,,,,,,,,,,,,,,,,,,,,,,,0,1,1,0,1,,,,,,,,,,,,,,,,,,,,,,,,,,,,,,,,,,,,,,,,,,,,,,
195310,001,2022-11-21_01h57.21.831,Info_measure_main_exp,2022.2.2,Win32,60.13229104,,,,,,,,,,,,,,,,,,masks/mask_005.jpg,,,,,,,,,,,,,,,,,,,,,,,,,,,,,,,,,,,,,,,,,,,0,2,2,4,1,,,,,,,,,,,,,,,,,,,,,,,,,,,,,,,,,,,,,,,,,,,,,,
195310,001,2022-11-21_01h57.21.831,Info_measure_main_exp,2022.2.2,Win32,60.13229104,,,,,,,,,,,,,,,,,,masks/mask_004.jpg,,,,,,,,,,,,,,,,,,,,,,,,,,,,,,,,,,,,,,,,,,,0,3,3,3,1,,,,,,,,,,,,,,,,,,,,,,,,,,,,,,,,,,,,,,,,,,,,,,
195310,001,2022-11-21_01h57.21.831,Info_measure_main_exp,2022.2.2,Win32,60.13229104,,,,,,,,,,,,,,,,,,masks/mask_002.jpg,,,,,,,,,,,,,,,,,,,,,,,,,,,,,,,,,,,,,,,,,,,0,4,4,1,1,,,,,,,,,,,,,,,,,,,,,,,,,,,,,,,,,,,,,,,,,,,,,,
195310,001,2022-11-21_01h57.21.831,Info_measure_main_exp,2022.2.2,Win32,60.13229104,,,,,,,,,,,,,,,,,,masks/mask_001.jpg,,,,,,,,,,,,,,,,,,,,,,,,,,,,,,,,,,,,,,,,,,,,,,,,0,0,0,0,1,,,,,,,,,,,,,,,,,,,,,,,,,,,,,,,,,,,,,,,,,
195310,001,2022-11-21_01h57.21.831,Info_measure_main_exp,2022.2.2,Win32,60.13229104,,,,,,,,,,,,,,,,,,masks/mask_004.jpg,,,,,,,,,,,,,,,,,,,,,,,,,,,,,,,,,,,,,,,,,,,,,,,,0,1,1,3,1,,,,,,,,,,,,,,,,,,,,,,,,,,,,,,,,,,,,,,,,,
195310,001,2022-11-21_01h57.21.831,Info_measure_main_exp,2022.2.2,Win32,60.13229104,,,,,,,,,,,,,,,,,,masks/mask_002.jpg,,,,,,,,,,,,,,,,,,,,,,,,,,,,,,,,,,,,,,,,,,,,,,,,0,2,2,1,1,,,,,,,,,,,,,,,,,,,,,,,,,,,,,,,,,,,,,,,,,
195310,001,2022-11-21_01h57.21.831,Info_measure_main_exp,2022.2.2,Win32,60.13229104,,,,,,,,,,,,,,,,,,masks/mask_005.jpg,,,,,,,,,,,,,,,,,,,,,,,,,,,,,,,,,,,,,,,,,,,,,,,,0,3,3,4,1,,,,,,,,,,,,,,,,,,,,,,,,,,,,,,,,,,,,,,,,,
195310,001,2022-11-21_01h57.21.831,Info_measure_main_exp,2022.2.2,Win32,60.13229104,,,,,,,,,,,,,,,,,,masks/mask_003.jpg,,,,,,,,,,,,,,,,,,,,,,,,,,,,,,,,,,,,,,,,,,,,,,,,0,4,4,2,1,,,,,,,,,,,,,,,,,,,,,,,,,,,,,,,,,,,,,,,,,
195310,001,2022-11-21_01h57.21.831,Info_measure_main_exp,2022.2.2,Win32,60.13229104,,,,,,,,,,,,,,,,,,,,,,,,,,,,,,7,2.1852,1,,,,,,,,,,,,0,131,5,5,2274,2166,absent_patch/patch0002274.jpg,absent_patch/patch0002166.jpg,,,,,,,,,,,,,,,,,,,,0.088888875,0.125,1,0,0,response1disk,14,-0.005555541,-0.008333347,1,0,0,center_square,0,13,13,78,1,,,,,,,,,,,,,,,,,,,,,,,
195310,001,2022-11-21_01h57.21.831,Info_measure_main_exp,2022.2.2,Win32,60.13229104,,,,,,,,,,,,,,,,,,masks/mask_004.jpg,,,,,,,,,,,,,,,,,,,,,,,,,,,,,,,,,,,,,,,,,,,0,0,0,3,1,,,,,,,,,,,,,,,,,,,,,,,,,,,,,,,,,,,,,,,,,,,,,,
195310,001,2022-11-21_01h57.21.831,Info_measure_main_exp,2022.2.2,Win32,60.13229104,,,,,,,,,,,,,,,,,,masks/mask_005.jpg,,,,,,,,,,,,,,,,,,,,,,,,,,,,,,,,,,,,,,,,,,,0,1,1,4,1,,,,,,,,,,,,,,,,,,,,,,,,,,,,,,,,,,,,,,,,,,,,,,
195310,001,2022-11-21_01h57.21.831,Info_measure_main_exp,2022.2.2,Win32,60.13229104,,,,,,,,,,,,,,,,,,masks/mask_001.jpg,,,,,,,,,,,,,,,,,,,,,,,,,,,,,,,,,,,,,,,,,,,0,2,2,0,1,,,,,,,,,,,,,,,,,,,,,,,,,,,,,,,,,,,,,,,,,,,,,,
195310,001,2022-11-21_01h57.21.831,Info_measure_main_exp,2022.2.2,Win32,60.13229104,,,,,,,,,,,,,,,,,,masks/mask_003.jpg,,,,,,,,,,,,,,,,,,,,,,,,,,,,,,,,,,,,,,,,,,,0,3,3,2,1,,,,,,,,,,,,,,,,,,,,,,,,,,,,,,,,,,,,,,,,,,,,,,
195310,001,2022-11-21_01h57.21.831,Info_measure_main_exp,2022.2.2,Win32,60.13229104,,,,,,,,,,,,,,,,,,masks/mask_002.jpg,,,,,,,,,,,,,,,,,,,,,,,,,,,,,,,,,,,,,,,,,,,0,4,4,1,1,,,,,,,,,,,,,,,,,,,,,,,,,,,,,,,,,,,,,,,,,,,,,,
195310,001,2022-11-21_01h57.21.831,Info_measure_main_exp,2022.2.2,Win32,60.13229104,,,,,,,,,,,,,,,,,,masks/mask_005.jpg,,,,,,,,,,,,,,,,,,,,,,,,,,,,,,,,,,,,,,,,,,,,,,,,0,0,0,4,1,,,,,,,,,,,,,,,,,,,,,,,,,,,,,,,,,,,,,,,,,
195310,001,2022-11-21_01h57.21.831,Info_measure_main_exp,2022.2.2,Win32,60.13229104,,,,,,,,,,,,,,,,,,masks/mask_002.jpg,,,,,,,,,,,,,,,,,,,,,,,,,,,,,,,,,,,,,,,,,,,,,,,,0,1,1,1,1,,,,,,,,,,,,,,,,,,,,,,,,,,,,,,,,,,,,,,,,,
195310,001,2022-11-21_01h57.21.831,Info_measure_main_exp,2022.2.2,Win32,60.13229104,,,,,,,,,,,,,,,,,,masks/mask_003.jpg,,,,,,,,,,,,,,,,,,,,,,,,,,,,,,,,,,,,,,,,,,,,,,,,0,2,2,2,1,,,,,,,,,,,,,,,,,,,,,,,,,,,,,,,,,,,,,,,,,
195310,001,2022-11-21_01h57.21.831,Info_measure_main_exp,2022.2.2,Win32,60.13229104,,,,,,,,,,,,,,,,,,masks/mask_001.jpg,,,,,,,,,,,,,,,,,,,,,,,,,,,,,,,,,,,,,,,,,,,,,,,,0,3,3,0,1,,,,,,,,,,,,,,,,,,,,,,,,,,,,,,,,,,,,,,,,,
195310,001,2022-11-21_01h57.21.831,Info_measure_main_exp,2022.2.2,Win32,60.13229104,,,,,,,,,,,,,,,,,,masks/mask_004.jpg,,,,,,,,,,,,,,,,,,,,,,,,,,,,,,,,,,,,,,,,,,,,,,,,0,4,4,3,1,,,,,,,,,,,,,,,,,,,,,,,,,,,,,,,,,,,,,,,,,
195310,001,2022-11-21_01h57.21.831,Info_measure_main_exp,2022.2.2,Win32,60.13229104,,,,,,,,,,,,,,,,,,,,,,,,,,,,,,7,1.3069,1,,,,,,,,,,,,0,131,5,5,2178,2154,absent_patch/patch0002178.jpg,absent_patch/patch0002154.jpg,,,,,,,,,,,,,,,,,,,,0.012037065,0.071296303,1,0,0,response1disk,15,-0.00462963,-0.002777771,1,0,0,center_square,0,14,14,63,1,,,,,,,,,,,,,,,,,,,,,,,
195310,001,2022-11-21_01h57.21.831,Info_measure_main_exp,2022.2.2,Win32,60.13229104,,,,,,,,,,,,,,,,,,masks/mask_004.jpg,,,,,,,,,,,,,,,,,,,,,,,,,,,,,,,,,,,,,,,,,,,0,0,0,3,1,,,,,,,,,,,,,,,,,,,,,,,,,,,,,,,,,,,,,,,,,,,,,,
195310,001,2022-11-21_01h57.21.831,Info_measure_main_exp,2022.2.2,Win32,60.13229104,,,,,,,,,,,,,,,,,,masks/mask_002.jpg,,,,,,,,,,,,,,,,,,,,,,,,,,,,,,,,,,,,,,,,,,,0,1,1,1,1,,,,,,,,,,,,,,,,,,,,,,,,,,,,,,,,,,,,,,,,,,,,,,
195310,001,2022-11-21_01h57.21.831,Info_measure_main_exp,2022.2.2,Win32,60.13229104,,,,,,,,,,,,,,,,,,masks/mask_001.jpg,,,,,,,,,,,,,,,,,,,,,,,,,,,,,,,,,,,,,,,,,,,0,2,2,0,1,,,,,,,,,,,,,,,,,,,,,,,,,,,,,,,,,,,,,,,,,,,,,,
195310,001,2022-11-21_01h57.21.831,Info_measure_main_exp,2022.2.2,Win32,60.13229104,,,,,,,,,,,,,,,,,,masks/mask_003.jpg,,,,,,,,,,,,,,,,,,,,,,,,,,,,,,,,,,,,,,,,,,,0,3,3,2,1,,,,,,,,,,,,,,,,,,,,,,,,,,,,,,,,,,,,,,,,,,,,,,
195310,001,2022-11-21_01h57.21.831,Info_measure_main_exp,2022.2.2,Win32,60.13229104,,,,,,,,,,,,,,,,,,masks/mask_005.jpg,,,,,,,,,,,,,,,,,,,,,,,,,,,,,,,,,,,,,,,,,,,0,4,4,4,1,,,,,,,,,,,,,,,,,,,,,,,,,,,,,,,,,,,,,,,,,,,,,,
195310,001,2022-11-21_01h57.21.831,Info_measure_main_exp,2022.2.2,Win32,60.13229104,,,,,,,,,,,,,,,,,,masks/mask_004.jpg,,,,,,,,,,,,,,,,,,,,,,,,,,,,,,,,,,,,,,,,,,,,,,,,0,0,0,3,1,,,,,,,,,,,,,,,,,,,,,,,,,,,,,,,,,,,,,,,,,
195310,001,2022-11-21_01h57.21.831,Info_measure_main_exp,2022.2.2,Win32,60.13229104,,,,,,,,,,,,,,,,,,masks/mask_003.jpg,,,,,,,,,,,,,,,,,,,,,,,,,,,,,,,,,,,,,,,,,,,,,,,,0,1,1,2,1,,,,,,,,,,,,,,,,,,,,,,,,,,,,,,,,,,,,,,,,,
195310,001,2022-11-21_01h57.21.831,Info_measure_main_exp,2022.2.2,Win32,60.13229104,,,,,,,,,,,,,,,,,,masks/mask_002.jpg,,,,,,,,,,,,,,,,,,,,,,,,,,,,,,,,,,,,,,,,,,,,,,,,0,2,2,1,1,,,,,,,,,,,,,,,,,,,,,,,,,,,,,,,,,,,,,,,,,
195310,001,2022-11-21_01h57.21.831,Info_measure_main_exp,2022.2.2,Win32,60.13229104,,,,,,,,,,,,,,,,,,masks/mask_005.jpg,,,,,,,,,,,,,,,,,,,,,,,,,,,,,,,,,,,,,,,,,,,,,,,,0,3,3,4,1,,,,,,,,,,,,,,,,,,,,,,,,,,,,,,,,,,,,,,,,,
195310,001,2022-11-21_01h57.21.831,Info_measure_main_exp,2022.2.2,Win32,60.13229104,,,,,,,,,,,,,,,,,,masks/mask_001.jpg,,,,,,,,,,,,,,,,,,,,,,,,,,,,,,,,,,,,,,,,,,,,,,,,0,4,4,0,1,,,,,,,,,,,,,,,,,,,,,,,,,,,,,,,,,,,,,,,,,
195310,001,2022-11-21_01h57.21.831,Info_measure_main_exp,2022.2.2,Win32,60.13229104,,,,,,,,,,,,,,,,,,,,,,,,,,,,,,6,1.8855,1,,,,,,,,,,,,0,131,5,5,2238,2298,absent_patch/patch0002238.jpg,absent_patch/patch0002298.jpg,,,,,,,,,,,,,,,,,,,,0.121296282,0.042592578,1,0,0,response1disk,16,0.008333347,0.001851859,1,0,0,center_square,0,15,15,51,1,,,,,,,,,,,,,,,,,,,,,,,
195310,001,2022-11-21_01h57.21.831,Info_measure_main_exp,2022.2.2,Win32,60.13229104,,,,,,,,,,,,,,,,,,masks/mask_003.jpg,,,,,,,,,,,,,,,,,,,,,,,,,,,,,,,,,,,,,,,,,,,0,0,0,2,1,,,,,,,,,,,,,,,,,,,,,,,,,,,,,,,,,,,,,,,,,,,,,,
195310,001,2022-11-21_01h57.21.831,Info_measure_main_exp,2022.2.2,Win32,60.13229104,,,,,,,,,,,,,,,,,,masks/mask_004.jpg,,,,,,,,,,,,,,,,,,,,,,,,,,,,,,,,,,,,,,,,,,,0,1,1,3,1,,,,,,,,,,,,,,,,,,,,,,,,,,,,,,,,,,,,,,,,,,,,,,
195310,001,2022-11-21_01h57.21.831,Info_measure_main_exp,2022.2.2,Win32,60.13229104,,,,,,,,,,,,,,,,,,masks/mask_005.jpg,,,,,,,,,,,,,,,,,,,,,,,,,,,,,,,,,,,,,,,,,,,0,2,2,4,1,,,,,,,,,,,,,,,,,,,,,,,,,,,,,,,,,,,,,,,,,,,,,,
195310,001,2022-11-21_01h57.21.831,Info_measure_main_exp,2022.2.2,Win32,60.13229104,,,,,,,,,,,,,,,,,,masks/mask_001.jpg,,,,,,,,,,,,,,,,,,,,,,,,,,,,,,,,,,,,,,,,,,,0,3,3,0,1,,,,,,,,,,,,,,,,,,,,,,,,,,,,,,,,,,,,,,,,,,,,,,
195310,001,2022-11-21_01h57.21.831,Info_measure_main_exp,2022.2.2,Win32,60.13229104,,,,,,,,,,,,,,,,,,masks/mask_002.jpg,,,,,,,,,,,,,,,,,,,,,,,,,,,,,,,,,,,,,,,,,,,0,4,4,1,1,,,,,,,,,,,,,,,,,,,,,,,,,,,,,,,,,,,,,,,,,,,,,,
195310,001,2022-11-21_01h57.21.831,Info_measure_main_exp,2022.2.2,Win32,60.13229104,,,,,,,,,,,,,,,,,,masks/mask_002.jpg,,,,,,,,,,,,,,,,,,,,,,,,,,,,,,,,,,,,,,,,,,,,,,,,0,0,0,1,1,,,,,,,,,,,,,,,,,,,,,,,,,,,,,,,,,,,,,,,,,
195310,001,2022-11-21_01h57.21.831,Info_measure_main_exp,2022.2.2,Win32,60.13229104,,,,,,,,,,,,,,,,,,masks/mask_001.jpg,,,,,,,,,,,,,,,,,,,,,,,,,,,,,,,,,,,,,,,,,,,,,,,,0,1,1,0,1,,,,,,,,,,,,,,,,,,,,,,,,,,,,,,,,,,,,,,,,,
195310,001,2022-11-21_01h57.21.831,Info_measure_main_exp,2022.2.2,Win32,60.13229104,,,,,,,,,,,,,,,,,,masks/mask_005.jpg,,,,,,,,,,,,,,,,,,,,,,,,,,,,,,,,,,,,,,,,,,,,,,,,0,2,2,4,1,,,,,,,,,,,,,,,,,,,,,,,,,,,,,,,,,,,,,,,,,
195310,001,2022-11-21_01h57.21.831,Info_measure_main_exp,2022.2.2,Win32,60.13229104,,,,,,,,,,,,,,,,,,masks/mask_003.jpg,,,,,,,,,,,,,,,,,,,,,,,,,,,,,,,,,,,,,,,,,,,,,,,,0,3,3,2,1,,,,,,,,,,,,,,,,,,,,,,,,,,,,,,,,,,,,,,,,,
195310,001,2022-11-21_01h57.21.831,Info_measure_main_exp,2022.2.2,Win32,60.13229104,,,,,,,,,,,,,,,,,,masks/mask_004.jpg,,,,,,,,,,,,,,,,,,,,,,,,,,,,,,,,,,,,,,,,,,,,,,,,0,4,4,3,1,,,,,,,,,,,,,,,,,,,,,,,,,,,,,,,,,,,,,,,,,
195310,001,2022-11-21_01h57.21.831,Info_measure_main_exp,2022.2.2,Win32,60.13229104,,,,,,,,,,,,,,,,,,,,,,,,,,,,,,4,2.6532,1,,,,,,,,,,,,0,131,5,5,2298,2178,absent_patch/patch0002298.jpg,absent_patch/patch0002178.jpg,,,,,,,,,,,,,,,,,,,,0.008333347,-0.063888903,1,0,0,response3disk,17,-0.006481453,0.005555541,1,0,0,center_square,0,16,16,84,1,,,,,,,,,,,,,,,,,,,,,,,
195310,001,2022-11-21_01h57.21.831,Info_measure_main_exp,2022.2.2,Win32,60.13229104,,,,,,,,,,,,,,,,,,masks/mask_002.jpg,,,,,,,,,,,,,,,,,,,,,,,,,,,,,,,,,,,,,,,,,,,0,0,0,1,1,,,,,,,,,,,,,,,,,,,,,,,,,,,,,,,,,,,,,,,,,,,,,,
195310,001,2022-11-21_01h57.21.831,Info_measure_main_exp,2022.2.2,Win32,60.13229104,,,,,,,,,,,,,,,,,,masks/mask_005.jpg,,,,,,,,,,,,,,,,,,,,,,,,,,,,,,,,,,,,,,,,,,,0,1,1,4,1,,,,,,,,,,,,,,,,,,,,,,,,,,,,,,,,,,,,,,,,,,,,,,
195310,001,2022-11-21_01h57.21.831,Info_measure_main_exp,2022.2.2,Win32,60.13229104,,,,,,,,,,,,,,,,,,masks/mask_004.jpg,,,,,,,,,,,,,,,,,,,,,,,,,,,,,,,,,,,,,,,,,,,0,2,2,3,1,,,,,,,,,,,,,,,,,,,,,,,,,,,,,,,,,,,,,,,,,,,,,,
195310,001,2022-11-21_01h57.21.831,Info_measure_main_exp,2022.2.2,Win32,60.13229104,,,,,,,,,,,,,,,,,,masks/mask_003.jpg,,,,,,,,,,,,,,,,,,,,,,,,,,,,,,,,,,,,,,,,,,,0,3,3,2,1,,,,,,,,,,,,,,,,,,,,,,,,,,,,,,,,,,,,,,,,,,,,,,
195310,001,2022-11-21_01h57.21.831,Info_measure_main_exp,2022.2.2,Win32,60.13229104,,,,,,,,,,,,,,,,,,masks/mask_001.jpg,,,,,,,,,,,,,,,,,,,,,,,,,,,,,,,,,,,,,,,,,,,0,4,4,0,1,,,,,,,,,,,,,,,,,,,,,,,,,,,,,,,,,,,,,,,,,,,,,,
195310,001,2022-11-21_01h57.21.831,Info_measure_main_exp,2022.2.2,Win32,60.13229104,,,,,,,,,,,,,,,,,,masks/mask_003.jpg,,,,,,,,,,,,,,,,,,,,,,,,,,,,,,,,,,,,,,,,,,,,,,,,0,0,0,2,1,,,,,,,,,,,,,,,,,,,,,,,,,,,,,,,,,,,,,,,,,
195310,001,2022-11-21_01h57.21.831,Info_measure_main_exp,2022.2.2,Win32,60.13229104,,,,,,,,,,,,,,,,,,masks/mask_002.jpg,,,,,,,,,,,,,,,,,,,,,,,,,,,,,,,,,,,,,,,,,,,,,,,,0,1,1,1,1,,,,,,,,,,,,,,,,,,,,,,,,,,,,,,,,,,,,,,,,,
195310,001,2022-11-21_01h57.21.831,Info_measure_main_exp,2022.2.2,Win32,60.13229104,,,,,,,,,,,,,,,,,,masks/mask_005.jpg,,,,,,,,,,,,,,,,,,,,,,,,,,,,,,,,,,,,,,,,,,,,,,,,0,2,2,4,1,,,,,,,,,,,,,,,,,,,,,,,,,,,,,,,,,,,,,,,,,
195310,001,2022-11-21_01h57.21.831,Info_measure_main_exp,2022.2.2,Win32,60.13229104,,,,,,,,,,,,,,,,,,masks/mask_004.jpg,,,,,,,,,,,,,,,,,,,,,,,,,,,,,,,,,,,,,,,,,,,,,,,,0,3,3,3,1,,,,,,,,,,,,,,,,,,,,,,,,,,,,,,,,,,,,,,,,,
195310,001,2022-11-21_01h57.21.831,Info_measure_main_exp,2022.2.2,Win32,60.13229104,,,,,,,,,,,,,,,,,,masks/mask_001.jpg,,,,,,,,,,,,,,,,,,,,,,,,,,,,,,,,,,,,,,,,,,,,,,,,0,4,4,0,1,,,,,,,,,,,,,,,,,,,,,,,,,,,,,,,,,,,,,,,,,
195310,001,2022-11-21_01h57.21.831,Info_measure_main_exp,2022.2.2,Win32,60.13229104,,,,,,,,,,,,,,,,,,,,,,,,,,,,,,7,1.1064,1,,,,,,,,,,,,0,131,5,5,2238,2214,absent_patch/patch0002238.jpg,absent_patch/patch0002214.jpg,,,,,,,,,,,,,,,,,,,,0.061111097,0.12962963,1,0,0,response1disk,18,0.003703718,-0.006481489,1,0,0,center_square,0,17,17,81,1,,,,,,,,,,,,,,,,,,,,,,,
195310,001,2022-11-21_01h57.21.831,Info_measure_main_exp,2022.2.2,Win32,60.13229104,,,,,,,,,,,,,,,,,,masks/mask_002.jpg,,,,,,,,,,,,,,,,,,,,,,,,,,,,,,,,,,,,,,,,,,,0,0,0,1,1,,,,,,,,,,,,,,,,,,,,,,,,,,,,,,,,,,,,,,,,,,,,,,
195310,001,2022-11-21_01h57.21.831,Info_measure_main_exp,2022.2.2,Win32,60.13229104,,,,,,,,,,,,,,,,,,masks/mask_004.jpg,,,,,,,,,,,,,,,,,,,,,,,,,,,,,,,,,,,,,,,,,,,0,1,1,3,1,,,,,,,,,,,,,,,,,,,,,,,,,,,,,,,,,,,,,,,,,,,,,,
195310,001,2022-11-21_01h57.21.831,Info_measure_main_exp,2022.2.2,Win32,60.13229104,,,,,,,,,,,,,,,,,,masks/mask_005.jpg,,,,,,,,,,,,,,,,,,,,,,,,,,,,,,,,,,,,,,,,,,,0,2,2,4,1,,,,,,,,,,,,,,,,,,,,,,,,,,,,,,,,,,,,,,,,,,,,,,
195310,001,2022-11-21_01h57.21.831,Info_measure_main_exp,2022.2.2,Win32,60.13229104,,,,,,,,,,,,,,,,,,masks/mask_003.jpg,,,,,,,,,,,,,,,,,,,,,,,,,,,,,,,,,,,,,,,,,,,0,3,3,2,1,,,,,,,,,,,,,,,,,,,,,,,,,,,,,,,,,,,,,,,,,,,,,,
195310,001,2022-11-21_01h57.21.831,Info_measure_main_exp,2022.2.2,Win32,60.13229104,,,,,,,,,,,,,,,,,,masks/mask_001.jpg,,,,,,,,,,,,,,,,,,,,,,,,,,,,,,,,,,,,,,,,,,,0,4,4,0,1,,,,,,,,,,,,,,,,,,,,,,,,,,,,,,,,,,,,,,,,,,,,,,
195310,001,2022-11-21_01h57.21.831,Info_measure_main_exp,2022.2.2,Win32,60.13229104,,,,,,,,,,,,,,,,,,masks/mask_001.jpg,,,,,,,,,,,,,,,,,,,,,,,,,,,,,,,,,,,,,,,,,,,,,,,,0,0,0,0,1,,,,,,,,,,,,,,,,,,,,,,,,,,,,,,,,,,,,,,,,,
195310,001,2022-11-21_01h57.21.831,Info_measure_main_exp,2022.2.2,Win32,60.13229104,,,,,,,,,,,,,,,,,,masks/mask_002.jpg,,,,,,,,,,,,,,,,,,,,,,,,,,,,,,,,,,,,,,,,,,,,,,,,0,1,1,1,1,,,,,,,,,,,,,,,,,,,,,,,,,,,,,,,,,,,,,,,,,
195310,001,2022-11-21_01h57.21.831,Info_measure_main_exp,2022.2.2,Win32,60.13229104,,,,,,,,,,,,,,,,,,masks/mask_003.jpg,,,,,,,,,,,,,,,,,,,,,,,,,,,,,,,,,,,,,,,,,,,,,,,,0,2,2,2,1,,,,,,,,,,,,,,,,,,,,,,,,,,,,,,,,,,,,,,,,,
195310,001,2022-11-21_01h57.21.831,Info_measure_main_exp,2022.2.2,Win32,60.13229104,,,,,,,,,,,,,,,,,,masks/mask_004.jpg,,,,,,,,,,,,,,,,,,,,,,,,,,,,,,,,,,,,,,,,,,,,,,,,0,3,3,3,1,,,,,,,,,,,,,,,,,,,,,,,,,,,,,,,,,,,,,,,,,
195310,001,2022-11-21_01h57.21.831,Info_measure_main_exp,2022.2.2,Win32,60.13229104,,,,,,,,,,,,,,,,,,masks/mask_005.jpg,,,,,,,,,,,,,,,,,,,,,,,,,,,,,,,,,,,,,,,,,,,,,,,,0,4,4,4,1,,,,,,,,,,,,,,,,,,,,,,,,,,,,,,,,,,,,,,,,,
195310,001,2022-11-21_01h57.21.831,Info_measure_main_exp,2022.2.2,Win32,60.13229104,,,,,,,,,,,,,,,,,,,,,,,,,,,,,,7,1.1491,1,,,,,,,,,,,,1,131,5,5,1,2178,present_patch/cong_131_5_a.jpg,absent_patch/patch0002178.jpg,,,,,,,,,,,,,,,,,,,,0.060185185,0.110185164,1,0,0,response1disk,19,-0.00462963,-0.001851859,1,0,0,center_square,0,18,18,40,1,,,,,,,,,,,,,,,,,,,,,,,
195310,001,2022-11-21_01h57.21.831,Info_measure_main_exp,2022.2.2,Win32,60.13229104,,,,,,,,,,,,,,,,,,masks/mask_001.jpg,,,,,,,,,,,,,,,,,,,,,,,,,,,,,,,,,,,,,,,,,,,0,0,0,0,1,,,,,,,,,,,,,,,,,,,,,,,,,,,,,,,,,,,,,,,,,,,,,,
195310,001,2022-11-21_01h57.21.831,Info_measure_main_exp,2022.2.2,Win32,60.13229104,,,,,,,,,,,,,,,,,,masks/mask_005.jpg,,,,,,,,,,,,,,,,,,,,,,,,,,,,,,,,,,,,,,,,,,,0,1,1,4,1,,,,,,,,,,,,,,,,,,,,,,,,,,,,,,,,,,,,,,,,,,,,,,
195310,001,2022-11-21_01h57.21.831,Info_measure_main_exp,2022.2.2,Win32,60.13229104,,,,,,,,,,,,,,,,,,masks/mask_004.jpg,,,,,,,,,,,,,,,,,,,,,,,,,,,,,,,,,,,,,,,,,,,0,2,2,3,1,,,,,,,,,,,,,,,,,,,,,,,,,,,,,,,,,,,,,,,,,,,,,,
195310,001,2022-11-21_01h57.21.831,Info_measure_main_exp,2022.2.2,Win32,60.13229104,,,,,,,,,,,,,,,,,,masks/mask_003.jpg,,,,,,,,,,,,,,,,,,,,,,,,,,,,,,,,,,,,,,,,,,,0,3,3,2,1,,,,,,,,,,,,,,,,,,,,,,,,,,,,,,,,,,,,,,,,,,,,,,
195310,001,2022-11-21_01h57.21.831,Info_measure_main_exp,2022.2.2,Win32,60.13229104,,,,,,,,,,,,,,,,,,masks/mask_002.jpg,,,,,,,,,,,,,,,,,,,,,,,,,,,,,,,,,,,,,,,,,,,0,4,4,1,1,,,,,,,,,,,,,,,,,,,,,,,,,,,,,,,,,,,,,,,,,,,,,,
195310,001,2022-11-21_01h57.21.831,Info_measure_main_exp,2022.2.2,Win32,60.13229104,,,,,,,,,,,,,,,,,,masks/mask_002.jpg,,,,,,,,,,,,,,,,,,,,,,,,,,,,,,,,,,,,,,,,,,,,,,,,0,0,0,1,1,,,,,,,,,,,,,,,,,,,,,,,,,,,,,,,,,,,,,,,,,
195310,001,2022-11-21_01h57.21.831,Info_measure_main_exp,2022.2.2,Win32,60.13229104,,,,,,,,,,,,,,,,,,masks/mask_001.jpg,,,,,,,,,,,,,,,,,,,,,,,,,,,,,,,,,,,,,,,,,,,,,,,,0,1,1,0,1,,,,,,,,,,,,,,,,,,,,,,,,,,,,,,,,,,,,,,,,,
195310,001,2022-11-21_01h57.21.831,Info_measure_main_exp,2022.2.2,Win32,60.13229104,,,,,,,,,,,,,,,,,,masks/mask_005.jpg,,,,,,,,,,,,,,,,,,,,,,,,,,,,,,,,,,,,,,,,,,,,,,,,0,2,2,4,1,,,,,,,,,,,,,,,,,,,,,,,,,,,,,,,,,,,,,,,,,
195310,001,2022-11-21_01h57.21.831,Info_measure_main_exp,2022.2.2,Win32,60.13229104,,,,,,,,,,,,,,,,,,masks/mask_004.jpg,,,,,,,,,,,,,,,,,,,,,,,,,,,,,,,,,,,,,,,,,,,,,,,,0,3,3,3,1,,,,,,,,,,,,,,,,,,,,,,,,,,,,,,,,,,,,,,,,,
195310,001,2022-11-21_01h57.21.831,Info_measure_main_exp,2022.2.2,Win32,60.13229104,,,,,,,,,,,,,,,,,,masks/mask_003.jpg,,,,,,,,,,,,,,,,,,,,,,,,,,,,,,,,,,,,,,,,,,,,,,,,0,4,4,2,1,,,,,,,,,,,,,,,,,,,,,,,,,,,,,,,,,,,,,,,,,
195310,001,2022-11-21_01h57.21.831,Info_measure_main_exp,2022.2.2,Win32,60.13229104,,,,,,,,,,,,,,,,,,,,,,,,,,,,,,7,1.7489,1,,,,,,,,,,,,0,131,5,5,1986,2142,absent_patch/patch0001986.jpg,absent_patch/patch0002142.jpg,,,,,,,,,,,,,,,,,,,,0.029629672,0.095370363,1,0,0,response1disk,20,-0.006481453,-0.001851859,1,0,0,center_square,0,19,19,76,1,,,,,,,,,,,,,,,,,,,,,,,
195310,001,2022-11-21_01h57.21.831,Info_measure_main_exp,2022.2.2,Win32,60.13229104,,,,,,,,,,,,,,,,,,masks/mask_004.jpg,,,,,,,,,,,,,,,,,,,,,,,,,,,,,,,,,,,,,,,,,,,0,0,0,3,1,,,,,,,,,,,,,,,,,,,,,,,,,,,,,,,,,,,,,,,,,,,,,,
195310,001,2022-11-21_01h57.21.831,Info_measure_main_exp,2022.2.2,Win32,60.13229104,,,,,,,,,,,,,,,,,,masks/mask_002.jpg,,,,,,,,,,,,,,,,,,,,,,,,,,,,,,,,,,,,,,,,,,,0,1,1,1,1,,,,,,,,,,,,,,,,,,,,,,,,,,,,,,,,,,,,,,,,,,,,,,
195310,001,2022-11-21_01h57.21.831,Info_measure_main_exp,2022.2.2,Win32,60.13229104,,,,,,,,,,,,,,,,,,masks/mask_005.jpg,,,,,,,,,,,,,,,,,,,,,,,,,,,,,,,,,,,,,,,,,,,0,2,2,4,1,,,,,,,,,,,,,,,,,,,,,,,,,,,,,,,,,,,,,,,,,,,,,,
195310,001,2022-11-21_01h57.21.831,Info_measure_main_exp,2022.2.2,Win32,60.13229104,,,,,,,,,,,,,,,,,,masks/mask_001.jpg,,,,,,,,,,,,,,,,,,,,,,,,,,,,,,,,,,,,,,,,,,,0,3,3,0,1,,,,,,,,,,,,,,,,,,,,,,,,,,,,,,,,,,,,,,,,,,,,,,
195310,001,2022-11-21_01h57.21.831,Info_measure_main_exp,2022.2.2,Win32,60.13229104,,,,,,,,,,,,,,,,,,masks/mask_003.jpg,,,,,,,,,,,,,,,,,,,,,,,,,,,,,,,,,,,,,,,,,,,0,4,4,2,1,,,,,,,,,,,,,,,,,,,,,,,,,,,,,,,,,,,,,,,,,,,,,,
195310,001,2022-11-21_01h57.21.831,Info_measure_main_exp,2022.2.2,Win32,60.13229104,,,,,,,,,,,,,,,,,,masks/mask_002.jpg,,,,,,,,,,,,,,,,,,,,,,,,,,,,,,,,,,,,,,,,,,,,,,,,0,0,0,1,1,,,,,,,,,,,,,,,,,,,,,,,,,,,,,,,,,,,,,,,,,
195310,001,2022-11-21_01h57.21.831,Info_measure_main_exp,2022.2.2,Win32,60.13229104,,,,,,,,,,,,,,,,,,masks/mask_005.jpg,,,,,,,,,,,,,,,,,,,,,,,,,,,,,,,,,,,,,,,,,,,,,,,,0,1,1,4,1,,,,,,,,,,,,,,,,,,,,,,,,,,,,,,,,,,,,,,,,,
195310,001,2022-11-21_01h57.21.831,Info_measure_main_exp,2022.2.2,Win32,60.13229104,,,,,,,,,,,,,,,,,,masks/mask_001.jpg,,,,,,,,,,,,,,,,,,,,,,,,,,,,,,,,,,,,,,,,,,,,,,,,0,2,2,0,1,,,,,,,,,,,,,,,,,,,,,,,,,,,,,,,,,,,,,,,,,
195310,001,2022-11-21_01h57.21.831,Info_measure_main_exp,2022.2.2,Win32,60.13229104,,,,,,,,,,,,,,,,,,masks/mask_004.jpg,,,,,,,,,,,,,,,,,,,,,,,,,,,,,,,,,,,,,,,,,,,,,,,,0,3,3,3,1,,,,,,,,,,,,,,,,,,,,,,,,,,,,,,,,,,,,,,,,,
195310,001,2022-11-21_01h57.21.831,Info_measure_main_exp,2022.2.2,Win32,60.13229104,,,,,,,,,,,,,,,,,,masks/mask_003.jpg,,,,,,,,,,,,,,,,,,,,,,,,,,,,,,,,,,,,,,,,,,,,,,,,0,4,4,2,1,,,,,,,,,,,,,,,,,,,,,,,,,,,,,,,,,,,,,,,,,
195310,001,2022-11-21_01h57.21.831,Info_measure_main_exp,2022.2.2,Win32,60.13229104,,,,,,,,,,,,,,,,,,,,,,,,,,,,,,7,0.9897,1,,,,,,,,,,,,0,131,5,5,2298,1986,absent_patch/patch0002298.jpg,absent_patch/patch0001986.jpg,,,,,,,,,,,,,,,,,,,,0.09629631,0.169444437,1,0,0,response1disk,21,-0.001851824,-0.00462963,1,0,0,center_square,0,20,20,32,1,,,,,,,,,,,,,,,,,,,,,,,
195310,001,2022-11-21_01h57.21.831,Info_measure_main_exp,2022.2.2,Win32,60.13229104,,,,,,,,,,,,,,,,,,masks/mask_003.jpg,,,,,,,,,,,,,,,,,,,,,,,,,,,,,,,,,,,,,,,,,,,0,0,0,2,1,,,,,,,,,,,,,,,,,,,,,,,,,,,,,,,,,,,,,,,,,,,,,,
195310,001,2022-11-21_01h57.21.831,Info_measure_main_exp,2022.2.2,Win32,60.13229104,,,,,,,,,,,,,,,,,,masks/mask_005.jpg,,,,,,,,,,,,,,,,,,,,,,,,,,,,,,,,,,,,,,,,,,,0,1,1,4,1,,,,,,,,,,,,,,,,,,,,,,,,,,,,,,,,,,,,,,,,,,,,,,
195310,001,2022-11-21_01h57.21.831,Info_measure_main_exp,2022.2.2,Win32,60.13229104,,,,,,,,,,,,,,,,,,masks/mask_002.jpg,,,,,,,,,,,,,,,,,,,,,,,,,,,,,,,,,,,,,,,,,,,0,2,2,1,1,,,,,,,,,,,,,,,,,,,,,,,,,,,,,,,,,,,,,,,,,,,,,,
195310,001,2022-11-21_01h57.21.831,Info_measure_main_exp,2022.2.2,Win32,60.13229104,,,,,,,,,,,,,,,,,,masks/mask_004.jpg,,,,,,,,,,,,,,,,,,,,,,,,,,,,,,,,,,,,,,,,,,,0,3,3,3,1,,,,,,,,,,,,,,,,,,,,,,,,,,,,,,,,,,,,,,,,,,,,,,
195310,001,2022-11-21_01h57.21.831,Info_measure_main_exp,2022.2.2,Win32,60.13229104,,,,,,,,,,,,,,,,,,masks/mask_001.jpg,,,,,,,,,,,,,,,,,,,,,,,,,,,,,,,,,,,,,,,,,,,0,4,4,0,1,,,,,,,,,,,,,,,,,,,,,,,,,,,,,,,,,,,,,,,,,,,,,,
195310,001,2022-11-21_01h57.21.831,Info_measure_main_exp,2022.2.2,Win32,60.13229104,,,,,,,,,,,,,,,,,,masks/mask_005.jpg,,,,,,,,,,,,,,,,,,,,,,,,,,,,,,,,,,,,,,,,,,,,,,,,0,0,0,4,1,,,,,,,,,,,,,,,,,,,,,,,,,,,,,,,,,,,,,,,,,
195310,001,2022-11-21_01h57.21.831,Info_measure_main_exp,2022.2.2,Win32,60.13229104,,,,,,,,,,,,,,,,,,masks/mask_001.jpg,,,,,,,,,,,,,,,,,,,,,,,,,,,,,,,,,,,,,,,,,,,,,,,,0,1,1,0,1,,,,,,,,,,,,,,,,,,,,,,,,,,,,,,,,,,,,,,,,,
195310,001,2022-11-21_01h57.21.831,Info_measure_main_exp,2022.2.2,Win32,60.13229104,,,,,,,,,,,,,,,,,,masks/mask_004.jpg,,,,,,,,,,,,,,,,,,,,,,,,,,,,,,,,,,,,,,,,,,,,,,,,0,2,2,3,1,,,,,,,,,,,,,,,,,,,,,,,,,,,,,,,,,,,,,,,,,
195310,001,2022-11-21_01h57.21.831,Info_measure_main_exp,2022.2.2,Win32,60.13229104,,,,,,,,,,,,,,,,,,masks/mask_002.jpg,,,,,,,,,,,,,,,,,,,,,,,,,,,,,,,,,,,,,,,,,,,,,,,,0,3,3,1,1,,,,,,,,,,,,,,,,,,,,,,,,,,,,,,,,,,,,,,,,,
195310,001,2022-11-21_01h57.21.831,Info_measure_main_exp,2022.2.2,Win32,60.13229104,,,,,,,,,,,,,,,,,,masks/mask_003.jpg,,,,,,,,,,,,,,,,,,,,,,,,,,,,,,,,,,,,,,,,,,,,,,,,0,4,4,2,1,,,,,,,,,,,,,,,,,,,,,,,,,,,,,,,,,,,,,,,,,
195310,001,2022-11-21_01h57.21.831,Info_measure_main_exp,2022.2.2,Win32,60.13229104,,,,,,,,,,,,,,,,,,,,,,,,,,,,,,5,4.8818,1,,,,,,,,,,,,0,131,5,5,2298,2190,absent_patch/patch0002298.jpg,absent_patch/patch0002190.jpg,,,,,,,,,,,,,,,,,,,,0.055555556,-0.048148155,1,0,0,response3disk,22,0.000925912,0,1,0,0,center_square,0,21,21,20,1,,,,,,,,,,,,,,,,,,,,,,,
195310,001,2022-11-21_01h57.21.831,Info_measure_main_exp,2022.2.2,Win32,60.13229104,,,,,,,,,,,,,,,,,,masks/mask_003.jpg,,,,,,,,,,,,,,,,,,,,,,,,,,,,,,,,,,,,,,,,,,,0,0,0,2,1,,,,,,,,,,,,,,,,,,,,,,,,,,,,,,,,,,,,,,,,,,,,,,
195310,001,2022-11-21_01h57.21.831,Info_measure_main_exp,2022.2.2,Win32,60.13229104,,,,,,,,,,,,,,,,,,masks/mask_001.jpg,,,,,,,,,,,,,,,,,,,,,,,,,,,,,,,,,,,,,,,,,,,0,1,1,0,1,,,,,,,,,,,,,,,,,,,,,,,,,,,,,,,,,,,,,,,,,,,,,,
195310,001,2022-11-21_01h57.21.831,Info_measure_main_exp,2022.2.2,Win32,60.13229104,,,,,,,,,,,,,,,,,,masks/mask_005.jpg,,,,,,,,,,,,,,,,,,,,,,,,,,,,,,,,,,,,,,,,,,,0,2,2,4,1,,,,,,,,,,,,,,,,,,,,,,,,,,,,,,,,,,,,,,,,,,,,,,
195310,001,2022-11-21_01h57.21.831,Info_measure_main_exp,2022.2.2,Win32,60.13229104,,,,,,,,,,,,,,,,,,masks/mask_002.jpg,,,,,,,,,,,,,,,,,,,,,,,,,,,,,,,,,,,,,,,,,,,0,3,3,1,1,,,,,,,,,,,,,,,,,,,,,,,,,,,,,,,,,,,,,,,,,,,,,,
195310,001,2022-11-21_01h57.21.831,Info_measure_main_exp,2022.2.2,Win32,60.13229104,,,,,,,,,,,,,,,,,,masks/mask_004.jpg,,,,,,,,,,,,,,,,,,,,,,,,,,,,,,,,,,,,,,,,,,,0,4,4,3,1,,,,,,,,,,,,,,,,,,,,,,,,,,,,,,,,,,,,,,,,,,,,,,
195310,001,2022-11-21_01h57.21.831,Info_measure_main_exp,2022.2.2,Win32,60.13229104,,,,,,,,,,,,,,,,,,masks/mask_003.jpg,,,,,,,,,,,,,,,,,,,,,,,,,,,,,,,,,,,,,,,,,,,,,,,,0,0,0,2,1,,,,,,,,,,,,,,,,,,,,,,,,,,,,,,,,,,,,,,,,,
195310,001,2022-11-21_01h57.21.831,Info_measure_main_exp,2022.2.2,Win32,60.13229104,,,,,,,,,,,,,,,,,,masks/mask_001.jpg,,,,,,,,,,,,,,,,,,,,,,,,,,,,,,,,,,,,,,,,,,,,,,,,0,1,1,0,1,,,,,,,,,,,,,,,,,,,,,,,,,,,,,,,,,,,,,,,,,
195310,001,2022-11-21_01h57.21.831,Info_measure_main_exp,2022.2.2,Win32,60.13229104,,,,,,,,,,,,,,,,,,masks/mask_002.jpg,,,,,,,,,,,,,,,,,,,,,,,,,,,,,,,,,,,,,,,,,,,,,,,,0,2,2,1,1,,,,,,,,,,,,,,,,,,,,,,,,,,,,,,,,,,,,,,,,,
195310,001,2022-11-21_01h57.21.831,Info_measure_main_exp,2022.2.2,Win32,60.13229104,,,,,,,,,,,,,,,,,,masks/mask_004.jpg,,,,,,,,,,,,,,,,,,,,,,,,,,,,,,,,,,,,,,,,,,,,,,,,0,3,3,3,1,,,,,,,,,,,,,,,,,,,,,,,,,,,,,,,,,,,,,,,,,
195310,001,2022-11-21_01h57.21.831,Info_measure_main_exp,2022.2.2,Win32,60.13229104,,,,,,,,,,,,,,,,,,masks/mask_005.jpg,,,,,,,,,,,,,,,,,,,,,,,,,,,,,,,,,,,,,,,,,,,,,,,,0,4,4,4,1,,,,,,,,,,,,,,,,,,,,,,,,,,,,,,,,,,,,,,,,,
195310,001,2022-11-21_01h57.21.831,Info_measure_main_exp,2022.2.2,Win32,60.13229104,,,,,,,,,,,,,,,,,,,,,,,,,,,,,,7,1.3142,1,,,,,,,,,,,,0,131,5,5,2082,2250,absent_patch/patch0002082.jpg,absent_patch/patch0002250.jpg,,,,,,,,,,,,,,,,,,,,0.043518561,0.089814822,1,0,0,response1disk,23,0.005555541,0.002777771,1,0,0,center_square,0,22,22,3,1,,,,,,,,,,,,,,,,,,,,,,,
195310,001,2022-11-21_01h57.21.831,Info_measure_main_exp,2022.2.2,Win32,60.13229104,,,,,,,,,,,,,,,,,,masks/mask_002.jpg,,,,,,,,,,,,,,,,,,,,,,,,,,,,,,,,,,,,,,,,,,,0,0,0,1,1,,,,,,,,,,,,,,,,,,,,,,,,,,,,,,,,,,,,,,,,,,,,,,
195310,001,2022-11-21_01h57.21.831,Info_measure_main_exp,2022.2.2,Win32,60.13229104,,,,,,,,,,,,,,,,,,masks/mask_001.jpg,,,,,,,,,,,,,,,,,,,,,,,,,,,,,,,,,,,,,,,,,,,0,1,1,0,1,,,,,,,,,,,,,,,,,,,,,,,,,,,,,,,,,,,,,,,,,,,,,,
195310,001,2022-11-21_01h57.21.831,Info_measure_main_exp,2022.2.2,Win32,60.13229104,,,,,,,,,,,,,,,,,,masks/mask_004.jpg,,,,,,,,,,,,,,,,,,,,,,,,,,,,,,,,,,,,,,,,,,,0,2,2,3,1,,,,,,,,,,,,,,,,,,,,,,,,,,,,,,,,,,,,,,,,,,,,,,
195310,001,2022-11-21_01h57.21.831,Info_measure_main_exp,2022.2.2,Win32,60.13229104,,,,,,,,,,,,,,,,,,masks/mask_003.jpg,,,,,,,,,,,,,,,,,,,,,,,,,,,,,,,,,,,,,,,,,,,0,3,3,2,1,,,,,,,,,,,,,,,,,,,,,,,,,,,,,,,,,,,,,,,,,,,,,,
195310,001,2022-11-21_01h57.21.831,Info_measure_main_exp,2022.2.2,Win32,60.13229104,,,,,,,,,,,,,,,,,,masks/mask_005.jpg,,,,,,,,,,,,,,,,,,,,,,,,,,,,,,,,,,,,,,,,,,,0,4,4,4,1,,,,,,,,,,,,,,,,,,,,,,,,,,,,,,,,,,,,,,,,,,,,,,
195310,001,2022-11-21_01h57.21.831,Info_measure_main_exp,2022.2.2,Win32,60.13229104,,,,,,,,,,,,,,,,,,masks/mask_002.jpg,,,,,,,,,,,,,,,,,,,,,,,,,,,,,,,,,,,,,,,,,,,,,,,,0,0,0,1,1,,,,,,,,,,,,,,,,,,,,,,,,,,,,,,,,,,,,,,,,,
195310,001,2022-11-21_01h57.21.831,Info_measure_main_exp,2022.2.2,Win32,60.13229104,,,,,,,,,,,,,,,,,,masks/mask_004.jpg,,,,,,,,,,,,,,,,,,,,,,,,,,,,,,,,,,,,,,,,,,,,,,,,0,1,1,3,1,,,,,,,,,,,,,,,,,,,,,,,,,,,,,,,,,,,,,,,,,
195310,001,2022-11-21_01h57.21.831,Info_measure_main_exp,2022.2.2,Win32,60.13229104,,,,,,,,,,,,,,,,,,masks/mask_005.jpg,,,,,,,,,,,,,,,,,,,,,,,,,,,,,,,,,,,,,,,,,,,,,,,,0,2,2,4,1,,,,,,,,,,,,,,,,,,,,,,,,,,,,,,,,,,,,,,,,,
195310,001,2022-11-21_01h57.21.831,Info_measure_main_exp,2022.2.2,Win32,60.13229104,,,,,,,,,,,,,,,,,,masks/mask_001.jpg,,,,,,,,,,,,,,,,,,,,,,,,,,,,,,,,,,,,,,,,,,,,,,,,0,3,3,0,1,,,,,,,,,,,,,,,,,,,,,,,,,,,,,,,,,,,,,,,,,
195310,001,2022-11-21_01h57.21.831,Info_measure_main_exp,2022.2.2,Win32,60.13229104,,,,,,,,,,,,,,,,,,masks/mask_003.jpg,,,,,,,,,,,,,,,,,,,,,,,,,,,,,,,,,,,,,,,,,,,,,,,,0,4,4,2,1,,,,,,,,,,,,,,,,,,,,,,,,,,,,,,,,,,,,,,,,,
195310,001,2022-11-21_01h57.21.831,Info_measure_main_exp,2022.2.2,Win32,60.13229104,,,,,,,,,,,,,,,,,,,,,,,,,,,,,,7,0.8661,1,,,,,,,,,,,,0,131,5,5,2250,2298,absent_patch/patch0002250.jpg,absent_patch/patch0002298.jpg,,,,,,,,,,,,,,,,,,,,0.031481496,0.076851845,1,0,0,response1disk,24,0.001851894,-0.003703718,1,0,0,center_square,0,23,23,59,1,,,,,,,,,,,,,,,,,,,,,,,
195310,001,2022-11-21_01h57.21.831,Info_measure_main_exp,2022.2.2,Win32,60.13229104,,,,,,,,,,,,,,,,,,masks/mask_001.jpg,,,,,,,,,,,,,,,,,,,,,,,,,,,,,,,,,,,,,,,,,,,0,0,0,0,1,,,,,,,,,,,,,,,,,,,,,,,,,,,,,,,,,,,,,,,,,,,,,,
195310,001,2022-11-21_01h57.21.831,Info_measure_main_exp,2022.2.2,Win32,60.13229104,,,,,,,,,,,,,,,,,,masks/mask_003.jpg,,,,,,,,,,,,,,,,,,,,,,,,,,,,,,,,,,,,,,,,,,,0,1,1,2,1,,,,,,,,,,,,,,,,,,,,,,,,,,,,,,,,,,,,,,,,,,,,,,
195310,001,2022-11-21_01h57.21.831,Info_measure_main_exp,2022.2.2,Win32,60.13229104,,,,,,,,,,,,,,,,,,masks/mask_004.jpg,,,,,,,,,,,,,,,,,,,,,,,,,,,,,,,,,,,,,,,,,,,0,2,2,3,1,,,,,,,,,,,,,,,,,,,,,,,,,,,,,,,,,,,,,,,,,,,,,,
195310,001,2022-11-21_01h57.21.831,Info_measure_main_exp,2022.2.2,Win32,60.13229104,,,,,,,,,,,,,,,,,,masks/mask_005.jpg,,,,,,,,,,,,,,,,,,,,,,,,,,,,,,,,,,,,,,,,,,,0,3,3,4,1,,,,,,,,,,,,,,,,,,,,,,,,,,,,,,,,,,,,,,,,,,,,,,
195310,001,2022-11-21_01h57.21.831,Info_measure_main_exp,2022.2.2,Win32,60.13229104,,,,,,,,,,,,,,,,,,masks/mask_002.jpg,,,,,,,,,,,,,,,,,,,,,,,,,,,,,,,,,,,,,,,,,,,0,4,4,1,1,,,,,,,,,,,,,,,,,,,,,,,,,,,,,,,,,,,,,,,,,,,,,,
195310,001,2022-11-21_01h57.21.831,Info_measure_main_exp,2022.2.2,Win32,60.13229104,,,,,,,,,,,,,,,,,,masks/mask_002.jpg,,,,,,,,,,,,,,,,,,,,,,,,,,,,,,,,,,,,,,,,,,,,,,,,0,0,0,1,1,,,,,,,,,,,,,,,,,,,,,,,,,,,,,,,,,,,,,,,,,
195310,001,2022-11-21_01h57.21.831,Info_measure_main_exp,2022.2.2,Win32,60.13229104,,,,,,,,,,,,,,,,,,masks/mask_004.jpg,,,,,,,,,,,,,,,,,,,,,,,,,,,,,,,,,,,,,,,,,,,,,,,,0,1,1,3,1,,,,,,,,,,,,,,,,,,,,,,,,,,,,,,,,,,,,,,,,,
195310,001,2022-11-21_01h57.21.831,Info_measure_main_exp,2022.2.2,Win32,60.13229104,,,,,,,,,,,,,,,,,,masks/mask_001.jpg,,,,,,,,,,,,,,,,,,,,,,,,,,,,,,,,,,,,,,,,,,,,,,,,0,2,2,0,1,,,,,,,,,,,,,,,,,,,,,,,,,,,,,,,,,,,,,,,,,
195310,001,2022-11-21_01h57.21.831,Info_measure_main_exp,2022.2.2,Win32,60.13229104,,,,,,,,,,,,,,,,,,masks/mask_005.jpg,,,,,,,,,,,,,,,,,,,,,,,,,,,,,,,,,,,,,,,,,,,,,,,,0,3,3,4,1,,,,,,,,,,,,,,,,,,,,,,,,,,,,,,,,,,,,,,,,,
195310,001,2022-11-21_01h57.21.831,Info_measure_main_exp,2022.2.2,Win32,60.13229104,,,,,,,,,,,,,,,,,,masks/mask_003.jpg,,,,,,,,,,,,,,,,,,,,,,,,,,,,,,,,,,,,,,,,,,,,,,,,0,4,4,2,1,,,,,,,,,,,,,,,,,,,,,,,,,,,,,,,,,,,,,,,,,
195310,001,2022-11-21_01h57.21.831,Info_measure_main_exp,2022.2.2,Win32,60.13229104,,,,,,,,,,,,,,,,,,,,,,,,,,,,,,7,1.9389,1,,,,,,,,,,,,0,131,5,5,2274,2250,absent_patch/patch0002274.jpg,absent_patch/patch0002250.jpg,,,,,,,,,,,,,,,,,,,,0.029629672,0.089814822,1,0,0,response1disk,25,-0.006481453,0.010185171,1,0,0,center_square,0,24,24,28,1,,,,,,,,,,,,,,,,,,,,,,,
195310,001,2022-11-21_01h57.21.831,Info_measure_main_exp,2022.2.2,Win32,60.13229104,,,,,,,,,,,,,,,,,,masks/mask_002.jpg,,,,,,,,,,,,,,,,,,,,,,,,,,,,,,,,,,,,,,,,,,,0,0,0,1,1,,,,,,,,,,,,,,,,,,,,,,,,,,,,,,,,,,,,,,,,,,,,,,
195310,001,2022-11-21_01h57.21.831,Info_measure_main_exp,2022.2.2,Win32,60.13229104,,,,,,,,,,,,,,,,,,masks/mask_004.jpg,,,,,,,,,,,,,,,,,,,,,,,,,,,,,,,,,,,,,,,,,,,0,1,1,3,1,,,,,,,,,,,,,,,,,,,,,,,,,,,,,,,,,,,,,,,,,,,,,,
195310,001,2022-11-21_01h57.21.831,Info_measure_main_exp,2022.2.2,Win32,60.13229104,,,,,,,,,,,,,,,,,,masks/mask_003.jpg,,,,,,,,,,,,,,,,,,,,,,,,,,,,,,,,,,,,,,,,,,,0,2,2,2,1,,,,,,,,,,,,,,,,,,,,,,,,,,,,,,,,,,,,,,,,,,,,,,
195310,001,2022-11-21_01h57.21.831,Info_measure_main_exp,2022.2.2,Win32,60.13229104,,,,,,,,,,,,,,,,,,masks/mask_005.jpg,,,,,,,,,,,,,,,,,,,,,,,,,,,,,,,,,,,,,,,,,,,0,3,3,4,1,,,,,,,,,,,,,,,,,,,,,,,,,,,,,,,,,,,,,,,,,,,,,,
195310,001,2022-11-21_01h57.21.831,Info_measure_main_exp,2022.2.2,Win32,60.13229104,,,,,,,,,,,,,,,,,,masks/mask_001.jpg,,,,,,,,,,,,,,,,,,,,,,,,,,,,,,,,,,,,,,,,,,,0,4,4,0,1,,,,,,,,,,,,,,,,,,,,,,,,,,,,,,,,,,,,,,,,,,,,,,
195310,001,2022-11-21_01h57.21.831,Info_measure_main_exp,2022.2.2,Win32,60.13229104,,,,,,,,,,,,,,,,,,masks/mask_002.jpg,,,,,,,,,,,,,,,,,,,,,,,,,,,,,,,,,,,,,,,,,,,,,,,,0,0,0,1,1,,,,,,,,,,,,,,,,,,,,,,,,,,,,,,,,,,,,,,,,,
195310,001,2022-11-21_01h57.21.831,Info_measure_main_exp,2022.2.2,Win32,60.13229104,,,,,,,,,,,,,,,,,,masks/mask_003.jpg,,,,,,,,,,,,,,,,,,,,,,,,,,,,,,,,,,,,,,,,,,,,,,,,0,1,1,2,1,,,,,,,,,,,,,,,,,,,,,,,,,,,,,,,,,,,,,,,,,
195310,001,2022-11-21_01h57.21.831,Info_measure_main_exp,2022.2.2,Win32,60.13229104,,,,,,,,,,,,,,,,,,masks/mask_004.jpg,,,,,,,,,,,,,,,,,,,,,,,,,,,,,,,,,,,,,,,,,,,,,,,,0,2,2,3,1,,,,,,,,,,,,,,,,,,,,,,,,,,,,,,,,,,,,,,,,,
195310,001,2022-11-21_01h57.21.831,Info_measure_main_exp,2022.2.2,Win32,60.13229104,,,,,,,,,,,,,,,,,,masks/mask_001.jpg,,,,,,,,,,,,,,,,,,,,,,,,,,,,,,,,,,,,,,,,,,,,,,,,0,3,3,0,1,,,,,,,,,,,,,,,,,,,,,,,,,,,,,,,,,,,,,,,,,
195310,001,2022-11-21_01h57.21.831,Info_measure_main_exp,2022.2.2,Win32,60.13229104,,,,,,,,,,,,,,,,,,masks/mask_005.jpg,,,,,,,,,,,,,,,,,,,,,,,,,,,,,,,,,,,,,,,,,,,,,,,,0,4,4,4,1,,,,,,,,,,,,,,,,,,,,,,,,,,,,,,,,,,,,,,,,,
195310,001,2022-11-21_01h57.21.831,Info_measure_main_exp,2022.2.2,Win32,60.13229104,,,,,,,,,,,,,,,,,,,,,,,,,,,,,,0,1.492,1,,,,,,,,,,,,0,131,5,5,2082,2082,absent_patch/patch0002082.jpg,absent_patch/patch0002082.jpg,,,,,,,,,,,,,,,,,,,,-0.023148148,0.127777771,1,0,0,response7disk,26,-0.006481453,0.00462963,1,0,0,center_square,0,25,25,74,1,,,,,,,,,,,,,,,,,,,,,,,
195310,001,2022-11-21_01h57.21.831,Info_measure_main_exp,2022.2.2,Win32,60.13229104,,,,,,,,,,,,,,,,,,masks/mask_003.jpg,,,,,,,,,,,,,,,,,,,,,,,,,,,,,,,,,,,,,,,,,,,0,0,0,2,1,,,,,,,,,,,,,,,,,,,,,,,,,,,,,,,,,,,,,,,,,,,,,,
195310,001,2022-11-21_01h57.21.831,Info_measure_main_exp,2022.2.2,Win32,60.13229104,,,,,,,,,,,,,,,,,,masks/mask_001.jpg,,,,,,,,,,,,,,,,,,,,,,,,,,,,,,,,,,,,,,,,,,,0,1,1,0,1,,,,,,,,,,,,,,,,,,,,,,,,,,,,,,,,,,,,,,,,,,,,,,
195310,001,2022-11-21_01h57.21.831,Info_measure_main_exp,2022.2.2,Win32,60.13229104,,,,,,,,,,,,,,,,,,masks/mask_005.jpg,,,,,,,,,,,,,,,,,,,,,,,,,,,,,,,,,,,,,,,,,,,0,2,2,4,1,,,,,,,,,,,,,,,,,,,,,,,,,,,,,,,,,,,,,,,,,,,,,,
195310,001,2022-11-21_01h57.21.831,Info_measure_main_exp,2022.2.2,Win32,60.13229104,,,,,,,,,,,,,,,,,,masks/mask_002.jpg,,,,,,,,,,,,,,,,,,,,,,,,,,,,,,,,,,,,,,,,,,,0,3,3,1,1,,,,,,,,,,,,,,,,,,,,,,,,,,,,,,,,,,,,,,,,,,,,,,
195310,001,2022-11-21_01h57.21.831,Info_measure_main_exp,2022.2.2,Win32,60.13229104,,,,,,,,,,,,,,,,,,masks/mask_004.jpg,,,,,,,,,,,,,,,,,,,,,,,,,,,,,,,,,,,,,,,,,,,0,4,4,3,1,,,,,,,,,,,,,,,,,,,,,,,,,,,,,,,,,,,,,,,,,,,,,,
195310,001,2022-11-21_01h57.21.831,Info_measure_main_exp,2022.2.2,Win32,60.13229104,,,,,,,,,,,,,,,,,,masks/mask_004.jpg,,,,,,,,,,,,,,,,,,,,,,,,,,,,,,,,,,,,,,,,,,,,,,,,0,0,0,3,1,,,,,,,,,,,,,,,,,,,,,,,,,,,,,,,,,,,,,,,,,
195310,001,2022-11-21_01h57.21.831,Info_measure_main_exp,2022.2.2,Win32,60.13229104,,,,,,,,,,,,,,,,,,masks/mask_001.jpg,,,,,,,,,,,,,,,,,,,,,,,,,,,,,,,,,,,,,,,,,,,,,,,,0,1,1,0,1,,,,,,,,,,,,,,,,,,,,,,,,,,,,,,,,,,,,,,,,,
195310,001,2022-11-21_01h57.21.831,Info_measure_main_exp,2022.2.2,Win32,60.13229104,,,,,,,,,,,,,,,,,,masks/mask_003.jpg,,,,,,,,,,,,,,,,,,,,,,,,,,,,,,,,,,,,,,,,,,,,,,,,0,2,2,2,1,,,,,,,,,,,,,,,,,,,,,,,,,,,,,,,,,,,,,,,,,
195310,001,2022-11-21_01h57.21.831,Info_measure_main_exp,2022.2.2,Win32,60.13229104,,,,,,,,,,,,,,,,,,masks/mask_005.jpg,,,,,,,,,,,,,,,,,,,,,,,,,,,,,,,,,,,,,,,,,,,,,,,,0,3,3,4,1,,,,,,,,,,,,,,,,,,,,,,,,,,,,,,,,,,,,,,,,,
195310,001,2022-11-21_01h57.21.831,Info_measure_main_exp,2022.2.2,Win32,60.13229104,,,,,,,,,,,,,,,,,,masks/mask_002.jpg,,,,,,,,,,,,,,,,,,,,,,,,,,,,,,,,,,,,,,,,,,,,,,,,0,4,4,1,1,,,,,,,,,,,,,,,,,,,,,,,,,,,,,,,,,,,,,,,,,
195310,001,2022-11-21_01h57.21.831,Info_measure_main_exp,2022.2.2,Win32,60.13229104,,,,,,,,,,,,,,,,,,,,,,,,,,,,,,4,3.3013,1,,,,,,,,,,,,0,131,5,5,2142,2082,absent_patch/patch0002142.jpg,absent_patch/patch0002082.jpg,,,,,,,,,,,,,,,,,,,,0.049074102,-0.111111111,1,0,0,response3disk,27,0.00462963,-0.010185206,1,0,0,center_square,0,26,26,88,1,,,,,,,,,,,,,,,,,,,,,,,
195310,001,2022-11-21_01h57.21.831,Info_measure_main_exp,2022.2.2,Win32,60.13229104,,,,,,,,,,,,,,,,,,masks/mask_002.jpg,,,,,,,,,,,,,,,,,,,,,,,,,,,,,,,,,,,,,,,,,,,0,0,0,1,1,,,,,,,,,,,,,,,,,,,,,,,,,,,,,,,,,,,,,,,,,,,,,,
195310,001,2022-11-21_01h57.21.831,Info_measure_main_exp,2022.2.2,Win32,60.13229104,,,,,,,,,,,,,,,,,,masks/mask_001.jpg,,,,,,,,,,,,,,,,,,,,,,,,,,,,,,,,,,,,,,,,,,,0,1,1,0,1,,,,,,,,,,,,,,,,,,,,,,,,,,,,,,,,,,,,,,,,,,,,,,
195310,001,2022-11-21_01h57.21.831,Info_measure_main_exp,2022.2.2,Win32,60.13229104,,,,,,,,,,,,,,,,,,masks/mask_003.jpg,,,,,,,,,,,,,,,,,,,,,,,,,,,,,,,,,,,,,,,,,,,0,2,2,2,1,,,,,,,,,,,,,,,,,,,,,,,,,,,,,,,,,,,,,,,,,,,,,,
195310,001,2022-11-21_01h57.21.831,Info_measure_main_exp,2022.2.2,Win32,60.13229104,,,,,,,,,,,,,,,,,,masks/mask_004.jpg,,,,,,,,,,,,,,,,,,,,,,,,,,,,,,,,,,,,,,,,,,,0,3,3,3,1,,,,,,,,,,,,,,,,,,,,,,,,,,,,,,,,,,,,,,,,,,,,,,
195310,001,2022-11-21_01h57.21.831,Info_measure_main_exp,2022.2.2,Win32,60.13229104,,,,,,,,,,,,,,,,,,masks/mask_005.jpg,,,,,,,,,,,,,,,,,,,,,,,,,,,,,,,,,,,,,,,,,,,0,4,4,4,1,,,,,,,,,,,,,,,,,,,,,,,,,,,,,,,,,,,,,,,,,,,,,,
195310,001,2022-11-21_01h57.21.831,Info_measure_main_exp,2022.2.2,Win32,60.13229104,,,,,,,,,,,,,,,,,,masks/mask_004.jpg,,,,,,,,,,,,,,,,,,,,,,,,,,,,,,,,,,,,,,,,,,,,,,,,0,0,0,3,1,,,,,,,,,,,,,,,,,,,,,,,,,,,,,,,,,,,,,,,,,
195310,001,2022-11-21_01h57.21.831,Info_measure_main_exp,2022.2.2,Win32,60.13229104,,,,,,,,,,,,,,,,,,masks/mask_005.jpg,,,,,,,,,,,,,,,,,,,,,,,,,,,,,,,,,,,,,,,,,,,,,,,,0,1,1,4,1,,,,,,,,,,,,,,,,,,,,,,,,,,,,,,,,,,,,,,,,,
195310,001,2022-11-21_01h57.21.831,Info_measure_main_exp,2022.2.2,Win32,60.13229104,,,,,,,,,,,,,,,,,,masks/mask_003.jpg,,,,,,,,,,,,,,,,,,,,,,,,,,,,,,,,,,,,,,,,,,,,,,,,0,2,2,2,1,,,,,,,,,,,,,,,,,,,,,,,,,,,,,,,,,,,,,,,,,
195310,001,2022-11-21_01h57.21.831,Info_measure_main_exp,2022.2.2,Win32,60.13229104,,,,,,,,,,,,,,,,,,masks/mask_001.jpg,,,,,,,,,,,,,,,,,,,,,,,,,,,,,,,,,,,,,,,,,,,,,,,,0,3,3,0,1,,,,,,,,,,,,,,,,,,,,,,,,,,,,,,,,,,,,,,,,,
195310,001,2022-11-21_01h57.21.831,Info_measure_main_exp,2022.2.2,Win32,60.13229104,,,,,,,,,,,,,,,,,,masks/mask_002.jpg,,,,,,,,,,,,,,,,,,,,,,,,,,,,,,,,,,,,,,,,,,,,,,,,0,4,4,1,1,,,,,,,,,,,,,,,,,,,,,,,,,,,,,,,,,,,,,,,,,
195310,001,2022-11-21_01h57.21.831,Info_measure_main_exp,2022.2.2,Win32,60.13229104,,,,,,,,,,,,,,,,,,,,,,,,,,,,,,6,3.8513,1,,,,,,,,,,,,0,131,5,5,2214,2142,absent_patch/patch0002214.jpg,absent_patch/patch0002142.jpg,,,,,,,,,,,,,,,,,,,,0.09629631,0.071296303,1,0,0,response1disk,28,-0.012036995,0.001851859,1,0,0,center_square,0,27,27,102,1,,,,,,,,,,,,,,,,,,,,,,,
195310,001,2022-11-21_01h57.21.831,Info_measure_main_exp,2022.2.2,Win32,60.13229104,,,,,,,,,,,,,,,,,,masks/mask_005.jpg,,,,,,,,,,,,,,,,,,,,,,,,,,,,,,,,,,,,,,,,,,,0,0,0,4,1,,,,,,,,,,,,,,,,,,,,,,,,,,,,,,,,,,,,,,,,,,,,,,
195310,001,2022-11-21_01h57.21.831,Info_measure_main_exp,2022.2.2,Win32,60.13229104,,,,,,,,,,,,,,,,,,masks/mask_004.jpg,,,,,,,,,,,,,,,,,,,,,,,,,,,,,,,,,,,,,,,,,,,0,1,1,3,1,,,,,,,,,,,,,,,,,,,,,,,,,,,,,,,,,,,,,,,,,,,,,,
195310,001,2022-11-21_01h57.21.831,Info_measure_main_exp,2022.2.2,Win32,60.13229104,,,,,,,,,,,,,,,,,,masks/mask_002.jpg,,,,,,,,,,,,,,,,,,,,,,,,,,,,,,,,,,,,,,,,,,,0,2,2,1,1,,,,,,,,,,,,,,,,,,,,,,,,,,,,,,,,,,,,,,,,,,,,,,
195310,001,2022-11-21_01h57.21.831,Info_measure_main_exp,2022.2.2,Win32,60.13229104,,,,,,,,,,,,,,,,,,masks/mask_003.jpg,,,,,,,,,,,,,,,,,,,,,,,,,,,,,,,,,,,,,,,,,,,0,3,3,2,1,,,,,,,,,,,,,,,,,,,,,,,,,,,,,,,,,,,,,,,,,,,,,,
195310,001,2022-11-21_01h57.21.831,Info_measure_main_exp,2022.2.2,Win32,60.13229104,,,,,,,,,,,,,,,,,,masks/mask_001.jpg,,,,,,,,,,,,,,,,,,,,,,,,,,,,,,,,,,,,,,,,,,,0,4,4,0,1,,,,,,,,,,,,,,,,,,,,,,,,,,,,,,,,,,,,,,,,,,,,,,
195310,001,2022-11-21_01h57.21.831,Info_measure_main_exp,2022.2.2,Win32,60.13229104,,,,,,,,,,,,,,,,,,masks/mask_003.jpg,,,,,,,,,,,,,,,,,,,,,,,,,,,,,,,,,,,,,,,,,,,,,,,,0,0,0,2,1,,,,,,,,,,,,,,,,,,,,,,,,,,,,,,,,,,,,,,,,,
195310,001,2022-11-21_01h57.21.831,Info_measure_main_exp,2022.2.2,Win32,60.13229104,,,,,,,,,,,,,,,,,,masks/mask_002.jpg,,,,,,,,,,,,,,,,,,,,,,,,,,,,,,,,,,,,,,,,,,,,,,,,0,1,1,1,1,,,,,,,,,,,,,,,,,,,,,,,,,,,,,,,,,,,,,,,,,
195310,001,2022-11-21_01h57.21.831,Info_measure_main_exp,2022.2.2,Win32,60.13229104,,,,,,,,,,,,,,,,,,masks/mask_004.jpg,,,,,,,,,,,,,,,,,,,,,,,,,,,,,,,,,,,,,,,,,,,,,,,,0,2,2,3,1,,,,,,,,,,,,,,,,,,,,,,,,,,,,,,,,,,,,,,,,,
195310,001,2022-11-21_01h57.21.831,Info_measure_main_exp,2022.2.2,Win32,60.13229104,,,,,,,,,,,,,,,,,,masks/mask_005.jpg,,,,,,,,,,,,,,,,,,,,,,,,,,,,,,,,,,,,,,,,,,,,,,,,0,3,3,4,1,,,,,,,,,,,,,,,,,,,,,,,,,,,,,,,,,,,,,,,,,
195310,001,2022-11-21_01h57.21.831,Info_measure_main_exp,2022.2.2,Win32,60.13229104,,,,,,,,,,,,,,,,,,masks/mask_001.jpg,,,,,,,,,,,,,,,,,,,,,,,,,,,,,,,,,,,,,,,,,,,,,,,,0,4,4,0,1,,,,,,,,,,,,,,,,,,,,,,,,,,,,,,,,,,,,,,,,,
195310,001,2022-11-21_01h57.21.831,Info_measure_main_exp,2022.2.2,Win32,60.13229104,,,,,,,,,,,,,,,,,,,,,,,,,,,,,,6,2.5659,1,,,,,,,,,,,,1,131,5,5,1,2274,present_patch/cong_131_5_a.jpg,absent_patch/patch0002274.jpg,,,,,,,,,,,,,,,,,,,,0.148148148,0.062962956,1,0,0,response1disk,29,-0.012962977,-0.000925947,1,0,0,center_square,0,28,28,105,1,,,,,,,,,,,,,,,,,,,,,,,
195310,001,2022-11-21_01h57.21.831,Info_measure_main_exp,2022.2.2,Win32,60.13229104,,,,,,,,,,,,,,,,,,masks/mask_005.jpg,,,,,,,,,,,,,,,,,,,,,,,,,,,,,,,,,,,,,,,,,,,0,0,0,4,1,,,,,,,,,,,,,,,,,,,,,,,,,,,,,,,,,,,,,,,,,,,,,,
195310,001,2022-11-21_01h57.21.831,Info_measure_main_exp,2022.2.2,Win32,60.13229104,,,,,,,,,,,,,,,,,,masks/mask_002.jpg,,,,,,,,,,,,,,,,,,,,,,,,,,,,,,,,,,,,,,,,,,,0,1,1,1,1,,,,,,,,,,,,,,,,,,,,,,,,,,,,,,,,,,,,,,,,,,,,,,
195310,001,2022-11-21_01h57.21.831,Info_measure_main_exp,2022.2.2,Win32,60.13229104,,,,,,,,,,,,,,,,,,masks/mask_001.jpg,,,,,,,,,,,,,,,,,,,,,,,,,,,,,,,,,,,,,,,,,,,0,2,2,0,1,,,,,,,,,,,,,,,,,,,,,,,,,,,,,,,,,,,,,,,,,,,,,,
195310,001,2022-11-21_01h57.21.831,Info_measure_main_exp,2022.2.2,Win32,60.13229104,,,,,,,,,,,,,,,,,,masks/mask_004.jpg,,,,,,,,,,,,,,,,,,,,,,,,,,,,,,,,,,,,,,,,,,,0,3,3,3,1,,,,,,,,,,,,,,,,,,,,,,,,,,,,,,,,,,,,,,,,,,,,,,
195310,001,2022-11-21_01h57.21.831,Info_measure_main_exp,2022.2.2,Win32,60.13229104,,,,,,,,,,,,,,,,,,masks/mask_003.jpg,,,,,,,,,,,,,,,,,,,,,,,,,,,,,,,,,,,,,,,,,,,0,4,4,2,1,,,,,,,,,,,,,,,,,,,,,,,,,,,,,,,,,,,,,,,,,,,,,,
195310,001,2022-11-21_01h57.21.831,Info_measure_main_exp,2022.2.2,Win32,60.13229104,,,,,,,,,,,,,,,,,,masks/mask_002.jpg,,,,,,,,,,,,,,,,,,,,,,,,,,,,,,,,,,,,,,,,,,,,,,,,0,0,0,1,1,,,,,,,,,,,,,,,,,,,,,,,,,,,,,,,,,,,,,,,,,
195310,001,2022-11-21_01h57.21.831,Info_measure_main_exp,2022.2.2,Win32,60.13229104,,,,,,,,,,,,,,,,,,masks/mask_001.jpg,,,,,,,,,,,,,,,,,,,,,,,,,,,,,,,,,,,,,,,,,,,,,,,,0,1,1,0,1,,,,,,,,,,,,,,,,,,,,,,,,,,,,,,,,,,,,,,,,,
195310,001,2022-11-21_01h57.21.831,Info_measure_main_exp,2022.2.2,Win32,60.13229104,,,,,,,,,,,,,,,,,,masks/mask_004.jpg,,,,,,,,,,,,,,,,,,,,,,,,,,,,,,,,,,,,,,,,,,,,,,,,0,2,2,3,1,,,,,,,,,,,,,,,,,,,,,,,,,,,,,,,,,,,,,,,,,
195310,001,2022-11-21_01h57.21.831,Info_measure_main_exp,2022.2.2,Win32,60.13229104,,,,,,,,,,,,,,,,,,masks/mask_005.jpg,,,,,,,,,,,,,,,,,,,,,,,,,,,,,,,,,,,,,,,,,,,,,,,,0,3,3,4,1,,,,,,,,,,,,,,,,,,,,,,,,,,,,,,,,,,,,,,,,,
195310,001,2022-11-21_01h57.21.831,Info_measure_main_exp,2022.2.2,Win32,60.13229104,,,,,,,,,,,,,,,,,,masks/mask_003.jpg,,,,,,,,,,,,,,,,,,,,,,,,,,,,,,,,,,,,,,,,,,,,,,,,0,4,4,2,1,,,,,,,,,,,,,,,,,,,,,,,,,,,,,,,,,,,,,,,,,
195310,001,2022-11-21_01h57.21.831,Info_measure_main_exp,2022.2.2,Win32,60.13229104,,,,,,,,,,,,,,,,,,,,,,,,,,,,,,7,1.1461,1,,,,,,,,,,,,0,131,5,5,2154,1974,absent_patch/patch0002154.jpg,absent_patch/patch0001974.jpg,,,,,,,,,,,,,,,,,,,,0.038888931,0.112037023,1,0,0,response1disk,30,-0.006481453,0.001851859,1,0,0,center_square,0,29,29,82,1,,,,,,,,,,,,,,,,,,,,,,,
195310,001,2022-11-21_01h57.21.831,Info_measure_main_exp,2022.2.2,Win32,60.13229104,,,,,,,,,,,,,,,,,,masks/mask_001.jpg,,,,,,,,,,,,,,,,,,,,,,,,,,,,,,,,,,,,,,,,,,,0,0,0,0,1,,,,,,,,,,,,,,,,,,,,,,,,,,,,,,,,,,,,,,,,,,,,,,
195310,001,2022-11-21_01h57.21.831,Info_measure_main_exp,2022.2.2,Win32,60.13229104,,,,,,,,,,,,,,,,,,masks/mask_005.jpg,,,,,,,,,,,,,,,,,,,,,,,,,,,,,,,,,,,,,,,,,,,0,1,1,4,1,,,,,,,,,,,,,,,,,,,,,,,,,,,,,,,,,,,,,,,,,,,,,,
195310,001,2022-11-21_01h57.21.831,Info_measure_main_exp,2022.2.2,Win32,60.13229104,,,,,,,,,,,,,,,,,,masks/mask_004.jpg,,,,,,,,,,,,,,,,,,,,,,,,,,,,,,,,,,,,,,,,,,,0,2,2,3,1,,,,,,,,,,,,,,,,,,,,,,,,,,,,,,,,,,,,,,,,,,,,,,
195310,001,2022-11-21_01h57.21.831,Info_measure_main_exp,2022.2.2,Win32,60.13229104,,,,,,,,,,,,,,,,,,masks/mask_002.jpg,,,,,,,,,,,,,,,,,,,,,,,,,,,,,,,,,,,,,,,,,,,0,3,3,1,1,,,,,,,,,,,,,,,,,,,,,,,,,,,,,,,,,,,,,,,,,,,,,,
195310,001,2022-11-21_01h57.21.831,Info_measure_main_exp,2022.2.2,Win32,60.13229104,,,,,,,,,,,,,,,,,,masks/mask_003.jpg,,,,,,,,,,,,,,,,,,,,,,,,,,,,,,,,,,,,,,,,,,,0,4,4,2,1,,,,,,,,,,,,,,,,,,,,,,,,,,,,,,,,,,,,,,,,,,,,,,
195310,001,2022-11-21_01h57.21.831,Info_measure_main_exp,2022.2.2,Win32,60.13229104,,,,,,,,,,,,,,,,,,masks/mask_001.jpg,,,,,,,,,,,,,,,,,,,,,,,,,,,,,,,,,,,,,,,,,,,,,,,,0,0,0,0,1,,,,,,,,,,,,,,,,,,,,,,,,,,,,,,,,,,,,,,,,,
195310,001,2022-11-21_01h57.21.831,Info_measure_main_exp,2022.2.2,Win32,60.13229104,,,,,,,,,,,,,,,,,,masks/mask_003.jpg,,,,,,,,,,,,,,,,,,,,,,,,,,,,,,,,,,,,,,,,,,,,,,,,0,1,1,2,1,,,,,,,,,,,,,,,,,,,,,,,,,,,,,,,,,,,,,,,,,
195310,001,2022-11-21_01h57.21.831,Info_measure_main_exp,2022.2.2,Win32,60.13229104,,,,,,,,,,,,,,,,,,masks/mask_005.jpg,,,,,,,,,,,,,,,,,,,,,,,,,,,,,,,,,,,,,,,,,,,,,,,,0,2,2,4,1,,,,,,,,,,,,,,,,,,,,,,,,,,,,,,,,,,,,,,,,,
195310,001,2022-11-21_01h57.21.831,Info_measure_main_exp,2022.2.2,Win32,60.13229104,,,,,,,,,,,,,,,,,,masks/mask_002.jpg,,,,,,,,,,,,,,,,,,,,,,,,,,,,,,,,,,,,,,,,,,,,,,,,0,3,3,1,1,,,,,,,,,,,,,,,,,,,,,,,,,,,,,,,,,,,,,,,,,
195310,001,2022-11-21_01h57.21.831,Info_measure_main_exp,2022.2.2,Win32,60.13229104,,,,,,,,,,,,,,,,,,masks/mask_004.jpg,,,,,,,,,,,,,,,,,,,,,,,,,,,,,,,,,,,,,,,,,,,,,,,,0,4,4,3,1,,,,,,,,,,,,,,,,,,,,,,,,,,,,,,,,,,,,,,,,,
195310,001,2022-11-21_01h57.21.831,Info_measure_main_exp,2022.2.2,Win32,60.13229104,,,,,,,,,,,,,,,,,,,,,,,,,,,,,,7,1.133,1,,,,,,,,,,,,0,131,5,5,2214,2166,absent_patch/patch0002214.jpg,absent_patch/patch0002166.jpg,,,,,,,,,,,,,,,,,,,,0.02407406,0.067592586,1,0,0,response1disk,31,0.002777806,0.011111118,1,0,0,center_square,0,30,30,109,1,,,,,,,,,,,,,,,,,,,,,,,
195310,001,2022-11-21_01h57.21.831,Info_measure_main_exp,2022.2.2,Win32,60.13229104,,,,,,,,,,,,,,,,,,masks/mask_001.jpg,,,,,,,,,,,,,,,,,,,,,,,,,,,,,,,,,,,,,,,,,,,0,0,0,0,1,,,,,,,,,,,,,,,,,,,,,,,,,,,,,,,,,,,,,,,,,,,,,,
195310,001,2022-11-21_01h57.21.831,Info_measure_main_exp,2022.2.2,Win32,60.13229104,,,,,,,,,,,,,,,,,,masks/mask_005.jpg,,,,,,,,,,,,,,,,,,,,,,,,,,,,,,,,,,,,,,,,,,,0,1,1,4,1,,,,,,,,,,,,,,,,,,,,,,,,,,,,,,,,,,,,,,,,,,,,,,
195310,001,2022-11-21_01h57.21.831,Info_measure_main_exp,2022.2.2,Win32,60.13229104,,,,,,,,,,,,,,,,,,masks/mask_004.jpg,,,,,,,,,,,,,,,,,,,,,,,,,,,,,,,,,,,,,,,,,,,0,2,2,3,1,,,,,,,,,,,,,,,,,,,,,,,,,,,,,,,,,,,,,,,,,,,,,,
195310,001,2022-11-21_01h57.21.831,Info_measure_main_exp,2022.2.2,Win32,60.13229104,,,,,,,,,,,,,,,,,,masks/mask_003.jpg,,,,,,,,,,,,,,,,,,,,,,,,,,,,,,,,,,,,,,,,,,,0,3,3,2,1,,,,,,,,,,,,,,,,,,,,,,,,,,,,,,,,,,,,,,,,,,,,,,
195310,001,2022-11-21_01h57.21.831,Info_measure_main_exp,2022.2.2,Win32,60.13229104,,,,,,,,,,,,,,,,,,masks/mask_002.jpg,,,,,,,,,,,,,,,,,,,,,,,,,,,,,,,,,,,,,,,,,,,0,4,4,1,1,,,,,,,,,,,,,,,,,,,,,,,,,,,,,,,,,,,,,,,,,,,,,,
195310,001,2022-11-21_01h57.21.831,Info_measure_main_exp,2022.2.2,Win32,60.13229104,,,,,,,,,,,,,,,,,,masks/mask_004.jpg,,,,,,,,,,,,,,,,,,,,,,,,,,,,,,,,,,,,,,,,,,,,,,,,0,0,0,3,1,,,,,,,,,,,,,,,,,,,,,,,,,,,,,,,,,,,,,,,,,
195310,001,2022-11-21_01h57.21.831,Info_measure_main_exp,2022.2.2,Win32,60.13229104,,,,,,,,,,,,,,,,,,masks/mask_001.jpg,,,,,,,,,,,,,,,,,,,,,,,,,,,,,,,,,,,,,,,,,,,,,,,,0,1,1,0,1,,,,,,,,,,,,,,,,,,,,,,,,,,,,,,,,,,,,,,,,,
195310,001,2022-11-21_01h57.21.831,Info_measure_main_exp,2022.2.2,Win32,60.13229104,,,,,,,,,,,,,,,,,,masks/mask_003.jpg,,,,,,,,,,,,,,,,,,,,,,,,,,,,,,,,,,,,,,,,,,,,,,,,0,2,2,2,1,,,,,,,,,,,,,,,,,,,,,,,,,,,,,,,,,,,,,,,,,
195310,001,2022-11-21_01h57.21.831,Info_measure_main_exp,2022.2.2,Win32,60.13229104,,,,,,,,,,,,,,,,,,masks/mask_002.jpg,,,,,,,,,,,,,,,,,,,,,,,,,,,,,,,,,,,,,,,,,,,,,,,,0,3,3,1,1,,,,,,,,,,,,,,,,,,,,,,,,,,,,,,,,,,,,,,,,,
195310,001,2022-11-21_01h57.21.831,Info_measure_main_exp,2022.2.2,Win32,60.13229104,,,,,,,,,,,,,,,,,,masks/mask_005.jpg,,,,,,,,,,,,,,,,,,,,,,,,,,,,,,,,,,,,,,,,,,,,,,,,0,4,4,4,1,,,,,,,,,,,,,,,,,,,,,,,,,,,,,,,,,,,,,,,,,
195310,001,2022-11-21_01h57.21.831,Info_measure_main_exp,2022.2.2,Win32,60.13229104,,,,,,,,,,,,,,,,,,,,,,,,,,,,,,7,1.0041,1,,,,,,,,,,,,0,131,5,5,2298,2274,absent_patch/patch0002298.jpg,absent_patch/patch0002274.jpg,,,,,,,,,,,,,,,,,,,,0.034259302,0.079629616,1,0,0,response1disk,32,0.001851894,0.002777771,1,0,0,center_square,0,31,31,1,1,,,,,,,,,,,,,,,,,,,,,,,
195310,001,2022-11-21_01h57.21.831,Info_measure_main_exp,2022.2.2,Win32,60.13229104,,,,,,,,,,,,,,,,,,masks/mask_001.jpg,,,,,,,,,,,,,,,,,,,,,,,,,,,,,,,,,,,,,,,,,,,0,0,0,0,1,,,,,,,,,,,,,,,,,,,,,,,,,,,,,,,,,,,,,,,,,,,,,,
195310,001,2022-11-21_01h57.21.831,Info_measure_main_exp,2022.2.2,Win32,60.13229104,,,,,,,,,,,,,,,,,,masks/mask_002.jpg,,,,,,,,,,,,,,,,,,,,,,,,,,,,,,,,,,,,,,,,,,,0,1,1,1,1,,,,,,,,,,,,,,,,,,,,,,,,,,,,,,,,,,,,,,,,,,,,,,
195310,001,2022-11-21_01h57.21.831,Info_measure_main_exp,2022.2.2,Win32,60.13229104,,,,,,,,,,,,,,,,,,masks/mask_003.jpg,,,,,,,,,,,,,,,,,,,,,,,,,,,,,,,,,,,,,,,,,,,0,2,2,2,1,,,,,,,,,,,,,,,,,,,,,,,,,,,,,,,,,,,,,,,,,,,,,,
195310,001,2022-11-21_01h57.21.831,Info_measure_main_exp,2022.2.2,Win32,60.13229104,,,,,,,,,,,,,,,,,,masks/mask_004.jpg,,,,,,,,,,,,,,,,,,,,,,,,,,,,,,,,,,,,,,,,,,,0,3,3,3,1,,,,,,,,,,,,,,,,,,,,,,,,,,,,,,,,,,,,,,,,,,,,,,
195310,001,2022-11-21_01h57.21.831,Info_measure_main_exp,2022.2.2,Win32,60.13229104,,,,,,,,,,,,,,,,,,masks/mask_005.jpg,,,,,,,,,,,,,,,,,,,,,,,,,,,,,,,,,,,,,,,,,,,0,4,4,4,1,,,,,,,,,,,,,,,,,,,,,,,,,,,,,,,,,,,,,,,,,,,,,,
195310,001,2022-11-21_01h57.21.831,Info_measure_main_exp,2022.2.2,Win32,60.13229104,,,,,,,,,,,,,,,,,,masks/mask_002.jpg,,,,,,,,,,,,,,,,,,,,,,,,,,,,,,,,,,,,,,,,,,,,,,,,0,0,0,1,1,,,,,,,,,,,,,,,,,,,,,,,,,,,,,,,,,,,,,,,,,
195310,001,2022-11-21_01h57.21.831,Info_measure_main_exp,2022.2.2,Win32,60.13229104,,,,,,,,,,,,,,,,,,masks/mask_004.jpg,,,,,,,,,,,,,,,,,,,,,,,,,,,,,,,,,,,,,,,,,,,,,,,,0,1,1,3,1,,,,,,,,,,,,,,,,,,,,,,,,,,,,,,,,,,,,,,,,,
195310,001,2022-11-21_01h57.21.831,Info_measure_main_exp,2022.2.2,Win32,60.13229104,,,,,,,,,,,,,,,,,,masks/mask_005.jpg,,,,,,,,,,,,,,,,,,,,,,,,,,,,,,,,,,,,,,,,,,,,,,,,0,2,2,4,1,,,,,,,,,,,,,,,,,,,,,,,,,,,,,,,,,,,,,,,,,
195310,001,2022-11-21_01h57.21.831,Info_measure_main_exp,2022.2.2,Win32,60.13229104,,,,,,,,,,,,,,,,,,masks/mask_001.jpg,,,,,,,,,,,,,,,,,,,,,,,,,,,,,,,,,,,,,,,,,,,,,,,,0,3,3,0,1,,,,,,,,,,,,,,,,,,,,,,,,,,,,,,,,,,,,,,,,,
195310,001,2022-11-21_01h57.21.831,Info_measure_main_exp,2022.2.2,Win32,60.13229104,,,,,,,,,,,,,,,,,,masks/mask_003.jpg,,,,,,,,,,,,,,,,,,,,,,,,,,,,,,,,,,,,,,,,,,,,,,,,0,4,4,2,1,,,,,,,,,,,,,,,,,,,,,,,,,,,,,,,,,,,,,,,,,
195310,001,2022-11-21_01h57.21.831,Info_measure_main_exp,2022.2.2,Win32,60.13229104,,,,,,,,,,,,,,,,,,,,,,,,,,,,,,7,1.2661,1,,,,,,,,,,,,0,131,5,5,2214,2178,absent_patch/patch0002214.jpg,absent_patch/patch0002178.jpg,,,,,,,,,,,,,,,,,,,,0.025000042,0.060185185,1,0,0,response1disk,33,0.003703718,0.00462963,1,0,0,center_square,0,32,32,62,1,,,,,,,,,,,,,,,,,,,,,,,
195310,001,2022-11-21_01h57.21.831,Info_measure_main_exp,2022.2.2,Win32,60.13229104,,,,,,,,,,,,,,,,,,masks/mask_005.jpg,,,,,,,,,,,,,,,,,,,,,,,,,,,,,,,,,,,,,,,,,,,0,0,0,4,1,,,,,,,,,,,,,,,,,,,,,,,,,,,,,,,,,,,,,,,,,,,,,,
195310,001,2022-11-21_01h57.21.831,Info_measure_main_exp,2022.2.2,Win32,60.13229104,,,,,,,,,,,,,,,,,,masks/mask_002.jpg,,,,,,,,,,,,,,,,,,,,,,,,,,,,,,,,,,,,,,,,,,,0,1,1,1,1,,,,,,,,,,,,,,,,,,,,,,,,,,,,,,,,,,,,,,,,,,,,,,
195310,001,2022-11-21_01h57.21.831,Info_measure_main_exp,2022.2.2,Win32,60.13229104,,,,,,,,,,,,,,,,,,masks/mask_004.jpg,,,,,,,,,,,,,,,,,,,,,,,,,,,,,,,,,,,,,,,,,,,0,2,2,3,1,,,,,,,,,,,,,,,,,,,,,,,,,,,,,,,,,,,,,,,,,,,,,,
195310,001,2022-11-21_01h57.21.831,Info_measure_main_exp,2022.2.2,Win32,60.13229104,,,,,,,,,,,,,,,,,,masks/mask_003.jpg,,,,,,,,,,,,,,,,,,,,,,,,,,,,,,,,,,,,,,,,,,,0,3,3,2,1,,,,,,,,,,,,,,,,,,,,,,,,,,,,,,,,,,,,,,,,,,,,,,
195310,001,2022-11-21_01h57.21.831,Info_measure_main_exp,2022.2.2,Win32,60.13229104,,,,,,,,,,,,,,,,,,masks/mask_001.jpg,,,,,,,,,,,,,,,,,,,,,,,,,,,,,,,,,,,,,,,,,,,0,4,4,0,1,,,,,,,,,,,,,,,,,,,,,,,,,,,,,,,,,,,,,,,,,,,,,,
195310,001,2022-11-21_01h57.21.831,Info_measure_main_exp,2022.2.2,Win32,60.13229104,,,,,,,,,,,,,,,,,,masks/mask_002.jpg,,,,,,,,,,,,,,,,,,,,,,,,,,,,,,,,,,,,,,,,,,,,,,,,0,0,0,1,1,,,,,,,,,,,,,,,,,,,,,,,,,,,,,,,,,,,,,,,,,
195310,001,2022-11-21_01h57.21.831,Info_measure_main_exp,2022.2.2,Win32,60.13229104,,,,,,,,,,,,,,,,,,masks/mask_001.jpg,,,,,,,,,,,,,,,,,,,,,,,,,,,,,,,,,,,,,,,,,,,,,,,,0,1,1,0,1,,,,,,,,,,,,,,,,,,,,,,,,,,,,,,,,,,,,,,,,,
195310,001,2022-11-21_01h57.21.831,Info_measure_main_exp,2022.2.2,Win32,60.13229104,,,,,,,,,,,,,,,,,,masks/mask_005.jpg,,,,,,,,,,,,,,,,,,,,,,,,,,,,,,,,,,,,,,,,,,,,,,,,0,2,2,4,1,,,,,,,,,,,,,,,,,,,,,,,,,,,,,,,,,,,,,,,,,
195310,001,2022-11-21_01h57.21.831,Info_measure_main_exp,2022.2.2,Win32,60.13229104,,,,,,,,,,,,,,,,,,masks/mask_004.jpg,,,,,,,,,,,,,,,,,,,,,,,,,,,,,,,,,,,,,,,,,,,,,,,,0,3,3,3,1,,,,,,,,,,,,,,,,,,,,,,,,,,,,,,,,,,,,,,,,,
195310,001,2022-11-21_01h57.21.831,Info_measure_main_exp,2022.2.2,Win32,60.13229104,,,,,,,,,,,,,,,,,,masks/mask_003.jpg,,,,,,,,,,,,,,,,,,,,,,,,,,,,,,,,,,,,,,,,,,,,,,,,0,4,4,2,1,,,,,,,,,,,,,,,,,,,,,,,,,,,,,,,,,,,,,,,,,
195310,001,2022-11-21_01h57.21.831,Info_measure_main_exp,2022.2.2,Win32,60.13229104,,,,,,,,,,,,,,,,,,,,,,,,,,,,,,7,0.8998,1,,,,,,,,,,,,0,131,5,5,2166,2298,absent_patch/patch0002166.jpg,absent_patch/patch0002298.jpg,,,,,,,,,,,,,,,,,,,,0.031481496,0.083333333,1,0,0,response1disk,34,0.00462963,-0.000925947,1,0,0,center_square,0,33,33,52,1,,,,,,,,,,,,,,,,,,,,,,,
195310,001,2022-11-21_01h57.21.831,Info_measure_main_exp,2022.2.2,Win32,60.13229104,,,,,,,,,,,,,,,,,,masks/mask_001.jpg,,,,,,,,,,,,,,,,,,,,,,,,,,,,,,,,,,,,,,,,,,,0,0,0,0,1,,,,,,,,,,,,,,,,,,,,,,,,,,,,,,,,,,,,,,,,,,,,,,
195310,001,2022-11-21_01h57.21.831,Info_measure_main_exp,2022.2.2,Win32,60.13229104,,,,,,,,,,,,,,,,,,masks/mask_003.jpg,,,,,,,,,,,,,,,,,,,,,,,,,,,,,,,,,,,,,,,,,,,0,1,1,2,1,,,,,,,,,,,,,,,,,,,,,,,,,,,,,,,,,,,,,,,,,,,,,,
195310,001,2022-11-21_01h57.21.831,Info_measure_main_exp,2022.2.2,Win32,60.13229104,,,,,,,,,,,,,,,,,,masks/mask_002.jpg,,,,,,,,,,,,,,,,,,,,,,,,,,,,,,,,,,,,,,,,,,,0,2,2,1,1,,,,,,,,,,,,,,,,,,,,,,,,,,,,,,,,,,,,,,,,,,,,,,
195310,001,2022-11-21_01h57.21.831,Info_measure_main_exp,2022.2.2,Win32,60.13229104,,,,,,,,,,,,,,,,,,masks/mask_004.jpg,,,,,,,,,,,,,,,,,,,,,,,,,,,,,,,,,,,,,,,,,,,0,3,3,3,1,,,,,,,,,,,,,,,,,,,,,,,,,,,,,,,,,,,,,,,,,,,,,,
195310,001,2022-11-21_01h57.21.831,Info_measure_main_exp,2022.2.2,Win32,60.13229104,,,,,,,,,,,,,,,,,,masks/mask_005.jpg,,,,,,,,,,,,,,,,,,,,,,,,,,,,,,,,,,,,,,,,,,,0,4,4,4,1,,,,,,,,,,,,,,,,,,,,,,,,,,,,,,,,,,,,,,,,,,,,,,
195310,001,2022-11-21_01h57.21.831,Info_measure_main_exp,2022.2.2,Win32,60.13229104,,,,,,,,,,,,,,,,,,masks/mask_001.jpg,,,,,,,,,,,,,,,,,,,,,,,,,,,,,,,,,,,,,,,,,,,,,,,,0,0,0,0,1,,,,,,,,,,,,,,,,,,,,,,,,,,,,,,,,,,,,,,,,,
195310,001,2022-11-21_01h57.21.831,Info_measure_main_exp,2022.2.2,Win32,60.13229104,,,,,,,,,,,,,,,,,,masks/mask_003.jpg,,,,,,,,,,,,,,,,,,,,,,,,,,,,,,,,,,,,,,,,,,,,,,,,0,1,1,2,1,,,,,,,,,,,,,,,,,,,,,,,,,,,,,,,,,,,,,,,,,
195310,001,2022-11-21_01h57.21.831,Info_measure_main_exp,2022.2.2,Win32,60.13229104,,,,,,,,,,,,,,,,,,masks/mask_005.jpg,,,,,,,,,,,,,,,,,,,,,,,,,,,,,,,,,,,,,,,,,,,,,,,,0,2,2,4,1,,,,,,,,,,,,,,,,,,,,,,,,,,,,,,,,,,,,,,,,,
195310,001,2022-11-21_01h57.21.831,Info_measure_main_exp,2022.2.2,Win32,60.13229104,,,,,,,,,,,,,,,,,,masks/mask_002.jpg,,,,,,,,,,,,,,,,,,,,,,,,,,,,,,,,,,,,,,,,,,,,,,,,0,3,3,1,1,,,,,,,,,,,,,,,,,,,,,,,,,,,,,,,,,,,,,,,,,
