participant,session,date,expName,psychopyVersion,OS,frameRate,space_press_continue.keys,space_press_continue.rt,space_press_continue_2.keys,space_press_continue_2.rt,space_press_continue_3.keys,space_press_continue_3.rt,space_press_continue_4.keys,space_press_continue_4.rt,space_press_continue_5.keys,space_press_continue_5.rt,space_press_continue_6.keys,space_press_continue_6.rt,prac_mask_loop_1.thisRepN,prac_mask_loop_1.thisTrialN,prac_mask_loop_1.thisN,prac_mask_loop_1.thisIndex,prac_mask_loop_1.ran,mask_name,prac_mask_loop_2.thisRepN,prac_mask_loop_2.thisTrialN,prac_mask_loop_2.thisN,prac_mask_loop_2.thisIndex,prac_mask_loop_2.ran,mouse_2.x,mouse_2.y,mouse_2.leftButton,mouse_2.midButton,mouse_2.rightButton,mouse_2.clicked_name,similarity,response_time,Pass,mouse_12.x,mouse_12.y,mouse_12.leftButton,mouse_12.midButton,mouse_12.rightButton,mouse_12.clicked_name,prac_loop.thisRepN,prac_loop.thisTrialN,prac_loop.thisN,prac_loop.thisIndex,prac_loop.ran,Pair_type,Image_num,Patch_1_loc,Patch_2_loc,Patch_1_info,Patch_2_info,Patch_1_name,Patch_2_name,mouse_1.x,mouse_1.y,mouse_1.leftButton,mouse_1.midButton,mouse_1.rightButton,mouse_1.time,mouse_1.clicked_name,space_press_continue_7.keys,space_press_continue_7.rt,mask_loop.thisRepN,mask_loop.thisTrialN,mask_loop.thisN,mask_loop.thisIndex,mask_loop.ran,mask_loop_2.thisRepN,mask_loop_2.thisTrialN,mask_loop_2.thisN,mask_loop_2.thisIndex,mask_loop_2.ran,mouse.x,mouse.y,mouse.leftButton,mouse.midButton,mouse.rightButton,mouse.clicked_name,trialNumber,mouse_11.x,mouse_11.y,mouse_11.leftButton,mouse_11.midButton,mouse_11.rightButton,mouse_11.clicked_name,first_pass_loop.thisRepN,first_pass_loop.thisTrialN,first_pass_loop.thisN,first_pass_loop.thisIndex,first_pass_loop.ran,mask_loop_3.thisRepN,mask_loop_3.thisTrialN,mask_loop_3.thisN,mask_loop_3.thisIndex,mask_loop_3.ran,mask_loop_4.thisRepN,mask_loop_4.thisTrialN,mask_loop_4.thisN,mask_loop_4.thisIndex,mask_loop_4.ran,mouse_3.x,mouse_3.y,mouse_3.leftButton,mouse_3.midButton,mouse_3.rightButton,mouse_3.clicked_name,double_pass_loop.thisRepN,double_pass_loop.thisTrialN,double_pass_loop.thisN,double_pass_loop.thisIndex,double_pass_loop.ran,space_exit.keys,space_exit.rt
202383,001,2022-11-21_24h03.17.263,Info_measure_main_exp,2022.2.2,Win32,59.62673663,,,,,,,,,,,,,,,,,,,,,,,,,,,,,,,,,,,,,,,,,,,,,,,,,,,,,,,,,,,,,,,,,,,,,,,,,,,,,,,,,,,,,,,,,,,,,,,,,,,,,,,,,,,,,,,
202383,001,2022-11-21_24h03.17.263,Info_measure_main_exp,2022.2.2,Win32,59.62673663,,,,,,,,,,,,,,,,,,,,,,,,,,,,,,,,,,,,,,,,,,,,,,,,,,,,,,,,,,,,,,,,,,,,,,,,,,,,,,,,,,,,,,,,,,,,,,,,,,,,,,,,,,,,,,,
202383,001,2022-11-21_24h03.17.263,Info_measure_main_exp,2022.2.2,Win32,59.62673663,space,7.548,,,,,,,,,,,,,,,,,,,,,,,,,,,,,,,,,,,,,,,,,,,,,,,,,,,,,,,,,,,,,,,,,,,,,,,,,,,,,,,,,,,,,,,,,,,,,,,,,,,,,,,,,,,,,
202383,001,2022-11-21_24h03.17.263,Info_measure_main_exp,2022.2.2,Win32,59.62673663,,,space,17.9111,,,,,,,,,,,,,,,,,,,,,,,,,,,,,,,,,,,,,,,,,,,,,,,,,,,,,,,,,,,,,,,,,,,,,,,,,,,,,,,,,,,,,,,,,,,,,,,,,,,,,,,,,,,
202383,001,2022-11-21_24h03.17.263,Info_measure_main_exp,2022.2.2,Win32,59.62673663,,,,,space,7.1256,,,,,,,,,,,,,,,,,,,,,,,,,,,,,,,,,,,,,,,,,,,,,,,,,,,,,,,,,,,,,,,,,,,,,,,,,,,,,,,,,,,,,,,,,,,,,,,,,,,,,,,,,
202383,001,2022-11-21_24h03.17.263,Info_measure_main_exp,2022.2.2,Win32,59.62673663,,,,,,,space,14.1392,,,,,,,,,,,,,,,,,,,,,,,,,,,,,,,,,,,,,,,,,,,,,,,,,,,,,,,,,,,,,,,,,,,,,,,,,,,,,,,,,,,,,,,,,,,,,,,,,,,,,,,
202383,001,2022-11-21_24h03.17.263,Info_measure_main_exp,2022.2.2,Win32,59.62673663,,,,,,,,,space,6.455,,,,,,,,,,,,,,,,,,,,,,,,,,,,,,,,,,,,,,,,,,,,,,,,,,,,,,,,,,,,,,,,,,,,,,,,,,,,,,,,,,,,,,,,,,,,,,,,,,,,,
202383,001,2022-11-21_24h03.17.263,Info_measure_main_exp,2022.2.2,Win32,59.62673663,,,,,,,,,,,space,4.3429,,,,,,,,,,,,,,,,,,,,,,,,,,,,,,,,,,,,,,,,,,,,,,,,,,,,,,,,,,,,,,,,,,,,,,,,,,,,,,,,,,,,,,,,,,,,,,,,,,,
202383,001,2022-11-21_24h03.17.263,Info_measure_main_exp,2022.2.2,Win32,59.62673663,,,,,,,,,,,,,0,0,0,2,1,masks/mask_003.jpg,,,,,,,,,,,,,,,,,,,,,,,,,,,,,,,,,,,,,,,,,,,,,,,,,,,,,,,,,,,,,,,,,,,,,,,,,,,,,,,,,,,,,,,,,,,,,
202383,001,2022-11-21_24h03.17.263,Info_measure_main_exp,2022.2.2,Win32,59.62673663,,,,,,,,,,,,,0,1,1,4,1,masks/mask_005.jpg,,,,,,,,,,,,,,,,,,,,,,,,,,,,,,,,,,,,,,,,,,,,,,,,,,,,,,,,,,,,,,,,,,,,,,,,,,,,,,,,,,,,,,,,,,,,,
202383,001,2022-11-21_24h03.17.263,Info_measure_main_exp,2022.2.2,Win32,59.62673663,,,,,,,,,,,,,0,2,2,0,1,masks/mask_001.jpg,,,,,,,,,,,,,,,,,,,,,,,,,,,,,,,,,,,,,,,,,,,,,,,,,,,,,,,,,,,,,,,,,,,,,,,,,,,,,,,,,,,,,,,,,,,,,
202383,001,2022-11-21_24h03.17.263,Info_measure_main_exp,2022.2.2,Win32,59.62673663,,,,,,,,,,,,,0,3,3,1,1,masks/mask_002.jpg,,,,,,,,,,,,,,,,,,,,,,,,,,,,,,,,,,,,,,,,,,,,,,,,,,,,,,,,,,,,,,,,,,,,,,,,,,,,,,,,,,,,,,,,,,,,,
202383,001,2022-11-21_24h03.17.263,Info_measure_main_exp,2022.2.2,Win32,59.62673663,,,,,,,,,,,,,0,4,4,3,1,masks/mask_004.jpg,,,,,,,,,,,,,,,,,,,,,,,,,,,,,,,,,,,,,,,,,,,,,,,,,,,,,,,,,,,,,,,,,,,,,,,,,,,,,,,,,,,,,,,,,,,,,
202383,001,2022-11-21_24h03.17.263,Info_measure_main_exp,2022.2.2,Win32,59.62673663,,,,,,,,,,,,,,,,,,masks/mask_004.jpg,0,0,0,3,1,,,,,,,,,,,,,,,,,,,,,,,,,,,,,,,,,,,,,,,,,,,,,,,,,,,,,,,,,,,,,,,,,,,,,,,,,,,,,,,,,,,,,,,,
202383,001,2022-11-21_24h03.17.263,Info_measure_main_exp,2022.2.2,Win32,59.62673663,,,,,,,,,,,,,,,,,,masks/mask_003.jpg,0,1,1,2,1,,,,,,,,,,,,,,,,,,,,,,,,,,,,,,,,,,,,,,,,,,,,,,,,,,,,,,,,,,,,,,,,,,,,,,,,,,,,,,,,,,,,,,,,
202383,001,2022-11-21_24h03.17.263,Info_measure_main_exp,2022.2.2,Win32,59.62673663,,,,,,,,,,,,,,,,,,masks/mask_002.jpg,0,2,2,1,1,,,,,,,,,,,,,,,,,,,,,,,,,,,,,,,,,,,,,,,,,,,,,,,,,,,,,,,,,,,,,,,,,,,,,,,,,,,,,,,,,,,,,,,,
202383,001,2022-11-21_24h03.17.263,Info_measure_main_exp,2022.2.2,Win32,59.62673663,,,,,,,,,,,,,,,,,,masks/mask_001.jpg,0,3,3,0,1,,,,,,,,,,,,,,,,,,,,,,,,,,,,,,,,,,,,,,,,,,,,,,,,,,,,,,,,,,,,,,,,,,,,,,,,,,,,,,,,,,,,,,,,
202383,001,2022-11-21_24h03.17.263,Info_measure_main_exp,2022.2.2,Win32,59.62673663,,,,,,,,,,,,,,,,,,masks/mask_005.jpg,0,4,4,4,1,,,,,,,,,,,,,,,,,,,,,,,,,,,,,,,,,,,,,,,,,,,,,,,,,,,,,,,,,,,,,,,,,,,,,,,,,,,,,,,,,,,,,,,,
202383,001,2022-11-21_24h03.17.263,Info_measure_main_exp,2022.2.2,Win32,59.62673663,,,,,,,,,,,,,,,,,,,,,,,,-0.038888861,0.14166666,1,0,0,response7disk,0,61.0405,1,0.000925912,-0.001851859,1,0,0,center_square,0,0,0,2,1,0,131,5,5,2526,2526,prac_patch/patch0002526.jpg,prac_patch/patch0002526.jpg,,,,,,,,,,,,,,,,,,,,,,,,,,,,,,,,,,,,,,,,,,,,,,,,,,,,,,,,,,,,
202383,001,2022-11-21_24h03.17.263,Info_measure_main_exp,2022.2.2,Win32,59.62673663,,,,,,,,,,,,,0,0,0,2,1,masks/mask_003.jpg,,,,,,,,,,,,,,,,,,,,,,,,,,,,,,,,,,,,,,,,,,,,,,,,,,,,,,,,,,,,,,,,,,,,,,,,,,,,,,,,,,,,,,,,,,,,,
202383,001,2022-11-21_24h03.17.263,Info_measure_main_exp,2022.2.2,Win32,59.62673663,,,,,,,,,,,,,0,1,1,4,1,masks/mask_005.jpg,,,,,,,,,,,,,,,,,,,,,,,,,,,,,,,,,,,,,,,,,,,,,,,,,,,,,,,,,,,,,,,,,,,,,,,,,,,,,,,,,,,,,,,,,,,,,
202383,001,2022-11-21_24h03.17.263,Info_measure_main_exp,2022.2.2,Win32,59.62673663,,,,,,,,,,,,,0,2,2,1,1,masks/mask_002.jpg,,,,,,,,,,,,,,,,,,,,,,,,,,,,,,,,,,,,,,,,,,,,,,,,,,,,,,,,,,,,,,,,,,,,,,,,,,,,,,,,,,,,,,,,,,,,,
202383,001,2022-11-21_24h03.17.263,Info_measure_main_exp,2022.2.2,Win32,59.62673663,,,,,,,,,,,,,0,3,3,3,1,masks/mask_004.jpg,,,,,,,,,,,,,,,,,,,,,,,,,,,,,,,,,,,,,,,,,,,,,,,,,,,,,,,,,,,,,,,,,,,,,,,,,,,,,,,,,,,,,,,,,,,,,
202383,001,2022-11-21_24h03.17.263,Info_measure_main_exp,2022.2.2,Win32,59.62673663,,,,,,,,,,,,,0,4,4,0,1,masks/mask_001.jpg,,,,,,,,,,,,,,,,,,,,,,,,,,,,,,,,,,,,,,,,,,,,,,,,,,,,,,,,,,,,,,,,,,,,,,,,,,,,,,,,,,,,,,,,,,,,,
202383,001,2022-11-21_24h03.17.263,Info_measure_main_exp,2022.2.2,Win32,59.62673663,,,,,,,,,,,,,,,,,,masks/mask_003.jpg,0,0,0,2,1,,,,,,,,,,,,,,,,,,,,,,,,,,,,,,,,,,,,,,,,,,,,,,,,,,,,,,,,,,,,,,,,,,,,,,,,,,,,,,,,,,,,,,,,
202383,001,2022-11-21_24h03.17.263,Info_measure_main_exp,2022.2.2,Win32,59.62673663,,,,,,,,,,,,,,,,,,masks/mask_002.jpg,0,1,1,1,1,,,,,,,,,,,,,,,,,,,,,,,,,,,,,,,,,,,,,,,,,,,,,,,,,,,,,,,,,,,,,,,,,,,,,,,,,,,,,,,,,,,,,,,,
202383,001,2022-11-21_24h03.17.263,Info_measure_main_exp,2022.2.2,Win32,59.62673663,,,,,,,,,,,,,,,,,,masks/mask_005.jpg,0,2,2,4,1,,,,,,,,,,,,,,,,,,,,,,,,,,,,,,,,,,,,,,,,,,,,,,,,,,,,,,,,,,,,,,,,,,,,,,,,,,,,,,,,,,,,,,,,
202383,001,2022-11-21_24h03.17.263,Info_measure_main_exp,2022.2.2,Win32,59.62673663,,,,,,,,,,,,,,,,,,masks/mask_001.jpg,0,3,3,0,1,,,,,,,,,,,,,,,,,,,,,,,,,,,,,,,,,,,,,,,,,,,,,,,,,,,,,,,,,,,,,,,,,,,,,,,,,,,,,,,,,,,,,,,,
202383,001,2022-11-21_24h03.17.263,Info_measure_main_exp,2022.2.2,Win32,59.62673663,,,,,,,,,,,,,,,,,,masks/mask_004.jpg,0,4,4,3,1,,,,,,,,,,,,,,,,,,,,,,,,,,,,,,,,,,,,,,,,,,,,,,,,,,,,,,,,,,,,,,,,,,,,,,,,,,,,,,,,,,,,,,,,
202383,001,2022-11-21_24h03.17.263,Info_measure_main_exp,2022.2.2,Win32,59.62673663,,,,,,,,,,,,,,,,,,,,,,,,0.07685188,-0.040740755,1,0,0,response3disk,5,71.3072,1,-0.003703718,-0.009259259,1,0,0,center_square,0,1,1,0,1,0,131,5,5,2370,2406,prac_patch/patch0002370.jpg,prac_patch/patch0002406.jpg,,,,,,,,,,,,,,,,,,,,,,,,,,,,,,,,,,,,,,,,,,,,,,,,,,,,,,,,,,,,
202383,001,2022-11-21_24h03.17.263,Info_measure_main_exp,2022.2.2,Win32,59.62673663,,,,,,,,,,,,,0,0,0,1,1,masks/mask_002.jpg,,,,,,,,,,,,,,,,,,,,,,,,,,,,,,,,,,,,,,,,,,,,,,,,,,,,,,,,,,,,,,,,,,,,,,,,,,,,,,,,,,,,,,,,,,,,,
202383,001,2022-11-21_24h03.17.263,Info_measure_main_exp,2022.2.2,Win32,59.62673663,,,,,,,,,,,,,0,1,1,4,1,masks/mask_005.jpg,,,,,,,,,,,,,,,,,,,,,,,,,,,,,,,,,,,,,,,,,,,,,,,,,,,,,,,,,,,,,,,,,,,,,,,,,,,,,,,,,,,,,,,,,,,,,
202383,001,2022-11-21_24h03.17.263,Info_measure_main_exp,2022.2.2,Win32,59.62673663,,,,,,,,,,,,,0,2,2,2,1,masks/mask_003.jpg,,,,,,,,,,,,,,,,,,,,,,,,,,,,,,,,,,,,,,,,,,,,,,,,,,,,,,,,,,,,,,,,,,,,,,,,,,,,,,,,,,,,,,,,,,,,,
202383,001,2022-11-21_24h03.17.263,Info_measure_main_exp,2022.2.2,Win32,59.62673663,,,,,,,,,,,,,0,3,3,0,1,masks/mask_001.jpg,,,,,,,,,,,,,,,,,,,,,,,,,,,,,,,,,,,,,,,,,,,,,,,,,,,,,,,,,,,,,,,,,,,,,,,,,,,,,,,,,,,,,,,,,,,,,
202383,001,2022-11-21_24h03.17.263,Info_measure_main_exp,2022.2.2,Win32,59.62673663,,,,,,,,,,,,,0,4,4,3,1,masks/mask_004.jpg,,,,,,,,,,,,,,,,,,,,,,,,,,,,,,,,,,,,,,,,,,,,,,,,,,,,,,,,,,,,,,,,,,,,,,,,,,,,,,,,,,,,,,,,,,,,,
202383,001,2022-11-21_24h03.17.263,Info_measure_main_exp,2022.2.2,Win32,59.62673663,,,,,,,,,,,,,,,,,,masks/mask_005.jpg,0,0,0,4,1,,,,,,,,,,,,,,,,,,,,,,,,,,,,,,,,,,,,,,,,,,,,,,,,,,,,,,,,,,,,,,,,,,,,,,,,,,,,,,,,,,,,,,,,
202383,001,2022-11-21_24h03.17.263,Info_measure_main_exp,2022.2.2,Win32,59.62673663,,,,,,,,,,,,,,,,,,masks/mask_004.jpg,0,1,1,3,1,,,,,,,,,,,,,,,,,,,,,,,,,,,,,,,,,,,,,,,,,,,,,,,,,,,,,,,,,,,,,,,,,,,,,,,,,,,,,,,,,,,,,,,,
202383,001,2022-11-21_24h03.17.263,Info_measure_main_exp,2022.2.2,Win32,59.62673663,,,,,,,,,,,,,,,,,,masks/mask_003.jpg,0,2,2,2,1,,,,,,,,,,,,,,,,,,,,,,,,,,,,,,,,,,,,,,,,,,,,,,,,,,,,,,,,,,,,,,,,,,,,,,,,,,,,,,,,,,,,,,,,
202383,001,2022-11-21_24h03.17.263,Info_measure_main_exp,2022.2.2,Win32,59.62673663,,,,,,,,,,,,,,,,,,masks/mask_001.jpg,0,3,3,0,1,,,,,,,,,,,,,,,,,,,,,,,,,,,,,,,,,,,,,,,,,,,,,,,,,,,,,,,,,,,,,,,,,,,,,,,,,,,,,,,,,,,,,,,,
202383,001,2022-11-21_24h03.17.263,Info_measure_main_exp,2022.2.2,Win32,59.62673663,,,,,,,,,,,,,,,,,,masks/mask_002.jpg,0,4,4,1,1,,,,,,,,,,,,,,,,,,,,,,,,,,,,,,,,,,,,,,,,,,,,,,,,,,,,,,,,,,,,,,,,,,,,,,,,,,,,,,,,,,,,,,,,
202383,001,2022-11-21_24h03.17.263,Info_measure_main_exp,2022.2.2,Win32,59.62673663,,,,,,,,,,,,,,,,,,,,,,,,0.015740783,-0.068518533,1,0,0,response3disk,4,79.5409,1,0.006481524,0.008333312,1,0,0,center_square,0,2,2,1,1,0,131,5,5,2514,2490,prac_patch/patch0002514.jpg,prac_patch/patch0002490.jpg,,,,,,,,,,,,,,,,,,,,,,,,,,,,,,,,,,,,,,,,,,,,,,,,,,,,,,,,,,,,
202383,001,2022-11-21_24h03.17.263,Info_measure_main_exp,2022.2.2,Win32,59.62673663,,,,,,,,,,,,,,,,,,,,,,,,,,,,,,,,,,,,,,,,,,,,,,,,,,,,,,,,,,,space,5.6275,,,,,,,,,,,,,,,,,,,,,,,,,,,,,,,,,,,,,,,,,,,,,,,,,,,
202383,001,2022-11-21_24h03.17.263,Info_measure_main_exp,2022.2.2,Win32,59.62673663,,,,,,,,,,,,,,,,,,masks/mask_004.jpg,,,,,,,,,,,,,,,,,,,,,,,,,,,,,,,,,,,,,,,,,,,0,0,0,3,1,,,,,,,,,,,,,,,,,,,,,,,,,,,,,,,,,,,,,,,,,,,,,,
202383,001,2022-11-21_24h03.17.263,Info_measure_main_exp,2022.2.2,Win32,59.62673663,,,,,,,,,,,,,,,,,,masks/mask_003.jpg,,,,,,,,,,,,,,,,,,,,,,,,,,,,,,,,,,,,,,,,,,,0,1,1,2,1,,,,,,,,,,,,,,,,,,,,,,,,,,,,,,,,,,,,,,,,,,,,,,
202383,001,2022-11-21_24h03.17.263,Info_measure_main_exp,2022.2.2,Win32,59.62673663,,,,,,,,,,,,,,,,,,masks/mask_002.jpg,,,,,,,,,,,,,,,,,,,,,,,,,,,,,,,,,,,,,,,,,,,0,2,2,1,1,,,,,,,,,,,,,,,,,,,,,,,,,,,,,,,,,,,,,,,,,,,,,,
202383,001,2022-11-21_24h03.17.263,Info_measure_main_exp,2022.2.2,Win32,59.62673663,,,,,,,,,,,,,,,,,,masks/mask_005.jpg,,,,,,,,,,,,,,,,,,,,,,,,,,,,,,,,,,,,,,,,,,,0,3,3,4,1,,,,,,,,,,,,,,,,,,,,,,,,,,,,,,,,,,,,,,,,,,,,,,
202383,001,2022-11-21_24h03.17.263,Info_measure_main_exp,2022.2.2,Win32,59.62673663,,,,,,,,,,,,,,,,,,masks/mask_001.jpg,,,,,,,,,,,,,,,,,,,,,,,,,,,,,,,,,,,,,,,,,,,0,4,4,0,1,,,,,,,,,,,,,,,,,,,,,,,,,,,,,,,,,,,,,,,,,,,,,,
202383,001,2022-11-21_24h03.17.263,Info_measure_main_exp,2022.2.2,Win32,59.62673663,,,,,,,,,,,,,,,,,,masks/mask_003.jpg,,,,,,,,,,,,,,,,,,,,,,,,,,,,,,,,,,,,,,,,,,,,,,,,0,0,0,2,1,,,,,,,,,,,,,,,,,,,,,,,,,,,,,,,,,,,,,,,,,
202383,001,2022-11-21_24h03.17.263,Info_measure_main_exp,2022.2.2,Win32,59.62673663,,,,,,,,,,,,,,,,,,masks/mask_002.jpg,,,,,,,,,,,,,,,,,,,,,,,,,,,,,,,,,,,,,,,,,,,,,,,,0,1,1,1,1,,,,,,,,,,,,,,,,,,,,,,,,,,,,,,,,,,,,,,,,,
202383,001,2022-11-21_24h03.17.263,Info_measure_main_exp,2022.2.2,Win32,59.62673663,,,,,,,,,,,,,,,,,,masks/mask_001.jpg,,,,,,,,,,,,,,,,,,,,,,,,,,,,,,,,,,,,,,,,,,,,,,,,0,2,2,0,1,,,,,,,,,,,,,,,,,,,,,,,,,,,,,,,,,,,,,,,,,
202383,001,2022-11-21_24h03.17.263,Info_measure_main_exp,2022.2.2,Win32,59.62673663,,,,,,,,,,,,,,,,,,masks/mask_004.jpg,,,,,,,,,,,,,,,,,,,,,,,,,,,,,,,,,,,,,,,,,,,,,,,,0,3,3,3,1,,,,,,,,,,,,,,,,,,,,,,,,,,,,,,,,,,,,,,,,,
202383,001,2022-11-21_24h03.17.263,Info_measure_main_exp,2022.2.2,Win32,59.62673663,,,,,,,,,,,,,,,,,,masks/mask_005.jpg,,,,,,,,,,,,,,,,,,,,,,,,,,,,,,,,,,,,,,,,,,,,,,,,0,4,4,4,1,,,,,,,,,,,,,,,,,,,,,,,,,,,,,,,,,,,,,,,,,
202383,001,2022-11-21_24h03.17.263,Info_measure_main_exp,2022.2.2,Win32,59.62673663,,,,,,,,,,,,,,,,,,,,,,,,,,,,,,6,1.6833,1,,,,,,,,,,,,0,131,5,5,2178,1986,absent_patch/patch0002178.jpg,absent_patch/patch0001986.jpg,,,,,,,,,,,,,,,,,,,,0.089814857,0.034259266,1,0,0,response1disk,1,0.00462963,0.001851859,1,0,0,center_square,0,0,0,46,1,,,,,,,,,,,,,,,,,,,,,,,
202383,001,2022-11-21_24h03.17.263,Info_measure_main_exp,2022.2.2,Win32,59.62673663,,,,,,,,,,,,,,,,,,masks/mask_001.jpg,,,,,,,,,,,,,,,,,,,,,,,,,,,,,,,,,,,,,,,,,,,0,0,0,0,1,,,,,,,,,,,,,,,,,,,,,,,,,,,,,,,,,,,,,,,,,,,,,,
202383,001,2022-11-21_24h03.17.263,Info_measure_main_exp,2022.2.2,Win32,59.62673663,,,,,,,,,,,,,,,,,,masks/mask_005.jpg,,,,,,,,,,,,,,,,,,,,,,,,,,,,,,,,,,,,,,,,,,,0,1,1,4,1,,,,,,,,,,,,,,,,,,,,,,,,,,,,,,,,,,,,,,,,,,,,,,
202383,001,2022-11-21_24h03.17.263,Info_measure_main_exp,2022.2.2,Win32,59.62673663,,,,,,,,,,,,,,,,,,masks/mask_004.jpg,,,,,,,,,,,,,,,,,,,,,,,,,,,,,,,,,,,,,,,,,,,0,2,2,3,1,,,,,,,,,,,,,,,,,,,,,,,,,,,,,,,,,,,,,,,,,,,,,,
202383,001,2022-11-21_24h03.17.263,Info_measure_main_exp,2022.2.2,Win32,59.62673663,,,,,,,,,,,,,,,,,,masks/mask_002.jpg,,,,,,,,,,,,,,,,,,,,,,,,,,,,,,,,,,,,,,,,,,,0,3,3,1,1,,,,,,,,,,,,,,,,,,,,,,,,,,,,,,,,,,,,,,,,,,,,,,
202383,001,2022-11-21_24h03.17.263,Info_measure_main_exp,2022.2.2,Win32,59.62673663,,,,,,,,,,,,,,,,,,masks/mask_003.jpg,,,,,,,,,,,,,,,,,,,,,,,,,,,,,,,,,,,,,,,,,,,0,4,4,2,1,,,,,,,,,,,,,,,,,,,,,,,,,,,,,,,,,,,,,,,,,,,,,,
202383,001,2022-11-21_24h03.17.263,Info_measure_main_exp,2022.2.2,Win32,59.62673663,,,,,,,,,,,,,,,,,,masks/mask_004.jpg,,,,,,,,,,,,,,,,,,,,,,,,,,,,,,,,,,,,,,,,,,,,,,,,0,0,0,3,1,,,,,,,,,,,,,,,,,,,,,,,,,,,,,,,,,,,,,,,,,
202383,001,2022-11-21_24h03.17.263,Info_measure_main_exp,2022.2.2,Win32,59.62673663,,,,,,,,,,,,,,,,,,masks/mask_002.jpg,,,,,,,,,,,,,,,,,,,,,,,,,,,,,,,,,,,,,,,,,,,,,,,,0,1,1,1,1,,,,,,,,,,,,,,,,,,,,,,,,,,,,,,,,,,,,,,,,,
202383,001,2022-11-21_24h03.17.263,Info_measure_main_exp,2022.2.2,Win32,59.62673663,,,,,,,,,,,,,,,,,,masks/mask_005.jpg,,,,,,,,,,,,,,,,,,,,,,,,,,,,,,,,,,,,,,,,,,,,,,,,0,2,2,4,1,,,,,,,,,,,,,,,,,,,,,,,,,,,,,,,,,,,,,,,,,
202383,001,2022-11-21_24h03.17.263,Info_measure_main_exp,2022.2.2,Win32,59.62673663,,,,,,,,,,,,,,,,,,masks/mask_003.jpg,,,,,,,,,,,,,,,,,,,,,,,,,,,,,,,,,,,,,,,,,,,,,,,,0,3,3,2,1,,,,,,,,,,,,,,,,,,,,,,,,,,,,,,,,,,,,,,,,,
202383,001,2022-11-21_24h03.17.263,Info_measure_main_exp,2022.2.2,Win32,59.62673663,,,,,,,,,,,,,,,,,,masks/mask_001.jpg,,,,,,,,,,,,,,,,,,,,,,,,,,,,,,,,,,,,,,,,,,,,,,,,0,4,4,0,1,,,,,,,,,,,,,,,,,,,,,,,,,,,,,,,,,,,,,,,,,
202383,001,2022-11-21_24h03.17.263,Info_measure_main_exp,2022.2.2,Win32,59.62673663,,,,,,,,,,,,,,,,,,,,,,,,,,,,,,6,1.4004,1,,,,,,,,,,,,0,131,5,5,1974,2166,absent_patch/patch0001974.jpg,absent_patch/patch0002166.jpg,,,,,,,,,,,,,,,,,,,,0.064814815,0.021296289,1,0,0,response1disk,2,-0.002777735,0.001851859,1,0,0,center_square,0,1,1,77,1,,,,,,,,,,,,,,,,,,,,,,,
202383,001,2022-11-21_24h03.17.263,Info_measure_main_exp,2022.2.2,Win32,59.62673663,,,,,,,,,,,,,,,,,,masks/mask_003.jpg,,,,,,,,,,,,,,,,,,,,,,,,,,,,,,,,,,,,,,,,,,,0,0,0,2,1,,,,,,,,,,,,,,,,,,,,,,,,,,,,,,,,,,,,,,,,,,,,,,
202383,001,2022-11-21_24h03.17.263,Info_measure_main_exp,2022.2.2,Win32,59.62673663,,,,,,,,,,,,,,,,,,masks/mask_002.jpg,,,,,,,,,,,,,,,,,,,,,,,,,,,,,,,,,,,,,,,,,,,0,1,1,1,1,,,,,,,,,,,,,,,,,,,,,,,,,,,,,,,,,,,,,,,,,,,,,,
202383,001,2022-11-21_24h03.17.263,Info_measure_main_exp,2022.2.2,Win32,59.62673663,,,,,,,,,,,,,,,,,,masks/mask_005.jpg,,,,,,,,,,,,,,,,,,,,,,,,,,,,,,,,,,,,,,,,,,,0,2,2,4,1,,,,,,,,,,,,,,,,,,,,,,,,,,,,,,,,,,,,,,,,,,,,,,
202383,001,2022-11-21_24h03.17.263,Info_measure_main_exp,2022.2.2,Win32,59.62673663,,,,,,,,,,,,,,,,,,masks/mask_004.jpg,,,,,,,,,,,,,,,,,,,,,,,,,,,,,,,,,,,,,,,,,,,0,3,3,3,1,,,,,,,,,,,,,,,,,,,,,,,,,,,,,,,,,,,,,,,,,,,,,,
202383,001,2022-11-21_24h03.17.263,Info_measure_main_exp,2022.2.2,Win32,59.62673663,,,,,,,,,,,,,,,,,,masks/mask_001.jpg,,,,,,,,,,,,,,,,,,,,,,,,,,,,,,,,,,,,,,,,,,,0,4,4,0,1,,,,,,,,,,,,,,,,,,,,,,,,,,,,,,,,,,,,,,,,,,,,,,
202383,001,2022-11-21_24h03.17.263,Info_measure_main_exp,2022.2.2,Win32,59.62673663,,,,,,,,,,,,,,,,,,masks/mask_004.jpg,,,,,,,,,,,,,,,,,,,,,,,,,,,,,,,,,,,,,,,,,,,,,,,,0,0,0,3,1,,,,,,,,,,,,,,,,,,,,,,,,,,,,,,,,,,,,,,,,,
202383,001,2022-11-21_24h03.17.263,Info_measure_main_exp,2022.2.2,Win32,59.62673663,,,,,,,,,,,,,,,,,,masks/mask_003.jpg,,,,,,,,,,,,,,,,,,,,,,,,,,,,,,,,,,,,,,,,,,,,,,,,0,1,1,2,1,,,,,,,,,,,,,,,,,,,,,,,,,,,,,,,,,,,,,,,,,
202383,001,2022-11-21_24h03.17.263,Info_measure_main_exp,2022.2.2,Win32,59.62673663,,,,,,,,,,,,,,,,,,masks/mask_002.jpg,,,,,,,,,,,,,,,,,,,,,,,,,,,,,,,,,,,,,,,,,,,,,,,,0,2,2,1,1,,,,,,,,,,,,,,,,,,,,,,,,,,,,,,,,,,,,,,,,,
202383,001,2022-11-21_24h03.17.263,Info_measure_main_exp,2022.2.2,Win32,59.62673663,,,,,,,,,,,,,,,,,,masks/mask_001.jpg,,,,,,,,,,,,,,,,,,,,,,,,,,,,,,,,,,,,,,,,,,,,,,,,0,3,3,0,1,,,,,,,,,,,,,,,,,,,,,,,,,,,,,,,,,,,,,,,,,
202383,001,2022-11-21_24h03.17.263,Info_measure_main_exp,2022.2.2,Win32,59.62673663,,,,,,,,,,,,,,,,,,masks/mask_005.jpg,,,,,,,,,,,,,,,,,,,,,,,,,,,,,,,,,,,,,,,,,,,,,,,,0,4,4,4,1,,,,,,,,,,,,,,,,,,,,,,,,,,,,,,,,,,,,,,,,,
202383,001,2022-11-21_24h03.17.263,Info_measure_main_exp,2022.2.2,Win32,59.62673663,,,,,,,,,,,,,,,,,,,,,,,,,,,,,,2,1.4,1,,,,,,,,,,,,0,131,5,5,2274,2154,absent_patch/patch0002274.jpg,absent_patch/patch0002154.jpg,,,,,,,,,,,,,,,,,,,,-0.092592593,-0.030555548,1,0,0,response5disk,3,0.003703718,0,1,0,0,center_square,0,2,2,23,1,,,,,,,,,,,,,,,,,,,,,,,
202383,001,2022-11-21_24h03.17.263,Info_measure_main_exp,2022.2.2,Win32,59.62673663,,,,,,,,,,,,,,,,,,masks/mask_001.jpg,,,,,,,,,,,,,,,,,,,,,,,,,,,,,,,,,,,,,,,,,,,0,0,0,0,1,,,,,,,,,,,,,,,,,,,,,,,,,,,,,,,,,,,,,,,,,,,,,,
202383,001,2022-11-21_24h03.17.263,Info_measure_main_exp,2022.2.2,Win32,59.62673663,,,,,,,,,,,,,,,,,,masks/mask_004.jpg,,,,,,,,,,,,,,,,,,,,,,,,,,,,,,,,,,,,,,,,,,,0,1,1,3,1,,,,,,,,,,,,,,,,,,,,,,,,,,,,,,,,,,,,,,,,,,,,,,
202383,001,2022-11-21_24h03.17.263,Info_measure_main_exp,2022.2.2,Win32,59.62673663,,,,,,,,,,,,,,,,,,masks/mask_005.jpg,,,,,,,,,,,,,,,,,,,,,,,,,,,,,,,,,,,,,,,,,,,0,2,2,4,1,,,,,,,,,,,,,,,,,,,,,,,,,,,,,,,,,,,,,,,,,,,,,,
202383,001,2022-11-21_24h03.17.263,Info_measure_main_exp,2022.2.2,Win32,59.62673663,,,,,,,,,,,,,,,,,,masks/mask_002.jpg,,,,,,,,,,,,,,,,,,,,,,,,,,,,,,,,,,,,,,,,,,,0,3,3,1,1,,,,,,,,,,,,,,,,,,,,,,,,,,,,,,,,,,,,,,,,,,,,,,
202383,001,2022-11-21_24h03.17.263,Info_measure_main_exp,2022.2.2,Win32,59.62673663,,,,,,,,,,,,,,,,,,masks/mask_003.jpg,,,,,,,,,,,,,,,,,,,,,,,,,,,,,,,,,,,,,,,,,,,0,4,4,2,1,,,,,,,,,,,,,,,,,,,,,,,,,,,,,,,,,,,,,,,,,,,,,,
202383,001,2022-11-21_24h03.17.263,Info_measure_main_exp,2022.2.2,Win32,59.62673663,,,,,,,,,,,,,,,,,,masks/mask_003.jpg,,,,,,,,,,,,,,,,,,,,,,,,,,,,,,,,,,,,,,,,,,,,,,,,0,0,0,2,1,,,,,,,,,,,,,,,,,,,,,,,,,,,,,,,,,,,,,,,,,
202383,001,2022-11-21_24h03.17.263,Info_measure_main_exp,2022.2.2,Win32,59.62673663,,,,,,,,,,,,,,,,,,masks/mask_005.jpg,,,,,,,,,,,,,,,,,,,,,,,,,,,,,,,,,,,,,,,,,,,,,,,,0,1,1,4,1,,,,,,,,,,,,,,,,,,,,,,,,,,,,,,,,,,,,,,,,,
202383,001,2022-11-21_24h03.17.263,Info_measure_main_exp,2022.2.2,Win32,59.62673663,,,,,,,,,,,,,,,,,,masks/mask_002.jpg,,,,,,,,,,,,,,,,,,,,,,,,,,,,,,,,,,,,,,,,,,,,,,,,0,2,2,1,1,,,,,,,,,,,,,,,,,,,,,,,,,,,,,,,,,,,,,,,,,
202383,001,2022-11-21_24h03.17.263,Info_measure_main_exp,2022.2.2,Win32,59.62673663,,,,,,,,,,,,,,,,,,masks/mask_004.jpg,,,,,,,,,,,,,,,,,,,,,,,,,,,,,,,,,,,,,,,,,,,,,,,,0,3,3,3,1,,,,,,,,,,,,,,,,,,,,,,,,,,,,,,,,,,,,,,,,,
202383,001,2022-11-21_24h03.17.263,Info_measure_main_exp,2022.2.2,Win32,59.62673663,,,,,,,,,,,,,,,,,,masks/mask_001.jpg,,,,,,,,,,,,,,,,,,,,,,,,,,,,,,,,,,,,,,,,,,,,,,,,0,4,4,0,1,,,,,,,,,,,,,,,,,,,,,,,,,,,,,,,,,,,,,,,,,
202383,001,2022-11-21_24h03.17.263,Info_measure_main_exp,2022.2.2,Win32,59.62673663,,,,,,,,,,,,,,,,,,,,,,,,,,,,,,4,2.1329,1,,,,,,,,,,,,0,131,5,5,2250,2142,absent_patch/patch0002250.jpg,absent_patch/patch0002142.jpg,,,,,,,,,,,,,,,,,,,,0.056481467,-0.086111104,1,0,0,response3disk,4,0.000925912,0,1,0,0,center_square,0,3,3,71,1,,,,,,,,,,,,,,,,,,,,,,,
202383,001,2022-11-21_24h03.17.263,Info_measure_main_exp,2022.2.2,Win32,59.62673663,,,,,,,,,,,,,,,,,,masks/mask_005.jpg,,,,,,,,,,,,,,,,,,,,,,,,,,,,,,,,,,,,,,,,,,,0,0,0,4,1,,,,,,,,,,,,,,,,,,,,,,,,,,,,,,,,,,,,,,,,,,,,,,
202383,001,2022-11-21_24h03.17.263,Info_measure_main_exp,2022.2.2,Win32,59.62673663,,,,,,,,,,,,,,,,,,masks/mask_001.jpg,,,,,,,,,,,,,,,,,,,,,,,,,,,,,,,,,,,,,,,,,,,0,1,1,0,1,,,,,,,,,,,,,,,,,,,,,,,,,,,,,,,,,,,,,,,,,,,,,,
202383,001,2022-11-21_24h03.17.263,Info_measure_main_exp,2022.2.2,Win32,59.62673663,,,,,,,,,,,,,,,,,,masks/mask_003.jpg,,,,,,,,,,,,,,,,,,,,,,,,,,,,,,,,,,,,,,,,,,,0,2,2,2,1,,,,,,,,,,,,,,,,,,,,,,,,,,,,,,,,,,,,,,,,,,,,,,
202383,001,2022-11-21_24h03.17.263,Info_measure_main_exp,2022.2.2,Win32,59.62673663,,,,,,,,,,,,,,,,,,masks/mask_002.jpg,,,,,,,,,,,,,,,,,,,,,,,,,,,,,,,,,,,,,,,,,,,0,3,3,1,1,,,,,,,,,,,,,,,,,,,,,,,,,,,,,,,,,,,,,,,,,,,,,,
202383,001,2022-11-21_24h03.17.263,Info_measure_main_exp,2022.2.2,Win32,59.62673663,,,,,,,,,,,,,,,,,,masks/mask_004.jpg,,,,,,,,,,,,,,,,,,,,,,,,,,,,,,,,,,,,,,,,,,,0,4,4,3,1,,,,,,,,,,,,,,,,,,,,,,,,,,,,,,,,,,,,,,,,,,,,,,
202383,001,2022-11-21_24h03.17.263,Info_measure_main_exp,2022.2.2,Win32,59.62673663,,,,,,,,,,,,,,,,,,masks/mask_002.jpg,,,,,,,,,,,,,,,,,,,,,,,,,,,,,,,,,,,,,,,,,,,,,,,,0,0,0,1,1,,,,,,,,,,,,,,,,,,,,,,,,,,,,,,,,,,,,,,,,,
202383,001,2022-11-21_24h03.17.263,Info_measure_main_exp,2022.2.2,Win32,59.62673663,,,,,,,,,,,,,,,,,,masks/mask_001.jpg,,,,,,,,,,,,,,,,,,,,,,,,,,,,,,,,,,,,,,,,,,,,,,,,0,1,1,0,1,,,,,,,,,,,,,,,,,,,,,,,,,,,,,,,,,,,,,,,,,
202383,001,2022-11-21_24h03.17.263,Info_measure_main_exp,2022.2.2,Win32,59.62673663,,,,,,,,,,,,,,,,,,masks/mask_005.jpg,,,,,,,,,,,,,,,,,,,,,,,,,,,,,,,,,,,,,,,,,,,,,,,,0,2,2,4,1,,,,,,,,,,,,,,,,,,,,,,,,,,,,,,,,,,,,,,,,,
202383,001,2022-11-21_24h03.17.263,Info_measure_main_exp,2022.2.2,Win32,59.62673663,,,,,,,,,,,,,,,,,,masks/mask_004.jpg,,,,,,,,,,,,,,,,,,,,,,,,,,,,,,,,,,,,,,,,,,,,,,,,0,3,3,3,1,,,,,,,,,,,,,,,,,,,,,,,,,,,,,,,,,,,,,,,,,
202383,001,2022-11-21_24h03.17.263,Info_measure_main_exp,2022.2.2,Win32,59.62673663,,,,,,,,,,,,,,,,,,masks/mask_003.jpg,,,,,,,,,,,,,,,,,,,,,,,,,,,,,,,,,,,,,,,,,,,,,,,,0,4,4,2,1,,,,,,,,,,,,,,,,,,,,,,,,,,,,,,,,,,,,,,,,,
202383,001,2022-11-21_24h03.17.263,Info_measure_main_exp,2022.2.2,Win32,59.62673663,,,,,,,,,,,,,,,,,,,,,,,,,,,,,,4,1.5999,1,,,,,,,,,,,,0,131,5,5,2250,1950,absent_patch/patch0002250.jpg,absent_patch/patch0001950.jpg,,,,,,,,,,,,,,,,,,,,0.020370413,-0.068518533,1,0,0,response3disk,5,0.001851894,0.000925912,1,0,0,center_square,0,4,4,16,1,,,,,,,,,,,,,,,,,,,,,,,
202383,001,2022-11-21_24h03.17.263,Info_measure_main_exp,2022.2.2,Win32,59.62673663,,,,,,,,,,,,,,,,,,masks/mask_002.jpg,,,,,,,,,,,,,,,,,,,,,,,,,,,,,,,,,,,,,,,,,,,0,0,0,1,1,,,,,,,,,,,,,,,,,,,,,,,,,,,,,,,,,,,,,,,,,,,,,,
202383,001,2022-11-21_24h03.17.263,Info_measure_main_exp,2022.2.2,Win32,59.62673663,,,,,,,,,,,,,,,,,,masks/mask_003.jpg,,,,,,,,,,,,,,,,,,,,,,,,,,,,,,,,,,,,,,,,,,,0,1,1,2,1,,,,,,,,,,,,,,,,,,,,,,,,,,,,,,,,,,,,,,,,,,,,,,
202383,001,2022-11-21_24h03.17.263,Info_measure_main_exp,2022.2.2,Win32,59.62673663,,,,,,,,,,,,,,,,,,masks/mask_001.jpg,,,,,,,,,,,,,,,,,,,,,,,,,,,,,,,,,,,,,,,,,,,0,2,2,0,1,,,,,,,,,,,,,,,,,,,,,,,,,,,,,,,,,,,,,,,,,,,,,,
202383,001,2022-11-21_24h03.17.263,Info_measure_main_exp,2022.2.2,Win32,59.62673663,,,,,,,,,,,,,,,,,,masks/mask_004.jpg,,,,,,,,,,,,,,,,,,,,,,,,,,,,,,,,,,,,,,,,,,,0,3,3,3,1,,,,,,,,,,,,,,,,,,,,,,,,,,,,,,,,,,,,,,,,,,,,,,
202383,001,2022-11-21_24h03.17.263,Info_measure_main_exp,2022.2.2,Win32,59.62673663,,,,,,,,,,,,,,,,,,masks/mask_005.jpg,,,,,,,,,,,,,,,,,,,,,,,,,,,,,,,,,,,,,,,,,,,0,4,4,4,1,,,,,,,,,,,,,,,,,,,,,,,,,,,,,,,,,,,,,,,,,,,,,,
202383,001,2022-11-21_24h03.17.263,Info_measure_main_exp,2022.2.2,Win32,59.62673663,,,,,,,,,,,,,,,,,,masks/mask_001.jpg,,,,,,,,,,,,,,,,,,,,,,,,,,,,,,,,,,,,,,,,,,,,,,,,0,0,0,0,1,,,,,,,,,,,,,,,,,,,,,,,,,,,,,,,,,,,,,,,,,
202383,001,2022-11-21_24h03.17.263,Info_measure_main_exp,2022.2.2,Win32,59.62673663,,,,,,,,,,,,,,,,,,masks/mask_004.jpg,,,,,,,,,,,,,,,,,,,,,,,,,,,,,,,,,,,,,,,,,,,,,,,,0,1,1,3,1,,,,,,,,,,,,,,,,,,,,,,,,,,,,,,,,,,,,,,,,,
202383,001,2022-11-21_24h03.17.263,Info_measure_main_exp,2022.2.2,Win32,59.62673663,,,,,,,,,,,,,,,,,,masks/mask_003.jpg,,,,,,,,,,,,,,,,,,,,,,,,,,,,,,,,,,,,,,,,,,,,,,,,0,2,2,2,1,,,,,,,,,,,,,,,,,,,,,,,,,,,,,,,,,,,,,,,,,
202383,001,2022-11-21_24h03.17.263,Info_measure_main_exp,2022.2.2,Win32,59.62673663,,,,,,,,,,,,,,,,,,masks/mask_005.jpg,,,,,,,,,,,,,,,,,,,,,,,,,,,,,,,,,,,,,,,,,,,,,,,,0,3,3,4,1,,,,,,,,,,,,,,,,,,,,,,,,,,,,,,,,,,,,,,,,,
202383,001,2022-11-21_24h03.17.263,Info_measure_main_exp,2022.2.2,Win32,59.62673663,,,,,,,,,,,,,,,,,,masks/mask_002.jpg,,,,,,,,,,,,,,,,,,,,,,,,,,,,,,,,,,,,,,,,,,,,,,,,0,4,4,1,1,,,,,,,,,,,,,,,,,,,,,,,,,,,,,,,,,,,,,,,,,
202383,001,2022-11-21_24h03.17.263,Info_measure_main_exp,2022.2.2,Win32,59.62673663,,,,,,,,,,,,,,,,,,,,,,,,,,,,,,3,1.6837,1,,,,,,,,,,,,0,131,5,5,2166,1986,absent_patch/patch0002166.jpg,absent_patch/patch0001986.jpg,,,,,,,,,,,,,,,,,,,,-0.034259231,-0.053703697,1,0,0,response5disk,6,0.005555541,0.00462963,1,0,0,center_square,0,5,5,47,1,,,,,,,,,,,,,,,,,,,,,,,
202383,001,2022-11-21_24h03.17.263,Info_measure_main_exp,2022.2.2,Win32,59.62673663,,,,,,,,,,,,,,,,,,masks/mask_001.jpg,,,,,,,,,,,,,,,,,,,,,,,,,,,,,,,,,,,,,,,,,,,0,0,0,0,1,,,,,,,,,,,,,,,,,,,,,,,,,,,,,,,,,,,,,,,,,,,,,,
202383,001,2022-11-21_24h03.17.263,Info_measure_main_exp,2022.2.2,Win32,59.62673663,,,,,,,,,,,,,,,,,,masks/mask_005.jpg,,,,,,,,,,,,,,,,,,,,,,,,,,,,,,,,,,,,,,,,,,,0,1,1,4,1,,,,,,,,,,,,,,,,,,,,,,,,,,,,,,,,,,,,,,,,,,,,,,
202383,001,2022-11-21_24h03.17.263,Info_measure_main_exp,2022.2.2,Win32,59.62673663,,,,,,,,,,,,,,,,,,masks/mask_004.jpg,,,,,,,,,,,,,,,,,,,,,,,,,,,,,,,,,,,,,,,,,,,0,2,2,3,1,,,,,,,,,,,,,,,,,,,,,,,,,,,,,,,,,,,,,,,,,,,,,,
202383,001,2022-11-21_24h03.17.263,Info_measure_main_exp,2022.2.2,Win32,59.62673663,,,,,,,,,,,,,,,,,,masks/mask_003.jpg,,,,,,,,,,,,,,,,,,,,,,,,,,,,,,,,,,,,,,,,,,,0,3,3,2,1,,,,,,,,,,,,,,,,,,,,,,,,,,,,,,,,,,,,,,,,,,,,,,
202383,001,2022-11-21_24h03.17.263,Info_measure_main_exp,2022.2.2,Win32,59.62673663,,,,,,,,,,,,,,,,,,masks/mask_002.jpg,,,,,,,,,,,,,,,,,,,,,,,,,,,,,,,,,,,,,,,,,,,0,4,4,1,1,,,,,,,,,,,,,,,,,,,,,,,,,,,,,,,,,,,,,,,,,,,,,,
202383,001,2022-11-21_24h03.17.263,Info_measure_main_exp,2022.2.2,Win32,59.62673663,,,,,,,,,,,,,,,,,,masks/mask_004.jpg,,,,,,,,,,,,,,,,,,,,,,,,,,,,,,,,,,,,,,,,,,,,,,,,0,0,0,3,1,,,,,,,,,,,,,,,,,,,,,,,,,,,,,,,,,,,,,,,,,
202383,001,2022-11-21_24h03.17.263,Info_measure_main_exp,2022.2.2,Win32,59.62673663,,,,,,,,,,,,,,,,,,masks/mask_001.jpg,,,,,,,,,,,,,,,,,,,,,,,,,,,,,,,,,,,,,,,,,,,,,,,,0,1,1,0,1,,,,,,,,,,,,,,,,,,,,,,,,,,,,,,,,,,,,,,,,,
202383,001,2022-11-21_24h03.17.263,Info_measure_main_exp,2022.2.2,Win32,59.62673663,,,,,,,,,,,,,,,,,,masks/mask_005.jpg,,,,,,,,,,,,,,,,,,,,,,,,,,,,,,,,,,,,,,,,,,,,,,,,0,2,2,4,1,,,,,,,,,,,,,,,,,,,,,,,,,,,,,,,,,,,,,,,,,
202383,001,2022-11-21_24h03.17.263,Info_measure_main_exp,2022.2.2,Win32,59.62673663,,,,,,,,,,,,,,,,,,masks/mask_003.jpg,,,,,,,,,,,,,,,,,,,,,,,,,,,,,,,,,,,,,,,,,,,,,,,,0,3,3,2,1,,,,,,,,,,,,,,,,,,,,,,,,,,,,,,,,,,,,,,,,,
202383,001,2022-11-21_24h03.17.263,Info_measure_main_exp,2022.2.2,Win32,59.62673663,,,,,,,,,,,,,,,,,,masks/mask_002.jpg,,,,,,,,,,,,,,,,,,,,,,,,,,,,,,,,,,,,,,,,,,,,,,,,0,4,4,1,1,,,,,,,,,,,,,,,,,,,,,,,,,,,,,,,,,,,,,,,,,
202383,001,2022-11-21_24h03.17.263,Info_measure_main_exp,2022.2.2,Win32,59.62673663,,,,,,,,,,,,,,,,,,,,,,,,,,,,,,6,1.7999,1,,,,,,,,,,,,0,131,5,5,1974,2238,absent_patch/patch0001974.jpg,absent_patch/patch0002238.jpg,,,,,,,,,,,,,,,,,,,,0.117592635,0.022222201,1,0,0,response1disk,7,0.000925912,-0.002777771,1,0,0,center_square,0,6,6,95,1,,,,,,,,,,,,,,,,,,,,,,,
202383,001,2022-11-21_24h03.17.263,Info_measure_main_exp,2022.2.2,Win32,59.62673663,,,,,,,,,,,,,,,,,,masks/mask_004.jpg,,,,,,,,,,,,,,,,,,,,,,,,,,,,,,,,,,,,,,,,,,,0,0,0,3,1,,,,,,,,,,,,,,,,,,,,,,,,,,,,,,,,,,,,,,,,,,,,,,
202383,001,2022-11-21_24h03.17.263,Info_measure_main_exp,2022.2.2,Win32,59.62673663,,,,,,,,,,,,,,,,,,masks/mask_003.jpg,,,,,,,,,,,,,,,,,,,,,,,,,,,,,,,,,,,,,,,,,,,0,1,1,2,1,,,,,,,,,,,,,,,,,,,,,,,,,,,,,,,,,,,,,,,,,,,,,,
202383,001,2022-11-21_24h03.17.263,Info_measure_main_exp,2022.2.2,Win32,59.62673663,,,,,,,,,,,,,,,,,,masks/mask_002.jpg,,,,,,,,,,,,,,,,,,,,,,,,,,,,,,,,,,,,,,,,,,,0,2,2,1,1,,,,,,,,,,,,,,,,,,,,,,,,,,,,,,,,,,,,,,,,,,,,,,
202383,001,2022-11-21_24h03.17.263,Info_measure_main_exp,2022.2.2,Win32,59.62673663,,,,,,,,,,,,,,,,,,masks/mask_005.jpg,,,,,,,,,,,,,,,,,,,,,,,,,,,,,,,,,,,,,,,,,,,0,3,3,4,1,,,,,,,,,,,,,,,,,,,,,,,,,,,,,,,,,,,,,,,,,,,,,,
202383,001,2022-11-21_24h03.17.263,Info_measure_main_exp,2022.2.2,Win32,59.62673663,,,,,,,,,,,,,,,,,,masks/mask_001.jpg,,,,,,,,,,,,,,,,,,,,,,,,,,,,,,,,,,,,,,,,,,,0,4,4,0,1,,,,,,,,,,,,,,,,,,,,,,,,,,,,,,,,,,,,,,,,,,,,,,
202383,001,2022-11-21_24h03.17.263,Info_measure_main_exp,2022.2.2,Win32,59.62673663,,,,,,,,,,,,,,,,,,masks/mask_002.jpg,,,,,,,,,,,,,,,,,,,,,,,,,,,,,,,,,,,,,,,,,,,,,,,,0,0,0,1,1,,,,,,,,,,,,,,,,,,,,,,,,,,,,,,,,,,,,,,,,,
202383,001,2022-11-21_24h03.17.263,Info_measure_main_exp,2022.2.2,Win32,59.62673663,,,,,,,,,,,,,,,,,,masks/mask_004.jpg,,,,,,,,,,,,,,,,,,,,,,,,,,,,,,,,,,,,,,,,,,,,,,,,0,1,1,3,1,,,,,,,,,,,,,,,,,,,,,,,,,,,,,,,,,,,,,,,,,
202383,001,2022-11-21_24h03.17.263,Info_measure_main_exp,2022.2.2,Win32,59.62673663,,,,,,,,,,,,,,,,,,masks/mask_003.jpg,,,,,,,,,,,,,,,,,,,,,,,,,,,,,,,,,,,,,,,,,,,,,,,,0,2,2,2,1,,,,,,,,,,,,,,,,,,,,,,,,,,,,,,,,,,,,,,,,,
202383,001,2022-11-21_24h03.17.263,Info_measure_main_exp,2022.2.2,Win32,59.62673663,,,,,,,,,,,,,,,,,,masks/mask_005.jpg,,,,,,,,,,,,,,,,,,,,,,,,,,,,,,,,,,,,,,,,,,,,,,,,0,3,3,4,1,,,,,,,,,,,,,,,,,,,,,,,,,,,,,,,,,,,,,,,,,
202383,001,2022-11-21_24h03.17.263,Info_measure_main_exp,2022.2.2,Win32,59.62673663,,,,,,,,,,,,,,,,,,masks/mask_001.jpg,,,,,,,,,,,,,,,,,,,,,,,,,,,,,,,,,,,,,,,,,,,,,,,,0,4,4,0,1,,,,,,,,,,,,,,,,,,,,,,,,,,,,,,,,,,,,,,,,,
202383,001,2022-11-21_24h03.17.263,Info_measure_main_exp,2022.2.2,Win32,59.62673663,,,,,,,,,,,,,,,,,,,,,,,,,,,,,,0,0.85,1,,,,,,,,,,,,0,131,5,5,2154,2154,absent_patch/patch0002154.jpg,absent_patch/patch0002154.jpg,,,,,,,,,,,,,,,,,,,,-0.026851866,0.094444452,1,0,0,response7disk,8,0.00462963,-0.002777771,1,0,0,center_square,0,7,7,89,1,,,,,,,,,,,,,,,,,,,,,,,
202383,001,2022-11-21_24h03.17.263,Info_measure_main_exp,2022.2.2,Win32,59.62673663,,,,,,,,,,,,,,,,,,masks/mask_004.jpg,,,,,,,,,,,,,,,,,,,,,,,,,,,,,,,,,,,,,,,,,,,0,0,0,3,1,,,,,,,,,,,,,,,,,,,,,,,,,,,,,,,,,,,,,,,,,,,,,,
202383,001,2022-11-21_24h03.17.263,Info_measure_main_exp,2022.2.2,Win32,59.62673663,,,,,,,,,,,,,,,,,,masks/mask_001.jpg,,,,,,,,,,,,,,,,,,,,,,,,,,,,,,,,,,,,,,,,,,,0,1,1,0,1,,,,,,,,,,,,,,,,,,,,,,,,,,,,,,,,,,,,,,,,,,,,,,
202383,001,2022-11-21_24h03.17.263,Info_measure_main_exp,2022.2.2,Win32,59.62673663,,,,,,,,,,,,,,,,,,masks/mask_005.jpg,,,,,,,,,,,,,,,,,,,,,,,,,,,,,,,,,,,,,,,,,,,0,2,2,4,1,,,,,,,,,,,,,,,,,,,,,,,,,,,,,,,,,,,,,,,,,,,,,,
202383,001,2022-11-21_24h03.17.263,Info_measure_main_exp,2022.2.2,Win32,59.62673663,,,,,,,,,,,,,,,,,,masks/mask_003.jpg,,,,,,,,,,,,,,,,,,,,,,,,,,,,,,,,,,,,,,,,,,,0,3,3,2,1,,,,,,,,,,,,,,,,,,,,,,,,,,,,,,,,,,,,,,,,,,,,,,
202383,001,2022-11-21_24h03.17.263,Info_measure_main_exp,2022.2.2,Win32,59.62673663,,,,,,,,,,,,,,,,,,masks/mask_002.jpg,,,,,,,,,,,,,,,,,,,,,,,,,,,,,,,,,,,,,,,,,,,0,4,4,1,1,,,,,,,,,,,,,,,,,,,,,,,,,,,,,,,,,,,,,,,,,,,,,,
202383,001,2022-11-21_24h03.17.263,Info_measure_main_exp,2022.2.2,Win32,59.62673663,,,,,,,,,,,,,,,,,,masks/mask_001.jpg,,,,,,,,,,,,,,,,,,,,,,,,,,,,,,,,,,,,,,,,,,,,,,,,0,0,0,0,1,,,,,,,,,,,,,,,,,,,,,,,,,,,,,,,,,,,,,,,,,
202383,001,2022-11-21_24h03.17.263,Info_measure_main_exp,2022.2.2,Win32,59.62673663,,,,,,,,,,,,,,,,,,masks/mask_004.jpg,,,,,,,,,,,,,,,,,,,,,,,,,,,,,,,,,,,,,,,,,,,,,,,,0,1,1,3,1,,,,,,,,,,,,,,,,,,,,,,,,,,,,,,,,,,,,,,,,,
202383,001,2022-11-21_24h03.17.263,Info_measure_main_exp,2022.2.2,Win32,59.62673663,,,,,,,,,,,,,,,,,,masks/mask_005.jpg,,,,,,,,,,,,,,,,,,,,,,,,,,,,,,,,,,,,,,,,,,,,,,,,0,2,2,4,1,,,,,,,,,,,,,,,,,,,,,,,,,,,,,,,,,,,,,,,,,
202383,001,2022-11-21_24h03.17.263,Info_measure_main_exp,2022.2.2,Win32,59.62673663,,,,,,,,,,,,,,,,,,masks/mask_002.jpg,,,,,,,,,,,,,,,,,,,,,,,,,,,,,,,,,,,,,,,,,,,,,,,,0,3,3,1,1,,,,,,,,,,,,,,,,,,,,,,,,,,,,,,,,,,,,,,,,,
202383,001,2022-11-21_24h03.17.263,Info_measure_main_exp,2022.2.2,Win32,59.62673663,,,,,,,,,,,,,,,,,,masks/mask_003.jpg,,,,,,,,,,,,,,,,,,,,,,,,,,,,,,,,,,,,,,,,,,,,,,,,0,4,4,2,1,,,,,,,,,,,,,,,,,,,,,,,,,,,,,,,,,,,,,,,,,
202383,001,2022-11-21_24h03.17.263,Info_measure_main_exp,2022.2.2,Win32,59.62673663,,,,,,,,,,,,,,,,,,,,,,,,,,,,,,5,1.5499,1,,,,,,,,,,,,0,131,5,5,1974,2214,absent_patch/patch0001974.jpg,absent_patch/patch0002214.jpg,,,,,,,,,,,,,,,,,,,,0.062962991,-0.021296289,1,0,0,response3disk,9,0.002777806,0.000925912,1,0,0,center_square,0,8,8,24,1,,,,,,,,,,,,,,,,,,,,,,,
202383,001,2022-11-21_24h03.17.263,Info_measure_main_exp,2022.2.2,Win32,59.62673663,,,,,,,,,,,,,,,,,,masks/mask_004.jpg,,,,,,,,,,,,,,,,,,,,,,,,,,,,,,,,,,,,,,,,,,,0,0,0,3,1,,,,,,,,,,,,,,,,,,,,,,,,,,,,,,,,,,,,,,,,,,,,,,
202383,001,2022-11-21_24h03.17.263,Info_measure_main_exp,2022.2.2,Win32,59.62673663,,,,,,,,,,,,,,,,,,masks/mask_001.jpg,,,,,,,,,,,,,,,,,,,,,,,,,,,,,,,,,,,,,,,,,,,0,1,1,0,1,,,,,,,,,,,,,,,,,,,,,,,,,,,,,,,,,,,,,,,,,,,,,,
202383,001,2022-11-21_24h03.17.263,Info_measure_main_exp,2022.2.2,Win32,59.62673663,,,,,,,,,,,,,,,,,,masks/mask_003.jpg,,,,,,,,,,,,,,,,,,,,,,,,,,,,,,,,,,,,,,,,,,,0,2,2,2,1,,,,,,,,,,,,,,,,,,,,,,,,,,,,,,,,,,,,,,,,,,,,,,
202383,001,2022-11-21_24h03.17.263,Info_measure_main_exp,2022.2.2,Win32,59.62673663,,,,,,,,,,,,,,,,,,masks/mask_002.jpg,,,,,,,,,,,,,,,,,,,,,,,,,,,,,,,,,,,,,,,,,,,0,3,3,1,1,,,,,,,,,,,,,,,,,,,,,,,,,,,,,,,,,,,,,,,,,,,,,,
202383,001,2022-11-21_24h03.17.263,Info_measure_main_exp,2022.2.2,Win32,59.62673663,,,,,,,,,,,,,,,,,,masks/mask_005.jpg,,,,,,,,,,,,,,,,,,,,,,,,,,,,,,,,,,,,,,,,,,,0,4,4,4,1,,,,,,,,,,,,,,,,,,,,,,,,,,,,,,,,,,,,,,,,,,,,,,
202383,001,2022-11-21_24h03.17.263,Info_measure_main_exp,2022.2.2,Win32,59.62673663,,,,,,,,,,,,,,,,,,masks/mask_003.jpg,,,,,,,,,,,,,,,,,,,,,,,,,,,,,,,,,,,,,,,,,,,,,,,,0,0,0,2,1,,,,,,,,,,,,,,,,,,,,,,,,,,,,,,,,,,,,,,,,,
202383,001,2022-11-21_24h03.17.263,Info_measure_main_exp,2022.2.2,Win32,59.62673663,,,,,,,,,,,,,,,,,,masks/mask_005.jpg,,,,,,,,,,,,,,,,,,,,,,,,,,,,,,,,,,,,,,,,,,,,,,,,0,1,1,4,1,,,,,,,,,,,,,,,,,,,,,,,,,,,,,,,,,,,,,,,,,
202383,001,2022-11-21_24h03.17.263,Info_measure_main_exp,2022.2.2,Win32,59.62673663,,,,,,,,,,,,,,,,,,masks/mask_001.jpg,,,,,,,,,,,,,,,,,,,,,,,,,,,,,,,,,,,,,,,,,,,,,,,,0,2,2,0,1,,,,,,,,,,,,,,,,,,,,,,,,,,,,,,,,,,,,,,,,,
202383,001,2022-11-21_24h03.17.263,Info_measure_main_exp,2022.2.2,Win32,59.62673663,,,,,,,,,,,,,,,,,,masks/mask_002.jpg,,,,,,,,,,,,,,,,,,,,,,,,,,,,,,,,,,,,,,,,,,,,,,,,0,3,3,1,1,,,,,,,,,,,,,,,,,,,,,,,,,,,,,,,,,,,,,,,,,
202383,001,2022-11-21_24h03.17.263,Info_measure_main_exp,2022.2.2,Win32,59.62673663,,,,,,,,,,,,,,,,,,masks/mask_004.jpg,,,,,,,,,,,,,,,,,,,,,,,,,,,,,,,,,,,,,,,,,,,,,,,,0,4,4,3,1,,,,,,,,,,,,,,,,,,,,,,,,,,,,,,,,,,,,,,,,,
202383,001,2022-11-21_24h03.17.263,Info_measure_main_exp,2022.2.2,Win32,59.62673663,,,,,,,,,,,,,,,,,,,,,,,,,,,,,,2,2.75,1,,,,,,,,,,,,0,131,5,5,1974,2178,absent_patch/patch0001974.jpg,absent_patch/patch0002178.jpg,,,,,,,,,,,,,,,,,,,,-0.077777792,-0.036111125,1,0,0,response5disk,10,0.00462963,-0.000925947,1,0,0,center_square,0,9,9,44,1,,,,,,,,,,,,,,,,,,,,,,,
202383,001,2022-11-21_24h03.17.263,Info_measure_main_exp,2022.2.2,Win32,59.62673663,,,,,,,,,,,,,,,,,,masks/mask_005.jpg,,,,,,,,,,,,,,,,,,,,,,,,,,,,,,,,,,,,,,,,,,,0,0,0,4,1,,,,,,,,,,,,,,,,,,,,,,,,,,,,,,,,,,,,,,,,,,,,,,
202383,001,2022-11-21_24h03.17.263,Info_measure_main_exp,2022.2.2,Win32,59.62673663,,,,,,,,,,,,,,,,,,masks/mask_002.jpg,,,,,,,,,,,,,,,,,,,,,,,,,,,,,,,,,,,,,,,,,,,0,1,1,1,1,,,,,,,,,,,,,,,,,,,,,,,,,,,,,,,,,,,,,,,,,,,,,,
202383,001,2022-11-21_24h03.17.263,Info_measure_main_exp,2022.2.2,Win32,59.62673663,,,,,,,,,,,,,,,,,,masks/mask_001.jpg,,,,,,,,,,,,,,,,,,,,,,,,,,,,,,,,,,,,,,,,,,,0,2,2,0,1,,,,,,,,,,,,,,,,,,,,,,,,,,,,,,,,,,,,,,,,,,,,,,
202383,001,2022-11-21_24h03.17.263,Info_measure_main_exp,2022.2.2,Win32,59.62673663,,,,,,,,,,,,,,,,,,masks/mask_004.jpg,,,,,,,,,,,,,,,,,,,,,,,,,,,,,,,,,,,,,,,,,,,0,3,3,3,1,,,,,,,,,,,,,,,,,,,,,,,,,,,,,,,,,,,,,,,,,,,,,,
202383,001,2022-11-21_24h03.17.263,Info_measure_main_exp,2022.2.2,Win32,59.62673663,,,,,,,,,,,,,,,,,,masks/mask_003.jpg,,,,,,,,,,,,,,,,,,,,,,,,,,,,,,,,,,,,,,,,,,,0,4,4,2,1,,,,,,,,,,,,,,,,,,,,,,,,,,,,,,,,,,,,,,,,,,,,,,
202383,001,2022-11-21_24h03.17.263,Info_measure_main_exp,2022.2.2,Win32,59.62673663,,,,,,,,,,,,,,,,,,masks/mask_004.jpg,,,,,,,,,,,,,,,,,,,,,,,,,,,,,,,,,,,,,,,,,,,,,,,,0,0,0,3,1,,,,,,,,,,,,,,,,,,,,,,,,,,,,,,,,,,,,,,,,,
202383,001,2022-11-21_24h03.17.263,Info_measure_main_exp,2022.2.2,Win32,59.62673663,,,,,,,,,,,,,,,,,,masks/mask_005.jpg,,,,,,,,,,,,,,,,,,,,,,,,,,,,,,,,,,,,,,,,,,,,,,,,0,1,1,4,1,,,,,,,,,,,,,,,,,,,,,,,,,,,,,,,,,,,,,,,,,
202383,001,2022-11-21_24h03.17.263,Info_measure_main_exp,2022.2.2,Win32,59.62673663,,,,,,,,,,,,,,,,,,masks/mask_003.jpg,,,,,,,,,,,,,,,,,,,,,,,,,,,,,,,,,,,,,,,,,,,,,,,,0,2,2,2,1,,,,,,,,,,,,,,,,,,,,,,,,,,,,,,,,,,,,,,,,,
202383,001,2022-11-21_24h03.17.263,Info_measure_main_exp,2022.2.2,Win32,59.62673663,,,,,,,,,,,,,,,,,,masks/mask_001.jpg,,,,,,,,,,,,,,,,,,,,,,,,,,,,,,,,,,,,,,,,,,,,,,,,0,3,3,0,1,,,,,,,,,,,,,,,,,,,,,,,,,,,,,,,,,,,,,,,,,
202383,001,2022-11-21_24h03.17.263,Info_measure_main_exp,2022.2.2,Win32,59.62673663,,,,,,,,,,,,,,,,,,masks/mask_002.jpg,,,,,,,,,,,,,,,,,,,,,,,,,,,,,,,,,,,,,,,,,,,,,,,,0,4,4,1,1,,,,,,,,,,,,,,,,,,,,,,,,,,,,,,,,,,,,,,,,,
202383,001,2022-11-21_24h03.17.263,Info_measure_main_exp,2022.2.2,Win32,59.62673663,,,,,,,,,,,,,,,,,,,,,,,,,,,,,,4,1.7664,1,,,,,,,,,,,,0,131,5,5,2298,2142,absent_patch/patch0002298.jpg,absent_patch/patch0002142.jpg,,,,,,,,,,,,,,,,,,,,0.035185213,-0.063888903,1,0,0,response3disk,11,0.000925912,-0.006481489,1,0,0,center_square,0,10,10,49,1,,,,,,,,,,,,,,,,,,,,,,,
202383,001,2022-11-21_24h03.17.263,Info_measure_main_exp,2022.2.2,Win32,59.62673663,,,,,,,,,,,,,,,,,,masks/mask_001.jpg,,,,,,,,,,,,,,,,,,,,,,,,,,,,,,,,,,,,,,,,,,,0,0,0,0,1,,,,,,,,,,,,,,,,,,,,,,,,,,,,,,,,,,,,,,,,,,,,,,
202383,001,2022-11-21_24h03.17.263,Info_measure_main_exp,2022.2.2,Win32,59.62673663,,,,,,,,,,,,,,,,,,masks/mask_004.jpg,,,,,,,,,,,,,,,,,,,,,,,,,,,,,,,,,,,,,,,,,,,0,1,1,3,1,,,,,,,,,,,,,,,,,,,,,,,,,,,,,,,,,,,,,,,,,,,,,,
202383,001,2022-11-21_24h03.17.263,Info_measure_main_exp,2022.2.2,Win32,59.62673663,,,,,,,,,,,,,,,,,,masks/mask_005.jpg,,,,,,,,,,,,,,,,,,,,,,,,,,,,,,,,,,,,,,,,,,,0,2,2,4,1,,,,,,,,,,,,,,,,,,,,,,,,,,,,,,,,,,,,,,,,,,,,,,
202383,001,2022-11-21_24h03.17.263,Info_measure_main_exp,2022.2.2,Win32,59.62673663,,,,,,,,,,,,,,,,,,masks/mask_003.jpg,,,,,,,,,,,,,,,,,,,,,,,,,,,,,,,,,,,,,,,,,,,0,3,3,2,1,,,,,,,,,,,,,,,,,,,,,,,,,,,,,,,,,,,,,,,,,,,,,,
202383,001,2022-11-21_24h03.17.263,Info_measure_main_exp,2022.2.2,Win32,59.62673663,,,,,,,,,,,,,,,,,,masks/mask_002.jpg,,,,,,,,,,,,,,,,,,,,,,,,,,,,,,,,,,,,,,,,,,,0,4,4,1,1,,,,,,,,,,,,,,,,,,,,,,,,,,,,,,,,,,,,,,,,,,,,,,
202383,001,2022-11-21_24h03.17.263,Info_measure_main_exp,2022.2.2,Win32,59.62673663,,,,,,,,,,,,,,,,,,masks/mask_004.jpg,,,,,,,,,,,,,,,,,,,,,,,,,,,,,,,,,,,,,,,,,,,,,,,,0,0,0,3,1,,,,,,,,,,,,,,,,,,,,,,,,,,,,,,,,,,,,,,,,,
202383,001,2022-11-21_24h03.17.263,Info_measure_main_exp,2022.2.2,Win32,59.62673663,,,,,,,,,,,,,,,,,,masks/mask_002.jpg,,,,,,,,,,,,,,,,,,,,,,,,,,,,,,,,,,,,,,,,,,,,,,,,0,1,1,1,1,,,,,,,,,,,,,,,,,,,,,,,,,,,,,,,,,,,,,,,,,
202383,001,2022-11-21_24h03.17.263,Info_measure_main_exp,2022.2.2,Win32,59.62673663,,,,,,,,,,,,,,,,,,masks/mask_005.jpg,,,,,,,,,,,,,,,,,,,,,,,,,,,,,,,,,,,,,,,,,,,,,,,,0,2,2,4,1,,,,,,,,,,,,,,,,,,,,,,,,,,,,,,,,,,,,,,,,,
202383,001,2022-11-21_24h03.17.263,Info_measure_main_exp,2022.2.2,Win32,59.62673663,,,,,,,,,,,,,,,,,,masks/mask_001.jpg,,,,,,,,,,,,,,,,,,,,,,,,,,,,,,,,,,,,,,,,,,,,,,,,0,3,3,0,1,,,,,,,,,,,,,,,,,,,,,,,,,,,,,,,,,,,,,,,,,
202383,001,2022-11-21_24h03.17.263,Info_measure_main_exp,2022.2.2,Win32,59.62673663,,,,,,,,,,,,,,,,,,masks/mask_003.jpg,,,,,,,,,,,,,,,,,,,,,,,,,,,,,,,,,,,,,,,,,,,,,,,,0,4,4,2,1,,,,,,,,,,,,,,,,,,,,,,,,,,,,,,,,,,,,,,,,,
202383,001,2022-11-21_24h03.17.263,Info_measure_main_exp,2022.2.2,Win32,59.62673663,,,,,,,,,,,,,,,,,,,,,,,,,,,,,,1,1.6334,1,,,,,,,,,,,,0,131,5,5,1986,2154,absent_patch/patch0001986.jpg,absent_patch/patch0002154.jpg,,,,,,,,,,,,,,,,,,,,-0.107407393,0.027777778,1,0,0,response7disk,12,0.005555541,-0.001851859,1,0,0,center_square,0,11,11,36,1,,,,,,,,,,,,,,,,,,,,,,,
202383,001,2022-11-21_24h03.17.263,Info_measure_main_exp,2022.2.2,Win32,59.62673663,,,,,,,,,,,,,,,,,,masks/mask_002.jpg,,,,,,,,,,,,,,,,,,,,,,,,,,,,,,,,,,,,,,,,,,,0,0,0,1,1,,,,,,,,,,,,,,,,,,,,,,,,,,,,,,,,,,,,,,,,,,,,,,
202383,001,2022-11-21_24h03.17.263,Info_measure_main_exp,2022.2.2,Win32,59.62673663,,,,,,,,,,,,,,,,,,masks/mask_005.jpg,,,,,,,,,,,,,,,,,,,,,,,,,,,,,,,,,,,,,,,,,,,0,1,1,4,1,,,,,,,,,,,,,,,,,,,,,,,,,,,,,,,,,,,,,,,,,,,,,,
202383,001,2022-11-21_24h03.17.263,Info_measure_main_exp,2022.2.2,Win32,59.62673663,,,,,,,,,,,,,,,,,,masks/mask_003.jpg,,,,,,,,,,,,,,,,,,,,,,,,,,,,,,,,,,,,,,,,,,,0,2,2,2,1,,,,,,,,,,,,,,,,,,,,,,,,,,,,,,,,,,,,,,,,,,,,,,
202383,001,2022-11-21_24h03.17.263,Info_measure_main_exp,2022.2.2,Win32,59.62673663,,,,,,,,,,,,,,,,,,masks/mask_001.jpg,,,,,,,,,,,,,,,,,,,,,,,,,,,,,,,,,,,,,,,,,,,0,3,3,0,1,,,,,,,,,,,,,,,,,,,,,,,,,,,,,,,,,,,,,,,,,,,,,,
202383,001,2022-11-21_24h03.17.263,Info_measure_main_exp,2022.2.2,Win32,59.62673663,,,,,,,,,,,,,,,,,,masks/mask_004.jpg,,,,,,,,,,,,,,,,,,,,,,,,,,,,,,,,,,,,,,,,,,,0,4,4,3,1,,,,,,,,,,,,,,,,,,,,,,,,,,,,,,,,,,,,,,,,,,,,,,
202383,001,2022-11-21_24h03.17.263,Info_measure_main_exp,2022.2.2,Win32,59.62673663,,,,,,,,,,,,,,,,,,masks/mask_001.jpg,,,,,,,,,,,,,,,,,,,,,,,,,,,,,,,,,,,,,,,,,,,,,,,,0,0,0,0,1,,,,,,,,,,,,,,,,,,,,,,,,,,,,,,,,,,,,,,,,,
202383,001,2022-11-21_24h03.17.263,Info_measure_main_exp,2022.2.2,Win32,59.62673663,,,,,,,,,,,,,,,,,,masks/mask_005.jpg,,,,,,,,,,,,,,,,,,,,,,,,,,,,,,,,,,,,,,,,,,,,,,,,0,1,1,4,1,,,,,,,,,,,,,,,,,,,,,,,,,,,,,,,,,,,,,,,,,
202383,001,2022-11-21_24h03.17.263,Info_measure_main_exp,2022.2.2,Win32,59.62673663,,,,,,,,,,,,,,,,,,masks/mask_004.jpg,,,,,,,,,,,,,,,,,,,,,,,,,,,,,,,,,,,,,,,,,,,,,,,,0,2,2,3,1,,,,,,,,,,,,,,,,,,,,,,,,,,,,,,,,,,,,,,,,,
202383,001,2022-11-21_24h03.17.263,Info_measure_main_exp,2022.2.2,Win32,59.62673663,,,,,,,,,,,,,,,,,,masks/mask_003.jpg,,,,,,,,,,,,,,,,,,,,,,,,,,,,,,,,,,,,,,,,,,,,,,,,0,3,3,2,1,,,,,,,,,,,,,,,,,,,,,,,,,,,,,,,,,,,,,,,,,
202383,001,2022-11-21_24h03.17.263,Info_measure_main_exp,2022.2.2,Win32,59.62673663,,,,,,,,,,,,,,,,,,masks/mask_002.jpg,,,,,,,,,,,,,,,,,,,,,,,,,,,,,,,,,,,,,,,,,,,,,,,,0,4,4,1,1,,,,,,,,,,,,,,,,,,,,,,,,,,,,,,,,,,,,,,,,,
202383,001,2022-11-21_24h03.17.263,Info_measure_main_exp,2022.2.2,Win32,59.62673663,,,,,,,,,,,,,,,,,,,,,,,,,,,,,,5,1.0666,1,,,,,,,,,,,,0,131,5,5,2154,2214,absent_patch/patch0002154.jpg,absent_patch/patch0002214.jpg,,,,,,,,,,,,,,,,,,,,0.062037079,-0.020370377,1,0,0,response3disk,13,0.001851894,0.000925912,1,0,0,center_square,0,12,12,67,1,,,,,,,,,,,,,,,,,,,,,,,
202383,001,2022-11-21_24h03.17.263,Info_measure_main_exp,2022.2.2,Win32,59.62673663,,,,,,,,,,,,,,,,,,masks/mask_004.jpg,,,,,,,,,,,,,,,,,,,,,,,,,,,,,,,,,,,,,,,,,,,0,0,0,3,1,,,,,,,,,,,,,,,,,,,,,,,,,,,,,,,,,,,,,,,,,,,,,,
202383,001,2022-11-21_24h03.17.263,Info_measure_main_exp,2022.2.2,Win32,59.62673663,,,,,,,,,,,,,,,,,,masks/mask_002.jpg,,,,,,,,,,,,,,,,,,,,,,,,,,,,,,,,,,,,,,,,,,,0,1,1,1,1,,,,,,,,,,,,,,,,,,,,,,,,,,,,,,,,,,,,,,,,,,,,,,
202383,001,2022-11-21_24h03.17.263,Info_measure_main_exp,2022.2.2,Win32,59.62673663,,,,,,,,,,,,,,,,,,masks/mask_005.jpg,,,,,,,,,,,,,,,,,,,,,,,,,,,,,,,,,,,,,,,,,,,0,2,2,4,1,,,,,,,,,,,,,,,,,,,,,,,,,,,,,,,,,,,,,,,,,,,,,,
202383,001,2022-11-21_24h03.17.263,Info_measure_main_exp,2022.2.2,Win32,59.62673663,,,,,,,,,,,,,,,,,,masks/mask_001.jpg,,,,,,,,,,,,,,,,,,,,,,,,,,,,,,,,,,,,,,,,,,,0,3,3,0,1,,,,,,,,,,,,,,,,,,,,,,,,,,,,,,,,,,,,,,,,,,,,,,
202383,001,2022-11-21_24h03.17.263,Info_measure_main_exp,2022.2.2,Win32,59.62673663,,,,,,,,,,,,,,,,,,masks/mask_003.jpg,,,,,,,,,,,,,,,,,,,,,,,,,,,,,,,,,,,,,,,,,,,0,4,4,2,1,,,,,,,,,,,,,,,,,,,,,,,,,,,,,,,,,,,,,,,,,,,,,,
202383,001,2022-11-21_24h03.17.263,Info_measure_main_exp,2022.2.2,Win32,59.62673663,,,,,,,,,,,,,,,,,,masks/mask_002.jpg,,,,,,,,,,,,,,,,,,,,,,,,,,,,,,,,,,,,,,,,,,,,,,,,0,0,0,1,1,,,,,,,,,,,,,,,,,,,,,,,,,,,,,,,,,,,,,,,,,
202383,001,2022-11-21_24h03.17.263,Info_measure_main_exp,2022.2.2,Win32,59.62673663,,,,,,,,,,,,,,,,,,masks/mask_001.jpg,,,,,,,,,,,,,,,,,,,,,,,,,,,,,,,,,,,,,,,,,,,,,,,,0,1,1,0,1,,,,,,,,,,,,,,,,,,,,,,,,,,,,,,,,,,,,,,,,,
202383,001,2022-11-21_24h03.17.263,Info_measure_main_exp,2022.2.2,Win32,59.62673663,,,,,,,,,,,,,,,,,,masks/mask_003.jpg,,,,,,,,,,,,,,,,,,,,,,,,,,,,,,,,,,,,,,,,,,,,,,,,0,2,2,2,1,,,,,,,,,,,,,,,,,,,,,,,,,,,,,,,,,,,,,,,,,
202383,001,2022-11-21_24h03.17.263,Info_measure_main_exp,2022.2.2,Win32,59.62673663,,,,,,,,,,,,,,,,,,masks/mask_005.jpg,,,,,,,,,,,,,,,,,,,,,,,,,,,,,,,,,,,,,,,,,,,,,,,,0,3,3,4,1,,,,,,,,,,,,,,,,,,,,,,,,,,,,,,,,,,,,,,,,,
202383,001,2022-11-21_24h03.17.263,Info_measure_main_exp,2022.2.2,Win32,59.62673663,,,,,,,,,,,,,,,,,,masks/mask_004.jpg,,,,,,,,,,,,,,,,,,,,,,,,,,,,,,,,,,,,,,,,,,,,,,,,0,4,4,3,1,,,,,,,,,,,,,,,,,,,,,,,,,,,,,,,,,,,,,,,,,
202383,001,2022-11-21_24h03.17.263,Info_measure_main_exp,2022.2.2,Win32,59.62673663,,,,,,,,,,,,,,,,,,,,,,,,,,,,,,5,1.0331,1,,,,,,,,,,,,1,131,5,5,1,1974,present_patch/cong_131_5_a.jpg,absent_patch/patch0001974.jpg,,,,,,,,,,,,,,,,,,,,0.036111125,-0.018518519,1,0,0,response3disk,14,-0.002777735,-0.001851859,1,0,0,center_square,0,13,13,69,1,,,,,,,,,,,,,,,,,,,,,,,
202383,001,2022-11-21_24h03.17.263,Info_measure_main_exp,2022.2.2,Win32,59.62673663,,,,,,,,,,,,,,,,,,masks/mask_002.jpg,,,,,,,,,,,,,,,,,,,,,,,,,,,,,,,,,,,,,,,,,,,0,0,0,1,1,,,,,,,,,,,,,,,,,,,,,,,,,,,,,,,,,,,,,,,,,,,,,,
202383,001,2022-11-21_24h03.17.263,Info_measure_main_exp,2022.2.2,Win32,59.62673663,,,,,,,,,,,,,,,,,,masks/mask_003.jpg,,,,,,,,,,,,,,,,,,,,,,,,,,,,,,,,,,,,,,,,,,,0,1,1,2,1,,,,,,,,,,,,,,,,,,,,,,,,,,,,,,,,,,,,,,,,,,,,,,
202383,001,2022-11-21_24h03.17.263,Info_measure_main_exp,2022.2.2,Win32,59.62673663,,,,,,,,,,,,,,,,,,masks/mask_001.jpg,,,,,,,,,,,,,,,,,,,,,,,,,,,,,,,,,,,,,,,,,,,0,2,2,0,1,,,,,,,,,,,,,,,,,,,,,,,,,,,,,,,,,,,,,,,,,,,,,,
202383,001,2022-11-21_24h03.17.263,Info_measure_main_exp,2022.2.2,Win32,59.62673663,,,,,,,,,,,,,,,,,,masks/mask_005.jpg,,,,,,,,,,,,,,,,,,,,,,,,,,,,,,,,,,,,,,,,,,,0,3,3,4,1,,,,,,,,,,,,,,,,,,,,,,,,,,,,,,,,,,,,,,,,,,,,,,
202383,001,2022-11-21_24h03.17.263,Info_measure_main_exp,2022.2.2,Win32,59.62673663,,,,,,,,,,,,,,,,,,masks/mask_004.jpg,,,,,,,,,,,,,,,,,,,,,,,,,,,,,,,,,,,,,,,,,,,0,4,4,3,1,,,,,,,,,,,,,,,,,,,,,,,,,,,,,,,,,,,,,,,,,,,,,,
202383,001,2022-11-21_24h03.17.263,Info_measure_main_exp,2022.2.2,Win32,59.62673663,,,,,,,,,,,,,,,,,,masks/mask_002.jpg,,,,,,,,,,,,,,,,,,,,,,,,,,,,,,,,,,,,,,,,,,,,,,,,0,0,0,1,1,,,,,,,,,,,,,,,,,,,,,,,,,,,,,,,,,,,,,,,,,
202383,001,2022-11-21_24h03.17.263,Info_measure_main_exp,2022.2.2,Win32,59.62673663,,,,,,,,,,,,,,,,,,masks/mask_004.jpg,,,,,,,,,,,,,,,,,,,,,,,,,,,,,,,,,,,,,,,,,,,,,,,,0,1,1,3,1,,,,,,,,,,,,,,,,,,,,,,,,,,,,,,,,,,,,,,,,,
202383,001,2022-11-21_24h03.17.263,Info_measure_main_exp,2022.2.2,Win32,59.62673663,,,,,,,,,,,,,,,,,,masks/mask_001.jpg,,,,,,,,,,,,,,,,,,,,,,,,,,,,,,,,,,,,,,,,,,,,,,,,0,2,2,0,1,,,,,,,,,,,,,,,,,,,,,,,,,,,,,,,,,,,,,,,,,
202383,001,2022-11-21_24h03.17.263,Info_measure_main_exp,2022.2.2,Win32,59.62673663,,,,,,,,,,,,,,,,,,masks/mask_005.jpg,,,,,,,,,,,,,,,,,,,,,,,,,,,,,,,,,,,,,,,,,,,,,,,,0,3,3,4,1,,,,,,,,,,,,,,,,,,,,,,,,,,,,,,,,,,,,,,,,,
202383,001,2022-11-21_24h03.17.263,Info_measure_main_exp,2022.2.2,Win32,59.62673663,,,,,,,,,,,,,,,,,,masks/mask_003.jpg,,,,,,,,,,,,,,,,,,,,,,,,,,,,,,,,,,,,,,,,,,,,,,,,0,4,4,2,1,,,,,,,,,,,,,,,,,,,,,,,,,,,,,,,,,,,,,,,,,
202383,001,2022-11-21_24h03.17.263,Info_measure_main_exp,2022.2.2,Win32,59.62673663,,,,,,,,,,,,,,,,,,,,,,,,,,,,,,4,1.5336,1,,,,,,,,,,,,0,131,5,5,2190,2166,absent_patch/patch0002190.jpg,absent_patch/patch0002166.jpg,,,,,,,,,,,,,,,,,,,,0.039814843,-0.082407422,1,0,0,response3disk,15,0.012037065,0.002777771,1,0,0,center_square,0,14,14,50,1,,,,,,,,,,,,,,,,,,,,,,,
202383,001,2022-11-21_24h03.17.263,Info_measure_main_exp,2022.2.2,Win32,59.62673663,,,,,,,,,,,,,,,,,,masks/mask_003.jpg,,,,,,,,,,,,,,,,,,,,,,,,,,,,,,,,,,,,,,,,,,,0,0,0,2,1,,,,,,,,,,,,,,,,,,,,,,,,,,,,,,,,,,,,,,,,,,,,,,
202383,001,2022-11-21_24h03.17.263,Info_measure_main_exp,2022.2.2,Win32,59.62673663,,,,,,,,,,,,,,,,,,masks/mask_002.jpg,,,,,,,,,,,,,,,,,,,,,,,,,,,,,,,,,,,,,,,,,,,0,1,1,1,1,,,,,,,,,,,,,,,,,,,,,,,,,,,,,,,,,,,,,,,,,,,,,,
202383,001,2022-11-21_24h03.17.263,Info_measure_main_exp,2022.2.2,Win32,59.62673663,,,,,,,,,,,,,,,,,,masks/mask_001.jpg,,,,,,,,,,,,,,,,,,,,,,,,,,,,,,,,,,,,,,,,,,,0,2,2,0,1,,,,,,,,,,,,,,,,,,,,,,,,,,,,,,,,,,,,,,,,,,,,,,
202383,001,2022-11-21_24h03.17.263,Info_measure_main_exp,2022.2.2,Win32,59.62673663,,,,,,,,,,,,,,,,,,masks/mask_004.jpg,,,,,,,,,,,,,,,,,,,,,,,,,,,,,,,,,,,,,,,,,,,0,3,3,3,1,,,,,,,,,,,,,,,,,,,,,,,,,,,,,,,,,,,,,,,,,,,,,,
202383,001,2022-11-21_24h03.17.263,Info_measure_main_exp,2022.2.2,Win32,59.62673663,,,,,,,,,,,,,,,,,,masks/mask_005.jpg,,,,,,,,,,,,,,,,,,,,,,,,,,,,,,,,,,,,,,,,,,,0,4,4,4,1,,,,,,,,,,,,,,,,,,,,,,,,,,,,,,,,,,,,,,,,,,,,,,
202383,001,2022-11-21_24h03.17.263,Info_measure_main_exp,2022.2.2,Win32,59.62673663,,,,,,,,,,,,,,,,,,masks/mask_004.jpg,,,,,,,,,,,,,,,,,,,,,,,,,,,,,,,,,,,,,,,,,,,,,,,,0,0,0,3,1,,,,,,,,,,,,,,,,,,,,,,,,,,,,,,,,,,,,,,,,,
202383,001,2022-11-21_24h03.17.263,Info_measure_main_exp,2022.2.2,Win32,59.62673663,,,,,,,,,,,,,,,,,,masks/mask_005.jpg,,,,,,,,,,,,,,,,,,,,,,,,,,,,,,,,,,,,,,,,,,,,,,,,0,1,1,4,1,,,,,,,,,,,,,,,,,,,,,,,,,,,,,,,,,,,,,,,,,
202383,001,2022-11-21_24h03.17.263,Info_measure_main_exp,2022.2.2,Win32,59.62673663,,,,,,,,,,,,,,,,,,masks/mask_003.jpg,,,,,,,,,,,,,,,,,,,,,,,,,,,,,,,,,,,,,,,,,,,,,,,,0,2,2,2,1,,,,,,,,,,,,,,,,,,,,,,,,,,,,,,,,,,,,,,,,,
202383,001,2022-11-21_24h03.17.263,Info_measure_main_exp,2022.2.2,Win32,59.62673663,,,,,,,,,,,,,,,,,,masks/mask_002.jpg,,,,,,,,,,,,,,,,,,,,,,,,,,,,,,,,,,,,,,,,,,,,,,,,0,3,3,1,1,,,,,,,,,,,,,,,,,,,,,,,,,,,,,,,,,,,,,,,,,
202383,001,2022-11-21_24h03.17.263,Info_measure_main_exp,2022.2.2,Win32,59.62673663,,,,,,,,,,,,,,,,,,masks/mask_001.jpg,,,,,,,,,,,,,,,,,,,,,,,,,,,,,,,,,,,,,,,,,,,,,,,,0,4,4,0,1,,,,,,,,,,,,,,,,,,,,,,,,,,,,,,,,,,,,,,,,,
202383,001,2022-11-21_24h03.17.263,Info_measure_main_exp,2022.2.2,Win32,59.62673663,,,,,,,,,,,,,,,,,,,,,,,,,,,,,,0,0.65,1,,,,,,,,,,,,0,131,5,5,2178,2178,absent_patch/patch0002178.jpg,absent_patch/patch0002178.jpg,,,,,,,,,,,,,,,,,,,,-0.044444402,0.076851845,1,0,0,response7disk,16,-0.000925912,0.01203703,1,0,0,center_square,0,15,15,98,1,,,,,,,,,,,,,,,,,,,,,,,
202383,001,2022-11-21_24h03.17.263,Info_measure_main_exp,2022.2.2,Win32,59.62673663,,,,,,,,,,,,,,,,,,masks/mask_004.jpg,,,,,,,,,,,,,,,,,,,,,,,,,,,,,,,,,,,,,,,,,,,0,0,0,3,1,,,,,,,,,,,,,,,,,,,,,,,,,,,,,,,,,,,,,,,,,,,,,,
202383,001,2022-11-21_24h03.17.263,Info_measure_main_exp,2022.2.2,Win32,59.62673663,,,,,,,,,,,,,,,,,,masks/mask_003.jpg,,,,,,,,,,,,,,,,,,,,,,,,,,,,,,,,,,,,,,,,,,,0,1,1,2,1,,,,,,,,,,,,,,,,,,,,,,,,,,,,,,,,,,,,,,,,,,,,,,
202383,001,2022-11-21_24h03.17.263,Info_measure_main_exp,2022.2.2,Win32,59.62673663,,,,,,,,,,,,,,,,,,masks/mask_002.jpg,,,,,,,,,,,,,,,,,,,,,,,,,,,,,,,,,,,,,,,,,,,0,2,2,1,1,,,,,,,,,,,,,,,,,,,,,,,,,,,,,,,,,,,,,,,,,,,,,,
202383,001,2022-11-21_24h03.17.263,Info_measure_main_exp,2022.2.2,Win32,59.62673663,,,,,,,,,,,,,,,,,,masks/mask_005.jpg,,,,,,,,,,,,,,,,,,,,,,,,,,,,,,,,,,,,,,,,,,,0,3,3,4,1,,,,,,,,,,,,,,,,,,,,,,,,,,,,,,,,,,,,,,,,,,,,,,
202383,001,2022-11-21_24h03.17.263,Info_measure_main_exp,2022.2.2,Win32,59.62673663,,,,,,,,,,,,,,,,,,masks/mask_001.jpg,,,,,,,,,,,,,,,,,,,,,,,,,,,,,,,,,,,,,,,,,,,0,4,4,0,1,,,,,,,,,,,,,,,,,,,,,,,,,,,,,,,,,,,,,,,,,,,,,,
202383,001,2022-11-21_24h03.17.263,Info_measure_main_exp,2022.2.2,Win32,59.62673663,,,,,,,,,,,,,,,,,,masks/mask_002.jpg,,,,,,,,,,,,,,,,,,,,,,,,,,,,,,,,,,,,,,,,,,,,,,,,0,0,0,1,1,,,,,,,,,,,,,,,,,,,,,,,,,,,,,,,,,,,,,,,,,
202383,001,2022-11-21_24h03.17.263,Info_measure_main_exp,2022.2.2,Win32,59.62673663,,,,,,,,,,,,,,,,,,masks/mask_001.jpg,,,,,,,,,,,,,,,,,,,,,,,,,,,,,,,,,,,,,,,,,,,,,,,,0,1,1,0,1,,,,,,,,,,,,,,,,,,,,,,,,,,,,,,,,,,,,,,,,,
202383,001,2022-11-21_24h03.17.263,Info_measure_main_exp,2022.2.2,Win32,59.62673663,,,,,,,,,,,,,,,,,,masks/mask_003.jpg,,,,,,,,,,,,,,,,,,,,,,,,,,,,,,,,,,,,,,,,,,,,,,,,0,2,2,2,1,,,,,,,,,,,,,,,,,,,,,,,,,,,,,,,,,,,,,,,,,
202383,001,2022-11-21_24h03.17.263,Info_measure_main_exp,2022.2.2,Win32,59.62673663,,,,,,,,,,,,,,,,,,masks/mask_005.jpg,,,,,,,,,,,,,,,,,,,,,,,,,,,,,,,,,,,,,,,,,,,,,,,,0,3,3,4,1,,,,,,,,,,,,,,,,,,,,,,,,,,,,,,,,,,,,,,,,,
202383,001,2022-11-21_24h03.17.263,Info_measure_main_exp,2022.2.2,Win32,59.62673663,,,,,,,,,,,,,,,,,,masks/mask_004.jpg,,,,,,,,,,,,,,,,,,,,,,,,,,,,,,,,,,,,,,,,,,,,,,,,0,4,4,3,1,,,,,,,,,,,,,,,,,,,,,,,,,,,,,,,,,,,,,,,,,
202383,001,2022-11-21_24h03.17.263,Info_measure_main_exp,2022.2.2,Win32,59.62673663,,,,,,,,,,,,,,,,,,,,,,,,,,,,,,3,1.3335,1,,,,,,,,,,,,0,131,5,5,2190,2214,absent_patch/patch0002190.jpg,absent_patch/patch0002214.jpg,,,,,,,,,,,,,,,,,,,,-0.045370384,-0.087037051,1,0,0,response5disk,17,0.007407436,0.000925912,1,0,0,center_square,0,16,16,35,1,,,,,,,,,,,,,,,,,,,,,,,
202383,001,2022-11-21_24h03.17.263,Info_measure_main_exp,2022.2.2,Win32,59.62673663,,,,,,,,,,,,,,,,,,masks/mask_005.jpg,,,,,,,,,,,,,,,,,,,,,,,,,,,,,,,,,,,,,,,,,,,0,0,0,4,1,,,,,,,,,,,,,,,,,,,,,,,,,,,,,,,,,,,,,,,,,,,,,,
202383,001,2022-11-21_24h03.17.263,Info_measure_main_exp,2022.2.2,Win32,59.62673663,,,,,,,,,,,,,,,,,,masks/mask_004.jpg,,,,,,,,,,,,,,,,,,,,,,,,,,,,,,,,,,,,,,,,,,,0,1,1,3,1,,,,,,,,,,,,,,,,,,,,,,,,,,,,,,,,,,,,,,,,,,,,,,
202383,001,2022-11-21_24h03.17.263,Info_measure_main_exp,2022.2.2,Win32,59.62673663,,,,,,,,,,,,,,,,,,masks/mask_003.jpg,,,,,,,,,,,,,,,,,,,,,,,,,,,,,,,,,,,,,,,,,,,0,2,2,2,1,,,,,,,,,,,,,,,,,,,,,,,,,,,,,,,,,,,,,,,,,,,,,,
202383,001,2022-11-21_24h03.17.263,Info_measure_main_exp,2022.2.2,Win32,59.62673663,,,,,,,,,,,,,,,,,,masks/mask_001.jpg,,,,,,,,,,,,,,,,,,,,,,,,,,,,,,,,,,,,,,,,,,,0,3,3,0,1,,,,,,,,,,,,,,,,,,,,,,,,,,,,,,,,,,,,,,,,,,,,,,
202383,001,2022-11-21_24h03.17.263,Info_measure_main_exp,2022.2.2,Win32,59.62673663,,,,,,,,,,,,,,,,,,masks/mask_002.jpg,,,,,,,,,,,,,,,,,,,,,,,,,,,,,,,,,,,,,,,,,,,0,4,4,1,1,,,,,,,,,,,,,,,,,,,,,,,,,,,,,,,,,,,,,,,,,,,,,,
202383,001,2022-11-21_24h03.17.263,Info_measure_main_exp,2022.2.2,Win32,59.62673663,,,,,,,,,,,,,,,,,,masks/mask_003.jpg,,,,,,,,,,,,,,,,,,,,,,,,,,,,,,,,,,,,,,,,,,,,,,,,0,0,0,2,1,,,,,,,,,,,,,,,,,,,,,,,,,,,,,,,,,,,,,,,,,
202383,001,2022-11-21_24h03.17.263,Info_measure_main_exp,2022.2.2,Win32,59.62673663,,,,,,,,,,,,,,,,,,masks/mask_005.jpg,,,,,,,,,,,,,,,,,,,,,,,,,,,,,,,,,,,,,,,,,,,,,,,,0,1,1,4,1,,,,,,,,,,,,,,,,,,,,,,,,,,,,,,,,,,,,,,,,,
202383,001,2022-11-21_24h03.17.263,Info_measure_main_exp,2022.2.2,Win32,59.62673663,,,,,,,,,,,,,,,,,,masks/mask_001.jpg,,,,,,,,,,,,,,,,,,,,,,,,,,,,,,,,,,,,,,,,,,,,,,,,0,2,2,0,1,,,,,,,,,,,,,,,,,,,,,,,,,,,,,,,,,,,,,,,,,
202383,001,2022-11-21_24h03.17.263,Info_measure_main_exp,2022.2.2,Win32,59.62673663,,,,,,,,,,,,,,,,,,masks/mask_002.jpg,,,,,,,,,,,,,,,,,,,,,,,,,,,,,,,,,,,,,,,,,,,,,,,,0,3,3,1,1,,,,,,,,,,,,,,,,,,,,,,,,,,,,,,,,,,,,,,,,,
202383,001,2022-11-21_24h03.17.263,Info_measure_main_exp,2022.2.2,Win32,59.62673663,,,,,,,,,,,,,,,,,,masks/mask_004.jpg,,,,,,,,,,,,,,,,,,,,,,,,,,,,,,,,,,,,,,,,,,,,,,,,0,4,4,3,1,,,,,,,,,,,,,,,,,,,,,,,,,,,,,,,,,,,,,,,,,
202383,001,2022-11-21_24h03.17.263,Info_measure_main_exp,2022.2.2,Win32,59.62673663,,,,,,,,,,,,,,,,,,,,,,,,,,,,,,5,1.6837,1,,,,,,,,,,,,0,131,5,5,2142,2190,absent_patch/patch0002142.jpg,absent_patch/patch0002190.jpg,,,,,,,,,,,,,,,,,,,,0.108333376,-0.033333355,1,0,0,response3disk,18,0.000925912,0.003703683,1,0,0,center_square,0,17,17,70,1,,,,,,,,,,,,,,,,,,,,,,,
202383,001,2022-11-21_24h03.17.263,Info_measure_main_exp,2022.2.2,Win32,59.62673663,,,,,,,,,,,,,,,,,,masks/mask_002.jpg,,,,,,,,,,,,,,,,,,,,,,,,,,,,,,,,,,,,,,,,,,,0,0,0,1,1,,,,,,,,,,,,,,,,,,,,,,,,,,,,,,,,,,,,,,,,,,,,,,
202383,001,2022-11-21_24h03.17.263,Info_measure_main_exp,2022.2.2,Win32,59.62673663,,,,,,,,,,,,,,,,,,masks/mask_005.jpg,,,,,,,,,,,,,,,,,,,,,,,,,,,,,,,,,,,,,,,,,,,0,1,1,4,1,,,,,,,,,,,,,,,,,,,,,,,,,,,,,,,,,,,,,,,,,,,,,,
202383,001,2022-11-21_24h03.17.263,Info_measure_main_exp,2022.2.2,Win32,59.62673663,,,,,,,,,,,,,,,,,,masks/mask_003.jpg,,,,,,,,,,,,,,,,,,,,,,,,,,,,,,,,,,,,,,,,,,,0,2,2,2,1,,,,,,,,,,,,,,,,,,,,,,,,,,,,,,,,,,,,,,,,,,,,,,
202383,001,2022-11-21_24h03.17.263,Info_measure_main_exp,2022.2.2,Win32,59.62673663,,,,,,,,,,,,,,,,,,masks/mask_004.jpg,,,,,,,,,,,,,,,,,,,,,,,,,,,,,,,,,,,,,,,,,,,0,3,3,3,1,,,,,,,,,,,,,,,,,,,,,,,,,,,,,,,,,,,,,,,,,,,,,,
202383,001,2022-11-21_24h03.17.263,Info_measure_main_exp,2022.2.2,Win32,59.62673663,,,,,,,,,,,,,,,,,,masks/mask_001.jpg,,,,,,,,,,,,,,,,,,,,,,,,,,,,,,,,,,,,,,,,,,,0,4,4,0,1,,,,,,,,,,,,,,,,,,,,,,,,,,,,,,,,,,,,,,,,,,,,,,
202383,001,2022-11-21_24h03.17.263,Info_measure_main_exp,2022.2.2,Win32,59.62673663,,,,,,,,,,,,,,,,,,masks/mask_004.jpg,,,,,,,,,,,,,,,,,,,,,,,,,,,,,,,,,,,,,,,,,,,,,,,,0,0,0,3,1,,,,,,,,,,,,,,,,,,,,,,,,,,,,,,,,,,,,,,,,,
202383,001,2022-11-21_24h03.17.263,Info_measure_main_exp,2022.2.2,Win32,59.62673663,,,,,,,,,,,,,,,,,,masks/mask_005.jpg,,,,,,,,,,,,,,,,,,,,,,,,,,,,,,,,,,,,,,,,,,,,,,,,0,1,1,4,1,,,,,,,,,,,,,,,,,,,,,,,,,,,,,,,,,,,,,,,,,
202383,001,2022-11-21_24h03.17.263,Info_measure_main_exp,2022.2.2,Win32,59.62673663,,,,,,,,,,,,,,,,,,masks/mask_002.jpg,,,,,,,,,,,,,,,,,,,,,,,,,,,,,,,,,,,,,,,,,,,,,,,,0,2,2,1,1,,,,,,,,,,,,,,,,,,,,,,,,,,,,,,,,,,,,,,,,,
202383,001,2022-11-21_24h03.17.263,Info_measure_main_exp,2022.2.2,Win32,59.62673663,,,,,,,,,,,,,,,,,,masks/mask_001.jpg,,,,,,,,,,,,,,,,,,,,,,,,,,,,,,,,,,,,,,,,,,,,,,,,0,3,3,0,1,,,,,,,,,,,,,,,,,,,,,,,,,,,,,,,,,,,,,,,,,
202383,001,2022-11-21_24h03.17.263,Info_measure_main_exp,2022.2.2,Win32,59.62673663,,,,,,,,,,,,,,,,,,masks/mask_003.jpg,,,,,,,,,,,,,,,,,,,,,,,,,,,,,,,,,,,,,,,,,,,,,,,,0,4,4,2,1,,,,,,,,,,,,,,,,,,,,,,,,,,,,,,,,,,,,,,,,,
202383,001,2022-11-21_24h03.17.263,Info_measure_main_exp,2022.2.2,Win32,59.62673663,,,,,,,,,,,,,,,,,,,,,,,,,,,,,,0,0.6999,1,,,,,,,,,,,,1,131,5,5,1,1,present_patch/cong_131_5_a.jpg,present_patch/cong_131_5_a.jpg,,,,,,,,,,,,,,,,,,,,-0.039814772,0.146296289,1,0,0,response7disk,19,0.006481524,-0.000925947,1,0,0,center_square,0,18,18,30,1,,,,,,,,,,,,,,,,,,,,,,,
202383,001,2022-11-21_24h03.17.263,Info_measure_main_exp,2022.2.2,Win32,59.62673663,,,,,,,,,,,,,,,,,,masks/mask_005.jpg,,,,,,,,,,,,,,,,,,,,,,,,,,,,,,,,,,,,,,,,,,,0,0,0,4,1,,,,,,,,,,,,,,,,,,,,,,,,,,,,,,,,,,,,,,,,,,,,,,
202383,001,2022-11-21_24h03.17.263,Info_measure_main_exp,2022.2.2,Win32,59.62673663,,,,,,,,,,,,,,,,,,masks/mask_001.jpg,,,,,,,,,,,,,,,,,,,,,,,,,,,,,,,,,,,,,,,,,,,0,1,1,0,1,,,,,,,,,,,,,,,,,,,,,,,,,,,,,,,,,,,,,,,,,,,,,,
202383,001,2022-11-21_24h03.17.263,Info_measure_main_exp,2022.2.2,Win32,59.62673663,,,,,,,,,,,,,,,,,,masks/mask_004.jpg,,,,,,,,,,,,,,,,,,,,,,,,,,,,,,,,,,,,,,,,,,,0,2,2,3,1,,,,,,,,,,,,,,,,,,,,,,,,,,,,,,,,,,,,,,,,,,,,,,
202383,001,2022-11-21_24h03.17.263,Info_measure_main_exp,2022.2.2,Win32,59.62673663,,,,,,,,,,,,,,,,,,masks/mask_002.jpg,,,,,,,,,,,,,,,,,,,,,,,,,,,,,,,,,,,,,,,,,,,0,3,3,1,1,,,,,,,,,,,,,,,,,,,,,,,,,,,,,,,,,,,,,,,,,,,,,,
202383,001,2022-11-21_24h03.17.263,Info_measure_main_exp,2022.2.2,Win32,59.62673663,,,,,,,,,,,,,,,,,,masks/mask_003.jpg,,,,,,,,,,,,,,,,,,,,,,,,,,,,,,,,,,,,,,,,,,,0,4,4,2,1,,,,,,,,,,,,,,,,,,,,,,,,,,,,,,,,,,,,,,,,,,,,,,
202383,001,2022-11-21_24h03.17.263,Info_measure_main_exp,2022.2.2,Win32,59.62673663,,,,,,,,,,,,,,,,,,masks/mask_003.jpg,,,,,,,,,,,,,,,,,,,,,,,,,,,,,,,,,,,,,,,,,,,,,,,,0,0,0,2,1,,,,,,,,,,,,,,,,,,,,,,,,,,,,,,,,,,,,,,,,,
202383,001,2022-11-21_24h03.17.263,Info_measure_main_exp,2022.2.2,Win32,59.62673663,,,,,,,,,,,,,,,,,,masks/mask_004.jpg,,,,,,,,,,,,,,,,,,,,,,,,,,,,,,,,,,,,,,,,,,,,,,,,0,1,1,3,1,,,,,,,,,,,,,,,,,,,,,,,,,,,,,,,,,,,,,,,,,
202383,001,2022-11-21_24h03.17.263,Info_measure_main_exp,2022.2.2,Win32,59.62673663,,,,,,,,,,,,,,,,,,masks/mask_005.jpg,,,,,,,,,,,,,,,,,,,,,,,,,,,,,,,,,,,,,,,,,,,,,,,,0,2,2,4,1,,,,,,,,,,,,,,,,,,,,,,,,,,,,,,,,,,,,,,,,,
202383,001,2022-11-21_24h03.17.263,Info_measure_main_exp,2022.2.2,Win32,59.62673663,,,,,,,,,,,,,,,,,,masks/mask_001.jpg,,,,,,,,,,,,,,,,,,,,,,,,,,,,,,,,,,,,,,,,,,,,,,,,0,3,3,0,1,,,,,,,,,,,,,,,,,,,,,,,,,,,,,,,,,,,,,,,,,
202383,001,2022-11-21_24h03.17.263,Info_measure_main_exp,2022.2.2,Win32,59.62673663,,,,,,,,,,,,,,,,,,masks/mask_002.jpg,,,,,,,,,,,,,,,,,,,,,,,,,,,,,,,,,,,,,,,,,,,,,,,,0,4,4,1,1,,,,,,,,,,,,,,,,,,,,,,,,,,,,,,,,,,,,,,,,,
202383,001,2022-11-21_24h03.17.263,Info_measure_main_exp,2022.2.2,Win32,59.62673663,,,,,,,,,,,,,,,,,,,,,,,,,,,,,,2,1.0166,1,,,,,,,,,,,,1,131,5,5,2238,1,absent_patch/patch0002238.jpg,present_patch/cong_131_5_a.jpg,,,,,,,,,,,,,,,,,,,,-0.115740741,-0.015740748,1,0,0,response5disk,20,0.006481524,-0.006481489,1,0,0,center_square,0,19,19,104,1,,,,,,,,,,,,,,,,,,,,,,,
202383,001,2022-11-21_24h03.17.263,Info_measure_main_exp,2022.2.2,Win32,59.62673663,,,,,,,,,,,,,,,,,,masks/mask_004.jpg,,,,,,,,,,,,,,,,,,,,,,,,,,,,,,,,,,,,,,,,,,,0,0,0,3,1,,,,,,,,,,,,,,,,,,,,,,,,,,,,,,,,,,,,,,,,,,,,,,
202383,001,2022-11-21_24h03.17.263,Info_measure_main_exp,2022.2.2,Win32,59.62673663,,,,,,,,,,,,,,,,,,masks/mask_001.jpg,,,,,,,,,,,,,,,,,,,,,,,,,,,,,,,,,,,,,,,,,,,0,1,1,0,1,,,,,,,,,,,,,,,,,,,,,,,,,,,,,,,,,,,,,,,,,,,,,,
202383,001,2022-11-21_24h03.17.263,Info_measure_main_exp,2022.2.2,Win32,59.62673663,,,,,,,,,,,,,,,,,,masks/mask_003.jpg,,,,,,,,,,,,,,,,,,,,,,,,,,,,,,,,,,,,,,,,,,,0,2,2,2,1,,,,,,,,,,,,,,,,,,,,,,,,,,,,,,,,,,,,,,,,,,,,,,
202383,001,2022-11-21_24h03.17.263,Info_measure_main_exp,2022.2.2,Win32,59.62673663,,,,,,,,,,,,,,,,,,masks/mask_002.jpg,,,,,,,,,,,,,,,,,,,,,,,,,,,,,,,,,,,,,,,,,,,0,3,3,1,1,,,,,,,,,,,,,,,,,,,,,,,,,,,,,,,,,,,,,,,,,,,,,,
202383,001,2022-11-21_24h03.17.263,Info_measure_main_exp,2022.2.2,Win32,59.62673663,,,,,,,,,,,,,,,,,,masks/mask_005.jpg,,,,,,,,,,,,,,,,,,,,,,,,,,,,,,,,,,,,,,,,,,,0,4,4,4,1,,,,,,,,,,,,,,,,,,,,,,,,,,,,,,,,,,,,,,,,,,,,,,
202383,001,2022-11-21_24h03.17.263,Info_measure_main_exp,2022.2.2,Win32,59.62673663,,,,,,,,,,,,,,,,,,masks/mask_002.jpg,,,,,,,,,,,,,,,,,,,,,,,,,,,,,,,,,,,,,,,,,,,,,,,,0,0,0,1,1,,,,,,,,,,,,,,,,,,,,,,,,,,,,,,,,,,,,,,,,,
202383,001,2022-11-21_24h03.17.263,Info_measure_main_exp,2022.2.2,Win32,59.62673663,,,,,,,,,,,,,,,,,,masks/mask_001.jpg,,,,,,,,,,,,,,,,,,,,,,,,,,,,,,,,,,,,,,,,,,,,,,,,0,1,1,0,1,,,,,,,,,,,,,,,,,,,,,,,,,,,,,,,,,,,,,,,,,
202383,001,2022-11-21_24h03.17.263,Info_measure_main_exp,2022.2.2,Win32,59.62673663,,,,,,,,,,,,,,,,,,masks/mask_004.jpg,,,,,,,,,,,,,,,,,,,,,,,,,,,,,,,,,,,,,,,,,,,,,,,,0,2,2,3,1,,,,,,,,,,,,,,,,,,,,,,,,,,,,,,,,,,,,,,,,,
202383,001,2022-11-21_24h03.17.263,Info_measure_main_exp,2022.2.2,Win32,59.62673663,,,,,,,,,,,,,,,,,,masks/mask_003.jpg,,,,,,,,,,,,,,,,,,,,,,,,,,,,,,,,,,,,,,,,,,,,,,,,0,3,3,2,1,,,,,,,,,,,,,,,,,,,,,,,,,,,,,,,,,,,,,,,,,
202383,001,2022-11-21_24h03.17.263,Info_measure_main_exp,2022.2.2,Win32,59.62673663,,,,,,,,,,,,,,,,,,masks/mask_005.jpg,,,,,,,,,,,,,,,,,,,,,,,,,,,,,,,,,,,,,,,,,,,,,,,,0,4,4,4,1,,,,,,,,,,,,,,,,,,,,,,,,,,,,,,,,,,,,,,,,,
202383,001,2022-11-21_24h03.17.263,Info_measure_main_exp,2022.2.2,Win32,59.62673663,,,,,,,,,,,,,,,,,,,,,,,,,,,,,,6,1.1497,1,,,,,,,,,,,,0,131,5,5,2214,2178,absent_patch/patch0002214.jpg,absent_patch/patch0002178.jpg,,,,,,,,,,,,,,,,,,,,0.070370356,0.025000007,1,0,0,response1disk,21,0.005555541,-0.006481489,1,0,0,center_square,0,20,20,62,1,,,,,,,,,,,,,,,,,,,,,,,
202383,001,2022-11-21_24h03.17.263,Info_measure_main_exp,2022.2.2,Win32,59.62673663,,,,,,,,,,,,,,,,,,masks/mask_001.jpg,,,,,,,,,,,,,,,,,,,,,,,,,,,,,,,,,,,,,,,,,,,0,0,0,0,1,,,,,,,,,,,,,,,,,,,,,,,,,,,,,,,,,,,,,,,,,,,,,,
202383,001,2022-11-21_24h03.17.263,Info_measure_main_exp,2022.2.2,Win32,59.62673663,,,,,,,,,,,,,,,,,,masks/mask_005.jpg,,,,,,,,,,,,,,,,,,,,,,,,,,,,,,,,,,,,,,,,,,,0,1,1,4,1,,,,,,,,,,,,,,,,,,,,,,,,,,,,,,,,,,,,,,,,,,,,,,
202383,001,2022-11-21_24h03.17.263,Info_measure_main_exp,2022.2.2,Win32,59.62673663,,,,,,,,,,,,,,,,,,masks/mask_004.jpg,,,,,,,,,,,,,,,,,,,,,,,,,,,,,,,,,,,,,,,,,,,0,2,2,3,1,,,,,,,,,,,,,,,,,,,,,,,,,,,,,,,,,,,,,,,,,,,,,,
202383,001,2022-11-21_24h03.17.263,Info_measure_main_exp,2022.2.2,Win32,59.62673663,,,,,,,,,,,,,,,,,,masks/mask_002.jpg,,,,,,,,,,,,,,,,,,,,,,,,,,,,,,,,,,,,,,,,,,,0,3,3,1,1,,,,,,,,,,,,,,,,,,,,,,,,,,,,,,,,,,,,,,,,,,,,,,
202383,001,2022-11-21_24h03.17.263,Info_measure_main_exp,2022.2.2,Win32,59.62673663,,,,,,,,,,,,,,,,,,masks/mask_003.jpg,,,,,,,,,,,,,,,,,,,,,,,,,,,,,,,,,,,,,,,,,,,0,4,4,2,1,,,,,,,,,,,,,,,,,,,,,,,,,,,,,,,,,,,,,,,,,,,,,,
202383,001,2022-11-21_24h03.17.263,Info_measure_main_exp,2022.2.2,Win32,59.62673663,,,,,,,,,,,,,,,,,,masks/mask_005.jpg,,,,,,,,,,,,,,,,,,,,,,,,,,,,,,,,,,,,,,,,,,,,,,,,0,0,0,4,1,,,,,,,,,,,,,,,,,,,,,,,,,,,,,,,,,,,,,,,,,
202383,001,2022-11-21_24h03.17.263,Info_measure_main_exp,2022.2.2,Win32,59.62673663,,,,,,,,,,,,,,,,,,masks/mask_004.jpg,,,,,,,,,,,,,,,,,,,,,,,,,,,,,,,,,,,,,,,,,,,,,,,,0,1,1,3,1,,,,,,,,,,,,,,,,,,,,,,,,,,,,,,,,,,,,,,,,,
202383,001,2022-11-21_24h03.17.263,Info_measure_main_exp,2022.2.2,Win32,59.62673663,,,,,,,,,,,,,,,,,,masks/mask_003.jpg,,,,,,,,,,,,,,,,,,,,,,,,,,,,,,,,,,,,,,,,,,,,,,,,0,2,2,2,1,,,,,,,,,,,,,,,,,,,,,,,,,,,,,,,,,,,,,,,,,
202383,001,2022-11-21_24h03.17.263,Info_measure_main_exp,2022.2.2,Win32,59.62673663,,,,,,,,,,,,,,,,,,masks/mask_001.jpg,,,,,,,,,,,,,,,,,,,,,,,,,,,,,,,,,,,,,,,,,,,,,,,,0,3,3,0,1,,,,,,,,,,,,,,,,,,,,,,,,,,,,,,,,,,,,,,,,,
202383,001,2022-11-21_24h03.17.263,Info_measure_main_exp,2022.2.2,Win32,59.62673663,,,,,,,,,,,,,,,,,,masks/mask_002.jpg,,,,,,,,,,,,,,,,,,,,,,,,,,,,,,,,,,,,,,,,,,,,,,,,0,4,4,1,1,,,,,,,,,,,,,,,,,,,,,,,,,,,,,,,,,,,,,,,,,
202383,001,2022-11-21_24h03.17.263,Info_measure_main_exp,2022.2.2,Win32,59.62673663,,,,,,,,,,,,,,,,,,,,,,,,,,,,,,4,2.2334,1,,,,,,,,,,,,0,131,5,5,2274,2214,absent_patch/patch0002274.jpg,absent_patch/patch0002214.jpg,,,,,,,,,,,,,,,,,,,,0.041666667,-0.066666674,1,0,0,response3disk,22,0.002777806,0.006481489,1,0,0,center_square,0,21,21,11,1,,,,,,,,,,,,,,,,,,,,,,,
202383,001,2022-11-21_24h03.17.263,Info_measure_main_exp,2022.2.2,Win32,59.62673663,,,,,,,,,,,,,,,,,,masks/mask_001.jpg,,,,,,,,,,,,,,,,,,,,,,,,,,,,,,,,,,,,,,,,,,,0,0,0,0,1,,,,,,,,,,,,,,,,,,,,,,,,,,,,,,,,,,,,,,,,,,,,,,
202383,001,2022-11-21_24h03.17.263,Info_measure_main_exp,2022.2.2,Win32,59.62673663,,,,,,,,,,,,,,,,,,masks/mask_005.jpg,,,,,,,,,,,,,,,,,,,,,,,,,,,,,,,,,,,,,,,,,,,0,1,1,4,1,,,,,,,,,,,,,,,,,,,,,,,,,,,,,,,,,,,,,,,,,,,,,,
202383,001,2022-11-21_24h03.17.263,Info_measure_main_exp,2022.2.2,Win32,59.62673663,,,,,,,,,,,,,,,,,,masks/mask_003.jpg,,,,,,,,,,,,,,,,,,,,,,,,,,,,,,,,,,,,,,,,,,,0,2,2,2,1,,,,,,,,,,,,,,,,,,,,,,,,,,,,,,,,,,,,,,,,,,,,,,
202383,001,2022-11-21_24h03.17.263,Info_measure_main_exp,2022.2.2,Win32,59.62673663,,,,,,,,,,,,,,,,,,masks/mask_004.jpg,,,,,,,,,,,,,,,,,,,,,,,,,,,,,,,,,,,,,,,,,,,0,3,3,3,1,,,,,,,,,,,,,,,,,,,,,,,,,,,,,,,,,,,,,,,,,,,,,,
202383,001,2022-11-21_24h03.17.263,Info_measure_main_exp,2022.2.2,Win32,59.62673663,,,,,,,,,,,,,,,,,,masks/mask_002.jpg,,,,,,,,,,,,,,,,,,,,,,,,,,,,,,,,,,,,,,,,,,,0,4,4,1,1,,,,,,,,,,,,,,,,,,,,,,,,,,,,,,,,,,,,,,,,,,,,,,
202383,001,2022-11-21_24h03.17.263,Info_measure_main_exp,2022.2.2,Win32,59.62673663,,,,,,,,,,,,,,,,,,masks/mask_005.jpg,,,,,,,,,,,,,,,,,,,,,,,,,,,,,,,,,,,,,,,,,,,,,,,,0,0,0,4,1,,,,,,,,,,,,,,,,,,,,,,,,,,,,,,,,,,,,,,,,,
202383,001,2022-11-21_24h03.17.263,Info_measure_main_exp,2022.2.2,Win32,59.62673663,,,,,,,,,,,,,,,,,,masks/mask_004.jpg,,,,,,,,,,,,,,,,,,,,,,,,,,,,,,,,,,,,,,,,,,,,,,,,0,1,1,3,1,,,,,,,,,,,,,,,,,,,,,,,,,,,,,,,,,,,,,,,,,
202383,001,2022-11-21_24h03.17.263,Info_measure_main_exp,2022.2.2,Win32,59.62673663,,,,,,,,,,,,,,,,,,masks/mask_003.jpg,,,,,,,,,,,,,,,,,,,,,,,,,,,,,,,,,,,,,,,,,,,,,,,,0,2,2,2,1,,,,,,,,,,,,,,,,,,,,,,,,,,,,,,,,,,,,,,,,,
202383,001,2022-11-21_24h03.17.263,Info_measure_main_exp,2022.2.2,Win32,59.62673663,,,,,,,,,,,,,,,,,,masks/mask_002.jpg,,,,,,,,,,,,,,,,,,,,,,,,,,,,,,,,,,,,,,,,,,,,,,,,0,3,3,1,1,,,,,,,,,,,,,,,,,,,,,,,,,,,,,,,,,,,,,,,,,
202383,001,2022-11-21_24h03.17.263,Info_measure_main_exp,2022.2.2,Win32,59.62673663,,,,,,,,,,,,,,,,,,masks/mask_001.jpg,,,,,,,,,,,,,,,,,,,,,,,,,,,,,,,,,,,,,,,,,,,,,,,,0,4,4,0,1,,,,,,,,,,,,,,,,,,,,,,,,,,,,,,,,,,,,,,,,,
202383,001,2022-11-21_24h03.17.263,Info_measure_main_exp,2022.2.2,Win32,59.62673663,,,,,,,,,,,,,,,,,,,,,,,,,,,,,,5,2.7,1,,,,,,,,,,,,0,131,5,5,2250,1986,absent_patch/patch0002250.jpg,absent_patch/patch0001986.jpg,,,,,,,,,,,,,,,,,,,,0.091666681,-0.040740755,1,0,0,response3disk,23,0.002777806,0.002777771,1,0,0,center_square,0,22,22,29,1,,,,,,,,,,,,,,,,,,,,,,,
202383,001,2022-11-21_24h03.17.263,Info_measure_main_exp,2022.2.2,Win32,59.62673663,,,,,,,,,,,,,,,,,,masks/mask_002.jpg,,,,,,,,,,,,,,,,,,,,,,,,,,,,,,,,,,,,,,,,,,,0,0,0,1,1,,,,,,,,,,,,,,,,,,,,,,,,,,,,,,,,,,,,,,,,,,,,,,
202383,001,2022-11-21_24h03.17.263,Info_measure_main_exp,2022.2.2,Win32,59.62673663,,,,,,,,,,,,,,,,,,masks/mask_004.jpg,,,,,,,,,,,,,,,,,,,,,,,,,,,,,,,,,,,,,,,,,,,0,1,1,3,1,,,,,,,,,,,,,,,,,,,,,,,,,,,,,,,,,,,,,,,,,,,,,,
202383,001,2022-11-21_24h03.17.263,Info_measure_main_exp,2022.2.2,Win32,59.62673663,,,,,,,,,,,,,,,,,,masks/mask_001.jpg,,,,,,,,,,,,,,,,,,,,,,,,,,,,,,,,,,,,,,,,,,,0,2,2,0,1,,,,,,,,,,,,,,,,,,,,,,,,,,,,,,,,,,,,,,,,,,,,,,
202383,001,2022-11-21_24h03.17.263,Info_measure_main_exp,2022.2.2,Win32,59.62673663,,,,,,,,,,,,,,,,,,masks/mask_003.jpg,,,,,,,,,,,,,,,,,,,,,,,,,,,,,,,,,,,,,,,,,,,0,3,3,2,1,,,,,,,,,,,,,,,,,,,,,,,,,,,,,,,,,,,,,,,,,,,,,,
202383,001,2022-11-21_24h03.17.263,Info_measure_main_exp,2022.2.2,Win32,59.62673663,,,,,,,,,,,,,,,,,,masks/mask_005.jpg,,,,,,,,,,,,,,,,,,,,,,,,,,,,,,,,,,,,,,,,,,,0,4,4,4,1,,,,,,,,,,,,,,,,,,,,,,,,,,,,,,,,,,,,,,,,,,,,,,
202383,001,2022-11-21_24h03.17.263,Info_measure_main_exp,2022.2.2,Win32,59.62673663,,,,,,,,,,,,,,,,,,masks/mask_005.jpg,,,,,,,,,,,,,,,,,,,,,,,,,,,,,,,,,,,,,,,,,,,,,,,,0,0,0,4,1,,,,,,,,,,,,,,,,,,,,,,,,,,,,,,,,,,,,,,,,,
202383,001,2022-11-21_24h03.17.263,Info_measure_main_exp,2022.2.2,Win32,59.62673663,,,,,,,,,,,,,,,,,,masks/mask_001.jpg,,,,,,,,,,,,,,,,,,,,,,,,,,,,,,,,,,,,,,,,,,,,,,,,0,1,1,0,1,,,,,,,,,,,,,,,,,,,,,,,,,,,,,,,,,,,,,,,,,
202383,001,2022-11-21_24h03.17.263,Info_measure_main_exp,2022.2.2,Win32,59.62673663,,,,,,,,,,,,,,,,,,masks/mask_002.jpg,,,,,,,,,,,,,,,,,,,,,,,,,,,,,,,,,,,,,,,,,,,,,,,,0,2,2,1,1,,,,,,,,,,,,,,,,,,,,,,,,,,,,,,,,,,,,,,,,,
202383,001,2022-11-21_24h03.17.263,Info_measure_main_exp,2022.2.2,Win32,59.62673663,,,,,,,,,,,,,,,,,,masks/mask_003.jpg,,,,,,,,,,,,,,,,,,,,,,,,,,,,,,,,,,,,,,,,,,,,,,,,0,3,3,2,1,,,,,,,,,,,,,,,,,,,,,,,,,,,,,,,,,,,,,,,,,
202383,001,2022-11-21_24h03.17.263,Info_measure_main_exp,2022.2.2,Win32,59.62673663,,,,,,,,,,,,,,,,,,masks/mask_004.jpg,,,,,,,,,,,,,,,,,,,,,,,,,,,,,,,,,,,,,,,,,,,,,,,,0,4,4,3,1,,,,,,,,,,,,,,,,,,,,,,,,,,,,,,,,,,,,,,,,,
202383,001,2022-11-21_24h03.17.263,Info_measure_main_exp,2022.2.2,Win32,59.62673663,,,,,,,,,,,,,,,,,,,,,,,,,,,,,,6,0.7331,1,,,,,,,,,,,,1,131,5,5,2298,1,absent_patch/patch0002298.jpg,present_patch/cong_131_5_a.jpg,,,,,,,,,,,,,,,,,,,,0.087037051,0.015740748,1,0,0,response1disk,24,0.008333347,0.003703683,1,0,0,center_square,0,23,23,45,1,,,,,,,,,,,,,,,,,,,,,,,
202383,001,2022-11-21_24h03.17.263,Info_measure_main_exp,2022.2.2,Win32,59.62673663,,,,,,,,,,,,,,,,,,masks/mask_001.jpg,,,,,,,,,,,,,,,,,,,,,,,,,,,,,,,,,,,,,,,,,,,0,0,0,0,1,,,,,,,,,,,,,,,,,,,,,,,,,,,,,,,,,,,,,,,,,,,,,,
202383,001,2022-11-21_24h03.17.263,Info_measure_main_exp,2022.2.2,Win32,59.62673663,,,,,,,,,,,,,,,,,,masks/mask_003.jpg,,,,,,,,,,,,,,,,,,,,,,,,,,,,,,,,,,,,,,,,,,,0,1,1,2,1,,,,,,,,,,,,,,,,,,,,,,,,,,,,,,,,,,,,,,,,,,,,,,
202383,001,2022-11-21_24h03.17.263,Info_measure_main_exp,2022.2.2,Win32,59.62673663,,,,,,,,,,,,,,,,,,masks/mask_005.jpg,,,,,,,,,,,,,,,,,,,,,,,,,,,,,,,,,,,,,,,,,,,0,2,2,4,1,,,,,,,,,,,,,,,,,,,,,,,,,,,,,,,,,,,,,,,,,,,,,,
202383,001,2022-11-21_24h03.17.263,Info_measure_main_exp,2022.2.2,Win32,59.62673663,,,,,,,,,,,,,,,,,,masks/mask_004.jpg,,,,,,,,,,,,,,,,,,,,,,,,,,,,,,,,,,,,,,,,,,,0,3,3,3,1,,,,,,,,,,,,,,,,,,,,,,,,,,,,,,,,,,,,,,,,,,,,,,
202383,001,2022-11-21_24h03.17.263,Info_measure_main_exp,2022.2.2,Win32,59.62673663,,,,,,,,,,,,,,,,,,masks/mask_002.jpg,,,,,,,,,,,,,,,,,,,,,,,,,,,,,,,,,,,,,,,,,,,0,4,4,1,1,,,,,,,,,,,,,,,,,,,,,,,,,,,,,,,,,,,,,,,,,,,,,,
202383,001,2022-11-21_24h03.17.263,Info_measure_main_exp,2022.2.2,Win32,59.62673663,,,,,,,,,,,,,,,,,,masks/mask_004.jpg,,,,,,,,,,,,,,,,,,,,,,,,,,,,,,,,,,,,,,,,,,,,,,,,0,0,0,3,1,,,,,,,,,,,,,,,,,,,,,,,,,,,,,,,,,,,,,,,,,
202383,001,2022-11-21_24h03.17.263,Info_measure_main_exp,2022.2.2,Win32,59.62673663,,,,,,,,,,,,,,,,,,masks/mask_001.jpg,,,,,,,,,,,,,,,,,,,,,,,,,,,,,,,,,,,,,,,,,,,,,,,,0,1,1,0,1,,,,,,,,,,,,,,,,,,,,,,,,,,,,,,,,,,,,,,,,,
202383,001,2022-11-21_24h03.17.263,Info_measure_main_exp,2022.2.2,Win32,59.62673663,,,,,,,,,,,,,,,,,,masks/mask_003.jpg,,,,,,,,,,,,,,,,,,,,,,,,,,,,,,,,,,,,,,,,,,,,,,,,0,2,2,2,1,,,,,,,,,,,,,,,,,,,,,,,,,,,,,,,,,,,,,,,,,
202383,001,2022-11-21_24h03.17.263,Info_measure_main_exp,2022.2.2,Win32,59.62673663,,,,,,,,,,,,,,,,,,masks/mask_005.jpg,,,,,,,,,,,,,,,,,,,,,,,,,,,,,,,,,,,,,,,,,,,,,,,,0,3,3,4,1,,,,,,,,,,,,,,,,,,,,,,,,,,,,,,,,,,,,,,,,,
202383,001,2022-11-21_24h03.17.263,Info_measure_main_exp,2022.2.2,Win32,59.62673663,,,,,,,,,,,,,,,,,,masks/mask_002.jpg,,,,,,,,,,,,,,,,,,,,,,,,,,,,,,,,,,,,,,,,,,,,,,,,0,4,4,1,1,,,,,,,,,,,,,,,,,,,,,,,,,,,,,,,,,,,,,,,,,
202383,001,2022-11-21_24h03.17.263,Info_measure_main_exp,2022.2.2,Win32,59.62673663,,,,,,,,,,,,,,,,,,,,,,,,,,,,,,0,0.5333,1,,,,,,,,,,,,0,131,5,5,2214,2214,absent_patch/patch0002214.jpg,absent_patch/patch0002214.jpg,,,,,,,,,,,,,,,,,,,,-0.038888861,0.092592593,1,0,0,response7disk,25,0.000925912,0.009259259,1,0,0,center_square,0,24,24,115,1,,,,,,,,,,,,,,,,,,,,,,,
202383,001,2022-11-21_24h03.17.263,Info_measure_main_exp,2022.2.2,Win32,59.62673663,,,,,,,,,,,,,,,,,,masks/mask_002.jpg,,,,,,,,,,,,,,,,,,,,,,,,,,,,,,,,,,,,,,,,,,,0,0,0,1,1,,,,,,,,,,,,,,,,,,,,,,,,,,,,,,,,,,,,,,,,,,,,,,
202383,001,2022-11-21_24h03.17.263,Info_measure_main_exp,2022.2.2,Win32,59.62673663,,,,,,,,,,,,,,,,,,masks/mask_003.jpg,,,,,,,,,,,,,,,,,,,,,,,,,,,,,,,,,,,,,,,,,,,0,1,1,2,1,,,,,,,,,,,,,,,,,,,,,,,,,,,,,,,,,,,,,,,,,,,,,,
202383,001,2022-11-21_24h03.17.263,Info_measure_main_exp,2022.2.2,Win32,59.62673663,,,,,,,,,,,,,,,,,,masks/mask_001.jpg,,,,,,,,,,,,,,,,,,,,,,,,,,,,,,,,,,,,,,,,,,,0,2,2,0,1,,,,,,,,,,,,,,,,,,,,,,,,,,,,,,,,,,,,,,,,,,,,,,
202383,001,2022-11-21_24h03.17.263,Info_measure_main_exp,2022.2.2,Win32,59.62673663,,,,,,,,,,,,,,,,,,masks/mask_005.jpg,,,,,,,,,,,,,,,,,,,,,,,,,,,,,,,,,,,,,,,,,,,0,3,3,4,1,,,,,,,,,,,,,,,,,,,,,,,,,,,,,,,,,,,,,,,,,,,,,,
202383,001,2022-11-21_24h03.17.263,Info_measure_main_exp,2022.2.2,Win32,59.62673663,,,,,,,,,,,,,,,,,,masks/mask_004.jpg,,,,,,,,,,,,,,,,,,,,,,,,,,,,,,,,,,,,,,,,,,,0,4,4,3,1,,,,,,,,,,,,,,,,,,,,,,,,,,,,,,,,,,,,,,,,,,,,,,
202383,001,2022-11-21_24h03.17.263,Info_measure_main_exp,2022.2.2,Win32,59.62673663,,,,,,,,,,,,,,,,,,masks/mask_002.jpg,,,,,,,,,,,,,,,,,,,,,,,,,,,,,,,,,,,,,,,,,,,,,,,,0,0,0,1,1,,,,,,,,,,,,,,,,,,,,,,,,,,,,,,,,,,,,,,,,,
202383,001,2022-11-21_24h03.17.263,Info_measure_main_exp,2022.2.2,Win32,59.62673663,,,,,,,,,,,,,,,,,,masks/mask_005.jpg,,,,,,,,,,,,,,,,,,,,,,,,,,,,,,,,,,,,,,,,,,,,,,,,0,1,1,4,1,,,,,,,,,,,,,,,,,,,,,,,,,,,,,,,,,,,,,,,,,
202383,001,2022-11-21_24h03.17.263,Info_measure_main_exp,2022.2.2,Win32,59.62673663,,,,,,,,,,,,,,,,,,masks/mask_004.jpg,,,,,,,,,,,,,,,,,,,,,,,,,,,,,,,,,,,,,,,,,,,,,,,,0,2,2,3,1,,,,,,,,,,,,,,,,,,,,,,,,,,,,,,,,,,,,,,,,,
202383,001,2022-11-21_24h03.17.263,Info_measure_main_exp,2022.2.2,Win32,59.62673663,,,,,,,,,,,,,,,,,,masks/mask_001.jpg,,,,,,,,,,,,,,,,,,,,,,,,,,,,,,,,,,,,,,,,,,,,,,,,0,3,3,0,1,,,,,,,,,,,,,,,,,,,,,,,,,,,,,,,,,,,,,,,,,
202383,001,2022-11-21_24h03.17.263,Info_measure_main_exp,2022.2.2,Win32,59.62673663,,,,,,,,,,,,,,,,,,masks/mask_003.jpg,,,,,,,,,,,,,,,,,,,,,,,,,,,,,,,,,,,,,,,,,,,,,,,,0,4,4,2,1,,,,,,,,,,,,,,,,,,,,,,,,,,,,,,,,,,,,,,,,,
202383,001,2022-11-21_24h03.17.263,Info_measure_main_exp,2022.2.2,Win32,59.62673663,,,,,,,,,,,,,,,,,,,,,,,,,,,,,,3,1.3499,1,,,,,,,,,,,,1,131,5,5,1,2178,present_patch/cong_131_5_a.jpg,absent_patch/patch0002178.jpg,,,,,,,,,,,,,,,,,,,,-0.056481467,-0.139814801,1,0,0,response5disk,26,0.000925912,-0.009259259,1,0,0,center_square,0,25,25,40,1,,,,,,,,,,,,,,,,,,,,,,,
202383,001,2022-11-21_24h03.17.263,Info_measure_main_exp,2022.2.2,Win32,59.62673663,,,,,,,,,,,,,,,,,,masks/mask_002.jpg,,,,,,,,,,,,,,,,,,,,,,,,,,,,,,,,,,,,,,,,,,,0,0,0,1,1,,,,,,,,,,,,,,,,,,,,,,,,,,,,,,,,,,,,,,,,,,,,,,
202383,001,2022-11-21_24h03.17.263,Info_measure_main_exp,2022.2.2,Win32,59.62673663,,,,,,,,,,,,,,,,,,masks/mask_005.jpg,,,,,,,,,,,,,,,,,,,,,,,,,,,,,,,,,,,,,,,,,,,0,1,1,4,1,,,,,,,,,,,,,,,,,,,,,,,,,,,,,,,,,,,,,,,,,,,,,,
202383,001,2022-11-21_24h03.17.263,Info_measure_main_exp,2022.2.2,Win32,59.62673663,,,,,,,,,,,,,,,,,,masks/mask_004.jpg,,,,,,,,,,,,,,,,,,,,,,,,,,,,,,,,,,,,,,,,,,,0,2,2,3,1,,,,,,,,,,,,,,,,,,,,,,,,,,,,,,,,,,,,,,,,,,,,,,
202383,001,2022-11-21_24h03.17.263,Info_measure_main_exp,2022.2.2,Win32,59.62673663,,,,,,,,,,,,,,,,,,masks/mask_003.jpg,,,,,,,,,,,,,,,,,,,,,,,,,,,,,,,,,,,,,,,,,,,0,3,3,2,1,,,,,,,,,,,,,,,,,,,,,,,,,,,,,,,,,,,,,,,,,,,,,,
202383,001,2022-11-21_24h03.17.263,Info_measure_main_exp,2022.2.2,Win32,59.62673663,,,,,,,,,,,,,,,,,,masks/mask_001.jpg,,,,,,,,,,,,,,,,,,,,,,,,,,,,,,,,,,,,,,,,,,,0,4,4,0,1,,,,,,,,,,,,,,,,,,,,,,,,,,,,,,,,,,,,,,,,,,,,,,
202383,001,2022-11-21_24h03.17.263,Info_measure_main_exp,2022.2.2,Win32,59.62673663,,,,,,,,,,,,,,,,,,masks/mask_004.jpg,,,,,,,,,,,,,,,,,,,,,,,,,,,,,,,,,,,,,,,,,,,,,,,,0,0,0,3,1,,,,,,,,,,,,,,,,,,,,,,,,,,,,,,,,,,,,,,,,,
202383,001,2022-11-21_24h03.17.263,Info_measure_main_exp,2022.2.2,Win32,59.62673663,,,,,,,,,,,,,,,,,,masks/mask_003.jpg,,,,,,,,,,,,,,,,,,,,,,,,,,,,,,,,,,,,,,,,,,,,,,,,0,1,1,2,1,,,,,,,,,,,,,,,,,,,,,,,,,,,,,,,,,,,,,,,,,
202383,001,2022-11-21_24h03.17.263,Info_measure_main_exp,2022.2.2,Win32,59.62673663,,,,,,,,,,,,,,,,,,masks/mask_002.jpg,,,,,,,,,,,,,,,,,,,,,,,,,,,,,,,,,,,,,,,,,,,,,,,,0,2,2,1,1,,,,,,,,,,,,,,,,,,,,,,,,,,,,,,,,,,,,,,,,,
202383,001,2022-11-21_24h03.17.263,Info_measure_main_exp,2022.2.2,Win32,59.62673663,,,,,,,,,,,,,,,,,,masks/mask_005.jpg,,,,,,,,,,,,,,,,,,,,,,,,,,,,,,,,,,,,,,,,,,,,,,,,0,3,3,4,1,,,,,,,,,,,,,,,,,,,,,,,,,,,,,,,,,,,,,,,,,
202383,001,2022-11-21_24h03.17.263,Info_measure_main_exp,2022.2.2,Win32,59.62673663,,,,,,,,,,,,,,,,,,masks/mask_001.jpg,,,,,,,,,,,,,,,,,,,,,,,,,,,,,,,,,,,,,,,,,,,,,,,,0,4,4,0,1,,,,,,,,,,,,,,,,,,,,,,,,,,,,,,,,,,,,,,,,,
202383,001,2022-11-21_24h03.17.263,Info_measure_main_exp,2022.2.2,Win32,59.62673663,,,,,,,,,,,,,,,,,,,,,,,,,,,,,,5,0.7165,1,,,,,,,,,,,,0,131,5,5,2154,1950,absent_patch/patch0002154.jpg,absent_patch/patch0001950.jpg,,,,,,,,,,,,,,,,,,,,0.083333333,-0.015740748,1,0,0,response3disk,27,0.000925912,0.001851859,1,0,0,center_square,0,26,26,96,1,,,,,,,,,,,,,,,,,,,,,,,
202383,001,2022-11-21_24h03.17.263,Info_measure_main_exp,2022.2.2,Win32,59.62673663,,,,,,,,,,,,,,,,,,masks/mask_003.jpg,,,,,,,,,,,,,,,,,,,,,,,,,,,,,,,,,,,,,,,,,,,0,0,0,2,1,,,,,,,,,,,,,,,,,,,,,,,,,,,,,,,,,,,,,,,,,,,,,,
202383,001,2022-11-21_24h03.17.263,Info_measure_main_exp,2022.2.2,Win32,59.62673663,,,,,,,,,,,,,,,,,,masks/mask_004.jpg,,,,,,,,,,,,,,,,,,,,,,,,,,,,,,,,,,,,,,,,,,,0,1,1,3,1,,,,,,,,,,,,,,,,,,,,,,,,,,,,,,,,,,,,,,,,,,,,,,
202383,001,2022-11-21_24h03.17.263,Info_measure_main_exp,2022.2.2,Win32,59.62673663,,,,,,,,,,,,,,,,,,masks/mask_002.jpg,,,,,,,,,,,,,,,,,,,,,,,,,,,,,,,,,,,,,,,,,,,0,2,2,1,1,,,,,,,,,,,,,,,,,,,,,,,,,,,,,,,,,,,,,,,,,,,,,,
202383,001,2022-11-21_24h03.17.263,Info_measure_main_exp,2022.2.2,Win32,59.62673663,,,,,,,,,,,,,,,,,,masks/mask_005.jpg,,,,,,,,,,,,,,,,,,,,,,,,,,,,,,,,,,,,,,,,,,,0,3,3,4,1,,,,,,,,,,,,,,,,,,,,,,,,,,,,,,,,,,,,,,,,,,,,,,
202383,001,2022-11-21_24h03.17.263,Info_measure_main_exp,2022.2.2,Win32,59.62673663,,,,,,,,,,,,,,,,,,masks/mask_001.jpg,,,,,,,,,,,,,,,,,,,,,,,,,,,,,,,,,,,,,,,,,,,0,4,4,0,1,,,,,,,,,,,,,,,,,,,,,,,,,,,,,,,,,,,,,,,,,,,,,,
202383,001,2022-11-21_24h03.17.263,Info_measure_main_exp,2022.2.2,Win32,59.62673663,,,,,,,,,,,,,,,,,,masks/mask_001.jpg,,,,,,,,,,,,,,,,,,,,,,,,,,,,,,,,,,,,,,,,,,,,,,,,0,0,0,0,1,,,,,,,,,,,,,,,,,,,,,,,,,,,,,,,,,,,,,,,,,
202383,001,2022-11-21_24h03.17.263,Info_measure_main_exp,2022.2.2,Win32,59.62673663,,,,,,,,,,,,,,,,,,masks/mask_002.jpg,,,,,,,,,,,,,,,,,,,,,,,,,,,,,,,,,,,,,,,,,,,,,,,,0,1,1,1,1,,,,,,,,,,,,,,,,,,,,,,,,,,,,,,,,,,,,,,,,,
202383,001,2022-11-21_24h03.17.263,Info_measure_main_exp,2022.2.2,Win32,59.62673663,,,,,,,,,,,,,,,,,,masks/mask_004.jpg,,,,,,,,,,,,,,,,,,,,,,,,,,,,,,,,,,,,,,,,,,,,,,,,0,2,2,3,1,,,,,,,,,,,,,,,,,,,,,,,,,,,,,,,,,,,,,,,,,
202383,001,2022-11-21_24h03.17.263,Info_measure_main_exp,2022.2.2,Win32,59.62673663,,,,,,,,,,,,,,,,,,masks/mask_005.jpg,,,,,,,,,,,,,,,,,,,,,,,,,,,,,,,,,,,,,,,,,,,,,,,,0,3,3,4,1,,,,,,,,,,,,,,,,,,,,,,,,,,,,,,,,,,,,,,,,,
202383,001,2022-11-21_24h03.17.263,Info_measure_main_exp,2022.2.2,Win32,59.62673663,,,,,,,,,,,,,,,,,,masks/mask_003.jpg,,,,,,,,,,,,,,,,,,,,,,,,,,,,,,,,,,,,,,,,,,,,,,,,0,4,4,2,1,,,,,,,,,,,,,,,,,,,,,,,,,,,,,,,,,,,,,,,,,
202383,001,2022-11-21_24h03.17.263,Info_measure_main_exp,2022.2.2,Win32,59.62673663,,,,,,,,,,,,,,,,,,,,,,,,,,,,,,4,0.95,1,,,,,,,,,,,,0,131,5,5,2154,2190,absent_patch/patch0002154.jpg,absent_patch/patch0002190.jpg,,,,,,,,,,,,,,,,,,,,0.037037037,-0.089814822,1,0,0,response3disk,28,0.002777806,0.005555541,1,0,0,center_square,0,27,27,68,1,,,,,,,,,,,,,,,,,,,,,,,
202383,001,2022-11-21_24h03.17.263,Info_measure_main_exp,2022.2.2,Win32,59.62673663,,,,,,,,,,,,,,,,,,masks/mask_004.jpg,,,,,,,,,,,,,,,,,,,,,,,,,,,,,,,,,,,,,,,,,,,0,0,0,3,1,,,,,,,,,,,,,,,,,,,,,,,,,,,,,,,,,,,,,,,,,,,,,,
202383,001,2022-11-21_24h03.17.263,Info_measure_main_exp,2022.2.2,Win32,59.62673663,,,,,,,,,,,,,,,,,,masks/mask_005.jpg,,,,,,,,,,,,,,,,,,,,,,,,,,,,,,,,,,,,,,,,,,,0,1,1,4,1,,,,,,,,,,,,,,,,,,,,,,,,,,,,,,,,,,,,,,,,,,,,,,
202383,001,2022-11-21_24h03.17.263,Info_measure_main_exp,2022.2.2,Win32,59.62673663,,,,,,,,,,,,,,,,,,masks/mask_003.jpg,,,,,,,,,,,,,,,,,,,,,,,,,,,,,,,,,,,,,,,,,,,0,2,2,2,1,,,,,,,,,,,,,,,,,,,,,,,,,,,,,,,,,,,,,,,,,,,,,,
202383,001,2022-11-21_24h03.17.263,Info_measure_main_exp,2022.2.2,Win32,59.62673663,,,,,,,,,,,,,,,,,,masks/mask_001.jpg,,,,,,,,,,,,,,,,,,,,,,,,,,,,,,,,,,,,,,,,,,,0,3,3,0,1,,,,,,,,,,,,,,,,,,,,,,,,,,,,,,,,,,,,,,,,,,,,,,
202383,001,2022-11-21_24h03.17.263,Info_measure_main_exp,2022.2.2,Win32,59.62673663,,,,,,,,,,,,,,,,,,masks/mask_002.jpg,,,,,,,,,,,,,,,,,,,,,,,,,,,,,,,,,,,,,,,,,,,0,4,4,1,1,,,,,,,,,,,,,,,,,,,,,,,,,,,,,,,,,,,,,,,,,,,,,,
202383,001,2022-11-21_24h03.17.263,Info_measure_main_exp,2022.2.2,Win32,59.62673663,,,,,,,,,,,,,,,,,,masks/mask_001.jpg,,,,,,,,,,,,,,,,,,,,,,,,,,,,,,,,,,,,,,,,,,,,,,,,0,0,0,0,1,,,,,,,,,,,,,,,,,,,,,,,,,,,,,,,,,,,,,,,,,
202383,001,2022-11-21_24h03.17.263,Info_measure_main_exp,2022.2.2,Win32,59.62673663,,,,,,,,,,,,,,,,,,masks/mask_005.jpg,,,,,,,,,,,,,,,,,,,,,,,,,,,,,,,,,,,,,,,,,,,,,,,,0,1,1,4,1,,,,,,,,,,,,,,,,,,,,,,,,,,,,,,,,,,,,,,,,,
202383,001,2022-11-21_24h03.17.263,Info_measure_main_exp,2022.2.2,Win32,59.62673663,,,,,,,,,,,,,,,,,,masks/mask_003.jpg,,,,,,,,,,,,,,,,,,,,,,,,,,,,,,,,,,,,,,,,,,,,,,,,0,2,2,2,1,,,,,,,,,,,,,,,,,,,,,,,,,,,,,,,,,,,,,,,,,
202383,001,2022-11-21_24h03.17.263,Info_measure_main_exp,2022.2.2,Win32,59.62673663,,,,,,,,,,,,,,,,,,masks/mask_002.jpg,,,,,,,,,,,,,,,,,,,,,,,,,,,,,,,,,,,,,,,,,,,,,,,,0,3,3,1,1,,,,,,,,,,,,,,,,,,,,,,,,,,,,,,,,,,,,,,,,,
202383,001,2022-11-21_24h03.17.263,Info_measure_main_exp,2022.2.2,Win32,59.62673663,,,,,,,,,,,,,,,,,,masks/mask_004.jpg,,,,,,,,,,,,,,,,,,,,,,,,,,,,,,,,,,,,,,,,,,,,,,,,0,4,4,3,1,,,,,,,,,,,,,,,,,,,,,,,,,,,,,,,,,,,,,,,,,
202383,001,2022-11-21_24h03.17.263,Info_measure_main_exp,2022.2.2,Win32,59.62673663,,,,,,,,,,,,,,,,,,,,,,,,,,,,,,6,1.4003,1,,,,,,,,,,,,0,131,5,5,1950,2142,absent_patch/patch0001950.jpg,absent_patch/patch0002142.jpg,,,,,,,,,,,,,,,,,,,,0.097222222,0.026851831,1,0,0,response1disk,29,0.005555541,0.002777771,1,0,0,center_square,0,28,28,83,1,,,,,,,,,,,,,,,,,,,,,,,
202383,001,2022-11-21_24h03.17.263,Info_measure_main_exp,2022.2.2,Win32,59.62673663,,,,,,,,,,,,,,,,,,masks/mask_003.jpg,,,,,,,,,,,,,,,,,,,,,,,,,,,,,,,,,,,,,,,,,,,0,0,0,2,1,,,,,,,,,,,,,,,,,,,,,,,,,,,,,,,,,,,,,,,,,,,,,,
202383,001,2022-11-21_24h03.17.263,Info_measure_main_exp,2022.2.2,Win32,59.62673663,,,,,,,,,,,,,,,,,,masks/mask_004.jpg,,,,,,,,,,,,,,,,,,,,,,,,,,,,,,,,,,,,,,,,,,,0,1,1,3,1,,,,,,,,,,,,,,,,,,,,,,,,,,,,,,,,,,,,,,,,,,,,,,
202383,001,2022-11-21_24h03.17.263,Info_measure_main_exp,2022.2.2,Win32,59.62673663,,,,,,,,,,,,,,,,,,masks/mask_005.jpg,,,,,,,,,,,,,,,,,,,,,,,,,,,,,,,,,,,,,,,,,,,0,2,2,4,1,,,,,,,,,,,,,,,,,,,,,,,,,,,,,,,,,,,,,,,,,,,,,,
202383,001,2022-11-21_24h03.17.263,Info_measure_main_exp,2022.2.2,Win32,59.62673663,,,,,,,,,,,,,,,,,,masks/mask_001.jpg,,,,,,,,,,,,,,,,,,,,,,,,,,,,,,,,,,,,,,,,,,,0,3,3,0,1,,,,,,,,,,,,,,,,,,,,,,,,,,,,,,,,,,,,,,,,,,,,,,
202383,001,2022-11-21_24h03.17.263,Info_measure_main_exp,2022.2.2,Win32,59.62673663,,,,,,,,,,,,,,,,,,masks/mask_002.jpg,,,,,,,,,,,,,,,,,,,,,,,,,,,,,,,,,,,,,,,,,,,0,4,4,1,1,,,,,,,,,,,,,,,,,,,,,,,,,,,,,,,,,,,,,,,,,,,,,,
202383,001,2022-11-21_24h03.17.263,Info_measure_main_exp,2022.2.2,Win32,59.62673663,,,,,,,,,,,,,,,,,,masks/mask_003.jpg,,,,,,,,,,,,,,,,,,,,,,,,,,,,,,,,,,,,,,,,,,,,,,,,0,0,0,2,1,,,,,,,,,,,,,,,,,,,,,,,,,,,,,,,,,,,,,,,,,
202383,001,2022-11-21_24h03.17.263,Info_measure_main_exp,2022.2.2,Win32,59.62673663,,,,,,,,,,,,,,,,,,masks/mask_002.jpg,,,,,,,,,,,,,,,,,,,,,,,,,,,,,,,,,,,,,,,,,,,,,,,,0,1,1,1,1,,,,,,,,,,,,,,,,,,,,,,,,,,,,,,,,,,,,,,,,,
202383,001,2022-11-21_24h03.17.263,Info_measure_main_exp,2022.2.2,Win32,59.62673663,,,,,,,,,,,,,,,,,,masks/mask_005.jpg,,,,,,,,,,,,,,,,,,,,,,,,,,,,,,,,,,,,,,,,,,,,,,,,0,2,2,4,1,,,,,,,,,,,,,,,,,,,,,,,,,,,,,,,,,,,,,,,,,
202383,001,2022-11-21_24h03.17.263,Info_measure_main_exp,2022.2.2,Win32,59.62673663,,,,,,,,,,,,,,,,,,masks/mask_004.jpg,,,,,,,,,,,,,,,,,,,,,,,,,,,,,,,,,,,,,,,,,,,,,,,,0,3,3,3,1,,,,,,,,,,,,,,,,,,,,,,,,,,,,,,,,,,,,,,,,,
202383,001,2022-11-21_24h03.17.263,Info_measure_main_exp,2022.2.2,Win32,59.62673663,,,,,,,,,,,,,,,,,,masks/mask_001.jpg,,,,,,,,,,,,,,,,,,,,,,,,,,,,,,,,,,,,,,,,,,,,,,,,0,4,4,0,1,,,,,,,,,,,,,,,,,,,,,,,,,,,,,,,,,,,,,,,,,
202383,001,2022-11-21_24h03.17.263,Info_measure_main_exp,2022.2.2,Win32,59.62673663,,,,,,,,,,,,,,,,,,,,,,,,,,,,,,5,0.7664,1,,,,,,,,,,,,0,131,5,5,2178,2142,absent_patch/patch0002178.jpg,absent_patch/patch0002142.jpg,,,,,,,,,,,,,,,,,,,,0.087037051,-0.032407407,1,0,0,response3disk,30,-0.00462963,-0.002777771,1,0,0,center_square,0,29,29,41,1,,,,,,,,,,,,,,,,,,,,,,,
202383,001,2022-11-21_24h03.17.263,Info_measure_main_exp,2022.2.2,Win32,59.62673663,,,,,,,,,,,,,,,,,,masks/mask_004.jpg,,,,,,,,,,,,,,,,,,,,,,,,,,,,,,,,,,,,,,,,,,,0,0,0,3,1,,,,,,,,,,,,,,,,,,,,,,,,,,,,,,,,,,,,,,,,,,,,,,
202383,001,2022-11-21_24h03.17.263,Info_measure_main_exp,2022.2.2,Win32,59.62673663,,,,,,,,,,,,,,,,,,masks/mask_005.jpg,,,,,,,,,,,,,,,,,,,,,,,,,,,,,,,,,,,,,,,,,,,0,1,1,4,1,,,,,,,,,,,,,,,,,,,,,,,,,,,,,,,,,,,,,,,,,,,,,,
202383,001,2022-11-21_24h03.17.263,Info_measure_main_exp,2022.2.2,Win32,59.62673663,,,,,,,,,,,,,,,,,,masks/mask_001.jpg,,,,,,,,,,,,,,,,,,,,,,,,,,,,,,,,,,,,,,,,,,,0,2,2,0,1,,,,,,,,,,,,,,,,,,,,,,,,,,,,,,,,,,,,,,,,,,,,,,
202383,001,2022-11-21_24h03.17.263,Info_measure_main_exp,2022.2.2,Win32,59.62673663,,,,,,,,,,,,,,,,,,masks/mask_002.jpg,,,,,,,,,,,,,,,,,,,,,,,,,,,,,,,,,,,,,,,,,,,0,3,3,1,1,,,,,,,,,,,,,,,,,,,,,,,,,,,,,,,,,,,,,,,,,,,,,,
202383,001,2022-11-21_24h03.17.263,Info_measure_main_exp,2022.2.2,Win32,59.62673663,,,,,,,,,,,,,,,,,,masks/mask_003.jpg,,,,,,,,,,,,,,,,,,,,,,,,,,,,,,,,,,,,,,,,,,,0,4,4,2,1,,,,,,,,,,,,,,,,,,,,,,,,,,,,,,,,,,,,,,,,,,,,,,
202383,001,2022-11-21_24h03.17.263,Info_measure_main_exp,2022.2.2,Win32,59.62673663,,,,,,,,,,,,,,,,,,masks/mask_002.jpg,,,,,,,,,,,,,,,,,,,,,,,,,,,,,,,,,,,,,,,,,,,,,,,,0,0,0,1,1,,,,,,,,,,,,,,,,,,,,,,,,,,,,,,,,,,,,,,,,,
202383,001,2022-11-21_24h03.17.263,Info_measure_main_exp,2022.2.2,Win32,59.62673663,,,,,,,,,,,,,,,,,,masks/mask_001.jpg,,,,,,,,,,,,,,,,,,,,,,,,,,,,,,,,,,,,,,,,,,,,,,,,0,1,1,0,1,,,,,,,,,,,,,,,,,,,,,,,,,,,,,,,,,,,,,,,,,
202383,001,2022-11-21_24h03.17.263,Info_measure_main_exp,2022.2.2,Win32,59.62673663,,,,,,,,,,,,,,,,,,masks/mask_004.jpg,,,,,,,,,,,,,,,,,,,,,,,,,,,,,,,,,,,,,,,,,,,,,,,,0,2,2,3,1,,,,,,,,,,,,,,,,,,,,,,,,,,,,,,,,,,,,,,,,,
202383,001,2022-11-21_24h03.17.263,Info_measure_main_exp,2022.2.2,Win32,59.62673663,,,,,,,,,,,,,,,,,,masks/mask_003.jpg,,,,,,,,,,,,,,,,,,,,,,,,,,,,,,,,,,,,,,,,,,,,,,,,0,3,3,2,1,,,,,,,,,,,,,,,,,,,,,,,,,,,,,,,,,,,,,,,,,
202383,001,2022-11-21_24h03.17.263,Info_measure_main_exp,2022.2.2,Win32,59.62673663,,,,,,,,,,,,,,,,,,masks/mask_005.jpg,,,,,,,,,,,,,,,,,,,,,,,,,,,,,,,,,,,,,,,,,,,,,,,,0,4,4,4,1,,,,,,,,,,,,,,,,,,,,,,,,,,,,,,,,,,,,,,,,,
202383,001,2022-11-21_24h03.17.263,Info_measure_main_exp,2022.2.2,Win32,59.62673663,,,,,,,,,,,,,,,,,,,,,,,,,,,,,,0,0.4669,1,,,,,,,,,,,,0,131,5,5,2166,2166,absent_patch/patch0002166.jpg,absent_patch/patch0002166.jpg,,,,,,,,,,,,,,,,,,,,-0.062037009,0.10833334,1,0,0,response7disk,31,-0.003703718,0.009259259,1,0,0,center_square,0,30,30,42,1,,,,,,,,,,,,,,,,,,,,,,,
202383,001,2022-11-21_24h03.17.263,Info_measure_main_exp,2022.2.2,Win32,59.62673663,,,,,,,,,,,,,,,,,,masks/mask_003.jpg,,,,,,,,,,,,,,,,,,,,,,,,,,,,,,,,,,,,,,,,,,,0,0,0,2,1,,,,,,,,,,,,,,,,,,,,,,,,,,,,,,,,,,,,,,,,,,,,,,
202383,001,2022-11-21_24h03.17.263,Info_measure_main_exp,2022.2.2,Win32,59.62673663,,,,,,,,,,,,,,,,,,masks/mask_004.jpg,,,,,,,,,,,,,,,,,,,,,,,,,,,,,,,,,,,,,,,,,,,0,1,1,3,1,,,,,,,,,,,,,,,,,,,,,,,,,,,,,,,,,,,,,,,,,,,,,,
202383,001,2022-11-21_24h03.17.263,Info_measure_main_exp,2022.2.2,Win32,59.62673663,,,,,,,,,,,,,,,,,,masks/mask_001.jpg,,,,,,,,,,,,,,,,,,,,,,,,,,,,,,,,,,,,,,,,,,,0,2,2,0,1,,,,,,,,,,,,,,,,,,,,,,,,,,,,,,,,,,,,,,,,,,,,,,
202383,001,2022-11-21_24h03.17.263,Info_measure_main_exp,2022.2.2,Win32,59.62673663,,,,,,,,,,,,,,,,,,masks/mask_002.jpg,,,,,,,,,,,,,,,,,,,,,,,,,,,,,,,,,,,,,,,,,,,0,3,3,1,1,,,,,,,,,,,,,,,,,,,,,,,,,,,,,,,,,,,,,,,,,,,,,,
202383,001,2022-11-21_24h03.17.263,Info_measure_main_exp,2022.2.2,Win32,59.62673663,,,,,,,,,,,,,,,,,,masks/mask_005.jpg,,,,,,,,,,,,,,,,,,,,,,,,,,,,,,,,,,,,,,,,,,,0,4,4,4,1,,,,,,,,,,,,,,,,,,,,,,,,,,,,,,,,,,,,,,,,,,,,,,
202383,001,2022-11-21_24h03.17.263,Info_measure_main_exp,2022.2.2,Win32,59.62673663,,,,,,,,,,,,,,,,,,masks/mask_003.jpg,,,,,,,,,,,,,,,,,,,,,,,,,,,,,,,,,,,,,,,,,,,,,,,,0,0,0,2,1,,,,,,,,,,,,,,,,,,,,,,,,,,,,,,,,,,,,,,,,,
202383,001,2022-11-21_24h03.17.263,Info_measure_main_exp,2022.2.2,Win32,59.62673663,,,,,,,,,,,,,,,,,,masks/mask_001.jpg,,,,,,,,,,,,,,,,,,,,,,,,,,,,,,,,,,,,,,,,,,,,,,,,0,1,1,0,1,,,,,,,,,,,,,,,,,,,,,,,,,,,,,,,,,,,,,,,,,
202383,001,2022-11-21_24h03.17.263,Info_measure_main_exp,2022.2.2,Win32,59.62673663,,,,,,,,,,,,,,,,,,masks/mask_002.jpg,,,,,,,,,,,,,,,,,,,,,,,,,,,,,,,,,,,,,,,,,,,,,,,,0,2,2,1,1,,,,,,,,,,,,,,,,,,,,,,,,,,,,,,,,,,,,,,,,,
202383,001,2022-11-21_24h03.17.263,Info_measure_main_exp,2022.2.2,Win32,59.62673663,,,,,,,,,,,,,,,,,,masks/mask_004.jpg,,,,,,,,,,,,,,,,,,,,,,,,,,,,,,,,,,,,,,,,,,,,,,,,0,3,3,3,1,,,,,,,,,,,,,,,,,,,,,,,,,,,,,,,,,,,,,,,,,
202383,001,2022-11-21_24h03.17.263,Info_measure_main_exp,2022.2.2,Win32,59.62673663,,,,,,,,,,,,,,,,,,masks/mask_005.jpg,,,,,,,,,,,,,,,,,,,,,,,,,,,,,,,,,,,,,,,,,,,,,,,,0,4,4,4,1,,,,,,,,,,,,,,,,,,,,,,,,,,,,,,,,,,,,,,,,,
202383,001,2022-11-21_24h03.17.263,Info_measure_main_exp,2022.2.2,Win32,59.62673663,,,,,,,,,,,,,,,,,,,,,,,,,,,,,,4,0.6831,1,,,,,,,,,,,,0,131,5,5,2250,2214,absent_patch/patch0002250.jpg,absent_patch/patch0002214.jpg,,,,,,,,,,,,,,,,,,,,0.069444444,-0.070370392,1,0,0,response3disk,32,-0.003703718,0.005555541,1,0,0,center_square,0,31,31,97,1,,,,,,,,,,,,,,,,,,,,,,,
202383,001,2022-11-21_24h03.17.263,Info_measure_main_exp,2022.2.2,Win32,59.62673663,,,,,,,,,,,,,,,,,,masks/mask_005.jpg,,,,,,,,,,,,,,,,,,,,,,,,,,,,,,,,,,,,,,,,,,,0,0,0,4,1,,,,,,,,,,,,,,,,,,,,,,,,,,,,,,,,,,,,,,,,,,,,,,
202383,001,2022-11-21_24h03.17.263,Info_measure_main_exp,2022.2.2,Win32,59.62673663,,,,,,,,,,,,,,,,,,masks/mask_004.jpg,,,,,,,,,,,,,,,,,,,,,,,,,,,,,,,,,,,,,,,,,,,0,1,1,3,1,,,,,,,,,,,,,,,,,,,,,,,,,,,,,,,,,,,,,,,,,,,,,,
202383,001,2022-11-21_24h03.17.263,Info_measure_main_exp,2022.2.2,Win32,59.62673663,,,,,,,,,,,,,,,,,,masks/mask_001.jpg,,,,,,,,,,,,,,,,,,,,,,,,,,,,,,,,,,,,,,,,,,,0,2,2,0,1,,,,,,,,,,,,,,,,,,,,,,,,,,,,,,,,,,,,,,,,,,,,,,
202383,001,2022-11-21_24h03.17.263,Info_measure_main_exp,2022.2.2,Win32,59.62673663,,,,,,,,,,,,,,,,,,masks/mask_003.jpg,,,,,,,,,,,,,,,,,,,,,,,,,,,,,,,,,,,,,,,,,,,0,3,3,2,1,,,,,,,,,,,,,,,,,,,,,,,,,,,,,,,,,,,,,,,,,,,,,,
202383,001,2022-11-21_24h03.17.263,Info_measure_main_exp,2022.2.2,Win32,59.62673663,,,,,,,,,,,,,,,,,,masks/mask_002.jpg,,,,,,,,,,,,,,,,,,,,,,,,,,,,,,,,,,,,,,,,,,,0,4,4,1,1,,,,,,,,,,,,,,,,,,,,,,,,,,,,,,,,,,,,,,,,,,,,,,
202383,001,2022-11-21_24h03.17.263,Info_measure_main_exp,2022.2.2,Win32,59.62673663,,,,,,,,,,,,,,,,,,masks/mask_005.jpg,,,,,,,,,,,,,,,,,,,,,,,,,,,,,,,,,,,,,,,,,,,,,,,,0,0,0,4,1,,,,,,,,,,,,,,,,,,,,,,,,,,,,,,,,,,,,,,,,,
202383,001,2022-11-21_24h03.17.263,Info_measure_main_exp,2022.2.2,Win32,59.62673663,,,,,,,,,,,,,,,,,,masks/mask_003.jpg,,,,,,,,,,,,,,,,,,,,,,,,,,,,,,,,,,,,,,,,,,,,,,,,0,1,1,2,1,,,,,,,,,,,,,,,,,,,,,,,,,,,,,,,,,,,,,,,,,
202383,001,2022-11-21_24h03.17.263,Info_measure_main_exp,2022.2.2,Win32,59.62673663,,,,,,,,,,,,,,,,,,masks/mask_002.jpg,,,,,,,,,,,,,,,,,,,,,,,,,,,,,,,,,,,,,,,,,,,,,,,,0,2,2,1,1,,,,,,,,,,,,,,,,,,,,,,,,,,,,,,,,,,,,,,,,,
202383,001,2022-11-21_24h03.17.263,Info_measure_main_exp,2022.2.2,Win32,59.62673663,,,,,,,,,,,,,,,,,,masks/mask_004.jpg,,,,,,,,,,,,,,,,,,,,,,,,,,,,,,,,,,,,,,,,,,,,,,,,0,3,3,3,1,,,,,,,,,,,,,,,,,,,,,,,,,,,,,,,,,,,,,,,,,
202383,001,2022-11-21_24h03.17.263,Info_measure_main_exp,2022.2.2,Win32,59.62673663,,,,,,,,,,,,,,,,,,masks/mask_001.jpg,,,,,,,,,,,,,,,,,,,,,,,,,,,,,,,,,,,,,,,,,,,,,,,,0,4,4,0,1,,,,,,,,,,,,,,,,,,,,,,,,,,,,,,,,,,,,,,,,,
202383,001,2022-11-21_24h03.17.263,Info_measure_main_exp,2022.2.2,Win32,59.62673663,,,,,,,,,,,,,,,,,,,,,,,,,,,,,,5,0.8498,1,,,,,,,,,,,,0,131,5,5,2250,2178,absent_patch/patch0002250.jpg,absent_patch/patch0002178.jpg,,,,,,,,,,,,,,,,,,,,0.075925968,-0.020370377,1,0,0,response3disk,33,0.006481524,0.001851859,1,0,0,center_square,0,32,32,48,1,,,,,,,,,,,,,,,,,,,,,,,
202383,001,2022-11-21_24h03.17.263,Info_measure_main_exp,2022.2.2,Win32,59.62673663,,,,,,,,,,,,,,,,,,masks/mask_005.jpg,,,,,,,,,,,,,,,,,,,,,,,,,,,,,,,,,,,,,,,,,,,0,0,0,4,1,,,,,,,,,,,,,,,,,,,,,,,,,,,,,,,,,,,,,,,,,,,,,,
202383,001,2022-11-21_24h03.17.263,Info_measure_main_exp,2022.2.2,Win32,59.62673663,,,,,,,,,,,,,,,,,,masks/mask_001.jpg,,,,,,,,,,,,,,,,,,,,,,,,,,,,,,,,,,,,,,,,,,,0,1,1,0,1,,,,,,,,,,,,,,,,,,,,,,,,,,,,,,,,,,,,,,,,,,,,,,
202383,001,2022-11-21_24h03.17.263,Info_measure_main_exp,2022.2.2,Win32,59.62673663,,,,,,,,,,,,,,,,,,masks/mask_002.jpg,,,,,,,,,,,,,,,,,,,,,,,,,,,,,,,,,,,,,,,,,,,0,2,2,1,1,,,,,,,,,,,,,,,,,,,,,,,,,,,,,,,,,,,,,,,,,,,,,,
202383,001,2022-11-21_24h03.17.263,Info_measure_main_exp,2022.2.2,Win32,59.62673663,,,,,,,,,,,,,,,,,,masks/mask_003.jpg,,,,,,,,,,,,,,,,,,,,,,,,,,,,,,,,,,,,,,,,,,,0,3,3,2,1,,,,,,,,,,,,,,,,,,,,,,,,,,,,,,,,,,,,,,,,,,,,,,
202383,001,2022-11-21_24h03.17.263,Info_measure_main_exp,2022.2.2,Win32,59.62673663,,,,,,,,,,,,,,,,,,masks/mask_004.jpg,,,,,,,,,,,,,,,,,,,,,,,,,,,,,,,,,,,,,,,,,,,0,4,4,3,1,,,,,,,,,,,,,,,,,,,,,,,,,,,,,,,,,,,,,,,,,,,,,,
202383,001,2022-11-21_24h03.17.263,Info_measure_main_exp,2022.2.2,Win32,59.62673663,,,,,,,,,,,,,,,,,,masks/mask_003.jpg,,,,,,,,,,,,,,,,,,,,,,,,,,,,,,,,,,,,,,,,,,,,,,,,0,0,0,2,1,,,,,,,,,,,,,,,,,,,,,,,,,,,,,,,,,,,,,,,,,
202383,001,2022-11-21_24h03.17.263,Info_measure_main_exp,2022.2.2,Win32,59.62673663,,,,,,,,,,,,,,,,,,masks/mask_005.jpg,,,,,,,,,,,,,,,,,,,,,,,,,,,,,,,,,,,,,,,,,,,,,,,,0,1,1,4,1,,,,,,,,,,,,,,,,,,,,,,,,,,,,,,,,,,,,,,,,,
202383,001,2022-11-21_24h03.17.263,Info_measure_main_exp,2022.2.2,Win32,59.62673663,,,,,,,,,,,,,,,,,,masks/mask_002.jpg,,,,,,,,,,,,,,,,,,,,,,,,,,,,,,,,,,,,,,,,,,,,,,,,0,2,2,1,1,,,,,,,,,,,,,,,,,,,,,,,,,,,,,,,,,,,,,,,,,
202383,001,2022-11-21_24h03.17.263,Info_measure_main_exp,2022.2.2,Win32,59.62673663,,,,,,,,,,,,,,,,,,masks/mask_001.jpg,,,,,,,,,,,,,,,,,,,,,,,,,,,,,,,,,,,,,,,,,,,,,,,,0,3,3,0,1,,,,,,,,,,,,,,,,,,,,,,,,,,,,,,,,,,,,,,,,,
202383,001,2022-11-21_24h03.17.263,Info_measure_main_exp,2022.2.2,Win32,59.62673663,,,,,,,,,,,,,,,,,,masks/mask_004.jpg,,,,,,,,,,,,,,,,,,,,,,,,,,,,,,,,,,,,,,,,,,,,,,,,0,4,4,3,1,,,,,,,,,,,,,,,,,,,,,,,,,,,,,,,,,,,,,,,,,
202383,001,2022-11-21_24h03.17.263,Info_measure_main_exp,2022.2.2,Win32,59.62673663,,,,,,,,,,,,,,,,,,,,,,,,,,,,,,0,0.4997,1,,,,,,,,,,,,0,131,5,5,2250,2250,absent_patch/patch0002250.jpg,absent_patch/patch0002250.jpg,,,,,,,,,,,,,,,,,,,,-0.050925926,0.136111118,1,0,0,response7disk,34,0.005555541,-0.000925947,1,0,0,center_square,0,33,33,56,1,,,,,,,,,,,,,,,,,,,,,,,
202383,001,2022-11-21_24h03.17.263,Info_measure_main_exp,2022.2.2,Win32,59.62673663,,,,,,,,,,,,,,,,,,masks/mask_004.jpg,,,,,,,,,,,,,,,,,,,,,,,,,,,,,,,,,,,,,,,,,,,0,0,0,3,1,,,,,,,,,,,,,,,,,,,,,,,,,,,,,,,,,,,,,,,,,,,,,,
202383,001,2022-11-21_24h03.17.263,Info_measure_main_exp,2022.2.2,Win32,59.62673663,,,,,,,,,,,,,,,,,,masks/mask_005.jpg,,,,,,,,,,,,,,,,,,,,,,,,,,,,,,,,,,,,,,,,,,,0,1,1,4,1,,,,,,,,,,,,,,,,,,,,,,,,,,,,,,,,,,,,,,,,,,,,,,
202383,001,2022-11-21_24h03.17.263,Info_measure_main_exp,2022.2.2,Win32,59.62673663,,,,,,,,,,,,,,,,,,masks/mask_001.jpg,,,,,,,,,,,,,,,,,,,,,,,,,,,,,,,,,,,,,,,,,,,0,2,2,0,1,,,,,,,,,,,,,,,,,,,,,,,,,,,,,,,,,,,,,,,,,,,,,,
202383,001,2022-11-21_24h03.17.263,Info_measure_main_exp,2022.2.2,Win32,59.62673663,,,,,,,,,,,,,,,,,,masks/mask_003.jpg,,,,,,,,,,,,,,,,,,,,,,,,,,,,,,,,,,,,,,,,,,,0,3,3,2,1,,,,,,,,,,,,,,,,,,,,,,,,,,,,,,,,,,,,,,,,,,,,,,
202383,001,2022-11-21_24h03.17.263,Info_measure_main_exp,2022.2.2,Win32,59.62673663,,,,,,,,,,,,,,,,,,masks/mask_002.jpg,,,,,,,,,,,,,,,,,,,,,,,,,,,,,,,,,,,,,,,,,,,0,4,4,1,1,,,,,,,,,,,,,,,,,,,,,,,,,,,,,,,,,,,,,,,,,,,,,,
202383,001,2022-11-21_24h03.17.263,Info_measure_main_exp,2022.2.2,Win32,59.62673663,,,,,,,,,,,,,,,,,,masks/mask_005.jpg,,,,,,,,,,,,,,,,,,,,,,,,,,,,,,,,,,,,,,,,,,,,,,,,0,0,0,4,1,,,,,,,,,,,,,,,,,,,,,,,,,,,,,,,,,,,,,,,,,
202383,001,2022-11-21_24h03.17.263,Info_measure_main_exp,2022.2.2,Win32,59.62673663,,,,,,,,,,,,,,,,,,masks/mask_001.jpg,,,,,,,,,,,,,,,,,,,,,,,,,,,,,,,,,,,,,,,,,,,,,,,,0,1,1,0,1,,,,,,,,,,,,,,,,,,,,,,,,,,,,,,,,,,,,,,,,,
202383,001,2022-11-21_24h03.17.263,Info_measure_main_exp,2022.2.2,Win32,59.62673663,,,,,,,,,,,,,,,,,,masks/mask_003.jpg,,,,,,,,,,,,,,,,,,,,,,,,,,,,,,,,,,,,,,,,,,,,,,,,0,2,2,2,1,,,,,,,,,,,,,,,,,,,,,,,,,,,,,,,,,,,,,,,,,
202383,001,2022-11-21_24h03.17.263,Info_measure_main_exp,2022.2.2,Win32,59.62673663,,,,,,,,,,,,,,,,,,masks/mask_004.jpg,,,,,,,,,,,,,,,,,,,,,,,,,,,,,,,,,,,,,,,,,,,,,,,,0,3,3,3,1,,,,,,,,,,,,,,,,,,,,,,,,,,,,,,,,,,,,,,,,,
