participant,session,date,expName,psychopyVersion,OS,frameRate,space_press_continue.keys,space_press_continue.rt,space_press_continue_2.keys,space_press_continue_2.rt,space_press_continue_3.keys,space_press_continue_3.rt,space_press_continue_4.keys,space_press_continue_4.rt,space_press_continue_5.keys,space_press_continue_5.rt,space_press_continue_6.keys,space_press_continue_6.rt,prac_mask_loop_1.thisRepN,prac_mask_loop_1.thisTrialN,prac_mask_loop_1.thisN,prac_mask_loop_1.thisIndex,prac_mask_loop_1.ran,mask_name,prac_mask_loop_2.thisRepN,prac_mask_loop_2.thisTrialN,prac_mask_loop_2.thisN,prac_mask_loop_2.thisIndex,prac_mask_loop_2.ran,mouse_2.x,mouse_2.y,mouse_2.leftButton,mouse_2.midButton,mouse_2.rightButton,mouse_2.clicked_name,similarity,response_time,Pass,mouse_12.x,mouse_12.y,mouse_12.leftButton,mouse_12.midButton,mouse_12.rightButton,mouse_12.clicked_name,prac_loop.thisRepN,prac_loop.thisTrialN,prac_loop.thisN,prac_loop.thisIndex,prac_loop.ran,Pair_type,Image_num,Patch_1_loc,Patch_2_loc,Patch_1_info,Patch_2_info,Patch_1_name,Patch_2_name,mouse_1.x,mouse_1.y,mouse_1.leftButton,mouse_1.midButton,mouse_1.rightButton,mouse_1.time,mouse_1.clicked_name,space_press_continue_7.keys,space_press_continue_7.rt,mask_loop.thisRepN,mask_loop.thisTrialN,mask_loop.thisN,mask_loop.thisIndex,mask_loop.ran,mask_loop_2.thisRepN,mask_loop_2.thisTrialN,mask_loop_2.thisN,mask_loop_2.thisIndex,mask_loop_2.ran,mouse.x,mouse.y,mouse.leftButton,mouse.midButton,mouse.rightButton,mouse.clicked_name,trialNumber,mouse_11.x,mouse_11.y,mouse_11.leftButton,mouse_11.midButton,mouse_11.rightButton,mouse_11.clicked_name,first_pass_loop.thisRepN,first_pass_loop.thisTrialN,first_pass_loop.thisN,first_pass_loop.thisIndex,first_pass_loop.ran,mask_loop_3.thisRepN,mask_loop_3.thisTrialN,mask_loop_3.thisN,mask_loop_3.thisIndex,mask_loop_3.ran,mask_loop_4.thisRepN,mask_loop_4.thisTrialN,mask_loop_4.thisN,mask_loop_4.thisIndex,mask_loop_4.ran,mouse_3.x,mouse_3.y,mouse_3.leftButton,mouse_3.midButton,mouse_3.rightButton,mouse_3.clicked_name,double_pass_loop.thisRepN,double_pass_loop.thisTrialN,double_pass_loop.thisN,double_pass_loop.thisIndex,double_pass_loop.ran,space_exit.keys,space_exit.rt
204846,001,2022-11-21_24h55.05.108,Info_measure_main_exp,2022.2.2,Win32,60.19020104,,,,,,,,,,,,,,,,,,,,,,,,,,,,,,,,,,,,,,,,,,,,,,,,,,,,,,,,,,,,,,,,,,,,,,,,,,,,,,,,,,,,,,,,,,,,,,,,,,,,,,,,,,,,,,,
204846,001,2022-11-21_24h55.05.108,Info_measure_main_exp,2022.2.2,Win32,60.19020104,,,,,,,,,,,,,,,,,,,,,,,,,,,,,,,,,,,,,,,,,,,,,,,,,,,,,,,,,,,,,,,,,,,,,,,,,,,,,,,,,,,,,,,,,,,,,,,,,,,,,,,,,,,,,,,
204846,001,2022-11-21_24h55.05.108,Info_measure_main_exp,2022.2.2,Win32,60.19020104,space,6.6474,,,,,,,,,,,,,,,,,,,,,,,,,,,,,,,,,,,,,,,,,,,,,,,,,,,,,,,,,,,,,,,,,,,,,,,,,,,,,,,,,,,,,,,,,,,,,,,,,,,,,,,,,,,,,
204846,001,2022-11-21_24h55.05.108,Info_measure_main_exp,2022.2.2,Win32,60.19020104,,,space,15.5972,,,,,,,,,,,,,,,,,,,,,,,,,,,,,,,,,,,,,,,,,,,,,,,,,,,,,,,,,,,,,,,,,,,,,,,,,,,,,,,,,,,,,,,,,,,,,,,,,,,,,,,,,,,
204846,001,2022-11-21_24h55.05.108,Info_measure_main_exp,2022.2.2,Win32,60.19020104,,,,,space,7.9436,,,,,,,,,,,,,,,,,,,,,,,,,,,,,,,,,,,,,,,,,,,,,,,,,,,,,,,,,,,,,,,,,,,,,,,,,,,,,,,,,,,,,,,,,,,,,,,,,,,,,,,,,
204846,001,2022-11-21_24h55.05.108,Info_measure_main_exp,2022.2.2,Win32,60.19020104,,,,,,,space,14.8034,,,,,,,,,,,,,,,,,,,,,,,,,,,,,,,,,,,,,,,,,,,,,,,,,,,,,,,,,,,,,,,,,,,,,,,,,,,,,,,,,,,,,,,,,,,,,,,,,,,,,,,
204846,001,2022-11-21_24h55.05.108,Info_measure_main_exp,2022.2.2,Win32,60.19020104,,,,,,,,,space,6.1343,,,,,,,,,,,,,,,,,,,,,,,,,,,,,,,,,,,,,,,,,,,,,,,,,,,,,,,,,,,,,,,,,,,,,,,,,,,,,,,,,,,,,,,,,,,,,,,,,,,,,
204846,001,2022-11-21_24h55.05.108,Info_measure_main_exp,2022.2.2,Win32,60.19020104,,,,,,,,,,,space,5.1043,,,,,,,,,,,,,,,,,,,,,,,,,,,,,,,,,,,,,,,,,,,,,,,,,,,,,,,,,,,,,,,,,,,,,,,,,,,,,,,,,,,,,,,,,,,,,,,,,,,
204846,001,2022-11-21_24h55.05.108,Info_measure_main_exp,2022.2.2,Win32,60.19020104,,,,,,,,,,,,,0,0,0,1,1,masks/mask_002.jpg,,,,,,,,,,,,,,,,,,,,,,,,,,,,,,,,,,,,,,,,,,,,,,,,,,,,,,,,,,,,,,,,,,,,,,,,,,,,,,,,,,,,,,,,,,,,,
204846,001,2022-11-21_24h55.05.108,Info_measure_main_exp,2022.2.2,Win32,60.19020104,,,,,,,,,,,,,0,1,1,0,1,masks/mask_001.jpg,,,,,,,,,,,,,,,,,,,,,,,,,,,,,,,,,,,,,,,,,,,,,,,,,,,,,,,,,,,,,,,,,,,,,,,,,,,,,,,,,,,,,,,,,,,,,
204846,001,2022-11-21_24h55.05.108,Info_measure_main_exp,2022.2.2,Win32,60.19020104,,,,,,,,,,,,,0,2,2,2,1,masks/mask_003.jpg,,,,,,,,,,,,,,,,,,,,,,,,,,,,,,,,,,,,,,,,,,,,,,,,,,,,,,,,,,,,,,,,,,,,,,,,,,,,,,,,,,,,,,,,,,,,,
204846,001,2022-11-21_24h55.05.108,Info_measure_main_exp,2022.2.2,Win32,60.19020104,,,,,,,,,,,,,0,3,3,4,1,masks/mask_005.jpg,,,,,,,,,,,,,,,,,,,,,,,,,,,,,,,,,,,,,,,,,,,,,,,,,,,,,,,,,,,,,,,,,,,,,,,,,,,,,,,,,,,,,,,,,,,,,
204846,001,2022-11-21_24h55.05.108,Info_measure_main_exp,2022.2.2,Win32,60.19020104,,,,,,,,,,,,,0,4,4,3,1,masks/mask_004.jpg,,,,,,,,,,,,,,,,,,,,,,,,,,,,,,,,,,,,,,,,,,,,,,,,,,,,,,,,,,,,,,,,,,,,,,,,,,,,,,,,,,,,,,,,,,,,,
204846,001,2022-11-21_24h55.05.108,Info_measure_main_exp,2022.2.2,Win32,60.19020104,,,,,,,,,,,,,,,,,,masks/mask_005.jpg,0,0,0,4,1,,,,,,,,,,,,,,,,,,,,,,,,,,,,,,,,,,,,,,,,,,,,,,,,,,,,,,,,,,,,,,,,,,,,,,,,,,,,,,,,,,,,,,,,
204846,001,2022-11-21_24h55.05.108,Info_measure_main_exp,2022.2.2,Win32,60.19020104,,,,,,,,,,,,,,,,,,masks/mask_002.jpg,0,1,1,1,1,,,,,,,,,,,,,,,,,,,,,,,,,,,,,,,,,,,,,,,,,,,,,,,,,,,,,,,,,,,,,,,,,,,,,,,,,,,,,,,,,,,,,,,,
204846,001,2022-11-21_24h55.05.108,Info_measure_main_exp,2022.2.2,Win32,60.19020104,,,,,,,,,,,,,,,,,,masks/mask_003.jpg,0,2,2,2,1,,,,,,,,,,,,,,,,,,,,,,,,,,,,,,,,,,,,,,,,,,,,,,,,,,,,,,,,,,,,,,,,,,,,,,,,,,,,,,,,,,,,,,,,
204846,001,2022-11-21_24h55.05.108,Info_measure_main_exp,2022.2.2,Win32,60.19020104,,,,,,,,,,,,,,,,,,masks/mask_001.jpg,0,3,3,0,1,,,,,,,,,,,,,,,,,,,,,,,,,,,,,,,,,,,,,,,,,,,,,,,,,,,,,,,,,,,,,,,,,,,,,,,,,,,,,,,,,,,,,,,,
204846,001,2022-11-21_24h55.05.108,Info_measure_main_exp,2022.2.2,Win32,60.19020104,,,,,,,,,,,,,,,,,,masks/mask_004.jpg,0,4,4,3,1,,,,,,,,,,,,,,,,,,,,,,,,,,,,,,,,,,,,,,,,,,,,,,,,,,,,,,,,,,,,,,,,,,,,,,,,,,,,,,,,,,,,,,,,
204846,001,2022-11-21_24h55.05.108,Info_measure_main_exp,2022.2.2,Win32,60.19020104,,,,,,,,,,,,,,,,,,,,,,,,-0.121296282,-0.042592614,1,0,0,response5disk,2,61.3545,1,-0.00462963,0.000925912,1,0,0,center_square,0,0,0,1,1,0,131,5,5,2514,2490,prac_patch/patch0002514.jpg,prac_patch/patch0002490.jpg,,,,,,,,,,,,,,,,,,,,,,,,,,,,,,,,,,,,,,,,,,,,,,,,,,,,,,,,,,,,
204846,001,2022-11-21_24h55.05.108,Info_measure_main_exp,2022.2.2,Win32,60.19020104,,,,,,,,,,,,,0,0,0,0,1,masks/mask_001.jpg,,,,,,,,,,,,,,,,,,,,,,,,,,,,,,,,,,,,,,,,,,,,,,,,,,,,,,,,,,,,,,,,,,,,,,,,,,,,,,,,,,,,,,,,,,,,,
204846,001,2022-11-21_24h55.05.108,Info_measure_main_exp,2022.2.2,Win32,60.19020104,,,,,,,,,,,,,0,1,1,1,1,masks/mask_002.jpg,,,,,,,,,,,,,,,,,,,,,,,,,,,,,,,,,,,,,,,,,,,,,,,,,,,,,,,,,,,,,,,,,,,,,,,,,,,,,,,,,,,,,,,,,,,,,
204846,001,2022-11-21_24h55.05.108,Info_measure_main_exp,2022.2.2,Win32,60.19020104,,,,,,,,,,,,,0,2,2,4,1,masks/mask_005.jpg,,,,,,,,,,,,,,,,,,,,,,,,,,,,,,,,,,,,,,,,,,,,,,,,,,,,,,,,,,,,,,,,,,,,,,,,,,,,,,,,,,,,,,,,,,,,,
204846,001,2022-11-21_24h55.05.108,Info_measure_main_exp,2022.2.2,Win32,60.19020104,,,,,,,,,,,,,0,3,3,2,1,masks/mask_003.jpg,,,,,,,,,,,,,,,,,,,,,,,,,,,,,,,,,,,,,,,,,,,,,,,,,,,,,,,,,,,,,,,,,,,,,,,,,,,,,,,,,,,,,,,,,,,,,
204846,001,2022-11-21_24h55.05.108,Info_measure_main_exp,2022.2.2,Win32,60.19020104,,,,,,,,,,,,,0,4,4,3,1,masks/mask_004.jpg,,,,,,,,,,,,,,,,,,,,,,,,,,,,,,,,,,,,,,,,,,,,,,,,,,,,,,,,,,,,,,,,,,,,,,,,,,,,,,,,,,,,,,,,,,,,,
204846,001,2022-11-21_24h55.05.108,Info_measure_main_exp,2022.2.2,Win32,60.19020104,,,,,,,,,,,,,,,,,,masks/mask_001.jpg,0,0,0,0,1,,,,,,,,,,,,,,,,,,,,,,,,,,,,,,,,,,,,,,,,,,,,,,,,,,,,,,,,,,,,,,,,,,,,,,,,,,,,,,,,,,,,,,,,
204846,001,2022-11-21_24h55.05.108,Info_measure_main_exp,2022.2.2,Win32,60.19020104,,,,,,,,,,,,,,,,,,masks/mask_002.jpg,0,1,1,1,1,,,,,,,,,,,,,,,,,,,,,,,,,,,,,,,,,,,,,,,,,,,,,,,,,,,,,,,,,,,,,,,,,,,,,,,,,,,,,,,,,,,,,,,,
204846,001,2022-11-21_24h55.05.108,Info_measure_main_exp,2022.2.2,Win32,60.19020104,,,,,,,,,,,,,,,,,,masks/mask_005.jpg,0,2,2,4,1,,,,,,,,,,,,,,,,,,,,,,,,,,,,,,,,,,,,,,,,,,,,,,,,,,,,,,,,,,,,,,,,,,,,,,,,,,,,,,,,,,,,,,,,
204846,001,2022-11-21_24h55.05.108,Info_measure_main_exp,2022.2.2,Win32,60.19020104,,,,,,,,,,,,,,,,,,masks/mask_004.jpg,0,3,3,3,1,,,,,,,,,,,,,,,,,,,,,,,,,,,,,,,,,,,,,,,,,,,,,,,,,,,,,,,,,,,,,,,,,,,,,,,,,,,,,,,,,,,,,,,,
204846,001,2022-11-21_24h55.05.108,Info_measure_main_exp,2022.2.2,Win32,60.19020104,,,,,,,,,,,,,,,,,,masks/mask_003.jpg,0,4,4,2,1,,,,,,,,,,,,,,,,,,,,,,,,,,,,,,,,,,,,,,,,,,,,,,,,,,,,,,,,,,,,,,,,,,,,,,,,,,,,,,,,,,,,,,,,
204846,001,2022-11-21_24h55.05.108,Info_measure_main_exp,2022.2.2,Win32,60.19020104,,,,,,,,,,,,,,,,,,,,,,,,-0.051851838,0.115740741,1,0,0,response7disk,0,71.6514,1,-0.00462963,0,1,0,0,center_square,0,1,1,0,1,0,131,5,5,2370,2406,prac_patch/patch0002370.jpg,prac_patch/patch0002406.jpg,,,,,,,,,,,,,,,,,,,,,,,,,,,,,,,,,,,,,,,,,,,,,,,,,,,,,,,,,,,,
204846,001,2022-11-21_24h55.05.108,Info_measure_main_exp,2022.2.2,Win32,60.19020104,,,,,,,,,,,,,0,0,0,2,1,masks/mask_003.jpg,,,,,,,,,,,,,,,,,,,,,,,,,,,,,,,,,,,,,,,,,,,,,,,,,,,,,,,,,,,,,,,,,,,,,,,,,,,,,,,,,,,,,,,,,,,,,
204846,001,2022-11-21_24h55.05.108,Info_measure_main_exp,2022.2.2,Win32,60.19020104,,,,,,,,,,,,,0,1,1,1,1,masks/mask_002.jpg,,,,,,,,,,,,,,,,,,,,,,,,,,,,,,,,,,,,,,,,,,,,,,,,,,,,,,,,,,,,,,,,,,,,,,,,,,,,,,,,,,,,,,,,,,,,,
204846,001,2022-11-21_24h55.05.108,Info_measure_main_exp,2022.2.2,Win32,60.19020104,,,,,,,,,,,,,0,2,2,4,1,masks/mask_005.jpg,,,,,,,,,,,,,,,,,,,,,,,,,,,,,,,,,,,,,,,,,,,,,,,,,,,,,,,,,,,,,,,,,,,,,,,,,,,,,,,,,,,,,,,,,,,,,
204846,001,2022-11-21_24h55.05.108,Info_measure_main_exp,2022.2.2,Win32,60.19020104,,,,,,,,,,,,,0,3,3,3,1,masks/mask_004.jpg,,,,,,,,,,,,,,,,,,,,,,,,,,,,,,,,,,,,,,,,,,,,,,,,,,,,,,,,,,,,,,,,,,,,,,,,,,,,,,,,,,,,,,,,,,,,,
204846,001,2022-11-21_24h55.05.108,Info_measure_main_exp,2022.2.2,Win32,60.19020104,,,,,,,,,,,,,0,4,4,0,1,masks/mask_001.jpg,,,,,,,,,,,,,,,,,,,,,,,,,,,,,,,,,,,,,,,,,,,,,,,,,,,,,,,,,,,,,,,,,,,,,,,,,,,,,,,,,,,,,,,,,,,,,
204846,001,2022-11-21_24h55.05.108,Info_measure_main_exp,2022.2.2,Win32,60.19020104,,,,,,,,,,,,,,,,,,masks/mask_001.jpg,0,0,0,0,1,,,,,,,,,,,,,,,,,,,,,,,,,,,,,,,,,,,,,,,,,,,,,,,,,,,,,,,,,,,,,,,,,,,,,,,,,,,,,,,,,,,,,,,,
204846,001,2022-11-21_24h55.05.108,Info_measure_main_exp,2022.2.2,Win32,60.19020104,,,,,,,,,,,,,,,,,,masks/mask_002.jpg,0,1,1,1,1,,,,,,,,,,,,,,,,,,,,,,,,,,,,,,,,,,,,,,,,,,,,,,,,,,,,,,,,,,,,,,,,,,,,,,,,,,,,,,,,,,,,,,,,
204846,001,2022-11-21_24h55.05.108,Info_measure_main_exp,2022.2.2,Win32,60.19020104,,,,,,,,,,,,,,,,,,masks/mask_004.jpg,0,2,2,3,1,,,,,,,,,,,,,,,,,,,,,,,,,,,,,,,,,,,,,,,,,,,,,,,,,,,,,,,,,,,,,,,,,,,,,,,,,,,,,,,,,,,,,,,,
204846,001,2022-11-21_24h55.05.108,Info_measure_main_exp,2022.2.2,Win32,60.19020104,,,,,,,,,,,,,,,,,,masks/mask_003.jpg,0,3,3,2,1,,,,,,,,,,,,,,,,,,,,,,,,,,,,,,,,,,,,,,,,,,,,,,,,,,,,,,,,,,,,,,,,,,,,,,,,,,,,,,,,,,,,,,,,
204846,001,2022-11-21_24h55.05.108,Info_measure_main_exp,2022.2.2,Win32,60.19020104,,,,,,,,,,,,,,,,,,masks/mask_005.jpg,0,4,4,4,1,,,,,,,,,,,,,,,,,,,,,,,,,,,,,,,,,,,,,,,,,,,,,,,,,,,,,,,,,,,,,,,,,,,,,,,,,,,,,,,,,,,,,,,,
204846,001,2022-11-21_24h55.05.108,Info_measure_main_exp,2022.2.2,Win32,60.19020104,,,,,,,,,,,,,,,,,,,,,,,,-0.036111125,-0.134259259,1,0,0,response5disk,3,81.5665,1,-0.005555541,0,1,0,0,center_square,0,2,2,2,1,0,131,5,5,2526,2526,prac_patch/patch0002526.jpg,prac_patch/patch0002526.jpg,,,,,,,,,,,,,,,,,,,,,,,,,,,,,,,,,,,,,,,,,,,,,,,,,,,,,,,,,,,,
204846,001,2022-11-21_24h55.05.108,Info_measure_main_exp,2022.2.2,Win32,60.19020104,,,,,,,,,,,,,,,,,,,,,,,,,,,,,,,,,,,,,,,,,,,,,,,,,,,,,,,,,,,space,5.2244,,,,,,,,,,,,,,,,,,,,,,,,,,,,,,,,,,,,,,,,,,,,,,,,,,,
204846,001,2022-11-21_24h55.05.108,Info_measure_main_exp,2022.2.2,Win32,60.19020104,,,,,,,,,,,,,,,,,,masks/mask_003.jpg,,,,,,,,,,,,,,,,,,,,,,,,,,,,,,,,,,,,,,,,,,,0,0,0,2,1,,,,,,,,,,,,,,,,,,,,,,,,,,,,,,,,,,,,,,,,,,,,,,
204846,001,2022-11-21_24h55.05.108,Info_measure_main_exp,2022.2.2,Win32,60.19020104,,,,,,,,,,,,,,,,,,masks/mask_001.jpg,,,,,,,,,,,,,,,,,,,,,,,,,,,,,,,,,,,,,,,,,,,0,1,1,0,1,,,,,,,,,,,,,,,,,,,,,,,,,,,,,,,,,,,,,,,,,,,,,,
204846,001,2022-11-21_24h55.05.108,Info_measure_main_exp,2022.2.2,Win32,60.19020104,,,,,,,,,,,,,,,,,,masks/mask_005.jpg,,,,,,,,,,,,,,,,,,,,,,,,,,,,,,,,,,,,,,,,,,,0,2,2,4,1,,,,,,,,,,,,,,,,,,,,,,,,,,,,,,,,,,,,,,,,,,,,,,
204846,001,2022-11-21_24h55.05.108,Info_measure_main_exp,2022.2.2,Win32,60.19020104,,,,,,,,,,,,,,,,,,masks/mask_004.jpg,,,,,,,,,,,,,,,,,,,,,,,,,,,,,,,,,,,,,,,,,,,0,3,3,3,1,,,,,,,,,,,,,,,,,,,,,,,,,,,,,,,,,,,,,,,,,,,,,,
204846,001,2022-11-21_24h55.05.108,Info_measure_main_exp,2022.2.2,Win32,60.19020104,,,,,,,,,,,,,,,,,,masks/mask_002.jpg,,,,,,,,,,,,,,,,,,,,,,,,,,,,,,,,,,,,,,,,,,,0,4,4,1,1,,,,,,,,,,,,,,,,,,,,,,,,,,,,,,,,,,,,,,,,,,,,,,
204846,001,2022-11-21_24h55.05.108,Info_measure_main_exp,2022.2.2,Win32,60.19020104,,,,,,,,,,,,,,,,,,masks/mask_005.jpg,,,,,,,,,,,,,,,,,,,,,,,,,,,,,,,,,,,,,,,,,,,,,,,,0,0,0,4,1,,,,,,,,,,,,,,,,,,,,,,,,,,,,,,,,,,,,,,,,,
204846,001,2022-11-21_24h55.05.108,Info_measure_main_exp,2022.2.2,Win32,60.19020104,,,,,,,,,,,,,,,,,,masks/mask_004.jpg,,,,,,,,,,,,,,,,,,,,,,,,,,,,,,,,,,,,,,,,,,,,,,,,0,1,1,3,1,,,,,,,,,,,,,,,,,,,,,,,,,,,,,,,,,,,,,,,,,
204846,001,2022-11-21_24h55.05.108,Info_measure_main_exp,2022.2.2,Win32,60.19020104,,,,,,,,,,,,,,,,,,masks/mask_001.jpg,,,,,,,,,,,,,,,,,,,,,,,,,,,,,,,,,,,,,,,,,,,,,,,,0,2,2,0,1,,,,,,,,,,,,,,,,,,,,,,,,,,,,,,,,,,,,,,,,,
204846,001,2022-11-21_24h55.05.108,Info_measure_main_exp,2022.2.2,Win32,60.19020104,,,,,,,,,,,,,,,,,,masks/mask_003.jpg,,,,,,,,,,,,,,,,,,,,,,,,,,,,,,,,,,,,,,,,,,,,,,,,0,3,3,2,1,,,,,,,,,,,,,,,,,,,,,,,,,,,,,,,,,,,,,,,,,
204846,001,2022-11-21_24h55.05.108,Info_measure_main_exp,2022.2.2,Win32,60.19020104,,,,,,,,,,,,,,,,,,masks/mask_002.jpg,,,,,,,,,,,,,,,,,,,,,,,,,,,,,,,,,,,,,,,,,,,,,,,,0,4,4,1,1,,,,,,,,,,,,,,,,,,,,,,,,,,,,,,,,,,,,,,,,,
204846,001,2022-11-21_24h55.05.108,Info_measure_main_exp,2022.2.2,Win32,60.19020104,,,,,,,,,,,,,,,,,,,,,,,,,,,,,,0,0.9334,1,,,,,,,,,,,,1,131,5,5,1,2214,present_patch/cong_131_5_a.jpg,absent_patch/patch0002214.jpg,,,,,,,,,,,,,,,,,,,,-0.033333319,0.085185192,1,0,0,response7disk,1,-0.000925912,0.003703683,1,0,0,center_square,0,0,0,4,1,,,,,,,,,,,,,,,,,,,,,,,
204846,001,2022-11-21_24h55.05.108,Info_measure_main_exp,2022.2.2,Win32,60.19020104,,,,,,,,,,,,,,,,,,masks/mask_003.jpg,,,,,,,,,,,,,,,,,,,,,,,,,,,,,,,,,,,,,,,,,,,0,0,0,2,1,,,,,,,,,,,,,,,,,,,,,,,,,,,,,,,,,,,,,,,,,,,,,,
204846,001,2022-11-21_24h55.05.108,Info_measure_main_exp,2022.2.2,Win32,60.19020104,,,,,,,,,,,,,,,,,,masks/mask_001.jpg,,,,,,,,,,,,,,,,,,,,,,,,,,,,,,,,,,,,,,,,,,,0,1,1,0,1,,,,,,,,,,,,,,,,,,,,,,,,,,,,,,,,,,,,,,,,,,,,,,
204846,001,2022-11-21_24h55.05.108,Info_measure_main_exp,2022.2.2,Win32,60.19020104,,,,,,,,,,,,,,,,,,masks/mask_002.jpg,,,,,,,,,,,,,,,,,,,,,,,,,,,,,,,,,,,,,,,,,,,0,2,2,1,1,,,,,,,,,,,,,,,,,,,,,,,,,,,,,,,,,,,,,,,,,,,,,,
204846,001,2022-11-21_24h55.05.108,Info_measure_main_exp,2022.2.2,Win32,60.19020104,,,,,,,,,,,,,,,,,,masks/mask_004.jpg,,,,,,,,,,,,,,,,,,,,,,,,,,,,,,,,,,,,,,,,,,,0,3,3,3,1,,,,,,,,,,,,,,,,,,,,,,,,,,,,,,,,,,,,,,,,,,,,,,
204846,001,2022-11-21_24h55.05.108,Info_measure_main_exp,2022.2.2,Win32,60.19020104,,,,,,,,,,,,,,,,,,masks/mask_005.jpg,,,,,,,,,,,,,,,,,,,,,,,,,,,,,,,,,,,,,,,,,,,0,4,4,4,1,,,,,,,,,,,,,,,,,,,,,,,,,,,,,,,,,,,,,,,,,,,,,,
204846,001,2022-11-21_24h55.05.108,Info_measure_main_exp,2022.2.2,Win32,60.19020104,,,,,,,,,,,,,,,,,,masks/mask_003.jpg,,,,,,,,,,,,,,,,,,,,,,,,,,,,,,,,,,,,,,,,,,,,,,,,0,0,0,2,1,,,,,,,,,,,,,,,,,,,,,,,,,,,,,,,,,,,,,,,,,
204846,001,2022-11-21_24h55.05.108,Info_measure_main_exp,2022.2.2,Win32,60.19020104,,,,,,,,,,,,,,,,,,masks/mask_004.jpg,,,,,,,,,,,,,,,,,,,,,,,,,,,,,,,,,,,,,,,,,,,,,,,,0,1,1,3,1,,,,,,,,,,,,,,,,,,,,,,,,,,,,,,,,,,,,,,,,,
204846,001,2022-11-21_24h55.05.108,Info_measure_main_exp,2022.2.2,Win32,60.19020104,,,,,,,,,,,,,,,,,,masks/mask_002.jpg,,,,,,,,,,,,,,,,,,,,,,,,,,,,,,,,,,,,,,,,,,,,,,,,0,2,2,1,1,,,,,,,,,,,,,,,,,,,,,,,,,,,,,,,,,,,,,,,,,
204846,001,2022-11-21_24h55.05.108,Info_measure_main_exp,2022.2.2,Win32,60.19020104,,,,,,,,,,,,,,,,,,masks/mask_005.jpg,,,,,,,,,,,,,,,,,,,,,,,,,,,,,,,,,,,,,,,,,,,,,,,,0,3,3,4,1,,,,,,,,,,,,,,,,,,,,,,,,,,,,,,,,,,,,,,,,,
204846,001,2022-11-21_24h55.05.108,Info_measure_main_exp,2022.2.2,Win32,60.19020104,,,,,,,,,,,,,,,,,,masks/mask_001.jpg,,,,,,,,,,,,,,,,,,,,,,,,,,,,,,,,,,,,,,,,,,,,,,,,0,4,4,0,1,,,,,,,,,,,,,,,,,,,,,,,,,,,,,,,,,,,,,,,,,
204846,001,2022-11-21_24h55.05.108,Info_measure_main_exp,2022.2.2,Win32,60.19020104,,,,,,,,,,,,,,,,,,,,,,,,,,,,,,2,2.4156,1,,,,,,,,,,,,0,131,5,5,1974,1950,absent_patch/patch0001974.jpg,absent_patch/patch0001950.jpg,,,,,,,,,,,,,,,,,,,,-0.109259217,-0.050000014,1,0,0,response5disk,2,-0.002777735,0,1,0,0,center_square,0,1,1,17,1,,,,,,,,,,,,,,,,,,,,,,,
204846,001,2022-11-21_24h55.05.108,Info_measure_main_exp,2022.2.2,Win32,60.19020104,,,,,,,,,,,,,,,,,,masks/mask_004.jpg,,,,,,,,,,,,,,,,,,,,,,,,,,,,,,,,,,,,,,,,,,,0,0,0,3,1,,,,,,,,,,,,,,,,,,,,,,,,,,,,,,,,,,,,,,,,,,,,,,
204846,001,2022-11-21_24h55.05.108,Info_measure_main_exp,2022.2.2,Win32,60.19020104,,,,,,,,,,,,,,,,,,masks/mask_001.jpg,,,,,,,,,,,,,,,,,,,,,,,,,,,,,,,,,,,,,,,,,,,0,1,1,0,1,,,,,,,,,,,,,,,,,,,,,,,,,,,,,,,,,,,,,,,,,,,,,,
204846,001,2022-11-21_24h55.05.108,Info_measure_main_exp,2022.2.2,Win32,60.19020104,,,,,,,,,,,,,,,,,,masks/mask_003.jpg,,,,,,,,,,,,,,,,,,,,,,,,,,,,,,,,,,,,,,,,,,,0,2,2,2,1,,,,,,,,,,,,,,,,,,,,,,,,,,,,,,,,,,,,,,,,,,,,,,
204846,001,2022-11-21_24h55.05.108,Info_measure_main_exp,2022.2.2,Win32,60.19020104,,,,,,,,,,,,,,,,,,masks/mask_005.jpg,,,,,,,,,,,,,,,,,,,,,,,,,,,,,,,,,,,,,,,,,,,0,3,3,4,1,,,,,,,,,,,,,,,,,,,,,,,,,,,,,,,,,,,,,,,,,,,,,,
204846,001,2022-11-21_24h55.05.108,Info_measure_main_exp,2022.2.2,Win32,60.19020104,,,,,,,,,,,,,,,,,,masks/mask_002.jpg,,,,,,,,,,,,,,,,,,,,,,,,,,,,,,,,,,,,,,,,,,,0,4,4,1,1,,,,,,,,,,,,,,,,,,,,,,,,,,,,,,,,,,,,,,,,,,,,,,
204846,001,2022-11-21_24h55.05.108,Info_measure_main_exp,2022.2.2,Win32,60.19020104,,,,,,,,,,,,,,,,,,masks/mask_004.jpg,,,,,,,,,,,,,,,,,,,,,,,,,,,,,,,,,,,,,,,,,,,,,,,,0,0,0,3,1,,,,,,,,,,,,,,,,,,,,,,,,,,,,,,,,,,,,,,,,,
204846,001,2022-11-21_24h55.05.108,Info_measure_main_exp,2022.2.2,Win32,60.19020104,,,,,,,,,,,,,,,,,,masks/mask_002.jpg,,,,,,,,,,,,,,,,,,,,,,,,,,,,,,,,,,,,,,,,,,,,,,,,0,1,1,1,1,,,,,,,,,,,,,,,,,,,,,,,,,,,,,,,,,,,,,,,,,
204846,001,2022-11-21_24h55.05.108,Info_measure_main_exp,2022.2.2,Win32,60.19020104,,,,,,,,,,,,,,,,,,masks/mask_003.jpg,,,,,,,,,,,,,,,,,,,,,,,,,,,,,,,,,,,,,,,,,,,,,,,,0,2,2,2,1,,,,,,,,,,,,,,,,,,,,,,,,,,,,,,,,,,,,,,,,,
204846,001,2022-11-21_24h55.05.108,Info_measure_main_exp,2022.2.2,Win32,60.19020104,,,,,,,,,,,,,,,,,,masks/mask_005.jpg,,,,,,,,,,,,,,,,,,,,,,,,,,,,,,,,,,,,,,,,,,,,,,,,0,3,3,4,1,,,,,,,,,,,,,,,,,,,,,,,,,,,,,,,,,,,,,,,,,
204846,001,2022-11-21_24h55.05.108,Info_measure_main_exp,2022.2.2,Win32,60.19020104,,,,,,,,,,,,,,,,,,masks/mask_001.jpg,,,,,,,,,,,,,,,,,,,,,,,,,,,,,,,,,,,,,,,,,,,,,,,,0,4,4,0,1,,,,,,,,,,,,,,,,,,,,,,,,,,,,,,,,,,,,,,,,,
204846,001,2022-11-21_24h55.05.108,Info_measure_main_exp,2022.2.2,Win32,60.19020104,,,,,,,,,,,,,,,,,,,,,,,,,,,,,,0,1.5164,1,,,,,,,,,,,,0,131,5,5,2298,2190,absent_patch/patch0002298.jpg,absent_patch/patch0002190.jpg,,,,,,,,,,,,,,,,,,,,-0.030555513,0.079629616,1,0,0,response7disk,3,-0.00462963,0.003703683,1,0,0,center_square,0,2,2,20,1,,,,,,,,,,,,,,,,,,,,,,,
204846,001,2022-11-21_24h55.05.108,Info_measure_main_exp,2022.2.2,Win32,60.19020104,,,,,,,,,,,,,,,,,,masks/mask_002.jpg,,,,,,,,,,,,,,,,,,,,,,,,,,,,,,,,,,,,,,,,,,,0,0,0,1,1,,,,,,,,,,,,,,,,,,,,,,,,,,,,,,,,,,,,,,,,,,,,,,
204846,001,2022-11-21_24h55.05.108,Info_measure_main_exp,2022.2.2,Win32,60.19020104,,,,,,,,,,,,,,,,,,masks/mask_003.jpg,,,,,,,,,,,,,,,,,,,,,,,,,,,,,,,,,,,,,,,,,,,0,1,1,2,1,,,,,,,,,,,,,,,,,,,,,,,,,,,,,,,,,,,,,,,,,,,,,,
204846,001,2022-11-21_24h55.05.108,Info_measure_main_exp,2022.2.2,Win32,60.19020104,,,,,,,,,,,,,,,,,,masks/mask_004.jpg,,,,,,,,,,,,,,,,,,,,,,,,,,,,,,,,,,,,,,,,,,,0,2,2,3,1,,,,,,,,,,,,,,,,,,,,,,,,,,,,,,,,,,,,,,,,,,,,,,
204846,001,2022-11-21_24h55.05.108,Info_measure_main_exp,2022.2.2,Win32,60.19020104,,,,,,,,,,,,,,,,,,masks/mask_005.jpg,,,,,,,,,,,,,,,,,,,,,,,,,,,,,,,,,,,,,,,,,,,0,3,3,4,1,,,,,,,,,,,,,,,,,,,,,,,,,,,,,,,,,,,,,,,,,,,,,,
204846,001,2022-11-21_24h55.05.108,Info_measure_main_exp,2022.2.2,Win32,60.19020104,,,,,,,,,,,,,,,,,,masks/mask_001.jpg,,,,,,,,,,,,,,,,,,,,,,,,,,,,,,,,,,,,,,,,,,,0,4,4,0,1,,,,,,,,,,,,,,,,,,,,,,,,,,,,,,,,,,,,,,,,,,,,,,
204846,001,2022-11-21_24h55.05.108,Info_measure_main_exp,2022.2.2,Win32,60.19020104,,,,,,,,,,,,,,,,,,masks/mask_001.jpg,,,,,,,,,,,,,,,,,,,,,,,,,,,,,,,,,,,,,,,,,,,,,,,,0,0,0,0,1,,,,,,,,,,,,,,,,,,,,,,,,,,,,,,,,,,,,,,,,,
204846,001,2022-11-21_24h55.05.108,Info_measure_main_exp,2022.2.2,Win32,60.19020104,,,,,,,,,,,,,,,,,,masks/mask_004.jpg,,,,,,,,,,,,,,,,,,,,,,,,,,,,,,,,,,,,,,,,,,,,,,,,0,1,1,3,1,,,,,,,,,,,,,,,,,,,,,,,,,,,,,,,,,,,,,,,,,
204846,001,2022-11-21_24h55.05.108,Info_measure_main_exp,2022.2.2,Win32,60.19020104,,,,,,,,,,,,,,,,,,masks/mask_005.jpg,,,,,,,,,,,,,,,,,,,,,,,,,,,,,,,,,,,,,,,,,,,,,,,,0,2,2,4,1,,,,,,,,,,,,,,,,,,,,,,,,,,,,,,,,,,,,,,,,,
204846,001,2022-11-21_24h55.05.108,Info_measure_main_exp,2022.2.2,Win32,60.19020104,,,,,,,,,,,,,,,,,,masks/mask_002.jpg,,,,,,,,,,,,,,,,,,,,,,,,,,,,,,,,,,,,,,,,,,,,,,,,0,3,3,1,1,,,,,,,,,,,,,,,,,,,,,,,,,,,,,,,,,,,,,,,,,
204846,001,2022-11-21_24h55.05.108,Info_measure_main_exp,2022.2.2,Win32,60.19020104,,,,,,,,,,,,,,,,,,masks/mask_003.jpg,,,,,,,,,,,,,,,,,,,,,,,,,,,,,,,,,,,,,,,,,,,,,,,,0,4,4,2,1,,,,,,,,,,,,,,,,,,,,,,,,,,,,,,,,,,,,,,,,,
204846,001,2022-11-21_24h55.05.108,Info_measure_main_exp,2022.2.2,Win32,60.19020104,,,,,,,,,,,,,,,,,,,,,,,,,,,,,,0,0.9334,1,,,,,,,,,,,,0,131,5,5,1974,2214,absent_patch/patch0001974.jpg,absent_patch/patch0002214.jpg,,,,,,,,,,,,,,,,,,,,-0.039814772,0.116666653,1,0,0,response7disk,4,-0.000925912,-0.001851859,1,0,0,center_square,0,3,3,24,1,,,,,,,,,,,,,,,,,,,,,,,
204846,001,2022-11-21_24h55.05.108,Info_measure_main_exp,2022.2.2,Win32,60.19020104,,,,,,,,,,,,,,,,,,masks/mask_005.jpg,,,,,,,,,,,,,,,,,,,,,,,,,,,,,,,,,,,,,,,,,,,0,0,0,4,1,,,,,,,,,,,,,,,,,,,,,,,,,,,,,,,,,,,,,,,,,,,,,,
204846,001,2022-11-21_24h55.05.108,Info_measure_main_exp,2022.2.2,Win32,60.19020104,,,,,,,,,,,,,,,,,,masks/mask_004.jpg,,,,,,,,,,,,,,,,,,,,,,,,,,,,,,,,,,,,,,,,,,,0,1,1,3,1,,,,,,,,,,,,,,,,,,,,,,,,,,,,,,,,,,,,,,,,,,,,,,
204846,001,2022-11-21_24h55.05.108,Info_measure_main_exp,2022.2.2,Win32,60.19020104,,,,,,,,,,,,,,,,,,masks/mask_001.jpg,,,,,,,,,,,,,,,,,,,,,,,,,,,,,,,,,,,,,,,,,,,0,2,2,0,1,,,,,,,,,,,,,,,,,,,,,,,,,,,,,,,,,,,,,,,,,,,,,,
204846,001,2022-11-21_24h55.05.108,Info_measure_main_exp,2022.2.2,Win32,60.19020104,,,,,,,,,,,,,,,,,,masks/mask_003.jpg,,,,,,,,,,,,,,,,,,,,,,,,,,,,,,,,,,,,,,,,,,,0,3,3,2,1,,,,,,,,,,,,,,,,,,,,,,,,,,,,,,,,,,,,,,,,,,,,,,
204846,001,2022-11-21_24h55.05.108,Info_measure_main_exp,2022.2.2,Win32,60.19020104,,,,,,,,,,,,,,,,,,masks/mask_002.jpg,,,,,,,,,,,,,,,,,,,,,,,,,,,,,,,,,,,,,,,,,,,0,4,4,1,1,,,,,,,,,,,,,,,,,,,,,,,,,,,,,,,,,,,,,,,,,,,,,,
204846,001,2022-11-21_24h55.05.108,Info_measure_main_exp,2022.2.2,Win32,60.19020104,,,,,,,,,,,,,,,,,,masks/mask_001.jpg,,,,,,,,,,,,,,,,,,,,,,,,,,,,,,,,,,,,,,,,,,,,,,,,0,0,0,0,1,,,,,,,,,,,,,,,,,,,,,,,,,,,,,,,,,,,,,,,,,
204846,001,2022-11-21_24h55.05.108,Info_measure_main_exp,2022.2.2,Win32,60.19020104,,,,,,,,,,,,,,,,,,masks/mask_002.jpg,,,,,,,,,,,,,,,,,,,,,,,,,,,,,,,,,,,,,,,,,,,,,,,,0,1,1,1,1,,,,,,,,,,,,,,,,,,,,,,,,,,,,,,,,,,,,,,,,,
204846,001,2022-11-21_24h55.05.108,Info_measure_main_exp,2022.2.2,Win32,60.19020104,,,,,,,,,,,,,,,,,,masks/mask_003.jpg,,,,,,,,,,,,,,,,,,,,,,,,,,,,,,,,,,,,,,,,,,,,,,,,0,2,2,2,1,,,,,,,,,,,,,,,,,,,,,,,,,,,,,,,,,,,,,,,,,
204846,001,2022-11-21_24h55.05.108,Info_measure_main_exp,2022.2.2,Win32,60.19020104,,,,,,,,,,,,,,,,,,masks/mask_005.jpg,,,,,,,,,,,,,,,,,,,,,,,,,,,,,,,,,,,,,,,,,,,,,,,,0,3,3,4,1,,,,,,,,,,,,,,,,,,,,,,,,,,,,,,,,,,,,,,,,,
204846,001,2022-11-21_24h55.05.108,Info_measure_main_exp,2022.2.2,Win32,60.19020104,,,,,,,,,,,,,,,,,,masks/mask_004.jpg,,,,,,,,,,,,,,,,,,,,,,,,,,,,,,,,,,,,,,,,,,,,,,,,0,4,4,3,1,,,,,,,,,,,,,,,,,,,,,,,,,,,,,,,,,,,,,,,,,
204846,001,2022-11-21_24h55.05.108,Info_measure_main_exp,2022.2.2,Win32,60.19020104,,,,,,,,,,,,,,,,,,,,,,,,,,,,,,3,1.6494,1,,,,,,,,,,,,1,131,5,5,1,1986,present_patch/cong_131_5_a.jpg,absent_patch/patch0001986.jpg,,,,,,,,,,,,,,,,,,,,-0.039814772,-0.113888917,1,0,0,response5disk,5,-0.009259259,0,1,0,0,center_square,0,4,4,106,1,,,,,,,,,,,,,,,,,,,,,,,
204846,001,2022-11-21_24h55.05.108,Info_measure_main_exp,2022.2.2,Win32,60.19020104,,,,,,,,,,,,,,,,,,masks/mask_004.jpg,,,,,,,,,,,,,,,,,,,,,,,,,,,,,,,,,,,,,,,,,,,0,0,0,3,1,,,,,,,,,,,,,,,,,,,,,,,,,,,,,,,,,,,,,,,,,,,,,,
204846,001,2022-11-21_24h55.05.108,Info_measure_main_exp,2022.2.2,Win32,60.19020104,,,,,,,,,,,,,,,,,,masks/mask_003.jpg,,,,,,,,,,,,,,,,,,,,,,,,,,,,,,,,,,,,,,,,,,,0,1,1,2,1,,,,,,,,,,,,,,,,,,,,,,,,,,,,,,,,,,,,,,,,,,,,,,
204846,001,2022-11-21_24h55.05.108,Info_measure_main_exp,2022.2.2,Win32,60.19020104,,,,,,,,,,,,,,,,,,masks/mask_005.jpg,,,,,,,,,,,,,,,,,,,,,,,,,,,,,,,,,,,,,,,,,,,0,2,2,4,1,,,,,,,,,,,,,,,,,,,,,,,,,,,,,,,,,,,,,,,,,,,,,,
204846,001,2022-11-21_24h55.05.108,Info_measure_main_exp,2022.2.2,Win32,60.19020104,,,,,,,,,,,,,,,,,,masks/mask_001.jpg,,,,,,,,,,,,,,,,,,,,,,,,,,,,,,,,,,,,,,,,,,,0,3,3,0,1,,,,,,,,,,,,,,,,,,,,,,,,,,,,,,,,,,,,,,,,,,,,,,
204846,001,2022-11-21_24h55.05.108,Info_measure_main_exp,2022.2.2,Win32,60.19020104,,,,,,,,,,,,,,,,,,masks/mask_002.jpg,,,,,,,,,,,,,,,,,,,,,,,,,,,,,,,,,,,,,,,,,,,0,4,4,1,1,,,,,,,,,,,,,,,,,,,,,,,,,,,,,,,,,,,,,,,,,,,,,,
204846,001,2022-11-21_24h55.05.108,Info_measure_main_exp,2022.2.2,Win32,60.19020104,,,,,,,,,,,,,,,,,,masks/mask_003.jpg,,,,,,,,,,,,,,,,,,,,,,,,,,,,,,,,,,,,,,,,,,,,,,,,0,0,0,2,1,,,,,,,,,,,,,,,,,,,,,,,,,,,,,,,,,,,,,,,,,
204846,001,2022-11-21_24h55.05.108,Info_measure_main_exp,2022.2.2,Win32,60.19020104,,,,,,,,,,,,,,,,,,masks/mask_001.jpg,,,,,,,,,,,,,,,,,,,,,,,,,,,,,,,,,,,,,,,,,,,,,,,,0,1,1,0,1,,,,,,,,,,,,,,,,,,,,,,,,,,,,,,,,,,,,,,,,,
204846,001,2022-11-21_24h55.05.108,Info_measure_main_exp,2022.2.2,Win32,60.19020104,,,,,,,,,,,,,,,,,,masks/mask_005.jpg,,,,,,,,,,,,,,,,,,,,,,,,,,,,,,,,,,,,,,,,,,,,,,,,0,2,2,4,1,,,,,,,,,,,,,,,,,,,,,,,,,,,,,,,,,,,,,,,,,
204846,001,2022-11-21_24h55.05.108,Info_measure_main_exp,2022.2.2,Win32,60.19020104,,,,,,,,,,,,,,,,,,masks/mask_002.jpg,,,,,,,,,,,,,,,,,,,,,,,,,,,,,,,,,,,,,,,,,,,,,,,,0,3,3,1,1,,,,,,,,,,,,,,,,,,,,,,,,,,,,,,,,,,,,,,,,,
204846,001,2022-11-21_24h55.05.108,Info_measure_main_exp,2022.2.2,Win32,60.19020104,,,,,,,,,,,,,,,,,,masks/mask_004.jpg,,,,,,,,,,,,,,,,,,,,,,,,,,,,,,,,,,,,,,,,,,,,,,,,0,4,4,3,1,,,,,,,,,,,,,,,,,,,,,,,,,,,,,,,,,,,,,,,,,
204846,001,2022-11-21_24h55.05.108,Info_measure_main_exp,2022.2.2,Win32,60.19020104,,,,,,,,,,,,,,,,,,,,,,,,,,,,,,0,0.7669,1,,,,,,,,,,,,0,131,5,5,1950,2238,absent_patch/patch0001950.jpg,absent_patch/patch0002238.jpg,,,,,,,,,,,,,,,,,,,,-0.037962949,0.15648146,1,0,0,response7disk,6,-0.001851824,0.001851859,1,0,0,center_square,0,5,5,8,1,,,,,,,,,,,,,,,,,,,,,,,
204846,001,2022-11-21_24h55.05.108,Info_measure_main_exp,2022.2.2,Win32,60.19020104,,,,,,,,,,,,,,,,,,masks/mask_003.jpg,,,,,,,,,,,,,,,,,,,,,,,,,,,,,,,,,,,,,,,,,,,0,0,0,2,1,,,,,,,,,,,,,,,,,,,,,,,,,,,,,,,,,,,,,,,,,,,,,,
204846,001,2022-11-21_24h55.05.108,Info_measure_main_exp,2022.2.2,Win32,60.19020104,,,,,,,,,,,,,,,,,,masks/mask_004.jpg,,,,,,,,,,,,,,,,,,,,,,,,,,,,,,,,,,,,,,,,,,,0,1,1,3,1,,,,,,,,,,,,,,,,,,,,,,,,,,,,,,,,,,,,,,,,,,,,,,
204846,001,2022-11-21_24h55.05.108,Info_measure_main_exp,2022.2.2,Win32,60.19020104,,,,,,,,,,,,,,,,,,masks/mask_005.jpg,,,,,,,,,,,,,,,,,,,,,,,,,,,,,,,,,,,,,,,,,,,0,2,2,4,1,,,,,,,,,,,,,,,,,,,,,,,,,,,,,,,,,,,,,,,,,,,,,,
204846,001,2022-11-21_24h55.05.108,Info_measure_main_exp,2022.2.2,Win32,60.19020104,,,,,,,,,,,,,,,,,,masks/mask_002.jpg,,,,,,,,,,,,,,,,,,,,,,,,,,,,,,,,,,,,,,,,,,,0,3,3,1,1,,,,,,,,,,,,,,,,,,,,,,,,,,,,,,,,,,,,,,,,,,,,,,
204846,001,2022-11-21_24h55.05.108,Info_measure_main_exp,2022.2.2,Win32,60.19020104,,,,,,,,,,,,,,,,,,masks/mask_001.jpg,,,,,,,,,,,,,,,,,,,,,,,,,,,,,,,,,,,,,,,,,,,0,4,4,0,1,,,,,,,,,,,,,,,,,,,,,,,,,,,,,,,,,,,,,,,,,,,,,,
204846,001,2022-11-21_24h55.05.108,Info_measure_main_exp,2022.2.2,Win32,60.19020104,,,,,,,,,,,,,,,,,,masks/mask_002.jpg,,,,,,,,,,,,,,,,,,,,,,,,,,,,,,,,,,,,,,,,,,,,,,,,0,0,0,1,1,,,,,,,,,,,,,,,,,,,,,,,,,,,,,,,,,,,,,,,,,
204846,001,2022-11-21_24h55.05.108,Info_measure_main_exp,2022.2.2,Win32,60.19020104,,,,,,,,,,,,,,,,,,masks/mask_001.jpg,,,,,,,,,,,,,,,,,,,,,,,,,,,,,,,,,,,,,,,,,,,,,,,,0,1,1,0,1,,,,,,,,,,,,,,,,,,,,,,,,,,,,,,,,,,,,,,,,,
204846,001,2022-11-21_24h55.05.108,Info_measure_main_exp,2022.2.2,Win32,60.19020104,,,,,,,,,,,,,,,,,,masks/mask_004.jpg,,,,,,,,,,,,,,,,,,,,,,,,,,,,,,,,,,,,,,,,,,,,,,,,0,2,2,3,1,,,,,,,,,,,,,,,,,,,,,,,,,,,,,,,,,,,,,,,,,
204846,001,2022-11-21_24h55.05.108,Info_measure_main_exp,2022.2.2,Win32,60.19020104,,,,,,,,,,,,,,,,,,masks/mask_005.jpg,,,,,,,,,,,,,,,,,,,,,,,,,,,,,,,,,,,,,,,,,,,,,,,,0,3,3,4,1,,,,,,,,,,,,,,,,,,,,,,,,,,,,,,,,,,,,,,,,,
204846,001,2022-11-21_24h55.05.108,Info_measure_main_exp,2022.2.2,Win32,60.19020104,,,,,,,,,,,,,,,,,,masks/mask_003.jpg,,,,,,,,,,,,,,,,,,,,,,,,,,,,,,,,,,,,,,,,,,,,,,,,0,4,4,2,1,,,,,,,,,,,,,,,,,,,,,,,,,,,,,,,,,,,,,,,,,
204846,001,2022-11-21_24h55.05.108,Info_measure_main_exp,2022.2.2,Win32,60.19020104,,,,,,,,,,,,,,,,,,,,,,,,,,,,,,0,0.6831,1,,,,,,,,,,,,0,131,5,5,2274,2214,absent_patch/patch0002274.jpg,absent_patch/patch0002214.jpg,,,,,,,,,,,,,,,,,,,,-0.032407407,0.105555534,1,0,0,response7disk,7,-0.008333347,-0.002777771,1,0,0,center_square,0,6,6,11,1,,,,,,,,,,,,,,,,,,,,,,,
204846,001,2022-11-21_24h55.05.108,Info_measure_main_exp,2022.2.2,Win32,60.19020104,,,,,,,,,,,,,,,,,,masks/mask_001.jpg,,,,,,,,,,,,,,,,,,,,,,,,,,,,,,,,,,,,,,,,,,,0,0,0,0,1,,,,,,,,,,,,,,,,,,,,,,,,,,,,,,,,,,,,,,,,,,,,,,
204846,001,2022-11-21_24h55.05.108,Info_measure_main_exp,2022.2.2,Win32,60.19020104,,,,,,,,,,,,,,,,,,masks/mask_004.jpg,,,,,,,,,,,,,,,,,,,,,,,,,,,,,,,,,,,,,,,,,,,0,1,1,3,1,,,,,,,,,,,,,,,,,,,,,,,,,,,,,,,,,,,,,,,,,,,,,,
204846,001,2022-11-21_24h55.05.108,Info_measure_main_exp,2022.2.2,Win32,60.19020104,,,,,,,,,,,,,,,,,,masks/mask_003.jpg,,,,,,,,,,,,,,,,,,,,,,,,,,,,,,,,,,,,,,,,,,,0,2,2,2,1,,,,,,,,,,,,,,,,,,,,,,,,,,,,,,,,,,,,,,,,,,,,,,
204846,001,2022-11-21_24h55.05.108,Info_measure_main_exp,2022.2.2,Win32,60.19020104,,,,,,,,,,,,,,,,,,masks/mask_002.jpg,,,,,,,,,,,,,,,,,,,,,,,,,,,,,,,,,,,,,,,,,,,0,3,3,1,1,,,,,,,,,,,,,,,,,,,,,,,,,,,,,,,,,,,,,,,,,,,,,,
204846,001,2022-11-21_24h55.05.108,Info_measure_main_exp,2022.2.2,Win32,60.19020104,,,,,,,,,,,,,,,,,,masks/mask_005.jpg,,,,,,,,,,,,,,,,,,,,,,,,,,,,,,,,,,,,,,,,,,,0,4,4,4,1,,,,,,,,,,,,,,,,,,,,,,,,,,,,,,,,,,,,,,,,,,,,,,
204846,001,2022-11-21_24h55.05.108,Info_measure_main_exp,2022.2.2,Win32,60.19020104,,,,,,,,,,,,,,,,,,masks/mask_005.jpg,,,,,,,,,,,,,,,,,,,,,,,,,,,,,,,,,,,,,,,,,,,,,,,,0,0,0,4,1,,,,,,,,,,,,,,,,,,,,,,,,,,,,,,,,,,,,,,,,,
204846,001,2022-11-21_24h55.05.108,Info_measure_main_exp,2022.2.2,Win32,60.19020104,,,,,,,,,,,,,,,,,,masks/mask_002.jpg,,,,,,,,,,,,,,,,,,,,,,,,,,,,,,,,,,,,,,,,,,,,,,,,0,1,1,1,1,,,,,,,,,,,,,,,,,,,,,,,,,,,,,,,,,,,,,,,,,
204846,001,2022-11-21_24h55.05.108,Info_measure_main_exp,2022.2.2,Win32,60.19020104,,,,,,,,,,,,,,,,,,masks/mask_001.jpg,,,,,,,,,,,,,,,,,,,,,,,,,,,,,,,,,,,,,,,,,,,,,,,,0,2,2,0,1,,,,,,,,,,,,,,,,,,,,,,,,,,,,,,,,,,,,,,,,,
204846,001,2022-11-21_24h55.05.108,Info_measure_main_exp,2022.2.2,Win32,60.19020104,,,,,,,,,,,,,,,,,,masks/mask_004.jpg,,,,,,,,,,,,,,,,,,,,,,,,,,,,,,,,,,,,,,,,,,,,,,,,0,3,3,3,1,,,,,,,,,,,,,,,,,,,,,,,,,,,,,,,,,,,,,,,,,
204846,001,2022-11-21_24h55.05.108,Info_measure_main_exp,2022.2.2,Win32,60.19020104,,,,,,,,,,,,,,,,,,masks/mask_003.jpg,,,,,,,,,,,,,,,,,,,,,,,,,,,,,,,,,,,,,,,,,,,,,,,,0,4,4,2,1,,,,,,,,,,,,,,,,,,,,,,,,,,,,,,,,,,,,,,,,,
204846,001,2022-11-21_24h55.05.108,Info_measure_main_exp,2022.2.2,Win32,60.19020104,,,,,,,,,,,,,,,,,,,,,,,,,,,,,,0,0.6663,1,,,,,,,,,,,,0,131,5,5,2178,2166,absent_patch/patch0002178.jpg,absent_patch/patch0002166.jpg,,,,,,,,,,,,,,,,,,,,-0.02870369,0.113888882,1,0,0,response7disk,8,-0.00462963,0.002777771,1,0,0,center_square,0,7,7,72,1,,,,,,,,,,,,,,,,,,,,,,,
204846,001,2022-11-21_24h55.05.108,Info_measure_main_exp,2022.2.2,Win32,60.19020104,,,,,,,,,,,,,,,,,,masks/mask_002.jpg,,,,,,,,,,,,,,,,,,,,,,,,,,,,,,,,,,,,,,,,,,,0,0,0,1,1,,,,,,,,,,,,,,,,,,,,,,,,,,,,,,,,,,,,,,,,,,,,,,
204846,001,2022-11-21_24h55.05.108,Info_measure_main_exp,2022.2.2,Win32,60.19020104,,,,,,,,,,,,,,,,,,masks/mask_001.jpg,,,,,,,,,,,,,,,,,,,,,,,,,,,,,,,,,,,,,,,,,,,0,1,1,0,1,,,,,,,,,,,,,,,,,,,,,,,,,,,,,,,,,,,,,,,,,,,,,,
204846,001,2022-11-21_24h55.05.108,Info_measure_main_exp,2022.2.2,Win32,60.19020104,,,,,,,,,,,,,,,,,,masks/mask_005.jpg,,,,,,,,,,,,,,,,,,,,,,,,,,,,,,,,,,,,,,,,,,,0,2,2,4,1,,,,,,,,,,,,,,,,,,,,,,,,,,,,,,,,,,,,,,,,,,,,,,
204846,001,2022-11-21_24h55.05.108,Info_measure_main_exp,2022.2.2,Win32,60.19020104,,,,,,,,,,,,,,,,,,masks/mask_004.jpg,,,,,,,,,,,,,,,,,,,,,,,,,,,,,,,,,,,,,,,,,,,0,3,3,3,1,,,,,,,,,,,,,,,,,,,,,,,,,,,,,,,,,,,,,,,,,,,,,,
204846,001,2022-11-21_24h55.05.108,Info_measure_main_exp,2022.2.2,Win32,60.19020104,,,,,,,,,,,,,,,,,,masks/mask_003.jpg,,,,,,,,,,,,,,,,,,,,,,,,,,,,,,,,,,,,,,,,,,,0,4,4,2,1,,,,,,,,,,,,,,,,,,,,,,,,,,,,,,,,,,,,,,,,,,,,,,
204846,001,2022-11-21_24h55.05.108,Info_measure_main_exp,2022.2.2,Win32,60.19020104,,,,,,,,,,,,,,,,,,masks/mask_003.jpg,,,,,,,,,,,,,,,,,,,,,,,,,,,,,,,,,,,,,,,,,,,,,,,,0,0,0,2,1,,,,,,,,,,,,,,,,,,,,,,,,,,,,,,,,,,,,,,,,,
204846,001,2022-11-21_24h55.05.108,Info_measure_main_exp,2022.2.2,Win32,60.19020104,,,,,,,,,,,,,,,,,,masks/mask_005.jpg,,,,,,,,,,,,,,,,,,,,,,,,,,,,,,,,,,,,,,,,,,,,,,,,0,1,1,4,1,,,,,,,,,,,,,,,,,,,,,,,,,,,,,,,,,,,,,,,,,
204846,001,2022-11-21_24h55.05.108,Info_measure_main_exp,2022.2.2,Win32,60.19020104,,,,,,,,,,,,,,,,,,masks/mask_004.jpg,,,,,,,,,,,,,,,,,,,,,,,,,,,,,,,,,,,,,,,,,,,,,,,,0,2,2,3,1,,,,,,,,,,,,,,,,,,,,,,,,,,,,,,,,,,,,,,,,,
204846,001,2022-11-21_24h55.05.108,Info_measure_main_exp,2022.2.2,Win32,60.19020104,,,,,,,,,,,,,,,,,,masks/mask_001.jpg,,,,,,,,,,,,,,,,,,,,,,,,,,,,,,,,,,,,,,,,,,,,,,,,0,3,3,0,1,,,,,,,,,,,,,,,,,,,,,,,,,,,,,,,,,,,,,,,,,
204846,001,2022-11-21_24h55.05.108,Info_measure_main_exp,2022.2.2,Win32,60.19020104,,,,,,,,,,,,,,,,,,masks/mask_002.jpg,,,,,,,,,,,,,,,,,,,,,,,,,,,,,,,,,,,,,,,,,,,,,,,,0,4,4,1,1,,,,,,,,,,,,,,,,,,,,,,,,,,,,,,,,,,,,,,,,,
204846,001,2022-11-21_24h55.05.108,Info_measure_main_exp,2022.2.2,Win32,60.19020104,,,,,,,,,,,,,,,,,,,,,,,,,,,,,,2,1.15,1,,,,,,,,,,,,1,131,5,5,2238,1,absent_patch/patch0002238.jpg,present_patch/cong_131_5_a.jpg,,,,,,,,,,,,,,,,,,,,-0.125925912,-0.052777785,1,0,0,response5disk,9,-0.005555541,-0.002777771,1,0,0,center_square,0,8,8,104,1,,,,,,,,,,,,,,,,,,,,,,,
204846,001,2022-11-21_24h55.05.108,Info_measure_main_exp,2022.2.2,Win32,60.19020104,,,,,,,,,,,,,,,,,,masks/mask_003.jpg,,,,,,,,,,,,,,,,,,,,,,,,,,,,,,,,,,,,,,,,,,,0,0,0,2,1,,,,,,,,,,,,,,,,,,,,,,,,,,,,,,,,,,,,,,,,,,,,,,
204846,001,2022-11-21_24h55.05.108,Info_measure_main_exp,2022.2.2,Win32,60.19020104,,,,,,,,,,,,,,,,,,masks/mask_004.jpg,,,,,,,,,,,,,,,,,,,,,,,,,,,,,,,,,,,,,,,,,,,0,1,1,3,1,,,,,,,,,,,,,,,,,,,,,,,,,,,,,,,,,,,,,,,,,,,,,,
204846,001,2022-11-21_24h55.05.108,Info_measure_main_exp,2022.2.2,Win32,60.19020104,,,,,,,,,,,,,,,,,,masks/mask_002.jpg,,,,,,,,,,,,,,,,,,,,,,,,,,,,,,,,,,,,,,,,,,,0,2,2,1,1,,,,,,,,,,,,,,,,,,,,,,,,,,,,,,,,,,,,,,,,,,,,,,
204846,001,2022-11-21_24h55.05.108,Info_measure_main_exp,2022.2.2,Win32,60.19020104,,,,,,,,,,,,,,,,,,masks/mask_005.jpg,,,,,,,,,,,,,,,,,,,,,,,,,,,,,,,,,,,,,,,,,,,0,3,3,4,1,,,,,,,,,,,,,,,,,,,,,,,,,,,,,,,,,,,,,,,,,,,,,,
204846,001,2022-11-21_24h55.05.108,Info_measure_main_exp,2022.2.2,Win32,60.19020104,,,,,,,,,,,,,,,,,,masks/mask_001.jpg,,,,,,,,,,,,,,,,,,,,,,,,,,,,,,,,,,,,,,,,,,,0,4,4,0,1,,,,,,,,,,,,,,,,,,,,,,,,,,,,,,,,,,,,,,,,,,,,,,
204846,001,2022-11-21_24h55.05.108,Info_measure_main_exp,2022.2.2,Win32,60.19020104,,,,,,,,,,,,,,,,,,masks/mask_002.jpg,,,,,,,,,,,,,,,,,,,,,,,,,,,,,,,,,,,,,,,,,,,,,,,,0,0,0,1,1,,,,,,,,,,,,,,,,,,,,,,,,,,,,,,,,,,,,,,,,,
204846,001,2022-11-21_24h55.05.108,Info_measure_main_exp,2022.2.2,Win32,60.19020104,,,,,,,,,,,,,,,,,,masks/mask_001.jpg,,,,,,,,,,,,,,,,,,,,,,,,,,,,,,,,,,,,,,,,,,,,,,,,0,1,1,0,1,,,,,,,,,,,,,,,,,,,,,,,,,,,,,,,,,,,,,,,,,
204846,001,2022-11-21_24h55.05.108,Info_measure_main_exp,2022.2.2,Win32,60.19020104,,,,,,,,,,,,,,,,,,masks/mask_003.jpg,,,,,,,,,,,,,,,,,,,,,,,,,,,,,,,,,,,,,,,,,,,,,,,,0,2,2,2,1,,,,,,,,,,,,,,,,,,,,,,,,,,,,,,,,,,,,,,,,,
204846,001,2022-11-21_24h55.05.108,Info_measure_main_exp,2022.2.2,Win32,60.19020104,,,,,,,,,,,,,,,,,,masks/mask_005.jpg,,,,,,,,,,,,,,,,,,,,,,,,,,,,,,,,,,,,,,,,,,,,,,,,0,3,3,4,1,,,,,,,,,,,,,,,,,,,,,,,,,,,,,,,,,,,,,,,,,
204846,001,2022-11-21_24h55.05.108,Info_measure_main_exp,2022.2.2,Win32,60.19020104,,,,,,,,,,,,,,,,,,masks/mask_004.jpg,,,,,,,,,,,,,,,,,,,,,,,,,,,,,,,,,,,,,,,,,,,,,,,,0,4,4,3,1,,,,,,,,,,,,,,,,,,,,,,,,,,,,,,,,,,,,,,,,,
204846,001,2022-11-21_24h55.05.108,Info_measure_main_exp,2022.2.2,Win32,60.19020104,,,,,,,,,,,,,,,,,,,,,,,,,,,,,,0,1.3331,1,,,,,,,,,,,,1,131,5,5,1,2178,present_patch/cong_131_5_a.jpg,absent_patch/patch0002178.jpg,,,,,,,,,,,,,,,,,,,,-0.022222236,0.094444452,1,0,0,response7disk,10,0,0.000925912,1,0,0,center_square,0,9,9,40,1,,,,,,,,,,,,,,,,,,,,,,,
204846,001,2022-11-21_24h55.05.108,Info_measure_main_exp,2022.2.2,Win32,60.19020104,,,,,,,,,,,,,,,,,,masks/mask_005.jpg,,,,,,,,,,,,,,,,,,,,,,,,,,,,,,,,,,,,,,,,,,,0,0,0,4,1,,,,,,,,,,,,,,,,,,,,,,,,,,,,,,,,,,,,,,,,,,,,,,
204846,001,2022-11-21_24h55.05.108,Info_measure_main_exp,2022.2.2,Win32,60.19020104,,,,,,,,,,,,,,,,,,masks/mask_004.jpg,,,,,,,,,,,,,,,,,,,,,,,,,,,,,,,,,,,,,,,,,,,0,1,1,3,1,,,,,,,,,,,,,,,,,,,,,,,,,,,,,,,,,,,,,,,,,,,,,,
204846,001,2022-11-21_24h55.05.108,Info_measure_main_exp,2022.2.2,Win32,60.19020104,,,,,,,,,,,,,,,,,,masks/mask_002.jpg,,,,,,,,,,,,,,,,,,,,,,,,,,,,,,,,,,,,,,,,,,,0,2,2,1,1,,,,,,,,,,,,,,,,,,,,,,,,,,,,,,,,,,,,,,,,,,,,,,
204846,001,2022-11-21_24h55.05.108,Info_measure_main_exp,2022.2.2,Win32,60.19020104,,,,,,,,,,,,,,,,,,masks/mask_003.jpg,,,,,,,,,,,,,,,,,,,,,,,,,,,,,,,,,,,,,,,,,,,0,3,3,2,1,,,,,,,,,,,,,,,,,,,,,,,,,,,,,,,,,,,,,,,,,,,,,,
204846,001,2022-11-21_24h55.05.108,Info_measure_main_exp,2022.2.2,Win32,60.19020104,,,,,,,,,,,,,,,,,,masks/mask_001.jpg,,,,,,,,,,,,,,,,,,,,,,,,,,,,,,,,,,,,,,,,,,,0,4,4,0,1,,,,,,,,,,,,,,,,,,,,,,,,,,,,,,,,,,,,,,,,,,,,,,
204846,001,2022-11-21_24h55.05.108,Info_measure_main_exp,2022.2.2,Win32,60.19020104,,,,,,,,,,,,,,,,,,masks/mask_001.jpg,,,,,,,,,,,,,,,,,,,,,,,,,,,,,,,,,,,,,,,,,,,,,,,,0,0,0,0,1,,,,,,,,,,,,,,,,,,,,,,,,,,,,,,,,,,,,,,,,,
204846,001,2022-11-21_24h55.05.108,Info_measure_main_exp,2022.2.2,Win32,60.19020104,,,,,,,,,,,,,,,,,,masks/mask_004.jpg,,,,,,,,,,,,,,,,,,,,,,,,,,,,,,,,,,,,,,,,,,,,,,,,0,1,1,3,1,,,,,,,,,,,,,,,,,,,,,,,,,,,,,,,,,,,,,,,,,
204846,001,2022-11-21_24h55.05.108,Info_measure_main_exp,2022.2.2,Win32,60.19020104,,,,,,,,,,,,,,,,,,masks/mask_002.jpg,,,,,,,,,,,,,,,,,,,,,,,,,,,,,,,,,,,,,,,,,,,,,,,,0,2,2,1,1,,,,,,,,,,,,,,,,,,,,,,,,,,,,,,,,,,,,,,,,,
204846,001,2022-11-21_24h55.05.108,Info_measure_main_exp,2022.2.2,Win32,60.19020104,,,,,,,,,,,,,,,,,,masks/mask_005.jpg,,,,,,,,,,,,,,,,,,,,,,,,,,,,,,,,,,,,,,,,,,,,,,,,0,3,3,4,1,,,,,,,,,,,,,,,,,,,,,,,,,,,,,,,,,,,,,,,,,
204846,001,2022-11-21_24h55.05.108,Info_measure_main_exp,2022.2.2,Win32,60.19020104,,,,,,,,,,,,,,,,,,masks/mask_003.jpg,,,,,,,,,,,,,,,,,,,,,,,,,,,,,,,,,,,,,,,,,,,,,,,,0,4,4,2,1,,,,,,,,,,,,,,,,,,,,,,,,,,,,,,,,,,,,,,,,,
204846,001,2022-11-21_24h55.05.108,Info_measure_main_exp,2022.2.2,Win32,60.19020104,,,,,,,,,,,,,,,,,,,,,,,,,,,,,,0,0.7663,1,,,,,,,,,,,,1,131,5,5,1950,1,absent_patch/patch0001950.jpg,present_patch/cong_131_5_a.jpg,,,,,,,,,,,,,,,,,,,,-0.036111125,0.103703711,1,0,0,response7disk,11,0.000925912,0.006481489,1,0,0,center_square,0,10,10,39,1,,,,,,,,,,,,,,,,,,,,,,,
204846,001,2022-11-21_24h55.05.108,Info_measure_main_exp,2022.2.2,Win32,60.19020104,,,,,,,,,,,,,,,,,,masks/mask_003.jpg,,,,,,,,,,,,,,,,,,,,,,,,,,,,,,,,,,,,,,,,,,,0,0,0,2,1,,,,,,,,,,,,,,,,,,,,,,,,,,,,,,,,,,,,,,,,,,,,,,
204846,001,2022-11-21_24h55.05.108,Info_measure_main_exp,2022.2.2,Win32,60.19020104,,,,,,,,,,,,,,,,,,masks/mask_004.jpg,,,,,,,,,,,,,,,,,,,,,,,,,,,,,,,,,,,,,,,,,,,0,1,1,3,1,,,,,,,,,,,,,,,,,,,,,,,,,,,,,,,,,,,,,,,,,,,,,,
204846,001,2022-11-21_24h55.05.108,Info_measure_main_exp,2022.2.2,Win32,60.19020104,,,,,,,,,,,,,,,,,,masks/mask_002.jpg,,,,,,,,,,,,,,,,,,,,,,,,,,,,,,,,,,,,,,,,,,,0,2,2,1,1,,,,,,,,,,,,,,,,,,,,,,,,,,,,,,,,,,,,,,,,,,,,,,
204846,001,2022-11-21_24h55.05.108,Info_measure_main_exp,2022.2.2,Win32,60.19020104,,,,,,,,,,,,,,,,,,masks/mask_005.jpg,,,,,,,,,,,,,,,,,,,,,,,,,,,,,,,,,,,,,,,,,,,0,3,3,4,1,,,,,,,,,,,,,,,,,,,,,,,,,,,,,,,,,,,,,,,,,,,,,,
204846,001,2022-11-21_24h55.05.108,Info_measure_main_exp,2022.2.2,Win32,60.19020104,,,,,,,,,,,,,,,,,,masks/mask_001.jpg,,,,,,,,,,,,,,,,,,,,,,,,,,,,,,,,,,,,,,,,,,,0,4,4,0,1,,,,,,,,,,,,,,,,,,,,,,,,,,,,,,,,,,,,,,,,,,,,,,
204846,001,2022-11-21_24h55.05.108,Info_measure_main_exp,2022.2.2,Win32,60.19020104,,,,,,,,,,,,,,,,,,masks/mask_005.jpg,,,,,,,,,,,,,,,,,,,,,,,,,,,,,,,,,,,,,,,,,,,,,,,,0,0,0,4,1,,,,,,,,,,,,,,,,,,,,,,,,,,,,,,,,,,,,,,,,,
204846,001,2022-11-21_24h55.05.108,Info_measure_main_exp,2022.2.2,Win32,60.19020104,,,,,,,,,,,,,,,,,,masks/mask_002.jpg,,,,,,,,,,,,,,,,,,,,,,,,,,,,,,,,,,,,,,,,,,,,,,,,0,1,1,1,1,,,,,,,,,,,,,,,,,,,,,,,,,,,,,,,,,,,,,,,,,
204846,001,2022-11-21_24h55.05.108,Info_measure_main_exp,2022.2.2,Win32,60.19020104,,,,,,,,,,,,,,,,,,masks/mask_003.jpg,,,,,,,,,,,,,,,,,,,,,,,,,,,,,,,,,,,,,,,,,,,,,,,,0,2,2,2,1,,,,,,,,,,,,,,,,,,,,,,,,,,,,,,,,,,,,,,,,,
204846,001,2022-11-21_24h55.05.108,Info_measure_main_exp,2022.2.2,Win32,60.19020104,,,,,,,,,,,,,,,,,,masks/mask_004.jpg,,,,,,,,,,,,,,,,,,,,,,,,,,,,,,,,,,,,,,,,,,,,,,,,0,3,3,3,1,,,,,,,,,,,,,,,,,,,,,,,,,,,,,,,,,,,,,,,,,
204846,001,2022-11-21_24h55.05.108,Info_measure_main_exp,2022.2.2,Win32,60.19020104,,,,,,,,,,,,,,,,,,masks/mask_001.jpg,,,,,,,,,,,,,,,,,,,,,,,,,,,,,,,,,,,,,,,,,,,,,,,,0,4,4,0,1,,,,,,,,,,,,,,,,,,,,,,,,,,,,,,,,,,,,,,,,,
204846,001,2022-11-21_24h55.05.108,Info_measure_main_exp,2022.2.2,Win32,60.19020104,,,,,,,,,,,,,,,,,,,,,,,,,,,,,,0,1.1496,1,,,,,,,,,,,,0,131,5,5,2178,2142,absent_patch/patch0002178.jpg,absent_patch/patch0002142.jpg,,,,,,,,,,,,,,,,,,,,-0.030555513,0.090740734,1,0,0,response7disk,12,0.005555541,0.003703683,1,0,0,center_square,0,11,11,41,1,,,,,,,,,,,,,,,,,,,,,,,
204846,001,2022-11-21_24h55.05.108,Info_measure_main_exp,2022.2.2,Win32,60.19020104,,,,,,,,,,,,,,,,,,masks/mask_001.jpg,,,,,,,,,,,,,,,,,,,,,,,,,,,,,,,,,,,,,,,,,,,0,0,0,0,1,,,,,,,,,,,,,,,,,,,,,,,,,,,,,,,,,,,,,,,,,,,,,,
204846,001,2022-11-21_24h55.05.108,Info_measure_main_exp,2022.2.2,Win32,60.19020104,,,,,,,,,,,,,,,,,,masks/mask_003.jpg,,,,,,,,,,,,,,,,,,,,,,,,,,,,,,,,,,,,,,,,,,,0,1,1,2,1,,,,,,,,,,,,,,,,,,,,,,,,,,,,,,,,,,,,,,,,,,,,,,
204846,001,2022-11-21_24h55.05.108,Info_measure_main_exp,2022.2.2,Win32,60.19020104,,,,,,,,,,,,,,,,,,masks/mask_002.jpg,,,,,,,,,,,,,,,,,,,,,,,,,,,,,,,,,,,,,,,,,,,0,2,2,1,1,,,,,,,,,,,,,,,,,,,,,,,,,,,,,,,,,,,,,,,,,,,,,,
204846,001,2022-11-21_24h55.05.108,Info_measure_main_exp,2022.2.2,Win32,60.19020104,,,,,,,,,,,,,,,,,,masks/mask_005.jpg,,,,,,,,,,,,,,,,,,,,,,,,,,,,,,,,,,,,,,,,,,,0,3,3,4,1,,,,,,,,,,,,,,,,,,,,,,,,,,,,,,,,,,,,,,,,,,,,,,
204846,001,2022-11-21_24h55.05.108,Info_measure_main_exp,2022.2.2,Win32,60.19020104,,,,,,,,,,,,,,,,,,masks/mask_004.jpg,,,,,,,,,,,,,,,,,,,,,,,,,,,,,,,,,,,,,,,,,,,0,4,4,3,1,,,,,,,,,,,,,,,,,,,,,,,,,,,,,,,,,,,,,,,,,,,,,,
204846,001,2022-11-21_24h55.05.108,Info_measure_main_exp,2022.2.2,Win32,60.19020104,,,,,,,,,,,,,,,,,,masks/mask_003.jpg,,,,,,,,,,,,,,,,,,,,,,,,,,,,,,,,,,,,,,,,,,,,,,,,0,0,0,2,1,,,,,,,,,,,,,,,,,,,,,,,,,,,,,,,,,,,,,,,,,
204846,001,2022-11-21_24h55.05.108,Info_measure_main_exp,2022.2.2,Win32,60.19020104,,,,,,,,,,,,,,,,,,masks/mask_004.jpg,,,,,,,,,,,,,,,,,,,,,,,,,,,,,,,,,,,,,,,,,,,,,,,,0,1,1,3,1,,,,,,,,,,,,,,,,,,,,,,,,,,,,,,,,,,,,,,,,,
204846,001,2022-11-21_24h55.05.108,Info_measure_main_exp,2022.2.2,Win32,60.19020104,,,,,,,,,,,,,,,,,,masks/mask_001.jpg,,,,,,,,,,,,,,,,,,,,,,,,,,,,,,,,,,,,,,,,,,,,,,,,0,2,2,0,1,,,,,,,,,,,,,,,,,,,,,,,,,,,,,,,,,,,,,,,,,
204846,001,2022-11-21_24h55.05.108,Info_measure_main_exp,2022.2.2,Win32,60.19020104,,,,,,,,,,,,,,,,,,masks/mask_005.jpg,,,,,,,,,,,,,,,,,,,,,,,,,,,,,,,,,,,,,,,,,,,,,,,,0,3,3,4,1,,,,,,,,,,,,,,,,,,,,,,,,,,,,,,,,,,,,,,,,,
204846,001,2022-11-21_24h55.05.108,Info_measure_main_exp,2022.2.2,Win32,60.19020104,,,,,,,,,,,,,,,,,,masks/mask_002.jpg,,,,,,,,,,,,,,,,,,,,,,,,,,,,,,,,,,,,,,,,,,,,,,,,0,4,4,1,1,,,,,,,,,,,,,,,,,,,,,,,,,,,,,,,,,,,,,,,,,
204846,001,2022-11-21_24h55.05.108,Info_measure_main_exp,2022.2.2,Win32,60.19020104,,,,,,,,,,,,,,,,,,,,,,,,,,,,,,4,1.949,1,,,,,,,,,,,,0,131,5,5,1986,2274,absent_patch/patch0001986.jpg,absent_patch/patch0002274.jpg,,,,,,,,,,,,,,,,,,,,0.053703732,-0.125,1,0,0,response3disk,13,0.008333347,-0.006481489,1,0,0,center_square,0,12,12,7,1,,,,,,,,,,,,,,,,,,,,,,,
204846,001,2022-11-21_24h55.05.108,Info_measure_main_exp,2022.2.2,Win32,60.19020104,,,,,,,,,,,,,,,,,,masks/mask_001.jpg,,,,,,,,,,,,,,,,,,,,,,,,,,,,,,,,,,,,,,,,,,,0,0,0,0,1,,,,,,,,,,,,,,,,,,,,,,,,,,,,,,,,,,,,,,,,,,,,,,
204846,001,2022-11-21_24h55.05.108,Info_measure_main_exp,2022.2.2,Win32,60.19020104,,,,,,,,,,,,,,,,,,masks/mask_002.jpg,,,,,,,,,,,,,,,,,,,,,,,,,,,,,,,,,,,,,,,,,,,0,1,1,1,1,,,,,,,,,,,,,,,,,,,,,,,,,,,,,,,,,,,,,,,,,,,,,,
204846,001,2022-11-21_24h55.05.108,Info_measure_main_exp,2022.2.2,Win32,60.19020104,,,,,,,,,,,,,,,,,,masks/mask_004.jpg,,,,,,,,,,,,,,,,,,,,,,,,,,,,,,,,,,,,,,,,,,,0,2,2,3,1,,,,,,,,,,,,,,,,,,,,,,,,,,,,,,,,,,,,,,,,,,,,,,
204846,001,2022-11-21_24h55.05.108,Info_measure_main_exp,2022.2.2,Win32,60.19020104,,,,,,,,,,,,,,,,,,masks/mask_005.jpg,,,,,,,,,,,,,,,,,,,,,,,,,,,,,,,,,,,,,,,,,,,0,3,3,4,1,,,,,,,,,,,,,,,,,,,,,,,,,,,,,,,,,,,,,,,,,,,,,,
204846,001,2022-11-21_24h55.05.108,Info_measure_main_exp,2022.2.2,Win32,60.19020104,,,,,,,,,,,,,,,,,,masks/mask_003.jpg,,,,,,,,,,,,,,,,,,,,,,,,,,,,,,,,,,,,,,,,,,,0,4,4,2,1,,,,,,,,,,,,,,,,,,,,,,,,,,,,,,,,,,,,,,,,,,,,,,
204846,001,2022-11-21_24h55.05.108,Info_measure_main_exp,2022.2.2,Win32,60.19020104,,,,,,,,,,,,,,,,,,masks/mask_005.jpg,,,,,,,,,,,,,,,,,,,,,,,,,,,,,,,,,,,,,,,,,,,,,,,,0,0,0,4,1,,,,,,,,,,,,,,,,,,,,,,,,,,,,,,,,,,,,,,,,,
204846,001,2022-11-21_24h55.05.108,Info_measure_main_exp,2022.2.2,Win32,60.19020104,,,,,,,,,,,,,,,,,,masks/mask_003.jpg,,,,,,,,,,,,,,,,,,,,,,,,,,,,,,,,,,,,,,,,,,,,,,,,0,1,1,2,1,,,,,,,,,,,,,,,,,,,,,,,,,,,,,,,,,,,,,,,,,
204846,001,2022-11-21_24h55.05.108,Info_measure_main_exp,2022.2.2,Win32,60.19020104,,,,,,,,,,,,,,,,,,masks/mask_004.jpg,,,,,,,,,,,,,,,,,,,,,,,,,,,,,,,,,,,,,,,,,,,,,,,,0,2,2,3,1,,,,,,,,,,,,,,,,,,,,,,,,,,,,,,,,,,,,,,,,,
204846,001,2022-11-21_24h55.05.108,Info_measure_main_exp,2022.2.2,Win32,60.19020104,,,,,,,,,,,,,,,,,,masks/mask_002.jpg,,,,,,,,,,,,,,,,,,,,,,,,,,,,,,,,,,,,,,,,,,,,,,,,0,3,3,1,1,,,,,,,,,,,,,,,,,,,,,,,,,,,,,,,,,,,,,,,,,
204846,001,2022-11-21_24h55.05.108,Info_measure_main_exp,2022.2.2,Win32,60.19020104,,,,,,,,,,,,,,,,,,masks/mask_001.jpg,,,,,,,,,,,,,,,,,,,,,,,,,,,,,,,,,,,,,,,,,,,,,,,,0,4,4,0,1,,,,,,,,,,,,,,,,,,,,,,,,,,,,,,,,,,,,,,,,,
204846,001,2022-11-21_24h55.05.108,Info_measure_main_exp,2022.2.2,Win32,60.19020104,,,,,,,,,,,,,,,,,,,,,,,,,,,,,,2,1.5664,1,,,,,,,,,,,,1,131,5,5,1,2166,present_patch/cong_131_5_a.jpg,absent_patch/patch0002166.jpg,,,,,,,,,,,,,,,,,,,,-0.125925912,-0.059259273,1,0,0,response5disk,14,-0.005555541,0.002777771,1,0,0,center_square,0,13,13,54,1,,,,,,,,,,,,,,,,,,,,,,,
204846,001,2022-11-21_24h55.05.108,Info_measure_main_exp,2022.2.2,Win32,60.19020104,,,,,,,,,,,,,,,,,,masks/mask_005.jpg,,,,,,,,,,,,,,,,,,,,,,,,,,,,,,,,,,,,,,,,,,,0,0,0,4,1,,,,,,,,,,,,,,,,,,,,,,,,,,,,,,,,,,,,,,,,,,,,,,
204846,001,2022-11-21_24h55.05.108,Info_measure_main_exp,2022.2.2,Win32,60.19020104,,,,,,,,,,,,,,,,,,masks/mask_002.jpg,,,,,,,,,,,,,,,,,,,,,,,,,,,,,,,,,,,,,,,,,,,0,1,1,1,1,,,,,,,,,,,,,,,,,,,,,,,,,,,,,,,,,,,,,,,,,,,,,,
204846,001,2022-11-21_24h55.05.108,Info_measure_main_exp,2022.2.2,Win32,60.19020104,,,,,,,,,,,,,,,,,,masks/mask_001.jpg,,,,,,,,,,,,,,,,,,,,,,,,,,,,,,,,,,,,,,,,,,,0,2,2,0,1,,,,,,,,,,,,,,,,,,,,,,,,,,,,,,,,,,,,,,,,,,,,,,
204846,001,2022-11-21_24h55.05.108,Info_measure_main_exp,2022.2.2,Win32,60.19020104,,,,,,,,,,,,,,,,,,masks/mask_004.jpg,,,,,,,,,,,,,,,,,,,,,,,,,,,,,,,,,,,,,,,,,,,0,3,3,3,1,,,,,,,,,,,,,,,,,,,,,,,,,,,,,,,,,,,,,,,,,,,,,,
204846,001,2022-11-21_24h55.05.108,Info_measure_main_exp,2022.2.2,Win32,60.19020104,,,,,,,,,,,,,,,,,,masks/mask_003.jpg,,,,,,,,,,,,,,,,,,,,,,,,,,,,,,,,,,,,,,,,,,,0,4,4,2,1,,,,,,,,,,,,,,,,,,,,,,,,,,,,,,,,,,,,,,,,,,,,,,
204846,001,2022-11-21_24h55.05.108,Info_measure_main_exp,2022.2.2,Win32,60.19020104,,,,,,,,,,,,,,,,,,masks/mask_004.jpg,,,,,,,,,,,,,,,,,,,,,,,,,,,,,,,,,,,,,,,,,,,,,,,,0,0,0,3,1,,,,,,,,,,,,,,,,,,,,,,,,,,,,,,,,,,,,,,,,,
204846,001,2022-11-21_24h55.05.108,Info_measure_main_exp,2022.2.2,Win32,60.19020104,,,,,,,,,,,,,,,,,,masks/mask_005.jpg,,,,,,,,,,,,,,,,,,,,,,,,,,,,,,,,,,,,,,,,,,,,,,,,0,1,1,4,1,,,,,,,,,,,,,,,,,,,,,,,,,,,,,,,,,,,,,,,,,
204846,001,2022-11-21_24h55.05.108,Info_measure_main_exp,2022.2.2,Win32,60.19020104,,,,,,,,,,,,,,,,,,masks/mask_003.jpg,,,,,,,,,,,,,,,,,,,,,,,,,,,,,,,,,,,,,,,,,,,,,,,,0,2,2,2,1,,,,,,,,,,,,,,,,,,,,,,,,,,,,,,,,,,,,,,,,,
204846,001,2022-11-21_24h55.05.108,Info_measure_main_exp,2022.2.2,Win32,60.19020104,,,,,,,,,,,,,,,,,,masks/mask_001.jpg,,,,,,,,,,,,,,,,,,,,,,,,,,,,,,,,,,,,,,,,,,,,,,,,0,3,3,0,1,,,,,,,,,,,,,,,,,,,,,,,,,,,,,,,,,,,,,,,,,
204846,001,2022-11-21_24h55.05.108,Info_measure_main_exp,2022.2.2,Win32,60.19020104,,,,,,,,,,,,,,,,,,masks/mask_002.jpg,,,,,,,,,,,,,,,,,,,,,,,,,,,,,,,,,,,,,,,,,,,,,,,,0,4,4,1,1,,,,,,,,,,,,,,,,,,,,,,,,,,,,,,,,,,,,,,,,,
204846,001,2022-11-21_24h55.05.108,Info_measure_main_exp,2022.2.2,Win32,60.19020104,,,,,,,,,,,,,,,,,,,,,,,,,,,,,,0,0.6665,1,,,,,,,,,,,,0,131,5,5,2154,2214,absent_patch/patch0002154.jpg,absent_patch/patch0002214.jpg,,,,,,,,,,,,,,,,,,,,-0.045370384,0.115740741,1,0,0,response7disk,15,-0.011111083,0.006481489,1,0,0,center_square,0,14,14,67,1,,,,,,,,,,,,,,,,,,,,,,,
204846,001,2022-11-21_24h55.05.108,Info_measure_main_exp,2022.2.2,Win32,60.19020104,,,,,,,,,,,,,,,,,,masks/mask_001.jpg,,,,,,,,,,,,,,,,,,,,,,,,,,,,,,,,,,,,,,,,,,,0,0,0,0,1,,,,,,,,,,,,,,,,,,,,,,,,,,,,,,,,,,,,,,,,,,,,,,
204846,001,2022-11-21_24h55.05.108,Info_measure_main_exp,2022.2.2,Win32,60.19020104,,,,,,,,,,,,,,,,,,masks/mask_004.jpg,,,,,,,,,,,,,,,,,,,,,,,,,,,,,,,,,,,,,,,,,,,0,1,1,3,1,,,,,,,,,,,,,,,,,,,,,,,,,,,,,,,,,,,,,,,,,,,,,,
204846,001,2022-11-21_24h55.05.108,Info_measure_main_exp,2022.2.2,Win32,60.19020104,,,,,,,,,,,,,,,,,,masks/mask_002.jpg,,,,,,,,,,,,,,,,,,,,,,,,,,,,,,,,,,,,,,,,,,,0,2,2,1,1,,,,,,,,,,,,,,,,,,,,,,,,,,,,,,,,,,,,,,,,,,,,,,
204846,001,2022-11-21_24h55.05.108,Info_measure_main_exp,2022.2.2,Win32,60.19020104,,,,,,,,,,,,,,,,,,masks/mask_003.jpg,,,,,,,,,,,,,,,,,,,,,,,,,,,,,,,,,,,,,,,,,,,0,3,3,2,1,,,,,,,,,,,,,,,,,,,,,,,,,,,,,,,,,,,,,,,,,,,,,,
204846,001,2022-11-21_24h55.05.108,Info_measure_main_exp,2022.2.2,Win32,60.19020104,,,,,,,,,,,,,,,,,,masks/mask_005.jpg,,,,,,,,,,,,,,,,,,,,,,,,,,,,,,,,,,,,,,,,,,,0,4,4,4,1,,,,,,,,,,,,,,,,,,,,,,,,,,,,,,,,,,,,,,,,,,,,,,
204846,001,2022-11-21_24h55.05.108,Info_measure_main_exp,2022.2.2,Win32,60.19020104,,,,,,,,,,,,,,,,,,masks/mask_001.jpg,,,,,,,,,,,,,,,,,,,,,,,,,,,,,,,,,,,,,,,,,,,,,,,,0,0,0,0,1,,,,,,,,,,,,,,,,,,,,,,,,,,,,,,,,,,,,,,,,,
204846,001,2022-11-21_24h55.05.108,Info_measure_main_exp,2022.2.2,Win32,60.19020104,,,,,,,,,,,,,,,,,,masks/mask_004.jpg,,,,,,,,,,,,,,,,,,,,,,,,,,,,,,,,,,,,,,,,,,,,,,,,0,1,1,3,1,,,,,,,,,,,,,,,,,,,,,,,,,,,,,,,,,,,,,,,,,
204846,001,2022-11-21_24h55.05.108,Info_measure_main_exp,2022.2.2,Win32,60.19020104,,,,,,,,,,,,,,,,,,masks/mask_002.jpg,,,,,,,,,,,,,,,,,,,,,,,,,,,,,,,,,,,,,,,,,,,,,,,,0,2,2,1,1,,,,,,,,,,,,,,,,,,,,,,,,,,,,,,,,,,,,,,,,,
204846,001,2022-11-21_24h55.05.108,Info_measure_main_exp,2022.2.2,Win32,60.19020104,,,,,,,,,,,,,,,,,,masks/mask_005.jpg,,,,,,,,,,,,,,,,,,,,,,,,,,,,,,,,,,,,,,,,,,,,,,,,0,3,3,4,1,,,,,,,,,,,,,,,,,,,,,,,,,,,,,,,,,,,,,,,,,
204846,001,2022-11-21_24h55.05.108,Info_measure_main_exp,2022.2.2,Win32,60.19020104,,,,,,,,,,,,,,,,,,masks/mask_003.jpg,,,,,,,,,,,,,,,,,,,,,,,,,,,,,,,,,,,,,,,,,,,,,,,,0,4,4,2,1,,,,,,,,,,,,,,,,,,,,,,,,,,,,,,,,,,,,,,,,,
204846,001,2022-11-21_24h55.05.108,Info_measure_main_exp,2022.2.2,Win32,60.19020104,,,,,,,,,,,,,,,,,,,,,,,,,,,,,,0,1.4664,1,,,,,,,,,,,,0,131,5,5,2154,2298,absent_patch/patch0002154.jpg,absent_patch/patch0002298.jpg,,,,,,,,,,,,,,,,,,,,-0.036111125,0.091666645,1,0,0,response7disk,16,0.003703718,-0.010185206,1,0,0,center_square,0,15,15,27,1,,,,,,,,,,,,,,,,,,,,,,,
204846,001,2022-11-21_24h55.05.108,Info_measure_main_exp,2022.2.2,Win32,60.19020104,,,,,,,,,,,,,,,,,,masks/mask_002.jpg,,,,,,,,,,,,,,,,,,,,,,,,,,,,,,,,,,,,,,,,,,,0,0,0,1,1,,,,,,,,,,,,,,,,,,,,,,,,,,,,,,,,,,,,,,,,,,,,,,
204846,001,2022-11-21_24h55.05.108,Info_measure_main_exp,2022.2.2,Win32,60.19020104,,,,,,,,,,,,,,,,,,masks/mask_004.jpg,,,,,,,,,,,,,,,,,,,,,,,,,,,,,,,,,,,,,,,,,,,0,1,1,3,1,,,,,,,,,,,,,,,,,,,,,,,,,,,,,,,,,,,,,,,,,,,,,,
204846,001,2022-11-21_24h55.05.108,Info_measure_main_exp,2022.2.2,Win32,60.19020104,,,,,,,,,,,,,,,,,,masks/mask_003.jpg,,,,,,,,,,,,,,,,,,,,,,,,,,,,,,,,,,,,,,,,,,,0,2,2,2,1,,,,,,,,,,,,,,,,,,,,,,,,,,,,,,,,,,,,,,,,,,,,,,
204846,001,2022-11-21_24h55.05.108,Info_measure_main_exp,2022.2.2,Win32,60.19020104,,,,,,,,,,,,,,,,,,masks/mask_005.jpg,,,,,,,,,,,,,,,,,,,,,,,,,,,,,,,,,,,,,,,,,,,0,3,3,4,1,,,,,,,,,,,,,,,,,,,,,,,,,,,,,,,,,,,,,,,,,,,,,,
204846,001,2022-11-21_24h55.05.108,Info_measure_main_exp,2022.2.2,Win32,60.19020104,,,,,,,,,,,,,,,,,,masks/mask_001.jpg,,,,,,,,,,,,,,,,,,,,,,,,,,,,,,,,,,,,,,,,,,,0,4,4,0,1,,,,,,,,,,,,,,,,,,,,,,,,,,,,,,,,,,,,,,,,,,,,,,
204846,001,2022-11-21_24h55.05.108,Info_measure_main_exp,2022.2.2,Win32,60.19020104,,,,,,,,,,,,,,,,,,masks/mask_003.jpg,,,,,,,,,,,,,,,,,,,,,,,,,,,,,,,,,,,,,,,,,,,,,,,,0,0,0,2,1,,,,,,,,,,,,,,,,,,,,,,,,,,,,,,,,,,,,,,,,,
204846,001,2022-11-21_24h55.05.108,Info_measure_main_exp,2022.2.2,Win32,60.19020104,,,,,,,,,,,,,,,,,,masks/mask_004.jpg,,,,,,,,,,,,,,,,,,,,,,,,,,,,,,,,,,,,,,,,,,,,,,,,0,1,1,3,1,,,,,,,,,,,,,,,,,,,,,,,,,,,,,,,,,,,,,,,,,
204846,001,2022-11-21_24h55.05.108,Info_measure_main_exp,2022.2.2,Win32,60.19020104,,,,,,,,,,,,,,,,,,masks/mask_002.jpg,,,,,,,,,,,,,,,,,,,,,,,,,,,,,,,,,,,,,,,,,,,,,,,,0,2,2,1,1,,,,,,,,,,,,,,,,,,,,,,,,,,,,,,,,,,,,,,,,,
204846,001,2022-11-21_24h55.05.108,Info_measure_main_exp,2022.2.2,Win32,60.19020104,,,,,,,,,,,,,,,,,,masks/mask_001.jpg,,,,,,,,,,,,,,,,,,,,,,,,,,,,,,,,,,,,,,,,,,,,,,,,0,3,3,0,1,,,,,,,,,,,,,,,,,,,,,,,,,,,,,,,,,,,,,,,,,
204846,001,2022-11-21_24h55.05.108,Info_measure_main_exp,2022.2.2,Win32,60.19020104,,,,,,,,,,,,,,,,,,masks/mask_005.jpg,,,,,,,,,,,,,,,,,,,,,,,,,,,,,,,,,,,,,,,,,,,,,,,,0,4,4,4,1,,,,,,,,,,,,,,,,,,,,,,,,,,,,,,,,,,,,,,,,,
204846,001,2022-11-21_24h55.05.108,Info_measure_main_exp,2022.2.2,Win32,60.19020104,,,,,,,,,,,,,,,,,,,,,,,,,,,,,,0,0.7331,1,,,,,,,,,,,,0,131,5,5,2250,2298,absent_patch/patch0002250.jpg,absent_patch/patch0002298.jpg,,,,,,,,,,,,,,,,,,,,-0.038888861,0.101851852,1,0,0,response7disk,17,0.001851894,0.005555541,1,0,0,center_square,0,16,16,59,1,,,,,,,,,,,,,,,,,,,,,,,
204846,001,2022-11-21_24h55.05.108,Info_measure_main_exp,2022.2.2,Win32,60.19020104,,,,,,,,,,,,,,,,,,masks/mask_004.jpg,,,,,,,,,,,,,,,,,,,,,,,,,,,,,,,,,,,,,,,,,,,0,0,0,3,1,,,,,,,,,,,,,,,,,,,,,,,,,,,,,,,,,,,,,,,,,,,,,,
204846,001,2022-11-21_24h55.05.108,Info_measure_main_exp,2022.2.2,Win32,60.19020104,,,,,,,,,,,,,,,,,,masks/mask_001.jpg,,,,,,,,,,,,,,,,,,,,,,,,,,,,,,,,,,,,,,,,,,,0,1,1,0,1,,,,,,,,,,,,,,,,,,,,,,,,,,,,,,,,,,,,,,,,,,,,,,
204846,001,2022-11-21_24h55.05.108,Info_measure_main_exp,2022.2.2,Win32,60.19020104,,,,,,,,,,,,,,,,,,masks/mask_005.jpg,,,,,,,,,,,,,,,,,,,,,,,,,,,,,,,,,,,,,,,,,,,0,2,2,4,1,,,,,,,,,,,,,,,,,,,,,,,,,,,,,,,,,,,,,,,,,,,,,,
204846,001,2022-11-21_24h55.05.108,Info_measure_main_exp,2022.2.2,Win32,60.19020104,,,,,,,,,,,,,,,,,,masks/mask_003.jpg,,,,,,,,,,,,,,,,,,,,,,,,,,,,,,,,,,,,,,,,,,,0,3,3,2,1,,,,,,,,,,,,,,,,,,,,,,,,,,,,,,,,,,,,,,,,,,,,,,
204846,001,2022-11-21_24h55.05.108,Info_measure_main_exp,2022.2.2,Win32,60.19020104,,,,,,,,,,,,,,,,,,masks/mask_002.jpg,,,,,,,,,,,,,,,,,,,,,,,,,,,,,,,,,,,,,,,,,,,0,4,4,1,1,,,,,,,,,,,,,,,,,,,,,,,,,,,,,,,,,,,,,,,,,,,,,,
204846,001,2022-11-21_24h55.05.108,Info_measure_main_exp,2022.2.2,Win32,60.19020104,,,,,,,,,,,,,,,,,,masks/mask_004.jpg,,,,,,,,,,,,,,,,,,,,,,,,,,,,,,,,,,,,,,,,,,,,,,,,0,0,0,3,1,,,,,,,,,,,,,,,,,,,,,,,,,,,,,,,,,,,,,,,,,
204846,001,2022-11-21_24h55.05.108,Info_measure_main_exp,2022.2.2,Win32,60.19020104,,,,,,,,,,,,,,,,,,masks/mask_002.jpg,,,,,,,,,,,,,,,,,,,,,,,,,,,,,,,,,,,,,,,,,,,,,,,,0,1,1,1,1,,,,,,,,,,,,,,,,,,,,,,,,,,,,,,,,,,,,,,,,,
204846,001,2022-11-21_24h55.05.108,Info_measure_main_exp,2022.2.2,Win32,60.19020104,,,,,,,,,,,,,,,,,,masks/mask_003.jpg,,,,,,,,,,,,,,,,,,,,,,,,,,,,,,,,,,,,,,,,,,,,,,,,0,2,2,2,1,,,,,,,,,,,,,,,,,,,,,,,,,,,,,,,,,,,,,,,,,
204846,001,2022-11-21_24h55.05.108,Info_measure_main_exp,2022.2.2,Win32,60.19020104,,,,,,,,,,,,,,,,,,masks/mask_001.jpg,,,,,,,,,,,,,,,,,,,,,,,,,,,,,,,,,,,,,,,,,,,,,,,,0,3,3,0,1,,,,,,,,,,,,,,,,,,,,,,,,,,,,,,,,,,,,,,,,,
204846,001,2022-11-21_24h55.05.108,Info_measure_main_exp,2022.2.2,Win32,60.19020104,,,,,,,,,,,,,,,,,,masks/mask_005.jpg,,,,,,,,,,,,,,,,,,,,,,,,,,,,,,,,,,,,,,,,,,,,,,,,0,4,4,4,1,,,,,,,,,,,,,,,,,,,,,,,,,,,,,,,,,,,,,,,,,
204846,001,2022-11-21_24h55.05.108,Info_measure_main_exp,2022.2.2,Win32,60.19020104,,,,,,,,,,,,,,,,,,,,,,,,,,,,,,0,1.1168,1,,,,,,,,,,,,0,131,5,5,2250,2142,absent_patch/patch0002250.jpg,absent_patch/patch0002142.jpg,,,,,,,,,,,,,,,,,,,,-0.038888861,0.11296297,1,0,0,response7disk,18,-0.007407365,0.002777771,1,0,0,center_square,0,17,17,71,1,,,,,,,,,,,,,,,,,,,,,,,
204846,001,2022-11-21_24h55.05.108,Info_measure_main_exp,2022.2.2,Win32,60.19020104,,,,,,,,,,,,,,,,,,masks/mask_003.jpg,,,,,,,,,,,,,,,,,,,,,,,,,,,,,,,,,,,,,,,,,,,0,0,0,2,1,,,,,,,,,,,,,,,,,,,,,,,,,,,,,,,,,,,,,,,,,,,,,,
204846,001,2022-11-21_24h55.05.108,Info_measure_main_exp,2022.2.2,Win32,60.19020104,,,,,,,,,,,,,,,,,,masks/mask_002.jpg,,,,,,,,,,,,,,,,,,,,,,,,,,,,,,,,,,,,,,,,,,,0,1,1,1,1,,,,,,,,,,,,,,,,,,,,,,,,,,,,,,,,,,,,,,,,,,,,,,
204846,001,2022-11-21_24h55.05.108,Info_measure_main_exp,2022.2.2,Win32,60.19020104,,,,,,,,,,,,,,,,,,masks/mask_004.jpg,,,,,,,,,,,,,,,,,,,,,,,,,,,,,,,,,,,,,,,,,,,0,2,2,3,1,,,,,,,,,,,,,,,,,,,,,,,,,,,,,,,,,,,,,,,,,,,,,,
204846,001,2022-11-21_24h55.05.108,Info_measure_main_exp,2022.2.2,Win32,60.19020104,,,,,,,,,,,,,,,,,,masks/mask_001.jpg,,,,,,,,,,,,,,,,,,,,,,,,,,,,,,,,,,,,,,,,,,,0,3,3,0,1,,,,,,,,,,,,,,,,,,,,,,,,,,,,,,,,,,,,,,,,,,,,,,
204846,001,2022-11-21_24h55.05.108,Info_measure_main_exp,2022.2.2,Win32,60.19020104,,,,,,,,,,,,,,,,,,masks/mask_005.jpg,,,,,,,,,,,,,,,,,,,,,,,,,,,,,,,,,,,,,,,,,,,0,4,4,4,1,,,,,,,,,,,,,,,,,,,,,,,,,,,,,,,,,,,,,,,,,,,,,,
204846,001,2022-11-21_24h55.05.108,Info_measure_main_exp,2022.2.2,Win32,60.19020104,,,,,,,,,,,,,,,,,,masks/mask_001.jpg,,,,,,,,,,,,,,,,,,,,,,,,,,,,,,,,,,,,,,,,,,,,,,,,0,0,0,0,1,,,,,,,,,,,,,,,,,,,,,,,,,,,,,,,,,,,,,,,,,
204846,001,2022-11-21_24h55.05.108,Info_measure_main_exp,2022.2.2,Win32,60.19020104,,,,,,,,,,,,,,,,,,masks/mask_002.jpg,,,,,,,,,,,,,,,,,,,,,,,,,,,,,,,,,,,,,,,,,,,,,,,,0,1,1,1,1,,,,,,,,,,,,,,,,,,,,,,,,,,,,,,,,,,,,,,,,,
204846,001,2022-11-21_24h55.05.108,Info_measure_main_exp,2022.2.2,Win32,60.19020104,,,,,,,,,,,,,,,,,,masks/mask_003.jpg,,,,,,,,,,,,,,,,,,,,,,,,,,,,,,,,,,,,,,,,,,,,,,,,0,2,2,2,1,,,,,,,,,,,,,,,,,,,,,,,,,,,,,,,,,,,,,,,,,
204846,001,2022-11-21_24h55.05.108,Info_measure_main_exp,2022.2.2,Win32,60.19020104,,,,,,,,,,,,,,,,,,masks/mask_005.jpg,,,,,,,,,,,,,,,,,,,,,,,,,,,,,,,,,,,,,,,,,,,,,,,,0,3,3,4,1,,,,,,,,,,,,,,,,,,,,,,,,,,,,,,,,,,,,,,,,,
204846,001,2022-11-21_24h55.05.108,Info_measure_main_exp,2022.2.2,Win32,60.19020104,,,,,,,,,,,,,,,,,,masks/mask_004.jpg,,,,,,,,,,,,,,,,,,,,,,,,,,,,,,,,,,,,,,,,,,,,,,,,0,4,4,3,1,,,,,,,,,,,,,,,,,,,,,,,,,,,,,,,,,,,,,,,,,
204846,001,2022-11-21_24h55.05.108,Info_measure_main_exp,2022.2.2,Win32,60.19020104,,,,,,,,,,,,,,,,,,,,,,,,,,,,,,6,10.8987,1,,,,,,,,,,,,0,131,5,5,2190,2166,absent_patch/patch0002190.jpg,absent_patch/patch0002166.jpg,,,,,,,,,,,,,,,,,,,,0.111111111,0.048148155,1,0,0,response1disk,19,0.001851894,0.005555541,1,0,0,center_square,0,18,18,50,1,,,,,,,,,,,,,,,,,,,,,,,
204846,001,2022-11-21_24h55.05.108,Info_measure_main_exp,2022.2.2,Win32,60.19020104,,,,,,,,,,,,,,,,,,masks/mask_001.jpg,,,,,,,,,,,,,,,,,,,,,,,,,,,,,,,,,,,,,,,,,,,0,0,0,0,1,,,,,,,,,,,,,,,,,,,,,,,,,,,,,,,,,,,,,,,,,,,,,,
204846,001,2022-11-21_24h55.05.108,Info_measure_main_exp,2022.2.2,Win32,60.19020104,,,,,,,,,,,,,,,,,,masks/mask_005.jpg,,,,,,,,,,,,,,,,,,,,,,,,,,,,,,,,,,,,,,,,,,,0,1,1,4,1,,,,,,,,,,,,,,,,,,,,,,,,,,,,,,,,,,,,,,,,,,,,,,
204846,001,2022-11-21_24h55.05.108,Info_measure_main_exp,2022.2.2,Win32,60.19020104,,,,,,,,,,,,,,,,,,masks/mask_002.jpg,,,,,,,,,,,,,,,,,,,,,,,,,,,,,,,,,,,,,,,,,,,0,2,2,1,1,,,,,,,,,,,,,,,,,,,,,,,,,,,,,,,,,,,,,,,,,,,,,,
204846,001,2022-11-21_24h55.05.108,Info_measure_main_exp,2022.2.2,Win32,60.19020104,,,,,,,,,,,,,,,,,,masks/mask_004.jpg,,,,,,,,,,,,,,,,,,,,,,,,,,,,,,,,,,,,,,,,,,,0,3,3,3,1,,,,,,,,,,,,,,,,,,,,,,,,,,,,,,,,,,,,,,,,,,,,,,
204846,001,2022-11-21_24h55.05.108,Info_measure_main_exp,2022.2.2,Win32,60.19020104,,,,,,,,,,,,,,,,,,masks/mask_003.jpg,,,,,,,,,,,,,,,,,,,,,,,,,,,,,,,,,,,,,,,,,,,0,4,4,2,1,,,,,,,,,,,,,,,,,,,,,,,,,,,,,,,,,,,,,,,,,,,,,,
204846,001,2022-11-21_24h55.05.108,Info_measure_main_exp,2022.2.2,Win32,60.19020104,,,,,,,,,,,,,,,,,,masks/mask_004.jpg,,,,,,,,,,,,,,,,,,,,,,,,,,,,,,,,,,,,,,,,,,,,,,,,0,0,0,3,1,,,,,,,,,,,,,,,,,,,,,,,,,,,,,,,,,,,,,,,,,
204846,001,2022-11-21_24h55.05.108,Info_measure_main_exp,2022.2.2,Win32,60.19020104,,,,,,,,,,,,,,,,,,masks/mask_001.jpg,,,,,,,,,,,,,,,,,,,,,,,,,,,,,,,,,,,,,,,,,,,,,,,,0,1,1,0,1,,,,,,,,,,,,,,,,,,,,,,,,,,,,,,,,,,,,,,,,,
204846,001,2022-11-21_24h55.05.108,Info_measure_main_exp,2022.2.2,Win32,60.19020104,,,,,,,,,,,,,,,,,,masks/mask_003.jpg,,,,,,,,,,,,,,,,,,,,,,,,,,,,,,,,,,,,,,,,,,,,,,,,0,2,2,2,1,,,,,,,,,,,,,,,,,,,,,,,,,,,,,,,,,,,,,,,,,
204846,001,2022-11-21_24h55.05.108,Info_measure_main_exp,2022.2.2,Win32,60.19020104,,,,,,,,,,,,,,,,,,masks/mask_002.jpg,,,,,,,,,,,,,,,,,,,,,,,,,,,,,,,,,,,,,,,,,,,,,,,,0,3,3,1,1,,,,,,,,,,,,,,,,,,,,,,,,,,,,,,,,,,,,,,,,,
204846,001,2022-11-21_24h55.05.108,Info_measure_main_exp,2022.2.2,Win32,60.19020104,,,,,,,,,,,,,,,,,,masks/mask_005.jpg,,,,,,,,,,,,,,,,,,,,,,,,,,,,,,,,,,,,,,,,,,,,,,,,0,4,4,4,1,,,,,,,,,,,,,,,,,,,,,,,,,,,,,,,,,,,,,,,,,
204846,001,2022-11-21_24h55.05.108,Info_measure_main_exp,2022.2.2,Win32,60.19020104,,,,,,,,,,,,,,,,,,,,,,,,,,,,,,0,1.1999,1,,,,,,,,,,,,0,131,5,5,2190,2190,absent_patch/patch0002190.jpg,absent_patch/patch0002190.jpg,,,,,,,,,,,,,,,,,,,,-0.053703661,0.124074053,1,0,0,response7disk,20,-0.001851824,0,1,0,0,center_square,0,19,19,86,1,,,,,,,,,,,,,,,,,,,,,,,
204846,001,2022-11-21_24h55.05.108,Info_measure_main_exp,2022.2.2,Win32,60.19020104,,,,,,,,,,,,,,,,,,masks/mask_002.jpg,,,,,,,,,,,,,,,,,,,,,,,,,,,,,,,,,,,,,,,,,,,0,0,0,1,1,,,,,,,,,,,,,,,,,,,,,,,,,,,,,,,,,,,,,,,,,,,,,,
204846,001,2022-11-21_24h55.05.108,Info_measure_main_exp,2022.2.2,Win32,60.19020104,,,,,,,,,,,,,,,,,,masks/mask_004.jpg,,,,,,,,,,,,,,,,,,,,,,,,,,,,,,,,,,,,,,,,,,,0,1,1,3,1,,,,,,,,,,,,,,,,,,,,,,,,,,,,,,,,,,,,,,,,,,,,,,
204846,001,2022-11-21_24h55.05.108,Info_measure_main_exp,2022.2.2,Win32,60.19020104,,,,,,,,,,,,,,,,,,masks/mask_001.jpg,,,,,,,,,,,,,,,,,,,,,,,,,,,,,,,,,,,,,,,,,,,0,2,2,0,1,,,,,,,,,,,,,,,,,,,,,,,,,,,,,,,,,,,,,,,,,,,,,,
204846,001,2022-11-21_24h55.05.108,Info_measure_main_exp,2022.2.2,Win32,60.19020104,,,,,,,,,,,,,,,,,,masks/mask_003.jpg,,,,,,,,,,,,,,,,,,,,,,,,,,,,,,,,,,,,,,,,,,,0,3,3,2,1,,,,,,,,,,,,,,,,,,,,,,,,,,,,,,,,,,,,,,,,,,,,,,
204846,001,2022-11-21_24h55.05.108,Info_measure_main_exp,2022.2.2,Win32,60.19020104,,,,,,,,,,,,,,,,,,masks/mask_005.jpg,,,,,,,,,,,,,,,,,,,,,,,,,,,,,,,,,,,,,,,,,,,0,4,4,4,1,,,,,,,,,,,,,,,,,,,,,,,,,,,,,,,,,,,,,,,,,,,,,,
204846,001,2022-11-21_24h55.05.108,Info_measure_main_exp,2022.2.2,Win32,60.19020104,,,,,,,,,,,,,,,,,,masks/mask_002.jpg,,,,,,,,,,,,,,,,,,,,,,,,,,,,,,,,,,,,,,,,,,,,,,,,0,0,0,1,1,,,,,,,,,,,,,,,,,,,,,,,,,,,,,,,,,,,,,,,,,
204846,001,2022-11-21_24h55.05.108,Info_measure_main_exp,2022.2.2,Win32,60.19020104,,,,,,,,,,,,,,,,,,masks/mask_004.jpg,,,,,,,,,,,,,,,,,,,,,,,,,,,,,,,,,,,,,,,,,,,,,,,,0,1,1,3,1,,,,,,,,,,,,,,,,,,,,,,,,,,,,,,,,,,,,,,,,,
204846,001,2022-11-21_24h55.05.108,Info_measure_main_exp,2022.2.2,Win32,60.19020104,,,,,,,,,,,,,,,,,,masks/mask_003.jpg,,,,,,,,,,,,,,,,,,,,,,,,,,,,,,,,,,,,,,,,,,,,,,,,0,2,2,2,1,,,,,,,,,,,,,,,,,,,,,,,,,,,,,,,,,,,,,,,,,
204846,001,2022-11-21_24h55.05.108,Info_measure_main_exp,2022.2.2,Win32,60.19020104,,,,,,,,,,,,,,,,,,masks/mask_001.jpg,,,,,,,,,,,,,,,,,,,,,,,,,,,,,,,,,,,,,,,,,,,,,,,,0,3,3,0,1,,,,,,,,,,,,,,,,,,,,,,,,,,,,,,,,,,,,,,,,,
204846,001,2022-11-21_24h55.05.108,Info_measure_main_exp,2022.2.2,Win32,60.19020104,,,,,,,,,,,,,,,,,,masks/mask_005.jpg,,,,,,,,,,,,,,,,,,,,,,,,,,,,,,,,,,,,,,,,,,,,,,,,0,4,4,4,1,,,,,,,,,,,,,,,,,,,,,,,,,,,,,,,,,,,,,,,,,
204846,001,2022-11-21_24h55.05.108,Info_measure_main_exp,2022.2.2,Win32,60.19020104,,,,,,,,,,,,,,,,,,,,,,,,,,,,,,5,1.2663,1,,,,,,,,,,,,0,131,5,5,1950,2178,absent_patch/patch0001950.jpg,absent_patch/patch0002178.jpg,,,,,,,,,,,,,,,,,,,,0.122222265,-0.082407422,1,0,0,response3disk,21,0.001851894,-0.005555577,1,0,0,center_square,0,20,20,61,1,,,,,,,,,,,,,,,,,,,,,,,
204846,001,2022-11-21_24h55.05.108,Info_measure_main_exp,2022.2.2,Win32,60.19020104,,,,,,,,,,,,,,,,,,masks/mask_005.jpg,,,,,,,,,,,,,,,,,,,,,,,,,,,,,,,,,,,,,,,,,,,0,0,0,4,1,,,,,,,,,,,,,,,,,,,,,,,,,,,,,,,,,,,,,,,,,,,,,,
204846,001,2022-11-21_24h55.05.108,Info_measure_main_exp,2022.2.2,Win32,60.19020104,,,,,,,,,,,,,,,,,,masks/mask_003.jpg,,,,,,,,,,,,,,,,,,,,,,,,,,,,,,,,,,,,,,,,,,,0,1,1,2,1,,,,,,,,,,,,,,,,,,,,,,,,,,,,,,,,,,,,,,,,,,,,,,
204846,001,2022-11-21_24h55.05.108,Info_measure_main_exp,2022.2.2,Win32,60.19020104,,,,,,,,,,,,,,,,,,masks/mask_002.jpg,,,,,,,,,,,,,,,,,,,,,,,,,,,,,,,,,,,,,,,,,,,0,2,2,1,1,,,,,,,,,,,,,,,,,,,,,,,,,,,,,,,,,,,,,,,,,,,,,,
204846,001,2022-11-21_24h55.05.108,Info_measure_main_exp,2022.2.2,Win32,60.19020104,,,,,,,,,,,,,,,,,,masks/mask_001.jpg,,,,,,,,,,,,,,,,,,,,,,,,,,,,,,,,,,,,,,,,,,,0,3,3,0,1,,,,,,,,,,,,,,,,,,,,,,,,,,,,,,,,,,,,,,,,,,,,,,
204846,001,2022-11-21_24h55.05.108,Info_measure_main_exp,2022.2.2,Win32,60.19020104,,,,,,,,,,,,,,,,,,masks/mask_004.jpg,,,,,,,,,,,,,,,,,,,,,,,,,,,,,,,,,,,,,,,,,,,0,4,4,3,1,,,,,,,,,,,,,,,,,,,,,,,,,,,,,,,,,,,,,,,,,,,,,,
204846,001,2022-11-21_24h55.05.108,Info_measure_main_exp,2022.2.2,Win32,60.19020104,,,,,,,,,,,,,,,,,,masks/mask_004.jpg,,,,,,,,,,,,,,,,,,,,,,,,,,,,,,,,,,,,,,,,,,,,,,,,0,0,0,3,1,,,,,,,,,,,,,,,,,,,,,,,,,,,,,,,,,,,,,,,,,
204846,001,2022-11-21_24h55.05.108,Info_measure_main_exp,2022.2.2,Win32,60.19020104,,,,,,,,,,,,,,,,,,masks/mask_002.jpg,,,,,,,,,,,,,,,,,,,,,,,,,,,,,,,,,,,,,,,,,,,,,,,,0,1,1,1,1,,,,,,,,,,,,,,,,,,,,,,,,,,,,,,,,,,,,,,,,,
204846,001,2022-11-21_24h55.05.108,Info_measure_main_exp,2022.2.2,Win32,60.19020104,,,,,,,,,,,,,,,,,,masks/mask_003.jpg,,,,,,,,,,,,,,,,,,,,,,,,,,,,,,,,,,,,,,,,,,,,,,,,0,2,2,2,1,,,,,,,,,,,,,,,,,,,,,,,,,,,,,,,,,,,,,,,,,
204846,001,2022-11-21_24h55.05.108,Info_measure_main_exp,2022.2.2,Win32,60.19020104,,,,,,,,,,,,,,,,,,masks/mask_001.jpg,,,,,,,,,,,,,,,,,,,,,,,,,,,,,,,,,,,,,,,,,,,,,,,,0,3,3,0,1,,,,,,,,,,,,,,,,,,,,,,,,,,,,,,,,,,,,,,,,,
204846,001,2022-11-21_24h55.05.108,Info_measure_main_exp,2022.2.2,Win32,60.19020104,,,,,,,,,,,,,,,,,,masks/mask_005.jpg,,,,,,,,,,,,,,,,,,,,,,,,,,,,,,,,,,,,,,,,,,,,,,,,0,4,4,4,1,,,,,,,,,,,,,,,,,,,,,,,,,,,,,,,,,,,,,,,,,
204846,001,2022-11-21_24h55.05.108,Info_measure_main_exp,2022.2.2,Win32,60.19020104,,,,,,,,,,,,,,,,,,,,,,,,,,,,,,4,1.9996,1,,,,,,,,,,,,0,131,5,5,1974,2142,absent_patch/patch0001974.jpg,absent_patch/patch0002142.jpg,,,,,,,,,,,,,,,,,,,,0.061111097,-0.130555541,1,0,0,response3disk,22,-0.000925912,0.003703683,1,0,0,center_square,0,21,21,38,1,,,,,,,,,,,,,,,,,,,,,,,
204846,001,2022-11-21_24h55.05.108,Info_measure_main_exp,2022.2.2,Win32,60.19020104,,,,,,,,,,,,,,,,,,masks/mask_002.jpg,,,,,,,,,,,,,,,,,,,,,,,,,,,,,,,,,,,,,,,,,,,0,0,0,1,1,,,,,,,,,,,,,,,,,,,,,,,,,,,,,,,,,,,,,,,,,,,,,,
204846,001,2022-11-21_24h55.05.108,Info_measure_main_exp,2022.2.2,Win32,60.19020104,,,,,,,,,,,,,,,,,,masks/mask_004.jpg,,,,,,,,,,,,,,,,,,,,,,,,,,,,,,,,,,,,,,,,,,,0,1,1,3,1,,,,,,,,,,,,,,,,,,,,,,,,,,,,,,,,,,,,,,,,,,,,,,
204846,001,2022-11-21_24h55.05.108,Info_measure_main_exp,2022.2.2,Win32,60.19020104,,,,,,,,,,,,,,,,,,masks/mask_005.jpg,,,,,,,,,,,,,,,,,,,,,,,,,,,,,,,,,,,,,,,,,,,0,2,2,4,1,,,,,,,,,,,,,,,,,,,,,,,,,,,,,,,,,,,,,,,,,,,,,,
204846,001,2022-11-21_24h55.05.108,Info_measure_main_exp,2022.2.2,Win32,60.19020104,,,,,,,,,,,,,,,,,,masks/mask_003.jpg,,,,,,,,,,,,,,,,,,,,,,,,,,,,,,,,,,,,,,,,,,,0,3,3,2,1,,,,,,,,,,,,,,,,,,,,,,,,,,,,,,,,,,,,,,,,,,,,,,
204846,001,2022-11-21_24h55.05.108,Info_measure_main_exp,2022.2.2,Win32,60.19020104,,,,,,,,,,,,,,,,,,masks/mask_001.jpg,,,,,,,,,,,,,,,,,,,,,,,,,,,,,,,,,,,,,,,,,,,0,4,4,0,1,,,,,,,,,,,,,,,,,,,,,,,,,,,,,,,,,,,,,,,,,,,,,,
204846,001,2022-11-21_24h55.05.108,Info_measure_main_exp,2022.2.2,Win32,60.19020104,,,,,,,,,,,,,,,,,,masks/mask_003.jpg,,,,,,,,,,,,,,,,,,,,,,,,,,,,,,,,,,,,,,,,,,,,,,,,0,0,0,2,1,,,,,,,,,,,,,,,,,,,,,,,,,,,,,,,,,,,,,,,,,
204846,001,2022-11-21_24h55.05.108,Info_measure_main_exp,2022.2.2,Win32,60.19020104,,,,,,,,,,,,,,,,,,masks/mask_002.jpg,,,,,,,,,,,,,,,,,,,,,,,,,,,,,,,,,,,,,,,,,,,,,,,,0,1,1,1,1,,,,,,,,,,,,,,,,,,,,,,,,,,,,,,,,,,,,,,,,,
204846,001,2022-11-21_24h55.05.108,Info_measure_main_exp,2022.2.2,Win32,60.19020104,,,,,,,,,,,,,,,,,,masks/mask_001.jpg,,,,,,,,,,,,,,,,,,,,,,,,,,,,,,,,,,,,,,,,,,,,,,,,0,2,2,0,1,,,,,,,,,,,,,,,,,,,,,,,,,,,,,,,,,,,,,,,,,
204846,001,2022-11-21_24h55.05.108,Info_measure_main_exp,2022.2.2,Win32,60.19020104,,,,,,,,,,,,,,,,,,masks/mask_005.jpg,,,,,,,,,,,,,,,,,,,,,,,,,,,,,,,,,,,,,,,,,,,,,,,,0,3,3,4,1,,,,,,,,,,,,,,,,,,,,,,,,,,,,,,,,,,,,,,,,,
204846,001,2022-11-21_24h55.05.108,Info_measure_main_exp,2022.2.2,Win32,60.19020104,,,,,,,,,,,,,,,,,,masks/mask_004.jpg,,,,,,,,,,,,,,,,,,,,,,,,,,,,,,,,,,,,,,,,,,,,,,,,0,4,4,3,1,,,,,,,,,,,,,,,,,,,,,,,,,,,,,,,,,,,,,,,,,
204846,001,2022-11-21_24h55.05.108,Info_measure_main_exp,2022.2.2,Win32,60.19020104,,,,,,,,,,,,,,,,,,,,,,,,,,,,,,5,2.6167,1,,,,,,,,,,,,0,131,5,5,1986,2154,absent_patch/patch0001986.jpg,absent_patch/patch0002154.jpg,,,,,,,,,,,,,,,,,,,,0.108333376,-0.038888896,1,0,0,response3disk,23,-0.009259259,-0.006481489,1,0,0,center_square,0,22,22,36,1,,,,,,,,,,,,,,,,,,,,,,,
204846,001,2022-11-21_24h55.05.108,Info_measure_main_exp,2022.2.2,Win32,60.19020104,,,,,,,,,,,,,,,,,,masks/mask_003.jpg,,,,,,,,,,,,,,,,,,,,,,,,,,,,,,,,,,,,,,,,,,,0,0,0,2,1,,,,,,,,,,,,,,,,,,,,,,,,,,,,,,,,,,,,,,,,,,,,,,
204846,001,2022-11-21_24h55.05.108,Info_measure_main_exp,2022.2.2,Win32,60.19020104,,,,,,,,,,,,,,,,,,masks/mask_002.jpg,,,,,,,,,,,,,,,,,,,,,,,,,,,,,,,,,,,,,,,,,,,0,1,1,1,1,,,,,,,,,,,,,,,,,,,,,,,,,,,,,,,,,,,,,,,,,,,,,,
204846,001,2022-11-21_24h55.05.108,Info_measure_main_exp,2022.2.2,Win32,60.19020104,,,,,,,,,,,,,,,,,,masks/mask_005.jpg,,,,,,,,,,,,,,,,,,,,,,,,,,,,,,,,,,,,,,,,,,,0,2,2,4,1,,,,,,,,,,,,,,,,,,,,,,,,,,,,,,,,,,,,,,,,,,,,,,
204846,001,2022-11-21_24h55.05.108,Info_measure_main_exp,2022.2.2,Win32,60.19020104,,,,,,,,,,,,,,,,,,masks/mask_001.jpg,,,,,,,,,,,,,,,,,,,,,,,,,,,,,,,,,,,,,,,,,,,0,3,3,0,1,,,,,,,,,,,,,,,,,,,,,,,,,,,,,,,,,,,,,,,,,,,,,,
204846,001,2022-11-21_24h55.05.108,Info_measure_main_exp,2022.2.2,Win32,60.19020104,,,,,,,,,,,,,,,,,,masks/mask_004.jpg,,,,,,,,,,,,,,,,,,,,,,,,,,,,,,,,,,,,,,,,,,,0,4,4,3,1,,,,,,,,,,,,,,,,,,,,,,,,,,,,,,,,,,,,,,,,,,,,,,
204846,001,2022-11-21_24h55.05.108,Info_measure_main_exp,2022.2.2,Win32,60.19020104,,,,,,,,,,,,,,,,,,masks/mask_002.jpg,,,,,,,,,,,,,,,,,,,,,,,,,,,,,,,,,,,,,,,,,,,,,,,,0,0,0,1,1,,,,,,,,,,,,,,,,,,,,,,,,,,,,,,,,,,,,,,,,,
204846,001,2022-11-21_24h55.05.108,Info_measure_main_exp,2022.2.2,Win32,60.19020104,,,,,,,,,,,,,,,,,,masks/mask_001.jpg,,,,,,,,,,,,,,,,,,,,,,,,,,,,,,,,,,,,,,,,,,,,,,,,0,1,1,0,1,,,,,,,,,,,,,,,,,,,,,,,,,,,,,,,,,,,,,,,,,
204846,001,2022-11-21_24h55.05.108,Info_measure_main_exp,2022.2.2,Win32,60.19020104,,,,,,,,,,,,,,,,,,masks/mask_003.jpg,,,,,,,,,,,,,,,,,,,,,,,,,,,,,,,,,,,,,,,,,,,,,,,,0,2,2,2,1,,,,,,,,,,,,,,,,,,,,,,,,,,,,,,,,,,,,,,,,,
204846,001,2022-11-21_24h55.05.108,Info_measure_main_exp,2022.2.2,Win32,60.19020104,,,,,,,,,,,,,,,,,,masks/mask_005.jpg,,,,,,,,,,,,,,,,,,,,,,,,,,,,,,,,,,,,,,,,,,,,,,,,0,3,3,4,1,,,,,,,,,,,,,,,,,,,,,,,,,,,,,,,,,,,,,,,,,
204846,001,2022-11-21_24h55.05.108,Info_measure_main_exp,2022.2.2,Win32,60.19020104,,,,,,,,,,,,,,,,,,masks/mask_004.jpg,,,,,,,,,,,,,,,,,,,,,,,,,,,,,,,,,,,,,,,,,,,,,,,,0,4,4,3,1,,,,,,,,,,,,,,,,,,,,,,,,,,,,,,,,,,,,,,,,,
204846,001,2022-11-21_24h55.05.108,Info_measure_main_exp,2022.2.2,Win32,60.19020104,,,,,,,,,,,,,,,,,,,,,,,,,,,,,,6,0.9342,1,,,,,,,,,,,,0,131,5,5,2154,2250,absent_patch/patch0002154.jpg,absent_patch/patch0002250.jpg,,,,,,,,,,,,,,,,,,,,0.165740755,0.062037044,1,0,0,response1disk,24,0.00462963,0.00462963,1,0,0,center_square,0,23,23,108,1,,,,,,,,,,,,,,,,,,,,,,,
204846,001,2022-11-21_24h55.05.108,Info_measure_main_exp,2022.2.2,Win32,60.19020104,,,,,,,,,,,,,,,,,,masks/mask_001.jpg,,,,,,,,,,,,,,,,,,,,,,,,,,,,,,,,,,,,,,,,,,,0,0,0,0,1,,,,,,,,,,,,,,,,,,,,,,,,,,,,,,,,,,,,,,,,,,,,,,
204846,001,2022-11-21_24h55.05.108,Info_measure_main_exp,2022.2.2,Win32,60.19020104,,,,,,,,,,,,,,,,,,masks/mask_003.jpg,,,,,,,,,,,,,,,,,,,,,,,,,,,,,,,,,,,,,,,,,,,0,1,1,2,1,,,,,,,,,,,,,,,,,,,,,,,,,,,,,,,,,,,,,,,,,,,,,,
204846,001,2022-11-21_24h55.05.108,Info_measure_main_exp,2022.2.2,Win32,60.19020104,,,,,,,,,,,,,,,,,,masks/mask_004.jpg,,,,,,,,,,,,,,,,,,,,,,,,,,,,,,,,,,,,,,,,,,,0,2,2,3,1,,,,,,,,,,,,,,,,,,,,,,,,,,,,,,,,,,,,,,,,,,,,,,
204846,001,2022-11-21_24h55.05.108,Info_measure_main_exp,2022.2.2,Win32,60.19020104,,,,,,,,,,,,,,,,,,masks/mask_005.jpg,,,,,,,,,,,,,,,,,,,,,,,,,,,,,,,,,,,,,,,,,,,0,3,3,4,1,,,,,,,,,,,,,,,,,,,,,,,,,,,,,,,,,,,,,,,,,,,,,,
204846,001,2022-11-21_24h55.05.108,Info_measure_main_exp,2022.2.2,Win32,60.19020104,,,,,,,,,,,,,,,,,,masks/mask_002.jpg,,,,,,,,,,,,,,,,,,,,,,,,,,,,,,,,,,,,,,,,,,,0,4,4,1,1,,,,,,,,,,,,,,,,,,,,,,,,,,,,,,,,,,,,,,,,,,,,,,
204846,001,2022-11-21_24h55.05.108,Info_measure_main_exp,2022.2.2,Win32,60.19020104,,,,,,,,,,,,,,,,,,masks/mask_002.jpg,,,,,,,,,,,,,,,,,,,,,,,,,,,,,,,,,,,,,,,,,,,,,,,,0,0,0,1,1,,,,,,,,,,,,,,,,,,,,,,,,,,,,,,,,,,,,,,,,,
204846,001,2022-11-21_24h55.05.108,Info_measure_main_exp,2022.2.2,Win32,60.19020104,,,,,,,,,,,,,,,,,,masks/mask_004.jpg,,,,,,,,,,,,,,,,,,,,,,,,,,,,,,,,,,,,,,,,,,,,,,,,0,1,1,3,1,,,,,,,,,,,,,,,,,,,,,,,,,,,,,,,,,,,,,,,,,
204846,001,2022-11-21_24h55.05.108,Info_measure_main_exp,2022.2.2,Win32,60.19020104,,,,,,,,,,,,,,,,,,masks/mask_005.jpg,,,,,,,,,,,,,,,,,,,,,,,,,,,,,,,,,,,,,,,,,,,,,,,,0,2,2,4,1,,,,,,,,,,,,,,,,,,,,,,,,,,,,,,,,,,,,,,,,,
204846,001,2022-11-21_24h55.05.108,Info_measure_main_exp,2022.2.2,Win32,60.19020104,,,,,,,,,,,,,,,,,,masks/mask_003.jpg,,,,,,,,,,,,,,,,,,,,,,,,,,,,,,,,,,,,,,,,,,,,,,,,0,3,3,2,1,,,,,,,,,,,,,,,,,,,,,,,,,,,,,,,,,,,,,,,,,
204846,001,2022-11-21_24h55.05.108,Info_measure_main_exp,2022.2.2,Win32,60.19020104,,,,,,,,,,,,,,,,,,masks/mask_001.jpg,,,,,,,,,,,,,,,,,,,,,,,,,,,,,,,,,,,,,,,,,,,,,,,,0,4,4,0,1,,,,,,,,,,,,,,,,,,,,,,,,,,,,,,,,,,,,,,,,,
204846,001,2022-11-21_24h55.05.108,Info_measure_main_exp,2022.2.2,Win32,60.19020104,,,,,,,,,,,,,,,,,,,,,,,,,,,,,,7,1.8004,1,,,,,,,,,,,,0,131,5,5,2238,2298,absent_patch/patch0002238.jpg,absent_patch/patch0002298.jpg,,,,,,,,,,,,,,,,,,,,0.075925968,0.089814822,1,0,0,response1disk,25,0,0.000925912,1,0,0,center_square,0,24,24,51,1,,,,,,,,,,,,,,,,,,,,,,,
204846,001,2022-11-21_24h55.05.108,Info_measure_main_exp,2022.2.2,Win32,60.19020104,,,,,,,,,,,,,,,,,,masks/mask_005.jpg,,,,,,,,,,,,,,,,,,,,,,,,,,,,,,,,,,,,,,,,,,,0,0,0,4,1,,,,,,,,,,,,,,,,,,,,,,,,,,,,,,,,,,,,,,,,,,,,,,
204846,001,2022-11-21_24h55.05.108,Info_measure_main_exp,2022.2.2,Win32,60.19020104,,,,,,,,,,,,,,,,,,masks/mask_001.jpg,,,,,,,,,,,,,,,,,,,,,,,,,,,,,,,,,,,,,,,,,,,0,1,1,0,1,,,,,,,,,,,,,,,,,,,,,,,,,,,,,,,,,,,,,,,,,,,,,,
204846,001,2022-11-21_24h55.05.108,Info_measure_main_exp,2022.2.2,Win32,60.19020104,,,,,,,,,,,,,,,,,,masks/mask_003.jpg,,,,,,,,,,,,,,,,,,,,,,,,,,,,,,,,,,,,,,,,,,,0,2,2,2,1,,,,,,,,,,,,,,,,,,,,,,,,,,,,,,,,,,,,,,,,,,,,,,
204846,001,2022-11-21_24h55.05.108,Info_measure_main_exp,2022.2.2,Win32,60.19020104,,,,,,,,,,,,,,,,,,masks/mask_002.jpg,,,,,,,,,,,,,,,,,,,,,,,,,,,,,,,,,,,,,,,,,,,0,3,3,1,1,,,,,,,,,,,,,,,,,,,,,,,,,,,,,,,,,,,,,,,,,,,,,,
204846,001,2022-11-21_24h55.05.108,Info_measure_main_exp,2022.2.2,Win32,60.19020104,,,,,,,,,,,,,,,,,,masks/mask_004.jpg,,,,,,,,,,,,,,,,,,,,,,,,,,,,,,,,,,,,,,,,,,,0,4,4,3,1,,,,,,,,,,,,,,,,,,,,,,,,,,,,,,,,,,,,,,,,,,,,,,
204846,001,2022-11-21_24h55.05.108,Info_measure_main_exp,2022.2.2,Win32,60.19020104,,,,,,,,,,,,,,,,,,masks/mask_003.jpg,,,,,,,,,,,,,,,,,,,,,,,,,,,,,,,,,,,,,,,,,,,,,,,,0,0,0,2,1,,,,,,,,,,,,,,,,,,,,,,,,,,,,,,,,,,,,,,,,,
204846,001,2022-11-21_24h55.05.108,Info_measure_main_exp,2022.2.2,Win32,60.19020104,,,,,,,,,,,,,,,,,,masks/mask_002.jpg,,,,,,,,,,,,,,,,,,,,,,,,,,,,,,,,,,,,,,,,,,,,,,,,0,1,1,1,1,,,,,,,,,,,,,,,,,,,,,,,,,,,,,,,,,,,,,,,,,
204846,001,2022-11-21_24h55.05.108,Info_measure_main_exp,2022.2.2,Win32,60.19020104,,,,,,,,,,,,,,,,,,masks/mask_001.jpg,,,,,,,,,,,,,,,,,,,,,,,,,,,,,,,,,,,,,,,,,,,,,,,,0,2,2,0,1,,,,,,,,,,,,,,,,,,,,,,,,,,,,,,,,,,,,,,,,,
204846,001,2022-11-21_24h55.05.108,Info_measure_main_exp,2022.2.2,Win32,60.19020104,,,,,,,,,,,,,,,,,,masks/mask_004.jpg,,,,,,,,,,,,,,,,,,,,,,,,,,,,,,,,,,,,,,,,,,,,,,,,0,3,3,3,1,,,,,,,,,,,,,,,,,,,,,,,,,,,,,,,,,,,,,,,,,
204846,001,2022-11-21_24h55.05.108,Info_measure_main_exp,2022.2.2,Win32,60.19020104,,,,,,,,,,,,,,,,,,masks/mask_005.jpg,,,,,,,,,,,,,,,,,,,,,,,,,,,,,,,,,,,,,,,,,,,,,,,,0,4,4,4,1,,,,,,,,,,,,,,,,,,,,,,,,,,,,,,,,,,,,,,,,,
204846,001,2022-11-21_24h55.05.108,Info_measure_main_exp,2022.2.2,Win32,60.19020104,,,,,,,,,,,,,,,,,,,,,,,,,,,,,,6,1.917,1,,,,,,,,,,,,0,131,5,5,2190,2238,absent_patch/patch0002190.jpg,absent_patch/patch0002238.jpg,,,,,,,,,,,,,,,,,,,,0.159259302,0.077777757,1,0,0,response1disk,26,-0.003703718,0.003703683,1,0,0,center_square,0,25,25,53,1,,,,,,,,,,,,,,,,,,,,,,,
204846,001,2022-11-21_24h55.05.108,Info_measure_main_exp,2022.2.2,Win32,60.19020104,,,,,,,,,,,,,,,,,,masks/mask_004.jpg,,,,,,,,,,,,,,,,,,,,,,,,,,,,,,,,,,,,,,,,,,,0,0,0,3,1,,,,,,,,,,,,,,,,,,,,,,,,,,,,,,,,,,,,,,,,,,,,,,
204846,001,2022-11-21_24h55.05.108,Info_measure_main_exp,2022.2.2,Win32,60.19020104,,,,,,,,,,,,,,,,,,masks/mask_001.jpg,,,,,,,,,,,,,,,,,,,,,,,,,,,,,,,,,,,,,,,,,,,0,1,1,0,1,,,,,,,,,,,,,,,,,,,,,,,,,,,,,,,,,,,,,,,,,,,,,,
204846,001,2022-11-21_24h55.05.108,Info_measure_main_exp,2022.2.2,Win32,60.19020104,,,,,,,,,,,,,,,,,,masks/mask_005.jpg,,,,,,,,,,,,,,,,,,,,,,,,,,,,,,,,,,,,,,,,,,,0,2,2,4,1,,,,,,,,,,,,,,,,,,,,,,,,,,,,,,,,,,,,,,,,,,,,,,
204846,001,2022-11-21_24h55.05.108,Info_measure_main_exp,2022.2.2,Win32,60.19020104,,,,,,,,,,,,,,,,,,masks/mask_002.jpg,,,,,,,,,,,,,,,,,,,,,,,,,,,,,,,,,,,,,,,,,,,0,3,3,1,1,,,,,,,,,,,,,,,,,,,,,,,,,,,,,,,,,,,,,,,,,,,,,,
204846,001,2022-11-21_24h55.05.108,Info_measure_main_exp,2022.2.2,Win32,60.19020104,,,,,,,,,,,,,,,,,,masks/mask_003.jpg,,,,,,,,,,,,,,,,,,,,,,,,,,,,,,,,,,,,,,,,,,,0,4,4,2,1,,,,,,,,,,,,,,,,,,,,,,,,,,,,,,,,,,,,,,,,,,,,,,
204846,001,2022-11-21_24h55.05.108,Info_measure_main_exp,2022.2.2,Win32,60.19020104,,,,,,,,,,,,,,,,,,masks/mask_003.jpg,,,,,,,,,,,,,,,,,,,,,,,,,,,,,,,,,,,,,,,,,,,,,,,,0,0,0,2,1,,,,,,,,,,,,,,,,,,,,,,,,,,,,,,,,,,,,,,,,,
204846,001,2022-11-21_24h55.05.108,Info_measure_main_exp,2022.2.2,Win32,60.19020104,,,,,,,,,,,,,,,,,,masks/mask_004.jpg,,,,,,,,,,,,,,,,,,,,,,,,,,,,,,,,,,,,,,,,,,,,,,,,0,1,1,3,1,,,,,,,,,,,,,,,,,,,,,,,,,,,,,,,,,,,,,,,,,
204846,001,2022-11-21_24h55.05.108,Info_measure_main_exp,2022.2.2,Win32,60.19020104,,,,,,,,,,,,,,,,,,masks/mask_001.jpg,,,,,,,,,,,,,,,,,,,,,,,,,,,,,,,,,,,,,,,,,,,,,,,,0,2,2,0,1,,,,,,,,,,,,,,,,,,,,,,,,,,,,,,,,,,,,,,,,,
204846,001,2022-11-21_24h55.05.108,Info_measure_main_exp,2022.2.2,Win32,60.19020104,,,,,,,,,,,,,,,,,,masks/mask_005.jpg,,,,,,,,,,,,,,,,,,,,,,,,,,,,,,,,,,,,,,,,,,,,,,,,0,3,3,4,1,,,,,,,,,,,,,,,,,,,,,,,,,,,,,,,,,,,,,,,,,
204846,001,2022-11-21_24h55.05.108,Info_measure_main_exp,2022.2.2,Win32,60.19020104,,,,,,,,,,,,,,,,,,masks/mask_002.jpg,,,,,,,,,,,,,,,,,,,,,,,,,,,,,,,,,,,,,,,,,,,,,,,,0,4,4,1,1,,,,,,,,,,,,,,,,,,,,,,,,,,,,,,,,,,,,,,,,,
204846,001,2022-11-21_24h55.05.108,Info_measure_main_exp,2022.2.2,Win32,60.19020104,,,,,,,,,,,,,,,,,,,,,,,,,,,,,,7,2.5661,1,,,,,,,,,,,,0,131,5,5,2250,2178,absent_patch/patch0002250.jpg,absent_patch/patch0002178.jpg,,,,,,,,,,,,,,,,,,,,0.080555598,0.118518511,1,0,0,response1disk,27,0.010185171,0.001851859,1,0,0,center_square,0,26,26,48,1,,,,,,,,,,,,,,,,,,,,,,,
204846,001,2022-11-21_24h55.05.108,Info_measure_main_exp,2022.2.2,Win32,60.19020104,,,,,,,,,,,,,,,,,,masks/mask_005.jpg,,,,,,,,,,,,,,,,,,,,,,,,,,,,,,,,,,,,,,,,,,,0,0,0,4,1,,,,,,,,,,,,,,,,,,,,,,,,,,,,,,,,,,,,,,,,,,,,,,
204846,001,2022-11-21_24h55.05.108,Info_measure_main_exp,2022.2.2,Win32,60.19020104,,,,,,,,,,,,,,,,,,masks/mask_002.jpg,,,,,,,,,,,,,,,,,,,,,,,,,,,,,,,,,,,,,,,,,,,0,1,1,1,1,,,,,,,,,,,,,,,,,,,,,,,,,,,,,,,,,,,,,,,,,,,,,,
204846,001,2022-11-21_24h55.05.108,Info_measure_main_exp,2022.2.2,Win32,60.19020104,,,,,,,,,,,,,,,,,,masks/mask_004.jpg,,,,,,,,,,,,,,,,,,,,,,,,,,,,,,,,,,,,,,,,,,,0,2,2,3,1,,,,,,,,,,,,,,,,,,,,,,,,,,,,,,,,,,,,,,,,,,,,,,
204846,001,2022-11-21_24h55.05.108,Info_measure_main_exp,2022.2.2,Win32,60.19020104,,,,,,,,,,,,,,,,,,masks/mask_001.jpg,,,,,,,,,,,,,,,,,,,,,,,,,,,,,,,,,,,,,,,,,,,0,3,3,0,1,,,,,,,,,,,,,,,,,,,,,,,,,,,,,,,,,,,,,,,,,,,,,,
204846,001,2022-11-21_24h55.05.108,Info_measure_main_exp,2022.2.2,Win32,60.19020104,,,,,,,,,,,,,,,,,,masks/mask_003.jpg,,,,,,,,,,,,,,,,,,,,,,,,,,,,,,,,,,,,,,,,,,,0,4,4,2,1,,,,,,,,,,,,,,,,,,,,,,,,,,,,,,,,,,,,,,,,,,,,,,
204846,001,2022-11-21_24h55.05.108,Info_measure_main_exp,2022.2.2,Win32,60.19020104,,,,,,,,,,,,,,,,,,masks/mask_001.jpg,,,,,,,,,,,,,,,,,,,,,,,,,,,,,,,,,,,,,,,,,,,,,,,,0,0,0,0,1,,,,,,,,,,,,,,,,,,,,,,,,,,,,,,,,,,,,,,,,,
204846,001,2022-11-21_24h55.05.108,Info_measure_main_exp,2022.2.2,Win32,60.19020104,,,,,,,,,,,,,,,,,,masks/mask_003.jpg,,,,,,,,,,,,,,,,,,,,,,,,,,,,,,,,,,,,,,,,,,,,,,,,0,1,1,2,1,,,,,,,,,,,,,,,,,,,,,,,,,,,,,,,,,,,,,,,,,
204846,001,2022-11-21_24h55.05.108,Info_measure_main_exp,2022.2.2,Win32,60.19020104,,,,,,,,,,,,,,,,,,masks/mask_002.jpg,,,,,,,,,,,,,,,,,,,,,,,,,,,,,,,,,,,,,,,,,,,,,,,,0,2,2,1,1,,,,,,,,,,,,,,,,,,,,,,,,,,,,,,,,,,,,,,,,,
204846,001,2022-11-21_24h55.05.108,Info_measure_main_exp,2022.2.2,Win32,60.19020104,,,,,,,,,,,,,,,,,,masks/mask_005.jpg,,,,,,,,,,,,,,,,,,,,,,,,,,,,,,,,,,,,,,,,,,,,,,,,0,3,3,4,1,,,,,,,,,,,,,,,,,,,,,,,,,,,,,,,,,,,,,,,,,
204846,001,2022-11-21_24h55.05.108,Info_measure_main_exp,2022.2.2,Win32,60.19020104,,,,,,,,,,,,,,,,,,masks/mask_004.jpg,,,,,,,,,,,,,,,,,,,,,,,,,,,,,,,,,,,,,,,,,,,,,,,,0,4,4,3,1,,,,,,,,,,,,,,,,,,,,,,,,,,,,,,,,,,,,,,,,,
204846,001,2022-11-21_24h55.05.108,Info_measure_main_exp,2022.2.2,Win32,60.19020104,,,,,,,,,,,,,,,,,,,,,,,,,,,,,,6,1.4999,1,,,,,,,,,,,,0,131,5,5,1974,1974,absent_patch/patch0001974.jpg,absent_patch/patch0001974.jpg,,,,,,,,,,,,,,,,,,,,0.112037023,0.051851838,1,0,0,response1disk,28,-0.010185171,0.0074074,1,0,0,center_square,0,27,27,113,1,,,,,,,,,,,,,,,,,,,,,,,
204846,001,2022-11-21_24h55.05.108,Info_measure_main_exp,2022.2.2,Win32,60.19020104,,,,,,,,,,,,,,,,,,masks/mask_005.jpg,,,,,,,,,,,,,,,,,,,,,,,,,,,,,,,,,,,,,,,,,,,0,0,0,4,1,,,,,,,,,,,,,,,,,,,,,,,,,,,,,,,,,,,,,,,,,,,,,,
204846,001,2022-11-21_24h55.05.108,Info_measure_main_exp,2022.2.2,Win32,60.19020104,,,,,,,,,,,,,,,,,,masks/mask_004.jpg,,,,,,,,,,,,,,,,,,,,,,,,,,,,,,,,,,,,,,,,,,,0,1,1,3,1,,,,,,,,,,,,,,,,,,,,,,,,,,,,,,,,,,,,,,,,,,,,,,
204846,001,2022-11-21_24h55.05.108,Info_measure_main_exp,2022.2.2,Win32,60.19020104,,,,,,,,,,,,,,,,,,masks/mask_002.jpg,,,,,,,,,,,,,,,,,,,,,,,,,,,,,,,,,,,,,,,,,,,0,2,2,1,1,,,,,,,,,,,,,,,,,,,,,,,,,,,,,,,,,,,,,,,,,,,,,,
204846,001,2022-11-21_24h55.05.108,Info_measure_main_exp,2022.2.2,Win32,60.19020104,,,,,,,,,,,,,,,,,,masks/mask_003.jpg,,,,,,,,,,,,,,,,,,,,,,,,,,,,,,,,,,,,,,,,,,,0,3,3,2,1,,,,,,,,,,,,,,,,,,,,,,,,,,,,,,,,,,,,,,,,,,,,,,
204846,001,2022-11-21_24h55.05.108,Info_measure_main_exp,2022.2.2,Win32,60.19020104,,,,,,,,,,,,,,,,,,masks/mask_001.jpg,,,,,,,,,,,,,,,,,,,,,,,,,,,,,,,,,,,,,,,,,,,0,4,4,0,1,,,,,,,,,,,,,,,,,,,,,,,,,,,,,,,,,,,,,,,,,,,,,,
204846,001,2022-11-21_24h55.05.108,Info_measure_main_exp,2022.2.2,Win32,60.19020104,,,,,,,,,,,,,,,,,,masks/mask_004.jpg,,,,,,,,,,,,,,,,,,,,,,,,,,,,,,,,,,,,,,,,,,,,,,,,0,0,0,3,1,,,,,,,,,,,,,,,,,,,,,,,,,,,,,,,,,,,,,,,,,
204846,001,2022-11-21_24h55.05.108,Info_measure_main_exp,2022.2.2,Win32,60.19020104,,,,,,,,,,,,,,,,,,masks/mask_001.jpg,,,,,,,,,,,,,,,,,,,,,,,,,,,,,,,,,,,,,,,,,,,,,,,,0,1,1,0,1,,,,,,,,,,,,,,,,,,,,,,,,,,,,,,,,,,,,,,,,,
204846,001,2022-11-21_24h55.05.108,Info_measure_main_exp,2022.2.2,Win32,60.19020104,,,,,,,,,,,,,,,,,,masks/mask_003.jpg,,,,,,,,,,,,,,,,,,,,,,,,,,,,,,,,,,,,,,,,,,,,,,,,0,2,2,2,1,,,,,,,,,,,,,,,,,,,,,,,,,,,,,,,,,,,,,,,,,
204846,001,2022-11-21_24h55.05.108,Info_measure_main_exp,2022.2.2,Win32,60.19020104,,,,,,,,,,,,,,,,,,masks/mask_005.jpg,,,,,,,,,,,,,,,,,,,,,,,,,,,,,,,,,,,,,,,,,,,,,,,,0,3,3,4,1,,,,,,,,,,,,,,,,,,,,,,,,,,,,,,,,,,,,,,,,,
204846,001,2022-11-21_24h55.05.108,Info_measure_main_exp,2022.2.2,Win32,60.19020104,,,,,,,,,,,,,,,,,,masks/mask_002.jpg,,,,,,,,,,,,,,,,,,,,,,,,,,,,,,,,,,,,,,,,,,,,,,,,0,4,4,1,1,,,,,,,,,,,,,,,,,,,,,,,,,,,,,,,,,,,,,,,,,
204846,001,2022-11-21_24h55.05.108,Info_measure_main_exp,2022.2.2,Win32,60.19020104,,,,,,,,,,,,,,,,,,,,,,,,,,,,,,5,1.866,1,,,,,,,,,,,,0,131,5,5,2214,2142,absent_patch/patch0002214.jpg,absent_patch/patch0002142.jpg,,,,,,,,,,,,,,,,,,,,0.097222222,-0.042592614,1,0,0,response3disk,29,0.002777806,0.001851859,1,0,0,center_square,0,28,28,102,1,,,,,,,,,,,,,,,,,,,,,,,
204846,001,2022-11-21_24h55.05.108,Info_measure_main_exp,2022.2.2,Win32,60.19020104,,,,,,,,,,,,,,,,,,masks/mask_003.jpg,,,,,,,,,,,,,,,,,,,,,,,,,,,,,,,,,,,,,,,,,,,0,0,0,2,1,,,,,,,,,,,,,,,,,,,,,,,,,,,,,,,,,,,,,,,,,,,,,,
204846,001,2022-11-21_24h55.05.108,Info_measure_main_exp,2022.2.2,Win32,60.19020104,,,,,,,,,,,,,,,,,,masks/mask_002.jpg,,,,,,,,,,,,,,,,,,,,,,,,,,,,,,,,,,,,,,,,,,,0,1,1,1,1,,,,,,,,,,,,,,,,,,,,,,,,,,,,,,,,,,,,,,,,,,,,,,
204846,001,2022-11-21_24h55.05.108,Info_measure_main_exp,2022.2.2,Win32,60.19020104,,,,,,,,,,,,,,,,,,masks/mask_004.jpg,,,,,,,,,,,,,,,,,,,,,,,,,,,,,,,,,,,,,,,,,,,0,2,2,3,1,,,,,,,,,,,,,,,,,,,,,,,,,,,,,,,,,,,,,,,,,,,,,,
204846,001,2022-11-21_24h55.05.108,Info_measure_main_exp,2022.2.2,Win32,60.19020104,,,,,,,,,,,,,,,,,,masks/mask_005.jpg,,,,,,,,,,,,,,,,,,,,,,,,,,,,,,,,,,,,,,,,,,,0,3,3,4,1,,,,,,,,,,,,,,,,,,,,,,,,,,,,,,,,,,,,,,,,,,,,,,
204846,001,2022-11-21_24h55.05.108,Info_measure_main_exp,2022.2.2,Win32,60.19020104,,,,,,,,,,,,,,,,,,masks/mask_001.jpg,,,,,,,,,,,,,,,,,,,,,,,,,,,,,,,,,,,,,,,,,,,0,4,4,0,1,,,,,,,,,,,,,,,,,,,,,,,,,,,,,,,,,,,,,,,,,,,,,,
204846,001,2022-11-21_24h55.05.108,Info_measure_main_exp,2022.2.2,Win32,60.19020104,,,,,,,,,,,,,,,,,,masks/mask_002.jpg,,,,,,,,,,,,,,,,,,,,,,,,,,,,,,,,,,,,,,,,,,,,,,,,0,0,0,1,1,,,,,,,,,,,,,,,,,,,,,,,,,,,,,,,,,,,,,,,,,
204846,001,2022-11-21_24h55.05.108,Info_measure_main_exp,2022.2.2,Win32,60.19020104,,,,,,,,,,,,,,,,,,masks/mask_003.jpg,,,,,,,,,,,,,,,,,,,,,,,,,,,,,,,,,,,,,,,,,,,,,,,,0,1,1,2,1,,,,,,,,,,,,,,,,,,,,,,,,,,,,,,,,,,,,,,,,,
204846,001,2022-11-21_24h55.05.108,Info_measure_main_exp,2022.2.2,Win32,60.19020104,,,,,,,,,,,,,,,,,,masks/mask_001.jpg,,,,,,,,,,,,,,,,,,,,,,,,,,,,,,,,,,,,,,,,,,,,,,,,0,2,2,0,1,,,,,,,,,,,,,,,,,,,,,,,,,,,,,,,,,,,,,,,,,
204846,001,2022-11-21_24h55.05.108,Info_measure_main_exp,2022.2.2,Win32,60.19020104,,,,,,,,,,,,,,,,,,masks/mask_005.jpg,,,,,,,,,,,,,,,,,,,,,,,,,,,,,,,,,,,,,,,,,,,,,,,,0,3,3,4,1,,,,,,,,,,,,,,,,,,,,,,,,,,,,,,,,,,,,,,,,,
204846,001,2022-11-21_24h55.05.108,Info_measure_main_exp,2022.2.2,Win32,60.19020104,,,,,,,,,,,,,,,,,,masks/mask_004.jpg,,,,,,,,,,,,,,,,,,,,,,,,,,,,,,,,,,,,,,,,,,,,,,,,0,4,4,3,1,,,,,,,,,,,,,,,,,,,,,,,,,,,,,,,,,,,,,,,,,
204846,001,2022-11-21_24h55.05.108,Info_measure_main_exp,2022.2.2,Win32,60.19020104,,,,,,,,,,,,,,,,,,,,,,,,,,,,,,6,3.2997,1,,,,,,,,,,,,0,131,5,5,2250,1986,absent_patch/patch0002250.jpg,absent_patch/patch0001986.jpg,,,,,,,,,,,,,,,,,,,,0.141666695,0.087962963,1,0,0,response1disk,30,0.002777806,0.005555541,1,0,0,center_square,0,29,29,29,1,,,,,,,,,,,,,,,,,,,,,,,
204846,001,2022-11-21_24h55.05.108,Info_measure_main_exp,2022.2.2,Win32,60.19020104,,,,,,,,,,,,,,,,,,masks/mask_005.jpg,,,,,,,,,,,,,,,,,,,,,,,,,,,,,,,,,,,,,,,,,,,0,0,0,4,1,,,,,,,,,,,,,,,,,,,,,,,,,,,,,,,,,,,,,,,,,,,,,,
204846,001,2022-11-21_24h55.05.108,Info_measure_main_exp,2022.2.2,Win32,60.19020104,,,,,,,,,,,,,,,,,,masks/mask_001.jpg,,,,,,,,,,,,,,,,,,,,,,,,,,,,,,,,,,,,,,,,,,,0,1,1,0,1,,,,,,,,,,,,,,,,,,,,,,,,,,,,,,,,,,,,,,,,,,,,,,
204846,001,2022-11-21_24h55.05.108,Info_measure_main_exp,2022.2.2,Win32,60.19020104,,,,,,,,,,,,,,,,,,masks/mask_004.jpg,,,,,,,,,,,,,,,,,,,,,,,,,,,,,,,,,,,,,,,,,,,0,2,2,3,1,,,,,,,,,,,,,,,,,,,,,,,,,,,,,,,,,,,,,,,,,,,,,,
204846,001,2022-11-21_24h55.05.108,Info_measure_main_exp,2022.2.2,Win32,60.19020104,,,,,,,,,,,,,,,,,,masks/mask_003.jpg,,,,,,,,,,,,,,,,,,,,,,,,,,,,,,,,,,,,,,,,,,,0,3,3,2,1,,,,,,,,,,,,,,,,,,,,,,,,,,,,,,,,,,,,,,,,,,,,,,
204846,001,2022-11-21_24h55.05.108,Info_measure_main_exp,2022.2.2,Win32,60.19020104,,,,,,,,,,,,,,,,,,masks/mask_002.jpg,,,,,,,,,,,,,,,,,,,,,,,,,,,,,,,,,,,,,,,,,,,0,4,4,1,1,,,,,,,,,,,,,,,,,,,,,,,,,,,,,,,,,,,,,,,,,,,,,,
204846,001,2022-11-21_24h55.05.108,Info_measure_main_exp,2022.2.2,Win32,60.19020104,,,,,,,,,,,,,,,,,,masks/mask_003.jpg,,,,,,,,,,,,,,,,,,,,,,,,,,,,,,,,,,,,,,,,,,,,,,,,0,0,0,2,1,,,,,,,,,,,,,,,,,,,,,,,,,,,,,,,,,,,,,,,,,
204846,001,2022-11-21_24h55.05.108,Info_measure_main_exp,2022.2.2,Win32,60.19020104,,,,,,,,,,,,,,,,,,masks/mask_005.jpg,,,,,,,,,,,,,,,,,,,,,,,,,,,,,,,,,,,,,,,,,,,,,,,,0,1,1,4,1,,,,,,,,,,,,,,,,,,,,,,,,,,,,,,,,,,,,,,,,,
204846,001,2022-11-21_24h55.05.108,Info_measure_main_exp,2022.2.2,Win32,60.19020104,,,,,,,,,,,,,,,,,,masks/mask_002.jpg,,,,,,,,,,,,,,,,,,,,,,,,,,,,,,,,,,,,,,,,,,,,,,,,0,2,2,1,1,,,,,,,,,,,,,,,,,,,,,,,,,,,,,,,,,,,,,,,,,
204846,001,2022-11-21_24h55.05.108,Info_measure_main_exp,2022.2.2,Win32,60.19020104,,,,,,,,,,,,,,,,,,masks/mask_004.jpg,,,,,,,,,,,,,,,,,,,,,,,,,,,,,,,,,,,,,,,,,,,,,,,,0,3,3,3,1,,,,,,,,,,,,,,,,,,,,,,,,,,,,,,,,,,,,,,,,,
204846,001,2022-11-21_24h55.05.108,Info_measure_main_exp,2022.2.2,Win32,60.19020104,,,,,,,,,,,,,,,,,,masks/mask_001.jpg,,,,,,,,,,,,,,,,,,,,,,,,,,,,,,,,,,,,,,,,,,,,,,,,0,4,4,0,1,,,,,,,,,,,,,,,,,,,,,,,,,,,,,,,,,,,,,,,,,
204846,001,2022-11-21_24h55.05.108,Info_measure_main_exp,2022.2.2,Win32,60.19020104,,,,,,,,,,,,,,,,,,,,,,,,,,,,,,7,1.3671,1,,,,,,,,,,,,0,131,5,5,2214,1986,absent_patch/patch0002214.jpg,absent_patch/patch0001986.jpg,,,,,,,,,,,,,,,,,,,,0.045370384,0.100925905,1,0,0,response1disk,31,0.008333347,0.000925912,1,0,0,center_square,0,30,30,34,1,,,,,,,,,,,,,,,,,,,,,,,
204846,001,2022-11-21_24h55.05.108,Info_measure_main_exp,2022.2.2,Win32,60.19020104,,,,,,,,,,,,,,,,,,masks/mask_002.jpg,,,,,,,,,,,,,,,,,,,,,,,,,,,,,,,,,,,,,,,,,,,0,0,0,1,1,,,,,,,,,,,,,,,,,,,,,,,,,,,,,,,,,,,,,,,,,,,,,,
204846,001,2022-11-21_24h55.05.108,Info_measure_main_exp,2022.2.2,Win32,60.19020104,,,,,,,,,,,,,,,,,,masks/mask_001.jpg,,,,,,,,,,,,,,,,,,,,,,,,,,,,,,,,,,,,,,,,,,,0,1,1,0,1,,,,,,,,,,,,,,,,,,,,,,,,,,,,,,,,,,,,,,,,,,,,,,
204846,001,2022-11-21_24h55.05.108,Info_measure_main_exp,2022.2.2,Win32,60.19020104,,,,,,,,,,,,,,,,,,masks/mask_004.jpg,,,,,,,,,,,,,,,,,,,,,,,,,,,,,,,,,,,,,,,,,,,0,2,2,3,1,,,,,,,,,,,,,,,,,,,,,,,,,,,,,,,,,,,,,,,,,,,,,,
204846,001,2022-11-21_24h55.05.108,Info_measure_main_exp,2022.2.2,Win32,60.19020104,,,,,,,,,,,,,,,,,,masks/mask_005.jpg,,,,,,,,,,,,,,,,,,,,,,,,,,,,,,,,,,,,,,,,,,,0,3,3,4,1,,,,,,,,,,,,,,,,,,,,,,,,,,,,,,,,,,,,,,,,,,,,,,
204846,001,2022-11-21_24h55.05.108,Info_measure_main_exp,2022.2.2,Win32,60.19020104,,,,,,,,,,,,,,,,,,masks/mask_003.jpg,,,,,,,,,,,,,,,,,,,,,,,,,,,,,,,,,,,,,,,,,,,0,4,4,2,1,,,,,,,,,,,,,,,,,,,,,,,,,,,,,,,,,,,,,,,,,,,,,,
204846,001,2022-11-21_24h55.05.108,Info_measure_main_exp,2022.2.2,Win32,60.19020104,,,,,,,,,,,,,,,,,,masks/mask_003.jpg,,,,,,,,,,,,,,,,,,,,,,,,,,,,,,,,,,,,,,,,,,,,,,,,0,0,0,2,1,,,,,,,,,,,,,,,,,,,,,,,,,,,,,,,,,,,,,,,,,
204846,001,2022-11-21_24h55.05.108,Info_measure_main_exp,2022.2.2,Win32,60.19020104,,,,,,,,,,,,,,,,,,masks/mask_001.jpg,,,,,,,,,,,,,,,,,,,,,,,,,,,,,,,,,,,,,,,,,,,,,,,,0,1,1,0,1,,,,,,,,,,,,,,,,,,,,,,,,,,,,,,,,,,,,,,,,,
204846,001,2022-11-21_24h55.05.108,Info_measure_main_exp,2022.2.2,Win32,60.19020104,,,,,,,,,,,,,,,,,,masks/mask_002.jpg,,,,,,,,,,,,,,,,,,,,,,,,,,,,,,,,,,,,,,,,,,,,,,,,0,2,2,1,1,,,,,,,,,,,,,,,,,,,,,,,,,,,,,,,,,,,,,,,,,
204846,001,2022-11-21_24h55.05.108,Info_measure_main_exp,2022.2.2,Win32,60.19020104,,,,,,,,,,,,,,,,,,masks/mask_005.jpg,,,,,,,,,,,,,,,,,,,,,,,,,,,,,,,,,,,,,,,,,,,,,,,,0,3,3,4,1,,,,,,,,,,,,,,,,,,,,,,,,,,,,,,,,,,,,,,,,,
204846,001,2022-11-21_24h55.05.108,Info_measure_main_exp,2022.2.2,Win32,60.19020104,,,,,,,,,,,,,,,,,,masks/mask_004.jpg,,,,,,,,,,,,,,,,,,,,,,,,,,,,,,,,,,,,,,,,,,,,,,,,0,4,4,3,1,,,,,,,,,,,,,,,,,,,,,,,,,,,,,,,,,,,,,,,,,
204846,001,2022-11-21_24h55.05.108,Info_measure_main_exp,2022.2.2,Win32,60.19020104,,,,,,,,,,,,,,,,,,,,,,,,,,,,,,7,1.0334,1,,,,,,,,,,,,0,131,5,5,2178,2154,absent_patch/patch0002178.jpg,absent_patch/patch0002154.jpg,,,,,,,,,,,,,,,,,,,,0.031481496,0.107407393,1,0,0,response1disk,32,0.006481524,0.010185171,1,0,0,center_square,0,31,31,63,1,,,,,,,,,,,,,,,,,,,,,,,
204846,001,2022-11-21_24h55.05.108,Info_measure_main_exp,2022.2.2,Win32,60.19020104,,,,,,,,,,,,,,,,,,masks/mask_001.jpg,,,,,,,,,,,,,,,,,,,,,,,,,,,,,,,,,,,,,,,,,,,0,0,0,0,1,,,,,,,,,,,,,,,,,,,,,,,,,,,,,,,,,,,,,,,,,,,,,,
204846,001,2022-11-21_24h55.05.108,Info_measure_main_exp,2022.2.2,Win32,60.19020104,,,,,,,,,,,,,,,,,,masks/mask_005.jpg,,,,,,,,,,,,,,,,,,,,,,,,,,,,,,,,,,,,,,,,,,,0,1,1,4,1,,,,,,,,,,,,,,,,,,,,,,,,,,,,,,,,,,,,,,,,,,,,,,
204846,001,2022-11-21_24h55.05.108,Info_measure_main_exp,2022.2.2,Win32,60.19020104,,,,,,,,,,,,,,,,,,masks/mask_004.jpg,,,,,,,,,,,,,,,,,,,,,,,,,,,,,,,,,,,,,,,,,,,0,2,2,3,1,,,,,,,,,,,,,,,,,,,,,,,,,,,,,,,,,,,,,,,,,,,,,,
204846,001,2022-11-21_24h55.05.108,Info_measure_main_exp,2022.2.2,Win32,60.19020104,,,,,,,,,,,,,,,,,,masks/mask_003.jpg,,,,,,,,,,,,,,,,,,,,,,,,,,,,,,,,,,,,,,,,,,,0,3,3,2,1,,,,,,,,,,,,,,,,,,,,,,,,,,,,,,,,,,,,,,,,,,,,,,
204846,001,2022-11-21_24h55.05.108,Info_measure_main_exp,2022.2.2,Win32,60.19020104,,,,,,,,,,,,,,,,,,masks/mask_002.jpg,,,,,,,,,,,,,,,,,,,,,,,,,,,,,,,,,,,,,,,,,,,0,4,4,1,1,,,,,,,,,,,,,,,,,,,,,,,,,,,,,,,,,,,,,,,,,,,,,,
204846,001,2022-11-21_24h55.05.108,Info_measure_main_exp,2022.2.2,Win32,60.19020104,,,,,,,,,,,,,,,,,,masks/mask_004.jpg,,,,,,,,,,,,,,,,,,,,,,,,,,,,,,,,,,,,,,,,,,,,,,,,0,0,0,3,1,,,,,,,,,,,,,,,,,,,,,,,,,,,,,,,,,,,,,,,,,
204846,001,2022-11-21_24h55.05.108,Info_measure_main_exp,2022.2.2,Win32,60.19020104,,,,,,,,,,,,,,,,,,masks/mask_005.jpg,,,,,,,,,,,,,,,,,,,,,,,,,,,,,,,,,,,,,,,,,,,,,,,,0,1,1,4,1,,,,,,,,,,,,,,,,,,,,,,,,,,,,,,,,,,,,,,,,,
204846,001,2022-11-21_24h55.05.108,Info_measure_main_exp,2022.2.2,Win32,60.19020104,,,,,,,,,,,,,,,,,,masks/mask_003.jpg,,,,,,,,,,,,,,,,,,,,,,,,,,,,,,,,,,,,,,,,,,,,,,,,0,2,2,2,1,,,,,,,,,,,,,,,,,,,,,,,,,,,,,,,,,,,,,,,,,
204846,001,2022-11-21_24h55.05.108,Info_measure_main_exp,2022.2.2,Win32,60.19020104,,,,,,,,,,,,,,,,,,masks/mask_002.jpg,,,,,,,,,,,,,,,,,,,,,,,,,,,,,,,,,,,,,,,,,,,,,,,,0,3,3,1,1,,,,,,,,,,,,,,,,,,,,,,,,,,,,,,,,,,,,,,,,,
204846,001,2022-11-21_24h55.05.108,Info_measure_main_exp,2022.2.2,Win32,60.19020104,,,,,,,,,,,,,,,,,,masks/mask_001.jpg,,,,,,,,,,,,,,,,,,,,,,,,,,,,,,,,,,,,,,,,,,,,,,,,0,4,4,0,1,,,,,,,,,,,,,,,,,,,,,,,,,,,,,,,,,,,,,,,,,
204846,001,2022-11-21_24h55.05.108,Info_measure_main_exp,2022.2.2,Win32,60.19020104,,,,,,,,,,,,,,,,,,,,,,,,,,,,,,6,1.7166,1,,,,,,,,,,,,0,131,5,5,2274,2142,absent_patch/patch0002274.jpg,absent_patch/patch0002142.jpg,,,,,,,,,,,,,,,,,,,,0.103703746,0.053703697,1,0,0,response1disk,33,-0.003703718,-0.000925947,1,0,0,center_square,0,32,32,75,1,,,,,,,,,,,,,,,,,,,,,,,
204846,001,2022-11-21_24h55.05.108,Info_measure_main_exp,2022.2.2,Win32,60.19020104,,,,,,,,,,,,,,,,,,masks/mask_003.jpg,,,,,,,,,,,,,,,,,,,,,,,,,,,,,,,,,,,,,,,,,,,0,0,0,2,1,,,,,,,,,,,,,,,,,,,,,,,,,,,,,,,,,,,,,,,,,,,,,,
204846,001,2022-11-21_24h55.05.108,Info_measure_main_exp,2022.2.2,Win32,60.19020104,,,,,,,,,,,,,,,,,,masks/mask_004.jpg,,,,,,,,,,,,,,,,,,,,,,,,,,,,,,,,,,,,,,,,,,,0,1,1,3,1,,,,,,,,,,,,,,,,,,,,,,,,,,,,,,,,,,,,,,,,,,,,,,
204846,001,2022-11-21_24h55.05.108,Info_measure_main_exp,2022.2.2,Win32,60.19020104,,,,,,,,,,,,,,,,,,masks/mask_002.jpg,,,,,,,,,,,,,,,,,,,,,,,,,,,,,,,,,,,,,,,,,,,0,2,2,1,1,,,,,,,,,,,,,,,,,,,,,,,,,,,,,,,,,,,,,,,,,,,,,,
204846,001,2022-11-21_24h55.05.108,Info_measure_main_exp,2022.2.2,Win32,60.19020104,,,,,,,,,,,,,,,,,,masks/mask_001.jpg,,,,,,,,,,,,,,,,,,,,,,,,,,,,,,,,,,,,,,,,,,,0,3,3,0,1,,,,,,,,,,,,,,,,,,,,,,,,,,,,,,,,,,,,,,,,,,,,,,
204846,001,2022-11-21_24h55.05.108,Info_measure_main_exp,2022.2.2,Win32,60.19020104,,,,,,,,,,,,,,,,,,masks/mask_005.jpg,,,,,,,,,,,,,,,,,,,,,,,,,,,,,,,,,,,,,,,,,,,0,4,4,4,1,,,,,,,,,,,,,,,,,,,,,,,,,,,,,,,,,,,,,,,,,,,,,,
204846,001,2022-11-21_24h55.05.108,Info_measure_main_exp,2022.2.2,Win32,60.19020104,,,,,,,,,,,,,,,,,,masks/mask_005.jpg,,,,,,,,,,,,,,,,,,,,,,,,,,,,,,,,,,,,,,,,,,,,,,,,0,0,0,4,1,,,,,,,,,,,,,,,,,,,,,,,,,,,,,,,,,,,,,,,,,
204846,001,2022-11-21_24h55.05.108,Info_measure_main_exp,2022.2.2,Win32,60.19020104,,,,,,,,,,,,,,,,,,masks/mask_002.jpg,,,,,,,,,,,,,,,,,,,,,,,,,,,,,,,,,,,,,,,,,,,,,,,,0,1,1,1,1,,,,,,,,,,,,,,,,,,,,,,,,,,,,,,,,,,,,,,,,,
204846,001,2022-11-21_24h55.05.108,Info_measure_main_exp,2022.2.2,Win32,60.19020104,,,,,,,,,,,,,,,,,,masks/mask_004.jpg,,,,,,,,,,,,,,,,,,,,,,,,,,,,,,,,,,,,,,,,,,,,,,,,0,2,2,3,1,,,,,,,,,,,,,,,,,,,,,,,,,,,,,,,,,,,,,,,,,
204846,001,2022-11-21_24h55.05.108,Info_measure_main_exp,2022.2.2,Win32,60.19020104,,,,,,,,,,,,,,,,,,masks/mask_003.jpg,,,,,,,,,,,,,,,,,,,,,,,,,,,,,,,,,,,,,,,,,,,,,,,,0,3,3,2,1,,,,,,,,,,,,,,,,,,,,,,,,,,,,,,,,,,,,,,,,,
204846,001,2022-11-21_24h55.05.108,Info_measure_main_exp,2022.2.2,Win32,60.19020104,,,,,,,,,,,,,,,,,,masks/mask_001.jpg,,,,,,,,,,,,,,,,,,,,,,,,,,,,,,,,,,,,,,,,,,,,,,,,0,4,4,0,1,,,,,,,,,,,,,,,,,,,,,,,,,,,,,,,,,,,,,,,,,
204846,001,2022-11-21_24h55.05.108,Info_measure_main_exp,2022.2.2,Win32,60.19020104,,,,,,,,,,,,,,,,,,,,,,,,,,,,,,0,0.8004,1,,,,,,,,,,,,0,131,5,5,1950,1950,absent_patch/patch0001950.jpg,absent_patch/patch0001950.jpg,,,,,,,,,,,,,,,,,,,,-0.065740727,0.155555548,1,0,0,response7disk,34,0.001851894,0.005555541,1,0,0,center_square,0,33,33,92,1,,,,,,,,,,,,,,,,,,,,,,,
204846,001,2022-11-21_24h55.05.108,Info_measure_main_exp,2022.2.2,Win32,60.19020104,,,,,,,,,,,,,,,,,,masks/mask_003.jpg,,,,,,,,,,,,,,,,,,,,,,,,,,,,,,,,,,,,,,,,,,,0,0,0,2,1,,,,,,,,,,,,,,,,,,,,,,,,,,,,,,,,,,,,,,,,,,,,,,
204846,001,2022-11-21_24h55.05.108,Info_measure_main_exp,2022.2.2,Win32,60.19020104,,,,,,,,,,,,,,,,,,masks/mask_001.jpg,,,,,,,,,,,,,,,,,,,,,,,,,,,,,,,,,,,,,,,,,,,0,1,1,0,1,,,,,,,,,,,,,,,,,,,,,,,,,,,,,,,,,,,,,,,,,,,,,,
204846,001,2022-11-21_24h55.05.108,Info_measure_main_exp,2022.2.2,Win32,60.19020104,,,,,,,,,,,,,,,,,,masks/mask_005.jpg,,,,,,,,,,,,,,,,,,,,,,,,,,,,,,,,,,,,,,,,,,,0,2,2,4,1,,,,,,,,,,,,,,,,,,,,,,,,,,,,,,,,,,,,,,,,,,,,,,
204846,001,2022-11-21_24h55.05.108,Info_measure_main_exp,2022.2.2,Win32,60.19020104,,,,,,,,,,,,,,,,,,masks/mask_002.jpg,,,,,,,,,,,,,,,,,,,,,,,,,,,,,,,,,,,,,,,,,,,0,3,3,1,1,,,,,,,,,,,,,,,,,,,,,,,,,,,,,,,,,,,,,,,,,,,,,,
204846,001,2022-11-21_24h55.05.108,Info_measure_main_exp,2022.2.2,Win32,60.19020104,,,,,,,,,,,,,,,,,,masks/mask_004.jpg,,,,,,,,,,,,,,,,,,,,,,,,,,,,,,,,,,,,,,,,,,,0,4,4,3,1,,,,,,,,,,,,,,,,,,,,,,,,,,,,,,,,,,,,,,,,,,,,,,
204846,001,2022-11-21_24h55.05.108,Info_measure_main_exp,2022.2.2,Win32,60.19020104,,,,,,,,,,,,,,,,,,masks/mask_005.jpg,,,,,,,,,,,,,,,,,,,,,,,,,,,,,,,,,,,,,,,,,,,,,,,,0,0,0,4,1,,,,,,,,,,,,,,,,,,,,,,,,,,,,,,,,,,,,,,,,,
204846,001,2022-11-21_24h55.05.108,Info_measure_main_exp,2022.2.2,Win32,60.19020104,,,,,,,,,,,,,,,,,,masks/mask_002.jpg,,,,,,,,,,,,,,,,,,,,,,,,,,,,,,,,,,,,,,,,,,,,,,,,0,1,1,1,1,,,,,,,,,,,,,,,,,,,,,,,,,,,,,,,,,,,,,,,,,
204846,001,2022-11-21_24h55.05.108,Info_measure_main_exp,2022.2.2,Win32,60.19020104,,,,,,,,,,,,,,,,,,masks/mask_001.jpg,,,,,,,,,,,,,,,,,,,,,,,,,,,,,,,,,,,,,,,,,,,,,,,,0,2,2,0,1,,,,,,,,,,,,,,,,,,,,,,,,,,,,,,,,,,,,,,,,,
204846,001,2022-11-21_24h55.05.108,Info_measure_main_exp,2022.2.2,Win32,60.19020104,,,,,,,,,,,,,,,,,,masks/mask_004.jpg,,,,,,,,,,,,,,,,,,,,,,,,,,,,,,,,,,,,,,,,,,,,,,,,0,3,3,3,1,,,,,,,,,,,,,,,,,,,,,,,,,,,,,,,,,,,,,,,,,
