participant,session,date,expName,psychopyVersion,OS,frameRate,space_press_continue.keys,space_press_continue.rt,space_press_continue_2.keys,space_press_continue_2.rt,space_press_continue_3.keys,space_press_continue_3.rt,space_press_continue_4.keys,space_press_continue_4.rt,space_press_continue_5.keys,space_press_continue_5.rt,space_press_continue_6.keys,space_press_continue_6.rt,prac_mask_loop_1.thisRepN,prac_mask_loop_1.thisTrialN,prac_mask_loop_1.thisN,prac_mask_loop_1.thisIndex,prac_mask_loop_1.ran,mask_name,prac_mask_loop_2.thisRepN,prac_mask_loop_2.thisTrialN,prac_mask_loop_2.thisN,prac_mask_loop_2.thisIndex,prac_mask_loop_2.ran,mouse_2.x,mouse_2.y,mouse_2.leftButton,mouse_2.midButton,mouse_2.rightButton,mouse_2.clicked_name,similarity,response_time,Pass,mouse_12.x,mouse_12.y,mouse_12.leftButton,mouse_12.midButton,mouse_12.rightButton,mouse_12.clicked_name,prac_loop.thisRepN,prac_loop.thisTrialN,prac_loop.thisN,prac_loop.thisIndex,prac_loop.ran,Pair_type,Image_num,Patch_1_loc,Patch_2_loc,Patch_1_info,Patch_2_info,Patch_1_name,Patch_2_name,mouse_1.x,mouse_1.y,mouse_1.leftButton,mouse_1.midButton,mouse_1.rightButton,mouse_1.time,mouse_1.clicked_name,space_press_continue_7.keys,space_press_continue_7.rt,mask_loop.thisRepN,mask_loop.thisTrialN,mask_loop.thisN,mask_loop.thisIndex,mask_loop.ran,mask_loop_2.thisRepN,mask_loop_2.thisTrialN,mask_loop_2.thisN,mask_loop_2.thisIndex,mask_loop_2.ran,mouse.x,mouse.y,mouse.leftButton,mouse.midButton,mouse.rightButton,mouse.clicked_name,trialNumber,mouse_11.x,mouse_11.y,mouse_11.leftButton,mouse_11.midButton,mouse_11.rightButton,mouse_11.clicked_name,first_pass_loop.thisRepN,first_pass_loop.thisTrialN,first_pass_loop.thisN,first_pass_loop.thisIndex,first_pass_loop.ran
206642,001,2022-11-20_23h59.52.500,Info_measure_main_exp,2022.2.2,Linux x86_64,19.77848101,,,,,,,,,,,,,,,,,,,,,,,,,,,,,,,,,,,,,,,,,,,,,,,,,,,,,,,,,,,,,,,,,,,,,,,,,,,,,,,,,,,,,,,,
206642,001,2022-11-20_23h59.52.500,Info_measure_main_exp,2022.2.2,Linux x86_64,19.77848101,,,,,,,,,,,,,,,,,,,,,,,,,,,,,,,,,,,,,,,,,,,,,,,,,,,,,,,,,,,,,,,,,,,,,,,,,,,,,,,,,,,,,,,,
206642,001,2022-11-20_23h59.52.500,Info_measure_main_exp,2022.2.2,Linux x86_64,19.77848101,space,844.415,,,,,,,,,,,,,,,,,,,,,,,,,,,,,,,,,,,,,,,,,,,,,,,,,,,,,,,,,,,,,,,,,,,,,,,,,,,,,,,,,,,,,,
206642,001,2022-11-20_23h59.52.500,Info_measure_main_exp,2022.2.2,Linux x86_64,19.77848101,,,space,11.38,,,,,,,,,,,,,,,,,,,,,,,,,,,,,,,,,,,,,,,,,,,,,,,,,,,,,,,,,,,,,,,,,,,,,,,,,,,,,,,,,,,,
206642,001,2022-11-20_23h59.52.500,Info_measure_main_exp,2022.2.2,Linux x86_64,19.77848101,,,,,space,4.692,,,,,,,,,,,,,,,,,,,,,,,,,,,,,,,,,,,,,,,,,,,,,,,,,,,,,,,,,,,,,,,,,,,,,,,,,,,,,,,,,,
206642,001,2022-11-20_23h59.52.500,Info_measure_main_exp,2022.2.2,Linux x86_64,19.77848101,,,,,,,space,10.894,,,,,,,,,,,,,,,,,,,,,,,,,,,,,,,,,,,,,,,,,,,,,,,,,,,,,,,,,,,,,,,,,,,,,,,,,,,,,,,,
206642,001,2022-11-20_23h59.52.500,Info_measure_main_exp,2022.2.2,Linux x86_64,19.77848101,,,,,,,,,space,6.3,,,,,,,,,,,,,,,,,,,,,,,,,,,,,,,,,,,,,,,,,,,,,,,,,,,,,,,,,,,,,,,,,,,,,,,,,,,,,,
206642,001,2022-11-20_23h59.52.500,Info_measure_main_exp,2022.2.2,Linux x86_64,19.77848101,,,,,,,,,,,space,4.643,,,,,,,,,,,,,,,,,,,,,,,,,,,,,,,,,,,,,,,,,,,,,,,,,,,,,,,,,,,,,,,,,,,,,,,,,,,,
206642,001,2022-11-20_23h59.52.500,Info_measure_main_exp,2022.2.2,Linux x86_64,19.77848101,,,,,,,,,,,,,0,0,0,1,1,masks/mask_002.jpg,,,,,,,,,,,,,,,,,,,,,,,,,,,,,,,,,,,,,,,,,,,,,,,,,,,,,,,,,,,,,,,,,,,,,,
206642,001,2022-11-20_23h59.52.500,Info_measure_main_exp,2022.2.2,Linux x86_64,19.77848101,,,,,,,,,,,,,0,1,1,0,1,masks/mask_001.jpg,,,,,,,,,,,,,,,,,,,,,,,,,,,,,,,,,,,,,,,,,,,,,,,,,,,,,,,,,,,,,,,,,,,,,,
206642,001,2022-11-20_23h59.52.500,Info_measure_main_exp,2022.2.2,Linux x86_64,19.77848101,,,,,,,,,,,,,0,2,2,4,1,masks/mask_005.jpg,,,,,,,,,,,,,,,,,,,,,,,,,,,,,,,,,,,,,,,,,,,,,,,,,,,,,,,,,,,,,,,,,,,,,,
206642,001,2022-11-20_23h59.52.500,Info_measure_main_exp,2022.2.2,Linux x86_64,19.77848101,,,,,,,,,,,,,0,3,3,3,1,masks/mask_004.jpg,,,,,,,,,,,,,,,,,,,,,,,,,,,,,,,,,,,,,,,,,,,,,,,,,,,,,,,,,,,,,,,,,,,,,,
206642,001,2022-11-20_23h59.52.500,Info_measure_main_exp,2022.2.2,Linux x86_64,19.77848101,,,,,,,,,,,,,0,4,4,2,1,masks/mask_003.jpg,,,,,,,,,,,,,,,,,,,,,,,,,,,,,,,,,,,,,,,,,,,,,,,,,,,,,,,,,,,,,,,,,,,,,,
206642,001,2022-11-20_23h59.52.500,Info_measure_main_exp,2022.2.2,Linux x86_64,19.77848101,,,,,,,,,,,,,,,,,,masks/mask_005.jpg,0,0,0,4,1,,,,,,,,,,,,,,,,,,,,,,,,,,,,,,,,,,,,,,,,,,,,,,,,,,,,,,,,,,,,,,,,,
206642,001,2022-11-20_23h59.52.500,Info_measure_main_exp,2022.2.2,Linux x86_64,19.77848101,,,,,,,,,,,,,,,,,,masks/mask_003.jpg,0,1,1,2,1,,,,,,,,,,,,,,,,,,,,,,,,,,,,,,,,,,,,,,,,,,,,,,,,,,,,,,,,,,,,,,,,,
206642,001,2022-11-20_23h59.52.500,Info_measure_main_exp,2022.2.2,Linux x86_64,19.77848101,,,,,,,,,,,,,,,,,,masks/mask_001.jpg,0,2,2,0,1,,,,,,,,,,,,,,,,,,,,,,,,,,,,,,,,,,,,,,,,,,,,,,,,,,,,,,,,,,,,,,,,,
206642,001,2022-11-20_23h59.52.500,Info_measure_main_exp,2022.2.2,Linux x86_64,19.77848101,,,,,,,,,,,,,,,,,,masks/mask_002.jpg,0,3,3,1,1,,,,,,,,,,,,,,,,,,,,,,,,,,,,,,,,,,,,,,,,,,,,,,,,,,,,,,,,,,,,,,,,,
206642,001,2022-11-20_23h59.52.500,Info_measure_main_exp,2022.2.2,Linux x86_64,19.77848101,,,,,,,,,,,,,,,,,,masks/mask_004.jpg,0,4,4,3,1,,,,,,,,,,,,,,,,,,,,,,,,,,,,,,,,,,,,,,,,,,,,,,,,,,,,,,,,,,,,,,,,,
206642,001,2022-11-20_23h59.52.500,Info_measure_main_exp,2022.2.2,Linux x86_64,19.77848101,,,,,,,,,,,,,,,,,,,,,,,,0.07037037,0.091666667,1,0,0,response1disk,7,887.254,1,0.003015075,0.001507538,1,0,0,center_square,0,0,0,2,1,0,131,5,5,2526,2526,prac_patch/patch0002526.jpg,prac_patch/patch0002526.jpg,,,,,,,,,,,,,,,,,,,,,,,,,,,,,,,,,,,,,
206642,001,2022-11-20_23h59.52.500,Info_measure_main_exp,2022.2.2,Linux x86_64,19.77848101,,,,,,,,,,,,,0,0,0,1,1,masks/mask_002.jpg,,,,,,,,,,,,,,,,,,,,,,,,,,,,,,,,,,,,,,,,,,,,,,,,,,,,,,,,,,,,,,,,,,,,,,
206642,001,2022-11-20_23h59.52.500,Info_measure_main_exp,2022.2.2,Linux x86_64,19.77848101,,,,,,,,,,,,,0,1,1,3,1,masks/mask_004.jpg,,,,,,,,,,,,,,,,,,,,,,,,,,,,,,,,,,,,,,,,,,,,,,,,,,,,,,,,,,,,,,,,,,,,,,
206642,001,2022-11-20_23h59.52.500,Info_measure_main_exp,2022.2.2,Linux x86_64,19.77848101,,,,,,,,,,,,,0,2,2,0,1,masks/mask_001.jpg,,,,,,,,,,,,,,,,,,,,,,,,,,,,,,,,,,,,,,,,,,,,,,,,,,,,,,,,,,,,,,,,,,,,,,
206642,001,2022-11-20_23h59.52.500,Info_measure_main_exp,2022.2.2,Linux x86_64,19.77848101,,,,,,,,,,,,,0,3,3,2,1,masks/mask_003.jpg,,,,,,,,,,,,,,,,,,,,,,,,,,,,,,,,,,,,,,,,,,,,,,,,,,,,,,,,,,,,,,,,,,,,,,
206642,001,2022-11-20_23h59.52.500,Info_measure_main_exp,2022.2.2,Linux x86_64,19.77848101,,,,,,,,,,,,,0,4,4,4,1,masks/mask_005.jpg,,,,,,,,,,,,,,,,,,,,,,,,,,,,,,,,,,,,,,,,,,,,,,,,,,,,,,,,,,,,,,,,,,,,,,
206642,001,2022-11-20_23h59.52.500,Info_measure_main_exp,2022.2.2,Linux x86_64,19.77848101,,,,,,,,,,,,,,,,,,masks/mask_004.jpg,0,0,0,3,1,,,,,,,,,,,,,,,,,,,,,,,,,,,,,,,,,,,,,,,,,,,,,,,,,,,,,,,,,,,,,,,,,
206642,001,2022-11-20_23h59.52.500,Info_measure_main_exp,2022.2.2,Linux x86_64,19.77848101,,,,,,,,,,,,,,,,,,masks/mask_003.jpg,0,1,1,2,1,,,,,,,,,,,,,,,,,,,,,,,,,,,,,,,,,,,,,,,,,,,,,,,,,,,,,,,,,,,,,,,,,
206642,001,2022-11-20_23h59.52.500,Info_measure_main_exp,2022.2.2,Linux x86_64,19.77848101,,,,,,,,,,,,,,,,,,masks/mask_005.jpg,0,2,2,4,1,,,,,,,,,,,,,,,,,,,,,,,,,,,,,,,,,,,,,,,,,,,,,,,,,,,,,,,,,,,,,,,,,
206642,001,2022-11-20_23h59.52.500,Info_measure_main_exp,2022.2.2,Linux x86_64,19.77848101,,,,,,,,,,,,,,,,,,masks/mask_001.jpg,0,3,3,0,1,,,,,,,,,,,,,,,,,,,,,,,,,,,,,,,,,,,,,,,,,,,,,,,,,,,,,,,,,,,,,,,,,
206642,001,2022-11-20_23h59.52.500,Info_measure_main_exp,2022.2.2,Linux x86_64,19.77848101,,,,,,,,,,,,,,,,,,masks/mask_002.jpg,0,4,4,1,1,,,,,,,,,,,,,,,,,,,,,,,,,,,,,,,,,,,,,,,,,,,,,,,,,,,,,,,,,,,,,,,,,
206642,001,2022-11-20_23h59.52.500,Info_measure_main_exp,2022.2.2,Linux x86_64,19.77848101,,,,,,,,,,,,,,,,,,,,,,,,0.084422111,-0.124120603,1,0,0,response3disk,4,900.119,1,0.008040201,-0.003517588,1,0,0,center_square,0,1,1,0,1,0,131,5,5,2370,2406,prac_patch/patch0002370.jpg,prac_patch/patch0002406.jpg,,,,,,,,,,,,,,,,,,,,,,,,,,,,,,,,,,,,,
206642,001,2022-11-20_23h59.52.500,Info_measure_main_exp,2022.2.2,Linux x86_64,19.77848101,,,,,,,,,,,,,0,0,0,4,1,masks/mask_005.jpg,,,,,,,,,,,,,,,,,,,,,,,,,,,,,,,,,,,,,,,,,,,,,,,,,,,,,,,,,,,,,,,,,,,,,,
206642,001,2022-11-20_23h59.52.500,Info_measure_main_exp,2022.2.2,Linux x86_64,19.77848101,,,,,,,,,,,,,0,1,1,3,1,masks/mask_004.jpg,,,,,,,,,,,,,,,,,,,,,,,,,,,,,,,,,,,,,,,,,,,,,,,,,,,,,,,,,,,,,,,,,,,,,,
206642,001,2022-11-20_23h59.52.500,Info_measure_main_exp,2022.2.2,Linux x86_64,19.77848101,,,,,,,,,,,,,0,2,2,2,1,masks/mask_003.jpg,,,,,,,,,,,,,,,,,,,,,,,,,,,,,,,,,,,,,,,,,,,,,,,,,,,,,,,,,,,,,,,,,,,,,,
206642,001,2022-11-20_23h59.52.500,Info_measure_main_exp,2022.2.2,Linux x86_64,19.77848101,,,,,,,,,,,,,0,3,3,0,1,masks/mask_001.jpg,,,,,,,,,,,,,,,,,,,,,,,,,,,,,,,,,,,,,,,,,,,,,,,,,,,,,,,,,,,,,,,,,,,,,,
206642,001,2022-11-20_23h59.52.500,Info_measure_main_exp,2022.2.2,Linux x86_64,19.77848101,,,,,,,,,,,,,0,4,4,1,1,masks/mask_002.jpg,,,,,,,,,,,,,,,,,,,,,,,,,,,,,,,,,,,,,,,,,,,,,,,,,,,,,,,,,,,,,,,,,,,,,,
206642,001,2022-11-20_23h59.52.500,Info_measure_main_exp,2022.2.2,Linux x86_64,19.77848101,,,,,,,,,,,,,,,,,,masks/mask_002.jpg,0,0,0,1,1,,,,,,,,,,,,,,,,,,,,,,,,,,,,,,,,,,,,,,,,,,,,,,,,,,,,,,,,,,,,,,,,,
206642,001,2022-11-20_23h59.52.500,Info_measure_main_exp,2022.2.2,Linux x86_64,19.77848101,,,,,,,,,,,,,,,,,,masks/mask_004.jpg,0,1,1,3,1,,,,,,,,,,,,,,,,,,,,,,,,,,,,,,,,,,,,,,,,,,,,,,,,,,,,,,,,,,,,,,,,,
206642,001,2022-11-20_23h59.52.500,Info_measure_main_exp,2022.2.2,Linux x86_64,19.77848101,,,,,,,,,,,,,,,,,,masks/mask_005.jpg,0,2,2,4,1,,,,,,,,,,,,,,,,,,,,,,,,,,,,,,,,,,,,,,,,,,,,,,,,,,,,,,,,,,,,,,,,,
206642,001,2022-11-20_23h59.52.500,Info_measure_main_exp,2022.2.2,Linux x86_64,19.77848101,,,,,,,,,,,,,,,,,,masks/mask_003.jpg,0,3,3,2,1,,,,,,,,,,,,,,,,,,,,,,,,,,,,,,,,,,,,,,,,,,,,,,,,,,,,,,,,,,,,,,,,,
206642,001,2022-11-20_23h59.52.500,Info_measure_main_exp,2022.2.2,Linux x86_64,19.77848101,,,,,,,,,,,,,,,,,,masks/mask_001.jpg,0,4,4,0,1,,,,,,,,,,,,,,,,,,,,,,,,,,,,,,,,,,,,,,,,,,,,,,,,,,,,,,,,,,,,,,,,,
206642,001,2022-11-20_23h59.52.500,Info_measure_main_exp,2022.2.2,Linux x86_64,19.77848101,,,,,,,,,,,,,,,,,,,,,,,,0.129648241,-0.072864322,1,0,0,response3disk,5,912.406,1,-0.003015075,0.012562814,1,0,0,center_square,0,2,2,1,1,0,131,5,5,2514,2490,prac_patch/patch0002514.jpg,prac_patch/patch0002490.jpg,,,,,,,,,,,,,,,,,,,,,,,,,,,,,,,,,,,,,
206642,001,2022-11-20_23h59.52.500,Info_measure_main_exp,2022.2.2,Linux x86_64,19.77848101,,,,,,,,,,,,,,,,,,,,,,,,,,,,,,,,,,,,,,,,,,,,,,,,,,,,,,,,,,,space,1.38,,,,,,,,,,,,,,,,,,,,,,,,,,,,
206642,001,2022-11-20_23h59.52.500,Info_measure_main_exp,2022.2.2,Linux x86_64,19.77848101,,,,,,,,,,,,,,,,,,masks/mask_004.jpg,,,,,,,,,,,,,,,,,,,,,,,,,,,,,,,,,,,,,,,,,,,0,0,0,3,1,,,,,,,,,,,,,,,,,,,,,,,
206642,001,2022-11-20_23h59.52.500,Info_measure_main_exp,2022.2.2,Linux x86_64,19.77848101,,,,,,,,,,,,,,,,,,masks/mask_003.jpg,,,,,,,,,,,,,,,,,,,,,,,,,,,,,,,,,,,,,,,,,,,0,1,1,2,1,,,,,,,,,,,,,,,,,,,,,,,
206642,001,2022-11-20_23h59.52.500,Info_measure_main_exp,2022.2.2,Linux x86_64,19.77848101,,,,,,,,,,,,,,,,,,masks/mask_001.jpg,,,,,,,,,,,,,,,,,,,,,,,,,,,,,,,,,,,,,,,,,,,0,2,2,0,1,,,,,,,,,,,,,,,,,,,,,,,
206642,001,2022-11-20_23h59.52.500,Info_measure_main_exp,2022.2.2,Linux x86_64,19.77848101,,,,,,,,,,,,,,,,,,masks/mask_005.jpg,,,,,,,,,,,,,,,,,,,,,,,,,,,,,,,,,,,,,,,,,,,0,3,3,4,1,,,,,,,,,,,,,,,,,,,,,,,
206642,001,2022-11-20_23h59.52.500,Info_measure_main_exp,2022.2.2,Linux x86_64,19.77848101,,,,,,,,,,,,,,,,,,masks/mask_002.jpg,,,,,,,,,,,,,,,,,,,,,,,,,,,,,,,,,,,,,,,,,,,0,4,4,1,1,,,,,,,,,,,,,,,,,,,,,,,
206642,001,2022-11-20_23h59.52.500,Info_measure_main_exp,2022.2.2,Linux x86_64,19.77848101,,,,,,,,,,,,,,,,,,masks/mask_002.jpg,,,,,,,,,,,,,,,,,,,,,,,,,,,,,,,,,,,,,,,,,,,,,,,,0,0,0,1,1,,,,,,,,,,,,,,,,,,
206642,001,2022-11-20_23h59.52.500,Info_measure_main_exp,2022.2.2,Linux x86_64,19.77848101,,,,,,,,,,,,,,,,,,masks/mask_004.jpg,,,,,,,,,,,,,,,,,,,,,,,,,,,,,,,,,,,,,,,,,,,,,,,,0,1,1,3,1,,,,,,,,,,,,,,,,,,
206642,001,2022-11-20_23h59.52.500,Info_measure_main_exp,2022.2.2,Linux x86_64,19.77848101,,,,,,,,,,,,,,,,,,masks/mask_003.jpg,,,,,,,,,,,,,,,,,,,,,,,,,,,,,,,,,,,,,,,,,,,,,,,,0,2,2,2,1,,,,,,,,,,,,,,,,,,
206642,001,2022-11-20_23h59.52.500,Info_measure_main_exp,2022.2.2,Linux x86_64,19.77848101,,,,,,,,,,,,,,,,,,masks/mask_001.jpg,,,,,,,,,,,,,,,,,,,,,,,,,,,,,,,,,,,,,,,,,,,,,,,,0,3,3,0,1,,,,,,,,,,,,,,,,,,
206642,001,2022-11-20_23h59.52.500,Info_measure_main_exp,2022.2.2,Linux x86_64,19.77848101,,,,,,,,,,,,,,,,,,masks/mask_005.jpg,,,,,,,,,,,,,,,,,,,,,,,,,,,,,,,,,,,,,,,,,,,,,,,,0,4,4,4,1,,,,,,,,,,,,,,,,,,
206642,001,2022-11-20_23h59.52.500,Info_measure_main_exp,2022.2.2,Linux x86_64,19.77848101,,,,,,,,,,,,,,,,,,,,,,,,,,,,,,3,3.375,1,,,,,,,,,,,,1,131,5,5,2238,1,absent_patch/patch0002238.jpg,present_patch/cong_131_5_a.jpg,,,,,,,,,,,,,,,,,,,,-0.001005025,-0.053768844,1,0,0,response5disk,1,0.013065327,0.001507538,1,0,0,center_square,0,0,0,104,1
206642,001,2022-11-20_23h59.52.500,Info_measure_main_exp,2022.2.2,Linux x86_64,19.77848101,,,,,,,,,,,,,,,,,,masks/mask_003.jpg,,,,,,,,,,,,,,,,,,,,,,,,,,,,,,,,,,,,,,,,,,,0,0,0,2,1,,,,,,,,,,,,,,,,,,,,,,,
206642,001,2022-11-20_23h59.52.500,Info_measure_main_exp,2022.2.2,Linux x86_64,19.77848101,,,,,,,,,,,,,,,,,,masks/mask_004.jpg,,,,,,,,,,,,,,,,,,,,,,,,,,,,,,,,,,,,,,,,,,,0,1,1,3,1,,,,,,,,,,,,,,,,,,,,,,,
206642,001,2022-11-20_23h59.52.500,Info_measure_main_exp,2022.2.2,Linux x86_64,19.77848101,,,,,,,,,,,,,,,,,,masks/mask_005.jpg,,,,,,,,,,,,,,,,,,,,,,,,,,,,,,,,,,,,,,,,,,,0,2,2,4,1,,,,,,,,,,,,,,,,,,,,,,,
206642,001,2022-11-20_23h59.52.500,Info_measure_main_exp,2022.2.2,Linux x86_64,19.77848101,,,,,,,,,,,,,,,,,,masks/mask_001.jpg,,,,,,,,,,,,,,,,,,,,,,,,,,,,,,,,,,,,,,,,,,,0,3,3,0,1,,,,,,,,,,,,,,,,,,,,,,,
206642,001,2022-11-20_23h59.52.500,Info_measure_main_exp,2022.2.2,Linux x86_64,19.77848101,,,,,,,,,,,,,,,,,,masks/mask_002.jpg,,,,,,,,,,,,,,,,,,,,,,,,,,,,,,,,,,,,,,,,,,,0,4,4,1,1,,,,,,,,,,,,,,,,,,,,,,,
206642,001,2022-11-20_23h59.52.500,Info_measure_main_exp,2022.2.2,Linux x86_64,19.77848101,,,,,,,,,,,,,,,,,,masks/mask_001.jpg,,,,,,,,,,,,,,,,,,,,,,,,,,,,,,,,,,,,,,,,,,,,,,,,0,0,0,0,1,,,,,,,,,,,,,,,,,,
206642,001,2022-11-20_23h59.52.500,Info_measure_main_exp,2022.2.2,Linux x86_64,19.77848101,,,,,,,,,,,,,,,,,,masks/mask_004.jpg,,,,,,,,,,,,,,,,,,,,,,,,,,,,,,,,,,,,,,,,,,,,,,,,0,1,1,3,1,,,,,,,,,,,,,,,,,,
206642,001,2022-11-20_23h59.52.500,Info_measure_main_exp,2022.2.2,Linux x86_64,19.77848101,,,,,,,,,,,,,,,,,,masks/mask_003.jpg,,,,,,,,,,,,,,,,,,,,,,,,,,,,,,,,,,,,,,,,,,,,,,,,0,2,2,2,1,,,,,,,,,,,,,,,,,,
206642,001,2022-11-20_23h59.52.500,Info_measure_main_exp,2022.2.2,Linux x86_64,19.77848101,,,,,,,,,,,,,,,,,,masks/mask_005.jpg,,,,,,,,,,,,,,,,,,,,,,,,,,,,,,,,,,,,,,,,,,,,,,,,0,3,3,4,1,,,,,,,,,,,,,,,,,,
206642,001,2022-11-20_23h59.52.500,Info_measure_main_exp,2022.2.2,Linux x86_64,19.77848101,,,,,,,,,,,,,,,,,,masks/mask_002.jpg,,,,,,,,,,,,,,,,,,,,,,,,,,,,,,,,,,,,,,,,,,,,,,,,0,4,4,1,1,,,,,,,,,,,,,,,,,,
206642,001,2022-11-20_23h59.52.500,Info_measure_main_exp,2022.2.2,Linux x86_64,19.77848101,,,,,,,,,,,,,,,,,,,,,,,,,,,,,,3,2.611,1,,,,,,,,,,,,1,131,5,5,1,2274,present_patch/cong_131_5_a.jpg,absent_patch/patch0002274.jpg,,,,,,,,,,,,,,,,,,,,-0.056281407,-0.134170854,1,0,0,response5disk,2,-0.007035176,-0.012562814,1,0,0,center_square,0,1,1,105,1
206642,001,2022-11-20_23h59.52.500,Info_measure_main_exp,2022.2.2,Linux x86_64,19.77848101,,,,,,,,,,,,,,,,,,masks/mask_004.jpg,,,,,,,,,,,,,,,,,,,,,,,,,,,,,,,,,,,,,,,,,,,0,0,0,3,1,,,,,,,,,,,,,,,,,,,,,,,
206642,001,2022-11-20_23h59.52.500,Info_measure_main_exp,2022.2.2,Linux x86_64,19.77848101,,,,,,,,,,,,,,,,,,masks/mask_002.jpg,,,,,,,,,,,,,,,,,,,,,,,,,,,,,,,,,,,,,,,,,,,0,1,1,1,1,,,,,,,,,,,,,,,,,,,,,,,
206642,001,2022-11-20_23h59.52.500,Info_measure_main_exp,2022.2.2,Linux x86_64,19.77848101,,,,,,,,,,,,,,,,,,masks/mask_001.jpg,,,,,,,,,,,,,,,,,,,,,,,,,,,,,,,,,,,,,,,,,,,0,2,2,0,1,,,,,,,,,,,,,,,,,,,,,,,
206642,001,2022-11-20_23h59.52.500,Info_measure_main_exp,2022.2.2,Linux x86_64,19.77848101,,,,,,,,,,,,,,,,,,masks/mask_003.jpg,,,,,,,,,,,,,,,,,,,,,,,,,,,,,,,,,,,,,,,,,,,0,3,3,2,1,,,,,,,,,,,,,,,,,,,,,,,
206642,001,2022-11-20_23h59.52.500,Info_measure_main_exp,2022.2.2,Linux x86_64,19.77848101,,,,,,,,,,,,,,,,,,masks/mask_005.jpg,,,,,,,,,,,,,,,,,,,,,,,,,,,,,,,,,,,,,,,,,,,0,4,4,4,1,,,,,,,,,,,,,,,,,,,,,,,
206642,001,2022-11-20_23h59.52.500,Info_measure_main_exp,2022.2.2,Linux x86_64,19.77848101,,,,,,,,,,,,,,,,,,masks/mask_002.jpg,,,,,,,,,,,,,,,,,,,,,,,,,,,,,,,,,,,,,,,,,,,,,,,,0,0,0,1,1,,,,,,,,,,,,,,,,,,
206642,001,2022-11-20_23h59.52.500,Info_measure_main_exp,2022.2.2,Linux x86_64,19.77848101,,,,,,,,,,,,,,,,,,masks/mask_001.jpg,,,,,,,,,,,,,,,,,,,,,,,,,,,,,,,,,,,,,,,,,,,,,,,,0,1,1,0,1,,,,,,,,,,,,,,,,,,
206642,001,2022-11-20_23h59.52.500,Info_measure_main_exp,2022.2.2,Linux x86_64,19.77848101,,,,,,,,,,,,,,,,,,masks/mask_005.jpg,,,,,,,,,,,,,,,,,,,,,,,,,,,,,,,,,,,,,,,,,,,,,,,,0,2,2,4,1,,,,,,,,,,,,,,,,,,
206642,001,2022-11-20_23h59.52.500,Info_measure_main_exp,2022.2.2,Linux x86_64,19.77848101,,,,,,,,,,,,,,,,,,masks/mask_004.jpg,,,,,,,,,,,,,,,,,,,,,,,,,,,,,,,,,,,,,,,,,,,,,,,,0,3,3,3,1,,,,,,,,,,,,,,,,,,
206642,001,2022-11-20_23h59.52.500,Info_measure_main_exp,2022.2.2,Linux x86_64,19.77848101,,,,,,,,,,,,,,,,,,masks/mask_003.jpg,,,,,,,,,,,,,,,,,,,,,,,,,,,,,,,,,,,,,,,,,,,,,,,,0,4,4,2,1,,,,,,,,,,,,,,,,,,
206642,001,2022-11-20_23h59.52.500,Info_measure_main_exp,2022.2.2,Linux x86_64,19.77848101,,,,,,,,,,,,,,,,,,,,,,,,,,,,,,7,1.168,1,,,,,,,,,,,,0,131,5,5,2274,2142,absent_patch/patch0002274.jpg,absent_patch/patch0002142.jpg,,,,,,,,,,,,,,,,,,,,0.055276382,0.160301508,1,0,0,response1disk,3,0.009045226,-0.005527638,1,0,0,center_square,0,2,2,75,1
206642,001,2022-11-20_23h59.52.500,Info_measure_main_exp,2022.2.2,Linux x86_64,19.77848101,,,,,,,,,,,,,,,,,,masks/mask_003.jpg,,,,,,,,,,,,,,,,,,,,,,,,,,,,,,,,,,,,,,,,,,,0,0,0,2,1,,,,,,,,,,,,,,,,,,,,,,,
206642,001,2022-11-20_23h59.52.500,Info_measure_main_exp,2022.2.2,Linux x86_64,19.77848101,,,,,,,,,,,,,,,,,,masks/mask_002.jpg,,,,,,,,,,,,,,,,,,,,,,,,,,,,,,,,,,,,,,,,,,,0,1,1,1,1,,,,,,,,,,,,,,,,,,,,,,,
206642,001,2022-11-20_23h59.52.500,Info_measure_main_exp,2022.2.2,Linux x86_64,19.77848101,,,,,,,,,,,,,,,,,,masks/mask_004.jpg,,,,,,,,,,,,,,,,,,,,,,,,,,,,,,,,,,,,,,,,,,,0,2,2,3,1,,,,,,,,,,,,,,,,,,,,,,,
206642,001,2022-11-20_23h59.52.500,Info_measure_main_exp,2022.2.2,Linux x86_64,19.77848101,,,,,,,,,,,,,,,,,,masks/mask_001.jpg,,,,,,,,,,,,,,,,,,,,,,,,,,,,,,,,,,,,,,,,,,,0,3,3,0,1,,,,,,,,,,,,,,,,,,,,,,,
206642,001,2022-11-20_23h59.52.500,Info_measure_main_exp,2022.2.2,Linux x86_64,19.77848101,,,,,,,,,,,,,,,,,,masks/mask_005.jpg,,,,,,,,,,,,,,,,,,,,,,,,,,,,,,,,,,,,,,,,,,,0,4,4,4,1,,,,,,,,,,,,,,,,,,,,,,,
206642,001,2022-11-20_23h59.52.500,Info_measure_main_exp,2022.2.2,Linux x86_64,19.77848101,,,,,,,,,,,,,,,,,,masks/mask_004.jpg,,,,,,,,,,,,,,,,,,,,,,,,,,,,,,,,,,,,,,,,,,,,,,,,0,0,0,3,1,,,,,,,,,,,,,,,,,,
206642,001,2022-11-20_23h59.52.500,Info_measure_main_exp,2022.2.2,Linux x86_64,19.77848101,,,,,,,,,,,,,,,,,,masks/mask_005.jpg,,,,,,,,,,,,,,,,,,,,,,,,,,,,,,,,,,,,,,,,,,,,,,,,0,1,1,4,1,,,,,,,,,,,,,,,,,,
206642,001,2022-11-20_23h59.52.500,Info_measure_main_exp,2022.2.2,Linux x86_64,19.77848101,,,,,,,,,,,,,,,,,,masks/mask_001.jpg,,,,,,,,,,,,,,,,,,,,,,,,,,,,,,,,,,,,,,,,,,,,,,,,0,2,2,0,1,,,,,,,,,,,,,,,,,,
206642,001,2022-11-20_23h59.52.500,Info_measure_main_exp,2022.2.2,Linux x86_64,19.77848101,,,,,,,,,,,,,,,,,,masks/mask_003.jpg,,,,,,,,,,,,,,,,,,,,,,,,,,,,,,,,,,,,,,,,,,,,,,,,0,3,3,2,1,,,,,,,,,,,,,,,,,,
206642,001,2022-11-20_23h59.52.500,Info_measure_main_exp,2022.2.2,Linux x86_64,19.77848101,,,,,,,,,,,,,,,,,,masks/mask_002.jpg,,,,,,,,,,,,,,,,,,,,,,,,,,,,,,,,,,,,,,,,,,,,,,,,0,4,4,1,1,,,,,,,,,,,,,,,,,,
206642,001,2022-11-20_23h59.52.500,Info_measure_main_exp,2022.2.2,Linux x86_64,19.77848101,,,,,,,,,,,,,,,,,,,,,,,,,,,,,,7,1.169,1,,,,,,,,,,,,0,131,5,5,2142,2190,absent_patch/patch0002142.jpg,absent_patch/patch0002190.jpg,,,,,,,,,,,,,,,,,,,,0.047236181,0.105025126,1,0,0,response1disk,4,-0.006030151,-0.006532663,1,0,0,center_square,0,3,3,70,1
206642,001,2022-11-20_23h59.52.500,Info_measure_main_exp,2022.2.2,Linux x86_64,19.77848101,,,,,,,,,,,,,,,,,,masks/mask_001.jpg,,,,,,,,,,,,,,,,,,,,,,,,,,,,,,,,,,,,,,,,,,,0,0,0,0,1,,,,,,,,,,,,,,,,,,,,,,,
206642,001,2022-11-20_23h59.52.500,Info_measure_main_exp,2022.2.2,Linux x86_64,19.77848101,,,,,,,,,,,,,,,,,,masks/mask_004.jpg,,,,,,,,,,,,,,,,,,,,,,,,,,,,,,,,,,,,,,,,,,,0,1,1,3,1,,,,,,,,,,,,,,,,,,,,,,,
206642,001,2022-11-20_23h59.52.500,Info_measure_main_exp,2022.2.2,Linux x86_64,19.77848101,,,,,,,,,,,,,,,,,,masks/mask_003.jpg,,,,,,,,,,,,,,,,,,,,,,,,,,,,,,,,,,,,,,,,,,,0,2,2,2,1,,,,,,,,,,,,,,,,,,,,,,,
206642,001,2022-11-20_23h59.52.500,Info_measure_main_exp,2022.2.2,Linux x86_64,19.77848101,,,,,,,,,,,,,,,,,,masks/mask_005.jpg,,,,,,,,,,,,,,,,,,,,,,,,,,,,,,,,,,,,,,,,,,,0,3,3,4,1,,,,,,,,,,,,,,,,,,,,,,,
206642,001,2022-11-20_23h59.52.500,Info_measure_main_exp,2022.2.2,Linux x86_64,19.77848101,,,,,,,,,,,,,,,,,,masks/mask_002.jpg,,,,,,,,,,,,,,,,,,,,,,,,,,,,,,,,,,,,,,,,,,,0,4,4,1,1,,,,,,,,,,,,,,,,,,,,,,,
206642,001,2022-11-20_23h59.52.500,Info_measure_main_exp,2022.2.2,Linux x86_64,19.77848101,,,,,,,,,,,,,,,,,,masks/mask_004.jpg,,,,,,,,,,,,,,,,,,,,,,,,,,,,,,,,,,,,,,,,,,,,,,,,0,0,0,3,1,,,,,,,,,,,,,,,,,,
206642,001,2022-11-20_23h59.52.500,Info_measure_main_exp,2022.2.2,Linux x86_64,19.77848101,,,,,,,,,,,,,,,,,,masks/mask_002.jpg,,,,,,,,,,,,,,,,,,,,,,,,,,,,,,,,,,,,,,,,,,,,,,,,0,1,1,1,1,,,,,,,,,,,,,,,,,,
206642,001,2022-11-20_23h59.52.500,Info_measure_main_exp,2022.2.2,Linux x86_64,19.77848101,,,,,,,,,,,,,,,,,,masks/mask_001.jpg,,,,,,,,,,,,,,,,,,,,,,,,,,,,,,,,,,,,,,,,,,,,,,,,0,2,2,0,1,,,,,,,,,,,,,,,,,,
206642,001,2022-11-20_23h59.52.500,Info_measure_main_exp,2022.2.2,Linux x86_64,19.77848101,,,,,,,,,,,,,,,,,,masks/mask_003.jpg,,,,,,,,,,,,,,,,,,,,,,,,,,,,,,,,,,,,,,,,,,,,,,,,0,3,3,2,1,,,,,,,,,,,,,,,,,,
206642,001,2022-11-20_23h59.52.500,Info_measure_main_exp,2022.2.2,Linux x86_64,19.77848101,,,,,,,,,,,,,,,,,,masks/mask_005.jpg,,,,,,,,,,,,,,,,,,,,,,,,,,,,,,,,,,,,,,,,,,,,,,,,0,4,4,4,1,,,,,,,,,,,,,,,,,,
206642,001,2022-11-20_23h59.52.500,Info_measure_main_exp,2022.2.2,Linux x86_64,19.77848101,,,,,,,,,,,,,,,,,,,,,,,,,,,,,,7,0.92,1,,,,,,,,,,,,0,131,5,5,2154,2298,absent_patch/patch0002154.jpg,absent_patch/patch0002298.jpg,,,,,,,,,,,,,,,,,,,,0.033165829,0.090954774,1,0,0,response1disk,5,-0.001005025,0.003517588,1,0,0,center_square,0,4,4,27,1
206642,001,2022-11-20_23h59.52.500,Info_measure_main_exp,2022.2.2,Linux x86_64,19.77848101,,,,,,,,,,,,,,,,,,masks/mask_005.jpg,,,,,,,,,,,,,,,,,,,,,,,,,,,,,,,,,,,,,,,,,,,0,0,0,4,1,,,,,,,,,,,,,,,,,,,,,,,
206642,001,2022-11-20_23h59.52.500,Info_measure_main_exp,2022.2.2,Linux x86_64,19.77848101,,,,,,,,,,,,,,,,,,masks/mask_001.jpg,,,,,,,,,,,,,,,,,,,,,,,,,,,,,,,,,,,,,,,,,,,0,1,1,0,1,,,,,,,,,,,,,,,,,,,,,,,
206642,001,2022-11-20_23h59.52.500,Info_measure_main_exp,2022.2.2,Linux x86_64,19.77848101,,,,,,,,,,,,,,,,,,masks/mask_002.jpg,,,,,,,,,,,,,,,,,,,,,,,,,,,,,,,,,,,,,,,,,,,0,2,2,1,1,,,,,,,,,,,,,,,,,,,,,,,
206642,001,2022-11-20_23h59.52.500,Info_measure_main_exp,2022.2.2,Linux x86_64,19.77848101,,,,,,,,,,,,,,,,,,masks/mask_004.jpg,,,,,,,,,,,,,,,,,,,,,,,,,,,,,,,,,,,,,,,,,,,0,3,3,3,1,,,,,,,,,,,,,,,,,,,,,,,
206642,001,2022-11-20_23h59.52.500,Info_measure_main_exp,2022.2.2,Linux x86_64,19.77848101,,,,,,,,,,,,,,,,,,masks/mask_003.jpg,,,,,,,,,,,,,,,,,,,,,,,,,,,,,,,,,,,,,,,,,,,0,4,4,2,1,,,,,,,,,,,,,,,,,,,,,,,
206642,001,2022-11-20_23h59.52.500,Info_measure_main_exp,2022.2.2,Linux x86_64,19.77848101,,,,,,,,,,,,,,,,,,masks/mask_005.jpg,,,,,,,,,,,,,,,,,,,,,,,,,,,,,,,,,,,,,,,,,,,,,,,,0,0,0,4,1,,,,,,,,,,,,,,,,,,
206642,001,2022-11-20_23h59.52.500,Info_measure_main_exp,2022.2.2,Linux x86_64,19.77848101,,,,,,,,,,,,,,,,,,masks/mask_002.jpg,,,,,,,,,,,,,,,,,,,,,,,,,,,,,,,,,,,,,,,,,,,,,,,,0,1,1,1,1,,,,,,,,,,,,,,,,,,
206642,001,2022-11-20_23h59.52.500,Info_measure_main_exp,2022.2.2,Linux x86_64,19.77848101,,,,,,,,,,,,,,,,,,masks/mask_001.jpg,,,,,,,,,,,,,,,,,,,,,,,,,,,,,,,,,,,,,,,,,,,,,,,,0,2,2,0,1,,,,,,,,,,,,,,,,,,
206642,001,2022-11-20_23h59.52.500,Info_measure_main_exp,2022.2.2,Linux x86_64,19.77848101,,,,,,,,,,,,,,,,,,masks/mask_003.jpg,,,,,,,,,,,,,,,,,,,,,,,,,,,,,,,,,,,,,,,,,,,,,,,,0,3,3,2,1,,,,,,,,,,,,,,,,,,
206642,001,2022-11-20_23h59.52.500,Info_measure_main_exp,2022.2.2,Linux x86_64,19.77848101,,,,,,,,,,,,,,,,,,masks/mask_004.jpg,,,,,,,,,,,,,,,,,,,,,,,,,,,,,,,,,,,,,,,,,,,,,,,,0,4,4,3,1,,,,,,,,,,,,,,,,,,
206642,001,2022-11-20_23h59.52.500,Info_measure_main_exp,2022.2.2,Linux x86_64,19.77848101,,,,,,,,,,,,,,,,,,,,,,,,,,,,,,7,0.739,1,,,,,,,,,,,,0,131,5,5,2142,2154,absent_patch/patch0002142.jpg,absent_patch/patch0002154.jpg,,,,,,,,,,,,,,,,,,,,0.046231156,0.089949749,1,0,0,response1disk,6,0.004020101,0.006532663,1,0,0,center_square,0,5,5,9,1
206642,001,2022-11-20_23h59.52.500,Info_measure_main_exp,2022.2.2,Linux x86_64,19.77848101,,,,,,,,,,,,,,,,,,masks/mask_005.jpg,,,,,,,,,,,,,,,,,,,,,,,,,,,,,,,,,,,,,,,,,,,0,0,0,4,1,,,,,,,,,,,,,,,,,,,,,,,
206642,001,2022-11-20_23h59.52.500,Info_measure_main_exp,2022.2.2,Linux x86_64,19.77848101,,,,,,,,,,,,,,,,,,masks/mask_002.jpg,,,,,,,,,,,,,,,,,,,,,,,,,,,,,,,,,,,,,,,,,,,0,1,1,1,1,,,,,,,,,,,,,,,,,,,,,,,
206642,001,2022-11-20_23h59.52.500,Info_measure_main_exp,2022.2.2,Linux x86_64,19.77848101,,,,,,,,,,,,,,,,,,masks/mask_001.jpg,,,,,,,,,,,,,,,,,,,,,,,,,,,,,,,,,,,,,,,,,,,0,2,2,0,1,,,,,,,,,,,,,,,,,,,,,,,
206642,001,2022-11-20_23h59.52.500,Info_measure_main_exp,2022.2.2,Linux x86_64,19.77848101,,,,,,,,,,,,,,,,,,masks/mask_003.jpg,,,,,,,,,,,,,,,,,,,,,,,,,,,,,,,,,,,,,,,,,,,0,3,3,2,1,,,,,,,,,,,,,,,,,,,,,,,
206642,001,2022-11-20_23h59.52.500,Info_measure_main_exp,2022.2.2,Linux x86_64,19.77848101,,,,,,,,,,,,,,,,,,masks/mask_004.jpg,,,,,,,,,,,,,,,,,,,,,,,,,,,,,,,,,,,,,,,,,,,0,4,4,3,1,,,,,,,,,,,,,,,,,,,,,,,
206642,001,2022-11-20_23h59.52.500,Info_measure_main_exp,2022.2.2,Linux x86_64,19.77848101,,,,,,,,,,,,,,,,,,masks/mask_001.jpg,,,,,,,,,,,,,,,,,,,,,,,,,,,,,,,,,,,,,,,,,,,,,,,,0,0,0,0,1,,,,,,,,,,,,,,,,,,
206642,001,2022-11-20_23h59.52.500,Info_measure_main_exp,2022.2.2,Linux x86_64,19.77848101,,,,,,,,,,,,,,,,,,masks/mask_005.jpg,,,,,,,,,,,,,,,,,,,,,,,,,,,,,,,,,,,,,,,,,,,,,,,,0,1,1,4,1,,,,,,,,,,,,,,,,,,
206642,001,2022-11-20_23h59.52.500,Info_measure_main_exp,2022.2.2,Linux x86_64,19.77848101,,,,,,,,,,,,,,,,,,masks/mask_003.jpg,,,,,,,,,,,,,,,,,,,,,,,,,,,,,,,,,,,,,,,,,,,,,,,,0,2,2,2,1,,,,,,,,,,,,,,,,,,
206642,001,2022-11-20_23h59.52.500,Info_measure_main_exp,2022.2.2,Linux x86_64,19.77848101,,,,,,,,,,,,,,,,,,masks/mask_002.jpg,,,,,,,,,,,,,,,,,,,,,,,,,,,,,,,,,,,,,,,,,,,,,,,,0,3,3,1,1,,,,,,,,,,,,,,,,,,
206642,001,2022-11-20_23h59.52.500,Info_measure_main_exp,2022.2.2,Linux x86_64,19.77848101,,,,,,,,,,,,,,,,,,masks/mask_004.jpg,,,,,,,,,,,,,,,,,,,,,,,,,,,,,,,,,,,,,,,,,,,,,,,,0,4,4,3,1,,,,,,,,,,,,,,,,,,
206642,001,2022-11-20_23h59.52.500,Info_measure_main_exp,2022.2.2,Linux x86_64,19.77848101,,,,,,,,,,,,,,,,,,,,,,,,,,,,,,7,0.62,1,,,,,,,,,,,,0,131,5,5,2250,1986,absent_patch/patch0002250.jpg,absent_patch/patch0001986.jpg,,,,,,,,,,,,,,,,,,,,0.040201005,0.061809045,1,0,0,response1disk,7,0.014070352,0.001507538,1,0,0,center_square,0,6,6,29,1
206642,001,2022-11-20_23h59.52.500,Info_measure_main_exp,2022.2.2,Linux x86_64,19.77848101,,,,,,,,,,,,,,,,,,masks/mask_004.jpg,,,,,,,,,,,,,,,,,,,,,,,,,,,,,,,,,,,,,,,,,,,0,0,0,3,1,,,,,,,,,,,,,,,,,,,,,,,
206642,001,2022-11-20_23h59.52.500,Info_measure_main_exp,2022.2.2,Linux x86_64,19.77848101,,,,,,,,,,,,,,,,,,masks/mask_002.jpg,,,,,,,,,,,,,,,,,,,,,,,,,,,,,,,,,,,,,,,,,,,0,1,1,1,1,,,,,,,,,,,,,,,,,,,,,,,
206642,001,2022-11-20_23h59.52.500,Info_measure_main_exp,2022.2.2,Linux x86_64,19.77848101,,,,,,,,,,,,,,,,,,masks/mask_005.jpg,,,,,,,,,,,,,,,,,,,,,,,,,,,,,,,,,,,,,,,,,,,0,2,2,4,1,,,,,,,,,,,,,,,,,,,,,,,
206642,001,2022-11-20_23h59.52.500,Info_measure_main_exp,2022.2.2,Linux x86_64,19.77848101,,,,,,,,,,,,,,,,,,masks/mask_001.jpg,,,,,,,,,,,,,,,,,,,,,,,,,,,,,,,,,,,,,,,,,,,0,3,3,0,1,,,,,,,,,,,,,,,,,,,,,,,
206642,001,2022-11-20_23h59.52.500,Info_measure_main_exp,2022.2.2,Linux x86_64,19.77848101,,,,,,,,,,,,,,,,,,masks/mask_003.jpg,,,,,,,,,,,,,,,,,,,,,,,,,,,,,,,,,,,,,,,,,,,0,4,4,2,1,,,,,,,,,,,,,,,,,,,,,,,
206642,001,2022-11-20_23h59.52.500,Info_measure_main_exp,2022.2.2,Linux x86_64,19.77848101,,,,,,,,,,,,,,,,,,masks/mask_003.jpg,,,,,,,,,,,,,,,,,,,,,,,,,,,,,,,,,,,,,,,,,,,,,,,,0,0,0,2,1,,,,,,,,,,,,,,,,,,
206642,001,2022-11-20_23h59.52.500,Info_measure_main_exp,2022.2.2,Linux x86_64,19.77848101,,,,,,,,,,,,,,,,,,masks/mask_002.jpg,,,,,,,,,,,,,,,,,,,,,,,,,,,,,,,,,,,,,,,,,,,,,,,,0,1,1,1,1,,,,,,,,,,,,,,,,,,
206642,001,2022-11-20_23h59.52.500,Info_measure_main_exp,2022.2.2,Linux x86_64,19.77848101,,,,,,,,,,,,,,,,,,masks/mask_004.jpg,,,,,,,,,,,,,,,,,,,,,,,,,,,,,,,,,,,,,,,,,,,,,,,,0,2,2,3,1,,,,,,,,,,,,,,,,,,
206642,001,2022-11-20_23h59.52.500,Info_measure_main_exp,2022.2.2,Linux x86_64,19.77848101,,,,,,,,,,,,,,,,,,masks/mask_001.jpg,,,,,,,,,,,,,,,,,,,,,,,,,,,,,,,,,,,,,,,,,,,,,,,,0,3,3,0,1,,,,,,,,,,,,,,,,,,
206642,001,2022-11-20_23h59.52.500,Info_measure_main_exp,2022.2.2,Linux x86_64,19.77848101,,,,,,,,,,,,,,,,,,masks/mask_005.jpg,,,,,,,,,,,,,,,,,,,,,,,,,,,,,,,,,,,,,,,,,,,,,,,,0,4,4,4,1,,,,,,,,,,,,,,,,,,
206642,001,2022-11-20_23h59.52.500,Info_measure_main_exp,2022.2.2,Linux x86_64,19.77848101,,,,,,,,,,,,,,,,,,,,,,,,,,,,,,7,0.966,1,,,,,,,,,,,,0,131,5,5,1986,2142,absent_patch/patch0001986.jpg,absent_patch/patch0002142.jpg,,,,,,,,,,,,,,,,,,,,0.021105528,0.063819095,1,0,0,response1disk,8,-0.009045226,-0.000502513,1,0,0,center_square,0,7,7,76,1
206642,001,2022-11-20_23h59.52.500,Info_measure_main_exp,2022.2.2,Linux x86_64,19.77848101,,,,,,,,,,,,,,,,,,masks/mask_005.jpg,,,,,,,,,,,,,,,,,,,,,,,,,,,,,,,,,,,,,,,,,,,0,0,0,4,1,,,,,,,,,,,,,,,,,,,,,,,
206642,001,2022-11-20_23h59.52.500,Info_measure_main_exp,2022.2.2,Linux x86_64,19.77848101,,,,,,,,,,,,,,,,,,masks/mask_003.jpg,,,,,,,,,,,,,,,,,,,,,,,,,,,,,,,,,,,,,,,,,,,0,1,1,2,1,,,,,,,,,,,,,,,,,,,,,,,
206642,001,2022-11-20_23h59.52.500,Info_measure_main_exp,2022.2.2,Linux x86_64,19.77848101,,,,,,,,,,,,,,,,,,masks/mask_001.jpg,,,,,,,,,,,,,,,,,,,,,,,,,,,,,,,,,,,,,,,,,,,0,2,2,0,1,,,,,,,,,,,,,,,,,,,,,,,
206642,001,2022-11-20_23h59.52.500,Info_measure_main_exp,2022.2.2,Linux x86_64,19.77848101,,,,,,,,,,,,,,,,,,masks/mask_002.jpg,,,,,,,,,,,,,,,,,,,,,,,,,,,,,,,,,,,,,,,,,,,0,3,3,1,1,,,,,,,,,,,,,,,,,,,,,,,
206642,001,2022-11-20_23h59.52.500,Info_measure_main_exp,2022.2.2,Linux x86_64,19.77848101,,,,,,,,,,,,,,,,,,masks/mask_004.jpg,,,,,,,,,,,,,,,,,,,,,,,,,,,,,,,,,,,,,,,,,,,0,4,4,3,1,,,,,,,,,,,,,,,,,,,,,,,
206642,001,2022-11-20_23h59.52.500,Info_measure_main_exp,2022.2.2,Linux x86_64,19.77848101,,,,,,,,,,,,,,,,,,masks/mask_002.jpg,,,,,,,,,,,,,,,,,,,,,,,,,,,,,,,,,,,,,,,,,,,,,,,,0,0,0,1,1,,,,,,,,,,,,,,,,,,
206642,001,2022-11-20_23h59.52.500,Info_measure_main_exp,2022.2.2,Linux x86_64,19.77848101,,,,,,,,,,,,,,,,,,masks/mask_003.jpg,,,,,,,,,,,,,,,,,,,,,,,,,,,,,,,,,,,,,,,,,,,,,,,,0,1,1,2,1,,,,,,,,,,,,,,,,,,
206642,001,2022-11-20_23h59.52.500,Info_measure_main_exp,2022.2.2,Linux x86_64,19.77848101,,,,,,,,,,,,,,,,,,masks/mask_001.jpg,,,,,,,,,,,,,,,,,,,,,,,,,,,,,,,,,,,,,,,,,,,,,,,,0,2,2,0,1,,,,,,,,,,,,,,,,,,
206642,001,2022-11-20_23h59.52.500,Info_measure_main_exp,2022.2.2,Linux x86_64,19.77848101,,,,,,,,,,,,,,,,,,masks/mask_005.jpg,,,,,,,,,,,,,,,,,,,,,,,,,,,,,,,,,,,,,,,,,,,,,,,,0,3,3,4,1,,,,,,,,,,,,,,,,,,
206642,001,2022-11-20_23h59.52.500,Info_measure_main_exp,2022.2.2,Linux x86_64,19.77848101,,,,,,,,,,,,,,,,,,masks/mask_004.jpg,,,,,,,,,,,,,,,,,,,,,,,,,,,,,,,,,,,,,,,,,,,,,,,,0,4,4,3,1,,,,,,,,,,,,,,,,,,
206642,001,2022-11-20_23h59.52.500,Info_measure_main_exp,2022.2.2,Linux x86_64,19.77848101,,,,,,,,,,,,,,,,,,,,,,,,,,,,,,3,1.313,1,,,,,,,,,,,,0,131,5,5,1950,2166,absent_patch/patch0001950.jpg,absent_patch/patch0002166.jpg,,,,,,,,,,,,,,,,,,,,-0.024120603,-0.080904523,1,0,0,response5disk,9,0.012060302,-0.002512563,1,0,0,center_square,0,8,8,0,1
206642,001,2022-11-20_23h59.52.500,Info_measure_main_exp,2022.2.2,Linux x86_64,19.77848101,,,,,,,,,,,,,,,,,,masks/mask_003.jpg,,,,,,,,,,,,,,,,,,,,,,,,,,,,,,,,,,,,,,,,,,,0,0,0,2,1,,,,,,,,,,,,,,,,,,,,,,,
206642,001,2022-11-20_23h59.52.500,Info_measure_main_exp,2022.2.2,Linux x86_64,19.77848101,,,,,,,,,,,,,,,,,,masks/mask_002.jpg,,,,,,,,,,,,,,,,,,,,,,,,,,,,,,,,,,,,,,,,,,,0,1,1,1,1,,,,,,,,,,,,,,,,,,,,,,,
206642,001,2022-11-20_23h59.52.500,Info_measure_main_exp,2022.2.2,Linux x86_64,19.77848101,,,,,,,,,,,,,,,,,,masks/mask_005.jpg,,,,,,,,,,,,,,,,,,,,,,,,,,,,,,,,,,,,,,,,,,,0,2,2,4,1,,,,,,,,,,,,,,,,,,,,,,,
206642,001,2022-11-20_23h59.52.500,Info_measure_main_exp,2022.2.2,Linux x86_64,19.77848101,,,,,,,,,,,,,,,,,,masks/mask_004.jpg,,,,,,,,,,,,,,,,,,,,,,,,,,,,,,,,,,,,,,,,,,,0,3,3,3,1,,,,,,,,,,,,,,,,,,,,,,,
206642,001,2022-11-20_23h59.52.500,Info_measure_main_exp,2022.2.2,Linux x86_64,19.77848101,,,,,,,,,,,,,,,,,,masks/mask_001.jpg,,,,,,,,,,,,,,,,,,,,,,,,,,,,,,,,,,,,,,,,,,,0,4,4,0,1,,,,,,,,,,,,,,,,,,,,,,,
206642,001,2022-11-20_23h59.52.500,Info_measure_main_exp,2022.2.2,Linux x86_64,19.77848101,,,,,,,,,,,,,,,,,,masks/mask_004.jpg,,,,,,,,,,,,,,,,,,,,,,,,,,,,,,,,,,,,,,,,,,,,,,,,0,0,0,3,1,,,,,,,,,,,,,,,,,,
206642,001,2022-11-20_23h59.52.500,Info_measure_main_exp,2022.2.2,Linux x86_64,19.77848101,,,,,,,,,,,,,,,,,,masks/mask_005.jpg,,,,,,,,,,,,,,,,,,,,,,,,,,,,,,,,,,,,,,,,,,,,,,,,0,1,1,4,1,,,,,,,,,,,,,,,,,,
206642,001,2022-11-20_23h59.52.500,Info_measure_main_exp,2022.2.2,Linux x86_64,19.77848101,,,,,,,,,,,,,,,,,,masks/mask_002.jpg,,,,,,,,,,,,,,,,,,,,,,,,,,,,,,,,,,,,,,,,,,,,,,,,0,2,2,1,1,,,,,,,,,,,,,,,,,,
206642,001,2022-11-20_23h59.52.500,Info_measure_main_exp,2022.2.2,Linux x86_64,19.77848101,,,,,,,,,,,,,,,,,,masks/mask_003.jpg,,,,,,,,,,,,,,,,,,,,,,,,,,,,,,,,,,,,,,,,,,,,,,,,0,3,3,2,1,,,,,,,,,,,,,,,,,,
206642,001,2022-11-20_23h59.52.500,Info_measure_main_exp,2022.2.2,Linux x86_64,19.77848101,,,,,,,,,,,,,,,,,,masks/mask_001.jpg,,,,,,,,,,,,,,,,,,,,,,,,,,,,,,,,,,,,,,,,,,,,,,,,0,4,4,0,1,,,,,,,,,,,,,,,,,,
206642,001,2022-11-20_23h59.52.500,Info_measure_main_exp,2022.2.2,Linux x86_64,19.77848101,,,,,,,,,,,,,,,,,,,,,,,,,,,,,,5,2.005,1,,,,,,,,,,,,0,131,5,5,2154,2238,absent_patch/patch0002154.jpg,absent_patch/patch0002238.jpg,,,,,,,,,,,,,,,,,,,,0.079396985,-0.038693467,1,0,0,response3disk,10,-0.00201005,-0.001507538,1,0,0,center_square,0,9,9,21,1
206642,001,2022-11-20_23h59.52.500,Info_measure_main_exp,2022.2.2,Linux x86_64,19.77848101,,,,,,,,,,,,,,,,,,masks/mask_004.jpg,,,,,,,,,,,,,,,,,,,,,,,,,,,,,,,,,,,,,,,,,,,0,0,0,3,1,,,,,,,,,,,,,,,,,,,,,,,
206642,001,2022-11-20_23h59.52.500,Info_measure_main_exp,2022.2.2,Linux x86_64,19.77848101,,,,,,,,,,,,,,,,,,masks/mask_002.jpg,,,,,,,,,,,,,,,,,,,,,,,,,,,,,,,,,,,,,,,,,,,0,1,1,1,1,,,,,,,,,,,,,,,,,,,,,,,
206642,001,2022-11-20_23h59.52.500,Info_measure_main_exp,2022.2.2,Linux x86_64,19.77848101,,,,,,,,,,,,,,,,,,masks/mask_001.jpg,,,,,,,,,,,,,,,,,,,,,,,,,,,,,,,,,,,,,,,,,,,0,2,2,0,1,,,,,,,,,,,,,,,,,,,,,,,
206642,001,2022-11-20_23h59.52.500,Info_measure_main_exp,2022.2.2,Linux x86_64,19.77848101,,,,,,,,,,,,,,,,,,masks/mask_005.jpg,,,,,,,,,,,,,,,,,,,,,,,,,,,,,,,,,,,,,,,,,,,0,3,3,4,1,,,,,,,,,,,,,,,,,,,,,,,
206642,001,2022-11-20_23h59.52.500,Info_measure_main_exp,2022.2.2,Linux x86_64,19.77848101,,,,,,,,,,,,,,,,,,masks/mask_003.jpg,,,,,,,,,,,,,,,,,,,,,,,,,,,,,,,,,,,,,,,,,,,0,4,4,2,1,,,,,,,,,,,,,,,,,,,,,,,
206642,001,2022-11-20_23h59.52.500,Info_measure_main_exp,2022.2.2,Linux x86_64,19.77848101,,,,,,,,,,,,,,,,,,masks/mask_005.jpg,,,,,,,,,,,,,,,,,,,,,,,,,,,,,,,,,,,,,,,,,,,,,,,,0,0,0,4,1,,,,,,,,,,,,,,,,,,
206642,001,2022-11-20_23h59.52.500,Info_measure_main_exp,2022.2.2,Linux x86_64,19.77848101,,,,,,,,,,,,,,,,,,masks/mask_002.jpg,,,,,,,,,,,,,,,,,,,,,,,,,,,,,,,,,,,,,,,,,,,,,,,,0,1,1,1,1,,,,,,,,,,,,,,,,,,
206642,001,2022-11-20_23h59.52.500,Info_measure_main_exp,2022.2.2,Linux x86_64,19.77848101,,,,,,,,,,,,,,,,,,masks/mask_001.jpg,,,,,,,,,,,,,,,,,,,,,,,,,,,,,,,,,,,,,,,,,,,,,,,,0,2,2,0,1,,,,,,,,,,,,,,,,,,
206642,001,2022-11-20_23h59.52.500,Info_measure_main_exp,2022.2.2,Linux x86_64,19.77848101,,,,,,,,,,,,,,,,,,masks/mask_003.jpg,,,,,,,,,,,,,,,,,,,,,,,,,,,,,,,,,,,,,,,,,,,,,,,,0,3,3,2,1,,,,,,,,,,,,,,,,,,
206642,001,2022-11-20_23h59.52.500,Info_measure_main_exp,2022.2.2,Linux x86_64,19.77848101,,,,,,,,,,,,,,,,,,masks/mask_004.jpg,,,,,,,,,,,,,,,,,,,,,,,,,,,,,,,,,,,,,,,,,,,,,,,,0,4,4,3,1,,,,,,,,,,,,,,,,,,
206642,001,2022-11-20_23h59.52.500,Info_measure_main_exp,2022.2.2,Linux x86_64,19.77848101,,,,,,,,,,,,,,,,,,,,,,,,,,,,,,4,1.785,1,,,,,,,,,,,,0,131,5,5,1950,2142,absent_patch/patch0001950.jpg,absent_patch/patch0002142.jpg,,,,,,,,,,,,,,,,,,,,0.04321608,-0.13718593,1,0,0,response3disk,11,-0.007035176,0.011557789,1,0,0,center_square,0,10,10,83,1
206642,001,2022-11-20_23h59.52.500,Info_measure_main_exp,2022.2.2,Linux x86_64,19.77848101,,,,,,,,,,,,,,,,,,masks/mask_003.jpg,,,,,,,,,,,,,,,,,,,,,,,,,,,,,,,,,,,,,,,,,,,0,0,0,2,1,,,,,,,,,,,,,,,,,,,,,,,
206642,001,2022-11-20_23h59.52.500,Info_measure_main_exp,2022.2.2,Linux x86_64,19.77848101,,,,,,,,,,,,,,,,,,masks/mask_002.jpg,,,,,,,,,,,,,,,,,,,,,,,,,,,,,,,,,,,,,,,,,,,0,1,1,1,1,,,,,,,,,,,,,,,,,,,,,,,
206642,001,2022-11-20_23h59.52.500,Info_measure_main_exp,2022.2.2,Linux x86_64,19.77848101,,,,,,,,,,,,,,,,,,masks/mask_005.jpg,,,,,,,,,,,,,,,,,,,,,,,,,,,,,,,,,,,,,,,,,,,0,2,2,4,1,,,,,,,,,,,,,,,,,,,,,,,
206642,001,2022-11-20_23h59.52.500,Info_measure_main_exp,2022.2.2,Linux x86_64,19.77848101,,,,,,,,,,,,,,,,,,masks/mask_001.jpg,,,,,,,,,,,,,,,,,,,,,,,,,,,,,,,,,,,,,,,,,,,0,3,3,0,1,,,,,,,,,,,,,,,,,,,,,,,
206642,001,2022-11-20_23h59.52.500,Info_measure_main_exp,2022.2.2,Linux x86_64,19.77848101,,,,,,,,,,,,,,,,,,masks/mask_004.jpg,,,,,,,,,,,,,,,,,,,,,,,,,,,,,,,,,,,,,,,,,,,0,4,4,3,1,,,,,,,,,,,,,,,,,,,,,,,
206642,001,2022-11-20_23h59.52.500,Info_measure_main_exp,2022.2.2,Linux x86_64,19.77848101,,,,,,,,,,,,,,,,,,masks/mask_003.jpg,,,,,,,,,,,,,,,,,,,,,,,,,,,,,,,,,,,,,,,,,,,,,,,,0,0,0,2,1,,,,,,,,,,,,,,,,,,
206642,001,2022-11-20_23h59.52.500,Info_measure_main_exp,2022.2.2,Linux x86_64,19.77848101,,,,,,,,,,,,,,,,,,masks/mask_002.jpg,,,,,,,,,,,,,,,,,,,,,,,,,,,,,,,,,,,,,,,,,,,,,,,,0,1,1,1,1,,,,,,,,,,,,,,,,,,
206642,001,2022-11-20_23h59.52.500,Info_measure_main_exp,2022.2.2,Linux x86_64,19.77848101,,,,,,,,,,,,,,,,,,masks/mask_001.jpg,,,,,,,,,,,,,,,,,,,,,,,,,,,,,,,,,,,,,,,,,,,,,,,,0,2,2,0,1,,,,,,,,,,,,,,,,,,
206642,001,2022-11-20_23h59.52.500,Info_measure_main_exp,2022.2.2,Linux x86_64,19.77848101,,,,,,,,,,,,,,,,,,masks/mask_005.jpg,,,,,,,,,,,,,,,,,,,,,,,,,,,,,,,,,,,,,,,,,,,,,,,,0,3,3,4,1,,,,,,,,,,,,,,,,,,
206642,001,2022-11-20_23h59.52.500,Info_measure_main_exp,2022.2.2,Linux x86_64,19.77848101,,,,,,,,,,,,,,,,,,masks/mask_004.jpg,,,,,,,,,,,,,,,,,,,,,,,,,,,,,,,,,,,,,,,,,,,,,,,,0,4,4,3,1,,,,,,,,,,,,,,,,,,
206642,001,2022-11-20_23h59.52.500,Info_measure_main_exp,2022.2.2,Linux x86_64,19.77848101,,,,,,,,,,,,,,,,,,,,,,,,,,,,,,7,0.996,1,,,,,,,,,,,,0,131,5,5,2298,1986,absent_patch/patch0002298.jpg,absent_patch/patch0001986.jpg,,,,,,,,,,,,,,,,,,,,0.015075377,0.090954774,1,0,0,response1disk,12,0.003015075,0.005527638,1,0,0,center_square,0,11,11,32,1
206642,001,2022-11-20_23h59.52.500,Info_measure_main_exp,2022.2.2,Linux x86_64,19.77848101,,,,,,,,,,,,,,,,,,masks/mask_002.jpg,,,,,,,,,,,,,,,,,,,,,,,,,,,,,,,,,,,,,,,,,,,0,0,0,1,1,,,,,,,,,,,,,,,,,,,,,,,
206642,001,2022-11-20_23h59.52.500,Info_measure_main_exp,2022.2.2,Linux x86_64,19.77848101,,,,,,,,,,,,,,,,,,masks/mask_003.jpg,,,,,,,,,,,,,,,,,,,,,,,,,,,,,,,,,,,,,,,,,,,0,1,1,2,1,,,,,,,,,,,,,,,,,,,,,,,
206642,001,2022-11-20_23h59.52.500,Info_measure_main_exp,2022.2.2,Linux x86_64,19.77848101,,,,,,,,,,,,,,,,,,masks/mask_001.jpg,,,,,,,,,,,,,,,,,,,,,,,,,,,,,,,,,,,,,,,,,,,0,2,2,0,1,,,,,,,,,,,,,,,,,,,,,,,
206642,001,2022-11-20_23h59.52.500,Info_measure_main_exp,2022.2.2,Linux x86_64,19.77848101,,,,,,,,,,,,,,,,,,masks/mask_004.jpg,,,,,,,,,,,,,,,,,,,,,,,,,,,,,,,,,,,,,,,,,,,0,3,3,3,1,,,,,,,,,,,,,,,,,,,,,,,
206642,001,2022-11-20_23h59.52.500,Info_measure_main_exp,2022.2.2,Linux x86_64,19.77848101,,,,,,,,,,,,,,,,,,masks/mask_005.jpg,,,,,,,,,,,,,,,,,,,,,,,,,,,,,,,,,,,,,,,,,,,0,4,4,4,1,,,,,,,,,,,,,,,,,,,,,,,
206642,001,2022-11-20_23h59.52.500,Info_measure_main_exp,2022.2.2,Linux x86_64,19.77848101,,,,,,,,,,,,,,,,,,masks/mask_003.jpg,,,,,,,,,,,,,,,,,,,,,,,,,,,,,,,,,,,,,,,,,,,,,,,,0,0,0,2,1,,,,,,,,,,,,,,,,,,
206642,001,2022-11-20_23h59.52.500,Info_measure_main_exp,2022.2.2,Linux x86_64,19.77848101,,,,,,,,,,,,,,,,,,masks/mask_001.jpg,,,,,,,,,,,,,,,,,,,,,,,,,,,,,,,,,,,,,,,,,,,,,,,,0,1,1,0,1,,,,,,,,,,,,,,,,,,
206642,001,2022-11-20_23h59.52.500,Info_measure_main_exp,2022.2.2,Linux x86_64,19.77848101,,,,,,,,,,,,,,,,,,masks/mask_004.jpg,,,,,,,,,,,,,,,,,,,,,,,,,,,,,,,,,,,,,,,,,,,,,,,,0,2,2,3,1,,,,,,,,,,,,,,,,,,
206642,001,2022-11-20_23h59.52.500,Info_measure_main_exp,2022.2.2,Linux x86_64,19.77848101,,,,,,,,,,,,,,,,,,masks/mask_002.jpg,,,,,,,,,,,,,,,,,,,,,,,,,,,,,,,,,,,,,,,,,,,,,,,,0,3,3,1,1,,,,,,,,,,,,,,,,,,
206642,001,2022-11-20_23h59.52.500,Info_measure_main_exp,2022.2.2,Linux x86_64,19.77848101,,,,,,,,,,,,,,,,,,masks/mask_005.jpg,,,,,,,,,,,,,,,,,,,,,,,,,,,,,,,,,,,,,,,,,,,,,,,,0,4,4,4,1,,,,,,,,,,,,,,,,,,
206642,001,2022-11-20_23h59.52.500,Info_measure_main_exp,2022.2.2,Linux x86_64,19.77848101,,,,,,,,,,,,,,,,,,,,,,,,,,,,,,7,0.841,1,,,,,,,,,,,,0,131,5,5,2250,2298,absent_patch/patch0002250.jpg,absent_patch/patch0002298.jpg,,,,,,,,,,,,,,,,,,,,0.026130653,0.1,1,0,0,response1disk,13,0.009045226,-0.001507538,1,0,0,center_square,0,12,12,59,1
206642,001,2022-11-20_23h59.52.500,Info_measure_main_exp,2022.2.2,Linux x86_64,19.77848101,,,,,,,,,,,,,,,,,,masks/mask_004.jpg,,,,,,,,,,,,,,,,,,,,,,,,,,,,,,,,,,,,,,,,,,,0,0,0,3,1,,,,,,,,,,,,,,,,,,,,,,,
206642,001,2022-11-20_23h59.52.500,Info_measure_main_exp,2022.2.2,Linux x86_64,19.77848101,,,,,,,,,,,,,,,,,,masks/mask_003.jpg,,,,,,,,,,,,,,,,,,,,,,,,,,,,,,,,,,,,,,,,,,,0,1,1,2,1,,,,,,,,,,,,,,,,,,,,,,,
206642,001,2022-11-20_23h59.52.500,Info_measure_main_exp,2022.2.2,Linux x86_64,19.77848101,,,,,,,,,,,,,,,,,,masks/mask_001.jpg,,,,,,,,,,,,,,,,,,,,,,,,,,,,,,,,,,,,,,,,,,,0,2,2,0,1,,,,,,,,,,,,,,,,,,,,,,,
206642,001,2022-11-20_23h59.52.500,Info_measure_main_exp,2022.2.2,Linux x86_64,19.77848101,,,,,,,,,,,,,,,,,,masks/mask_005.jpg,,,,,,,,,,,,,,,,,,,,,,,,,,,,,,,,,,,,,,,,,,,0,3,3,4,1,,,,,,,,,,,,,,,,,,,,,,,
206642,001,2022-11-20_23h59.52.500,Info_measure_main_exp,2022.2.2,Linux x86_64,19.77848101,,,,,,,,,,,,,,,,,,masks/mask_002.jpg,,,,,,,,,,,,,,,,,,,,,,,,,,,,,,,,,,,,,,,,,,,0,4,4,1,1,,,,,,,,,,,,,,,,,,,,,,,
206642,001,2022-11-20_23h59.52.500,Info_measure_main_exp,2022.2.2,Linux x86_64,19.77848101,,,,,,,,,,,,,,,,,,masks/mask_005.jpg,,,,,,,,,,,,,,,,,,,,,,,,,,,,,,,,,,,,,,,,,,,,,,,,0,0,0,4,1,,,,,,,,,,,,,,,,,,
206642,001,2022-11-20_23h59.52.500,Info_measure_main_exp,2022.2.2,Linux x86_64,19.77848101,,,,,,,,,,,,,,,,,,masks/mask_003.jpg,,,,,,,,,,,,,,,,,,,,,,,,,,,,,,,,,,,,,,,,,,,,,,,,0,1,1,2,1,,,,,,,,,,,,,,,,,,
206642,001,2022-11-20_23h59.52.500,Info_measure_main_exp,2022.2.2,Linux x86_64,19.77848101,,,,,,,,,,,,,,,,,,masks/mask_002.jpg,,,,,,,,,,,,,,,,,,,,,,,,,,,,,,,,,,,,,,,,,,,,,,,,0,2,2,1,1,,,,,,,,,,,,,,,,,,
206642,001,2022-11-20_23h59.52.500,Info_measure_main_exp,2022.2.2,Linux x86_64,19.77848101,,,,,,,,,,,,,,,,,,masks/mask_004.jpg,,,,,,,,,,,,,,,,,,,,,,,,,,,,,,,,,,,,,,,,,,,,,,,,0,3,3,3,1,,,,,,,,,,,,,,,,,,
206642,001,2022-11-20_23h59.52.500,Info_measure_main_exp,2022.2.2,Linux x86_64,19.77848101,,,,,,,,,,,,,,,,,,masks/mask_001.jpg,,,,,,,,,,,,,,,,,,,,,,,,,,,,,,,,,,,,,,,,,,,,,,,,0,4,4,0,1,,,,,,,,,,,,,,,,,,
206642,001,2022-11-20_23h59.52.500,Info_measure_main_exp,2022.2.2,Linux x86_64,19.77848101,,,,,,,,,,,,,,,,,,,,,,,,,,,,,,0,2.118,1,,,,,,,,,,,,0,131,5,5,2190,2190,absent_patch/patch0002190.jpg,absent_patch/patch0002190.jpg,,,,,,,,,,,,,,,,,,,,-0.029145729,0.068844221,1,0,0,response7disk,14,0.00201005,0.004522613,1,0,0,center_square,0,13,13,86,1
206642,001,2022-11-20_23h59.52.500,Info_measure_main_exp,2022.2.2,Linux x86_64,19.77848101,,,,,,,,,,,,,,,,,,masks/mask_004.jpg,,,,,,,,,,,,,,,,,,,,,,,,,,,,,,,,,,,,,,,,,,,0,0,0,3,1,,,,,,,,,,,,,,,,,,,,,,,
206642,001,2022-11-20_23h59.52.500,Info_measure_main_exp,2022.2.2,Linux x86_64,19.77848101,,,,,,,,,,,,,,,,,,masks/mask_001.jpg,,,,,,,,,,,,,,,,,,,,,,,,,,,,,,,,,,,,,,,,,,,0,1,1,0,1,,,,,,,,,,,,,,,,,,,,,,,
206642,001,2022-11-20_23h59.52.500,Info_measure_main_exp,2022.2.2,Linux x86_64,19.77848101,,,,,,,,,,,,,,,,,,masks/mask_003.jpg,,,,,,,,,,,,,,,,,,,,,,,,,,,,,,,,,,,,,,,,,,,0,2,2,2,1,,,,,,,,,,,,,,,,,,,,,,,
206642,001,2022-11-20_23h59.52.500,Info_measure_main_exp,2022.2.2,Linux x86_64,19.77848101,,,,,,,,,,,,,,,,,,masks/mask_002.jpg,,,,,,,,,,,,,,,,,,,,,,,,,,,,,,,,,,,,,,,,,,,0,3,3,1,1,,,,,,,,,,,,,,,,,,,,,,,
206642,001,2022-11-20_23h59.52.500,Info_measure_main_exp,2022.2.2,Linux x86_64,19.77848101,,,,,,,,,,,,,,,,,,masks/mask_005.jpg,,,,,,,,,,,,,,,,,,,,,,,,,,,,,,,,,,,,,,,,,,,0,4,4,4,1,,,,,,,,,,,,,,,,,,,,,,,
206642,001,2022-11-20_23h59.52.500,Info_measure_main_exp,2022.2.2,Linux x86_64,19.77848101,,,,,,,,,,,,,,,,,,masks/mask_004.jpg,,,,,,,,,,,,,,,,,,,,,,,,,,,,,,,,,,,,,,,,,,,,,,,,0,0,0,3,1,,,,,,,,,,,,,,,,,,
206642,001,2022-11-20_23h59.52.500,Info_measure_main_exp,2022.2.2,Linux x86_64,19.77848101,,,,,,,,,,,,,,,,,,masks/mask_005.jpg,,,,,,,,,,,,,,,,,,,,,,,,,,,,,,,,,,,,,,,,,,,,,,,,0,1,1,4,1,,,,,,,,,,,,,,,,,,
206642,001,2022-11-20_23h59.52.500,Info_measure_main_exp,2022.2.2,Linux x86_64,19.77848101,,,,,,,,,,,,,,,,,,masks/mask_001.jpg,,,,,,,,,,,,,,,,,,,,,,,,,,,,,,,,,,,,,,,,,,,,,,,,0,2,2,0,1,,,,,,,,,,,,,,,,,,
206642,001,2022-11-20_23h59.52.500,Info_measure_main_exp,2022.2.2,Linux x86_64,19.77848101,,,,,,,,,,,,,,,,,,masks/mask_002.jpg,,,,,,,,,,,,,,,,,,,,,,,,,,,,,,,,,,,,,,,,,,,,,,,,0,3,3,1,1,,,,,,,,,,,,,,,,,,
206642,001,2022-11-20_23h59.52.500,Info_measure_main_exp,2022.2.2,Linux x86_64,19.77848101,,,,,,,,,,,,,,,,,,masks/mask_003.jpg,,,,,,,,,,,,,,,,,,,,,,,,,,,,,,,,,,,,,,,,,,,,,,,,0,4,4,2,1,,,,,,,,,,,,,,,,,,
206642,001,2022-11-20_23h59.52.500,Info_measure_main_exp,2022.2.2,Linux x86_64,19.77848101,,,,,,,,,,,,,,,,,,,,,,,,,,,,,,7,0.636,1,,,,,,,,,,,,0,131,5,5,1974,2166,absent_patch/patch0001974.jpg,absent_patch/patch0002166.jpg,,,,,,,,,,,,,,,,,,,,0.006030151,0.018592965,1,0,0,response1disk,15,0.006030151,0.008542714,1,0,0,center_square,0,14,14,77,1
206642,001,2022-11-20_23h59.52.500,Info_measure_main_exp,2022.2.2,Linux x86_64,19.77848101,,,,,,,,,,,,,,,,,,masks/mask_002.jpg,,,,,,,,,,,,,,,,,,,,,,,,,,,,,,,,,,,,,,,,,,,0,0,0,1,1,,,,,,,,,,,,,,,,,,,,,,,
206642,001,2022-11-20_23h59.52.500,Info_measure_main_exp,2022.2.2,Linux x86_64,19.77848101,,,,,,,,,,,,,,,,,,masks/mask_004.jpg,,,,,,,,,,,,,,,,,,,,,,,,,,,,,,,,,,,,,,,,,,,0,1,1,3,1,,,,,,,,,,,,,,,,,,,,,,,
206642,001,2022-11-20_23h59.52.500,Info_measure_main_exp,2022.2.2,Linux x86_64,19.77848101,,,,,,,,,,,,,,,,,,masks/mask_005.jpg,,,,,,,,,,,,,,,,,,,,,,,,,,,,,,,,,,,,,,,,,,,0,2,2,4,1,,,,,,,,,,,,,,,,,,,,,,,
206642,001,2022-11-20_23h59.52.500,Info_measure_main_exp,2022.2.2,Linux x86_64,19.77848101,,,,,,,,,,,,,,,,,,masks/mask_003.jpg,,,,,,,,,,,,,,,,,,,,,,,,,,,,,,,,,,,,,,,,,,,0,3,3,2,1,,,,,,,,,,,,,,,,,,,,,,,
206642,001,2022-11-20_23h59.52.500,Info_measure_main_exp,2022.2.2,Linux x86_64,19.77848101,,,,,,,,,,,,,,,,,,masks/mask_001.jpg,,,,,,,,,,,,,,,,,,,,,,,,,,,,,,,,,,,,,,,,,,,0,4,4,0,1,,,,,,,,,,,,,,,,,,,,,,,
206642,001,2022-11-20_23h59.52.500,Info_measure_main_exp,2022.2.2,Linux x86_64,19.77848101,,,,,,,,,,,,,,,,,,masks/mask_001.jpg,,,,,,,,,,,,,,,,,,,,,,,,,,,,,,,,,,,,,,,,,,,,,,,,0,0,0,0,1,,,,,,,,,,,,,,,,,,
206642,001,2022-11-20_23h59.52.500,Info_measure_main_exp,2022.2.2,Linux x86_64,19.77848101,,,,,,,,,,,,,,,,,,masks/mask_004.jpg,,,,,,,,,,,,,,,,,,,,,,,,,,,,,,,,,,,,,,,,,,,,,,,,0,1,1,3,1,,,,,,,,,,,,,,,,,,
206642,001,2022-11-20_23h59.52.500,Info_measure_main_exp,2022.2.2,Linux x86_64,19.77848101,,,,,,,,,,,,,,,,,,masks/mask_002.jpg,,,,,,,,,,,,,,,,,,,,,,,,,,,,,,,,,,,,,,,,,,,,,,,,0,2,2,1,1,,,,,,,,,,,,,,,,,,
206642,001,2022-11-20_23h59.52.500,Info_measure_main_exp,2022.2.2,Linux x86_64,19.77848101,,,,,,,,,,,,,,,,,,masks/mask_005.jpg,,,,,,,,,,,,,,,,,,,,,,,,,,,,,,,,,,,,,,,,,,,,,,,,0,3,3,4,1,,,,,,,,,,,,,,,,,,
206642,001,2022-11-20_23h59.52.500,Info_measure_main_exp,2022.2.2,Linux x86_64,19.77848101,,,,,,,,,,,,,,,,,,masks/mask_003.jpg,,,,,,,,,,,,,,,,,,,,,,,,,,,,,,,,,,,,,,,,,,,,,,,,0,4,4,2,1,,,,,,,,,,,,,,,,,,
206642,001,2022-11-20_23h59.52.500,Info_measure_main_exp,2022.2.2,Linux x86_64,19.77848101,,,,,,,,,,,,,,,,,,,,,,,,,,,,,,3,1.229,1,,,,,,,,,,,,0,131,5,5,2298,2190,absent_patch/patch0002298.jpg,absent_patch/patch0002190.jpg,,,,,,,,,,,,,,,,,,,,-0.035175879,-0.091959799,1,0,0,response5disk,16,0.014070352,0.015577889,1,0,0,center_square,0,15,15,20,1
206642,001,2022-11-20_23h59.52.500,Info_measure_main_exp,2022.2.2,Linux x86_64,19.77848101,,,,,,,,,,,,,,,,,,masks/mask_004.jpg,,,,,,,,,,,,,,,,,,,,,,,,,,,,,,,,,,,,,,,,,,,0,0,0,3,1,,,,,,,,,,,,,,,,,,,,,,,
206642,001,2022-11-20_23h59.52.500,Info_measure_main_exp,2022.2.2,Linux x86_64,19.77848101,,,,,,,,,,,,,,,,,,masks/mask_002.jpg,,,,,,,,,,,,,,,,,,,,,,,,,,,,,,,,,,,,,,,,,,,0,1,1,1,1,,,,,,,,,,,,,,,,,,,,,,,
206642,001,2022-11-20_23h59.52.500,Info_measure_main_exp,2022.2.2,Linux x86_64,19.77848101,,,,,,,,,,,,,,,,,,masks/mask_005.jpg,,,,,,,,,,,,,,,,,,,,,,,,,,,,,,,,,,,,,,,,,,,0,2,2,4,1,,,,,,,,,,,,,,,,,,,,,,,
206642,001,2022-11-20_23h59.52.500,Info_measure_main_exp,2022.2.2,Linux x86_64,19.77848101,,,,,,,,,,,,,,,,,,masks/mask_001.jpg,,,,,,,,,,,,,,,,,,,,,,,,,,,,,,,,,,,,,,,,,,,0,3,3,0,1,,,,,,,,,,,,,,,,,,,,,,,
206642,001,2022-11-20_23h59.52.500,Info_measure_main_exp,2022.2.2,Linux x86_64,19.77848101,,,,,,,,,,,,,,,,,,masks/mask_003.jpg,,,,,,,,,,,,,,,,,,,,,,,,,,,,,,,,,,,,,,,,,,,0,4,4,2,1,,,,,,,,,,,,,,,,,,,,,,,
206642,001,2022-11-20_23h59.52.500,Info_measure_main_exp,2022.2.2,Linux x86_64,19.77848101,,,,,,,,,,,,,,,,,,masks/mask_005.jpg,,,,,,,,,,,,,,,,,,,,,,,,,,,,,,,,,,,,,,,,,,,,,,,,0,0,0,4,1,,,,,,,,,,,,,,,,,,
206642,001,2022-11-20_23h59.52.500,Info_measure_main_exp,2022.2.2,Linux x86_64,19.77848101,,,,,,,,,,,,,,,,,,masks/mask_002.jpg,,,,,,,,,,,,,,,,,,,,,,,,,,,,,,,,,,,,,,,,,,,,,,,,0,1,1,1,1,,,,,,,,,,,,,,,,,,
206642,001,2022-11-20_23h59.52.500,Info_measure_main_exp,2022.2.2,Linux x86_64,19.77848101,,,,,,,,,,,,,,,,,,masks/mask_003.jpg,,,,,,,,,,,,,,,,,,,,,,,,,,,,,,,,,,,,,,,,,,,,,,,,0,2,2,2,1,,,,,,,,,,,,,,,,,,
206642,001,2022-11-20_23h59.52.500,Info_measure_main_exp,2022.2.2,Linux x86_64,19.77848101,,,,,,,,,,,,,,,,,,masks/mask_004.jpg,,,,,,,,,,,,,,,,,,,,,,,,,,,,,,,,,,,,,,,,,,,,,,,,0,3,3,3,1,,,,,,,,,,,,,,,,,,
206642,001,2022-11-20_23h59.52.500,Info_measure_main_exp,2022.2.2,Linux x86_64,19.77848101,,,,,,,,,,,,,,,,,,masks/mask_001.jpg,,,,,,,,,,,,,,,,,,,,,,,,,,,,,,,,,,,,,,,,,,,,,,,,0,4,4,0,1,,,,,,,,,,,,,,,,,,
206642,001,2022-11-20_23h59.52.500,Info_measure_main_exp,2022.2.2,Linux x86_64,19.77848101,,,,,,,,,,,,,,,,,,,,,,,,,,,,,,7,0.695,1,,,,,,,,,,,,0,131,5,5,2190,2214,absent_patch/patch0002190.jpg,absent_patch/patch0002214.jpg,,,,,,,,,,,,,,,,,,,,0.029145729,0.105025126,1,0,0,response1disk,17,0.007035176,0.006532663,1,0,0,center_square,0,16,16,35,1
206642,001,2022-11-20_23h59.52.500,Info_measure_main_exp,2022.2.2,Linux x86_64,19.77848101,,,,,,,,,,,,,,,,,,masks/mask_005.jpg,,,,,,,,,,,,,,,,,,,,,,,,,,,,,,,,,,,,,,,,,,,0,0,0,4,1,,,,,,,,,,,,,,,,,,,,,,,
206642,001,2022-11-20_23h59.52.500,Info_measure_main_exp,2022.2.2,Linux x86_64,19.77848101,,,,,,,,,,,,,,,,,,masks/mask_002.jpg,,,,,,,,,,,,,,,,,,,,,,,,,,,,,,,,,,,,,,,,,,,0,1,1,1,1,,,,,,,,,,,,,,,,,,,,,,,
206642,001,2022-11-20_23h59.52.500,Info_measure_main_exp,2022.2.2,Linux x86_64,19.77848101,,,,,,,,,,,,,,,,,,masks/mask_004.jpg,,,,,,,,,,,,,,,,,,,,,,,,,,,,,,,,,,,,,,,,,,,0,2,2,3,1,,,,,,,,,,,,,,,,,,,,,,,
206642,001,2022-11-20_23h59.52.500,Info_measure_main_exp,2022.2.2,Linux x86_64,19.77848101,,,,,,,,,,,,,,,,,,masks/mask_003.jpg,,,,,,,,,,,,,,,,,,,,,,,,,,,,,,,,,,,,,,,,,,,0,3,3,2,1,,,,,,,,,,,,,,,,,,,,,,,
206642,001,2022-11-20_23h59.52.500,Info_measure_main_exp,2022.2.2,Linux x86_64,19.77848101,,,,,,,,,,,,,,,,,,masks/mask_001.jpg,,,,,,,,,,,,,,,,,,,,,,,,,,,,,,,,,,,,,,,,,,,0,4,4,0,1,,,,,,,,,,,,,,,,,,,,,,,
206642,001,2022-11-20_23h59.52.500,Info_measure_main_exp,2022.2.2,Linux x86_64,19.77848101,,,,,,,,,,,,,,,,,,masks/mask_002.jpg,,,,,,,,,,,,,,,,,,,,,,,,,,,,,,,,,,,,,,,,,,,,,,,,0,0,0,1,1,,,,,,,,,,,,,,,,,,
206642,001,2022-11-20_23h59.52.500,Info_measure_main_exp,2022.2.2,Linux x86_64,19.77848101,,,,,,,,,,,,,,,,,,masks/mask_001.jpg,,,,,,,,,,,,,,,,,,,,,,,,,,,,,,,,,,,,,,,,,,,,,,,,0,1,1,0,1,,,,,,,,,,,,,,,,,,
206642,001,2022-11-20_23h59.52.500,Info_measure_main_exp,2022.2.2,Linux x86_64,19.77848101,,,,,,,,,,,,,,,,,,masks/mask_005.jpg,,,,,,,,,,,,,,,,,,,,,,,,,,,,,,,,,,,,,,,,,,,,,,,,0,2,2,4,1,,,,,,,,,,,,,,,,,,
206642,001,2022-11-20_23h59.52.500,Info_measure_main_exp,2022.2.2,Linux x86_64,19.77848101,,,,,,,,,,,,,,,,,,masks/mask_003.jpg,,,,,,,,,,,,,,,,,,,,,,,,,,,,,,,,,,,,,,,,,,,,,,,,0,3,3,2,1,,,,,,,,,,,,,,,,,,
206642,001,2022-11-20_23h59.52.500,Info_measure_main_exp,2022.2.2,Linux x86_64,19.77848101,,,,,,,,,,,,,,,,,,masks/mask_004.jpg,,,,,,,,,,,,,,,,,,,,,,,,,,,,,,,,,,,,,,,,,,,,,,,,0,4,4,3,1,,,,,,,,,,,,,,,,,,
206642,001,2022-11-20_23h59.52.500,Info_measure_main_exp,2022.2.2,Linux x86_64,19.77848101,,,,,,,,,,,,,,,,,,,,,,,,,,,,,,7,0.751,1,,,,,,,,,,,,0,131,5,5,2082,2154,absent_patch/patch0002082.jpg,absent_patch/patch0002154.jpg,,,,,,,,,,,,,,,,,,,,0.018090452,0.035678392,1,0,0,response1disk,18,0.005025126,0.006532663,1,0,0,center_square,0,17,17,33,1
206642,001,2022-11-20_23h59.52.500,Info_measure_main_exp,2022.2.2,Linux x86_64,19.77848101,,,,,,,,,,,,,,,,,,masks/mask_004.jpg,,,,,,,,,,,,,,,,,,,,,,,,,,,,,,,,,,,,,,,,,,,0,0,0,3,1,,,,,,,,,,,,,,,,,,,,,,,
206642,001,2022-11-20_23h59.52.500,Info_measure_main_exp,2022.2.2,Linux x86_64,19.77848101,,,,,,,,,,,,,,,,,,masks/mask_003.jpg,,,,,,,,,,,,,,,,,,,,,,,,,,,,,,,,,,,,,,,,,,,0,1,1,2,1,,,,,,,,,,,,,,,,,,,,,,,
206642,001,2022-11-20_23h59.52.500,Info_measure_main_exp,2022.2.2,Linux x86_64,19.77848101,,,,,,,,,,,,,,,,,,masks/mask_002.jpg,,,,,,,,,,,,,,,,,,,,,,,,,,,,,,,,,,,,,,,,,,,0,2,2,1,1,,,,,,,,,,,,,,,,,,,,,,,
206642,001,2022-11-20_23h59.52.500,Info_measure_main_exp,2022.2.2,Linux x86_64,19.77848101,,,,,,,,,,,,,,,,,,masks/mask_001.jpg,,,,,,,,,,,,,,,,,,,,,,,,,,,,,,,,,,,,,,,,,,,0,3,3,0,1,,,,,,,,,,,,,,,,,,,,,,,
206642,001,2022-11-20_23h59.52.500,Info_measure_main_exp,2022.2.2,Linux x86_64,19.77848101,,,,,,,,,,,,,,,,,,masks/mask_005.jpg,,,,,,,,,,,,,,,,,,,,,,,,,,,,,,,,,,,,,,,,,,,0,4,4,4,1,,,,,,,,,,,,,,,,,,,,,,,
206642,001,2022-11-20_23h59.52.500,Info_measure_main_exp,2022.2.2,Linux x86_64,19.77848101,,,,,,,,,,,,,,,,,,masks/mask_005.jpg,,,,,,,,,,,,,,,,,,,,,,,,,,,,,,,,,,,,,,,,,,,,,,,,0,0,0,4,1,,,,,,,,,,,,,,,,,,
206642,001,2022-11-20_23h59.52.500,Info_measure_main_exp,2022.2.2,Linux x86_64,19.77848101,,,,,,,,,,,,,,,,,,masks/mask_003.jpg,,,,,,,,,,,,,,,,,,,,,,,,,,,,,,,,,,,,,,,,,,,,,,,,0,1,1,2,1,,,,,,,,,,,,,,,,,,
206642,001,2022-11-20_23h59.52.500,Info_measure_main_exp,2022.2.2,Linux x86_64,19.77848101,,,,,,,,,,,,,,,,,,masks/mask_002.jpg,,,,,,,,,,,,,,,,,,,,,,,,,,,,,,,,,,,,,,,,,,,,,,,,0,2,2,1,1,,,,,,,,,,,,,,,,,,
206642,001,2022-11-20_23h59.52.500,Info_measure_main_exp,2022.2.2,Linux x86_64,19.77848101,,,,,,,,,,,,,,,,,,masks/mask_004.jpg,,,,,,,,,,,,,,,,,,,,,,,,,,,,,,,,,,,,,,,,,,,,,,,,0,3,3,3,1,,,,,,,,,,,,,,,,,,
206642,001,2022-11-20_23h59.52.500,Info_measure_main_exp,2022.2.2,Linux x86_64,19.77848101,,,,,,,,,,,,,,,,,,masks/mask_001.jpg,,,,,,,,,,,,,,,,,,,,,,,,,,,,,,,,,,,,,,,,,,,,,,,,0,4,4,0,1,,,,,,,,,,,,,,,,,,
206642,001,2022-11-20_23h59.52.500,Info_measure_main_exp,2022.2.2,Linux x86_64,19.77848101,,,,,,,,,,,,,,,,,,,,,,,,,,,,,,3,1.262,1,,,,,,,,,,,,0,131,5,5,2166,1986,absent_patch/patch0002166.jpg,absent_patch/patch0001986.jpg,,,,,,,,,,,,,,,,,,,,-0.030150754,-0.075879397,1,0,0,response5disk,19,0,-0.004522613,1,0,0,center_square,0,18,18,47,1
206642,001,2022-11-20_23h59.52.500,Info_measure_main_exp,2022.2.2,Linux x86_64,19.77848101,,,,,,,,,,,,,,,,,,masks/mask_003.jpg,,,,,,,,,,,,,,,,,,,,,,,,,,,,,,,,,,,,,,,,,,,0,0,0,2,1,,,,,,,,,,,,,,,,,,,,,,,
206642,001,2022-11-20_23h59.52.500,Info_measure_main_exp,2022.2.2,Linux x86_64,19.77848101,,,,,,,,,,,,,,,,,,masks/mask_002.jpg,,,,,,,,,,,,,,,,,,,,,,,,,,,,,,,,,,,,,,,,,,,0,1,1,1,1,,,,,,,,,,,,,,,,,,,,,,,
206642,001,2022-11-20_23h59.52.500,Info_measure_main_exp,2022.2.2,Linux x86_64,19.77848101,,,,,,,,,,,,,,,,,,masks/mask_001.jpg,,,,,,,,,,,,,,,,,,,,,,,,,,,,,,,,,,,,,,,,,,,0,2,2,0,1,,,,,,,,,,,,,,,,,,,,,,,
206642,001,2022-11-20_23h59.52.500,Info_measure_main_exp,2022.2.2,Linux x86_64,19.77848101,,,,,,,,,,,,,,,,,,masks/mask_004.jpg,,,,,,,,,,,,,,,,,,,,,,,,,,,,,,,,,,,,,,,,,,,0,3,3,3,1,,,,,,,,,,,,,,,,,,,,,,,
206642,001,2022-11-20_23h59.52.500,Info_measure_main_exp,2022.2.2,Linux x86_64,19.77848101,,,,,,,,,,,,,,,,,,masks/mask_005.jpg,,,,,,,,,,,,,,,,,,,,,,,,,,,,,,,,,,,,,,,,,,,0,4,4,4,1,,,,,,,,,,,,,,,,,,,,,,,
206642,001,2022-11-20_23h59.52.500,Info_measure_main_exp,2022.2.2,Linux x86_64,19.77848101,,,,,,,,,,,,,,,,,,masks/mask_005.jpg,,,,,,,,,,,,,,,,,,,,,,,,,,,,,,,,,,,,,,,,,,,,,,,,0,0,0,4,1,,,,,,,,,,,,,,,,,,
206642,001,2022-11-20_23h59.52.500,Info_measure_main_exp,2022.2.2,Linux x86_64,19.77848101,,,,,,,,,,,,,,,,,,masks/mask_001.jpg,,,,,,,,,,,,,,,,,,,,,,,,,,,,,,,,,,,,,,,,,,,,,,,,0,1,1,0,1,,,,,,,,,,,,,,,,,,
206642,001,2022-11-20_23h59.52.500,Info_measure_main_exp,2022.2.2,Linux x86_64,19.77848101,,,,,,,,,,,,,,,,,,masks/mask_003.jpg,,,,,,,,,,,,,,,,,,,,,,,,,,,,,,,,,,,,,,,,,,,,,,,,0,2,2,2,1,,,,,,,,,,,,,,,,,,
206642,001,2022-11-20_23h59.52.500,Info_measure_main_exp,2022.2.2,Linux x86_64,19.77848101,,,,,,,,,,,,,,,,,,masks/mask_004.jpg,,,,,,,,,,,,,,,,,,,,,,,,,,,,,,,,,,,,,,,,,,,,,,,,0,3,3,3,1,,,,,,,,,,,,,,,,,,
206642,001,2022-11-20_23h59.52.500,Info_measure_main_exp,2022.2.2,Linux x86_64,19.77848101,,,,,,,,,,,,,,,,,,masks/mask_002.jpg,,,,,,,,,,,,,,,,,,,,,,,,,,,,,,,,,,,,,,,,,,,,,,,,0,4,4,1,1,,,,,,,,,,,,,,,,,,
206642,001,2022-11-20_23h59.52.500,Info_measure_main_exp,2022.2.2,Linux x86_64,19.77848101,,,,,,,,,,,,,,,,,,,,,,,,,,,,,,7,1.022,1,,,,,,,,,,,,0,131,5,5,2190,1974,absent_patch/patch0002190.jpg,absent_patch/patch0001974.jpg,,,,,,,,,,,,,,,,,,,,0.061306533,0.096984925,1,0,0,response1disk,20,0.008040201,-0.000502513,1,0,0,center_square,0,19,19,119,1
206642,001,2022-11-20_23h59.52.500,Info_measure_main_exp,2022.2.2,Linux x86_64,19.77848101,,,,,,,,,,,,,,,,,,masks/mask_005.jpg,,,,,,,,,,,,,,,,,,,,,,,,,,,,,,,,,,,,,,,,,,,0,0,0,4,1,,,,,,,,,,,,,,,,,,,,,,,
206642,001,2022-11-20_23h59.52.500,Info_measure_main_exp,2022.2.2,Linux x86_64,19.77848101,,,,,,,,,,,,,,,,,,masks/mask_004.jpg,,,,,,,,,,,,,,,,,,,,,,,,,,,,,,,,,,,,,,,,,,,0,1,1,3,1,,,,,,,,,,,,,,,,,,,,,,,
206642,001,2022-11-20_23h59.52.500,Info_measure_main_exp,2022.2.2,Linux x86_64,19.77848101,,,,,,,,,,,,,,,,,,masks/mask_002.jpg,,,,,,,,,,,,,,,,,,,,,,,,,,,,,,,,,,,,,,,,,,,0,2,2,1,1,,,,,,,,,,,,,,,,,,,,,,,
206642,001,2022-11-20_23h59.52.500,Info_measure_main_exp,2022.2.2,Linux x86_64,19.77848101,,,,,,,,,,,,,,,,,,masks/mask_001.jpg,,,,,,,,,,,,,,,,,,,,,,,,,,,,,,,,,,,,,,,,,,,0,3,3,0,1,,,,,,,,,,,,,,,,,,,,,,,
206642,001,2022-11-20_23h59.52.500,Info_measure_main_exp,2022.2.2,Linux x86_64,19.77848101,,,,,,,,,,,,,,,,,,masks/mask_003.jpg,,,,,,,,,,,,,,,,,,,,,,,,,,,,,,,,,,,,,,,,,,,0,4,4,2,1,,,,,,,,,,,,,,,,,,,,,,,
206642,001,2022-11-20_23h59.52.500,Info_measure_main_exp,2022.2.2,Linux x86_64,19.77848101,,,,,,,,,,,,,,,,,,masks/mask_001.jpg,,,,,,,,,,,,,,,,,,,,,,,,,,,,,,,,,,,,,,,,,,,,,,,,0,0,0,0,1,,,,,,,,,,,,,,,,,,
206642,001,2022-11-20_23h59.52.500,Info_measure_main_exp,2022.2.2,Linux x86_64,19.77848101,,,,,,,,,,,,,,,,,,masks/mask_004.jpg,,,,,,,,,,,,,,,,,,,,,,,,,,,,,,,,,,,,,,,,,,,,,,,,0,1,1,3,1,,,,,,,,,,,,,,,,,,
206642,001,2022-11-20_23h59.52.500,Info_measure_main_exp,2022.2.2,Linux x86_64,19.77848101,,,,,,,,,,,,,,,,,,masks/mask_002.jpg,,,,,,,,,,,,,,,,,,,,,,,,,,,,,,,,,,,,,,,,,,,,,,,,0,2,2,1,1,,,,,,,,,,,,,,,,,,
206642,001,2022-11-20_23h59.52.500,Info_measure_main_exp,2022.2.2,Linux x86_64,19.77848101,,,,,,,,,,,,,,,,,,masks/mask_005.jpg,,,,,,,,,,,,,,,,,,,,,,,,,,,,,,,,,,,,,,,,,,,,,,,,0,3,3,4,1,,,,,,,,,,,,,,,,,,
206642,001,2022-11-20_23h59.52.500,Info_measure_main_exp,2022.2.2,Linux x86_64,19.77848101,,,,,,,,,,,,,,,,,,masks/mask_003.jpg,,,,,,,,,,,,,,,,,,,,,,,,,,,,,,,,,,,,,,,,,,,,,,,,0,4,4,2,1,,,,,,,,,,,,,,,,,,
206642,001,2022-11-20_23h59.52.500,Info_measure_main_exp,2022.2.2,Linux x86_64,19.77848101,,,,,,,,,,,,,,,,,,,,,,,,,,,,,,7,1.167,1,,,,,,,,,,,,0,131,5,5,2214,2082,absent_patch/patch0002214.jpg,absent_patch/patch0002082.jpg,,,,,,,,,,,,,,,,,,,,0.023115578,0.077889447,1,0,0,response1disk,21,-0.003015075,0.007537688,1,0,0,center_square,0,20,20,103,1
206642,001,2022-11-20_23h59.52.500,Info_measure_main_exp,2022.2.2,Linux x86_64,19.77848101,,,,,,,,,,,,,,,,,,masks/mask_001.jpg,,,,,,,,,,,,,,,,,,,,,,,,,,,,,,,,,,,,,,,,,,,0,0,0,0,1,,,,,,,,,,,,,,,,,,,,,,,
206642,001,2022-11-20_23h59.52.500,Info_measure_main_exp,2022.2.2,Linux x86_64,19.77848101,,,,,,,,,,,,,,,,,,masks/mask_005.jpg,,,,,,,,,,,,,,,,,,,,,,,,,,,,,,,,,,,,,,,,,,,0,1,1,4,1,,,,,,,,,,,,,,,,,,,,,,,
206642,001,2022-11-20_23h59.52.500,Info_measure_main_exp,2022.2.2,Linux x86_64,19.77848101,,,,,,,,,,,,,,,,,,masks/mask_004.jpg,,,,,,,,,,,,,,,,,,,,,,,,,,,,,,,,,,,,,,,,,,,0,2,2,3,1,,,,,,,,,,,,,,,,,,,,,,,
206642,001,2022-11-20_23h59.52.500,Info_measure_main_exp,2022.2.2,Linux x86_64,19.77848101,,,,,,,,,,,,,,,,,,masks/mask_002.jpg,,,,,,,,,,,,,,,,,,,,,,,,,,,,,,,,,,,,,,,,,,,0,3,3,1,1,,,,,,,,,,,,,,,,,,,,,,,
206642,001,2022-11-20_23h59.52.500,Info_measure_main_exp,2022.2.2,Linux x86_64,19.77848101,,,,,,,,,,,,,,,,,,masks/mask_003.jpg,,,,,,,,,,,,,,,,,,,,,,,,,,,,,,,,,,,,,,,,,,,0,4,4,2,1,,,,,,,,,,,,,,,,,,,,,,,
206642,001,2022-11-20_23h59.52.500,Info_measure_main_exp,2022.2.2,Linux x86_64,19.77848101,,,,,,,,,,,,,,,,,,masks/mask_004.jpg,,,,,,,,,,,,,,,,,,,,,,,,,,,,,,,,,,,,,,,,,,,,,,,,0,0,0,3,1,,,,,,,,,,,,,,,,,,
206642,001,2022-11-20_23h59.52.500,Info_measure_main_exp,2022.2.2,Linux x86_64,19.77848101,,,,,,,,,,,,,,,,,,masks/mask_002.jpg,,,,,,,,,,,,,,,,,,,,,,,,,,,,,,,,,,,,,,,,,,,,,,,,0,1,1,1,1,,,,,,,,,,,,,,,,,,
206642,001,2022-11-20_23h59.52.500,Info_measure_main_exp,2022.2.2,Linux x86_64,19.77848101,,,,,,,,,,,,,,,,,,masks/mask_003.jpg,,,,,,,,,,,,,,,,,,,,,,,,,,,,,,,,,,,,,,,,,,,,,,,,0,2,2,2,1,,,,,,,,,,,,,,,,,,
206642,001,2022-11-20_23h59.52.500,Info_measure_main_exp,2022.2.2,Linux x86_64,19.77848101,,,,,,,,,,,,,,,,,,masks/mask_005.jpg,,,,,,,,,,,,,,,,,,,,,,,,,,,,,,,,,,,,,,,,,,,,,,,,0,3,3,4,1,,,,,,,,,,,,,,,,,,
206642,001,2022-11-20_23h59.52.500,Info_measure_main_exp,2022.2.2,Linux x86_64,19.77848101,,,,,,,,,,,,,,,,,,masks/mask_001.jpg,,,,,,,,,,,,,,,,,,,,,,,,,,,,,,,,,,,,,,,,,,,,,,,,0,4,4,0,1,,,,,,,,,,,,,,,,,,
206642,001,2022-11-20_23h59.52.500,Info_measure_main_exp,2022.2.2,Linux x86_64,19.77848101,,,,,,,,,,,,,,,,,,,,,,,,,,,,,,4,1.43,1,,,,,,,,,,,,0,131,5,5,2274,2238,absent_patch/patch0002274.jpg,absent_patch/patch0002238.jpg,,,,,,,,,,,,,,,,,,,,0.04120603,-0.070854271,1,0,0,response3disk,22,0.013065327,0.003517588,1,0,0,center_square,0,21,21,91,1
206642,001,2022-11-20_23h59.52.500,Info_measure_main_exp,2022.2.2,Linux x86_64,19.77848101,,,,,,,,,,,,,,,,,,masks/mask_001.jpg,,,,,,,,,,,,,,,,,,,,,,,,,,,,,,,,,,,,,,,,,,,0,0,0,0,1,,,,,,,,,,,,,,,,,,,,,,,
206642,001,2022-11-20_23h59.52.500,Info_measure_main_exp,2022.2.2,Linux x86_64,19.77848101,,,,,,,,,,,,,,,,,,masks/mask_004.jpg,,,,,,,,,,,,,,,,,,,,,,,,,,,,,,,,,,,,,,,,,,,0,1,1,3,1,,,,,,,,,,,,,,,,,,,,,,,
206642,001,2022-11-20_23h59.52.500,Info_measure_main_exp,2022.2.2,Linux x86_64,19.77848101,,,,,,,,,,,,,,,,,,masks/mask_002.jpg,,,,,,,,,,,,,,,,,,,,,,,,,,,,,,,,,,,,,,,,,,,0,2,2,1,1,,,,,,,,,,,,,,,,,,,,,,,
206642,001,2022-11-20_23h59.52.500,Info_measure_main_exp,2022.2.2,Linux x86_64,19.77848101,,,,,,,,,,,,,,,,,,masks/mask_005.jpg,,,,,,,,,,,,,,,,,,,,,,,,,,,,,,,,,,,,,,,,,,,0,3,3,4,1,,,,,,,,,,,,,,,,,,,,,,,
206642,001,2022-11-20_23h59.52.500,Info_measure_main_exp,2022.2.2,Linux x86_64,19.77848101,,,,,,,,,,,,,,,,,,masks/mask_003.jpg,,,,,,,,,,,,,,,,,,,,,,,,,,,,,,,,,,,,,,,,,,,0,4,4,2,1,,,,,,,,,,,,,,,,,,,,,,,
206642,001,2022-11-20_23h59.52.500,Info_measure_main_exp,2022.2.2,Linux x86_64,19.77848101,,,,,,,,,,,,,,,,,,masks/mask_005.jpg,,,,,,,,,,,,,,,,,,,,,,,,,,,,,,,,,,,,,,,,,,,,,,,,0,0,0,4,1,,,,,,,,,,,,,,,,,,
206642,001,2022-11-20_23h59.52.500,Info_measure_main_exp,2022.2.2,Linux x86_64,19.77848101,,,,,,,,,,,,,,,,,,masks/mask_002.jpg,,,,,,,,,,,,,,,,,,,,,,,,,,,,,,,,,,,,,,,,,,,,,,,,0,1,1,1,1,,,,,,,,,,,,,,,,,,
206642,001,2022-11-20_23h59.52.500,Info_measure_main_exp,2022.2.2,Linux x86_64,19.77848101,,,,,,,,,,,,,,,,,,masks/mask_004.jpg,,,,,,,,,,,,,,,,,,,,,,,,,,,,,,,,,,,,,,,,,,,,,,,,0,2,2,3,1,,,,,,,,,,,,,,,,,,
206642,001,2022-11-20_23h59.52.500,Info_measure_main_exp,2022.2.2,Linux x86_64,19.77848101,,,,,,,,,,,,,,,,,,masks/mask_001.jpg,,,,,,,,,,,,,,,,,,,,,,,,,,,,,,,,,,,,,,,,,,,,,,,,0,3,3,0,1,,,,,,,,,,,,,,,,,,
206642,001,2022-11-20_23h59.52.500,Info_measure_main_exp,2022.2.2,Linux x86_64,19.77848101,,,,,,,,,,,,,,,,,,masks/mask_003.jpg,,,,,,,,,,,,,,,,,,,,,,,,,,,,,,,,,,,,,,,,,,,,,,,,0,4,4,2,1,,,,,,,,,,,,,,,,,,
206642,001,2022-11-20_23h59.52.500,Info_measure_main_exp,2022.2.2,Linux x86_64,19.77848101,,,,,,,,,,,,,,,,,,,,,,,,,,,,,,7,1.597,1,,,,,,,,,,,,0,131,5,5,2178,2154,absent_patch/patch0002178.jpg,absent_patch/patch0002154.jpg,,,,,,,,,,,,,,,,,,,,0.024120603,0.054773869,1,0,0,response1disk,23,0.008040201,-0.008542714,1,0,0,center_square,0,22,22,63,1
206642,001,2022-11-20_23h59.52.500,Info_measure_main_exp,2022.2.2,Linux x86_64,19.77848101,,,,,,,,,,,,,,,,,,masks/mask_002.jpg,,,,,,,,,,,,,,,,,,,,,,,,,,,,,,,,,,,,,,,,,,,0,0,0,1,1,,,,,,,,,,,,,,,,,,,,,,,
206642,001,2022-11-20_23h59.52.500,Info_measure_main_exp,2022.2.2,Linux x86_64,19.77848101,,,,,,,,,,,,,,,,,,masks/mask_003.jpg,,,,,,,,,,,,,,,,,,,,,,,,,,,,,,,,,,,,,,,,,,,0,1,1,2,1,,,,,,,,,,,,,,,,,,,,,,,
206642,001,2022-11-20_23h59.52.500,Info_measure_main_exp,2022.2.2,Linux x86_64,19.77848101,,,,,,,,,,,,,,,,,,masks/mask_001.jpg,,,,,,,,,,,,,,,,,,,,,,,,,,,,,,,,,,,,,,,,,,,0,2,2,0,1,,,,,,,,,,,,,,,,,,,,,,,
206642,001,2022-11-20_23h59.52.500,Info_measure_main_exp,2022.2.2,Linux x86_64,19.77848101,,,,,,,,,,,,,,,,,,masks/mask_005.jpg,,,,,,,,,,,,,,,,,,,,,,,,,,,,,,,,,,,,,,,,,,,0,3,3,4,1,,,,,,,,,,,,,,,,,,,,,,,
206642,001,2022-11-20_23h59.52.500,Info_measure_main_exp,2022.2.2,Linux x86_64,19.77848101,,,,,,,,,,,,,,,,,,masks/mask_004.jpg,,,,,,,,,,,,,,,,,,,,,,,,,,,,,,,,,,,,,,,,,,,0,4,4,3,1,,,,,,,,,,,,,,,,,,,,,,,
206642,001,2022-11-20_23h59.52.500,Info_measure_main_exp,2022.2.2,Linux x86_64,19.77848101,,,,,,,,,,,,,,,,,,masks/mask_002.jpg,,,,,,,,,,,,,,,,,,,,,,,,,,,,,,,,,,,,,,,,,,,,,,,,0,0,0,1,1,,,,,,,,,,,,,,,,,,
206642,001,2022-11-20_23h59.52.500,Info_measure_main_exp,2022.2.2,Linux x86_64,19.77848101,,,,,,,,,,,,,,,,,,masks/mask_003.jpg,,,,,,,,,,,,,,,,,,,,,,,,,,,,,,,,,,,,,,,,,,,,,,,,0,1,1,2,1,,,,,,,,,,,,,,,,,,
206642,001,2022-11-20_23h59.52.500,Info_measure_main_exp,2022.2.2,Linux x86_64,19.77848101,,,,,,,,,,,,,,,,,,masks/mask_004.jpg,,,,,,,,,,,,,,,,,,,,,,,,,,,,,,,,,,,,,,,,,,,,,,,,0,2,2,3,1,,,,,,,,,,,,,,,,,,
206642,001,2022-11-20_23h59.52.500,Info_measure_main_exp,2022.2.2,Linux x86_64,19.77848101,,,,,,,,,,,,,,,,,,masks/mask_001.jpg,,,,,,,,,,,,,,,,,,,,,,,,,,,,,,,,,,,,,,,,,,,,,,,,0,3,3,0,1,,,,,,,,,,,,,,,,,,
206642,001,2022-11-20_23h59.52.500,Info_measure_main_exp,2022.2.2,Linux x86_64,19.77848101,,,,,,,,,,,,,,,,,,masks/mask_005.jpg,,,,,,,,,,,,,,,,,,,,,,,,,,,,,,,,,,,,,,,,,,,,,,,,0,4,4,4,1,,,,,,,,,,,,,,,,,,
206642,001,2022-11-20_23h59.52.500,Info_measure_main_exp,2022.2.2,Linux x86_64,19.77848101,,,,,,,,,,,,,,,,,,,,,,,,,,,,,,7,2.829,1,,,,,,,,,,,,0,131,5,5,2082,2166,absent_patch/patch0002082.jpg,absent_patch/patch0002166.jpg,,,,,,,,,,,,,,,,,,,,0.018090452,0.037688442,1,0,0,response1disk,24,0.011055276,-0.003517588,1,0,0,center_square,0,23,23,43,1
206642,001,2022-11-20_23h59.52.500,Info_measure_main_exp,2022.2.2,Linux x86_64,19.77848101,,,,,,,,,,,,,,,,,,masks/mask_002.jpg,,,,,,,,,,,,,,,,,,,,,,,,,,,,,,,,,,,,,,,,,,,0,0,0,1,1,,,,,,,,,,,,,,,,,,,,,,,
206642,001,2022-11-20_23h59.52.500,Info_measure_main_exp,2022.2.2,Linux x86_64,19.77848101,,,,,,,,,,,,,,,,,,masks/mask_004.jpg,,,,,,,,,,,,,,,,,,,,,,,,,,,,,,,,,,,,,,,,,,,0,1,1,3,1,,,,,,,,,,,,,,,,,,,,,,,
206642,001,2022-11-20_23h59.52.500,Info_measure_main_exp,2022.2.2,Linux x86_64,19.77848101,,,,,,,,,,,,,,,,,,masks/mask_003.jpg,,,,,,,,,,,,,,,,,,,,,,,,,,,,,,,,,,,,,,,,,,,0,2,2,2,1,,,,,,,,,,,,,,,,,,,,,,,
206642,001,2022-11-20_23h59.52.500,Info_measure_main_exp,2022.2.2,Linux x86_64,19.77848101,,,,,,,,,,,,,,,,,,masks/mask_001.jpg,,,,,,,,,,,,,,,,,,,,,,,,,,,,,,,,,,,,,,,,,,,0,3,3,0,1,,,,,,,,,,,,,,,,,,,,,,,
206642,001,2022-11-20_23h59.52.500,Info_measure_main_exp,2022.2.2,Linux x86_64,19.77848101,,,,,,,,,,,,,,,,,,masks/mask_005.jpg,,,,,,,,,,,,,,,,,,,,,,,,,,,,,,,,,,,,,,,,,,,0,4,4,4,1,,,,,,,,,,,,,,,,,,,,,,,
206642,001,2022-11-20_23h59.52.500,Info_measure_main_exp,2022.2.2,Linux x86_64,19.77848101,,,,,,,,,,,,,,,,,,masks/mask_005.jpg,,,,,,,,,,,,,,,,,,,,,,,,,,,,,,,,,,,,,,,,,,,,,,,,0,0,0,4,1,,,,,,,,,,,,,,,,,,
206642,001,2022-11-20_23h59.52.500,Info_measure_main_exp,2022.2.2,Linux x86_64,19.77848101,,,,,,,,,,,,,,,,,,masks/mask_004.jpg,,,,,,,,,,,,,,,,,,,,,,,,,,,,,,,,,,,,,,,,,,,,,,,,0,1,1,3,1,,,,,,,,,,,,,,,,,,
206642,001,2022-11-20_23h59.52.500,Info_measure_main_exp,2022.2.2,Linux x86_64,19.77848101,,,,,,,,,,,,,,,,,,masks/mask_003.jpg,,,,,,,,,,,,,,,,,,,,,,,,,,,,,,,,,,,,,,,,,,,,,,,,0,2,2,2,1,,,,,,,,,,,,,,,,,,
206642,001,2022-11-20_23h59.52.500,Info_measure_main_exp,2022.2.2,Linux x86_64,19.77848101,,,,,,,,,,,,,,,,,,masks/mask_001.jpg,,,,,,,,,,,,,,,,,,,,,,,,,,,,,,,,,,,,,,,,,,,,,,,,0,3,3,0,1,,,,,,,,,,,,,,,,,,
206642,001,2022-11-20_23h59.52.500,Info_measure_main_exp,2022.2.2,Linux x86_64,19.77848101,,,,,,,,,,,,,,,,,,masks/mask_002.jpg,,,,,,,,,,,,,,,,,,,,,,,,,,,,,,,,,,,,,,,,,,,,,,,,0,4,4,1,1,,,,,,,,,,,,,,,,,,
206642,001,2022-11-20_23h59.52.500,Info_measure_main_exp,2022.2.2,Linux x86_64,19.77848101,,,,,,,,,,,,,,,,,,,,,,,,,,,,,,7,0.811,1,,,,,,,,,,,,0,131,5,5,2274,2154,absent_patch/patch0002274.jpg,absent_patch/patch0002154.jpg,,,,,,,,,,,,,,,,,,,,0.011055276,0.036683417,1,0,0,response1disk,25,0.006030151,0.007537688,1,0,0,center_square,0,24,24,23,1
206642,001,2022-11-20_23h59.52.500,Info_measure_main_exp,2022.2.2,Linux x86_64,19.77848101,,,,,,,,,,,,,,,,,,masks/mask_004.jpg,,,,,,,,,,,,,,,,,,,,,,,,,,,,,,,,,,,,,,,,,,,0,0,0,3,1,,,,,,,,,,,,,,,,,,,,,,,
206642,001,2022-11-20_23h59.52.500,Info_measure_main_exp,2022.2.2,Linux x86_64,19.77848101,,,,,,,,,,,,,,,,,,masks/mask_005.jpg,,,,,,,,,,,,,,,,,,,,,,,,,,,,,,,,,,,,,,,,,,,0,1,1,4,1,,,,,,,,,,,,,,,,,,,,,,,
206642,001,2022-11-20_23h59.52.500,Info_measure_main_exp,2022.2.2,Linux x86_64,19.77848101,,,,,,,,,,,,,,,,,,masks/mask_003.jpg,,,,,,,,,,,,,,,,,,,,,,,,,,,,,,,,,,,,,,,,,,,0,2,2,2,1,,,,,,,,,,,,,,,,,,,,,,,
206642,001,2022-11-20_23h59.52.500,Info_measure_main_exp,2022.2.2,Linux x86_64,19.77848101,,,,,,,,,,,,,,,,,,masks/mask_002.jpg,,,,,,,,,,,,,,,,,,,,,,,,,,,,,,,,,,,,,,,,,,,0,3,3,1,1,,,,,,,,,,,,,,,,,,,,,,,
206642,001,2022-11-20_23h59.52.500,Info_measure_main_exp,2022.2.2,Linux x86_64,19.77848101,,,,,,,,,,,,,,,,,,masks/mask_001.jpg,,,,,,,,,,,,,,,,,,,,,,,,,,,,,,,,,,,,,,,,,,,0,4,4,0,1,,,,,,,,,,,,,,,,,,,,,,,
206642,001,2022-11-20_23h59.52.500,Info_measure_main_exp,2022.2.2,Linux x86_64,19.77848101,,,,,,,,,,,,,,,,,,masks/mask_003.jpg,,,,,,,,,,,,,,,,,,,,,,,,,,,,,,,,,,,,,,,,,,,,,,,,0,0,0,2,1,,,,,,,,,,,,,,,,,,
206642,001,2022-11-20_23h59.52.500,Info_measure_main_exp,2022.2.2,Linux x86_64,19.77848101,,,,,,,,,,,,,,,,,,masks/mask_001.jpg,,,,,,,,,,,,,,,,,,,,,,,,,,,,,,,,,,,,,,,,,,,,,,,,0,1,1,0,1,,,,,,,,,,,,,,,,,,
206642,001,2022-11-20_23h59.52.500,Info_measure_main_exp,2022.2.2,Linux x86_64,19.77848101,,,,,,,,,,,,,,,,,,masks/mask_004.jpg,,,,,,,,,,,,,,,,,,,,,,,,,,,,,,,,,,,,,,,,,,,,,,,,0,2,2,3,1,,,,,,,,,,,,,,,,,,
206642,001,2022-11-20_23h59.52.500,Info_measure_main_exp,2022.2.2,Linux x86_64,19.77848101,,,,,,,,,,,,,,,,,,masks/mask_005.jpg,,,,,,,,,,,,,,,,,,,,,,,,,,,,,,,,,,,,,,,,,,,,,,,,0,3,3,4,1,,,,,,,,,,,,,,,,,,
206642,001,2022-11-20_23h59.52.500,Info_measure_main_exp,2022.2.2,Linux x86_64,19.77848101,,,,,,,,,,,,,,,,,,masks/mask_002.jpg,,,,,,,,,,,,,,,,,,,,,,,,,,,,,,,,,,,,,,,,,,,,,,,,0,4,4,1,1,,,,,,,,,,,,,,,,,,
206642,001,2022-11-20_23h59.52.500,Info_measure_main_exp,2022.2.2,Linux x86_64,19.77848101,,,,,,,,,,,,,,,,,,,,,,,,,,,,,,0,1.42,1,,,,,,,,,,,,0,131,5,5,2142,2142,absent_patch/patch0002142.jpg,absent_patch/patch0002142.jpg,,,,,,,,,,,,,,,,,,,,-0.014070352,0.059798995,1,0,0,response7disk,26,-0.007035176,0.001507538,1,0,0,center_square,0,25,25,13,1
206642,001,2022-11-20_23h59.52.500,Info_measure_main_exp,2022.2.2,Linux x86_64,19.77848101,,,,,,,,,,,,,,,,,,masks/mask_004.jpg,,,,,,,,,,,,,,,,,,,,,,,,,,,,,,,,,,,,,,,,,,,0,0,0,3,1,,,,,,,,,,,,,,,,,,,,,,,
206642,001,2022-11-20_23h59.52.500,Info_measure_main_exp,2022.2.2,Linux x86_64,19.77848101,,,,,,,,,,,,,,,,,,masks/mask_002.jpg,,,,,,,,,,,,,,,,,,,,,,,,,,,,,,,,,,,,,,,,,,,0,1,1,1,1,,,,,,,,,,,,,,,,,,,,,,,
206642,001,2022-11-20_23h59.52.500,Info_measure_main_exp,2022.2.2,Linux x86_64,19.77848101,,,,,,,,,,,,,,,,,,masks/mask_001.jpg,,,,,,,,,,,,,,,,,,,,,,,,,,,,,,,,,,,,,,,,,,,0,2,2,0,1,,,,,,,,,,,,,,,,,,,,,,,
206642,001,2022-11-20_23h59.52.500,Info_measure_main_exp,2022.2.2,Linux x86_64,19.77848101,,,,,,,,,,,,,,,,,,masks/mask_003.jpg,,,,,,,,,,,,,,,,,,,,,,,,,,,,,,,,,,,,,,,,,,,0,3,3,2,1,,,,,,,,,,,,,,,,,,,,,,,
206642,001,2022-11-20_23h59.52.500,Info_measure_main_exp,2022.2.2,Linux x86_64,19.77848101,,,,,,,,,,,,,,,,,,masks/mask_005.jpg,,,,,,,,,,,,,,,,,,,,,,,,,,,,,,,,,,,,,,,,,,,0,4,4,4,1,,,,,,,,,,,,,,,,,,,,,,,
206642,001,2022-11-20_23h59.52.500,Info_measure_main_exp,2022.2.2,Linux x86_64,19.77848101,,,,,,,,,,,,,,,,,,masks/mask_001.jpg,,,,,,,,,,,,,,,,,,,,,,,,,,,,,,,,,,,,,,,,,,,,,,,,0,0,0,0,1,,,,,,,,,,,,,,,,,,
206642,001,2022-11-20_23h59.52.500,Info_measure_main_exp,2022.2.2,Linux x86_64,19.77848101,,,,,,,,,,,,,,,,,,masks/mask_003.jpg,,,,,,,,,,,,,,,,,,,,,,,,,,,,,,,,,,,,,,,,,,,,,,,,0,1,1,2,1,,,,,,,,,,,,,,,,,,
206642,001,2022-11-20_23h59.52.500,Info_measure_main_exp,2022.2.2,Linux x86_64,19.77848101,,,,,,,,,,,,,,,,,,masks/mask_002.jpg,,,,,,,,,,,,,,,,,,,,,,,,,,,,,,,,,,,,,,,,,,,,,,,,0,2,2,1,1,,,,,,,,,,,,,,,,,,
206642,001,2022-11-20_23h59.52.500,Info_measure_main_exp,2022.2.2,Linux x86_64,19.77848101,,,,,,,,,,,,,,,,,,masks/mask_005.jpg,,,,,,,,,,,,,,,,,,,,,,,,,,,,,,,,,,,,,,,,,,,,,,,,0,3,3,4,1,,,,,,,,,,,,,,,,,,
206642,001,2022-11-20_23h59.52.500,Info_measure_main_exp,2022.2.2,Linux x86_64,19.77848101,,,,,,,,,,,,,,,,,,masks/mask_004.jpg,,,,,,,,,,,,,,,,,,,,,,,,,,,,,,,,,,,,,,,,,,,,,,,,0,4,4,3,1,,,,,,,,,,,,,,,,,,
206642,001,2022-11-20_23h59.52.500,Info_measure_main_exp,2022.2.2,Linux x86_64,19.77848101,,,,,,,,,,,,,,,,,,,,,,,,,,,,,,3,1.487,1,,,,,,,,,,,,0,131,5,5,2274,2166,absent_patch/patch0002274.jpg,absent_patch/patch0002166.jpg,,,,,,,,,,,,,,,,,,,,-0.009045226,-0.040703518,1,0,0,response5disk,27,0.003015075,0.001507538,1,0,0,center_square,0,26,26,78,1
206642,001,2022-11-20_23h59.52.500,Info_measure_main_exp,2022.2.2,Linux x86_64,19.77848101,,,,,,,,,,,,,,,,,,masks/mask_005.jpg,,,,,,,,,,,,,,,,,,,,,,,,,,,,,,,,,,,,,,,,,,,0,0,0,4,1,,,,,,,,,,,,,,,,,,,,,,,
206642,001,2022-11-20_23h59.52.500,Info_measure_main_exp,2022.2.2,Linux x86_64,19.77848101,,,,,,,,,,,,,,,,,,masks/mask_001.jpg,,,,,,,,,,,,,,,,,,,,,,,,,,,,,,,,,,,,,,,,,,,0,1,1,0,1,,,,,,,,,,,,,,,,,,,,,,,
206642,001,2022-11-20_23h59.52.500,Info_measure_main_exp,2022.2.2,Linux x86_64,19.77848101,,,,,,,,,,,,,,,,,,masks/mask_002.jpg,,,,,,,,,,,,,,,,,,,,,,,,,,,,,,,,,,,,,,,,,,,0,2,2,1,1,,,,,,,,,,,,,,,,,,,,,,,
206642,001,2022-11-20_23h59.52.500,Info_measure_main_exp,2022.2.2,Linux x86_64,19.77848101,,,,,,,,,,,,,,,,,,masks/mask_004.jpg,,,,,,,,,,,,,,,,,,,,,,,,,,,,,,,,,,,,,,,,,,,0,3,3,3,1,,,,,,,,,,,,,,,,,,,,,,,
206642,001,2022-11-20_23h59.52.500,Info_measure_main_exp,2022.2.2,Linux x86_64,19.77848101,,,,,,,,,,,,,,,,,,masks/mask_003.jpg,,,,,,,,,,,,,,,,,,,,,,,,,,,,,,,,,,,,,,,,,,,0,4,4,2,1,,,,,,,,,,,,,,,,,,,,,,,
206642,001,2022-11-20_23h59.52.500,Info_measure_main_exp,2022.2.2,Linux x86_64,19.77848101,,,,,,,,,,,,,,,,,,masks/mask_001.jpg,,,,,,,,,,,,,,,,,,,,,,,,,,,,,,,,,,,,,,,,,,,,,,,,0,0,0,0,1,,,,,,,,,,,,,,,,,,
206642,001,2022-11-20_23h59.52.500,Info_measure_main_exp,2022.2.2,Linux x86_64,19.77848101,,,,,,,,,,,,,,,,,,masks/mask_004.jpg,,,,,,,,,,,,,,,,,,,,,,,,,,,,,,,,,,,,,,,,,,,,,,,,0,1,1,3,1,,,,,,,,,,,,,,,,,,
206642,001,2022-11-20_23h59.52.500,Info_measure_main_exp,2022.2.2,Linux x86_64,19.77848101,,,,,,,,,,,,,,,,,,masks/mask_002.jpg,,,,,,,,,,,,,,,,,,,,,,,,,,,,,,,,,,,,,,,,,,,,,,,,0,2,2,1,1,,,,,,,,,,,,,,,,,,
206642,001,2022-11-20_23h59.52.500,Info_measure_main_exp,2022.2.2,Linux x86_64,19.77848101,,,,,,,,,,,,,,,,,,masks/mask_003.jpg,,,,,,,,,,,,,,,,,,,,,,,,,,,,,,,,,,,,,,,,,,,,,,,,0,3,3,2,1,,,,,,,,,,,,,,,,,,
206642,001,2022-11-20_23h59.52.500,Info_measure_main_exp,2022.2.2,Linux x86_64,19.77848101,,,,,,,,,,,,,,,,,,masks/mask_005.jpg,,,,,,,,,,,,,,,,,,,,,,,,,,,,,,,,,,,,,,,,,,,,,,,,0,4,4,4,1,,,,,,,,,,,,,,,,,,
206642,001,2022-11-20_23h59.52.500,Info_measure_main_exp,2022.2.2,Linux x86_64,19.77848101,,,,,,,,,,,,,,,,,,,,,,,,,,,,,,3,1.932,1,,,,,,,,,,,,1,131,5,5,1,2214,present_patch/cong_131_5_a.jpg,absent_patch/patch0002214.jpg,,,,,,,,,,,,,,,,,,,,-0.011055276,-0.039698492,1,0,0,response5disk,28,0.007035176,0.007537688,1,0,0,center_square,0,27,27,4,1
206642,001,2022-11-20_23h59.52.500,Info_measure_main_exp,2022.2.2,Linux x86_64,19.77848101,,,,,,,,,,,,,,,,,,masks/mask_002.jpg,,,,,,,,,,,,,,,,,,,,,,,,,,,,,,,,,,,,,,,,,,,0,0,0,1,1,,,,,,,,,,,,,,,,,,,,,,,
206642,001,2022-11-20_23h59.52.500,Info_measure_main_exp,2022.2.2,Linux x86_64,19.77848101,,,,,,,,,,,,,,,,,,masks/mask_001.jpg,,,,,,,,,,,,,,,,,,,,,,,,,,,,,,,,,,,,,,,,,,,0,1,1,0,1,,,,,,,,,,,,,,,,,,,,,,,
206642,001,2022-11-20_23h59.52.500,Info_measure_main_exp,2022.2.2,Linux x86_64,19.77848101,,,,,,,,,,,,,,,,,,masks/mask_003.jpg,,,,,,,,,,,,,,,,,,,,,,,,,,,,,,,,,,,,,,,,,,,0,2,2,2,1,,,,,,,,,,,,,,,,,,,,,,,
206642,001,2022-11-20_23h59.52.500,Info_measure_main_exp,2022.2.2,Linux x86_64,19.77848101,,,,,,,,,,,,,,,,,,masks/mask_004.jpg,,,,,,,,,,,,,,,,,,,,,,,,,,,,,,,,,,,,,,,,,,,0,3,3,3,1,,,,,,,,,,,,,,,,,,,,,,,
206642,001,2022-11-20_23h59.52.500,Info_measure_main_exp,2022.2.2,Linux x86_64,19.77848101,,,,,,,,,,,,,,,,,,masks/mask_005.jpg,,,,,,,,,,,,,,,,,,,,,,,,,,,,,,,,,,,,,,,,,,,0,4,4,4,1,,,,,,,,,,,,,,,,,,,,,,,
206642,001,2022-11-20_23h59.52.500,Info_measure_main_exp,2022.2.2,Linux x86_64,19.77848101,,,,,,,,,,,,,,,,,,masks/mask_001.jpg,,,,,,,,,,,,,,,,,,,,,,,,,,,,,,,,,,,,,,,,,,,,,,,,0,0,0,0,1,,,,,,,,,,,,,,,,,,
206642,001,2022-11-20_23h59.52.500,Info_measure_main_exp,2022.2.2,Linux x86_64,19.77848101,,,,,,,,,,,,,,,,,,masks/mask_004.jpg,,,,,,,,,,,,,,,,,,,,,,,,,,,,,,,,,,,,,,,,,,,,,,,,0,1,1,3,1,,,,,,,,,,,,,,,,,,
206642,001,2022-11-20_23h59.52.500,Info_measure_main_exp,2022.2.2,Linux x86_64,19.77848101,,,,,,,,,,,,,,,,,,masks/mask_002.jpg,,,,,,,,,,,,,,,,,,,,,,,,,,,,,,,,,,,,,,,,,,,,,,,,0,2,2,1,1,,,,,,,,,,,,,,,,,,
206642,001,2022-11-20_23h59.52.500,Info_measure_main_exp,2022.2.2,Linux x86_64,19.77848101,,,,,,,,,,,,,,,,,,masks/mask_003.jpg,,,,,,,,,,,,,,,,,,,,,,,,,,,,,,,,,,,,,,,,,,,,,,,,0,3,3,2,1,,,,,,,,,,,,,,,,,,
206642,001,2022-11-20_23h59.52.500,Info_measure_main_exp,2022.2.2,Linux x86_64,19.77848101,,,,,,,,,,,,,,,,,,masks/mask_005.jpg,,,,,,,,,,,,,,,,,,,,,,,,,,,,,,,,,,,,,,,,,,,,,,,,0,4,4,4,1,,,,,,,,,,,,,,,,,,
206642,001,2022-11-20_23h59.52.500,Info_measure_main_exp,2022.2.2,Linux x86_64,19.77848101,,,,,,,,,,,,,,,,,,,,,,,,,,,,,,2,1.752,1,,,,,,,,,,,,0,131,5,5,2190,2082,absent_patch/patch0002190.jpg,absent_patch/patch0002082.jpg,,,,,,,,,,,,,,,,,,,,-0.105527638,-0.080904523,1,0,0,response5disk,29,-0.003015075,-0.001507538,1,0,0,center_square,0,28,28,112,1
206642,001,2022-11-20_23h59.52.500,Info_measure_main_exp,2022.2.2,Linux x86_64,19.77848101,,,,,,,,,,,,,,,,,,masks/mask_004.jpg,,,,,,,,,,,,,,,,,,,,,,,,,,,,,,,,,,,,,,,,,,,0,0,0,3,1,,,,,,,,,,,,,,,,,,,,,,,
206642,001,2022-11-20_23h59.52.500,Info_measure_main_exp,2022.2.2,Linux x86_64,19.77848101,,,,,,,,,,,,,,,,,,masks/mask_005.jpg,,,,,,,,,,,,,,,,,,,,,,,,,,,,,,,,,,,,,,,,,,,0,1,1,4,1,,,,,,,,,,,,,,,,,,,,,,,
206642,001,2022-11-20_23h59.52.500,Info_measure_main_exp,2022.2.2,Linux x86_64,19.77848101,,,,,,,,,,,,,,,,,,masks/mask_003.jpg,,,,,,,,,,,,,,,,,,,,,,,,,,,,,,,,,,,,,,,,,,,0,2,2,2,1,,,,,,,,,,,,,,,,,,,,,,,
206642,001,2022-11-20_23h59.52.500,Info_measure_main_exp,2022.2.2,Linux x86_64,19.77848101,,,,,,,,,,,,,,,,,,masks/mask_001.jpg,,,,,,,,,,,,,,,,,,,,,,,,,,,,,,,,,,,,,,,,,,,0,3,3,0,1,,,,,,,,,,,,,,,,,,,,,,,
206642,001,2022-11-20_23h59.52.500,Info_measure_main_exp,2022.2.2,Linux x86_64,19.77848101,,,,,,,,,,,,,,,,,,masks/mask_002.jpg,,,,,,,,,,,,,,,,,,,,,,,,,,,,,,,,,,,,,,,,,,,0,4,4,1,1,,,,,,,,,,,,,,,,,,,,,,,
206642,001,2022-11-20_23h59.52.500,Info_measure_main_exp,2022.2.2,Linux x86_64,19.77848101,,,,,,,,,,,,,,,,,,masks/mask_005.jpg,,,,,,,,,,,,,,,,,,,,,,,,,,,,,,,,,,,,,,,,,,,,,,,,0,0,0,4,1,,,,,,,,,,,,,,,,,,
206642,001,2022-11-20_23h59.52.500,Info_measure_main_exp,2022.2.2,Linux x86_64,19.77848101,,,,,,,,,,,,,,,,,,masks/mask_001.jpg,,,,,,,,,,,,,,,,,,,,,,,,,,,,,,,,,,,,,,,,,,,,,,,,0,1,1,0,1,,,,,,,,,,,,,,,,,,
206642,001,2022-11-20_23h59.52.500,Info_measure_main_exp,2022.2.2,Linux x86_64,19.77848101,,,,,,,,,,,,,,,,,,masks/mask_002.jpg,,,,,,,,,,,,,,,,,,,,,,,,,,,,,,,,,,,,,,,,,,,,,,,,0,2,2,1,1,,,,,,,,,,,,,,,,,,
206642,001,2022-11-20_23h59.52.500,Info_measure_main_exp,2022.2.2,Linux x86_64,19.77848101,,,,,,,,,,,,,,,,,,masks/mask_004.jpg,,,,,,,,,,,,,,,,,,,,,,,,,,,,,,,,,,,,,,,,,,,,,,,,0,3,3,3,1,,,,,,,,,,,,,,,,,,
206642,001,2022-11-20_23h59.52.500,Info_measure_main_exp,2022.2.2,Linux x86_64,19.77848101,,,,,,,,,,,,,,,,,,masks/mask_003.jpg,,,,,,,,,,,,,,,,,,,,,,,,,,,,,,,,,,,,,,,,,,,,,,,,0,4,4,2,1,,,,,,,,,,,,,,,,,,
206642,001,2022-11-20_23h59.52.500,Info_measure_main_exp,2022.2.2,Linux x86_64,19.77848101,,,,,,,,,,,,,,,,,,,,,,,,,,,,,,3,1.531,1,,,,,,,,,,,,0,131,5,5,1974,1950,absent_patch/patch0001974.jpg,absent_patch/patch0001950.jpg,,,,,,,,,,,,,,,,,,,,-0.019095477,-0.108040201,1,0,0,response5disk,30,0.008040201,0.001507538,1,0,0,center_square,0,29,29,17,1
206642,001,2022-11-20_23h59.52.500,Info_measure_main_exp,2022.2.2,Linux x86_64,19.77848101,,,,,,,,,,,,,,,,,,masks/mask_001.jpg,,,,,,,,,,,,,,,,,,,,,,,,,,,,,,,,,,,,,,,,,,,0,0,0,0,1,,,,,,,,,,,,,,,,,,,,,,,
206642,001,2022-11-20_23h59.52.500,Info_measure_main_exp,2022.2.2,Linux x86_64,19.77848101,,,,,,,,,,,,,,,,,,masks/mask_005.jpg,,,,,,,,,,,,,,,,,,,,,,,,,,,,,,,,,,,,,,,,,,,0,1,1,4,1,,,,,,,,,,,,,,,,,,,,,,,
206642,001,2022-11-20_23h59.52.500,Info_measure_main_exp,2022.2.2,Linux x86_64,19.77848101,,,,,,,,,,,,,,,,,,masks/mask_004.jpg,,,,,,,,,,,,,,,,,,,,,,,,,,,,,,,,,,,,,,,,,,,0,2,2,3,1,,,,,,,,,,,,,,,,,,,,,,,
206642,001,2022-11-20_23h59.52.500,Info_measure_main_exp,2022.2.2,Linux x86_64,19.77848101,,,,,,,,,,,,,,,,,,masks/mask_002.jpg,,,,,,,,,,,,,,,,,,,,,,,,,,,,,,,,,,,,,,,,,,,0,3,3,1,1,,,,,,,,,,,,,,,,,,,,,,,
206642,001,2022-11-20_23h59.52.500,Info_measure_main_exp,2022.2.2,Linux x86_64,19.77848101,,,,,,,,,,,,,,,,,,masks/mask_003.jpg,,,,,,,,,,,,,,,,,,,,,,,,,,,,,,,,,,,,,,,,,,,0,4,4,2,1,,,,,,,,,,,,,,,,,,,,,,,
206642,001,2022-11-20_23h59.52.500,Info_measure_main_exp,2022.2.2,Linux x86_64,19.77848101,,,,,,,,,,,,,,,,,,masks/mask_001.jpg,,,,,,,,,,,,,,,,,,,,,,,,,,,,,,,,,,,,,,,,,,,,,,,,0,0,0,0,1,,,,,,,,,,,,,,,,,,
206642,001,2022-11-20_23h59.52.500,Info_measure_main_exp,2022.2.2,Linux x86_64,19.77848101,,,,,,,,,,,,,,,,,,masks/mask_002.jpg,,,,,,,,,,,,,,,,,,,,,,,,,,,,,,,,,,,,,,,,,,,,,,,,0,1,1,1,1,,,,,,,,,,,,,,,,,,
206642,001,2022-11-20_23h59.52.500,Info_measure_main_exp,2022.2.2,Linux x86_64,19.77848101,,,,,,,,,,,,,,,,,,masks/mask_004.jpg,,,,,,,,,,,,,,,,,,,,,,,,,,,,,,,,,,,,,,,,,,,,,,,,0,2,2,3,1,,,,,,,,,,,,,,,,,,
206642,001,2022-11-20_23h59.52.500,Info_measure_main_exp,2022.2.2,Linux x86_64,19.77848101,,,,,,,,,,,,,,,,,,masks/mask_003.jpg,,,,,,,,,,,,,,,,,,,,,,,,,,,,,,,,,,,,,,,,,,,,,,,,0,3,3,2,1,,,,,,,,,,,,,,,,,,
206642,001,2022-11-20_23h59.52.500,Info_measure_main_exp,2022.2.2,Linux x86_64,19.77848101,,,,,,,,,,,,,,,,,,masks/mask_005.jpg,,,,,,,,,,,,,,,,,,,,,,,,,,,,,,,,,,,,,,,,,,,,,,,,0,4,4,4,1,,,,,,,,,,,,,,,,,,
206642,001,2022-11-20_23h59.52.500,Info_measure_main_exp,2022.2.2,Linux x86_64,19.77848101,,,,,,,,,,,,,,,,,,,,,,,,,,,,,,7,0.729,1,,,,,,,,,,,,0,131,5,5,2082,1986,absent_patch/patch0002082.jpg,absent_patch/patch0001986.jpg,,,,,,,,,,,,,,,,,,,,0.025125628,0.068844221,1,0,0,response1disk,31,0.010050251,0.000502513,1,0,0,center_square,0,30,30,94,1
206642,001,2022-11-20_23h59.52.500,Info_measure_main_exp,2022.2.2,Linux x86_64,19.77848101,,,,,,,,,,,,,,,,,,masks/mask_001.jpg,,,,,,,,,,,,,,,,,,,,,,,,,,,,,,,,,,,,,,,,,,,0,0,0,0,1,,,,,,,,,,,,,,,,,,,,,,,
206642,001,2022-11-20_23h59.52.500,Info_measure_main_exp,2022.2.2,Linux x86_64,19.77848101,,,,,,,,,,,,,,,,,,masks/mask_005.jpg,,,,,,,,,,,,,,,,,,,,,,,,,,,,,,,,,,,,,,,,,,,0,1,1,4,1,,,,,,,,,,,,,,,,,,,,,,,
206642,001,2022-11-20_23h59.52.500,Info_measure_main_exp,2022.2.2,Linux x86_64,19.77848101,,,,,,,,,,,,,,,,,,masks/mask_002.jpg,,,,,,,,,,,,,,,,,,,,,,,,,,,,,,,,,,,,,,,,,,,0,2,2,1,1,,,,,,,,,,,,,,,,,,,,,,,
206642,001,2022-11-20_23h59.52.500,Info_measure_main_exp,2022.2.2,Linux x86_64,19.77848101,,,,,,,,,,,,,,,,,,masks/mask_003.jpg,,,,,,,,,,,,,,,,,,,,,,,,,,,,,,,,,,,,,,,,,,,0,3,3,2,1,,,,,,,,,,,,,,,,,,,,,,,
206642,001,2022-11-20_23h59.52.500,Info_measure_main_exp,2022.2.2,Linux x86_64,19.77848101,,,,,,,,,,,,,,,,,,masks/mask_004.jpg,,,,,,,,,,,,,,,,,,,,,,,,,,,,,,,,,,,,,,,,,,,0,4,4,3,1,,,,,,,,,,,,,,,,,,,,,,,
206642,001,2022-11-20_23h59.52.500,Info_measure_main_exp,2022.2.2,Linux x86_64,19.77848101,,,,,,,,,,,,,,,,,,masks/mask_005.jpg,,,,,,,,,,,,,,,,,,,,,,,,,,,,,,,,,,,,,,,,,,,,,,,,0,0,0,4,1,,,,,,,,,,,,,,,,,,
206642,001,2022-11-20_23h59.52.500,Info_measure_main_exp,2022.2.2,Linux x86_64,19.77848101,,,,,,,,,,,,,,,,,,masks/mask_003.jpg,,,,,,,,,,,,,,,,,,,,,,,,,,,,,,,,,,,,,,,,,,,,,,,,0,1,1,2,1,,,,,,,,,,,,,,,,,,
206642,001,2022-11-20_23h59.52.500,Info_measure_main_exp,2022.2.2,Linux x86_64,19.77848101,,,,,,,,,,,,,,,,,,masks/mask_002.jpg,,,,,,,,,,,,,,,,,,,,,,,,,,,,,,,,,,,,,,,,,,,,,,,,0,2,2,1,1,,,,,,,,,,,,,,,,,,
206642,001,2022-11-20_23h59.52.500,Info_measure_main_exp,2022.2.2,Linux x86_64,19.77848101,,,,,,,,,,,,,,,,,,masks/mask_001.jpg,,,,,,,,,,,,,,,,,,,,,,,,,,,,,,,,,,,,,,,,,,,,,,,,0,3,3,0,1,,,,,,,,,,,,,,,,,,
206642,001,2022-11-20_23h59.52.500,Info_measure_main_exp,2022.2.2,Linux x86_64,19.77848101,,,,,,,,,,,,,,,,,,masks/mask_004.jpg,,,,,,,,,,,,,,,,,,,,,,,,,,,,,,,,,,,,,,,,,,,,,,,,0,4,4,3,1,,,,,,,,,,,,,,,,,,
206642,001,2022-11-20_23h59.52.500,Info_measure_main_exp,2022.2.2,Linux x86_64,19.77848101,,,,,,,,,,,,,,,,,,,,,,,,,,,,,,7,0.879,1,,,,,,,,,,,,0,131,5,5,2166,2154,absent_patch/patch0002166.jpg,absent_patch/patch0002154.jpg,,,,,,,,,,,,,,,,,,,,0.034170854,0.1,1,0,0,response1disk,32,0.016080402,0.000502513,1,0,0,center_square,0,31,31,79,1
206642,001,2022-11-20_23h59.52.500,Info_measure_main_exp,2022.2.2,Linux x86_64,19.77848101,,,,,,,,,,,,,,,,,,masks/mask_001.jpg,,,,,,,,,,,,,,,,,,,,,,,,,,,,,,,,,,,,,,,,,,,0,0,0,0,1,,,,,,,,,,,,,,,,,,,,,,,
206642,001,2022-11-20_23h59.52.500,Info_measure_main_exp,2022.2.2,Linux x86_64,19.77848101,,,,,,,,,,,,,,,,,,masks/mask_003.jpg,,,,,,,,,,,,,,,,,,,,,,,,,,,,,,,,,,,,,,,,,,,0,1,1,2,1,,,,,,,,,,,,,,,,,,,,,,,
206642,001,2022-11-20_23h59.52.500,Info_measure_main_exp,2022.2.2,Linux x86_64,19.77848101,,,,,,,,,,,,,,,,,,masks/mask_005.jpg,,,,,,,,,,,,,,,,,,,,,,,,,,,,,,,,,,,,,,,,,,,0,2,2,4,1,,,,,,,,,,,,,,,,,,,,,,,
206642,001,2022-11-20_23h59.52.500,Info_measure_main_exp,2022.2.2,Linux x86_64,19.77848101,,,,,,,,,,,,,,,,,,masks/mask_004.jpg,,,,,,,,,,,,,,,,,,,,,,,,,,,,,,,,,,,,,,,,,,,0,3,3,3,1,,,,,,,,,,,,,,,,,,,,,,,
206642,001,2022-11-20_23h59.52.500,Info_measure_main_exp,2022.2.2,Linux x86_64,19.77848101,,,,,,,,,,,,,,,,,,masks/mask_002.jpg,,,,,,,,,,,,,,,,,,,,,,,,,,,,,,,,,,,,,,,,,,,0,4,4,1,1,,,,,,,,,,,,,,,,,,,,,,,
206642,001,2022-11-20_23h59.52.500,Info_measure_main_exp,2022.2.2,Linux x86_64,19.77848101,,,,,,,,,,,,,,,,,,masks/mask_005.jpg,,,,,,,,,,,,,,,,,,,,,,,,,,,,,,,,,,,,,,,,,,,,,,,,0,0,0,4,1,,,,,,,,,,,,,,,,,,
206642,001,2022-11-20_23h59.52.500,Info_measure_main_exp,2022.2.2,Linux x86_64,19.77848101,,,,,,,,,,,,,,,,,,masks/mask_001.jpg,,,,,,,,,,,,,,,,,,,,,,,,,,,,,,,,,,,,,,,,,,,,,,,,0,1,1,0,1,,,,,,,,,,,,,,,,,,
206642,001,2022-11-20_23h59.52.500,Info_measure_main_exp,2022.2.2,Linux x86_64,19.77848101,,,,,,,,,,,,,,,,,,masks/mask_004.jpg,,,,,,,,,,,,,,,,,,,,,,,,,,,,,,,,,,,,,,,,,,,,,,,,0,2,2,3,1,,,,,,,,,,,,,,,,,,
206642,001,2022-11-20_23h59.52.500,Info_measure_main_exp,2022.2.2,Linux x86_64,19.77848101,,,,,,,,,,,,,,,,,,masks/mask_002.jpg,,,,,,,,,,,,,,,,,,,,,,,,,,,,,,,,,,,,,,,,,,,,,,,,0,3,3,1,1,,,,,,,,,,,,,,,,,,
206642,001,2022-11-20_23h59.52.500,Info_measure_main_exp,2022.2.2,Linux x86_64,19.77848101,,,,,,,,,,,,,,,,,,masks/mask_003.jpg,,,,,,,,,,,,,,,,,,,,,,,,,,,,,,,,,,,,,,,,,,,,,,,,0,4,4,2,1,,,,,,,,,,,,,,,,,,
206642,001,2022-11-20_23h59.52.500,Info_measure_main_exp,2022.2.2,Linux x86_64,19.77848101,,,,,,,,,,,,,,,,,,,,,,,,,,,,,,3,1.11,1,,,,,,,,,,,,0,131,5,5,2154,1950,absent_patch/patch0002154.jpg,absent_patch/patch0001950.jpg,,,,,,,,,,,,,,,,,,,,-0.007035176,-0.053768844,1,0,0,response5disk,33,0.006030151,0.001507538,1,0,0,center_square,0,32,32,96,1
206642,001,2022-11-20_23h59.52.500,Info_measure_main_exp,2022.2.2,Linux x86_64,19.77848101,,,,,,,,,,,,,,,,,,masks/mask_003.jpg,,,,,,,,,,,,,,,,,,,,,,,,,,,,,,,,,,,,,,,,,,,0,0,0,2,1,,,,,,,,,,,,,,,,,,,,,,,
206642,001,2022-11-20_23h59.52.500,Info_measure_main_exp,2022.2.2,Linux x86_64,19.77848101,,,,,,,,,,,,,,,,,,masks/mask_005.jpg,,,,,,,,,,,,,,,,,,,,,,,,,,,,,,,,,,,,,,,,,,,0,1,1,4,1,,,,,,,,,,,,,,,,,,,,,,,
206642,001,2022-11-20_23h59.52.500,Info_measure_main_exp,2022.2.2,Linux x86_64,19.77848101,,,,,,,,,,,,,,,,,,masks/mask_004.jpg,,,,,,,,,,,,,,,,,,,,,,,,,,,,,,,,,,,,,,,,,,,0,2,2,3,1,,,,,,,,,,,,,,,,,,,,,,,
206642,001,2022-11-20_23h59.52.500,Info_measure_main_exp,2022.2.2,Linux x86_64,19.77848101,,,,,,,,,,,,,,,,,,masks/mask_002.jpg,,,,,,,,,,,,,,,,,,,,,,,,,,,,,,,,,,,,,,,,,,,0,3,3,1,1,,,,,,,,,,,,,,,,,,,,,,,
206642,001,2022-11-20_23h59.52.500,Info_measure_main_exp,2022.2.2,Linux x86_64,19.77848101,,,,,,,,,,,,,,,,,,masks/mask_001.jpg,,,,,,,,,,,,,,,,,,,,,,,,,,,,,,,,,,,,,,,,,,,0,4,4,0,1,,,,,,,,,,,,,,,,,,,,,,,
206642,001,2022-11-20_23h59.52.500,Info_measure_main_exp,2022.2.2,Linux x86_64,19.77848101,,,,,,,,,,,,,,,,,,masks/mask_004.jpg,,,,,,,,,,,,,,,,,,,,,,,,,,,,,,,,,,,,,,,,,,,,,,,,0,0,0,3,1,,,,,,,,,,,,,,,,,,
206642,001,2022-11-20_23h59.52.500,Info_measure_main_exp,2022.2.2,Linux x86_64,19.77848101,,,,,,,,,,,,,,,,,,masks/mask_002.jpg,,,,,,,,,,,,,,,,,,,,,,,,,,,,,,,,,,,,,,,,,,,,,,,,0,1,1,1,1,,,,,,,,,,,,,,,,,,
206642,001,2022-11-20_23h59.52.500,Info_measure_main_exp,2022.2.2,Linux x86_64,19.77848101,,,,,,,,,,,,,,,,,,masks/mask_005.jpg,,,,,,,,,,,,,,,,,,,,,,,,,,,,,,,,,,,,,,,,,,,,,,,,0,2,2,4,1,,,,,,,,,,,,,,,,,,
206642,001,2022-11-20_23h59.52.500,Info_measure_main_exp,2022.2.2,Linux x86_64,19.77848101,,,,,,,,,,,,,,,,,,masks/mask_001.jpg,,,,,,,,,,,,,,,,,,,,,,,,,,,,,,,,,,,,,,,,,,,,,,,,0,3,3,0,1,,,,,,,,,,,,,,,,,,
206642,001,2022-11-20_23h59.52.500,Info_measure_main_exp,2022.2.2,Linux x86_64,19.77848101,,,,,,,,,,,,,,,,,,masks/mask_003.jpg,,,,,,,,,,,,,,,,,,,,,,,,,,,,,,,,,,,,,,,,,,,,,,,,0,4,4,2,1,,,,,,,,,,,,,,,,,,
206642,001,2022-11-20_23h59.52.500,Info_measure_main_exp,2022.2.2,Linux x86_64,19.77848101,,,,,,,,,,,,,,,,,,,,,,,,,,,,,,0,1.244,1,,,,,,,,,,,,1,131,5,5,1,1,present_patch/cong_131_5_a.jpg,present_patch/cong_131_5_a.jpg,,,,,,,,,,,,,,,,,,,,-0.010050251,0.044723618,1,0,0,response7disk,34,-0.003015075,-0.001507538,1,0,0,center_square,0,33,33,30,1
206642,001,2022-11-20_23h59.52.500,Info_measure_main_exp,2022.2.2,Linux x86_64,19.77848101,,,,,,,,,,,,,,,,,,masks/mask_005.jpg,,,,,,,,,,,,,,,,,,,,,,,,,,,,,,,,,,,,,,,,,,,0,0,0,4,1,,,,,,,,,,,,,,,,,,,,,,,
206642,001,2022-11-20_23h59.52.500,Info_measure_main_exp,2022.2.2,Linux x86_64,19.77848101,,,,,,,,,,,,,,,,,,masks/mask_001.jpg,,,,,,,,,,,,,,,,,,,,,,,,,,,,,,,,,,,,,,,,,,,0,1,1,0,1,,,,,,,,,,,,,,,,,,,,,,,
206642,001,2022-11-20_23h59.52.500,Info_measure_main_exp,2022.2.2,Linux x86_64,19.77848101,,,,,,,,,,,,,,,,,,masks/mask_002.jpg,,,,,,,,,,,,,,,,,,,,,,,,,,,,,,,,,,,,,,,,,,,0,2,2,1,1,,,,,,,,,,,,,,,,,,,,,,,
206642,001,2022-11-20_23h59.52.500,Info_measure_main_exp,2022.2.2,Linux x86_64,19.77848101,,,,,,,,,,,,,,,,,,masks/mask_004.jpg,,,,,,,,,,,,,,,,,,,,,,,,,,,,,,,,,,,,,,,,,,,0,3,3,3,1,,,,,,,,,,,,,,,,,,,,,,,
206642,001,2022-11-20_23h59.52.500,Info_measure_main_exp,2022.2.2,Linux x86_64,19.77848101,,,,,,,,,,,,,,,,,,masks/mask_003.jpg,,,,,,,,,,,,,,,,,,,,,,,,,,,,,,,,,,,,,,,,,,,0,4,4,2,1,,,,,,,,,,,,,,,,,,,,,,,
206642,001,2022-11-20_23h59.52.500,Info_measure_main_exp,2022.2.2,Linux x86_64,19.77848101,,,,,,,,,,,,,,,,,,masks/mask_004.jpg,,,,,,,,,,,,,,,,,,,,,,,,,,,,,,,,,,,,,,,,,,,,,,,,0,0,0,3,1,,,,,,,,,,,,,,,,,,
206642,001,2022-11-20_23h59.52.500,Info_measure_main_exp,2022.2.2,Linux x86_64,19.77848101,,,,,,,,,,,,,,,,,,masks/mask_001.jpg,,,,,,,,,,,,,,,,,,,,,,,,,,,,,,,,,,,,,,,,,,,,,,,,0,1,1,0,1,,,,,,,,,,,,,,,,,,
206642,001,2022-11-20_23h59.52.500,Info_measure_main_exp,2022.2.2,Linux x86_64,19.77848101,,,,,,,,,,,,,,,,,,masks/mask_002.jpg,,,,,,,,,,,,,,,,,,,,,,,,,,,,,,,,,,,,,,,,,,,,,,,,0,2,2,1,1,,,,,,,,,,,,,,,,,,
206642,001,2022-11-20_23h59.52.500,Info_measure_main_exp,2022.2.2,Linux x86_64,19.77848101,,,,,,,,,,,,,,,,,,masks/mask_003.jpg,,,,,,,,,,,,,,,,,,,,,,,,,,,,,,,,,,,,,,,,,,,,,,,,0,3,3,2,1,,,,,,,,,,,,,,,,,,
206642,001,2022-11-20_23h59.52.500,Info_measure_main_exp,2022.2.2,Linux x86_64,19.77848101,,,,,,,,,,,,,,,,,,masks/mask_005.jpg,,,,,,,,,,,,,,,,,,,,,,,,,,,,,,,,,,,,,,,,,,,,,,,,0,4,4,4,1,,,,,,,,,,,,,,,,,,
206642,001,2022-11-20_23h59.52.500,Info_measure_main_exp,2022.2.2,Linux x86_64,19.77848101,,,,,,,,,,,,,,,,,,,,,,,,,,,,,,7,0.935,1,,,,,,,,,,,,0,131,5,5,2190,2178,absent_patch/patch0002190.jpg,absent_patch/patch0002178.jpg,,,,,,,,,,,,,,,,,,,,0.029145729,0.06080402,1,0,0,response1disk,35,0.008040201,0.002512563,1,0,0,center_square,0,34,34,14,1
206642,001,2022-11-20_23h59.52.500,Info_measure_main_exp,2022.2.2,Linux x86_64,19.77848101,,,,,,,,,,,,,,,,,,masks/mask_001.jpg,,,,,,,,,,,,,,,,,,,,,,,,,,,,,,,,,,,,,,,,,,,0,0,0,0,1,,,,,,,,,,,,,,,,,,,,,,,
206642,001,2022-11-20_23h59.52.500,Info_measure_main_exp,2022.2.2,Linux x86_64,19.77848101,,,,,,,,,,,,,,,,,,masks/mask_004.jpg,,,,,,,,,,,,,,,,,,,,,,,,,,,,,,,,,,,,,,,,,,,0,1,1,3,1,,,,,,,,,,,,,,,,,,,,,,,
206642,001,2022-11-20_23h59.52.500,Info_measure_main_exp,2022.2.2,Linux x86_64,19.77848101,,,,,,,,,,,,,,,,,,masks/mask_005.jpg,,,,,,,,,,,,,,,,,,,,,,,,,,,,,,,,,,,,,,,,,,,0,2,2,4,1,,,,,,,,,,,,,,,,,,,,,,,
206642,001,2022-11-20_23h59.52.500,Info_measure_main_exp,2022.2.2,Linux x86_64,19.77848101,,,,,,,,,,,,,,,,,,masks/mask_003.jpg,,,,,,,,,,,,,,,,,,,,,,,,,,,,,,,,,,,,,,,,,,,0,3,3,2,1,,,,,,,,,,,,,,,,,,,,,,,
206642,001,2022-11-20_23h59.52.500,Info_measure_main_exp,2022.2.2,Linux x86_64,19.77848101,,,,,,,,,,,,,,,,,,masks/mask_002.jpg,,,,,,,,,,,,,,,,,,,,,,,,,,,,,,,,,,,,,,,,,,,0,4,4,1,1,,,,,,,,,,,,,,,,,,,,,,,
206642,001,2022-11-20_23h59.52.500,Info_measure_main_exp,2022.2.2,Linux x86_64,19.77848101,,,,,,,,,,,,,,,,,,masks/mask_002.jpg,,,,,,,,,,,,,,,,,,,,,,,,,,,,,,,,,,,,,,,,,,,,,,,,0,0,0,1,1,,,,,,,,,,,,,,,,,,
206642,001,2022-11-20_23h59.52.500,Info_measure_main_exp,2022.2.2,Linux x86_64,19.77848101,,,,,,,,,,,,,,,,,,masks/mask_003.jpg,,,,,,,,,,,,,,,,,,,,,,,,,,,,,,,,,,,,,,,,,,,,,,,,0,1,1,2,1,,,,,,,,,,,,,,,,,,
206642,001,2022-11-20_23h59.52.500,Info_measure_main_exp,2022.2.2,Linux x86_64,19.77848101,,,,,,,,,,,,,,,,,,masks/mask_004.jpg,,,,,,,,,,,,,,,,,,,,,,,,,,,,,,,,,,,,,,,,,,,,,,,,0,2,2,3,1,,,,,,,,,,,,,,,,,,
206642,001,2022-11-20_23h59.52.500,Info_measure_main_exp,2022.2.2,Linux x86_64,19.77848101,,,,,,,,,,,,,,,,,,masks/mask_005.jpg,,,,,,,,,,,,,,,,,,,,,,,,,,,,,,,,,,,,,,,,,,,,,,,,0,3,3,4,1,,,,,,,,,,,,,,,,,,
206642,001,2022-11-20_23h59.52.500,Info_measure_main_exp,2022.2.2,Linux x86_64,19.77848101,,,,,,,,,,,,,,,,,,masks/mask_001.jpg,,,,,,,,,,,,,,,,,,,,,,,,,,,,,,,,,,,,,,,,,,,,,,,,0,4,4,0,1,,,,,,,,,,,,,,,,,,
206642,001,2022-11-20_23h59.52.500,Info_measure_main_exp,2022.2.2,Linux x86_64,19.77848101,,,,,,,,,,,,,,,,,,,,,,,,,,,,,,7,1.141,1,,,,,,,,,,,,0,131,5,5,2274,2082,absent_patch/patch0002274.jpg,absent_patch/patch0002082.jpg,,,,,,,,,,,,,,,,,,,,0.026130653,0.051758794,1,0,0,response1disk,36,0.006030151,0.002512563,1,0,0,center_square,0,35,35,100,1
206642,001,2022-11-20_23h59.52.500,Info_measure_main_exp,2022.2.2,Linux x86_64,19.77848101,,,,,,,,,,,,,,,,,,masks/mask_005.jpg,,,,,,,,,,,,,,,,,,,,,,,,,,,,,,,,,,,,,,,,,,,0,0,0,4,1,,,,,,,,,,,,,,,,,,,,,,,
206642,001,2022-11-20_23h59.52.500,Info_measure_main_exp,2022.2.2,Linux x86_64,19.77848101,,,,,,,,,,,,,,,,,,masks/mask_004.jpg,,,,,,,,,,,,,,,,,,,,,,,,,,,,,,,,,,,,,,,,,,,0,1,1,3,1,,,,,,,,,,,,,,,,,,,,,,,
206642,001,2022-11-20_23h59.52.500,Info_measure_main_exp,2022.2.2,Linux x86_64,19.77848101,,,,,,,,,,,,,,,,,,masks/mask_003.jpg,,,,,,,,,,,,,,,,,,,,,,,,,,,,,,,,,,,,,,,,,,,0,2,2,2,1,,,,,,,,,,,,,,,,,,,,,,,
206642,001,2022-11-20_23h59.52.500,Info_measure_main_exp,2022.2.2,Linux x86_64,19.77848101,,,,,,,,,,,,,,,,,,masks/mask_001.jpg,,,,,,,,,,,,,,,,,,,,,,,,,,,,,,,,,,,,,,,,,,,0,3,3,0,1,,,,,,,,,,,,,,,,,,,,,,,
206642,001,2022-11-20_23h59.52.500,Info_measure_main_exp,2022.2.2,Linux x86_64,19.77848101,,,,,,,,,,,,,,,,,,masks/mask_002.jpg,,,,,,,,,,,,,,,,,,,,,,,,,,,,,,,,,,,,,,,,,,,0,4,4,1,1,,,,,,,,,,,,,,,,,,,,,,,
206642,001,2022-11-20_23h59.52.500,Info_measure_main_exp,2022.2.2,Linux x86_64,19.77848101,,,,,,,,,,,,,,,,,,masks/mask_001.jpg,,,,,,,,,,,,,,,,,,,,,,,,,,,,,,,,,,,,,,,,,,,,,,,,0,0,0,0,1,,,,,,,,,,,,,,,,,,
206642,001,2022-11-20_23h59.52.500,Info_measure_main_exp,2022.2.2,Linux x86_64,19.77848101,,,,,,,,,,,,,,,,,,masks/mask_004.jpg,,,,,,,,,,,,,,,,,,,,,,,,,,,,,,,,,,,,,,,,,,,,,,,,0,1,1,3,1,,,,,,,,,,,,,,,,,,
206642,001,2022-11-20_23h59.52.500,Info_measure_main_exp,2022.2.2,Linux x86_64,19.77848101,,,,,,,,,,,,,,,,,,masks/mask_005.jpg,,,,,,,,,,,,,,,,,,,,,,,,,,,,,,,,,,,,,,,,,,,,,,,,0,2,2,4,1,,,,,,,,,,,,,,,,,,
206642,001,2022-11-20_23h59.52.500,Info_measure_main_exp,2022.2.2,Linux x86_64,19.77848101,,,,,,,,,,,,,,,,,,masks/mask_002.jpg,,,,,,,,,,,,,,,,,,,,,,,,,,,,,,,,,,,,,,,,,,,,,,,,0,3,3,1,1,,,,,,,,,,,,,,,,,,
206642,001,2022-11-20_23h59.52.500,Info_measure_main_exp,2022.2.2,Linux x86_64,19.77848101,,,,,,,,,,,,,,,,,,masks/mask_003.jpg,,,,,,,,,,,,,,,,,,,,,,,,,,,,,,,,,,,,,,,,,,,,,,,,0,4,4,2,1,,,,,,,,,,,,,,,,,,
206642,001,2022-11-20_23h59.52.500,Info_measure_main_exp,2022.2.2,Linux x86_64,19.77848101,,,,,,,,,,,,,,,,,,,,,,,,,,,,,,7,0.535,1,,,,,,,,,,,,1,131,5,5,1,2142,present_patch/cong_131_5_a.jpg,absent_patch/patch0002142.jpg,,,,,,,,,,,,,,,,,,,,0.028140704,0.082914573,1,0,0,response1disk,37,0.008040201,0.014572864,1,0,0,center_square,0,36,36,80,1
206642,001,2022-11-20_23h59.52.500,Info_measure_main_exp,2022.2.2,Linux x86_64,19.77848101,,,,,,,,,,,,,,,,,,masks/mask_003.jpg,,,,,,,,,,,,,,,,,,,,,,,,,,,,,,,,,,,,,,,,,,,0,0,0,2,1,,,,,,,,,,,,,,,,,,,,,,,
206642,001,2022-11-20_23h59.52.500,Info_measure_main_exp,2022.2.2,Linux x86_64,19.77848101,,,,,,,,,,,,,,,,,,masks/mask_004.jpg,,,,,,,,,,,,,,,,,,,,,,,,,,,,,,,,,,,,,,,,,,,0,1,1,3,1,,,,,,,,,,,,,,,,,,,,,,,
206642,001,2022-11-20_23h59.52.500,Info_measure_main_exp,2022.2.2,Linux x86_64,19.77848101,,,,,,,,,,,,,,,,,,masks/mask_005.jpg,,,,,,,,,,,,,,,,,,,,,,,,,,,,,,,,,,,,,,,,,,,0,2,2,4,1,,,,,,,,,,,,,,,,,,,,,,,
206642,001,2022-11-20_23h59.52.500,Info_measure_main_exp,2022.2.2,Linux x86_64,19.77848101,,,,,,,,,,,,,,,,,,masks/mask_001.jpg,,,,,,,,,,,,,,,,,,,,,,,,,,,,,,,,,,,,,,,,,,,0,3,3,0,1,,,,,,,,,,,,,,,,,,,,,,,
206642,001,2022-11-20_23h59.52.500,Info_measure_main_exp,2022.2.2,Linux x86_64,19.77848101,,,,,,,,,,,,,,,,,,masks/mask_002.jpg,,,,,,,,,,,,,,,,,,,,,,,,,,,,,,,,,,,,,,,,,,,0,4,4,1,1,,,,,,,,,,,,,,,,,,,,,,,
206642,001,2022-11-20_23h59.52.500,Info_measure_main_exp,2022.2.2,Linux x86_64,19.77848101,,,,,,,,,,,,,,,,,,masks/mask_001.jpg,,,,,,,,,,,,,,,,,,,,,,,,,,,,,,,,,,,,,,,,,,,,,,,,0,0,0,0,1,,,,,,,,,,,,,,,,,,
206642,001,2022-11-20_23h59.52.500,Info_measure_main_exp,2022.2.2,Linux x86_64,19.77848101,,,,,,,,,,,,,,,,,,masks/mask_004.jpg,,,,,,,,,,,,,,,,,,,,,,,,,,,,,,,,,,,,,,,,,,,,,,,,0,1,1,3,1,,,,,,,,,,,,,,,,,,
206642,001,2022-11-20_23h59.52.500,Info_measure_main_exp,2022.2.2,Linux x86_64,19.77848101,,,,,,,,,,,,,,,,,,masks/mask_002.jpg,,,,,,,,,,,,,,,,,,,,,,,,,,,,,,,,,,,,,,,,,,,,,,,,0,2,2,1,1,,,,,,,,,,,,,,,,,,
206642,001,2022-11-20_23h59.52.500,Info_measure_main_exp,2022.2.2,Linux x86_64,19.77848101,,,,,,,,,,,,,,,,,,masks/mask_005.jpg,,,,,,,,,,,,,,,,,,,,,,,,,,,,,,,,,,,,,,,,,,,,,,,,0,3,3,4,1,,,,,,,,,,,,,,,,,,
206642,001,2022-11-20_23h59.52.500,Info_measure_main_exp,2022.2.2,Linux x86_64,19.77848101,,,,,,,,,,,,,,,,,,masks/mask_003.jpg,,,,,,,,,,,,,,,,,,,,,,,,,,,,,,,,,,,,,,,,,,,,,,,,0,4,4,2,1,,,,,,,,,,,,,,,,,,
