participant,session,date,expName,psychopyVersion,OS,frameRate,space_press_continue.keys,space_press_continue.rt,space_press_continue_2.keys,space_press_continue_2.rt,space_press_continue_3.keys,space_press_continue_3.rt,space_press_continue_4.keys,space_press_continue_4.rt,space_press_continue_5.keys,space_press_continue_5.rt,space_press_continue_6.keys,space_press_continue_6.rt,prac_mask_loop_1.thisRepN,prac_mask_loop_1.thisTrialN,prac_mask_loop_1.thisN,prac_mask_loop_1.thisIndex,prac_mask_loop_1.ran,mask_name,prac_mask_loop_2.thisRepN,prac_mask_loop_2.thisTrialN,prac_mask_loop_2.thisN,prac_mask_loop_2.thisIndex,prac_mask_loop_2.ran,mouse_2.x,mouse_2.y,mouse_2.leftButton,mouse_2.midButton,mouse_2.rightButton,mouse_2.clicked_name,similarity,response_time,Pass,mouse_12.x,mouse_12.y,mouse_12.leftButton,mouse_12.midButton,mouse_12.rightButton,mouse_12.clicked_name,prac_loop.thisRepN,prac_loop.thisTrialN,prac_loop.thisN,prac_loop.thisIndex,prac_loop.ran,Pair_type,Image_num,Patch_1_loc,Patch_2_loc,Patch_1_info,Patch_2_info,Patch_1_name,Patch_2_name,mouse_1.x,mouse_1.y,mouse_1.leftButton,mouse_1.midButton,mouse_1.rightButton,mouse_1.time,mouse_1.clicked_name,space_press_continue_7.keys,space_press_continue_7.rt,mask_loop.thisRepN,mask_loop.thisTrialN,mask_loop.thisN,mask_loop.thisIndex,mask_loop.ran,mask_loop_2.thisRepN,mask_loop_2.thisTrialN,mask_loop_2.thisN,mask_loop_2.thisIndex,mask_loop_2.ran,mouse.x,mouse.y,mouse.leftButton,mouse.midButton,mouse.rightButton,mouse.clicked_name,trialNumber,mouse_11.x,mouse_11.y,mouse_11.leftButton,mouse_11.midButton,mouse_11.rightButton,mouse_11.clicked_name,first_pass_loop.thisRepN,first_pass_loop.thisTrialN,first_pass_loop.thisN,first_pass_loop.thisIndex,first_pass_loop.ran,mask_loop_3.thisRepN,mask_loop_3.thisTrialN,mask_loop_3.thisN,mask_loop_3.thisIndex,mask_loop_3.ran,mask_loop_4.thisRepN,mask_loop_4.thisTrialN,mask_loop_4.thisN,mask_loop_4.thisIndex,mask_loop_4.ran,mouse_3.x,mouse_3.y,mouse_3.leftButton,mouse_3.midButton,mouse_3.rightButton,mouse_3.clicked_name,double_pass_loop.thisRepN,double_pass_loop.thisTrialN,double_pass_loop.thisN,double_pass_loop.thisIndex,double_pass_loop.ran,space_exit.keys,space_exit.rt
216061,001,2022-11-21_01h55.02.447,Info_measure_main_exp,2022.2.2,Win32,143.9263097,,,,,,,,,,,,,,,,,,,,,,,,,,,,,,,,,,,,,,,,,,,,,,,,,,,,,,,,,,,,,,,,,,,,,,,,,,,,,,,,,,,,,,,,,,,,,,,,,,,,,,,,,,,,,,,
216061,001,2022-11-21_01h55.02.447,Info_measure_main_exp,2022.2.2,Win32,143.9263097,,,,,,,,,,,,,,,,,,,,,,,,,,,,,,,,,,,,,,,,,,,,,,,,,,,,,,,,,,,,,,,,,,,,,,,,,,,,,,,,,,,,,,,,,,,,,,,,,,,,,,,,,,,,,,,
216061,001,2022-11-21_01h55.02.447,Info_measure_main_exp,2022.2.2,Win32,143.9263097,space,16.8766,,,,,,,,,,,,,,,,,,,,,,,,,,,,,,,,,,,,,,,,,,,,,,,,,,,,,,,,,,,,,,,,,,,,,,,,,,,,,,,,,,,,,,,,,,,,,,,,,,,,,,,,,,,,,
216061,001,2022-11-21_01h55.02.447,Info_measure_main_exp,2022.2.2,Win32,143.9263097,,,space,15.7183,,,,,,,,,,,,,,,,,,,,,,,,,,,,,,,,,,,,,,,,,,,,,,,,,,,,,,,,,,,,,,,,,,,,,,,,,,,,,,,,,,,,,,,,,,,,,,,,,,,,,,,,,,,
216061,001,2022-11-21_01h55.02.447,Info_measure_main_exp,2022.2.2,Win32,143.9263097,,,,,space,9.7825,,,,,,,,,,,,,,,,,,,,,,,,,,,,,,,,,,,,,,,,,,,,,,,,,,,,,,,,,,,,,,,,,,,,,,,,,,,,,,,,,,,,,,,,,,,,,,,,,,,,,,,,,
216061,001,2022-11-21_01h55.02.447,Info_measure_main_exp,2022.2.2,Win32,143.9263097,,,,,,,space,49.4433,,,,,,,,,,,,,,,,,,,,,,,,,,,,,,,,,,,,,,,,,,,,,,,,,,,,,,,,,,,,,,,,,,,,,,,,,,,,,,,,,,,,,,,,,,,,,,,,,,,,,,,
216061,001,2022-11-21_01h55.02.447,Info_measure_main_exp,2022.2.2,Win32,143.9263097,,,,,,,,,space,12.2412,,,,,,,,,,,,,,,,,,,,,,,,,,,,,,,,,,,,,,,,,,,,,,,,,,,,,,,,,,,,,,,,,,,,,,,,,,,,,,,,,,,,,,,,,,,,,,,,,,,,,
216061,001,2022-11-21_01h55.02.447,Info_measure_main_exp,2022.2.2,Win32,143.9263097,,,,,,,,,,,space,5.0267,,,,,,,,,,,,,,,,,,,,,,,,,,,,,,,,,,,,,,,,,,,,,,,,,,,,,,,,,,,,,,,,,,,,,,,,,,,,,,,,,,,,,,,,,,,,,,,,,,,
216061,001,2022-11-21_01h55.02.447,Info_measure_main_exp,2022.2.2,Win32,143.9263097,,,,,,,,,,,,,0,0,0,2,1,masks/mask_003.jpg,,,,,,,,,,,,,,,,,,,,,,,,,,,,,,,,,,,,,,,,,,,,,,,,,,,,,,,,,,,,,,,,,,,,,,,,,,,,,,,,,,,,,,,,,,,,,
216061,001,2022-11-21_01h55.02.447,Info_measure_main_exp,2022.2.2,Win32,143.9263097,,,,,,,,,,,,,0,1,1,3,1,masks/mask_004.jpg,,,,,,,,,,,,,,,,,,,,,,,,,,,,,,,,,,,,,,,,,,,,,,,,,,,,,,,,,,,,,,,,,,,,,,,,,,,,,,,,,,,,,,,,,,,,,
216061,001,2022-11-21_01h55.02.447,Info_measure_main_exp,2022.2.2,Win32,143.9263097,,,,,,,,,,,,,0,2,2,1,1,masks/mask_002.jpg,,,,,,,,,,,,,,,,,,,,,,,,,,,,,,,,,,,,,,,,,,,,,,,,,,,,,,,,,,,,,,,,,,,,,,,,,,,,,,,,,,,,,,,,,,,,,
216061,001,2022-11-21_01h55.02.447,Info_measure_main_exp,2022.2.2,Win32,143.9263097,,,,,,,,,,,,,0,3,3,4,1,masks/mask_005.jpg,,,,,,,,,,,,,,,,,,,,,,,,,,,,,,,,,,,,,,,,,,,,,,,,,,,,,,,,,,,,,,,,,,,,,,,,,,,,,,,,,,,,,,,,,,,,,
216061,001,2022-11-21_01h55.02.447,Info_measure_main_exp,2022.2.2,Win32,143.9263097,,,,,,,,,,,,,0,4,4,0,1,masks/mask_001.jpg,,,,,,,,,,,,,,,,,,,,,,,,,,,,,,,,,,,,,,,,,,,,,,,,,,,,,,,,,,,,,,,,,,,,,,,,,,,,,,,,,,,,,,,,,,,,,
216061,001,2022-11-21_01h55.02.447,Info_measure_main_exp,2022.2.2,Win32,143.9263097,,,,,,,,,,,,,,,,,,masks/mask_004.jpg,0,0,0,3,1,,,,,,,,,,,,,,,,,,,,,,,,,,,,,,,,,,,,,,,,,,,,,,,,,,,,,,,,,,,,,,,,,,,,,,,,,,,,,,,,,,,,,,,,
216061,001,2022-11-21_01h55.02.447,Info_measure_main_exp,2022.2.2,Win32,143.9263097,,,,,,,,,,,,,,,,,,masks/mask_001.jpg,0,1,1,0,1,,,,,,,,,,,,,,,,,,,,,,,,,,,,,,,,,,,,,,,,,,,,,,,,,,,,,,,,,,,,,,,,,,,,,,,,,,,,,,,,,,,,,,,,
216061,001,2022-11-21_01h55.02.447,Info_measure_main_exp,2022.2.2,Win32,143.9263097,,,,,,,,,,,,,,,,,,masks/mask_003.jpg,0,2,2,2,1,,,,,,,,,,,,,,,,,,,,,,,,,,,,,,,,,,,,,,,,,,,,,,,,,,,,,,,,,,,,,,,,,,,,,,,,,,,,,,,,,,,,,,,,
216061,001,2022-11-21_01h55.02.447,Info_measure_main_exp,2022.2.2,Win32,143.9263097,,,,,,,,,,,,,,,,,,masks/mask_005.jpg,0,3,3,4,1,,,,,,,,,,,,,,,,,,,,,,,,,,,,,,,,,,,,,,,,,,,,,,,,,,,,,,,,,,,,,,,,,,,,,,,,,,,,,,,,,,,,,,,,
216061,001,2022-11-21_01h55.02.447,Info_measure_main_exp,2022.2.2,Win32,143.9263097,,,,,,,,,,,,,,,,,,masks/mask_002.jpg,0,4,4,1,1,,,,,,,,,,,,,,,,,,,,,,,,,,,,,,,,,,,,,,,,,,,,,,,,,,,,,,,,,,,,,,,,,,,,,,,,,,,,,,,,,,,,,,,,
216061,001,2022-11-21_01h55.02.447,Info_measure_main_exp,2022.2.2,Win32,143.9263097,,,,,,,,,,,,,,,,,,,,,,,,-0.140820588,-0.048026362,1,0,0,response5disk,2,120.7032,1,-0.001962522,-0.003591772,1,0,0,center_square,0,0,0,2,1,0,131,5,5,2526,2526,prac_patch/patch0002526.jpg,prac_patch/patch0002526.jpg,,,,,,,,,,,,,,,,,,,,,,,,,,,,,,,,,,,,,,,,,,,,,,,,,,,,,,,,,,,,
216061,001,2022-11-21_01h55.02.447,Info_measure_main_exp,2022.2.2,Win32,143.9263097,,,,,,,,,,,,,0,0,0,1,1,masks/mask_002.jpg,,,,,,,,,,,,,,,,,,,,,,,,,,,,,,,,,,,,,,,,,,,,,,,,,,,,,,,,,,,,,,,,,,,,,,,,,,,,,,,,,,,,,,,,,,,,,
216061,001,2022-11-21_01h55.02.447,Info_measure_main_exp,2022.2.2,Win32,143.9263097,,,,,,,,,,,,,0,1,1,2,1,masks/mask_003.jpg,,,,,,,,,,,,,,,,,,,,,,,,,,,,,,,,,,,,,,,,,,,,,,,,,,,,,,,,,,,,,,,,,,,,,,,,,,,,,,,,,,,,,,,,,,,,,
216061,001,2022-11-21_01h55.02.447,Info_measure_main_exp,2022.2.2,Win32,143.9263097,,,,,,,,,,,,,0,2,2,4,1,masks/mask_005.jpg,,,,,,,,,,,,,,,,,,,,,,,,,,,,,,,,,,,,,,,,,,,,,,,,,,,,,,,,,,,,,,,,,,,,,,,,,,,,,,,,,,,,,,,,,,,,,
216061,001,2022-11-21_01h55.02.447,Info_measure_main_exp,2022.2.2,Win32,143.9263097,,,,,,,,,,,,,0,3,3,3,1,masks/mask_004.jpg,,,,,,,,,,,,,,,,,,,,,,,,,,,,,,,,,,,,,,,,,,,,,,,,,,,,,,,,,,,,,,,,,,,,,,,,,,,,,,,,,,,,,,,,,,,,,
216061,001,2022-11-21_01h55.02.447,Info_measure_main_exp,2022.2.2,Win32,143.9263097,,,,,,,,,,,,,0,4,4,0,1,masks/mask_001.jpg,,,,,,,,,,,,,,,,,,,,,,,,,,,,,,,,,,,,,,,,,,,,,,,,,,,,,,,,,,,,,,,,,,,,,,,,,,,,,,,,,,,,,,,,,,,,,
216061,001,2022-11-21_01h55.02.447,Info_measure_main_exp,2022.2.2,Win32,143.9263097,,,,,,,,,,,,,,,,,,masks/mask_003.jpg,0,0,0,2,1,,,,,,,,,,,,,,,,,,,,,,,,,,,,,,,,,,,,,,,,,,,,,,,,,,,,,,,,,,,,,,,,,,,,,,,,,,,,,,,,,,,,,,,,
216061,001,2022-11-21_01h55.02.447,Info_measure_main_exp,2022.2.2,Win32,143.9263097,,,,,,,,,,,,,,,,,,masks/mask_002.jpg,0,1,1,1,1,,,,,,,,,,,,,,,,,,,,,,,,,,,,,,,,,,,,,,,,,,,,,,,,,,,,,,,,,,,,,,,,,,,,,,,,,,,,,,,,,,,,,,,,
216061,001,2022-11-21_01h55.02.447,Info_measure_main_exp,2022.2.2,Win32,143.9263097,,,,,,,,,,,,,,,,,,masks/mask_005.jpg,0,2,2,4,1,,,,,,,,,,,,,,,,,,,,,,,,,,,,,,,,,,,,,,,,,,,,,,,,,,,,,,,,,,,,,,,,,,,,,,,,,,,,,,,,,,,,,,,,
216061,001,2022-11-21_01h55.02.447,Info_measure_main_exp,2022.2.2,Win32,143.9263097,,,,,,,,,,,,,,,,,,masks/mask_004.jpg,0,3,3,3,1,,,,,,,,,,,,,,,,,,,,,,,,,,,,,,,,,,,,,,,,,,,,,,,,,,,,,,,,,,,,,,,,,,,,,,,,,,,,,,,,,,,,,,,,
216061,001,2022-11-21_01h55.02.447,Info_measure_main_exp,2022.2.2,Win32,143.9263097,,,,,,,,,,,,,,,,,,masks/mask_001.jpg,0,4,4,0,1,,,,,,,,,,,,,,,,,,,,,,,,,,,,,,,,,,,,,,,,,,,,,,,,,,,,,,,,,,,,,,,,,,,,,,,,,,,,,,,,,,,,,,,,
216061,001,2022-11-21_01h55.02.447,Info_measure_main_exp,2022.2.2,Win32,143.9263097,,,,,,,,,,,,,,,,,,,,,,,,0.077649533,0.148226321,1,0,0,response1disk,7,134.5655,1,-0.000111059,-0.006369014,1,0,0,center_square,0,1,1,1,1,0,131,5,5,2514,2490,prac_patch/patch0002514.jpg,prac_patch/patch0002490.jpg,,,,,,,,,,,,,,,,,,,,,,,,,,,,,,,,,,,,,,,,,,,,,,,,,,,,,,,,,,,,
216061,001,2022-11-21_01h55.02.447,Info_measure_main_exp,2022.2.2,Win32,143.9263097,,,,,,,,,,,,,0,0,0,4,1,masks/mask_005.jpg,,,,,,,,,,,,,,,,,,,,,,,,,,,,,,,,,,,,,,,,,,,,,,,,,,,,,,,,,,,,,,,,,,,,,,,,,,,,,,,,,,,,,,,,,,,,,
216061,001,2022-11-21_01h55.02.447,Info_measure_main_exp,2022.2.2,Win32,143.9263097,,,,,,,,,,,,,0,1,1,0,1,masks/mask_001.jpg,,,,,,,,,,,,,,,,,,,,,,,,,,,,,,,,,,,,,,,,,,,,,,,,,,,,,,,,,,,,,,,,,,,,,,,,,,,,,,,,,,,,,,,,,,,,,
216061,001,2022-11-21_01h55.02.447,Info_measure_main_exp,2022.2.2,Win32,143.9263097,,,,,,,,,,,,,0,2,2,1,1,masks/mask_002.jpg,,,,,,,,,,,,,,,,,,,,,,,,,,,,,,,,,,,,,,,,,,,,,,,,,,,,,,,,,,,,,,,,,,,,,,,,,,,,,,,,,,,,,,,,,,,,,
216061,001,2022-11-21_01h55.02.447,Info_measure_main_exp,2022.2.2,Win32,143.9263097,,,,,,,,,,,,,0,3,3,2,1,masks/mask_003.jpg,,,,,,,,,,,,,,,,,,,,,,,,,,,,,,,,,,,,,,,,,,,,,,,,,,,,,,,,,,,,,,,,,,,,,,,,,,,,,,,,,,,,,,,,,,,,,
216061,001,2022-11-21_01h55.02.447,Info_measure_main_exp,2022.2.2,Win32,143.9263097,,,,,,,,,,,,,0,4,4,3,1,masks/mask_004.jpg,,,,,,,,,,,,,,,,,,,,,,,,,,,,,,,,,,,,,,,,,,,,,,,,,,,,,,,,,,,,,,,,,,,,,,,,,,,,,,,,,,,,,,,,,,,,,
216061,001,2022-11-21_01h55.02.447,Info_measure_main_exp,2022.2.2,Win32,143.9263097,,,,,,,,,,,,,,,,,,masks/mask_001.jpg,0,0,0,0,1,,,,,,,,,,,,,,,,,,,,,,,,,,,,,,,,,,,,,,,,,,,,,,,,,,,,,,,,,,,,,,,,,,,,,,,,,,,,,,,,,,,,,,,,
216061,001,2022-11-21_01h55.02.447,Info_measure_main_exp,2022.2.2,Win32,143.9263097,,,,,,,,,,,,,,,,,,masks/mask_003.jpg,0,1,1,2,1,,,,,,,,,,,,,,,,,,,,,,,,,,,,,,,,,,,,,,,,,,,,,,,,,,,,,,,,,,,,,,,,,,,,,,,,,,,,,,,,,,,,,,,,
216061,001,2022-11-21_01h55.02.447,Info_measure_main_exp,2022.2.2,Win32,143.9263097,,,,,,,,,,,,,,,,,,masks/mask_002.jpg,0,2,2,1,1,,,,,,,,,,,,,,,,,,,,,,,,,,,,,,,,,,,,,,,,,,,,,,,,,,,,,,,,,,,,,,,,,,,,,,,,,,,,,,,,,,,,,,,,
216061,001,2022-11-21_01h55.02.447,Info_measure_main_exp,2022.2.2,Win32,143.9263097,,,,,,,,,,,,,,,,,,masks/mask_005.jpg,0,3,3,4,1,,,,,,,,,,,,,,,,,,,,,,,,,,,,,,,,,,,,,,,,,,,,,,,,,,,,,,,,,,,,,,,,,,,,,,,,,,,,,,,,,,,,,,,,
216061,001,2022-11-21_01h55.02.447,Info_measure_main_exp,2022.2.2,Win32,143.9263097,,,,,,,,,,,,,,,,,,masks/mask_004.jpg,0,4,4,3,1,,,,,,,,,,,,,,,,,,,,,,,,,,,,,,,,,,,,,,,,,,,,,,,,,,,,,,,,,,,,,,,,,,,,,,,,,,,,,,,,,,,,,,,,
216061,001,2022-11-21_01h55.02.447,Info_measure_main_exp,2022.2.2,Win32,143.9263097,,,,,,,,,,,,,,,,,,,,,,,,0.098015247,-0.12115825,1,0,0,response3disk,4,146.8016,1,-0.003813985,-0.003591772,1,0,0,center_square,0,2,2,0,1,0,131,5,5,2370,2406,prac_patch/patch0002370.jpg,prac_patch/patch0002406.jpg,,,,,,,,,,,,,,,,,,,,,,,,,,,,,,,,,,,,,,,,,,,,,,,,,,,,,,,,,,,,
216061,001,2022-11-21_01h55.02.447,Info_measure_main_exp,2022.2.2,Win32,143.9263097,,,,,,,,,,,,,,,,,,,,,,,,,,,,,,,,,,,,,,,,,,,,,,,,,,,,,,,,,,,space,2.5607,,,,,,,,,,,,,,,,,,,,,,,,,,,,,,,,,,,,,,,,,,,,,,,,,,,
216061,001,2022-11-21_01h55.02.447,Info_measure_main_exp,2022.2.2,Win32,143.9263097,,,,,,,,,,,,,,,,,,masks/mask_005.jpg,,,,,,,,,,,,,,,,,,,,,,,,,,,,,,,,,,,,,,,,,,,0,0,0,4,1,,,,,,,,,,,,,,,,,,,,,,,,,,,,,,,,,,,,,,,,,,,,,,
216061,001,2022-11-21_01h55.02.447,Info_measure_main_exp,2022.2.2,Win32,143.9263097,,,,,,,,,,,,,,,,,,masks/mask_001.jpg,,,,,,,,,,,,,,,,,,,,,,,,,,,,,,,,,,,,,,,,,,,0,1,1,0,1,,,,,,,,,,,,,,,,,,,,,,,,,,,,,,,,,,,,,,,,,,,,,,
216061,001,2022-11-21_01h55.02.447,Info_measure_main_exp,2022.2.2,Win32,143.9263097,,,,,,,,,,,,,,,,,,masks/mask_003.jpg,,,,,,,,,,,,,,,,,,,,,,,,,,,,,,,,,,,,,,,,,,,0,2,2,2,1,,,,,,,,,,,,,,,,,,,,,,,,,,,,,,,,,,,,,,,,,,,,,,
216061,001,2022-11-21_01h55.02.447,Info_measure_main_exp,2022.2.2,Win32,143.9263097,,,,,,,,,,,,,,,,,,masks/mask_004.jpg,,,,,,,,,,,,,,,,,,,,,,,,,,,,,,,,,,,,,,,,,,,0,3,3,3,1,,,,,,,,,,,,,,,,,,,,,,,,,,,,,,,,,,,,,,,,,,,,,,
216061,001,2022-11-21_01h55.02.447,Info_measure_main_exp,2022.2.2,Win32,143.9263097,,,,,,,,,,,,,,,,,,masks/mask_002.jpg,,,,,,,,,,,,,,,,,,,,,,,,,,,,,,,,,,,,,,,,,,,0,4,4,1,1,,,,,,,,,,,,,,,,,,,,,,,,,,,,,,,,,,,,,,,,,,,,,,
216061,001,2022-11-21_01h55.02.447,Info_measure_main_exp,2022.2.2,Win32,143.9263097,,,,,,,,,,,,,,,,,,masks/mask_005.jpg,,,,,,,,,,,,,,,,,,,,,,,,,,,,,,,,,,,,,,,,,,,,,,,,0,0,0,4,1,,,,,,,,,,,,,,,,,,,,,,,,,,,,,,,,,,,,,,,,,
216061,001,2022-11-21_01h55.02.447,Info_measure_main_exp,2022.2.2,Win32,143.9263097,,,,,,,,,,,,,,,,,,masks/mask_003.jpg,,,,,,,,,,,,,,,,,,,,,,,,,,,,,,,,,,,,,,,,,,,,,,,,0,1,1,2,1,,,,,,,,,,,,,,,,,,,,,,,,,,,,,,,,,,,,,,,,,
216061,001,2022-11-21_01h55.02.447,Info_measure_main_exp,2022.2.2,Win32,143.9263097,,,,,,,,,,,,,,,,,,masks/mask_004.jpg,,,,,,,,,,,,,,,,,,,,,,,,,,,,,,,,,,,,,,,,,,,,,,,,0,2,2,3,1,,,,,,,,,,,,,,,,,,,,,,,,,,,,,,,,,,,,,,,,,
216061,001,2022-11-21_01h55.02.447,Info_measure_main_exp,2022.2.2,Win32,143.9263097,,,,,,,,,,,,,,,,,,masks/mask_001.jpg,,,,,,,,,,,,,,,,,,,,,,,,,,,,,,,,,,,,,,,,,,,,,,,,0,3,3,0,1,,,,,,,,,,,,,,,,,,,,,,,,,,,,,,,,,,,,,,,,,
216061,001,2022-11-21_01h55.02.447,Info_measure_main_exp,2022.2.2,Win32,143.9263097,,,,,,,,,,,,,,,,,,masks/mask_002.jpg,,,,,,,,,,,,,,,,,,,,,,,,,,,,,,,,,,,,,,,,,,,,,,,,0,4,4,1,1,,,,,,,,,,,,,,,,,,,,,,,,,,,,,,,,,,,,,,,,,
216061,001,2022-11-21_01h55.02.447,Info_measure_main_exp,2022.2.2,Win32,143.9263097,,,,,,,,,,,,,,,,,,,,,,,,,,,,,,7,1.0484,1,,,,,,,,,,,,0,131,5,5,2166,1986,absent_patch/patch0002166.jpg,absent_patch/patch0001986.jpg,,,,,,,,,,,,,,,,,,,,0.092461048,0.135266246,1,0,0,response1disk,1,-0.009368279,-0.000814625,1,0,0,center_square,0,0,0,47,1,,,,,,,,,,,,,,,,,,,,,,,
216061,001,2022-11-21_01h55.02.447,Info_measure_main_exp,2022.2.2,Win32,143.9263097,,,,,,,,,,,,,,,,,,masks/mask_003.jpg,,,,,,,,,,,,,,,,,,,,,,,,,,,,,,,,,,,,,,,,,,,0,0,0,2,1,,,,,,,,,,,,,,,,,,,,,,,,,,,,,,,,,,,,,,,,,,,,,,
216061,001,2022-11-21_01h55.02.447,Info_measure_main_exp,2022.2.2,Win32,143.9263097,,,,,,,,,,,,,,,,,,masks/mask_002.jpg,,,,,,,,,,,,,,,,,,,,,,,,,,,,,,,,,,,,,,,,,,,0,1,1,1,1,,,,,,,,,,,,,,,,,,,,,,,,,,,,,,,,,,,,,,,,,,,,,,
216061,001,2022-11-21_01h55.02.447,Info_measure_main_exp,2022.2.2,Win32,143.9263097,,,,,,,,,,,,,,,,,,masks/mask_001.jpg,,,,,,,,,,,,,,,,,,,,,,,,,,,,,,,,,,,,,,,,,,,0,2,2,0,1,,,,,,,,,,,,,,,,,,,,,,,,,,,,,,,,,,,,,,,,,,,,,,
216061,001,2022-11-21_01h55.02.447,Info_measure_main_exp,2022.2.2,Win32,143.9263097,,,,,,,,,,,,,,,,,,masks/mask_005.jpg,,,,,,,,,,,,,,,,,,,,,,,,,,,,,,,,,,,,,,,,,,,0,3,3,4,1,,,,,,,,,,,,,,,,,,,,,,,,,,,,,,,,,,,,,,,,,,,,,,
216061,001,2022-11-21_01h55.02.447,Info_measure_main_exp,2022.2.2,Win32,143.9263097,,,,,,,,,,,,,,,,,,masks/mask_004.jpg,,,,,,,,,,,,,,,,,,,,,,,,,,,,,,,,,,,,,,,,,,,0,4,4,3,1,,,,,,,,,,,,,,,,,,,,,,,,,,,,,,,,,,,,,,,,,,,,,,
216061,001,2022-11-21_01h55.02.447,Info_measure_main_exp,2022.2.2,Win32,143.9263097,,,,,,,,,,,,,,,,,,masks/mask_005.jpg,,,,,,,,,,,,,,,,,,,,,,,,,,,,,,,,,,,,,,,,,,,,,,,,0,0,0,4,1,,,,,,,,,,,,,,,,,,,,,,,,,,,,,,,,,,,,,,,,,
216061,001,2022-11-21_01h55.02.447,Info_measure_main_exp,2022.2.2,Win32,143.9263097,,,,,,,,,,,,,,,,,,masks/mask_004.jpg,,,,,,,,,,,,,,,,,,,,,,,,,,,,,,,,,,,,,,,,,,,,,,,,0,1,1,3,1,,,,,,,,,,,,,,,,,,,,,,,,,,,,,,,,,,,,,,,,,
216061,001,2022-11-21_01h55.02.447,Info_measure_main_exp,2022.2.2,Win32,143.9263097,,,,,,,,,,,,,,,,,,masks/mask_002.jpg,,,,,,,,,,,,,,,,,,,,,,,,,,,,,,,,,,,,,,,,,,,,,,,,0,2,2,1,1,,,,,,,,,,,,,,,,,,,,,,,,,,,,,,,,,,,,,,,,,
216061,001,2022-11-21_01h55.02.447,Info_measure_main_exp,2022.2.2,Win32,143.9263097,,,,,,,,,,,,,,,,,,masks/mask_001.jpg,,,,,,,,,,,,,,,,,,,,,,,,,,,,,,,,,,,,,,,,,,,,,,,,0,3,3,0,1,,,,,,,,,,,,,,,,,,,,,,,,,,,,,,,,,,,,,,,,,
216061,001,2022-11-21_01h55.02.447,Info_measure_main_exp,2022.2.2,Win32,143.9263097,,,,,,,,,,,,,,,,,,masks/mask_003.jpg,,,,,,,,,,,,,,,,,,,,,,,,,,,,,,,,,,,,,,,,,,,,,,,,0,4,4,2,1,,,,,,,,,,,,,,,,,,,,,,,,,,,,,,,,,,,,,,,,,
216061,001,2022-11-21_01h55.02.447,Info_measure_main_exp,2022.2.2,Win32,143.9263097,,,,,,,,,,,,,,,,,,,,,,,,,,,,,,7,0.75,1,,,,,,,,,,,,0,131,5,5,2274,2190,absent_patch/patch0002274.jpg,absent_patch/patch0002190.jpg,,,,,,,,,,,,,,,,,,,,0.025809043,0.125083318,1,0,0,response1disk,2,-0.006591037,-0.005443235,1,0,0,center_square,0,1,1,116,1,,,,,,,,,,,,,,,,,,,,,,,
216061,001,2022-11-21_01h55.02.447,Info_measure_main_exp,2022.2.2,Win32,143.9263097,,,,,,,,,,,,,,,,,,masks/mask_005.jpg,,,,,,,,,,,,,,,,,,,,,,,,,,,,,,,,,,,,,,,,,,,0,0,0,4,1,,,,,,,,,,,,,,,,,,,,,,,,,,,,,,,,,,,,,,,,,,,,,,
216061,001,2022-11-21_01h55.02.447,Info_measure_main_exp,2022.2.2,Win32,143.9263097,,,,,,,,,,,,,,,,,,masks/mask_002.jpg,,,,,,,,,,,,,,,,,,,,,,,,,,,,,,,,,,,,,,,,,,,0,1,1,1,1,,,,,,,,,,,,,,,,,,,,,,,,,,,,,,,,,,,,,,,,,,,,,,
216061,001,2022-11-21_01h55.02.447,Info_measure_main_exp,2022.2.2,Win32,143.9263097,,,,,,,,,,,,,,,,,,masks/mask_003.jpg,,,,,,,,,,,,,,,,,,,,,,,,,,,,,,,,,,,,,,,,,,,0,2,2,2,1,,,,,,,,,,,,,,,,,,,,,,,,,,,,,,,,,,,,,,,,,,,,,,
216061,001,2022-11-21_01h55.02.447,Info_measure_main_exp,2022.2.2,Win32,143.9263097,,,,,,,,,,,,,,,,,,masks/mask_001.jpg,,,,,,,,,,,,,,,,,,,,,,,,,,,,,,,,,,,,,,,,,,,0,3,3,0,1,,,,,,,,,,,,,,,,,,,,,,,,,,,,,,,,,,,,,,,,,,,,,,
216061,001,2022-11-21_01h55.02.447,Info_measure_main_exp,2022.2.2,Win32,143.9263097,,,,,,,,,,,,,,,,,,masks/mask_004.jpg,,,,,,,,,,,,,,,,,,,,,,,,,,,,,,,,,,,,,,,,,,,0,4,4,3,1,,,,,,,,,,,,,,,,,,,,,,,,,,,,,,,,,,,,,,,,,,,,,,
216061,001,2022-11-21_01h55.02.447,Info_measure_main_exp,2022.2.2,Win32,143.9263097,,,,,,,,,,,,,,,,,,masks/mask_003.jpg,,,,,,,,,,,,,,,,,,,,,,,,,,,,,,,,,,,,,,,,,,,,,,,,0,0,0,2,1,,,,,,,,,,,,,,,,,,,,,,,,,,,,,,,,,,,,,,,,,
216061,001,2022-11-21_01h55.02.447,Info_measure_main_exp,2022.2.2,Win32,143.9263097,,,,,,,,,,,,,,,,,,masks/mask_001.jpg,,,,,,,,,,,,,,,,,,,,,,,,,,,,,,,,,,,,,,,,,,,,,,,,0,1,1,0,1,,,,,,,,,,,,,,,,,,,,,,,,,,,,,,,,,,,,,,,,,
216061,001,2022-11-21_01h55.02.447,Info_measure_main_exp,2022.2.2,Win32,143.9263097,,,,,,,,,,,,,,,,,,masks/mask_005.jpg,,,,,,,,,,,,,,,,,,,,,,,,,,,,,,,,,,,,,,,,,,,,,,,,0,2,2,4,1,,,,,,,,,,,,,,,,,,,,,,,,,,,,,,,,,,,,,,,,,
216061,001,2022-11-21_01h55.02.447,Info_measure_main_exp,2022.2.2,Win32,143.9263097,,,,,,,,,,,,,,,,,,masks/mask_004.jpg,,,,,,,,,,,,,,,,,,,,,,,,,,,,,,,,,,,,,,,,,,,,,,,,0,3,3,3,1,,,,,,,,,,,,,,,,,,,,,,,,,,,,,,,,,,,,,,,,,
216061,001,2022-11-21_01h55.02.447,Info_measure_main_exp,2022.2.2,Win32,143.9263097,,,,,,,,,,,,,,,,,,masks/mask_002.jpg,,,,,,,,,,,,,,,,,,,,,,,,,,,,,,,,,,,,,,,,,,,,,,,,0,4,4,1,1,,,,,,,,,,,,,,,,,,,,,,,,,,,,,,,,,,,,,,,,,
216061,001,2022-11-21_01h55.02.447,Info_measure_main_exp,2022.2.2,Win32,143.9263097,,,,,,,,,,,,,,,,,,,,,,,,,,,,,,3,1.9999,1,,,,,,,,,,,,0,131,5,5,1950,2214,absent_patch/patch0001950.jpg,absent_patch/patch0002214.jpg,,,,,,,,,,,,,,,,,,,,-0.038991308,-0.081352269,1,0,0,response5disk,3,-0.003813985,-0.003591772,1,0,0,center_square,0,2,2,85,1,,,,,,,,,,,,,,,,,,,,,,,
216061,001,2022-11-21_01h55.02.447,Info_measure_main_exp,2022.2.2,Win32,143.9263097,,,,,,,,,,,,,,,,,,masks/mask_001.jpg,,,,,,,,,,,,,,,,,,,,,,,,,,,,,,,,,,,,,,,,,,,0,0,0,0,1,,,,,,,,,,,,,,,,,,,,,,,,,,,,,,,,,,,,,,,,,,,,,,
216061,001,2022-11-21_01h55.02.447,Info_measure_main_exp,2022.2.2,Win32,143.9263097,,,,,,,,,,,,,,,,,,masks/mask_002.jpg,,,,,,,,,,,,,,,,,,,,,,,,,,,,,,,,,,,,,,,,,,,0,1,1,1,1,,,,,,,,,,,,,,,,,,,,,,,,,,,,,,,,,,,,,,,,,,,,,,
216061,001,2022-11-21_01h55.02.447,Info_measure_main_exp,2022.2.2,Win32,143.9263097,,,,,,,,,,,,,,,,,,masks/mask_005.jpg,,,,,,,,,,,,,,,,,,,,,,,,,,,,,,,,,,,,,,,,,,,0,2,2,4,1,,,,,,,,,,,,,,,,,,,,,,,,,,,,,,,,,,,,,,,,,,,,,,
216061,001,2022-11-21_01h55.02.447,Info_measure_main_exp,2022.2.2,Win32,143.9263097,,,,,,,,,,,,,,,,,,masks/mask_003.jpg,,,,,,,,,,,,,,,,,,,,,,,,,,,,,,,,,,,,,,,,,,,0,3,3,2,1,,,,,,,,,,,,,,,,,,,,,,,,,,,,,,,,,,,,,,,,,,,,,,
216061,001,2022-11-21_01h55.02.447,Info_measure_main_exp,2022.2.2,Win32,143.9263097,,,,,,,,,,,,,,,,,,masks/mask_004.jpg,,,,,,,,,,,,,,,,,,,,,,,,,,,,,,,,,,,,,,,,,,,0,4,4,3,1,,,,,,,,,,,,,,,,,,,,,,,,,,,,,,,,,,,,,,,,,,,,,,
216061,001,2022-11-21_01h55.02.447,Info_measure_main_exp,2022.2.2,Win32,143.9263097,,,,,,,,,,,,,,,,,,masks/mask_001.jpg,,,,,,,,,,,,,,,,,,,,,,,,,,,,,,,,,,,,,,,,,,,,,,,,0,0,0,0,1,,,,,,,,,,,,,,,,,,,,,,,,,,,,,,,,,,,,,,,,,
216061,001,2022-11-21_01h55.02.447,Info_measure_main_exp,2022.2.2,Win32,143.9263097,,,,,,,,,,,,,,,,,,masks/mask_003.jpg,,,,,,,,,,,,,,,,,,,,,,,,,,,,,,,,,,,,,,,,,,,,,,,,0,1,1,2,1,,,,,,,,,,,,,,,,,,,,,,,,,,,,,,,,,,,,,,,,,
216061,001,2022-11-21_01h55.02.447,Info_measure_main_exp,2022.2.2,Win32,143.9263097,,,,,,,,,,,,,,,,,,masks/mask_004.jpg,,,,,,,,,,,,,,,,,,,,,,,,,,,,,,,,,,,,,,,,,,,,,,,,0,2,2,3,1,,,,,,,,,,,,,,,,,,,,,,,,,,,,,,,,,,,,,,,,,
216061,001,2022-11-21_01h55.02.447,Info_measure_main_exp,2022.2.2,Win32,143.9263097,,,,,,,,,,,,,,,,,,masks/mask_005.jpg,,,,,,,,,,,,,,,,,,,,,,,,,,,,,,,,,,,,,,,,,,,,,,,,0,3,3,4,1,,,,,,,,,,,,,,,,,,,,,,,,,,,,,,,,,,,,,,,,,
216061,001,2022-11-21_01h55.02.447,Info_measure_main_exp,2022.2.2,Win32,143.9263097,,,,,,,,,,,,,,,,,,masks/mask_002.jpg,,,,,,,,,,,,,,,,,,,,,,,,,,,,,,,,,,,,,,,,,,,,,,,,0,4,4,1,1,,,,,,,,,,,,,,,,,,,,,,,,,,,,,,,,,,,,,,,,,
216061,001,2022-11-21_01h55.02.447,Info_measure_main_exp,2022.2.2,Win32,143.9263097,,,,,,,,,,,,,,,,,,,,,,,,,,,,,,7,2.2361,1,,,,,,,,,,,,0,131,5,5,2274,1974,absent_patch/patch0002274.jpg,absent_patch/patch0001974.jpg,,,,,,,,,,,,,,,,,,,,0.034140579,0.144523443,1,0,0,response1disk,4,0.008220382,0.001962522,1,0,0,center_square,0,3,3,90,1,,,,,,,,,,,,,,,,,,,,,,,
216061,001,2022-11-21_01h55.02.447,Info_measure_main_exp,2022.2.2,Win32,143.9263097,,,,,,,,,,,,,,,,,,masks/mask_003.jpg,,,,,,,,,,,,,,,,,,,,,,,,,,,,,,,,,,,,,,,,,,,0,0,0,2,1,,,,,,,,,,,,,,,,,,,,,,,,,,,,,,,,,,,,,,,,,,,,,,
216061,001,2022-11-21_01h55.02.447,Info_measure_main_exp,2022.2.2,Win32,143.9263097,,,,,,,,,,,,,,,,,,masks/mask_002.jpg,,,,,,,,,,,,,,,,,,,,,,,,,,,,,,,,,,,,,,,,,,,0,1,1,1,1,,,,,,,,,,,,,,,,,,,,,,,,,,,,,,,,,,,,,,,,,,,,,,
216061,001,2022-11-21_01h55.02.447,Info_measure_main_exp,2022.2.2,Win32,143.9263097,,,,,,,,,,,,,,,,,,masks/mask_001.jpg,,,,,,,,,,,,,,,,,,,,,,,,,,,,,,,,,,,,,,,,,,,0,2,2,0,1,,,,,,,,,,,,,,,,,,,,,,,,,,,,,,,,,,,,,,,,,,,,,,
216061,001,2022-11-21_01h55.02.447,Info_measure_main_exp,2022.2.2,Win32,143.9263097,,,,,,,,,,,,,,,,,,masks/mask_004.jpg,,,,,,,,,,,,,,,,,,,,,,,,,,,,,,,,,,,,,,,,,,,0,3,3,3,1,,,,,,,,,,,,,,,,,,,,,,,,,,,,,,,,,,,,,,,,,,,,,,
216061,001,2022-11-21_01h55.02.447,Info_measure_main_exp,2022.2.2,Win32,143.9263097,,,,,,,,,,,,,,,,,,masks/mask_005.jpg,,,,,,,,,,,,,,,,,,,,,,,,,,,,,,,,,,,,,,,,,,,0,4,4,4,1,,,,,,,,,,,,,,,,,,,,,,,,,,,,,,,,,,,,,,,,,,,,,,
216061,001,2022-11-21_01h55.02.447,Info_measure_main_exp,2022.2.2,Win32,143.9263097,,,,,,,,,,,,,,,,,,masks/mask_003.jpg,,,,,,,,,,,,,,,,,,,,,,,,,,,,,,,,,,,,,,,,,,,,,,,,0,0,0,2,1,,,,,,,,,,,,,,,,,,,,,,,,,,,,,,,,,,,,,,,,,
216061,001,2022-11-21_01h55.02.447,Info_measure_main_exp,2022.2.2,Win32,143.9263097,,,,,,,,,,,,,,,,,,masks/mask_004.jpg,,,,,,,,,,,,,,,,,,,,,,,,,,,,,,,,,,,,,,,,,,,,,,,,0,1,1,3,1,,,,,,,,,,,,,,,,,,,,,,,,,,,,,,,,,,,,,,,,,
216061,001,2022-11-21_01h55.02.447,Info_measure_main_exp,2022.2.2,Win32,143.9263097,,,,,,,,,,,,,,,,,,masks/mask_005.jpg,,,,,,,,,,,,,,,,,,,,,,,,,,,,,,,,,,,,,,,,,,,,,,,,0,2,2,4,1,,,,,,,,,,,,,,,,,,,,,,,,,,,,,,,,,,,,,,,,,
216061,001,2022-11-21_01h55.02.447,Info_measure_main_exp,2022.2.2,Win32,143.9263097,,,,,,,,,,,,,,,,,,masks/mask_001.jpg,,,,,,,,,,,,,,,,,,,,,,,,,,,,,,,,,,,,,,,,,,,,,,,,0,3,3,0,1,,,,,,,,,,,,,,,,,,,,,,,,,,,,,,,,,,,,,,,,,
216061,001,2022-11-21_01h55.02.447,Info_measure_main_exp,2022.2.2,Win32,143.9263097,,,,,,,,,,,,,,,,,,masks/mask_002.jpg,,,,,,,,,,,,,,,,,,,,,,,,,,,,,,,,,,,,,,,,,,,,,,,,0,4,4,1,1,,,,,,,,,,,,,,,,,,,,,,,,,,,,,,,,,,,,,,,,,
216061,001,2022-11-21_01h55.02.447,Info_measure_main_exp,2022.2.2,Win32,143.9263097,,,,,,,,,,,,,,,,,,,,,,,,,,,,,,6,1.7776,1,,,,,,,,,,,,0,131,5,5,1974,2166,absent_patch/patch0001974.jpg,absent_patch/patch0002166.jpg,,,,,,,,,,,,,,,,,,,,0.167444398,0.021402647,1,0,0,response1disk,5,0.012849087,0.006591132,1,0,0,center_square,0,4,4,77,1,,,,,,,,,,,,,,,,,,,,,,,
216061,001,2022-11-21_01h55.02.447,Info_measure_main_exp,2022.2.2,Win32,143.9263097,,,,,,,,,,,,,,,,,,masks/mask_004.jpg,,,,,,,,,,,,,,,,,,,,,,,,,,,,,,,,,,,,,,,,,,,0,0,0,3,1,,,,,,,,,,,,,,,,,,,,,,,,,,,,,,,,,,,,,,,,,,,,,,
216061,001,2022-11-21_01h55.02.447,Info_measure_main_exp,2022.2.2,Win32,143.9263097,,,,,,,,,,,,,,,,,,masks/mask_005.jpg,,,,,,,,,,,,,,,,,,,,,,,,,,,,,,,,,,,,,,,,,,,0,1,1,4,1,,,,,,,,,,,,,,,,,,,,,,,,,,,,,,,,,,,,,,,,,,,,,,
216061,001,2022-11-21_01h55.02.447,Info_measure_main_exp,2022.2.2,Win32,143.9263097,,,,,,,,,,,,,,,,,,masks/mask_001.jpg,,,,,,,,,,,,,,,,,,,,,,,,,,,,,,,,,,,,,,,,,,,0,2,2,0,1,,,,,,,,,,,,,,,,,,,,,,,,,,,,,,,,,,,,,,,,,,,,,,
216061,001,2022-11-21_01h55.02.447,Info_measure_main_exp,2022.2.2,Win32,143.9263097,,,,,,,,,,,,,,,,,,masks/mask_002.jpg,,,,,,,,,,,,,,,,,,,,,,,,,,,,,,,,,,,,,,,,,,,0,3,3,1,1,,,,,,,,,,,,,,,,,,,,,,,,,,,,,,,,,,,,,,,,,,,,,,
216061,001,2022-11-21_01h55.02.447,Info_measure_main_exp,2022.2.2,Win32,143.9263097,,,,,,,,,,,,,,,,,,masks/mask_003.jpg,,,,,,,,,,,,,,,,,,,,,,,,,,,,,,,,,,,,,,,,,,,0,4,4,2,1,,,,,,,,,,,,,,,,,,,,,,,,,,,,,,,,,,,,,,,,,,,,,,
216061,001,2022-11-21_01h55.02.447,Info_measure_main_exp,2022.2.2,Win32,143.9263097,,,,,,,,,,,,,,,,,,masks/mask_004.jpg,,,,,,,,,,,,,,,,,,,,,,,,,,,,,,,,,,,,,,,,,,,,,,,,0,0,0,3,1,,,,,,,,,,,,,,,,,,,,,,,,,,,,,,,,,,,,,,,,,
216061,001,2022-11-21_01h55.02.447,Info_measure_main_exp,2022.2.2,Win32,143.9263097,,,,,,,,,,,,,,,,,,masks/mask_005.jpg,,,,,,,,,,,,,,,,,,,,,,,,,,,,,,,,,,,,,,,,,,,,,,,,0,1,1,4,1,,,,,,,,,,,,,,,,,,,,,,,,,,,,,,,,,,,,,,,,,
216061,001,2022-11-21_01h55.02.447,Info_measure_main_exp,2022.2.2,Win32,143.9263097,,,,,,,,,,,,,,,,,,masks/mask_003.jpg,,,,,,,,,,,,,,,,,,,,,,,,,,,,,,,,,,,,,,,,,,,,,,,,0,2,2,2,1,,,,,,,,,,,,,,,,,,,,,,,,,,,,,,,,,,,,,,,,,
216061,001,2022-11-21_01h55.02.447,Info_measure_main_exp,2022.2.2,Win32,143.9263097,,,,,,,,,,,,,,,,,,masks/mask_001.jpg,,,,,,,,,,,,,,,,,,,,,,,,,,,,,,,,,,,,,,,,,,,,,,,,0,3,3,0,1,,,,,,,,,,,,,,,,,,,,,,,,,,,,,,,,,,,,,,,,,
216061,001,2022-11-21_01h55.02.447,Info_measure_main_exp,2022.2.2,Win32,143.9263097,,,,,,,,,,,,,,,,,,masks/mask_002.jpg,,,,,,,,,,,,,,,,,,,,,,,,,,,,,,,,,,,,,,,,,,,,,,,,0,4,4,1,1,,,,,,,,,,,,,,,,,,,,,,,,,,,,,,,,,,,,,,,,,
216061,001,2022-11-21_01h55.02.447,Info_measure_main_exp,2022.2.2,Win32,143.9263097,,,,,,,,,,,,,,,,,,,,,,,,,,,,,,7,2.0344,1,,,,,,,,,,,,0,131,5,5,2274,1950,absent_patch/patch0002274.jpg,absent_patch/patch0001950.jpg,,,,,,,,,,,,,,,,,,,,0.114678224,0.161186349,1,0,0,response1disk,6,0.003591772,0.009368232,1,0,0,center_square,0,5,5,10,1,,,,,,,,,,,,,,,,,,,,,,,
216061,001,2022-11-21_01h55.02.447,Info_measure_main_exp,2022.2.2,Win32,143.9263097,,,,,,,,,,,,,,,,,,masks/mask_001.jpg,,,,,,,,,,,,,,,,,,,,,,,,,,,,,,,,,,,,,,,,,,,0,0,0,0,1,,,,,,,,,,,,,,,,,,,,,,,,,,,,,,,,,,,,,,,,,,,,,,
216061,001,2022-11-21_01h55.02.447,Info_measure_main_exp,2022.2.2,Win32,143.9263097,,,,,,,,,,,,,,,,,,masks/mask_002.jpg,,,,,,,,,,,,,,,,,,,,,,,,,,,,,,,,,,,,,,,,,,,0,1,1,1,1,,,,,,,,,,,,,,,,,,,,,,,,,,,,,,,,,,,,,,,,,,,,,,
216061,001,2022-11-21_01h55.02.447,Info_measure_main_exp,2022.2.2,Win32,143.9263097,,,,,,,,,,,,,,,,,,masks/mask_005.jpg,,,,,,,,,,,,,,,,,,,,,,,,,,,,,,,,,,,,,,,,,,,0,2,2,4,1,,,,,,,,,,,,,,,,,,,,,,,,,,,,,,,,,,,,,,,,,,,,,,
216061,001,2022-11-21_01h55.02.447,Info_measure_main_exp,2022.2.2,Win32,143.9263097,,,,,,,,,,,,,,,,,,masks/mask_003.jpg,,,,,,,,,,,,,,,,,,,,,,,,,,,,,,,,,,,,,,,,,,,0,3,3,2,1,,,,,,,,,,,,,,,,,,,,,,,,,,,,,,,,,,,,,,,,,,,,,,
216061,001,2022-11-21_01h55.02.447,Info_measure_main_exp,2022.2.2,Win32,143.9263097,,,,,,,,,,,,,,,,,,masks/mask_004.jpg,,,,,,,,,,,,,,,,,,,,,,,,,,,,,,,,,,,,,,,,,,,0,4,4,3,1,,,,,,,,,,,,,,,,,,,,,,,,,,,,,,,,,,,,,,,,,,,,,,
216061,001,2022-11-21_01h55.02.447,Info_measure_main_exp,2022.2.2,Win32,143.9263097,,,,,,,,,,,,,,,,,,masks/mask_002.jpg,,,,,,,,,,,,,,,,,,,,,,,,,,,,,,,,,,,,,,,,,,,,,,,,0,0,0,1,1,,,,,,,,,,,,,,,,,,,,,,,,,,,,,,,,,,,,,,,,,
216061,001,2022-11-21_01h55.02.447,Info_measure_main_exp,2022.2.2,Win32,143.9263097,,,,,,,,,,,,,,,,,,masks/mask_005.jpg,,,,,,,,,,,,,,,,,,,,,,,,,,,,,,,,,,,,,,,,,,,,,,,,0,1,1,4,1,,,,,,,,,,,,,,,,,,,,,,,,,,,,,,,,,,,,,,,,,
216061,001,2022-11-21_01h55.02.447,Info_measure_main_exp,2022.2.2,Win32,143.9263097,,,,,,,,,,,,,,,,,,masks/mask_003.jpg,,,,,,,,,,,,,,,,,,,,,,,,,,,,,,,,,,,,,,,,,,,,,,,,0,2,2,2,1,,,,,,,,,,,,,,,,,,,,,,,,,,,,,,,,,,,,,,,,,
216061,001,2022-11-21_01h55.02.447,Info_measure_main_exp,2022.2.2,Win32,143.9263097,,,,,,,,,,,,,,,,,,masks/mask_001.jpg,,,,,,,,,,,,,,,,,,,,,,,,,,,,,,,,,,,,,,,,,,,,,,,,0,3,3,0,1,,,,,,,,,,,,,,,,,,,,,,,,,,,,,,,,,,,,,,,,,
216061,001,2022-11-21_01h55.02.447,Info_measure_main_exp,2022.2.2,Win32,143.9263097,,,,,,,,,,,,,,,,,,masks/mask_004.jpg,,,,,,,,,,,,,,,,,,,,,,,,,,,,,,,,,,,,,,,,,,,,,,,,0,4,4,3,1,,,,,,,,,,,,,,,,,,,,,,,,,,,,,,,,,,,,,,,,,
216061,001,2022-11-21_01h55.02.447,Info_measure_main_exp,2022.2.2,Win32,143.9263097,,,,,,,,,,,,,,,,,,,,,,,,,,,,,,2,1.0344,1,,,,,,,,,,,,0,131,5,5,1950,2082,absent_patch/patch0001950.jpg,absent_patch/patch0002082.jpg,,,,,,,,,,,,,,,,,,,,-0.138969125,-0.072095144,1,0,0,response5disk,7,0.009146066,-0.000814625,1,0,0,center_square,0,6,6,12,1,,,,,,,,,,,,,,,,,,,,,,,
216061,001,2022-11-21_01h55.02.447,Info_measure_main_exp,2022.2.2,Win32,143.9263097,,,,,,,,,,,,,,,,,,masks/mask_003.jpg,,,,,,,,,,,,,,,,,,,,,,,,,,,,,,,,,,,,,,,,,,,0,0,0,2,1,,,,,,,,,,,,,,,,,,,,,,,,,,,,,,,,,,,,,,,,,,,,,,
216061,001,2022-11-21_01h55.02.447,Info_measure_main_exp,2022.2.2,Win32,143.9263097,,,,,,,,,,,,,,,,,,masks/mask_001.jpg,,,,,,,,,,,,,,,,,,,,,,,,,,,,,,,,,,,,,,,,,,,0,1,1,0,1,,,,,,,,,,,,,,,,,,,,,,,,,,,,,,,,,,,,,,,,,,,,,,
216061,001,2022-11-21_01h55.02.447,Info_measure_main_exp,2022.2.2,Win32,143.9263097,,,,,,,,,,,,,,,,,,masks/mask_005.jpg,,,,,,,,,,,,,,,,,,,,,,,,,,,,,,,,,,,,,,,,,,,0,2,2,4,1,,,,,,,,,,,,,,,,,,,,,,,,,,,,,,,,,,,,,,,,,,,,,,
216061,001,2022-11-21_01h55.02.447,Info_measure_main_exp,2022.2.2,Win32,143.9263097,,,,,,,,,,,,,,,,,,masks/mask_002.jpg,,,,,,,,,,,,,,,,,,,,,,,,,,,,,,,,,,,,,,,,,,,0,3,3,1,1,,,,,,,,,,,,,,,,,,,,,,,,,,,,,,,,,,,,,,,,,,,,,,
216061,001,2022-11-21_01h55.02.447,Info_measure_main_exp,2022.2.2,Win32,143.9263097,,,,,,,,,,,,,,,,,,masks/mask_004.jpg,,,,,,,,,,,,,,,,,,,,,,,,,,,,,,,,,,,,,,,,,,,0,4,4,3,1,,,,,,,,,,,,,,,,,,,,,,,,,,,,,,,,,,,,,,,,,,,,,,
216061,001,2022-11-21_01h55.02.447,Info_measure_main_exp,2022.2.2,Win32,143.9263097,,,,,,,,,,,,,,,,,,masks/mask_004.jpg,,,,,,,,,,,,,,,,,,,,,,,,,,,,,,,,,,,,,,,,,,,,,,,,0,0,0,3,1,,,,,,,,,,,,,,,,,,,,,,,,,,,,,,,,,,,,,,,,,
216061,001,2022-11-21_01h55.02.447,Info_measure_main_exp,2022.2.2,Win32,143.9263097,,,,,,,,,,,,,,,,,,masks/mask_001.jpg,,,,,,,,,,,,,,,,,,,,,,,,,,,,,,,,,,,,,,,,,,,,,,,,0,1,1,0,1,,,,,,,,,,,,,,,,,,,,,,,,,,,,,,,,,,,,,,,,,
216061,001,2022-11-21_01h55.02.447,Info_measure_main_exp,2022.2.2,Win32,143.9263097,,,,,,,,,,,,,,,,,,masks/mask_005.jpg,,,,,,,,,,,,,,,,,,,,,,,,,,,,,,,,,,,,,,,,,,,,,,,,0,2,2,4,1,,,,,,,,,,,,,,,,,,,,,,,,,,,,,,,,,,,,,,,,,
216061,001,2022-11-21_01h55.02.447,Info_measure_main_exp,2022.2.2,Win32,143.9263097,,,,,,,,,,,,,,,,,,masks/mask_002.jpg,,,,,,,,,,,,,,,,,,,,,,,,,,,,,,,,,,,,,,,,,,,,,,,,0,3,3,1,1,,,,,,,,,,,,,,,,,,,,,,,,,,,,,,,,,,,,,,,,,
216061,001,2022-11-21_01h55.02.447,Info_measure_main_exp,2022.2.2,Win32,143.9263097,,,,,,,,,,,,,,,,,,masks/mask_003.jpg,,,,,,,,,,,,,,,,,,,,,,,,,,,,,,,,,,,,,,,,,,,,,,,,0,4,4,2,1,,,,,,,,,,,,,,,,,,,,,,,,,,,,,,,,,,,,,,,,,
216061,001,2022-11-21_01h55.02.447,Info_measure_main_exp,2022.2.2,Win32,143.9263097,,,,,,,,,,,,,,,,,,,,,,,,,,,,,,6,0.972,1,,,,,,,,,,,,0,131,5,5,2166,2154,absent_patch/patch0002166.jpg,absent_patch/patch0002154.jpg,,,,,,,,,,,,,,,,,,,,0.148929863,0.068614337,1,0,0,response1disk,8,-0.003813985,-0.005443235,1,0,0,center_square,0,7,7,79,1,,,,,,,,,,,,,,,,,,,,,,,
216061,001,2022-11-21_01h55.02.447,Info_measure_main_exp,2022.2.2,Win32,143.9263097,,,,,,,,,,,,,,,,,,masks/mask_004.jpg,,,,,,,,,,,,,,,,,,,,,,,,,,,,,,,,,,,,,,,,,,,0,0,0,3,1,,,,,,,,,,,,,,,,,,,,,,,,,,,,,,,,,,,,,,,,,,,,,,
216061,001,2022-11-21_01h55.02.447,Info_measure_main_exp,2022.2.2,Win32,143.9263097,,,,,,,,,,,,,,,,,,masks/mask_003.jpg,,,,,,,,,,,,,,,,,,,,,,,,,,,,,,,,,,,,,,,,,,,0,1,1,2,1,,,,,,,,,,,,,,,,,,,,,,,,,,,,,,,,,,,,,,,,,,,,,,
216061,001,2022-11-21_01h55.02.447,Info_measure_main_exp,2022.2.2,Win32,143.9263097,,,,,,,,,,,,,,,,,,masks/mask_005.jpg,,,,,,,,,,,,,,,,,,,,,,,,,,,,,,,,,,,,,,,,,,,0,2,2,4,1,,,,,,,,,,,,,,,,,,,,,,,,,,,,,,,,,,,,,,,,,,,,,,
216061,001,2022-11-21_01h55.02.447,Info_measure_main_exp,2022.2.2,Win32,143.9263097,,,,,,,,,,,,,,,,,,masks/mask_001.jpg,,,,,,,,,,,,,,,,,,,,,,,,,,,,,,,,,,,,,,,,,,,0,3,3,0,1,,,,,,,,,,,,,,,,,,,,,,,,,,,,,,,,,,,,,,,,,,,,,,
216061,001,2022-11-21_01h55.02.447,Info_measure_main_exp,2022.2.2,Win32,143.9263097,,,,,,,,,,,,,,,,,,masks/mask_002.jpg,,,,,,,,,,,,,,,,,,,,,,,,,,,,,,,,,,,,,,,,,,,0,4,4,1,1,,,,,,,,,,,,,,,,,,,,,,,,,,,,,,,,,,,,,,,,,,,,,,
216061,001,2022-11-21_01h55.02.447,Info_measure_main_exp,2022.2.2,Win32,143.9263097,,,,,,,,,,,,,,,,,,masks/mask_001.jpg,,,,,,,,,,,,,,,,,,,,,,,,,,,,,,,,,,,,,,,,,,,,,,,,0,0,0,0,1,,,,,,,,,,,,,,,,,,,,,,,,,,,,,,,,,,,,,,,,,
216061,001,2022-11-21_01h55.02.447,Info_measure_main_exp,2022.2.2,Win32,143.9263097,,,,,,,,,,,,,,,,,,masks/mask_005.jpg,,,,,,,,,,,,,,,,,,,,,,,,,,,,,,,,,,,,,,,,,,,,,,,,0,1,1,4,1,,,,,,,,,,,,,,,,,,,,,,,,,,,,,,,,,,,,,,,,,
216061,001,2022-11-21_01h55.02.447,Info_measure_main_exp,2022.2.2,Win32,143.9263097,,,,,,,,,,,,,,,,,,masks/mask_002.jpg,,,,,,,,,,,,,,,,,,,,,,,,,,,,,,,,,,,,,,,,,,,,,,,,0,2,2,1,1,,,,,,,,,,,,,,,,,,,,,,,,,,,,,,,,,,,,,,,,,
216061,001,2022-11-21_01h55.02.447,Info_measure_main_exp,2022.2.2,Win32,143.9263097,,,,,,,,,,,,,,,,,,masks/mask_003.jpg,,,,,,,,,,,,,,,,,,,,,,,,,,,,,,,,,,,,,,,,,,,,,,,,0,3,3,2,1,,,,,,,,,,,,,,,,,,,,,,,,,,,,,,,,,,,,,,,,,
216061,001,2022-11-21_01h55.02.447,Info_measure_main_exp,2022.2.2,Win32,143.9263097,,,,,,,,,,,,,,,,,,masks/mask_004.jpg,,,,,,,,,,,,,,,,,,,,,,,,,,,,,,,,,,,,,,,,,,,,,,,,0,4,4,3,1,,,,,,,,,,,,,,,,,,,,,,,,,,,,,,,,,,,,,,,,,
216061,001,2022-11-21_01h55.02.447,Info_measure_main_exp,2022.2.2,Win32,143.9263097,,,,,,,,,,,,,,,,,,,,,,,,,,,,,,1,1.3747,1,,,,,,,,,,,,0,131,5,5,1974,2250,absent_patch/patch0001974.jpg,absent_patch/patch0002250.jpg,,,,,,,,,,,,,,,,,,,,-0.099163097,0.0186255,1,0,0,response7disk,9,0.003591772,-0.009146113,1,0,0,center_square,0,8,8,55,1,,,,,,,,,,,,,,,,,,,,,,,
216061,001,2022-11-21_01h55.02.447,Info_measure_main_exp,2022.2.2,Win32,143.9263097,,,,,,,,,,,,,,,,,,masks/mask_003.jpg,,,,,,,,,,,,,,,,,,,,,,,,,,,,,,,,,,,,,,,,,,,0,0,0,2,1,,,,,,,,,,,,,,,,,,,,,,,,,,,,,,,,,,,,,,,,,,,,,,
216061,001,2022-11-21_01h55.02.447,Info_measure_main_exp,2022.2.2,Win32,143.9263097,,,,,,,,,,,,,,,,,,masks/mask_004.jpg,,,,,,,,,,,,,,,,,,,,,,,,,,,,,,,,,,,,,,,,,,,0,1,1,3,1,,,,,,,,,,,,,,,,,,,,,,,,,,,,,,,,,,,,,,,,,,,,,,
216061,001,2022-11-21_01h55.02.447,Info_measure_main_exp,2022.2.2,Win32,143.9263097,,,,,,,,,,,,,,,,,,masks/mask_002.jpg,,,,,,,,,,,,,,,,,,,,,,,,,,,,,,,,,,,,,,,,,,,0,2,2,1,1,,,,,,,,,,,,,,,,,,,,,,,,,,,,,,,,,,,,,,,,,,,,,,
216061,001,2022-11-21_01h55.02.447,Info_measure_main_exp,2022.2.2,Win32,143.9263097,,,,,,,,,,,,,,,,,,masks/mask_005.jpg,,,,,,,,,,,,,,,,,,,,,,,,,,,,,,,,,,,,,,,,,,,0,3,3,4,1,,,,,,,,,,,,,,,,,,,,,,,,,,,,,,,,,,,,,,,,,,,,,,
216061,001,2022-11-21_01h55.02.447,Info_measure_main_exp,2022.2.2,Win32,143.9263097,,,,,,,,,,,,,,,,,,masks/mask_001.jpg,,,,,,,,,,,,,,,,,,,,,,,,,,,,,,,,,,,,,,,,,,,0,4,4,0,1,,,,,,,,,,,,,,,,,,,,,,,,,,,,,,,,,,,,,,,,,,,,,,
216061,001,2022-11-21_01h55.02.447,Info_measure_main_exp,2022.2.2,Win32,143.9263097,,,,,,,,,,,,,,,,,,masks/mask_003.jpg,,,,,,,,,,,,,,,,,,,,,,,,,,,,,,,,,,,,,,,,,,,,,,,,0,0,0,2,1,,,,,,,,,,,,,,,,,,,,,,,,,,,,,,,,,,,,,,,,,
216061,001,2022-11-21_01h55.02.447,Info_measure_main_exp,2022.2.2,Win32,143.9263097,,,,,,,,,,,,,,,,,,masks/mask_004.jpg,,,,,,,,,,,,,,,,,,,,,,,,,,,,,,,,,,,,,,,,,,,,,,,,0,1,1,3,1,,,,,,,,,,,,,,,,,,,,,,,,,,,,,,,,,,,,,,,,,
216061,001,2022-11-21_01h55.02.447,Info_measure_main_exp,2022.2.2,Win32,143.9263097,,,,,,,,,,,,,,,,,,masks/mask_005.jpg,,,,,,,,,,,,,,,,,,,,,,,,,,,,,,,,,,,,,,,,,,,,,,,,0,2,2,4,1,,,,,,,,,,,,,,,,,,,,,,,,,,,,,,,,,,,,,,,,,
216061,001,2022-11-21_01h55.02.447,Info_measure_main_exp,2022.2.2,Win32,143.9263097,,,,,,,,,,,,,,,,,,masks/mask_001.jpg,,,,,,,,,,,,,,,,,,,,,,,,,,,,,,,,,,,,,,,,,,,,,,,,0,3,3,0,1,,,,,,,,,,,,,,,,,,,,,,,,,,,,,,,,,,,,,,,,,
216061,001,2022-11-21_01h55.02.447,Info_measure_main_exp,2022.2.2,Win32,143.9263097,,,,,,,,,,,,,,,,,,masks/mask_002.jpg,,,,,,,,,,,,,,,,,,,,,,,,,,,,,,,,,,,,,,,,,,,,,,,,0,4,4,1,1,,,,,,,,,,,,,,,,,,,,,,,,,,,,,,,,,,,,,,,,,
216061,001,2022-11-21_01h55.02.447,Info_measure_main_exp,2022.2.2,Win32,143.9263097,,,,,,,,,,,,,,,,,,,,,,,,,,,,,,7,0.9304,1,,,,,,,,,,,,0,131,5,5,2250,2166,absent_patch/patch0002250.jpg,absent_patch/patch0002166.jpg,,,,,,,,,,,,,,,,,,,,0.025809043,0.104717415,1,0,0,response1disk,10,0.002666088,0.001036743,1,0,0,center_square,0,9,9,60,1,,,,,,,,,,,,,,,,,,,,,,,
216061,001,2022-11-21_01h55.02.447,Info_measure_main_exp,2022.2.2,Win32,143.9263097,,,,,,,,,,,,,,,,,,masks/mask_005.jpg,,,,,,,,,,,,,,,,,,,,,,,,,,,,,,,,,,,,,,,,,,,0,0,0,4,1,,,,,,,,,,,,,,,,,,,,,,,,,,,,,,,,,,,,,,,,,,,,,,
216061,001,2022-11-21_01h55.02.447,Info_measure_main_exp,2022.2.2,Win32,143.9263097,,,,,,,,,,,,,,,,,,masks/mask_002.jpg,,,,,,,,,,,,,,,,,,,,,,,,,,,,,,,,,,,,,,,,,,,0,1,1,1,1,,,,,,,,,,,,,,,,,,,,,,,,,,,,,,,,,,,,,,,,,,,,,,
216061,001,2022-11-21_01h55.02.447,Info_measure_main_exp,2022.2.2,Win32,143.9263097,,,,,,,,,,,,,,,,,,masks/mask_001.jpg,,,,,,,,,,,,,,,,,,,,,,,,,,,,,,,,,,,,,,,,,,,0,2,2,0,1,,,,,,,,,,,,,,,,,,,,,,,,,,,,,,,,,,,,,,,,,,,,,,
216061,001,2022-11-21_01h55.02.447,Info_measure_main_exp,2022.2.2,Win32,143.9263097,,,,,,,,,,,,,,,,,,masks/mask_004.jpg,,,,,,,,,,,,,,,,,,,,,,,,,,,,,,,,,,,,,,,,,,,0,3,3,3,1,,,,,,,,,,,,,,,,,,,,,,,,,,,,,,,,,,,,,,,,,,,,,,
216061,001,2022-11-21_01h55.02.447,Info_measure_main_exp,2022.2.2,Win32,143.9263097,,,,,,,,,,,,,,,,,,masks/mask_003.jpg,,,,,,,,,,,,,,,,,,,,,,,,,,,,,,,,,,,,,,,,,,,0,4,4,2,1,,,,,,,,,,,,,,,,,,,,,,,,,,,,,,,,,,,,,,,,,,,,,,
216061,001,2022-11-21_01h55.02.447,Info_measure_main_exp,2022.2.2,Win32,143.9263097,,,,,,,,,,,,,,,,,,masks/mask_005.jpg,,,,,,,,,,,,,,,,,,,,,,,,,,,,,,,,,,,,,,,,,,,,,,,,0,0,0,4,1,,,,,,,,,,,,,,,,,,,,,,,,,,,,,,,,,,,,,,,,,
216061,001,2022-11-21_01h55.02.447,Info_measure_main_exp,2022.2.2,Win32,143.9263097,,,,,,,,,,,,,,,,,,masks/mask_004.jpg,,,,,,,,,,,,,,,,,,,,,,,,,,,,,,,,,,,,,,,,,,,,,,,,0,1,1,3,1,,,,,,,,,,,,,,,,,,,,,,,,,,,,,,,,,,,,,,,,,
216061,001,2022-11-21_01h55.02.447,Info_measure_main_exp,2022.2.2,Win32,143.9263097,,,,,,,,,,,,,,,,,,masks/mask_001.jpg,,,,,,,,,,,,,,,,,,,,,,,,,,,,,,,,,,,,,,,,,,,,,,,,0,2,2,0,1,,,,,,,,,,,,,,,,,,,,,,,,,,,,,,,,,,,,,,,,,
216061,001,2022-11-21_01h55.02.447,Info_measure_main_exp,2022.2.2,Win32,143.9263097,,,,,,,,,,,,,,,,,,masks/mask_003.jpg,,,,,,,,,,,,,,,,,,,,,,,,,,,,,,,,,,,,,,,,,,,,,,,,0,3,3,2,1,,,,,,,,,,,,,,,,,,,,,,,,,,,,,,,,,,,,,,,,,
216061,001,2022-11-21_01h55.02.447,Info_measure_main_exp,2022.2.2,Win32,143.9263097,,,,,,,,,,,,,,,,,,masks/mask_002.jpg,,,,,,,,,,,,,,,,,,,,,,,,,,,,,,,,,,,,,,,,,,,,,,,,0,4,4,1,1,,,,,,,,,,,,,,,,,,,,,,,,,,,,,,,,,,,,,,,,,
216061,001,2022-11-21_01h55.02.447,Info_measure_main_exp,2022.2.2,Win32,143.9263097,,,,,,,,,,,,,,,,,,,,,,,,,,,,,,7,0.6316,1,,,,,,,,,,,,0,131,5,5,2274,2274,absent_patch/patch0002274.jpg,absent_patch/patch0002274.jpg,,,,,,,,,,,,,,,,,,,,0.042472021,0.126934757,1,0,0,response1disk,11,-0.001962522,0.001036743,1,0,0,center_square,0,10,10,114,1,,,,,,,,,,,,,,,,,,,,,,,
216061,001,2022-11-21_01h55.02.447,Info_measure_main_exp,2022.2.2,Win32,143.9263097,,,,,,,,,,,,,,,,,,masks/mask_004.jpg,,,,,,,,,,,,,,,,,,,,,,,,,,,,,,,,,,,,,,,,,,,0,0,0,3,1,,,,,,,,,,,,,,,,,,,,,,,,,,,,,,,,,,,,,,,,,,,,,,
216061,001,2022-11-21_01h55.02.447,Info_measure_main_exp,2022.2.2,Win32,143.9263097,,,,,,,,,,,,,,,,,,masks/mask_002.jpg,,,,,,,,,,,,,,,,,,,,,,,,,,,,,,,,,,,,,,,,,,,0,1,1,1,1,,,,,,,,,,,,,,,,,,,,,,,,,,,,,,,,,,,,,,,,,,,,,,
216061,001,2022-11-21_01h55.02.447,Info_measure_main_exp,2022.2.2,Win32,143.9263097,,,,,,,,,,,,,,,,,,masks/mask_001.jpg,,,,,,,,,,,,,,,,,,,,,,,,,,,,,,,,,,,,,,,,,,,0,2,2,0,1,,,,,,,,,,,,,,,,,,,,,,,,,,,,,,,,,,,,,,,,,,,,,,
216061,001,2022-11-21_01h55.02.447,Info_measure_main_exp,2022.2.2,Win32,143.9263097,,,,,,,,,,,,,,,,,,masks/mask_005.jpg,,,,,,,,,,,,,,,,,,,,,,,,,,,,,,,,,,,,,,,,,,,0,3,3,4,1,,,,,,,,,,,,,,,,,,,,,,,,,,,,,,,,,,,,,,,,,,,,,,
216061,001,2022-11-21_01h55.02.447,Info_measure_main_exp,2022.2.2,Win32,143.9263097,,,,,,,,,,,,,,,,,,masks/mask_003.jpg,,,,,,,,,,,,,,,,,,,,,,,,,,,,,,,,,,,,,,,,,,,0,4,4,2,1,,,,,,,,,,,,,,,,,,,,,,,,,,,,,,,,,,,,,,,,,,,,,,
216061,001,2022-11-21_01h55.02.447,Info_measure_main_exp,2022.2.2,Win32,143.9263097,,,,,,,,,,,,,,,,,,masks/mask_002.jpg,,,,,,,,,,,,,,,,,,,,,,,,,,,,,,,,,,,,,,,,,,,,,,,,0,0,0,1,1,,,,,,,,,,,,,,,,,,,,,,,,,,,,,,,,,,,,,,,,,
216061,001,2022-11-21_01h55.02.447,Info_measure_main_exp,2022.2.2,Win32,143.9263097,,,,,,,,,,,,,,,,,,masks/mask_004.jpg,,,,,,,,,,,,,,,,,,,,,,,,,,,,,,,,,,,,,,,,,,,,,,,,0,1,1,3,1,,,,,,,,,,,,,,,,,,,,,,,,,,,,,,,,,,,,,,,,,
216061,001,2022-11-21_01h55.02.447,Info_measure_main_exp,2022.2.2,Win32,143.9263097,,,,,,,,,,,,,,,,,,masks/mask_003.jpg,,,,,,,,,,,,,,,,,,,,,,,,,,,,,,,,,,,,,,,,,,,,,,,,0,2,2,2,1,,,,,,,,,,,,,,,,,,,,,,,,,,,,,,,,,,,,,,,,,
216061,001,2022-11-21_01h55.02.447,Info_measure_main_exp,2022.2.2,Win32,143.9263097,,,,,,,,,,,,,,,,,,masks/mask_001.jpg,,,,,,,,,,,,,,,,,,,,,,,,,,,,,,,,,,,,,,,,,,,,,,,,0,3,3,0,1,,,,,,,,,,,,,,,,,,,,,,,,,,,,,,,,,,,,,,,,,
216061,001,2022-11-21_01h55.02.447,Info_measure_main_exp,2022.2.2,Win32,143.9263097,,,,,,,,,,,,,,,,,,masks/mask_005.jpg,,,,,,,,,,,,,,,,,,,,,,,,,,,,,,,,,,,,,,,,,,,,,,,,0,4,4,4,1,,,,,,,,,,,,,,,,,,,,,,,,,,,,,,,,,,,,,,,,,
216061,001,2022-11-21_01h55.02.447,Info_measure_main_exp,2022.2.2,Win32,143.9263097,,,,,,,,,,,,,,,,,,,,,,,,,,,,,,5,0.8815,1,,,,,,,,,,,,0,131,5,5,2250,1986,absent_patch/patch0002250.jpg,absent_patch/patch0001986.jpg,,,,,,,,,,,,,,,,,,,,0.098940931,-0.017477602,1,0,0,response3disk,12,0.001740309,-0.005443235,1,0,0,center_square,0,11,11,29,1,,,,,,,,,,,,,,,,,,,,,,,
216061,001,2022-11-21_01h55.02.447,Info_measure_main_exp,2022.2.2,Win32,143.9263097,,,,,,,,,,,,,,,,,,masks/mask_003.jpg,,,,,,,,,,,,,,,,,,,,,,,,,,,,,,,,,,,,,,,,,,,0,0,0,2,1,,,,,,,,,,,,,,,,,,,,,,,,,,,,,,,,,,,,,,,,,,,,,,
216061,001,2022-11-21_01h55.02.447,Info_measure_main_exp,2022.2.2,Win32,143.9263097,,,,,,,,,,,,,,,,,,masks/mask_002.jpg,,,,,,,,,,,,,,,,,,,,,,,,,,,,,,,,,,,,,,,,,,,0,1,1,1,1,,,,,,,,,,,,,,,,,,,,,,,,,,,,,,,,,,,,,,,,,,,,,,
216061,001,2022-11-21_01h55.02.447,Info_measure_main_exp,2022.2.2,Win32,143.9263097,,,,,,,,,,,,,,,,,,masks/mask_001.jpg,,,,,,,,,,,,,,,,,,,,,,,,,,,,,,,,,,,,,,,,,,,0,2,2,0,1,,,,,,,,,,,,,,,,,,,,,,,,,,,,,,,,,,,,,,,,,,,,,,
216061,001,2022-11-21_01h55.02.447,Info_measure_main_exp,2022.2.2,Win32,143.9263097,,,,,,,,,,,,,,,,,,masks/mask_004.jpg,,,,,,,,,,,,,,,,,,,,,,,,,,,,,,,,,,,,,,,,,,,0,3,3,3,1,,,,,,,,,,,,,,,,,,,,,,,,,,,,,,,,,,,,,,,,,,,,,,
216061,001,2022-11-21_01h55.02.447,Info_measure_main_exp,2022.2.2,Win32,143.9263097,,,,,,,,,,,,,,,,,,masks/mask_005.jpg,,,,,,,,,,,,,,,,,,,,,,,,,,,,,,,,,,,,,,,,,,,0,4,4,4,1,,,,,,,,,,,,,,,,,,,,,,,,,,,,,,,,,,,,,,,,,,,,,,
216061,001,2022-11-21_01h55.02.447,Info_measure_main_exp,2022.2.2,Win32,143.9263097,,,,,,,,,,,,,,,,,,masks/mask_005.jpg,,,,,,,,,,,,,,,,,,,,,,,,,,,,,,,,,,,,,,,,,,,,,,,,0,0,0,4,1,,,,,,,,,,,,,,,,,,,,,,,,,,,,,,,,,,,,,,,,,
216061,001,2022-11-21_01h55.02.447,Info_measure_main_exp,2022.2.2,Win32,143.9263097,,,,,,,,,,,,,,,,,,masks/mask_004.jpg,,,,,,,,,,,,,,,,,,,,,,,,,,,,,,,,,,,,,,,,,,,,,,,,0,1,1,3,1,,,,,,,,,,,,,,,,,,,,,,,,,,,,,,,,,,,,,,,,,
216061,001,2022-11-21_01h55.02.447,Info_measure_main_exp,2022.2.2,Win32,143.9263097,,,,,,,,,,,,,,,,,,masks/mask_003.jpg,,,,,,,,,,,,,,,,,,,,,,,,,,,,,,,,,,,,,,,,,,,,,,,,0,2,2,2,1,,,,,,,,,,,,,,,,,,,,,,,,,,,,,,,,,,,,,,,,,
216061,001,2022-11-21_01h55.02.447,Info_measure_main_exp,2022.2.2,Win32,143.9263097,,,,,,,,,,,,,,,,,,masks/mask_001.jpg,,,,,,,,,,,,,,,,,,,,,,,,,,,,,,,,,,,,,,,,,,,,,,,,0,3,3,0,1,,,,,,,,,,,,,,,,,,,,,,,,,,,,,,,,,,,,,,,,,
216061,001,2022-11-21_01h55.02.447,Info_measure_main_exp,2022.2.2,Win32,143.9263097,,,,,,,,,,,,,,,,,,masks/mask_002.jpg,,,,,,,,,,,,,,,,,,,,,,,,,,,,,,,,,,,,,,,,,,,,,,,,0,4,4,1,1,,,,,,,,,,,,,,,,,,,,,,,,,,,,,,,,,,,,,,,,,
216061,001,2022-11-21_01h55.02.447,Info_measure_main_exp,2022.2.2,Win32,143.9263097,,,,,,,,,,,,,,,,,,,,,,,,,,,,,,5,0.7917,1,,,,,,,,,,,,0,131,5,5,1986,1950,absent_patch/patch0001986.jpg,absent_patch/patch0001950.jpg,,,,,,,,,,,,,,,,,,,,0.098940931,-0.010071892,1,0,0,response3disk,13,0.002666088,-0.002666135,1,0,0,center_square,0,12,12,15,1,,,,,,,,,,,,,,,,,,,,,,,
216061,001,2022-11-21_01h55.02.447,Info_measure_main_exp,2022.2.2,Win32,143.9263097,,,,,,,,,,,,,,,,,,masks/mask_002.jpg,,,,,,,,,,,,,,,,,,,,,,,,,,,,,,,,,,,,,,,,,,,0,0,0,1,1,,,,,,,,,,,,,,,,,,,,,,,,,,,,,,,,,,,,,,,,,,,,,,
216061,001,2022-11-21_01h55.02.447,Info_measure_main_exp,2022.2.2,Win32,143.9263097,,,,,,,,,,,,,,,,,,masks/mask_004.jpg,,,,,,,,,,,,,,,,,,,,,,,,,,,,,,,,,,,,,,,,,,,0,1,1,3,1,,,,,,,,,,,,,,,,,,,,,,,,,,,,,,,,,,,,,,,,,,,,,,
216061,001,2022-11-21_01h55.02.447,Info_measure_main_exp,2022.2.2,Win32,143.9263097,,,,,,,,,,,,,,,,,,masks/mask_005.jpg,,,,,,,,,,,,,,,,,,,,,,,,,,,,,,,,,,,,,,,,,,,0,2,2,4,1,,,,,,,,,,,,,,,,,,,,,,,,,,,,,,,,,,,,,,,,,,,,,,
216061,001,2022-11-21_01h55.02.447,Info_measure_main_exp,2022.2.2,Win32,143.9263097,,,,,,,,,,,,,,,,,,masks/mask_003.jpg,,,,,,,,,,,,,,,,,,,,,,,,,,,,,,,,,,,,,,,,,,,0,3,3,2,1,,,,,,,,,,,,,,,,,,,,,,,,,,,,,,,,,,,,,,,,,,,,,,
216061,001,2022-11-21_01h55.02.447,Info_measure_main_exp,2022.2.2,Win32,143.9263097,,,,,,,,,,,,,,,,,,masks/mask_001.jpg,,,,,,,,,,,,,,,,,,,,,,,,,,,,,,,,,,,,,,,,,,,0,4,4,0,1,,,,,,,,,,,,,,,,,,,,,,,,,,,,,,,,,,,,,,,,,,,,,,
216061,001,2022-11-21_01h55.02.447,Info_measure_main_exp,2022.2.2,Win32,143.9263097,,,,,,,,,,,,,,,,,,masks/mask_003.jpg,,,,,,,,,,,,,,,,,,,,,,,,,,,,,,,,,,,,,,,,,,,,,,,,0,0,0,2,1,,,,,,,,,,,,,,,,,,,,,,,,,,,,,,,,,,,,,,,,,
216061,001,2022-11-21_01h55.02.447,Info_measure_main_exp,2022.2.2,Win32,143.9263097,,,,,,,,,,,,,,,,,,masks/mask_005.jpg,,,,,,,,,,,,,,,,,,,,,,,,,,,,,,,,,,,,,,,,,,,,,,,,0,1,1,4,1,,,,,,,,,,,,,,,,,,,,,,,,,,,,,,,,,,,,,,,,,
216061,001,2022-11-21_01h55.02.447,Info_measure_main_exp,2022.2.2,Win32,143.9263097,,,,,,,,,,,,,,,,,,masks/mask_002.jpg,,,,,,,,,,,,,,,,,,,,,,,,,,,,,,,,,,,,,,,,,,,,,,,,0,2,2,1,1,,,,,,,,,,,,,,,,,,,,,,,,,,,,,,,,,,,,,,,,,
216061,001,2022-11-21_01h55.02.447,Info_measure_main_exp,2022.2.2,Win32,143.9263097,,,,,,,,,,,,,,,,,,masks/mask_001.jpg,,,,,,,,,,,,,,,,,,,,,,,,,,,,,,,,,,,,,,,,,,,,,,,,0,3,3,0,1,,,,,,,,,,,,,,,,,,,,,,,,,,,,,,,,,,,,,,,,,
216061,001,2022-11-21_01h55.02.447,Info_measure_main_exp,2022.2.2,Win32,143.9263097,,,,,,,,,,,,,,,,,,masks/mask_004.jpg,,,,,,,,,,,,,,,,,,,,,,,,,,,,,,,,,,,,,,,,,,,,,,,,0,4,4,3,1,,,,,,,,,,,,,,,,,,,,,,,,,,,,,,,,,,,,,,,,,
216061,001,2022-11-21_01h55.02.447,Info_measure_main_exp,2022.2.2,Win32,143.9263097,,,,,,,,,,,,,,,,,,,,,,,,,,,,,,6,1.1944,1,,,,,,,,,,,,0,131,5,5,2190,2238,absent_patch/patch0002190.jpg,absent_patch/patch0002238.jpg,,,,,,,,,,,,,,,,,,,,0.110049614,0.0186255,1,0,0,response1disk,14,0.011923308,-0.004517503,1,0,0,center_square,0,13,13,53,1,,,,,,,,,,,,,,,,,,,,,,,
216061,001,2022-11-21_01h55.02.447,Info_measure_main_exp,2022.2.2,Win32,143.9263097,,,,,,,,,,,,,,,,,,masks/mask_005.jpg,,,,,,,,,,,,,,,,,,,,,,,,,,,,,,,,,,,,,,,,,,,0,0,0,4,1,,,,,,,,,,,,,,,,,,,,,,,,,,,,,,,,,,,,,,,,,,,,,,
216061,001,2022-11-21_01h55.02.447,Info_measure_main_exp,2022.2.2,Win32,143.9263097,,,,,,,,,,,,,,,,,,masks/mask_004.jpg,,,,,,,,,,,,,,,,,,,,,,,,,,,,,,,,,,,,,,,,,,,0,1,1,3,1,,,,,,,,,,,,,,,,,,,,,,,,,,,,,,,,,,,,,,,,,,,,,,
216061,001,2022-11-21_01h55.02.447,Info_measure_main_exp,2022.2.2,Win32,143.9263097,,,,,,,,,,,,,,,,,,masks/mask_001.jpg,,,,,,,,,,,,,,,,,,,,,,,,,,,,,,,,,,,,,,,,,,,0,2,2,0,1,,,,,,,,,,,,,,,,,,,,,,,,,,,,,,,,,,,,,,,,,,,,,,
216061,001,2022-11-21_01h55.02.447,Info_measure_main_exp,2022.2.2,Win32,143.9263097,,,,,,,,,,,,,,,,,,masks/mask_002.jpg,,,,,,,,,,,,,,,,,,,,,,,,,,,,,,,,,,,,,,,,,,,0,3,3,1,1,,,,,,,,,,,,,,,,,,,,,,,,,,,,,,,,,,,,,,,,,,,,,,
216061,001,2022-11-21_01h55.02.447,Info_measure_main_exp,2022.2.2,Win32,143.9263097,,,,,,,,,,,,,,,,,,masks/mask_003.jpg,,,,,,,,,,,,,,,,,,,,,,,,,,,,,,,,,,,,,,,,,,,0,4,4,2,1,,,,,,,,,,,,,,,,,,,,,,,,,,,,,,,,,,,,,,,,,,,,,,
216061,001,2022-11-21_01h55.02.447,Info_measure_main_exp,2022.2.2,Win32,143.9263097,,,,,,,,,,,,,,,,,,masks/mask_004.jpg,,,,,,,,,,,,,,,,,,,,,,,,,,,,,,,,,,,,,,,,,,,,,,,,0,0,0,3,1,,,,,,,,,,,,,,,,,,,,,,,,,,,,,,,,,,,,,,,,,
216061,001,2022-11-21_01h55.02.447,Info_measure_main_exp,2022.2.2,Win32,143.9263097,,,,,,,,,,,,,,,,,,masks/mask_003.jpg,,,,,,,,,,,,,,,,,,,,,,,,,,,,,,,,,,,,,,,,,,,,,,,,0,1,1,2,1,,,,,,,,,,,,,,,,,,,,,,,,,,,,,,,,,,,,,,,,,
216061,001,2022-11-21_01h55.02.447,Info_measure_main_exp,2022.2.2,Win32,143.9263097,,,,,,,,,,,,,,,,,,masks/mask_001.jpg,,,,,,,,,,,,,,,,,,,,,,,,,,,,,,,,,,,,,,,,,,,,,,,,0,2,2,0,1,,,,,,,,,,,,,,,,,,,,,,,,,,,,,,,,,,,,,,,,,
216061,001,2022-11-21_01h55.02.447,Info_measure_main_exp,2022.2.2,Win32,143.9263097,,,,,,,,,,,,,,,,,,masks/mask_005.jpg,,,,,,,,,,,,,,,,,,,,,,,,,,,,,,,,,,,,,,,,,,,,,,,,0,3,3,4,1,,,,,,,,,,,,,,,,,,,,,,,,,,,,,,,,,,,,,,,,,
216061,001,2022-11-21_01h55.02.447,Info_measure_main_exp,2022.2.2,Win32,143.9263097,,,,,,,,,,,,,,,,,,masks/mask_002.jpg,,,,,,,,,,,,,,,,,,,,,,,,,,,,,,,,,,,,,,,,,,,,,,,,0,4,4,1,1,,,,,,,,,,,,,,,,,,,,,,,,,,,,,,,,,,,,,,,,,
216061,001,2022-11-21_01h55.02.447,Info_measure_main_exp,2022.2.2,Win32,143.9263097,,,,,,,,,,,,,,,,,,,,,,,,,,,,,,6,0.7359,1,,,,,,,,,,,,0,131,5,5,2142,2238,absent_patch/patch0002142.jpg,absent_patch/patch0002238.jpg,,,,,,,,,,,,,,,,,,,,0.107272467,0.016773989,1,0,0,response1disk,15,-0.000111059,0.003813985,1,0,0,center_square,0,14,14,101,1,,,,,,,,,,,,,,,,,,,,,,,
216061,001,2022-11-21_01h55.02.447,Info_measure_main_exp,2022.2.2,Win32,143.9263097,,,,,,,,,,,,,,,,,,masks/mask_001.jpg,,,,,,,,,,,,,,,,,,,,,,,,,,,,,,,,,,,,,,,,,,,0,0,0,0,1,,,,,,,,,,,,,,,,,,,,,,,,,,,,,,,,,,,,,,,,,,,,,,
216061,001,2022-11-21_01h55.02.447,Info_measure_main_exp,2022.2.2,Win32,143.9263097,,,,,,,,,,,,,,,,,,masks/mask_003.jpg,,,,,,,,,,,,,,,,,,,,,,,,,,,,,,,,,,,,,,,,,,,0,1,1,2,1,,,,,,,,,,,,,,,,,,,,,,,,,,,,,,,,,,,,,,,,,,,,,,
216061,001,2022-11-21_01h55.02.447,Info_measure_main_exp,2022.2.2,Win32,143.9263097,,,,,,,,,,,,,,,,,,masks/mask_004.jpg,,,,,,,,,,,,,,,,,,,,,,,,,,,,,,,,,,,,,,,,,,,0,2,2,3,1,,,,,,,,,,,,,,,,,,,,,,,,,,,,,,,,,,,,,,,,,,,,,,
216061,001,2022-11-21_01h55.02.447,Info_measure_main_exp,2022.2.2,Win32,143.9263097,,,,,,,,,,,,,,,,,,masks/mask_005.jpg,,,,,,,,,,,,,,,,,,,,,,,,,,,,,,,,,,,,,,,,,,,0,3,3,4,1,,,,,,,,,,,,,,,,,,,,,,,,,,,,,,,,,,,,,,,,,,,,,,
216061,001,2022-11-21_01h55.02.447,Info_measure_main_exp,2022.2.2,Win32,143.9263097,,,,,,,,,,,,,,,,,,masks/mask_002.jpg,,,,,,,,,,,,,,,,,,,,,,,,,,,,,,,,,,,,,,,,,,,0,4,4,1,1,,,,,,,,,,,,,,,,,,,,,,,,,,,,,,,,,,,,,,,,,,,,,,
216061,001,2022-11-21_01h55.02.447,Info_measure_main_exp,2022.2.2,Win32,143.9263097,,,,,,,,,,,,,,,,,,masks/mask_001.jpg,,,,,,,,,,,,,,,,,,,,,,,,,,,,,,,,,,,,,,,,,,,,,,,,0,0,0,0,1,,,,,,,,,,,,,,,,,,,,,,,,,,,,,,,,,,,,,,,,,
216061,001,2022-11-21_01h55.02.447,Info_measure_main_exp,2022.2.2,Win32,143.9263097,,,,,,,,,,,,,,,,,,masks/mask_002.jpg,,,,,,,,,,,,,,,,,,,,,,,,,,,,,,,,,,,,,,,,,,,,,,,,0,1,1,1,1,,,,,,,,,,,,,,,,,,,,,,,,,,,,,,,,,,,,,,,,,
216061,001,2022-11-21_01h55.02.447,Info_measure_main_exp,2022.2.2,Win32,143.9263097,,,,,,,,,,,,,,,,,,masks/mask_004.jpg,,,,,,,,,,,,,,,,,,,,,,,,,,,,,,,,,,,,,,,,,,,,,,,,0,2,2,3,1,,,,,,,,,,,,,,,,,,,,,,,,,,,,,,,,,,,,,,,,,
216061,001,2022-11-21_01h55.02.447,Info_measure_main_exp,2022.2.2,Win32,143.9263097,,,,,,,,,,,,,,,,,,masks/mask_003.jpg,,,,,,,,,,,,,,,,,,,,,,,,,,,,,,,,,,,,,,,,,,,,,,,,0,3,3,2,1,,,,,,,,,,,,,,,,,,,,,,,,,,,,,,,,,,,,,,,,,
216061,001,2022-11-21_01h55.02.447,Info_measure_main_exp,2022.2.2,Win32,143.9263097,,,,,,,,,,,,,,,,,,masks/mask_005.jpg,,,,,,,,,,,,,,,,,,,,,,,,,,,,,,,,,,,,,,,,,,,,,,,,0,4,4,4,1,,,,,,,,,,,,,,,,,,,,,,,,,,,,,,,,,,,,,,,,,
216061,001,2022-11-21_01h55.02.447,Info_measure_main_exp,2022.2.2,Win32,143.9263097,,,,,,,,,,,,,,,,,,,,,,,,,,,,,,1,0.9999,1,,,,,,,,,,,,0,131,5,5,1974,2238,absent_patch/patch0001974.jpg,absent_patch/patch0002238.jpg,,,,,,,,,,,,,,,,,,,,-0.100088876,0.016773989,1,0,0,response7disk,16,0.007294698,-0.000814625,1,0,0,center_square,0,15,15,95,1,,,,,,,,,,,,,,,,,,,,,,,
216061,001,2022-11-21_01h55.02.447,Info_measure_main_exp,2022.2.2,Win32,143.9263097,,,,,,,,,,,,,,,,,,masks/mask_003.jpg,,,,,,,,,,,,,,,,,,,,,,,,,,,,,,,,,,,,,,,,,,,0,0,0,2,1,,,,,,,,,,,,,,,,,,,,,,,,,,,,,,,,,,,,,,,,,,,,,,
216061,001,2022-11-21_01h55.02.447,Info_measure_main_exp,2022.2.2,Win32,143.9263097,,,,,,,,,,,,,,,,,,masks/mask_004.jpg,,,,,,,,,,,,,,,,,,,,,,,,,,,,,,,,,,,,,,,,,,,0,1,1,3,1,,,,,,,,,,,,,,,,,,,,,,,,,,,,,,,,,,,,,,,,,,,,,,
216061,001,2022-11-21_01h55.02.447,Info_measure_main_exp,2022.2.2,Win32,143.9263097,,,,,,,,,,,,,,,,,,masks/mask_002.jpg,,,,,,,,,,,,,,,,,,,,,,,,,,,,,,,,,,,,,,,,,,,0,2,2,1,1,,,,,,,,,,,,,,,,,,,,,,,,,,,,,,,,,,,,,,,,,,,,,,
216061,001,2022-11-21_01h55.02.447,Info_measure_main_exp,2022.2.2,Win32,143.9263097,,,,,,,,,,,,,,,,,,masks/mask_001.jpg,,,,,,,,,,,,,,,,,,,,,,,,,,,,,,,,,,,,,,,,,,,0,3,3,0,1,,,,,,,,,,,,,,,,,,,,,,,,,,,,,,,,,,,,,,,,,,,,,,
216061,001,2022-11-21_01h55.02.447,Info_measure_main_exp,2022.2.2,Win32,143.9263097,,,,,,,,,,,,,,,,,,masks/mask_005.jpg,,,,,,,,,,,,,,,,,,,,,,,,,,,,,,,,,,,,,,,,,,,0,4,4,4,1,,,,,,,,,,,,,,,,,,,,,,,,,,,,,,,,,,,,,,,,,,,,,,
216061,001,2022-11-21_01h55.02.447,Info_measure_main_exp,2022.2.2,Win32,143.9263097,,,,,,,,,,,,,,,,,,masks/mask_001.jpg,,,,,,,,,,,,,,,,,,,,,,,,,,,,,,,,,,,,,,,,,,,,,,,,0,0,0,0,1,,,,,,,,,,,,,,,,,,,,,,,,,,,,,,,,,,,,,,,,,
216061,001,2022-11-21_01h55.02.447,Info_measure_main_exp,2022.2.2,Win32,143.9263097,,,,,,,,,,,,,,,,,,masks/mask_003.jpg,,,,,,,,,,,,,,,,,,,,,,,,,,,,,,,,,,,,,,,,,,,,,,,,0,1,1,2,1,,,,,,,,,,,,,,,,,,,,,,,,,,,,,,,,,,,,,,,,,
216061,001,2022-11-21_01h55.02.447,Info_measure_main_exp,2022.2.2,Win32,143.9263097,,,,,,,,,,,,,,,,,,masks/mask_002.jpg,,,,,,,,,,,,,,,,,,,,,,,,,,,,,,,,,,,,,,,,,,,,,,,,0,2,2,1,1,,,,,,,,,,,,,,,,,,,,,,,,,,,,,,,,,,,,,,,,,
216061,001,2022-11-21_01h55.02.447,Info_measure_main_exp,2022.2.2,Win32,143.9263097,,,,,,,,,,,,,,,,,,masks/mask_004.jpg,,,,,,,,,,,,,,,,,,,,,,,,,,,,,,,,,,,,,,,,,,,,,,,,0,3,3,3,1,,,,,,,,,,,,,,,,,,,,,,,,,,,,,,,,,,,,,,,,,
216061,001,2022-11-21_01h55.02.447,Info_measure_main_exp,2022.2.2,Win32,143.9263097,,,,,,,,,,,,,,,,,,masks/mask_005.jpg,,,,,,,,,,,,,,,,,,,,,,,,,,,,,,,,,,,,,,,,,,,,,,,,0,4,4,4,1,,,,,,,,,,,,,,,,,,,,,,,,,,,,,,,,,,,,,,,,,
216061,001,2022-11-21_01h55.02.447,Info_measure_main_exp,2022.2.2,Win32,143.9263097,,,,,,,,,,,,,,,,,,,,,,,,,,,,,,3,1.333,1,,,,,,,,,,,,0,131,5,5,2298,1986,absent_patch/patch0002298.jpg,absent_patch/patch0001986.jpg,,,,,,,,,,,,,,,,,,,,-0.048248528,-0.100792394,1,0,0,response5disk,17,-0.001036838,-0.005443235,1,0,0,center_square,0,16,16,32,1,,,,,,,,,,,,,,,,,,,,,,,
216061,001,2022-11-21_01h55.02.447,Info_measure_main_exp,2022.2.2,Win32,143.9263097,,,,,,,,,,,,,,,,,,masks/mask_004.jpg,,,,,,,,,,,,,,,,,,,,,,,,,,,,,,,,,,,,,,,,,,,0,0,0,3,1,,,,,,,,,,,,,,,,,,,,,,,,,,,,,,,,,,,,,,,,,,,,,,
216061,001,2022-11-21_01h55.02.447,Info_measure_main_exp,2022.2.2,Win32,143.9263097,,,,,,,,,,,,,,,,,,masks/mask_002.jpg,,,,,,,,,,,,,,,,,,,,,,,,,,,,,,,,,,,,,,,,,,,0,1,1,1,1,,,,,,,,,,,,,,,,,,,,,,,,,,,,,,,,,,,,,,,,,,,,,,
216061,001,2022-11-21_01h55.02.447,Info_measure_main_exp,2022.2.2,Win32,143.9263097,,,,,,,,,,,,,,,,,,masks/mask_001.jpg,,,,,,,,,,,,,,,,,,,,,,,,,,,,,,,,,,,,,,,,,,,0,2,2,0,1,,,,,,,,,,,,,,,,,,,,,,,,,,,,,,,,,,,,,,,,,,,,,,
216061,001,2022-11-21_01h55.02.447,Info_measure_main_exp,2022.2.2,Win32,143.9263097,,,,,,,,,,,,,,,,,,masks/mask_003.jpg,,,,,,,,,,,,,,,,,,,,,,,,,,,,,,,,,,,,,,,,,,,0,3,3,2,1,,,,,,,,,,,,,,,,,,,,,,,,,,,,,,,,,,,,,,,,,,,,,,
216061,001,2022-11-21_01h55.02.447,Info_measure_main_exp,2022.2.2,Win32,143.9263097,,,,,,,,,,,,,,,,,,masks/mask_005.jpg,,,,,,,,,,,,,,,,,,,,,,,,,,,,,,,,,,,,,,,,,,,0,4,4,4,1,,,,,,,,,,,,,,,,,,,,,,,,,,,,,,,,,,,,,,,,,,,,,,
216061,001,2022-11-21_01h55.02.447,Info_measure_main_exp,2022.2.2,Win32,143.9263097,,,,,,,,,,,,,,,,,,masks/mask_003.jpg,,,,,,,,,,,,,,,,,,,,,,,,,,,,,,,,,,,,,,,,,,,,,,,,0,0,0,2,1,,,,,,,,,,,,,,,,,,,,,,,,,,,,,,,,,,,,,,,,,
216061,001,2022-11-21_01h55.02.447,Info_measure_main_exp,2022.2.2,Win32,143.9263097,,,,,,,,,,,,,,,,,,masks/mask_002.jpg,,,,,,,,,,,,,,,,,,,,,,,,,,,,,,,,,,,,,,,,,,,,,,,,0,1,1,1,1,,,,,,,,,,,,,,,,,,,,,,,,,,,,,,,,,,,,,,,,,
216061,001,2022-11-21_01h55.02.447,Info_measure_main_exp,2022.2.2,Win32,143.9263097,,,,,,,,,,,,,,,,,,masks/mask_005.jpg,,,,,,,,,,,,,,,,,,,,,,,,,,,,,,,,,,,,,,,,,,,,,,,,0,2,2,4,1,,,,,,,,,,,,,,,,,,,,,,,,,,,,,,,,,,,,,,,,,
216061,001,2022-11-21_01h55.02.447,Info_measure_main_exp,2022.2.2,Win32,143.9263097,,,,,,,,,,,,,,,,,,masks/mask_004.jpg,,,,,,,,,,,,,,,,,,,,,,,,,,,,,,,,,,,,,,,,,,,,,,,,0,3,3,3,1,,,,,,,,,,,,,,,,,,,,,,,,,,,,,,,,,,,,,,,,,
216061,001,2022-11-21_01h55.02.447,Info_measure_main_exp,2022.2.2,Win32,143.9263097,,,,,,,,,,,,,,,,,,masks/mask_001.jpg,,,,,,,,,,,,,,,,,,,,,,,,,,,,,,,,,,,,,,,,,,,,,,,,0,4,4,0,1,,,,,,,,,,,,,,,,,,,,,,,,,,,,,,,,,,,,,,,,,
216061,001,2022-11-21_01h55.02.447,Info_measure_main_exp,2022.2.2,Win32,143.9263097,,,,,,,,,,,,,,,,,,,,,,,,,,,,,,1,1.1526,1,,,,,,,,,,,,0,131,5,5,2142,2142,absent_patch/patch0002142.jpg,absent_patch/patch0002142.jpg,,,,,,,,,,,,,,,,,,,,-0.150077713,0.054728601,1,0,0,response7disk,18,0.004517551,-0.01470055,1,0,0,center_square,0,17,17,13,1,,,,,,,,,,,,,,,,,,,,,,,
216061,001,2022-11-21_01h55.02.447,Info_measure_main_exp,2022.2.2,Win32,143.9263097,,,,,,,,,,,,,,,,,,masks/mask_001.jpg,,,,,,,,,,,,,,,,,,,,,,,,,,,,,,,,,,,,,,,,,,,0,0,0,0,1,,,,,,,,,,,,,,,,,,,,,,,,,,,,,,,,,,,,,,,,,,,,,,
216061,001,2022-11-21_01h55.02.447,Info_measure_main_exp,2022.2.2,Win32,143.9263097,,,,,,,,,,,,,,,,,,masks/mask_002.jpg,,,,,,,,,,,,,,,,,,,,,,,,,,,,,,,,,,,,,,,,,,,0,1,1,1,1,,,,,,,,,,,,,,,,,,,,,,,,,,,,,,,,,,,,,,,,,,,,,,
216061,001,2022-11-21_01h55.02.447,Info_measure_main_exp,2022.2.2,Win32,143.9263097,,,,,,,,,,,,,,,,,,masks/mask_005.jpg,,,,,,,,,,,,,,,,,,,,,,,,,,,,,,,,,,,,,,,,,,,0,2,2,4,1,,,,,,,,,,,,,,,,,,,,,,,,,,,,,,,,,,,,,,,,,,,,,,
216061,001,2022-11-21_01h55.02.447,Info_measure_main_exp,2022.2.2,Win32,143.9263097,,,,,,,,,,,,,,,,,,masks/mask_004.jpg,,,,,,,,,,,,,,,,,,,,,,,,,,,,,,,,,,,,,,,,,,,0,3,3,3,1,,,,,,,,,,,,,,,,,,,,,,,,,,,,,,,,,,,,,,,,,,,,,,
216061,001,2022-11-21_01h55.02.447,Info_measure_main_exp,2022.2.2,Win32,143.9263097,,,,,,,,,,,,,,,,,,masks/mask_003.jpg,,,,,,,,,,,,,,,,,,,,,,,,,,,,,,,,,,,,,,,,,,,0,4,4,2,1,,,,,,,,,,,,,,,,,,,,,,,,,,,,,,,,,,,,,,,,,,,,,,
216061,001,2022-11-21_01h55.02.447,Info_measure_main_exp,2022.2.2,Win32,143.9263097,,,,,,,,,,,,,,,,,,masks/mask_003.jpg,,,,,,,,,,,,,,,,,,,,,,,,,,,,,,,,,,,,,,,,,,,,,,,,0,0,0,2,1,,,,,,,,,,,,,,,,,,,,,,,,,,,,,,,,,,,,,,,,,
216061,001,2022-11-21_01h55.02.447,Info_measure_main_exp,2022.2.2,Win32,143.9263097,,,,,,,,,,,,,,,,,,masks/mask_001.jpg,,,,,,,,,,,,,,,,,,,,,,,,,,,,,,,,,,,,,,,,,,,,,,,,0,1,1,0,1,,,,,,,,,,,,,,,,,,,,,,,,,,,,,,,,,,,,,,,,,
216061,001,2022-11-21_01h55.02.447,Info_measure_main_exp,2022.2.2,Win32,143.9263097,,,,,,,,,,,,,,,,,,masks/mask_002.jpg,,,,,,,,,,,,,,,,,,,,,,,,,,,,,,,,,,,,,,,,,,,,,,,,0,2,2,1,1,,,,,,,,,,,,,,,,,,,,,,,,,,,,,,,,,,,,,,,,,
216061,001,2022-11-21_01h55.02.447,Info_measure_main_exp,2022.2.2,Win32,143.9263097,,,,,,,,,,,,,,,,,,masks/mask_005.jpg,,,,,,,,,,,,,,,,,,,,,,,,,,,,,,,,,,,,,,,,,,,,,,,,0,3,3,4,1,,,,,,,,,,,,,,,,,,,,,,,,,,,,,,,,,,,,,,,,,
216061,001,2022-11-21_01h55.02.447,Info_measure_main_exp,2022.2.2,Win32,143.9263097,,,,,,,,,,,,,,,,,,masks/mask_004.jpg,,,,,,,,,,,,,,,,,,,,,,,,,,,,,,,,,,,,,,,,,,,,,,,,0,4,4,3,1,,,,,,,,,,,,,,,,,,,,,,,,,,,,,,,,,,,,,,,,,
216061,001,2022-11-21_01h55.02.447,Info_measure_main_exp,2022.2.2,Win32,143.9263097,,,,,,,,,,,,,,,,,,,,,,,,,,,,,,7,0.7776,1,,,,,,,,,,,,0,131,5,5,2082,2238,absent_patch/patch0002082.jpg,absent_patch/patch0002238.jpg,,,,,,,,,,,,,,,,,,,,0.111901172,0.143597664,1,0,0,response1disk,19,-0.010294058,0.004739574,1,0,0,center_square,0,18,18,22,1,,,,,,,,,,,,,,,,,,,,,,,
216061,001,2022-11-21_01h55.02.447,Info_measure_main_exp,2022.2.2,Win32,143.9263097,,,,,,,,,,,,,,,,,,masks/mask_004.jpg,,,,,,,,,,,,,,,,,,,,,,,,,,,,,,,,,,,,,,,,,,,0,0,0,3,1,,,,,,,,,,,,,,,,,,,,,,,,,,,,,,,,,,,,,,,,,,,,,,
216061,001,2022-11-21_01h55.02.447,Info_measure_main_exp,2022.2.2,Win32,143.9263097,,,,,,,,,,,,,,,,,,masks/mask_005.jpg,,,,,,,,,,,,,,,,,,,,,,,,,,,,,,,,,,,,,,,,,,,0,1,1,4,1,,,,,,,,,,,,,,,,,,,,,,,,,,,,,,,,,,,,,,,,,,,,,,
216061,001,2022-11-21_01h55.02.447,Info_measure_main_exp,2022.2.2,Win32,143.9263097,,,,,,,,,,,,,,,,,,masks/mask_002.jpg,,,,,,,,,,,,,,,,,,,,,,,,,,,,,,,,,,,,,,,,,,,0,2,2,1,1,,,,,,,,,,,,,,,,,,,,,,,,,,,,,,,,,,,,,,,,,,,,,,
216061,001,2022-11-21_01h55.02.447,Info_measure_main_exp,2022.2.2,Win32,143.9263097,,,,,,,,,,,,,,,,,,masks/mask_003.jpg,,,,,,,,,,,,,,,,,,,,,,,,,,,,,,,,,,,,,,,,,,,0,3,3,2,1,,,,,,,,,,,,,,,,,,,,,,,,,,,,,,,,,,,,,,,,,,,,,,
216061,001,2022-11-21_01h55.02.447,Info_measure_main_exp,2022.2.2,Win32,143.9263097,,,,,,,,,,,,,,,,,,masks/mask_001.jpg,,,,,,,,,,,,,,,,,,,,,,,,,,,,,,,,,,,,,,,,,,,0,4,4,0,1,,,,,,,,,,,,,,,,,,,,,,,,,,,,,,,,,,,,,,,,,,,,,,
216061,001,2022-11-21_01h55.02.447,Info_measure_main_exp,2022.2.2,Win32,143.9263097,,,,,,,,,,,,,,,,,,masks/mask_001.jpg,,,,,,,,,,,,,,,,,,,,,,,,,,,,,,,,,,,,,,,,,,,,,,,,0,0,0,0,1,,,,,,,,,,,,,,,,,,,,,,,,,,,,,,,,,,,,,,,,,
216061,001,2022-11-21_01h55.02.447,Info_measure_main_exp,2022.2.2,Win32,143.9263097,,,,,,,,,,,,,,,,,,masks/mask_003.jpg,,,,,,,,,,,,,,,,,,,,,,,,,,,,,,,,,,,,,,,,,,,,,,,,0,1,1,2,1,,,,,,,,,,,,,,,,,,,,,,,,,,,,,,,,,,,,,,,,,
216061,001,2022-11-21_01h55.02.447,Info_measure_main_exp,2022.2.2,Win32,143.9263097,,,,,,,,,,,,,,,,,,masks/mask_004.jpg,,,,,,,,,,,,,,,,,,,,,,,,,,,,,,,,,,,,,,,,,,,,,,,,0,2,2,3,1,,,,,,,,,,,,,,,,,,,,,,,,,,,,,,,,,,,,,,,,,
216061,001,2022-11-21_01h55.02.447,Info_measure_main_exp,2022.2.2,Win32,143.9263097,,,,,,,,,,,,,,,,,,masks/mask_002.jpg,,,,,,,,,,,,,,,,,,,,,,,,,,,,,,,,,,,,,,,,,,,,,,,,0,3,3,1,1,,,,,,,,,,,,,,,,,,,,,,,,,,,,,,,,,,,,,,,,,
216061,001,2022-11-21_01h55.02.447,Info_measure_main_exp,2022.2.2,Win32,143.9263097,,,,,,,,,,,,,,,,,,masks/mask_005.jpg,,,,,,,,,,,,,,,,,,,,,,,,,,,,,,,,,,,,,,,,,,,,,,,,0,4,4,4,1,,,,,,,,,,,,,,,,,,,,,,,,,,,,,,,,,,,,,,,,,
216061,001,2022-11-21_01h55.02.447,Info_measure_main_exp,2022.2.2,Win32,143.9263097,,,,,,,,,,,,,,,,,,,,,,,,,,,,,,7,0.7986,1,,,,,,,,,,,,0,131,5,5,2298,2214,absent_patch/patch0002298.jpg,absent_patch/patch0002214.jpg,,,,,,,,,,,,,,,,,,,,0.023957675,0.07972302,1,0,0,response1disk,20,0.000814625,-0.003591772,1,0,0,center_square,0,19,19,99,1,,,,,,,,,,,,,,,,,,,,,,,
216061,001,2022-11-21_01h55.02.447,Info_measure_main_exp,2022.2.2,Win32,143.9263097,,,,,,,,,,,,,,,,,,masks/mask_001.jpg,,,,,,,,,,,,,,,,,,,,,,,,,,,,,,,,,,,,,,,,,,,0,0,0,0,1,,,,,,,,,,,,,,,,,,,,,,,,,,,,,,,,,,,,,,,,,,,,,,
216061,001,2022-11-21_01h55.02.447,Info_measure_main_exp,2022.2.2,Win32,143.9263097,,,,,,,,,,,,,,,,,,masks/mask_003.jpg,,,,,,,,,,,,,,,,,,,,,,,,,,,,,,,,,,,,,,,,,,,0,1,1,2,1,,,,,,,,,,,,,,,,,,,,,,,,,,,,,,,,,,,,,,,,,,,,,,
216061,001,2022-11-21_01h55.02.447,Info_measure_main_exp,2022.2.2,Win32,143.9263097,,,,,,,,,,,,,,,,,,masks/mask_005.jpg,,,,,,,,,,,,,,,,,,,,,,,,,,,,,,,,,,,,,,,,,,,0,2,2,4,1,,,,,,,,,,,,,,,,,,,,,,,,,,,,,,,,,,,,,,,,,,,,,,
216061,001,2022-11-21_01h55.02.447,Info_measure_main_exp,2022.2.2,Win32,143.9263097,,,,,,,,,,,,,,,,,,masks/mask_004.jpg,,,,,,,,,,,,,,,,,,,,,,,,,,,,,,,,,,,,,,,,,,,0,3,3,3,1,,,,,,,,,,,,,,,,,,,,,,,,,,,,,,,,,,,,,,,,,,,,,,
216061,001,2022-11-21_01h55.02.447,Info_measure_main_exp,2022.2.2,Win32,143.9263097,,,,,,,,,,,,,,,,,,masks/mask_002.jpg,,,,,,,,,,,,,,,,,,,,,,,,,,,,,,,,,,,,,,,,,,,0,4,4,1,1,,,,,,,,,,,,,,,,,,,,,,,,,,,,,,,,,,,,,,,,,,,,,,
216061,001,2022-11-21_01h55.02.447,Info_measure_main_exp,2022.2.2,Win32,143.9263097,,,,,,,,,,,,,,,,,,masks/mask_003.jpg,,,,,,,,,,,,,,,,,,,,,,,,,,,,,,,,,,,,,,,,,,,,,,,,0,0,0,2,1,,,,,,,,,,,,,,,,,,,,,,,,,,,,,,,,,,,,,,,,,
216061,001,2022-11-21_01h55.02.447,Info_measure_main_exp,2022.2.2,Win32,143.9263097,,,,,,,,,,,,,,,,,,masks/mask_001.jpg,,,,,,,,,,,,,,,,,,,,,,,,,,,,,,,,,,,,,,,,,,,,,,,,0,1,1,0,1,,,,,,,,,,,,,,,,,,,,,,,,,,,,,,,,,,,,,,,,,
216061,001,2022-11-21_01h55.02.447,Info_measure_main_exp,2022.2.2,Win32,143.9263097,,,,,,,,,,,,,,,,,,masks/mask_005.jpg,,,,,,,,,,,,,,,,,,,,,,,,,,,,,,,,,,,,,,,,,,,,,,,,0,2,2,4,1,,,,,,,,,,,,,,,,,,,,,,,,,,,,,,,,,,,,,,,,,
216061,001,2022-11-21_01h55.02.447,Info_measure_main_exp,2022.2.2,Win32,143.9263097,,,,,,,,,,,,,,,,,,masks/mask_004.jpg,,,,,,,,,,,,,,,,,,,,,,,,,,,,,,,,,,,,,,,,,,,,,,,,0,3,3,3,1,,,,,,,,,,,,,,,,,,,,,,,,,,,,,,,,,,,,,,,,,
216061,001,2022-11-21_01h55.02.447,Info_measure_main_exp,2022.2.2,Win32,143.9263097,,,,,,,,,,,,,,,,,,masks/mask_002.jpg,,,,,,,,,,,,,,,,,,,,,,,,,,,,,,,,,,,,,,,,,,,,,,,,0,4,4,1,1,,,,,,,,,,,,,,,,,,,,,,,,,,,,,,,,,,,,,,,,,
216061,001,2022-11-21_01h55.02.447,Info_measure_main_exp,2022.2.2,Win32,143.9263097,,,,,,,,,,,,,,,,,,,,,,,,,,,,,,6,1.2361,1,,,,,,,,,,,,0,131,5,5,2274,2238,absent_patch/patch0002274.jpg,absent_patch/patch0002238.jpg,,,,,,,,,,,,,,,,,,,,0.168369987,0.057505749,1,0,0,response1disk,21,-0.008442595,0.001962522,1,0,0,center_square,0,20,20,91,1,,,,,,,,,,,,,,,,,,,,,,,
216061,001,2022-11-21_01h55.02.447,Info_measure_main_exp,2022.2.2,Win32,143.9263097,,,,,,,,,,,,,,,,,,masks/mask_004.jpg,,,,,,,,,,,,,,,,,,,,,,,,,,,,,,,,,,,,,,,,,,,0,0,0,3,1,,,,,,,,,,,,,,,,,,,,,,,,,,,,,,,,,,,,,,,,,,,,,,
216061,001,2022-11-21_01h55.02.447,Info_measure_main_exp,2022.2.2,Win32,143.9263097,,,,,,,,,,,,,,,,,,masks/mask_005.jpg,,,,,,,,,,,,,,,,,,,,,,,,,,,,,,,,,,,,,,,,,,,0,1,1,4,1,,,,,,,,,,,,,,,,,,,,,,,,,,,,,,,,,,,,,,,,,,,,,,
216061,001,2022-11-21_01h55.02.447,Info_measure_main_exp,2022.2.2,Win32,143.9263097,,,,,,,,,,,,,,,,,,masks/mask_002.jpg,,,,,,,,,,,,,,,,,,,,,,,,,,,,,,,,,,,,,,,,,,,0,2,2,1,1,,,,,,,,,,,,,,,,,,,,,,,,,,,,,,,,,,,,,,,,,,,,,,
216061,001,2022-11-21_01h55.02.447,Info_measure_main_exp,2022.2.2,Win32,143.9263097,,,,,,,,,,,,,,,,,,masks/mask_003.jpg,,,,,,,,,,,,,,,,,,,,,,,,,,,,,,,,,,,,,,,,,,,0,3,3,2,1,,,,,,,,,,,,,,,,,,,,,,,,,,,,,,,,,,,,,,,,,,,,,,
216061,001,2022-11-21_01h55.02.447,Info_measure_main_exp,2022.2.2,Win32,143.9263097,,,,,,,,,,,,,,,,,,masks/mask_001.jpg,,,,,,,,,,,,,,,,,,,,,,,,,,,,,,,,,,,,,,,,,,,0,4,4,0,1,,,,,,,,,,,,,,,,,,,,,,,,,,,,,,,,,,,,,,,,,,,,,,
216061,001,2022-11-21_01h55.02.447,Info_measure_main_exp,2022.2.2,Win32,143.9263097,,,,,,,,,,,,,,,,,,masks/mask_001.jpg,,,,,,,,,,,,,,,,,,,,,,,,,,,,,,,,,,,,,,,,,,,,,,,,0,0,0,0,1,,,,,,,,,,,,,,,,,,,,,,,,,,,,,,,,,,,,,,,,,
216061,001,2022-11-21_01h55.02.447,Info_measure_main_exp,2022.2.2,Win32,143.9263097,,,,,,,,,,,,,,,,,,masks/mask_002.jpg,,,,,,,,,,,,,,,,,,,,,,,,,,,,,,,,,,,,,,,,,,,,,,,,0,1,1,1,1,,,,,,,,,,,,,,,,,,,,,,,,,,,,,,,,,,,,,,,,,
216061,001,2022-11-21_01h55.02.447,Info_measure_main_exp,2022.2.2,Win32,143.9263097,,,,,,,,,,,,,,,,,,masks/mask_005.jpg,,,,,,,,,,,,,,,,,,,,,,,,,,,,,,,,,,,,,,,,,,,,,,,,0,2,2,4,1,,,,,,,,,,,,,,,,,,,,,,,,,,,,,,,,,,,,,,,,,
216061,001,2022-11-21_01h55.02.447,Info_measure_main_exp,2022.2.2,Win32,143.9263097,,,,,,,,,,,,,,,,,,masks/mask_003.jpg,,,,,,,,,,,,,,,,,,,,,,,,,,,,,,,,,,,,,,,,,,,,,,,,0,3,3,2,1,,,,,,,,,,,,,,,,,,,,,,,,,,,,,,,,,,,,,,,,,
216061,001,2022-11-21_01h55.02.447,Info_measure_main_exp,2022.2.2,Win32,143.9263097,,,,,,,,,,,,,,,,,,masks/mask_004.jpg,,,,,,,,,,,,,,,,,,,,,,,,,,,,,,,,,,,,,,,,,,,,,,,,0,4,4,3,1,,,,,,,,,,,,,,,,,,,,,,,,,,,,,,,,,,,,,,,,,
216061,001,2022-11-21_01h55.02.447,Info_measure_main_exp,2022.2.2,Win32,143.9263097,,,,,,,,,,,,,,,,,,,,,,,,,,,,,,7,2.3818,1,,,,,,,,,,,,0,131,5,5,2190,2214,absent_patch/patch0002190.jpg,absent_patch/patch0002214.jpg,,,,,,,,,,,,,,,,,,,,0.035066263,0.105643194,1,0,0,response1disk,22,0.006368919,0.001962522,1,0,0,center_square,0,21,21,35,1,,,,,,,,,,,,,,,,,,,,,,,
216061,001,2022-11-21_01h55.02.447,Info_measure_main_exp,2022.2.2,Win32,143.9263097,,,,,,,,,,,,,,,,,,masks/mask_002.jpg,,,,,,,,,,,,,,,,,,,,,,,,,,,,,,,,,,,,,,,,,,,0,0,0,1,1,,,,,,,,,,,,,,,,,,,,,,,,,,,,,,,,,,,,,,,,,,,,,,
216061,001,2022-11-21_01h55.02.447,Info_measure_main_exp,2022.2.2,Win32,143.9263097,,,,,,,,,,,,,,,,,,masks/mask_003.jpg,,,,,,,,,,,,,,,,,,,,,,,,,,,,,,,,,,,,,,,,,,,0,1,1,2,1,,,,,,,,,,,,,,,,,,,,,,,,,,,,,,,,,,,,,,,,,,,,,,
216061,001,2022-11-21_01h55.02.447,Info_measure_main_exp,2022.2.2,Win32,143.9263097,,,,,,,,,,,,,,,,,,masks/mask_004.jpg,,,,,,,,,,,,,,,,,,,,,,,,,,,,,,,,,,,,,,,,,,,0,2,2,3,1,,,,,,,,,,,,,,,,,,,,,,,,,,,,,,,,,,,,,,,,,,,,,,
216061,001,2022-11-21_01h55.02.447,Info_measure_main_exp,2022.2.2,Win32,143.9263097,,,,,,,,,,,,,,,,,,masks/mask_005.jpg,,,,,,,,,,,,,,,,,,,,,,,,,,,,,,,,,,,,,,,,,,,0,3,3,4,1,,,,,,,,,,,,,,,,,,,,,,,,,,,,,,,,,,,,,,,,,,,,,,
216061,001,2022-11-21_01h55.02.447,Info_measure_main_exp,2022.2.2,Win32,143.9263097,,,,,,,,,,,,,,,,,,masks/mask_001.jpg,,,,,,,,,,,,,,,,,,,,,,,,,,,,,,,,,,,,,,,,,,,0,4,4,0,1,,,,,,,,,,,,,,,,,,,,,,,,,,,,,,,,,,,,,,,,,,,,,,
216061,001,2022-11-21_01h55.02.447,Info_measure_main_exp,2022.2.2,Win32,143.9263097,,,,,,,,,,,,,,,,,,masks/mask_001.jpg,,,,,,,,,,,,,,,,,,,,,,,,,,,,,,,,,,,,,,,,,,,,,,,,0,0,0,0,1,,,,,,,,,,,,,,,,,,,,,,,,,,,,,,,,,,,,,,,,,
216061,001,2022-11-21_01h55.02.447,Info_measure_main_exp,2022.2.2,Win32,143.9263097,,,,,,,,,,,,,,,,,,masks/mask_002.jpg,,,,,,,,,,,,,,,,,,,,,,,,,,,,,,,,,,,,,,,,,,,,,,,,0,1,1,1,1,,,,,,,,,,,,,,,,,,,,,,,,,,,,,,,,,,,,,,,,,
216061,001,2022-11-21_01h55.02.447,Info_measure_main_exp,2022.2.2,Win32,143.9263097,,,,,,,,,,,,,,,,,,masks/mask_003.jpg,,,,,,,,,,,,,,,,,,,,,,,,,,,,,,,,,,,,,,,,,,,,,,,,0,2,2,2,1,,,,,,,,,,,,,,,,,,,,,,,,,,,,,,,,,,,,,,,,,
216061,001,2022-11-21_01h55.02.447,Info_measure_main_exp,2022.2.2,Win32,143.9263097,,,,,,,,,,,,,,,,,,masks/mask_004.jpg,,,,,,,,,,,,,,,,,,,,,,,,,,,,,,,,,,,,,,,,,,,,,,,,0,3,3,3,1,,,,,,,,,,,,,,,,,,,,,,,,,,,,,,,,,,,,,,,,,
216061,001,2022-11-21_01h55.02.447,Info_measure_main_exp,2022.2.2,Win32,143.9263097,,,,,,,,,,,,,,,,,,masks/mask_005.jpg,,,,,,,,,,,,,,,,,,,,,,,,,,,,,,,,,,,,,,,,,,,,,,,,0,4,4,4,1,,,,,,,,,,,,,,,,,,,,,,,,,,,,,,,,,,,,,,,,,
216061,001,2022-11-21_01h55.02.447,Info_measure_main_exp,2022.2.2,Win32,143.9263097,,,,,,,,,,,,,,,,,,,,,,,,,,,,,,1,0.7639,1,,,,,,,,,,,,0,131,5,5,2250,2250,absent_patch/patch0002250.jpg,absent_patch/patch0002250.jpg,,,,,,,,,,,,,,,,,,,,-0.099163097,0.02788272,1,0,0,response7disk,23,-0.010294058,-0.004517503,1,0,0,center_square,0,22,22,56,1,,,,,,,,,,,,,,,,,,,,,,,
216061,001,2022-11-21_01h55.02.447,Info_measure_main_exp,2022.2.2,Win32,143.9263097,,,,,,,,,,,,,,,,,,masks/mask_001.jpg,,,,,,,,,,,,,,,,,,,,,,,,,,,,,,,,,,,,,,,,,,,0,0,0,0,1,,,,,,,,,,,,,,,,,,,,,,,,,,,,,,,,,,,,,,,,,,,,,,
216061,001,2022-11-21_01h55.02.447,Info_measure_main_exp,2022.2.2,Win32,143.9263097,,,,,,,,,,,,,,,,,,masks/mask_004.jpg,,,,,,,,,,,,,,,,,,,,,,,,,,,,,,,,,,,,,,,,,,,0,1,1,3,1,,,,,,,,,,,,,,,,,,,,,,,,,,,,,,,,,,,,,,,,,,,,,,
216061,001,2022-11-21_01h55.02.447,Info_measure_main_exp,2022.2.2,Win32,143.9263097,,,,,,,,,,,,,,,,,,masks/mask_003.jpg,,,,,,,,,,,,,,,,,,,,,,,,,,,,,,,,,,,,,,,,,,,0,2,2,2,1,,,,,,,,,,,,,,,,,,,,,,,,,,,,,,,,,,,,,,,,,,,,,,
216061,001,2022-11-21_01h55.02.447,Info_measure_main_exp,2022.2.2,Win32,143.9263097,,,,,,,,,,,,,,,,,,masks/mask_005.jpg,,,,,,,,,,,,,,,,,,,,,,,,,,,,,,,,,,,,,,,,,,,0,3,3,4,1,,,,,,,,,,,,,,,,,,,,,,,,,,,,,,,,,,,,,,,,,,,,,,
216061,001,2022-11-21_01h55.02.447,Info_measure_main_exp,2022.2.2,Win32,143.9263097,,,,,,,,,,,,,,,,,,masks/mask_002.jpg,,,,,,,,,,,,,,,,,,,,,,,,,,,,,,,,,,,,,,,,,,,0,4,4,1,1,,,,,,,,,,,,,,,,,,,,,,,,,,,,,,,,,,,,,,,,,,,,,,
216061,001,2022-11-21_01h55.02.447,Info_measure_main_exp,2022.2.2,Win32,143.9263097,,,,,,,,,,,,,,,,,,masks/mask_002.jpg,,,,,,,,,,,,,,,,,,,,,,,,,,,,,,,,,,,,,,,,,,,,,,,,0,0,0,1,1,,,,,,,,,,,,,,,,,,,,,,,,,,,,,,,,,,,,,,,,,
216061,001,2022-11-21_01h55.02.447,Info_measure_main_exp,2022.2.2,Win32,143.9263097,,,,,,,,,,,,,,,,,,masks/mask_004.jpg,,,,,,,,,,,,,,,,,,,,,,,,,,,,,,,,,,,,,,,,,,,,,,,,0,1,1,3,1,,,,,,,,,,,,,,,,,,,,,,,,,,,,,,,,,,,,,,,,,
216061,001,2022-11-21_01h55.02.447,Info_measure_main_exp,2022.2.2,Win32,143.9263097,,,,,,,,,,,,,,,,,,masks/mask_003.jpg,,,,,,,,,,,,,,,,,,,,,,,,,,,,,,,,,,,,,,,,,,,,,,,,0,2,2,2,1,,,,,,,,,,,,,,,,,,,,,,,,,,,,,,,,,,,,,,,,,
216061,001,2022-11-21_01h55.02.447,Info_measure_main_exp,2022.2.2,Win32,143.9263097,,,,,,,,,,,,,,,,,,masks/mask_001.jpg,,,,,,,,,,,,,,,,,,,,,,,,,,,,,,,,,,,,,,,,,,,,,,,,0,3,3,0,1,,,,,,,,,,,,,,,,,,,,,,,,,,,,,,,,,,,,,,,,,
216061,001,2022-11-21_01h55.02.447,Info_measure_main_exp,2022.2.2,Win32,143.9263097,,,,,,,,,,,,,,,,,,masks/mask_005.jpg,,,,,,,,,,,,,,,,,,,,,,,,,,,,,,,,,,,,,,,,,,,,,,,,0,4,4,4,1,,,,,,,,,,,,,,,,,,,,,,,,,,,,,,,,,,,,,,,,,
216061,001,2022-11-21_01h55.02.447,Info_measure_main_exp,2022.2.2,Win32,143.9263097,,,,,,,,,,,,,,,,,,,,,,,,,,,,,,7,0.5346,1,,,,,,,,,,,,0,131,5,5,2154,1950,absent_patch/patch0002154.jpg,absent_patch/patch0001950.jpg,,,,,,,,,,,,,,,,,,,,0.060060682,0.12138044,1,0,0,response1disk,24,-0.001962522,0.005665401,1,0,0,center_square,0,23,23,96,1,,,,,,,,,,,,,,,,,,,,,,,
216061,001,2022-11-21_01h55.02.447,Info_measure_main_exp,2022.2.2,Win32,143.9263097,,,,,,,,,,,,,,,,,,masks/mask_005.jpg,,,,,,,,,,,,,,,,,,,,,,,,,,,,,,,,,,,,,,,,,,,0,0,0,4,1,,,,,,,,,,,,,,,,,,,,,,,,,,,,,,,,,,,,,,,,,,,,,,
216061,001,2022-11-21_01h55.02.447,Info_measure_main_exp,2022.2.2,Win32,143.9263097,,,,,,,,,,,,,,,,,,masks/mask_003.jpg,,,,,,,,,,,,,,,,,,,,,,,,,,,,,,,,,,,,,,,,,,,0,1,1,2,1,,,,,,,,,,,,,,,,,,,,,,,,,,,,,,,,,,,,,,,,,,,,,,
216061,001,2022-11-21_01h55.02.447,Info_measure_main_exp,2022.2.2,Win32,143.9263097,,,,,,,,,,,,,,,,,,masks/mask_002.jpg,,,,,,,,,,,,,,,,,,,,,,,,,,,,,,,,,,,,,,,,,,,0,2,2,1,1,,,,,,,,,,,,,,,,,,,,,,,,,,,,,,,,,,,,,,,,,,,,,,
216061,001,2022-11-21_01h55.02.447,Info_measure_main_exp,2022.2.2,Win32,143.9263097,,,,,,,,,,,,,,,,,,masks/mask_001.jpg,,,,,,,,,,,,,,,,,,,,,,,,,,,,,,,,,,,,,,,,,,,0,3,3,0,1,,,,,,,,,,,,,,,,,,,,,,,,,,,,,,,,,,,,,,,,,,,,,,
216061,001,2022-11-21_01h55.02.447,Info_measure_main_exp,2022.2.2,Win32,143.9263097,,,,,,,,,,,,,,,,,,masks/mask_004.jpg,,,,,,,,,,,,,,,,,,,,,,,,,,,,,,,,,,,,,,,,,,,0,4,4,3,1,,,,,,,,,,,,,,,,,,,,,,,,,,,,,,,,,,,,,,,,,,,,,,
216061,001,2022-11-21_01h55.02.447,Info_measure_main_exp,2022.2.2,Win32,143.9263097,,,,,,,,,,,,,,,,,,masks/mask_005.jpg,,,,,,,,,,,,,,,,,,,,,,,,,,,,,,,,,,,,,,,,,,,,,,,,0,0,0,4,1,,,,,,,,,,,,,,,,,,,,,,,,,,,,,,,,,,,,,,,,,
216061,001,2022-11-21_01h55.02.447,Info_measure_main_exp,2022.2.2,Win32,143.9263097,,,,,,,,,,,,,,,,,,masks/mask_001.jpg,,,,,,,,,,,,,,,,,,,,,,,,,,,,,,,,,,,,,,,,,,,,,,,,0,1,1,0,1,,,,,,,,,,,,,,,,,,,,,,,,,,,,,,,,,,,,,,,,,
216061,001,2022-11-21_01h55.02.447,Info_measure_main_exp,2022.2.2,Win32,143.9263097,,,,,,,,,,,,,,,,,,masks/mask_004.jpg,,,,,,,,,,,,,,,,,,,,,,,,,,,,,,,,,,,,,,,,,,,,,,,,0,2,2,3,1,,,,,,,,,,,,,,,,,,,,,,,,,,,,,,,,,,,,,,,,,
216061,001,2022-11-21_01h55.02.447,Info_measure_main_exp,2022.2.2,Win32,143.9263097,,,,,,,,,,,,,,,,,,masks/mask_002.jpg,,,,,,,,,,,,,,,,,,,,,,,,,,,,,,,,,,,,,,,,,,,,,,,,0,3,3,1,1,,,,,,,,,,,,,,,,,,,,,,,,,,,,,,,,,,,,,,,,,
216061,001,2022-11-21_01h55.02.447,Info_measure_main_exp,2022.2.2,Win32,143.9263097,,,,,,,,,,,,,,,,,,masks/mask_003.jpg,,,,,,,,,,,,,,,,,,,,,,,,,,,,,,,,,,,,,,,,,,,,,,,,0,4,4,2,1,,,,,,,,,,,,,,,,,,,,,,,,,,,,,,,,,,,,,,,,,
216061,001,2022-11-21_01h55.02.447,Info_measure_main_exp,2022.2.2,Win32,143.9263097,,,,,,,,,,,,,,,,,,,,,,,,,,,,,,7,0.4999,1,,,,,,,,,,,,0,131,5,5,2214,2166,absent_patch/patch0002214.jpg,absent_patch/patch0002166.jpg,,,,,,,,,,,,,,,,,,,,0.034140579,0.09360885,1,0,0,response1disk,25,0.002666088,-0.006369014,1,0,0,center_square,0,24,24,109,1,,,,,,,,,,,,,,,,,,,,,,,
216061,001,2022-11-21_01h55.02.447,Info_measure_main_exp,2022.2.2,Win32,143.9263097,,,,,,,,,,,,,,,,,,masks/mask_002.jpg,,,,,,,,,,,,,,,,,,,,,,,,,,,,,,,,,,,,,,,,,,,0,0,0,1,1,,,,,,,,,,,,,,,,,,,,,,,,,,,,,,,,,,,,,,,,,,,,,,
216061,001,2022-11-21_01h55.02.447,Info_measure_main_exp,2022.2.2,Win32,143.9263097,,,,,,,,,,,,,,,,,,masks/mask_005.jpg,,,,,,,,,,,,,,,,,,,,,,,,,,,,,,,,,,,,,,,,,,,0,1,1,4,1,,,,,,,,,,,,,,,,,,,,,,,,,,,,,,,,,,,,,,,,,,,,,,
216061,001,2022-11-21_01h55.02.447,Info_measure_main_exp,2022.2.2,Win32,143.9263097,,,,,,,,,,,,,,,,,,masks/mask_004.jpg,,,,,,,,,,,,,,,,,,,,,,,,,,,,,,,,,,,,,,,,,,,0,2,2,3,1,,,,,,,,,,,,,,,,,,,,,,,,,,,,,,,,,,,,,,,,,,,,,,
216061,001,2022-11-21_01h55.02.447,Info_measure_main_exp,2022.2.2,Win32,143.9263097,,,,,,,,,,,,,,,,,,masks/mask_003.jpg,,,,,,,,,,,,,,,,,,,,,,,,,,,,,,,,,,,,,,,,,,,0,3,3,2,1,,,,,,,,,,,,,,,,,,,,,,,,,,,,,,,,,,,,,,,,,,,,,,
216061,001,2022-11-21_01h55.02.447,Info_measure_main_exp,2022.2.2,Win32,143.9263097,,,,,,,,,,,,,,,,,,masks/mask_001.jpg,,,,,,,,,,,,,,,,,,,,,,,,,,,,,,,,,,,,,,,,,,,0,4,4,0,1,,,,,,,,,,,,,,,,,,,,,,,,,,,,,,,,,,,,,,,,,,,,,,
216061,001,2022-11-21_01h55.02.447,Info_measure_main_exp,2022.2.2,Win32,143.9263097,,,,,,,,,,,,,,,,,,masks/mask_004.jpg,,,,,,,,,,,,,,,,,,,,,,,,,,,,,,,,,,,,,,,,,,,,,,,,0,0,0,3,1,,,,,,,,,,,,,,,,,,,,,,,,,,,,,,,,,,,,,,,,,
216061,001,2022-11-21_01h55.02.447,Info_measure_main_exp,2022.2.2,Win32,143.9263097,,,,,,,,,,,,,,,,,,masks/mask_005.jpg,,,,,,,,,,,,,,,,,,,,,,,,,,,,,,,,,,,,,,,,,,,,,,,,0,1,1,4,1,,,,,,,,,,,,,,,,,,,,,,,,,,,,,,,,,,,,,,,,,
216061,001,2022-11-21_01h55.02.447,Info_measure_main_exp,2022.2.2,Win32,143.9263097,,,,,,,,,,,,,,,,,,masks/mask_003.jpg,,,,,,,,,,,,,,,,,,,,,,,,,,,,,,,,,,,,,,,,,,,,,,,,0,2,2,2,1,,,,,,,,,,,,,,,,,,,,,,,,,,,,,,,,,,,,,,,,,
216061,001,2022-11-21_01h55.02.447,Info_measure_main_exp,2022.2.2,Win32,143.9263097,,,,,,,,,,,,,,,,,,masks/mask_002.jpg,,,,,,,,,,,,,,,,,,,,,,,,,,,,,,,,,,,,,,,,,,,,,,,,0,3,3,1,1,,,,,,,,,,,,,,,,,,,,,,,,,,,,,,,,,,,,,,,,,
216061,001,2022-11-21_01h55.02.447,Info_measure_main_exp,2022.2.2,Win32,143.9263097,,,,,,,,,,,,,,,,,,masks/mask_001.jpg,,,,,,,,,,,,,,,,,,,,,,,,,,,,,,,,,,,,,,,,,,,,,,,,0,4,4,0,1,,,,,,,,,,,,,,,,,,,,,,,,,,,,,,,,,,,,,,,,,
216061,001,2022-11-21_01h55.02.447,Info_measure_main_exp,2022.2.2,Win32,143.9263097,,,,,,,,,,,,,,,,,,,,,,,,,,,,,,1,0.5416,1,,,,,,,,,,,,0,131,5,5,2190,2190,absent_patch/patch0002190.jpg,absent_patch/patch0002190.jpg,,,,,,,,,,,,,,,,,,,,-0.100088876,0.038065624,1,0,0,response7disk,26,-0.001036838,0.001036743,1,0,0,center_square,0,25,25,86,1,,,,,,,,,,,,,,,,,,,,,,,
216061,001,2022-11-21_01h55.02.447,Info_measure_main_exp,2022.2.2,Win32,143.9263097,,,,,,,,,,,,,,,,,,masks/mask_002.jpg,,,,,,,,,,,,,,,,,,,,,,,,,,,,,,,,,,,,,,,,,,,0,0,0,1,1,,,,,,,,,,,,,,,,,,,,,,,,,,,,,,,,,,,,,,,,,,,,,,
216061,001,2022-11-21_01h55.02.447,Info_measure_main_exp,2022.2.2,Win32,143.9263097,,,,,,,,,,,,,,,,,,masks/mask_004.jpg,,,,,,,,,,,,,,,,,,,,,,,,,,,,,,,,,,,,,,,,,,,0,1,1,3,1,,,,,,,,,,,,,,,,,,,,,,,,,,,,,,,,,,,,,,,,,,,,,,
216061,001,2022-11-21_01h55.02.447,Info_measure_main_exp,2022.2.2,Win32,143.9263097,,,,,,,,,,,,,,,,,,masks/mask_003.jpg,,,,,,,,,,,,,,,,,,,,,,,,,,,,,,,,,,,,,,,,,,,0,2,2,2,1,,,,,,,,,,,,,,,,,,,,,,,,,,,,,,,,,,,,,,,,,,,,,,
216061,001,2022-11-21_01h55.02.447,Info_measure_main_exp,2022.2.2,Win32,143.9263097,,,,,,,,,,,,,,,,,,masks/mask_001.jpg,,,,,,,,,,,,,,,,,,,,,,,,,,,,,,,,,,,,,,,,,,,0,3,3,0,1,,,,,,,,,,,,,,,,,,,,,,,,,,,,,,,,,,,,,,,,,,,,,,
216061,001,2022-11-21_01h55.02.447,Info_measure_main_exp,2022.2.2,Win32,143.9263097,,,,,,,,,,,,,,,,,,masks/mask_005.jpg,,,,,,,,,,,,,,,,,,,,,,,,,,,,,,,,,,,,,,,,,,,0,4,4,4,1,,,,,,,,,,,,,,,,,,,,,,,,,,,,,,,,,,,,,,,,,,,,,,
216061,001,2022-11-21_01h55.02.447,Info_measure_main_exp,2022.2.2,Win32,143.9263097,,,,,,,,,,,,,,,,,,masks/mask_001.jpg,,,,,,,,,,,,,,,,,,,,,,,,,,,,,,,,,,,,,,,,,,,,,,,,0,0,0,0,1,,,,,,,,,,,,,,,,,,,,,,,,,,,,,,,,,,,,,,,,,
216061,001,2022-11-21_01h55.02.447,Info_measure_main_exp,2022.2.2,Win32,143.9263097,,,,,,,,,,,,,,,,,,masks/mask_003.jpg,,,,,,,,,,,,,,,,,,,,,,,,,,,,,,,,,,,,,,,,,,,,,,,,0,1,1,2,1,,,,,,,,,,,,,,,,,,,,,,,,,,,,,,,,,,,,,,,,,
216061,001,2022-11-21_01h55.02.447,Info_measure_main_exp,2022.2.2,Win32,143.9263097,,,,,,,,,,,,,,,,,,masks/mask_004.jpg,,,,,,,,,,,,,,,,,,,,,,,,,,,,,,,,,,,,,,,,,,,,,,,,0,2,2,3,1,,,,,,,,,,,,,,,,,,,,,,,,,,,,,,,,,,,,,,,,,
216061,001,2022-11-21_01h55.02.447,Info_measure_main_exp,2022.2.2,Win32,143.9263097,,,,,,,,,,,,,,,,,,masks/mask_002.jpg,,,,,,,,,,,,,,,,,,,,,,,,,,,,,,,,,,,,,,,,,,,,,,,,0,3,3,1,1,,,,,,,,,,,,,,,,,,,,,,,,,,,,,,,,,,,,,,,,,
216061,001,2022-11-21_01h55.02.447,Info_measure_main_exp,2022.2.2,Win32,143.9263097,,,,,,,,,,,,,,,,,,masks/mask_005.jpg,,,,,,,,,,,,,,,,,,,,,,,,,,,,,,,,,,,,,,,,,,,,,,,,0,4,4,4,1,,,,,,,,,,,,,,,,,,,,,,,,,,,,,,,,,,,,,,,,,
216061,001,2022-11-21_01h55.02.447,Info_measure_main_exp,2022.2.2,Win32,143.9263097,,,,,,,,,,,,,,,,,,,,,,,,,,,,,,0,1.0414,1,,,,,,,,,,,,0,131,5,5,2190,1986,absent_patch/patch0002190.jpg,absent_patch/patch0001986.jpg,,,,,,,,,,,,,,,,,,,,-0.03251133,0.086203093,1,0,0,response7disk,27,-0.001962522,0.000111107,1,0,0,center_square,0,26,26,111,1,,,,,,,,,,,,,,,,,,,,,,,
216061,001,2022-11-21_01h55.02.447,Info_measure_main_exp,2022.2.2,Win32,143.9263097,,,,,,,,,,,,,,,,,,masks/mask_004.jpg,,,,,,,,,,,,,,,,,,,,,,,,,,,,,,,,,,,,,,,,,,,0,0,0,3,1,,,,,,,,,,,,,,,,,,,,,,,,,,,,,,,,,,,,,,,,,,,,,,
216061,001,2022-11-21_01h55.02.447,Info_measure_main_exp,2022.2.2,Win32,143.9263097,,,,,,,,,,,,,,,,,,masks/mask_003.jpg,,,,,,,,,,,,,,,,,,,,,,,,,,,,,,,,,,,,,,,,,,,0,1,1,2,1,,,,,,,,,,,,,,,,,,,,,,,,,,,,,,,,,,,,,,,,,,,,,,
216061,001,2022-11-21_01h55.02.447,Info_measure_main_exp,2022.2.2,Win32,143.9263097,,,,,,,,,,,,,,,,,,masks/mask_001.jpg,,,,,,,,,,,,,,,,,,,,,,,,,,,,,,,,,,,,,,,,,,,0,2,2,0,1,,,,,,,,,,,,,,,,,,,,,,,,,,,,,,,,,,,,,,,,,,,,,,
216061,001,2022-11-21_01h55.02.447,Info_measure_main_exp,2022.2.2,Win32,143.9263097,,,,,,,,,,,,,,,,,,masks/mask_005.jpg,,,,,,,,,,,,,,,,,,,,,,,,,,,,,,,,,,,,,,,,,,,0,3,3,4,1,,,,,,,,,,,,,,,,,,,,,,,,,,,,,,,,,,,,,,,,,,,,,,
216061,001,2022-11-21_01h55.02.447,Info_measure_main_exp,2022.2.2,Win32,143.9263097,,,,,,,,,,,,,,,,,,masks/mask_002.jpg,,,,,,,,,,,,,,,,,,,,,,,,,,,,,,,,,,,,,,,,,,,0,4,4,1,1,,,,,,,,,,,,,,,,,,,,,,,,,,,,,,,,,,,,,,,,,,,,,,
216061,001,2022-11-21_01h55.02.447,Info_measure_main_exp,2022.2.2,Win32,143.9263097,,,,,,,,,,,,,,,,,,masks/mask_004.jpg,,,,,,,,,,,,,,,,,,,,,,,,,,,,,,,,,,,,,,,,,,,,,,,,0,0,0,3,1,,,,,,,,,,,,,,,,,,,,,,,,,,,,,,,,,,,,,,,,,
216061,001,2022-11-21_01h55.02.447,Info_measure_main_exp,2022.2.2,Win32,143.9263097,,,,,,,,,,,,,,,,,,masks/mask_002.jpg,,,,,,,,,,,,,,,,,,,,,,,,,,,,,,,,,,,,,,,,,,,,,,,,0,1,1,1,1,,,,,,,,,,,,,,,,,,,,,,,,,,,,,,,,,,,,,,,,,
216061,001,2022-11-21_01h55.02.447,Info_measure_main_exp,2022.2.2,Win32,143.9263097,,,,,,,,,,,,,,,,,,masks/mask_003.jpg,,,,,,,,,,,,,,,,,,,,,,,,,,,,,,,,,,,,,,,,,,,,,,,,0,2,2,2,1,,,,,,,,,,,,,,,,,,,,,,,,,,,,,,,,,,,,,,,,,
216061,001,2022-11-21_01h55.02.447,Info_measure_main_exp,2022.2.2,Win32,143.9263097,,,,,,,,,,,,,,,,,,masks/mask_001.jpg,,,,,,,,,,,,,,,,,,,,,,,,,,,,,,,,,,,,,,,,,,,,,,,,0,3,3,0,1,,,,,,,,,,,,,,,,,,,,,,,,,,,,,,,,,,,,,,,,,
216061,001,2022-11-21_01h55.02.447,Info_measure_main_exp,2022.2.2,Win32,143.9263097,,,,,,,,,,,,,,,,,,masks/mask_005.jpg,,,,,,,,,,,,,,,,,,,,,,,,,,,,,,,,,,,,,,,,,,,,,,,,0,4,4,4,1,,,,,,,,,,,,,,,,,,,,,,,,,,,,,,,,,,,,,,,,,
216061,001,2022-11-21_01h55.02.447,Info_measure_main_exp,2022.2.2,Win32,143.9263097,,,,,,,,,,,,,,,,,,,,,,,,,,,,,,7,0.847,1,,,,,,,,,,,,0,131,5,5,2190,2178,absent_patch/patch0002190.jpg,absent_patch/patch0002178.jpg,,,,,,,,,,,,,,,,,,,,0.079500806,0.132489052,1,0,0,response1disk,28,0.003591772,-0.008220382,1,0,0,center_square,0,27,27,14,1,,,,,,,,,,,,,,,,,,,,,,,
216061,001,2022-11-21_01h55.02.447,Info_measure_main_exp,2022.2.2,Win32,143.9263097,,,,,,,,,,,,,,,,,,masks/mask_002.jpg,,,,,,,,,,,,,,,,,,,,,,,,,,,,,,,,,,,,,,,,,,,0,0,0,1,1,,,,,,,,,,,,,,,,,,,,,,,,,,,,,,,,,,,,,,,,,,,,,,
216061,001,2022-11-21_01h55.02.447,Info_measure_main_exp,2022.2.2,Win32,143.9263097,,,,,,,,,,,,,,,,,,masks/mask_003.jpg,,,,,,,,,,,,,,,,,,,,,,,,,,,,,,,,,,,,,,,,,,,0,1,1,2,1,,,,,,,,,,,,,,,,,,,,,,,,,,,,,,,,,,,,,,,,,,,,,,
216061,001,2022-11-21_01h55.02.447,Info_measure_main_exp,2022.2.2,Win32,143.9263097,,,,,,,,,,,,,,,,,,masks/mask_001.jpg,,,,,,,,,,,,,,,,,,,,,,,,,,,,,,,,,,,,,,,,,,,0,2,2,0,1,,,,,,,,,,,,,,,,,,,,,,,,,,,,,,,,,,,,,,,,,,,,,,
216061,001,2022-11-21_01h55.02.447,Info_measure_main_exp,2022.2.2,Win32,143.9263097,,,,,,,,,,,,,,,,,,masks/mask_005.jpg,,,,,,,,,,,,,,,,,,,,,,,,,,,,,,,,,,,,,,,,,,,0,3,3,4,1,,,,,,,,,,,,,,,,,,,,,,,,,,,,,,,,,,,,,,,,,,,,,,
216061,001,2022-11-21_01h55.02.447,Info_measure_main_exp,2022.2.2,Win32,143.9263097,,,,,,,,,,,,,,,,,,masks/mask_004.jpg,,,,,,,,,,,,,,,,,,,,,,,,,,,,,,,,,,,,,,,,,,,0,4,4,3,1,,,,,,,,,,,,,,,,,,,,,,,,,,,,,,,,,,,,,,,,,,,,,,
216061,001,2022-11-21_01h55.02.447,Info_measure_main_exp,2022.2.2,Win32,143.9263097,,,,,,,,,,,,,,,,,,masks/mask_001.jpg,,,,,,,,,,,,,,,,,,,,,,,,,,,,,,,,,,,,,,,,,,,,,,,,0,0,0,0,1,,,,,,,,,,,,,,,,,,,,,,,,,,,,,,,,,,,,,,,,,
216061,001,2022-11-21_01h55.02.447,Info_measure_main_exp,2022.2.2,Win32,143.9263097,,,,,,,,,,,,,,,,,,masks/mask_005.jpg,,,,,,,,,,,,,,,,,,,,,,,,,,,,,,,,,,,,,,,,,,,,,,,,0,1,1,4,1,,,,,,,,,,,,,,,,,,,,,,,,,,,,,,,,,,,,,,,,,
216061,001,2022-11-21_01h55.02.447,Info_measure_main_exp,2022.2.2,Win32,143.9263097,,,,,,,,,,,,,,,,,,masks/mask_002.jpg,,,,,,,,,,,,,,,,,,,,,,,,,,,,,,,,,,,,,,,,,,,,,,,,0,2,2,1,1,,,,,,,,,,,,,,,,,,,,,,,,,,,,,,,,,,,,,,,,,
216061,001,2022-11-21_01h55.02.447,Info_measure_main_exp,2022.2.2,Win32,143.9263097,,,,,,,,,,,,,,,,,,masks/mask_003.jpg,,,,,,,,,,,,,,,,,,,,,,,,,,,,,,,,,,,,,,,,,,,,,,,,0,3,3,2,1,,,,,,,,,,,,,,,,,,,,,,,,,,,,,,,,,,,,,,,,,
216061,001,2022-11-21_01h55.02.447,Info_measure_main_exp,2022.2.2,Win32,143.9263097,,,,,,,,,,,,,,,,,,masks/mask_004.jpg,,,,,,,,,,,,,,,,,,,,,,,,,,,,,,,,,,,,,,,,,,,,,,,,0,4,4,3,1,,,,,,,,,,,,,,,,,,,,,,,,,,,,,,,,,,,,,,,,,
216061,001,2022-11-21_01h55.02.447,Info_measure_main_exp,2022.2.2,Win32,143.9263097,,,,,,,,,,,,,,,,,,,,,,,,,,,,,,7,0.5693,1,,,,,,,,,,,,1,131,5,5,1,1986,present_patch/cong_131_5_a.jpg,absent_patch/patch0001986.jpg,,,,,,,,,,,,,,,,,,,,0.064689292,0.146374882,1,0,0,response1disk,29,0.00544333,0.001036743,1,0,0,center_square,0,28,28,106,1,,,,,,,,,,,,,,,,,,,,,,,
216061,001,2022-11-21_01h55.02.447,Info_measure_main_exp,2022.2.2,Win32,143.9263097,,,,,,,,,,,,,,,,,,masks/mask_002.jpg,,,,,,,,,,,,,,,,,,,,,,,,,,,,,,,,,,,,,,,,,,,0,0,0,1,1,,,,,,,,,,,,,,,,,,,,,,,,,,,,,,,,,,,,,,,,,,,,,,
216061,001,2022-11-21_01h55.02.447,Info_measure_main_exp,2022.2.2,Win32,143.9263097,,,,,,,,,,,,,,,,,,masks/mask_001.jpg,,,,,,,,,,,,,,,,,,,,,,,,,,,,,,,,,,,,,,,,,,,0,1,1,0,1,,,,,,,,,,,,,,,,,,,,,,,,,,,,,,,,,,,,,,,,,,,,,,
216061,001,2022-11-21_01h55.02.447,Info_measure_main_exp,2022.2.2,Win32,143.9263097,,,,,,,,,,,,,,,,,,masks/mask_003.jpg,,,,,,,,,,,,,,,,,,,,,,,,,,,,,,,,,,,,,,,,,,,0,2,2,2,1,,,,,,,,,,,,,,,,,,,,,,,,,,,,,,,,,,,,,,,,,,,,,,
216061,001,2022-11-21_01h55.02.447,Info_measure_main_exp,2022.2.2,Win32,143.9263097,,,,,,,,,,,,,,,,,,masks/mask_005.jpg,,,,,,,,,,,,,,,,,,,,,,,,,,,,,,,,,,,,,,,,,,,0,3,3,4,1,,,,,,,,,,,,,,,,,,,,,,,,,,,,,,,,,,,,,,,,,,,,,,
216061,001,2022-11-21_01h55.02.447,Info_measure_main_exp,2022.2.2,Win32,143.9263097,,,,,,,,,,,,,,,,,,masks/mask_004.jpg,,,,,,,,,,,,,,,,,,,,,,,,,,,,,,,,,,,,,,,,,,,0,4,4,3,1,,,,,,,,,,,,,,,,,,,,,,,,,,,,,,,,,,,,,,,,,,,,,,
216061,001,2022-11-21_01h55.02.447,Info_measure_main_exp,2022.2.2,Win32,143.9263097,,,,,,,,,,,,,,,,,,masks/mask_001.jpg,,,,,,,,,,,,,,,,,,,,,,,,,,,,,,,,,,,,,,,,,,,,,,,,0,0,0,0,1,,,,,,,,,,,,,,,,,,,,,,,,,,,,,,,,,,,,,,,,,
216061,001,2022-11-21_01h55.02.447,Info_measure_main_exp,2022.2.2,Win32,143.9263097,,,,,,,,,,,,,,,,,,masks/mask_002.jpg,,,,,,,,,,,,,,,,,,,,,,,,,,,,,,,,,,,,,,,,,,,,,,,,0,1,1,1,1,,,,,,,,,,,,,,,,,,,,,,,,,,,,,,,,,,,,,,,,,
216061,001,2022-11-21_01h55.02.447,Info_measure_main_exp,2022.2.2,Win32,143.9263097,,,,,,,,,,,,,,,,,,masks/mask_004.jpg,,,,,,,,,,,,,,,,,,,,,,,,,,,,,,,,,,,,,,,,,,,,,,,,0,2,2,3,1,,,,,,,,,,,,,,,,,,,,,,,,,,,,,,,,,,,,,,,,,
216061,001,2022-11-21_01h55.02.447,Info_measure_main_exp,2022.2.2,Win32,143.9263097,,,,,,,,,,,,,,,,,,masks/mask_003.jpg,,,,,,,,,,,,,,,,,,,,,,,,,,,,,,,,,,,,,,,,,,,,,,,,0,3,3,2,1,,,,,,,,,,,,,,,,,,,,,,,,,,,,,,,,,,,,,,,,,
216061,001,2022-11-21_01h55.02.447,Info_measure_main_exp,2022.2.2,Win32,143.9263097,,,,,,,,,,,,,,,,,,masks/mask_005.jpg,,,,,,,,,,,,,,,,,,,,,,,,,,,,,,,,,,,,,,,,,,,,,,,,0,4,4,4,1,,,,,,,,,,,,,,,,,,,,,,,,,,,,,,,,,,,,,,,,,
216061,001,2022-11-21_01h55.02.447,Info_measure_main_exp,2022.2.2,Win32,143.9263097,,,,,,,,,,,,,,,,,,,,,,,,,,,,,,0,0.736,1,,,,,,,,,,,,0,131,5,5,2142,2082,absent_patch/patch0002142.jpg,absent_patch/patch0002082.jpg,,,,,,,,,,,,,,,,,,,,-0.038065624,0.090831656,1,0,0,response7disk,30,0.003591772,0.005665401,1,0,0,center_square,0,29,29,88,1,,,,,,,,,,,,,,,,,,,,,,,
216061,001,2022-11-21_01h55.02.447,Info_measure_main_exp,2022.2.2,Win32,143.9263097,,,,,,,,,,,,,,,,,,masks/mask_004.jpg,,,,,,,,,,,,,,,,,,,,,,,,,,,,,,,,,,,,,,,,,,,0,0,0,3,1,,,,,,,,,,,,,,,,,,,,,,,,,,,,,,,,,,,,,,,,,,,,,,
216061,001,2022-11-21_01h55.02.447,Info_measure_main_exp,2022.2.2,Win32,143.9263097,,,,,,,,,,,,,,,,,,masks/mask_001.jpg,,,,,,,,,,,,,,,,,,,,,,,,,,,,,,,,,,,,,,,,,,,0,1,1,0,1,,,,,,,,,,,,,,,,,,,,,,,,,,,,,,,,,,,,,,,,,,,,,,
216061,001,2022-11-21_01h55.02.447,Info_measure_main_exp,2022.2.2,Win32,143.9263097,,,,,,,,,,,,,,,,,,masks/mask_002.jpg,,,,,,,,,,,,,,,,,,,,,,,,,,,,,,,,,,,,,,,,,,,0,2,2,1,1,,,,,,,,,,,,,,,,,,,,,,,,,,,,,,,,,,,,,,,,,,,,,,
216061,001,2022-11-21_01h55.02.447,Info_measure_main_exp,2022.2.2,Win32,143.9263097,,,,,,,,,,,,,,,,,,masks/mask_005.jpg,,,,,,,,,,,,,,,,,,,,,,,,,,,,,,,,,,,,,,,,,,,0,3,3,4,1,,,,,,,,,,,,,,,,,,,,,,,,,,,,,,,,,,,,,,,,,,,,,,
216061,001,2022-11-21_01h55.02.447,Info_measure_main_exp,2022.2.2,Win32,143.9263097,,,,,,,,,,,,,,,,,,masks/mask_003.jpg,,,,,,,,,,,,,,,,,,,,,,,,,,,,,,,,,,,,,,,,,,,0,4,4,2,1,,,,,,,,,,,,,,,,,,,,,,,,,,,,,,,,,,,,,,,,,,,,,,
216061,001,2022-11-21_01h55.02.447,Info_measure_main_exp,2022.2.2,Win32,143.9263097,,,,,,,,,,,,,,,,,,masks/mask_005.jpg,,,,,,,,,,,,,,,,,,,,,,,,,,,,,,,,,,,,,,,,,,,,,,,,0,0,0,4,1,,,,,,,,,,,,,,,,,,,,,,,,,,,,,,,,,,,,,,,,,
216061,001,2022-11-21_01h55.02.447,Info_measure_main_exp,2022.2.2,Win32,143.9263097,,,,,,,,,,,,,,,,,,masks/mask_004.jpg,,,,,,,,,,,,,,,,,,,,,,,,,,,,,,,,,,,,,,,,,,,,,,,,0,1,1,3,1,,,,,,,,,,,,,,,,,,,,,,,,,,,,,,,,,,,,,,,,,
216061,001,2022-11-21_01h55.02.447,Info_measure_main_exp,2022.2.2,Win32,143.9263097,,,,,,,,,,,,,,,,,,masks/mask_001.jpg,,,,,,,,,,,,,,,,,,,,,,,,,,,,,,,,,,,,,,,,,,,,,,,,0,2,2,0,1,,,,,,,,,,,,,,,,,,,,,,,,,,,,,,,,,,,,,,,,,
216061,001,2022-11-21_01h55.02.447,Info_measure_main_exp,2022.2.2,Win32,143.9263097,,,,,,,,,,,,,,,,,,masks/mask_003.jpg,,,,,,,,,,,,,,,,,,,,,,,,,,,,,,,,,,,,,,,,,,,,,,,,0,3,3,2,1,,,,,,,,,,,,,,,,,,,,,,,,,,,,,,,,,,,,,,,,,
216061,001,2022-11-21_01h55.02.447,Info_measure_main_exp,2022.2.2,Win32,143.9263097,,,,,,,,,,,,,,,,,,masks/mask_002.jpg,,,,,,,,,,,,,,,,,,,,,,,,,,,,,,,,,,,,,,,,,,,,,,,,0,4,4,1,1,,,,,,,,,,,,,,,,,,,,,,,,,,,,,,,,,,,,,,,,,
216061,001,2022-11-21_01h55.02.447,Info_measure_main_exp,2022.2.2,Win32,143.9263097,,,,,,,,,,,,,,,,,,,,,,,,,,,,,,0,0.479,1,,,,,,,,,,,,0,131,5,5,2166,2166,absent_patch/patch0002166.jpg,absent_patch/patch0002166.jpg,,,,,,,,,,,,,,,,,,,,-0.046397065,0.108420365,1,0,0,response7disk,31,0.000814625,0.001962522,1,0,0,center_square,0,30,30,42,1,,,,,,,,,,,,,,,,,,,,,,,
216061,001,2022-11-21_01h55.02.447,Info_measure_main_exp,2022.2.2,Win32,143.9263097,,,,,,,,,,,,,,,,,,masks/mask_002.jpg,,,,,,,,,,,,,,,,,,,,,,,,,,,,,,,,,,,,,,,,,,,0,0,0,1,1,,,,,,,,,,,,,,,,,,,,,,,,,,,,,,,,,,,,,,,,,,,,,,
216061,001,2022-11-21_01h55.02.447,Info_measure_main_exp,2022.2.2,Win32,143.9263097,,,,,,,,,,,,,,,,,,masks/mask_004.jpg,,,,,,,,,,,,,,,,,,,,,,,,,,,,,,,,,,,,,,,,,,,0,1,1,3,1,,,,,,,,,,,,,,,,,,,,,,,,,,,,,,,,,,,,,,,,,,,,,,
216061,001,2022-11-21_01h55.02.447,Info_measure_main_exp,2022.2.2,Win32,143.9263097,,,,,,,,,,,,,,,,,,masks/mask_005.jpg,,,,,,,,,,,,,,,,,,,,,,,,,,,,,,,,,,,,,,,,,,,0,2,2,4,1,,,,,,,,,,,,,,,,,,,,,,,,,,,,,,,,,,,,,,,,,,,,,,
216061,001,2022-11-21_01h55.02.447,Info_measure_main_exp,2022.2.2,Win32,143.9263097,,,,,,,,,,,,,,,,,,masks/mask_001.jpg,,,,,,,,,,,,,,,,,,,,,,,,,,,,,,,,,,,,,,,,,,,0,3,3,0,1,,,,,,,,,,,,,,,,,,,,,,,,,,,,,,,,,,,,,,,,,,,,,,
216061,001,2022-11-21_01h55.02.447,Info_measure_main_exp,2022.2.2,Win32,143.9263097,,,,,,,,,,,,,,,,,,masks/mask_003.jpg,,,,,,,,,,,,,,,,,,,,,,,,,,,,,,,,,,,,,,,,,,,0,4,4,2,1,,,,,,,,,,,,,,,,,,,,,,,,,,,,,,,,,,,,,,,,,,,,,,
216061,001,2022-11-21_01h55.02.447,Info_measure_main_exp,2022.2.2,Win32,143.9263097,,,,,,,,,,,,,,,,,,masks/mask_003.jpg,,,,,,,,,,,,,,,,,,,,,,,,,,,,,,,,,,,,,,,,,,,,,,,,0,0,0,2,1,,,,,,,,,,,,,,,,,,,,,,,,,,,,,,,,,,,,,,,,,
216061,001,2022-11-21_01h55.02.447,Info_measure_main_exp,2022.2.2,Win32,143.9263097,,,,,,,,,,,,,,,,,,masks/mask_001.jpg,,,,,,,,,,,,,,,,,,,,,,,,,,,,,,,,,,,,,,,,,,,,,,,,0,1,1,0,1,,,,,,,,,,,,,,,,,,,,,,,,,,,,,,,,,,,,,,,,,
216061,001,2022-11-21_01h55.02.447,Info_measure_main_exp,2022.2.2,Win32,143.9263097,,,,,,,,,,,,,,,,,,masks/mask_005.jpg,,,,,,,,,,,,,,,,,,,,,,,,,,,,,,,,,,,,,,,,,,,,,,,,0,2,2,4,1,,,,,,,,,,,,,,,,,,,,,,,,,,,,,,,,,,,,,,,,,
216061,001,2022-11-21_01h55.02.447,Info_measure_main_exp,2022.2.2,Win32,143.9263097,,,,,,,,,,,,,,,,,,masks/mask_004.jpg,,,,,,,,,,,,,,,,,,,,,,,,,,,,,,,,,,,,,,,,,,,,,,,,0,3,3,3,1,,,,,,,,,,,,,,,,,,,,,,,,,,,,,,,,,,,,,,,,,
216061,001,2022-11-21_01h55.02.447,Info_measure_main_exp,2022.2.2,Win32,143.9263097,,,,,,,,,,,,,,,,,,masks/mask_002.jpg,,,,,,,,,,,,,,,,,,,,,,,,,,,,,,,,,,,,,,,,,,,,,,,,0,4,4,1,1,,,,,,,,,,,,,,,,,,,,,,,,,,,,,,,,,,,,,,,,,
216061,001,2022-11-21_01h55.02.447,Info_measure_main_exp,2022.2.2,Win32,143.9263097,,,,,,,,,,,,,,,,,,,,,,,,,,,,,,0,0.4999,1,,,,,,,,,,,,0,131,5,5,2238,2238,absent_patch/patch0002238.jpg,absent_patch/patch0002238.jpg,,,,,,,,,,,,,,,,,,,,-0.022328426,0.147300613,1,0,0,response7disk,32,0.006368919,0.004739574,1,0,0,center_square,0,31,31,58,1,,,,,,,,,,,,,,,,,,,,,,,
216061,001,2022-11-21_01h55.02.447,Info_measure_main_exp,2022.2.2,Win32,143.9263097,,,,,,,,,,,,,,,,,,masks/mask_002.jpg,,,,,,,,,,,,,,,,,,,,,,,,,,,,,,,,,,,,,,,,,,,0,0,0,1,1,,,,,,,,,,,,,,,,,,,,,,,,,,,,,,,,,,,,,,,,,,,,,,
216061,001,2022-11-21_01h55.02.447,Info_measure_main_exp,2022.2.2,Win32,143.9263097,,,,,,,,,,,,,,,,,,masks/mask_005.jpg,,,,,,,,,,,,,,,,,,,,,,,,,,,,,,,,,,,,,,,,,,,0,1,1,4,1,,,,,,,,,,,,,,,,,,,,,,,,,,,,,,,,,,,,,,,,,,,,,,
216061,001,2022-11-21_01h55.02.447,Info_measure_main_exp,2022.2.2,Win32,143.9263097,,,,,,,,,,,,,,,,,,masks/mask_001.jpg,,,,,,,,,,,,,,,,,,,,,,,,,,,,,,,,,,,,,,,,,,,0,2,2,0,1,,,,,,,,,,,,,,,,,,,,,,,,,,,,,,,,,,,,,,,,,,,,,,
216061,001,2022-11-21_01h55.02.447,Info_measure_main_exp,2022.2.2,Win32,143.9263097,,,,,,,,,,,,,,,,,,masks/mask_003.jpg,,,,,,,,,,,,,,,,,,,,,,,,,,,,,,,,,,,,,,,,,,,0,3,3,2,1,,,,,,,,,,,,,,,,,,,,,,,,,,,,,,,,,,,,,,,,,,,,,,
216061,001,2022-11-21_01h55.02.447,Info_measure_main_exp,2022.2.2,Win32,143.9263097,,,,,,,,,,,,,,,,,,masks/mask_004.jpg,,,,,,,,,,,,,,,,,,,,,,,,,,,,,,,,,,,,,,,,,,,0,4,4,3,1,,,,,,,,,,,,,,,,,,,,,,,,,,,,,,,,,,,,,,,,,,,,,,
216061,001,2022-11-21_01h55.02.447,Info_measure_main_exp,2022.2.2,Win32,143.9263097,,,,,,,,,,,,,,,,,,masks/mask_003.jpg,,,,,,,,,,,,,,,,,,,,,,,,,,,,,,,,,,,,,,,,,,,,,,,,0,0,0,2,1,,,,,,,,,,,,,,,,,,,,,,,,,,,,,,,,,,,,,,,,,
216061,001,2022-11-21_01h55.02.447,Info_measure_main_exp,2022.2.2,Win32,143.9263097,,,,,,,,,,,,,,,,,,masks/mask_004.jpg,,,,,,,,,,,,,,,,,,,,,,,,,,,,,,,,,,,,,,,,,,,,,,,,0,1,1,3,1,,,,,,,,,,,,,,,,,,,,,,,,,,,,,,,,,,,,,,,,,
216061,001,2022-11-21_01h55.02.447,Info_measure_main_exp,2022.2.2,Win32,143.9263097,,,,,,,,,,,,,,,,,,masks/mask_005.jpg,,,,,,,,,,,,,,,,,,,,,,,,,,,,,,,,,,,,,,,,,,,,,,,,0,2,2,4,1,,,,,,,,,,,,,,,,,,,,,,,,,,,,,,,,,,,,,,,,,
216061,001,2022-11-21_01h55.02.447,Info_measure_main_exp,2022.2.2,Win32,143.9263097,,,,,,,,,,,,,,,,,,masks/mask_001.jpg,,,,,,,,,,,,,,,,,,,,,,,,,,,,,,,,,,,,,,,,,,,,,,,,0,3,3,0,1,,,,,,,,,,,,,,,,,,,,,,,,,,,,,,,,,,,,,,,,,
216061,001,2022-11-21_01h55.02.447,Info_measure_main_exp,2022.2.2,Win32,143.9263097,,,,,,,,,,,,,,,,,,masks/mask_002.jpg,,,,,,,,,,,,,,,,,,,,,,,,,,,,,,,,,,,,,,,,,,,,,,,,0,4,4,1,1,,,,,,,,,,,,,,,,,,,,,,,,,,,,,,,,,,,,,,,,,
216061,001,2022-11-21_01h55.02.447,Info_measure_main_exp,2022.2.2,Win32,143.9263097,,,,,,,,,,,,,,,,,,,,,,,,,,,,,,6,0.6178,1,,,,,,,,,,,,0,131,5,5,2274,2142,absent_patch/patch0002274.jpg,absent_patch/patch0002142.jpg,,,,,,,,,,,,,,,,,,,,0.150781421,0.031585598,1,0,0,response1disk,33,-0.002888301,-0.008220382,1,0,0,center_square,0,32,32,75,1,,,,,,,,,,,,,,,,,,,,,,,
216061,001,2022-11-21_01h55.02.447,Info_measure_main_exp,2022.2.2,Win32,143.9263097,,,,,,,,,,,,,,,,,,masks/mask_003.jpg,,,,,,,,,,,,,,,,,,,,,,,,,,,,,,,,,,,,,,,,,,,0,0,0,2,1,,,,,,,,,,,,,,,,,,,,,,,,,,,,,,,,,,,,,,,,,,,,,,
216061,001,2022-11-21_01h55.02.447,Info_measure_main_exp,2022.2.2,Win32,143.9263097,,,,,,,,,,,,,,,,,,masks/mask_005.jpg,,,,,,,,,,,,,,,,,,,,,,,,,,,,,,,,,,,,,,,,,,,0,1,1,4,1,,,,,,,,,,,,,,,,,,,,,,,,,,,,,,,,,,,,,,,,,,,,,,
216061,001,2022-11-21_01h55.02.447,Info_measure_main_exp,2022.2.2,Win32,143.9263097,,,,,,,,,,,,,,,,,,masks/mask_004.jpg,,,,,,,,,,,,,,,,,,,,,,,,,,,,,,,,,,,,,,,,,,,0,2,2,3,1,,,,,,,,,,,,,,,,,,,,,,,,,,,,,,,,,,,,,,,,,,,,,,
216061,001,2022-11-21_01h55.02.447,Info_measure_main_exp,2022.2.2,Win32,143.9263097,,,,,,,,,,,,,,,,,,masks/mask_002.jpg,,,,,,,,,,,,,,,,,,,,,,,,,,,,,,,,,,,,,,,,,,,0,3,3,1,1,,,,,,,,,,,,,,,,,,,,,,,,,,,,,,,,,,,,,,,,,,,,,,
216061,001,2022-11-21_01h55.02.447,Info_measure_main_exp,2022.2.2,Win32,143.9263097,,,,,,,,,,,,,,,,,,masks/mask_001.jpg,,,,,,,,,,,,,,,,,,,,,,,,,,,,,,,,,,,,,,,,,,,0,4,4,0,1,,,,,,,,,,,,,,,,,,,,,,,,,,,,,,,,,,,,,,,,,,,,,,
216061,001,2022-11-21_01h55.02.447,Info_measure_main_exp,2022.2.2,Win32,143.9263097,,,,,,,,,,,,,,,,,,masks/mask_004.jpg,,,,,,,,,,,,,,,,,,,,,,,,,,,,,,,,,,,,,,,,,,,,,,,,0,0,0,3,1,,,,,,,,,,,,,,,,,,,,,,,,,,,,,,,,,,,,,,,,,
216061,001,2022-11-21_01h55.02.447,Info_measure_main_exp,2022.2.2,Win32,143.9263097,,,,,,,,,,,,,,,,,,masks/mask_003.jpg,,,,,,,,,,,,,,,,,,,,,,,,,,,,,,,,,,,,,,,,,,,,,,,,0,1,1,2,1,,,,,,,,,,,,,,,,,,,,,,,,,,,,,,,,,,,,,,,,,
216061,001,2022-11-21_01h55.02.447,Info_measure_main_exp,2022.2.2,Win32,143.9263097,,,,,,,,,,,,,,,,,,masks/mask_005.jpg,,,,,,,,,,,,,,,,,,,,,,,,,,,,,,,,,,,,,,,,,,,,,,,,0,2,2,4,1,,,,,,,,,,,,,,,,,,,,,,,,,,,,,,,,,,,,,,,,,
216061,001,2022-11-21_01h55.02.447,Info_measure_main_exp,2022.2.2,Win32,143.9263097,,,,,,,,,,,,,,,,,,masks/mask_001.jpg,,,,,,,,,,,,,,,,,,,,,,,,,,,,,,,,,,,,,,,,,,,,,,,,0,3,3,0,1,,,,,,,,,,,,,,,,,,,,,,,,,,,,,,,,,,,,,,,,,
216061,001,2022-11-21_01h55.02.447,Info_measure_main_exp,2022.2.2,Win32,143.9263097,,,,,,,,,,,,,,,,,,masks/mask_002.jpg,,,,,,,,,,,,,,,,,,,,,,,,,,,,,,,,,,,,,,,,,,,,,,,,0,4,4,1,1,,,,,,,,,,,,,,,,,,,,,,,,,,,,,,,,,,,,,,,,,
216061,001,2022-11-21_01h55.02.447,Info_measure_main_exp,2022.2.2,Win32,143.9263097,,,,,,,,,,,,,,,,,,,,,,,,,,,,,,6,0.5485,1,,,,,,,,,,,,0,131,5,5,2238,2166,absent_patch/patch0002238.jpg,absent_patch/patch0002166.jpg,,,,,,,,,,,,,,,,,,,,0.146152716,0.046397113,1,0,0,response1disk,34,-0.012145427,-0.001740356,1,0,0,center_square,0,33,33,118,1,,,,,,,,,,,,,,,,,,,,,,,
216061,001,2022-11-21_01h55.02.447,Info_measure_main_exp,2022.2.2,Win32,143.9263097,,,,,,,,,,,,,,,,,,masks/mask_005.jpg,,,,,,,,,,,,,,,,,,,,,,,,,,,,,,,,,,,,,,,,,,,0,0,0,4,1,,,,,,,,,,,,,,,,,,,,,,,,,,,,,,,,,,,,,,,,,,,,,,
216061,001,2022-11-21_01h55.02.447,Info_measure_main_exp,2022.2.2,Win32,143.9263097,,,,,,,,,,,,,,,,,,masks/mask_001.jpg,,,,,,,,,,,,,,,,,,,,,,,,,,,,,,,,,,,,,,,,,,,0,1,1,0,1,,,,,,,,,,,,,,,,,,,,,,,,,,,,,,,,,,,,,,,,,,,,,,
216061,001,2022-11-21_01h55.02.447,Info_measure_main_exp,2022.2.2,Win32,143.9263097,,,,,,,,,,,,,,,,,,masks/mask_004.jpg,,,,,,,,,,,,,,,,,,,,,,,,,,,,,,,,,,,,,,,,,,,0,2,2,3,1,,,,,,,,,,,,,,,,,,,,,,,,,,,,,,,,,,,,,,,,,,,,,,
216061,001,2022-11-21_01h55.02.447,Info_measure_main_exp,2022.2.2,Win32,143.9263097,,,,,,,,,,,,,,,,,,masks/mask_002.jpg,,,,,,,,,,,,,,,,,,,,,,,,,,,,,,,,,,,,,,,,,,,0,3,3,1,1,,,,,,,,,,,,,,,,,,,,,,,,,,,,,,,,,,,,,,,,,,,,,,
216061,001,2022-11-21_01h55.02.447,Info_measure_main_exp,2022.2.2,Win32,143.9263097,,,,,,,,,,,,,,,,,,masks/mask_003.jpg,,,,,,,,,,,,,,,,,,,,,,,,,,,,,,,,,,,,,,,,,,,0,4,4,2,1,,,,,,,,,,,,,,,,,,,,,,,,,,,,,,,,,,,,,,,,,,,,,,
216061,001,2022-11-21_01h55.02.447,Info_measure_main_exp,2022.2.2,Win32,143.9263097,,,,,,,,,,,,,,,,,,masks/mask_005.jpg,,,,,,,,,,,,,,,,,,,,,,,,,,,,,,,,,,,,,,,,,,,,,,,,0,0,0,4,1,,,,,,,,,,,,,,,,,,,,,,,,,,,,,,,,,,,,,,,,,
216061,001,2022-11-21_01h55.02.447,Info_measure_main_exp,2022.2.2,Win32,143.9263097,,,,,,,,,,,,,,,,,,masks/mask_001.jpg,,,,,,,,,,,,,,,,,,,,,,,,,,,,,,,,,,,,,,,,,,,,,,,,0,1,1,0,1,,,,,,,,,,,,,,,,,,,,,,,,,,,,,,,,,,,,,,,,,
216061,001,2022-11-21_01h55.02.447,Info_measure_main_exp,2022.2.2,Win32,143.9263097,,,,,,,,,,,,,,,,,,masks/mask_003.jpg,,,,,,,,,,,,,,,,,,,,,,,,,,,,,,,,,,,,,,,,,,,,,,,,0,2,2,2,1,,,,,,,,,,,,,,,,,,,,,,,,,,,,,,,,,,,,,,,,,
216061,001,2022-11-21_01h55.02.447,Info_measure_main_exp,2022.2.2,Win32,143.9263097,,,,,,,,,,,,,,,,,,masks/mask_004.jpg,,,,,,,,,,,,,,,,,,,,,,,,,,,,,,,,,,,,,,,,,,,,,,,,0,3,3,3,1,,,,,,,,,,,,,,,,,,,,,,,,,,,,,,,,,,,,,,,,,
