participant,session,date,expName,psychopyVersion,OS,frameRate,space_press_continue.keys,space_press_continue.rt,space_press_continue_2.keys,space_press_continue_2.rt,space_press_continue_3.keys,space_press_continue_3.rt,space_press_continue_4.keys,space_press_continue_4.rt,space_press_continue_5.keys,space_press_continue_5.rt,space_press_continue_6.keys,space_press_continue_6.rt,prac_mask_loop_1.thisRepN,prac_mask_loop_1.thisTrialN,prac_mask_loop_1.thisN,prac_mask_loop_1.thisIndex,prac_mask_loop_1.ran,mask_name,prac_mask_loop_2.thisRepN,prac_mask_loop_2.thisTrialN,prac_mask_loop_2.thisN,prac_mask_loop_2.thisIndex,prac_mask_loop_2.ran,mouse_2.x,mouse_2.y,mouse_2.leftButton,mouse_2.midButton,mouse_2.rightButton,mouse_2.clicked_name,similarity,response_time,Pass,mouse_12.x,mouse_12.y,mouse_12.leftButton,mouse_12.midButton,mouse_12.rightButton,mouse_12.clicked_name,prac_loop.thisRepN,prac_loop.thisTrialN,prac_loop.thisN,prac_loop.thisIndex,prac_loop.ran,Pair_type,Image_num,Patch_1_loc,Patch_2_loc,Patch_1_info,Patch_2_info,Patch_1_name,Patch_2_name,mouse_1.x,mouse_1.y,mouse_1.leftButton,mouse_1.midButton,mouse_1.rightButton,mouse_1.time,mouse_1.clicked_name,space_press_continue_7.keys,space_press_continue_7.rt,mask_loop.thisRepN,mask_loop.thisTrialN,mask_loop.thisN,mask_loop.thisIndex,mask_loop.ran,mask_loop_2.thisRepN,mask_loop_2.thisTrialN,mask_loop_2.thisN,mask_loop_2.thisIndex,mask_loop_2.ran,mouse.x,mouse.y,mouse.leftButton,mouse.midButton,mouse.rightButton,mouse.clicked_name,trialNumber,mouse_11.x,mouse_11.y,mouse_11.leftButton,mouse_11.midButton,mouse_11.rightButton,mouse_11.clicked_name,first_pass_loop.thisRepN,first_pass_loop.thisTrialN,first_pass_loop.thisN,first_pass_loop.thisIndex,first_pass_loop.ran,mask_loop_3.thisRepN,mask_loop_3.thisTrialN,mask_loop_3.thisN,mask_loop_3.thisIndex,mask_loop_3.ran,mask_loop_4.thisRepN,mask_loop_4.thisTrialN,mask_loop_4.thisN,mask_loop_4.thisIndex,mask_loop_4.ran,mouse_3.x,mouse_3.y,mouse_3.leftButton,mouse_3.midButton,mouse_3.rightButton,mouse_3.clicked_name,double_pass_loop.thisRepN,double_pass_loop.thisTrialN,double_pass_loop.thisN,double_pass_loop.thisIndex,double_pass_loop.ran,space_exit.keys,space_exit.rt
220785,001,2022-11-20_17h52.16.956,Info_measure_main_exp,2022.2.2,Win32,143.2664756,,,,,,,,,,,,,,,,,,,,,,,,,,,,,,,,,,,,,,,,,,,,,,,,,,,,,,,,,,,,,,,,,,,,,,,,,,,,,,,,,,,,,,,,,,,,,,,,,,,,,,,,,,,,,,,
220785,001,2022-11-20_17h52.16.956,Info_measure_main_exp,2022.2.2,Win32,143.2664756,,,,,,,,,,,,,,,,,,,,,,,,,,,,,,,,,,,,,,,,,,,,,,,,,,,,,,,,,,,,,,,,,,,,,,,,,,,,,,,,,,,,,,,,,,,,,,,,,,,,,,,,,,,,,,,
220785,001,2022-11-20_17h52.16.956,Info_measure_main_exp,2022.2.2,Win32,143.2664756,space,41.5509,,,,,,,,,,,,,,,,,,,,,,,,,,,,,,,,,,,,,,,,,,,,,,,,,,,,,,,,,,,,,,,,,,,,,,,,,,,,,,,,,,,,,,,,,,,,,,,,,,,,,,,,,,,,,
220785,001,2022-11-20_17h52.16.956,Info_measure_main_exp,2022.2.2,Win32,143.2664756,,,space,132.6638,,,,,,,,,,,,,,,,,,,,,,,,,,,,,,,,,,,,,,,,,,,,,,,,,,,,,,,,,,,,,,,,,,,,,,,,,,,,,,,,,,,,,,,,,,,,,,,,,,,,,,,,,,,
220785,001,2022-11-20_17h52.16.956,Info_measure_main_exp,2022.2.2,Win32,143.2664756,,,,,space,84.8621,,,,,,,,,,,,,,,,,,,,,,,,,,,,,,,,,,,,,,,,,,,,,,,,,,,,,,,,,,,,,,,,,,,,,,,,,,,,,,,,,,,,,,,,,,,,,,,,,,,,,,,,,
220785,001,2022-11-20_17h52.16.956,Info_measure_main_exp,2022.2.2,Win32,143.2664756,,,,,,,space,48.9483,,,,,,,,,,,,,,,,,,,,,,,,,,,,,,,,,,,,,,,,,,,,,,,,,,,,,,,,,,,,,,,,,,,,,,,,,,,,,,,,,,,,,,,,,,,,,,,,,,,,,,,
220785,001,2022-11-20_17h52.16.956,Info_measure_main_exp,2022.2.2,Win32,143.2664756,,,,,,,,,space,9.731,,,,,,,,,,,,,,,,,,,,,,,,,,,,,,,,,,,,,,,,,,,,,,,,,,,,,,,,,,,,,,,,,,,,,,,,,,,,,,,,,,,,,,,,,,,,,,,,,,,,,
220785,001,2022-11-20_17h52.16.956,Info_measure_main_exp,2022.2.2,Win32,143.2664756,,,,,,,,,,,space,7.6221,,,,,,,,,,,,,,,,,,,,,,,,,,,,,,,,,,,,,,,,,,,,,,,,,,,,,,,,,,,,,,,,,,,,,,,,,,,,,,,,,,,,,,,,,,,,,,,,,,,
220785,001,2022-11-20_17h52.16.956,Info_measure_main_exp,2022.2.2,Win32,143.2664756,,,,,,,,,,,,,0,0,0,0,1,masks/mask_001.jpg,,,,,,,,,,,,,,,,,,,,,,,,,,,,,,,,,,,,,,,,,,,,,,,,,,,,,,,,,,,,,,,,,,,,,,,,,,,,,,,,,,,,,,,,,,,,,
220785,001,2022-11-20_17h52.16.956,Info_measure_main_exp,2022.2.2,Win32,143.2664756,,,,,,,,,,,,,0,1,1,1,1,masks/mask_002.jpg,,,,,,,,,,,,,,,,,,,,,,,,,,,,,,,,,,,,,,,,,,,,,,,,,,,,,,,,,,,,,,,,,,,,,,,,,,,,,,,,,,,,,,,,,,,,,
220785,001,2022-11-20_17h52.16.956,Info_measure_main_exp,2022.2.2,Win32,143.2664756,,,,,,,,,,,,,0,2,2,2,1,masks/mask_003.jpg,,,,,,,,,,,,,,,,,,,,,,,,,,,,,,,,,,,,,,,,,,,,,,,,,,,,,,,,,,,,,,,,,,,,,,,,,,,,,,,,,,,,,,,,,,,,,
220785,001,2022-11-20_17h52.16.956,Info_measure_main_exp,2022.2.2,Win32,143.2664756,,,,,,,,,,,,,0,3,3,4,1,masks/mask_005.jpg,,,,,,,,,,,,,,,,,,,,,,,,,,,,,,,,,,,,,,,,,,,,,,,,,,,,,,,,,,,,,,,,,,,,,,,,,,,,,,,,,,,,,,,,,,,,,
220785,001,2022-11-20_17h52.16.956,Info_measure_main_exp,2022.2.2,Win32,143.2664756,,,,,,,,,,,,,0,4,4,3,1,masks/mask_004.jpg,,,,,,,,,,,,,,,,,,,,,,,,,,,,,,,,,,,,,,,,,,,,,,,,,,,,,,,,,,,,,,,,,,,,,,,,,,,,,,,,,,,,,,,,,,,,,
220785,001,2022-11-20_17h52.16.956,Info_measure_main_exp,2022.2.2,Win32,143.2664756,,,,,,,,,,,,,,,,,,masks/mask_004.jpg,0,0,0,3,1,,,,,,,,,,,,,,,,,,,,,,,,,,,,,,,,,,,,,,,,,,,,,,,,,,,,,,,,,,,,,,,,,,,,,,,,,,,,,,,,,,,,,,,,
220785,001,2022-11-20_17h52.16.956,Info_measure_main_exp,2022.2.2,Win32,143.2664756,,,,,,,,,,,,,,,,,,masks/mask_002.jpg,0,1,1,1,1,,,,,,,,,,,,,,,,,,,,,,,,,,,,,,,,,,,,,,,,,,,,,,,,,,,,,,,,,,,,,,,,,,,,,,,,,,,,,,,,,,,,,,,,
220785,001,2022-11-20_17h52.16.956,Info_measure_main_exp,2022.2.2,Win32,143.2664756,,,,,,,,,,,,,,,,,,masks/mask_003.jpg,0,2,2,2,1,,,,,,,,,,,,,,,,,,,,,,,,,,,,,,,,,,,,,,,,,,,,,,,,,,,,,,,,,,,,,,,,,,,,,,,,,,,,,,,,,,,,,,,,
220785,001,2022-11-20_17h52.16.956,Info_measure_main_exp,2022.2.2,Win32,143.2664756,,,,,,,,,,,,,,,,,,masks/mask_001.jpg,0,3,3,0,1,,,,,,,,,,,,,,,,,,,,,,,,,,,,,,,,,,,,,,,,,,,,,,,,,,,,,,,,,,,,,,,,,,,,,,,,,,,,,,,,,,,,,,,,
220785,001,2022-11-20_17h52.16.956,Info_measure_main_exp,2022.2.2,Win32,143.2664756,,,,,,,,,,,,,,,,,,masks/mask_005.jpg,0,4,4,4,1,,,,,,,,,,,,,,,,,,,,,,,,,,,,,,,,,,,,,,,,,,,,,,,,,,,,,,,,,,,,,,,,,,,,,,,,,,,,,,,,,,,,,,,,
220785,001,2022-11-20_17h52.16.956,Info_measure_main_exp,2022.2.2,Win32,143.2664756,,,,,,,,,,,,,,,,,,,,,,,,-0.131481481,0.061111111,1,0,0,response7disk,1,335.5497,1,-0.007407407,0.003703704,1,0,0,center_square,0,0,0,0,1,0,131,5,5,2370,2406,prac_patch/patch0002370.jpg,prac_patch/patch0002406.jpg,,,,,,,,,,,,,,,,,,,,,,,,,,,,,,,,,,,,,,,,,,,,,,,,,,,,,,,,,,,,
220785,001,2022-11-20_17h52.16.956,Info_measure_main_exp,2022.2.2,Win32,143.2664756,,,,,,,,,,,,,0,0,0,1,1,masks/mask_002.jpg,,,,,,,,,,,,,,,,,,,,,,,,,,,,,,,,,,,,,,,,,,,,,,,,,,,,,,,,,,,,,,,,,,,,,,,,,,,,,,,,,,,,,,,,,,,,,
220785,001,2022-11-20_17h52.16.956,Info_measure_main_exp,2022.2.2,Win32,143.2664756,,,,,,,,,,,,,0,1,1,2,1,masks/mask_003.jpg,,,,,,,,,,,,,,,,,,,,,,,,,,,,,,,,,,,,,,,,,,,,,,,,,,,,,,,,,,,,,,,,,,,,,,,,,,,,,,,,,,,,,,,,,,,,,
220785,001,2022-11-20_17h52.16.956,Info_measure_main_exp,2022.2.2,Win32,143.2664756,,,,,,,,,,,,,0,2,2,4,1,masks/mask_005.jpg,,,,,,,,,,,,,,,,,,,,,,,,,,,,,,,,,,,,,,,,,,,,,,,,,,,,,,,,,,,,,,,,,,,,,,,,,,,,,,,,,,,,,,,,,,,,,
220785,001,2022-11-20_17h52.16.956,Info_measure_main_exp,2022.2.2,Win32,143.2664756,,,,,,,,,,,,,0,3,3,0,1,masks/mask_001.jpg,,,,,,,,,,,,,,,,,,,,,,,,,,,,,,,,,,,,,,,,,,,,,,,,,,,,,,,,,,,,,,,,,,,,,,,,,,,,,,,,,,,,,,,,,,,,,
220785,001,2022-11-20_17h52.16.956,Info_measure_main_exp,2022.2.2,Win32,143.2664756,,,,,,,,,,,,,0,4,4,3,1,masks/mask_004.jpg,,,,,,,,,,,,,,,,,,,,,,,,,,,,,,,,,,,,,,,,,,,,,,,,,,,,,,,,,,,,,,,,,,,,,,,,,,,,,,,,,,,,,,,,,,,,,
220785,001,2022-11-20_17h52.16.956,Info_measure_main_exp,2022.2.2,Win32,143.2664756,,,,,,,,,,,,,,,,,,masks/mask_002.jpg,0,0,0,1,1,,,,,,,,,,,,,,,,,,,,,,,,,,,,,,,,,,,,,,,,,,,,,,,,,,,,,,,,,,,,,,,,,,,,,,,,,,,,,,,,,,,,,,,,
220785,001,2022-11-20_17h52.16.956,Info_measure_main_exp,2022.2.2,Win32,143.2664756,,,,,,,,,,,,,,,,,,masks/mask_005.jpg,0,1,1,4,1,,,,,,,,,,,,,,,,,,,,,,,,,,,,,,,,,,,,,,,,,,,,,,,,,,,,,,,,,,,,,,,,,,,,,,,,,,,,,,,,,,,,,,,,
220785,001,2022-11-20_17h52.16.956,Info_measure_main_exp,2022.2.2,Win32,143.2664756,,,,,,,,,,,,,,,,,,masks/mask_004.jpg,0,2,2,3,1,,,,,,,,,,,,,,,,,,,,,,,,,,,,,,,,,,,,,,,,,,,,,,,,,,,,,,,,,,,,,,,,,,,,,,,,,,,,,,,,,,,,,,,,
220785,001,2022-11-20_17h52.16.956,Info_measure_main_exp,2022.2.2,Win32,143.2664756,,,,,,,,,,,,,,,,,,masks/mask_001.jpg,0,3,3,0,1,,,,,,,,,,,,,,,,,,,,,,,,,,,,,,,,,,,,,,,,,,,,,,,,,,,,,,,,,,,,,,,,,,,,,,,,,,,,,,,,,,,,,,,,
220785,001,2022-11-20_17h52.16.956,Info_measure_main_exp,2022.2.2,Win32,143.2664756,,,,,,,,,,,,,,,,,,masks/mask_003.jpg,0,4,4,2,1,,,,,,,,,,,,,,,,,,,,,,,,,,,,,,,,,,,,,,,,,,,,,,,,,,,,,,,,,,,,,,,,,,,,,,,,,,,,,,,,,,,,,,,,
220785,001,2022-11-20_17h52.16.956,Info_measure_main_exp,2022.2.2,Win32,143.2664756,,,,,,,,,,,,,,,,,,,,,,,,0.078703704,0.016666667,1,0,0,response1disk,6,360.1042,1,-0.000925926,0.002777778,1,0,0,center_square,0,1,1,1,1,0,131,5,5,2514,2490,prac_patch/patch0002514.jpg,prac_patch/patch0002490.jpg,,,,,,,,,,,,,,,,,,,,,,,,,,,,,,,,,,,,,,,,,,,,,,,,,,,,,,,,,,,,
220785,001,2022-11-20_17h52.16.956,Info_measure_main_exp,2022.2.2,Win32,143.2664756,,,,,,,,,,,,,0,0,0,2,1,masks/mask_003.jpg,,,,,,,,,,,,,,,,,,,,,,,,,,,,,,,,,,,,,,,,,,,,,,,,,,,,,,,,,,,,,,,,,,,,,,,,,,,,,,,,,,,,,,,,,,,,,
220785,001,2022-11-20_17h52.16.956,Info_measure_main_exp,2022.2.2,Win32,143.2664756,,,,,,,,,,,,,0,1,1,0,1,masks/mask_001.jpg,,,,,,,,,,,,,,,,,,,,,,,,,,,,,,,,,,,,,,,,,,,,,,,,,,,,,,,,,,,,,,,,,,,,,,,,,,,,,,,,,,,,,,,,,,,,,
220785,001,2022-11-20_17h52.16.956,Info_measure_main_exp,2022.2.2,Win32,143.2664756,,,,,,,,,,,,,0,2,2,1,1,masks/mask_002.jpg,,,,,,,,,,,,,,,,,,,,,,,,,,,,,,,,,,,,,,,,,,,,,,,,,,,,,,,,,,,,,,,,,,,,,,,,,,,,,,,,,,,,,,,,,,,,,
220785,001,2022-11-20_17h52.16.956,Info_measure_main_exp,2022.2.2,Win32,143.2664756,,,,,,,,,,,,,0,3,3,3,1,masks/mask_004.jpg,,,,,,,,,,,,,,,,,,,,,,,,,,,,,,,,,,,,,,,,,,,,,,,,,,,,,,,,,,,,,,,,,,,,,,,,,,,,,,,,,,,,,,,,,,,,,
220785,001,2022-11-20_17h52.16.956,Info_measure_main_exp,2022.2.2,Win32,143.2664756,,,,,,,,,,,,,0,4,4,4,1,masks/mask_005.jpg,,,,,,,,,,,,,,,,,,,,,,,,,,,,,,,,,,,,,,,,,,,,,,,,,,,,,,,,,,,,,,,,,,,,,,,,,,,,,,,,,,,,,,,,,,,,,
220785,001,2022-11-20_17h52.16.956,Info_measure_main_exp,2022.2.2,Win32,143.2664756,,,,,,,,,,,,,,,,,,masks/mask_005.jpg,0,0,0,4,1,,,,,,,,,,,,,,,,,,,,,,,,,,,,,,,,,,,,,,,,,,,,,,,,,,,,,,,,,,,,,,,,,,,,,,,,,,,,,,,,,,,,,,,,
220785,001,2022-11-20_17h52.16.956,Info_measure_main_exp,2022.2.2,Win32,143.2664756,,,,,,,,,,,,,,,,,,masks/mask_004.jpg,0,1,1,3,1,,,,,,,,,,,,,,,,,,,,,,,,,,,,,,,,,,,,,,,,,,,,,,,,,,,,,,,,,,,,,,,,,,,,,,,,,,,,,,,,,,,,,,,,
220785,001,2022-11-20_17h52.16.956,Info_measure_main_exp,2022.2.2,Win32,143.2664756,,,,,,,,,,,,,,,,,,masks/mask_003.jpg,0,2,2,2,1,,,,,,,,,,,,,,,,,,,,,,,,,,,,,,,,,,,,,,,,,,,,,,,,,,,,,,,,,,,,,,,,,,,,,,,,,,,,,,,,,,,,,,,,
220785,001,2022-11-20_17h52.16.956,Info_measure_main_exp,2022.2.2,Win32,143.2664756,,,,,,,,,,,,,,,,,,masks/mask_002.jpg,0,3,3,1,1,,,,,,,,,,,,,,,,,,,,,,,,,,,,,,,,,,,,,,,,,,,,,,,,,,,,,,,,,,,,,,,,,,,,,,,,,,,,,,,,,,,,,,,,
220785,001,2022-11-20_17h52.16.956,Info_measure_main_exp,2022.2.2,Win32,143.2664756,,,,,,,,,,,,,,,,,,masks/mask_001.jpg,0,4,4,0,1,,,,,,,,,,,,,,,,,,,,,,,,,,,,,,,,,,,,,,,,,,,,,,,,,,,,,,,,,,,,,,,,,,,,,,,,,,,,,,,,,,,,,,,,
220785,001,2022-11-20_17h52.16.956,Info_measure_main_exp,2022.2.2,Win32,143.2664756,,,,,,,,,,,,,,,,,,,,,,,,0.041666667,-0.131481481,1,0,0,response3disk,4,378.4693,1,0.001851852,0.007407407,1,0,0,center_square,0,2,2,2,1,0,131,5,5,2526,2526,prac_patch/patch0002526.jpg,prac_patch/patch0002526.jpg,,,,,,,,,,,,,,,,,,,,,,,,,,,,,,,,,,,,,,,,,,,,,,,,,,,,,,,,,,,,
220785,001,2022-11-20_17h52.16.956,Info_measure_main_exp,2022.2.2,Win32,143.2664756,,,,,,,,,,,,,,,,,,,,,,,,,,,,,,,,,,,,,,,,,,,,,,,,,,,,,,,,,,,space,15.6492,,,,,,,,,,,,,,,,,,,,,,,,,,,,,,,,,,,,,,,,,,,,,,,,,,,
220785,001,2022-11-20_17h52.16.956,Info_measure_main_exp,2022.2.2,Win32,143.2664756,,,,,,,,,,,,,,,,,,masks/mask_004.jpg,,,,,,,,,,,,,,,,,,,,,,,,,,,,,,,,,,,,,,,,,,,0,0,0,3,1,,,,,,,,,,,,,,,,,,,,,,,,,,,,,,,,,,,,,,,,,,,,,,
220785,001,2022-11-20_17h52.16.956,Info_measure_main_exp,2022.2.2,Win32,143.2664756,,,,,,,,,,,,,,,,,,masks/mask_003.jpg,,,,,,,,,,,,,,,,,,,,,,,,,,,,,,,,,,,,,,,,,,,0,1,1,2,1,,,,,,,,,,,,,,,,,,,,,,,,,,,,,,,,,,,,,,,,,,,,,,
220785,001,2022-11-20_17h52.16.956,Info_measure_main_exp,2022.2.2,Win32,143.2664756,,,,,,,,,,,,,,,,,,masks/mask_005.jpg,,,,,,,,,,,,,,,,,,,,,,,,,,,,,,,,,,,,,,,,,,,0,2,2,4,1,,,,,,,,,,,,,,,,,,,,,,,,,,,,,,,,,,,,,,,,,,,,,,
220785,001,2022-11-20_17h52.16.956,Info_measure_main_exp,2022.2.2,Win32,143.2664756,,,,,,,,,,,,,,,,,,masks/mask_002.jpg,,,,,,,,,,,,,,,,,,,,,,,,,,,,,,,,,,,,,,,,,,,0,3,3,1,1,,,,,,,,,,,,,,,,,,,,,,,,,,,,,,,,,,,,,,,,,,,,,,
220785,001,2022-11-20_17h52.16.956,Info_measure_main_exp,2022.2.2,Win32,143.2664756,,,,,,,,,,,,,,,,,,masks/mask_001.jpg,,,,,,,,,,,,,,,,,,,,,,,,,,,,,,,,,,,,,,,,,,,0,4,4,0,1,,,,,,,,,,,,,,,,,,,,,,,,,,,,,,,,,,,,,,,,,,,,,,
220785,001,2022-11-20_17h52.16.956,Info_measure_main_exp,2022.2.2,Win32,143.2664756,,,,,,,,,,,,,,,,,,masks/mask_003.jpg,,,,,,,,,,,,,,,,,,,,,,,,,,,,,,,,,,,,,,,,,,,,,,,,0,0,0,2,1,,,,,,,,,,,,,,,,,,,,,,,,,,,,,,,,,,,,,,,,,
220785,001,2022-11-20_17h52.16.956,Info_measure_main_exp,2022.2.2,Win32,143.2664756,,,,,,,,,,,,,,,,,,masks/mask_004.jpg,,,,,,,,,,,,,,,,,,,,,,,,,,,,,,,,,,,,,,,,,,,,,,,,0,1,1,3,1,,,,,,,,,,,,,,,,,,,,,,,,,,,,,,,,,,,,,,,,,
220785,001,2022-11-20_17h52.16.956,Info_measure_main_exp,2022.2.2,Win32,143.2664756,,,,,,,,,,,,,,,,,,masks/mask_002.jpg,,,,,,,,,,,,,,,,,,,,,,,,,,,,,,,,,,,,,,,,,,,,,,,,0,2,2,1,1,,,,,,,,,,,,,,,,,,,,,,,,,,,,,,,,,,,,,,,,,
220785,001,2022-11-20_17h52.16.956,Info_measure_main_exp,2022.2.2,Win32,143.2664756,,,,,,,,,,,,,,,,,,masks/mask_005.jpg,,,,,,,,,,,,,,,,,,,,,,,,,,,,,,,,,,,,,,,,,,,,,,,,0,3,3,4,1,,,,,,,,,,,,,,,,,,,,,,,,,,,,,,,,,,,,,,,,,
220785,001,2022-11-20_17h52.16.956,Info_measure_main_exp,2022.2.2,Win32,143.2664756,,,,,,,,,,,,,,,,,,masks/mask_001.jpg,,,,,,,,,,,,,,,,,,,,,,,,,,,,,,,,,,,,,,,,,,,,,,,,0,4,4,0,1,,,,,,,,,,,,,,,,,,,,,,,,,,,,,,,,,,,,,,,,,
220785,001,2022-11-20_17h52.16.956,Info_measure_main_exp,2022.2.2,Win32,143.2664756,,,,,,,,,,,,,,,,,,,,,,,,,,,,,,7,1.7495,1,,,,,,,,,,,,0,131,5,5,1986,1950,absent_patch/patch0001986.jpg,absent_patch/patch0001950.jpg,,,,,,,,,,,,,,,,,,,,0.069444444,0.107407407,1,0,0,response1disk,1,0.007407407,0.010185185,1,0,0,center_square,0,0,0,15,1,,,,,,,,,,,,,,,,,,,,,,,
220785,001,2022-11-20_17h52.16.956,Info_measure_main_exp,2022.2.2,Win32,143.2664756,,,,,,,,,,,,,,,,,,masks/mask_005.jpg,,,,,,,,,,,,,,,,,,,,,,,,,,,,,,,,,,,,,,,,,,,0,0,0,4,1,,,,,,,,,,,,,,,,,,,,,,,,,,,,,,,,,,,,,,,,,,,,,,
220785,001,2022-11-20_17h52.16.956,Info_measure_main_exp,2022.2.2,Win32,143.2664756,,,,,,,,,,,,,,,,,,masks/mask_001.jpg,,,,,,,,,,,,,,,,,,,,,,,,,,,,,,,,,,,,,,,,,,,0,1,1,0,1,,,,,,,,,,,,,,,,,,,,,,,,,,,,,,,,,,,,,,,,,,,,,,
220785,001,2022-11-20_17h52.16.956,Info_measure_main_exp,2022.2.2,Win32,143.2664756,,,,,,,,,,,,,,,,,,masks/mask_002.jpg,,,,,,,,,,,,,,,,,,,,,,,,,,,,,,,,,,,,,,,,,,,0,2,2,1,1,,,,,,,,,,,,,,,,,,,,,,,,,,,,,,,,,,,,,,,,,,,,,,
220785,001,2022-11-20_17h52.16.956,Info_measure_main_exp,2022.2.2,Win32,143.2664756,,,,,,,,,,,,,,,,,,masks/mask_004.jpg,,,,,,,,,,,,,,,,,,,,,,,,,,,,,,,,,,,,,,,,,,,0,3,3,3,1,,,,,,,,,,,,,,,,,,,,,,,,,,,,,,,,,,,,,,,,,,,,,,
220785,001,2022-11-20_17h52.16.956,Info_measure_main_exp,2022.2.2,Win32,143.2664756,,,,,,,,,,,,,,,,,,masks/mask_003.jpg,,,,,,,,,,,,,,,,,,,,,,,,,,,,,,,,,,,,,,,,,,,0,4,4,2,1,,,,,,,,,,,,,,,,,,,,,,,,,,,,,,,,,,,,,,,,,,,,,,
220785,001,2022-11-20_17h52.16.956,Info_measure_main_exp,2022.2.2,Win32,143.2664756,,,,,,,,,,,,,,,,,,masks/mask_003.jpg,,,,,,,,,,,,,,,,,,,,,,,,,,,,,,,,,,,,,,,,,,,,,,,,0,0,0,2,1,,,,,,,,,,,,,,,,,,,,,,,,,,,,,,,,,,,,,,,,,
220785,001,2022-11-20_17h52.16.956,Info_measure_main_exp,2022.2.2,Win32,143.2664756,,,,,,,,,,,,,,,,,,masks/mask_004.jpg,,,,,,,,,,,,,,,,,,,,,,,,,,,,,,,,,,,,,,,,,,,,,,,,0,1,1,3,1,,,,,,,,,,,,,,,,,,,,,,,,,,,,,,,,,,,,,,,,,
220785,001,2022-11-20_17h52.16.956,Info_measure_main_exp,2022.2.2,Win32,143.2664756,,,,,,,,,,,,,,,,,,masks/mask_005.jpg,,,,,,,,,,,,,,,,,,,,,,,,,,,,,,,,,,,,,,,,,,,,,,,,0,2,2,4,1,,,,,,,,,,,,,,,,,,,,,,,,,,,,,,,,,,,,,,,,,
220785,001,2022-11-20_17h52.16.956,Info_measure_main_exp,2022.2.2,Win32,143.2664756,,,,,,,,,,,,,,,,,,masks/mask_001.jpg,,,,,,,,,,,,,,,,,,,,,,,,,,,,,,,,,,,,,,,,,,,,,,,,0,3,3,0,1,,,,,,,,,,,,,,,,,,,,,,,,,,,,,,,,,,,,,,,,,
220785,001,2022-11-20_17h52.16.956,Info_measure_main_exp,2022.2.2,Win32,143.2664756,,,,,,,,,,,,,,,,,,masks/mask_002.jpg,,,,,,,,,,,,,,,,,,,,,,,,,,,,,,,,,,,,,,,,,,,,,,,,0,4,4,1,1,,,,,,,,,,,,,,,,,,,,,,,,,,,,,,,,,,,,,,,,,
220785,001,2022-11-20_17h52.16.956,Info_measure_main_exp,2022.2.2,Win32,143.2664756,,,,,,,,,,,,,,,,,,,,,,,,,,,,,,5,2.7287,1,,,,,,,,,,,,0,131,5,5,2154,2238,absent_patch/patch0002154.jpg,absent_patch/patch0002238.jpg,,,,,,,,,,,,,,,,,,,,0.084259259,-0.030555556,1,0,0,response3disk,2,0,0,1,0,0,center_square,0,1,1,21,1,,,,,,,,,,,,,,,,,,,,,,,
220785,001,2022-11-20_17h52.16.956,Info_measure_main_exp,2022.2.2,Win32,143.2664756,,,,,,,,,,,,,,,,,,masks/mask_003.jpg,,,,,,,,,,,,,,,,,,,,,,,,,,,,,,,,,,,,,,,,,,,0,0,0,2,1,,,,,,,,,,,,,,,,,,,,,,,,,,,,,,,,,,,,,,,,,,,,,,
220785,001,2022-11-20_17h52.16.956,Info_measure_main_exp,2022.2.2,Win32,143.2664756,,,,,,,,,,,,,,,,,,masks/mask_002.jpg,,,,,,,,,,,,,,,,,,,,,,,,,,,,,,,,,,,,,,,,,,,0,1,1,1,1,,,,,,,,,,,,,,,,,,,,,,,,,,,,,,,,,,,,,,,,,,,,,,
220785,001,2022-11-20_17h52.16.956,Info_measure_main_exp,2022.2.2,Win32,143.2664756,,,,,,,,,,,,,,,,,,masks/mask_001.jpg,,,,,,,,,,,,,,,,,,,,,,,,,,,,,,,,,,,,,,,,,,,0,2,2,0,1,,,,,,,,,,,,,,,,,,,,,,,,,,,,,,,,,,,,,,,,,,,,,,
220785,001,2022-11-20_17h52.16.956,Info_measure_main_exp,2022.2.2,Win32,143.2664756,,,,,,,,,,,,,,,,,,masks/mask_004.jpg,,,,,,,,,,,,,,,,,,,,,,,,,,,,,,,,,,,,,,,,,,,0,3,3,3,1,,,,,,,,,,,,,,,,,,,,,,,,,,,,,,,,,,,,,,,,,,,,,,
220785,001,2022-11-20_17h52.16.956,Info_measure_main_exp,2022.2.2,Win32,143.2664756,,,,,,,,,,,,,,,,,,masks/mask_005.jpg,,,,,,,,,,,,,,,,,,,,,,,,,,,,,,,,,,,,,,,,,,,0,4,4,4,1,,,,,,,,,,,,,,,,,,,,,,,,,,,,,,,,,,,,,,,,,,,,,,
220785,001,2022-11-20_17h52.16.956,Info_measure_main_exp,2022.2.2,Win32,143.2664756,,,,,,,,,,,,,,,,,,masks/mask_003.jpg,,,,,,,,,,,,,,,,,,,,,,,,,,,,,,,,,,,,,,,,,,,,,,,,0,0,0,2,1,,,,,,,,,,,,,,,,,,,,,,,,,,,,,,,,,,,,,,,,,
220785,001,2022-11-20_17h52.16.956,Info_measure_main_exp,2022.2.2,Win32,143.2664756,,,,,,,,,,,,,,,,,,masks/mask_002.jpg,,,,,,,,,,,,,,,,,,,,,,,,,,,,,,,,,,,,,,,,,,,,,,,,0,1,1,1,1,,,,,,,,,,,,,,,,,,,,,,,,,,,,,,,,,,,,,,,,,
220785,001,2022-11-20_17h52.16.956,Info_measure_main_exp,2022.2.2,Win32,143.2664756,,,,,,,,,,,,,,,,,,masks/mask_005.jpg,,,,,,,,,,,,,,,,,,,,,,,,,,,,,,,,,,,,,,,,,,,,,,,,0,2,2,4,1,,,,,,,,,,,,,,,,,,,,,,,,,,,,,,,,,,,,,,,,,
220785,001,2022-11-20_17h52.16.956,Info_measure_main_exp,2022.2.2,Win32,143.2664756,,,,,,,,,,,,,,,,,,masks/mask_004.jpg,,,,,,,,,,,,,,,,,,,,,,,,,,,,,,,,,,,,,,,,,,,,,,,,0,3,3,3,1,,,,,,,,,,,,,,,,,,,,,,,,,,,,,,,,,,,,,,,,,
220785,001,2022-11-20_17h52.16.956,Info_measure_main_exp,2022.2.2,Win32,143.2664756,,,,,,,,,,,,,,,,,,masks/mask_001.jpg,,,,,,,,,,,,,,,,,,,,,,,,,,,,,,,,,,,,,,,,,,,,,,,,0,4,4,0,1,,,,,,,,,,,,,,,,,,,,,,,,,,,,,,,,,,,,,,,,,
220785,001,2022-11-20_17h52.16.956,Info_measure_main_exp,2022.2.2,Win32,143.2664756,,,,,,,,,,,,,,,,,,,,,,,,,,,,,,2,2.3954,1,,,,,,,,,,,,0,131,5,5,2082,2298,absent_patch/patch0002082.jpg,absent_patch/patch0002298.jpg,,,,,,,,,,,,,,,,,,,,-0.143518519,-0.05,1,0,0,response5disk,3,-0.002777778,-0.011111111,1,0,0,center_square,0,2,2,107,1,,,,,,,,,,,,,,,,,,,,,,,
220785,001,2022-11-20_17h52.16.956,Info_measure_main_exp,2022.2.2,Win32,143.2664756,,,,,,,,,,,,,,,,,,masks/mask_003.jpg,,,,,,,,,,,,,,,,,,,,,,,,,,,,,,,,,,,,,,,,,,,0,0,0,2,1,,,,,,,,,,,,,,,,,,,,,,,,,,,,,,,,,,,,,,,,,,,,,,
220785,001,2022-11-20_17h52.16.956,Info_measure_main_exp,2022.2.2,Win32,143.2664756,,,,,,,,,,,,,,,,,,masks/mask_005.jpg,,,,,,,,,,,,,,,,,,,,,,,,,,,,,,,,,,,,,,,,,,,0,1,1,4,1,,,,,,,,,,,,,,,,,,,,,,,,,,,,,,,,,,,,,,,,,,,,,,
220785,001,2022-11-20_17h52.16.956,Info_measure_main_exp,2022.2.2,Win32,143.2664756,,,,,,,,,,,,,,,,,,masks/mask_004.jpg,,,,,,,,,,,,,,,,,,,,,,,,,,,,,,,,,,,,,,,,,,,0,2,2,3,1,,,,,,,,,,,,,,,,,,,,,,,,,,,,,,,,,,,,,,,,,,,,,,
220785,001,2022-11-20_17h52.16.956,Info_measure_main_exp,2022.2.2,Win32,143.2664756,,,,,,,,,,,,,,,,,,masks/mask_002.jpg,,,,,,,,,,,,,,,,,,,,,,,,,,,,,,,,,,,,,,,,,,,0,3,3,1,1,,,,,,,,,,,,,,,,,,,,,,,,,,,,,,,,,,,,,,,,,,,,,,
220785,001,2022-11-20_17h52.16.956,Info_measure_main_exp,2022.2.2,Win32,143.2664756,,,,,,,,,,,,,,,,,,masks/mask_001.jpg,,,,,,,,,,,,,,,,,,,,,,,,,,,,,,,,,,,,,,,,,,,0,4,4,0,1,,,,,,,,,,,,,,,,,,,,,,,,,,,,,,,,,,,,,,,,,,,,,,
220785,001,2022-11-20_17h52.16.956,Info_measure_main_exp,2022.2.2,Win32,143.2664756,,,,,,,,,,,,,,,,,,masks/mask_004.jpg,,,,,,,,,,,,,,,,,,,,,,,,,,,,,,,,,,,,,,,,,,,,,,,,0,0,0,3,1,,,,,,,,,,,,,,,,,,,,,,,,,,,,,,,,,,,,,,,,,
220785,001,2022-11-20_17h52.16.956,Info_measure_main_exp,2022.2.2,Win32,143.2664756,,,,,,,,,,,,,,,,,,masks/mask_003.jpg,,,,,,,,,,,,,,,,,,,,,,,,,,,,,,,,,,,,,,,,,,,,,,,,0,1,1,2,1,,,,,,,,,,,,,,,,,,,,,,,,,,,,,,,,,,,,,,,,,
220785,001,2022-11-20_17h52.16.956,Info_measure_main_exp,2022.2.2,Win32,143.2664756,,,,,,,,,,,,,,,,,,masks/mask_002.jpg,,,,,,,,,,,,,,,,,,,,,,,,,,,,,,,,,,,,,,,,,,,,,,,,0,2,2,1,1,,,,,,,,,,,,,,,,,,,,,,,,,,,,,,,,,,,,,,,,,
220785,001,2022-11-20_17h52.16.956,Info_measure_main_exp,2022.2.2,Win32,143.2664756,,,,,,,,,,,,,,,,,,masks/mask_005.jpg,,,,,,,,,,,,,,,,,,,,,,,,,,,,,,,,,,,,,,,,,,,,,,,,0,3,3,4,1,,,,,,,,,,,,,,,,,,,,,,,,,,,,,,,,,,,,,,,,,
220785,001,2022-11-20_17h52.16.956,Info_measure_main_exp,2022.2.2,Win32,143.2664756,,,,,,,,,,,,,,,,,,masks/mask_001.jpg,,,,,,,,,,,,,,,,,,,,,,,,,,,,,,,,,,,,,,,,,,,,,,,,0,4,4,0,1,,,,,,,,,,,,,,,,,,,,,,,,,,,,,,,,,,,,,,,,,
220785,001,2022-11-20_17h52.16.956,Info_measure_main_exp,2022.2.2,Win32,143.2664756,,,,,,,,,,,,,,,,,,,,,,,,,,,,,,7,1.8534,1,,,,,,,,,,,,0,131,5,5,2082,1986,absent_patch/patch0002082.jpg,absent_patch/patch0001986.jpg,,,,,,,,,,,,,,,,,,,,0.051851852,0.093518519,1,0,0,response1disk,4,-0.001851852,0,1,0,0,center_square,0,3,3,94,1,,,,,,,,,,,,,,,,,,,,,,,
220785,001,2022-11-20_17h52.16.956,Info_measure_main_exp,2022.2.2,Win32,143.2664756,,,,,,,,,,,,,,,,,,masks/mask_003.jpg,,,,,,,,,,,,,,,,,,,,,,,,,,,,,,,,,,,,,,,,,,,0,0,0,2,1,,,,,,,,,,,,,,,,,,,,,,,,,,,,,,,,,,,,,,,,,,,,,,
220785,001,2022-11-20_17h52.16.956,Info_measure_main_exp,2022.2.2,Win32,143.2664756,,,,,,,,,,,,,,,,,,masks/mask_001.jpg,,,,,,,,,,,,,,,,,,,,,,,,,,,,,,,,,,,,,,,,,,,0,1,1,0,1,,,,,,,,,,,,,,,,,,,,,,,,,,,,,,,,,,,,,,,,,,,,,,
220785,001,2022-11-20_17h52.16.956,Info_measure_main_exp,2022.2.2,Win32,143.2664756,,,,,,,,,,,,,,,,,,masks/mask_005.jpg,,,,,,,,,,,,,,,,,,,,,,,,,,,,,,,,,,,,,,,,,,,0,2,2,4,1,,,,,,,,,,,,,,,,,,,,,,,,,,,,,,,,,,,,,,,,,,,,,,
220785,001,2022-11-20_17h52.16.956,Info_measure_main_exp,2022.2.2,Win32,143.2664756,,,,,,,,,,,,,,,,,,masks/mask_004.jpg,,,,,,,,,,,,,,,,,,,,,,,,,,,,,,,,,,,,,,,,,,,0,3,3,3,1,,,,,,,,,,,,,,,,,,,,,,,,,,,,,,,,,,,,,,,,,,,,,,
220785,001,2022-11-20_17h52.16.956,Info_measure_main_exp,2022.2.2,Win32,143.2664756,,,,,,,,,,,,,,,,,,masks/mask_002.jpg,,,,,,,,,,,,,,,,,,,,,,,,,,,,,,,,,,,,,,,,,,,0,4,4,1,1,,,,,,,,,,,,,,,,,,,,,,,,,,,,,,,,,,,,,,,,,,,,,,
220785,001,2022-11-20_17h52.16.956,Info_measure_main_exp,2022.2.2,Win32,143.2664756,,,,,,,,,,,,,,,,,,masks/mask_004.jpg,,,,,,,,,,,,,,,,,,,,,,,,,,,,,,,,,,,,,,,,,,,,,,,,0,0,0,3,1,,,,,,,,,,,,,,,,,,,,,,,,,,,,,,,,,,,,,,,,,
220785,001,2022-11-20_17h52.16.956,Info_measure_main_exp,2022.2.2,Win32,143.2664756,,,,,,,,,,,,,,,,,,masks/mask_003.jpg,,,,,,,,,,,,,,,,,,,,,,,,,,,,,,,,,,,,,,,,,,,,,,,,0,1,1,2,1,,,,,,,,,,,,,,,,,,,,,,,,,,,,,,,,,,,,,,,,,
220785,001,2022-11-20_17h52.16.956,Info_measure_main_exp,2022.2.2,Win32,143.2664756,,,,,,,,,,,,,,,,,,masks/mask_005.jpg,,,,,,,,,,,,,,,,,,,,,,,,,,,,,,,,,,,,,,,,,,,,,,,,0,2,2,4,1,,,,,,,,,,,,,,,,,,,,,,,,,,,,,,,,,,,,,,,,,
220785,001,2022-11-20_17h52.16.956,Info_measure_main_exp,2022.2.2,Win32,143.2664756,,,,,,,,,,,,,,,,,,masks/mask_001.jpg,,,,,,,,,,,,,,,,,,,,,,,,,,,,,,,,,,,,,,,,,,,,,,,,0,3,3,0,1,,,,,,,,,,,,,,,,,,,,,,,,,,,,,,,,,,,,,,,,,
220785,001,2022-11-20_17h52.16.956,Info_measure_main_exp,2022.2.2,Win32,143.2664756,,,,,,,,,,,,,,,,,,masks/mask_002.jpg,,,,,,,,,,,,,,,,,,,,,,,,,,,,,,,,,,,,,,,,,,,,,,,,0,4,4,1,1,,,,,,,,,,,,,,,,,,,,,,,,,,,,,,,,,,,,,,,,,
220785,001,2022-11-20_17h52.16.956,Info_measure_main_exp,2022.2.2,Win32,143.2664756,,,,,,,,,,,,,,,,,,,,,,,,,,,,,,5,1.986,1,,,,,,,,,,,,1,131,5,5,2250,1,absent_patch/patch0002250.jpg,present_patch/cong_131_5_a.jpg,,,,,,,,,,,,,,,,,,,,0.110185185,-0.04537037,1,0,0,response3disk,5,0.00462963,0,1,0,0,center_square,0,4,4,5,1,,,,,,,,,,,,,,,,,,,,,,,
220785,001,2022-11-20_17h52.16.956,Info_measure_main_exp,2022.2.2,Win32,143.2664756,,,,,,,,,,,,,,,,,,masks/mask_002.jpg,,,,,,,,,,,,,,,,,,,,,,,,,,,,,,,,,,,,,,,,,,,0,0,0,1,1,,,,,,,,,,,,,,,,,,,,,,,,,,,,,,,,,,,,,,,,,,,,,,
220785,001,2022-11-20_17h52.16.956,Info_measure_main_exp,2022.2.2,Win32,143.2664756,,,,,,,,,,,,,,,,,,masks/mask_005.jpg,,,,,,,,,,,,,,,,,,,,,,,,,,,,,,,,,,,,,,,,,,,0,1,1,4,1,,,,,,,,,,,,,,,,,,,,,,,,,,,,,,,,,,,,,,,,,,,,,,
220785,001,2022-11-20_17h52.16.956,Info_measure_main_exp,2022.2.2,Win32,143.2664756,,,,,,,,,,,,,,,,,,masks/mask_004.jpg,,,,,,,,,,,,,,,,,,,,,,,,,,,,,,,,,,,,,,,,,,,0,2,2,3,1,,,,,,,,,,,,,,,,,,,,,,,,,,,,,,,,,,,,,,,,,,,,,,
220785,001,2022-11-20_17h52.16.956,Info_measure_main_exp,2022.2.2,Win32,143.2664756,,,,,,,,,,,,,,,,,,masks/mask_001.jpg,,,,,,,,,,,,,,,,,,,,,,,,,,,,,,,,,,,,,,,,,,,0,3,3,0,1,,,,,,,,,,,,,,,,,,,,,,,,,,,,,,,,,,,,,,,,,,,,,,
220785,001,2022-11-20_17h52.16.956,Info_measure_main_exp,2022.2.2,Win32,143.2664756,,,,,,,,,,,,,,,,,,masks/mask_003.jpg,,,,,,,,,,,,,,,,,,,,,,,,,,,,,,,,,,,,,,,,,,,0,4,4,2,1,,,,,,,,,,,,,,,,,,,,,,,,,,,,,,,,,,,,,,,,,,,,,,
220785,001,2022-11-20_17h52.16.956,Info_measure_main_exp,2022.2.2,Win32,143.2664756,,,,,,,,,,,,,,,,,,masks/mask_005.jpg,,,,,,,,,,,,,,,,,,,,,,,,,,,,,,,,,,,,,,,,,,,,,,,,0,0,0,4,1,,,,,,,,,,,,,,,,,,,,,,,,,,,,,,,,,,,,,,,,,
220785,001,2022-11-20_17h52.16.956,Info_measure_main_exp,2022.2.2,Win32,143.2664756,,,,,,,,,,,,,,,,,,masks/mask_002.jpg,,,,,,,,,,,,,,,,,,,,,,,,,,,,,,,,,,,,,,,,,,,,,,,,0,1,1,1,1,,,,,,,,,,,,,,,,,,,,,,,,,,,,,,,,,,,,,,,,,
220785,001,2022-11-20_17h52.16.956,Info_measure_main_exp,2022.2.2,Win32,143.2664756,,,,,,,,,,,,,,,,,,masks/mask_003.jpg,,,,,,,,,,,,,,,,,,,,,,,,,,,,,,,,,,,,,,,,,,,,,,,,0,2,2,2,1,,,,,,,,,,,,,,,,,,,,,,,,,,,,,,,,,,,,,,,,,
220785,001,2022-11-20_17h52.16.956,Info_measure_main_exp,2022.2.2,Win32,143.2664756,,,,,,,,,,,,,,,,,,masks/mask_004.jpg,,,,,,,,,,,,,,,,,,,,,,,,,,,,,,,,,,,,,,,,,,,,,,,,0,3,3,3,1,,,,,,,,,,,,,,,,,,,,,,,,,,,,,,,,,,,,,,,,,
220785,001,2022-11-20_17h52.16.956,Info_measure_main_exp,2022.2.2,Win32,143.2664756,,,,,,,,,,,,,,,,,,masks/mask_001.jpg,,,,,,,,,,,,,,,,,,,,,,,,,,,,,,,,,,,,,,,,,,,,,,,,0,4,4,0,1,,,,,,,,,,,,,,,,,,,,,,,,,,,,,,,,,,,,,,,,,
220785,001,2022-11-20_17h52.16.956,Info_measure_main_exp,2022.2.2,Win32,143.2664756,,,,,,,,,,,,,,,,,,,,,,,,,,,,,,6,34.9584,1,,,,,,,,,,,,0,131,5,5,2154,2154,absent_patch/patch0002154.jpg,absent_patch/patch0002154.jpg,,,,,,,,,,,,,,,,,,,,0.090740741,0.025925926,1,0,0,response1disk,6,0.005555556,0.00462963,1,0,0,center_square,0,5,5,89,1,,,,,,,,,,,,,,,,,,,,,,,
220785,001,2022-11-20_17h52.16.956,Info_measure_main_exp,2022.2.2,Win32,143.2664756,,,,,,,,,,,,,,,,,,masks/mask_001.jpg,,,,,,,,,,,,,,,,,,,,,,,,,,,,,,,,,,,,,,,,,,,0,0,0,0,1,,,,,,,,,,,,,,,,,,,,,,,,,,,,,,,,,,,,,,,,,,,,,,
220785,001,2022-11-20_17h52.16.956,Info_measure_main_exp,2022.2.2,Win32,143.2664756,,,,,,,,,,,,,,,,,,masks/mask_003.jpg,,,,,,,,,,,,,,,,,,,,,,,,,,,,,,,,,,,,,,,,,,,0,1,1,2,1,,,,,,,,,,,,,,,,,,,,,,,,,,,,,,,,,,,,,,,,,,,,,,
220785,001,2022-11-20_17h52.16.956,Info_measure_main_exp,2022.2.2,Win32,143.2664756,,,,,,,,,,,,,,,,,,masks/mask_002.jpg,,,,,,,,,,,,,,,,,,,,,,,,,,,,,,,,,,,,,,,,,,,0,2,2,1,1,,,,,,,,,,,,,,,,,,,,,,,,,,,,,,,,,,,,,,,,,,,,,,
220785,001,2022-11-20_17h52.16.956,Info_measure_main_exp,2022.2.2,Win32,143.2664756,,,,,,,,,,,,,,,,,,masks/mask_004.jpg,,,,,,,,,,,,,,,,,,,,,,,,,,,,,,,,,,,,,,,,,,,0,3,3,3,1,,,,,,,,,,,,,,,,,,,,,,,,,,,,,,,,,,,,,,,,,,,,,,
220785,001,2022-11-20_17h52.16.956,Info_measure_main_exp,2022.2.2,Win32,143.2664756,,,,,,,,,,,,,,,,,,masks/mask_005.jpg,,,,,,,,,,,,,,,,,,,,,,,,,,,,,,,,,,,,,,,,,,,0,4,4,4,1,,,,,,,,,,,,,,,,,,,,,,,,,,,,,,,,,,,,,,,,,,,,,,
220785,001,2022-11-20_17h52.16.956,Info_measure_main_exp,2022.2.2,Win32,143.2664756,,,,,,,,,,,,,,,,,,masks/mask_001.jpg,,,,,,,,,,,,,,,,,,,,,,,,,,,,,,,,,,,,,,,,,,,,,,,,0,0,0,0,1,,,,,,,,,,,,,,,,,,,,,,,,,,,,,,,,,,,,,,,,,
220785,001,2022-11-20_17h52.16.956,Info_measure_main_exp,2022.2.2,Win32,143.2664756,,,,,,,,,,,,,,,,,,masks/mask_003.jpg,,,,,,,,,,,,,,,,,,,,,,,,,,,,,,,,,,,,,,,,,,,,,,,,0,1,1,2,1,,,,,,,,,,,,,,,,,,,,,,,,,,,,,,,,,,,,,,,,,
220785,001,2022-11-20_17h52.16.956,Info_measure_main_exp,2022.2.2,Win32,143.2664756,,,,,,,,,,,,,,,,,,masks/mask_002.jpg,,,,,,,,,,,,,,,,,,,,,,,,,,,,,,,,,,,,,,,,,,,,,,,,0,2,2,1,1,,,,,,,,,,,,,,,,,,,,,,,,,,,,,,,,,,,,,,,,,
220785,001,2022-11-20_17h52.16.956,Info_measure_main_exp,2022.2.2,Win32,143.2664756,,,,,,,,,,,,,,,,,,masks/mask_004.jpg,,,,,,,,,,,,,,,,,,,,,,,,,,,,,,,,,,,,,,,,,,,,,,,,0,3,3,3,1,,,,,,,,,,,,,,,,,,,,,,,,,,,,,,,,,,,,,,,,,
220785,001,2022-11-20_17h52.16.956,Info_measure_main_exp,2022.2.2,Win32,143.2664756,,,,,,,,,,,,,,,,,,masks/mask_005.jpg,,,,,,,,,,,,,,,,,,,,,,,,,,,,,,,,,,,,,,,,,,,,,,,,0,4,4,4,1,,,,,,,,,,,,,,,,,,,,,,,,,,,,,,,,,,,,,,,,,
220785,001,2022-11-20_17h52.16.956,Info_measure_main_exp,2022.2.2,Win32,143.2664756,,,,,,,,,,,,,,,,,,,,,,,,,,,,,,6,1.2702,1,,,,,,,,,,,,0,131,5,5,2190,2250,absent_patch/patch0002190.jpg,absent_patch/patch0002250.jpg,,,,,,,,,,,,,,,,,,,,0.12037037,0.053703704,1,0,0,response1disk,7,0.001851852,0.003703704,1,0,0,center_square,0,6,6,93,1,,,,,,,,,,,,,,,,,,,,,,,
220785,001,2022-11-20_17h52.16.956,Info_measure_main_exp,2022.2.2,Win32,143.2664756,,,,,,,,,,,,,,,,,,masks/mask_001.jpg,,,,,,,,,,,,,,,,,,,,,,,,,,,,,,,,,,,,,,,,,,,0,0,0,0,1,,,,,,,,,,,,,,,,,,,,,,,,,,,,,,,,,,,,,,,,,,,,,,
220785,001,2022-11-20_17h52.16.956,Info_measure_main_exp,2022.2.2,Win32,143.2664756,,,,,,,,,,,,,,,,,,masks/mask_002.jpg,,,,,,,,,,,,,,,,,,,,,,,,,,,,,,,,,,,,,,,,,,,0,1,1,1,1,,,,,,,,,,,,,,,,,,,,,,,,,,,,,,,,,,,,,,,,,,,,,,
220785,001,2022-11-20_17h52.16.956,Info_measure_main_exp,2022.2.2,Win32,143.2664756,,,,,,,,,,,,,,,,,,masks/mask_003.jpg,,,,,,,,,,,,,,,,,,,,,,,,,,,,,,,,,,,,,,,,,,,0,2,2,2,1,,,,,,,,,,,,,,,,,,,,,,,,,,,,,,,,,,,,,,,,,,,,,,
220785,001,2022-11-20_17h52.16.956,Info_measure_main_exp,2022.2.2,Win32,143.2664756,,,,,,,,,,,,,,,,,,masks/mask_004.jpg,,,,,,,,,,,,,,,,,,,,,,,,,,,,,,,,,,,,,,,,,,,0,3,3,3,1,,,,,,,,,,,,,,,,,,,,,,,,,,,,,,,,,,,,,,,,,,,,,,
220785,001,2022-11-20_17h52.16.956,Info_measure_main_exp,2022.2.2,Win32,143.2664756,,,,,,,,,,,,,,,,,,masks/mask_005.jpg,,,,,,,,,,,,,,,,,,,,,,,,,,,,,,,,,,,,,,,,,,,0,4,4,4,1,,,,,,,,,,,,,,,,,,,,,,,,,,,,,,,,,,,,,,,,,,,,,,
220785,001,2022-11-20_17h52.16.956,Info_measure_main_exp,2022.2.2,Win32,143.2664756,,,,,,,,,,,,,,,,,,masks/mask_005.jpg,,,,,,,,,,,,,,,,,,,,,,,,,,,,,,,,,,,,,,,,,,,,,,,,0,0,0,4,1,,,,,,,,,,,,,,,,,,,,,,,,,,,,,,,,,,,,,,,,,
220785,001,2022-11-20_17h52.16.956,Info_measure_main_exp,2022.2.2,Win32,143.2664756,,,,,,,,,,,,,,,,,,masks/mask_002.jpg,,,,,,,,,,,,,,,,,,,,,,,,,,,,,,,,,,,,,,,,,,,,,,,,0,1,1,1,1,,,,,,,,,,,,,,,,,,,,,,,,,,,,,,,,,,,,,,,,,
220785,001,2022-11-20_17h52.16.956,Info_measure_main_exp,2022.2.2,Win32,143.2664756,,,,,,,,,,,,,,,,,,masks/mask_001.jpg,,,,,,,,,,,,,,,,,,,,,,,,,,,,,,,,,,,,,,,,,,,,,,,,0,2,2,0,1,,,,,,,,,,,,,,,,,,,,,,,,,,,,,,,,,,,,,,,,,
220785,001,2022-11-20_17h52.16.956,Info_measure_main_exp,2022.2.2,Win32,143.2664756,,,,,,,,,,,,,,,,,,masks/mask_003.jpg,,,,,,,,,,,,,,,,,,,,,,,,,,,,,,,,,,,,,,,,,,,,,,,,0,3,3,2,1,,,,,,,,,,,,,,,,,,,,,,,,,,,,,,,,,,,,,,,,,
220785,001,2022-11-20_17h52.16.956,Info_measure_main_exp,2022.2.2,Win32,143.2664756,,,,,,,,,,,,,,,,,,masks/mask_004.jpg,,,,,,,,,,,,,,,,,,,,,,,,,,,,,,,,,,,,,,,,,,,,,,,,0,4,4,3,1,,,,,,,,,,,,,,,,,,,,,,,,,,,,,,,,,,,,,,,,,
220785,001,2022-11-20_17h52.16.956,Info_measure_main_exp,2022.2.2,Win32,143.2664756,,,,,,,,,,,,,,,,,,,,,,,,,,,,,,7,1.1549,1,,,,,,,,,,,,0,131,5,5,2178,2238,absent_patch/patch0002178.jpg,absent_patch/patch0002238.jpg,,,,,,,,,,,,,,,,,,,,0.068518519,0.108333333,1,0,0,response1disk,8,-0.005555556,0.003703704,1,0,0,center_square,0,7,7,57,1,,,,,,,,,,,,,,,,,,,,,,,
220785,001,2022-11-20_17h52.16.956,Info_measure_main_exp,2022.2.2,Win32,143.2664756,,,,,,,,,,,,,,,,,,masks/mask_002.jpg,,,,,,,,,,,,,,,,,,,,,,,,,,,,,,,,,,,,,,,,,,,0,0,0,1,1,,,,,,,,,,,,,,,,,,,,,,,,,,,,,,,,,,,,,,,,,,,,,,
220785,001,2022-11-20_17h52.16.956,Info_measure_main_exp,2022.2.2,Win32,143.2664756,,,,,,,,,,,,,,,,,,masks/mask_003.jpg,,,,,,,,,,,,,,,,,,,,,,,,,,,,,,,,,,,,,,,,,,,0,1,1,2,1,,,,,,,,,,,,,,,,,,,,,,,,,,,,,,,,,,,,,,,,,,,,,,
220785,001,2022-11-20_17h52.16.956,Info_measure_main_exp,2022.2.2,Win32,143.2664756,,,,,,,,,,,,,,,,,,masks/mask_001.jpg,,,,,,,,,,,,,,,,,,,,,,,,,,,,,,,,,,,,,,,,,,,0,2,2,0,1,,,,,,,,,,,,,,,,,,,,,,,,,,,,,,,,,,,,,,,,,,,,,,
220785,001,2022-11-20_17h52.16.956,Info_measure_main_exp,2022.2.2,Win32,143.2664756,,,,,,,,,,,,,,,,,,masks/mask_005.jpg,,,,,,,,,,,,,,,,,,,,,,,,,,,,,,,,,,,,,,,,,,,0,3,3,4,1,,,,,,,,,,,,,,,,,,,,,,,,,,,,,,,,,,,,,,,,,,,,,,
220785,001,2022-11-20_17h52.16.956,Info_measure_main_exp,2022.2.2,Win32,143.2664756,,,,,,,,,,,,,,,,,,masks/mask_004.jpg,,,,,,,,,,,,,,,,,,,,,,,,,,,,,,,,,,,,,,,,,,,0,4,4,3,1,,,,,,,,,,,,,,,,,,,,,,,,,,,,,,,,,,,,,,,,,,,,,,
220785,001,2022-11-20_17h52.16.956,Info_measure_main_exp,2022.2.2,Win32,143.2664756,,,,,,,,,,,,,,,,,,masks/mask_004.jpg,,,,,,,,,,,,,,,,,,,,,,,,,,,,,,,,,,,,,,,,,,,,,,,,0,0,0,3,1,,,,,,,,,,,,,,,,,,,,,,,,,,,,,,,,,,,,,,,,,
220785,001,2022-11-20_17h52.16.956,Info_measure_main_exp,2022.2.2,Win32,143.2664756,,,,,,,,,,,,,,,,,,masks/mask_005.jpg,,,,,,,,,,,,,,,,,,,,,,,,,,,,,,,,,,,,,,,,,,,,,,,,0,1,1,4,1,,,,,,,,,,,,,,,,,,,,,,,,,,,,,,,,,,,,,,,,,
220785,001,2022-11-20_17h52.16.956,Info_measure_main_exp,2022.2.2,Win32,143.2664756,,,,,,,,,,,,,,,,,,masks/mask_003.jpg,,,,,,,,,,,,,,,,,,,,,,,,,,,,,,,,,,,,,,,,,,,,,,,,0,2,2,2,1,,,,,,,,,,,,,,,,,,,,,,,,,,,,,,,,,,,,,,,,,
220785,001,2022-11-20_17h52.16.956,Info_measure_main_exp,2022.2.2,Win32,143.2664756,,,,,,,,,,,,,,,,,,masks/mask_002.jpg,,,,,,,,,,,,,,,,,,,,,,,,,,,,,,,,,,,,,,,,,,,,,,,,0,3,3,1,1,,,,,,,,,,,,,,,,,,,,,,,,,,,,,,,,,,,,,,,,,
220785,001,2022-11-20_17h52.16.956,Info_measure_main_exp,2022.2.2,Win32,143.2664756,,,,,,,,,,,,,,,,,,masks/mask_001.jpg,,,,,,,,,,,,,,,,,,,,,,,,,,,,,,,,,,,,,,,,,,,,,,,,0,4,4,0,1,,,,,,,,,,,,,,,,,,,,,,,,,,,,,,,,,,,,,,,,,
220785,001,2022-11-20_17h52.16.956,Info_measure_main_exp,2022.2.2,Win32,143.2664756,,,,,,,,,,,,,,,,,,,,,,,,,,,,,,7,1.3755,1,,,,,,,,,,,,0,131,5,5,1986,2142,absent_patch/patch0001986.jpg,absent_patch/patch0002142.jpg,,,,,,,,,,,,,,,,,,,,0.064814815,0.094444444,1,0,0,response1disk,9,0.005555556,0.010185185,1,0,0,center_square,0,8,8,76,1,,,,,,,,,,,,,,,,,,,,,,,
220785,001,2022-11-20_17h52.16.956,Info_measure_main_exp,2022.2.2,Win32,143.2664756,,,,,,,,,,,,,,,,,,masks/mask_003.jpg,,,,,,,,,,,,,,,,,,,,,,,,,,,,,,,,,,,,,,,,,,,0,0,0,2,1,,,,,,,,,,,,,,,,,,,,,,,,,,,,,,,,,,,,,,,,,,,,,,
220785,001,2022-11-20_17h52.16.956,Info_measure_main_exp,2022.2.2,Win32,143.2664756,,,,,,,,,,,,,,,,,,masks/mask_004.jpg,,,,,,,,,,,,,,,,,,,,,,,,,,,,,,,,,,,,,,,,,,,0,1,1,3,1,,,,,,,,,,,,,,,,,,,,,,,,,,,,,,,,,,,,,,,,,,,,,,
220785,001,2022-11-20_17h52.16.956,Info_measure_main_exp,2022.2.2,Win32,143.2664756,,,,,,,,,,,,,,,,,,masks/mask_001.jpg,,,,,,,,,,,,,,,,,,,,,,,,,,,,,,,,,,,,,,,,,,,0,2,2,0,1,,,,,,,,,,,,,,,,,,,,,,,,,,,,,,,,,,,,,,,,,,,,,,
220785,001,2022-11-20_17h52.16.956,Info_measure_main_exp,2022.2.2,Win32,143.2664756,,,,,,,,,,,,,,,,,,masks/mask_005.jpg,,,,,,,,,,,,,,,,,,,,,,,,,,,,,,,,,,,,,,,,,,,0,3,3,4,1,,,,,,,,,,,,,,,,,,,,,,,,,,,,,,,,,,,,,,,,,,,,,,
220785,001,2022-11-20_17h52.16.956,Info_measure_main_exp,2022.2.2,Win32,143.2664756,,,,,,,,,,,,,,,,,,masks/mask_002.jpg,,,,,,,,,,,,,,,,,,,,,,,,,,,,,,,,,,,,,,,,,,,0,4,4,1,1,,,,,,,,,,,,,,,,,,,,,,,,,,,,,,,,,,,,,,,,,,,,,,
220785,001,2022-11-20_17h52.16.956,Info_measure_main_exp,2022.2.2,Win32,143.2664756,,,,,,,,,,,,,,,,,,masks/mask_003.jpg,,,,,,,,,,,,,,,,,,,,,,,,,,,,,,,,,,,,,,,,,,,,,,,,0,0,0,2,1,,,,,,,,,,,,,,,,,,,,,,,,,,,,,,,,,,,,,,,,,
220785,001,2022-11-20_17h52.16.956,Info_measure_main_exp,2022.2.2,Win32,143.2664756,,,,,,,,,,,,,,,,,,masks/mask_004.jpg,,,,,,,,,,,,,,,,,,,,,,,,,,,,,,,,,,,,,,,,,,,,,,,,0,1,1,3,1,,,,,,,,,,,,,,,,,,,,,,,,,,,,,,,,,,,,,,,,,
220785,001,2022-11-20_17h52.16.956,Info_measure_main_exp,2022.2.2,Win32,143.2664756,,,,,,,,,,,,,,,,,,masks/mask_001.jpg,,,,,,,,,,,,,,,,,,,,,,,,,,,,,,,,,,,,,,,,,,,,,,,,0,2,2,0,1,,,,,,,,,,,,,,,,,,,,,,,,,,,,,,,,,,,,,,,,,
220785,001,2022-11-20_17h52.16.956,Info_measure_main_exp,2022.2.2,Win32,143.2664756,,,,,,,,,,,,,,,,,,masks/mask_002.jpg,,,,,,,,,,,,,,,,,,,,,,,,,,,,,,,,,,,,,,,,,,,,,,,,0,3,3,1,1,,,,,,,,,,,,,,,,,,,,,,,,,,,,,,,,,,,,,,,,,
220785,001,2022-11-20_17h52.16.956,Info_measure_main_exp,2022.2.2,Win32,143.2664756,,,,,,,,,,,,,,,,,,masks/mask_005.jpg,,,,,,,,,,,,,,,,,,,,,,,,,,,,,,,,,,,,,,,,,,,,,,,,0,4,4,4,1,,,,,,,,,,,,,,,,,,,,,,,,,,,,,,,,,,,,,,,,,
220785,001,2022-11-20_17h52.16.956,Info_measure_main_exp,2022.2.2,Win32,143.2664756,,,,,,,,,,,,,,,,,,,,,,,,,,,,,,7,1.2289,1,,,,,,,,,,,,0,131,5,5,1974,2214,absent_patch/patch0001974.jpg,absent_patch/patch0002214.jpg,,,,,,,,,,,,,,,,,,,,0.047222222,0.126851852,1,0,0,response1disk,10,0,0.003703704,1,0,0,center_square,0,9,9,24,1,,,,,,,,,,,,,,,,,,,,,,,
220785,001,2022-11-20_17h52.16.956,Info_measure_main_exp,2022.2.2,Win32,143.2664756,,,,,,,,,,,,,,,,,,masks/mask_005.jpg,,,,,,,,,,,,,,,,,,,,,,,,,,,,,,,,,,,,,,,,,,,0,0,0,4,1,,,,,,,,,,,,,,,,,,,,,,,,,,,,,,,,,,,,,,,,,,,,,,
220785,001,2022-11-20_17h52.16.956,Info_measure_main_exp,2022.2.2,Win32,143.2664756,,,,,,,,,,,,,,,,,,masks/mask_001.jpg,,,,,,,,,,,,,,,,,,,,,,,,,,,,,,,,,,,,,,,,,,,0,1,1,0,1,,,,,,,,,,,,,,,,,,,,,,,,,,,,,,,,,,,,,,,,,,,,,,
220785,001,2022-11-20_17h52.16.956,Info_measure_main_exp,2022.2.2,Win32,143.2664756,,,,,,,,,,,,,,,,,,masks/mask_002.jpg,,,,,,,,,,,,,,,,,,,,,,,,,,,,,,,,,,,,,,,,,,,0,2,2,1,1,,,,,,,,,,,,,,,,,,,,,,,,,,,,,,,,,,,,,,,,,,,,,,
220785,001,2022-11-20_17h52.16.956,Info_measure_main_exp,2022.2.2,Win32,143.2664756,,,,,,,,,,,,,,,,,,masks/mask_004.jpg,,,,,,,,,,,,,,,,,,,,,,,,,,,,,,,,,,,,,,,,,,,0,3,3,3,1,,,,,,,,,,,,,,,,,,,,,,,,,,,,,,,,,,,,,,,,,,,,,,
220785,001,2022-11-20_17h52.16.956,Info_measure_main_exp,2022.2.2,Win32,143.2664756,,,,,,,,,,,,,,,,,,masks/mask_003.jpg,,,,,,,,,,,,,,,,,,,,,,,,,,,,,,,,,,,,,,,,,,,0,4,4,2,1,,,,,,,,,,,,,,,,,,,,,,,,,,,,,,,,,,,,,,,,,,,,,,
220785,001,2022-11-20_17h52.16.956,Info_measure_main_exp,2022.2.2,Win32,143.2664756,,,,,,,,,,,,,,,,,,masks/mask_001.jpg,,,,,,,,,,,,,,,,,,,,,,,,,,,,,,,,,,,,,,,,,,,,,,,,0,0,0,0,1,,,,,,,,,,,,,,,,,,,,,,,,,,,,,,,,,,,,,,,,,
220785,001,2022-11-20_17h52.16.956,Info_measure_main_exp,2022.2.2,Win32,143.2664756,,,,,,,,,,,,,,,,,,masks/mask_002.jpg,,,,,,,,,,,,,,,,,,,,,,,,,,,,,,,,,,,,,,,,,,,,,,,,0,1,1,1,1,,,,,,,,,,,,,,,,,,,,,,,,,,,,,,,,,,,,,,,,,
220785,001,2022-11-20_17h52.16.956,Info_measure_main_exp,2022.2.2,Win32,143.2664756,,,,,,,,,,,,,,,,,,masks/mask_003.jpg,,,,,,,,,,,,,,,,,,,,,,,,,,,,,,,,,,,,,,,,,,,,,,,,0,2,2,2,1,,,,,,,,,,,,,,,,,,,,,,,,,,,,,,,,,,,,,,,,,
220785,001,2022-11-20_17h52.16.956,Info_measure_main_exp,2022.2.2,Win32,143.2664756,,,,,,,,,,,,,,,,,,masks/mask_004.jpg,,,,,,,,,,,,,,,,,,,,,,,,,,,,,,,,,,,,,,,,,,,,,,,,0,3,3,3,1,,,,,,,,,,,,,,,,,,,,,,,,,,,,,,,,,,,,,,,,,
220785,001,2022-11-20_17h52.16.956,Info_measure_main_exp,2022.2.2,Win32,143.2664756,,,,,,,,,,,,,,,,,,masks/mask_005.jpg,,,,,,,,,,,,,,,,,,,,,,,,,,,,,,,,,,,,,,,,,,,,,,,,0,4,4,4,1,,,,,,,,,,,,,,,,,,,,,,,,,,,,,,,,,,,,,,,,,
220785,001,2022-11-20_17h52.16.956,Info_measure_main_exp,2022.2.2,Win32,143.2664756,,,,,,,,,,,,,,,,,,,,,,,,,,,,,,0,1.8743,1,,,,,,,,,,,,0,131,5,5,2274,2274,absent_patch/patch0002274.jpg,absent_patch/patch0002274.jpg,,,,,,,,,,,,,,,,,,,,-0.028703704,0.123148148,1,0,0,response7disk,11,-0.002777778,0.000925926,1,0,0,center_square,0,10,10,114,1,,,,,,,,,,,,,,,,,,,,,,,
220785,001,2022-11-20_17h52.16.956,Info_measure_main_exp,2022.2.2,Win32,143.2664756,,,,,,,,,,,,,,,,,,masks/mask_002.jpg,,,,,,,,,,,,,,,,,,,,,,,,,,,,,,,,,,,,,,,,,,,0,0,0,1,1,,,,,,,,,,,,,,,,,,,,,,,,,,,,,,,,,,,,,,,,,,,,,,
220785,001,2022-11-20_17h52.16.956,Info_measure_main_exp,2022.2.2,Win32,143.2664756,,,,,,,,,,,,,,,,,,masks/mask_005.jpg,,,,,,,,,,,,,,,,,,,,,,,,,,,,,,,,,,,,,,,,,,,0,1,1,4,1,,,,,,,,,,,,,,,,,,,,,,,,,,,,,,,,,,,,,,,,,,,,,,
220785,001,2022-11-20_17h52.16.956,Info_measure_main_exp,2022.2.2,Win32,143.2664756,,,,,,,,,,,,,,,,,,masks/mask_001.jpg,,,,,,,,,,,,,,,,,,,,,,,,,,,,,,,,,,,,,,,,,,,0,2,2,0,1,,,,,,,,,,,,,,,,,,,,,,,,,,,,,,,,,,,,,,,,,,,,,,
220785,001,2022-11-20_17h52.16.956,Info_measure_main_exp,2022.2.2,Win32,143.2664756,,,,,,,,,,,,,,,,,,masks/mask_004.jpg,,,,,,,,,,,,,,,,,,,,,,,,,,,,,,,,,,,,,,,,,,,0,3,3,3,1,,,,,,,,,,,,,,,,,,,,,,,,,,,,,,,,,,,,,,,,,,,,,,
220785,001,2022-11-20_17h52.16.956,Info_measure_main_exp,2022.2.2,Win32,143.2664756,,,,,,,,,,,,,,,,,,masks/mask_003.jpg,,,,,,,,,,,,,,,,,,,,,,,,,,,,,,,,,,,,,,,,,,,0,4,4,2,1,,,,,,,,,,,,,,,,,,,,,,,,,,,,,,,,,,,,,,,,,,,,,,
220785,001,2022-11-20_17h52.16.956,Info_measure_main_exp,2022.2.2,Win32,143.2664756,,,,,,,,,,,,,,,,,,masks/mask_001.jpg,,,,,,,,,,,,,,,,,,,,,,,,,,,,,,,,,,,,,,,,,,,,,,,,0,0,0,0,1,,,,,,,,,,,,,,,,,,,,,,,,,,,,,,,,,,,,,,,,,
220785,001,2022-11-20_17h52.16.956,Info_measure_main_exp,2022.2.2,Win32,143.2664756,,,,,,,,,,,,,,,,,,masks/mask_005.jpg,,,,,,,,,,,,,,,,,,,,,,,,,,,,,,,,,,,,,,,,,,,,,,,,0,1,1,4,1,,,,,,,,,,,,,,,,,,,,,,,,,,,,,,,,,,,,,,,,,
220785,001,2022-11-20_17h52.16.956,Info_measure_main_exp,2022.2.2,Win32,143.2664756,,,,,,,,,,,,,,,,,,masks/mask_003.jpg,,,,,,,,,,,,,,,,,,,,,,,,,,,,,,,,,,,,,,,,,,,,,,,,0,2,2,2,1,,,,,,,,,,,,,,,,,,,,,,,,,,,,,,,,,,,,,,,,,
220785,001,2022-11-20_17h52.16.956,Info_measure_main_exp,2022.2.2,Win32,143.2664756,,,,,,,,,,,,,,,,,,masks/mask_004.jpg,,,,,,,,,,,,,,,,,,,,,,,,,,,,,,,,,,,,,,,,,,,,,,,,0,3,3,3,1,,,,,,,,,,,,,,,,,,,,,,,,,,,,,,,,,,,,,,,,,
220785,001,2022-11-20_17h52.16.956,Info_measure_main_exp,2022.2.2,Win32,143.2664756,,,,,,,,,,,,,,,,,,masks/mask_002.jpg,,,,,,,,,,,,,,,,,,,,,,,,,,,,,,,,,,,,,,,,,,,,,,,,0,4,4,1,1,,,,,,,,,,,,,,,,,,,,,,,,,,,,,,,,,,,,,,,,,
220785,001,2022-11-20_17h52.16.956,Info_measure_main_exp,2022.2.2,Win32,143.2664756,,,,,,,,,,,,,,,,,,,,,,,,,,,,,,7,1.3537,1,,,,,,,,,,,,1,131,5,5,2298,1,absent_patch/patch0002298.jpg,present_patch/cong_131_5_a.jpg,,,,,,,,,,,,,,,,,,,,0.062037037,0.117592593,1,0,0,response1disk,12,-0.002777778,0.003703704,1,0,0,center_square,0,11,11,45,1,,,,,,,,,,,,,,,,,,,,,,,
220785,001,2022-11-20_17h52.16.956,Info_measure_main_exp,2022.2.2,Win32,143.2664756,,,,,,,,,,,,,,,,,,masks/mask_002.jpg,,,,,,,,,,,,,,,,,,,,,,,,,,,,,,,,,,,,,,,,,,,0,0,0,1,1,,,,,,,,,,,,,,,,,,,,,,,,,,,,,,,,,,,,,,,,,,,,,,
220785,001,2022-11-20_17h52.16.956,Info_measure_main_exp,2022.2.2,Win32,143.2664756,,,,,,,,,,,,,,,,,,masks/mask_001.jpg,,,,,,,,,,,,,,,,,,,,,,,,,,,,,,,,,,,,,,,,,,,0,1,1,0,1,,,,,,,,,,,,,,,,,,,,,,,,,,,,,,,,,,,,,,,,,,,,,,
220785,001,2022-11-20_17h52.16.956,Info_measure_main_exp,2022.2.2,Win32,143.2664756,,,,,,,,,,,,,,,,,,masks/mask_005.jpg,,,,,,,,,,,,,,,,,,,,,,,,,,,,,,,,,,,,,,,,,,,0,2,2,4,1,,,,,,,,,,,,,,,,,,,,,,,,,,,,,,,,,,,,,,,,,,,,,,
220785,001,2022-11-20_17h52.16.956,Info_measure_main_exp,2022.2.2,Win32,143.2664756,,,,,,,,,,,,,,,,,,masks/mask_003.jpg,,,,,,,,,,,,,,,,,,,,,,,,,,,,,,,,,,,,,,,,,,,0,3,3,2,1,,,,,,,,,,,,,,,,,,,,,,,,,,,,,,,,,,,,,,,,,,,,,,
220785,001,2022-11-20_17h52.16.956,Info_measure_main_exp,2022.2.2,Win32,143.2664756,,,,,,,,,,,,,,,,,,masks/mask_004.jpg,,,,,,,,,,,,,,,,,,,,,,,,,,,,,,,,,,,,,,,,,,,0,4,4,3,1,,,,,,,,,,,,,,,,,,,,,,,,,,,,,,,,,,,,,,,,,,,,,,
220785,001,2022-11-20_17h52.16.956,Info_measure_main_exp,2022.2.2,Win32,143.2664756,,,,,,,,,,,,,,,,,,masks/mask_001.jpg,,,,,,,,,,,,,,,,,,,,,,,,,,,,,,,,,,,,,,,,,,,,,,,,0,0,0,0,1,,,,,,,,,,,,,,,,,,,,,,,,,,,,,,,,,,,,,,,,,
220785,001,2022-11-20_17h52.16.956,Info_measure_main_exp,2022.2.2,Win32,143.2664756,,,,,,,,,,,,,,,,,,masks/mask_003.jpg,,,,,,,,,,,,,,,,,,,,,,,,,,,,,,,,,,,,,,,,,,,,,,,,0,1,1,2,1,,,,,,,,,,,,,,,,,,,,,,,,,,,,,,,,,,,,,,,,,
220785,001,2022-11-20_17h52.16.956,Info_measure_main_exp,2022.2.2,Win32,143.2664756,,,,,,,,,,,,,,,,,,masks/mask_002.jpg,,,,,,,,,,,,,,,,,,,,,,,,,,,,,,,,,,,,,,,,,,,,,,,,0,2,2,1,1,,,,,,,,,,,,,,,,,,,,,,,,,,,,,,,,,,,,,,,,,
220785,001,2022-11-20_17h52.16.956,Info_measure_main_exp,2022.2.2,Win32,143.2664756,,,,,,,,,,,,,,,,,,masks/mask_004.jpg,,,,,,,,,,,,,,,,,,,,,,,,,,,,,,,,,,,,,,,,,,,,,,,,0,3,3,3,1,,,,,,,,,,,,,,,,,,,,,,,,,,,,,,,,,,,,,,,,,
220785,001,2022-11-20_17h52.16.956,Info_measure_main_exp,2022.2.2,Win32,143.2664756,,,,,,,,,,,,,,,,,,masks/mask_005.jpg,,,,,,,,,,,,,,,,,,,,,,,,,,,,,,,,,,,,,,,,,,,,,,,,0,4,4,4,1,,,,,,,,,,,,,,,,,,,,,,,,,,,,,,,,,,,,,,,,,
220785,001,2022-11-20_17h52.16.956,Info_measure_main_exp,2022.2.2,Win32,143.2664756,,,,,,,,,,,,,,,,,,,,,,,,,,,,,,5,3.7383,1,,,,,,,,,,,,0,131,5,5,2274,2166,absent_patch/patch0002274.jpg,absent_patch/patch0002166.jpg,,,,,,,,,,,,,,,,,,,,0.128703704,-0.042592593,1,0,0,response3disk,13,-0.001851852,0.005555556,1,0,0,center_square,0,12,12,78,1,,,,,,,,,,,,,,,,,,,,,,,
220785,001,2022-11-20_17h52.16.956,Info_measure_main_exp,2022.2.2,Win32,143.2664756,,,,,,,,,,,,,,,,,,masks/mask_004.jpg,,,,,,,,,,,,,,,,,,,,,,,,,,,,,,,,,,,,,,,,,,,0,0,0,3,1,,,,,,,,,,,,,,,,,,,,,,,,,,,,,,,,,,,,,,,,,,,,,,
220785,001,2022-11-20_17h52.16.956,Info_measure_main_exp,2022.2.2,Win32,143.2664756,,,,,,,,,,,,,,,,,,masks/mask_005.jpg,,,,,,,,,,,,,,,,,,,,,,,,,,,,,,,,,,,,,,,,,,,0,1,1,4,1,,,,,,,,,,,,,,,,,,,,,,,,,,,,,,,,,,,,,,,,,,,,,,
220785,001,2022-11-20_17h52.16.956,Info_measure_main_exp,2022.2.2,Win32,143.2664756,,,,,,,,,,,,,,,,,,masks/mask_003.jpg,,,,,,,,,,,,,,,,,,,,,,,,,,,,,,,,,,,,,,,,,,,0,2,2,2,1,,,,,,,,,,,,,,,,,,,,,,,,,,,,,,,,,,,,,,,,,,,,,,
220785,001,2022-11-20_17h52.16.956,Info_measure_main_exp,2022.2.2,Win32,143.2664756,,,,,,,,,,,,,,,,,,masks/mask_002.jpg,,,,,,,,,,,,,,,,,,,,,,,,,,,,,,,,,,,,,,,,,,,0,3,3,1,1,,,,,,,,,,,,,,,,,,,,,,,,,,,,,,,,,,,,,,,,,,,,,,
220785,001,2022-11-20_17h52.16.956,Info_measure_main_exp,2022.2.2,Win32,143.2664756,,,,,,,,,,,,,,,,,,masks/mask_001.jpg,,,,,,,,,,,,,,,,,,,,,,,,,,,,,,,,,,,,,,,,,,,0,4,4,0,1,,,,,,,,,,,,,,,,,,,,,,,,,,,,,,,,,,,,,,,,,,,,,,
220785,001,2022-11-20_17h52.16.956,Info_measure_main_exp,2022.2.2,Win32,143.2664756,,,,,,,,,,,,,,,,,,masks/mask_002.jpg,,,,,,,,,,,,,,,,,,,,,,,,,,,,,,,,,,,,,,,,,,,,,,,,0,0,0,1,1,,,,,,,,,,,,,,,,,,,,,,,,,,,,,,,,,,,,,,,,,
220785,001,2022-11-20_17h52.16.956,Info_measure_main_exp,2022.2.2,Win32,143.2664756,,,,,,,,,,,,,,,,,,masks/mask_003.jpg,,,,,,,,,,,,,,,,,,,,,,,,,,,,,,,,,,,,,,,,,,,,,,,,0,1,1,2,1,,,,,,,,,,,,,,,,,,,,,,,,,,,,,,,,,,,,,,,,,
220785,001,2022-11-20_17h52.16.956,Info_measure_main_exp,2022.2.2,Win32,143.2664756,,,,,,,,,,,,,,,,,,masks/mask_001.jpg,,,,,,,,,,,,,,,,,,,,,,,,,,,,,,,,,,,,,,,,,,,,,,,,0,2,2,0,1,,,,,,,,,,,,,,,,,,,,,,,,,,,,,,,,,,,,,,,,,
220785,001,2022-11-20_17h52.16.956,Info_measure_main_exp,2022.2.2,Win32,143.2664756,,,,,,,,,,,,,,,,,,masks/mask_004.jpg,,,,,,,,,,,,,,,,,,,,,,,,,,,,,,,,,,,,,,,,,,,,,,,,0,3,3,3,1,,,,,,,,,,,,,,,,,,,,,,,,,,,,,,,,,,,,,,,,,
220785,001,2022-11-20_17h52.16.956,Info_measure_main_exp,2022.2.2,Win32,143.2664756,,,,,,,,,,,,,,,,,,masks/mask_005.jpg,,,,,,,,,,,,,,,,,,,,,,,,,,,,,,,,,,,,,,,,,,,,,,,,0,4,4,4,1,,,,,,,,,,,,,,,,,,,,,,,,,,,,,,,,,,,,,,,,,
220785,001,2022-11-20_17h52.16.956,Info_measure_main_exp,2022.2.2,Win32,143.2664756,,,,,,,,,,,,,,,,,,,,,,,,,,,,,,6,3.364,1,,,,,,,,,,,,0,131,5,5,2166,2166,absent_patch/patch0002166.jpg,absent_patch/patch0002166.jpg,,,,,,,,,,,,,,,,,,,,0.076851852,0.007407407,1,0,0,response1disk,14,-0.006481481,-0.001851852,1,0,0,center_square,0,13,13,42,1,,,,,,,,,,,,,,,,,,,,,,,
220785,001,2022-11-20_17h52.16.956,Info_measure_main_exp,2022.2.2,Win32,143.2664756,,,,,,,,,,,,,,,,,,masks/mask_002.jpg,,,,,,,,,,,,,,,,,,,,,,,,,,,,,,,,,,,,,,,,,,,0,0,0,1,1,,,,,,,,,,,,,,,,,,,,,,,,,,,,,,,,,,,,,,,,,,,,,,
220785,001,2022-11-20_17h52.16.956,Info_measure_main_exp,2022.2.2,Win32,143.2664756,,,,,,,,,,,,,,,,,,masks/mask_004.jpg,,,,,,,,,,,,,,,,,,,,,,,,,,,,,,,,,,,,,,,,,,,0,1,1,3,1,,,,,,,,,,,,,,,,,,,,,,,,,,,,,,,,,,,,,,,,,,,,,,
220785,001,2022-11-20_17h52.16.956,Info_measure_main_exp,2022.2.2,Win32,143.2664756,,,,,,,,,,,,,,,,,,masks/mask_001.jpg,,,,,,,,,,,,,,,,,,,,,,,,,,,,,,,,,,,,,,,,,,,0,2,2,0,1,,,,,,,,,,,,,,,,,,,,,,,,,,,,,,,,,,,,,,,,,,,,,,
220785,001,2022-11-20_17h52.16.956,Info_measure_main_exp,2022.2.2,Win32,143.2664756,,,,,,,,,,,,,,,,,,masks/mask_003.jpg,,,,,,,,,,,,,,,,,,,,,,,,,,,,,,,,,,,,,,,,,,,0,3,3,2,1,,,,,,,,,,,,,,,,,,,,,,,,,,,,,,,,,,,,,,,,,,,,,,
220785,001,2022-11-20_17h52.16.956,Info_measure_main_exp,2022.2.2,Win32,143.2664756,,,,,,,,,,,,,,,,,,masks/mask_005.jpg,,,,,,,,,,,,,,,,,,,,,,,,,,,,,,,,,,,,,,,,,,,0,4,4,4,1,,,,,,,,,,,,,,,,,,,,,,,,,,,,,,,,,,,,,,,,,,,,,,
220785,001,2022-11-20_17h52.16.956,Info_measure_main_exp,2022.2.2,Win32,143.2664756,,,,,,,,,,,,,,,,,,masks/mask_001.jpg,,,,,,,,,,,,,,,,,,,,,,,,,,,,,,,,,,,,,,,,,,,,,,,,0,0,0,0,1,,,,,,,,,,,,,,,,,,,,,,,,,,,,,,,,,,,,,,,,,
220785,001,2022-11-20_17h52.16.956,Info_measure_main_exp,2022.2.2,Win32,143.2664756,,,,,,,,,,,,,,,,,,masks/mask_005.jpg,,,,,,,,,,,,,,,,,,,,,,,,,,,,,,,,,,,,,,,,,,,,,,,,0,1,1,4,1,,,,,,,,,,,,,,,,,,,,,,,,,,,,,,,,,,,,,,,,,
220785,001,2022-11-20_17h52.16.956,Info_measure_main_exp,2022.2.2,Win32,143.2664756,,,,,,,,,,,,,,,,,,masks/mask_004.jpg,,,,,,,,,,,,,,,,,,,,,,,,,,,,,,,,,,,,,,,,,,,,,,,,0,2,2,3,1,,,,,,,,,,,,,,,,,,,,,,,,,,,,,,,,,,,,,,,,,
220785,001,2022-11-20_17h52.16.956,Info_measure_main_exp,2022.2.2,Win32,143.2664756,,,,,,,,,,,,,,,,,,masks/mask_002.jpg,,,,,,,,,,,,,,,,,,,,,,,,,,,,,,,,,,,,,,,,,,,,,,,,0,3,3,1,1,,,,,,,,,,,,,,,,,,,,,,,,,,,,,,,,,,,,,,,,,
220785,001,2022-11-20_17h52.16.956,Info_measure_main_exp,2022.2.2,Win32,143.2664756,,,,,,,,,,,,,,,,,,masks/mask_003.jpg,,,,,,,,,,,,,,,,,,,,,,,,,,,,,,,,,,,,,,,,,,,,,,,,0,4,4,2,1,,,,,,,,,,,,,,,,,,,,,,,,,,,,,,,,,,,,,,,,,
220785,001,2022-11-20_17h52.16.956,Info_measure_main_exp,2022.2.2,Win32,143.2664756,,,,,,,,,,,,,,,,,,,,,,,,,,,,,,6,1.3074,1,,,,,,,,,,,,1,131,5,5,1,2178,present_patch/cong_131_5_a.jpg,absent_patch/patch0002178.jpg,,,,,,,,,,,,,,,,,,,,0.086111111,0.012962963,1,0,0,response1disk,15,0.000925926,0.001851852,1,0,0,center_square,0,14,14,40,1,,,,,,,,,,,,,,,,,,,,,,,
220785,001,2022-11-20_17h52.16.956,Info_measure_main_exp,2022.2.2,Win32,143.2664756,,,,,,,,,,,,,,,,,,masks/mask_004.jpg,,,,,,,,,,,,,,,,,,,,,,,,,,,,,,,,,,,,,,,,,,,0,0,0,3,1,,,,,,,,,,,,,,,,,,,,,,,,,,,,,,,,,,,,,,,,,,,,,,
220785,001,2022-11-20_17h52.16.956,Info_measure_main_exp,2022.2.2,Win32,143.2664756,,,,,,,,,,,,,,,,,,masks/mask_002.jpg,,,,,,,,,,,,,,,,,,,,,,,,,,,,,,,,,,,,,,,,,,,0,1,1,1,1,,,,,,,,,,,,,,,,,,,,,,,,,,,,,,,,,,,,,,,,,,,,,,
220785,001,2022-11-20_17h52.16.956,Info_measure_main_exp,2022.2.2,Win32,143.2664756,,,,,,,,,,,,,,,,,,masks/mask_001.jpg,,,,,,,,,,,,,,,,,,,,,,,,,,,,,,,,,,,,,,,,,,,0,2,2,0,1,,,,,,,,,,,,,,,,,,,,,,,,,,,,,,,,,,,,,,,,,,,,,,
220785,001,2022-11-20_17h52.16.956,Info_measure_main_exp,2022.2.2,Win32,143.2664756,,,,,,,,,,,,,,,,,,masks/mask_005.jpg,,,,,,,,,,,,,,,,,,,,,,,,,,,,,,,,,,,,,,,,,,,0,3,3,4,1,,,,,,,,,,,,,,,,,,,,,,,,,,,,,,,,,,,,,,,,,,,,,,
220785,001,2022-11-20_17h52.16.956,Info_measure_main_exp,2022.2.2,Win32,143.2664756,,,,,,,,,,,,,,,,,,masks/mask_003.jpg,,,,,,,,,,,,,,,,,,,,,,,,,,,,,,,,,,,,,,,,,,,0,4,4,2,1,,,,,,,,,,,,,,,,,,,,,,,,,,,,,,,,,,,,,,,,,,,,,,
220785,001,2022-11-20_17h52.16.956,Info_measure_main_exp,2022.2.2,Win32,143.2664756,,,,,,,,,,,,,,,,,,masks/mask_005.jpg,,,,,,,,,,,,,,,,,,,,,,,,,,,,,,,,,,,,,,,,,,,,,,,,0,0,0,4,1,,,,,,,,,,,,,,,,,,,,,,,,,,,,,,,,,,,,,,,,,
220785,001,2022-11-20_17h52.16.956,Info_measure_main_exp,2022.2.2,Win32,143.2664756,,,,,,,,,,,,,,,,,,masks/mask_002.jpg,,,,,,,,,,,,,,,,,,,,,,,,,,,,,,,,,,,,,,,,,,,,,,,,0,1,1,1,1,,,,,,,,,,,,,,,,,,,,,,,,,,,,,,,,,,,,,,,,,
220785,001,2022-11-20_17h52.16.956,Info_measure_main_exp,2022.2.2,Win32,143.2664756,,,,,,,,,,,,,,,,,,masks/mask_004.jpg,,,,,,,,,,,,,,,,,,,,,,,,,,,,,,,,,,,,,,,,,,,,,,,,0,2,2,3,1,,,,,,,,,,,,,,,,,,,,,,,,,,,,,,,,,,,,,,,,,
220785,001,2022-11-20_17h52.16.956,Info_measure_main_exp,2022.2.2,Win32,143.2664756,,,,,,,,,,,,,,,,,,masks/mask_001.jpg,,,,,,,,,,,,,,,,,,,,,,,,,,,,,,,,,,,,,,,,,,,,,,,,0,3,3,0,1,,,,,,,,,,,,,,,,,,,,,,,,,,,,,,,,,,,,,,,,,
220785,001,2022-11-20_17h52.16.956,Info_measure_main_exp,2022.2.2,Win32,143.2664756,,,,,,,,,,,,,,,,,,masks/mask_003.jpg,,,,,,,,,,,,,,,,,,,,,,,,,,,,,,,,,,,,,,,,,,,,,,,,0,4,4,2,1,,,,,,,,,,,,,,,,,,,,,,,,,,,,,,,,,,,,,,,,,
220785,001,2022-11-20_17h52.16.956,Info_measure_main_exp,2022.2.2,Win32,143.2664756,,,,,,,,,,,,,,,,,,,,,,,,,,,,,,6,4.4476,1,,,,,,,,,,,,0,131,5,5,2214,1986,absent_patch/patch0002214.jpg,absent_patch/patch0001986.jpg,,,,,,,,,,,,,,,,,,,,0.126851852,0.04537037,1,0,0,response1disk,16,-0.001851852,0.006481481,1,0,0,center_square,0,15,15,34,1,,,,,,,,,,,,,,,,,,,,,,,
220785,001,2022-11-20_17h52.16.956,Info_measure_main_exp,2022.2.2,Win32,143.2664756,,,,,,,,,,,,,,,,,,masks/mask_004.jpg,,,,,,,,,,,,,,,,,,,,,,,,,,,,,,,,,,,,,,,,,,,0,0,0,3,1,,,,,,,,,,,,,,,,,,,,,,,,,,,,,,,,,,,,,,,,,,,,,,
220785,001,2022-11-20_17h52.16.956,Info_measure_main_exp,2022.2.2,Win32,143.2664756,,,,,,,,,,,,,,,,,,masks/mask_003.jpg,,,,,,,,,,,,,,,,,,,,,,,,,,,,,,,,,,,,,,,,,,,0,1,1,2,1,,,,,,,,,,,,,,,,,,,,,,,,,,,,,,,,,,,,,,,,,,,,,,
220785,001,2022-11-20_17h52.16.956,Info_measure_main_exp,2022.2.2,Win32,143.2664756,,,,,,,,,,,,,,,,,,masks/mask_001.jpg,,,,,,,,,,,,,,,,,,,,,,,,,,,,,,,,,,,,,,,,,,,0,2,2,0,1,,,,,,,,,,,,,,,,,,,,,,,,,,,,,,,,,,,,,,,,,,,,,,
220785,001,2022-11-20_17h52.16.956,Info_measure_main_exp,2022.2.2,Win32,143.2664756,,,,,,,,,,,,,,,,,,masks/mask_005.jpg,,,,,,,,,,,,,,,,,,,,,,,,,,,,,,,,,,,,,,,,,,,0,3,3,4,1,,,,,,,,,,,,,,,,,,,,,,,,,,,,,,,,,,,,,,,,,,,,,,
220785,001,2022-11-20_17h52.16.956,Info_measure_main_exp,2022.2.2,Win32,143.2664756,,,,,,,,,,,,,,,,,,masks/mask_002.jpg,,,,,,,,,,,,,,,,,,,,,,,,,,,,,,,,,,,,,,,,,,,0,4,4,1,1,,,,,,,,,,,,,,,,,,,,,,,,,,,,,,,,,,,,,,,,,,,,,,
220785,001,2022-11-20_17h52.16.956,Info_measure_main_exp,2022.2.2,Win32,143.2664756,,,,,,,,,,,,,,,,,,masks/mask_005.jpg,,,,,,,,,,,,,,,,,,,,,,,,,,,,,,,,,,,,,,,,,,,,,,,,0,0,0,4,1,,,,,,,,,,,,,,,,,,,,,,,,,,,,,,,,,,,,,,,,,
220785,001,2022-11-20_17h52.16.956,Info_measure_main_exp,2022.2.2,Win32,143.2664756,,,,,,,,,,,,,,,,,,masks/mask_003.jpg,,,,,,,,,,,,,,,,,,,,,,,,,,,,,,,,,,,,,,,,,,,,,,,,0,1,1,2,1,,,,,,,,,,,,,,,,,,,,,,,,,,,,,,,,,,,,,,,,,
220785,001,2022-11-20_17h52.16.956,Info_measure_main_exp,2022.2.2,Win32,143.2664756,,,,,,,,,,,,,,,,,,masks/mask_002.jpg,,,,,,,,,,,,,,,,,,,,,,,,,,,,,,,,,,,,,,,,,,,,,,,,0,2,2,1,1,,,,,,,,,,,,,,,,,,,,,,,,,,,,,,,,,,,,,,,,,
220785,001,2022-11-20_17h52.16.956,Info_measure_main_exp,2022.2.2,Win32,143.2664756,,,,,,,,,,,,,,,,,,masks/mask_001.jpg,,,,,,,,,,,,,,,,,,,,,,,,,,,,,,,,,,,,,,,,,,,,,,,,0,3,3,0,1,,,,,,,,,,,,,,,,,,,,,,,,,,,,,,,,,,,,,,,,,
220785,001,2022-11-20_17h52.16.956,Info_measure_main_exp,2022.2.2,Win32,143.2664756,,,,,,,,,,,,,,,,,,masks/mask_004.jpg,,,,,,,,,,,,,,,,,,,,,,,,,,,,,,,,,,,,,,,,,,,,,,,,0,4,4,3,1,,,,,,,,,,,,,,,,,,,,,,,,,,,,,,,,,,,,,,,,,
220785,001,2022-11-20_17h52.16.956,Info_measure_main_exp,2022.2.2,Win32,143.2664756,,,,,,,,,,,,,,,,,,,,,,,,,,,,,,6,4.5064,1,,,,,,,,,,,,1,131,5,5,1,2166,present_patch/cong_131_5_a.jpg,absent_patch/patch0002166.jpg,,,,,,,,,,,,,,,,,,,,0.100925926,0.02962963,1,0,0,response1disk,17,-0.000925926,0.002777778,1,0,0,center_square,0,16,16,54,1,,,,,,,,,,,,,,,,,,,,,,,
220785,001,2022-11-20_17h52.16.956,Info_measure_main_exp,2022.2.2,Win32,143.2664756,,,,,,,,,,,,,,,,,,masks/mask_004.jpg,,,,,,,,,,,,,,,,,,,,,,,,,,,,,,,,,,,,,,,,,,,0,0,0,3,1,,,,,,,,,,,,,,,,,,,,,,,,,,,,,,,,,,,,,,,,,,,,,,
220785,001,2022-11-20_17h52.16.956,Info_measure_main_exp,2022.2.2,Win32,143.2664756,,,,,,,,,,,,,,,,,,masks/mask_001.jpg,,,,,,,,,,,,,,,,,,,,,,,,,,,,,,,,,,,,,,,,,,,0,1,1,0,1,,,,,,,,,,,,,,,,,,,,,,,,,,,,,,,,,,,,,,,,,,,,,,
220785,001,2022-11-20_17h52.16.956,Info_measure_main_exp,2022.2.2,Win32,143.2664756,,,,,,,,,,,,,,,,,,masks/mask_005.jpg,,,,,,,,,,,,,,,,,,,,,,,,,,,,,,,,,,,,,,,,,,,0,2,2,4,1,,,,,,,,,,,,,,,,,,,,,,,,,,,,,,,,,,,,,,,,,,,,,,
220785,001,2022-11-20_17h52.16.956,Info_measure_main_exp,2022.2.2,Win32,143.2664756,,,,,,,,,,,,,,,,,,masks/mask_002.jpg,,,,,,,,,,,,,,,,,,,,,,,,,,,,,,,,,,,,,,,,,,,0,3,3,1,1,,,,,,,,,,,,,,,,,,,,,,,,,,,,,,,,,,,,,,,,,,,,,,
220785,001,2022-11-20_17h52.16.956,Info_measure_main_exp,2022.2.2,Win32,143.2664756,,,,,,,,,,,,,,,,,,masks/mask_003.jpg,,,,,,,,,,,,,,,,,,,,,,,,,,,,,,,,,,,,,,,,,,,0,4,4,2,1,,,,,,,,,,,,,,,,,,,,,,,,,,,,,,,,,,,,,,,,,,,,,,
220785,001,2022-11-20_17h52.16.956,Info_measure_main_exp,2022.2.2,Win32,143.2664756,,,,,,,,,,,,,,,,,,masks/mask_002.jpg,,,,,,,,,,,,,,,,,,,,,,,,,,,,,,,,,,,,,,,,,,,,,,,,0,0,0,1,1,,,,,,,,,,,,,,,,,,,,,,,,,,,,,,,,,,,,,,,,,
220785,001,2022-11-20_17h52.16.956,Info_measure_main_exp,2022.2.2,Win32,143.2664756,,,,,,,,,,,,,,,,,,masks/mask_005.jpg,,,,,,,,,,,,,,,,,,,,,,,,,,,,,,,,,,,,,,,,,,,,,,,,0,1,1,4,1,,,,,,,,,,,,,,,,,,,,,,,,,,,,,,,,,,,,,,,,,
220785,001,2022-11-20_17h52.16.956,Info_measure_main_exp,2022.2.2,Win32,143.2664756,,,,,,,,,,,,,,,,,,masks/mask_003.jpg,,,,,,,,,,,,,,,,,,,,,,,,,,,,,,,,,,,,,,,,,,,,,,,,0,2,2,2,1,,,,,,,,,,,,,,,,,,,,,,,,,,,,,,,,,,,,,,,,,
220785,001,2022-11-20_17h52.16.956,Info_measure_main_exp,2022.2.2,Win32,143.2664756,,,,,,,,,,,,,,,,,,masks/mask_001.jpg,,,,,,,,,,,,,,,,,,,,,,,,,,,,,,,,,,,,,,,,,,,,,,,,0,3,3,0,1,,,,,,,,,,,,,,,,,,,,,,,,,,,,,,,,,,,,,,,,,
220785,001,2022-11-20_17h52.16.956,Info_measure_main_exp,2022.2.2,Win32,143.2664756,,,,,,,,,,,,,,,,,,masks/mask_004.jpg,,,,,,,,,,,,,,,,,,,,,,,,,,,,,,,,,,,,,,,,,,,,,,,,0,4,4,3,1,,,,,,,,,,,,,,,,,,,,,,,,,,,,,,,,,,,,,,,,,
220785,001,2022-11-20_17h52.16.956,Info_measure_main_exp,2022.2.2,Win32,143.2664756,,,,,,,,,,,,,,,,,,,,,,,,,,,,,,5,1.3986,1,,,,,,,,,,,,0,131,5,5,1986,2274,absent_patch/patch0001986.jpg,absent_patch/patch0002274.jpg,,,,,,,,,,,,,,,,,,,,0.048148148,-0.026851852,1,0,0,response3disk,18,0,-0.003703704,1,0,0,center_square,0,17,17,7,1,,,,,,,,,,,,,,,,,,,,,,,
220785,001,2022-11-20_17h52.16.956,Info_measure_main_exp,2022.2.2,Win32,143.2664756,,,,,,,,,,,,,,,,,,masks/mask_001.jpg,,,,,,,,,,,,,,,,,,,,,,,,,,,,,,,,,,,,,,,,,,,0,0,0,0,1,,,,,,,,,,,,,,,,,,,,,,,,,,,,,,,,,,,,,,,,,,,,,,
220785,001,2022-11-20_17h52.16.956,Info_measure_main_exp,2022.2.2,Win32,143.2664756,,,,,,,,,,,,,,,,,,masks/mask_005.jpg,,,,,,,,,,,,,,,,,,,,,,,,,,,,,,,,,,,,,,,,,,,0,1,1,4,1,,,,,,,,,,,,,,,,,,,,,,,,,,,,,,,,,,,,,,,,,,,,,,
220785,001,2022-11-20_17h52.16.956,Info_measure_main_exp,2022.2.2,Win32,143.2664756,,,,,,,,,,,,,,,,,,masks/mask_003.jpg,,,,,,,,,,,,,,,,,,,,,,,,,,,,,,,,,,,,,,,,,,,0,2,2,2,1,,,,,,,,,,,,,,,,,,,,,,,,,,,,,,,,,,,,,,,,,,,,,,
220785,001,2022-11-20_17h52.16.956,Info_measure_main_exp,2022.2.2,Win32,143.2664756,,,,,,,,,,,,,,,,,,masks/mask_002.jpg,,,,,,,,,,,,,,,,,,,,,,,,,,,,,,,,,,,,,,,,,,,0,3,3,1,1,,,,,,,,,,,,,,,,,,,,,,,,,,,,,,,,,,,,,,,,,,,,,,
220785,001,2022-11-20_17h52.16.956,Info_measure_main_exp,2022.2.2,Win32,143.2664756,,,,,,,,,,,,,,,,,,masks/mask_004.jpg,,,,,,,,,,,,,,,,,,,,,,,,,,,,,,,,,,,,,,,,,,,0,4,4,3,1,,,,,,,,,,,,,,,,,,,,,,,,,,,,,,,,,,,,,,,,,,,,,,
220785,001,2022-11-20_17h52.16.956,Info_measure_main_exp,2022.2.2,Win32,143.2664756,,,,,,,,,,,,,,,,,,masks/mask_005.jpg,,,,,,,,,,,,,,,,,,,,,,,,,,,,,,,,,,,,,,,,,,,,,,,,0,0,0,4,1,,,,,,,,,,,,,,,,,,,,,,,,,,,,,,,,,,,,,,,,,
220785,001,2022-11-20_17h52.16.956,Info_measure_main_exp,2022.2.2,Win32,143.2664756,,,,,,,,,,,,,,,,,,masks/mask_001.jpg,,,,,,,,,,,,,,,,,,,,,,,,,,,,,,,,,,,,,,,,,,,,,,,,0,1,1,0,1,,,,,,,,,,,,,,,,,,,,,,,,,,,,,,,,,,,,,,,,,
220785,001,2022-11-20_17h52.16.956,Info_measure_main_exp,2022.2.2,Win32,143.2664756,,,,,,,,,,,,,,,,,,masks/mask_004.jpg,,,,,,,,,,,,,,,,,,,,,,,,,,,,,,,,,,,,,,,,,,,,,,,,0,2,2,3,1,,,,,,,,,,,,,,,,,,,,,,,,,,,,,,,,,,,,,,,,,
220785,001,2022-11-20_17h52.16.956,Info_measure_main_exp,2022.2.2,Win32,143.2664756,,,,,,,,,,,,,,,,,,masks/mask_002.jpg,,,,,,,,,,,,,,,,,,,,,,,,,,,,,,,,,,,,,,,,,,,,,,,,0,3,3,1,1,,,,,,,,,,,,,,,,,,,,,,,,,,,,,,,,,,,,,,,,,
220785,001,2022-11-20_17h52.16.956,Info_measure_main_exp,2022.2.2,Win32,143.2664756,,,,,,,,,,,,,,,,,,masks/mask_003.jpg,,,,,,,,,,,,,,,,,,,,,,,,,,,,,,,,,,,,,,,,,,,,,,,,0,4,4,2,1,,,,,,,,,,,,,,,,,,,,,,,,,,,,,,,,,,,,,,,,,
220785,001,2022-11-20_17h52.16.956,Info_measure_main_exp,2022.2.2,Win32,143.2664756,,,,,,,,,,,,,,,,,,,,,,,,,,,,,,7,1.9509,1,,,,,,,,,,,,0,131,5,5,2166,2298,absent_patch/patch0002166.jpg,absent_patch/patch0002298.jpg,,,,,,,,,,,,,,,,,,,,0.062962963,0.078703704,1,0,0,response1disk,19,-0.002777778,-0.002777778,1,0,0,center_square,0,18,18,52,1,,,,,,,,,,,,,,,,,,,,,,,
220785,001,2022-11-20_17h52.16.956,Info_measure_main_exp,2022.2.2,Win32,143.2664756,,,,,,,,,,,,,,,,,,masks/mask_004.jpg,,,,,,,,,,,,,,,,,,,,,,,,,,,,,,,,,,,,,,,,,,,0,0,0,3,1,,,,,,,,,,,,,,,,,,,,,,,,,,,,,,,,,,,,,,,,,,,,,,
220785,001,2022-11-20_17h52.16.956,Info_measure_main_exp,2022.2.2,Win32,143.2664756,,,,,,,,,,,,,,,,,,masks/mask_003.jpg,,,,,,,,,,,,,,,,,,,,,,,,,,,,,,,,,,,,,,,,,,,0,1,1,2,1,,,,,,,,,,,,,,,,,,,,,,,,,,,,,,,,,,,,,,,,,,,,,,
220785,001,2022-11-20_17h52.16.956,Info_measure_main_exp,2022.2.2,Win32,143.2664756,,,,,,,,,,,,,,,,,,masks/mask_005.jpg,,,,,,,,,,,,,,,,,,,,,,,,,,,,,,,,,,,,,,,,,,,0,2,2,4,1,,,,,,,,,,,,,,,,,,,,,,,,,,,,,,,,,,,,,,,,,,,,,,
220785,001,2022-11-20_17h52.16.956,Info_measure_main_exp,2022.2.2,Win32,143.2664756,,,,,,,,,,,,,,,,,,masks/mask_001.jpg,,,,,,,,,,,,,,,,,,,,,,,,,,,,,,,,,,,,,,,,,,,0,3,3,0,1,,,,,,,,,,,,,,,,,,,,,,,,,,,,,,,,,,,,,,,,,,,,,,
220785,001,2022-11-20_17h52.16.956,Info_measure_main_exp,2022.2.2,Win32,143.2664756,,,,,,,,,,,,,,,,,,masks/mask_002.jpg,,,,,,,,,,,,,,,,,,,,,,,,,,,,,,,,,,,,,,,,,,,0,4,4,1,1,,,,,,,,,,,,,,,,,,,,,,,,,,,,,,,,,,,,,,,,,,,,,,
220785,001,2022-11-20_17h52.16.956,Info_measure_main_exp,2022.2.2,Win32,143.2664756,,,,,,,,,,,,,,,,,,masks/mask_001.jpg,,,,,,,,,,,,,,,,,,,,,,,,,,,,,,,,,,,,,,,,,,,,,,,,0,0,0,0,1,,,,,,,,,,,,,,,,,,,,,,,,,,,,,,,,,,,,,,,,,
220785,001,2022-11-20_17h52.16.956,Info_measure_main_exp,2022.2.2,Win32,143.2664756,,,,,,,,,,,,,,,,,,masks/mask_003.jpg,,,,,,,,,,,,,,,,,,,,,,,,,,,,,,,,,,,,,,,,,,,,,,,,0,1,1,2,1,,,,,,,,,,,,,,,,,,,,,,,,,,,,,,,,,,,,,,,,,
220785,001,2022-11-20_17h52.16.956,Info_measure_main_exp,2022.2.2,Win32,143.2664756,,,,,,,,,,,,,,,,,,masks/mask_002.jpg,,,,,,,,,,,,,,,,,,,,,,,,,,,,,,,,,,,,,,,,,,,,,,,,0,2,2,1,1,,,,,,,,,,,,,,,,,,,,,,,,,,,,,,,,,,,,,,,,,
220785,001,2022-11-20_17h52.16.956,Info_measure_main_exp,2022.2.2,Win32,143.2664756,,,,,,,,,,,,,,,,,,masks/mask_004.jpg,,,,,,,,,,,,,,,,,,,,,,,,,,,,,,,,,,,,,,,,,,,,,,,,0,3,3,3,1,,,,,,,,,,,,,,,,,,,,,,,,,,,,,,,,,,,,,,,,,
220785,001,2022-11-20_17h52.16.956,Info_measure_main_exp,2022.2.2,Win32,143.2664756,,,,,,,,,,,,,,,,,,masks/mask_005.jpg,,,,,,,,,,,,,,,,,,,,,,,,,,,,,,,,,,,,,,,,,,,,,,,,0,4,4,4,1,,,,,,,,,,,,,,,,,,,,,,,,,,,,,,,,,,,,,,,,,
220785,001,2022-11-20_17h52.16.956,Info_measure_main_exp,2022.2.2,Win32,143.2664756,,,,,,,,,,,,,,,,,,,,,,,,,,,,,,4,2.2637,1,,,,,,,,,,,,0,131,5,5,1986,2238,absent_patch/patch0001986.jpg,absent_patch/patch0002238.jpg,,,,,,,,,,,,,,,,,,,,0.019444444,-0.085185185,1,0,0,response3disk,20,0.003703704,0,1,0,0,center_square,0,19,19,31,1,,,,,,,,,,,,,,,,,,,,,,,
220785,001,2022-11-20_17h52.16.956,Info_measure_main_exp,2022.2.2,Win32,143.2664756,,,,,,,,,,,,,,,,,,masks/mask_003.jpg,,,,,,,,,,,,,,,,,,,,,,,,,,,,,,,,,,,,,,,,,,,0,0,0,2,1,,,,,,,,,,,,,,,,,,,,,,,,,,,,,,,,,,,,,,,,,,,,,,
220785,001,2022-11-20_17h52.16.956,Info_measure_main_exp,2022.2.2,Win32,143.2664756,,,,,,,,,,,,,,,,,,masks/mask_002.jpg,,,,,,,,,,,,,,,,,,,,,,,,,,,,,,,,,,,,,,,,,,,0,1,1,1,1,,,,,,,,,,,,,,,,,,,,,,,,,,,,,,,,,,,,,,,,,,,,,,
220785,001,2022-11-20_17h52.16.956,Info_measure_main_exp,2022.2.2,Win32,143.2664756,,,,,,,,,,,,,,,,,,masks/mask_004.jpg,,,,,,,,,,,,,,,,,,,,,,,,,,,,,,,,,,,,,,,,,,,0,2,2,3,1,,,,,,,,,,,,,,,,,,,,,,,,,,,,,,,,,,,,,,,,,,,,,,
220785,001,2022-11-20_17h52.16.956,Info_measure_main_exp,2022.2.2,Win32,143.2664756,,,,,,,,,,,,,,,,,,masks/mask_001.jpg,,,,,,,,,,,,,,,,,,,,,,,,,,,,,,,,,,,,,,,,,,,0,3,3,0,1,,,,,,,,,,,,,,,,,,,,,,,,,,,,,,,,,,,,,,,,,,,,,,
220785,001,2022-11-20_17h52.16.956,Info_measure_main_exp,2022.2.2,Win32,143.2664756,,,,,,,,,,,,,,,,,,masks/mask_005.jpg,,,,,,,,,,,,,,,,,,,,,,,,,,,,,,,,,,,,,,,,,,,0,4,4,4,1,,,,,,,,,,,,,,,,,,,,,,,,,,,,,,,,,,,,,,,,,,,,,,
220785,001,2022-11-20_17h52.16.956,Info_measure_main_exp,2022.2.2,Win32,143.2664756,,,,,,,,,,,,,,,,,,masks/mask_005.jpg,,,,,,,,,,,,,,,,,,,,,,,,,,,,,,,,,,,,,,,,,,,,,,,,0,0,0,4,1,,,,,,,,,,,,,,,,,,,,,,,,,,,,,,,,,,,,,,,,,
220785,001,2022-11-20_17h52.16.956,Info_measure_main_exp,2022.2.2,Win32,143.2664756,,,,,,,,,,,,,,,,,,masks/mask_002.jpg,,,,,,,,,,,,,,,,,,,,,,,,,,,,,,,,,,,,,,,,,,,,,,,,0,1,1,1,1,,,,,,,,,,,,,,,,,,,,,,,,,,,,,,,,,,,,,,,,,
220785,001,2022-11-20_17h52.16.956,Info_measure_main_exp,2022.2.2,Win32,143.2664756,,,,,,,,,,,,,,,,,,masks/mask_004.jpg,,,,,,,,,,,,,,,,,,,,,,,,,,,,,,,,,,,,,,,,,,,,,,,,0,2,2,3,1,,,,,,,,,,,,,,,,,,,,,,,,,,,,,,,,,,,,,,,,,
220785,001,2022-11-20_17h52.16.956,Info_measure_main_exp,2022.2.2,Win32,143.2664756,,,,,,,,,,,,,,,,,,masks/mask_003.jpg,,,,,,,,,,,,,,,,,,,,,,,,,,,,,,,,,,,,,,,,,,,,,,,,0,3,3,2,1,,,,,,,,,,,,,,,,,,,,,,,,,,,,,,,,,,,,,,,,,
220785,001,2022-11-20_17h52.16.956,Info_measure_main_exp,2022.2.2,Win32,143.2664756,,,,,,,,,,,,,,,,,,masks/mask_001.jpg,,,,,,,,,,,,,,,,,,,,,,,,,,,,,,,,,,,,,,,,,,,,,,,,0,4,4,0,1,,,,,,,,,,,,,,,,,,,,,,,,,,,,,,,,,,,,,,,,,
220785,001,2022-11-20_17h52.16.956,Info_measure_main_exp,2022.2.2,Win32,143.2664756,,,,,,,,,,,,,,,,,,,,,,,,,,,,,,5,2.2636,1,,,,,,,,,,,,0,131,5,5,2274,2154,absent_patch/patch0002274.jpg,absent_patch/patch0002154.jpg,,,,,,,,,,,,,,,,,,,,0.072222222,-0.023148148,1,0,0,response3disk,21,0.008333333,-0.001851852,1,0,0,center_square,0,20,20,23,1,,,,,,,,,,,,,,,,,,,,,,,
220785,001,2022-11-20_17h52.16.956,Info_measure_main_exp,2022.2.2,Win32,143.2664756,,,,,,,,,,,,,,,,,,masks/mask_004.jpg,,,,,,,,,,,,,,,,,,,,,,,,,,,,,,,,,,,,,,,,,,,0,0,0,3,1,,,,,,,,,,,,,,,,,,,,,,,,,,,,,,,,,,,,,,,,,,,,,,
220785,001,2022-11-20_17h52.16.956,Info_measure_main_exp,2022.2.2,Win32,143.2664756,,,,,,,,,,,,,,,,,,masks/mask_001.jpg,,,,,,,,,,,,,,,,,,,,,,,,,,,,,,,,,,,,,,,,,,,0,1,1,0,1,,,,,,,,,,,,,,,,,,,,,,,,,,,,,,,,,,,,,,,,,,,,,,
220785,001,2022-11-20_17h52.16.956,Info_measure_main_exp,2022.2.2,Win32,143.2664756,,,,,,,,,,,,,,,,,,masks/mask_005.jpg,,,,,,,,,,,,,,,,,,,,,,,,,,,,,,,,,,,,,,,,,,,0,2,2,4,1,,,,,,,,,,,,,,,,,,,,,,,,,,,,,,,,,,,,,,,,,,,,,,
220785,001,2022-11-20_17h52.16.956,Info_measure_main_exp,2022.2.2,Win32,143.2664756,,,,,,,,,,,,,,,,,,masks/mask_002.jpg,,,,,,,,,,,,,,,,,,,,,,,,,,,,,,,,,,,,,,,,,,,0,3,3,1,1,,,,,,,,,,,,,,,,,,,,,,,,,,,,,,,,,,,,,,,,,,,,,,
220785,001,2022-11-20_17h52.16.956,Info_measure_main_exp,2022.2.2,Win32,143.2664756,,,,,,,,,,,,,,,,,,masks/mask_003.jpg,,,,,,,,,,,,,,,,,,,,,,,,,,,,,,,,,,,,,,,,,,,0,4,4,2,1,,,,,,,,,,,,,,,,,,,,,,,,,,,,,,,,,,,,,,,,,,,,,,
220785,001,2022-11-20_17h52.16.956,Info_measure_main_exp,2022.2.2,Win32,143.2664756,,,,,,,,,,,,,,,,,,masks/mask_002.jpg,,,,,,,,,,,,,,,,,,,,,,,,,,,,,,,,,,,,,,,,,,,,,,,,0,0,0,1,1,,,,,,,,,,,,,,,,,,,,,,,,,,,,,,,,,,,,,,,,,
220785,001,2022-11-20_17h52.16.956,Info_measure_main_exp,2022.2.2,Win32,143.2664756,,,,,,,,,,,,,,,,,,masks/mask_005.jpg,,,,,,,,,,,,,,,,,,,,,,,,,,,,,,,,,,,,,,,,,,,,,,,,0,1,1,4,1,,,,,,,,,,,,,,,,,,,,,,,,,,,,,,,,,,,,,,,,,
220785,001,2022-11-20_17h52.16.956,Info_measure_main_exp,2022.2.2,Win32,143.2664756,,,,,,,,,,,,,,,,,,masks/mask_001.jpg,,,,,,,,,,,,,,,,,,,,,,,,,,,,,,,,,,,,,,,,,,,,,,,,0,2,2,0,1,,,,,,,,,,,,,,,,,,,,,,,,,,,,,,,,,,,,,,,,,
220785,001,2022-11-20_17h52.16.956,Info_measure_main_exp,2022.2.2,Win32,143.2664756,,,,,,,,,,,,,,,,,,masks/mask_003.jpg,,,,,,,,,,,,,,,,,,,,,,,,,,,,,,,,,,,,,,,,,,,,,,,,0,3,3,2,1,,,,,,,,,,,,,,,,,,,,,,,,,,,,,,,,,,,,,,,,,
220785,001,2022-11-20_17h52.16.956,Info_measure_main_exp,2022.2.2,Win32,143.2664756,,,,,,,,,,,,,,,,,,masks/mask_004.jpg,,,,,,,,,,,,,,,,,,,,,,,,,,,,,,,,,,,,,,,,,,,,,,,,0,4,4,3,1,,,,,,,,,,,,,,,,,,,,,,,,,,,,,,,,,,,,,,,,,
220785,001,2022-11-20_17h52.16.956,Info_measure_main_exp,2022.2.2,Win32,143.2664756,,,,,,,,,,,,,,,,,,,,,,,,,,,,,,3,1.9584,1,,,,,,,,,,,,1,131,5,5,2238,1,absent_patch/patch0002238.jpg,present_patch/cong_131_5_a.jpg,,,,,,,,,,,,,,,,,,,,-0.039814815,-0.081481481,1,0,0,response5disk,22,0.000925926,-0.005555556,1,0,0,center_square,0,21,21,104,1,,,,,,,,,,,,,,,,,,,,,,,
220785,001,2022-11-20_17h52.16.956,Info_measure_main_exp,2022.2.2,Win32,143.2664756,,,,,,,,,,,,,,,,,,masks/mask_002.jpg,,,,,,,,,,,,,,,,,,,,,,,,,,,,,,,,,,,,,,,,,,,0,0,0,1,1,,,,,,,,,,,,,,,,,,,,,,,,,,,,,,,,,,,,,,,,,,,,,,
220785,001,2022-11-20_17h52.16.956,Info_measure_main_exp,2022.2.2,Win32,143.2664756,,,,,,,,,,,,,,,,,,masks/mask_003.jpg,,,,,,,,,,,,,,,,,,,,,,,,,,,,,,,,,,,,,,,,,,,0,1,1,2,1,,,,,,,,,,,,,,,,,,,,,,,,,,,,,,,,,,,,,,,,,,,,,,
220785,001,2022-11-20_17h52.16.956,Info_measure_main_exp,2022.2.2,Win32,143.2664756,,,,,,,,,,,,,,,,,,masks/mask_004.jpg,,,,,,,,,,,,,,,,,,,,,,,,,,,,,,,,,,,,,,,,,,,0,2,2,3,1,,,,,,,,,,,,,,,,,,,,,,,,,,,,,,,,,,,,,,,,,,,,,,
220785,001,2022-11-20_17h52.16.956,Info_measure_main_exp,2022.2.2,Win32,143.2664756,,,,,,,,,,,,,,,,,,masks/mask_001.jpg,,,,,,,,,,,,,,,,,,,,,,,,,,,,,,,,,,,,,,,,,,,0,3,3,0,1,,,,,,,,,,,,,,,,,,,,,,,,,,,,,,,,,,,,,,,,,,,,,,
220785,001,2022-11-20_17h52.16.956,Info_measure_main_exp,2022.2.2,Win32,143.2664756,,,,,,,,,,,,,,,,,,masks/mask_005.jpg,,,,,,,,,,,,,,,,,,,,,,,,,,,,,,,,,,,,,,,,,,,0,4,4,4,1,,,,,,,,,,,,,,,,,,,,,,,,,,,,,,,,,,,,,,,,,,,,,,
220785,001,2022-11-20_17h52.16.956,Info_measure_main_exp,2022.2.2,Win32,143.2664756,,,,,,,,,,,,,,,,,,masks/mask_005.jpg,,,,,,,,,,,,,,,,,,,,,,,,,,,,,,,,,,,,,,,,,,,,,,,,0,0,0,4,1,,,,,,,,,,,,,,,,,,,,,,,,,,,,,,,,,,,,,,,,,
220785,001,2022-11-20_17h52.16.956,Info_measure_main_exp,2022.2.2,Win32,143.2664756,,,,,,,,,,,,,,,,,,masks/mask_003.jpg,,,,,,,,,,,,,,,,,,,,,,,,,,,,,,,,,,,,,,,,,,,,,,,,0,1,1,2,1,,,,,,,,,,,,,,,,,,,,,,,,,,,,,,,,,,,,,,,,,
220785,001,2022-11-20_17h52.16.956,Info_measure_main_exp,2022.2.2,Win32,143.2664756,,,,,,,,,,,,,,,,,,masks/mask_001.jpg,,,,,,,,,,,,,,,,,,,,,,,,,,,,,,,,,,,,,,,,,,,,,,,,0,2,2,0,1,,,,,,,,,,,,,,,,,,,,,,,,,,,,,,,,,,,,,,,,,
220785,001,2022-11-20_17h52.16.956,Info_measure_main_exp,2022.2.2,Win32,143.2664756,,,,,,,,,,,,,,,,,,masks/mask_002.jpg,,,,,,,,,,,,,,,,,,,,,,,,,,,,,,,,,,,,,,,,,,,,,,,,0,3,3,1,1,,,,,,,,,,,,,,,,,,,,,,,,,,,,,,,,,,,,,,,,,
220785,001,2022-11-20_17h52.16.956,Info_measure_main_exp,2022.2.2,Win32,143.2664756,,,,,,,,,,,,,,,,,,masks/mask_004.jpg,,,,,,,,,,,,,,,,,,,,,,,,,,,,,,,,,,,,,,,,,,,,,,,,0,4,4,3,1,,,,,,,,,,,,,,,,,,,,,,,,,,,,,,,,,,,,,,,,,
220785,001,2022-11-20_17h52.16.956,Info_measure_main_exp,2022.2.2,Win32,143.2664756,,,,,,,,,,,,,,,,,,,,,,,,,,,,,,0,0.8882,1,,,,,,,,,,,,0,131,5,5,2238,2238,absent_patch/patch0002238.jpg,absent_patch/patch0002238.jpg,,,,,,,,,,,,,,,,,,,,-0.042592593,0.087037037,1,0,0,response7disk,23,-0.008333333,0.014814815,1,0,0,center_square,0,22,22,58,1,,,,,,,,,,,,,,,,,,,,,,,
220785,001,2022-11-20_17h52.16.956,Info_measure_main_exp,2022.2.2,Win32,143.2664756,,,,,,,,,,,,,,,,,,masks/mask_001.jpg,,,,,,,,,,,,,,,,,,,,,,,,,,,,,,,,,,,,,,,,,,,0,0,0,0,1,,,,,,,,,,,,,,,,,,,,,,,,,,,,,,,,,,,,,,,,,,,,,,
220785,001,2022-11-20_17h52.16.956,Info_measure_main_exp,2022.2.2,Win32,143.2664756,,,,,,,,,,,,,,,,,,masks/mask_004.jpg,,,,,,,,,,,,,,,,,,,,,,,,,,,,,,,,,,,,,,,,,,,0,1,1,3,1,,,,,,,,,,,,,,,,,,,,,,,,,,,,,,,,,,,,,,,,,,,,,,
220785,001,2022-11-20_17h52.16.956,Info_measure_main_exp,2022.2.2,Win32,143.2664756,,,,,,,,,,,,,,,,,,masks/mask_002.jpg,,,,,,,,,,,,,,,,,,,,,,,,,,,,,,,,,,,,,,,,,,,0,2,2,1,1,,,,,,,,,,,,,,,,,,,,,,,,,,,,,,,,,,,,,,,,,,,,,,
220785,001,2022-11-20_17h52.16.956,Info_measure_main_exp,2022.2.2,Win32,143.2664756,,,,,,,,,,,,,,,,,,masks/mask_003.jpg,,,,,,,,,,,,,,,,,,,,,,,,,,,,,,,,,,,,,,,,,,,0,3,3,2,1,,,,,,,,,,,,,,,,,,,,,,,,,,,,,,,,,,,,,,,,,,,,,,
220785,001,2022-11-20_17h52.16.956,Info_measure_main_exp,2022.2.2,Win32,143.2664756,,,,,,,,,,,,,,,,,,masks/mask_005.jpg,,,,,,,,,,,,,,,,,,,,,,,,,,,,,,,,,,,,,,,,,,,0,4,4,4,1,,,,,,,,,,,,,,,,,,,,,,,,,,,,,,,,,,,,,,,,,,,,,,
220785,001,2022-11-20_17h52.16.956,Info_measure_main_exp,2022.2.2,Win32,143.2664756,,,,,,,,,,,,,,,,,,masks/mask_005.jpg,,,,,,,,,,,,,,,,,,,,,,,,,,,,,,,,,,,,,,,,,,,,,,,,0,0,0,4,1,,,,,,,,,,,,,,,,,,,,,,,,,,,,,,,,,,,,,,,,,
220785,001,2022-11-20_17h52.16.956,Info_measure_main_exp,2022.2.2,Win32,143.2664756,,,,,,,,,,,,,,,,,,masks/mask_002.jpg,,,,,,,,,,,,,,,,,,,,,,,,,,,,,,,,,,,,,,,,,,,,,,,,0,1,1,1,1,,,,,,,,,,,,,,,,,,,,,,,,,,,,,,,,,,,,,,,,,
220785,001,2022-11-20_17h52.16.956,Info_measure_main_exp,2022.2.2,Win32,143.2664756,,,,,,,,,,,,,,,,,,masks/mask_003.jpg,,,,,,,,,,,,,,,,,,,,,,,,,,,,,,,,,,,,,,,,,,,,,,,,0,2,2,2,1,,,,,,,,,,,,,,,,,,,,,,,,,,,,,,,,,,,,,,,,,
220785,001,2022-11-20_17h52.16.956,Info_measure_main_exp,2022.2.2,Win32,143.2664756,,,,,,,,,,,,,,,,,,masks/mask_004.jpg,,,,,,,,,,,,,,,,,,,,,,,,,,,,,,,,,,,,,,,,,,,,,,,,0,3,3,3,1,,,,,,,,,,,,,,,,,,,,,,,,,,,,,,,,,,,,,,,,,
220785,001,2022-11-20_17h52.16.956,Info_measure_main_exp,2022.2.2,Win32,143.2664756,,,,,,,,,,,,,,,,,,masks/mask_001.jpg,,,,,,,,,,,,,,,,,,,,,,,,,,,,,,,,,,,,,,,,,,,,,,,,0,4,4,0,1,,,,,,,,,,,,,,,,,,,,,,,,,,,,,,,,,,,,,,,,,
220785,001,2022-11-20_17h52.16.956,Info_measure_main_exp,2022.2.2,Win32,143.2664756,,,,,,,,,,,,,,,,,,,,,,,,,,,,,,7,2.3918,1,,,,,,,,,,,,0,131,5,5,2190,1986,absent_patch/patch0002190.jpg,absent_patch/patch0001986.jpg,,,,,,,,,,,,,,,,,,,,0.037962963,0.073148148,1,0,0,response1disk,24,-0.000925926,-0.000925926,1,0,0,center_square,0,23,23,111,1,,,,,,,,,,,,,,,,,,,,,,,
220785,001,2022-11-20_17h52.16.956,Info_measure_main_exp,2022.2.2,Win32,143.2664756,,,,,,,,,,,,,,,,,,masks/mask_004.jpg,,,,,,,,,,,,,,,,,,,,,,,,,,,,,,,,,,,,,,,,,,,0,0,0,3,1,,,,,,,,,,,,,,,,,,,,,,,,,,,,,,,,,,,,,,,,,,,,,,
220785,001,2022-11-20_17h52.16.956,Info_measure_main_exp,2022.2.2,Win32,143.2664756,,,,,,,,,,,,,,,,,,masks/mask_002.jpg,,,,,,,,,,,,,,,,,,,,,,,,,,,,,,,,,,,,,,,,,,,0,1,1,1,1,,,,,,,,,,,,,,,,,,,,,,,,,,,,,,,,,,,,,,,,,,,,,,
220785,001,2022-11-20_17h52.16.956,Info_measure_main_exp,2022.2.2,Win32,143.2664756,,,,,,,,,,,,,,,,,,masks/mask_003.jpg,,,,,,,,,,,,,,,,,,,,,,,,,,,,,,,,,,,,,,,,,,,0,2,2,2,1,,,,,,,,,,,,,,,,,,,,,,,,,,,,,,,,,,,,,,,,,,,,,,
220785,001,2022-11-20_17h52.16.956,Info_measure_main_exp,2022.2.2,Win32,143.2664756,,,,,,,,,,,,,,,,,,masks/mask_005.jpg,,,,,,,,,,,,,,,,,,,,,,,,,,,,,,,,,,,,,,,,,,,0,3,3,4,1,,,,,,,,,,,,,,,,,,,,,,,,,,,,,,,,,,,,,,,,,,,,,,
220785,001,2022-11-20_17h52.16.956,Info_measure_main_exp,2022.2.2,Win32,143.2664756,,,,,,,,,,,,,,,,,,masks/mask_001.jpg,,,,,,,,,,,,,,,,,,,,,,,,,,,,,,,,,,,,,,,,,,,0,4,4,0,1,,,,,,,,,,,,,,,,,,,,,,,,,,,,,,,,,,,,,,,,,,,,,,
220785,001,2022-11-20_17h52.16.956,Info_measure_main_exp,2022.2.2,Win32,143.2664756,,,,,,,,,,,,,,,,,,masks/mask_004.jpg,,,,,,,,,,,,,,,,,,,,,,,,,,,,,,,,,,,,,,,,,,,,,,,,0,0,0,3,1,,,,,,,,,,,,,,,,,,,,,,,,,,,,,,,,,,,,,,,,,
220785,001,2022-11-20_17h52.16.956,Info_measure_main_exp,2022.2.2,Win32,143.2664756,,,,,,,,,,,,,,,,,,masks/mask_003.jpg,,,,,,,,,,,,,,,,,,,,,,,,,,,,,,,,,,,,,,,,,,,,,,,,0,1,1,2,1,,,,,,,,,,,,,,,,,,,,,,,,,,,,,,,,,,,,,,,,,
220785,001,2022-11-20_17h52.16.956,Info_measure_main_exp,2022.2.2,Win32,143.2664756,,,,,,,,,,,,,,,,,,masks/mask_002.jpg,,,,,,,,,,,,,,,,,,,,,,,,,,,,,,,,,,,,,,,,,,,,,,,,0,2,2,1,1,,,,,,,,,,,,,,,,,,,,,,,,,,,,,,,,,,,,,,,,,
220785,001,2022-11-20_17h52.16.956,Info_measure_main_exp,2022.2.2,Win32,143.2664756,,,,,,,,,,,,,,,,,,masks/mask_001.jpg,,,,,,,,,,,,,,,,,,,,,,,,,,,,,,,,,,,,,,,,,,,,,,,,0,3,3,0,1,,,,,,,,,,,,,,,,,,,,,,,,,,,,,,,,,,,,,,,,,
220785,001,2022-11-20_17h52.16.956,Info_measure_main_exp,2022.2.2,Win32,143.2664756,,,,,,,,,,,,,,,,,,masks/mask_005.jpg,,,,,,,,,,,,,,,,,,,,,,,,,,,,,,,,,,,,,,,,,,,,,,,,0,4,4,4,1,,,,,,,,,,,,,,,,,,,,,,,,,,,,,,,,,,,,,,,,,
220785,001,2022-11-20_17h52.16.956,Info_measure_main_exp,2022.2.2,Win32,143.2664756,,,,,,,,,,,,,,,,,,,,,,,,,,,,,,0,0.9232,1,,,,,,,,,,,,0,131,5,5,2214,2214,absent_patch/patch0002214.jpg,absent_patch/patch0002214.jpg,,,,,,,,,,,,,,,,,,,,-0.034259259,0.081481481,1,0,0,response7disk,25,-0.008333333,0.011111111,1,0,0,center_square,0,24,24,115,1,,,,,,,,,,,,,,,,,,,,,,,
220785,001,2022-11-20_17h52.16.956,Info_measure_main_exp,2022.2.2,Win32,143.2664756,,,,,,,,,,,,,,,,,,masks/mask_002.jpg,,,,,,,,,,,,,,,,,,,,,,,,,,,,,,,,,,,,,,,,,,,0,0,0,1,1,,,,,,,,,,,,,,,,,,,,,,,,,,,,,,,,,,,,,,,,,,,,,,
220785,001,2022-11-20_17h52.16.956,Info_measure_main_exp,2022.2.2,Win32,143.2664756,,,,,,,,,,,,,,,,,,masks/mask_003.jpg,,,,,,,,,,,,,,,,,,,,,,,,,,,,,,,,,,,,,,,,,,,0,1,1,2,1,,,,,,,,,,,,,,,,,,,,,,,,,,,,,,,,,,,,,,,,,,,,,,
220785,001,2022-11-20_17h52.16.956,Info_measure_main_exp,2022.2.2,Win32,143.2664756,,,,,,,,,,,,,,,,,,masks/mask_001.jpg,,,,,,,,,,,,,,,,,,,,,,,,,,,,,,,,,,,,,,,,,,,0,2,2,0,1,,,,,,,,,,,,,,,,,,,,,,,,,,,,,,,,,,,,,,,,,,,,,,
220785,001,2022-11-20_17h52.16.956,Info_measure_main_exp,2022.2.2,Win32,143.2664756,,,,,,,,,,,,,,,,,,masks/mask_004.jpg,,,,,,,,,,,,,,,,,,,,,,,,,,,,,,,,,,,,,,,,,,,0,3,3,3,1,,,,,,,,,,,,,,,,,,,,,,,,,,,,,,,,,,,,,,,,,,,,,,
220785,001,2022-11-20_17h52.16.956,Info_measure_main_exp,2022.2.2,Win32,143.2664756,,,,,,,,,,,,,,,,,,masks/mask_005.jpg,,,,,,,,,,,,,,,,,,,,,,,,,,,,,,,,,,,,,,,,,,,0,4,4,4,1,,,,,,,,,,,,,,,,,,,,,,,,,,,,,,,,,,,,,,,,,,,,,,
220785,001,2022-11-20_17h52.16.956,Info_measure_main_exp,2022.2.2,Win32,143.2664756,,,,,,,,,,,,,,,,,,masks/mask_001.jpg,,,,,,,,,,,,,,,,,,,,,,,,,,,,,,,,,,,,,,,,,,,,,,,,0,0,0,0,1,,,,,,,,,,,,,,,,,,,,,,,,,,,,,,,,,,,,,,,,,
220785,001,2022-11-20_17h52.16.956,Info_measure_main_exp,2022.2.2,Win32,143.2664756,,,,,,,,,,,,,,,,,,masks/mask_002.jpg,,,,,,,,,,,,,,,,,,,,,,,,,,,,,,,,,,,,,,,,,,,,,,,,0,1,1,1,1,,,,,,,,,,,,,,,,,,,,,,,,,,,,,,,,,,,,,,,,,
220785,001,2022-11-20_17h52.16.956,Info_measure_main_exp,2022.2.2,Win32,143.2664756,,,,,,,,,,,,,,,,,,masks/mask_004.jpg,,,,,,,,,,,,,,,,,,,,,,,,,,,,,,,,,,,,,,,,,,,,,,,,0,2,2,3,1,,,,,,,,,,,,,,,,,,,,,,,,,,,,,,,,,,,,,,,,,
220785,001,2022-11-20_17h52.16.956,Info_measure_main_exp,2022.2.2,Win32,143.2664756,,,,,,,,,,,,,,,,,,masks/mask_003.jpg,,,,,,,,,,,,,,,,,,,,,,,,,,,,,,,,,,,,,,,,,,,,,,,,0,3,3,2,1,,,,,,,,,,,,,,,,,,,,,,,,,,,,,,,,,,,,,,,,,
220785,001,2022-11-20_17h52.16.956,Info_measure_main_exp,2022.2.2,Win32,143.2664756,,,,,,,,,,,,,,,,,,masks/mask_005.jpg,,,,,,,,,,,,,,,,,,,,,,,,,,,,,,,,,,,,,,,,,,,,,,,,0,4,4,4,1,,,,,,,,,,,,,,,,,,,,,,,,,,,,,,,,,,,,,,,,,
220785,001,2022-11-20_17h52.16.956,Info_measure_main_exp,2022.2.2,Win32,143.2664756,,,,,,,,,,,,,,,,,,,,,,,,,,,,,,4,2.7322,1,,,,,,,,,,,,0,131,5,5,2190,2214,absent_patch/patch0002190.jpg,absent_patch/patch0002214.jpg,,,,,,,,,,,,,,,,,,,,0.025925926,-0.152777778,1,0,0,response3disk,26,0.008333333,0.000925926,1,0,0,center_square,0,25,25,35,1,,,,,,,,,,,,,,,,,,,,,,,
220785,001,2022-11-20_17h52.16.956,Info_measure_main_exp,2022.2.2,Win32,143.2664756,,,,,,,,,,,,,,,,,,masks/mask_005.jpg,,,,,,,,,,,,,,,,,,,,,,,,,,,,,,,,,,,,,,,,,,,0,0,0,4,1,,,,,,,,,,,,,,,,,,,,,,,,,,,,,,,,,,,,,,,,,,,,,,
220785,001,2022-11-20_17h52.16.956,Info_measure_main_exp,2022.2.2,Win32,143.2664756,,,,,,,,,,,,,,,,,,masks/mask_001.jpg,,,,,,,,,,,,,,,,,,,,,,,,,,,,,,,,,,,,,,,,,,,0,1,1,0,1,,,,,,,,,,,,,,,,,,,,,,,,,,,,,,,,,,,,,,,,,,,,,,
220785,001,2022-11-20_17h52.16.956,Info_measure_main_exp,2022.2.2,Win32,143.2664756,,,,,,,,,,,,,,,,,,masks/mask_002.jpg,,,,,,,,,,,,,,,,,,,,,,,,,,,,,,,,,,,,,,,,,,,0,2,2,1,1,,,,,,,,,,,,,,,,,,,,,,,,,,,,,,,,,,,,,,,,,,,,,,
220785,001,2022-11-20_17h52.16.956,Info_measure_main_exp,2022.2.2,Win32,143.2664756,,,,,,,,,,,,,,,,,,masks/mask_004.jpg,,,,,,,,,,,,,,,,,,,,,,,,,,,,,,,,,,,,,,,,,,,0,3,3,3,1,,,,,,,,,,,,,,,,,,,,,,,,,,,,,,,,,,,,,,,,,,,,,,
220785,001,2022-11-20_17h52.16.956,Info_measure_main_exp,2022.2.2,Win32,143.2664756,,,,,,,,,,,,,,,,,,masks/mask_003.jpg,,,,,,,,,,,,,,,,,,,,,,,,,,,,,,,,,,,,,,,,,,,0,4,4,2,1,,,,,,,,,,,,,,,,,,,,,,,,,,,,,,,,,,,,,,,,,,,,,,
220785,001,2022-11-20_17h52.16.956,Info_measure_main_exp,2022.2.2,Win32,143.2664756,,,,,,,,,,,,,,,,,,masks/mask_003.jpg,,,,,,,,,,,,,,,,,,,,,,,,,,,,,,,,,,,,,,,,,,,,,,,,0,0,0,2,1,,,,,,,,,,,,,,,,,,,,,,,,,,,,,,,,,,,,,,,,,
220785,001,2022-11-20_17h52.16.956,Info_measure_main_exp,2022.2.2,Win32,143.2664756,,,,,,,,,,,,,,,,,,masks/mask_002.jpg,,,,,,,,,,,,,,,,,,,,,,,,,,,,,,,,,,,,,,,,,,,,,,,,0,1,1,1,1,,,,,,,,,,,,,,,,,,,,,,,,,,,,,,,,,,,,,,,,,
220785,001,2022-11-20_17h52.16.956,Info_measure_main_exp,2022.2.2,Win32,143.2664756,,,,,,,,,,,,,,,,,,masks/mask_001.jpg,,,,,,,,,,,,,,,,,,,,,,,,,,,,,,,,,,,,,,,,,,,,,,,,0,2,2,0,1,,,,,,,,,,,,,,,,,,,,,,,,,,,,,,,,,,,,,,,,,
220785,001,2022-11-20_17h52.16.956,Info_measure_main_exp,2022.2.2,Win32,143.2664756,,,,,,,,,,,,,,,,,,masks/mask_004.jpg,,,,,,,,,,,,,,,,,,,,,,,,,,,,,,,,,,,,,,,,,,,,,,,,0,3,3,3,1,,,,,,,,,,,,,,,,,,,,,,,,,,,,,,,,,,,,,,,,,
220785,001,2022-11-20_17h52.16.956,Info_measure_main_exp,2022.2.2,Win32,143.2664756,,,,,,,,,,,,,,,,,,masks/mask_005.jpg,,,,,,,,,,,,,,,,,,,,,,,,,,,,,,,,,,,,,,,,,,,,,,,,0,4,4,4,1,,,,,,,,,,,,,,,,,,,,,,,,,,,,,,,,,,,,,,,,,
220785,001,2022-11-20_17h52.16.956,Info_measure_main_exp,2022.2.2,Win32,143.2664756,,,,,,,,,,,,,,,,,,,,,,,,,,,,,,7,0.9441,1,,,,,,,,,,,,0,131,5,5,2082,2178,absent_patch/patch0002082.jpg,absent_patch/patch0002178.jpg,,,,,,,,,,,,,,,,,,,,0.056481481,0.117592593,1,0,0,response1disk,27,-0.006481481,-0.005555556,1,0,0,center_square,0,26,26,2,1,,,,,,,,,,,,,,,,,,,,,,,
220785,001,2022-11-20_17h52.16.956,Info_measure_main_exp,2022.2.2,Win32,143.2664756,,,,,,,,,,,,,,,,,,masks/mask_003.jpg,,,,,,,,,,,,,,,,,,,,,,,,,,,,,,,,,,,,,,,,,,,0,0,0,2,1,,,,,,,,,,,,,,,,,,,,,,,,,,,,,,,,,,,,,,,,,,,,,,
220785,001,2022-11-20_17h52.16.956,Info_measure_main_exp,2022.2.2,Win32,143.2664756,,,,,,,,,,,,,,,,,,masks/mask_002.jpg,,,,,,,,,,,,,,,,,,,,,,,,,,,,,,,,,,,,,,,,,,,0,1,1,1,1,,,,,,,,,,,,,,,,,,,,,,,,,,,,,,,,,,,,,,,,,,,,,,
220785,001,2022-11-20_17h52.16.956,Info_measure_main_exp,2022.2.2,Win32,143.2664756,,,,,,,,,,,,,,,,,,masks/mask_001.jpg,,,,,,,,,,,,,,,,,,,,,,,,,,,,,,,,,,,,,,,,,,,0,2,2,0,1,,,,,,,,,,,,,,,,,,,,,,,,,,,,,,,,,,,,,,,,,,,,,,
220785,001,2022-11-20_17h52.16.956,Info_measure_main_exp,2022.2.2,Win32,143.2664756,,,,,,,,,,,,,,,,,,masks/mask_004.jpg,,,,,,,,,,,,,,,,,,,,,,,,,,,,,,,,,,,,,,,,,,,0,3,3,3,1,,,,,,,,,,,,,,,,,,,,,,,,,,,,,,,,,,,,,,,,,,,,,,
220785,001,2022-11-20_17h52.16.956,Info_measure_main_exp,2022.2.2,Win32,143.2664756,,,,,,,,,,,,,,,,,,masks/mask_005.jpg,,,,,,,,,,,,,,,,,,,,,,,,,,,,,,,,,,,,,,,,,,,0,4,4,4,1,,,,,,,,,,,,,,,,,,,,,,,,,,,,,,,,,,,,,,,,,,,,,,
220785,001,2022-11-20_17h52.16.956,Info_measure_main_exp,2022.2.2,Win32,143.2664756,,,,,,,,,,,,,,,,,,masks/mask_001.jpg,,,,,,,,,,,,,,,,,,,,,,,,,,,,,,,,,,,,,,,,,,,,,,,,0,0,0,0,1,,,,,,,,,,,,,,,,,,,,,,,,,,,,,,,,,,,,,,,,,
220785,001,2022-11-20_17h52.16.956,Info_measure_main_exp,2022.2.2,Win32,143.2664756,,,,,,,,,,,,,,,,,,masks/mask_002.jpg,,,,,,,,,,,,,,,,,,,,,,,,,,,,,,,,,,,,,,,,,,,,,,,,0,1,1,1,1,,,,,,,,,,,,,,,,,,,,,,,,,,,,,,,,,,,,,,,,,
220785,001,2022-11-20_17h52.16.956,Info_measure_main_exp,2022.2.2,Win32,143.2664756,,,,,,,,,,,,,,,,,,masks/mask_003.jpg,,,,,,,,,,,,,,,,,,,,,,,,,,,,,,,,,,,,,,,,,,,,,,,,0,2,2,2,1,,,,,,,,,,,,,,,,,,,,,,,,,,,,,,,,,,,,,,,,,
220785,001,2022-11-20_17h52.16.956,Info_measure_main_exp,2022.2.2,Win32,143.2664756,,,,,,,,,,,,,,,,,,masks/mask_005.jpg,,,,,,,,,,,,,,,,,,,,,,,,,,,,,,,,,,,,,,,,,,,,,,,,0,3,3,4,1,,,,,,,,,,,,,,,,,,,,,,,,,,,,,,,,,,,,,,,,,
220785,001,2022-11-20_17h52.16.956,Info_measure_main_exp,2022.2.2,Win32,143.2664756,,,,,,,,,,,,,,,,,,masks/mask_004.jpg,,,,,,,,,,,,,,,,,,,,,,,,,,,,,,,,,,,,,,,,,,,,,,,,0,4,4,3,1,,,,,,,,,,,,,,,,,,,,,,,,,,,,,,,,,,,,,,,,,
220785,001,2022-11-20_17h52.16.956,Info_measure_main_exp,2022.2.2,Win32,143.2664756,,,,,,,,,,,,,,,,,,,,,,,,,,,,,,5,3.4056,1,,,,,,,,,,,,0,131,5,5,2298,2142,absent_patch/patch0002298.jpg,absent_patch/patch0002142.jpg,,,,,,,,,,,,,,,,,,,,0.087962963,-0.025925926,1,0,0,response3disk,28,0.000925926,0.000925926,1,0,0,center_square,0,27,27,49,1,,,,,,,,,,,,,,,,,,,,,,,
220785,001,2022-11-20_17h52.16.956,Info_measure_main_exp,2022.2.2,Win32,143.2664756,,,,,,,,,,,,,,,,,,masks/mask_003.jpg,,,,,,,,,,,,,,,,,,,,,,,,,,,,,,,,,,,,,,,,,,,0,0,0,2,1,,,,,,,,,,,,,,,,,,,,,,,,,,,,,,,,,,,,,,,,,,,,,,
220785,001,2022-11-20_17h52.16.956,Info_measure_main_exp,2022.2.2,Win32,143.2664756,,,,,,,,,,,,,,,,,,masks/mask_002.jpg,,,,,,,,,,,,,,,,,,,,,,,,,,,,,,,,,,,,,,,,,,,0,1,1,1,1,,,,,,,,,,,,,,,,,,,,,,,,,,,,,,,,,,,,,,,,,,,,,,
220785,001,2022-11-20_17h52.16.956,Info_measure_main_exp,2022.2.2,Win32,143.2664756,,,,,,,,,,,,,,,,,,masks/mask_005.jpg,,,,,,,,,,,,,,,,,,,,,,,,,,,,,,,,,,,,,,,,,,,0,2,2,4,1,,,,,,,,,,,,,,,,,,,,,,,,,,,,,,,,,,,,,,,,,,,,,,
220785,001,2022-11-20_17h52.16.956,Info_measure_main_exp,2022.2.2,Win32,143.2664756,,,,,,,,,,,,,,,,,,masks/mask_004.jpg,,,,,,,,,,,,,,,,,,,,,,,,,,,,,,,,,,,,,,,,,,,0,3,3,3,1,,,,,,,,,,,,,,,,,,,,,,,,,,,,,,,,,,,,,,,,,,,,,,
220785,001,2022-11-20_17h52.16.956,Info_measure_main_exp,2022.2.2,Win32,143.2664756,,,,,,,,,,,,,,,,,,masks/mask_001.jpg,,,,,,,,,,,,,,,,,,,,,,,,,,,,,,,,,,,,,,,,,,,0,4,4,0,1,,,,,,,,,,,,,,,,,,,,,,,,,,,,,,,,,,,,,,,,,,,,,,
220785,001,2022-11-20_17h52.16.956,Info_measure_main_exp,2022.2.2,Win32,143.2664756,,,,,,,,,,,,,,,,,,masks/mask_004.jpg,,,,,,,,,,,,,,,,,,,,,,,,,,,,,,,,,,,,,,,,,,,,,,,,0,0,0,3,1,,,,,,,,,,,,,,,,,,,,,,,,,,,,,,,,,,,,,,,,,
220785,001,2022-11-20_17h52.16.956,Info_measure_main_exp,2022.2.2,Win32,143.2664756,,,,,,,,,,,,,,,,,,masks/mask_003.jpg,,,,,,,,,,,,,,,,,,,,,,,,,,,,,,,,,,,,,,,,,,,,,,,,0,1,1,2,1,,,,,,,,,,,,,,,,,,,,,,,,,,,,,,,,,,,,,,,,,
220785,001,2022-11-20_17h52.16.956,Info_measure_main_exp,2022.2.2,Win32,143.2664756,,,,,,,,,,,,,,,,,,masks/mask_001.jpg,,,,,,,,,,,,,,,,,,,,,,,,,,,,,,,,,,,,,,,,,,,,,,,,0,2,2,0,1,,,,,,,,,,,,,,,,,,,,,,,,,,,,,,,,,,,,,,,,,
220785,001,2022-11-20_17h52.16.956,Info_measure_main_exp,2022.2.2,Win32,143.2664756,,,,,,,,,,,,,,,,,,masks/mask_002.jpg,,,,,,,,,,,,,,,,,,,,,,,,,,,,,,,,,,,,,,,,,,,,,,,,0,3,3,1,1,,,,,,,,,,,,,,,,,,,,,,,,,,,,,,,,,,,,,,,,,
220785,001,2022-11-20_17h52.16.956,Info_measure_main_exp,2022.2.2,Win32,143.2664756,,,,,,,,,,,,,,,,,,masks/mask_005.jpg,,,,,,,,,,,,,,,,,,,,,,,,,,,,,,,,,,,,,,,,,,,,,,,,0,4,4,4,1,,,,,,,,,,,,,,,,,,,,,,,,,,,,,,,,,,,,,,,,,
220785,001,2022-11-20_17h52.16.956,Info_measure_main_exp,2022.2.2,Win32,143.2664756,,,,,,,,,,,,,,,,,,,,,,,,,,,,,,6,2.6312,1,,,,,,,,,,,,0,131,5,5,2082,2238,absent_patch/patch0002082.jpg,absent_patch/patch0002238.jpg,,,,,,,,,,,,,,,,,,,,0.133333333,0.014814815,1,0,0,response1disk,29,-0.002777778,0.002777778,1,0,0,center_square,0,28,28,22,1,,,,,,,,,,,,,,,,,,,,,,,
220785,001,2022-11-20_17h52.16.956,Info_measure_main_exp,2022.2.2,Win32,143.2664756,,,,,,,,,,,,,,,,,,masks/mask_004.jpg,,,,,,,,,,,,,,,,,,,,,,,,,,,,,,,,,,,,,,,,,,,0,0,0,3,1,,,,,,,,,,,,,,,,,,,,,,,,,,,,,,,,,,,,,,,,,,,,,,
220785,001,2022-11-20_17h52.16.956,Info_measure_main_exp,2022.2.2,Win32,143.2664756,,,,,,,,,,,,,,,,,,masks/mask_003.jpg,,,,,,,,,,,,,,,,,,,,,,,,,,,,,,,,,,,,,,,,,,,0,1,1,2,1,,,,,,,,,,,,,,,,,,,,,,,,,,,,,,,,,,,,,,,,,,,,,,
220785,001,2022-11-20_17h52.16.956,Info_measure_main_exp,2022.2.2,Win32,143.2664756,,,,,,,,,,,,,,,,,,masks/mask_005.jpg,,,,,,,,,,,,,,,,,,,,,,,,,,,,,,,,,,,,,,,,,,,0,2,2,4,1,,,,,,,,,,,,,,,,,,,,,,,,,,,,,,,,,,,,,,,,,,,,,,
220785,001,2022-11-20_17h52.16.956,Info_measure_main_exp,2022.2.2,Win32,143.2664756,,,,,,,,,,,,,,,,,,masks/mask_002.jpg,,,,,,,,,,,,,,,,,,,,,,,,,,,,,,,,,,,,,,,,,,,0,3,3,1,1,,,,,,,,,,,,,,,,,,,,,,,,,,,,,,,,,,,,,,,,,,,,,,
220785,001,2022-11-20_17h52.16.956,Info_measure_main_exp,2022.2.2,Win32,143.2664756,,,,,,,,,,,,,,,,,,masks/mask_001.jpg,,,,,,,,,,,,,,,,,,,,,,,,,,,,,,,,,,,,,,,,,,,0,4,4,0,1,,,,,,,,,,,,,,,,,,,,,,,,,,,,,,,,,,,,,,,,,,,,,,
220785,001,2022-11-20_17h52.16.956,Info_measure_main_exp,2022.2.2,Win32,143.2664756,,,,,,,,,,,,,,,,,,masks/mask_003.jpg,,,,,,,,,,,,,,,,,,,,,,,,,,,,,,,,,,,,,,,,,,,,,,,,0,0,0,2,1,,,,,,,,,,,,,,,,,,,,,,,,,,,,,,,,,,,,,,,,,
220785,001,2022-11-20_17h52.16.956,Info_measure_main_exp,2022.2.2,Win32,143.2664756,,,,,,,,,,,,,,,,,,masks/mask_005.jpg,,,,,,,,,,,,,,,,,,,,,,,,,,,,,,,,,,,,,,,,,,,,,,,,0,1,1,4,1,,,,,,,,,,,,,,,,,,,,,,,,,,,,,,,,,,,,,,,,,
220785,001,2022-11-20_17h52.16.956,Info_measure_main_exp,2022.2.2,Win32,143.2664756,,,,,,,,,,,,,,,,,,masks/mask_001.jpg,,,,,,,,,,,,,,,,,,,,,,,,,,,,,,,,,,,,,,,,,,,,,,,,0,2,2,0,1,,,,,,,,,,,,,,,,,,,,,,,,,,,,,,,,,,,,,,,,,
220785,001,2022-11-20_17h52.16.956,Info_measure_main_exp,2022.2.2,Win32,143.2664756,,,,,,,,,,,,,,,,,,masks/mask_002.jpg,,,,,,,,,,,,,,,,,,,,,,,,,,,,,,,,,,,,,,,,,,,,,,,,0,3,3,1,1,,,,,,,,,,,,,,,,,,,,,,,,,,,,,,,,,,,,,,,,,
220785,001,2022-11-20_17h52.16.956,Info_measure_main_exp,2022.2.2,Win32,143.2664756,,,,,,,,,,,,,,,,,,masks/mask_004.jpg,,,,,,,,,,,,,,,,,,,,,,,,,,,,,,,,,,,,,,,,,,,,,,,,0,4,4,3,1,,,,,,,,,,,,,,,,,,,,,,,,,,,,,,,,,,,,,,,,,
220785,001,2022-11-20_17h52.16.956,Info_measure_main_exp,2022.2.2,Win32,143.2664756,,,,,,,,,,,,,,,,,,,,,,,,,,,,,,6,4.5547,1,,,,,,,,,,,,0,131,5,5,2250,2298,absent_patch/patch0002250.jpg,absent_patch/patch0002298.jpg,,,,,,,,,,,,,,,,,,,,0.141666667,0.02962963,1,0,0,response1disk,30,-0.002777778,0.000925926,1,0,0,center_square,0,29,29,59,1,,,,,,,,,,,,,,,,,,,,,,,
220785,001,2022-11-20_17h52.16.956,Info_measure_main_exp,2022.2.2,Win32,143.2664756,,,,,,,,,,,,,,,,,,masks/mask_004.jpg,,,,,,,,,,,,,,,,,,,,,,,,,,,,,,,,,,,,,,,,,,,0,0,0,3,1,,,,,,,,,,,,,,,,,,,,,,,,,,,,,,,,,,,,,,,,,,,,,,
220785,001,2022-11-20_17h52.16.956,Info_measure_main_exp,2022.2.2,Win32,143.2664756,,,,,,,,,,,,,,,,,,masks/mask_003.jpg,,,,,,,,,,,,,,,,,,,,,,,,,,,,,,,,,,,,,,,,,,,0,1,1,2,1,,,,,,,,,,,,,,,,,,,,,,,,,,,,,,,,,,,,,,,,,,,,,,
220785,001,2022-11-20_17h52.16.956,Info_measure_main_exp,2022.2.2,Win32,143.2664756,,,,,,,,,,,,,,,,,,masks/mask_002.jpg,,,,,,,,,,,,,,,,,,,,,,,,,,,,,,,,,,,,,,,,,,,0,2,2,1,1,,,,,,,,,,,,,,,,,,,,,,,,,,,,,,,,,,,,,,,,,,,,,,
220785,001,2022-11-20_17h52.16.956,Info_measure_main_exp,2022.2.2,Win32,143.2664756,,,,,,,,,,,,,,,,,,masks/mask_005.jpg,,,,,,,,,,,,,,,,,,,,,,,,,,,,,,,,,,,,,,,,,,,0,3,3,4,1,,,,,,,,,,,,,,,,,,,,,,,,,,,,,,,,,,,,,,,,,,,,,,
220785,001,2022-11-20_17h52.16.956,Info_measure_main_exp,2022.2.2,Win32,143.2664756,,,,,,,,,,,,,,,,,,masks/mask_001.jpg,,,,,,,,,,,,,,,,,,,,,,,,,,,,,,,,,,,,,,,,,,,0,4,4,0,1,,,,,,,,,,,,,,,,,,,,,,,,,,,,,,,,,,,,,,,,,,,,,,
220785,001,2022-11-20_17h52.16.956,Info_measure_main_exp,2022.2.2,Win32,143.2664756,,,,,,,,,,,,,,,,,,masks/mask_003.jpg,,,,,,,,,,,,,,,,,,,,,,,,,,,,,,,,,,,,,,,,,,,,,,,,0,0,0,2,1,,,,,,,,,,,,,,,,,,,,,,,,,,,,,,,,,,,,,,,,,
220785,001,2022-11-20_17h52.16.956,Info_measure_main_exp,2022.2.2,Win32,143.2664756,,,,,,,,,,,,,,,,,,masks/mask_002.jpg,,,,,,,,,,,,,,,,,,,,,,,,,,,,,,,,,,,,,,,,,,,,,,,,0,1,1,1,1,,,,,,,,,,,,,,,,,,,,,,,,,,,,,,,,,,,,,,,,,
220785,001,2022-11-20_17h52.16.956,Info_measure_main_exp,2022.2.2,Win32,143.2664756,,,,,,,,,,,,,,,,,,masks/mask_005.jpg,,,,,,,,,,,,,,,,,,,,,,,,,,,,,,,,,,,,,,,,,,,,,,,,0,2,2,4,1,,,,,,,,,,,,,,,,,,,,,,,,,,,,,,,,,,,,,,,,,
220785,001,2022-11-20_17h52.16.956,Info_measure_main_exp,2022.2.2,Win32,143.2664756,,,,,,,,,,,,,,,,,,masks/mask_001.jpg,,,,,,,,,,,,,,,,,,,,,,,,,,,,,,,,,,,,,,,,,,,,,,,,0,3,3,0,1,,,,,,,,,,,,,,,,,,,,,,,,,,,,,,,,,,,,,,,,,
220785,001,2022-11-20_17h52.16.956,Info_measure_main_exp,2022.2.2,Win32,143.2664756,,,,,,,,,,,,,,,,,,masks/mask_004.jpg,,,,,,,,,,,,,,,,,,,,,,,,,,,,,,,,,,,,,,,,,,,,,,,,0,4,4,3,1,,,,,,,,,,,,,,,,,,,,,,,,,,,,,,,,,,,,,,,,,
220785,001,2022-11-20_17h52.16.956,Info_measure_main_exp,2022.2.2,Win32,143.2664756,,,,,,,,,,,,,,,,,,,,,,,,,,,,,,7,1.951,1,,,,,,,,,,,,0,131,5,5,2274,2214,absent_patch/patch0002274.jpg,absent_patch/patch0002214.jpg,,,,,,,,,,,,,,,,,,,,0.049074074,0.102777778,1,0,0,response1disk,31,0,0.00462963,1,0,0,center_square,0,30,30,11,1,,,,,,,,,,,,,,,,,,,,,,,
220785,001,2022-11-20_17h52.16.956,Info_measure_main_exp,2022.2.2,Win32,143.2664756,,,,,,,,,,,,,,,,,,masks/mask_002.jpg,,,,,,,,,,,,,,,,,,,,,,,,,,,,,,,,,,,,,,,,,,,0,0,0,1,1,,,,,,,,,,,,,,,,,,,,,,,,,,,,,,,,,,,,,,,,,,,,,,
220785,001,2022-11-20_17h52.16.956,Info_measure_main_exp,2022.2.2,Win32,143.2664756,,,,,,,,,,,,,,,,,,masks/mask_005.jpg,,,,,,,,,,,,,,,,,,,,,,,,,,,,,,,,,,,,,,,,,,,0,1,1,4,1,,,,,,,,,,,,,,,,,,,,,,,,,,,,,,,,,,,,,,,,,,,,,,
220785,001,2022-11-20_17h52.16.956,Info_measure_main_exp,2022.2.2,Win32,143.2664756,,,,,,,,,,,,,,,,,,masks/mask_004.jpg,,,,,,,,,,,,,,,,,,,,,,,,,,,,,,,,,,,,,,,,,,,0,2,2,3,1,,,,,,,,,,,,,,,,,,,,,,,,,,,,,,,,,,,,,,,,,,,,,,
220785,001,2022-11-20_17h52.16.956,Info_measure_main_exp,2022.2.2,Win32,143.2664756,,,,,,,,,,,,,,,,,,masks/mask_001.jpg,,,,,,,,,,,,,,,,,,,,,,,,,,,,,,,,,,,,,,,,,,,0,3,3,0,1,,,,,,,,,,,,,,,,,,,,,,,,,,,,,,,,,,,,,,,,,,,,,,
220785,001,2022-11-20_17h52.16.956,Info_measure_main_exp,2022.2.2,Win32,143.2664756,,,,,,,,,,,,,,,,,,masks/mask_003.jpg,,,,,,,,,,,,,,,,,,,,,,,,,,,,,,,,,,,,,,,,,,,0,4,4,2,1,,,,,,,,,,,,,,,,,,,,,,,,,,,,,,,,,,,,,,,,,,,,,,
220785,001,2022-11-20_17h52.16.956,Info_measure_main_exp,2022.2.2,Win32,143.2664756,,,,,,,,,,,,,,,,,,masks/mask_002.jpg,,,,,,,,,,,,,,,,,,,,,,,,,,,,,,,,,,,,,,,,,,,,,,,,0,0,0,1,1,,,,,,,,,,,,,,,,,,,,,,,,,,,,,,,,,,,,,,,,,
220785,001,2022-11-20_17h52.16.956,Info_measure_main_exp,2022.2.2,Win32,143.2664756,,,,,,,,,,,,,,,,,,masks/mask_003.jpg,,,,,,,,,,,,,,,,,,,,,,,,,,,,,,,,,,,,,,,,,,,,,,,,0,1,1,2,1,,,,,,,,,,,,,,,,,,,,,,,,,,,,,,,,,,,,,,,,,
220785,001,2022-11-20_17h52.16.956,Info_measure_main_exp,2022.2.2,Win32,143.2664756,,,,,,,,,,,,,,,,,,masks/mask_004.jpg,,,,,,,,,,,,,,,,,,,,,,,,,,,,,,,,,,,,,,,,,,,,,,,,0,2,2,3,1,,,,,,,,,,,,,,,,,,,,,,,,,,,,,,,,,,,,,,,,,
220785,001,2022-11-20_17h52.16.956,Info_measure_main_exp,2022.2.2,Win32,143.2664756,,,,,,,,,,,,,,,,,,masks/mask_001.jpg,,,,,,,,,,,,,,,,,,,,,,,,,,,,,,,,,,,,,,,,,,,,,,,,0,3,3,0,1,,,,,,,,,,,,,,,,,,,,,,,,,,,,,,,,,,,,,,,,,
220785,001,2022-11-20_17h52.16.956,Info_measure_main_exp,2022.2.2,Win32,143.2664756,,,,,,,,,,,,,,,,,,masks/mask_005.jpg,,,,,,,,,,,,,,,,,,,,,,,,,,,,,,,,,,,,,,,,,,,,,,,,0,4,4,4,1,,,,,,,,,,,,,,,,,,,,,,,,,,,,,,,,,,,,,,,,,
220785,001,2022-11-20_17h52.16.956,Info_measure_main_exp,2022.2.2,Win32,143.2664756,,,,,,,,,,,,,,,,,,,,,,,,,,,,,,0,0.8114,1,,,,,,,,,,,,0,131,5,5,1950,1950,absent_patch/patch0001950.jpg,absent_patch/patch0001950.jpg,,,,,,,,,,,,,,,,,,,,-0.05462963,0.121296296,1,0,0,response7disk,32,-0.002777778,0.002777778,1,0,0,center_square,0,31,31,92,1,,,,,,,,,,,,,,,,,,,,,,,
220785,001,2022-11-20_17h52.16.956,Info_measure_main_exp,2022.2.2,Win32,143.2664756,,,,,,,,,,,,,,,,,,masks/mask_001.jpg,,,,,,,,,,,,,,,,,,,,,,,,,,,,,,,,,,,,,,,,,,,0,0,0,0,1,,,,,,,,,,,,,,,,,,,,,,,,,,,,,,,,,,,,,,,,,,,,,,
220785,001,2022-11-20_17h52.16.956,Info_measure_main_exp,2022.2.2,Win32,143.2664756,,,,,,,,,,,,,,,,,,masks/mask_004.jpg,,,,,,,,,,,,,,,,,,,,,,,,,,,,,,,,,,,,,,,,,,,0,1,1,3,1,,,,,,,,,,,,,,,,,,,,,,,,,,,,,,,,,,,,,,,,,,,,,,
220785,001,2022-11-20_17h52.16.956,Info_measure_main_exp,2022.2.2,Win32,143.2664756,,,,,,,,,,,,,,,,,,masks/mask_003.jpg,,,,,,,,,,,,,,,,,,,,,,,,,,,,,,,,,,,,,,,,,,,0,2,2,2,1,,,,,,,,,,,,,,,,,,,,,,,,,,,,,,,,,,,,,,,,,,,,,,
220785,001,2022-11-20_17h52.16.956,Info_measure_main_exp,2022.2.2,Win32,143.2664756,,,,,,,,,,,,,,,,,,masks/mask_005.jpg,,,,,,,,,,,,,,,,,,,,,,,,,,,,,,,,,,,,,,,,,,,0,3,3,4,1,,,,,,,,,,,,,,,,,,,,,,,,,,,,,,,,,,,,,,,,,,,,,,
220785,001,2022-11-20_17h52.16.956,Info_measure_main_exp,2022.2.2,Win32,143.2664756,,,,,,,,,,,,,,,,,,masks/mask_002.jpg,,,,,,,,,,,,,,,,,,,,,,,,,,,,,,,,,,,,,,,,,,,0,4,4,1,1,,,,,,,,,,,,,,,,,,,,,,,,,,,,,,,,,,,,,,,,,,,,,,
220785,001,2022-11-20_17h52.16.956,Info_measure_main_exp,2022.2.2,Win32,143.2664756,,,,,,,,,,,,,,,,,,masks/mask_002.jpg,,,,,,,,,,,,,,,,,,,,,,,,,,,,,,,,,,,,,,,,,,,,,,,,0,0,0,1,1,,,,,,,,,,,,,,,,,,,,,,,,,,,,,,,,,,,,,,,,,
220785,001,2022-11-20_17h52.16.956,Info_measure_main_exp,2022.2.2,Win32,143.2664756,,,,,,,,,,,,,,,,,,masks/mask_005.jpg,,,,,,,,,,,,,,,,,,,,,,,,,,,,,,,,,,,,,,,,,,,,,,,,0,1,1,4,1,,,,,,,,,,,,,,,,,,,,,,,,,,,,,,,,,,,,,,,,,
220785,001,2022-11-20_17h52.16.956,Info_measure_main_exp,2022.2.2,Win32,143.2664756,,,,,,,,,,,,,,,,,,masks/mask_003.jpg,,,,,,,,,,,,,,,,,,,,,,,,,,,,,,,,,,,,,,,,,,,,,,,,0,2,2,2,1,,,,,,,,,,,,,,,,,,,,,,,,,,,,,,,,,,,,,,,,,
220785,001,2022-11-20_17h52.16.956,Info_measure_main_exp,2022.2.2,Win32,143.2664756,,,,,,,,,,,,,,,,,,masks/mask_004.jpg,,,,,,,,,,,,,,,,,,,,,,,,,,,,,,,,,,,,,,,,,,,,,,,,0,3,3,3,1,,,,,,,,,,,,,,,,,,,,,,,,,,,,,,,,,,,,,,,,,
220785,001,2022-11-20_17h52.16.956,Info_measure_main_exp,2022.2.2,Win32,143.2664756,,,,,,,,,,,,,,,,,,masks/mask_001.jpg,,,,,,,,,,,,,,,,,,,,,,,,,,,,,,,,,,,,,,,,,,,,,,,,0,4,4,0,1,,,,,,,,,,,,,,,,,,,,,,,,,,,,,,,,,,,,,,,,,
220785,001,2022-11-20_17h52.16.956,Info_measure_main_exp,2022.2.2,Win32,143.2664756,,,,,,,,,,,,,,,,,,,,,,,,,,,,,,6,1.3262,1,,,,,,,,,,,,0,131,5,5,2274,2238,absent_patch/patch0002274.jpg,absent_patch/patch0002238.jpg,,,,,,,,,,,,,,,,,,,,0.142592593,0.040740741,1,0,0,response1disk,33,0.003703704,0,1,0,0,center_square,0,32,32,91,1,,,,,,,,,,,,,,,,,,,,,,,
220785,001,2022-11-20_17h52.16.956,Info_measure_main_exp,2022.2.2,Win32,143.2664756,,,,,,,,,,,,,,,,,,masks/mask_003.jpg,,,,,,,,,,,,,,,,,,,,,,,,,,,,,,,,,,,,,,,,,,,0,0,0,2,1,,,,,,,,,,,,,,,,,,,,,,,,,,,,,,,,,,,,,,,,,,,,,,
220785,001,2022-11-20_17h52.16.956,Info_measure_main_exp,2022.2.2,Win32,143.2664756,,,,,,,,,,,,,,,,,,masks/mask_004.jpg,,,,,,,,,,,,,,,,,,,,,,,,,,,,,,,,,,,,,,,,,,,0,1,1,3,1,,,,,,,,,,,,,,,,,,,,,,,,,,,,,,,,,,,,,,,,,,,,,,
220785,001,2022-11-20_17h52.16.956,Info_measure_main_exp,2022.2.2,Win32,143.2664756,,,,,,,,,,,,,,,,,,masks/mask_005.jpg,,,,,,,,,,,,,,,,,,,,,,,,,,,,,,,,,,,,,,,,,,,0,2,2,4,1,,,,,,,,,,,,,,,,,,,,,,,,,,,,,,,,,,,,,,,,,,,,,,
220785,001,2022-11-20_17h52.16.956,Info_measure_main_exp,2022.2.2,Win32,143.2664756,,,,,,,,,,,,,,,,,,masks/mask_001.jpg,,,,,,,,,,,,,,,,,,,,,,,,,,,,,,,,,,,,,,,,,,,0,3,3,0,1,,,,,,,,,,,,,,,,,,,,,,,,,,,,,,,,,,,,,,,,,,,,,,
220785,001,2022-11-20_17h52.16.956,Info_measure_main_exp,2022.2.2,Win32,143.2664756,,,,,,,,,,,,,,,,,,masks/mask_002.jpg,,,,,,,,,,,,,,,,,,,,,,,,,,,,,,,,,,,,,,,,,,,0,4,4,1,1,,,,,,,,,,,,,,,,,,,,,,,,,,,,,,,,,,,,,,,,,,,,,,
220785,001,2022-11-20_17h52.16.956,Info_measure_main_exp,2022.2.2,Win32,143.2664756,,,,,,,,,,,,,,,,,,masks/mask_002.jpg,,,,,,,,,,,,,,,,,,,,,,,,,,,,,,,,,,,,,,,,,,,,,,,,0,0,0,1,1,,,,,,,,,,,,,,,,,,,,,,,,,,,,,,,,,,,,,,,,,
220785,001,2022-11-20_17h52.16.956,Info_measure_main_exp,2022.2.2,Win32,143.2664756,,,,,,,,,,,,,,,,,,masks/mask_001.jpg,,,,,,,,,,,,,,,,,,,,,,,,,,,,,,,,,,,,,,,,,,,,,,,,0,1,1,0,1,,,,,,,,,,,,,,,,,,,,,,,,,,,,,,,,,,,,,,,,,
220785,001,2022-11-20_17h52.16.956,Info_measure_main_exp,2022.2.2,Win32,143.2664756,,,,,,,,,,,,,,,,,,masks/mask_003.jpg,,,,,,,,,,,,,,,,,,,,,,,,,,,,,,,,,,,,,,,,,,,,,,,,0,2,2,2,1,,,,,,,,,,,,,,,,,,,,,,,,,,,,,,,,,,,,,,,,,
220785,001,2022-11-20_17h52.16.956,Info_measure_main_exp,2022.2.2,Win32,143.2664756,,,,,,,,,,,,,,,,,,masks/mask_004.jpg,,,,,,,,,,,,,,,,,,,,,,,,,,,,,,,,,,,,,,,,,,,,,,,,0,3,3,3,1,,,,,,,,,,,,,,,,,,,,,,,,,,,,,,,,,,,,,,,,,
220785,001,2022-11-20_17h52.16.956,Info_measure_main_exp,2022.2.2,Win32,143.2664756,,,,,,,,,,,,,,,,,,masks/mask_005.jpg,,,,,,,,,,,,,,,,,,,,,,,,,,,,,,,,,,,,,,,,,,,,,,,,0,4,4,4,1,,,,,,,,,,,,,,,,,,,,,,,,,,,,,,,,,,,,,,,,,
220785,001,2022-11-20_17h52.16.956,Info_measure_main_exp,2022.2.2,Win32,143.2664756,,,,,,,,,,,,,,,,,,,,,,,,,,,,,,6,4.6379,1,,,,,,,,,,,,1,131,5,5,2082,1,absent_patch/patch0002082.jpg,present_patch/cong_131_5_a.jpg,,,,,,,,,,,,,,,,,,,,0.100925926,0.023148148,1,0,0,response1disk,34,0.005555556,-0.001851852,1,0,0,center_square,0,33,33,65,1,,,,,,,,,,,,,,,,,,,,,,,
220785,001,2022-11-20_17h52.16.956,Info_measure_main_exp,2022.2.2,Win32,143.2664756,,,,,,,,,,,,,,,,,,masks/mask_004.jpg,,,,,,,,,,,,,,,,,,,,,,,,,,,,,,,,,,,,,,,,,,,0,0,0,3,1,,,,,,,,,,,,,,,,,,,,,,,,,,,,,,,,,,,,,,,,,,,,,,
220785,001,2022-11-20_17h52.16.956,Info_measure_main_exp,2022.2.2,Win32,143.2664756,,,,,,,,,,,,,,,,,,masks/mask_002.jpg,,,,,,,,,,,,,,,,,,,,,,,,,,,,,,,,,,,,,,,,,,,0,1,1,1,1,,,,,,,,,,,,,,,,,,,,,,,,,,,,,,,,,,,,,,,,,,,,,,
220785,001,2022-11-20_17h52.16.956,Info_measure_main_exp,2022.2.2,Win32,143.2664756,,,,,,,,,,,,,,,,,,masks/mask_003.jpg,,,,,,,,,,,,,,,,,,,,,,,,,,,,,,,,,,,,,,,,,,,0,2,2,2,1,,,,,,,,,,,,,,,,,,,,,,,,,,,,,,,,,,,,,,,,,,,,,,
220785,001,2022-11-20_17h52.16.956,Info_measure_main_exp,2022.2.2,Win32,143.2664756,,,,,,,,,,,,,,,,,,masks/mask_001.jpg,,,,,,,,,,,,,,,,,,,,,,,,,,,,,,,,,,,,,,,,,,,0,3,3,0,1,,,,,,,,,,,,,,,,,,,,,,,,,,,,,,,,,,,,,,,,,,,,,,
220785,001,2022-11-20_17h52.16.956,Info_measure_main_exp,2022.2.2,Win32,143.2664756,,,,,,,,,,,,,,,,,,masks/mask_005.jpg,,,,,,,,,,,,,,,,,,,,,,,,,,,,,,,,,,,,,,,,,,,0,4,4,4,1,,,,,,,,,,,,,,,,,,,,,,,,,,,,,,,,,,,,,,,,,,,,,,
220785,001,2022-11-20_17h52.16.956,Info_measure_main_exp,2022.2.2,Win32,143.2664756,,,,,,,,,,,,,,,,,,masks/mask_001.jpg,,,,,,,,,,,,,,,,,,,,,,,,,,,,,,,,,,,,,,,,,,,,,,,,0,0,0,0,1,,,,,,,,,,,,,,,,,,,,,,,,,,,,,,,,,,,,,,,,,
220785,001,2022-11-20_17h52.16.956,Info_measure_main_exp,2022.2.2,Win32,143.2664756,,,,,,,,,,,,,,,,,,masks/mask_005.jpg,,,,,,,,,,,,,,,,,,,,,,,,,,,,,,,,,,,,,,,,,,,,,,,,0,1,1,4,1,,,,,,,,,,,,,,,,,,,,,,,,,,,,,,,,,,,,,,,,,
220785,001,2022-11-20_17h52.16.956,Info_measure_main_exp,2022.2.2,Win32,143.2664756,,,,,,,,,,,,,,,,,,masks/mask_003.jpg,,,,,,,,,,,,,,,,,,,,,,,,,,,,,,,,,,,,,,,,,,,,,,,,0,2,2,2,1,,,,,,,,,,,,,,,,,,,,,,,,,,,,,,,,,,,,,,,,,
220785,001,2022-11-20_17h52.16.956,Info_measure_main_exp,2022.2.2,Win32,143.2664756,,,,,,,,,,,,,,,,,,masks/mask_004.jpg,,,,,,,,,,,,,,,,,,,,,,,,,,,,,,,,,,,,,,,,,,,,,,,,0,3,3,3,1,,,,,,,,,,,,,,,,,,,,,,,,,,,,,,,,,,,,,,,,,
