participant,session,date,expName,psychopyVersion,OS,frameRate,space_press_continue.keys,space_press_continue.rt,space_press_continue_2.keys,space_press_continue_2.rt,space_press_continue_3.keys,space_press_continue_3.rt,space_press_continue_4.keys,space_press_continue_4.rt,space_press_continue_5.keys,space_press_continue_5.rt,space_press_continue_6.keys,space_press_continue_6.rt,prac_mask_loop_1.thisRepN,prac_mask_loop_1.thisTrialN,prac_mask_loop_1.thisN,prac_mask_loop_1.thisIndex,prac_mask_loop_1.ran,mask_name,prac_mask_loop_2.thisRepN,prac_mask_loop_2.thisTrialN,prac_mask_loop_2.thisN,prac_mask_loop_2.thisIndex,prac_mask_loop_2.ran,mouse_2.x,mouse_2.y,mouse_2.leftButton,mouse_2.midButton,mouse_2.rightButton,mouse_2.clicked_name,similarity,response_time,Pass,mouse_12.x,mouse_12.y,mouse_12.leftButton,mouse_12.midButton,mouse_12.rightButton,mouse_12.clicked_name,prac_loop.thisRepN,prac_loop.thisTrialN,prac_loop.thisN,prac_loop.thisIndex,prac_loop.ran,Pair_type,Image_num,Patch_1_loc,Patch_2_loc,Patch_1_info,Patch_2_info,Patch_1_name,Patch_2_name,mouse_1.x,mouse_1.y,mouse_1.leftButton,mouse_1.midButton,mouse_1.rightButton,mouse_1.time,mouse_1.clicked_name,space_press_continue_7.keys,mask_loop.thisRepN,mask_loop.thisTrialN,mask_loop.thisN,mask_loop.thisIndex,mask_loop.ran,mask_loop_2.thisRepN,mask_loop_2.thisTrialN,mask_loop_2.thisN,mask_loop_2.thisIndex,mask_loop_2.ran,mouse.x,mouse.y,mouse.leftButton,mouse.midButton,mouse.rightButton,mouse.clicked_name,trialNumber,mouse_11.x,mouse_11.y,mouse_11.leftButton,mouse_11.midButton,mouse_11.rightButton,mouse_11.clicked_name,first_pass_loop.thisRepN,first_pass_loop.thisTrialN,first_pass_loop.thisN,first_pass_loop.thisIndex,first_pass_loop.ran,mask_loop_3.thisRepN,mask_loop_3.thisTrialN,mask_loop_3.thisN,mask_loop_3.thisIndex,mask_loop_3.ran,mask_loop_4.thisRepN,mask_loop_4.thisTrialN,mask_loop_4.thisN,mask_loop_4.thisIndex,mask_loop_4.ran,mouse_3.x,mouse_3.y,mouse_3.leftButton,mouse_3.midButton,mouse_3.rightButton,mouse_3.clicked_name,double_pass_loop.thisRepN,double_pass_loop.thisTrialN,double_pass_loop.thisN,double_pass_loop.thisIndex,double_pass_loop.ran,space_exit.keys,space_exit.rt
229989,001,2022-11-20_23h55.26.955,Info_measure_main_exp,2022.2.2,Win32,60.0528465,,,,,,,,,,,,,,,,,,,,,,,,,,,,,,,,,,,,,,,,,,,,,,,,,,,,,,,,,,,,,,,,,,,,,,,,,,,,,,,,,,,,,,,,,,,,,,,,,,,,,,,,,,,,,,
229989,001,2022-11-20_23h55.26.955,Info_measure_main_exp,2022.2.2,Win32,60.0528465,,,,,,,,,,,,,,,,,,,,,,,,,,,,,,,,,,,,,,,,,,,,,,,,,,,,,,,,,,,,,,,,,,,,,,,,,,,,,,,,,,,,,,,,,,,,,,,,,,,,,,,,,,,,,,
229989,001,2022-11-20_23h55.26.955,Info_measure_main_exp,2022.2.2,Win32,60.0528465,space,6.15,,,,,,,,,,,,,,,,,,,,,,,,,,,,,,,,,,,,,,,,,,,,,,,,,,,,,,,,,,,,,,,,,,,,,,,,,,,,,,,,,,,,,,,,,,,,,,,,,,,,,,,,,,,,
229989,001,2022-11-20_23h55.26.955,Info_measure_main_exp,2022.2.2,Win32,60.0528465,,,space,5.8104,,,,,,,,,,,,,,,,,,,,,,,,,,,,,,,,,,,,,,,,,,,,,,,,,,,,,,,,,,,,,,,,,,,,,,,,,,,,,,,,,,,,,,,,,,,,,,,,,,,,,,,,,,
229989,001,2022-11-20_23h55.26.955,Info_measure_main_exp,2022.2.2,Win32,60.0528465,,,,,space,2.9917,,,,,,,,,,,,,,,,,,,,,,,,,,,,,,,,,,,,,,,,,,,,,,,,,,,,,,,,,,,,,,,,,,,,,,,,,,,,,,,,,,,,,,,,,,,,,,,,,,,,,,,,
229989,001,2022-11-20_23h55.26.955,Info_measure_main_exp,2022.2.2,Win32,60.0528465,,,,,,,space,2.5966,,,,,,,,,,,,,,,,,,,,,,,,,,,,,,,,,,,,,,,,,,,,,,,,,,,,,,,,,,,,,,,,,,,,,,,,,,,,,,,,,,,,,,,,,,,,,,,,,,,,,,
229989,001,2022-11-20_23h55.26.955,Info_measure_main_exp,2022.2.2,Win32,60.0528465,,,,,,,,,space,1.8257,,,,,,,,,,,,,,,,,,,,,,,,,,,,,,,,,,,,,,,,,,,,,,,,,,,,,,,,,,,,,,,,,,,,,,,,,,,,,,,,,,,,,,,,,,,,,,,,,,,,
229989,001,2022-11-20_23h55.26.955,Info_measure_main_exp,2022.2.2,Win32,60.0528465,,,,,,,,,,,space,1.1762,,,,,,,,,,,,,,,,,,,,,,,,,,,,,,,,,,,,,,,,,,,,,,,,,,,,,,,,,,,,,,,,,,,,,,,,,,,,,,,,,,,,,,,,,,,,,,,,,,
229989,001,2022-11-20_23h55.26.955,Info_measure_main_exp,2022.2.2,Win32,60.0528465,,,,,,,,,,,,,0,0,0,4,1,masks/mask_005.jpg,,,,,,,,,,,,,,,,,,,,,,,,,,,,,,,,,,,,,,,,,,,,,,,,,,,,,,,,,,,,,,,,,,,,,,,,,,,,,,,,,,,,,,,,,,,,
229989,001,2022-11-20_23h55.26.955,Info_measure_main_exp,2022.2.2,Win32,60.0528465,,,,,,,,,,,,,0,1,1,0,1,masks/mask_001.jpg,,,,,,,,,,,,,,,,,,,,,,,,,,,,,,,,,,,,,,,,,,,,,,,,,,,,,,,,,,,,,,,,,,,,,,,,,,,,,,,,,,,,,,,,,,,,
229989,001,2022-11-20_23h55.26.955,Info_measure_main_exp,2022.2.2,Win32,60.0528465,,,,,,,,,,,,,0,2,2,1,1,masks/mask_002.jpg,,,,,,,,,,,,,,,,,,,,,,,,,,,,,,,,,,,,,,,,,,,,,,,,,,,,,,,,,,,,,,,,,,,,,,,,,,,,,,,,,,,,,,,,,,,,
229989,001,2022-11-20_23h55.26.955,Info_measure_main_exp,2022.2.2,Win32,60.0528465,,,,,,,,,,,,,0,3,3,2,1,masks/mask_003.jpg,,,,,,,,,,,,,,,,,,,,,,,,,,,,,,,,,,,,,,,,,,,,,,,,,,,,,,,,,,,,,,,,,,,,,,,,,,,,,,,,,,,,,,,,,,,,
229989,001,2022-11-20_23h55.26.955,Info_measure_main_exp,2022.2.2,Win32,60.0528465,,,,,,,,,,,,,0,4,4,3,1,masks/mask_004.jpg,,,,,,,,,,,,,,,,,,,,,,,,,,,,,,,,,,,,,,,,,,,,,,,,,,,,,,,,,,,,,,,,,,,,,,,,,,,,,,,,,,,,,,,,,,,,
229989,001,2022-11-20_23h55.26.955,Info_measure_main_exp,2022.2.2,Win32,60.0528465,,,,,,,,,,,,,,,,,,masks/mask_004.jpg,0,0,0,3,1,,,,,,,,,,,,,,,,,,,,,,,,,,,,,,,,,,,,,,,,,,,,,,,,,,,,,,,,,,,,,,,,,,,,,,,,,,,,,,,,,,,,,,,
229989,001,2022-11-20_23h55.26.955,Info_measure_main_exp,2022.2.2,Win32,60.0528465,,,,,,,,,,,,,,,,,,masks/mask_001.jpg,0,1,1,0,1,,,,,,,,,,,,,,,,,,,,,,,,,,,,,,,,,,,,,,,,,,,,,,,,,,,,,,,,,,,,,,,,,,,,,,,,,,,,,,,,,,,,,,,
229989,001,2022-11-20_23h55.26.955,Info_measure_main_exp,2022.2.2,Win32,60.0528465,,,,,,,,,,,,,,,,,,masks/mask_002.jpg,0,2,2,1,1,,,,,,,,,,,,,,,,,,,,,,,,,,,,,,,,,,,,,,,,,,,,,,,,,,,,,,,,,,,,,,,,,,,,,,,,,,,,,,,,,,,,,,,
229989,001,2022-11-20_23h55.26.955,Info_measure_main_exp,2022.2.2,Win32,60.0528465,,,,,,,,,,,,,,,,,,masks/mask_005.jpg,0,3,3,4,1,,,,,,,,,,,,,,,,,,,,,,,,,,,,,,,,,,,,,,,,,,,,,,,,,,,,,,,,,,,,,,,,,,,,,,,,,,,,,,,,,,,,,,,
229989,001,2022-11-20_23h55.26.955,Info_measure_main_exp,2022.2.2,Win32,60.0528465,,,,,,,,,,,,,,,,,,masks/mask_003.jpg,0,4,4,2,1,,,,,,,,,,,,,,,,,,,,,,,,,,,,,,,,,,,,,,,,,,,,,,,,,,,,,,,,,,,,,,,,,,,,,,,,,,,,,,,,,,,,,,,
229989,001,2022-11-20_23h55.26.955,Info_measure_main_exp,2022.2.2,Win32,60.0528465,,,,,,,,,,,,,,,,,,,,,,,,-0.045902631,0.13173725,1,0,0,response7disk,0,24.1191,1,0.001286747,-0.001503573,1,0,0,center_square,0,0,0,2,1,0,131,5,5,2526,2526,prac_patch/patch0002526.jpg,prac_patch/patch0002526.jpg,,,,,,,,,,,,,,,,,,,,,,,,,,,,,,,,,,,,,,,,,,,,,,,,,,,,,,,,,,,
229989,001,2022-11-20_23h55.26.955,Info_measure_main_exp,2022.2.2,Win32,60.0528465,,,,,,,,,,,,,0,0,0,1,1,masks/mask_002.jpg,,,,,,,,,,,,,,,,,,,,,,,,,,,,,,,,,,,,,,,,,,,,,,,,,,,,,,,,,,,,,,,,,,,,,,,,,,,,,,,,,,,,,,,,,,,,
229989,001,2022-11-20_23h55.26.955,Info_measure_main_exp,2022.2.2,Win32,60.0528465,,,,,,,,,,,,,0,1,1,2,1,masks/mask_003.jpg,,,,,,,,,,,,,,,,,,,,,,,,,,,,,,,,,,,,,,,,,,,,,,,,,,,,,,,,,,,,,,,,,,,,,,,,,,,,,,,,,,,,,,,,,,,,
229989,001,2022-11-20_23h55.26.955,Info_measure_main_exp,2022.2.2,Win32,60.0528465,,,,,,,,,,,,,0,2,2,3,1,masks/mask_004.jpg,,,,,,,,,,,,,,,,,,,,,,,,,,,,,,,,,,,,,,,,,,,,,,,,,,,,,,,,,,,,,,,,,,,,,,,,,,,,,,,,,,,,,,,,,,,,
229989,001,2022-11-20_23h55.26.955,Info_measure_main_exp,2022.2.2,Win32,60.0528465,,,,,,,,,,,,,0,3,3,4,1,masks/mask_005.jpg,,,,,,,,,,,,,,,,,,,,,,,,,,,,,,,,,,,,,,,,,,,,,,,,,,,,,,,,,,,,,,,,,,,,,,,,,,,,,,,,,,,,,,,,,,,,
229989,001,2022-11-20_23h55.26.955,Info_measure_main_exp,2022.2.2,Win32,60.0528465,,,,,,,,,,,,,0,4,4,0,1,masks/mask_001.jpg,,,,,,,,,,,,,,,,,,,,,,,,,,,,,,,,,,,,,,,,,,,,,,,,,,,,,,,,,,,,,,,,,,,,,,,,,,,,,,,,,,,,,,,,,,,,
229989,001,2022-11-20_23h55.26.955,Info_measure_main_exp,2022.2.2,Win32,60.0528465,,,,,,,,,,,,,,,,,,masks/mask_005.jpg,0,0,0,4,1,,,,,,,,,,,,,,,,,,,,,,,,,,,,,,,,,,,,,,,,,,,,,,,,,,,,,,,,,,,,,,,,,,,,,,,,,,,,,,,,,,,,,,,
229989,001,2022-11-20_23h55.26.955,Info_measure_main_exp,2022.2.2,Win32,60.0528465,,,,,,,,,,,,,,,,,,masks/mask_003.jpg,0,1,1,2,1,,,,,,,,,,,,,,,,,,,,,,,,,,,,,,,,,,,,,,,,,,,,,,,,,,,,,,,,,,,,,,,,,,,,,,,,,,,,,,,,,,,,,,,
229989,001,2022-11-20_23h55.26.955,Info_measure_main_exp,2022.2.2,Win32,60.0528465,,,,,,,,,,,,,,,,,,masks/mask_001.jpg,0,2,2,0,1,,,,,,,,,,,,,,,,,,,,,,,,,,,,,,,,,,,,,,,,,,,,,,,,,,,,,,,,,,,,,,,,,,,,,,,,,,,,,,,,,,,,,,,
229989,001,2022-11-20_23h55.26.955,Info_measure_main_exp,2022.2.2,Win32,60.0528465,,,,,,,,,,,,,,,,,,masks/mask_004.jpg,0,3,3,3,1,,,,,,,,,,,,,,,,,,,,,,,,,,,,,,,,,,,,,,,,,,,,,,,,,,,,,,,,,,,,,,,,,,,,,,,,,,,,,,,,,,,,,,,
229989,001,2022-11-20_23h55.26.955,Info_measure_main_exp,2022.2.2,Win32,60.0528465,,,,,,,,,,,,,,,,,,masks/mask_002.jpg,0,4,4,1,1,,,,,,,,,,,,,,,,,,,,,,,,,,,,,,,,,,,,,,,,,,,,,,,,,,,,,,,,,,,,,,,,,,,,,,,,,,,,,,,,,,,,,,,
229989,001,2022-11-20_23h55.26.955,Info_measure_main_exp,2022.2.2,Win32,60.0528465,,,,,,,,,,,,,,,,,,,,,,,,0.047550988,0.142840611,1,0,0,response1disk,7,35.025,1,-0.002414383,0.01052507,1,0,0,center_square,0,1,1,1,1,0,131,5,5,2514,2490,prac_patch/patch0002514.jpg,prac_patch/patch0002490.jpg,,,,,,,,,,,,,,,,,,,,,,,,,,,,,,,,,,,,,,,,,,,,,,,,,,,,,,,,,,,
229989,001,2022-11-20_23h55.26.955,Info_measure_main_exp,2022.2.2,Win32,60.0528465,,,,,,,,,,,,,0,0,0,2,1,masks/mask_003.jpg,,,,,,,,,,,,,,,,,,,,,,,,,,,,,,,,,,,,,,,,,,,,,,,,,,,,,,,,,,,,,,,,,,,,,,,,,,,,,,,,,,,,,,,,,,,,
229989,001,2022-11-20_23h55.26.955,Info_measure_main_exp,2022.2.2,Win32,60.0528465,,,,,,,,,,,,,0,1,1,3,1,masks/mask_004.jpg,,,,,,,,,,,,,,,,,,,,,,,,,,,,,,,,,,,,,,,,,,,,,,,,,,,,,,,,,,,,,,,,,,,,,,,,,,,,,,,,,,,,,,,,,,,,
229989,001,2022-11-20_23h55.26.955,Info_measure_main_exp,2022.2.2,Win32,60.0528465,,,,,,,,,,,,,0,2,2,4,1,masks/mask_005.jpg,,,,,,,,,,,,,,,,,,,,,,,,,,,,,,,,,,,,,,,,,,,,,,,,,,,,,,,,,,,,,,,,,,,,,,,,,,,,,,,,,,,,,,,,,,,,
229989,001,2022-11-20_23h55.26.955,Info_measure_main_exp,2022.2.2,Win32,60.0528465,,,,,,,,,,,,,0,3,3,1,1,masks/mask_002.jpg,,,,,,,,,,,,,,,,,,,,,,,,,,,,,,,,,,,,,,,,,,,,,,,,,,,,,,,,,,,,,,,,,,,,,,,,,,,,,,,,,,,,,,,,,,,,
229989,001,2022-11-20_23h55.26.955,Info_measure_main_exp,2022.2.2,Win32,60.0528465,,,,,,,,,,,,,0,4,4,0,1,masks/mask_001.jpg,,,,,,,,,,,,,,,,,,,,,,,,,,,,,,,,,,,,,,,,,,,,,,,,,,,,,,,,,,,,,,,,,,,,,,,,,,,,,,,,,,,,,,,,,,,,
229989,001,2022-11-20_23h55.26.955,Info_measure_main_exp,2022.2.2,Win32,60.0528465,,,,,,,,,,,,,,,,,,masks/mask_001.jpg,0,0,0,0,1,,,,,,,,,,,,,,,,,,,,,,,,,,,,,,,,,,,,,,,,,,,,,,,,,,,,,,,,,,,,,,,,,,,,,,,,,,,,,,,,,,,,,,,
229989,001,2022-11-20_23h55.26.955,Info_measure_main_exp,2022.2.2,Win32,60.0528465,,,,,,,,,,,,,,,,,,masks/mask_004.jpg,0,1,1,3,1,,,,,,,,,,,,,,,,,,,,,,,,,,,,,,,,,,,,,,,,,,,,,,,,,,,,,,,,,,,,,,,,,,,,,,,,,,,,,,,,,,,,,,,
229989,001,2022-11-20_23h55.26.955,Info_measure_main_exp,2022.2.2,Win32,60.0528465,,,,,,,,,,,,,,,,,,masks/mask_005.jpg,0,2,2,4,1,,,,,,,,,,,,,,,,,,,,,,,,,,,,,,,,,,,,,,,,,,,,,,,,,,,,,,,,,,,,,,,,,,,,,,,,,,,,,,,,,,,,,,,
229989,001,2022-11-20_23h55.26.955,Info_measure_main_exp,2022.2.2,Win32,60.0528465,,,,,,,,,,,,,,,,,,masks/mask_003.jpg,0,3,3,2,1,,,,,,,,,,,,,,,,,,,,,,,,,,,,,,,,,,,,,,,,,,,,,,,,,,,,,,,,,,,,,,,,,,,,,,,,,,,,,,,,,,,,,,,
229989,001,2022-11-20_23h55.26.955,Info_measure_main_exp,2022.2.2,Win32,60.0528465,,,,,,,,,,,,,,,,,,masks/mask_002.jpg,0,4,4,1,1,,,,,,,,,,,,,,,,,,,,,,,,,,,,,,,,,,,,,,,,,,,,,,,,,,,,,,,,,,,,,,,,,,,,,,,,,,,,,,,,,,,,,,,
229989,001,2022-11-20_23h55.26.955,Info_measure_main_exp,2022.2.2,Win32,60.0528465,,,,,,,,,,,,,,,,,,,,,,,,0.049401494,0.127110751,1,0,0,response1disk,7,43.8164,1,0.003137254,0.001272245,1,0,0,center_square,0,2,2,0,1,0,131,5,5,2370,2406,prac_patch/patch0002370.jpg,prac_patch/patch0002406.jpg,,,,,,,,,,,,,,,,,,,,,,,,,,,,,,,,,,,,,,,,,,,,,,,,,,,,,,,,,,,
229989,001,2022-11-20_23h55.26.955,Info_measure_main_exp,2022.2.2,Win32,60.0528465,,,,,,,,,,,,,,,,,,,,,,,,,,,,,,,,,,,,,,,,,,,,,,,,,,,,0.003137254,0.001272245,1,0,0,1.1787,center_square,,,,,,,,,,,,,,,,,,,,,,,,,,,,,,,,,,,,,,,,,,,,,,,,,,,,
229989,001,2022-11-20_23h55.26.955,Info_measure_main_exp,2022.2.2,Win32,60.0528465,,,,,,,,,,,,,,,,,,masks/mask_002.jpg,,,,,,,,,,,,,,,,,,,,,,,,,,,,,,,,,,,,,,,,,,0,0,0,1,1,,,,,,,,,,,,,,,,,,,,,,,,,,,,,,,,,,,,,,,,,,,,,,
229989,001,2022-11-20_23h55.26.955,Info_measure_main_exp,2022.2.2,Win32,60.0528465,,,,,,,,,,,,,,,,,,masks/mask_001.jpg,,,,,,,,,,,,,,,,,,,,,,,,,,,,,,,,,,,,,,,,,,0,1,1,0,1,,,,,,,,,,,,,,,,,,,,,,,,,,,,,,,,,,,,,,,,,,,,,,
229989,001,2022-11-20_23h55.26.955,Info_measure_main_exp,2022.2.2,Win32,60.0528465,,,,,,,,,,,,,,,,,,masks/mask_005.jpg,,,,,,,,,,,,,,,,,,,,,,,,,,,,,,,,,,,,,,,,,,0,2,2,4,1,,,,,,,,,,,,,,,,,,,,,,,,,,,,,,,,,,,,,,,,,,,,,,
229989,001,2022-11-20_23h55.26.955,Info_measure_main_exp,2022.2.2,Win32,60.0528465,,,,,,,,,,,,,,,,,,masks/mask_003.jpg,,,,,,,,,,,,,,,,,,,,,,,,,,,,,,,,,,,,,,,,,,0,3,3,2,1,,,,,,,,,,,,,,,,,,,,,,,,,,,,,,,,,,,,,,,,,,,,,,
229989,001,2022-11-20_23h55.26.955,Info_measure_main_exp,2022.2.2,Win32,60.0528465,,,,,,,,,,,,,,,,,,masks/mask_004.jpg,,,,,,,,,,,,,,,,,,,,,,,,,,,,,,,,,,,,,,,,,,0,4,4,3,1,,,,,,,,,,,,,,,,,,,,,,,,,,,,,,,,,,,,,,,,,,,,,,
229989,001,2022-11-20_23h55.26.955,Info_measure_main_exp,2022.2.2,Win32,60.0528465,,,,,,,,,,,,,,,,,,masks/mask_001.jpg,,,,,,,,,,,,,,,,,,,,,,,,,,,,,,,,,,,,,,,,,,,,,,,0,0,0,0,1,,,,,,,,,,,,,,,,,,,,,,,,,,,,,,,,,,,,,,,,,
229989,001,2022-11-20_23h55.26.955,Info_measure_main_exp,2022.2.2,Win32,60.0528465,,,,,,,,,,,,,,,,,,masks/mask_003.jpg,,,,,,,,,,,,,,,,,,,,,,,,,,,,,,,,,,,,,,,,,,,,,,,0,1,1,2,1,,,,,,,,,,,,,,,,,,,,,,,,,,,,,,,,,,,,,,,,,
229989,001,2022-11-20_23h55.26.955,Info_measure_main_exp,2022.2.2,Win32,60.0528465,,,,,,,,,,,,,,,,,,masks/mask_005.jpg,,,,,,,,,,,,,,,,,,,,,,,,,,,,,,,,,,,,,,,,,,,,,,,0,2,2,4,1,,,,,,,,,,,,,,,,,,,,,,,,,,,,,,,,,,,,,,,,,
229989,001,2022-11-20_23h55.26.955,Info_measure_main_exp,2022.2.2,Win32,60.0528465,,,,,,,,,,,,,,,,,,masks/mask_002.jpg,,,,,,,,,,,,,,,,,,,,,,,,,,,,,,,,,,,,,,,,,,,,,,,0,3,3,1,1,,,,,,,,,,,,,,,,,,,,,,,,,,,,,,,,,,,,,,,,,
229989,001,2022-11-20_23h55.26.955,Info_measure_main_exp,2022.2.2,Win32,60.0528465,,,,,,,,,,,,,,,,,,masks/mask_004.jpg,,,,,,,,,,,,,,,,,,,,,,,,,,,,,,,,,,,,,,,,,,,,,,,0,4,4,3,1,,,,,,,,,,,,,,,,,,,,,,,,,,,,,,,,,,,,,,,,,
229989,001,2022-11-20_23h55.26.955,Info_measure_main_exp,2022.2.2,Win32,60.0528465,,,,,,,,,,,,,,,,,,,,,,,,,,,,,,7,0.7164,1,,,,,,,,,,,,0,131,5,5,2166,2298,absent_patch/patch0002166.jpg,absent_patch/patch0002298.jpg,,,,,,,,,,,,,,,,,,,0.084562229,0.121559056,1,0,0,response1disk,1,-0.002414383,0.005898687,1,0,0,center_square,0,0,0,52,1,,,,,,,,,,,,,,,,,,,,,,,
229989,001,2022-11-20_23h55.26.955,Info_measure_main_exp,2022.2.2,Win32,60.0528465,,,,,,,,,,,,,,,,,,masks/mask_004.jpg,,,,,,,,,,,,,,,,,,,,,,,,,,,,,,,,,,,,,,,,,,0,0,0,3,1,,,,,,,,,,,,,,,,,,,,,,,,,,,,,,,,,,,,,,,,,,,,,,
229989,001,2022-11-20_23h55.26.955,Info_measure_main_exp,2022.2.2,Win32,60.0528465,,,,,,,,,,,,,,,,,,masks/mask_002.jpg,,,,,,,,,,,,,,,,,,,,,,,,,,,,,,,,,,,,,,,,,,0,1,1,1,1,,,,,,,,,,,,,,,,,,,,,,,,,,,,,,,,,,,,,,,,,,,,,,
229989,001,2022-11-20_23h55.26.955,Info_measure_main_exp,2022.2.2,Win32,60.0528465,,,,,,,,,,,,,,,,,,masks/mask_003.jpg,,,,,,,,,,,,,,,,,,,,,,,,,,,,,,,,,,,,,,,,,,0,2,2,2,1,,,,,,,,,,,,,,,,,,,,,,,,,,,,,,,,,,,,,,,,,,,,,,
229989,001,2022-11-20_23h55.26.955,Info_measure_main_exp,2022.2.2,Win32,60.0528465,,,,,,,,,,,,,,,,,,masks/mask_001.jpg,,,,,,,,,,,,,,,,,,,,,,,,,,,,,,,,,,,,,,,,,,0,3,3,0,1,,,,,,,,,,,,,,,,,,,,,,,,,,,,,,,,,,,,,,,,,,,,,,
229989,001,2022-11-20_23h55.26.955,Info_measure_main_exp,2022.2.2,Win32,60.0528465,,,,,,,,,,,,,,,,,,masks/mask_005.jpg,,,,,,,,,,,,,,,,,,,,,,,,,,,,,,,,,,,,,,,,,,0,4,4,4,1,,,,,,,,,,,,,,,,,,,,,,,,,,,,,,,,,,,,,,,,,,,,,,
229989,001,2022-11-20_23h55.26.955,Info_measure_main_exp,2022.2.2,Win32,60.0528465,,,,,,,,,,,,,,,,,,masks/mask_004.jpg,,,,,,,,,,,,,,,,,,,,,,,,,,,,,,,,,,,,,,,,,,,,,,,0,0,0,3,1,,,,,,,,,,,,,,,,,,,,,,,,,,,,,,,,,,,,,,,,,
229989,001,2022-11-20_23h55.26.955,Info_measure_main_exp,2022.2.2,Win32,60.0528465,,,,,,,,,,,,,,,,,,masks/mask_002.jpg,,,,,,,,,,,,,,,,,,,,,,,,,,,,,,,,,,,,,,,,,,,,,,,0,1,1,1,1,,,,,,,,,,,,,,,,,,,,,,,,,,,,,,,,,,,,,,,,,
229989,001,2022-11-20_23h55.26.955,Info_measure_main_exp,2022.2.2,Win32,60.0528465,,,,,,,,,,,,,,,,,,masks/mask_001.jpg,,,,,,,,,,,,,,,,,,,,,,,,,,,,,,,,,,,,,,,,,,,,,,,0,2,2,0,1,,,,,,,,,,,,,,,,,,,,,,,,,,,,,,,,,,,,,,,,,
229989,001,2022-11-20_23h55.26.955,Info_measure_main_exp,2022.2.2,Win32,60.0528465,,,,,,,,,,,,,,,,,,masks/mask_005.jpg,,,,,,,,,,,,,,,,,,,,,,,,,,,,,,,,,,,,,,,,,,,,,,,0,3,3,4,1,,,,,,,,,,,,,,,,,,,,,,,,,,,,,,,,,,,,,,,,,
229989,001,2022-11-20_23h55.26.955,Info_measure_main_exp,2022.2.2,Win32,60.0528465,,,,,,,,,,,,,,,,,,masks/mask_003.jpg,,,,,,,,,,,,,,,,,,,,,,,,,,,,,,,,,,,,,,,,,,,,,,,0,4,4,2,1,,,,,,,,,,,,,,,,,,,,,,,,,,,,,,,,,,,,,,,,,
229989,001,2022-11-20_23h55.26.955,Info_measure_main_exp,2022.2.2,Win32,60.0528465,,,,,,,,,,,,,,,,,,,,,,,,,,,,,,7,2.3974,1,,,,,,,,,,,,0,131,5,5,2274,2142,absent_patch/patch0002274.jpg,absent_patch/patch0002142.jpg,,,,,,,,,,,,,,,,,,,0.061430196,0.112306289,1,0,0,response1disk,2,0.004987877,-0.00427945,1,0,0,center_square,0,1,1,75,1,,,,,,,,,,,,,,,,,,,,,,,
229989,001,2022-11-20_23h55.26.955,Info_measure_main_exp,2022.2.2,Win32,60.0528465,,,,,,,,,,,,,,,,,,masks/mask_004.jpg,,,,,,,,,,,,,,,,,,,,,,,,,,,,,,,,,,,,,,,,,,0,0,0,3,1,,,,,,,,,,,,,,,,,,,,,,,,,,,,,,,,,,,,,,,,,,,,,,
229989,001,2022-11-20_23h55.26.955,Info_measure_main_exp,2022.2.2,Win32,60.0528465,,,,,,,,,,,,,,,,,,masks/mask_001.jpg,,,,,,,,,,,,,,,,,,,,,,,,,,,,,,,,,,,,,,,,,,0,1,1,0,1,,,,,,,,,,,,,,,,,,,,,,,,,,,,,,,,,,,,,,,,,,,,,,
229989,001,2022-11-20_23h55.26.955,Info_measure_main_exp,2022.2.2,Win32,60.0528465,,,,,,,,,,,,,,,,,,masks/mask_003.jpg,,,,,,,,,,,,,,,,,,,,,,,,,,,,,,,,,,,,,,,,,,0,2,2,2,1,,,,,,,,,,,,,,,,,,,,,,,,,,,,,,,,,,,,,,,,,,,,,,
229989,001,2022-11-20_23h55.26.955,Info_measure_main_exp,2022.2.2,Win32,60.0528465,,,,,,,,,,,,,,,,,,masks/mask_002.jpg,,,,,,,,,,,,,,,,,,,,,,,,,,,,,,,,,,,,,,,,,,0,3,3,1,1,,,,,,,,,,,,,,,,,,,,,,,,,,,,,,,,,,,,,,,,,,,,,,
229989,001,2022-11-20_23h55.26.955,Info_measure_main_exp,2022.2.2,Win32,60.0528465,,,,,,,,,,,,,,,,,,masks/mask_005.jpg,,,,,,,,,,,,,,,,,,,,,,,,,,,,,,,,,,,,,,,,,,0,4,4,4,1,,,,,,,,,,,,,,,,,,,,,,,,,,,,,,,,,,,,,,,,,,,,,,
229989,001,2022-11-20_23h55.26.955,Info_measure_main_exp,2022.2.2,Win32,60.0528465,,,,,,,,,,,,,,,,,,masks/mask_005.jpg,,,,,,,,,,,,,,,,,,,,,,,,,,,,,,,,,,,,,,,,,,,,,,,0,0,0,4,1,,,,,,,,,,,,,,,,,,,,,,,,,,,,,,,,,,,,,,,,,
229989,001,2022-11-20_23h55.26.955,Info_measure_main_exp,2022.2.2,Win32,60.0528465,,,,,,,,,,,,,,,,,,masks/mask_002.jpg,,,,,,,,,,,,,,,,,,,,,,,,,,,,,,,,,,,,,,,,,,,,,,,0,1,1,1,1,,,,,,,,,,,,,,,,,,,,,,,,,,,,,,,,,,,,,,,,,
229989,001,2022-11-20_23h55.26.955,Info_measure_main_exp,2022.2.2,Win32,60.0528465,,,,,,,,,,,,,,,,,,masks/mask_004.jpg,,,,,,,,,,,,,,,,,,,,,,,,,,,,,,,,,,,,,,,,,,,,,,,0,2,2,3,1,,,,,,,,,,,,,,,,,,,,,,,,,,,,,,,,,,,,,,,,,
229989,001,2022-11-20_23h55.26.955,Info_measure_main_exp,2022.2.2,Win32,60.0528465,,,,,,,,,,,,,,,,,,masks/mask_001.jpg,,,,,,,,,,,,,,,,,,,,,,,,,,,,,,,,,,,,,,,,,,,,,,,0,3,3,0,1,,,,,,,,,,,,,,,,,,,,,,,,,,,,,,,,,,,,,,,,,
229989,001,2022-11-20_23h55.26.955,Info_measure_main_exp,2022.2.2,Win32,60.0528465,,,,,,,,,,,,,,,,,,masks/mask_003.jpg,,,,,,,,,,,,,,,,,,,,,,,,,,,,,,,,,,,,,,,,,,,,,,,0,4,4,2,1,,,,,,,,,,,,,,,,,,,,,,,,,,,,,,,,,,,,,,,,,
229989,001,2022-11-20_23h55.26.955,Info_measure_main_exp,2022.2.2,Win32,60.0528465,,,,,,,,,,,,,,,,,,,,,,,,,,,,,,7,0.666,1,,,,,,,,,,,,0,131,5,5,1950,2238,absent_patch/patch0001950.jpg,absent_patch/patch0002238.jpg,,,,,,,,,,,,,,,,,,,0.064206014,0.13173725,1,0,0,response1disk,3,-0.00148913,0.00312281,1,0,0,center_square,0,2,2,8,1,,,,,,,,,,,,,,,,,,,,,,,
229989,001,2022-11-20_23h55.26.955,Info_measure_main_exp,2022.2.2,Win32,60.0528465,,,,,,,,,,,,,,,,,,masks/mask_005.jpg,,,,,,,,,,,,,,,,,,,,,,,,,,,,,,,,,,,,,,,,,,0,0,0,4,1,,,,,,,,,,,,,,,,,,,,,,,,,,,,,,,,,,,,,,,,,,,,,,
229989,001,2022-11-20_23h55.26.955,Info_measure_main_exp,2022.2.2,Win32,60.0528465,,,,,,,,,,,,,,,,,,masks/mask_003.jpg,,,,,,,,,,,,,,,,,,,,,,,,,,,,,,,,,,,,,,,,,,0,1,1,2,1,,,,,,,,,,,,,,,,,,,,,,,,,,,,,,,,,,,,,,,,,,,,,,
229989,001,2022-11-20_23h55.26.955,Info_measure_main_exp,2022.2.2,Win32,60.0528465,,,,,,,,,,,,,,,,,,masks/mask_004.jpg,,,,,,,,,,,,,,,,,,,,,,,,,,,,,,,,,,,,,,,,,,0,2,2,3,1,,,,,,,,,,,,,,,,,,,,,,,,,,,,,,,,,,,,,,,,,,,,,,
229989,001,2022-11-20_23h55.26.955,Info_measure_main_exp,2022.2.2,Win32,60.0528465,,,,,,,,,,,,,,,,,,masks/mask_002.jpg,,,,,,,,,,,,,,,,,,,,,,,,,,,,,,,,,,,,,,,,,,0,3,3,1,1,,,,,,,,,,,,,,,,,,,,,,,,,,,,,,,,,,,,,,,,,,,,,,
229989,001,2022-11-20_23h55.26.955,Info_measure_main_exp,2022.2.2,Win32,60.0528465,,,,,,,,,,,,,,,,,,masks/mask_001.jpg,,,,,,,,,,,,,,,,,,,,,,,,,,,,,,,,,,,,,,,,,,0,4,4,0,1,,,,,,,,,,,,,,,,,,,,,,,,,,,,,,,,,,,,,,,,,,,,,,
229989,001,2022-11-20_23h55.26.955,Info_measure_main_exp,2022.2.2,Win32,60.0528465,,,,,,,,,,,,,,,,,,masks/mask_002.jpg,,,,,,,,,,,,,,,,,,,,,,,,,,,,,,,,,,,,,,,,,,,,,,,0,0,0,1,1,,,,,,,,,,,,,,,,,,,,,,,,,,,,,,,,,,,,,,,,,
229989,001,2022-11-20_23h55.26.955,Info_measure_main_exp,2022.2.2,Win32,60.0528465,,,,,,,,,,,,,,,,,,masks/mask_001.jpg,,,,,,,,,,,,,,,,,,,,,,,,,,,,,,,,,,,,,,,,,,,,,,,0,1,1,0,1,,,,,,,,,,,,,,,,,,,,,,,,,,,,,,,,,,,,,,,,,
229989,001,2022-11-20_23h55.26.955,Info_measure_main_exp,2022.2.2,Win32,60.0528465,,,,,,,,,,,,,,,,,,masks/mask_004.jpg,,,,,,,,,,,,,,,,,,,,,,,,,,,,,,,,,,,,,,,,,,,,,,,0,2,2,3,1,,,,,,,,,,,,,,,,,,,,,,,,,,,,,,,,,,,,,,,,,
229989,001,2022-11-20_23h55.26.955,Info_measure_main_exp,2022.2.2,Win32,60.0528465,,,,,,,,,,,,,,,,,,masks/mask_005.jpg,,,,,,,,,,,,,,,,,,,,,,,,,,,,,,,,,,,,,,,,,,,,,,,0,3,3,4,1,,,,,,,,,,,,,,,,,,,,,,,,,,,,,,,,,,,,,,,,,
229989,001,2022-11-20_23h55.26.955,Info_measure_main_exp,2022.2.2,Win32,60.0528465,,,,,,,,,,,,,,,,,,masks/mask_003.jpg,,,,,,,,,,,,,,,,,,,,,,,,,,,,,,,,,,,,,,,,,,,,,,,0,4,4,2,1,,,,,,,,,,,,,,,,,,,,,,,,,,,,,,,,,,,,,,,,,
229989,001,2022-11-20_23h55.26.955,Info_measure_main_exp,2022.2.2,Win32,60.0528465,,,,,,,,,,,,,,,,,,,,,,,,,,,,,,7,3.4134,1,,,,,,,,,,,,0,131,5,5,2082,1986,absent_patch/patch0002082.jpg,absent_patch/patch0001986.jpg,,,,,,,,,,,,,,,,,,,0.057729008,0.128036062,1,0,0,response1disk,4,0.000361494,0.005898687,1,0,0,center_square,0,3,3,94,1,,,,,,,,,,,,,,,,,,,,,,,
229989,001,2022-11-20_23h55.26.955,Info_measure_main_exp,2022.2.2,Win32,60.0528465,,,,,,,,,,,,,,,,,,masks/mask_004.jpg,,,,,,,,,,,,,,,,,,,,,,,,,,,,,,,,,,,,,,,,,,0,0,0,3,1,,,,,,,,,,,,,,,,,,,,,,,,,,,,,,,,,,,,,,,,,,,,,,
229989,001,2022-11-20_23h55.26.955,Info_measure_main_exp,2022.2.2,Win32,60.0528465,,,,,,,,,,,,,,,,,,masks/mask_002.jpg,,,,,,,,,,,,,,,,,,,,,,,,,,,,,,,,,,,,,,,,,,0,1,1,1,1,,,,,,,,,,,,,,,,,,,,,,,,,,,,,,,,,,,,,,,,,,,,,,
229989,001,2022-11-20_23h55.26.955,Info_measure_main_exp,2022.2.2,Win32,60.0528465,,,,,,,,,,,,,,,,,,masks/mask_005.jpg,,,,,,,,,,,,,,,,,,,,,,,,,,,,,,,,,,,,,,,,,,0,2,2,4,1,,,,,,,,,,,,,,,,,,,,,,,,,,,,,,,,,,,,,,,,,,,,,,
229989,001,2022-11-20_23h55.26.955,Info_measure_main_exp,2022.2.2,Win32,60.0528465,,,,,,,,,,,,,,,,,,masks/mask_001.jpg,,,,,,,,,,,,,,,,,,,,,,,,,,,,,,,,,,,,,,,,,,0,3,3,0,1,,,,,,,,,,,,,,,,,,,,,,,,,,,,,,,,,,,,,,,,,,,,,,
229989,001,2022-11-20_23h55.26.955,Info_measure_main_exp,2022.2.2,Win32,60.0528465,,,,,,,,,,,,,,,,,,masks/mask_003.jpg,,,,,,,,,,,,,,,,,,,,,,,,,,,,,,,,,,,,,,,,,,0,4,4,2,1,,,,,,,,,,,,,,,,,,,,,,,,,,,,,,,,,,,,,,,,,,,,,,
229989,001,2022-11-20_23h55.26.955,Info_measure_main_exp,2022.2.2,Win32,60.0528465,,,,,,,,,,,,,,,,,,masks/mask_002.jpg,,,,,,,,,,,,,,,,,,,,,,,,,,,,,,,,,,,,,,,,,,,,,,,0,0,0,1,1,,,,,,,,,,,,,,,,,,,,,,,,,,,,,,,,,,,,,,,,,
229989,001,2022-11-20_23h55.26.955,Info_measure_main_exp,2022.2.2,Win32,60.0528465,,,,,,,,,,,,,,,,,,masks/mask_003.jpg,,,,,,,,,,,,,,,,,,,,,,,,,,,,,,,,,,,,,,,,,,,,,,,0,1,1,2,1,,,,,,,,,,,,,,,,,,,,,,,,,,,,,,,,,,,,,,,,,
229989,001,2022-11-20_23h55.26.955,Info_measure_main_exp,2022.2.2,Win32,60.0528465,,,,,,,,,,,,,,,,,,masks/mask_005.jpg,,,,,,,,,,,,,,,,,,,,,,,,,,,,,,,,,,,,,,,,,,,,,,,0,2,2,4,1,,,,,,,,,,,,,,,,,,,,,,,,,,,,,,,,,,,,,,,,,
229989,001,2022-11-20_23h55.26.955,Info_measure_main_exp,2022.2.2,Win32,60.0528465,,,,,,,,,,,,,,,,,,masks/mask_001.jpg,,,,,,,,,,,,,,,,,,,,,,,,,,,,,,,,,,,,,,,,,,,,,,,0,3,3,0,1,,,,,,,,,,,,,,,,,,,,,,,,,,,,,,,,,,,,,,,,,
229989,001,2022-11-20_23h55.26.955,Info_measure_main_exp,2022.2.2,Win32,60.0528465,,,,,,,,,,,,,,,,,,masks/mask_004.jpg,,,,,,,,,,,,,,,,,,,,,,,,,,,,,,,,,,,,,,,,,,,,,,,0,4,4,3,1,,,,,,,,,,,,,,,,,,,,,,,,,,,,,,,,,,,,,,,,,
229989,001,2022-11-20_23h55.26.955,Info_measure_main_exp,2022.2.2,Win32,60.0528465,,,,,,,,,,,,,,,,,,,,,,,,,,,,,,7,0.5163,1,,,,,,,,,,,,0,131,5,5,2142,2166,absent_patch/patch0002142.jpg,absent_patch/patch0002166.jpg,,,,,,,,,,,,,,,,,,,0.067907144,0.140990046,1,0,0,response1disk,5,-0.004264948,-0.003354138,1,0,0,center_square,0,4,4,66,1,,,,,,,,,,,,,,,,,,,,,,,
229989,001,2022-11-20_23h55.26.955,Info_measure_main_exp,2022.2.2,Win32,60.0528465,,,,,,,,,,,,,,,,,,masks/mask_005.jpg,,,,,,,,,,,,,,,,,,,,,,,,,,,,,,,,,,,,,,,,,,0,0,0,4,1,,,,,,,,,,,,,,,,,,,,,,,,,,,,,,,,,,,,,,,,,,,,,,
229989,001,2022-11-20_23h55.26.955,Info_measure_main_exp,2022.2.2,Win32,60.0528465,,,,,,,,,,,,,,,,,,masks/mask_002.jpg,,,,,,,,,,,,,,,,,,,,,,,,,,,,,,,,,,,,,,,,,,0,1,1,1,1,,,,,,,,,,,,,,,,,,,,,,,,,,,,,,,,,,,,,,,,,,,,,,
229989,001,2022-11-20_23h55.26.955,Info_measure_main_exp,2022.2.2,Win32,60.0528465,,,,,,,,,,,,,,,,,,masks/mask_003.jpg,,,,,,,,,,,,,,,,,,,,,,,,,,,,,,,,,,,,,,,,,,0,2,2,2,1,,,,,,,,,,,,,,,,,,,,,,,,,,,,,,,,,,,,,,,,,,,,,,
229989,001,2022-11-20_23h55.26.955,Info_measure_main_exp,2022.2.2,Win32,60.0528465,,,,,,,,,,,,,,,,,,masks/mask_004.jpg,,,,,,,,,,,,,,,,,,,,,,,,,,,,,,,,,,,,,,,,,,0,3,3,3,1,,,,,,,,,,,,,,,,,,,,,,,,,,,,,,,,,,,,,,,,,,,,,,
229989,001,2022-11-20_23h55.26.955,Info_measure_main_exp,2022.2.2,Win32,60.0528465,,,,,,,,,,,,,,,,,,masks/mask_001.jpg,,,,,,,,,,,,,,,,,,,,,,,,,,,,,,,,,,,,,,,,,,0,4,4,0,1,,,,,,,,,,,,,,,,,,,,,,,,,,,,,,,,,,,,,,,,,,,,,,
229989,001,2022-11-20_23h55.26.955,Info_measure_main_exp,2022.2.2,Win32,60.0528465,,,,,,,,,,,,,,,,,,masks/mask_001.jpg,,,,,,,,,,,,,,,,,,,,,,,,,,,,,,,,,,,,,,,,,,,,,,,0,0,0,0,1,,,,,,,,,,,,,,,,,,,,,,,,,,,,,,,,,,,,,,,,,
229989,001,2022-11-20_23h55.26.955,Info_measure_main_exp,2022.2.2,Win32,60.0528465,,,,,,,,,,,,,,,,,,masks/mask_004.jpg,,,,,,,,,,,,,,,,,,,,,,,,,,,,,,,,,,,,,,,,,,,,,,,0,1,1,3,1,,,,,,,,,,,,,,,,,,,,,,,,,,,,,,,,,,,,,,,,,
229989,001,2022-11-20_23h55.26.955,Info_measure_main_exp,2022.2.2,Win32,60.0528465,,,,,,,,,,,,,,,,,,masks/mask_005.jpg,,,,,,,,,,,,,,,,,,,,,,,,,,,,,,,,,,,,,,,,,,,,,,,0,2,2,4,1,,,,,,,,,,,,,,,,,,,,,,,,,,,,,,,,,,,,,,,,,
229989,001,2022-11-20_23h55.26.955,Info_measure_main_exp,2022.2.2,Win32,60.0528465,,,,,,,,,,,,,,,,,,masks/mask_002.jpg,,,,,,,,,,,,,,,,,,,,,,,,,,,,,,,,,,,,,,,,,,,,,,,0,3,3,1,1,,,,,,,,,,,,,,,,,,,,,,,,,,,,,,,,,,,,,,,,,
229989,001,2022-11-20_23h55.26.955,Info_measure_main_exp,2022.2.2,Win32,60.0528465,,,,,,,,,,,,,,,,,,masks/mask_003.jpg,,,,,,,,,,,,,,,,,,,,,,,,,,,,,,,,,,,,,,,,,,,,,,,0,4,4,2,1,,,,,,,,,,,,,,,,,,,,,,,,,,,,,,,,,,,,,,,,,
229989,001,2022-11-20_23h55.26.955,Info_measure_main_exp,2022.2.2,Win32,60.0528465,,,,,,,,,,,,,,,,,,,,,,,,,,,,,,7,1.8481,1,,,,,,,,,,,,0,131,5,5,2154,1974,absent_patch/patch0002154.jpg,absent_patch/patch0001974.jpg,,,,,,,,,,,,,,,,,,,0.056803754,0.109530413,1,0,0,response1disk,6,-0.010741955,-0.003354138,1,0,0,center_square,0,5,5,82,1,,,,,,,,,,,,,,,,,,,,,,,
229989,001,2022-11-20_23h55.26.955,Info_measure_main_exp,2022.2.2,Win32,60.0528465,,,,,,,,,,,,,,,,,,masks/mask_002.jpg,,,,,,,,,,,,,,,,,,,,,,,,,,,,,,,,,,,,,,,,,,0,0,0,1,1,,,,,,,,,,,,,,,,,,,,,,,,,,,,,,,,,,,,,,,,,,,,,,
229989,001,2022-11-20_23h55.26.955,Info_measure_main_exp,2022.2.2,Win32,60.0528465,,,,,,,,,,,,,,,,,,masks/mask_004.jpg,,,,,,,,,,,,,,,,,,,,,,,,,,,,,,,,,,,,,,,,,,0,1,1,3,1,,,,,,,,,,,,,,,,,,,,,,,,,,,,,,,,,,,,,,,,,,,,,,
229989,001,2022-11-20_23h55.26.955,Info_measure_main_exp,2022.2.2,Win32,60.0528465,,,,,,,,,,,,,,,,,,masks/mask_003.jpg,,,,,,,,,,,,,,,,,,,,,,,,,,,,,,,,,,,,,,,,,,0,2,2,2,1,,,,,,,,,,,,,,,,,,,,,,,,,,,,,,,,,,,,,,,,,,,,,,
229989,001,2022-11-20_23h55.26.955,Info_measure_main_exp,2022.2.2,Win32,60.0528465,,,,,,,,,,,,,,,,,,masks/mask_001.jpg,,,,,,,,,,,,,,,,,,,,,,,,,,,,,,,,,,,,,,,,,,0,3,3,0,1,,,,,,,,,,,,,,,,,,,,,,,,,,,,,,,,,,,,,,,,,,,,,,
229989,001,2022-11-20_23h55.26.955,Info_measure_main_exp,2022.2.2,Win32,60.0528465,,,,,,,,,,,,,,,,,,masks/mask_005.jpg,,,,,,,,,,,,,,,,,,,,,,,,,,,,,,,,,,,,,,,,,,0,4,4,4,1,,,,,,,,,,,,,,,,,,,,,,,,,,,,,,,,,,,,,,,,,,,,,,
229989,001,2022-11-20_23h55.26.955,Info_measure_main_exp,2022.2.2,Win32,60.0528465,,,,,,,,,,,,,,,,,,masks/mask_001.jpg,,,,,,,,,,,,,,,,,,,,,,,,,,,,,,,,,,,,,,,,,,,,,,,0,0,0,0,1,,,,,,,,,,,,,,,,,,,,,,,,,,,,,,,,,,,,,,,,,
229989,001,2022-11-20_23h55.26.955,Info_measure_main_exp,2022.2.2,Win32,60.0528465,,,,,,,,,,,,,,,,,,masks/mask_005.jpg,,,,,,,,,,,,,,,,,,,,,,,,,,,,,,,,,,,,,,,,,,,,,,,0,1,1,4,1,,,,,,,,,,,,,,,,,,,,,,,,,,,,,,,,,,,,,,,,,
229989,001,2022-11-20_23h55.26.955,Info_measure_main_exp,2022.2.2,Win32,60.0528465,,,,,,,,,,,,,,,,,,masks/mask_004.jpg,,,,,,,,,,,,,,,,,,,,,,,,,,,,,,,,,,,,,,,,,,,,,,,0,2,2,3,1,,,,,,,,,,,,,,,,,,,,,,,,,,,,,,,,,,,,,,,,,
229989,001,2022-11-20_23h55.26.955,Info_measure_main_exp,2022.2.2,Win32,60.0528465,,,,,,,,,,,,,,,,,,masks/mask_003.jpg,,,,,,,,,,,,,,,,,,,,,,,,,,,,,,,,,,,,,,,,,,,,,,,0,3,3,2,1,,,,,,,,,,,,,,,,,,,,,,,,,,,,,,,,,,,,,,,,,
229989,001,2022-11-20_23h55.26.955,Info_measure_main_exp,2022.2.2,Win32,60.0528465,,,,,,,,,,,,,,,,,,masks/mask_002.jpg,,,,,,,,,,,,,,,,,,,,,,,,,,,,,,,,,,,,,,,,,,,,,,,0,4,4,1,1,,,,,,,,,,,,,,,,,,,,,,,,,,,,,,,,,,,,,,,,,
229989,001,2022-11-20_23h55.26.955,Info_measure_main_exp,2022.2.2,Win32,60.0528465,,,,,,,,,,,,,,,,,,,,,,,,,,,,,,7,1.8313,1,,,,,,,,,,,,1,131,5,5,1,2166,present_patch/cong_131_5_a.jpg,absent_patch/patch0002166.jpg,,,,,,,,,,,,,,,,,,,0.079010534,0.103978718,1,0,0,response1disk,7,-0.004264948,0.00312281,1,0,0,center_square,0,6,6,54,1,,,,,,,,,,,,,,,,,,,,,,,
229989,001,2022-11-20_23h55.26.955,Info_measure_main_exp,2022.2.2,Win32,60.0528465,,,,,,,,,,,,,,,,,,masks/mask_004.jpg,,,,,,,,,,,,,,,,,,,,,,,,,,,,,,,,,,,,,,,,,,0,0,0,3,1,,,,,,,,,,,,,,,,,,,,,,,,,,,,,,,,,,,,,,,,,,,,,,
229989,001,2022-11-20_23h55.26.955,Info_measure_main_exp,2022.2.2,Win32,60.0528465,,,,,,,,,,,,,,,,,,masks/mask_001.jpg,,,,,,,,,,,,,,,,,,,,,,,,,,,,,,,,,,,,,,,,,,0,1,1,0,1,,,,,,,,,,,,,,,,,,,,,,,,,,,,,,,,,,,,,,,,,,,,,,
229989,001,2022-11-20_23h55.26.955,Info_measure_main_exp,2022.2.2,Win32,60.0528465,,,,,,,,,,,,,,,,,,masks/mask_005.jpg,,,,,,,,,,,,,,,,,,,,,,,,,,,,,,,,,,,,,,,,,,0,2,2,4,1,,,,,,,,,,,,,,,,,,,,,,,,,,,,,,,,,,,,,,,,,,,,,,
229989,001,2022-11-20_23h55.26.955,Info_measure_main_exp,2022.2.2,Win32,60.0528465,,,,,,,,,,,,,,,,,,masks/mask_002.jpg,,,,,,,,,,,,,,,,,,,,,,,,,,,,,,,,,,,,,,,,,,0,3,3,1,1,,,,,,,,,,,,,,,,,,,,,,,,,,,,,,,,,,,,,,,,,,,,,,
229989,001,2022-11-20_23h55.26.955,Info_measure_main_exp,2022.2.2,Win32,60.0528465,,,,,,,,,,,,,,,,,,masks/mask_003.jpg,,,,,,,,,,,,,,,,,,,,,,,,,,,,,,,,,,,,,,,,,,0,4,4,2,1,,,,,,,,,,,,,,,,,,,,,,,,,,,,,,,,,,,,,,,,,,,,,,
229989,001,2022-11-20_23h55.26.955,Info_measure_main_exp,2022.2.2,Win32,60.0528465,,,,,,,,,,,,,,,,,,masks/mask_005.jpg,,,,,,,,,,,,,,,,,,,,,,,,,,,,,,,,,,,,,,,,,,,,,,,0,0,0,4,1,,,,,,,,,,,,,,,,,,,,,,,,,,,,,,,,,,,,,,,,,
229989,001,2022-11-20_23h55.26.955,Info_measure_main_exp,2022.2.2,Win32,60.0528465,,,,,,,,,,,,,,,,,,masks/mask_004.jpg,,,,,,,,,,,,,,,,,,,,,,,,,,,,,,,,,,,,,,,,,,,,,,,0,1,1,3,1,,,,,,,,,,,,,,,,,,,,,,,,,,,,,,,,,,,,,,,,,
229989,001,2022-11-20_23h55.26.955,Info_measure_main_exp,2022.2.2,Win32,60.0528465,,,,,,,,,,,,,,,,,,masks/mask_002.jpg,,,,,,,,,,,,,,,,,,,,,,,,,,,,,,,,,,,,,,,,,,,,,,,0,2,2,1,1,,,,,,,,,,,,,,,,,,,,,,,,,,,,,,,,,,,,,,,,,
229989,001,2022-11-20_23h55.26.955,Info_measure_main_exp,2022.2.2,Win32,60.0528465,,,,,,,,,,,,,,,,,,masks/mask_001.jpg,,,,,,,,,,,,,,,,,,,,,,,,,,,,,,,,,,,,,,,,,,,,,,,0,3,3,0,1,,,,,,,,,,,,,,,,,,,,,,,,,,,,,,,,,,,,,,,,,
229989,001,2022-11-20_23h55.26.955,Info_measure_main_exp,2022.2.2,Win32,60.0528465,,,,,,,,,,,,,,,,,,masks/mask_003.jpg,,,,,,,,,,,,,,,,,,,,,,,,,,,,,,,,,,,,,,,,,,,,,,,0,4,4,2,1,,,,,,,,,,,,,,,,,,,,,,,,,,,,,,,,,,,,,,,,,
229989,001,2022-11-20_23h55.26.955,Info_measure_main_exp,2022.2.2,Win32,60.0528465,,,,,,,,,,,,,,,,,,,,,,,,,,,,,,0,0.616,1,,,,,,,,,,,,0,131,5,5,1974,1974,absent_patch/patch0001974.jpg,absent_patch/patch0001974.jpg,,,,,,,,,,,,,,,,,,,-0.05793139,0.137288916,1,0,0,response7disk,8,-0.000563876,-0.002428885,1,0,0,center_square,0,7,7,113,1,,,,,,,,,,,,,,,,,,,,,,,
229989,001,2022-11-20_23h55.26.955,Info_measure_main_exp,2022.2.2,Win32,60.0528465,,,,,,,,,,,,,,,,,,masks/mask_005.jpg,,,,,,,,,,,,,,,,,,,,,,,,,,,,,,,,,,,,,,,,,,0,0,0,4,1,,,,,,,,,,,,,,,,,,,,,,,,,,,,,,,,,,,,,,,,,,,,,,
229989,001,2022-11-20_23h55.26.955,Info_measure_main_exp,2022.2.2,Win32,60.0528465,,,,,,,,,,,,,,,,,,masks/mask_002.jpg,,,,,,,,,,,,,,,,,,,,,,,,,,,,,,,,,,,,,,,,,,0,1,1,1,1,,,,,,,,,,,,,,,,,,,,,,,,,,,,,,,,,,,,,,,,,,,,,,
229989,001,2022-11-20_23h55.26.955,Info_measure_main_exp,2022.2.2,Win32,60.0528465,,,,,,,,,,,,,,,,,,masks/mask_001.jpg,,,,,,,,,,,,,,,,,,,,,,,,,,,,,,,,,,,,,,,,,,0,2,2,0,1,,,,,,,,,,,,,,,,,,,,,,,,,,,,,,,,,,,,,,,,,,,,,,
229989,001,2022-11-20_23h55.26.955,Info_measure_main_exp,2022.2.2,Win32,60.0528465,,,,,,,,,,,,,,,,,,masks/mask_004.jpg,,,,,,,,,,,,,,,,,,,,,,,,,,,,,,,,,,,,,,,,,,0,3,3,3,1,,,,,,,,,,,,,,,,,,,,,,,,,,,,,,,,,,,,,,,,,,,,,,
229989,001,2022-11-20_23h55.26.955,Info_measure_main_exp,2022.2.2,Win32,60.0528465,,,,,,,,,,,,,,,,,,masks/mask_003.jpg,,,,,,,,,,,,,,,,,,,,,,,,,,,,,,,,,,,,,,,,,,0,4,4,2,1,,,,,,,,,,,,,,,,,,,,,,,,,,,,,,,,,,,,,,,,,,,,,,
229989,001,2022-11-20_23h55.26.955,Info_measure_main_exp,2022.2.2,Win32,60.0528465,,,,,,,,,,,,,,,,,,masks/mask_005.jpg,,,,,,,,,,,,,,,,,,,,,,,,,,,,,,,,,,,,,,,,,,,,,,,0,0,0,4,1,,,,,,,,,,,,,,,,,,,,,,,,,,,,,,,,,,,,,,,,,
229989,001,2022-11-20_23h55.26.955,Info_measure_main_exp,2022.2.2,Win32,60.0528465,,,,,,,,,,,,,,,,,,masks/mask_004.jpg,,,,,,,,,,,,,,,,,,,,,,,,,,,,,,,,,,,,,,,,,,,,,,,0,1,1,3,1,,,,,,,,,,,,,,,,,,,,,,,,,,,,,,,,,,,,,,,,,
229989,001,2022-11-20_23h55.26.955,Info_measure_main_exp,2022.2.2,Win32,60.0528465,,,,,,,,,,,,,,,,,,masks/mask_001.jpg,,,,,,,,,,,,,,,,,,,,,,,,,,,,,,,,,,,,,,,,,,,,,,,0,2,2,0,1,,,,,,,,,,,,,,,,,,,,,,,,,,,,,,,,,,,,,,,,,
229989,001,2022-11-20_23h55.26.955,Info_measure_main_exp,2022.2.2,Win32,60.0528465,,,,,,,,,,,,,,,,,,masks/mask_003.jpg,,,,,,,,,,,,,,,,,,,,,,,,,,,,,,,,,,,,,,,,,,,,,,,0,3,3,2,1,,,,,,,,,,,,,,,,,,,,,,,,,,,,,,,,,,,,,,,,,
229989,001,2022-11-20_23h55.26.955,Info_measure_main_exp,2022.2.2,Win32,60.0528465,,,,,,,,,,,,,,,,,,masks/mask_002.jpg,,,,,,,,,,,,,,,,,,,,,,,,,,,,,,,,,,,,,,,,,,,,,,,0,4,4,1,1,,,,,,,,,,,,,,,,,,,,,,,,,,,,,,,,,,,,,,,,,
229989,001,2022-11-20_23h55.26.955,Info_measure_main_exp,2022.2.2,Win32,60.0528465,,,,,,,,,,,,,,,,,,,,,,,,,,,,,,7,1.3489,1,,,,,,,,,,,,1,131,5,5,1,1974,present_patch/cong_131_5_a.jpg,absent_patch/patch0001974.jpg,,,,,,,,,,,,,,,,,,,0.036447598,0.110455724,1,0,0,response1disk,9,-0.000563876,-0.007055385,1,0,0,center_square,0,8,8,69,1,,,,,,,,,,,,,,,,,,,,,,,
229989,001,2022-11-20_23h55.26.955,Info_measure_main_exp,2022.2.2,Win32,60.0528465,,,,,,,,,,,,,,,,,,masks/mask_004.jpg,,,,,,,,,,,,,,,,,,,,,,,,,,,,,,,,,,,,,,,,,,0,0,0,3,1,,,,,,,,,,,,,,,,,,,,,,,,,,,,,,,,,,,,,,,,,,,,,,
229989,001,2022-11-20_23h55.26.955,Info_measure_main_exp,2022.2.2,Win32,60.0528465,,,,,,,,,,,,,,,,,,masks/mask_005.jpg,,,,,,,,,,,,,,,,,,,,,,,,,,,,,,,,,,,,,,,,,,0,1,1,4,1,,,,,,,,,,,,,,,,,,,,,,,,,,,,,,,,,,,,,,,,,,,,,,
229989,001,2022-11-20_23h55.26.955,Info_measure_main_exp,2022.2.2,Win32,60.0528465,,,,,,,,,,,,,,,,,,masks/mask_003.jpg,,,,,,,,,,,,,,,,,,,,,,,,,,,,,,,,,,,,,,,,,,0,2,2,2,1,,,,,,,,,,,,,,,,,,,,,,,,,,,,,,,,,,,,,,,,,,,,,,
229989,001,2022-11-20_23h55.26.955,Info_measure_main_exp,2022.2.2,Win32,60.0528465,,,,,,,,,,,,,,,,,,masks/mask_002.jpg,,,,,,,,,,,,,,,,,,,,,,,,,,,,,,,,,,,,,,,,,,0,3,3,1,1,,,,,,,,,,,,,,,,,,,,,,,,,,,,,,,,,,,,,,,,,,,,,,
229989,001,2022-11-20_23h55.26.955,Info_measure_main_exp,2022.2.2,Win32,60.0528465,,,,,,,,,,,,,,,,,,masks/mask_001.jpg,,,,,,,,,,,,,,,,,,,,,,,,,,,,,,,,,,,,,,,,,,0,4,4,0,1,,,,,,,,,,,,,,,,,,,,,,,,,,,,,,,,,,,,,,,,,,,,,,
229989,001,2022-11-20_23h55.26.955,Info_measure_main_exp,2022.2.2,Win32,60.0528465,,,,,,,,,,,,,,,,,,masks/mask_002.jpg,,,,,,,,,,,,,,,,,,,,,,,,,,,,,,,,,,,,,,,,,,,,,,,0,0,0,1,1,,,,,,,,,,,,,,,,,,,,,,,,,,,,,,,,,,,,,,,,,
229989,001,2022-11-20_23h55.26.955,Info_measure_main_exp,2022.2.2,Win32,60.0528465,,,,,,,,,,,,,,,,,,masks/mask_003.jpg,,,,,,,,,,,,,,,,,,,,,,,,,,,,,,,,,,,,,,,,,,,,,,,0,1,1,2,1,,,,,,,,,,,,,,,,,,,,,,,,,,,,,,,,,,,,,,,,,
229989,001,2022-11-20_23h55.26.955,Info_measure_main_exp,2022.2.2,Win32,60.0528465,,,,,,,,,,,,,,,,,,masks/mask_001.jpg,,,,,,,,,,,,,,,,,,,,,,,,,,,,,,,,,,,,,,,,,,,,,,,0,2,2,0,1,,,,,,,,,,,,,,,,,,,,,,,,,,,,,,,,,,,,,,,,,
229989,001,2022-11-20_23h55.26.955,Info_measure_main_exp,2022.2.2,Win32,60.0528465,,,,,,,,,,,,,,,,,,masks/mask_004.jpg,,,,,,,,,,,,,,,,,,,,,,,,,,,,,,,,,,,,,,,,,,,,,,,0,3,3,3,1,,,,,,,,,,,,,,,,,,,,,,,,,,,,,,,,,,,,,,,,,
229989,001,2022-11-20_23h55.26.955,Info_measure_main_exp,2022.2.2,Win32,60.0528465,,,,,,,,,,,,,,,,,,masks/mask_005.jpg,,,,,,,,,,,,,,,,,,,,,,,,,,,,,,,,,,,,,,,,,,,,,,,0,4,4,4,1,,,,,,,,,,,,,,,,,,,,,,,,,,,,,,,,,,,,,,,,,
229989,001,2022-11-20_23h55.26.955,Info_measure_main_exp,2022.2.2,Win32,60.0528465,,,,,,,,,,,,,,,,,,,,,,,,,,,,,,7,1.3157,1,,,,,,,,,,,,1,131,5,5,2238,1,absent_patch/patch0002238.jpg,present_patch/cong_131_5_a.jpg,,,,,,,,,,,,,,,,,,,0.072533469,0.147467053,1,0,0,response1disk,10,-0.002414383,0.004048122,1,0,0,center_square,0,9,9,104,1,,,,,,,,,,,,,,,,,,,,,,,
229989,001,2022-11-20_23h55.26.955,Info_measure_main_exp,2022.2.2,Win32,60.0528465,,,,,,,,,,,,,,,,,,masks/mask_001.jpg,,,,,,,,,,,,,,,,,,,,,,,,,,,,,,,,,,,,,,,,,,0,0,0,0,1,,,,,,,,,,,,,,,,,,,,,,,,,,,,,,,,,,,,,,,,,,,,,,
229989,001,2022-11-20_23h55.26.955,Info_measure_main_exp,2022.2.2,Win32,60.0528465,,,,,,,,,,,,,,,,,,masks/mask_003.jpg,,,,,,,,,,,,,,,,,,,,,,,,,,,,,,,,,,,,,,,,,,0,1,1,2,1,,,,,,,,,,,,,,,,,,,,,,,,,,,,,,,,,,,,,,,,,,,,,,
229989,001,2022-11-20_23h55.26.955,Info_measure_main_exp,2022.2.2,Win32,60.0528465,,,,,,,,,,,,,,,,,,masks/mask_004.jpg,,,,,,,,,,,,,,,,,,,,,,,,,,,,,,,,,,,,,,,,,,0,2,2,3,1,,,,,,,,,,,,,,,,,,,,,,,,,,,,,,,,,,,,,,,,,,,,,,
229989,001,2022-11-20_23h55.26.955,Info_measure_main_exp,2022.2.2,Win32,60.0528465,,,,,,,,,,,,,,,,,,masks/mask_002.jpg,,,,,,,,,,,,,,,,,,,,,,,,,,,,,,,,,,,,,,,,,,0,3,3,1,1,,,,,,,,,,,,,,,,,,,,,,,,,,,,,,,,,,,,,,,,,,,,,,
229989,001,2022-11-20_23h55.26.955,Info_measure_main_exp,2022.2.2,Win32,60.0528465,,,,,,,,,,,,,,,,,,masks/mask_005.jpg,,,,,,,,,,,,,,,,,,,,,,,,,,,,,,,,,,,,,,,,,,0,4,4,4,1,,,,,,,,,,,,,,,,,,,,,,,,,,,,,,,,,,,,,,,,,,,,,,
229989,001,2022-11-20_23h55.26.955,Info_measure_main_exp,2022.2.2,Win32,60.0528465,,,,,,,,,,,,,,,,,,masks/mask_003.jpg,,,,,,,,,,,,,,,,,,,,,,,,,,,,,,,,,,,,,,,,,,,,,,,0,0,0,2,1,,,,,,,,,,,,,,,,,,,,,,,,,,,,,,,,,,,,,,,,,
229989,001,2022-11-20_23h55.26.955,Info_measure_main_exp,2022.2.2,Win32,60.0528465,,,,,,,,,,,,,,,,,,masks/mask_001.jpg,,,,,,,,,,,,,,,,,,,,,,,,,,,,,,,,,,,,,,,,,,,,,,,0,1,1,0,1,,,,,,,,,,,,,,,,,,,,,,,,,,,,,,,,,,,,,,,,,
229989,001,2022-11-20_23h55.26.955,Info_measure_main_exp,2022.2.2,Win32,60.0528465,,,,,,,,,,,,,,,,,,masks/mask_004.jpg,,,,,,,,,,,,,,,,,,,,,,,,,,,,,,,,,,,,,,,,,,,,,,,0,2,2,3,1,,,,,,,,,,,,,,,,,,,,,,,,,,,,,,,,,,,,,,,,,
229989,001,2022-11-20_23h55.26.955,Info_measure_main_exp,2022.2.2,Win32,60.0528465,,,,,,,,,,,,,,,,,,masks/mask_005.jpg,,,,,,,,,,,,,,,,,,,,,,,,,,,,,,,,,,,,,,,,,,,,,,,0,3,3,4,1,,,,,,,,,,,,,,,,,,,,,,,,,,,,,,,,,,,,,,,,,
229989,001,2022-11-20_23h55.26.955,Info_measure_main_exp,2022.2.2,Win32,60.0528465,,,,,,,,,,,,,,,,,,masks/mask_002.jpg,,,,,,,,,,,,,,,,,,,,,,,,,,,,,,,,,,,,,,,,,,,,,,,0,4,4,1,1,,,,,,,,,,,,,,,,,,,,,,,,,,,,,,,,,,,,,,,,,
229989,001,2022-11-20_23h55.26.955,Info_measure_main_exp,2022.2.2,Win32,60.0528465,,,,,,,,,,,,,,,,,,,,,,,,,,,,,,7,2.0645,1,,,,,,,,,,,,0,131,5,5,2250,2142,absent_patch/patch0002250.jpg,absent_patch/patch0002142.jpg,,,,,,,,,,,,,,,,,,,0.074384151,0.129886656,1,0,0,response1disk,11,0.003137254,-0.00427945,1,0,0,center_square,0,10,10,71,1,,,,,,,,,,,,,,,,,,,,,,,
229989,001,2022-11-20_23h55.26.955,Info_measure_main_exp,2022.2.2,Win32,60.0528465,,,,,,,,,,,,,,,,,,masks/mask_004.jpg,,,,,,,,,,,,,,,,,,,,,,,,,,,,,,,,,,,,,,,,,,0,0,0,3,1,,,,,,,,,,,,,,,,,,,,,,,,,,,,,,,,,,,,,,,,,,,,,,
229989,001,2022-11-20_23h55.26.955,Info_measure_main_exp,2022.2.2,Win32,60.0528465,,,,,,,,,,,,,,,,,,masks/mask_003.jpg,,,,,,,,,,,,,,,,,,,,,,,,,,,,,,,,,,,,,,,,,,0,1,1,2,1,,,,,,,,,,,,,,,,,,,,,,,,,,,,,,,,,,,,,,,,,,,,,,
229989,001,2022-11-20_23h55.26.955,Info_measure_main_exp,2022.2.2,Win32,60.0528465,,,,,,,,,,,,,,,,,,masks/mask_005.jpg,,,,,,,,,,,,,,,,,,,,,,,,,,,,,,,,,,,,,,,,,,0,2,2,4,1,,,,,,,,,,,,,,,,,,,,,,,,,,,,,,,,,,,,,,,,,,,,,,
229989,001,2022-11-20_23h55.26.955,Info_measure_main_exp,2022.2.2,Win32,60.0528465,,,,,,,,,,,,,,,,,,masks/mask_002.jpg,,,,,,,,,,,,,,,,,,,,,,,,,,,,,,,,,,,,,,,,,,0,3,3,1,1,,,,,,,,,,,,,,,,,,,,,,,,,,,,,,,,,,,,,,,,,,,,,,
229989,001,2022-11-20_23h55.26.955,Info_measure_main_exp,2022.2.2,Win32,60.0528465,,,,,,,,,,,,,,,,,,masks/mask_001.jpg,,,,,,,,,,,,,,,,,,,,,,,,,,,,,,,,,,,,,,,,,,0,4,4,0,1,,,,,,,,,,,,,,,,,,,,,,,,,,,,,,,,,,,,,,,,,,,,,,
229989,001,2022-11-20_23h55.26.955,Info_measure_main_exp,2022.2.2,Win32,60.0528465,,,,,,,,,,,,,,,,,,masks/mask_003.jpg,,,,,,,,,,,,,,,,,,,,,,,,,,,,,,,,,,,,,,,,,,,,,,,0,0,0,2,1,,,,,,,,,,,,,,,,,,,,,,,,,,,,,,,,,,,,,,,,,
229989,001,2022-11-20_23h55.26.955,Info_measure_main_exp,2022.2.2,Win32,60.0528465,,,,,,,,,,,,,,,,,,masks/mask_001.jpg,,,,,,,,,,,,,,,,,,,,,,,,,,,,,,,,,,,,,,,,,,,,,,,0,1,1,0,1,,,,,,,,,,,,,,,,,,,,,,,,,,,,,,,,,,,,,,,,,
229989,001,2022-11-20_23h55.26.955,Info_measure_main_exp,2022.2.2,Win32,60.0528465,,,,,,,,,,,,,,,,,,masks/mask_005.jpg,,,,,,,,,,,,,,,,,,,,,,,,,,,,,,,,,,,,,,,,,,,,,,,0,2,2,4,1,,,,,,,,,,,,,,,,,,,,,,,,,,,,,,,,,,,,,,,,,
229989,001,2022-11-20_23h55.26.955,Info_measure_main_exp,2022.2.2,Win32,60.0528465,,,,,,,,,,,,,,,,,,masks/mask_002.jpg,,,,,,,,,,,,,,,,,,,,,,,,,,,,,,,,,,,,,,,,,,,,,,,0,3,3,1,1,,,,,,,,,,,,,,,,,,,,,,,,,,,,,,,,,,,,,,,,,
229989,001,2022-11-20_23h55.26.955,Info_measure_main_exp,2022.2.2,Win32,60.0528465,,,,,,,,,,,,,,,,,,masks/mask_004.jpg,,,,,,,,,,,,,,,,,,,,,,,,,,,,,,,,,,,,,,,,,,,,,,,0,4,4,3,1,,,,,,,,,,,,,,,,,,,,,,,,,,,,,,,,,,,,,,,,,
229989,001,2022-11-20_23h55.26.955,Info_measure_main_exp,2022.2.2,Win32,60.0528465,,,,,,,,,,,,,,,,,,,,,,,,,,,,,,7,2.4311,1,,,,,,,,,,,,0,131,5,5,1974,2298,absent_patch/patch0001974.jpg,absent_patch/patch0002298.jpg,,,,,,,,,,,,,,,,,,,0.070683021,0.116932672,1,0,0,response1disk,12,-0.00148913,-0.00057832,1,0,0,center_square,0,11,11,6,1,,,,,,,,,,,,,,,,,,,,,,,
229989,001,2022-11-20_23h55.26.955,Info_measure_main_exp,2022.2.2,Win32,60.0528465,,,,,,,,,,,,,,,,,,masks/mask_004.jpg,,,,,,,,,,,,,,,,,,,,,,,,,,,,,,,,,,,,,,,,,,0,0,0,3,1,,,,,,,,,,,,,,,,,,,,,,,,,,,,,,,,,,,,,,,,,,,,,,
229989,001,2022-11-20_23h55.26.955,Info_measure_main_exp,2022.2.2,Win32,60.0528465,,,,,,,,,,,,,,,,,,masks/mask_003.jpg,,,,,,,,,,,,,,,,,,,,,,,,,,,,,,,,,,,,,,,,,,0,1,1,2,1,,,,,,,,,,,,,,,,,,,,,,,,,,,,,,,,,,,,,,,,,,,,,,
229989,001,2022-11-20_23h55.26.955,Info_measure_main_exp,2022.2.2,Win32,60.0528465,,,,,,,,,,,,,,,,,,masks/mask_005.jpg,,,,,,,,,,,,,,,,,,,,,,,,,,,,,,,,,,,,,,,,,,0,2,2,4,1,,,,,,,,,,,,,,,,,,,,,,,,,,,,,,,,,,,,,,,,,,,,,,
229989,001,2022-11-20_23h55.26.955,Info_measure_main_exp,2022.2.2,Win32,60.0528465,,,,,,,,,,,,,,,,,,masks/mask_001.jpg,,,,,,,,,,,,,,,,,,,,,,,,,,,,,,,,,,,,,,,,,,0,3,3,0,1,,,,,,,,,,,,,,,,,,,,,,,,,,,,,,,,,,,,,,,,,,,,,,
229989,001,2022-11-20_23h55.26.955,Info_measure_main_exp,2022.2.2,Win32,60.0528465,,,,,,,,,,,,,,,,,,masks/mask_002.jpg,,,,,,,,,,,,,,,,,,,,,,,,,,,,,,,,,,,,,,,,,,0,4,4,1,1,,,,,,,,,,,,,,,,,,,,,,,,,,,,,,,,,,,,,,,,,,,,,,
229989,001,2022-11-20_23h55.26.955,Info_measure_main_exp,2022.2.2,Win32,60.0528465,,,,,,,,,,,,,,,,,,masks/mask_002.jpg,,,,,,,,,,,,,,,,,,,,,,,,,,,,,,,,,,,,,,,,,,,,,,,0,0,0,1,1,,,,,,,,,,,,,,,,,,,,,,,,,,,,,,,,,,,,,,,,,
229989,001,2022-11-20_23h55.26.955,Info_measure_main_exp,2022.2.2,Win32,60.0528465,,,,,,,,,,,,,,,,,,masks/mask_004.jpg,,,,,,,,,,,,,,,,,,,,,,,,,,,,,,,,,,,,,,,,,,,,,,,0,1,1,3,1,,,,,,,,,,,,,,,,,,,,,,,,,,,,,,,,,,,,,,,,,
229989,001,2022-11-20_23h55.26.955,Info_measure_main_exp,2022.2.2,Win32,60.0528465,,,,,,,,,,,,,,,,,,masks/mask_005.jpg,,,,,,,,,,,,,,,,,,,,,,,,,,,,,,,,,,,,,,,,,,,,,,,0,2,2,4,1,,,,,,,,,,,,,,,,,,,,,,,,,,,,,,,,,,,,,,,,,
229989,001,2022-11-20_23h55.26.955,Info_measure_main_exp,2022.2.2,Win32,60.0528465,,,,,,,,,,,,,,,,,,masks/mask_003.jpg,,,,,,,,,,,,,,,,,,,,,,,,,,,,,,,,,,,,,,,,,,,,,,,0,3,3,2,1,,,,,,,,,,,,,,,,,,,,,,,,,,,,,,,,,,,,,,,,,
229989,001,2022-11-20_23h55.26.955,Info_measure_main_exp,2022.2.2,Win32,60.0528465,,,,,,,,,,,,,,,,,,masks/mask_001.jpg,,,,,,,,,,,,,,,,,,,,,,,,,,,,,,,,,,,,,,,,,,,,,,,0,4,4,0,1,,,,,,,,,,,,,,,,,,,,,,,,,,,,,,,,,,,,,,,,,
229989,001,2022-11-20_23h55.26.955,Info_measure_main_exp,2022.2.2,Win32,60.0528465,,,,,,,,,,,,,,,,,,,,,,,,,,,,,,7,0.6496,1,,,,,,,,,,,,0,131,5,5,2154,2250,absent_patch/patch0002154.jpg,absent_patch/patch0002250.jpg,,,,,,,,,,,,,,,,,,,0.076234599,0.156719819,1,0,0,response1disk,13,0.007763753,0.007749252,1,0,0,center_square,0,12,12,108,1,,,,,,,,,,,,,,,,,,,,,,,
229989,001,2022-11-20_23h55.26.955,Info_measure_main_exp,2022.2.2,Win32,60.0528465,,,,,,,,,,,,,,,,,,masks/mask_001.jpg,,,,,,,,,,,,,,,,,,,,,,,,,,,,,,,,,,,,,,,,,,0,0,0,0,1,,,,,,,,,,,,,,,,,,,,,,,,,,,,,,,,,,,,,,,,,,,,,,
229989,001,2022-11-20_23h55.26.955,Info_measure_main_exp,2022.2.2,Win32,60.0528465,,,,,,,,,,,,,,,,,,masks/mask_004.jpg,,,,,,,,,,,,,,,,,,,,,,,,,,,,,,,,,,,,,,,,,,0,1,1,3,1,,,,,,,,,,,,,,,,,,,,,,,,,,,,,,,,,,,,,,,,,,,,,,
229989,001,2022-11-20_23h55.26.955,Info_measure_main_exp,2022.2.2,Win32,60.0528465,,,,,,,,,,,,,,,,,,masks/mask_003.jpg,,,,,,,,,,,,,,,,,,,,,,,,,,,,,,,,,,,,,,,,,,0,2,2,2,1,,,,,,,,,,,,,,,,,,,,,,,,,,,,,,,,,,,,,,,,,,,,,,
229989,001,2022-11-20_23h55.26.955,Info_measure_main_exp,2022.2.2,Win32,60.0528465,,,,,,,,,,,,,,,,,,masks/mask_005.jpg,,,,,,,,,,,,,,,,,,,,,,,,,,,,,,,,,,,,,,,,,,0,3,3,4,1,,,,,,,,,,,,,,,,,,,,,,,,,,,,,,,,,,,,,,,,,,,,,,
229989,001,2022-11-20_23h55.26.955,Info_measure_main_exp,2022.2.2,Win32,60.0528465,,,,,,,,,,,,,,,,,,masks/mask_002.jpg,,,,,,,,,,,,,,,,,,,,,,,,,,,,,,,,,,,,,,,,,,0,4,4,1,1,,,,,,,,,,,,,,,,,,,,,,,,,,,,,,,,,,,,,,,,,,,,,,
229989,001,2022-11-20_23h55.26.955,Info_measure_main_exp,2022.2.2,Win32,60.0528465,,,,,,,,,,,,,,,,,,masks/mask_004.jpg,,,,,,,,,,,,,,,,,,,,,,,,,,,,,,,,,,,,,,,,,,,,,,,0,0,0,3,1,,,,,,,,,,,,,,,,,,,,,,,,,,,,,,,,,,,,,,,,,
229989,001,2022-11-20_23h55.26.955,Info_measure_main_exp,2022.2.2,Win32,60.0528465,,,,,,,,,,,,,,,,,,masks/mask_003.jpg,,,,,,,,,,,,,,,,,,,,,,,,,,,,,,,,,,,,,,,,,,,,,,,0,1,1,2,1,,,,,,,,,,,,,,,,,,,,,,,,,,,,,,,,,,,,,,,,,
229989,001,2022-11-20_23h55.26.955,Info_measure_main_exp,2022.2.2,Win32,60.0528465,,,,,,,,,,,,,,,,,,masks/mask_005.jpg,,,,,,,,,,,,,,,,,,,,,,,,,,,,,,,,,,,,,,,,,,,,,,,0,2,2,4,1,,,,,,,,,,,,,,,,,,,,,,,,,,,,,,,,,,,,,,,,,
229989,001,2022-11-20_23h55.26.955,Info_measure_main_exp,2022.2.2,Win32,60.0528465,,,,,,,,,,,,,,,,,,masks/mask_002.jpg,,,,,,,,,,,,,,,,,,,,,,,,,,,,,,,,,,,,,,,,,,,,,,,0,3,3,1,1,,,,,,,,,,,,,,,,,,,,,,,,,,,,,,,,,,,,,,,,,
229989,001,2022-11-20_23h55.26.955,Info_measure_main_exp,2022.2.2,Win32,60.0528465,,,,,,,,,,,,,,,,,,masks/mask_001.jpg,,,,,,,,,,,,,,,,,,,,,,,,,,,,,,,,,,,,,,,,,,,,,,,0,4,4,0,1,,,,,,,,,,,,,,,,,,,,,,,,,,,,,,,,,,,,,,,,,
229989,001,2022-11-20_23h55.26.955,Info_measure_main_exp,2022.2.2,Win32,60.0528465,,,,,,,,,,,,,,,,,,,,,,,,,,,,,,6,0.9326,1,,,,,,,,,,,,0,131,5,5,2082,1974,absent_patch/patch0002082.jpg,absent_patch/patch0001974.jpg,,,,,,,,,,,,,,,,,,,0.084562229,0.036433009,1,0,0,response1disk,14,0.004987877,-0.007980521,1,0,0,center_square,0,13,13,26,1,,,,,,,,,,,,,,,,,,,,,,,
229989,001,2022-11-20_23h55.26.955,Info_measure_main_exp,2022.2.2,Win32,60.0528465,,,,,,,,,,,,,,,,,,masks/mask_001.jpg,,,,,,,,,,,,,,,,,,,,,,,,,,,,,,,,,,,,,,,,,,0,0,0,0,1,,,,,,,,,,,,,,,,,,,,,,,,,,,,,,,,,,,,,,,,,,,,,,
229989,001,2022-11-20_23h55.26.955,Info_measure_main_exp,2022.2.2,Win32,60.0528465,,,,,,,,,,,,,,,,,,masks/mask_004.jpg,,,,,,,,,,,,,,,,,,,,,,,,,,,,,,,,,,,,,,,,,,0,1,1,3,1,,,,,,,,,,,,,,,,,,,,,,,,,,,,,,,,,,,,,,,,,,,,,,
229989,001,2022-11-20_23h55.26.955,Info_measure_main_exp,2022.2.2,Win32,60.0528465,,,,,,,,,,,,,,,,,,masks/mask_002.jpg,,,,,,,,,,,,,,,,,,,,,,,,,,,,,,,,,,,,,,,,,,0,2,2,1,1,,,,,,,,,,,,,,,,,,,,,,,,,,,,,,,,,,,,,,,,,,,,,,
229989,001,2022-11-20_23h55.26.955,Info_measure_main_exp,2022.2.2,Win32,60.0528465,,,,,,,,,,,,,,,,,,masks/mask_005.jpg,,,,,,,,,,,,,,,,,,,,,,,,,,,,,,,,,,,,,,,,,,0,3,3,4,1,,,,,,,,,,,,,,,,,,,,,,,,,,,,,,,,,,,,,,,,,,,,,,
229989,001,2022-11-20_23h55.26.955,Info_measure_main_exp,2022.2.2,Win32,60.0528465,,,,,,,,,,,,,,,,,,masks/mask_003.jpg,,,,,,,,,,,,,,,,,,,,,,,,,,,,,,,,,,,,,,,,,,0,4,4,2,1,,,,,,,,,,,,,,,,,,,,,,,,,,,,,,,,,,,,,,,,,,,,,,
229989,001,2022-11-20_23h55.26.955,Info_measure_main_exp,2022.2.2,Win32,60.0528465,,,,,,,,,,,,,,,,,,masks/mask_005.jpg,,,,,,,,,,,,,,,,,,,,,,,,,,,,,,,,,,,,,,,,,,,,,,,0,0,0,4,1,,,,,,,,,,,,,,,,,,,,,,,,,,,,,,,,,,,,,,,,,
229989,001,2022-11-20_23h55.26.955,Info_measure_main_exp,2022.2.2,Win32,60.0528465,,,,,,,,,,,,,,,,,,masks/mask_001.jpg,,,,,,,,,,,,,,,,,,,,,,,,,,,,,,,,,,,,,,,,,,,,,,,0,1,1,0,1,,,,,,,,,,,,,,,,,,,,,,,,,,,,,,,,,,,,,,,,,
229989,001,2022-11-20_23h55.26.955,Info_measure_main_exp,2022.2.2,Win32,60.0528465,,,,,,,,,,,,,,,,,,masks/mask_002.jpg,,,,,,,,,,,,,,,,,,,,,,,,,,,,,,,,,,,,,,,,,,,,,,,0,2,2,1,1,,,,,,,,,,,,,,,,,,,,,,,,,,,,,,,,,,,,,,,,,
229989,001,2022-11-20_23h55.26.955,Info_measure_main_exp,2022.2.2,Win32,60.0528465,,,,,,,,,,,,,,,,,,masks/mask_003.jpg,,,,,,,,,,,,,,,,,,,,,,,,,,,,,,,,,,,,,,,,,,,,,,,0,3,3,2,1,,,,,,,,,,,,,,,,,,,,,,,,,,,,,,,,,,,,,,,,,
229989,001,2022-11-20_23h55.26.955,Info_measure_main_exp,2022.2.2,Win32,60.0528465,,,,,,,,,,,,,,,,,,masks/mask_004.jpg,,,,,,,,,,,,,,,,,,,,,,,,,,,,,,,,,,,,,,,,,,,,,,,0,4,4,3,1,,,,,,,,,,,,,,,,,,,,,,,,,,,,,,,,,,,,,,,,,
229989,001,2022-11-20_23h55.26.955,Info_measure_main_exp,2022.2.2,Win32,60.0528465,,,,,,,,,,,,,,,,,,,,,,,,,,,,,,7,0.4996,1,,,,,,,,,,,,0,131,5,5,2298,2214,absent_patch/patch0002298.jpg,absent_patch/patch0002214.jpg,,,,,,,,,,,,,,,,,,,0.072533469,0.139139481,1,0,0,response1disk,15,0.003137254,0.00312281,1,0,0,center_square,0,14,14,99,1,,,,,,,,,,,,,,,,,,,,,,,
229989,001,2022-11-20_23h55.26.955,Info_measure_main_exp,2022.2.2,Win32,60.0528465,,,,,,,,,,,,,,,,,,masks/mask_005.jpg,,,,,,,,,,,,,,,,,,,,,,,,,,,,,,,,,,,,,,,,,,0,0,0,4,1,,,,,,,,,,,,,,,,,,,,,,,,,,,,,,,,,,,,,,,,,,,,,,
229989,001,2022-11-20_23h55.26.955,Info_measure_main_exp,2022.2.2,Win32,60.0528465,,,,,,,,,,,,,,,,,,masks/mask_004.jpg,,,,,,,,,,,,,,,,,,,,,,,,,,,,,,,,,,,,,,,,,,0,1,1,3,1,,,,,,,,,,,,,,,,,,,,,,,,,,,,,,,,,,,,,,,,,,,,,,
229989,001,2022-11-20_23h55.26.955,Info_measure_main_exp,2022.2.2,Win32,60.0528465,,,,,,,,,,,,,,,,,,masks/mask_003.jpg,,,,,,,,,,,,,,,,,,,,,,,,,,,,,,,,,,,,,,,,,,0,2,2,2,1,,,,,,,,,,,,,,,,,,,,,,,,,,,,,,,,,,,,,,,,,,,,,,
229989,001,2022-11-20_23h55.26.955,Info_measure_main_exp,2022.2.2,Win32,60.0528465,,,,,,,,,,,,,,,,,,masks/mask_001.jpg,,,,,,,,,,,,,,,,,,,,,,,,,,,,,,,,,,,,,,,,,,0,3,3,0,1,,,,,,,,,,,,,,,,,,,,,,,,,,,,,,,,,,,,,,,,,,,,,,
229989,001,2022-11-20_23h55.26.955,Info_measure_main_exp,2022.2.2,Win32,60.0528465,,,,,,,,,,,,,,,,,,masks/mask_002.jpg,,,,,,,,,,,,,,,,,,,,,,,,,,,,,,,,,,,,,,,,,,0,4,4,1,1,,,,,,,,,,,,,,,,,,,,,,,,,,,,,,,,,,,,,,,,,,,,,,
229989,001,2022-11-20_23h55.26.955,Info_measure_main_exp,2022.2.2,Win32,60.0528465,,,,,,,,,,,,,,,,,,masks/mask_003.jpg,,,,,,,,,,,,,,,,,,,,,,,,,,,,,,,,,,,,,,,,,,,,,,,0,0,0,2,1,,,,,,,,,,,,,,,,,,,,,,,,,,,,,,,,,,,,,,,,,
229989,001,2022-11-20_23h55.26.955,Info_measure_main_exp,2022.2.2,Win32,60.0528465,,,,,,,,,,,,,,,,,,masks/mask_002.jpg,,,,,,,,,,,,,,,,,,,,,,,,,,,,,,,,,,,,,,,,,,,,,,,0,1,1,1,1,,,,,,,,,,,,,,,,,,,,,,,,,,,,,,,,,,,,,,,,,
229989,001,2022-11-20_23h55.26.955,Info_measure_main_exp,2022.2.2,Win32,60.0528465,,,,,,,,,,,,,,,,,,masks/mask_005.jpg,,,,,,,,,,,,,,,,,,,,,,,,,,,,,,,,,,,,,,,,,,,,,,,0,2,2,4,1,,,,,,,,,,,,,,,,,,,,,,,,,,,,,,,,,,,,,,,,,
229989,001,2022-11-20_23h55.26.955,Info_measure_main_exp,2022.2.2,Win32,60.0528465,,,,,,,,,,,,,,,,,,masks/mask_001.jpg,,,,,,,,,,,,,,,,,,,,,,,,,,,,,,,,,,,,,,,,,,,,,,,0,3,3,0,1,,,,,,,,,,,,,,,,,,,,,,,,,,,,,,,,,,,,,,,,,
229989,001,2022-11-20_23h55.26.955,Info_measure_main_exp,2022.2.2,Win32,60.0528465,,,,,,,,,,,,,,,,,,masks/mask_004.jpg,,,,,,,,,,,,,,,,,,,,,,,,,,,,,,,,,,,,,,,,,,,,,,,0,4,4,3,1,,,,,,,,,,,,,,,,,,,,,,,,,,,,,,,,,,,,,,,,,
229989,001,2022-11-20_23h55.26.955,Info_measure_main_exp,2022.2.2,Win32,60.0528465,,,,,,,,,,,,,,,,,,,,,,,,,,,,,,7,0.9826,1,,,,,,,,,,,,0,131,5,5,2190,1986,absent_patch/patch0002190.jpg,absent_patch/patch0001986.jpg,,,,,,,,,,,,,,,,,,,0.069757709,0.160421007,1,0,0,response1disk,16,0.003137254,-0.002428885,1,0,0,center_square,0,15,15,111,1,,,,,,,,,,,,,,,,,,,,,,,
229989,001,2022-11-20_23h55.26.955,Info_measure_main_exp,2022.2.2,Win32,60.0528465,,,,,,,,,,,,,,,,,,masks/mask_003.jpg,,,,,,,,,,,,,,,,,,,,,,,,,,,,,,,,,,,,,,,,,,0,0,0,2,1,,,,,,,,,,,,,,,,,,,,,,,,,,,,,,,,,,,,,,,,,,,,,,
229989,001,2022-11-20_23h55.26.955,Info_measure_main_exp,2022.2.2,Win32,60.0528465,,,,,,,,,,,,,,,,,,masks/mask_005.jpg,,,,,,,,,,,,,,,,,,,,,,,,,,,,,,,,,,,,,,,,,,0,1,1,4,1,,,,,,,,,,,,,,,,,,,,,,,,,,,,,,,,,,,,,,,,,,,,,,
229989,001,2022-11-20_23h55.26.955,Info_measure_main_exp,2022.2.2,Win32,60.0528465,,,,,,,,,,,,,,,,,,masks/mask_001.jpg,,,,,,,,,,,,,,,,,,,,,,,,,,,,,,,,,,,,,,,,,,0,2,2,0,1,,,,,,,,,,,,,,,,,,,,,,,,,,,,,,,,,,,,,,,,,,,,,,
229989,001,2022-11-20_23h55.26.955,Info_measure_main_exp,2022.2.2,Win32,60.0528465,,,,,,,,,,,,,,,,,,masks/mask_002.jpg,,,,,,,,,,,,,,,,,,,,,,,,,,,,,,,,,,,,,,,,,,0,3,3,1,1,,,,,,,,,,,,,,,,,,,,,,,,,,,,,,,,,,,,,,,,,,,,,,
229989,001,2022-11-20_23h55.26.955,Info_measure_main_exp,2022.2.2,Win32,60.0528465,,,,,,,,,,,,,,,,,,masks/mask_004.jpg,,,,,,,,,,,,,,,,,,,,,,,,,,,,,,,,,,,,,,,,,,0,4,4,3,1,,,,,,,,,,,,,,,,,,,,,,,,,,,,,,,,,,,,,,,,,,,,,,
229989,001,2022-11-20_23h55.26.955,Info_measure_main_exp,2022.2.2,Win32,60.0528465,,,,,,,,,,,,,,,,,,masks/mask_004.jpg,,,,,,,,,,,,,,,,,,,,,,,,,,,,,,,,,,,,,,,,,,,,,,,0,0,0,3,1,,,,,,,,,,,,,,,,,,,,,,,,,,,,,,,,,,,,,,,,,
229989,001,2022-11-20_23h55.26.955,Info_measure_main_exp,2022.2.2,Win32,60.0528465,,,,,,,,,,,,,,,,,,masks/mask_005.jpg,,,,,,,,,,,,,,,,,,,,,,,,,,,,,,,,,,,,,,,,,,,,,,,0,1,1,4,1,,,,,,,,,,,,,,,,,,,,,,,,,,,,,,,,,,,,,,,,,
229989,001,2022-11-20_23h55.26.955,Info_measure_main_exp,2022.2.2,Win32,60.0528465,,,,,,,,,,,,,,,,,,masks/mask_003.jpg,,,,,,,,,,,,,,,,,,,,,,,,,,,,,,,,,,,,,,,,,,,,,,,0,2,2,2,1,,,,,,,,,,,,,,,,,,,,,,,,,,,,,,,,,,,,,,,,,
229989,001,2022-11-20_23h55.26.955,Info_measure_main_exp,2022.2.2,Win32,60.0528465,,,,,,,,,,,,,,,,,,masks/mask_002.jpg,,,,,,,,,,,,,,,,,,,,,,,,,,,,,,,,,,,,,,,,,,,,,,,0,3,3,1,1,,,,,,,,,,,,,,,,,,,,,,,,,,,,,,,,,,,,,,,,,
229989,001,2022-11-20_23h55.26.955,Info_measure_main_exp,2022.2.2,Win32,60.0528465,,,,,,,,,,,,,,,,,,masks/mask_001.jpg,,,,,,,,,,,,,,,,,,,,,,,,,,,,,,,,,,,,,,,,,,,,,,,0,4,4,0,1,,,,,,,,,,,,,,,,,,,,,,,,,,,,,,,,,,,,,,,,,
229989,001,2022-11-20_23h55.26.955,Info_measure_main_exp,2022.2.2,Win32,60.0528465,,,,,,,,,,,,,,,,,,,,,,,,,,,,,,6,1.6487,1,,,,,,,,,,,,0,131,5,5,1950,2178,absent_patch/patch0001950.jpg,absent_patch/patch0002178.jpg,,,,,,,,,,,,,,,,,,,0.119723022,0.055863999,1,0,0,response1disk,17,-0.000563876,0.004973375,1,0,0,center_square,0,16,16,61,1,,,,,,,,,,,,,,,,,,,,,,,
229989,001,2022-11-20_23h55.26.955,Info_measure_main_exp,2022.2.2,Win32,60.0528465,,,,,,,,,,,,,,,,,,masks/mask_005.jpg,,,,,,,,,,,,,,,,,,,,,,,,,,,,,,,,,,,,,,,,,,0,0,0,4,1,,,,,,,,,,,,,,,,,,,,,,,,,,,,,,,,,,,,,,,,,,,,,,
229989,001,2022-11-20_23h55.26.955,Info_measure_main_exp,2022.2.2,Win32,60.0528465,,,,,,,,,,,,,,,,,,masks/mask_004.jpg,,,,,,,,,,,,,,,,,,,,,,,,,,,,,,,,,,,,,,,,,,0,1,1,3,1,,,,,,,,,,,,,,,,,,,,,,,,,,,,,,,,,,,,,,,,,,,,,,
229989,001,2022-11-20_23h55.26.955,Info_measure_main_exp,2022.2.2,Win32,60.0528465,,,,,,,,,,,,,,,,,,masks/mask_003.jpg,,,,,,,,,,,,,,,,,,,,,,,,,,,,,,,,,,,,,,,,,,0,2,2,2,1,,,,,,,,,,,,,,,,,,,,,,,,,,,,,,,,,,,,,,,,,,,,,,
229989,001,2022-11-20_23h55.26.955,Info_measure_main_exp,2022.2.2,Win32,60.0528465,,,,,,,,,,,,,,,,,,masks/mask_002.jpg,,,,,,,,,,,,,,,,,,,,,,,,,,,,,,,,,,,,,,,,,,0,3,3,1,1,,,,,,,,,,,,,,,,,,,,,,,,,,,,,,,,,,,,,,,,,,,,,,
229989,001,2022-11-20_23h55.26.955,Info_measure_main_exp,2022.2.2,Win32,60.0528465,,,,,,,,,,,,,,,,,,masks/mask_001.jpg,,,,,,,,,,,,,,,,,,,,,,,,,,,,,,,,,,,,,,,,,,0,4,4,0,1,,,,,,,,,,,,,,,,,,,,,,,,,,,,,,,,,,,,,,,,,,,,,,
229989,001,2022-11-20_23h55.26.955,Info_measure_main_exp,2022.2.2,Win32,60.0528465,,,,,,,,,,,,,,,,,,masks/mask_005.jpg,,,,,,,,,,,,,,,,,,,,,,,,,,,,,,,,,,,,,,,,,,,,,,,0,0,0,4,1,,,,,,,,,,,,,,,,,,,,,,,,,,,,,,,,,,,,,,,,,
229989,001,2022-11-20_23h55.26.955,Info_measure_main_exp,2022.2.2,Win32,60.0528465,,,,,,,,,,,,,,,,,,masks/mask_004.jpg,,,,,,,,,,,,,,,,,,,,,,,,,,,,,,,,,,,,,,,,,,,,,,,0,1,1,3,1,,,,,,,,,,,,,,,,,,,,,,,,,,,,,,,,,,,,,,,,,
229989,001,2022-11-20_23h55.26.955,Info_measure_main_exp,2022.2.2,Win32,60.0528465,,,,,,,,,,,,,,,,,,masks/mask_001.jpg,,,,,,,,,,,,,,,,,,,,,,,,,,,,,,,,,,,,,,,,,,,,,,,0,2,2,0,1,,,,,,,,,,,,,,,,,,,,,,,,,,,,,,,,,,,,,,,,,
229989,001,2022-11-20_23h55.26.955,Info_measure_main_exp,2022.2.2,Win32,60.0528465,,,,,,,,,,,,,,,,,,masks/mask_002.jpg,,,,,,,,,,,,,,,,,,,,,,,,,,,,,,,,,,,,,,,,,,,,,,,0,3,3,1,1,,,,,,,,,,,,,,,,,,,,,,,,,,,,,,,,,,,,,,,,,
229989,001,2022-11-20_23h55.26.955,Info_measure_main_exp,2022.2.2,Win32,60.0528465,,,,,,,,,,,,,,,,,,masks/mask_003.jpg,,,,,,,,,,,,,,,,,,,,,,,,,,,,,,,,,,,,,,,,,,,,,,,0,4,4,2,1,,,,,,,,,,,,,,,,,,,,,,,,,,,,,,,,,,,,,,,,,
229989,001,2022-11-20_23h55.26.955,Info_measure_main_exp,2022.2.2,Win32,60.0528465,,,,,,,,,,,,,,,,,,,,,,,,,,,,,,7,1.1987,1,,,,,,,,,,,,0,131,5,5,2190,1950,absent_patch/patch0002190.jpg,absent_patch/patch0001950.jpg,,,,,,,,,,,,,,,,,,,0.084562229,0.123409621,1,0,0,response1disk,18,0.009614377,0.00682394,1,0,0,center_square,0,17,17,73,1,,,,,,,,,,,,,,,,,,,,,,,
229989,001,2022-11-20_23h55.26.955,Info_measure_main_exp,2022.2.2,Win32,60.0528465,,,,,,,,,,,,,,,,,,masks/mask_002.jpg,,,,,,,,,,,,,,,,,,,,,,,,,,,,,,,,,,,,,,,,,,0,0,0,1,1,,,,,,,,,,,,,,,,,,,,,,,,,,,,,,,,,,,,,,,,,,,,,,
229989,001,2022-11-20_23h55.26.955,Info_measure_main_exp,2022.2.2,Win32,60.0528465,,,,,,,,,,,,,,,,,,masks/mask_004.jpg,,,,,,,,,,,,,,,,,,,,,,,,,,,,,,,,,,,,,,,,,,0,1,1,3,1,,,,,,,,,,,,,,,,,,,,,,,,,,,,,,,,,,,,,,,,,,,,,,
229989,001,2022-11-20_23h55.26.955,Info_measure_main_exp,2022.2.2,Win32,60.0528465,,,,,,,,,,,,,,,,,,masks/mask_005.jpg,,,,,,,,,,,,,,,,,,,,,,,,,,,,,,,,,,,,,,,,,,0,2,2,4,1,,,,,,,,,,,,,,,,,,,,,,,,,,,,,,,,,,,,,,,,,,,,,,
229989,001,2022-11-20_23h55.26.955,Info_measure_main_exp,2022.2.2,Win32,60.0528465,,,,,,,,,,,,,,,,,,masks/mask_001.jpg,,,,,,,,,,,,,,,,,,,,,,,,,,,,,,,,,,,,,,,,,,0,3,3,0,1,,,,,,,,,,,,,,,,,,,,,,,,,,,,,,,,,,,,,,,,,,,,,,
229989,001,2022-11-20_23h55.26.955,Info_measure_main_exp,2022.2.2,Win32,60.0528465,,,,,,,,,,,,,,,,,,masks/mask_003.jpg,,,,,,,,,,,,,,,,,,,,,,,,,,,,,,,,,,,,,,,,,,0,4,4,2,1,,,,,,,,,,,,,,,,,,,,,,,,,,,,,,,,,,,,,,,,,,,,,,
229989,001,2022-11-20_23h55.26.955,Info_measure_main_exp,2022.2.2,Win32,60.0528465,,,,,,,,,,,,,,,,,,masks/mask_004.jpg,,,,,,,,,,,,,,,,,,,,,,,,,,,,,,,,,,,,,,,,,,,,,,,0,0,0,3,1,,,,,,,,,,,,,,,,,,,,,,,,,,,,,,,,,,,,,,,,,
229989,001,2022-11-20_23h55.26.955,Info_measure_main_exp,2022.2.2,Win32,60.0528465,,,,,,,,,,,,,,,,,,masks/mask_005.jpg,,,,,,,,,,,,,,,,,,,,,,,,,,,,,,,,,,,,,,,,,,,,,,,0,1,1,4,1,,,,,,,,,,,,,,,,,,,,,,,,,,,,,,,,,,,,,,,,,
229989,001,2022-11-20_23h55.26.955,Info_measure_main_exp,2022.2.2,Win32,60.0528465,,,,,,,,,,,,,,,,,,masks/mask_003.jpg,,,,,,,,,,,,,,,,,,,,,,,,,,,,,,,,,,,,,,,,,,,,,,,0,2,2,2,1,,,,,,,,,,,,,,,,,,,,,,,,,,,,,,,,,,,,,,,,,
229989,001,2022-11-20_23h55.26.955,Info_measure_main_exp,2022.2.2,Win32,60.0528465,,,,,,,,,,,,,,,,,,masks/mask_002.jpg,,,,,,,,,,,,,,,,,,,,,,,,,,,,,,,,,,,,,,,,,,,,,,,0,3,3,1,1,,,,,,,,,,,,,,,,,,,,,,,,,,,,,,,,,,,,,,,,,
229989,001,2022-11-20_23h55.26.955,Info_measure_main_exp,2022.2.2,Win32,60.0528465,,,,,,,,,,,,,,,,,,masks/mask_001.jpg,,,,,,,,,,,,,,,,,,,,,,,,,,,,,,,,,,,,,,,,,,,,,,,0,4,4,0,1,,,,,,,,,,,,,,,,,,,,,,,,,,,,,,,,,,,,,,,,,
229989,001,2022-11-20_23h55.26.955,Info_measure_main_exp,2022.2.2,Win32,60.0528465,,,,,,,,,,,,,,,,,,,,,,,,,,,,,,4,1.1821,1,,,,,,,,,,,,0,131,5,5,2082,2298,absent_patch/patch0002082.jpg,absent_patch/patch0002298.jpg,,,,,,,,,,,,,,,,,,,0.052177313,-0.128267419,1,0,0,response3disk,19,0.000361494,-0.002428885,1,0,0,center_square,0,18,18,107,1,,,,,,,,,,,,,,,,,,,,,,,
229989,001,2022-11-20_23h55.26.955,Info_measure_main_exp,2022.2.2,Win32,60.0528465,,,,,,,,,,,,,,,,,,masks/mask_001.jpg,,,,,,,,,,,,,,,,,,,,,,,,,,,,,,,,,,,,,,,,,,0,0,0,0,1,,,,,,,,,,,,,,,,,,,,,,,,,,,,,,,,,,,,,,,,,,,,,,
229989,001,2022-11-20_23h55.26.955,Info_measure_main_exp,2022.2.2,Win32,60.0528465,,,,,,,,,,,,,,,,,,masks/mask_003.jpg,,,,,,,,,,,,,,,,,,,,,,,,,,,,,,,,,,,,,,,,,,0,1,1,2,1,,,,,,,,,,,,,,,,,,,,,,,,,,,,,,,,,,,,,,,,,,,,,,
229989,001,2022-11-20_23h55.26.955,Info_measure_main_exp,2022.2.2,Win32,60.0528465,,,,,,,,,,,,,,,,,,masks/mask_002.jpg,,,,,,,,,,,,,,,,,,,,,,,,,,,,,,,,,,,,,,,,,,0,2,2,1,1,,,,,,,,,,,,,,,,,,,,,,,,,,,,,,,,,,,,,,,,,,,,,,
229989,001,2022-11-20_23h55.26.955,Info_measure_main_exp,2022.2.2,Win32,60.0528465,,,,,,,,,,,,,,,,,,masks/mask_005.jpg,,,,,,,,,,,,,,,,,,,,,,,,,,,,,,,,,,,,,,,,,,0,3,3,4,1,,,,,,,,,,,,,,,,,,,,,,,,,,,,,,,,,,,,,,,,,,,,,,
229989,001,2022-11-20_23h55.26.955,Info_measure_main_exp,2022.2.2,Win32,60.0528465,,,,,,,,,,,,,,,,,,masks/mask_004.jpg,,,,,,,,,,,,,,,,,,,,,,,,,,,,,,,,,,,,,,,,,,0,4,4,3,1,,,,,,,,,,,,,,,,,,,,,,,,,,,,,,,,,,,,,,,,,,,,,,
229989,001,2022-11-20_23h55.26.955,Info_measure_main_exp,2022.2.2,Win32,60.0528465,,,,,,,,,,,,,,,,,,masks/mask_001.jpg,,,,,,,,,,,,,,,,,,,,,,,,,,,,,,,,,,,,,,,,,,,,,,,0,0,0,0,1,,,,,,,,,,,,,,,,,,,,,,,,,,,,,,,,,,,,,,,,,
229989,001,2022-11-20_23h55.26.955,Info_measure_main_exp,2022.2.2,Win32,60.0528465,,,,,,,,,,,,,,,,,,masks/mask_005.jpg,,,,,,,,,,,,,,,,,,,,,,,,,,,,,,,,,,,,,,,,,,,,,,,0,1,1,4,1,,,,,,,,,,,,,,,,,,,,,,,,,,,,,,,,,,,,,,,,,
229989,001,2022-11-20_23h55.26.955,Info_measure_main_exp,2022.2.2,Win32,60.0528465,,,,,,,,,,,,,,,,,,masks/mask_004.jpg,,,,,,,,,,,,,,,,,,,,,,,,,,,,,,,,,,,,,,,,,,,,,,,0,2,2,3,1,,,,,,,,,,,,,,,,,,,,,,,,,,,,,,,,,,,,,,,,,
229989,001,2022-11-20_23h55.26.955,Info_measure_main_exp,2022.2.2,Win32,60.0528465,,,,,,,,,,,,,,,,,,masks/mask_002.jpg,,,,,,,,,,,,,,,,,,,,,,,,,,,,,,,,,,,,,,,,,,,,,,,0,3,3,1,1,,,,,,,,,,,,,,,,,,,,,,,,,,,,,,,,,,,,,,,,,
229989,001,2022-11-20_23h55.26.955,Info_measure_main_exp,2022.2.2,Win32,60.0528465,,,,,,,,,,,,,,,,,,masks/mask_003.jpg,,,,,,,,,,,,,,,,,,,,,,,,,,,,,,,,,,,,,,,,,,,,,,,0,4,4,2,1,,,,,,,,,,,,,,,,,,,,,,,,,,,,,,,,,,,,,,,,,
229989,001,2022-11-20_23h55.26.955,Info_measure_main_exp,2022.2.2,Win32,60.0528465,,,,,,,,,,,,,,,,,,,,,,,,,,,,,,7,0.9656,1,,,,,,,,,,,,0,131,5,5,2190,2166,absent_patch/patch0002190.jpg,absent_patch/patch0002166.jpg,,,,,,,,,,,,,,,,,,,0.077159969,0.144691176,1,0,0,response1disk,20,0.004987877,0.000346992,1,0,0,center_square,0,19,19,50,1,,,,,,,,,,,,,,,,,,,,,,,
229989,001,2022-11-20_23h55.26.955,Info_measure_main_exp,2022.2.2,Win32,60.0528465,,,,,,,,,,,,,,,,,,masks/mask_002.jpg,,,,,,,,,,,,,,,,,,,,,,,,,,,,,,,,,,,,,,,,,,0,0,0,1,1,,,,,,,,,,,,,,,,,,,,,,,,,,,,,,,,,,,,,,,,,,,,,,
229989,001,2022-11-20_23h55.26.955,Info_measure_main_exp,2022.2.2,Win32,60.0528465,,,,,,,,,,,,,,,,,,masks/mask_003.jpg,,,,,,,,,,,,,,,,,,,,,,,,,,,,,,,,,,,,,,,,,,0,1,1,2,1,,,,,,,,,,,,,,,,,,,,,,,,,,,,,,,,,,,,,,,,,,,,,,
229989,001,2022-11-20_23h55.26.955,Info_measure_main_exp,2022.2.2,Win32,60.0528465,,,,,,,,,,,,,,,,,,masks/mask_004.jpg,,,,,,,,,,,,,,,,,,,,,,,,,,,,,,,,,,,,,,,,,,0,2,2,3,1,,,,,,,,,,,,,,,,,,,,,,,,,,,,,,,,,,,,,,,,,,,,,,
229989,001,2022-11-20_23h55.26.955,Info_measure_main_exp,2022.2.2,Win32,60.0528465,,,,,,,,,,,,,,,,,,masks/mask_005.jpg,,,,,,,,,,,,,,,,,,,,,,,,,,,,,,,,,,,,,,,,,,0,3,3,4,1,,,,,,,,,,,,,,,,,,,,,,,,,,,,,,,,,,,,,,,,,,,,,,
229989,001,2022-11-20_23h55.26.955,Info_measure_main_exp,2022.2.2,Win32,60.0528465,,,,,,,,,,,,,,,,,,masks/mask_001.jpg,,,,,,,,,,,,,,,,,,,,,,,,,,,,,,,,,,,,,,,,,,0,4,4,0,1,,,,,,,,,,,,,,,,,,,,,,,,,,,,,,,,,,,,,,,,,,,,,,
229989,001,2022-11-20_23h55.26.955,Info_measure_main_exp,2022.2.2,Win32,60.0528465,,,,,,,,,,,,,,,,,,masks/mask_001.jpg,,,,,,,,,,,,,,,,,,,,,,,,,,,,,,,,,,,,,,,,,,,,,,,0,0,0,0,1,,,,,,,,,,,,,,,,,,,,,,,,,,,,,,,,,,,,,,,,,
229989,001,2022-11-20_23h55.26.955,Info_measure_main_exp,2022.2.2,Win32,60.0528465,,,,,,,,,,,,,,,,,,masks/mask_005.jpg,,,,,,,,,,,,,,,,,,,,,,,,,,,,,,,,,,,,,,,,,,,,,,,0,1,1,4,1,,,,,,,,,,,,,,,,,,,,,,,,,,,,,,,,,,,,,,,,,
229989,001,2022-11-20_23h55.26.955,Info_measure_main_exp,2022.2.2,Win32,60.0528465,,,,,,,,,,,,,,,,,,masks/mask_004.jpg,,,,,,,,,,,,,,,,,,,,,,,,,,,,,,,,,,,,,,,,,,,,,,,0,2,2,3,1,,,,,,,,,,,,,,,,,,,,,,,,,,,,,,,,,,,,,,,,,
229989,001,2022-11-20_23h55.26.955,Info_measure_main_exp,2022.2.2,Win32,60.0528465,,,,,,,,,,,,,,,,,,masks/mask_003.jpg,,,,,,,,,,,,,,,,,,,,,,,,,,,,,,,,,,,,,,,,,,,,,,,0,3,3,2,1,,,,,,,,,,,,,,,,,,,,,,,,,,,,,,,,,,,,,,,,,
229989,001,2022-11-20_23h55.26.955,Info_measure_main_exp,2022.2.2,Win32,60.0528465,,,,,,,,,,,,,,,,,,masks/mask_002.jpg,,,,,,,,,,,,,,,,,,,,,,,,,,,,,,,,,,,,,,,,,,,,,,,0,4,4,1,1,,,,,,,,,,,,,,,,,,,,,,,,,,,,,,,,,,,,,,,,,
229989,001,2022-11-20_23h55.26.955,Info_measure_main_exp,2022.2.2,Win32,60.0528465,,,,,,,,,,,,,,,,,,,,,,,,,,,,,,7,0.5494,1,,,,,,,,,,,,0,131,5,5,2082,2154,absent_patch/patch0002082.jpg,absent_patch/patch0002154.jpg,,,,,,,,,,,,,,,,,,,0.087338105,0.143765923,1,0,0,response1disk,21,-0.004264948,-0.00057832,1,0,0,center_square,0,20,20,33,1,,,,,,,,,,,,,,,,,,,,,,,
229989,001,2022-11-20_23h55.26.955,Info_measure_main_exp,2022.2.2,Win32,60.0528465,,,,,,,,,,,,,,,,,,masks/mask_005.jpg,,,,,,,,,,,,,,,,,,,,,,,,,,,,,,,,,,,,,,,,,,0,0,0,4,1,,,,,,,,,,,,,,,,,,,,,,,,,,,,,,,,,,,,,,,,,,,,,,
229989,001,2022-11-20_23h55.26.955,Info_measure_main_exp,2022.2.2,Win32,60.0528465,,,,,,,,,,,,,,,,,,masks/mask_002.jpg,,,,,,,,,,,,,,,,,,,,,,,,,,,,,,,,,,,,,,,,,,0,1,1,1,1,,,,,,,,,,,,,,,,,,,,,,,,,,,,,,,,,,,,,,,,,,,,,,
229989,001,2022-11-20_23h55.26.955,Info_measure_main_exp,2022.2.2,Win32,60.0528465,,,,,,,,,,,,,,,,,,masks/mask_001.jpg,,,,,,,,,,,,,,,,,,,,,,,,,,,,,,,,,,,,,,,,,,0,2,2,0,1,,,,,,,,,,,,,,,,,,,,,,,,,,,,,,,,,,,,,,,,,,,,,,
229989,001,2022-11-20_23h55.26.955,Info_measure_main_exp,2022.2.2,Win32,60.0528465,,,,,,,,,,,,,,,,,,masks/mask_004.jpg,,,,,,,,,,,,,,,,,,,,,,,,,,,,,,,,,,,,,,,,,,0,3,3,3,1,,,,,,,,,,,,,,,,,,,,,,,,,,,,,,,,,,,,,,,,,,,,,,
229989,001,2022-11-20_23h55.26.955,Info_measure_main_exp,2022.2.2,Win32,60.0528465,,,,,,,,,,,,,,,,,,masks/mask_003.jpg,,,,,,,,,,,,,,,,,,,,,,,,,,,,,,,,,,,,,,,,,,0,4,4,2,1,,,,,,,,,,,,,,,,,,,,,,,,,,,,,,,,,,,,,,,,,,,,,,
229989,001,2022-11-20_23h55.26.955,Info_measure_main_exp,2022.2.2,Win32,60.0528465,,,,,,,,,,,,,,,,,,masks/mask_003.jpg,,,,,,,,,,,,,,,,,,,,,,,,,,,,,,,,,,,,,,,,,,,,,,,0,0,0,2,1,,,,,,,,,,,,,,,,,,,,,,,,,,,,,,,,,,,,,,,,,
229989,001,2022-11-20_23h55.26.955,Info_measure_main_exp,2022.2.2,Win32,60.0528465,,,,,,,,,,,,,,,,,,masks/mask_005.jpg,,,,,,,,,,,,,,,,,,,,,,,,,,,,,,,,,,,,,,,,,,,,,,,0,1,1,4,1,,,,,,,,,,,,,,,,,,,,,,,,,,,,,,,,,,,,,,,,,
229989,001,2022-11-20_23h55.26.955,Info_measure_main_exp,2022.2.2,Win32,60.0528465,,,,,,,,,,,,,,,,,,masks/mask_004.jpg,,,,,,,,,,,,,,,,,,,,,,,,,,,,,,,,,,,,,,,,,,,,,,,0,2,2,3,1,,,,,,,,,,,,,,,,,,,,,,,,,,,,,,,,,,,,,,,,,
229989,001,2022-11-20_23h55.26.955,Info_measure_main_exp,2022.2.2,Win32,60.0528465,,,,,,,,,,,,,,,,,,masks/mask_002.jpg,,,,,,,,,,,,,,,,,,,,,,,,,,,,,,,,,,,,,,,,,,,,,,,0,3,3,1,1,,,,,,,,,,,,,,,,,,,,,,,,,,,,,,,,,,,,,,,,,
229989,001,2022-11-20_23h55.26.955,Info_measure_main_exp,2022.2.2,Win32,60.0528465,,,,,,,,,,,,,,,,,,masks/mask_001.jpg,,,,,,,,,,,,,,,,,,,,,,,,,,,,,,,,,,,,,,,,,,,,,,,0,4,4,0,1,,,,,,,,,,,,,,,,,,,,,,,,,,,,,,,,,,,,,,,,,
229989,001,2022-11-20_23h55.26.955,Info_measure_main_exp,2022.2.2,Win32,60.0528465,,,,,,,,,,,,,,,,,,,,,,,,,,,,,,6,0.7327,1,,,,,,,,,,,,0,131,5,5,2238,2166,absent_patch/patch0002238.jpg,absent_patch/patch0002166.jpg,,,,,,,,,,,,,,,,,,,0.10029206,0.052162869,1,0,0,response1disk,22,0.000361494,-0.003354138,1,0,0,center_square,0,21,21,118,1,,,,,,,,,,,,,,,,,,,,,,,
229989,001,2022-11-20_23h55.26.955,Info_measure_main_exp,2022.2.2,Win32,60.0528465,,,,,,,,,,,,,,,,,,masks/mask_005.jpg,,,,,,,,,,,,,,,,,,,,,,,,,,,,,,,,,,,,,,,,,,0,0,0,4,1,,,,,,,,,,,,,,,,,,,,,,,,,,,,,,,,,,,,,,,,,,,,,,
229989,001,2022-11-20_23h55.26.955,Info_measure_main_exp,2022.2.2,Win32,60.0528465,,,,,,,,,,,,,,,,,,masks/mask_002.jpg,,,,,,,,,,,,,,,,,,,,,,,,,,,,,,,,,,,,,,,,,,0,1,1,1,1,,,,,,,,,,,,,,,,,,,,,,,,,,,,,,,,,,,,,,,,,,,,,,
229989,001,2022-11-20_23h55.26.955,Info_measure_main_exp,2022.2.2,Win32,60.0528465,,,,,,,,,,,,,,,,,,masks/mask_001.jpg,,,,,,,,,,,,,,,,,,,,,,,,,,,,,,,,,,,,,,,,,,0,2,2,0,1,,,,,,,,,,,,,,,,,,,,,,,,,,,,,,,,,,,,,,,,,,,,,,
229989,001,2022-11-20_23h55.26.955,Info_measure_main_exp,2022.2.2,Win32,60.0528465,,,,,,,,,,,,,,,,,,masks/mask_004.jpg,,,,,,,,,,,,,,,,,,,,,,,,,,,,,,,,,,,,,,,,,,0,3,3,3,1,,,,,,,,,,,,,,,,,,,,,,,,,,,,,,,,,,,,,,,,,,,,,,
229989,001,2022-11-20_23h55.26.955,Info_measure_main_exp,2022.2.2,Win32,60.0528465,,,,,,,,,,,,,,,,,,masks/mask_003.jpg,,,,,,,,,,,,,,,,,,,,,,,,,,,,,,,,,,,,,,,,,,0,4,4,2,1,,,,,,,,,,,,,,,,,,,,,,,,,,,,,,,,,,,,,,,,,,,,,,
229989,001,2022-11-20_23h55.26.955,Info_measure_main_exp,2022.2.2,Win32,60.0528465,,,,,,,,,,,,,,,,,,masks/mask_005.jpg,,,,,,,,,,,,,,,,,,,,,,,,,,,,,,,,,,,,,,,,,,,,,,,0,0,0,4,1,,,,,,,,,,,,,,,,,,,,,,,,,,,,,,,,,,,,,,,,,
229989,001,2022-11-20_23h55.26.955,Info_measure_main_exp,2022.2.2,Win32,60.0528465,,,,,,,,,,,,,,,,,,masks/mask_003.jpg,,,,,,,,,,,,,,,,,,,,,,,,,,,,,,,,,,,,,,,,,,,,,,,0,1,1,2,1,,,,,,,,,,,,,,,,,,,,,,,,,,,,,,,,,,,,,,,,,
229989,001,2022-11-20_23h55.26.955,Info_measure_main_exp,2022.2.2,Win32,60.0528465,,,,,,,,,,,,,,,,,,masks/mask_002.jpg,,,,,,,,,,,,,,,,,,,,,,,,,,,,,,,,,,,,,,,,,,,,,,,0,2,2,1,1,,,,,,,,,,,,,,,,,,,,,,,,,,,,,,,,,,,,,,,,,
229989,001,2022-11-20_23h55.26.955,Info_measure_main_exp,2022.2.2,Win32,60.0528465,,,,,,,,,,,,,,,,,,masks/mask_001.jpg,,,,,,,,,,,,,,,,,,,,,,,,,,,,,,,,,,,,,,,,,,,,,,,0,3,3,0,1,,,,,,,,,,,,,,,,,,,,,,,,,,,,,,,,,,,,,,,,,
229989,001,2022-11-20_23h55.26.955,Info_measure_main_exp,2022.2.2,Win32,60.0528465,,,,,,,,,,,,,,,,,,masks/mask_004.jpg,,,,,,,,,,,,,,,,,,,,,,,,,,,,,,,,,,,,,,,,,,,,,,,0,4,4,3,1,,,,,,,,,,,,,,,,,,,,,,,,,,,,,,,,,,,,,,,,,
229989,001,2022-11-20_23h55.26.955,Info_measure_main_exp,2022.2.2,Win32,60.0528465,,,,,,,,,,,,,,,,,,,,,,,,,,,,,,6,0.8326,1,,,,,,,,,,,,0,131,5,5,2142,2238,absent_patch/patch0002142.jpg,absent_patch/patch0002238.jpg,,,,,,,,,,,,,,,,,,,0.071608274,0.020703207,1,0,0,response1disk,23,0.000361494,0.004973375,1,0,0,center_square,0,22,22,101,1,,,,,,,,,,,,,,,,,,,,,,,
229989,001,2022-11-20_23h55.26.955,Info_measure_main_exp,2022.2.2,Win32,60.0528465,,,,,,,,,,,,,,,,,,masks/mask_005.jpg,,,,,,,,,,,,,,,,,,,,,,,,,,,,,,,,,,,,,,,,,,0,0,0,4,1,,,,,,,,,,,,,,,,,,,,,,,,,,,,,,,,,,,,,,,,,,,,,,
229989,001,2022-11-20_23h55.26.955,Info_measure_main_exp,2022.2.2,Win32,60.0528465,,,,,,,,,,,,,,,,,,masks/mask_002.jpg,,,,,,,,,,,,,,,,,,,,,,,,,,,,,,,,,,,,,,,,,,0,1,1,1,1,,,,,,,,,,,,,,,,,,,,,,,,,,,,,,,,,,,,,,,,,,,,,,
229989,001,2022-11-20_23h55.26.955,Info_measure_main_exp,2022.2.2,Win32,60.0528465,,,,,,,,,,,,,,,,,,masks/mask_004.jpg,,,,,,,,,,,,,,,,,,,,,,,,,,,,,,,,,,,,,,,,,,0,2,2,3,1,,,,,,,,,,,,,,,,,,,,,,,,,,,,,,,,,,,,,,,,,,,,,,
229989,001,2022-11-20_23h55.26.955,Info_measure_main_exp,2022.2.2,Win32,60.0528465,,,,,,,,,,,,,,,,,,masks/mask_003.jpg,,,,,,,,,,,,,,,,,,,,,,,,,,,,,,,,,,,,,,,,,,0,3,3,2,1,,,,,,,,,,,,,,,,,,,,,,,,,,,,,,,,,,,,,,,,,,,,,,
229989,001,2022-11-20_23h55.26.955,Info_measure_main_exp,2022.2.2,Win32,60.0528465,,,,,,,,,,,,,,,,,,masks/mask_001.jpg,,,,,,,,,,,,,,,,,,,,,,,,,,,,,,,,,,,,,,,,,,0,4,4,0,1,,,,,,,,,,,,,,,,,,,,,,,,,,,,,,,,,,,,,,,,,,,,,,
229989,001,2022-11-20_23h55.26.955,Info_measure_main_exp,2022.2.2,Win32,60.0528465,,,,,,,,,,,,,,,,,,masks/mask_001.jpg,,,,,,,,,,,,,,,,,,,,,,,,,,,,,,,,,,,,,,,,,,,,,,,0,0,0,0,1,,,,,,,,,,,,,,,,,,,,,,,,,,,,,,,,,,,,,,,,,
229989,001,2022-11-20_23h55.26.955,Info_measure_main_exp,2022.2.2,Win32,60.0528465,,,,,,,,,,,,,,,,,,masks/mask_002.jpg,,,,,,,,,,,,,,,,,,,,,,,,,,,,,,,,,,,,,,,,,,,,,,,0,1,1,1,1,,,,,,,,,,,,,,,,,,,,,,,,,,,,,,,,,,,,,,,,,
229989,001,2022-11-20_23h55.26.955,Info_measure_main_exp,2022.2.2,Win32,60.0528465,,,,,,,,,,,,,,,,,,masks/mask_004.jpg,,,,,,,,,,,,,,,,,,,,,,,,,,,,,,,,,,,,,,,,,,,,,,,0,2,2,3,1,,,,,,,,,,,,,,,,,,,,,,,,,,,,,,,,,,,,,,,,,
229989,001,2022-11-20_23h55.26.955,Info_measure_main_exp,2022.2.2,Win32,60.0528465,,,,,,,,,,,,,,,,,,masks/mask_005.jpg,,,,,,,,,,,,,,,,,,,,,,,,,,,,,,,,,,,,,,,,,,,,,,,0,3,3,4,1,,,,,,,,,,,,,,,,,,,,,,,,,,,,,,,,,,,,,,,,,
229989,001,2022-11-20_23h55.26.955,Info_measure_main_exp,2022.2.2,Win32,60.0528465,,,,,,,,,,,,,,,,,,masks/mask_003.jpg,,,,,,,,,,,,,,,,,,,,,,,,,,,,,,,,,,,,,,,,,,,,,,,0,4,4,2,1,,,,,,,,,,,,,,,,,,,,,,,,,,,,,,,,,,,,,,,,,
229989,001,2022-11-20_23h55.26.955,Info_measure_main_exp,2022.2.2,Win32,60.0528465,,,,,,,,,,,,,,,,,,,,,,,,,,,,,,7,0.6661,1,,,,,,,,,,,,0,131,5,5,2250,2238,absent_patch/patch0002250.jpg,absent_patch/patch0002238.jpg,,,,,,,,,,,,,,,,,,,0.062355449,0.142840611,1,0,0,response1disk,24,0.002212058,0.009599875,1,0,0,center_square,0,23,23,110,1,,,,,,,,,,,,,,,,,,,,,,,
229989,001,2022-11-20_23h55.26.955,Info_measure_main_exp,2022.2.2,Win32,60.0528465,,,,,,,,,,,,,,,,,,masks/mask_001.jpg,,,,,,,,,,,,,,,,,,,,,,,,,,,,,,,,,,,,,,,,,,0,0,0,0,1,,,,,,,,,,,,,,,,,,,,,,,,,,,,,,,,,,,,,,,,,,,,,,
229989,001,2022-11-20_23h55.26.955,Info_measure_main_exp,2022.2.2,Win32,60.0528465,,,,,,,,,,,,,,,,,,masks/mask_005.jpg,,,,,,,,,,,,,,,,,,,,,,,,,,,,,,,,,,,,,,,,,,0,1,1,4,1,,,,,,,,,,,,,,,,,,,,,,,,,,,,,,,,,,,,,,,,,,,,,,
229989,001,2022-11-20_23h55.26.955,Info_measure_main_exp,2022.2.2,Win32,60.0528465,,,,,,,,,,,,,,,,,,masks/mask_002.jpg,,,,,,,,,,,,,,,,,,,,,,,,,,,,,,,,,,,,,,,,,,0,2,2,1,1,,,,,,,,,,,,,,,,,,,,,,,,,,,,,,,,,,,,,,,,,,,,,,
229989,001,2022-11-20_23h55.26.955,Info_measure_main_exp,2022.2.2,Win32,60.0528465,,,,,,,,,,,,,,,,,,masks/mask_004.jpg,,,,,,,,,,,,,,,,,,,,,,,,,,,,,,,,,,,,,,,,,,0,3,3,3,1,,,,,,,,,,,,,,,,,,,,,,,,,,,,,,,,,,,,,,,,,,,,,,
229989,001,2022-11-20_23h55.26.955,Info_measure_main_exp,2022.2.2,Win32,60.0528465,,,,,,,,,,,,,,,,,,masks/mask_003.jpg,,,,,,,,,,,,,,,,,,,,,,,,,,,,,,,,,,,,,,,,,,0,4,4,2,1,,,,,,,,,,,,,,,,,,,,,,,,,,,,,,,,,,,,,,,,,,,,,,
229989,001,2022-11-20_23h55.26.955,Info_measure_main_exp,2022.2.2,Win32,60.0528465,,,,,,,,,,,,,,,,,,masks/mask_003.jpg,,,,,,,,,,,,,,,,,,,,,,,,,,,,,,,,,,,,,,,,,,,,,,,0,0,0,2,1,,,,,,,,,,,,,,,,,,,,,,,,,,,,,,,,,,,,,,,,,
229989,001,2022-11-20_23h55.26.955,Info_measure_main_exp,2022.2.2,Win32,60.0528465,,,,,,,,,,,,,,,,,,masks/mask_004.jpg,,,,,,,,,,,,,,,,,,,,,,,,,,,,,,,,,,,,,,,,,,,,,,,0,1,1,3,1,,,,,,,,,,,,,,,,,,,,,,,,,,,,,,,,,,,,,,,,,
229989,001,2022-11-20_23h55.26.955,Info_measure_main_exp,2022.2.2,Win32,60.0528465,,,,,,,,,,,,,,,,,,masks/mask_002.jpg,,,,,,,,,,,,,,,,,,,,,,,,,,,,,,,,,,,,,,,,,,,,,,,0,2,2,1,1,,,,,,,,,,,,,,,,,,,,,,,,,,,,,,,,,,,,,,,,,
229989,001,2022-11-20_23h55.26.955,Info_measure_main_exp,2022.2.2,Win32,60.0528465,,,,,,,,,,,,,,,,,,masks/mask_001.jpg,,,,,,,,,,,,,,,,,,,,,,,,,,,,,,,,,,,,,,,,,,,,,,,0,3,3,0,1,,,,,,,,,,,,,,,,,,,,,,,,,,,,,,,,,,,,,,,,,
229989,001,2022-11-20_23h55.26.955,Info_measure_main_exp,2022.2.2,Win32,60.0528465,,,,,,,,,,,,,,,,,,masks/mask_005.jpg,,,,,,,,,,,,,,,,,,,,,,,,,,,,,,,,,,,,,,,,,,,,,,,0,4,4,4,1,,,,,,,,,,,,,,,,,,,,,,,,,,,,,,,,,,,,,,,,,
229989,001,2022-11-20_23h55.26.955,Info_measure_main_exp,2022.2.2,Win32,60.0528465,,,,,,,,,,,,,,,,,,,,,,,,,,,,,,7,0.4995,1,,,,,,,,,,,,0,131,5,5,1950,2214,absent_patch/patch0001950.jpg,absent_patch/patch0002214.jpg,,,,,,,,,,,,,,,,,,,0.053102624,0.126185497,1,0,0,response1disk,25,-0.007966078,-0.001503573,1,0,0,center_square,0,24,24,85,1,,,,,,,,,,,,,,,,,,,,,,,
229989,001,2022-11-20_23h55.26.955,Info_measure_main_exp,2022.2.2,Win32,60.0528465,,,,,,,,,,,,,,,,,,masks/mask_005.jpg,,,,,,,,,,,,,,,,,,,,,,,,,,,,,,,,,,,,,,,,,,0,0,0,4,1,,,,,,,,,,,,,,,,,,,,,,,,,,,,,,,,,,,,,,,,,,,,,,
229989,001,2022-11-20_23h55.26.955,Info_measure_main_exp,2022.2.2,Win32,60.0528465,,,,,,,,,,,,,,,,,,masks/mask_002.jpg,,,,,,,,,,,,,,,,,,,,,,,,,,,,,,,,,,,,,,,,,,0,1,1,1,1,,,,,,,,,,,,,,,,,,,,,,,,,,,,,,,,,,,,,,,,,,,,,,
229989,001,2022-11-20_23h55.26.955,Info_measure_main_exp,2022.2.2,Win32,60.0528465,,,,,,,,,,,,,,,,,,masks/mask_003.jpg,,,,,,,,,,,,,,,,,,,,,,,,,,,,,,,,,,,,,,,,,,0,2,2,2,1,,,,,,,,,,,,,,,,,,,,,,,,,,,,,,,,,,,,,,,,,,,,,,
229989,001,2022-11-20_23h55.26.955,Info_measure_main_exp,2022.2.2,Win32,60.0528465,,,,,,,,,,,,,,,,,,masks/mask_001.jpg,,,,,,,,,,,,,,,,,,,,,,,,,,,,,,,,,,,,,,,,,,0,3,3,0,1,,,,,,,,,,,,,,,,,,,,,,,,,,,,,,,,,,,,,,,,,,,,,,
229989,001,2022-11-20_23h55.26.955,Info_measure_main_exp,2022.2.2,Win32,60.0528465,,,,,,,,,,,,,,,,,,masks/mask_004.jpg,,,,,,,,,,,,,,,,,,,,,,,,,,,,,,,,,,,,,,,,,,0,4,4,3,1,,,,,,,,,,,,,,,,,,,,,,,,,,,,,,,,,,,,,,,,,,,,,,
229989,001,2022-11-20_23h55.26.955,Info_measure_main_exp,2022.2.2,Win32,60.0528465,,,,,,,,,,,,,,,,,,masks/mask_002.jpg,,,,,,,,,,,,,,,,,,,,,,,,,,,,,,,,,,,,,,,,,,,,,,,0,0,0,1,1,,,,,,,,,,,,,,,,,,,,,,,,,,,,,,,,,,,,,,,,,
229989,001,2022-11-20_23h55.26.955,Info_measure_main_exp,2022.2.2,Win32,60.0528465,,,,,,,,,,,,,,,,,,masks/mask_003.jpg,,,,,,,,,,,,,,,,,,,,,,,,,,,,,,,,,,,,,,,,,,,,,,,0,1,1,2,1,,,,,,,,,,,,,,,,,,,,,,,,,,,,,,,,,,,,,,,,,
229989,001,2022-11-20_23h55.26.955,Info_measure_main_exp,2022.2.2,Win32,60.0528465,,,,,,,,,,,,,,,,,,masks/mask_004.jpg,,,,,,,,,,,,,,,,,,,,,,,,,,,,,,,,,,,,,,,,,,,,,,,0,2,2,3,1,,,,,,,,,,,,,,,,,,,,,,,,,,,,,,,,,,,,,,,,,
229989,001,2022-11-20_23h55.26.955,Info_measure_main_exp,2022.2.2,Win32,60.0528465,,,,,,,,,,,,,,,,,,masks/mask_001.jpg,,,,,,,,,,,,,,,,,,,,,,,,,,,,,,,,,,,,,,,,,,,,,,,0,3,3,0,1,,,,,,,,,,,,,,,,,,,,,,,,,,,,,,,,,,,,,,,,,
229989,001,2022-11-20_23h55.26.955,Info_measure_main_exp,2022.2.2,Win32,60.0528465,,,,,,,,,,,,,,,,,,masks/mask_005.jpg,,,,,,,,,,,,,,,,,,,,,,,,,,,,,,,,,,,,,,,,,,,,,,,0,4,4,4,1,,,,,,,,,,,,,,,,,,,,,,,,,,,,,,,,,,,,,,,,,
229989,001,2022-11-20_23h55.26.955,Info_measure_main_exp,2022.2.2,Win32,60.0528465,,,,,,,,,,,,,,,,,,,,,,,,,,,,,,0,0.5496,1,,,,,,,,,,,,0,131,5,5,2298,2298,absent_patch/patch0002298.jpg,absent_patch/patch0002298.jpg,,,,,,,,,,,,,,,,,,,-0.05793139,0.144691176,1,0,0,response7disk,26,0.003137254,-0.001503573,1,0,0,center_square,0,25,25,37,1,,,,,,,,,,,,,,,,,,,,,,,
229989,001,2022-11-20_23h55.26.955,Info_measure_main_exp,2022.2.2,Win32,60.0528465,,,,,,,,,,,,,,,,,,masks/mask_004.jpg,,,,,,,,,,,,,,,,,,,,,,,,,,,,,,,,,,,,,,,,,,0,0,0,3,1,,,,,,,,,,,,,,,,,,,,,,,,,,,,,,,,,,,,,,,,,,,,,,
229989,001,2022-11-20_23h55.26.955,Info_measure_main_exp,2022.2.2,Win32,60.0528465,,,,,,,,,,,,,,,,,,masks/mask_003.jpg,,,,,,,,,,,,,,,,,,,,,,,,,,,,,,,,,,,,,,,,,,0,1,1,2,1,,,,,,,,,,,,,,,,,,,,,,,,,,,,,,,,,,,,,,,,,,,,,,
229989,001,2022-11-20_23h55.26.955,Info_measure_main_exp,2022.2.2,Win32,60.0528465,,,,,,,,,,,,,,,,,,masks/mask_002.jpg,,,,,,,,,,,,,,,,,,,,,,,,,,,,,,,,,,,,,,,,,,0,2,2,1,1,,,,,,,,,,,,,,,,,,,,,,,,,,,,,,,,,,,,,,,,,,,,,,
229989,001,2022-11-20_23h55.26.955,Info_measure_main_exp,2022.2.2,Win32,60.0528465,,,,,,,,,,,,,,,,,,masks/mask_005.jpg,,,,,,,,,,,,,,,,,,,,,,,,,,,,,,,,,,,,,,,,,,0,3,3,4,1,,,,,,,,,,,,,,,,,,,,,,,,,,,,,,,,,,,,,,,,,,,,,,
229989,001,2022-11-20_23h55.26.955,Info_measure_main_exp,2022.2.2,Win32,60.0528465,,,,,,,,,,,,,,,,,,masks/mask_001.jpg,,,,,,,,,,,,,,,,,,,,,,,,,,,,,,,,,,,,,,,,,,0,4,4,0,1,,,,,,,,,,,,,,,,,,,,,,,,,,,,,,,,,,,,,,,,,,,,,,
229989,001,2022-11-20_23h55.26.955,Info_measure_main_exp,2022.2.2,Win32,60.0528465,,,,,,,,,,,,,,,,,,masks/mask_004.jpg,,,,,,,,,,,,,,,,,,,,,,,,,,,,,,,,,,,,,,,,,,,,,,,0,0,0,3,1,,,,,,,,,,,,,,,,,,,,,,,,,,,,,,,,,,,,,,,,,
229989,001,2022-11-20_23h55.26.955,Info_measure_main_exp,2022.2.2,Win32,60.0528465,,,,,,,,,,,,,,,,,,masks/mask_002.jpg,,,,,,,,,,,,,,,,,,,,,,,,,,,,,,,,,,,,,,,,,,,,,,,0,1,1,1,1,,,,,,,,,,,,,,,,,,,,,,,,,,,,,,,,,,,,,,,,,
229989,001,2022-11-20_23h55.26.955,Info_measure_main_exp,2022.2.2,Win32,60.0528465,,,,,,,,,,,,,,,,,,masks/mask_003.jpg,,,,,,,,,,,,,,,,,,,,,,,,,,,,,,,,,,,,,,,,,,,,,,,0,2,2,2,1,,,,,,,,,,,,,,,,,,,,,,,,,,,,,,,,,,,,,,,,,
229989,001,2022-11-20_23h55.26.955,Info_measure_main_exp,2022.2.2,Win32,60.0528465,,,,,,,,,,,,,,,,,,masks/mask_005.jpg,,,,,,,,,,,,,,,,,,,,,,,,,,,,,,,,,,,,,,,,,,,,,,,0,3,3,4,1,,,,,,,,,,,,,,,,,,,,,,,,,,,,,,,,,,,,,,,,,
229989,001,2022-11-20_23h55.26.955,Info_measure_main_exp,2022.2.2,Win32,60.0528465,,,,,,,,,,,,,,,,,,masks/mask_001.jpg,,,,,,,,,,,,,,,,,,,,,,,,,,,,,,,,,,,,,,,,,,,,,,,0,4,4,0,1,,,,,,,,,,,,,,,,,,,,,,,,,,,,,,,,,,,,,,,,,
229989,001,2022-11-20_23h55.26.955,Info_measure_main_exp,2022.2.2,Win32,60.0528465,,,,,,,,,,,,,,,,,,,,,,,,,,,,,,0,0.4163,1,,,,,,,,,,,,0,131,5,5,2214,2214,absent_patch/patch0002214.jpg,absent_patch/patch0002214.jpg,,,,,,,,,,,,,,,,,,,-0.036649864,0.11600739,1,0,0,response7disk,27,-0.00148913,0.004048122,1,0,0,center_square,0,26,26,115,1,,,,,,,,,,,,,,,,,,,,,,,
229989,001,2022-11-20_23h55.26.955,Info_measure_main_exp,2022.2.2,Win32,60.0528465,,,,,,,,,,,,,,,,,,masks/mask_004.jpg,,,,,,,,,,,,,,,,,,,,,,,,,,,,,,,,,,,,,,,,,,0,0,0,3,1,,,,,,,,,,,,,,,,,,,,,,,,,,,,,,,,,,,,,,,,,,,,,,
229989,001,2022-11-20_23h55.26.955,Info_measure_main_exp,2022.2.2,Win32,60.0528465,,,,,,,,,,,,,,,,,,masks/mask_005.jpg,,,,,,,,,,,,,,,,,,,,,,,,,,,,,,,,,,,,,,,,,,0,1,1,4,1,,,,,,,,,,,,,,,,,,,,,,,,,,,,,,,,,,,,,,,,,,,,,,
229989,001,2022-11-20_23h55.26.955,Info_measure_main_exp,2022.2.2,Win32,60.0528465,,,,,,,,,,,,,,,,,,masks/mask_002.jpg,,,,,,,,,,,,,,,,,,,,,,,,,,,,,,,,,,,,,,,,,,0,2,2,1,1,,,,,,,,,,,,,,,,,,,,,,,,,,,,,,,,,,,,,,,,,,,,,,
229989,001,2022-11-20_23h55.26.955,Info_measure_main_exp,2022.2.2,Win32,60.0528465,,,,,,,,,,,,,,,,,,masks/mask_001.jpg,,,,,,,,,,,,,,,,,,,,,,,,,,,,,,,,,,,,,,,,,,0,3,3,0,1,,,,,,,,,,,,,,,,,,,,,,,,,,,,,,,,,,,,,,,,,,,,,,
229989,001,2022-11-20_23h55.26.955,Info_measure_main_exp,2022.2.2,Win32,60.0528465,,,,,,,,,,,,,,,,,,masks/mask_003.jpg,,,,,,,,,,,,,,,,,,,,,,,,,,,,,,,,,,,,,,,,,,0,4,4,2,1,,,,,,,,,,,,,,,,,,,,,,,,,,,,,,,,,,,,,,,,,,,,,,
229989,001,2022-11-20_23h55.26.955,Info_measure_main_exp,2022.2.2,Win32,60.0528465,,,,,,,,,,,,,,,,,,masks/mask_003.jpg,,,,,,,,,,,,,,,,,,,,,,,,,,,,,,,,,,,,,,,,,,,,,,,0,0,0,2,1,,,,,,,,,,,,,,,,,,,,,,,,,,,,,,,,,,,,,,,,,
229989,001,2022-11-20_23h55.26.955,Info_measure_main_exp,2022.2.2,Win32,60.0528465,,,,,,,,,,,,,,,,,,masks/mask_001.jpg,,,,,,,,,,,,,,,,,,,,,,,,,,,,,,,,,,,,,,,,,,,,,,,0,1,1,0,1,,,,,,,,,,,,,,,,,,,,,,,,,,,,,,,,,,,,,,,,,
229989,001,2022-11-20_23h55.26.955,Info_measure_main_exp,2022.2.2,Win32,60.0528465,,,,,,,,,,,,,,,,,,masks/mask_004.jpg,,,,,,,,,,,,,,,,,,,,,,,,,,,,,,,,,,,,,,,,,,,,,,,0,2,2,3,1,,,,,,,,,,,,,,,,,,,,,,,,,,,,,,,,,,,,,,,,,
229989,001,2022-11-20_23h55.26.955,Info_measure_main_exp,2022.2.2,Win32,60.0528465,,,,,,,,,,,,,,,,,,masks/mask_005.jpg,,,,,,,,,,,,,,,,,,,,,,,,,,,,,,,,,,,,,,,,,,,,,,,0,3,3,4,1,,,,,,,,,,,,,,,,,,,,,,,,,,,,,,,,,,,,,,,,,
229989,001,2022-11-20_23h55.26.955,Info_measure_main_exp,2022.2.2,Win32,60.0528465,,,,,,,,,,,,,,,,,,masks/mask_002.jpg,,,,,,,,,,,,,,,,,,,,,,,,,,,,,,,,,,,,,,,,,,,,,,,0,4,4,1,1,,,,,,,,,,,,,,,,,,,,,,,,,,,,,,,,,,,,,,,,,
229989,001,2022-11-20_23h55.26.955,Info_measure_main_exp,2022.2.2,Win32,60.0528465,,,,,,,,,,,,,,,,,,,,,,,,,,,,,,4,2.0313,1,,,,,,,,,,,,0,131,5,5,1974,2178,absent_patch/patch0001974.jpg,absent_patch/patch0002178.jpg,,,,,,,,,,,,,,,,,,,0.037372735,-0.092181373,1,0,0,response3disk,28,0.006838384,-0.001503573,1,0,0,center_square,0,27,27,44,1,,,,,,,,,,,,,,,,,,,,,,,
229989,001,2022-11-20_23h55.26.955,Info_measure_main_exp,2022.2.2,Win32,60.0528465,,,,,,,,,,,,,,,,,,masks/mask_003.jpg,,,,,,,,,,,,,,,,,,,,,,,,,,,,,,,,,,,,,,,,,,0,0,0,2,1,,,,,,,,,,,,,,,,,,,,,,,,,,,,,,,,,,,,,,,,,,,,,,
229989,001,2022-11-20_23h55.26.955,Info_measure_main_exp,2022.2.2,Win32,60.0528465,,,,,,,,,,,,,,,,,,masks/mask_002.jpg,,,,,,,,,,,,,,,,,,,,,,,,,,,,,,,,,,,,,,,,,,0,1,1,1,1,,,,,,,,,,,,,,,,,,,,,,,,,,,,,,,,,,,,,,,,,,,,,,
229989,001,2022-11-20_23h55.26.955,Info_measure_main_exp,2022.2.2,Win32,60.0528465,,,,,,,,,,,,,,,,,,masks/mask_005.jpg,,,,,,,,,,,,,,,,,,,,,,,,,,,,,,,,,,,,,,,,,,0,2,2,4,1,,,,,,,,,,,,,,,,,,,,,,,,,,,,,,,,,,,,,,,,,,,,,,
229989,001,2022-11-20_23h55.26.955,Info_measure_main_exp,2022.2.2,Win32,60.0528465,,,,,,,,,,,,,,,,,,masks/mask_001.jpg,,,,,,,,,,,,,,,,,,,,,,,,,,,,,,,,,,,,,,,,,,0,3,3,0,1,,,,,,,,,,,,,,,,,,,,,,,,,,,,,,,,,,,,,,,,,,,,,,
229989,001,2022-11-20_23h55.26.955,Info_measure_main_exp,2022.2.2,Win32,60.0528465,,,,,,,,,,,,,,,,,,masks/mask_004.jpg,,,,,,,,,,,,,,,,,,,,,,,,,,,,,,,,,,,,,,,,,,0,4,4,3,1,,,,,,,,,,,,,,,,,,,,,,,,,,,,,,,,,,,,,,,,,,,,,,
229989,001,2022-11-20_23h55.26.955,Info_measure_main_exp,2022.2.2,Win32,60.0528465,,,,,,,,,,,,,,,,,,masks/mask_005.jpg,,,,,,,,,,,,,,,,,,,,,,,,,,,,,,,,,,,,,,,,,,,,,,,0,0,0,4,1,,,,,,,,,,,,,,,,,,,,,,,,,,,,,,,,,,,,,,,,,
229989,001,2022-11-20_23h55.26.955,Info_measure_main_exp,2022.2.2,Win32,60.0528465,,,,,,,,,,,,,,,,,,masks/mask_003.jpg,,,,,,,,,,,,,,,,,,,,,,,,,,,,,,,,,,,,,,,,,,,,,,,0,1,1,2,1,,,,,,,,,,,,,,,,,,,,,,,,,,,,,,,,,,,,,,,,,
229989,001,2022-11-20_23h55.26.955,Info_measure_main_exp,2022.2.2,Win32,60.0528465,,,,,,,,,,,,,,,,,,masks/mask_001.jpg,,,,,,,,,,,,,,,,,,,,,,,,,,,,,,,,,,,,,,,,,,,,,,,0,2,2,0,1,,,,,,,,,,,,,,,,,,,,,,,,,,,,,,,,,,,,,,,,,
229989,001,2022-11-20_23h55.26.955,Info_measure_main_exp,2022.2.2,Win32,60.0528465,,,,,,,,,,,,,,,,,,masks/mask_004.jpg,,,,,,,,,,,,,,,,,,,,,,,,,,,,,,,,,,,,,,,,,,,,,,,0,3,3,3,1,,,,,,,,,,,,,,,,,,,,,,,,,,,,,,,,,,,,,,,,,
229989,001,2022-11-20_23h55.26.955,Info_measure_main_exp,2022.2.2,Win32,60.0528465,,,,,,,,,,,,,,,,,,masks/mask_002.jpg,,,,,,,,,,,,,,,,,,,,,,,,,,,,,,,,,,,,,,,,,,,,,,,0,4,4,1,1,,,,,,,,,,,,,,,,,,,,,,,,,,,,,,,,,,,,,,,,,
229989,001,2022-11-20_23h55.26.955,Info_measure_main_exp,2022.2.2,Win32,60.0528465,,,,,,,,,,,,,,,,,,,,,,,,,,,,,,7,2.2313,1,,,,,,,,,,,,1,131,5,5,1,2274,present_patch/cong_131_5_a.jpg,absent_patch/patch0002274.jpg,,,,,,,,,,,,,,,,,,,0.035522228,0.100277559,1,0,0,response1disk,29,0.009614377,0.008674505,1,0,0,center_square,0,28,28,105,1,,,,,,,,,,,,,,,,,,,,,,,
229989,001,2022-11-20_23h55.26.955,Info_measure_main_exp,2022.2.2,Win32,60.0528465,,,,,,,,,,,,,,,,,,masks/mask_001.jpg,,,,,,,,,,,,,,,,,,,,,,,,,,,,,,,,,,,,,,,,,,0,0,0,0,1,,,,,,,,,,,,,,,,,,,,,,,,,,,,,,,,,,,,,,,,,,,,,,
229989,001,2022-11-20_23h55.26.955,Info_measure_main_exp,2022.2.2,Win32,60.0528465,,,,,,,,,,,,,,,,,,masks/mask_005.jpg,,,,,,,,,,,,,,,,,,,,,,,,,,,,,,,,,,,,,,,,,,0,1,1,4,1,,,,,,,,,,,,,,,,,,,,,,,,,,,,,,,,,,,,,,,,,,,,,,
229989,001,2022-11-20_23h55.26.955,Info_measure_main_exp,2022.2.2,Win32,60.0528465,,,,,,,,,,,,,,,,,,masks/mask_002.jpg,,,,,,,,,,,,,,,,,,,,,,,,,,,,,,,,,,,,,,,,,,0,2,2,1,1,,,,,,,,,,,,,,,,,,,,,,,,,,,,,,,,,,,,,,,,,,,,,,
229989,001,2022-11-20_23h55.26.955,Info_measure_main_exp,2022.2.2,Win32,60.0528465,,,,,,,,,,,,,,,,,,masks/mask_004.jpg,,,,,,,,,,,,,,,,,,,,,,,,,,,,,,,,,,,,,,,,,,0,3,3,3,1,,,,,,,,,,,,,,,,,,,,,,,,,,,,,,,,,,,,,,,,,,,,,,
229989,001,2022-11-20_23h55.26.955,Info_measure_main_exp,2022.2.2,Win32,60.0528465,,,,,,,,,,,,,,,,,,masks/mask_003.jpg,,,,,,,,,,,,,,,,,,,,,,,,,,,,,,,,,,,,,,,,,,0,4,4,2,1,,,,,,,,,,,,,,,,,,,,,,,,,,,,,,,,,,,,,,,,,,,,,,
229989,001,2022-11-20_23h55.26.955,Info_measure_main_exp,2022.2.2,Win32,60.0528465,,,,,,,,,,,,,,,,,,masks/mask_002.jpg,,,,,,,,,,,,,,,,,,,,,,,,,,,,,,,,,,,,,,,,,,,,,,,0,0,0,1,1,,,,,,,,,,,,,,,,,,,,,,,,,,,,,,,,,,,,,,,,,
229989,001,2022-11-20_23h55.26.955,Info_measure_main_exp,2022.2.2,Win32,60.0528465,,,,,,,,,,,,,,,,,,masks/mask_005.jpg,,,,,,,,,,,,,,,,,,,,,,,,,,,,,,,,,,,,,,,,,,,,,,,0,1,1,4,1,,,,,,,,,,,,,,,,,,,,,,,,,,,,,,,,,,,,,,,,,
229989,001,2022-11-20_23h55.26.955,Info_measure_main_exp,2022.2.2,Win32,60.0528465,,,,,,,,,,,,,,,,,,masks/mask_004.jpg,,,,,,,,,,,,,,,,,,,,,,,,,,,,,,,,,,,,,,,,,,,,,,,0,2,2,3,1,,,,,,,,,,,,,,,,,,,,,,,,,,,,,,,,,,,,,,,,,
229989,001,2022-11-20_23h55.26.955,Info_measure_main_exp,2022.2.2,Win32,60.0528465,,,,,,,,,,,,,,,,,,masks/mask_001.jpg,,,,,,,,,,,,,,,,,,,,,,,,,,,,,,,,,,,,,,,,,,,,,,,0,3,3,0,1,,,,,,,,,,,,,,,,,,,,,,,,,,,,,,,,,,,,,,,,,
229989,001,2022-11-20_23h55.26.955,Info_measure_main_exp,2022.2.2,Win32,60.0528465,,,,,,,,,,,,,,,,,,masks/mask_003.jpg,,,,,,,,,,,,,,,,,,,,,,,,,,,,,,,,,,,,,,,,,,,,,,,0,4,4,2,1,,,,,,,,,,,,,,,,,,,,,,,,,,,,,,,,,,,,,,,,,
229989,001,2022-11-20_23h55.26.955,Info_measure_main_exp,2022.2.2,Win32,60.0528465,,,,,,,,,,,,,,,,,,,,,,,,,,,,,,7,1.0157,1,,,,,,,,,,,,0,131,5,5,2250,2166,absent_patch/patch0002250.jpg,absent_patch/patch0002166.jpg,,,,,,,,,,,,,,,,,,,0.053102624,0.121559056,1,0,0,response1disk,30,0.003137254,-0.00427945,1,0,0,center_square,0,29,29,60,1,,,,,,,,,,,,,,,,,,,,,,,
229989,001,2022-11-20_23h55.26.955,Info_measure_main_exp,2022.2.2,Win32,60.0528465,,,,,,,,,,,,,,,,,,masks/mask_003.jpg,,,,,,,,,,,,,,,,,,,,,,,,,,,,,,,,,,,,,,,,,,0,0,0,2,1,,,,,,,,,,,,,,,,,,,,,,,,,,,,,,,,,,,,,,,,,,,,,,
229989,001,2022-11-20_23h55.26.955,Info_measure_main_exp,2022.2.2,Win32,60.0528465,,,,,,,,,,,,,,,,,,masks/mask_005.jpg,,,,,,,,,,,,,,,,,,,,,,,,,,,,,,,,,,,,,,,,,,0,1,1,4,1,,,,,,,,,,,,,,,,,,,,,,,,,,,,,,,,,,,,,,,,,,,,,,
229989,001,2022-11-20_23h55.26.955,Info_measure_main_exp,2022.2.2,Win32,60.0528465,,,,,,,,,,,,,,,,,,masks/mask_004.jpg,,,,,,,,,,,,,,,,,,,,,,,,,,,,,,,,,,,,,,,,,,0,2,2,3,1,,,,,,,,,,,,,,,,,,,,,,,,,,,,,,,,,,,,,,,,,,,,,,
229989,001,2022-11-20_23h55.26.955,Info_measure_main_exp,2022.2.2,Win32,60.0528465,,,,,,,,,,,,,,,,,,masks/mask_001.jpg,,,,,,,,,,,,,,,,,,,,,,,,,,,,,,,,,,,,,,,,,,0,3,3,0,1,,,,,,,,,,,,,,,,,,,,,,,,,,,,,,,,,,,,,,,,,,,,,,
229989,001,2022-11-20_23h55.26.955,Info_measure_main_exp,2022.2.2,Win32,60.0528465,,,,,,,,,,,,,,,,,,masks/mask_002.jpg,,,,,,,,,,,,,,,,,,,,,,,,,,,,,,,,,,,,,,,,,,0,4,4,1,1,,,,,,,,,,,,,,,,,,,,,,,,,,,,,,,,,,,,,,,,,,,,,,
229989,001,2022-11-20_23h55.26.955,Info_measure_main_exp,2022.2.2,Win32,60.0528465,,,,,,,,,,,,,,,,,,masks/mask_001.jpg,,,,,,,,,,,,,,,,,,,,,,,,,,,,,,,,,,,,,,,,,,,,,,,0,0,0,0,1,,,,,,,,,,,,,,,,,,,,,,,,,,,,,,,,,,,,,,,,,
229989,001,2022-11-20_23h55.26.955,Info_measure_main_exp,2022.2.2,Win32,60.0528465,,,,,,,,,,,,,,,,,,masks/mask_004.jpg,,,,,,,,,,,,,,,,,,,,,,,,,,,,,,,,,,,,,,,,,,,,,,,0,1,1,3,1,,,,,,,,,,,,,,,,,,,,,,,,,,,,,,,,,,,,,,,,,
229989,001,2022-11-20_23h55.26.955,Info_measure_main_exp,2022.2.2,Win32,60.0528465,,,,,,,,,,,,,,,,,,masks/mask_002.jpg,,,,,,,,,,,,,,,,,,,,,,,,,,,,,,,,,,,,,,,,,,,,,,,0,2,2,1,1,,,,,,,,,,,,,,,,,,,,,,,,,,,,,,,,,,,,,,,,,
229989,001,2022-11-20_23h55.26.955,Info_measure_main_exp,2022.2.2,Win32,60.0528465,,,,,,,,,,,,,,,,,,masks/mask_003.jpg,,,,,,,,,,,,,,,,,,,,,,,,,,,,,,,,,,,,,,,,,,,,,,,0,3,3,2,1,,,,,,,,,,,,,,,,,,,,,,,,,,,,,,,,,,,,,,,,,
229989,001,2022-11-20_23h55.26.955,Info_measure_main_exp,2022.2.2,Win32,60.0528465,,,,,,,,,,,,,,,,,,masks/mask_005.jpg,,,,,,,,,,,,,,,,,,,,,,,,,,,,,,,,,,,,,,,,,,,,,,,0,4,4,4,1,,,,,,,,,,,,,,,,,,,,,,,,,,,,,,,,,,,,,,,,,
229989,001,2022-11-20_23h55.26.955,Info_measure_main_exp,2022.2.2,Win32,60.0528465,,,,,,,,,,,,,,,,,,,,,,,,,,,,,,7,2.5981,1,,,,,,,,,,,,0,131,5,5,2274,2166,absent_patch/patch0002274.jpg,absent_patch/patch0002166.jpg,,,,,,,,,,,,,,,,,,,0.033671605,0.128961316,1,0,0,response1disk,31,-0.007966078,0.01052507,1,0,0,center_square,0,30,30,78,1,,,,,,,,,,,,,,,,,,,,,,,
229989,001,2022-11-20_23h55.26.955,Info_measure_main_exp,2022.2.2,Win32,60.0528465,,,,,,,,,,,,,,,,,,masks/mask_004.jpg,,,,,,,,,,,,,,,,,,,,,,,,,,,,,,,,,,,,,,,,,,0,0,0,3,1,,,,,,,,,,,,,,,,,,,,,,,,,,,,,,,,,,,,,,,,,,,,,,
229989,001,2022-11-20_23h55.26.955,Info_measure_main_exp,2022.2.2,Win32,60.0528465,,,,,,,,,,,,,,,,,,masks/mask_003.jpg,,,,,,,,,,,,,,,,,,,,,,,,,,,,,,,,,,,,,,,,,,0,1,1,2,1,,,,,,,,,,,,,,,,,,,,,,,,,,,,,,,,,,,,,,,,,,,,,,
229989,001,2022-11-20_23h55.26.955,Info_measure_main_exp,2022.2.2,Win32,60.0528465,,,,,,,,,,,,,,,,,,masks/mask_002.jpg,,,,,,,,,,,,,,,,,,,,,,,,,,,,,,,,,,,,,,,,,,0,2,2,1,1,,,,,,,,,,,,,,,,,,,,,,,,,,,,,,,,,,,,,,,,,,,,,,
229989,001,2022-11-20_23h55.26.955,Info_measure_main_exp,2022.2.2,Win32,60.0528465,,,,,,,,,,,,,,,,,,masks/mask_005.jpg,,,,,,,,,,,,,,,,,,,,,,,,,,,,,,,,,,,,,,,,,,0,3,3,4,1,,,,,,,,,,,,,,,,,,,,,,,,,,,,,,,,,,,,,,,,,,,,,,
229989,001,2022-11-20_23h55.26.955,Info_measure_main_exp,2022.2.2,Win32,60.0528465,,,,,,,,,,,,,,,,,,masks/mask_001.jpg,,,,,,,,,,,,,,,,,,,,,,,,,,,,,,,,,,,,,,,,,,0,4,4,0,1,,,,,,,,,,,,,,,,,,,,,,,,,,,,,,,,,,,,,,,,,,,,,,
229989,001,2022-11-20_23h55.26.955,Info_measure_main_exp,2022.2.2,Win32,60.0528465,,,,,,,,,,,,,,,,,,masks/mask_005.jpg,,,,,,,,,,,,,,,,,,,,,,,,,,,,,,,,,,,,,,,,,,,,,,,0,0,0,4,1,,,,,,,,,,,,,,,,,,,,,,,,,,,,,,,,,,,,,,,,,
229989,001,2022-11-20_23h55.26.955,Info_measure_main_exp,2022.2.2,Win32,60.0528465,,,,,,,,,,,,,,,,,,masks/mask_002.jpg,,,,,,,,,,,,,,,,,,,,,,,,,,,,,,,,,,,,,,,,,,,,,,,0,1,1,1,1,,,,,,,,,,,,,,,,,,,,,,,,,,,,,,,,,,,,,,,,,
229989,001,2022-11-20_23h55.26.955,Info_measure_main_exp,2022.2.2,Win32,60.0528465,,,,,,,,,,,,,,,,,,masks/mask_001.jpg,,,,,,,,,,,,,,,,,,,,,,,,,,,,,,,,,,,,,,,,,,,,,,,0,2,2,0,1,,,,,,,,,,,,,,,,,,,,,,,,,,,,,,,,,,,,,,,,,
229989,001,2022-11-20_23h55.26.955,Info_measure_main_exp,2022.2.2,Win32,60.0528465,,,,,,,,,,,,,,,,,,masks/mask_003.jpg,,,,,,,,,,,,,,,,,,,,,,,,,,,,,,,,,,,,,,,,,,,,,,,0,3,3,2,1,,,,,,,,,,,,,,,,,,,,,,,,,,,,,,,,,,,,,,,,,
229989,001,2022-11-20_23h55.26.955,Info_measure_main_exp,2022.2.2,Win32,60.0528465,,,,,,,,,,,,,,,,,,masks/mask_004.jpg,,,,,,,,,,,,,,,,,,,,,,,,,,,,,,,,,,,,,,,,,,,,,,,0,4,4,3,1,,,,,,,,,,,,,,,,,,,,,,,,,,,,,,,,,,,,,,,,,
229989,001,2022-11-20_23h55.26.955,Info_measure_main_exp,2022.2.2,Win32,60.0528465,,,,,,,,,,,,,,,,,,,,,,,,,,,,,,7,0.6828,1,,,,,,,,,,,,0,131,5,5,1974,2250,absent_patch/patch0001974.jpg,absent_patch/patch0002250.jpg,,,,,,,,,,,,,,,,,,,0.049401494,0.098426964,1,0,0,response1disk,32,0.002212058,-0.01168171,1,0,0,center_square,0,31,31,55,1,,,,,,,,,,,,,,,,,,,,,,,
229989,001,2022-11-20_23h55.26.955,Info_measure_main_exp,2022.2.2,Win32,60.0528465,,,,,,,,,,,,,,,,,,masks/mask_005.jpg,,,,,,,,,,,,,,,,,,,,,,,,,,,,,,,,,,,,,,,,,,0,0,0,4,1,,,,,,,,,,,,,,,,,,,,,,,,,,,,,,,,,,,,,,,,,,,,,,
229989,001,2022-11-20_23h55.26.955,Info_measure_main_exp,2022.2.2,Win32,60.0528465,,,,,,,,,,,,,,,,,,masks/mask_004.jpg,,,,,,,,,,,,,,,,,,,,,,,,,,,,,,,,,,,,,,,,,,0,1,1,3,1,,,,,,,,,,,,,,,,,,,,,,,,,,,,,,,,,,,,,,,,,,,,,,
229989,001,2022-11-20_23h55.26.955,Info_measure_main_exp,2022.2.2,Win32,60.0528465,,,,,,,,,,,,,,,,,,masks/mask_001.jpg,,,,,,,,,,,,,,,,,,,,,,,,,,,,,,,,,,,,,,,,,,0,2,2,0,1,,,,,,,,,,,,,,,,,,,,,,,,,,,,,,,,,,,,,,,,,,,,,,
229989,001,2022-11-20_23h55.26.955,Info_measure_main_exp,2022.2.2,Win32,60.0528465,,,,,,,,,,,,,,,,,,masks/mask_003.jpg,,,,,,,,,,,,,,,,,,,,,,,,,,,,,,,,,,,,,,,,,,0,3,3,2,1,,,,,,,,,,,,,,,,,,,,,,,,,,,,,,,,,,,,,,,,,,,,,,
229989,001,2022-11-20_23h55.26.955,Info_measure_main_exp,2022.2.2,Win32,60.0528465,,,,,,,,,,,,,,,,,,masks/mask_002.jpg,,,,,,,,,,,,,,,,,,,,,,,,,,,,,,,,,,,,,,,,,,0,4,4,1,1,,,,,,,,,,,,,,,,,,,,,,,,,,,,,,,,,,,,,,,,,,,,,,
229989,001,2022-11-20_23h55.26.955,Info_measure_main_exp,2022.2.2,Win32,60.0528465,,,,,,,,,,,,,,,,,,masks/mask_004.jpg,,,,,,,,,,,,,,,,,,,,,,,,,,,,,,,,,,,,,,,,,,,,,,,0,0,0,3,1,,,,,,,,,,,,,,,,,,,,,,,,,,,,,,,,,,,,,,,,,
229989,001,2022-11-20_23h55.26.955,Info_measure_main_exp,2022.2.2,Win32,60.0528465,,,,,,,,,,,,,,,,,,masks/mask_002.jpg,,,,,,,,,,,,,,,,,,,,,,,,,,,,,,,,,,,,,,,,,,,,,,,0,1,1,1,1,,,,,,,,,,,,,,,,,,,,,,,,,,,,,,,,,,,,,,,,,
229989,001,2022-11-20_23h55.26.955,Info_measure_main_exp,2022.2.2,Win32,60.0528465,,,,,,,,,,,,,,,,,,masks/mask_001.jpg,,,,,,,,,,,,,,,,,,,,,,,,,,,,,,,,,,,,,,,,,,,,,,,0,2,2,0,1,,,,,,,,,,,,,,,,,,,,,,,,,,,,,,,,,,,,,,,,,
229989,001,2022-11-20_23h55.26.955,Info_measure_main_exp,2022.2.2,Win32,60.0528465,,,,,,,,,,,,,,,,,,masks/mask_003.jpg,,,,,,,,,,,,,,,,,,,,,,,,,,,,,,,,,,,,,,,,,,,,,,,0,3,3,2,1,,,,,,,,,,,,,,,,,,,,,,,,,,,,,,,,,,,,,,,,,
229989,001,2022-11-20_23h55.26.955,Info_measure_main_exp,2022.2.2,Win32,60.0528465,,,,,,,,,,,,,,,,,,masks/mask_005.jpg,,,,,,,,,,,,,,,,,,,,,,,,,,,,,,,,,,,,,,,,,,,,,,,0,4,4,4,1,,,,,,,,,,,,,,,,,,,,,,,,,,,,,,,,,,,,,,,,,
229989,001,2022-11-20_23h55.26.955,Info_measure_main_exp,2022.2.2,Win32,60.0528465,,,,,,,,,,,,,,,,,,,,,,,,,,,,,,6,0.583,1,,,,,,,,,,,,0,131,5,5,2190,2214,absent_patch/patch0002190.jpg,absent_patch/patch0002214.jpg,,,,,,,,,,,,,,,,,,,0.09844167,0.007749252,1,0,0,response1disk,33,-0.003339695,-0.008905949,1,0,0,center_square,0,32,32,35,1,,,,,,,,,,,,,,,,,,,,,,,
229989,001,2022-11-20_23h55.26.955,Info_measure_main_exp,2022.2.2,Win32,60.0528465,,,,,,,,,,,,,,,,,,masks/mask_001.jpg,,,,,,,,,,,,,,,,,,,,,,,,,,,,,,,,,,,,,,,,,,0,0,0,0,1,,,,,,,,,,,,,,,,,,,,,,,,,,,,,,,,,,,,,,,,,,,,,,
229989,001,2022-11-20_23h55.26.955,Info_measure_main_exp,2022.2.2,Win32,60.0528465,,,,,,,,,,,,,,,,,,masks/mask_004.jpg,,,,,,,,,,,,,,,,,,,,,,,,,,,,,,,,,,,,,,,,,,0,1,1,3,1,,,,,,,,,,,,,,,,,,,,,,,,,,,,,,,,,,,,,,,,,,,,,,
229989,001,2022-11-20_23h55.26.955,Info_measure_main_exp,2022.2.2,Win32,60.0528465,,,,,,,,,,,,,,,,,,masks/mask_002.jpg,,,,,,,,,,,,,,,,,,,,,,,,,,,,,,,,,,,,,,,,,,0,2,2,1,1,,,,,,,,,,,,,,,,,,,,,,,,,,,,,,,,,,,,,,,,,,,,,,
229989,001,2022-11-20_23h55.26.955,Info_measure_main_exp,2022.2.2,Win32,60.0528465,,,,,,,,,,,,,,,,,,masks/mask_003.jpg,,,,,,,,,,,,,,,,,,,,,,,,,,,,,,,,,,,,,,,,,,0,3,3,2,1,,,,,,,,,,,,,,,,,,,,,,,,,,,,,,,,,,,,,,,,,,,,,,
229989,001,2022-11-20_23h55.26.955,Info_measure_main_exp,2022.2.2,Win32,60.0528465,,,,,,,,,,,,,,,,,,masks/mask_005.jpg,,,,,,,,,,,,,,,,,,,,,,,,,,,,,,,,,,,,,,,,,,0,4,4,4,1,,,,,,,,,,,,,,,,,,,,,,,,,,,,,,,,,,,,,,,,,,,,,,
229989,001,2022-11-20_23h55.26.955,Info_measure_main_exp,2022.2.2,Win32,60.0528465,,,,,,,,,,,,,,,,,,masks/mask_005.jpg,,,,,,,,,,,,,,,,,,,,,,,,,,,,,,,,,,,,,,,,,,,,,,,0,0,0,4,1,,,,,,,,,,,,,,,,,,,,,,,,,,,,,,,,,,,,,,,,,
229989,001,2022-11-20_23h55.26.955,Info_measure_main_exp,2022.2.2,Win32,60.0528465,,,,,,,,,,,,,,,,,,masks/mask_002.jpg,,,,,,,,,,,,,,,,,,,,,,,,,,,,,,,,,,,,,,,,,,,,,,,0,1,1,1,1,,,,,,,,,,,,,,,,,,,,,,,,,,,,,,,,,,,,,,,,,
229989,001,2022-11-20_23h55.26.955,Info_measure_main_exp,2022.2.2,Win32,60.0528465,,,,,,,,,,,,,,,,,,masks/mask_001.jpg,,,,,,,,,,,,,,,,,,,,,,,,,,,,,,,,,,,,,,,,,,,,,,,0,2,2,0,1,,,,,,,,,,,,,,,,,,,,,,,,,,,,,,,,,,,,,,,,,
229989,001,2022-11-20_23h55.26.955,Info_measure_main_exp,2022.2.2,Win32,60.0528465,,,,,,,,,,,,,,,,,,masks/mask_004.jpg,,,,,,,,,,,,,,,,,,,,,,,,,,,,,,,,,,,,,,,,,,,,,,,0,3,3,3,1,,,,,,,,,,,,,,,,,,,,,,,,,,,,,,,,,,,,,,,,,
229989,001,2022-11-20_23h55.26.955,Info_measure_main_exp,2022.2.2,Win32,60.0528465,,,,,,,,,,,,,,,,,,masks/mask_003.jpg,,,,,,,,,,,,,,,,,,,,,,,,,,,,,,,,,,,,,,,,,,,,,,,0,4,4,2,1,,,,,,,,,,,,,,,,,,,,,,,,,,,,,,,,,,,,,,,,,
229989,001,2022-11-20_23h55.26.955,Info_measure_main_exp,2022.2.2,Win32,60.0528465,,,,,,,,,,,,,,,,,,,,,,,,,,,,,,7,0.6162,1,,,,,,,,,,,,0,131,5,5,2154,1950,absent_patch/patch0002154.jpg,absent_patch/patch0001950.jpg,,,,,,,,,,,,,,,,,,,0.054953248,0.124334932,1,0,0,response1disk,34,0.008689007,0.01052507,1,0,0,center_square,0,33,33,96,1,,,,,,,,,,,,,,,,,,,,,,,
229989,001,2022-11-20_23h55.26.955,Info_measure_main_exp,2022.2.2,Win32,60.0528465,,,,,,,,,,,,,,,,,,masks/mask_005.jpg,,,,,,,,,,,,,,,,,,,,,,,,,,,,,,,,,,,,,,,,,,0,0,0,4,1,,,,,,,,,,,,,,,,,,,,,,,,,,,,,,,,,,,,,,,,,,,,,,
229989,001,2022-11-20_23h55.26.955,Info_measure_main_exp,2022.2.2,Win32,60.0528465,,,,,,,,,,,,,,,,,,masks/mask_004.jpg,,,,,,,,,,,,,,,,,,,,,,,,,,,,,,,,,,,,,,,,,,0,1,1,3,1,,,,,,,,,,,,,,,,,,,,,,,,,,,,,,,,,,,,,,,,,,,,,,
229989,001,2022-11-20_23h55.26.955,Info_measure_main_exp,2022.2.2,Win32,60.0528465,,,,,,,,,,,,,,,,,,masks/mask_003.jpg,,,,,,,,,,,,,,,,,,,,,,,,,,,,,,,,,,,,,,,,,,0,2,2,2,1,,,,,,,,,,,,,,,,,,,,,,,,,,,,,,,,,,,,,,,,,,,,,,
229989,001,2022-11-20_23h55.26.955,Info_measure_main_exp,2022.2.2,Win32,60.0528465,,,,,,,,,,,,,,,,,,masks/mask_001.jpg,,,,,,,,,,,,,,,,,,,,,,,,,,,,,,,,,,,,,,,,,,0,3,3,0,1,,,,,,,,,,,,,,,,,,,,,,,,,,,,,,,,,,,,,,,,,,,,,,
229989,001,2022-11-20_23h55.26.955,Info_measure_main_exp,2022.2.2,Win32,60.0528465,,,,,,,,,,,,,,,,,,masks/mask_002.jpg,,,,,,,,,,,,,,,,,,,,,,,,,,,,,,,,,,,,,,,,,,0,4,4,1,1,,,,,,,,,,,,,,,,,,,,,,,,,,,,,,,,,,,,,,,,,,,,,,
229989,001,2022-11-20_23h55.26.955,Info_measure_main_exp,2022.2.2,Win32,60.0528465,,,,,,,,,,,,,,,,,,masks/mask_005.jpg,,,,,,,,,,,,,,,,,,,,,,,,,,,,,,,,,,,,,,,,,,,,,,,0,0,0,4,1,,,,,,,,,,,,,,,,,,,,,,,,,,,,,,,,,,,,,,,,,
229989,001,2022-11-20_23h55.26.955,Info_measure_main_exp,2022.2.2,Win32,60.0528465,,,,,,,,,,,,,,,,,,masks/mask_002.jpg,,,,,,,,,,,,,,,,,,,,,,,,,,,,,,,,,,,,,,,,,,,,,,,0,1,1,1,1,,,,,,,,,,,,,,,,,,,,,,,,,,,,,,,,,,,,,,,,,
229989,001,2022-11-20_23h55.26.955,Info_measure_main_exp,2022.2.2,Win32,60.0528465,,,,,,,,,,,,,,,,,,masks/mask_004.jpg,,,,,,,,,,,,,,,,,,,,,,,,,,,,,,,,,,,,,,,,,,,,,,,0,2,2,3,1,,,,,,,,,,,,,,,,,,,,,,,,,,,,,,,,,,,,,,,,,
229989,001,2022-11-20_23h55.26.955,Info_measure_main_exp,2022.2.2,Win32,60.0528465,,,,,,,,,,,,,,,,,,masks/mask_003.jpg,,,,,,,,,,,,,,,,,,,,,,,,,,,,,,,,,,,,,,,,,,,,,,,0,3,3,2,1,,,,,,,,,,,,,,,,,,,,,,,,,,,,,,,,,,,,,,,,,
229989,001,2022-11-20_23h55.26.955,Info_measure_main_exp,2022.2.2,Win32,60.0528465,,,,,,,,,,,,,,,,,,masks/mask_001.jpg,,,,,,,,,,,,,,,,,,,,,,,,,,,,,,,,,,,,,,,,,,,,,,,0,4,4,0,1,,,,,,,,,,,,,,,,,,,,,,,,,,,,,,,,,,,,,,,,,
229989,001,2022-11-20_23h55.26.955,Info_measure_main_exp,2022.2.2,Win32,60.0528465,,,,,,,,,,,,,,,,,,,,,,,,,,,,,,7,0.5328,1,,,,,,,,,,,,0,131,5,5,2082,2178,absent_patch/patch0002082.jpg,absent_patch/patch0002178.jpg,,,,,,,,,,,,,,,,,,,0.058654261,0.111380977,1,0,0,response1disk,35,-0.00148913,-0.007055385,1,0,0,center_square,0,34,34,2,1,,,,,,,,,,,,,,,,,,,,,,,
229989,001,2022-11-20_23h55.26.955,Info_measure_main_exp,2022.2.2,Win32,60.0528465,,,,,,,,,,,,,,,,,,masks/mask_003.jpg,,,,,,,,,,,,,,,,,,,,,,,,,,,,,,,,,,,,,,,,,,0,0,0,2,1,,,,,,,,,,,,,,,,,,,,,,,,,,,,,,,,,,,,,,,,,,,,,,
