participant,session,date,expName,psychopyVersion,OS,frameRate,space_press_continue.keys,space_press_continue.rt,space_press_continue_2.keys,space_press_continue_2.rt,space_press_continue_3.keys,space_press_continue_3.rt,space_press_continue_4.keys,space_press_continue_4.rt,space_press_continue_5.keys,space_press_continue_5.rt,space_press_continue_6.keys,space_press_continue_6.rt,prac_mask_loop_1.thisRepN,prac_mask_loop_1.thisTrialN,prac_mask_loop_1.thisN,prac_mask_loop_1.thisIndex,prac_mask_loop_1.ran,mask_name,prac_mask_loop_2.thisRepN,prac_mask_loop_2.thisTrialN,prac_mask_loop_2.thisN,prac_mask_loop_2.thisIndex,prac_mask_loop_2.ran,mouse_2.x,mouse_2.y,mouse_2.leftButton,mouse_2.midButton,mouse_2.rightButton,mouse_2.clicked_name,similarity,response_time,Pass,mouse_12.x,mouse_12.y,mouse_12.leftButton,mouse_12.midButton,mouse_12.rightButton,mouse_12.clicked_name,prac_loop.thisRepN,prac_loop.thisTrialN,prac_loop.thisN,prac_loop.thisIndex,prac_loop.ran,Pair_type,Image_num,Patch_1_loc,Patch_2_loc,Patch_1_info,Patch_2_info,Patch_1_name,Patch_2_name,mouse_1.x,mouse_1.y,mouse_1.leftButton,mouse_1.midButton,mouse_1.rightButton,mouse_1.time,mouse_1.clicked_name,space_press_continue_7.keys,space_press_continue_7.rt,mask_loop.thisRepN,mask_loop.thisTrialN,mask_loop.thisN,mask_loop.thisIndex,mask_loop.ran,mask_loop_2.thisRepN,mask_loop_2.thisTrialN,mask_loop_2.thisN,mask_loop_2.thisIndex,mask_loop_2.ran,mouse.x,mouse.y,mouse.leftButton,mouse.midButton,mouse.rightButton,mouse.clicked_name,trialNumber,mouse_11.x,mouse_11.y,mouse_11.leftButton,mouse_11.midButton,mouse_11.rightButton,mouse_11.clicked_name,first_pass_loop.thisRepN,first_pass_loop.thisTrialN,first_pass_loop.thisN,first_pass_loop.thisIndex,first_pass_loop.ran,mask_loop_3.thisRepN,mask_loop_3.thisTrialN,mask_loop_3.thisN,mask_loop_3.thisIndex,mask_loop_3.ran,mask_loop_4.thisRepN,mask_loop_4.thisTrialN,mask_loop_4.thisN,mask_loop_4.thisIndex,mask_loop_4.ran,mouse_3.x,mouse_3.y,mouse_3.leftButton,mouse_3.midButton,mouse_3.rightButton,mouse_3.clicked_name,double_pass_loop.thisRepN,double_pass_loop.thisTrialN,double_pass_loop.thisN,double_pass_loop.thisIndex,double_pass_loop.ran,space_exit.keys,space_exit.rt
231344,001,2022-11-21_01h55.57.062,Info_measure_main_exp,2022.2.2,Win32,29.9940012,,,,,,,,,,,,,,,,,,,,,,,,,,,,,,,,,,,,,,,,,,,,,,,,,,,,,,,,,,,,,,,,,,,,,,,,,,,,,,,,,,,,,,,,,,,,,,,,,,,,,,,,,,,,,,,
231344,001,2022-11-21_01h55.57.062,Info_measure_main_exp,2022.2.2,Win32,29.9940012,,,,,,,,,,,,,,,,,,,,,,,,,,,,,,,,,,,,,,,,,,,,,,,,,,,,,,,,,,,,,,,,,,,,,,,,,,,,,,,,,,,,,,,,,,,,,,,,,,,,,,,,,,,,,,,
231344,001,2022-11-21_01h55.57.062,Info_measure_main_exp,2022.2.2,Win32,29.9940012,space,27.717,,,,,,,,,,,,,,,,,,,,,,,,,,,,,,,,,,,,,,,,,,,,,,,,,,,,,,,,,,,,,,,,,,,,,,,,,,,,,,,,,,,,,,,,,,,,,,,,,,,,,,,,,,,,,
231344,001,2022-11-21_01h55.57.062,Info_measure_main_exp,2022.2.2,Win32,29.9940012,,,space,15.081,,,,,,,,,,,,,,,,,,,,,,,,,,,,,,,,,,,,,,,,,,,,,,,,,,,,,,,,,,,,,,,,,,,,,,,,,,,,,,,,,,,,,,,,,,,,,,,,,,,,,,,,,,,
231344,001,2022-11-21_01h55.57.062,Info_measure_main_exp,2022.2.2,Win32,29.9940012,,,,,space,7.201,,,,,,,,,,,,,,,,,,,,,,,,,,,,,,,,,,,,,,,,,,,,,,,,,,,,,,,,,,,,,,,,,,,,,,,,,,,,,,,,,,,,,,,,,,,,,,,,,,,,,,,,,
231344,001,2022-11-21_01h55.57.062,Info_measure_main_exp,2022.2.2,Win32,29.9940012,,,,,,,space,173.886,,,,,,,,,,,,,,,,,,,,,,,,,,,,,,,,,,,,,,,,,,,,,,,,,,,,,,,,,,,,,,,,,,,,,,,,,,,,,,,,,,,,,,,,,,,,,,,,,,,,,,,
231344,001,2022-11-21_01h55.57.062,Info_measure_main_exp,2022.2.2,Win32,29.9940012,,,,,,,,,space,10.101,,,,,,,,,,,,,,,,,,,,,,,,,,,,,,,,,,,,,,,,,,,,,,,,,,,,,,,,,,,,,,,,,,,,,,,,,,,,,,,,,,,,,,,,,,,,,,,,,,,,,
231344,001,2022-11-21_01h55.57.062,Info_measure_main_exp,2022.2.2,Win32,29.9940012,,,,,,,,,,,space,43.293,,,,,,,,,,,,,,,,,,,,,,,,,,,,,,,,,,,,,,,,,,,,,,,,,,,,,,,,,,,,,,,,,,,,,,,,,,,,,,,,,,,,,,,,,,,,,,,,,,,
231344,001,2022-11-21_01h55.57.062,Info_measure_main_exp,2022.2.2,Win32,29.9940012,,,,,,,,,,,,,0,0,0,0,1,masks/mask_001.jpg,,,,,,,,,,,,,,,,,,,,,,,,,,,,,,,,,,,,,,,,,,,,,,,,,,,,,,,,,,,,,,,,,,,,,,,,,,,,,,,,,,,,,,,,,,,,,
231344,001,2022-11-21_01h55.57.062,Info_measure_main_exp,2022.2.2,Win32,29.9940012,,,,,,,,,,,,,0,1,1,2,1,masks/mask_003.jpg,,,,,,,,,,,,,,,,,,,,,,,,,,,,,,,,,,,,,,,,,,,,,,,,,,,,,,,,,,,,,,,,,,,,,,,,,,,,,,,,,,,,,,,,,,,,,
231344,001,2022-11-21_01h55.57.062,Info_measure_main_exp,2022.2.2,Win32,29.9940012,,,,,,,,,,,,,0,2,2,4,1,masks/mask_005.jpg,,,,,,,,,,,,,,,,,,,,,,,,,,,,,,,,,,,,,,,,,,,,,,,,,,,,,,,,,,,,,,,,,,,,,,,,,,,,,,,,,,,,,,,,,,,,,
231344,001,2022-11-21_01h55.57.062,Info_measure_main_exp,2022.2.2,Win32,29.9940012,,,,,,,,,,,,,0,3,3,3,1,masks/mask_004.jpg,,,,,,,,,,,,,,,,,,,,,,,,,,,,,,,,,,,,,,,,,,,,,,,,,,,,,,,,,,,,,,,,,,,,,,,,,,,,,,,,,,,,,,,,,,,,,
231344,001,2022-11-21_01h55.57.062,Info_measure_main_exp,2022.2.2,Win32,29.9940012,,,,,,,,,,,,,0,4,4,1,1,masks/mask_002.jpg,,,,,,,,,,,,,,,,,,,,,,,,,,,,,,,,,,,,,,,,,,,,,,,,,,,,,,,,,,,,,,,,,,,,,,,,,,,,,,,,,,,,,,,,,,,,,
231344,001,2022-11-21_01h55.57.062,Info_measure_main_exp,2022.2.2,Win32,29.9940012,,,,,,,,,,,,,,,,,,masks/mask_001.jpg,0,0,0,0,1,,,,,,,,,,,,,,,,,,,,,,,,,,,,,,,,,,,,,,,,,,,,,,,,,,,,,,,,,,,,,,,,,,,,,,,,,,,,,,,,,,,,,,,,
231344,001,2022-11-21_01h55.57.062,Info_measure_main_exp,2022.2.2,Win32,29.9940012,,,,,,,,,,,,,,,,,,masks/mask_003.jpg,0,1,1,2,1,,,,,,,,,,,,,,,,,,,,,,,,,,,,,,,,,,,,,,,,,,,,,,,,,,,,,,,,,,,,,,,,,,,,,,,,,,,,,,,,,,,,,,,,
231344,001,2022-11-21_01h55.57.062,Info_measure_main_exp,2022.2.2,Win32,29.9940012,,,,,,,,,,,,,,,,,,masks/mask_004.jpg,0,2,2,3,1,,,,,,,,,,,,,,,,,,,,,,,,,,,,,,,,,,,,,,,,,,,,,,,,,,,,,,,,,,,,,,,,,,,,,,,,,,,,,,,,,,,,,,,,
231344,001,2022-11-21_01h55.57.062,Info_measure_main_exp,2022.2.2,Win32,29.9940012,,,,,,,,,,,,,,,,,,masks/mask_002.jpg,0,3,3,1,1,,,,,,,,,,,,,,,,,,,,,,,,,,,,,,,,,,,,,,,,,,,,,,,,,,,,,,,,,,,,,,,,,,,,,,,,,,,,,,,,,,,,,,,,
231344,001,2022-11-21_01h55.57.062,Info_measure_main_exp,2022.2.2,Win32,29.9940012,,,,,,,,,,,,,,,,,,masks/mask_005.jpg,0,4,4,4,1,,,,,,,,,,,,,,,,,,,,,,,,,,,,,,,,,,,,,,,,,,,,,,,,,,,,,,,,,,,,,,,,,,,,,,,,,,,,,,,,,,,,,,,,
231344,001,2022-11-21_01h55.57.062,Info_measure_main_exp,2022.2.2,Win32,29.9940012,,,,,,,,,,,,,,,,,,,,,,,,0.00390625,0.001302083,1,0,0,response1disk,6,288.914,1,-0.001302083,0.002604167,1,0,0,center_square,0,0,0,0,1,0,131,5,5,2370,2406,prac_patch/patch0002370.jpg,prac_patch/patch0002406.jpg,,,,,,,,,,,,,,,,,,,,,,,,,,,,,,,,,,,,,,,,,,,,,,,,,,,,,,,,,,,,
231344,001,2022-11-21_01h55.57.062,Info_measure_main_exp,2022.2.2,Win32,29.9940012,,,,,,,,,,,,,0,0,0,1,1,masks/mask_002.jpg,,,,,,,,,,,,,,,,,,,,,,,,,,,,,,,,,,,,,,,,,,,,,,,,,,,,,,,,,,,,,,,,,,,,,,,,,,,,,,,,,,,,,,,,,,,,,
231344,001,2022-11-21_01h55.57.062,Info_measure_main_exp,2022.2.2,Win32,29.9940012,,,,,,,,,,,,,0,1,1,3,1,masks/mask_004.jpg,,,,,,,,,,,,,,,,,,,,,,,,,,,,,,,,,,,,,,,,,,,,,,,,,,,,,,,,,,,,,,,,,,,,,,,,,,,,,,,,,,,,,,,,,,,,,
231344,001,2022-11-21_01h55.57.062,Info_measure_main_exp,2022.2.2,Win32,29.9940012,,,,,,,,,,,,,0,2,2,2,1,masks/mask_003.jpg,,,,,,,,,,,,,,,,,,,,,,,,,,,,,,,,,,,,,,,,,,,,,,,,,,,,,,,,,,,,,,,,,,,,,,,,,,,,,,,,,,,,,,,,,,,,,
231344,001,2022-11-21_01h55.57.062,Info_measure_main_exp,2022.2.2,Win32,29.9940012,,,,,,,,,,,,,0,3,3,4,1,masks/mask_005.jpg,,,,,,,,,,,,,,,,,,,,,,,,,,,,,,,,,,,,,,,,,,,,,,,,,,,,,,,,,,,,,,,,,,,,,,,,,,,,,,,,,,,,,,,,,,,,,
231344,001,2022-11-21_01h55.57.062,Info_measure_main_exp,2022.2.2,Win32,29.9940012,,,,,,,,,,,,,0,4,4,0,1,masks/mask_001.jpg,,,,,,,,,,,,,,,,,,,,,,,,,,,,,,,,,,,,,,,,,,,,,,,,,,,,,,,,,,,,,,,,,,,,,,,,,,,,,,,,,,,,,,,,,,,,,
231344,001,2022-11-21_01h55.57.062,Info_measure_main_exp,2022.2.2,Win32,29.9940012,,,,,,,,,,,,,,,,,,masks/mask_002.jpg,0,0,0,1,1,,,,,,,,,,,,,,,,,,,,,,,,,,,,,,,,,,,,,,,,,,,,,,,,,,,,,,,,,,,,,,,,,,,,,,,,,,,,,,,,,,,,,,,,
231344,001,2022-11-21_01h55.57.062,Info_measure_main_exp,2022.2.2,Win32,29.9940012,,,,,,,,,,,,,,,,,,masks/mask_004.jpg,0,1,1,3,1,,,,,,,,,,,,,,,,,,,,,,,,,,,,,,,,,,,,,,,,,,,,,,,,,,,,,,,,,,,,,,,,,,,,,,,,,,,,,,,,,,,,,,,,
231344,001,2022-11-21_01h55.57.062,Info_measure_main_exp,2022.2.2,Win32,29.9940012,,,,,,,,,,,,,,,,,,masks/mask_005.jpg,0,2,2,4,1,,,,,,,,,,,,,,,,,,,,,,,,,,,,,,,,,,,,,,,,,,,,,,,,,,,,,,,,,,,,,,,,,,,,,,,,,,,,,,,,,,,,,,,,
231344,001,2022-11-21_01h55.57.062,Info_measure_main_exp,2022.2.2,Win32,29.9940012,,,,,,,,,,,,,,,,,,masks/mask_003.jpg,0,3,3,2,1,,,,,,,,,,,,,,,,,,,,,,,,,,,,,,,,,,,,,,,,,,,,,,,,,,,,,,,,,,,,,,,,,,,,,,,,,,,,,,,,,,,,,,,,
231344,001,2022-11-21_01h55.57.062,Info_measure_main_exp,2022.2.2,Win32,29.9940012,,,,,,,,,,,,,,,,,,masks/mask_001.jpg,0,4,4,0,1,,,,,,,,,,,,,,,,,,,,,,,,,,,,,,,,,,,,,,,,,,,,,,,,,,,,,,,,,,,,,,,,,,,,,,,,,,,,,,,,,,,,,,,,
231344,001,2022-11-21_01h55.57.062,Info_measure_main_exp,2022.2.2,Win32,29.9940012,,,,,,,,,,,,,,,,,,,,,,,,-0.002604167,0.00390625,1,0,0,response7disk,0,306.027,1,0,-0.005208333,1,0,0,center_square,0,1,1,2,1,0,131,5,5,2526,2526,prac_patch/patch0002526.jpg,prac_patch/patch0002526.jpg,,,,,,,,,,,,,,,,,,,,,,,,,,,,,,,,,,,,,,,,,,,,,,,,,,,,,,,,,,,,
231344,001,2022-11-21_01h55.57.062,Info_measure_main_exp,2022.2.2,Win32,29.9940012,,,,,,,,,,,,,0,0,0,3,1,masks/mask_004.jpg,,,,,,,,,,,,,,,,,,,,,,,,,,,,,,,,,,,,,,,,,,,,,,,,,,,,,,,,,,,,,,,,,,,,,,,,,,,,,,,,,,,,,,,,,,,,,
231344,001,2022-11-21_01h55.57.062,Info_measure_main_exp,2022.2.2,Win32,29.9940012,,,,,,,,,,,,,0,1,1,1,1,masks/mask_002.jpg,,,,,,,,,,,,,,,,,,,,,,,,,,,,,,,,,,,,,,,,,,,,,,,,,,,,,,,,,,,,,,,,,,,,,,,,,,,,,,,,,,,,,,,,,,,,,
231344,001,2022-11-21_01h55.57.062,Info_measure_main_exp,2022.2.2,Win32,29.9940012,,,,,,,,,,,,,0,2,2,0,1,masks/mask_001.jpg,,,,,,,,,,,,,,,,,,,,,,,,,,,,,,,,,,,,,,,,,,,,,,,,,,,,,,,,,,,,,,,,,,,,,,,,,,,,,,,,,,,,,,,,,,,,,
231344,001,2022-11-21_01h55.57.062,Info_measure_main_exp,2022.2.2,Win32,29.9940012,,,,,,,,,,,,,0,3,3,4,1,masks/mask_005.jpg,,,,,,,,,,,,,,,,,,,,,,,,,,,,,,,,,,,,,,,,,,,,,,,,,,,,,,,,,,,,,,,,,,,,,,,,,,,,,,,,,,,,,,,,,,,,,
231344,001,2022-11-21_01h55.57.062,Info_measure_main_exp,2022.2.2,Win32,29.9940012,,,,,,,,,,,,,0,4,4,2,1,masks/mask_003.jpg,,,,,,,,,,,,,,,,,,,,,,,,,,,,,,,,,,,,,,,,,,,,,,,,,,,,,,,,,,,,,,,,,,,,,,,,,,,,,,,,,,,,,,,,,,,,,
231344,001,2022-11-21_01h55.57.062,Info_measure_main_exp,2022.2.2,Win32,29.9940012,,,,,,,,,,,,,,,,,,masks/mask_005.jpg,0,0,0,4,1,,,,,,,,,,,,,,,,,,,,,,,,,,,,,,,,,,,,,,,,,,,,,,,,,,,,,,,,,,,,,,,,,,,,,,,,,,,,,,,,,,,,,,,,
231344,001,2022-11-21_01h55.57.062,Info_measure_main_exp,2022.2.2,Win32,29.9940012,,,,,,,,,,,,,,,,,,masks/mask_004.jpg,0,1,1,3,1,,,,,,,,,,,,,,,,,,,,,,,,,,,,,,,,,,,,,,,,,,,,,,,,,,,,,,,,,,,,,,,,,,,,,,,,,,,,,,,,,,,,,,,,
231344,001,2022-11-21_01h55.57.062,Info_measure_main_exp,2022.2.2,Win32,29.9940012,,,,,,,,,,,,,,,,,,masks/mask_002.jpg,0,2,2,1,1,,,,,,,,,,,,,,,,,,,,,,,,,,,,,,,,,,,,,,,,,,,,,,,,,,,,,,,,,,,,,,,,,,,,,,,,,,,,,,,,,,,,,,,,
231344,001,2022-11-21_01h55.57.062,Info_measure_main_exp,2022.2.2,Win32,29.9940012,,,,,,,,,,,,,,,,,,masks/mask_003.jpg,0,3,3,2,1,,,,,,,,,,,,,,,,,,,,,,,,,,,,,,,,,,,,,,,,,,,,,,,,,,,,,,,,,,,,,,,,,,,,,,,,,,,,,,,,,,,,,,,,
231344,001,2022-11-21_01h55.57.062,Info_measure_main_exp,2022.2.2,Win32,29.9940012,,,,,,,,,,,,,,,,,,masks/mask_001.jpg,0,4,4,0,1,,,,,,,,,,,,,,,,,,,,,,,,,,,,,,,,,,,,,,,,,,,,,,,,,,,,,,,,,,,,,,,,,,,,,,,,,,,,,,,,,,,,,,,,
231344,001,2022-11-21_01h55.57.062,Info_measure_main_exp,2022.2.2,Win32,29.9940012,,,,,,,,,,,,,,,,,,,,,,,,-0.024739583,0.00390625,1,0,0,response7disk,1,318.333,1,-0.006510417,0,1,0,0,center_square,0,2,2,1,1,0,131,5,5,2514,2490,prac_patch/patch0002514.jpg,prac_patch/patch0002490.jpg,,,,,,,,,,,,,,,,,,,,,,,,,,,,,,,,,,,,,,,,,,,,,,,,,,,,,,,,,,,,
231344,001,2022-11-21_01h55.57.062,Info_measure_main_exp,2022.2.2,Win32,29.9940012,,,,,,,,,,,,,,,,,,,,,,,,,,,,,,,,,,,,,,,,,,,,,,,,,,,,,,,,,,,space,4.018,,,,,,,,,,,,,,,,,,,,,,,,,,,,,,,,,,,,,,,,,,,,,,,,,,,
231344,001,2022-11-21_01h55.57.062,Info_measure_main_exp,2022.2.2,Win32,29.9940012,,,,,,,,,,,,,,,,,,masks/mask_001.jpg,,,,,,,,,,,,,,,,,,,,,,,,,,,,,,,,,,,,,,,,,,,0,0,0,0,1,,,,,,,,,,,,,,,,,,,,,,,,,,,,,,,,,,,,,,,,,,,,,,
231344,001,2022-11-21_01h55.57.062,Info_measure_main_exp,2022.2.2,Win32,29.9940012,,,,,,,,,,,,,,,,,,masks/mask_002.jpg,,,,,,,,,,,,,,,,,,,,,,,,,,,,,,,,,,,,,,,,,,,0,1,1,1,1,,,,,,,,,,,,,,,,,,,,,,,,,,,,,,,,,,,,,,,,,,,,,,
231344,001,2022-11-21_01h55.57.062,Info_measure_main_exp,2022.2.2,Win32,29.9940012,,,,,,,,,,,,,,,,,,masks/mask_004.jpg,,,,,,,,,,,,,,,,,,,,,,,,,,,,,,,,,,,,,,,,,,,0,2,2,3,1,,,,,,,,,,,,,,,,,,,,,,,,,,,,,,,,,,,,,,,,,,,,,,
231344,001,2022-11-21_01h55.57.062,Info_measure_main_exp,2022.2.2,Win32,29.9940012,,,,,,,,,,,,,,,,,,masks/mask_003.jpg,,,,,,,,,,,,,,,,,,,,,,,,,,,,,,,,,,,,,,,,,,,0,3,3,2,1,,,,,,,,,,,,,,,,,,,,,,,,,,,,,,,,,,,,,,,,,,,,,,
231344,001,2022-11-21_01h55.57.062,Info_measure_main_exp,2022.2.2,Win32,29.9940012,,,,,,,,,,,,,,,,,,masks/mask_005.jpg,,,,,,,,,,,,,,,,,,,,,,,,,,,,,,,,,,,,,,,,,,,0,4,4,4,1,,,,,,,,,,,,,,,,,,,,,,,,,,,,,,,,,,,,,,,,,,,,,,
231344,001,2022-11-21_01h55.57.062,Info_measure_main_exp,2022.2.2,Win32,29.9940012,,,,,,,,,,,,,,,,,,masks/mask_001.jpg,,,,,,,,,,,,,,,,,,,,,,,,,,,,,,,,,,,,,,,,,,,,,,,,0,0,0,0,1,,,,,,,,,,,,,,,,,,,,,,,,,,,,,,,,,,,,,,,,,
231344,001,2022-11-21_01h55.57.062,Info_measure_main_exp,2022.2.2,Win32,29.9940012,,,,,,,,,,,,,,,,,,masks/mask_002.jpg,,,,,,,,,,,,,,,,,,,,,,,,,,,,,,,,,,,,,,,,,,,,,,,,0,1,1,1,1,,,,,,,,,,,,,,,,,,,,,,,,,,,,,,,,,,,,,,,,,
231344,001,2022-11-21_01h55.57.062,Info_measure_main_exp,2022.2.2,Win32,29.9940012,,,,,,,,,,,,,,,,,,masks/mask_003.jpg,,,,,,,,,,,,,,,,,,,,,,,,,,,,,,,,,,,,,,,,,,,,,,,,0,2,2,2,1,,,,,,,,,,,,,,,,,,,,,,,,,,,,,,,,,,,,,,,,,
231344,001,2022-11-21_01h55.57.062,Info_measure_main_exp,2022.2.2,Win32,29.9940012,,,,,,,,,,,,,,,,,,masks/mask_005.jpg,,,,,,,,,,,,,,,,,,,,,,,,,,,,,,,,,,,,,,,,,,,,,,,,0,3,3,4,1,,,,,,,,,,,,,,,,,,,,,,,,,,,,,,,,,,,,,,,,,
231344,001,2022-11-21_01h55.57.062,Info_measure_main_exp,2022.2.2,Win32,29.9940012,,,,,,,,,,,,,,,,,,masks/mask_004.jpg,,,,,,,,,,,,,,,,,,,,,,,,,,,,,,,,,,,,,,,,,,,,,,,,0,4,4,3,1,,,,,,,,,,,,,,,,,,,,,,,,,,,,,,,,,,,,,,,,,
231344,001,2022-11-21_01h55.57.062,Info_measure_main_exp,2022.2.2,Win32,29.9940012,,,,,,,,,,,,,,,,,,,,,,,,,,,,,,5,2.733,1,,,,,,,,,,,,1,131,5,5,1,1974,present_patch/cong_131_5_a.jpg,absent_patch/patch0001974.jpg,,,,,,,,,,,,,,,,,,,,0.016927083,-0.006510417,1,0,0,response3disk,1,-0.00390625,-0.006510417,1,0,0,center_square,0,0,0,69,1,,,,,,,,,,,,,,,,,,,,,,,
231344,001,2022-11-21_01h55.57.062,Info_measure_main_exp,2022.2.2,Win32,29.9940012,,,,,,,,,,,,,,,,,,masks/mask_001.jpg,,,,,,,,,,,,,,,,,,,,,,,,,,,,,,,,,,,,,,,,,,,0,0,0,0,1,,,,,,,,,,,,,,,,,,,,,,,,,,,,,,,,,,,,,,,,,,,,,,
231344,001,2022-11-21_01h55.57.062,Info_measure_main_exp,2022.2.2,Win32,29.9940012,,,,,,,,,,,,,,,,,,masks/mask_005.jpg,,,,,,,,,,,,,,,,,,,,,,,,,,,,,,,,,,,,,,,,,,,0,1,1,4,1,,,,,,,,,,,,,,,,,,,,,,,,,,,,,,,,,,,,,,,,,,,,,,
231344,001,2022-11-21_01h55.57.062,Info_measure_main_exp,2022.2.2,Win32,29.9940012,,,,,,,,,,,,,,,,,,masks/mask_002.jpg,,,,,,,,,,,,,,,,,,,,,,,,,,,,,,,,,,,,,,,,,,,0,2,2,1,1,,,,,,,,,,,,,,,,,,,,,,,,,,,,,,,,,,,,,,,,,,,,,,
231344,001,2022-11-21_01h55.57.062,Info_measure_main_exp,2022.2.2,Win32,29.9940012,,,,,,,,,,,,,,,,,,masks/mask_004.jpg,,,,,,,,,,,,,,,,,,,,,,,,,,,,,,,,,,,,,,,,,,,0,3,3,3,1,,,,,,,,,,,,,,,,,,,,,,,,,,,,,,,,,,,,,,,,,,,,,,
231344,001,2022-11-21_01h55.57.062,Info_measure_main_exp,2022.2.2,Win32,29.9940012,,,,,,,,,,,,,,,,,,masks/mask_003.jpg,,,,,,,,,,,,,,,,,,,,,,,,,,,,,,,,,,,,,,,,,,,0,4,4,2,1,,,,,,,,,,,,,,,,,,,,,,,,,,,,,,,,,,,,,,,,,,,,,,
231344,001,2022-11-21_01h55.57.062,Info_measure_main_exp,2022.2.2,Win32,29.9940012,,,,,,,,,,,,,,,,,,masks/mask_003.jpg,,,,,,,,,,,,,,,,,,,,,,,,,,,,,,,,,,,,,,,,,,,,,,,,0,0,0,2,1,,,,,,,,,,,,,,,,,,,,,,,,,,,,,,,,,,,,,,,,,
231344,001,2022-11-21_01h55.57.062,Info_measure_main_exp,2022.2.2,Win32,29.9940012,,,,,,,,,,,,,,,,,,masks/mask_005.jpg,,,,,,,,,,,,,,,,,,,,,,,,,,,,,,,,,,,,,,,,,,,,,,,,0,1,1,4,1,,,,,,,,,,,,,,,,,,,,,,,,,,,,,,,,,,,,,,,,,
231344,001,2022-11-21_01h55.57.062,Info_measure_main_exp,2022.2.2,Win32,29.9940012,,,,,,,,,,,,,,,,,,masks/mask_002.jpg,,,,,,,,,,,,,,,,,,,,,,,,,,,,,,,,,,,,,,,,,,,,,,,,0,2,2,1,1,,,,,,,,,,,,,,,,,,,,,,,,,,,,,,,,,,,,,,,,,
231344,001,2022-11-21_01h55.57.062,Info_measure_main_exp,2022.2.2,Win32,29.9940012,,,,,,,,,,,,,,,,,,masks/mask_001.jpg,,,,,,,,,,,,,,,,,,,,,,,,,,,,,,,,,,,,,,,,,,,,,,,,0,3,3,0,1,,,,,,,,,,,,,,,,,,,,,,,,,,,,,,,,,,,,,,,,,
231344,001,2022-11-21_01h55.57.062,Info_measure_main_exp,2022.2.2,Win32,29.9940012,,,,,,,,,,,,,,,,,,masks/mask_004.jpg,,,,,,,,,,,,,,,,,,,,,,,,,,,,,,,,,,,,,,,,,,,,,,,,0,4,4,3,1,,,,,,,,,,,,,,,,,,,,,,,,,,,,,,,,,,,,,,,,,
231344,001,2022-11-21_01h55.57.062,Info_measure_main_exp,2022.2.2,Win32,29.9940012,,,,,,,,,,,,,,,,,,,,,,,,,,,,,,3,1.267,1,,,,,,,,,,,,0,131,5,5,2190,2250,absent_patch/patch0002190.jpg,absent_patch/patch0002250.jpg,,,,,,,,,,,,,,,,,,,,-0.01171875,-0.016927083,1,0,0,response5disk,2,-0.009114583,-0.005208333,1,0,0,center_square,0,1,1,93,1,,,,,,,,,,,,,,,,,,,,,,,
231344,001,2022-11-21_01h55.57.062,Info_measure_main_exp,2022.2.2,Win32,29.9940012,,,,,,,,,,,,,,,,,,masks/mask_003.jpg,,,,,,,,,,,,,,,,,,,,,,,,,,,,,,,,,,,,,,,,,,,0,0,0,2,1,,,,,,,,,,,,,,,,,,,,,,,,,,,,,,,,,,,,,,,,,,,,,,
231344,001,2022-11-21_01h55.57.062,Info_measure_main_exp,2022.2.2,Win32,29.9940012,,,,,,,,,,,,,,,,,,masks/mask_004.jpg,,,,,,,,,,,,,,,,,,,,,,,,,,,,,,,,,,,,,,,,,,,0,1,1,3,1,,,,,,,,,,,,,,,,,,,,,,,,,,,,,,,,,,,,,,,,,,,,,,
231344,001,2022-11-21_01h55.57.062,Info_measure_main_exp,2022.2.2,Win32,29.9940012,,,,,,,,,,,,,,,,,,masks/mask_002.jpg,,,,,,,,,,,,,,,,,,,,,,,,,,,,,,,,,,,,,,,,,,,0,2,2,1,1,,,,,,,,,,,,,,,,,,,,,,,,,,,,,,,,,,,,,,,,,,,,,,
231344,001,2022-11-21_01h55.57.062,Info_measure_main_exp,2022.2.2,Win32,29.9940012,,,,,,,,,,,,,,,,,,masks/mask_005.jpg,,,,,,,,,,,,,,,,,,,,,,,,,,,,,,,,,,,,,,,,,,,0,3,3,4,1,,,,,,,,,,,,,,,,,,,,,,,,,,,,,,,,,,,,,,,,,,,,,,
231344,001,2022-11-21_01h55.57.062,Info_measure_main_exp,2022.2.2,Win32,29.9940012,,,,,,,,,,,,,,,,,,masks/mask_001.jpg,,,,,,,,,,,,,,,,,,,,,,,,,,,,,,,,,,,,,,,,,,,0,4,4,0,1,,,,,,,,,,,,,,,,,,,,,,,,,,,,,,,,,,,,,,,,,,,,,,
231344,001,2022-11-21_01h55.57.062,Info_measure_main_exp,2022.2.2,Win32,29.9940012,,,,,,,,,,,,,,,,,,masks/mask_003.jpg,,,,,,,,,,,,,,,,,,,,,,,,,,,,,,,,,,,,,,,,,,,,,,,,0,0,0,2,1,,,,,,,,,,,,,,,,,,,,,,,,,,,,,,,,,,,,,,,,,
231344,001,2022-11-21_01h55.57.062,Info_measure_main_exp,2022.2.2,Win32,29.9940012,,,,,,,,,,,,,,,,,,masks/mask_004.jpg,,,,,,,,,,,,,,,,,,,,,,,,,,,,,,,,,,,,,,,,,,,,,,,,0,1,1,3,1,,,,,,,,,,,,,,,,,,,,,,,,,,,,,,,,,,,,,,,,,
231344,001,2022-11-21_01h55.57.062,Info_measure_main_exp,2022.2.2,Win32,29.9940012,,,,,,,,,,,,,,,,,,masks/mask_001.jpg,,,,,,,,,,,,,,,,,,,,,,,,,,,,,,,,,,,,,,,,,,,,,,,,0,2,2,0,1,,,,,,,,,,,,,,,,,,,,,,,,,,,,,,,,,,,,,,,,,
231344,001,2022-11-21_01h55.57.062,Info_measure_main_exp,2022.2.2,Win32,29.9940012,,,,,,,,,,,,,,,,,,masks/mask_002.jpg,,,,,,,,,,,,,,,,,,,,,,,,,,,,,,,,,,,,,,,,,,,,,,,,0,3,3,1,1,,,,,,,,,,,,,,,,,,,,,,,,,,,,,,,,,,,,,,,,,
231344,001,2022-11-21_01h55.57.062,Info_measure_main_exp,2022.2.2,Win32,29.9940012,,,,,,,,,,,,,,,,,,masks/mask_005.jpg,,,,,,,,,,,,,,,,,,,,,,,,,,,,,,,,,,,,,,,,,,,,,,,,0,4,4,4,1,,,,,,,,,,,,,,,,,,,,,,,,,,,,,,,,,,,,,,,,,
231344,001,2022-11-21_01h55.57.062,Info_measure_main_exp,2022.2.2,Win32,29.9940012,,,,,,,,,,,,,,,,,,,,,,,,,,,,,,4,1.966,1,,,,,,,,,,,,0,131,5,5,2178,2238,absent_patch/patch0002178.jpg,absent_patch/patch0002238.jpg,,,,,,,,,,,,,,,,,,,,0,-0.010416667,1,0,0,response3disk,3,0,-0.002604167,1,0,0,center_square,0,2,2,57,1,,,,,,,,,,,,,,,,,,,,,,,
231344,001,2022-11-21_01h55.57.062,Info_measure_main_exp,2022.2.2,Win32,29.9940012,,,,,,,,,,,,,,,,,,masks/mask_002.jpg,,,,,,,,,,,,,,,,,,,,,,,,,,,,,,,,,,,,,,,,,,,0,0,0,1,1,,,,,,,,,,,,,,,,,,,,,,,,,,,,,,,,,,,,,,,,,,,,,,
231344,001,2022-11-21_01h55.57.062,Info_measure_main_exp,2022.2.2,Win32,29.9940012,,,,,,,,,,,,,,,,,,masks/mask_004.jpg,,,,,,,,,,,,,,,,,,,,,,,,,,,,,,,,,,,,,,,,,,,0,1,1,3,1,,,,,,,,,,,,,,,,,,,,,,,,,,,,,,,,,,,,,,,,,,,,,,
231344,001,2022-11-21_01h55.57.062,Info_measure_main_exp,2022.2.2,Win32,29.9940012,,,,,,,,,,,,,,,,,,masks/mask_001.jpg,,,,,,,,,,,,,,,,,,,,,,,,,,,,,,,,,,,,,,,,,,,0,2,2,0,1,,,,,,,,,,,,,,,,,,,,,,,,,,,,,,,,,,,,,,,,,,,,,,
231344,001,2022-11-21_01h55.57.062,Info_measure_main_exp,2022.2.2,Win32,29.9940012,,,,,,,,,,,,,,,,,,masks/mask_003.jpg,,,,,,,,,,,,,,,,,,,,,,,,,,,,,,,,,,,,,,,,,,,0,3,3,2,1,,,,,,,,,,,,,,,,,,,,,,,,,,,,,,,,,,,,,,,,,,,,,,
231344,001,2022-11-21_01h55.57.062,Info_measure_main_exp,2022.2.2,Win32,29.9940012,,,,,,,,,,,,,,,,,,masks/mask_005.jpg,,,,,,,,,,,,,,,,,,,,,,,,,,,,,,,,,,,,,,,,,,,0,4,4,4,1,,,,,,,,,,,,,,,,,,,,,,,,,,,,,,,,,,,,,,,,,,,,,,
231344,001,2022-11-21_01h55.57.062,Info_measure_main_exp,2022.2.2,Win32,29.9940012,,,,,,,,,,,,,,,,,,masks/mask_004.jpg,,,,,,,,,,,,,,,,,,,,,,,,,,,,,,,,,,,,,,,,,,,,,,,,0,0,0,3,1,,,,,,,,,,,,,,,,,,,,,,,,,,,,,,,,,,,,,,,,,
231344,001,2022-11-21_01h55.57.062,Info_measure_main_exp,2022.2.2,Win32,29.9940012,,,,,,,,,,,,,,,,,,masks/mask_002.jpg,,,,,,,,,,,,,,,,,,,,,,,,,,,,,,,,,,,,,,,,,,,,,,,,0,1,1,1,1,,,,,,,,,,,,,,,,,,,,,,,,,,,,,,,,,,,,,,,,,
231344,001,2022-11-21_01h55.57.062,Info_measure_main_exp,2022.2.2,Win32,29.9940012,,,,,,,,,,,,,,,,,,masks/mask_001.jpg,,,,,,,,,,,,,,,,,,,,,,,,,,,,,,,,,,,,,,,,,,,,,,,,0,2,2,0,1,,,,,,,,,,,,,,,,,,,,,,,,,,,,,,,,,,,,,,,,,
231344,001,2022-11-21_01h55.57.062,Info_measure_main_exp,2022.2.2,Win32,29.9940012,,,,,,,,,,,,,,,,,,masks/mask_005.jpg,,,,,,,,,,,,,,,,,,,,,,,,,,,,,,,,,,,,,,,,,,,,,,,,0,3,3,4,1,,,,,,,,,,,,,,,,,,,,,,,,,,,,,,,,,,,,,,,,,
231344,001,2022-11-21_01h55.57.062,Info_measure_main_exp,2022.2.2,Win32,29.9940012,,,,,,,,,,,,,,,,,,masks/mask_003.jpg,,,,,,,,,,,,,,,,,,,,,,,,,,,,,,,,,,,,,,,,,,,,,,,,0,4,4,2,1,,,,,,,,,,,,,,,,,,,,,,,,,,,,,,,,,,,,,,,,,
231344,001,2022-11-21_01h55.57.062,Info_measure_main_exp,2022.2.2,Win32,29.9940012,,,,,,,,,,,,,,,,,,,,,,,,,,,,,,0,2.449,1,,,,,,,,,,,,0,131,5,5,1974,2298,absent_patch/patch0001974.jpg,absent_patch/patch0002298.jpg,,,,,,,,,,,,,,,,,,,,-0.001302083,0.009114583,1,0,0,response7disk,4,-0.001302083,0.009114583,1,0,0,center_square,0,3,3,6,1,,,,,,,,,,,,,,,,,,,,,,,
231344,001,2022-11-21_01h55.57.062,Info_measure_main_exp,2022.2.2,Win32,29.9940012,,,,,,,,,,,,,,,,,,masks/mask_004.jpg,,,,,,,,,,,,,,,,,,,,,,,,,,,,,,,,,,,,,,,,,,,0,0,0,3,1,,,,,,,,,,,,,,,,,,,,,,,,,,,,,,,,,,,,,,,,,,,,,,
231344,001,2022-11-21_01h55.57.062,Info_measure_main_exp,2022.2.2,Win32,29.9940012,,,,,,,,,,,,,,,,,,masks/mask_002.jpg,,,,,,,,,,,,,,,,,,,,,,,,,,,,,,,,,,,,,,,,,,,0,1,1,1,1,,,,,,,,,,,,,,,,,,,,,,,,,,,,,,,,,,,,,,,,,,,,,,
231344,001,2022-11-21_01h55.57.062,Info_measure_main_exp,2022.2.2,Win32,29.9940012,,,,,,,,,,,,,,,,,,masks/mask_005.jpg,,,,,,,,,,,,,,,,,,,,,,,,,,,,,,,,,,,,,,,,,,,0,2,2,4,1,,,,,,,,,,,,,,,,,,,,,,,,,,,,,,,,,,,,,,,,,,,,,,
231344,001,2022-11-21_01h55.57.062,Info_measure_main_exp,2022.2.2,Win32,29.9940012,,,,,,,,,,,,,,,,,,masks/mask_003.jpg,,,,,,,,,,,,,,,,,,,,,,,,,,,,,,,,,,,,,,,,,,,0,3,3,2,1,,,,,,,,,,,,,,,,,,,,,,,,,,,,,,,,,,,,,,,,,,,,,,
231344,001,2022-11-21_01h55.57.062,Info_measure_main_exp,2022.2.2,Win32,29.9940012,,,,,,,,,,,,,,,,,,masks/mask_001.jpg,,,,,,,,,,,,,,,,,,,,,,,,,,,,,,,,,,,,,,,,,,,0,4,4,0,1,,,,,,,,,,,,,,,,,,,,,,,,,,,,,,,,,,,,,,,,,,,,,,
231344,001,2022-11-21_01h55.57.062,Info_measure_main_exp,2022.2.2,Win32,29.9940012,,,,,,,,,,,,,,,,,,masks/mask_003.jpg,,,,,,,,,,,,,,,,,,,,,,,,,,,,,,,,,,,,,,,,,,,,,,,,0,0,0,2,1,,,,,,,,,,,,,,,,,,,,,,,,,,,,,,,,,,,,,,,,,
231344,001,2022-11-21_01h55.57.062,Info_measure_main_exp,2022.2.2,Win32,29.9940012,,,,,,,,,,,,,,,,,,masks/mask_005.jpg,,,,,,,,,,,,,,,,,,,,,,,,,,,,,,,,,,,,,,,,,,,,,,,,0,1,1,4,1,,,,,,,,,,,,,,,,,,,,,,,,,,,,,,,,,,,,,,,,,
231344,001,2022-11-21_01h55.57.062,Info_measure_main_exp,2022.2.2,Win32,29.9940012,,,,,,,,,,,,,,,,,,masks/mask_004.jpg,,,,,,,,,,,,,,,,,,,,,,,,,,,,,,,,,,,,,,,,,,,,,,,,0,2,2,3,1,,,,,,,,,,,,,,,,,,,,,,,,,,,,,,,,,,,,,,,,,
231344,001,2022-11-21_01h55.57.062,Info_measure_main_exp,2022.2.2,Win32,29.9940012,,,,,,,,,,,,,,,,,,masks/mask_001.jpg,,,,,,,,,,,,,,,,,,,,,,,,,,,,,,,,,,,,,,,,,,,,,,,,0,3,3,0,1,,,,,,,,,,,,,,,,,,,,,,,,,,,,,,,,,,,,,,,,,
231344,001,2022-11-21_01h55.57.062,Info_measure_main_exp,2022.2.2,Win32,29.9940012,,,,,,,,,,,,,,,,,,masks/mask_002.jpg,,,,,,,,,,,,,,,,,,,,,,,,,,,,,,,,,,,,,,,,,,,,,,,,0,4,4,1,1,,,,,,,,,,,,,,,,,,,,,,,,,,,,,,,,,,,,,,,,,
231344,001,2022-11-21_01h55.57.062,Info_measure_main_exp,2022.2.2,Win32,29.9940012,,,,,,,,,,,,,,,,,,,,,,,,,,,,,,0,0.276,1,,,,,,,,,,,,0,131,5,5,2214,2178,absent_patch/patch0002214.jpg,absent_patch/patch0002178.jpg,,,,,,,,,,,,,,,,,,,,-0.001302083,0.009114583,1,0,0,response7disk,5,-0.001302083,0.009114583,1,0,0,center_square,0,4,4,62,1,,,,,,,,,,,,,,,,,,,,,,,
231344,001,2022-11-21_01h55.57.062,Info_measure_main_exp,2022.2.2,Win32,29.9940012,,,,,,,,,,,,,,,,,,masks/mask_004.jpg,,,,,,,,,,,,,,,,,,,,,,,,,,,,,,,,,,,,,,,,,,,0,0,0,3,1,,,,,,,,,,,,,,,,,,,,,,,,,,,,,,,,,,,,,,,,,,,,,,
231344,001,2022-11-21_01h55.57.062,Info_measure_main_exp,2022.2.2,Win32,29.9940012,,,,,,,,,,,,,,,,,,masks/mask_005.jpg,,,,,,,,,,,,,,,,,,,,,,,,,,,,,,,,,,,,,,,,,,,0,1,1,4,1,,,,,,,,,,,,,,,,,,,,,,,,,,,,,,,,,,,,,,,,,,,,,,
231344,001,2022-11-21_01h55.57.062,Info_measure_main_exp,2022.2.2,Win32,29.9940012,,,,,,,,,,,,,,,,,,masks/mask_003.jpg,,,,,,,,,,,,,,,,,,,,,,,,,,,,,,,,,,,,,,,,,,,0,2,2,2,1,,,,,,,,,,,,,,,,,,,,,,,,,,,,,,,,,,,,,,,,,,,,,,
231344,001,2022-11-21_01h55.57.062,Info_measure_main_exp,2022.2.2,Win32,29.9940012,,,,,,,,,,,,,,,,,,masks/mask_002.jpg,,,,,,,,,,,,,,,,,,,,,,,,,,,,,,,,,,,,,,,,,,,0,3,3,1,1,,,,,,,,,,,,,,,,,,,,,,,,,,,,,,,,,,,,,,,,,,,,,,
231344,001,2022-11-21_01h55.57.062,Info_measure_main_exp,2022.2.2,Win32,29.9940012,,,,,,,,,,,,,,,,,,masks/mask_001.jpg,,,,,,,,,,,,,,,,,,,,,,,,,,,,,,,,,,,,,,,,,,,0,4,4,0,1,,,,,,,,,,,,,,,,,,,,,,,,,,,,,,,,,,,,,,,,,,,,,,
231344,001,2022-11-21_01h55.57.062,Info_measure_main_exp,2022.2.2,Win32,29.9940012,,,,,,,,,,,,,,,,,,masks/mask_005.jpg,,,,,,,,,,,,,,,,,,,,,,,,,,,,,,,,,,,,,,,,,,,,,,,,0,0,0,4,1,,,,,,,,,,,,,,,,,,,,,,,,,,,,,,,,,,,,,,,,,
231344,001,2022-11-21_01h55.57.062,Info_measure_main_exp,2022.2.2,Win32,29.9940012,,,,,,,,,,,,,,,,,,masks/mask_003.jpg,,,,,,,,,,,,,,,,,,,,,,,,,,,,,,,,,,,,,,,,,,,,,,,,0,1,1,2,1,,,,,,,,,,,,,,,,,,,,,,,,,,,,,,,,,,,,,,,,,
231344,001,2022-11-21_01h55.57.062,Info_measure_main_exp,2022.2.2,Win32,29.9940012,,,,,,,,,,,,,,,,,,masks/mask_004.jpg,,,,,,,,,,,,,,,,,,,,,,,,,,,,,,,,,,,,,,,,,,,,,,,,0,2,2,3,1,,,,,,,,,,,,,,,,,,,,,,,,,,,,,,,,,,,,,,,,,
231344,001,2022-11-21_01h55.57.062,Info_measure_main_exp,2022.2.2,Win32,29.9940012,,,,,,,,,,,,,,,,,,masks/mask_002.jpg,,,,,,,,,,,,,,,,,,,,,,,,,,,,,,,,,,,,,,,,,,,,,,,,0,3,3,1,1,,,,,,,,,,,,,,,,,,,,,,,,,,,,,,,,,,,,,,,,,
231344,001,2022-11-21_01h55.57.062,Info_measure_main_exp,2022.2.2,Win32,29.9940012,,,,,,,,,,,,,,,,,,masks/mask_001.jpg,,,,,,,,,,,,,,,,,,,,,,,,,,,,,,,,,,,,,,,,,,,,,,,,0,4,4,0,1,,,,,,,,,,,,,,,,,,,,,,,,,,,,,,,,,,,,,,,,,
231344,001,2022-11-21_01h55.57.062,Info_measure_main_exp,2022.2.2,Win32,29.9940012,,,,,,,,,,,,,,,,,,,,,,,,,,,,,,0,0.082,1,,,,,,,,,,,,0,131,5,5,2154,2298,absent_patch/patch0002154.jpg,absent_patch/patch0002298.jpg,,,,,,,,,,,,,,,,,,,,-0.001302083,0.009114583,1,0,0,response7disk,6,-0.001302083,0.009114583,1,0,0,center_square,0,5,5,27,1,,,,,,,,,,,,,,,,,,,,,,,
231344,001,2022-11-21_01h55.57.062,Info_measure_main_exp,2022.2.2,Win32,29.9940012,,,,,,,,,,,,,,,,,,masks/mask_005.jpg,,,,,,,,,,,,,,,,,,,,,,,,,,,,,,,,,,,,,,,,,,,0,0,0,4,1,,,,,,,,,,,,,,,,,,,,,,,,,,,,,,,,,,,,,,,,,,,,,,
231344,001,2022-11-21_01h55.57.062,Info_measure_main_exp,2022.2.2,Win32,29.9940012,,,,,,,,,,,,,,,,,,masks/mask_001.jpg,,,,,,,,,,,,,,,,,,,,,,,,,,,,,,,,,,,,,,,,,,,0,1,1,0,1,,,,,,,,,,,,,,,,,,,,,,,,,,,,,,,,,,,,,,,,,,,,,,
231344,001,2022-11-21_01h55.57.062,Info_measure_main_exp,2022.2.2,Win32,29.9940012,,,,,,,,,,,,,,,,,,masks/mask_004.jpg,,,,,,,,,,,,,,,,,,,,,,,,,,,,,,,,,,,,,,,,,,,0,2,2,3,1,,,,,,,,,,,,,,,,,,,,,,,,,,,,,,,,,,,,,,,,,,,,,,
231344,001,2022-11-21_01h55.57.062,Info_measure_main_exp,2022.2.2,Win32,29.9940012,,,,,,,,,,,,,,,,,,masks/mask_002.jpg,,,,,,,,,,,,,,,,,,,,,,,,,,,,,,,,,,,,,,,,,,,0,3,3,1,1,,,,,,,,,,,,,,,,,,,,,,,,,,,,,,,,,,,,,,,,,,,,,,
231344,001,2022-11-21_01h55.57.062,Info_measure_main_exp,2022.2.2,Win32,29.9940012,,,,,,,,,,,,,,,,,,masks/mask_003.jpg,,,,,,,,,,,,,,,,,,,,,,,,,,,,,,,,,,,,,,,,,,,0,4,4,2,1,,,,,,,,,,,,,,,,,,,,,,,,,,,,,,,,,,,,,,,,,,,,,,
231344,001,2022-11-21_01h55.57.062,Info_measure_main_exp,2022.2.2,Win32,29.9940012,,,,,,,,,,,,,,,,,,masks/mask_005.jpg,,,,,,,,,,,,,,,,,,,,,,,,,,,,,,,,,,,,,,,,,,,,,,,,0,0,0,4,1,,,,,,,,,,,,,,,,,,,,,,,,,,,,,,,,,,,,,,,,,
231344,001,2022-11-21_01h55.57.062,Info_measure_main_exp,2022.2.2,Win32,29.9940012,,,,,,,,,,,,,,,,,,masks/mask_001.jpg,,,,,,,,,,,,,,,,,,,,,,,,,,,,,,,,,,,,,,,,,,,,,,,,0,1,1,0,1,,,,,,,,,,,,,,,,,,,,,,,,,,,,,,,,,,,,,,,,,
231344,001,2022-11-21_01h55.57.062,Info_measure_main_exp,2022.2.2,Win32,29.9940012,,,,,,,,,,,,,,,,,,masks/mask_003.jpg,,,,,,,,,,,,,,,,,,,,,,,,,,,,,,,,,,,,,,,,,,,,,,,,0,2,2,2,1,,,,,,,,,,,,,,,,,,,,,,,,,,,,,,,,,,,,,,,,,
231344,001,2022-11-21_01h55.57.062,Info_measure_main_exp,2022.2.2,Win32,29.9940012,,,,,,,,,,,,,,,,,,masks/mask_004.jpg,,,,,,,,,,,,,,,,,,,,,,,,,,,,,,,,,,,,,,,,,,,,,,,,0,3,3,3,1,,,,,,,,,,,,,,,,,,,,,,,,,,,,,,,,,,,,,,,,,
231344,001,2022-11-21_01h55.57.062,Info_measure_main_exp,2022.2.2,Win32,29.9940012,,,,,,,,,,,,,,,,,,masks/mask_002.jpg,,,,,,,,,,,,,,,,,,,,,,,,,,,,,,,,,,,,,,,,,,,,,,,,0,4,4,1,1,,,,,,,,,,,,,,,,,,,,,,,,,,,,,,,,,,,,,,,,,
231344,001,2022-11-21_01h55.57.062,Info_measure_main_exp,2022.2.2,Win32,29.9940012,,,,,,,,,,,,,,,,,,,,,,,,,,,,,,7,0.78,1,,,,,,,,,,,,0,131,5,5,1950,2166,absent_patch/patch0001950.jpg,absent_patch/patch0002166.jpg,,,,,,,,,,,,,,,,,,,,0.006510417,0.0234375,1,0,0,response1disk,7,0.00390625,0.01171875,1,0,0,center_square,0,6,6,0,1,,,,,,,,,,,,,,,,,,,,,,,
231344,001,2022-11-21_01h55.57.062,Info_measure_main_exp,2022.2.2,Win32,29.9940012,,,,,,,,,,,,,,,,,,masks/mask_002.jpg,,,,,,,,,,,,,,,,,,,,,,,,,,,,,,,,,,,,,,,,,,,0,0,0,1,1,,,,,,,,,,,,,,,,,,,,,,,,,,,,,,,,,,,,,,,,,,,,,,
231344,001,2022-11-21_01h55.57.062,Info_measure_main_exp,2022.2.2,Win32,29.9940012,,,,,,,,,,,,,,,,,,masks/mask_003.jpg,,,,,,,,,,,,,,,,,,,,,,,,,,,,,,,,,,,,,,,,,,,0,1,1,2,1,,,,,,,,,,,,,,,,,,,,,,,,,,,,,,,,,,,,,,,,,,,,,,
231344,001,2022-11-21_01h55.57.062,Info_measure_main_exp,2022.2.2,Win32,29.9940012,,,,,,,,,,,,,,,,,,masks/mask_004.jpg,,,,,,,,,,,,,,,,,,,,,,,,,,,,,,,,,,,,,,,,,,,0,2,2,3,1,,,,,,,,,,,,,,,,,,,,,,,,,,,,,,,,,,,,,,,,,,,,,,
231344,001,2022-11-21_01h55.57.062,Info_measure_main_exp,2022.2.2,Win32,29.9940012,,,,,,,,,,,,,,,,,,masks/mask_001.jpg,,,,,,,,,,,,,,,,,,,,,,,,,,,,,,,,,,,,,,,,,,,0,3,3,0,1,,,,,,,,,,,,,,,,,,,,,,,,,,,,,,,,,,,,,,,,,,,,,,
231344,001,2022-11-21_01h55.57.062,Info_measure_main_exp,2022.2.2,Win32,29.9940012,,,,,,,,,,,,,,,,,,masks/mask_005.jpg,,,,,,,,,,,,,,,,,,,,,,,,,,,,,,,,,,,,,,,,,,,0,4,4,4,1,,,,,,,,,,,,,,,,,,,,,,,,,,,,,,,,,,,,,,,,,,,,,,
231344,001,2022-11-21_01h55.57.062,Info_measure_main_exp,2022.2.2,Win32,29.9940012,,,,,,,,,,,,,,,,,,masks/mask_005.jpg,,,,,,,,,,,,,,,,,,,,,,,,,,,,,,,,,,,,,,,,,,,,,,,,0,0,0,4,1,,,,,,,,,,,,,,,,,,,,,,,,,,,,,,,,,,,,,,,,,
231344,001,2022-11-21_01h55.57.062,Info_measure_main_exp,2022.2.2,Win32,29.9940012,,,,,,,,,,,,,,,,,,masks/mask_004.jpg,,,,,,,,,,,,,,,,,,,,,,,,,,,,,,,,,,,,,,,,,,,,,,,,0,1,1,3,1,,,,,,,,,,,,,,,,,,,,,,,,,,,,,,,,,,,,,,,,,
231344,001,2022-11-21_01h55.57.062,Info_measure_main_exp,2022.2.2,Win32,29.9940012,,,,,,,,,,,,,,,,,,masks/mask_001.jpg,,,,,,,,,,,,,,,,,,,,,,,,,,,,,,,,,,,,,,,,,,,,,,,,0,2,2,0,1,,,,,,,,,,,,,,,,,,,,,,,,,,,,,,,,,,,,,,,,,
231344,001,2022-11-21_01h55.57.062,Info_measure_main_exp,2022.2.2,Win32,29.9940012,,,,,,,,,,,,,,,,,,masks/mask_002.jpg,,,,,,,,,,,,,,,,,,,,,,,,,,,,,,,,,,,,,,,,,,,,,,,,0,3,3,1,1,,,,,,,,,,,,,,,,,,,,,,,,,,,,,,,,,,,,,,,,,
231344,001,2022-11-21_01h55.57.062,Info_measure_main_exp,2022.2.2,Win32,29.9940012,,,,,,,,,,,,,,,,,,masks/mask_003.jpg,,,,,,,,,,,,,,,,,,,,,,,,,,,,,,,,,,,,,,,,,,,,,,,,0,4,4,2,1,,,,,,,,,,,,,,,,,,,,,,,,,,,,,,,,,,,,,,,,,
231344,001,2022-11-21_01h55.57.062,Info_measure_main_exp,2022.2.2,Win32,29.9940012,,,,,,,,,,,,,,,,,,,,,,,,,,,,,,1,0.381,1,,,,,,,,,,,,0,131,5,5,2274,2250,absent_patch/patch0002274.jpg,absent_patch/patch0002250.jpg,,,,,,,,,,,,,,,,,,,,-0.005208333,0.002604167,1,0,0,response7disk,8,-0.005208333,0.002604167,1,0,0,center_square,0,7,7,28,1,,,,,,,,,,,,,,,,,,,,,,,
231344,001,2022-11-21_01h55.57.062,Info_measure_main_exp,2022.2.2,Win32,29.9940012,,,,,,,,,,,,,,,,,,masks/mask_001.jpg,,,,,,,,,,,,,,,,,,,,,,,,,,,,,,,,,,,,,,,,,,,0,0,0,0,1,,,,,,,,,,,,,,,,,,,,,,,,,,,,,,,,,,,,,,,,,,,,,,
231344,001,2022-11-21_01h55.57.062,Info_measure_main_exp,2022.2.2,Win32,29.9940012,,,,,,,,,,,,,,,,,,masks/mask_004.jpg,,,,,,,,,,,,,,,,,,,,,,,,,,,,,,,,,,,,,,,,,,,0,1,1,3,1,,,,,,,,,,,,,,,,,,,,,,,,,,,,,,,,,,,,,,,,,,,,,,
231344,001,2022-11-21_01h55.57.062,Info_measure_main_exp,2022.2.2,Win32,29.9940012,,,,,,,,,,,,,,,,,,masks/mask_005.jpg,,,,,,,,,,,,,,,,,,,,,,,,,,,,,,,,,,,,,,,,,,,0,2,2,4,1,,,,,,,,,,,,,,,,,,,,,,,,,,,,,,,,,,,,,,,,,,,,,,
231344,001,2022-11-21_01h55.57.062,Info_measure_main_exp,2022.2.2,Win32,29.9940012,,,,,,,,,,,,,,,,,,masks/mask_002.jpg,,,,,,,,,,,,,,,,,,,,,,,,,,,,,,,,,,,,,,,,,,,0,3,3,1,1,,,,,,,,,,,,,,,,,,,,,,,,,,,,,,,,,,,,,,,,,,,,,,
231344,001,2022-11-21_01h55.57.062,Info_measure_main_exp,2022.2.2,Win32,29.9940012,,,,,,,,,,,,,,,,,,masks/mask_003.jpg,,,,,,,,,,,,,,,,,,,,,,,,,,,,,,,,,,,,,,,,,,,0,4,4,2,1,,,,,,,,,,,,,,,,,,,,,,,,,,,,,,,,,,,,,,,,,,,,,,
231344,001,2022-11-21_01h55.57.062,Info_measure_main_exp,2022.2.2,Win32,29.9940012,,,,,,,,,,,,,,,,,,masks/mask_003.jpg,,,,,,,,,,,,,,,,,,,,,,,,,,,,,,,,,,,,,,,,,,,,,,,,0,0,0,2,1,,,,,,,,,,,,,,,,,,,,,,,,,,,,,,,,,,,,,,,,,
231344,001,2022-11-21_01h55.57.062,Info_measure_main_exp,2022.2.2,Win32,29.9940012,,,,,,,,,,,,,,,,,,masks/mask_001.jpg,,,,,,,,,,,,,,,,,,,,,,,,,,,,,,,,,,,,,,,,,,,,,,,,0,1,1,0,1,,,,,,,,,,,,,,,,,,,,,,,,,,,,,,,,,,,,,,,,,
231344,001,2022-11-21_01h55.57.062,Info_measure_main_exp,2022.2.2,Win32,29.9940012,,,,,,,,,,,,,,,,,,masks/mask_005.jpg,,,,,,,,,,,,,,,,,,,,,,,,,,,,,,,,,,,,,,,,,,,,,,,,0,2,2,4,1,,,,,,,,,,,,,,,,,,,,,,,,,,,,,,,,,,,,,,,,,
231344,001,2022-11-21_01h55.57.062,Info_measure_main_exp,2022.2.2,Win32,29.9940012,,,,,,,,,,,,,,,,,,masks/mask_004.jpg,,,,,,,,,,,,,,,,,,,,,,,,,,,,,,,,,,,,,,,,,,,,,,,,0,3,3,3,1,,,,,,,,,,,,,,,,,,,,,,,,,,,,,,,,,,,,,,,,,
231344,001,2022-11-21_01h55.57.062,Info_measure_main_exp,2022.2.2,Win32,29.9940012,,,,,,,,,,,,,,,,,,masks/mask_002.jpg,,,,,,,,,,,,,,,,,,,,,,,,,,,,,,,,,,,,,,,,,,,,,,,,0,4,4,1,1,,,,,,,,,,,,,,,,,,,,,,,,,,,,,,,,,,,,,,,,,
231344,001,2022-11-21_01h55.57.062,Info_measure_main_exp,2022.2.2,Win32,29.9940012,,,,,,,,,,,,,,,,,,,,,,,,,,,,,,1,1.049,1,,,,,,,,,,,,0,131,5,5,1986,2142,absent_patch/patch0001986.jpg,absent_patch/patch0002142.jpg,,,,,,,,,,,,,,,,,,,,-0.015625,0.0078125,1,0,0,response7disk,9,-0.015625,0.0078125,1,0,0,center_square,0,8,8,76,1,,,,,,,,,,,,,,,,,,,,,,,
231344,001,2022-11-21_01h55.57.062,Info_measure_main_exp,2022.2.2,Win32,29.9940012,,,,,,,,,,,,,,,,,,masks/mask_003.jpg,,,,,,,,,,,,,,,,,,,,,,,,,,,,,,,,,,,,,,,,,,,0,0,0,2,1,,,,,,,,,,,,,,,,,,,,,,,,,,,,,,,,,,,,,,,,,,,,,,
231344,001,2022-11-21_01h55.57.062,Info_measure_main_exp,2022.2.2,Win32,29.9940012,,,,,,,,,,,,,,,,,,masks/mask_001.jpg,,,,,,,,,,,,,,,,,,,,,,,,,,,,,,,,,,,,,,,,,,,0,1,1,0,1,,,,,,,,,,,,,,,,,,,,,,,,,,,,,,,,,,,,,,,,,,,,,,
231344,001,2022-11-21_01h55.57.062,Info_measure_main_exp,2022.2.2,Win32,29.9940012,,,,,,,,,,,,,,,,,,masks/mask_004.jpg,,,,,,,,,,,,,,,,,,,,,,,,,,,,,,,,,,,,,,,,,,,0,2,2,3,1,,,,,,,,,,,,,,,,,,,,,,,,,,,,,,,,,,,,,,,,,,,,,,
231344,001,2022-11-21_01h55.57.062,Info_measure_main_exp,2022.2.2,Win32,29.9940012,,,,,,,,,,,,,,,,,,masks/mask_005.jpg,,,,,,,,,,,,,,,,,,,,,,,,,,,,,,,,,,,,,,,,,,,0,3,3,4,1,,,,,,,,,,,,,,,,,,,,,,,,,,,,,,,,,,,,,,,,,,,,,,
231344,001,2022-11-21_01h55.57.062,Info_measure_main_exp,2022.2.2,Win32,29.9940012,,,,,,,,,,,,,,,,,,masks/mask_002.jpg,,,,,,,,,,,,,,,,,,,,,,,,,,,,,,,,,,,,,,,,,,,0,4,4,1,1,,,,,,,,,,,,,,,,,,,,,,,,,,,,,,,,,,,,,,,,,,,,,,
231344,001,2022-11-21_01h55.57.062,Info_measure_main_exp,2022.2.2,Win32,29.9940012,,,,,,,,,,,,,,,,,,masks/mask_004.jpg,,,,,,,,,,,,,,,,,,,,,,,,,,,,,,,,,,,,,,,,,,,,,,,,0,0,0,3,1,,,,,,,,,,,,,,,,,,,,,,,,,,,,,,,,,,,,,,,,,
231344,001,2022-11-21_01h55.57.062,Info_measure_main_exp,2022.2.2,Win32,29.9940012,,,,,,,,,,,,,,,,,,masks/mask_005.jpg,,,,,,,,,,,,,,,,,,,,,,,,,,,,,,,,,,,,,,,,,,,,,,,,0,1,1,4,1,,,,,,,,,,,,,,,,,,,,,,,,,,,,,,,,,,,,,,,,,
231344,001,2022-11-21_01h55.57.062,Info_measure_main_exp,2022.2.2,Win32,29.9940012,,,,,,,,,,,,,,,,,,masks/mask_002.jpg,,,,,,,,,,,,,,,,,,,,,,,,,,,,,,,,,,,,,,,,,,,,,,,,0,2,2,1,1,,,,,,,,,,,,,,,,,,,,,,,,,,,,,,,,,,,,,,,,,
231344,001,2022-11-21_01h55.57.062,Info_measure_main_exp,2022.2.2,Win32,29.9940012,,,,,,,,,,,,,,,,,,masks/mask_003.jpg,,,,,,,,,,,,,,,,,,,,,,,,,,,,,,,,,,,,,,,,,,,,,,,,0,3,3,2,1,,,,,,,,,,,,,,,,,,,,,,,,,,,,,,,,,,,,,,,,,
231344,001,2022-11-21_01h55.57.062,Info_measure_main_exp,2022.2.2,Win32,29.9940012,,,,,,,,,,,,,,,,,,masks/mask_001.jpg,,,,,,,,,,,,,,,,,,,,,,,,,,,,,,,,,,,,,,,,,,,,,,,,0,4,4,0,1,,,,,,,,,,,,,,,,,,,,,,,,,,,,,,,,,,,,,,,,,
231344,001,2022-11-21_01h55.57.062,Info_measure_main_exp,2022.2.2,Win32,29.9940012,,,,,,,,,,,,,,,,,,,,,,,,,,,,,,0,3.142,1,,,,,,,,,,,,0,131,5,5,1974,2214,absent_patch/patch0001974.jpg,absent_patch/patch0002214.jpg,,,,,,,,,,,,,,,,,,,,-0.005208333,0.010416667,1,0,0,response7disk,10,-0.005208333,0.010416667,1,0,0,center_square,0,9,9,24,1,,,,,,,,,,,,,,,,,,,,,,,
231344,001,2022-11-21_01h55.57.062,Info_measure_main_exp,2022.2.2,Win32,29.9940012,,,,,,,,,,,,,,,,,,masks/mask_003.jpg,,,,,,,,,,,,,,,,,,,,,,,,,,,,,,,,,,,,,,,,,,,0,0,0,2,1,,,,,,,,,,,,,,,,,,,,,,,,,,,,,,,,,,,,,,,,,,,,,,
231344,001,2022-11-21_01h55.57.062,Info_measure_main_exp,2022.2.2,Win32,29.9940012,,,,,,,,,,,,,,,,,,masks/mask_004.jpg,,,,,,,,,,,,,,,,,,,,,,,,,,,,,,,,,,,,,,,,,,,0,1,1,3,1,,,,,,,,,,,,,,,,,,,,,,,,,,,,,,,,,,,,,,,,,,,,,,
231344,001,2022-11-21_01h55.57.062,Info_measure_main_exp,2022.2.2,Win32,29.9940012,,,,,,,,,,,,,,,,,,masks/mask_005.jpg,,,,,,,,,,,,,,,,,,,,,,,,,,,,,,,,,,,,,,,,,,,0,2,2,4,1,,,,,,,,,,,,,,,,,,,,,,,,,,,,,,,,,,,,,,,,,,,,,,
231344,001,2022-11-21_01h55.57.062,Info_measure_main_exp,2022.2.2,Win32,29.9940012,,,,,,,,,,,,,,,,,,masks/mask_002.jpg,,,,,,,,,,,,,,,,,,,,,,,,,,,,,,,,,,,,,,,,,,,0,3,3,1,1,,,,,,,,,,,,,,,,,,,,,,,,,,,,,,,,,,,,,,,,,,,,,,
231344,001,2022-11-21_01h55.57.062,Info_measure_main_exp,2022.2.2,Win32,29.9940012,,,,,,,,,,,,,,,,,,masks/mask_001.jpg,,,,,,,,,,,,,,,,,,,,,,,,,,,,,,,,,,,,,,,,,,,0,4,4,0,1,,,,,,,,,,,,,,,,,,,,,,,,,,,,,,,,,,,,,,,,,,,,,,
231344,001,2022-11-21_01h55.57.062,Info_measure_main_exp,2022.2.2,Win32,29.9940012,,,,,,,,,,,,,,,,,,masks/mask_005.jpg,,,,,,,,,,,,,,,,,,,,,,,,,,,,,,,,,,,,,,,,,,,,,,,,0,0,0,4,1,,,,,,,,,,,,,,,,,,,,,,,,,,,,,,,,,,,,,,,,,
231344,001,2022-11-21_01h55.57.062,Info_measure_main_exp,2022.2.2,Win32,29.9940012,,,,,,,,,,,,,,,,,,masks/mask_004.jpg,,,,,,,,,,,,,,,,,,,,,,,,,,,,,,,,,,,,,,,,,,,,,,,,0,1,1,3,1,,,,,,,,,,,,,,,,,,,,,,,,,,,,,,,,,,,,,,,,,
231344,001,2022-11-21_01h55.57.062,Info_measure_main_exp,2022.2.2,Win32,29.9940012,,,,,,,,,,,,,,,,,,masks/mask_003.jpg,,,,,,,,,,,,,,,,,,,,,,,,,,,,,,,,,,,,,,,,,,,,,,,,0,2,2,2,1,,,,,,,,,,,,,,,,,,,,,,,,,,,,,,,,,,,,,,,,,
231344,001,2022-11-21_01h55.57.062,Info_measure_main_exp,2022.2.2,Win32,29.9940012,,,,,,,,,,,,,,,,,,masks/mask_001.jpg,,,,,,,,,,,,,,,,,,,,,,,,,,,,,,,,,,,,,,,,,,,,,,,,0,3,3,0,1,,,,,,,,,,,,,,,,,,,,,,,,,,,,,,,,,,,,,,,,,
231344,001,2022-11-21_01h55.57.062,Info_measure_main_exp,2022.2.2,Win32,29.9940012,,,,,,,,,,,,,,,,,,masks/mask_002.jpg,,,,,,,,,,,,,,,,,,,,,,,,,,,,,,,,,,,,,,,,,,,,,,,,0,4,4,1,1,,,,,,,,,,,,,,,,,,,,,,,,,,,,,,,,,,,,,,,,,
231344,001,2022-11-21_01h55.57.062,Info_measure_main_exp,2022.2.2,Win32,29.9940012,,,,,,,,,,,,,,,,,,,,,,,,,,,,,,6,0.92,1,,,,,,,,,,,,0,131,5,5,2214,2142,absent_patch/patch0002214.jpg,absent_patch/patch0002142.jpg,,,,,,,,,,,,,,,,,,,,0.024739583,0.013020833,1,0,0,response1disk,11,0.0078125,-0.006510417,1,0,0,center_square,0,10,10,102,1,,,,,,,,,,,,,,,,,,,,,,,
231344,001,2022-11-21_01h55.57.062,Info_measure_main_exp,2022.2.2,Win32,29.9940012,,,,,,,,,,,,,,,,,,masks/mask_005.jpg,,,,,,,,,,,,,,,,,,,,,,,,,,,,,,,,,,,,,,,,,,,0,0,0,4,1,,,,,,,,,,,,,,,,,,,,,,,,,,,,,,,,,,,,,,,,,,,,,,
231344,001,2022-11-21_01h55.57.062,Info_measure_main_exp,2022.2.2,Win32,29.9940012,,,,,,,,,,,,,,,,,,masks/mask_002.jpg,,,,,,,,,,,,,,,,,,,,,,,,,,,,,,,,,,,,,,,,,,,0,1,1,1,1,,,,,,,,,,,,,,,,,,,,,,,,,,,,,,,,,,,,,,,,,,,,,,
231344,001,2022-11-21_01h55.57.062,Info_measure_main_exp,2022.2.2,Win32,29.9940012,,,,,,,,,,,,,,,,,,masks/mask_001.jpg,,,,,,,,,,,,,,,,,,,,,,,,,,,,,,,,,,,,,,,,,,,0,2,2,0,1,,,,,,,,,,,,,,,,,,,,,,,,,,,,,,,,,,,,,,,,,,,,,,
231344,001,2022-11-21_01h55.57.062,Info_measure_main_exp,2022.2.2,Win32,29.9940012,,,,,,,,,,,,,,,,,,masks/mask_003.jpg,,,,,,,,,,,,,,,,,,,,,,,,,,,,,,,,,,,,,,,,,,,0,3,3,2,1,,,,,,,,,,,,,,,,,,,,,,,,,,,,,,,,,,,,,,,,,,,,,,
231344,001,2022-11-21_01h55.57.062,Info_measure_main_exp,2022.2.2,Win32,29.9940012,,,,,,,,,,,,,,,,,,masks/mask_004.jpg,,,,,,,,,,,,,,,,,,,,,,,,,,,,,,,,,,,,,,,,,,,0,4,4,3,1,,,,,,,,,,,,,,,,,,,,,,,,,,,,,,,,,,,,,,,,,,,,,,
231344,001,2022-11-21_01h55.57.062,Info_measure_main_exp,2022.2.2,Win32,29.9940012,,,,,,,,,,,,,,,,,,masks/mask_002.jpg,,,,,,,,,,,,,,,,,,,,,,,,,,,,,,,,,,,,,,,,,,,,,,,,0,0,0,1,1,,,,,,,,,,,,,,,,,,,,,,,,,,,,,,,,,,,,,,,,,
231344,001,2022-11-21_01h55.57.062,Info_measure_main_exp,2022.2.2,Win32,29.9940012,,,,,,,,,,,,,,,,,,masks/mask_001.jpg,,,,,,,,,,,,,,,,,,,,,,,,,,,,,,,,,,,,,,,,,,,,,,,,0,1,1,0,1,,,,,,,,,,,,,,,,,,,,,,,,,,,,,,,,,,,,,,,,,
231344,001,2022-11-21_01h55.57.062,Info_measure_main_exp,2022.2.2,Win32,29.9940012,,,,,,,,,,,,,,,,,,masks/mask_003.jpg,,,,,,,,,,,,,,,,,,,,,,,,,,,,,,,,,,,,,,,,,,,,,,,,0,2,2,2,1,,,,,,,,,,,,,,,,,,,,,,,,,,,,,,,,,,,,,,,,,
231344,001,2022-11-21_01h55.57.062,Info_measure_main_exp,2022.2.2,Win32,29.9940012,,,,,,,,,,,,,,,,,,masks/mask_004.jpg,,,,,,,,,,,,,,,,,,,,,,,,,,,,,,,,,,,,,,,,,,,,,,,,0,3,3,3,1,,,,,,,,,,,,,,,,,,,,,,,,,,,,,,,,,,,,,,,,,
231344,001,2022-11-21_01h55.57.062,Info_measure_main_exp,2022.2.2,Win32,29.9940012,,,,,,,,,,,,,,,,,,masks/mask_005.jpg,,,,,,,,,,,,,,,,,,,,,,,,,,,,,,,,,,,,,,,,,,,,,,,,0,4,4,4,1,,,,,,,,,,,,,,,,,,,,,,,,,,,,,,,,,,,,,,,,,
231344,001,2022-11-21_01h55.57.062,Info_measure_main_exp,2022.2.2,Win32,29.9940012,,,,,,,,,,,,,,,,,,,,,,,,,,,,,,3,0.392,1,,,,,,,,,,,,0,131,5,5,2298,1986,absent_patch/patch0002298.jpg,absent_patch/patch0001986.jpg,,,,,,,,,,,,,,,,,,,,-0.01171875,-0.01171875,1,0,0,response5disk,12,-0.01171875,-0.0078125,1,0,0,center_square,0,11,11,32,1,,,,,,,,,,,,,,,,,,,,,,,
231344,001,2022-11-21_01h55.57.062,Info_measure_main_exp,2022.2.2,Win32,29.9940012,,,,,,,,,,,,,,,,,,masks/mask_002.jpg,,,,,,,,,,,,,,,,,,,,,,,,,,,,,,,,,,,,,,,,,,,0,0,0,1,1,,,,,,,,,,,,,,,,,,,,,,,,,,,,,,,,,,,,,,,,,,,,,,
231344,001,2022-11-21_01h55.57.062,Info_measure_main_exp,2022.2.2,Win32,29.9940012,,,,,,,,,,,,,,,,,,masks/mask_003.jpg,,,,,,,,,,,,,,,,,,,,,,,,,,,,,,,,,,,,,,,,,,,0,1,1,2,1,,,,,,,,,,,,,,,,,,,,,,,,,,,,,,,,,,,,,,,,,,,,,,
231344,001,2022-11-21_01h55.57.062,Info_measure_main_exp,2022.2.2,Win32,29.9940012,,,,,,,,,,,,,,,,,,masks/mask_005.jpg,,,,,,,,,,,,,,,,,,,,,,,,,,,,,,,,,,,,,,,,,,,0,2,2,4,1,,,,,,,,,,,,,,,,,,,,,,,,,,,,,,,,,,,,,,,,,,,,,,
231344,001,2022-11-21_01h55.57.062,Info_measure_main_exp,2022.2.2,Win32,29.9940012,,,,,,,,,,,,,,,,,,masks/mask_001.jpg,,,,,,,,,,,,,,,,,,,,,,,,,,,,,,,,,,,,,,,,,,,0,3,3,0,1,,,,,,,,,,,,,,,,,,,,,,,,,,,,,,,,,,,,,,,,,,,,,,
231344,001,2022-11-21_01h55.57.062,Info_measure_main_exp,2022.2.2,Win32,29.9940012,,,,,,,,,,,,,,,,,,masks/mask_004.jpg,,,,,,,,,,,,,,,,,,,,,,,,,,,,,,,,,,,,,,,,,,,0,4,4,3,1,,,,,,,,,,,,,,,,,,,,,,,,,,,,,,,,,,,,,,,,,,,,,,
231344,001,2022-11-21_01h55.57.062,Info_measure_main_exp,2022.2.2,Win32,29.9940012,,,,,,,,,,,,,,,,,,masks/mask_002.jpg,,,,,,,,,,,,,,,,,,,,,,,,,,,,,,,,,,,,,,,,,,,,,,,,0,0,0,1,1,,,,,,,,,,,,,,,,,,,,,,,,,,,,,,,,,,,,,,,,,
231344,001,2022-11-21_01h55.57.062,Info_measure_main_exp,2022.2.2,Win32,29.9940012,,,,,,,,,,,,,,,,,,masks/mask_001.jpg,,,,,,,,,,,,,,,,,,,,,,,,,,,,,,,,,,,,,,,,,,,,,,,,0,1,1,0,1,,,,,,,,,,,,,,,,,,,,,,,,,,,,,,,,,,,,,,,,,
231344,001,2022-11-21_01h55.57.062,Info_measure_main_exp,2022.2.2,Win32,29.9940012,,,,,,,,,,,,,,,,,,masks/mask_003.jpg,,,,,,,,,,,,,,,,,,,,,,,,,,,,,,,,,,,,,,,,,,,,,,,,0,2,2,2,1,,,,,,,,,,,,,,,,,,,,,,,,,,,,,,,,,,,,,,,,,
231344,001,2022-11-21_01h55.57.062,Info_measure_main_exp,2022.2.2,Win32,29.9940012,,,,,,,,,,,,,,,,,,masks/mask_005.jpg,,,,,,,,,,,,,,,,,,,,,,,,,,,,,,,,,,,,,,,,,,,,,,,,0,3,3,4,1,,,,,,,,,,,,,,,,,,,,,,,,,,,,,,,,,,,,,,,,,
231344,001,2022-11-21_01h55.57.062,Info_measure_main_exp,2022.2.2,Win32,29.9940012,,,,,,,,,,,,,,,,,,masks/mask_004.jpg,,,,,,,,,,,,,,,,,,,,,,,,,,,,,,,,,,,,,,,,,,,,,,,,0,4,4,3,1,,,,,,,,,,,,,,,,,,,,,,,,,,,,,,,,,,,,,,,,,
231344,001,2022-11-21_01h55.57.062,Info_measure_main_exp,2022.2.2,Win32,29.9940012,,,,,,,,,,,,,,,,,,,,,,,,,,,,,,2,0.065,1,,,,,,,,,,,,0,131,5,5,2178,2178,absent_patch/patch0002178.jpg,absent_patch/patch0002178.jpg,,,,,,,,,,,,,,,,,,,,-0.01171875,-0.0078125,1,0,0,response5disk,13,-0.01171875,-0.0078125,1,0,0,center_square,0,12,12,98,1,,,,,,,,,,,,,,,,,,,,,,,
231344,001,2022-11-21_01h55.57.062,Info_measure_main_exp,2022.2.2,Win32,29.9940012,,,,,,,,,,,,,,,,,,masks/mask_002.jpg,,,,,,,,,,,,,,,,,,,,,,,,,,,,,,,,,,,,,,,,,,,0,0,0,1,1,,,,,,,,,,,,,,,,,,,,,,,,,,,,,,,,,,,,,,,,,,,,,,
231344,001,2022-11-21_01h55.57.062,Info_measure_main_exp,2022.2.2,Win32,29.9940012,,,,,,,,,,,,,,,,,,masks/mask_001.jpg,,,,,,,,,,,,,,,,,,,,,,,,,,,,,,,,,,,,,,,,,,,0,1,1,0,1,,,,,,,,,,,,,,,,,,,,,,,,,,,,,,,,,,,,,,,,,,,,,,
231344,001,2022-11-21_01h55.57.062,Info_measure_main_exp,2022.2.2,Win32,29.9940012,,,,,,,,,,,,,,,,,,masks/mask_003.jpg,,,,,,,,,,,,,,,,,,,,,,,,,,,,,,,,,,,,,,,,,,,0,2,2,2,1,,,,,,,,,,,,,,,,,,,,,,,,,,,,,,,,,,,,,,,,,,,,,,
231344,001,2022-11-21_01h55.57.062,Info_measure_main_exp,2022.2.2,Win32,29.9940012,,,,,,,,,,,,,,,,,,masks/mask_005.jpg,,,,,,,,,,,,,,,,,,,,,,,,,,,,,,,,,,,,,,,,,,,0,3,3,4,1,,,,,,,,,,,,,,,,,,,,,,,,,,,,,,,,,,,,,,,,,,,,,,
231344,001,2022-11-21_01h55.57.062,Info_measure_main_exp,2022.2.2,Win32,29.9940012,,,,,,,,,,,,,,,,,,masks/mask_004.jpg,,,,,,,,,,,,,,,,,,,,,,,,,,,,,,,,,,,,,,,,,,,0,4,4,3,1,,,,,,,,,,,,,,,,,,,,,,,,,,,,,,,,,,,,,,,,,,,,,,
231344,001,2022-11-21_01h55.57.062,Info_measure_main_exp,2022.2.2,Win32,29.9940012,,,,,,,,,,,,,,,,,,masks/mask_001.jpg,,,,,,,,,,,,,,,,,,,,,,,,,,,,,,,,,,,,,,,,,,,,,,,,0,0,0,0,1,,,,,,,,,,,,,,,,,,,,,,,,,,,,,,,,,,,,,,,,,
231344,001,2022-11-21_01h55.57.062,Info_measure_main_exp,2022.2.2,Win32,29.9940012,,,,,,,,,,,,,,,,,,masks/mask_002.jpg,,,,,,,,,,,,,,,,,,,,,,,,,,,,,,,,,,,,,,,,,,,,,,,,0,1,1,1,1,,,,,,,,,,,,,,,,,,,,,,,,,,,,,,,,,,,,,,,,,
231344,001,2022-11-21_01h55.57.062,Info_measure_main_exp,2022.2.2,Win32,29.9940012,,,,,,,,,,,,,,,,,,masks/mask_004.jpg,,,,,,,,,,,,,,,,,,,,,,,,,,,,,,,,,,,,,,,,,,,,,,,,0,2,2,3,1,,,,,,,,,,,,,,,,,,,,,,,,,,,,,,,,,,,,,,,,,
231344,001,2022-11-21_01h55.57.062,Info_measure_main_exp,2022.2.2,Win32,29.9940012,,,,,,,,,,,,,,,,,,masks/mask_003.jpg,,,,,,,,,,,,,,,,,,,,,,,,,,,,,,,,,,,,,,,,,,,,,,,,0,3,3,2,1,,,,,,,,,,,,,,,,,,,,,,,,,,,,,,,,,,,,,,,,,
231344,001,2022-11-21_01h55.57.062,Info_measure_main_exp,2022.2.2,Win32,29.9940012,,,,,,,,,,,,,,,,,,masks/mask_005.jpg,,,,,,,,,,,,,,,,,,,,,,,,,,,,,,,,,,,,,,,,,,,,,,,,0,4,4,4,1,,,,,,,,,,,,,,,,,,,,,,,,,,,,,,,,,,,,,,,,,
231344,001,2022-11-21_01h55.57.062,Info_measure_main_exp,2022.2.2,Win32,29.9940012,,,,,,,,,,,,,,,,,,,,,,,,,,,,,,4,0.56,1,,,,,,,,,,,,0,131,5,5,1950,2082,absent_patch/patch0001950.jpg,absent_patch/patch0002082.jpg,,,,,,,,,,,,,,,,,,,,0.005208333,-0.010416667,1,0,0,response3disk,14,0.00390625,-0.01171875,1,0,0,center_square,0,13,13,12,1,,,,,,,,,,,,,,,,,,,,,,,
231344,001,2022-11-21_01h55.57.062,Info_measure_main_exp,2022.2.2,Win32,29.9940012,,,,,,,,,,,,,,,,,,masks/mask_001.jpg,,,,,,,,,,,,,,,,,,,,,,,,,,,,,,,,,,,,,,,,,,,0,0,0,0,1,,,,,,,,,,,,,,,,,,,,,,,,,,,,,,,,,,,,,,,,,,,,,,
231344,001,2022-11-21_01h55.57.062,Info_measure_main_exp,2022.2.2,Win32,29.9940012,,,,,,,,,,,,,,,,,,masks/mask_003.jpg,,,,,,,,,,,,,,,,,,,,,,,,,,,,,,,,,,,,,,,,,,,0,1,1,2,1,,,,,,,,,,,,,,,,,,,,,,,,,,,,,,,,,,,,,,,,,,,,,,
231344,001,2022-11-21_01h55.57.062,Info_measure_main_exp,2022.2.2,Win32,29.9940012,,,,,,,,,,,,,,,,,,masks/mask_004.jpg,,,,,,,,,,,,,,,,,,,,,,,,,,,,,,,,,,,,,,,,,,,0,2,2,3,1,,,,,,,,,,,,,,,,,,,,,,,,,,,,,,,,,,,,,,,,,,,,,,
231344,001,2022-11-21_01h55.57.062,Info_measure_main_exp,2022.2.2,Win32,29.9940012,,,,,,,,,,,,,,,,,,masks/mask_002.jpg,,,,,,,,,,,,,,,,,,,,,,,,,,,,,,,,,,,,,,,,,,,0,3,3,1,1,,,,,,,,,,,,,,,,,,,,,,,,,,,,,,,,,,,,,,,,,,,,,,
231344,001,2022-11-21_01h55.57.062,Info_measure_main_exp,2022.2.2,Win32,29.9940012,,,,,,,,,,,,,,,,,,masks/mask_005.jpg,,,,,,,,,,,,,,,,,,,,,,,,,,,,,,,,,,,,,,,,,,,0,4,4,4,1,,,,,,,,,,,,,,,,,,,,,,,,,,,,,,,,,,,,,,,,,,,,,,
231344,001,2022-11-21_01h55.57.062,Info_measure_main_exp,2022.2.2,Win32,29.9940012,,,,,,,,,,,,,,,,,,masks/mask_004.jpg,,,,,,,,,,,,,,,,,,,,,,,,,,,,,,,,,,,,,,,,,,,,,,,,0,0,0,3,1,,,,,,,,,,,,,,,,,,,,,,,,,,,,,,,,,,,,,,,,,
231344,001,2022-11-21_01h55.57.062,Info_measure_main_exp,2022.2.2,Win32,29.9940012,,,,,,,,,,,,,,,,,,masks/mask_001.jpg,,,,,,,,,,,,,,,,,,,,,,,,,,,,,,,,,,,,,,,,,,,,,,,,0,1,1,0,1,,,,,,,,,,,,,,,,,,,,,,,,,,,,,,,,,,,,,,,,,
231344,001,2022-11-21_01h55.57.062,Info_measure_main_exp,2022.2.2,Win32,29.9940012,,,,,,,,,,,,,,,,,,masks/mask_003.jpg,,,,,,,,,,,,,,,,,,,,,,,,,,,,,,,,,,,,,,,,,,,,,,,,0,2,2,2,1,,,,,,,,,,,,,,,,,,,,,,,,,,,,,,,,,,,,,,,,,
231344,001,2022-11-21_01h55.57.062,Info_measure_main_exp,2022.2.2,Win32,29.9940012,,,,,,,,,,,,,,,,,,masks/mask_005.jpg,,,,,,,,,,,,,,,,,,,,,,,,,,,,,,,,,,,,,,,,,,,,,,,,0,3,3,4,1,,,,,,,,,,,,,,,,,,,,,,,,,,,,,,,,,,,,,,,,,
231344,001,2022-11-21_01h55.57.062,Info_measure_main_exp,2022.2.2,Win32,29.9940012,,,,,,,,,,,,,,,,,,masks/mask_002.jpg,,,,,,,,,,,,,,,,,,,,,,,,,,,,,,,,,,,,,,,,,,,,,,,,0,4,4,1,1,,,,,,,,,,,,,,,,,,,,,,,,,,,,,,,,,,,,,,,,,
231344,001,2022-11-21_01h55.57.062,Info_measure_main_exp,2022.2.2,Win32,29.9940012,,,,,,,,,,,,,,,,,,,,,,,,,,,,,,0,0.781,1,,,,,,,,,,,,0,131,5,5,2190,1950,absent_patch/patch0002190.jpg,absent_patch/patch0001950.jpg,,,,,,,,,,,,,,,,,,,,-0.002604167,0.005208333,1,0,0,response7disk,15,-0.002604167,0.005208333,1,0,0,center_square,0,14,14,73,1,,,,,,,,,,,,,,,,,,,,,,,
231344,001,2022-11-21_01h55.57.062,Info_measure_main_exp,2022.2.2,Win32,29.9940012,,,,,,,,,,,,,,,,,,masks/mask_004.jpg,,,,,,,,,,,,,,,,,,,,,,,,,,,,,,,,,,,,,,,,,,,0,0,0,3,1,,,,,,,,,,,,,,,,,,,,,,,,,,,,,,,,,,,,,,,,,,,,,,
231344,001,2022-11-21_01h55.57.062,Info_measure_main_exp,2022.2.2,Win32,29.9940012,,,,,,,,,,,,,,,,,,masks/mask_002.jpg,,,,,,,,,,,,,,,,,,,,,,,,,,,,,,,,,,,,,,,,,,,0,1,1,1,1,,,,,,,,,,,,,,,,,,,,,,,,,,,,,,,,,,,,,,,,,,,,,,
231344,001,2022-11-21_01h55.57.062,Info_measure_main_exp,2022.2.2,Win32,29.9940012,,,,,,,,,,,,,,,,,,masks/mask_003.jpg,,,,,,,,,,,,,,,,,,,,,,,,,,,,,,,,,,,,,,,,,,,0,2,2,2,1,,,,,,,,,,,,,,,,,,,,,,,,,,,,,,,,,,,,,,,,,,,,,,
231344,001,2022-11-21_01h55.57.062,Info_measure_main_exp,2022.2.2,Win32,29.9940012,,,,,,,,,,,,,,,,,,masks/mask_001.jpg,,,,,,,,,,,,,,,,,,,,,,,,,,,,,,,,,,,,,,,,,,,0,3,3,0,1,,,,,,,,,,,,,,,,,,,,,,,,,,,,,,,,,,,,,,,,,,,,,,
231344,001,2022-11-21_01h55.57.062,Info_measure_main_exp,2022.2.2,Win32,29.9940012,,,,,,,,,,,,,,,,,,masks/mask_005.jpg,,,,,,,,,,,,,,,,,,,,,,,,,,,,,,,,,,,,,,,,,,,0,4,4,4,1,,,,,,,,,,,,,,,,,,,,,,,,,,,,,,,,,,,,,,,,,,,,,,
231344,001,2022-11-21_01h55.57.062,Info_measure_main_exp,2022.2.2,Win32,29.9940012,,,,,,,,,,,,,,,,,,masks/mask_001.jpg,,,,,,,,,,,,,,,,,,,,,,,,,,,,,,,,,,,,,,,,,,,,,,,,0,0,0,0,1,,,,,,,,,,,,,,,,,,,,,,,,,,,,,,,,,,,,,,,,,
231344,001,2022-11-21_01h55.57.062,Info_measure_main_exp,2022.2.2,Win32,29.9940012,,,,,,,,,,,,,,,,,,masks/mask_003.jpg,,,,,,,,,,,,,,,,,,,,,,,,,,,,,,,,,,,,,,,,,,,,,,,,0,1,1,2,1,,,,,,,,,,,,,,,,,,,,,,,,,,,,,,,,,,,,,,,,,
231344,001,2022-11-21_01h55.57.062,Info_measure_main_exp,2022.2.2,Win32,29.9940012,,,,,,,,,,,,,,,,,,masks/mask_004.jpg,,,,,,,,,,,,,,,,,,,,,,,,,,,,,,,,,,,,,,,,,,,,,,,,0,2,2,3,1,,,,,,,,,,,,,,,,,,,,,,,,,,,,,,,,,,,,,,,,,
231344,001,2022-11-21_01h55.57.062,Info_measure_main_exp,2022.2.2,Win32,29.9940012,,,,,,,,,,,,,,,,,,masks/mask_005.jpg,,,,,,,,,,,,,,,,,,,,,,,,,,,,,,,,,,,,,,,,,,,,,,,,0,3,3,4,1,,,,,,,,,,,,,,,,,,,,,,,,,,,,,,,,,,,,,,,,,
231344,001,2022-11-21_01h55.57.062,Info_measure_main_exp,2022.2.2,Win32,29.9940012,,,,,,,,,,,,,,,,,,masks/mask_002.jpg,,,,,,,,,,,,,,,,,,,,,,,,,,,,,,,,,,,,,,,,,,,,,,,,0,4,4,1,1,,,,,,,,,,,,,,,,,,,,,,,,,,,,,,,,,,,,,,,,,
231344,001,2022-11-21_01h55.57.062,Info_measure_main_exp,2022.2.2,Win32,29.9940012,,,,,,,,,,,,,,,,,,,,,,,,,,,,,,6,0.405,1,,,,,,,,,,,,0,131,5,5,2274,1950,absent_patch/patch0002274.jpg,absent_patch/patch0001950.jpg,,,,,,,,,,,,,,,,,,,,0.022135417,0.00390625,1,0,0,response1disk,16,-0.006510417,-0.01171875,1,0,0,center_square,0,15,15,10,1,,,,,,,,,,,,,,,,,,,,,,,
231344,001,2022-11-21_01h55.57.062,Info_measure_main_exp,2022.2.2,Win32,29.9940012,,,,,,,,,,,,,,,,,,masks/mask_005.jpg,,,,,,,,,,,,,,,,,,,,,,,,,,,,,,,,,,,,,,,,,,,0,0,0,4,1,,,,,,,,,,,,,,,,,,,,,,,,,,,,,,,,,,,,,,,,,,,,,,
231344,001,2022-11-21_01h55.57.062,Info_measure_main_exp,2022.2.2,Win32,29.9940012,,,,,,,,,,,,,,,,,,masks/mask_001.jpg,,,,,,,,,,,,,,,,,,,,,,,,,,,,,,,,,,,,,,,,,,,0,1,1,0,1,,,,,,,,,,,,,,,,,,,,,,,,,,,,,,,,,,,,,,,,,,,,,,
231344,001,2022-11-21_01h55.57.062,Info_measure_main_exp,2022.2.2,Win32,29.9940012,,,,,,,,,,,,,,,,,,masks/mask_003.jpg,,,,,,,,,,,,,,,,,,,,,,,,,,,,,,,,,,,,,,,,,,,0,2,2,2,1,,,,,,,,,,,,,,,,,,,,,,,,,,,,,,,,,,,,,,,,,,,,,,
231344,001,2022-11-21_01h55.57.062,Info_measure_main_exp,2022.2.2,Win32,29.9940012,,,,,,,,,,,,,,,,,,masks/mask_002.jpg,,,,,,,,,,,,,,,,,,,,,,,,,,,,,,,,,,,,,,,,,,,0,3,3,1,1,,,,,,,,,,,,,,,,,,,,,,,,,,,,,,,,,,,,,,,,,,,,,,
231344,001,2022-11-21_01h55.57.062,Info_measure_main_exp,2022.2.2,Win32,29.9940012,,,,,,,,,,,,,,,,,,masks/mask_004.jpg,,,,,,,,,,,,,,,,,,,,,,,,,,,,,,,,,,,,,,,,,,,0,4,4,3,1,,,,,,,,,,,,,,,,,,,,,,,,,,,,,,,,,,,,,,,,,,,,,,
231344,001,2022-11-21_01h55.57.062,Info_measure_main_exp,2022.2.2,Win32,29.9940012,,,,,,,,,,,,,,,,,,masks/mask_001.jpg,,,,,,,,,,,,,,,,,,,,,,,,,,,,,,,,,,,,,,,,,,,,,,,,0,0,0,0,1,,,,,,,,,,,,,,,,,,,,,,,,,,,,,,,,,,,,,,,,,
231344,001,2022-11-21_01h55.57.062,Info_measure_main_exp,2022.2.2,Win32,29.9940012,,,,,,,,,,,,,,,,,,masks/mask_005.jpg,,,,,,,,,,,,,,,,,,,,,,,,,,,,,,,,,,,,,,,,,,,,,,,,0,1,1,4,1,,,,,,,,,,,,,,,,,,,,,,,,,,,,,,,,,,,,,,,,,
231344,001,2022-11-21_01h55.57.062,Info_measure_main_exp,2022.2.2,Win32,29.9940012,,,,,,,,,,,,,,,,,,masks/mask_004.jpg,,,,,,,,,,,,,,,,,,,,,,,,,,,,,,,,,,,,,,,,,,,,,,,,0,2,2,3,1,,,,,,,,,,,,,,,,,,,,,,,,,,,,,,,,,,,,,,,,,
231344,001,2022-11-21_01h55.57.062,Info_measure_main_exp,2022.2.2,Win32,29.9940012,,,,,,,,,,,,,,,,,,masks/mask_002.jpg,,,,,,,,,,,,,,,,,,,,,,,,,,,,,,,,,,,,,,,,,,,,,,,,0,3,3,1,1,,,,,,,,,,,,,,,,,,,,,,,,,,,,,,,,,,,,,,,,,
231344,001,2022-11-21_01h55.57.062,Info_measure_main_exp,2022.2.2,Win32,29.9940012,,,,,,,,,,,,,,,,,,masks/mask_003.jpg,,,,,,,,,,,,,,,,,,,,,,,,,,,,,,,,,,,,,,,,,,,,,,,,0,4,4,2,1,,,,,,,,,,,,,,,,,,,,,,,,,,,,,,,,,,,,,,,,,
231344,001,2022-11-21_01h55.57.062,Info_measure_main_exp,2022.2.2,Win32,29.9940012,,,,,,,,,,,,,,,,,,,,,,,,,,,,,,1,0.128,1,,,,,,,,,,,,0,131,5,5,2250,2166,absent_patch/patch0002250.jpg,absent_patch/patch0002166.jpg,,,,,,,,,,,,,,,,,,,,-0.020833333,0.020833333,1,0,0,response7disk,17,0.009114583,0.0078125,1,0,0,center_square,0,16,16,60,1,,,,,,,,,,,,,,,,,,,,,,,
231344,001,2022-11-21_01h55.57.062,Info_measure_main_exp,2022.2.2,Win32,29.9940012,,,,,,,,,,,,,,,,,,masks/mask_002.jpg,,,,,,,,,,,,,,,,,,,,,,,,,,,,,,,,,,,,,,,,,,,0,0,0,1,1,,,,,,,,,,,,,,,,,,,,,,,,,,,,,,,,,,,,,,,,,,,,,,
231344,001,2022-11-21_01h55.57.062,Info_measure_main_exp,2022.2.2,Win32,29.9940012,,,,,,,,,,,,,,,,,,masks/mask_004.jpg,,,,,,,,,,,,,,,,,,,,,,,,,,,,,,,,,,,,,,,,,,,0,1,1,3,1,,,,,,,,,,,,,,,,,,,,,,,,,,,,,,,,,,,,,,,,,,,,,,
231344,001,2022-11-21_01h55.57.062,Info_measure_main_exp,2022.2.2,Win32,29.9940012,,,,,,,,,,,,,,,,,,masks/mask_003.jpg,,,,,,,,,,,,,,,,,,,,,,,,,,,,,,,,,,,,,,,,,,,0,2,2,2,1,,,,,,,,,,,,,,,,,,,,,,,,,,,,,,,,,,,,,,,,,,,,,,
231344,001,2022-11-21_01h55.57.062,Info_measure_main_exp,2022.2.2,Win32,29.9940012,,,,,,,,,,,,,,,,,,masks/mask_005.jpg,,,,,,,,,,,,,,,,,,,,,,,,,,,,,,,,,,,,,,,,,,,0,3,3,4,1,,,,,,,,,,,,,,,,,,,,,,,,,,,,,,,,,,,,,,,,,,,,,,
231344,001,2022-11-21_01h55.57.062,Info_measure_main_exp,2022.2.2,Win32,29.9940012,,,,,,,,,,,,,,,,,,masks/mask_001.jpg,,,,,,,,,,,,,,,,,,,,,,,,,,,,,,,,,,,,,,,,,,,0,4,4,0,1,,,,,,,,,,,,,,,,,,,,,,,,,,,,,,,,,,,,,,,,,,,,,,
231344,001,2022-11-21_01h55.57.062,Info_measure_main_exp,2022.2.2,Win32,29.9940012,,,,,,,,,,,,,,,,,,masks/mask_003.jpg,,,,,,,,,,,,,,,,,,,,,,,,,,,,,,,,,,,,,,,,,,,,,,,,0,0,0,2,1,,,,,,,,,,,,,,,,,,,,,,,,,,,,,,,,,,,,,,,,,
231344,001,2022-11-21_01h55.57.062,Info_measure_main_exp,2022.2.2,Win32,29.9940012,,,,,,,,,,,,,,,,,,masks/mask_005.jpg,,,,,,,,,,,,,,,,,,,,,,,,,,,,,,,,,,,,,,,,,,,,,,,,0,1,1,4,1,,,,,,,,,,,,,,,,,,,,,,,,,,,,,,,,,,,,,,,,,
231344,001,2022-11-21_01h55.57.062,Info_measure_main_exp,2022.2.2,Win32,29.9940012,,,,,,,,,,,,,,,,,,masks/mask_004.jpg,,,,,,,,,,,,,,,,,,,,,,,,,,,,,,,,,,,,,,,,,,,,,,,,0,2,2,3,1,,,,,,,,,,,,,,,,,,,,,,,,,,,,,,,,,,,,,,,,,
231344,001,2022-11-21_01h55.57.062,Info_measure_main_exp,2022.2.2,Win32,29.9940012,,,,,,,,,,,,,,,,,,masks/mask_001.jpg,,,,,,,,,,,,,,,,,,,,,,,,,,,,,,,,,,,,,,,,,,,,,,,,0,3,3,0,1,,,,,,,,,,,,,,,,,,,,,,,,,,,,,,,,,,,,,,,,,
231344,001,2022-11-21_01h55.57.062,Info_measure_main_exp,2022.2.2,Win32,29.9940012,,,,,,,,,,,,,,,,,,masks/mask_002.jpg,,,,,,,,,,,,,,,,,,,,,,,,,,,,,,,,,,,,,,,,,,,,,,,,0,4,4,1,1,,,,,,,,,,,,,,,,,,,,,,,,,,,,,,,,,,,,,,,,,
231344,001,2022-11-21_01h55.57.062,Info_measure_main_exp,2022.2.2,Win32,29.9940012,,,,,,,,,,,,,,,,,,,,,,,,,,,,,,5,0.052,1,,,,,,,,,,,,0,131,5,5,2250,2298,absent_patch/patch0002250.jpg,absent_patch/patch0002298.jpg,,,,,,,,,,,,,,,,,,,,0.005208333,-0.005208333,1,0,0,response3disk,18,0.005208333,-0.005208333,1,0,0,center_square,0,17,17,59,1,,,,,,,,,,,,,,,,,,,,,,,
231344,001,2022-11-21_01h55.57.062,Info_measure_main_exp,2022.2.2,Win32,29.9940012,,,,,,,,,,,,,,,,,,masks/mask_005.jpg,,,,,,,,,,,,,,,,,,,,,,,,,,,,,,,,,,,,,,,,,,,0,0,0,4,1,,,,,,,,,,,,,,,,,,,,,,,,,,,,,,,,,,,,,,,,,,,,,,
231344,001,2022-11-21_01h55.57.062,Info_measure_main_exp,2022.2.2,Win32,29.9940012,,,,,,,,,,,,,,,,,,masks/mask_001.jpg,,,,,,,,,,,,,,,,,,,,,,,,,,,,,,,,,,,,,,,,,,,0,1,1,0,1,,,,,,,,,,,,,,,,,,,,,,,,,,,,,,,,,,,,,,,,,,,,,,
231344,001,2022-11-21_01h55.57.062,Info_measure_main_exp,2022.2.2,Win32,29.9940012,,,,,,,,,,,,,,,,,,masks/mask_003.jpg,,,,,,,,,,,,,,,,,,,,,,,,,,,,,,,,,,,,,,,,,,,0,2,2,2,1,,,,,,,,,,,,,,,,,,,,,,,,,,,,,,,,,,,,,,,,,,,,,,
231344,001,2022-11-21_01h55.57.062,Info_measure_main_exp,2022.2.2,Win32,29.9940012,,,,,,,,,,,,,,,,,,masks/mask_002.jpg,,,,,,,,,,,,,,,,,,,,,,,,,,,,,,,,,,,,,,,,,,,0,3,3,1,1,,,,,,,,,,,,,,,,,,,,,,,,,,,,,,,,,,,,,,,,,,,,,,
231344,001,2022-11-21_01h55.57.062,Info_measure_main_exp,2022.2.2,Win32,29.9940012,,,,,,,,,,,,,,,,,,masks/mask_004.jpg,,,,,,,,,,,,,,,,,,,,,,,,,,,,,,,,,,,,,,,,,,,0,4,4,3,1,,,,,,,,,,,,,,,,,,,,,,,,,,,,,,,,,,,,,,,,,,,,,,
231344,001,2022-11-21_01h55.57.062,Info_measure_main_exp,2022.2.2,Win32,29.9940012,,,,,,,,,,,,,,,,,,masks/mask_005.jpg,,,,,,,,,,,,,,,,,,,,,,,,,,,,,,,,,,,,,,,,,,,,,,,,0,0,0,4,1,,,,,,,,,,,,,,,,,,,,,,,,,,,,,,,,,,,,,,,,,
231344,001,2022-11-21_01h55.57.062,Info_measure_main_exp,2022.2.2,Win32,29.9940012,,,,,,,,,,,,,,,,,,masks/mask_002.jpg,,,,,,,,,,,,,,,,,,,,,,,,,,,,,,,,,,,,,,,,,,,,,,,,0,1,1,1,1,,,,,,,,,,,,,,,,,,,,,,,,,,,,,,,,,,,,,,,,,
231344,001,2022-11-21_01h55.57.062,Info_measure_main_exp,2022.2.2,Win32,29.9940012,,,,,,,,,,,,,,,,,,masks/mask_001.jpg,,,,,,,,,,,,,,,,,,,,,,,,,,,,,,,,,,,,,,,,,,,,,,,,0,2,2,0,1,,,,,,,,,,,,,,,,,,,,,,,,,,,,,,,,,,,,,,,,,
231344,001,2022-11-21_01h55.57.062,Info_measure_main_exp,2022.2.2,Win32,29.9940012,,,,,,,,,,,,,,,,,,masks/mask_003.jpg,,,,,,,,,,,,,,,,,,,,,,,,,,,,,,,,,,,,,,,,,,,,,,,,0,3,3,2,1,,,,,,,,,,,,,,,,,,,,,,,,,,,,,,,,,,,,,,,,,
231344,001,2022-11-21_01h55.57.062,Info_measure_main_exp,2022.2.2,Win32,29.9940012,,,,,,,,,,,,,,,,,,masks/mask_004.jpg,,,,,,,,,,,,,,,,,,,,,,,,,,,,,,,,,,,,,,,,,,,,,,,,0,4,4,3,1,,,,,,,,,,,,,,,,,,,,,,,,,,,,,,,,,,,,,,,,,
231344,001,2022-11-21_01h55.57.062,Info_measure_main_exp,2022.2.2,Win32,29.9940012,,,,,,,,,,,,,,,,,,,,,,,,,,,,,,2,0.296,1,,,,,,,,,,,,0,131,5,5,2274,2178,absent_patch/patch0002274.jpg,absent_patch/patch0002178.jpg,,,,,,,,,,,,,,,,,,,,-0.016927083,-0.01171875,1,0,0,response5disk,19,-0.01171875,0.002604167,1,0,0,center_square,0,18,18,117,1,,,,,,,,,,,,,,,,,,,,,,,
231344,001,2022-11-21_01h55.57.062,Info_measure_main_exp,2022.2.2,Win32,29.9940012,,,,,,,,,,,,,,,,,,masks/mask_002.jpg,,,,,,,,,,,,,,,,,,,,,,,,,,,,,,,,,,,,,,,,,,,0,0,0,1,1,,,,,,,,,,,,,,,,,,,,,,,,,,,,,,,,,,,,,,,,,,,,,,
231344,001,2022-11-21_01h55.57.062,Info_measure_main_exp,2022.2.2,Win32,29.9940012,,,,,,,,,,,,,,,,,,masks/mask_003.jpg,,,,,,,,,,,,,,,,,,,,,,,,,,,,,,,,,,,,,,,,,,,0,1,1,2,1,,,,,,,,,,,,,,,,,,,,,,,,,,,,,,,,,,,,,,,,,,,,,,
231344,001,2022-11-21_01h55.57.062,Info_measure_main_exp,2022.2.2,Win32,29.9940012,,,,,,,,,,,,,,,,,,masks/mask_005.jpg,,,,,,,,,,,,,,,,,,,,,,,,,,,,,,,,,,,,,,,,,,,0,2,2,4,1,,,,,,,,,,,,,,,,,,,,,,,,,,,,,,,,,,,,,,,,,,,,,,
231344,001,2022-11-21_01h55.57.062,Info_measure_main_exp,2022.2.2,Win32,29.9940012,,,,,,,,,,,,,,,,,,masks/mask_001.jpg,,,,,,,,,,,,,,,,,,,,,,,,,,,,,,,,,,,,,,,,,,,0,3,3,0,1,,,,,,,,,,,,,,,,,,,,,,,,,,,,,,,,,,,,,,,,,,,,,,
231344,001,2022-11-21_01h55.57.062,Info_measure_main_exp,2022.2.2,Win32,29.9940012,,,,,,,,,,,,,,,,,,masks/mask_004.jpg,,,,,,,,,,,,,,,,,,,,,,,,,,,,,,,,,,,,,,,,,,,0,4,4,3,1,,,,,,,,,,,,,,,,,,,,,,,,,,,,,,,,,,,,,,,,,,,,,,
231344,001,2022-11-21_01h55.57.062,Info_measure_main_exp,2022.2.2,Win32,29.9940012,,,,,,,,,,,,,,,,,,masks/mask_003.jpg,,,,,,,,,,,,,,,,,,,,,,,,,,,,,,,,,,,,,,,,,,,,,,,,0,0,0,2,1,,,,,,,,,,,,,,,,,,,,,,,,,,,,,,,,,,,,,,,,,
231344,001,2022-11-21_01h55.57.062,Info_measure_main_exp,2022.2.2,Win32,29.9940012,,,,,,,,,,,,,,,,,,masks/mask_002.jpg,,,,,,,,,,,,,,,,,,,,,,,,,,,,,,,,,,,,,,,,,,,,,,,,0,1,1,1,1,,,,,,,,,,,,,,,,,,,,,,,,,,,,,,,,,,,,,,,,,
231344,001,2022-11-21_01h55.57.062,Info_measure_main_exp,2022.2.2,Win32,29.9940012,,,,,,,,,,,,,,,,,,masks/mask_004.jpg,,,,,,,,,,,,,,,,,,,,,,,,,,,,,,,,,,,,,,,,,,,,,,,,0,2,2,3,1,,,,,,,,,,,,,,,,,,,,,,,,,,,,,,,,,,,,,,,,,
231344,001,2022-11-21_01h55.57.062,Info_measure_main_exp,2022.2.2,Win32,29.9940012,,,,,,,,,,,,,,,,,,masks/mask_001.jpg,,,,,,,,,,,,,,,,,,,,,,,,,,,,,,,,,,,,,,,,,,,,,,,,0,3,3,0,1,,,,,,,,,,,,,,,,,,,,,,,,,,,,,,,,,,,,,,,,,
231344,001,2022-11-21_01h55.57.062,Info_measure_main_exp,2022.2.2,Win32,29.9940012,,,,,,,,,,,,,,,,,,masks/mask_005.jpg,,,,,,,,,,,,,,,,,,,,,,,,,,,,,,,,,,,,,,,,,,,,,,,,0,4,4,4,1,,,,,,,,,,,,,,,,,,,,,,,,,,,,,,,,,,,,,,,,,
231344,001,2022-11-21_01h55.57.062,Info_measure_main_exp,2022.2.2,Win32,29.9940012,,,,,,,,,,,,,,,,,,,,,,,,,,,,,,6,0.825,1,,,,,,,,,,,,0,131,5,5,2298,2142,absent_patch/patch0002298.jpg,absent_patch/patch0002142.jpg,,,,,,,,,,,,,,,,,,,,0.00390625,0.002604167,1,0,0,response1disk,20,0.00390625,0.002604167,1,0,0,center_square,0,19,19,49,1,,,,,,,,,,,,,,,,,,,,,,,
231344,001,2022-11-21_01h55.57.062,Info_measure_main_exp,2022.2.2,Win32,29.9940012,,,,,,,,,,,,,,,,,,masks/mask_003.jpg,,,,,,,,,,,,,,,,,,,,,,,,,,,,,,,,,,,,,,,,,,,0,0,0,2,1,,,,,,,,,,,,,,,,,,,,,,,,,,,,,,,,,,,,,,,,,,,,,,
231344,001,2022-11-21_01h55.57.062,Info_measure_main_exp,2022.2.2,Win32,29.9940012,,,,,,,,,,,,,,,,,,masks/mask_002.jpg,,,,,,,,,,,,,,,,,,,,,,,,,,,,,,,,,,,,,,,,,,,0,1,1,1,1,,,,,,,,,,,,,,,,,,,,,,,,,,,,,,,,,,,,,,,,,,,,,,
231344,001,2022-11-21_01h55.57.062,Info_measure_main_exp,2022.2.2,Win32,29.9940012,,,,,,,,,,,,,,,,,,masks/mask_004.jpg,,,,,,,,,,,,,,,,,,,,,,,,,,,,,,,,,,,,,,,,,,,0,2,2,3,1,,,,,,,,,,,,,,,,,,,,,,,,,,,,,,,,,,,,,,,,,,,,,,
231344,001,2022-11-21_01h55.57.062,Info_measure_main_exp,2022.2.2,Win32,29.9940012,,,,,,,,,,,,,,,,,,masks/mask_001.jpg,,,,,,,,,,,,,,,,,,,,,,,,,,,,,,,,,,,,,,,,,,,0,3,3,0,1,,,,,,,,,,,,,,,,,,,,,,,,,,,,,,,,,,,,,,,,,,,,,,
231344,001,2022-11-21_01h55.57.062,Info_measure_main_exp,2022.2.2,Win32,29.9940012,,,,,,,,,,,,,,,,,,masks/mask_005.jpg,,,,,,,,,,,,,,,,,,,,,,,,,,,,,,,,,,,,,,,,,,,0,4,4,4,1,,,,,,,,,,,,,,,,,,,,,,,,,,,,,,,,,,,,,,,,,,,,,,
231344,001,2022-11-21_01h55.57.062,Info_measure_main_exp,2022.2.2,Win32,29.9940012,,,,,,,,,,,,,,,,,,masks/mask_004.jpg,,,,,,,,,,,,,,,,,,,,,,,,,,,,,,,,,,,,,,,,,,,,,,,,0,0,0,3,1,,,,,,,,,,,,,,,,,,,,,,,,,,,,,,,,,,,,,,,,,
231344,001,2022-11-21_01h55.57.062,Info_measure_main_exp,2022.2.2,Win32,29.9940012,,,,,,,,,,,,,,,,,,masks/mask_005.jpg,,,,,,,,,,,,,,,,,,,,,,,,,,,,,,,,,,,,,,,,,,,,,,,,0,1,1,4,1,,,,,,,,,,,,,,,,,,,,,,,,,,,,,,,,,,,,,,,,,
231344,001,2022-11-21_01h55.57.062,Info_measure_main_exp,2022.2.2,Win32,29.9940012,,,,,,,,,,,,,,,,,,masks/mask_002.jpg,,,,,,,,,,,,,,,,,,,,,,,,,,,,,,,,,,,,,,,,,,,,,,,,0,2,2,1,1,,,,,,,,,,,,,,,,,,,,,,,,,,,,,,,,,,,,,,,,,
231344,001,2022-11-21_01h55.57.062,Info_measure_main_exp,2022.2.2,Win32,29.9940012,,,,,,,,,,,,,,,,,,masks/mask_001.jpg,,,,,,,,,,,,,,,,,,,,,,,,,,,,,,,,,,,,,,,,,,,,,,,,0,3,3,0,1,,,,,,,,,,,,,,,,,,,,,,,,,,,,,,,,,,,,,,,,,
231344,001,2022-11-21_01h55.57.062,Info_measure_main_exp,2022.2.2,Win32,29.9940012,,,,,,,,,,,,,,,,,,masks/mask_003.jpg,,,,,,,,,,,,,,,,,,,,,,,,,,,,,,,,,,,,,,,,,,,,,,,,0,4,4,2,1,,,,,,,,,,,,,,,,,,,,,,,,,,,,,,,,,,,,,,,,,
231344,001,2022-11-21_01h55.57.062,Info_measure_main_exp,2022.2.2,Win32,29.9940012,,,,,,,,,,,,,,,,,,,,,,,,,,,,,,6,0.755,1,,,,,,,,,,,,0,131,5,5,2154,2250,absent_patch/patch0002154.jpg,absent_patch/patch0002250.jpg,,,,,,,,,,,,,,,,,,,,0.01953125,0.005208333,1,0,0,response1disk,21,0.010416667,-0.013020833,1,0,0,center_square,0,20,20,108,1,,,,,,,,,,,,,,,,,,,,,,,
231344,001,2022-11-21_01h55.57.062,Info_measure_main_exp,2022.2.2,Win32,29.9940012,,,,,,,,,,,,,,,,,,masks/mask_001.jpg,,,,,,,,,,,,,,,,,,,,,,,,,,,,,,,,,,,,,,,,,,,0,0,0,0,1,,,,,,,,,,,,,,,,,,,,,,,,,,,,,,,,,,,,,,,,,,,,,,
231344,001,2022-11-21_01h55.57.062,Info_measure_main_exp,2022.2.2,Win32,29.9940012,,,,,,,,,,,,,,,,,,masks/mask_002.jpg,,,,,,,,,,,,,,,,,,,,,,,,,,,,,,,,,,,,,,,,,,,0,1,1,1,1,,,,,,,,,,,,,,,,,,,,,,,,,,,,,,,,,,,,,,,,,,,,,,
231344,001,2022-11-21_01h55.57.062,Info_measure_main_exp,2022.2.2,Win32,29.9940012,,,,,,,,,,,,,,,,,,masks/mask_005.jpg,,,,,,,,,,,,,,,,,,,,,,,,,,,,,,,,,,,,,,,,,,,0,2,2,4,1,,,,,,,,,,,,,,,,,,,,,,,,,,,,,,,,,,,,,,,,,,,,,,
231344,001,2022-11-21_01h55.57.062,Info_measure_main_exp,2022.2.2,Win32,29.9940012,,,,,,,,,,,,,,,,,,masks/mask_004.jpg,,,,,,,,,,,,,,,,,,,,,,,,,,,,,,,,,,,,,,,,,,,0,3,3,3,1,,,,,,,,,,,,,,,,,,,,,,,,,,,,,,,,,,,,,,,,,,,,,,
231344,001,2022-11-21_01h55.57.062,Info_measure_main_exp,2022.2.2,Win32,29.9940012,,,,,,,,,,,,,,,,,,masks/mask_003.jpg,,,,,,,,,,,,,,,,,,,,,,,,,,,,,,,,,,,,,,,,,,,0,4,4,2,1,,,,,,,,,,,,,,,,,,,,,,,,,,,,,,,,,,,,,,,,,,,,,,
231344,001,2022-11-21_01h55.57.062,Info_measure_main_exp,2022.2.2,Win32,29.9940012,,,,,,,,,,,,,,,,,,masks/mask_005.jpg,,,,,,,,,,,,,,,,,,,,,,,,,,,,,,,,,,,,,,,,,,,,,,,,0,0,0,4,1,,,,,,,,,,,,,,,,,,,,,,,,,,,,,,,,,,,,,,,,,
231344,001,2022-11-21_01h55.57.062,Info_measure_main_exp,2022.2.2,Win32,29.9940012,,,,,,,,,,,,,,,,,,masks/mask_001.jpg,,,,,,,,,,,,,,,,,,,,,,,,,,,,,,,,,,,,,,,,,,,,,,,,0,1,1,0,1,,,,,,,,,,,,,,,,,,,,,,,,,,,,,,,,,,,,,,,,,
231344,001,2022-11-21_01h55.57.062,Info_measure_main_exp,2022.2.2,Win32,29.9940012,,,,,,,,,,,,,,,,,,masks/mask_004.jpg,,,,,,,,,,,,,,,,,,,,,,,,,,,,,,,,,,,,,,,,,,,,,,,,0,2,2,3,1,,,,,,,,,,,,,,,,,,,,,,,,,,,,,,,,,,,,,,,,,
231344,001,2022-11-21_01h55.57.062,Info_measure_main_exp,2022.2.2,Win32,29.9940012,,,,,,,,,,,,,,,,,,masks/mask_002.jpg,,,,,,,,,,,,,,,,,,,,,,,,,,,,,,,,,,,,,,,,,,,,,,,,0,3,3,1,1,,,,,,,,,,,,,,,,,,,,,,,,,,,,,,,,,,,,,,,,,
231344,001,2022-11-21_01h55.57.062,Info_measure_main_exp,2022.2.2,Win32,29.9940012,,,,,,,,,,,,,,,,,,masks/mask_003.jpg,,,,,,,,,,,,,,,,,,,,,,,,,,,,,,,,,,,,,,,,,,,,,,,,0,4,4,2,1,,,,,,,,,,,,,,,,,,,,,,,,,,,,,,,,,,,,,,,,,
231344,001,2022-11-21_01h55.57.062,Info_measure_main_exp,2022.2.2,Win32,29.9940012,,,,,,,,,,,,,,,,,,,,,,,,,,,,,,6,0.215,1,,,,,,,,,,,,1,131,5,5,2082,1,absent_patch/patch0002082.jpg,present_patch/cong_131_5_a.jpg,,,,,,,,,,,,,,,,,,,,0.014322917,0.002604167,1,0,0,response1disk,22,0.014322917,0.002604167,1,0,0,center_square,0,21,21,65,1,,,,,,,,,,,,,,,,,,,,,,,
231344,001,2022-11-21_01h55.57.062,Info_measure_main_exp,2022.2.2,Win32,29.9940012,,,,,,,,,,,,,,,,,,masks/mask_002.jpg,,,,,,,,,,,,,,,,,,,,,,,,,,,,,,,,,,,,,,,,,,,0,0,0,1,1,,,,,,,,,,,,,,,,,,,,,,,,,,,,,,,,,,,,,,,,,,,,,,
231344,001,2022-11-21_01h55.57.062,Info_measure_main_exp,2022.2.2,Win32,29.9940012,,,,,,,,,,,,,,,,,,masks/mask_004.jpg,,,,,,,,,,,,,,,,,,,,,,,,,,,,,,,,,,,,,,,,,,,0,1,1,3,1,,,,,,,,,,,,,,,,,,,,,,,,,,,,,,,,,,,,,,,,,,,,,,
231344,001,2022-11-21_01h55.57.062,Info_measure_main_exp,2022.2.2,Win32,29.9940012,,,,,,,,,,,,,,,,,,masks/mask_005.jpg,,,,,,,,,,,,,,,,,,,,,,,,,,,,,,,,,,,,,,,,,,,0,2,2,4,1,,,,,,,,,,,,,,,,,,,,,,,,,,,,,,,,,,,,,,,,,,,,,,
231344,001,2022-11-21_01h55.57.062,Info_measure_main_exp,2022.2.2,Win32,29.9940012,,,,,,,,,,,,,,,,,,masks/mask_001.jpg,,,,,,,,,,,,,,,,,,,,,,,,,,,,,,,,,,,,,,,,,,,0,3,3,0,1,,,,,,,,,,,,,,,,,,,,,,,,,,,,,,,,,,,,,,,,,,,,,,
231344,001,2022-11-21_01h55.57.062,Info_measure_main_exp,2022.2.2,Win32,29.9940012,,,,,,,,,,,,,,,,,,masks/mask_003.jpg,,,,,,,,,,,,,,,,,,,,,,,,,,,,,,,,,,,,,,,,,,,0,4,4,2,1,,,,,,,,,,,,,,,,,,,,,,,,,,,,,,,,,,,,,,,,,,,,,,
231344,001,2022-11-21_01h55.57.062,Info_measure_main_exp,2022.2.2,Win32,29.9940012,,,,,,,,,,,,,,,,,,masks/mask_002.jpg,,,,,,,,,,,,,,,,,,,,,,,,,,,,,,,,,,,,,,,,,,,,,,,,0,0,0,1,1,,,,,,,,,,,,,,,,,,,,,,,,,,,,,,,,,,,,,,,,,
231344,001,2022-11-21_01h55.57.062,Info_measure_main_exp,2022.2.2,Win32,29.9940012,,,,,,,,,,,,,,,,,,masks/mask_005.jpg,,,,,,,,,,,,,,,,,,,,,,,,,,,,,,,,,,,,,,,,,,,,,,,,0,1,1,4,1,,,,,,,,,,,,,,,,,,,,,,,,,,,,,,,,,,,,,,,,,
231344,001,2022-11-21_01h55.57.062,Info_measure_main_exp,2022.2.2,Win32,29.9940012,,,,,,,,,,,,,,,,,,masks/mask_003.jpg,,,,,,,,,,,,,,,,,,,,,,,,,,,,,,,,,,,,,,,,,,,,,,,,0,2,2,2,1,,,,,,,,,,,,,,,,,,,,,,,,,,,,,,,,,,,,,,,,,
231344,001,2022-11-21_01h55.57.062,Info_measure_main_exp,2022.2.2,Win32,29.9940012,,,,,,,,,,,,,,,,,,masks/mask_001.jpg,,,,,,,,,,,,,,,,,,,,,,,,,,,,,,,,,,,,,,,,,,,,,,,,0,3,3,0,1,,,,,,,,,,,,,,,,,,,,,,,,,,,,,,,,,,,,,,,,,
231344,001,2022-11-21_01h55.57.062,Info_measure_main_exp,2022.2.2,Win32,29.9940012,,,,,,,,,,,,,,,,,,masks/mask_004.jpg,,,,,,,,,,,,,,,,,,,,,,,,,,,,,,,,,,,,,,,,,,,,,,,,0,4,4,3,1,,,,,,,,,,,,,,,,,,,,,,,,,,,,,,,,,,,,,,,,,
231344,001,2022-11-21_01h55.57.062,Info_measure_main_exp,2022.2.2,Win32,29.9940012,,,,,,,,,,,,,,,,,,,,,,,,,,,,,,4,2.977,1,,,,,,,,,,,,0,131,5,5,2214,1986,absent_patch/patch0002214.jpg,absent_patch/patch0001986.jpg,,,,,,,,,,,,,,,,,,,,0.01171875,-0.015625,1,0,0,response3disk,23,0.01171875,-0.015625,1,0,0,center_square,0,22,22,34,1,,,,,,,,,,,,,,,,,,,,,,,
231344,001,2022-11-21_01h55.57.062,Info_measure_main_exp,2022.2.2,Win32,29.9940012,,,,,,,,,,,,,,,,,,masks/mask_005.jpg,,,,,,,,,,,,,,,,,,,,,,,,,,,,,,,,,,,,,,,,,,,0,0,0,4,1,,,,,,,,,,,,,,,,,,,,,,,,,,,,,,,,,,,,,,,,,,,,,,
231344,001,2022-11-21_01h55.57.062,Info_measure_main_exp,2022.2.2,Win32,29.9940012,,,,,,,,,,,,,,,,,,masks/mask_002.jpg,,,,,,,,,,,,,,,,,,,,,,,,,,,,,,,,,,,,,,,,,,,0,1,1,1,1,,,,,,,,,,,,,,,,,,,,,,,,,,,,,,,,,,,,,,,,,,,,,,
231344,001,2022-11-21_01h55.57.062,Info_measure_main_exp,2022.2.2,Win32,29.9940012,,,,,,,,,,,,,,,,,,masks/mask_004.jpg,,,,,,,,,,,,,,,,,,,,,,,,,,,,,,,,,,,,,,,,,,,0,2,2,3,1,,,,,,,,,,,,,,,,,,,,,,,,,,,,,,,,,,,,,,,,,,,,,,
231344,001,2022-11-21_01h55.57.062,Info_measure_main_exp,2022.2.2,Win32,29.9940012,,,,,,,,,,,,,,,,,,masks/mask_001.jpg,,,,,,,,,,,,,,,,,,,,,,,,,,,,,,,,,,,,,,,,,,,0,3,3,0,1,,,,,,,,,,,,,,,,,,,,,,,,,,,,,,,,,,,,,,,,,,,,,,
231344,001,2022-11-21_01h55.57.062,Info_measure_main_exp,2022.2.2,Win32,29.9940012,,,,,,,,,,,,,,,,,,masks/mask_003.jpg,,,,,,,,,,,,,,,,,,,,,,,,,,,,,,,,,,,,,,,,,,,0,4,4,2,1,,,,,,,,,,,,,,,,,,,,,,,,,,,,,,,,,,,,,,,,,,,,,,
231344,001,2022-11-21_01h55.57.062,Info_measure_main_exp,2022.2.2,Win32,29.9940012,,,,,,,,,,,,,,,,,,masks/mask_005.jpg,,,,,,,,,,,,,,,,,,,,,,,,,,,,,,,,,,,,,,,,,,,,,,,,0,0,0,4,1,,,,,,,,,,,,,,,,,,,,,,,,,,,,,,,,,,,,,,,,,
231344,001,2022-11-21_01h55.57.062,Info_measure_main_exp,2022.2.2,Win32,29.9940012,,,,,,,,,,,,,,,,,,masks/mask_001.jpg,,,,,,,,,,,,,,,,,,,,,,,,,,,,,,,,,,,,,,,,,,,,,,,,0,1,1,0,1,,,,,,,,,,,,,,,,,,,,,,,,,,,,,,,,,,,,,,,,,
231344,001,2022-11-21_01h55.57.062,Info_measure_main_exp,2022.2.2,Win32,29.9940012,,,,,,,,,,,,,,,,,,masks/mask_002.jpg,,,,,,,,,,,,,,,,,,,,,,,,,,,,,,,,,,,,,,,,,,,,,,,,0,2,2,1,1,,,,,,,,,,,,,,,,,,,,,,,,,,,,,,,,,,,,,,,,,
231344,001,2022-11-21_01h55.57.062,Info_measure_main_exp,2022.2.2,Win32,29.9940012,,,,,,,,,,,,,,,,,,masks/mask_003.jpg,,,,,,,,,,,,,,,,,,,,,,,,,,,,,,,,,,,,,,,,,,,,,,,,0,3,3,2,1,,,,,,,,,,,,,,,,,,,,,,,,,,,,,,,,,,,,,,,,,
231344,001,2022-11-21_01h55.57.062,Info_measure_main_exp,2022.2.2,Win32,29.9940012,,,,,,,,,,,,,,,,,,masks/mask_004.jpg,,,,,,,,,,,,,,,,,,,,,,,,,,,,,,,,,,,,,,,,,,,,,,,,0,4,4,3,1,,,,,,,,,,,,,,,,,,,,,,,,,,,,,,,,,,,,,,,,,
231344,001,2022-11-21_01h55.57.062,Info_measure_main_exp,2022.2.2,Win32,29.9940012,,,,,,,,,,,,,,,,,,,,,,,,,,,,,,1,1.823,1,,,,,,,,,,,,1,131,5,5,1,1,present_patch/cong_131_5_a.jpg,present_patch/cong_131_5_a.jpg,,,,,,,,,,,,,,,,,,,,-0.04296875,0.028645833,1,0,0,response7disk,24,-0.009114583,0.0078125,1,0,0,center_square,0,23,23,30,1,,,,,,,,,,,,,,,,,,,,,,,
231344,001,2022-11-21_01h55.57.062,Info_measure_main_exp,2022.2.2,Win32,29.9940012,,,,,,,,,,,,,,,,,,masks/mask_001.jpg,,,,,,,,,,,,,,,,,,,,,,,,,,,,,,,,,,,,,,,,,,,0,0,0,0,1,,,,,,,,,,,,,,,,,,,,,,,,,,,,,,,,,,,,,,,,,,,,,,
231344,001,2022-11-21_01h55.57.062,Info_measure_main_exp,2022.2.2,Win32,29.9940012,,,,,,,,,,,,,,,,,,masks/mask_004.jpg,,,,,,,,,,,,,,,,,,,,,,,,,,,,,,,,,,,,,,,,,,,0,1,1,3,1,,,,,,,,,,,,,,,,,,,,,,,,,,,,,,,,,,,,,,,,,,,,,,
231344,001,2022-11-21_01h55.57.062,Info_measure_main_exp,2022.2.2,Win32,29.9940012,,,,,,,,,,,,,,,,,,masks/mask_005.jpg,,,,,,,,,,,,,,,,,,,,,,,,,,,,,,,,,,,,,,,,,,,0,2,2,4,1,,,,,,,,,,,,,,,,,,,,,,,,,,,,,,,,,,,,,,,,,,,,,,
231344,001,2022-11-21_01h55.57.062,Info_measure_main_exp,2022.2.2,Win32,29.9940012,,,,,,,,,,,,,,,,,,masks/mask_003.jpg,,,,,,,,,,,,,,,,,,,,,,,,,,,,,,,,,,,,,,,,,,,0,3,3,2,1,,,,,,,,,,,,,,,,,,,,,,,,,,,,,,,,,,,,,,,,,,,,,,
231344,001,2022-11-21_01h55.57.062,Info_measure_main_exp,2022.2.2,Win32,29.9940012,,,,,,,,,,,,,,,,,,masks/mask_002.jpg,,,,,,,,,,,,,,,,,,,,,,,,,,,,,,,,,,,,,,,,,,,0,4,4,1,1,,,,,,,,,,,,,,,,,,,,,,,,,,,,,,,,,,,,,,,,,,,,,,
231344,001,2022-11-21_01h55.57.062,Info_measure_main_exp,2022.2.2,Win32,29.9940012,,,,,,,,,,,,,,,,,,masks/mask_005.jpg,,,,,,,,,,,,,,,,,,,,,,,,,,,,,,,,,,,,,,,,,,,,,,,,0,0,0,4,1,,,,,,,,,,,,,,,,,,,,,,,,,,,,,,,,,,,,,,,,,
231344,001,2022-11-21_01h55.57.062,Info_measure_main_exp,2022.2.2,Win32,29.9940012,,,,,,,,,,,,,,,,,,masks/mask_002.jpg,,,,,,,,,,,,,,,,,,,,,,,,,,,,,,,,,,,,,,,,,,,,,,,,0,1,1,1,1,,,,,,,,,,,,,,,,,,,,,,,,,,,,,,,,,,,,,,,,,
231344,001,2022-11-21_01h55.57.062,Info_measure_main_exp,2022.2.2,Win32,29.9940012,,,,,,,,,,,,,,,,,,masks/mask_004.jpg,,,,,,,,,,,,,,,,,,,,,,,,,,,,,,,,,,,,,,,,,,,,,,,,0,2,2,3,1,,,,,,,,,,,,,,,,,,,,,,,,,,,,,,,,,,,,,,,,,
231344,001,2022-11-21_01h55.57.062,Info_measure_main_exp,2022.2.2,Win32,29.9940012,,,,,,,,,,,,,,,,,,masks/mask_001.jpg,,,,,,,,,,,,,,,,,,,,,,,,,,,,,,,,,,,,,,,,,,,,,,,,0,3,3,0,1,,,,,,,,,,,,,,,,,,,,,,,,,,,,,,,,,,,,,,,,,
231344,001,2022-11-21_01h55.57.062,Info_measure_main_exp,2022.2.2,Win32,29.9940012,,,,,,,,,,,,,,,,,,masks/mask_003.jpg,,,,,,,,,,,,,,,,,,,,,,,,,,,,,,,,,,,,,,,,,,,,,,,,0,4,4,2,1,,,,,,,,,,,,,,,,,,,,,,,,,,,,,,,,,,,,,,,,,
231344,001,2022-11-21_01h55.57.062,Info_measure_main_exp,2022.2.2,Win32,29.9940012,,,,,,,,,,,,,,,,,,,,,,,,,,,,,,4,0.841,1,,,,,,,,,,,,0,131,5,5,1950,2178,absent_patch/patch0001950.jpg,absent_patch/patch0002178.jpg,,,,,,,,,,,,,,,,,,,,0.0234375,-0.02734375,1,0,0,response3disk,25,0.006510417,0.002604167,1,0,0,center_square,0,24,24,61,1,,,,,,,,,,,,,,,,,,,,,,,
231344,001,2022-11-21_01h55.57.062,Info_measure_main_exp,2022.2.2,Win32,29.9940012,,,,,,,,,,,,,,,,,,masks/mask_004.jpg,,,,,,,,,,,,,,,,,,,,,,,,,,,,,,,,,,,,,,,,,,,0,0,0,3,1,,,,,,,,,,,,,,,,,,,,,,,,,,,,,,,,,,,,,,,,,,,,,,
231344,001,2022-11-21_01h55.57.062,Info_measure_main_exp,2022.2.2,Win32,29.9940012,,,,,,,,,,,,,,,,,,masks/mask_002.jpg,,,,,,,,,,,,,,,,,,,,,,,,,,,,,,,,,,,,,,,,,,,0,1,1,1,1,,,,,,,,,,,,,,,,,,,,,,,,,,,,,,,,,,,,,,,,,,,,,,
231344,001,2022-11-21_01h55.57.062,Info_measure_main_exp,2022.2.2,Win32,29.9940012,,,,,,,,,,,,,,,,,,masks/mask_001.jpg,,,,,,,,,,,,,,,,,,,,,,,,,,,,,,,,,,,,,,,,,,,0,2,2,0,1,,,,,,,,,,,,,,,,,,,,,,,,,,,,,,,,,,,,,,,,,,,,,,
231344,001,2022-11-21_01h55.57.062,Info_measure_main_exp,2022.2.2,Win32,29.9940012,,,,,,,,,,,,,,,,,,masks/mask_005.jpg,,,,,,,,,,,,,,,,,,,,,,,,,,,,,,,,,,,,,,,,,,,0,3,3,4,1,,,,,,,,,,,,,,,,,,,,,,,,,,,,,,,,,,,,,,,,,,,,,,
231344,001,2022-11-21_01h55.57.062,Info_measure_main_exp,2022.2.2,Win32,29.9940012,,,,,,,,,,,,,,,,,,masks/mask_003.jpg,,,,,,,,,,,,,,,,,,,,,,,,,,,,,,,,,,,,,,,,,,,0,4,4,2,1,,,,,,,,,,,,,,,,,,,,,,,,,,,,,,,,,,,,,,,,,,,,,,
231344,001,2022-11-21_01h55.57.062,Info_measure_main_exp,2022.2.2,Win32,29.9940012,,,,,,,,,,,,,,,,,,masks/mask_002.jpg,,,,,,,,,,,,,,,,,,,,,,,,,,,,,,,,,,,,,,,,,,,,,,,,0,0,0,1,1,,,,,,,,,,,,,,,,,,,,,,,,,,,,,,,,,,,,,,,,,
231344,001,2022-11-21_01h55.57.062,Info_measure_main_exp,2022.2.2,Win32,29.9940012,,,,,,,,,,,,,,,,,,masks/mask_001.jpg,,,,,,,,,,,,,,,,,,,,,,,,,,,,,,,,,,,,,,,,,,,,,,,,0,1,1,0,1,,,,,,,,,,,,,,,,,,,,,,,,,,,,,,,,,,,,,,,,,
231344,001,2022-11-21_01h55.57.062,Info_measure_main_exp,2022.2.2,Win32,29.9940012,,,,,,,,,,,,,,,,,,masks/mask_005.jpg,,,,,,,,,,,,,,,,,,,,,,,,,,,,,,,,,,,,,,,,,,,,,,,,0,2,2,4,1,,,,,,,,,,,,,,,,,,,,,,,,,,,,,,,,,,,,,,,,,
231344,001,2022-11-21_01h55.57.062,Info_measure_main_exp,2022.2.2,Win32,29.9940012,,,,,,,,,,,,,,,,,,masks/mask_003.jpg,,,,,,,,,,,,,,,,,,,,,,,,,,,,,,,,,,,,,,,,,,,,,,,,0,3,3,2,1,,,,,,,,,,,,,,,,,,,,,,,,,,,,,,,,,,,,,,,,,
231344,001,2022-11-21_01h55.57.062,Info_measure_main_exp,2022.2.2,Win32,29.9940012,,,,,,,,,,,,,,,,,,masks/mask_004.jpg,,,,,,,,,,,,,,,,,,,,,,,,,,,,,,,,,,,,,,,,,,,,,,,,0,4,4,3,1,,,,,,,,,,,,,,,,,,,,,,,,,,,,,,,,,,,,,,,,,
231344,001,2022-11-21_01h55.57.062,Info_measure_main_exp,2022.2.2,Win32,29.9940012,,,,,,,,,,,,,,,,,,,,,,,,,,,,,,7,1.386,1,,,,,,,,,,,,0,131,5,5,2274,2190,absent_patch/patch0002274.jpg,absent_patch/patch0002190.jpg,,,,,,,,,,,,,,,,,,,,0.0078125,0.057291667,1,0,0,response1disk,26,0.001302083,-0.006510417,1,0,0,center_square,0,25,25,116,1,,,,,,,,,,,,,,,,,,,,,,,
231344,001,2022-11-21_01h55.57.062,Info_measure_main_exp,2022.2.2,Win32,29.9940012,,,,,,,,,,,,,,,,,,masks/mask_001.jpg,,,,,,,,,,,,,,,,,,,,,,,,,,,,,,,,,,,,,,,,,,,0,0,0,0,1,,,,,,,,,,,,,,,,,,,,,,,,,,,,,,,,,,,,,,,,,,,,,,
231344,001,2022-11-21_01h55.57.062,Info_measure_main_exp,2022.2.2,Win32,29.9940012,,,,,,,,,,,,,,,,,,masks/mask_003.jpg,,,,,,,,,,,,,,,,,,,,,,,,,,,,,,,,,,,,,,,,,,,0,1,1,2,1,,,,,,,,,,,,,,,,,,,,,,,,,,,,,,,,,,,,,,,,,,,,,,
231344,001,2022-11-21_01h55.57.062,Info_measure_main_exp,2022.2.2,Win32,29.9940012,,,,,,,,,,,,,,,,,,masks/mask_002.jpg,,,,,,,,,,,,,,,,,,,,,,,,,,,,,,,,,,,,,,,,,,,0,2,2,1,1,,,,,,,,,,,,,,,,,,,,,,,,,,,,,,,,,,,,,,,,,,,,,,
231344,001,2022-11-21_01h55.57.062,Info_measure_main_exp,2022.2.2,Win32,29.9940012,,,,,,,,,,,,,,,,,,masks/mask_005.jpg,,,,,,,,,,,,,,,,,,,,,,,,,,,,,,,,,,,,,,,,,,,0,3,3,4,1,,,,,,,,,,,,,,,,,,,,,,,,,,,,,,,,,,,,,,,,,,,,,,
231344,001,2022-11-21_01h55.57.062,Info_measure_main_exp,2022.2.2,Win32,29.9940012,,,,,,,,,,,,,,,,,,masks/mask_004.jpg,,,,,,,,,,,,,,,,,,,,,,,,,,,,,,,,,,,,,,,,,,,0,4,4,3,1,,,,,,,,,,,,,,,,,,,,,,,,,,,,,,,,,,,,,,,,,,,,,,
231344,001,2022-11-21_01h55.57.062,Info_measure_main_exp,2022.2.2,Win32,29.9940012,,,,,,,,,,,,,,,,,,masks/mask_004.jpg,,,,,,,,,,,,,,,,,,,,,,,,,,,,,,,,,,,,,,,,,,,,,,,,0,0,0,3,1,,,,,,,,,,,,,,,,,,,,,,,,,,,,,,,,,,,,,,,,,
231344,001,2022-11-21_01h55.57.062,Info_measure_main_exp,2022.2.2,Win32,29.9940012,,,,,,,,,,,,,,,,,,masks/mask_003.jpg,,,,,,,,,,,,,,,,,,,,,,,,,,,,,,,,,,,,,,,,,,,,,,,,0,1,1,2,1,,,,,,,,,,,,,,,,,,,,,,,,,,,,,,,,,,,,,,,,,
231344,001,2022-11-21_01h55.57.062,Info_measure_main_exp,2022.2.2,Win32,29.9940012,,,,,,,,,,,,,,,,,,masks/mask_001.jpg,,,,,,,,,,,,,,,,,,,,,,,,,,,,,,,,,,,,,,,,,,,,,,,,0,2,2,0,1,,,,,,,,,,,,,,,,,,,,,,,,,,,,,,,,,,,,,,,,,
231344,001,2022-11-21_01h55.57.062,Info_measure_main_exp,2022.2.2,Win32,29.9940012,,,,,,,,,,,,,,,,,,masks/mask_005.jpg,,,,,,,,,,,,,,,,,,,,,,,,,,,,,,,,,,,,,,,,,,,,,,,,0,3,3,4,1,,,,,,,,,,,,,,,,,,,,,,,,,,,,,,,,,,,,,,,,,
231344,001,2022-11-21_01h55.57.062,Info_measure_main_exp,2022.2.2,Win32,29.9940012,,,,,,,,,,,,,,,,,,masks/mask_002.jpg,,,,,,,,,,,,,,,,,,,,,,,,,,,,,,,,,,,,,,,,,,,,,,,,0,4,4,1,1,,,,,,,,,,,,,,,,,,,,,,,,,,,,,,,,,,,,,,,,,
231344,001,2022-11-21_01h55.57.062,Info_measure_main_exp,2022.2.2,Win32,29.9940012,,,,,,,,,,,,,,,,,,,,,,,,,,,,,,1,1.184,1,,,,,,,,,,,,0,131,5,5,2190,2190,absent_patch/patch0002190.jpg,absent_patch/patch0002190.jpg,,,,,,,,,,,,,,,,,,,,-0.045572917,0.0234375,1,0,0,response7disk,27,0.00390625,0.00390625,1,0,0,center_square,0,26,26,86,1,,,,,,,,,,,,,,,,,,,,,,,
231344,001,2022-11-21_01h55.57.062,Info_measure_main_exp,2022.2.2,Win32,29.9940012,,,,,,,,,,,,,,,,,,masks/mask_001.jpg,,,,,,,,,,,,,,,,,,,,,,,,,,,,,,,,,,,,,,,,,,,0,0,0,0,1,,,,,,,,,,,,,,,,,,,,,,,,,,,,,,,,,,,,,,,,,,,,,,
231344,001,2022-11-21_01h55.57.062,Info_measure_main_exp,2022.2.2,Win32,29.9940012,,,,,,,,,,,,,,,,,,masks/mask_004.jpg,,,,,,,,,,,,,,,,,,,,,,,,,,,,,,,,,,,,,,,,,,,0,1,1,3,1,,,,,,,,,,,,,,,,,,,,,,,,,,,,,,,,,,,,,,,,,,,,,,
231344,001,2022-11-21_01h55.57.062,Info_measure_main_exp,2022.2.2,Win32,29.9940012,,,,,,,,,,,,,,,,,,masks/mask_005.jpg,,,,,,,,,,,,,,,,,,,,,,,,,,,,,,,,,,,,,,,,,,,0,2,2,4,1,,,,,,,,,,,,,,,,,,,,,,,,,,,,,,,,,,,,,,,,,,,,,,
231344,001,2022-11-21_01h55.57.062,Info_measure_main_exp,2022.2.2,Win32,29.9940012,,,,,,,,,,,,,,,,,,masks/mask_002.jpg,,,,,,,,,,,,,,,,,,,,,,,,,,,,,,,,,,,,,,,,,,,0,3,3,1,1,,,,,,,,,,,,,,,,,,,,,,,,,,,,,,,,,,,,,,,,,,,,,,
231344,001,2022-11-21_01h55.57.062,Info_measure_main_exp,2022.2.2,Win32,29.9940012,,,,,,,,,,,,,,,,,,masks/mask_003.jpg,,,,,,,,,,,,,,,,,,,,,,,,,,,,,,,,,,,,,,,,,,,0,4,4,2,1,,,,,,,,,,,,,,,,,,,,,,,,,,,,,,,,,,,,,,,,,,,,,,
231344,001,2022-11-21_01h55.57.062,Info_measure_main_exp,2022.2.2,Win32,29.9940012,,,,,,,,,,,,,,,,,,masks/mask_005.jpg,,,,,,,,,,,,,,,,,,,,,,,,,,,,,,,,,,,,,,,,,,,,,,,,0,0,0,4,1,,,,,,,,,,,,,,,,,,,,,,,,,,,,,,,,,,,,,,,,,
231344,001,2022-11-21_01h55.57.062,Info_measure_main_exp,2022.2.2,Win32,29.9940012,,,,,,,,,,,,,,,,,,masks/mask_001.jpg,,,,,,,,,,,,,,,,,,,,,,,,,,,,,,,,,,,,,,,,,,,,,,,,0,1,1,0,1,,,,,,,,,,,,,,,,,,,,,,,,,,,,,,,,,,,,,,,,,
231344,001,2022-11-21_01h55.57.062,Info_measure_main_exp,2022.2.2,Win32,29.9940012,,,,,,,,,,,,,,,,,,masks/mask_002.jpg,,,,,,,,,,,,,,,,,,,,,,,,,,,,,,,,,,,,,,,,,,,,,,,,0,2,2,1,1,,,,,,,,,,,,,,,,,,,,,,,,,,,,,,,,,,,,,,,,,
231344,001,2022-11-21_01h55.57.062,Info_measure_main_exp,2022.2.2,Win32,29.9940012,,,,,,,,,,,,,,,,,,masks/mask_004.jpg,,,,,,,,,,,,,,,,,,,,,,,,,,,,,,,,,,,,,,,,,,,,,,,,0,3,3,3,1,,,,,,,,,,,,,,,,,,,,,,,,,,,,,,,,,,,,,,,,,
231344,001,2022-11-21_01h55.57.062,Info_measure_main_exp,2022.2.2,Win32,29.9940012,,,,,,,,,,,,,,,,,,masks/mask_003.jpg,,,,,,,,,,,,,,,,,,,,,,,,,,,,,,,,,,,,,,,,,,,,,,,,0,4,4,2,1,,,,,,,,,,,,,,,,,,,,,,,,,,,,,,,,,,,,,,,,,
231344,001,2022-11-21_01h55.57.062,Info_measure_main_exp,2022.2.2,Win32,29.9940012,,,,,,,,,,,,,,,,,,,,,,,,,,,,,,6,0.794,1,,,,,,,,,,,,0,131,5,5,2190,2166,absent_patch/patch0002190.jpg,absent_patch/patch0002166.jpg,,,,,,,,,,,,,,,,,,,,0.040364583,0.0078125,1,0,0,response1disk,28,-0.002604167,-0.006510417,1,0,0,center_square,0,27,27,50,1,,,,,,,,,,,,,,,,,,,,,,,
231344,001,2022-11-21_01h55.57.062,Info_measure_main_exp,2022.2.2,Win32,29.9940012,,,,,,,,,,,,,,,,,,masks/mask_002.jpg,,,,,,,,,,,,,,,,,,,,,,,,,,,,,,,,,,,,,,,,,,,0,0,0,1,1,,,,,,,,,,,,,,,,,,,,,,,,,,,,,,,,,,,,,,,,,,,,,,
231344,001,2022-11-21_01h55.57.062,Info_measure_main_exp,2022.2.2,Win32,29.9940012,,,,,,,,,,,,,,,,,,masks/mask_004.jpg,,,,,,,,,,,,,,,,,,,,,,,,,,,,,,,,,,,,,,,,,,,0,1,1,3,1,,,,,,,,,,,,,,,,,,,,,,,,,,,,,,,,,,,,,,,,,,,,,,
231344,001,2022-11-21_01h55.57.062,Info_measure_main_exp,2022.2.2,Win32,29.9940012,,,,,,,,,,,,,,,,,,masks/mask_003.jpg,,,,,,,,,,,,,,,,,,,,,,,,,,,,,,,,,,,,,,,,,,,0,2,2,2,1,,,,,,,,,,,,,,,,,,,,,,,,,,,,,,,,,,,,,,,,,,,,,,
231344,001,2022-11-21_01h55.57.062,Info_measure_main_exp,2022.2.2,Win32,29.9940012,,,,,,,,,,,,,,,,,,masks/mask_001.jpg,,,,,,,,,,,,,,,,,,,,,,,,,,,,,,,,,,,,,,,,,,,0,3,3,0,1,,,,,,,,,,,,,,,,,,,,,,,,,,,,,,,,,,,,,,,,,,,,,,
231344,001,2022-11-21_01h55.57.062,Info_measure_main_exp,2022.2.2,Win32,29.9940012,,,,,,,,,,,,,,,,,,masks/mask_005.jpg,,,,,,,,,,,,,,,,,,,,,,,,,,,,,,,,,,,,,,,,,,,0,4,4,4,1,,,,,,,,,,,,,,,,,,,,,,,,,,,,,,,,,,,,,,,,,,,,,,
231344,001,2022-11-21_01h55.57.062,Info_measure_main_exp,2022.2.2,Win32,29.9940012,,,,,,,,,,,,,,,,,,masks/mask_003.jpg,,,,,,,,,,,,,,,,,,,,,,,,,,,,,,,,,,,,,,,,,,,,,,,,0,0,0,2,1,,,,,,,,,,,,,,,,,,,,,,,,,,,,,,,,,,,,,,,,,
231344,001,2022-11-21_01h55.57.062,Info_measure_main_exp,2022.2.2,Win32,29.9940012,,,,,,,,,,,,,,,,,,masks/mask_001.jpg,,,,,,,,,,,,,,,,,,,,,,,,,,,,,,,,,,,,,,,,,,,,,,,,0,1,1,0,1,,,,,,,,,,,,,,,,,,,,,,,,,,,,,,,,,,,,,,,,,
231344,001,2022-11-21_01h55.57.062,Info_measure_main_exp,2022.2.2,Win32,29.9940012,,,,,,,,,,,,,,,,,,masks/mask_002.jpg,,,,,,,,,,,,,,,,,,,,,,,,,,,,,,,,,,,,,,,,,,,,,,,,0,2,2,1,1,,,,,,,,,,,,,,,,,,,,,,,,,,,,,,,,,,,,,,,,,
231344,001,2022-11-21_01h55.57.062,Info_measure_main_exp,2022.2.2,Win32,29.9940012,,,,,,,,,,,,,,,,,,masks/mask_005.jpg,,,,,,,,,,,,,,,,,,,,,,,,,,,,,,,,,,,,,,,,,,,,,,,,0,3,3,4,1,,,,,,,,,,,,,,,,,,,,,,,,,,,,,,,,,,,,,,,,,
231344,001,2022-11-21_01h55.57.062,Info_measure_main_exp,2022.2.2,Win32,29.9940012,,,,,,,,,,,,,,,,,,masks/mask_004.jpg,,,,,,,,,,,,,,,,,,,,,,,,,,,,,,,,,,,,,,,,,,,,,,,,0,4,4,3,1,,,,,,,,,,,,,,,,,,,,,,,,,,,,,,,,,,,,,,,,,
231344,001,2022-11-21_01h55.57.062,Info_measure_main_exp,2022.2.2,Win32,29.9940012,,,,,,,,,,,,,,,,,,,,,,,,,,,,,,4,0.7,1,,,,,,,,,,,,0,131,5,5,1986,2238,absent_patch/patch0001986.jpg,absent_patch/patch0002238.jpg,,,,,,,,,,,,,,,,,,,,0.014322917,-0.024739583,1,0,0,response3disk,29,0.01171875,-0.006510417,1,0,0,center_square,0,28,28,31,1,,,,,,,,,,,,,,,,,,,,,,,
231344,001,2022-11-21_01h55.57.062,Info_measure_main_exp,2022.2.2,Win32,29.9940012,,,,,,,,,,,,,,,,,,masks/mask_005.jpg,,,,,,,,,,,,,,,,,,,,,,,,,,,,,,,,,,,,,,,,,,,0,0,0,4,1,,,,,,,,,,,,,,,,,,,,,,,,,,,,,,,,,,,,,,,,,,,,,,
231344,001,2022-11-21_01h55.57.062,Info_measure_main_exp,2022.2.2,Win32,29.9940012,,,,,,,,,,,,,,,,,,masks/mask_002.jpg,,,,,,,,,,,,,,,,,,,,,,,,,,,,,,,,,,,,,,,,,,,0,1,1,1,1,,,,,,,,,,,,,,,,,,,,,,,,,,,,,,,,,,,,,,,,,,,,,,
231344,001,2022-11-21_01h55.57.062,Info_measure_main_exp,2022.2.2,Win32,29.9940012,,,,,,,,,,,,,,,,,,masks/mask_004.jpg,,,,,,,,,,,,,,,,,,,,,,,,,,,,,,,,,,,,,,,,,,,0,2,2,3,1,,,,,,,,,,,,,,,,,,,,,,,,,,,,,,,,,,,,,,,,,,,,,,
231344,001,2022-11-21_01h55.57.062,Info_measure_main_exp,2022.2.2,Win32,29.9940012,,,,,,,,,,,,,,,,,,masks/mask_001.jpg,,,,,,,,,,,,,,,,,,,,,,,,,,,,,,,,,,,,,,,,,,,0,3,3,0,1,,,,,,,,,,,,,,,,,,,,,,,,,,,,,,,,,,,,,,,,,,,,,,
231344,001,2022-11-21_01h55.57.062,Info_measure_main_exp,2022.2.2,Win32,29.9940012,,,,,,,,,,,,,,,,,,masks/mask_003.jpg,,,,,,,,,,,,,,,,,,,,,,,,,,,,,,,,,,,,,,,,,,,0,4,4,2,1,,,,,,,,,,,,,,,,,,,,,,,,,,,,,,,,,,,,,,,,,,,,,,
231344,001,2022-11-21_01h55.57.062,Info_measure_main_exp,2022.2.2,Win32,29.9940012,,,,,,,,,,,,,,,,,,masks/mask_005.jpg,,,,,,,,,,,,,,,,,,,,,,,,,,,,,,,,,,,,,,,,,,,,,,,,0,0,0,4,1,,,,,,,,,,,,,,,,,,,,,,,,,,,,,,,,,,,,,,,,,
231344,001,2022-11-21_01h55.57.062,Info_measure_main_exp,2022.2.2,Win32,29.9940012,,,,,,,,,,,,,,,,,,masks/mask_002.jpg,,,,,,,,,,,,,,,,,,,,,,,,,,,,,,,,,,,,,,,,,,,,,,,,0,1,1,1,1,,,,,,,,,,,,,,,,,,,,,,,,,,,,,,,,,,,,,,,,,
231344,001,2022-11-21_01h55.57.062,Info_measure_main_exp,2022.2.2,Win32,29.9940012,,,,,,,,,,,,,,,,,,masks/mask_004.jpg,,,,,,,,,,,,,,,,,,,,,,,,,,,,,,,,,,,,,,,,,,,,,,,,0,2,2,3,1,,,,,,,,,,,,,,,,,,,,,,,,,,,,,,,,,,,,,,,,,
231344,001,2022-11-21_01h55.57.062,Info_measure_main_exp,2022.2.2,Win32,29.9940012,,,,,,,,,,,,,,,,,,masks/mask_003.jpg,,,,,,,,,,,,,,,,,,,,,,,,,,,,,,,,,,,,,,,,,,,,,,,,0,3,3,2,1,,,,,,,,,,,,,,,,,,,,,,,,,,,,,,,,,,,,,,,,,
231344,001,2022-11-21_01h55.57.062,Info_measure_main_exp,2022.2.2,Win32,29.9940012,,,,,,,,,,,,,,,,,,masks/mask_001.jpg,,,,,,,,,,,,,,,,,,,,,,,,,,,,,,,,,,,,,,,,,,,,,,,,0,4,4,0,1,,,,,,,,,,,,,,,,,,,,,,,,,,,,,,,,,,,,,,,,,
231344,001,2022-11-21_01h55.57.062,Info_measure_main_exp,2022.2.2,Win32,29.9940012,,,,,,,,,,,,,,,,,,,,,,,,,,,,,,7,0.584,1,,,,,,,,,,,,0,131,5,5,2190,2178,absent_patch/patch0002190.jpg,absent_patch/patch0002178.jpg,,,,,,,,,,,,,,,,,,,,0.028645833,0.03125,1,0,0,response1disk,30,0.005208333,0.006510417,1,0,0,center_square,0,29,29,14,1,,,,,,,,,,,,,,,,,,,,,,,
231344,001,2022-11-21_01h55.57.062,Info_measure_main_exp,2022.2.2,Win32,29.9940012,,,,,,,,,,,,,,,,,,masks/mask_002.jpg,,,,,,,,,,,,,,,,,,,,,,,,,,,,,,,,,,,,,,,,,,,0,0,0,1,1,,,,,,,,,,,,,,,,,,,,,,,,,,,,,,,,,,,,,,,,,,,,,,
231344,001,2022-11-21_01h55.57.062,Info_measure_main_exp,2022.2.2,Win32,29.9940012,,,,,,,,,,,,,,,,,,masks/mask_003.jpg,,,,,,,,,,,,,,,,,,,,,,,,,,,,,,,,,,,,,,,,,,,0,1,1,2,1,,,,,,,,,,,,,,,,,,,,,,,,,,,,,,,,,,,,,,,,,,,,,,
231344,001,2022-11-21_01h55.57.062,Info_measure_main_exp,2022.2.2,Win32,29.9940012,,,,,,,,,,,,,,,,,,masks/mask_001.jpg,,,,,,,,,,,,,,,,,,,,,,,,,,,,,,,,,,,,,,,,,,,0,2,2,0,1,,,,,,,,,,,,,,,,,,,,,,,,,,,,,,,,,,,,,,,,,,,,,,
231344,001,2022-11-21_01h55.57.062,Info_measure_main_exp,2022.2.2,Win32,29.9940012,,,,,,,,,,,,,,,,,,masks/mask_005.jpg,,,,,,,,,,,,,,,,,,,,,,,,,,,,,,,,,,,,,,,,,,,0,3,3,4,1,,,,,,,,,,,,,,,,,,,,,,,,,,,,,,,,,,,,,,,,,,,,,,
231344,001,2022-11-21_01h55.57.062,Info_measure_main_exp,2022.2.2,Win32,29.9940012,,,,,,,,,,,,,,,,,,masks/mask_004.jpg,,,,,,,,,,,,,,,,,,,,,,,,,,,,,,,,,,,,,,,,,,,0,4,4,3,1,,,,,,,,,,,,,,,,,,,,,,,,,,,,,,,,,,,,,,,,,,,,,,
231344,001,2022-11-21_01h55.57.062,Info_measure_main_exp,2022.2.2,Win32,29.9940012,,,,,,,,,,,,,,,,,,masks/mask_005.jpg,,,,,,,,,,,,,,,,,,,,,,,,,,,,,,,,,,,,,,,,,,,,,,,,0,0,0,4,1,,,,,,,,,,,,,,,,,,,,,,,,,,,,,,,,,,,,,,,,,
231344,001,2022-11-21_01h55.57.062,Info_measure_main_exp,2022.2.2,Win32,29.9940012,,,,,,,,,,,,,,,,,,masks/mask_002.jpg,,,,,,,,,,,,,,,,,,,,,,,,,,,,,,,,,,,,,,,,,,,,,,,,0,1,1,1,1,,,,,,,,,,,,,,,,,,,,,,,,,,,,,,,,,,,,,,,,,
231344,001,2022-11-21_01h55.57.062,Info_measure_main_exp,2022.2.2,Win32,29.9940012,,,,,,,,,,,,,,,,,,masks/mask_004.jpg,,,,,,,,,,,,,,,,,,,,,,,,,,,,,,,,,,,,,,,,,,,,,,,,0,2,2,3,1,,,,,,,,,,,,,,,,,,,,,,,,,,,,,,,,,,,,,,,,,
231344,001,2022-11-21_01h55.57.062,Info_measure_main_exp,2022.2.2,Win32,29.9940012,,,,,,,,,,,,,,,,,,masks/mask_001.jpg,,,,,,,,,,,,,,,,,,,,,,,,,,,,,,,,,,,,,,,,,,,,,,,,0,3,3,0,1,,,,,,,,,,,,,,,,,,,,,,,,,,,,,,,,,,,,,,,,,
231344,001,2022-11-21_01h55.57.062,Info_measure_main_exp,2022.2.2,Win32,29.9940012,,,,,,,,,,,,,,,,,,masks/mask_003.jpg,,,,,,,,,,,,,,,,,,,,,,,,,,,,,,,,,,,,,,,,,,,,,,,,0,4,4,2,1,,,,,,,,,,,,,,,,,,,,,,,,,,,,,,,,,,,,,,,,,
231344,001,2022-11-21_01h55.57.062,Info_measure_main_exp,2022.2.2,Win32,29.9940012,,,,,,,,,,,,,,,,,,,,,,,,,,,,,,7,0.037,1,,,,,,,,,,,,0,131,5,5,2082,2082,absent_patch/patch0002082.jpg,absent_patch/patch0002082.jpg,,,,,,,,,,,,,,,,,,,,0.005208333,0.006510417,1,0,0,response1disk,31,0.005208333,0.006510417,1,0,0,center_square,0,30,30,74,1,,,,,,,,,,,,,,,,,,,,,,,
231344,001,2022-11-21_01h55.57.062,Info_measure_main_exp,2022.2.2,Win32,29.9940012,,,,,,,,,,,,,,,,,,masks/mask_004.jpg,,,,,,,,,,,,,,,,,,,,,,,,,,,,,,,,,,,,,,,,,,,0,0,0,3,1,,,,,,,,,,,,,,,,,,,,,,,,,,,,,,,,,,,,,,,,,,,,,,
231344,001,2022-11-21_01h55.57.062,Info_measure_main_exp,2022.2.2,Win32,29.9940012,,,,,,,,,,,,,,,,,,masks/mask_005.jpg,,,,,,,,,,,,,,,,,,,,,,,,,,,,,,,,,,,,,,,,,,,0,1,1,4,1,,,,,,,,,,,,,,,,,,,,,,,,,,,,,,,,,,,,,,,,,,,,,,
231344,001,2022-11-21_01h55.57.062,Info_measure_main_exp,2022.2.2,Win32,29.9940012,,,,,,,,,,,,,,,,,,masks/mask_001.jpg,,,,,,,,,,,,,,,,,,,,,,,,,,,,,,,,,,,,,,,,,,,0,2,2,0,1,,,,,,,,,,,,,,,,,,,,,,,,,,,,,,,,,,,,,,,,,,,,,,
231344,001,2022-11-21_01h55.57.062,Info_measure_main_exp,2022.2.2,Win32,29.9940012,,,,,,,,,,,,,,,,,,masks/mask_002.jpg,,,,,,,,,,,,,,,,,,,,,,,,,,,,,,,,,,,,,,,,,,,0,3,3,1,1,,,,,,,,,,,,,,,,,,,,,,,,,,,,,,,,,,,,,,,,,,,,,,
231344,001,2022-11-21_01h55.57.062,Info_measure_main_exp,2022.2.2,Win32,29.9940012,,,,,,,,,,,,,,,,,,masks/mask_003.jpg,,,,,,,,,,,,,,,,,,,,,,,,,,,,,,,,,,,,,,,,,,,0,4,4,2,1,,,,,,,,,,,,,,,,,,,,,,,,,,,,,,,,,,,,,,,,,,,,,,
231344,001,2022-11-21_01h55.57.062,Info_measure_main_exp,2022.2.2,Win32,29.9940012,,,,,,,,,,,,,,,,,,masks/mask_003.jpg,,,,,,,,,,,,,,,,,,,,,,,,,,,,,,,,,,,,,,,,,,,,,,,,0,0,0,2,1,,,,,,,,,,,,,,,,,,,,,,,,,,,,,,,,,,,,,,,,,
231344,001,2022-11-21_01h55.57.062,Info_measure_main_exp,2022.2.2,Win32,29.9940012,,,,,,,,,,,,,,,,,,masks/mask_001.jpg,,,,,,,,,,,,,,,,,,,,,,,,,,,,,,,,,,,,,,,,,,,,,,,,0,1,1,0,1,,,,,,,,,,,,,,,,,,,,,,,,,,,,,,,,,,,,,,,,,
231344,001,2022-11-21_01h55.57.062,Info_measure_main_exp,2022.2.2,Win32,29.9940012,,,,,,,,,,,,,,,,,,masks/mask_002.jpg,,,,,,,,,,,,,,,,,,,,,,,,,,,,,,,,,,,,,,,,,,,,,,,,0,2,2,1,1,,,,,,,,,,,,,,,,,,,,,,,,,,,,,,,,,,,,,,,,,
231344,001,2022-11-21_01h55.57.062,Info_measure_main_exp,2022.2.2,Win32,29.9940012,,,,,,,,,,,,,,,,,,masks/mask_005.jpg,,,,,,,,,,,,,,,,,,,,,,,,,,,,,,,,,,,,,,,,,,,,,,,,0,3,3,4,1,,,,,,,,,,,,,,,,,,,,,,,,,,,,,,,,,,,,,,,,,
231344,001,2022-11-21_01h55.57.062,Info_measure_main_exp,2022.2.2,Win32,29.9940012,,,,,,,,,,,,,,,,,,masks/mask_004.jpg,,,,,,,,,,,,,,,,,,,,,,,,,,,,,,,,,,,,,,,,,,,,,,,,0,4,4,3,1,,,,,,,,,,,,,,,,,,,,,,,,,,,,,,,,,,,,,,,,,
231344,001,2022-11-21_01h55.57.062,Info_measure_main_exp,2022.2.2,Win32,29.9940012,,,,,,,,,,,,,,,,,,,,,,,,,,,,,,7,0.459,1,,,,,,,,,,,,0,131,5,5,2298,2178,absent_patch/patch0002298.jpg,absent_patch/patch0002178.jpg,,,,,,,,,,,,,,,,,,,,0.028645833,0.033854167,1,0,0,response1disk,32,0.00390625,-0.013020833,1,0,0,center_square,0,31,31,84,1,,,,,,,,,,,,,,,,,,,,,,,
231344,001,2022-11-21_01h55.57.062,Info_measure_main_exp,2022.2.2,Win32,29.9940012,,,,,,,,,,,,,,,,,,masks/mask_002.jpg,,,,,,,,,,,,,,,,,,,,,,,,,,,,,,,,,,,,,,,,,,,0,0,0,1,1,,,,,,,,,,,,,,,,,,,,,,,,,,,,,,,,,,,,,,,,,,,,,,
231344,001,2022-11-21_01h55.57.062,Info_measure_main_exp,2022.2.2,Win32,29.9940012,,,,,,,,,,,,,,,,,,masks/mask_005.jpg,,,,,,,,,,,,,,,,,,,,,,,,,,,,,,,,,,,,,,,,,,,0,1,1,4,1,,,,,,,,,,,,,,,,,,,,,,,,,,,,,,,,,,,,,,,,,,,,,,
231344,001,2022-11-21_01h55.57.062,Info_measure_main_exp,2022.2.2,Win32,29.9940012,,,,,,,,,,,,,,,,,,masks/mask_003.jpg,,,,,,,,,,,,,,,,,,,,,,,,,,,,,,,,,,,,,,,,,,,0,2,2,2,1,,,,,,,,,,,,,,,,,,,,,,,,,,,,,,,,,,,,,,,,,,,,,,
231344,001,2022-11-21_01h55.57.062,Info_measure_main_exp,2022.2.2,Win32,29.9940012,,,,,,,,,,,,,,,,,,masks/mask_004.jpg,,,,,,,,,,,,,,,,,,,,,,,,,,,,,,,,,,,,,,,,,,,0,3,3,3,1,,,,,,,,,,,,,,,,,,,,,,,,,,,,,,,,,,,,,,,,,,,,,,
231344,001,2022-11-21_01h55.57.062,Info_measure_main_exp,2022.2.2,Win32,29.9940012,,,,,,,,,,,,,,,,,,masks/mask_001.jpg,,,,,,,,,,,,,,,,,,,,,,,,,,,,,,,,,,,,,,,,,,,0,4,4,0,1,,,,,,,,,,,,,,,,,,,,,,,,,,,,,,,,,,,,,,,,,,,,,,
231344,001,2022-11-21_01h55.57.062,Info_measure_main_exp,2022.2.2,Win32,29.9940012,,,,,,,,,,,,,,,,,,masks/mask_003.jpg,,,,,,,,,,,,,,,,,,,,,,,,,,,,,,,,,,,,,,,,,,,,,,,,0,0,0,2,1,,,,,,,,,,,,,,,,,,,,,,,,,,,,,,,,,,,,,,,,,
231344,001,2022-11-21_01h55.57.062,Info_measure_main_exp,2022.2.2,Win32,29.9940012,,,,,,,,,,,,,,,,,,masks/mask_002.jpg,,,,,,,,,,,,,,,,,,,,,,,,,,,,,,,,,,,,,,,,,,,,,,,,0,1,1,1,1,,,,,,,,,,,,,,,,,,,,,,,,,,,,,,,,,,,,,,,,,
231344,001,2022-11-21_01h55.57.062,Info_measure_main_exp,2022.2.2,Win32,29.9940012,,,,,,,,,,,,,,,,,,masks/mask_001.jpg,,,,,,,,,,,,,,,,,,,,,,,,,,,,,,,,,,,,,,,,,,,,,,,,0,2,2,0,1,,,,,,,,,,,,,,,,,,,,,,,,,,,,,,,,,,,,,,,,,
231344,001,2022-11-21_01h55.57.062,Info_measure_main_exp,2022.2.2,Win32,29.9940012,,,,,,,,,,,,,,,,,,masks/mask_005.jpg,,,,,,,,,,,,,,,,,,,,,,,,,,,,,,,,,,,,,,,,,,,,,,,,0,3,3,4,1,,,,,,,,,,,,,,,,,,,,,,,,,,,,,,,,,,,,,,,,,
231344,001,2022-11-21_01h55.57.062,Info_measure_main_exp,2022.2.2,Win32,29.9940012,,,,,,,,,,,,,,,,,,masks/mask_004.jpg,,,,,,,,,,,,,,,,,,,,,,,,,,,,,,,,,,,,,,,,,,,,,,,,0,4,4,3,1,,,,,,,,,,,,,,,,,,,,,,,,,,,,,,,,,,,,,,,,,
231344,001,2022-11-21_01h55.57.062,Info_measure_main_exp,2022.2.2,Win32,29.9940012,,,,,,,,,,,,,,,,,,,,,,,,,,,,,,5,0.313,1,,,,,,,,,,,,0,131,5,5,2082,2178,absent_patch/patch0002082.jpg,absent_patch/patch0002178.jpg,,,,,,,,,,,,,,,,,,,,0.00390625,-0.00390625,1,0,0,response3disk,33,0.00390625,-0.00390625,1,0,0,center_square,0,32,32,2,1,,,,,,,,,,,,,,,,,,,,,,,
231344,001,2022-11-21_01h55.57.062,Info_measure_main_exp,2022.2.2,Win32,29.9940012,,,,,,,,,,,,,,,,,,masks/mask_005.jpg,,,,,,,,,,,,,,,,,,,,,,,,,,,,,,,,,,,,,,,,,,,0,0,0,4,1,,,,,,,,,,,,,,,,,,,,,,,,,,,,,,,,,,,,,,,,,,,,,,
231344,001,2022-11-21_01h55.57.062,Info_measure_main_exp,2022.2.2,Win32,29.9940012,,,,,,,,,,,,,,,,,,masks/mask_002.jpg,,,,,,,,,,,,,,,,,,,,,,,,,,,,,,,,,,,,,,,,,,,0,1,1,1,1,,,,,,,,,,,,,,,,,,,,,,,,,,,,,,,,,,,,,,,,,,,,,,
231344,001,2022-11-21_01h55.57.062,Info_measure_main_exp,2022.2.2,Win32,29.9940012,,,,,,,,,,,,,,,,,,masks/mask_001.jpg,,,,,,,,,,,,,,,,,,,,,,,,,,,,,,,,,,,,,,,,,,,0,2,2,0,1,,,,,,,,,,,,,,,,,,,,,,,,,,,,,,,,,,,,,,,,,,,,,,
231344,001,2022-11-21_01h55.57.062,Info_measure_main_exp,2022.2.2,Win32,29.9940012,,,,,,,,,,,,,,,,,,masks/mask_004.jpg,,,,,,,,,,,,,,,,,,,,,,,,,,,,,,,,,,,,,,,,,,,0,3,3,3,1,,,,,,,,,,,,,,,,,,,,,,,,,,,,,,,,,,,,,,,,,,,,,,
231344,001,2022-11-21_01h55.57.062,Info_measure_main_exp,2022.2.2,Win32,29.9940012,,,,,,,,,,,,,,,,,,masks/mask_003.jpg,,,,,,,,,,,,,,,,,,,,,,,,,,,,,,,,,,,,,,,,,,,0,4,4,2,1,,,,,,,,,,,,,,,,,,,,,,,,,,,,,,,,,,,,,,,,,,,,,,
231344,001,2022-11-21_01h55.57.062,Info_measure_main_exp,2022.2.2,Win32,29.9940012,,,,,,,,,,,,,,,,,,masks/mask_001.jpg,,,,,,,,,,,,,,,,,,,,,,,,,,,,,,,,,,,,,,,,,,,,,,,,0,0,0,0,1,,,,,,,,,,,,,,,,,,,,,,,,,,,,,,,,,,,,,,,,,
231344,001,2022-11-21_01h55.57.062,Info_measure_main_exp,2022.2.2,Win32,29.9940012,,,,,,,,,,,,,,,,,,masks/mask_002.jpg,,,,,,,,,,,,,,,,,,,,,,,,,,,,,,,,,,,,,,,,,,,,,,,,0,1,1,1,1,,,,,,,,,,,,,,,,,,,,,,,,,,,,,,,,,,,,,,,,,
231344,001,2022-11-21_01h55.57.062,Info_measure_main_exp,2022.2.2,Win32,29.9940012,,,,,,,,,,,,,,,,,,masks/mask_003.jpg,,,,,,,,,,,,,,,,,,,,,,,,,,,,,,,,,,,,,,,,,,,,,,,,0,2,2,2,1,,,,,,,,,,,,,,,,,,,,,,,,,,,,,,,,,,,,,,,,,
231344,001,2022-11-21_01h55.57.062,Info_measure_main_exp,2022.2.2,Win32,29.9940012,,,,,,,,,,,,,,,,,,masks/mask_004.jpg,,,,,,,,,,,,,,,,,,,,,,,,,,,,,,,,,,,,,,,,,,,,,,,,0,3,3,3,1,,,,,,,,,,,,,,,,,,,,,,,,,,,,,,,,,,,,,,,,,
231344,001,2022-11-21_01h55.57.062,Info_measure_main_exp,2022.2.2,Win32,29.9940012,,,,,,,,,,,,,,,,,,masks/mask_005.jpg,,,,,,,,,,,,,,,,,,,,,,,,,,,,,,,,,,,,,,,,,,,,,,,,0,4,4,4,1,,,,,,,,,,,,,,,,,,,,,,,,,,,,,,,,,,,,,,,,,
231344,001,2022-11-21_01h55.57.062,Info_measure_main_exp,2022.2.2,Win32,29.9940012,,,,,,,,,,,,,,,,,,,,,,,,,,,,,,2,0.115,1,,,,,,,,,,,,0,131,5,5,2274,2154,absent_patch/patch0002274.jpg,absent_patch/patch0002154.jpg,,,,,,,,,,,,,,,,,,,,-0.002604167,-0.001302083,1,0,0,response5disk,34,-0.002604167,-0.001302083,1,0,0,center_square,0,33,33,23,1,,,,,,,,,,,,,,,,,,,,,,,
231344,001,2022-11-21_01h55.57.062,Info_measure_main_exp,2022.2.2,Win32,29.9940012,,,,,,,,,,,,,,,,,,masks/mask_002.jpg,,,,,,,,,,,,,,,,,,,,,,,,,,,,,,,,,,,,,,,,,,,0,0,0,1,1,,,,,,,,,,,,,,,,,,,,,,,,,,,,,,,,,,,,,,,,,,,,,,
231344,001,2022-11-21_01h55.57.062,Info_measure_main_exp,2022.2.2,Win32,29.9940012,,,,,,,,,,,,,,,,,,masks/mask_004.jpg,,,,,,,,,,,,,,,,,,,,,,,,,,,,,,,,,,,,,,,,,,,0,1,1,3,1,,,,,,,,,,,,,,,,,,,,,,,,,,,,,,,,,,,,,,,,,,,,,,
231344,001,2022-11-21_01h55.57.062,Info_measure_main_exp,2022.2.2,Win32,29.9940012,,,,,,,,,,,,,,,,,,masks/mask_001.jpg,,,,,,,,,,,,,,,,,,,,,,,,,,,,,,,,,,,,,,,,,,,0,2,2,0,1,,,,,,,,,,,,,,,,,,,,,,,,,,,,,,,,,,,,,,,,,,,,,,
231344,001,2022-11-21_01h55.57.062,Info_measure_main_exp,2022.2.2,Win32,29.9940012,,,,,,,,,,,,,,,,,,masks/mask_003.jpg,,,,,,,,,,,,,,,,,,,,,,,,,,,,,,,,,,,,,,,,,,,0,3,3,2,1,,,,,,,,,,,,,,,,,,,,,,,,,,,,,,,,,,,,,,,,,,,,,,
231344,001,2022-11-21_01h55.57.062,Info_measure_main_exp,2022.2.2,Win32,29.9940012,,,,,,,,,,,,,,,,,,masks/mask_005.jpg,,,,,,,,,,,,,,,,,,,,,,,,,,,,,,,,,,,,,,,,,,,0,4,4,4,1,,,,,,,,,,,,,,,,,,,,,,,,,,,,,,,,,,,,,,,,,,,,,,
231344,001,2022-11-21_01h55.57.062,Info_measure_main_exp,2022.2.2,Win32,29.9940012,,,,,,,,,,,,,,,,,,masks/mask_005.jpg,,,,,,,,,,,,,,,,,,,,,,,,,,,,,,,,,,,,,,,,,,,,,,,,0,0,0,4,1,,,,,,,,,,,,,,,,,,,,,,,,,,,,,,,,,,,,,,,,,
231344,001,2022-11-21_01h55.57.062,Info_measure_main_exp,2022.2.2,Win32,29.9940012,,,,,,,,,,,,,,,,,,masks/mask_002.jpg,,,,,,,,,,,,,,,,,,,,,,,,,,,,,,,,,,,,,,,,,,,,,,,,0,1,1,1,1,,,,,,,,,,,,,,,,,,,,,,,,,,,,,,,,,,,,,,,,,
231344,001,2022-11-21_01h55.57.062,Info_measure_main_exp,2022.2.2,Win32,29.9940012,,,,,,,,,,,,,,,,,,masks/mask_004.jpg,,,,,,,,,,,,,,,,,,,,,,,,,,,,,,,,,,,,,,,,,,,,,,,,0,2,2,3,1,,,,,,,,,,,,,,,,,,,,,,,,,,,,,,,,,,,,,,,,,
231344,001,2022-11-21_01h55.57.062,Info_measure_main_exp,2022.2.2,Win32,29.9940012,,,,,,,,,,,,,,,,,,masks/mask_001.jpg,,,,,,,,,,,,,,,,,,,,,,,,,,,,,,,,,,,,,,,,,,,,,,,,0,3,3,0,1,,,,,,,,,,,,,,,,,,,,,,,,,,,,,,,,,,,,,,,,,
231344,001,2022-11-21_01h55.57.062,Info_measure_main_exp,2022.2.2,Win32,29.9940012,,,,,,,,,,,,,,,,,,masks/mask_003.jpg,,,,,,,,,,,,,,,,,,,,,,,,,,,,,,,,,,,,,,,,,,,,,,,,0,4,4,2,1,,,,,,,,,,,,,,,,,,,,,,,,,,,,,,,,,,,,,,,,,
231344,001,2022-11-21_01h55.57.062,Info_measure_main_exp,2022.2.2,Win32,29.9940012,,,,,,,,,,,,,,,,,,,,,,,,,,,,,,7,0.084,1,,,,,,,,,,,,1,131,5,5,1950,1,absent_patch/patch0001950.jpg,present_patch/cong_131_5_a.jpg,,,,,,,,,,,,,,,,,,,,0,0.0234375,1,0,0,response1disk,35,-0.002604167,0.009114583,1,0,0,center_square,0,34,34,39,1,,,,,,,,,,,,,,,,,,,,,,,
