participant,session,date,expName,psychopyVersion,OS,frameRate,space_press_continue.keys,space_press_continue.rt,space_press_continue_2.keys,space_press_continue_2.rt,space_press_continue_3.keys,space_press_continue_3.rt,space_press_continue_4.keys,space_press_continue_4.rt,space_press_continue_5.keys,space_press_continue_5.rt,space_press_continue_6.keys,space_press_continue_6.rt,prac_mask_loop_1.thisRepN,prac_mask_loop_1.thisTrialN,prac_mask_loop_1.thisN,prac_mask_loop_1.thisIndex,prac_mask_loop_1.ran,mask_name,prac_mask_loop_2.thisRepN,prac_mask_loop_2.thisTrialN,prac_mask_loop_2.thisN,prac_mask_loop_2.thisIndex,prac_mask_loop_2.ran,mouse_2.x,mouse_2.y,mouse_2.leftButton,mouse_2.midButton,mouse_2.rightButton,mouse_2.clicked_name,similarity,response_time,Pass,mouse_12.x,mouse_12.y,mouse_12.leftButton,mouse_12.midButton,mouse_12.rightButton,mouse_12.clicked_name,prac_loop.thisRepN,prac_loop.thisTrialN,prac_loop.thisN,prac_loop.thisIndex,prac_loop.ran,Pair_type,Image_num,Patch_1_loc,Patch_2_loc,Patch_1_info,Patch_2_info,Patch_1_name,Patch_2_name,mouse_1.x,mouse_1.y,mouse_1.leftButton,mouse_1.midButton,mouse_1.rightButton,mouse_1.time,mouse_1.clicked_name,space_press_continue_7.keys,space_press_continue_7.rt,mask_loop.thisRepN,mask_loop.thisTrialN,mask_loop.thisN,mask_loop.thisIndex,mask_loop.ran,mask_loop_2.thisRepN,mask_loop_2.thisTrialN,mask_loop_2.thisN,mask_loop_2.thisIndex,mask_loop_2.ran,mouse.x,mouse.y,mouse.leftButton,mouse.midButton,mouse.rightButton,mouse.clicked_name,trialNumber,mouse_11.x,mouse_11.y,mouse_11.leftButton,mouse_11.midButton,mouse_11.rightButton,mouse_11.clicked_name,first_pass_loop.thisRepN,first_pass_loop.thisTrialN,first_pass_loop.thisN,first_pass_loop.thisIndex,first_pass_loop.ran,mask_loop_3.thisRepN,mask_loop_3.thisTrialN,mask_loop_3.thisN,mask_loop_3.thisIndex,mask_loop_3.ran,mask_loop_4.thisRepN,mask_loop_4.thisTrialN,mask_loop_4.thisN,mask_loop_4.thisIndex,mask_loop_4.ran,mouse_3.x,mouse_3.y,mouse_3.leftButton,mouse_3.midButton,mouse_3.rightButton,mouse_3.clicked_name,double_pass_loop.thisRepN,double_pass_loop.thisTrialN,double_pass_loop.thisN,double_pass_loop.thisIndex,double_pass_loop.ran,space_exit.keys,space_exit.rt
235396,001,2022-11-21_01h59.08.436,Info_measure_main_exp,2022.2.2,Win32,61.09108681,,,,,,,,,,,,,,,,,,,,,,,,,,,,,,,,,,,,,,,,,,,,,,,,,,,,,,,,,,,,,,,,,,,,,,,,,,,,,,,,,,,,,,,,,,,,,,,,,,,,,,,,,,,,,,,
235396,001,2022-11-21_01h59.08.436,Info_measure_main_exp,2022.2.2,Win32,61.09108681,,,,,,,,,,,,,,,,,,,,,,,,,,,,,,,,,,,,,,,,,,,,,,,,,,,,,,,,,,,,,,,,,,,,,,,,,,,,,,,,,,,,,,,,,,,,,,,,,,,,,,,,,,,,,,,
235396,001,2022-11-21_01h59.08.436,Info_measure_main_exp,2022.2.2,Win32,61.09108681,space,5.0606,,,,,,,,,,,,,,,,,,,,,,,,,,,,,,,,,,,,,,,,,,,,,,,,,,,,,,,,,,,,,,,,,,,,,,,,,,,,,,,,,,,,,,,,,,,,,,,,,,,,,,,,,,,,,
235396,001,2022-11-21_01h59.08.436,Info_measure_main_exp,2022.2.2,Win32,61.09108681,,,space,7.9407,,,,,,,,,,,,,,,,,,,,,,,,,,,,,,,,,,,,,,,,,,,,,,,,,,,,,,,,,,,,,,,,,,,,,,,,,,,,,,,,,,,,,,,,,,,,,,,,,,,,,,,,,,,
235396,001,2022-11-21_01h59.08.436,Info_measure_main_exp,2022.2.2,Win32,61.09108681,,,,,space,5.9853,,,,,,,,,,,,,,,,,,,,,,,,,,,,,,,,,,,,,,,,,,,,,,,,,,,,,,,,,,,,,,,,,,,,,,,,,,,,,,,,,,,,,,,,,,,,,,,,,,,,,,,,,
235396,001,2022-11-21_01h59.08.436,Info_measure_main_exp,2022.2.2,Win32,61.09108681,,,,,,,space,27.8586,,,,,,,,,,,,,,,,,,,,,,,,,,,,,,,,,,,,,,,,,,,,,,,,,,,,,,,,,,,,,,,,,,,,,,,,,,,,,,,,,,,,,,,,,,,,,,,,,,,,,,,
235396,001,2022-11-21_01h59.08.436,Info_measure_main_exp,2022.2.2,Win32,61.09108681,,,,,,,,,space,5.9816,,,,,,,,,,,,,,,,,,,,,,,,,,,,,,,,,,,,,,,,,,,,,,,,,,,,,,,,,,,,,,,,,,,,,,,,,,,,,,,,,,,,,,,,,,,,,,,,,,,,,
235396,001,2022-11-21_01h59.08.436,Info_measure_main_exp,2022.2.2,Win32,61.09108681,,,,,,,,,,,space,4.2195,,,,,,,,,,,,,,,,,,,,,,,,,,,,,,,,,,,,,,,,,,,,,,,,,,,,,,,,,,,,,,,,,,,,,,,,,,,,,,,,,,,,,,,,,,,,,,,,,,,
235396,001,2022-11-21_01h59.08.436,Info_measure_main_exp,2022.2.2,Win32,61.09108681,,,,,,,,,,,,,0,0,0,4,1,masks/mask_005.jpg,,,,,,,,,,,,,,,,,,,,,,,,,,,,,,,,,,,,,,,,,,,,,,,,,,,,,,,,,,,,,,,,,,,,,,,,,,,,,,,,,,,,,,,,,,,,,
235396,001,2022-11-21_01h59.08.436,Info_measure_main_exp,2022.2.2,Win32,61.09108681,,,,,,,,,,,,,0,1,1,1,1,masks/mask_002.jpg,,,,,,,,,,,,,,,,,,,,,,,,,,,,,,,,,,,,,,,,,,,,,,,,,,,,,,,,,,,,,,,,,,,,,,,,,,,,,,,,,,,,,,,,,,,,,
235396,001,2022-11-21_01h59.08.436,Info_measure_main_exp,2022.2.2,Win32,61.09108681,,,,,,,,,,,,,0,2,2,2,1,masks/mask_003.jpg,,,,,,,,,,,,,,,,,,,,,,,,,,,,,,,,,,,,,,,,,,,,,,,,,,,,,,,,,,,,,,,,,,,,,,,,,,,,,,,,,,,,,,,,,,,,,
235396,001,2022-11-21_01h59.08.436,Info_measure_main_exp,2022.2.2,Win32,61.09108681,,,,,,,,,,,,,0,3,3,3,1,masks/mask_004.jpg,,,,,,,,,,,,,,,,,,,,,,,,,,,,,,,,,,,,,,,,,,,,,,,,,,,,,,,,,,,,,,,,,,,,,,,,,,,,,,,,,,,,,,,,,,,,,
235396,001,2022-11-21_01h59.08.436,Info_measure_main_exp,2022.2.2,Win32,61.09108681,,,,,,,,,,,,,0,4,4,0,1,masks/mask_001.jpg,,,,,,,,,,,,,,,,,,,,,,,,,,,,,,,,,,,,,,,,,,,,,,,,,,,,,,,,,,,,,,,,,,,,,,,,,,,,,,,,,,,,,,,,,,,,,
235396,001,2022-11-21_01h59.08.436,Info_measure_main_exp,2022.2.2,Win32,61.09108681,,,,,,,,,,,,,,,,,,masks/mask_004.jpg,0,0,0,3,1,,,,,,,,,,,,,,,,,,,,,,,,,,,,,,,,,,,,,,,,,,,,,,,,,,,,,,,,,,,,,,,,,,,,,,,,,,,,,,,,,,,,,,,,
235396,001,2022-11-21_01h59.08.436,Info_measure_main_exp,2022.2.2,Win32,61.09108681,,,,,,,,,,,,,,,,,,masks/mask_003.jpg,0,1,1,2,1,,,,,,,,,,,,,,,,,,,,,,,,,,,,,,,,,,,,,,,,,,,,,,,,,,,,,,,,,,,,,,,,,,,,,,,,,,,,,,,,,,,,,,,,
235396,001,2022-11-21_01h59.08.436,Info_measure_main_exp,2022.2.2,Win32,61.09108681,,,,,,,,,,,,,,,,,,masks/mask_005.jpg,0,2,2,4,1,,,,,,,,,,,,,,,,,,,,,,,,,,,,,,,,,,,,,,,,,,,,,,,,,,,,,,,,,,,,,,,,,,,,,,,,,,,,,,,,,,,,,,,,
235396,001,2022-11-21_01h59.08.436,Info_measure_main_exp,2022.2.2,Win32,61.09108681,,,,,,,,,,,,,,,,,,masks/mask_002.jpg,0,3,3,1,1,,,,,,,,,,,,,,,,,,,,,,,,,,,,,,,,,,,,,,,,,,,,,,,,,,,,,,,,,,,,,,,,,,,,,,,,,,,,,,,,,,,,,,,,
235396,001,2022-11-21_01h59.08.436,Info_measure_main_exp,2022.2.2,Win32,61.09108681,,,,,,,,,,,,,,,,,,masks/mask_001.jpg,0,4,4,0,1,,,,,,,,,,,,,,,,,,,,,,,,,,,,,,,,,,,,,,,,,,,,,,,,,,,,,,,,,,,,,,,,,,,,,,,,,,,,,,,,,,,,,,,,
235396,001,2022-11-21_01h59.08.436,Info_measure_main_exp,2022.2.2,Win32,61.09108681,,,,,,,,,,,,,,,,,,,,,,,,-0.024739583,-0.100260417,1,0,0,response5disk,3,63.7256,1,0.009114583,0.002604167,1,0,0,center_square,0,0,0,2,1,0,131,5,5,2526,2526,prac_patch/patch0002526.jpg,prac_patch/patch0002526.jpg,,,,,,,,,,,,,,,,,,,,,,,,,,,,,,,,,,,,,,,,,,,,,,,,,,,,,,,,,,,,
235396,001,2022-11-21_01h59.08.436,Info_measure_main_exp,2022.2.2,Win32,61.09108681,,,,,,,,,,,,,0,0,0,4,1,masks/mask_005.jpg,,,,,,,,,,,,,,,,,,,,,,,,,,,,,,,,,,,,,,,,,,,,,,,,,,,,,,,,,,,,,,,,,,,,,,,,,,,,,,,,,,,,,,,,,,,,,
235396,001,2022-11-21_01h59.08.436,Info_measure_main_exp,2022.2.2,Win32,61.09108681,,,,,,,,,,,,,0,1,1,0,1,masks/mask_001.jpg,,,,,,,,,,,,,,,,,,,,,,,,,,,,,,,,,,,,,,,,,,,,,,,,,,,,,,,,,,,,,,,,,,,,,,,,,,,,,,,,,,,,,,,,,,,,,
235396,001,2022-11-21_01h59.08.436,Info_measure_main_exp,2022.2.2,Win32,61.09108681,,,,,,,,,,,,,0,2,2,1,1,masks/mask_002.jpg,,,,,,,,,,,,,,,,,,,,,,,,,,,,,,,,,,,,,,,,,,,,,,,,,,,,,,,,,,,,,,,,,,,,,,,,,,,,,,,,,,,,,,,,,,,,,
235396,001,2022-11-21_01h59.08.436,Info_measure_main_exp,2022.2.2,Win32,61.09108681,,,,,,,,,,,,,0,3,3,2,1,masks/mask_003.jpg,,,,,,,,,,,,,,,,,,,,,,,,,,,,,,,,,,,,,,,,,,,,,,,,,,,,,,,,,,,,,,,,,,,,,,,,,,,,,,,,,,,,,,,,,,,,,
235396,001,2022-11-21_01h59.08.436,Info_measure_main_exp,2022.2.2,Win32,61.09108681,,,,,,,,,,,,,0,4,4,3,1,masks/mask_004.jpg,,,,,,,,,,,,,,,,,,,,,,,,,,,,,,,,,,,,,,,,,,,,,,,,,,,,,,,,,,,,,,,,,,,,,,,,,,,,,,,,,,,,,,,,,,,,,
235396,001,2022-11-21_01h59.08.436,Info_measure_main_exp,2022.2.2,Win32,61.09108681,,,,,,,,,,,,,,,,,,masks/mask_001.jpg,0,0,0,0,1,,,,,,,,,,,,,,,,,,,,,,,,,,,,,,,,,,,,,,,,,,,,,,,,,,,,,,,,,,,,,,,,,,,,,,,,,,,,,,,,,,,,,,,,
235396,001,2022-11-21_01h59.08.436,Info_measure_main_exp,2022.2.2,Win32,61.09108681,,,,,,,,,,,,,,,,,,masks/mask_002.jpg,0,1,1,1,1,,,,,,,,,,,,,,,,,,,,,,,,,,,,,,,,,,,,,,,,,,,,,,,,,,,,,,,,,,,,,,,,,,,,,,,,,,,,,,,,,,,,,,,,
235396,001,2022-11-21_01h59.08.436,Info_measure_main_exp,2022.2.2,Win32,61.09108681,,,,,,,,,,,,,,,,,,masks/mask_005.jpg,0,2,2,4,1,,,,,,,,,,,,,,,,,,,,,,,,,,,,,,,,,,,,,,,,,,,,,,,,,,,,,,,,,,,,,,,,,,,,,,,,,,,,,,,,,,,,,,,,
235396,001,2022-11-21_01h59.08.436,Info_measure_main_exp,2022.2.2,Win32,61.09108681,,,,,,,,,,,,,,,,,,masks/mask_004.jpg,0,3,3,3,1,,,,,,,,,,,,,,,,,,,,,,,,,,,,,,,,,,,,,,,,,,,,,,,,,,,,,,,,,,,,,,,,,,,,,,,,,,,,,,,,,,,,,,,,
235396,001,2022-11-21_01h59.08.436,Info_measure_main_exp,2022.2.2,Win32,61.09108681,,,,,,,,,,,,,,,,,,masks/mask_003.jpg,0,4,4,2,1,,,,,,,,,,,,,,,,,,,,,,,,,,,,,,,,,,,,,,,,,,,,,,,,,,,,,,,,,,,,,,,,,,,,,,,,,,,,,,,,,,,,,,,,
235396,001,2022-11-21_01h59.08.436,Info_measure_main_exp,2022.2.2,Win32,61.09108681,,,,,,,,,,,,,,,,,,,,,,,,0.08203125,0.045572917,1,0,0,response1disk,6,78.2007,1,0.005208333,0.001302083,1,0,0,center_square,0,1,1,1,1,0,131,5,5,2514,2490,prac_patch/patch0002514.jpg,prac_patch/patch0002490.jpg,,,,,,,,,,,,,,,,,,,,,,,,,,,,,,,,,,,,,,,,,,,,,,,,,,,,,,,,,,,,
235396,001,2022-11-21_01h59.08.436,Info_measure_main_exp,2022.2.2,Win32,61.09108681,,,,,,,,,,,,,0,0,0,4,1,masks/mask_005.jpg,,,,,,,,,,,,,,,,,,,,,,,,,,,,,,,,,,,,,,,,,,,,,,,,,,,,,,,,,,,,,,,,,,,,,,,,,,,,,,,,,,,,,,,,,,,,,
235396,001,2022-11-21_01h59.08.436,Info_measure_main_exp,2022.2.2,Win32,61.09108681,,,,,,,,,,,,,0,1,1,1,1,masks/mask_002.jpg,,,,,,,,,,,,,,,,,,,,,,,,,,,,,,,,,,,,,,,,,,,,,,,,,,,,,,,,,,,,,,,,,,,,,,,,,,,,,,,,,,,,,,,,,,,,,
235396,001,2022-11-21_01h59.08.436,Info_measure_main_exp,2022.2.2,Win32,61.09108681,,,,,,,,,,,,,0,2,2,3,1,masks/mask_004.jpg,,,,,,,,,,,,,,,,,,,,,,,,,,,,,,,,,,,,,,,,,,,,,,,,,,,,,,,,,,,,,,,,,,,,,,,,,,,,,,,,,,,,,,,,,,,,,
235396,001,2022-11-21_01h59.08.436,Info_measure_main_exp,2022.2.2,Win32,61.09108681,,,,,,,,,,,,,0,3,3,0,1,masks/mask_001.jpg,,,,,,,,,,,,,,,,,,,,,,,,,,,,,,,,,,,,,,,,,,,,,,,,,,,,,,,,,,,,,,,,,,,,,,,,,,,,,,,,,,,,,,,,,,,,,
235396,001,2022-11-21_01h59.08.436,Info_measure_main_exp,2022.2.2,Win32,61.09108681,,,,,,,,,,,,,0,4,4,2,1,masks/mask_003.jpg,,,,,,,,,,,,,,,,,,,,,,,,,,,,,,,,,,,,,,,,,,,,,,,,,,,,,,,,,,,,,,,,,,,,,,,,,,,,,,,,,,,,,,,,,,,,,
235396,001,2022-11-21_01h59.08.436,Info_measure_main_exp,2022.2.2,Win32,61.09108681,,,,,,,,,,,,,,,,,,masks/mask_002.jpg,0,0,0,1,1,,,,,,,,,,,,,,,,,,,,,,,,,,,,,,,,,,,,,,,,,,,,,,,,,,,,,,,,,,,,,,,,,,,,,,,,,,,,,,,,,,,,,,,,
235396,001,2022-11-21_01h59.08.436,Info_measure_main_exp,2022.2.2,Win32,61.09108681,,,,,,,,,,,,,,,,,,masks/mask_003.jpg,0,1,1,2,1,,,,,,,,,,,,,,,,,,,,,,,,,,,,,,,,,,,,,,,,,,,,,,,,,,,,,,,,,,,,,,,,,,,,,,,,,,,,,,,,,,,,,,,,
235396,001,2022-11-21_01h59.08.436,Info_measure_main_exp,2022.2.2,Win32,61.09108681,,,,,,,,,,,,,,,,,,masks/mask_004.jpg,0,2,2,3,1,,,,,,,,,,,,,,,,,,,,,,,,,,,,,,,,,,,,,,,,,,,,,,,,,,,,,,,,,,,,,,,,,,,,,,,,,,,,,,,,,,,,,,,,
235396,001,2022-11-21_01h59.08.436,Info_measure_main_exp,2022.2.2,Win32,61.09108681,,,,,,,,,,,,,,,,,,masks/mask_005.jpg,0,3,3,4,1,,,,,,,,,,,,,,,,,,,,,,,,,,,,,,,,,,,,,,,,,,,,,,,,,,,,,,,,,,,,,,,,,,,,,,,,,,,,,,,,,,,,,,,,
235396,001,2022-11-21_01h59.08.436,Info_measure_main_exp,2022.2.2,Win32,61.09108681,,,,,,,,,,,,,,,,,,masks/mask_001.jpg,0,4,4,0,1,,,,,,,,,,,,,,,,,,,,,,,,,,,,,,,,,,,,,,,,,,,,,,,,,,,,,,,,,,,,,,,,,,,,,,,,,,,,,,,,,,,,,,,,
235396,001,2022-11-21_01h59.08.436,Info_measure_main_exp,2022.2.2,Win32,61.09108681,,,,,,,,,,,,,,,,,,,,,,,,0.045572917,0.09375,1,0,0,response1disk,7,90.8972,1,0.006510417,-0.001302083,1,0,0,center_square,0,2,2,0,1,0,131,5,5,2370,2406,prac_patch/patch0002370.jpg,prac_patch/patch0002406.jpg,,,,,,,,,,,,,,,,,,,,,,,,,,,,,,,,,,,,,,,,,,,,,,,,,,,,,,,,,,,,
235396,001,2022-11-21_01h59.08.436,Info_measure_main_exp,2022.2.2,Win32,61.09108681,,,,,,,,,,,,,,,,,,,,,,,,,,,,,,,,,,,,,,,,,,,,,,,,,,,,,,,,,,,space,1.8146,,,,,,,,,,,,,,,,,,,,,,,,,,,,,,,,,,,,,,,,,,,,,,,,,,,
235396,001,2022-11-21_01h59.08.436,Info_measure_main_exp,2022.2.2,Win32,61.09108681,,,,,,,,,,,,,,,,,,masks/mask_003.jpg,,,,,,,,,,,,,,,,,,,,,,,,,,,,,,,,,,,,,,,,,,,0,0,0,2,1,,,,,,,,,,,,,,,,,,,,,,,,,,,,,,,,,,,,,,,,,,,,,,
235396,001,2022-11-21_01h59.08.436,Info_measure_main_exp,2022.2.2,Win32,61.09108681,,,,,,,,,,,,,,,,,,masks/mask_001.jpg,,,,,,,,,,,,,,,,,,,,,,,,,,,,,,,,,,,,,,,,,,,0,1,1,0,1,,,,,,,,,,,,,,,,,,,,,,,,,,,,,,,,,,,,,,,,,,,,,,
235396,001,2022-11-21_01h59.08.436,Info_measure_main_exp,2022.2.2,Win32,61.09108681,,,,,,,,,,,,,,,,,,masks/mask_005.jpg,,,,,,,,,,,,,,,,,,,,,,,,,,,,,,,,,,,,,,,,,,,0,2,2,4,1,,,,,,,,,,,,,,,,,,,,,,,,,,,,,,,,,,,,,,,,,,,,,,
235396,001,2022-11-21_01h59.08.436,Info_measure_main_exp,2022.2.2,Win32,61.09108681,,,,,,,,,,,,,,,,,,masks/mask_002.jpg,,,,,,,,,,,,,,,,,,,,,,,,,,,,,,,,,,,,,,,,,,,0,3,3,1,1,,,,,,,,,,,,,,,,,,,,,,,,,,,,,,,,,,,,,,,,,,,,,,
235396,001,2022-11-21_01h59.08.436,Info_measure_main_exp,2022.2.2,Win32,61.09108681,,,,,,,,,,,,,,,,,,masks/mask_004.jpg,,,,,,,,,,,,,,,,,,,,,,,,,,,,,,,,,,,,,,,,,,,0,4,4,3,1,,,,,,,,,,,,,,,,,,,,,,,,,,,,,,,,,,,,,,,,,,,,,,
235396,001,2022-11-21_01h59.08.436,Info_measure_main_exp,2022.2.2,Win32,61.09108681,,,,,,,,,,,,,,,,,,masks/mask_004.jpg,,,,,,,,,,,,,,,,,,,,,,,,,,,,,,,,,,,,,,,,,,,,,,,,0,0,0,3,1,,,,,,,,,,,,,,,,,,,,,,,,,,,,,,,,,,,,,,,,,
235396,001,2022-11-21_01h59.08.436,Info_measure_main_exp,2022.2.2,Win32,61.09108681,,,,,,,,,,,,,,,,,,masks/mask_002.jpg,,,,,,,,,,,,,,,,,,,,,,,,,,,,,,,,,,,,,,,,,,,,,,,,0,1,1,1,1,,,,,,,,,,,,,,,,,,,,,,,,,,,,,,,,,,,,,,,,,
235396,001,2022-11-21_01h59.08.436,Info_measure_main_exp,2022.2.2,Win32,61.09108681,,,,,,,,,,,,,,,,,,masks/mask_003.jpg,,,,,,,,,,,,,,,,,,,,,,,,,,,,,,,,,,,,,,,,,,,,,,,,0,2,2,2,1,,,,,,,,,,,,,,,,,,,,,,,,,,,,,,,,,,,,,,,,,
235396,001,2022-11-21_01h59.08.436,Info_measure_main_exp,2022.2.2,Win32,61.09108681,,,,,,,,,,,,,,,,,,masks/mask_005.jpg,,,,,,,,,,,,,,,,,,,,,,,,,,,,,,,,,,,,,,,,,,,,,,,,0,3,3,4,1,,,,,,,,,,,,,,,,,,,,,,,,,,,,,,,,,,,,,,,,,
235396,001,2022-11-21_01h59.08.436,Info_measure_main_exp,2022.2.2,Win32,61.09108681,,,,,,,,,,,,,,,,,,masks/mask_001.jpg,,,,,,,,,,,,,,,,,,,,,,,,,,,,,,,,,,,,,,,,,,,,,,,,0,4,4,0,1,,,,,,,,,,,,,,,,,,,,,,,,,,,,,,,,,,,,,,,,,
235396,001,2022-11-21_01h59.08.436,Info_measure_main_exp,2022.2.2,Win32,61.09108681,,,,,,,,,,,,,,,,,,,,,,,,,,,,,,7,4.3872,1,,,,,,,,,,,,0,131,5,5,2190,2214,absent_patch/patch0002190.jpg,absent_patch/patch0002214.jpg,,,,,,,,,,,,,,,,,,,,0.040364583,0.092447917,1,0,0,response1disk,1,-0.001302083,-0.001302083,1,0,0,center_square,0,0,0,35,1,,,,,,,,,,,,,,,,,,,,,,,
235396,001,2022-11-21_01h59.08.436,Info_measure_main_exp,2022.2.2,Win32,61.09108681,,,,,,,,,,,,,,,,,,masks/mask_002.jpg,,,,,,,,,,,,,,,,,,,,,,,,,,,,,,,,,,,,,,,,,,,0,0,0,1,1,,,,,,,,,,,,,,,,,,,,,,,,,,,,,,,,,,,,,,,,,,,,,,
235396,001,2022-11-21_01h59.08.436,Info_measure_main_exp,2022.2.2,Win32,61.09108681,,,,,,,,,,,,,,,,,,masks/mask_005.jpg,,,,,,,,,,,,,,,,,,,,,,,,,,,,,,,,,,,,,,,,,,,0,1,1,4,1,,,,,,,,,,,,,,,,,,,,,,,,,,,,,,,,,,,,,,,,,,,,,,
235396,001,2022-11-21_01h59.08.436,Info_measure_main_exp,2022.2.2,Win32,61.09108681,,,,,,,,,,,,,,,,,,masks/mask_003.jpg,,,,,,,,,,,,,,,,,,,,,,,,,,,,,,,,,,,,,,,,,,,0,2,2,2,1,,,,,,,,,,,,,,,,,,,,,,,,,,,,,,,,,,,,,,,,,,,,,,
235396,001,2022-11-21_01h59.08.436,Info_measure_main_exp,2022.2.2,Win32,61.09108681,,,,,,,,,,,,,,,,,,masks/mask_001.jpg,,,,,,,,,,,,,,,,,,,,,,,,,,,,,,,,,,,,,,,,,,,0,3,3,0,1,,,,,,,,,,,,,,,,,,,,,,,,,,,,,,,,,,,,,,,,,,,,,,
235396,001,2022-11-21_01h59.08.436,Info_measure_main_exp,2022.2.2,Win32,61.09108681,,,,,,,,,,,,,,,,,,masks/mask_004.jpg,,,,,,,,,,,,,,,,,,,,,,,,,,,,,,,,,,,,,,,,,,,0,4,4,3,1,,,,,,,,,,,,,,,,,,,,,,,,,,,,,,,,,,,,,,,,,,,,,,
235396,001,2022-11-21_01h59.08.436,Info_measure_main_exp,2022.2.2,Win32,61.09108681,,,,,,,,,,,,,,,,,,masks/mask_001.jpg,,,,,,,,,,,,,,,,,,,,,,,,,,,,,,,,,,,,,,,,,,,,,,,,0,0,0,0,1,,,,,,,,,,,,,,,,,,,,,,,,,,,,,,,,,,,,,,,,,
235396,001,2022-11-21_01h59.08.436,Info_measure_main_exp,2022.2.2,Win32,61.09108681,,,,,,,,,,,,,,,,,,masks/mask_002.jpg,,,,,,,,,,,,,,,,,,,,,,,,,,,,,,,,,,,,,,,,,,,,,,,,0,1,1,1,1,,,,,,,,,,,,,,,,,,,,,,,,,,,,,,,,,,,,,,,,,
235396,001,2022-11-21_01h59.08.436,Info_measure_main_exp,2022.2.2,Win32,61.09108681,,,,,,,,,,,,,,,,,,masks/mask_005.jpg,,,,,,,,,,,,,,,,,,,,,,,,,,,,,,,,,,,,,,,,,,,,,,,,0,2,2,4,1,,,,,,,,,,,,,,,,,,,,,,,,,,,,,,,,,,,,,,,,,
235396,001,2022-11-21_01h59.08.436,Info_measure_main_exp,2022.2.2,Win32,61.09108681,,,,,,,,,,,,,,,,,,masks/mask_004.jpg,,,,,,,,,,,,,,,,,,,,,,,,,,,,,,,,,,,,,,,,,,,,,,,,0,3,3,3,1,,,,,,,,,,,,,,,,,,,,,,,,,,,,,,,,,,,,,,,,,
235396,001,2022-11-21_01h59.08.436,Info_measure_main_exp,2022.2.2,Win32,61.09108681,,,,,,,,,,,,,,,,,,masks/mask_003.jpg,,,,,,,,,,,,,,,,,,,,,,,,,,,,,,,,,,,,,,,,,,,,,,,,0,4,4,2,1,,,,,,,,,,,,,,,,,,,,,,,,,,,,,,,,,,,,,,,,,
235396,001,2022-11-21_01h59.08.436,Info_measure_main_exp,2022.2.2,Win32,61.09108681,,,,,,,,,,,,,,,,,,,,,,,,,,,,,,7,1.183,1,,,,,,,,,,,,0,131,5,5,2274,2082,absent_patch/patch0002274.jpg,absent_patch/patch0002082.jpg,,,,,,,,,,,,,,,,,,,,0.041666667,0.13671875,1,0,0,response1disk,2,-0.001302083,0,1,0,0,center_square,0,1,1,100,1,,,,,,,,,,,,,,,,,,,,,,,
235396,001,2022-11-21_01h59.08.436,Info_measure_main_exp,2022.2.2,Win32,61.09108681,,,,,,,,,,,,,,,,,,masks/mask_003.jpg,,,,,,,,,,,,,,,,,,,,,,,,,,,,,,,,,,,,,,,,,,,0,0,0,2,1,,,,,,,,,,,,,,,,,,,,,,,,,,,,,,,,,,,,,,,,,,,,,,
235396,001,2022-11-21_01h59.08.436,Info_measure_main_exp,2022.2.2,Win32,61.09108681,,,,,,,,,,,,,,,,,,masks/mask_001.jpg,,,,,,,,,,,,,,,,,,,,,,,,,,,,,,,,,,,,,,,,,,,0,1,1,0,1,,,,,,,,,,,,,,,,,,,,,,,,,,,,,,,,,,,,,,,,,,,,,,
235396,001,2022-11-21_01h59.08.436,Info_measure_main_exp,2022.2.2,Win32,61.09108681,,,,,,,,,,,,,,,,,,masks/mask_002.jpg,,,,,,,,,,,,,,,,,,,,,,,,,,,,,,,,,,,,,,,,,,,0,2,2,1,1,,,,,,,,,,,,,,,,,,,,,,,,,,,,,,,,,,,,,,,,,,,,,,
235396,001,2022-11-21_01h59.08.436,Info_measure_main_exp,2022.2.2,Win32,61.09108681,,,,,,,,,,,,,,,,,,masks/mask_005.jpg,,,,,,,,,,,,,,,,,,,,,,,,,,,,,,,,,,,,,,,,,,,0,3,3,4,1,,,,,,,,,,,,,,,,,,,,,,,,,,,,,,,,,,,,,,,,,,,,,,
235396,001,2022-11-21_01h59.08.436,Info_measure_main_exp,2022.2.2,Win32,61.09108681,,,,,,,,,,,,,,,,,,masks/mask_004.jpg,,,,,,,,,,,,,,,,,,,,,,,,,,,,,,,,,,,,,,,,,,,0,4,4,3,1,,,,,,,,,,,,,,,,,,,,,,,,,,,,,,,,,,,,,,,,,,,,,,
235396,001,2022-11-21_01h59.08.436,Info_measure_main_exp,2022.2.2,Win32,61.09108681,,,,,,,,,,,,,,,,,,masks/mask_005.jpg,,,,,,,,,,,,,,,,,,,,,,,,,,,,,,,,,,,,,,,,,,,,,,,,0,0,0,4,1,,,,,,,,,,,,,,,,,,,,,,,,,,,,,,,,,,,,,,,,,
235396,001,2022-11-21_01h59.08.436,Info_measure_main_exp,2022.2.2,Win32,61.09108681,,,,,,,,,,,,,,,,,,masks/mask_001.jpg,,,,,,,,,,,,,,,,,,,,,,,,,,,,,,,,,,,,,,,,,,,,,,,,0,1,1,0,1,,,,,,,,,,,,,,,,,,,,,,,,,,,,,,,,,,,,,,,,,
235396,001,2022-11-21_01h59.08.436,Info_measure_main_exp,2022.2.2,Win32,61.09108681,,,,,,,,,,,,,,,,,,masks/mask_003.jpg,,,,,,,,,,,,,,,,,,,,,,,,,,,,,,,,,,,,,,,,,,,,,,,,0,2,2,2,1,,,,,,,,,,,,,,,,,,,,,,,,,,,,,,,,,,,,,,,,,
235396,001,2022-11-21_01h59.08.436,Info_measure_main_exp,2022.2.2,Win32,61.09108681,,,,,,,,,,,,,,,,,,masks/mask_004.jpg,,,,,,,,,,,,,,,,,,,,,,,,,,,,,,,,,,,,,,,,,,,,,,,,0,3,3,3,1,,,,,,,,,,,,,,,,,,,,,,,,,,,,,,,,,,,,,,,,,
235396,001,2022-11-21_01h59.08.436,Info_measure_main_exp,2022.2.2,Win32,61.09108681,,,,,,,,,,,,,,,,,,masks/mask_002.jpg,,,,,,,,,,,,,,,,,,,,,,,,,,,,,,,,,,,,,,,,,,,,,,,,0,4,4,1,1,,,,,,,,,,,,,,,,,,,,,,,,,,,,,,,,,,,,,,,,,
235396,001,2022-11-21_01h59.08.436,Info_measure_main_exp,2022.2.2,Win32,61.09108681,,,,,,,,,,,,,,,,,,,,,,,,,,,,,,4,3.2012,1,,,,,,,,,,,,0,131,5,5,2238,2298,absent_patch/patch0002238.jpg,absent_patch/patch0002298.jpg,,,,,,,,,,,,,,,,,,,,0.057291667,-0.119791667,1,0,0,response3disk,3,-0.00390625,0.0078125,1,0,0,center_square,0,2,2,51,1,,,,,,,,,,,,,,,,,,,,,,,
235396,001,2022-11-21_01h59.08.436,Info_measure_main_exp,2022.2.2,Win32,61.09108681,,,,,,,,,,,,,,,,,,masks/mask_005.jpg,,,,,,,,,,,,,,,,,,,,,,,,,,,,,,,,,,,,,,,,,,,0,0,0,4,1,,,,,,,,,,,,,,,,,,,,,,,,,,,,,,,,,,,,,,,,,,,,,,
235396,001,2022-11-21_01h59.08.436,Info_measure_main_exp,2022.2.2,Win32,61.09108681,,,,,,,,,,,,,,,,,,masks/mask_004.jpg,,,,,,,,,,,,,,,,,,,,,,,,,,,,,,,,,,,,,,,,,,,0,1,1,3,1,,,,,,,,,,,,,,,,,,,,,,,,,,,,,,,,,,,,,,,,,,,,,,
235396,001,2022-11-21_01h59.08.436,Info_measure_main_exp,2022.2.2,Win32,61.09108681,,,,,,,,,,,,,,,,,,masks/mask_002.jpg,,,,,,,,,,,,,,,,,,,,,,,,,,,,,,,,,,,,,,,,,,,0,2,2,1,1,,,,,,,,,,,,,,,,,,,,,,,,,,,,,,,,,,,,,,,,,,,,,,
235396,001,2022-11-21_01h59.08.436,Info_measure_main_exp,2022.2.2,Win32,61.09108681,,,,,,,,,,,,,,,,,,masks/mask_003.jpg,,,,,,,,,,,,,,,,,,,,,,,,,,,,,,,,,,,,,,,,,,,0,3,3,2,1,,,,,,,,,,,,,,,,,,,,,,,,,,,,,,,,,,,,,,,,,,,,,,
235396,001,2022-11-21_01h59.08.436,Info_measure_main_exp,2022.2.2,Win32,61.09108681,,,,,,,,,,,,,,,,,,masks/mask_001.jpg,,,,,,,,,,,,,,,,,,,,,,,,,,,,,,,,,,,,,,,,,,,0,4,4,0,1,,,,,,,,,,,,,,,,,,,,,,,,,,,,,,,,,,,,,,,,,,,,,,
235396,001,2022-11-21_01h59.08.436,Info_measure_main_exp,2022.2.2,Win32,61.09108681,,,,,,,,,,,,,,,,,,masks/mask_001.jpg,,,,,,,,,,,,,,,,,,,,,,,,,,,,,,,,,,,,,,,,,,,,,,,,0,0,0,0,1,,,,,,,,,,,,,,,,,,,,,,,,,,,,,,,,,,,,,,,,,
235396,001,2022-11-21_01h59.08.436,Info_measure_main_exp,2022.2.2,Win32,61.09108681,,,,,,,,,,,,,,,,,,masks/mask_003.jpg,,,,,,,,,,,,,,,,,,,,,,,,,,,,,,,,,,,,,,,,,,,,,,,,0,1,1,2,1,,,,,,,,,,,,,,,,,,,,,,,,,,,,,,,,,,,,,,,,,
235396,001,2022-11-21_01h59.08.436,Info_measure_main_exp,2022.2.2,Win32,61.09108681,,,,,,,,,,,,,,,,,,masks/mask_004.jpg,,,,,,,,,,,,,,,,,,,,,,,,,,,,,,,,,,,,,,,,,,,,,,,,0,2,2,3,1,,,,,,,,,,,,,,,,,,,,,,,,,,,,,,,,,,,,,,,,,
235396,001,2022-11-21_01h59.08.436,Info_measure_main_exp,2022.2.2,Win32,61.09108681,,,,,,,,,,,,,,,,,,masks/mask_005.jpg,,,,,,,,,,,,,,,,,,,,,,,,,,,,,,,,,,,,,,,,,,,,,,,,0,3,3,4,1,,,,,,,,,,,,,,,,,,,,,,,,,,,,,,,,,,,,,,,,,
235396,001,2022-11-21_01h59.08.436,Info_measure_main_exp,2022.2.2,Win32,61.09108681,,,,,,,,,,,,,,,,,,masks/mask_002.jpg,,,,,,,,,,,,,,,,,,,,,,,,,,,,,,,,,,,,,,,,,,,,,,,,0,4,4,1,1,,,,,,,,,,,,,,,,,,,,,,,,,,,,,,,,,,,,,,,,,
235396,001,2022-11-21_01h59.08.436,Info_measure_main_exp,2022.2.2,Win32,61.09108681,,,,,,,,,,,,,,,,,,,,,,,,,,,,,,7,2.3165,1,,,,,,,,,,,,0,131,5,5,2250,2142,absent_patch/patch0002250.jpg,absent_patch/patch0002142.jpg,,,,,,,,,,,,,,,,,,,,0.032552083,0.104166667,1,0,0,response1disk,4,-0.005208333,-0.0078125,1,0,0,center_square,0,3,3,71,1,,,,,,,,,,,,,,,,,,,,,,,
235396,001,2022-11-21_01h59.08.436,Info_measure_main_exp,2022.2.2,Win32,61.09108681,,,,,,,,,,,,,,,,,,masks/mask_004.jpg,,,,,,,,,,,,,,,,,,,,,,,,,,,,,,,,,,,,,,,,,,,0,0,0,3,1,,,,,,,,,,,,,,,,,,,,,,,,,,,,,,,,,,,,,,,,,,,,,,
235396,001,2022-11-21_01h59.08.436,Info_measure_main_exp,2022.2.2,Win32,61.09108681,,,,,,,,,,,,,,,,,,masks/mask_005.jpg,,,,,,,,,,,,,,,,,,,,,,,,,,,,,,,,,,,,,,,,,,,0,1,1,4,1,,,,,,,,,,,,,,,,,,,,,,,,,,,,,,,,,,,,,,,,,,,,,,
235396,001,2022-11-21_01h59.08.436,Info_measure_main_exp,2022.2.2,Win32,61.09108681,,,,,,,,,,,,,,,,,,masks/mask_002.jpg,,,,,,,,,,,,,,,,,,,,,,,,,,,,,,,,,,,,,,,,,,,0,2,2,1,1,,,,,,,,,,,,,,,,,,,,,,,,,,,,,,,,,,,,,,,,,,,,,,
235396,001,2022-11-21_01h59.08.436,Info_measure_main_exp,2022.2.2,Win32,61.09108681,,,,,,,,,,,,,,,,,,masks/mask_003.jpg,,,,,,,,,,,,,,,,,,,,,,,,,,,,,,,,,,,,,,,,,,,0,3,3,2,1,,,,,,,,,,,,,,,,,,,,,,,,,,,,,,,,,,,,,,,,,,,,,,
235396,001,2022-11-21_01h59.08.436,Info_measure_main_exp,2022.2.2,Win32,61.09108681,,,,,,,,,,,,,,,,,,masks/mask_001.jpg,,,,,,,,,,,,,,,,,,,,,,,,,,,,,,,,,,,,,,,,,,,0,4,4,0,1,,,,,,,,,,,,,,,,,,,,,,,,,,,,,,,,,,,,,,,,,,,,,,
235396,001,2022-11-21_01h59.08.436,Info_measure_main_exp,2022.2.2,Win32,61.09108681,,,,,,,,,,,,,,,,,,masks/mask_005.jpg,,,,,,,,,,,,,,,,,,,,,,,,,,,,,,,,,,,,,,,,,,,,,,,,0,0,0,4,1,,,,,,,,,,,,,,,,,,,,,,,,,,,,,,,,,,,,,,,,,
235396,001,2022-11-21_01h59.08.436,Info_measure_main_exp,2022.2.2,Win32,61.09108681,,,,,,,,,,,,,,,,,,masks/mask_002.jpg,,,,,,,,,,,,,,,,,,,,,,,,,,,,,,,,,,,,,,,,,,,,,,,,0,1,1,1,1,,,,,,,,,,,,,,,,,,,,,,,,,,,,,,,,,,,,,,,,,
235396,001,2022-11-21_01h59.08.436,Info_measure_main_exp,2022.2.2,Win32,61.09108681,,,,,,,,,,,,,,,,,,masks/mask_001.jpg,,,,,,,,,,,,,,,,,,,,,,,,,,,,,,,,,,,,,,,,,,,,,,,,0,2,2,0,1,,,,,,,,,,,,,,,,,,,,,,,,,,,,,,,,,,,,,,,,,
235396,001,2022-11-21_01h59.08.436,Info_measure_main_exp,2022.2.2,Win32,61.09108681,,,,,,,,,,,,,,,,,,masks/mask_003.jpg,,,,,,,,,,,,,,,,,,,,,,,,,,,,,,,,,,,,,,,,,,,,,,,,0,3,3,2,1,,,,,,,,,,,,,,,,,,,,,,,,,,,,,,,,,,,,,,,,,
235396,001,2022-11-21_01h59.08.436,Info_measure_main_exp,2022.2.2,Win32,61.09108681,,,,,,,,,,,,,,,,,,masks/mask_004.jpg,,,,,,,,,,,,,,,,,,,,,,,,,,,,,,,,,,,,,,,,,,,,,,,,0,4,4,3,1,,,,,,,,,,,,,,,,,,,,,,,,,,,,,,,,,,,,,,,,,
235396,001,2022-11-21_01h59.08.436,Info_measure_main_exp,2022.2.2,Win32,61.09108681,,,,,,,,,,,,,,,,,,,,,,,,,,,,,,7,1.0061,1,,,,,,,,,,,,0,131,5,5,2298,2274,absent_patch/patch0002298.jpg,absent_patch/patch0002274.jpg,,,,,,,,,,,,,,,,,,,,0.04296875,0.087239583,1,0,0,response1disk,5,-0.0078125,-0.009114583,1,0,0,center_square,0,4,4,1,1,,,,,,,,,,,,,,,,,,,,,,,
235396,001,2022-11-21_01h59.08.436,Info_measure_main_exp,2022.2.2,Win32,61.09108681,,,,,,,,,,,,,,,,,,masks/mask_001.jpg,,,,,,,,,,,,,,,,,,,,,,,,,,,,,,,,,,,,,,,,,,,0,0,0,0,1,,,,,,,,,,,,,,,,,,,,,,,,,,,,,,,,,,,,,,,,,,,,,,
235396,001,2022-11-21_01h59.08.436,Info_measure_main_exp,2022.2.2,Win32,61.09108681,,,,,,,,,,,,,,,,,,masks/mask_004.jpg,,,,,,,,,,,,,,,,,,,,,,,,,,,,,,,,,,,,,,,,,,,0,1,1,3,1,,,,,,,,,,,,,,,,,,,,,,,,,,,,,,,,,,,,,,,,,,,,,,
235396,001,2022-11-21_01h59.08.436,Info_measure_main_exp,2022.2.2,Win32,61.09108681,,,,,,,,,,,,,,,,,,masks/mask_005.jpg,,,,,,,,,,,,,,,,,,,,,,,,,,,,,,,,,,,,,,,,,,,0,2,2,4,1,,,,,,,,,,,,,,,,,,,,,,,,,,,,,,,,,,,,,,,,,,,,,,
235396,001,2022-11-21_01h59.08.436,Info_measure_main_exp,2022.2.2,Win32,61.09108681,,,,,,,,,,,,,,,,,,masks/mask_002.jpg,,,,,,,,,,,,,,,,,,,,,,,,,,,,,,,,,,,,,,,,,,,0,3,3,1,1,,,,,,,,,,,,,,,,,,,,,,,,,,,,,,,,,,,,,,,,,,,,,,
235396,001,2022-11-21_01h59.08.436,Info_measure_main_exp,2022.2.2,Win32,61.09108681,,,,,,,,,,,,,,,,,,masks/mask_003.jpg,,,,,,,,,,,,,,,,,,,,,,,,,,,,,,,,,,,,,,,,,,,0,4,4,2,1,,,,,,,,,,,,,,,,,,,,,,,,,,,,,,,,,,,,,,,,,,,,,,
235396,001,2022-11-21_01h59.08.436,Info_measure_main_exp,2022.2.2,Win32,61.09108681,,,,,,,,,,,,,,,,,,masks/mask_001.jpg,,,,,,,,,,,,,,,,,,,,,,,,,,,,,,,,,,,,,,,,,,,,,,,,0,0,0,0,1,,,,,,,,,,,,,,,,,,,,,,,,,,,,,,,,,,,,,,,,,
235396,001,2022-11-21_01h59.08.436,Info_measure_main_exp,2022.2.2,Win32,61.09108681,,,,,,,,,,,,,,,,,,masks/mask_002.jpg,,,,,,,,,,,,,,,,,,,,,,,,,,,,,,,,,,,,,,,,,,,,,,,,0,1,1,1,1,,,,,,,,,,,,,,,,,,,,,,,,,,,,,,,,,,,,,,,,,
235396,001,2022-11-21_01h59.08.436,Info_measure_main_exp,2022.2.2,Win32,61.09108681,,,,,,,,,,,,,,,,,,masks/mask_005.jpg,,,,,,,,,,,,,,,,,,,,,,,,,,,,,,,,,,,,,,,,,,,,,,,,0,2,2,4,1,,,,,,,,,,,,,,,,,,,,,,,,,,,,,,,,,,,,,,,,,
235396,001,2022-11-21_01h59.08.436,Info_measure_main_exp,2022.2.2,Win32,61.09108681,,,,,,,,,,,,,,,,,,masks/mask_003.jpg,,,,,,,,,,,,,,,,,,,,,,,,,,,,,,,,,,,,,,,,,,,,,,,,0,3,3,2,1,,,,,,,,,,,,,,,,,,,,,,,,,,,,,,,,,,,,,,,,,
235396,001,2022-11-21_01h59.08.436,Info_measure_main_exp,2022.2.2,Win32,61.09108681,,,,,,,,,,,,,,,,,,masks/mask_004.jpg,,,,,,,,,,,,,,,,,,,,,,,,,,,,,,,,,,,,,,,,,,,,,,,,0,4,4,3,1,,,,,,,,,,,,,,,,,,,,,,,,,,,,,,,,,,,,,,,,,
235396,001,2022-11-21_01h59.08.436,Info_measure_main_exp,2022.2.2,Win32,61.09108681,,,,,,,,,,,,,,,,,,,,,,,,,,,,,,3,1.5184,1,,,,,,,,,,,,0,131,5,5,1986,2154,absent_patch/patch0001986.jpg,absent_patch/patch0002154.jpg,,,,,,,,,,,,,,,,,,,,-0.057291667,-0.07421875,1,0,0,response5disk,6,0.005208333,0.013020833,1,0,0,center_square,0,5,5,36,1,,,,,,,,,,,,,,,,,,,,,,,
235396,001,2022-11-21_01h59.08.436,Info_measure_main_exp,2022.2.2,Win32,61.09108681,,,,,,,,,,,,,,,,,,masks/mask_005.jpg,,,,,,,,,,,,,,,,,,,,,,,,,,,,,,,,,,,,,,,,,,,0,0,0,4,1,,,,,,,,,,,,,,,,,,,,,,,,,,,,,,,,,,,,,,,,,,,,,,
235396,001,2022-11-21_01h59.08.436,Info_measure_main_exp,2022.2.2,Win32,61.09108681,,,,,,,,,,,,,,,,,,masks/mask_002.jpg,,,,,,,,,,,,,,,,,,,,,,,,,,,,,,,,,,,,,,,,,,,0,1,1,1,1,,,,,,,,,,,,,,,,,,,,,,,,,,,,,,,,,,,,,,,,,,,,,,
235396,001,2022-11-21_01h59.08.436,Info_measure_main_exp,2022.2.2,Win32,61.09108681,,,,,,,,,,,,,,,,,,masks/mask_004.jpg,,,,,,,,,,,,,,,,,,,,,,,,,,,,,,,,,,,,,,,,,,,0,2,2,3,1,,,,,,,,,,,,,,,,,,,,,,,,,,,,,,,,,,,,,,,,,,,,,,
235396,001,2022-11-21_01h59.08.436,Info_measure_main_exp,2022.2.2,Win32,61.09108681,,,,,,,,,,,,,,,,,,masks/mask_003.jpg,,,,,,,,,,,,,,,,,,,,,,,,,,,,,,,,,,,,,,,,,,,0,3,3,2,1,,,,,,,,,,,,,,,,,,,,,,,,,,,,,,,,,,,,,,,,,,,,,,
235396,001,2022-11-21_01h59.08.436,Info_measure_main_exp,2022.2.2,Win32,61.09108681,,,,,,,,,,,,,,,,,,masks/mask_001.jpg,,,,,,,,,,,,,,,,,,,,,,,,,,,,,,,,,,,,,,,,,,,0,4,4,0,1,,,,,,,,,,,,,,,,,,,,,,,,,,,,,,,,,,,,,,,,,,,,,,
235396,001,2022-11-21_01h59.08.436,Info_measure_main_exp,2022.2.2,Win32,61.09108681,,,,,,,,,,,,,,,,,,masks/mask_001.jpg,,,,,,,,,,,,,,,,,,,,,,,,,,,,,,,,,,,,,,,,,,,,,,,,0,0,0,0,1,,,,,,,,,,,,,,,,,,,,,,,,,,,,,,,,,,,,,,,,,
235396,001,2022-11-21_01h59.08.436,Info_measure_main_exp,2022.2.2,Win32,61.09108681,,,,,,,,,,,,,,,,,,masks/mask_005.jpg,,,,,,,,,,,,,,,,,,,,,,,,,,,,,,,,,,,,,,,,,,,,,,,,0,1,1,4,1,,,,,,,,,,,,,,,,,,,,,,,,,,,,,,,,,,,,,,,,,
235396,001,2022-11-21_01h59.08.436,Info_measure_main_exp,2022.2.2,Win32,61.09108681,,,,,,,,,,,,,,,,,,masks/mask_002.jpg,,,,,,,,,,,,,,,,,,,,,,,,,,,,,,,,,,,,,,,,,,,,,,,,0,2,2,1,1,,,,,,,,,,,,,,,,,,,,,,,,,,,,,,,,,,,,,,,,,
235396,001,2022-11-21_01h59.08.436,Info_measure_main_exp,2022.2.2,Win32,61.09108681,,,,,,,,,,,,,,,,,,masks/mask_003.jpg,,,,,,,,,,,,,,,,,,,,,,,,,,,,,,,,,,,,,,,,,,,,,,,,0,3,3,2,1,,,,,,,,,,,,,,,,,,,,,,,,,,,,,,,,,,,,,,,,,
235396,001,2022-11-21_01h59.08.436,Info_measure_main_exp,2022.2.2,Win32,61.09108681,,,,,,,,,,,,,,,,,,masks/mask_004.jpg,,,,,,,,,,,,,,,,,,,,,,,,,,,,,,,,,,,,,,,,,,,,,,,,0,4,4,3,1,,,,,,,,,,,,,,,,,,,,,,,,,,,,,,,,,,,,,,,,,
235396,001,2022-11-21_01h59.08.436,Info_measure_main_exp,2022.2.2,Win32,61.09108681,,,,,,,,,,,,,,,,,,,,,,,,,,,,,,2,2.3514,1,,,,,,,,,,,,0,131,5,5,2190,2178,absent_patch/patch0002190.jpg,absent_patch/patch0002178.jpg,,,,,,,,,,,,,,,,,,,,-0.079427083,-0.041666667,1,0,0,response5disk,7,0.009114583,0.0078125,1,0,0,center_square,0,6,6,14,1,,,,,,,,,,,,,,,,,,,,,,,
235396,001,2022-11-21_01h59.08.436,Info_measure_main_exp,2022.2.2,Win32,61.09108681,,,,,,,,,,,,,,,,,,masks/mask_004.jpg,,,,,,,,,,,,,,,,,,,,,,,,,,,,,,,,,,,,,,,,,,,0,0,0,3,1,,,,,,,,,,,,,,,,,,,,,,,,,,,,,,,,,,,,,,,,,,,,,,
235396,001,2022-11-21_01h59.08.436,Info_measure_main_exp,2022.2.2,Win32,61.09108681,,,,,,,,,,,,,,,,,,masks/mask_001.jpg,,,,,,,,,,,,,,,,,,,,,,,,,,,,,,,,,,,,,,,,,,,0,1,1,0,1,,,,,,,,,,,,,,,,,,,,,,,,,,,,,,,,,,,,,,,,,,,,,,
235396,001,2022-11-21_01h59.08.436,Info_measure_main_exp,2022.2.2,Win32,61.09108681,,,,,,,,,,,,,,,,,,masks/mask_002.jpg,,,,,,,,,,,,,,,,,,,,,,,,,,,,,,,,,,,,,,,,,,,0,2,2,1,1,,,,,,,,,,,,,,,,,,,,,,,,,,,,,,,,,,,,,,,,,,,,,,
235396,001,2022-11-21_01h59.08.436,Info_measure_main_exp,2022.2.2,Win32,61.09108681,,,,,,,,,,,,,,,,,,masks/mask_005.jpg,,,,,,,,,,,,,,,,,,,,,,,,,,,,,,,,,,,,,,,,,,,0,3,3,4,1,,,,,,,,,,,,,,,,,,,,,,,,,,,,,,,,,,,,,,,,,,,,,,
235396,001,2022-11-21_01h59.08.436,Info_measure_main_exp,2022.2.2,Win32,61.09108681,,,,,,,,,,,,,,,,,,masks/mask_003.jpg,,,,,,,,,,,,,,,,,,,,,,,,,,,,,,,,,,,,,,,,,,,0,4,4,2,1,,,,,,,,,,,,,,,,,,,,,,,,,,,,,,,,,,,,,,,,,,,,,,
235396,001,2022-11-21_01h59.08.436,Info_measure_main_exp,2022.2.2,Win32,61.09108681,,,,,,,,,,,,,,,,,,masks/mask_003.jpg,,,,,,,,,,,,,,,,,,,,,,,,,,,,,,,,,,,,,,,,,,,,,,,,0,0,0,2,1,,,,,,,,,,,,,,,,,,,,,,,,,,,,,,,,,,,,,,,,,
235396,001,2022-11-21_01h59.08.436,Info_measure_main_exp,2022.2.2,Win32,61.09108681,,,,,,,,,,,,,,,,,,masks/mask_004.jpg,,,,,,,,,,,,,,,,,,,,,,,,,,,,,,,,,,,,,,,,,,,,,,,,0,1,1,3,1,,,,,,,,,,,,,,,,,,,,,,,,,,,,,,,,,,,,,,,,,
235396,001,2022-11-21_01h59.08.436,Info_measure_main_exp,2022.2.2,Win32,61.09108681,,,,,,,,,,,,,,,,,,masks/mask_001.jpg,,,,,,,,,,,,,,,,,,,,,,,,,,,,,,,,,,,,,,,,,,,,,,,,0,2,2,0,1,,,,,,,,,,,,,,,,,,,,,,,,,,,,,,,,,,,,,,,,,
235396,001,2022-11-21_01h59.08.436,Info_measure_main_exp,2022.2.2,Win32,61.09108681,,,,,,,,,,,,,,,,,,masks/mask_005.jpg,,,,,,,,,,,,,,,,,,,,,,,,,,,,,,,,,,,,,,,,,,,,,,,,0,3,3,4,1,,,,,,,,,,,,,,,,,,,,,,,,,,,,,,,,,,,,,,,,,
235396,001,2022-11-21_01h59.08.436,Info_measure_main_exp,2022.2.2,Win32,61.09108681,,,,,,,,,,,,,,,,,,masks/mask_002.jpg,,,,,,,,,,,,,,,,,,,,,,,,,,,,,,,,,,,,,,,,,,,,,,,,0,4,4,1,1,,,,,,,,,,,,,,,,,,,,,,,,,,,,,,,,,,,,,,,,,
235396,001,2022-11-21_01h59.08.436,Info_measure_main_exp,2022.2.2,Win32,61.09108681,,,,,,,,,,,,,,,,,,,,,,,,,,,,,,5,2.287,1,,,,,,,,,,,,0,131,5,5,2178,2142,absent_patch/patch0002178.jpg,absent_patch/patch0002142.jpg,,,,,,,,,,,,,,,,,,,,0.102864583,-0.069010417,1,0,0,response3disk,8,0.00390625,0.001302083,1,0,0,center_square,0,7,7,41,1,,,,,,,,,,,,,,,,,,,,,,,
235396,001,2022-11-21_01h59.08.436,Info_measure_main_exp,2022.2.2,Win32,61.09108681,,,,,,,,,,,,,,,,,,masks/mask_004.jpg,,,,,,,,,,,,,,,,,,,,,,,,,,,,,,,,,,,,,,,,,,,0,0,0,3,1,,,,,,,,,,,,,,,,,,,,,,,,,,,,,,,,,,,,,,,,,,,,,,
235396,001,2022-11-21_01h59.08.436,Info_measure_main_exp,2022.2.2,Win32,61.09108681,,,,,,,,,,,,,,,,,,masks/mask_002.jpg,,,,,,,,,,,,,,,,,,,,,,,,,,,,,,,,,,,,,,,,,,,0,1,1,1,1,,,,,,,,,,,,,,,,,,,,,,,,,,,,,,,,,,,,,,,,,,,,,,
235396,001,2022-11-21_01h59.08.436,Info_measure_main_exp,2022.2.2,Win32,61.09108681,,,,,,,,,,,,,,,,,,masks/mask_001.jpg,,,,,,,,,,,,,,,,,,,,,,,,,,,,,,,,,,,,,,,,,,,0,2,2,0,1,,,,,,,,,,,,,,,,,,,,,,,,,,,,,,,,,,,,,,,,,,,,,,
235396,001,2022-11-21_01h59.08.436,Info_measure_main_exp,2022.2.2,Win32,61.09108681,,,,,,,,,,,,,,,,,,masks/mask_003.jpg,,,,,,,,,,,,,,,,,,,,,,,,,,,,,,,,,,,,,,,,,,,0,3,3,2,1,,,,,,,,,,,,,,,,,,,,,,,,,,,,,,,,,,,,,,,,,,,,,,
235396,001,2022-11-21_01h59.08.436,Info_measure_main_exp,2022.2.2,Win32,61.09108681,,,,,,,,,,,,,,,,,,masks/mask_005.jpg,,,,,,,,,,,,,,,,,,,,,,,,,,,,,,,,,,,,,,,,,,,0,4,4,4,1,,,,,,,,,,,,,,,,,,,,,,,,,,,,,,,,,,,,,,,,,,,,,,
235396,001,2022-11-21_01h59.08.436,Info_measure_main_exp,2022.2.2,Win32,61.09108681,,,,,,,,,,,,,,,,,,masks/mask_004.jpg,,,,,,,,,,,,,,,,,,,,,,,,,,,,,,,,,,,,,,,,,,,,,,,,0,0,0,3,1,,,,,,,,,,,,,,,,,,,,,,,,,,,,,,,,,,,,,,,,,
235396,001,2022-11-21_01h59.08.436,Info_measure_main_exp,2022.2.2,Win32,61.09108681,,,,,,,,,,,,,,,,,,masks/mask_003.jpg,,,,,,,,,,,,,,,,,,,,,,,,,,,,,,,,,,,,,,,,,,,,,,,,0,1,1,2,1,,,,,,,,,,,,,,,,,,,,,,,,,,,,,,,,,,,,,,,,,
235396,001,2022-11-21_01h59.08.436,Info_measure_main_exp,2022.2.2,Win32,61.09108681,,,,,,,,,,,,,,,,,,masks/mask_005.jpg,,,,,,,,,,,,,,,,,,,,,,,,,,,,,,,,,,,,,,,,,,,,,,,,0,2,2,4,1,,,,,,,,,,,,,,,,,,,,,,,,,,,,,,,,,,,,,,,,,
235396,001,2022-11-21_01h59.08.436,Info_measure_main_exp,2022.2.2,Win32,61.09108681,,,,,,,,,,,,,,,,,,masks/mask_002.jpg,,,,,,,,,,,,,,,,,,,,,,,,,,,,,,,,,,,,,,,,,,,,,,,,0,3,3,1,1,,,,,,,,,,,,,,,,,,,,,,,,,,,,,,,,,,,,,,,,,
235396,001,2022-11-21_01h59.08.436,Info_measure_main_exp,2022.2.2,Win32,61.09108681,,,,,,,,,,,,,,,,,,masks/mask_001.jpg,,,,,,,,,,,,,,,,,,,,,,,,,,,,,,,,,,,,,,,,,,,,,,,,0,4,4,0,1,,,,,,,,,,,,,,,,,,,,,,,,,,,,,,,,,,,,,,,,,
235396,001,2022-11-21_01h59.08.436,Info_measure_main_exp,2022.2.2,Win32,61.09108681,,,,,,,,,,,,,,,,,,,,,,,,,,,,,,7,1.3185,1,,,,,,,,,,,,0,131,5,5,1986,2142,absent_patch/patch0001986.jpg,absent_patch/patch0002142.jpg,,,,,,,,,,,,,,,,,,,,0.026041667,0.096354167,1,0,0,response1disk,9,0.009114583,0.002604167,1,0,0,center_square,0,8,8,76,1,,,,,,,,,,,,,,,,,,,,,,,
235396,001,2022-11-21_01h59.08.436,Info_measure_main_exp,2022.2.2,Win32,61.09108681,,,,,,,,,,,,,,,,,,masks/mask_004.jpg,,,,,,,,,,,,,,,,,,,,,,,,,,,,,,,,,,,,,,,,,,,0,0,0,3,1,,,,,,,,,,,,,,,,,,,,,,,,,,,,,,,,,,,,,,,,,,,,,,
235396,001,2022-11-21_01h59.08.436,Info_measure_main_exp,2022.2.2,Win32,61.09108681,,,,,,,,,,,,,,,,,,masks/mask_002.jpg,,,,,,,,,,,,,,,,,,,,,,,,,,,,,,,,,,,,,,,,,,,0,1,1,1,1,,,,,,,,,,,,,,,,,,,,,,,,,,,,,,,,,,,,,,,,,,,,,,
235396,001,2022-11-21_01h59.08.436,Info_measure_main_exp,2022.2.2,Win32,61.09108681,,,,,,,,,,,,,,,,,,masks/mask_005.jpg,,,,,,,,,,,,,,,,,,,,,,,,,,,,,,,,,,,,,,,,,,,0,2,2,4,1,,,,,,,,,,,,,,,,,,,,,,,,,,,,,,,,,,,,,,,,,,,,,,
235396,001,2022-11-21_01h59.08.436,Info_measure_main_exp,2022.2.2,Win32,61.09108681,,,,,,,,,,,,,,,,,,masks/mask_003.jpg,,,,,,,,,,,,,,,,,,,,,,,,,,,,,,,,,,,,,,,,,,,0,3,3,2,1,,,,,,,,,,,,,,,,,,,,,,,,,,,,,,,,,,,,,,,,,,,,,,
235396,001,2022-11-21_01h59.08.436,Info_measure_main_exp,2022.2.2,Win32,61.09108681,,,,,,,,,,,,,,,,,,masks/mask_001.jpg,,,,,,,,,,,,,,,,,,,,,,,,,,,,,,,,,,,,,,,,,,,0,4,4,0,1,,,,,,,,,,,,,,,,,,,,,,,,,,,,,,,,,,,,,,,,,,,,,,
235396,001,2022-11-21_01h59.08.436,Info_measure_main_exp,2022.2.2,Win32,61.09108681,,,,,,,,,,,,,,,,,,masks/mask_004.jpg,,,,,,,,,,,,,,,,,,,,,,,,,,,,,,,,,,,,,,,,,,,,,,,,0,0,0,3,1,,,,,,,,,,,,,,,,,,,,,,,,,,,,,,,,,,,,,,,,,
235396,001,2022-11-21_01h59.08.436,Info_measure_main_exp,2022.2.2,Win32,61.09108681,,,,,,,,,,,,,,,,,,masks/mask_002.jpg,,,,,,,,,,,,,,,,,,,,,,,,,,,,,,,,,,,,,,,,,,,,,,,,0,1,1,1,1,,,,,,,,,,,,,,,,,,,,,,,,,,,,,,,,,,,,,,,,,
235396,001,2022-11-21_01h59.08.436,Info_measure_main_exp,2022.2.2,Win32,61.09108681,,,,,,,,,,,,,,,,,,masks/mask_001.jpg,,,,,,,,,,,,,,,,,,,,,,,,,,,,,,,,,,,,,,,,,,,,,,,,0,2,2,0,1,,,,,,,,,,,,,,,,,,,,,,,,,,,,,,,,,,,,,,,,,
235396,001,2022-11-21_01h59.08.436,Info_measure_main_exp,2022.2.2,Win32,61.09108681,,,,,,,,,,,,,,,,,,masks/mask_003.jpg,,,,,,,,,,,,,,,,,,,,,,,,,,,,,,,,,,,,,,,,,,,,,,,,0,3,3,2,1,,,,,,,,,,,,,,,,,,,,,,,,,,,,,,,,,,,,,,,,,
235396,001,2022-11-21_01h59.08.436,Info_measure_main_exp,2022.2.2,Win32,61.09108681,,,,,,,,,,,,,,,,,,masks/mask_005.jpg,,,,,,,,,,,,,,,,,,,,,,,,,,,,,,,,,,,,,,,,,,,,,,,,0,4,4,4,1,,,,,,,,,,,,,,,,,,,,,,,,,,,,,,,,,,,,,,,,,
235396,001,2022-11-21_01h59.08.436,Info_measure_main_exp,2022.2.2,Win32,61.09108681,,,,,,,,,,,,,,,,,,,,,,,,,,,,,,7,0.9179,1,,,,,,,,,,,,0,131,5,5,2298,1986,absent_patch/patch0002298.jpg,absent_patch/patch0001986.jpg,,,,,,,,,,,,,,,,,,,,0.028645833,0.11328125,1,0,0,response1disk,10,-0.00390625,0,1,0,0,center_square,0,9,9,32,1,,,,,,,,,,,,,,,,,,,,,,,
235396,001,2022-11-21_01h59.08.436,Info_measure_main_exp,2022.2.2,Win32,61.09108681,,,,,,,,,,,,,,,,,,masks/mask_003.jpg,,,,,,,,,,,,,,,,,,,,,,,,,,,,,,,,,,,,,,,,,,,0,0,0,2,1,,,,,,,,,,,,,,,,,,,,,,,,,,,,,,,,,,,,,,,,,,,,,,
235396,001,2022-11-21_01h59.08.436,Info_measure_main_exp,2022.2.2,Win32,61.09108681,,,,,,,,,,,,,,,,,,masks/mask_002.jpg,,,,,,,,,,,,,,,,,,,,,,,,,,,,,,,,,,,,,,,,,,,0,1,1,1,1,,,,,,,,,,,,,,,,,,,,,,,,,,,,,,,,,,,,,,,,,,,,,,
235396,001,2022-11-21_01h59.08.436,Info_measure_main_exp,2022.2.2,Win32,61.09108681,,,,,,,,,,,,,,,,,,masks/mask_001.jpg,,,,,,,,,,,,,,,,,,,,,,,,,,,,,,,,,,,,,,,,,,,0,2,2,0,1,,,,,,,,,,,,,,,,,,,,,,,,,,,,,,,,,,,,,,,,,,,,,,
235396,001,2022-11-21_01h59.08.436,Info_measure_main_exp,2022.2.2,Win32,61.09108681,,,,,,,,,,,,,,,,,,masks/mask_005.jpg,,,,,,,,,,,,,,,,,,,,,,,,,,,,,,,,,,,,,,,,,,,0,3,3,4,1,,,,,,,,,,,,,,,,,,,,,,,,,,,,,,,,,,,,,,,,,,,,,,
235396,001,2022-11-21_01h59.08.436,Info_measure_main_exp,2022.2.2,Win32,61.09108681,,,,,,,,,,,,,,,,,,masks/mask_004.jpg,,,,,,,,,,,,,,,,,,,,,,,,,,,,,,,,,,,,,,,,,,,0,4,4,3,1,,,,,,,,,,,,,,,,,,,,,,,,,,,,,,,,,,,,,,,,,,,,,,
235396,001,2022-11-21_01h59.08.436,Info_measure_main_exp,2022.2.2,Win32,61.09108681,,,,,,,,,,,,,,,,,,masks/mask_002.jpg,,,,,,,,,,,,,,,,,,,,,,,,,,,,,,,,,,,,,,,,,,,,,,,,0,0,0,1,1,,,,,,,,,,,,,,,,,,,,,,,,,,,,,,,,,,,,,,,,,
235396,001,2022-11-21_01h59.08.436,Info_measure_main_exp,2022.2.2,Win32,61.09108681,,,,,,,,,,,,,,,,,,masks/mask_004.jpg,,,,,,,,,,,,,,,,,,,,,,,,,,,,,,,,,,,,,,,,,,,,,,,,0,1,1,3,1,,,,,,,,,,,,,,,,,,,,,,,,,,,,,,,,,,,,,,,,,
235396,001,2022-11-21_01h59.08.436,Info_measure_main_exp,2022.2.2,Win32,61.09108681,,,,,,,,,,,,,,,,,,masks/mask_003.jpg,,,,,,,,,,,,,,,,,,,,,,,,,,,,,,,,,,,,,,,,,,,,,,,,0,2,2,2,1,,,,,,,,,,,,,,,,,,,,,,,,,,,,,,,,,,,,,,,,,
235396,001,2022-11-21_01h59.08.436,Info_measure_main_exp,2022.2.2,Win32,61.09108681,,,,,,,,,,,,,,,,,,masks/mask_005.jpg,,,,,,,,,,,,,,,,,,,,,,,,,,,,,,,,,,,,,,,,,,,,,,,,0,3,3,4,1,,,,,,,,,,,,,,,,,,,,,,,,,,,,,,,,,,,,,,,,,
235396,001,2022-11-21_01h59.08.436,Info_measure_main_exp,2022.2.2,Win32,61.09108681,,,,,,,,,,,,,,,,,,masks/mask_001.jpg,,,,,,,,,,,,,,,,,,,,,,,,,,,,,,,,,,,,,,,,,,,,,,,,0,4,4,0,1,,,,,,,,,,,,,,,,,,,,,,,,,,,,,,,,,,,,,,,,,
235396,001,2022-11-21_01h59.08.436,Info_measure_main_exp,2022.2.2,Win32,61.09108681,,,,,,,,,,,,,,,,,,,,,,,,,,,,,,2,1.5043,1,,,,,,,,,,,,1,131,5,5,1,2154,present_patch/cong_131_5_a.jpg,absent_patch/patch0002154.jpg,,,,,,,,,,,,,,,,,,,,-0.111979167,-0.063802083,1,0,0,response5disk,11,0.0078125,-0.001302083,1,0,0,center_square,0,10,10,87,1,,,,,,,,,,,,,,,,,,,,,,,
235396,001,2022-11-21_01h59.08.436,Info_measure_main_exp,2022.2.2,Win32,61.09108681,,,,,,,,,,,,,,,,,,masks/mask_004.jpg,,,,,,,,,,,,,,,,,,,,,,,,,,,,,,,,,,,,,,,,,,,0,0,0,3,1,,,,,,,,,,,,,,,,,,,,,,,,,,,,,,,,,,,,,,,,,,,,,,
235396,001,2022-11-21_01h59.08.436,Info_measure_main_exp,2022.2.2,Win32,61.09108681,,,,,,,,,,,,,,,,,,masks/mask_002.jpg,,,,,,,,,,,,,,,,,,,,,,,,,,,,,,,,,,,,,,,,,,,0,1,1,1,1,,,,,,,,,,,,,,,,,,,,,,,,,,,,,,,,,,,,,,,,,,,,,,
235396,001,2022-11-21_01h59.08.436,Info_measure_main_exp,2022.2.2,Win32,61.09108681,,,,,,,,,,,,,,,,,,masks/mask_001.jpg,,,,,,,,,,,,,,,,,,,,,,,,,,,,,,,,,,,,,,,,,,,0,2,2,0,1,,,,,,,,,,,,,,,,,,,,,,,,,,,,,,,,,,,,,,,,,,,,,,
235396,001,2022-11-21_01h59.08.436,Info_measure_main_exp,2022.2.2,Win32,61.09108681,,,,,,,,,,,,,,,,,,masks/mask_003.jpg,,,,,,,,,,,,,,,,,,,,,,,,,,,,,,,,,,,,,,,,,,,0,3,3,2,1,,,,,,,,,,,,,,,,,,,,,,,,,,,,,,,,,,,,,,,,,,,,,,
235396,001,2022-11-21_01h59.08.436,Info_measure_main_exp,2022.2.2,Win32,61.09108681,,,,,,,,,,,,,,,,,,masks/mask_005.jpg,,,,,,,,,,,,,,,,,,,,,,,,,,,,,,,,,,,,,,,,,,,0,4,4,4,1,,,,,,,,,,,,,,,,,,,,,,,,,,,,,,,,,,,,,,,,,,,,,,
235396,001,2022-11-21_01h59.08.436,Info_measure_main_exp,2022.2.2,Win32,61.09108681,,,,,,,,,,,,,,,,,,masks/mask_005.jpg,,,,,,,,,,,,,,,,,,,,,,,,,,,,,,,,,,,,,,,,,,,,,,,,0,0,0,4,1,,,,,,,,,,,,,,,,,,,,,,,,,,,,,,,,,,,,,,,,,
235396,001,2022-11-21_01h59.08.436,Info_measure_main_exp,2022.2.2,Win32,61.09108681,,,,,,,,,,,,,,,,,,masks/mask_003.jpg,,,,,,,,,,,,,,,,,,,,,,,,,,,,,,,,,,,,,,,,,,,,,,,,0,1,1,2,1,,,,,,,,,,,,,,,,,,,,,,,,,,,,,,,,,,,,,,,,,
235396,001,2022-11-21_01h59.08.436,Info_measure_main_exp,2022.2.2,Win32,61.09108681,,,,,,,,,,,,,,,,,,masks/mask_004.jpg,,,,,,,,,,,,,,,,,,,,,,,,,,,,,,,,,,,,,,,,,,,,,,,,0,2,2,3,1,,,,,,,,,,,,,,,,,,,,,,,,,,,,,,,,,,,,,,,,,
235396,001,2022-11-21_01h59.08.436,Info_measure_main_exp,2022.2.2,Win32,61.09108681,,,,,,,,,,,,,,,,,,masks/mask_001.jpg,,,,,,,,,,,,,,,,,,,,,,,,,,,,,,,,,,,,,,,,,,,,,,,,0,3,3,0,1,,,,,,,,,,,,,,,,,,,,,,,,,,,,,,,,,,,,,,,,,
235396,001,2022-11-21_01h59.08.436,Info_measure_main_exp,2022.2.2,Win32,61.09108681,,,,,,,,,,,,,,,,,,masks/mask_002.jpg,,,,,,,,,,,,,,,,,,,,,,,,,,,,,,,,,,,,,,,,,,,,,,,,0,4,4,1,1,,,,,,,,,,,,,,,,,,,,,,,,,,,,,,,,,,,,,,,,,
235396,001,2022-11-21_01h59.08.436,Info_measure_main_exp,2022.2.2,Win32,61.09108681,,,,,,,,,,,,,,,,,,,,,,,,,,,,,,6,1.584,1,,,,,,,,,,,,1,131,5,5,1,2142,present_patch/cong_131_5_a.jpg,absent_patch/patch0002142.jpg,,,,,,,,,,,,,,,,,,,,0.12109375,0.0859375,1,0,0,response1disk,12,0.001302083,0.002604167,1,0,0,center_square,0,11,11,80,1,,,,,,,,,,,,,,,,,,,,,,,
235396,001,2022-11-21_01h59.08.436,Info_measure_main_exp,2022.2.2,Win32,61.09108681,,,,,,,,,,,,,,,,,,masks/mask_004.jpg,,,,,,,,,,,,,,,,,,,,,,,,,,,,,,,,,,,,,,,,,,,0,0,0,3,1,,,,,,,,,,,,,,,,,,,,,,,,,,,,,,,,,,,,,,,,,,,,,,
235396,001,2022-11-21_01h59.08.436,Info_measure_main_exp,2022.2.2,Win32,61.09108681,,,,,,,,,,,,,,,,,,masks/mask_001.jpg,,,,,,,,,,,,,,,,,,,,,,,,,,,,,,,,,,,,,,,,,,,0,1,1,0,1,,,,,,,,,,,,,,,,,,,,,,,,,,,,,,,,,,,,,,,,,,,,,,
235396,001,2022-11-21_01h59.08.436,Info_measure_main_exp,2022.2.2,Win32,61.09108681,,,,,,,,,,,,,,,,,,masks/mask_002.jpg,,,,,,,,,,,,,,,,,,,,,,,,,,,,,,,,,,,,,,,,,,,0,2,2,1,1,,,,,,,,,,,,,,,,,,,,,,,,,,,,,,,,,,,,,,,,,,,,,,
235396,001,2022-11-21_01h59.08.436,Info_measure_main_exp,2022.2.2,Win32,61.09108681,,,,,,,,,,,,,,,,,,masks/mask_003.jpg,,,,,,,,,,,,,,,,,,,,,,,,,,,,,,,,,,,,,,,,,,,0,3,3,2,1,,,,,,,,,,,,,,,,,,,,,,,,,,,,,,,,,,,,,,,,,,,,,,
235396,001,2022-11-21_01h59.08.436,Info_measure_main_exp,2022.2.2,Win32,61.09108681,,,,,,,,,,,,,,,,,,masks/mask_005.jpg,,,,,,,,,,,,,,,,,,,,,,,,,,,,,,,,,,,,,,,,,,,0,4,4,4,1,,,,,,,,,,,,,,,,,,,,,,,,,,,,,,,,,,,,,,,,,,,,,,
235396,001,2022-11-21_01h59.08.436,Info_measure_main_exp,2022.2.2,Win32,61.09108681,,,,,,,,,,,,,,,,,,masks/mask_001.jpg,,,,,,,,,,,,,,,,,,,,,,,,,,,,,,,,,,,,,,,,,,,,,,,,0,0,0,0,1,,,,,,,,,,,,,,,,,,,,,,,,,,,,,,,,,,,,,,,,,
235396,001,2022-11-21_01h59.08.436,Info_measure_main_exp,2022.2.2,Win32,61.09108681,,,,,,,,,,,,,,,,,,masks/mask_003.jpg,,,,,,,,,,,,,,,,,,,,,,,,,,,,,,,,,,,,,,,,,,,,,,,,0,1,1,2,1,,,,,,,,,,,,,,,,,,,,,,,,,,,,,,,,,,,,,,,,,
235396,001,2022-11-21_01h59.08.436,Info_measure_main_exp,2022.2.2,Win32,61.09108681,,,,,,,,,,,,,,,,,,masks/mask_005.jpg,,,,,,,,,,,,,,,,,,,,,,,,,,,,,,,,,,,,,,,,,,,,,,,,0,2,2,4,1,,,,,,,,,,,,,,,,,,,,,,,,,,,,,,,,,,,,,,,,,
235396,001,2022-11-21_01h59.08.436,Info_measure_main_exp,2022.2.2,Win32,61.09108681,,,,,,,,,,,,,,,,,,masks/mask_002.jpg,,,,,,,,,,,,,,,,,,,,,,,,,,,,,,,,,,,,,,,,,,,,,,,,0,3,3,1,1,,,,,,,,,,,,,,,,,,,,,,,,,,,,,,,,,,,,,,,,,
235396,001,2022-11-21_01h59.08.436,Info_measure_main_exp,2022.2.2,Win32,61.09108681,,,,,,,,,,,,,,,,,,masks/mask_004.jpg,,,,,,,,,,,,,,,,,,,,,,,,,,,,,,,,,,,,,,,,,,,,,,,,0,4,4,3,1,,,,,,,,,,,,,,,,,,,,,,,,,,,,,,,,,,,,,,,,,
235396,001,2022-11-21_01h59.08.436,Info_measure_main_exp,2022.2.2,Win32,61.09108681,,,,,,,,,,,,,,,,,,,,,,,,,,,,,,7,1.0008,1,,,,,,,,,,,,0,131,5,5,1974,2298,absent_patch/patch0001974.jpg,absent_patch/patch0002298.jpg,,,,,,,,,,,,,,,,,,,,0.02734375,0.08984375,1,0,0,response1disk,13,0.01171875,0.00390625,1,0,0,center_square,0,12,12,6,1,,,,,,,,,,,,,,,,,,,,,,,
235396,001,2022-11-21_01h59.08.436,Info_measure_main_exp,2022.2.2,Win32,61.09108681,,,,,,,,,,,,,,,,,,masks/mask_001.jpg,,,,,,,,,,,,,,,,,,,,,,,,,,,,,,,,,,,,,,,,,,,0,0,0,0,1,,,,,,,,,,,,,,,,,,,,,,,,,,,,,,,,,,,,,,,,,,,,,,
235396,001,2022-11-21_01h59.08.436,Info_measure_main_exp,2022.2.2,Win32,61.09108681,,,,,,,,,,,,,,,,,,masks/mask_002.jpg,,,,,,,,,,,,,,,,,,,,,,,,,,,,,,,,,,,,,,,,,,,0,1,1,1,1,,,,,,,,,,,,,,,,,,,,,,,,,,,,,,,,,,,,,,,,,,,,,,
235396,001,2022-11-21_01h59.08.436,Info_measure_main_exp,2022.2.2,Win32,61.09108681,,,,,,,,,,,,,,,,,,masks/mask_005.jpg,,,,,,,,,,,,,,,,,,,,,,,,,,,,,,,,,,,,,,,,,,,0,2,2,4,1,,,,,,,,,,,,,,,,,,,,,,,,,,,,,,,,,,,,,,,,,,,,,,
235396,001,2022-11-21_01h59.08.436,Info_measure_main_exp,2022.2.2,Win32,61.09108681,,,,,,,,,,,,,,,,,,masks/mask_004.jpg,,,,,,,,,,,,,,,,,,,,,,,,,,,,,,,,,,,,,,,,,,,0,3,3,3,1,,,,,,,,,,,,,,,,,,,,,,,,,,,,,,,,,,,,,,,,,,,,,,
235396,001,2022-11-21_01h59.08.436,Info_measure_main_exp,2022.2.2,Win32,61.09108681,,,,,,,,,,,,,,,,,,masks/mask_003.jpg,,,,,,,,,,,,,,,,,,,,,,,,,,,,,,,,,,,,,,,,,,,0,4,4,2,1,,,,,,,,,,,,,,,,,,,,,,,,,,,,,,,,,,,,,,,,,,,,,,
235396,001,2022-11-21_01h59.08.436,Info_measure_main_exp,2022.2.2,Win32,61.09108681,,,,,,,,,,,,,,,,,,masks/mask_002.jpg,,,,,,,,,,,,,,,,,,,,,,,,,,,,,,,,,,,,,,,,,,,,,,,,0,0,0,1,1,,,,,,,,,,,,,,,,,,,,,,,,,,,,,,,,,,,,,,,,,
235396,001,2022-11-21_01h59.08.436,Info_measure_main_exp,2022.2.2,Win32,61.09108681,,,,,,,,,,,,,,,,,,masks/mask_003.jpg,,,,,,,,,,,,,,,,,,,,,,,,,,,,,,,,,,,,,,,,,,,,,,,,0,1,1,2,1,,,,,,,,,,,,,,,,,,,,,,,,,,,,,,,,,,,,,,,,,
235396,001,2022-11-21_01h59.08.436,Info_measure_main_exp,2022.2.2,Win32,61.09108681,,,,,,,,,,,,,,,,,,masks/mask_001.jpg,,,,,,,,,,,,,,,,,,,,,,,,,,,,,,,,,,,,,,,,,,,,,,,,0,2,2,0,1,,,,,,,,,,,,,,,,,,,,,,,,,,,,,,,,,,,,,,,,,
235396,001,2022-11-21_01h59.08.436,Info_measure_main_exp,2022.2.2,Win32,61.09108681,,,,,,,,,,,,,,,,,,masks/mask_005.jpg,,,,,,,,,,,,,,,,,,,,,,,,,,,,,,,,,,,,,,,,,,,,,,,,0,3,3,4,1,,,,,,,,,,,,,,,,,,,,,,,,,,,,,,,,,,,,,,,,,
235396,001,2022-11-21_01h59.08.436,Info_measure_main_exp,2022.2.2,Win32,61.09108681,,,,,,,,,,,,,,,,,,masks/mask_004.jpg,,,,,,,,,,,,,,,,,,,,,,,,,,,,,,,,,,,,,,,,,,,,,,,,0,4,4,3,1,,,,,,,,,,,,,,,,,,,,,,,,,,,,,,,,,,,,,,,,,
235396,001,2022-11-21_01h59.08.436,Info_measure_main_exp,2022.2.2,Win32,61.09108681,,,,,,,,,,,,,,,,,,,,,,,,,,,,,,7,1.9343,1,,,,,,,,,,,,0,131,5,5,1950,2298,absent_patch/patch0001950.jpg,absent_patch/patch0002298.jpg,,,,,,,,,,,,,,,,,,,,0.013020833,0.045572917,1,0,0,response1disk,14,0.00390625,0,1,0,0,center_square,0,13,13,18,1,,,,,,,,,,,,,,,,,,,,,,,
235396,001,2022-11-21_01h59.08.436,Info_measure_main_exp,2022.2.2,Win32,61.09108681,,,,,,,,,,,,,,,,,,masks/mask_003.jpg,,,,,,,,,,,,,,,,,,,,,,,,,,,,,,,,,,,,,,,,,,,0,0,0,2,1,,,,,,,,,,,,,,,,,,,,,,,,,,,,,,,,,,,,,,,,,,,,,,
235396,001,2022-11-21_01h59.08.436,Info_measure_main_exp,2022.2.2,Win32,61.09108681,,,,,,,,,,,,,,,,,,masks/mask_002.jpg,,,,,,,,,,,,,,,,,,,,,,,,,,,,,,,,,,,,,,,,,,,0,1,1,1,1,,,,,,,,,,,,,,,,,,,,,,,,,,,,,,,,,,,,,,,,,,,,,,
235396,001,2022-11-21_01h59.08.436,Info_measure_main_exp,2022.2.2,Win32,61.09108681,,,,,,,,,,,,,,,,,,masks/mask_004.jpg,,,,,,,,,,,,,,,,,,,,,,,,,,,,,,,,,,,,,,,,,,,0,2,2,3,1,,,,,,,,,,,,,,,,,,,,,,,,,,,,,,,,,,,,,,,,,,,,,,
235396,001,2022-11-21_01h59.08.436,Info_measure_main_exp,2022.2.2,Win32,61.09108681,,,,,,,,,,,,,,,,,,masks/mask_005.jpg,,,,,,,,,,,,,,,,,,,,,,,,,,,,,,,,,,,,,,,,,,,0,3,3,4,1,,,,,,,,,,,,,,,,,,,,,,,,,,,,,,,,,,,,,,,,,,,,,,
235396,001,2022-11-21_01h59.08.436,Info_measure_main_exp,2022.2.2,Win32,61.09108681,,,,,,,,,,,,,,,,,,masks/mask_001.jpg,,,,,,,,,,,,,,,,,,,,,,,,,,,,,,,,,,,,,,,,,,,0,4,4,0,1,,,,,,,,,,,,,,,,,,,,,,,,,,,,,,,,,,,,,,,,,,,,,,
235396,001,2022-11-21_01h59.08.436,Info_measure_main_exp,2022.2.2,Win32,61.09108681,,,,,,,,,,,,,,,,,,masks/mask_001.jpg,,,,,,,,,,,,,,,,,,,,,,,,,,,,,,,,,,,,,,,,,,,,,,,,0,0,0,0,1,,,,,,,,,,,,,,,,,,,,,,,,,,,,,,,,,,,,,,,,,
235396,001,2022-11-21_01h59.08.436,Info_measure_main_exp,2022.2.2,Win32,61.09108681,,,,,,,,,,,,,,,,,,masks/mask_002.jpg,,,,,,,,,,,,,,,,,,,,,,,,,,,,,,,,,,,,,,,,,,,,,,,,0,1,1,1,1,,,,,,,,,,,,,,,,,,,,,,,,,,,,,,,,,,,,,,,,,
235396,001,2022-11-21_01h59.08.436,Info_measure_main_exp,2022.2.2,Win32,61.09108681,,,,,,,,,,,,,,,,,,masks/mask_004.jpg,,,,,,,,,,,,,,,,,,,,,,,,,,,,,,,,,,,,,,,,,,,,,,,,0,2,2,3,1,,,,,,,,,,,,,,,,,,,,,,,,,,,,,,,,,,,,,,,,,
235396,001,2022-11-21_01h59.08.436,Info_measure_main_exp,2022.2.2,Win32,61.09108681,,,,,,,,,,,,,,,,,,masks/mask_005.jpg,,,,,,,,,,,,,,,,,,,,,,,,,,,,,,,,,,,,,,,,,,,,,,,,0,3,3,4,1,,,,,,,,,,,,,,,,,,,,,,,,,,,,,,,,,,,,,,,,,
235396,001,2022-11-21_01h59.08.436,Info_measure_main_exp,2022.2.2,Win32,61.09108681,,,,,,,,,,,,,,,,,,masks/mask_003.jpg,,,,,,,,,,,,,,,,,,,,,,,,,,,,,,,,,,,,,,,,,,,,,,,,0,4,4,2,1,,,,,,,,,,,,,,,,,,,,,,,,,,,,,,,,,,,,,,,,,
235396,001,2022-11-21_01h59.08.436,Info_measure_main_exp,2022.2.2,Win32,61.09108681,,,,,,,,,,,,,,,,,,,,,,,,,,,,,,5,2.6511,1,,,,,,,,,,,,0,131,5,5,2274,1974,absent_patch/patch0002274.jpg,absent_patch/patch0001974.jpg,,,,,,,,,,,,,,,,,,,,0.075520833,-0.03125,1,0,0,response3disk,15,0.00390625,-0.00390625,1,0,0,center_square,0,14,14,90,1,,,,,,,,,,,,,,,,,,,,,,,
235396,001,2022-11-21_01h59.08.436,Info_measure_main_exp,2022.2.2,Win32,61.09108681,,,,,,,,,,,,,,,,,,masks/mask_003.jpg,,,,,,,,,,,,,,,,,,,,,,,,,,,,,,,,,,,,,,,,,,,0,0,0,2,1,,,,,,,,,,,,,,,,,,,,,,,,,,,,,,,,,,,,,,,,,,,,,,
235396,001,2022-11-21_01h59.08.436,Info_measure_main_exp,2022.2.2,Win32,61.09108681,,,,,,,,,,,,,,,,,,masks/mask_001.jpg,,,,,,,,,,,,,,,,,,,,,,,,,,,,,,,,,,,,,,,,,,,0,1,1,0,1,,,,,,,,,,,,,,,,,,,,,,,,,,,,,,,,,,,,,,,,,,,,,,
235396,001,2022-11-21_01h59.08.436,Info_measure_main_exp,2022.2.2,Win32,61.09108681,,,,,,,,,,,,,,,,,,masks/mask_005.jpg,,,,,,,,,,,,,,,,,,,,,,,,,,,,,,,,,,,,,,,,,,,0,2,2,4,1,,,,,,,,,,,,,,,,,,,,,,,,,,,,,,,,,,,,,,,,,,,,,,
235396,001,2022-11-21_01h59.08.436,Info_measure_main_exp,2022.2.2,Win32,61.09108681,,,,,,,,,,,,,,,,,,masks/mask_002.jpg,,,,,,,,,,,,,,,,,,,,,,,,,,,,,,,,,,,,,,,,,,,0,3,3,1,1,,,,,,,,,,,,,,,,,,,,,,,,,,,,,,,,,,,,,,,,,,,,,,
235396,001,2022-11-21_01h59.08.436,Info_measure_main_exp,2022.2.2,Win32,61.09108681,,,,,,,,,,,,,,,,,,masks/mask_004.jpg,,,,,,,,,,,,,,,,,,,,,,,,,,,,,,,,,,,,,,,,,,,0,4,4,3,1,,,,,,,,,,,,,,,,,,,,,,,,,,,,,,,,,,,,,,,,,,,,,,
235396,001,2022-11-21_01h59.08.436,Info_measure_main_exp,2022.2.2,Win32,61.09108681,,,,,,,,,,,,,,,,,,masks/mask_004.jpg,,,,,,,,,,,,,,,,,,,,,,,,,,,,,,,,,,,,,,,,,,,,,,,,0,0,0,3,1,,,,,,,,,,,,,,,,,,,,,,,,,,,,,,,,,,,,,,,,,
235396,001,2022-11-21_01h59.08.436,Info_measure_main_exp,2022.2.2,Win32,61.09108681,,,,,,,,,,,,,,,,,,masks/mask_003.jpg,,,,,,,,,,,,,,,,,,,,,,,,,,,,,,,,,,,,,,,,,,,,,,,,0,1,1,2,1,,,,,,,,,,,,,,,,,,,,,,,,,,,,,,,,,,,,,,,,,
235396,001,2022-11-21_01h59.08.436,Info_measure_main_exp,2022.2.2,Win32,61.09108681,,,,,,,,,,,,,,,,,,masks/mask_001.jpg,,,,,,,,,,,,,,,,,,,,,,,,,,,,,,,,,,,,,,,,,,,,,,,,0,2,2,0,1,,,,,,,,,,,,,,,,,,,,,,,,,,,,,,,,,,,,,,,,,
235396,001,2022-11-21_01h59.08.436,Info_measure_main_exp,2022.2.2,Win32,61.09108681,,,,,,,,,,,,,,,,,,masks/mask_005.jpg,,,,,,,,,,,,,,,,,,,,,,,,,,,,,,,,,,,,,,,,,,,,,,,,0,3,3,4,1,,,,,,,,,,,,,,,,,,,,,,,,,,,,,,,,,,,,,,,,,
235396,001,2022-11-21_01h59.08.436,Info_measure_main_exp,2022.2.2,Win32,61.09108681,,,,,,,,,,,,,,,,,,masks/mask_002.jpg,,,,,,,,,,,,,,,,,,,,,,,,,,,,,,,,,,,,,,,,,,,,,,,,0,4,4,1,1,,,,,,,,,,,,,,,,,,,,,,,,,,,,,,,,,,,,,,,,,
235396,001,2022-11-21_01h59.08.436,Info_measure_main_exp,2022.2.2,Win32,61.09108681,,,,,,,,,,,,,,,,,,,,,,,,,,,,,,2,2.6492,1,,,,,,,,,,,,0,131,5,5,2238,2166,absent_patch/patch0002238.jpg,absent_patch/patch0002166.jpg,,,,,,,,,,,,,,,,,,,,-0.080729167,-0.03125,1,0,0,response5disk,16,-0.001302083,-0.010416667,1,0,0,center_square,0,15,15,118,1,,,,,,,,,,,,,,,,,,,,,,,
235396,001,2022-11-21_01h59.08.436,Info_measure_main_exp,2022.2.2,Win32,61.09108681,,,,,,,,,,,,,,,,,,masks/mask_004.jpg,,,,,,,,,,,,,,,,,,,,,,,,,,,,,,,,,,,,,,,,,,,0,0,0,3,1,,,,,,,,,,,,,,,,,,,,,,,,,,,,,,,,,,,,,,,,,,,,,,
235396,001,2022-11-21_01h59.08.436,Info_measure_main_exp,2022.2.2,Win32,61.09108681,,,,,,,,,,,,,,,,,,masks/mask_001.jpg,,,,,,,,,,,,,,,,,,,,,,,,,,,,,,,,,,,,,,,,,,,0,1,1,0,1,,,,,,,,,,,,,,,,,,,,,,,,,,,,,,,,,,,,,,,,,,,,,,
235396,001,2022-11-21_01h59.08.436,Info_measure_main_exp,2022.2.2,Win32,61.09108681,,,,,,,,,,,,,,,,,,masks/mask_003.jpg,,,,,,,,,,,,,,,,,,,,,,,,,,,,,,,,,,,,,,,,,,,0,2,2,2,1,,,,,,,,,,,,,,,,,,,,,,,,,,,,,,,,,,,,,,,,,,,,,,
235396,001,2022-11-21_01h59.08.436,Info_measure_main_exp,2022.2.2,Win32,61.09108681,,,,,,,,,,,,,,,,,,masks/mask_005.jpg,,,,,,,,,,,,,,,,,,,,,,,,,,,,,,,,,,,,,,,,,,,0,3,3,4,1,,,,,,,,,,,,,,,,,,,,,,,,,,,,,,,,,,,,,,,,,,,,,,
235396,001,2022-11-21_01h59.08.436,Info_measure_main_exp,2022.2.2,Win32,61.09108681,,,,,,,,,,,,,,,,,,masks/mask_002.jpg,,,,,,,,,,,,,,,,,,,,,,,,,,,,,,,,,,,,,,,,,,,0,4,4,1,1,,,,,,,,,,,,,,,,,,,,,,,,,,,,,,,,,,,,,,,,,,,,,,
235396,001,2022-11-21_01h59.08.436,Info_measure_main_exp,2022.2.2,Win32,61.09108681,,,,,,,,,,,,,,,,,,masks/mask_003.jpg,,,,,,,,,,,,,,,,,,,,,,,,,,,,,,,,,,,,,,,,,,,,,,,,0,0,0,2,1,,,,,,,,,,,,,,,,,,,,,,,,,,,,,,,,,,,,,,,,,
235396,001,2022-11-21_01h59.08.436,Info_measure_main_exp,2022.2.2,Win32,61.09108681,,,,,,,,,,,,,,,,,,masks/mask_001.jpg,,,,,,,,,,,,,,,,,,,,,,,,,,,,,,,,,,,,,,,,,,,,,,,,0,1,1,0,1,,,,,,,,,,,,,,,,,,,,,,,,,,,,,,,,,,,,,,,,,
235396,001,2022-11-21_01h59.08.436,Info_measure_main_exp,2022.2.2,Win32,61.09108681,,,,,,,,,,,,,,,,,,masks/mask_004.jpg,,,,,,,,,,,,,,,,,,,,,,,,,,,,,,,,,,,,,,,,,,,,,,,,0,2,2,3,1,,,,,,,,,,,,,,,,,,,,,,,,,,,,,,,,,,,,,,,,,
235396,001,2022-11-21_01h59.08.436,Info_measure_main_exp,2022.2.2,Win32,61.09108681,,,,,,,,,,,,,,,,,,masks/mask_005.jpg,,,,,,,,,,,,,,,,,,,,,,,,,,,,,,,,,,,,,,,,,,,,,,,,0,3,3,4,1,,,,,,,,,,,,,,,,,,,,,,,,,,,,,,,,,,,,,,,,,
235396,001,2022-11-21_01h59.08.436,Info_measure_main_exp,2022.2.2,Win32,61.09108681,,,,,,,,,,,,,,,,,,masks/mask_002.jpg,,,,,,,,,,,,,,,,,,,,,,,,,,,,,,,,,,,,,,,,,,,,,,,,0,4,4,1,1,,,,,,,,,,,,,,,,,,,,,,,,,,,,,,,,,,,,,,,,,
235396,001,2022-11-21_01h59.08.436,Info_measure_main_exp,2022.2.2,Win32,61.09108681,,,,,,,,,,,,,,,,,,,,,,,,,,,,,,7,3.0559,1,,,,,,,,,,,,1,131,5,5,2298,1,absent_patch/patch0002298.jpg,present_patch/cong_131_5_a.jpg,,,,,,,,,,,,,,,,,,,,0.03125,0.182291667,1,0,0,response1disk,17,-0.010416667,-0.009114583,1,0,0,center_square,0,16,16,45,1,,,,,,,,,,,,,,,,,,,,,,,
235396,001,2022-11-21_01h59.08.436,Info_measure_main_exp,2022.2.2,Win32,61.09108681,,,,,,,,,,,,,,,,,,masks/mask_001.jpg,,,,,,,,,,,,,,,,,,,,,,,,,,,,,,,,,,,,,,,,,,,0,0,0,0,1,,,,,,,,,,,,,,,,,,,,,,,,,,,,,,,,,,,,,,,,,,,,,,
235396,001,2022-11-21_01h59.08.436,Info_measure_main_exp,2022.2.2,Win32,61.09108681,,,,,,,,,,,,,,,,,,masks/mask_002.jpg,,,,,,,,,,,,,,,,,,,,,,,,,,,,,,,,,,,,,,,,,,,0,1,1,1,1,,,,,,,,,,,,,,,,,,,,,,,,,,,,,,,,,,,,,,,,,,,,,,
235396,001,2022-11-21_01h59.08.436,Info_measure_main_exp,2022.2.2,Win32,61.09108681,,,,,,,,,,,,,,,,,,masks/mask_005.jpg,,,,,,,,,,,,,,,,,,,,,,,,,,,,,,,,,,,,,,,,,,,0,2,2,4,1,,,,,,,,,,,,,,,,,,,,,,,,,,,,,,,,,,,,,,,,,,,,,,
235396,001,2022-11-21_01h59.08.436,Info_measure_main_exp,2022.2.2,Win32,61.09108681,,,,,,,,,,,,,,,,,,masks/mask_003.jpg,,,,,,,,,,,,,,,,,,,,,,,,,,,,,,,,,,,,,,,,,,,0,3,3,2,1,,,,,,,,,,,,,,,,,,,,,,,,,,,,,,,,,,,,,,,,,,,,,,
235396,001,2022-11-21_01h59.08.436,Info_measure_main_exp,2022.2.2,Win32,61.09108681,,,,,,,,,,,,,,,,,,masks/mask_004.jpg,,,,,,,,,,,,,,,,,,,,,,,,,,,,,,,,,,,,,,,,,,,0,4,4,3,1,,,,,,,,,,,,,,,,,,,,,,,,,,,,,,,,,,,,,,,,,,,,,,
235396,001,2022-11-21_01h59.08.436,Info_measure_main_exp,2022.2.2,Win32,61.09108681,,,,,,,,,,,,,,,,,,masks/mask_001.jpg,,,,,,,,,,,,,,,,,,,,,,,,,,,,,,,,,,,,,,,,,,,,,,,,0,0,0,0,1,,,,,,,,,,,,,,,,,,,,,,,,,,,,,,,,,,,,,,,,,
235396,001,2022-11-21_01h59.08.436,Info_measure_main_exp,2022.2.2,Win32,61.09108681,,,,,,,,,,,,,,,,,,masks/mask_002.jpg,,,,,,,,,,,,,,,,,,,,,,,,,,,,,,,,,,,,,,,,,,,,,,,,0,1,1,1,1,,,,,,,,,,,,,,,,,,,,,,,,,,,,,,,,,,,,,,,,,
235396,001,2022-11-21_01h59.08.436,Info_measure_main_exp,2022.2.2,Win32,61.09108681,,,,,,,,,,,,,,,,,,masks/mask_005.jpg,,,,,,,,,,,,,,,,,,,,,,,,,,,,,,,,,,,,,,,,,,,,,,,,0,2,2,4,1,,,,,,,,,,,,,,,,,,,,,,,,,,,,,,,,,,,,,,,,,
235396,001,2022-11-21_01h59.08.436,Info_measure_main_exp,2022.2.2,Win32,61.09108681,,,,,,,,,,,,,,,,,,masks/mask_003.jpg,,,,,,,,,,,,,,,,,,,,,,,,,,,,,,,,,,,,,,,,,,,,,,,,0,3,3,2,1,,,,,,,,,,,,,,,,,,,,,,,,,,,,,,,,,,,,,,,,,
235396,001,2022-11-21_01h59.08.436,Info_measure_main_exp,2022.2.2,Win32,61.09108681,,,,,,,,,,,,,,,,,,masks/mask_004.jpg,,,,,,,,,,,,,,,,,,,,,,,,,,,,,,,,,,,,,,,,,,,,,,,,0,4,4,3,1,,,,,,,,,,,,,,,,,,,,,,,,,,,,,,,,,,,,,,,,,
235396,001,2022-11-21_01h59.08.436,Info_measure_main_exp,2022.2.2,Win32,61.09108681,,,,,,,,,,,,,,,,,,,,,,,,,,,,,,4,2.8844,1,,,,,,,,,,,,0,131,5,5,2214,2166,absent_patch/patch0002214.jpg,absent_patch/patch0002166.jpg,,,,,,,,,,,,,,,,,,,,0.0703125,-0.122395833,1,0,0,response3disk,18,0.009114583,0.0078125,1,0,0,center_square,0,17,17,109,1,,,,,,,,,,,,,,,,,,,,,,,
235396,001,2022-11-21_01h59.08.436,Info_measure_main_exp,2022.2.2,Win32,61.09108681,,,,,,,,,,,,,,,,,,masks/mask_005.jpg,,,,,,,,,,,,,,,,,,,,,,,,,,,,,,,,,,,,,,,,,,,0,0,0,4,1,,,,,,,,,,,,,,,,,,,,,,,,,,,,,,,,,,,,,,,,,,,,,,
235396,001,2022-11-21_01h59.08.436,Info_measure_main_exp,2022.2.2,Win32,61.09108681,,,,,,,,,,,,,,,,,,masks/mask_004.jpg,,,,,,,,,,,,,,,,,,,,,,,,,,,,,,,,,,,,,,,,,,,0,1,1,3,1,,,,,,,,,,,,,,,,,,,,,,,,,,,,,,,,,,,,,,,,,,,,,,
235396,001,2022-11-21_01h59.08.436,Info_measure_main_exp,2022.2.2,Win32,61.09108681,,,,,,,,,,,,,,,,,,masks/mask_002.jpg,,,,,,,,,,,,,,,,,,,,,,,,,,,,,,,,,,,,,,,,,,,0,2,2,1,1,,,,,,,,,,,,,,,,,,,,,,,,,,,,,,,,,,,,,,,,,,,,,,
235396,001,2022-11-21_01h59.08.436,Info_measure_main_exp,2022.2.2,Win32,61.09108681,,,,,,,,,,,,,,,,,,masks/mask_003.jpg,,,,,,,,,,,,,,,,,,,,,,,,,,,,,,,,,,,,,,,,,,,0,3,3,2,1,,,,,,,,,,,,,,,,,,,,,,,,,,,,,,,,,,,,,,,,,,,,,,
235396,001,2022-11-21_01h59.08.436,Info_measure_main_exp,2022.2.2,Win32,61.09108681,,,,,,,,,,,,,,,,,,masks/mask_001.jpg,,,,,,,,,,,,,,,,,,,,,,,,,,,,,,,,,,,,,,,,,,,0,4,4,0,1,,,,,,,,,,,,,,,,,,,,,,,,,,,,,,,,,,,,,,,,,,,,,,
235396,001,2022-11-21_01h59.08.436,Info_measure_main_exp,2022.2.2,Win32,61.09108681,,,,,,,,,,,,,,,,,,masks/mask_001.jpg,,,,,,,,,,,,,,,,,,,,,,,,,,,,,,,,,,,,,,,,,,,,,,,,0,0,0,0,1,,,,,,,,,,,,,,,,,,,,,,,,,,,,,,,,,,,,,,,,,
235396,001,2022-11-21_01h59.08.436,Info_measure_main_exp,2022.2.2,Win32,61.09108681,,,,,,,,,,,,,,,,,,masks/mask_003.jpg,,,,,,,,,,,,,,,,,,,,,,,,,,,,,,,,,,,,,,,,,,,,,,,,0,1,1,2,1,,,,,,,,,,,,,,,,,,,,,,,,,,,,,,,,,,,,,,,,,
235396,001,2022-11-21_01h59.08.436,Info_measure_main_exp,2022.2.2,Win32,61.09108681,,,,,,,,,,,,,,,,,,masks/mask_004.jpg,,,,,,,,,,,,,,,,,,,,,,,,,,,,,,,,,,,,,,,,,,,,,,,,0,2,2,3,1,,,,,,,,,,,,,,,,,,,,,,,,,,,,,,,,,,,,,,,,,
235396,001,2022-11-21_01h59.08.436,Info_measure_main_exp,2022.2.2,Win32,61.09108681,,,,,,,,,,,,,,,,,,masks/mask_002.jpg,,,,,,,,,,,,,,,,,,,,,,,,,,,,,,,,,,,,,,,,,,,,,,,,0,3,3,1,1,,,,,,,,,,,,,,,,,,,,,,,,,,,,,,,,,,,,,,,,,
235396,001,2022-11-21_01h59.08.436,Info_measure_main_exp,2022.2.2,Win32,61.09108681,,,,,,,,,,,,,,,,,,masks/mask_005.jpg,,,,,,,,,,,,,,,,,,,,,,,,,,,,,,,,,,,,,,,,,,,,,,,,0,4,4,4,1,,,,,,,,,,,,,,,,,,,,,,,,,,,,,,,,,,,,,,,,,
235396,001,2022-11-21_01h59.08.436,Info_measure_main_exp,2022.2.2,Win32,61.09108681,,,,,,,,,,,,,,,,,,,,,,,,,,,,,,7,0.9063,1,,,,,,,,,,,,0,131,5,5,2250,1986,absent_patch/patch0002250.jpg,absent_patch/patch0001986.jpg,,,,,,,,,,,,,,,,,,,,0.037760417,0.06640625,1,0,0,response1disk,19,0.00390625,0.005208333,1,0,0,center_square,0,18,18,29,1,,,,,,,,,,,,,,,,,,,,,,,
235396,001,2022-11-21_01h59.08.436,Info_measure_main_exp,2022.2.2,Win32,61.09108681,,,,,,,,,,,,,,,,,,masks/mask_005.jpg,,,,,,,,,,,,,,,,,,,,,,,,,,,,,,,,,,,,,,,,,,,0,0,0,4,1,,,,,,,,,,,,,,,,,,,,,,,,,,,,,,,,,,,,,,,,,,,,,,
235396,001,2022-11-21_01h59.08.436,Info_measure_main_exp,2022.2.2,Win32,61.09108681,,,,,,,,,,,,,,,,,,masks/mask_003.jpg,,,,,,,,,,,,,,,,,,,,,,,,,,,,,,,,,,,,,,,,,,,0,1,1,2,1,,,,,,,,,,,,,,,,,,,,,,,,,,,,,,,,,,,,,,,,,,,,,,
235396,001,2022-11-21_01h59.08.436,Info_measure_main_exp,2022.2.2,Win32,61.09108681,,,,,,,,,,,,,,,,,,masks/mask_001.jpg,,,,,,,,,,,,,,,,,,,,,,,,,,,,,,,,,,,,,,,,,,,0,2,2,0,1,,,,,,,,,,,,,,,,,,,,,,,,,,,,,,,,,,,,,,,,,,,,,,
235396,001,2022-11-21_01h59.08.436,Info_measure_main_exp,2022.2.2,Win32,61.09108681,,,,,,,,,,,,,,,,,,masks/mask_002.jpg,,,,,,,,,,,,,,,,,,,,,,,,,,,,,,,,,,,,,,,,,,,0,3,3,1,1,,,,,,,,,,,,,,,,,,,,,,,,,,,,,,,,,,,,,,,,,,,,,,
235396,001,2022-11-21_01h59.08.436,Info_measure_main_exp,2022.2.2,Win32,61.09108681,,,,,,,,,,,,,,,,,,masks/mask_004.jpg,,,,,,,,,,,,,,,,,,,,,,,,,,,,,,,,,,,,,,,,,,,0,4,4,3,1,,,,,,,,,,,,,,,,,,,,,,,,,,,,,,,,,,,,,,,,,,,,,,
235396,001,2022-11-21_01h59.08.436,Info_measure_main_exp,2022.2.2,Win32,61.09108681,,,,,,,,,,,,,,,,,,masks/mask_002.jpg,,,,,,,,,,,,,,,,,,,,,,,,,,,,,,,,,,,,,,,,,,,,,,,,0,0,0,1,1,,,,,,,,,,,,,,,,,,,,,,,,,,,,,,,,,,,,,,,,,
235396,001,2022-11-21_01h59.08.436,Info_measure_main_exp,2022.2.2,Win32,61.09108681,,,,,,,,,,,,,,,,,,masks/mask_001.jpg,,,,,,,,,,,,,,,,,,,,,,,,,,,,,,,,,,,,,,,,,,,,,,,,0,1,1,0,1,,,,,,,,,,,,,,,,,,,,,,,,,,,,,,,,,,,,,,,,,
235396,001,2022-11-21_01h59.08.436,Info_measure_main_exp,2022.2.2,Win32,61.09108681,,,,,,,,,,,,,,,,,,masks/mask_003.jpg,,,,,,,,,,,,,,,,,,,,,,,,,,,,,,,,,,,,,,,,,,,,,,,,0,2,2,2,1,,,,,,,,,,,,,,,,,,,,,,,,,,,,,,,,,,,,,,,,,
235396,001,2022-11-21_01h59.08.436,Info_measure_main_exp,2022.2.2,Win32,61.09108681,,,,,,,,,,,,,,,,,,masks/mask_005.jpg,,,,,,,,,,,,,,,,,,,,,,,,,,,,,,,,,,,,,,,,,,,,,,,,0,3,3,4,1,,,,,,,,,,,,,,,,,,,,,,,,,,,,,,,,,,,,,,,,,
235396,001,2022-11-21_01h59.08.436,Info_measure_main_exp,2022.2.2,Win32,61.09108681,,,,,,,,,,,,,,,,,,masks/mask_004.jpg,,,,,,,,,,,,,,,,,,,,,,,,,,,,,,,,,,,,,,,,,,,,,,,,0,4,4,3,1,,,,,,,,,,,,,,,,,,,,,,,,,,,,,,,,,,,,,,,,,
235396,001,2022-11-21_01h59.08.436,Info_measure_main_exp,2022.2.2,Win32,61.09108681,,,,,,,,,,,,,,,,,,,,,,,,,,,,,,4,1.904,1,,,,,,,,,,,,1,131,5,5,1,2214,present_patch/cong_131_5_a.jpg,absent_patch/patch0002214.jpg,,,,,,,,,,,,,,,,,,,,0.045572917,-0.09375,1,0,0,response3disk,20,0.001302083,0.009114583,1,0,0,center_square,0,19,19,4,1,,,,,,,,,,,,,,,,,,,,,,,
235396,001,2022-11-21_01h59.08.436,Info_measure_main_exp,2022.2.2,Win32,61.09108681,,,,,,,,,,,,,,,,,,masks/mask_001.jpg,,,,,,,,,,,,,,,,,,,,,,,,,,,,,,,,,,,,,,,,,,,0,0,0,0,1,,,,,,,,,,,,,,,,,,,,,,,,,,,,,,,,,,,,,,,,,,,,,,
235396,001,2022-11-21_01h59.08.436,Info_measure_main_exp,2022.2.2,Win32,61.09108681,,,,,,,,,,,,,,,,,,masks/mask_005.jpg,,,,,,,,,,,,,,,,,,,,,,,,,,,,,,,,,,,,,,,,,,,0,1,1,4,1,,,,,,,,,,,,,,,,,,,,,,,,,,,,,,,,,,,,,,,,,,,,,,
235396,001,2022-11-21_01h59.08.436,Info_measure_main_exp,2022.2.2,Win32,61.09108681,,,,,,,,,,,,,,,,,,masks/mask_003.jpg,,,,,,,,,,,,,,,,,,,,,,,,,,,,,,,,,,,,,,,,,,,0,2,2,2,1,,,,,,,,,,,,,,,,,,,,,,,,,,,,,,,,,,,,,,,,,,,,,,
235396,001,2022-11-21_01h59.08.436,Info_measure_main_exp,2022.2.2,Win32,61.09108681,,,,,,,,,,,,,,,,,,masks/mask_004.jpg,,,,,,,,,,,,,,,,,,,,,,,,,,,,,,,,,,,,,,,,,,,0,3,3,3,1,,,,,,,,,,,,,,,,,,,,,,,,,,,,,,,,,,,,,,,,,,,,,,
235396,001,2022-11-21_01h59.08.436,Info_measure_main_exp,2022.2.2,Win32,61.09108681,,,,,,,,,,,,,,,,,,masks/mask_002.jpg,,,,,,,,,,,,,,,,,,,,,,,,,,,,,,,,,,,,,,,,,,,0,4,4,1,1,,,,,,,,,,,,,,,,,,,,,,,,,,,,,,,,,,,,,,,,,,,,,,
235396,001,2022-11-21_01h59.08.436,Info_measure_main_exp,2022.2.2,Win32,61.09108681,,,,,,,,,,,,,,,,,,masks/mask_004.jpg,,,,,,,,,,,,,,,,,,,,,,,,,,,,,,,,,,,,,,,,,,,,,,,,0,0,0,3,1,,,,,,,,,,,,,,,,,,,,,,,,,,,,,,,,,,,,,,,,,
235396,001,2022-11-21_01h59.08.436,Info_measure_main_exp,2022.2.2,Win32,61.09108681,,,,,,,,,,,,,,,,,,masks/mask_001.jpg,,,,,,,,,,,,,,,,,,,,,,,,,,,,,,,,,,,,,,,,,,,,,,,,0,1,1,0,1,,,,,,,,,,,,,,,,,,,,,,,,,,,,,,,,,,,,,,,,,
235396,001,2022-11-21_01h59.08.436,Info_measure_main_exp,2022.2.2,Win32,61.09108681,,,,,,,,,,,,,,,,,,masks/mask_005.jpg,,,,,,,,,,,,,,,,,,,,,,,,,,,,,,,,,,,,,,,,,,,,,,,,0,2,2,4,1,,,,,,,,,,,,,,,,,,,,,,,,,,,,,,,,,,,,,,,,,
235396,001,2022-11-21_01h59.08.436,Info_measure_main_exp,2022.2.2,Win32,61.09108681,,,,,,,,,,,,,,,,,,masks/mask_002.jpg,,,,,,,,,,,,,,,,,,,,,,,,,,,,,,,,,,,,,,,,,,,,,,,,0,3,3,1,1,,,,,,,,,,,,,,,,,,,,,,,,,,,,,,,,,,,,,,,,,
235396,001,2022-11-21_01h59.08.436,Info_measure_main_exp,2022.2.2,Win32,61.09108681,,,,,,,,,,,,,,,,,,masks/mask_003.jpg,,,,,,,,,,,,,,,,,,,,,,,,,,,,,,,,,,,,,,,,,,,,,,,,0,4,4,2,1,,,,,,,,,,,,,,,,,,,,,,,,,,,,,,,,,,,,,,,,,
235396,001,2022-11-21_01h59.08.436,Info_measure_main_exp,2022.2.2,Win32,61.09108681,,,,,,,,,,,,,,,,,,,,,,,,,,,,,,2,1.5833,1,,,,,,,,,,,,0,131,5,5,2082,2166,absent_patch/patch0002082.jpg,absent_patch/patch0002166.jpg,,,,,,,,,,,,,,,,,,,,-0.100260417,-0.03515625,1,0,0,response5disk,21,0,0.005208333,1,0,0,center_square,0,20,20,43,1,,,,,,,,,,,,,,,,,,,,,,,
235396,001,2022-11-21_01h59.08.436,Info_measure_main_exp,2022.2.2,Win32,61.09108681,,,,,,,,,,,,,,,,,,masks/mask_002.jpg,,,,,,,,,,,,,,,,,,,,,,,,,,,,,,,,,,,,,,,,,,,0,0,0,1,1,,,,,,,,,,,,,,,,,,,,,,,,,,,,,,,,,,,,,,,,,,,,,,
235396,001,2022-11-21_01h59.08.436,Info_measure_main_exp,2022.2.2,Win32,61.09108681,,,,,,,,,,,,,,,,,,masks/mask_005.jpg,,,,,,,,,,,,,,,,,,,,,,,,,,,,,,,,,,,,,,,,,,,0,1,1,4,1,,,,,,,,,,,,,,,,,,,,,,,,,,,,,,,,,,,,,,,,,,,,,,
235396,001,2022-11-21_01h59.08.436,Info_measure_main_exp,2022.2.2,Win32,61.09108681,,,,,,,,,,,,,,,,,,masks/mask_003.jpg,,,,,,,,,,,,,,,,,,,,,,,,,,,,,,,,,,,,,,,,,,,0,2,2,2,1,,,,,,,,,,,,,,,,,,,,,,,,,,,,,,,,,,,,,,,,,,,,,,
235396,001,2022-11-21_01h59.08.436,Info_measure_main_exp,2022.2.2,Win32,61.09108681,,,,,,,,,,,,,,,,,,masks/mask_004.jpg,,,,,,,,,,,,,,,,,,,,,,,,,,,,,,,,,,,,,,,,,,,0,3,3,3,1,,,,,,,,,,,,,,,,,,,,,,,,,,,,,,,,,,,,,,,,,,,,,,
235396,001,2022-11-21_01h59.08.436,Info_measure_main_exp,2022.2.2,Win32,61.09108681,,,,,,,,,,,,,,,,,,masks/mask_001.jpg,,,,,,,,,,,,,,,,,,,,,,,,,,,,,,,,,,,,,,,,,,,0,4,4,0,1,,,,,,,,,,,,,,,,,,,,,,,,,,,,,,,,,,,,,,,,,,,,,,
235396,001,2022-11-21_01h59.08.436,Info_measure_main_exp,2022.2.2,Win32,61.09108681,,,,,,,,,,,,,,,,,,masks/mask_002.jpg,,,,,,,,,,,,,,,,,,,,,,,,,,,,,,,,,,,,,,,,,,,,,,,,0,0,0,1,1,,,,,,,,,,,,,,,,,,,,,,,,,,,,,,,,,,,,,,,,,
235396,001,2022-11-21_01h59.08.436,Info_measure_main_exp,2022.2.2,Win32,61.09108681,,,,,,,,,,,,,,,,,,masks/mask_003.jpg,,,,,,,,,,,,,,,,,,,,,,,,,,,,,,,,,,,,,,,,,,,,,,,,0,1,1,2,1,,,,,,,,,,,,,,,,,,,,,,,,,,,,,,,,,,,,,,,,,
235396,001,2022-11-21_01h59.08.436,Info_measure_main_exp,2022.2.2,Win32,61.09108681,,,,,,,,,,,,,,,,,,masks/mask_001.jpg,,,,,,,,,,,,,,,,,,,,,,,,,,,,,,,,,,,,,,,,,,,,,,,,0,2,2,0,1,,,,,,,,,,,,,,,,,,,,,,,,,,,,,,,,,,,,,,,,,
235396,001,2022-11-21_01h59.08.436,Info_measure_main_exp,2022.2.2,Win32,61.09108681,,,,,,,,,,,,,,,,,,masks/mask_005.jpg,,,,,,,,,,,,,,,,,,,,,,,,,,,,,,,,,,,,,,,,,,,,,,,,0,3,3,4,1,,,,,,,,,,,,,,,,,,,,,,,,,,,,,,,,,,,,,,,,,
235396,001,2022-11-21_01h59.08.436,Info_measure_main_exp,2022.2.2,Win32,61.09108681,,,,,,,,,,,,,,,,,,masks/mask_004.jpg,,,,,,,,,,,,,,,,,,,,,,,,,,,,,,,,,,,,,,,,,,,,,,,,0,4,4,3,1,,,,,,,,,,,,,,,,,,,,,,,,,,,,,,,,,,,,,,,,,
235396,001,2022-11-21_01h59.08.436,Info_measure_main_exp,2022.2.2,Win32,61.09108681,,,,,,,,,,,,,,,,,,,,,,,,,,,,,,7,1.1337,1,,,,,,,,,,,,0,131,5,5,2142,2142,absent_patch/patch0002142.jpg,absent_patch/patch0002142.jpg,,,,,,,,,,,,,,,,,,,,0.028645833,0.071614583,1,0,0,response1disk,22,-0.001302083,0.002604167,1,0,0,center_square,0,21,21,13,1,,,,,,,,,,,,,,,,,,,,,,,
235396,001,2022-11-21_01h59.08.436,Info_measure_main_exp,2022.2.2,Win32,61.09108681,,,,,,,,,,,,,,,,,,masks/mask_005.jpg,,,,,,,,,,,,,,,,,,,,,,,,,,,,,,,,,,,,,,,,,,,0,0,0,4,1,,,,,,,,,,,,,,,,,,,,,,,,,,,,,,,,,,,,,,,,,,,,,,
235396,001,2022-11-21_01h59.08.436,Info_measure_main_exp,2022.2.2,Win32,61.09108681,,,,,,,,,,,,,,,,,,masks/mask_003.jpg,,,,,,,,,,,,,,,,,,,,,,,,,,,,,,,,,,,,,,,,,,,0,1,1,2,1,,,,,,,,,,,,,,,,,,,,,,,,,,,,,,,,,,,,,,,,,,,,,,
235396,001,2022-11-21_01h59.08.436,Info_measure_main_exp,2022.2.2,Win32,61.09108681,,,,,,,,,,,,,,,,,,masks/mask_002.jpg,,,,,,,,,,,,,,,,,,,,,,,,,,,,,,,,,,,,,,,,,,,0,2,2,1,1,,,,,,,,,,,,,,,,,,,,,,,,,,,,,,,,,,,,,,,,,,,,,,
235396,001,2022-11-21_01h59.08.436,Info_measure_main_exp,2022.2.2,Win32,61.09108681,,,,,,,,,,,,,,,,,,masks/mask_004.jpg,,,,,,,,,,,,,,,,,,,,,,,,,,,,,,,,,,,,,,,,,,,0,3,3,3,1,,,,,,,,,,,,,,,,,,,,,,,,,,,,,,,,,,,,,,,,,,,,,,
235396,001,2022-11-21_01h59.08.436,Info_measure_main_exp,2022.2.2,Win32,61.09108681,,,,,,,,,,,,,,,,,,masks/mask_001.jpg,,,,,,,,,,,,,,,,,,,,,,,,,,,,,,,,,,,,,,,,,,,0,4,4,0,1,,,,,,,,,,,,,,,,,,,,,,,,,,,,,,,,,,,,,,,,,,,,,,
235396,001,2022-11-21_01h59.08.436,Info_measure_main_exp,2022.2.2,Win32,61.09108681,,,,,,,,,,,,,,,,,,masks/mask_002.jpg,,,,,,,,,,,,,,,,,,,,,,,,,,,,,,,,,,,,,,,,,,,,,,,,0,0,0,1,1,,,,,,,,,,,,,,,,,,,,,,,,,,,,,,,,,,,,,,,,,
235396,001,2022-11-21_01h59.08.436,Info_measure_main_exp,2022.2.2,Win32,61.09108681,,,,,,,,,,,,,,,,,,masks/mask_004.jpg,,,,,,,,,,,,,,,,,,,,,,,,,,,,,,,,,,,,,,,,,,,,,,,,0,1,1,3,1,,,,,,,,,,,,,,,,,,,,,,,,,,,,,,,,,,,,,,,,,
235396,001,2022-11-21_01h59.08.436,Info_measure_main_exp,2022.2.2,Win32,61.09108681,,,,,,,,,,,,,,,,,,masks/mask_005.jpg,,,,,,,,,,,,,,,,,,,,,,,,,,,,,,,,,,,,,,,,,,,,,,,,0,2,2,4,1,,,,,,,,,,,,,,,,,,,,,,,,,,,,,,,,,,,,,,,,,
235396,001,2022-11-21_01h59.08.436,Info_measure_main_exp,2022.2.2,Win32,61.09108681,,,,,,,,,,,,,,,,,,masks/mask_003.jpg,,,,,,,,,,,,,,,,,,,,,,,,,,,,,,,,,,,,,,,,,,,,,,,,0,3,3,2,1,,,,,,,,,,,,,,,,,,,,,,,,,,,,,,,,,,,,,,,,,
235396,001,2022-11-21_01h59.08.436,Info_measure_main_exp,2022.2.2,Win32,61.09108681,,,,,,,,,,,,,,,,,,masks/mask_001.jpg,,,,,,,,,,,,,,,,,,,,,,,,,,,,,,,,,,,,,,,,,,,,,,,,0,4,4,0,1,,,,,,,,,,,,,,,,,,,,,,,,,,,,,,,,,,,,,,,,,
235396,001,2022-11-21_01h59.08.436,Info_measure_main_exp,2022.2.2,Win32,61.09108681,,,,,,,,,,,,,,,,,,,,,,,,,,,,,,7,0.9161,1,,,,,,,,,,,,1,131,5,5,1950,1,absent_patch/patch0001950.jpg,present_patch/cong_131_5_a.jpg,,,,,,,,,,,,,,,,,,,,0.033854167,0.078125,1,0,0,response1disk,23,-0.009114583,-0.00390625,1,0,0,center_square,0,22,22,39,1,,,,,,,,,,,,,,,,,,,,,,,
235396,001,2022-11-21_01h59.08.436,Info_measure_main_exp,2022.2.2,Win32,61.09108681,,,,,,,,,,,,,,,,,,masks/mask_003.jpg,,,,,,,,,,,,,,,,,,,,,,,,,,,,,,,,,,,,,,,,,,,0,0,0,2,1,,,,,,,,,,,,,,,,,,,,,,,,,,,,,,,,,,,,,,,,,,,,,,
235396,001,2022-11-21_01h59.08.436,Info_measure_main_exp,2022.2.2,Win32,61.09108681,,,,,,,,,,,,,,,,,,masks/mask_005.jpg,,,,,,,,,,,,,,,,,,,,,,,,,,,,,,,,,,,,,,,,,,,0,1,1,4,1,,,,,,,,,,,,,,,,,,,,,,,,,,,,,,,,,,,,,,,,,,,,,,
235396,001,2022-11-21_01h59.08.436,Info_measure_main_exp,2022.2.2,Win32,61.09108681,,,,,,,,,,,,,,,,,,masks/mask_004.jpg,,,,,,,,,,,,,,,,,,,,,,,,,,,,,,,,,,,,,,,,,,,0,2,2,3,1,,,,,,,,,,,,,,,,,,,,,,,,,,,,,,,,,,,,,,,,,,,,,,
235396,001,2022-11-21_01h59.08.436,Info_measure_main_exp,2022.2.2,Win32,61.09108681,,,,,,,,,,,,,,,,,,masks/mask_001.jpg,,,,,,,,,,,,,,,,,,,,,,,,,,,,,,,,,,,,,,,,,,,0,3,3,0,1,,,,,,,,,,,,,,,,,,,,,,,,,,,,,,,,,,,,,,,,,,,,,,
235396,001,2022-11-21_01h59.08.436,Info_measure_main_exp,2022.2.2,Win32,61.09108681,,,,,,,,,,,,,,,,,,masks/mask_002.jpg,,,,,,,,,,,,,,,,,,,,,,,,,,,,,,,,,,,,,,,,,,,0,4,4,1,1,,,,,,,,,,,,,,,,,,,,,,,,,,,,,,,,,,,,,,,,,,,,,,
235396,001,2022-11-21_01h59.08.436,Info_measure_main_exp,2022.2.2,Win32,61.09108681,,,,,,,,,,,,,,,,,,masks/mask_004.jpg,,,,,,,,,,,,,,,,,,,,,,,,,,,,,,,,,,,,,,,,,,,,,,,,0,0,0,3,1,,,,,,,,,,,,,,,,,,,,,,,,,,,,,,,,,,,,,,,,,
235396,001,2022-11-21_01h59.08.436,Info_measure_main_exp,2022.2.2,Win32,61.09108681,,,,,,,,,,,,,,,,,,masks/mask_002.jpg,,,,,,,,,,,,,,,,,,,,,,,,,,,,,,,,,,,,,,,,,,,,,,,,0,1,1,1,1,,,,,,,,,,,,,,,,,,,,,,,,,,,,,,,,,,,,,,,,,
235396,001,2022-11-21_01h59.08.436,Info_measure_main_exp,2022.2.2,Win32,61.09108681,,,,,,,,,,,,,,,,,,masks/mask_003.jpg,,,,,,,,,,,,,,,,,,,,,,,,,,,,,,,,,,,,,,,,,,,,,,,,0,2,2,2,1,,,,,,,,,,,,,,,,,,,,,,,,,,,,,,,,,,,,,,,,,
235396,001,2022-11-21_01h59.08.436,Info_measure_main_exp,2022.2.2,Win32,61.09108681,,,,,,,,,,,,,,,,,,masks/mask_005.jpg,,,,,,,,,,,,,,,,,,,,,,,,,,,,,,,,,,,,,,,,,,,,,,,,0,3,3,4,1,,,,,,,,,,,,,,,,,,,,,,,,,,,,,,,,,,,,,,,,,
235396,001,2022-11-21_01h59.08.436,Info_measure_main_exp,2022.2.2,Win32,61.09108681,,,,,,,,,,,,,,,,,,masks/mask_001.jpg,,,,,,,,,,,,,,,,,,,,,,,,,,,,,,,,,,,,,,,,,,,,,,,,0,4,4,0,1,,,,,,,,,,,,,,,,,,,,,,,,,,,,,,,,,,,,,,,,,
235396,001,2022-11-21_01h59.08.436,Info_measure_main_exp,2022.2.2,Win32,61.09108681,,,,,,,,,,,,,,,,,,,,,,,,,,,,,,3,2.7856,1,,,,,,,,,,,,1,131,5,5,1,2166,present_patch/cong_131_5_a.jpg,absent_patch/patch0002166.jpg,,,,,,,,,,,,,,,,,,,,-0.036458333,-0.079427083,1,0,0,response5disk,24,0,-0.001302083,1,0,0,center_square,0,23,23,54,1,,,,,,,,,,,,,,,,,,,,,,,
235396,001,2022-11-21_01h59.08.436,Info_measure_main_exp,2022.2.2,Win32,61.09108681,,,,,,,,,,,,,,,,,,masks/mask_003.jpg,,,,,,,,,,,,,,,,,,,,,,,,,,,,,,,,,,,,,,,,,,,0,0,0,2,1,,,,,,,,,,,,,,,,,,,,,,,,,,,,,,,,,,,,,,,,,,,,,,
235396,001,2022-11-21_01h59.08.436,Info_measure_main_exp,2022.2.2,Win32,61.09108681,,,,,,,,,,,,,,,,,,masks/mask_005.jpg,,,,,,,,,,,,,,,,,,,,,,,,,,,,,,,,,,,,,,,,,,,0,1,1,4,1,,,,,,,,,,,,,,,,,,,,,,,,,,,,,,,,,,,,,,,,,,,,,,
235396,001,2022-11-21_01h59.08.436,Info_measure_main_exp,2022.2.2,Win32,61.09108681,,,,,,,,,,,,,,,,,,masks/mask_002.jpg,,,,,,,,,,,,,,,,,,,,,,,,,,,,,,,,,,,,,,,,,,,0,2,2,1,1,,,,,,,,,,,,,,,,,,,,,,,,,,,,,,,,,,,,,,,,,,,,,,
235396,001,2022-11-21_01h59.08.436,Info_measure_main_exp,2022.2.2,Win32,61.09108681,,,,,,,,,,,,,,,,,,masks/mask_001.jpg,,,,,,,,,,,,,,,,,,,,,,,,,,,,,,,,,,,,,,,,,,,0,3,3,0,1,,,,,,,,,,,,,,,,,,,,,,,,,,,,,,,,,,,,,,,,,,,,,,
235396,001,2022-11-21_01h59.08.436,Info_measure_main_exp,2022.2.2,Win32,61.09108681,,,,,,,,,,,,,,,,,,masks/mask_004.jpg,,,,,,,,,,,,,,,,,,,,,,,,,,,,,,,,,,,,,,,,,,,0,4,4,3,1,,,,,,,,,,,,,,,,,,,,,,,,,,,,,,,,,,,,,,,,,,,,,,
235396,001,2022-11-21_01h59.08.436,Info_measure_main_exp,2022.2.2,Win32,61.09108681,,,,,,,,,,,,,,,,,,masks/mask_003.jpg,,,,,,,,,,,,,,,,,,,,,,,,,,,,,,,,,,,,,,,,,,,,,,,,0,0,0,2,1,,,,,,,,,,,,,,,,,,,,,,,,,,,,,,,,,,,,,,,,,
235396,001,2022-11-21_01h59.08.436,Info_measure_main_exp,2022.2.2,Win32,61.09108681,,,,,,,,,,,,,,,,,,masks/mask_001.jpg,,,,,,,,,,,,,,,,,,,,,,,,,,,,,,,,,,,,,,,,,,,,,,,,0,1,1,0,1,,,,,,,,,,,,,,,,,,,,,,,,,,,,,,,,,,,,,,,,,
235396,001,2022-11-21_01h59.08.436,Info_measure_main_exp,2022.2.2,Win32,61.09108681,,,,,,,,,,,,,,,,,,masks/mask_002.jpg,,,,,,,,,,,,,,,,,,,,,,,,,,,,,,,,,,,,,,,,,,,,,,,,0,2,2,1,1,,,,,,,,,,,,,,,,,,,,,,,,,,,,,,,,,,,,,,,,,
235396,001,2022-11-21_01h59.08.436,Info_measure_main_exp,2022.2.2,Win32,61.09108681,,,,,,,,,,,,,,,,,,masks/mask_005.jpg,,,,,,,,,,,,,,,,,,,,,,,,,,,,,,,,,,,,,,,,,,,,,,,,0,3,3,4,1,,,,,,,,,,,,,,,,,,,,,,,,,,,,,,,,,,,,,,,,,
235396,001,2022-11-21_01h59.08.436,Info_measure_main_exp,2022.2.2,Win32,61.09108681,,,,,,,,,,,,,,,,,,masks/mask_004.jpg,,,,,,,,,,,,,,,,,,,,,,,,,,,,,,,,,,,,,,,,,,,,,,,,0,4,4,3,1,,,,,,,,,,,,,,,,,,,,,,,,,,,,,,,,,,,,,,,,,
235396,001,2022-11-21_01h59.08.436,Info_measure_main_exp,2022.2.2,Win32,61.09108681,,,,,,,,,,,,,,,,,,,,,,,,,,,,,,0,2.9679,1,,,,,,,,,,,,0,131,5,5,2166,2166,absent_patch/patch0002166.jpg,absent_patch/patch0002166.jpg,,,,,,,,,,,,,,,,,,,,-0.049479167,0.118489583,1,0,0,response7disk,25,0.001302083,0.006510417,1,0,0,center_square,0,24,24,42,1,,,,,,,,,,,,,,,,,,,,,,,
235396,001,2022-11-21_01h59.08.436,Info_measure_main_exp,2022.2.2,Win32,61.09108681,,,,,,,,,,,,,,,,,,masks/mask_002.jpg,,,,,,,,,,,,,,,,,,,,,,,,,,,,,,,,,,,,,,,,,,,0,0,0,1,1,,,,,,,,,,,,,,,,,,,,,,,,,,,,,,,,,,,,,,,,,,,,,,
235396,001,2022-11-21_01h59.08.436,Info_measure_main_exp,2022.2.2,Win32,61.09108681,,,,,,,,,,,,,,,,,,masks/mask_001.jpg,,,,,,,,,,,,,,,,,,,,,,,,,,,,,,,,,,,,,,,,,,,0,1,1,0,1,,,,,,,,,,,,,,,,,,,,,,,,,,,,,,,,,,,,,,,,,,,,,,
235396,001,2022-11-21_01h59.08.436,Info_measure_main_exp,2022.2.2,Win32,61.09108681,,,,,,,,,,,,,,,,,,masks/mask_003.jpg,,,,,,,,,,,,,,,,,,,,,,,,,,,,,,,,,,,,,,,,,,,0,2,2,2,1,,,,,,,,,,,,,,,,,,,,,,,,,,,,,,,,,,,,,,,,,,,,,,
235396,001,2022-11-21_01h59.08.436,Info_measure_main_exp,2022.2.2,Win32,61.09108681,,,,,,,,,,,,,,,,,,masks/mask_005.jpg,,,,,,,,,,,,,,,,,,,,,,,,,,,,,,,,,,,,,,,,,,,0,3,3,4,1,,,,,,,,,,,,,,,,,,,,,,,,,,,,,,,,,,,,,,,,,,,,,,
235396,001,2022-11-21_01h59.08.436,Info_measure_main_exp,2022.2.2,Win32,61.09108681,,,,,,,,,,,,,,,,,,masks/mask_004.jpg,,,,,,,,,,,,,,,,,,,,,,,,,,,,,,,,,,,,,,,,,,,0,4,4,3,1,,,,,,,,,,,,,,,,,,,,,,,,,,,,,,,,,,,,,,,,,,,,,,
235396,001,2022-11-21_01h59.08.436,Info_measure_main_exp,2022.2.2,Win32,61.09108681,,,,,,,,,,,,,,,,,,masks/mask_004.jpg,,,,,,,,,,,,,,,,,,,,,,,,,,,,,,,,,,,,,,,,,,,,,,,,0,0,0,3,1,,,,,,,,,,,,,,,,,,,,,,,,,,,,,,,,,,,,,,,,,
235396,001,2022-11-21_01h59.08.436,Info_measure_main_exp,2022.2.2,Win32,61.09108681,,,,,,,,,,,,,,,,,,masks/mask_005.jpg,,,,,,,,,,,,,,,,,,,,,,,,,,,,,,,,,,,,,,,,,,,,,,,,0,1,1,4,1,,,,,,,,,,,,,,,,,,,,,,,,,,,,,,,,,,,,,,,,,
235396,001,2022-11-21_01h59.08.436,Info_measure_main_exp,2022.2.2,Win32,61.09108681,,,,,,,,,,,,,,,,,,masks/mask_003.jpg,,,,,,,,,,,,,,,,,,,,,,,,,,,,,,,,,,,,,,,,,,,,,,,,0,2,2,2,1,,,,,,,,,,,,,,,,,,,,,,,,,,,,,,,,,,,,,,,,,
235396,001,2022-11-21_01h59.08.436,Info_measure_main_exp,2022.2.2,Win32,61.09108681,,,,,,,,,,,,,,,,,,masks/mask_001.jpg,,,,,,,,,,,,,,,,,,,,,,,,,,,,,,,,,,,,,,,,,,,,,,,,0,3,3,0,1,,,,,,,,,,,,,,,,,,,,,,,,,,,,,,,,,,,,,,,,,
235396,001,2022-11-21_01h59.08.436,Info_measure_main_exp,2022.2.2,Win32,61.09108681,,,,,,,,,,,,,,,,,,masks/mask_002.jpg,,,,,,,,,,,,,,,,,,,,,,,,,,,,,,,,,,,,,,,,,,,,,,,,0,4,4,1,1,,,,,,,,,,,,,,,,,,,,,,,,,,,,,,,,,,,,,,,,,
235396,001,2022-11-21_01h59.08.436,Info_measure_main_exp,2022.2.2,Win32,61.09108681,,,,,,,,,,,,,,,,,,,,,,,,,,,,,,7,1.4006,1,,,,,,,,,,,,0,131,5,5,2154,2298,absent_patch/patch0002154.jpg,absent_patch/patch0002298.jpg,,,,,,,,,,,,,,,,,,,,0.029947917,0.075520833,1,0,0,response1disk,26,-0.002604167,-0.001302083,1,0,0,center_square,0,25,25,27,1,,,,,,,,,,,,,,,,,,,,,,,
235396,001,2022-11-21_01h59.08.436,Info_measure_main_exp,2022.2.2,Win32,61.09108681,,,,,,,,,,,,,,,,,,masks/mask_002.jpg,,,,,,,,,,,,,,,,,,,,,,,,,,,,,,,,,,,,,,,,,,,0,0,0,1,1,,,,,,,,,,,,,,,,,,,,,,,,,,,,,,,,,,,,,,,,,,,,,,
235396,001,2022-11-21_01h59.08.436,Info_measure_main_exp,2022.2.2,Win32,61.09108681,,,,,,,,,,,,,,,,,,masks/mask_001.jpg,,,,,,,,,,,,,,,,,,,,,,,,,,,,,,,,,,,,,,,,,,,0,1,1,0,1,,,,,,,,,,,,,,,,,,,,,,,,,,,,,,,,,,,,,,,,,,,,,,
235396,001,2022-11-21_01h59.08.436,Info_measure_main_exp,2022.2.2,Win32,61.09108681,,,,,,,,,,,,,,,,,,masks/mask_005.jpg,,,,,,,,,,,,,,,,,,,,,,,,,,,,,,,,,,,,,,,,,,,0,2,2,4,1,,,,,,,,,,,,,,,,,,,,,,,,,,,,,,,,,,,,,,,,,,,,,,
235396,001,2022-11-21_01h59.08.436,Info_measure_main_exp,2022.2.2,Win32,61.09108681,,,,,,,,,,,,,,,,,,masks/mask_004.jpg,,,,,,,,,,,,,,,,,,,,,,,,,,,,,,,,,,,,,,,,,,,0,3,3,3,1,,,,,,,,,,,,,,,,,,,,,,,,,,,,,,,,,,,,,,,,,,,,,,
235396,001,2022-11-21_01h59.08.436,Info_measure_main_exp,2022.2.2,Win32,61.09108681,,,,,,,,,,,,,,,,,,masks/mask_003.jpg,,,,,,,,,,,,,,,,,,,,,,,,,,,,,,,,,,,,,,,,,,,0,4,4,2,1,,,,,,,,,,,,,,,,,,,,,,,,,,,,,,,,,,,,,,,,,,,,,,
235396,001,2022-11-21_01h59.08.436,Info_measure_main_exp,2022.2.2,Win32,61.09108681,,,,,,,,,,,,,,,,,,masks/mask_001.jpg,,,,,,,,,,,,,,,,,,,,,,,,,,,,,,,,,,,,,,,,,,,,,,,,0,0,0,0,1,,,,,,,,,,,,,,,,,,,,,,,,,,,,,,,,,,,,,,,,,
235396,001,2022-11-21_01h59.08.436,Info_measure_main_exp,2022.2.2,Win32,61.09108681,,,,,,,,,,,,,,,,,,masks/mask_005.jpg,,,,,,,,,,,,,,,,,,,,,,,,,,,,,,,,,,,,,,,,,,,,,,,,0,1,1,4,1,,,,,,,,,,,,,,,,,,,,,,,,,,,,,,,,,,,,,,,,,
235396,001,2022-11-21_01h59.08.436,Info_measure_main_exp,2022.2.2,Win32,61.09108681,,,,,,,,,,,,,,,,,,masks/mask_002.jpg,,,,,,,,,,,,,,,,,,,,,,,,,,,,,,,,,,,,,,,,,,,,,,,,0,2,2,1,1,,,,,,,,,,,,,,,,,,,,,,,,,,,,,,,,,,,,,,,,,
235396,001,2022-11-21_01h59.08.436,Info_measure_main_exp,2022.2.2,Win32,61.09108681,,,,,,,,,,,,,,,,,,masks/mask_004.jpg,,,,,,,,,,,,,,,,,,,,,,,,,,,,,,,,,,,,,,,,,,,,,,,,0,3,3,3,1,,,,,,,,,,,,,,,,,,,,,,,,,,,,,,,,,,,,,,,,,
235396,001,2022-11-21_01h59.08.436,Info_measure_main_exp,2022.2.2,Win32,61.09108681,,,,,,,,,,,,,,,,,,masks/mask_003.jpg,,,,,,,,,,,,,,,,,,,,,,,,,,,,,,,,,,,,,,,,,,,,,,,,0,4,4,2,1,,,,,,,,,,,,,,,,,,,,,,,,,,,,,,,,,,,,,,,,,
235396,001,2022-11-21_01h59.08.436,Info_measure_main_exp,2022.2.2,Win32,61.09108681,,,,,,,,,,,,,,,,,,,,,,,,,,,,,,6,4.0654,1,,,,,,,,,,,,0,131,5,5,2166,1986,absent_patch/patch0002166.jpg,absent_patch/patch0001986.jpg,,,,,,,,,,,,,,,,,,,,0.0859375,0.067708333,1,0,0,response1disk,27,-0.00390625,-0.00390625,1,0,0,center_square,0,26,26,47,1,,,,,,,,,,,,,,,,,,,,,,,
235396,001,2022-11-21_01h59.08.436,Info_measure_main_exp,2022.2.2,Win32,61.09108681,,,,,,,,,,,,,,,,,,masks/mask_003.jpg,,,,,,,,,,,,,,,,,,,,,,,,,,,,,,,,,,,,,,,,,,,0,0,0,2,1,,,,,,,,,,,,,,,,,,,,,,,,,,,,,,,,,,,,,,,,,,,,,,
235396,001,2022-11-21_01h59.08.436,Info_measure_main_exp,2022.2.2,Win32,61.09108681,,,,,,,,,,,,,,,,,,masks/mask_001.jpg,,,,,,,,,,,,,,,,,,,,,,,,,,,,,,,,,,,,,,,,,,,0,1,1,0,1,,,,,,,,,,,,,,,,,,,,,,,,,,,,,,,,,,,,,,,,,,,,,,
235396,001,2022-11-21_01h59.08.436,Info_measure_main_exp,2022.2.2,Win32,61.09108681,,,,,,,,,,,,,,,,,,masks/mask_002.jpg,,,,,,,,,,,,,,,,,,,,,,,,,,,,,,,,,,,,,,,,,,,0,2,2,1,1,,,,,,,,,,,,,,,,,,,,,,,,,,,,,,,,,,,,,,,,,,,,,,
235396,001,2022-11-21_01h59.08.436,Info_measure_main_exp,2022.2.2,Win32,61.09108681,,,,,,,,,,,,,,,,,,masks/mask_005.jpg,,,,,,,,,,,,,,,,,,,,,,,,,,,,,,,,,,,,,,,,,,,0,3,3,4,1,,,,,,,,,,,,,,,,,,,,,,,,,,,,,,,,,,,,,,,,,,,,,,
235396,001,2022-11-21_01h59.08.436,Info_measure_main_exp,2022.2.2,Win32,61.09108681,,,,,,,,,,,,,,,,,,masks/mask_004.jpg,,,,,,,,,,,,,,,,,,,,,,,,,,,,,,,,,,,,,,,,,,,0,4,4,3,1,,,,,,,,,,,,,,,,,,,,,,,,,,,,,,,,,,,,,,,,,,,,,,
235396,001,2022-11-21_01h59.08.436,Info_measure_main_exp,2022.2.2,Win32,61.09108681,,,,,,,,,,,,,,,,,,masks/mask_004.jpg,,,,,,,,,,,,,,,,,,,,,,,,,,,,,,,,,,,,,,,,,,,,,,,,0,0,0,3,1,,,,,,,,,,,,,,,,,,,,,,,,,,,,,,,,,,,,,,,,,
235396,001,2022-11-21_01h59.08.436,Info_measure_main_exp,2022.2.2,Win32,61.09108681,,,,,,,,,,,,,,,,,,masks/mask_002.jpg,,,,,,,,,,,,,,,,,,,,,,,,,,,,,,,,,,,,,,,,,,,,,,,,0,1,1,1,1,,,,,,,,,,,,,,,,,,,,,,,,,,,,,,,,,,,,,,,,,
235396,001,2022-11-21_01h59.08.436,Info_measure_main_exp,2022.2.2,Win32,61.09108681,,,,,,,,,,,,,,,,,,masks/mask_001.jpg,,,,,,,,,,,,,,,,,,,,,,,,,,,,,,,,,,,,,,,,,,,,,,,,0,2,2,0,1,,,,,,,,,,,,,,,,,,,,,,,,,,,,,,,,,,,,,,,,,
235396,001,2022-11-21_01h59.08.436,Info_measure_main_exp,2022.2.2,Win32,61.09108681,,,,,,,,,,,,,,,,,,masks/mask_005.jpg,,,,,,,,,,,,,,,,,,,,,,,,,,,,,,,,,,,,,,,,,,,,,,,,0,3,3,4,1,,,,,,,,,,,,,,,,,,,,,,,,,,,,,,,,,,,,,,,,,
235396,001,2022-11-21_01h59.08.436,Info_measure_main_exp,2022.2.2,Win32,61.09108681,,,,,,,,,,,,,,,,,,masks/mask_003.jpg,,,,,,,,,,,,,,,,,,,,,,,,,,,,,,,,,,,,,,,,,,,,,,,,0,4,4,2,1,,,,,,,,,,,,,,,,,,,,,,,,,,,,,,,,,,,,,,,,,
235396,001,2022-11-21_01h59.08.436,Info_measure_main_exp,2022.2.2,Win32,61.09108681,,,,,,,,,,,,,,,,,,,,,,,,,,,,,,4,2.6208,1,,,,,,,,,,,,0,131,5,5,1950,2178,absent_patch/patch0001950.jpg,absent_patch/patch0002178.jpg,,,,,,,,,,,,,,,,,,,,0.06640625,-0.100260417,1,0,0,response3disk,28,0.00390625,0,1,0,0,center_square,0,27,27,61,1,,,,,,,,,,,,,,,,,,,,,,,
235396,001,2022-11-21_01h59.08.436,Info_measure_main_exp,2022.2.2,Win32,61.09108681,,,,,,,,,,,,,,,,,,masks/mask_003.jpg,,,,,,,,,,,,,,,,,,,,,,,,,,,,,,,,,,,,,,,,,,,0,0,0,2,1,,,,,,,,,,,,,,,,,,,,,,,,,,,,,,,,,,,,,,,,,,,,,,
235396,001,2022-11-21_01h59.08.436,Info_measure_main_exp,2022.2.2,Win32,61.09108681,,,,,,,,,,,,,,,,,,masks/mask_002.jpg,,,,,,,,,,,,,,,,,,,,,,,,,,,,,,,,,,,,,,,,,,,0,1,1,1,1,,,,,,,,,,,,,,,,,,,,,,,,,,,,,,,,,,,,,,,,,,,,,,
235396,001,2022-11-21_01h59.08.436,Info_measure_main_exp,2022.2.2,Win32,61.09108681,,,,,,,,,,,,,,,,,,masks/mask_005.jpg,,,,,,,,,,,,,,,,,,,,,,,,,,,,,,,,,,,,,,,,,,,0,2,2,4,1,,,,,,,,,,,,,,,,,,,,,,,,,,,,,,,,,,,,,,,,,,,,,,
235396,001,2022-11-21_01h59.08.436,Info_measure_main_exp,2022.2.2,Win32,61.09108681,,,,,,,,,,,,,,,,,,masks/mask_004.jpg,,,,,,,,,,,,,,,,,,,,,,,,,,,,,,,,,,,,,,,,,,,0,3,3,3,1,,,,,,,,,,,,,,,,,,,,,,,,,,,,,,,,,,,,,,,,,,,,,,
235396,001,2022-11-21_01h59.08.436,Info_measure_main_exp,2022.2.2,Win32,61.09108681,,,,,,,,,,,,,,,,,,masks/mask_001.jpg,,,,,,,,,,,,,,,,,,,,,,,,,,,,,,,,,,,,,,,,,,,0,4,4,0,1,,,,,,,,,,,,,,,,,,,,,,,,,,,,,,,,,,,,,,,,,,,,,,
235396,001,2022-11-21_01h59.08.436,Info_measure_main_exp,2022.2.2,Win32,61.09108681,,,,,,,,,,,,,,,,,,masks/mask_001.jpg,,,,,,,,,,,,,,,,,,,,,,,,,,,,,,,,,,,,,,,,,,,,,,,,0,0,0,0,1,,,,,,,,,,,,,,,,,,,,,,,,,,,,,,,,,,,,,,,,,
235396,001,2022-11-21_01h59.08.436,Info_measure_main_exp,2022.2.2,Win32,61.09108681,,,,,,,,,,,,,,,,,,masks/mask_002.jpg,,,,,,,,,,,,,,,,,,,,,,,,,,,,,,,,,,,,,,,,,,,,,,,,0,1,1,1,1,,,,,,,,,,,,,,,,,,,,,,,,,,,,,,,,,,,,,,,,,
235396,001,2022-11-21_01h59.08.436,Info_measure_main_exp,2022.2.2,Win32,61.09108681,,,,,,,,,,,,,,,,,,masks/mask_003.jpg,,,,,,,,,,,,,,,,,,,,,,,,,,,,,,,,,,,,,,,,,,,,,,,,0,2,2,2,1,,,,,,,,,,,,,,,,,,,,,,,,,,,,,,,,,,,,,,,,,
235396,001,2022-11-21_01h59.08.436,Info_measure_main_exp,2022.2.2,Win32,61.09108681,,,,,,,,,,,,,,,,,,masks/mask_004.jpg,,,,,,,,,,,,,,,,,,,,,,,,,,,,,,,,,,,,,,,,,,,,,,,,0,3,3,3,1,,,,,,,,,,,,,,,,,,,,,,,,,,,,,,,,,,,,,,,,,
235396,001,2022-11-21_01h59.08.436,Info_measure_main_exp,2022.2.2,Win32,61.09108681,,,,,,,,,,,,,,,,,,masks/mask_005.jpg,,,,,,,,,,,,,,,,,,,,,,,,,,,,,,,,,,,,,,,,,,,,,,,,0,4,4,4,1,,,,,,,,,,,,,,,,,,,,,,,,,,,,,,,,,,,,,,,,,
235396,001,2022-11-21_01h59.08.436,Info_measure_main_exp,2022.2.2,Win32,61.09108681,,,,,,,,,,,,,,,,,,,,,,,,,,,,,,4,1.9941,1,,,,,,,,,,,,0,131,5,5,2274,2250,absent_patch/patch0002274.jpg,absent_patch/patch0002250.jpg,,,,,,,,,,,,,,,,,,,,0.020833333,-0.053385417,1,0,0,response3disk,29,-0.005208333,0.0078125,1,0,0,center_square,0,28,28,28,1,,,,,,,,,,,,,,,,,,,,,,,
235396,001,2022-11-21_01h59.08.436,Info_measure_main_exp,2022.2.2,Win32,61.09108681,,,,,,,,,,,,,,,,,,masks/mask_003.jpg,,,,,,,,,,,,,,,,,,,,,,,,,,,,,,,,,,,,,,,,,,,0,0,0,2,1,,,,,,,,,,,,,,,,,,,,,,,,,,,,,,,,,,,,,,,,,,,,,,
235396,001,2022-11-21_01h59.08.436,Info_measure_main_exp,2022.2.2,Win32,61.09108681,,,,,,,,,,,,,,,,,,masks/mask_001.jpg,,,,,,,,,,,,,,,,,,,,,,,,,,,,,,,,,,,,,,,,,,,0,1,1,0,1,,,,,,,,,,,,,,,,,,,,,,,,,,,,,,,,,,,,,,,,,,,,,,
235396,001,2022-11-21_01h59.08.436,Info_measure_main_exp,2022.2.2,Win32,61.09108681,,,,,,,,,,,,,,,,,,masks/mask_004.jpg,,,,,,,,,,,,,,,,,,,,,,,,,,,,,,,,,,,,,,,,,,,0,2,2,3,1,,,,,,,,,,,,,,,,,,,,,,,,,,,,,,,,,,,,,,,,,,,,,,
235396,001,2022-11-21_01h59.08.436,Info_measure_main_exp,2022.2.2,Win32,61.09108681,,,,,,,,,,,,,,,,,,masks/mask_002.jpg,,,,,,,,,,,,,,,,,,,,,,,,,,,,,,,,,,,,,,,,,,,0,3,3,1,1,,,,,,,,,,,,,,,,,,,,,,,,,,,,,,,,,,,,,,,,,,,,,,
235396,001,2022-11-21_01h59.08.436,Info_measure_main_exp,2022.2.2,Win32,61.09108681,,,,,,,,,,,,,,,,,,masks/mask_005.jpg,,,,,,,,,,,,,,,,,,,,,,,,,,,,,,,,,,,,,,,,,,,0,4,4,4,1,,,,,,,,,,,,,,,,,,,,,,,,,,,,,,,,,,,,,,,,,,,,,,
235396,001,2022-11-21_01h59.08.436,Info_measure_main_exp,2022.2.2,Win32,61.09108681,,,,,,,,,,,,,,,,,,masks/mask_001.jpg,,,,,,,,,,,,,,,,,,,,,,,,,,,,,,,,,,,,,,,,,,,,,,,,0,0,0,0,1,,,,,,,,,,,,,,,,,,,,,,,,,,,,,,,,,,,,,,,,,
235396,001,2022-11-21_01h59.08.436,Info_measure_main_exp,2022.2.2,Win32,61.09108681,,,,,,,,,,,,,,,,,,masks/mask_005.jpg,,,,,,,,,,,,,,,,,,,,,,,,,,,,,,,,,,,,,,,,,,,,,,,,0,1,1,4,1,,,,,,,,,,,,,,,,,,,,,,,,,,,,,,,,,,,,,,,,,
235396,001,2022-11-21_01h59.08.436,Info_measure_main_exp,2022.2.2,Win32,61.09108681,,,,,,,,,,,,,,,,,,masks/mask_003.jpg,,,,,,,,,,,,,,,,,,,,,,,,,,,,,,,,,,,,,,,,,,,,,,,,0,2,2,2,1,,,,,,,,,,,,,,,,,,,,,,,,,,,,,,,,,,,,,,,,,
235396,001,2022-11-21_01h59.08.436,Info_measure_main_exp,2022.2.2,Win32,61.09108681,,,,,,,,,,,,,,,,,,masks/mask_004.jpg,,,,,,,,,,,,,,,,,,,,,,,,,,,,,,,,,,,,,,,,,,,,,,,,0,3,3,3,1,,,,,,,,,,,,,,,,,,,,,,,,,,,,,,,,,,,,,,,,,
235396,001,2022-11-21_01h59.08.436,Info_measure_main_exp,2022.2.2,Win32,61.09108681,,,,,,,,,,,,,,,,,,masks/mask_002.jpg,,,,,,,,,,,,,,,,,,,,,,,,,,,,,,,,,,,,,,,,,,,,,,,,0,4,4,1,1,,,,,,,,,,,,,,,,,,,,,,,,,,,,,,,,,,,,,,,,,
235396,001,2022-11-21_01h59.08.436,Info_measure_main_exp,2022.2.2,Win32,61.09108681,,,,,,,,,,,,,,,,,,,,,,,,,,,,,,4,3.6066,1,,,,,,,,,,,,0,131,5,5,1974,2250,absent_patch/patch0001974.jpg,absent_patch/patch0002250.jpg,,,,,,,,,,,,,,,,,,,,0.015625,-0.059895833,1,0,0,response3disk,30,0.005208333,0.0078125,1,0,0,center_square,0,29,29,55,1,,,,,,,,,,,,,,,,,,,,,,,
235396,001,2022-11-21_01h59.08.436,Info_measure_main_exp,2022.2.2,Win32,61.09108681,,,,,,,,,,,,,,,,,,masks/mask_001.jpg,,,,,,,,,,,,,,,,,,,,,,,,,,,,,,,,,,,,,,,,,,,0,0,0,0,1,,,,,,,,,,,,,,,,,,,,,,,,,,,,,,,,,,,,,,,,,,,,,,
235396,001,2022-11-21_01h59.08.436,Info_measure_main_exp,2022.2.2,Win32,61.09108681,,,,,,,,,,,,,,,,,,masks/mask_005.jpg,,,,,,,,,,,,,,,,,,,,,,,,,,,,,,,,,,,,,,,,,,,0,1,1,4,1,,,,,,,,,,,,,,,,,,,,,,,,,,,,,,,,,,,,,,,,,,,,,,
235396,001,2022-11-21_01h59.08.436,Info_measure_main_exp,2022.2.2,Win32,61.09108681,,,,,,,,,,,,,,,,,,masks/mask_002.jpg,,,,,,,,,,,,,,,,,,,,,,,,,,,,,,,,,,,,,,,,,,,0,2,2,1,1,,,,,,,,,,,,,,,,,,,,,,,,,,,,,,,,,,,,,,,,,,,,,,
235396,001,2022-11-21_01h59.08.436,Info_measure_main_exp,2022.2.2,Win32,61.09108681,,,,,,,,,,,,,,,,,,masks/mask_004.jpg,,,,,,,,,,,,,,,,,,,,,,,,,,,,,,,,,,,,,,,,,,,0,3,3,3,1,,,,,,,,,,,,,,,,,,,,,,,,,,,,,,,,,,,,,,,,,,,,,,
235396,001,2022-11-21_01h59.08.436,Info_measure_main_exp,2022.2.2,Win32,61.09108681,,,,,,,,,,,,,,,,,,masks/mask_003.jpg,,,,,,,,,,,,,,,,,,,,,,,,,,,,,,,,,,,,,,,,,,,0,4,4,2,1,,,,,,,,,,,,,,,,,,,,,,,,,,,,,,,,,,,,,,,,,,,,,,
235396,001,2022-11-21_01h59.08.436,Info_measure_main_exp,2022.2.2,Win32,61.09108681,,,,,,,,,,,,,,,,,,masks/mask_005.jpg,,,,,,,,,,,,,,,,,,,,,,,,,,,,,,,,,,,,,,,,,,,,,,,,0,0,0,4,1,,,,,,,,,,,,,,,,,,,,,,,,,,,,,,,,,,,,,,,,,
235396,001,2022-11-21_01h59.08.436,Info_measure_main_exp,2022.2.2,Win32,61.09108681,,,,,,,,,,,,,,,,,,masks/mask_003.jpg,,,,,,,,,,,,,,,,,,,,,,,,,,,,,,,,,,,,,,,,,,,,,,,,0,1,1,2,1,,,,,,,,,,,,,,,,,,,,,,,,,,,,,,,,,,,,,,,,,
235396,001,2022-11-21_01h59.08.436,Info_measure_main_exp,2022.2.2,Win32,61.09108681,,,,,,,,,,,,,,,,,,masks/mask_004.jpg,,,,,,,,,,,,,,,,,,,,,,,,,,,,,,,,,,,,,,,,,,,,,,,,0,2,2,3,1,,,,,,,,,,,,,,,,,,,,,,,,,,,,,,,,,,,,,,,,,
235396,001,2022-11-21_01h59.08.436,Info_measure_main_exp,2022.2.2,Win32,61.09108681,,,,,,,,,,,,,,,,,,masks/mask_001.jpg,,,,,,,,,,,,,,,,,,,,,,,,,,,,,,,,,,,,,,,,,,,,,,,,0,3,3,0,1,,,,,,,,,,,,,,,,,,,,,,,,,,,,,,,,,,,,,,,,,
235396,001,2022-11-21_01h59.08.436,Info_measure_main_exp,2022.2.2,Win32,61.09108681,,,,,,,,,,,,,,,,,,masks/mask_002.jpg,,,,,,,,,,,,,,,,,,,,,,,,,,,,,,,,,,,,,,,,,,,,,,,,0,4,4,1,1,,,,,,,,,,,,,,,,,,,,,,,,,,,,,,,,,,,,,,,,,
235396,001,2022-11-21_01h59.08.436,Info_measure_main_exp,2022.2.2,Win32,61.09108681,,,,,,,,,,,,,,,,,,,,,,,,,,,,,,0,1.1673,1,,,,,,,,,,,,0,131,5,5,2274,2274,absent_patch/patch0002274.jpg,absent_patch/patch0002274.jpg,,,,,,,,,,,,,,,,,,,,-0.033854167,0.13671875,1,0,0,response7disk,31,0.002604167,-0.006510417,1,0,0,center_square,0,30,30,114,1,,,,,,,,,,,,,,,,,,,,,,,
235396,001,2022-11-21_01h59.08.436,Info_measure_main_exp,2022.2.2,Win32,61.09108681,,,,,,,,,,,,,,,,,,masks/mask_002.jpg,,,,,,,,,,,,,,,,,,,,,,,,,,,,,,,,,,,,,,,,,,,0,0,0,1,1,,,,,,,,,,,,,,,,,,,,,,,,,,,,,,,,,,,,,,,,,,,,,,
235396,001,2022-11-21_01h59.08.436,Info_measure_main_exp,2022.2.2,Win32,61.09108681,,,,,,,,,,,,,,,,,,masks/mask_001.jpg,,,,,,,,,,,,,,,,,,,,,,,,,,,,,,,,,,,,,,,,,,,0,1,1,0,1,,,,,,,,,,,,,,,,,,,,,,,,,,,,,,,,,,,,,,,,,,,,,,
235396,001,2022-11-21_01h59.08.436,Info_measure_main_exp,2022.2.2,Win32,61.09108681,,,,,,,,,,,,,,,,,,masks/mask_004.jpg,,,,,,,,,,,,,,,,,,,,,,,,,,,,,,,,,,,,,,,,,,,0,2,2,3,1,,,,,,,,,,,,,,,,,,,,,,,,,,,,,,,,,,,,,,,,,,,,,,
235396,001,2022-11-21_01h59.08.436,Info_measure_main_exp,2022.2.2,Win32,61.09108681,,,,,,,,,,,,,,,,,,masks/mask_003.jpg,,,,,,,,,,,,,,,,,,,,,,,,,,,,,,,,,,,,,,,,,,,0,3,3,2,1,,,,,,,,,,,,,,,,,,,,,,,,,,,,,,,,,,,,,,,,,,,,,,
235396,001,2022-11-21_01h59.08.436,Info_measure_main_exp,2022.2.2,Win32,61.09108681,,,,,,,,,,,,,,,,,,masks/mask_005.jpg,,,,,,,,,,,,,,,,,,,,,,,,,,,,,,,,,,,,,,,,,,,0,4,4,4,1,,,,,,,,,,,,,,,,,,,,,,,,,,,,,,,,,,,,,,,,,,,,,,
235396,001,2022-11-21_01h59.08.436,Info_measure_main_exp,2022.2.2,Win32,61.09108681,,,,,,,,,,,,,,,,,,masks/mask_001.jpg,,,,,,,,,,,,,,,,,,,,,,,,,,,,,,,,,,,,,,,,,,,,,,,,0,0,0,0,1,,,,,,,,,,,,,,,,,,,,,,,,,,,,,,,,,,,,,,,,,
235396,001,2022-11-21_01h59.08.436,Info_measure_main_exp,2022.2.2,Win32,61.09108681,,,,,,,,,,,,,,,,,,masks/mask_003.jpg,,,,,,,,,,,,,,,,,,,,,,,,,,,,,,,,,,,,,,,,,,,,,,,,0,1,1,2,1,,,,,,,,,,,,,,,,,,,,,,,,,,,,,,,,,,,,,,,,,
235396,001,2022-11-21_01h59.08.436,Info_measure_main_exp,2022.2.2,Win32,61.09108681,,,,,,,,,,,,,,,,,,masks/mask_002.jpg,,,,,,,,,,,,,,,,,,,,,,,,,,,,,,,,,,,,,,,,,,,,,,,,0,2,2,1,1,,,,,,,,,,,,,,,,,,,,,,,,,,,,,,,,,,,,,,,,,
235396,001,2022-11-21_01h59.08.436,Info_measure_main_exp,2022.2.2,Win32,61.09108681,,,,,,,,,,,,,,,,,,masks/mask_005.jpg,,,,,,,,,,,,,,,,,,,,,,,,,,,,,,,,,,,,,,,,,,,,,,,,0,3,3,4,1,,,,,,,,,,,,,,,,,,,,,,,,,,,,,,,,,,,,,,,,,
235396,001,2022-11-21_01h59.08.436,Info_measure_main_exp,2022.2.2,Win32,61.09108681,,,,,,,,,,,,,,,,,,masks/mask_004.jpg,,,,,,,,,,,,,,,,,,,,,,,,,,,,,,,,,,,,,,,,,,,,,,,,0,4,4,3,1,,,,,,,,,,,,,,,,,,,,,,,,,,,,,,,,,,,,,,,,,
235396,001,2022-11-21_01h59.08.436,Info_measure_main_exp,2022.2.2,Win32,61.09108681,,,,,,,,,,,,,,,,,,,,,,,,,,,,,,5,2.8313,1,,,,,,,,,,,,0,131,5,5,2190,1950,absent_patch/patch0002190.jpg,absent_patch/patch0001950.jpg,,,,,,,,,,,,,,,,,,,,0.1015625,-0.03125,1,0,0,response3disk,32,-0.001302083,-0.001302083,1,0,0,center_square,0,31,31,73,1,,,,,,,,,,,,,,,,,,,,,,,
235396,001,2022-11-21_01h59.08.436,Info_measure_main_exp,2022.2.2,Win32,61.09108681,,,,,,,,,,,,,,,,,,masks/mask_005.jpg,,,,,,,,,,,,,,,,,,,,,,,,,,,,,,,,,,,,,,,,,,,0,0,0,4,1,,,,,,,,,,,,,,,,,,,,,,,,,,,,,,,,,,,,,,,,,,,,,,
235396,001,2022-11-21_01h59.08.436,Info_measure_main_exp,2022.2.2,Win32,61.09108681,,,,,,,,,,,,,,,,,,masks/mask_002.jpg,,,,,,,,,,,,,,,,,,,,,,,,,,,,,,,,,,,,,,,,,,,0,1,1,1,1,,,,,,,,,,,,,,,,,,,,,,,,,,,,,,,,,,,,,,,,,,,,,,
235396,001,2022-11-21_01h59.08.436,Info_measure_main_exp,2022.2.2,Win32,61.09108681,,,,,,,,,,,,,,,,,,masks/mask_001.jpg,,,,,,,,,,,,,,,,,,,,,,,,,,,,,,,,,,,,,,,,,,,0,2,2,0,1,,,,,,,,,,,,,,,,,,,,,,,,,,,,,,,,,,,,,,,,,,,,,,
235396,001,2022-11-21_01h59.08.436,Info_measure_main_exp,2022.2.2,Win32,61.09108681,,,,,,,,,,,,,,,,,,masks/mask_003.jpg,,,,,,,,,,,,,,,,,,,,,,,,,,,,,,,,,,,,,,,,,,,0,3,3,2,1,,,,,,,,,,,,,,,,,,,,,,,,,,,,,,,,,,,,,,,,,,,,,,
235396,001,2022-11-21_01h59.08.436,Info_measure_main_exp,2022.2.2,Win32,61.09108681,,,,,,,,,,,,,,,,,,masks/mask_004.jpg,,,,,,,,,,,,,,,,,,,,,,,,,,,,,,,,,,,,,,,,,,,0,4,4,3,1,,,,,,,,,,,,,,,,,,,,,,,,,,,,,,,,,,,,,,,,,,,,,,
235396,001,2022-11-21_01h59.08.436,Info_measure_main_exp,2022.2.2,Win32,61.09108681,,,,,,,,,,,,,,,,,,masks/mask_004.jpg,,,,,,,,,,,,,,,,,,,,,,,,,,,,,,,,,,,,,,,,,,,,,,,,0,0,0,3,1,,,,,,,,,,,,,,,,,,,,,,,,,,,,,,,,,,,,,,,,,
235396,001,2022-11-21_01h59.08.436,Info_measure_main_exp,2022.2.2,Win32,61.09108681,,,,,,,,,,,,,,,,,,masks/mask_003.jpg,,,,,,,,,,,,,,,,,,,,,,,,,,,,,,,,,,,,,,,,,,,,,,,,0,1,1,2,1,,,,,,,,,,,,,,,,,,,,,,,,,,,,,,,,,,,,,,,,,
235396,001,2022-11-21_01h59.08.436,Info_measure_main_exp,2022.2.2,Win32,61.09108681,,,,,,,,,,,,,,,,,,masks/mask_005.jpg,,,,,,,,,,,,,,,,,,,,,,,,,,,,,,,,,,,,,,,,,,,,,,,,0,2,2,4,1,,,,,,,,,,,,,,,,,,,,,,,,,,,,,,,,,,,,,,,,,
235396,001,2022-11-21_01h59.08.436,Info_measure_main_exp,2022.2.2,Win32,61.09108681,,,,,,,,,,,,,,,,,,masks/mask_002.jpg,,,,,,,,,,,,,,,,,,,,,,,,,,,,,,,,,,,,,,,,,,,,,,,,0,3,3,1,1,,,,,,,,,,,,,,,,,,,,,,,,,,,,,,,,,,,,,,,,,
235396,001,2022-11-21_01h59.08.436,Info_measure_main_exp,2022.2.2,Win32,61.09108681,,,,,,,,,,,,,,,,,,masks/mask_001.jpg,,,,,,,,,,,,,,,,,,,,,,,,,,,,,,,,,,,,,,,,,,,,,,,,0,4,4,0,1,,,,,,,,,,,,,,,,,,,,,,,,,,,,,,,,,,,,,,,,,
235396,001,2022-11-21_01h59.08.436,Info_measure_main_exp,2022.2.2,Win32,61.09108681,,,,,,,,,,,,,,,,,,,,,,,,,,,,,,3,1.4858,1,,,,,,,,,,,,0,131,5,5,1986,2274,absent_patch/patch0001986.jpg,absent_patch/patch0002274.jpg,,,,,,,,,,,,,,,,,,,,-0.041666667,-0.0859375,1,0,0,response5disk,33,-0.001302083,0.005208333,1,0,0,center_square,0,32,32,7,1,,,,,,,,,,,,,,,,,,,,,,,
235396,001,2022-11-21_01h59.08.436,Info_measure_main_exp,2022.2.2,Win32,61.09108681,,,,,,,,,,,,,,,,,,masks/mask_005.jpg,,,,,,,,,,,,,,,,,,,,,,,,,,,,,,,,,,,,,,,,,,,0,0,0,4,1,,,,,,,,,,,,,,,,,,,,,,,,,,,,,,,,,,,,,,,,,,,,,,
235396,001,2022-11-21_01h59.08.436,Info_measure_main_exp,2022.2.2,Win32,61.09108681,,,,,,,,,,,,,,,,,,masks/mask_004.jpg,,,,,,,,,,,,,,,,,,,,,,,,,,,,,,,,,,,,,,,,,,,0,1,1,3,1,,,,,,,,,,,,,,,,,,,,,,,,,,,,,,,,,,,,,,,,,,,,,,
235396,001,2022-11-21_01h59.08.436,Info_measure_main_exp,2022.2.2,Win32,61.09108681,,,,,,,,,,,,,,,,,,masks/mask_001.jpg,,,,,,,,,,,,,,,,,,,,,,,,,,,,,,,,,,,,,,,,,,,0,2,2,0,1,,,,,,,,,,,,,,,,,,,,,,,,,,,,,,,,,,,,,,,,,,,,,,
235396,001,2022-11-21_01h59.08.436,Info_measure_main_exp,2022.2.2,Win32,61.09108681,,,,,,,,,,,,,,,,,,masks/mask_002.jpg,,,,,,,,,,,,,,,,,,,,,,,,,,,,,,,,,,,,,,,,,,,0,3,3,1,1,,,,,,,,,,,,,,,,,,,,,,,,,,,,,,,,,,,,,,,,,,,,,,
235396,001,2022-11-21_01h59.08.436,Info_measure_main_exp,2022.2.2,Win32,61.09108681,,,,,,,,,,,,,,,,,,masks/mask_003.jpg,,,,,,,,,,,,,,,,,,,,,,,,,,,,,,,,,,,,,,,,,,,0,4,4,2,1,,,,,,,,,,,,,,,,,,,,,,,,,,,,,,,,,,,,,,,,,,,,,,
235396,001,2022-11-21_01h59.08.436,Info_measure_main_exp,2022.2.2,Win32,61.09108681,,,,,,,,,,,,,,,,,,masks/mask_002.jpg,,,,,,,,,,,,,,,,,,,,,,,,,,,,,,,,,,,,,,,,,,,,,,,,0,0,0,1,1,,,,,,,,,,,,,,,,,,,,,,,,,,,,,,,,,,,,,,,,,
235396,001,2022-11-21_01h59.08.436,Info_measure_main_exp,2022.2.2,Win32,61.09108681,,,,,,,,,,,,,,,,,,masks/mask_003.jpg,,,,,,,,,,,,,,,,,,,,,,,,,,,,,,,,,,,,,,,,,,,,,,,,0,1,1,2,1,,,,,,,,,,,,,,,,,,,,,,,,,,,,,,,,,,,,,,,,,
235396,001,2022-11-21_01h59.08.436,Info_measure_main_exp,2022.2.2,Win32,61.09108681,,,,,,,,,,,,,,,,,,masks/mask_004.jpg,,,,,,,,,,,,,,,,,,,,,,,,,,,,,,,,,,,,,,,,,,,,,,,,0,2,2,3,1,,,,,,,,,,,,,,,,,,,,,,,,,,,,,,,,,,,,,,,,,
235396,001,2022-11-21_01h59.08.436,Info_measure_main_exp,2022.2.2,Win32,61.09108681,,,,,,,,,,,,,,,,,,masks/mask_001.jpg,,,,,,,,,,,,,,,,,,,,,,,,,,,,,,,,,,,,,,,,,,,,,,,,0,3,3,0,1,,,,,,,,,,,,,,,,,,,,,,,,,,,,,,,,,,,,,,,,,
235396,001,2022-11-21_01h59.08.436,Info_measure_main_exp,2022.2.2,Win32,61.09108681,,,,,,,,,,,,,,,,,,masks/mask_005.jpg,,,,,,,,,,,,,,,,,,,,,,,,,,,,,,,,,,,,,,,,,,,,,,,,0,4,4,4,1,,,,,,,,,,,,,,,,,,,,,,,,,,,,,,,,,,,,,,,,,
235396,001,2022-11-21_01h59.08.436,Info_measure_main_exp,2022.2.2,Win32,61.09108681,,,,,,,,,,,,,,,,,,,,,,,,,,,,,,7,1.9516,1,,,,,,,,,,,,0,131,5,5,2154,1974,absent_patch/patch0002154.jpg,absent_patch/patch0001974.jpg,,,,,,,,,,,,,,,,,,,,0.037760417,0.1015625,1,0,0,response1disk,34,0.00390625,-0.002604167,1,0,0,center_square,0,33,33,82,1,,,,,,,,,,,,,,,,,,,,,,,
235396,001,2022-11-21_01h59.08.436,Info_measure_main_exp,2022.2.2,Win32,61.09108681,,,,,,,,,,,,,,,,,,masks/mask_002.jpg,,,,,,,,,,,,,,,,,,,,,,,,,,,,,,,,,,,,,,,,,,,0,0,0,1,1,,,,,,,,,,,,,,,,,,,,,,,,,,,,,,,,,,,,,,,,,,,,,,
235396,001,2022-11-21_01h59.08.436,Info_measure_main_exp,2022.2.2,Win32,61.09108681,,,,,,,,,,,,,,,,,,masks/mask_005.jpg,,,,,,,,,,,,,,,,,,,,,,,,,,,,,,,,,,,,,,,,,,,0,1,1,4,1,,,,,,,,,,,,,,,,,,,,,,,,,,,,,,,,,,,,,,,,,,,,,,
235396,001,2022-11-21_01h59.08.436,Info_measure_main_exp,2022.2.2,Win32,61.09108681,,,,,,,,,,,,,,,,,,masks/mask_004.jpg,,,,,,,,,,,,,,,,,,,,,,,,,,,,,,,,,,,,,,,,,,,0,2,2,3,1,,,,,,,,,,,,,,,,,,,,,,,,,,,,,,,,,,,,,,,,,,,,,,
235396,001,2022-11-21_01h59.08.436,Info_measure_main_exp,2022.2.2,Win32,61.09108681,,,,,,,,,,,,,,,,,,masks/mask_001.jpg,,,,,,,,,,,,,,,,,,,,,,,,,,,,,,,,,,,,,,,,,,,0,3,3,0,1,,,,,,,,,,,,,,,,,,,,,,,,,,,,,,,,,,,,,,,,,,,,,,
235396,001,2022-11-21_01h59.08.436,Info_measure_main_exp,2022.2.2,Win32,61.09108681,,,,,,,,,,,,,,,,,,masks/mask_003.jpg,,,,,,,,,,,,,,,,,,,,,,,,,,,,,,,,,,,,,,,,,,,0,4,4,2,1,,,,,,,,,,,,,,,,,,,,,,,,,,,,,,,,,,,,,,,,,,,,,,
235396,001,2022-11-21_01h59.08.436,Info_measure_main_exp,2022.2.2,Win32,61.09108681,,,,,,,,,,,,,,,,,,masks/mask_001.jpg,,,,,,,,,,,,,,,,,,,,,,,,,,,,,,,,,,,,,,,,,,,,,,,,0,0,0,0,1,,,,,,,,,,,,,,,,,,,,,,,,,,,,,,,,,,,,,,,,,
235396,001,2022-11-21_01h59.08.436,Info_measure_main_exp,2022.2.2,Win32,61.09108681,,,,,,,,,,,,,,,,,,masks/mask_003.jpg,,,,,,,,,,,,,,,,,,,,,,,,,,,,,,,,,,,,,,,,,,,,,,,,0,1,1,2,1,,,,,,,,,,,,,,,,,,,,,,,,,,,,,,,,,,,,,,,,,
235396,001,2022-11-21_01h59.08.436,Info_measure_main_exp,2022.2.2,Win32,61.09108681,,,,,,,,,,,,,,,,,,masks/mask_002.jpg,,,,,,,,,,,,,,,,,,,,,,,,,,,,,,,,,,,,,,,,,,,,,,,,0,2,2,1,1,,,,,,,,,,,,,,,,,,,,,,,,,,,,,,,,,,,,,,,,,
235396,001,2022-11-21_01h59.08.436,Info_measure_main_exp,2022.2.2,Win32,61.09108681,,,,,,,,,,,,,,,,,,masks/mask_004.jpg,,,,,,,,,,,,,,,,,,,,,,,,,,,,,,,,,,,,,,,,,,,,,,,,0,3,3,3,1,,,,,,,,,,,,,,,,,,,,,,,,,,,,,,,,,,,,,,,,,
