participant,session,date,expName,psychopyVersion,OS,frameRate,space_press_continue.keys,space_press_continue.rt,space_press_continue_2.keys,space_press_continue_2.rt,space_press_continue_3.keys,space_press_continue_3.rt,space_press_continue_4.keys,space_press_continue_4.rt,space_press_continue_5.keys,space_press_continue_5.rt,space_press_continue_6.keys,space_press_continue_6.rt,prac_mask_loop_1.thisRepN,prac_mask_loop_1.thisTrialN,prac_mask_loop_1.thisN,prac_mask_loop_1.thisIndex,prac_mask_loop_1.ran,mask_name,prac_mask_loop_2.thisRepN,prac_mask_loop_2.thisTrialN,prac_mask_loop_2.thisN,prac_mask_loop_2.thisIndex,prac_mask_loop_2.ran,mouse_2.x,mouse_2.y,mouse_2.leftButton,mouse_2.midButton,mouse_2.rightButton,mouse_2.clicked_name,similarity,response_time,Pass,mouse_12.x,mouse_12.y,mouse_12.leftButton,mouse_12.midButton,mouse_12.rightButton,mouse_12.clicked_name,prac_loop.thisRepN,prac_loop.thisTrialN,prac_loop.thisN,prac_loop.thisIndex,prac_loop.ran,Pair_type,Image_num,Patch_1_loc,Patch_2_loc,Patch_1_info,Patch_2_info,Patch_1_name,Patch_2_name,mouse_1.x,mouse_1.y,mouse_1.leftButton,mouse_1.midButton,mouse_1.rightButton,mouse_1.time,mouse_1.clicked_name,space_press_continue_7.keys,space_press_continue_7.rt,mask_loop.thisRepN,mask_loop.thisTrialN,mask_loop.thisN,mask_loop.thisIndex,mask_loop.ran,mask_loop_2.thisRepN,mask_loop_2.thisTrialN,mask_loop_2.thisN,mask_loop_2.thisIndex,mask_loop_2.ran,mouse.x,mouse.y,mouse.leftButton,mouse.midButton,mouse.rightButton,mouse.clicked_name,trialNumber,mouse_11.x,mouse_11.y,mouse_11.leftButton,mouse_11.midButton,mouse_11.rightButton,mouse_11.clicked_name,first_pass_loop.thisRepN,first_pass_loop.thisTrialN,first_pass_loop.thisN,first_pass_loop.thisIndex,first_pass_loop.ran,mask_loop_3.thisRepN,mask_loop_3.thisTrialN,mask_loop_3.thisN,mask_loop_3.thisIndex,mask_loop_3.ran,mask_loop_4.thisRepN,mask_loop_4.thisTrialN,mask_loop_4.thisN,mask_loop_4.thisIndex,mask_loop_4.ran,mouse_3.x,mouse_3.y,mouse_3.leftButton,mouse_3.midButton,mouse_3.rightButton,mouse_3.clicked_name,double_pass_loop.thisRepN,double_pass_loop.thisTrialN,double_pass_loop.thisN,double_pass_loop.thisIndex,double_pass_loop.ran,space_exit.keys,space_exit.rt
244118,001,2022-11-21_01h09.11.654,Info_measure_main_exp,2022.2.2,MacIntel,59.99880002,,,,,,,,,,,,,,,,,,,,,,,,,,,,,,,,,,,,,,,,,,,,,,,,,,,,,,,,,,,,,,,,,,,,,,,,,,,,,,,,,,,,,,,,,,,,,,,,,,,,,,,,,,,,,,,
244118,001,2022-11-21_01h09.11.654,Info_measure_main_exp,2022.2.2,MacIntel,59.99880002,,,,,,,,,,,,,,,,,,,,,,,,,,,,,,,,,,,,,,,,,,,,,,,,,,,,,,,,,,,,,,,,,,,,,,,,,,,,,,,,,,,,,,,,,,,,,,,,,,,,,,,,,,,,,,,
244118,001,2022-11-21_01h09.11.654,Info_measure_main_exp,2022.2.2,MacIntel,59.99880002,space,7.6694,,,,,,,,,,,,,,,,,,,,,,,,,,,,,,,,,,,,,,,,,,,,,,,,,,,,,,,,,,,,,,,,,,,,,,,,,,,,,,,,,,,,,,,,,,,,,,,,,,,,,,,,,,,,,
244118,001,2022-11-21_01h09.11.654,Info_measure_main_exp,2022.2.2,MacIntel,59.99880002,,,space,14.5572,,,,,,,,,,,,,,,,,,,,,,,,,,,,,,,,,,,,,,,,,,,,,,,,,,,,,,,,,,,,,,,,,,,,,,,,,,,,,,,,,,,,,,,,,,,,,,,,,,,,,,,,,,,
244118,001,2022-11-21_01h09.11.654,Info_measure_main_exp,2022.2.2,MacIntel,59.99880002,,,,,space,9.5851,,,,,,,,,,,,,,,,,,,,,,,,,,,,,,,,,,,,,,,,,,,,,,,,,,,,,,,,,,,,,,,,,,,,,,,,,,,,,,,,,,,,,,,,,,,,,,,,,,,,,,,,,
244118,001,2022-11-21_01h09.11.654,Info_measure_main_exp,2022.2.2,MacIntel,59.99880002,,,,,,,space,72.5825,,,,,,,,,,,,,,,,,,,,,,,,,,,,,,,,,,,,,,,,,,,,,,,,,,,,,,,,,,,,,,,,,,,,,,,,,,,,,,,,,,,,,,,,,,,,,,,,,,,,,,,
244118,001,2022-11-21_01h09.11.654,Info_measure_main_exp,2022.2.2,MacIntel,59.99880002,,,,,,,,,space,12.039,,,,,,,,,,,,,,,,,,,,,,,,,,,,,,,,,,,,,,,,,,,,,,,,,,,,,,,,,,,,,,,,,,,,,,,,,,,,,,,,,,,,,,,,,,,,,,,,,,,,,
244118,001,2022-11-21_01h09.11.654,Info_measure_main_exp,2022.2.2,MacIntel,59.99880002,,,,,,,,,,,space,60.1881,,,,,,,,,,,,,,,,,,,,,,,,,,,,,,,,,,,,,,,,,,,,,,,,,,,,,,,,,,,,,,,,,,,,,,,,,,,,,,,,,,,,,,,,,,,,,,,,,,,
244118,001,2022-11-21_01h09.11.654,Info_measure_main_exp,2022.2.2,MacIntel,59.99880002,,,,,,,,,,,,,0,0,0,3,1,masks/mask_004.jpg,,,,,,,,,,,,,,,,,,,,,,,,,,,,,,,,,,,,,,,,,,,,,,,,,,,,,,,,,,,,,,,,,,,,,,,,,,,,,,,,,,,,,,,,,,,,,
244118,001,2022-11-21_01h09.11.654,Info_measure_main_exp,2022.2.2,MacIntel,59.99880002,,,,,,,,,,,,,0,1,1,1,1,masks/mask_002.jpg,,,,,,,,,,,,,,,,,,,,,,,,,,,,,,,,,,,,,,,,,,,,,,,,,,,,,,,,,,,,,,,,,,,,,,,,,,,,,,,,,,,,,,,,,,,,,
244118,001,2022-11-21_01h09.11.654,Info_measure_main_exp,2022.2.2,MacIntel,59.99880002,,,,,,,,,,,,,0,2,2,0,1,masks/mask_001.jpg,,,,,,,,,,,,,,,,,,,,,,,,,,,,,,,,,,,,,,,,,,,,,,,,,,,,,,,,,,,,,,,,,,,,,,,,,,,,,,,,,,,,,,,,,,,,,
244118,001,2022-11-21_01h09.11.654,Info_measure_main_exp,2022.2.2,MacIntel,59.99880002,,,,,,,,,,,,,0,3,3,4,1,masks/mask_005.jpg,,,,,,,,,,,,,,,,,,,,,,,,,,,,,,,,,,,,,,,,,,,,,,,,,,,,,,,,,,,,,,,,,,,,,,,,,,,,,,,,,,,,,,,,,,,,,
244118,001,2022-11-21_01h09.11.654,Info_measure_main_exp,2022.2.2,MacIntel,59.99880002,,,,,,,,,,,,,0,4,4,2,1,masks/mask_003.jpg,,,,,,,,,,,,,,,,,,,,,,,,,,,,,,,,,,,,,,,,,,,,,,,,,,,,,,,,,,,,,,,,,,,,,,,,,,,,,,,,,,,,,,,,,,,,,
244118,001,2022-11-21_01h09.11.654,Info_measure_main_exp,2022.2.2,MacIntel,59.99880002,,,,,,,,,,,,,,,,,,masks/mask_004.jpg,0,0,0,3,1,,,,,,,,,,,,,,,,,,,,,,,,,,,,,,,,,,,,,,,,,,,,,,,,,,,,,,,,,,,,,,,,,,,,,,,,,,,,,,,,,,,,,,,,
244118,001,2022-11-21_01h09.11.654,Info_measure_main_exp,2022.2.2,MacIntel,59.99880002,,,,,,,,,,,,,,,,,,masks/mask_003.jpg,0,1,1,2,1,,,,,,,,,,,,,,,,,,,,,,,,,,,,,,,,,,,,,,,,,,,,,,,,,,,,,,,,,,,,,,,,,,,,,,,,,,,,,,,,,,,,,,,,
244118,001,2022-11-21_01h09.11.654,Info_measure_main_exp,2022.2.2,MacIntel,59.99880002,,,,,,,,,,,,,,,,,,masks/mask_001.jpg,0,2,2,0,1,,,,,,,,,,,,,,,,,,,,,,,,,,,,,,,,,,,,,,,,,,,,,,,,,,,,,,,,,,,,,,,,,,,,,,,,,,,,,,,,,,,,,,,,
244118,001,2022-11-21_01h09.11.654,Info_measure_main_exp,2022.2.2,MacIntel,59.99880002,,,,,,,,,,,,,,,,,,masks/mask_005.jpg,0,3,3,4,1,,,,,,,,,,,,,,,,,,,,,,,,,,,,,,,,,,,,,,,,,,,,,,,,,,,,,,,,,,,,,,,,,,,,,,,,,,,,,,,,,,,,,,,,
244118,001,2022-11-21_01h09.11.654,Info_measure_main_exp,2022.2.2,MacIntel,59.99880002,,,,,,,,,,,,,,,,,,masks/mask_002.jpg,0,4,4,1,1,,,,,,,,,,,,,,,,,,,,,,,,,,,,,,,,,,,,,,,,,,,,,,,,,,,,,,,,,,,,,,,,,,,,,,,,,,,,,,,,,,,,,,,,
244118,001,2022-11-21_01h09.11.654,Info_measure_main_exp,2022.2.2,MacIntel,59.99880002,,,,,,,,,,,,,,,,,,,,,,,,-0.051018134,0.1272543,1,0,0,response7disk,0,182.8273,1,0.002224596,-0.000193685,1,0,0,center_square,0,0,0,2,1,0,131,5,5,2526,2526,prac_patch/patch0002526.jpg,prac_patch/patch0002526.jpg,,,,,,,,,,,,,,,,,,,,,,,,,,,,,,,,,,,,,,,,,,,,,,,,,,,,,,,,,,,,
244118,001,2022-11-21_01h09.11.654,Info_measure_main_exp,2022.2.2,MacIntel,59.99880002,,,,,,,,,,,,,0,0,0,4,1,masks/mask_005.jpg,,,,,,,,,,,,,,,,,,,,,,,,,,,,,,,,,,,,,,,,,,,,,,,,,,,,,,,,,,,,,,,,,,,,,,,,,,,,,,,,,,,,,,,,,,,,,
244118,001,2022-11-21_01h09.11.654,Info_measure_main_exp,2022.2.2,MacIntel,59.99880002,,,,,,,,,,,,,0,1,1,3,1,masks/mask_004.jpg,,,,,,,,,,,,,,,,,,,,,,,,,,,,,,,,,,,,,,,,,,,,,,,,,,,,,,,,,,,,,,,,,,,,,,,,,,,,,,,,,,,,,,,,,,,,,
244118,001,2022-11-21_01h09.11.654,Info_measure_main_exp,2022.2.2,MacIntel,59.99880002,,,,,,,,,,,,,0,2,2,1,1,masks/mask_002.jpg,,,,,,,,,,,,,,,,,,,,,,,,,,,,,,,,,,,,,,,,,,,,,,,,,,,,,,,,,,,,,,,,,,,,,,,,,,,,,,,,,,,,,,,,,,,,,
244118,001,2022-11-21_01h09.11.654,Info_measure_main_exp,2022.2.2,MacIntel,59.99880002,,,,,,,,,,,,,0,3,3,0,1,masks/mask_001.jpg,,,,,,,,,,,,,,,,,,,,,,,,,,,,,,,,,,,,,,,,,,,,,,,,,,,,,,,,,,,,,,,,,,,,,,,,,,,,,,,,,,,,,,,,,,,,,
244118,001,2022-11-21_01h09.11.654,Info_measure_main_exp,2022.2.2,MacIntel,59.99880002,,,,,,,,,,,,,0,4,4,2,1,masks/mask_003.jpg,,,,,,,,,,,,,,,,,,,,,,,,,,,,,,,,,,,,,,,,,,,,,,,,,,,,,,,,,,,,,,,,,,,,,,,,,,,,,,,,,,,,,,,,,,,,,
244118,001,2022-11-21_01h09.11.654,Info_measure_main_exp,2022.2.2,MacIntel,59.99880002,,,,,,,,,,,,,,,,,,masks/mask_005.jpg,0,0,0,4,1,,,,,,,,,,,,,,,,,,,,,,,,,,,,,,,,,,,,,,,,,,,,,,,,,,,,,,,,,,,,,,,,,,,,,,,,,,,,,,,,,,,,,,,,
244118,001,2022-11-21_01h09.11.654,Info_measure_main_exp,2022.2.2,MacIntel,59.99880002,,,,,,,,,,,,,,,,,,masks/mask_004.jpg,0,1,1,3,1,,,,,,,,,,,,,,,,,,,,,,,,,,,,,,,,,,,,,,,,,,,,,,,,,,,,,,,,,,,,,,,,,,,,,,,,,,,,,,,,,,,,,,,,
244118,001,2022-11-21_01h09.11.654,Info_measure_main_exp,2022.2.2,MacIntel,59.99880002,,,,,,,,,,,,,,,,,,masks/mask_001.jpg,0,2,2,0,1,,,,,,,,,,,,,,,,,,,,,,,,,,,,,,,,,,,,,,,,,,,,,,,,,,,,,,,,,,,,,,,,,,,,,,,,,,,,,,,,,,,,,,,,
244118,001,2022-11-21_01h09.11.654,Info_measure_main_exp,2022.2.2,MacIntel,59.99880002,,,,,,,,,,,,,,,,,,masks/mask_003.jpg,0,3,3,2,1,,,,,,,,,,,,,,,,,,,,,,,,,,,,,,,,,,,,,,,,,,,,,,,,,,,,,,,,,,,,,,,,,,,,,,,,,,,,,,,,,,,,,,,,
244118,001,2022-11-21_01h09.11.654,Info_measure_main_exp,2022.2.2,MacIntel,59.99880002,,,,,,,,,,,,,,,,,,masks/mask_002.jpg,0,4,4,1,1,,,,,,,,,,,,,,,,,,,,,,,,,,,,,,,,,,,,,,,,,,,,,,,,,,,,,,,,,,,,,,,,,,,,,,,,,,,,,,,,,,,,,,,,
244118,001,2022-11-21_01h09.11.654,Info_measure_main_exp,2022.2.2,MacIntel,59.99880002,,,,,,,,,,,,,,,,,,,,,,,,0.134248928,-0.054327257,1,0,0,response3disk,5,195.5514,1,-0.003197225,-0.0042728,1,0,0,center_square,0,1,1,1,1,0,131,5,5,2514,2490,prac_patch/patch0002514.jpg,prac_patch/patch0002490.jpg,,,,,,,,,,,,,,,,,,,,,,,,,,,,,,,,,,,,,,,,,,,,,,,,,,,,,,,,,,,,
244118,001,2022-11-21_01h09.11.654,Info_measure_main_exp,2022.2.2,MacIntel,59.99880002,,,,,,,,,,,,,0,0,0,1,1,masks/mask_002.jpg,,,,,,,,,,,,,,,,,,,,,,,,,,,,,,,,,,,,,,,,,,,,,,,,,,,,,,,,,,,,,,,,,,,,,,,,,,,,,,,,,,,,,,,,,,,,,
244118,001,2022-11-21_01h09.11.654,Info_measure_main_exp,2022.2.2,MacIntel,59.99880002,,,,,,,,,,,,,0,1,1,0,1,masks/mask_001.jpg,,,,,,,,,,,,,,,,,,,,,,,,,,,,,,,,,,,,,,,,,,,,,,,,,,,,,,,,,,,,,,,,,,,,,,,,,,,,,,,,,,,,,,,,,,,,,
244118,001,2022-11-21_01h09.11.654,Info_measure_main_exp,2022.2.2,MacIntel,59.99880002,,,,,,,,,,,,,0,2,2,3,1,masks/mask_004.jpg,,,,,,,,,,,,,,,,,,,,,,,,,,,,,,,,,,,,,,,,,,,,,,,,,,,,,,,,,,,,,,,,,,,,,,,,,,,,,,,,,,,,,,,,,,,,,
244118,001,2022-11-21_01h09.11.654,Info_measure_main_exp,2022.2.2,MacIntel,59.99880002,,,,,,,,,,,,,0,3,3,2,1,masks/mask_003.jpg,,,,,,,,,,,,,,,,,,,,,,,,,,,,,,,,,,,,,,,,,,,,,,,,,,,,,,,,,,,,,,,,,,,,,,,,,,,,,,,,,,,,,,,,,,,,,
244118,001,2022-11-21_01h09.11.654,Info_measure_main_exp,2022.2.2,MacIntel,59.99880002,,,,,,,,,,,,,0,4,4,4,1,masks/mask_005.jpg,,,,,,,,,,,,,,,,,,,,,,,,,,,,,,,,,,,,,,,,,,,,,,,,,,,,,,,,,,,,,,,,,,,,,,,,,,,,,,,,,,,,,,,,,,,,,
244118,001,2022-11-21_01h09.11.654,Info_measure_main_exp,2022.2.2,MacIntel,59.99880002,,,,,,,,,,,,,,,,,,masks/mask_001.jpg,0,0,0,0,1,,,,,,,,,,,,,,,,,,,,,,,,,,,,,,,,,,,,,,,,,,,,,,,,,,,,,,,,,,,,,,,,,,,,,,,,,,,,,,,,,,,,,,,,
244118,001,2022-11-21_01h09.11.654,Info_measure_main_exp,2022.2.2,MacIntel,59.99880002,,,,,,,,,,,,,,,,,,masks/mask_004.jpg,0,1,1,3,1,,,,,,,,,,,,,,,,,,,,,,,,,,,,,,,,,,,,,,,,,,,,,,,,,,,,,,,,,,,,,,,,,,,,,,,,,,,,,,,,,,,,,,,,
244118,001,2022-11-21_01h09.11.654,Info_measure_main_exp,2022.2.2,MacIntel,59.99880002,,,,,,,,,,,,,,,,,,masks/mask_002.jpg,0,2,2,1,1,,,,,,,,,,,,,,,,,,,,,,,,,,,,,,,,,,,,,,,,,,,,,,,,,,,,,,,,,,,,,,,,,,,,,,,,,,,,,,,,,,,,,,,,
244118,001,2022-11-21_01h09.11.654,Info_measure_main_exp,2022.2.2,MacIntel,59.99880002,,,,,,,,,,,,,,,,,,masks/mask_003.jpg,0,3,3,2,1,,,,,,,,,,,,,,,,,,,,,,,,,,,,,,,,,,,,,,,,,,,,,,,,,,,,,,,,,,,,,,,,,,,,,,,,,,,,,,,,,,,,,,,,
244118,001,2022-11-21_01h09.11.654,Info_measure_main_exp,2022.2.2,MacIntel,59.99880002,,,,,,,,,,,,,,,,,,masks/mask_005.jpg,0,4,4,4,1,,,,,,,,,,,,,,,,,,,,,,,,,,,,,,,,,,,,,,,,,,,,,,,,,,,,,,,,,,,,,,,,,,,,,,,,,,,,,,,,,,,,,,,,
244118,001,2022-11-21_01h09.11.654,Info_measure_main_exp,2022.2.2,MacIntel,59.99880002,,,,,,,,,,,,,,,,,,,,,,,,0.086242744,0.151844313,1,0,0,response1disk,7,205.9686,1,0.001142849,-0.004368557,1,0,0,center_square,0,2,2,0,1,0,131,5,5,2370,2406,prac_patch/patch0002370.jpg,prac_patch/patch0002406.jpg,,,,,,,,,,,,,,,,,,,,,,,,,,,,,,,,,,,,,,,,,,,,,,,,,,,,,,,,,,,,
244118,001,2022-11-21_01h09.11.654,Info_measure_main_exp,2022.2.2,MacIntel,59.99880002,,,,,,,,,,,,,,,,,,,,,,,,,,,,,,,,,,,,,,,,,,,,,,,,,,,,,,,,,,,space,84.4913,,,,,,,,,,,,,,,,,,,,,,,,,,,,,,,,,,,,,,,,,,,,,,,,,,,
244118,001,2022-11-21_01h09.11.654,Info_measure_main_exp,2022.2.2,MacIntel,59.99880002,,,,,,,,,,,,,,,,,,masks/mask_003.jpg,,,,,,,,,,,,,,,,,,,,,,,,,,,,,,,,,,,,,,,,,,,0,0,0,2,1,,,,,,,,,,,,,,,,,,,,,,,,,,,,,,,,,,,,,,,,,,,,,,
244118,001,2022-11-21_01h09.11.654,Info_measure_main_exp,2022.2.2,MacIntel,59.99880002,,,,,,,,,,,,,,,,,,masks/mask_001.jpg,,,,,,,,,,,,,,,,,,,,,,,,,,,,,,,,,,,,,,,,,,,0,1,1,0,1,,,,,,,,,,,,,,,,,,,,,,,,,,,,,,,,,,,,,,,,,,,,,,
244118,001,2022-11-21_01h09.11.654,Info_measure_main_exp,2022.2.2,MacIntel,59.99880002,,,,,,,,,,,,,,,,,,masks/mask_005.jpg,,,,,,,,,,,,,,,,,,,,,,,,,,,,,,,,,,,,,,,,,,,0,2,2,4,1,,,,,,,,,,,,,,,,,,,,,,,,,,,,,,,,,,,,,,,,,,,,,,
244118,001,2022-11-21_01h09.11.654,Info_measure_main_exp,2022.2.2,MacIntel,59.99880002,,,,,,,,,,,,,,,,,,masks/mask_004.jpg,,,,,,,,,,,,,,,,,,,,,,,,,,,,,,,,,,,,,,,,,,,0,3,3,3,1,,,,,,,,,,,,,,,,,,,,,,,,,,,,,,,,,,,,,,,,,,,,,,
244118,001,2022-11-21_01h09.11.654,Info_measure_main_exp,2022.2.2,MacIntel,59.99880002,,,,,,,,,,,,,,,,,,masks/mask_002.jpg,,,,,,,,,,,,,,,,,,,,,,,,,,,,,,,,,,,,,,,,,,,0,4,4,1,1,,,,,,,,,,,,,,,,,,,,,,,,,,,,,,,,,,,,,,,,,,,,,,
244118,001,2022-11-21_01h09.11.654,Info_measure_main_exp,2022.2.2,MacIntel,59.99880002,,,,,,,,,,,,,,,,,,masks/mask_004.jpg,,,,,,,,,,,,,,,,,,,,,,,,,,,,,,,,,,,,,,,,,,,,,,,,0,0,0,3,1,,,,,,,,,,,,,,,,,,,,,,,,,,,,,,,,,,,,,,,,,
244118,001,2022-11-21_01h09.11.654,Info_measure_main_exp,2022.2.2,MacIntel,59.99880002,,,,,,,,,,,,,,,,,,masks/mask_001.jpg,,,,,,,,,,,,,,,,,,,,,,,,,,,,,,,,,,,,,,,,,,,,,,,,0,1,1,0,1,,,,,,,,,,,,,,,,,,,,,,,,,,,,,,,,,,,,,,,,,
244118,001,2022-11-21_01h09.11.654,Info_measure_main_exp,2022.2.2,MacIntel,59.99880002,,,,,,,,,,,,,,,,,,masks/mask_003.jpg,,,,,,,,,,,,,,,,,,,,,,,,,,,,,,,,,,,,,,,,,,,,,,,,0,2,2,2,1,,,,,,,,,,,,,,,,,,,,,,,,,,,,,,,,,,,,,,,,,
244118,001,2022-11-21_01h09.11.654,Info_measure_main_exp,2022.2.2,MacIntel,59.99880002,,,,,,,,,,,,,,,,,,masks/mask_002.jpg,,,,,,,,,,,,,,,,,,,,,,,,,,,,,,,,,,,,,,,,,,,,,,,,0,3,3,1,1,,,,,,,,,,,,,,,,,,,,,,,,,,,,,,,,,,,,,,,,,
244118,001,2022-11-21_01h09.11.654,Info_measure_main_exp,2022.2.2,MacIntel,59.99880002,,,,,,,,,,,,,,,,,,masks/mask_005.jpg,,,,,,,,,,,,,,,,,,,,,,,,,,,,,,,,,,,,,,,,,,,,,,,,0,4,4,4,1,,,,,,,,,,,,,,,,,,,,,,,,,,,,,,,,,,,,,,,,,
244118,001,2022-11-21_01h09.11.654,Info_measure_main_exp,2022.2.2,MacIntel,59.99880002,,,,,,,,,,,,,,,,,,,,,,,,,,,,,,0,2.6514,1,,,,,,,,,,,,0,131,5,5,2190,2190,absent_patch/patch0002190.jpg,absent_patch/patch0002190.jpg,,,,,,,,,,,,,,,,,,,,-0.051355862,0.167124939,1,0,0,response7disk,1,-0.001570638,-0.006596069,1,0,0,center_square,0,0,0,86,1,,,,,,,,,,,,,,,,,,,,,,,
244118,001,2022-11-21_01h09.11.654,Info_measure_main_exp,2022.2.2,MacIntel,59.99880002,,,,,,,,,,,,,,,,,,masks/mask_005.jpg,,,,,,,,,,,,,,,,,,,,,,,,,,,,,,,,,,,,,,,,,,,0,0,0,4,1,,,,,,,,,,,,,,,,,,,,,,,,,,,,,,,,,,,,,,,,,,,,,,
244118,001,2022-11-21_01h09.11.654,Info_measure_main_exp,2022.2.2,MacIntel,59.99880002,,,,,,,,,,,,,,,,,,masks/mask_003.jpg,,,,,,,,,,,,,,,,,,,,,,,,,,,,,,,,,,,,,,,,,,,0,1,1,2,1,,,,,,,,,,,,,,,,,,,,,,,,,,,,,,,,,,,,,,,,,,,,,,
244118,001,2022-11-21_01h09.11.654,Info_measure_main_exp,2022.2.2,MacIntel,59.99880002,,,,,,,,,,,,,,,,,,masks/mask_004.jpg,,,,,,,,,,,,,,,,,,,,,,,,,,,,,,,,,,,,,,,,,,,0,2,2,3,1,,,,,,,,,,,,,,,,,,,,,,,,,,,,,,,,,,,,,,,,,,,,,,
244118,001,2022-11-21_01h09.11.654,Info_measure_main_exp,2022.2.2,MacIntel,59.99880002,,,,,,,,,,,,,,,,,,masks/mask_002.jpg,,,,,,,,,,,,,,,,,,,,,,,,,,,,,,,,,,,,,,,,,,,0,3,3,1,1,,,,,,,,,,,,,,,,,,,,,,,,,,,,,,,,,,,,,,,,,,,,,,
244118,001,2022-11-21_01h09.11.654,Info_measure_main_exp,2022.2.2,MacIntel,59.99880002,,,,,,,,,,,,,,,,,,masks/mask_001.jpg,,,,,,,,,,,,,,,,,,,,,,,,,,,,,,,,,,,,,,,,,,,0,4,4,0,1,,,,,,,,,,,,,,,,,,,,,,,,,,,,,,,,,,,,,,,,,,,,,,
244118,001,2022-11-21_01h09.11.654,Info_measure_main_exp,2022.2.2,MacIntel,59.99880002,,,,,,,,,,,,,,,,,,masks/mask_001.jpg,,,,,,,,,,,,,,,,,,,,,,,,,,,,,,,,,,,,,,,,,,,,,,,,0,0,0,0,1,,,,,,,,,,,,,,,,,,,,,,,,,,,,,,,,,,,,,,,,,
244118,001,2022-11-21_01h09.11.654,Info_measure_main_exp,2022.2.2,MacIntel,59.99880002,,,,,,,,,,,,,,,,,,masks/mask_005.jpg,,,,,,,,,,,,,,,,,,,,,,,,,,,,,,,,,,,,,,,,,,,,,,,,0,1,1,4,1,,,,,,,,,,,,,,,,,,,,,,,,,,,,,,,,,,,,,,,,,
244118,001,2022-11-21_01h09.11.654,Info_measure_main_exp,2022.2.2,MacIntel,59.99880002,,,,,,,,,,,,,,,,,,masks/mask_003.jpg,,,,,,,,,,,,,,,,,,,,,,,,,,,,,,,,,,,,,,,,,,,,,,,,0,2,2,2,1,,,,,,,,,,,,,,,,,,,,,,,,,,,,,,,,,,,,,,,,,
244118,001,2022-11-21_01h09.11.654,Info_measure_main_exp,2022.2.2,MacIntel,59.99880002,,,,,,,,,,,,,,,,,,masks/mask_004.jpg,,,,,,,,,,,,,,,,,,,,,,,,,,,,,,,,,,,,,,,,,,,,,,,,0,3,3,3,1,,,,,,,,,,,,,,,,,,,,,,,,,,,,,,,,,,,,,,,,,
244118,001,2022-11-21_01h09.11.654,Info_measure_main_exp,2022.2.2,MacIntel,59.99880002,,,,,,,,,,,,,,,,,,masks/mask_002.jpg,,,,,,,,,,,,,,,,,,,,,,,,,,,,,,,,,,,,,,,,,,,,,,,,0,4,4,1,1,,,,,,,,,,,,,,,,,,,,,,,,,,,,,,,,,,,,,,,,,
244118,001,2022-11-21_01h09.11.654,Info_measure_main_exp,2022.2.2,MacIntel,59.99880002,,,,,,,,,,,,,,,,,,,,,,,,,,,,,,7,1.7341,1,,,,,,,,,,,,0,131,5,5,2082,2238,absent_patch/patch0002082.jpg,absent_patch/patch0002238.jpg,,,,,,,,,,,,,,,,,,,,0.104426812,0.140626017,1,0,0,response1disk,2,0.009783325,-0.002704468,1,0,0,center_square,0,1,1,22,1,,,,,,,,,,,,,,,,,,,,,,,
244118,001,2022-11-21_01h09.11.654,Info_measure_main_exp,2022.2.2,MacIntel,59.99880002,,,,,,,,,,,,,,,,,,masks/mask_003.jpg,,,,,,,,,,,,,,,,,,,,,,,,,,,,,,,,,,,,,,,,,,,0,0,0,2,1,,,,,,,,,,,,,,,,,,,,,,,,,,,,,,,,,,,,,,,,,,,,,,
244118,001,2022-11-21_01h09.11.654,Info_measure_main_exp,2022.2.2,MacIntel,59.99880002,,,,,,,,,,,,,,,,,,masks/mask_001.jpg,,,,,,,,,,,,,,,,,,,,,,,,,,,,,,,,,,,,,,,,,,,0,1,1,0,1,,,,,,,,,,,,,,,,,,,,,,,,,,,,,,,,,,,,,,,,,,,,,,
244118,001,2022-11-21_01h09.11.654,Info_measure_main_exp,2022.2.2,MacIntel,59.99880002,,,,,,,,,,,,,,,,,,masks/mask_002.jpg,,,,,,,,,,,,,,,,,,,,,,,,,,,,,,,,,,,,,,,,,,,0,2,2,1,1,,,,,,,,,,,,,,,,,,,,,,,,,,,,,,,,,,,,,,,,,,,,,,
244118,001,2022-11-21_01h09.11.654,Info_measure_main_exp,2022.2.2,MacIntel,59.99880002,,,,,,,,,,,,,,,,,,masks/mask_004.jpg,,,,,,,,,,,,,,,,,,,,,,,,,,,,,,,,,,,,,,,,,,,0,3,3,3,1,,,,,,,,,,,,,,,,,,,,,,,,,,,,,,,,,,,,,,,,,,,,,,
244118,001,2022-11-21_01h09.11.654,Info_measure_main_exp,2022.2.2,MacIntel,59.99880002,,,,,,,,,,,,,,,,,,masks/mask_005.jpg,,,,,,,,,,,,,,,,,,,,,,,,,,,,,,,,,,,,,,,,,,,0,4,4,4,1,,,,,,,,,,,,,,,,,,,,,,,,,,,,,,,,,,,,,,,,,,,,,,
244118,001,2022-11-21_01h09.11.654,Info_measure_main_exp,2022.2.2,MacIntel,59.99880002,,,,,,,,,,,,,,,,,,masks/mask_001.jpg,,,,,,,,,,,,,,,,,,,,,,,,,,,,,,,,,,,,,,,,,,,,,,,,0,0,0,0,1,,,,,,,,,,,,,,,,,,,,,,,,,,,,,,,,,,,,,,,,,
244118,001,2022-11-21_01h09.11.654,Info_measure_main_exp,2022.2.2,MacIntel,59.99880002,,,,,,,,,,,,,,,,,,masks/mask_005.jpg,,,,,,,,,,,,,,,,,,,,,,,,,,,,,,,,,,,,,,,,,,,,,,,,0,1,1,4,1,,,,,,,,,,,,,,,,,,,,,,,,,,,,,,,,,,,,,,,,,
244118,001,2022-11-21_01h09.11.654,Info_measure_main_exp,2022.2.2,MacIntel,59.99880002,,,,,,,,,,,,,,,,,,masks/mask_002.jpg,,,,,,,,,,,,,,,,,,,,,,,,,,,,,,,,,,,,,,,,,,,,,,,,0,2,2,1,1,,,,,,,,,,,,,,,,,,,,,,,,,,,,,,,,,,,,,,,,,
244118,001,2022-11-21_01h09.11.654,Info_measure_main_exp,2022.2.2,MacIntel,59.99880002,,,,,,,,,,,,,,,,,,masks/mask_003.jpg,,,,,,,,,,,,,,,,,,,,,,,,,,,,,,,,,,,,,,,,,,,,,,,,0,3,3,2,1,,,,,,,,,,,,,,,,,,,,,,,,,,,,,,,,,,,,,,,,,
244118,001,2022-11-21_01h09.11.654,Info_measure_main_exp,2022.2.2,MacIntel,59.99880002,,,,,,,,,,,,,,,,,,masks/mask_004.jpg,,,,,,,,,,,,,,,,,,,,,,,,,,,,,,,,,,,,,,,,,,,,,,,,0,4,4,3,1,,,,,,,,,,,,,,,,,,,,,,,,,,,,,,,,,,,,,,,,,
244118,001,2022-11-21_01h09.11.654,Info_measure_main_exp,2022.2.2,MacIntel,59.99880002,,,,,,,,,,,,,,,,,,,,,,,,,,,,,,7,0.8665,1,,,,,,,,,,,,0,131,5,5,2082,1986,absent_patch/patch0002082.jpg,absent_patch/patch0001986.jpg,,,,,,,,,,,,,,,,,,,,0.052818332,0.165243327,1,0,0,response1disk,3,-6.78168E-06,-0.001562364,1,0,0,center_square,0,2,2,94,1,,,,,,,,,,,,,,,,,,,,,,,
244118,001,2022-11-21_01h09.11.654,Info_measure_main_exp,2022.2.2,MacIntel,59.99880002,,,,,,,,,,,,,,,,,,masks/mask_002.jpg,,,,,,,,,,,,,,,,,,,,,,,,,,,,,,,,,,,,,,,,,,,0,0,0,1,1,,,,,,,,,,,,,,,,,,,,,,,,,,,,,,,,,,,,,,,,,,,,,,
244118,001,2022-11-21_01h09.11.654,Info_measure_main_exp,2022.2.2,MacIntel,59.99880002,,,,,,,,,,,,,,,,,,masks/mask_005.jpg,,,,,,,,,,,,,,,,,,,,,,,,,,,,,,,,,,,,,,,,,,,0,1,1,4,1,,,,,,,,,,,,,,,,,,,,,,,,,,,,,,,,,,,,,,,,,,,,,,
244118,001,2022-11-21_01h09.11.654,Info_measure_main_exp,2022.2.2,MacIntel,59.99880002,,,,,,,,,,,,,,,,,,masks/mask_003.jpg,,,,,,,,,,,,,,,,,,,,,,,,,,,,,,,,,,,,,,,,,,,0,2,2,2,1,,,,,,,,,,,,,,,,,,,,,,,,,,,,,,,,,,,,,,,,,,,,,,
244118,001,2022-11-21_01h09.11.654,Info_measure_main_exp,2022.2.2,MacIntel,59.99880002,,,,,,,,,,,,,,,,,,masks/mask_001.jpg,,,,,,,,,,,,,,,,,,,,,,,,,,,,,,,,,,,,,,,,,,,0,3,3,0,1,,,,,,,,,,,,,,,,,,,,,,,,,,,,,,,,,,,,,,,,,,,,,,
244118,001,2022-11-21_01h09.11.654,Info_measure_main_exp,2022.2.2,MacIntel,59.99880002,,,,,,,,,,,,,,,,,,masks/mask_004.jpg,,,,,,,,,,,,,,,,,,,,,,,,,,,,,,,,,,,,,,,,,,,0,4,4,3,1,,,,,,,,,,,,,,,,,,,,,,,,,,,,,,,,,,,,,,,,,,,,,,
244118,001,2022-11-21_01h09.11.654,Info_measure_main_exp,2022.2.2,MacIntel,59.99880002,,,,,,,,,,,,,,,,,,masks/mask_001.jpg,,,,,,,,,,,,,,,,,,,,,,,,,,,,,,,,,,,,,,,,,,,,,,,,0,0,0,0,1,,,,,,,,,,,,,,,,,,,,,,,,,,,,,,,,,,,,,,,,,
244118,001,2022-11-21_01h09.11.654,Info_measure_main_exp,2022.2.2,MacIntel,59.99880002,,,,,,,,,,,,,,,,,,masks/mask_002.jpg,,,,,,,,,,,,,,,,,,,,,,,,,,,,,,,,,,,,,,,,,,,,,,,,0,1,1,1,1,,,,,,,,,,,,,,,,,,,,,,,,,,,,,,,,,,,,,,,,,
244118,001,2022-11-21_01h09.11.654,Info_measure_main_exp,2022.2.2,MacIntel,59.99880002,,,,,,,,,,,,,,,,,,masks/mask_005.jpg,,,,,,,,,,,,,,,,,,,,,,,,,,,,,,,,,,,,,,,,,,,,,,,,0,2,2,4,1,,,,,,,,,,,,,,,,,,,,,,,,,,,,,,,,,,,,,,,,,
244118,001,2022-11-21_01h09.11.654,Info_measure_main_exp,2022.2.2,MacIntel,59.99880002,,,,,,,,,,,,,,,,,,masks/mask_004.jpg,,,,,,,,,,,,,,,,,,,,,,,,,,,,,,,,,,,,,,,,,,,,,,,,0,3,3,3,1,,,,,,,,,,,,,,,,,,,,,,,,,,,,,,,,,,,,,,,,,
244118,001,2022-11-21_01h09.11.654,Info_measure_main_exp,2022.2.2,MacIntel,59.99880002,,,,,,,,,,,,,,,,,,masks/mask_003.jpg,,,,,,,,,,,,,,,,,,,,,,,,,,,,,,,,,,,,,,,,,,,,,,,,0,4,4,2,1,,,,,,,,,,,,,,,,,,,,,,,,,,,,,,,,,,,,,,,,,
244118,001,2022-11-21_01h09.11.654,Info_measure_main_exp,2022.2.2,MacIntel,59.99880002,,,,,,,,,,,,,,,,,,,,,,,,,,,,,,2,3.5321,1,,,,,,,,,,,,0,131,5,5,2082,2082,absent_patch/patch0002082.jpg,absent_patch/patch0002082.jpg,,,,,,,,,,,,,,,,,,,,-0.128559299,-0.05152398,1,0,0,response5disk,4,0.001097276,0.00939487,1,0,0,center_square,0,3,3,74,1,,,,,,,,,,,,,,,,,,,,,,,
244118,001,2022-11-21_01h09.11.654,Info_measure_main_exp,2022.2.2,MacIntel,59.99880002,,,,,,,,,,,,,,,,,,masks/mask_003.jpg,,,,,,,,,,,,,,,,,,,,,,,,,,,,,,,,,,,,,,,,,,,0,0,0,2,1,,,,,,,,,,,,,,,,,,,,,,,,,,,,,,,,,,,,,,,,,,,,,,
244118,001,2022-11-21_01h09.11.654,Info_measure_main_exp,2022.2.2,MacIntel,59.99880002,,,,,,,,,,,,,,,,,,masks/mask_001.jpg,,,,,,,,,,,,,,,,,,,,,,,,,,,,,,,,,,,,,,,,,,,0,1,1,0,1,,,,,,,,,,,,,,,,,,,,,,,,,,,,,,,,,,,,,,,,,,,,,,
244118,001,2022-11-21_01h09.11.654,Info_measure_main_exp,2022.2.2,MacIntel,59.99880002,,,,,,,,,,,,,,,,,,masks/mask_004.jpg,,,,,,,,,,,,,,,,,,,,,,,,,,,,,,,,,,,,,,,,,,,0,2,2,3,1,,,,,,,,,,,,,,,,,,,,,,,,,,,,,,,,,,,,,,,,,,,,,,
244118,001,2022-11-21_01h09.11.654,Info_measure_main_exp,2022.2.2,MacIntel,59.99880002,,,,,,,,,,,,,,,,,,masks/mask_002.jpg,,,,,,,,,,,,,,,,,,,,,,,,,,,,,,,,,,,,,,,,,,,0,3,3,1,1,,,,,,,,,,,,,,,,,,,,,,,,,,,,,,,,,,,,,,,,,,,,,,
244118,001,2022-11-21_01h09.11.654,Info_measure_main_exp,2022.2.2,MacIntel,59.99880002,,,,,,,,,,,,,,,,,,masks/mask_005.jpg,,,,,,,,,,,,,,,,,,,,,,,,,,,,,,,,,,,,,,,,,,,0,4,4,4,1,,,,,,,,,,,,,,,,,,,,,,,,,,,,,,,,,,,,,,,,,,,,,,
244118,001,2022-11-21_01h09.11.654,Info_measure_main_exp,2022.2.2,MacIntel,59.99880002,,,,,,,,,,,,,,,,,,masks/mask_003.jpg,,,,,,,,,,,,,,,,,,,,,,,,,,,,,,,,,,,,,,,,,,,,,,,,0,0,0,2,1,,,,,,,,,,,,,,,,,,,,,,,,,,,,,,,,,,,,,,,,,
244118,001,2022-11-21_01h09.11.654,Info_measure_main_exp,2022.2.2,MacIntel,59.99880002,,,,,,,,,,,,,,,,,,masks/mask_002.jpg,,,,,,,,,,,,,,,,,,,,,,,,,,,,,,,,,,,,,,,,,,,,,,,,0,1,1,1,1,,,,,,,,,,,,,,,,,,,,,,,,,,,,,,,,,,,,,,,,,
244118,001,2022-11-21_01h09.11.654,Info_measure_main_exp,2022.2.2,MacIntel,59.99880002,,,,,,,,,,,,,,,,,,masks/mask_005.jpg,,,,,,,,,,,,,,,,,,,,,,,,,,,,,,,,,,,,,,,,,,,,,,,,0,2,2,4,1,,,,,,,,,,,,,,,,,,,,,,,,,,,,,,,,,,,,,,,,,
244118,001,2022-11-21_01h09.11.654,Info_measure_main_exp,2022.2.2,MacIntel,59.99880002,,,,,,,,,,,,,,,,,,masks/mask_001.jpg,,,,,,,,,,,,,,,,,,,,,,,,,,,,,,,,,,,,,,,,,,,,,,,,0,3,3,0,1,,,,,,,,,,,,,,,,,,,,,,,,,,,,,,,,,,,,,,,,,
244118,001,2022-11-21_01h09.11.654,Info_measure_main_exp,2022.2.2,MacIntel,59.99880002,,,,,,,,,,,,,,,,,,masks/mask_004.jpg,,,,,,,,,,,,,,,,,,,,,,,,,,,,,,,,,,,,,,,,,,,,,,,,0,4,4,3,1,,,,,,,,,,,,,,,,,,,,,,,,,,,,,,,,,,,,,,,,,
244118,001,2022-11-21_01h09.11.654,Info_measure_main_exp,2022.2.2,MacIntel,59.99880002,,,,,,,,,,,,,,,,,,,,,,,,,,,,,,0,1.5986,1,,,,,,,,,,,,0,131,5,5,2238,2238,absent_patch/patch0002238.jpg,absent_patch/patch0002238.jpg,,,,,,,,,,,,,,,,,,,,-0.057327135,0.130492961,1,0,0,response7disk,5,-0.005940009,0.002398071,1,0,0,center_square,0,4,4,58,1,,,,,,,,,,,,,,,,,,,,,,,
244118,001,2022-11-21_01h09.11.654,Info_measure_main_exp,2022.2.2,MacIntel,59.99880002,,,,,,,,,,,,,,,,,,masks/mask_004.jpg,,,,,,,,,,,,,,,,,,,,,,,,,,,,,,,,,,,,,,,,,,,0,0,0,3,1,,,,,,,,,,,,,,,,,,,,,,,,,,,,,,,,,,,,,,,,,,,,,,
244118,001,2022-11-21_01h09.11.654,Info_measure_main_exp,2022.2.2,MacIntel,59.99880002,,,,,,,,,,,,,,,,,,masks/mask_001.jpg,,,,,,,,,,,,,,,,,,,,,,,,,,,,,,,,,,,,,,,,,,,0,1,1,0,1,,,,,,,,,,,,,,,,,,,,,,,,,,,,,,,,,,,,,,,,,,,,,,
244118,001,2022-11-21_01h09.11.654,Info_measure_main_exp,2022.2.2,MacIntel,59.99880002,,,,,,,,,,,,,,,,,,masks/mask_002.jpg,,,,,,,,,,,,,,,,,,,,,,,,,,,,,,,,,,,,,,,,,,,0,2,2,1,1,,,,,,,,,,,,,,,,,,,,,,,,,,,,,,,,,,,,,,,,,,,,,,
244118,001,2022-11-21_01h09.11.654,Info_measure_main_exp,2022.2.2,MacIntel,59.99880002,,,,,,,,,,,,,,,,,,masks/mask_003.jpg,,,,,,,,,,,,,,,,,,,,,,,,,,,,,,,,,,,,,,,,,,,0,3,3,2,1,,,,,,,,,,,,,,,,,,,,,,,,,,,,,,,,,,,,,,,,,,,,,,
244118,001,2022-11-21_01h09.11.654,Info_measure_main_exp,2022.2.2,MacIntel,59.99880002,,,,,,,,,,,,,,,,,,masks/mask_005.jpg,,,,,,,,,,,,,,,,,,,,,,,,,,,,,,,,,,,,,,,,,,,0,4,4,4,1,,,,,,,,,,,,,,,,,,,,,,,,,,,,,,,,,,,,,,,,,,,,,,
244118,001,2022-11-21_01h09.11.654,Info_measure_main_exp,2022.2.2,MacIntel,59.99880002,,,,,,,,,,,,,,,,,,masks/mask_004.jpg,,,,,,,,,,,,,,,,,,,,,,,,,,,,,,,,,,,,,,,,,,,,,,,,0,0,0,3,1,,,,,,,,,,,,,,,,,,,,,,,,,,,,,,,,,,,,,,,,,
244118,001,2022-11-21_01h09.11.654,Info_measure_main_exp,2022.2.2,MacIntel,59.99880002,,,,,,,,,,,,,,,,,,masks/mask_002.jpg,,,,,,,,,,,,,,,,,,,,,,,,,,,,,,,,,,,,,,,,,,,,,,,,0,1,1,1,1,,,,,,,,,,,,,,,,,,,,,,,,,,,,,,,,,,,,,,,,,
244118,001,2022-11-21_01h09.11.654,Info_measure_main_exp,2022.2.2,MacIntel,59.99880002,,,,,,,,,,,,,,,,,,masks/mask_003.jpg,,,,,,,,,,,,,,,,,,,,,,,,,,,,,,,,,,,,,,,,,,,,,,,,0,2,2,2,1,,,,,,,,,,,,,,,,,,,,,,,,,,,,,,,,,,,,,,,,,
244118,001,2022-11-21_01h09.11.654,Info_measure_main_exp,2022.2.2,MacIntel,59.99880002,,,,,,,,,,,,,,,,,,masks/mask_001.jpg,,,,,,,,,,,,,,,,,,,,,,,,,,,,,,,,,,,,,,,,,,,,,,,,0,3,3,0,1,,,,,,,,,,,,,,,,,,,,,,,,,,,,,,,,,,,,,,,,,
244118,001,2022-11-21_01h09.11.654,Info_measure_main_exp,2022.2.2,MacIntel,59.99880002,,,,,,,,,,,,,,,,,,masks/mask_005.jpg,,,,,,,,,,,,,,,,,,,,,,,,,,,,,,,,,,,,,,,,,,,,,,,,0,4,4,4,1,,,,,,,,,,,,,,,,,,,,,,,,,,,,,,,,,,,,,,,,,
244118,001,2022-11-21_01h09.11.654,Info_measure_main_exp,2022.2.2,MacIntel,59.99880002,,,,,,,,,,,,,,,,,,,,,,,,,,,,,,4,3.5673,1,,,,,,,,,,,,0,131,5,5,2238,2214,absent_patch/patch0002238.jpg,absent_patch/patch0002214.jpg,,,,,,,,,,,,,,,,,,,,0.04645006,-0.134068536,1,0,0,response3disk,6,0.009160156,-0.005462646,1,0,0,center_square,0,5,5,81,1,,,,,,,,,,,,,,,,,,,,,,,
244118,001,2022-11-21_01h09.11.654,Info_measure_main_exp,2022.2.2,MacIntel,59.99880002,,,,,,,,,,,,,,,,,,masks/mask_005.jpg,,,,,,,,,,,,,,,,,,,,,,,,,,,,,,,,,,,,,,,,,,,0,0,0,4,1,,,,,,,,,,,,,,,,,,,,,,,,,,,,,,,,,,,,,,,,,,,,,,
244118,001,2022-11-21_01h09.11.654,Info_measure_main_exp,2022.2.2,MacIntel,59.99880002,,,,,,,,,,,,,,,,,,masks/mask_003.jpg,,,,,,,,,,,,,,,,,,,,,,,,,,,,,,,,,,,,,,,,,,,0,1,1,2,1,,,,,,,,,,,,,,,,,,,,,,,,,,,,,,,,,,,,,,,,,,,,,,
244118,001,2022-11-21_01h09.11.654,Info_measure_main_exp,2022.2.2,MacIntel,59.99880002,,,,,,,,,,,,,,,,,,masks/mask_002.jpg,,,,,,,,,,,,,,,,,,,,,,,,,,,,,,,,,,,,,,,,,,,0,2,2,1,1,,,,,,,,,,,,,,,,,,,,,,,,,,,,,,,,,,,,,,,,,,,,,,
244118,001,2022-11-21_01h09.11.654,Info_measure_main_exp,2022.2.2,MacIntel,59.99880002,,,,,,,,,,,,,,,,,,masks/mask_004.jpg,,,,,,,,,,,,,,,,,,,,,,,,,,,,,,,,,,,,,,,,,,,0,3,3,3,1,,,,,,,,,,,,,,,,,,,,,,,,,,,,,,,,,,,,,,,,,,,,,,
244118,001,2022-11-21_01h09.11.654,Info_measure_main_exp,2022.2.2,MacIntel,59.99880002,,,,,,,,,,,,,,,,,,masks/mask_001.jpg,,,,,,,,,,,,,,,,,,,,,,,,,,,,,,,,,,,,,,,,,,,0,4,4,0,1,,,,,,,,,,,,,,,,,,,,,,,,,,,,,,,,,,,,,,,,,,,,,,
244118,001,2022-11-21_01h09.11.654,Info_measure_main_exp,2022.2.2,MacIntel,59.99880002,,,,,,,,,,,,,,,,,,masks/mask_004.jpg,,,,,,,,,,,,,,,,,,,,,,,,,,,,,,,,,,,,,,,,,,,,,,,,0,0,0,3,1,,,,,,,,,,,,,,,,,,,,,,,,,,,,,,,,,,,,,,,,,
244118,001,2022-11-21_01h09.11.654,Info_measure_main_exp,2022.2.2,MacIntel,59.99880002,,,,,,,,,,,,,,,,,,masks/mask_002.jpg,,,,,,,,,,,,,,,,,,,,,,,,,,,,,,,,,,,,,,,,,,,,,,,,0,1,1,1,1,,,,,,,,,,,,,,,,,,,,,,,,,,,,,,,,,,,,,,,,,
244118,001,2022-11-21_01h09.11.654,Info_measure_main_exp,2022.2.2,MacIntel,59.99880002,,,,,,,,,,,,,,,,,,masks/mask_005.jpg,,,,,,,,,,,,,,,,,,,,,,,,,,,,,,,,,,,,,,,,,,,,,,,,0,2,2,4,1,,,,,,,,,,,,,,,,,,,,,,,,,,,,,,,,,,,,,,,,,
244118,001,2022-11-21_01h09.11.654,Info_measure_main_exp,2022.2.2,MacIntel,59.99880002,,,,,,,,,,,,,,,,,,masks/mask_003.jpg,,,,,,,,,,,,,,,,,,,,,,,,,,,,,,,,,,,,,,,,,,,,,,,,0,3,3,2,1,,,,,,,,,,,,,,,,,,,,,,,,,,,,,,,,,,,,,,,,,
244118,001,2022-11-21_01h09.11.654,Info_measure_main_exp,2022.2.2,MacIntel,59.99880002,,,,,,,,,,,,,,,,,,masks/mask_001.jpg,,,,,,,,,,,,,,,,,,,,,,,,,,,,,,,,,,,,,,,,,,,,,,,,0,4,4,0,1,,,,,,,,,,,,,,,,,,,,,,,,,,,,,,,,,,,,,,,,,
244118,001,2022-11-21_01h09.11.654,Info_measure_main_exp,2022.2.2,MacIntel,59.99880002,,,,,,,,,,,,,,,,,,,,,,,,,,,,,,7,1.517,1,,,,,,,,,,,,1,131,5,5,2082,1,absent_patch/patch0002082.jpg,present_patch/cong_131_5_a.jpg,,,,,,,,,,,,,,,,,,,,0.047695855,0.140939297,1,0,0,response1disk,7,-0.002839288,-0.006366679,1,0,0,center_square,0,6,6,65,1,,,,,,,,,,,,,,,,,,,,,,,
244118,001,2022-11-21_01h09.11.654,Info_measure_main_exp,2022.2.2,MacIntel,59.99880002,,,,,,,,,,,,,,,,,,masks/mask_002.jpg,,,,,,,,,,,,,,,,,,,,,,,,,,,,,,,,,,,,,,,,,,,0,0,0,1,1,,,,,,,,,,,,,,,,,,,,,,,,,,,,,,,,,,,,,,,,,,,,,,
244118,001,2022-11-21_01h09.11.654,Info_measure_main_exp,2022.2.2,MacIntel,59.99880002,,,,,,,,,,,,,,,,,,masks/mask_004.jpg,,,,,,,,,,,,,,,,,,,,,,,,,,,,,,,,,,,,,,,,,,,0,1,1,3,1,,,,,,,,,,,,,,,,,,,,,,,,,,,,,,,,,,,,,,,,,,,,,,
244118,001,2022-11-21_01h09.11.654,Info_measure_main_exp,2022.2.2,MacIntel,59.99880002,,,,,,,,,,,,,,,,,,masks/mask_001.jpg,,,,,,,,,,,,,,,,,,,,,,,,,,,,,,,,,,,,,,,,,,,0,2,2,0,1,,,,,,,,,,,,,,,,,,,,,,,,,,,,,,,,,,,,,,,,,,,,,,
244118,001,2022-11-21_01h09.11.654,Info_measure_main_exp,2022.2.2,MacIntel,59.99880002,,,,,,,,,,,,,,,,,,masks/mask_003.jpg,,,,,,,,,,,,,,,,,,,,,,,,,,,,,,,,,,,,,,,,,,,0,3,3,2,1,,,,,,,,,,,,,,,,,,,,,,,,,,,,,,,,,,,,,,,,,,,,,,
244118,001,2022-11-21_01h09.11.654,Info_measure_main_exp,2022.2.2,MacIntel,59.99880002,,,,,,,,,,,,,,,,,,masks/mask_005.jpg,,,,,,,,,,,,,,,,,,,,,,,,,,,,,,,,,,,,,,,,,,,0,4,4,4,1,,,,,,,,,,,,,,,,,,,,,,,,,,,,,,,,,,,,,,,,,,,,,,
244118,001,2022-11-21_01h09.11.654,Info_measure_main_exp,2022.2.2,MacIntel,59.99880002,,,,,,,,,,,,,,,,,,masks/mask_003.jpg,,,,,,,,,,,,,,,,,,,,,,,,,,,,,,,,,,,,,,,,,,,,,,,,0,0,0,2,1,,,,,,,,,,,,,,,,,,,,,,,,,,,,,,,,,,,,,,,,,
244118,001,2022-11-21_01h09.11.654,Info_measure_main_exp,2022.2.2,MacIntel,59.99880002,,,,,,,,,,,,,,,,,,masks/mask_002.jpg,,,,,,,,,,,,,,,,,,,,,,,,,,,,,,,,,,,,,,,,,,,,,,,,0,1,1,1,1,,,,,,,,,,,,,,,,,,,,,,,,,,,,,,,,,,,,,,,,,
244118,001,2022-11-21_01h09.11.654,Info_measure_main_exp,2022.2.2,MacIntel,59.99880002,,,,,,,,,,,,,,,,,,masks/mask_005.jpg,,,,,,,,,,,,,,,,,,,,,,,,,,,,,,,,,,,,,,,,,,,,,,,,0,2,2,4,1,,,,,,,,,,,,,,,,,,,,,,,,,,,,,,,,,,,,,,,,,
244118,001,2022-11-21_01h09.11.654,Info_measure_main_exp,2022.2.2,MacIntel,59.99880002,,,,,,,,,,,,,,,,,,masks/mask_004.jpg,,,,,,,,,,,,,,,,,,,,,,,,,,,,,,,,,,,,,,,,,,,,,,,,0,3,3,3,1,,,,,,,,,,,,,,,,,,,,,,,,,,,,,,,,,,,,,,,,,
244118,001,2022-11-21_01h09.11.654,Info_measure_main_exp,2022.2.2,MacIntel,59.99880002,,,,,,,,,,,,,,,,,,masks/mask_001.jpg,,,,,,,,,,,,,,,,,,,,,,,,,,,,,,,,,,,,,,,,,,,,,,,,0,4,4,0,1,,,,,,,,,,,,,,,,,,,,,,,,,,,,,,,,,,,,,,,,,
244118,001,2022-11-21_01h09.11.654,Info_measure_main_exp,2022.2.2,MacIntel,59.99880002,,,,,,,,,,,,,,,,,,,,,,,,,,,,,,7,1.3339,1,,,,,,,,,,,,0,131,5,5,1974,2214,absent_patch/patch0001974.jpg,absent_patch/patch0002214.jpg,,,,,,,,,,,,,,,,,,,,0.061210802,0.12839898,1,0,0,response1disk,8,-0.005301107,-0.005143704,1,0,0,center_square,0,7,7,24,1,,,,,,,,,,,,,,,,,,,,,,,
244118,001,2022-11-21_01h09.11.654,Info_measure_main_exp,2022.2.2,MacIntel,59.99880002,,,,,,,,,,,,,,,,,,masks/mask_001.jpg,,,,,,,,,,,,,,,,,,,,,,,,,,,,,,,,,,,,,,,,,,,0,0,0,0,1,,,,,,,,,,,,,,,,,,,,,,,,,,,,,,,,,,,,,,,,,,,,,,
244118,001,2022-11-21_01h09.11.654,Info_measure_main_exp,2022.2.2,MacIntel,59.99880002,,,,,,,,,,,,,,,,,,masks/mask_004.jpg,,,,,,,,,,,,,,,,,,,,,,,,,,,,,,,,,,,,,,,,,,,0,1,1,3,1,,,,,,,,,,,,,,,,,,,,,,,,,,,,,,,,,,,,,,,,,,,,,,
244118,001,2022-11-21_01h09.11.654,Info_measure_main_exp,2022.2.2,MacIntel,59.99880002,,,,,,,,,,,,,,,,,,masks/mask_005.jpg,,,,,,,,,,,,,,,,,,,,,,,,,,,,,,,,,,,,,,,,,,,0,2,2,4,1,,,,,,,,,,,,,,,,,,,,,,,,,,,,,,,,,,,,,,,,,,,,,,
244118,001,2022-11-21_01h09.11.654,Info_measure_main_exp,2022.2.2,MacIntel,59.99880002,,,,,,,,,,,,,,,,,,masks/mask_002.jpg,,,,,,,,,,,,,,,,,,,,,,,,,,,,,,,,,,,,,,,,,,,0,3,3,1,1,,,,,,,,,,,,,,,,,,,,,,,,,,,,,,,,,,,,,,,,,,,,,,
244118,001,2022-11-21_01h09.11.654,Info_measure_main_exp,2022.2.2,MacIntel,59.99880002,,,,,,,,,,,,,,,,,,masks/mask_003.jpg,,,,,,,,,,,,,,,,,,,,,,,,,,,,,,,,,,,,,,,,,,,0,4,4,2,1,,,,,,,,,,,,,,,,,,,,,,,,,,,,,,,,,,,,,,,,,,,,,,
244118,001,2022-11-21_01h09.11.654,Info_measure_main_exp,2022.2.2,MacIntel,59.99880002,,,,,,,,,,,,,,,,,,masks/mask_002.jpg,,,,,,,,,,,,,,,,,,,,,,,,,,,,,,,,,,,,,,,,,,,,,,,,0,0,0,1,1,,,,,,,,,,,,,,,,,,,,,,,,,,,,,,,,,,,,,,,,,
244118,001,2022-11-21_01h09.11.654,Info_measure_main_exp,2022.2.2,MacIntel,59.99880002,,,,,,,,,,,,,,,,,,masks/mask_005.jpg,,,,,,,,,,,,,,,,,,,,,,,,,,,,,,,,,,,,,,,,,,,,,,,,0,1,1,4,1,,,,,,,,,,,,,,,,,,,,,,,,,,,,,,,,,,,,,,,,,
244118,001,2022-11-21_01h09.11.654,Info_measure_main_exp,2022.2.2,MacIntel,59.99880002,,,,,,,,,,,,,,,,,,masks/mask_004.jpg,,,,,,,,,,,,,,,,,,,,,,,,,,,,,,,,,,,,,,,,,,,,,,,,0,2,2,3,1,,,,,,,,,,,,,,,,,,,,,,,,,,,,,,,,,,,,,,,,,
244118,001,2022-11-21_01h09.11.654,Info_measure_main_exp,2022.2.2,MacIntel,59.99880002,,,,,,,,,,,,,,,,,,masks/mask_003.jpg,,,,,,,,,,,,,,,,,,,,,,,,,,,,,,,,,,,,,,,,,,,,,,,,0,3,3,2,1,,,,,,,,,,,,,,,,,,,,,,,,,,,,,,,,,,,,,,,,,
244118,001,2022-11-21_01h09.11.654,Info_measure_main_exp,2022.2.2,MacIntel,59.99880002,,,,,,,,,,,,,,,,,,masks/mask_001.jpg,,,,,,,,,,,,,,,,,,,,,,,,,,,,,,,,,,,,,,,,,,,,,,,,0,4,4,0,1,,,,,,,,,,,,,,,,,,,,,,,,,,,,,,,,,,,,,,,,,
244118,001,2022-11-21_01h09.11.654,Info_measure_main_exp,2022.2.2,MacIntel,59.99880002,,,,,,,,,,,,,,,,,,,,,,,,,,,,,,6,2.3492,1,,,,,,,,,,,,1,131,5,5,1,2166,present_patch/cong_131_5_a.jpg,absent_patch/patch0002166.jpg,,,,,,,,,,,,,,,,,,,,0.133668891,0.051429579,1,0,0,response1disk,9,-0.000349867,-0.007723355,1,0,0,center_square,0,8,8,54,1,,,,,,,,,,,,,,,,,,,,,,,
244118,001,2022-11-21_01h09.11.654,Info_measure_main_exp,2022.2.2,MacIntel,59.99880002,,,,,,,,,,,,,,,,,,masks/mask_002.jpg,,,,,,,,,,,,,,,,,,,,,,,,,,,,,,,,,,,,,,,,,,,0,0,0,1,1,,,,,,,,,,,,,,,,,,,,,,,,,,,,,,,,,,,,,,,,,,,,,,
244118,001,2022-11-21_01h09.11.654,Info_measure_main_exp,2022.2.2,MacIntel,59.99880002,,,,,,,,,,,,,,,,,,masks/mask_001.jpg,,,,,,,,,,,,,,,,,,,,,,,,,,,,,,,,,,,,,,,,,,,0,1,1,0,1,,,,,,,,,,,,,,,,,,,,,,,,,,,,,,,,,,,,,,,,,,,,,,
244118,001,2022-11-21_01h09.11.654,Info_measure_main_exp,2022.2.2,MacIntel,59.99880002,,,,,,,,,,,,,,,,,,masks/mask_005.jpg,,,,,,,,,,,,,,,,,,,,,,,,,,,,,,,,,,,,,,,,,,,0,2,2,4,1,,,,,,,,,,,,,,,,,,,,,,,,,,,,,,,,,,,,,,,,,,,,,,
244118,001,2022-11-21_01h09.11.654,Info_measure_main_exp,2022.2.2,MacIntel,59.99880002,,,,,,,,,,,,,,,,,,masks/mask_003.jpg,,,,,,,,,,,,,,,,,,,,,,,,,,,,,,,,,,,,,,,,,,,0,3,3,2,1,,,,,,,,,,,,,,,,,,,,,,,,,,,,,,,,,,,,,,,,,,,,,,
244118,001,2022-11-21_01h09.11.654,Info_measure_main_exp,2022.2.2,MacIntel,59.99880002,,,,,,,,,,,,,,,,,,masks/mask_004.jpg,,,,,,,,,,,,,,,,,,,,,,,,,,,,,,,,,,,,,,,,,,,0,4,4,3,1,,,,,,,,,,,,,,,,,,,,,,,,,,,,,,,,,,,,,,,,,,,,,,
244118,001,2022-11-21_01h09.11.654,Info_measure_main_exp,2022.2.2,MacIntel,59.99880002,,,,,,,,,,,,,,,,,,masks/mask_002.jpg,,,,,,,,,,,,,,,,,,,,,,,,,,,,,,,,,,,,,,,,,,,,,,,,0,0,0,1,1,,,,,,,,,,,,,,,,,,,,,,,,,,,,,,,,,,,,,,,,,
244118,001,2022-11-21_01h09.11.654,Info_measure_main_exp,2022.2.2,MacIntel,59.99880002,,,,,,,,,,,,,,,,,,masks/mask_001.jpg,,,,,,,,,,,,,,,,,,,,,,,,,,,,,,,,,,,,,,,,,,,,,,,,0,1,1,0,1,,,,,,,,,,,,,,,,,,,,,,,,,,,,,,,,,,,,,,,,,
244118,001,2022-11-21_01h09.11.654,Info_measure_main_exp,2022.2.2,MacIntel,59.99880002,,,,,,,,,,,,,,,,,,masks/mask_005.jpg,,,,,,,,,,,,,,,,,,,,,,,,,,,,,,,,,,,,,,,,,,,,,,,,0,2,2,4,1,,,,,,,,,,,,,,,,,,,,,,,,,,,,,,,,,,,,,,,,,
244118,001,2022-11-21_01h09.11.654,Info_measure_main_exp,2022.2.2,MacIntel,59.99880002,,,,,,,,,,,,,,,,,,masks/mask_003.jpg,,,,,,,,,,,,,,,,,,,,,,,,,,,,,,,,,,,,,,,,,,,,,,,,0,3,3,2,1,,,,,,,,,,,,,,,,,,,,,,,,,,,,,,,,,,,,,,,,,
244118,001,2022-11-21_01h09.11.654,Info_measure_main_exp,2022.2.2,MacIntel,59.99880002,,,,,,,,,,,,,,,,,,masks/mask_004.jpg,,,,,,,,,,,,,,,,,,,,,,,,,,,,,,,,,,,,,,,,,,,,,,,,0,4,4,3,1,,,,,,,,,,,,,,,,,,,,,,,,,,,,,,,,,,,,,,,,,
244118,001,2022-11-21_01h09.11.654,Info_measure_main_exp,2022.2.2,MacIntel,59.99880002,,,,,,,,,,,,,,,,,,,,,,,,,,,,,,7,0.8994,1,,,,,,,,,,,,0,131,5,5,2166,2154,absent_patch/patch0002166.jpg,absent_patch/patch0002154.jpg,,,,,,,,,,,,,,,,,,,,0.054061415,0.098574422,1,0,0,response1disk,10,0.002100762,0.000257738,1,0,0,center_square,0,9,9,79,1,,,,,,,,,,,,,,,,,,,,,,,
244118,001,2022-11-21_01h09.11.654,Info_measure_main_exp,2022.2.2,MacIntel,59.99880002,,,,,,,,,,,,,,,,,,masks/mask_002.jpg,,,,,,,,,,,,,,,,,,,,,,,,,,,,,,,,,,,,,,,,,,,0,0,0,1,1,,,,,,,,,,,,,,,,,,,,,,,,,,,,,,,,,,,,,,,,,,,,,,
244118,001,2022-11-21_01h09.11.654,Info_measure_main_exp,2022.2.2,MacIntel,59.99880002,,,,,,,,,,,,,,,,,,masks/mask_001.jpg,,,,,,,,,,,,,,,,,,,,,,,,,,,,,,,,,,,,,,,,,,,0,1,1,0,1,,,,,,,,,,,,,,,,,,,,,,,,,,,,,,,,,,,,,,,,,,,,,,
244118,001,2022-11-21_01h09.11.654,Info_measure_main_exp,2022.2.2,MacIntel,59.99880002,,,,,,,,,,,,,,,,,,masks/mask_004.jpg,,,,,,,,,,,,,,,,,,,,,,,,,,,,,,,,,,,,,,,,,,,0,2,2,3,1,,,,,,,,,,,,,,,,,,,,,,,,,,,,,,,,,,,,,,,,,,,,,,
244118,001,2022-11-21_01h09.11.654,Info_measure_main_exp,2022.2.2,MacIntel,59.99880002,,,,,,,,,,,,,,,,,,masks/mask_003.jpg,,,,,,,,,,,,,,,,,,,,,,,,,,,,,,,,,,,,,,,,,,,0,3,3,2,1,,,,,,,,,,,,,,,,,,,,,,,,,,,,,,,,,,,,,,,,,,,,,,
244118,001,2022-11-21_01h09.11.654,Info_measure_main_exp,2022.2.2,MacIntel,59.99880002,,,,,,,,,,,,,,,,,,masks/mask_005.jpg,,,,,,,,,,,,,,,,,,,,,,,,,,,,,,,,,,,,,,,,,,,0,4,4,4,1,,,,,,,,,,,,,,,,,,,,,,,,,,,,,,,,,,,,,,,,,,,,,,
244118,001,2022-11-21_01h09.11.654,Info_measure_main_exp,2022.2.2,MacIntel,59.99880002,,,,,,,,,,,,,,,,,,masks/mask_004.jpg,,,,,,,,,,,,,,,,,,,,,,,,,,,,,,,,,,,,,,,,,,,,,,,,0,0,0,3,1,,,,,,,,,,,,,,,,,,,,,,,,,,,,,,,,,,,,,,,,,
244118,001,2022-11-21_01h09.11.654,Info_measure_main_exp,2022.2.2,MacIntel,59.99880002,,,,,,,,,,,,,,,,,,masks/mask_001.jpg,,,,,,,,,,,,,,,,,,,,,,,,,,,,,,,,,,,,,,,,,,,,,,,,0,1,1,0,1,,,,,,,,,,,,,,,,,,,,,,,,,,,,,,,,,,,,,,,,,
244118,001,2022-11-21_01h09.11.654,Info_measure_main_exp,2022.2.2,MacIntel,59.99880002,,,,,,,,,,,,,,,,,,masks/mask_002.jpg,,,,,,,,,,,,,,,,,,,,,,,,,,,,,,,,,,,,,,,,,,,,,,,,0,2,2,1,1,,,,,,,,,,,,,,,,,,,,,,,,,,,,,,,,,,,,,,,,,
244118,001,2022-11-21_01h09.11.654,Info_measure_main_exp,2022.2.2,MacIntel,59.99880002,,,,,,,,,,,,,,,,,,masks/mask_003.jpg,,,,,,,,,,,,,,,,,,,,,,,,,,,,,,,,,,,,,,,,,,,,,,,,0,3,3,2,1,,,,,,,,,,,,,,,,,,,,,,,,,,,,,,,,,,,,,,,,,
244118,001,2022-11-21_01h09.11.654,Info_measure_main_exp,2022.2.2,MacIntel,59.99880002,,,,,,,,,,,,,,,,,,masks/mask_005.jpg,,,,,,,,,,,,,,,,,,,,,,,,,,,,,,,,,,,,,,,,,,,,,,,,0,4,4,4,1,,,,,,,,,,,,,,,,,,,,,,,,,,,,,,,,,,,,,,,,,
244118,001,2022-11-21_01h09.11.654,Info_measure_main_exp,2022.2.2,MacIntel,59.99880002,,,,,,,,,,,,,,,,,,,,,,,,,,,,,,7,0.885,1,,,,,,,,,,,,0,131,5,5,1974,2142,absent_patch/patch0001974.jpg,absent_patch/patch0002142.jpg,,,,,,,,,,,,,,,,,,,,0.067605591,0.126115994,1,0,0,response1disk,11,-0.000729302,-0.0025413,1,0,0,center_square,0,10,10,38,1,,,,,,,,,,,,,,,,,,,,,,,
244118,001,2022-11-21_01h09.11.654,Info_measure_main_exp,2022.2.2,MacIntel,59.99880002,,,,,,,,,,,,,,,,,,masks/mask_004.jpg,,,,,,,,,,,,,,,,,,,,,,,,,,,,,,,,,,,,,,,,,,,0,0,0,3,1,,,,,,,,,,,,,,,,,,,,,,,,,,,,,,,,,,,,,,,,,,,,,,
244118,001,2022-11-21_01h09.11.654,Info_measure_main_exp,2022.2.2,MacIntel,59.99880002,,,,,,,,,,,,,,,,,,masks/mask_002.jpg,,,,,,,,,,,,,,,,,,,,,,,,,,,,,,,,,,,,,,,,,,,0,1,1,1,1,,,,,,,,,,,,,,,,,,,,,,,,,,,,,,,,,,,,,,,,,,,,,,
244118,001,2022-11-21_01h09.11.654,Info_measure_main_exp,2022.2.2,MacIntel,59.99880002,,,,,,,,,,,,,,,,,,masks/mask_003.jpg,,,,,,,,,,,,,,,,,,,,,,,,,,,,,,,,,,,,,,,,,,,0,2,2,2,1,,,,,,,,,,,,,,,,,,,,,,,,,,,,,,,,,,,,,,,,,,,,,,
244118,001,2022-11-21_01h09.11.654,Info_measure_main_exp,2022.2.2,MacIntel,59.99880002,,,,,,,,,,,,,,,,,,masks/mask_001.jpg,,,,,,,,,,,,,,,,,,,,,,,,,,,,,,,,,,,,,,,,,,,0,3,3,0,1,,,,,,,,,,,,,,,,,,,,,,,,,,,,,,,,,,,,,,,,,,,,,,
244118,001,2022-11-21_01h09.11.654,Info_measure_main_exp,2022.2.2,MacIntel,59.99880002,,,,,,,,,,,,,,,,,,masks/mask_005.jpg,,,,,,,,,,,,,,,,,,,,,,,,,,,,,,,,,,,,,,,,,,,0,4,4,4,1,,,,,,,,,,,,,,,,,,,,,,,,,,,,,,,,,,,,,,,,,,,,,,
244118,001,2022-11-21_01h09.11.654,Info_measure_main_exp,2022.2.2,MacIntel,59.99880002,,,,,,,,,,,,,,,,,,masks/mask_001.jpg,,,,,,,,,,,,,,,,,,,,,,,,,,,,,,,,,,,,,,,,,,,,,,,,0,0,0,0,1,,,,,,,,,,,,,,,,,,,,,,,,,,,,,,,,,,,,,,,,,
244118,001,2022-11-21_01h09.11.654,Info_measure_main_exp,2022.2.2,MacIntel,59.99880002,,,,,,,,,,,,,,,,,,masks/mask_003.jpg,,,,,,,,,,,,,,,,,,,,,,,,,,,,,,,,,,,,,,,,,,,,,,,,0,1,1,2,1,,,,,,,,,,,,,,,,,,,,,,,,,,,,,,,,,,,,,,,,,
244118,001,2022-11-21_01h09.11.654,Info_measure_main_exp,2022.2.2,MacIntel,59.99880002,,,,,,,,,,,,,,,,,,masks/mask_005.jpg,,,,,,,,,,,,,,,,,,,,,,,,,,,,,,,,,,,,,,,,,,,,,,,,0,2,2,4,1,,,,,,,,,,,,,,,,,,,,,,,,,,,,,,,,,,,,,,,,,
244118,001,2022-11-21_01h09.11.654,Info_measure_main_exp,2022.2.2,MacIntel,59.99880002,,,,,,,,,,,,,,,,,,masks/mask_004.jpg,,,,,,,,,,,,,,,,,,,,,,,,,,,,,,,,,,,,,,,,,,,,,,,,0,3,3,3,1,,,,,,,,,,,,,,,,,,,,,,,,,,,,,,,,,,,,,,,,,
244118,001,2022-11-21_01h09.11.654,Info_measure_main_exp,2022.2.2,MacIntel,59.99880002,,,,,,,,,,,,,,,,,,masks/mask_002.jpg,,,,,,,,,,,,,,,,,,,,,,,,,,,,,,,,,,,,,,,,,,,,,,,,0,4,4,1,1,,,,,,,,,,,,,,,,,,,,,,,,,,,,,,,,,,,,,,,,,
244118,001,2022-11-21_01h09.11.654,Info_measure_main_exp,2022.2.2,MacIntel,59.99880002,,,,,,,,,,,,,,,,,,,,,,,,,,,,,,7,1.4483,1,,,,,,,,,,,,0,131,5,5,1974,2166,absent_patch/patch0001974.jpg,absent_patch/patch0002166.jpg,,,,,,,,,,,,,,,,,,,,0.040244683,0.087962104,1,0,0,response1disk,12,-0.001870728,-0.009369473,1,0,0,center_square,0,11,11,77,1,,,,,,,,,,,,,,,,,,,,,,,
244118,001,2022-11-21_01h09.11.654,Info_measure_main_exp,2022.2.2,MacIntel,59.99880002,,,,,,,,,,,,,,,,,,masks/mask_004.jpg,,,,,,,,,,,,,,,,,,,,,,,,,,,,,,,,,,,,,,,,,,,0,0,0,3,1,,,,,,,,,,,,,,,,,,,,,,,,,,,,,,,,,,,,,,,,,,,,,,
244118,001,2022-11-21_01h09.11.654,Info_measure_main_exp,2022.2.2,MacIntel,59.99880002,,,,,,,,,,,,,,,,,,masks/mask_002.jpg,,,,,,,,,,,,,,,,,,,,,,,,,,,,,,,,,,,,,,,,,,,0,1,1,1,1,,,,,,,,,,,,,,,,,,,,,,,,,,,,,,,,,,,,,,,,,,,,,,
244118,001,2022-11-21_01h09.11.654,Info_measure_main_exp,2022.2.2,MacIntel,59.99880002,,,,,,,,,,,,,,,,,,masks/mask_003.jpg,,,,,,,,,,,,,,,,,,,,,,,,,,,,,,,,,,,,,,,,,,,0,2,2,2,1,,,,,,,,,,,,,,,,,,,,,,,,,,,,,,,,,,,,,,,,,,,,,,
244118,001,2022-11-21_01h09.11.654,Info_measure_main_exp,2022.2.2,MacIntel,59.99880002,,,,,,,,,,,,,,,,,,masks/mask_001.jpg,,,,,,,,,,,,,,,,,,,,,,,,,,,,,,,,,,,,,,,,,,,0,3,3,0,1,,,,,,,,,,,,,,,,,,,,,,,,,,,,,,,,,,,,,,,,,,,,,,
244118,001,2022-11-21_01h09.11.654,Info_measure_main_exp,2022.2.2,MacIntel,59.99880002,,,,,,,,,,,,,,,,,,masks/mask_005.jpg,,,,,,,,,,,,,,,,,,,,,,,,,,,,,,,,,,,,,,,,,,,0,4,4,4,1,,,,,,,,,,,,,,,,,,,,,,,,,,,,,,,,,,,,,,,,,,,,,,
244118,001,2022-11-21_01h09.11.654,Info_measure_main_exp,2022.2.2,MacIntel,59.99880002,,,,,,,,,,,,,,,,,,masks/mask_001.jpg,,,,,,,,,,,,,,,,,,,,,,,,,,,,,,,,,,,,,,,,,,,,,,,,0,0,0,0,1,,,,,,,,,,,,,,,,,,,,,,,,,,,,,,,,,,,,,,,,,
244118,001,2022-11-21_01h09.11.654,Info_measure_main_exp,2022.2.2,MacIntel,59.99880002,,,,,,,,,,,,,,,,,,masks/mask_004.jpg,,,,,,,,,,,,,,,,,,,,,,,,,,,,,,,,,,,,,,,,,,,,,,,,0,1,1,3,1,,,,,,,,,,,,,,,,,,,,,,,,,,,,,,,,,,,,,,,,,
244118,001,2022-11-21_01h09.11.654,Info_measure_main_exp,2022.2.2,MacIntel,59.99880002,,,,,,,,,,,,,,,,,,masks/mask_002.jpg,,,,,,,,,,,,,,,,,,,,,,,,,,,,,,,,,,,,,,,,,,,,,,,,0,2,2,1,1,,,,,,,,,,,,,,,,,,,,,,,,,,,,,,,,,,,,,,,,,
244118,001,2022-11-21_01h09.11.654,Info_measure_main_exp,2022.2.2,MacIntel,59.99880002,,,,,,,,,,,,,,,,,,masks/mask_003.jpg,,,,,,,,,,,,,,,,,,,,,,,,,,,,,,,,,,,,,,,,,,,,,,,,0,3,3,2,1,,,,,,,,,,,,,,,,,,,,,,,,,,,,,,,,,,,,,,,,,
244118,001,2022-11-21_01h09.11.654,Info_measure_main_exp,2022.2.2,MacIntel,59.99880002,,,,,,,,,,,,,,,,,,masks/mask_005.jpg,,,,,,,,,,,,,,,,,,,,,,,,,,,,,,,,,,,,,,,,,,,,,,,,0,4,4,4,1,,,,,,,,,,,,,,,,,,,,,,,,,,,,,,,,,,,,,,,,,
244118,001,2022-11-21_01h09.11.654,Info_measure_main_exp,2022.2.2,MacIntel,59.99880002,,,,,,,,,,,,,,,,,,,,,,,,,,,,,,6,1.5491,1,,,,,,,,,,,,1,131,5,5,2190,1,absent_patch/patch0002190.jpg,present_patch/cong_131_5_a.jpg,,,,,,,,,,,,,,,,,,,,0.15357076,0.024788276,1,0,0,response1disk,13,0.003709039,-0.00077969,1,0,0,center_square,0,12,12,64,1,,,,,,,,,,,,,,,,,,,,,,,
244118,001,2022-11-21_01h09.11.654,Info_measure_main_exp,2022.2.2,MacIntel,59.99880002,,,,,,,,,,,,,,,,,,masks/mask_004.jpg,,,,,,,,,,,,,,,,,,,,,,,,,,,,,,,,,,,,,,,,,,,0,0,0,3,1,,,,,,,,,,,,,,,,,,,,,,,,,,,,,,,,,,,,,,,,,,,,,,
244118,001,2022-11-21_01h09.11.654,Info_measure_main_exp,2022.2.2,MacIntel,59.99880002,,,,,,,,,,,,,,,,,,masks/mask_005.jpg,,,,,,,,,,,,,,,,,,,,,,,,,,,,,,,,,,,,,,,,,,,0,1,1,4,1,,,,,,,,,,,,,,,,,,,,,,,,,,,,,,,,,,,,,,,,,,,,,,
244118,001,2022-11-21_01h09.11.654,Info_measure_main_exp,2022.2.2,MacIntel,59.99880002,,,,,,,,,,,,,,,,,,masks/mask_003.jpg,,,,,,,,,,,,,,,,,,,,,,,,,,,,,,,,,,,,,,,,,,,0,2,2,2,1,,,,,,,,,,,,,,,,,,,,,,,,,,,,,,,,,,,,,,,,,,,,,,
244118,001,2022-11-21_01h09.11.654,Info_measure_main_exp,2022.2.2,MacIntel,59.99880002,,,,,,,,,,,,,,,,,,masks/mask_001.jpg,,,,,,,,,,,,,,,,,,,,,,,,,,,,,,,,,,,,,,,,,,,0,3,3,0,1,,,,,,,,,,,,,,,,,,,,,,,,,,,,,,,,,,,,,,,,,,,,,,
244118,001,2022-11-21_01h09.11.654,Info_measure_main_exp,2022.2.2,MacIntel,59.99880002,,,,,,,,,,,,,,,,,,masks/mask_002.jpg,,,,,,,,,,,,,,,,,,,,,,,,,,,,,,,,,,,,,,,,,,,0,4,4,1,1,,,,,,,,,,,,,,,,,,,,,,,,,,,,,,,,,,,,,,,,,,,,,,
244118,001,2022-11-21_01h09.11.654,Info_measure_main_exp,2022.2.2,MacIntel,59.99880002,,,,,,,,,,,,,,,,,,masks/mask_002.jpg,,,,,,,,,,,,,,,,,,,,,,,,,,,,,,,,,,,,,,,,,,,,,,,,0,0,0,1,1,,,,,,,,,,,,,,,,,,,,,,,,,,,,,,,,,,,,,,,,,
244118,001,2022-11-21_01h09.11.654,Info_measure_main_exp,2022.2.2,MacIntel,59.99880002,,,,,,,,,,,,,,,,,,masks/mask_004.jpg,,,,,,,,,,,,,,,,,,,,,,,,,,,,,,,,,,,,,,,,,,,,,,,,0,1,1,3,1,,,,,,,,,,,,,,,,,,,,,,,,,,,,,,,,,,,,,,,,,
244118,001,2022-11-21_01h09.11.654,Info_measure_main_exp,2022.2.2,MacIntel,59.99880002,,,,,,,,,,,,,,,,,,masks/mask_003.jpg,,,,,,,,,,,,,,,,,,,,,,,,,,,,,,,,,,,,,,,,,,,,,,,,0,2,2,2,1,,,,,,,,,,,,,,,,,,,,,,,,,,,,,,,,,,,,,,,,,
244118,001,2022-11-21_01h09.11.654,Info_measure_main_exp,2022.2.2,MacIntel,59.99880002,,,,,,,,,,,,,,,,,,masks/mask_001.jpg,,,,,,,,,,,,,,,,,,,,,,,,,,,,,,,,,,,,,,,,,,,,,,,,0,3,3,0,1,,,,,,,,,,,,,,,,,,,,,,,,,,,,,,,,,,,,,,,,,
244118,001,2022-11-21_01h09.11.654,Info_measure_main_exp,2022.2.2,MacIntel,59.99880002,,,,,,,,,,,,,,,,,,masks/mask_005.jpg,,,,,,,,,,,,,,,,,,,,,,,,,,,,,,,,,,,,,,,,,,,,,,,,0,4,4,4,1,,,,,,,,,,,,,,,,,,,,,,,,,,,,,,,,,,,,,,,,,
244118,001,2022-11-21_01h09.11.654,Info_measure_main_exp,2022.2.2,MacIntel,59.99880002,,,,,,,,,,,,,,,,,,,,,,,,,,,,,,5,2.3345,1,,,,,,,,,,,,0,131,5,5,2142,2082,absent_patch/patch0002142.jpg,absent_patch/patch0002082.jpg,,,,,,,,,,,,,,,,,,,,0.124369439,-0.060559794,1,0,0,response3disk,14,-0.000658976,-0.003011475,1,0,0,center_square,0,13,13,88,1,,,,,,,,,,,,,,,,,,,,,,,
244118,001,2022-11-21_01h09.11.654,Info_measure_main_exp,2022.2.2,MacIntel,59.99880002,,,,,,,,,,,,,,,,,,masks/mask_002.jpg,,,,,,,,,,,,,,,,,,,,,,,,,,,,,,,,,,,,,,,,,,,0,0,0,1,1,,,,,,,,,,,,,,,,,,,,,,,,,,,,,,,,,,,,,,,,,,,,,,
244118,001,2022-11-21_01h09.11.654,Info_measure_main_exp,2022.2.2,MacIntel,59.99880002,,,,,,,,,,,,,,,,,,masks/mask_001.jpg,,,,,,,,,,,,,,,,,,,,,,,,,,,,,,,,,,,,,,,,,,,0,1,1,0,1,,,,,,,,,,,,,,,,,,,,,,,,,,,,,,,,,,,,,,,,,,,,,,
244118,001,2022-11-21_01h09.11.654,Info_measure_main_exp,2022.2.2,MacIntel,59.99880002,,,,,,,,,,,,,,,,,,masks/mask_003.jpg,,,,,,,,,,,,,,,,,,,,,,,,,,,,,,,,,,,,,,,,,,,0,2,2,2,1,,,,,,,,,,,,,,,,,,,,,,,,,,,,,,,,,,,,,,,,,,,,,,
244118,001,2022-11-21_01h09.11.654,Info_measure_main_exp,2022.2.2,MacIntel,59.99880002,,,,,,,,,,,,,,,,,,masks/mask_005.jpg,,,,,,,,,,,,,,,,,,,,,,,,,,,,,,,,,,,,,,,,,,,0,3,3,4,1,,,,,,,,,,,,,,,,,,,,,,,,,,,,,,,,,,,,,,,,,,,,,,
244118,001,2022-11-21_01h09.11.654,Info_measure_main_exp,2022.2.2,MacIntel,59.99880002,,,,,,,,,,,,,,,,,,masks/mask_004.jpg,,,,,,,,,,,,,,,,,,,,,,,,,,,,,,,,,,,,,,,,,,,0,4,4,3,1,,,,,,,,,,,,,,,,,,,,,,,,,,,,,,,,,,,,,,,,,,,,,,
244118,001,2022-11-21_01h09.11.654,Info_measure_main_exp,2022.2.2,MacIntel,59.99880002,,,,,,,,,,,,,,,,,,masks/mask_005.jpg,,,,,,,,,,,,,,,,,,,,,,,,,,,,,,,,,,,,,,,,,,,,,,,,0,0,0,4,1,,,,,,,,,,,,,,,,,,,,,,,,,,,,,,,,,,,,,,,,,
244118,001,2022-11-21_01h09.11.654,Info_measure_main_exp,2022.2.2,MacIntel,59.99880002,,,,,,,,,,,,,,,,,,masks/mask_004.jpg,,,,,,,,,,,,,,,,,,,,,,,,,,,,,,,,,,,,,,,,,,,,,,,,0,1,1,3,1,,,,,,,,,,,,,,,,,,,,,,,,,,,,,,,,,,,,,,,,,
244118,001,2022-11-21_01h09.11.654,Info_measure_main_exp,2022.2.2,MacIntel,59.99880002,,,,,,,,,,,,,,,,,,masks/mask_002.jpg,,,,,,,,,,,,,,,,,,,,,,,,,,,,,,,,,,,,,,,,,,,,,,,,0,2,2,1,1,,,,,,,,,,,,,,,,,,,,,,,,,,,,,,,,,,,,,,,,,
244118,001,2022-11-21_01h09.11.654,Info_measure_main_exp,2022.2.2,MacIntel,59.99880002,,,,,,,,,,,,,,,,,,masks/mask_001.jpg,,,,,,,,,,,,,,,,,,,,,,,,,,,,,,,,,,,,,,,,,,,,,,,,0,3,3,0,1,,,,,,,,,,,,,,,,,,,,,,,,,,,,,,,,,,,,,,,,,
244118,001,2022-11-21_01h09.11.654,Info_measure_main_exp,2022.2.2,MacIntel,59.99880002,,,,,,,,,,,,,,,,,,masks/mask_003.jpg,,,,,,,,,,,,,,,,,,,,,,,,,,,,,,,,,,,,,,,,,,,,,,,,0,4,4,2,1,,,,,,,,,,,,,,,,,,,,,,,,,,,,,,,,,,,,,,,,,
244118,001,2022-11-21_01h09.11.654,Info_measure_main_exp,2022.2.2,MacIntel,59.99880002,,,,,,,,,,,,,,,,,,,,,,,,,,,,,,7,1.3155,1,,,,,,,,,,,,0,131,5,5,2238,2166,absent_patch/patch0002238.jpg,absent_patch/patch0002166.jpg,,,,,,,,,,,,,,,,,,,,0.084403958,0.156125285,1,0,0,response1disk,15,-0.002798869,0.002710707,1,0,0,center_square,0,14,14,118,1,,,,,,,,,,,,,,,,,,,,,,,
244118,001,2022-11-21_01h09.11.654,Info_measure_main_exp,2022.2.2,MacIntel,59.99880002,,,,,,,,,,,,,,,,,,masks/mask_001.jpg,,,,,,,,,,,,,,,,,,,,,,,,,,,,,,,,,,,,,,,,,,,0,0,0,0,1,,,,,,,,,,,,,,,,,,,,,,,,,,,,,,,,,,,,,,,,,,,,,,
244118,001,2022-11-21_01h09.11.654,Info_measure_main_exp,2022.2.2,MacIntel,59.99880002,,,,,,,,,,,,,,,,,,masks/mask_004.jpg,,,,,,,,,,,,,,,,,,,,,,,,,,,,,,,,,,,,,,,,,,,0,1,1,3,1,,,,,,,,,,,,,,,,,,,,,,,,,,,,,,,,,,,,,,,,,,,,,,
244118,001,2022-11-21_01h09.11.654,Info_measure_main_exp,2022.2.2,MacIntel,59.99880002,,,,,,,,,,,,,,,,,,masks/mask_005.jpg,,,,,,,,,,,,,,,,,,,,,,,,,,,,,,,,,,,,,,,,,,,0,2,2,4,1,,,,,,,,,,,,,,,,,,,,,,,,,,,,,,,,,,,,,,,,,,,,,,
244118,001,2022-11-21_01h09.11.654,Info_measure_main_exp,2022.2.2,MacIntel,59.99880002,,,,,,,,,,,,,,,,,,masks/mask_002.jpg,,,,,,,,,,,,,,,,,,,,,,,,,,,,,,,,,,,,,,,,,,,0,3,3,1,1,,,,,,,,,,,,,,,,,,,,,,,,,,,,,,,,,,,,,,,,,,,,,,
244118,001,2022-11-21_01h09.11.654,Info_measure_main_exp,2022.2.2,MacIntel,59.99880002,,,,,,,,,,,,,,,,,,masks/mask_003.jpg,,,,,,,,,,,,,,,,,,,,,,,,,,,,,,,,,,,,,,,,,,,0,4,4,2,1,,,,,,,,,,,,,,,,,,,,,,,,,,,,,,,,,,,,,,,,,,,,,,
244118,001,2022-11-21_01h09.11.654,Info_measure_main_exp,2022.2.2,MacIntel,59.99880002,,,,,,,,,,,,,,,,,,masks/mask_004.jpg,,,,,,,,,,,,,,,,,,,,,,,,,,,,,,,,,,,,,,,,,,,,,,,,0,0,0,3,1,,,,,,,,,,,,,,,,,,,,,,,,,,,,,,,,,,,,,,,,,
244118,001,2022-11-21_01h09.11.654,Info_measure_main_exp,2022.2.2,MacIntel,59.99880002,,,,,,,,,,,,,,,,,,masks/mask_002.jpg,,,,,,,,,,,,,,,,,,,,,,,,,,,,,,,,,,,,,,,,,,,,,,,,0,1,1,1,1,,,,,,,,,,,,,,,,,,,,,,,,,,,,,,,,,,,,,,,,,
244118,001,2022-11-21_01h09.11.654,Info_measure_main_exp,2022.2.2,MacIntel,59.99880002,,,,,,,,,,,,,,,,,,masks/mask_003.jpg,,,,,,,,,,,,,,,,,,,,,,,,,,,,,,,,,,,,,,,,,,,,,,,,0,2,2,2,1,,,,,,,,,,,,,,,,,,,,,,,,,,,,,,,,,,,,,,,,,
244118,001,2022-11-21_01h09.11.654,Info_measure_main_exp,2022.2.2,MacIntel,59.99880002,,,,,,,,,,,,,,,,,,masks/mask_001.jpg,,,,,,,,,,,,,,,,,,,,,,,,,,,,,,,,,,,,,,,,,,,,,,,,0,3,3,0,1,,,,,,,,,,,,,,,,,,,,,,,,,,,,,,,,,,,,,,,,,
244118,001,2022-11-21_01h09.11.654,Info_measure_main_exp,2022.2.2,MacIntel,59.99880002,,,,,,,,,,,,,,,,,,masks/mask_005.jpg,,,,,,,,,,,,,,,,,,,,,,,,,,,,,,,,,,,,,,,,,,,,,,,,0,4,4,4,1,,,,,,,,,,,,,,,,,,,,,,,,,,,,,,,,,,,,,,,,,
244118,001,2022-11-21_01h09.11.654,Info_measure_main_exp,2022.2.2,MacIntel,59.99880002,,,,,,,,,,,,,,,,,,,,,,,,,,,,,,7,2.5174,1,,,,,,,,,,,,0,131,5,5,2142,2154,absent_patch/patch0002142.jpg,absent_patch/patch0002154.jpg,,,,,,,,,,,,,,,,,,,,0.076918877,0.151010234,1,0,0,response1disk,16,-0.006203478,0.000358751,1,0,0,center_square,0,15,15,9,1,,,,,,,,,,,,,,,,,,,,,,,
244118,001,2022-11-21_01h09.11.654,Info_measure_main_exp,2022.2.2,MacIntel,59.99880002,,,,,,,,,,,,,,,,,,masks/mask_002.jpg,,,,,,,,,,,,,,,,,,,,,,,,,,,,,,,,,,,,,,,,,,,0,0,0,1,1,,,,,,,,,,,,,,,,,,,,,,,,,,,,,,,,,,,,,,,,,,,,,,
244118,001,2022-11-21_01h09.11.654,Info_measure_main_exp,2022.2.2,MacIntel,59.99880002,,,,,,,,,,,,,,,,,,masks/mask_004.jpg,,,,,,,,,,,,,,,,,,,,,,,,,,,,,,,,,,,,,,,,,,,0,1,1,3,1,,,,,,,,,,,,,,,,,,,,,,,,,,,,,,,,,,,,,,,,,,,,,,
244118,001,2022-11-21_01h09.11.654,Info_measure_main_exp,2022.2.2,MacIntel,59.99880002,,,,,,,,,,,,,,,,,,masks/mask_001.jpg,,,,,,,,,,,,,,,,,,,,,,,,,,,,,,,,,,,,,,,,,,,0,2,2,0,1,,,,,,,,,,,,,,,,,,,,,,,,,,,,,,,,,,,,,,,,,,,,,,
244118,001,2022-11-21_01h09.11.654,Info_measure_main_exp,2022.2.2,MacIntel,59.99880002,,,,,,,,,,,,,,,,,,masks/mask_005.jpg,,,,,,,,,,,,,,,,,,,,,,,,,,,,,,,,,,,,,,,,,,,0,3,3,4,1,,,,,,,,,,,,,,,,,,,,,,,,,,,,,,,,,,,,,,,,,,,,,,
244118,001,2022-11-21_01h09.11.654,Info_measure_main_exp,2022.2.2,MacIntel,59.99880002,,,,,,,,,,,,,,,,,,masks/mask_003.jpg,,,,,,,,,,,,,,,,,,,,,,,,,,,,,,,,,,,,,,,,,,,0,4,4,2,1,,,,,,,,,,,,,,,,,,,,,,,,,,,,,,,,,,,,,,,,,,,,,,
244118,001,2022-11-21_01h09.11.654,Info_measure_main_exp,2022.2.2,MacIntel,59.99880002,,,,,,,,,,,,,,,,,,masks/mask_001.jpg,,,,,,,,,,,,,,,,,,,,,,,,,,,,,,,,,,,,,,,,,,,,,,,,0,0,0,0,1,,,,,,,,,,,,,,,,,,,,,,,,,,,,,,,,,,,,,,,,,
244118,001,2022-11-21_01h09.11.654,Info_measure_main_exp,2022.2.2,MacIntel,59.99880002,,,,,,,,,,,,,,,,,,masks/mask_003.jpg,,,,,,,,,,,,,,,,,,,,,,,,,,,,,,,,,,,,,,,,,,,,,,,,0,1,1,2,1,,,,,,,,,,,,,,,,,,,,,,,,,,,,,,,,,,,,,,,,,
244118,001,2022-11-21_01h09.11.654,Info_measure_main_exp,2022.2.2,MacIntel,59.99880002,,,,,,,,,,,,,,,,,,masks/mask_002.jpg,,,,,,,,,,,,,,,,,,,,,,,,,,,,,,,,,,,,,,,,,,,,,,,,0,2,2,1,1,,,,,,,,,,,,,,,,,,,,,,,,,,,,,,,,,,,,,,,,,
244118,001,2022-11-21_01h09.11.654,Info_measure_main_exp,2022.2.2,MacIntel,59.99880002,,,,,,,,,,,,,,,,,,masks/mask_004.jpg,,,,,,,,,,,,,,,,,,,,,,,,,,,,,,,,,,,,,,,,,,,,,,,,0,3,3,3,1,,,,,,,,,,,,,,,,,,,,,,,,,,,,,,,,,,,,,,,,,
244118,001,2022-11-21_01h09.11.654,Info_measure_main_exp,2022.2.2,MacIntel,59.99880002,,,,,,,,,,,,,,,,,,masks/mask_005.jpg,,,,,,,,,,,,,,,,,,,,,,,,,,,,,,,,,,,,,,,,,,,,,,,,0,4,4,4,1,,,,,,,,,,,,,,,,,,,,,,,,,,,,,,,,,,,,,,,,,
244118,001,2022-11-21_01h09.11.654,Info_measure_main_exp,2022.2.2,MacIntel,59.99880002,,,,,,,,,,,,,,,,,,,,,,,,,,,,,,4,2.6827,1,,,,,,,,,,,,0,131,5,5,1950,2298,absent_patch/patch0001950.jpg,absent_patch/patch0002298.jpg,,,,,,,,,,,,,,,,,,,,0.054659763,-0.12172187,1,0,0,response3disk,17,0.005432536,0.000787828,1,0,0,center_square,0,16,16,18,1,,,,,,,,,,,,,,,,,,,,,,,
244118,001,2022-11-21_01h09.11.654,Info_measure_main_exp,2022.2.2,MacIntel,59.99880002,,,,,,,,,,,,,,,,,,masks/mask_005.jpg,,,,,,,,,,,,,,,,,,,,,,,,,,,,,,,,,,,,,,,,,,,0,0,0,4,1,,,,,,,,,,,,,,,,,,,,,,,,,,,,,,,,,,,,,,,,,,,,,,
244118,001,2022-11-21_01h09.11.654,Info_measure_main_exp,2022.2.2,MacIntel,59.99880002,,,,,,,,,,,,,,,,,,masks/mask_004.jpg,,,,,,,,,,,,,,,,,,,,,,,,,,,,,,,,,,,,,,,,,,,0,1,1,3,1,,,,,,,,,,,,,,,,,,,,,,,,,,,,,,,,,,,,,,,,,,,,,,
244118,001,2022-11-21_01h09.11.654,Info_measure_main_exp,2022.2.2,MacIntel,59.99880002,,,,,,,,,,,,,,,,,,masks/mask_002.jpg,,,,,,,,,,,,,,,,,,,,,,,,,,,,,,,,,,,,,,,,,,,0,2,2,1,1,,,,,,,,,,,,,,,,,,,,,,,,,,,,,,,,,,,,,,,,,,,,,,
244118,001,2022-11-21_01h09.11.654,Info_measure_main_exp,2022.2.2,MacIntel,59.99880002,,,,,,,,,,,,,,,,,,masks/mask_003.jpg,,,,,,,,,,,,,,,,,,,,,,,,,,,,,,,,,,,,,,,,,,,0,3,3,2,1,,,,,,,,,,,,,,,,,,,,,,,,,,,,,,,,,,,,,,,,,,,,,,
244118,001,2022-11-21_01h09.11.654,Info_measure_main_exp,2022.2.2,MacIntel,59.99880002,,,,,,,,,,,,,,,,,,masks/mask_001.jpg,,,,,,,,,,,,,,,,,,,,,,,,,,,,,,,,,,,,,,,,,,,0,4,4,0,1,,,,,,,,,,,,,,,,,,,,,,,,,,,,,,,,,,,,,,,,,,,,,,
244118,001,2022-11-21_01h09.11.654,Info_measure_main_exp,2022.2.2,MacIntel,59.99880002,,,,,,,,,,,,,,,,,,masks/mask_005.jpg,,,,,,,,,,,,,,,,,,,,,,,,,,,,,,,,,,,,,,,,,,,,,,,,0,0,0,4,1,,,,,,,,,,,,,,,,,,,,,,,,,,,,,,,,,,,,,,,,,
244118,001,2022-11-21_01h09.11.654,Info_measure_main_exp,2022.2.2,MacIntel,59.99880002,,,,,,,,,,,,,,,,,,masks/mask_002.jpg,,,,,,,,,,,,,,,,,,,,,,,,,,,,,,,,,,,,,,,,,,,,,,,,0,1,1,1,1,,,,,,,,,,,,,,,,,,,,,,,,,,,,,,,,,,,,,,,,,
244118,001,2022-11-21_01h09.11.654,Info_measure_main_exp,2022.2.2,MacIntel,59.99880002,,,,,,,,,,,,,,,,,,masks/mask_001.jpg,,,,,,,,,,,,,,,,,,,,,,,,,,,,,,,,,,,,,,,,,,,,,,,,0,2,2,0,1,,,,,,,,,,,,,,,,,,,,,,,,,,,,,,,,,,,,,,,,,
244118,001,2022-11-21_01h09.11.654,Info_measure_main_exp,2022.2.2,MacIntel,59.99880002,,,,,,,,,,,,,,,,,,masks/mask_003.jpg,,,,,,,,,,,,,,,,,,,,,,,,,,,,,,,,,,,,,,,,,,,,,,,,0,3,3,2,1,,,,,,,,,,,,,,,,,,,,,,,,,,,,,,,,,,,,,,,,,
244118,001,2022-11-21_01h09.11.654,Info_measure_main_exp,2022.2.2,MacIntel,59.99880002,,,,,,,,,,,,,,,,,,masks/mask_004.jpg,,,,,,,,,,,,,,,,,,,,,,,,,,,,,,,,,,,,,,,,,,,,,,,,0,4,4,3,1,,,,,,,,,,,,,,,,,,,,,,,,,,,,,,,,,,,,,,,,,
244118,001,2022-11-21_01h09.11.654,Info_measure_main_exp,2022.2.2,MacIntel,59.99880002,,,,,,,,,,,,,,,,,,,,,,,,,,,,,,5,1.9842,1,,,,,,,,,,,,0,131,5,5,2082,2250,absent_patch/patch0002082.jpg,absent_patch/patch0002250.jpg,,,,,,,,,,,,,,,,,,,,0.108647054,-0.04308648,1,0,0,response3disk,18,-0.006943766,-0.005783556,1,0,0,center_square,0,17,17,3,1,,,,,,,,,,,,,,,,,,,,,,,
244118,001,2022-11-21_01h09.11.654,Info_measure_main_exp,2022.2.2,MacIntel,59.99880002,,,,,,,,,,,,,,,,,,masks/mask_002.jpg,,,,,,,,,,,,,,,,,,,,,,,,,,,,,,,,,,,,,,,,,,,0,0,0,1,1,,,,,,,,,,,,,,,,,,,,,,,,,,,,,,,,,,,,,,,,,,,,,,
244118,001,2022-11-21_01h09.11.654,Info_measure_main_exp,2022.2.2,MacIntel,59.99880002,,,,,,,,,,,,,,,,,,masks/mask_005.jpg,,,,,,,,,,,,,,,,,,,,,,,,,,,,,,,,,,,,,,,,,,,0,1,1,4,1,,,,,,,,,,,,,,,,,,,,,,,,,,,,,,,,,,,,,,,,,,,,,,
244118,001,2022-11-21_01h09.11.654,Info_measure_main_exp,2022.2.2,MacIntel,59.99880002,,,,,,,,,,,,,,,,,,masks/mask_004.jpg,,,,,,,,,,,,,,,,,,,,,,,,,,,,,,,,,,,,,,,,,,,0,2,2,3,1,,,,,,,,,,,,,,,,,,,,,,,,,,,,,,,,,,,,,,,,,,,,,,
244118,001,2022-11-21_01h09.11.654,Info_measure_main_exp,2022.2.2,MacIntel,59.99880002,,,,,,,,,,,,,,,,,,masks/mask_001.jpg,,,,,,,,,,,,,,,,,,,,,,,,,,,,,,,,,,,,,,,,,,,0,3,3,0,1,,,,,,,,,,,,,,,,,,,,,,,,,,,,,,,,,,,,,,,,,,,,,,
244118,001,2022-11-21_01h09.11.654,Info_measure_main_exp,2022.2.2,MacIntel,59.99880002,,,,,,,,,,,,,,,,,,masks/mask_003.jpg,,,,,,,,,,,,,,,,,,,,,,,,,,,,,,,,,,,,,,,,,,,0,4,4,2,1,,,,,,,,,,,,,,,,,,,,,,,,,,,,,,,,,,,,,,,,,,,,,,
244118,001,2022-11-21_01h09.11.654,Info_measure_main_exp,2022.2.2,MacIntel,59.99880002,,,,,,,,,,,,,,,,,,masks/mask_001.jpg,,,,,,,,,,,,,,,,,,,,,,,,,,,,,,,,,,,,,,,,,,,,,,,,0,0,0,0,1,,,,,,,,,,,,,,,,,,,,,,,,,,,,,,,,,,,,,,,,,
244118,001,2022-11-21_01h09.11.654,Info_measure_main_exp,2022.2.2,MacIntel,59.99880002,,,,,,,,,,,,,,,,,,masks/mask_003.jpg,,,,,,,,,,,,,,,,,,,,,,,,,,,,,,,,,,,,,,,,,,,,,,,,0,1,1,2,1,,,,,,,,,,,,,,,,,,,,,,,,,,,,,,,,,,,,,,,,,
244118,001,2022-11-21_01h09.11.654,Info_measure_main_exp,2022.2.2,MacIntel,59.99880002,,,,,,,,,,,,,,,,,,masks/mask_002.jpg,,,,,,,,,,,,,,,,,,,,,,,,,,,,,,,,,,,,,,,,,,,,,,,,0,2,2,1,1,,,,,,,,,,,,,,,,,,,,,,,,,,,,,,,,,,,,,,,,,
244118,001,2022-11-21_01h09.11.654,Info_measure_main_exp,2022.2.2,MacIntel,59.99880002,,,,,,,,,,,,,,,,,,masks/mask_004.jpg,,,,,,,,,,,,,,,,,,,,,,,,,,,,,,,,,,,,,,,,,,,,,,,,0,3,3,3,1,,,,,,,,,,,,,,,,,,,,,,,,,,,,,,,,,,,,,,,,,
244118,001,2022-11-21_01h09.11.654,Info_measure_main_exp,2022.2.2,MacIntel,59.99880002,,,,,,,,,,,,,,,,,,masks/mask_005.jpg,,,,,,,,,,,,,,,,,,,,,,,,,,,,,,,,,,,,,,,,,,,,,,,,0,4,4,4,1,,,,,,,,,,,,,,,,,,,,,,,,,,,,,,,,,,,,,,,,,
244118,001,2022-11-21_01h09.11.654,Info_measure_main_exp,2022.2.2,MacIntel,59.99880002,,,,,,,,,,,,,,,,,,,,,,,,,,,,,,5,1.8827,1,,,,,,,,,,,,0,131,5,5,2190,1950,absent_patch/patch0002190.jpg,absent_patch/patch0001950.jpg,,,,,,,,,,,,,,,,,,,,0.131240302,-0.042791273,1,0,0,response3disk,19,0.001340671,-0.007062887,1,0,0,center_square,0,18,18,73,1,,,,,,,,,,,,,,,,,,,,,,,
244118,001,2022-11-21_01h09.11.654,Info_measure_main_exp,2022.2.2,MacIntel,59.99880002,,,,,,,,,,,,,,,,,,masks/mask_002.jpg,,,,,,,,,,,,,,,,,,,,,,,,,,,,,,,,,,,,,,,,,,,0,0,0,1,1,,,,,,,,,,,,,,,,,,,,,,,,,,,,,,,,,,,,,,,,,,,,,,
244118,001,2022-11-21_01h09.11.654,Info_measure_main_exp,2022.2.2,MacIntel,59.99880002,,,,,,,,,,,,,,,,,,masks/mask_003.jpg,,,,,,,,,,,,,,,,,,,,,,,,,,,,,,,,,,,,,,,,,,,0,1,1,2,1,,,,,,,,,,,,,,,,,,,,,,,,,,,,,,,,,,,,,,,,,,,,,,
244118,001,2022-11-21_01h09.11.654,Info_measure_main_exp,2022.2.2,MacIntel,59.99880002,,,,,,,,,,,,,,,,,,masks/mask_001.jpg,,,,,,,,,,,,,,,,,,,,,,,,,,,,,,,,,,,,,,,,,,,0,2,2,0,1,,,,,,,,,,,,,,,,,,,,,,,,,,,,,,,,,,,,,,,,,,,,,,
244118,001,2022-11-21_01h09.11.654,Info_measure_main_exp,2022.2.2,MacIntel,59.99880002,,,,,,,,,,,,,,,,,,masks/mask_005.jpg,,,,,,,,,,,,,,,,,,,,,,,,,,,,,,,,,,,,,,,,,,,0,3,3,4,1,,,,,,,,,,,,,,,,,,,,,,,,,,,,,,,,,,,,,,,,,,,,,,
244118,001,2022-11-21_01h09.11.654,Info_measure_main_exp,2022.2.2,MacIntel,59.99880002,,,,,,,,,,,,,,,,,,masks/mask_004.jpg,,,,,,,,,,,,,,,,,,,,,,,,,,,,,,,,,,,,,,,,,,,0,4,4,3,1,,,,,,,,,,,,,,,,,,,,,,,,,,,,,,,,,,,,,,,,,,,,,,
244118,001,2022-11-21_01h09.11.654,Info_measure_main_exp,2022.2.2,MacIntel,59.99880002,,,,,,,,,,,,,,,,,,masks/mask_004.jpg,,,,,,,,,,,,,,,,,,,,,,,,,,,,,,,,,,,,,,,,,,,,,,,,0,0,0,3,1,,,,,,,,,,,,,,,,,,,,,,,,,,,,,,,,,,,,,,,,,
244118,001,2022-11-21_01h09.11.654,Info_measure_main_exp,2022.2.2,MacIntel,59.99880002,,,,,,,,,,,,,,,,,,masks/mask_001.jpg,,,,,,,,,,,,,,,,,,,,,,,,,,,,,,,,,,,,,,,,,,,,,,,,0,1,1,0,1,,,,,,,,,,,,,,,,,,,,,,,,,,,,,,,,,,,,,,,,,
244118,001,2022-11-21_01h09.11.654,Info_measure_main_exp,2022.2.2,MacIntel,59.99880002,,,,,,,,,,,,,,,,,,masks/mask_003.jpg,,,,,,,,,,,,,,,,,,,,,,,,,,,,,,,,,,,,,,,,,,,,,,,,0,2,2,2,1,,,,,,,,,,,,,,,,,,,,,,,,,,,,,,,,,,,,,,,,,
244118,001,2022-11-21_01h09.11.654,Info_measure_main_exp,2022.2.2,MacIntel,59.99880002,,,,,,,,,,,,,,,,,,masks/mask_005.jpg,,,,,,,,,,,,,,,,,,,,,,,,,,,,,,,,,,,,,,,,,,,,,,,,0,3,3,4,1,,,,,,,,,,,,,,,,,,,,,,,,,,,,,,,,,,,,,,,,,
244118,001,2022-11-21_01h09.11.654,Info_measure_main_exp,2022.2.2,MacIntel,59.99880002,,,,,,,,,,,,,,,,,,masks/mask_002.jpg,,,,,,,,,,,,,,,,,,,,,,,,,,,,,,,,,,,,,,,,,,,,,,,,0,4,4,1,1,,,,,,,,,,,,,,,,,,,,,,,,,,,,,,,,,,,,,,,,,
244118,001,2022-11-21_01h09.11.654,Info_measure_main_exp,2022.2.2,MacIntel,59.99880002,,,,,,,,,,,,,,,,,,,,,,,,,,,,,,6,1.2694,1,,,,,,,,,,,,0,131,5,5,2154,2250,absent_patch/patch0002154.jpg,absent_patch/patch0002250.jpg,,,,,,,,,,,,,,,,,,,,0.150809733,0.047187839,1,0,0,response1disk,20,0.005442369,-0.002498644,1,0,0,center_square,0,19,19,108,1,,,,,,,,,,,,,,,,,,,,,,,
244118,001,2022-11-21_01h09.11.654,Info_measure_main_exp,2022.2.2,MacIntel,59.99880002,,,,,,,,,,,,,,,,,,masks/mask_004.jpg,,,,,,,,,,,,,,,,,,,,,,,,,,,,,,,,,,,,,,,,,,,0,0,0,3,1,,,,,,,,,,,,,,,,,,,,,,,,,,,,,,,,,,,,,,,,,,,,,,
244118,001,2022-11-21_01h09.11.654,Info_measure_main_exp,2022.2.2,MacIntel,59.99880002,,,,,,,,,,,,,,,,,,masks/mask_002.jpg,,,,,,,,,,,,,,,,,,,,,,,,,,,,,,,,,,,,,,,,,,,0,1,1,1,1,,,,,,,,,,,,,,,,,,,,,,,,,,,,,,,,,,,,,,,,,,,,,,
244118,001,2022-11-21_01h09.11.654,Info_measure_main_exp,2022.2.2,MacIntel,59.99880002,,,,,,,,,,,,,,,,,,masks/mask_003.jpg,,,,,,,,,,,,,,,,,,,,,,,,,,,,,,,,,,,,,,,,,,,0,2,2,2,1,,,,,,,,,,,,,,,,,,,,,,,,,,,,,,,,,,,,,,,,,,,,,,
244118,001,2022-11-21_01h09.11.654,Info_measure_main_exp,2022.2.2,MacIntel,59.99880002,,,,,,,,,,,,,,,,,,masks/mask_005.jpg,,,,,,,,,,,,,,,,,,,,,,,,,,,,,,,,,,,,,,,,,,,0,3,3,4,1,,,,,,,,,,,,,,,,,,,,,,,,,,,,,,,,,,,,,,,,,,,,,,
244118,001,2022-11-21_01h09.11.654,Info_measure_main_exp,2022.2.2,MacIntel,59.99880002,,,,,,,,,,,,,,,,,,masks/mask_001.jpg,,,,,,,,,,,,,,,,,,,,,,,,,,,,,,,,,,,,,,,,,,,0,4,4,0,1,,,,,,,,,,,,,,,,,,,,,,,,,,,,,,,,,,,,,,,,,,,,,,
244118,001,2022-11-21_01h09.11.654,Info_measure_main_exp,2022.2.2,MacIntel,59.99880002,,,,,,,,,,,,,,,,,,masks/mask_001.jpg,,,,,,,,,,,,,,,,,,,,,,,,,,,,,,,,,,,,,,,,,,,,,,,,0,0,0,0,1,,,,,,,,,,,,,,,,,,,,,,,,,,,,,,,,,,,,,,,,,
244118,001,2022-11-21_01h09.11.654,Info_measure_main_exp,2022.2.2,MacIntel,59.99880002,,,,,,,,,,,,,,,,,,masks/mask_004.jpg,,,,,,,,,,,,,,,,,,,,,,,,,,,,,,,,,,,,,,,,,,,,,,,,0,1,1,3,1,,,,,,,,,,,,,,,,,,,,,,,,,,,,,,,,,,,,,,,,,
244118,001,2022-11-21_01h09.11.654,Info_measure_main_exp,2022.2.2,MacIntel,59.99880002,,,,,,,,,,,,,,,,,,masks/mask_003.jpg,,,,,,,,,,,,,,,,,,,,,,,,,,,,,,,,,,,,,,,,,,,,,,,,0,2,2,2,1,,,,,,,,,,,,,,,,,,,,,,,,,,,,,,,,,,,,,,,,,
244118,001,2022-11-21_01h09.11.654,Info_measure_main_exp,2022.2.2,MacIntel,59.99880002,,,,,,,,,,,,,,,,,,masks/mask_002.jpg,,,,,,,,,,,,,,,,,,,,,,,,,,,,,,,,,,,,,,,,,,,,,,,,0,3,3,1,1,,,,,,,,,,,,,,,,,,,,,,,,,,,,,,,,,,,,,,,,,
244118,001,2022-11-21_01h09.11.654,Info_measure_main_exp,2022.2.2,MacIntel,59.99880002,,,,,,,,,,,,,,,,,,masks/mask_005.jpg,,,,,,,,,,,,,,,,,,,,,,,,,,,,,,,,,,,,,,,,,,,,,,,,0,4,4,4,1,,,,,,,,,,,,,,,,,,,,,,,,,,,,,,,,,,,,,,,,,
244118,001,2022-11-21_01h09.11.654,Info_measure_main_exp,2022.2.2,MacIntel,59.99880002,,,,,,,,,,,,,,,,,,,,,,,,,,,,,,3,3.6491,1,,,,,,,,,,,,0,131,5,5,2250,1950,absent_patch/patch0002250.jpg,absent_patch/patch0001950.jpg,,,,,,,,,,,,,,,,,,,,-0.044695095,-0.111098022,1,0,0,response5disk,21,0.007428453,-0.001873372,1,0,0,center_square,0,20,20,16,1,,,,,,,,,,,,,,,,,,,,,,,
244118,001,2022-11-21_01h09.11.654,Info_measure_main_exp,2022.2.2,MacIntel,59.99880002,,,,,,,,,,,,,,,,,,masks/mask_001.jpg,,,,,,,,,,,,,,,,,,,,,,,,,,,,,,,,,,,,,,,,,,,0,0,0,0,1,,,,,,,,,,,,,,,,,,,,,,,,,,,,,,,,,,,,,,,,,,,,,,
244118,001,2022-11-21_01h09.11.654,Info_measure_main_exp,2022.2.2,MacIntel,59.99880002,,,,,,,,,,,,,,,,,,masks/mask_003.jpg,,,,,,,,,,,,,,,,,,,,,,,,,,,,,,,,,,,,,,,,,,,0,1,1,2,1,,,,,,,,,,,,,,,,,,,,,,,,,,,,,,,,,,,,,,,,,,,,,,
244118,001,2022-11-21_01h09.11.654,Info_measure_main_exp,2022.2.2,MacIntel,59.99880002,,,,,,,,,,,,,,,,,,masks/mask_002.jpg,,,,,,,,,,,,,,,,,,,,,,,,,,,,,,,,,,,,,,,,,,,0,2,2,1,1,,,,,,,,,,,,,,,,,,,,,,,,,,,,,,,,,,,,,,,,,,,,,,
244118,001,2022-11-21_01h09.11.654,Info_measure_main_exp,2022.2.2,MacIntel,59.99880002,,,,,,,,,,,,,,,,,,masks/mask_005.jpg,,,,,,,,,,,,,,,,,,,,,,,,,,,,,,,,,,,,,,,,,,,0,3,3,4,1,,,,,,,,,,,,,,,,,,,,,,,,,,,,,,,,,,,,,,,,,,,,,,
244118,001,2022-11-21_01h09.11.654,Info_measure_main_exp,2022.2.2,MacIntel,59.99880002,,,,,,,,,,,,,,,,,,masks/mask_004.jpg,,,,,,,,,,,,,,,,,,,,,,,,,,,,,,,,,,,,,,,,,,,0,4,4,3,1,,,,,,,,,,,,,,,,,,,,,,,,,,,,,,,,,,,,,,,,,,,,,,
244118,001,2022-11-21_01h09.11.654,Info_measure_main_exp,2022.2.2,MacIntel,59.99880002,,,,,,,,,,,,,,,,,,masks/mask_005.jpg,,,,,,,,,,,,,,,,,,,,,,,,,,,,,,,,,,,,,,,,,,,,,,,,0,0,0,4,1,,,,,,,,,,,,,,,,,,,,,,,,,,,,,,,,,,,,,,,,,
244118,001,2022-11-21_01h09.11.654,Info_measure_main_exp,2022.2.2,MacIntel,59.99880002,,,,,,,,,,,,,,,,,,masks/mask_003.jpg,,,,,,,,,,,,,,,,,,,,,,,,,,,,,,,,,,,,,,,,,,,,,,,,0,1,1,2,1,,,,,,,,,,,,,,,,,,,,,,,,,,,,,,,,,,,,,,,,,
244118,001,2022-11-21_01h09.11.654,Info_measure_main_exp,2022.2.2,MacIntel,59.99880002,,,,,,,,,,,,,,,,,,masks/mask_002.jpg,,,,,,,,,,,,,,,,,,,,,,,,,,,,,,,,,,,,,,,,,,,,,,,,0,2,2,1,1,,,,,,,,,,,,,,,,,,,,,,,,,,,,,,,,,,,,,,,,,
244118,001,2022-11-21_01h09.11.654,Info_measure_main_exp,2022.2.2,MacIntel,59.99880002,,,,,,,,,,,,,,,,,,masks/mask_001.jpg,,,,,,,,,,,,,,,,,,,,,,,,,,,,,,,,,,,,,,,,,,,,,,,,0,3,3,0,1,,,,,,,,,,,,,,,,,,,,,,,,,,,,,,,,,,,,,,,,,
244118,001,2022-11-21_01h09.11.654,Info_measure_main_exp,2022.2.2,MacIntel,59.99880002,,,,,,,,,,,,,,,,,,masks/mask_004.jpg,,,,,,,,,,,,,,,,,,,,,,,,,,,,,,,,,,,,,,,,,,,,,,,,0,4,4,3,1,,,,,,,,,,,,,,,,,,,,,,,,,,,,,,,,,,,,,,,,,
244118,001,2022-11-21_01h09.11.654,Info_measure_main_exp,2022.2.2,MacIntel,59.99880002,,,,,,,,,,,,,,,,,,,,,,,,,,,,,,5,1.8165,1,,,,,,,,,,,,0,131,5,5,2142,2166,absent_patch/patch0002142.jpg,absent_patch/patch0002166.jpg,,,,,,,,,,,,,,,,,,,,0.103543362,-0.024717407,1,0,0,response3disk,22,-0.005849202,-0.005150621,1,0,0,center_square,0,21,21,66,1,,,,,,,,,,,,,,,,,,,,,,,
244118,001,2022-11-21_01h09.11.654,Info_measure_main_exp,2022.2.2,MacIntel,59.99880002,,,,,,,,,,,,,,,,,,masks/mask_002.jpg,,,,,,,,,,,,,,,,,,,,,,,,,,,,,,,,,,,,,,,,,,,0,0,0,1,1,,,,,,,,,,,,,,,,,,,,,,,,,,,,,,,,,,,,,,,,,,,,,,
244118,001,2022-11-21_01h09.11.654,Info_measure_main_exp,2022.2.2,MacIntel,59.99880002,,,,,,,,,,,,,,,,,,masks/mask_005.jpg,,,,,,,,,,,,,,,,,,,,,,,,,,,,,,,,,,,,,,,,,,,0,1,1,4,1,,,,,,,,,,,,,,,,,,,,,,,,,,,,,,,,,,,,,,,,,,,,,,
244118,001,2022-11-21_01h09.11.654,Info_measure_main_exp,2022.2.2,MacIntel,59.99880002,,,,,,,,,,,,,,,,,,masks/mask_003.jpg,,,,,,,,,,,,,,,,,,,,,,,,,,,,,,,,,,,,,,,,,,,0,2,2,2,1,,,,,,,,,,,,,,,,,,,,,,,,,,,,,,,,,,,,,,,,,,,,,,
244118,001,2022-11-21_01h09.11.654,Info_measure_main_exp,2022.2.2,MacIntel,59.99880002,,,,,,,,,,,,,,,,,,masks/mask_001.jpg,,,,,,,,,,,,,,,,,,,,,,,,,,,,,,,,,,,,,,,,,,,0,3,3,0,1,,,,,,,,,,,,,,,,,,,,,,,,,,,,,,,,,,,,,,,,,,,,,,
244118,001,2022-11-21_01h09.11.654,Info_measure_main_exp,2022.2.2,MacIntel,59.99880002,,,,,,,,,,,,,,,,,,masks/mask_004.jpg,,,,,,,,,,,,,,,,,,,,,,,,,,,,,,,,,,,,,,,,,,,0,4,4,3,1,,,,,,,,,,,,,,,,,,,,,,,,,,,,,,,,,,,,,,,,,,,,,,
244118,001,2022-11-21_01h09.11.654,Info_measure_main_exp,2022.2.2,MacIntel,59.99880002,,,,,,,,,,,,,,,,,,masks/mask_005.jpg,,,,,,,,,,,,,,,,,,,,,,,,,,,,,,,,,,,,,,,,,,,,,,,,0,0,0,4,1,,,,,,,,,,,,,,,,,,,,,,,,,,,,,,,,,,,,,,,,,
244118,001,2022-11-21_01h09.11.654,Info_measure_main_exp,2022.2.2,MacIntel,59.99880002,,,,,,,,,,,,,,,,,,masks/mask_003.jpg,,,,,,,,,,,,,,,,,,,,,,,,,,,,,,,,,,,,,,,,,,,,,,,,0,1,1,2,1,,,,,,,,,,,,,,,,,,,,,,,,,,,,,,,,,,,,,,,,,
244118,001,2022-11-21_01h09.11.654,Info_measure_main_exp,2022.2.2,MacIntel,59.99880002,,,,,,,,,,,,,,,,,,masks/mask_002.jpg,,,,,,,,,,,,,,,,,,,,,,,,,,,,,,,,,,,,,,,,,,,,,,,,0,2,2,1,1,,,,,,,,,,,,,,,,,,,,,,,,,,,,,,,,,,,,,,,,,
244118,001,2022-11-21_01h09.11.654,Info_measure_main_exp,2022.2.2,MacIntel,59.99880002,,,,,,,,,,,,,,,,,,masks/mask_001.jpg,,,,,,,,,,,,,,,,,,,,,,,,,,,,,,,,,,,,,,,,,,,,,,,,0,3,3,0,1,,,,,,,,,,,,,,,,,,,,,,,,,,,,,,,,,,,,,,,,,
244118,001,2022-11-21_01h09.11.654,Info_measure_main_exp,2022.2.2,MacIntel,59.99880002,,,,,,,,,,,,,,,,,,masks/mask_004.jpg,,,,,,,,,,,,,,,,,,,,,,,,,,,,,,,,,,,,,,,,,,,,,,,,0,4,4,3,1,,,,,,,,,,,,,,,,,,,,,,,,,,,,,,,,,,,,,,,,,
244118,001,2022-11-21_01h09.11.654,Info_measure_main_exp,2022.2.2,MacIntel,59.99880002,,,,,,,,,,,,,,,,,,,,,,,,,,,,,,5,3.3327,1,,,,,,,,,,,,0,131,5,5,1950,2142,absent_patch/patch0001950.jpg,absent_patch/patch0002142.jpg,,,,,,,,,,,,,,,,,,,,0.156499837,-0.055360921,1,0,0,response3disk,23,0.008773261,0.005930006,1,0,0,center_square,0,22,22,83,1,,,,,,,,,,,,,,,,,,,,,,,
244118,001,2022-11-21_01h09.11.654,Info_measure_main_exp,2022.2.2,MacIntel,59.99880002,,,,,,,,,,,,,,,,,,masks/mask_003.jpg,,,,,,,,,,,,,,,,,,,,,,,,,,,,,,,,,,,,,,,,,,,0,0,0,2,1,,,,,,,,,,,,,,,,,,,,,,,,,,,,,,,,,,,,,,,,,,,,,,
244118,001,2022-11-21_01h09.11.654,Info_measure_main_exp,2022.2.2,MacIntel,59.99880002,,,,,,,,,,,,,,,,,,masks/mask_002.jpg,,,,,,,,,,,,,,,,,,,,,,,,,,,,,,,,,,,,,,,,,,,0,1,1,1,1,,,,,,,,,,,,,,,,,,,,,,,,,,,,,,,,,,,,,,,,,,,,,,
244118,001,2022-11-21_01h09.11.654,Info_measure_main_exp,2022.2.2,MacIntel,59.99880002,,,,,,,,,,,,,,,,,,masks/mask_005.jpg,,,,,,,,,,,,,,,,,,,,,,,,,,,,,,,,,,,,,,,,,,,0,2,2,4,1,,,,,,,,,,,,,,,,,,,,,,,,,,,,,,,,,,,,,,,,,,,,,,
244118,001,2022-11-21_01h09.11.654,Info_measure_main_exp,2022.2.2,MacIntel,59.99880002,,,,,,,,,,,,,,,,,,masks/mask_001.jpg,,,,,,,,,,,,,,,,,,,,,,,,,,,,,,,,,,,,,,,,,,,0,3,3,0,1,,,,,,,,,,,,,,,,,,,,,,,,,,,,,,,,,,,,,,,,,,,,,,
244118,001,2022-11-21_01h09.11.654,Info_measure_main_exp,2022.2.2,MacIntel,59.99880002,,,,,,,,,,,,,,,,,,masks/mask_004.jpg,,,,,,,,,,,,,,,,,,,,,,,,,,,,,,,,,,,,,,,,,,,0,4,4,3,1,,,,,,,,,,,,,,,,,,,,,,,,,,,,,,,,,,,,,,,,,,,,,,
244118,001,2022-11-21_01h09.11.654,Info_measure_main_exp,2022.2.2,MacIntel,59.99880002,,,,,,,,,,,,,,,,,,masks/mask_001.jpg,,,,,,,,,,,,,,,,,,,,,,,,,,,,,,,,,,,,,,,,,,,,,,,,0,0,0,0,1,,,,,,,,,,,,,,,,,,,,,,,,,,,,,,,,,,,,,,,,,
244118,001,2022-11-21_01h09.11.654,Info_measure_main_exp,2022.2.2,MacIntel,59.99880002,,,,,,,,,,,,,,,,,,masks/mask_004.jpg,,,,,,,,,,,,,,,,,,,,,,,,,,,,,,,,,,,,,,,,,,,,,,,,0,1,1,3,1,,,,,,,,,,,,,,,,,,,,,,,,,,,,,,,,,,,,,,,,,
244118,001,2022-11-21_01h09.11.654,Info_measure_main_exp,2022.2.2,MacIntel,59.99880002,,,,,,,,,,,,,,,,,,masks/mask_003.jpg,,,,,,,,,,,,,,,,,,,,,,,,,,,,,,,,,,,,,,,,,,,,,,,,0,2,2,2,1,,,,,,,,,,,,,,,,,,,,,,,,,,,,,,,,,,,,,,,,,
244118,001,2022-11-21_01h09.11.654,Info_measure_main_exp,2022.2.2,MacIntel,59.99880002,,,,,,,,,,,,,,,,,,masks/mask_002.jpg,,,,,,,,,,,,,,,,,,,,,,,,,,,,,,,,,,,,,,,,,,,,,,,,0,3,3,1,1,,,,,,,,,,,,,,,,,,,,,,,,,,,,,,,,,,,,,,,,,
244118,001,2022-11-21_01h09.11.654,Info_measure_main_exp,2022.2.2,MacIntel,59.99880002,,,,,,,,,,,,,,,,,,masks/mask_005.jpg,,,,,,,,,,,,,,,,,,,,,,,,,,,,,,,,,,,,,,,,,,,,,,,,0,4,4,4,1,,,,,,,,,,,,,,,,,,,,,,,,,,,,,,,,,,,,,,,,,
244118,001,2022-11-21_01h09.11.654,Info_measure_main_exp,2022.2.2,MacIntel,59.99880002,,,,,,,,,,,,,,,,,,,,,,,,,,,,,,0,0.868,1,,,,,,,,,,,,0,131,5,5,2298,2298,absent_patch/patch0002298.jpg,absent_patch/patch0002298.jpg,,,,,,,,,,,,,,,,,,,,-0.035262722,0.098934258,1,0,0,response7disk,24,0.007145793,-0.005999179,1,0,0,center_square,0,23,23,37,1,,,,,,,,,,,,,,,,,,,,,,,
244118,001,2022-11-21_01h09.11.654,Info_measure_main_exp,2022.2.2,MacIntel,59.99880002,,,,,,,,,,,,,,,,,,masks/mask_002.jpg,,,,,,,,,,,,,,,,,,,,,,,,,,,,,,,,,,,,,,,,,,,0,0,0,1,1,,,,,,,,,,,,,,,,,,,,,,,,,,,,,,,,,,,,,,,,,,,,,,
244118,001,2022-11-21_01h09.11.654,Info_measure_main_exp,2022.2.2,MacIntel,59.99880002,,,,,,,,,,,,,,,,,,masks/mask_001.jpg,,,,,,,,,,,,,,,,,,,,,,,,,,,,,,,,,,,,,,,,,,,0,1,1,0,1,,,,,,,,,,,,,,,,,,,,,,,,,,,,,,,,,,,,,,,,,,,,,,
244118,001,2022-11-21_01h09.11.654,Info_measure_main_exp,2022.2.2,MacIntel,59.99880002,,,,,,,,,,,,,,,,,,masks/mask_003.jpg,,,,,,,,,,,,,,,,,,,,,,,,,,,,,,,,,,,,,,,,,,,0,2,2,2,1,,,,,,,,,,,,,,,,,,,,,,,,,,,,,,,,,,,,,,,,,,,,,,
244118,001,2022-11-21_01h09.11.654,Info_measure_main_exp,2022.2.2,MacIntel,59.99880002,,,,,,,,,,,,,,,,,,masks/mask_004.jpg,,,,,,,,,,,,,,,,,,,,,,,,,,,,,,,,,,,,,,,,,,,0,3,3,3,1,,,,,,,,,,,,,,,,,,,,,,,,,,,,,,,,,,,,,,,,,,,,,,
244118,001,2022-11-21_01h09.11.654,Info_measure_main_exp,2022.2.2,MacIntel,59.99880002,,,,,,,,,,,,,,,,,,masks/mask_005.jpg,,,,,,,,,,,,,,,,,,,,,,,,,,,,,,,,,,,,,,,,,,,0,4,4,4,1,,,,,,,,,,,,,,,,,,,,,,,,,,,,,,,,,,,,,,,,,,,,,,
244118,001,2022-11-21_01h09.11.654,Info_measure_main_exp,2022.2.2,MacIntel,59.99880002,,,,,,,,,,,,,,,,,,masks/mask_002.jpg,,,,,,,,,,,,,,,,,,,,,,,,,,,,,,,,,,,,,,,,,,,,,,,,0,0,0,1,1,,,,,,,,,,,,,,,,,,,,,,,,,,,,,,,,,,,,,,,,,
244118,001,2022-11-21_01h09.11.654,Info_measure_main_exp,2022.2.2,MacIntel,59.99880002,,,,,,,,,,,,,,,,,,masks/mask_004.jpg,,,,,,,,,,,,,,,,,,,,,,,,,,,,,,,,,,,,,,,,,,,,,,,,0,1,1,3,1,,,,,,,,,,,,,,,,,,,,,,,,,,,,,,,,,,,,,,,,,
244118,001,2022-11-21_01h09.11.654,Info_measure_main_exp,2022.2.2,MacIntel,59.99880002,,,,,,,,,,,,,,,,,,masks/mask_005.jpg,,,,,,,,,,,,,,,,,,,,,,,,,,,,,,,,,,,,,,,,,,,,,,,,0,2,2,4,1,,,,,,,,,,,,,,,,,,,,,,,,,,,,,,,,,,,,,,,,,
244118,001,2022-11-21_01h09.11.654,Info_measure_main_exp,2022.2.2,MacIntel,59.99880002,,,,,,,,,,,,,,,,,,masks/mask_003.jpg,,,,,,,,,,,,,,,,,,,,,,,,,,,,,,,,,,,,,,,,,,,,,,,,0,3,3,2,1,,,,,,,,,,,,,,,,,,,,,,,,,,,,,,,,,,,,,,,,,
244118,001,2022-11-21_01h09.11.654,Info_measure_main_exp,2022.2.2,MacIntel,59.99880002,,,,,,,,,,,,,,,,,,masks/mask_001.jpg,,,,,,,,,,,,,,,,,,,,,,,,,,,,,,,,,,,,,,,,,,,,,,,,0,4,4,0,1,,,,,,,,,,,,,,,,,,,,,,,,,,,,,,,,,,,,,,,,,
244118,001,2022-11-21_01h09.11.654,Info_measure_main_exp,2022.2.2,MacIntel,59.99880002,,,,,,,,,,,,,,,,,,,,,,,,,,,,,,5,2.6333,1,,,,,,,,,,,,0,131,5,5,2298,2142,absent_patch/patch0002298.jpg,absent_patch/patch0002142.jpg,,,,,,,,,,,,,,,,,,,,0.098509521,-0.03847741,1,0,0,response3disk,25,-0.000927056,0.000932956,1,0,0,center_square,0,24,24,49,1,,,,,,,,,,,,,,,,,,,,,,,
244118,001,2022-11-21_01h09.11.654,Info_measure_main_exp,2022.2.2,MacIntel,59.99880002,,,,,,,,,,,,,,,,,,masks/mask_005.jpg,,,,,,,,,,,,,,,,,,,,,,,,,,,,,,,,,,,,,,,,,,,0,0,0,4,1,,,,,,,,,,,,,,,,,,,,,,,,,,,,,,,,,,,,,,,,,,,,,,
244118,001,2022-11-21_01h09.11.654,Info_measure_main_exp,2022.2.2,MacIntel,59.99880002,,,,,,,,,,,,,,,,,,masks/mask_001.jpg,,,,,,,,,,,,,,,,,,,,,,,,,,,,,,,,,,,,,,,,,,,0,1,1,0,1,,,,,,,,,,,,,,,,,,,,,,,,,,,,,,,,,,,,,,,,,,,,,,
244118,001,2022-11-21_01h09.11.654,Info_measure_main_exp,2022.2.2,MacIntel,59.99880002,,,,,,,,,,,,,,,,,,masks/mask_002.jpg,,,,,,,,,,,,,,,,,,,,,,,,,,,,,,,,,,,,,,,,,,,0,2,2,1,1,,,,,,,,,,,,,,,,,,,,,,,,,,,,,,,,,,,,,,,,,,,,,,
244118,001,2022-11-21_01h09.11.654,Info_measure_main_exp,2022.2.2,MacIntel,59.99880002,,,,,,,,,,,,,,,,,,masks/mask_003.jpg,,,,,,,,,,,,,,,,,,,,,,,,,,,,,,,,,,,,,,,,,,,0,3,3,2,1,,,,,,,,,,,,,,,,,,,,,,,,,,,,,,,,,,,,,,,,,,,,,,
244118,001,2022-11-21_01h09.11.654,Info_measure_main_exp,2022.2.2,MacIntel,59.99880002,,,,,,,,,,,,,,,,,,masks/mask_004.jpg,,,,,,,,,,,,,,,,,,,,,,,,,,,,,,,,,,,,,,,,,,,0,4,4,3,1,,,,,,,,,,,,,,,,,,,,,,,,,,,,,,,,,,,,,,,,,,,,,,
244118,001,2022-11-21_01h09.11.654,Info_measure_main_exp,2022.2.2,MacIntel,59.99880002,,,,,,,,,,,,,,,,,,masks/mask_003.jpg,,,,,,,,,,,,,,,,,,,,,,,,,,,,,,,,,,,,,,,,,,,,,,,,0,0,0,2,1,,,,,,,,,,,,,,,,,,,,,,,,,,,,,,,,,,,,,,,,,
244118,001,2022-11-21_01h09.11.654,Info_measure_main_exp,2022.2.2,MacIntel,59.99880002,,,,,,,,,,,,,,,,,,masks/mask_002.jpg,,,,,,,,,,,,,,,,,,,,,,,,,,,,,,,,,,,,,,,,,,,,,,,,0,1,1,1,1,,,,,,,,,,,,,,,,,,,,,,,,,,,,,,,,,,,,,,,,,
244118,001,2022-11-21_01h09.11.654,Info_measure_main_exp,2022.2.2,MacIntel,59.99880002,,,,,,,,,,,,,,,,,,masks/mask_005.jpg,,,,,,,,,,,,,,,,,,,,,,,,,,,,,,,,,,,,,,,,,,,,,,,,0,2,2,4,1,,,,,,,,,,,,,,,,,,,,,,,,,,,,,,,,,,,,,,,,,
244118,001,2022-11-21_01h09.11.654,Info_measure_main_exp,2022.2.2,MacIntel,59.99880002,,,,,,,,,,,,,,,,,,masks/mask_001.jpg,,,,,,,,,,,,,,,,,,,,,,,,,,,,,,,,,,,,,,,,,,,,,,,,0,3,3,0,1,,,,,,,,,,,,,,,,,,,,,,,,,,,,,,,,,,,,,,,,,
244118,001,2022-11-21_01h09.11.654,Info_measure_main_exp,2022.2.2,MacIntel,59.99880002,,,,,,,,,,,,,,,,,,masks/mask_004.jpg,,,,,,,,,,,,,,,,,,,,,,,,,,,,,,,,,,,,,,,,,,,,,,,,0,4,4,3,1,,,,,,,,,,,,,,,,,,,,,,,,,,,,,,,,,,,,,,,,,
244118,001,2022-11-21_01h09.11.654,Info_measure_main_exp,2022.2.2,MacIntel,59.99880002,,,,,,,,,,,,,,,,,,,,,,,,,,,,,,0,1.4828,1,,,,,,,,,,,,0,131,5,5,2250,2250,absent_patch/patch0002250.jpg,absent_patch/patch0002250.jpg,,,,,,,,,,,,,,,,,,,,-0.087127007,0.153626099,1,0,0,response7disk,26,0.007983263,0.001481595,1,0,0,center_square,0,25,25,56,1,,,,,,,,,,,,,,,,,,,,,,,
244118,001,2022-11-21_01h09.11.654,Info_measure_main_exp,2022.2.2,MacIntel,59.99880002,,,,,,,,,,,,,,,,,,masks/mask_002.jpg,,,,,,,,,,,,,,,,,,,,,,,,,,,,,,,,,,,,,,,,,,,0,0,0,1,1,,,,,,,,,,,,,,,,,,,,,,,,,,,,,,,,,,,,,,,,,,,,,,
244118,001,2022-11-21_01h09.11.654,Info_measure_main_exp,2022.2.2,MacIntel,59.99880002,,,,,,,,,,,,,,,,,,masks/mask_005.jpg,,,,,,,,,,,,,,,,,,,,,,,,,,,,,,,,,,,,,,,,,,,0,1,1,4,1,,,,,,,,,,,,,,,,,,,,,,,,,,,,,,,,,,,,,,,,,,,,,,
244118,001,2022-11-21_01h09.11.654,Info_measure_main_exp,2022.2.2,MacIntel,59.99880002,,,,,,,,,,,,,,,,,,masks/mask_004.jpg,,,,,,,,,,,,,,,,,,,,,,,,,,,,,,,,,,,,,,,,,,,0,2,2,3,1,,,,,,,,,,,,,,,,,,,,,,,,,,,,,,,,,,,,,,,,,,,,,,
244118,001,2022-11-21_01h09.11.654,Info_measure_main_exp,2022.2.2,MacIntel,59.99880002,,,,,,,,,,,,,,,,,,masks/mask_003.jpg,,,,,,,,,,,,,,,,,,,,,,,,,,,,,,,,,,,,,,,,,,,0,3,3,2,1,,,,,,,,,,,,,,,,,,,,,,,,,,,,,,,,,,,,,,,,,,,,,,
244118,001,2022-11-21_01h09.11.654,Info_measure_main_exp,2022.2.2,MacIntel,59.99880002,,,,,,,,,,,,,,,,,,masks/mask_001.jpg,,,,,,,,,,,,,,,,,,,,,,,,,,,,,,,,,,,,,,,,,,,0,4,4,0,1,,,,,,,,,,,,,,,,,,,,,,,,,,,,,,,,,,,,,,,,,,,,,,
244118,001,2022-11-21_01h09.11.654,Info_measure_main_exp,2022.2.2,MacIntel,59.99880002,,,,,,,,,,,,,,,,,,masks/mask_003.jpg,,,,,,,,,,,,,,,,,,,,,,,,,,,,,,,,,,,,,,,,,,,,,,,,0,0,0,2,1,,,,,,,,,,,,,,,,,,,,,,,,,,,,,,,,,,,,,,,,,
244118,001,2022-11-21_01h09.11.654,Info_measure_main_exp,2022.2.2,MacIntel,59.99880002,,,,,,,,,,,,,,,,,,masks/mask_001.jpg,,,,,,,,,,,,,,,,,,,,,,,,,,,,,,,,,,,,,,,,,,,,,,,,0,1,1,0,1,,,,,,,,,,,,,,,,,,,,,,,,,,,,,,,,,,,,,,,,,
244118,001,2022-11-21_01h09.11.654,Info_measure_main_exp,2022.2.2,MacIntel,59.99880002,,,,,,,,,,,,,,,,,,masks/mask_002.jpg,,,,,,,,,,,,,,,,,,,,,,,,,,,,,,,,,,,,,,,,,,,,,,,,0,2,2,1,1,,,,,,,,,,,,,,,,,,,,,,,,,,,,,,,,,,,,,,,,,
244118,001,2022-11-21_01h09.11.654,Info_measure_main_exp,2022.2.2,MacIntel,59.99880002,,,,,,,,,,,,,,,,,,masks/mask_004.jpg,,,,,,,,,,,,,,,,,,,,,,,,,,,,,,,,,,,,,,,,,,,,,,,,0,3,3,3,1,,,,,,,,,,,,,,,,,,,,,,,,,,,,,,,,,,,,,,,,,
244118,001,2022-11-21_01h09.11.654,Info_measure_main_exp,2022.2.2,MacIntel,59.99880002,,,,,,,,,,,,,,,,,,masks/mask_005.jpg,,,,,,,,,,,,,,,,,,,,,,,,,,,,,,,,,,,,,,,,,,,,,,,,0,4,4,4,1,,,,,,,,,,,,,,,,,,,,,,,,,,,,,,,,,,,,,,,,,
244118,001,2022-11-21_01h09.11.654,Info_measure_main_exp,2022.2.2,MacIntel,59.99880002,,,,,,,,,,,,,,,,,,,,,,,,,,,,,,7,1.2504,1,,,,,,,,,,,,0,131,5,5,1986,1950,absent_patch/patch0001986.jpg,absent_patch/patch0001950.jpg,,,,,,,,,,,,,,,,,,,,0.032779134,0.122730781,1,0,0,response1disk,27,-5.41178E-05,0.00789388,1,0,0,center_square,0,26,26,15,1,,,,,,,,,,,,,,,,,,,,,,,
244118,001,2022-11-21_01h09.11.654,Info_measure_main_exp,2022.2.2,MacIntel,59.99880002,,,,,,,,,,,,,,,,,,masks/mask_003.jpg,,,,,,,,,,,,,,,,,,,,,,,,,,,,,,,,,,,,,,,,,,,0,0,0,2,1,,,,,,,,,,,,,,,,,,,,,,,,,,,,,,,,,,,,,,,,,,,,,,
244118,001,2022-11-21_01h09.11.654,Info_measure_main_exp,2022.2.2,MacIntel,59.99880002,,,,,,,,,,,,,,,,,,masks/mask_005.jpg,,,,,,,,,,,,,,,,,,,,,,,,,,,,,,,,,,,,,,,,,,,0,1,1,4,1,,,,,,,,,,,,,,,,,,,,,,,,,,,,,,,,,,,,,,,,,,,,,,
244118,001,2022-11-21_01h09.11.654,Info_measure_main_exp,2022.2.2,MacIntel,59.99880002,,,,,,,,,,,,,,,,,,masks/mask_004.jpg,,,,,,,,,,,,,,,,,,,,,,,,,,,,,,,,,,,,,,,,,,,0,2,2,3,1,,,,,,,,,,,,,,,,,,,,,,,,,,,,,,,,,,,,,,,,,,,,,,
244118,001,2022-11-21_01h09.11.654,Info_measure_main_exp,2022.2.2,MacIntel,59.99880002,,,,,,,,,,,,,,,,,,masks/mask_002.jpg,,,,,,,,,,,,,,,,,,,,,,,,,,,,,,,,,,,,,,,,,,,0,3,3,1,1,,,,,,,,,,,,,,,,,,,,,,,,,,,,,,,,,,,,,,,,,,,,,,
244118,001,2022-11-21_01h09.11.654,Info_measure_main_exp,2022.2.2,MacIntel,59.99880002,,,,,,,,,,,,,,,,,,masks/mask_001.jpg,,,,,,,,,,,,,,,,,,,,,,,,,,,,,,,,,,,,,,,,,,,0,4,4,0,1,,,,,,,,,,,,,,,,,,,,,,,,,,,,,,,,,,,,,,,,,,,,,,
244118,001,2022-11-21_01h09.11.654,Info_measure_main_exp,2022.2.2,MacIntel,59.99880002,,,,,,,,,,,,,,,,,,masks/mask_005.jpg,,,,,,,,,,,,,,,,,,,,,,,,,,,,,,,,,,,,,,,,,,,,,,,,0,0,0,4,1,,,,,,,,,,,,,,,,,,,,,,,,,,,,,,,,,,,,,,,,,
244118,001,2022-11-21_01h09.11.654,Info_measure_main_exp,2022.2.2,MacIntel,59.99880002,,,,,,,,,,,,,,,,,,masks/mask_004.jpg,,,,,,,,,,,,,,,,,,,,,,,,,,,,,,,,,,,,,,,,,,,,,,,,0,1,1,3,1,,,,,,,,,,,,,,,,,,,,,,,,,,,,,,,,,,,,,,,,,
244118,001,2022-11-21_01h09.11.654,Info_measure_main_exp,2022.2.2,MacIntel,59.99880002,,,,,,,,,,,,,,,,,,masks/mask_001.jpg,,,,,,,,,,,,,,,,,,,,,,,,,,,,,,,,,,,,,,,,,,,,,,,,0,2,2,0,1,,,,,,,,,,,,,,,,,,,,,,,,,,,,,,,,,,,,,,,,,
244118,001,2022-11-21_01h09.11.654,Info_measure_main_exp,2022.2.2,MacIntel,59.99880002,,,,,,,,,,,,,,,,,,masks/mask_003.jpg,,,,,,,,,,,,,,,,,,,,,,,,,,,,,,,,,,,,,,,,,,,,,,,,0,3,3,2,1,,,,,,,,,,,,,,,,,,,,,,,,,,,,,,,,,,,,,,,,,
244118,001,2022-11-21_01h09.11.654,Info_measure_main_exp,2022.2.2,MacIntel,59.99880002,,,,,,,,,,,,,,,,,,masks/mask_002.jpg,,,,,,,,,,,,,,,,,,,,,,,,,,,,,,,,,,,,,,,,,,,,,,,,0,4,4,1,1,,,,,,,,,,,,,,,,,,,,,,,,,,,,,,,,,,,,,,,,,
244118,001,2022-11-21_01h09.11.654,Info_measure_main_exp,2022.2.2,MacIntel,59.99880002,,,,,,,,,,,,,,,,,,,,,,,,,,,,,,4,3.917,1,,,,,,,,,,,,0,131,5,5,2190,2250,absent_patch/patch0002190.jpg,absent_patch/patch0002250.jpg,,,,,,,,,,,,,,,,,,,,0.077897746,-0.111625163,1,0,0,response3disk,28,-0.005256755,0.008062541,1,0,0,center_square,0,27,27,93,1,,,,,,,,,,,,,,,,,,,,,,,
244118,001,2022-11-21_01h09.11.654,Info_measure_main_exp,2022.2.2,MacIntel,59.99880002,,,,,,,,,,,,,,,,,,masks/mask_003.jpg,,,,,,,,,,,,,,,,,,,,,,,,,,,,,,,,,,,,,,,,,,,0,0,0,2,1,,,,,,,,,,,,,,,,,,,,,,,,,,,,,,,,,,,,,,,,,,,,,,
244118,001,2022-11-21_01h09.11.654,Info_measure_main_exp,2022.2.2,MacIntel,59.99880002,,,,,,,,,,,,,,,,,,masks/mask_005.jpg,,,,,,,,,,,,,,,,,,,,,,,,,,,,,,,,,,,,,,,,,,,0,1,1,4,1,,,,,,,,,,,,,,,,,,,,,,,,,,,,,,,,,,,,,,,,,,,,,,
244118,001,2022-11-21_01h09.11.654,Info_measure_main_exp,2022.2.2,MacIntel,59.99880002,,,,,,,,,,,,,,,,,,masks/mask_001.jpg,,,,,,,,,,,,,,,,,,,,,,,,,,,,,,,,,,,,,,,,,,,0,2,2,0,1,,,,,,,,,,,,,,,,,,,,,,,,,,,,,,,,,,,,,,,,,,,,,,
244118,001,2022-11-21_01h09.11.654,Info_measure_main_exp,2022.2.2,MacIntel,59.99880002,,,,,,,,,,,,,,,,,,masks/mask_002.jpg,,,,,,,,,,,,,,,,,,,,,,,,,,,,,,,,,,,,,,,,,,,0,3,3,1,1,,,,,,,,,,,,,,,,,,,,,,,,,,,,,,,,,,,,,,,,,,,,,,
244118,001,2022-11-21_01h09.11.654,Info_measure_main_exp,2022.2.2,MacIntel,59.99880002,,,,,,,,,,,,,,,,,,masks/mask_004.jpg,,,,,,,,,,,,,,,,,,,,,,,,,,,,,,,,,,,,,,,,,,,0,4,4,3,1,,,,,,,,,,,,,,,,,,,,,,,,,,,,,,,,,,,,,,,,,,,,,,
244118,001,2022-11-21_01h09.11.654,Info_measure_main_exp,2022.2.2,MacIntel,59.99880002,,,,,,,,,,,,,,,,,,masks/mask_003.jpg,,,,,,,,,,,,,,,,,,,,,,,,,,,,,,,,,,,,,,,,,,,,,,,,0,0,0,2,1,,,,,,,,,,,,,,,,,,,,,,,,,,,,,,,,,,,,,,,,,
244118,001,2022-11-21_01h09.11.654,Info_measure_main_exp,2022.2.2,MacIntel,59.99880002,,,,,,,,,,,,,,,,,,masks/mask_004.jpg,,,,,,,,,,,,,,,,,,,,,,,,,,,,,,,,,,,,,,,,,,,,,,,,0,1,1,3,1,,,,,,,,,,,,,,,,,,,,,,,,,,,,,,,,,,,,,,,,,
244118,001,2022-11-21_01h09.11.654,Info_measure_main_exp,2022.2.2,MacIntel,59.99880002,,,,,,,,,,,,,,,,,,masks/mask_001.jpg,,,,,,,,,,,,,,,,,,,,,,,,,,,,,,,,,,,,,,,,,,,,,,,,0,2,2,0,1,,,,,,,,,,,,,,,,,,,,,,,,,,,,,,,,,,,,,,,,,
244118,001,2022-11-21_01h09.11.654,Info_measure_main_exp,2022.2.2,MacIntel,59.99880002,,,,,,,,,,,,,,,,,,masks/mask_005.jpg,,,,,,,,,,,,,,,,,,,,,,,,,,,,,,,,,,,,,,,,,,,,,,,,0,3,3,4,1,,,,,,,,,,,,,,,,,,,,,,,,,,,,,,,,,,,,,,,,,
244118,001,2022-11-21_01h09.11.654,Info_measure_main_exp,2022.2.2,MacIntel,59.99880002,,,,,,,,,,,,,,,,,,masks/mask_002.jpg,,,,,,,,,,,,,,,,,,,,,,,,,,,,,,,,,,,,,,,,,,,,,,,,0,4,4,1,1,,,,,,,,,,,,,,,,,,,,,,,,,,,,,,,,,,,,,,,,,
244118,001,2022-11-21_01h09.11.654,Info_measure_main_exp,2022.2.2,MacIntel,59.99880002,,,,,,,,,,,,,,,,,,,,,,,,,,,,,,0,3.4808,1,,,,,,,,,,,,0,131,5,5,2154,2190,absent_patch/patch0002154.jpg,absent_patch/patch0002190.jpg,,,,,,,,,,,,,,,,,,,,-0.079450345,0.142651232,1,0,0,response7disk,29,0.01025533,-0.002530178,1,0,0,center_square,0,28,28,68,1,,,,,,,,,,,,,,,,,,,,,,,
244118,001,2022-11-21_01h09.11.654,Info_measure_main_exp,2022.2.2,MacIntel,59.99880002,,,,,,,,,,,,,,,,,,masks/mask_003.jpg,,,,,,,,,,,,,,,,,,,,,,,,,,,,,,,,,,,,,,,,,,,0,0,0,2,1,,,,,,,,,,,,,,,,,,,,,,,,,,,,,,,,,,,,,,,,,,,,,,
244118,001,2022-11-21_01h09.11.654,Info_measure_main_exp,2022.2.2,MacIntel,59.99880002,,,,,,,,,,,,,,,,,,masks/mask_002.jpg,,,,,,,,,,,,,,,,,,,,,,,,,,,,,,,,,,,,,,,,,,,0,1,1,1,1,,,,,,,,,,,,,,,,,,,,,,,,,,,,,,,,,,,,,,,,,,,,,,
244118,001,2022-11-21_01h09.11.654,Info_measure_main_exp,2022.2.2,MacIntel,59.99880002,,,,,,,,,,,,,,,,,,masks/mask_001.jpg,,,,,,,,,,,,,,,,,,,,,,,,,,,,,,,,,,,,,,,,,,,0,2,2,0,1,,,,,,,,,,,,,,,,,,,,,,,,,,,,,,,,,,,,,,,,,,,,,,
244118,001,2022-11-21_01h09.11.654,Info_measure_main_exp,2022.2.2,MacIntel,59.99880002,,,,,,,,,,,,,,,,,,masks/mask_005.jpg,,,,,,,,,,,,,,,,,,,,,,,,,,,,,,,,,,,,,,,,,,,0,3,3,4,1,,,,,,,,,,,,,,,,,,,,,,,,,,,,,,,,,,,,,,,,,,,,,,
244118,001,2022-11-21_01h09.11.654,Info_measure_main_exp,2022.2.2,MacIntel,59.99880002,,,,,,,,,,,,,,,,,,masks/mask_004.jpg,,,,,,,,,,,,,,,,,,,,,,,,,,,,,,,,,,,,,,,,,,,0,4,4,3,1,,,,,,,,,,,,,,,,,,,,,,,,,,,,,,,,,,,,,,,,,,,,,,
244118,001,2022-11-21_01h09.11.654,Info_measure_main_exp,2022.2.2,MacIntel,59.99880002,,,,,,,,,,,,,,,,,,masks/mask_003.jpg,,,,,,,,,,,,,,,,,,,,,,,,,,,,,,,,,,,,,,,,,,,,,,,,0,0,0,2,1,,,,,,,,,,,,,,,,,,,,,,,,,,,,,,,,,,,,,,,,,
244118,001,2022-11-21_01h09.11.654,Info_measure_main_exp,2022.2.2,MacIntel,59.99880002,,,,,,,,,,,,,,,,,,masks/mask_004.jpg,,,,,,,,,,,,,,,,,,,,,,,,,,,,,,,,,,,,,,,,,,,,,,,,0,1,1,3,1,,,,,,,,,,,,,,,,,,,,,,,,,,,,,,,,,,,,,,,,,
244118,001,2022-11-21_01h09.11.654,Info_measure_main_exp,2022.2.2,MacIntel,59.99880002,,,,,,,,,,,,,,,,,,masks/mask_002.jpg,,,,,,,,,,,,,,,,,,,,,,,,,,,,,,,,,,,,,,,,,,,,,,,,0,2,2,1,1,,,,,,,,,,,,,,,,,,,,,,,,,,,,,,,,,,,,,,,,,
244118,001,2022-11-21_01h09.11.654,Info_measure_main_exp,2022.2.2,MacIntel,59.99880002,,,,,,,,,,,,,,,,,,masks/mask_001.jpg,,,,,,,,,,,,,,,,,,,,,,,,,,,,,,,,,,,,,,,,,,,,,,,,0,3,3,0,1,,,,,,,,,,,,,,,,,,,,,,,,,,,,,,,,,,,,,,,,,
244118,001,2022-11-21_01h09.11.654,Info_measure_main_exp,2022.2.2,MacIntel,59.99880002,,,,,,,,,,,,,,,,,,masks/mask_005.jpg,,,,,,,,,,,,,,,,,,,,,,,,,,,,,,,,,,,,,,,,,,,,,,,,0,4,4,4,1,,,,,,,,,,,,,,,,,,,,,,,,,,,,,,,,,,,,,,,,,
244118,001,2022-11-21_01h09.11.654,Info_measure_main_exp,2022.2.2,MacIntel,59.99880002,,,,,,,,,,,,,,,,,,,,,,,,,,,,,,3,1.2662,1,,,,,,,,,,,,0,131,5,5,2274,2238,absent_patch/patch0002274.jpg,absent_patch/patch0002238.jpg,,,,,,,,,,,,,,,,,,,,-0.045369263,-0.117306993,1,0,0,response5disk,30,0.0084434,-0.007936842,1,0,0,center_square,0,29,29,91,1,,,,,,,,,,,,,,,,,,,,,,,
244118,001,2022-11-21_01h09.11.654,Info_measure_main_exp,2022.2.2,MacIntel,59.99880002,,,,,,,,,,,,,,,,,,masks/mask_002.jpg,,,,,,,,,,,,,,,,,,,,,,,,,,,,,,,,,,,,,,,,,,,0,0,0,1,1,,,,,,,,,,,,,,,,,,,,,,,,,,,,,,,,,,,,,,,,,,,,,,
244118,001,2022-11-21_01h09.11.654,Info_measure_main_exp,2022.2.2,MacIntel,59.99880002,,,,,,,,,,,,,,,,,,masks/mask_005.jpg,,,,,,,,,,,,,,,,,,,,,,,,,,,,,,,,,,,,,,,,,,,0,1,1,4,1,,,,,,,,,,,,,,,,,,,,,,,,,,,,,,,,,,,,,,,,,,,,,,
244118,001,2022-11-21_01h09.11.654,Info_measure_main_exp,2022.2.2,MacIntel,59.99880002,,,,,,,,,,,,,,,,,,masks/mask_001.jpg,,,,,,,,,,,,,,,,,,,,,,,,,,,,,,,,,,,,,,,,,,,0,2,2,0,1,,,,,,,,,,,,,,,,,,,,,,,,,,,,,,,,,,,,,,,,,,,,,,
244118,001,2022-11-21_01h09.11.654,Info_measure_main_exp,2022.2.2,MacIntel,59.99880002,,,,,,,,,,,,,,,,,,masks/mask_003.jpg,,,,,,,,,,,,,,,,,,,,,,,,,,,,,,,,,,,,,,,,,,,0,3,3,2,1,,,,,,,,,,,,,,,,,,,,,,,,,,,,,,,,,,,,,,,,,,,,,,
244118,001,2022-11-21_01h09.11.654,Info_measure_main_exp,2022.2.2,MacIntel,59.99880002,,,,,,,,,,,,,,,,,,masks/mask_004.jpg,,,,,,,,,,,,,,,,,,,,,,,,,,,,,,,,,,,,,,,,,,,0,4,4,3,1,,,,,,,,,,,,,,,,,,,,,,,,,,,,,,,,,,,,,,,,,,,,,,
244118,001,2022-11-21_01h09.11.654,Info_measure_main_exp,2022.2.2,MacIntel,59.99880002,,,,,,,,,,,,,,,,,,masks/mask_005.jpg,,,,,,,,,,,,,,,,,,,,,,,,,,,,,,,,,,,,,,,,,,,,,,,,0,0,0,4,1,,,,,,,,,,,,,,,,,,,,,,,,,,,,,,,,,,,,,,,,,
244118,001,2022-11-21_01h09.11.654,Info_measure_main_exp,2022.2.2,MacIntel,59.99880002,,,,,,,,,,,,,,,,,,masks/mask_002.jpg,,,,,,,,,,,,,,,,,,,,,,,,,,,,,,,,,,,,,,,,,,,,,,,,0,1,1,1,1,,,,,,,,,,,,,,,,,,,,,,,,,,,,,,,,,,,,,,,,,
244118,001,2022-11-21_01h09.11.654,Info_measure_main_exp,2022.2.2,MacIntel,59.99880002,,,,,,,,,,,,,,,,,,masks/mask_001.jpg,,,,,,,,,,,,,,,,,,,,,,,,,,,,,,,,,,,,,,,,,,,,,,,,0,2,2,0,1,,,,,,,,,,,,,,,,,,,,,,,,,,,,,,,,,,,,,,,,,
244118,001,2022-11-21_01h09.11.654,Info_measure_main_exp,2022.2.2,MacIntel,59.99880002,,,,,,,,,,,,,,,,,,masks/mask_003.jpg,,,,,,,,,,,,,,,,,,,,,,,,,,,,,,,,,,,,,,,,,,,,,,,,0,3,3,2,1,,,,,,,,,,,,,,,,,,,,,,,,,,,,,,,,,,,,,,,,,
244118,001,2022-11-21_01h09.11.654,Info_measure_main_exp,2022.2.2,MacIntel,59.99880002,,,,,,,,,,,,,,,,,,masks/mask_004.jpg,,,,,,,,,,,,,,,,,,,,,,,,,,,,,,,,,,,,,,,,,,,,,,,,0,4,4,3,1,,,,,,,,,,,,,,,,,,,,,,,,,,,,,,,,,,,,,,,,,
244118,001,2022-11-21_01h09.11.654,Info_measure_main_exp,2022.2.2,MacIntel,59.99880002,,,,,,,,,,,,,,,,,,,,,,,,,,,,,,5,2.6651,1,,,,,,,,,,,,0,131,5,5,2082,2154,absent_patch/patch0002082.jpg,absent_patch/patch0002154.jpg,,,,,,,,,,,,,,,,,,,,0.120791694,-0.039806654,1,0,0,response3disk,31,0.006695896,0.001327209,1,0,0,center_square,0,30,30,33,1,,,,,,,,,,,,,,,,,,,,,,,
244118,001,2022-11-21_01h09.11.654,Info_measure_main_exp,2022.2.2,MacIntel,59.99880002,,,,,,,,,,,,,,,,,,masks/mask_002.jpg,,,,,,,,,,,,,,,,,,,,,,,,,,,,,,,,,,,,,,,,,,,0,0,0,1,1,,,,,,,,,,,,,,,,,,,,,,,,,,,,,,,,,,,,,,,,,,,,,,
244118,001,2022-11-21_01h09.11.654,Info_measure_main_exp,2022.2.2,MacIntel,59.99880002,,,,,,,,,,,,,,,,,,masks/mask_004.jpg,,,,,,,,,,,,,,,,,,,,,,,,,,,,,,,,,,,,,,,,,,,0,1,1,3,1,,,,,,,,,,,,,,,,,,,,,,,,,,,,,,,,,,,,,,,,,,,,,,
244118,001,2022-11-21_01h09.11.654,Info_measure_main_exp,2022.2.2,MacIntel,59.99880002,,,,,,,,,,,,,,,,,,masks/mask_005.jpg,,,,,,,,,,,,,,,,,,,,,,,,,,,,,,,,,,,,,,,,,,,0,2,2,4,1,,,,,,,,,,,,,,,,,,,,,,,,,,,,,,,,,,,,,,,,,,,,,,
244118,001,2022-11-21_01h09.11.654,Info_measure_main_exp,2022.2.2,MacIntel,59.99880002,,,,,,,,,,,,,,,,,,masks/mask_001.jpg,,,,,,,,,,,,,,,,,,,,,,,,,,,,,,,,,,,,,,,,,,,0,3,3,0,1,,,,,,,,,,,,,,,,,,,,,,,,,,,,,,,,,,,,,,,,,,,,,,
244118,001,2022-11-21_01h09.11.654,Info_measure_main_exp,2022.2.2,MacIntel,59.99880002,,,,,,,,,,,,,,,,,,masks/mask_003.jpg,,,,,,,,,,,,,,,,,,,,,,,,,,,,,,,,,,,,,,,,,,,0,4,4,2,1,,,,,,,,,,,,,,,,,,,,,,,,,,,,,,,,,,,,,,,,,,,,,,
244118,001,2022-11-21_01h09.11.654,Info_measure_main_exp,2022.2.2,MacIntel,59.99880002,,,,,,,,,,,,,,,,,,masks/mask_003.jpg,,,,,,,,,,,,,,,,,,,,,,,,,,,,,,,,,,,,,,,,,,,,,,,,0,0,0,2,1,,,,,,,,,,,,,,,,,,,,,,,,,,,,,,,,,,,,,,,,,
244118,001,2022-11-21_01h09.11.654,Info_measure_main_exp,2022.2.2,MacIntel,59.99880002,,,,,,,,,,,,,,,,,,masks/mask_005.jpg,,,,,,,,,,,,,,,,,,,,,,,,,,,,,,,,,,,,,,,,,,,,,,,,0,1,1,4,1,,,,,,,,,,,,,,,,,,,,,,,,,,,,,,,,,,,,,,,,,
244118,001,2022-11-21_01h09.11.654,Info_measure_main_exp,2022.2.2,MacIntel,59.99880002,,,,,,,,,,,,,,,,,,masks/mask_004.jpg,,,,,,,,,,,,,,,,,,,,,,,,,,,,,,,,,,,,,,,,,,,,,,,,0,2,2,3,1,,,,,,,,,,,,,,,,,,,,,,,,,,,,,,,,,,,,,,,,,
244118,001,2022-11-21_01h09.11.654,Info_measure_main_exp,2022.2.2,MacIntel,59.99880002,,,,,,,,,,,,,,,,,,masks/mask_002.jpg,,,,,,,,,,,,,,,,,,,,,,,,,,,,,,,,,,,,,,,,,,,,,,,,0,3,3,1,1,,,,,,,,,,,,,,,,,,,,,,,,,,,,,,,,,,,,,,,,,
244118,001,2022-11-21_01h09.11.654,Info_measure_main_exp,2022.2.2,MacIntel,59.99880002,,,,,,,,,,,,,,,,,,masks/mask_001.jpg,,,,,,,,,,,,,,,,,,,,,,,,,,,,,,,,,,,,,,,,,,,,,,,,0,4,4,0,1,,,,,,,,,,,,,,,,,,,,,,,,,,,,,,,,,,,,,,,,,
244118,001,2022-11-21_01h09.11.654,Info_measure_main_exp,2022.2.2,MacIntel,59.99880002,,,,,,,,,,,,,,,,,,,,,,,,,,,,,,3,1.5502,1,,,,,,,,,,,,0,131,5,5,2298,2214,absent_patch/patch0002298.jpg,absent_patch/patch0002214.jpg,,,,,,,,,,,,,,,,,,,,-0.035209351,-0.089445394,1,0,0,response5disk,32,0.010174289,0.0037854,1,0,0,center_square,0,31,31,99,1,,,,,,,,,,,,,,,,,,,,,,,
244118,001,2022-11-21_01h09.11.654,Info_measure_main_exp,2022.2.2,MacIntel,59.99880002,,,,,,,,,,,,,,,,,,masks/mask_004.jpg,,,,,,,,,,,,,,,,,,,,,,,,,,,,,,,,,,,,,,,,,,,0,0,0,3,1,,,,,,,,,,,,,,,,,,,,,,,,,,,,,,,,,,,,,,,,,,,,,,
244118,001,2022-11-21_01h09.11.654,Info_measure_main_exp,2022.2.2,MacIntel,59.99880002,,,,,,,,,,,,,,,,,,masks/mask_001.jpg,,,,,,,,,,,,,,,,,,,,,,,,,,,,,,,,,,,,,,,,,,,0,1,1,0,1,,,,,,,,,,,,,,,,,,,,,,,,,,,,,,,,,,,,,,,,,,,,,,
244118,001,2022-11-21_01h09.11.654,Info_measure_main_exp,2022.2.2,MacIntel,59.99880002,,,,,,,,,,,,,,,,,,masks/mask_005.jpg,,,,,,,,,,,,,,,,,,,,,,,,,,,,,,,,,,,,,,,,,,,0,2,2,4,1,,,,,,,,,,,,,,,,,,,,,,,,,,,,,,,,,,,,,,,,,,,,,,
244118,001,2022-11-21_01h09.11.654,Info_measure_main_exp,2022.2.2,MacIntel,59.99880002,,,,,,,,,,,,,,,,,,masks/mask_002.jpg,,,,,,,,,,,,,,,,,,,,,,,,,,,,,,,,,,,,,,,,,,,0,3,3,1,1,,,,,,,,,,,,,,,,,,,,,,,,,,,,,,,,,,,,,,,,,,,,,,
244118,001,2022-11-21_01h09.11.654,Info_measure_main_exp,2022.2.2,MacIntel,59.99880002,,,,,,,,,,,,,,,,,,masks/mask_003.jpg,,,,,,,,,,,,,,,,,,,,,,,,,,,,,,,,,,,,,,,,,,,0,4,4,2,1,,,,,,,,,,,,,,,,,,,,,,,,,,,,,,,,,,,,,,,,,,,,,,
244118,001,2022-11-21_01h09.11.654,Info_measure_main_exp,2022.2.2,MacIntel,59.99880002,,,,,,,,,,,,,,,,,,masks/mask_005.jpg,,,,,,,,,,,,,,,,,,,,,,,,,,,,,,,,,,,,,,,,,,,,,,,,0,0,0,4,1,,,,,,,,,,,,,,,,,,,,,,,,,,,,,,,,,,,,,,,,,
244118,001,2022-11-21_01h09.11.654,Info_measure_main_exp,2022.2.2,MacIntel,59.99880002,,,,,,,,,,,,,,,,,,masks/mask_003.jpg,,,,,,,,,,,,,,,,,,,,,,,,,,,,,,,,,,,,,,,,,,,,,,,,0,1,1,2,1,,,,,,,,,,,,,,,,,,,,,,,,,,,,,,,,,,,,,,,,,
244118,001,2022-11-21_01h09.11.654,Info_measure_main_exp,2022.2.2,MacIntel,59.99880002,,,,,,,,,,,,,,,,,,masks/mask_004.jpg,,,,,,,,,,,,,,,,,,,,,,,,,,,,,,,,,,,,,,,,,,,,,,,,0,2,2,3,1,,,,,,,,,,,,,,,,,,,,,,,,,,,,,,,,,,,,,,,,,
244118,001,2022-11-21_01h09.11.654,Info_measure_main_exp,2022.2.2,MacIntel,59.99880002,,,,,,,,,,,,,,,,,,masks/mask_002.jpg,,,,,,,,,,,,,,,,,,,,,,,,,,,,,,,,,,,,,,,,,,,,,,,,0,3,3,1,1,,,,,,,,,,,,,,,,,,,,,,,,,,,,,,,,,,,,,,,,,
244118,001,2022-11-21_01h09.11.654,Info_measure_main_exp,2022.2.2,MacIntel,59.99880002,,,,,,,,,,,,,,,,,,masks/mask_001.jpg,,,,,,,,,,,,,,,,,,,,,,,,,,,,,,,,,,,,,,,,,,,,,,,,0,4,4,0,1,,,,,,,,,,,,,,,,,,,,,,,,,,,,,,,,,,,,,,,,,
244118,001,2022-11-21_01h09.11.654,Info_measure_main_exp,2022.2.2,MacIntel,59.99880002,,,,,,,,,,,,,,,,,,,,,,,,,,,,,,6,0.8498,1,,,,,,,,,,,,0,131,5,5,1986,1986,absent_patch/patch0001986.jpg,absent_patch/patch0001986.jpg,,,,,,,,,,,,,,,,,,,,0.093669366,0.045850288,1,0,0,response1disk,33,0.000856934,0.016292725,1,0,0,center_square,0,32,32,19,1,,,,,,,,,,,,,,,,,,,,,,,
244118,001,2022-11-21_01h09.11.654,Info_measure_main_exp,2022.2.2,MacIntel,59.99880002,,,,,,,,,,,,,,,,,,masks/mask_002.jpg,,,,,,,,,,,,,,,,,,,,,,,,,,,,,,,,,,,,,,,,,,,0,0,0,1,1,,,,,,,,,,,,,,,,,,,,,,,,,,,,,,,,,,,,,,,,,,,,,,
244118,001,2022-11-21_01h09.11.654,Info_measure_main_exp,2022.2.2,MacIntel,59.99880002,,,,,,,,,,,,,,,,,,masks/mask_001.jpg,,,,,,,,,,,,,,,,,,,,,,,,,,,,,,,,,,,,,,,,,,,0,1,1,0,1,,,,,,,,,,,,,,,,,,,,,,,,,,,,,,,,,,,,,,,,,,,,,,
244118,001,2022-11-21_01h09.11.654,Info_measure_main_exp,2022.2.2,MacIntel,59.99880002,,,,,,,,,,,,,,,,,,masks/mask_004.jpg,,,,,,,,,,,,,,,,,,,,,,,,,,,,,,,,,,,,,,,,,,,0,2,2,3,1,,,,,,,,,,,,,,,,,,,,,,,,,,,,,,,,,,,,,,,,,,,,,,
244118,001,2022-11-21_01h09.11.654,Info_measure_main_exp,2022.2.2,MacIntel,59.99880002,,,,,,,,,,,,,,,,,,masks/mask_005.jpg,,,,,,,,,,,,,,,,,,,,,,,,,,,,,,,,,,,,,,,,,,,0,3,3,4,1,,,,,,,,,,,,,,,,,,,,,,,,,,,,,,,,,,,,,,,,,,,,,,
244118,001,2022-11-21_01h09.11.654,Info_measure_main_exp,2022.2.2,MacIntel,59.99880002,,,,,,,,,,,,,,,,,,masks/mask_003.jpg,,,,,,,,,,,,,,,,,,,,,,,,,,,,,,,,,,,,,,,,,,,0,4,4,2,1,,,,,,,,,,,,,,,,,,,,,,,,,,,,,,,,,,,,,,,,,,,,,,
244118,001,2022-11-21_01h09.11.654,Info_measure_main_exp,2022.2.2,MacIntel,59.99880002,,,,,,,,,,,,,,,,,,masks/mask_003.jpg,,,,,,,,,,,,,,,,,,,,,,,,,,,,,,,,,,,,,,,,,,,,,,,,0,0,0,2,1,,,,,,,,,,,,,,,,,,,,,,,,,,,,,,,,,,,,,,,,,
244118,001,2022-11-21_01h09.11.654,Info_measure_main_exp,2022.2.2,MacIntel,59.99880002,,,,,,,,,,,,,,,,,,masks/mask_001.jpg,,,,,,,,,,,,,,,,,,,,,,,,,,,,,,,,,,,,,,,,,,,,,,,,0,1,1,0,1,,,,,,,,,,,,,,,,,,,,,,,,,,,,,,,,,,,,,,,,,
244118,001,2022-11-21_01h09.11.654,Info_measure_main_exp,2022.2.2,MacIntel,59.99880002,,,,,,,,,,,,,,,,,,masks/mask_004.jpg,,,,,,,,,,,,,,,,,,,,,,,,,,,,,,,,,,,,,,,,,,,,,,,,0,2,2,3,1,,,,,,,,,,,,,,,,,,,,,,,,,,,,,,,,,,,,,,,,,
244118,001,2022-11-21_01h09.11.654,Info_measure_main_exp,2022.2.2,MacIntel,59.99880002,,,,,,,,,,,,,,,,,,masks/mask_005.jpg,,,,,,,,,,,,,,,,,,,,,,,,,,,,,,,,,,,,,,,,,,,,,,,,0,3,3,4,1,,,,,,,,,,,,,,,,,,,,,,,,,,,,,,,,,,,,,,,,,
244118,001,2022-11-21_01h09.11.654,Info_measure_main_exp,2022.2.2,MacIntel,59.99880002,,,,,,,,,,,,,,,,,,masks/mask_002.jpg,,,,,,,,,,,,,,,,,,,,,,,,,,,,,,,,,,,,,,,,,,,,,,,,0,4,4,1,1,,,,,,,,,,,,,,,,,,,,,,,,,,,,,,,,,,,,,,,,,
244118,001,2022-11-21_01h09.11.654,Info_measure_main_exp,2022.2.2,MacIntel,59.99880002,,,,,,,,,,,,,,,,,,,,,,,,,,,,,,7,0.8678,1,,,,,,,,,,,,1,131,5,5,1,1974,present_patch/cong_131_5_a.jpg,absent_patch/patch0001974.jpg,,,,,,,,,,,,,,,,,,,,0.065492282,0.141863607,1,0,0,response1disk,34,0.002307536,-0.003856269,1,0,0,center_square,0,33,33,69,1,,,,,,,,,,,,,,,,,,,,,,,
244118,001,2022-11-21_01h09.11.654,Info_measure_main_exp,2022.2.2,MacIntel,59.99880002,,,,,,,,,,,,,,,,,,masks/mask_002.jpg,,,,,,,,,,,,,,,,,,,,,,,,,,,,,,,,,,,,,,,,,,,0,0,0,1,1,,,,,,,,,,,,,,,,,,,,,,,,,,,,,,,,,,,,,,,,,,,,,,
244118,001,2022-11-21_01h09.11.654,Info_measure_main_exp,2022.2.2,MacIntel,59.99880002,,,,,,,,,,,,,,,,,,masks/mask_004.jpg,,,,,,,,,,,,,,,,,,,,,,,,,,,,,,,,,,,,,,,,,,,0,1,1,3,1,,,,,,,,,,,,,,,,,,,,,,,,,,,,,,,,,,,,,,,,,,,,,,
244118,001,2022-11-21_01h09.11.654,Info_measure_main_exp,2022.2.2,MacIntel,59.99880002,,,,,,,,,,,,,,,,,,masks/mask_005.jpg,,,,,,,,,,,,,,,,,,,,,,,,,,,,,,,,,,,,,,,,,,,0,2,2,4,1,,,,,,,,,,,,,,,,,,,,,,,,,,,,,,,,,,,,,,,,,,,,,,
