participant,session,date,expName,psychopyVersion,OS,frameRate,space_press_continue.keys,space_press_continue.rt,space_press_continue_2.keys,space_press_continue_2.rt,space_press_continue_3.keys,space_press_continue_3.rt,space_press_continue_4.keys,space_press_continue_4.rt,space_press_continue_5.keys,space_press_continue_5.rt,space_press_continue_6.keys,space_press_continue_6.rt,prac_mask_loop_1.thisRepN,prac_mask_loop_1.thisTrialN,prac_mask_loop_1.thisN,prac_mask_loop_1.thisIndex,prac_mask_loop_1.ran,mask_name,prac_mask_loop_2.thisRepN,prac_mask_loop_2.thisTrialN,prac_mask_loop_2.thisN,prac_mask_loop_2.thisIndex,prac_mask_loop_2.ran,mouse_2.x,mouse_2.y,mouse_2.leftButton,mouse_2.midButton,mouse_2.rightButton,mouse_2.clicked_name,similarity,response_time,Pass,mouse_12.x,mouse_12.y,mouse_12.leftButton,mouse_12.midButton,mouse_12.rightButton,mouse_12.clicked_name,prac_loop.thisRepN,prac_loop.thisTrialN,prac_loop.thisN,prac_loop.thisIndex,prac_loop.ran,Pair_type,Image_num,Patch_1_loc,Patch_2_loc,Patch_1_info,Patch_2_info,Patch_1_name,Patch_2_name,mouse_1.x,mouse_1.y,mouse_1.leftButton,mouse_1.midButton,mouse_1.rightButton,mouse_1.time,mouse_1.clicked_name,space_press_continue_7.keys,space_press_continue_7.rt,mask_loop.thisRepN,mask_loop.thisTrialN,mask_loop.thisN,mask_loop.thisIndex,mask_loop.ran,mask_loop_2.thisRepN,mask_loop_2.thisTrialN,mask_loop_2.thisN,mask_loop_2.thisIndex,mask_loop_2.ran,mouse.x,mouse.y,mouse.leftButton,mouse.midButton,mouse.rightButton,mouse.clicked_name,trialNumber,mouse_11.x,mouse_11.y,mouse_11.leftButton,mouse_11.midButton,mouse_11.rightButton,mouse_11.clicked_name,first_pass_loop.thisRepN,first_pass_loop.thisTrialN,first_pass_loop.thisN,first_pass_loop.thisIndex,first_pass_loop.ran,mask_loop_3.thisRepN,mask_loop_3.thisTrialN,mask_loop_3.thisN,mask_loop_3.thisIndex,mask_loop_3.ran,mask_loop_4.thisRepN,mask_loop_4.thisTrialN,mask_loop_4.thisN,mask_loop_4.thisIndex,mask_loop_4.ran,mouse_3.x,mouse_3.y,mouse_3.leftButton,mouse_3.midButton,mouse_3.rightButton,mouse_3.clicked_name,double_pass_loop.thisRepN,double_pass_loop.thisTrialN,double_pass_loop.thisN,double_pass_loop.thisIndex,double_pass_loop.ran,space_exit.keys,space_exit.rt
245718,001,2022-11-21_01h59.55.991,Info_measure_main_exp,2022.2.2,Win32,59.99520038,,,,,,,,,,,,,,,,,,,,,,,,,,,,,,,,,,,,,,,,,,,,,,,,,,,,,,,,,,,,,,,,,,,,,,,,,,,,,,,,,,,,,,,,,,,,,,,,,,,,,,,,,,,,,,,
245718,001,2022-11-21_01h59.55.991,Info_measure_main_exp,2022.2.2,Win32,59.99520038,,,,,,,,,,,,,,,,,,,,,,,,,,,,,,,,,,,,,,,,,,,,,,,,,,,,,,,,,,,,,,,,,,,,,,,,,,,,,,,,,,,,,,,,,,,,,,,,,,,,,,,,,,,,,,,
245718,001,2022-11-21_01h59.55.991,Info_measure_main_exp,2022.2.2,Win32,59.99520038,space,71.6581,,,,,,,,,,,,,,,,,,,,,,,,,,,,,,,,,,,,,,,,,,,,,,,,,,,,,,,,,,,,,,,,,,,,,,,,,,,,,,,,,,,,,,,,,,,,,,,,,,,,,,,,,,,,,
245718,001,2022-11-21_01h59.55.991,Info_measure_main_exp,2022.2.2,Win32,59.99520038,,,space,28.148,,,,,,,,,,,,,,,,,,,,,,,,,,,,,,,,,,,,,,,,,,,,,,,,,,,,,,,,,,,,,,,,,,,,,,,,,,,,,,,,,,,,,,,,,,,,,,,,,,,,,,,,,,,
245718,001,2022-11-21_01h59.55.991,Info_measure_main_exp,2022.2.2,Win32,59.99520038,,,,,space,7.7738,,,,,,,,,,,,,,,,,,,,,,,,,,,,,,,,,,,,,,,,,,,,,,,,,,,,,,,,,,,,,,,,,,,,,,,,,,,,,,,,,,,,,,,,,,,,,,,,,,,,,,,,,
245718,001,2022-11-21_01h59.55.991,Info_measure_main_exp,2022.2.2,Win32,59.99520038,,,,,,,space,23.2339,,,,,,,,,,,,,,,,,,,,,,,,,,,,,,,,,,,,,,,,,,,,,,,,,,,,,,,,,,,,,,,,,,,,,,,,,,,,,,,,,,,,,,,,,,,,,,,,,,,,,,,
245718,001,2022-11-21_01h59.55.991,Info_measure_main_exp,2022.2.2,Win32,59.99520038,,,,,,,,,space,12.2094,,,,,,,,,,,,,,,,,,,,,,,,,,,,,,,,,,,,,,,,,,,,,,,,,,,,,,,,,,,,,,,,,,,,,,,,,,,,,,,,,,,,,,,,,,,,,,,,,,,,,
245718,001,2022-11-21_01h59.55.991,Info_measure_main_exp,2022.2.2,Win32,59.99520038,,,,,,,,,,,space,4.2806,,,,,,,,,,,,,,,,,,,,,,,,,,,,,,,,,,,,,,,,,,,,,,,,,,,,,,,,,,,,,,,,,,,,,,,,,,,,,,,,,,,,,,,,,,,,,,,,,,,
245718,001,2022-11-21_01h59.55.991,Info_measure_main_exp,2022.2.2,Win32,59.99520038,,,,,,,,,,,,,0,0,0,0,1,masks/mask_001.jpg,,,,,,,,,,,,,,,,,,,,,,,,,,,,,,,,,,,,,,,,,,,,,,,,,,,,,,,,,,,,,,,,,,,,,,,,,,,,,,,,,,,,,,,,,,,,,
245718,001,2022-11-21_01h59.55.991,Info_measure_main_exp,2022.2.2,Win32,59.99520038,,,,,,,,,,,,,0,1,1,3,1,masks/mask_004.jpg,,,,,,,,,,,,,,,,,,,,,,,,,,,,,,,,,,,,,,,,,,,,,,,,,,,,,,,,,,,,,,,,,,,,,,,,,,,,,,,,,,,,,,,,,,,,,
245718,001,2022-11-21_01h59.55.991,Info_measure_main_exp,2022.2.2,Win32,59.99520038,,,,,,,,,,,,,0,2,2,1,1,masks/mask_002.jpg,,,,,,,,,,,,,,,,,,,,,,,,,,,,,,,,,,,,,,,,,,,,,,,,,,,,,,,,,,,,,,,,,,,,,,,,,,,,,,,,,,,,,,,,,,,,,
245718,001,2022-11-21_01h59.55.991,Info_measure_main_exp,2022.2.2,Win32,59.99520038,,,,,,,,,,,,,0,3,3,2,1,masks/mask_003.jpg,,,,,,,,,,,,,,,,,,,,,,,,,,,,,,,,,,,,,,,,,,,,,,,,,,,,,,,,,,,,,,,,,,,,,,,,,,,,,,,,,,,,,,,,,,,,,
245718,001,2022-11-21_01h59.55.991,Info_measure_main_exp,2022.2.2,Win32,59.99520038,,,,,,,,,,,,,0,4,4,4,1,masks/mask_005.jpg,,,,,,,,,,,,,,,,,,,,,,,,,,,,,,,,,,,,,,,,,,,,,,,,,,,,,,,,,,,,,,,,,,,,,,,,,,,,,,,,,,,,,,,,,,,,,
245718,001,2022-11-21_01h59.55.991,Info_measure_main_exp,2022.2.2,Win32,59.99520038,,,,,,,,,,,,,,,,,,masks/mask_002.jpg,0,0,0,1,1,,,,,,,,,,,,,,,,,,,,,,,,,,,,,,,,,,,,,,,,,,,,,,,,,,,,,,,,,,,,,,,,,,,,,,,,,,,,,,,,,,,,,,,,
245718,001,2022-11-21_01h59.55.991,Info_measure_main_exp,2022.2.2,Win32,59.99520038,,,,,,,,,,,,,,,,,,masks/mask_001.jpg,0,1,1,0,1,,,,,,,,,,,,,,,,,,,,,,,,,,,,,,,,,,,,,,,,,,,,,,,,,,,,,,,,,,,,,,,,,,,,,,,,,,,,,,,,,,,,,,,,
245718,001,2022-11-21_01h59.55.991,Info_measure_main_exp,2022.2.2,Win32,59.99520038,,,,,,,,,,,,,,,,,,masks/mask_004.jpg,0,2,2,3,1,,,,,,,,,,,,,,,,,,,,,,,,,,,,,,,,,,,,,,,,,,,,,,,,,,,,,,,,,,,,,,,,,,,,,,,,,,,,,,,,,,,,,,,,
245718,001,2022-11-21_01h59.55.991,Info_measure_main_exp,2022.2.2,Win32,59.99520038,,,,,,,,,,,,,,,,,,masks/mask_003.jpg,0,3,3,2,1,,,,,,,,,,,,,,,,,,,,,,,,,,,,,,,,,,,,,,,,,,,,,,,,,,,,,,,,,,,,,,,,,,,,,,,,,,,,,,,,,,,,,,,,
245718,001,2022-11-21_01h59.55.991,Info_measure_main_exp,2022.2.2,Win32,59.99520038,,,,,,,,,,,,,,,,,,masks/mask_005.jpg,0,4,4,4,1,,,,,,,,,,,,,,,,,,,,,,,,,,,,,,,,,,,,,,,,,,,,,,,,,,,,,,,,,,,,,,,,,,,,,,,,,,,,,,,,,,,,,,,,
245718,001,2022-11-21_01h59.55.991,Info_measure_main_exp,2022.2.2,Win32,59.99520038,,,,,,,,,,,,,,,,,,,,,,,,-0.087036981,0.177777778,1,0,0,response7disk,0,154.0387,1,0.003703732,0.011111111,1,0,0,center_square,0,0,0,0,1,0,131,5,5,2370,2406,prac_patch/patch0002370.jpg,prac_patch/patch0002406.jpg,,,,,,,,,,,,,,,,,,,,,,,,,,,,,,,,,,,,,,,,,,,,,,,,,,,,,,,,,,,,
245718,001,2022-11-21_01h59.55.991,Info_measure_main_exp,2022.2.2,Win32,59.99520038,,,,,,,,,,,,,0,0,0,1,1,masks/mask_002.jpg,,,,,,,,,,,,,,,,,,,,,,,,,,,,,,,,,,,,,,,,,,,,,,,,,,,,,,,,,,,,,,,,,,,,,,,,,,,,,,,,,,,,,,,,,,,,,
245718,001,2022-11-21_01h59.55.991,Info_measure_main_exp,2022.2.2,Win32,59.99520038,,,,,,,,,,,,,0,1,1,4,1,masks/mask_005.jpg,,,,,,,,,,,,,,,,,,,,,,,,,,,,,,,,,,,,,,,,,,,,,,,,,,,,,,,,,,,,,,,,,,,,,,,,,,,,,,,,,,,,,,,,,,,,,
245718,001,2022-11-21_01h59.55.991,Info_measure_main_exp,2022.2.2,Win32,59.99520038,,,,,,,,,,,,,0,2,2,0,1,masks/mask_001.jpg,,,,,,,,,,,,,,,,,,,,,,,,,,,,,,,,,,,,,,,,,,,,,,,,,,,,,,,,,,,,,,,,,,,,,,,,,,,,,,,,,,,,,,,,,,,,,
245718,001,2022-11-21_01h59.55.991,Info_measure_main_exp,2022.2.2,Win32,59.99520038,,,,,,,,,,,,,0,3,3,3,1,masks/mask_004.jpg,,,,,,,,,,,,,,,,,,,,,,,,,,,,,,,,,,,,,,,,,,,,,,,,,,,,,,,,,,,,,,,,,,,,,,,,,,,,,,,,,,,,,,,,,,,,,
245718,001,2022-11-21_01h59.55.991,Info_measure_main_exp,2022.2.2,Win32,59.99520038,,,,,,,,,,,,,0,4,4,2,1,masks/mask_003.jpg,,,,,,,,,,,,,,,,,,,,,,,,,,,,,,,,,,,,,,,,,,,,,,,,,,,,,,,,,,,,,,,,,,,,,,,,,,,,,,,,,,,,,,,,,,,,,
245718,001,2022-11-21_01h59.55.991,Info_measure_main_exp,2022.2.2,Win32,59.99520038,,,,,,,,,,,,,,,,,,masks/mask_001.jpg,0,0,0,0,1,,,,,,,,,,,,,,,,,,,,,,,,,,,,,,,,,,,,,,,,,,,,,,,,,,,,,,,,,,,,,,,,,,,,,,,,,,,,,,,,,,,,,,,,
245718,001,2022-11-21_01h59.55.991,Info_measure_main_exp,2022.2.2,Win32,59.99520038,,,,,,,,,,,,,,,,,,masks/mask_002.jpg,0,1,1,1,1,,,,,,,,,,,,,,,,,,,,,,,,,,,,,,,,,,,,,,,,,,,,,,,,,,,,,,,,,,,,,,,,,,,,,,,,,,,,,,,,,,,,,,,,
245718,001,2022-11-21_01h59.55.991,Info_measure_main_exp,2022.2.2,Win32,59.99520038,,,,,,,,,,,,,,,,,,masks/mask_005.jpg,0,2,2,4,1,,,,,,,,,,,,,,,,,,,,,,,,,,,,,,,,,,,,,,,,,,,,,,,,,,,,,,,,,,,,,,,,,,,,,,,,,,,,,,,,,,,,,,,,
245718,001,2022-11-21_01h59.55.991,Info_measure_main_exp,2022.2.2,Win32,59.99520038,,,,,,,,,,,,,,,,,,masks/mask_003.jpg,0,3,3,2,1,,,,,,,,,,,,,,,,,,,,,,,,,,,,,,,,,,,,,,,,,,,,,,,,,,,,,,,,,,,,,,,,,,,,,,,,,,,,,,,,,,,,,,,,
245718,001,2022-11-21_01h59.55.991,Info_measure_main_exp,2022.2.2,Win32,59.99520038,,,,,,,,,,,,,,,,,,masks/mask_004.jpg,0,4,4,3,1,,,,,,,,,,,,,,,,,,,,,,,,,,,,,,,,,,,,,,,,,,,,,,,,,,,,,,,,,,,,,,,,,,,,,,,,,,,,,,,,,,,,,,,,
245718,001,2022-11-21_01h59.55.991,Info_measure_main_exp,2022.2.2,Win32,59.99520038,,,,,,,,,,,,,,,,,,,,,,,,0.054629686,0.164814801,1,0,0,response1disk,7,164.399,1,0.003703732,0.001851824,1,0,0,center_square,0,1,1,2,1,0,131,5,5,2526,2526,prac_patch/patch0002526.jpg,prac_patch/patch0002526.jpg,,,,,,,,,,,,,,,,,,,,,,,,,,,,,,,,,,,,,,,,,,,,,,,,,,,,,,,,,,,,
245718,001,2022-11-21_01h59.55.991,Info_measure_main_exp,2022.2.2,Win32,59.99520038,,,,,,,,,,,,,0,0,0,1,1,masks/mask_002.jpg,,,,,,,,,,,,,,,,,,,,,,,,,,,,,,,,,,,,,,,,,,,,,,,,,,,,,,,,,,,,,,,,,,,,,,,,,,,,,,,,,,,,,,,,,,,,,
245718,001,2022-11-21_01h59.55.991,Info_measure_main_exp,2022.2.2,Win32,59.99520038,,,,,,,,,,,,,0,1,1,3,1,masks/mask_004.jpg,,,,,,,,,,,,,,,,,,,,,,,,,,,,,,,,,,,,,,,,,,,,,,,,,,,,,,,,,,,,,,,,,,,,,,,,,,,,,,,,,,,,,,,,,,,,,
245718,001,2022-11-21_01h59.55.991,Info_measure_main_exp,2022.2.2,Win32,59.99520038,,,,,,,,,,,,,0,2,2,4,1,masks/mask_005.jpg,,,,,,,,,,,,,,,,,,,,,,,,,,,,,,,,,,,,,,,,,,,,,,,,,,,,,,,,,,,,,,,,,,,,,,,,,,,,,,,,,,,,,,,,,,,,,
245718,001,2022-11-21_01h59.55.991,Info_measure_main_exp,2022.2.2,Win32,59.99520038,,,,,,,,,,,,,0,3,3,2,1,masks/mask_003.jpg,,,,,,,,,,,,,,,,,,,,,,,,,,,,,,,,,,,,,,,,,,,,,,,,,,,,,,,,,,,,,,,,,,,,,,,,,,,,,,,,,,,,,,,,,,,,,
245718,001,2022-11-21_01h59.55.991,Info_measure_main_exp,2022.2.2,Win32,59.99520038,,,,,,,,,,,,,0,4,4,0,1,masks/mask_001.jpg,,,,,,,,,,,,,,,,,,,,,,,,,,,,,,,,,,,,,,,,,,,,,,,,,,,,,,,,,,,,,,,,,,,,,,,,,,,,,,,,,,,,,,,,,,,,,
245718,001,2022-11-21_01h59.55.991,Info_measure_main_exp,2022.2.2,Win32,59.99520038,,,,,,,,,,,,,,,,,,masks/mask_001.jpg,0,0,0,0,1,,,,,,,,,,,,,,,,,,,,,,,,,,,,,,,,,,,,,,,,,,,,,,,,,,,,,,,,,,,,,,,,,,,,,,,,,,,,,,,,,,,,,,,,
245718,001,2022-11-21_01h59.55.991,Info_measure_main_exp,2022.2.2,Win32,59.99520038,,,,,,,,,,,,,,,,,,masks/mask_003.jpg,0,1,1,2,1,,,,,,,,,,,,,,,,,,,,,,,,,,,,,,,,,,,,,,,,,,,,,,,,,,,,,,,,,,,,,,,,,,,,,,,,,,,,,,,,,,,,,,,,
245718,001,2022-11-21_01h59.55.991,Info_measure_main_exp,2022.2.2,Win32,59.99520038,,,,,,,,,,,,,,,,,,masks/mask_004.jpg,0,2,2,3,1,,,,,,,,,,,,,,,,,,,,,,,,,,,,,,,,,,,,,,,,,,,,,,,,,,,,,,,,,,,,,,,,,,,,,,,,,,,,,,,,,,,,,,,,
245718,001,2022-11-21_01h59.55.991,Info_measure_main_exp,2022.2.2,Win32,59.99520038,,,,,,,,,,,,,,,,,,masks/mask_005.jpg,0,3,3,4,1,,,,,,,,,,,,,,,,,,,,,,,,,,,,,,,,,,,,,,,,,,,,,,,,,,,,,,,,,,,,,,,,,,,,,,,,,,,,,,,,,,,,,,,,
245718,001,2022-11-21_01h59.55.991,Info_measure_main_exp,2022.2.2,Win32,59.99520038,,,,,,,,,,,,,,,,,,masks/mask_002.jpg,0,4,4,1,1,,,,,,,,,,,,,,,,,,,,,,,,,,,,,,,,,,,,,,,,,,,,,,,,,,,,,,,,,,,,,,,,,,,,,,,,,,,,,,,,,,,,,,,,
245718,001,2022-11-21_01h59.55.991,Info_measure_main_exp,2022.2.2,Win32,59.99520038,,,,,,,,,,,,,,,,,,,,,,,,0.055555556,0.108333333,1,0,0,response1disk,7,177.1507,1,-0.003703647,-0.00648151,1,0,0,center_square,0,2,2,1,1,0,131,5,5,2514,2490,prac_patch/patch0002514.jpg,prac_patch/patch0002490.jpg,,,,,,,,,,,,,,,,,,,,,,,,,,,,,,,,,,,,,,,,,,,,,,,,,,,,,,,,,,,,
245718,001,2022-11-21_01h59.55.991,Info_measure_main_exp,2022.2.2,Win32,59.99520038,,,,,,,,,,,,,,,,,,,,,,,,,,,,,,,,,,,,,,,,,,,,,,,,,,,,,,,,,,,space,3.2625,,,,,,,,,,,,,,,,,,,,,,,,,,,,,,,,,,,,,,,,,,,,,,,,,,,
245718,001,2022-11-21_01h59.55.991,Info_measure_main_exp,2022.2.2,Win32,59.99520038,,,,,,,,,,,,,,,,,,masks/mask_002.jpg,,,,,,,,,,,,,,,,,,,,,,,,,,,,,,,,,,,,,,,,,,,0,0,0,1,1,,,,,,,,,,,,,,,,,,,,,,,,,,,,,,,,,,,,,,,,,,,,,,
245718,001,2022-11-21_01h59.55.991,Info_measure_main_exp,2022.2.2,Win32,59.99520038,,,,,,,,,,,,,,,,,,masks/mask_004.jpg,,,,,,,,,,,,,,,,,,,,,,,,,,,,,,,,,,,,,,,,,,,0,1,1,3,1,,,,,,,,,,,,,,,,,,,,,,,,,,,,,,,,,,,,,,,,,,,,,,
245718,001,2022-11-21_01h59.55.991,Info_measure_main_exp,2022.2.2,Win32,59.99520038,,,,,,,,,,,,,,,,,,masks/mask_005.jpg,,,,,,,,,,,,,,,,,,,,,,,,,,,,,,,,,,,,,,,,,,,0,2,2,4,1,,,,,,,,,,,,,,,,,,,,,,,,,,,,,,,,,,,,,,,,,,,,,,
245718,001,2022-11-21_01h59.55.991,Info_measure_main_exp,2022.2.2,Win32,59.99520038,,,,,,,,,,,,,,,,,,masks/mask_003.jpg,,,,,,,,,,,,,,,,,,,,,,,,,,,,,,,,,,,,,,,,,,,0,3,3,2,1,,,,,,,,,,,,,,,,,,,,,,,,,,,,,,,,,,,,,,,,,,,,,,
245718,001,2022-11-21_01h59.55.991,Info_measure_main_exp,2022.2.2,Win32,59.99520038,,,,,,,,,,,,,,,,,,masks/mask_001.jpg,,,,,,,,,,,,,,,,,,,,,,,,,,,,,,,,,,,,,,,,,,,0,4,4,0,1,,,,,,,,,,,,,,,,,,,,,,,,,,,,,,,,,,,,,,,,,,,,,,
245718,001,2022-11-21_01h59.55.991,Info_measure_main_exp,2022.2.2,Win32,59.99520038,,,,,,,,,,,,,,,,,,masks/mask_004.jpg,,,,,,,,,,,,,,,,,,,,,,,,,,,,,,,,,,,,,,,,,,,,,,,,0,0,0,3,1,,,,,,,,,,,,,,,,,,,,,,,,,,,,,,,,,,,,,,,,,
245718,001,2022-11-21_01h59.55.991,Info_measure_main_exp,2022.2.2,Win32,59.99520038,,,,,,,,,,,,,,,,,,masks/mask_001.jpg,,,,,,,,,,,,,,,,,,,,,,,,,,,,,,,,,,,,,,,,,,,,,,,,0,1,1,0,1,,,,,,,,,,,,,,,,,,,,,,,,,,,,,,,,,,,,,,,,,
245718,001,2022-11-21_01h59.55.991,Info_measure_main_exp,2022.2.2,Win32,59.99520038,,,,,,,,,,,,,,,,,,masks/mask_005.jpg,,,,,,,,,,,,,,,,,,,,,,,,,,,,,,,,,,,,,,,,,,,,,,,,0,2,2,4,1,,,,,,,,,,,,,,,,,,,,,,,,,,,,,,,,,,,,,,,,,
245718,001,2022-11-21_01h59.55.991,Info_measure_main_exp,2022.2.2,Win32,59.99520038,,,,,,,,,,,,,,,,,,masks/mask_003.jpg,,,,,,,,,,,,,,,,,,,,,,,,,,,,,,,,,,,,,,,,,,,,,,,,0,3,3,2,1,,,,,,,,,,,,,,,,,,,,,,,,,,,,,,,,,,,,,,,,,
245718,001,2022-11-21_01h59.55.991,Info_measure_main_exp,2022.2.2,Win32,59.99520038,,,,,,,,,,,,,,,,,,masks/mask_002.jpg,,,,,,,,,,,,,,,,,,,,,,,,,,,,,,,,,,,,,,,,,,,,,,,,0,4,4,1,1,,,,,,,,,,,,,,,,,,,,,,,,,,,,,,,,,,,,,,,,,
245718,001,2022-11-21_01h59.55.991,Info_measure_main_exp,2022.2.2,Win32,59.99520038,,,,,,,,,,,,,,,,,,,,,,,,,,,,,,7,1.4224,1,,,,,,,,,,,,1,131,5,5,2298,1,absent_patch/patch0002298.jpg,present_patch/cong_131_5_a.jpg,,,,,,,,,,,,,,,,,,,,0.073148176,0.166666667,1,0,0,response1disk,1,-0.003703647,-0.001851866,1,0,0,center_square,0,0,0,45,1,,,,,,,,,,,,,,,,,,,,,,,
245718,001,2022-11-21_01h59.55.991,Info_measure_main_exp,2022.2.2,Win32,59.99520038,,,,,,,,,,,,,,,,,,masks/mask_003.jpg,,,,,,,,,,,,,,,,,,,,,,,,,,,,,,,,,,,,,,,,,,,0,0,0,2,1,,,,,,,,,,,,,,,,,,,,,,,,,,,,,,,,,,,,,,,,,,,,,,
245718,001,2022-11-21_01h59.55.991,Info_measure_main_exp,2022.2.2,Win32,59.99520038,,,,,,,,,,,,,,,,,,masks/mask_001.jpg,,,,,,,,,,,,,,,,,,,,,,,,,,,,,,,,,,,,,,,,,,,0,1,1,0,1,,,,,,,,,,,,,,,,,,,,,,,,,,,,,,,,,,,,,,,,,,,,,,
245718,001,2022-11-21_01h59.55.991,Info_measure_main_exp,2022.2.2,Win32,59.99520038,,,,,,,,,,,,,,,,,,masks/mask_005.jpg,,,,,,,,,,,,,,,,,,,,,,,,,,,,,,,,,,,,,,,,,,,0,2,2,4,1,,,,,,,,,,,,,,,,,,,,,,,,,,,,,,,,,,,,,,,,,,,,,,
245718,001,2022-11-21_01h59.55.991,Info_measure_main_exp,2022.2.2,Win32,59.99520038,,,,,,,,,,,,,,,,,,masks/mask_004.jpg,,,,,,,,,,,,,,,,,,,,,,,,,,,,,,,,,,,,,,,,,,,0,3,3,3,1,,,,,,,,,,,,,,,,,,,,,,,,,,,,,,,,,,,,,,,,,,,,,,
245718,001,2022-11-21_01h59.55.991,Info_measure_main_exp,2022.2.2,Win32,59.99520038,,,,,,,,,,,,,,,,,,masks/mask_002.jpg,,,,,,,,,,,,,,,,,,,,,,,,,,,,,,,,,,,,,,,,,,,0,4,4,1,1,,,,,,,,,,,,,,,,,,,,,,,,,,,,,,,,,,,,,,,,,,,,,,
245718,001,2022-11-21_01h59.55.991,Info_measure_main_exp,2022.2.2,Win32,59.99520038,,,,,,,,,,,,,,,,,,masks/mask_005.jpg,,,,,,,,,,,,,,,,,,,,,,,,,,,,,,,,,,,,,,,,,,,,,,,,0,0,0,4,1,,,,,,,,,,,,,,,,,,,,,,,,,,,,,,,,,,,,,,,,,
245718,001,2022-11-21_01h59.55.991,Info_measure_main_exp,2022.2.2,Win32,59.99520038,,,,,,,,,,,,,,,,,,masks/mask_002.jpg,,,,,,,,,,,,,,,,,,,,,,,,,,,,,,,,,,,,,,,,,,,,,,,,0,1,1,1,1,,,,,,,,,,,,,,,,,,,,,,,,,,,,,,,,,,,,,,,,,
245718,001,2022-11-21_01h59.55.991,Info_measure_main_exp,2022.2.2,Win32,59.99520038,,,,,,,,,,,,,,,,,,masks/mask_003.jpg,,,,,,,,,,,,,,,,,,,,,,,,,,,,,,,,,,,,,,,,,,,,,,,,0,2,2,2,1,,,,,,,,,,,,,,,,,,,,,,,,,,,,,,,,,,,,,,,,,
245718,001,2022-11-21_01h59.55.991,Info_measure_main_exp,2022.2.2,Win32,59.99520038,,,,,,,,,,,,,,,,,,masks/mask_004.jpg,,,,,,,,,,,,,,,,,,,,,,,,,,,,,,,,,,,,,,,,,,,,,,,,0,3,3,3,1,,,,,,,,,,,,,,,,,,,,,,,,,,,,,,,,,,,,,,,,,
245718,001,2022-11-21_01h59.55.991,Info_measure_main_exp,2022.2.2,Win32,59.99520038,,,,,,,,,,,,,,,,,,masks/mask_001.jpg,,,,,,,,,,,,,,,,,,,,,,,,,,,,,,,,,,,,,,,,,,,,,,,,0,4,4,0,1,,,,,,,,,,,,,,,,,,,,,,,,,,,,,,,,,,,,,,,,,
245718,001,2022-11-21_01h59.55.991,Info_measure_main_exp,2022.2.2,Win32,59.99520038,,,,,,,,,,,,,,,,,,,,,,,,,,,,,,0,0.9501,1,,,,,,,,,,,,0,131,5,5,2142,2142,absent_patch/patch0002142.jpg,absent_patch/patch0002142.jpg,,,,,,,,,,,,,,,,,,,,-0.083333333,0.151851845,1,0,0,response7disk,2,0.002777778,-0.007407422,1,0,0,center_square,0,1,1,13,1,,,,,,,,,,,,,,,,,,,,,,,
245718,001,2022-11-21_01h59.55.991,Info_measure_main_exp,2022.2.2,Win32,59.99520038,,,,,,,,,,,,,,,,,,masks/mask_003.jpg,,,,,,,,,,,,,,,,,,,,,,,,,,,,,,,,,,,,,,,,,,,0,0,0,2,1,,,,,,,,,,,,,,,,,,,,,,,,,,,,,,,,,,,,,,,,,,,,,,
245718,001,2022-11-21_01h59.55.991,Info_measure_main_exp,2022.2.2,Win32,59.99520038,,,,,,,,,,,,,,,,,,masks/mask_001.jpg,,,,,,,,,,,,,,,,,,,,,,,,,,,,,,,,,,,,,,,,,,,0,1,1,0,1,,,,,,,,,,,,,,,,,,,,,,,,,,,,,,,,,,,,,,,,,,,,,,
245718,001,2022-11-21_01h59.55.991,Info_measure_main_exp,2022.2.2,Win32,59.99520038,,,,,,,,,,,,,,,,,,masks/mask_005.jpg,,,,,,,,,,,,,,,,,,,,,,,,,,,,,,,,,,,,,,,,,,,0,2,2,4,1,,,,,,,,,,,,,,,,,,,,,,,,,,,,,,,,,,,,,,,,,,,,,,
245718,001,2022-11-21_01h59.55.991,Info_measure_main_exp,2022.2.2,Win32,59.99520038,,,,,,,,,,,,,,,,,,masks/mask_004.jpg,,,,,,,,,,,,,,,,,,,,,,,,,,,,,,,,,,,,,,,,,,,0,3,3,3,1,,,,,,,,,,,,,,,,,,,,,,,,,,,,,,,,,,,,,,,,,,,,,,
245718,001,2022-11-21_01h59.55.991,Info_measure_main_exp,2022.2.2,Win32,59.99520038,,,,,,,,,,,,,,,,,,masks/mask_002.jpg,,,,,,,,,,,,,,,,,,,,,,,,,,,,,,,,,,,,,,,,,,,0,4,4,1,1,,,,,,,,,,,,,,,,,,,,,,,,,,,,,,,,,,,,,,,,,,,,,,
245718,001,2022-11-21_01h59.55.991,Info_measure_main_exp,2022.2.2,Win32,59.99520038,,,,,,,,,,,,,,,,,,masks/mask_001.jpg,,,,,,,,,,,,,,,,,,,,,,,,,,,,,,,,,,,,,,,,,,,,,,,,0,0,0,0,1,,,,,,,,,,,,,,,,,,,,,,,,,,,,,,,,,,,,,,,,,
245718,001,2022-11-21_01h59.55.991,Info_measure_main_exp,2022.2.2,Win32,59.99520038,,,,,,,,,,,,,,,,,,masks/mask_005.jpg,,,,,,,,,,,,,,,,,,,,,,,,,,,,,,,,,,,,,,,,,,,,,,,,0,1,1,4,1,,,,,,,,,,,,,,,,,,,,,,,,,,,,,,,,,,,,,,,,,
245718,001,2022-11-21_01h59.55.991,Info_measure_main_exp,2022.2.2,Win32,59.99520038,,,,,,,,,,,,,,,,,,masks/mask_004.jpg,,,,,,,,,,,,,,,,,,,,,,,,,,,,,,,,,,,,,,,,,,,,,,,,0,2,2,3,1,,,,,,,,,,,,,,,,,,,,,,,,,,,,,,,,,,,,,,,,,
245718,001,2022-11-21_01h59.55.991,Info_measure_main_exp,2022.2.2,Win32,59.99520038,,,,,,,,,,,,,,,,,,masks/mask_002.jpg,,,,,,,,,,,,,,,,,,,,,,,,,,,,,,,,,,,,,,,,,,,,,,,,0,3,3,1,1,,,,,,,,,,,,,,,,,,,,,,,,,,,,,,,,,,,,,,,,,
245718,001,2022-11-21_01h59.55.991,Info_measure_main_exp,2022.2.2,Win32,59.99520038,,,,,,,,,,,,,,,,,,masks/mask_003.jpg,,,,,,,,,,,,,,,,,,,,,,,,,,,,,,,,,,,,,,,,,,,,,,,,0,4,4,2,1,,,,,,,,,,,,,,,,,,,,,,,,,,,,,,,,,,,,,,,,,
245718,001,2022-11-21_01h59.55.991,Info_measure_main_exp,2022.2.2,Win32,59.99520038,,,,,,,,,,,,,,,,,,,,,,,,,,,,,,7,0.8991,1,,,,,,,,,,,,0,131,5,5,2214,2082,absent_patch/patch0002214.jpg,absent_patch/patch0002082.jpg,,,,,,,,,,,,,,,,,,,,0.038888889,0.117592578,1,0,0,response1disk,3,0.003703732,0.010185157,1,0,0,center_square,0,2,2,103,1,,,,,,,,,,,,,,,,,,,,,,,
245718,001,2022-11-21_01h59.55.991,Info_measure_main_exp,2022.2.2,Win32,59.99520038,,,,,,,,,,,,,,,,,,masks/mask_003.jpg,,,,,,,,,,,,,,,,,,,,,,,,,,,,,,,,,,,,,,,,,,,0,0,0,2,1,,,,,,,,,,,,,,,,,,,,,,,,,,,,,,,,,,,,,,,,,,,,,,
245718,001,2022-11-21_01h59.55.991,Info_measure_main_exp,2022.2.2,Win32,59.99520038,,,,,,,,,,,,,,,,,,masks/mask_002.jpg,,,,,,,,,,,,,,,,,,,,,,,,,,,,,,,,,,,,,,,,,,,0,1,1,1,1,,,,,,,,,,,,,,,,,,,,,,,,,,,,,,,,,,,,,,,,,,,,,,
245718,001,2022-11-21_01h59.55.991,Info_measure_main_exp,2022.2.2,Win32,59.99520038,,,,,,,,,,,,,,,,,,masks/mask_005.jpg,,,,,,,,,,,,,,,,,,,,,,,,,,,,,,,,,,,,,,,,,,,0,2,2,4,1,,,,,,,,,,,,,,,,,,,,,,,,,,,,,,,,,,,,,,,,,,,,,,
245718,001,2022-11-21_01h59.55.991,Info_measure_main_exp,2022.2.2,Win32,59.99520038,,,,,,,,,,,,,,,,,,masks/mask_004.jpg,,,,,,,,,,,,,,,,,,,,,,,,,,,,,,,,,,,,,,,,,,,0,3,3,3,1,,,,,,,,,,,,,,,,,,,,,,,,,,,,,,,,,,,,,,,,,,,,,,
245718,001,2022-11-21_01h59.55.991,Info_measure_main_exp,2022.2.2,Win32,59.99520038,,,,,,,,,,,,,,,,,,masks/mask_001.jpg,,,,,,,,,,,,,,,,,,,,,,,,,,,,,,,,,,,,,,,,,,,0,4,4,0,1,,,,,,,,,,,,,,,,,,,,,,,,,,,,,,,,,,,,,,,,,,,,,,
245718,001,2022-11-21_01h59.55.991,Info_measure_main_exp,2022.2.2,Win32,59.99520038,,,,,,,,,,,,,,,,,,masks/mask_002.jpg,,,,,,,,,,,,,,,,,,,,,,,,,,,,,,,,,,,,,,,,,,,,,,,,0,0,0,1,1,,,,,,,,,,,,,,,,,,,,,,,,,,,,,,,,,,,,,,,,,
245718,001,2022-11-21_01h59.55.991,Info_measure_main_exp,2022.2.2,Win32,59.99520038,,,,,,,,,,,,,,,,,,masks/mask_003.jpg,,,,,,,,,,,,,,,,,,,,,,,,,,,,,,,,,,,,,,,,,,,,,,,,0,1,1,2,1,,,,,,,,,,,,,,,,,,,,,,,,,,,,,,,,,,,,,,,,,
245718,001,2022-11-21_01h59.55.991,Info_measure_main_exp,2022.2.2,Win32,59.99520038,,,,,,,,,,,,,,,,,,masks/mask_004.jpg,,,,,,,,,,,,,,,,,,,,,,,,,,,,,,,,,,,,,,,,,,,,,,,,0,2,2,3,1,,,,,,,,,,,,,,,,,,,,,,,,,,,,,,,,,,,,,,,,,
245718,001,2022-11-21_01h59.55.991,Info_measure_main_exp,2022.2.2,Win32,59.99520038,,,,,,,,,,,,,,,,,,masks/mask_005.jpg,,,,,,,,,,,,,,,,,,,,,,,,,,,,,,,,,,,,,,,,,,,,,,,,0,3,3,4,1,,,,,,,,,,,,,,,,,,,,,,,,,,,,,,,,,,,,,,,,,
245718,001,2022-11-21_01h59.55.991,Info_measure_main_exp,2022.2.2,Win32,59.99520038,,,,,,,,,,,,,,,,,,masks/mask_001.jpg,,,,,,,,,,,,,,,,,,,,,,,,,,,,,,,,,,,,,,,,,,,,,,,,0,4,4,0,1,,,,,,,,,,,,,,,,,,,,,,,,,,,,,,,,,,,,,,,,,
245718,001,2022-11-21_01h59.55.991,Info_measure_main_exp,2022.2.2,Win32,59.99520038,,,,,,,,,,,,,,,,,,,,,,,,,,,,,,2,1.8982,1,,,,,,,,,,,,0,131,5,5,1986,2154,absent_patch/patch0001986.jpg,absent_patch/patch0002154.jpg,,,,,,,,,,,,,,,,,,,,-0.151851824,-0.036111111,1,0,0,response5disk,4,-0.001851824,0.002777778,1,0,0,center_square,0,3,3,36,1,,,,,,,,,,,,,,,,,,,,,,,
245718,001,2022-11-21_01h59.55.991,Info_measure_main_exp,2022.2.2,Win32,59.99520038,,,,,,,,,,,,,,,,,,masks/mask_004.jpg,,,,,,,,,,,,,,,,,,,,,,,,,,,,,,,,,,,,,,,,,,,0,0,0,3,1,,,,,,,,,,,,,,,,,,,,,,,,,,,,,,,,,,,,,,,,,,,,,,
245718,001,2022-11-21_01h59.55.991,Info_measure_main_exp,2022.2.2,Win32,59.99520038,,,,,,,,,,,,,,,,,,masks/mask_002.jpg,,,,,,,,,,,,,,,,,,,,,,,,,,,,,,,,,,,,,,,,,,,0,1,1,1,1,,,,,,,,,,,,,,,,,,,,,,,,,,,,,,,,,,,,,,,,,,,,,,
245718,001,2022-11-21_01h59.55.991,Info_measure_main_exp,2022.2.2,Win32,59.99520038,,,,,,,,,,,,,,,,,,masks/mask_001.jpg,,,,,,,,,,,,,,,,,,,,,,,,,,,,,,,,,,,,,,,,,,,0,2,2,0,1,,,,,,,,,,,,,,,,,,,,,,,,,,,,,,,,,,,,,,,,,,,,,,
245718,001,2022-11-21_01h59.55.991,Info_measure_main_exp,2022.2.2,Win32,59.99520038,,,,,,,,,,,,,,,,,,masks/mask_005.jpg,,,,,,,,,,,,,,,,,,,,,,,,,,,,,,,,,,,,,,,,,,,0,3,3,4,1,,,,,,,,,,,,,,,,,,,,,,,,,,,,,,,,,,,,,,,,,,,,,,
245718,001,2022-11-21_01h59.55.991,Info_measure_main_exp,2022.2.2,Win32,59.99520038,,,,,,,,,,,,,,,,,,masks/mask_003.jpg,,,,,,,,,,,,,,,,,,,,,,,,,,,,,,,,,,,,,,,,,,,0,4,4,2,1,,,,,,,,,,,,,,,,,,,,,,,,,,,,,,,,,,,,,,,,,,,,,,
245718,001,2022-11-21_01h59.55.991,Info_measure_main_exp,2022.2.2,Win32,59.99520038,,,,,,,,,,,,,,,,,,masks/mask_001.jpg,,,,,,,,,,,,,,,,,,,,,,,,,,,,,,,,,,,,,,,,,,,,,,,,0,0,0,0,1,,,,,,,,,,,,,,,,,,,,,,,,,,,,,,,,,,,,,,,,,
245718,001,2022-11-21_01h59.55.991,Info_measure_main_exp,2022.2.2,Win32,59.99520038,,,,,,,,,,,,,,,,,,masks/mask_002.jpg,,,,,,,,,,,,,,,,,,,,,,,,,,,,,,,,,,,,,,,,,,,,,,,,0,1,1,1,1,,,,,,,,,,,,,,,,,,,,,,,,,,,,,,,,,,,,,,,,,
245718,001,2022-11-21_01h59.55.991,Info_measure_main_exp,2022.2.2,Win32,59.99520038,,,,,,,,,,,,,,,,,,masks/mask_003.jpg,,,,,,,,,,,,,,,,,,,,,,,,,,,,,,,,,,,,,,,,,,,,,,,,0,2,2,2,1,,,,,,,,,,,,,,,,,,,,,,,,,,,,,,,,,,,,,,,,,
245718,001,2022-11-21_01h59.55.991,Info_measure_main_exp,2022.2.2,Win32,59.99520038,,,,,,,,,,,,,,,,,,masks/mask_005.jpg,,,,,,,,,,,,,,,,,,,,,,,,,,,,,,,,,,,,,,,,,,,,,,,,0,3,3,4,1,,,,,,,,,,,,,,,,,,,,,,,,,,,,,,,,,,,,,,,,,
245718,001,2022-11-21_01h59.55.991,Info_measure_main_exp,2022.2.2,Win32,59.99520038,,,,,,,,,,,,,,,,,,masks/mask_004.jpg,,,,,,,,,,,,,,,,,,,,,,,,,,,,,,,,,,,,,,,,,,,,,,,,0,4,4,3,1,,,,,,,,,,,,,,,,,,,,,,,,,,,,,,,,,,,,,,,,,
245718,001,2022-11-21_01h59.55.991,Info_measure_main_exp,2022.2.2,Win32,59.99520038,,,,,,,,,,,,,,,,,,,,,,,,,,,,,,3,2.5037,1,,,,,,,,,,,,0,131,5,5,2274,1974,absent_patch/patch0002274.jpg,absent_patch/patch0001974.jpg,,,,,,,,,,,,,,,,,,,,-0.016666667,-0.124074088,1,0,0,response5disk,5,0.003703732,-0.003703732,1,0,0,center_square,0,4,4,90,1,,,,,,,,,,,,,,,,,,,,,,,
245718,001,2022-11-21_01h59.55.991,Info_measure_main_exp,2022.2.2,Win32,59.99520038,,,,,,,,,,,,,,,,,,masks/mask_004.jpg,,,,,,,,,,,,,,,,,,,,,,,,,,,,,,,,,,,,,,,,,,,0,0,0,3,1,,,,,,,,,,,,,,,,,,,,,,,,,,,,,,,,,,,,,,,,,,,,,,
245718,001,2022-11-21_01h59.55.991,Info_measure_main_exp,2022.2.2,Win32,59.99520038,,,,,,,,,,,,,,,,,,masks/mask_003.jpg,,,,,,,,,,,,,,,,,,,,,,,,,,,,,,,,,,,,,,,,,,,0,1,1,2,1,,,,,,,,,,,,,,,,,,,,,,,,,,,,,,,,,,,,,,,,,,,,,,
245718,001,2022-11-21_01h59.55.991,Info_measure_main_exp,2022.2.2,Win32,59.99520038,,,,,,,,,,,,,,,,,,masks/mask_005.jpg,,,,,,,,,,,,,,,,,,,,,,,,,,,,,,,,,,,,,,,,,,,0,2,2,4,1,,,,,,,,,,,,,,,,,,,,,,,,,,,,,,,,,,,,,,,,,,,,,,
245718,001,2022-11-21_01h59.55.991,Info_measure_main_exp,2022.2.2,Win32,59.99520038,,,,,,,,,,,,,,,,,,masks/mask_002.jpg,,,,,,,,,,,,,,,,,,,,,,,,,,,,,,,,,,,,,,,,,,,0,3,3,1,1,,,,,,,,,,,,,,,,,,,,,,,,,,,,,,,,,,,,,,,,,,,,,,
245718,001,2022-11-21_01h59.55.991,Info_measure_main_exp,2022.2.2,Win32,59.99520038,,,,,,,,,,,,,,,,,,masks/mask_001.jpg,,,,,,,,,,,,,,,,,,,,,,,,,,,,,,,,,,,,,,,,,,,0,4,4,0,1,,,,,,,,,,,,,,,,,,,,,,,,,,,,,,,,,,,,,,,,,,,,,,
245718,001,2022-11-21_01h59.55.991,Info_measure_main_exp,2022.2.2,Win32,59.99520038,,,,,,,,,,,,,,,,,,masks/mask_002.jpg,,,,,,,,,,,,,,,,,,,,,,,,,,,,,,,,,,,,,,,,,,,,,,,,0,0,0,1,1,,,,,,,,,,,,,,,,,,,,,,,,,,,,,,,,,,,,,,,,,
245718,001,2022-11-21_01h59.55.991,Info_measure_main_exp,2022.2.2,Win32,59.99520038,,,,,,,,,,,,,,,,,,masks/mask_003.jpg,,,,,,,,,,,,,,,,,,,,,,,,,,,,,,,,,,,,,,,,,,,,,,,,0,1,1,2,1,,,,,,,,,,,,,,,,,,,,,,,,,,,,,,,,,,,,,,,,,
245718,001,2022-11-21_01h59.55.991,Info_measure_main_exp,2022.2.2,Win32,59.99520038,,,,,,,,,,,,,,,,,,masks/mask_004.jpg,,,,,,,,,,,,,,,,,,,,,,,,,,,,,,,,,,,,,,,,,,,,,,,,0,2,2,3,1,,,,,,,,,,,,,,,,,,,,,,,,,,,,,,,,,,,,,,,,,
245718,001,2022-11-21_01h59.55.991,Info_measure_main_exp,2022.2.2,Win32,59.99520038,,,,,,,,,,,,,,,,,,masks/mask_001.jpg,,,,,,,,,,,,,,,,,,,,,,,,,,,,,,,,,,,,,,,,,,,,,,,,0,3,3,0,1,,,,,,,,,,,,,,,,,,,,,,,,,,,,,,,,,,,,,,,,,
245718,001,2022-11-21_01h59.55.991,Info_measure_main_exp,2022.2.2,Win32,59.99520038,,,,,,,,,,,,,,,,,,masks/mask_005.jpg,,,,,,,,,,,,,,,,,,,,,,,,,,,,,,,,,,,,,,,,,,,,,,,,0,4,4,4,1,,,,,,,,,,,,,,,,,,,,,,,,,,,,,,,,,,,,,,,,,
245718,001,2022-11-21_01h59.55.991,Info_measure_main_exp,2022.2.2,Win32,59.99520038,,,,,,,,,,,,,,,,,,,,,,,,,,,,,,4,1.4187,1,,,,,,,,,,,,0,131,5,5,1950,2142,absent_patch/patch0001950.jpg,absent_patch/patch0002142.jpg,,,,,,,,,,,,,,,,,,,,0.044444444,-0.088888889,1,0,0,response3disk,6,-0.002777778,0.002777778,1,0,0,center_square,0,5,5,83,1,,,,,,,,,,,,,,,,,,,,,,,
245718,001,2022-11-21_01h59.55.991,Info_measure_main_exp,2022.2.2,Win32,59.99520038,,,,,,,,,,,,,,,,,,masks/mask_004.jpg,,,,,,,,,,,,,,,,,,,,,,,,,,,,,,,,,,,,,,,,,,,0,0,0,3,1,,,,,,,,,,,,,,,,,,,,,,,,,,,,,,,,,,,,,,,,,,,,,,
245718,001,2022-11-21_01h59.55.991,Info_measure_main_exp,2022.2.2,Win32,59.99520038,,,,,,,,,,,,,,,,,,masks/mask_005.jpg,,,,,,,,,,,,,,,,,,,,,,,,,,,,,,,,,,,,,,,,,,,0,1,1,4,1,,,,,,,,,,,,,,,,,,,,,,,,,,,,,,,,,,,,,,,,,,,,,,
245718,001,2022-11-21_01h59.55.991,Info_measure_main_exp,2022.2.2,Win32,59.99520038,,,,,,,,,,,,,,,,,,masks/mask_003.jpg,,,,,,,,,,,,,,,,,,,,,,,,,,,,,,,,,,,,,,,,,,,0,2,2,2,1,,,,,,,,,,,,,,,,,,,,,,,,,,,,,,,,,,,,,,,,,,,,,,
245718,001,2022-11-21_01h59.55.991,Info_measure_main_exp,2022.2.2,Win32,59.99520038,,,,,,,,,,,,,,,,,,masks/mask_002.jpg,,,,,,,,,,,,,,,,,,,,,,,,,,,,,,,,,,,,,,,,,,,0,3,3,1,1,,,,,,,,,,,,,,,,,,,,,,,,,,,,,,,,,,,,,,,,,,,,,,
245718,001,2022-11-21_01h59.55.991,Info_measure_main_exp,2022.2.2,Win32,59.99520038,,,,,,,,,,,,,,,,,,masks/mask_001.jpg,,,,,,,,,,,,,,,,,,,,,,,,,,,,,,,,,,,,,,,,,,,0,4,4,0,1,,,,,,,,,,,,,,,,,,,,,,,,,,,,,,,,,,,,,,,,,,,,,,
245718,001,2022-11-21_01h59.55.991,Info_measure_main_exp,2022.2.2,Win32,59.99520038,,,,,,,,,,,,,,,,,,masks/mask_004.jpg,,,,,,,,,,,,,,,,,,,,,,,,,,,,,,,,,,,,,,,,,,,,,,,,0,0,0,3,1,,,,,,,,,,,,,,,,,,,,,,,,,,,,,,,,,,,,,,,,,
245718,001,2022-11-21_01h59.55.991,Info_measure_main_exp,2022.2.2,Win32,59.99520038,,,,,,,,,,,,,,,,,,masks/mask_001.jpg,,,,,,,,,,,,,,,,,,,,,,,,,,,,,,,,,,,,,,,,,,,,,,,,0,1,1,0,1,,,,,,,,,,,,,,,,,,,,,,,,,,,,,,,,,,,,,,,,,
245718,001,2022-11-21_01h59.55.991,Info_measure_main_exp,2022.2.2,Win32,59.99520038,,,,,,,,,,,,,,,,,,masks/mask_003.jpg,,,,,,,,,,,,,,,,,,,,,,,,,,,,,,,,,,,,,,,,,,,,,,,,0,2,2,2,1,,,,,,,,,,,,,,,,,,,,,,,,,,,,,,,,,,,,,,,,,
245718,001,2022-11-21_01h59.55.991,Info_measure_main_exp,2022.2.2,Win32,59.99520038,,,,,,,,,,,,,,,,,,masks/mask_005.jpg,,,,,,,,,,,,,,,,,,,,,,,,,,,,,,,,,,,,,,,,,,,,,,,,0,3,3,4,1,,,,,,,,,,,,,,,,,,,,,,,,,,,,,,,,,,,,,,,,,
245718,001,2022-11-21_01h59.55.991,Info_measure_main_exp,2022.2.2,Win32,59.99520038,,,,,,,,,,,,,,,,,,masks/mask_002.jpg,,,,,,,,,,,,,,,,,,,,,,,,,,,,,,,,,,,,,,,,,,,,,,,,0,4,4,1,1,,,,,,,,,,,,,,,,,,,,,,,,,,,,,,,,,,,,,,,,,
245718,001,2022-11-21_01h59.55.991,Info_measure_main_exp,2022.2.2,Win32,59.99520038,,,,,,,,,,,,,,,,,,,,,,,,,,,,,,7,1.9341,1,,,,,,,,,,,,0,131,5,5,2190,2250,absent_patch/patch0002190.jpg,absent_patch/patch0002250.jpg,,,,,,,,,,,,,,,,,,,,0.050925954,0.114814801,1,0,0,response1disk,7,-0.010185157,-0.001851866,1,0,0,center_square,0,6,6,93,1,,,,,,,,,,,,,,,,,,,,,,,
245718,001,2022-11-21_01h59.55.991,Info_measure_main_exp,2022.2.2,Win32,59.99520038,,,,,,,,,,,,,,,,,,masks/mask_005.jpg,,,,,,,,,,,,,,,,,,,,,,,,,,,,,,,,,,,,,,,,,,,0,0,0,4,1,,,,,,,,,,,,,,,,,,,,,,,,,,,,,,,,,,,,,,,,,,,,,,
245718,001,2022-11-21_01h59.55.991,Info_measure_main_exp,2022.2.2,Win32,59.99520038,,,,,,,,,,,,,,,,,,masks/mask_003.jpg,,,,,,,,,,,,,,,,,,,,,,,,,,,,,,,,,,,,,,,,,,,0,1,1,2,1,,,,,,,,,,,,,,,,,,,,,,,,,,,,,,,,,,,,,,,,,,,,,,
245718,001,2022-11-21_01h59.55.991,Info_measure_main_exp,2022.2.2,Win32,59.99520038,,,,,,,,,,,,,,,,,,masks/mask_001.jpg,,,,,,,,,,,,,,,,,,,,,,,,,,,,,,,,,,,,,,,,,,,0,2,2,0,1,,,,,,,,,,,,,,,,,,,,,,,,,,,,,,,,,,,,,,,,,,,,,,
245718,001,2022-11-21_01h59.55.991,Info_measure_main_exp,2022.2.2,Win32,59.99520038,,,,,,,,,,,,,,,,,,masks/mask_004.jpg,,,,,,,,,,,,,,,,,,,,,,,,,,,,,,,,,,,,,,,,,,,0,3,3,3,1,,,,,,,,,,,,,,,,,,,,,,,,,,,,,,,,,,,,,,,,,,,,,,
245718,001,2022-11-21_01h59.55.991,Info_measure_main_exp,2022.2.2,Win32,59.99520038,,,,,,,,,,,,,,,,,,masks/mask_002.jpg,,,,,,,,,,,,,,,,,,,,,,,,,,,,,,,,,,,,,,,,,,,0,4,4,1,1,,,,,,,,,,,,,,,,,,,,,,,,,,,,,,,,,,,,,,,,,,,,,,
245718,001,2022-11-21_01h59.55.991,Info_measure_main_exp,2022.2.2,Win32,59.99520038,,,,,,,,,,,,,,,,,,masks/mask_004.jpg,,,,,,,,,,,,,,,,,,,,,,,,,,,,,,,,,,,,,,,,,,,,,,,,0,0,0,3,1,,,,,,,,,,,,,,,,,,,,,,,,,,,,,,,,,,,,,,,,,
245718,001,2022-11-21_01h59.55.991,Info_measure_main_exp,2022.2.2,Win32,59.99520038,,,,,,,,,,,,,,,,,,masks/mask_003.jpg,,,,,,,,,,,,,,,,,,,,,,,,,,,,,,,,,,,,,,,,,,,,,,,,0,1,1,2,1,,,,,,,,,,,,,,,,,,,,,,,,,,,,,,,,,,,,,,,,,
245718,001,2022-11-21_01h59.55.991,Info_measure_main_exp,2022.2.2,Win32,59.99520038,,,,,,,,,,,,,,,,,,masks/mask_002.jpg,,,,,,,,,,,,,,,,,,,,,,,,,,,,,,,,,,,,,,,,,,,,,,,,0,2,2,1,1,,,,,,,,,,,,,,,,,,,,,,,,,,,,,,,,,,,,,,,,,
245718,001,2022-11-21_01h59.55.991,Info_measure_main_exp,2022.2.2,Win32,59.99520038,,,,,,,,,,,,,,,,,,masks/mask_005.jpg,,,,,,,,,,,,,,,,,,,,,,,,,,,,,,,,,,,,,,,,,,,,,,,,0,3,3,4,1,,,,,,,,,,,,,,,,,,,,,,,,,,,,,,,,,,,,,,,,,
245718,001,2022-11-21_01h59.55.991,Info_measure_main_exp,2022.2.2,Win32,59.99520038,,,,,,,,,,,,,,,,,,masks/mask_001.jpg,,,,,,,,,,,,,,,,,,,,,,,,,,,,,,,,,,,,,,,,,,,,,,,,0,4,4,0,1,,,,,,,,,,,,,,,,,,,,,,,,,,,,,,,,,,,,,,,,,
245718,001,2022-11-21_01h59.55.991,Info_measure_main_exp,2022.2.2,Win32,59.99520038,,,,,,,,,,,,,,,,,,,,,,,,,,,,,,7,1.5925,1,,,,,,,,,,,,0,131,5,5,2190,1974,absent_patch/patch0002190.jpg,absent_patch/patch0001974.jpg,,,,,,,,,,,,,,,,,,,,0.030555556,0.12870369,1,0,0,response1disk,8,0.005555556,0.011111111,1,0,0,center_square,0,7,7,119,1,,,,,,,,,,,,,,,,,,,,,,,
245718,001,2022-11-21_01h59.55.991,Info_measure_main_exp,2022.2.2,Win32,59.99520038,,,,,,,,,,,,,,,,,,masks/mask_002.jpg,,,,,,,,,,,,,,,,,,,,,,,,,,,,,,,,,,,,,,,,,,,0,0,0,1,1,,,,,,,,,,,,,,,,,,,,,,,,,,,,,,,,,,,,,,,,,,,,,,
245718,001,2022-11-21_01h59.55.991,Info_measure_main_exp,2022.2.2,Win32,59.99520038,,,,,,,,,,,,,,,,,,masks/mask_003.jpg,,,,,,,,,,,,,,,,,,,,,,,,,,,,,,,,,,,,,,,,,,,0,1,1,2,1,,,,,,,,,,,,,,,,,,,,,,,,,,,,,,,,,,,,,,,,,,,,,,
245718,001,2022-11-21_01h59.55.991,Info_measure_main_exp,2022.2.2,Win32,59.99520038,,,,,,,,,,,,,,,,,,masks/mask_005.jpg,,,,,,,,,,,,,,,,,,,,,,,,,,,,,,,,,,,,,,,,,,,0,2,2,4,1,,,,,,,,,,,,,,,,,,,,,,,,,,,,,,,,,,,,,,,,,,,,,,
245718,001,2022-11-21_01h59.55.991,Info_measure_main_exp,2022.2.2,Win32,59.99520038,,,,,,,,,,,,,,,,,,masks/mask_001.jpg,,,,,,,,,,,,,,,,,,,,,,,,,,,,,,,,,,,,,,,,,,,0,3,3,0,1,,,,,,,,,,,,,,,,,,,,,,,,,,,,,,,,,,,,,,,,,,,,,,
245718,001,2022-11-21_01h59.55.991,Info_measure_main_exp,2022.2.2,Win32,59.99520038,,,,,,,,,,,,,,,,,,masks/mask_004.jpg,,,,,,,,,,,,,,,,,,,,,,,,,,,,,,,,,,,,,,,,,,,0,4,4,3,1,,,,,,,,,,,,,,,,,,,,,,,,,,,,,,,,,,,,,,,,,,,,,,
245718,001,2022-11-21_01h59.55.991,Info_measure_main_exp,2022.2.2,Win32,59.99520038,,,,,,,,,,,,,,,,,,masks/mask_004.jpg,,,,,,,,,,,,,,,,,,,,,,,,,,,,,,,,,,,,,,,,,,,,,,,,0,0,0,3,1,,,,,,,,,,,,,,,,,,,,,,,,,,,,,,,,,,,,,,,,,
245718,001,2022-11-21_01h59.55.991,Info_measure_main_exp,2022.2.2,Win32,59.99520038,,,,,,,,,,,,,,,,,,masks/mask_001.jpg,,,,,,,,,,,,,,,,,,,,,,,,,,,,,,,,,,,,,,,,,,,,,,,,0,1,1,0,1,,,,,,,,,,,,,,,,,,,,,,,,,,,,,,,,,,,,,,,,,
245718,001,2022-11-21_01h59.55.991,Info_measure_main_exp,2022.2.2,Win32,59.99520038,,,,,,,,,,,,,,,,,,masks/mask_005.jpg,,,,,,,,,,,,,,,,,,,,,,,,,,,,,,,,,,,,,,,,,,,,,,,,0,2,2,4,1,,,,,,,,,,,,,,,,,,,,,,,,,,,,,,,,,,,,,,,,,
245718,001,2022-11-21_01h59.55.991,Info_measure_main_exp,2022.2.2,Win32,59.99520038,,,,,,,,,,,,,,,,,,masks/mask_002.jpg,,,,,,,,,,,,,,,,,,,,,,,,,,,,,,,,,,,,,,,,,,,,,,,,0,3,3,1,1,,,,,,,,,,,,,,,,,,,,,,,,,,,,,,,,,,,,,,,,,
245718,001,2022-11-21_01h59.55.991,Info_measure_main_exp,2022.2.2,Win32,59.99520038,,,,,,,,,,,,,,,,,,masks/mask_003.jpg,,,,,,,,,,,,,,,,,,,,,,,,,,,,,,,,,,,,,,,,,,,,,,,,0,4,4,2,1,,,,,,,,,,,,,,,,,,,,,,,,,,,,,,,,,,,,,,,,,
245718,001,2022-11-21_01h59.55.991,Info_measure_main_exp,2022.2.2,Win32,59.99520038,,,,,,,,,,,,,,,,,,,,,,,,,,,,,,7,1.0495,1,,,,,,,,,,,,1,131,5,5,1,2142,present_patch/cong_131_5_a.jpg,absent_patch/patch0002142.jpg,,,,,,,,,,,,,,,,,,,,0.037037065,0.101851824,1,0,0,response1disk,9,0.004629686,0.007407379,1,0,0,center_square,0,8,8,80,1,,,,,,,,,,,,,,,,,,,,,,,
245718,001,2022-11-21_01h59.55.991,Info_measure_main_exp,2022.2.2,Win32,59.99520038,,,,,,,,,,,,,,,,,,masks/mask_005.jpg,,,,,,,,,,,,,,,,,,,,,,,,,,,,,,,,,,,,,,,,,,,0,0,0,4,1,,,,,,,,,,,,,,,,,,,,,,,,,,,,,,,,,,,,,,,,,,,,,,
245718,001,2022-11-21_01h59.55.991,Info_measure_main_exp,2022.2.2,Win32,59.99520038,,,,,,,,,,,,,,,,,,masks/mask_001.jpg,,,,,,,,,,,,,,,,,,,,,,,,,,,,,,,,,,,,,,,,,,,0,1,1,0,1,,,,,,,,,,,,,,,,,,,,,,,,,,,,,,,,,,,,,,,,,,,,,,
245718,001,2022-11-21_01h59.55.991,Info_measure_main_exp,2022.2.2,Win32,59.99520038,,,,,,,,,,,,,,,,,,masks/mask_002.jpg,,,,,,,,,,,,,,,,,,,,,,,,,,,,,,,,,,,,,,,,,,,0,2,2,1,1,,,,,,,,,,,,,,,,,,,,,,,,,,,,,,,,,,,,,,,,,,,,,,
245718,001,2022-11-21_01h59.55.991,Info_measure_main_exp,2022.2.2,Win32,59.99520038,,,,,,,,,,,,,,,,,,masks/mask_003.jpg,,,,,,,,,,,,,,,,,,,,,,,,,,,,,,,,,,,,,,,,,,,0,3,3,2,1,,,,,,,,,,,,,,,,,,,,,,,,,,,,,,,,,,,,,,,,,,,,,,
245718,001,2022-11-21_01h59.55.991,Info_measure_main_exp,2022.2.2,Win32,59.99520038,,,,,,,,,,,,,,,,,,masks/mask_004.jpg,,,,,,,,,,,,,,,,,,,,,,,,,,,,,,,,,,,,,,,,,,,0,4,4,3,1,,,,,,,,,,,,,,,,,,,,,,,,,,,,,,,,,,,,,,,,,,,,,,
245718,001,2022-11-21_01h59.55.991,Info_measure_main_exp,2022.2.2,Win32,59.99520038,,,,,,,,,,,,,,,,,,masks/mask_005.jpg,,,,,,,,,,,,,,,,,,,,,,,,,,,,,,,,,,,,,,,,,,,,,,,,0,0,0,4,1,,,,,,,,,,,,,,,,,,,,,,,,,,,,,,,,,,,,,,,,,
245718,001,2022-11-21_01h59.55.991,Info_measure_main_exp,2022.2.2,Win32,59.99520038,,,,,,,,,,,,,,,,,,masks/mask_004.jpg,,,,,,,,,,,,,,,,,,,,,,,,,,,,,,,,,,,,,,,,,,,,,,,,0,1,1,3,1,,,,,,,,,,,,,,,,,,,,,,,,,,,,,,,,,,,,,,,,,
245718,001,2022-11-21_01h59.55.991,Info_measure_main_exp,2022.2.2,Win32,59.99520038,,,,,,,,,,,,,,,,,,masks/mask_001.jpg,,,,,,,,,,,,,,,,,,,,,,,,,,,,,,,,,,,,,,,,,,,,,,,,0,2,2,0,1,,,,,,,,,,,,,,,,,,,,,,,,,,,,,,,,,,,,,,,,,
245718,001,2022-11-21_01h59.55.991,Info_measure_main_exp,2022.2.2,Win32,59.99520038,,,,,,,,,,,,,,,,,,masks/mask_003.jpg,,,,,,,,,,,,,,,,,,,,,,,,,,,,,,,,,,,,,,,,,,,,,,,,0,3,3,2,1,,,,,,,,,,,,,,,,,,,,,,,,,,,,,,,,,,,,,,,,,
245718,001,2022-11-21_01h59.55.991,Info_measure_main_exp,2022.2.2,Win32,59.99520038,,,,,,,,,,,,,,,,,,masks/mask_002.jpg,,,,,,,,,,,,,,,,,,,,,,,,,,,,,,,,,,,,,,,,,,,,,,,,0,4,4,1,1,,,,,,,,,,,,,,,,,,,,,,,,,,,,,,,,,,,,,,,,,
245718,001,2022-11-21_01h59.55.991,Info_measure_main_exp,2022.2.2,Win32,59.99520038,,,,,,,,,,,,,,,,,,,,,,,,,,,,,,7,0.7841,1,,,,,,,,,,,,0,131,5,5,2214,2142,absent_patch/patch0002214.jpg,absent_patch/patch0002142.jpg,,,,,,,,,,,,,,,,,,,,0.028703732,0.072222222,1,0,0,response1disk,10,0.001851908,-0.012037065,1,0,0,center_square,0,9,9,102,1,,,,,,,,,,,,,,,,,,,,,,,
245718,001,2022-11-21_01h59.55.991,Info_measure_main_exp,2022.2.2,Win32,59.99520038,,,,,,,,,,,,,,,,,,masks/mask_002.jpg,,,,,,,,,,,,,,,,,,,,,,,,,,,,,,,,,,,,,,,,,,,0,0,0,1,1,,,,,,,,,,,,,,,,,,,,,,,,,,,,,,,,,,,,,,,,,,,,,,
245718,001,2022-11-21_01h59.55.991,Info_measure_main_exp,2022.2.2,Win32,59.99520038,,,,,,,,,,,,,,,,,,masks/mask_001.jpg,,,,,,,,,,,,,,,,,,,,,,,,,,,,,,,,,,,,,,,,,,,0,1,1,0,1,,,,,,,,,,,,,,,,,,,,,,,,,,,,,,,,,,,,,,,,,,,,,,
245718,001,2022-11-21_01h59.55.991,Info_measure_main_exp,2022.2.2,Win32,59.99520038,,,,,,,,,,,,,,,,,,masks/mask_005.jpg,,,,,,,,,,,,,,,,,,,,,,,,,,,,,,,,,,,,,,,,,,,0,2,2,4,1,,,,,,,,,,,,,,,,,,,,,,,,,,,,,,,,,,,,,,,,,,,,,,
245718,001,2022-11-21_01h59.55.991,Info_measure_main_exp,2022.2.2,Win32,59.99520038,,,,,,,,,,,,,,,,,,masks/mask_003.jpg,,,,,,,,,,,,,,,,,,,,,,,,,,,,,,,,,,,,,,,,,,,0,3,3,2,1,,,,,,,,,,,,,,,,,,,,,,,,,,,,,,,,,,,,,,,,,,,,,,
245718,001,2022-11-21_01h59.55.991,Info_measure_main_exp,2022.2.2,Win32,59.99520038,,,,,,,,,,,,,,,,,,masks/mask_004.jpg,,,,,,,,,,,,,,,,,,,,,,,,,,,,,,,,,,,,,,,,,,,0,4,4,3,1,,,,,,,,,,,,,,,,,,,,,,,,,,,,,,,,,,,,,,,,,,,,,,
245718,001,2022-11-21_01h59.55.991,Info_measure_main_exp,2022.2.2,Win32,59.99520038,,,,,,,,,,,,,,,,,,masks/mask_003.jpg,,,,,,,,,,,,,,,,,,,,,,,,,,,,,,,,,,,,,,,,,,,,,,,,0,0,0,2,1,,,,,,,,,,,,,,,,,,,,,,,,,,,,,,,,,,,,,,,,,
245718,001,2022-11-21_01h59.55.991,Info_measure_main_exp,2022.2.2,Win32,59.99520038,,,,,,,,,,,,,,,,,,masks/mask_001.jpg,,,,,,,,,,,,,,,,,,,,,,,,,,,,,,,,,,,,,,,,,,,,,,,,0,1,1,0,1,,,,,,,,,,,,,,,,,,,,,,,,,,,,,,,,,,,,,,,,,
245718,001,2022-11-21_01h59.55.991,Info_measure_main_exp,2022.2.2,Win32,59.99520038,,,,,,,,,,,,,,,,,,masks/mask_002.jpg,,,,,,,,,,,,,,,,,,,,,,,,,,,,,,,,,,,,,,,,,,,,,,,,0,2,2,1,1,,,,,,,,,,,,,,,,,,,,,,,,,,,,,,,,,,,,,,,,,
245718,001,2022-11-21_01h59.55.991,Info_measure_main_exp,2022.2.2,Win32,59.99520038,,,,,,,,,,,,,,,,,,masks/mask_005.jpg,,,,,,,,,,,,,,,,,,,,,,,,,,,,,,,,,,,,,,,,,,,,,,,,0,3,3,4,1,,,,,,,,,,,,,,,,,,,,,,,,,,,,,,,,,,,,,,,,,
245718,001,2022-11-21_01h59.55.991,Info_measure_main_exp,2022.2.2,Win32,59.99520038,,,,,,,,,,,,,,,,,,masks/mask_004.jpg,,,,,,,,,,,,,,,,,,,,,,,,,,,,,,,,,,,,,,,,,,,,,,,,0,4,4,3,1,,,,,,,,,,,,,,,,,,,,,,,,,,,,,,,,,,,,,,,,,
245718,001,2022-11-21_01h59.55.991,Info_measure_main_exp,2022.2.2,Win32,59.99520038,,,,,,,,,,,,,,,,,,,,,,,,,,,,,,7,0.8177,1,,,,,,,,,,,,1,131,5,5,1,1974,present_patch/cong_131_5_a.jpg,absent_patch/patch0001974.jpg,,,,,,,,,,,,,,,,,,,,0.029629686,0.095370356,1,0,0,response1disk,11,-0.010185157,-0.012962977,1,0,0,center_square,0,10,10,69,1,,,,,,,,,,,,,,,,,,,,,,,
245718,001,2022-11-21_01h59.55.991,Info_measure_main_exp,2022.2.2,Win32,59.99520038,,,,,,,,,,,,,,,,,,masks/mask_002.jpg,,,,,,,,,,,,,,,,,,,,,,,,,,,,,,,,,,,,,,,,,,,0,0,0,1,1,,,,,,,,,,,,,,,,,,,,,,,,,,,,,,,,,,,,,,,,,,,,,,
245718,001,2022-11-21_01h59.55.991,Info_measure_main_exp,2022.2.2,Win32,59.99520038,,,,,,,,,,,,,,,,,,masks/mask_004.jpg,,,,,,,,,,,,,,,,,,,,,,,,,,,,,,,,,,,,,,,,,,,0,1,1,3,1,,,,,,,,,,,,,,,,,,,,,,,,,,,,,,,,,,,,,,,,,,,,,,
245718,001,2022-11-21_01h59.55.991,Info_measure_main_exp,2022.2.2,Win32,59.99520038,,,,,,,,,,,,,,,,,,masks/mask_001.jpg,,,,,,,,,,,,,,,,,,,,,,,,,,,,,,,,,,,,,,,,,,,0,2,2,0,1,,,,,,,,,,,,,,,,,,,,,,,,,,,,,,,,,,,,,,,,,,,,,,
245718,001,2022-11-21_01h59.55.991,Info_measure_main_exp,2022.2.2,Win32,59.99520038,,,,,,,,,,,,,,,,,,masks/mask_005.jpg,,,,,,,,,,,,,,,,,,,,,,,,,,,,,,,,,,,,,,,,,,,0,3,3,4,1,,,,,,,,,,,,,,,,,,,,,,,,,,,,,,,,,,,,,,,,,,,,,,
245718,001,2022-11-21_01h59.55.991,Info_measure_main_exp,2022.2.2,Win32,59.99520038,,,,,,,,,,,,,,,,,,masks/mask_003.jpg,,,,,,,,,,,,,,,,,,,,,,,,,,,,,,,,,,,,,,,,,,,0,4,4,2,1,,,,,,,,,,,,,,,,,,,,,,,,,,,,,,,,,,,,,,,,,,,,,,
245718,001,2022-11-21_01h59.55.991,Info_measure_main_exp,2022.2.2,Win32,59.99520038,,,,,,,,,,,,,,,,,,masks/mask_002.jpg,,,,,,,,,,,,,,,,,,,,,,,,,,,,,,,,,,,,,,,,,,,,,,,,0,0,0,1,1,,,,,,,,,,,,,,,,,,,,,,,,,,,,,,,,,,,,,,,,,
245718,001,2022-11-21_01h59.55.991,Info_measure_main_exp,2022.2.2,Win32,59.99520038,,,,,,,,,,,,,,,,,,masks/mask_003.jpg,,,,,,,,,,,,,,,,,,,,,,,,,,,,,,,,,,,,,,,,,,,,,,,,0,1,1,2,1,,,,,,,,,,,,,,,,,,,,,,,,,,,,,,,,,,,,,,,,,
245718,001,2022-11-21_01h59.55.991,Info_measure_main_exp,2022.2.2,Win32,59.99520038,,,,,,,,,,,,,,,,,,masks/mask_004.jpg,,,,,,,,,,,,,,,,,,,,,,,,,,,,,,,,,,,,,,,,,,,,,,,,0,2,2,3,1,,,,,,,,,,,,,,,,,,,,,,,,,,,,,,,,,,,,,,,,,
245718,001,2022-11-21_01h59.55.991,Info_measure_main_exp,2022.2.2,Win32,59.99520038,,,,,,,,,,,,,,,,,,masks/mask_005.jpg,,,,,,,,,,,,,,,,,,,,,,,,,,,,,,,,,,,,,,,,,,,,,,,,0,3,3,4,1,,,,,,,,,,,,,,,,,,,,,,,,,,,,,,,,,,,,,,,,,
245718,001,2022-11-21_01h59.55.991,Info_measure_main_exp,2022.2.2,Win32,59.99520038,,,,,,,,,,,,,,,,,,masks/mask_001.jpg,,,,,,,,,,,,,,,,,,,,,,,,,,,,,,,,,,,,,,,,,,,,,,,,0,4,4,0,1,,,,,,,,,,,,,,,,,,,,,,,,,,,,,,,,,,,,,,,,,
245718,001,2022-11-21_01h59.55.991,Info_measure_main_exp,2022.2.2,Win32,59.99520038,,,,,,,,,,,,,,,,,,,,,,,,,,,,,,7,0.8672,1,,,,,,,,,,,,0,131,5,5,1950,2238,absent_patch/patch0001950.jpg,absent_patch/patch0002238.jpg,,,,,,,,,,,,,,,,,,,,0.015740797,0.062037023,1,0,0,response1disk,12,-0.006481425,-0.014814843,1,0,0,center_square,0,11,11,8,1,,,,,,,,,,,,,,,,,,,,,,,
245718,001,2022-11-21_01h59.55.991,Info_measure_main_exp,2022.2.2,Win32,59.99520038,,,,,,,,,,,,,,,,,,masks/mask_001.jpg,,,,,,,,,,,,,,,,,,,,,,,,,,,,,,,,,,,,,,,,,,,0,0,0,0,1,,,,,,,,,,,,,,,,,,,,,,,,,,,,,,,,,,,,,,,,,,,,,,
245718,001,2022-11-21_01h59.55.991,Info_measure_main_exp,2022.2.2,Win32,59.99520038,,,,,,,,,,,,,,,,,,masks/mask_005.jpg,,,,,,,,,,,,,,,,,,,,,,,,,,,,,,,,,,,,,,,,,,,0,1,1,4,1,,,,,,,,,,,,,,,,,,,,,,,,,,,,,,,,,,,,,,,,,,,,,,
245718,001,2022-11-21_01h59.55.991,Info_measure_main_exp,2022.2.2,Win32,59.99520038,,,,,,,,,,,,,,,,,,masks/mask_002.jpg,,,,,,,,,,,,,,,,,,,,,,,,,,,,,,,,,,,,,,,,,,,0,2,2,1,1,,,,,,,,,,,,,,,,,,,,,,,,,,,,,,,,,,,,,,,,,,,,,,
245718,001,2022-11-21_01h59.55.991,Info_measure_main_exp,2022.2.2,Win32,59.99520038,,,,,,,,,,,,,,,,,,masks/mask_003.jpg,,,,,,,,,,,,,,,,,,,,,,,,,,,,,,,,,,,,,,,,,,,0,3,3,2,1,,,,,,,,,,,,,,,,,,,,,,,,,,,,,,,,,,,,,,,,,,,,,,
245718,001,2022-11-21_01h59.55.991,Info_measure_main_exp,2022.2.2,Win32,59.99520038,,,,,,,,,,,,,,,,,,masks/mask_004.jpg,,,,,,,,,,,,,,,,,,,,,,,,,,,,,,,,,,,,,,,,,,,0,4,4,3,1,,,,,,,,,,,,,,,,,,,,,,,,,,,,,,,,,,,,,,,,,,,,,,
245718,001,2022-11-21_01h59.55.991,Info_measure_main_exp,2022.2.2,Win32,59.99520038,,,,,,,,,,,,,,,,,,masks/mask_001.jpg,,,,,,,,,,,,,,,,,,,,,,,,,,,,,,,,,,,,,,,,,,,,,,,,0,0,0,0,1,,,,,,,,,,,,,,,,,,,,,,,,,,,,,,,,,,,,,,,,,
245718,001,2022-11-21_01h59.55.991,Info_measure_main_exp,2022.2.2,Win32,59.99520038,,,,,,,,,,,,,,,,,,masks/mask_004.jpg,,,,,,,,,,,,,,,,,,,,,,,,,,,,,,,,,,,,,,,,,,,,,,,,0,1,1,3,1,,,,,,,,,,,,,,,,,,,,,,,,,,,,,,,,,,,,,,,,,
245718,001,2022-11-21_01h59.55.991,Info_measure_main_exp,2022.2.2,Win32,59.99520038,,,,,,,,,,,,,,,,,,masks/mask_002.jpg,,,,,,,,,,,,,,,,,,,,,,,,,,,,,,,,,,,,,,,,,,,,,,,,0,2,2,1,1,,,,,,,,,,,,,,,,,,,,,,,,,,,,,,,,,,,,,,,,,
245718,001,2022-11-21_01h59.55.991,Info_measure_main_exp,2022.2.2,Win32,59.99520038,,,,,,,,,,,,,,,,,,masks/mask_003.jpg,,,,,,,,,,,,,,,,,,,,,,,,,,,,,,,,,,,,,,,,,,,,,,,,0,3,3,2,1,,,,,,,,,,,,,,,,,,,,,,,,,,,,,,,,,,,,,,,,,
245718,001,2022-11-21_01h59.55.991,Info_measure_main_exp,2022.2.2,Win32,59.99520038,,,,,,,,,,,,,,,,,,masks/mask_005.jpg,,,,,,,,,,,,,,,,,,,,,,,,,,,,,,,,,,,,,,,,,,,,,,,,0,4,4,4,1,,,,,,,,,,,,,,,,,,,,,,,,,,,,,,,,,,,,,,,,,
245718,001,2022-11-21_01h59.55.991,Info_measure_main_exp,2022.2.2,Win32,59.99520038,,,,,,,,,,,,,,,,,,,,,,,,,,,,,,0,0.7784,1,,,,,,,,,,,,0,131,5,5,2154,2154,absent_patch/patch0002154.jpg,absent_patch/patch0002154.jpg,,,,,,,,,,,,,,,,,,,,-0.046296268,0.107407379,1,0,0,response7disk,13,0.000925954,-0.002777778,1,0,0,center_square,0,12,12,89,1,,,,,,,,,,,,,,,,,,,,,,,
245718,001,2022-11-21_01h59.55.991,Info_measure_main_exp,2022.2.2,Win32,59.99520038,,,,,,,,,,,,,,,,,,masks/mask_002.jpg,,,,,,,,,,,,,,,,,,,,,,,,,,,,,,,,,,,,,,,,,,,0,0,0,1,1,,,,,,,,,,,,,,,,,,,,,,,,,,,,,,,,,,,,,,,,,,,,,,
245718,001,2022-11-21_01h59.55.991,Info_measure_main_exp,2022.2.2,Win32,59.99520038,,,,,,,,,,,,,,,,,,masks/mask_005.jpg,,,,,,,,,,,,,,,,,,,,,,,,,,,,,,,,,,,,,,,,,,,0,1,1,4,1,,,,,,,,,,,,,,,,,,,,,,,,,,,,,,,,,,,,,,,,,,,,,,
245718,001,2022-11-21_01h59.55.991,Info_measure_main_exp,2022.2.2,Win32,59.99520038,,,,,,,,,,,,,,,,,,masks/mask_004.jpg,,,,,,,,,,,,,,,,,,,,,,,,,,,,,,,,,,,,,,,,,,,0,2,2,3,1,,,,,,,,,,,,,,,,,,,,,,,,,,,,,,,,,,,,,,,,,,,,,,
245718,001,2022-11-21_01h59.55.991,Info_measure_main_exp,2022.2.2,Win32,59.99520038,,,,,,,,,,,,,,,,,,masks/mask_003.jpg,,,,,,,,,,,,,,,,,,,,,,,,,,,,,,,,,,,,,,,,,,,0,3,3,2,1,,,,,,,,,,,,,,,,,,,,,,,,,,,,,,,,,,,,,,,,,,,,,,
245718,001,2022-11-21_01h59.55.991,Info_measure_main_exp,2022.2.2,Win32,59.99520038,,,,,,,,,,,,,,,,,,masks/mask_001.jpg,,,,,,,,,,,,,,,,,,,,,,,,,,,,,,,,,,,,,,,,,,,0,4,4,0,1,,,,,,,,,,,,,,,,,,,,,,,,,,,,,,,,,,,,,,,,,,,,,,
245718,001,2022-11-21_01h59.55.991,Info_measure_main_exp,2022.2.2,Win32,59.99520038,,,,,,,,,,,,,,,,,,masks/mask_005.jpg,,,,,,,,,,,,,,,,,,,,,,,,,,,,,,,,,,,,,,,,,,,,,,,,0,0,0,4,1,,,,,,,,,,,,,,,,,,,,,,,,,,,,,,,,,,,,,,,,,
245718,001,2022-11-21_01h59.55.991,Info_measure_main_exp,2022.2.2,Win32,59.99520038,,,,,,,,,,,,,,,,,,masks/mask_002.jpg,,,,,,,,,,,,,,,,,,,,,,,,,,,,,,,,,,,,,,,,,,,,,,,,0,1,1,1,1,,,,,,,,,,,,,,,,,,,,,,,,,,,,,,,,,,,,,,,,,
245718,001,2022-11-21_01h59.55.991,Info_measure_main_exp,2022.2.2,Win32,59.99520038,,,,,,,,,,,,,,,,,,masks/mask_003.jpg,,,,,,,,,,,,,,,,,,,,,,,,,,,,,,,,,,,,,,,,,,,,,,,,0,2,2,2,1,,,,,,,,,,,,,,,,,,,,,,,,,,,,,,,,,,,,,,,,,
245718,001,2022-11-21_01h59.55.991,Info_measure_main_exp,2022.2.2,Win32,59.99520038,,,,,,,,,,,,,,,,,,masks/mask_004.jpg,,,,,,,,,,,,,,,,,,,,,,,,,,,,,,,,,,,,,,,,,,,,,,,,0,3,3,3,1,,,,,,,,,,,,,,,,,,,,,,,,,,,,,,,,,,,,,,,,,
245718,001,2022-11-21_01h59.55.991,Info_measure_main_exp,2022.2.2,Win32,59.99520038,,,,,,,,,,,,,,,,,,masks/mask_001.jpg,,,,,,,,,,,,,,,,,,,,,,,,,,,,,,,,,,,,,,,,,,,,,,,,0,4,4,0,1,,,,,,,,,,,,,,,,,,,,,,,,,,,,,,,,,,,,,,,,,
245718,001,2022-11-21_01h59.55.991,Info_measure_main_exp,2022.2.2,Win32,59.99520038,,,,,,,,,,,,,,,,,,,,,,,,,,,,,,7,1.2956,1,,,,,,,,,,,,0,131,5,5,2190,1950,absent_patch/patch0002190.jpg,absent_patch/patch0001950.jpg,,,,,,,,,,,,,,,,,,,,0.048148176,0.080555556,1,0,0,response1disk,14,0.001851908,-0.001851866,1,0,0,center_square,0,13,13,73,1,,,,,,,,,,,,,,,,,,,,,,,
245718,001,2022-11-21_01h59.55.991,Info_measure_main_exp,2022.2.2,Win32,59.99520038,,,,,,,,,,,,,,,,,,masks/mask_005.jpg,,,,,,,,,,,,,,,,,,,,,,,,,,,,,,,,,,,,,,,,,,,0,0,0,4,1,,,,,,,,,,,,,,,,,,,,,,,,,,,,,,,,,,,,,,,,,,,,,,
245718,001,2022-11-21_01h59.55.991,Info_measure_main_exp,2022.2.2,Win32,59.99520038,,,,,,,,,,,,,,,,,,masks/mask_004.jpg,,,,,,,,,,,,,,,,,,,,,,,,,,,,,,,,,,,,,,,,,,,0,1,1,3,1,,,,,,,,,,,,,,,,,,,,,,,,,,,,,,,,,,,,,,,,,,,,,,
245718,001,2022-11-21_01h59.55.991,Info_measure_main_exp,2022.2.2,Win32,59.99520038,,,,,,,,,,,,,,,,,,masks/mask_002.jpg,,,,,,,,,,,,,,,,,,,,,,,,,,,,,,,,,,,,,,,,,,,0,2,2,1,1,,,,,,,,,,,,,,,,,,,,,,,,,,,,,,,,,,,,,,,,,,,,,,
245718,001,2022-11-21_01h59.55.991,Info_measure_main_exp,2022.2.2,Win32,59.99520038,,,,,,,,,,,,,,,,,,masks/mask_001.jpg,,,,,,,,,,,,,,,,,,,,,,,,,,,,,,,,,,,,,,,,,,,0,3,3,0,1,,,,,,,,,,,,,,,,,,,,,,,,,,,,,,,,,,,,,,,,,,,,,,
245718,001,2022-11-21_01h59.55.991,Info_measure_main_exp,2022.2.2,Win32,59.99520038,,,,,,,,,,,,,,,,,,masks/mask_003.jpg,,,,,,,,,,,,,,,,,,,,,,,,,,,,,,,,,,,,,,,,,,,0,4,4,2,1,,,,,,,,,,,,,,,,,,,,,,,,,,,,,,,,,,,,,,,,,,,,,,
245718,001,2022-11-21_01h59.55.991,Info_measure_main_exp,2022.2.2,Win32,59.99520038,,,,,,,,,,,,,,,,,,masks/mask_001.jpg,,,,,,,,,,,,,,,,,,,,,,,,,,,,,,,,,,,,,,,,,,,,,,,,0,0,0,0,1,,,,,,,,,,,,,,,,,,,,,,,,,,,,,,,,,,,,,,,,,
245718,001,2022-11-21_01h59.55.991,Info_measure_main_exp,2022.2.2,Win32,59.99520038,,,,,,,,,,,,,,,,,,masks/mask_004.jpg,,,,,,,,,,,,,,,,,,,,,,,,,,,,,,,,,,,,,,,,,,,,,,,,0,1,1,3,1,,,,,,,,,,,,,,,,,,,,,,,,,,,,,,,,,,,,,,,,,
245718,001,2022-11-21_01h59.55.991,Info_measure_main_exp,2022.2.2,Win32,59.99520038,,,,,,,,,,,,,,,,,,masks/mask_005.jpg,,,,,,,,,,,,,,,,,,,,,,,,,,,,,,,,,,,,,,,,,,,,,,,,0,2,2,4,1,,,,,,,,,,,,,,,,,,,,,,,,,,,,,,,,,,,,,,,,,
245718,001,2022-11-21_01h59.55.991,Info_measure_main_exp,2022.2.2,Win32,59.99520038,,,,,,,,,,,,,,,,,,masks/mask_003.jpg,,,,,,,,,,,,,,,,,,,,,,,,,,,,,,,,,,,,,,,,,,,,,,,,0,3,3,2,1,,,,,,,,,,,,,,,,,,,,,,,,,,,,,,,,,,,,,,,,,
245718,001,2022-11-21_01h59.55.991,Info_measure_main_exp,2022.2.2,Win32,59.99520038,,,,,,,,,,,,,,,,,,masks/mask_002.jpg,,,,,,,,,,,,,,,,,,,,,,,,,,,,,,,,,,,,,,,,,,,,,,,,0,4,4,1,1,,,,,,,,,,,,,,,,,,,,,,,,,,,,,,,,,,,,,,,,,
245718,001,2022-11-21_01h59.55.991,Info_measure_main_exp,2022.2.2,Win32,59.99520038,,,,,,,,,,,,,,,,,,,,,,,,,,,,,,7,1.6767,1,,,,,,,,,,,,0,131,5,5,2274,2214,absent_patch/patch0002274.jpg,absent_patch/patch0002214.jpg,,,,,,,,,,,,,,,,,,,,0.028703732,0.10370369,1,0,0,response1disk,15,-0.006481425,0.008333333,1,0,0,center_square,0,14,14,11,1,,,,,,,,,,,,,,,,,,,,,,,
245718,001,2022-11-21_01h59.55.991,Info_measure_main_exp,2022.2.2,Win32,59.99520038,,,,,,,,,,,,,,,,,,masks/mask_005.jpg,,,,,,,,,,,,,,,,,,,,,,,,,,,,,,,,,,,,,,,,,,,0,0,0,4,1,,,,,,,,,,,,,,,,,,,,,,,,,,,,,,,,,,,,,,,,,,,,,,
245718,001,2022-11-21_01h59.55.991,Info_measure_main_exp,2022.2.2,Win32,59.99520038,,,,,,,,,,,,,,,,,,masks/mask_001.jpg,,,,,,,,,,,,,,,,,,,,,,,,,,,,,,,,,,,,,,,,,,,0,1,1,0,1,,,,,,,,,,,,,,,,,,,,,,,,,,,,,,,,,,,,,,,,,,,,,,
245718,001,2022-11-21_01h59.55.991,Info_measure_main_exp,2022.2.2,Win32,59.99520038,,,,,,,,,,,,,,,,,,masks/mask_003.jpg,,,,,,,,,,,,,,,,,,,,,,,,,,,,,,,,,,,,,,,,,,,0,2,2,2,1,,,,,,,,,,,,,,,,,,,,,,,,,,,,,,,,,,,,,,,,,,,,,,
245718,001,2022-11-21_01h59.55.991,Info_measure_main_exp,2022.2.2,Win32,59.99520038,,,,,,,,,,,,,,,,,,masks/mask_002.jpg,,,,,,,,,,,,,,,,,,,,,,,,,,,,,,,,,,,,,,,,,,,0,3,3,1,1,,,,,,,,,,,,,,,,,,,,,,,,,,,,,,,,,,,,,,,,,,,,,,
245718,001,2022-11-21_01h59.55.991,Info_measure_main_exp,2022.2.2,Win32,59.99520038,,,,,,,,,,,,,,,,,,masks/mask_004.jpg,,,,,,,,,,,,,,,,,,,,,,,,,,,,,,,,,,,,,,,,,,,0,4,4,3,1,,,,,,,,,,,,,,,,,,,,,,,,,,,,,,,,,,,,,,,,,,,,,,
245718,001,2022-11-21_01h59.55.991,Info_measure_main_exp,2022.2.2,Win32,59.99520038,,,,,,,,,,,,,,,,,,masks/mask_001.jpg,,,,,,,,,,,,,,,,,,,,,,,,,,,,,,,,,,,,,,,,,,,,,,,,0,0,0,0,1,,,,,,,,,,,,,,,,,,,,,,,,,,,,,,,,,,,,,,,,,
245718,001,2022-11-21_01h59.55.991,Info_measure_main_exp,2022.2.2,Win32,59.99520038,,,,,,,,,,,,,,,,,,masks/mask_003.jpg,,,,,,,,,,,,,,,,,,,,,,,,,,,,,,,,,,,,,,,,,,,,,,,,0,1,1,2,1,,,,,,,,,,,,,,,,,,,,,,,,,,,,,,,,,,,,,,,,,
245718,001,2022-11-21_01h59.55.991,Info_measure_main_exp,2022.2.2,Win32,59.99520038,,,,,,,,,,,,,,,,,,masks/mask_002.jpg,,,,,,,,,,,,,,,,,,,,,,,,,,,,,,,,,,,,,,,,,,,,,,,,0,2,2,1,1,,,,,,,,,,,,,,,,,,,,,,,,,,,,,,,,,,,,,,,,,
245718,001,2022-11-21_01h59.55.991,Info_measure_main_exp,2022.2.2,Win32,59.99520038,,,,,,,,,,,,,,,,,,masks/mask_005.jpg,,,,,,,,,,,,,,,,,,,,,,,,,,,,,,,,,,,,,,,,,,,,,,,,0,3,3,4,1,,,,,,,,,,,,,,,,,,,,,,,,,,,,,,,,,,,,,,,,,
245718,001,2022-11-21_01h59.55.991,Info_measure_main_exp,2022.2.2,Win32,59.99520038,,,,,,,,,,,,,,,,,,masks/mask_004.jpg,,,,,,,,,,,,,,,,,,,,,,,,,,,,,,,,,,,,,,,,,,,,,,,,0,4,4,3,1,,,,,,,,,,,,,,,,,,,,,,,,,,,,,,,,,,,,,,,,,
245718,001,2022-11-21_01h59.55.991,Info_measure_main_exp,2022.2.2,Win32,59.99520038,,,,,,,,,,,,,,,,,,,,,,,,,,,,,,7,1.1908,1,,,,,,,,,,,,0,131,5,5,2274,2142,absent_patch/patch0002274.jpg,absent_patch/patch0002142.jpg,,,,,,,,,,,,,,,,,,,,0.052777778,0.098148134,1,0,0,response1disk,16,-0.002777778,-0.001851866,1,0,0,center_square,0,15,15,75,1,,,,,,,,,,,,,,,,,,,,,,,
245718,001,2022-11-21_01h59.55.991,Info_measure_main_exp,2022.2.2,Win32,59.99520038,,,,,,,,,,,,,,,,,,masks/mask_002.jpg,,,,,,,,,,,,,,,,,,,,,,,,,,,,,,,,,,,,,,,,,,,0,0,0,1,1,,,,,,,,,,,,,,,,,,,,,,,,,,,,,,,,,,,,,,,,,,,,,,
245718,001,2022-11-21_01h59.55.991,Info_measure_main_exp,2022.2.2,Win32,59.99520038,,,,,,,,,,,,,,,,,,masks/mask_004.jpg,,,,,,,,,,,,,,,,,,,,,,,,,,,,,,,,,,,,,,,,,,,0,1,1,3,1,,,,,,,,,,,,,,,,,,,,,,,,,,,,,,,,,,,,,,,,,,,,,,
245718,001,2022-11-21_01h59.55.991,Info_measure_main_exp,2022.2.2,Win32,59.99520038,,,,,,,,,,,,,,,,,,masks/mask_003.jpg,,,,,,,,,,,,,,,,,,,,,,,,,,,,,,,,,,,,,,,,,,,0,2,2,2,1,,,,,,,,,,,,,,,,,,,,,,,,,,,,,,,,,,,,,,,,,,,,,,
245718,001,2022-11-21_01h59.55.991,Info_measure_main_exp,2022.2.2,Win32,59.99520038,,,,,,,,,,,,,,,,,,masks/mask_001.jpg,,,,,,,,,,,,,,,,,,,,,,,,,,,,,,,,,,,,,,,,,,,0,3,3,0,1,,,,,,,,,,,,,,,,,,,,,,,,,,,,,,,,,,,,,,,,,,,,,,
245718,001,2022-11-21_01h59.55.991,Info_measure_main_exp,2022.2.2,Win32,59.99520038,,,,,,,,,,,,,,,,,,masks/mask_005.jpg,,,,,,,,,,,,,,,,,,,,,,,,,,,,,,,,,,,,,,,,,,,0,4,4,4,1,,,,,,,,,,,,,,,,,,,,,,,,,,,,,,,,,,,,,,,,,,,,,,
245718,001,2022-11-21_01h59.55.991,Info_measure_main_exp,2022.2.2,Win32,59.99520038,,,,,,,,,,,,,,,,,,masks/mask_004.jpg,,,,,,,,,,,,,,,,,,,,,,,,,,,,,,,,,,,,,,,,,,,,,,,,0,0,0,3,1,,,,,,,,,,,,,,,,,,,,,,,,,,,,,,,,,,,,,,,,,
245718,001,2022-11-21_01h59.55.991,Info_measure_main_exp,2022.2.2,Win32,59.99520038,,,,,,,,,,,,,,,,,,masks/mask_005.jpg,,,,,,,,,,,,,,,,,,,,,,,,,,,,,,,,,,,,,,,,,,,,,,,,0,1,1,4,1,,,,,,,,,,,,,,,,,,,,,,,,,,,,,,,,,,,,,,,,,
245718,001,2022-11-21_01h59.55.991,Info_measure_main_exp,2022.2.2,Win32,59.99520038,,,,,,,,,,,,,,,,,,masks/mask_003.jpg,,,,,,,,,,,,,,,,,,,,,,,,,,,,,,,,,,,,,,,,,,,,,,,,0,2,2,2,1,,,,,,,,,,,,,,,,,,,,,,,,,,,,,,,,,,,,,,,,,
245718,001,2022-11-21_01h59.55.991,Info_measure_main_exp,2022.2.2,Win32,59.99520038,,,,,,,,,,,,,,,,,,masks/mask_001.jpg,,,,,,,,,,,,,,,,,,,,,,,,,,,,,,,,,,,,,,,,,,,,,,,,0,3,3,0,1,,,,,,,,,,,,,,,,,,,,,,,,,,,,,,,,,,,,,,,,,
245718,001,2022-11-21_01h59.55.991,Info_measure_main_exp,2022.2.2,Win32,59.99520038,,,,,,,,,,,,,,,,,,masks/mask_002.jpg,,,,,,,,,,,,,,,,,,,,,,,,,,,,,,,,,,,,,,,,,,,,,,,,0,4,4,1,1,,,,,,,,,,,,,,,,,,,,,,,,,,,,,,,,,,,,,,,,,
245718,001,2022-11-21_01h59.55.991,Info_measure_main_exp,2022.2.2,Win32,59.99520038,,,,,,,,,,,,,,,,,,,,,,,,,,,,,,3,1.1838,1,,,,,,,,,,,,1,131,5,5,2238,1,absent_patch/patch0002238.jpg,present_patch/cong_131_5_a.jpg,,,,,,,,,,,,,,,,,,,,-0.012036981,-0.062037065,1,0,0,response5disk,17,-0.002777778,0,1,0,0,center_square,0,16,16,104,1,,,,,,,,,,,,,,,,,,,,,,,
245718,001,2022-11-21_01h59.55.991,Info_measure_main_exp,2022.2.2,Win32,59.99520038,,,,,,,,,,,,,,,,,,masks/mask_004.jpg,,,,,,,,,,,,,,,,,,,,,,,,,,,,,,,,,,,,,,,,,,,0,0,0,3,1,,,,,,,,,,,,,,,,,,,,,,,,,,,,,,,,,,,,,,,,,,,,,,
245718,001,2022-11-21_01h59.55.991,Info_measure_main_exp,2022.2.2,Win32,59.99520038,,,,,,,,,,,,,,,,,,masks/mask_005.jpg,,,,,,,,,,,,,,,,,,,,,,,,,,,,,,,,,,,,,,,,,,,0,1,1,4,1,,,,,,,,,,,,,,,,,,,,,,,,,,,,,,,,,,,,,,,,,,,,,,
245718,001,2022-11-21_01h59.55.991,Info_measure_main_exp,2022.2.2,Win32,59.99520038,,,,,,,,,,,,,,,,,,masks/mask_001.jpg,,,,,,,,,,,,,,,,,,,,,,,,,,,,,,,,,,,,,,,,,,,0,2,2,0,1,,,,,,,,,,,,,,,,,,,,,,,,,,,,,,,,,,,,,,,,,,,,,,
245718,001,2022-11-21_01h59.55.991,Info_measure_main_exp,2022.2.2,Win32,59.99520038,,,,,,,,,,,,,,,,,,masks/mask_003.jpg,,,,,,,,,,,,,,,,,,,,,,,,,,,,,,,,,,,,,,,,,,,0,3,3,2,1,,,,,,,,,,,,,,,,,,,,,,,,,,,,,,,,,,,,,,,,,,,,,,
245718,001,2022-11-21_01h59.55.991,Info_measure_main_exp,2022.2.2,Win32,59.99520038,,,,,,,,,,,,,,,,,,masks/mask_002.jpg,,,,,,,,,,,,,,,,,,,,,,,,,,,,,,,,,,,,,,,,,,,0,4,4,1,1,,,,,,,,,,,,,,,,,,,,,,,,,,,,,,,,,,,,,,,,,,,,,,
245718,001,2022-11-21_01h59.55.991,Info_measure_main_exp,2022.2.2,Win32,59.99520038,,,,,,,,,,,,,,,,,,masks/mask_002.jpg,,,,,,,,,,,,,,,,,,,,,,,,,,,,,,,,,,,,,,,,,,,,,,,,0,0,0,1,1,,,,,,,,,,,,,,,,,,,,,,,,,,,,,,,,,,,,,,,,,
245718,001,2022-11-21_01h59.55.991,Info_measure_main_exp,2022.2.2,Win32,59.99520038,,,,,,,,,,,,,,,,,,masks/mask_001.jpg,,,,,,,,,,,,,,,,,,,,,,,,,,,,,,,,,,,,,,,,,,,,,,,,0,1,1,0,1,,,,,,,,,,,,,,,,,,,,,,,,,,,,,,,,,,,,,,,,,
245718,001,2022-11-21_01h59.55.991,Info_measure_main_exp,2022.2.2,Win32,59.99520038,,,,,,,,,,,,,,,,,,masks/mask_005.jpg,,,,,,,,,,,,,,,,,,,,,,,,,,,,,,,,,,,,,,,,,,,,,,,,0,2,2,4,1,,,,,,,,,,,,,,,,,,,,,,,,,,,,,,,,,,,,,,,,,
245718,001,2022-11-21_01h59.55.991,Info_measure_main_exp,2022.2.2,Win32,59.99520038,,,,,,,,,,,,,,,,,,masks/mask_003.jpg,,,,,,,,,,,,,,,,,,,,,,,,,,,,,,,,,,,,,,,,,,,,,,,,0,3,3,2,1,,,,,,,,,,,,,,,,,,,,,,,,,,,,,,,,,,,,,,,,,
245718,001,2022-11-21_01h59.55.991,Info_measure_main_exp,2022.2.2,Win32,59.99520038,,,,,,,,,,,,,,,,,,masks/mask_004.jpg,,,,,,,,,,,,,,,,,,,,,,,,,,,,,,,,,,,,,,,,,,,,,,,,0,4,4,3,1,,,,,,,,,,,,,,,,,,,,,,,,,,,,,,,,,,,,,,,,,
245718,001,2022-11-21_01h59.55.991,Info_measure_main_exp,2022.2.2,Win32,59.99520038,,,,,,,,,,,,,,,,,,,,,,,,,,,,,,7,1.0333,1,,,,,,,,,,,,0,131,5,5,2250,1986,absent_patch/patch0002250.jpg,absent_patch/patch0001986.jpg,,,,,,,,,,,,,,,,,,,,0.035185242,0.108333333,1,0,0,response1disk,18,0.000925954,-0.005555556,1,0,0,center_square,0,17,17,29,1,,,,,,,,,,,,,,,,,,,,,,,
245718,001,2022-11-21_01h59.55.991,Info_measure_main_exp,2022.2.2,Win32,59.99520038,,,,,,,,,,,,,,,,,,masks/mask_005.jpg,,,,,,,,,,,,,,,,,,,,,,,,,,,,,,,,,,,,,,,,,,,0,0,0,4,1,,,,,,,,,,,,,,,,,,,,,,,,,,,,,,,,,,,,,,,,,,,,,,
245718,001,2022-11-21_01h59.55.991,Info_measure_main_exp,2022.2.2,Win32,59.99520038,,,,,,,,,,,,,,,,,,masks/mask_003.jpg,,,,,,,,,,,,,,,,,,,,,,,,,,,,,,,,,,,,,,,,,,,0,1,1,2,1,,,,,,,,,,,,,,,,,,,,,,,,,,,,,,,,,,,,,,,,,,,,,,
245718,001,2022-11-21_01h59.55.991,Info_measure_main_exp,2022.2.2,Win32,59.99520038,,,,,,,,,,,,,,,,,,masks/mask_002.jpg,,,,,,,,,,,,,,,,,,,,,,,,,,,,,,,,,,,,,,,,,,,0,2,2,1,1,,,,,,,,,,,,,,,,,,,,,,,,,,,,,,,,,,,,,,,,,,,,,,
245718,001,2022-11-21_01h59.55.991,Info_measure_main_exp,2022.2.2,Win32,59.99520038,,,,,,,,,,,,,,,,,,masks/mask_004.jpg,,,,,,,,,,,,,,,,,,,,,,,,,,,,,,,,,,,,,,,,,,,0,3,3,3,1,,,,,,,,,,,,,,,,,,,,,,,,,,,,,,,,,,,,,,,,,,,,,,
245718,001,2022-11-21_01h59.55.991,Info_measure_main_exp,2022.2.2,Win32,59.99520038,,,,,,,,,,,,,,,,,,masks/mask_001.jpg,,,,,,,,,,,,,,,,,,,,,,,,,,,,,,,,,,,,,,,,,,,0,4,4,0,1,,,,,,,,,,,,,,,,,,,,,,,,,,,,,,,,,,,,,,,,,,,,,,
245718,001,2022-11-21_01h59.55.991,Info_measure_main_exp,2022.2.2,Win32,59.99520038,,,,,,,,,,,,,,,,,,masks/mask_005.jpg,,,,,,,,,,,,,,,,,,,,,,,,,,,,,,,,,,,,,,,,,,,,,,,,0,0,0,4,1,,,,,,,,,,,,,,,,,,,,,,,,,,,,,,,,,,,,,,,,,
245718,001,2022-11-21_01h59.55.991,Info_measure_main_exp,2022.2.2,Win32,59.99520038,,,,,,,,,,,,,,,,,,masks/mask_004.jpg,,,,,,,,,,,,,,,,,,,,,,,,,,,,,,,,,,,,,,,,,,,,,,,,0,1,1,3,1,,,,,,,,,,,,,,,,,,,,,,,,,,,,,,,,,,,,,,,,,
245718,001,2022-11-21_01h59.55.991,Info_measure_main_exp,2022.2.2,Win32,59.99520038,,,,,,,,,,,,,,,,,,masks/mask_001.jpg,,,,,,,,,,,,,,,,,,,,,,,,,,,,,,,,,,,,,,,,,,,,,,,,0,2,2,0,1,,,,,,,,,,,,,,,,,,,,,,,,,,,,,,,,,,,,,,,,,
245718,001,2022-11-21_01h59.55.991,Info_measure_main_exp,2022.2.2,Win32,59.99520038,,,,,,,,,,,,,,,,,,masks/mask_003.jpg,,,,,,,,,,,,,,,,,,,,,,,,,,,,,,,,,,,,,,,,,,,,,,,,0,3,3,2,1,,,,,,,,,,,,,,,,,,,,,,,,,,,,,,,,,,,,,,,,,
245718,001,2022-11-21_01h59.55.991,Info_measure_main_exp,2022.2.2,Win32,59.99520038,,,,,,,,,,,,,,,,,,masks/mask_002.jpg,,,,,,,,,,,,,,,,,,,,,,,,,,,,,,,,,,,,,,,,,,,,,,,,0,4,4,1,1,,,,,,,,,,,,,,,,,,,,,,,,,,,,,,,,,,,,,,,,,
245718,001,2022-11-21_01h59.55.991,Info_measure_main_exp,2022.2.2,Win32,59.99520038,,,,,,,,,,,,,,,,,,,,,,,,,,,,,,7,1.0333,1,,,,,,,,,,,,0,131,5,5,2190,2082,absent_patch/patch0002190.jpg,absent_patch/patch0002082.jpg,,,,,,,,,,,,,,,,,,,,0.030555556,0.057407379,1,0,0,response1disk,19,-0.003703647,-0.005555556,1,0,0,center_square,0,18,18,112,1,,,,,,,,,,,,,,,,,,,,,,,
245718,001,2022-11-21_01h59.55.991,Info_measure_main_exp,2022.2.2,Win32,59.99520038,,,,,,,,,,,,,,,,,,masks/mask_001.jpg,,,,,,,,,,,,,,,,,,,,,,,,,,,,,,,,,,,,,,,,,,,0,0,0,0,1,,,,,,,,,,,,,,,,,,,,,,,,,,,,,,,,,,,,,,,,,,,,,,
245718,001,2022-11-21_01h59.55.991,Info_measure_main_exp,2022.2.2,Win32,59.99520038,,,,,,,,,,,,,,,,,,masks/mask_004.jpg,,,,,,,,,,,,,,,,,,,,,,,,,,,,,,,,,,,,,,,,,,,0,1,1,3,1,,,,,,,,,,,,,,,,,,,,,,,,,,,,,,,,,,,,,,,,,,,,,,
245718,001,2022-11-21_01h59.55.991,Info_measure_main_exp,2022.2.2,Win32,59.99520038,,,,,,,,,,,,,,,,,,masks/mask_005.jpg,,,,,,,,,,,,,,,,,,,,,,,,,,,,,,,,,,,,,,,,,,,0,2,2,4,1,,,,,,,,,,,,,,,,,,,,,,,,,,,,,,,,,,,,,,,,,,,,,,
245718,001,2022-11-21_01h59.55.991,Info_measure_main_exp,2022.2.2,Win32,59.99520038,,,,,,,,,,,,,,,,,,masks/mask_003.jpg,,,,,,,,,,,,,,,,,,,,,,,,,,,,,,,,,,,,,,,,,,,0,3,3,2,1,,,,,,,,,,,,,,,,,,,,,,,,,,,,,,,,,,,,,,,,,,,,,,
245718,001,2022-11-21_01h59.55.991,Info_measure_main_exp,2022.2.2,Win32,59.99520038,,,,,,,,,,,,,,,,,,masks/mask_002.jpg,,,,,,,,,,,,,,,,,,,,,,,,,,,,,,,,,,,,,,,,,,,0,4,4,1,1,,,,,,,,,,,,,,,,,,,,,,,,,,,,,,,,,,,,,,,,,,,,,,
245718,001,2022-11-21_01h59.55.991,Info_measure_main_exp,2022.2.2,Win32,59.99520038,,,,,,,,,,,,,,,,,,masks/mask_002.jpg,,,,,,,,,,,,,,,,,,,,,,,,,,,,,,,,,,,,,,,,,,,,,,,,0,0,0,1,1,,,,,,,,,,,,,,,,,,,,,,,,,,,,,,,,,,,,,,,,,
245718,001,2022-11-21_01h59.55.991,Info_measure_main_exp,2022.2.2,Win32,59.99520038,,,,,,,,,,,,,,,,,,masks/mask_001.jpg,,,,,,,,,,,,,,,,,,,,,,,,,,,,,,,,,,,,,,,,,,,,,,,,0,1,1,0,1,,,,,,,,,,,,,,,,,,,,,,,,,,,,,,,,,,,,,,,,,
245718,001,2022-11-21_01h59.55.991,Info_measure_main_exp,2022.2.2,Win32,59.99520038,,,,,,,,,,,,,,,,,,masks/mask_003.jpg,,,,,,,,,,,,,,,,,,,,,,,,,,,,,,,,,,,,,,,,,,,,,,,,0,2,2,2,1,,,,,,,,,,,,,,,,,,,,,,,,,,,,,,,,,,,,,,,,,
245718,001,2022-11-21_01h59.55.991,Info_measure_main_exp,2022.2.2,Win32,59.99520038,,,,,,,,,,,,,,,,,,masks/mask_004.jpg,,,,,,,,,,,,,,,,,,,,,,,,,,,,,,,,,,,,,,,,,,,,,,,,0,3,3,3,1,,,,,,,,,,,,,,,,,,,,,,,,,,,,,,,,,,,,,,,,,
245718,001,2022-11-21_01h59.55.991,Info_measure_main_exp,2022.2.2,Win32,59.99520038,,,,,,,,,,,,,,,,,,masks/mask_005.jpg,,,,,,,,,,,,,,,,,,,,,,,,,,,,,,,,,,,,,,,,,,,,,,,,0,4,4,4,1,,,,,,,,,,,,,,,,,,,,,,,,,,,,,,,,,,,,,,,,,
245718,001,2022-11-21_01h59.55.991,Info_measure_main_exp,2022.2.2,Win32,59.99520038,,,,,,,,,,,,,,,,,,,,,,,,,,,,,,5,1.1337,1,,,,,,,,,,,,0,131,5,5,2274,2166,absent_patch/patch0002274.jpg,absent_patch/patch0002166.jpg,,,,,,,,,,,,,,,,,,,,0.087963019,-0.048148176,1,0,0,response3disk,20,-0.010185157,0.007407379,1,0,0,center_square,0,19,19,78,1,,,,,,,,,,,,,,,,,,,,,,,
245718,001,2022-11-21_01h59.55.991,Info_measure_main_exp,2022.2.2,Win32,59.99520038,,,,,,,,,,,,,,,,,,masks/mask_002.jpg,,,,,,,,,,,,,,,,,,,,,,,,,,,,,,,,,,,,,,,,,,,0,0,0,1,1,,,,,,,,,,,,,,,,,,,,,,,,,,,,,,,,,,,,,,,,,,,,,,
245718,001,2022-11-21_01h59.55.991,Info_measure_main_exp,2022.2.2,Win32,59.99520038,,,,,,,,,,,,,,,,,,masks/mask_003.jpg,,,,,,,,,,,,,,,,,,,,,,,,,,,,,,,,,,,,,,,,,,,0,1,1,2,1,,,,,,,,,,,,,,,,,,,,,,,,,,,,,,,,,,,,,,,,,,,,,,
245718,001,2022-11-21_01h59.55.991,Info_measure_main_exp,2022.2.2,Win32,59.99520038,,,,,,,,,,,,,,,,,,masks/mask_005.jpg,,,,,,,,,,,,,,,,,,,,,,,,,,,,,,,,,,,,,,,,,,,0,2,2,4,1,,,,,,,,,,,,,,,,,,,,,,,,,,,,,,,,,,,,,,,,,,,,,,
245718,001,2022-11-21_01h59.55.991,Info_measure_main_exp,2022.2.2,Win32,59.99520038,,,,,,,,,,,,,,,,,,masks/mask_001.jpg,,,,,,,,,,,,,,,,,,,,,,,,,,,,,,,,,,,,,,,,,,,0,3,3,0,1,,,,,,,,,,,,,,,,,,,,,,,,,,,,,,,,,,,,,,,,,,,,,,
245718,001,2022-11-21_01h59.55.991,Info_measure_main_exp,2022.2.2,Win32,59.99520038,,,,,,,,,,,,,,,,,,masks/mask_004.jpg,,,,,,,,,,,,,,,,,,,,,,,,,,,,,,,,,,,,,,,,,,,0,4,4,3,1,,,,,,,,,,,,,,,,,,,,,,,,,,,,,,,,,,,,,,,,,,,,,,
245718,001,2022-11-21_01h59.55.991,Info_measure_main_exp,2022.2.2,Win32,59.99520038,,,,,,,,,,,,,,,,,,masks/mask_003.jpg,,,,,,,,,,,,,,,,,,,,,,,,,,,,,,,,,,,,,,,,,,,,,,,,0,0,0,2,1,,,,,,,,,,,,,,,,,,,,,,,,,,,,,,,,,,,,,,,,,
245718,001,2022-11-21_01h59.55.991,Info_measure_main_exp,2022.2.2,Win32,59.99520038,,,,,,,,,,,,,,,,,,masks/mask_002.jpg,,,,,,,,,,,,,,,,,,,,,,,,,,,,,,,,,,,,,,,,,,,,,,,,0,1,1,1,1,,,,,,,,,,,,,,,,,,,,,,,,,,,,,,,,,,,,,,,,,
245718,001,2022-11-21_01h59.55.991,Info_measure_main_exp,2022.2.2,Win32,59.99520038,,,,,,,,,,,,,,,,,,masks/mask_005.jpg,,,,,,,,,,,,,,,,,,,,,,,,,,,,,,,,,,,,,,,,,,,,,,,,0,2,2,4,1,,,,,,,,,,,,,,,,,,,,,,,,,,,,,,,,,,,,,,,,,
245718,001,2022-11-21_01h59.55.991,Info_measure_main_exp,2022.2.2,Win32,59.99520038,,,,,,,,,,,,,,,,,,masks/mask_001.jpg,,,,,,,,,,,,,,,,,,,,,,,,,,,,,,,,,,,,,,,,,,,,,,,,0,3,3,0,1,,,,,,,,,,,,,,,,,,,,,,,,,,,,,,,,,,,,,,,,,
245718,001,2022-11-21_01h59.55.991,Info_measure_main_exp,2022.2.2,Win32,59.99520038,,,,,,,,,,,,,,,,,,masks/mask_004.jpg,,,,,,,,,,,,,,,,,,,,,,,,,,,,,,,,,,,,,,,,,,,,,,,,0,4,4,3,1,,,,,,,,,,,,,,,,,,,,,,,,,,,,,,,,,,,,,,,,,
245718,001,2022-11-21_01h59.55.991,Info_measure_main_exp,2022.2.2,Win32,59.99520038,,,,,,,,,,,,,,,,,,,,,,,,,,,,,,7,1.1151,1,,,,,,,,,,,,0,131,5,5,2154,1950,absent_patch/patch0002154.jpg,absent_patch/patch0001950.jpg,,,,,,,,,,,,,,,,,,,,0.061111111,0.079629601,1,0,0,response1disk,21,-0.001851824,0.004629601,1,0,0,center_square,0,20,20,96,1,,,,,,,,,,,,,,,,,,,,,,,
245718,001,2022-11-21_01h59.55.991,Info_measure_main_exp,2022.2.2,Win32,59.99520038,,,,,,,,,,,,,,,,,,masks/mask_001.jpg,,,,,,,,,,,,,,,,,,,,,,,,,,,,,,,,,,,,,,,,,,,0,0,0,0,1,,,,,,,,,,,,,,,,,,,,,,,,,,,,,,,,,,,,,,,,,,,,,,
245718,001,2022-11-21_01h59.55.991,Info_measure_main_exp,2022.2.2,Win32,59.99520038,,,,,,,,,,,,,,,,,,masks/mask_003.jpg,,,,,,,,,,,,,,,,,,,,,,,,,,,,,,,,,,,,,,,,,,,0,1,1,2,1,,,,,,,,,,,,,,,,,,,,,,,,,,,,,,,,,,,,,,,,,,,,,,
245718,001,2022-11-21_01h59.55.991,Info_measure_main_exp,2022.2.2,Win32,59.99520038,,,,,,,,,,,,,,,,,,masks/mask_004.jpg,,,,,,,,,,,,,,,,,,,,,,,,,,,,,,,,,,,,,,,,,,,0,2,2,3,1,,,,,,,,,,,,,,,,,,,,,,,,,,,,,,,,,,,,,,,,,,,,,,
245718,001,2022-11-21_01h59.55.991,Info_measure_main_exp,2022.2.2,Win32,59.99520038,,,,,,,,,,,,,,,,,,masks/mask_002.jpg,,,,,,,,,,,,,,,,,,,,,,,,,,,,,,,,,,,,,,,,,,,0,3,3,1,1,,,,,,,,,,,,,,,,,,,,,,,,,,,,,,,,,,,,,,,,,,,,,,
245718,001,2022-11-21_01h59.55.991,Info_measure_main_exp,2022.2.2,Win32,59.99520038,,,,,,,,,,,,,,,,,,masks/mask_005.jpg,,,,,,,,,,,,,,,,,,,,,,,,,,,,,,,,,,,,,,,,,,,0,4,4,4,1,,,,,,,,,,,,,,,,,,,,,,,,,,,,,,,,,,,,,,,,,,,,,,
245718,001,2022-11-21_01h59.55.991,Info_measure_main_exp,2022.2.2,Win32,59.99520038,,,,,,,,,,,,,,,,,,masks/mask_001.jpg,,,,,,,,,,,,,,,,,,,,,,,,,,,,,,,,,,,,,,,,,,,,,,,,0,0,0,0,1,,,,,,,,,,,,,,,,,,,,,,,,,,,,,,,,,,,,,,,,,
245718,001,2022-11-21_01h59.55.991,Info_measure_main_exp,2022.2.2,Win32,59.99520038,,,,,,,,,,,,,,,,,,masks/mask_005.jpg,,,,,,,,,,,,,,,,,,,,,,,,,,,,,,,,,,,,,,,,,,,,,,,,0,1,1,4,1,,,,,,,,,,,,,,,,,,,,,,,,,,,,,,,,,,,,,,,,,
245718,001,2022-11-21_01h59.55.991,Info_measure_main_exp,2022.2.2,Win32,59.99520038,,,,,,,,,,,,,,,,,,masks/mask_002.jpg,,,,,,,,,,,,,,,,,,,,,,,,,,,,,,,,,,,,,,,,,,,,,,,,0,2,2,1,1,,,,,,,,,,,,,,,,,,,,,,,,,,,,,,,,,,,,,,,,,
245718,001,2022-11-21_01h59.55.991,Info_measure_main_exp,2022.2.2,Win32,59.99520038,,,,,,,,,,,,,,,,,,masks/mask_004.jpg,,,,,,,,,,,,,,,,,,,,,,,,,,,,,,,,,,,,,,,,,,,,,,,,0,3,3,3,1,,,,,,,,,,,,,,,,,,,,,,,,,,,,,,,,,,,,,,,,,
245718,001,2022-11-21_01h59.55.991,Info_measure_main_exp,2022.2.2,Win32,59.99520038,,,,,,,,,,,,,,,,,,masks/mask_003.jpg,,,,,,,,,,,,,,,,,,,,,,,,,,,,,,,,,,,,,,,,,,,,,,,,0,4,4,2,1,,,,,,,,,,,,,,,,,,,,,,,,,,,,,,,,,,,,,,,,,
245718,001,2022-11-21_01h59.55.991,Info_measure_main_exp,2022.2.2,Win32,59.99520038,,,,,,,,,,,,,,,,,,,,,,,,,,,,,,4,1.2996,1,,,,,,,,,,,,0,131,5,5,2298,2190,absent_patch/patch0002298.jpg,absent_patch/patch0002190.jpg,,,,,,,,,,,,,,,,,,,,0.008333333,-0.055555556,1,0,0,response3disk,22,-0.012962935,-0.002777778,1,0,0,center_square,0,21,21,20,1,,,,,,,,,,,,,,,,,,,,,,,
245718,001,2022-11-21_01h59.55.991,Info_measure_main_exp,2022.2.2,Win32,59.99520038,,,,,,,,,,,,,,,,,,masks/mask_005.jpg,,,,,,,,,,,,,,,,,,,,,,,,,,,,,,,,,,,,,,,,,,,0,0,0,4,1,,,,,,,,,,,,,,,,,,,,,,,,,,,,,,,,,,,,,,,,,,,,,,
245718,001,2022-11-21_01h59.55.991,Info_measure_main_exp,2022.2.2,Win32,59.99520038,,,,,,,,,,,,,,,,,,masks/mask_003.jpg,,,,,,,,,,,,,,,,,,,,,,,,,,,,,,,,,,,,,,,,,,,0,1,1,2,1,,,,,,,,,,,,,,,,,,,,,,,,,,,,,,,,,,,,,,,,,,,,,,
245718,001,2022-11-21_01h59.55.991,Info_measure_main_exp,2022.2.2,Win32,59.99520038,,,,,,,,,,,,,,,,,,masks/mask_002.jpg,,,,,,,,,,,,,,,,,,,,,,,,,,,,,,,,,,,,,,,,,,,0,2,2,1,1,,,,,,,,,,,,,,,,,,,,,,,,,,,,,,,,,,,,,,,,,,,,,,
245718,001,2022-11-21_01h59.55.991,Info_measure_main_exp,2022.2.2,Win32,59.99520038,,,,,,,,,,,,,,,,,,masks/mask_004.jpg,,,,,,,,,,,,,,,,,,,,,,,,,,,,,,,,,,,,,,,,,,,0,3,3,3,1,,,,,,,,,,,,,,,,,,,,,,,,,,,,,,,,,,,,,,,,,,,,,,
245718,001,2022-11-21_01h59.55.991,Info_measure_main_exp,2022.2.2,Win32,59.99520038,,,,,,,,,,,,,,,,,,masks/mask_001.jpg,,,,,,,,,,,,,,,,,,,,,,,,,,,,,,,,,,,,,,,,,,,0,4,4,0,1,,,,,,,,,,,,,,,,,,,,,,,,,,,,,,,,,,,,,,,,,,,,,,
245718,001,2022-11-21_01h59.55.991,Info_measure_main_exp,2022.2.2,Win32,59.99520038,,,,,,,,,,,,,,,,,,masks/mask_002.jpg,,,,,,,,,,,,,,,,,,,,,,,,,,,,,,,,,,,,,,,,,,,,,,,,0,0,0,1,1,,,,,,,,,,,,,,,,,,,,,,,,,,,,,,,,,,,,,,,,,
245718,001,2022-11-21_01h59.55.991,Info_measure_main_exp,2022.2.2,Win32,59.99520038,,,,,,,,,,,,,,,,,,masks/mask_005.jpg,,,,,,,,,,,,,,,,,,,,,,,,,,,,,,,,,,,,,,,,,,,,,,,,0,1,1,4,1,,,,,,,,,,,,,,,,,,,,,,,,,,,,,,,,,,,,,,,,,
245718,001,2022-11-21_01h59.55.991,Info_measure_main_exp,2022.2.2,Win32,59.99520038,,,,,,,,,,,,,,,,,,masks/mask_001.jpg,,,,,,,,,,,,,,,,,,,,,,,,,,,,,,,,,,,,,,,,,,,,,,,,0,2,2,0,1,,,,,,,,,,,,,,,,,,,,,,,,,,,,,,,,,,,,,,,,,
245718,001,2022-11-21_01h59.55.991,Info_measure_main_exp,2022.2.2,Win32,59.99520038,,,,,,,,,,,,,,,,,,masks/mask_003.jpg,,,,,,,,,,,,,,,,,,,,,,,,,,,,,,,,,,,,,,,,,,,,,,,,0,3,3,2,1,,,,,,,,,,,,,,,,,,,,,,,,,,,,,,,,,,,,,,,,,
245718,001,2022-11-21_01h59.55.991,Info_measure_main_exp,2022.2.2,Win32,59.99520038,,,,,,,,,,,,,,,,,,masks/mask_004.jpg,,,,,,,,,,,,,,,,,,,,,,,,,,,,,,,,,,,,,,,,,,,,,,,,0,4,4,3,1,,,,,,,,,,,,,,,,,,,,,,,,,,,,,,,,,,,,,,,,,
245718,001,2022-11-21_01h59.55.991,Info_measure_main_exp,2022.2.2,Win32,59.99520038,,,,,,,,,,,,,,,,,,,,,,,,,,,,,,7,1.0551,1,,,,,,,,,,,,0,131,5,5,2082,2166,absent_patch/patch0002082.jpg,absent_patch/patch0002166.jpg,,,,,,,,,,,,,,,,,,,,0.051851908,0.097222222,1,0,0,response1disk,23,-0.009259203,-0.005555556,1,0,0,center_square,0,22,22,43,1,,,,,,,,,,,,,,,,,,,,,,,
245718,001,2022-11-21_01h59.55.991,Info_measure_main_exp,2022.2.2,Win32,59.99520038,,,,,,,,,,,,,,,,,,masks/mask_002.jpg,,,,,,,,,,,,,,,,,,,,,,,,,,,,,,,,,,,,,,,,,,,0,0,0,1,1,,,,,,,,,,,,,,,,,,,,,,,,,,,,,,,,,,,,,,,,,,,,,,
245718,001,2022-11-21_01h59.55.991,Info_measure_main_exp,2022.2.2,Win32,59.99520038,,,,,,,,,,,,,,,,,,masks/mask_003.jpg,,,,,,,,,,,,,,,,,,,,,,,,,,,,,,,,,,,,,,,,,,,0,1,1,2,1,,,,,,,,,,,,,,,,,,,,,,,,,,,,,,,,,,,,,,,,,,,,,,
245718,001,2022-11-21_01h59.55.991,Info_measure_main_exp,2022.2.2,Win32,59.99520038,,,,,,,,,,,,,,,,,,masks/mask_001.jpg,,,,,,,,,,,,,,,,,,,,,,,,,,,,,,,,,,,,,,,,,,,0,2,2,0,1,,,,,,,,,,,,,,,,,,,,,,,,,,,,,,,,,,,,,,,,,,,,,,
245718,001,2022-11-21_01h59.55.991,Info_measure_main_exp,2022.2.2,Win32,59.99520038,,,,,,,,,,,,,,,,,,masks/mask_004.jpg,,,,,,,,,,,,,,,,,,,,,,,,,,,,,,,,,,,,,,,,,,,0,3,3,3,1,,,,,,,,,,,,,,,,,,,,,,,,,,,,,,,,,,,,,,,,,,,,,,
245718,001,2022-11-21_01h59.55.991,Info_measure_main_exp,2022.2.2,Win32,59.99520038,,,,,,,,,,,,,,,,,,masks/mask_005.jpg,,,,,,,,,,,,,,,,,,,,,,,,,,,,,,,,,,,,,,,,,,,0,4,4,4,1,,,,,,,,,,,,,,,,,,,,,,,,,,,,,,,,,,,,,,,,,,,,,,
245718,001,2022-11-21_01h59.55.991,Info_measure_main_exp,2022.2.2,Win32,59.99520038,,,,,,,,,,,,,,,,,,masks/mask_004.jpg,,,,,,,,,,,,,,,,,,,,,,,,,,,,,,,,,,,,,,,,,,,,,,,,0,0,0,3,1,,,,,,,,,,,,,,,,,,,,,,,,,,,,,,,,,,,,,,,,,
245718,001,2022-11-21_01h59.55.991,Info_measure_main_exp,2022.2.2,Win32,59.99520038,,,,,,,,,,,,,,,,,,masks/mask_002.jpg,,,,,,,,,,,,,,,,,,,,,,,,,,,,,,,,,,,,,,,,,,,,,,,,0,1,1,1,1,,,,,,,,,,,,,,,,,,,,,,,,,,,,,,,,,,,,,,,,,
245718,001,2022-11-21_01h59.55.991,Info_measure_main_exp,2022.2.2,Win32,59.99520038,,,,,,,,,,,,,,,,,,masks/mask_005.jpg,,,,,,,,,,,,,,,,,,,,,,,,,,,,,,,,,,,,,,,,,,,,,,,,0,2,2,4,1,,,,,,,,,,,,,,,,,,,,,,,,,,,,,,,,,,,,,,,,,
245718,001,2022-11-21_01h59.55.991,Info_measure_main_exp,2022.2.2,Win32,59.99520038,,,,,,,,,,,,,,,,,,masks/mask_003.jpg,,,,,,,,,,,,,,,,,,,,,,,,,,,,,,,,,,,,,,,,,,,,,,,,0,3,3,2,1,,,,,,,,,,,,,,,,,,,,,,,,,,,,,,,,,,,,,,,,,
245718,001,2022-11-21_01h59.55.991,Info_measure_main_exp,2022.2.2,Win32,59.99520038,,,,,,,,,,,,,,,,,,masks/mask_001.jpg,,,,,,,,,,,,,,,,,,,,,,,,,,,,,,,,,,,,,,,,,,,,,,,,0,4,4,0,1,,,,,,,,,,,,,,,,,,,,,,,,,,,,,,,,,,,,,,,,,
245718,001,2022-11-21_01h59.55.991,Info_measure_main_exp,2022.2.2,Win32,59.99520038,,,,,,,,,,,,,,,,,,,,,,,,,,,,,,0,0.7666,1,,,,,,,,,,,,0,131,5,5,2190,2190,absent_patch/patch0002190.jpg,absent_patch/patch0002190.jpg,,,,,,,,,,,,,,,,,,,,-0.059259203,0.1,1,0,0,response7disk,24,-0.008333333,0.006481467,1,0,0,center_square,0,23,23,86,1,,,,,,,,,,,,,,,,,,,,,,,
245718,001,2022-11-21_01h59.55.991,Info_measure_main_exp,2022.2.2,Win32,59.99520038,,,,,,,,,,,,,,,,,,masks/mask_005.jpg,,,,,,,,,,,,,,,,,,,,,,,,,,,,,,,,,,,,,,,,,,,0,0,0,4,1,,,,,,,,,,,,,,,,,,,,,,,,,,,,,,,,,,,,,,,,,,,,,,
245718,001,2022-11-21_01h59.55.991,Info_measure_main_exp,2022.2.2,Win32,59.99520038,,,,,,,,,,,,,,,,,,masks/mask_001.jpg,,,,,,,,,,,,,,,,,,,,,,,,,,,,,,,,,,,,,,,,,,,0,1,1,0,1,,,,,,,,,,,,,,,,,,,,,,,,,,,,,,,,,,,,,,,,,,,,,,
245718,001,2022-11-21_01h59.55.991,Info_measure_main_exp,2022.2.2,Win32,59.99520038,,,,,,,,,,,,,,,,,,masks/mask_004.jpg,,,,,,,,,,,,,,,,,,,,,,,,,,,,,,,,,,,,,,,,,,,0,2,2,3,1,,,,,,,,,,,,,,,,,,,,,,,,,,,,,,,,,,,,,,,,,,,,,,
245718,001,2022-11-21_01h59.55.991,Info_measure_main_exp,2022.2.2,Win32,59.99520038,,,,,,,,,,,,,,,,,,masks/mask_003.jpg,,,,,,,,,,,,,,,,,,,,,,,,,,,,,,,,,,,,,,,,,,,0,3,3,2,1,,,,,,,,,,,,,,,,,,,,,,,,,,,,,,,,,,,,,,,,,,,,,,
245718,001,2022-11-21_01h59.55.991,Info_measure_main_exp,2022.2.2,Win32,59.99520038,,,,,,,,,,,,,,,,,,masks/mask_002.jpg,,,,,,,,,,,,,,,,,,,,,,,,,,,,,,,,,,,,,,,,,,,0,4,4,1,1,,,,,,,,,,,,,,,,,,,,,,,,,,,,,,,,,,,,,,,,,,,,,,
245718,001,2022-11-21_01h59.55.991,Info_measure_main_exp,2022.2.2,Win32,59.99520038,,,,,,,,,,,,,,,,,,masks/mask_004.jpg,,,,,,,,,,,,,,,,,,,,,,,,,,,,,,,,,,,,,,,,,,,,,,,,0,0,0,3,1,,,,,,,,,,,,,,,,,,,,,,,,,,,,,,,,,,,,,,,,,
245718,001,2022-11-21_01h59.55.991,Info_measure_main_exp,2022.2.2,Win32,59.99520038,,,,,,,,,,,,,,,,,,masks/mask_005.jpg,,,,,,,,,,,,,,,,,,,,,,,,,,,,,,,,,,,,,,,,,,,,,,,,0,1,1,4,1,,,,,,,,,,,,,,,,,,,,,,,,,,,,,,,,,,,,,,,,,
245718,001,2022-11-21_01h59.55.991,Info_measure_main_exp,2022.2.2,Win32,59.99520038,,,,,,,,,,,,,,,,,,masks/mask_001.jpg,,,,,,,,,,,,,,,,,,,,,,,,,,,,,,,,,,,,,,,,,,,,,,,,0,2,2,0,1,,,,,,,,,,,,,,,,,,,,,,,,,,,,,,,,,,,,,,,,,
245718,001,2022-11-21_01h59.55.991,Info_measure_main_exp,2022.2.2,Win32,59.99520038,,,,,,,,,,,,,,,,,,masks/mask_002.jpg,,,,,,,,,,,,,,,,,,,,,,,,,,,,,,,,,,,,,,,,,,,,,,,,0,3,3,1,1,,,,,,,,,,,,,,,,,,,,,,,,,,,,,,,,,,,,,,,,,
245718,001,2022-11-21_01h59.55.991,Info_measure_main_exp,2022.2.2,Win32,59.99520038,,,,,,,,,,,,,,,,,,masks/mask_003.jpg,,,,,,,,,,,,,,,,,,,,,,,,,,,,,,,,,,,,,,,,,,,,,,,,0,4,4,2,1,,,,,,,,,,,,,,,,,,,,,,,,,,,,,,,,,,,,,,,,,
245718,001,2022-11-21_01h59.55.991,Info_measure_main_exp,2022.2.2,Win32,59.99520038,,,,,,,,,,,,,,,,,,,,,,,,,,,,,,7,0.7663,1,,,,,,,,,,,,0,131,5,5,2082,1974,absent_patch/patch0002082.jpg,absent_patch/patch0001974.jpg,,,,,,,,,,,,,,,,,,,,0.041666667,0.109259245,1,0,0,response1disk,25,0.000925954,0.011111111,1,0,0,center_square,0,24,24,26,1,,,,,,,,,,,,,,,,,,,,,,,
245718,001,2022-11-21_01h59.55.991,Info_measure_main_exp,2022.2.2,Win32,59.99520038,,,,,,,,,,,,,,,,,,masks/mask_004.jpg,,,,,,,,,,,,,,,,,,,,,,,,,,,,,,,,,,,,,,,,,,,0,0,0,3,1,,,,,,,,,,,,,,,,,,,,,,,,,,,,,,,,,,,,,,,,,,,,,,
245718,001,2022-11-21_01h59.55.991,Info_measure_main_exp,2022.2.2,Win32,59.99520038,,,,,,,,,,,,,,,,,,masks/mask_002.jpg,,,,,,,,,,,,,,,,,,,,,,,,,,,,,,,,,,,,,,,,,,,0,1,1,1,1,,,,,,,,,,,,,,,,,,,,,,,,,,,,,,,,,,,,,,,,,,,,,,
245718,001,2022-11-21_01h59.55.991,Info_measure_main_exp,2022.2.2,Win32,59.99520038,,,,,,,,,,,,,,,,,,masks/mask_003.jpg,,,,,,,,,,,,,,,,,,,,,,,,,,,,,,,,,,,,,,,,,,,0,2,2,2,1,,,,,,,,,,,,,,,,,,,,,,,,,,,,,,,,,,,,,,,,,,,,,,
245718,001,2022-11-21_01h59.55.991,Info_measure_main_exp,2022.2.2,Win32,59.99520038,,,,,,,,,,,,,,,,,,masks/mask_001.jpg,,,,,,,,,,,,,,,,,,,,,,,,,,,,,,,,,,,,,,,,,,,0,3,3,0,1,,,,,,,,,,,,,,,,,,,,,,,,,,,,,,,,,,,,,,,,,,,,,,
245718,001,2022-11-21_01h59.55.991,Info_measure_main_exp,2022.2.2,Win32,59.99520038,,,,,,,,,,,,,,,,,,masks/mask_005.jpg,,,,,,,,,,,,,,,,,,,,,,,,,,,,,,,,,,,,,,,,,,,0,4,4,4,1,,,,,,,,,,,,,,,,,,,,,,,,,,,,,,,,,,,,,,,,,,,,,,
245718,001,2022-11-21_01h59.55.991,Info_measure_main_exp,2022.2.2,Win32,59.99520038,,,,,,,,,,,,,,,,,,masks/mask_005.jpg,,,,,,,,,,,,,,,,,,,,,,,,,,,,,,,,,,,,,,,,,,,,,,,,0,0,0,4,1,,,,,,,,,,,,,,,,,,,,,,,,,,,,,,,,,,,,,,,,,
245718,001,2022-11-21_01h59.55.991,Info_measure_main_exp,2022.2.2,Win32,59.99520038,,,,,,,,,,,,,,,,,,masks/mask_003.jpg,,,,,,,,,,,,,,,,,,,,,,,,,,,,,,,,,,,,,,,,,,,,,,,,0,1,1,2,1,,,,,,,,,,,,,,,,,,,,,,,,,,,,,,,,,,,,,,,,,
245718,001,2022-11-21_01h59.55.991,Info_measure_main_exp,2022.2.2,Win32,59.99520038,,,,,,,,,,,,,,,,,,masks/mask_002.jpg,,,,,,,,,,,,,,,,,,,,,,,,,,,,,,,,,,,,,,,,,,,,,,,,0,2,2,1,1,,,,,,,,,,,,,,,,,,,,,,,,,,,,,,,,,,,,,,,,,
245718,001,2022-11-21_01h59.55.991,Info_measure_main_exp,2022.2.2,Win32,59.99520038,,,,,,,,,,,,,,,,,,masks/mask_001.jpg,,,,,,,,,,,,,,,,,,,,,,,,,,,,,,,,,,,,,,,,,,,,,,,,0,3,3,0,1,,,,,,,,,,,,,,,,,,,,,,,,,,,,,,,,,,,,,,,,,
245718,001,2022-11-21_01h59.55.991,Info_measure_main_exp,2022.2.2,Win32,59.99520038,,,,,,,,,,,,,,,,,,masks/mask_004.jpg,,,,,,,,,,,,,,,,,,,,,,,,,,,,,,,,,,,,,,,,,,,,,,,,0,4,4,3,1,,,,,,,,,,,,,,,,,,,,,,,,,,,,,,,,,,,,,,,,,
245718,001,2022-11-21_01h59.55.991,Info_measure_main_exp,2022.2.2,Win32,59.99520038,,,,,,,,,,,,,,,,,,,,,,,,,,,,,,2,1.881,1,,,,,,,,,,,,1,131,5,5,1,2166,present_patch/cong_131_5_a.jpg,absent_patch/patch0002166.jpg,,,,,,,,,,,,,,,,,,,,-0.11851849,-0.068518533,1,0,0,response5disk,26,0,0.007407379,1,0,0,center_square,0,25,25,54,1,,,,,,,,,,,,,,,,,,,,,,,
245718,001,2022-11-21_01h59.55.991,Info_measure_main_exp,2022.2.2,Win32,59.99520038,,,,,,,,,,,,,,,,,,masks/mask_005.jpg,,,,,,,,,,,,,,,,,,,,,,,,,,,,,,,,,,,,,,,,,,,0,0,0,4,1,,,,,,,,,,,,,,,,,,,,,,,,,,,,,,,,,,,,,,,,,,,,,,
245718,001,2022-11-21_01h59.55.991,Info_measure_main_exp,2022.2.2,Win32,59.99520038,,,,,,,,,,,,,,,,,,masks/mask_002.jpg,,,,,,,,,,,,,,,,,,,,,,,,,,,,,,,,,,,,,,,,,,,0,1,1,1,1,,,,,,,,,,,,,,,,,,,,,,,,,,,,,,,,,,,,,,,,,,,,,,
245718,001,2022-11-21_01h59.55.991,Info_measure_main_exp,2022.2.2,Win32,59.99520038,,,,,,,,,,,,,,,,,,masks/mask_001.jpg,,,,,,,,,,,,,,,,,,,,,,,,,,,,,,,,,,,,,,,,,,,0,2,2,0,1,,,,,,,,,,,,,,,,,,,,,,,,,,,,,,,,,,,,,,,,,,,,,,
245718,001,2022-11-21_01h59.55.991,Info_measure_main_exp,2022.2.2,Win32,59.99520038,,,,,,,,,,,,,,,,,,masks/mask_004.jpg,,,,,,,,,,,,,,,,,,,,,,,,,,,,,,,,,,,,,,,,,,,0,3,3,3,1,,,,,,,,,,,,,,,,,,,,,,,,,,,,,,,,,,,,,,,,,,,,,,
245718,001,2022-11-21_01h59.55.991,Info_measure_main_exp,2022.2.2,Win32,59.99520038,,,,,,,,,,,,,,,,,,masks/mask_003.jpg,,,,,,,,,,,,,,,,,,,,,,,,,,,,,,,,,,,,,,,,,,,0,4,4,2,1,,,,,,,,,,,,,,,,,,,,,,,,,,,,,,,,,,,,,,,,,,,,,,
245718,001,2022-11-21_01h59.55.991,Info_measure_main_exp,2022.2.2,Win32,59.99520038,,,,,,,,,,,,,,,,,,masks/mask_003.jpg,,,,,,,,,,,,,,,,,,,,,,,,,,,,,,,,,,,,,,,,,,,,,,,,0,0,0,2,1,,,,,,,,,,,,,,,,,,,,,,,,,,,,,,,,,,,,,,,,,
245718,001,2022-11-21_01h59.55.991,Info_measure_main_exp,2022.2.2,Win32,59.99520038,,,,,,,,,,,,,,,,,,masks/mask_005.jpg,,,,,,,,,,,,,,,,,,,,,,,,,,,,,,,,,,,,,,,,,,,,,,,,0,1,1,4,1,,,,,,,,,,,,,,,,,,,,,,,,,,,,,,,,,,,,,,,,,
245718,001,2022-11-21_01h59.55.991,Info_measure_main_exp,2022.2.2,Win32,59.99520038,,,,,,,,,,,,,,,,,,masks/mask_002.jpg,,,,,,,,,,,,,,,,,,,,,,,,,,,,,,,,,,,,,,,,,,,,,,,,0,2,2,1,1,,,,,,,,,,,,,,,,,,,,,,,,,,,,,,,,,,,,,,,,,
245718,001,2022-11-21_01h59.55.991,Info_measure_main_exp,2022.2.2,Win32,59.99520038,,,,,,,,,,,,,,,,,,masks/mask_004.jpg,,,,,,,,,,,,,,,,,,,,,,,,,,,,,,,,,,,,,,,,,,,,,,,,0,3,3,3,1,,,,,,,,,,,,,,,,,,,,,,,,,,,,,,,,,,,,,,,,,
245718,001,2022-11-21_01h59.55.991,Info_measure_main_exp,2022.2.2,Win32,59.99520038,,,,,,,,,,,,,,,,,,masks/mask_001.jpg,,,,,,,,,,,,,,,,,,,,,,,,,,,,,,,,,,,,,,,,,,,,,,,,0,4,4,0,1,,,,,,,,,,,,,,,,,,,,,,,,,,,,,,,,,,,,,,,,,
245718,001,2022-11-21_01h59.55.991,Info_measure_main_exp,2022.2.2,Win32,59.99520038,,,,,,,,,,,,,,,,,,,,,,,,,,,,,,7,0.881,1,,,,,,,,,,,,0,131,5,5,2154,2190,absent_patch/patch0002154.jpg,absent_patch/patch0002190.jpg,,,,,,,,,,,,,,,,,,,,0.038888889,0.079629601,1,0,0,response1disk,27,0.001851908,-0.008333333,1,0,0,center_square,0,26,26,68,1,,,,,,,,,,,,,,,,,,,,,,,
245718,001,2022-11-21_01h59.55.991,Info_measure_main_exp,2022.2.2,Win32,59.99520038,,,,,,,,,,,,,,,,,,masks/mask_005.jpg,,,,,,,,,,,,,,,,,,,,,,,,,,,,,,,,,,,,,,,,,,,0,0,0,4,1,,,,,,,,,,,,,,,,,,,,,,,,,,,,,,,,,,,,,,,,,,,,,,
245718,001,2022-11-21_01h59.55.991,Info_measure_main_exp,2022.2.2,Win32,59.99520038,,,,,,,,,,,,,,,,,,masks/mask_004.jpg,,,,,,,,,,,,,,,,,,,,,,,,,,,,,,,,,,,,,,,,,,,0,1,1,3,1,,,,,,,,,,,,,,,,,,,,,,,,,,,,,,,,,,,,,,,,,,,,,,
245718,001,2022-11-21_01h59.55.991,Info_measure_main_exp,2022.2.2,Win32,59.99520038,,,,,,,,,,,,,,,,,,masks/mask_002.jpg,,,,,,,,,,,,,,,,,,,,,,,,,,,,,,,,,,,,,,,,,,,0,2,2,1,1,,,,,,,,,,,,,,,,,,,,,,,,,,,,,,,,,,,,,,,,,,,,,,
245718,001,2022-11-21_01h59.55.991,Info_measure_main_exp,2022.2.2,Win32,59.99520038,,,,,,,,,,,,,,,,,,masks/mask_001.jpg,,,,,,,,,,,,,,,,,,,,,,,,,,,,,,,,,,,,,,,,,,,0,3,3,0,1,,,,,,,,,,,,,,,,,,,,,,,,,,,,,,,,,,,,,,,,,,,,,,
245718,001,2022-11-21_01h59.55.991,Info_measure_main_exp,2022.2.2,Win32,59.99520038,,,,,,,,,,,,,,,,,,masks/mask_003.jpg,,,,,,,,,,,,,,,,,,,,,,,,,,,,,,,,,,,,,,,,,,,0,4,4,2,1,,,,,,,,,,,,,,,,,,,,,,,,,,,,,,,,,,,,,,,,,,,,,,
245718,001,2022-11-21_01h59.55.991,Info_measure_main_exp,2022.2.2,Win32,59.99520038,,,,,,,,,,,,,,,,,,masks/mask_002.jpg,,,,,,,,,,,,,,,,,,,,,,,,,,,,,,,,,,,,,,,,,,,,,,,,0,0,0,1,1,,,,,,,,,,,,,,,,,,,,,,,,,,,,,,,,,,,,,,,,,
245718,001,2022-11-21_01h59.55.991,Info_measure_main_exp,2022.2.2,Win32,59.99520038,,,,,,,,,,,,,,,,,,masks/mask_003.jpg,,,,,,,,,,,,,,,,,,,,,,,,,,,,,,,,,,,,,,,,,,,,,,,,0,1,1,2,1,,,,,,,,,,,,,,,,,,,,,,,,,,,,,,,,,,,,,,,,,
245718,001,2022-11-21_01h59.55.991,Info_measure_main_exp,2022.2.2,Win32,59.99520038,,,,,,,,,,,,,,,,,,masks/mask_004.jpg,,,,,,,,,,,,,,,,,,,,,,,,,,,,,,,,,,,,,,,,,,,,,,,,0,2,2,3,1,,,,,,,,,,,,,,,,,,,,,,,,,,,,,,,,,,,,,,,,,
245718,001,2022-11-21_01h59.55.991,Info_measure_main_exp,2022.2.2,Win32,59.99520038,,,,,,,,,,,,,,,,,,masks/mask_005.jpg,,,,,,,,,,,,,,,,,,,,,,,,,,,,,,,,,,,,,,,,,,,,,,,,0,3,3,4,1,,,,,,,,,,,,,,,,,,,,,,,,,,,,,,,,,,,,,,,,,
245718,001,2022-11-21_01h59.55.991,Info_measure_main_exp,2022.2.2,Win32,59.99520038,,,,,,,,,,,,,,,,,,masks/mask_001.jpg,,,,,,,,,,,,,,,,,,,,,,,,,,,,,,,,,,,,,,,,,,,,,,,,0,4,4,0,1,,,,,,,,,,,,,,,,,,,,,,,,,,,,,,,,,,,,,,,,,
245718,001,2022-11-21_01h59.55.991,Info_measure_main_exp,2022.2.2,Win32,59.99520038,,,,,,,,,,,,,,,,,,,,,,,,,,,,,,0,0.8312,1,,,,,,,,,,,,0,131,5,5,2082,2082,absent_patch/patch0002082.jpg,absent_patch/patch0002082.jpg,,,,,,,,,,,,,,,,,,,,-0.074074046,0.140740712,1,0,0,response7disk,28,-0.002777778,0.006481467,1,0,0,center_square,0,27,27,74,1,,,,,,,,,,,,,,,,,,,,,,,
245718,001,2022-11-21_01h59.55.991,Info_measure_main_exp,2022.2.2,Win32,59.99520038,,,,,,,,,,,,,,,,,,masks/mask_004.jpg,,,,,,,,,,,,,,,,,,,,,,,,,,,,,,,,,,,,,,,,,,,0,0,0,3,1,,,,,,,,,,,,,,,,,,,,,,,,,,,,,,,,,,,,,,,,,,,,,,
245718,001,2022-11-21_01h59.55.991,Info_measure_main_exp,2022.2.2,Win32,59.99520038,,,,,,,,,,,,,,,,,,masks/mask_002.jpg,,,,,,,,,,,,,,,,,,,,,,,,,,,,,,,,,,,,,,,,,,,0,1,1,1,1,,,,,,,,,,,,,,,,,,,,,,,,,,,,,,,,,,,,,,,,,,,,,,
245718,001,2022-11-21_01h59.55.991,Info_measure_main_exp,2022.2.2,Win32,59.99520038,,,,,,,,,,,,,,,,,,masks/mask_005.jpg,,,,,,,,,,,,,,,,,,,,,,,,,,,,,,,,,,,,,,,,,,,0,2,2,4,1,,,,,,,,,,,,,,,,,,,,,,,,,,,,,,,,,,,,,,,,,,,,,,
245718,001,2022-11-21_01h59.55.991,Info_measure_main_exp,2022.2.2,Win32,59.99520038,,,,,,,,,,,,,,,,,,masks/mask_003.jpg,,,,,,,,,,,,,,,,,,,,,,,,,,,,,,,,,,,,,,,,,,,0,3,3,2,1,,,,,,,,,,,,,,,,,,,,,,,,,,,,,,,,,,,,,,,,,,,,,,
245718,001,2022-11-21_01h59.55.991,Info_measure_main_exp,2022.2.2,Win32,59.99520038,,,,,,,,,,,,,,,,,,masks/mask_001.jpg,,,,,,,,,,,,,,,,,,,,,,,,,,,,,,,,,,,,,,,,,,,0,4,4,0,1,,,,,,,,,,,,,,,,,,,,,,,,,,,,,,,,,,,,,,,,,,,,,,
245718,001,2022-11-21_01h59.55.991,Info_measure_main_exp,2022.2.2,Win32,59.99520038,,,,,,,,,,,,,,,,,,masks/mask_005.jpg,,,,,,,,,,,,,,,,,,,,,,,,,,,,,,,,,,,,,,,,,,,,,,,,0,0,0,4,1,,,,,,,,,,,,,,,,,,,,,,,,,,,,,,,,,,,,,,,,,
245718,001,2022-11-21_01h59.55.991,Info_measure_main_exp,2022.2.2,Win32,59.99520038,,,,,,,,,,,,,,,,,,masks/mask_002.jpg,,,,,,,,,,,,,,,,,,,,,,,,,,,,,,,,,,,,,,,,,,,,,,,,0,1,1,1,1,,,,,,,,,,,,,,,,,,,,,,,,,,,,,,,,,,,,,,,,,
245718,001,2022-11-21_01h59.55.991,Info_measure_main_exp,2022.2.2,Win32,59.99520038,,,,,,,,,,,,,,,,,,masks/mask_003.jpg,,,,,,,,,,,,,,,,,,,,,,,,,,,,,,,,,,,,,,,,,,,,,,,,0,2,2,2,1,,,,,,,,,,,,,,,,,,,,,,,,,,,,,,,,,,,,,,,,,
245718,001,2022-11-21_01h59.55.991,Info_measure_main_exp,2022.2.2,Win32,59.99520038,,,,,,,,,,,,,,,,,,masks/mask_004.jpg,,,,,,,,,,,,,,,,,,,,,,,,,,,,,,,,,,,,,,,,,,,,,,,,0,3,3,3,1,,,,,,,,,,,,,,,,,,,,,,,,,,,,,,,,,,,,,,,,,
245718,001,2022-11-21_01h59.55.991,Info_measure_main_exp,2022.2.2,Win32,59.99520038,,,,,,,,,,,,,,,,,,masks/mask_001.jpg,,,,,,,,,,,,,,,,,,,,,,,,,,,,,,,,,,,,,,,,,,,,,,,,0,4,4,0,1,,,,,,,,,,,,,,,,,,,,,,,,,,,,,,,,,,,,,,,,,
245718,001,2022-11-21_01h59.55.991,Info_measure_main_exp,2022.2.2,Win32,59.99520038,,,,,,,,,,,,,,,,,,,,,,,,,,,,,,0,0.7162,1,,,,,,,,,,,,1,131,5,5,1,1,present_patch/cong_131_5_a.jpg,present_patch/cong_131_5_a.jpg,,,,,,,,,,,,,,,,,,,,-0.036111111,0.085185157,1,0,0,response7disk,29,0.001851908,-0.000925954,1,0,0,center_square,0,28,28,30,1,,,,,,,,,,,,,,,,,,,,,,,
245718,001,2022-11-21_01h59.55.991,Info_measure_main_exp,2022.2.2,Win32,59.99520038,,,,,,,,,,,,,,,,,,masks/mask_002.jpg,,,,,,,,,,,,,,,,,,,,,,,,,,,,,,,,,,,,,,,,,,,0,0,0,1,1,,,,,,,,,,,,,,,,,,,,,,,,,,,,,,,,,,,,,,,,,,,,,,
245718,001,2022-11-21_01h59.55.991,Info_measure_main_exp,2022.2.2,Win32,59.99520038,,,,,,,,,,,,,,,,,,masks/mask_003.jpg,,,,,,,,,,,,,,,,,,,,,,,,,,,,,,,,,,,,,,,,,,,0,1,1,2,1,,,,,,,,,,,,,,,,,,,,,,,,,,,,,,,,,,,,,,,,,,,,,,
245718,001,2022-11-21_01h59.55.991,Info_measure_main_exp,2022.2.2,Win32,59.99520038,,,,,,,,,,,,,,,,,,masks/mask_004.jpg,,,,,,,,,,,,,,,,,,,,,,,,,,,,,,,,,,,,,,,,,,,0,2,2,3,1,,,,,,,,,,,,,,,,,,,,,,,,,,,,,,,,,,,,,,,,,,,,,,
245718,001,2022-11-21_01h59.55.991,Info_measure_main_exp,2022.2.2,Win32,59.99520038,,,,,,,,,,,,,,,,,,masks/mask_005.jpg,,,,,,,,,,,,,,,,,,,,,,,,,,,,,,,,,,,,,,,,,,,0,3,3,4,1,,,,,,,,,,,,,,,,,,,,,,,,,,,,,,,,,,,,,,,,,,,,,,
245718,001,2022-11-21_01h59.55.991,Info_measure_main_exp,2022.2.2,Win32,59.99520038,,,,,,,,,,,,,,,,,,masks/mask_001.jpg,,,,,,,,,,,,,,,,,,,,,,,,,,,,,,,,,,,,,,,,,,,0,4,4,0,1,,,,,,,,,,,,,,,,,,,,,,,,,,,,,,,,,,,,,,,,,,,,,,
245718,001,2022-11-21_01h59.55.991,Info_measure_main_exp,2022.2.2,Win32,59.99520038,,,,,,,,,,,,,,,,,,masks/mask_001.jpg,,,,,,,,,,,,,,,,,,,,,,,,,,,,,,,,,,,,,,,,,,,,,,,,0,0,0,0,1,,,,,,,,,,,,,,,,,,,,,,,,,,,,,,,,,,,,,,,,,
245718,001,2022-11-21_01h59.55.991,Info_measure_main_exp,2022.2.2,Win32,59.99520038,,,,,,,,,,,,,,,,,,masks/mask_005.jpg,,,,,,,,,,,,,,,,,,,,,,,,,,,,,,,,,,,,,,,,,,,,,,,,0,1,1,4,1,,,,,,,,,,,,,,,,,,,,,,,,,,,,,,,,,,,,,,,,,
245718,001,2022-11-21_01h59.55.991,Info_measure_main_exp,2022.2.2,Win32,59.99520038,,,,,,,,,,,,,,,,,,masks/mask_003.jpg,,,,,,,,,,,,,,,,,,,,,,,,,,,,,,,,,,,,,,,,,,,,,,,,0,2,2,2,1,,,,,,,,,,,,,,,,,,,,,,,,,,,,,,,,,,,,,,,,,
245718,001,2022-11-21_01h59.55.991,Info_measure_main_exp,2022.2.2,Win32,59.99520038,,,,,,,,,,,,,,,,,,masks/mask_002.jpg,,,,,,,,,,,,,,,,,,,,,,,,,,,,,,,,,,,,,,,,,,,,,,,,0,3,3,1,1,,,,,,,,,,,,,,,,,,,,,,,,,,,,,,,,,,,,,,,,,
245718,001,2022-11-21_01h59.55.991,Info_measure_main_exp,2022.2.2,Win32,59.99520038,,,,,,,,,,,,,,,,,,masks/mask_004.jpg,,,,,,,,,,,,,,,,,,,,,,,,,,,,,,,,,,,,,,,,,,,,,,,,0,4,4,3,1,,,,,,,,,,,,,,,,,,,,,,,,,,,,,,,,,,,,,,,,,
245718,001,2022-11-21_01h59.55.991,Info_measure_main_exp,2022.2.2,Win32,59.99520038,,,,,,,,,,,,,,,,,,,,,,,,,,,,,,7,1.0398,1,,,,,,,,,,,,0,131,5,5,2274,2250,absent_patch/patch0002274.jpg,absent_patch/patch0002250.jpg,,,,,,,,,,,,,,,,,,,,0.037037065,0.116666667,1,0,0,response1disk,30,0.001851908,0.007407379,1,0,0,center_square,0,29,29,28,1,,,,,,,,,,,,,,,,,,,,,,,
245718,001,2022-11-21_01h59.55.991,Info_measure_main_exp,2022.2.2,Win32,59.99520038,,,,,,,,,,,,,,,,,,masks/mask_001.jpg,,,,,,,,,,,,,,,,,,,,,,,,,,,,,,,,,,,,,,,,,,,0,0,0,0,1,,,,,,,,,,,,,,,,,,,,,,,,,,,,,,,,,,,,,,,,,,,,,,
245718,001,2022-11-21_01h59.55.991,Info_measure_main_exp,2022.2.2,Win32,59.99520038,,,,,,,,,,,,,,,,,,masks/mask_005.jpg,,,,,,,,,,,,,,,,,,,,,,,,,,,,,,,,,,,,,,,,,,,0,1,1,4,1,,,,,,,,,,,,,,,,,,,,,,,,,,,,,,,,,,,,,,,,,,,,,,
245718,001,2022-11-21_01h59.55.991,Info_measure_main_exp,2022.2.2,Win32,59.99520038,,,,,,,,,,,,,,,,,,masks/mask_003.jpg,,,,,,,,,,,,,,,,,,,,,,,,,,,,,,,,,,,,,,,,,,,0,2,2,2,1,,,,,,,,,,,,,,,,,,,,,,,,,,,,,,,,,,,,,,,,,,,,,,
245718,001,2022-11-21_01h59.55.991,Info_measure_main_exp,2022.2.2,Win32,59.99520038,,,,,,,,,,,,,,,,,,masks/mask_004.jpg,,,,,,,,,,,,,,,,,,,,,,,,,,,,,,,,,,,,,,,,,,,0,3,3,3,1,,,,,,,,,,,,,,,,,,,,,,,,,,,,,,,,,,,,,,,,,,,,,,
245718,001,2022-11-21_01h59.55.991,Info_measure_main_exp,2022.2.2,Win32,59.99520038,,,,,,,,,,,,,,,,,,masks/mask_002.jpg,,,,,,,,,,,,,,,,,,,,,,,,,,,,,,,,,,,,,,,,,,,0,4,4,1,1,,,,,,,,,,,,,,,,,,,,,,,,,,,,,,,,,,,,,,,,,,,,,,
245718,001,2022-11-21_01h59.55.991,Info_measure_main_exp,2022.2.2,Win32,59.99520038,,,,,,,,,,,,,,,,,,masks/mask_005.jpg,,,,,,,,,,,,,,,,,,,,,,,,,,,,,,,,,,,,,,,,,,,,,,,,0,0,0,4,1,,,,,,,,,,,,,,,,,,,,,,,,,,,,,,,,,,,,,,,,,
245718,001,2022-11-21_01h59.55.991,Info_measure_main_exp,2022.2.2,Win32,59.99520038,,,,,,,,,,,,,,,,,,masks/mask_003.jpg,,,,,,,,,,,,,,,,,,,,,,,,,,,,,,,,,,,,,,,,,,,,,,,,0,1,1,2,1,,,,,,,,,,,,,,,,,,,,,,,,,,,,,,,,,,,,,,,,,
245718,001,2022-11-21_01h59.55.991,Info_measure_main_exp,2022.2.2,Win32,59.99520038,,,,,,,,,,,,,,,,,,masks/mask_001.jpg,,,,,,,,,,,,,,,,,,,,,,,,,,,,,,,,,,,,,,,,,,,,,,,,0,2,2,0,1,,,,,,,,,,,,,,,,,,,,,,,,,,,,,,,,,,,,,,,,,
245718,001,2022-11-21_01h59.55.991,Info_measure_main_exp,2022.2.2,Win32,59.99520038,,,,,,,,,,,,,,,,,,masks/mask_004.jpg,,,,,,,,,,,,,,,,,,,,,,,,,,,,,,,,,,,,,,,,,,,,,,,,0,3,3,3,1,,,,,,,,,,,,,,,,,,,,,,,,,,,,,,,,,,,,,,,,,
245718,001,2022-11-21_01h59.55.991,Info_measure_main_exp,2022.2.2,Win32,59.99520038,,,,,,,,,,,,,,,,,,masks/mask_002.jpg,,,,,,,,,,,,,,,,,,,,,,,,,,,,,,,,,,,,,,,,,,,,,,,,0,4,4,1,1,,,,,,,,,,,,,,,,,,,,,,,,,,,,,,,,,,,,,,,,,
245718,001,2022-11-21_01h59.55.991,Info_measure_main_exp,2022.2.2,Win32,59.99520038,,,,,,,,,,,,,,,,,,,,,,,,,,,,,,7,1.3727,1,,,,,,,,,,,,0,131,5,5,2082,2154,absent_patch/patch0002082.jpg,absent_patch/patch0002154.jpg,,,,,,,,,,,,,,,,,,,,0.066666667,0.113888889,1,0,0,response1disk,31,0.009259288,-0.004629644,1,0,0,center_square,0,30,30,33,1,,,,,,,,,,,,,,,,,,,,,,,
245718,001,2022-11-21_01h59.55.991,Info_measure_main_exp,2022.2.2,Win32,59.99520038,,,,,,,,,,,,,,,,,,masks/mask_003.jpg,,,,,,,,,,,,,,,,,,,,,,,,,,,,,,,,,,,,,,,,,,,0,0,0,2,1,,,,,,,,,,,,,,,,,,,,,,,,,,,,,,,,,,,,,,,,,,,,,,
245718,001,2022-11-21_01h59.55.991,Info_measure_main_exp,2022.2.2,Win32,59.99520038,,,,,,,,,,,,,,,,,,masks/mask_005.jpg,,,,,,,,,,,,,,,,,,,,,,,,,,,,,,,,,,,,,,,,,,,0,1,1,4,1,,,,,,,,,,,,,,,,,,,,,,,,,,,,,,,,,,,,,,,,,,,,,,
245718,001,2022-11-21_01h59.55.991,Info_measure_main_exp,2022.2.2,Win32,59.99520038,,,,,,,,,,,,,,,,,,masks/mask_002.jpg,,,,,,,,,,,,,,,,,,,,,,,,,,,,,,,,,,,,,,,,,,,0,2,2,1,1,,,,,,,,,,,,,,,,,,,,,,,,,,,,,,,,,,,,,,,,,,,,,,
245718,001,2022-11-21_01h59.55.991,Info_measure_main_exp,2022.2.2,Win32,59.99520038,,,,,,,,,,,,,,,,,,masks/mask_004.jpg,,,,,,,,,,,,,,,,,,,,,,,,,,,,,,,,,,,,,,,,,,,0,3,3,3,1,,,,,,,,,,,,,,,,,,,,,,,,,,,,,,,,,,,,,,,,,,,,,,
245718,001,2022-11-21_01h59.55.991,Info_measure_main_exp,2022.2.2,Win32,59.99520038,,,,,,,,,,,,,,,,,,masks/mask_001.jpg,,,,,,,,,,,,,,,,,,,,,,,,,,,,,,,,,,,,,,,,,,,0,4,4,0,1,,,,,,,,,,,,,,,,,,,,,,,,,,,,,,,,,,,,,,,,,,,,,,
245718,001,2022-11-21_01h59.55.991,Info_measure_main_exp,2022.2.2,Win32,59.99520038,,,,,,,,,,,,,,,,,,masks/mask_004.jpg,,,,,,,,,,,,,,,,,,,,,,,,,,,,,,,,,,,,,,,,,,,,,,,,0,0,0,3,1,,,,,,,,,,,,,,,,,,,,,,,,,,,,,,,,,,,,,,,,,
245718,001,2022-11-21_01h59.55.991,Info_measure_main_exp,2022.2.2,Win32,59.99520038,,,,,,,,,,,,,,,,,,masks/mask_002.jpg,,,,,,,,,,,,,,,,,,,,,,,,,,,,,,,,,,,,,,,,,,,,,,,,0,1,1,1,1,,,,,,,,,,,,,,,,,,,,,,,,,,,,,,,,,,,,,,,,,
245718,001,2022-11-21_01h59.55.991,Info_measure_main_exp,2022.2.2,Win32,59.99520038,,,,,,,,,,,,,,,,,,masks/mask_003.jpg,,,,,,,,,,,,,,,,,,,,,,,,,,,,,,,,,,,,,,,,,,,,,,,,0,2,2,2,1,,,,,,,,,,,,,,,,,,,,,,,,,,,,,,,,,,,,,,,,,
245718,001,2022-11-21_01h59.55.991,Info_measure_main_exp,2022.2.2,Win32,59.99520038,,,,,,,,,,,,,,,,,,masks/mask_005.jpg,,,,,,,,,,,,,,,,,,,,,,,,,,,,,,,,,,,,,,,,,,,,,,,,0,3,3,4,1,,,,,,,,,,,,,,,,,,,,,,,,,,,,,,,,,,,,,,,,,
245718,001,2022-11-21_01h59.55.991,Info_measure_main_exp,2022.2.2,Win32,59.99520038,,,,,,,,,,,,,,,,,,masks/mask_001.jpg,,,,,,,,,,,,,,,,,,,,,,,,,,,,,,,,,,,,,,,,,,,,,,,,0,4,4,0,1,,,,,,,,,,,,,,,,,,,,,,,,,,,,,,,,,,,,,,,,,
245718,001,2022-11-21_01h59.55.991,Info_measure_main_exp,2022.2.2,Win32,59.99520038,,,,,,,,,,,,,,,,,,,,,,,,,,,,,,7,0.8157,1,,,,,,,,,,,,0,131,5,5,1986,1974,absent_patch/patch0001986.jpg,absent_patch/patch0001974.jpg,,,,,,,,,,,,,,,,,,,,0.019444444,0.112037023,1,0,0,response1disk,32,-0.007407379,-0.008333333,1,0,0,center_square,0,31,31,25,1,,,,,,,,,,,,,,,,,,,,,,,
245718,001,2022-11-21_01h59.55.991,Info_measure_main_exp,2022.2.2,Win32,59.99520038,,,,,,,,,,,,,,,,,,masks/mask_004.jpg,,,,,,,,,,,,,,,,,,,,,,,,,,,,,,,,,,,,,,,,,,,0,0,0,3,1,,,,,,,,,,,,,,,,,,,,,,,,,,,,,,,,,,,,,,,,,,,,,,
245718,001,2022-11-21_01h59.55.991,Info_measure_main_exp,2022.2.2,Win32,59.99520038,,,,,,,,,,,,,,,,,,masks/mask_005.jpg,,,,,,,,,,,,,,,,,,,,,,,,,,,,,,,,,,,,,,,,,,,0,1,1,4,1,,,,,,,,,,,,,,,,,,,,,,,,,,,,,,,,,,,,,,,,,,,,,,
245718,001,2022-11-21_01h59.55.991,Info_measure_main_exp,2022.2.2,Win32,59.99520038,,,,,,,,,,,,,,,,,,masks/mask_002.jpg,,,,,,,,,,,,,,,,,,,,,,,,,,,,,,,,,,,,,,,,,,,0,2,2,1,1,,,,,,,,,,,,,,,,,,,,,,,,,,,,,,,,,,,,,,,,,,,,,,
245718,001,2022-11-21_01h59.55.991,Info_measure_main_exp,2022.2.2,Win32,59.99520038,,,,,,,,,,,,,,,,,,masks/mask_003.jpg,,,,,,,,,,,,,,,,,,,,,,,,,,,,,,,,,,,,,,,,,,,0,3,3,2,1,,,,,,,,,,,,,,,,,,,,,,,,,,,,,,,,,,,,,,,,,,,,,,
245718,001,2022-11-21_01h59.55.991,Info_measure_main_exp,2022.2.2,Win32,59.99520038,,,,,,,,,,,,,,,,,,masks/mask_001.jpg,,,,,,,,,,,,,,,,,,,,,,,,,,,,,,,,,,,,,,,,,,,0,4,4,0,1,,,,,,,,,,,,,,,,,,,,,,,,,,,,,,,,,,,,,,,,,,,,,,
245718,001,2022-11-21_01h59.55.991,Info_measure_main_exp,2022.2.2,Win32,59.99520038,,,,,,,,,,,,,,,,,,masks/mask_003.jpg,,,,,,,,,,,,,,,,,,,,,,,,,,,,,,,,,,,,,,,,,,,,,,,,0,0,0,2,1,,,,,,,,,,,,,,,,,,,,,,,,,,,,,,,,,,,,,,,,,
245718,001,2022-11-21_01h59.55.991,Info_measure_main_exp,2022.2.2,Win32,59.99520038,,,,,,,,,,,,,,,,,,masks/mask_004.jpg,,,,,,,,,,,,,,,,,,,,,,,,,,,,,,,,,,,,,,,,,,,,,,,,0,1,1,3,1,,,,,,,,,,,,,,,,,,,,,,,,,,,,,,,,,,,,,,,,,
245718,001,2022-11-21_01h59.55.991,Info_measure_main_exp,2022.2.2,Win32,59.99520038,,,,,,,,,,,,,,,,,,masks/mask_001.jpg,,,,,,,,,,,,,,,,,,,,,,,,,,,,,,,,,,,,,,,,,,,,,,,,0,2,2,0,1,,,,,,,,,,,,,,,,,,,,,,,,,,,,,,,,,,,,,,,,,
245718,001,2022-11-21_01h59.55.991,Info_measure_main_exp,2022.2.2,Win32,59.99520038,,,,,,,,,,,,,,,,,,masks/mask_002.jpg,,,,,,,,,,,,,,,,,,,,,,,,,,,,,,,,,,,,,,,,,,,,,,,,0,3,3,1,1,,,,,,,,,,,,,,,,,,,,,,,,,,,,,,,,,,,,,,,,,
245718,001,2022-11-21_01h59.55.991,Info_measure_main_exp,2022.2.2,Win32,59.99520038,,,,,,,,,,,,,,,,,,masks/mask_005.jpg,,,,,,,,,,,,,,,,,,,,,,,,,,,,,,,,,,,,,,,,,,,,,,,,0,4,4,4,1,,,,,,,,,,,,,,,,,,,,,,,,,,,,,,,,,,,,,,,,,
245718,001,2022-11-21_01h59.55.991,Info_measure_main_exp,2022.2.2,Win32,59.99520038,,,,,,,,,,,,,,,,,,,,,,,,,,,,,,7,0.7228,1,,,,,,,,,,,,1,131,5,5,2082,1,absent_patch/patch0002082.jpg,present_patch/cong_131_5_a.jpg,,,,,,,,,,,,,,,,,,,,0.014814843,0.089814801,1,0,0,response1disk,33,-0.006481425,-0.011111111,1,0,0,center_square,0,32,32,65,1,,,,,,,,,,,,,,,,,,,,,,,
245718,001,2022-11-21_01h59.55.991,Info_measure_main_exp,2022.2.2,Win32,59.99520038,,,,,,,,,,,,,,,,,,masks/mask_002.jpg,,,,,,,,,,,,,,,,,,,,,,,,,,,,,,,,,,,,,,,,,,,0,0,0,1,1,,,,,,,,,,,,,,,,,,,,,,,,,,,,,,,,,,,,,,,,,,,,,,
245718,001,2022-11-21_01h59.55.991,Info_measure_main_exp,2022.2.2,Win32,59.99520038,,,,,,,,,,,,,,,,,,masks/mask_001.jpg,,,,,,,,,,,,,,,,,,,,,,,,,,,,,,,,,,,,,,,,,,,0,1,1,0,1,,,,,,,,,,,,,,,,,,,,,,,,,,,,,,,,,,,,,,,,,,,,,,
245718,001,2022-11-21_01h59.55.991,Info_measure_main_exp,2022.2.2,Win32,59.99520038,,,,,,,,,,,,,,,,,,masks/mask_004.jpg,,,,,,,,,,,,,,,,,,,,,,,,,,,,,,,,,,,,,,,,,,,0,2,2,3,1,,,,,,,,,,,,,,,,,,,,,,,,,,,,,,,,,,,,,,,,,,,,,,
245718,001,2022-11-21_01h59.55.991,Info_measure_main_exp,2022.2.2,Win32,59.99520038,,,,,,,,,,,,,,,,,,masks/mask_003.jpg,,,,,,,,,,,,,,,,,,,,,,,,,,,,,,,,,,,,,,,,,,,0,3,3,2,1,,,,,,,,,,,,,,,,,,,,,,,,,,,,,,,,,,,,,,,,,,,,,,
245718,001,2022-11-21_01h59.55.991,Info_measure_main_exp,2022.2.2,Win32,59.99520038,,,,,,,,,,,,,,,,,,masks/mask_005.jpg,,,,,,,,,,,,,,,,,,,,,,,,,,,,,,,,,,,,,,,,,,,0,4,4,4,1,,,,,,,,,,,,,,,,,,,,,,,,,,,,,,,,,,,,,,,,,,,,,,
245718,001,2022-11-21_01h59.55.991,Info_measure_main_exp,2022.2.2,Win32,59.99520038,,,,,,,,,,,,,,,,,,masks/mask_004.jpg,,,,,,,,,,,,,,,,,,,,,,,,,,,,,,,,,,,,,,,,,,,,,,,,0,0,0,3,1,,,,,,,,,,,,,,,,,,,,,,,,,,,,,,,,,,,,,,,,,
245718,001,2022-11-21_01h59.55.991,Info_measure_main_exp,2022.2.2,Win32,59.99520038,,,,,,,,,,,,,,,,,,masks/mask_001.jpg,,,,,,,,,,,,,,,,,,,,,,,,,,,,,,,,,,,,,,,,,,,,,,,,0,1,1,0,1,,,,,,,,,,,,,,,,,,,,,,,,,,,,,,,,,,,,,,,,,
245718,001,2022-11-21_01h59.55.991,Info_measure_main_exp,2022.2.2,Win32,59.99520038,,,,,,,,,,,,,,,,,,masks/mask_005.jpg,,,,,,,,,,,,,,,,,,,,,,,,,,,,,,,,,,,,,,,,,,,,,,,,0,2,2,4,1,,,,,,,,,,,,,,,,,,,,,,,,,,,,,,,,,,,,,,,,,
245718,001,2022-11-21_01h59.55.991,Info_measure_main_exp,2022.2.2,Win32,59.99520038,,,,,,,,,,,,,,,,,,masks/mask_002.jpg,,,,,,,,,,,,,,,,,,,,,,,,,,,,,,,,,,,,,,,,,,,,,,,,0,3,3,1,1,,,,,,,,,,,,,,,,,,,,,,,,,,,,,,,,,,,,,,,,,
245718,001,2022-11-21_01h59.55.991,Info_measure_main_exp,2022.2.2,Win32,59.99520038,,,,,,,,,,,,,,,,,,masks/mask_003.jpg,,,,,,,,,,,,,,,,,,,,,,,,,,,,,,,,,,,,,,,,,,,,,,,,0,4,4,2,1,,,,,,,,,,,,,,,,,,,,,,,,,,,,,,,,,,,,,,,,,
245718,001,2022-11-21_01h59.55.991,Info_measure_main_exp,2022.2.2,Win32,59.99520038,,,,,,,,,,,,,,,,,,,,,,,,,,,,,,0,0.8158,1,,,,,,,,,,,,0,131,5,5,2166,2166,absent_patch/patch0002166.jpg,absent_patch/patch0002166.jpg,,,,,,,,,,,,,,,,,,,,-0.061111111,0.082407379,1,0,0,response7disk,34,-0.011111111,-0.001851866,1,0,0,center_square,0,33,33,42,1,,,,,,,,,,,,,,,,,,,,,,,
245718,001,2022-11-21_01h59.55.991,Info_measure_main_exp,2022.2.2,Win32,59.99520038,,,,,,,,,,,,,,,,,,masks/mask_003.jpg,,,,,,,,,,,,,,,,,,,,,,,,,,,,,,,,,,,,,,,,,,,0,0,0,2,1,,,,,,,,,,,,,,,,,,,,,,,,,,,,,,,,,,,,,,,,,,,,,,
245718,001,2022-11-21_01h59.55.991,Info_measure_main_exp,2022.2.2,Win32,59.99520038,,,,,,,,,,,,,,,,,,masks/mask_002.jpg,,,,,,,,,,,,,,,,,,,,,,,,,,,,,,,,,,,,,,,,,,,0,1,1,1,1,,,,,,,,,,,,,,,,,,,,,,,,,,,,,,,,,,,,,,,,,,,,,,
245718,001,2022-11-21_01h59.55.991,Info_measure_main_exp,2022.2.2,Win32,59.99520038,,,,,,,,,,,,,,,,,,masks/mask_001.jpg,,,,,,,,,,,,,,,,,,,,,,,,,,,,,,,,,,,,,,,,,,,0,2,2,0,1,,,,,,,,,,,,,,,,,,,,,,,,,,,,,,,,,,,,,,,,,,,,,,
245718,001,2022-11-21_01h59.55.991,Info_measure_main_exp,2022.2.2,Win32,59.99520038,,,,,,,,,,,,,,,,,,masks/mask_005.jpg,,,,,,,,,,,,,,,,,,,,,,,,,,,,,,,,,,,,,,,,,,,0,3,3,4,1,,,,,,,,,,,,,,,,,,,,,,,,,,,,,,,,,,,,,,,,,,,,,,
245718,001,2022-11-21_01h59.55.991,Info_measure_main_exp,2022.2.2,Win32,59.99520038,,,,,,,,,,,,,,,,,,masks/mask_004.jpg,,,,,,,,,,,,,,,,,,,,,,,,,,,,,,,,,,,,,,,,,,,0,4,4,3,1,,,,,,,,,,,,,,,,,,,,,,,,,,,,,,,,,,,,,,,,,,,,,,
245718,001,2022-11-21_01h59.55.991,Info_measure_main_exp,2022.2.2,Win32,59.99520038,,,,,,,,,,,,,,,,,,masks/mask_005.jpg,,,,,,,,,,,,,,,,,,,,,,,,,,,,,,,,,,,,,,,,,,,,,,,,0,0,0,4,1,,,,,,,,,,,,,,,,,,,,,,,,,,,,,,,,,,,,,,,,,
245718,001,2022-11-21_01h59.55.991,Info_measure_main_exp,2022.2.2,Win32,59.99520038,,,,,,,,,,,,,,,,,,masks/mask_001.jpg,,,,,,,,,,,,,,,,,,,,,,,,,,,,,,,,,,,,,,,,,,,,,,,,0,1,1,0,1,,,,,,,,,,,,,,,,,,,,,,,,,,,,,,,,,,,,,,,,,
245718,001,2022-11-21_01h59.55.991,Info_measure_main_exp,2022.2.2,Win32,59.99520038,,,,,,,,,,,,,,,,,,masks/mask_003.jpg,,,,,,,,,,,,,,,,,,,,,,,,,,,,,,,,,,,,,,,,,,,,,,,,0,2,2,2,1,,,,,,,,,,,,,,,,,,,,,,,,,,,,,,,,,,,,,,,,,
245718,001,2022-11-21_01h59.55.991,Info_measure_main_exp,2022.2.2,Win32,59.99520038,,,,,,,,,,,,,,,,,,masks/mask_002.jpg,,,,,,,,,,,,,,,,,,,,,,,,,,,,,,,,,,,,,,,,,,,,,,,,0,3,3,1,1,,,,,,,,,,,,,,,,,,,,,,,,,,,,,,,,,,,,,,,,,
