participant,session,date,expName,psychopyVersion,OS,frameRate,space_press_continue.keys,space_press_continue.rt,space_press_continue_2.keys,space_press_continue_2.rt,space_press_continue_3.keys,space_press_continue_3.rt,space_press_continue_4.keys,space_press_continue_4.rt,space_press_continue_5.keys,space_press_continue_5.rt,space_press_continue_6.keys,space_press_continue_6.rt,prac_mask_loop_1.thisRepN,prac_mask_loop_1.thisTrialN,prac_mask_loop_1.thisN,prac_mask_loop_1.thisIndex,prac_mask_loop_1.ran,mask_name,prac_mask_loop_2.thisRepN,prac_mask_loop_2.thisTrialN,prac_mask_loop_2.thisN,prac_mask_loop_2.thisIndex,prac_mask_loop_2.ran,mouse_2.x,mouse_2.y,mouse_2.leftButton,mouse_2.midButton,mouse_2.rightButton,mouse_2.clicked_name,similarity,response_time,Pass,mouse_12.x,mouse_12.y,mouse_12.leftButton,mouse_12.midButton,mouse_12.rightButton,mouse_12.clicked_name,prac_loop.thisRepN,prac_loop.thisTrialN,prac_loop.thisN,prac_loop.thisIndex,prac_loop.ran,Pair_type,Image_num,Patch_1_loc,Patch_2_loc,Patch_1_info,Patch_2_info,Patch_1_name,Patch_2_name,mouse_1.x,mouse_1.y,mouse_1.leftButton,mouse_1.midButton,mouse_1.rightButton,mouse_1.time,mouse_1.clicked_name,space_press_continue_7.keys,space_press_continue_7.rt,mask_loop.thisRepN,mask_loop.thisTrialN,mask_loop.thisN,mask_loop.thisIndex,mask_loop.ran,mask_loop_2.thisRepN,mask_loop_2.thisTrialN,mask_loop_2.thisN,mask_loop_2.thisIndex,mask_loop_2.ran,mouse.x,mouse.y,mouse.leftButton,mouse.midButton,mouse.rightButton,mouse.clicked_name,trialNumber,mouse_11.x,mouse_11.y,mouse_11.leftButton,mouse_11.midButton,mouse_11.rightButton,mouse_11.clicked_name,first_pass_loop.thisRepN,first_pass_loop.thisTrialN,first_pass_loop.thisN,first_pass_loop.thisIndex,first_pass_loop.ran,mask_loop_3.thisRepN,mask_loop_3.thisTrialN,mask_loop_3.thisN,mask_loop_3.thisIndex,mask_loop_3.ran,mask_loop_4.thisRepN,mask_loop_4.thisTrialN,mask_loop_4.thisN,mask_loop_4.thisIndex,mask_loop_4.ran,mouse_3.x,mouse_3.y,mouse_3.leftButton,mouse_3.midButton,mouse_3.rightButton,mouse_3.clicked_name,double_pass_loop.thisRepN,double_pass_loop.thisTrialN,double_pass_loop.thisN,double_pass_loop.thisIndex,double_pass_loop.ran,space_exit.keys,space_exit.rt
256376,001,2022-11-14_24h27.08.632,Info_measure_main_exp,2022.2.2,Win32,60.0132029,,,,,,,,,,,,,,,,,,,,,,,,,,,,,,,,,,,,,,,,,,,,,,,,,,,,,,,,,,,,,,,,,,,,,,,,,,,,,,,,,,,,,,,,,,,,,,,,,,,,,,,,,,,,,,,
256376,001,2022-11-14_24h27.08.632,Info_measure_main_exp,2022.2.2,Win32,60.0132029,,,,,,,,,,,,,,,,,,,,,,,,,,,,,,,,,,,,,,,,,,,,,,,,,,,,,,,,,,,,,,,,,,,,,,,,,,,,,,,,,,,,,,,,,,,,,,,,,,,,,,,,,,,,,,,
256376,001,2022-11-14_24h27.08.632,Info_measure_main_exp,2022.2.2,Win32,60.0132029,space,11.694,,,,,,,,,,,,,,,,,,,,,,,,,,,,,,,,,,,,,,,,,,,,,,,,,,,,,,,,,,,,,,,,,,,,,,,,,,,,,,,,,,,,,,,,,,,,,,,,,,,,,,,,,,,,,
256376,001,2022-11-14_24h27.08.632,Info_measure_main_exp,2022.2.2,Win32,60.0132029,,,space,15.6768,,,,,,,,,,,,,,,,,,,,,,,,,,,,,,,,,,,,,,,,,,,,,,,,,,,,,,,,,,,,,,,,,,,,,,,,,,,,,,,,,,,,,,,,,,,,,,,,,,,,,,,,,,,
256376,001,2022-11-14_24h27.08.632,Info_measure_main_exp,2022.2.2,Win32,60.0132029,,,,,space,7.135,,,,,,,,,,,,,,,,,,,,,,,,,,,,,,,,,,,,,,,,,,,,,,,,,,,,,,,,,,,,,,,,,,,,,,,,,,,,,,,,,,,,,,,,,,,,,,,,,,,,,,,,,
256376,001,2022-11-14_24h27.08.632,Info_measure_main_exp,2022.2.2,Win32,60.0132029,,,,,,,space,23.7611,,,,,,,,,,,,,,,,,,,,,,,,,,,,,,,,,,,,,,,,,,,,,,,,,,,,,,,,,,,,,,,,,,,,,,,,,,,,,,,,,,,,,,,,,,,,,,,,,,,,,,,
256376,001,2022-11-14_24h27.08.632,Info_measure_main_exp,2022.2.2,Win32,60.0132029,,,,,,,,,space,17.5117,,,,,,,,,,,,,,,,,,,,,,,,,,,,,,,,,,,,,,,,,,,,,,,,,,,,,,,,,,,,,,,,,,,,,,,,,,,,,,,,,,,,,,,,,,,,,,,,,,,,,
256376,001,2022-11-14_24h27.08.632,Info_measure_main_exp,2022.2.2,Win32,60.0132029,,,,,,,,,,,space,3.8211,,,,,,,,,,,,,,,,,,,,,,,,,,,,,,,,,,,,,,,,,,,,,,,,,,,,,,,,,,,,,,,,,,,,,,,,,,,,,,,,,,,,,,,,,,,,,,,,,,,
256376,001,2022-11-14_24h27.08.632,Info_measure_main_exp,2022.2.2,Win32,60.0132029,,,,,,,,,,,,,0,0,0,3,1,masks/mask_004.jpg,,,,,,,,,,,,,,,,,,,,,,,,,,,,,,,,,,,,,,,,,,,,,,,,,,,,,,,,,,,,,,,,,,,,,,,,,,,,,,,,,,,,,,,,,,,,,
256376,001,2022-11-14_24h27.08.632,Info_measure_main_exp,2022.2.2,Win32,60.0132029,,,,,,,,,,,,,0,1,1,2,1,masks/mask_003.jpg,,,,,,,,,,,,,,,,,,,,,,,,,,,,,,,,,,,,,,,,,,,,,,,,,,,,,,,,,,,,,,,,,,,,,,,,,,,,,,,,,,,,,,,,,,,,,
256376,001,2022-11-14_24h27.08.632,Info_measure_main_exp,2022.2.2,Win32,60.0132029,,,,,,,,,,,,,0,2,2,0,1,masks/mask_001.jpg,,,,,,,,,,,,,,,,,,,,,,,,,,,,,,,,,,,,,,,,,,,,,,,,,,,,,,,,,,,,,,,,,,,,,,,,,,,,,,,,,,,,,,,,,,,,,
256376,001,2022-11-14_24h27.08.632,Info_measure_main_exp,2022.2.2,Win32,60.0132029,,,,,,,,,,,,,0,3,3,4,1,masks/mask_005.jpg,,,,,,,,,,,,,,,,,,,,,,,,,,,,,,,,,,,,,,,,,,,,,,,,,,,,,,,,,,,,,,,,,,,,,,,,,,,,,,,,,,,,,,,,,,,,,
256376,001,2022-11-14_24h27.08.632,Info_measure_main_exp,2022.2.2,Win32,60.0132029,,,,,,,,,,,,,0,4,4,1,1,masks/mask_002.jpg,,,,,,,,,,,,,,,,,,,,,,,,,,,,,,,,,,,,,,,,,,,,,,,,,,,,,,,,,,,,,,,,,,,,,,,,,,,,,,,,,,,,,,,,,,,,,
256376,001,2022-11-14_24h27.08.632,Info_measure_main_exp,2022.2.2,Win32,60.0132029,,,,,,,,,,,,,,,,,,masks/mask_001.jpg,0,0,0,0,1,,,,,,,,,,,,,,,,,,,,,,,,,,,,,,,,,,,,,,,,,,,,,,,,,,,,,,,,,,,,,,,,,,,,,,,,,,,,,,,,,,,,,,,,
256376,001,2022-11-14_24h27.08.632,Info_measure_main_exp,2022.2.2,Win32,60.0132029,,,,,,,,,,,,,,,,,,masks/mask_002.jpg,0,1,1,1,1,,,,,,,,,,,,,,,,,,,,,,,,,,,,,,,,,,,,,,,,,,,,,,,,,,,,,,,,,,,,,,,,,,,,,,,,,,,,,,,,,,,,,,,,
256376,001,2022-11-14_24h27.08.632,Info_measure_main_exp,2022.2.2,Win32,60.0132029,,,,,,,,,,,,,,,,,,masks/mask_005.jpg,0,2,2,4,1,,,,,,,,,,,,,,,,,,,,,,,,,,,,,,,,,,,,,,,,,,,,,,,,,,,,,,,,,,,,,,,,,,,,,,,,,,,,,,,,,,,,,,,,
256376,001,2022-11-14_24h27.08.632,Info_measure_main_exp,2022.2.2,Win32,60.0132029,,,,,,,,,,,,,,,,,,masks/mask_004.jpg,0,3,3,3,1,,,,,,,,,,,,,,,,,,,,,,,,,,,,,,,,,,,,,,,,,,,,,,,,,,,,,,,,,,,,,,,,,,,,,,,,,,,,,,,,,,,,,,,,
256376,001,2022-11-14_24h27.08.632,Info_measure_main_exp,2022.2.2,Win32,60.0132029,,,,,,,,,,,,,,,,,,masks/mask_003.jpg,0,4,4,2,1,,,,,,,,,,,,,,,,,,,,,,,,,,,,,,,,,,,,,,,,,,,,,,,,,,,,,,,,,,,,,,,,,,,,,,,,,,,,,,,,,,,,,,,,
256376,001,2022-11-14_24h27.08.632,Info_measure_main_exp,2022.2.2,Win32,60.0132029,,,,,,,,,,,,,,,,,,,,,,,,0.052083333,0.110677083,1,0,0,response1disk,7,85.7539,1,0,-0.00390625,1,0,0,center_square,0,0,0,0,1,0,131,5,5,2370,2406,prac_patch/patch0002370.jpg,prac_patch/patch0002406.jpg,,,,,,,,,,,,,,,,,,,,,,,,,,,,,,,,,,,,,,,,,,,,,,,,,,,,,,,,,,,,
256376,001,2022-11-14_24h27.08.632,Info_measure_main_exp,2022.2.2,Win32,60.0132029,,,,,,,,,,,,,0,0,0,4,1,masks/mask_005.jpg,,,,,,,,,,,,,,,,,,,,,,,,,,,,,,,,,,,,,,,,,,,,,,,,,,,,,,,,,,,,,,,,,,,,,,,,,,,,,,,,,,,,,,,,,,,,,
256376,001,2022-11-14_24h27.08.632,Info_measure_main_exp,2022.2.2,Win32,60.0132029,,,,,,,,,,,,,0,1,1,1,1,masks/mask_002.jpg,,,,,,,,,,,,,,,,,,,,,,,,,,,,,,,,,,,,,,,,,,,,,,,,,,,,,,,,,,,,,,,,,,,,,,,,,,,,,,,,,,,,,,,,,,,,,
256376,001,2022-11-14_24h27.08.632,Info_measure_main_exp,2022.2.2,Win32,60.0132029,,,,,,,,,,,,,0,2,2,0,1,masks/mask_001.jpg,,,,,,,,,,,,,,,,,,,,,,,,,,,,,,,,,,,,,,,,,,,,,,,,,,,,,,,,,,,,,,,,,,,,,,,,,,,,,,,,,,,,,,,,,,,,,
256376,001,2022-11-14_24h27.08.632,Info_measure_main_exp,2022.2.2,Win32,60.0132029,,,,,,,,,,,,,0,3,3,2,1,masks/mask_003.jpg,,,,,,,,,,,,,,,,,,,,,,,,,,,,,,,,,,,,,,,,,,,,,,,,,,,,,,,,,,,,,,,,,,,,,,,,,,,,,,,,,,,,,,,,,,,,,
256376,001,2022-11-14_24h27.08.632,Info_measure_main_exp,2022.2.2,Win32,60.0132029,,,,,,,,,,,,,0,4,4,3,1,masks/mask_004.jpg,,,,,,,,,,,,,,,,,,,,,,,,,,,,,,,,,,,,,,,,,,,,,,,,,,,,,,,,,,,,,,,,,,,,,,,,,,,,,,,,,,,,,,,,,,,,,
256376,001,2022-11-14_24h27.08.632,Info_measure_main_exp,2022.2.2,Win32,60.0132029,,,,,,,,,,,,,,,,,,masks/mask_002.jpg,0,0,0,1,1,,,,,,,,,,,,,,,,,,,,,,,,,,,,,,,,,,,,,,,,,,,,,,,,,,,,,,,,,,,,,,,,,,,,,,,,,,,,,,,,,,,,,,,,
256376,001,2022-11-14_24h27.08.632,Info_measure_main_exp,2022.2.2,Win32,60.0132029,,,,,,,,,,,,,,,,,,masks/mask_005.jpg,0,1,1,4,1,,,,,,,,,,,,,,,,,,,,,,,,,,,,,,,,,,,,,,,,,,,,,,,,,,,,,,,,,,,,,,,,,,,,,,,,,,,,,,,,,,,,,,,,
256376,001,2022-11-14_24h27.08.632,Info_measure_main_exp,2022.2.2,Win32,60.0132029,,,,,,,,,,,,,,,,,,masks/mask_003.jpg,0,2,2,2,1,,,,,,,,,,,,,,,,,,,,,,,,,,,,,,,,,,,,,,,,,,,,,,,,,,,,,,,,,,,,,,,,,,,,,,,,,,,,,,,,,,,,,,,,
256376,001,2022-11-14_24h27.08.632,Info_measure_main_exp,2022.2.2,Win32,60.0132029,,,,,,,,,,,,,,,,,,masks/mask_004.jpg,0,3,3,3,1,,,,,,,,,,,,,,,,,,,,,,,,,,,,,,,,,,,,,,,,,,,,,,,,,,,,,,,,,,,,,,,,,,,,,,,,,,,,,,,,,,,,,,,,
256376,001,2022-11-14_24h27.08.632,Info_measure_main_exp,2022.2.2,Win32,60.0132029,,,,,,,,,,,,,,,,,,masks/mask_001.jpg,0,4,4,0,1,,,,,,,,,,,,,,,,,,,,,,,,,,,,,,,,,,,,,,,,,,,,,,,,,,,,,,,,,,,,,,,,,,,,,,,,,,,,,,,,,,,,,,,,
256376,001,2022-11-14_24h27.08.632,Info_measure_main_exp,2022.2.2,Win32,60.0132029,,,,,,,,,,,,,,,,,,,,,,,,0.045572917,-0.13671875,1,0,0,response3disk,4,101.39,1,0,0.001302083,1,0,0,center_square,0,1,1,1,1,0,131,5,5,2514,2490,prac_patch/patch0002514.jpg,prac_patch/patch0002490.jpg,,,,,,,,,,,,,,,,,,,,,,,,,,,,,,,,,,,,,,,,,,,,,,,,,,,,,,,,,,,,
256376,001,2022-11-14_24h27.08.632,Info_measure_main_exp,2022.2.2,Win32,60.0132029,,,,,,,,,,,,,0,0,0,0,1,masks/mask_001.jpg,,,,,,,,,,,,,,,,,,,,,,,,,,,,,,,,,,,,,,,,,,,,,,,,,,,,,,,,,,,,,,,,,,,,,,,,,,,,,,,,,,,,,,,,,,,,,
256376,001,2022-11-14_24h27.08.632,Info_measure_main_exp,2022.2.2,Win32,60.0132029,,,,,,,,,,,,,0,1,1,2,1,masks/mask_003.jpg,,,,,,,,,,,,,,,,,,,,,,,,,,,,,,,,,,,,,,,,,,,,,,,,,,,,,,,,,,,,,,,,,,,,,,,,,,,,,,,,,,,,,,,,,,,,,
256376,001,2022-11-14_24h27.08.632,Info_measure_main_exp,2022.2.2,Win32,60.0132029,,,,,,,,,,,,,0,2,2,4,1,masks/mask_005.jpg,,,,,,,,,,,,,,,,,,,,,,,,,,,,,,,,,,,,,,,,,,,,,,,,,,,,,,,,,,,,,,,,,,,,,,,,,,,,,,,,,,,,,,,,,,,,,
256376,001,2022-11-14_24h27.08.632,Info_measure_main_exp,2022.2.2,Win32,60.0132029,,,,,,,,,,,,,0,3,3,1,1,masks/mask_002.jpg,,,,,,,,,,,,,,,,,,,,,,,,,,,,,,,,,,,,,,,,,,,,,,,,,,,,,,,,,,,,,,,,,,,,,,,,,,,,,,,,,,,,,,,,,,,,,
256376,001,2022-11-14_24h27.08.632,Info_measure_main_exp,2022.2.2,Win32,60.0132029,,,,,,,,,,,,,0,4,4,3,1,masks/mask_004.jpg,,,,,,,,,,,,,,,,,,,,,,,,,,,,,,,,,,,,,,,,,,,,,,,,,,,,,,,,,,,,,,,,,,,,,,,,,,,,,,,,,,,,,,,,,,,,,
256376,001,2022-11-14_24h27.08.632,Info_measure_main_exp,2022.2.2,Win32,60.0132029,,,,,,,,,,,,,,,,,,masks/mask_003.jpg,0,0,0,2,1,,,,,,,,,,,,,,,,,,,,,,,,,,,,,,,,,,,,,,,,,,,,,,,,,,,,,,,,,,,,,,,,,,,,,,,,,,,,,,,,,,,,,,,,
256376,001,2022-11-14_24h27.08.632,Info_measure_main_exp,2022.2.2,Win32,60.0132029,,,,,,,,,,,,,,,,,,masks/mask_001.jpg,0,1,1,0,1,,,,,,,,,,,,,,,,,,,,,,,,,,,,,,,,,,,,,,,,,,,,,,,,,,,,,,,,,,,,,,,,,,,,,,,,,,,,,,,,,,,,,,,,
256376,001,2022-11-14_24h27.08.632,Info_measure_main_exp,2022.2.2,Win32,60.0132029,,,,,,,,,,,,,,,,,,masks/mask_004.jpg,0,2,2,3,1,,,,,,,,,,,,,,,,,,,,,,,,,,,,,,,,,,,,,,,,,,,,,,,,,,,,,,,,,,,,,,,,,,,,,,,,,,,,,,,,,,,,,,,,
256376,001,2022-11-14_24h27.08.632,Info_measure_main_exp,2022.2.2,Win32,60.0132029,,,,,,,,,,,,,,,,,,masks/mask_002.jpg,0,3,3,1,1,,,,,,,,,,,,,,,,,,,,,,,,,,,,,,,,,,,,,,,,,,,,,,,,,,,,,,,,,,,,,,,,,,,,,,,,,,,,,,,,,,,,,,,,
256376,001,2022-11-14_24h27.08.632,Info_measure_main_exp,2022.2.2,Win32,60.0132029,,,,,,,,,,,,,,,,,,masks/mask_005.jpg,0,4,4,4,1,,,,,,,,,,,,,,,,,,,,,,,,,,,,,,,,,,,,,,,,,,,,,,,,,,,,,,,,,,,,,,,,,,,,,,,,,,,,,,,,,,,,,,,,
256376,001,2022-11-14_24h27.08.632,Info_measure_main_exp,2022.2.2,Win32,60.0132029,,,,,,,,,,,,,,,,,,,,,,,,-0.049479167,0.111979167,1,0,0,response7disk,0,110.1735,1,0.00390625,0.001302083,1,0,0,center_square,0,2,2,2,1,0,131,5,5,2526,2526,prac_patch/patch0002526.jpg,prac_patch/patch0002526.jpg,,,,,,,,,,,,,,,,,,,,,,,,,,,,,,,,,,,,,,,,,,,,,,,,,,,,,,,,,,,,
256376,001,2022-11-14_24h27.08.632,Info_measure_main_exp,2022.2.2,Win32,60.0132029,,,,,,,,,,,,,,,,,,,,,,,,,,,,,,,,,,,,,,,,,,,,,,,,,,,,,,,,,,,space,2.2255,,,,,,,,,,,,,,,,,,,,,,,,,,,,,,,,,,,,,,,,,,,,,,,,,,,
256376,001,2022-11-14_24h27.08.632,Info_measure_main_exp,2022.2.2,Win32,60.0132029,,,,,,,,,,,,,,,,,,masks/mask_005.jpg,,,,,,,,,,,,,,,,,,,,,,,,,,,,,,,,,,,,,,,,,,,0,0,0,4,1,,,,,,,,,,,,,,,,,,,,,,,,,,,,,,,,,,,,,,,,,,,,,,
256376,001,2022-11-14_24h27.08.632,Info_measure_main_exp,2022.2.2,Win32,60.0132029,,,,,,,,,,,,,,,,,,masks/mask_002.jpg,,,,,,,,,,,,,,,,,,,,,,,,,,,,,,,,,,,,,,,,,,,0,1,1,1,1,,,,,,,,,,,,,,,,,,,,,,,,,,,,,,,,,,,,,,,,,,,,,,
256376,001,2022-11-14_24h27.08.632,Info_measure_main_exp,2022.2.2,Win32,60.0132029,,,,,,,,,,,,,,,,,,masks/mask_004.jpg,,,,,,,,,,,,,,,,,,,,,,,,,,,,,,,,,,,,,,,,,,,0,2,2,3,1,,,,,,,,,,,,,,,,,,,,,,,,,,,,,,,,,,,,,,,,,,,,,,
256376,001,2022-11-14_24h27.08.632,Info_measure_main_exp,2022.2.2,Win32,60.0132029,,,,,,,,,,,,,,,,,,masks/mask_003.jpg,,,,,,,,,,,,,,,,,,,,,,,,,,,,,,,,,,,,,,,,,,,0,3,3,2,1,,,,,,,,,,,,,,,,,,,,,,,,,,,,,,,,,,,,,,,,,,,,,,
256376,001,2022-11-14_24h27.08.632,Info_measure_main_exp,2022.2.2,Win32,60.0132029,,,,,,,,,,,,,,,,,,masks/mask_001.jpg,,,,,,,,,,,,,,,,,,,,,,,,,,,,,,,,,,,,,,,,,,,0,4,4,0,1,,,,,,,,,,,,,,,,,,,,,,,,,,,,,,,,,,,,,,,,,,,,,,
256376,001,2022-11-14_24h27.08.632,Info_measure_main_exp,2022.2.2,Win32,60.0132029,,,,,,,,,,,,,,,,,,masks/mask_002.jpg,,,,,,,,,,,,,,,,,,,,,,,,,,,,,,,,,,,,,,,,,,,,,,,,0,0,0,1,1,,,,,,,,,,,,,,,,,,,,,,,,,,,,,,,,,,,,,,,,,
256376,001,2022-11-14_24h27.08.632,Info_measure_main_exp,2022.2.2,Win32,60.0132029,,,,,,,,,,,,,,,,,,masks/mask_003.jpg,,,,,,,,,,,,,,,,,,,,,,,,,,,,,,,,,,,,,,,,,,,,,,,,0,1,1,2,1,,,,,,,,,,,,,,,,,,,,,,,,,,,,,,,,,,,,,,,,,
256376,001,2022-11-14_24h27.08.632,Info_measure_main_exp,2022.2.2,Win32,60.0132029,,,,,,,,,,,,,,,,,,masks/mask_004.jpg,,,,,,,,,,,,,,,,,,,,,,,,,,,,,,,,,,,,,,,,,,,,,,,,0,2,2,3,1,,,,,,,,,,,,,,,,,,,,,,,,,,,,,,,,,,,,,,,,,
256376,001,2022-11-14_24h27.08.632,Info_measure_main_exp,2022.2.2,Win32,60.0132029,,,,,,,,,,,,,,,,,,masks/mask_001.jpg,,,,,,,,,,,,,,,,,,,,,,,,,,,,,,,,,,,,,,,,,,,,,,,,0,3,3,0,1,,,,,,,,,,,,,,,,,,,,,,,,,,,,,,,,,,,,,,,,,
256376,001,2022-11-14_24h27.08.632,Info_measure_main_exp,2022.2.2,Win32,60.0132029,,,,,,,,,,,,,,,,,,masks/mask_005.jpg,,,,,,,,,,,,,,,,,,,,,,,,,,,,,,,,,,,,,,,,,,,,,,,,0,4,4,4,1,,,,,,,,,,,,,,,,,,,,,,,,,,,,,,,,,,,,,,,,,
256376,001,2022-11-14_24h27.08.632,Info_measure_main_exp,2022.2.2,Win32,60.0132029,,,,,,,,,,,,,,,,,,,,,,,,,,,,,,7,3.6513,1,,,,,,,,,,,,0,131,5,5,2274,2082,absent_patch/patch0002274.jpg,absent_patch/patch0002082.jpg,,,,,,,,,,,,,,,,,,,,0.063802083,0.135416667,1,0,0,response1disk,1,0.005208333,0.002604167,1,0,0,center_square,0,0,0,100,1,,,,,,,,,,,,,,,,,,,,,,,
256376,001,2022-11-14_24h27.08.632,Info_measure_main_exp,2022.2.2,Win32,60.0132029,,,,,,,,,,,,,,,,,,masks/mask_002.jpg,,,,,,,,,,,,,,,,,,,,,,,,,,,,,,,,,,,,,,,,,,,0,0,0,1,1,,,,,,,,,,,,,,,,,,,,,,,,,,,,,,,,,,,,,,,,,,,,,,
256376,001,2022-11-14_24h27.08.632,Info_measure_main_exp,2022.2.2,Win32,60.0132029,,,,,,,,,,,,,,,,,,masks/mask_001.jpg,,,,,,,,,,,,,,,,,,,,,,,,,,,,,,,,,,,,,,,,,,,0,1,1,0,1,,,,,,,,,,,,,,,,,,,,,,,,,,,,,,,,,,,,,,,,,,,,,,
256376,001,2022-11-14_24h27.08.632,Info_measure_main_exp,2022.2.2,Win32,60.0132029,,,,,,,,,,,,,,,,,,masks/mask_005.jpg,,,,,,,,,,,,,,,,,,,,,,,,,,,,,,,,,,,,,,,,,,,0,2,2,4,1,,,,,,,,,,,,,,,,,,,,,,,,,,,,,,,,,,,,,,,,,,,,,,
256376,001,2022-11-14_24h27.08.632,Info_measure_main_exp,2022.2.2,Win32,60.0132029,,,,,,,,,,,,,,,,,,masks/mask_004.jpg,,,,,,,,,,,,,,,,,,,,,,,,,,,,,,,,,,,,,,,,,,,0,3,3,3,1,,,,,,,,,,,,,,,,,,,,,,,,,,,,,,,,,,,,,,,,,,,,,,
256376,001,2022-11-14_24h27.08.632,Info_measure_main_exp,2022.2.2,Win32,60.0132029,,,,,,,,,,,,,,,,,,masks/mask_003.jpg,,,,,,,,,,,,,,,,,,,,,,,,,,,,,,,,,,,,,,,,,,,0,4,4,2,1,,,,,,,,,,,,,,,,,,,,,,,,,,,,,,,,,,,,,,,,,,,,,,
256376,001,2022-11-14_24h27.08.632,Info_measure_main_exp,2022.2.2,Win32,60.0132029,,,,,,,,,,,,,,,,,,masks/mask_005.jpg,,,,,,,,,,,,,,,,,,,,,,,,,,,,,,,,,,,,,,,,,,,,,,,,0,0,0,4,1,,,,,,,,,,,,,,,,,,,,,,,,,,,,,,,,,,,,,,,,,
256376,001,2022-11-14_24h27.08.632,Info_measure_main_exp,2022.2.2,Win32,60.0132029,,,,,,,,,,,,,,,,,,masks/mask_004.jpg,,,,,,,,,,,,,,,,,,,,,,,,,,,,,,,,,,,,,,,,,,,,,,,,0,1,1,3,1,,,,,,,,,,,,,,,,,,,,,,,,,,,,,,,,,,,,,,,,,
256376,001,2022-11-14_24h27.08.632,Info_measure_main_exp,2022.2.2,Win32,60.0132029,,,,,,,,,,,,,,,,,,masks/mask_003.jpg,,,,,,,,,,,,,,,,,,,,,,,,,,,,,,,,,,,,,,,,,,,,,,,,0,2,2,2,1,,,,,,,,,,,,,,,,,,,,,,,,,,,,,,,,,,,,,,,,,
256376,001,2022-11-14_24h27.08.632,Info_measure_main_exp,2022.2.2,Win32,60.0132029,,,,,,,,,,,,,,,,,,masks/mask_002.jpg,,,,,,,,,,,,,,,,,,,,,,,,,,,,,,,,,,,,,,,,,,,,,,,,0,3,3,1,1,,,,,,,,,,,,,,,,,,,,,,,,,,,,,,,,,,,,,,,,,
256376,001,2022-11-14_24h27.08.632,Info_measure_main_exp,2022.2.2,Win32,60.0132029,,,,,,,,,,,,,,,,,,masks/mask_001.jpg,,,,,,,,,,,,,,,,,,,,,,,,,,,,,,,,,,,,,,,,,,,,,,,,0,4,4,0,1,,,,,,,,,,,,,,,,,,,,,,,,,,,,,,,,,,,,,,,,,
256376,001,2022-11-14_24h27.08.632,Info_measure_main_exp,2022.2.2,Win32,60.0132029,,,,,,,,,,,,,,,,,,,,,,,,,,,,,,4,4.5506,1,,,,,,,,,,,,0,131,5,5,2082,2298,absent_patch/patch0002082.jpg,absent_patch/patch0002298.jpg,,,,,,,,,,,,,,,,,,,,0.087239583,-0.111979167,1,0,0,response3disk,2,0.00390625,0.00390625,1,0,0,center_square,0,1,1,107,1,,,,,,,,,,,,,,,,,,,,,,,
256376,001,2022-11-14_24h27.08.632,Info_measure_main_exp,2022.2.2,Win32,60.0132029,,,,,,,,,,,,,,,,,,masks/mask_004.jpg,,,,,,,,,,,,,,,,,,,,,,,,,,,,,,,,,,,,,,,,,,,0,0,0,3,1,,,,,,,,,,,,,,,,,,,,,,,,,,,,,,,,,,,,,,,,,,,,,,
256376,001,2022-11-14_24h27.08.632,Info_measure_main_exp,2022.2.2,Win32,60.0132029,,,,,,,,,,,,,,,,,,masks/mask_005.jpg,,,,,,,,,,,,,,,,,,,,,,,,,,,,,,,,,,,,,,,,,,,0,1,1,4,1,,,,,,,,,,,,,,,,,,,,,,,,,,,,,,,,,,,,,,,,,,,,,,
256376,001,2022-11-14_24h27.08.632,Info_measure_main_exp,2022.2.2,Win32,60.0132029,,,,,,,,,,,,,,,,,,masks/mask_001.jpg,,,,,,,,,,,,,,,,,,,,,,,,,,,,,,,,,,,,,,,,,,,0,2,2,0,1,,,,,,,,,,,,,,,,,,,,,,,,,,,,,,,,,,,,,,,,,,,,,,
256376,001,2022-11-14_24h27.08.632,Info_measure_main_exp,2022.2.2,Win32,60.0132029,,,,,,,,,,,,,,,,,,masks/mask_002.jpg,,,,,,,,,,,,,,,,,,,,,,,,,,,,,,,,,,,,,,,,,,,0,3,3,1,1,,,,,,,,,,,,,,,,,,,,,,,,,,,,,,,,,,,,,,,,,,,,,,
256376,001,2022-11-14_24h27.08.632,Info_measure_main_exp,2022.2.2,Win32,60.0132029,,,,,,,,,,,,,,,,,,masks/mask_003.jpg,,,,,,,,,,,,,,,,,,,,,,,,,,,,,,,,,,,,,,,,,,,0,4,4,2,1,,,,,,,,,,,,,,,,,,,,,,,,,,,,,,,,,,,,,,,,,,,,,,
256376,001,2022-11-14_24h27.08.632,Info_measure_main_exp,2022.2.2,Win32,60.0132029,,,,,,,,,,,,,,,,,,masks/mask_004.jpg,,,,,,,,,,,,,,,,,,,,,,,,,,,,,,,,,,,,,,,,,,,,,,,,0,0,0,3,1,,,,,,,,,,,,,,,,,,,,,,,,,,,,,,,,,,,,,,,,,
256376,001,2022-11-14_24h27.08.632,Info_measure_main_exp,2022.2.2,Win32,60.0132029,,,,,,,,,,,,,,,,,,masks/mask_002.jpg,,,,,,,,,,,,,,,,,,,,,,,,,,,,,,,,,,,,,,,,,,,,,,,,0,1,1,1,1,,,,,,,,,,,,,,,,,,,,,,,,,,,,,,,,,,,,,,,,,
256376,001,2022-11-14_24h27.08.632,Info_measure_main_exp,2022.2.2,Win32,60.0132029,,,,,,,,,,,,,,,,,,masks/mask_005.jpg,,,,,,,,,,,,,,,,,,,,,,,,,,,,,,,,,,,,,,,,,,,,,,,,0,2,2,4,1,,,,,,,,,,,,,,,,,,,,,,,,,,,,,,,,,,,,,,,,,
256376,001,2022-11-14_24h27.08.632,Info_measure_main_exp,2022.2.2,Win32,60.0132029,,,,,,,,,,,,,,,,,,masks/mask_003.jpg,,,,,,,,,,,,,,,,,,,,,,,,,,,,,,,,,,,,,,,,,,,,,,,,0,3,3,2,1,,,,,,,,,,,,,,,,,,,,,,,,,,,,,,,,,,,,,,,,,
256376,001,2022-11-14_24h27.08.632,Info_measure_main_exp,2022.2.2,Win32,60.0132029,,,,,,,,,,,,,,,,,,masks/mask_001.jpg,,,,,,,,,,,,,,,,,,,,,,,,,,,,,,,,,,,,,,,,,,,,,,,,0,4,4,0,1,,,,,,,,,,,,,,,,,,,,,,,,,,,,,,,,,,,,,,,,,
256376,001,2022-11-14_24h27.08.632,Info_measure_main_exp,2022.2.2,Win32,60.0132029,,,,,,,,,,,,,,,,,,,,,,,,,,,,,,7,1.2504,1,,,,,,,,,,,,0,131,5,5,2082,2154,absent_patch/patch0002082.jpg,absent_patch/patch0002154.jpg,,,,,,,,,,,,,,,,,,,,0.0546875,0.13671875,1,0,0,response1disk,3,0.001302083,-0.001302083,1,0,0,center_square,0,2,2,33,1,,,,,,,,,,,,,,,,,,,,,,,
256376,001,2022-11-14_24h27.08.632,Info_measure_main_exp,2022.2.2,Win32,60.0132029,,,,,,,,,,,,,,,,,,masks/mask_001.jpg,,,,,,,,,,,,,,,,,,,,,,,,,,,,,,,,,,,,,,,,,,,0,0,0,0,1,,,,,,,,,,,,,,,,,,,,,,,,,,,,,,,,,,,,,,,,,,,,,,
256376,001,2022-11-14_24h27.08.632,Info_measure_main_exp,2022.2.2,Win32,60.0132029,,,,,,,,,,,,,,,,,,masks/mask_005.jpg,,,,,,,,,,,,,,,,,,,,,,,,,,,,,,,,,,,,,,,,,,,0,1,1,4,1,,,,,,,,,,,,,,,,,,,,,,,,,,,,,,,,,,,,,,,,,,,,,,
256376,001,2022-11-14_24h27.08.632,Info_measure_main_exp,2022.2.2,Win32,60.0132029,,,,,,,,,,,,,,,,,,masks/mask_003.jpg,,,,,,,,,,,,,,,,,,,,,,,,,,,,,,,,,,,,,,,,,,,0,2,2,2,1,,,,,,,,,,,,,,,,,,,,,,,,,,,,,,,,,,,,,,,,,,,,,,
256376,001,2022-11-14_24h27.08.632,Info_measure_main_exp,2022.2.2,Win32,60.0132029,,,,,,,,,,,,,,,,,,masks/mask_002.jpg,,,,,,,,,,,,,,,,,,,,,,,,,,,,,,,,,,,,,,,,,,,0,3,3,1,1,,,,,,,,,,,,,,,,,,,,,,,,,,,,,,,,,,,,,,,,,,,,,,
256376,001,2022-11-14_24h27.08.632,Info_measure_main_exp,2022.2.2,Win32,60.0132029,,,,,,,,,,,,,,,,,,masks/mask_004.jpg,,,,,,,,,,,,,,,,,,,,,,,,,,,,,,,,,,,,,,,,,,,0,4,4,3,1,,,,,,,,,,,,,,,,,,,,,,,,,,,,,,,,,,,,,,,,,,,,,,
256376,001,2022-11-14_24h27.08.632,Info_measure_main_exp,2022.2.2,Win32,60.0132029,,,,,,,,,,,,,,,,,,masks/mask_001.jpg,,,,,,,,,,,,,,,,,,,,,,,,,,,,,,,,,,,,,,,,,,,,,,,,0,0,0,0,1,,,,,,,,,,,,,,,,,,,,,,,,,,,,,,,,,,,,,,,,,
256376,001,2022-11-14_24h27.08.632,Info_measure_main_exp,2022.2.2,Win32,60.0132029,,,,,,,,,,,,,,,,,,masks/mask_005.jpg,,,,,,,,,,,,,,,,,,,,,,,,,,,,,,,,,,,,,,,,,,,,,,,,0,1,1,4,1,,,,,,,,,,,,,,,,,,,,,,,,,,,,,,,,,,,,,,,,,
256376,001,2022-11-14_24h27.08.632,Info_measure_main_exp,2022.2.2,Win32,60.0132029,,,,,,,,,,,,,,,,,,masks/mask_003.jpg,,,,,,,,,,,,,,,,,,,,,,,,,,,,,,,,,,,,,,,,,,,,,,,,0,2,2,2,1,,,,,,,,,,,,,,,,,,,,,,,,,,,,,,,,,,,,,,,,,
256376,001,2022-11-14_24h27.08.632,Info_measure_main_exp,2022.2.2,Win32,60.0132029,,,,,,,,,,,,,,,,,,masks/mask_004.jpg,,,,,,,,,,,,,,,,,,,,,,,,,,,,,,,,,,,,,,,,,,,,,,,,0,3,3,3,1,,,,,,,,,,,,,,,,,,,,,,,,,,,,,,,,,,,,,,,,,
256376,001,2022-11-14_24h27.08.632,Info_measure_main_exp,2022.2.2,Win32,60.0132029,,,,,,,,,,,,,,,,,,masks/mask_002.jpg,,,,,,,,,,,,,,,,,,,,,,,,,,,,,,,,,,,,,,,,,,,,,,,,0,4,4,1,1,,,,,,,,,,,,,,,,,,,,,,,,,,,,,,,,,,,,,,,,,
256376,001,2022-11-14_24h27.08.632,Info_measure_main_exp,2022.2.2,Win32,60.0132029,,,,,,,,,,,,,,,,,,,,,,,,,,,,,,7,1.0168,1,,,,,,,,,,,,0,131,5,5,2166,2298,absent_patch/patch0002166.jpg,absent_patch/patch0002298.jpg,,,,,,,,,,,,,,,,,,,,0.045572917,0.135416667,1,0,0,response1disk,4,0.001302083,0.005208333,1,0,0,center_square,0,3,3,52,1,,,,,,,,,,,,,,,,,,,,,,,
256376,001,2022-11-14_24h27.08.632,Info_measure_main_exp,2022.2.2,Win32,60.0132029,,,,,,,,,,,,,,,,,,masks/mask_001.jpg,,,,,,,,,,,,,,,,,,,,,,,,,,,,,,,,,,,,,,,,,,,0,0,0,0,1,,,,,,,,,,,,,,,,,,,,,,,,,,,,,,,,,,,,,,,,,,,,,,
256376,001,2022-11-14_24h27.08.632,Info_measure_main_exp,2022.2.2,Win32,60.0132029,,,,,,,,,,,,,,,,,,masks/mask_003.jpg,,,,,,,,,,,,,,,,,,,,,,,,,,,,,,,,,,,,,,,,,,,0,1,1,2,1,,,,,,,,,,,,,,,,,,,,,,,,,,,,,,,,,,,,,,,,,,,,,,
256376,001,2022-11-14_24h27.08.632,Info_measure_main_exp,2022.2.2,Win32,60.0132029,,,,,,,,,,,,,,,,,,masks/mask_002.jpg,,,,,,,,,,,,,,,,,,,,,,,,,,,,,,,,,,,,,,,,,,,0,2,2,1,1,,,,,,,,,,,,,,,,,,,,,,,,,,,,,,,,,,,,,,,,,,,,,,
256376,001,2022-11-14_24h27.08.632,Info_measure_main_exp,2022.2.2,Win32,60.0132029,,,,,,,,,,,,,,,,,,masks/mask_004.jpg,,,,,,,,,,,,,,,,,,,,,,,,,,,,,,,,,,,,,,,,,,,0,3,3,3,1,,,,,,,,,,,,,,,,,,,,,,,,,,,,,,,,,,,,,,,,,,,,,,
256376,001,2022-11-14_24h27.08.632,Info_measure_main_exp,2022.2.2,Win32,60.0132029,,,,,,,,,,,,,,,,,,masks/mask_005.jpg,,,,,,,,,,,,,,,,,,,,,,,,,,,,,,,,,,,,,,,,,,,0,4,4,4,1,,,,,,,,,,,,,,,,,,,,,,,,,,,,,,,,,,,,,,,,,,,,,,
256376,001,2022-11-14_24h27.08.632,Info_measure_main_exp,2022.2.2,Win32,60.0132029,,,,,,,,,,,,,,,,,,masks/mask_005.jpg,,,,,,,,,,,,,,,,,,,,,,,,,,,,,,,,,,,,,,,,,,,,,,,,0,0,0,4,1,,,,,,,,,,,,,,,,,,,,,,,,,,,,,,,,,,,,,,,,,
256376,001,2022-11-14_24h27.08.632,Info_measure_main_exp,2022.2.2,Win32,60.0132029,,,,,,,,,,,,,,,,,,masks/mask_003.jpg,,,,,,,,,,,,,,,,,,,,,,,,,,,,,,,,,,,,,,,,,,,,,,,,0,1,1,2,1,,,,,,,,,,,,,,,,,,,,,,,,,,,,,,,,,,,,,,,,,
256376,001,2022-11-14_24h27.08.632,Info_measure_main_exp,2022.2.2,Win32,60.0132029,,,,,,,,,,,,,,,,,,masks/mask_002.jpg,,,,,,,,,,,,,,,,,,,,,,,,,,,,,,,,,,,,,,,,,,,,,,,,0,2,2,1,1,,,,,,,,,,,,,,,,,,,,,,,,,,,,,,,,,,,,,,,,,
256376,001,2022-11-14_24h27.08.632,Info_measure_main_exp,2022.2.2,Win32,60.0132029,,,,,,,,,,,,,,,,,,masks/mask_004.jpg,,,,,,,,,,,,,,,,,,,,,,,,,,,,,,,,,,,,,,,,,,,,,,,,0,3,3,3,1,,,,,,,,,,,,,,,,,,,,,,,,,,,,,,,,,,,,,,,,,
256376,001,2022-11-14_24h27.08.632,Info_measure_main_exp,2022.2.2,Win32,60.0132029,,,,,,,,,,,,,,,,,,masks/mask_001.jpg,,,,,,,,,,,,,,,,,,,,,,,,,,,,,,,,,,,,,,,,,,,,,,,,0,4,4,0,1,,,,,,,,,,,,,,,,,,,,,,,,,,,,,,,,,,,,,,,,,
256376,001,2022-11-14_24h27.08.632,Info_measure_main_exp,2022.2.2,Win32,60.0132029,,,,,,,,,,,,,,,,,,,,,,,,,,,,,,7,2.2836,1,,,,,,,,,,,,0,131,5,5,1950,2166,absent_patch/patch0001950.jpg,absent_patch/patch0002166.jpg,,,,,,,,,,,,,,,,,,,,0.0390625,0.102864583,1,0,0,response1disk,5,0,0.00390625,1,0,0,center_square,0,4,4,0,1,,,,,,,,,,,,,,,,,,,,,,,
256376,001,2022-11-14_24h27.08.632,Info_measure_main_exp,2022.2.2,Win32,60.0132029,,,,,,,,,,,,,,,,,,masks/mask_001.jpg,,,,,,,,,,,,,,,,,,,,,,,,,,,,,,,,,,,,,,,,,,,0,0,0,0,1,,,,,,,,,,,,,,,,,,,,,,,,,,,,,,,,,,,,,,,,,,,,,,
256376,001,2022-11-14_24h27.08.632,Info_measure_main_exp,2022.2.2,Win32,60.0132029,,,,,,,,,,,,,,,,,,masks/mask_005.jpg,,,,,,,,,,,,,,,,,,,,,,,,,,,,,,,,,,,,,,,,,,,0,1,1,4,1,,,,,,,,,,,,,,,,,,,,,,,,,,,,,,,,,,,,,,,,,,,,,,
256376,001,2022-11-14_24h27.08.632,Info_measure_main_exp,2022.2.2,Win32,60.0132029,,,,,,,,,,,,,,,,,,masks/mask_004.jpg,,,,,,,,,,,,,,,,,,,,,,,,,,,,,,,,,,,,,,,,,,,0,2,2,3,1,,,,,,,,,,,,,,,,,,,,,,,,,,,,,,,,,,,,,,,,,,,,,,
256376,001,2022-11-14_24h27.08.632,Info_measure_main_exp,2022.2.2,Win32,60.0132029,,,,,,,,,,,,,,,,,,masks/mask_003.jpg,,,,,,,,,,,,,,,,,,,,,,,,,,,,,,,,,,,,,,,,,,,0,3,3,2,1,,,,,,,,,,,,,,,,,,,,,,,,,,,,,,,,,,,,,,,,,,,,,,
256376,001,2022-11-14_24h27.08.632,Info_measure_main_exp,2022.2.2,Win32,60.0132029,,,,,,,,,,,,,,,,,,masks/mask_002.jpg,,,,,,,,,,,,,,,,,,,,,,,,,,,,,,,,,,,,,,,,,,,0,4,4,1,1,,,,,,,,,,,,,,,,,,,,,,,,,,,,,,,,,,,,,,,,,,,,,,
256376,001,2022-11-14_24h27.08.632,Info_measure_main_exp,2022.2.2,Win32,60.0132029,,,,,,,,,,,,,,,,,,masks/mask_003.jpg,,,,,,,,,,,,,,,,,,,,,,,,,,,,,,,,,,,,,,,,,,,,,,,,0,0,0,2,1,,,,,,,,,,,,,,,,,,,,,,,,,,,,,,,,,,,,,,,,,
256376,001,2022-11-14_24h27.08.632,Info_measure_main_exp,2022.2.2,Win32,60.0132029,,,,,,,,,,,,,,,,,,masks/mask_001.jpg,,,,,,,,,,,,,,,,,,,,,,,,,,,,,,,,,,,,,,,,,,,,,,,,0,1,1,0,1,,,,,,,,,,,,,,,,,,,,,,,,,,,,,,,,,,,,,,,,,
256376,001,2022-11-14_24h27.08.632,Info_measure_main_exp,2022.2.2,Win32,60.0132029,,,,,,,,,,,,,,,,,,masks/mask_002.jpg,,,,,,,,,,,,,,,,,,,,,,,,,,,,,,,,,,,,,,,,,,,,,,,,0,2,2,1,1,,,,,,,,,,,,,,,,,,,,,,,,,,,,,,,,,,,,,,,,,
256376,001,2022-11-14_24h27.08.632,Info_measure_main_exp,2022.2.2,Win32,60.0132029,,,,,,,,,,,,,,,,,,masks/mask_005.jpg,,,,,,,,,,,,,,,,,,,,,,,,,,,,,,,,,,,,,,,,,,,,,,,,0,3,3,4,1,,,,,,,,,,,,,,,,,,,,,,,,,,,,,,,,,,,,,,,,,
256376,001,2022-11-14_24h27.08.632,Info_measure_main_exp,2022.2.2,Win32,60.0132029,,,,,,,,,,,,,,,,,,masks/mask_004.jpg,,,,,,,,,,,,,,,,,,,,,,,,,,,,,,,,,,,,,,,,,,,,,,,,0,4,4,3,1,,,,,,,,,,,,,,,,,,,,,,,,,,,,,,,,,,,,,,,,,
256376,001,2022-11-14_24h27.08.632,Info_measure_main_exp,2022.2.2,Win32,60.0132029,,,,,,,,,,,,,,,,,,,,,,,,,,,,,,3,2.7003,1,,,,,,,,,,,,0,131,5,5,1986,2238,absent_patch/patch0001986.jpg,absent_patch/patch0002238.jpg,,,,,,,,,,,,,,,,,,,,-0.059895833,-0.147135417,1,0,0,response5disk,6,0.001302083,-0.001302083,1,0,0,center_square,0,5,5,31,1,,,,,,,,,,,,,,,,,,,,,,,
256376,001,2022-11-14_24h27.08.632,Info_measure_main_exp,2022.2.2,Win32,60.0132029,,,,,,,,,,,,,,,,,,masks/mask_003.jpg,,,,,,,,,,,,,,,,,,,,,,,,,,,,,,,,,,,,,,,,,,,0,0,0,2,1,,,,,,,,,,,,,,,,,,,,,,,,,,,,,,,,,,,,,,,,,,,,,,
256376,001,2022-11-14_24h27.08.632,Info_measure_main_exp,2022.2.2,Win32,60.0132029,,,,,,,,,,,,,,,,,,masks/mask_001.jpg,,,,,,,,,,,,,,,,,,,,,,,,,,,,,,,,,,,,,,,,,,,0,1,1,0,1,,,,,,,,,,,,,,,,,,,,,,,,,,,,,,,,,,,,,,,,,,,,,,
256376,001,2022-11-14_24h27.08.632,Info_measure_main_exp,2022.2.2,Win32,60.0132029,,,,,,,,,,,,,,,,,,masks/mask_002.jpg,,,,,,,,,,,,,,,,,,,,,,,,,,,,,,,,,,,,,,,,,,,0,2,2,1,1,,,,,,,,,,,,,,,,,,,,,,,,,,,,,,,,,,,,,,,,,,,,,,
256376,001,2022-11-14_24h27.08.632,Info_measure_main_exp,2022.2.2,Win32,60.0132029,,,,,,,,,,,,,,,,,,masks/mask_004.jpg,,,,,,,,,,,,,,,,,,,,,,,,,,,,,,,,,,,,,,,,,,,0,3,3,3,1,,,,,,,,,,,,,,,,,,,,,,,,,,,,,,,,,,,,,,,,,,,,,,
256376,001,2022-11-14_24h27.08.632,Info_measure_main_exp,2022.2.2,Win32,60.0132029,,,,,,,,,,,,,,,,,,masks/mask_005.jpg,,,,,,,,,,,,,,,,,,,,,,,,,,,,,,,,,,,,,,,,,,,0,4,4,4,1,,,,,,,,,,,,,,,,,,,,,,,,,,,,,,,,,,,,,,,,,,,,,,
256376,001,2022-11-14_24h27.08.632,Info_measure_main_exp,2022.2.2,Win32,60.0132029,,,,,,,,,,,,,,,,,,masks/mask_002.jpg,,,,,,,,,,,,,,,,,,,,,,,,,,,,,,,,,,,,,,,,,,,,,,,,0,0,0,1,1,,,,,,,,,,,,,,,,,,,,,,,,,,,,,,,,,,,,,,,,,
256376,001,2022-11-14_24h27.08.632,Info_measure_main_exp,2022.2.2,Win32,60.0132029,,,,,,,,,,,,,,,,,,masks/mask_005.jpg,,,,,,,,,,,,,,,,,,,,,,,,,,,,,,,,,,,,,,,,,,,,,,,,0,1,1,4,1,,,,,,,,,,,,,,,,,,,,,,,,,,,,,,,,,,,,,,,,,
256376,001,2022-11-14_24h27.08.632,Info_measure_main_exp,2022.2.2,Win32,60.0132029,,,,,,,,,,,,,,,,,,masks/mask_004.jpg,,,,,,,,,,,,,,,,,,,,,,,,,,,,,,,,,,,,,,,,,,,,,,,,0,2,2,3,1,,,,,,,,,,,,,,,,,,,,,,,,,,,,,,,,,,,,,,,,,
256376,001,2022-11-14_24h27.08.632,Info_measure_main_exp,2022.2.2,Win32,60.0132029,,,,,,,,,,,,,,,,,,masks/mask_003.jpg,,,,,,,,,,,,,,,,,,,,,,,,,,,,,,,,,,,,,,,,,,,,,,,,0,3,3,2,1,,,,,,,,,,,,,,,,,,,,,,,,,,,,,,,,,,,,,,,,,
256376,001,2022-11-14_24h27.08.632,Info_measure_main_exp,2022.2.2,Win32,60.0132029,,,,,,,,,,,,,,,,,,masks/mask_001.jpg,,,,,,,,,,,,,,,,,,,,,,,,,,,,,,,,,,,,,,,,,,,,,,,,0,4,4,0,1,,,,,,,,,,,,,,,,,,,,,,,,,,,,,,,,,,,,,,,,,
256376,001,2022-11-14_24h27.08.632,Info_measure_main_exp,2022.2.2,Win32,60.0132029,,,,,,,,,,,,,,,,,,,,,,,,,,,,,,7,1.7337,1,,,,,,,,,,,,0,131,5,5,1986,1974,absent_patch/patch0001986.jpg,absent_patch/patch0001974.jpg,,,,,,,,,,,,,,,,,,,,0.084635417,0.118489583,1,0,0,response1disk,7,0.001302083,-0.002604167,1,0,0,center_square,0,6,6,25,1,,,,,,,,,,,,,,,,,,,,,,,
256376,001,2022-11-14_24h27.08.632,Info_measure_main_exp,2022.2.2,Win32,60.0132029,,,,,,,,,,,,,,,,,,masks/mask_003.jpg,,,,,,,,,,,,,,,,,,,,,,,,,,,,,,,,,,,,,,,,,,,0,0,0,2,1,,,,,,,,,,,,,,,,,,,,,,,,,,,,,,,,,,,,,,,,,,,,,,
256376,001,2022-11-14_24h27.08.632,Info_measure_main_exp,2022.2.2,Win32,60.0132029,,,,,,,,,,,,,,,,,,masks/mask_001.jpg,,,,,,,,,,,,,,,,,,,,,,,,,,,,,,,,,,,,,,,,,,,0,1,1,0,1,,,,,,,,,,,,,,,,,,,,,,,,,,,,,,,,,,,,,,,,,,,,,,
256376,001,2022-11-14_24h27.08.632,Info_measure_main_exp,2022.2.2,Win32,60.0132029,,,,,,,,,,,,,,,,,,masks/mask_002.jpg,,,,,,,,,,,,,,,,,,,,,,,,,,,,,,,,,,,,,,,,,,,0,2,2,1,1,,,,,,,,,,,,,,,,,,,,,,,,,,,,,,,,,,,,,,,,,,,,,,
256376,001,2022-11-14_24h27.08.632,Info_measure_main_exp,2022.2.2,Win32,60.0132029,,,,,,,,,,,,,,,,,,masks/mask_004.jpg,,,,,,,,,,,,,,,,,,,,,,,,,,,,,,,,,,,,,,,,,,,0,3,3,3,1,,,,,,,,,,,,,,,,,,,,,,,,,,,,,,,,,,,,,,,,,,,,,,
256376,001,2022-11-14_24h27.08.632,Info_measure_main_exp,2022.2.2,Win32,60.0132029,,,,,,,,,,,,,,,,,,masks/mask_005.jpg,,,,,,,,,,,,,,,,,,,,,,,,,,,,,,,,,,,,,,,,,,,0,4,4,4,1,,,,,,,,,,,,,,,,,,,,,,,,,,,,,,,,,,,,,,,,,,,,,,
256376,001,2022-11-14_24h27.08.632,Info_measure_main_exp,2022.2.2,Win32,60.0132029,,,,,,,,,,,,,,,,,,masks/mask_002.jpg,,,,,,,,,,,,,,,,,,,,,,,,,,,,,,,,,,,,,,,,,,,,,,,,0,0,0,1,1,,,,,,,,,,,,,,,,,,,,,,,,,,,,,,,,,,,,,,,,,
256376,001,2022-11-14_24h27.08.632,Info_measure_main_exp,2022.2.2,Win32,60.0132029,,,,,,,,,,,,,,,,,,masks/mask_004.jpg,,,,,,,,,,,,,,,,,,,,,,,,,,,,,,,,,,,,,,,,,,,,,,,,0,1,1,3,1,,,,,,,,,,,,,,,,,,,,,,,,,,,,,,,,,,,,,,,,,
256376,001,2022-11-14_24h27.08.632,Info_measure_main_exp,2022.2.2,Win32,60.0132029,,,,,,,,,,,,,,,,,,masks/mask_005.jpg,,,,,,,,,,,,,,,,,,,,,,,,,,,,,,,,,,,,,,,,,,,,,,,,0,2,2,4,1,,,,,,,,,,,,,,,,,,,,,,,,,,,,,,,,,,,,,,,,,
256376,001,2022-11-14_24h27.08.632,Info_measure_main_exp,2022.2.2,Win32,60.0132029,,,,,,,,,,,,,,,,,,masks/mask_003.jpg,,,,,,,,,,,,,,,,,,,,,,,,,,,,,,,,,,,,,,,,,,,,,,,,0,3,3,2,1,,,,,,,,,,,,,,,,,,,,,,,,,,,,,,,,,,,,,,,,,
256376,001,2022-11-14_24h27.08.632,Info_measure_main_exp,2022.2.2,Win32,60.0132029,,,,,,,,,,,,,,,,,,masks/mask_001.jpg,,,,,,,,,,,,,,,,,,,,,,,,,,,,,,,,,,,,,,,,,,,,,,,,0,4,4,0,1,,,,,,,,,,,,,,,,,,,,,,,,,,,,,,,,,,,,,,,,,
256376,001,2022-11-14_24h27.08.632,Info_measure_main_exp,2022.2.2,Win32,60.0132029,,,,,,,,,,,,,,,,,,,,,,,,,,,,,,5,1.7005,1,,,,,,,,,,,,0,131,5,5,2178,2142,absent_patch/patch0002178.jpg,absent_patch/patch0002142.jpg,,,,,,,,,,,,,,,,,,,,0.118489583,-0.052083333,1,0,0,response3disk,8,0.005208333,0.005208333,1,0,0,center_square,0,7,7,41,1,,,,,,,,,,,,,,,,,,,,,,,
256376,001,2022-11-14_24h27.08.632,Info_measure_main_exp,2022.2.2,Win32,60.0132029,,,,,,,,,,,,,,,,,,masks/mask_004.jpg,,,,,,,,,,,,,,,,,,,,,,,,,,,,,,,,,,,,,,,,,,,0,0,0,3,1,,,,,,,,,,,,,,,,,,,,,,,,,,,,,,,,,,,,,,,,,,,,,,
256376,001,2022-11-14_24h27.08.632,Info_measure_main_exp,2022.2.2,Win32,60.0132029,,,,,,,,,,,,,,,,,,masks/mask_002.jpg,,,,,,,,,,,,,,,,,,,,,,,,,,,,,,,,,,,,,,,,,,,0,1,1,1,1,,,,,,,,,,,,,,,,,,,,,,,,,,,,,,,,,,,,,,,,,,,,,,
256376,001,2022-11-14_24h27.08.632,Info_measure_main_exp,2022.2.2,Win32,60.0132029,,,,,,,,,,,,,,,,,,masks/mask_001.jpg,,,,,,,,,,,,,,,,,,,,,,,,,,,,,,,,,,,,,,,,,,,0,2,2,0,1,,,,,,,,,,,,,,,,,,,,,,,,,,,,,,,,,,,,,,,,,,,,,,
256376,001,2022-11-14_24h27.08.632,Info_measure_main_exp,2022.2.2,Win32,60.0132029,,,,,,,,,,,,,,,,,,masks/mask_003.jpg,,,,,,,,,,,,,,,,,,,,,,,,,,,,,,,,,,,,,,,,,,,0,3,3,2,1,,,,,,,,,,,,,,,,,,,,,,,,,,,,,,,,,,,,,,,,,,,,,,
256376,001,2022-11-14_24h27.08.632,Info_measure_main_exp,2022.2.2,Win32,60.0132029,,,,,,,,,,,,,,,,,,masks/mask_005.jpg,,,,,,,,,,,,,,,,,,,,,,,,,,,,,,,,,,,,,,,,,,,0,4,4,4,1,,,,,,,,,,,,,,,,,,,,,,,,,,,,,,,,,,,,,,,,,,,,,,
256376,001,2022-11-14_24h27.08.632,Info_measure_main_exp,2022.2.2,Win32,60.0132029,,,,,,,,,,,,,,,,,,masks/mask_005.jpg,,,,,,,,,,,,,,,,,,,,,,,,,,,,,,,,,,,,,,,,,,,,,,,,0,0,0,4,1,,,,,,,,,,,,,,,,,,,,,,,,,,,,,,,,,,,,,,,,,
256376,001,2022-11-14_24h27.08.632,Info_measure_main_exp,2022.2.2,Win32,60.0132029,,,,,,,,,,,,,,,,,,masks/mask_002.jpg,,,,,,,,,,,,,,,,,,,,,,,,,,,,,,,,,,,,,,,,,,,,,,,,0,1,1,1,1,,,,,,,,,,,,,,,,,,,,,,,,,,,,,,,,,,,,,,,,,
256376,001,2022-11-14_24h27.08.632,Info_measure_main_exp,2022.2.2,Win32,60.0132029,,,,,,,,,,,,,,,,,,masks/mask_003.jpg,,,,,,,,,,,,,,,,,,,,,,,,,,,,,,,,,,,,,,,,,,,,,,,,0,2,2,2,1,,,,,,,,,,,,,,,,,,,,,,,,,,,,,,,,,,,,,,,,,
256376,001,2022-11-14_24h27.08.632,Info_measure_main_exp,2022.2.2,Win32,60.0132029,,,,,,,,,,,,,,,,,,masks/mask_004.jpg,,,,,,,,,,,,,,,,,,,,,,,,,,,,,,,,,,,,,,,,,,,,,,,,0,3,3,3,1,,,,,,,,,,,,,,,,,,,,,,,,,,,,,,,,,,,,,,,,,
256376,001,2022-11-14_24h27.08.632,Info_measure_main_exp,2022.2.2,Win32,60.0132029,,,,,,,,,,,,,,,,,,masks/mask_001.jpg,,,,,,,,,,,,,,,,,,,,,,,,,,,,,,,,,,,,,,,,,,,,,,,,0,4,4,0,1,,,,,,,,,,,,,,,,,,,,,,,,,,,,,,,,,,,,,,,,,
256376,001,2022-11-14_24h27.08.632,Info_measure_main_exp,2022.2.2,Win32,60.0132029,,,,,,,,,,,,,,,,,,,,,,,,,,,,,,0,1.0175,1,,,,,,,,,,,,0,131,5,5,2142,2142,absent_patch/patch0002142.jpg,absent_patch/patch0002142.jpg,,,,,,,,,,,,,,,,,,,,-0.0546875,0.10546875,1,0,0,response7disk,9,0.006510417,-0.00390625,1,0,0,center_square,0,8,8,13,1,,,,,,,,,,,,,,,,,,,,,,,
256376,001,2022-11-14_24h27.08.632,Info_measure_main_exp,2022.2.2,Win32,60.0132029,,,,,,,,,,,,,,,,,,masks/mask_001.jpg,,,,,,,,,,,,,,,,,,,,,,,,,,,,,,,,,,,,,,,,,,,0,0,0,0,1,,,,,,,,,,,,,,,,,,,,,,,,,,,,,,,,,,,,,,,,,,,,,,
256376,001,2022-11-14_24h27.08.632,Info_measure_main_exp,2022.2.2,Win32,60.0132029,,,,,,,,,,,,,,,,,,masks/mask_005.jpg,,,,,,,,,,,,,,,,,,,,,,,,,,,,,,,,,,,,,,,,,,,0,1,1,4,1,,,,,,,,,,,,,,,,,,,,,,,,,,,,,,,,,,,,,,,,,,,,,,
256376,001,2022-11-14_24h27.08.632,Info_measure_main_exp,2022.2.2,Win32,60.0132029,,,,,,,,,,,,,,,,,,masks/mask_004.jpg,,,,,,,,,,,,,,,,,,,,,,,,,,,,,,,,,,,,,,,,,,,0,2,2,3,1,,,,,,,,,,,,,,,,,,,,,,,,,,,,,,,,,,,,,,,,,,,,,,
256376,001,2022-11-14_24h27.08.632,Info_measure_main_exp,2022.2.2,Win32,60.0132029,,,,,,,,,,,,,,,,,,masks/mask_003.jpg,,,,,,,,,,,,,,,,,,,,,,,,,,,,,,,,,,,,,,,,,,,0,3,3,2,1,,,,,,,,,,,,,,,,,,,,,,,,,,,,,,,,,,,,,,,,,,,,,,
256376,001,2022-11-14_24h27.08.632,Info_measure_main_exp,2022.2.2,Win32,60.0132029,,,,,,,,,,,,,,,,,,masks/mask_002.jpg,,,,,,,,,,,,,,,,,,,,,,,,,,,,,,,,,,,,,,,,,,,0,4,4,1,1,,,,,,,,,,,,,,,,,,,,,,,,,,,,,,,,,,,,,,,,,,,,,,
256376,001,2022-11-14_24h27.08.632,Info_measure_main_exp,2022.2.2,Win32,60.0132029,,,,,,,,,,,,,,,,,,masks/mask_004.jpg,,,,,,,,,,,,,,,,,,,,,,,,,,,,,,,,,,,,,,,,,,,,,,,,0,0,0,3,1,,,,,,,,,,,,,,,,,,,,,,,,,,,,,,,,,,,,,,,,,
256376,001,2022-11-14_24h27.08.632,Info_measure_main_exp,2022.2.2,Win32,60.0132029,,,,,,,,,,,,,,,,,,masks/mask_003.jpg,,,,,,,,,,,,,,,,,,,,,,,,,,,,,,,,,,,,,,,,,,,,,,,,0,1,1,2,1,,,,,,,,,,,,,,,,,,,,,,,,,,,,,,,,,,,,,,,,,
256376,001,2022-11-14_24h27.08.632,Info_measure_main_exp,2022.2.2,Win32,60.0132029,,,,,,,,,,,,,,,,,,masks/mask_001.jpg,,,,,,,,,,,,,,,,,,,,,,,,,,,,,,,,,,,,,,,,,,,,,,,,0,2,2,0,1,,,,,,,,,,,,,,,,,,,,,,,,,,,,,,,,,,,,,,,,,
256376,001,2022-11-14_24h27.08.632,Info_measure_main_exp,2022.2.2,Win32,60.0132029,,,,,,,,,,,,,,,,,,masks/mask_005.jpg,,,,,,,,,,,,,,,,,,,,,,,,,,,,,,,,,,,,,,,,,,,,,,,,0,3,3,4,1,,,,,,,,,,,,,,,,,,,,,,,,,,,,,,,,,,,,,,,,,
256376,001,2022-11-14_24h27.08.632,Info_measure_main_exp,2022.2.2,Win32,60.0132029,,,,,,,,,,,,,,,,,,masks/mask_002.jpg,,,,,,,,,,,,,,,,,,,,,,,,,,,,,,,,,,,,,,,,,,,,,,,,0,4,4,1,1,,,,,,,,,,,,,,,,,,,,,,,,,,,,,,,,,,,,,,,,,
256376,001,2022-11-14_24h27.08.632,Info_measure_main_exp,2022.2.2,Win32,60.0132029,,,,,,,,,,,,,,,,,,,,,,,,,,,,,,4,1.8172,1,,,,,,,,,,,,0,131,5,5,1950,2082,absent_patch/patch0001950.jpg,absent_patch/patch0002082.jpg,,,,,,,,,,,,,,,,,,,,0.052083333,-0.102864583,1,0,0,response3disk,10,-0.001302083,0.0078125,1,0,0,center_square,0,9,9,12,1,,,,,,,,,,,,,,,,,,,,,,,
256376,001,2022-11-14_24h27.08.632,Info_measure_main_exp,2022.2.2,Win32,60.0132029,,,,,,,,,,,,,,,,,,masks/mask_002.jpg,,,,,,,,,,,,,,,,,,,,,,,,,,,,,,,,,,,,,,,,,,,0,0,0,1,1,,,,,,,,,,,,,,,,,,,,,,,,,,,,,,,,,,,,,,,,,,,,,,
256376,001,2022-11-14_24h27.08.632,Info_measure_main_exp,2022.2.2,Win32,60.0132029,,,,,,,,,,,,,,,,,,masks/mask_005.jpg,,,,,,,,,,,,,,,,,,,,,,,,,,,,,,,,,,,,,,,,,,,0,1,1,4,1,,,,,,,,,,,,,,,,,,,,,,,,,,,,,,,,,,,,,,,,,,,,,,
256376,001,2022-11-14_24h27.08.632,Info_measure_main_exp,2022.2.2,Win32,60.0132029,,,,,,,,,,,,,,,,,,masks/mask_001.jpg,,,,,,,,,,,,,,,,,,,,,,,,,,,,,,,,,,,,,,,,,,,0,2,2,0,1,,,,,,,,,,,,,,,,,,,,,,,,,,,,,,,,,,,,,,,,,,,,,,
256376,001,2022-11-14_24h27.08.632,Info_measure_main_exp,2022.2.2,Win32,60.0132029,,,,,,,,,,,,,,,,,,masks/mask_003.jpg,,,,,,,,,,,,,,,,,,,,,,,,,,,,,,,,,,,,,,,,,,,0,3,3,2,1,,,,,,,,,,,,,,,,,,,,,,,,,,,,,,,,,,,,,,,,,,,,,,
256376,001,2022-11-14_24h27.08.632,Info_measure_main_exp,2022.2.2,Win32,60.0132029,,,,,,,,,,,,,,,,,,masks/mask_004.jpg,,,,,,,,,,,,,,,,,,,,,,,,,,,,,,,,,,,,,,,,,,,0,4,4,3,1,,,,,,,,,,,,,,,,,,,,,,,,,,,,,,,,,,,,,,,,,,,,,,
256376,001,2022-11-14_24h27.08.632,Info_measure_main_exp,2022.2.2,Win32,60.0132029,,,,,,,,,,,,,,,,,,masks/mask_004.jpg,,,,,,,,,,,,,,,,,,,,,,,,,,,,,,,,,,,,,,,,,,,,,,,,0,0,0,3,1,,,,,,,,,,,,,,,,,,,,,,,,,,,,,,,,,,,,,,,,,
256376,001,2022-11-14_24h27.08.632,Info_measure_main_exp,2022.2.2,Win32,60.0132029,,,,,,,,,,,,,,,,,,masks/mask_001.jpg,,,,,,,,,,,,,,,,,,,,,,,,,,,,,,,,,,,,,,,,,,,,,,,,0,1,1,0,1,,,,,,,,,,,,,,,,,,,,,,,,,,,,,,,,,,,,,,,,,
256376,001,2022-11-14_24h27.08.632,Info_measure_main_exp,2022.2.2,Win32,60.0132029,,,,,,,,,,,,,,,,,,masks/mask_003.jpg,,,,,,,,,,,,,,,,,,,,,,,,,,,,,,,,,,,,,,,,,,,,,,,,0,2,2,2,1,,,,,,,,,,,,,,,,,,,,,,,,,,,,,,,,,,,,,,,,,
256376,001,2022-11-14_24h27.08.632,Info_measure_main_exp,2022.2.2,Win32,60.0132029,,,,,,,,,,,,,,,,,,masks/mask_002.jpg,,,,,,,,,,,,,,,,,,,,,,,,,,,,,,,,,,,,,,,,,,,,,,,,0,3,3,1,1,,,,,,,,,,,,,,,,,,,,,,,,,,,,,,,,,,,,,,,,,
256376,001,2022-11-14_24h27.08.632,Info_measure_main_exp,2022.2.2,Win32,60.0132029,,,,,,,,,,,,,,,,,,masks/mask_005.jpg,,,,,,,,,,,,,,,,,,,,,,,,,,,,,,,,,,,,,,,,,,,,,,,,0,4,4,4,1,,,,,,,,,,,,,,,,,,,,,,,,,,,,,,,,,,,,,,,,,
256376,001,2022-11-14_24h27.08.632,Info_measure_main_exp,2022.2.2,Win32,60.0132029,,,,,,,,,,,,,,,,,,,,,,,,,,,,,,4,2.0167,1,,,,,,,,,,,,0,131,5,5,1974,2298,absent_patch/patch0001974.jpg,absent_patch/patch0002298.jpg,,,,,,,,,,,,,,,,,,,,0.04296875,-0.088541667,1,0,0,response3disk,11,0.002604167,0.005208333,1,0,0,center_square,0,10,10,6,1,,,,,,,,,,,,,,,,,,,,,,,
256376,001,2022-11-14_24h27.08.632,Info_measure_main_exp,2022.2.2,Win32,60.0132029,,,,,,,,,,,,,,,,,,masks/mask_003.jpg,,,,,,,,,,,,,,,,,,,,,,,,,,,,,,,,,,,,,,,,,,,0,0,0,2,1,,,,,,,,,,,,,,,,,,,,,,,,,,,,,,,,,,,,,,,,,,,,,,
256376,001,2022-11-14_24h27.08.632,Info_measure_main_exp,2022.2.2,Win32,60.0132029,,,,,,,,,,,,,,,,,,masks/mask_005.jpg,,,,,,,,,,,,,,,,,,,,,,,,,,,,,,,,,,,,,,,,,,,0,1,1,4,1,,,,,,,,,,,,,,,,,,,,,,,,,,,,,,,,,,,,,,,,,,,,,,
256376,001,2022-11-14_24h27.08.632,Info_measure_main_exp,2022.2.2,Win32,60.0132029,,,,,,,,,,,,,,,,,,masks/mask_004.jpg,,,,,,,,,,,,,,,,,,,,,,,,,,,,,,,,,,,,,,,,,,,0,2,2,3,1,,,,,,,,,,,,,,,,,,,,,,,,,,,,,,,,,,,,,,,,,,,,,,
256376,001,2022-11-14_24h27.08.632,Info_measure_main_exp,2022.2.2,Win32,60.0132029,,,,,,,,,,,,,,,,,,masks/mask_001.jpg,,,,,,,,,,,,,,,,,,,,,,,,,,,,,,,,,,,,,,,,,,,0,3,3,0,1,,,,,,,,,,,,,,,,,,,,,,,,,,,,,,,,,,,,,,,,,,,,,,
256376,001,2022-11-14_24h27.08.632,Info_measure_main_exp,2022.2.2,Win32,60.0132029,,,,,,,,,,,,,,,,,,masks/mask_002.jpg,,,,,,,,,,,,,,,,,,,,,,,,,,,,,,,,,,,,,,,,,,,0,4,4,1,1,,,,,,,,,,,,,,,,,,,,,,,,,,,,,,,,,,,,,,,,,,,,,,
256376,001,2022-11-14_24h27.08.632,Info_measure_main_exp,2022.2.2,Win32,60.0132029,,,,,,,,,,,,,,,,,,masks/mask_004.jpg,,,,,,,,,,,,,,,,,,,,,,,,,,,,,,,,,,,,,,,,,,,,,,,,0,0,0,3,1,,,,,,,,,,,,,,,,,,,,,,,,,,,,,,,,,,,,,,,,,
256376,001,2022-11-14_24h27.08.632,Info_measure_main_exp,2022.2.2,Win32,60.0132029,,,,,,,,,,,,,,,,,,masks/mask_005.jpg,,,,,,,,,,,,,,,,,,,,,,,,,,,,,,,,,,,,,,,,,,,,,,,,0,1,1,4,1,,,,,,,,,,,,,,,,,,,,,,,,,,,,,,,,,,,,,,,,,
256376,001,2022-11-14_24h27.08.632,Info_measure_main_exp,2022.2.2,Win32,60.0132029,,,,,,,,,,,,,,,,,,masks/mask_002.jpg,,,,,,,,,,,,,,,,,,,,,,,,,,,,,,,,,,,,,,,,,,,,,,,,0,2,2,1,1,,,,,,,,,,,,,,,,,,,,,,,,,,,,,,,,,,,,,,,,,
256376,001,2022-11-14_24h27.08.632,Info_measure_main_exp,2022.2.2,Win32,60.0132029,,,,,,,,,,,,,,,,,,masks/mask_001.jpg,,,,,,,,,,,,,,,,,,,,,,,,,,,,,,,,,,,,,,,,,,,,,,,,0,3,3,0,1,,,,,,,,,,,,,,,,,,,,,,,,,,,,,,,,,,,,,,,,,
256376,001,2022-11-14_24h27.08.632,Info_measure_main_exp,2022.2.2,Win32,60.0132029,,,,,,,,,,,,,,,,,,masks/mask_003.jpg,,,,,,,,,,,,,,,,,,,,,,,,,,,,,,,,,,,,,,,,,,,,,,,,0,4,4,2,1,,,,,,,,,,,,,,,,,,,,,,,,,,,,,,,,,,,,,,,,,
256376,001,2022-11-14_24h27.08.632,Info_measure_main_exp,2022.2.2,Win32,60.0132029,,,,,,,,,,,,,,,,,,,,,,,,,,,,,,3,2.4499,1,,,,,,,,,,,,0,131,5,5,2142,2166,absent_patch/patch0002142.jpg,absent_patch/patch0002166.jpg,,,,,,,,,,,,,,,,,,,,-0.063802083,-0.125,1,0,0,response5disk,12,0.002604167,0.002604167,1,0,0,center_square,0,11,11,66,1,,,,,,,,,,,,,,,,,,,,,,,
256376,001,2022-11-14_24h27.08.632,Info_measure_main_exp,2022.2.2,Win32,60.0132029,,,,,,,,,,,,,,,,,,masks/mask_005.jpg,,,,,,,,,,,,,,,,,,,,,,,,,,,,,,,,,,,,,,,,,,,0,0,0,4,1,,,,,,,,,,,,,,,,,,,,,,,,,,,,,,,,,,,,,,,,,,,,,,
256376,001,2022-11-14_24h27.08.632,Info_measure_main_exp,2022.2.2,Win32,60.0132029,,,,,,,,,,,,,,,,,,masks/mask_001.jpg,,,,,,,,,,,,,,,,,,,,,,,,,,,,,,,,,,,,,,,,,,,0,1,1,0,1,,,,,,,,,,,,,,,,,,,,,,,,,,,,,,,,,,,,,,,,,,,,,,
256376,001,2022-11-14_24h27.08.632,Info_measure_main_exp,2022.2.2,Win32,60.0132029,,,,,,,,,,,,,,,,,,masks/mask_002.jpg,,,,,,,,,,,,,,,,,,,,,,,,,,,,,,,,,,,,,,,,,,,0,2,2,1,1,,,,,,,,,,,,,,,,,,,,,,,,,,,,,,,,,,,,,,,,,,,,,,
256376,001,2022-11-14_24h27.08.632,Info_measure_main_exp,2022.2.2,Win32,60.0132029,,,,,,,,,,,,,,,,,,masks/mask_004.jpg,,,,,,,,,,,,,,,,,,,,,,,,,,,,,,,,,,,,,,,,,,,0,3,3,3,1,,,,,,,,,,,,,,,,,,,,,,,,,,,,,,,,,,,,,,,,,,,,,,
256376,001,2022-11-14_24h27.08.632,Info_measure_main_exp,2022.2.2,Win32,60.0132029,,,,,,,,,,,,,,,,,,masks/mask_003.jpg,,,,,,,,,,,,,,,,,,,,,,,,,,,,,,,,,,,,,,,,,,,0,4,4,2,1,,,,,,,,,,,,,,,,,,,,,,,,,,,,,,,,,,,,,,,,,,,,,,
256376,001,2022-11-14_24h27.08.632,Info_measure_main_exp,2022.2.2,Win32,60.0132029,,,,,,,,,,,,,,,,,,masks/mask_001.jpg,,,,,,,,,,,,,,,,,,,,,,,,,,,,,,,,,,,,,,,,,,,,,,,,0,0,0,0,1,,,,,,,,,,,,,,,,,,,,,,,,,,,,,,,,,,,,,,,,,
256376,001,2022-11-14_24h27.08.632,Info_measure_main_exp,2022.2.2,Win32,60.0132029,,,,,,,,,,,,,,,,,,masks/mask_005.jpg,,,,,,,,,,,,,,,,,,,,,,,,,,,,,,,,,,,,,,,,,,,,,,,,0,1,1,4,1,,,,,,,,,,,,,,,,,,,,,,,,,,,,,,,,,,,,,,,,,
256376,001,2022-11-14_24h27.08.632,Info_measure_main_exp,2022.2.2,Win32,60.0132029,,,,,,,,,,,,,,,,,,masks/mask_003.jpg,,,,,,,,,,,,,,,,,,,,,,,,,,,,,,,,,,,,,,,,,,,,,,,,0,2,2,2,1,,,,,,,,,,,,,,,,,,,,,,,,,,,,,,,,,,,,,,,,,
256376,001,2022-11-14_24h27.08.632,Info_measure_main_exp,2022.2.2,Win32,60.0132029,,,,,,,,,,,,,,,,,,masks/mask_002.jpg,,,,,,,,,,,,,,,,,,,,,,,,,,,,,,,,,,,,,,,,,,,,,,,,0,3,3,1,1,,,,,,,,,,,,,,,,,,,,,,,,,,,,,,,,,,,,,,,,,
256376,001,2022-11-14_24h27.08.632,Info_measure_main_exp,2022.2.2,Win32,60.0132029,,,,,,,,,,,,,,,,,,masks/mask_004.jpg,,,,,,,,,,,,,,,,,,,,,,,,,,,,,,,,,,,,,,,,,,,,,,,,0,4,4,3,1,,,,,,,,,,,,,,,,,,,,,,,,,,,,,,,,,,,,,,,,,
256376,001,2022-11-14_24h27.08.632,Info_measure_main_exp,2022.2.2,Win32,60.0132029,,,,,,,,,,,,,,,,,,,,,,,,,,,,,,0,0.8836,1,,,,,,,,,,,,0,131,5,5,2298,2298,absent_patch/patch0002298.jpg,absent_patch/patch0002298.jpg,,,,,,,,,,,,,,,,,,,,-0.041666667,0.114583333,1,0,0,response7disk,13,-0.006510417,-0.002604167,1,0,0,center_square,0,12,12,37,1,,,,,,,,,,,,,,,,,,,,,,,
256376,001,2022-11-14_24h27.08.632,Info_measure_main_exp,2022.2.2,Win32,60.0132029,,,,,,,,,,,,,,,,,,masks/mask_005.jpg,,,,,,,,,,,,,,,,,,,,,,,,,,,,,,,,,,,,,,,,,,,0,0,0,4,1,,,,,,,,,,,,,,,,,,,,,,,,,,,,,,,,,,,,,,,,,,,,,,
256376,001,2022-11-14_24h27.08.632,Info_measure_main_exp,2022.2.2,Win32,60.0132029,,,,,,,,,,,,,,,,,,masks/mask_003.jpg,,,,,,,,,,,,,,,,,,,,,,,,,,,,,,,,,,,,,,,,,,,0,1,1,2,1,,,,,,,,,,,,,,,,,,,,,,,,,,,,,,,,,,,,,,,,,,,,,,
256376,001,2022-11-14_24h27.08.632,Info_measure_main_exp,2022.2.2,Win32,60.0132029,,,,,,,,,,,,,,,,,,masks/mask_001.jpg,,,,,,,,,,,,,,,,,,,,,,,,,,,,,,,,,,,,,,,,,,,0,2,2,0,1,,,,,,,,,,,,,,,,,,,,,,,,,,,,,,,,,,,,,,,,,,,,,,
256376,001,2022-11-14_24h27.08.632,Info_measure_main_exp,2022.2.2,Win32,60.0132029,,,,,,,,,,,,,,,,,,masks/mask_004.jpg,,,,,,,,,,,,,,,,,,,,,,,,,,,,,,,,,,,,,,,,,,,0,3,3,3,1,,,,,,,,,,,,,,,,,,,,,,,,,,,,,,,,,,,,,,,,,,,,,,
256376,001,2022-11-14_24h27.08.632,Info_measure_main_exp,2022.2.2,Win32,60.0132029,,,,,,,,,,,,,,,,,,masks/mask_002.jpg,,,,,,,,,,,,,,,,,,,,,,,,,,,,,,,,,,,,,,,,,,,0,4,4,1,1,,,,,,,,,,,,,,,,,,,,,,,,,,,,,,,,,,,,,,,,,,,,,,
256376,001,2022-11-14_24h27.08.632,Info_measure_main_exp,2022.2.2,Win32,60.0132029,,,,,,,,,,,,,,,,,,masks/mask_005.jpg,,,,,,,,,,,,,,,,,,,,,,,,,,,,,,,,,,,,,,,,,,,,,,,,0,0,0,4,1,,,,,,,,,,,,,,,,,,,,,,,,,,,,,,,,,,,,,,,,,
256376,001,2022-11-14_24h27.08.632,Info_measure_main_exp,2022.2.2,Win32,60.0132029,,,,,,,,,,,,,,,,,,masks/mask_003.jpg,,,,,,,,,,,,,,,,,,,,,,,,,,,,,,,,,,,,,,,,,,,,,,,,0,1,1,2,1,,,,,,,,,,,,,,,,,,,,,,,,,,,,,,,,,,,,,,,,,
256376,001,2022-11-14_24h27.08.632,Info_measure_main_exp,2022.2.2,Win32,60.0132029,,,,,,,,,,,,,,,,,,masks/mask_002.jpg,,,,,,,,,,,,,,,,,,,,,,,,,,,,,,,,,,,,,,,,,,,,,,,,0,2,2,1,1,,,,,,,,,,,,,,,,,,,,,,,,,,,,,,,,,,,,,,,,,
256376,001,2022-11-14_24h27.08.632,Info_measure_main_exp,2022.2.2,Win32,60.0132029,,,,,,,,,,,,,,,,,,masks/mask_001.jpg,,,,,,,,,,,,,,,,,,,,,,,,,,,,,,,,,,,,,,,,,,,,,,,,0,3,3,0,1,,,,,,,,,,,,,,,,,,,,,,,,,,,,,,,,,,,,,,,,,
256376,001,2022-11-14_24h27.08.632,Info_measure_main_exp,2022.2.2,Win32,60.0132029,,,,,,,,,,,,,,,,,,masks/mask_004.jpg,,,,,,,,,,,,,,,,,,,,,,,,,,,,,,,,,,,,,,,,,,,,,,,,0,4,4,3,1,,,,,,,,,,,,,,,,,,,,,,,,,,,,,,,,,,,,,,,,,
256376,001,2022-11-14_24h27.08.632,Info_measure_main_exp,2022.2.2,Win32,60.0132029,,,,,,,,,,,,,,,,,,,,,,,,,,,,,,3,3.1004,1,,,,,,,,,,,,0,131,5,5,2298,2214,absent_patch/patch0002298.jpg,absent_patch/patch0002214.jpg,,,,,,,,,,,,,,,,,,,,-0.059895833,-0.09765625,1,0,0,response5disk,14,-0.00390625,-0.001302083,1,0,0,center_square,0,13,13,99,1,,,,,,,,,,,,,,,,,,,,,,,
256376,001,2022-11-14_24h27.08.632,Info_measure_main_exp,2022.2.2,Win32,60.0132029,,,,,,,,,,,,,,,,,,masks/mask_002.jpg,,,,,,,,,,,,,,,,,,,,,,,,,,,,,,,,,,,,,,,,,,,0,0,0,1,1,,,,,,,,,,,,,,,,,,,,,,,,,,,,,,,,,,,,,,,,,,,,,,
256376,001,2022-11-14_24h27.08.632,Info_measure_main_exp,2022.2.2,Win32,60.0132029,,,,,,,,,,,,,,,,,,masks/mask_001.jpg,,,,,,,,,,,,,,,,,,,,,,,,,,,,,,,,,,,,,,,,,,,0,1,1,0,1,,,,,,,,,,,,,,,,,,,,,,,,,,,,,,,,,,,,,,,,,,,,,,
256376,001,2022-11-14_24h27.08.632,Info_measure_main_exp,2022.2.2,Win32,60.0132029,,,,,,,,,,,,,,,,,,masks/mask_004.jpg,,,,,,,,,,,,,,,,,,,,,,,,,,,,,,,,,,,,,,,,,,,0,2,2,3,1,,,,,,,,,,,,,,,,,,,,,,,,,,,,,,,,,,,,,,,,,,,,,,
256376,001,2022-11-14_24h27.08.632,Info_measure_main_exp,2022.2.2,Win32,60.0132029,,,,,,,,,,,,,,,,,,masks/mask_005.jpg,,,,,,,,,,,,,,,,,,,,,,,,,,,,,,,,,,,,,,,,,,,0,3,3,4,1,,,,,,,,,,,,,,,,,,,,,,,,,,,,,,,,,,,,,,,,,,,,,,
256376,001,2022-11-14_24h27.08.632,Info_measure_main_exp,2022.2.2,Win32,60.0132029,,,,,,,,,,,,,,,,,,masks/mask_003.jpg,,,,,,,,,,,,,,,,,,,,,,,,,,,,,,,,,,,,,,,,,,,0,4,4,2,1,,,,,,,,,,,,,,,,,,,,,,,,,,,,,,,,,,,,,,,,,,,,,,
256376,001,2022-11-14_24h27.08.632,Info_measure_main_exp,2022.2.2,Win32,60.0132029,,,,,,,,,,,,,,,,,,masks/mask_003.jpg,,,,,,,,,,,,,,,,,,,,,,,,,,,,,,,,,,,,,,,,,,,,,,,,0,0,0,2,1,,,,,,,,,,,,,,,,,,,,,,,,,,,,,,,,,,,,,,,,,
256376,001,2022-11-14_24h27.08.632,Info_measure_main_exp,2022.2.2,Win32,60.0132029,,,,,,,,,,,,,,,,,,masks/mask_005.jpg,,,,,,,,,,,,,,,,,,,,,,,,,,,,,,,,,,,,,,,,,,,,,,,,0,1,1,4,1,,,,,,,,,,,,,,,,,,,,,,,,,,,,,,,,,,,,,,,,,
256376,001,2022-11-14_24h27.08.632,Info_measure_main_exp,2022.2.2,Win32,60.0132029,,,,,,,,,,,,,,,,,,masks/mask_002.jpg,,,,,,,,,,,,,,,,,,,,,,,,,,,,,,,,,,,,,,,,,,,,,,,,0,2,2,1,1,,,,,,,,,,,,,,,,,,,,,,,,,,,,,,,,,,,,,,,,,
256376,001,2022-11-14_24h27.08.632,Info_measure_main_exp,2022.2.2,Win32,60.0132029,,,,,,,,,,,,,,,,,,masks/mask_001.jpg,,,,,,,,,,,,,,,,,,,,,,,,,,,,,,,,,,,,,,,,,,,,,,,,0,3,3,0,1,,,,,,,,,,,,,,,,,,,,,,,,,,,,,,,,,,,,,,,,,
256376,001,2022-11-14_24h27.08.632,Info_measure_main_exp,2022.2.2,Win32,60.0132029,,,,,,,,,,,,,,,,,,masks/mask_004.jpg,,,,,,,,,,,,,,,,,,,,,,,,,,,,,,,,,,,,,,,,,,,,,,,,0,4,4,3,1,,,,,,,,,,,,,,,,,,,,,,,,,,,,,,,,,,,,,,,,,
256376,001,2022-11-14_24h27.08.632,Info_measure_main_exp,2022.2.2,Win32,60.0132029,,,,,,,,,,,,,,,,,,,,,,,,,,,,,,4,3.0004,1,,,,,,,,,,,,0,131,5,5,2190,2214,absent_patch/patch0002190.jpg,absent_patch/patch0002214.jpg,,,,,,,,,,,,,,,,,,,,0.01953125,-0.123697917,1,0,0,response3disk,15,0.001302083,-0.00390625,1,0,0,center_square,0,14,14,35,1,,,,,,,,,,,,,,,,,,,,,,,
256376,001,2022-11-14_24h27.08.632,Info_measure_main_exp,2022.2.2,Win32,60.0132029,,,,,,,,,,,,,,,,,,masks/mask_002.jpg,,,,,,,,,,,,,,,,,,,,,,,,,,,,,,,,,,,,,,,,,,,0,0,0,1,1,,,,,,,,,,,,,,,,,,,,,,,,,,,,,,,,,,,,,,,,,,,,,,
256376,001,2022-11-14_24h27.08.632,Info_measure_main_exp,2022.2.2,Win32,60.0132029,,,,,,,,,,,,,,,,,,masks/mask_005.jpg,,,,,,,,,,,,,,,,,,,,,,,,,,,,,,,,,,,,,,,,,,,0,1,1,4,1,,,,,,,,,,,,,,,,,,,,,,,,,,,,,,,,,,,,,,,,,,,,,,
256376,001,2022-11-14_24h27.08.632,Info_measure_main_exp,2022.2.2,Win32,60.0132029,,,,,,,,,,,,,,,,,,masks/mask_001.jpg,,,,,,,,,,,,,,,,,,,,,,,,,,,,,,,,,,,,,,,,,,,0,2,2,0,1,,,,,,,,,,,,,,,,,,,,,,,,,,,,,,,,,,,,,,,,,,,,,,
256376,001,2022-11-14_24h27.08.632,Info_measure_main_exp,2022.2.2,Win32,60.0132029,,,,,,,,,,,,,,,,,,masks/mask_003.jpg,,,,,,,,,,,,,,,,,,,,,,,,,,,,,,,,,,,,,,,,,,,0,3,3,2,1,,,,,,,,,,,,,,,,,,,,,,,,,,,,,,,,,,,,,,,,,,,,,,
256376,001,2022-11-14_24h27.08.632,Info_measure_main_exp,2022.2.2,Win32,60.0132029,,,,,,,,,,,,,,,,,,masks/mask_004.jpg,,,,,,,,,,,,,,,,,,,,,,,,,,,,,,,,,,,,,,,,,,,0,4,4,3,1,,,,,,,,,,,,,,,,,,,,,,,,,,,,,,,,,,,,,,,,,,,,,,
256376,001,2022-11-14_24h27.08.632,Info_measure_main_exp,2022.2.2,Win32,60.0132029,,,,,,,,,,,,,,,,,,masks/mask_003.jpg,,,,,,,,,,,,,,,,,,,,,,,,,,,,,,,,,,,,,,,,,,,,,,,,0,0,0,2,1,,,,,,,,,,,,,,,,,,,,,,,,,,,,,,,,,,,,,,,,,
256376,001,2022-11-14_24h27.08.632,Info_measure_main_exp,2022.2.2,Win32,60.0132029,,,,,,,,,,,,,,,,,,masks/mask_001.jpg,,,,,,,,,,,,,,,,,,,,,,,,,,,,,,,,,,,,,,,,,,,,,,,,0,1,1,0,1,,,,,,,,,,,,,,,,,,,,,,,,,,,,,,,,,,,,,,,,,
256376,001,2022-11-14_24h27.08.632,Info_measure_main_exp,2022.2.2,Win32,60.0132029,,,,,,,,,,,,,,,,,,masks/mask_005.jpg,,,,,,,,,,,,,,,,,,,,,,,,,,,,,,,,,,,,,,,,,,,,,,,,0,2,2,4,1,,,,,,,,,,,,,,,,,,,,,,,,,,,,,,,,,,,,,,,,,
256376,001,2022-11-14_24h27.08.632,Info_measure_main_exp,2022.2.2,Win32,60.0132029,,,,,,,,,,,,,,,,,,masks/mask_002.jpg,,,,,,,,,,,,,,,,,,,,,,,,,,,,,,,,,,,,,,,,,,,,,,,,0,3,3,1,1,,,,,,,,,,,,,,,,,,,,,,,,,,,,,,,,,,,,,,,,,
256376,001,2022-11-14_24h27.08.632,Info_measure_main_exp,2022.2.2,Win32,60.0132029,,,,,,,,,,,,,,,,,,masks/mask_004.jpg,,,,,,,,,,,,,,,,,,,,,,,,,,,,,,,,,,,,,,,,,,,,,,,,0,4,4,3,1,,,,,,,,,,,,,,,,,,,,,,,,,,,,,,,,,,,,,,,,,
256376,001,2022-11-14_24h27.08.632,Info_measure_main_exp,2022.2.2,Win32,60.0132029,,,,,,,,,,,,,,,,,,,,,,,,,,,,,,6,1.4503,1,,,,,,,,,,,,0,131,5,5,2250,2298,absent_patch/patch0002250.jpg,absent_patch/patch0002298.jpg,,,,,,,,,,,,,,,,,,,,0.084635417,0.037760417,1,0,0,response1disk,16,0.00390625,-0.002604167,1,0,0,center_square,0,15,15,59,1,,,,,,,,,,,,,,,,,,,,,,,
256376,001,2022-11-14_24h27.08.632,Info_measure_main_exp,2022.2.2,Win32,60.0132029,,,,,,,,,,,,,,,,,,masks/mask_004.jpg,,,,,,,,,,,,,,,,,,,,,,,,,,,,,,,,,,,,,,,,,,,0,0,0,3,1,,,,,,,,,,,,,,,,,,,,,,,,,,,,,,,,,,,,,,,,,,,,,,
256376,001,2022-11-14_24h27.08.632,Info_measure_main_exp,2022.2.2,Win32,60.0132029,,,,,,,,,,,,,,,,,,masks/mask_003.jpg,,,,,,,,,,,,,,,,,,,,,,,,,,,,,,,,,,,,,,,,,,,0,1,1,2,1,,,,,,,,,,,,,,,,,,,,,,,,,,,,,,,,,,,,,,,,,,,,,,
256376,001,2022-11-14_24h27.08.632,Info_measure_main_exp,2022.2.2,Win32,60.0132029,,,,,,,,,,,,,,,,,,masks/mask_005.jpg,,,,,,,,,,,,,,,,,,,,,,,,,,,,,,,,,,,,,,,,,,,0,2,2,4,1,,,,,,,,,,,,,,,,,,,,,,,,,,,,,,,,,,,,,,,,,,,,,,
256376,001,2022-11-14_24h27.08.632,Info_measure_main_exp,2022.2.2,Win32,60.0132029,,,,,,,,,,,,,,,,,,masks/mask_001.jpg,,,,,,,,,,,,,,,,,,,,,,,,,,,,,,,,,,,,,,,,,,,0,3,3,0,1,,,,,,,,,,,,,,,,,,,,,,,,,,,,,,,,,,,,,,,,,,,,,,
256376,001,2022-11-14_24h27.08.632,Info_measure_main_exp,2022.2.2,Win32,60.0132029,,,,,,,,,,,,,,,,,,masks/mask_002.jpg,,,,,,,,,,,,,,,,,,,,,,,,,,,,,,,,,,,,,,,,,,,0,4,4,1,1,,,,,,,,,,,,,,,,,,,,,,,,,,,,,,,,,,,,,,,,,,,,,,
256376,001,2022-11-14_24h27.08.632,Info_measure_main_exp,2022.2.2,Win32,60.0132029,,,,,,,,,,,,,,,,,,masks/mask_002.jpg,,,,,,,,,,,,,,,,,,,,,,,,,,,,,,,,,,,,,,,,,,,,,,,,0,0,0,1,1,,,,,,,,,,,,,,,,,,,,,,,,,,,,,,,,,,,,,,,,,
256376,001,2022-11-14_24h27.08.632,Info_measure_main_exp,2022.2.2,Win32,60.0132029,,,,,,,,,,,,,,,,,,masks/mask_001.jpg,,,,,,,,,,,,,,,,,,,,,,,,,,,,,,,,,,,,,,,,,,,,,,,,0,1,1,0,1,,,,,,,,,,,,,,,,,,,,,,,,,,,,,,,,,,,,,,,,,
256376,001,2022-11-14_24h27.08.632,Info_measure_main_exp,2022.2.2,Win32,60.0132029,,,,,,,,,,,,,,,,,,masks/mask_005.jpg,,,,,,,,,,,,,,,,,,,,,,,,,,,,,,,,,,,,,,,,,,,,,,,,0,2,2,4,1,,,,,,,,,,,,,,,,,,,,,,,,,,,,,,,,,,,,,,,,,
256376,001,2022-11-14_24h27.08.632,Info_measure_main_exp,2022.2.2,Win32,60.0132029,,,,,,,,,,,,,,,,,,masks/mask_003.jpg,,,,,,,,,,,,,,,,,,,,,,,,,,,,,,,,,,,,,,,,,,,,,,,,0,3,3,2,1,,,,,,,,,,,,,,,,,,,,,,,,,,,,,,,,,,,,,,,,,
256376,001,2022-11-14_24h27.08.632,Info_measure_main_exp,2022.2.2,Win32,60.0132029,,,,,,,,,,,,,,,,,,masks/mask_004.jpg,,,,,,,,,,,,,,,,,,,,,,,,,,,,,,,,,,,,,,,,,,,,,,,,0,4,4,3,1,,,,,,,,,,,,,,,,,,,,,,,,,,,,,,,,,,,,,,,,,
256376,001,2022-11-14_24h27.08.632,Info_measure_main_exp,2022.2.2,Win32,60.0132029,,,,,,,,,,,,,,,,,,,,,,,,,,,,,,6,1.8669,1,,,,,,,,,,,,0,131,5,5,2142,2238,absent_patch/patch0002142.jpg,absent_patch/patch0002238.jpg,,,,,,,,,,,,,,,,,,,,0.127604167,0.037760417,1,0,0,response1disk,17,-0.005208333,-0.00390625,1,0,0,center_square,0,16,16,101,1,,,,,,,,,,,,,,,,,,,,,,,
256376,001,2022-11-14_24h27.08.632,Info_measure_main_exp,2022.2.2,Win32,60.0132029,,,,,,,,,,,,,,,,,,masks/mask_005.jpg,,,,,,,,,,,,,,,,,,,,,,,,,,,,,,,,,,,,,,,,,,,0,0,0,4,1,,,,,,,,,,,,,,,,,,,,,,,,,,,,,,,,,,,,,,,,,,,,,,
256376,001,2022-11-14_24h27.08.632,Info_measure_main_exp,2022.2.2,Win32,60.0132029,,,,,,,,,,,,,,,,,,masks/mask_002.jpg,,,,,,,,,,,,,,,,,,,,,,,,,,,,,,,,,,,,,,,,,,,0,1,1,1,1,,,,,,,,,,,,,,,,,,,,,,,,,,,,,,,,,,,,,,,,,,,,,,
256376,001,2022-11-14_24h27.08.632,Info_measure_main_exp,2022.2.2,Win32,60.0132029,,,,,,,,,,,,,,,,,,masks/mask_001.jpg,,,,,,,,,,,,,,,,,,,,,,,,,,,,,,,,,,,,,,,,,,,0,2,2,0,1,,,,,,,,,,,,,,,,,,,,,,,,,,,,,,,,,,,,,,,,,,,,,,
256376,001,2022-11-14_24h27.08.632,Info_measure_main_exp,2022.2.2,Win32,60.0132029,,,,,,,,,,,,,,,,,,masks/mask_003.jpg,,,,,,,,,,,,,,,,,,,,,,,,,,,,,,,,,,,,,,,,,,,0,3,3,2,1,,,,,,,,,,,,,,,,,,,,,,,,,,,,,,,,,,,,,,,,,,,,,,
256376,001,2022-11-14_24h27.08.632,Info_measure_main_exp,2022.2.2,Win32,60.0132029,,,,,,,,,,,,,,,,,,masks/mask_004.jpg,,,,,,,,,,,,,,,,,,,,,,,,,,,,,,,,,,,,,,,,,,,0,4,4,3,1,,,,,,,,,,,,,,,,,,,,,,,,,,,,,,,,,,,,,,,,,,,,,,
256376,001,2022-11-14_24h27.08.632,Info_measure_main_exp,2022.2.2,Win32,60.0132029,,,,,,,,,,,,,,,,,,masks/mask_001.jpg,,,,,,,,,,,,,,,,,,,,,,,,,,,,,,,,,,,,,,,,,,,,,,,,0,0,0,0,1,,,,,,,,,,,,,,,,,,,,,,,,,,,,,,,,,,,,,,,,,
256376,001,2022-11-14_24h27.08.632,Info_measure_main_exp,2022.2.2,Win32,60.0132029,,,,,,,,,,,,,,,,,,masks/mask_002.jpg,,,,,,,,,,,,,,,,,,,,,,,,,,,,,,,,,,,,,,,,,,,,,,,,0,1,1,1,1,,,,,,,,,,,,,,,,,,,,,,,,,,,,,,,,,,,,,,,,,
256376,001,2022-11-14_24h27.08.632,Info_measure_main_exp,2022.2.2,Win32,60.0132029,,,,,,,,,,,,,,,,,,masks/mask_003.jpg,,,,,,,,,,,,,,,,,,,,,,,,,,,,,,,,,,,,,,,,,,,,,,,,0,2,2,2,1,,,,,,,,,,,,,,,,,,,,,,,,,,,,,,,,,,,,,,,,,
256376,001,2022-11-14_24h27.08.632,Info_measure_main_exp,2022.2.2,Win32,60.0132029,,,,,,,,,,,,,,,,,,masks/mask_005.jpg,,,,,,,,,,,,,,,,,,,,,,,,,,,,,,,,,,,,,,,,,,,,,,,,0,3,3,4,1,,,,,,,,,,,,,,,,,,,,,,,,,,,,,,,,,,,,,,,,,
256376,001,2022-11-14_24h27.08.632,Info_measure_main_exp,2022.2.2,Win32,60.0132029,,,,,,,,,,,,,,,,,,masks/mask_004.jpg,,,,,,,,,,,,,,,,,,,,,,,,,,,,,,,,,,,,,,,,,,,,,,,,0,4,4,3,1,,,,,,,,,,,,,,,,,,,,,,,,,,,,,,,,,,,,,,,,,
256376,001,2022-11-14_24h27.08.632,Info_measure_main_exp,2022.2.2,Win32,60.0132029,,,,,,,,,,,,,,,,,,,,,,,,,,,,,,7,2.8002,1,,,,,,,,,,,,0,131,5,5,2178,1986,absent_patch/patch0002178.jpg,absent_patch/patch0001986.jpg,,,,,,,,,,,,,,,,,,,,0.067708333,0.147135417,1,0,0,response1disk,18,-0.002604167,0.0078125,1,0,0,center_square,0,17,17,46,1,,,,,,,,,,,,,,,,,,,,,,,
256376,001,2022-11-14_24h27.08.632,Info_measure_main_exp,2022.2.2,Win32,60.0132029,,,,,,,,,,,,,,,,,,masks/mask_005.jpg,,,,,,,,,,,,,,,,,,,,,,,,,,,,,,,,,,,,,,,,,,,0,0,0,4,1,,,,,,,,,,,,,,,,,,,,,,,,,,,,,,,,,,,,,,,,,,,,,,
256376,001,2022-11-14_24h27.08.632,Info_measure_main_exp,2022.2.2,Win32,60.0132029,,,,,,,,,,,,,,,,,,masks/mask_004.jpg,,,,,,,,,,,,,,,,,,,,,,,,,,,,,,,,,,,,,,,,,,,0,1,1,3,1,,,,,,,,,,,,,,,,,,,,,,,,,,,,,,,,,,,,,,,,,,,,,,
256376,001,2022-11-14_24h27.08.632,Info_measure_main_exp,2022.2.2,Win32,60.0132029,,,,,,,,,,,,,,,,,,masks/mask_001.jpg,,,,,,,,,,,,,,,,,,,,,,,,,,,,,,,,,,,,,,,,,,,0,2,2,0,1,,,,,,,,,,,,,,,,,,,,,,,,,,,,,,,,,,,,,,,,,,,,,,
256376,001,2022-11-14_24h27.08.632,Info_measure_main_exp,2022.2.2,Win32,60.0132029,,,,,,,,,,,,,,,,,,masks/mask_003.jpg,,,,,,,,,,,,,,,,,,,,,,,,,,,,,,,,,,,,,,,,,,,0,3,3,2,1,,,,,,,,,,,,,,,,,,,,,,,,,,,,,,,,,,,,,,,,,,,,,,
256376,001,2022-11-14_24h27.08.632,Info_measure_main_exp,2022.2.2,Win32,60.0132029,,,,,,,,,,,,,,,,,,masks/mask_002.jpg,,,,,,,,,,,,,,,,,,,,,,,,,,,,,,,,,,,,,,,,,,,0,4,4,1,1,,,,,,,,,,,,,,,,,,,,,,,,,,,,,,,,,,,,,,,,,,,,,,
256376,001,2022-11-14_24h27.08.632,Info_measure_main_exp,2022.2.2,Win32,60.0132029,,,,,,,,,,,,,,,,,,masks/mask_005.jpg,,,,,,,,,,,,,,,,,,,,,,,,,,,,,,,,,,,,,,,,,,,,,,,,0,0,0,4,1,,,,,,,,,,,,,,,,,,,,,,,,,,,,,,,,,,,,,,,,,
256376,001,2022-11-14_24h27.08.632,Info_measure_main_exp,2022.2.2,Win32,60.0132029,,,,,,,,,,,,,,,,,,masks/mask_004.jpg,,,,,,,,,,,,,,,,,,,,,,,,,,,,,,,,,,,,,,,,,,,,,,,,0,1,1,3,1,,,,,,,,,,,,,,,,,,,,,,,,,,,,,,,,,,,,,,,,,
256376,001,2022-11-14_24h27.08.632,Info_measure_main_exp,2022.2.2,Win32,60.0132029,,,,,,,,,,,,,,,,,,masks/mask_001.jpg,,,,,,,,,,,,,,,,,,,,,,,,,,,,,,,,,,,,,,,,,,,,,,,,0,2,2,0,1,,,,,,,,,,,,,,,,,,,,,,,,,,,,,,,,,,,,,,,,,
256376,001,2022-11-14_24h27.08.632,Info_measure_main_exp,2022.2.2,Win32,60.0132029,,,,,,,,,,,,,,,,,,masks/mask_003.jpg,,,,,,,,,,,,,,,,,,,,,,,,,,,,,,,,,,,,,,,,,,,,,,,,0,3,3,2,1,,,,,,,,,,,,,,,,,,,,,,,,,,,,,,,,,,,,,,,,,
256376,001,2022-11-14_24h27.08.632,Info_measure_main_exp,2022.2.2,Win32,60.0132029,,,,,,,,,,,,,,,,,,masks/mask_002.jpg,,,,,,,,,,,,,,,,,,,,,,,,,,,,,,,,,,,,,,,,,,,,,,,,0,4,4,1,1,,,,,,,,,,,,,,,,,,,,,,,,,,,,,,,,,,,,,,,,,
256376,001,2022-11-14_24h27.08.632,Info_measure_main_exp,2022.2.2,Win32,60.0132029,,,,,,,,,,,,,,,,,,,,,,,,,,,,,,2,1.8336,1,,,,,,,,,,,,1,131,5,5,2238,1,absent_patch/patch0002238.jpg,present_patch/cong_131_5_a.jpg,,,,,,,,,,,,,,,,,,,,-0.125,-0.065104167,1,0,0,response5disk,19,0.00390625,0.009114583,1,0,0,center_square,0,18,18,104,1,,,,,,,,,,,,,,,,,,,,,,,
256376,001,2022-11-14_24h27.08.632,Info_measure_main_exp,2022.2.2,Win32,60.0132029,,,,,,,,,,,,,,,,,,masks/mask_004.jpg,,,,,,,,,,,,,,,,,,,,,,,,,,,,,,,,,,,,,,,,,,,0,0,0,3,1,,,,,,,,,,,,,,,,,,,,,,,,,,,,,,,,,,,,,,,,,,,,,,
256376,001,2022-11-14_24h27.08.632,Info_measure_main_exp,2022.2.2,Win32,60.0132029,,,,,,,,,,,,,,,,,,masks/mask_002.jpg,,,,,,,,,,,,,,,,,,,,,,,,,,,,,,,,,,,,,,,,,,,0,1,1,1,1,,,,,,,,,,,,,,,,,,,,,,,,,,,,,,,,,,,,,,,,,,,,,,
256376,001,2022-11-14_24h27.08.632,Info_measure_main_exp,2022.2.2,Win32,60.0132029,,,,,,,,,,,,,,,,,,masks/mask_001.jpg,,,,,,,,,,,,,,,,,,,,,,,,,,,,,,,,,,,,,,,,,,,0,2,2,0,1,,,,,,,,,,,,,,,,,,,,,,,,,,,,,,,,,,,,,,,,,,,,,,
256376,001,2022-11-14_24h27.08.632,Info_measure_main_exp,2022.2.2,Win32,60.0132029,,,,,,,,,,,,,,,,,,masks/mask_003.jpg,,,,,,,,,,,,,,,,,,,,,,,,,,,,,,,,,,,,,,,,,,,0,3,3,2,1,,,,,,,,,,,,,,,,,,,,,,,,,,,,,,,,,,,,,,,,,,,,,,
256376,001,2022-11-14_24h27.08.632,Info_measure_main_exp,2022.2.2,Win32,60.0132029,,,,,,,,,,,,,,,,,,masks/mask_005.jpg,,,,,,,,,,,,,,,,,,,,,,,,,,,,,,,,,,,,,,,,,,,0,4,4,4,1,,,,,,,,,,,,,,,,,,,,,,,,,,,,,,,,,,,,,,,,,,,,,,
256376,001,2022-11-14_24h27.08.632,Info_measure_main_exp,2022.2.2,Win32,60.0132029,,,,,,,,,,,,,,,,,,masks/mask_001.jpg,,,,,,,,,,,,,,,,,,,,,,,,,,,,,,,,,,,,,,,,,,,,,,,,0,0,0,0,1,,,,,,,,,,,,,,,,,,,,,,,,,,,,,,,,,,,,,,,,,
256376,001,2022-11-14_24h27.08.632,Info_measure_main_exp,2022.2.2,Win32,60.0132029,,,,,,,,,,,,,,,,,,masks/mask_003.jpg,,,,,,,,,,,,,,,,,,,,,,,,,,,,,,,,,,,,,,,,,,,,,,,,0,1,1,2,1,,,,,,,,,,,,,,,,,,,,,,,,,,,,,,,,,,,,,,,,,
256376,001,2022-11-14_24h27.08.632,Info_measure_main_exp,2022.2.2,Win32,60.0132029,,,,,,,,,,,,,,,,,,masks/mask_002.jpg,,,,,,,,,,,,,,,,,,,,,,,,,,,,,,,,,,,,,,,,,,,,,,,,0,2,2,1,1,,,,,,,,,,,,,,,,,,,,,,,,,,,,,,,,,,,,,,,,,
256376,001,2022-11-14_24h27.08.632,Info_measure_main_exp,2022.2.2,Win32,60.0132029,,,,,,,,,,,,,,,,,,masks/mask_005.jpg,,,,,,,,,,,,,,,,,,,,,,,,,,,,,,,,,,,,,,,,,,,,,,,,0,3,3,4,1,,,,,,,,,,,,,,,,,,,,,,,,,,,,,,,,,,,,,,,,,
256376,001,2022-11-14_24h27.08.632,Info_measure_main_exp,2022.2.2,Win32,60.0132029,,,,,,,,,,,,,,,,,,masks/mask_004.jpg,,,,,,,,,,,,,,,,,,,,,,,,,,,,,,,,,,,,,,,,,,,,,,,,0,4,4,3,1,,,,,,,,,,,,,,,,,,,,,,,,,,,,,,,,,,,,,,,,,
256376,001,2022-11-14_24h27.08.632,Info_measure_main_exp,2022.2.2,Win32,60.0132029,,,,,,,,,,,,,,,,,,,,,,,,,,,,,,3,1.3173,1,,,,,,,,,,,,0,131,5,5,2274,2142,absent_patch/patch0002274.jpg,absent_patch/patch0002142.jpg,,,,,,,,,,,,,,,,,,,,-0.046875,-0.091145833,1,0,0,response5disk,20,0.002604167,0.005208333,1,0,0,center_square,0,19,19,75,1,,,,,,,,,,,,,,,,,,,,,,,
256376,001,2022-11-14_24h27.08.632,Info_measure_main_exp,2022.2.2,Win32,60.0132029,,,,,,,,,,,,,,,,,,masks/mask_001.jpg,,,,,,,,,,,,,,,,,,,,,,,,,,,,,,,,,,,,,,,,,,,0,0,0,0,1,,,,,,,,,,,,,,,,,,,,,,,,,,,,,,,,,,,,,,,,,,,,,,
256376,001,2022-11-14_24h27.08.632,Info_measure_main_exp,2022.2.2,Win32,60.0132029,,,,,,,,,,,,,,,,,,masks/mask_004.jpg,,,,,,,,,,,,,,,,,,,,,,,,,,,,,,,,,,,,,,,,,,,0,1,1,3,1,,,,,,,,,,,,,,,,,,,,,,,,,,,,,,,,,,,,,,,,,,,,,,
256376,001,2022-11-14_24h27.08.632,Info_measure_main_exp,2022.2.2,Win32,60.0132029,,,,,,,,,,,,,,,,,,masks/mask_005.jpg,,,,,,,,,,,,,,,,,,,,,,,,,,,,,,,,,,,,,,,,,,,0,2,2,4,1,,,,,,,,,,,,,,,,,,,,,,,,,,,,,,,,,,,,,,,,,,,,,,
256376,001,2022-11-14_24h27.08.632,Info_measure_main_exp,2022.2.2,Win32,60.0132029,,,,,,,,,,,,,,,,,,masks/mask_003.jpg,,,,,,,,,,,,,,,,,,,,,,,,,,,,,,,,,,,,,,,,,,,0,3,3,2,1,,,,,,,,,,,,,,,,,,,,,,,,,,,,,,,,,,,,,,,,,,,,,,
256376,001,2022-11-14_24h27.08.632,Info_measure_main_exp,2022.2.2,Win32,60.0132029,,,,,,,,,,,,,,,,,,masks/mask_002.jpg,,,,,,,,,,,,,,,,,,,,,,,,,,,,,,,,,,,,,,,,,,,0,4,4,1,1,,,,,,,,,,,,,,,,,,,,,,,,,,,,,,,,,,,,,,,,,,,,,,
256376,001,2022-11-14_24h27.08.632,Info_measure_main_exp,2022.2.2,Win32,60.0132029,,,,,,,,,,,,,,,,,,masks/mask_002.jpg,,,,,,,,,,,,,,,,,,,,,,,,,,,,,,,,,,,,,,,,,,,,,,,,0,0,0,1,1,,,,,,,,,,,,,,,,,,,,,,,,,,,,,,,,,,,,,,,,,
256376,001,2022-11-14_24h27.08.632,Info_measure_main_exp,2022.2.2,Win32,60.0132029,,,,,,,,,,,,,,,,,,masks/mask_005.jpg,,,,,,,,,,,,,,,,,,,,,,,,,,,,,,,,,,,,,,,,,,,,,,,,0,1,1,4,1,,,,,,,,,,,,,,,,,,,,,,,,,,,,,,,,,,,,,,,,,
256376,001,2022-11-14_24h27.08.632,Info_measure_main_exp,2022.2.2,Win32,60.0132029,,,,,,,,,,,,,,,,,,masks/mask_001.jpg,,,,,,,,,,,,,,,,,,,,,,,,,,,,,,,,,,,,,,,,,,,,,,,,0,2,2,0,1,,,,,,,,,,,,,,,,,,,,,,,,,,,,,,,,,,,,,,,,,
256376,001,2022-11-14_24h27.08.632,Info_measure_main_exp,2022.2.2,Win32,60.0132029,,,,,,,,,,,,,,,,,,masks/mask_004.jpg,,,,,,,,,,,,,,,,,,,,,,,,,,,,,,,,,,,,,,,,,,,,,,,,0,3,3,3,1,,,,,,,,,,,,,,,,,,,,,,,,,,,,,,,,,,,,,,,,,
256376,001,2022-11-14_24h27.08.632,Info_measure_main_exp,2022.2.2,Win32,60.0132029,,,,,,,,,,,,,,,,,,masks/mask_003.jpg,,,,,,,,,,,,,,,,,,,,,,,,,,,,,,,,,,,,,,,,,,,,,,,,0,4,4,2,1,,,,,,,,,,,,,,,,,,,,,,,,,,,,,,,,,,,,,,,,,
256376,001,2022-11-14_24h27.08.632,Info_measure_main_exp,2022.2.2,Win32,60.0132029,,,,,,,,,,,,,,,,,,,,,,,,,,,,,,3,1.2168,1,,,,,,,,,,,,0,131,5,5,2274,2238,absent_patch/patch0002274.jpg,absent_patch/patch0002238.jpg,,,,,,,,,,,,,,,,,,,,-0.033854167,-0.088541667,1,0,0,response5disk,21,0.001302083,-0.00390625,1,0,0,center_square,0,20,20,91,1,,,,,,,,,,,,,,,,,,,,,,,
256376,001,2022-11-14_24h27.08.632,Info_measure_main_exp,2022.2.2,Win32,60.0132029,,,,,,,,,,,,,,,,,,masks/mask_005.jpg,,,,,,,,,,,,,,,,,,,,,,,,,,,,,,,,,,,,,,,,,,,0,0,0,4,1,,,,,,,,,,,,,,,,,,,,,,,,,,,,,,,,,,,,,,,,,,,,,,
256376,001,2022-11-14_24h27.08.632,Info_measure_main_exp,2022.2.2,Win32,60.0132029,,,,,,,,,,,,,,,,,,masks/mask_001.jpg,,,,,,,,,,,,,,,,,,,,,,,,,,,,,,,,,,,,,,,,,,,0,1,1,0,1,,,,,,,,,,,,,,,,,,,,,,,,,,,,,,,,,,,,,,,,,,,,,,
256376,001,2022-11-14_24h27.08.632,Info_measure_main_exp,2022.2.2,Win32,60.0132029,,,,,,,,,,,,,,,,,,masks/mask_004.jpg,,,,,,,,,,,,,,,,,,,,,,,,,,,,,,,,,,,,,,,,,,,0,2,2,3,1,,,,,,,,,,,,,,,,,,,,,,,,,,,,,,,,,,,,,,,,,,,,,,
256376,001,2022-11-14_24h27.08.632,Info_measure_main_exp,2022.2.2,Win32,60.0132029,,,,,,,,,,,,,,,,,,masks/mask_003.jpg,,,,,,,,,,,,,,,,,,,,,,,,,,,,,,,,,,,,,,,,,,,0,3,3,2,1,,,,,,,,,,,,,,,,,,,,,,,,,,,,,,,,,,,,,,,,,,,,,,
256376,001,2022-11-14_24h27.08.632,Info_measure_main_exp,2022.2.2,Win32,60.0132029,,,,,,,,,,,,,,,,,,masks/mask_002.jpg,,,,,,,,,,,,,,,,,,,,,,,,,,,,,,,,,,,,,,,,,,,0,4,4,1,1,,,,,,,,,,,,,,,,,,,,,,,,,,,,,,,,,,,,,,,,,,,,,,
256376,001,2022-11-14_24h27.08.632,Info_measure_main_exp,2022.2.2,Win32,60.0132029,,,,,,,,,,,,,,,,,,masks/mask_004.jpg,,,,,,,,,,,,,,,,,,,,,,,,,,,,,,,,,,,,,,,,,,,,,,,,0,0,0,3,1,,,,,,,,,,,,,,,,,,,,,,,,,,,,,,,,,,,,,,,,,
256376,001,2022-11-14_24h27.08.632,Info_measure_main_exp,2022.2.2,Win32,60.0132029,,,,,,,,,,,,,,,,,,masks/mask_001.jpg,,,,,,,,,,,,,,,,,,,,,,,,,,,,,,,,,,,,,,,,,,,,,,,,0,1,1,0,1,,,,,,,,,,,,,,,,,,,,,,,,,,,,,,,,,,,,,,,,,
256376,001,2022-11-14_24h27.08.632,Info_measure_main_exp,2022.2.2,Win32,60.0132029,,,,,,,,,,,,,,,,,,masks/mask_005.jpg,,,,,,,,,,,,,,,,,,,,,,,,,,,,,,,,,,,,,,,,,,,,,,,,0,2,2,4,1,,,,,,,,,,,,,,,,,,,,,,,,,,,,,,,,,,,,,,,,,
256376,001,2022-11-14_24h27.08.632,Info_measure_main_exp,2022.2.2,Win32,60.0132029,,,,,,,,,,,,,,,,,,masks/mask_002.jpg,,,,,,,,,,,,,,,,,,,,,,,,,,,,,,,,,,,,,,,,,,,,,,,,0,3,3,1,1,,,,,,,,,,,,,,,,,,,,,,,,,,,,,,,,,,,,,,,,,
256376,001,2022-11-14_24h27.08.632,Info_measure_main_exp,2022.2.2,Win32,60.0132029,,,,,,,,,,,,,,,,,,masks/mask_003.jpg,,,,,,,,,,,,,,,,,,,,,,,,,,,,,,,,,,,,,,,,,,,,,,,,0,4,4,2,1,,,,,,,,,,,,,,,,,,,,,,,,,,,,,,,,,,,,,,,,,
256376,001,2022-11-14_24h27.08.632,Info_measure_main_exp,2022.2.2,Win32,60.0132029,,,,,,,,,,,,,,,,,,,,,,,,,,,,,,1,1.3338,1,,,,,,,,,,,,1,131,5,5,1,2154,present_patch/cong_131_5_a.jpg,absent_patch/patch0002154.jpg,,,,,,,,,,,,,,,,,,,,-0.08984375,0.016927083,1,0,0,response7disk,22,-0.001302083,0.001302083,1,0,0,center_square,0,21,21,87,1,,,,,,,,,,,,,,,,,,,,,,,
256376,001,2022-11-14_24h27.08.632,Info_measure_main_exp,2022.2.2,Win32,60.0132029,,,,,,,,,,,,,,,,,,masks/mask_005.jpg,,,,,,,,,,,,,,,,,,,,,,,,,,,,,,,,,,,,,,,,,,,0,0,0,4,1,,,,,,,,,,,,,,,,,,,,,,,,,,,,,,,,,,,,,,,,,,,,,,
256376,001,2022-11-14_24h27.08.632,Info_measure_main_exp,2022.2.2,Win32,60.0132029,,,,,,,,,,,,,,,,,,masks/mask_003.jpg,,,,,,,,,,,,,,,,,,,,,,,,,,,,,,,,,,,,,,,,,,,0,1,1,2,1,,,,,,,,,,,,,,,,,,,,,,,,,,,,,,,,,,,,,,,,,,,,,,
256376,001,2022-11-14_24h27.08.632,Info_measure_main_exp,2022.2.2,Win32,60.0132029,,,,,,,,,,,,,,,,,,masks/mask_002.jpg,,,,,,,,,,,,,,,,,,,,,,,,,,,,,,,,,,,,,,,,,,,0,2,2,1,1,,,,,,,,,,,,,,,,,,,,,,,,,,,,,,,,,,,,,,,,,,,,,,
256376,001,2022-11-14_24h27.08.632,Info_measure_main_exp,2022.2.2,Win32,60.0132029,,,,,,,,,,,,,,,,,,masks/mask_001.jpg,,,,,,,,,,,,,,,,,,,,,,,,,,,,,,,,,,,,,,,,,,,0,3,3,0,1,,,,,,,,,,,,,,,,,,,,,,,,,,,,,,,,,,,,,,,,,,,,,,
256376,001,2022-11-14_24h27.08.632,Info_measure_main_exp,2022.2.2,Win32,60.0132029,,,,,,,,,,,,,,,,,,masks/mask_004.jpg,,,,,,,,,,,,,,,,,,,,,,,,,,,,,,,,,,,,,,,,,,,0,4,4,3,1,,,,,,,,,,,,,,,,,,,,,,,,,,,,,,,,,,,,,,,,,,,,,,
256376,001,2022-11-14_24h27.08.632,Info_measure_main_exp,2022.2.2,Win32,60.0132029,,,,,,,,,,,,,,,,,,masks/mask_001.jpg,,,,,,,,,,,,,,,,,,,,,,,,,,,,,,,,,,,,,,,,,,,,,,,,0,0,0,0,1,,,,,,,,,,,,,,,,,,,,,,,,,,,,,,,,,,,,,,,,,
256376,001,2022-11-14_24h27.08.632,Info_measure_main_exp,2022.2.2,Win32,60.0132029,,,,,,,,,,,,,,,,,,masks/mask_002.jpg,,,,,,,,,,,,,,,,,,,,,,,,,,,,,,,,,,,,,,,,,,,,,,,,0,1,1,1,1,,,,,,,,,,,,,,,,,,,,,,,,,,,,,,,,,,,,,,,,,
256376,001,2022-11-14_24h27.08.632,Info_measure_main_exp,2022.2.2,Win32,60.0132029,,,,,,,,,,,,,,,,,,masks/mask_003.jpg,,,,,,,,,,,,,,,,,,,,,,,,,,,,,,,,,,,,,,,,,,,,,,,,0,2,2,2,1,,,,,,,,,,,,,,,,,,,,,,,,,,,,,,,,,,,,,,,,,
256376,001,2022-11-14_24h27.08.632,Info_measure_main_exp,2022.2.2,Win32,60.0132029,,,,,,,,,,,,,,,,,,masks/mask_005.jpg,,,,,,,,,,,,,,,,,,,,,,,,,,,,,,,,,,,,,,,,,,,,,,,,0,3,3,4,1,,,,,,,,,,,,,,,,,,,,,,,,,,,,,,,,,,,,,,,,,
256376,001,2022-11-14_24h27.08.632,Info_measure_main_exp,2022.2.2,Win32,60.0132029,,,,,,,,,,,,,,,,,,masks/mask_004.jpg,,,,,,,,,,,,,,,,,,,,,,,,,,,,,,,,,,,,,,,,,,,,,,,,0,4,4,3,1,,,,,,,,,,,,,,,,,,,,,,,,,,,,,,,,,,,,,,,,,
256376,001,2022-11-14_24h27.08.632,Info_measure_main_exp,2022.2.2,Win32,60.0132029,,,,,,,,,,,,,,,,,,,,,,,,,,,,,,7,1.3168,1,,,,,,,,,,,,0,131,5,5,2250,2178,absent_patch/patch0002250.jpg,absent_patch/patch0002178.jpg,,,,,,,,,,,,,,,,,,,,0.057291667,0.109375,1,0,0,response1disk,23,-0.0078125,0.00390625,1,0,0,center_square,0,22,22,48,1,,,,,,,,,,,,,,,,,,,,,,,
256376,001,2022-11-14_24h27.08.632,Info_measure_main_exp,2022.2.2,Win32,60.0132029,,,,,,,,,,,,,,,,,,masks/mask_003.jpg,,,,,,,,,,,,,,,,,,,,,,,,,,,,,,,,,,,,,,,,,,,0,0,0,2,1,,,,,,,,,,,,,,,,,,,,,,,,,,,,,,,,,,,,,,,,,,,,,,
256376,001,2022-11-14_24h27.08.632,Info_measure_main_exp,2022.2.2,Win32,60.0132029,,,,,,,,,,,,,,,,,,masks/mask_005.jpg,,,,,,,,,,,,,,,,,,,,,,,,,,,,,,,,,,,,,,,,,,,0,1,1,4,1,,,,,,,,,,,,,,,,,,,,,,,,,,,,,,,,,,,,,,,,,,,,,,
256376,001,2022-11-14_24h27.08.632,Info_measure_main_exp,2022.2.2,Win32,60.0132029,,,,,,,,,,,,,,,,,,masks/mask_002.jpg,,,,,,,,,,,,,,,,,,,,,,,,,,,,,,,,,,,,,,,,,,,0,2,2,1,1,,,,,,,,,,,,,,,,,,,,,,,,,,,,,,,,,,,,,,,,,,,,,,
256376,001,2022-11-14_24h27.08.632,Info_measure_main_exp,2022.2.2,Win32,60.0132029,,,,,,,,,,,,,,,,,,masks/mask_001.jpg,,,,,,,,,,,,,,,,,,,,,,,,,,,,,,,,,,,,,,,,,,,0,3,3,0,1,,,,,,,,,,,,,,,,,,,,,,,,,,,,,,,,,,,,,,,,,,,,,,
256376,001,2022-11-14_24h27.08.632,Info_measure_main_exp,2022.2.2,Win32,60.0132029,,,,,,,,,,,,,,,,,,masks/mask_004.jpg,,,,,,,,,,,,,,,,,,,,,,,,,,,,,,,,,,,,,,,,,,,0,4,4,3,1,,,,,,,,,,,,,,,,,,,,,,,,,,,,,,,,,,,,,,,,,,,,,,
256376,001,2022-11-14_24h27.08.632,Info_measure_main_exp,2022.2.2,Win32,60.0132029,,,,,,,,,,,,,,,,,,masks/mask_005.jpg,,,,,,,,,,,,,,,,,,,,,,,,,,,,,,,,,,,,,,,,,,,,,,,,0,0,0,4,1,,,,,,,,,,,,,,,,,,,,,,,,,,,,,,,,,,,,,,,,,
256376,001,2022-11-14_24h27.08.632,Info_measure_main_exp,2022.2.2,Win32,60.0132029,,,,,,,,,,,,,,,,,,masks/mask_003.jpg,,,,,,,,,,,,,,,,,,,,,,,,,,,,,,,,,,,,,,,,,,,,,,,,0,1,1,2,1,,,,,,,,,,,,,,,,,,,,,,,,,,,,,,,,,,,,,,,,,
256376,001,2022-11-14_24h27.08.632,Info_measure_main_exp,2022.2.2,Win32,60.0132029,,,,,,,,,,,,,,,,,,masks/mask_001.jpg,,,,,,,,,,,,,,,,,,,,,,,,,,,,,,,,,,,,,,,,,,,,,,,,0,2,2,0,1,,,,,,,,,,,,,,,,,,,,,,,,,,,,,,,,,,,,,,,,,
256376,001,2022-11-14_24h27.08.632,Info_measure_main_exp,2022.2.2,Win32,60.0132029,,,,,,,,,,,,,,,,,,masks/mask_004.jpg,,,,,,,,,,,,,,,,,,,,,,,,,,,,,,,,,,,,,,,,,,,,,,,,0,3,3,3,1,,,,,,,,,,,,,,,,,,,,,,,,,,,,,,,,,,,,,,,,,
256376,001,2022-11-14_24h27.08.632,Info_measure_main_exp,2022.2.2,Win32,60.0132029,,,,,,,,,,,,,,,,,,masks/mask_002.jpg,,,,,,,,,,,,,,,,,,,,,,,,,,,,,,,,,,,,,,,,,,,,,,,,0,4,4,1,1,,,,,,,,,,,,,,,,,,,,,,,,,,,,,,,,,,,,,,,,,
256376,001,2022-11-14_24h27.08.632,Info_measure_main_exp,2022.2.2,Win32,60.0132029,,,,,,,,,,,,,,,,,,,,,,,,,,,,,,7,0.9169,1,,,,,,,,,,,,0,131,5,5,1986,1950,absent_patch/patch0001986.jpg,absent_patch/patch0001950.jpg,,,,,,,,,,,,,,,,,,,,0.046875,0.1015625,1,0,0,response1disk,24,0.005208333,0.002604167,1,0,0,center_square,0,23,23,15,1,,,,,,,,,,,,,,,,,,,,,,,
256376,001,2022-11-14_24h27.08.632,Info_measure_main_exp,2022.2.2,Win32,60.0132029,,,,,,,,,,,,,,,,,,masks/mask_003.jpg,,,,,,,,,,,,,,,,,,,,,,,,,,,,,,,,,,,,,,,,,,,0,0,0,2,1,,,,,,,,,,,,,,,,,,,,,,,,,,,,,,,,,,,,,,,,,,,,,,
256376,001,2022-11-14_24h27.08.632,Info_measure_main_exp,2022.2.2,Win32,60.0132029,,,,,,,,,,,,,,,,,,masks/mask_005.jpg,,,,,,,,,,,,,,,,,,,,,,,,,,,,,,,,,,,,,,,,,,,0,1,1,4,1,,,,,,,,,,,,,,,,,,,,,,,,,,,,,,,,,,,,,,,,,,,,,,
256376,001,2022-11-14_24h27.08.632,Info_measure_main_exp,2022.2.2,Win32,60.0132029,,,,,,,,,,,,,,,,,,masks/mask_004.jpg,,,,,,,,,,,,,,,,,,,,,,,,,,,,,,,,,,,,,,,,,,,0,2,2,3,1,,,,,,,,,,,,,,,,,,,,,,,,,,,,,,,,,,,,,,,,,,,,,,
256376,001,2022-11-14_24h27.08.632,Info_measure_main_exp,2022.2.2,Win32,60.0132029,,,,,,,,,,,,,,,,,,masks/mask_001.jpg,,,,,,,,,,,,,,,,,,,,,,,,,,,,,,,,,,,,,,,,,,,0,3,3,0,1,,,,,,,,,,,,,,,,,,,,,,,,,,,,,,,,,,,,,,,,,,,,,,
256376,001,2022-11-14_24h27.08.632,Info_measure_main_exp,2022.2.2,Win32,60.0132029,,,,,,,,,,,,,,,,,,masks/mask_002.jpg,,,,,,,,,,,,,,,,,,,,,,,,,,,,,,,,,,,,,,,,,,,0,4,4,1,1,,,,,,,,,,,,,,,,,,,,,,,,,,,,,,,,,,,,,,,,,,,,,,
256376,001,2022-11-14_24h27.08.632,Info_measure_main_exp,2022.2.2,Win32,60.0132029,,,,,,,,,,,,,,,,,,masks/mask_005.jpg,,,,,,,,,,,,,,,,,,,,,,,,,,,,,,,,,,,,,,,,,,,,,,,,0,0,0,4,1,,,,,,,,,,,,,,,,,,,,,,,,,,,,,,,,,,,,,,,,,
256376,001,2022-11-14_24h27.08.632,Info_measure_main_exp,2022.2.2,Win32,60.0132029,,,,,,,,,,,,,,,,,,masks/mask_004.jpg,,,,,,,,,,,,,,,,,,,,,,,,,,,,,,,,,,,,,,,,,,,,,,,,0,1,1,3,1,,,,,,,,,,,,,,,,,,,,,,,,,,,,,,,,,,,,,,,,,
256376,001,2022-11-14_24h27.08.632,Info_measure_main_exp,2022.2.2,Win32,60.0132029,,,,,,,,,,,,,,,,,,masks/mask_001.jpg,,,,,,,,,,,,,,,,,,,,,,,,,,,,,,,,,,,,,,,,,,,,,,,,0,2,2,0,1,,,,,,,,,,,,,,,,,,,,,,,,,,,,,,,,,,,,,,,,,
256376,001,2022-11-14_24h27.08.632,Info_measure_main_exp,2022.2.2,Win32,60.0132029,,,,,,,,,,,,,,,,,,masks/mask_003.jpg,,,,,,,,,,,,,,,,,,,,,,,,,,,,,,,,,,,,,,,,,,,,,,,,0,3,3,2,1,,,,,,,,,,,,,,,,,,,,,,,,,,,,,,,,,,,,,,,,,
256376,001,2022-11-14_24h27.08.632,Info_measure_main_exp,2022.2.2,Win32,60.0132029,,,,,,,,,,,,,,,,,,masks/mask_002.jpg,,,,,,,,,,,,,,,,,,,,,,,,,,,,,,,,,,,,,,,,,,,,,,,,0,4,4,1,1,,,,,,,,,,,,,,,,,,,,,,,,,,,,,,,,,,,,,,,,,
256376,001,2022-11-14_24h27.08.632,Info_measure_main_exp,2022.2.2,Win32,60.0132029,,,,,,,,,,,,,,,,,,,,,,,,,,,,,,7,4.0002,1,,,,,,,,,,,,1,131,5,5,1,2214,present_patch/cong_131_5_a.jpg,absent_patch/patch0002214.jpg,,,,,,,,,,,,,,,,,,,,0.052083333,0.1328125,1,0,0,response1disk,25,0.00390625,0.005208333,1,0,0,center_square,0,24,24,4,1,,,,,,,,,,,,,,,,,,,,,,,
256376,001,2022-11-14_24h27.08.632,Info_measure_main_exp,2022.2.2,Win32,60.0132029,,,,,,,,,,,,,,,,,,masks/mask_005.jpg,,,,,,,,,,,,,,,,,,,,,,,,,,,,,,,,,,,,,,,,,,,0,0,0,4,1,,,,,,,,,,,,,,,,,,,,,,,,,,,,,,,,,,,,,,,,,,,,,,
256376,001,2022-11-14_24h27.08.632,Info_measure_main_exp,2022.2.2,Win32,60.0132029,,,,,,,,,,,,,,,,,,masks/mask_003.jpg,,,,,,,,,,,,,,,,,,,,,,,,,,,,,,,,,,,,,,,,,,,0,1,1,2,1,,,,,,,,,,,,,,,,,,,,,,,,,,,,,,,,,,,,,,,,,,,,,,
256376,001,2022-11-14_24h27.08.632,Info_measure_main_exp,2022.2.2,Win32,60.0132029,,,,,,,,,,,,,,,,,,masks/mask_002.jpg,,,,,,,,,,,,,,,,,,,,,,,,,,,,,,,,,,,,,,,,,,,0,2,2,1,1,,,,,,,,,,,,,,,,,,,,,,,,,,,,,,,,,,,,,,,,,,,,,,
256376,001,2022-11-14_24h27.08.632,Info_measure_main_exp,2022.2.2,Win32,60.0132029,,,,,,,,,,,,,,,,,,masks/mask_004.jpg,,,,,,,,,,,,,,,,,,,,,,,,,,,,,,,,,,,,,,,,,,,0,3,3,3,1,,,,,,,,,,,,,,,,,,,,,,,,,,,,,,,,,,,,,,,,,,,,,,
256376,001,2022-11-14_24h27.08.632,Info_measure_main_exp,2022.2.2,Win32,60.0132029,,,,,,,,,,,,,,,,,,masks/mask_001.jpg,,,,,,,,,,,,,,,,,,,,,,,,,,,,,,,,,,,,,,,,,,,0,4,4,0,1,,,,,,,,,,,,,,,,,,,,,,,,,,,,,,,,,,,,,,,,,,,,,,
256376,001,2022-11-14_24h27.08.632,Info_measure_main_exp,2022.2.2,Win32,60.0132029,,,,,,,,,,,,,,,,,,masks/mask_002.jpg,,,,,,,,,,,,,,,,,,,,,,,,,,,,,,,,,,,,,,,,,,,,,,,,0,0,0,1,1,,,,,,,,,,,,,,,,,,,,,,,,,,,,,,,,,,,,,,,,,
256376,001,2022-11-14_24h27.08.632,Info_measure_main_exp,2022.2.2,Win32,60.0132029,,,,,,,,,,,,,,,,,,masks/mask_003.jpg,,,,,,,,,,,,,,,,,,,,,,,,,,,,,,,,,,,,,,,,,,,,,,,,0,1,1,2,1,,,,,,,,,,,,,,,,,,,,,,,,,,,,,,,,,,,,,,,,,
256376,001,2022-11-14_24h27.08.632,Info_measure_main_exp,2022.2.2,Win32,60.0132029,,,,,,,,,,,,,,,,,,masks/mask_005.jpg,,,,,,,,,,,,,,,,,,,,,,,,,,,,,,,,,,,,,,,,,,,,,,,,0,2,2,4,1,,,,,,,,,,,,,,,,,,,,,,,,,,,,,,,,,,,,,,,,,
256376,001,2022-11-14_24h27.08.632,Info_measure_main_exp,2022.2.2,Win32,60.0132029,,,,,,,,,,,,,,,,,,masks/mask_001.jpg,,,,,,,,,,,,,,,,,,,,,,,,,,,,,,,,,,,,,,,,,,,,,,,,0,3,3,0,1,,,,,,,,,,,,,,,,,,,,,,,,,,,,,,,,,,,,,,,,,
256376,001,2022-11-14_24h27.08.632,Info_measure_main_exp,2022.2.2,Win32,60.0132029,,,,,,,,,,,,,,,,,,masks/mask_004.jpg,,,,,,,,,,,,,,,,,,,,,,,,,,,,,,,,,,,,,,,,,,,,,,,,0,4,4,3,1,,,,,,,,,,,,,,,,,,,,,,,,,,,,,,,,,,,,,,,,,
256376,001,2022-11-14_24h27.08.632,Info_measure_main_exp,2022.2.2,Win32,60.0132029,,,,,,,,,,,,,,,,,,,,,,,,,,,,,,7,0.9669,1,,,,,,,,,,,,0,131,5,5,2250,1986,absent_patch/patch0002250.jpg,absent_patch/patch0001986.jpg,,,,,,,,,,,,,,,,,,,,0.040364583,0.140625,1,0,0,response1disk,26,-0.01171875,-0.002604167,1,0,0,center_square,0,25,25,29,1,,,,,,,,,,,,,,,,,,,,,,,
256376,001,2022-11-14_24h27.08.632,Info_measure_main_exp,2022.2.2,Win32,60.0132029,,,,,,,,,,,,,,,,,,masks/mask_001.jpg,,,,,,,,,,,,,,,,,,,,,,,,,,,,,,,,,,,,,,,,,,,0,0,0,0,1,,,,,,,,,,,,,,,,,,,,,,,,,,,,,,,,,,,,,,,,,,,,,,
256376,001,2022-11-14_24h27.08.632,Info_measure_main_exp,2022.2.2,Win32,60.0132029,,,,,,,,,,,,,,,,,,masks/mask_005.jpg,,,,,,,,,,,,,,,,,,,,,,,,,,,,,,,,,,,,,,,,,,,0,1,1,4,1,,,,,,,,,,,,,,,,,,,,,,,,,,,,,,,,,,,,,,,,,,,,,,
256376,001,2022-11-14_24h27.08.632,Info_measure_main_exp,2022.2.2,Win32,60.0132029,,,,,,,,,,,,,,,,,,masks/mask_004.jpg,,,,,,,,,,,,,,,,,,,,,,,,,,,,,,,,,,,,,,,,,,,0,2,2,3,1,,,,,,,,,,,,,,,,,,,,,,,,,,,,,,,,,,,,,,,,,,,,,,
256376,001,2022-11-14_24h27.08.632,Info_measure_main_exp,2022.2.2,Win32,60.0132029,,,,,,,,,,,,,,,,,,masks/mask_003.jpg,,,,,,,,,,,,,,,,,,,,,,,,,,,,,,,,,,,,,,,,,,,0,3,3,2,1,,,,,,,,,,,,,,,,,,,,,,,,,,,,,,,,,,,,,,,,,,,,,,
256376,001,2022-11-14_24h27.08.632,Info_measure_main_exp,2022.2.2,Win32,60.0132029,,,,,,,,,,,,,,,,,,masks/mask_002.jpg,,,,,,,,,,,,,,,,,,,,,,,,,,,,,,,,,,,,,,,,,,,0,4,4,1,1,,,,,,,,,,,,,,,,,,,,,,,,,,,,,,,,,,,,,,,,,,,,,,
256376,001,2022-11-14_24h27.08.632,Info_measure_main_exp,2022.2.2,Win32,60.0132029,,,,,,,,,,,,,,,,,,masks/mask_001.jpg,,,,,,,,,,,,,,,,,,,,,,,,,,,,,,,,,,,,,,,,,,,,,,,,0,0,0,0,1,,,,,,,,,,,,,,,,,,,,,,,,,,,,,,,,,,,,,,,,,
256376,001,2022-11-14_24h27.08.632,Info_measure_main_exp,2022.2.2,Win32,60.0132029,,,,,,,,,,,,,,,,,,masks/mask_004.jpg,,,,,,,,,,,,,,,,,,,,,,,,,,,,,,,,,,,,,,,,,,,,,,,,0,1,1,3,1,,,,,,,,,,,,,,,,,,,,,,,,,,,,,,,,,,,,,,,,,
256376,001,2022-11-14_24h27.08.632,Info_measure_main_exp,2022.2.2,Win32,60.0132029,,,,,,,,,,,,,,,,,,masks/mask_005.jpg,,,,,,,,,,,,,,,,,,,,,,,,,,,,,,,,,,,,,,,,,,,,,,,,0,2,2,4,1,,,,,,,,,,,,,,,,,,,,,,,,,,,,,,,,,,,,,,,,,
256376,001,2022-11-14_24h27.08.632,Info_measure_main_exp,2022.2.2,Win32,60.0132029,,,,,,,,,,,,,,,,,,masks/mask_002.jpg,,,,,,,,,,,,,,,,,,,,,,,,,,,,,,,,,,,,,,,,,,,,,,,,0,3,3,1,1,,,,,,,,,,,,,,,,,,,,,,,,,,,,,,,,,,,,,,,,,
256376,001,2022-11-14_24h27.08.632,Info_measure_main_exp,2022.2.2,Win32,60.0132029,,,,,,,,,,,,,,,,,,masks/mask_003.jpg,,,,,,,,,,,,,,,,,,,,,,,,,,,,,,,,,,,,,,,,,,,,,,,,0,4,4,2,1,,,,,,,,,,,,,,,,,,,,,,,,,,,,,,,,,,,,,,,,,
256376,001,2022-11-14_24h27.08.632,Info_measure_main_exp,2022.2.2,Win32,60.0132029,,,,,,,,,,,,,,,,,,,,,,,,,,,,,,0,0.9004,1,,,,,,,,,,,,0,131,5,5,2190,2190,absent_patch/patch0002190.jpg,absent_patch/patch0002190.jpg,,,,,,,,,,,,,,,,,,,,-0.040364583,0.119791667,1,0,0,response7disk,27,0.0078125,-0.001302083,1,0,0,center_square,0,26,26,86,1,,,,,,,,,,,,,,,,,,,,,,,
256376,001,2022-11-14_24h27.08.632,Info_measure_main_exp,2022.2.2,Win32,60.0132029,,,,,,,,,,,,,,,,,,masks/mask_004.jpg,,,,,,,,,,,,,,,,,,,,,,,,,,,,,,,,,,,,,,,,,,,0,0,0,3,1,,,,,,,,,,,,,,,,,,,,,,,,,,,,,,,,,,,,,,,,,,,,,,
256376,001,2022-11-14_24h27.08.632,Info_measure_main_exp,2022.2.2,Win32,60.0132029,,,,,,,,,,,,,,,,,,masks/mask_003.jpg,,,,,,,,,,,,,,,,,,,,,,,,,,,,,,,,,,,,,,,,,,,0,1,1,2,1,,,,,,,,,,,,,,,,,,,,,,,,,,,,,,,,,,,,,,,,,,,,,,
256376,001,2022-11-14_24h27.08.632,Info_measure_main_exp,2022.2.2,Win32,60.0132029,,,,,,,,,,,,,,,,,,masks/mask_005.jpg,,,,,,,,,,,,,,,,,,,,,,,,,,,,,,,,,,,,,,,,,,,0,2,2,4,1,,,,,,,,,,,,,,,,,,,,,,,,,,,,,,,,,,,,,,,,,,,,,,
256376,001,2022-11-14_24h27.08.632,Info_measure_main_exp,2022.2.2,Win32,60.0132029,,,,,,,,,,,,,,,,,,masks/mask_002.jpg,,,,,,,,,,,,,,,,,,,,,,,,,,,,,,,,,,,,,,,,,,,0,3,3,1,1,,,,,,,,,,,,,,,,,,,,,,,,,,,,,,,,,,,,,,,,,,,,,,
256376,001,2022-11-14_24h27.08.632,Info_measure_main_exp,2022.2.2,Win32,60.0132029,,,,,,,,,,,,,,,,,,masks/mask_001.jpg,,,,,,,,,,,,,,,,,,,,,,,,,,,,,,,,,,,,,,,,,,,0,4,4,0,1,,,,,,,,,,,,,,,,,,,,,,,,,,,,,,,,,,,,,,,,,,,,,,
256376,001,2022-11-14_24h27.08.632,Info_measure_main_exp,2022.2.2,Win32,60.0132029,,,,,,,,,,,,,,,,,,masks/mask_004.jpg,,,,,,,,,,,,,,,,,,,,,,,,,,,,,,,,,,,,,,,,,,,,,,,,0,0,0,3,1,,,,,,,,,,,,,,,,,,,,,,,,,,,,,,,,,,,,,,,,,
256376,001,2022-11-14_24h27.08.632,Info_measure_main_exp,2022.2.2,Win32,60.0132029,,,,,,,,,,,,,,,,,,masks/mask_002.jpg,,,,,,,,,,,,,,,,,,,,,,,,,,,,,,,,,,,,,,,,,,,,,,,,0,1,1,1,1,,,,,,,,,,,,,,,,,,,,,,,,,,,,,,,,,,,,,,,,,
256376,001,2022-11-14_24h27.08.632,Info_measure_main_exp,2022.2.2,Win32,60.0132029,,,,,,,,,,,,,,,,,,masks/mask_003.jpg,,,,,,,,,,,,,,,,,,,,,,,,,,,,,,,,,,,,,,,,,,,,,,,,0,2,2,2,1,,,,,,,,,,,,,,,,,,,,,,,,,,,,,,,,,,,,,,,,,
256376,001,2022-11-14_24h27.08.632,Info_measure_main_exp,2022.2.2,Win32,60.0132029,,,,,,,,,,,,,,,,,,masks/mask_001.jpg,,,,,,,,,,,,,,,,,,,,,,,,,,,,,,,,,,,,,,,,,,,,,,,,0,3,3,0,1,,,,,,,,,,,,,,,,,,,,,,,,,,,,,,,,,,,,,,,,,
256376,001,2022-11-14_24h27.08.632,Info_measure_main_exp,2022.2.2,Win32,60.0132029,,,,,,,,,,,,,,,,,,masks/mask_005.jpg,,,,,,,,,,,,,,,,,,,,,,,,,,,,,,,,,,,,,,,,,,,,,,,,0,4,4,4,1,,,,,,,,,,,,,,,,,,,,,,,,,,,,,,,,,,,,,,,,,
256376,001,2022-11-14_24h27.08.632,Info_measure_main_exp,2022.2.2,Win32,60.0132029,,,,,,,,,,,,,,,,,,,,,,,,,,,,,,0,0.8835,1,,,,,,,,,,,,0,131,5,5,2274,2274,absent_patch/patch0002274.jpg,absent_patch/patch0002274.jpg,,,,,,,,,,,,,,,,,,,,-0.05078125,0.131510417,1,0,0,response7disk,28,-0.001302083,0.006510417,1,0,0,center_square,0,27,27,114,1,,,,,,,,,,,,,,,,,,,,,,,
256376,001,2022-11-14_24h27.08.632,Info_measure_main_exp,2022.2.2,Win32,60.0132029,,,,,,,,,,,,,,,,,,masks/mask_004.jpg,,,,,,,,,,,,,,,,,,,,,,,,,,,,,,,,,,,,,,,,,,,0,0,0,3,1,,,,,,,,,,,,,,,,,,,,,,,,,,,,,,,,,,,,,,,,,,,,,,
256376,001,2022-11-14_24h27.08.632,Info_measure_main_exp,2022.2.2,Win32,60.0132029,,,,,,,,,,,,,,,,,,masks/mask_001.jpg,,,,,,,,,,,,,,,,,,,,,,,,,,,,,,,,,,,,,,,,,,,0,1,1,0,1,,,,,,,,,,,,,,,,,,,,,,,,,,,,,,,,,,,,,,,,,,,,,,
256376,001,2022-11-14_24h27.08.632,Info_measure_main_exp,2022.2.2,Win32,60.0132029,,,,,,,,,,,,,,,,,,masks/mask_005.jpg,,,,,,,,,,,,,,,,,,,,,,,,,,,,,,,,,,,,,,,,,,,0,2,2,4,1,,,,,,,,,,,,,,,,,,,,,,,,,,,,,,,,,,,,,,,,,,,,,,
256376,001,2022-11-14_24h27.08.632,Info_measure_main_exp,2022.2.2,Win32,60.0132029,,,,,,,,,,,,,,,,,,masks/mask_003.jpg,,,,,,,,,,,,,,,,,,,,,,,,,,,,,,,,,,,,,,,,,,,0,3,3,2,1,,,,,,,,,,,,,,,,,,,,,,,,,,,,,,,,,,,,,,,,,,,,,,
256376,001,2022-11-14_24h27.08.632,Info_measure_main_exp,2022.2.2,Win32,60.0132029,,,,,,,,,,,,,,,,,,masks/mask_002.jpg,,,,,,,,,,,,,,,,,,,,,,,,,,,,,,,,,,,,,,,,,,,0,4,4,1,1,,,,,,,,,,,,,,,,,,,,,,,,,,,,,,,,,,,,,,,,,,,,,,
256376,001,2022-11-14_24h27.08.632,Info_measure_main_exp,2022.2.2,Win32,60.0132029,,,,,,,,,,,,,,,,,,masks/mask_005.jpg,,,,,,,,,,,,,,,,,,,,,,,,,,,,,,,,,,,,,,,,,,,,,,,,0,0,0,4,1,,,,,,,,,,,,,,,,,,,,,,,,,,,,,,,,,,,,,,,,,
256376,001,2022-11-14_24h27.08.632,Info_measure_main_exp,2022.2.2,Win32,60.0132029,,,,,,,,,,,,,,,,,,masks/mask_001.jpg,,,,,,,,,,,,,,,,,,,,,,,,,,,,,,,,,,,,,,,,,,,,,,,,0,1,1,0,1,,,,,,,,,,,,,,,,,,,,,,,,,,,,,,,,,,,,,,,,,
256376,001,2022-11-14_24h27.08.632,Info_measure_main_exp,2022.2.2,Win32,60.0132029,,,,,,,,,,,,,,,,,,masks/mask_004.jpg,,,,,,,,,,,,,,,,,,,,,,,,,,,,,,,,,,,,,,,,,,,,,,,,0,2,2,3,1,,,,,,,,,,,,,,,,,,,,,,,,,,,,,,,,,,,,,,,,,
256376,001,2022-11-14_24h27.08.632,Info_measure_main_exp,2022.2.2,Win32,60.0132029,,,,,,,,,,,,,,,,,,masks/mask_003.jpg,,,,,,,,,,,,,,,,,,,,,,,,,,,,,,,,,,,,,,,,,,,,,,,,0,3,3,2,1,,,,,,,,,,,,,,,,,,,,,,,,,,,,,,,,,,,,,,,,,
256376,001,2022-11-14_24h27.08.632,Info_measure_main_exp,2022.2.2,Win32,60.0132029,,,,,,,,,,,,,,,,,,masks/mask_002.jpg,,,,,,,,,,,,,,,,,,,,,,,,,,,,,,,,,,,,,,,,,,,,,,,,0,4,4,1,1,,,,,,,,,,,,,,,,,,,,,,,,,,,,,,,,,,,,,,,,,
256376,001,2022-11-14_24h27.08.632,Info_measure_main_exp,2022.2.2,Win32,60.0132029,,,,,,,,,,,,,,,,,,,,,,,,,,,,,,6,0.9674,1,,,,,,,,,,,,0,131,5,5,2154,1950,absent_patch/patch0002154.jpg,absent_patch/patch0001950.jpg,,,,,,,,,,,,,,,,,,,,0.125,0.028645833,1,0,0,response1disk,29,0.001302083,0.002604167,1,0,0,center_square,0,28,28,96,1,,,,,,,,,,,,,,,,,,,,,,,
256376,001,2022-11-14_24h27.08.632,Info_measure_main_exp,2022.2.2,Win32,60.0132029,,,,,,,,,,,,,,,,,,masks/mask_003.jpg,,,,,,,,,,,,,,,,,,,,,,,,,,,,,,,,,,,,,,,,,,,0,0,0,2,1,,,,,,,,,,,,,,,,,,,,,,,,,,,,,,,,,,,,,,,,,,,,,,
256376,001,2022-11-14_24h27.08.632,Info_measure_main_exp,2022.2.2,Win32,60.0132029,,,,,,,,,,,,,,,,,,masks/mask_004.jpg,,,,,,,,,,,,,,,,,,,,,,,,,,,,,,,,,,,,,,,,,,,0,1,1,3,1,,,,,,,,,,,,,,,,,,,,,,,,,,,,,,,,,,,,,,,,,,,,,,
256376,001,2022-11-14_24h27.08.632,Info_measure_main_exp,2022.2.2,Win32,60.0132029,,,,,,,,,,,,,,,,,,masks/mask_005.jpg,,,,,,,,,,,,,,,,,,,,,,,,,,,,,,,,,,,,,,,,,,,0,2,2,4,1,,,,,,,,,,,,,,,,,,,,,,,,,,,,,,,,,,,,,,,,,,,,,,
256376,001,2022-11-14_24h27.08.632,Info_measure_main_exp,2022.2.2,Win32,60.0132029,,,,,,,,,,,,,,,,,,masks/mask_001.jpg,,,,,,,,,,,,,,,,,,,,,,,,,,,,,,,,,,,,,,,,,,,0,3,3,0,1,,,,,,,,,,,,,,,,,,,,,,,,,,,,,,,,,,,,,,,,,,,,,,
256376,001,2022-11-14_24h27.08.632,Info_measure_main_exp,2022.2.2,Win32,60.0132029,,,,,,,,,,,,,,,,,,masks/mask_002.jpg,,,,,,,,,,,,,,,,,,,,,,,,,,,,,,,,,,,,,,,,,,,0,4,4,1,1,,,,,,,,,,,,,,,,,,,,,,,,,,,,,,,,,,,,,,,,,,,,,,
256376,001,2022-11-14_24h27.08.632,Info_measure_main_exp,2022.2.2,Win32,60.0132029,,,,,,,,,,,,,,,,,,masks/mask_003.jpg,,,,,,,,,,,,,,,,,,,,,,,,,,,,,,,,,,,,,,,,,,,,,,,,0,0,0,2,1,,,,,,,,,,,,,,,,,,,,,,,,,,,,,,,,,,,,,,,,,
256376,001,2022-11-14_24h27.08.632,Info_measure_main_exp,2022.2.2,Win32,60.0132029,,,,,,,,,,,,,,,,,,masks/mask_001.jpg,,,,,,,,,,,,,,,,,,,,,,,,,,,,,,,,,,,,,,,,,,,,,,,,0,1,1,0,1,,,,,,,,,,,,,,,,,,,,,,,,,,,,,,,,,,,,,,,,,
256376,001,2022-11-14_24h27.08.632,Info_measure_main_exp,2022.2.2,Win32,60.0132029,,,,,,,,,,,,,,,,,,masks/mask_005.jpg,,,,,,,,,,,,,,,,,,,,,,,,,,,,,,,,,,,,,,,,,,,,,,,,0,2,2,4,1,,,,,,,,,,,,,,,,,,,,,,,,,,,,,,,,,,,,,,,,,
256376,001,2022-11-14_24h27.08.632,Info_measure_main_exp,2022.2.2,Win32,60.0132029,,,,,,,,,,,,,,,,,,masks/mask_002.jpg,,,,,,,,,,,,,,,,,,,,,,,,,,,,,,,,,,,,,,,,,,,,,,,,0,3,3,1,1,,,,,,,,,,,,,,,,,,,,,,,,,,,,,,,,,,,,,,,,,
256376,001,2022-11-14_24h27.08.632,Info_measure_main_exp,2022.2.2,Win32,60.0132029,,,,,,,,,,,,,,,,,,masks/mask_004.jpg,,,,,,,,,,,,,,,,,,,,,,,,,,,,,,,,,,,,,,,,,,,,,,,,0,4,4,3,1,,,,,,,,,,,,,,,,,,,,,,,,,,,,,,,,,,,,,,,,,
256376,001,2022-11-14_24h27.08.632,Info_measure_main_exp,2022.2.2,Win32,60.0132029,,,,,,,,,,,,,,,,,,,,,,,,,,,,,,6,0.9002,1,,,,,,,,,,,,0,131,5,5,2154,1974,absent_patch/patch0002154.jpg,absent_patch/patch0001974.jpg,,,,,,,,,,,,,,,,,,,,0.125,0.03125,1,0,0,response1disk,30,-0.005208333,-0.0078125,1,0,0,center_square,0,29,29,82,1,,,,,,,,,,,,,,,,,,,,,,,
256376,001,2022-11-14_24h27.08.632,Info_measure_main_exp,2022.2.2,Win32,60.0132029,,,,,,,,,,,,,,,,,,masks/mask_002.jpg,,,,,,,,,,,,,,,,,,,,,,,,,,,,,,,,,,,,,,,,,,,0,0,0,1,1,,,,,,,,,,,,,,,,,,,,,,,,,,,,,,,,,,,,,,,,,,,,,,
256376,001,2022-11-14_24h27.08.632,Info_measure_main_exp,2022.2.2,Win32,60.0132029,,,,,,,,,,,,,,,,,,masks/mask_003.jpg,,,,,,,,,,,,,,,,,,,,,,,,,,,,,,,,,,,,,,,,,,,0,1,1,2,1,,,,,,,,,,,,,,,,,,,,,,,,,,,,,,,,,,,,,,,,,,,,,,
256376,001,2022-11-14_24h27.08.632,Info_measure_main_exp,2022.2.2,Win32,60.0132029,,,,,,,,,,,,,,,,,,masks/mask_004.jpg,,,,,,,,,,,,,,,,,,,,,,,,,,,,,,,,,,,,,,,,,,,0,2,2,3,1,,,,,,,,,,,,,,,,,,,,,,,,,,,,,,,,,,,,,,,,,,,,,,
256376,001,2022-11-14_24h27.08.632,Info_measure_main_exp,2022.2.2,Win32,60.0132029,,,,,,,,,,,,,,,,,,masks/mask_001.jpg,,,,,,,,,,,,,,,,,,,,,,,,,,,,,,,,,,,,,,,,,,,0,3,3,0,1,,,,,,,,,,,,,,,,,,,,,,,,,,,,,,,,,,,,,,,,,,,,,,
256376,001,2022-11-14_24h27.08.632,Info_measure_main_exp,2022.2.2,Win32,60.0132029,,,,,,,,,,,,,,,,,,masks/mask_005.jpg,,,,,,,,,,,,,,,,,,,,,,,,,,,,,,,,,,,,,,,,,,,0,4,4,4,1,,,,,,,,,,,,,,,,,,,,,,,,,,,,,,,,,,,,,,,,,,,,,,
256376,001,2022-11-14_24h27.08.632,Info_measure_main_exp,2022.2.2,Win32,60.0132029,,,,,,,,,,,,,,,,,,masks/mask_004.jpg,,,,,,,,,,,,,,,,,,,,,,,,,,,,,,,,,,,,,,,,,,,,,,,,0,0,0,3,1,,,,,,,,,,,,,,,,,,,,,,,,,,,,,,,,,,,,,,,,,
256376,001,2022-11-14_24h27.08.632,Info_measure_main_exp,2022.2.2,Win32,60.0132029,,,,,,,,,,,,,,,,,,masks/mask_001.jpg,,,,,,,,,,,,,,,,,,,,,,,,,,,,,,,,,,,,,,,,,,,,,,,,0,1,1,0,1,,,,,,,,,,,,,,,,,,,,,,,,,,,,,,,,,,,,,,,,,
256376,001,2022-11-14_24h27.08.632,Info_measure_main_exp,2022.2.2,Win32,60.0132029,,,,,,,,,,,,,,,,,,masks/mask_005.jpg,,,,,,,,,,,,,,,,,,,,,,,,,,,,,,,,,,,,,,,,,,,,,,,,0,2,2,4,1,,,,,,,,,,,,,,,,,,,,,,,,,,,,,,,,,,,,,,,,,
256376,001,2022-11-14_24h27.08.632,Info_measure_main_exp,2022.2.2,Win32,60.0132029,,,,,,,,,,,,,,,,,,masks/mask_003.jpg,,,,,,,,,,,,,,,,,,,,,,,,,,,,,,,,,,,,,,,,,,,,,,,,0,3,3,2,1,,,,,,,,,,,,,,,,,,,,,,,,,,,,,,,,,,,,,,,,,
256376,001,2022-11-14_24h27.08.632,Info_measure_main_exp,2022.2.2,Win32,60.0132029,,,,,,,,,,,,,,,,,,masks/mask_002.jpg,,,,,,,,,,,,,,,,,,,,,,,,,,,,,,,,,,,,,,,,,,,,,,,,0,4,4,1,1,,,,,,,,,,,,,,,,,,,,,,,,,,,,,,,,,,,,,,,,,
256376,001,2022-11-14_24h27.08.632,Info_measure_main_exp,2022.2.2,Win32,60.0132029,,,,,,,,,,,,,,,,,,,,,,,,,,,,,,6,1.5835,1,,,,,,,,,,,,0,131,5,5,2214,2166,absent_patch/patch0002214.jpg,absent_patch/patch0002166.jpg,,,,,,,,,,,,,,,,,,,,0.140625,0.067708333,1,0,0,response1disk,31,-0.009114583,0.005208333,1,0,0,center_square,0,30,30,109,1,,,,,,,,,,,,,,,,,,,,,,,
256376,001,2022-11-14_24h27.08.632,Info_measure_main_exp,2022.2.2,Win32,60.0132029,,,,,,,,,,,,,,,,,,masks/mask_004.jpg,,,,,,,,,,,,,,,,,,,,,,,,,,,,,,,,,,,,,,,,,,,0,0,0,3,1,,,,,,,,,,,,,,,,,,,,,,,,,,,,,,,,,,,,,,,,,,,,,,
256376,001,2022-11-14_24h27.08.632,Info_measure_main_exp,2022.2.2,Win32,60.0132029,,,,,,,,,,,,,,,,,,masks/mask_001.jpg,,,,,,,,,,,,,,,,,,,,,,,,,,,,,,,,,,,,,,,,,,,0,1,1,0,1,,,,,,,,,,,,,,,,,,,,,,,,,,,,,,,,,,,,,,,,,,,,,,
256376,001,2022-11-14_24h27.08.632,Info_measure_main_exp,2022.2.2,Win32,60.0132029,,,,,,,,,,,,,,,,,,masks/mask_003.jpg,,,,,,,,,,,,,,,,,,,,,,,,,,,,,,,,,,,,,,,,,,,0,2,2,2,1,,,,,,,,,,,,,,,,,,,,,,,,,,,,,,,,,,,,,,,,,,,,,,
256376,001,2022-11-14_24h27.08.632,Info_measure_main_exp,2022.2.2,Win32,60.0132029,,,,,,,,,,,,,,,,,,masks/mask_002.jpg,,,,,,,,,,,,,,,,,,,,,,,,,,,,,,,,,,,,,,,,,,,0,3,3,1,1,,,,,,,,,,,,,,,,,,,,,,,,,,,,,,,,,,,,,,,,,,,,,,
256376,001,2022-11-14_24h27.08.632,Info_measure_main_exp,2022.2.2,Win32,60.0132029,,,,,,,,,,,,,,,,,,masks/mask_005.jpg,,,,,,,,,,,,,,,,,,,,,,,,,,,,,,,,,,,,,,,,,,,0,4,4,4,1,,,,,,,,,,,,,,,,,,,,,,,,,,,,,,,,,,,,,,,,,,,,,,
256376,001,2022-11-14_24h27.08.632,Info_measure_main_exp,2022.2.2,Win32,60.0132029,,,,,,,,,,,,,,,,,,masks/mask_003.jpg,,,,,,,,,,,,,,,,,,,,,,,,,,,,,,,,,,,,,,,,,,,,,,,,0,0,0,2,1,,,,,,,,,,,,,,,,,,,,,,,,,,,,,,,,,,,,,,,,,
256376,001,2022-11-14_24h27.08.632,Info_measure_main_exp,2022.2.2,Win32,60.0132029,,,,,,,,,,,,,,,,,,masks/mask_001.jpg,,,,,,,,,,,,,,,,,,,,,,,,,,,,,,,,,,,,,,,,,,,,,,,,0,1,1,0,1,,,,,,,,,,,,,,,,,,,,,,,,,,,,,,,,,,,,,,,,,
256376,001,2022-11-14_24h27.08.632,Info_measure_main_exp,2022.2.2,Win32,60.0132029,,,,,,,,,,,,,,,,,,masks/mask_005.jpg,,,,,,,,,,,,,,,,,,,,,,,,,,,,,,,,,,,,,,,,,,,,,,,,0,2,2,4,1,,,,,,,,,,,,,,,,,,,,,,,,,,,,,,,,,,,,,,,,,
256376,001,2022-11-14_24h27.08.632,Info_measure_main_exp,2022.2.2,Win32,60.0132029,,,,,,,,,,,,,,,,,,masks/mask_004.jpg,,,,,,,,,,,,,,,,,,,,,,,,,,,,,,,,,,,,,,,,,,,,,,,,0,3,3,3,1,,,,,,,,,,,,,,,,,,,,,,,,,,,,,,,,,,,,,,,,,
256376,001,2022-11-14_24h27.08.632,Info_measure_main_exp,2022.2.2,Win32,60.0132029,,,,,,,,,,,,,,,,,,masks/mask_002.jpg,,,,,,,,,,,,,,,,,,,,,,,,,,,,,,,,,,,,,,,,,,,,,,,,0,4,4,1,1,,,,,,,,,,,,,,,,,,,,,,,,,,,,,,,,,,,,,,,,,
256376,001,2022-11-14_24h27.08.632,Info_measure_main_exp,2022.2.2,Win32,60.0132029,,,,,,,,,,,,,,,,,,,,,,,,,,,,,,4,2.2837,1,,,,,,,,,,,,0,131,5,5,2166,1986,absent_patch/patch0002166.jpg,absent_patch/patch0001986.jpg,,,,,,,,,,,,,,,,,,,,0.063802083,-0.110677083,1,0,0,response3disk,32,-0.002604167,-0.002604167,1,0,0,center_square,0,31,31,47,1,,,,,,,,,,,,,,,,,,,,,,,
256376,001,2022-11-14_24h27.08.632,Info_measure_main_exp,2022.2.2,Win32,60.0132029,,,,,,,,,,,,,,,,,,masks/mask_005.jpg,,,,,,,,,,,,,,,,,,,,,,,,,,,,,,,,,,,,,,,,,,,0,0,0,4,1,,,,,,,,,,,,,,,,,,,,,,,,,,,,,,,,,,,,,,,,,,,,,,
256376,001,2022-11-14_24h27.08.632,Info_measure_main_exp,2022.2.2,Win32,60.0132029,,,,,,,,,,,,,,,,,,masks/mask_003.jpg,,,,,,,,,,,,,,,,,,,,,,,,,,,,,,,,,,,,,,,,,,,0,1,1,2,1,,,,,,,,,,,,,,,,,,,,,,,,,,,,,,,,,,,,,,,,,,,,,,
256376,001,2022-11-14_24h27.08.632,Info_measure_main_exp,2022.2.2,Win32,60.0132029,,,,,,,,,,,,,,,,,,masks/mask_004.jpg,,,,,,,,,,,,,,,,,,,,,,,,,,,,,,,,,,,,,,,,,,,0,2,2,3,1,,,,,,,,,,,,,,,,,,,,,,,,,,,,,,,,,,,,,,,,,,,,,,
256376,001,2022-11-14_24h27.08.632,Info_measure_main_exp,2022.2.2,Win32,60.0132029,,,,,,,,,,,,,,,,,,masks/mask_002.jpg,,,,,,,,,,,,,,,,,,,,,,,,,,,,,,,,,,,,,,,,,,,0,3,3,1,1,,,,,,,,,,,,,,,,,,,,,,,,,,,,,,,,,,,,,,,,,,,,,,
256376,001,2022-11-14_24h27.08.632,Info_measure_main_exp,2022.2.2,Win32,60.0132029,,,,,,,,,,,,,,,,,,masks/mask_001.jpg,,,,,,,,,,,,,,,,,,,,,,,,,,,,,,,,,,,,,,,,,,,0,4,4,0,1,,,,,,,,,,,,,,,,,,,,,,,,,,,,,,,,,,,,,,,,,,,,,,
256376,001,2022-11-14_24h27.08.632,Info_measure_main_exp,2022.2.2,Win32,60.0132029,,,,,,,,,,,,,,,,,,masks/mask_004.jpg,,,,,,,,,,,,,,,,,,,,,,,,,,,,,,,,,,,,,,,,,,,,,,,,0,0,0,3,1,,,,,,,,,,,,,,,,,,,,,,,,,,,,,,,,,,,,,,,,,
256376,001,2022-11-14_24h27.08.632,Info_measure_main_exp,2022.2.2,Win32,60.0132029,,,,,,,,,,,,,,,,,,masks/mask_001.jpg,,,,,,,,,,,,,,,,,,,,,,,,,,,,,,,,,,,,,,,,,,,,,,,,0,1,1,0,1,,,,,,,,,,,,,,,,,,,,,,,,,,,,,,,,,,,,,,,,,
256376,001,2022-11-14_24h27.08.632,Info_measure_main_exp,2022.2.2,Win32,60.0132029,,,,,,,,,,,,,,,,,,masks/mask_002.jpg,,,,,,,,,,,,,,,,,,,,,,,,,,,,,,,,,,,,,,,,,,,,,,,,0,2,2,1,1,,,,,,,,,,,,,,,,,,,,,,,,,,,,,,,,,,,,,,,,,
256376,001,2022-11-14_24h27.08.632,Info_measure_main_exp,2022.2.2,Win32,60.0132029,,,,,,,,,,,,,,,,,,masks/mask_003.jpg,,,,,,,,,,,,,,,,,,,,,,,,,,,,,,,,,,,,,,,,,,,,,,,,0,3,3,2,1,,,,,,,,,,,,,,,,,,,,,,,,,,,,,,,,,,,,,,,,,
256376,001,2022-11-14_24h27.08.632,Info_measure_main_exp,2022.2.2,Win32,60.0132029,,,,,,,,,,,,,,,,,,masks/mask_005.jpg,,,,,,,,,,,,,,,,,,,,,,,,,,,,,,,,,,,,,,,,,,,,,,,,0,4,4,4,1,,,,,,,,,,,,,,,,,,,,,,,,,,,,,,,,,,,,,,,,,
256376,001,2022-11-14_24h27.08.632,Info_measure_main_exp,2022.2.2,Win32,60.0132029,,,,,,,,,,,,,,,,,,,,,,,,,,,,,,4,1.05,1,,,,,,,,,,,,0,131,5,5,1986,2274,absent_patch/patch0001986.jpg,absent_patch/patch0002274.jpg,,,,,,,,,,,,,,,,,,,,0.020833333,-0.110677083,1,0,0,response3disk,33,-0.0078125,0.00390625,1,0,0,center_square,0,32,32,7,1,,,,,,,,,,,,,,,,,,,,,,,
256376,001,2022-11-14_24h27.08.632,Info_measure_main_exp,2022.2.2,Win32,60.0132029,,,,,,,,,,,,,,,,,,masks/mask_003.jpg,,,,,,,,,,,,,,,,,,,,,,,,,,,,,,,,,,,,,,,,,,,0,0,0,2,1,,,,,,,,,,,,,,,,,,,,,,,,,,,,,,,,,,,,,,,,,,,,,,
256376,001,2022-11-14_24h27.08.632,Info_measure_main_exp,2022.2.2,Win32,60.0132029,,,,,,,,,,,,,,,,,,masks/mask_002.jpg,,,,,,,,,,,,,,,,,,,,,,,,,,,,,,,,,,,,,,,,,,,0,1,1,1,1,,,,,,,,,,,,,,,,,,,,,,,,,,,,,,,,,,,,,,,,,,,,,,
256376,001,2022-11-14_24h27.08.632,Info_measure_main_exp,2022.2.2,Win32,60.0132029,,,,,,,,,,,,,,,,,,masks/mask_004.jpg,,,,,,,,,,,,,,,,,,,,,,,,,,,,,,,,,,,,,,,,,,,0,2,2,3,1,,,,,,,,,,,,,,,,,,,,,,,,,,,,,,,,,,,,,,,,,,,,,,
256376,001,2022-11-14_24h27.08.632,Info_measure_main_exp,2022.2.2,Win32,60.0132029,,,,,,,,,,,,,,,,,,masks/mask_001.jpg,,,,,,,,,,,,,,,,,,,,,,,,,,,,,,,,,,,,,,,,,,,0,3,3,0,1,,,,,,,,,,,,,,,,,,,,,,,,,,,,,,,,,,,,,,,,,,,,,,
256376,001,2022-11-14_24h27.08.632,Info_measure_main_exp,2022.2.2,Win32,60.0132029,,,,,,,,,,,,,,,,,,masks/mask_005.jpg,,,,,,,,,,,,,,,,,,,,,,,,,,,,,,,,,,,,,,,,,,,0,4,4,4,1,,,,,,,,,,,,,,,,,,,,,,,,,,,,,,,,,,,,,,,,,,,,,,
256376,001,2022-11-14_24h27.08.632,Info_measure_main_exp,2022.2.2,Win32,60.0132029,,,,,,,,,,,,,,,,,,masks/mask_001.jpg,,,,,,,,,,,,,,,,,,,,,,,,,,,,,,,,,,,,,,,,,,,,,,,,0,0,0,0,1,,,,,,,,,,,,,,,,,,,,,,,,,,,,,,,,,,,,,,,,,
256376,001,2022-11-14_24h27.08.632,Info_measure_main_exp,2022.2.2,Win32,60.0132029,,,,,,,,,,,,,,,,,,masks/mask_005.jpg,,,,,,,,,,,,,,,,,,,,,,,,,,,,,,,,,,,,,,,,,,,,,,,,0,1,1,4,1,,,,,,,,,,,,,,,,,,,,,,,,,,,,,,,,,,,,,,,,,
256376,001,2022-11-14_24h27.08.632,Info_measure_main_exp,2022.2.2,Win32,60.0132029,,,,,,,,,,,,,,,,,,masks/mask_003.jpg,,,,,,,,,,,,,,,,,,,,,,,,,,,,,,,,,,,,,,,,,,,,,,,,0,2,2,2,1,,,,,,,,,,,,,,,,,,,,,,,,,,,,,,,,,,,,,,,,,
256376,001,2022-11-14_24h27.08.632,Info_measure_main_exp,2022.2.2,Win32,60.0132029,,,,,,,,,,,,,,,,,,masks/mask_002.jpg,,,,,,,,,,,,,,,,,,,,,,,,,,,,,,,,,,,,,,,,,,,,,,,,0,3,3,1,1,,,,,,,,,,,,,,,,,,,,,,,,,,,,,,,,,,,,,,,,,
256376,001,2022-11-14_24h27.08.632,Info_measure_main_exp,2022.2.2,Win32,60.0132029,,,,,,,,,,,,,,,,,,masks/mask_004.jpg,,,,,,,,,,,,,,,,,,,,,,,,,,,,,,,,,,,,,,,,,,,,,,,,0,4,4,3,1,,,,,,,,,,,,,,,,,,,,,,,,,,,,,,,,,,,,,,,,,
256376,001,2022-11-14_24h27.08.632,Info_measure_main_exp,2022.2.2,Win32,60.0132029,,,,,,,,,,,,,,,,,,,,,,,,,,,,,,7,1.2336,1,,,,,,,,,,,,0,131,5,5,2250,2166,absent_patch/patch0002250.jpg,absent_patch/patch0002166.jpg,,,,,,,,,,,,,,,,,,,,0.048177083,0.100260417,1,0,0,response1disk,34,0.0078125,0,1,0,0,center_square,0,33,33,60,1,,,,,,,,,,,,,,,,,,,,,,,
256376,001,2022-11-14_24h27.08.632,Info_measure_main_exp,2022.2.2,Win32,60.0132029,,,,,,,,,,,,,,,,,,masks/mask_002.jpg,,,,,,,,,,,,,,,,,,,,,,,,,,,,,,,,,,,,,,,,,,,0,0,0,1,1,,,,,,,,,,,,,,,,,,,,,,,,,,,,,,,,,,,,,,,,,,,,,,
256376,001,2022-11-14_24h27.08.632,Info_measure_main_exp,2022.2.2,Win32,60.0132029,,,,,,,,,,,,,,,,,,masks/mask_003.jpg,,,,,,,,,,,,,,,,,,,,,,,,,,,,,,,,,,,,,,,,,,,0,1,1,2,1,,,,,,,,,,,,,,,,,,,,,,,,,,,,,,,,,,,,,,,,,,,,,,
256376,001,2022-11-14_24h27.08.632,Info_measure_main_exp,2022.2.2,Win32,60.0132029,,,,,,,,,,,,,,,,,,masks/mask_001.jpg,,,,,,,,,,,,,,,,,,,,,,,,,,,,,,,,,,,,,,,,,,,0,2,2,0,1,,,,,,,,,,,,,,,,,,,,,,,,,,,,,,,,,,,,,,,,,,,,,,
256376,001,2022-11-14_24h27.08.632,Info_measure_main_exp,2022.2.2,Win32,60.0132029,,,,,,,,,,,,,,,,,,masks/mask_005.jpg,,,,,,,,,,,,,,,,,,,,,,,,,,,,,,,,,,,,,,,,,,,0,3,3,4,1,,,,,,,,,,,,,,,,,,,,,,,,,,,,,,,,,,,,,,,,,,,,,,
256376,001,2022-11-14_24h27.08.632,Info_measure_main_exp,2022.2.2,Win32,60.0132029,,,,,,,,,,,,,,,,,,masks/mask_004.jpg,,,,,,,,,,,,,,,,,,,,,,,,,,,,,,,,,,,,,,,,,,,0,4,4,3,1,,,,,,,,,,,,,,,,,,,,,,,,,,,,,,,,,,,,,,,,,,,,,,
256376,001,2022-11-14_24h27.08.632,Info_measure_main_exp,2022.2.2,Win32,60.0132029,,,,,,,,,,,,,,,,,,masks/mask_001.jpg,,,,,,,,,,,,,,,,,,,,,,,,,,,,,,,,,,,,,,,,,,,,,,,,0,0,0,0,1,,,,,,,,,,,,,,,,,,,,,,,,,,,,,,,,,,,,,,,,,
256376,001,2022-11-14_24h27.08.632,Info_measure_main_exp,2022.2.2,Win32,60.0132029,,,,,,,,,,,,,,,,,,masks/mask_004.jpg,,,,,,,,,,,,,,,,,,,,,,,,,,,,,,,,,,,,,,,,,,,,,,,,0,1,1,3,1,,,,,,,,,,,,,,,,,,,,,,,,,,,,,,,,,,,,,,,,,
256376,001,2022-11-14_24h27.08.632,Info_measure_main_exp,2022.2.2,Win32,60.0132029,,,,,,,,,,,,,,,,,,masks/mask_002.jpg,,,,,,,,,,,,,,,,,,,,,,,,,,,,,,,,,,,,,,,,,,,,,,,,0,2,2,1,1,,,,,,,,,,,,,,,,,,,,,,,,,,,,,,,,,,,,,,,,,
256376,001,2022-11-14_24h27.08.632,Info_measure_main_exp,2022.2.2,Win32,60.0132029,,,,,,,,,,,,,,,,,,masks/mask_003.jpg,,,,,,,,,,,,,,,,,,,,,,,,,,,,,,,,,,,,,,,,,,,,,,,,0,3,3,2,1,,,,,,,,,,,,,,,,,,,,,,,,,,,,,,,,,,,,,,,,,
256376,001,2022-11-14_24h27.08.632,Info_measure_main_exp,2022.2.2,Win32,60.0132029,,,,,,,,,,,,,,,,,,masks/mask_005.jpg,,,,,,,,,,,,,,,,,,,,,,,,,,,,,,,,,,,,,,,,,,,,,,,,0,4,4,4,1,,,,,,,,,,,,,,,,,,,,,,,,,,,,,,,,,,,,,,,,,
