participant,session,date,expName,psychopyVersion,OS,frameRate,space_press_continue.keys,space_press_continue.rt,space_press_continue_2.keys,space_press_continue_2.rt,space_press_continue_3.keys,space_press_continue_3.rt,space_press_continue_4.keys,space_press_continue_4.rt,space_press_continue_5.keys,space_press_continue_5.rt,space_press_continue_6.keys,space_press_continue_6.rt,prac_mask_loop_1.thisRepN,prac_mask_loop_1.thisTrialN,prac_mask_loop_1.thisN,prac_mask_loop_1.thisIndex,prac_mask_loop_1.ran,mask_name,prac_mask_loop_2.thisRepN,prac_mask_loop_2.thisTrialN,prac_mask_loop_2.thisN,prac_mask_loop_2.thisIndex,prac_mask_loop_2.ran,mouse_2.x,mouse_2.y,mouse_2.leftButton,mouse_2.midButton,mouse_2.rightButton,mouse_2.clicked_name,similarity,response_time,Pass,mouse_12.x,mouse_12.y,mouse_12.leftButton,mouse_12.midButton,mouse_12.rightButton,mouse_12.clicked_name,prac_loop.thisRepN,prac_loop.thisTrialN,prac_loop.thisN,prac_loop.thisIndex,prac_loop.ran,Pair_type,Image_num,Patch_1_loc,Patch_2_loc,Patch_1_info,Patch_2_info,Patch_1_name,Patch_2_name,mouse_1.x,mouse_1.y,mouse_1.leftButton,mouse_1.midButton,mouse_1.rightButton,mouse_1.time,mouse_1.clicked_name,space_press_continue_7.keys,space_press_continue_7.rt,mask_loop.thisRepN,mask_loop.thisTrialN,mask_loop.thisN,mask_loop.thisIndex,mask_loop.ran,mask_loop_2.thisRepN,mask_loop_2.thisTrialN,mask_loop_2.thisN,mask_loop_2.thisIndex,mask_loop_2.ran,mouse.x,mouse.y,mouse.leftButton,mouse.midButton,mouse.rightButton,mouse.clicked_name,trialNumber,mouse_11.x,mouse_11.y,mouse_11.leftButton,mouse_11.midButton,mouse_11.rightButton,mouse_11.clicked_name,first_pass_loop.thisRepN,first_pass_loop.thisTrialN,first_pass_loop.thisN,first_pass_loop.thisIndex,first_pass_loop.ran,mask_loop_3.thisRepN,mask_loop_3.thisTrialN,mask_loop_3.thisN,mask_loop_3.thisIndex,mask_loop_3.ran,mask_loop_4.thisRepN,mask_loop_4.thisTrialN,mask_loop_4.thisN,mask_loop_4.thisIndex,mask_loop_4.ran,mouse_3.x,mouse_3.y,mouse_3.leftButton,mouse_3.midButton,mouse_3.rightButton,mouse_3.clicked_name,double_pass_loop.thisRepN,double_pass_loop.thisTrialN,double_pass_loop.thisN,double_pass_loop.thisIndex,double_pass_loop.ran,space_exit.keys,space_exit.rt
258857,001,2022-11-20_17h56.49.157,Info_measure_main_exp,2022.2.2,Win32,59.96641881,,,,,,,,,,,,,,,,,,,,,,,,,,,,,,,,,,,,,,,,,,,,,,,,,,,,,,,,,,,,,,,,,,,,,,,,,,,,,,,,,,,,,,,,,,,,,,,,,,,,,,,,,,,,,,,
258857,001,2022-11-20_17h56.49.157,Info_measure_main_exp,2022.2.2,Win32,59.96641881,,,,,,,,,,,,,,,,,,,,,,,,,,,,,,,,,,,,,,,,,,,,,,,,,,,,,,,,,,,,,,,,,,,,,,,,,,,,,,,,,,,,,,,,,,,,,,,,,,,,,,,,,,,,,,,
258857,001,2022-11-20_17h56.49.157,Info_measure_main_exp,2022.2.2,Win32,59.96641881,space,6.1164,,,,,,,,,,,,,,,,,,,,,,,,,,,,,,,,,,,,,,,,,,,,,,,,,,,,,,,,,,,,,,,,,,,,,,,,,,,,,,,,,,,,,,,,,,,,,,,,,,,,,,,,,,,,,
258857,001,2022-11-20_17h56.49.157,Info_measure_main_exp,2022.2.2,Win32,59.96641881,,,space,19.0351,,,,,,,,,,,,,,,,,,,,,,,,,,,,,,,,,,,,,,,,,,,,,,,,,,,,,,,,,,,,,,,,,,,,,,,,,,,,,,,,,,,,,,,,,,,,,,,,,,,,,,,,,,,
258857,001,2022-11-20_17h56.49.157,Info_measure_main_exp,2022.2.2,Win32,59.96641881,,,,,space,12.0146,,,,,,,,,,,,,,,,,,,,,,,,,,,,,,,,,,,,,,,,,,,,,,,,,,,,,,,,,,,,,,,,,,,,,,,,,,,,,,,,,,,,,,,,,,,,,,,,,,,,,,,,,
258857,001,2022-11-20_17h56.49.157,Info_measure_main_exp,2022.2.2,Win32,59.96641881,,,,,,,space,29.5523,,,,,,,,,,,,,,,,,,,,,,,,,,,,,,,,,,,,,,,,,,,,,,,,,,,,,,,,,,,,,,,,,,,,,,,,,,,,,,,,,,,,,,,,,,,,,,,,,,,,,,,
258857,001,2022-11-20_17h56.49.157,Info_measure_main_exp,2022.2.2,Win32,59.96641881,,,,,,,,,space,7.2507,,,,,,,,,,,,,,,,,,,,,,,,,,,,,,,,,,,,,,,,,,,,,,,,,,,,,,,,,,,,,,,,,,,,,,,,,,,,,,,,,,,,,,,,,,,,,,,,,,,,,
258857,001,2022-11-20_17h56.49.157,Info_measure_main_exp,2022.2.2,Win32,59.96641881,,,,,,,,,,,space,4.7812,,,,,,,,,,,,,,,,,,,,,,,,,,,,,,,,,,,,,,,,,,,,,,,,,,,,,,,,,,,,,,,,,,,,,,,,,,,,,,,,,,,,,,,,,,,,,,,,,,,
258857,001,2022-11-20_17h56.49.157,Info_measure_main_exp,2022.2.2,Win32,59.96641881,,,,,,,,,,,,,0,0,0,4,1,masks/mask_005.jpg,,,,,,,,,,,,,,,,,,,,,,,,,,,,,,,,,,,,,,,,,,,,,,,,,,,,,,,,,,,,,,,,,,,,,,,,,,,,,,,,,,,,,,,,,,,,,
258857,001,2022-11-20_17h56.49.157,Info_measure_main_exp,2022.2.2,Win32,59.96641881,,,,,,,,,,,,,0,1,1,1,1,masks/mask_002.jpg,,,,,,,,,,,,,,,,,,,,,,,,,,,,,,,,,,,,,,,,,,,,,,,,,,,,,,,,,,,,,,,,,,,,,,,,,,,,,,,,,,,,,,,,,,,,,
258857,001,2022-11-20_17h56.49.157,Info_measure_main_exp,2022.2.2,Win32,59.96641881,,,,,,,,,,,,,0,2,2,3,1,masks/mask_004.jpg,,,,,,,,,,,,,,,,,,,,,,,,,,,,,,,,,,,,,,,,,,,,,,,,,,,,,,,,,,,,,,,,,,,,,,,,,,,,,,,,,,,,,,,,,,,,,
258857,001,2022-11-20_17h56.49.157,Info_measure_main_exp,2022.2.2,Win32,59.96641881,,,,,,,,,,,,,0,3,3,2,1,masks/mask_003.jpg,,,,,,,,,,,,,,,,,,,,,,,,,,,,,,,,,,,,,,,,,,,,,,,,,,,,,,,,,,,,,,,,,,,,,,,,,,,,,,,,,,,,,,,,,,,,,
258857,001,2022-11-20_17h56.49.157,Info_measure_main_exp,2022.2.2,Win32,59.96641881,,,,,,,,,,,,,0,4,4,0,1,masks/mask_001.jpg,,,,,,,,,,,,,,,,,,,,,,,,,,,,,,,,,,,,,,,,,,,,,,,,,,,,,,,,,,,,,,,,,,,,,,,,,,,,,,,,,,,,,,,,,,,,,
258857,001,2022-11-20_17h56.49.157,Info_measure_main_exp,2022.2.2,Win32,59.96641881,,,,,,,,,,,,,,,,,,masks/mask_004.jpg,0,0,0,3,1,,,,,,,,,,,,,,,,,,,,,,,,,,,,,,,,,,,,,,,,,,,,,,,,,,,,,,,,,,,,,,,,,,,,,,,,,,,,,,,,,,,,,,,,
258857,001,2022-11-20_17h56.49.157,Info_measure_main_exp,2022.2.2,Win32,59.96641881,,,,,,,,,,,,,,,,,,masks/mask_005.jpg,0,1,1,4,1,,,,,,,,,,,,,,,,,,,,,,,,,,,,,,,,,,,,,,,,,,,,,,,,,,,,,,,,,,,,,,,,,,,,,,,,,,,,,,,,,,,,,,,,
258857,001,2022-11-20_17h56.49.157,Info_measure_main_exp,2022.2.2,Win32,59.96641881,,,,,,,,,,,,,,,,,,masks/mask_003.jpg,0,2,2,2,1,,,,,,,,,,,,,,,,,,,,,,,,,,,,,,,,,,,,,,,,,,,,,,,,,,,,,,,,,,,,,,,,,,,,,,,,,,,,,,,,,,,,,,,,
258857,001,2022-11-20_17h56.49.157,Info_measure_main_exp,2022.2.2,Win32,59.96641881,,,,,,,,,,,,,,,,,,masks/mask_002.jpg,0,3,3,1,1,,,,,,,,,,,,,,,,,,,,,,,,,,,,,,,,,,,,,,,,,,,,,,,,,,,,,,,,,,,,,,,,,,,,,,,,,,,,,,,,,,,,,,,,
258857,001,2022-11-20_17h56.49.157,Info_measure_main_exp,2022.2.2,Win32,59.96641881,,,,,,,,,,,,,,,,,,masks/mask_001.jpg,0,4,4,0,1,,,,,,,,,,,,,,,,,,,,,,,,,,,,,,,,,,,,,,,,,,,,,,,,,,,,,,,,,,,,,,,,,,,,,,,,,,,,,,,,,,,,,,,,
258857,001,2022-11-20_17h56.49.157,Info_measure_main_exp,2022.2.2,Win32,59.96641881,,,,,,,,,,,,,,,,,,,,,,,,-0.064814815,0.173148155,1,0,0,response7disk,0,94.042,1,0.001851894,0.002777771,1,0,0,center_square,0,0,0,1,1,0,131,5,5,2514,2490,prac_patch/patch0002514.jpg,prac_patch/patch0002490.jpg,,,,,,,,,,,,,,,,,,,,,,,,,,,,,,,,,,,,,,,,,,,,,,,,,,,,,,,,,,,,
258857,001,2022-11-20_17h56.49.157,Info_measure_main_exp,2022.2.2,Win32,59.96641881,,,,,,,,,,,,,0,0,0,4,1,masks/mask_005.jpg,,,,,,,,,,,,,,,,,,,,,,,,,,,,,,,,,,,,,,,,,,,,,,,,,,,,,,,,,,,,,,,,,,,,,,,,,,,,,,,,,,,,,,,,,,,,,
258857,001,2022-11-20_17h56.49.157,Info_measure_main_exp,2022.2.2,Win32,59.96641881,,,,,,,,,,,,,0,1,1,1,1,masks/mask_002.jpg,,,,,,,,,,,,,,,,,,,,,,,,,,,,,,,,,,,,,,,,,,,,,,,,,,,,,,,,,,,,,,,,,,,,,,,,,,,,,,,,,,,,,,,,,,,,,
258857,001,2022-11-20_17h56.49.157,Info_measure_main_exp,2022.2.2,Win32,59.96641881,,,,,,,,,,,,,0,2,2,2,1,masks/mask_003.jpg,,,,,,,,,,,,,,,,,,,,,,,,,,,,,,,,,,,,,,,,,,,,,,,,,,,,,,,,,,,,,,,,,,,,,,,,,,,,,,,,,,,,,,,,,,,,,
258857,001,2022-11-20_17h56.49.157,Info_measure_main_exp,2022.2.2,Win32,59.96641881,,,,,,,,,,,,,0,3,3,0,1,masks/mask_001.jpg,,,,,,,,,,,,,,,,,,,,,,,,,,,,,,,,,,,,,,,,,,,,,,,,,,,,,,,,,,,,,,,,,,,,,,,,,,,,,,,,,,,,,,,,,,,,,
258857,001,2022-11-20_17h56.49.157,Info_measure_main_exp,2022.2.2,Win32,59.96641881,,,,,,,,,,,,,0,4,4,3,1,masks/mask_004.jpg,,,,,,,,,,,,,,,,,,,,,,,,,,,,,,,,,,,,,,,,,,,,,,,,,,,,,,,,,,,,,,,,,,,,,,,,,,,,,,,,,,,,,,,,,,,,,
258857,001,2022-11-20_17h56.49.157,Info_measure_main_exp,2022.2.2,Win32,59.96641881,,,,,,,,,,,,,,,,,,masks/mask_002.jpg,0,0,0,1,1,,,,,,,,,,,,,,,,,,,,,,,,,,,,,,,,,,,,,,,,,,,,,,,,,,,,,,,,,,,,,,,,,,,,,,,,,,,,,,,,,,,,,,,,
258857,001,2022-11-20_17h56.49.157,Info_measure_main_exp,2022.2.2,Win32,59.96641881,,,,,,,,,,,,,,,,,,masks/mask_004.jpg,0,1,1,3,1,,,,,,,,,,,,,,,,,,,,,,,,,,,,,,,,,,,,,,,,,,,,,,,,,,,,,,,,,,,,,,,,,,,,,,,,,,,,,,,,,,,,,,,,
258857,001,2022-11-20_17h56.49.157,Info_measure_main_exp,2022.2.2,Win32,59.96641881,,,,,,,,,,,,,,,,,,masks/mask_005.jpg,0,2,2,4,1,,,,,,,,,,,,,,,,,,,,,,,,,,,,,,,,,,,,,,,,,,,,,,,,,,,,,,,,,,,,,,,,,,,,,,,,,,,,,,,,,,,,,,,,
258857,001,2022-11-20_17h56.49.157,Info_measure_main_exp,2022.2.2,Win32,59.96641881,,,,,,,,,,,,,,,,,,masks/mask_001.jpg,0,3,3,0,1,,,,,,,,,,,,,,,,,,,,,,,,,,,,,,,,,,,,,,,,,,,,,,,,,,,,,,,,,,,,,,,,,,,,,,,,,,,,,,,,,,,,,,,,
258857,001,2022-11-20_17h56.49.157,Info_measure_main_exp,2022.2.2,Win32,59.96641881,,,,,,,,,,,,,,,,,,masks/mask_003.jpg,0,4,4,2,1,,,,,,,,,,,,,,,,,,,,,,,,,,,,,,,,,,,,,,,,,,,,,,,,,,,,,,,,,,,,,,,,,,,,,,,,,,,,,,,,,,,,,,,,
258857,001,2022-11-20_17h56.49.157,Info_measure_main_exp,2022.2.2,Win32,59.96641881,,,,,,,,,,,,,,,,,,,,,,,,-0.125925912,-0.049074067,1,0,0,response5disk,2,105.8079,1,0.002777806,-0.009259259,1,0,0,center_square,0,1,1,0,1,0,131,5,5,2370,2406,prac_patch/patch0002370.jpg,prac_patch/patch0002406.jpg,,,,,,,,,,,,,,,,,,,,,,,,,,,,,,,,,,,,,,,,,,,,,,,,,,,,,,,,,,,,
258857,001,2022-11-20_17h56.49.157,Info_measure_main_exp,2022.2.2,Win32,59.96641881,,,,,,,,,,,,,0,0,0,2,1,masks/mask_003.jpg,,,,,,,,,,,,,,,,,,,,,,,,,,,,,,,,,,,,,,,,,,,,,,,,,,,,,,,,,,,,,,,,,,,,,,,,,,,,,,,,,,,,,,,,,,,,,
258857,001,2022-11-20_17h56.49.157,Info_measure_main_exp,2022.2.2,Win32,59.96641881,,,,,,,,,,,,,0,1,1,1,1,masks/mask_002.jpg,,,,,,,,,,,,,,,,,,,,,,,,,,,,,,,,,,,,,,,,,,,,,,,,,,,,,,,,,,,,,,,,,,,,,,,,,,,,,,,,,,,,,,,,,,,,,
258857,001,2022-11-20_17h56.49.157,Info_measure_main_exp,2022.2.2,Win32,59.96641881,,,,,,,,,,,,,0,2,2,4,1,masks/mask_005.jpg,,,,,,,,,,,,,,,,,,,,,,,,,,,,,,,,,,,,,,,,,,,,,,,,,,,,,,,,,,,,,,,,,,,,,,,,,,,,,,,,,,,,,,,,,,,,,
258857,001,2022-11-20_17h56.49.157,Info_measure_main_exp,2022.2.2,Win32,59.96641881,,,,,,,,,,,,,0,3,3,0,1,masks/mask_001.jpg,,,,,,,,,,,,,,,,,,,,,,,,,,,,,,,,,,,,,,,,,,,,,,,,,,,,,,,,,,,,,,,,,,,,,,,,,,,,,,,,,,,,,,,,,,,,,
258857,001,2022-11-20_17h56.49.157,Info_measure_main_exp,2022.2.2,Win32,59.96641881,,,,,,,,,,,,,0,4,4,3,1,masks/mask_004.jpg,,,,,,,,,,,,,,,,,,,,,,,,,,,,,,,,,,,,,,,,,,,,,,,,,,,,,,,,,,,,,,,,,,,,,,,,,,,,,,,,,,,,,,,,,,,,,
258857,001,2022-11-20_17h56.49.157,Info_measure_main_exp,2022.2.2,Win32,59.96641881,,,,,,,,,,,,,,,,,,masks/mask_001.jpg,0,0,0,0,1,,,,,,,,,,,,,,,,,,,,,,,,,,,,,,,,,,,,,,,,,,,,,,,,,,,,,,,,,,,,,,,,,,,,,,,,,,,,,,,,,,,,,,,,
258857,001,2022-11-20_17h56.49.157,Info_measure_main_exp,2022.2.2,Win32,59.96641881,,,,,,,,,,,,,,,,,,masks/mask_004.jpg,0,1,1,3,1,,,,,,,,,,,,,,,,,,,,,,,,,,,,,,,,,,,,,,,,,,,,,,,,,,,,,,,,,,,,,,,,,,,,,,,,,,,,,,,,,,,,,,,,
258857,001,2022-11-20_17h56.49.157,Info_measure_main_exp,2022.2.2,Win32,59.96641881,,,,,,,,,,,,,,,,,,masks/mask_002.jpg,0,2,2,1,1,,,,,,,,,,,,,,,,,,,,,,,,,,,,,,,,,,,,,,,,,,,,,,,,,,,,,,,,,,,,,,,,,,,,,,,,,,,,,,,,,,,,,,,,
258857,001,2022-11-20_17h56.49.157,Info_measure_main_exp,2022.2.2,Win32,59.96641881,,,,,,,,,,,,,,,,,,masks/mask_003.jpg,0,3,3,2,1,,,,,,,,,,,,,,,,,,,,,,,,,,,,,,,,,,,,,,,,,,,,,,,,,,,,,,,,,,,,,,,,,,,,,,,,,,,,,,,,,,,,,,,,
258857,001,2022-11-20_17h56.49.157,Info_measure_main_exp,2022.2.2,Win32,59.96641881,,,,,,,,,,,,,,,,,,masks/mask_005.jpg,0,4,4,4,1,,,,,,,,,,,,,,,,,,,,,,,,,,,,,,,,,,,,,,,,,,,,,,,,,,,,,,,,,,,,,,,,,,,,,,,,,,,,,,,,,,,,,,,,
258857,001,2022-11-20_17h56.49.157,Info_measure_main_exp,2022.2.2,Win32,59.96641881,,,,,,,,,,,,,,,,,,,,,,,,-0.037037037,0.098148134,1,0,0,response7disk,0,114.8078,1,0.00462963,-0.005555577,1,0,0,center_square,0,2,2,2,1,0,131,5,5,2526,2526,prac_patch/patch0002526.jpg,prac_patch/patch0002526.jpg,,,,,,,,,,,,,,,,,,,,,,,,,,,,,,,,,,,,,,,,,,,,,,,,,,,,,,,,,,,,
258857,001,2022-11-20_17h56.49.157,Info_measure_main_exp,2022.2.2,Win32,59.96641881,,,,,,,,,,,,,,,,,,,,,,,,,,,,,,,,,,,,,,,,,,,,,,,,,,,,,,,,,,,space,2.5761,,,,,,,,,,,,,,,,,,,,,,,,,,,,,,,,,,,,,,,,,,,,,,,,,,,
258857,001,2022-11-20_17h56.49.157,Info_measure_main_exp,2022.2.2,Win32,59.96641881,,,,,,,,,,,,,,,,,,masks/mask_005.jpg,,,,,,,,,,,,,,,,,,,,,,,,,,,,,,,,,,,,,,,,,,,0,0,0,4,1,,,,,,,,,,,,,,,,,,,,,,,,,,,,,,,,,,,,,,,,,,,,,,
258857,001,2022-11-20_17h56.49.157,Info_measure_main_exp,2022.2.2,Win32,59.96641881,,,,,,,,,,,,,,,,,,masks/mask_001.jpg,,,,,,,,,,,,,,,,,,,,,,,,,,,,,,,,,,,,,,,,,,,0,1,1,0,1,,,,,,,,,,,,,,,,,,,,,,,,,,,,,,,,,,,,,,,,,,,,,,
258857,001,2022-11-20_17h56.49.157,Info_measure_main_exp,2022.2.2,Win32,59.96641881,,,,,,,,,,,,,,,,,,masks/mask_002.jpg,,,,,,,,,,,,,,,,,,,,,,,,,,,,,,,,,,,,,,,,,,,0,2,2,1,1,,,,,,,,,,,,,,,,,,,,,,,,,,,,,,,,,,,,,,,,,,,,,,
258857,001,2022-11-20_17h56.49.157,Info_measure_main_exp,2022.2.2,Win32,59.96641881,,,,,,,,,,,,,,,,,,masks/mask_003.jpg,,,,,,,,,,,,,,,,,,,,,,,,,,,,,,,,,,,,,,,,,,,0,3,3,2,1,,,,,,,,,,,,,,,,,,,,,,,,,,,,,,,,,,,,,,,,,,,,,,
258857,001,2022-11-20_17h56.49.157,Info_measure_main_exp,2022.2.2,Win32,59.96641881,,,,,,,,,,,,,,,,,,masks/mask_004.jpg,,,,,,,,,,,,,,,,,,,,,,,,,,,,,,,,,,,,,,,,,,,0,4,4,3,1,,,,,,,,,,,,,,,,,,,,,,,,,,,,,,,,,,,,,,,,,,,,,,
258857,001,2022-11-20_17h56.49.157,Info_measure_main_exp,2022.2.2,Win32,59.96641881,,,,,,,,,,,,,,,,,,masks/mask_002.jpg,,,,,,,,,,,,,,,,,,,,,,,,,,,,,,,,,,,,,,,,,,,,,,,,0,0,0,1,1,,,,,,,,,,,,,,,,,,,,,,,,,,,,,,,,,,,,,,,,,
258857,001,2022-11-20_17h56.49.157,Info_measure_main_exp,2022.2.2,Win32,59.96641881,,,,,,,,,,,,,,,,,,masks/mask_001.jpg,,,,,,,,,,,,,,,,,,,,,,,,,,,,,,,,,,,,,,,,,,,,,,,,0,1,1,0,1,,,,,,,,,,,,,,,,,,,,,,,,,,,,,,,,,,,,,,,,,
258857,001,2022-11-20_17h56.49.157,Info_measure_main_exp,2022.2.2,Win32,59.96641881,,,,,,,,,,,,,,,,,,masks/mask_004.jpg,,,,,,,,,,,,,,,,,,,,,,,,,,,,,,,,,,,,,,,,,,,,,,,,0,2,2,3,1,,,,,,,,,,,,,,,,,,,,,,,,,,,,,,,,,,,,,,,,,
258857,001,2022-11-20_17h56.49.157,Info_measure_main_exp,2022.2.2,Win32,59.96641881,,,,,,,,,,,,,,,,,,masks/mask_005.jpg,,,,,,,,,,,,,,,,,,,,,,,,,,,,,,,,,,,,,,,,,,,,,,,,0,3,3,4,1,,,,,,,,,,,,,,,,,,,,,,,,,,,,,,,,,,,,,,,,,
258857,001,2022-11-20_17h56.49.157,Info_measure_main_exp,2022.2.2,Win32,59.96641881,,,,,,,,,,,,,,,,,,masks/mask_003.jpg,,,,,,,,,,,,,,,,,,,,,,,,,,,,,,,,,,,,,,,,,,,,,,,,0,4,4,2,1,,,,,,,,,,,,,,,,,,,,,,,,,,,,,,,,,,,,,,,,,
258857,001,2022-11-20_17h56.49.157,Info_measure_main_exp,2022.2.2,Win32,59.96641881,,,,,,,,,,,,,,,,,,,,,,,,,,,,,,7,2.6671,1,,,,,,,,,,,,1,131,5,5,1,1986,present_patch/cong_131_5_a.jpg,absent_patch/patch0001986.jpg,,,,,,,,,,,,,,,,,,,,0.061111097,0.133333312,1,0,0,response1disk,1,0.00462963,-0.005555577,1,0,0,center_square,0,0,0,106,1,,,,,,,,,,,,,,,,,,,,,,,
258857,001,2022-11-20_17h56.49.157,Info_measure_main_exp,2022.2.2,Win32,59.96641881,,,,,,,,,,,,,,,,,,masks/mask_004.jpg,,,,,,,,,,,,,,,,,,,,,,,,,,,,,,,,,,,,,,,,,,,0,0,0,3,1,,,,,,,,,,,,,,,,,,,,,,,,,,,,,,,,,,,,,,,,,,,,,,
258857,001,2022-11-20_17h56.49.157,Info_measure_main_exp,2022.2.2,Win32,59.96641881,,,,,,,,,,,,,,,,,,masks/mask_002.jpg,,,,,,,,,,,,,,,,,,,,,,,,,,,,,,,,,,,,,,,,,,,0,1,1,1,1,,,,,,,,,,,,,,,,,,,,,,,,,,,,,,,,,,,,,,,,,,,,,,
258857,001,2022-11-20_17h56.49.157,Info_measure_main_exp,2022.2.2,Win32,59.96641881,,,,,,,,,,,,,,,,,,masks/mask_003.jpg,,,,,,,,,,,,,,,,,,,,,,,,,,,,,,,,,,,,,,,,,,,0,2,2,2,1,,,,,,,,,,,,,,,,,,,,,,,,,,,,,,,,,,,,,,,,,,,,,,
258857,001,2022-11-20_17h56.49.157,Info_measure_main_exp,2022.2.2,Win32,59.96641881,,,,,,,,,,,,,,,,,,masks/mask_005.jpg,,,,,,,,,,,,,,,,,,,,,,,,,,,,,,,,,,,,,,,,,,,0,3,3,4,1,,,,,,,,,,,,,,,,,,,,,,,,,,,,,,,,,,,,,,,,,,,,,,
258857,001,2022-11-20_17h56.49.157,Info_measure_main_exp,2022.2.2,Win32,59.96641881,,,,,,,,,,,,,,,,,,masks/mask_001.jpg,,,,,,,,,,,,,,,,,,,,,,,,,,,,,,,,,,,,,,,,,,,0,4,4,0,1,,,,,,,,,,,,,,,,,,,,,,,,,,,,,,,,,,,,,,,,,,,,,,
258857,001,2022-11-20_17h56.49.157,Info_measure_main_exp,2022.2.2,Win32,59.96641881,,,,,,,,,,,,,,,,,,masks/mask_004.jpg,,,,,,,,,,,,,,,,,,,,,,,,,,,,,,,,,,,,,,,,,,,,,,,,0,0,0,3,1,,,,,,,,,,,,,,,,,,,,,,,,,,,,,,,,,,,,,,,,,
258857,001,2022-11-20_17h56.49.157,Info_measure_main_exp,2022.2.2,Win32,59.96641881,,,,,,,,,,,,,,,,,,masks/mask_002.jpg,,,,,,,,,,,,,,,,,,,,,,,,,,,,,,,,,,,,,,,,,,,,,,,,0,1,1,1,1,,,,,,,,,,,,,,,,,,,,,,,,,,,,,,,,,,,,,,,,,
258857,001,2022-11-20_17h56.49.157,Info_measure_main_exp,2022.2.2,Win32,59.96641881,,,,,,,,,,,,,,,,,,masks/mask_003.jpg,,,,,,,,,,,,,,,,,,,,,,,,,,,,,,,,,,,,,,,,,,,,,,,,0,2,2,2,1,,,,,,,,,,,,,,,,,,,,,,,,,,,,,,,,,,,,,,,,,
258857,001,2022-11-20_17h56.49.157,Info_measure_main_exp,2022.2.2,Win32,59.96641881,,,,,,,,,,,,,,,,,,masks/mask_001.jpg,,,,,,,,,,,,,,,,,,,,,,,,,,,,,,,,,,,,,,,,,,,,,,,,0,3,3,0,1,,,,,,,,,,,,,,,,,,,,,,,,,,,,,,,,,,,,,,,,,
258857,001,2022-11-20_17h56.49.157,Info_measure_main_exp,2022.2.2,Win32,59.96641881,,,,,,,,,,,,,,,,,,masks/mask_005.jpg,,,,,,,,,,,,,,,,,,,,,,,,,,,,,,,,,,,,,,,,,,,,,,,,0,4,4,4,1,,,,,,,,,,,,,,,,,,,,,,,,,,,,,,,,,,,,,,,,,
258857,001,2022-11-20_17h56.49.157,Info_measure_main_exp,2022.2.2,Win32,59.96641881,,,,,,,,,,,,,,,,,,,,,,,,,,,,,,7,1.5331,1,,,,,,,,,,,,0,131,5,5,2250,2166,absent_patch/patch0002250.jpg,absent_patch/patch0002166.jpg,,,,,,,,,,,,,,,,,,,,0.029629672,0.13703703,1,0,0,response1disk,2,-0.000925912,-0.00462963,1,0,0,center_square,0,1,1,60,1,,,,,,,,,,,,,,,,,,,,,,,
258857,001,2022-11-20_17h56.49.157,Info_measure_main_exp,2022.2.2,Win32,59.96641881,,,,,,,,,,,,,,,,,,masks/mask_004.jpg,,,,,,,,,,,,,,,,,,,,,,,,,,,,,,,,,,,,,,,,,,,0,0,0,3,1,,,,,,,,,,,,,,,,,,,,,,,,,,,,,,,,,,,,,,,,,,,,,,
258857,001,2022-11-20_17h56.49.157,Info_measure_main_exp,2022.2.2,Win32,59.96641881,,,,,,,,,,,,,,,,,,masks/mask_001.jpg,,,,,,,,,,,,,,,,,,,,,,,,,,,,,,,,,,,,,,,,,,,0,1,1,0,1,,,,,,,,,,,,,,,,,,,,,,,,,,,,,,,,,,,,,,,,,,,,,,
258857,001,2022-11-20_17h56.49.157,Info_measure_main_exp,2022.2.2,Win32,59.96641881,,,,,,,,,,,,,,,,,,masks/mask_002.jpg,,,,,,,,,,,,,,,,,,,,,,,,,,,,,,,,,,,,,,,,,,,0,2,2,1,1,,,,,,,,,,,,,,,,,,,,,,,,,,,,,,,,,,,,,,,,,,,,,,
258857,001,2022-11-20_17h56.49.157,Info_measure_main_exp,2022.2.2,Win32,59.96641881,,,,,,,,,,,,,,,,,,masks/mask_005.jpg,,,,,,,,,,,,,,,,,,,,,,,,,,,,,,,,,,,,,,,,,,,0,3,3,4,1,,,,,,,,,,,,,,,,,,,,,,,,,,,,,,,,,,,,,,,,,,,,,,
258857,001,2022-11-20_17h56.49.157,Info_measure_main_exp,2022.2.2,Win32,59.96641881,,,,,,,,,,,,,,,,,,masks/mask_003.jpg,,,,,,,,,,,,,,,,,,,,,,,,,,,,,,,,,,,,,,,,,,,0,4,4,2,1,,,,,,,,,,,,,,,,,,,,,,,,,,,,,,,,,,,,,,,,,,,,,,
258857,001,2022-11-20_17h56.49.157,Info_measure_main_exp,2022.2.2,Win32,59.96641881,,,,,,,,,,,,,,,,,,masks/mask_004.jpg,,,,,,,,,,,,,,,,,,,,,,,,,,,,,,,,,,,,,,,,,,,,,,,,0,0,0,3,1,,,,,,,,,,,,,,,,,,,,,,,,,,,,,,,,,,,,,,,,,
258857,001,2022-11-20_17h56.49.157,Info_measure_main_exp,2022.2.2,Win32,59.96641881,,,,,,,,,,,,,,,,,,masks/mask_003.jpg,,,,,,,,,,,,,,,,,,,,,,,,,,,,,,,,,,,,,,,,,,,,,,,,0,1,1,2,1,,,,,,,,,,,,,,,,,,,,,,,,,,,,,,,,,,,,,,,,,
258857,001,2022-11-20_17h56.49.157,Info_measure_main_exp,2022.2.2,Win32,59.96641881,,,,,,,,,,,,,,,,,,masks/mask_001.jpg,,,,,,,,,,,,,,,,,,,,,,,,,,,,,,,,,,,,,,,,,,,,,,,,0,2,2,0,1,,,,,,,,,,,,,,,,,,,,,,,,,,,,,,,,,,,,,,,,,
258857,001,2022-11-20_17h56.49.157,Info_measure_main_exp,2022.2.2,Win32,59.96641881,,,,,,,,,,,,,,,,,,masks/mask_005.jpg,,,,,,,,,,,,,,,,,,,,,,,,,,,,,,,,,,,,,,,,,,,,,,,,0,3,3,4,1,,,,,,,,,,,,,,,,,,,,,,,,,,,,,,,,,,,,,,,,,
258857,001,2022-11-20_17h56.49.157,Info_measure_main_exp,2022.2.2,Win32,59.96641881,,,,,,,,,,,,,,,,,,masks/mask_002.jpg,,,,,,,,,,,,,,,,,,,,,,,,,,,,,,,,,,,,,,,,,,,,,,,,0,4,4,1,1,,,,,,,,,,,,,,,,,,,,,,,,,,,,,,,,,,,,,,,,,
258857,001,2022-11-20_17h56.49.157,Info_measure_main_exp,2022.2.2,Win32,59.96641881,,,,,,,,,,,,,,,,,,,,,,,,,,,,,,7,1.7834,1,,,,,,,,,,,,1,131,5,5,2250,1,absent_patch/patch0002250.jpg,present_patch/cong_131_5_a.jpg,,,,,,,,,,,,,,,,,,,,0.050000014,0.142592571,1,0,0,response1disk,3,0.001851894,-0.006481489,1,0,0,center_square,0,2,2,5,1,,,,,,,,,,,,,,,,,,,,,,,
258857,001,2022-11-20_17h56.49.157,Info_measure_main_exp,2022.2.2,Win32,59.96641881,,,,,,,,,,,,,,,,,,masks/mask_001.jpg,,,,,,,,,,,,,,,,,,,,,,,,,,,,,,,,,,,,,,,,,,,0,0,0,0,1,,,,,,,,,,,,,,,,,,,,,,,,,,,,,,,,,,,,,,,,,,,,,,
258857,001,2022-11-20_17h56.49.157,Info_measure_main_exp,2022.2.2,Win32,59.96641881,,,,,,,,,,,,,,,,,,masks/mask_002.jpg,,,,,,,,,,,,,,,,,,,,,,,,,,,,,,,,,,,,,,,,,,,0,1,1,1,1,,,,,,,,,,,,,,,,,,,,,,,,,,,,,,,,,,,,,,,,,,,,,,
258857,001,2022-11-20_17h56.49.157,Info_measure_main_exp,2022.2.2,Win32,59.96641881,,,,,,,,,,,,,,,,,,masks/mask_004.jpg,,,,,,,,,,,,,,,,,,,,,,,,,,,,,,,,,,,,,,,,,,,0,2,2,3,1,,,,,,,,,,,,,,,,,,,,,,,,,,,,,,,,,,,,,,,,,,,,,,
258857,001,2022-11-20_17h56.49.157,Info_measure_main_exp,2022.2.2,Win32,59.96641881,,,,,,,,,,,,,,,,,,masks/mask_003.jpg,,,,,,,,,,,,,,,,,,,,,,,,,,,,,,,,,,,,,,,,,,,0,3,3,2,1,,,,,,,,,,,,,,,,,,,,,,,,,,,,,,,,,,,,,,,,,,,,,,
258857,001,2022-11-20_17h56.49.157,Info_measure_main_exp,2022.2.2,Win32,59.96641881,,,,,,,,,,,,,,,,,,masks/mask_005.jpg,,,,,,,,,,,,,,,,,,,,,,,,,,,,,,,,,,,,,,,,,,,0,4,4,4,1,,,,,,,,,,,,,,,,,,,,,,,,,,,,,,,,,,,,,,,,,,,,,,
258857,001,2022-11-20_17h56.49.157,Info_measure_main_exp,2022.2.2,Win32,59.96641881,,,,,,,,,,,,,,,,,,masks/mask_004.jpg,,,,,,,,,,,,,,,,,,,,,,,,,,,,,,,,,,,,,,,,,,,,,,,,0,0,0,3,1,,,,,,,,,,,,,,,,,,,,,,,,,,,,,,,,,,,,,,,,,
258857,001,2022-11-20_17h56.49.157,Info_measure_main_exp,2022.2.2,Win32,59.96641881,,,,,,,,,,,,,,,,,,masks/mask_003.jpg,,,,,,,,,,,,,,,,,,,,,,,,,,,,,,,,,,,,,,,,,,,,,,,,0,1,1,2,1,,,,,,,,,,,,,,,,,,,,,,,,,,,,,,,,,,,,,,,,,
258857,001,2022-11-20_17h56.49.157,Info_measure_main_exp,2022.2.2,Win32,59.96641881,,,,,,,,,,,,,,,,,,masks/mask_002.jpg,,,,,,,,,,,,,,,,,,,,,,,,,,,,,,,,,,,,,,,,,,,,,,,,0,2,2,1,1,,,,,,,,,,,,,,,,,,,,,,,,,,,,,,,,,,,,,,,,,
258857,001,2022-11-20_17h56.49.157,Info_measure_main_exp,2022.2.2,Win32,59.96641881,,,,,,,,,,,,,,,,,,masks/mask_001.jpg,,,,,,,,,,,,,,,,,,,,,,,,,,,,,,,,,,,,,,,,,,,,,,,,0,3,3,0,1,,,,,,,,,,,,,,,,,,,,,,,,,,,,,,,,,,,,,,,,,
258857,001,2022-11-20_17h56.49.157,Info_measure_main_exp,2022.2.2,Win32,59.96641881,,,,,,,,,,,,,,,,,,masks/mask_005.jpg,,,,,,,,,,,,,,,,,,,,,,,,,,,,,,,,,,,,,,,,,,,,,,,,0,4,4,4,1,,,,,,,,,,,,,,,,,,,,,,,,,,,,,,,,,,,,,,,,,
258857,001,2022-11-20_17h56.49.157,Info_measure_main_exp,2022.2.2,Win32,59.96641881,,,,,,,,,,,,,,,,,,,,,,,,,,,,,,7,0.8499,1,,,,,,,,,,,,0,131,5,5,2154,1950,absent_patch/patch0002154.jpg,absent_patch/patch0001950.jpg,,,,,,,,,,,,,,,,,,,,0.042592578,0.126851859,1,0,0,response1disk,4,-0.002777735,-0.00462963,1,0,0,center_square,0,3,3,96,1,,,,,,,,,,,,,,,,,,,,,,,
258857,001,2022-11-20_17h56.49.157,Info_measure_main_exp,2022.2.2,Win32,59.96641881,,,,,,,,,,,,,,,,,,masks/mask_005.jpg,,,,,,,,,,,,,,,,,,,,,,,,,,,,,,,,,,,,,,,,,,,0,0,0,4,1,,,,,,,,,,,,,,,,,,,,,,,,,,,,,,,,,,,,,,,,,,,,,,
258857,001,2022-11-20_17h56.49.157,Info_measure_main_exp,2022.2.2,Win32,59.96641881,,,,,,,,,,,,,,,,,,masks/mask_003.jpg,,,,,,,,,,,,,,,,,,,,,,,,,,,,,,,,,,,,,,,,,,,0,1,1,2,1,,,,,,,,,,,,,,,,,,,,,,,,,,,,,,,,,,,,,,,,,,,,,,
258857,001,2022-11-20_17h56.49.157,Info_measure_main_exp,2022.2.2,Win32,59.96641881,,,,,,,,,,,,,,,,,,masks/mask_002.jpg,,,,,,,,,,,,,,,,,,,,,,,,,,,,,,,,,,,,,,,,,,,0,2,2,1,1,,,,,,,,,,,,,,,,,,,,,,,,,,,,,,,,,,,,,,,,,,,,,,
258857,001,2022-11-20_17h56.49.157,Info_measure_main_exp,2022.2.2,Win32,59.96641881,,,,,,,,,,,,,,,,,,masks/mask_001.jpg,,,,,,,,,,,,,,,,,,,,,,,,,,,,,,,,,,,,,,,,,,,0,3,3,0,1,,,,,,,,,,,,,,,,,,,,,,,,,,,,,,,,,,,,,,,,,,,,,,
258857,001,2022-11-20_17h56.49.157,Info_measure_main_exp,2022.2.2,Win32,59.96641881,,,,,,,,,,,,,,,,,,masks/mask_004.jpg,,,,,,,,,,,,,,,,,,,,,,,,,,,,,,,,,,,,,,,,,,,0,4,4,3,1,,,,,,,,,,,,,,,,,,,,,,,,,,,,,,,,,,,,,,,,,,,,,,
258857,001,2022-11-20_17h56.49.157,Info_measure_main_exp,2022.2.2,Win32,59.96641881,,,,,,,,,,,,,,,,,,masks/mask_004.jpg,,,,,,,,,,,,,,,,,,,,,,,,,,,,,,,,,,,,,,,,,,,,,,,,0,0,0,3,1,,,,,,,,,,,,,,,,,,,,,,,,,,,,,,,,,,,,,,,,,
258857,001,2022-11-20_17h56.49.157,Info_measure_main_exp,2022.2.2,Win32,59.96641881,,,,,,,,,,,,,,,,,,masks/mask_005.jpg,,,,,,,,,,,,,,,,,,,,,,,,,,,,,,,,,,,,,,,,,,,,,,,,0,1,1,4,1,,,,,,,,,,,,,,,,,,,,,,,,,,,,,,,,,,,,,,,,,
258857,001,2022-11-20_17h56.49.157,Info_measure_main_exp,2022.2.2,Win32,59.96641881,,,,,,,,,,,,,,,,,,masks/mask_002.jpg,,,,,,,,,,,,,,,,,,,,,,,,,,,,,,,,,,,,,,,,,,,,,,,,0,2,2,1,1,,,,,,,,,,,,,,,,,,,,,,,,,,,,,,,,,,,,,,,,,
258857,001,2022-11-20_17h56.49.157,Info_measure_main_exp,2022.2.2,Win32,59.96641881,,,,,,,,,,,,,,,,,,masks/mask_001.jpg,,,,,,,,,,,,,,,,,,,,,,,,,,,,,,,,,,,,,,,,,,,,,,,,0,3,3,0,1,,,,,,,,,,,,,,,,,,,,,,,,,,,,,,,,,,,,,,,,,
258857,001,2022-11-20_17h56.49.157,Info_measure_main_exp,2022.2.2,Win32,59.96641881,,,,,,,,,,,,,,,,,,masks/mask_003.jpg,,,,,,,,,,,,,,,,,,,,,,,,,,,,,,,,,,,,,,,,,,,,,,,,0,4,4,2,1,,,,,,,,,,,,,,,,,,,,,,,,,,,,,,,,,,,,,,,,,
258857,001,2022-11-20_17h56.49.157,Info_measure_main_exp,2022.2.2,Win32,59.96641881,,,,,,,,,,,,,,,,,,,,,,,,,,,,,,7,0.7334,1,,,,,,,,,,,,0,131,5,5,1986,2274,absent_patch/patch0001986.jpg,absent_patch/patch0002274.jpg,,,,,,,,,,,,,,,,,,,,0.035185213,0.087037016,1,0,0,response1disk,5,0.006481524,-0.009259259,1,0,0,center_square,0,4,4,7,1,,,,,,,,,,,,,,,,,,,,,,,
258857,001,2022-11-20_17h56.49.157,Info_measure_main_exp,2022.2.2,Win32,59.96641881,,,,,,,,,,,,,,,,,,masks/mask_005.jpg,,,,,,,,,,,,,,,,,,,,,,,,,,,,,,,,,,,,,,,,,,,0,0,0,4,1,,,,,,,,,,,,,,,,,,,,,,,,,,,,,,,,,,,,,,,,,,,,,,
258857,001,2022-11-20_17h56.49.157,Info_measure_main_exp,2022.2.2,Win32,59.96641881,,,,,,,,,,,,,,,,,,masks/mask_001.jpg,,,,,,,,,,,,,,,,,,,,,,,,,,,,,,,,,,,,,,,,,,,0,1,1,0,1,,,,,,,,,,,,,,,,,,,,,,,,,,,,,,,,,,,,,,,,,,,,,,
258857,001,2022-11-20_17h56.49.157,Info_measure_main_exp,2022.2.2,Win32,59.96641881,,,,,,,,,,,,,,,,,,masks/mask_004.jpg,,,,,,,,,,,,,,,,,,,,,,,,,,,,,,,,,,,,,,,,,,,0,2,2,3,1,,,,,,,,,,,,,,,,,,,,,,,,,,,,,,,,,,,,,,,,,,,,,,
258857,001,2022-11-20_17h56.49.157,Info_measure_main_exp,2022.2.2,Win32,59.96641881,,,,,,,,,,,,,,,,,,masks/mask_003.jpg,,,,,,,,,,,,,,,,,,,,,,,,,,,,,,,,,,,,,,,,,,,0,3,3,2,1,,,,,,,,,,,,,,,,,,,,,,,,,,,,,,,,,,,,,,,,,,,,,,
258857,001,2022-11-20_17h56.49.157,Info_measure_main_exp,2022.2.2,Win32,59.96641881,,,,,,,,,,,,,,,,,,masks/mask_002.jpg,,,,,,,,,,,,,,,,,,,,,,,,,,,,,,,,,,,,,,,,,,,0,4,4,1,1,,,,,,,,,,,,,,,,,,,,,,,,,,,,,,,,,,,,,,,,,,,,,,
258857,001,2022-11-20_17h56.49.157,Info_measure_main_exp,2022.2.2,Win32,59.96641881,,,,,,,,,,,,,,,,,,masks/mask_005.jpg,,,,,,,,,,,,,,,,,,,,,,,,,,,,,,,,,,,,,,,,,,,,,,,,0,0,0,4,1,,,,,,,,,,,,,,,,,,,,,,,,,,,,,,,,,,,,,,,,,
258857,001,2022-11-20_17h56.49.157,Info_measure_main_exp,2022.2.2,Win32,59.96641881,,,,,,,,,,,,,,,,,,masks/mask_002.jpg,,,,,,,,,,,,,,,,,,,,,,,,,,,,,,,,,,,,,,,,,,,,,,,,0,1,1,1,1,,,,,,,,,,,,,,,,,,,,,,,,,,,,,,,,,,,,,,,,,
258857,001,2022-11-20_17h56.49.157,Info_measure_main_exp,2022.2.2,Win32,59.96641881,,,,,,,,,,,,,,,,,,masks/mask_004.jpg,,,,,,,,,,,,,,,,,,,,,,,,,,,,,,,,,,,,,,,,,,,,,,,,0,2,2,3,1,,,,,,,,,,,,,,,,,,,,,,,,,,,,,,,,,,,,,,,,,
258857,001,2022-11-20_17h56.49.157,Info_measure_main_exp,2022.2.2,Win32,59.96641881,,,,,,,,,,,,,,,,,,masks/mask_001.jpg,,,,,,,,,,,,,,,,,,,,,,,,,,,,,,,,,,,,,,,,,,,,,,,,0,3,3,0,1,,,,,,,,,,,,,,,,,,,,,,,,,,,,,,,,,,,,,,,,,
258857,001,2022-11-20_17h56.49.157,Info_measure_main_exp,2022.2.2,Win32,59.96641881,,,,,,,,,,,,,,,,,,masks/mask_003.jpg,,,,,,,,,,,,,,,,,,,,,,,,,,,,,,,,,,,,,,,,,,,,,,,,0,4,4,2,1,,,,,,,,,,,,,,,,,,,,,,,,,,,,,,,,,,,,,,,,,
258857,001,2022-11-20_17h56.49.157,Info_measure_main_exp,2022.2.2,Win32,59.96641881,,,,,,,,,,,,,,,,,,,,,,,,,,,,,,7,0.8499,1,,,,,,,,,,,,0,131,5,5,1950,2214,absent_patch/patch0001950.jpg,absent_patch/patch0002214.jpg,,,,,,,,,,,,,,,,,,,,0.039814843,0.110185164,1,0,0,response1disk,6,0.00462963,0.002777771,1,0,0,center_square,0,5,5,85,1,,,,,,,,,,,,,,,,,,,,,,,
258857,001,2022-11-20_17h56.49.157,Info_measure_main_exp,2022.2.2,Win32,59.96641881,,,,,,,,,,,,,,,,,,masks/mask_004.jpg,,,,,,,,,,,,,,,,,,,,,,,,,,,,,,,,,,,,,,,,,,,0,0,0,3,1,,,,,,,,,,,,,,,,,,,,,,,,,,,,,,,,,,,,,,,,,,,,,,
258857,001,2022-11-20_17h56.49.157,Info_measure_main_exp,2022.2.2,Win32,59.96641881,,,,,,,,,,,,,,,,,,masks/mask_002.jpg,,,,,,,,,,,,,,,,,,,,,,,,,,,,,,,,,,,,,,,,,,,0,1,1,1,1,,,,,,,,,,,,,,,,,,,,,,,,,,,,,,,,,,,,,,,,,,,,,,
258857,001,2022-11-20_17h56.49.157,Info_measure_main_exp,2022.2.2,Win32,59.96641881,,,,,,,,,,,,,,,,,,masks/mask_003.jpg,,,,,,,,,,,,,,,,,,,,,,,,,,,,,,,,,,,,,,,,,,,0,2,2,2,1,,,,,,,,,,,,,,,,,,,,,,,,,,,,,,,,,,,,,,,,,,,,,,
258857,001,2022-11-20_17h56.49.157,Info_measure_main_exp,2022.2.2,Win32,59.96641881,,,,,,,,,,,,,,,,,,masks/mask_001.jpg,,,,,,,,,,,,,,,,,,,,,,,,,,,,,,,,,,,,,,,,,,,0,3,3,0,1,,,,,,,,,,,,,,,,,,,,,,,,,,,,,,,,,,,,,,,,,,,,,,
258857,001,2022-11-20_17h56.49.157,Info_measure_main_exp,2022.2.2,Win32,59.96641881,,,,,,,,,,,,,,,,,,masks/mask_005.jpg,,,,,,,,,,,,,,,,,,,,,,,,,,,,,,,,,,,,,,,,,,,0,4,4,4,1,,,,,,,,,,,,,,,,,,,,,,,,,,,,,,,,,,,,,,,,,,,,,,
258857,001,2022-11-20_17h56.49.157,Info_measure_main_exp,2022.2.2,Win32,59.96641881,,,,,,,,,,,,,,,,,,masks/mask_005.jpg,,,,,,,,,,,,,,,,,,,,,,,,,,,,,,,,,,,,,,,,,,,,,,,,0,0,0,4,1,,,,,,,,,,,,,,,,,,,,,,,,,,,,,,,,,,,,,,,,,
258857,001,2022-11-20_17h56.49.157,Info_measure_main_exp,2022.2.2,Win32,59.96641881,,,,,,,,,,,,,,,,,,masks/mask_001.jpg,,,,,,,,,,,,,,,,,,,,,,,,,,,,,,,,,,,,,,,,,,,,,,,,0,1,1,0,1,,,,,,,,,,,,,,,,,,,,,,,,,,,,,,,,,,,,,,,,,
258857,001,2022-11-20_17h56.49.157,Info_measure_main_exp,2022.2.2,Win32,59.96641881,,,,,,,,,,,,,,,,,,masks/mask_002.jpg,,,,,,,,,,,,,,,,,,,,,,,,,,,,,,,,,,,,,,,,,,,,,,,,0,2,2,1,1,,,,,,,,,,,,,,,,,,,,,,,,,,,,,,,,,,,,,,,,,
258857,001,2022-11-20_17h56.49.157,Info_measure_main_exp,2022.2.2,Win32,59.96641881,,,,,,,,,,,,,,,,,,masks/mask_004.jpg,,,,,,,,,,,,,,,,,,,,,,,,,,,,,,,,,,,,,,,,,,,,,,,,0,3,3,3,1,,,,,,,,,,,,,,,,,,,,,,,,,,,,,,,,,,,,,,,,,
258857,001,2022-11-20_17h56.49.157,Info_measure_main_exp,2022.2.2,Win32,59.96641881,,,,,,,,,,,,,,,,,,masks/mask_003.jpg,,,,,,,,,,,,,,,,,,,,,,,,,,,,,,,,,,,,,,,,,,,,,,,,0,4,4,2,1,,,,,,,,,,,,,,,,,,,,,,,,,,,,,,,,,,,,,,,,,
258857,001,2022-11-20_17h56.49.157,Info_measure_main_exp,2022.2.2,Win32,59.96641881,,,,,,,,,,,,,,,,,,,,,,,,,,,,,,7,1.2501,1,,,,,,,,,,,,1,131,5,5,1,1974,present_patch/cong_131_5_a.jpg,absent_patch/patch0001974.jpg,,,,,,,,,,,,,,,,,,,,0.036111125,0.106481481,1,0,0,response1disk,7,0.002777806,-0.001851859,1,0,0,center_square,0,6,6,69,1,,,,,,,,,,,,,,,,,,,,,,,
258857,001,2022-11-20_17h56.49.157,Info_measure_main_exp,2022.2.2,Win32,59.96641881,,,,,,,,,,,,,,,,,,masks/mask_004.jpg,,,,,,,,,,,,,,,,,,,,,,,,,,,,,,,,,,,,,,,,,,,0,0,0,3,1,,,,,,,,,,,,,,,,,,,,,,,,,,,,,,,,,,,,,,,,,,,,,,
258857,001,2022-11-20_17h56.49.157,Info_measure_main_exp,2022.2.2,Win32,59.96641881,,,,,,,,,,,,,,,,,,masks/mask_001.jpg,,,,,,,,,,,,,,,,,,,,,,,,,,,,,,,,,,,,,,,,,,,0,1,1,0,1,,,,,,,,,,,,,,,,,,,,,,,,,,,,,,,,,,,,,,,,,,,,,,
258857,001,2022-11-20_17h56.49.157,Info_measure_main_exp,2022.2.2,Win32,59.96641881,,,,,,,,,,,,,,,,,,masks/mask_005.jpg,,,,,,,,,,,,,,,,,,,,,,,,,,,,,,,,,,,,,,,,,,,0,2,2,4,1,,,,,,,,,,,,,,,,,,,,,,,,,,,,,,,,,,,,,,,,,,,,,,
258857,001,2022-11-20_17h56.49.157,Info_measure_main_exp,2022.2.2,Win32,59.96641881,,,,,,,,,,,,,,,,,,masks/mask_003.jpg,,,,,,,,,,,,,,,,,,,,,,,,,,,,,,,,,,,,,,,,,,,0,3,3,2,1,,,,,,,,,,,,,,,,,,,,,,,,,,,,,,,,,,,,,,,,,,,,,,
258857,001,2022-11-20_17h56.49.157,Info_measure_main_exp,2022.2.2,Win32,59.96641881,,,,,,,,,,,,,,,,,,masks/mask_002.jpg,,,,,,,,,,,,,,,,,,,,,,,,,,,,,,,,,,,,,,,,,,,0,4,4,1,1,,,,,,,,,,,,,,,,,,,,,,,,,,,,,,,,,,,,,,,,,,,,,,
258857,001,2022-11-20_17h56.49.157,Info_measure_main_exp,2022.2.2,Win32,59.96641881,,,,,,,,,,,,,,,,,,masks/mask_003.jpg,,,,,,,,,,,,,,,,,,,,,,,,,,,,,,,,,,,,,,,,,,,,,,,,0,0,0,2,1,,,,,,,,,,,,,,,,,,,,,,,,,,,,,,,,,,,,,,,,,
258857,001,2022-11-20_17h56.49.157,Info_measure_main_exp,2022.2.2,Win32,59.96641881,,,,,,,,,,,,,,,,,,masks/mask_005.jpg,,,,,,,,,,,,,,,,,,,,,,,,,,,,,,,,,,,,,,,,,,,,,,,,0,1,1,4,1,,,,,,,,,,,,,,,,,,,,,,,,,,,,,,,,,,,,,,,,,
258857,001,2022-11-20_17h56.49.157,Info_measure_main_exp,2022.2.2,Win32,59.96641881,,,,,,,,,,,,,,,,,,masks/mask_002.jpg,,,,,,,,,,,,,,,,,,,,,,,,,,,,,,,,,,,,,,,,,,,,,,,,0,2,2,1,1,,,,,,,,,,,,,,,,,,,,,,,,,,,,,,,,,,,,,,,,,
258857,001,2022-11-20_17h56.49.157,Info_measure_main_exp,2022.2.2,Win32,59.96641881,,,,,,,,,,,,,,,,,,masks/mask_004.jpg,,,,,,,,,,,,,,,,,,,,,,,,,,,,,,,,,,,,,,,,,,,,,,,,0,3,3,3,1,,,,,,,,,,,,,,,,,,,,,,,,,,,,,,,,,,,,,,,,,
258857,001,2022-11-20_17h56.49.157,Info_measure_main_exp,2022.2.2,Win32,59.96641881,,,,,,,,,,,,,,,,,,masks/mask_001.jpg,,,,,,,,,,,,,,,,,,,,,,,,,,,,,,,,,,,,,,,,,,,,,,,,0,4,4,0,1,,,,,,,,,,,,,,,,,,,,,,,,,,,,,,,,,,,,,,,,,
258857,001,2022-11-20_17h56.49.157,Info_measure_main_exp,2022.2.2,Win32,59.96641881,,,,,,,,,,,,,,,,,,,,,,,,,,,,,,0,1.0404,1,,,,,,,,,,,,0,131,5,5,2166,2166,absent_patch/patch0002166.jpg,absent_patch/patch0002166.jpg,,,,,,,,,,,,,,,,,,,,-0.026851866,0.112037023,1,0,0,response7disk,8,-0.002777735,0.011111118,1,0,0,center_square,0,7,7,42,1,,,,,,,,,,,,,,,,,,,,,,,
258857,001,2022-11-20_17h56.49.157,Info_measure_main_exp,2022.2.2,Win32,59.96641881,,,,,,,,,,,,,,,,,,masks/mask_004.jpg,,,,,,,,,,,,,,,,,,,,,,,,,,,,,,,,,,,,,,,,,,,0,0,0,3,1,,,,,,,,,,,,,,,,,,,,,,,,,,,,,,,,,,,,,,,,,,,,,,
258857,001,2022-11-20_17h56.49.157,Info_measure_main_exp,2022.2.2,Win32,59.96641881,,,,,,,,,,,,,,,,,,masks/mask_005.jpg,,,,,,,,,,,,,,,,,,,,,,,,,,,,,,,,,,,,,,,,,,,0,1,1,4,1,,,,,,,,,,,,,,,,,,,,,,,,,,,,,,,,,,,,,,,,,,,,,,
258857,001,2022-11-20_17h56.49.157,Info_measure_main_exp,2022.2.2,Win32,59.96641881,,,,,,,,,,,,,,,,,,masks/mask_001.jpg,,,,,,,,,,,,,,,,,,,,,,,,,,,,,,,,,,,,,,,,,,,0,2,2,0,1,,,,,,,,,,,,,,,,,,,,,,,,,,,,,,,,,,,,,,,,,,,,,,
258857,001,2022-11-20_17h56.49.157,Info_measure_main_exp,2022.2.2,Win32,59.96641881,,,,,,,,,,,,,,,,,,masks/mask_003.jpg,,,,,,,,,,,,,,,,,,,,,,,,,,,,,,,,,,,,,,,,,,,0,3,3,2,1,,,,,,,,,,,,,,,,,,,,,,,,,,,,,,,,,,,,,,,,,,,,,,
258857,001,2022-11-20_17h56.49.157,Info_measure_main_exp,2022.2.2,Win32,59.96641881,,,,,,,,,,,,,,,,,,masks/mask_002.jpg,,,,,,,,,,,,,,,,,,,,,,,,,,,,,,,,,,,,,,,,,,,0,4,4,1,1,,,,,,,,,,,,,,,,,,,,,,,,,,,,,,,,,,,,,,,,,,,,,,
258857,001,2022-11-20_17h56.49.157,Info_measure_main_exp,2022.2.2,Win32,59.96641881,,,,,,,,,,,,,,,,,,masks/mask_004.jpg,,,,,,,,,,,,,,,,,,,,,,,,,,,,,,,,,,,,,,,,,,,,,,,,0,0,0,3,1,,,,,,,,,,,,,,,,,,,,,,,,,,,,,,,,,,,,,,,,,
258857,001,2022-11-20_17h56.49.157,Info_measure_main_exp,2022.2.2,Win32,59.96641881,,,,,,,,,,,,,,,,,,masks/mask_002.jpg,,,,,,,,,,,,,,,,,,,,,,,,,,,,,,,,,,,,,,,,,,,,,,,,0,1,1,1,1,,,,,,,,,,,,,,,,,,,,,,,,,,,,,,,,,,,,,,,,,
258857,001,2022-11-20_17h56.49.157,Info_measure_main_exp,2022.2.2,Win32,59.96641881,,,,,,,,,,,,,,,,,,masks/mask_005.jpg,,,,,,,,,,,,,,,,,,,,,,,,,,,,,,,,,,,,,,,,,,,,,,,,0,2,2,4,1,,,,,,,,,,,,,,,,,,,,,,,,,,,,,,,,,,,,,,,,,
258857,001,2022-11-20_17h56.49.157,Info_measure_main_exp,2022.2.2,Win32,59.96641881,,,,,,,,,,,,,,,,,,masks/mask_001.jpg,,,,,,,,,,,,,,,,,,,,,,,,,,,,,,,,,,,,,,,,,,,,,,,,0,3,3,0,1,,,,,,,,,,,,,,,,,,,,,,,,,,,,,,,,,,,,,,,,,
258857,001,2022-11-20_17h56.49.157,Info_measure_main_exp,2022.2.2,Win32,59.96641881,,,,,,,,,,,,,,,,,,masks/mask_003.jpg,,,,,,,,,,,,,,,,,,,,,,,,,,,,,,,,,,,,,,,,,,,,,,,,0,4,4,2,1,,,,,,,,,,,,,,,,,,,,,,,,,,,,,,,,,,,,,,,,,
258857,001,2022-11-20_17h56.49.157,Info_measure_main_exp,2022.2.2,Win32,59.96641881,,,,,,,,,,,,,,,,,,,,,,,,,,,,,,0,0.857,1,,,,,,,,,,,,0,131,5,5,2178,2166,absent_patch/patch0002178.jpg,absent_patch/patch0002166.jpg,,,,,,,,,,,,,,,,,,,,-0.042592578,0.128703683,1,0,0,response7disk,9,0.002777806,-0.005555577,1,0,0,center_square,0,8,8,72,1,,,,,,,,,,,,,,,,,,,,,,,
258857,001,2022-11-20_17h56.49.157,Info_measure_main_exp,2022.2.2,Win32,59.96641881,,,,,,,,,,,,,,,,,,masks/mask_003.jpg,,,,,,,,,,,,,,,,,,,,,,,,,,,,,,,,,,,,,,,,,,,0,0,0,2,1,,,,,,,,,,,,,,,,,,,,,,,,,,,,,,,,,,,,,,,,,,,,,,
258857,001,2022-11-20_17h56.49.157,Info_measure_main_exp,2022.2.2,Win32,59.96641881,,,,,,,,,,,,,,,,,,masks/mask_004.jpg,,,,,,,,,,,,,,,,,,,,,,,,,,,,,,,,,,,,,,,,,,,0,1,1,3,1,,,,,,,,,,,,,,,,,,,,,,,,,,,,,,,,,,,,,,,,,,,,,,
258857,001,2022-11-20_17h56.49.157,Info_measure_main_exp,2022.2.2,Win32,59.96641881,,,,,,,,,,,,,,,,,,masks/mask_001.jpg,,,,,,,,,,,,,,,,,,,,,,,,,,,,,,,,,,,,,,,,,,,0,2,2,0,1,,,,,,,,,,,,,,,,,,,,,,,,,,,,,,,,,,,,,,,,,,,,,,
258857,001,2022-11-20_17h56.49.157,Info_measure_main_exp,2022.2.2,Win32,59.96641881,,,,,,,,,,,,,,,,,,masks/mask_005.jpg,,,,,,,,,,,,,,,,,,,,,,,,,,,,,,,,,,,,,,,,,,,0,3,3,4,1,,,,,,,,,,,,,,,,,,,,,,,,,,,,,,,,,,,,,,,,,,,,,,
258857,001,2022-11-20_17h56.49.157,Info_measure_main_exp,2022.2.2,Win32,59.96641881,,,,,,,,,,,,,,,,,,masks/mask_002.jpg,,,,,,,,,,,,,,,,,,,,,,,,,,,,,,,,,,,,,,,,,,,0,4,4,1,1,,,,,,,,,,,,,,,,,,,,,,,,,,,,,,,,,,,,,,,,,,,,,,
258857,001,2022-11-20_17h56.49.157,Info_measure_main_exp,2022.2.2,Win32,59.96641881,,,,,,,,,,,,,,,,,,masks/mask_001.jpg,,,,,,,,,,,,,,,,,,,,,,,,,,,,,,,,,,,,,,,,,,,,,,,,0,0,0,0,1,,,,,,,,,,,,,,,,,,,,,,,,,,,,,,,,,,,,,,,,,
258857,001,2022-11-20_17h56.49.157,Info_measure_main_exp,2022.2.2,Win32,59.96641881,,,,,,,,,,,,,,,,,,masks/mask_002.jpg,,,,,,,,,,,,,,,,,,,,,,,,,,,,,,,,,,,,,,,,,,,,,,,,0,1,1,1,1,,,,,,,,,,,,,,,,,,,,,,,,,,,,,,,,,,,,,,,,,
258857,001,2022-11-20_17h56.49.157,Info_measure_main_exp,2022.2.2,Win32,59.96641881,,,,,,,,,,,,,,,,,,masks/mask_005.jpg,,,,,,,,,,,,,,,,,,,,,,,,,,,,,,,,,,,,,,,,,,,,,,,,0,2,2,4,1,,,,,,,,,,,,,,,,,,,,,,,,,,,,,,,,,,,,,,,,,
258857,001,2022-11-20_17h56.49.157,Info_measure_main_exp,2022.2.2,Win32,59.96641881,,,,,,,,,,,,,,,,,,masks/mask_003.jpg,,,,,,,,,,,,,,,,,,,,,,,,,,,,,,,,,,,,,,,,,,,,,,,,0,3,3,2,1,,,,,,,,,,,,,,,,,,,,,,,,,,,,,,,,,,,,,,,,,
258857,001,2022-11-20_17h56.49.157,Info_measure_main_exp,2022.2.2,Win32,59.96641881,,,,,,,,,,,,,,,,,,masks/mask_004.jpg,,,,,,,,,,,,,,,,,,,,,,,,,,,,,,,,,,,,,,,,,,,,,,,,0,4,4,3,1,,,,,,,,,,,,,,,,,,,,,,,,,,,,,,,,,,,,,,,,,
258857,001,2022-11-20_17h56.49.157,Info_measure_main_exp,2022.2.2,Win32,59.96641881,,,,,,,,,,,,,,,,,,,,,,,,,,,,,,7,0.9334,1,,,,,,,,,,,,0,131,5,5,2250,2238,absent_patch/patch0002250.jpg,absent_patch/patch0002238.jpg,,,,,,,,,,,,,,,,,,,,0.033333319,0.126851859,1,0,0,response1disk,10,0.003703718,0.005555541,1,0,0,center_square,0,9,9,110,1,,,,,,,,,,,,,,,,,,,,,,,
258857,001,2022-11-20_17h56.49.157,Info_measure_main_exp,2022.2.2,Win32,59.96641881,,,,,,,,,,,,,,,,,,masks/mask_001.jpg,,,,,,,,,,,,,,,,,,,,,,,,,,,,,,,,,,,,,,,,,,,0,0,0,0,1,,,,,,,,,,,,,,,,,,,,,,,,,,,,,,,,,,,,,,,,,,,,,,
258857,001,2022-11-20_17h56.49.157,Info_measure_main_exp,2022.2.2,Win32,59.96641881,,,,,,,,,,,,,,,,,,masks/mask_005.jpg,,,,,,,,,,,,,,,,,,,,,,,,,,,,,,,,,,,,,,,,,,,0,1,1,4,1,,,,,,,,,,,,,,,,,,,,,,,,,,,,,,,,,,,,,,,,,,,,,,
258857,001,2022-11-20_17h56.49.157,Info_measure_main_exp,2022.2.2,Win32,59.96641881,,,,,,,,,,,,,,,,,,masks/mask_004.jpg,,,,,,,,,,,,,,,,,,,,,,,,,,,,,,,,,,,,,,,,,,,0,2,2,3,1,,,,,,,,,,,,,,,,,,,,,,,,,,,,,,,,,,,,,,,,,,,,,,
258857,001,2022-11-20_17h56.49.157,Info_measure_main_exp,2022.2.2,Win32,59.96641881,,,,,,,,,,,,,,,,,,masks/mask_002.jpg,,,,,,,,,,,,,,,,,,,,,,,,,,,,,,,,,,,,,,,,,,,0,3,3,1,1,,,,,,,,,,,,,,,,,,,,,,,,,,,,,,,,,,,,,,,,,,,,,,
258857,001,2022-11-20_17h56.49.157,Info_measure_main_exp,2022.2.2,Win32,59.96641881,,,,,,,,,,,,,,,,,,masks/mask_003.jpg,,,,,,,,,,,,,,,,,,,,,,,,,,,,,,,,,,,,,,,,,,,0,4,4,2,1,,,,,,,,,,,,,,,,,,,,,,,,,,,,,,,,,,,,,,,,,,,,,,
258857,001,2022-11-20_17h56.49.157,Info_measure_main_exp,2022.2.2,Win32,59.96641881,,,,,,,,,,,,,,,,,,masks/mask_001.jpg,,,,,,,,,,,,,,,,,,,,,,,,,,,,,,,,,,,,,,,,,,,,,,,,0,0,0,0,1,,,,,,,,,,,,,,,,,,,,,,,,,,,,,,,,,,,,,,,,,
258857,001,2022-11-20_17h56.49.157,Info_measure_main_exp,2022.2.2,Win32,59.96641881,,,,,,,,,,,,,,,,,,masks/mask_005.jpg,,,,,,,,,,,,,,,,,,,,,,,,,,,,,,,,,,,,,,,,,,,,,,,,0,1,1,4,1,,,,,,,,,,,,,,,,,,,,,,,,,,,,,,,,,,,,,,,,,
258857,001,2022-11-20_17h56.49.157,Info_measure_main_exp,2022.2.2,Win32,59.96641881,,,,,,,,,,,,,,,,,,masks/mask_004.jpg,,,,,,,,,,,,,,,,,,,,,,,,,,,,,,,,,,,,,,,,,,,,,,,,0,2,2,3,1,,,,,,,,,,,,,,,,,,,,,,,,,,,,,,,,,,,,,,,,,
258857,001,2022-11-20_17h56.49.157,Info_measure_main_exp,2022.2.2,Win32,59.96641881,,,,,,,,,,,,,,,,,,masks/mask_003.jpg,,,,,,,,,,,,,,,,,,,,,,,,,,,,,,,,,,,,,,,,,,,,,,,,0,3,3,2,1,,,,,,,,,,,,,,,,,,,,,,,,,,,,,,,,,,,,,,,,,
258857,001,2022-11-20_17h56.49.157,Info_measure_main_exp,2022.2.2,Win32,59.96641881,,,,,,,,,,,,,,,,,,masks/mask_002.jpg,,,,,,,,,,,,,,,,,,,,,,,,,,,,,,,,,,,,,,,,,,,,,,,,0,4,4,1,1,,,,,,,,,,,,,,,,,,,,,,,,,,,,,,,,,,,,,,,,,
258857,001,2022-11-20_17h56.49.157,Info_measure_main_exp,2022.2.2,Win32,59.96641881,,,,,,,,,,,,,,,,,,,,,,,,,,,,,,7,1.3,1,,,,,,,,,,,,0,131,5,5,2274,2238,absent_patch/patch0002274.jpg,absent_patch/patch0002238.jpg,,,,,,,,,,,,,,,,,,,,0.079629616,0.125925912,1,0,0,response1disk,11,0.003703718,0.001851859,1,0,0,center_square,0,10,10,91,1,,,,,,,,,,,,,,,,,,,,,,,
258857,001,2022-11-20_17h56.49.157,Info_measure_main_exp,2022.2.2,Win32,59.96641881,,,,,,,,,,,,,,,,,,masks/mask_002.jpg,,,,,,,,,,,,,,,,,,,,,,,,,,,,,,,,,,,,,,,,,,,0,0,0,1,1,,,,,,,,,,,,,,,,,,,,,,,,,,,,,,,,,,,,,,,,,,,,,,
258857,001,2022-11-20_17h56.49.157,Info_measure_main_exp,2022.2.2,Win32,59.96641881,,,,,,,,,,,,,,,,,,masks/mask_004.jpg,,,,,,,,,,,,,,,,,,,,,,,,,,,,,,,,,,,,,,,,,,,0,1,1,3,1,,,,,,,,,,,,,,,,,,,,,,,,,,,,,,,,,,,,,,,,,,,,,,
258857,001,2022-11-20_17h56.49.157,Info_measure_main_exp,2022.2.2,Win32,59.96641881,,,,,,,,,,,,,,,,,,masks/mask_001.jpg,,,,,,,,,,,,,,,,,,,,,,,,,,,,,,,,,,,,,,,,,,,0,2,2,0,1,,,,,,,,,,,,,,,,,,,,,,,,,,,,,,,,,,,,,,,,,,,,,,
258857,001,2022-11-20_17h56.49.157,Info_measure_main_exp,2022.2.2,Win32,59.96641881,,,,,,,,,,,,,,,,,,masks/mask_005.jpg,,,,,,,,,,,,,,,,,,,,,,,,,,,,,,,,,,,,,,,,,,,0,3,3,4,1,,,,,,,,,,,,,,,,,,,,,,,,,,,,,,,,,,,,,,,,,,,,,,
258857,001,2022-11-20_17h56.49.157,Info_measure_main_exp,2022.2.2,Win32,59.96641881,,,,,,,,,,,,,,,,,,masks/mask_003.jpg,,,,,,,,,,,,,,,,,,,,,,,,,,,,,,,,,,,,,,,,,,,0,4,4,2,1,,,,,,,,,,,,,,,,,,,,,,,,,,,,,,,,,,,,,,,,,,,,,,
258857,001,2022-11-20_17h56.49.157,Info_measure_main_exp,2022.2.2,Win32,59.96641881,,,,,,,,,,,,,,,,,,masks/mask_003.jpg,,,,,,,,,,,,,,,,,,,,,,,,,,,,,,,,,,,,,,,,,,,,,,,,0,0,0,2,1,,,,,,,,,,,,,,,,,,,,,,,,,,,,,,,,,,,,,,,,,
258857,001,2022-11-20_17h56.49.157,Info_measure_main_exp,2022.2.2,Win32,59.96641881,,,,,,,,,,,,,,,,,,masks/mask_005.jpg,,,,,,,,,,,,,,,,,,,,,,,,,,,,,,,,,,,,,,,,,,,,,,,,0,1,1,4,1,,,,,,,,,,,,,,,,,,,,,,,,,,,,,,,,,,,,,,,,,
258857,001,2022-11-20_17h56.49.157,Info_measure_main_exp,2022.2.2,Win32,59.96641881,,,,,,,,,,,,,,,,,,masks/mask_004.jpg,,,,,,,,,,,,,,,,,,,,,,,,,,,,,,,,,,,,,,,,,,,,,,,,0,2,2,3,1,,,,,,,,,,,,,,,,,,,,,,,,,,,,,,,,,,,,,,,,,
258857,001,2022-11-20_17h56.49.157,Info_measure_main_exp,2022.2.2,Win32,59.96641881,,,,,,,,,,,,,,,,,,masks/mask_002.jpg,,,,,,,,,,,,,,,,,,,,,,,,,,,,,,,,,,,,,,,,,,,,,,,,0,3,3,1,1,,,,,,,,,,,,,,,,,,,,,,,,,,,,,,,,,,,,,,,,,
258857,001,2022-11-20_17h56.49.157,Info_measure_main_exp,2022.2.2,Win32,59.96641881,,,,,,,,,,,,,,,,,,masks/mask_001.jpg,,,,,,,,,,,,,,,,,,,,,,,,,,,,,,,,,,,,,,,,,,,,,,,,0,4,4,0,1,,,,,,,,,,,,,,,,,,,,,,,,,,,,,,,,,,,,,,,,,
258857,001,2022-11-20_17h56.49.157,Info_measure_main_exp,2022.2.2,Win32,59.96641881,,,,,,,,,,,,,,,,,,,,,,,,,,,,,,7,0.7834,1,,,,,,,,,,,,0,131,5,5,2190,1950,absent_patch/patch0002190.jpg,absent_patch/patch0001950.jpg,,,,,,,,,,,,,,,,,,,,0.045370384,0.121296282,1,0,0,response1disk,12,0.000925912,-0.006481489,1,0,0,center_square,0,11,11,73,1,,,,,,,,,,,,,,,,,,,,,,,
258857,001,2022-11-20_17h56.49.157,Info_measure_main_exp,2022.2.2,Win32,59.96641881,,,,,,,,,,,,,,,,,,masks/mask_004.jpg,,,,,,,,,,,,,,,,,,,,,,,,,,,,,,,,,,,,,,,,,,,0,0,0,3,1,,,,,,,,,,,,,,,,,,,,,,,,,,,,,,,,,,,,,,,,,,,,,,
258857,001,2022-11-20_17h56.49.157,Info_measure_main_exp,2022.2.2,Win32,59.96641881,,,,,,,,,,,,,,,,,,masks/mask_002.jpg,,,,,,,,,,,,,,,,,,,,,,,,,,,,,,,,,,,,,,,,,,,0,1,1,1,1,,,,,,,,,,,,,,,,,,,,,,,,,,,,,,,,,,,,,,,,,,,,,,
258857,001,2022-11-20_17h56.49.157,Info_measure_main_exp,2022.2.2,Win32,59.96641881,,,,,,,,,,,,,,,,,,masks/mask_003.jpg,,,,,,,,,,,,,,,,,,,,,,,,,,,,,,,,,,,,,,,,,,,0,2,2,2,1,,,,,,,,,,,,,,,,,,,,,,,,,,,,,,,,,,,,,,,,,,,,,,
258857,001,2022-11-20_17h56.49.157,Info_measure_main_exp,2022.2.2,Win32,59.96641881,,,,,,,,,,,,,,,,,,masks/mask_001.jpg,,,,,,,,,,,,,,,,,,,,,,,,,,,,,,,,,,,,,,,,,,,0,3,3,0,1,,,,,,,,,,,,,,,,,,,,,,,,,,,,,,,,,,,,,,,,,,,,,,
258857,001,2022-11-20_17h56.49.157,Info_measure_main_exp,2022.2.2,Win32,59.96641881,,,,,,,,,,,,,,,,,,masks/mask_005.jpg,,,,,,,,,,,,,,,,,,,,,,,,,,,,,,,,,,,,,,,,,,,0,4,4,4,1,,,,,,,,,,,,,,,,,,,,,,,,,,,,,,,,,,,,,,,,,,,,,,
258857,001,2022-11-20_17h56.49.157,Info_measure_main_exp,2022.2.2,Win32,59.96641881,,,,,,,,,,,,,,,,,,masks/mask_003.jpg,,,,,,,,,,,,,,,,,,,,,,,,,,,,,,,,,,,,,,,,,,,,,,,,0,0,0,2,1,,,,,,,,,,,,,,,,,,,,,,,,,,,,,,,,,,,,,,,,,
258857,001,2022-11-20_17h56.49.157,Info_measure_main_exp,2022.2.2,Win32,59.96641881,,,,,,,,,,,,,,,,,,masks/mask_005.jpg,,,,,,,,,,,,,,,,,,,,,,,,,,,,,,,,,,,,,,,,,,,,,,,,0,1,1,4,1,,,,,,,,,,,,,,,,,,,,,,,,,,,,,,,,,,,,,,,,,
258857,001,2022-11-20_17h56.49.157,Info_measure_main_exp,2022.2.2,Win32,59.96641881,,,,,,,,,,,,,,,,,,masks/mask_001.jpg,,,,,,,,,,,,,,,,,,,,,,,,,,,,,,,,,,,,,,,,,,,,,,,,0,2,2,0,1,,,,,,,,,,,,,,,,,,,,,,,,,,,,,,,,,,,,,,,,,
258857,001,2022-11-20_17h56.49.157,Info_measure_main_exp,2022.2.2,Win32,59.96641881,,,,,,,,,,,,,,,,,,masks/mask_004.jpg,,,,,,,,,,,,,,,,,,,,,,,,,,,,,,,,,,,,,,,,,,,,,,,,0,3,3,3,1,,,,,,,,,,,,,,,,,,,,,,,,,,,,,,,,,,,,,,,,,
258857,001,2022-11-20_17h56.49.157,Info_measure_main_exp,2022.2.2,Win32,59.96641881,,,,,,,,,,,,,,,,,,masks/mask_002.jpg,,,,,,,,,,,,,,,,,,,,,,,,,,,,,,,,,,,,,,,,,,,,,,,,0,4,4,1,1,,,,,,,,,,,,,,,,,,,,,,,,,,,,,,,,,,,,,,,,,
258857,001,2022-11-20_17h56.49.157,Info_measure_main_exp,2022.2.2,Win32,59.96641881,,,,,,,,,,,,,,,,,,,,,,,,,,,,,,7,0.8501,1,,,,,,,,,,,,0,131,5,5,1974,2214,absent_patch/patch0001974.jpg,absent_patch/patch0002214.jpg,,,,,,,,,,,,,,,,,,,,0.05277782,0.127777771,1,0,0,response1disk,13,0.00462963,0.001851859,1,0,0,center_square,0,12,12,24,1,,,,,,,,,,,,,,,,,,,,,,,
258857,001,2022-11-20_17h56.49.157,Info_measure_main_exp,2022.2.2,Win32,59.96641881,,,,,,,,,,,,,,,,,,masks/mask_001.jpg,,,,,,,,,,,,,,,,,,,,,,,,,,,,,,,,,,,,,,,,,,,0,0,0,0,1,,,,,,,,,,,,,,,,,,,,,,,,,,,,,,,,,,,,,,,,,,,,,,
258857,001,2022-11-20_17h56.49.157,Info_measure_main_exp,2022.2.2,Win32,59.96641881,,,,,,,,,,,,,,,,,,masks/mask_002.jpg,,,,,,,,,,,,,,,,,,,,,,,,,,,,,,,,,,,,,,,,,,,0,1,1,1,1,,,,,,,,,,,,,,,,,,,,,,,,,,,,,,,,,,,,,,,,,,,,,,
258857,001,2022-11-20_17h56.49.157,Info_measure_main_exp,2022.2.2,Win32,59.96641881,,,,,,,,,,,,,,,,,,masks/mask_004.jpg,,,,,,,,,,,,,,,,,,,,,,,,,,,,,,,,,,,,,,,,,,,0,2,2,3,1,,,,,,,,,,,,,,,,,,,,,,,,,,,,,,,,,,,,,,,,,,,,,,
258857,001,2022-11-20_17h56.49.157,Info_measure_main_exp,2022.2.2,Win32,59.96641881,,,,,,,,,,,,,,,,,,masks/mask_003.jpg,,,,,,,,,,,,,,,,,,,,,,,,,,,,,,,,,,,,,,,,,,,0,3,3,2,1,,,,,,,,,,,,,,,,,,,,,,,,,,,,,,,,,,,,,,,,,,,,,,
258857,001,2022-11-20_17h56.49.157,Info_measure_main_exp,2022.2.2,Win32,59.96641881,,,,,,,,,,,,,,,,,,masks/mask_005.jpg,,,,,,,,,,,,,,,,,,,,,,,,,,,,,,,,,,,,,,,,,,,0,4,4,4,1,,,,,,,,,,,,,,,,,,,,,,,,,,,,,,,,,,,,,,,,,,,,,,
258857,001,2022-11-20_17h56.49.157,Info_measure_main_exp,2022.2.2,Win32,59.96641881,,,,,,,,,,,,,,,,,,masks/mask_003.jpg,,,,,,,,,,,,,,,,,,,,,,,,,,,,,,,,,,,,,,,,,,,,,,,,0,0,0,2,1,,,,,,,,,,,,,,,,,,,,,,,,,,,,,,,,,,,,,,,,,
258857,001,2022-11-20_17h56.49.157,Info_measure_main_exp,2022.2.2,Win32,59.96641881,,,,,,,,,,,,,,,,,,masks/mask_005.jpg,,,,,,,,,,,,,,,,,,,,,,,,,,,,,,,,,,,,,,,,,,,,,,,,0,1,1,4,1,,,,,,,,,,,,,,,,,,,,,,,,,,,,,,,,,,,,,,,,,
258857,001,2022-11-20_17h56.49.157,Info_measure_main_exp,2022.2.2,Win32,59.96641881,,,,,,,,,,,,,,,,,,masks/mask_001.jpg,,,,,,,,,,,,,,,,,,,,,,,,,,,,,,,,,,,,,,,,,,,,,,,,0,2,2,0,1,,,,,,,,,,,,,,,,,,,,,,,,,,,,,,,,,,,,,,,,,
258857,001,2022-11-20_17h56.49.157,Info_measure_main_exp,2022.2.2,Win32,59.96641881,,,,,,,,,,,,,,,,,,masks/mask_002.jpg,,,,,,,,,,,,,,,,,,,,,,,,,,,,,,,,,,,,,,,,,,,,,,,,0,3,3,1,1,,,,,,,,,,,,,,,,,,,,,,,,,,,,,,,,,,,,,,,,,
258857,001,2022-11-20_17h56.49.157,Info_measure_main_exp,2022.2.2,Win32,59.96641881,,,,,,,,,,,,,,,,,,masks/mask_004.jpg,,,,,,,,,,,,,,,,,,,,,,,,,,,,,,,,,,,,,,,,,,,,,,,,0,4,4,3,1,,,,,,,,,,,,,,,,,,,,,,,,,,,,,,,,,,,,,,,,,
258857,001,2022-11-20_17h56.49.157,Info_measure_main_exp,2022.2.2,Win32,59.96641881,,,,,,,,,,,,,,,,,,,,,,,,,,,,,,7,0.8002,1,,,,,,,,,,,,0,131,5,5,2214,2178,absent_patch/patch0002214.jpg,absent_patch/patch0002178.jpg,,,,,,,,,,,,,,,,,,,,0.08148151,0.164814808,1,0,0,response1disk,14,-0.003703718,-0.003703718,1,0,0,center_square,0,13,13,62,1,,,,,,,,,,,,,,,,,,,,,,,
258857,001,2022-11-20_17h56.49.157,Info_measure_main_exp,2022.2.2,Win32,59.96641881,,,,,,,,,,,,,,,,,,masks/mask_005.jpg,,,,,,,,,,,,,,,,,,,,,,,,,,,,,,,,,,,,,,,,,,,0,0,0,4,1,,,,,,,,,,,,,,,,,,,,,,,,,,,,,,,,,,,,,,,,,,,,,,
258857,001,2022-11-20_17h56.49.157,Info_measure_main_exp,2022.2.2,Win32,59.96641881,,,,,,,,,,,,,,,,,,masks/mask_003.jpg,,,,,,,,,,,,,,,,,,,,,,,,,,,,,,,,,,,,,,,,,,,0,1,1,2,1,,,,,,,,,,,,,,,,,,,,,,,,,,,,,,,,,,,,,,,,,,,,,,
258857,001,2022-11-20_17h56.49.157,Info_measure_main_exp,2022.2.2,Win32,59.96641881,,,,,,,,,,,,,,,,,,masks/mask_001.jpg,,,,,,,,,,,,,,,,,,,,,,,,,,,,,,,,,,,,,,,,,,,0,2,2,0,1,,,,,,,,,,,,,,,,,,,,,,,,,,,,,,,,,,,,,,,,,,,,,,
258857,001,2022-11-20_17h56.49.157,Info_measure_main_exp,2022.2.2,Win32,59.96641881,,,,,,,,,,,,,,,,,,masks/mask_002.jpg,,,,,,,,,,,,,,,,,,,,,,,,,,,,,,,,,,,,,,,,,,,0,3,3,1,1,,,,,,,,,,,,,,,,,,,,,,,,,,,,,,,,,,,,,,,,,,,,,,
258857,001,2022-11-20_17h56.49.157,Info_measure_main_exp,2022.2.2,Win32,59.96641881,,,,,,,,,,,,,,,,,,masks/mask_004.jpg,,,,,,,,,,,,,,,,,,,,,,,,,,,,,,,,,,,,,,,,,,,0,4,4,3,1,,,,,,,,,,,,,,,,,,,,,,,,,,,,,,,,,,,,,,,,,,,,,,
258857,001,2022-11-20_17h56.49.157,Info_measure_main_exp,2022.2.2,Win32,59.96641881,,,,,,,,,,,,,,,,,,masks/mask_003.jpg,,,,,,,,,,,,,,,,,,,,,,,,,,,,,,,,,,,,,,,,,,,,,,,,0,0,0,2,1,,,,,,,,,,,,,,,,,,,,,,,,,,,,,,,,,,,,,,,,,
258857,001,2022-11-20_17h56.49.157,Info_measure_main_exp,2022.2.2,Win32,59.96641881,,,,,,,,,,,,,,,,,,masks/mask_004.jpg,,,,,,,,,,,,,,,,,,,,,,,,,,,,,,,,,,,,,,,,,,,,,,,,0,1,1,3,1,,,,,,,,,,,,,,,,,,,,,,,,,,,,,,,,,,,,,,,,,
258857,001,2022-11-20_17h56.49.157,Info_measure_main_exp,2022.2.2,Win32,59.96641881,,,,,,,,,,,,,,,,,,masks/mask_001.jpg,,,,,,,,,,,,,,,,,,,,,,,,,,,,,,,,,,,,,,,,,,,,,,,,0,2,2,0,1,,,,,,,,,,,,,,,,,,,,,,,,,,,,,,,,,,,,,,,,,
258857,001,2022-11-20_17h56.49.157,Info_measure_main_exp,2022.2.2,Win32,59.96641881,,,,,,,,,,,,,,,,,,masks/mask_002.jpg,,,,,,,,,,,,,,,,,,,,,,,,,,,,,,,,,,,,,,,,,,,,,,,,0,3,3,1,1,,,,,,,,,,,,,,,,,,,,,,,,,,,,,,,,,,,,,,,,,
258857,001,2022-11-20_17h56.49.157,Info_measure_main_exp,2022.2.2,Win32,59.96641881,,,,,,,,,,,,,,,,,,masks/mask_005.jpg,,,,,,,,,,,,,,,,,,,,,,,,,,,,,,,,,,,,,,,,,,,,,,,,0,4,4,4,1,,,,,,,,,,,,,,,,,,,,,,,,,,,,,,,,,,,,,,,,,
258857,001,2022-11-20_17h56.49.157,Info_measure_main_exp,2022.2.2,Win32,59.96641881,,,,,,,,,,,,,,,,,,,,,,,,,,,,,,7,0.6833,1,,,,,,,,,,,,0,131,5,5,2214,1986,absent_patch/patch0002214.jpg,absent_patch/patch0001986.jpg,,,,,,,,,,,,,,,,,,,,0.067592621,0.155555548,1,0,0,response1disk,15,0.00462963,-0.005555577,1,0,0,center_square,0,14,14,34,1,,,,,,,,,,,,,,,,,,,,,,,
258857,001,2022-11-20_17h56.49.157,Info_measure_main_exp,2022.2.2,Win32,59.96641881,,,,,,,,,,,,,,,,,,masks/mask_001.jpg,,,,,,,,,,,,,,,,,,,,,,,,,,,,,,,,,,,,,,,,,,,0,0,0,0,1,,,,,,,,,,,,,,,,,,,,,,,,,,,,,,,,,,,,,,,,,,,,,,
258857,001,2022-11-20_17h56.49.157,Info_measure_main_exp,2022.2.2,Win32,59.96641881,,,,,,,,,,,,,,,,,,masks/mask_005.jpg,,,,,,,,,,,,,,,,,,,,,,,,,,,,,,,,,,,,,,,,,,,0,1,1,4,1,,,,,,,,,,,,,,,,,,,,,,,,,,,,,,,,,,,,,,,,,,,,,,
258857,001,2022-11-20_17h56.49.157,Info_measure_main_exp,2022.2.2,Win32,59.96641881,,,,,,,,,,,,,,,,,,masks/mask_003.jpg,,,,,,,,,,,,,,,,,,,,,,,,,,,,,,,,,,,,,,,,,,,0,2,2,2,1,,,,,,,,,,,,,,,,,,,,,,,,,,,,,,,,,,,,,,,,,,,,,,
258857,001,2022-11-20_17h56.49.157,Info_measure_main_exp,2022.2.2,Win32,59.96641881,,,,,,,,,,,,,,,,,,masks/mask_002.jpg,,,,,,,,,,,,,,,,,,,,,,,,,,,,,,,,,,,,,,,,,,,0,3,3,1,1,,,,,,,,,,,,,,,,,,,,,,,,,,,,,,,,,,,,,,,,,,,,,,
258857,001,2022-11-20_17h56.49.157,Info_measure_main_exp,2022.2.2,Win32,59.96641881,,,,,,,,,,,,,,,,,,masks/mask_004.jpg,,,,,,,,,,,,,,,,,,,,,,,,,,,,,,,,,,,,,,,,,,,0,4,4,3,1,,,,,,,,,,,,,,,,,,,,,,,,,,,,,,,,,,,,,,,,,,,,,,
258857,001,2022-11-20_17h56.49.157,Info_measure_main_exp,2022.2.2,Win32,59.96641881,,,,,,,,,,,,,,,,,,masks/mask_005.jpg,,,,,,,,,,,,,,,,,,,,,,,,,,,,,,,,,,,,,,,,,,,,,,,,0,0,0,4,1,,,,,,,,,,,,,,,,,,,,,,,,,,,,,,,,,,,,,,,,,
258857,001,2022-11-20_17h56.49.157,Info_measure_main_exp,2022.2.2,Win32,59.96641881,,,,,,,,,,,,,,,,,,masks/mask_003.jpg,,,,,,,,,,,,,,,,,,,,,,,,,,,,,,,,,,,,,,,,,,,,,,,,0,1,1,2,1,,,,,,,,,,,,,,,,,,,,,,,,,,,,,,,,,,,,,,,,,
258857,001,2022-11-20_17h56.49.157,Info_measure_main_exp,2022.2.2,Win32,59.96641881,,,,,,,,,,,,,,,,,,masks/mask_001.jpg,,,,,,,,,,,,,,,,,,,,,,,,,,,,,,,,,,,,,,,,,,,,,,,,0,2,2,0,1,,,,,,,,,,,,,,,,,,,,,,,,,,,,,,,,,,,,,,,,,
258857,001,2022-11-20_17h56.49.157,Info_measure_main_exp,2022.2.2,Win32,59.96641881,,,,,,,,,,,,,,,,,,masks/mask_004.jpg,,,,,,,,,,,,,,,,,,,,,,,,,,,,,,,,,,,,,,,,,,,,,,,,0,3,3,3,1,,,,,,,,,,,,,,,,,,,,,,,,,,,,,,,,,,,,,,,,,
258857,001,2022-11-20_17h56.49.157,Info_measure_main_exp,2022.2.2,Win32,59.96641881,,,,,,,,,,,,,,,,,,masks/mask_002.jpg,,,,,,,,,,,,,,,,,,,,,,,,,,,,,,,,,,,,,,,,,,,,,,,,0,4,4,1,1,,,,,,,,,,,,,,,,,,,,,,,,,,,,,,,,,,,,,,,,,
258857,001,2022-11-20_17h56.49.157,Info_measure_main_exp,2022.2.2,Win32,59.96641881,,,,,,,,,,,,,,,,,,,,,,,,,,,,,,0,1.0165,1,,,,,,,,,,,,0,131,5,5,2190,2190,absent_patch/patch0002190.jpg,absent_patch/patch0002190.jpg,,,,,,,,,,,,,,,,,,,,-0.050925926,0.087962963,1,0,0,response7disk,16,-0.005555541,0.002777771,1,0,0,center_square,0,15,15,86,1,,,,,,,,,,,,,,,,,,,,,,,
258857,001,2022-11-20_17h56.49.157,Info_measure_main_exp,2022.2.2,Win32,59.96641881,,,,,,,,,,,,,,,,,,masks/mask_005.jpg,,,,,,,,,,,,,,,,,,,,,,,,,,,,,,,,,,,,,,,,,,,0,0,0,4,1,,,,,,,,,,,,,,,,,,,,,,,,,,,,,,,,,,,,,,,,,,,,,,
258857,001,2022-11-20_17h56.49.157,Info_measure_main_exp,2022.2.2,Win32,59.96641881,,,,,,,,,,,,,,,,,,masks/mask_003.jpg,,,,,,,,,,,,,,,,,,,,,,,,,,,,,,,,,,,,,,,,,,,0,1,1,2,1,,,,,,,,,,,,,,,,,,,,,,,,,,,,,,,,,,,,,,,,,,,,,,
258857,001,2022-11-20_17h56.49.157,Info_measure_main_exp,2022.2.2,Win32,59.96641881,,,,,,,,,,,,,,,,,,masks/mask_001.jpg,,,,,,,,,,,,,,,,,,,,,,,,,,,,,,,,,,,,,,,,,,,0,2,2,0,1,,,,,,,,,,,,,,,,,,,,,,,,,,,,,,,,,,,,,,,,,,,,,,
258857,001,2022-11-20_17h56.49.157,Info_measure_main_exp,2022.2.2,Win32,59.96641881,,,,,,,,,,,,,,,,,,masks/mask_004.jpg,,,,,,,,,,,,,,,,,,,,,,,,,,,,,,,,,,,,,,,,,,,0,3,3,3,1,,,,,,,,,,,,,,,,,,,,,,,,,,,,,,,,,,,,,,,,,,,,,,
258857,001,2022-11-20_17h56.49.157,Info_measure_main_exp,2022.2.2,Win32,59.96641881,,,,,,,,,,,,,,,,,,masks/mask_002.jpg,,,,,,,,,,,,,,,,,,,,,,,,,,,,,,,,,,,,,,,,,,,0,4,4,1,1,,,,,,,,,,,,,,,,,,,,,,,,,,,,,,,,,,,,,,,,,,,,,,
258857,001,2022-11-20_17h56.49.157,Info_measure_main_exp,2022.2.2,Win32,59.96641881,,,,,,,,,,,,,,,,,,masks/mask_005.jpg,,,,,,,,,,,,,,,,,,,,,,,,,,,,,,,,,,,,,,,,,,,,,,,,0,0,0,4,1,,,,,,,,,,,,,,,,,,,,,,,,,,,,,,,,,,,,,,,,,
258857,001,2022-11-20_17h56.49.157,Info_measure_main_exp,2022.2.2,Win32,59.96641881,,,,,,,,,,,,,,,,,,masks/mask_003.jpg,,,,,,,,,,,,,,,,,,,,,,,,,,,,,,,,,,,,,,,,,,,,,,,,0,1,1,2,1,,,,,,,,,,,,,,,,,,,,,,,,,,,,,,,,,,,,,,,,,
258857,001,2022-11-20_17h56.49.157,Info_measure_main_exp,2022.2.2,Win32,59.96641881,,,,,,,,,,,,,,,,,,masks/mask_001.jpg,,,,,,,,,,,,,,,,,,,,,,,,,,,,,,,,,,,,,,,,,,,,,,,,0,2,2,0,1,,,,,,,,,,,,,,,,,,,,,,,,,,,,,,,,,,,,,,,,,
258857,001,2022-11-20_17h56.49.157,Info_measure_main_exp,2022.2.2,Win32,59.96641881,,,,,,,,,,,,,,,,,,masks/mask_004.jpg,,,,,,,,,,,,,,,,,,,,,,,,,,,,,,,,,,,,,,,,,,,,,,,,0,3,3,3,1,,,,,,,,,,,,,,,,,,,,,,,,,,,,,,,,,,,,,,,,,
258857,001,2022-11-20_17h56.49.157,Info_measure_main_exp,2022.2.2,Win32,59.96641881,,,,,,,,,,,,,,,,,,masks/mask_002.jpg,,,,,,,,,,,,,,,,,,,,,,,,,,,,,,,,,,,,,,,,,,,,,,,,0,4,4,1,1,,,,,,,,,,,,,,,,,,,,,,,,,,,,,,,,,,,,,,,,,
258857,001,2022-11-20_17h56.49.157,Info_measure_main_exp,2022.2.2,Win32,59.96641881,,,,,,,,,,,,,,,,,,,,,,,,,,,,,,1,1.7168,1,,,,,,,,,,,,0,131,5,5,1950,2082,absent_patch/patch0001950.jpg,absent_patch/patch0002082.jpg,,,,,,,,,,,,,,,,,,,,-0.106481481,0.052777785,1,0,0,response7disk,17,-0.000925912,0,1,0,0,center_square,0,16,16,12,1,,,,,,,,,,,,,,,,,,,,,,,
258857,001,2022-11-20_17h56.49.157,Info_measure_main_exp,2022.2.2,Win32,59.96641881,,,,,,,,,,,,,,,,,,masks/mask_003.jpg,,,,,,,,,,,,,,,,,,,,,,,,,,,,,,,,,,,,,,,,,,,0,0,0,2,1,,,,,,,,,,,,,,,,,,,,,,,,,,,,,,,,,,,,,,,,,,,,,,
258857,001,2022-11-20_17h56.49.157,Info_measure_main_exp,2022.2.2,Win32,59.96641881,,,,,,,,,,,,,,,,,,masks/mask_004.jpg,,,,,,,,,,,,,,,,,,,,,,,,,,,,,,,,,,,,,,,,,,,0,1,1,3,1,,,,,,,,,,,,,,,,,,,,,,,,,,,,,,,,,,,,,,,,,,,,,,
258857,001,2022-11-20_17h56.49.157,Info_measure_main_exp,2022.2.2,Win32,59.96641881,,,,,,,,,,,,,,,,,,masks/mask_002.jpg,,,,,,,,,,,,,,,,,,,,,,,,,,,,,,,,,,,,,,,,,,,0,2,2,1,1,,,,,,,,,,,,,,,,,,,,,,,,,,,,,,,,,,,,,,,,,,,,,,
258857,001,2022-11-20_17h56.49.157,Info_measure_main_exp,2022.2.2,Win32,59.96641881,,,,,,,,,,,,,,,,,,masks/mask_001.jpg,,,,,,,,,,,,,,,,,,,,,,,,,,,,,,,,,,,,,,,,,,,0,3,3,0,1,,,,,,,,,,,,,,,,,,,,,,,,,,,,,,,,,,,,,,,,,,,,,,
258857,001,2022-11-20_17h56.49.157,Info_measure_main_exp,2022.2.2,Win32,59.96641881,,,,,,,,,,,,,,,,,,masks/mask_005.jpg,,,,,,,,,,,,,,,,,,,,,,,,,,,,,,,,,,,,,,,,,,,0,4,4,4,1,,,,,,,,,,,,,,,,,,,,,,,,,,,,,,,,,,,,,,,,,,,,,,
258857,001,2022-11-20_17h56.49.157,Info_measure_main_exp,2022.2.2,Win32,59.96641881,,,,,,,,,,,,,,,,,,masks/mask_003.jpg,,,,,,,,,,,,,,,,,,,,,,,,,,,,,,,,,,,,,,,,,,,,,,,,0,0,0,2,1,,,,,,,,,,,,,,,,,,,,,,,,,,,,,,,,,,,,,,,,,
258857,001,2022-11-20_17h56.49.157,Info_measure_main_exp,2022.2.2,Win32,59.96641881,,,,,,,,,,,,,,,,,,masks/mask_004.jpg,,,,,,,,,,,,,,,,,,,,,,,,,,,,,,,,,,,,,,,,,,,,,,,,0,1,1,3,1,,,,,,,,,,,,,,,,,,,,,,,,,,,,,,,,,,,,,,,,,
258857,001,2022-11-20_17h56.49.157,Info_measure_main_exp,2022.2.2,Win32,59.96641881,,,,,,,,,,,,,,,,,,masks/mask_002.jpg,,,,,,,,,,,,,,,,,,,,,,,,,,,,,,,,,,,,,,,,,,,,,,,,0,2,2,1,1,,,,,,,,,,,,,,,,,,,,,,,,,,,,,,,,,,,,,,,,,
258857,001,2022-11-20_17h56.49.157,Info_measure_main_exp,2022.2.2,Win32,59.96641881,,,,,,,,,,,,,,,,,,masks/mask_005.jpg,,,,,,,,,,,,,,,,,,,,,,,,,,,,,,,,,,,,,,,,,,,,,,,,0,3,3,4,1,,,,,,,,,,,,,,,,,,,,,,,,,,,,,,,,,,,,,,,,,
258857,001,2022-11-20_17h56.49.157,Info_measure_main_exp,2022.2.2,Win32,59.96641881,,,,,,,,,,,,,,,,,,masks/mask_001.jpg,,,,,,,,,,,,,,,,,,,,,,,,,,,,,,,,,,,,,,,,,,,,,,,,0,4,4,0,1,,,,,,,,,,,,,,,,,,,,,,,,,,,,,,,,,,,,,,,,,
258857,001,2022-11-20_17h56.49.157,Info_measure_main_exp,2022.2.2,Win32,59.96641881,,,,,,,,,,,,,,,,,,,,,,,,,,,,,,7,0.7,1,,,,,,,,,,,,0,131,5,5,1986,2238,absent_patch/patch0001986.jpg,absent_patch/patch0002238.jpg,,,,,,,,,,,,,,,,,,,,0.043518561,0.133333312,1,0,0,response1disk,18,0.010185171,0.01203703,1,0,0,center_square,0,17,17,31,1,,,,,,,,,,,,,,,,,,,,,,,
258857,001,2022-11-20_17h56.49.157,Info_measure_main_exp,2022.2.2,Win32,59.96641881,,,,,,,,,,,,,,,,,,masks/mask_005.jpg,,,,,,,,,,,,,,,,,,,,,,,,,,,,,,,,,,,,,,,,,,,0,0,0,4,1,,,,,,,,,,,,,,,,,,,,,,,,,,,,,,,,,,,,,,,,,,,,,,
258857,001,2022-11-20_17h56.49.157,Info_measure_main_exp,2022.2.2,Win32,59.96641881,,,,,,,,,,,,,,,,,,masks/mask_004.jpg,,,,,,,,,,,,,,,,,,,,,,,,,,,,,,,,,,,,,,,,,,,0,1,1,3,1,,,,,,,,,,,,,,,,,,,,,,,,,,,,,,,,,,,,,,,,,,,,,,
258857,001,2022-11-20_17h56.49.157,Info_measure_main_exp,2022.2.2,Win32,59.96641881,,,,,,,,,,,,,,,,,,masks/mask_001.jpg,,,,,,,,,,,,,,,,,,,,,,,,,,,,,,,,,,,,,,,,,,,0,2,2,0,1,,,,,,,,,,,,,,,,,,,,,,,,,,,,,,,,,,,,,,,,,,,,,,
258857,001,2022-11-20_17h56.49.157,Info_measure_main_exp,2022.2.2,Win32,59.96641881,,,,,,,,,,,,,,,,,,masks/mask_002.jpg,,,,,,,,,,,,,,,,,,,,,,,,,,,,,,,,,,,,,,,,,,,0,3,3,1,1,,,,,,,,,,,,,,,,,,,,,,,,,,,,,,,,,,,,,,,,,,,,,,
258857,001,2022-11-20_17h56.49.157,Info_measure_main_exp,2022.2.2,Win32,59.96641881,,,,,,,,,,,,,,,,,,masks/mask_003.jpg,,,,,,,,,,,,,,,,,,,,,,,,,,,,,,,,,,,,,,,,,,,0,4,4,2,1,,,,,,,,,,,,,,,,,,,,,,,,,,,,,,,,,,,,,,,,,,,,,,
258857,001,2022-11-20_17h56.49.157,Info_measure_main_exp,2022.2.2,Win32,59.96641881,,,,,,,,,,,,,,,,,,masks/mask_004.jpg,,,,,,,,,,,,,,,,,,,,,,,,,,,,,,,,,,,,,,,,,,,,,,,,0,0,0,3,1,,,,,,,,,,,,,,,,,,,,,,,,,,,,,,,,,,,,,,,,,
258857,001,2022-11-20_17h56.49.157,Info_measure_main_exp,2022.2.2,Win32,59.96641881,,,,,,,,,,,,,,,,,,masks/mask_003.jpg,,,,,,,,,,,,,,,,,,,,,,,,,,,,,,,,,,,,,,,,,,,,,,,,0,1,1,2,1,,,,,,,,,,,,,,,,,,,,,,,,,,,,,,,,,,,,,,,,,
258857,001,2022-11-20_17h56.49.157,Info_measure_main_exp,2022.2.2,Win32,59.96641881,,,,,,,,,,,,,,,,,,masks/mask_005.jpg,,,,,,,,,,,,,,,,,,,,,,,,,,,,,,,,,,,,,,,,,,,,,,,,0,2,2,4,1,,,,,,,,,,,,,,,,,,,,,,,,,,,,,,,,,,,,,,,,,
258857,001,2022-11-20_17h56.49.157,Info_measure_main_exp,2022.2.2,Win32,59.96641881,,,,,,,,,,,,,,,,,,masks/mask_002.jpg,,,,,,,,,,,,,,,,,,,,,,,,,,,,,,,,,,,,,,,,,,,,,,,,0,3,3,1,1,,,,,,,,,,,,,,,,,,,,,,,,,,,,,,,,,,,,,,,,,
258857,001,2022-11-20_17h56.49.157,Info_measure_main_exp,2022.2.2,Win32,59.96641881,,,,,,,,,,,,,,,,,,masks/mask_001.jpg,,,,,,,,,,,,,,,,,,,,,,,,,,,,,,,,,,,,,,,,,,,,,,,,0,4,4,0,1,,,,,,,,,,,,,,,,,,,,,,,,,,,,,,,,,,,,,,,,,
258857,001,2022-11-20_17h56.49.157,Info_measure_main_exp,2022.2.2,Win32,59.96641881,,,,,,,,,,,,,,,,,,,,,,,,,,,,,,7,0.8168,1,,,,,,,,,,,,0,131,5,5,2082,2154,absent_patch/patch0002082.jpg,absent_patch/patch0002154.jpg,,,,,,,,,,,,,,,,,,,,0.018518519,0.100925905,1,0,0,response1disk,19,-0.00462963,-0.00462963,1,0,0,center_square,0,18,18,33,1,,,,,,,,,,,,,,,,,,,,,,,
258857,001,2022-11-20_17h56.49.157,Info_measure_main_exp,2022.2.2,Win32,59.96641881,,,,,,,,,,,,,,,,,,masks/mask_005.jpg,,,,,,,,,,,,,,,,,,,,,,,,,,,,,,,,,,,,,,,,,,,0,0,0,4,1,,,,,,,,,,,,,,,,,,,,,,,,,,,,,,,,,,,,,,,,,,,,,,
258857,001,2022-11-20_17h56.49.157,Info_measure_main_exp,2022.2.2,Win32,59.96641881,,,,,,,,,,,,,,,,,,masks/mask_001.jpg,,,,,,,,,,,,,,,,,,,,,,,,,,,,,,,,,,,,,,,,,,,0,1,1,0,1,,,,,,,,,,,,,,,,,,,,,,,,,,,,,,,,,,,,,,,,,,,,,,
258857,001,2022-11-20_17h56.49.157,Info_measure_main_exp,2022.2.2,Win32,59.96641881,,,,,,,,,,,,,,,,,,masks/mask_003.jpg,,,,,,,,,,,,,,,,,,,,,,,,,,,,,,,,,,,,,,,,,,,0,2,2,2,1,,,,,,,,,,,,,,,,,,,,,,,,,,,,,,,,,,,,,,,,,,,,,,
258857,001,2022-11-20_17h56.49.157,Info_measure_main_exp,2022.2.2,Win32,59.96641881,,,,,,,,,,,,,,,,,,masks/mask_002.jpg,,,,,,,,,,,,,,,,,,,,,,,,,,,,,,,,,,,,,,,,,,,0,3,3,1,1,,,,,,,,,,,,,,,,,,,,,,,,,,,,,,,,,,,,,,,,,,,,,,
258857,001,2022-11-20_17h56.49.157,Info_measure_main_exp,2022.2.2,Win32,59.96641881,,,,,,,,,,,,,,,,,,masks/mask_004.jpg,,,,,,,,,,,,,,,,,,,,,,,,,,,,,,,,,,,,,,,,,,,0,4,4,3,1,,,,,,,,,,,,,,,,,,,,,,,,,,,,,,,,,,,,,,,,,,,,,,
258857,001,2022-11-20_17h56.49.157,Info_measure_main_exp,2022.2.2,Win32,59.96641881,,,,,,,,,,,,,,,,,,masks/mask_003.jpg,,,,,,,,,,,,,,,,,,,,,,,,,,,,,,,,,,,,,,,,,,,,,,,,0,0,0,2,1,,,,,,,,,,,,,,,,,,,,,,,,,,,,,,,,,,,,,,,,,
258857,001,2022-11-20_17h56.49.157,Info_measure_main_exp,2022.2.2,Win32,59.96641881,,,,,,,,,,,,,,,,,,masks/mask_004.jpg,,,,,,,,,,,,,,,,,,,,,,,,,,,,,,,,,,,,,,,,,,,,,,,,0,1,1,3,1,,,,,,,,,,,,,,,,,,,,,,,,,,,,,,,,,,,,,,,,,
258857,001,2022-11-20_17h56.49.157,Info_measure_main_exp,2022.2.2,Win32,59.96641881,,,,,,,,,,,,,,,,,,masks/mask_005.jpg,,,,,,,,,,,,,,,,,,,,,,,,,,,,,,,,,,,,,,,,,,,,,,,,0,2,2,4,1,,,,,,,,,,,,,,,,,,,,,,,,,,,,,,,,,,,,,,,,,
258857,001,2022-11-20_17h56.49.157,Info_measure_main_exp,2022.2.2,Win32,59.96641881,,,,,,,,,,,,,,,,,,masks/mask_001.jpg,,,,,,,,,,,,,,,,,,,,,,,,,,,,,,,,,,,,,,,,,,,,,,,,0,3,3,0,1,,,,,,,,,,,,,,,,,,,,,,,,,,,,,,,,,,,,,,,,,
258857,001,2022-11-20_17h56.49.157,Info_measure_main_exp,2022.2.2,Win32,59.96641881,,,,,,,,,,,,,,,,,,masks/mask_002.jpg,,,,,,,,,,,,,,,,,,,,,,,,,,,,,,,,,,,,,,,,,,,,,,,,0,4,4,1,1,,,,,,,,,,,,,,,,,,,,,,,,,,,,,,,,,,,,,,,,,
258857,001,2022-11-20_17h56.49.157,Info_measure_main_exp,2022.2.2,Win32,59.96641881,,,,,,,,,,,,,,,,,,,,,,,,,,,,,,7,0.7,1,,,,,,,,,,,,0,131,5,5,2082,2166,absent_patch/patch0002082.jpg,absent_patch/patch0002166.jpg,,,,,,,,,,,,,,,,,,,,0.040740755,0.103703711,1,0,0,response1disk,20,0.005555541,0.005555541,1,0,0,center_square,0,19,19,43,1,,,,,,,,,,,,,,,,,,,,,,,
258857,001,2022-11-20_17h56.49.157,Info_measure_main_exp,2022.2.2,Win32,59.96641881,,,,,,,,,,,,,,,,,,masks/mask_001.jpg,,,,,,,,,,,,,,,,,,,,,,,,,,,,,,,,,,,,,,,,,,,0,0,0,0,1,,,,,,,,,,,,,,,,,,,,,,,,,,,,,,,,,,,,,,,,,,,,,,
258857,001,2022-11-20_17h56.49.157,Info_measure_main_exp,2022.2.2,Win32,59.96641881,,,,,,,,,,,,,,,,,,masks/mask_002.jpg,,,,,,,,,,,,,,,,,,,,,,,,,,,,,,,,,,,,,,,,,,,0,1,1,1,1,,,,,,,,,,,,,,,,,,,,,,,,,,,,,,,,,,,,,,,,,,,,,,
258857,001,2022-11-20_17h56.49.157,Info_measure_main_exp,2022.2.2,Win32,59.96641881,,,,,,,,,,,,,,,,,,masks/mask_004.jpg,,,,,,,,,,,,,,,,,,,,,,,,,,,,,,,,,,,,,,,,,,,0,2,2,3,1,,,,,,,,,,,,,,,,,,,,,,,,,,,,,,,,,,,,,,,,,,,,,,
258857,001,2022-11-20_17h56.49.157,Info_measure_main_exp,2022.2.2,Win32,59.96641881,,,,,,,,,,,,,,,,,,masks/mask_005.jpg,,,,,,,,,,,,,,,,,,,,,,,,,,,,,,,,,,,,,,,,,,,0,3,3,4,1,,,,,,,,,,,,,,,,,,,,,,,,,,,,,,,,,,,,,,,,,,,,,,
258857,001,2022-11-20_17h56.49.157,Info_measure_main_exp,2022.2.2,Win32,59.96641881,,,,,,,,,,,,,,,,,,masks/mask_003.jpg,,,,,,,,,,,,,,,,,,,,,,,,,,,,,,,,,,,,,,,,,,,0,4,4,2,1,,,,,,,,,,,,,,,,,,,,,,,,,,,,,,,,,,,,,,,,,,,,,,
258857,001,2022-11-20_17h56.49.157,Info_measure_main_exp,2022.2.2,Win32,59.96641881,,,,,,,,,,,,,,,,,,masks/mask_001.jpg,,,,,,,,,,,,,,,,,,,,,,,,,,,,,,,,,,,,,,,,,,,,,,,,0,0,0,0,1,,,,,,,,,,,,,,,,,,,,,,,,,,,,,,,,,,,,,,,,,
258857,001,2022-11-20_17h56.49.157,Info_measure_main_exp,2022.2.2,Win32,59.96641881,,,,,,,,,,,,,,,,,,masks/mask_005.jpg,,,,,,,,,,,,,,,,,,,,,,,,,,,,,,,,,,,,,,,,,,,,,,,,0,1,1,4,1,,,,,,,,,,,,,,,,,,,,,,,,,,,,,,,,,,,,,,,,,
258857,001,2022-11-20_17h56.49.157,Info_measure_main_exp,2022.2.2,Win32,59.96641881,,,,,,,,,,,,,,,,,,masks/mask_003.jpg,,,,,,,,,,,,,,,,,,,,,,,,,,,,,,,,,,,,,,,,,,,,,,,,0,2,2,2,1,,,,,,,,,,,,,,,,,,,,,,,,,,,,,,,,,,,,,,,,,
258857,001,2022-11-20_17h56.49.157,Info_measure_main_exp,2022.2.2,Win32,59.96641881,,,,,,,,,,,,,,,,,,masks/mask_002.jpg,,,,,,,,,,,,,,,,,,,,,,,,,,,,,,,,,,,,,,,,,,,,,,,,0,3,3,1,1,,,,,,,,,,,,,,,,,,,,,,,,,,,,,,,,,,,,,,,,,
258857,001,2022-11-20_17h56.49.157,Info_measure_main_exp,2022.2.2,Win32,59.96641881,,,,,,,,,,,,,,,,,,masks/mask_004.jpg,,,,,,,,,,,,,,,,,,,,,,,,,,,,,,,,,,,,,,,,,,,,,,,,0,4,4,3,1,,,,,,,,,,,,,,,,,,,,,,,,,,,,,,,,,,,,,,,,,
258857,001,2022-11-20_17h56.49.157,Info_measure_main_exp,2022.2.2,Win32,59.96641881,,,,,,,,,,,,,,,,,,,,,,,,,,,,,,7,0.6834,1,,,,,,,,,,,,0,131,5,5,2238,2298,absent_patch/patch0002238.jpg,absent_patch/patch0002298.jpg,,,,,,,,,,,,,,,,,,,,0.031481496,0.100925905,1,0,0,response1disk,21,0.00462963,0.000925912,1,0,0,center_square,0,20,20,51,1,,,,,,,,,,,,,,,,,,,,,,,
258857,001,2022-11-20_17h56.49.157,Info_measure_main_exp,2022.2.2,Win32,59.96641881,,,,,,,,,,,,,,,,,,masks/mask_004.jpg,,,,,,,,,,,,,,,,,,,,,,,,,,,,,,,,,,,,,,,,,,,0,0,0,3,1,,,,,,,,,,,,,,,,,,,,,,,,,,,,,,,,,,,,,,,,,,,,,,
258857,001,2022-11-20_17h56.49.157,Info_measure_main_exp,2022.2.2,Win32,59.96641881,,,,,,,,,,,,,,,,,,masks/mask_003.jpg,,,,,,,,,,,,,,,,,,,,,,,,,,,,,,,,,,,,,,,,,,,0,1,1,2,1,,,,,,,,,,,,,,,,,,,,,,,,,,,,,,,,,,,,,,,,,,,,,,
258857,001,2022-11-20_17h56.49.157,Info_measure_main_exp,2022.2.2,Win32,59.96641881,,,,,,,,,,,,,,,,,,masks/mask_005.jpg,,,,,,,,,,,,,,,,,,,,,,,,,,,,,,,,,,,,,,,,,,,0,2,2,4,1,,,,,,,,,,,,,,,,,,,,,,,,,,,,,,,,,,,,,,,,,,,,,,
258857,001,2022-11-20_17h56.49.157,Info_measure_main_exp,2022.2.2,Win32,59.96641881,,,,,,,,,,,,,,,,,,masks/mask_002.jpg,,,,,,,,,,,,,,,,,,,,,,,,,,,,,,,,,,,,,,,,,,,0,3,3,1,1,,,,,,,,,,,,,,,,,,,,,,,,,,,,,,,,,,,,,,,,,,,,,,
258857,001,2022-11-20_17h56.49.157,Info_measure_main_exp,2022.2.2,Win32,59.96641881,,,,,,,,,,,,,,,,,,masks/mask_001.jpg,,,,,,,,,,,,,,,,,,,,,,,,,,,,,,,,,,,,,,,,,,,0,4,4,0,1,,,,,,,,,,,,,,,,,,,,,,,,,,,,,,,,,,,,,,,,,,,,,,
258857,001,2022-11-20_17h56.49.157,Info_measure_main_exp,2022.2.2,Win32,59.96641881,,,,,,,,,,,,,,,,,,masks/mask_004.jpg,,,,,,,,,,,,,,,,,,,,,,,,,,,,,,,,,,,,,,,,,,,,,,,,0,0,0,3,1,,,,,,,,,,,,,,,,,,,,,,,,,,,,,,,,,,,,,,,,,
258857,001,2022-11-20_17h56.49.157,Info_measure_main_exp,2022.2.2,Win32,59.96641881,,,,,,,,,,,,,,,,,,masks/mask_002.jpg,,,,,,,,,,,,,,,,,,,,,,,,,,,,,,,,,,,,,,,,,,,,,,,,0,1,1,1,1,,,,,,,,,,,,,,,,,,,,,,,,,,,,,,,,,,,,,,,,,
258857,001,2022-11-20_17h56.49.157,Info_measure_main_exp,2022.2.2,Win32,59.96641881,,,,,,,,,,,,,,,,,,masks/mask_003.jpg,,,,,,,,,,,,,,,,,,,,,,,,,,,,,,,,,,,,,,,,,,,,,,,,0,2,2,2,1,,,,,,,,,,,,,,,,,,,,,,,,,,,,,,,,,,,,,,,,,
258857,001,2022-11-20_17h56.49.157,Info_measure_main_exp,2022.2.2,Win32,59.96641881,,,,,,,,,,,,,,,,,,masks/mask_001.jpg,,,,,,,,,,,,,,,,,,,,,,,,,,,,,,,,,,,,,,,,,,,,,,,,0,3,3,0,1,,,,,,,,,,,,,,,,,,,,,,,,,,,,,,,,,,,,,,,,,
258857,001,2022-11-20_17h56.49.157,Info_measure_main_exp,2022.2.2,Win32,59.96641881,,,,,,,,,,,,,,,,,,masks/mask_005.jpg,,,,,,,,,,,,,,,,,,,,,,,,,,,,,,,,,,,,,,,,,,,,,,,,0,4,4,4,1,,,,,,,,,,,,,,,,,,,,,,,,,,,,,,,,,,,,,,,,,
258857,001,2022-11-20_17h56.49.157,Info_measure_main_exp,2022.2.2,Win32,59.96641881,,,,,,,,,,,,,,,,,,,,,,,,,,,,,,7,0.9668,1,,,,,,,,,,,,0,131,5,5,2190,1974,absent_patch/patch0002190.jpg,absent_patch/patch0001974.jpg,,,,,,,,,,,,,,,,,,,,0.035185213,0.139814801,1,0,0,response1disk,22,0.001851894,0.000925912,1,0,0,center_square,0,21,21,119,1,,,,,,,,,,,,,,,,,,,,,,,
258857,001,2022-11-20_17h56.49.157,Info_measure_main_exp,2022.2.2,Win32,59.96641881,,,,,,,,,,,,,,,,,,masks/mask_004.jpg,,,,,,,,,,,,,,,,,,,,,,,,,,,,,,,,,,,,,,,,,,,0,0,0,3,1,,,,,,,,,,,,,,,,,,,,,,,,,,,,,,,,,,,,,,,,,,,,,,
258857,001,2022-11-20_17h56.49.157,Info_measure_main_exp,2022.2.2,Win32,59.96641881,,,,,,,,,,,,,,,,,,masks/mask_001.jpg,,,,,,,,,,,,,,,,,,,,,,,,,,,,,,,,,,,,,,,,,,,0,1,1,0,1,,,,,,,,,,,,,,,,,,,,,,,,,,,,,,,,,,,,,,,,,,,,,,
258857,001,2022-11-20_17h56.49.157,Info_measure_main_exp,2022.2.2,Win32,59.96641881,,,,,,,,,,,,,,,,,,masks/mask_003.jpg,,,,,,,,,,,,,,,,,,,,,,,,,,,,,,,,,,,,,,,,,,,0,2,2,2,1,,,,,,,,,,,,,,,,,,,,,,,,,,,,,,,,,,,,,,,,,,,,,,
258857,001,2022-11-20_17h56.49.157,Info_measure_main_exp,2022.2.2,Win32,59.96641881,,,,,,,,,,,,,,,,,,masks/mask_002.jpg,,,,,,,,,,,,,,,,,,,,,,,,,,,,,,,,,,,,,,,,,,,0,3,3,1,1,,,,,,,,,,,,,,,,,,,,,,,,,,,,,,,,,,,,,,,,,,,,,,
258857,001,2022-11-20_17h56.49.157,Info_measure_main_exp,2022.2.2,Win32,59.96641881,,,,,,,,,,,,,,,,,,masks/mask_005.jpg,,,,,,,,,,,,,,,,,,,,,,,,,,,,,,,,,,,,,,,,,,,0,4,4,4,1,,,,,,,,,,,,,,,,,,,,,,,,,,,,,,,,,,,,,,,,,,,,,,
258857,001,2022-11-20_17h56.49.157,Info_measure_main_exp,2022.2.2,Win32,59.96641881,,,,,,,,,,,,,,,,,,masks/mask_005.jpg,,,,,,,,,,,,,,,,,,,,,,,,,,,,,,,,,,,,,,,,,,,,,,,,0,0,0,4,1,,,,,,,,,,,,,,,,,,,,,,,,,,,,,,,,,,,,,,,,,
258857,001,2022-11-20_17h56.49.157,Info_measure_main_exp,2022.2.2,Win32,59.96641881,,,,,,,,,,,,,,,,,,masks/mask_004.jpg,,,,,,,,,,,,,,,,,,,,,,,,,,,,,,,,,,,,,,,,,,,,,,,,0,1,1,3,1,,,,,,,,,,,,,,,,,,,,,,,,,,,,,,,,,,,,,,,,,
258857,001,2022-11-20_17h56.49.157,Info_measure_main_exp,2022.2.2,Win32,59.96641881,,,,,,,,,,,,,,,,,,masks/mask_001.jpg,,,,,,,,,,,,,,,,,,,,,,,,,,,,,,,,,,,,,,,,,,,,,,,,0,2,2,0,1,,,,,,,,,,,,,,,,,,,,,,,,,,,,,,,,,,,,,,,,,
258857,001,2022-11-20_17h56.49.157,Info_measure_main_exp,2022.2.2,Win32,59.96641881,,,,,,,,,,,,,,,,,,masks/mask_003.jpg,,,,,,,,,,,,,,,,,,,,,,,,,,,,,,,,,,,,,,,,,,,,,,,,0,3,3,2,1,,,,,,,,,,,,,,,,,,,,,,,,,,,,,,,,,,,,,,,,,
258857,001,2022-11-20_17h56.49.157,Info_measure_main_exp,2022.2.2,Win32,59.96641881,,,,,,,,,,,,,,,,,,masks/mask_002.jpg,,,,,,,,,,,,,,,,,,,,,,,,,,,,,,,,,,,,,,,,,,,,,,,,0,4,4,1,1,,,,,,,,,,,,,,,,,,,,,,,,,,,,,,,,,,,,,,,,,
258857,001,2022-11-20_17h56.49.157,Info_measure_main_exp,2022.2.2,Win32,59.96641881,,,,,,,,,,,,,,,,,,,,,,,,,,,,,,7,0.7502,1,,,,,,,,,,,,0,131,5,5,2142,2238,absent_patch/patch0002142.jpg,absent_patch/patch0002238.jpg,,,,,,,,,,,,,,,,,,,,0.048148191,0.135185171,1,0,0,response1disk,23,0.002777806,0.002777771,1,0,0,center_square,0,22,22,101,1,,,,,,,,,,,,,,,,,,,,,,,
258857,001,2022-11-20_17h56.49.157,Info_measure_main_exp,2022.2.2,Win32,59.96641881,,,,,,,,,,,,,,,,,,masks/mask_005.jpg,,,,,,,,,,,,,,,,,,,,,,,,,,,,,,,,,,,,,,,,,,,0,0,0,4,1,,,,,,,,,,,,,,,,,,,,,,,,,,,,,,,,,,,,,,,,,,,,,,
258857,001,2022-11-20_17h56.49.157,Info_measure_main_exp,2022.2.2,Win32,59.96641881,,,,,,,,,,,,,,,,,,masks/mask_004.jpg,,,,,,,,,,,,,,,,,,,,,,,,,,,,,,,,,,,,,,,,,,,0,1,1,3,1,,,,,,,,,,,,,,,,,,,,,,,,,,,,,,,,,,,,,,,,,,,,,,
258857,001,2022-11-20_17h56.49.157,Info_measure_main_exp,2022.2.2,Win32,59.96641881,,,,,,,,,,,,,,,,,,masks/mask_003.jpg,,,,,,,,,,,,,,,,,,,,,,,,,,,,,,,,,,,,,,,,,,,0,2,2,2,1,,,,,,,,,,,,,,,,,,,,,,,,,,,,,,,,,,,,,,,,,,,,,,
258857,001,2022-11-20_17h56.49.157,Info_measure_main_exp,2022.2.2,Win32,59.96641881,,,,,,,,,,,,,,,,,,masks/mask_002.jpg,,,,,,,,,,,,,,,,,,,,,,,,,,,,,,,,,,,,,,,,,,,0,3,3,1,1,,,,,,,,,,,,,,,,,,,,,,,,,,,,,,,,,,,,,,,,,,,,,,
258857,001,2022-11-20_17h56.49.157,Info_measure_main_exp,2022.2.2,Win32,59.96641881,,,,,,,,,,,,,,,,,,masks/mask_001.jpg,,,,,,,,,,,,,,,,,,,,,,,,,,,,,,,,,,,,,,,,,,,0,4,4,0,1,,,,,,,,,,,,,,,,,,,,,,,,,,,,,,,,,,,,,,,,,,,,,,
258857,001,2022-11-20_17h56.49.157,Info_measure_main_exp,2022.2.2,Win32,59.96641881,,,,,,,,,,,,,,,,,,masks/mask_004.jpg,,,,,,,,,,,,,,,,,,,,,,,,,,,,,,,,,,,,,,,,,,,,,,,,0,0,0,3,1,,,,,,,,,,,,,,,,,,,,,,,,,,,,,,,,,,,,,,,,,
258857,001,2022-11-20_17h56.49.157,Info_measure_main_exp,2022.2.2,Win32,59.96641881,,,,,,,,,,,,,,,,,,masks/mask_001.jpg,,,,,,,,,,,,,,,,,,,,,,,,,,,,,,,,,,,,,,,,,,,,,,,,0,1,1,0,1,,,,,,,,,,,,,,,,,,,,,,,,,,,,,,,,,,,,,,,,,
258857,001,2022-11-20_17h56.49.157,Info_measure_main_exp,2022.2.2,Win32,59.96641881,,,,,,,,,,,,,,,,,,masks/mask_003.jpg,,,,,,,,,,,,,,,,,,,,,,,,,,,,,,,,,,,,,,,,,,,,,,,,0,2,2,2,1,,,,,,,,,,,,,,,,,,,,,,,,,,,,,,,,,,,,,,,,,
258857,001,2022-11-20_17h56.49.157,Info_measure_main_exp,2022.2.2,Win32,59.96641881,,,,,,,,,,,,,,,,,,masks/mask_005.jpg,,,,,,,,,,,,,,,,,,,,,,,,,,,,,,,,,,,,,,,,,,,,,,,,0,3,3,4,1,,,,,,,,,,,,,,,,,,,,,,,,,,,,,,,,,,,,,,,,,
258857,001,2022-11-20_17h56.49.157,Info_measure_main_exp,2022.2.2,Win32,59.96641881,,,,,,,,,,,,,,,,,,masks/mask_002.jpg,,,,,,,,,,,,,,,,,,,,,,,,,,,,,,,,,,,,,,,,,,,,,,,,0,4,4,1,1,,,,,,,,,,,,,,,,,,,,,,,,,,,,,,,,,,,,,,,,,
258857,001,2022-11-20_17h56.49.157,Info_measure_main_exp,2022.2.2,Win32,59.96641881,,,,,,,,,,,,,,,,,,,,,,,,,,,,,,7,0.7333,1,,,,,,,,,,,,0,131,5,5,2274,1974,absent_patch/patch0002274.jpg,absent_patch/patch0001974.jpg,,,,,,,,,,,,,,,,,,,,0.055555556,0.135185171,1,0,0,response1disk,24,0.013888889,0,1,0,0,center_square,0,23,23,90,1,,,,,,,,,,,,,,,,,,,,,,,
258857,001,2022-11-20_17h56.49.157,Info_measure_main_exp,2022.2.2,Win32,59.96641881,,,,,,,,,,,,,,,,,,masks/mask_003.jpg,,,,,,,,,,,,,,,,,,,,,,,,,,,,,,,,,,,,,,,,,,,0,0,0,2,1,,,,,,,,,,,,,,,,,,,,,,,,,,,,,,,,,,,,,,,,,,,,,,
258857,001,2022-11-20_17h56.49.157,Info_measure_main_exp,2022.2.2,Win32,59.96641881,,,,,,,,,,,,,,,,,,masks/mask_004.jpg,,,,,,,,,,,,,,,,,,,,,,,,,,,,,,,,,,,,,,,,,,,0,1,1,3,1,,,,,,,,,,,,,,,,,,,,,,,,,,,,,,,,,,,,,,,,,,,,,,
258857,001,2022-11-20_17h56.49.157,Info_measure_main_exp,2022.2.2,Win32,59.96641881,,,,,,,,,,,,,,,,,,masks/mask_002.jpg,,,,,,,,,,,,,,,,,,,,,,,,,,,,,,,,,,,,,,,,,,,0,2,2,1,1,,,,,,,,,,,,,,,,,,,,,,,,,,,,,,,,,,,,,,,,,,,,,,
258857,001,2022-11-20_17h56.49.157,Info_measure_main_exp,2022.2.2,Win32,59.96641881,,,,,,,,,,,,,,,,,,masks/mask_005.jpg,,,,,,,,,,,,,,,,,,,,,,,,,,,,,,,,,,,,,,,,,,,0,3,3,4,1,,,,,,,,,,,,,,,,,,,,,,,,,,,,,,,,,,,,,,,,,,,,,,
258857,001,2022-11-20_17h56.49.157,Info_measure_main_exp,2022.2.2,Win32,59.96641881,,,,,,,,,,,,,,,,,,masks/mask_001.jpg,,,,,,,,,,,,,,,,,,,,,,,,,,,,,,,,,,,,,,,,,,,0,4,4,0,1,,,,,,,,,,,,,,,,,,,,,,,,,,,,,,,,,,,,,,,,,,,,,,
258857,001,2022-11-20_17h56.49.157,Info_measure_main_exp,2022.2.2,Win32,59.96641881,,,,,,,,,,,,,,,,,,masks/mask_002.jpg,,,,,,,,,,,,,,,,,,,,,,,,,,,,,,,,,,,,,,,,,,,,,,,,0,0,0,1,1,,,,,,,,,,,,,,,,,,,,,,,,,,,,,,,,,,,,,,,,,
258857,001,2022-11-20_17h56.49.157,Info_measure_main_exp,2022.2.2,Win32,59.96641881,,,,,,,,,,,,,,,,,,masks/mask_005.jpg,,,,,,,,,,,,,,,,,,,,,,,,,,,,,,,,,,,,,,,,,,,,,,,,0,1,1,4,1,,,,,,,,,,,,,,,,,,,,,,,,,,,,,,,,,,,,,,,,,
258857,001,2022-11-20_17h56.49.157,Info_measure_main_exp,2022.2.2,Win32,59.96641881,,,,,,,,,,,,,,,,,,masks/mask_003.jpg,,,,,,,,,,,,,,,,,,,,,,,,,,,,,,,,,,,,,,,,,,,,,,,,0,2,2,2,1,,,,,,,,,,,,,,,,,,,,,,,,,,,,,,,,,,,,,,,,,
258857,001,2022-11-20_17h56.49.157,Info_measure_main_exp,2022.2.2,Win32,59.96641881,,,,,,,,,,,,,,,,,,masks/mask_001.jpg,,,,,,,,,,,,,,,,,,,,,,,,,,,,,,,,,,,,,,,,,,,,,,,,0,3,3,0,1,,,,,,,,,,,,,,,,,,,,,,,,,,,,,,,,,,,,,,,,,
258857,001,2022-11-20_17h56.49.157,Info_measure_main_exp,2022.2.2,Win32,59.96641881,,,,,,,,,,,,,,,,,,masks/mask_004.jpg,,,,,,,,,,,,,,,,,,,,,,,,,,,,,,,,,,,,,,,,,,,,,,,,0,4,4,3,1,,,,,,,,,,,,,,,,,,,,,,,,,,,,,,,,,,,,,,,,,
258857,001,2022-11-20_17h56.49.157,Info_measure_main_exp,2022.2.2,Win32,59.96641881,,,,,,,,,,,,,,,,,,,,,,,,,,,,,,7,0.65,1,,,,,,,,,,,,1,131,5,5,1,2142,present_patch/cong_131_5_a.jpg,absent_patch/patch0002142.jpg,,,,,,,,,,,,,,,,,,,,0.038888931,0.104629623,1,0,0,response1disk,25,0,-0.000925947,1,0,0,center_square,0,24,24,80,1,,,,,,,,,,,,,,,,,,,,,,,
258857,001,2022-11-20_17h56.49.157,Info_measure_main_exp,2022.2.2,Win32,59.96641881,,,,,,,,,,,,,,,,,,masks/mask_005.jpg,,,,,,,,,,,,,,,,,,,,,,,,,,,,,,,,,,,,,,,,,,,0,0,0,4,1,,,,,,,,,,,,,,,,,,,,,,,,,,,,,,,,,,,,,,,,,,,,,,
258857,001,2022-11-20_17h56.49.157,Info_measure_main_exp,2022.2.2,Win32,59.96641881,,,,,,,,,,,,,,,,,,masks/mask_004.jpg,,,,,,,,,,,,,,,,,,,,,,,,,,,,,,,,,,,,,,,,,,,0,1,1,3,1,,,,,,,,,,,,,,,,,,,,,,,,,,,,,,,,,,,,,,,,,,,,,,
258857,001,2022-11-20_17h56.49.157,Info_measure_main_exp,2022.2.2,Win32,59.96641881,,,,,,,,,,,,,,,,,,masks/mask_002.jpg,,,,,,,,,,,,,,,,,,,,,,,,,,,,,,,,,,,,,,,,,,,0,2,2,1,1,,,,,,,,,,,,,,,,,,,,,,,,,,,,,,,,,,,,,,,,,,,,,,
258857,001,2022-11-20_17h56.49.157,Info_measure_main_exp,2022.2.2,Win32,59.96641881,,,,,,,,,,,,,,,,,,masks/mask_003.jpg,,,,,,,,,,,,,,,,,,,,,,,,,,,,,,,,,,,,,,,,,,,0,3,3,2,1,,,,,,,,,,,,,,,,,,,,,,,,,,,,,,,,,,,,,,,,,,,,,,
258857,001,2022-11-20_17h56.49.157,Info_measure_main_exp,2022.2.2,Win32,59.96641881,,,,,,,,,,,,,,,,,,masks/mask_001.jpg,,,,,,,,,,,,,,,,,,,,,,,,,,,,,,,,,,,,,,,,,,,0,4,4,0,1,,,,,,,,,,,,,,,,,,,,,,,,,,,,,,,,,,,,,,,,,,,,,,
258857,001,2022-11-20_17h56.49.157,Info_measure_main_exp,2022.2.2,Win32,59.96641881,,,,,,,,,,,,,,,,,,masks/mask_002.jpg,,,,,,,,,,,,,,,,,,,,,,,,,,,,,,,,,,,,,,,,,,,,,,,,0,0,0,1,1,,,,,,,,,,,,,,,,,,,,,,,,,,,,,,,,,,,,,,,,,
258857,001,2022-11-20_17h56.49.157,Info_measure_main_exp,2022.2.2,Win32,59.96641881,,,,,,,,,,,,,,,,,,masks/mask_001.jpg,,,,,,,,,,,,,,,,,,,,,,,,,,,,,,,,,,,,,,,,,,,,,,,,0,1,1,0,1,,,,,,,,,,,,,,,,,,,,,,,,,,,,,,,,,,,,,,,,,
258857,001,2022-11-20_17h56.49.157,Info_measure_main_exp,2022.2.2,Win32,59.96641881,,,,,,,,,,,,,,,,,,masks/mask_004.jpg,,,,,,,,,,,,,,,,,,,,,,,,,,,,,,,,,,,,,,,,,,,,,,,,0,2,2,3,1,,,,,,,,,,,,,,,,,,,,,,,,,,,,,,,,,,,,,,,,,
258857,001,2022-11-20_17h56.49.157,Info_measure_main_exp,2022.2.2,Win32,59.96641881,,,,,,,,,,,,,,,,,,masks/mask_005.jpg,,,,,,,,,,,,,,,,,,,,,,,,,,,,,,,,,,,,,,,,,,,,,,,,0,3,3,4,1,,,,,,,,,,,,,,,,,,,,,,,,,,,,,,,,,,,,,,,,,
258857,001,2022-11-20_17h56.49.157,Info_measure_main_exp,2022.2.2,Win32,59.96641881,,,,,,,,,,,,,,,,,,masks/mask_003.jpg,,,,,,,,,,,,,,,,,,,,,,,,,,,,,,,,,,,,,,,,,,,,,,,,0,4,4,2,1,,,,,,,,,,,,,,,,,,,,,,,,,,,,,,,,,,,,,,,,,
258857,001,2022-11-20_17h56.49.157,Info_measure_main_exp,2022.2.2,Win32,59.96641881,,,,,,,,,,,,,,,,,,,,,,,,,,,,,,7,0.9834,1,,,,,,,,,,,,0,131,5,5,2190,2238,absent_patch/patch0002190.jpg,absent_patch/patch0002238.jpg,,,,,,,,,,,,,,,,,,,,0.035185213,0.087037016,1,0,0,response1disk,26,0.000925912,0.000925912,1,0,0,center_square,0,25,25,53,1,,,,,,,,,,,,,,,,,,,,,,,
258857,001,2022-11-20_17h56.49.157,Info_measure_main_exp,2022.2.2,Win32,59.96641881,,,,,,,,,,,,,,,,,,masks/mask_004.jpg,,,,,,,,,,,,,,,,,,,,,,,,,,,,,,,,,,,,,,,,,,,0,0,0,3,1,,,,,,,,,,,,,,,,,,,,,,,,,,,,,,,,,,,,,,,,,,,,,,
258857,001,2022-11-20_17h56.49.157,Info_measure_main_exp,2022.2.2,Win32,59.96641881,,,,,,,,,,,,,,,,,,masks/mask_005.jpg,,,,,,,,,,,,,,,,,,,,,,,,,,,,,,,,,,,,,,,,,,,0,1,1,4,1,,,,,,,,,,,,,,,,,,,,,,,,,,,,,,,,,,,,,,,,,,,,,,
258857,001,2022-11-20_17h56.49.157,Info_measure_main_exp,2022.2.2,Win32,59.96641881,,,,,,,,,,,,,,,,,,masks/mask_003.jpg,,,,,,,,,,,,,,,,,,,,,,,,,,,,,,,,,,,,,,,,,,,0,2,2,2,1,,,,,,,,,,,,,,,,,,,,,,,,,,,,,,,,,,,,,,,,,,,,,,
258857,001,2022-11-20_17h56.49.157,Info_measure_main_exp,2022.2.2,Win32,59.96641881,,,,,,,,,,,,,,,,,,masks/mask_002.jpg,,,,,,,,,,,,,,,,,,,,,,,,,,,,,,,,,,,,,,,,,,,0,3,3,1,1,,,,,,,,,,,,,,,,,,,,,,,,,,,,,,,,,,,,,,,,,,,,,,
258857,001,2022-11-20_17h56.49.157,Info_measure_main_exp,2022.2.2,Win32,59.96641881,,,,,,,,,,,,,,,,,,masks/mask_001.jpg,,,,,,,,,,,,,,,,,,,,,,,,,,,,,,,,,,,,,,,,,,,0,4,4,0,1,,,,,,,,,,,,,,,,,,,,,,,,,,,,,,,,,,,,,,,,,,,,,,
258857,001,2022-11-20_17h56.49.157,Info_measure_main_exp,2022.2.2,Win32,59.96641881,,,,,,,,,,,,,,,,,,masks/mask_003.jpg,,,,,,,,,,,,,,,,,,,,,,,,,,,,,,,,,,,,,,,,,,,,,,,,0,0,0,2,1,,,,,,,,,,,,,,,,,,,,,,,,,,,,,,,,,,,,,,,,,
258857,001,2022-11-20_17h56.49.157,Info_measure_main_exp,2022.2.2,Win32,59.96641881,,,,,,,,,,,,,,,,,,masks/mask_001.jpg,,,,,,,,,,,,,,,,,,,,,,,,,,,,,,,,,,,,,,,,,,,,,,,,0,1,1,0,1,,,,,,,,,,,,,,,,,,,,,,,,,,,,,,,,,,,,,,,,,
258857,001,2022-11-20_17h56.49.157,Info_measure_main_exp,2022.2.2,Win32,59.96641881,,,,,,,,,,,,,,,,,,masks/mask_002.jpg,,,,,,,,,,,,,,,,,,,,,,,,,,,,,,,,,,,,,,,,,,,,,,,,0,2,2,1,1,,,,,,,,,,,,,,,,,,,,,,,,,,,,,,,,,,,,,,,,,
258857,001,2022-11-20_17h56.49.157,Info_measure_main_exp,2022.2.2,Win32,59.96641881,,,,,,,,,,,,,,,,,,masks/mask_005.jpg,,,,,,,,,,,,,,,,,,,,,,,,,,,,,,,,,,,,,,,,,,,,,,,,0,3,3,4,1,,,,,,,,,,,,,,,,,,,,,,,,,,,,,,,,,,,,,,,,,
258857,001,2022-11-20_17h56.49.157,Info_measure_main_exp,2022.2.2,Win32,59.96641881,,,,,,,,,,,,,,,,,,masks/mask_004.jpg,,,,,,,,,,,,,,,,,,,,,,,,,,,,,,,,,,,,,,,,,,,,,,,,0,4,4,3,1,,,,,,,,,,,,,,,,,,,,,,,,,,,,,,,,,,,,,,,,,
258857,001,2022-11-20_17h56.49.157,Info_measure_main_exp,2022.2.2,Win32,59.96641881,,,,,,,,,,,,,,,,,,,,,,,,,,,,,,0,0.8334,1,,,,,,,,,,,,1,131,5,5,1,1,present_patch/cong_131_5_a.jpg,present_patch/cong_131_5_a.jpg,,,,,,,,,,,,,,,,,,,,-0.05277775,0.13703703,1,0,0,response7disk,27,-0.000925912,0.001851859,1,0,0,center_square,0,26,26,30,1,,,,,,,,,,,,,,,,,,,,,,,
258857,001,2022-11-20_17h56.49.157,Info_measure_main_exp,2022.2.2,Win32,59.96641881,,,,,,,,,,,,,,,,,,masks/mask_005.jpg,,,,,,,,,,,,,,,,,,,,,,,,,,,,,,,,,,,,,,,,,,,0,0,0,4,1,,,,,,,,,,,,,,,,,,,,,,,,,,,,,,,,,,,,,,,,,,,,,,
258857,001,2022-11-20_17h56.49.157,Info_measure_main_exp,2022.2.2,Win32,59.96641881,,,,,,,,,,,,,,,,,,masks/mask_002.jpg,,,,,,,,,,,,,,,,,,,,,,,,,,,,,,,,,,,,,,,,,,,0,1,1,1,1,,,,,,,,,,,,,,,,,,,,,,,,,,,,,,,,,,,,,,,,,,,,,,
258857,001,2022-11-20_17h56.49.157,Info_measure_main_exp,2022.2.2,Win32,59.96641881,,,,,,,,,,,,,,,,,,masks/mask_003.jpg,,,,,,,,,,,,,,,,,,,,,,,,,,,,,,,,,,,,,,,,,,,0,2,2,2,1,,,,,,,,,,,,,,,,,,,,,,,,,,,,,,,,,,,,,,,,,,,,,,
258857,001,2022-11-20_17h56.49.157,Info_measure_main_exp,2022.2.2,Win32,59.96641881,,,,,,,,,,,,,,,,,,masks/mask_004.jpg,,,,,,,,,,,,,,,,,,,,,,,,,,,,,,,,,,,,,,,,,,,0,3,3,3,1,,,,,,,,,,,,,,,,,,,,,,,,,,,,,,,,,,,,,,,,,,,,,,
258857,001,2022-11-20_17h56.49.157,Info_measure_main_exp,2022.2.2,Win32,59.96641881,,,,,,,,,,,,,,,,,,masks/mask_001.jpg,,,,,,,,,,,,,,,,,,,,,,,,,,,,,,,,,,,,,,,,,,,0,4,4,0,1,,,,,,,,,,,,,,,,,,,,,,,,,,,,,,,,,,,,,,,,,,,,,,
258857,001,2022-11-20_17h56.49.157,Info_measure_main_exp,2022.2.2,Win32,59.96641881,,,,,,,,,,,,,,,,,,masks/mask_002.jpg,,,,,,,,,,,,,,,,,,,,,,,,,,,,,,,,,,,,,,,,,,,,,,,,0,0,0,1,1,,,,,,,,,,,,,,,,,,,,,,,,,,,,,,,,,,,,,,,,,
258857,001,2022-11-20_17h56.49.157,Info_measure_main_exp,2022.2.2,Win32,59.96641881,,,,,,,,,,,,,,,,,,masks/mask_003.jpg,,,,,,,,,,,,,,,,,,,,,,,,,,,,,,,,,,,,,,,,,,,,,,,,0,1,1,2,1,,,,,,,,,,,,,,,,,,,,,,,,,,,,,,,,,,,,,,,,,
258857,001,2022-11-20_17h56.49.157,Info_measure_main_exp,2022.2.2,Win32,59.96641881,,,,,,,,,,,,,,,,,,masks/mask_005.jpg,,,,,,,,,,,,,,,,,,,,,,,,,,,,,,,,,,,,,,,,,,,,,,,,0,2,2,4,1,,,,,,,,,,,,,,,,,,,,,,,,,,,,,,,,,,,,,,,,,
258857,001,2022-11-20_17h56.49.157,Info_measure_main_exp,2022.2.2,Win32,59.96641881,,,,,,,,,,,,,,,,,,masks/mask_001.jpg,,,,,,,,,,,,,,,,,,,,,,,,,,,,,,,,,,,,,,,,,,,,,,,,0,3,3,0,1,,,,,,,,,,,,,,,,,,,,,,,,,,,,,,,,,,,,,,,,,
258857,001,2022-11-20_17h56.49.157,Info_measure_main_exp,2022.2.2,Win32,59.96641881,,,,,,,,,,,,,,,,,,masks/mask_004.jpg,,,,,,,,,,,,,,,,,,,,,,,,,,,,,,,,,,,,,,,,,,,,,,,,0,4,4,3,1,,,,,,,,,,,,,,,,,,,,,,,,,,,,,,,,,,,,,,,,,
258857,001,2022-11-20_17h56.49.157,Info_measure_main_exp,2022.2.2,Win32,59.96641881,,,,,,,,,,,,,,,,,,,,,,,,,,,,,,7,0.7001,1,,,,,,,,,,,,0,131,5,5,1974,2250,absent_patch/patch0001974.jpg,absent_patch/patch0002250.jpg,,,,,,,,,,,,,,,,,,,,0.045370384,0.121296282,1,0,0,response1disk,28,0.003703718,0.002777771,1,0,0,center_square,0,27,27,55,1,,,,,,,,,,,,,,,,,,,,,,,
258857,001,2022-11-20_17h56.49.157,Info_measure_main_exp,2022.2.2,Win32,59.96641881,,,,,,,,,,,,,,,,,,masks/mask_004.jpg,,,,,,,,,,,,,,,,,,,,,,,,,,,,,,,,,,,,,,,,,,,0,0,0,3,1,,,,,,,,,,,,,,,,,,,,,,,,,,,,,,,,,,,,,,,,,,,,,,
258857,001,2022-11-20_17h56.49.157,Info_measure_main_exp,2022.2.2,Win32,59.96641881,,,,,,,,,,,,,,,,,,masks/mask_005.jpg,,,,,,,,,,,,,,,,,,,,,,,,,,,,,,,,,,,,,,,,,,,0,1,1,4,1,,,,,,,,,,,,,,,,,,,,,,,,,,,,,,,,,,,,,,,,,,,,,,
258857,001,2022-11-20_17h56.49.157,Info_measure_main_exp,2022.2.2,Win32,59.96641881,,,,,,,,,,,,,,,,,,masks/mask_001.jpg,,,,,,,,,,,,,,,,,,,,,,,,,,,,,,,,,,,,,,,,,,,0,2,2,0,1,,,,,,,,,,,,,,,,,,,,,,,,,,,,,,,,,,,,,,,,,,,,,,
258857,001,2022-11-20_17h56.49.157,Info_measure_main_exp,2022.2.2,Win32,59.96641881,,,,,,,,,,,,,,,,,,masks/mask_002.jpg,,,,,,,,,,,,,,,,,,,,,,,,,,,,,,,,,,,,,,,,,,,0,3,3,1,1,,,,,,,,,,,,,,,,,,,,,,,,,,,,,,,,,,,,,,,,,,,,,,
258857,001,2022-11-20_17h56.49.157,Info_measure_main_exp,2022.2.2,Win32,59.96641881,,,,,,,,,,,,,,,,,,masks/mask_003.jpg,,,,,,,,,,,,,,,,,,,,,,,,,,,,,,,,,,,,,,,,,,,0,4,4,2,1,,,,,,,,,,,,,,,,,,,,,,,,,,,,,,,,,,,,,,,,,,,,,,
258857,001,2022-11-20_17h56.49.157,Info_measure_main_exp,2022.2.2,Win32,59.96641881,,,,,,,,,,,,,,,,,,masks/mask_003.jpg,,,,,,,,,,,,,,,,,,,,,,,,,,,,,,,,,,,,,,,,,,,,,,,,0,0,0,2,1,,,,,,,,,,,,,,,,,,,,,,,,,,,,,,,,,,,,,,,,,
258857,001,2022-11-20_17h56.49.157,Info_measure_main_exp,2022.2.2,Win32,59.96641881,,,,,,,,,,,,,,,,,,masks/mask_002.jpg,,,,,,,,,,,,,,,,,,,,,,,,,,,,,,,,,,,,,,,,,,,,,,,,0,1,1,1,1,,,,,,,,,,,,,,,,,,,,,,,,,,,,,,,,,,,,,,,,,
258857,001,2022-11-20_17h56.49.157,Info_measure_main_exp,2022.2.2,Win32,59.96641881,,,,,,,,,,,,,,,,,,masks/mask_001.jpg,,,,,,,,,,,,,,,,,,,,,,,,,,,,,,,,,,,,,,,,,,,,,,,,0,2,2,0,1,,,,,,,,,,,,,,,,,,,,,,,,,,,,,,,,,,,,,,,,,
258857,001,2022-11-20_17h56.49.157,Info_measure_main_exp,2022.2.2,Win32,59.96641881,,,,,,,,,,,,,,,,,,masks/mask_005.jpg,,,,,,,,,,,,,,,,,,,,,,,,,,,,,,,,,,,,,,,,,,,,,,,,0,3,3,4,1,,,,,,,,,,,,,,,,,,,,,,,,,,,,,,,,,,,,,,,,,
258857,001,2022-11-20_17h56.49.157,Info_measure_main_exp,2022.2.2,Win32,59.96641881,,,,,,,,,,,,,,,,,,masks/mask_004.jpg,,,,,,,,,,,,,,,,,,,,,,,,,,,,,,,,,,,,,,,,,,,,,,,,0,4,4,3,1,,,,,,,,,,,,,,,,,,,,,,,,,,,,,,,,,,,,,,,,,
258857,001,2022-11-20_17h56.49.157,Info_measure_main_exp,2022.2.2,Win32,59.96641881,,,,,,,,,,,,,,,,,,,,,,,,,,,,,,7,0.9167,1,,,,,,,,,,,,0,131,5,5,2238,2214,absent_patch/patch0002238.jpg,absent_patch/patch0002214.jpg,,,,,,,,,,,,,,,,,,,,0.02407406,0.113888882,1,0,0,response1disk,29,0.008333347,0.001851859,1,0,0,center_square,0,28,28,81,1,,,,,,,,,,,,,,,,,,,,,,,
258857,001,2022-11-20_17h56.49.157,Info_measure_main_exp,2022.2.2,Win32,59.96641881,,,,,,,,,,,,,,,,,,masks/mask_003.jpg,,,,,,,,,,,,,,,,,,,,,,,,,,,,,,,,,,,,,,,,,,,0,0,0,2,1,,,,,,,,,,,,,,,,,,,,,,,,,,,,,,,,,,,,,,,,,,,,,,
258857,001,2022-11-20_17h56.49.157,Info_measure_main_exp,2022.2.2,Win32,59.96641881,,,,,,,,,,,,,,,,,,masks/mask_005.jpg,,,,,,,,,,,,,,,,,,,,,,,,,,,,,,,,,,,,,,,,,,,0,1,1,4,1,,,,,,,,,,,,,,,,,,,,,,,,,,,,,,,,,,,,,,,,,,,,,,
258857,001,2022-11-20_17h56.49.157,Info_measure_main_exp,2022.2.2,Win32,59.96641881,,,,,,,,,,,,,,,,,,masks/mask_002.jpg,,,,,,,,,,,,,,,,,,,,,,,,,,,,,,,,,,,,,,,,,,,0,2,2,1,1,,,,,,,,,,,,,,,,,,,,,,,,,,,,,,,,,,,,,,,,,,,,,,
258857,001,2022-11-20_17h56.49.157,Info_measure_main_exp,2022.2.2,Win32,59.96641881,,,,,,,,,,,,,,,,,,masks/mask_001.jpg,,,,,,,,,,,,,,,,,,,,,,,,,,,,,,,,,,,,,,,,,,,0,3,3,0,1,,,,,,,,,,,,,,,,,,,,,,,,,,,,,,,,,,,,,,,,,,,,,,
258857,001,2022-11-20_17h56.49.157,Info_measure_main_exp,2022.2.2,Win32,59.96641881,,,,,,,,,,,,,,,,,,masks/mask_004.jpg,,,,,,,,,,,,,,,,,,,,,,,,,,,,,,,,,,,,,,,,,,,0,4,4,3,1,,,,,,,,,,,,,,,,,,,,,,,,,,,,,,,,,,,,,,,,,,,,,,
258857,001,2022-11-20_17h56.49.157,Info_measure_main_exp,2022.2.2,Win32,59.96641881,,,,,,,,,,,,,,,,,,masks/mask_004.jpg,,,,,,,,,,,,,,,,,,,,,,,,,,,,,,,,,,,,,,,,,,,,,,,,0,0,0,3,1,,,,,,,,,,,,,,,,,,,,,,,,,,,,,,,,,,,,,,,,,
258857,001,2022-11-20_17h56.49.157,Info_measure_main_exp,2022.2.2,Win32,59.96641881,,,,,,,,,,,,,,,,,,masks/mask_005.jpg,,,,,,,,,,,,,,,,,,,,,,,,,,,,,,,,,,,,,,,,,,,,,,,,0,1,1,4,1,,,,,,,,,,,,,,,,,,,,,,,,,,,,,,,,,,,,,,,,,
258857,001,2022-11-20_17h56.49.157,Info_measure_main_exp,2022.2.2,Win32,59.96641881,,,,,,,,,,,,,,,,,,masks/mask_002.jpg,,,,,,,,,,,,,,,,,,,,,,,,,,,,,,,,,,,,,,,,,,,,,,,,0,2,2,1,1,,,,,,,,,,,,,,,,,,,,,,,,,,,,,,,,,,,,,,,,,
258857,001,2022-11-20_17h56.49.157,Info_measure_main_exp,2022.2.2,Win32,59.96641881,,,,,,,,,,,,,,,,,,masks/mask_003.jpg,,,,,,,,,,,,,,,,,,,,,,,,,,,,,,,,,,,,,,,,,,,,,,,,0,3,3,2,1,,,,,,,,,,,,,,,,,,,,,,,,,,,,,,,,,,,,,,,,,
258857,001,2022-11-20_17h56.49.157,Info_measure_main_exp,2022.2.2,Win32,59.96641881,,,,,,,,,,,,,,,,,,masks/mask_001.jpg,,,,,,,,,,,,,,,,,,,,,,,,,,,,,,,,,,,,,,,,,,,,,,,,0,4,4,0,1,,,,,,,,,,,,,,,,,,,,,,,,,,,,,,,,,,,,,,,,,
258857,001,2022-11-20_17h56.49.157,Info_measure_main_exp,2022.2.2,Win32,59.96641881,,,,,,,,,,,,,,,,,,,,,,,,,,,,,,7,0.6167,1,,,,,,,,,,,,0,131,5,5,2274,2190,absent_patch/patch0002274.jpg,absent_patch/patch0002190.jpg,,,,,,,,,,,,,,,,,,,,0.044444473,0.111111111,1,0,0,response1disk,30,0.00462963,-0.005555577,1,0,0,center_square,0,29,29,116,1,,,,,,,,,,,,,,,,,,,,,,,
258857,001,2022-11-20_17h56.49.157,Info_measure_main_exp,2022.2.2,Win32,59.96641881,,,,,,,,,,,,,,,,,,masks/mask_004.jpg,,,,,,,,,,,,,,,,,,,,,,,,,,,,,,,,,,,,,,,,,,,0,0,0,3,1,,,,,,,,,,,,,,,,,,,,,,,,,,,,,,,,,,,,,,,,,,,,,,
258857,001,2022-11-20_17h56.49.157,Info_measure_main_exp,2022.2.2,Win32,59.96641881,,,,,,,,,,,,,,,,,,masks/mask_003.jpg,,,,,,,,,,,,,,,,,,,,,,,,,,,,,,,,,,,,,,,,,,,0,1,1,2,1,,,,,,,,,,,,,,,,,,,,,,,,,,,,,,,,,,,,,,,,,,,,,,
258857,001,2022-11-20_17h56.49.157,Info_measure_main_exp,2022.2.2,Win32,59.96641881,,,,,,,,,,,,,,,,,,masks/mask_005.jpg,,,,,,,,,,,,,,,,,,,,,,,,,,,,,,,,,,,,,,,,,,,0,2,2,4,1,,,,,,,,,,,,,,,,,,,,,,,,,,,,,,,,,,,,,,,,,,,,,,
258857,001,2022-11-20_17h56.49.157,Info_measure_main_exp,2022.2.2,Win32,59.96641881,,,,,,,,,,,,,,,,,,masks/mask_002.jpg,,,,,,,,,,,,,,,,,,,,,,,,,,,,,,,,,,,,,,,,,,,0,3,3,1,1,,,,,,,,,,,,,,,,,,,,,,,,,,,,,,,,,,,,,,,,,,,,,,
258857,001,2022-11-20_17h56.49.157,Info_measure_main_exp,2022.2.2,Win32,59.96641881,,,,,,,,,,,,,,,,,,masks/mask_001.jpg,,,,,,,,,,,,,,,,,,,,,,,,,,,,,,,,,,,,,,,,,,,0,4,4,0,1,,,,,,,,,,,,,,,,,,,,,,,,,,,,,,,,,,,,,,,,,,,,,,
258857,001,2022-11-20_17h56.49.157,Info_measure_main_exp,2022.2.2,Win32,59.96641881,,,,,,,,,,,,,,,,,,masks/mask_003.jpg,,,,,,,,,,,,,,,,,,,,,,,,,,,,,,,,,,,,,,,,,,,,,,,,0,0,0,2,1,,,,,,,,,,,,,,,,,,,,,,,,,,,,,,,,,,,,,,,,,
258857,001,2022-11-20_17h56.49.157,Info_measure_main_exp,2022.2.2,Win32,59.96641881,,,,,,,,,,,,,,,,,,masks/mask_004.jpg,,,,,,,,,,,,,,,,,,,,,,,,,,,,,,,,,,,,,,,,,,,,,,,,0,1,1,3,1,,,,,,,,,,,,,,,,,,,,,,,,,,,,,,,,,,,,,,,,,
258857,001,2022-11-20_17h56.49.157,Info_measure_main_exp,2022.2.2,Win32,59.96641881,,,,,,,,,,,,,,,,,,masks/mask_005.jpg,,,,,,,,,,,,,,,,,,,,,,,,,,,,,,,,,,,,,,,,,,,,,,,,0,2,2,4,1,,,,,,,,,,,,,,,,,,,,,,,,,,,,,,,,,,,,,,,,,
258857,001,2022-11-20_17h56.49.157,Info_measure_main_exp,2022.2.2,Win32,59.96641881,,,,,,,,,,,,,,,,,,masks/mask_001.jpg,,,,,,,,,,,,,,,,,,,,,,,,,,,,,,,,,,,,,,,,,,,,,,,,0,3,3,0,1,,,,,,,,,,,,,,,,,,,,,,,,,,,,,,,,,,,,,,,,,
258857,001,2022-11-20_17h56.49.157,Info_measure_main_exp,2022.2.2,Win32,59.96641881,,,,,,,,,,,,,,,,,,masks/mask_002.jpg,,,,,,,,,,,,,,,,,,,,,,,,,,,,,,,,,,,,,,,,,,,,,,,,0,4,4,1,1,,,,,,,,,,,,,,,,,,,,,,,,,,,,,,,,,,,,,,,,,
258857,001,2022-11-20_17h56.49.157,Info_measure_main_exp,2022.2.2,Win32,59.96641881,,,,,,,,,,,,,,,,,,,,,,,,,,,,,,7,0.85,1,,,,,,,,,,,,0,131,5,5,2298,2274,absent_patch/patch0002298.jpg,absent_patch/patch0002274.jpg,,,,,,,,,,,,,,,,,,,,0.048148191,0.126851859,1,0,0,response1disk,31,-0.002777735,-0.006481489,1,0,0,center_square,0,30,30,1,1,,,,,,,,,,,,,,,,,,,,,,,
258857,001,2022-11-20_17h56.49.157,Info_measure_main_exp,2022.2.2,Win32,59.96641881,,,,,,,,,,,,,,,,,,masks/mask_005.jpg,,,,,,,,,,,,,,,,,,,,,,,,,,,,,,,,,,,,,,,,,,,0,0,0,4,1,,,,,,,,,,,,,,,,,,,,,,,,,,,,,,,,,,,,,,,,,,,,,,
258857,001,2022-11-20_17h56.49.157,Info_measure_main_exp,2022.2.2,Win32,59.96641881,,,,,,,,,,,,,,,,,,masks/mask_003.jpg,,,,,,,,,,,,,,,,,,,,,,,,,,,,,,,,,,,,,,,,,,,0,1,1,2,1,,,,,,,,,,,,,,,,,,,,,,,,,,,,,,,,,,,,,,,,,,,,,,
258857,001,2022-11-20_17h56.49.157,Info_measure_main_exp,2022.2.2,Win32,59.96641881,,,,,,,,,,,,,,,,,,masks/mask_002.jpg,,,,,,,,,,,,,,,,,,,,,,,,,,,,,,,,,,,,,,,,,,,0,2,2,1,1,,,,,,,,,,,,,,,,,,,,,,,,,,,,,,,,,,,,,,,,,,,,,,
258857,001,2022-11-20_17h56.49.157,Info_measure_main_exp,2022.2.2,Win32,59.96641881,,,,,,,,,,,,,,,,,,masks/mask_004.jpg,,,,,,,,,,,,,,,,,,,,,,,,,,,,,,,,,,,,,,,,,,,0,3,3,3,1,,,,,,,,,,,,,,,,,,,,,,,,,,,,,,,,,,,,,,,,,,,,,,
258857,001,2022-11-20_17h56.49.157,Info_measure_main_exp,2022.2.2,Win32,59.96641881,,,,,,,,,,,,,,,,,,masks/mask_001.jpg,,,,,,,,,,,,,,,,,,,,,,,,,,,,,,,,,,,,,,,,,,,0,4,4,0,1,,,,,,,,,,,,,,,,,,,,,,,,,,,,,,,,,,,,,,,,,,,,,,
258857,001,2022-11-20_17h56.49.157,Info_measure_main_exp,2022.2.2,Win32,59.96641881,,,,,,,,,,,,,,,,,,masks/mask_002.jpg,,,,,,,,,,,,,,,,,,,,,,,,,,,,,,,,,,,,,,,,,,,,,,,,0,0,0,1,1,,,,,,,,,,,,,,,,,,,,,,,,,,,,,,,,,,,,,,,,,
258857,001,2022-11-20_17h56.49.157,Info_measure_main_exp,2022.2.2,Win32,59.96641881,,,,,,,,,,,,,,,,,,masks/mask_003.jpg,,,,,,,,,,,,,,,,,,,,,,,,,,,,,,,,,,,,,,,,,,,,,,,,0,1,1,2,1,,,,,,,,,,,,,,,,,,,,,,,,,,,,,,,,,,,,,,,,,
258857,001,2022-11-20_17h56.49.157,Info_measure_main_exp,2022.2.2,Win32,59.96641881,,,,,,,,,,,,,,,,,,masks/mask_001.jpg,,,,,,,,,,,,,,,,,,,,,,,,,,,,,,,,,,,,,,,,,,,,,,,,0,2,2,0,1,,,,,,,,,,,,,,,,,,,,,,,,,,,,,,,,,,,,,,,,,
258857,001,2022-11-20_17h56.49.157,Info_measure_main_exp,2022.2.2,Win32,59.96641881,,,,,,,,,,,,,,,,,,masks/mask_004.jpg,,,,,,,,,,,,,,,,,,,,,,,,,,,,,,,,,,,,,,,,,,,,,,,,0,3,3,3,1,,,,,,,,,,,,,,,,,,,,,,,,,,,,,,,,,,,,,,,,,
258857,001,2022-11-20_17h56.49.157,Info_measure_main_exp,2022.2.2,Win32,59.96641881,,,,,,,,,,,,,,,,,,masks/mask_005.jpg,,,,,,,,,,,,,,,,,,,,,,,,,,,,,,,,,,,,,,,,,,,,,,,,0,4,4,4,1,,,,,,,,,,,,,,,,,,,,,,,,,,,,,,,,,,,,,,,,,
258857,001,2022-11-20_17h56.49.157,Info_measure_main_exp,2022.2.2,Win32,59.96641881,,,,,,,,,,,,,,,,,,,,,,,,,,,,,,7,0.7333,1,,,,,,,,,,,,0,131,5,5,2082,2298,absent_patch/patch0002082.jpg,absent_patch/patch0002298.jpg,,,,,,,,,,,,,,,,,,,,0.066666709,0.135185171,1,0,0,response1disk,32,-0.001851824,-0.003703718,1,0,0,center_square,0,31,31,107,1,,,,,,,,,,,,,,,,,,,,,,,
258857,001,2022-11-20_17h56.49.157,Info_measure_main_exp,2022.2.2,Win32,59.96641881,,,,,,,,,,,,,,,,,,masks/mask_005.jpg,,,,,,,,,,,,,,,,,,,,,,,,,,,,,,,,,,,,,,,,,,,0,0,0,4,1,,,,,,,,,,,,,,,,,,,,,,,,,,,,,,,,,,,,,,,,,,,,,,
258857,001,2022-11-20_17h56.49.157,Info_measure_main_exp,2022.2.2,Win32,59.96641881,,,,,,,,,,,,,,,,,,masks/mask_004.jpg,,,,,,,,,,,,,,,,,,,,,,,,,,,,,,,,,,,,,,,,,,,0,1,1,3,1,,,,,,,,,,,,,,,,,,,,,,,,,,,,,,,,,,,,,,,,,,,,,,
258857,001,2022-11-20_17h56.49.157,Info_measure_main_exp,2022.2.2,Win32,59.96641881,,,,,,,,,,,,,,,,,,masks/mask_003.jpg,,,,,,,,,,,,,,,,,,,,,,,,,,,,,,,,,,,,,,,,,,,0,2,2,2,1,,,,,,,,,,,,,,,,,,,,,,,,,,,,,,,,,,,,,,,,,,,,,,
258857,001,2022-11-20_17h56.49.157,Info_measure_main_exp,2022.2.2,Win32,59.96641881,,,,,,,,,,,,,,,,,,masks/mask_001.jpg,,,,,,,,,,,,,,,,,,,,,,,,,,,,,,,,,,,,,,,,,,,0,3,3,0,1,,,,,,,,,,,,,,,,,,,,,,,,,,,,,,,,,,,,,,,,,,,,,,
258857,001,2022-11-20_17h56.49.157,Info_measure_main_exp,2022.2.2,Win32,59.96641881,,,,,,,,,,,,,,,,,,masks/mask_002.jpg,,,,,,,,,,,,,,,,,,,,,,,,,,,,,,,,,,,,,,,,,,,0,4,4,1,1,,,,,,,,,,,,,,,,,,,,,,,,,,,,,,,,,,,,,,,,,,,,,,
258857,001,2022-11-20_17h56.49.157,Info_measure_main_exp,2022.2.2,Win32,59.96641881,,,,,,,,,,,,,,,,,,masks/mask_004.jpg,,,,,,,,,,,,,,,,,,,,,,,,,,,,,,,,,,,,,,,,,,,,,,,,0,0,0,3,1,,,,,,,,,,,,,,,,,,,,,,,,,,,,,,,,,,,,,,,,,
258857,001,2022-11-20_17h56.49.157,Info_measure_main_exp,2022.2.2,Win32,59.96641881,,,,,,,,,,,,,,,,,,masks/mask_001.jpg,,,,,,,,,,,,,,,,,,,,,,,,,,,,,,,,,,,,,,,,,,,,,,,,0,1,1,0,1,,,,,,,,,,,,,,,,,,,,,,,,,,,,,,,,,,,,,,,,,
258857,001,2022-11-20_17h56.49.157,Info_measure_main_exp,2022.2.2,Win32,59.96641881,,,,,,,,,,,,,,,,,,masks/mask_003.jpg,,,,,,,,,,,,,,,,,,,,,,,,,,,,,,,,,,,,,,,,,,,,,,,,0,2,2,2,1,,,,,,,,,,,,,,,,,,,,,,,,,,,,,,,,,,,,,,,,,
258857,001,2022-11-20_17h56.49.157,Info_measure_main_exp,2022.2.2,Win32,59.96641881,,,,,,,,,,,,,,,,,,masks/mask_002.jpg,,,,,,,,,,,,,,,,,,,,,,,,,,,,,,,,,,,,,,,,,,,,,,,,0,3,3,1,1,,,,,,,,,,,,,,,,,,,,,,,,,,,,,,,,,,,,,,,,,
258857,001,2022-11-20_17h56.49.157,Info_measure_main_exp,2022.2.2,Win32,59.96641881,,,,,,,,,,,,,,,,,,masks/mask_005.jpg,,,,,,,,,,,,,,,,,,,,,,,,,,,,,,,,,,,,,,,,,,,,,,,,0,4,4,4,1,,,,,,,,,,,,,,,,,,,,,,,,,,,,,,,,,,,,,,,,,
258857,001,2022-11-20_17h56.49.157,Info_measure_main_exp,2022.2.2,Win32,59.96641881,,,,,,,,,,,,,,,,,,,,,,,,,,,,,,7,0.6168,1,,,,,,,,,,,,0,131,5,5,1950,2298,absent_patch/patch0001950.jpg,absent_patch/patch0002298.jpg,,,,,,,,,,,,,,,,,,,,0.037037037,0.121296282,1,0,0,response1disk,33,-0.002777735,0.001851859,1,0,0,center_square,0,32,32,18,1,,,,,,,,,,,,,,,,,,,,,,,
258857,001,2022-11-20_17h56.49.157,Info_measure_main_exp,2022.2.2,Win32,59.96641881,,,,,,,,,,,,,,,,,,masks/mask_002.jpg,,,,,,,,,,,,,,,,,,,,,,,,,,,,,,,,,,,,,,,,,,,0,0,0,1,1,,,,,,,,,,,,,,,,,,,,,,,,,,,,,,,,,,,,,,,,,,,,,,
258857,001,2022-11-20_17h56.49.157,Info_measure_main_exp,2022.2.2,Win32,59.96641881,,,,,,,,,,,,,,,,,,masks/mask_005.jpg,,,,,,,,,,,,,,,,,,,,,,,,,,,,,,,,,,,,,,,,,,,0,1,1,4,1,,,,,,,,,,,,,,,,,,,,,,,,,,,,,,,,,,,,,,,,,,,,,,
258857,001,2022-11-20_17h56.49.157,Info_measure_main_exp,2022.2.2,Win32,59.96641881,,,,,,,,,,,,,,,,,,masks/mask_004.jpg,,,,,,,,,,,,,,,,,,,,,,,,,,,,,,,,,,,,,,,,,,,0,2,2,3,1,,,,,,,,,,,,,,,,,,,,,,,,,,,,,,,,,,,,,,,,,,,,,,
258857,001,2022-11-20_17h56.49.157,Info_measure_main_exp,2022.2.2,Win32,59.96641881,,,,,,,,,,,,,,,,,,masks/mask_003.jpg,,,,,,,,,,,,,,,,,,,,,,,,,,,,,,,,,,,,,,,,,,,0,3,3,2,1,,,,,,,,,,,,,,,,,,,,,,,,,,,,,,,,,,,,,,,,,,,,,,
258857,001,2022-11-20_17h56.49.157,Info_measure_main_exp,2022.2.2,Win32,59.96641881,,,,,,,,,,,,,,,,,,masks/mask_001.jpg,,,,,,,,,,,,,,,,,,,,,,,,,,,,,,,,,,,,,,,,,,,0,4,4,0,1,,,,,,,,,,,,,,,,,,,,,,,,,,,,,,,,,,,,,,,,,,,,,,
258857,001,2022-11-20_17h56.49.157,Info_measure_main_exp,2022.2.2,Win32,59.96641881,,,,,,,,,,,,,,,,,,masks/mask_003.jpg,,,,,,,,,,,,,,,,,,,,,,,,,,,,,,,,,,,,,,,,,,,,,,,,0,0,0,2,1,,,,,,,,,,,,,,,,,,,,,,,,,,,,,,,,,,,,,,,,,
258857,001,2022-11-20_17h56.49.157,Info_measure_main_exp,2022.2.2,Win32,59.96641881,,,,,,,,,,,,,,,,,,masks/mask_005.jpg,,,,,,,,,,,,,,,,,,,,,,,,,,,,,,,,,,,,,,,,,,,,,,,,0,1,1,4,1,,,,,,,,,,,,,,,,,,,,,,,,,,,,,,,,,,,,,,,,,
258857,001,2022-11-20_17h56.49.157,Info_measure_main_exp,2022.2.2,Win32,59.96641881,,,,,,,,,,,,,,,,,,masks/mask_002.jpg,,,,,,,,,,,,,,,,,,,,,,,,,,,,,,,,,,,,,,,,,,,,,,,,0,2,2,1,1,,,,,,,,,,,,,,,,,,,,,,,,,,,,,,,,,,,,,,,,,
258857,001,2022-11-20_17h56.49.157,Info_measure_main_exp,2022.2.2,Win32,59.96641881,,,,,,,,,,,,,,,,,,masks/mask_004.jpg,,,,,,,,,,,,,,,,,,,,,,,,,,,,,,,,,,,,,,,,,,,,,,,,0,3,3,3,1,,,,,,,,,,,,,,,,,,,,,,,,,,,,,,,,,,,,,,,,,
258857,001,2022-11-20_17h56.49.157,Info_measure_main_exp,2022.2.2,Win32,59.96641881,,,,,,,,,,,,,,,,,,masks/mask_001.jpg,,,,,,,,,,,,,,,,,,,,,,,,,,,,,,,,,,,,,,,,,,,,,,,,0,4,4,0,1,,,,,,,,,,,,,,,,,,,,,,,,,,,,,,,,,,,,,,,,,
258857,001,2022-11-20_17h56.49.157,Info_measure_main_exp,2022.2.2,Win32,59.96641881,,,,,,,,,,,,,,,,,,,,,,,,,,,,,,7,0.7404,1,,,,,,,,,,,,0,131,5,5,1974,2142,absent_patch/patch0001974.jpg,absent_patch/patch0002142.jpg,,,,,,,,,,,,,,,,,,,,0.032407407,0.078703704,1,0,0,response1disk,34,0.00462963,-0.002777771,1,0,0,center_square,0,33,33,38,1,,,,,,,,,,,,,,,,,,,,,,,
258857,001,2022-11-20_17h56.49.157,Info_measure_main_exp,2022.2.2,Win32,59.96641881,,,,,,,,,,,,,,,,,,masks/mask_005.jpg,,,,,,,,,,,,,,,,,,,,,,,,,,,,,,,,,,,,,,,,,,,0,0,0,4,1,,,,,,,,,,,,,,,,,,,,,,,,,,,,,,,,,,,,,,,,,,,,,,
258857,001,2022-11-20_17h56.49.157,Info_measure_main_exp,2022.2.2,Win32,59.96641881,,,,,,,,,,,,,,,,,,masks/mask_003.jpg,,,,,,,,,,,,,,,,,,,,,,,,,,,,,,,,,,,,,,,,,,,0,1,1,2,1,,,,,,,,,,,,,,,,,,,,,,,,,,,,,,,,,,,,,,,,,,,,,,
258857,001,2022-11-20_17h56.49.157,Info_measure_main_exp,2022.2.2,Win32,59.96641881,,,,,,,,,,,,,,,,,,masks/mask_001.jpg,,,,,,,,,,,,,,,,,,,,,,,,,,,,,,,,,,,,,,,,,,,0,2,2,0,1,,,,,,,,,,,,,,,,,,,,,,,,,,,,,,,,,,,,,,,,,,,,,,
258857,001,2022-11-20_17h56.49.157,Info_measure_main_exp,2022.2.2,Win32,59.96641881,,,,,,,,,,,,,,,,,,masks/mask_002.jpg,,,,,,,,,,,,,,,,,,,,,,,,,,,,,,,,,,,,,,,,,,,0,3,3,1,1,,,,,,,,,,,,,,,,,,,,,,,,,,,,,,,,,,,,,,,,,,,,,,
258857,001,2022-11-20_17h56.49.157,Info_measure_main_exp,2022.2.2,Win32,59.96641881,,,,,,,,,,,,,,,,,,masks/mask_004.jpg,,,,,,,,,,,,,,,,,,,,,,,,,,,,,,,,,,,,,,,,,,,0,4,4,3,1,,,,,,,,,,,,,,,,,,,,,,,,,,,,,,,,,,,,,,,,,,,,,,
258857,001,2022-11-20_17h56.49.157,Info_measure_main_exp,2022.2.2,Win32,59.96641881,,,,,,,,,,,,,,,,,,masks/mask_003.jpg,,,,,,,,,,,,,,,,,,,,,,,,,,,,,,,,,,,,,,,,,,,,,,,,0,0,0,2,1,,,,,,,,,,,,,,,,,,,,,,,,,,,,,,,,,,,,,,,,,
258857,001,2022-11-20_17h56.49.157,Info_measure_main_exp,2022.2.2,Win32,59.96641881,,,,,,,,,,,,,,,,,,masks/mask_002.jpg,,,,,,,,,,,,,,,,,,,,,,,,,,,,,,,,,,,,,,,,,,,,,,,,0,1,1,1,1,,,,,,,,,,,,,,,,,,,,,,,,,,,,,,,,,,,,,,,,,
258857,001,2022-11-20_17h56.49.157,Info_measure_main_exp,2022.2.2,Win32,59.96641881,,,,,,,,,,,,,,,,,,masks/mask_005.jpg,,,,,,,,,,,,,,,,,,,,,,,,,,,,,,,,,,,,,,,,,,,,,,,,0,2,2,4,1,,,,,,,,,,,,,,,,,,,,,,,,,,,,,,,,,,,,,,,,,
258857,001,2022-11-20_17h56.49.157,Info_measure_main_exp,2022.2.2,Win32,59.96641881,,,,,,,,,,,,,,,,,,masks/mask_001.jpg,,,,,,,,,,,,,,,,,,,,,,,,,,,,,,,,,,,,,,,,,,,,,,,,0,3,3,0,1,,,,,,,,,,,,,,,,,,,,,,,,,,,,,,,,,,,,,,,,,
