participant,session,date,expName,psychopyVersion,OS,frameRate,space_press_continue.keys,space_press_continue.rt,space_press_continue_2.keys,space_press_continue_2.rt,space_press_continue_3.keys,space_press_continue_3.rt,space_press_continue_4.keys,space_press_continue_4.rt,space_press_continue_5.keys,space_press_continue_5.rt,space_press_continue_6.keys,space_press_continue_6.rt,prac_mask_loop_1.thisRepN,prac_mask_loop_1.thisTrialN,prac_mask_loop_1.thisN,prac_mask_loop_1.thisIndex,prac_mask_loop_1.ran,mask_name,prac_mask_loop_2.thisRepN,prac_mask_loop_2.thisTrialN,prac_mask_loop_2.thisN,prac_mask_loop_2.thisIndex,prac_mask_loop_2.ran,mouse_2.x,mouse_2.y,mouse_2.leftButton,mouse_2.midButton,mouse_2.rightButton,mouse_2.clicked_name,similarity,response_time,Pass,mouse_12.x,mouse_12.y,mouse_12.leftButton,mouse_12.midButton,mouse_12.rightButton,mouse_12.clicked_name,prac_loop.thisRepN,prac_loop.thisTrialN,prac_loop.thisN,prac_loop.thisIndex,prac_loop.ran,Pair_type,Image_num,Patch_1_loc,Patch_2_loc,Patch_1_info,Patch_2_info,Patch_1_name,Patch_2_name,mouse_1.x,mouse_1.y,mouse_1.leftButton,mouse_1.midButton,mouse_1.rightButton,mouse_1.time,mouse_1.clicked_name,space_press_continue_7.keys,space_press_continue_7.rt,mask_loop.thisRepN,mask_loop.thisTrialN,mask_loop.thisN,mask_loop.thisIndex,mask_loop.ran,mask_loop_2.thisRepN,mask_loop_2.thisTrialN,mask_loop_2.thisN,mask_loop_2.thisIndex,mask_loop_2.ran,mouse.x,mouse.y,mouse.leftButton,mouse.midButton,mouse.rightButton,mouse.clicked_name,trialNumber,mouse_11.x,mouse_11.y,mouse_11.leftButton,mouse_11.midButton,mouse_11.rightButton,mouse_11.clicked_name,first_pass_loop.thisRepN,first_pass_loop.thisTrialN,first_pass_loop.thisN,first_pass_loop.thisIndex,first_pass_loop.ran,mask_loop_3.thisRepN,mask_loop_3.thisTrialN,mask_loop_3.thisN,mask_loop_3.thisIndex,mask_loop_3.ran,mask_loop_4.thisRepN,mask_loop_4.thisTrialN,mask_loop_4.thisN,mask_loop_4.thisIndex,mask_loop_4.ran,mouse_3.x,mouse_3.y,mouse_3.leftButton,mouse_3.midButton,mouse_3.rightButton,mouse_3.clicked_name,double_pass_loop.thisRepN,double_pass_loop.thisTrialN,double_pass_loop.thisN,double_pass_loop.thisIndex,double_pass_loop.ran,space_exit.keys,space_exit.rt
261882,001,2022-11-20_16h57.19.756,Info_measure_main_exp,2022.2.2,Win32,60.27727547,,,,,,,,,,,,,,,,,,,,,,,,,,,,,,,,,,,,,,,,,,,,,,,,,,,,,,,,,,,,,,,,,,,,,,,,,,,,,,,,,,,,,,,,,,,,,,,,,,,,,,,,,,,,,,,
261882,001,2022-11-20_16h57.19.756,Info_measure_main_exp,2022.2.2,Win32,60.27727547,,,,,,,,,,,,,,,,,,,,,,,,,,,,,,,,,,,,,,,,,,,,,,,,,,,,,,,,,,,,,,,,,,,,,,,,,,,,,,,,,,,,,,,,,,,,,,,,,,,,,,,,,,,,,,,
261882,001,2022-11-20_16h57.19.756,Info_measure_main_exp,2022.2.2,Win32,60.27727547,space,50.4024,,,,,,,,,,,,,,,,,,,,,,,,,,,,,,,,,,,,,,,,,,,,,,,,,,,,,,,,,,,,,,,,,,,,,,,,,,,,,,,,,,,,,,,,,,,,,,,,,,,,,,,,,,,,,
261882,001,2022-11-20_16h57.19.756,Info_measure_main_exp,2022.2.2,Win32,60.27727547,,,space,17.5956,,,,,,,,,,,,,,,,,,,,,,,,,,,,,,,,,,,,,,,,,,,,,,,,,,,,,,,,,,,,,,,,,,,,,,,,,,,,,,,,,,,,,,,,,,,,,,,,,,,,,,,,,,,
261882,001,2022-11-20_16h57.19.756,Info_measure_main_exp,2022.2.2,Win32,60.27727547,,,,,space,13.7199,,,,,,,,,,,,,,,,,,,,,,,,,,,,,,,,,,,,,,,,,,,,,,,,,,,,,,,,,,,,,,,,,,,,,,,,,,,,,,,,,,,,,,,,,,,,,,,,,,,,,,,,,
261882,001,2022-11-20_16h57.19.756,Info_measure_main_exp,2022.2.2,Win32,60.27727547,,,,,,,space,34.1913,,,,,,,,,,,,,,,,,,,,,,,,,,,,,,,,,,,,,,,,,,,,,,,,,,,,,,,,,,,,,,,,,,,,,,,,,,,,,,,,,,,,,,,,,,,,,,,,,,,,,,,
261882,001,2022-11-20_16h57.19.756,Info_measure_main_exp,2022.2.2,Win32,60.27727547,,,,,,,,,space,13.6673,,,,,,,,,,,,,,,,,,,,,,,,,,,,,,,,,,,,,,,,,,,,,,,,,,,,,,,,,,,,,,,,,,,,,,,,,,,,,,,,,,,,,,,,,,,,,,,,,,,,,
261882,001,2022-11-20_16h57.19.756,Info_measure_main_exp,2022.2.2,Win32,60.27727547,,,,,,,,,,,space,4.2256,,,,,,,,,,,,,,,,,,,,,,,,,,,,,,,,,,,,,,,,,,,,,,,,,,,,,,,,,,,,,,,,,,,,,,,,,,,,,,,,,,,,,,,,,,,,,,,,,,,
261882,001,2022-11-20_16h57.19.756,Info_measure_main_exp,2022.2.2,Win32,60.27727547,,,,,,,,,,,,,0,0,0,0,1,masks/mask_001.jpg,,,,,,,,,,,,,,,,,,,,,,,,,,,,,,,,,,,,,,,,,,,,,,,,,,,,,,,,,,,,,,,,,,,,,,,,,,,,,,,,,,,,,,,,,,,,,
261882,001,2022-11-20_16h57.19.756,Info_measure_main_exp,2022.2.2,Win32,60.27727547,,,,,,,,,,,,,0,1,1,3,1,masks/mask_004.jpg,,,,,,,,,,,,,,,,,,,,,,,,,,,,,,,,,,,,,,,,,,,,,,,,,,,,,,,,,,,,,,,,,,,,,,,,,,,,,,,,,,,,,,,,,,,,,
261882,001,2022-11-20_16h57.19.756,Info_measure_main_exp,2022.2.2,Win32,60.27727547,,,,,,,,,,,,,0,2,2,4,1,masks/mask_005.jpg,,,,,,,,,,,,,,,,,,,,,,,,,,,,,,,,,,,,,,,,,,,,,,,,,,,,,,,,,,,,,,,,,,,,,,,,,,,,,,,,,,,,,,,,,,,,,
261882,001,2022-11-20_16h57.19.756,Info_measure_main_exp,2022.2.2,Win32,60.27727547,,,,,,,,,,,,,0,3,3,2,1,masks/mask_003.jpg,,,,,,,,,,,,,,,,,,,,,,,,,,,,,,,,,,,,,,,,,,,,,,,,,,,,,,,,,,,,,,,,,,,,,,,,,,,,,,,,,,,,,,,,,,,,,
261882,001,2022-11-20_16h57.19.756,Info_measure_main_exp,2022.2.2,Win32,60.27727547,,,,,,,,,,,,,0,4,4,1,1,masks/mask_002.jpg,,,,,,,,,,,,,,,,,,,,,,,,,,,,,,,,,,,,,,,,,,,,,,,,,,,,,,,,,,,,,,,,,,,,,,,,,,,,,,,,,,,,,,,,,,,,,
261882,001,2022-11-20_16h57.19.756,Info_measure_main_exp,2022.2.2,Win32,60.27727547,,,,,,,,,,,,,,,,,,masks/mask_003.jpg,0,0,0,2,1,,,,,,,,,,,,,,,,,,,,,,,,,,,,,,,,,,,,,,,,,,,,,,,,,,,,,,,,,,,,,,,,,,,,,,,,,,,,,,,,,,,,,,,,
261882,001,2022-11-20_16h57.19.756,Info_measure_main_exp,2022.2.2,Win32,60.27727547,,,,,,,,,,,,,,,,,,masks/mask_001.jpg,0,1,1,0,1,,,,,,,,,,,,,,,,,,,,,,,,,,,,,,,,,,,,,,,,,,,,,,,,,,,,,,,,,,,,,,,,,,,,,,,,,,,,,,,,,,,,,,,,
261882,001,2022-11-20_16h57.19.756,Info_measure_main_exp,2022.2.2,Win32,60.27727547,,,,,,,,,,,,,,,,,,masks/mask_002.jpg,0,2,2,1,1,,,,,,,,,,,,,,,,,,,,,,,,,,,,,,,,,,,,,,,,,,,,,,,,,,,,,,,,,,,,,,,,,,,,,,,,,,,,,,,,,,,,,,,,
261882,001,2022-11-20_16h57.19.756,Info_measure_main_exp,2022.2.2,Win32,60.27727547,,,,,,,,,,,,,,,,,,masks/mask_005.jpg,0,3,3,4,1,,,,,,,,,,,,,,,,,,,,,,,,,,,,,,,,,,,,,,,,,,,,,,,,,,,,,,,,,,,,,,,,,,,,,,,,,,,,,,,,,,,,,,,,
261882,001,2022-11-20_16h57.19.756,Info_measure_main_exp,2022.2.2,Win32,60.27727547,,,,,,,,,,,,,,,,,,masks/mask_004.jpg,0,4,4,3,1,,,,,,,,,,,,,,,,,,,,,,,,,,,,,,,,,,,,,,,,,,,,,,,,,,,,,,,,,,,,,,,,,,,,,,,,,,,,,,,,,,,,,,,,
261882,001,2022-11-20_16h57.19.756,Info_measure_main_exp,2022.2.2,Win32,60.27727547,,,,,,,,,,,,,,,,,,,,,,,,0.084259288,0.15370369,1,0,0,response1disk,7,147.9134,1,0,-0.001851866,1,0,0,center_square,0,0,0,1,1,0,131,5,5,2514,2490,prac_patch/patch0002514.jpg,prac_patch/patch0002490.jpg,,,,,,,,,,,,,,,,,,,,,,,,,,,,,,,,,,,,,,,,,,,,,,,,,,,,,,,,,,,,
261882,001,2022-11-20_16h57.19.756,Info_measure_main_exp,2022.2.2,Win32,60.27727547,,,,,,,,,,,,,0,0,0,0,1,masks/mask_001.jpg,,,,,,,,,,,,,,,,,,,,,,,,,,,,,,,,,,,,,,,,,,,,,,,,,,,,,,,,,,,,,,,,,,,,,,,,,,,,,,,,,,,,,,,,,,,,,
261882,001,2022-11-20_16h57.19.756,Info_measure_main_exp,2022.2.2,Win32,60.27727547,,,,,,,,,,,,,0,1,1,2,1,masks/mask_003.jpg,,,,,,,,,,,,,,,,,,,,,,,,,,,,,,,,,,,,,,,,,,,,,,,,,,,,,,,,,,,,,,,,,,,,,,,,,,,,,,,,,,,,,,,,,,,,,
261882,001,2022-11-20_16h57.19.756,Info_measure_main_exp,2022.2.2,Win32,60.27727547,,,,,,,,,,,,,0,2,2,3,1,masks/mask_004.jpg,,,,,,,,,,,,,,,,,,,,,,,,,,,,,,,,,,,,,,,,,,,,,,,,,,,,,,,,,,,,,,,,,,,,,,,,,,,,,,,,,,,,,,,,,,,,,
261882,001,2022-11-20_16h57.19.756,Info_measure_main_exp,2022.2.2,Win32,60.27727547,,,,,,,,,,,,,0,3,3,1,1,masks/mask_002.jpg,,,,,,,,,,,,,,,,,,,,,,,,,,,,,,,,,,,,,,,,,,,,,,,,,,,,,,,,,,,,,,,,,,,,,,,,,,,,,,,,,,,,,,,,,,,,,
261882,001,2022-11-20_16h57.19.756,Info_measure_main_exp,2022.2.2,Win32,60.27727547,,,,,,,,,,,,,0,4,4,4,1,masks/mask_005.jpg,,,,,,,,,,,,,,,,,,,,,,,,,,,,,,,,,,,,,,,,,,,,,,,,,,,,,,,,,,,,,,,,,,,,,,,,,,,,,,,,,,,,,,,,,,,,,
261882,001,2022-11-20_16h57.19.756,Info_measure_main_exp,2022.2.2,Win32,60.27727547,,,,,,,,,,,,,,,,,,masks/mask_005.jpg,0,0,0,4,1,,,,,,,,,,,,,,,,,,,,,,,,,,,,,,,,,,,,,,,,,,,,,,,,,,,,,,,,,,,,,,,,,,,,,,,,,,,,,,,,,,,,,,,,
261882,001,2022-11-20_16h57.19.756,Info_measure_main_exp,2022.2.2,Win32,60.27727547,,,,,,,,,,,,,,,,,,masks/mask_003.jpg,0,1,1,2,1,,,,,,,,,,,,,,,,,,,,,,,,,,,,,,,,,,,,,,,,,,,,,,,,,,,,,,,,,,,,,,,,,,,,,,,,,,,,,,,,,,,,,,,,
261882,001,2022-11-20_16h57.19.756,Info_measure_main_exp,2022.2.2,Win32,60.27727547,,,,,,,,,,,,,,,,,,masks/mask_001.jpg,0,2,2,0,1,,,,,,,,,,,,,,,,,,,,,,,,,,,,,,,,,,,,,,,,,,,,,,,,,,,,,,,,,,,,,,,,,,,,,,,,,,,,,,,,,,,,,,,,
261882,001,2022-11-20_16h57.19.756,Info_measure_main_exp,2022.2.2,Win32,60.27727547,,,,,,,,,,,,,,,,,,masks/mask_002.jpg,0,3,3,1,1,,,,,,,,,,,,,,,,,,,,,,,,,,,,,,,,,,,,,,,,,,,,,,,,,,,,,,,,,,,,,,,,,,,,,,,,,,,,,,,,,,,,,,,,
261882,001,2022-11-20_16h57.19.756,Info_measure_main_exp,2022.2.2,Win32,60.27727547,,,,,,,,,,,,,,,,,,masks/mask_004.jpg,0,4,4,3,1,,,,,,,,,,,,,,,,,,,,,,,,,,,,,,,,,,,,,,,,,,,,,,,,,,,,,,,,,,,,,,,,,,,,,,,,,,,,,,,,,,,,,,,,
261882,001,2022-11-20_16h57.19.756,Info_measure_main_exp,2022.2.2,Win32,60.27727547,,,,,,,,,,,,,,,,,,,,,,,,0.155555556,0.033333333,1,0,0,response1disk,6,167.094,1,0.000925954,0.001851824,1,0,0,center_square,0,1,1,0,1,0,131,5,5,2370,2406,prac_patch/patch0002370.jpg,prac_patch/patch0002406.jpg,,,,,,,,,,,,,,,,,,,,,,,,,,,,,,,,,,,,,,,,,,,,,,,,,,,,,,,,,,,,
261882,001,2022-11-20_16h57.19.756,Info_measure_main_exp,2022.2.2,Win32,60.27727547,,,,,,,,,,,,,0,0,0,3,1,masks/mask_004.jpg,,,,,,,,,,,,,,,,,,,,,,,,,,,,,,,,,,,,,,,,,,,,,,,,,,,,,,,,,,,,,,,,,,,,,,,,,,,,,,,,,,,,,,,,,,,,,
261882,001,2022-11-20_16h57.19.756,Info_measure_main_exp,2022.2.2,Win32,60.27727547,,,,,,,,,,,,,0,1,1,2,1,masks/mask_003.jpg,,,,,,,,,,,,,,,,,,,,,,,,,,,,,,,,,,,,,,,,,,,,,,,,,,,,,,,,,,,,,,,,,,,,,,,,,,,,,,,,,,,,,,,,,,,,,
261882,001,2022-11-20_16h57.19.756,Info_measure_main_exp,2022.2.2,Win32,60.27727547,,,,,,,,,,,,,0,2,2,0,1,masks/mask_001.jpg,,,,,,,,,,,,,,,,,,,,,,,,,,,,,,,,,,,,,,,,,,,,,,,,,,,,,,,,,,,,,,,,,,,,,,,,,,,,,,,,,,,,,,,,,,,,,
261882,001,2022-11-20_16h57.19.756,Info_measure_main_exp,2022.2.2,Win32,60.27727547,,,,,,,,,,,,,0,3,3,1,1,masks/mask_002.jpg,,,,,,,,,,,,,,,,,,,,,,,,,,,,,,,,,,,,,,,,,,,,,,,,,,,,,,,,,,,,,,,,,,,,,,,,,,,,,,,,,,,,,,,,,,,,,
261882,001,2022-11-20_16h57.19.756,Info_measure_main_exp,2022.2.2,Win32,60.27727547,,,,,,,,,,,,,0,4,4,4,1,masks/mask_005.jpg,,,,,,,,,,,,,,,,,,,,,,,,,,,,,,,,,,,,,,,,,,,,,,,,,,,,,,,,,,,,,,,,,,,,,,,,,,,,,,,,,,,,,,,,,,,,,
261882,001,2022-11-20_16h57.19.756,Info_measure_main_exp,2022.2.2,Win32,60.27727547,,,,,,,,,,,,,,,,,,masks/mask_002.jpg,0,0,0,1,1,,,,,,,,,,,,,,,,,,,,,,,,,,,,,,,,,,,,,,,,,,,,,,,,,,,,,,,,,,,,,,,,,,,,,,,,,,,,,,,,,,,,,,,,
261882,001,2022-11-20_16h57.19.756,Info_measure_main_exp,2022.2.2,Win32,60.27727547,,,,,,,,,,,,,,,,,,masks/mask_004.jpg,0,1,1,3,1,,,,,,,,,,,,,,,,,,,,,,,,,,,,,,,,,,,,,,,,,,,,,,,,,,,,,,,,,,,,,,,,,,,,,,,,,,,,,,,,,,,,,,,,
261882,001,2022-11-20_16h57.19.756,Info_measure_main_exp,2022.2.2,Win32,60.27727547,,,,,,,,,,,,,,,,,,masks/mask_005.jpg,0,2,2,4,1,,,,,,,,,,,,,,,,,,,,,,,,,,,,,,,,,,,,,,,,,,,,,,,,,,,,,,,,,,,,,,,,,,,,,,,,,,,,,,,,,,,,,,,,
261882,001,2022-11-20_16h57.19.756,Info_measure_main_exp,2022.2.2,Win32,60.27727547,,,,,,,,,,,,,,,,,,masks/mask_001.jpg,0,3,3,0,1,,,,,,,,,,,,,,,,,,,,,,,,,,,,,,,,,,,,,,,,,,,,,,,,,,,,,,,,,,,,,,,,,,,,,,,,,,,,,,,,,,,,,,,,
261882,001,2022-11-20_16h57.19.756,Info_measure_main_exp,2022.2.2,Win32,60.27727547,,,,,,,,,,,,,,,,,,masks/mask_003.jpg,0,4,4,2,1,,,,,,,,,,,,,,,,,,,,,,,,,,,,,,,,,,,,,,,,,,,,,,,,,,,,,,,,,,,,,,,,,,,,,,,,,,,,,,,,,,,,,,,,
261882,001,2022-11-20_16h57.19.756,Info_measure_main_exp,2022.2.2,Win32,60.27727547,,,,,,,,,,,,,,,,,,,,,,,,-0.104629601,0.033333333,1,0,0,response7disk,1,176.9495,1,-0.000925869,-0.001851866,1,0,0,center_square,0,2,2,2,1,0,131,5,5,2526,2526,prac_patch/patch0002526.jpg,prac_patch/patch0002526.jpg,,,,,,,,,,,,,,,,,,,,,,,,,,,,,,,,,,,,,,,,,,,,,,,,,,,,,,,,,,,,
261882,001,2022-11-20_16h57.19.756,Info_measure_main_exp,2022.2.2,Win32,60.27727547,,,,,,,,,,,,,,,,,,,,,,,,,,,,,,,,,,,,,,,,,,,,,,,,,,,,,,,,,,,space,3.7689,,,,,,,,,,,,,,,,,,,,,,,,,,,,,,,,,,,,,,,,,,,,,,,,,,,
261882,001,2022-11-20_16h57.19.756,Info_measure_main_exp,2022.2.2,Win32,60.27727547,,,,,,,,,,,,,,,,,,masks/mask_005.jpg,,,,,,,,,,,,,,,,,,,,,,,,,,,,,,,,,,,,,,,,,,,0,0,0,4,1,,,,,,,,,,,,,,,,,,,,,,,,,,,,,,,,,,,,,,,,,,,,,,
261882,001,2022-11-20_16h57.19.756,Info_measure_main_exp,2022.2.2,Win32,60.27727547,,,,,,,,,,,,,,,,,,masks/mask_003.jpg,,,,,,,,,,,,,,,,,,,,,,,,,,,,,,,,,,,,,,,,,,,0,1,1,2,1,,,,,,,,,,,,,,,,,,,,,,,,,,,,,,,,,,,,,,,,,,,,,,
261882,001,2022-11-20_16h57.19.756,Info_measure_main_exp,2022.2.2,Win32,60.27727547,,,,,,,,,,,,,,,,,,masks/mask_001.jpg,,,,,,,,,,,,,,,,,,,,,,,,,,,,,,,,,,,,,,,,,,,0,2,2,0,1,,,,,,,,,,,,,,,,,,,,,,,,,,,,,,,,,,,,,,,,,,,,,,
261882,001,2022-11-20_16h57.19.756,Info_measure_main_exp,2022.2.2,Win32,60.27727547,,,,,,,,,,,,,,,,,,masks/mask_002.jpg,,,,,,,,,,,,,,,,,,,,,,,,,,,,,,,,,,,,,,,,,,,0,3,3,1,1,,,,,,,,,,,,,,,,,,,,,,,,,,,,,,,,,,,,,,,,,,,,,,
261882,001,2022-11-20_16h57.19.756,Info_measure_main_exp,2022.2.2,Win32,60.27727547,,,,,,,,,,,,,,,,,,masks/mask_004.jpg,,,,,,,,,,,,,,,,,,,,,,,,,,,,,,,,,,,,,,,,,,,0,4,4,3,1,,,,,,,,,,,,,,,,,,,,,,,,,,,,,,,,,,,,,,,,,,,,,,
261882,001,2022-11-20_16h57.19.756,Info_measure_main_exp,2022.2.2,Win32,60.27727547,,,,,,,,,,,,,,,,,,masks/mask_005.jpg,,,,,,,,,,,,,,,,,,,,,,,,,,,,,,,,,,,,,,,,,,,,,,,,0,0,0,4,1,,,,,,,,,,,,,,,,,,,,,,,,,,,,,,,,,,,,,,,,,
261882,001,2022-11-20_16h57.19.756,Info_measure_main_exp,2022.2.2,Win32,60.27727547,,,,,,,,,,,,,,,,,,masks/mask_001.jpg,,,,,,,,,,,,,,,,,,,,,,,,,,,,,,,,,,,,,,,,,,,,,,,,0,1,1,0,1,,,,,,,,,,,,,,,,,,,,,,,,,,,,,,,,,,,,,,,,,
261882,001,2022-11-20_16h57.19.756,Info_measure_main_exp,2022.2.2,Win32,60.27727547,,,,,,,,,,,,,,,,,,masks/mask_004.jpg,,,,,,,,,,,,,,,,,,,,,,,,,,,,,,,,,,,,,,,,,,,,,,,,0,2,2,3,1,,,,,,,,,,,,,,,,,,,,,,,,,,,,,,,,,,,,,,,,,
261882,001,2022-11-20_16h57.19.756,Info_measure_main_exp,2022.2.2,Win32,60.27727547,,,,,,,,,,,,,,,,,,masks/mask_003.jpg,,,,,,,,,,,,,,,,,,,,,,,,,,,,,,,,,,,,,,,,,,,,,,,,0,3,3,2,1,,,,,,,,,,,,,,,,,,,,,,,,,,,,,,,,,,,,,,,,,
261882,001,2022-11-20_16h57.19.756,Info_measure_main_exp,2022.2.2,Win32,60.27727547,,,,,,,,,,,,,,,,,,masks/mask_002.jpg,,,,,,,,,,,,,,,,,,,,,,,,,,,,,,,,,,,,,,,,,,,,,,,,0,4,4,1,1,,,,,,,,,,,,,,,,,,,,,,,,,,,,,,,,,,,,,,,,,
261882,001,2022-11-20_16h57.19.756,Info_measure_main_exp,2022.2.2,Win32,60.27727547,,,,,,,,,,,,,,,,,,,,,,,,,,,,,,1,2.966,1,,,,,,,,,,,,0,131,5,5,2214,2214,absent_patch/patch0002214.jpg,absent_patch/patch0002214.jpg,,,,,,,,,,,,,,,,,,,,-0.128703647,0.079629601,1,0,0,response7disk,1,-0.000925869,-0.000925954,1,0,0,center_square,0,0,0,115,1,,,,,,,,,,,,,,,,,,,,,,,
261882,001,2022-11-20_16h57.19.756,Info_measure_main_exp,2022.2.2,Win32,60.27727547,,,,,,,,,,,,,,,,,,masks/mask_002.jpg,,,,,,,,,,,,,,,,,,,,,,,,,,,,,,,,,,,,,,,,,,,0,0,0,1,1,,,,,,,,,,,,,,,,,,,,,,,,,,,,,,,,,,,,,,,,,,,,,,
261882,001,2022-11-20_16h57.19.756,Info_measure_main_exp,2022.2.2,Win32,60.27727547,,,,,,,,,,,,,,,,,,masks/mask_004.jpg,,,,,,,,,,,,,,,,,,,,,,,,,,,,,,,,,,,,,,,,,,,0,1,1,3,1,,,,,,,,,,,,,,,,,,,,,,,,,,,,,,,,,,,,,,,,,,,,,,
261882,001,2022-11-20_16h57.19.756,Info_measure_main_exp,2022.2.2,Win32,60.27727547,,,,,,,,,,,,,,,,,,masks/mask_005.jpg,,,,,,,,,,,,,,,,,,,,,,,,,,,,,,,,,,,,,,,,,,,0,2,2,4,1,,,,,,,,,,,,,,,,,,,,,,,,,,,,,,,,,,,,,,,,,,,,,,
261882,001,2022-11-20_16h57.19.756,Info_measure_main_exp,2022.2.2,Win32,60.27727547,,,,,,,,,,,,,,,,,,masks/mask_003.jpg,,,,,,,,,,,,,,,,,,,,,,,,,,,,,,,,,,,,,,,,,,,0,3,3,2,1,,,,,,,,,,,,,,,,,,,,,,,,,,,,,,,,,,,,,,,,,,,,,,
261882,001,2022-11-20_16h57.19.756,Info_measure_main_exp,2022.2.2,Win32,60.27727547,,,,,,,,,,,,,,,,,,masks/mask_001.jpg,,,,,,,,,,,,,,,,,,,,,,,,,,,,,,,,,,,,,,,,,,,0,4,4,0,1,,,,,,,,,,,,,,,,,,,,,,,,,,,,,,,,,,,,,,,,,,,,,,
261882,001,2022-11-20_16h57.19.756,Info_measure_main_exp,2022.2.2,Win32,60.27727547,,,,,,,,,,,,,,,,,,masks/mask_002.jpg,,,,,,,,,,,,,,,,,,,,,,,,,,,,,,,,,,,,,,,,,,,,,,,,0,0,0,1,1,,,,,,,,,,,,,,,,,,,,,,,,,,,,,,,,,,,,,,,,,
261882,001,2022-11-20_16h57.19.756,Info_measure_main_exp,2022.2.2,Win32,60.27727547,,,,,,,,,,,,,,,,,,masks/mask_003.jpg,,,,,,,,,,,,,,,,,,,,,,,,,,,,,,,,,,,,,,,,,,,,,,,,0,1,1,2,1,,,,,,,,,,,,,,,,,,,,,,,,,,,,,,,,,,,,,,,,,
261882,001,2022-11-20_16h57.19.756,Info_measure_main_exp,2022.2.2,Win32,60.27727547,,,,,,,,,,,,,,,,,,masks/mask_005.jpg,,,,,,,,,,,,,,,,,,,,,,,,,,,,,,,,,,,,,,,,,,,,,,,,0,2,2,4,1,,,,,,,,,,,,,,,,,,,,,,,,,,,,,,,,,,,,,,,,,
261882,001,2022-11-20_16h57.19.756,Info_measure_main_exp,2022.2.2,Win32,60.27727547,,,,,,,,,,,,,,,,,,masks/mask_001.jpg,,,,,,,,,,,,,,,,,,,,,,,,,,,,,,,,,,,,,,,,,,,,,,,,0,3,3,0,1,,,,,,,,,,,,,,,,,,,,,,,,,,,,,,,,,,,,,,,,,
261882,001,2022-11-20_16h57.19.756,Info_measure_main_exp,2022.2.2,Win32,60.27727547,,,,,,,,,,,,,,,,,,masks/mask_004.jpg,,,,,,,,,,,,,,,,,,,,,,,,,,,,,,,,,,,,,,,,,,,,,,,,0,4,4,3,1,,,,,,,,,,,,,,,,,,,,,,,,,,,,,,,,,,,,,,,,,
261882,001,2022-11-20_16h57.19.756,Info_measure_main_exp,2022.2.2,Win32,60.27727547,,,,,,,,,,,,,,,,,,,,,,,,,,,,,,3,1.7166,1,,,,,,,,,,,,0,131,5,5,2178,2142,absent_patch/patch0002178.jpg,absent_patch/patch0002142.jpg,,,,,,,,,,,,,,,,,,,,-0.025925869,-0.134259288,1,0,0,response5disk,2,0,-0.003703732,1,0,0,center_square,0,1,1,41,1,,,,,,,,,,,,,,,,,,,,,,,
261882,001,2022-11-20_16h57.19.756,Info_measure_main_exp,2022.2.2,Win32,60.27727547,,,,,,,,,,,,,,,,,,masks/mask_003.jpg,,,,,,,,,,,,,,,,,,,,,,,,,,,,,,,,,,,,,,,,,,,0,0,0,2,1,,,,,,,,,,,,,,,,,,,,,,,,,,,,,,,,,,,,,,,,,,,,,,
261882,001,2022-11-20_16h57.19.756,Info_measure_main_exp,2022.2.2,Win32,60.27727547,,,,,,,,,,,,,,,,,,masks/mask_001.jpg,,,,,,,,,,,,,,,,,,,,,,,,,,,,,,,,,,,,,,,,,,,0,1,1,0,1,,,,,,,,,,,,,,,,,,,,,,,,,,,,,,,,,,,,,,,,,,,,,,
261882,001,2022-11-20_16h57.19.756,Info_measure_main_exp,2022.2.2,Win32,60.27727547,,,,,,,,,,,,,,,,,,masks/mask_002.jpg,,,,,,,,,,,,,,,,,,,,,,,,,,,,,,,,,,,,,,,,,,,0,2,2,1,1,,,,,,,,,,,,,,,,,,,,,,,,,,,,,,,,,,,,,,,,,,,,,,
261882,001,2022-11-20_16h57.19.756,Info_measure_main_exp,2022.2.2,Win32,60.27727547,,,,,,,,,,,,,,,,,,masks/mask_004.jpg,,,,,,,,,,,,,,,,,,,,,,,,,,,,,,,,,,,,,,,,,,,0,3,3,3,1,,,,,,,,,,,,,,,,,,,,,,,,,,,,,,,,,,,,,,,,,,,,,,
261882,001,2022-11-20_16h57.19.756,Info_measure_main_exp,2022.2.2,Win32,60.27727547,,,,,,,,,,,,,,,,,,masks/mask_005.jpg,,,,,,,,,,,,,,,,,,,,,,,,,,,,,,,,,,,,,,,,,,,0,4,4,4,1,,,,,,,,,,,,,,,,,,,,,,,,,,,,,,,,,,,,,,,,,,,,,,
261882,001,2022-11-20_16h57.19.756,Info_measure_main_exp,2022.2.2,Win32,60.27727547,,,,,,,,,,,,,,,,,,masks/mask_003.jpg,,,,,,,,,,,,,,,,,,,,,,,,,,,,,,,,,,,,,,,,,,,,,,,,0,0,0,2,1,,,,,,,,,,,,,,,,,,,,,,,,,,,,,,,,,,,,,,,,,
261882,001,2022-11-20_16h57.19.756,Info_measure_main_exp,2022.2.2,Win32,60.27727547,,,,,,,,,,,,,,,,,,masks/mask_005.jpg,,,,,,,,,,,,,,,,,,,,,,,,,,,,,,,,,,,,,,,,,,,,,,,,0,1,1,4,1,,,,,,,,,,,,,,,,,,,,,,,,,,,,,,,,,,,,,,,,,
261882,001,2022-11-20_16h57.19.756,Info_measure_main_exp,2022.2.2,Win32,60.27727547,,,,,,,,,,,,,,,,,,masks/mask_002.jpg,,,,,,,,,,,,,,,,,,,,,,,,,,,,,,,,,,,,,,,,,,,,,,,,0,2,2,1,1,,,,,,,,,,,,,,,,,,,,,,,,,,,,,,,,,,,,,,,,,
261882,001,2022-11-20_16h57.19.756,Info_measure_main_exp,2022.2.2,Win32,60.27727547,,,,,,,,,,,,,,,,,,masks/mask_001.jpg,,,,,,,,,,,,,,,,,,,,,,,,,,,,,,,,,,,,,,,,,,,,,,,,0,3,3,0,1,,,,,,,,,,,,,,,,,,,,,,,,,,,,,,,,,,,,,,,,,
261882,001,2022-11-20_16h57.19.756,Info_measure_main_exp,2022.2.2,Win32,60.27727547,,,,,,,,,,,,,,,,,,masks/mask_004.jpg,,,,,,,,,,,,,,,,,,,,,,,,,,,,,,,,,,,,,,,,,,,,,,,,0,4,4,3,1,,,,,,,,,,,,,,,,,,,,,,,,,,,,,,,,,,,,,,,,,
261882,001,2022-11-20_16h57.19.756,Info_measure_main_exp,2022.2.2,Win32,60.27727547,,,,,,,,,,,,,,,,,,,,,,,,,,,,,,5,1.2553,1,,,,,,,,,,,,0,131,5,5,1974,2298,absent_patch/patch0001974.jpg,absent_patch/patch0002298.jpg,,,,,,,,,,,,,,,,,,,,0.091666667,-0.035185199,1,0,0,response3disk,3,-0.006481425,0.000925912,1,0,0,center_square,0,2,2,6,1,,,,,,,,,,,,,,,,,,,,,,,
261882,001,2022-11-20_16h57.19.756,Info_measure_main_exp,2022.2.2,Win32,60.27727547,,,,,,,,,,,,,,,,,,masks/mask_003.jpg,,,,,,,,,,,,,,,,,,,,,,,,,,,,,,,,,,,,,,,,,,,0,0,0,2,1,,,,,,,,,,,,,,,,,,,,,,,,,,,,,,,,,,,,,,,,,,,,,,
261882,001,2022-11-20_16h57.19.756,Info_measure_main_exp,2022.2.2,Win32,60.27727547,,,,,,,,,,,,,,,,,,masks/mask_001.jpg,,,,,,,,,,,,,,,,,,,,,,,,,,,,,,,,,,,,,,,,,,,0,1,1,0,1,,,,,,,,,,,,,,,,,,,,,,,,,,,,,,,,,,,,,,,,,,,,,,
261882,001,2022-11-20_16h57.19.756,Info_measure_main_exp,2022.2.2,Win32,60.27727547,,,,,,,,,,,,,,,,,,masks/mask_005.jpg,,,,,,,,,,,,,,,,,,,,,,,,,,,,,,,,,,,,,,,,,,,0,2,2,4,1,,,,,,,,,,,,,,,,,,,,,,,,,,,,,,,,,,,,,,,,,,,,,,
261882,001,2022-11-20_16h57.19.756,Info_measure_main_exp,2022.2.2,Win32,60.27727547,,,,,,,,,,,,,,,,,,masks/mask_002.jpg,,,,,,,,,,,,,,,,,,,,,,,,,,,,,,,,,,,,,,,,,,,0,3,3,1,1,,,,,,,,,,,,,,,,,,,,,,,,,,,,,,,,,,,,,,,,,,,,,,
261882,001,2022-11-20_16h57.19.756,Info_measure_main_exp,2022.2.2,Win32,60.27727547,,,,,,,,,,,,,,,,,,masks/mask_004.jpg,,,,,,,,,,,,,,,,,,,,,,,,,,,,,,,,,,,,,,,,,,,0,4,4,3,1,,,,,,,,,,,,,,,,,,,,,,,,,,,,,,,,,,,,,,,,,,,,,,
261882,001,2022-11-20_16h57.19.756,Info_measure_main_exp,2022.2.2,Win32,60.27727547,,,,,,,,,,,,,,,,,,masks/mask_003.jpg,,,,,,,,,,,,,,,,,,,,,,,,,,,,,,,,,,,,,,,,,,,,,,,,0,0,0,2,1,,,,,,,,,,,,,,,,,,,,,,,,,,,,,,,,,,,,,,,,,
261882,001,2022-11-20_16h57.19.756,Info_measure_main_exp,2022.2.2,Win32,60.27727547,,,,,,,,,,,,,,,,,,masks/mask_004.jpg,,,,,,,,,,,,,,,,,,,,,,,,,,,,,,,,,,,,,,,,,,,,,,,,0,1,1,3,1,,,,,,,,,,,,,,,,,,,,,,,,,,,,,,,,,,,,,,,,,
261882,001,2022-11-20_16h57.19.756,Info_measure_main_exp,2022.2.2,Win32,60.27727547,,,,,,,,,,,,,,,,,,masks/mask_005.jpg,,,,,,,,,,,,,,,,,,,,,,,,,,,,,,,,,,,,,,,,,,,,,,,,0,2,2,4,1,,,,,,,,,,,,,,,,,,,,,,,,,,,,,,,,,,,,,,,,,
261882,001,2022-11-20_16h57.19.756,Info_measure_main_exp,2022.2.2,Win32,60.27727547,,,,,,,,,,,,,,,,,,masks/mask_001.jpg,,,,,,,,,,,,,,,,,,,,,,,,,,,,,,,,,,,,,,,,,,,,,,,,0,3,3,0,1,,,,,,,,,,,,,,,,,,,,,,,,,,,,,,,,,,,,,,,,,
261882,001,2022-11-20_16h57.19.756,Info_measure_main_exp,2022.2.2,Win32,60.27727547,,,,,,,,,,,,,,,,,,masks/mask_002.jpg,,,,,,,,,,,,,,,,,,,,,,,,,,,,,,,,,,,,,,,,,,,,,,,,0,4,4,1,1,,,,,,,,,,,,,,,,,,,,,,,,,,,,,,,,,,,,,,,,,
261882,001,2022-11-20_16h57.19.756,Info_measure_main_exp,2022.2.2,Win32,60.27727547,,,,,,,,,,,,,,,,,,,,,,,,,,,,,,6,1.5749,1,,,,,,,,,,,,0,131,5,5,2250,1950,absent_patch/patch0002250.jpg,absent_patch/patch0001950.jpg,,,,,,,,,,,,,,,,,,,,0.10648151,0.011111111,1,0,0,response1disk,4,0.010185242,0.004629601,1,0,0,center_square,0,3,3,16,1,,,,,,,,,,,,,,,,,,,,,,,
261882,001,2022-11-20_16h57.19.756,Info_measure_main_exp,2022.2.2,Win32,60.27727547,,,,,,,,,,,,,,,,,,masks/mask_004.jpg,,,,,,,,,,,,,,,,,,,,,,,,,,,,,,,,,,,,,,,,,,,0,0,0,3,1,,,,,,,,,,,,,,,,,,,,,,,,,,,,,,,,,,,,,,,,,,,,,,
261882,001,2022-11-20_16h57.19.756,Info_measure_main_exp,2022.2.2,Win32,60.27727547,,,,,,,,,,,,,,,,,,masks/mask_005.jpg,,,,,,,,,,,,,,,,,,,,,,,,,,,,,,,,,,,,,,,,,,,0,1,1,4,1,,,,,,,,,,,,,,,,,,,,,,,,,,,,,,,,,,,,,,,,,,,,,,
261882,001,2022-11-20_16h57.19.756,Info_measure_main_exp,2022.2.2,Win32,60.27727547,,,,,,,,,,,,,,,,,,masks/mask_002.jpg,,,,,,,,,,,,,,,,,,,,,,,,,,,,,,,,,,,,,,,,,,,0,2,2,1,1,,,,,,,,,,,,,,,,,,,,,,,,,,,,,,,,,,,,,,,,,,,,,,
261882,001,2022-11-20_16h57.19.756,Info_measure_main_exp,2022.2.2,Win32,60.27727547,,,,,,,,,,,,,,,,,,masks/mask_003.jpg,,,,,,,,,,,,,,,,,,,,,,,,,,,,,,,,,,,,,,,,,,,0,3,3,2,1,,,,,,,,,,,,,,,,,,,,,,,,,,,,,,,,,,,,,,,,,,,,,,
261882,001,2022-11-20_16h57.19.756,Info_measure_main_exp,2022.2.2,Win32,60.27727547,,,,,,,,,,,,,,,,,,masks/mask_001.jpg,,,,,,,,,,,,,,,,,,,,,,,,,,,,,,,,,,,,,,,,,,,0,4,4,0,1,,,,,,,,,,,,,,,,,,,,,,,,,,,,,,,,,,,,,,,,,,,,,,
261882,001,2022-11-20_16h57.19.756,Info_measure_main_exp,2022.2.2,Win32,60.27727547,,,,,,,,,,,,,,,,,,masks/mask_003.jpg,,,,,,,,,,,,,,,,,,,,,,,,,,,,,,,,,,,,,,,,,,,,,,,,0,0,0,2,1,,,,,,,,,,,,,,,,,,,,,,,,,,,,,,,,,,,,,,,,,
261882,001,2022-11-20_16h57.19.756,Info_measure_main_exp,2022.2.2,Win32,60.27727547,,,,,,,,,,,,,,,,,,masks/mask_005.jpg,,,,,,,,,,,,,,,,,,,,,,,,,,,,,,,,,,,,,,,,,,,,,,,,0,1,1,4,1,,,,,,,,,,,,,,,,,,,,,,,,,,,,,,,,,,,,,,,,,
261882,001,2022-11-20_16h57.19.756,Info_measure_main_exp,2022.2.2,Win32,60.27727547,,,,,,,,,,,,,,,,,,masks/mask_002.jpg,,,,,,,,,,,,,,,,,,,,,,,,,,,,,,,,,,,,,,,,,,,,,,,,0,2,2,1,1,,,,,,,,,,,,,,,,,,,,,,,,,,,,,,,,,,,,,,,,,
261882,001,2022-11-20_16h57.19.756,Info_measure_main_exp,2022.2.2,Win32,60.27727547,,,,,,,,,,,,,,,,,,masks/mask_001.jpg,,,,,,,,,,,,,,,,,,,,,,,,,,,,,,,,,,,,,,,,,,,,,,,,0,3,3,0,1,,,,,,,,,,,,,,,,,,,,,,,,,,,,,,,,,,,,,,,,,
261882,001,2022-11-20_16h57.19.756,Info_measure_main_exp,2022.2.2,Win32,60.27727547,,,,,,,,,,,,,,,,,,masks/mask_004.jpg,,,,,,,,,,,,,,,,,,,,,,,,,,,,,,,,,,,,,,,,,,,,,,,,0,4,4,3,1,,,,,,,,,,,,,,,,,,,,,,,,,,,,,,,,,,,,,,,,,
261882,001,2022-11-20_16h57.19.756,Info_measure_main_exp,2022.2.2,Win32,60.27727547,,,,,,,,,,,,,,,,,,,,,,,,,,,,,,6,2.1756,1,,,,,,,,,,,,0,131,5,5,2250,2238,absent_patch/patch0002250.jpg,absent_patch/patch0002238.jpg,,,,,,,,,,,,,,,,,,,,0.075925954,0.029629601,1,0,0,response1disk,5,-0.006481425,0.005555556,1,0,0,center_square,0,4,4,110,1,,,,,,,,,,,,,,,,,,,,,,,
261882,001,2022-11-20_16h57.19.756,Info_measure_main_exp,2022.2.2,Win32,60.27727547,,,,,,,,,,,,,,,,,,masks/mask_005.jpg,,,,,,,,,,,,,,,,,,,,,,,,,,,,,,,,,,,,,,,,,,,0,0,0,4,1,,,,,,,,,,,,,,,,,,,,,,,,,,,,,,,,,,,,,,,,,,,,,,
261882,001,2022-11-20_16h57.19.756,Info_measure_main_exp,2022.2.2,Win32,60.27727547,,,,,,,,,,,,,,,,,,masks/mask_003.jpg,,,,,,,,,,,,,,,,,,,,,,,,,,,,,,,,,,,,,,,,,,,0,1,1,2,1,,,,,,,,,,,,,,,,,,,,,,,,,,,,,,,,,,,,,,,,,,,,,,
261882,001,2022-11-20_16h57.19.756,Info_measure_main_exp,2022.2.2,Win32,60.27727547,,,,,,,,,,,,,,,,,,masks/mask_002.jpg,,,,,,,,,,,,,,,,,,,,,,,,,,,,,,,,,,,,,,,,,,,0,2,2,1,1,,,,,,,,,,,,,,,,,,,,,,,,,,,,,,,,,,,,,,,,,,,,,,
261882,001,2022-11-20_16h57.19.756,Info_measure_main_exp,2022.2.2,Win32,60.27727547,,,,,,,,,,,,,,,,,,masks/mask_001.jpg,,,,,,,,,,,,,,,,,,,,,,,,,,,,,,,,,,,,,,,,,,,0,3,3,0,1,,,,,,,,,,,,,,,,,,,,,,,,,,,,,,,,,,,,,,,,,,,,,,
261882,001,2022-11-20_16h57.19.756,Info_measure_main_exp,2022.2.2,Win32,60.27727547,,,,,,,,,,,,,,,,,,masks/mask_004.jpg,,,,,,,,,,,,,,,,,,,,,,,,,,,,,,,,,,,,,,,,,,,0,4,4,3,1,,,,,,,,,,,,,,,,,,,,,,,,,,,,,,,,,,,,,,,,,,,,,,
261882,001,2022-11-20_16h57.19.756,Info_measure_main_exp,2022.2.2,Win32,60.27727547,,,,,,,,,,,,,,,,,,masks/mask_004.jpg,,,,,,,,,,,,,,,,,,,,,,,,,,,,,,,,,,,,,,,,,,,,,,,,0,0,0,3,1,,,,,,,,,,,,,,,,,,,,,,,,,,,,,,,,,,,,,,,,,
261882,001,2022-11-20_16h57.19.756,Info_measure_main_exp,2022.2.2,Win32,60.27727547,,,,,,,,,,,,,,,,,,masks/mask_001.jpg,,,,,,,,,,,,,,,,,,,,,,,,,,,,,,,,,,,,,,,,,,,,,,,,0,1,1,0,1,,,,,,,,,,,,,,,,,,,,,,,,,,,,,,,,,,,,,,,,,
261882,001,2022-11-20_16h57.19.756,Info_measure_main_exp,2022.2.2,Win32,60.27727547,,,,,,,,,,,,,,,,,,masks/mask_005.jpg,,,,,,,,,,,,,,,,,,,,,,,,,,,,,,,,,,,,,,,,,,,,,,,,0,2,2,4,1,,,,,,,,,,,,,,,,,,,,,,,,,,,,,,,,,,,,,,,,,
261882,001,2022-11-20_16h57.19.756,Info_measure_main_exp,2022.2.2,Win32,60.27727547,,,,,,,,,,,,,,,,,,masks/mask_002.jpg,,,,,,,,,,,,,,,,,,,,,,,,,,,,,,,,,,,,,,,,,,,,,,,,0,3,3,1,1,,,,,,,,,,,,,,,,,,,,,,,,,,,,,,,,,,,,,,,,,
261882,001,2022-11-20_16h57.19.756,Info_measure_main_exp,2022.2.2,Win32,60.27727547,,,,,,,,,,,,,,,,,,masks/mask_003.jpg,,,,,,,,,,,,,,,,,,,,,,,,,,,,,,,,,,,,,,,,,,,,,,,,0,4,4,2,1,,,,,,,,,,,,,,,,,,,,,,,,,,,,,,,,,,,,,,,,,
261882,001,2022-11-20_16h57.19.756,Info_measure_main_exp,2022.2.2,Win32,60.27727547,,,,,,,,,,,,,,,,,,,,,,,,,,,,,,1,1.8718,1,,,,,,,,,,,,0,131,5,5,2178,2178,absent_patch/patch0002178.jpg,absent_patch/patch0002178.jpg,,,,,,,,,,,,,,,,,,,,-0.106481425,0.032407379,1,0,0,response7disk,6,-0.007407379,-0.001851866,1,0,0,center_square,0,5,5,98,1,,,,,,,,,,,,,,,,,,,,,,,
261882,001,2022-11-20_16h57.19.756,Info_measure_main_exp,2022.2.2,Win32,60.27727547,,,,,,,,,,,,,,,,,,masks/mask_003.jpg,,,,,,,,,,,,,,,,,,,,,,,,,,,,,,,,,,,,,,,,,,,0,0,0,2,1,,,,,,,,,,,,,,,,,,,,,,,,,,,,,,,,,,,,,,,,,,,,,,
261882,001,2022-11-20_16h57.19.756,Info_measure_main_exp,2022.2.2,Win32,60.27727547,,,,,,,,,,,,,,,,,,masks/mask_004.jpg,,,,,,,,,,,,,,,,,,,,,,,,,,,,,,,,,,,,,,,,,,,0,1,1,3,1,,,,,,,,,,,,,,,,,,,,,,,,,,,,,,,,,,,,,,,,,,,,,,
261882,001,2022-11-20_16h57.19.756,Info_measure_main_exp,2022.2.2,Win32,60.27727547,,,,,,,,,,,,,,,,,,masks/mask_001.jpg,,,,,,,,,,,,,,,,,,,,,,,,,,,,,,,,,,,,,,,,,,,0,2,2,0,1,,,,,,,,,,,,,,,,,,,,,,,,,,,,,,,,,,,,,,,,,,,,,,
261882,001,2022-11-20_16h57.19.756,Info_measure_main_exp,2022.2.2,Win32,60.27727547,,,,,,,,,,,,,,,,,,masks/mask_005.jpg,,,,,,,,,,,,,,,,,,,,,,,,,,,,,,,,,,,,,,,,,,,0,3,3,4,1,,,,,,,,,,,,,,,,,,,,,,,,,,,,,,,,,,,,,,,,,,,,,,
261882,001,2022-11-20_16h57.19.756,Info_measure_main_exp,2022.2.2,Win32,60.27727547,,,,,,,,,,,,,,,,,,masks/mask_002.jpg,,,,,,,,,,,,,,,,,,,,,,,,,,,,,,,,,,,,,,,,,,,0,4,4,1,1,,,,,,,,,,,,,,,,,,,,,,,,,,,,,,,,,,,,,,,,,,,,,,
261882,001,2022-11-20_16h57.19.756,Info_measure_main_exp,2022.2.2,Win32,60.27727547,,,,,,,,,,,,,,,,,,masks/mask_004.jpg,,,,,,,,,,,,,,,,,,,,,,,,,,,,,,,,,,,,,,,,,,,,,,,,0,0,0,3,1,,,,,,,,,,,,,,,,,,,,,,,,,,,,,,,,,,,,,,,,,
261882,001,2022-11-20_16h57.19.756,Info_measure_main_exp,2022.2.2,Win32,60.27727547,,,,,,,,,,,,,,,,,,masks/mask_005.jpg,,,,,,,,,,,,,,,,,,,,,,,,,,,,,,,,,,,,,,,,,,,,,,,,0,1,1,4,1,,,,,,,,,,,,,,,,,,,,,,,,,,,,,,,,,,,,,,,,,
261882,001,2022-11-20_16h57.19.756,Info_measure_main_exp,2022.2.2,Win32,60.27727547,,,,,,,,,,,,,,,,,,masks/mask_001.jpg,,,,,,,,,,,,,,,,,,,,,,,,,,,,,,,,,,,,,,,,,,,,,,,,0,2,2,0,1,,,,,,,,,,,,,,,,,,,,,,,,,,,,,,,,,,,,,,,,,
261882,001,2022-11-20_16h57.19.756,Info_measure_main_exp,2022.2.2,Win32,60.27727547,,,,,,,,,,,,,,,,,,masks/mask_003.jpg,,,,,,,,,,,,,,,,,,,,,,,,,,,,,,,,,,,,,,,,,,,,,,,,0,3,3,2,1,,,,,,,,,,,,,,,,,,,,,,,,,,,,,,,,,,,,,,,,,
261882,001,2022-11-20_16h57.19.756,Info_measure_main_exp,2022.2.2,Win32,60.27727547,,,,,,,,,,,,,,,,,,masks/mask_002.jpg,,,,,,,,,,,,,,,,,,,,,,,,,,,,,,,,,,,,,,,,,,,,,,,,0,4,4,1,1,,,,,,,,,,,,,,,,,,,,,,,,,,,,,,,,,,,,,,,,,
261882,001,2022-11-20_16h57.19.756,Info_measure_main_exp,2022.2.2,Win32,60.27727547,,,,,,,,,,,,,,,,,,,,,,,,,,,,,,2,1.6073,1,,,,,,,,,,,,0,131,5,5,2082,1974,absent_patch/patch0002082.jpg,absent_patch/patch0001974.jpg,,,,,,,,,,,,,,,,,,,,-0.127777778,-0.024074088,1,0,0,response5disk,7,0.002777778,0.004629601,1,0,0,center_square,0,6,6,26,1,,,,,,,,,,,,,,,,,,,,,,,
261882,001,2022-11-20_16h57.19.756,Info_measure_main_exp,2022.2.2,Win32,60.27727547,,,,,,,,,,,,,,,,,,masks/mask_001.jpg,,,,,,,,,,,,,,,,,,,,,,,,,,,,,,,,,,,,,,,,,,,0,0,0,0,1,,,,,,,,,,,,,,,,,,,,,,,,,,,,,,,,,,,,,,,,,,,,,,
261882,001,2022-11-20_16h57.19.756,Info_measure_main_exp,2022.2.2,Win32,60.27727547,,,,,,,,,,,,,,,,,,masks/mask_003.jpg,,,,,,,,,,,,,,,,,,,,,,,,,,,,,,,,,,,,,,,,,,,0,1,1,2,1,,,,,,,,,,,,,,,,,,,,,,,,,,,,,,,,,,,,,,,,,,,,,,
261882,001,2022-11-20_16h57.19.756,Info_measure_main_exp,2022.2.2,Win32,60.27727547,,,,,,,,,,,,,,,,,,masks/mask_005.jpg,,,,,,,,,,,,,,,,,,,,,,,,,,,,,,,,,,,,,,,,,,,0,2,2,4,1,,,,,,,,,,,,,,,,,,,,,,,,,,,,,,,,,,,,,,,,,,,,,,
261882,001,2022-11-20_16h57.19.756,Info_measure_main_exp,2022.2.2,Win32,60.27727547,,,,,,,,,,,,,,,,,,masks/mask_004.jpg,,,,,,,,,,,,,,,,,,,,,,,,,,,,,,,,,,,,,,,,,,,0,3,3,3,1,,,,,,,,,,,,,,,,,,,,,,,,,,,,,,,,,,,,,,,,,,,,,,
261882,001,2022-11-20_16h57.19.756,Info_measure_main_exp,2022.2.2,Win32,60.27727547,,,,,,,,,,,,,,,,,,masks/mask_002.jpg,,,,,,,,,,,,,,,,,,,,,,,,,,,,,,,,,,,,,,,,,,,0,4,4,1,1,,,,,,,,,,,,,,,,,,,,,,,,,,,,,,,,,,,,,,,,,,,,,,
261882,001,2022-11-20_16h57.19.756,Info_measure_main_exp,2022.2.2,Win32,60.27727547,,,,,,,,,,,,,,,,,,masks/mask_001.jpg,,,,,,,,,,,,,,,,,,,,,,,,,,,,,,,,,,,,,,,,,,,,,,,,0,0,0,0,1,,,,,,,,,,,,,,,,,,,,,,,,,,,,,,,,,,,,,,,,,
261882,001,2022-11-20_16h57.19.756,Info_measure_main_exp,2022.2.2,Win32,60.27727547,,,,,,,,,,,,,,,,,,masks/mask_003.jpg,,,,,,,,,,,,,,,,,,,,,,,,,,,,,,,,,,,,,,,,,,,,,,,,0,1,1,2,1,,,,,,,,,,,,,,,,,,,,,,,,,,,,,,,,,,,,,,,,,
261882,001,2022-11-20_16h57.19.756,Info_measure_main_exp,2022.2.2,Win32,60.27727547,,,,,,,,,,,,,,,,,,masks/mask_002.jpg,,,,,,,,,,,,,,,,,,,,,,,,,,,,,,,,,,,,,,,,,,,,,,,,0,2,2,1,1,,,,,,,,,,,,,,,,,,,,,,,,,,,,,,,,,,,,,,,,,
261882,001,2022-11-20_16h57.19.756,Info_measure_main_exp,2022.2.2,Win32,60.27727547,,,,,,,,,,,,,,,,,,masks/mask_005.jpg,,,,,,,,,,,,,,,,,,,,,,,,,,,,,,,,,,,,,,,,,,,,,,,,0,3,3,4,1,,,,,,,,,,,,,,,,,,,,,,,,,,,,,,,,,,,,,,,,,
261882,001,2022-11-20_16h57.19.756,Info_measure_main_exp,2022.2.2,Win32,60.27727547,,,,,,,,,,,,,,,,,,masks/mask_004.jpg,,,,,,,,,,,,,,,,,,,,,,,,,,,,,,,,,,,,,,,,,,,,,,,,0,4,4,3,1,,,,,,,,,,,,,,,,,,,,,,,,,,,,,,,,,,,,,,,,,
261882,001,2022-11-20_16h57.19.756,Info_measure_main_exp,2022.2.2,Win32,60.27727547,,,,,,,,,,,,,,,,,,,,,,,,,,,,,,7,1.6735,1,,,,,,,,,,,,0,131,5,5,1950,2214,absent_patch/patch0001950.jpg,absent_patch/patch0002214.jpg,,,,,,,,,,,,,,,,,,,,0.077777778,0.131481467,1,0,0,response1disk,8,-0.002777778,-0.001851866,1,0,0,center_square,0,7,7,85,1,,,,,,,,,,,,,,,,,,,,,,,
261882,001,2022-11-20_16h57.19.756,Info_measure_main_exp,2022.2.2,Win32,60.27727547,,,,,,,,,,,,,,,,,,masks/mask_002.jpg,,,,,,,,,,,,,,,,,,,,,,,,,,,,,,,,,,,,,,,,,,,0,0,0,1,1,,,,,,,,,,,,,,,,,,,,,,,,,,,,,,,,,,,,,,,,,,,,,,
261882,001,2022-11-20_16h57.19.756,Info_measure_main_exp,2022.2.2,Win32,60.27727547,,,,,,,,,,,,,,,,,,masks/mask_003.jpg,,,,,,,,,,,,,,,,,,,,,,,,,,,,,,,,,,,,,,,,,,,0,1,1,2,1,,,,,,,,,,,,,,,,,,,,,,,,,,,,,,,,,,,,,,,,,,,,,,
261882,001,2022-11-20_16h57.19.756,Info_measure_main_exp,2022.2.2,Win32,60.27727547,,,,,,,,,,,,,,,,,,masks/mask_004.jpg,,,,,,,,,,,,,,,,,,,,,,,,,,,,,,,,,,,,,,,,,,,0,2,2,3,1,,,,,,,,,,,,,,,,,,,,,,,,,,,,,,,,,,,,,,,,,,,,,,
261882,001,2022-11-20_16h57.19.756,Info_measure_main_exp,2022.2.2,Win32,60.27727547,,,,,,,,,,,,,,,,,,masks/mask_001.jpg,,,,,,,,,,,,,,,,,,,,,,,,,,,,,,,,,,,,,,,,,,,0,3,3,0,1,,,,,,,,,,,,,,,,,,,,,,,,,,,,,,,,,,,,,,,,,,,,,,
261882,001,2022-11-20_16h57.19.756,Info_measure_main_exp,2022.2.2,Win32,60.27727547,,,,,,,,,,,,,,,,,,masks/mask_005.jpg,,,,,,,,,,,,,,,,,,,,,,,,,,,,,,,,,,,,,,,,,,,0,4,4,4,1,,,,,,,,,,,,,,,,,,,,,,,,,,,,,,,,,,,,,,,,,,,,,,
261882,001,2022-11-20_16h57.19.756,Info_measure_main_exp,2022.2.2,Win32,60.27727547,,,,,,,,,,,,,,,,,,masks/mask_004.jpg,,,,,,,,,,,,,,,,,,,,,,,,,,,,,,,,,,,,,,,,,,,,,,,,0,0,0,3,1,,,,,,,,,,,,,,,,,,,,,,,,,,,,,,,,,,,,,,,,,
261882,001,2022-11-20_16h57.19.756,Info_measure_main_exp,2022.2.2,Win32,60.27727547,,,,,,,,,,,,,,,,,,masks/mask_003.jpg,,,,,,,,,,,,,,,,,,,,,,,,,,,,,,,,,,,,,,,,,,,,,,,,0,1,1,2,1,,,,,,,,,,,,,,,,,,,,,,,,,,,,,,,,,,,,,,,,,
261882,001,2022-11-20_16h57.19.756,Info_measure_main_exp,2022.2.2,Win32,60.27727547,,,,,,,,,,,,,,,,,,masks/mask_002.jpg,,,,,,,,,,,,,,,,,,,,,,,,,,,,,,,,,,,,,,,,,,,,,,,,0,2,2,1,1,,,,,,,,,,,,,,,,,,,,,,,,,,,,,,,,,,,,,,,,,
261882,001,2022-11-20_16h57.19.756,Info_measure_main_exp,2022.2.2,Win32,60.27727547,,,,,,,,,,,,,,,,,,masks/mask_001.jpg,,,,,,,,,,,,,,,,,,,,,,,,,,,,,,,,,,,,,,,,,,,,,,,,0,3,3,0,1,,,,,,,,,,,,,,,,,,,,,,,,,,,,,,,,,,,,,,,,,
261882,001,2022-11-20_16h57.19.756,Info_measure_main_exp,2022.2.2,Win32,60.27727547,,,,,,,,,,,,,,,,,,masks/mask_005.jpg,,,,,,,,,,,,,,,,,,,,,,,,,,,,,,,,,,,,,,,,,,,,,,,,0,4,4,4,1,,,,,,,,,,,,,,,,,,,,,,,,,,,,,,,,,,,,,,,,,
261882,001,2022-11-20_16h57.19.756,Info_measure_main_exp,2022.2.2,Win32,60.27727547,,,,,,,,,,,,,,,,,,,,,,,,,,,,,,7,1.1767,1,,,,,,,,,,,,0,131,5,5,2190,2082,absent_patch/patch0002190.jpg,absent_patch/patch0002082.jpg,,,,,,,,,,,,,,,,,,,,0.045370399,0.107407379,1,0,0,response1disk,9,-0.001851824,-0.008333333,1,0,0,center_square,0,8,8,112,1,,,,,,,,,,,,,,,,,,,,,,,
261882,001,2022-11-20_16h57.19.756,Info_measure_main_exp,2022.2.2,Win32,60.27727547,,,,,,,,,,,,,,,,,,masks/mask_004.jpg,,,,,,,,,,,,,,,,,,,,,,,,,,,,,,,,,,,,,,,,,,,0,0,0,3,1,,,,,,,,,,,,,,,,,,,,,,,,,,,,,,,,,,,,,,,,,,,,,,
261882,001,2022-11-20_16h57.19.756,Info_measure_main_exp,2022.2.2,Win32,60.27727547,,,,,,,,,,,,,,,,,,masks/mask_001.jpg,,,,,,,,,,,,,,,,,,,,,,,,,,,,,,,,,,,,,,,,,,,0,1,1,0,1,,,,,,,,,,,,,,,,,,,,,,,,,,,,,,,,,,,,,,,,,,,,,,
261882,001,2022-11-20_16h57.19.756,Info_measure_main_exp,2022.2.2,Win32,60.27727547,,,,,,,,,,,,,,,,,,masks/mask_003.jpg,,,,,,,,,,,,,,,,,,,,,,,,,,,,,,,,,,,,,,,,,,,0,2,2,2,1,,,,,,,,,,,,,,,,,,,,,,,,,,,,,,,,,,,,,,,,,,,,,,
261882,001,2022-11-20_16h57.19.756,Info_measure_main_exp,2022.2.2,Win32,60.27727547,,,,,,,,,,,,,,,,,,masks/mask_002.jpg,,,,,,,,,,,,,,,,,,,,,,,,,,,,,,,,,,,,,,,,,,,0,3,3,1,1,,,,,,,,,,,,,,,,,,,,,,,,,,,,,,,,,,,,,,,,,,,,,,
261882,001,2022-11-20_16h57.19.756,Info_measure_main_exp,2022.2.2,Win32,60.27727547,,,,,,,,,,,,,,,,,,masks/mask_005.jpg,,,,,,,,,,,,,,,,,,,,,,,,,,,,,,,,,,,,,,,,,,,0,4,4,4,1,,,,,,,,,,,,,,,,,,,,,,,,,,,,,,,,,,,,,,,,,,,,,,
261882,001,2022-11-20_16h57.19.756,Info_measure_main_exp,2022.2.2,Win32,60.27727547,,,,,,,,,,,,,,,,,,masks/mask_002.jpg,,,,,,,,,,,,,,,,,,,,,,,,,,,,,,,,,,,,,,,,,,,,,,,,0,0,0,1,1,,,,,,,,,,,,,,,,,,,,,,,,,,,,,,,,,,,,,,,,,
261882,001,2022-11-20_16h57.19.756,Info_measure_main_exp,2022.2.2,Win32,60.27727547,,,,,,,,,,,,,,,,,,masks/mask_003.jpg,,,,,,,,,,,,,,,,,,,,,,,,,,,,,,,,,,,,,,,,,,,,,,,,0,1,1,2,1,,,,,,,,,,,,,,,,,,,,,,,,,,,,,,,,,,,,,,,,,
261882,001,2022-11-20_16h57.19.756,Info_measure_main_exp,2022.2.2,Win32,60.27727547,,,,,,,,,,,,,,,,,,masks/mask_004.jpg,,,,,,,,,,,,,,,,,,,,,,,,,,,,,,,,,,,,,,,,,,,,,,,,0,2,2,3,1,,,,,,,,,,,,,,,,,,,,,,,,,,,,,,,,,,,,,,,,,
261882,001,2022-11-20_16h57.19.756,Info_measure_main_exp,2022.2.2,Win32,60.27727547,,,,,,,,,,,,,,,,,,masks/mask_001.jpg,,,,,,,,,,,,,,,,,,,,,,,,,,,,,,,,,,,,,,,,,,,,,,,,0,3,3,0,1,,,,,,,,,,,,,,,,,,,,,,,,,,,,,,,,,,,,,,,,,
261882,001,2022-11-20_16h57.19.756,Info_measure_main_exp,2022.2.2,Win32,60.27727547,,,,,,,,,,,,,,,,,,masks/mask_005.jpg,,,,,,,,,,,,,,,,,,,,,,,,,,,,,,,,,,,,,,,,,,,,,,,,0,4,4,4,1,,,,,,,,,,,,,,,,,,,,,,,,,,,,,,,,,,,,,,,,,
261882,001,2022-11-20_16h57.19.756,Info_measure_main_exp,2022.2.2,Win32,60.27727547,,,,,,,,,,,,,,,,,,,,,,,,,,,,,,7,0.997,1,,,,,,,,,,,,0,131,5,5,2298,1986,absent_patch/patch0002298.jpg,absent_patch/patch0001986.jpg,,,,,,,,,,,,,,,,,,,,0.041666667,0.085185157,1,0,0,response1disk,10,-0.005555556,-0.012962977,1,0,0,center_square,0,9,9,32,1,,,,,,,,,,,,,,,,,,,,,,,
261882,001,2022-11-20_16h57.19.756,Info_measure_main_exp,2022.2.2,Win32,60.27727547,,,,,,,,,,,,,,,,,,masks/mask_002.jpg,,,,,,,,,,,,,,,,,,,,,,,,,,,,,,,,,,,,,,,,,,,0,0,0,1,1,,,,,,,,,,,,,,,,,,,,,,,,,,,,,,,,,,,,,,,,,,,,,,
261882,001,2022-11-20_16h57.19.756,Info_measure_main_exp,2022.2.2,Win32,60.27727547,,,,,,,,,,,,,,,,,,masks/mask_005.jpg,,,,,,,,,,,,,,,,,,,,,,,,,,,,,,,,,,,,,,,,,,,0,1,1,4,1,,,,,,,,,,,,,,,,,,,,,,,,,,,,,,,,,,,,,,,,,,,,,,
261882,001,2022-11-20_16h57.19.756,Info_measure_main_exp,2022.2.2,Win32,60.27727547,,,,,,,,,,,,,,,,,,masks/mask_001.jpg,,,,,,,,,,,,,,,,,,,,,,,,,,,,,,,,,,,,,,,,,,,0,2,2,0,1,,,,,,,,,,,,,,,,,,,,,,,,,,,,,,,,,,,,,,,,,,,,,,
261882,001,2022-11-20_16h57.19.756,Info_measure_main_exp,2022.2.2,Win32,60.27727547,,,,,,,,,,,,,,,,,,masks/mask_004.jpg,,,,,,,,,,,,,,,,,,,,,,,,,,,,,,,,,,,,,,,,,,,0,3,3,3,1,,,,,,,,,,,,,,,,,,,,,,,,,,,,,,,,,,,,,,,,,,,,,,
261882,001,2022-11-20_16h57.19.756,Info_measure_main_exp,2022.2.2,Win32,60.27727547,,,,,,,,,,,,,,,,,,masks/mask_003.jpg,,,,,,,,,,,,,,,,,,,,,,,,,,,,,,,,,,,,,,,,,,,0,4,4,2,1,,,,,,,,,,,,,,,,,,,,,,,,,,,,,,,,,,,,,,,,,,,,,,
261882,001,2022-11-20_16h57.19.756,Info_measure_main_exp,2022.2.2,Win32,60.27727547,,,,,,,,,,,,,,,,,,masks/mask_004.jpg,,,,,,,,,,,,,,,,,,,,,,,,,,,,,,,,,,,,,,,,,,,,,,,,0,0,0,3,1,,,,,,,,,,,,,,,,,,,,,,,,,,,,,,,,,,,,,,,,,
261882,001,2022-11-20_16h57.19.756,Info_measure_main_exp,2022.2.2,Win32,60.27727547,,,,,,,,,,,,,,,,,,masks/mask_002.jpg,,,,,,,,,,,,,,,,,,,,,,,,,,,,,,,,,,,,,,,,,,,,,,,,0,1,1,1,1,,,,,,,,,,,,,,,,,,,,,,,,,,,,,,,,,,,,,,,,,
261882,001,2022-11-20_16h57.19.756,Info_measure_main_exp,2022.2.2,Win32,60.27727547,,,,,,,,,,,,,,,,,,masks/mask_001.jpg,,,,,,,,,,,,,,,,,,,,,,,,,,,,,,,,,,,,,,,,,,,,,,,,0,2,2,0,1,,,,,,,,,,,,,,,,,,,,,,,,,,,,,,,,,,,,,,,,,
261882,001,2022-11-20_16h57.19.756,Info_measure_main_exp,2022.2.2,Win32,60.27727547,,,,,,,,,,,,,,,,,,masks/mask_005.jpg,,,,,,,,,,,,,,,,,,,,,,,,,,,,,,,,,,,,,,,,,,,,,,,,0,3,3,4,1,,,,,,,,,,,,,,,,,,,,,,,,,,,,,,,,,,,,,,,,,
261882,001,2022-11-20_16h57.19.756,Info_measure_main_exp,2022.2.2,Win32,60.27727547,,,,,,,,,,,,,,,,,,masks/mask_003.jpg,,,,,,,,,,,,,,,,,,,,,,,,,,,,,,,,,,,,,,,,,,,,,,,,0,4,4,2,1,,,,,,,,,,,,,,,,,,,,,,,,,,,,,,,,,,,,,,,,,
261882,001,2022-11-20_16h57.19.756,Info_measure_main_exp,2022.2.2,Win32,60.27727547,,,,,,,,,,,,,,,,,,,,,,,,,,,,,,5,3.8735,1,,,,,,,,,,,,1,131,5,5,1,1986,present_patch/cong_131_5_a.jpg,absent_patch/patch0001986.jpg,,,,,,,,,,,,,,,,,,,,0.108333333,-0.04629631,1,0,0,response3disk,11,0,0.008333333,1,0,0,center_square,0,10,10,106,1,,,,,,,,,,,,,,,,,,,,,,,
261882,001,2022-11-20_16h57.19.756,Info_measure_main_exp,2022.2.2,Win32,60.27727547,,,,,,,,,,,,,,,,,,masks/mask_001.jpg,,,,,,,,,,,,,,,,,,,,,,,,,,,,,,,,,,,,,,,,,,,0,0,0,0,1,,,,,,,,,,,,,,,,,,,,,,,,,,,,,,,,,,,,,,,,,,,,,,
261882,001,2022-11-20_16h57.19.756,Info_measure_main_exp,2022.2.2,Win32,60.27727547,,,,,,,,,,,,,,,,,,masks/mask_005.jpg,,,,,,,,,,,,,,,,,,,,,,,,,,,,,,,,,,,,,,,,,,,0,1,1,4,1,,,,,,,,,,,,,,,,,,,,,,,,,,,,,,,,,,,,,,,,,,,,,,
261882,001,2022-11-20_16h57.19.756,Info_measure_main_exp,2022.2.2,Win32,60.27727547,,,,,,,,,,,,,,,,,,masks/mask_004.jpg,,,,,,,,,,,,,,,,,,,,,,,,,,,,,,,,,,,,,,,,,,,0,2,2,3,1,,,,,,,,,,,,,,,,,,,,,,,,,,,,,,,,,,,,,,,,,,,,,,
261882,001,2022-11-20_16h57.19.756,Info_measure_main_exp,2022.2.2,Win32,60.27727547,,,,,,,,,,,,,,,,,,masks/mask_003.jpg,,,,,,,,,,,,,,,,,,,,,,,,,,,,,,,,,,,,,,,,,,,0,3,3,2,1,,,,,,,,,,,,,,,,,,,,,,,,,,,,,,,,,,,,,,,,,,,,,,
261882,001,2022-11-20_16h57.19.756,Info_measure_main_exp,2022.2.2,Win32,60.27727547,,,,,,,,,,,,,,,,,,masks/mask_002.jpg,,,,,,,,,,,,,,,,,,,,,,,,,,,,,,,,,,,,,,,,,,,0,4,4,1,1,,,,,,,,,,,,,,,,,,,,,,,,,,,,,,,,,,,,,,,,,,,,,,
261882,001,2022-11-20_16h57.19.756,Info_measure_main_exp,2022.2.2,Win32,60.27727547,,,,,,,,,,,,,,,,,,masks/mask_005.jpg,,,,,,,,,,,,,,,,,,,,,,,,,,,,,,,,,,,,,,,,,,,,,,,,0,0,0,4,1,,,,,,,,,,,,,,,,,,,,,,,,,,,,,,,,,,,,,,,,,
261882,001,2022-11-20_16h57.19.756,Info_measure_main_exp,2022.2.2,Win32,60.27727547,,,,,,,,,,,,,,,,,,masks/mask_001.jpg,,,,,,,,,,,,,,,,,,,,,,,,,,,,,,,,,,,,,,,,,,,,,,,,0,1,1,0,1,,,,,,,,,,,,,,,,,,,,,,,,,,,,,,,,,,,,,,,,,
261882,001,2022-11-20_16h57.19.756,Info_measure_main_exp,2022.2.2,Win32,60.27727547,,,,,,,,,,,,,,,,,,masks/mask_003.jpg,,,,,,,,,,,,,,,,,,,,,,,,,,,,,,,,,,,,,,,,,,,,,,,,0,2,2,2,1,,,,,,,,,,,,,,,,,,,,,,,,,,,,,,,,,,,,,,,,,
261882,001,2022-11-20_16h57.19.756,Info_measure_main_exp,2022.2.2,Win32,60.27727547,,,,,,,,,,,,,,,,,,masks/mask_004.jpg,,,,,,,,,,,,,,,,,,,,,,,,,,,,,,,,,,,,,,,,,,,,,,,,0,3,3,3,1,,,,,,,,,,,,,,,,,,,,,,,,,,,,,,,,,,,,,,,,,
261882,001,2022-11-20_16h57.19.756,Info_measure_main_exp,2022.2.2,Win32,60.27727547,,,,,,,,,,,,,,,,,,masks/mask_002.jpg,,,,,,,,,,,,,,,,,,,,,,,,,,,,,,,,,,,,,,,,,,,,,,,,0,4,4,1,1,,,,,,,,,,,,,,,,,,,,,,,,,,,,,,,,,,,,,,,,,
261882,001,2022-11-20_16h57.19.756,Info_measure_main_exp,2022.2.2,Win32,60.27727547,,,,,,,,,,,,,,,,,,,,,,,,,,,,,,7,2.1418,1,,,,,,,,,,,,0,131,5,5,2274,2154,absent_patch/patch0002274.jpg,absent_patch/patch0002154.jpg,,,,,,,,,,,,,,,,,,,,0.060185242,0.087037023,1,0,0,response1disk,12,0.001851908,-0.003703732,1,0,0,center_square,0,11,11,23,1,,,,,,,,,,,,,,,,,,,,,,,
261882,001,2022-11-20_16h57.19.756,Info_measure_main_exp,2022.2.2,Win32,60.27727547,,,,,,,,,,,,,,,,,,masks/mask_005.jpg,,,,,,,,,,,,,,,,,,,,,,,,,,,,,,,,,,,,,,,,,,,0,0,0,4,1,,,,,,,,,,,,,,,,,,,,,,,,,,,,,,,,,,,,,,,,,,,,,,
261882,001,2022-11-20_16h57.19.756,Info_measure_main_exp,2022.2.2,Win32,60.27727547,,,,,,,,,,,,,,,,,,masks/mask_001.jpg,,,,,,,,,,,,,,,,,,,,,,,,,,,,,,,,,,,,,,,,,,,0,1,1,0,1,,,,,,,,,,,,,,,,,,,,,,,,,,,,,,,,,,,,,,,,,,,,,,
261882,001,2022-11-20_16h57.19.756,Info_measure_main_exp,2022.2.2,Win32,60.27727547,,,,,,,,,,,,,,,,,,masks/mask_004.jpg,,,,,,,,,,,,,,,,,,,,,,,,,,,,,,,,,,,,,,,,,,,0,2,2,3,1,,,,,,,,,,,,,,,,,,,,,,,,,,,,,,,,,,,,,,,,,,,,,,
261882,001,2022-11-20_16h57.19.756,Info_measure_main_exp,2022.2.2,Win32,60.27727547,,,,,,,,,,,,,,,,,,masks/mask_003.jpg,,,,,,,,,,,,,,,,,,,,,,,,,,,,,,,,,,,,,,,,,,,0,3,3,2,1,,,,,,,,,,,,,,,,,,,,,,,,,,,,,,,,,,,,,,,,,,,,,,
261882,001,2022-11-20_16h57.19.756,Info_measure_main_exp,2022.2.2,Win32,60.27727547,,,,,,,,,,,,,,,,,,masks/mask_002.jpg,,,,,,,,,,,,,,,,,,,,,,,,,,,,,,,,,,,,,,,,,,,0,4,4,1,1,,,,,,,,,,,,,,,,,,,,,,,,,,,,,,,,,,,,,,,,,,,,,,
261882,001,2022-11-20_16h57.19.756,Info_measure_main_exp,2022.2.2,Win32,60.27727547,,,,,,,,,,,,,,,,,,masks/mask_002.jpg,,,,,,,,,,,,,,,,,,,,,,,,,,,,,,,,,,,,,,,,,,,,,,,,0,0,0,1,1,,,,,,,,,,,,,,,,,,,,,,,,,,,,,,,,,,,,,,,,,
261882,001,2022-11-20_16h57.19.756,Info_measure_main_exp,2022.2.2,Win32,60.27727547,,,,,,,,,,,,,,,,,,masks/mask_004.jpg,,,,,,,,,,,,,,,,,,,,,,,,,,,,,,,,,,,,,,,,,,,,,,,,0,1,1,3,1,,,,,,,,,,,,,,,,,,,,,,,,,,,,,,,,,,,,,,,,,
261882,001,2022-11-20_16h57.19.756,Info_measure_main_exp,2022.2.2,Win32,60.27727547,,,,,,,,,,,,,,,,,,masks/mask_003.jpg,,,,,,,,,,,,,,,,,,,,,,,,,,,,,,,,,,,,,,,,,,,,,,,,0,2,2,2,1,,,,,,,,,,,,,,,,,,,,,,,,,,,,,,,,,,,,,,,,,
261882,001,2022-11-20_16h57.19.756,Info_measure_main_exp,2022.2.2,Win32,60.27727547,,,,,,,,,,,,,,,,,,masks/mask_005.jpg,,,,,,,,,,,,,,,,,,,,,,,,,,,,,,,,,,,,,,,,,,,,,,,,0,3,3,4,1,,,,,,,,,,,,,,,,,,,,,,,,,,,,,,,,,,,,,,,,,
261882,001,2022-11-20_16h57.19.756,Info_measure_main_exp,2022.2.2,Win32,60.27727547,,,,,,,,,,,,,,,,,,masks/mask_001.jpg,,,,,,,,,,,,,,,,,,,,,,,,,,,,,,,,,,,,,,,,,,,,,,,,0,4,4,0,1,,,,,,,,,,,,,,,,,,,,,,,,,,,,,,,,,,,,,,,,,
261882,001,2022-11-20_16h57.19.756,Info_measure_main_exp,2022.2.2,Win32,60.27727547,,,,,,,,,,,,,,,,,,,,,,,,,,,,,,7,1.2769,1,,,,,,,,,,,,0,131,5,5,2238,2298,absent_patch/patch0002238.jpg,absent_patch/patch0002298.jpg,,,,,,,,,,,,,,,,,,,,0.03148151,0.074074046,1,0,0,response1disk,13,-0.004629601,0.006481467,1,0,0,center_square,0,12,12,51,1,,,,,,,,,,,,,,,,,,,,,,,
261882,001,2022-11-20_16h57.19.756,Info_measure_main_exp,2022.2.2,Win32,60.27727547,,,,,,,,,,,,,,,,,,masks/mask_005.jpg,,,,,,,,,,,,,,,,,,,,,,,,,,,,,,,,,,,,,,,,,,,0,0,0,4,1,,,,,,,,,,,,,,,,,,,,,,,,,,,,,,,,,,,,,,,,,,,,,,
261882,001,2022-11-20_16h57.19.756,Info_measure_main_exp,2022.2.2,Win32,60.27727547,,,,,,,,,,,,,,,,,,masks/mask_004.jpg,,,,,,,,,,,,,,,,,,,,,,,,,,,,,,,,,,,,,,,,,,,0,1,1,3,1,,,,,,,,,,,,,,,,,,,,,,,,,,,,,,,,,,,,,,,,,,,,,,
261882,001,2022-11-20_16h57.19.756,Info_measure_main_exp,2022.2.2,Win32,60.27727547,,,,,,,,,,,,,,,,,,masks/mask_001.jpg,,,,,,,,,,,,,,,,,,,,,,,,,,,,,,,,,,,,,,,,,,,0,2,2,0,1,,,,,,,,,,,,,,,,,,,,,,,,,,,,,,,,,,,,,,,,,,,,,,
261882,001,2022-11-20_16h57.19.756,Info_measure_main_exp,2022.2.2,Win32,60.27727547,,,,,,,,,,,,,,,,,,masks/mask_003.jpg,,,,,,,,,,,,,,,,,,,,,,,,,,,,,,,,,,,,,,,,,,,0,3,3,2,1,,,,,,,,,,,,,,,,,,,,,,,,,,,,,,,,,,,,,,,,,,,,,,
261882,001,2022-11-20_16h57.19.756,Info_measure_main_exp,2022.2.2,Win32,60.27727547,,,,,,,,,,,,,,,,,,masks/mask_002.jpg,,,,,,,,,,,,,,,,,,,,,,,,,,,,,,,,,,,,,,,,,,,0,4,4,1,1,,,,,,,,,,,,,,,,,,,,,,,,,,,,,,,,,,,,,,,,,,,,,,
261882,001,2022-11-20_16h57.19.756,Info_measure_main_exp,2022.2.2,Win32,60.27727547,,,,,,,,,,,,,,,,,,masks/mask_001.jpg,,,,,,,,,,,,,,,,,,,,,,,,,,,,,,,,,,,,,,,,,,,,,,,,0,0,0,0,1,,,,,,,,,,,,,,,,,,,,,,,,,,,,,,,,,,,,,,,,,
261882,001,2022-11-20_16h57.19.756,Info_measure_main_exp,2022.2.2,Win32,60.27727547,,,,,,,,,,,,,,,,,,masks/mask_002.jpg,,,,,,,,,,,,,,,,,,,,,,,,,,,,,,,,,,,,,,,,,,,,,,,,0,1,1,1,1,,,,,,,,,,,,,,,,,,,,,,,,,,,,,,,,,,,,,,,,,
261882,001,2022-11-20_16h57.19.756,Info_measure_main_exp,2022.2.2,Win32,60.27727547,,,,,,,,,,,,,,,,,,masks/mask_005.jpg,,,,,,,,,,,,,,,,,,,,,,,,,,,,,,,,,,,,,,,,,,,,,,,,0,2,2,4,1,,,,,,,,,,,,,,,,,,,,,,,,,,,,,,,,,,,,,,,,,
261882,001,2022-11-20_16h57.19.756,Info_measure_main_exp,2022.2.2,Win32,60.27727547,,,,,,,,,,,,,,,,,,masks/mask_004.jpg,,,,,,,,,,,,,,,,,,,,,,,,,,,,,,,,,,,,,,,,,,,,,,,,0,3,3,3,1,,,,,,,,,,,,,,,,,,,,,,,,,,,,,,,,,,,,,,,,,
261882,001,2022-11-20_16h57.19.756,Info_measure_main_exp,2022.2.2,Win32,60.27727547,,,,,,,,,,,,,,,,,,masks/mask_003.jpg,,,,,,,,,,,,,,,,,,,,,,,,,,,,,,,,,,,,,,,,,,,,,,,,0,4,4,2,1,,,,,,,,,,,,,,,,,,,,,,,,,,,,,,,,,,,,,,,,,
261882,001,2022-11-20_16h57.19.756,Info_measure_main_exp,2022.2.2,Win32,60.27727547,,,,,,,,,,,,,,,,,,,,,,,,,,,,,,6,0.8575,1,,,,,,,,,,,,0,131,5,5,2082,2154,absent_patch/patch0002082.jpg,absent_patch/patch0002154.jpg,,,,,,,,,,,,,,,,,,,,0.095370399,0.022222222,1,0,0,response1disk,14,0.001851908,-0.005555556,1,0,0,center_square,0,13,13,33,1,,,,,,,,,,,,,,,,,,,,,,,
261882,001,2022-11-20_16h57.19.756,Info_measure_main_exp,2022.2.2,Win32,60.27727547,,,,,,,,,,,,,,,,,,masks/mask_003.jpg,,,,,,,,,,,,,,,,,,,,,,,,,,,,,,,,,,,,,,,,,,,0,0,0,2,1,,,,,,,,,,,,,,,,,,,,,,,,,,,,,,,,,,,,,,,,,,,,,,
261882,001,2022-11-20_16h57.19.756,Info_measure_main_exp,2022.2.2,Win32,60.27727547,,,,,,,,,,,,,,,,,,masks/mask_001.jpg,,,,,,,,,,,,,,,,,,,,,,,,,,,,,,,,,,,,,,,,,,,0,1,1,0,1,,,,,,,,,,,,,,,,,,,,,,,,,,,,,,,,,,,,,,,,,,,,,,
261882,001,2022-11-20_16h57.19.756,Info_measure_main_exp,2022.2.2,Win32,60.27727547,,,,,,,,,,,,,,,,,,masks/mask_004.jpg,,,,,,,,,,,,,,,,,,,,,,,,,,,,,,,,,,,,,,,,,,,0,2,2,3,1,,,,,,,,,,,,,,,,,,,,,,,,,,,,,,,,,,,,,,,,,,,,,,
261882,001,2022-11-20_16h57.19.756,Info_measure_main_exp,2022.2.2,Win32,60.27727547,,,,,,,,,,,,,,,,,,masks/mask_002.jpg,,,,,,,,,,,,,,,,,,,,,,,,,,,,,,,,,,,,,,,,,,,0,3,3,1,1,,,,,,,,,,,,,,,,,,,,,,,,,,,,,,,,,,,,,,,,,,,,,,
261882,001,2022-11-20_16h57.19.756,Info_measure_main_exp,2022.2.2,Win32,60.27727547,,,,,,,,,,,,,,,,,,masks/mask_005.jpg,,,,,,,,,,,,,,,,,,,,,,,,,,,,,,,,,,,,,,,,,,,0,4,4,4,1,,,,,,,,,,,,,,,,,,,,,,,,,,,,,,,,,,,,,,,,,,,,,,
261882,001,2022-11-20_16h57.19.756,Info_measure_main_exp,2022.2.2,Win32,60.27727547,,,,,,,,,,,,,,,,,,masks/mask_001.jpg,,,,,,,,,,,,,,,,,,,,,,,,,,,,,,,,,,,,,,,,,,,,,,,,0,0,0,0,1,,,,,,,,,,,,,,,,,,,,,,,,,,,,,,,,,,,,,,,,,
261882,001,2022-11-20_16h57.19.756,Info_measure_main_exp,2022.2.2,Win32,60.27727547,,,,,,,,,,,,,,,,,,masks/mask_004.jpg,,,,,,,,,,,,,,,,,,,,,,,,,,,,,,,,,,,,,,,,,,,,,,,,0,1,1,3,1,,,,,,,,,,,,,,,,,,,,,,,,,,,,,,,,,,,,,,,,,
261882,001,2022-11-20_16h57.19.756,Info_measure_main_exp,2022.2.2,Win32,60.27727547,,,,,,,,,,,,,,,,,,masks/mask_003.jpg,,,,,,,,,,,,,,,,,,,,,,,,,,,,,,,,,,,,,,,,,,,,,,,,0,2,2,2,1,,,,,,,,,,,,,,,,,,,,,,,,,,,,,,,,,,,,,,,,,
261882,001,2022-11-20_16h57.19.756,Info_measure_main_exp,2022.2.2,Win32,60.27727547,,,,,,,,,,,,,,,,,,masks/mask_005.jpg,,,,,,,,,,,,,,,,,,,,,,,,,,,,,,,,,,,,,,,,,,,,,,,,0,3,3,4,1,,,,,,,,,,,,,,,,,,,,,,,,,,,,,,,,,,,,,,,,,
261882,001,2022-11-20_16h57.19.756,Info_measure_main_exp,2022.2.2,Win32,60.27727547,,,,,,,,,,,,,,,,,,masks/mask_002.jpg,,,,,,,,,,,,,,,,,,,,,,,,,,,,,,,,,,,,,,,,,,,,,,,,0,4,4,1,1,,,,,,,,,,,,,,,,,,,,,,,,,,,,,,,,,,,,,,,,,
261882,001,2022-11-20_16h57.19.756,Info_measure_main_exp,2022.2.2,Win32,60.27727547,,,,,,,,,,,,,,,,,,,,,,,,,,,,,,6,0.66,1,,,,,,,,,,,,0,131,5,5,2178,2238,absent_patch/patch0002178.jpg,absent_patch/patch0002238.jpg,,,,,,,,,,,,,,,,,,,,0.077777778,0.023148134,1,0,0,response1disk,15,-0.007407379,0.002777778,1,0,0,center_square,0,14,14,57,1,,,,,,,,,,,,,,,,,,,,,,,
261882,001,2022-11-20_16h57.19.756,Info_measure_main_exp,2022.2.2,Win32,60.27727547,,,,,,,,,,,,,,,,,,masks/mask_002.jpg,,,,,,,,,,,,,,,,,,,,,,,,,,,,,,,,,,,,,,,,,,,0,0,0,1,1,,,,,,,,,,,,,,,,,,,,,,,,,,,,,,,,,,,,,,,,,,,,,,
261882,001,2022-11-20_16h57.19.756,Info_measure_main_exp,2022.2.2,Win32,60.27727547,,,,,,,,,,,,,,,,,,masks/mask_003.jpg,,,,,,,,,,,,,,,,,,,,,,,,,,,,,,,,,,,,,,,,,,,0,1,1,2,1,,,,,,,,,,,,,,,,,,,,,,,,,,,,,,,,,,,,,,,,,,,,,,
261882,001,2022-11-20_16h57.19.756,Info_measure_main_exp,2022.2.2,Win32,60.27727547,,,,,,,,,,,,,,,,,,masks/mask_004.jpg,,,,,,,,,,,,,,,,,,,,,,,,,,,,,,,,,,,,,,,,,,,0,2,2,3,1,,,,,,,,,,,,,,,,,,,,,,,,,,,,,,,,,,,,,,,,,,,,,,
261882,001,2022-11-20_16h57.19.756,Info_measure_main_exp,2022.2.2,Win32,60.27727547,,,,,,,,,,,,,,,,,,masks/mask_001.jpg,,,,,,,,,,,,,,,,,,,,,,,,,,,,,,,,,,,,,,,,,,,0,3,3,0,1,,,,,,,,,,,,,,,,,,,,,,,,,,,,,,,,,,,,,,,,,,,,,,
261882,001,2022-11-20_16h57.19.756,Info_measure_main_exp,2022.2.2,Win32,60.27727547,,,,,,,,,,,,,,,,,,masks/mask_005.jpg,,,,,,,,,,,,,,,,,,,,,,,,,,,,,,,,,,,,,,,,,,,0,4,4,4,1,,,,,,,,,,,,,,,,,,,,,,,,,,,,,,,,,,,,,,,,,,,,,,
261882,001,2022-11-20_16h57.19.756,Info_measure_main_exp,2022.2.2,Win32,60.27727547,,,,,,,,,,,,,,,,,,masks/mask_002.jpg,,,,,,,,,,,,,,,,,,,,,,,,,,,,,,,,,,,,,,,,,,,,,,,,0,0,0,1,1,,,,,,,,,,,,,,,,,,,,,,,,,,,,,,,,,,,,,,,,,
261882,001,2022-11-20_16h57.19.756,Info_measure_main_exp,2022.2.2,Win32,60.27727547,,,,,,,,,,,,,,,,,,masks/mask_001.jpg,,,,,,,,,,,,,,,,,,,,,,,,,,,,,,,,,,,,,,,,,,,,,,,,0,1,1,0,1,,,,,,,,,,,,,,,,,,,,,,,,,,,,,,,,,,,,,,,,,
261882,001,2022-11-20_16h57.19.756,Info_measure_main_exp,2022.2.2,Win32,60.27727547,,,,,,,,,,,,,,,,,,masks/mask_004.jpg,,,,,,,,,,,,,,,,,,,,,,,,,,,,,,,,,,,,,,,,,,,,,,,,0,2,2,3,1,,,,,,,,,,,,,,,,,,,,,,,,,,,,,,,,,,,,,,,,,
261882,001,2022-11-20_16h57.19.756,Info_measure_main_exp,2022.2.2,Win32,60.27727547,,,,,,,,,,,,,,,,,,masks/mask_005.jpg,,,,,,,,,,,,,,,,,,,,,,,,,,,,,,,,,,,,,,,,,,,,,,,,0,3,3,4,1,,,,,,,,,,,,,,,,,,,,,,,,,,,,,,,,,,,,,,,,,
261882,001,2022-11-20_16h57.19.756,Info_measure_main_exp,2022.2.2,Win32,60.27727547,,,,,,,,,,,,,,,,,,masks/mask_003.jpg,,,,,,,,,,,,,,,,,,,,,,,,,,,,,,,,,,,,,,,,,,,,,,,,0,4,4,2,1,,,,,,,,,,,,,,,,,,,,,,,,,,,,,,,,,,,,,,,,,
261882,001,2022-11-20_16h57.19.756,Info_measure_main_exp,2022.2.2,Win32,60.27727547,,,,,,,,,,,,,,,,,,,,,,,,,,,,,,6,0.7914,1,,,,,,,,,,,,0,131,5,5,2154,2250,absent_patch/patch0002154.jpg,absent_patch/patch0002250.jpg,,,,,,,,,,,,,,,,,,,,0.068518575,0.005555556,1,0,0,response1disk,16,-0.007407379,-0.003703732,1,0,0,center_square,0,15,15,108,1,,,,,,,,,,,,,,,,,,,,,,,
261882,001,2022-11-20_16h57.19.756,Info_measure_main_exp,2022.2.2,Win32,60.27727547,,,,,,,,,,,,,,,,,,masks/mask_001.jpg,,,,,,,,,,,,,,,,,,,,,,,,,,,,,,,,,,,,,,,,,,,0,0,0,0,1,,,,,,,,,,,,,,,,,,,,,,,,,,,,,,,,,,,,,,,,,,,,,,
261882,001,2022-11-20_16h57.19.756,Info_measure_main_exp,2022.2.2,Win32,60.27727547,,,,,,,,,,,,,,,,,,masks/mask_002.jpg,,,,,,,,,,,,,,,,,,,,,,,,,,,,,,,,,,,,,,,,,,,0,1,1,1,1,,,,,,,,,,,,,,,,,,,,,,,,,,,,,,,,,,,,,,,,,,,,,,
261882,001,2022-11-20_16h57.19.756,Info_measure_main_exp,2022.2.2,Win32,60.27727547,,,,,,,,,,,,,,,,,,masks/mask_003.jpg,,,,,,,,,,,,,,,,,,,,,,,,,,,,,,,,,,,,,,,,,,,0,2,2,2,1,,,,,,,,,,,,,,,,,,,,,,,,,,,,,,,,,,,,,,,,,,,,,,
261882,001,2022-11-20_16h57.19.756,Info_measure_main_exp,2022.2.2,Win32,60.27727547,,,,,,,,,,,,,,,,,,masks/mask_005.jpg,,,,,,,,,,,,,,,,,,,,,,,,,,,,,,,,,,,,,,,,,,,0,3,3,4,1,,,,,,,,,,,,,,,,,,,,,,,,,,,,,,,,,,,,,,,,,,,,,,
261882,001,2022-11-20_16h57.19.756,Info_measure_main_exp,2022.2.2,Win32,60.27727547,,,,,,,,,,,,,,,,,,masks/mask_004.jpg,,,,,,,,,,,,,,,,,,,,,,,,,,,,,,,,,,,,,,,,,,,0,4,4,3,1,,,,,,,,,,,,,,,,,,,,,,,,,,,,,,,,,,,,,,,,,,,,,,
261882,001,2022-11-20_16h57.19.756,Info_measure_main_exp,2022.2.2,Win32,60.27727547,,,,,,,,,,,,,,,,,,masks/mask_002.jpg,,,,,,,,,,,,,,,,,,,,,,,,,,,,,,,,,,,,,,,,,,,,,,,,0,0,0,1,1,,,,,,,,,,,,,,,,,,,,,,,,,,,,,,,,,,,,,,,,,
261882,001,2022-11-20_16h57.19.756,Info_measure_main_exp,2022.2.2,Win32,60.27727547,,,,,,,,,,,,,,,,,,masks/mask_004.jpg,,,,,,,,,,,,,,,,,,,,,,,,,,,,,,,,,,,,,,,,,,,,,,,,0,1,1,3,1,,,,,,,,,,,,,,,,,,,,,,,,,,,,,,,,,,,,,,,,,
261882,001,2022-11-20_16h57.19.756,Info_measure_main_exp,2022.2.2,Win32,60.27727547,,,,,,,,,,,,,,,,,,masks/mask_005.jpg,,,,,,,,,,,,,,,,,,,,,,,,,,,,,,,,,,,,,,,,,,,,,,,,0,2,2,4,1,,,,,,,,,,,,,,,,,,,,,,,,,,,,,,,,,,,,,,,,,
261882,001,2022-11-20_16h57.19.756,Info_measure_main_exp,2022.2.2,Win32,60.27727547,,,,,,,,,,,,,,,,,,masks/mask_001.jpg,,,,,,,,,,,,,,,,,,,,,,,,,,,,,,,,,,,,,,,,,,,,,,,,0,3,3,0,1,,,,,,,,,,,,,,,,,,,,,,,,,,,,,,,,,,,,,,,,,
261882,001,2022-11-20_16h57.19.756,Info_measure_main_exp,2022.2.2,Win32,60.27727547,,,,,,,,,,,,,,,,,,masks/mask_003.jpg,,,,,,,,,,,,,,,,,,,,,,,,,,,,,,,,,,,,,,,,,,,,,,,,0,4,4,2,1,,,,,,,,,,,,,,,,,,,,,,,,,,,,,,,,,,,,,,,,,
261882,001,2022-11-20_16h57.19.756,Info_measure_main_exp,2022.2.2,Win32,60.27727547,,,,,,,,,,,,,,,,,,,,,,,,,,,,,,5,1.641,1,,,,,,,,,,,,0,131,5,5,2142,2166,absent_patch/patch0002142.jpg,absent_patch/patch0002166.jpg,,,,,,,,,,,,,,,,,,,,0.072222222,-0.053703732,1,0,0,response3disk,17,0.004629686,-0.001851866,1,0,0,center_square,0,16,16,66,1,,,,,,,,,,,,,,,,,,,,,,,
261882,001,2022-11-20_16h57.19.756,Info_measure_main_exp,2022.2.2,Win32,60.27727547,,,,,,,,,,,,,,,,,,masks/mask_003.jpg,,,,,,,,,,,,,,,,,,,,,,,,,,,,,,,,,,,,,,,,,,,0,0,0,2,1,,,,,,,,,,,,,,,,,,,,,,,,,,,,,,,,,,,,,,,,,,,,,,
261882,001,2022-11-20_16h57.19.756,Info_measure_main_exp,2022.2.2,Win32,60.27727547,,,,,,,,,,,,,,,,,,masks/mask_002.jpg,,,,,,,,,,,,,,,,,,,,,,,,,,,,,,,,,,,,,,,,,,,0,1,1,1,1,,,,,,,,,,,,,,,,,,,,,,,,,,,,,,,,,,,,,,,,,,,,,,
261882,001,2022-11-20_16h57.19.756,Info_measure_main_exp,2022.2.2,Win32,60.27727547,,,,,,,,,,,,,,,,,,masks/mask_001.jpg,,,,,,,,,,,,,,,,,,,,,,,,,,,,,,,,,,,,,,,,,,,0,2,2,0,1,,,,,,,,,,,,,,,,,,,,,,,,,,,,,,,,,,,,,,,,,,,,,,
261882,001,2022-11-20_16h57.19.756,Info_measure_main_exp,2022.2.2,Win32,60.27727547,,,,,,,,,,,,,,,,,,masks/mask_005.jpg,,,,,,,,,,,,,,,,,,,,,,,,,,,,,,,,,,,,,,,,,,,0,3,3,4,1,,,,,,,,,,,,,,,,,,,,,,,,,,,,,,,,,,,,,,,,,,,,,,
261882,001,2022-11-20_16h57.19.756,Info_measure_main_exp,2022.2.2,Win32,60.27727547,,,,,,,,,,,,,,,,,,masks/mask_004.jpg,,,,,,,,,,,,,,,,,,,,,,,,,,,,,,,,,,,,,,,,,,,0,4,4,3,1,,,,,,,,,,,,,,,,,,,,,,,,,,,,,,,,,,,,,,,,,,,,,,
261882,001,2022-11-20_16h57.19.756,Info_measure_main_exp,2022.2.2,Win32,60.27727547,,,,,,,,,,,,,,,,,,masks/mask_005.jpg,,,,,,,,,,,,,,,,,,,,,,,,,,,,,,,,,,,,,,,,,,,,,,,,0,0,0,4,1,,,,,,,,,,,,,,,,,,,,,,,,,,,,,,,,,,,,,,,,,
261882,001,2022-11-20_16h57.19.756,Info_measure_main_exp,2022.2.2,Win32,60.27727547,,,,,,,,,,,,,,,,,,masks/mask_001.jpg,,,,,,,,,,,,,,,,,,,,,,,,,,,,,,,,,,,,,,,,,,,,,,,,0,1,1,0,1,,,,,,,,,,,,,,,,,,,,,,,,,,,,,,,,,,,,,,,,,
261882,001,2022-11-20_16h57.19.756,Info_measure_main_exp,2022.2.2,Win32,60.27727547,,,,,,,,,,,,,,,,,,masks/mask_003.jpg,,,,,,,,,,,,,,,,,,,,,,,,,,,,,,,,,,,,,,,,,,,,,,,,0,2,2,2,1,,,,,,,,,,,,,,,,,,,,,,,,,,,,,,,,,,,,,,,,,
261882,001,2022-11-20_16h57.19.756,Info_measure_main_exp,2022.2.2,Win32,60.27727547,,,,,,,,,,,,,,,,,,masks/mask_004.jpg,,,,,,,,,,,,,,,,,,,,,,,,,,,,,,,,,,,,,,,,,,,,,,,,0,3,3,3,1,,,,,,,,,,,,,,,,,,,,,,,,,,,,,,,,,,,,,,,,,
261882,001,2022-11-20_16h57.19.756,Info_measure_main_exp,2022.2.2,Win32,60.27727547,,,,,,,,,,,,,,,,,,masks/mask_002.jpg,,,,,,,,,,,,,,,,,,,,,,,,,,,,,,,,,,,,,,,,,,,,,,,,0,4,4,1,1,,,,,,,,,,,,,,,,,,,,,,,,,,,,,,,,,,,,,,,,,
261882,001,2022-11-20_16h57.19.756,Info_measure_main_exp,2022.2.2,Win32,60.27727547,,,,,,,,,,,,,,,,,,,,,,,,,,,,,,0,1.2304,1,,,,,,,,,,,,0,131,5,5,2154,2154,absent_patch/patch0002154.jpg,absent_patch/patch0002154.jpg,,,,,,,,,,,,,,,,,,,,-0.046296268,0.125,1,0,0,response7disk,18,-0.006481425,-0.010185199,1,0,0,center_square,0,17,17,89,1,,,,,,,,,,,,,,,,,,,,,,,
261882,001,2022-11-20_16h57.19.756,Info_measure_main_exp,2022.2.2,Win32,60.27727547,,,,,,,,,,,,,,,,,,masks/mask_005.jpg,,,,,,,,,,,,,,,,,,,,,,,,,,,,,,,,,,,,,,,,,,,0,0,0,4,1,,,,,,,,,,,,,,,,,,,,,,,,,,,,,,,,,,,,,,,,,,,,,,
261882,001,2022-11-20_16h57.19.756,Info_measure_main_exp,2022.2.2,Win32,60.27727547,,,,,,,,,,,,,,,,,,masks/mask_003.jpg,,,,,,,,,,,,,,,,,,,,,,,,,,,,,,,,,,,,,,,,,,,0,1,1,2,1,,,,,,,,,,,,,,,,,,,,,,,,,,,,,,,,,,,,,,,,,,,,,,
261882,001,2022-11-20_16h57.19.756,Info_measure_main_exp,2022.2.2,Win32,60.27727547,,,,,,,,,,,,,,,,,,masks/mask_004.jpg,,,,,,,,,,,,,,,,,,,,,,,,,,,,,,,,,,,,,,,,,,,0,2,2,3,1,,,,,,,,,,,,,,,,,,,,,,,,,,,,,,,,,,,,,,,,,,,,,,
261882,001,2022-11-20_16h57.19.756,Info_measure_main_exp,2022.2.2,Win32,60.27727547,,,,,,,,,,,,,,,,,,masks/mask_001.jpg,,,,,,,,,,,,,,,,,,,,,,,,,,,,,,,,,,,,,,,,,,,0,3,3,0,1,,,,,,,,,,,,,,,,,,,,,,,,,,,,,,,,,,,,,,,,,,,,,,
261882,001,2022-11-20_16h57.19.756,Info_measure_main_exp,2022.2.2,Win32,60.27727547,,,,,,,,,,,,,,,,,,masks/mask_002.jpg,,,,,,,,,,,,,,,,,,,,,,,,,,,,,,,,,,,,,,,,,,,0,4,4,1,1,,,,,,,,,,,,,,,,,,,,,,,,,,,,,,,,,,,,,,,,,,,,,,
261882,001,2022-11-20_16h57.19.756,Info_measure_main_exp,2022.2.2,Win32,60.27727547,,,,,,,,,,,,,,,,,,masks/mask_005.jpg,,,,,,,,,,,,,,,,,,,,,,,,,,,,,,,,,,,,,,,,,,,,,,,,0,0,0,4,1,,,,,,,,,,,,,,,,,,,,,,,,,,,,,,,,,,,,,,,,,
261882,001,2022-11-20_16h57.19.756,Info_measure_main_exp,2022.2.2,Win32,60.27727547,,,,,,,,,,,,,,,,,,masks/mask_004.jpg,,,,,,,,,,,,,,,,,,,,,,,,,,,,,,,,,,,,,,,,,,,,,,,,0,1,1,3,1,,,,,,,,,,,,,,,,,,,,,,,,,,,,,,,,,,,,,,,,,
261882,001,2022-11-20_16h57.19.756,Info_measure_main_exp,2022.2.2,Win32,60.27727547,,,,,,,,,,,,,,,,,,masks/mask_003.jpg,,,,,,,,,,,,,,,,,,,,,,,,,,,,,,,,,,,,,,,,,,,,,,,,0,2,2,2,1,,,,,,,,,,,,,,,,,,,,,,,,,,,,,,,,,,,,,,,,,
261882,001,2022-11-20_16h57.19.756,Info_measure_main_exp,2022.2.2,Win32,60.27727547,,,,,,,,,,,,,,,,,,masks/mask_001.jpg,,,,,,,,,,,,,,,,,,,,,,,,,,,,,,,,,,,,,,,,,,,,,,,,0,3,3,0,1,,,,,,,,,,,,,,,,,,,,,,,,,,,,,,,,,,,,,,,,,
261882,001,2022-11-20_16h57.19.756,Info_measure_main_exp,2022.2.2,Win32,60.27727547,,,,,,,,,,,,,,,,,,masks/mask_002.jpg,,,,,,,,,,,,,,,,,,,,,,,,,,,,,,,,,,,,,,,,,,,,,,,,0,4,4,1,1,,,,,,,,,,,,,,,,,,,,,,,,,,,,,,,,,,,,,,,,,
261882,001,2022-11-20_16h57.19.756,Info_measure_main_exp,2022.2.2,Win32,60.27727547,,,,,,,,,,,,,,,,,,,,,,,,,,,,,,7,1.2305,1,,,,,,,,,,,,0,131,5,5,2274,1974,absent_patch/patch0002274.jpg,absent_patch/patch0001974.jpg,,,,,,,,,,,,,,,,,,,,0.053703732,0.104629601,1,0,0,response1disk,19,-0.001851824,-0.008333333,1,0,0,center_square,0,18,18,90,1,,,,,,,,,,,,,,,,,,,,,,,
261882,001,2022-11-20_16h57.19.756,Info_measure_main_exp,2022.2.2,Win32,60.27727547,,,,,,,,,,,,,,,,,,masks/mask_005.jpg,,,,,,,,,,,,,,,,,,,,,,,,,,,,,,,,,,,,,,,,,,,0,0,0,4,1,,,,,,,,,,,,,,,,,,,,,,,,,,,,,,,,,,,,,,,,,,,,,,
261882,001,2022-11-20_16h57.19.756,Info_measure_main_exp,2022.2.2,Win32,60.27727547,,,,,,,,,,,,,,,,,,masks/mask_004.jpg,,,,,,,,,,,,,,,,,,,,,,,,,,,,,,,,,,,,,,,,,,,0,1,1,3,1,,,,,,,,,,,,,,,,,,,,,,,,,,,,,,,,,,,,,,,,,,,,,,
261882,001,2022-11-20_16h57.19.756,Info_measure_main_exp,2022.2.2,Win32,60.27727547,,,,,,,,,,,,,,,,,,masks/mask_003.jpg,,,,,,,,,,,,,,,,,,,,,,,,,,,,,,,,,,,,,,,,,,,0,2,2,2,1,,,,,,,,,,,,,,,,,,,,,,,,,,,,,,,,,,,,,,,,,,,,,,
261882,001,2022-11-20_16h57.19.756,Info_measure_main_exp,2022.2.2,Win32,60.27727547,,,,,,,,,,,,,,,,,,masks/mask_002.jpg,,,,,,,,,,,,,,,,,,,,,,,,,,,,,,,,,,,,,,,,,,,0,3,3,1,1,,,,,,,,,,,,,,,,,,,,,,,,,,,,,,,,,,,,,,,,,,,,,,
261882,001,2022-11-20_16h57.19.756,Info_measure_main_exp,2022.2.2,Win32,60.27727547,,,,,,,,,,,,,,,,,,masks/mask_001.jpg,,,,,,,,,,,,,,,,,,,,,,,,,,,,,,,,,,,,,,,,,,,0,4,4,0,1,,,,,,,,,,,,,,,,,,,,,,,,,,,,,,,,,,,,,,,,,,,,,,
261882,001,2022-11-20_16h57.19.756,Info_measure_main_exp,2022.2.2,Win32,60.27727547,,,,,,,,,,,,,,,,,,masks/mask_005.jpg,,,,,,,,,,,,,,,,,,,,,,,,,,,,,,,,,,,,,,,,,,,,,,,,0,0,0,4,1,,,,,,,,,,,,,,,,,,,,,,,,,,,,,,,,,,,,,,,,,
261882,001,2022-11-20_16h57.19.756,Info_measure_main_exp,2022.2.2,Win32,60.27727547,,,,,,,,,,,,,,,,,,masks/mask_002.jpg,,,,,,,,,,,,,,,,,,,,,,,,,,,,,,,,,,,,,,,,,,,,,,,,0,1,1,1,1,,,,,,,,,,,,,,,,,,,,,,,,,,,,,,,,,,,,,,,,,
261882,001,2022-11-20_16h57.19.756,Info_measure_main_exp,2022.2.2,Win32,60.27727547,,,,,,,,,,,,,,,,,,masks/mask_003.jpg,,,,,,,,,,,,,,,,,,,,,,,,,,,,,,,,,,,,,,,,,,,,,,,,0,2,2,2,1,,,,,,,,,,,,,,,,,,,,,,,,,,,,,,,,,,,,,,,,,
261882,001,2022-11-20_16h57.19.756,Info_measure_main_exp,2022.2.2,Win32,60.27727547,,,,,,,,,,,,,,,,,,masks/mask_001.jpg,,,,,,,,,,,,,,,,,,,,,,,,,,,,,,,,,,,,,,,,,,,,,,,,0,3,3,0,1,,,,,,,,,,,,,,,,,,,,,,,,,,,,,,,,,,,,,,,,,
261882,001,2022-11-20_16h57.19.756,Info_measure_main_exp,2022.2.2,Win32,60.27727547,,,,,,,,,,,,,,,,,,masks/mask_004.jpg,,,,,,,,,,,,,,,,,,,,,,,,,,,,,,,,,,,,,,,,,,,,,,,,0,4,4,3,1,,,,,,,,,,,,,,,,,,,,,,,,,,,,,,,,,,,,,,,,,
261882,001,2022-11-20_16h57.19.756,Info_measure_main_exp,2022.2.2,Win32,60.27727547,,,,,,,,,,,,,,,,,,,,,,,,,,,,,,7,0.8816,1,,,,,,,,,,,,1,131,5,5,2190,1,absent_patch/patch0002190.jpg,present_patch/cong_131_5_a.jpg,,,,,,,,,,,,,,,,,,,,0.052777778,0.096296268,1,0,0,response1disk,20,-0.004629601,0.002777778,1,0,0,center_square,0,19,19,64,1,,,,,,,,,,,,,,,,,,,,,,,
261882,001,2022-11-20_16h57.19.756,Info_measure_main_exp,2022.2.2,Win32,60.27727547,,,,,,,,,,,,,,,,,,masks/mask_001.jpg,,,,,,,,,,,,,,,,,,,,,,,,,,,,,,,,,,,,,,,,,,,0,0,0,0,1,,,,,,,,,,,,,,,,,,,,,,,,,,,,,,,,,,,,,,,,,,,,,,
261882,001,2022-11-20_16h57.19.756,Info_measure_main_exp,2022.2.2,Win32,60.27727547,,,,,,,,,,,,,,,,,,masks/mask_003.jpg,,,,,,,,,,,,,,,,,,,,,,,,,,,,,,,,,,,,,,,,,,,0,1,1,2,1,,,,,,,,,,,,,,,,,,,,,,,,,,,,,,,,,,,,,,,,,,,,,,
261882,001,2022-11-20_16h57.19.756,Info_measure_main_exp,2022.2.2,Win32,60.27727547,,,,,,,,,,,,,,,,,,masks/mask_005.jpg,,,,,,,,,,,,,,,,,,,,,,,,,,,,,,,,,,,,,,,,,,,0,2,2,4,1,,,,,,,,,,,,,,,,,,,,,,,,,,,,,,,,,,,,,,,,,,,,,,
261882,001,2022-11-20_16h57.19.756,Info_measure_main_exp,2022.2.2,Win32,60.27727547,,,,,,,,,,,,,,,,,,masks/mask_002.jpg,,,,,,,,,,,,,,,,,,,,,,,,,,,,,,,,,,,,,,,,,,,0,3,3,1,1,,,,,,,,,,,,,,,,,,,,,,,,,,,,,,,,,,,,,,,,,,,,,,
261882,001,2022-11-20_16h57.19.756,Info_measure_main_exp,2022.2.2,Win32,60.27727547,,,,,,,,,,,,,,,,,,masks/mask_004.jpg,,,,,,,,,,,,,,,,,,,,,,,,,,,,,,,,,,,,,,,,,,,0,4,4,3,1,,,,,,,,,,,,,,,,,,,,,,,,,,,,,,,,,,,,,,,,,,,,,,
261882,001,2022-11-20_16h57.19.756,Info_measure_main_exp,2022.2.2,Win32,60.27727547,,,,,,,,,,,,,,,,,,masks/mask_003.jpg,,,,,,,,,,,,,,,,,,,,,,,,,,,,,,,,,,,,,,,,,,,,,,,,0,0,0,2,1,,,,,,,,,,,,,,,,,,,,,,,,,,,,,,,,,,,,,,,,,
261882,001,2022-11-20_16h57.19.756,Info_measure_main_exp,2022.2.2,Win32,60.27727547,,,,,,,,,,,,,,,,,,masks/mask_002.jpg,,,,,,,,,,,,,,,,,,,,,,,,,,,,,,,,,,,,,,,,,,,,,,,,0,1,1,1,1,,,,,,,,,,,,,,,,,,,,,,,,,,,,,,,,,,,,,,,,,
261882,001,2022-11-20_16h57.19.756,Info_measure_main_exp,2022.2.2,Win32,60.27727547,,,,,,,,,,,,,,,,,,masks/mask_004.jpg,,,,,,,,,,,,,,,,,,,,,,,,,,,,,,,,,,,,,,,,,,,,,,,,0,2,2,3,1,,,,,,,,,,,,,,,,,,,,,,,,,,,,,,,,,,,,,,,,,
261882,001,2022-11-20_16h57.19.756,Info_measure_main_exp,2022.2.2,Win32,60.27727547,,,,,,,,,,,,,,,,,,masks/mask_001.jpg,,,,,,,,,,,,,,,,,,,,,,,,,,,,,,,,,,,,,,,,,,,,,,,,0,3,3,0,1,,,,,,,,,,,,,,,,,,,,,,,,,,,,,,,,,,,,,,,,,
261882,001,2022-11-20_16h57.19.756,Info_measure_main_exp,2022.2.2,Win32,60.27727547,,,,,,,,,,,,,,,,,,masks/mask_005.jpg,,,,,,,,,,,,,,,,,,,,,,,,,,,,,,,,,,,,,,,,,,,,,,,,0,4,4,4,1,,,,,,,,,,,,,,,,,,,,,,,,,,,,,,,,,,,,,,,,,
261882,001,2022-11-20_16h57.19.756,Info_measure_main_exp,2022.2.2,Win32,60.27727547,,,,,,,,,,,,,,,,,,,,,,,,,,,,,,6,1.042,1,,,,,,,,,,,,1,131,5,5,2238,1,absent_patch/patch0002238.jpg,present_patch/cong_131_5_a.jpg,,,,,,,,,,,,,,,,,,,,0.123148176,0.014814801,1,0,0,response1disk,21,-0.002777778,0.001851824,1,0,0,center_square,0,20,20,104,1,,,,,,,,,,,,,,,,,,,,,,,
261882,001,2022-11-20_16h57.19.756,Info_measure_main_exp,2022.2.2,Win32,60.27727547,,,,,,,,,,,,,,,,,,masks/mask_001.jpg,,,,,,,,,,,,,,,,,,,,,,,,,,,,,,,,,,,,,,,,,,,0,0,0,0,1,,,,,,,,,,,,,,,,,,,,,,,,,,,,,,,,,,,,,,,,,,,,,,
261882,001,2022-11-20_16h57.19.756,Info_measure_main_exp,2022.2.2,Win32,60.27727547,,,,,,,,,,,,,,,,,,masks/mask_002.jpg,,,,,,,,,,,,,,,,,,,,,,,,,,,,,,,,,,,,,,,,,,,0,1,1,1,1,,,,,,,,,,,,,,,,,,,,,,,,,,,,,,,,,,,,,,,,,,,,,,
261882,001,2022-11-20_16h57.19.756,Info_measure_main_exp,2022.2.2,Win32,60.27727547,,,,,,,,,,,,,,,,,,masks/mask_005.jpg,,,,,,,,,,,,,,,,,,,,,,,,,,,,,,,,,,,,,,,,,,,0,2,2,4,1,,,,,,,,,,,,,,,,,,,,,,,,,,,,,,,,,,,,,,,,,,,,,,
261882,001,2022-11-20_16h57.19.756,Info_measure_main_exp,2022.2.2,Win32,60.27727547,,,,,,,,,,,,,,,,,,masks/mask_004.jpg,,,,,,,,,,,,,,,,,,,,,,,,,,,,,,,,,,,,,,,,,,,0,3,3,3,1,,,,,,,,,,,,,,,,,,,,,,,,,,,,,,,,,,,,,,,,,,,,,,
261882,001,2022-11-20_16h57.19.756,Info_measure_main_exp,2022.2.2,Win32,60.27727547,,,,,,,,,,,,,,,,,,masks/mask_003.jpg,,,,,,,,,,,,,,,,,,,,,,,,,,,,,,,,,,,,,,,,,,,0,4,4,2,1,,,,,,,,,,,,,,,,,,,,,,,,,,,,,,,,,,,,,,,,,,,,,,
261882,001,2022-11-20_16h57.19.756,Info_measure_main_exp,2022.2.2,Win32,60.27727547,,,,,,,,,,,,,,,,,,masks/mask_003.jpg,,,,,,,,,,,,,,,,,,,,,,,,,,,,,,,,,,,,,,,,,,,,,,,,0,0,0,2,1,,,,,,,,,,,,,,,,,,,,,,,,,,,,,,,,,,,,,,,,,
261882,001,2022-11-20_16h57.19.756,Info_measure_main_exp,2022.2.2,Win32,60.27727547,,,,,,,,,,,,,,,,,,masks/mask_004.jpg,,,,,,,,,,,,,,,,,,,,,,,,,,,,,,,,,,,,,,,,,,,,,,,,0,1,1,3,1,,,,,,,,,,,,,,,,,,,,,,,,,,,,,,,,,,,,,,,,,
261882,001,2022-11-20_16h57.19.756,Info_measure_main_exp,2022.2.2,Win32,60.27727547,,,,,,,,,,,,,,,,,,masks/mask_005.jpg,,,,,,,,,,,,,,,,,,,,,,,,,,,,,,,,,,,,,,,,,,,,,,,,0,2,2,4,1,,,,,,,,,,,,,,,,,,,,,,,,,,,,,,,,,,,,,,,,,
261882,001,2022-11-20_16h57.19.756,Info_measure_main_exp,2022.2.2,Win32,60.27727547,,,,,,,,,,,,,,,,,,masks/mask_001.jpg,,,,,,,,,,,,,,,,,,,,,,,,,,,,,,,,,,,,,,,,,,,,,,,,0,3,3,0,1,,,,,,,,,,,,,,,,,,,,,,,,,,,,,,,,,,,,,,,,,
261882,001,2022-11-20_16h57.19.756,Info_measure_main_exp,2022.2.2,Win32,60.27727547,,,,,,,,,,,,,,,,,,masks/mask_002.jpg,,,,,,,,,,,,,,,,,,,,,,,,,,,,,,,,,,,,,,,,,,,,,,,,0,4,4,1,1,,,,,,,,,,,,,,,,,,,,,,,,,,,,,,,,,,,,,,,,,
261882,001,2022-11-20_16h57.19.756,Info_measure_main_exp,2022.2.2,Win32,60.27727547,,,,,,,,,,,,,,,,,,,,,,,,,,,,,,3,1.6904,1,,,,,,,,,,,,0,131,5,5,2274,2142,absent_patch/patch0002274.jpg,absent_patch/patch0002142.jpg,,,,,,,,,,,,,,,,,,,,-0.008333333,-0.090740755,1,0,0,response5disk,22,0.009259288,0.005555556,1,0,0,center_square,0,21,21,75,1,,,,,,,,,,,,,,,,,,,,,,,
261882,001,2022-11-20_16h57.19.756,Info_measure_main_exp,2022.2.2,Win32,60.27727547,,,,,,,,,,,,,,,,,,masks/mask_003.jpg,,,,,,,,,,,,,,,,,,,,,,,,,,,,,,,,,,,,,,,,,,,0,0,0,2,1,,,,,,,,,,,,,,,,,,,,,,,,,,,,,,,,,,,,,,,,,,,,,,
261882,001,2022-11-20_16h57.19.756,Info_measure_main_exp,2022.2.2,Win32,60.27727547,,,,,,,,,,,,,,,,,,masks/mask_001.jpg,,,,,,,,,,,,,,,,,,,,,,,,,,,,,,,,,,,,,,,,,,,0,1,1,0,1,,,,,,,,,,,,,,,,,,,,,,,,,,,,,,,,,,,,,,,,,,,,,,
261882,001,2022-11-20_16h57.19.756,Info_measure_main_exp,2022.2.2,Win32,60.27727547,,,,,,,,,,,,,,,,,,masks/mask_004.jpg,,,,,,,,,,,,,,,,,,,,,,,,,,,,,,,,,,,,,,,,,,,0,2,2,3,1,,,,,,,,,,,,,,,,,,,,,,,,,,,,,,,,,,,,,,,,,,,,,,
261882,001,2022-11-20_16h57.19.756,Info_measure_main_exp,2022.2.2,Win32,60.27727547,,,,,,,,,,,,,,,,,,masks/mask_005.jpg,,,,,,,,,,,,,,,,,,,,,,,,,,,,,,,,,,,,,,,,,,,0,3,3,4,1,,,,,,,,,,,,,,,,,,,,,,,,,,,,,,,,,,,,,,,,,,,,,,
261882,001,2022-11-20_16h57.19.756,Info_measure_main_exp,2022.2.2,Win32,60.27727547,,,,,,,,,,,,,,,,,,masks/mask_002.jpg,,,,,,,,,,,,,,,,,,,,,,,,,,,,,,,,,,,,,,,,,,,0,4,4,1,1,,,,,,,,,,,,,,,,,,,,,,,,,,,,,,,,,,,,,,,,,,,,,,
261882,001,2022-11-20_16h57.19.756,Info_measure_main_exp,2022.2.2,Win32,60.27727547,,,,,,,,,,,,,,,,,,masks/mask_003.jpg,,,,,,,,,,,,,,,,,,,,,,,,,,,,,,,,,,,,,,,,,,,,,,,,0,0,0,2,1,,,,,,,,,,,,,,,,,,,,,,,,,,,,,,,,,,,,,,,,,
261882,001,2022-11-20_16h57.19.756,Info_measure_main_exp,2022.2.2,Win32,60.27727547,,,,,,,,,,,,,,,,,,masks/mask_004.jpg,,,,,,,,,,,,,,,,,,,,,,,,,,,,,,,,,,,,,,,,,,,,,,,,0,1,1,3,1,,,,,,,,,,,,,,,,,,,,,,,,,,,,,,,,,,,,,,,,,
261882,001,2022-11-20_16h57.19.756,Info_measure_main_exp,2022.2.2,Win32,60.27727547,,,,,,,,,,,,,,,,,,masks/mask_005.jpg,,,,,,,,,,,,,,,,,,,,,,,,,,,,,,,,,,,,,,,,,,,,,,,,0,2,2,4,1,,,,,,,,,,,,,,,,,,,,,,,,,,,,,,,,,,,,,,,,,
261882,001,2022-11-20_16h57.19.756,Info_measure_main_exp,2022.2.2,Win32,60.27727547,,,,,,,,,,,,,,,,,,masks/mask_001.jpg,,,,,,,,,,,,,,,,,,,,,,,,,,,,,,,,,,,,,,,,,,,,,,,,0,3,3,0,1,,,,,,,,,,,,,,,,,,,,,,,,,,,,,,,,,,,,,,,,,
261882,001,2022-11-20_16h57.19.756,Info_measure_main_exp,2022.2.2,Win32,60.27727547,,,,,,,,,,,,,,,,,,masks/mask_002.jpg,,,,,,,,,,,,,,,,,,,,,,,,,,,,,,,,,,,,,,,,,,,,,,,,0,4,4,1,1,,,,,,,,,,,,,,,,,,,,,,,,,,,,,,,,,,,,,,,,,
261882,001,2022-11-20_16h57.19.756,Info_measure_main_exp,2022.2.2,Win32,60.27727547,,,,,,,,,,,,,,,,,,,,,,,,,,,,,,7,1.3746,1,,,,,,,,,,,,0,131,5,5,2166,1986,absent_patch/patch0002166.jpg,absent_patch/patch0001986.jpg,,,,,,,,,,,,,,,,,,,,0.032407464,0.097222222,1,0,0,response1disk,23,-0.002777778,-0.001851866,1,0,0,center_square,0,22,22,47,1,,,,,,,,,,,,,,,,,,,,,,,
261882,001,2022-11-20_16h57.19.756,Info_measure_main_exp,2022.2.2,Win32,60.27727547,,,,,,,,,,,,,,,,,,masks/mask_002.jpg,,,,,,,,,,,,,,,,,,,,,,,,,,,,,,,,,,,,,,,,,,,0,0,0,1,1,,,,,,,,,,,,,,,,,,,,,,,,,,,,,,,,,,,,,,,,,,,,,,
261882,001,2022-11-20_16h57.19.756,Info_measure_main_exp,2022.2.2,Win32,60.27727547,,,,,,,,,,,,,,,,,,masks/mask_003.jpg,,,,,,,,,,,,,,,,,,,,,,,,,,,,,,,,,,,,,,,,,,,0,1,1,2,1,,,,,,,,,,,,,,,,,,,,,,,,,,,,,,,,,,,,,,,,,,,,,,
261882,001,2022-11-20_16h57.19.756,Info_measure_main_exp,2022.2.2,Win32,60.27727547,,,,,,,,,,,,,,,,,,masks/mask_004.jpg,,,,,,,,,,,,,,,,,,,,,,,,,,,,,,,,,,,,,,,,,,,0,2,2,3,1,,,,,,,,,,,,,,,,,,,,,,,,,,,,,,,,,,,,,,,,,,,,,,
261882,001,2022-11-20_16h57.19.756,Info_measure_main_exp,2022.2.2,Win32,60.27727547,,,,,,,,,,,,,,,,,,masks/mask_005.jpg,,,,,,,,,,,,,,,,,,,,,,,,,,,,,,,,,,,,,,,,,,,0,3,3,4,1,,,,,,,,,,,,,,,,,,,,,,,,,,,,,,,,,,,,,,,,,,,,,,
261882,001,2022-11-20_16h57.19.756,Info_measure_main_exp,2022.2.2,Win32,60.27727547,,,,,,,,,,,,,,,,,,masks/mask_001.jpg,,,,,,,,,,,,,,,,,,,,,,,,,,,,,,,,,,,,,,,,,,,0,4,4,0,1,,,,,,,,,,,,,,,,,,,,,,,,,,,,,,,,,,,,,,,,,,,,,,
261882,001,2022-11-20_16h57.19.756,Info_measure_main_exp,2022.2.2,Win32,60.27727547,,,,,,,,,,,,,,,,,,masks/mask_002.jpg,,,,,,,,,,,,,,,,,,,,,,,,,,,,,,,,,,,,,,,,,,,,,,,,0,0,0,1,1,,,,,,,,,,,,,,,,,,,,,,,,,,,,,,,,,,,,,,,,,
261882,001,2022-11-20_16h57.19.756,Info_measure_main_exp,2022.2.2,Win32,60.27727547,,,,,,,,,,,,,,,,,,masks/mask_003.jpg,,,,,,,,,,,,,,,,,,,,,,,,,,,,,,,,,,,,,,,,,,,,,,,,0,1,1,2,1,,,,,,,,,,,,,,,,,,,,,,,,,,,,,,,,,,,,,,,,,
261882,001,2022-11-20_16h57.19.756,Info_measure_main_exp,2022.2.2,Win32,60.27727547,,,,,,,,,,,,,,,,,,masks/mask_005.jpg,,,,,,,,,,,,,,,,,,,,,,,,,,,,,,,,,,,,,,,,,,,,,,,,0,2,2,4,1,,,,,,,,,,,,,,,,,,,,,,,,,,,,,,,,,,,,,,,,,
261882,001,2022-11-20_16h57.19.756,Info_measure_main_exp,2022.2.2,Win32,60.27727547,,,,,,,,,,,,,,,,,,masks/mask_004.jpg,,,,,,,,,,,,,,,,,,,,,,,,,,,,,,,,,,,,,,,,,,,,,,,,0,3,3,3,1,,,,,,,,,,,,,,,,,,,,,,,,,,,,,,,,,,,,,,,,,
261882,001,2022-11-20_16h57.19.756,Info_measure_main_exp,2022.2.2,Win32,60.27727547,,,,,,,,,,,,,,,,,,masks/mask_001.jpg,,,,,,,,,,,,,,,,,,,,,,,,,,,,,,,,,,,,,,,,,,,,,,,,0,4,4,0,1,,,,,,,,,,,,,,,,,,,,,,,,,,,,,,,,,,,,,,,,,
261882,001,2022-11-20_16h57.19.756,Info_measure_main_exp,2022.2.2,Win32,60.27727547,,,,,,,,,,,,,,,,,,,,,,,,,,,,,,6,1.281,1,,,,,,,,,,,,1,131,5,5,1,2142,present_patch/cong_131_5_a.jpg,absent_patch/patch0002142.jpg,,,,,,,,,,,,,,,,,,,,0.096296353,0.044444444,1,0,0,response1disk,24,0.002777778,0.001851824,1,0,0,center_square,0,23,23,80,1,,,,,,,,,,,,,,,,,,,,,,,
261882,001,2022-11-20_16h57.19.756,Info_measure_main_exp,2022.2.2,Win32,60.27727547,,,,,,,,,,,,,,,,,,masks/mask_002.jpg,,,,,,,,,,,,,,,,,,,,,,,,,,,,,,,,,,,,,,,,,,,0,0,0,1,1,,,,,,,,,,,,,,,,,,,,,,,,,,,,,,,,,,,,,,,,,,,,,,
261882,001,2022-11-20_16h57.19.756,Info_measure_main_exp,2022.2.2,Win32,60.27727547,,,,,,,,,,,,,,,,,,masks/mask_005.jpg,,,,,,,,,,,,,,,,,,,,,,,,,,,,,,,,,,,,,,,,,,,0,1,1,4,1,,,,,,,,,,,,,,,,,,,,,,,,,,,,,,,,,,,,,,,,,,,,,,
261882,001,2022-11-20_16h57.19.756,Info_measure_main_exp,2022.2.2,Win32,60.27727547,,,,,,,,,,,,,,,,,,masks/mask_004.jpg,,,,,,,,,,,,,,,,,,,,,,,,,,,,,,,,,,,,,,,,,,,0,2,2,3,1,,,,,,,,,,,,,,,,,,,,,,,,,,,,,,,,,,,,,,,,,,,,,,
261882,001,2022-11-20_16h57.19.756,Info_measure_main_exp,2022.2.2,Win32,60.27727547,,,,,,,,,,,,,,,,,,masks/mask_003.jpg,,,,,,,,,,,,,,,,,,,,,,,,,,,,,,,,,,,,,,,,,,,0,3,3,2,1,,,,,,,,,,,,,,,,,,,,,,,,,,,,,,,,,,,,,,,,,,,,,,
261882,001,2022-11-20_16h57.19.756,Info_measure_main_exp,2022.2.2,Win32,60.27727547,,,,,,,,,,,,,,,,,,masks/mask_001.jpg,,,,,,,,,,,,,,,,,,,,,,,,,,,,,,,,,,,,,,,,,,,0,4,4,0,1,,,,,,,,,,,,,,,,,,,,,,,,,,,,,,,,,,,,,,,,,,,,,,
261882,001,2022-11-20_16h57.19.756,Info_measure_main_exp,2022.2.2,Win32,60.27727547,,,,,,,,,,,,,,,,,,masks/mask_002.jpg,,,,,,,,,,,,,,,,,,,,,,,,,,,,,,,,,,,,,,,,,,,,,,,,0,0,0,1,1,,,,,,,,,,,,,,,,,,,,,,,,,,,,,,,,,,,,,,,,,
261882,001,2022-11-20_16h57.19.756,Info_measure_main_exp,2022.2.2,Win32,60.27727547,,,,,,,,,,,,,,,,,,masks/mask_005.jpg,,,,,,,,,,,,,,,,,,,,,,,,,,,,,,,,,,,,,,,,,,,,,,,,0,1,1,4,1,,,,,,,,,,,,,,,,,,,,,,,,,,,,,,,,,,,,,,,,,
261882,001,2022-11-20_16h57.19.756,Info_measure_main_exp,2022.2.2,Win32,60.27727547,,,,,,,,,,,,,,,,,,masks/mask_004.jpg,,,,,,,,,,,,,,,,,,,,,,,,,,,,,,,,,,,,,,,,,,,,,,,,0,2,2,3,1,,,,,,,,,,,,,,,,,,,,,,,,,,,,,,,,,,,,,,,,,
261882,001,2022-11-20_16h57.19.756,Info_measure_main_exp,2022.2.2,Win32,60.27727547,,,,,,,,,,,,,,,,,,masks/mask_003.jpg,,,,,,,,,,,,,,,,,,,,,,,,,,,,,,,,,,,,,,,,,,,,,,,,0,3,3,2,1,,,,,,,,,,,,,,,,,,,,,,,,,,,,,,,,,,,,,,,,,
261882,001,2022-11-20_16h57.19.756,Info_measure_main_exp,2022.2.2,Win32,60.27727547,,,,,,,,,,,,,,,,,,masks/mask_001.jpg,,,,,,,,,,,,,,,,,,,,,,,,,,,,,,,,,,,,,,,,,,,,,,,,0,4,4,0,1,,,,,,,,,,,,,,,,,,,,,,,,,,,,,,,,,,,,,,,,,
261882,001,2022-11-20_16h57.19.756,Info_measure_main_exp,2022.2.2,Win32,60.27727547,,,,,,,,,,,,,,,,,,,,,,,,,,,,,,3,3.0465,1,,,,,,,,,,,,0,131,5,5,1950,2142,absent_patch/patch0001950.jpg,absent_patch/patch0002142.jpg,,,,,,,,,,,,,,,,,,,,-0.020370314,-0.107407422,1,0,0,response5disk,25,0.012963019,0.006481467,1,0,0,center_square,0,24,24,83,1,,,,,,,,,,,,,,,,,,,,,,,
261882,001,2022-11-20_16h57.19.756,Info_measure_main_exp,2022.2.2,Win32,60.27727547,,,,,,,,,,,,,,,,,,masks/mask_002.jpg,,,,,,,,,,,,,,,,,,,,,,,,,,,,,,,,,,,,,,,,,,,0,0,0,1,1,,,,,,,,,,,,,,,,,,,,,,,,,,,,,,,,,,,,,,,,,,,,,,
261882,001,2022-11-20_16h57.19.756,Info_measure_main_exp,2022.2.2,Win32,60.27727547,,,,,,,,,,,,,,,,,,masks/mask_005.jpg,,,,,,,,,,,,,,,,,,,,,,,,,,,,,,,,,,,,,,,,,,,0,1,1,4,1,,,,,,,,,,,,,,,,,,,,,,,,,,,,,,,,,,,,,,,,,,,,,,
261882,001,2022-11-20_16h57.19.756,Info_measure_main_exp,2022.2.2,Win32,60.27727547,,,,,,,,,,,,,,,,,,masks/mask_001.jpg,,,,,,,,,,,,,,,,,,,,,,,,,,,,,,,,,,,,,,,,,,,0,2,2,0,1,,,,,,,,,,,,,,,,,,,,,,,,,,,,,,,,,,,,,,,,,,,,,,
261882,001,2022-11-20_16h57.19.756,Info_measure_main_exp,2022.2.2,Win32,60.27727547,,,,,,,,,,,,,,,,,,masks/mask_003.jpg,,,,,,,,,,,,,,,,,,,,,,,,,,,,,,,,,,,,,,,,,,,0,3,3,2,1,,,,,,,,,,,,,,,,,,,,,,,,,,,,,,,,,,,,,,,,,,,,,,
261882,001,2022-11-20_16h57.19.756,Info_measure_main_exp,2022.2.2,Win32,60.27727547,,,,,,,,,,,,,,,,,,masks/mask_004.jpg,,,,,,,,,,,,,,,,,,,,,,,,,,,,,,,,,,,,,,,,,,,0,4,4,3,1,,,,,,,,,,,,,,,,,,,,,,,,,,,,,,,,,,,,,,,,,,,,,,
261882,001,2022-11-20_16h57.19.756,Info_measure_main_exp,2022.2.2,Win32,60.27727547,,,,,,,,,,,,,,,,,,masks/mask_001.jpg,,,,,,,,,,,,,,,,,,,,,,,,,,,,,,,,,,,,,,,,,,,,,,,,0,0,0,0,1,,,,,,,,,,,,,,,,,,,,,,,,,,,,,,,,,,,,,,,,,
261882,001,2022-11-20_16h57.19.756,Info_measure_main_exp,2022.2.2,Win32,60.27727547,,,,,,,,,,,,,,,,,,masks/mask_004.jpg,,,,,,,,,,,,,,,,,,,,,,,,,,,,,,,,,,,,,,,,,,,,,,,,0,1,1,3,1,,,,,,,,,,,,,,,,,,,,,,,,,,,,,,,,,,,,,,,,,
261882,001,2022-11-20_16h57.19.756,Info_measure_main_exp,2022.2.2,Win32,60.27727547,,,,,,,,,,,,,,,,,,masks/mask_005.jpg,,,,,,,,,,,,,,,,,,,,,,,,,,,,,,,,,,,,,,,,,,,,,,,,0,2,2,4,1,,,,,,,,,,,,,,,,,,,,,,,,,,,,,,,,,,,,,,,,,
261882,001,2022-11-20_16h57.19.756,Info_measure_main_exp,2022.2.2,Win32,60.27727547,,,,,,,,,,,,,,,,,,masks/mask_002.jpg,,,,,,,,,,,,,,,,,,,,,,,,,,,,,,,,,,,,,,,,,,,,,,,,0,3,3,1,1,,,,,,,,,,,,,,,,,,,,,,,,,,,,,,,,,,,,,,,,,
261882,001,2022-11-20_16h57.19.756,Info_measure_main_exp,2022.2.2,Win32,60.27727547,,,,,,,,,,,,,,,,,,masks/mask_003.jpg,,,,,,,,,,,,,,,,,,,,,,,,,,,,,,,,,,,,,,,,,,,,,,,,0,4,4,2,1,,,,,,,,,,,,,,,,,,,,,,,,,,,,,,,,,,,,,,,,,
261882,001,2022-11-20_16h57.19.756,Info_measure_main_exp,2022.2.2,Win32,60.27727547,,,,,,,,,,,,,,,,,,,,,,,,,,,,,,7,0.9526,1,,,,,,,,,,,,0,131,5,5,2154,2190,absent_patch/patch0002154.jpg,absent_patch/patch0002190.jpg,,,,,,,,,,,,,,,,,,,,0.045370399,0.098148134,1,0,0,response1disk,26,0,-0.000925954,1,0,0,center_square,0,25,25,68,1,,,,,,,,,,,,,,,,,,,,,,,
261882,001,2022-11-20_16h57.19.756,Info_measure_main_exp,2022.2.2,Win32,60.27727547,,,,,,,,,,,,,,,,,,masks/mask_003.jpg,,,,,,,,,,,,,,,,,,,,,,,,,,,,,,,,,,,,,,,,,,,0,0,0,2,1,,,,,,,,,,,,,,,,,,,,,,,,,,,,,,,,,,,,,,,,,,,,,,
261882,001,2022-11-20_16h57.19.756,Info_measure_main_exp,2022.2.2,Win32,60.27727547,,,,,,,,,,,,,,,,,,masks/mask_004.jpg,,,,,,,,,,,,,,,,,,,,,,,,,,,,,,,,,,,,,,,,,,,0,1,1,3,1,,,,,,,,,,,,,,,,,,,,,,,,,,,,,,,,,,,,,,,,,,,,,,
261882,001,2022-11-20_16h57.19.756,Info_measure_main_exp,2022.2.2,Win32,60.27727547,,,,,,,,,,,,,,,,,,masks/mask_001.jpg,,,,,,,,,,,,,,,,,,,,,,,,,,,,,,,,,,,,,,,,,,,0,2,2,0,1,,,,,,,,,,,,,,,,,,,,,,,,,,,,,,,,,,,,,,,,,,,,,,
261882,001,2022-11-20_16h57.19.756,Info_measure_main_exp,2022.2.2,Win32,60.27727547,,,,,,,,,,,,,,,,,,masks/mask_002.jpg,,,,,,,,,,,,,,,,,,,,,,,,,,,,,,,,,,,,,,,,,,,0,3,3,1,1,,,,,,,,,,,,,,,,,,,,,,,,,,,,,,,,,,,,,,,,,,,,,,
261882,001,2022-11-20_16h57.19.756,Info_measure_main_exp,2022.2.2,Win32,60.27727547,,,,,,,,,,,,,,,,,,masks/mask_005.jpg,,,,,,,,,,,,,,,,,,,,,,,,,,,,,,,,,,,,,,,,,,,0,4,4,4,1,,,,,,,,,,,,,,,,,,,,,,,,,,,,,,,,,,,,,,,,,,,,,,
261882,001,2022-11-20_16h57.19.756,Info_measure_main_exp,2022.2.2,Win32,60.27727547,,,,,,,,,,,,,,,,,,masks/mask_004.jpg,,,,,,,,,,,,,,,,,,,,,,,,,,,,,,,,,,,,,,,,,,,,,,,,0,0,0,3,1,,,,,,,,,,,,,,,,,,,,,,,,,,,,,,,,,,,,,,,,,
261882,001,2022-11-20_16h57.19.756,Info_measure_main_exp,2022.2.2,Win32,60.27727547,,,,,,,,,,,,,,,,,,masks/mask_001.jpg,,,,,,,,,,,,,,,,,,,,,,,,,,,,,,,,,,,,,,,,,,,,,,,,0,1,1,0,1,,,,,,,,,,,,,,,,,,,,,,,,,,,,,,,,,,,,,,,,,
261882,001,2022-11-20_16h57.19.756,Info_measure_main_exp,2022.2.2,Win32,60.27727547,,,,,,,,,,,,,,,,,,masks/mask_005.jpg,,,,,,,,,,,,,,,,,,,,,,,,,,,,,,,,,,,,,,,,,,,,,,,,0,2,2,4,1,,,,,,,,,,,,,,,,,,,,,,,,,,,,,,,,,,,,,,,,,
261882,001,2022-11-20_16h57.19.756,Info_measure_main_exp,2022.2.2,Win32,60.27727547,,,,,,,,,,,,,,,,,,masks/mask_003.jpg,,,,,,,,,,,,,,,,,,,,,,,,,,,,,,,,,,,,,,,,,,,,,,,,0,3,3,2,1,,,,,,,,,,,,,,,,,,,,,,,,,,,,,,,,,,,,,,,,,
261882,001,2022-11-20_16h57.19.756,Info_measure_main_exp,2022.2.2,Win32,60.27727547,,,,,,,,,,,,,,,,,,masks/mask_002.jpg,,,,,,,,,,,,,,,,,,,,,,,,,,,,,,,,,,,,,,,,,,,,,,,,0,4,4,1,1,,,,,,,,,,,,,,,,,,,,,,,,,,,,,,,,,,,,,,,,,
261882,001,2022-11-20_16h57.19.756,Info_measure_main_exp,2022.2.2,Win32,60.27727547,,,,,,,,,,,,,,,,,,,,,,,,,,,,,,7,2.132,1,,,,,,,,,,,,0,131,5,5,2298,2178,absent_patch/patch0002298.jpg,absent_patch/patch0002178.jpg,,,,,,,,,,,,,,,,,,,,0.029629686,0.062037023,1,0,0,response1disk,27,0.011111111,0.010185157,1,0,0,center_square,0,26,26,84,1,,,,,,,,,,,,,,,,,,,,,,,
261882,001,2022-11-20_16h57.19.756,Info_measure_main_exp,2022.2.2,Win32,60.27727547,,,,,,,,,,,,,,,,,,masks/mask_003.jpg,,,,,,,,,,,,,,,,,,,,,,,,,,,,,,,,,,,,,,,,,,,0,0,0,2,1,,,,,,,,,,,,,,,,,,,,,,,,,,,,,,,,,,,,,,,,,,,,,,
261882,001,2022-11-20_16h57.19.756,Info_measure_main_exp,2022.2.2,Win32,60.27727547,,,,,,,,,,,,,,,,,,masks/mask_004.jpg,,,,,,,,,,,,,,,,,,,,,,,,,,,,,,,,,,,,,,,,,,,0,1,1,3,1,,,,,,,,,,,,,,,,,,,,,,,,,,,,,,,,,,,,,,,,,,,,,,
261882,001,2022-11-20_16h57.19.756,Info_measure_main_exp,2022.2.2,Win32,60.27727547,,,,,,,,,,,,,,,,,,masks/mask_005.jpg,,,,,,,,,,,,,,,,,,,,,,,,,,,,,,,,,,,,,,,,,,,0,2,2,4,1,,,,,,,,,,,,,,,,,,,,,,,,,,,,,,,,,,,,,,,,,,,,,,
261882,001,2022-11-20_16h57.19.756,Info_measure_main_exp,2022.2.2,Win32,60.27727547,,,,,,,,,,,,,,,,,,masks/mask_002.jpg,,,,,,,,,,,,,,,,,,,,,,,,,,,,,,,,,,,,,,,,,,,0,3,3,1,1,,,,,,,,,,,,,,,,,,,,,,,,,,,,,,,,,,,,,,,,,,,,,,
261882,001,2022-11-20_16h57.19.756,Info_measure_main_exp,2022.2.2,Win32,60.27727547,,,,,,,,,,,,,,,,,,masks/mask_001.jpg,,,,,,,,,,,,,,,,,,,,,,,,,,,,,,,,,,,,,,,,,,,0,4,4,0,1,,,,,,,,,,,,,,,,,,,,,,,,,,,,,,,,,,,,,,,,,,,,,,
261882,001,2022-11-20_16h57.19.756,Info_measure_main_exp,2022.2.2,Win32,60.27727547,,,,,,,,,,,,,,,,,,masks/mask_003.jpg,,,,,,,,,,,,,,,,,,,,,,,,,,,,,,,,,,,,,,,,,,,,,,,,0,0,0,2,1,,,,,,,,,,,,,,,,,,,,,,,,,,,,,,,,,,,,,,,,,
261882,001,2022-11-20_16h57.19.756,Info_measure_main_exp,2022.2.2,Win32,60.27727547,,,,,,,,,,,,,,,,,,masks/mask_002.jpg,,,,,,,,,,,,,,,,,,,,,,,,,,,,,,,,,,,,,,,,,,,,,,,,0,1,1,1,1,,,,,,,,,,,,,,,,,,,,,,,,,,,,,,,,,,,,,,,,,
261882,001,2022-11-20_16h57.19.756,Info_measure_main_exp,2022.2.2,Win32,60.27727547,,,,,,,,,,,,,,,,,,masks/mask_001.jpg,,,,,,,,,,,,,,,,,,,,,,,,,,,,,,,,,,,,,,,,,,,,,,,,0,2,2,0,1,,,,,,,,,,,,,,,,,,,,,,,,,,,,,,,,,,,,,,,,,
261882,001,2022-11-20_16h57.19.756,Info_measure_main_exp,2022.2.2,Win32,60.27727547,,,,,,,,,,,,,,,,,,masks/mask_005.jpg,,,,,,,,,,,,,,,,,,,,,,,,,,,,,,,,,,,,,,,,,,,,,,,,0,3,3,4,1,,,,,,,,,,,,,,,,,,,,,,,,,,,,,,,,,,,,,,,,,
261882,001,2022-11-20_16h57.19.756,Info_measure_main_exp,2022.2.2,Win32,60.27727547,,,,,,,,,,,,,,,,,,masks/mask_004.jpg,,,,,,,,,,,,,,,,,,,,,,,,,,,,,,,,,,,,,,,,,,,,,,,,0,4,4,3,1,,,,,,,,,,,,,,,,,,,,,,,,,,,,,,,,,,,,,,,,,
261882,001,2022-11-20_16h57.19.756,Info_measure_main_exp,2022.2.2,Win32,60.27727547,,,,,,,,,,,,,,,,,,,,,,,,,,,,,,7,0.9875,1,,,,,,,,,,,,0,131,5,5,2250,2178,absent_patch/patch0002250.jpg,absent_patch/patch0002178.jpg,,,,,,,,,,,,,,,,,,,,0.032407464,0.055555556,1,0,0,response1disk,28,0.010185242,-0.004629644,1,0,0,center_square,0,27,27,48,1,,,,,,,,,,,,,,,,,,,,,,,
261882,001,2022-11-20_16h57.19.756,Info_measure_main_exp,2022.2.2,Win32,60.27727547,,,,,,,,,,,,,,,,,,masks/mask_005.jpg,,,,,,,,,,,,,,,,,,,,,,,,,,,,,,,,,,,,,,,,,,,0,0,0,4,1,,,,,,,,,,,,,,,,,,,,,,,,,,,,,,,,,,,,,,,,,,,,,,
261882,001,2022-11-20_16h57.19.756,Info_measure_main_exp,2022.2.2,Win32,60.27727547,,,,,,,,,,,,,,,,,,masks/mask_002.jpg,,,,,,,,,,,,,,,,,,,,,,,,,,,,,,,,,,,,,,,,,,,0,1,1,1,1,,,,,,,,,,,,,,,,,,,,,,,,,,,,,,,,,,,,,,,,,,,,,,
261882,001,2022-11-20_16h57.19.756,Info_measure_main_exp,2022.2.2,Win32,60.27727547,,,,,,,,,,,,,,,,,,masks/mask_004.jpg,,,,,,,,,,,,,,,,,,,,,,,,,,,,,,,,,,,,,,,,,,,0,2,2,3,1,,,,,,,,,,,,,,,,,,,,,,,,,,,,,,,,,,,,,,,,,,,,,,
261882,001,2022-11-20_16h57.19.756,Info_measure_main_exp,2022.2.2,Win32,60.27727547,,,,,,,,,,,,,,,,,,masks/mask_003.jpg,,,,,,,,,,,,,,,,,,,,,,,,,,,,,,,,,,,,,,,,,,,0,3,3,2,1,,,,,,,,,,,,,,,,,,,,,,,,,,,,,,,,,,,,,,,,,,,,,,
261882,001,2022-11-20_16h57.19.756,Info_measure_main_exp,2022.2.2,Win32,60.27727547,,,,,,,,,,,,,,,,,,masks/mask_001.jpg,,,,,,,,,,,,,,,,,,,,,,,,,,,,,,,,,,,,,,,,,,,0,4,4,0,1,,,,,,,,,,,,,,,,,,,,,,,,,,,,,,,,,,,,,,,,,,,,,,
261882,001,2022-11-20_16h57.19.756,Info_measure_main_exp,2022.2.2,Win32,60.27727547,,,,,,,,,,,,,,,,,,masks/mask_004.jpg,,,,,,,,,,,,,,,,,,,,,,,,,,,,,,,,,,,,,,,,,,,,,,,,0,0,0,3,1,,,,,,,,,,,,,,,,,,,,,,,,,,,,,,,,,,,,,,,,,
261882,001,2022-11-20_16h57.19.756,Info_measure_main_exp,2022.2.2,Win32,60.27727547,,,,,,,,,,,,,,,,,,masks/mask_003.jpg,,,,,,,,,,,,,,,,,,,,,,,,,,,,,,,,,,,,,,,,,,,,,,,,0,1,1,2,1,,,,,,,,,,,,,,,,,,,,,,,,,,,,,,,,,,,,,,,,,
261882,001,2022-11-20_16h57.19.756,Info_measure_main_exp,2022.2.2,Win32,60.27727547,,,,,,,,,,,,,,,,,,masks/mask_002.jpg,,,,,,,,,,,,,,,,,,,,,,,,,,,,,,,,,,,,,,,,,,,,,,,,0,2,2,1,1,,,,,,,,,,,,,,,,,,,,,,,,,,,,,,,,,,,,,,,,,
261882,001,2022-11-20_16h57.19.756,Info_measure_main_exp,2022.2.2,Win32,60.27727547,,,,,,,,,,,,,,,,,,masks/mask_001.jpg,,,,,,,,,,,,,,,,,,,,,,,,,,,,,,,,,,,,,,,,,,,,,,,,0,3,3,0,1,,,,,,,,,,,,,,,,,,,,,,,,,,,,,,,,,,,,,,,,,
261882,001,2022-11-20_16h57.19.756,Info_measure_main_exp,2022.2.2,Win32,60.27727547,,,,,,,,,,,,,,,,,,masks/mask_005.jpg,,,,,,,,,,,,,,,,,,,,,,,,,,,,,,,,,,,,,,,,,,,,,,,,0,4,4,4,1,,,,,,,,,,,,,,,,,,,,,,,,,,,,,,,,,,,,,,,,,
261882,001,2022-11-20_16h57.19.756,Info_measure_main_exp,2022.2.2,Win32,60.27727547,,,,,,,,,,,,,,,,,,,,,,,,,,,,,,7,2.1387,1,,,,,,,,,,,,0,131,5,5,1974,2250,absent_patch/patch0001974.jpg,absent_patch/patch0002250.jpg,,,,,,,,,,,,,,,,,,,,0.05,0.075925912,1,0,0,response1disk,29,0.008333333,0.007407379,1,0,0,center_square,0,28,28,55,1,,,,,,,,,,,,,,,,,,,,,,,
261882,001,2022-11-20_16h57.19.756,Info_measure_main_exp,2022.2.2,Win32,60.27727547,,,,,,,,,,,,,,,,,,masks/mask_001.jpg,,,,,,,,,,,,,,,,,,,,,,,,,,,,,,,,,,,,,,,,,,,0,0,0,0,1,,,,,,,,,,,,,,,,,,,,,,,,,,,,,,,,,,,,,,,,,,,,,,
261882,001,2022-11-20_16h57.19.756,Info_measure_main_exp,2022.2.2,Win32,60.27727547,,,,,,,,,,,,,,,,,,masks/mask_005.jpg,,,,,,,,,,,,,,,,,,,,,,,,,,,,,,,,,,,,,,,,,,,0,1,1,4,1,,,,,,,,,,,,,,,,,,,,,,,,,,,,,,,,,,,,,,,,,,,,,,
261882,001,2022-11-20_16h57.19.756,Info_measure_main_exp,2022.2.2,Win32,60.27727547,,,,,,,,,,,,,,,,,,masks/mask_004.jpg,,,,,,,,,,,,,,,,,,,,,,,,,,,,,,,,,,,,,,,,,,,0,2,2,3,1,,,,,,,,,,,,,,,,,,,,,,,,,,,,,,,,,,,,,,,,,,,,,,
261882,001,2022-11-20_16h57.19.756,Info_measure_main_exp,2022.2.2,Win32,60.27727547,,,,,,,,,,,,,,,,,,masks/mask_003.jpg,,,,,,,,,,,,,,,,,,,,,,,,,,,,,,,,,,,,,,,,,,,0,3,3,2,1,,,,,,,,,,,,,,,,,,,,,,,,,,,,,,,,,,,,,,,,,,,,,,
261882,001,2022-11-20_16h57.19.756,Info_measure_main_exp,2022.2.2,Win32,60.27727547,,,,,,,,,,,,,,,,,,masks/mask_002.jpg,,,,,,,,,,,,,,,,,,,,,,,,,,,,,,,,,,,,,,,,,,,0,4,4,1,1,,,,,,,,,,,,,,,,,,,,,,,,,,,,,,,,,,,,,,,,,,,,,,
261882,001,2022-11-20_16h57.19.756,Info_measure_main_exp,2022.2.2,Win32,60.27727547,,,,,,,,,,,,,,,,,,masks/mask_002.jpg,,,,,,,,,,,,,,,,,,,,,,,,,,,,,,,,,,,,,,,,,,,,,,,,0,0,0,1,1,,,,,,,,,,,,,,,,,,,,,,,,,,,,,,,,,,,,,,,,,
261882,001,2022-11-20_16h57.19.756,Info_measure_main_exp,2022.2.2,Win32,60.27727547,,,,,,,,,,,,,,,,,,masks/mask_004.jpg,,,,,,,,,,,,,,,,,,,,,,,,,,,,,,,,,,,,,,,,,,,,,,,,0,1,1,3,1,,,,,,,,,,,,,,,,,,,,,,,,,,,,,,,,,,,,,,,,,
261882,001,2022-11-20_16h57.19.756,Info_measure_main_exp,2022.2.2,Win32,60.27727547,,,,,,,,,,,,,,,,,,masks/mask_001.jpg,,,,,,,,,,,,,,,,,,,,,,,,,,,,,,,,,,,,,,,,,,,,,,,,0,2,2,0,1,,,,,,,,,,,,,,,,,,,,,,,,,,,,,,,,,,,,,,,,,
261882,001,2022-11-20_16h57.19.756,Info_measure_main_exp,2022.2.2,Win32,60.27727547,,,,,,,,,,,,,,,,,,masks/mask_005.jpg,,,,,,,,,,,,,,,,,,,,,,,,,,,,,,,,,,,,,,,,,,,,,,,,0,3,3,4,1,,,,,,,,,,,,,,,,,,,,,,,,,,,,,,,,,,,,,,,,,
261882,001,2022-11-20_16h57.19.756,Info_measure_main_exp,2022.2.2,Win32,60.27727547,,,,,,,,,,,,,,,,,,masks/mask_003.jpg,,,,,,,,,,,,,,,,,,,,,,,,,,,,,,,,,,,,,,,,,,,,,,,,0,4,4,2,1,,,,,,,,,,,,,,,,,,,,,,,,,,,,,,,,,,,,,,,,,
261882,001,2022-11-20_16h57.19.756,Info_measure_main_exp,2022.2.2,Win32,60.27727547,,,,,,,,,,,,,,,,,,,,,,,,,,,,,,5,1.8234,1,,,,,,,,,,,,0,131,5,5,2274,2238,absent_patch/patch0002274.jpg,absent_patch/patch0002238.jpg,,,,,,,,,,,,,,,,,,,,0.112963019,-0.050925954,1,0,0,response3disk,30,-0.014814758,0.00370369,1,0,0,center_square,0,29,29,91,1,,,,,,,,,,,,,,,,,,,,,,,
261882,001,2022-11-20_16h57.19.756,Info_measure_main_exp,2022.2.2,Win32,60.27727547,,,,,,,,,,,,,,,,,,masks/mask_002.jpg,,,,,,,,,,,,,,,,,,,,,,,,,,,,,,,,,,,,,,,,,,,0,0,0,1,1,,,,,,,,,,,,,,,,,,,,,,,,,,,,,,,,,,,,,,,,,,,,,,
261882,001,2022-11-20_16h57.19.756,Info_measure_main_exp,2022.2.2,Win32,60.27727547,,,,,,,,,,,,,,,,,,masks/mask_001.jpg,,,,,,,,,,,,,,,,,,,,,,,,,,,,,,,,,,,,,,,,,,,0,1,1,0,1,,,,,,,,,,,,,,,,,,,,,,,,,,,,,,,,,,,,,,,,,,,,,,
261882,001,2022-11-20_16h57.19.756,Info_measure_main_exp,2022.2.2,Win32,60.27727547,,,,,,,,,,,,,,,,,,masks/mask_004.jpg,,,,,,,,,,,,,,,,,,,,,,,,,,,,,,,,,,,,,,,,,,,0,2,2,3,1,,,,,,,,,,,,,,,,,,,,,,,,,,,,,,,,,,,,,,,,,,,,,,
261882,001,2022-11-20_16h57.19.756,Info_measure_main_exp,2022.2.2,Win32,60.27727547,,,,,,,,,,,,,,,,,,masks/mask_005.jpg,,,,,,,,,,,,,,,,,,,,,,,,,,,,,,,,,,,,,,,,,,,0,3,3,4,1,,,,,,,,,,,,,,,,,,,,,,,,,,,,,,,,,,,,,,,,,,,,,,
261882,001,2022-11-20_16h57.19.756,Info_measure_main_exp,2022.2.2,Win32,60.27727547,,,,,,,,,,,,,,,,,,masks/mask_003.jpg,,,,,,,,,,,,,,,,,,,,,,,,,,,,,,,,,,,,,,,,,,,0,4,4,2,1,,,,,,,,,,,,,,,,,,,,,,,,,,,,,,,,,,,,,,,,,,,,,,
261882,001,2022-11-20_16h57.19.756,Info_measure_main_exp,2022.2.2,Win32,60.27727547,,,,,,,,,,,,,,,,,,masks/mask_002.jpg,,,,,,,,,,,,,,,,,,,,,,,,,,,,,,,,,,,,,,,,,,,,,,,,0,0,0,1,1,,,,,,,,,,,,,,,,,,,,,,,,,,,,,,,,,,,,,,,,,
261882,001,2022-11-20_16h57.19.756,Info_measure_main_exp,2022.2.2,Win32,60.27727547,,,,,,,,,,,,,,,,,,masks/mask_001.jpg,,,,,,,,,,,,,,,,,,,,,,,,,,,,,,,,,,,,,,,,,,,,,,,,0,1,1,0,1,,,,,,,,,,,,,,,,,,,,,,,,,,,,,,,,,,,,,,,,,
261882,001,2022-11-20_16h57.19.756,Info_measure_main_exp,2022.2.2,Win32,60.27727547,,,,,,,,,,,,,,,,,,masks/mask_004.jpg,,,,,,,,,,,,,,,,,,,,,,,,,,,,,,,,,,,,,,,,,,,,,,,,0,2,2,3,1,,,,,,,,,,,,,,,,,,,,,,,,,,,,,,,,,,,,,,,,,
261882,001,2022-11-20_16h57.19.756,Info_measure_main_exp,2022.2.2,Win32,60.27727547,,,,,,,,,,,,,,,,,,masks/mask_003.jpg,,,,,,,,,,,,,,,,,,,,,,,,,,,,,,,,,,,,,,,,,,,,,,,,0,3,3,2,1,,,,,,,,,,,,,,,,,,,,,,,,,,,,,,,,,,,,,,,,,
261882,001,2022-11-20_16h57.19.756,Info_measure_main_exp,2022.2.2,Win32,60.27727547,,,,,,,,,,,,,,,,,,masks/mask_005.jpg,,,,,,,,,,,,,,,,,,,,,,,,,,,,,,,,,,,,,,,,,,,,,,,,0,4,4,4,1,,,,,,,,,,,,,,,,,,,,,,,,,,,,,,,,,,,,,,,,,
261882,001,2022-11-20_16h57.19.756,Info_measure_main_exp,2022.2.2,Win32,60.27727547,,,,,,,,,,,,,,,,,,,,,,,,,,,,,,7,2.7238,1,,,,,,,,,,,,0,131,5,5,2190,1986,absent_patch/patch0002190.jpg,absent_patch/patch0001986.jpg,,,,,,,,,,,,,,,,,,,,0.069444444,0.094444444,1,0,0,response1disk,31,0.00648151,-0.005555556,1,0,0,center_square,0,30,30,111,1,,,,,,,,,,,,,,,,,,,,,,,
261882,001,2022-11-20_16h57.19.756,Info_measure_main_exp,2022.2.2,Win32,60.27727547,,,,,,,,,,,,,,,,,,masks/mask_005.jpg,,,,,,,,,,,,,,,,,,,,,,,,,,,,,,,,,,,,,,,,,,,0,0,0,4,1,,,,,,,,,,,,,,,,,,,,,,,,,,,,,,,,,,,,,,,,,,,,,,
261882,001,2022-11-20_16h57.19.756,Info_measure_main_exp,2022.2.2,Win32,60.27727547,,,,,,,,,,,,,,,,,,masks/mask_001.jpg,,,,,,,,,,,,,,,,,,,,,,,,,,,,,,,,,,,,,,,,,,,0,1,1,0,1,,,,,,,,,,,,,,,,,,,,,,,,,,,,,,,,,,,,,,,,,,,,,,
261882,001,2022-11-20_16h57.19.756,Info_measure_main_exp,2022.2.2,Win32,60.27727547,,,,,,,,,,,,,,,,,,masks/mask_004.jpg,,,,,,,,,,,,,,,,,,,,,,,,,,,,,,,,,,,,,,,,,,,0,2,2,3,1,,,,,,,,,,,,,,,,,,,,,,,,,,,,,,,,,,,,,,,,,,,,,,
261882,001,2022-11-20_16h57.19.756,Info_measure_main_exp,2022.2.2,Win32,60.27727547,,,,,,,,,,,,,,,,,,masks/mask_002.jpg,,,,,,,,,,,,,,,,,,,,,,,,,,,,,,,,,,,,,,,,,,,0,3,3,1,1,,,,,,,,,,,,,,,,,,,,,,,,,,,,,,,,,,,,,,,,,,,,,,
261882,001,2022-11-20_16h57.19.756,Info_measure_main_exp,2022.2.2,Win32,60.27727547,,,,,,,,,,,,,,,,,,masks/mask_003.jpg,,,,,,,,,,,,,,,,,,,,,,,,,,,,,,,,,,,,,,,,,,,0,4,4,2,1,,,,,,,,,,,,,,,,,,,,,,,,,,,,,,,,,,,,,,,,,,,,,,
261882,001,2022-11-20_16h57.19.756,Info_measure_main_exp,2022.2.2,Win32,60.27727547,,,,,,,,,,,,,,,,,,masks/mask_003.jpg,,,,,,,,,,,,,,,,,,,,,,,,,,,,,,,,,,,,,,,,,,,,,,,,0,0,0,2,1,,,,,,,,,,,,,,,,,,,,,,,,,,,,,,,,,,,,,,,,,
261882,001,2022-11-20_16h57.19.756,Info_measure_main_exp,2022.2.2,Win32,60.27727547,,,,,,,,,,,,,,,,,,masks/mask_002.jpg,,,,,,,,,,,,,,,,,,,,,,,,,,,,,,,,,,,,,,,,,,,,,,,,0,1,1,1,1,,,,,,,,,,,,,,,,,,,,,,,,,,,,,,,,,,,,,,,,,
261882,001,2022-11-20_16h57.19.756,Info_measure_main_exp,2022.2.2,Win32,60.27727547,,,,,,,,,,,,,,,,,,masks/mask_001.jpg,,,,,,,,,,,,,,,,,,,,,,,,,,,,,,,,,,,,,,,,,,,,,,,,0,2,2,0,1,,,,,,,,,,,,,,,,,,,,,,,,,,,,,,,,,,,,,,,,,
261882,001,2022-11-20_16h57.19.756,Info_measure_main_exp,2022.2.2,Win32,60.27727547,,,,,,,,,,,,,,,,,,masks/mask_005.jpg,,,,,,,,,,,,,,,,,,,,,,,,,,,,,,,,,,,,,,,,,,,,,,,,0,3,3,4,1,,,,,,,,,,,,,,,,,,,,,,,,,,,,,,,,,,,,,,,,,
261882,001,2022-11-20_16h57.19.756,Info_measure_main_exp,2022.2.2,Win32,60.27727547,,,,,,,,,,,,,,,,,,masks/mask_004.jpg,,,,,,,,,,,,,,,,,,,,,,,,,,,,,,,,,,,,,,,,,,,,,,,,0,4,4,3,1,,,,,,,,,,,,,,,,,,,,,,,,,,,,,,,,,,,,,,,,,
261882,001,2022-11-20_16h57.19.756,Info_measure_main_exp,2022.2.2,Win32,60.27727547,,,,,,,,,,,,,,,,,,,,,,,,,,,,,,7,0.999,1,,,,,,,,,,,,0,131,5,5,2154,1974,absent_patch/patch0002154.jpg,absent_patch/patch0001974.jpg,,,,,,,,,,,,,,,,,,,,0.036111111,0.069444444,1,0,0,response1disk,32,-0.004629601,0.001851824,1,0,0,center_square,0,31,31,82,1,,,,,,,,,,,,,,,,,,,,,,,
261882,001,2022-11-20_16h57.19.756,Info_measure_main_exp,2022.2.2,Win32,60.27727547,,,,,,,,,,,,,,,,,,masks/mask_003.jpg,,,,,,,,,,,,,,,,,,,,,,,,,,,,,,,,,,,,,,,,,,,0,0,0,2,1,,,,,,,,,,,,,,,,,,,,,,,,,,,,,,,,,,,,,,,,,,,,,,
261882,001,2022-11-20_16h57.19.756,Info_measure_main_exp,2022.2.2,Win32,60.27727547,,,,,,,,,,,,,,,,,,masks/mask_001.jpg,,,,,,,,,,,,,,,,,,,,,,,,,,,,,,,,,,,,,,,,,,,0,1,1,0,1,,,,,,,,,,,,,,,,,,,,,,,,,,,,,,,,,,,,,,,,,,,,,,
261882,001,2022-11-20_16h57.19.756,Info_measure_main_exp,2022.2.2,Win32,60.27727547,,,,,,,,,,,,,,,,,,masks/mask_004.jpg,,,,,,,,,,,,,,,,,,,,,,,,,,,,,,,,,,,,,,,,,,,0,2,2,3,1,,,,,,,,,,,,,,,,,,,,,,,,,,,,,,,,,,,,,,,,,,,,,,
261882,001,2022-11-20_16h57.19.756,Info_measure_main_exp,2022.2.2,Win32,60.27727547,,,,,,,,,,,,,,,,,,masks/mask_005.jpg,,,,,,,,,,,,,,,,,,,,,,,,,,,,,,,,,,,,,,,,,,,0,3,3,4,1,,,,,,,,,,,,,,,,,,,,,,,,,,,,,,,,,,,,,,,,,,,,,,
261882,001,2022-11-20_16h57.19.756,Info_measure_main_exp,2022.2.2,Win32,60.27727547,,,,,,,,,,,,,,,,,,masks/mask_002.jpg,,,,,,,,,,,,,,,,,,,,,,,,,,,,,,,,,,,,,,,,,,,0,4,4,1,1,,,,,,,,,,,,,,,,,,,,,,,,,,,,,,,,,,,,,,,,,,,,,,
261882,001,2022-11-20_16h57.19.756,Info_measure_main_exp,2022.2.2,Win32,60.27727547,,,,,,,,,,,,,,,,,,masks/mask_001.jpg,,,,,,,,,,,,,,,,,,,,,,,,,,,,,,,,,,,,,,,,,,,,,,,,0,0,0,0,1,,,,,,,,,,,,,,,,,,,,,,,,,,,,,,,,,,,,,,,,,
261882,001,2022-11-20_16h57.19.756,Info_measure_main_exp,2022.2.2,Win32,60.27727547,,,,,,,,,,,,,,,,,,masks/mask_005.jpg,,,,,,,,,,,,,,,,,,,,,,,,,,,,,,,,,,,,,,,,,,,,,,,,0,1,1,4,1,,,,,,,,,,,,,,,,,,,,,,,,,,,,,,,,,,,,,,,,,
261882,001,2022-11-20_16h57.19.756,Info_measure_main_exp,2022.2.2,Win32,60.27727547,,,,,,,,,,,,,,,,,,masks/mask_003.jpg,,,,,,,,,,,,,,,,,,,,,,,,,,,,,,,,,,,,,,,,,,,,,,,,0,2,2,2,1,,,,,,,,,,,,,,,,,,,,,,,,,,,,,,,,,,,,,,,,,
261882,001,2022-11-20_16h57.19.756,Info_measure_main_exp,2022.2.2,Win32,60.27727547,,,,,,,,,,,,,,,,,,masks/mask_002.jpg,,,,,,,,,,,,,,,,,,,,,,,,,,,,,,,,,,,,,,,,,,,,,,,,0,3,3,1,1,,,,,,,,,,,,,,,,,,,,,,,,,,,,,,,,,,,,,,,,,
261882,001,2022-11-20_16h57.19.756,Info_measure_main_exp,2022.2.2,Win32,60.27727547,,,,,,,,,,,,,,,,,,masks/mask_004.jpg,,,,,,,,,,,,,,,,,,,,,,,,,,,,,,,,,,,,,,,,,,,,,,,,0,4,4,3,1,,,,,,,,,,,,,,,,,,,,,,,,,,,,,,,,,,,,,,,,,
261882,001,2022-11-20_16h57.19.756,Info_measure_main_exp,2022.2.2,Win32,60.27727547,,,,,,,,,,,,,,,,,,,,,,,,,,,,,,3,1.8081,1,,,,,,,,,,,,0,131,5,5,2214,2082,absent_patch/patch0002214.jpg,absent_patch/patch0002082.jpg,,,,,,,,,,,,,,,,,,,,-0.024074046,-0.070370399,1,0,0,response5disk,33,-0.004629601,-0.009259288,1,0,0,center_square,0,32,32,103,1,,,,,,,,,,,,,,,,,,,,,,,
261882,001,2022-11-20_16h57.19.756,Info_measure_main_exp,2022.2.2,Win32,60.27727547,,,,,,,,,,,,,,,,,,masks/mask_002.jpg,,,,,,,,,,,,,,,,,,,,,,,,,,,,,,,,,,,,,,,,,,,0,0,0,1,1,,,,,,,,,,,,,,,,,,,,,,,,,,,,,,,,,,,,,,,,,,,,,,
261882,001,2022-11-20_16h57.19.756,Info_measure_main_exp,2022.2.2,Win32,60.27727547,,,,,,,,,,,,,,,,,,masks/mask_005.jpg,,,,,,,,,,,,,,,,,,,,,,,,,,,,,,,,,,,,,,,,,,,0,1,1,4,1,,,,,,,,,,,,,,,,,,,,,,,,,,,,,,,,,,,,,,,,,,,,,,
261882,001,2022-11-20_16h57.19.756,Info_measure_main_exp,2022.2.2,Win32,60.27727547,,,,,,,,,,,,,,,,,,masks/mask_001.jpg,,,,,,,,,,,,,,,,,,,,,,,,,,,,,,,,,,,,,,,,,,,0,2,2,0,1,,,,,,,,,,,,,,,,,,,,,,,,,,,,,,,,,,,,,,,,,,,,,,
261882,001,2022-11-20_16h57.19.756,Info_measure_main_exp,2022.2.2,Win32,60.27727547,,,,,,,,,,,,,,,,,,masks/mask_003.jpg,,,,,,,,,,,,,,,,,,,,,,,,,,,,,,,,,,,,,,,,,,,0,3,3,2,1,,,,,,,,,,,,,,,,,,,,,,,,,,,,,,,,,,,,,,,,,,,,,,
261882,001,2022-11-20_16h57.19.756,Info_measure_main_exp,2022.2.2,Win32,60.27727547,,,,,,,,,,,,,,,,,,masks/mask_004.jpg,,,,,,,,,,,,,,,,,,,,,,,,,,,,,,,,,,,,,,,,,,,0,4,4,3,1,,,,,,,,,,,,,,,,,,,,,,,,,,,,,,,,,,,,,,,,,,,,,,
261882,001,2022-11-20_16h57.19.756,Info_measure_main_exp,2022.2.2,Win32,60.27727547,,,,,,,,,,,,,,,,,,masks/mask_001.jpg,,,,,,,,,,,,,,,,,,,,,,,,,,,,,,,,,,,,,,,,,,,,,,,,0,0,0,0,1,,,,,,,,,,,,,,,,,,,,,,,,,,,,,,,,,,,,,,,,,
261882,001,2022-11-20_16h57.19.756,Info_measure_main_exp,2022.2.2,Win32,60.27727547,,,,,,,,,,,,,,,,,,masks/mask_004.jpg,,,,,,,,,,,,,,,,,,,,,,,,,,,,,,,,,,,,,,,,,,,,,,,,0,1,1,3,1,,,,,,,,,,,,,,,,,,,,,,,,,,,,,,,,,,,,,,,,,
261882,001,2022-11-20_16h57.19.756,Info_measure_main_exp,2022.2.2,Win32,60.27727547,,,,,,,,,,,,,,,,,,masks/mask_005.jpg,,,,,,,,,,,,,,,,,,,,,,,,,,,,,,,,,,,,,,,,,,,,,,,,0,2,2,4,1,,,,,,,,,,,,,,,,,,,,,,,,,,,,,,,,,,,,,,,,,
261882,001,2022-11-20_16h57.19.756,Info_measure_main_exp,2022.2.2,Win32,60.27727547,,,,,,,,,,,,,,,,,,masks/mask_003.jpg,,,,,,,,,,,,,,,,,,,,,,,,,,,,,,,,,,,,,,,,,,,,,,,,0,3,3,2,1,,,,,,,,,,,,,,,,,,,,,,,,,,,,,,,,,,,,,,,,,
261882,001,2022-11-20_16h57.19.756,Info_measure_main_exp,2022.2.2,Win32,60.27727547,,,,,,,,,,,,,,,,,,masks/mask_002.jpg,,,,,,,,,,,,,,,,,,,,,,,,,,,,,,,,,,,,,,,,,,,,,,,,0,4,4,1,1,,,,,,,,,,,,,,,,,,,,,,,,,,,,,,,,,,,,,,,,,
261882,001,2022-11-20_16h57.19.756,Info_measure_main_exp,2022.2.2,Win32,60.27727547,,,,,,,,,,,,,,,,,,,,,,,,,,,,,,3,1.0551,1,,,,,,,,,,,,1,131,5,5,1,2178,present_patch/cong_131_5_a.jpg,absent_patch/patch0002178.jpg,,,,,,,,,,,,,,,,,,,,-0.042592536,-0.108333333,1,0,0,response5disk,34,0.003703732,-0.005555556,1,0,0,center_square,0,33,33,40,1,,,,,,,,,,,,,,,,,,,,,,,
261882,001,2022-11-20_16h57.19.756,Info_measure_main_exp,2022.2.2,Win32,60.27727547,,,,,,,,,,,,,,,,,,masks/mask_003.jpg,,,,,,,,,,,,,,,,,,,,,,,,,,,,,,,,,,,,,,,,,,,0,0,0,2,1,,,,,,,,,,,,,,,,,,,,,,,,,,,,,,,,,,,,,,,,,,,,,,
261882,001,2022-11-20_16h57.19.756,Info_measure_main_exp,2022.2.2,Win32,60.27727547,,,,,,,,,,,,,,,,,,masks/mask_005.jpg,,,,,,,,,,,,,,,,,,,,,,,,,,,,,,,,,,,,,,,,,,,0,1,1,4,1,,,,,,,,,,,,,,,,,,,,,,,,,,,,,,,,,,,,,,,,,,,,,,
261882,001,2022-11-20_16h57.19.756,Info_measure_main_exp,2022.2.2,Win32,60.27727547,,,,,,,,,,,,,,,,,,masks/mask_001.jpg,,,,,,,,,,,,,,,,,,,,,,,,,,,,,,,,,,,,,,,,,,,0,2,2,0,1,,,,,,,,,,,,,,,,,,,,,,,,,,,,,,,,,,,,,,,,,,,,,,
261882,001,2022-11-20_16h57.19.756,Info_measure_main_exp,2022.2.2,Win32,60.27727547,,,,,,,,,,,,,,,,,,masks/mask_002.jpg,,,,,,,,,,,,,,,,,,,,,,,,,,,,,,,,,,,,,,,,,,,0,3,3,1,1,,,,,,,,,,,,,,,,,,,,,,,,,,,,,,,,,,,,,,,,,,,,,,
261882,001,2022-11-20_16h57.19.756,Info_measure_main_exp,2022.2.2,Win32,60.27727547,,,,,,,,,,,,,,,,,,masks/mask_004.jpg,,,,,,,,,,,,,,,,,,,,,,,,,,,,,,,,,,,,,,,,,,,0,4,4,3,1,,,,,,,,,,,,,,,,,,,,,,,,,,,,,,,,,,,,,,,,,,,,,,
261882,001,2022-11-20_16h57.19.756,Info_measure_main_exp,2022.2.2,Win32,60.27727547,,,,,,,,,,,,,,,,,,masks/mask_002.jpg,,,,,,,,,,,,,,,,,,,,,,,,,,,,,,,,,,,,,,,,,,,,,,,,0,0,0,1,1,,,,,,,,,,,,,,,,,,,,,,,,,,,,,,,,,,,,,,,,,
261882,001,2022-11-20_16h57.19.756,Info_measure_main_exp,2022.2.2,Win32,60.27727547,,,,,,,,,,,,,,,,,,masks/mask_003.jpg,,,,,,,,,,,,,,,,,,,,,,,,,,,,,,,,,,,,,,,,,,,,,,,,0,1,1,2,1,,,,,,,,,,,,,,,,,,,,,,,,,,,,,,,,,,,,,,,,,
261882,001,2022-11-20_16h57.19.756,Info_measure_main_exp,2022.2.2,Win32,60.27727547,,,,,,,,,,,,,,,,,,masks/mask_005.jpg,,,,,,,,,,,,,,,,,,,,,,,,,,,,,,,,,,,,,,,,,,,,,,,,0,2,2,4,1,,,,,,,,,,,,,,,,,,,,,,,,,,,,,,,,,,,,,,,,,
261882,001,2022-11-20_16h57.19.756,Info_measure_main_exp,2022.2.2,Win32,60.27727547,,,,,,,,,,,,,,,,,,masks/mask_001.jpg,,,,,,,,,,,,,,,,,,,,,,,,,,,,,,,,,,,,,,,,,,,,,,,,0,3,3,0,1,,,,,,,,,,,,,,,,,,,,,,,,,,,,,,,,,,,,,,,,,
