participant,session,date,expName,psychopyVersion,OS,frameRate,space_press_continue.keys,space_press_continue.rt,space_press_continue_2.keys,space_press_continue_2.rt,space_press_continue_3.keys,space_press_continue_3.rt,space_press_continue_4.keys,space_press_continue_4.rt,space_press_continue_5.keys,space_press_continue_5.rt,space_press_continue_6.keys,space_press_continue_6.rt,prac_mask_loop_1.thisRepN,prac_mask_loop_1.thisTrialN,prac_mask_loop_1.thisN,prac_mask_loop_1.thisIndex,prac_mask_loop_1.ran,mask_name,prac_mask_loop_2.thisRepN,prac_mask_loop_2.thisTrialN,prac_mask_loop_2.thisN,prac_mask_loop_2.thisIndex,prac_mask_loop_2.ran,mouse_2.x,mouse_2.y,mouse_2.leftButton,mouse_2.midButton,mouse_2.rightButton,mouse_2.clicked_name,similarity,response_time,Pass,mouse_12.x,mouse_12.y,mouse_12.leftButton,mouse_12.midButton,mouse_12.rightButton,mouse_12.clicked_name,prac_loop.thisRepN,prac_loop.thisTrialN,prac_loop.thisN,prac_loop.thisIndex,prac_loop.ran,Pair_type,Image_num,Patch_1_loc,Patch_2_loc,Patch_1_info,Patch_2_info,Patch_1_name,Patch_2_name,mouse_1.x,mouse_1.y,mouse_1.leftButton,mouse_1.midButton,mouse_1.rightButton,mouse_1.time,mouse_1.clicked_name,space_press_continue_7.keys,space_press_continue_7.rt,mask_loop.thisRepN,mask_loop.thisTrialN,mask_loop.thisN,mask_loop.thisIndex,mask_loop.ran,mask_loop_2.thisRepN,mask_loop_2.thisTrialN,mask_loop_2.thisN,mask_loop_2.thisIndex,mask_loop_2.ran,mouse.x,mouse.y,mouse.leftButton,mouse.midButton,mouse.rightButton,mouse.clicked_name,trialNumber,mouse_11.x,mouse_11.y,mouse_11.leftButton,mouse_11.midButton,mouse_11.rightButton,mouse_11.clicked_name,first_pass_loop.thisRepN,first_pass_loop.thisTrialN,first_pass_loop.thisN,first_pass_loop.thisIndex,first_pass_loop.ran,mask_loop_3.thisRepN,mask_loop_3.thisTrialN,mask_loop_3.thisN,mask_loop_3.thisIndex,mask_loop_3.ran,mask_loop_4.thisRepN,mask_loop_4.thisTrialN,mask_loop_4.thisN,mask_loop_4.thisIndex,mask_loop_4.ran,mouse_3.x,mouse_3.y,mouse_3.leftButton,mouse_3.midButton,mouse_3.rightButton,mouse_3.clicked_name,double_pass_loop.thisRepN,double_pass_loop.thisTrialN,double_pass_loop.thisN,double_pass_loop.thisIndex,double_pass_loop.ran,space_exit.keys,space_exit.rt
269194,001,2022-11-21_00h49.18.291,Info_measure_main_exp,2022.2.2,Win32,144.092219,,,,,,,,,,,,,,,,,,,,,,,,,,,,,,,,,,,,,,,,,,,,,,,,,,,,,,,,,,,,,,,,,,,,,,,,,,,,,,,,,,,,,,,,,,,,,,,,,,,,,,,,,,,,,,,
269194,001,2022-11-21_00h49.18.291,Info_measure_main_exp,2022.2.2,Win32,144.092219,,,,,,,,,,,,,,,,,,,,,,,,,,,,,,,,,,,,,,,,,,,,,,,,,,,,,,,,,,,,,,,,,,,,,,,,,,,,,,,,,,,,,,,,,,,,,,,,,,,,,,,,,,,,,,,
269194,001,2022-11-21_00h49.18.291,Info_measure_main_exp,2022.2.2,Win32,144.092219,space,12.016,,,,,,,,,,,,,,,,,,,,,,,,,,,,,,,,,,,,,,,,,,,,,,,,,,,,,,,,,,,,,,,,,,,,,,,,,,,,,,,,,,,,,,,,,,,,,,,,,,,,,,,,,,,,,
269194,001,2022-11-21_00h49.18.291,Info_measure_main_exp,2022.2.2,Win32,144.092219,,,space,15.051,,,,,,,,,,,,,,,,,,,,,,,,,,,,,,,,,,,,,,,,,,,,,,,,,,,,,,,,,,,,,,,,,,,,,,,,,,,,,,,,,,,,,,,,,,,,,,,,,,,,,,,,,,,
269194,001,2022-11-21_00h49.18.291,Info_measure_main_exp,2022.2.2,Win32,144.092219,,,,,space,11.626,,,,,,,,,,,,,,,,,,,,,,,,,,,,,,,,,,,,,,,,,,,,,,,,,,,,,,,,,,,,,,,,,,,,,,,,,,,,,,,,,,,,,,,,,,,,,,,,,,,,,,,,,
269194,001,2022-11-21_00h49.18.291,Info_measure_main_exp,2022.2.2,Win32,144.092219,,,,,,,space,11.59,,,,,,,,,,,,,,,,,,,,,,,,,,,,,,,,,,,,,,,,,,,,,,,,,,,,,,,,,,,,,,,,,,,,,,,,,,,,,,,,,,,,,,,,,,,,,,,,,,,,,,,
269194,001,2022-11-21_00h49.18.291,Info_measure_main_exp,2022.2.2,Win32,144.092219,,,,,,,,,space,9.194,,,,,,,,,,,,,,,,,,,,,,,,,,,,,,,,,,,,,,,,,,,,,,,,,,,,,,,,,,,,,,,,,,,,,,,,,,,,,,,,,,,,,,,,,,,,,,,,,,,,,
269194,001,2022-11-21_00h49.18.291,Info_measure_main_exp,2022.2.2,Win32,144.092219,,,,,,,,,,,space,3.995,,,,,,,,,,,,,,,,,,,,,,,,,,,,,,,,,,,,,,,,,,,,,,,,,,,,,,,,,,,,,,,,,,,,,,,,,,,,,,,,,,,,,,,,,,,,,,,,,,,
269194,001,2022-11-21_00h49.18.291,Info_measure_main_exp,2022.2.2,Win32,144.092219,,,,,,,,,,,,,0,0,0,1,1,masks/mask_002.jpg,,,,,,,,,,,,,,,,,,,,,,,,,,,,,,,,,,,,,,,,,,,,,,,,,,,,,,,,,,,,,,,,,,,,,,,,,,,,,,,,,,,,,,,,,,,,,
269194,001,2022-11-21_00h49.18.291,Info_measure_main_exp,2022.2.2,Win32,144.092219,,,,,,,,,,,,,0,1,1,4,1,masks/mask_005.jpg,,,,,,,,,,,,,,,,,,,,,,,,,,,,,,,,,,,,,,,,,,,,,,,,,,,,,,,,,,,,,,,,,,,,,,,,,,,,,,,,,,,,,,,,,,,,,
269194,001,2022-11-21_00h49.18.291,Info_measure_main_exp,2022.2.2,Win32,144.092219,,,,,,,,,,,,,0,2,2,0,1,masks/mask_001.jpg,,,,,,,,,,,,,,,,,,,,,,,,,,,,,,,,,,,,,,,,,,,,,,,,,,,,,,,,,,,,,,,,,,,,,,,,,,,,,,,,,,,,,,,,,,,,,
269194,001,2022-11-21_00h49.18.291,Info_measure_main_exp,2022.2.2,Win32,144.092219,,,,,,,,,,,,,0,3,3,3,1,masks/mask_004.jpg,,,,,,,,,,,,,,,,,,,,,,,,,,,,,,,,,,,,,,,,,,,,,,,,,,,,,,,,,,,,,,,,,,,,,,,,,,,,,,,,,,,,,,,,,,,,,
269194,001,2022-11-21_00h49.18.291,Info_measure_main_exp,2022.2.2,Win32,144.092219,,,,,,,,,,,,,0,4,4,2,1,masks/mask_003.jpg,,,,,,,,,,,,,,,,,,,,,,,,,,,,,,,,,,,,,,,,,,,,,,,,,,,,,,,,,,,,,,,,,,,,,,,,,,,,,,,,,,,,,,,,,,,,,
269194,001,2022-11-21_00h49.18.291,Info_measure_main_exp,2022.2.2,Win32,144.092219,,,,,,,,,,,,,,,,,,masks/mask_002.jpg,0,0,0,1,1,,,,,,,,,,,,,,,,,,,,,,,,,,,,,,,,,,,,,,,,,,,,,,,,,,,,,,,,,,,,,,,,,,,,,,,,,,,,,,,,,,,,,,,,
269194,001,2022-11-21_00h49.18.291,Info_measure_main_exp,2022.2.2,Win32,144.092219,,,,,,,,,,,,,,,,,,masks/mask_005.jpg,0,1,1,4,1,,,,,,,,,,,,,,,,,,,,,,,,,,,,,,,,,,,,,,,,,,,,,,,,,,,,,,,,,,,,,,,,,,,,,,,,,,,,,,,,,,,,,,,,
269194,001,2022-11-21_00h49.18.291,Info_measure_main_exp,2022.2.2,Win32,144.092219,,,,,,,,,,,,,,,,,,masks/mask_001.jpg,0,2,2,0,1,,,,,,,,,,,,,,,,,,,,,,,,,,,,,,,,,,,,,,,,,,,,,,,,,,,,,,,,,,,,,,,,,,,,,,,,,,,,,,,,,,,,,,,,
269194,001,2022-11-21_00h49.18.291,Info_measure_main_exp,2022.2.2,Win32,144.092219,,,,,,,,,,,,,,,,,,masks/mask_004.jpg,0,3,3,3,1,,,,,,,,,,,,,,,,,,,,,,,,,,,,,,,,,,,,,,,,,,,,,,,,,,,,,,,,,,,,,,,,,,,,,,,,,,,,,,,,,,,,,,,,
269194,001,2022-11-21_00h49.18.291,Info_measure_main_exp,2022.2.2,Win32,144.092219,,,,,,,,,,,,,,,,,,masks/mask_003.jpg,0,4,4,2,1,,,,,,,,,,,,,,,,,,,,,,,,,,,,,,,,,,,,,,,,,,,,,,,,,,,,,,,,,,,,,,,,,,,,,,,,,,,,,,,,,,,,,,,,
269194,001,2022-11-21_00h49.18.291,Info_measure_main_exp,2022.2.2,Win32,144.092219,,,,,,,,,,,,,,,,,,,,,,,,0.063888889,-0.15,1,0,0,response3disk,4,70.607,1,0.000925926,-0.012037037,1,0,0,center_square,0,0,0,0,1,0,131,5,5,2370,2406,prac_patch/patch0002370.jpg,prac_patch/patch0002406.jpg,,,,,,,,,,,,,,,,,,,,,,,,,,,,,,,,,,,,,,,,,,,,,,,,,,,,,,,,,,,,
269194,001,2022-11-21_00h49.18.291,Info_measure_main_exp,2022.2.2,Win32,144.092219,,,,,,,,,,,,,0,0,0,1,1,masks/mask_002.jpg,,,,,,,,,,,,,,,,,,,,,,,,,,,,,,,,,,,,,,,,,,,,,,,,,,,,,,,,,,,,,,,,,,,,,,,,,,,,,,,,,,,,,,,,,,,,,
269194,001,2022-11-21_00h49.18.291,Info_measure_main_exp,2022.2.2,Win32,144.092219,,,,,,,,,,,,,0,1,1,2,1,masks/mask_003.jpg,,,,,,,,,,,,,,,,,,,,,,,,,,,,,,,,,,,,,,,,,,,,,,,,,,,,,,,,,,,,,,,,,,,,,,,,,,,,,,,,,,,,,,,,,,,,,
269194,001,2022-11-21_00h49.18.291,Info_measure_main_exp,2022.2.2,Win32,144.092219,,,,,,,,,,,,,0,2,2,0,1,masks/mask_001.jpg,,,,,,,,,,,,,,,,,,,,,,,,,,,,,,,,,,,,,,,,,,,,,,,,,,,,,,,,,,,,,,,,,,,,,,,,,,,,,,,,,,,,,,,,,,,,,
269194,001,2022-11-21_00h49.18.291,Info_measure_main_exp,2022.2.2,Win32,144.092219,,,,,,,,,,,,,0,3,3,4,1,masks/mask_005.jpg,,,,,,,,,,,,,,,,,,,,,,,,,,,,,,,,,,,,,,,,,,,,,,,,,,,,,,,,,,,,,,,,,,,,,,,,,,,,,,,,,,,,,,,,,,,,,
269194,001,2022-11-21_00h49.18.291,Info_measure_main_exp,2022.2.2,Win32,144.092219,,,,,,,,,,,,,0,4,4,3,1,masks/mask_004.jpg,,,,,,,,,,,,,,,,,,,,,,,,,,,,,,,,,,,,,,,,,,,,,,,,,,,,,,,,,,,,,,,,,,,,,,,,,,,,,,,,,,,,,,,,,,,,,
269194,001,2022-11-21_00h49.18.291,Info_measure_main_exp,2022.2.2,Win32,144.092219,,,,,,,,,,,,,,,,,,masks/mask_002.jpg,0,0,0,1,1,,,,,,,,,,,,,,,,,,,,,,,,,,,,,,,,,,,,,,,,,,,,,,,,,,,,,,,,,,,,,,,,,,,,,,,,,,,,,,,,,,,,,,,,
269194,001,2022-11-21_00h49.18.291,Info_measure_main_exp,2022.2.2,Win32,144.092219,,,,,,,,,,,,,,,,,,masks/mask_001.jpg,0,1,1,0,1,,,,,,,,,,,,,,,,,,,,,,,,,,,,,,,,,,,,,,,,,,,,,,,,,,,,,,,,,,,,,,,,,,,,,,,,,,,,,,,,,,,,,,,,
269194,001,2022-11-21_00h49.18.291,Info_measure_main_exp,2022.2.2,Win32,144.092219,,,,,,,,,,,,,,,,,,masks/mask_004.jpg,0,2,2,3,1,,,,,,,,,,,,,,,,,,,,,,,,,,,,,,,,,,,,,,,,,,,,,,,,,,,,,,,,,,,,,,,,,,,,,,,,,,,,,,,,,,,,,,,,
269194,001,2022-11-21_00h49.18.291,Info_measure_main_exp,2022.2.2,Win32,144.092219,,,,,,,,,,,,,,,,,,masks/mask_005.jpg,0,3,3,4,1,,,,,,,,,,,,,,,,,,,,,,,,,,,,,,,,,,,,,,,,,,,,,,,,,,,,,,,,,,,,,,,,,,,,,,,,,,,,,,,,,,,,,,,,
269194,001,2022-11-21_00h49.18.291,Info_measure_main_exp,2022.2.2,Win32,144.092219,,,,,,,,,,,,,,,,,,masks/mask_003.jpg,0,4,4,2,1,,,,,,,,,,,,,,,,,,,,,,,,,,,,,,,,,,,,,,,,,,,,,,,,,,,,,,,,,,,,,,,,,,,,,,,,,,,,,,,,,,,,,,,,
269194,001,2022-11-21_00h49.18.291,Info_measure_main_exp,2022.2.2,Win32,144.092219,,,,,,,,,,,,,,,,,,,,,,,,0.17962963,-0.062962963,1,0,0,response3disk,5,82.342,1,0.001851852,-0.000925926,1,0,0,center_square,0,1,1,1,1,0,131,5,5,2514,2490,prac_patch/patch0002514.jpg,prac_patch/patch0002490.jpg,,,,,,,,,,,,,,,,,,,,,,,,,,,,,,,,,,,,,,,,,,,,,,,,,,,,,,,,,,,,
269194,001,2022-11-21_00h49.18.291,Info_measure_main_exp,2022.2.2,Win32,144.092219,,,,,,,,,,,,,0,0,0,3,1,masks/mask_004.jpg,,,,,,,,,,,,,,,,,,,,,,,,,,,,,,,,,,,,,,,,,,,,,,,,,,,,,,,,,,,,,,,,,,,,,,,,,,,,,,,,,,,,,,,,,,,,,
269194,001,2022-11-21_00h49.18.291,Info_measure_main_exp,2022.2.2,Win32,144.092219,,,,,,,,,,,,,0,1,1,4,1,masks/mask_005.jpg,,,,,,,,,,,,,,,,,,,,,,,,,,,,,,,,,,,,,,,,,,,,,,,,,,,,,,,,,,,,,,,,,,,,,,,,,,,,,,,,,,,,,,,,,,,,,
269194,001,2022-11-21_00h49.18.291,Info_measure_main_exp,2022.2.2,Win32,144.092219,,,,,,,,,,,,,0,2,2,2,1,masks/mask_003.jpg,,,,,,,,,,,,,,,,,,,,,,,,,,,,,,,,,,,,,,,,,,,,,,,,,,,,,,,,,,,,,,,,,,,,,,,,,,,,,,,,,,,,,,,,,,,,,
269194,001,2022-11-21_00h49.18.291,Info_measure_main_exp,2022.2.2,Win32,144.092219,,,,,,,,,,,,,0,3,3,0,1,masks/mask_001.jpg,,,,,,,,,,,,,,,,,,,,,,,,,,,,,,,,,,,,,,,,,,,,,,,,,,,,,,,,,,,,,,,,,,,,,,,,,,,,,,,,,,,,,,,,,,,,,
269194,001,2022-11-21_00h49.18.291,Info_measure_main_exp,2022.2.2,Win32,144.092219,,,,,,,,,,,,,0,4,4,1,1,masks/mask_002.jpg,,,,,,,,,,,,,,,,,,,,,,,,,,,,,,,,,,,,,,,,,,,,,,,,,,,,,,,,,,,,,,,,,,,,,,,,,,,,,,,,,,,,,,,,,,,,,
269194,001,2022-11-21_00h49.18.291,Info_measure_main_exp,2022.2.2,Win32,144.092219,,,,,,,,,,,,,,,,,,masks/mask_003.jpg,0,0,0,2,1,,,,,,,,,,,,,,,,,,,,,,,,,,,,,,,,,,,,,,,,,,,,,,,,,,,,,,,,,,,,,,,,,,,,,,,,,,,,,,,,,,,,,,,,
269194,001,2022-11-21_00h49.18.291,Info_measure_main_exp,2022.2.2,Win32,144.092219,,,,,,,,,,,,,,,,,,masks/mask_005.jpg,0,1,1,4,1,,,,,,,,,,,,,,,,,,,,,,,,,,,,,,,,,,,,,,,,,,,,,,,,,,,,,,,,,,,,,,,,,,,,,,,,,,,,,,,,,,,,,,,,
269194,001,2022-11-21_00h49.18.291,Info_measure_main_exp,2022.2.2,Win32,144.092219,,,,,,,,,,,,,,,,,,masks/mask_001.jpg,0,2,2,0,1,,,,,,,,,,,,,,,,,,,,,,,,,,,,,,,,,,,,,,,,,,,,,,,,,,,,,,,,,,,,,,,,,,,,,,,,,,,,,,,,,,,,,,,,
269194,001,2022-11-21_00h49.18.291,Info_measure_main_exp,2022.2.2,Win32,144.092219,,,,,,,,,,,,,,,,,,masks/mask_004.jpg,0,3,3,3,1,,,,,,,,,,,,,,,,,,,,,,,,,,,,,,,,,,,,,,,,,,,,,,,,,,,,,,,,,,,,,,,,,,,,,,,,,,,,,,,,,,,,,,,,
269194,001,2022-11-21_00h49.18.291,Info_measure_main_exp,2022.2.2,Win32,144.092219,,,,,,,,,,,,,,,,,,masks/mask_002.jpg,0,4,4,1,1,,,,,,,,,,,,,,,,,,,,,,,,,,,,,,,,,,,,,,,,,,,,,,,,,,,,,,,,,,,,,,,,,,,,,,,,,,,,,,,,,,,,,,,,
269194,001,2022-11-21_00h49.18.291,Info_measure_main_exp,2022.2.2,Win32,144.092219,,,,,,,,,,,,,,,,,,,,,,,,-0.07037037,0.173148148,1,0,0,response7disk,0,93.974,1,0.001851852,-0.001851852,1,0,0,center_square,0,2,2,2,1,0,131,5,5,2526,2526,prac_patch/patch0002526.jpg,prac_patch/patch0002526.jpg,,,,,,,,,,,,,,,,,,,,,,,,,,,,,,,,,,,,,,,,,,,,,,,,,,,,,,,,,,,,
269194,001,2022-11-21_00h49.18.291,Info_measure_main_exp,2022.2.2,Win32,144.092219,,,,,,,,,,,,,,,,,,,,,,,,,,,,,,,,,,,,,,,,,,,,,,,,,,,,,,,,,,,space,3.133,,,,,,,,,,,,,,,,,,,,,,,,,,,,,,,,,,,,,,,,,,,,,,,,,,,
269194,001,2022-11-21_00h49.18.291,Info_measure_main_exp,2022.2.2,Win32,144.092219,,,,,,,,,,,,,,,,,,masks/mask_005.jpg,,,,,,,,,,,,,,,,,,,,,,,,,,,,,,,,,,,,,,,,,,,0,0,0,4,1,,,,,,,,,,,,,,,,,,,,,,,,,,,,,,,,,,,,,,,,,,,,,,
269194,001,2022-11-21_00h49.18.291,Info_measure_main_exp,2022.2.2,Win32,144.092219,,,,,,,,,,,,,,,,,,masks/mask_003.jpg,,,,,,,,,,,,,,,,,,,,,,,,,,,,,,,,,,,,,,,,,,,0,1,1,2,1,,,,,,,,,,,,,,,,,,,,,,,,,,,,,,,,,,,,,,,,,,,,,,
269194,001,2022-11-21_00h49.18.291,Info_measure_main_exp,2022.2.2,Win32,144.092219,,,,,,,,,,,,,,,,,,masks/mask_002.jpg,,,,,,,,,,,,,,,,,,,,,,,,,,,,,,,,,,,,,,,,,,,0,2,2,1,1,,,,,,,,,,,,,,,,,,,,,,,,,,,,,,,,,,,,,,,,,,,,,,
269194,001,2022-11-21_00h49.18.291,Info_measure_main_exp,2022.2.2,Win32,144.092219,,,,,,,,,,,,,,,,,,masks/mask_001.jpg,,,,,,,,,,,,,,,,,,,,,,,,,,,,,,,,,,,,,,,,,,,0,3,3,0,1,,,,,,,,,,,,,,,,,,,,,,,,,,,,,,,,,,,,,,,,,,,,,,
269194,001,2022-11-21_00h49.18.291,Info_measure_main_exp,2022.2.2,Win32,144.092219,,,,,,,,,,,,,,,,,,masks/mask_004.jpg,,,,,,,,,,,,,,,,,,,,,,,,,,,,,,,,,,,,,,,,,,,0,4,4,3,1,,,,,,,,,,,,,,,,,,,,,,,,,,,,,,,,,,,,,,,,,,,,,,
269194,001,2022-11-21_00h49.18.291,Info_measure_main_exp,2022.2.2,Win32,144.092219,,,,,,,,,,,,,,,,,,masks/mask_005.jpg,,,,,,,,,,,,,,,,,,,,,,,,,,,,,,,,,,,,,,,,,,,,,,,,0,0,0,4,1,,,,,,,,,,,,,,,,,,,,,,,,,,,,,,,,,,,,,,,,,
269194,001,2022-11-21_00h49.18.291,Info_measure_main_exp,2022.2.2,Win32,144.092219,,,,,,,,,,,,,,,,,,masks/mask_001.jpg,,,,,,,,,,,,,,,,,,,,,,,,,,,,,,,,,,,,,,,,,,,,,,,,0,1,1,0,1,,,,,,,,,,,,,,,,,,,,,,,,,,,,,,,,,,,,,,,,,
269194,001,2022-11-21_00h49.18.291,Info_measure_main_exp,2022.2.2,Win32,144.092219,,,,,,,,,,,,,,,,,,masks/mask_003.jpg,,,,,,,,,,,,,,,,,,,,,,,,,,,,,,,,,,,,,,,,,,,,,,,,0,2,2,2,1,,,,,,,,,,,,,,,,,,,,,,,,,,,,,,,,,,,,,,,,,
269194,001,2022-11-21_00h49.18.291,Info_measure_main_exp,2022.2.2,Win32,144.092219,,,,,,,,,,,,,,,,,,masks/mask_002.jpg,,,,,,,,,,,,,,,,,,,,,,,,,,,,,,,,,,,,,,,,,,,,,,,,0,3,3,1,1,,,,,,,,,,,,,,,,,,,,,,,,,,,,,,,,,,,,,,,,,
269194,001,2022-11-21_00h49.18.291,Info_measure_main_exp,2022.2.2,Win32,144.092219,,,,,,,,,,,,,,,,,,masks/mask_004.jpg,,,,,,,,,,,,,,,,,,,,,,,,,,,,,,,,,,,,,,,,,,,,,,,,0,4,4,3,1,,,,,,,,,,,,,,,,,,,,,,,,,,,,,,,,,,,,,,,,,
269194,001,2022-11-21_00h49.18.291,Info_measure_main_exp,2022.2.2,Win32,144.092219,,,,,,,,,,,,,,,,,,,,,,,,,,,,,,6,1.258,1,,,,,,,,,,,,0,131,5,5,2166,1986,absent_patch/patch0002166.jpg,absent_patch/patch0001986.jpg,,,,,,,,,,,,,,,,,,,,0.15462963,0.031481481,1,0,0,response1disk,1,-0.006481481,0.000925926,1,0,0,center_square,0,0,0,47,1,,,,,,,,,,,,,,,,,,,,,,,
269194,001,2022-11-21_00h49.18.291,Info_measure_main_exp,2022.2.2,Win32,144.092219,,,,,,,,,,,,,,,,,,masks/mask_003.jpg,,,,,,,,,,,,,,,,,,,,,,,,,,,,,,,,,,,,,,,,,,,0,0,0,2,1,,,,,,,,,,,,,,,,,,,,,,,,,,,,,,,,,,,,,,,,,,,,,,
269194,001,2022-11-21_00h49.18.291,Info_measure_main_exp,2022.2.2,Win32,144.092219,,,,,,,,,,,,,,,,,,masks/mask_005.jpg,,,,,,,,,,,,,,,,,,,,,,,,,,,,,,,,,,,,,,,,,,,0,1,1,4,1,,,,,,,,,,,,,,,,,,,,,,,,,,,,,,,,,,,,,,,,,,,,,,
269194,001,2022-11-21_00h49.18.291,Info_measure_main_exp,2022.2.2,Win32,144.092219,,,,,,,,,,,,,,,,,,masks/mask_004.jpg,,,,,,,,,,,,,,,,,,,,,,,,,,,,,,,,,,,,,,,,,,,0,2,2,3,1,,,,,,,,,,,,,,,,,,,,,,,,,,,,,,,,,,,,,,,,,,,,,,
269194,001,2022-11-21_00h49.18.291,Info_measure_main_exp,2022.2.2,Win32,144.092219,,,,,,,,,,,,,,,,,,masks/mask_001.jpg,,,,,,,,,,,,,,,,,,,,,,,,,,,,,,,,,,,,,,,,,,,0,3,3,0,1,,,,,,,,,,,,,,,,,,,,,,,,,,,,,,,,,,,,,,,,,,,,,,
269194,001,2022-11-21_00h49.18.291,Info_measure_main_exp,2022.2.2,Win32,144.092219,,,,,,,,,,,,,,,,,,masks/mask_002.jpg,,,,,,,,,,,,,,,,,,,,,,,,,,,,,,,,,,,,,,,,,,,0,4,4,1,1,,,,,,,,,,,,,,,,,,,,,,,,,,,,,,,,,,,,,,,,,,,,,,
269194,001,2022-11-21_00h49.18.291,Info_measure_main_exp,2022.2.2,Win32,144.092219,,,,,,,,,,,,,,,,,,masks/mask_002.jpg,,,,,,,,,,,,,,,,,,,,,,,,,,,,,,,,,,,,,,,,,,,,,,,,0,0,0,1,1,,,,,,,,,,,,,,,,,,,,,,,,,,,,,,,,,,,,,,,,,
269194,001,2022-11-21_00h49.18.291,Info_measure_main_exp,2022.2.2,Win32,144.092219,,,,,,,,,,,,,,,,,,masks/mask_003.jpg,,,,,,,,,,,,,,,,,,,,,,,,,,,,,,,,,,,,,,,,,,,,,,,,0,1,1,2,1,,,,,,,,,,,,,,,,,,,,,,,,,,,,,,,,,,,,,,,,,
269194,001,2022-11-21_00h49.18.291,Info_measure_main_exp,2022.2.2,Win32,144.092219,,,,,,,,,,,,,,,,,,masks/mask_005.jpg,,,,,,,,,,,,,,,,,,,,,,,,,,,,,,,,,,,,,,,,,,,,,,,,0,2,2,4,1,,,,,,,,,,,,,,,,,,,,,,,,,,,,,,,,,,,,,,,,,
269194,001,2022-11-21_00h49.18.291,Info_measure_main_exp,2022.2.2,Win32,144.092219,,,,,,,,,,,,,,,,,,masks/mask_001.jpg,,,,,,,,,,,,,,,,,,,,,,,,,,,,,,,,,,,,,,,,,,,,,,,,0,3,3,0,1,,,,,,,,,,,,,,,,,,,,,,,,,,,,,,,,,,,,,,,,,
269194,001,2022-11-21_00h49.18.291,Info_measure_main_exp,2022.2.2,Win32,144.092219,,,,,,,,,,,,,,,,,,masks/mask_004.jpg,,,,,,,,,,,,,,,,,,,,,,,,,,,,,,,,,,,,,,,,,,,,,,,,0,4,4,3,1,,,,,,,,,,,,,,,,,,,,,,,,,,,,,,,,,,,,,,,,,
269194,001,2022-11-21_00h49.18.291,Info_measure_main_exp,2022.2.2,Win32,144.092219,,,,,,,,,,,,,,,,,,,,,,,,,,,,,,7,1.049,1,,,,,,,,,,,,0,131,5,5,2298,2178,absent_patch/patch0002298.jpg,absent_patch/patch0002178.jpg,,,,,,,,,,,,,,,,,,,,0.073148148,0.156481481,1,0,0,response1disk,2,-0.006481481,-0.010185185,1,0,0,center_square,0,1,1,84,1,,,,,,,,,,,,,,,,,,,,,,,
269194,001,2022-11-21_00h49.18.291,Info_measure_main_exp,2022.2.2,Win32,144.092219,,,,,,,,,,,,,,,,,,masks/mask_005.jpg,,,,,,,,,,,,,,,,,,,,,,,,,,,,,,,,,,,,,,,,,,,0,0,0,4,1,,,,,,,,,,,,,,,,,,,,,,,,,,,,,,,,,,,,,,,,,,,,,,
269194,001,2022-11-21_00h49.18.291,Info_measure_main_exp,2022.2.2,Win32,144.092219,,,,,,,,,,,,,,,,,,masks/mask_002.jpg,,,,,,,,,,,,,,,,,,,,,,,,,,,,,,,,,,,,,,,,,,,0,1,1,1,1,,,,,,,,,,,,,,,,,,,,,,,,,,,,,,,,,,,,,,,,,,,,,,
269194,001,2022-11-21_00h49.18.291,Info_measure_main_exp,2022.2.2,Win32,144.092219,,,,,,,,,,,,,,,,,,masks/mask_004.jpg,,,,,,,,,,,,,,,,,,,,,,,,,,,,,,,,,,,,,,,,,,,0,2,2,3,1,,,,,,,,,,,,,,,,,,,,,,,,,,,,,,,,,,,,,,,,,,,,,,
269194,001,2022-11-21_00h49.18.291,Info_measure_main_exp,2022.2.2,Win32,144.092219,,,,,,,,,,,,,,,,,,masks/mask_001.jpg,,,,,,,,,,,,,,,,,,,,,,,,,,,,,,,,,,,,,,,,,,,0,3,3,0,1,,,,,,,,,,,,,,,,,,,,,,,,,,,,,,,,,,,,,,,,,,,,,,
269194,001,2022-11-21_00h49.18.291,Info_measure_main_exp,2022.2.2,Win32,144.092219,,,,,,,,,,,,,,,,,,masks/mask_003.jpg,,,,,,,,,,,,,,,,,,,,,,,,,,,,,,,,,,,,,,,,,,,0,4,4,2,1,,,,,,,,,,,,,,,,,,,,,,,,,,,,,,,,,,,,,,,,,,,,,,
269194,001,2022-11-21_00h49.18.291,Info_measure_main_exp,2022.2.2,Win32,144.092219,,,,,,,,,,,,,,,,,,masks/mask_003.jpg,,,,,,,,,,,,,,,,,,,,,,,,,,,,,,,,,,,,,,,,,,,,,,,,0,0,0,2,1,,,,,,,,,,,,,,,,,,,,,,,,,,,,,,,,,,,,,,,,,
269194,001,2022-11-21_00h49.18.291,Info_measure_main_exp,2022.2.2,Win32,144.092219,,,,,,,,,,,,,,,,,,masks/mask_001.jpg,,,,,,,,,,,,,,,,,,,,,,,,,,,,,,,,,,,,,,,,,,,,,,,,0,1,1,0,1,,,,,,,,,,,,,,,,,,,,,,,,,,,,,,,,,,,,,,,,,
269194,001,2022-11-21_00h49.18.291,Info_measure_main_exp,2022.2.2,Win32,144.092219,,,,,,,,,,,,,,,,,,masks/mask_004.jpg,,,,,,,,,,,,,,,,,,,,,,,,,,,,,,,,,,,,,,,,,,,,,,,,0,2,2,3,1,,,,,,,,,,,,,,,,,,,,,,,,,,,,,,,,,,,,,,,,,
269194,001,2022-11-21_00h49.18.291,Info_measure_main_exp,2022.2.2,Win32,144.092219,,,,,,,,,,,,,,,,,,masks/mask_002.jpg,,,,,,,,,,,,,,,,,,,,,,,,,,,,,,,,,,,,,,,,,,,,,,,,0,3,3,1,1,,,,,,,,,,,,,,,,,,,,,,,,,,,,,,,,,,,,,,,,,
269194,001,2022-11-21_00h49.18.291,Info_measure_main_exp,2022.2.2,Win32,144.092219,,,,,,,,,,,,,,,,,,masks/mask_005.jpg,,,,,,,,,,,,,,,,,,,,,,,,,,,,,,,,,,,,,,,,,,,,,,,,0,4,4,4,1,,,,,,,,,,,,,,,,,,,,,,,,,,,,,,,,,,,,,,,,,
269194,001,2022-11-21_00h49.18.291,Info_measure_main_exp,2022.2.2,Win32,144.092219,,,,,,,,,,,,,,,,,,,,,,,,,,,,,,5,0.666,1,,,,,,,,,,,,0,131,5,5,2214,2142,absent_patch/patch0002214.jpg,absent_patch/patch0002142.jpg,,,,,,,,,,,,,,,,,,,,0.146296296,-0.065740741,1,0,0,response3disk,3,0,0.001851852,1,0,0,center_square,0,2,2,102,1,,,,,,,,,,,,,,,,,,,,,,,
269194,001,2022-11-21_00h49.18.291,Info_measure_main_exp,2022.2.2,Win32,144.092219,,,,,,,,,,,,,,,,,,masks/mask_003.jpg,,,,,,,,,,,,,,,,,,,,,,,,,,,,,,,,,,,,,,,,,,,0,0,0,2,1,,,,,,,,,,,,,,,,,,,,,,,,,,,,,,,,,,,,,,,,,,,,,,
269194,001,2022-11-21_00h49.18.291,Info_measure_main_exp,2022.2.2,Win32,144.092219,,,,,,,,,,,,,,,,,,masks/mask_001.jpg,,,,,,,,,,,,,,,,,,,,,,,,,,,,,,,,,,,,,,,,,,,0,1,1,0,1,,,,,,,,,,,,,,,,,,,,,,,,,,,,,,,,,,,,,,,,,,,,,,
269194,001,2022-11-21_00h49.18.291,Info_measure_main_exp,2022.2.2,Win32,144.092219,,,,,,,,,,,,,,,,,,masks/mask_004.jpg,,,,,,,,,,,,,,,,,,,,,,,,,,,,,,,,,,,,,,,,,,,0,2,2,3,1,,,,,,,,,,,,,,,,,,,,,,,,,,,,,,,,,,,,,,,,,,,,,,
269194,001,2022-11-21_00h49.18.291,Info_measure_main_exp,2022.2.2,Win32,144.092219,,,,,,,,,,,,,,,,,,masks/mask_002.jpg,,,,,,,,,,,,,,,,,,,,,,,,,,,,,,,,,,,,,,,,,,,0,3,3,1,1,,,,,,,,,,,,,,,,,,,,,,,,,,,,,,,,,,,,,,,,,,,,,,
269194,001,2022-11-21_00h49.18.291,Info_measure_main_exp,2022.2.2,Win32,144.092219,,,,,,,,,,,,,,,,,,masks/mask_005.jpg,,,,,,,,,,,,,,,,,,,,,,,,,,,,,,,,,,,,,,,,,,,0,4,4,4,1,,,,,,,,,,,,,,,,,,,,,,,,,,,,,,,,,,,,,,,,,,,,,,
269194,001,2022-11-21_00h49.18.291,Info_measure_main_exp,2022.2.2,Win32,144.092219,,,,,,,,,,,,,,,,,,masks/mask_001.jpg,,,,,,,,,,,,,,,,,,,,,,,,,,,,,,,,,,,,,,,,,,,,,,,,0,0,0,0,1,,,,,,,,,,,,,,,,,,,,,,,,,,,,,,,,,,,,,,,,,
269194,001,2022-11-21_00h49.18.291,Info_measure_main_exp,2022.2.2,Win32,144.092219,,,,,,,,,,,,,,,,,,masks/mask_003.jpg,,,,,,,,,,,,,,,,,,,,,,,,,,,,,,,,,,,,,,,,,,,,,,,,0,1,1,2,1,,,,,,,,,,,,,,,,,,,,,,,,,,,,,,,,,,,,,,,,,
269194,001,2022-11-21_00h49.18.291,Info_measure_main_exp,2022.2.2,Win32,144.092219,,,,,,,,,,,,,,,,,,masks/mask_002.jpg,,,,,,,,,,,,,,,,,,,,,,,,,,,,,,,,,,,,,,,,,,,,,,,,0,2,2,1,1,,,,,,,,,,,,,,,,,,,,,,,,,,,,,,,,,,,,,,,,,
269194,001,2022-11-21_00h49.18.291,Info_measure_main_exp,2022.2.2,Win32,144.092219,,,,,,,,,,,,,,,,,,masks/mask_004.jpg,,,,,,,,,,,,,,,,,,,,,,,,,,,,,,,,,,,,,,,,,,,,,,,,0,3,3,3,1,,,,,,,,,,,,,,,,,,,,,,,,,,,,,,,,,,,,,,,,,
269194,001,2022-11-21_00h49.18.291,Info_measure_main_exp,2022.2.2,Win32,144.092219,,,,,,,,,,,,,,,,,,masks/mask_005.jpg,,,,,,,,,,,,,,,,,,,,,,,,,,,,,,,,,,,,,,,,,,,,,,,,0,4,4,4,1,,,,,,,,,,,,,,,,,,,,,,,,,,,,,,,,,,,,,,,,,
269194,001,2022-11-21_00h49.18.291,Info_measure_main_exp,2022.2.2,Win32,144.092219,,,,,,,,,,,,,,,,,,,,,,,,,,,,,,5,1.701,1,,,,,,,,,,,,0,131,5,5,2142,2082,absent_patch/patch0002142.jpg,absent_patch/patch0002082.jpg,,,,,,,,,,,,,,,,,,,,0.136111111,-0.044444444,1,0,0,response3disk,4,-0.000925926,-0.010185185,1,0,0,center_square,0,3,3,88,1,,,,,,,,,,,,,,,,,,,,,,,
269194,001,2022-11-21_00h49.18.291,Info_measure_main_exp,2022.2.2,Win32,144.092219,,,,,,,,,,,,,,,,,,masks/mask_005.jpg,,,,,,,,,,,,,,,,,,,,,,,,,,,,,,,,,,,,,,,,,,,0,0,0,4,1,,,,,,,,,,,,,,,,,,,,,,,,,,,,,,,,,,,,,,,,,,,,,,
269194,001,2022-11-21_00h49.18.291,Info_measure_main_exp,2022.2.2,Win32,144.092219,,,,,,,,,,,,,,,,,,masks/mask_001.jpg,,,,,,,,,,,,,,,,,,,,,,,,,,,,,,,,,,,,,,,,,,,0,1,1,0,1,,,,,,,,,,,,,,,,,,,,,,,,,,,,,,,,,,,,,,,,,,,,,,
269194,001,2022-11-21_00h49.18.291,Info_measure_main_exp,2022.2.2,Win32,144.092219,,,,,,,,,,,,,,,,,,masks/mask_002.jpg,,,,,,,,,,,,,,,,,,,,,,,,,,,,,,,,,,,,,,,,,,,0,2,2,1,1,,,,,,,,,,,,,,,,,,,,,,,,,,,,,,,,,,,,,,,,,,,,,,
269194,001,2022-11-21_00h49.18.291,Info_measure_main_exp,2022.2.2,Win32,144.092219,,,,,,,,,,,,,,,,,,masks/mask_003.jpg,,,,,,,,,,,,,,,,,,,,,,,,,,,,,,,,,,,,,,,,,,,0,3,3,2,1,,,,,,,,,,,,,,,,,,,,,,,,,,,,,,,,,,,,,,,,,,,,,,
269194,001,2022-11-21_00h49.18.291,Info_measure_main_exp,2022.2.2,Win32,144.092219,,,,,,,,,,,,,,,,,,masks/mask_004.jpg,,,,,,,,,,,,,,,,,,,,,,,,,,,,,,,,,,,,,,,,,,,0,4,4,3,1,,,,,,,,,,,,,,,,,,,,,,,,,,,,,,,,,,,,,,,,,,,,,,
269194,001,2022-11-21_00h49.18.291,Info_measure_main_exp,2022.2.2,Win32,144.092219,,,,,,,,,,,,,,,,,,masks/mask_001.jpg,,,,,,,,,,,,,,,,,,,,,,,,,,,,,,,,,,,,,,,,,,,,,,,,0,0,0,0,1,,,,,,,,,,,,,,,,,,,,,,,,,,,,,,,,,,,,,,,,,
269194,001,2022-11-21_00h49.18.291,Info_measure_main_exp,2022.2.2,Win32,144.092219,,,,,,,,,,,,,,,,,,masks/mask_004.jpg,,,,,,,,,,,,,,,,,,,,,,,,,,,,,,,,,,,,,,,,,,,,,,,,0,1,1,3,1,,,,,,,,,,,,,,,,,,,,,,,,,,,,,,,,,,,,,,,,,
269194,001,2022-11-21_00h49.18.291,Info_measure_main_exp,2022.2.2,Win32,144.092219,,,,,,,,,,,,,,,,,,masks/mask_003.jpg,,,,,,,,,,,,,,,,,,,,,,,,,,,,,,,,,,,,,,,,,,,,,,,,0,2,2,2,1,,,,,,,,,,,,,,,,,,,,,,,,,,,,,,,,,,,,,,,,,
269194,001,2022-11-21_00h49.18.291,Info_measure_main_exp,2022.2.2,Win32,144.092219,,,,,,,,,,,,,,,,,,masks/mask_002.jpg,,,,,,,,,,,,,,,,,,,,,,,,,,,,,,,,,,,,,,,,,,,,,,,,0,3,3,1,1,,,,,,,,,,,,,,,,,,,,,,,,,,,,,,,,,,,,,,,,,
269194,001,2022-11-21_00h49.18.291,Info_measure_main_exp,2022.2.2,Win32,144.092219,,,,,,,,,,,,,,,,,,masks/mask_005.jpg,,,,,,,,,,,,,,,,,,,,,,,,,,,,,,,,,,,,,,,,,,,,,,,,0,4,4,4,1,,,,,,,,,,,,,,,,,,,,,,,,,,,,,,,,,,,,,,,,,
269194,001,2022-11-21_00h49.18.291,Info_measure_main_exp,2022.2.2,Win32,144.092219,,,,,,,,,,,,,,,,,,,,,,,,,,,,,,3,0.987,1,,,,,,,,,,,,0,131,5,5,1974,2166,absent_patch/patch0001974.jpg,absent_patch/patch0002166.jpg,,,,,,,,,,,,,,,,,,,,-0.078703704,-0.133333333,1,0,0,response5disk,5,-0.009259259,-0.000925926,1,0,0,center_square,0,4,4,77,1,,,,,,,,,,,,,,,,,,,,,,,
269194,001,2022-11-21_00h49.18.291,Info_measure_main_exp,2022.2.2,Win32,144.092219,,,,,,,,,,,,,,,,,,masks/mask_001.jpg,,,,,,,,,,,,,,,,,,,,,,,,,,,,,,,,,,,,,,,,,,,0,0,0,0,1,,,,,,,,,,,,,,,,,,,,,,,,,,,,,,,,,,,,,,,,,,,,,,
269194,001,2022-11-21_00h49.18.291,Info_measure_main_exp,2022.2.2,Win32,144.092219,,,,,,,,,,,,,,,,,,masks/mask_003.jpg,,,,,,,,,,,,,,,,,,,,,,,,,,,,,,,,,,,,,,,,,,,0,1,1,2,1,,,,,,,,,,,,,,,,,,,,,,,,,,,,,,,,,,,,,,,,,,,,,,
269194,001,2022-11-21_00h49.18.291,Info_measure_main_exp,2022.2.2,Win32,144.092219,,,,,,,,,,,,,,,,,,masks/mask_005.jpg,,,,,,,,,,,,,,,,,,,,,,,,,,,,,,,,,,,,,,,,,,,0,2,2,4,1,,,,,,,,,,,,,,,,,,,,,,,,,,,,,,,,,,,,,,,,,,,,,,
269194,001,2022-11-21_00h49.18.291,Info_measure_main_exp,2022.2.2,Win32,144.092219,,,,,,,,,,,,,,,,,,masks/mask_002.jpg,,,,,,,,,,,,,,,,,,,,,,,,,,,,,,,,,,,,,,,,,,,0,3,3,1,1,,,,,,,,,,,,,,,,,,,,,,,,,,,,,,,,,,,,,,,,,,,,,,
269194,001,2022-11-21_00h49.18.291,Info_measure_main_exp,2022.2.2,Win32,144.092219,,,,,,,,,,,,,,,,,,masks/mask_004.jpg,,,,,,,,,,,,,,,,,,,,,,,,,,,,,,,,,,,,,,,,,,,0,4,4,3,1,,,,,,,,,,,,,,,,,,,,,,,,,,,,,,,,,,,,,,,,,,,,,,
269194,001,2022-11-21_00h49.18.291,Info_measure_main_exp,2022.2.2,Win32,144.092219,,,,,,,,,,,,,,,,,,masks/mask_001.jpg,,,,,,,,,,,,,,,,,,,,,,,,,,,,,,,,,,,,,,,,,,,,,,,,0,0,0,0,1,,,,,,,,,,,,,,,,,,,,,,,,,,,,,,,,,,,,,,,,,
269194,001,2022-11-21_00h49.18.291,Info_measure_main_exp,2022.2.2,Win32,144.092219,,,,,,,,,,,,,,,,,,masks/mask_003.jpg,,,,,,,,,,,,,,,,,,,,,,,,,,,,,,,,,,,,,,,,,,,,,,,,0,1,1,2,1,,,,,,,,,,,,,,,,,,,,,,,,,,,,,,,,,,,,,,,,,
269194,001,2022-11-21_00h49.18.291,Info_measure_main_exp,2022.2.2,Win32,144.092219,,,,,,,,,,,,,,,,,,masks/mask_002.jpg,,,,,,,,,,,,,,,,,,,,,,,,,,,,,,,,,,,,,,,,,,,,,,,,0,2,2,1,1,,,,,,,,,,,,,,,,,,,,,,,,,,,,,,,,,,,,,,,,,
269194,001,2022-11-21_00h49.18.291,Info_measure_main_exp,2022.2.2,Win32,144.092219,,,,,,,,,,,,,,,,,,masks/mask_004.jpg,,,,,,,,,,,,,,,,,,,,,,,,,,,,,,,,,,,,,,,,,,,,,,,,0,3,3,3,1,,,,,,,,,,,,,,,,,,,,,,,,,,,,,,,,,,,,,,,,,
269194,001,2022-11-21_00h49.18.291,Info_measure_main_exp,2022.2.2,Win32,144.092219,,,,,,,,,,,,,,,,,,masks/mask_005.jpg,,,,,,,,,,,,,,,,,,,,,,,,,,,,,,,,,,,,,,,,,,,,,,,,0,4,4,4,1,,,,,,,,,,,,,,,,,,,,,,,,,,,,,,,,,,,,,,,,,
269194,001,2022-11-21_00h49.18.291,Info_measure_main_exp,2022.2.2,Win32,144.092219,,,,,,,,,,,,,,,,,,,,,,,,,,,,,,4,1.006,1,,,,,,,,,,,,0,131,5,5,2082,1986,absent_patch/patch0002082.jpg,absent_patch/patch0001986.jpg,,,,,,,,,,,,,,,,,,,,0.067592593,-0.127777778,1,0,0,response3disk,6,-0.007407407,0.012962963,1,0,0,center_square,0,5,5,94,1,,,,,,,,,,,,,,,,,,,,,,,
269194,001,2022-11-21_00h49.18.291,Info_measure_main_exp,2022.2.2,Win32,144.092219,,,,,,,,,,,,,,,,,,masks/mask_003.jpg,,,,,,,,,,,,,,,,,,,,,,,,,,,,,,,,,,,,,,,,,,,0,0,0,2,1,,,,,,,,,,,,,,,,,,,,,,,,,,,,,,,,,,,,,,,,,,,,,,
269194,001,2022-11-21_00h49.18.291,Info_measure_main_exp,2022.2.2,Win32,144.092219,,,,,,,,,,,,,,,,,,masks/mask_004.jpg,,,,,,,,,,,,,,,,,,,,,,,,,,,,,,,,,,,,,,,,,,,0,1,1,3,1,,,,,,,,,,,,,,,,,,,,,,,,,,,,,,,,,,,,,,,,,,,,,,
269194,001,2022-11-21_00h49.18.291,Info_measure_main_exp,2022.2.2,Win32,144.092219,,,,,,,,,,,,,,,,,,masks/mask_001.jpg,,,,,,,,,,,,,,,,,,,,,,,,,,,,,,,,,,,,,,,,,,,0,2,2,0,1,,,,,,,,,,,,,,,,,,,,,,,,,,,,,,,,,,,,,,,,,,,,,,
269194,001,2022-11-21_00h49.18.291,Info_measure_main_exp,2022.2.2,Win32,144.092219,,,,,,,,,,,,,,,,,,masks/mask_002.jpg,,,,,,,,,,,,,,,,,,,,,,,,,,,,,,,,,,,,,,,,,,,0,3,3,1,1,,,,,,,,,,,,,,,,,,,,,,,,,,,,,,,,,,,,,,,,,,,,,,
269194,001,2022-11-21_00h49.18.291,Info_measure_main_exp,2022.2.2,Win32,144.092219,,,,,,,,,,,,,,,,,,masks/mask_005.jpg,,,,,,,,,,,,,,,,,,,,,,,,,,,,,,,,,,,,,,,,,,,0,4,4,4,1,,,,,,,,,,,,,,,,,,,,,,,,,,,,,,,,,,,,,,,,,,,,,,
269194,001,2022-11-21_00h49.18.291,Info_measure_main_exp,2022.2.2,Win32,144.092219,,,,,,,,,,,,,,,,,,masks/mask_001.jpg,,,,,,,,,,,,,,,,,,,,,,,,,,,,,,,,,,,,,,,,,,,,,,,,0,0,0,0,1,,,,,,,,,,,,,,,,,,,,,,,,,,,,,,,,,,,,,,,,,
269194,001,2022-11-21_00h49.18.291,Info_measure_main_exp,2022.2.2,Win32,144.092219,,,,,,,,,,,,,,,,,,masks/mask_005.jpg,,,,,,,,,,,,,,,,,,,,,,,,,,,,,,,,,,,,,,,,,,,,,,,,0,1,1,4,1,,,,,,,,,,,,,,,,,,,,,,,,,,,,,,,,,,,,,,,,,
269194,001,2022-11-21_00h49.18.291,Info_measure_main_exp,2022.2.2,Win32,144.092219,,,,,,,,,,,,,,,,,,masks/mask_002.jpg,,,,,,,,,,,,,,,,,,,,,,,,,,,,,,,,,,,,,,,,,,,,,,,,0,2,2,1,1,,,,,,,,,,,,,,,,,,,,,,,,,,,,,,,,,,,,,,,,,
269194,001,2022-11-21_00h49.18.291,Info_measure_main_exp,2022.2.2,Win32,144.092219,,,,,,,,,,,,,,,,,,masks/mask_004.jpg,,,,,,,,,,,,,,,,,,,,,,,,,,,,,,,,,,,,,,,,,,,,,,,,0,3,3,3,1,,,,,,,,,,,,,,,,,,,,,,,,,,,,,,,,,,,,,,,,,
269194,001,2022-11-21_00h49.18.291,Info_measure_main_exp,2022.2.2,Win32,144.092219,,,,,,,,,,,,,,,,,,masks/mask_003.jpg,,,,,,,,,,,,,,,,,,,,,,,,,,,,,,,,,,,,,,,,,,,,,,,,0,4,4,2,1,,,,,,,,,,,,,,,,,,,,,,,,,,,,,,,,,,,,,,,,,
269194,001,2022-11-21_00h49.18.291,Info_measure_main_exp,2022.2.2,Win32,144.092219,,,,,,,,,,,,,,,,,,,,,,,,,,,,,,6,0.841,1,,,,,,,,,,,,0,131,5,5,2178,2238,absent_patch/patch0002178.jpg,absent_patch/patch0002238.jpg,,,,,,,,,,,,,,,,,,,,0.222222222,0.016666667,1,0,0,response1disk,7,-0.012037037,-0.010185185,1,0,0,center_square,0,6,6,57,1,,,,,,,,,,,,,,,,,,,,,,,
269194,001,2022-11-21_00h49.18.291,Info_measure_main_exp,2022.2.2,Win32,144.092219,,,,,,,,,,,,,,,,,,masks/mask_002.jpg,,,,,,,,,,,,,,,,,,,,,,,,,,,,,,,,,,,,,,,,,,,0,0,0,1,1,,,,,,,,,,,,,,,,,,,,,,,,,,,,,,,,,,,,,,,,,,,,,,
269194,001,2022-11-21_00h49.18.291,Info_measure_main_exp,2022.2.2,Win32,144.092219,,,,,,,,,,,,,,,,,,masks/mask_001.jpg,,,,,,,,,,,,,,,,,,,,,,,,,,,,,,,,,,,,,,,,,,,0,1,1,0,1,,,,,,,,,,,,,,,,,,,,,,,,,,,,,,,,,,,,,,,,,,,,,,
269194,001,2022-11-21_00h49.18.291,Info_measure_main_exp,2022.2.2,Win32,144.092219,,,,,,,,,,,,,,,,,,masks/mask_004.jpg,,,,,,,,,,,,,,,,,,,,,,,,,,,,,,,,,,,,,,,,,,,0,2,2,3,1,,,,,,,,,,,,,,,,,,,,,,,,,,,,,,,,,,,,,,,,,,,,,,
269194,001,2022-11-21_00h49.18.291,Info_measure_main_exp,2022.2.2,Win32,144.092219,,,,,,,,,,,,,,,,,,masks/mask_005.jpg,,,,,,,,,,,,,,,,,,,,,,,,,,,,,,,,,,,,,,,,,,,0,3,3,4,1,,,,,,,,,,,,,,,,,,,,,,,,,,,,,,,,,,,,,,,,,,,,,,
269194,001,2022-11-21_00h49.18.291,Info_measure_main_exp,2022.2.2,Win32,144.092219,,,,,,,,,,,,,,,,,,masks/mask_003.jpg,,,,,,,,,,,,,,,,,,,,,,,,,,,,,,,,,,,,,,,,,,,0,4,4,2,1,,,,,,,,,,,,,,,,,,,,,,,,,,,,,,,,,,,,,,,,,,,,,,
269194,001,2022-11-21_00h49.18.291,Info_measure_main_exp,2022.2.2,Win32,144.092219,,,,,,,,,,,,,,,,,,masks/mask_004.jpg,,,,,,,,,,,,,,,,,,,,,,,,,,,,,,,,,,,,,,,,,,,,,,,,0,0,0,3,1,,,,,,,,,,,,,,,,,,,,,,,,,,,,,,,,,,,,,,,,,
269194,001,2022-11-21_00h49.18.291,Info_measure_main_exp,2022.2.2,Win32,144.092219,,,,,,,,,,,,,,,,,,masks/mask_001.jpg,,,,,,,,,,,,,,,,,,,,,,,,,,,,,,,,,,,,,,,,,,,,,,,,0,1,1,0,1,,,,,,,,,,,,,,,,,,,,,,,,,,,,,,,,,,,,,,,,,
269194,001,2022-11-21_00h49.18.291,Info_measure_main_exp,2022.2.2,Win32,144.092219,,,,,,,,,,,,,,,,,,masks/mask_003.jpg,,,,,,,,,,,,,,,,,,,,,,,,,,,,,,,,,,,,,,,,,,,,,,,,0,2,2,2,1,,,,,,,,,,,,,,,,,,,,,,,,,,,,,,,,,,,,,,,,,
269194,001,2022-11-21_00h49.18.291,Info_measure_main_exp,2022.2.2,Win32,144.092219,,,,,,,,,,,,,,,,,,masks/mask_005.jpg,,,,,,,,,,,,,,,,,,,,,,,,,,,,,,,,,,,,,,,,,,,,,,,,0,3,3,4,1,,,,,,,,,,,,,,,,,,,,,,,,,,,,,,,,,,,,,,,,,
269194,001,2022-11-21_00h49.18.291,Info_measure_main_exp,2022.2.2,Win32,144.092219,,,,,,,,,,,,,,,,,,masks/mask_002.jpg,,,,,,,,,,,,,,,,,,,,,,,,,,,,,,,,,,,,,,,,,,,,,,,,0,4,4,1,1,,,,,,,,,,,,,,,,,,,,,,,,,,,,,,,,,,,,,,,,,
269194,001,2022-11-21_00h49.18.291,Info_measure_main_exp,2022.2.2,Win32,144.092219,,,,,,,,,,,,,,,,,,,,,,,,,,,,,,5,1.097,1,,,,,,,,,,,,0,131,5,5,2298,1986,absent_patch/patch0002298.jpg,absent_patch/patch0001986.jpg,,,,,,,,,,,,,,,,,,,,0.135185185,-0.087037037,1,0,0,response3disk,8,-0.010185185,-0.014814815,1,0,0,center_square,0,7,7,32,1,,,,,,,,,,,,,,,,,,,,,,,
269194,001,2022-11-21_00h49.18.291,Info_measure_main_exp,2022.2.2,Win32,144.092219,,,,,,,,,,,,,,,,,,masks/mask_005.jpg,,,,,,,,,,,,,,,,,,,,,,,,,,,,,,,,,,,,,,,,,,,0,0,0,4,1,,,,,,,,,,,,,,,,,,,,,,,,,,,,,,,,,,,,,,,,,,,,,,
269194,001,2022-11-21_00h49.18.291,Info_measure_main_exp,2022.2.2,Win32,144.092219,,,,,,,,,,,,,,,,,,masks/mask_001.jpg,,,,,,,,,,,,,,,,,,,,,,,,,,,,,,,,,,,,,,,,,,,0,1,1,0,1,,,,,,,,,,,,,,,,,,,,,,,,,,,,,,,,,,,,,,,,,,,,,,
269194,001,2022-11-21_00h49.18.291,Info_measure_main_exp,2022.2.2,Win32,144.092219,,,,,,,,,,,,,,,,,,masks/mask_004.jpg,,,,,,,,,,,,,,,,,,,,,,,,,,,,,,,,,,,,,,,,,,,0,2,2,3,1,,,,,,,,,,,,,,,,,,,,,,,,,,,,,,,,,,,,,,,,,,,,,,
269194,001,2022-11-21_00h49.18.291,Info_measure_main_exp,2022.2.2,Win32,144.092219,,,,,,,,,,,,,,,,,,masks/mask_003.jpg,,,,,,,,,,,,,,,,,,,,,,,,,,,,,,,,,,,,,,,,,,,0,3,3,2,1,,,,,,,,,,,,,,,,,,,,,,,,,,,,,,,,,,,,,,,,,,,,,,
269194,001,2022-11-21_00h49.18.291,Info_measure_main_exp,2022.2.2,Win32,144.092219,,,,,,,,,,,,,,,,,,masks/mask_002.jpg,,,,,,,,,,,,,,,,,,,,,,,,,,,,,,,,,,,,,,,,,,,0,4,4,1,1,,,,,,,,,,,,,,,,,,,,,,,,,,,,,,,,,,,,,,,,,,,,,,
269194,001,2022-11-21_00h49.18.291,Info_measure_main_exp,2022.2.2,Win32,144.092219,,,,,,,,,,,,,,,,,,masks/mask_004.jpg,,,,,,,,,,,,,,,,,,,,,,,,,,,,,,,,,,,,,,,,,,,,,,,,0,0,0,3,1,,,,,,,,,,,,,,,,,,,,,,,,,,,,,,,,,,,,,,,,,
269194,001,2022-11-21_00h49.18.291,Info_measure_main_exp,2022.2.2,Win32,144.092219,,,,,,,,,,,,,,,,,,masks/mask_003.jpg,,,,,,,,,,,,,,,,,,,,,,,,,,,,,,,,,,,,,,,,,,,,,,,,0,1,1,2,1,,,,,,,,,,,,,,,,,,,,,,,,,,,,,,,,,,,,,,,,,
269194,001,2022-11-21_00h49.18.291,Info_measure_main_exp,2022.2.2,Win32,144.092219,,,,,,,,,,,,,,,,,,masks/mask_005.jpg,,,,,,,,,,,,,,,,,,,,,,,,,,,,,,,,,,,,,,,,,,,,,,,,0,2,2,4,1,,,,,,,,,,,,,,,,,,,,,,,,,,,,,,,,,,,,,,,,,
269194,001,2022-11-21_00h49.18.291,Info_measure_main_exp,2022.2.2,Win32,144.092219,,,,,,,,,,,,,,,,,,masks/mask_001.jpg,,,,,,,,,,,,,,,,,,,,,,,,,,,,,,,,,,,,,,,,,,,,,,,,0,3,3,0,1,,,,,,,,,,,,,,,,,,,,,,,,,,,,,,,,,,,,,,,,,
269194,001,2022-11-21_00h49.18.291,Info_measure_main_exp,2022.2.2,Win32,144.092219,,,,,,,,,,,,,,,,,,masks/mask_002.jpg,,,,,,,,,,,,,,,,,,,,,,,,,,,,,,,,,,,,,,,,,,,,,,,,0,4,4,1,1,,,,,,,,,,,,,,,,,,,,,,,,,,,,,,,,,,,,,,,,,
269194,001,2022-11-21_00h49.18.291,Info_measure_main_exp,2022.2.2,Win32,144.092219,,,,,,,,,,,,,,,,,,,,,,,,,,,,,,6,1.021,1,,,,,,,,,,,,0,131,5,5,1974,2238,absent_patch/patch0001974.jpg,absent_patch/patch0002238.jpg,,,,,,,,,,,,,,,,,,,,0.132407407,0.084259259,1,0,0,response1disk,9,0.001851852,-0.009259259,1,0,0,center_square,0,8,8,95,1,,,,,,,,,,,,,,,,,,,,,,,
269194,001,2022-11-21_00h49.18.291,Info_measure_main_exp,2022.2.2,Win32,144.092219,,,,,,,,,,,,,,,,,,masks/mask_005.jpg,,,,,,,,,,,,,,,,,,,,,,,,,,,,,,,,,,,,,,,,,,,0,0,0,4,1,,,,,,,,,,,,,,,,,,,,,,,,,,,,,,,,,,,,,,,,,,,,,,
269194,001,2022-11-21_00h49.18.291,Info_measure_main_exp,2022.2.2,Win32,144.092219,,,,,,,,,,,,,,,,,,masks/mask_003.jpg,,,,,,,,,,,,,,,,,,,,,,,,,,,,,,,,,,,,,,,,,,,0,1,1,2,1,,,,,,,,,,,,,,,,,,,,,,,,,,,,,,,,,,,,,,,,,,,,,,
269194,001,2022-11-21_00h49.18.291,Info_measure_main_exp,2022.2.2,Win32,144.092219,,,,,,,,,,,,,,,,,,masks/mask_004.jpg,,,,,,,,,,,,,,,,,,,,,,,,,,,,,,,,,,,,,,,,,,,0,2,2,3,1,,,,,,,,,,,,,,,,,,,,,,,,,,,,,,,,,,,,,,,,,,,,,,
269194,001,2022-11-21_00h49.18.291,Info_measure_main_exp,2022.2.2,Win32,144.092219,,,,,,,,,,,,,,,,,,masks/mask_002.jpg,,,,,,,,,,,,,,,,,,,,,,,,,,,,,,,,,,,,,,,,,,,0,3,3,1,1,,,,,,,,,,,,,,,,,,,,,,,,,,,,,,,,,,,,,,,,,,,,,,
269194,001,2022-11-21_00h49.18.291,Info_measure_main_exp,2022.2.2,Win32,144.092219,,,,,,,,,,,,,,,,,,masks/mask_001.jpg,,,,,,,,,,,,,,,,,,,,,,,,,,,,,,,,,,,,,,,,,,,0,4,4,0,1,,,,,,,,,,,,,,,,,,,,,,,,,,,,,,,,,,,,,,,,,,,,,,
269194,001,2022-11-21_00h49.18.291,Info_measure_main_exp,2022.2.2,Win32,144.092219,,,,,,,,,,,,,,,,,,masks/mask_001.jpg,,,,,,,,,,,,,,,,,,,,,,,,,,,,,,,,,,,,,,,,,,,,,,,,0,0,0,0,1,,,,,,,,,,,,,,,,,,,,,,,,,,,,,,,,,,,,,,,,,
269194,001,2022-11-21_00h49.18.291,Info_measure_main_exp,2022.2.2,Win32,144.092219,,,,,,,,,,,,,,,,,,masks/mask_002.jpg,,,,,,,,,,,,,,,,,,,,,,,,,,,,,,,,,,,,,,,,,,,,,,,,0,1,1,1,1,,,,,,,,,,,,,,,,,,,,,,,,,,,,,,,,,,,,,,,,,
269194,001,2022-11-21_00h49.18.291,Info_measure_main_exp,2022.2.2,Win32,144.092219,,,,,,,,,,,,,,,,,,masks/mask_005.jpg,,,,,,,,,,,,,,,,,,,,,,,,,,,,,,,,,,,,,,,,,,,,,,,,0,2,2,4,1,,,,,,,,,,,,,,,,,,,,,,,,,,,,,,,,,,,,,,,,,
269194,001,2022-11-21_00h49.18.291,Info_measure_main_exp,2022.2.2,Win32,144.092219,,,,,,,,,,,,,,,,,,masks/mask_004.jpg,,,,,,,,,,,,,,,,,,,,,,,,,,,,,,,,,,,,,,,,,,,,,,,,0,3,3,3,1,,,,,,,,,,,,,,,,,,,,,,,,,,,,,,,,,,,,,,,,,
269194,001,2022-11-21_00h49.18.291,Info_measure_main_exp,2022.2.2,Win32,144.092219,,,,,,,,,,,,,,,,,,masks/mask_003.jpg,,,,,,,,,,,,,,,,,,,,,,,,,,,,,,,,,,,,,,,,,,,,,,,,0,4,4,2,1,,,,,,,,,,,,,,,,,,,,,,,,,,,,,,,,,,,,,,,,,
269194,001,2022-11-21_00h49.18.291,Info_measure_main_exp,2022.2.2,Win32,144.092219,,,,,,,,,,,,,,,,,,,,,,,,,,,,,,4,1.937,1,,,,,,,,,,,,0,131,5,5,1974,2298,absent_patch/patch0001974.jpg,absent_patch/patch0002298.jpg,,,,,,,,,,,,,,,,,,,,0.07962963,-0.142592593,1,0,0,response3disk,10,0.012037037,-0.00462963,1,0,0,center_square,0,9,9,6,1,,,,,,,,,,,,,,,,,,,,,,,
269194,001,2022-11-21_00h49.18.291,Info_measure_main_exp,2022.2.2,Win32,144.092219,,,,,,,,,,,,,,,,,,masks/mask_005.jpg,,,,,,,,,,,,,,,,,,,,,,,,,,,,,,,,,,,,,,,,,,,0,0,0,4,1,,,,,,,,,,,,,,,,,,,,,,,,,,,,,,,,,,,,,,,,,,,,,,
269194,001,2022-11-21_00h49.18.291,Info_measure_main_exp,2022.2.2,Win32,144.092219,,,,,,,,,,,,,,,,,,masks/mask_004.jpg,,,,,,,,,,,,,,,,,,,,,,,,,,,,,,,,,,,,,,,,,,,0,1,1,3,1,,,,,,,,,,,,,,,,,,,,,,,,,,,,,,,,,,,,,,,,,,,,,,
269194,001,2022-11-21_00h49.18.291,Info_measure_main_exp,2022.2.2,Win32,144.092219,,,,,,,,,,,,,,,,,,masks/mask_003.jpg,,,,,,,,,,,,,,,,,,,,,,,,,,,,,,,,,,,,,,,,,,,0,2,2,2,1,,,,,,,,,,,,,,,,,,,,,,,,,,,,,,,,,,,,,,,,,,,,,,
269194,001,2022-11-21_00h49.18.291,Info_measure_main_exp,2022.2.2,Win32,144.092219,,,,,,,,,,,,,,,,,,masks/mask_002.jpg,,,,,,,,,,,,,,,,,,,,,,,,,,,,,,,,,,,,,,,,,,,0,3,3,1,1,,,,,,,,,,,,,,,,,,,,,,,,,,,,,,,,,,,,,,,,,,,,,,
269194,001,2022-11-21_00h49.18.291,Info_measure_main_exp,2022.2.2,Win32,144.092219,,,,,,,,,,,,,,,,,,masks/mask_001.jpg,,,,,,,,,,,,,,,,,,,,,,,,,,,,,,,,,,,,,,,,,,,0,4,4,0,1,,,,,,,,,,,,,,,,,,,,,,,,,,,,,,,,,,,,,,,,,,,,,,
269194,001,2022-11-21_00h49.18.291,Info_measure_main_exp,2022.2.2,Win32,144.092219,,,,,,,,,,,,,,,,,,masks/mask_003.jpg,,,,,,,,,,,,,,,,,,,,,,,,,,,,,,,,,,,,,,,,,,,,,,,,0,0,0,2,1,,,,,,,,,,,,,,,,,,,,,,,,,,,,,,,,,,,,,,,,,
269194,001,2022-11-21_00h49.18.291,Info_measure_main_exp,2022.2.2,Win32,144.092219,,,,,,,,,,,,,,,,,,masks/mask_005.jpg,,,,,,,,,,,,,,,,,,,,,,,,,,,,,,,,,,,,,,,,,,,,,,,,0,1,1,4,1,,,,,,,,,,,,,,,,,,,,,,,,,,,,,,,,,,,,,,,,,
269194,001,2022-11-21_00h49.18.291,Info_measure_main_exp,2022.2.2,Win32,144.092219,,,,,,,,,,,,,,,,,,masks/mask_001.jpg,,,,,,,,,,,,,,,,,,,,,,,,,,,,,,,,,,,,,,,,,,,,,,,,0,2,2,0,1,,,,,,,,,,,,,,,,,,,,,,,,,,,,,,,,,,,,,,,,,
269194,001,2022-11-21_00h49.18.291,Info_measure_main_exp,2022.2.2,Win32,144.092219,,,,,,,,,,,,,,,,,,masks/mask_004.jpg,,,,,,,,,,,,,,,,,,,,,,,,,,,,,,,,,,,,,,,,,,,,,,,,0,3,3,3,1,,,,,,,,,,,,,,,,,,,,,,,,,,,,,,,,,,,,,,,,,
269194,001,2022-11-21_00h49.18.291,Info_measure_main_exp,2022.2.2,Win32,144.092219,,,,,,,,,,,,,,,,,,masks/mask_002.jpg,,,,,,,,,,,,,,,,,,,,,,,,,,,,,,,,,,,,,,,,,,,,,,,,0,4,4,1,1,,,,,,,,,,,,,,,,,,,,,,,,,,,,,,,,,,,,,,,,,
269194,001,2022-11-21_00h49.18.291,Info_measure_main_exp,2022.2.2,Win32,144.092219,,,,,,,,,,,,,,,,,,,,,,,,,,,,,,1,1.139,1,,,,,,,,,,,,0,131,5,5,2214,2214,absent_patch/patch0002214.jpg,absent_patch/patch0002214.jpg,,,,,,,,,,,,,,,,,,,,-0.134259259,0.04537037,1,0,0,response7disk,11,-0.005555556,-0.000925926,1,0,0,center_square,0,10,10,115,1,,,,,,,,,,,,,,,,,,,,,,,
269194,001,2022-11-21_00h49.18.291,Info_measure_main_exp,2022.2.2,Win32,144.092219,,,,,,,,,,,,,,,,,,masks/mask_002.jpg,,,,,,,,,,,,,,,,,,,,,,,,,,,,,,,,,,,,,,,,,,,0,0,0,1,1,,,,,,,,,,,,,,,,,,,,,,,,,,,,,,,,,,,,,,,,,,,,,,
269194,001,2022-11-21_00h49.18.291,Info_measure_main_exp,2022.2.2,Win32,144.092219,,,,,,,,,,,,,,,,,,masks/mask_005.jpg,,,,,,,,,,,,,,,,,,,,,,,,,,,,,,,,,,,,,,,,,,,0,1,1,4,1,,,,,,,,,,,,,,,,,,,,,,,,,,,,,,,,,,,,,,,,,,,,,,
269194,001,2022-11-21_00h49.18.291,Info_measure_main_exp,2022.2.2,Win32,144.092219,,,,,,,,,,,,,,,,,,masks/mask_001.jpg,,,,,,,,,,,,,,,,,,,,,,,,,,,,,,,,,,,,,,,,,,,0,2,2,0,1,,,,,,,,,,,,,,,,,,,,,,,,,,,,,,,,,,,,,,,,,,,,,,
269194,001,2022-11-21_00h49.18.291,Info_measure_main_exp,2022.2.2,Win32,144.092219,,,,,,,,,,,,,,,,,,masks/mask_003.jpg,,,,,,,,,,,,,,,,,,,,,,,,,,,,,,,,,,,,,,,,,,,0,3,3,2,1,,,,,,,,,,,,,,,,,,,,,,,,,,,,,,,,,,,,,,,,,,,,,,
269194,001,2022-11-21_00h49.18.291,Info_measure_main_exp,2022.2.2,Win32,144.092219,,,,,,,,,,,,,,,,,,masks/mask_004.jpg,,,,,,,,,,,,,,,,,,,,,,,,,,,,,,,,,,,,,,,,,,,0,4,4,3,1,,,,,,,,,,,,,,,,,,,,,,,,,,,,,,,,,,,,,,,,,,,,,,
269194,001,2022-11-21_00h49.18.291,Info_measure_main_exp,2022.2.2,Win32,144.092219,,,,,,,,,,,,,,,,,,masks/mask_005.jpg,,,,,,,,,,,,,,,,,,,,,,,,,,,,,,,,,,,,,,,,,,,,,,,,0,0,0,4,1,,,,,,,,,,,,,,,,,,,,,,,,,,,,,,,,,,,,,,,,,
269194,001,2022-11-21_00h49.18.291,Info_measure_main_exp,2022.2.2,Win32,144.092219,,,,,,,,,,,,,,,,,,masks/mask_004.jpg,,,,,,,,,,,,,,,,,,,,,,,,,,,,,,,,,,,,,,,,,,,,,,,,0,1,1,3,1,,,,,,,,,,,,,,,,,,,,,,,,,,,,,,,,,,,,,,,,,
269194,001,2022-11-21_00h49.18.291,Info_measure_main_exp,2022.2.2,Win32,144.092219,,,,,,,,,,,,,,,,,,masks/mask_003.jpg,,,,,,,,,,,,,,,,,,,,,,,,,,,,,,,,,,,,,,,,,,,,,,,,0,2,2,2,1,,,,,,,,,,,,,,,,,,,,,,,,,,,,,,,,,,,,,,,,,
269194,001,2022-11-21_00h49.18.291,Info_measure_main_exp,2022.2.2,Win32,144.092219,,,,,,,,,,,,,,,,,,masks/mask_002.jpg,,,,,,,,,,,,,,,,,,,,,,,,,,,,,,,,,,,,,,,,,,,,,,,,0,3,3,1,1,,,,,,,,,,,,,,,,,,,,,,,,,,,,,,,,,,,,,,,,,
269194,001,2022-11-21_00h49.18.291,Info_measure_main_exp,2022.2.2,Win32,144.092219,,,,,,,,,,,,,,,,,,masks/mask_001.jpg,,,,,,,,,,,,,,,,,,,,,,,,,,,,,,,,,,,,,,,,,,,,,,,,0,4,4,0,1,,,,,,,,,,,,,,,,,,,,,,,,,,,,,,,,,,,,,,,,,
269194,001,2022-11-21_00h49.18.291,Info_measure_main_exp,2022.2.2,Win32,144.092219,,,,,,,,,,,,,,,,,,,,,,,,,,,,,,5,0.958,1,,,,,,,,,,,,0,131,5,5,2250,2166,absent_patch/patch0002250.jpg,absent_patch/patch0002166.jpg,,,,,,,,,,,,,,,,,,,,0.115740741,-0.056481481,1,0,0,response3disk,12,0.00462963,-0.010185185,1,0,0,center_square,0,11,11,60,1,,,,,,,,,,,,,,,,,,,,,,,
269194,001,2022-11-21_00h49.18.291,Info_measure_main_exp,2022.2.2,Win32,144.092219,,,,,,,,,,,,,,,,,,masks/mask_005.jpg,,,,,,,,,,,,,,,,,,,,,,,,,,,,,,,,,,,,,,,,,,,0,0,0,4,1,,,,,,,,,,,,,,,,,,,,,,,,,,,,,,,,,,,,,,,,,,,,,,
269194,001,2022-11-21_00h49.18.291,Info_measure_main_exp,2022.2.2,Win32,144.092219,,,,,,,,,,,,,,,,,,masks/mask_001.jpg,,,,,,,,,,,,,,,,,,,,,,,,,,,,,,,,,,,,,,,,,,,0,1,1,0,1,,,,,,,,,,,,,,,,,,,,,,,,,,,,,,,,,,,,,,,,,,,,,,
269194,001,2022-11-21_00h49.18.291,Info_measure_main_exp,2022.2.2,Win32,144.092219,,,,,,,,,,,,,,,,,,masks/mask_003.jpg,,,,,,,,,,,,,,,,,,,,,,,,,,,,,,,,,,,,,,,,,,,0,2,2,2,1,,,,,,,,,,,,,,,,,,,,,,,,,,,,,,,,,,,,,,,,,,,,,,
269194,001,2022-11-21_00h49.18.291,Info_measure_main_exp,2022.2.2,Win32,144.092219,,,,,,,,,,,,,,,,,,masks/mask_002.jpg,,,,,,,,,,,,,,,,,,,,,,,,,,,,,,,,,,,,,,,,,,,0,3,3,1,1,,,,,,,,,,,,,,,,,,,,,,,,,,,,,,,,,,,,,,,,,,,,,,
269194,001,2022-11-21_00h49.18.291,Info_measure_main_exp,2022.2.2,Win32,144.092219,,,,,,,,,,,,,,,,,,masks/mask_004.jpg,,,,,,,,,,,,,,,,,,,,,,,,,,,,,,,,,,,,,,,,,,,0,4,4,3,1,,,,,,,,,,,,,,,,,,,,,,,,,,,,,,,,,,,,,,,,,,,,,,
269194,001,2022-11-21_00h49.18.291,Info_measure_main_exp,2022.2.2,Win32,144.092219,,,,,,,,,,,,,,,,,,masks/mask_005.jpg,,,,,,,,,,,,,,,,,,,,,,,,,,,,,,,,,,,,,,,,,,,,,,,,0,0,0,4,1,,,,,,,,,,,,,,,,,,,,,,,,,,,,,,,,,,,,,,,,,
269194,001,2022-11-21_00h49.18.291,Info_measure_main_exp,2022.2.2,Win32,144.092219,,,,,,,,,,,,,,,,,,masks/mask_002.jpg,,,,,,,,,,,,,,,,,,,,,,,,,,,,,,,,,,,,,,,,,,,,,,,,0,1,1,1,1,,,,,,,,,,,,,,,,,,,,,,,,,,,,,,,,,,,,,,,,,
269194,001,2022-11-21_00h49.18.291,Info_measure_main_exp,2022.2.2,Win32,144.092219,,,,,,,,,,,,,,,,,,masks/mask_004.jpg,,,,,,,,,,,,,,,,,,,,,,,,,,,,,,,,,,,,,,,,,,,,,,,,0,2,2,3,1,,,,,,,,,,,,,,,,,,,,,,,,,,,,,,,,,,,,,,,,,
269194,001,2022-11-21_00h49.18.291,Info_measure_main_exp,2022.2.2,Win32,144.092219,,,,,,,,,,,,,,,,,,masks/mask_001.jpg,,,,,,,,,,,,,,,,,,,,,,,,,,,,,,,,,,,,,,,,,,,,,,,,0,3,3,0,1,,,,,,,,,,,,,,,,,,,,,,,,,,,,,,,,,,,,,,,,,
269194,001,2022-11-21_00h49.18.291,Info_measure_main_exp,2022.2.2,Win32,144.092219,,,,,,,,,,,,,,,,,,masks/mask_003.jpg,,,,,,,,,,,,,,,,,,,,,,,,,,,,,,,,,,,,,,,,,,,,,,,,0,4,4,2,1,,,,,,,,,,,,,,,,,,,,,,,,,,,,,,,,,,,,,,,,,
269194,001,2022-11-21_00h49.18.291,Info_measure_main_exp,2022.2.2,Win32,144.092219,,,,,,,,,,,,,,,,,,,,,,,,,,,,,,4,0.639,1,,,,,,,,,,,,0,131,5,5,2178,2166,absent_patch/patch0002178.jpg,absent_patch/patch0002166.jpg,,,,,,,,,,,,,,,,,,,,0.047222222,-0.097222222,1,0,0,response3disk,13,-0.00462963,0.000925926,1,0,0,center_square,0,12,12,72,1,,,,,,,,,,,,,,,,,,,,,,,
269194,001,2022-11-21_00h49.18.291,Info_measure_main_exp,2022.2.2,Win32,144.092219,,,,,,,,,,,,,,,,,,masks/mask_001.jpg,,,,,,,,,,,,,,,,,,,,,,,,,,,,,,,,,,,,,,,,,,,0,0,0,0,1,,,,,,,,,,,,,,,,,,,,,,,,,,,,,,,,,,,,,,,,,,,,,,
269194,001,2022-11-21_00h49.18.291,Info_measure_main_exp,2022.2.2,Win32,144.092219,,,,,,,,,,,,,,,,,,masks/mask_002.jpg,,,,,,,,,,,,,,,,,,,,,,,,,,,,,,,,,,,,,,,,,,,0,1,1,1,1,,,,,,,,,,,,,,,,,,,,,,,,,,,,,,,,,,,,,,,,,,,,,,
269194,001,2022-11-21_00h49.18.291,Info_measure_main_exp,2022.2.2,Win32,144.092219,,,,,,,,,,,,,,,,,,masks/mask_004.jpg,,,,,,,,,,,,,,,,,,,,,,,,,,,,,,,,,,,,,,,,,,,0,2,2,3,1,,,,,,,,,,,,,,,,,,,,,,,,,,,,,,,,,,,,,,,,,,,,,,
269194,001,2022-11-21_00h49.18.291,Info_measure_main_exp,2022.2.2,Win32,144.092219,,,,,,,,,,,,,,,,,,masks/mask_003.jpg,,,,,,,,,,,,,,,,,,,,,,,,,,,,,,,,,,,,,,,,,,,0,3,3,2,1,,,,,,,,,,,,,,,,,,,,,,,,,,,,,,,,,,,,,,,,,,,,,,
269194,001,2022-11-21_00h49.18.291,Info_measure_main_exp,2022.2.2,Win32,144.092219,,,,,,,,,,,,,,,,,,masks/mask_005.jpg,,,,,,,,,,,,,,,,,,,,,,,,,,,,,,,,,,,,,,,,,,,0,4,4,4,1,,,,,,,,,,,,,,,,,,,,,,,,,,,,,,,,,,,,,,,,,,,,,,
269194,001,2022-11-21_00h49.18.291,Info_measure_main_exp,2022.2.2,Win32,144.092219,,,,,,,,,,,,,,,,,,masks/mask_001.jpg,,,,,,,,,,,,,,,,,,,,,,,,,,,,,,,,,,,,,,,,,,,,,,,,0,0,0,0,1,,,,,,,,,,,,,,,,,,,,,,,,,,,,,,,,,,,,,,,,,
269194,001,2022-11-21_00h49.18.291,Info_measure_main_exp,2022.2.2,Win32,144.092219,,,,,,,,,,,,,,,,,,masks/mask_005.jpg,,,,,,,,,,,,,,,,,,,,,,,,,,,,,,,,,,,,,,,,,,,,,,,,0,1,1,4,1,,,,,,,,,,,,,,,,,,,,,,,,,,,,,,,,,,,,,,,,,
269194,001,2022-11-21_00h49.18.291,Info_measure_main_exp,2022.2.2,Win32,144.092219,,,,,,,,,,,,,,,,,,masks/mask_003.jpg,,,,,,,,,,,,,,,,,,,,,,,,,,,,,,,,,,,,,,,,,,,,,,,,0,2,2,2,1,,,,,,,,,,,,,,,,,,,,,,,,,,,,,,,,,,,,,,,,,
269194,001,2022-11-21_00h49.18.291,Info_measure_main_exp,2022.2.2,Win32,144.092219,,,,,,,,,,,,,,,,,,masks/mask_004.jpg,,,,,,,,,,,,,,,,,,,,,,,,,,,,,,,,,,,,,,,,,,,,,,,,0,3,3,3,1,,,,,,,,,,,,,,,,,,,,,,,,,,,,,,,,,,,,,,,,,
269194,001,2022-11-21_00h49.18.291,Info_measure_main_exp,2022.2.2,Win32,144.092219,,,,,,,,,,,,,,,,,,masks/mask_002.jpg,,,,,,,,,,,,,,,,,,,,,,,,,,,,,,,,,,,,,,,,,,,,,,,,0,4,4,1,1,,,,,,,,,,,,,,,,,,,,,,,,,,,,,,,,,,,,,,,,,
269194,001,2022-11-21_00h49.18.291,Info_measure_main_exp,2022.2.2,Win32,144.092219,,,,,,,,,,,,,,,,,,,,,,,,,,,,,,0,0.631,1,,,,,,,,,,,,0,131,5,5,2274,2274,absent_patch/patch0002274.jpg,absent_patch/patch0002274.jpg,,,,,,,,,,,,,,,,,,,,-0.019444444,0.137037037,1,0,0,response7disk,14,0.010185185,-0.006481481,1,0,0,center_square,0,13,13,114,1,,,,,,,,,,,,,,,,,,,,,,,
269194,001,2022-11-21_00h49.18.291,Info_measure_main_exp,2022.2.2,Win32,144.092219,,,,,,,,,,,,,,,,,,masks/mask_003.jpg,,,,,,,,,,,,,,,,,,,,,,,,,,,,,,,,,,,,,,,,,,,0,0,0,2,1,,,,,,,,,,,,,,,,,,,,,,,,,,,,,,,,,,,,,,,,,,,,,,
269194,001,2022-11-21_00h49.18.291,Info_measure_main_exp,2022.2.2,Win32,144.092219,,,,,,,,,,,,,,,,,,masks/mask_004.jpg,,,,,,,,,,,,,,,,,,,,,,,,,,,,,,,,,,,,,,,,,,,0,1,1,3,1,,,,,,,,,,,,,,,,,,,,,,,,,,,,,,,,,,,,,,,,,,,,,,
269194,001,2022-11-21_00h49.18.291,Info_measure_main_exp,2022.2.2,Win32,144.092219,,,,,,,,,,,,,,,,,,masks/mask_005.jpg,,,,,,,,,,,,,,,,,,,,,,,,,,,,,,,,,,,,,,,,,,,0,2,2,4,1,,,,,,,,,,,,,,,,,,,,,,,,,,,,,,,,,,,,,,,,,,,,,,
269194,001,2022-11-21_00h49.18.291,Info_measure_main_exp,2022.2.2,Win32,144.092219,,,,,,,,,,,,,,,,,,masks/mask_001.jpg,,,,,,,,,,,,,,,,,,,,,,,,,,,,,,,,,,,,,,,,,,,0,3,3,0,1,,,,,,,,,,,,,,,,,,,,,,,,,,,,,,,,,,,,,,,,,,,,,,
269194,001,2022-11-21_00h49.18.291,Info_measure_main_exp,2022.2.2,Win32,144.092219,,,,,,,,,,,,,,,,,,masks/mask_002.jpg,,,,,,,,,,,,,,,,,,,,,,,,,,,,,,,,,,,,,,,,,,,0,4,4,1,1,,,,,,,,,,,,,,,,,,,,,,,,,,,,,,,,,,,,,,,,,,,,,,
269194,001,2022-11-21_00h49.18.291,Info_measure_main_exp,2022.2.2,Win32,144.092219,,,,,,,,,,,,,,,,,,masks/mask_002.jpg,,,,,,,,,,,,,,,,,,,,,,,,,,,,,,,,,,,,,,,,,,,,,,,,0,0,0,1,1,,,,,,,,,,,,,,,,,,,,,,,,,,,,,,,,,,,,,,,,,
269194,001,2022-11-21_00h49.18.291,Info_measure_main_exp,2022.2.2,Win32,144.092219,,,,,,,,,,,,,,,,,,masks/mask_004.jpg,,,,,,,,,,,,,,,,,,,,,,,,,,,,,,,,,,,,,,,,,,,,,,,,0,1,1,3,1,,,,,,,,,,,,,,,,,,,,,,,,,,,,,,,,,,,,,,,,,
269194,001,2022-11-21_00h49.18.291,Info_measure_main_exp,2022.2.2,Win32,144.092219,,,,,,,,,,,,,,,,,,masks/mask_001.jpg,,,,,,,,,,,,,,,,,,,,,,,,,,,,,,,,,,,,,,,,,,,,,,,,0,2,2,0,1,,,,,,,,,,,,,,,,,,,,,,,,,,,,,,,,,,,,,,,,,
269194,001,2022-11-21_00h49.18.291,Info_measure_main_exp,2022.2.2,Win32,144.092219,,,,,,,,,,,,,,,,,,masks/mask_003.jpg,,,,,,,,,,,,,,,,,,,,,,,,,,,,,,,,,,,,,,,,,,,,,,,,0,3,3,2,1,,,,,,,,,,,,,,,,,,,,,,,,,,,,,,,,,,,,,,,,,
269194,001,2022-11-21_00h49.18.291,Info_measure_main_exp,2022.2.2,Win32,144.092219,,,,,,,,,,,,,,,,,,masks/mask_005.jpg,,,,,,,,,,,,,,,,,,,,,,,,,,,,,,,,,,,,,,,,,,,,,,,,0,4,4,4,1,,,,,,,,,,,,,,,,,,,,,,,,,,,,,,,,,,,,,,,,,
269194,001,2022-11-21_00h49.18.291,Info_measure_main_exp,2022.2.2,Win32,144.092219,,,,,,,,,,,,,,,,,,,,,,,,,,,,,,3,1.098,1,,,,,,,,,,,,0,131,5,5,2274,2238,absent_patch/patch0002274.jpg,absent_patch/patch0002238.jpg,,,,,,,,,,,,,,,,,,,,-0.069444444,-0.141666667,1,0,0,response5disk,15,0.010185185,0.013888889,1,0,0,center_square,0,14,14,91,1,,,,,,,,,,,,,,,,,,,,,,,
269194,001,2022-11-21_00h49.18.291,Info_measure_main_exp,2022.2.2,Win32,144.092219,,,,,,,,,,,,,,,,,,masks/mask_004.jpg,,,,,,,,,,,,,,,,,,,,,,,,,,,,,,,,,,,,,,,,,,,0,0,0,3,1,,,,,,,,,,,,,,,,,,,,,,,,,,,,,,,,,,,,,,,,,,,,,,
269194,001,2022-11-21_00h49.18.291,Info_measure_main_exp,2022.2.2,Win32,144.092219,,,,,,,,,,,,,,,,,,masks/mask_001.jpg,,,,,,,,,,,,,,,,,,,,,,,,,,,,,,,,,,,,,,,,,,,0,1,1,0,1,,,,,,,,,,,,,,,,,,,,,,,,,,,,,,,,,,,,,,,,,,,,,,
269194,001,2022-11-21_00h49.18.291,Info_measure_main_exp,2022.2.2,Win32,144.092219,,,,,,,,,,,,,,,,,,masks/mask_003.jpg,,,,,,,,,,,,,,,,,,,,,,,,,,,,,,,,,,,,,,,,,,,0,2,2,2,1,,,,,,,,,,,,,,,,,,,,,,,,,,,,,,,,,,,,,,,,,,,,,,
269194,001,2022-11-21_00h49.18.291,Info_measure_main_exp,2022.2.2,Win32,144.092219,,,,,,,,,,,,,,,,,,masks/mask_002.jpg,,,,,,,,,,,,,,,,,,,,,,,,,,,,,,,,,,,,,,,,,,,0,3,3,1,1,,,,,,,,,,,,,,,,,,,,,,,,,,,,,,,,,,,,,,,,,,,,,,
269194,001,2022-11-21_00h49.18.291,Info_measure_main_exp,2022.2.2,Win32,144.092219,,,,,,,,,,,,,,,,,,masks/mask_005.jpg,,,,,,,,,,,,,,,,,,,,,,,,,,,,,,,,,,,,,,,,,,,0,4,4,4,1,,,,,,,,,,,,,,,,,,,,,,,,,,,,,,,,,,,,,,,,,,,,,,
269194,001,2022-11-21_00h49.18.291,Info_measure_main_exp,2022.2.2,Win32,144.092219,,,,,,,,,,,,,,,,,,masks/mask_003.jpg,,,,,,,,,,,,,,,,,,,,,,,,,,,,,,,,,,,,,,,,,,,,,,,,0,0,0,2,1,,,,,,,,,,,,,,,,,,,,,,,,,,,,,,,,,,,,,,,,,
269194,001,2022-11-21_00h49.18.291,Info_measure_main_exp,2022.2.2,Win32,144.092219,,,,,,,,,,,,,,,,,,masks/mask_004.jpg,,,,,,,,,,,,,,,,,,,,,,,,,,,,,,,,,,,,,,,,,,,,,,,,0,1,1,3,1,,,,,,,,,,,,,,,,,,,,,,,,,,,,,,,,,,,,,,,,,
269194,001,2022-11-21_00h49.18.291,Info_measure_main_exp,2022.2.2,Win32,144.092219,,,,,,,,,,,,,,,,,,masks/mask_001.jpg,,,,,,,,,,,,,,,,,,,,,,,,,,,,,,,,,,,,,,,,,,,,,,,,0,2,2,0,1,,,,,,,,,,,,,,,,,,,,,,,,,,,,,,,,,,,,,,,,,
269194,001,2022-11-21_00h49.18.291,Info_measure_main_exp,2022.2.2,Win32,144.092219,,,,,,,,,,,,,,,,,,masks/mask_005.jpg,,,,,,,,,,,,,,,,,,,,,,,,,,,,,,,,,,,,,,,,,,,,,,,,0,3,3,4,1,,,,,,,,,,,,,,,,,,,,,,,,,,,,,,,,,,,,,,,,,
269194,001,2022-11-21_00h49.18.291,Info_measure_main_exp,2022.2.2,Win32,144.092219,,,,,,,,,,,,,,,,,,masks/mask_002.jpg,,,,,,,,,,,,,,,,,,,,,,,,,,,,,,,,,,,,,,,,,,,,,,,,0,4,4,1,1,,,,,,,,,,,,,,,,,,,,,,,,,,,,,,,,,,,,,,,,,
269194,001,2022-11-21_00h49.18.291,Info_measure_main_exp,2022.2.2,Win32,144.092219,,,,,,,,,,,,,,,,,,,,,,,,,,,,,,5,1.021,1,,,,,,,,,,,,0,131,5,5,2250,2142,absent_patch/patch0002250.jpg,absent_patch/patch0002142.jpg,,,,,,,,,,,,,,,,,,,,0.147222222,-0.051851852,1,0,0,response3disk,16,0.00462963,0.012037037,1,0,0,center_square,0,15,15,71,1,,,,,,,,,,,,,,,,,,,,,,,
269194,001,2022-11-21_00h49.18.291,Info_measure_main_exp,2022.2.2,Win32,144.092219,,,,,,,,,,,,,,,,,,masks/mask_004.jpg,,,,,,,,,,,,,,,,,,,,,,,,,,,,,,,,,,,,,,,,,,,0,0,0,3,1,,,,,,,,,,,,,,,,,,,,,,,,,,,,,,,,,,,,,,,,,,,,,,
269194,001,2022-11-21_00h49.18.291,Info_measure_main_exp,2022.2.2,Win32,144.092219,,,,,,,,,,,,,,,,,,masks/mask_005.jpg,,,,,,,,,,,,,,,,,,,,,,,,,,,,,,,,,,,,,,,,,,,0,1,1,4,1,,,,,,,,,,,,,,,,,,,,,,,,,,,,,,,,,,,,,,,,,,,,,,
269194,001,2022-11-21_00h49.18.291,Info_measure_main_exp,2022.2.2,Win32,144.092219,,,,,,,,,,,,,,,,,,masks/mask_002.jpg,,,,,,,,,,,,,,,,,,,,,,,,,,,,,,,,,,,,,,,,,,,0,2,2,1,1,,,,,,,,,,,,,,,,,,,,,,,,,,,,,,,,,,,,,,,,,,,,,,
269194,001,2022-11-21_00h49.18.291,Info_measure_main_exp,2022.2.2,Win32,144.092219,,,,,,,,,,,,,,,,,,masks/mask_003.jpg,,,,,,,,,,,,,,,,,,,,,,,,,,,,,,,,,,,,,,,,,,,0,3,3,2,1,,,,,,,,,,,,,,,,,,,,,,,,,,,,,,,,,,,,,,,,,,,,,,
269194,001,2022-11-21_00h49.18.291,Info_measure_main_exp,2022.2.2,Win32,144.092219,,,,,,,,,,,,,,,,,,masks/mask_001.jpg,,,,,,,,,,,,,,,,,,,,,,,,,,,,,,,,,,,,,,,,,,,0,4,4,0,1,,,,,,,,,,,,,,,,,,,,,,,,,,,,,,,,,,,,,,,,,,,,,,
269194,001,2022-11-21_00h49.18.291,Info_measure_main_exp,2022.2.2,Win32,144.092219,,,,,,,,,,,,,,,,,,masks/mask_001.jpg,,,,,,,,,,,,,,,,,,,,,,,,,,,,,,,,,,,,,,,,,,,,,,,,0,0,0,0,1,,,,,,,,,,,,,,,,,,,,,,,,,,,,,,,,,,,,,,,,,
269194,001,2022-11-21_00h49.18.291,Info_measure_main_exp,2022.2.2,Win32,144.092219,,,,,,,,,,,,,,,,,,masks/mask_005.jpg,,,,,,,,,,,,,,,,,,,,,,,,,,,,,,,,,,,,,,,,,,,,,,,,0,1,1,4,1,,,,,,,,,,,,,,,,,,,,,,,,,,,,,,,,,,,,,,,,,
269194,001,2022-11-21_00h49.18.291,Info_measure_main_exp,2022.2.2,Win32,144.092219,,,,,,,,,,,,,,,,,,masks/mask_003.jpg,,,,,,,,,,,,,,,,,,,,,,,,,,,,,,,,,,,,,,,,,,,,,,,,0,2,2,2,1,,,,,,,,,,,,,,,,,,,,,,,,,,,,,,,,,,,,,,,,,
269194,001,2022-11-21_00h49.18.291,Info_measure_main_exp,2022.2.2,Win32,144.092219,,,,,,,,,,,,,,,,,,masks/mask_004.jpg,,,,,,,,,,,,,,,,,,,,,,,,,,,,,,,,,,,,,,,,,,,,,,,,0,3,3,3,1,,,,,,,,,,,,,,,,,,,,,,,,,,,,,,,,,,,,,,,,,
269194,001,2022-11-21_00h49.18.291,Info_measure_main_exp,2022.2.2,Win32,144.092219,,,,,,,,,,,,,,,,,,masks/mask_002.jpg,,,,,,,,,,,,,,,,,,,,,,,,,,,,,,,,,,,,,,,,,,,,,,,,0,4,4,1,1,,,,,,,,,,,,,,,,,,,,,,,,,,,,,,,,,,,,,,,,,
269194,001,2022-11-21_00h49.18.291,Info_measure_main_exp,2022.2.2,Win32,144.092219,,,,,,,,,,,,,,,,,,,,,,,,,,,,,,7,1.049,1,,,,,,,,,,,,0,131,5,5,2178,2154,absent_patch/patch0002178.jpg,absent_patch/patch0002154.jpg,,,,,,,,,,,,,,,,,,,,0.037962963,0.159259259,1,0,0,response1disk,17,-0.001851852,-0.001851852,1,0,0,center_square,0,16,16,63,1,,,,,,,,,,,,,,,,,,,,,,,
269194,001,2022-11-21_00h49.18.291,Info_measure_main_exp,2022.2.2,Win32,144.092219,,,,,,,,,,,,,,,,,,masks/mask_001.jpg,,,,,,,,,,,,,,,,,,,,,,,,,,,,,,,,,,,,,,,,,,,0,0,0,0,1,,,,,,,,,,,,,,,,,,,,,,,,,,,,,,,,,,,,,,,,,,,,,,
269194,001,2022-11-21_00h49.18.291,Info_measure_main_exp,2022.2.2,Win32,144.092219,,,,,,,,,,,,,,,,,,masks/mask_002.jpg,,,,,,,,,,,,,,,,,,,,,,,,,,,,,,,,,,,,,,,,,,,0,1,1,1,1,,,,,,,,,,,,,,,,,,,,,,,,,,,,,,,,,,,,,,,,,,,,,,
269194,001,2022-11-21_00h49.18.291,Info_measure_main_exp,2022.2.2,Win32,144.092219,,,,,,,,,,,,,,,,,,masks/mask_004.jpg,,,,,,,,,,,,,,,,,,,,,,,,,,,,,,,,,,,,,,,,,,,0,2,2,3,1,,,,,,,,,,,,,,,,,,,,,,,,,,,,,,,,,,,,,,,,,,,,,,
269194,001,2022-11-21_00h49.18.291,Info_measure_main_exp,2022.2.2,Win32,144.092219,,,,,,,,,,,,,,,,,,masks/mask_005.jpg,,,,,,,,,,,,,,,,,,,,,,,,,,,,,,,,,,,,,,,,,,,0,3,3,4,1,,,,,,,,,,,,,,,,,,,,,,,,,,,,,,,,,,,,,,,,,,,,,,
269194,001,2022-11-21_00h49.18.291,Info_measure_main_exp,2022.2.2,Win32,144.092219,,,,,,,,,,,,,,,,,,masks/mask_003.jpg,,,,,,,,,,,,,,,,,,,,,,,,,,,,,,,,,,,,,,,,,,,0,4,4,2,1,,,,,,,,,,,,,,,,,,,,,,,,,,,,,,,,,,,,,,,,,,,,,,
269194,001,2022-11-21_00h49.18.291,Info_measure_main_exp,2022.2.2,Win32,144.092219,,,,,,,,,,,,,,,,,,masks/mask_005.jpg,,,,,,,,,,,,,,,,,,,,,,,,,,,,,,,,,,,,,,,,,,,,,,,,0,0,0,4,1,,,,,,,,,,,,,,,,,,,,,,,,,,,,,,,,,,,,,,,,,
269194,001,2022-11-21_00h49.18.291,Info_measure_main_exp,2022.2.2,Win32,144.092219,,,,,,,,,,,,,,,,,,masks/mask_002.jpg,,,,,,,,,,,,,,,,,,,,,,,,,,,,,,,,,,,,,,,,,,,,,,,,0,1,1,1,1,,,,,,,,,,,,,,,,,,,,,,,,,,,,,,,,,,,,,,,,,
269194,001,2022-11-21_00h49.18.291,Info_measure_main_exp,2022.2.2,Win32,144.092219,,,,,,,,,,,,,,,,,,masks/mask_001.jpg,,,,,,,,,,,,,,,,,,,,,,,,,,,,,,,,,,,,,,,,,,,,,,,,0,2,2,0,1,,,,,,,,,,,,,,,,,,,,,,,,,,,,,,,,,,,,,,,,,
269194,001,2022-11-21_00h49.18.291,Info_measure_main_exp,2022.2.2,Win32,144.092219,,,,,,,,,,,,,,,,,,masks/mask_003.jpg,,,,,,,,,,,,,,,,,,,,,,,,,,,,,,,,,,,,,,,,,,,,,,,,0,3,3,2,1,,,,,,,,,,,,,,,,,,,,,,,,,,,,,,,,,,,,,,,,,
269194,001,2022-11-21_00h49.18.291,Info_measure_main_exp,2022.2.2,Win32,144.092219,,,,,,,,,,,,,,,,,,masks/mask_004.jpg,,,,,,,,,,,,,,,,,,,,,,,,,,,,,,,,,,,,,,,,,,,,,,,,0,4,4,3,1,,,,,,,,,,,,,,,,,,,,,,,,,,,,,,,,,,,,,,,,,
269194,001,2022-11-21_00h49.18.291,Info_measure_main_exp,2022.2.2,Win32,144.092219,,,,,,,,,,,,,,,,,,,,,,,,,,,,,,4,0.931,1,,,,,,,,,,,,1,131,5,5,1,2154,present_patch/cong_131_5_a.jpg,absent_patch/patch0002154.jpg,,,,,,,,,,,,,,,,,,,,0.05,-0.143518519,1,0,0,response3disk,18,-0.003703704,-0.00462963,1,0,0,center_square,0,17,17,87,1,,,,,,,,,,,,,,,,,,,,,,,
269194,001,2022-11-21_00h49.18.291,Info_measure_main_exp,2022.2.2,Win32,144.092219,,,,,,,,,,,,,,,,,,masks/mask_001.jpg,,,,,,,,,,,,,,,,,,,,,,,,,,,,,,,,,,,,,,,,,,,0,0,0,0,1,,,,,,,,,,,,,,,,,,,,,,,,,,,,,,,,,,,,,,,,,,,,,,
269194,001,2022-11-21_00h49.18.291,Info_measure_main_exp,2022.2.2,Win32,144.092219,,,,,,,,,,,,,,,,,,masks/mask_004.jpg,,,,,,,,,,,,,,,,,,,,,,,,,,,,,,,,,,,,,,,,,,,0,1,1,3,1,,,,,,,,,,,,,,,,,,,,,,,,,,,,,,,,,,,,,,,,,,,,,,
269194,001,2022-11-21_00h49.18.291,Info_measure_main_exp,2022.2.2,Win32,144.092219,,,,,,,,,,,,,,,,,,masks/mask_005.jpg,,,,,,,,,,,,,,,,,,,,,,,,,,,,,,,,,,,,,,,,,,,0,2,2,4,1,,,,,,,,,,,,,,,,,,,,,,,,,,,,,,,,,,,,,,,,,,,,,,
269194,001,2022-11-21_00h49.18.291,Info_measure_main_exp,2022.2.2,Win32,144.092219,,,,,,,,,,,,,,,,,,masks/mask_003.jpg,,,,,,,,,,,,,,,,,,,,,,,,,,,,,,,,,,,,,,,,,,,0,3,3,2,1,,,,,,,,,,,,,,,,,,,,,,,,,,,,,,,,,,,,,,,,,,,,,,
269194,001,2022-11-21_00h49.18.291,Info_measure_main_exp,2022.2.2,Win32,144.092219,,,,,,,,,,,,,,,,,,masks/mask_002.jpg,,,,,,,,,,,,,,,,,,,,,,,,,,,,,,,,,,,,,,,,,,,0,4,4,1,1,,,,,,,,,,,,,,,,,,,,,,,,,,,,,,,,,,,,,,,,,,,,,,
269194,001,2022-11-21_00h49.18.291,Info_measure_main_exp,2022.2.2,Win32,144.092219,,,,,,,,,,,,,,,,,,masks/mask_001.jpg,,,,,,,,,,,,,,,,,,,,,,,,,,,,,,,,,,,,,,,,,,,,,,,,0,0,0,0,1,,,,,,,,,,,,,,,,,,,,,,,,,,,,,,,,,,,,,,,,,
269194,001,2022-11-21_00h49.18.291,Info_measure_main_exp,2022.2.2,Win32,144.092219,,,,,,,,,,,,,,,,,,masks/mask_002.jpg,,,,,,,,,,,,,,,,,,,,,,,,,,,,,,,,,,,,,,,,,,,,,,,,0,1,1,1,1,,,,,,,,,,,,,,,,,,,,,,,,,,,,,,,,,,,,,,,,,
269194,001,2022-11-21_00h49.18.291,Info_measure_main_exp,2022.2.2,Win32,144.092219,,,,,,,,,,,,,,,,,,masks/mask_003.jpg,,,,,,,,,,,,,,,,,,,,,,,,,,,,,,,,,,,,,,,,,,,,,,,,0,2,2,2,1,,,,,,,,,,,,,,,,,,,,,,,,,,,,,,,,,,,,,,,,,
269194,001,2022-11-21_00h49.18.291,Info_measure_main_exp,2022.2.2,Win32,144.092219,,,,,,,,,,,,,,,,,,masks/mask_005.jpg,,,,,,,,,,,,,,,,,,,,,,,,,,,,,,,,,,,,,,,,,,,,,,,,0,3,3,4,1,,,,,,,,,,,,,,,,,,,,,,,,,,,,,,,,,,,,,,,,,
269194,001,2022-11-21_00h49.18.291,Info_measure_main_exp,2022.2.2,Win32,144.092219,,,,,,,,,,,,,,,,,,masks/mask_004.jpg,,,,,,,,,,,,,,,,,,,,,,,,,,,,,,,,,,,,,,,,,,,,,,,,0,4,4,3,1,,,,,,,,,,,,,,,,,,,,,,,,,,,,,,,,,,,,,,,,,
269194,001,2022-11-21_00h49.18.291,Info_measure_main_exp,2022.2.2,Win32,144.092219,,,,,,,,,,,,,,,,,,,,,,,,,,,,,,0,0.577,1,,,,,,,,,,,,0,131,5,5,2190,2190,absent_patch/patch0002190.jpg,absent_patch/patch0002190.jpg,,,,,,,,,,,,,,,,,,,,-0.048148148,0.15462963,1,0,0,response7disk,19,0.002777778,-0.003703704,1,0,0,center_square,0,18,18,86,1,,,,,,,,,,,,,,,,,,,,,,,
269194,001,2022-11-21_00h49.18.291,Info_measure_main_exp,2022.2.2,Win32,144.092219,,,,,,,,,,,,,,,,,,masks/mask_005.jpg,,,,,,,,,,,,,,,,,,,,,,,,,,,,,,,,,,,,,,,,,,,0,0,0,4,1,,,,,,,,,,,,,,,,,,,,,,,,,,,,,,,,,,,,,,,,,,,,,,
269194,001,2022-11-21_00h49.18.291,Info_measure_main_exp,2022.2.2,Win32,144.092219,,,,,,,,,,,,,,,,,,masks/mask_004.jpg,,,,,,,,,,,,,,,,,,,,,,,,,,,,,,,,,,,,,,,,,,,0,1,1,3,1,,,,,,,,,,,,,,,,,,,,,,,,,,,,,,,,,,,,,,,,,,,,,,
269194,001,2022-11-21_00h49.18.291,Info_measure_main_exp,2022.2.2,Win32,144.092219,,,,,,,,,,,,,,,,,,masks/mask_003.jpg,,,,,,,,,,,,,,,,,,,,,,,,,,,,,,,,,,,,,,,,,,,0,2,2,2,1,,,,,,,,,,,,,,,,,,,,,,,,,,,,,,,,,,,,,,,,,,,,,,
269194,001,2022-11-21_00h49.18.291,Info_measure_main_exp,2022.2.2,Win32,144.092219,,,,,,,,,,,,,,,,,,masks/mask_002.jpg,,,,,,,,,,,,,,,,,,,,,,,,,,,,,,,,,,,,,,,,,,,0,3,3,1,1,,,,,,,,,,,,,,,,,,,,,,,,,,,,,,,,,,,,,,,,,,,,,,
269194,001,2022-11-21_00h49.18.291,Info_measure_main_exp,2022.2.2,Win32,144.092219,,,,,,,,,,,,,,,,,,masks/mask_001.jpg,,,,,,,,,,,,,,,,,,,,,,,,,,,,,,,,,,,,,,,,,,,0,4,4,0,1,,,,,,,,,,,,,,,,,,,,,,,,,,,,,,,,,,,,,,,,,,,,,,
269194,001,2022-11-21_00h49.18.291,Info_measure_main_exp,2022.2.2,Win32,144.092219,,,,,,,,,,,,,,,,,,masks/mask_001.jpg,,,,,,,,,,,,,,,,,,,,,,,,,,,,,,,,,,,,,,,,,,,,,,,,0,0,0,0,1,,,,,,,,,,,,,,,,,,,,,,,,,,,,,,,,,,,,,,,,,
269194,001,2022-11-21_00h49.18.291,Info_measure_main_exp,2022.2.2,Win32,144.092219,,,,,,,,,,,,,,,,,,masks/mask_004.jpg,,,,,,,,,,,,,,,,,,,,,,,,,,,,,,,,,,,,,,,,,,,,,,,,0,1,1,3,1,,,,,,,,,,,,,,,,,,,,,,,,,,,,,,,,,,,,,,,,,
269194,001,2022-11-21_00h49.18.291,Info_measure_main_exp,2022.2.2,Win32,144.092219,,,,,,,,,,,,,,,,,,masks/mask_003.jpg,,,,,,,,,,,,,,,,,,,,,,,,,,,,,,,,,,,,,,,,,,,,,,,,0,2,2,2,1,,,,,,,,,,,,,,,,,,,,,,,,,,,,,,,,,,,,,,,,,
269194,001,2022-11-21_00h49.18.291,Info_measure_main_exp,2022.2.2,Win32,144.092219,,,,,,,,,,,,,,,,,,masks/mask_005.jpg,,,,,,,,,,,,,,,,,,,,,,,,,,,,,,,,,,,,,,,,,,,,,,,,0,3,3,4,1,,,,,,,,,,,,,,,,,,,,,,,,,,,,,,,,,,,,,,,,,
269194,001,2022-11-21_00h49.18.291,Info_measure_main_exp,2022.2.2,Win32,144.092219,,,,,,,,,,,,,,,,,,masks/mask_002.jpg,,,,,,,,,,,,,,,,,,,,,,,,,,,,,,,,,,,,,,,,,,,,,,,,0,4,4,1,1,,,,,,,,,,,,,,,,,,,,,,,,,,,,,,,,,,,,,,,,,
269194,001,2022-11-21_00h49.18.291,Info_measure_main_exp,2022.2.2,Win32,144.092219,,,,,,,,,,,,,,,,,,,,,,,,,,,,,,7,0.89,1,,,,,,,,,,,,0,131,5,5,2190,2166,absent_patch/patch0002190.jpg,absent_patch/patch0002166.jpg,,,,,,,,,,,,,,,,,,,,0.010185185,0.187962963,1,0,0,response1disk,20,-0.008333333,0.008333333,1,0,0,center_square,0,19,19,50,1,,,,,,,,,,,,,,,,,,,,,,,
269194,001,2022-11-21_00h49.18.291,Info_measure_main_exp,2022.2.2,Win32,144.092219,,,,,,,,,,,,,,,,,,masks/mask_001.jpg,,,,,,,,,,,,,,,,,,,,,,,,,,,,,,,,,,,,,,,,,,,0,0,0,0,1,,,,,,,,,,,,,,,,,,,,,,,,,,,,,,,,,,,,,,,,,,,,,,
269194,001,2022-11-21_00h49.18.291,Info_measure_main_exp,2022.2.2,Win32,144.092219,,,,,,,,,,,,,,,,,,masks/mask_004.jpg,,,,,,,,,,,,,,,,,,,,,,,,,,,,,,,,,,,,,,,,,,,0,1,1,3,1,,,,,,,,,,,,,,,,,,,,,,,,,,,,,,,,,,,,,,,,,,,,,,
269194,001,2022-11-21_00h49.18.291,Info_measure_main_exp,2022.2.2,Win32,144.092219,,,,,,,,,,,,,,,,,,masks/mask_003.jpg,,,,,,,,,,,,,,,,,,,,,,,,,,,,,,,,,,,,,,,,,,,0,2,2,2,1,,,,,,,,,,,,,,,,,,,,,,,,,,,,,,,,,,,,,,,,,,,,,,
269194,001,2022-11-21_00h49.18.291,Info_measure_main_exp,2022.2.2,Win32,144.092219,,,,,,,,,,,,,,,,,,masks/mask_002.jpg,,,,,,,,,,,,,,,,,,,,,,,,,,,,,,,,,,,,,,,,,,,0,3,3,1,1,,,,,,,,,,,,,,,,,,,,,,,,,,,,,,,,,,,,,,,,,,,,,,
269194,001,2022-11-21_00h49.18.291,Info_measure_main_exp,2022.2.2,Win32,144.092219,,,,,,,,,,,,,,,,,,masks/mask_005.jpg,,,,,,,,,,,,,,,,,,,,,,,,,,,,,,,,,,,,,,,,,,,0,4,4,4,1,,,,,,,,,,,,,,,,,,,,,,,,,,,,,,,,,,,,,,,,,,,,,,
269194,001,2022-11-21_00h49.18.291,Info_measure_main_exp,2022.2.2,Win32,144.092219,,,,,,,,,,,,,,,,,,masks/mask_001.jpg,,,,,,,,,,,,,,,,,,,,,,,,,,,,,,,,,,,,,,,,,,,,,,,,0,0,0,0,1,,,,,,,,,,,,,,,,,,,,,,,,,,,,,,,,,,,,,,,,,
269194,001,2022-11-21_00h49.18.291,Info_measure_main_exp,2022.2.2,Win32,144.092219,,,,,,,,,,,,,,,,,,masks/mask_005.jpg,,,,,,,,,,,,,,,,,,,,,,,,,,,,,,,,,,,,,,,,,,,,,,,,0,1,1,4,1,,,,,,,,,,,,,,,,,,,,,,,,,,,,,,,,,,,,,,,,,
269194,001,2022-11-21_00h49.18.291,Info_measure_main_exp,2022.2.2,Win32,144.092219,,,,,,,,,,,,,,,,,,masks/mask_002.jpg,,,,,,,,,,,,,,,,,,,,,,,,,,,,,,,,,,,,,,,,,,,,,,,,0,2,2,1,1,,,,,,,,,,,,,,,,,,,,,,,,,,,,,,,,,,,,,,,,,
269194,001,2022-11-21_00h49.18.291,Info_measure_main_exp,2022.2.2,Win32,144.092219,,,,,,,,,,,,,,,,,,masks/mask_004.jpg,,,,,,,,,,,,,,,,,,,,,,,,,,,,,,,,,,,,,,,,,,,,,,,,0,3,3,3,1,,,,,,,,,,,,,,,,,,,,,,,,,,,,,,,,,,,,,,,,,
269194,001,2022-11-21_00h49.18.291,Info_measure_main_exp,2022.2.2,Win32,144.092219,,,,,,,,,,,,,,,,,,masks/mask_003.jpg,,,,,,,,,,,,,,,,,,,,,,,,,,,,,,,,,,,,,,,,,,,,,,,,0,4,4,2,1,,,,,,,,,,,,,,,,,,,,,,,,,,,,,,,,,,,,,,,,,
269194,001,2022-11-21_00h49.18.291,Info_measure_main_exp,2022.2.2,Win32,144.092219,,,,,,,,,,,,,,,,,,,,,,,,,,,,,,5,0.826,1,,,,,,,,,,,,0,131,5,5,2298,2214,absent_patch/patch0002298.jpg,absent_patch/patch0002214.jpg,,,,,,,,,,,,,,,,,,,,0.101851852,-0.07962963,1,0,0,response3disk,21,0.00462963,-0.006481481,1,0,0,center_square,0,20,20,99,1,,,,,,,,,,,,,,,,,,,,,,,
269194,001,2022-11-21_00h49.18.291,Info_measure_main_exp,2022.2.2,Win32,144.092219,,,,,,,,,,,,,,,,,,masks/mask_001.jpg,,,,,,,,,,,,,,,,,,,,,,,,,,,,,,,,,,,,,,,,,,,0,0,0,0,1,,,,,,,,,,,,,,,,,,,,,,,,,,,,,,,,,,,,,,,,,,,,,,
269194,001,2022-11-21_00h49.18.291,Info_measure_main_exp,2022.2.2,Win32,144.092219,,,,,,,,,,,,,,,,,,masks/mask_004.jpg,,,,,,,,,,,,,,,,,,,,,,,,,,,,,,,,,,,,,,,,,,,0,1,1,3,1,,,,,,,,,,,,,,,,,,,,,,,,,,,,,,,,,,,,,,,,,,,,,,
269194,001,2022-11-21_00h49.18.291,Info_measure_main_exp,2022.2.2,Win32,144.092219,,,,,,,,,,,,,,,,,,masks/mask_002.jpg,,,,,,,,,,,,,,,,,,,,,,,,,,,,,,,,,,,,,,,,,,,0,2,2,1,1,,,,,,,,,,,,,,,,,,,,,,,,,,,,,,,,,,,,,,,,,,,,,,
269194,001,2022-11-21_00h49.18.291,Info_measure_main_exp,2022.2.2,Win32,144.092219,,,,,,,,,,,,,,,,,,masks/mask_005.jpg,,,,,,,,,,,,,,,,,,,,,,,,,,,,,,,,,,,,,,,,,,,0,3,3,4,1,,,,,,,,,,,,,,,,,,,,,,,,,,,,,,,,,,,,,,,,,,,,,,
269194,001,2022-11-21_00h49.18.291,Info_measure_main_exp,2022.2.2,Win32,144.092219,,,,,,,,,,,,,,,,,,masks/mask_003.jpg,,,,,,,,,,,,,,,,,,,,,,,,,,,,,,,,,,,,,,,,,,,0,4,4,2,1,,,,,,,,,,,,,,,,,,,,,,,,,,,,,,,,,,,,,,,,,,,,,,
269194,001,2022-11-21_00h49.18.291,Info_measure_main_exp,2022.2.2,Win32,144.092219,,,,,,,,,,,,,,,,,,masks/mask_003.jpg,,,,,,,,,,,,,,,,,,,,,,,,,,,,,,,,,,,,,,,,,,,,,,,,0,0,0,2,1,,,,,,,,,,,,,,,,,,,,,,,,,,,,,,,,,,,,,,,,,
269194,001,2022-11-21_00h49.18.291,Info_measure_main_exp,2022.2.2,Win32,144.092219,,,,,,,,,,,,,,,,,,masks/mask_002.jpg,,,,,,,,,,,,,,,,,,,,,,,,,,,,,,,,,,,,,,,,,,,,,,,,0,1,1,1,1,,,,,,,,,,,,,,,,,,,,,,,,,,,,,,,,,,,,,,,,,
269194,001,2022-11-21_00h49.18.291,Info_measure_main_exp,2022.2.2,Win32,144.092219,,,,,,,,,,,,,,,,,,masks/mask_005.jpg,,,,,,,,,,,,,,,,,,,,,,,,,,,,,,,,,,,,,,,,,,,,,,,,0,2,2,4,1,,,,,,,,,,,,,,,,,,,,,,,,,,,,,,,,,,,,,,,,,
269194,001,2022-11-21_00h49.18.291,Info_measure_main_exp,2022.2.2,Win32,144.092219,,,,,,,,,,,,,,,,,,masks/mask_004.jpg,,,,,,,,,,,,,,,,,,,,,,,,,,,,,,,,,,,,,,,,,,,,,,,,0,3,3,3,1,,,,,,,,,,,,,,,,,,,,,,,,,,,,,,,,,,,,,,,,,
269194,001,2022-11-21_00h49.18.291,Info_measure_main_exp,2022.2.2,Win32,144.092219,,,,,,,,,,,,,,,,,,masks/mask_001.jpg,,,,,,,,,,,,,,,,,,,,,,,,,,,,,,,,,,,,,,,,,,,,,,,,0,4,4,0,1,,,,,,,,,,,,,,,,,,,,,,,,,,,,,,,,,,,,,,,,,
269194,001,2022-11-21_00h49.18.291,Info_measure_main_exp,2022.2.2,Win32,144.092219,,,,,,,,,,,,,,,,,,,,,,,,,,,,,,4,1.146,1,,,,,,,,,,,,0,131,5,5,2238,2298,absent_patch/patch0002238.jpg,absent_patch/patch0002298.jpg,,,,,,,,,,,,,,,,,,,,0.02037037,-0.147222222,1,0,0,response3disk,22,-0.005555556,-0.000925926,1,0,0,center_square,0,21,21,51,1,,,,,,,,,,,,,,,,,,,,,,,
269194,001,2022-11-21_00h49.18.291,Info_measure_main_exp,2022.2.2,Win32,144.092219,,,,,,,,,,,,,,,,,,masks/mask_005.jpg,,,,,,,,,,,,,,,,,,,,,,,,,,,,,,,,,,,,,,,,,,,0,0,0,4,1,,,,,,,,,,,,,,,,,,,,,,,,,,,,,,,,,,,,,,,,,,,,,,
269194,001,2022-11-21_00h49.18.291,Info_measure_main_exp,2022.2.2,Win32,144.092219,,,,,,,,,,,,,,,,,,masks/mask_004.jpg,,,,,,,,,,,,,,,,,,,,,,,,,,,,,,,,,,,,,,,,,,,0,1,1,3,1,,,,,,,,,,,,,,,,,,,,,,,,,,,,,,,,,,,,,,,,,,,,,,
269194,001,2022-11-21_00h49.18.291,Info_measure_main_exp,2022.2.2,Win32,144.092219,,,,,,,,,,,,,,,,,,masks/mask_003.jpg,,,,,,,,,,,,,,,,,,,,,,,,,,,,,,,,,,,,,,,,,,,0,2,2,2,1,,,,,,,,,,,,,,,,,,,,,,,,,,,,,,,,,,,,,,,,,,,,,,
269194,001,2022-11-21_00h49.18.291,Info_measure_main_exp,2022.2.2,Win32,144.092219,,,,,,,,,,,,,,,,,,masks/mask_002.jpg,,,,,,,,,,,,,,,,,,,,,,,,,,,,,,,,,,,,,,,,,,,0,3,3,1,1,,,,,,,,,,,,,,,,,,,,,,,,,,,,,,,,,,,,,,,,,,,,,,
269194,001,2022-11-21_00h49.18.291,Info_measure_main_exp,2022.2.2,Win32,144.092219,,,,,,,,,,,,,,,,,,masks/mask_001.jpg,,,,,,,,,,,,,,,,,,,,,,,,,,,,,,,,,,,,,,,,,,,0,4,4,0,1,,,,,,,,,,,,,,,,,,,,,,,,,,,,,,,,,,,,,,,,,,,,,,
269194,001,2022-11-21_00h49.18.291,Info_measure_main_exp,2022.2.2,Win32,144.092219,,,,,,,,,,,,,,,,,,masks/mask_005.jpg,,,,,,,,,,,,,,,,,,,,,,,,,,,,,,,,,,,,,,,,,,,,,,,,0,0,0,4,1,,,,,,,,,,,,,,,,,,,,,,,,,,,,,,,,,,,,,,,,,
269194,001,2022-11-21_00h49.18.291,Info_measure_main_exp,2022.2.2,Win32,144.092219,,,,,,,,,,,,,,,,,,masks/mask_001.jpg,,,,,,,,,,,,,,,,,,,,,,,,,,,,,,,,,,,,,,,,,,,,,,,,0,1,1,0,1,,,,,,,,,,,,,,,,,,,,,,,,,,,,,,,,,,,,,,,,,
269194,001,2022-11-21_00h49.18.291,Info_measure_main_exp,2022.2.2,Win32,144.092219,,,,,,,,,,,,,,,,,,masks/mask_004.jpg,,,,,,,,,,,,,,,,,,,,,,,,,,,,,,,,,,,,,,,,,,,,,,,,0,2,2,3,1,,,,,,,,,,,,,,,,,,,,,,,,,,,,,,,,,,,,,,,,,
269194,001,2022-11-21_00h49.18.291,Info_measure_main_exp,2022.2.2,Win32,144.092219,,,,,,,,,,,,,,,,,,masks/mask_002.jpg,,,,,,,,,,,,,,,,,,,,,,,,,,,,,,,,,,,,,,,,,,,,,,,,0,3,3,1,1,,,,,,,,,,,,,,,,,,,,,,,,,,,,,,,,,,,,,,,,,
269194,001,2022-11-21_00h49.18.291,Info_measure_main_exp,2022.2.2,Win32,144.092219,,,,,,,,,,,,,,,,,,masks/mask_003.jpg,,,,,,,,,,,,,,,,,,,,,,,,,,,,,,,,,,,,,,,,,,,,,,,,0,4,4,2,1,,,,,,,,,,,,,,,,,,,,,,,,,,,,,,,,,,,,,,,,,
269194,001,2022-11-21_00h49.18.291,Info_measure_main_exp,2022.2.2,Win32,144.092219,,,,,,,,,,,,,,,,,,,,,,,,,,,,,,5,0.862,1,,,,,,,,,,,,0,131,5,5,2190,2238,absent_patch/patch0002190.jpg,absent_patch/patch0002238.jpg,,,,,,,,,,,,,,,,,,,,0.144444444,-0.030555556,1,0,0,response3disk,23,-0.00462963,-0.012037037,1,0,0,center_square,0,22,22,53,1,,,,,,,,,,,,,,,,,,,,,,,
269194,001,2022-11-21_00h49.18.291,Info_measure_main_exp,2022.2.2,Win32,144.092219,,,,,,,,,,,,,,,,,,masks/mask_002.jpg,,,,,,,,,,,,,,,,,,,,,,,,,,,,,,,,,,,,,,,,,,,0,0,0,1,1,,,,,,,,,,,,,,,,,,,,,,,,,,,,,,,,,,,,,,,,,,,,,,
269194,001,2022-11-21_00h49.18.291,Info_measure_main_exp,2022.2.2,Win32,144.092219,,,,,,,,,,,,,,,,,,masks/mask_005.jpg,,,,,,,,,,,,,,,,,,,,,,,,,,,,,,,,,,,,,,,,,,,0,1,1,4,1,,,,,,,,,,,,,,,,,,,,,,,,,,,,,,,,,,,,,,,,,,,,,,
269194,001,2022-11-21_00h49.18.291,Info_measure_main_exp,2022.2.2,Win32,144.092219,,,,,,,,,,,,,,,,,,masks/mask_003.jpg,,,,,,,,,,,,,,,,,,,,,,,,,,,,,,,,,,,,,,,,,,,0,2,2,2,1,,,,,,,,,,,,,,,,,,,,,,,,,,,,,,,,,,,,,,,,,,,,,,
269194,001,2022-11-21_00h49.18.291,Info_measure_main_exp,2022.2.2,Win32,144.092219,,,,,,,,,,,,,,,,,,masks/mask_001.jpg,,,,,,,,,,,,,,,,,,,,,,,,,,,,,,,,,,,,,,,,,,,0,3,3,0,1,,,,,,,,,,,,,,,,,,,,,,,,,,,,,,,,,,,,,,,,,,,,,,
269194,001,2022-11-21_00h49.18.291,Info_measure_main_exp,2022.2.2,Win32,144.092219,,,,,,,,,,,,,,,,,,masks/mask_004.jpg,,,,,,,,,,,,,,,,,,,,,,,,,,,,,,,,,,,,,,,,,,,0,4,4,3,1,,,,,,,,,,,,,,,,,,,,,,,,,,,,,,,,,,,,,,,,,,,,,,
269194,001,2022-11-21_00h49.18.291,Info_measure_main_exp,2022.2.2,Win32,144.092219,,,,,,,,,,,,,,,,,,masks/mask_005.jpg,,,,,,,,,,,,,,,,,,,,,,,,,,,,,,,,,,,,,,,,,,,,,,,,0,0,0,4,1,,,,,,,,,,,,,,,,,,,,,,,,,,,,,,,,,,,,,,,,,
269194,001,2022-11-21_00h49.18.291,Info_measure_main_exp,2022.2.2,Win32,144.092219,,,,,,,,,,,,,,,,,,masks/mask_001.jpg,,,,,,,,,,,,,,,,,,,,,,,,,,,,,,,,,,,,,,,,,,,,,,,,0,1,1,0,1,,,,,,,,,,,,,,,,,,,,,,,,,,,,,,,,,,,,,,,,,
269194,001,2022-11-21_00h49.18.291,Info_measure_main_exp,2022.2.2,Win32,144.092219,,,,,,,,,,,,,,,,,,masks/mask_002.jpg,,,,,,,,,,,,,,,,,,,,,,,,,,,,,,,,,,,,,,,,,,,,,,,,0,2,2,1,1,,,,,,,,,,,,,,,,,,,,,,,,,,,,,,,,,,,,,,,,,
269194,001,2022-11-21_00h49.18.291,Info_measure_main_exp,2022.2.2,Win32,144.092219,,,,,,,,,,,,,,,,,,masks/mask_004.jpg,,,,,,,,,,,,,,,,,,,,,,,,,,,,,,,,,,,,,,,,,,,,,,,,0,3,3,3,1,,,,,,,,,,,,,,,,,,,,,,,,,,,,,,,,,,,,,,,,,
269194,001,2022-11-21_00h49.18.291,Info_measure_main_exp,2022.2.2,Win32,144.092219,,,,,,,,,,,,,,,,,,masks/mask_003.jpg,,,,,,,,,,,,,,,,,,,,,,,,,,,,,,,,,,,,,,,,,,,,,,,,0,4,4,2,1,,,,,,,,,,,,,,,,,,,,,,,,,,,,,,,,,,,,,,,,,
269194,001,2022-11-21_00h49.18.291,Info_measure_main_exp,2022.2.2,Win32,144.092219,,,,,,,,,,,,,,,,,,,,,,,,,,,,,,7,0.861,1,,,,,,,,,,,,0,131,5,5,2190,2250,absent_patch/patch0002190.jpg,absent_patch/patch0002250.jpg,,,,,,,,,,,,,,,,,,,,0.061111111,0.123148148,1,0,0,response1disk,24,0.009259259,-0.001851852,1,0,0,center_square,0,23,23,93,1,,,,,,,,,,,,,,,,,,,,,,,
269194,001,2022-11-21_00h49.18.291,Info_measure_main_exp,2022.2.2,Win32,144.092219,,,,,,,,,,,,,,,,,,masks/mask_003.jpg,,,,,,,,,,,,,,,,,,,,,,,,,,,,,,,,,,,,,,,,,,,0,0,0,2,1,,,,,,,,,,,,,,,,,,,,,,,,,,,,,,,,,,,,,,,,,,,,,,
269194,001,2022-11-21_00h49.18.291,Info_measure_main_exp,2022.2.2,Win32,144.092219,,,,,,,,,,,,,,,,,,masks/mask_005.jpg,,,,,,,,,,,,,,,,,,,,,,,,,,,,,,,,,,,,,,,,,,,0,1,1,4,1,,,,,,,,,,,,,,,,,,,,,,,,,,,,,,,,,,,,,,,,,,,,,,
269194,001,2022-11-21_00h49.18.291,Info_measure_main_exp,2022.2.2,Win32,144.092219,,,,,,,,,,,,,,,,,,masks/mask_002.jpg,,,,,,,,,,,,,,,,,,,,,,,,,,,,,,,,,,,,,,,,,,,0,2,2,1,1,,,,,,,,,,,,,,,,,,,,,,,,,,,,,,,,,,,,,,,,,,,,,,
269194,001,2022-11-21_00h49.18.291,Info_measure_main_exp,2022.2.2,Win32,144.092219,,,,,,,,,,,,,,,,,,masks/mask_004.jpg,,,,,,,,,,,,,,,,,,,,,,,,,,,,,,,,,,,,,,,,,,,0,3,3,3,1,,,,,,,,,,,,,,,,,,,,,,,,,,,,,,,,,,,,,,,,,,,,,,
269194,001,2022-11-21_00h49.18.291,Info_measure_main_exp,2022.2.2,Win32,144.092219,,,,,,,,,,,,,,,,,,masks/mask_001.jpg,,,,,,,,,,,,,,,,,,,,,,,,,,,,,,,,,,,,,,,,,,,0,4,4,0,1,,,,,,,,,,,,,,,,,,,,,,,,,,,,,,,,,,,,,,,,,,,,,,
269194,001,2022-11-21_00h49.18.291,Info_measure_main_exp,2022.2.2,Win32,144.092219,,,,,,,,,,,,,,,,,,masks/mask_003.jpg,,,,,,,,,,,,,,,,,,,,,,,,,,,,,,,,,,,,,,,,,,,,,,,,0,0,0,2,1,,,,,,,,,,,,,,,,,,,,,,,,,,,,,,,,,,,,,,,,,
269194,001,2022-11-21_00h49.18.291,Info_measure_main_exp,2022.2.2,Win32,144.092219,,,,,,,,,,,,,,,,,,masks/mask_004.jpg,,,,,,,,,,,,,,,,,,,,,,,,,,,,,,,,,,,,,,,,,,,,,,,,0,1,1,3,1,,,,,,,,,,,,,,,,,,,,,,,,,,,,,,,,,,,,,,,,,
269194,001,2022-11-21_00h49.18.291,Info_measure_main_exp,2022.2.2,Win32,144.092219,,,,,,,,,,,,,,,,,,masks/mask_001.jpg,,,,,,,,,,,,,,,,,,,,,,,,,,,,,,,,,,,,,,,,,,,,,,,,0,2,2,0,1,,,,,,,,,,,,,,,,,,,,,,,,,,,,,,,,,,,,,,,,,
269194,001,2022-11-21_00h49.18.291,Info_measure_main_exp,2022.2.2,Win32,144.092219,,,,,,,,,,,,,,,,,,masks/mask_005.jpg,,,,,,,,,,,,,,,,,,,,,,,,,,,,,,,,,,,,,,,,,,,,,,,,0,3,3,4,1,,,,,,,,,,,,,,,,,,,,,,,,,,,,,,,,,,,,,,,,,
269194,001,2022-11-21_00h49.18.291,Info_measure_main_exp,2022.2.2,Win32,144.092219,,,,,,,,,,,,,,,,,,masks/mask_002.jpg,,,,,,,,,,,,,,,,,,,,,,,,,,,,,,,,,,,,,,,,,,,,,,,,0,4,4,1,1,,,,,,,,,,,,,,,,,,,,,,,,,,,,,,,,,,,,,,,,,
269194,001,2022-11-21_00h49.18.291,Info_measure_main_exp,2022.2.2,Win32,144.092219,,,,,,,,,,,,,,,,,,,,,,,,,,,,,,7,1.23,1,,,,,,,,,,,,1,131,5,5,2082,1,absent_patch/patch0002082.jpg,present_patch/cong_131_5_a.jpg,,,,,,,,,,,,,,,,,,,,0.069444444,0.19537037,1,0,0,response1disk,25,0.012962963,0.009259259,1,0,0,center_square,0,24,24,65,1,,,,,,,,,,,,,,,,,,,,,,,
269194,001,2022-11-21_00h49.18.291,Info_measure_main_exp,2022.2.2,Win32,144.092219,,,,,,,,,,,,,,,,,,masks/mask_001.jpg,,,,,,,,,,,,,,,,,,,,,,,,,,,,,,,,,,,,,,,,,,,0,0,0,0,1,,,,,,,,,,,,,,,,,,,,,,,,,,,,,,,,,,,,,,,,,,,,,,
269194,001,2022-11-21_00h49.18.291,Info_measure_main_exp,2022.2.2,Win32,144.092219,,,,,,,,,,,,,,,,,,masks/mask_005.jpg,,,,,,,,,,,,,,,,,,,,,,,,,,,,,,,,,,,,,,,,,,,0,1,1,4,1,,,,,,,,,,,,,,,,,,,,,,,,,,,,,,,,,,,,,,,,,,,,,,
269194,001,2022-11-21_00h49.18.291,Info_measure_main_exp,2022.2.2,Win32,144.092219,,,,,,,,,,,,,,,,,,masks/mask_002.jpg,,,,,,,,,,,,,,,,,,,,,,,,,,,,,,,,,,,,,,,,,,,0,2,2,1,1,,,,,,,,,,,,,,,,,,,,,,,,,,,,,,,,,,,,,,,,,,,,,,
269194,001,2022-11-21_00h49.18.291,Info_measure_main_exp,2022.2.2,Win32,144.092219,,,,,,,,,,,,,,,,,,masks/mask_004.jpg,,,,,,,,,,,,,,,,,,,,,,,,,,,,,,,,,,,,,,,,,,,0,3,3,3,1,,,,,,,,,,,,,,,,,,,,,,,,,,,,,,,,,,,,,,,,,,,,,,
269194,001,2022-11-21_00h49.18.291,Info_measure_main_exp,2022.2.2,Win32,144.092219,,,,,,,,,,,,,,,,,,masks/mask_003.jpg,,,,,,,,,,,,,,,,,,,,,,,,,,,,,,,,,,,,,,,,,,,0,4,4,2,1,,,,,,,,,,,,,,,,,,,,,,,,,,,,,,,,,,,,,,,,,,,,,,
269194,001,2022-11-21_00h49.18.291,Info_measure_main_exp,2022.2.2,Win32,144.092219,,,,,,,,,,,,,,,,,,masks/mask_004.jpg,,,,,,,,,,,,,,,,,,,,,,,,,,,,,,,,,,,,,,,,,,,,,,,,0,0,0,3,1,,,,,,,,,,,,,,,,,,,,,,,,,,,,,,,,,,,,,,,,,
269194,001,2022-11-21_00h49.18.291,Info_measure_main_exp,2022.2.2,Win32,144.092219,,,,,,,,,,,,,,,,,,masks/mask_002.jpg,,,,,,,,,,,,,,,,,,,,,,,,,,,,,,,,,,,,,,,,,,,,,,,,0,1,1,1,1,,,,,,,,,,,,,,,,,,,,,,,,,,,,,,,,,,,,,,,,,
269194,001,2022-11-21_00h49.18.291,Info_measure_main_exp,2022.2.2,Win32,144.092219,,,,,,,,,,,,,,,,,,masks/mask_005.jpg,,,,,,,,,,,,,,,,,,,,,,,,,,,,,,,,,,,,,,,,,,,,,,,,0,2,2,4,1,,,,,,,,,,,,,,,,,,,,,,,,,,,,,,,,,,,,,,,,,
269194,001,2022-11-21_00h49.18.291,Info_measure_main_exp,2022.2.2,Win32,144.092219,,,,,,,,,,,,,,,,,,masks/mask_003.jpg,,,,,,,,,,,,,,,,,,,,,,,,,,,,,,,,,,,,,,,,,,,,,,,,0,3,3,2,1,,,,,,,,,,,,,,,,,,,,,,,,,,,,,,,,,,,,,,,,,
269194,001,2022-11-21_00h49.18.291,Info_measure_main_exp,2022.2.2,Win32,144.092219,,,,,,,,,,,,,,,,,,masks/mask_001.jpg,,,,,,,,,,,,,,,,,,,,,,,,,,,,,,,,,,,,,,,,,,,,,,,,0,4,4,0,1,,,,,,,,,,,,,,,,,,,,,,,,,,,,,,,,,,,,,,,,,
269194,001,2022-11-21_00h49.18.291,Info_measure_main_exp,2022.2.2,Win32,144.092219,,,,,,,,,,,,,,,,,,,,,,,,,,,,,,2,1.451,1,,,,,,,,,,,,0,131,5,5,2082,2154,absent_patch/patch0002082.jpg,absent_patch/patch0002154.jpg,,,,,,,,,,,,,,,,,,,,-0.10462963,-0.07037037,1,0,0,response5disk,26,0.009259259,-0.000925926,1,0,0,center_square,0,25,25,33,1,,,,,,,,,,,,,,,,,,,,,,,
269194,001,2022-11-21_00h49.18.291,Info_measure_main_exp,2022.2.2,Win32,144.092219,,,,,,,,,,,,,,,,,,masks/mask_004.jpg,,,,,,,,,,,,,,,,,,,,,,,,,,,,,,,,,,,,,,,,,,,0,0,0,3,1,,,,,,,,,,,,,,,,,,,,,,,,,,,,,,,,,,,,,,,,,,,,,,
269194,001,2022-11-21_00h49.18.291,Info_measure_main_exp,2022.2.2,Win32,144.092219,,,,,,,,,,,,,,,,,,masks/mask_003.jpg,,,,,,,,,,,,,,,,,,,,,,,,,,,,,,,,,,,,,,,,,,,0,1,1,2,1,,,,,,,,,,,,,,,,,,,,,,,,,,,,,,,,,,,,,,,,,,,,,,
269194,001,2022-11-21_00h49.18.291,Info_measure_main_exp,2022.2.2,Win32,144.092219,,,,,,,,,,,,,,,,,,masks/mask_001.jpg,,,,,,,,,,,,,,,,,,,,,,,,,,,,,,,,,,,,,,,,,,,0,2,2,0,1,,,,,,,,,,,,,,,,,,,,,,,,,,,,,,,,,,,,,,,,,,,,,,
269194,001,2022-11-21_00h49.18.291,Info_measure_main_exp,2022.2.2,Win32,144.092219,,,,,,,,,,,,,,,,,,masks/mask_002.jpg,,,,,,,,,,,,,,,,,,,,,,,,,,,,,,,,,,,,,,,,,,,0,3,3,1,1,,,,,,,,,,,,,,,,,,,,,,,,,,,,,,,,,,,,,,,,,,,,,,
269194,001,2022-11-21_00h49.18.291,Info_measure_main_exp,2022.2.2,Win32,144.092219,,,,,,,,,,,,,,,,,,masks/mask_005.jpg,,,,,,,,,,,,,,,,,,,,,,,,,,,,,,,,,,,,,,,,,,,0,4,4,4,1,,,,,,,,,,,,,,,,,,,,,,,,,,,,,,,,,,,,,,,,,,,,,,
269194,001,2022-11-21_00h49.18.291,Info_measure_main_exp,2022.2.2,Win32,144.092219,,,,,,,,,,,,,,,,,,masks/mask_004.jpg,,,,,,,,,,,,,,,,,,,,,,,,,,,,,,,,,,,,,,,,,,,,,,,,0,0,0,3,1,,,,,,,,,,,,,,,,,,,,,,,,,,,,,,,,,,,,,,,,,
269194,001,2022-11-21_00h49.18.291,Info_measure_main_exp,2022.2.2,Win32,144.092219,,,,,,,,,,,,,,,,,,masks/mask_003.jpg,,,,,,,,,,,,,,,,,,,,,,,,,,,,,,,,,,,,,,,,,,,,,,,,0,1,1,2,1,,,,,,,,,,,,,,,,,,,,,,,,,,,,,,,,,,,,,,,,,
269194,001,2022-11-21_00h49.18.291,Info_measure_main_exp,2022.2.2,Win32,144.092219,,,,,,,,,,,,,,,,,,masks/mask_001.jpg,,,,,,,,,,,,,,,,,,,,,,,,,,,,,,,,,,,,,,,,,,,,,,,,0,2,2,0,1,,,,,,,,,,,,,,,,,,,,,,,,,,,,,,,,,,,,,,,,,
269194,001,2022-11-21_00h49.18.291,Info_measure_main_exp,2022.2.2,Win32,144.092219,,,,,,,,,,,,,,,,,,masks/mask_002.jpg,,,,,,,,,,,,,,,,,,,,,,,,,,,,,,,,,,,,,,,,,,,,,,,,0,3,3,1,1,,,,,,,,,,,,,,,,,,,,,,,,,,,,,,,,,,,,,,,,,
269194,001,2022-11-21_00h49.18.291,Info_measure_main_exp,2022.2.2,Win32,144.092219,,,,,,,,,,,,,,,,,,masks/mask_005.jpg,,,,,,,,,,,,,,,,,,,,,,,,,,,,,,,,,,,,,,,,,,,,,,,,0,4,4,4,1,,,,,,,,,,,,,,,,,,,,,,,,,,,,,,,,,,,,,,,,,
269194,001,2022-11-21_00h49.18.291,Info_measure_main_exp,2022.2.2,Win32,144.092219,,,,,,,,,,,,,,,,,,,,,,,,,,,,,,5,0.583,1,,,,,,,,,,,,0,131,5,5,2154,2250,absent_patch/patch0002154.jpg,absent_patch/patch0002250.jpg,,,,,,,,,,,,,,,,,,,,0.177777778,-0.078703704,1,0,0,response3disk,27,0.010185185,-0.014814815,1,0,0,center_square,0,26,26,108,1,,,,,,,,,,,,,,,,,,,,,,,
269194,001,2022-11-21_00h49.18.291,Info_measure_main_exp,2022.2.2,Win32,144.092219,,,,,,,,,,,,,,,,,,masks/mask_001.jpg,,,,,,,,,,,,,,,,,,,,,,,,,,,,,,,,,,,,,,,,,,,0,0,0,0,1,,,,,,,,,,,,,,,,,,,,,,,,,,,,,,,,,,,,,,,,,,,,,,
269194,001,2022-11-21_00h49.18.291,Info_measure_main_exp,2022.2.2,Win32,144.092219,,,,,,,,,,,,,,,,,,masks/mask_004.jpg,,,,,,,,,,,,,,,,,,,,,,,,,,,,,,,,,,,,,,,,,,,0,1,1,3,1,,,,,,,,,,,,,,,,,,,,,,,,,,,,,,,,,,,,,,,,,,,,,,
269194,001,2022-11-21_00h49.18.291,Info_measure_main_exp,2022.2.2,Win32,144.092219,,,,,,,,,,,,,,,,,,masks/mask_002.jpg,,,,,,,,,,,,,,,,,,,,,,,,,,,,,,,,,,,,,,,,,,,0,2,2,1,1,,,,,,,,,,,,,,,,,,,,,,,,,,,,,,,,,,,,,,,,,,,,,,
269194,001,2022-11-21_00h49.18.291,Info_measure_main_exp,2022.2.2,Win32,144.092219,,,,,,,,,,,,,,,,,,masks/mask_003.jpg,,,,,,,,,,,,,,,,,,,,,,,,,,,,,,,,,,,,,,,,,,,0,3,3,2,1,,,,,,,,,,,,,,,,,,,,,,,,,,,,,,,,,,,,,,,,,,,,,,
269194,001,2022-11-21_00h49.18.291,Info_measure_main_exp,2022.2.2,Win32,144.092219,,,,,,,,,,,,,,,,,,masks/mask_005.jpg,,,,,,,,,,,,,,,,,,,,,,,,,,,,,,,,,,,,,,,,,,,0,4,4,4,1,,,,,,,,,,,,,,,,,,,,,,,,,,,,,,,,,,,,,,,,,,,,,,
269194,001,2022-11-21_00h49.18.291,Info_measure_main_exp,2022.2.2,Win32,144.092219,,,,,,,,,,,,,,,,,,masks/mask_005.jpg,,,,,,,,,,,,,,,,,,,,,,,,,,,,,,,,,,,,,,,,,,,,,,,,0,0,0,4,1,,,,,,,,,,,,,,,,,,,,,,,,,,,,,,,,,,,,,,,,,
269194,001,2022-11-21_00h49.18.291,Info_measure_main_exp,2022.2.2,Win32,144.092219,,,,,,,,,,,,,,,,,,masks/mask_003.jpg,,,,,,,,,,,,,,,,,,,,,,,,,,,,,,,,,,,,,,,,,,,,,,,,0,1,1,2,1,,,,,,,,,,,,,,,,,,,,,,,,,,,,,,,,,,,,,,,,,
269194,001,2022-11-21_00h49.18.291,Info_measure_main_exp,2022.2.2,Win32,144.092219,,,,,,,,,,,,,,,,,,masks/mask_004.jpg,,,,,,,,,,,,,,,,,,,,,,,,,,,,,,,,,,,,,,,,,,,,,,,,0,2,2,3,1,,,,,,,,,,,,,,,,,,,,,,,,,,,,,,,,,,,,,,,,,
269194,001,2022-11-21_00h49.18.291,Info_measure_main_exp,2022.2.2,Win32,144.092219,,,,,,,,,,,,,,,,,,masks/mask_002.jpg,,,,,,,,,,,,,,,,,,,,,,,,,,,,,,,,,,,,,,,,,,,,,,,,0,3,3,1,1,,,,,,,,,,,,,,,,,,,,,,,,,,,,,,,,,,,,,,,,,
269194,001,2022-11-21_00h49.18.291,Info_measure_main_exp,2022.2.2,Win32,144.092219,,,,,,,,,,,,,,,,,,masks/mask_001.jpg,,,,,,,,,,,,,,,,,,,,,,,,,,,,,,,,,,,,,,,,,,,,,,,,0,4,4,0,1,,,,,,,,,,,,,,,,,,,,,,,,,,,,,,,,,,,,,,,,,
269194,001,2022-11-21_00h49.18.291,Info_measure_main_exp,2022.2.2,Win32,144.092219,,,,,,,,,,,,,,,,,,,,,,,,,,,,,,4,0.611,1,,,,,,,,,,,,0,131,5,5,1950,2142,absent_patch/patch0001950.jpg,absent_patch/patch0002142.jpg,,,,,,,,,,,,,,,,,,,,0.046296296,-0.127777778,1,0,0,response3disk,28,-0.003703704,0.008333333,1,0,0,center_square,0,27,27,83,1,,,,,,,,,,,,,,,,,,,,,,,
269194,001,2022-11-21_00h49.18.291,Info_measure_main_exp,2022.2.2,Win32,144.092219,,,,,,,,,,,,,,,,,,masks/mask_003.jpg,,,,,,,,,,,,,,,,,,,,,,,,,,,,,,,,,,,,,,,,,,,0,0,0,2,1,,,,,,,,,,,,,,,,,,,,,,,,,,,,,,,,,,,,,,,,,,,,,,
269194,001,2022-11-21_00h49.18.291,Info_measure_main_exp,2022.2.2,Win32,144.092219,,,,,,,,,,,,,,,,,,masks/mask_005.jpg,,,,,,,,,,,,,,,,,,,,,,,,,,,,,,,,,,,,,,,,,,,0,1,1,4,1,,,,,,,,,,,,,,,,,,,,,,,,,,,,,,,,,,,,,,,,,,,,,,
269194,001,2022-11-21_00h49.18.291,Info_measure_main_exp,2022.2.2,Win32,144.092219,,,,,,,,,,,,,,,,,,masks/mask_001.jpg,,,,,,,,,,,,,,,,,,,,,,,,,,,,,,,,,,,,,,,,,,,0,2,2,0,1,,,,,,,,,,,,,,,,,,,,,,,,,,,,,,,,,,,,,,,,,,,,,,
269194,001,2022-11-21_00h49.18.291,Info_measure_main_exp,2022.2.2,Win32,144.092219,,,,,,,,,,,,,,,,,,masks/mask_002.jpg,,,,,,,,,,,,,,,,,,,,,,,,,,,,,,,,,,,,,,,,,,,0,3,3,1,1,,,,,,,,,,,,,,,,,,,,,,,,,,,,,,,,,,,,,,,,,,,,,,
269194,001,2022-11-21_00h49.18.291,Info_measure_main_exp,2022.2.2,Win32,144.092219,,,,,,,,,,,,,,,,,,masks/mask_004.jpg,,,,,,,,,,,,,,,,,,,,,,,,,,,,,,,,,,,,,,,,,,,0,4,4,3,1,,,,,,,,,,,,,,,,,,,,,,,,,,,,,,,,,,,,,,,,,,,,,,
269194,001,2022-11-21_00h49.18.291,Info_measure_main_exp,2022.2.2,Win32,144.092219,,,,,,,,,,,,,,,,,,masks/mask_002.jpg,,,,,,,,,,,,,,,,,,,,,,,,,,,,,,,,,,,,,,,,,,,,,,,,0,0,0,1,1,,,,,,,,,,,,,,,,,,,,,,,,,,,,,,,,,,,,,,,,,
269194,001,2022-11-21_00h49.18.291,Info_measure_main_exp,2022.2.2,Win32,144.092219,,,,,,,,,,,,,,,,,,masks/mask_001.jpg,,,,,,,,,,,,,,,,,,,,,,,,,,,,,,,,,,,,,,,,,,,,,,,,0,1,1,0,1,,,,,,,,,,,,,,,,,,,,,,,,,,,,,,,,,,,,,,,,,
269194,001,2022-11-21_00h49.18.291,Info_measure_main_exp,2022.2.2,Win32,144.092219,,,,,,,,,,,,,,,,,,masks/mask_005.jpg,,,,,,,,,,,,,,,,,,,,,,,,,,,,,,,,,,,,,,,,,,,,,,,,0,2,2,4,1,,,,,,,,,,,,,,,,,,,,,,,,,,,,,,,,,,,,,,,,,
269194,001,2022-11-21_00h49.18.291,Info_measure_main_exp,2022.2.2,Win32,144.092219,,,,,,,,,,,,,,,,,,masks/mask_004.jpg,,,,,,,,,,,,,,,,,,,,,,,,,,,,,,,,,,,,,,,,,,,,,,,,0,3,3,3,1,,,,,,,,,,,,,,,,,,,,,,,,,,,,,,,,,,,,,,,,,
269194,001,2022-11-21_00h49.18.291,Info_measure_main_exp,2022.2.2,Win32,144.092219,,,,,,,,,,,,,,,,,,masks/mask_003.jpg,,,,,,,,,,,,,,,,,,,,,,,,,,,,,,,,,,,,,,,,,,,,,,,,0,4,4,2,1,,,,,,,,,,,,,,,,,,,,,,,,,,,,,,,,,,,,,,,,,
269194,001,2022-11-21_00h49.18.291,Info_measure_main_exp,2022.2.2,Win32,144.092219,,,,,,,,,,,,,,,,,,,,,,,,,,,,,,5,1.16,1,,,,,,,,,,,,0,131,5,5,2190,1974,absent_patch/patch0002190.jpg,absent_patch/patch0001974.jpg,,,,,,,,,,,,,,,,,,,,0.171296296,-0.065740741,1,0,0,response3disk,29,0.003703704,-0.001851852,1,0,0,center_square,0,28,28,119,1,,,,,,,,,,,,,,,,,,,,,,,
269194,001,2022-11-21_00h49.18.291,Info_measure_main_exp,2022.2.2,Win32,144.092219,,,,,,,,,,,,,,,,,,masks/mask_004.jpg,,,,,,,,,,,,,,,,,,,,,,,,,,,,,,,,,,,,,,,,,,,0,0,0,3,1,,,,,,,,,,,,,,,,,,,,,,,,,,,,,,,,,,,,,,,,,,,,,,
269194,001,2022-11-21_00h49.18.291,Info_measure_main_exp,2022.2.2,Win32,144.092219,,,,,,,,,,,,,,,,,,masks/mask_001.jpg,,,,,,,,,,,,,,,,,,,,,,,,,,,,,,,,,,,,,,,,,,,0,1,1,0,1,,,,,,,,,,,,,,,,,,,,,,,,,,,,,,,,,,,,,,,,,,,,,,
269194,001,2022-11-21_00h49.18.291,Info_measure_main_exp,2022.2.2,Win32,144.092219,,,,,,,,,,,,,,,,,,masks/mask_002.jpg,,,,,,,,,,,,,,,,,,,,,,,,,,,,,,,,,,,,,,,,,,,0,2,2,1,1,,,,,,,,,,,,,,,,,,,,,,,,,,,,,,,,,,,,,,,,,,,,,,
269194,001,2022-11-21_00h49.18.291,Info_measure_main_exp,2022.2.2,Win32,144.092219,,,,,,,,,,,,,,,,,,masks/mask_005.jpg,,,,,,,,,,,,,,,,,,,,,,,,,,,,,,,,,,,,,,,,,,,0,3,3,4,1,,,,,,,,,,,,,,,,,,,,,,,,,,,,,,,,,,,,,,,,,,,,,,
269194,001,2022-11-21_00h49.18.291,Info_measure_main_exp,2022.2.2,Win32,144.092219,,,,,,,,,,,,,,,,,,masks/mask_003.jpg,,,,,,,,,,,,,,,,,,,,,,,,,,,,,,,,,,,,,,,,,,,0,4,4,2,1,,,,,,,,,,,,,,,,,,,,,,,,,,,,,,,,,,,,,,,,,,,,,,
269194,001,2022-11-21_00h49.18.291,Info_measure_main_exp,2022.2.2,Win32,144.092219,,,,,,,,,,,,,,,,,,masks/mask_003.jpg,,,,,,,,,,,,,,,,,,,,,,,,,,,,,,,,,,,,,,,,,,,,,,,,0,0,0,2,1,,,,,,,,,,,,,,,,,,,,,,,,,,,,,,,,,,,,,,,,,
269194,001,2022-11-21_00h49.18.291,Info_measure_main_exp,2022.2.2,Win32,144.092219,,,,,,,,,,,,,,,,,,masks/mask_004.jpg,,,,,,,,,,,,,,,,,,,,,,,,,,,,,,,,,,,,,,,,,,,,,,,,0,1,1,3,1,,,,,,,,,,,,,,,,,,,,,,,,,,,,,,,,,,,,,,,,,
269194,001,2022-11-21_00h49.18.291,Info_measure_main_exp,2022.2.2,Win32,144.092219,,,,,,,,,,,,,,,,,,masks/mask_001.jpg,,,,,,,,,,,,,,,,,,,,,,,,,,,,,,,,,,,,,,,,,,,,,,,,0,2,2,0,1,,,,,,,,,,,,,,,,,,,,,,,,,,,,,,,,,,,,,,,,,
269194,001,2022-11-21_00h49.18.291,Info_measure_main_exp,2022.2.2,Win32,144.092219,,,,,,,,,,,,,,,,,,masks/mask_002.jpg,,,,,,,,,,,,,,,,,,,,,,,,,,,,,,,,,,,,,,,,,,,,,,,,0,3,3,1,1,,,,,,,,,,,,,,,,,,,,,,,,,,,,,,,,,,,,,,,,,
269194,001,2022-11-21_00h49.18.291,Info_measure_main_exp,2022.2.2,Win32,144.092219,,,,,,,,,,,,,,,,,,masks/mask_005.jpg,,,,,,,,,,,,,,,,,,,,,,,,,,,,,,,,,,,,,,,,,,,,,,,,0,4,4,4,1,,,,,,,,,,,,,,,,,,,,,,,,,,,,,,,,,,,,,,,,,
269194,001,2022-11-21_00h49.18.291,Info_measure_main_exp,2022.2.2,Win32,144.092219,,,,,,,,,,,,,,,,,,,,,,,,,,,,,,0,0.569,1,,,,,,,,,,,,0,131,5,5,2142,2142,absent_patch/patch0002142.jpg,absent_patch/patch0002142.jpg,,,,,,,,,,,,,,,,,,,,-0.031481481,0.126851852,1,0,0,response7disk,30,0.002777778,0.011111111,1,0,0,center_square,0,29,29,13,1,,,,,,,,,,,,,,,,,,,,,,,
269194,001,2022-11-21_00h49.18.291,Info_measure_main_exp,2022.2.2,Win32,144.092219,,,,,,,,,,,,,,,,,,masks/mask_002.jpg,,,,,,,,,,,,,,,,,,,,,,,,,,,,,,,,,,,,,,,,,,,0,0,0,1,1,,,,,,,,,,,,,,,,,,,,,,,,,,,,,,,,,,,,,,,,,,,,,,
269194,001,2022-11-21_00h49.18.291,Info_measure_main_exp,2022.2.2,Win32,144.092219,,,,,,,,,,,,,,,,,,masks/mask_005.jpg,,,,,,,,,,,,,,,,,,,,,,,,,,,,,,,,,,,,,,,,,,,0,1,1,4,1,,,,,,,,,,,,,,,,,,,,,,,,,,,,,,,,,,,,,,,,,,,,,,
269194,001,2022-11-21_00h49.18.291,Info_measure_main_exp,2022.2.2,Win32,144.092219,,,,,,,,,,,,,,,,,,masks/mask_004.jpg,,,,,,,,,,,,,,,,,,,,,,,,,,,,,,,,,,,,,,,,,,,0,2,2,3,1,,,,,,,,,,,,,,,,,,,,,,,,,,,,,,,,,,,,,,,,,,,,,,
269194,001,2022-11-21_00h49.18.291,Info_measure_main_exp,2022.2.2,Win32,144.092219,,,,,,,,,,,,,,,,,,masks/mask_003.jpg,,,,,,,,,,,,,,,,,,,,,,,,,,,,,,,,,,,,,,,,,,,0,3,3,2,1,,,,,,,,,,,,,,,,,,,,,,,,,,,,,,,,,,,,,,,,,,,,,,
269194,001,2022-11-21_00h49.18.291,Info_measure_main_exp,2022.2.2,Win32,144.092219,,,,,,,,,,,,,,,,,,masks/mask_001.jpg,,,,,,,,,,,,,,,,,,,,,,,,,,,,,,,,,,,,,,,,,,,0,4,4,0,1,,,,,,,,,,,,,,,,,,,,,,,,,,,,,,,,,,,,,,,,,,,,,,
269194,001,2022-11-21_00h49.18.291,Info_measure_main_exp,2022.2.2,Win32,144.092219,,,,,,,,,,,,,,,,,,masks/mask_004.jpg,,,,,,,,,,,,,,,,,,,,,,,,,,,,,,,,,,,,,,,,,,,,,,,,0,0,0,3,1,,,,,,,,,,,,,,,,,,,,,,,,,,,,,,,,,,,,,,,,,
269194,001,2022-11-21_00h49.18.291,Info_measure_main_exp,2022.2.2,Win32,144.092219,,,,,,,,,,,,,,,,,,masks/mask_003.jpg,,,,,,,,,,,,,,,,,,,,,,,,,,,,,,,,,,,,,,,,,,,,,,,,0,1,1,2,1,,,,,,,,,,,,,,,,,,,,,,,,,,,,,,,,,,,,,,,,,
269194,001,2022-11-21_00h49.18.291,Info_measure_main_exp,2022.2.2,Win32,144.092219,,,,,,,,,,,,,,,,,,masks/mask_001.jpg,,,,,,,,,,,,,,,,,,,,,,,,,,,,,,,,,,,,,,,,,,,,,,,,0,2,2,0,1,,,,,,,,,,,,,,,,,,,,,,,,,,,,,,,,,,,,,,,,,
269194,001,2022-11-21_00h49.18.291,Info_measure_main_exp,2022.2.2,Win32,144.092219,,,,,,,,,,,,,,,,,,masks/mask_005.jpg,,,,,,,,,,,,,,,,,,,,,,,,,,,,,,,,,,,,,,,,,,,,,,,,0,3,3,4,1,,,,,,,,,,,,,,,,,,,,,,,,,,,,,,,,,,,,,,,,,
269194,001,2022-11-21_00h49.18.291,Info_measure_main_exp,2022.2.2,Win32,144.092219,,,,,,,,,,,,,,,,,,masks/mask_002.jpg,,,,,,,,,,,,,,,,,,,,,,,,,,,,,,,,,,,,,,,,,,,,,,,,0,4,4,1,1,,,,,,,,,,,,,,,,,,,,,,,,,,,,,,,,,,,,,,,,,
269194,001,2022-11-21_00h49.18.291,Info_measure_main_exp,2022.2.2,Win32,144.092219,,,,,,,,,,,,,,,,,,,,,,,,,,,,,,7,0.862,1,,,,,,,,,,,,0,131,5,5,2250,2298,absent_patch/patch0002250.jpg,absent_patch/patch0002298.jpg,,,,,,,,,,,,,,,,,,,,0.082407407,0.124074074,1,0,0,response1disk,31,-0.00462963,0.000925926,1,0,0,center_square,0,30,30,59,1,,,,,,,,,,,,,,,,,,,,,,,
269194,001,2022-11-21_00h49.18.291,Info_measure_main_exp,2022.2.2,Win32,144.092219,,,,,,,,,,,,,,,,,,masks/mask_004.jpg,,,,,,,,,,,,,,,,,,,,,,,,,,,,,,,,,,,,,,,,,,,0,0,0,3,1,,,,,,,,,,,,,,,,,,,,,,,,,,,,,,,,,,,,,,,,,,,,,,
269194,001,2022-11-21_00h49.18.291,Info_measure_main_exp,2022.2.2,Win32,144.092219,,,,,,,,,,,,,,,,,,masks/mask_003.jpg,,,,,,,,,,,,,,,,,,,,,,,,,,,,,,,,,,,,,,,,,,,0,1,1,2,1,,,,,,,,,,,,,,,,,,,,,,,,,,,,,,,,,,,,,,,,,,,,,,
269194,001,2022-11-21_00h49.18.291,Info_measure_main_exp,2022.2.2,Win32,144.092219,,,,,,,,,,,,,,,,,,masks/mask_005.jpg,,,,,,,,,,,,,,,,,,,,,,,,,,,,,,,,,,,,,,,,,,,0,2,2,4,1,,,,,,,,,,,,,,,,,,,,,,,,,,,,,,,,,,,,,,,,,,,,,,
269194,001,2022-11-21_00h49.18.291,Info_measure_main_exp,2022.2.2,Win32,144.092219,,,,,,,,,,,,,,,,,,masks/mask_002.jpg,,,,,,,,,,,,,,,,,,,,,,,,,,,,,,,,,,,,,,,,,,,0,3,3,1,1,,,,,,,,,,,,,,,,,,,,,,,,,,,,,,,,,,,,,,,,,,,,,,
269194,001,2022-11-21_00h49.18.291,Info_measure_main_exp,2022.2.2,Win32,144.092219,,,,,,,,,,,,,,,,,,masks/mask_001.jpg,,,,,,,,,,,,,,,,,,,,,,,,,,,,,,,,,,,,,,,,,,,0,4,4,0,1,,,,,,,,,,,,,,,,,,,,,,,,,,,,,,,,,,,,,,,,,,,,,,
269194,001,2022-11-21_00h49.18.291,Info_measure_main_exp,2022.2.2,Win32,144.092219,,,,,,,,,,,,,,,,,,masks/mask_005.jpg,,,,,,,,,,,,,,,,,,,,,,,,,,,,,,,,,,,,,,,,,,,,,,,,0,0,0,4,1,,,,,,,,,,,,,,,,,,,,,,,,,,,,,,,,,,,,,,,,,
269194,001,2022-11-21_00h49.18.291,Info_measure_main_exp,2022.2.2,Win32,144.092219,,,,,,,,,,,,,,,,,,masks/mask_002.jpg,,,,,,,,,,,,,,,,,,,,,,,,,,,,,,,,,,,,,,,,,,,,,,,,0,1,1,1,1,,,,,,,,,,,,,,,,,,,,,,,,,,,,,,,,,,,,,,,,,
269194,001,2022-11-21_00h49.18.291,Info_measure_main_exp,2022.2.2,Win32,144.092219,,,,,,,,,,,,,,,,,,masks/mask_003.jpg,,,,,,,,,,,,,,,,,,,,,,,,,,,,,,,,,,,,,,,,,,,,,,,,0,2,2,2,1,,,,,,,,,,,,,,,,,,,,,,,,,,,,,,,,,,,,,,,,,
269194,001,2022-11-21_00h49.18.291,Info_measure_main_exp,2022.2.2,Win32,144.092219,,,,,,,,,,,,,,,,,,masks/mask_001.jpg,,,,,,,,,,,,,,,,,,,,,,,,,,,,,,,,,,,,,,,,,,,,,,,,0,3,3,0,1,,,,,,,,,,,,,,,,,,,,,,,,,,,,,,,,,,,,,,,,,
269194,001,2022-11-21_00h49.18.291,Info_measure_main_exp,2022.2.2,Win32,144.092219,,,,,,,,,,,,,,,,,,masks/mask_004.jpg,,,,,,,,,,,,,,,,,,,,,,,,,,,,,,,,,,,,,,,,,,,,,,,,0,4,4,3,1,,,,,,,,,,,,,,,,,,,,,,,,,,,,,,,,,,,,,,,,,
269194,001,2022-11-21_00h49.18.291,Info_measure_main_exp,2022.2.2,Win32,144.092219,,,,,,,,,,,,,,,,,,,,,,,,,,,,,,5,0.583,1,,,,,,,,,,,,0,131,5,5,2166,2154,absent_patch/patch0002166.jpg,absent_patch/patch0002154.jpg,,,,,,,,,,,,,,,,,,,,0.132407407,-0.051851852,1,0,0,response3disk,32,-0.005555556,0.009259259,1,0,0,center_square,0,31,31,79,1,,,,,,,,,,,,,,,,,,,,,,,
269194,001,2022-11-21_00h49.18.291,Info_measure_main_exp,2022.2.2,Win32,144.092219,,,,,,,,,,,,,,,,,,masks/mask_001.jpg,,,,,,,,,,,,,,,,,,,,,,,,,,,,,,,,,,,,,,,,,,,0,0,0,0,1,,,,,,,,,,,,,,,,,,,,,,,,,,,,,,,,,,,,,,,,,,,,,,
269194,001,2022-11-21_00h49.18.291,Info_measure_main_exp,2022.2.2,Win32,144.092219,,,,,,,,,,,,,,,,,,masks/mask_005.jpg,,,,,,,,,,,,,,,,,,,,,,,,,,,,,,,,,,,,,,,,,,,0,1,1,4,1,,,,,,,,,,,,,,,,,,,,,,,,,,,,,,,,,,,,,,,,,,,,,,
269194,001,2022-11-21_00h49.18.291,Info_measure_main_exp,2022.2.2,Win32,144.092219,,,,,,,,,,,,,,,,,,masks/mask_003.jpg,,,,,,,,,,,,,,,,,,,,,,,,,,,,,,,,,,,,,,,,,,,0,2,2,2,1,,,,,,,,,,,,,,,,,,,,,,,,,,,,,,,,,,,,,,,,,,,,,,
269194,001,2022-11-21_00h49.18.291,Info_measure_main_exp,2022.2.2,Win32,144.092219,,,,,,,,,,,,,,,,,,masks/mask_004.jpg,,,,,,,,,,,,,,,,,,,,,,,,,,,,,,,,,,,,,,,,,,,0,3,3,3,1,,,,,,,,,,,,,,,,,,,,,,,,,,,,,,,,,,,,,,,,,,,,,,
269194,001,2022-11-21_00h49.18.291,Info_measure_main_exp,2022.2.2,Win32,144.092219,,,,,,,,,,,,,,,,,,masks/mask_002.jpg,,,,,,,,,,,,,,,,,,,,,,,,,,,,,,,,,,,,,,,,,,,0,4,4,1,1,,,,,,,,,,,,,,,,,,,,,,,,,,,,,,,,,,,,,,,,,,,,,,
269194,001,2022-11-21_00h49.18.291,Info_measure_main_exp,2022.2.2,Win32,144.092219,,,,,,,,,,,,,,,,,,masks/mask_005.jpg,,,,,,,,,,,,,,,,,,,,,,,,,,,,,,,,,,,,,,,,,,,,,,,,0,0,0,4,1,,,,,,,,,,,,,,,,,,,,,,,,,,,,,,,,,,,,,,,,,
269194,001,2022-11-21_00h49.18.291,Info_measure_main_exp,2022.2.2,Win32,144.092219,,,,,,,,,,,,,,,,,,masks/mask_004.jpg,,,,,,,,,,,,,,,,,,,,,,,,,,,,,,,,,,,,,,,,,,,,,,,,0,1,1,3,1,,,,,,,,,,,,,,,,,,,,,,,,,,,,,,,,,,,,,,,,,
269194,001,2022-11-21_00h49.18.291,Info_measure_main_exp,2022.2.2,Win32,144.092219,,,,,,,,,,,,,,,,,,masks/mask_002.jpg,,,,,,,,,,,,,,,,,,,,,,,,,,,,,,,,,,,,,,,,,,,,,,,,0,2,2,1,1,,,,,,,,,,,,,,,,,,,,,,,,,,,,,,,,,,,,,,,,,
269194,001,2022-11-21_00h49.18.291,Info_measure_main_exp,2022.2.2,Win32,144.092219,,,,,,,,,,,,,,,,,,masks/mask_003.jpg,,,,,,,,,,,,,,,,,,,,,,,,,,,,,,,,,,,,,,,,,,,,,,,,0,3,3,2,1,,,,,,,,,,,,,,,,,,,,,,,,,,,,,,,,,,,,,,,,,
269194,001,2022-11-21_00h49.18.291,Info_measure_main_exp,2022.2.2,Win32,144.092219,,,,,,,,,,,,,,,,,,masks/mask_001.jpg,,,,,,,,,,,,,,,,,,,,,,,,,,,,,,,,,,,,,,,,,,,,,,,,0,4,4,0,1,,,,,,,,,,,,,,,,,,,,,,,,,,,,,,,,,,,,,,,,,
269194,001,2022-11-21_00h49.18.291,Info_measure_main_exp,2022.2.2,Win32,144.092219,,,,,,,,,,,,,,,,,,,,,,,,,,,,,,5,1.598,1,,,,,,,,,,,,0,131,5,5,1950,2298,absent_patch/patch0001950.jpg,absent_patch/patch0002298.jpg,,,,,,,,,,,,,,,,,,,,0.176851852,-0.059259259,1,0,0,response3disk,33,0.000925926,-0.001851852,1,0,0,center_square,0,32,32,18,1,,,,,,,,,,,,,,,,,,,,,,,
269194,001,2022-11-21_00h49.18.291,Info_measure_main_exp,2022.2.2,Win32,144.092219,,,,,,,,,,,,,,,,,,masks/mask_004.jpg,,,,,,,,,,,,,,,,,,,,,,,,,,,,,,,,,,,,,,,,,,,0,0,0,3,1,,,,,,,,,,,,,,,,,,,,,,,,,,,,,,,,,,,,,,,,,,,,,,
269194,001,2022-11-21_00h49.18.291,Info_measure_main_exp,2022.2.2,Win32,144.092219,,,,,,,,,,,,,,,,,,masks/mask_002.jpg,,,,,,,,,,,,,,,,,,,,,,,,,,,,,,,,,,,,,,,,,,,0,1,1,1,1,,,,,,,,,,,,,,,,,,,,,,,,,,,,,,,,,,,,,,,,,,,,,,
269194,001,2022-11-21_00h49.18.291,Info_measure_main_exp,2022.2.2,Win32,144.092219,,,,,,,,,,,,,,,,,,masks/mask_001.jpg,,,,,,,,,,,,,,,,,,,,,,,,,,,,,,,,,,,,,,,,,,,0,2,2,0,1,,,,,,,,,,,,,,,,,,,,,,,,,,,,,,,,,,,,,,,,,,,,,,
269194,001,2022-11-21_00h49.18.291,Info_measure_main_exp,2022.2.2,Win32,144.092219,,,,,,,,,,,,,,,,,,masks/mask_003.jpg,,,,,,,,,,,,,,,,,,,,,,,,,,,,,,,,,,,,,,,,,,,0,3,3,2,1,,,,,,,,,,,,,,,,,,,,,,,,,,,,,,,,,,,,,,,,,,,,,,
269194,001,2022-11-21_00h49.18.291,Info_measure_main_exp,2022.2.2,Win32,144.092219,,,,,,,,,,,,,,,,,,masks/mask_005.jpg,,,,,,,,,,,,,,,,,,,,,,,,,,,,,,,,,,,,,,,,,,,0,4,4,4,1,,,,,,,,,,,,,,,,,,,,,,,,,,,,,,,,,,,,,,,,,,,,,,
269194,001,2022-11-21_00h49.18.291,Info_measure_main_exp,2022.2.2,Win32,144.092219,,,,,,,,,,,,,,,,,,masks/mask_003.jpg,,,,,,,,,,,,,,,,,,,,,,,,,,,,,,,,,,,,,,,,,,,,,,,,0,0,0,2,1,,,,,,,,,,,,,,,,,,,,,,,,,,,,,,,,,,,,,,,,,
269194,001,2022-11-21_00h49.18.291,Info_measure_main_exp,2022.2.2,Win32,144.092219,,,,,,,,,,,,,,,,,,masks/mask_005.jpg,,,,,,,,,,,,,,,,,,,,,,,,,,,,,,,,,,,,,,,,,,,,,,,,0,1,1,4,1,,,,,,,,,,,,,,,,,,,,,,,,,,,,,,,,,,,,,,,,,
269194,001,2022-11-21_00h49.18.291,Info_measure_main_exp,2022.2.2,Win32,144.092219,,,,,,,,,,,,,,,,,,masks/mask_001.jpg,,,,,,,,,,,,,,,,,,,,,,,,,,,,,,,,,,,,,,,,,,,,,,,,0,2,2,0,1,,,,,,,,,,,,,,,,,,,,,,,,,,,,,,,,,,,,,,,,,
269194,001,2022-11-21_00h49.18.291,Info_measure_main_exp,2022.2.2,Win32,144.092219,,,,,,,,,,,,,,,,,,masks/mask_002.jpg,,,,,,,,,,,,,,,,,,,,,,,,,,,,,,,,,,,,,,,,,,,,,,,,0,3,3,1,1,,,,,,,,,,,,,,,,,,,,,,,,,,,,,,,,,,,,,,,,,
269194,001,2022-11-21_00h49.18.291,Info_measure_main_exp,2022.2.2,Win32,144.092219,,,,,,,,,,,,,,,,,,masks/mask_004.jpg,,,,,,,,,,,,,,,,,,,,,,,,,,,,,,,,,,,,,,,,,,,,,,,,0,4,4,3,1,,,,,,,,,,,,,,,,,,,,,,,,,,,,,,,,,,,,,,,,,
269194,001,2022-11-21_00h49.18.291,Info_measure_main_exp,2022.2.2,Win32,144.092219,,,,,,,,,,,,,,,,,,,,,,,,,,,,,,0,0.48,1,,,,,,,,,,,,0,131,5,5,2082,2082,absent_patch/patch0002082.jpg,absent_patch/patch0002082.jpg,,,,,,,,,,,,,,,,,,,,-0.024074074,0.150925926,1,0,0,response7disk,34,-0.005555556,0.005555556,1,0,0,center_square,0,33,33,74,1,,,,,,,,,,,,,,,,,,,,,,,
269194,001,2022-11-21_00h49.18.291,Info_measure_main_exp,2022.2.2,Win32,144.092219,,,,,,,,,,,,,,,,,,masks/mask_003.jpg,,,,,,,,,,,,,,,,,,,,,,,,,,,,,,,,,,,,,,,,,,,0,0,0,2,1,,,,,,,,,,,,,,,,,,,,,,,,,,,,,,,,,,,,,,,,,,,,,,
269194,001,2022-11-21_00h49.18.291,Info_measure_main_exp,2022.2.2,Win32,144.092219,,,,,,,,,,,,,,,,,,masks/mask_004.jpg,,,,,,,,,,,,,,,,,,,,,,,,,,,,,,,,,,,,,,,,,,,0,1,1,3,1,,,,,,,,,,,,,,,,,,,,,,,,,,,,,,,,,,,,,,,,,,,,,,
269194,001,2022-11-21_00h49.18.291,Info_measure_main_exp,2022.2.2,Win32,144.092219,,,,,,,,,,,,,,,,,,masks/mask_005.jpg,,,,,,,,,,,,,,,,,,,,,,,,,,,,,,,,,,,,,,,,,,,0,2,2,4,1,,,,,,,,,,,,,,,,,,,,,,,,,,,,,,,,,,,,,,,,,,,,,,
269194,001,2022-11-21_00h49.18.291,Info_measure_main_exp,2022.2.2,Win32,144.092219,,,,,,,,,,,,,,,,,,masks/mask_002.jpg,,,,,,,,,,,,,,,,,,,,,,,,,,,,,,,,,,,,,,,,,,,0,3,3,1,1,,,,,,,,,,,,,,,,,,,,,,,,,,,,,,,,,,,,,,,,,,,,,,
269194,001,2022-11-21_00h49.18.291,Info_measure_main_exp,2022.2.2,Win32,144.092219,,,,,,,,,,,,,,,,,,masks/mask_001.jpg,,,,,,,,,,,,,,,,,,,,,,,,,,,,,,,,,,,,,,,,,,,0,4,4,0,1,,,,,,,,,,,,,,,,,,,,,,,,,,,,,,,,,,,,,,,,,,,,,,
269194,001,2022-11-21_00h49.18.291,Info_measure_main_exp,2022.2.2,Win32,144.092219,,,,,,,,,,,,,,,,,,masks/mask_004.jpg,,,,,,,,,,,,,,,,,,,,,,,,,,,,,,,,,,,,,,,,,,,,,,,,0,0,0,3,1,,,,,,,,,,,,,,,,,,,,,,,,,,,,,,,,,,,,,,,,,
269194,001,2022-11-21_00h49.18.291,Info_measure_main_exp,2022.2.2,Win32,144.092219,,,,,,,,,,,,,,,,,,masks/mask_005.jpg,,,,,,,,,,,,,,,,,,,,,,,,,,,,,,,,,,,,,,,,,,,,,,,,0,1,1,4,1,,,,,,,,,,,,,,,,,,,,,,,,,,,,,,,,,,,,,,,,,
269194,001,2022-11-21_00h49.18.291,Info_measure_main_exp,2022.2.2,Win32,144.092219,,,,,,,,,,,,,,,,,,masks/mask_002.jpg,,,,,,,,,,,,,,,,,,,,,,,,,,,,,,,,,,,,,,,,,,,,,,,,0,2,2,1,1,,,,,,,,,,,,,,,,,,,,,,,,,,,,,,,,,,,,,,,,,
269194,001,2022-11-21_00h49.18.291,Info_measure_main_exp,2022.2.2,Win32,144.092219,,,,,,,,,,,,,,,,,,masks/mask_001.jpg,,,,,,,,,,,,,,,,,,,,,,,,,,,,,,,,,,,,,,,,,,,,,,,,0,3,3,0,1,,,,,,,,,,,,,,,,,,,,,,,,,,,,,,,,,,,,,,,,,
269194,001,2022-11-21_00h49.18.291,Info_measure_main_exp,2022.2.2,Win32,144.092219,,,,,,,,,,,,,,,,,,masks/mask_003.jpg,,,,,,,,,,,,,,,,,,,,,,,,,,,,,,,,,,,,,,,,,,,,,,,,0,4,4,2,1,,,,,,,,,,,,,,,,,,,,,,,,,,,,,,,,,,,,,,,,,
