participant,session,date,expName,psychopyVersion,OS,frameRate,space_press_continue.keys,space_press_continue.rt,space_press_continue_2.keys,space_press_continue_2.rt,space_press_continue_3.keys,space_press_continue_3.rt,space_press_continue_4.keys,space_press_continue_4.rt,space_press_continue_5.keys,space_press_continue_5.rt,space_press_continue_6.keys,space_press_continue_6.rt,prac_mask_loop_1.thisRepN,prac_mask_loop_1.thisTrialN,prac_mask_loop_1.thisN,prac_mask_loop_1.thisIndex,prac_mask_loop_1.ran,mask_name,prac_mask_loop_2.thisRepN,prac_mask_loop_2.thisTrialN,prac_mask_loop_2.thisN,prac_mask_loop_2.thisIndex,prac_mask_loop_2.ran,mouse_2.x,mouse_2.y,mouse_2.leftButton,mouse_2.midButton,mouse_2.rightButton,mouse_2.clicked_name,similarity,response_time,Pass,mouse_12.x,mouse_12.y,mouse_12.leftButton,mouse_12.midButton,mouse_12.rightButton,mouse_12.clicked_name,prac_loop.thisRepN,prac_loop.thisTrialN,prac_loop.thisN,prac_loop.thisIndex,prac_loop.ran,Pair_type,Image_num,Patch_1_loc,Patch_2_loc,Patch_1_info,Patch_2_info,Patch_1_name,Patch_2_name,mouse_1.x,mouse_1.y,mouse_1.leftButton,mouse_1.midButton,mouse_1.rightButton,mouse_1.time,mouse_1.clicked_name,space_press_continue_7.keys,space_press_continue_7.rt,mask_loop.thisRepN,mask_loop.thisTrialN,mask_loop.thisN,mask_loop.thisIndex,mask_loop.ran,mask_loop_2.thisRepN,mask_loop_2.thisTrialN,mask_loop_2.thisN,mask_loop_2.thisIndex,mask_loop_2.ran,mouse.x,mouse.y,mouse.leftButton,mouse.midButton,mouse.rightButton,mouse.clicked_name,trialNumber,mouse_11.x,mouse_11.y,mouse_11.leftButton,mouse_11.midButton,mouse_11.rightButton,mouse_11.clicked_name,first_pass_loop.thisRepN,first_pass_loop.thisTrialN,first_pass_loop.thisN,first_pass_loop.thisIndex,first_pass_loop.ran,mask_loop_3.thisRepN,mask_loop_3.thisTrialN,mask_loop_3.thisN,mask_loop_3.thisIndex,mask_loop_3.ran,mask_loop_4.thisRepN,mask_loop_4.thisTrialN,mask_loop_4.thisN,mask_loop_4.thisIndex,mask_loop_4.ran,mouse_3.x,mouse_3.y,mouse_3.leftButton,mouse_3.midButton,mouse_3.rightButton,mouse_3.clicked_name,double_pass_loop.thisRepN,double_pass_loop.thisTrialN,double_pass_loop.thisN,double_pass_loop.thisIndex,double_pass_loop.ran,space_exit.keys,space_exit.rt
279478,001,2022-11-21_24h20.40.927,Info_measure_main_exp,2022.2.2,Win32,59.48132286,,,,,,,,,,,,,,,,,,,,,,,,,,,,,,,,,,,,,,,,,,,,,,,,,,,,,,,,,,,,,,,,,,,,,,,,,,,,,,,,,,,,,,,,,,,,,,,,,,,,,,,,,,,,,,,
279478,001,2022-11-21_24h20.40.927,Info_measure_main_exp,2022.2.2,Win32,59.48132286,,,,,,,,,,,,,,,,,,,,,,,,,,,,,,,,,,,,,,,,,,,,,,,,,,,,,,,,,,,,,,,,,,,,,,,,,,,,,,,,,,,,,,,,,,,,,,,,,,,,,,,,,,,,,,,
279478,001,2022-11-21_24h20.40.927,Info_measure_main_exp,2022.2.2,Win32,59.48132286,space,1.3513,,,,,,,,,,,,,,,,,,,,,,,,,,,,,,,,,,,,,,,,,,,,,,,,,,,,,,,,,,,,,,,,,,,,,,,,,,,,,,,,,,,,,,,,,,,,,,,,,,,,,,,,,,,,,
279478,001,2022-11-21_24h20.40.927,Info_measure_main_exp,2022.2.2,Win32,59.48132286,,,space,0.3717,,,,,,,,,,,,,,,,,,,,,,,,,,,,,,,,,,,,,,,,,,,,,,,,,,,,,,,,,,,,,,,,,,,,,,,,,,,,,,,,,,,,,,,,,,,,,,,,,,,,,,,,,,,
279478,001,2022-11-21_24h20.40.927,Info_measure_main_exp,2022.2.2,Win32,59.48132286,,,,,space,0.209,,,,,,,,,,,,,,,,,,,,,,,,,,,,,,,,,,,,,,,,,,,,,,,,,,,,,,,,,,,,,,,,,,,,,,,,,,,,,,,,,,,,,,,,,,,,,,,,,,,,,,,,,
279478,001,2022-11-21_24h20.40.927,Info_measure_main_exp,2022.2.2,Win32,59.48132286,,,,,,,space,0.1262,,,,,,,,,,,,,,,,,,,,,,,,,,,,,,,,,,,,,,,,,,,,,,,,,,,,,,,,,,,,,,,,,,,,,,,,,,,,,,,,,,,,,,,,,,,,,,,,,,,,,,,
279478,001,2022-11-21_24h20.40.927,Info_measure_main_exp,2022.2.2,Win32,59.48132286,,,,,,,,,space,0.4377,,,,,,,,,,,,,,,,,,,,,,,,,,,,,,,,,,,,,,,,,,,,,,,,,,,,,,,,,,,,,,,,,,,,,,,,,,,,,,,,,,,,,,,,,,,,,,,,,,,,,
279478,001,2022-11-21_24h20.40.927,Info_measure_main_exp,2022.2.2,Win32,59.48132286,,,,,,,,,,,space,0.7421,,,,,,,,,,,,,,,,,,,,,,,,,,,,,,,,,,,,,,,,,,,,,,,,,,,,,,,,,,,,,,,,,,,,,,,,,,,,,,,,,,,,,,,,,,,,,,,,,,,
279478,001,2022-11-21_24h20.40.927,Info_measure_main_exp,2022.2.2,Win32,59.48132286,,,,,,,,,,,,,0,0,0,2,1,masks/mask_003.jpg,,,,,,,,,,,,,,,,,,,,,,,,,,,,,,,,,,,,,,,,,,,,,,,,,,,,,,,,,,,,,,,,,,,,,,,,,,,,,,,,,,,,,,,,,,,,,
279478,001,2022-11-21_24h20.40.927,Info_measure_main_exp,2022.2.2,Win32,59.48132286,,,,,,,,,,,,,0,1,1,0,1,masks/mask_001.jpg,,,,,,,,,,,,,,,,,,,,,,,,,,,,,,,,,,,,,,,,,,,,,,,,,,,,,,,,,,,,,,,,,,,,,,,,,,,,,,,,,,,,,,,,,,,,,
279478,001,2022-11-21_24h20.40.927,Info_measure_main_exp,2022.2.2,Win32,59.48132286,,,,,,,,,,,,,0,2,2,3,1,masks/mask_004.jpg,,,,,,,,,,,,,,,,,,,,,,,,,,,,,,,,,,,,,,,,,,,,,,,,,,,,,,,,,,,,,,,,,,,,,,,,,,,,,,,,,,,,,,,,,,,,,
279478,001,2022-11-21_24h20.40.927,Info_measure_main_exp,2022.2.2,Win32,59.48132286,,,,,,,,,,,,,0,3,3,1,1,masks/mask_002.jpg,,,,,,,,,,,,,,,,,,,,,,,,,,,,,,,,,,,,,,,,,,,,,,,,,,,,,,,,,,,,,,,,,,,,,,,,,,,,,,,,,,,,,,,,,,,,,
279478,001,2022-11-21_24h20.40.927,Info_measure_main_exp,2022.2.2,Win32,59.48132286,,,,,,,,,,,,,0,4,4,4,1,masks/mask_005.jpg,,,,,,,,,,,,,,,,,,,,,,,,,,,,,,,,,,,,,,,,,,,,,,,,,,,,,,,,,,,,,,,,,,,,,,,,,,,,,,,,,,,,,,,,,,,,,
279478,001,2022-11-21_24h20.40.927,Info_measure_main_exp,2022.2.2,Win32,59.48132286,,,,,,,,,,,,,,,,,,masks/mask_001.jpg,0,0,0,0,1,,,,,,,,,,,,,,,,,,,,,,,,,,,,,,,,,,,,,,,,,,,,,,,,,,,,,,,,,,,,,,,,,,,,,,,,,,,,,,,,,,,,,,,,
279478,001,2022-11-21_24h20.40.927,Info_measure_main_exp,2022.2.2,Win32,59.48132286,,,,,,,,,,,,,,,,,,masks/mask_004.jpg,0,1,1,3,1,,,,,,,,,,,,,,,,,,,,,,,,,,,,,,,,,,,,,,,,,,,,,,,,,,,,,,,,,,,,,,,,,,,,,,,,,,,,,,,,,,,,,,,,
279478,001,2022-11-21_24h20.40.927,Info_measure_main_exp,2022.2.2,Win32,59.48132286,,,,,,,,,,,,,,,,,,masks/mask_005.jpg,0,2,2,4,1,,,,,,,,,,,,,,,,,,,,,,,,,,,,,,,,,,,,,,,,,,,,,,,,,,,,,,,,,,,,,,,,,,,,,,,,,,,,,,,,,,,,,,,,
279478,001,2022-11-21_24h20.40.927,Info_measure_main_exp,2022.2.2,Win32,59.48132286,,,,,,,,,,,,,,,,,,masks/mask_002.jpg,0,3,3,1,1,,,,,,,,,,,,,,,,,,,,,,,,,,,,,,,,,,,,,,,,,,,,,,,,,,,,,,,,,,,,,,,,,,,,,,,,,,,,,,,,,,,,,,,,
279478,001,2022-11-21_24h20.40.927,Info_measure_main_exp,2022.2.2,Win32,59.48132286,,,,,,,,,,,,,,,,,,masks/mask_003.jpg,0,4,4,2,1,,,,,,,,,,,,,,,,,,,,,,,,,,,,,,,,,,,,,,,,,,,,,,,,,,,,,,,,,,,,,,,,,,,,,,,,,,,,,,,,,,,,,,,,
279478,001,2022-11-21_24h20.40.927,Info_measure_main_exp,2022.2.2,Win32,59.48132286,,,,,,,,,,,,,,,,,,,,,,,,-0.170572917,0.048177083,1,0,0,response7disk,1,6.7777,1,0.005208333,0.00390625,1,0,0,center_square,0,0,0,1,1,0,131,5,5,2514,2490,prac_patch/patch0002514.jpg,prac_patch/patch0002490.jpg,,,,,,,,,,,,,,,,,,,,,,,,,,,,,,,,,,,,,,,,,,,,,,,,,,,,,,,,,,,,
279478,001,2022-11-21_24h20.40.927,Info_measure_main_exp,2022.2.2,Win32,59.48132286,,,,,,,,,,,,,0,0,0,1,1,masks/mask_002.jpg,,,,,,,,,,,,,,,,,,,,,,,,,,,,,,,,,,,,,,,,,,,,,,,,,,,,,,,,,,,,,,,,,,,,,,,,,,,,,,,,,,,,,,,,,,,,,
279478,001,2022-11-21_24h20.40.927,Info_measure_main_exp,2022.2.2,Win32,59.48132286,,,,,,,,,,,,,0,1,1,2,1,masks/mask_003.jpg,,,,,,,,,,,,,,,,,,,,,,,,,,,,,,,,,,,,,,,,,,,,,,,,,,,,,,,,,,,,,,,,,,,,,,,,,,,,,,,,,,,,,,,,,,,,,
279478,001,2022-11-21_24h20.40.927,Info_measure_main_exp,2022.2.2,Win32,59.48132286,,,,,,,,,,,,,0,2,2,4,1,masks/mask_005.jpg,,,,,,,,,,,,,,,,,,,,,,,,,,,,,,,,,,,,,,,,,,,,,,,,,,,,,,,,,,,,,,,,,,,,,,,,,,,,,,,,,,,,,,,,,,,,,
279478,001,2022-11-21_24h20.40.927,Info_measure_main_exp,2022.2.2,Win32,59.48132286,,,,,,,,,,,,,0,3,3,0,1,masks/mask_001.jpg,,,,,,,,,,,,,,,,,,,,,,,,,,,,,,,,,,,,,,,,,,,,,,,,,,,,,,,,,,,,,,,,,,,,,,,,,,,,,,,,,,,,,,,,,,,,,
279478,001,2022-11-21_24h20.40.927,Info_measure_main_exp,2022.2.2,Win32,59.48132286,,,,,,,,,,,,,0,4,4,3,1,masks/mask_004.jpg,,,,,,,,,,,,,,,,,,,,,,,,,,,,,,,,,,,,,,,,,,,,,,,,,,,,,,,,,,,,,,,,,,,,,,,,,,,,,,,,,,,,,,,,,,,,,
279478,001,2022-11-21_24h20.40.927,Info_measure_main_exp,2022.2.2,Win32,59.48132286,,,,,,,,,,,,,,,,,,masks/mask_004.jpg,0,0,0,3,1,,,,,,,,,,,,,,,,,,,,,,,,,,,,,,,,,,,,,,,,,,,,,,,,,,,,,,,,,,,,,,,,,,,,,,,,,,,,,,,,,,,,,,,,
279478,001,2022-11-21_24h20.40.927,Info_measure_main_exp,2022.2.2,Win32,59.48132286,,,,,,,,,,,,,,,,,,masks/mask_001.jpg,0,1,1,0,1,,,,,,,,,,,,,,,,,,,,,,,,,,,,,,,,,,,,,,,,,,,,,,,,,,,,,,,,,,,,,,,,,,,,,,,,,,,,,,,,,,,,,,,,
279478,001,2022-11-21_24h20.40.927,Info_measure_main_exp,2022.2.2,Win32,59.48132286,,,,,,,,,,,,,,,,,,masks/mask_005.jpg,0,2,2,4,1,,,,,,,,,,,,,,,,,,,,,,,,,,,,,,,,,,,,,,,,,,,,,,,,,,,,,,,,,,,,,,,,,,,,,,,,,,,,,,,,,,,,,,,,
279478,001,2022-11-21_24h20.40.927,Info_measure_main_exp,2022.2.2,Win32,59.48132286,,,,,,,,,,,,,,,,,,masks/mask_002.jpg,0,3,3,1,1,,,,,,,,,,,,,,,,,,,,,,,,,,,,,,,,,,,,,,,,,,,,,,,,,,,,,,,,,,,,,,,,,,,,,,,,,,,,,,,,,,,,,,,,
279478,001,2022-11-21_24h20.40.927,Info_measure_main_exp,2022.2.2,Win32,59.48132286,,,,,,,,,,,,,,,,,,masks/mask_003.jpg,0,4,4,2,1,,,,,,,,,,,,,,,,,,,,,,,,,,,,,,,,,,,,,,,,,,,,,,,,,,,,,,,,,,,,,,,,,,,,,,,,,,,,,,,,,,,,,,,,
279478,001,2022-11-21_24h20.40.927,Info_measure_main_exp,2022.2.2,Win32,59.48132286,,,,,,,,,,,,,,,,,,,,,,,,-0.033854167,-0.108072917,1,0,0,response5disk,3,15.0414,1,0.00390625,0.001302083,1,0,0,center_square,0,1,1,0,1,0,131,5,5,2370,2406,prac_patch/patch0002370.jpg,prac_patch/patch0002406.jpg,,,,,,,,,,,,,,,,,,,,,,,,,,,,,,,,,,,,,,,,,,,,,,,,,,,,,,,,,,,,
279478,001,2022-11-21_24h20.40.927,Info_measure_main_exp,2022.2.2,Win32,59.48132286,,,,,,,,,,,,,0,0,0,2,1,masks/mask_003.jpg,,,,,,,,,,,,,,,,,,,,,,,,,,,,,,,,,,,,,,,,,,,,,,,,,,,,,,,,,,,,,,,,,,,,,,,,,,,,,,,,,,,,,,,,,,,,,
279478,001,2022-11-21_24h20.40.927,Info_measure_main_exp,2022.2.2,Win32,59.48132286,,,,,,,,,,,,,0,1,1,1,1,masks/mask_002.jpg,,,,,,,,,,,,,,,,,,,,,,,,,,,,,,,,,,,,,,,,,,,,,,,,,,,,,,,,,,,,,,,,,,,,,,,,,,,,,,,,,,,,,,,,,,,,,
279478,001,2022-11-21_24h20.40.927,Info_measure_main_exp,2022.2.2,Win32,59.48132286,,,,,,,,,,,,,0,2,2,4,1,masks/mask_005.jpg,,,,,,,,,,,,,,,,,,,,,,,,,,,,,,,,,,,,,,,,,,,,,,,,,,,,,,,,,,,,,,,,,,,,,,,,,,,,,,,,,,,,,,,,,,,,,
279478,001,2022-11-21_24h20.40.927,Info_measure_main_exp,2022.2.2,Win32,59.48132286,,,,,,,,,,,,,0,3,3,3,1,masks/mask_004.jpg,,,,,,,,,,,,,,,,,,,,,,,,,,,,,,,,,,,,,,,,,,,,,,,,,,,,,,,,,,,,,,,,,,,,,,,,,,,,,,,,,,,,,,,,,,,,,
279478,001,2022-11-21_24h20.40.927,Info_measure_main_exp,2022.2.2,Win32,59.48132286,,,,,,,,,,,,,0,4,4,0,1,masks/mask_001.jpg,,,,,,,,,,,,,,,,,,,,,,,,,,,,,,,,,,,,,,,,,,,,,,,,,,,,,,,,,,,,,,,,,,,,,,,,,,,,,,,,,,,,,,,,,,,,,
279478,001,2022-11-21_24h20.40.927,Info_measure_main_exp,2022.2.2,Win32,59.48132286,,,,,,,,,,,,,,,,,,masks/mask_004.jpg,0,0,0,3,1,,,,,,,,,,,,,,,,,,,,,,,,,,,,,,,,,,,,,,,,,,,,,,,,,,,,,,,,,,,,,,,,,,,,,,,,,,,,,,,,,,,,,,,,
279478,001,2022-11-21_24h20.40.927,Info_measure_main_exp,2022.2.2,Win32,59.48132286,,,,,,,,,,,,,,,,,,masks/mask_003.jpg,0,1,1,2,1,,,,,,,,,,,,,,,,,,,,,,,,,,,,,,,,,,,,,,,,,,,,,,,,,,,,,,,,,,,,,,,,,,,,,,,,,,,,,,,,,,,,,,,,
279478,001,2022-11-21_24h20.40.927,Info_measure_main_exp,2022.2.2,Win32,59.48132286,,,,,,,,,,,,,,,,,,masks/mask_001.jpg,0,2,2,0,1,,,,,,,,,,,,,,,,,,,,,,,,,,,,,,,,,,,,,,,,,,,,,,,,,,,,,,,,,,,,,,,,,,,,,,,,,,,,,,,,,,,,,,,,
279478,001,2022-11-21_24h20.40.927,Info_measure_main_exp,2022.2.2,Win32,59.48132286,,,,,,,,,,,,,,,,,,masks/mask_005.jpg,0,3,3,4,1,,,,,,,,,,,,,,,,,,,,,,,,,,,,,,,,,,,,,,,,,,,,,,,,,,,,,,,,,,,,,,,,,,,,,,,,,,,,,,,,,,,,,,,,
279478,001,2022-11-21_24h20.40.927,Info_measure_main_exp,2022.2.2,Win32,59.48132286,,,,,,,,,,,,,,,,,,masks/mask_002.jpg,0,4,4,1,1,,,,,,,,,,,,,,,,,,,,,,,,,,,,,,,,,,,,,,,,,,,,,,,,,,,,,,,,,,,,,,,,,,,,,,,,,,,,,,,,,,,,,,,,
279478,001,2022-11-21_24h20.40.927,Info_measure_main_exp,2022.2.2,Win32,59.48132286,,,,,,,,,,,,,,,,,,,,,,,,-0.04296875,0.12109375,1,0,0,response7disk,0,23.2914,1,0.001302083,-0.006510417,1,0,0,center_square,0,2,2,2,1,0,131,5,5,2526,2526,prac_patch/patch0002526.jpg,prac_patch/patch0002526.jpg,,,,,,,,,,,,,,,,,,,,,,,,,,,,,,,,,,,,,,,,,,,,,,,,,,,,,,,,,,,,
279478,001,2022-11-21_24h20.40.927,Info_measure_main_exp,2022.2.2,Win32,59.48132286,,,,,,,,,,,,,,,,,,,,,,,,,,,,,,,,,,,,,,,,,,,,,,,,,,,,,,,,,,,space,1.2083,,,,,,,,,,,,,,,,,,,,,,,,,,,,,,,,,,,,,,,,,,,,,,,,,,,
279478,001,2022-11-21_24h20.40.927,Info_measure_main_exp,2022.2.2,Win32,59.48132286,,,,,,,,,,,,,,,,,,masks/mask_005.jpg,,,,,,,,,,,,,,,,,,,,,,,,,,,,,,,,,,,,,,,,,,,0,0,0,4,1,,,,,,,,,,,,,,,,,,,,,,,,,,,,,,,,,,,,,,,,,,,,,,
279478,001,2022-11-21_24h20.40.927,Info_measure_main_exp,2022.2.2,Win32,59.48132286,,,,,,,,,,,,,,,,,,masks/mask_003.jpg,,,,,,,,,,,,,,,,,,,,,,,,,,,,,,,,,,,,,,,,,,,0,1,1,2,1,,,,,,,,,,,,,,,,,,,,,,,,,,,,,,,,,,,,,,,,,,,,,,
279478,001,2022-11-21_24h20.40.927,Info_measure_main_exp,2022.2.2,Win32,59.48132286,,,,,,,,,,,,,,,,,,masks/mask_004.jpg,,,,,,,,,,,,,,,,,,,,,,,,,,,,,,,,,,,,,,,,,,,0,2,2,3,1,,,,,,,,,,,,,,,,,,,,,,,,,,,,,,,,,,,,,,,,,,,,,,
279478,001,2022-11-21_24h20.40.927,Info_measure_main_exp,2022.2.2,Win32,59.48132286,,,,,,,,,,,,,,,,,,masks/mask_001.jpg,,,,,,,,,,,,,,,,,,,,,,,,,,,,,,,,,,,,,,,,,,,0,3,3,0,1,,,,,,,,,,,,,,,,,,,,,,,,,,,,,,,,,,,,,,,,,,,,,,
279478,001,2022-11-21_24h20.40.927,Info_measure_main_exp,2022.2.2,Win32,59.48132286,,,,,,,,,,,,,,,,,,masks/mask_002.jpg,,,,,,,,,,,,,,,,,,,,,,,,,,,,,,,,,,,,,,,,,,,0,4,4,1,1,,,,,,,,,,,,,,,,,,,,,,,,,,,,,,,,,,,,,,,,,,,,,,
279478,001,2022-11-21_24h20.40.927,Info_measure_main_exp,2022.2.2,Win32,59.48132286,,,,,,,,,,,,,,,,,,masks/mask_003.jpg,,,,,,,,,,,,,,,,,,,,,,,,,,,,,,,,,,,,,,,,,,,,,,,,0,0,0,2,1,,,,,,,,,,,,,,,,,,,,,,,,,,,,,,,,,,,,,,,,,
279478,001,2022-11-21_24h20.40.927,Info_measure_main_exp,2022.2.2,Win32,59.48132286,,,,,,,,,,,,,,,,,,masks/mask_005.jpg,,,,,,,,,,,,,,,,,,,,,,,,,,,,,,,,,,,,,,,,,,,,,,,,0,1,1,4,1,,,,,,,,,,,,,,,,,,,,,,,,,,,,,,,,,,,,,,,,,
279478,001,2022-11-21_24h20.40.927,Info_measure_main_exp,2022.2.2,Win32,59.48132286,,,,,,,,,,,,,,,,,,masks/mask_004.jpg,,,,,,,,,,,,,,,,,,,,,,,,,,,,,,,,,,,,,,,,,,,,,,,,0,2,2,3,1,,,,,,,,,,,,,,,,,,,,,,,,,,,,,,,,,,,,,,,,,
279478,001,2022-11-21_24h20.40.927,Info_measure_main_exp,2022.2.2,Win32,59.48132286,,,,,,,,,,,,,,,,,,masks/mask_001.jpg,,,,,,,,,,,,,,,,,,,,,,,,,,,,,,,,,,,,,,,,,,,,,,,,0,3,3,0,1,,,,,,,,,,,,,,,,,,,,,,,,,,,,,,,,,,,,,,,,,
279478,001,2022-11-21_24h20.40.927,Info_measure_main_exp,2022.2.2,Win32,59.48132286,,,,,,,,,,,,,,,,,,masks/mask_002.jpg,,,,,,,,,,,,,,,,,,,,,,,,,,,,,,,,,,,,,,,,,,,,,,,,0,4,4,1,1,,,,,,,,,,,,,,,,,,,,,,,,,,,,,,,,,,,,,,,,,
279478,001,2022-11-21_24h20.40.927,Info_measure_main_exp,2022.2.2,Win32,59.48132286,,,,,,,,,,,,,,,,,,,,,,,,,,,,,,4,0.8549,1,,,,,,,,,,,,0,131,5,5,2274,2178,absent_patch/patch0002274.jpg,absent_patch/patch0002178.jpg,,,,,,,,,,,,,,,,,,,,0.053385417,-0.140625,1,0,0,response3disk,1,0.005208333,0.002604167,1,0,0,center_square,0,0,0,117,1,,,,,,,,,,,,,,,,,,,,,,,
279478,001,2022-11-21_24h20.40.927,Info_measure_main_exp,2022.2.2,Win32,59.48132286,,,,,,,,,,,,,,,,,,masks/mask_002.jpg,,,,,,,,,,,,,,,,,,,,,,,,,,,,,,,,,,,,,,,,,,,0,0,0,1,1,,,,,,,,,,,,,,,,,,,,,,,,,,,,,,,,,,,,,,,,,,,,,,
279478,001,2022-11-21_24h20.40.927,Info_measure_main_exp,2022.2.2,Win32,59.48132286,,,,,,,,,,,,,,,,,,masks/mask_003.jpg,,,,,,,,,,,,,,,,,,,,,,,,,,,,,,,,,,,,,,,,,,,0,1,1,2,1,,,,,,,,,,,,,,,,,,,,,,,,,,,,,,,,,,,,,,,,,,,,,,
279478,001,2022-11-21_24h20.40.927,Info_measure_main_exp,2022.2.2,Win32,59.48132286,,,,,,,,,,,,,,,,,,masks/mask_004.jpg,,,,,,,,,,,,,,,,,,,,,,,,,,,,,,,,,,,,,,,,,,,0,2,2,3,1,,,,,,,,,,,,,,,,,,,,,,,,,,,,,,,,,,,,,,,,,,,,,,
279478,001,2022-11-21_24h20.40.927,Info_measure_main_exp,2022.2.2,Win32,59.48132286,,,,,,,,,,,,,,,,,,masks/mask_001.jpg,,,,,,,,,,,,,,,,,,,,,,,,,,,,,,,,,,,,,,,,,,,0,3,3,0,1,,,,,,,,,,,,,,,,,,,,,,,,,,,,,,,,,,,,,,,,,,,,,,
279478,001,2022-11-21_24h20.40.927,Info_measure_main_exp,2022.2.2,Win32,59.48132286,,,,,,,,,,,,,,,,,,masks/mask_005.jpg,,,,,,,,,,,,,,,,,,,,,,,,,,,,,,,,,,,,,,,,,,,0,4,4,4,1,,,,,,,,,,,,,,,,,,,,,,,,,,,,,,,,,,,,,,,,,,,,,,
279478,001,2022-11-21_24h20.40.927,Info_measure_main_exp,2022.2.2,Win32,59.48132286,,,,,,,,,,,,,,,,,,masks/mask_005.jpg,,,,,,,,,,,,,,,,,,,,,,,,,,,,,,,,,,,,,,,,,,,,,,,,0,0,0,4,1,,,,,,,,,,,,,,,,,,,,,,,,,,,,,,,,,,,,,,,,,
279478,001,2022-11-21_24h20.40.927,Info_measure_main_exp,2022.2.2,Win32,59.48132286,,,,,,,,,,,,,,,,,,masks/mask_004.jpg,,,,,,,,,,,,,,,,,,,,,,,,,,,,,,,,,,,,,,,,,,,,,,,,0,1,1,3,1,,,,,,,,,,,,,,,,,,,,,,,,,,,,,,,,,,,,,,,,,
279478,001,2022-11-21_24h20.40.927,Info_measure_main_exp,2022.2.2,Win32,59.48132286,,,,,,,,,,,,,,,,,,masks/mask_001.jpg,,,,,,,,,,,,,,,,,,,,,,,,,,,,,,,,,,,,,,,,,,,,,,,,0,2,2,0,1,,,,,,,,,,,,,,,,,,,,,,,,,,,,,,,,,,,,,,,,,
279478,001,2022-11-21_24h20.40.927,Info_measure_main_exp,2022.2.2,Win32,59.48132286,,,,,,,,,,,,,,,,,,masks/mask_003.jpg,,,,,,,,,,,,,,,,,,,,,,,,,,,,,,,,,,,,,,,,,,,,,,,,0,3,3,2,1,,,,,,,,,,,,,,,,,,,,,,,,,,,,,,,,,,,,,,,,,
279478,001,2022-11-21_24h20.40.927,Info_measure_main_exp,2022.2.2,Win32,59.48132286,,,,,,,,,,,,,,,,,,masks/mask_002.jpg,,,,,,,,,,,,,,,,,,,,,,,,,,,,,,,,,,,,,,,,,,,,,,,,0,4,4,1,1,,,,,,,,,,,,,,,,,,,,,,,,,,,,,,,,,,,,,,,,,
279478,001,2022-11-21_24h20.40.927,Info_measure_main_exp,2022.2.2,Win32,59.48132286,,,,,,,,,,,,,,,,,,,,,,,,,,,,,,2,0.6339,1,,,,,,,,,,,,0,131,5,5,2142,2166,absent_patch/patch0002142.jpg,absent_patch/patch0002166.jpg,,,,,,,,,,,,,,,,,,,,-0.115885417,-0.0546875,1,0,0,response5disk,2,0.006510417,-0.002604167,1,0,0,center_square,0,1,1,66,1,,,,,,,,,,,,,,,,,,,,,,,
279478,001,2022-11-21_24h20.40.927,Info_measure_main_exp,2022.2.2,Win32,59.48132286,,,,,,,,,,,,,,,,,,masks/mask_004.jpg,,,,,,,,,,,,,,,,,,,,,,,,,,,,,,,,,,,,,,,,,,,0,0,0,3,1,,,,,,,,,,,,,,,,,,,,,,,,,,,,,,,,,,,,,,,,,,,,,,
279478,001,2022-11-21_24h20.40.927,Info_measure_main_exp,2022.2.2,Win32,59.48132286,,,,,,,,,,,,,,,,,,masks/mask_005.jpg,,,,,,,,,,,,,,,,,,,,,,,,,,,,,,,,,,,,,,,,,,,0,1,1,4,1,,,,,,,,,,,,,,,,,,,,,,,,,,,,,,,,,,,,,,,,,,,,,,
279478,001,2022-11-21_24h20.40.927,Info_measure_main_exp,2022.2.2,Win32,59.48132286,,,,,,,,,,,,,,,,,,masks/mask_003.jpg,,,,,,,,,,,,,,,,,,,,,,,,,,,,,,,,,,,,,,,,,,,0,2,2,2,1,,,,,,,,,,,,,,,,,,,,,,,,,,,,,,,,,,,,,,,,,,,,,,
279478,001,2022-11-21_24h20.40.927,Info_measure_main_exp,2022.2.2,Win32,59.48132286,,,,,,,,,,,,,,,,,,masks/mask_002.jpg,,,,,,,,,,,,,,,,,,,,,,,,,,,,,,,,,,,,,,,,,,,0,3,3,1,1,,,,,,,,,,,,,,,,,,,,,,,,,,,,,,,,,,,,,,,,,,,,,,
279478,001,2022-11-21_24h20.40.927,Info_measure_main_exp,2022.2.2,Win32,59.48132286,,,,,,,,,,,,,,,,,,masks/mask_001.jpg,,,,,,,,,,,,,,,,,,,,,,,,,,,,,,,,,,,,,,,,,,,0,4,4,0,1,,,,,,,,,,,,,,,,,,,,,,,,,,,,,,,,,,,,,,,,,,,,,,
279478,001,2022-11-21_24h20.40.927,Info_measure_main_exp,2022.2.2,Win32,59.48132286,,,,,,,,,,,,,,,,,,masks/mask_001.jpg,,,,,,,,,,,,,,,,,,,,,,,,,,,,,,,,,,,,,,,,,,,,,,,,0,0,0,0,1,,,,,,,,,,,,,,,,,,,,,,,,,,,,,,,,,,,,,,,,,
279478,001,2022-11-21_24h20.40.927,Info_measure_main_exp,2022.2.2,Win32,59.48132286,,,,,,,,,,,,,,,,,,masks/mask_003.jpg,,,,,,,,,,,,,,,,,,,,,,,,,,,,,,,,,,,,,,,,,,,,,,,,0,1,1,2,1,,,,,,,,,,,,,,,,,,,,,,,,,,,,,,,,,,,,,,,,,
279478,001,2022-11-21_24h20.40.927,Info_measure_main_exp,2022.2.2,Win32,59.48132286,,,,,,,,,,,,,,,,,,masks/mask_004.jpg,,,,,,,,,,,,,,,,,,,,,,,,,,,,,,,,,,,,,,,,,,,,,,,,0,2,2,3,1,,,,,,,,,,,,,,,,,,,,,,,,,,,,,,,,,,,,,,,,,
279478,001,2022-11-21_24h20.40.927,Info_measure_main_exp,2022.2.2,Win32,59.48132286,,,,,,,,,,,,,,,,,,masks/mask_005.jpg,,,,,,,,,,,,,,,,,,,,,,,,,,,,,,,,,,,,,,,,,,,,,,,,0,3,3,4,1,,,,,,,,,,,,,,,,,,,,,,,,,,,,,,,,,,,,,,,,,
279478,001,2022-11-21_24h20.40.927,Info_measure_main_exp,2022.2.2,Win32,59.48132286,,,,,,,,,,,,,,,,,,masks/mask_002.jpg,,,,,,,,,,,,,,,,,,,,,,,,,,,,,,,,,,,,,,,,,,,,,,,,0,4,4,1,1,,,,,,,,,,,,,,,,,,,,,,,,,,,,,,,,,,,,,,,,,
279478,001,2022-11-21_24h20.40.927,Info_measure_main_exp,2022.2.2,Win32,59.48132286,,,,,,,,,,,,,,,,,,,,,,,,,,,,,,0,0.8673,1,,,,,,,,,,,,0,131,5,5,2178,2178,absent_patch/patch0002178.jpg,absent_patch/patch0002178.jpg,,,,,,,,,,,,,,,,,,,,-0.041666667,0.135416667,1,0,0,response7disk,3,0.001302083,-0.0078125,1,0,0,center_square,0,2,2,98,1,,,,,,,,,,,,,,,,,,,,,,,
279478,001,2022-11-21_24h20.40.927,Info_measure_main_exp,2022.2.2,Win32,59.48132286,,,,,,,,,,,,,,,,,,masks/mask_005.jpg,,,,,,,,,,,,,,,,,,,,,,,,,,,,,,,,,,,,,,,,,,,0,0,0,4,1,,,,,,,,,,,,,,,,,,,,,,,,,,,,,,,,,,,,,,,,,,,,,,
279478,001,2022-11-21_24h20.40.927,Info_measure_main_exp,2022.2.2,Win32,59.48132286,,,,,,,,,,,,,,,,,,masks/mask_004.jpg,,,,,,,,,,,,,,,,,,,,,,,,,,,,,,,,,,,,,,,,,,,0,1,1,3,1,,,,,,,,,,,,,,,,,,,,,,,,,,,,,,,,,,,,,,,,,,,,,,
279478,001,2022-11-21_24h20.40.927,Info_measure_main_exp,2022.2.2,Win32,59.48132286,,,,,,,,,,,,,,,,,,masks/mask_002.jpg,,,,,,,,,,,,,,,,,,,,,,,,,,,,,,,,,,,,,,,,,,,0,2,2,1,1,,,,,,,,,,,,,,,,,,,,,,,,,,,,,,,,,,,,,,,,,,,,,,
279478,001,2022-11-21_24h20.40.927,Info_measure_main_exp,2022.2.2,Win32,59.48132286,,,,,,,,,,,,,,,,,,masks/mask_001.jpg,,,,,,,,,,,,,,,,,,,,,,,,,,,,,,,,,,,,,,,,,,,0,3,3,0,1,,,,,,,,,,,,,,,,,,,,,,,,,,,,,,,,,,,,,,,,,,,,,,
279478,001,2022-11-21_24h20.40.927,Info_measure_main_exp,2022.2.2,Win32,59.48132286,,,,,,,,,,,,,,,,,,masks/mask_003.jpg,,,,,,,,,,,,,,,,,,,,,,,,,,,,,,,,,,,,,,,,,,,0,4,4,2,1,,,,,,,,,,,,,,,,,,,,,,,,,,,,,,,,,,,,,,,,,,,,,,
279478,001,2022-11-21_24h20.40.927,Info_measure_main_exp,2022.2.2,Win32,59.48132286,,,,,,,,,,,,,,,,,,masks/mask_005.jpg,,,,,,,,,,,,,,,,,,,,,,,,,,,,,,,,,,,,,,,,,,,,,,,,0,0,0,4,1,,,,,,,,,,,,,,,,,,,,,,,,,,,,,,,,,,,,,,,,,
279478,001,2022-11-21_24h20.40.927,Info_measure_main_exp,2022.2.2,Win32,59.48132286,,,,,,,,,,,,,,,,,,masks/mask_001.jpg,,,,,,,,,,,,,,,,,,,,,,,,,,,,,,,,,,,,,,,,,,,,,,,,0,1,1,0,1,,,,,,,,,,,,,,,,,,,,,,,,,,,,,,,,,,,,,,,,,
279478,001,2022-11-21_24h20.40.927,Info_measure_main_exp,2022.2.2,Win32,59.48132286,,,,,,,,,,,,,,,,,,masks/mask_002.jpg,,,,,,,,,,,,,,,,,,,,,,,,,,,,,,,,,,,,,,,,,,,,,,,,0,2,2,1,1,,,,,,,,,,,,,,,,,,,,,,,,,,,,,,,,,,,,,,,,,
279478,001,2022-11-21_24h20.40.927,Info_measure_main_exp,2022.2.2,Win32,59.48132286,,,,,,,,,,,,,,,,,,masks/mask_004.jpg,,,,,,,,,,,,,,,,,,,,,,,,,,,,,,,,,,,,,,,,,,,,,,,,0,3,3,3,1,,,,,,,,,,,,,,,,,,,,,,,,,,,,,,,,,,,,,,,,,
279478,001,2022-11-21_24h20.40.927,Info_measure_main_exp,2022.2.2,Win32,59.48132286,,,,,,,,,,,,,,,,,,masks/mask_003.jpg,,,,,,,,,,,,,,,,,,,,,,,,,,,,,,,,,,,,,,,,,,,,,,,,0,4,4,2,1,,,,,,,,,,,,,,,,,,,,,,,,,,,,,,,,,,,,,,,,,
279478,001,2022-11-21_24h20.40.927,Info_measure_main_exp,2022.2.2,Win32,59.48132286,,,,,,,,,,,,,,,,,,,,,,,,,,,,,,3,1.1165,1,,,,,,,,,,,,0,131,5,5,2142,2154,absent_patch/patch0002142.jpg,absent_patch/patch0002154.jpg,,,,,,,,,,,,,,,,,,,,-0.044270833,-0.080729167,1,0,0,response5disk,4,0,-0.002604167,1,0,0,center_square,0,3,3,9,1,,,,,,,,,,,,,,,,,,,,,,,
279478,001,2022-11-21_24h20.40.927,Info_measure_main_exp,2022.2.2,Win32,59.48132286,,,,,,,,,,,,,,,,,,masks/mask_001.jpg,,,,,,,,,,,,,,,,,,,,,,,,,,,,,,,,,,,,,,,,,,,0,0,0,0,1,,,,,,,,,,,,,,,,,,,,,,,,,,,,,,,,,,,,,,,,,,,,,,
279478,001,2022-11-21_24h20.40.927,Info_measure_main_exp,2022.2.2,Win32,59.48132286,,,,,,,,,,,,,,,,,,masks/mask_004.jpg,,,,,,,,,,,,,,,,,,,,,,,,,,,,,,,,,,,,,,,,,,,0,1,1,3,1,,,,,,,,,,,,,,,,,,,,,,,,,,,,,,,,,,,,,,,,,,,,,,
279478,001,2022-11-21_24h20.40.927,Info_measure_main_exp,2022.2.2,Win32,59.48132286,,,,,,,,,,,,,,,,,,masks/mask_003.jpg,,,,,,,,,,,,,,,,,,,,,,,,,,,,,,,,,,,,,,,,,,,0,2,2,2,1,,,,,,,,,,,,,,,,,,,,,,,,,,,,,,,,,,,,,,,,,,,,,,
279478,001,2022-11-21_24h20.40.927,Info_measure_main_exp,2022.2.2,Win32,59.48132286,,,,,,,,,,,,,,,,,,masks/mask_002.jpg,,,,,,,,,,,,,,,,,,,,,,,,,,,,,,,,,,,,,,,,,,,0,3,3,1,1,,,,,,,,,,,,,,,,,,,,,,,,,,,,,,,,,,,,,,,,,,,,,,
279478,001,2022-11-21_24h20.40.927,Info_measure_main_exp,2022.2.2,Win32,59.48132286,,,,,,,,,,,,,,,,,,masks/mask_005.jpg,,,,,,,,,,,,,,,,,,,,,,,,,,,,,,,,,,,,,,,,,,,0,4,4,4,1,,,,,,,,,,,,,,,,,,,,,,,,,,,,,,,,,,,,,,,,,,,,,,
279478,001,2022-11-21_24h20.40.927,Info_measure_main_exp,2022.2.2,Win32,59.48132286,,,,,,,,,,,,,,,,,,masks/mask_001.jpg,,,,,,,,,,,,,,,,,,,,,,,,,,,,,,,,,,,,,,,,,,,,,,,,0,0,0,0,1,,,,,,,,,,,,,,,,,,,,,,,,,,,,,,,,,,,,,,,,,
279478,001,2022-11-21_24h20.40.927,Info_measure_main_exp,2022.2.2,Win32,59.48132286,,,,,,,,,,,,,,,,,,masks/mask_003.jpg,,,,,,,,,,,,,,,,,,,,,,,,,,,,,,,,,,,,,,,,,,,,,,,,0,1,1,2,1,,,,,,,,,,,,,,,,,,,,,,,,,,,,,,,,,,,,,,,,,
279478,001,2022-11-21_24h20.40.927,Info_measure_main_exp,2022.2.2,Win32,59.48132286,,,,,,,,,,,,,,,,,,masks/mask_002.jpg,,,,,,,,,,,,,,,,,,,,,,,,,,,,,,,,,,,,,,,,,,,,,,,,0,2,2,1,1,,,,,,,,,,,,,,,,,,,,,,,,,,,,,,,,,,,,,,,,,
279478,001,2022-11-21_24h20.40.927,Info_measure_main_exp,2022.2.2,Win32,59.48132286,,,,,,,,,,,,,,,,,,masks/mask_004.jpg,,,,,,,,,,,,,,,,,,,,,,,,,,,,,,,,,,,,,,,,,,,,,,,,0,3,3,3,1,,,,,,,,,,,,,,,,,,,,,,,,,,,,,,,,,,,,,,,,,
279478,001,2022-11-21_24h20.40.927,Info_measure_main_exp,2022.2.2,Win32,59.48132286,,,,,,,,,,,,,,,,,,masks/mask_005.jpg,,,,,,,,,,,,,,,,,,,,,,,,,,,,,,,,,,,,,,,,,,,,,,,,0,4,4,4,1,,,,,,,,,,,,,,,,,,,,,,,,,,,,,,,,,,,,,,,,,
279478,001,2022-11-21_24h20.40.927,Info_measure_main_exp,2022.2.2,Win32,59.48132286,,,,,,,,,,,,,,,,,,,,,,,,,,,,,,4,0.75,1,,,,,,,,,,,,1,131,5,5,1,2142,present_patch/cong_131_5_a.jpg,absent_patch/patch0002142.jpg,,,,,,,,,,,,,,,,,,,,0.059895833,-0.071614583,1,0,0,response3disk,5,-0.002604167,0.005208333,1,0,0,center_square,0,4,4,80,1,,,,,,,,,,,,,,,,,,,,,,,
279478,001,2022-11-21_24h20.40.927,Info_measure_main_exp,2022.2.2,Win32,59.48132286,,,,,,,,,,,,,,,,,,masks/mask_001.jpg,,,,,,,,,,,,,,,,,,,,,,,,,,,,,,,,,,,,,,,,,,,0,0,0,0,1,,,,,,,,,,,,,,,,,,,,,,,,,,,,,,,,,,,,,,,,,,,,,,
279478,001,2022-11-21_24h20.40.927,Info_measure_main_exp,2022.2.2,Win32,59.48132286,,,,,,,,,,,,,,,,,,masks/mask_005.jpg,,,,,,,,,,,,,,,,,,,,,,,,,,,,,,,,,,,,,,,,,,,0,1,1,4,1,,,,,,,,,,,,,,,,,,,,,,,,,,,,,,,,,,,,,,,,,,,,,,
279478,001,2022-11-21_24h20.40.927,Info_measure_main_exp,2022.2.2,Win32,59.48132286,,,,,,,,,,,,,,,,,,masks/mask_002.jpg,,,,,,,,,,,,,,,,,,,,,,,,,,,,,,,,,,,,,,,,,,,0,2,2,1,1,,,,,,,,,,,,,,,,,,,,,,,,,,,,,,,,,,,,,,,,,,,,,,
279478,001,2022-11-21_24h20.40.927,Info_measure_main_exp,2022.2.2,Win32,59.48132286,,,,,,,,,,,,,,,,,,masks/mask_004.jpg,,,,,,,,,,,,,,,,,,,,,,,,,,,,,,,,,,,,,,,,,,,0,3,3,3,1,,,,,,,,,,,,,,,,,,,,,,,,,,,,,,,,,,,,,,,,,,,,,,
279478,001,2022-11-21_24h20.40.927,Info_measure_main_exp,2022.2.2,Win32,59.48132286,,,,,,,,,,,,,,,,,,masks/mask_003.jpg,,,,,,,,,,,,,,,,,,,,,,,,,,,,,,,,,,,,,,,,,,,0,4,4,2,1,,,,,,,,,,,,,,,,,,,,,,,,,,,,,,,,,,,,,,,,,,,,,,
279478,001,2022-11-21_24h20.40.927,Info_measure_main_exp,2022.2.2,Win32,59.48132286,,,,,,,,,,,,,,,,,,masks/mask_002.jpg,,,,,,,,,,,,,,,,,,,,,,,,,,,,,,,,,,,,,,,,,,,,,,,,0,0,0,1,1,,,,,,,,,,,,,,,,,,,,,,,,,,,,,,,,,,,,,,,,,
279478,001,2022-11-21_24h20.40.927,Info_measure_main_exp,2022.2.2,Win32,59.48132286,,,,,,,,,,,,,,,,,,masks/mask_003.jpg,,,,,,,,,,,,,,,,,,,,,,,,,,,,,,,,,,,,,,,,,,,,,,,,0,1,1,2,1,,,,,,,,,,,,,,,,,,,,,,,,,,,,,,,,,,,,,,,,,
279478,001,2022-11-21_24h20.40.927,Info_measure_main_exp,2022.2.2,Win32,59.48132286,,,,,,,,,,,,,,,,,,masks/mask_004.jpg,,,,,,,,,,,,,,,,,,,,,,,,,,,,,,,,,,,,,,,,,,,,,,,,0,2,2,3,1,,,,,,,,,,,,,,,,,,,,,,,,,,,,,,,,,,,,,,,,,
279478,001,2022-11-21_24h20.40.927,Info_measure_main_exp,2022.2.2,Win32,59.48132286,,,,,,,,,,,,,,,,,,masks/mask_005.jpg,,,,,,,,,,,,,,,,,,,,,,,,,,,,,,,,,,,,,,,,,,,,,,,,0,3,3,4,1,,,,,,,,,,,,,,,,,,,,,,,,,,,,,,,,,,,,,,,,,
279478,001,2022-11-21_24h20.40.927,Info_measure_main_exp,2022.2.2,Win32,59.48132286,,,,,,,,,,,,,,,,,,masks/mask_001.jpg,,,,,,,,,,,,,,,,,,,,,,,,,,,,,,,,,,,,,,,,,,,,,,,,0,4,4,0,1,,,,,,,,,,,,,,,,,,,,,,,,,,,,,,,,,,,,,,,,,
279478,001,2022-11-21_24h20.40.927,Info_measure_main_exp,2022.2.2,Win32,59.48132286,,,,,,,,,,,,,,,,,,,,,,,,,,,,,,2,1.0833,1,,,,,,,,,,,,0,131,5,5,1974,2214,absent_patch/patch0001974.jpg,absent_patch/patch0002214.jpg,,,,,,,,,,,,,,,,,,,,-0.11328125,-0.069010417,1,0,0,response5disk,6,0.005208333,0.01171875,1,0,0,center_square,0,5,5,24,1,,,,,,,,,,,,,,,,,,,,,,,
279478,001,2022-11-21_24h20.40.927,Info_measure_main_exp,2022.2.2,Win32,59.48132286,,,,,,,,,,,,,,,,,,masks/mask_001.jpg,,,,,,,,,,,,,,,,,,,,,,,,,,,,,,,,,,,,,,,,,,,0,0,0,0,1,,,,,,,,,,,,,,,,,,,,,,,,,,,,,,,,,,,,,,,,,,,,,,
279478,001,2022-11-21_24h20.40.927,Info_measure_main_exp,2022.2.2,Win32,59.48132286,,,,,,,,,,,,,,,,,,masks/mask_002.jpg,,,,,,,,,,,,,,,,,,,,,,,,,,,,,,,,,,,,,,,,,,,0,1,1,1,1,,,,,,,,,,,,,,,,,,,,,,,,,,,,,,,,,,,,,,,,,,,,,,
279478,001,2022-11-21_24h20.40.927,Info_measure_main_exp,2022.2.2,Win32,59.48132286,,,,,,,,,,,,,,,,,,masks/mask_004.jpg,,,,,,,,,,,,,,,,,,,,,,,,,,,,,,,,,,,,,,,,,,,0,2,2,3,1,,,,,,,,,,,,,,,,,,,,,,,,,,,,,,,,,,,,,,,,,,,,,,
279478,001,2022-11-21_24h20.40.927,Info_measure_main_exp,2022.2.2,Win32,59.48132286,,,,,,,,,,,,,,,,,,masks/mask_003.jpg,,,,,,,,,,,,,,,,,,,,,,,,,,,,,,,,,,,,,,,,,,,0,3,3,2,1,,,,,,,,,,,,,,,,,,,,,,,,,,,,,,,,,,,,,,,,,,,,,,
279478,001,2022-11-21_24h20.40.927,Info_measure_main_exp,2022.2.2,Win32,59.48132286,,,,,,,,,,,,,,,,,,masks/mask_005.jpg,,,,,,,,,,,,,,,,,,,,,,,,,,,,,,,,,,,,,,,,,,,0,4,4,4,1,,,,,,,,,,,,,,,,,,,,,,,,,,,,,,,,,,,,,,,,,,,,,,
279478,001,2022-11-21_24h20.40.927,Info_measure_main_exp,2022.2.2,Win32,59.48132286,,,,,,,,,,,,,,,,,,masks/mask_004.jpg,,,,,,,,,,,,,,,,,,,,,,,,,,,,,,,,,,,,,,,,,,,,,,,,0,0,0,3,1,,,,,,,,,,,,,,,,,,,,,,,,,,,,,,,,,,,,,,,,,
279478,001,2022-11-21_24h20.40.927,Info_measure_main_exp,2022.2.2,Win32,59.48132286,,,,,,,,,,,,,,,,,,masks/mask_003.jpg,,,,,,,,,,,,,,,,,,,,,,,,,,,,,,,,,,,,,,,,,,,,,,,,0,1,1,2,1,,,,,,,,,,,,,,,,,,,,,,,,,,,,,,,,,,,,,,,,,
279478,001,2022-11-21_24h20.40.927,Info_measure_main_exp,2022.2.2,Win32,59.48132286,,,,,,,,,,,,,,,,,,masks/mask_002.jpg,,,,,,,,,,,,,,,,,,,,,,,,,,,,,,,,,,,,,,,,,,,,,,,,0,2,2,1,1,,,,,,,,,,,,,,,,,,,,,,,,,,,,,,,,,,,,,,,,,
279478,001,2022-11-21_24h20.40.927,Info_measure_main_exp,2022.2.2,Win32,59.48132286,,,,,,,,,,,,,,,,,,masks/mask_005.jpg,,,,,,,,,,,,,,,,,,,,,,,,,,,,,,,,,,,,,,,,,,,,,,,,0,3,3,4,1,,,,,,,,,,,,,,,,,,,,,,,,,,,,,,,,,,,,,,,,,
279478,001,2022-11-21_24h20.40.927,Info_measure_main_exp,2022.2.2,Win32,59.48132286,,,,,,,,,,,,,,,,,,masks/mask_001.jpg,,,,,,,,,,,,,,,,,,,,,,,,,,,,,,,,,,,,,,,,,,,,,,,,0,4,4,0,1,,,,,,,,,,,,,,,,,,,,,,,,,,,,,,,,,,,,,,,,,
279478,001,2022-11-21_24h20.40.927,Info_measure_main_exp,2022.2.2,Win32,59.48132286,,,,,,,,,,,,,,,,,,,,,,,,,,,,,,1,0.8828,1,,,,,,,,,,,,0,131,5,5,2250,1950,absent_patch/patch0002250.jpg,absent_patch/patch0001950.jpg,,,,,,,,,,,,,,,,,,,,-0.106770833,0.0390625,1,0,0,response7disk,7,-0.002604167,0.00390625,1,0,0,center_square,0,6,6,16,1,,,,,,,,,,,,,,,,,,,,,,,
279478,001,2022-11-21_24h20.40.927,Info_measure_main_exp,2022.2.2,Win32,59.48132286,,,,,,,,,,,,,,,,,,masks/mask_005.jpg,,,,,,,,,,,,,,,,,,,,,,,,,,,,,,,,,,,,,,,,,,,0,0,0,4,1,,,,,,,,,,,,,,,,,,,,,,,,,,,,,,,,,,,,,,,,,,,,,,
279478,001,2022-11-21_24h20.40.927,Info_measure_main_exp,2022.2.2,Win32,59.48132286,,,,,,,,,,,,,,,,,,masks/mask_002.jpg,,,,,,,,,,,,,,,,,,,,,,,,,,,,,,,,,,,,,,,,,,,0,1,1,1,1,,,,,,,,,,,,,,,,,,,,,,,,,,,,,,,,,,,,,,,,,,,,,,
279478,001,2022-11-21_24h20.40.927,Info_measure_main_exp,2022.2.2,Win32,59.48132286,,,,,,,,,,,,,,,,,,masks/mask_003.jpg,,,,,,,,,,,,,,,,,,,,,,,,,,,,,,,,,,,,,,,,,,,0,2,2,2,1,,,,,,,,,,,,,,,,,,,,,,,,,,,,,,,,,,,,,,,,,,,,,,
279478,001,2022-11-21_24h20.40.927,Info_measure_main_exp,2022.2.2,Win32,59.48132286,,,,,,,,,,,,,,,,,,masks/mask_001.jpg,,,,,,,,,,,,,,,,,,,,,,,,,,,,,,,,,,,,,,,,,,,0,3,3,0,1,,,,,,,,,,,,,,,,,,,,,,,,,,,,,,,,,,,,,,,,,,,,,,
279478,001,2022-11-21_24h20.40.927,Info_measure_main_exp,2022.2.2,Win32,59.48132286,,,,,,,,,,,,,,,,,,masks/mask_004.jpg,,,,,,,,,,,,,,,,,,,,,,,,,,,,,,,,,,,,,,,,,,,0,4,4,3,1,,,,,,,,,,,,,,,,,,,,,,,,,,,,,,,,,,,,,,,,,,,,,,
279478,001,2022-11-21_24h20.40.927,Info_measure_main_exp,2022.2.2,Win32,59.48132286,,,,,,,,,,,,,,,,,,masks/mask_001.jpg,,,,,,,,,,,,,,,,,,,,,,,,,,,,,,,,,,,,,,,,,,,,,,,,0,0,0,0,1,,,,,,,,,,,,,,,,,,,,,,,,,,,,,,,,,,,,,,,,,
279478,001,2022-11-21_24h20.40.927,Info_measure_main_exp,2022.2.2,Win32,59.48132286,,,,,,,,,,,,,,,,,,masks/mask_004.jpg,,,,,,,,,,,,,,,,,,,,,,,,,,,,,,,,,,,,,,,,,,,,,,,,0,1,1,3,1,,,,,,,,,,,,,,,,,,,,,,,,,,,,,,,,,,,,,,,,,
279478,001,2022-11-21_24h20.40.927,Info_measure_main_exp,2022.2.2,Win32,59.48132286,,,,,,,,,,,,,,,,,,masks/mask_003.jpg,,,,,,,,,,,,,,,,,,,,,,,,,,,,,,,,,,,,,,,,,,,,,,,,0,2,2,2,1,,,,,,,,,,,,,,,,,,,,,,,,,,,,,,,,,,,,,,,,,
279478,001,2022-11-21_24h20.40.927,Info_measure_main_exp,2022.2.2,Win32,59.48132286,,,,,,,,,,,,,,,,,,masks/mask_005.jpg,,,,,,,,,,,,,,,,,,,,,,,,,,,,,,,,,,,,,,,,,,,,,,,,0,3,3,4,1,,,,,,,,,,,,,,,,,,,,,,,,,,,,,,,,,,,,,,,,,
279478,001,2022-11-21_24h20.40.927,Info_measure_main_exp,2022.2.2,Win32,59.48132286,,,,,,,,,,,,,,,,,,masks/mask_002.jpg,,,,,,,,,,,,,,,,,,,,,,,,,,,,,,,,,,,,,,,,,,,,,,,,0,4,4,1,1,,,,,,,,,,,,,,,,,,,,,,,,,,,,,,,,,,,,,,,,,
279478,001,2022-11-21_24h20.40.927,Info_measure_main_exp,2022.2.2,Win32,59.48132286,,,,,,,,,,,,,,,,,,,,,,,,,,,,,,2,0.8329,1,,,,,,,,,,,,0,131,5,5,1986,2238,absent_patch/patch0001986.jpg,absent_patch/patch0002238.jpg,,,,,,,,,,,,,,,,,,,,-0.11328125,-0.026041667,1,0,0,response5disk,8,-0.006510417,0,1,0,0,center_square,0,7,7,31,1,,,,,,,,,,,,,,,,,,,,,,,
279478,001,2022-11-21_24h20.40.927,Info_measure_main_exp,2022.2.2,Win32,59.48132286,,,,,,,,,,,,,,,,,,masks/mask_002.jpg,,,,,,,,,,,,,,,,,,,,,,,,,,,,,,,,,,,,,,,,,,,0,0,0,1,1,,,,,,,,,,,,,,,,,,,,,,,,,,,,,,,,,,,,,,,,,,,,,,
279478,001,2022-11-21_24h20.40.927,Info_measure_main_exp,2022.2.2,Win32,59.48132286,,,,,,,,,,,,,,,,,,masks/mask_004.jpg,,,,,,,,,,,,,,,,,,,,,,,,,,,,,,,,,,,,,,,,,,,0,1,1,3,1,,,,,,,,,,,,,,,,,,,,,,,,,,,,,,,,,,,,,,,,,,,,,,
279478,001,2022-11-21_24h20.40.927,Info_measure_main_exp,2022.2.2,Win32,59.48132286,,,,,,,,,,,,,,,,,,masks/mask_003.jpg,,,,,,,,,,,,,,,,,,,,,,,,,,,,,,,,,,,,,,,,,,,0,2,2,2,1,,,,,,,,,,,,,,,,,,,,,,,,,,,,,,,,,,,,,,,,,,,,,,
279478,001,2022-11-21_24h20.40.927,Info_measure_main_exp,2022.2.2,Win32,59.48132286,,,,,,,,,,,,,,,,,,masks/mask_005.jpg,,,,,,,,,,,,,,,,,,,,,,,,,,,,,,,,,,,,,,,,,,,0,3,3,4,1,,,,,,,,,,,,,,,,,,,,,,,,,,,,,,,,,,,,,,,,,,,,,,
279478,001,2022-11-21_24h20.40.927,Info_measure_main_exp,2022.2.2,Win32,59.48132286,,,,,,,,,,,,,,,,,,masks/mask_001.jpg,,,,,,,,,,,,,,,,,,,,,,,,,,,,,,,,,,,,,,,,,,,0,4,4,0,1,,,,,,,,,,,,,,,,,,,,,,,,,,,,,,,,,,,,,,,,,,,,,,
279478,001,2022-11-21_24h20.40.927,Info_measure_main_exp,2022.2.2,Win32,59.48132286,,,,,,,,,,,,,,,,,,masks/mask_002.jpg,,,,,,,,,,,,,,,,,,,,,,,,,,,,,,,,,,,,,,,,,,,,,,,,0,0,0,1,1,,,,,,,,,,,,,,,,,,,,,,,,,,,,,,,,,,,,,,,,,
279478,001,2022-11-21_24h20.40.927,Info_measure_main_exp,2022.2.2,Win32,59.48132286,,,,,,,,,,,,,,,,,,masks/mask_003.jpg,,,,,,,,,,,,,,,,,,,,,,,,,,,,,,,,,,,,,,,,,,,,,,,,0,1,1,2,1,,,,,,,,,,,,,,,,,,,,,,,,,,,,,,,,,,,,,,,,,
279478,001,2022-11-21_24h20.40.927,Info_measure_main_exp,2022.2.2,Win32,59.48132286,,,,,,,,,,,,,,,,,,masks/mask_005.jpg,,,,,,,,,,,,,,,,,,,,,,,,,,,,,,,,,,,,,,,,,,,,,,,,0,2,2,4,1,,,,,,,,,,,,,,,,,,,,,,,,,,,,,,,,,,,,,,,,,
279478,001,2022-11-21_24h20.40.927,Info_measure_main_exp,2022.2.2,Win32,59.48132286,,,,,,,,,,,,,,,,,,masks/mask_004.jpg,,,,,,,,,,,,,,,,,,,,,,,,,,,,,,,,,,,,,,,,,,,,,,,,0,3,3,3,1,,,,,,,,,,,,,,,,,,,,,,,,,,,,,,,,,,,,,,,,,
279478,001,2022-11-21_24h20.40.927,Info_measure_main_exp,2022.2.2,Win32,59.48132286,,,,,,,,,,,,,,,,,,masks/mask_001.jpg,,,,,,,,,,,,,,,,,,,,,,,,,,,,,,,,,,,,,,,,,,,,,,,,0,4,4,0,1,,,,,,,,,,,,,,,,,,,,,,,,,,,,,,,,,,,,,,,,,
279478,001,2022-11-21_24h20.40.927,Info_measure_main_exp,2022.2.2,Win32,59.48132286,,,,,,,,,,,,,,,,,,,,,,,,,,,,,,1,0.7672,1,,,,,,,,,,,,0,131,5,5,1986,2154,absent_patch/patch0001986.jpg,absent_patch/patch0002154.jpg,,,,,,,,,,,,,,,,,,,,-0.087239583,0.05859375,1,0,0,response7disk,9,0.006510417,0.005208333,1,0,0,center_square,0,8,8,36,1,,,,,,,,,,,,,,,,,,,,,,,
279478,001,2022-11-21_24h20.40.927,Info_measure_main_exp,2022.2.2,Win32,59.48132286,,,,,,,,,,,,,,,,,,masks/mask_005.jpg,,,,,,,,,,,,,,,,,,,,,,,,,,,,,,,,,,,,,,,,,,,0,0,0,4,1,,,,,,,,,,,,,,,,,,,,,,,,,,,,,,,,,,,,,,,,,,,,,,
279478,001,2022-11-21_24h20.40.927,Info_measure_main_exp,2022.2.2,Win32,59.48132286,,,,,,,,,,,,,,,,,,masks/mask_004.jpg,,,,,,,,,,,,,,,,,,,,,,,,,,,,,,,,,,,,,,,,,,,0,1,1,3,1,,,,,,,,,,,,,,,,,,,,,,,,,,,,,,,,,,,,,,,,,,,,,,
279478,001,2022-11-21_24h20.40.927,Info_measure_main_exp,2022.2.2,Win32,59.48132286,,,,,,,,,,,,,,,,,,masks/mask_002.jpg,,,,,,,,,,,,,,,,,,,,,,,,,,,,,,,,,,,,,,,,,,,0,2,2,1,1,,,,,,,,,,,,,,,,,,,,,,,,,,,,,,,,,,,,,,,,,,,,,,
279478,001,2022-11-21_24h20.40.927,Info_measure_main_exp,2022.2.2,Win32,59.48132286,,,,,,,,,,,,,,,,,,masks/mask_003.jpg,,,,,,,,,,,,,,,,,,,,,,,,,,,,,,,,,,,,,,,,,,,0,3,3,2,1,,,,,,,,,,,,,,,,,,,,,,,,,,,,,,,,,,,,,,,,,,,,,,
279478,001,2022-11-21_24h20.40.927,Info_measure_main_exp,2022.2.2,Win32,59.48132286,,,,,,,,,,,,,,,,,,masks/mask_001.jpg,,,,,,,,,,,,,,,,,,,,,,,,,,,,,,,,,,,,,,,,,,,0,4,4,0,1,,,,,,,,,,,,,,,,,,,,,,,,,,,,,,,,,,,,,,,,,,,,,,
279478,001,2022-11-21_24h20.40.927,Info_measure_main_exp,2022.2.2,Win32,59.48132286,,,,,,,,,,,,,,,,,,masks/mask_003.jpg,,,,,,,,,,,,,,,,,,,,,,,,,,,,,,,,,,,,,,,,,,,,,,,,0,0,0,2,1,,,,,,,,,,,,,,,,,,,,,,,,,,,,,,,,,,,,,,,,,
279478,001,2022-11-21_24h20.40.927,Info_measure_main_exp,2022.2.2,Win32,59.48132286,,,,,,,,,,,,,,,,,,masks/mask_004.jpg,,,,,,,,,,,,,,,,,,,,,,,,,,,,,,,,,,,,,,,,,,,,,,,,0,1,1,3,1,,,,,,,,,,,,,,,,,,,,,,,,,,,,,,,,,,,,,,,,,
279478,001,2022-11-21_24h20.40.927,Info_measure_main_exp,2022.2.2,Win32,59.48132286,,,,,,,,,,,,,,,,,,masks/mask_005.jpg,,,,,,,,,,,,,,,,,,,,,,,,,,,,,,,,,,,,,,,,,,,,,,,,0,2,2,4,1,,,,,,,,,,,,,,,,,,,,,,,,,,,,,,,,,,,,,,,,,
279478,001,2022-11-21_24h20.40.927,Info_measure_main_exp,2022.2.2,Win32,59.48132286,,,,,,,,,,,,,,,,,,masks/mask_001.jpg,,,,,,,,,,,,,,,,,,,,,,,,,,,,,,,,,,,,,,,,,,,,,,,,0,3,3,0,1,,,,,,,,,,,,,,,,,,,,,,,,,,,,,,,,,,,,,,,,,
279478,001,2022-11-21_24h20.40.927,Info_measure_main_exp,2022.2.2,Win32,59.48132286,,,,,,,,,,,,,,,,,,masks/mask_002.jpg,,,,,,,,,,,,,,,,,,,,,,,,,,,,,,,,,,,,,,,,,,,,,,,,0,4,4,1,1,,,,,,,,,,,,,,,,,,,,,,,,,,,,,,,,,,,,,,,,,
279478,001,2022-11-21_24h20.40.927,Info_measure_main_exp,2022.2.2,Win32,59.48132286,,,,,,,,,,,,,,,,,,,,,,,,,,,,,,4,0.6501,1,,,,,,,,,,,,1,131,5,5,1,2178,present_patch/cong_131_5_a.jpg,absent_patch/patch0002178.jpg,,,,,,,,,,,,,,,,,,,,0.03125,-0.1015625,1,0,0,response3disk,10,-0.0078125,0.002604167,1,0,0,center_square,0,9,9,40,1,,,,,,,,,,,,,,,,,,,,,,,
279478,001,2022-11-21_24h20.40.927,Info_measure_main_exp,2022.2.2,Win32,59.48132286,,,,,,,,,,,,,,,,,,masks/mask_004.jpg,,,,,,,,,,,,,,,,,,,,,,,,,,,,,,,,,,,,,,,,,,,0,0,0,3,1,,,,,,,,,,,,,,,,,,,,,,,,,,,,,,,,,,,,,,,,,,,,,,
279478,001,2022-11-21_24h20.40.927,Info_measure_main_exp,2022.2.2,Win32,59.48132286,,,,,,,,,,,,,,,,,,masks/mask_002.jpg,,,,,,,,,,,,,,,,,,,,,,,,,,,,,,,,,,,,,,,,,,,0,1,1,1,1,,,,,,,,,,,,,,,,,,,,,,,,,,,,,,,,,,,,,,,,,,,,,,
279478,001,2022-11-21_24h20.40.927,Info_measure_main_exp,2022.2.2,Win32,59.48132286,,,,,,,,,,,,,,,,,,masks/mask_005.jpg,,,,,,,,,,,,,,,,,,,,,,,,,,,,,,,,,,,,,,,,,,,0,2,2,4,1,,,,,,,,,,,,,,,,,,,,,,,,,,,,,,,,,,,,,,,,,,,,,,
279478,001,2022-11-21_24h20.40.927,Info_measure_main_exp,2022.2.2,Win32,59.48132286,,,,,,,,,,,,,,,,,,masks/mask_001.jpg,,,,,,,,,,,,,,,,,,,,,,,,,,,,,,,,,,,,,,,,,,,0,3,3,0,1,,,,,,,,,,,,,,,,,,,,,,,,,,,,,,,,,,,,,,,,,,,,,,
279478,001,2022-11-21_24h20.40.927,Info_measure_main_exp,2022.2.2,Win32,59.48132286,,,,,,,,,,,,,,,,,,masks/mask_003.jpg,,,,,,,,,,,,,,,,,,,,,,,,,,,,,,,,,,,,,,,,,,,0,4,4,2,1,,,,,,,,,,,,,,,,,,,,,,,,,,,,,,,,,,,,,,,,,,,,,,
279478,001,2022-11-21_24h20.40.927,Info_measure_main_exp,2022.2.2,Win32,59.48132286,,,,,,,,,,,,,,,,,,masks/mask_002.jpg,,,,,,,,,,,,,,,,,,,,,,,,,,,,,,,,,,,,,,,,,,,,,,,,0,0,0,1,1,,,,,,,,,,,,,,,,,,,,,,,,,,,,,,,,,,,,,,,,,
279478,001,2022-11-21_24h20.40.927,Info_measure_main_exp,2022.2.2,Win32,59.48132286,,,,,,,,,,,,,,,,,,masks/mask_001.jpg,,,,,,,,,,,,,,,,,,,,,,,,,,,,,,,,,,,,,,,,,,,,,,,,0,1,1,0,1,,,,,,,,,,,,,,,,,,,,,,,,,,,,,,,,,,,,,,,,,
279478,001,2022-11-21_24h20.40.927,Info_measure_main_exp,2022.2.2,Win32,59.48132286,,,,,,,,,,,,,,,,,,masks/mask_003.jpg,,,,,,,,,,,,,,,,,,,,,,,,,,,,,,,,,,,,,,,,,,,,,,,,0,2,2,2,1,,,,,,,,,,,,,,,,,,,,,,,,,,,,,,,,,,,,,,,,,
279478,001,2022-11-21_24h20.40.927,Info_measure_main_exp,2022.2.2,Win32,59.48132286,,,,,,,,,,,,,,,,,,masks/mask_004.jpg,,,,,,,,,,,,,,,,,,,,,,,,,,,,,,,,,,,,,,,,,,,,,,,,0,3,3,3,1,,,,,,,,,,,,,,,,,,,,,,,,,,,,,,,,,,,,,,,,,
279478,001,2022-11-21_24h20.40.927,Info_measure_main_exp,2022.2.2,Win32,59.48132286,,,,,,,,,,,,,,,,,,masks/mask_005.jpg,,,,,,,,,,,,,,,,,,,,,,,,,,,,,,,,,,,,,,,,,,,,,,,,0,4,4,4,1,,,,,,,,,,,,,,,,,,,,,,,,,,,,,,,,,,,,,,,,,
279478,001,2022-11-21_24h20.40.927,Info_measure_main_exp,2022.2.2,Win32,59.48132286,,,,,,,,,,,,,,,,,,,,,,,,,,,,,,3,0.5832,1,,,,,,,,,,,,0,131,5,5,1950,2166,absent_patch/patch0001950.jpg,absent_patch/patch0002166.jpg,,,,,,,,,,,,,,,,,,,,-0.057291667,-0.141927083,1,0,0,response5disk,11,-0.001302083,-0.005208333,1,0,0,center_square,0,10,10,0,1,,,,,,,,,,,,,,,,,,,,,,,
279478,001,2022-11-21_24h20.40.927,Info_measure_main_exp,2022.2.2,Win32,59.48132286,,,,,,,,,,,,,,,,,,masks/mask_005.jpg,,,,,,,,,,,,,,,,,,,,,,,,,,,,,,,,,,,,,,,,,,,0,0,0,4,1,,,,,,,,,,,,,,,,,,,,,,,,,,,,,,,,,,,,,,,,,,,,,,
279478,001,2022-11-21_24h20.40.927,Info_measure_main_exp,2022.2.2,Win32,59.48132286,,,,,,,,,,,,,,,,,,masks/mask_003.jpg,,,,,,,,,,,,,,,,,,,,,,,,,,,,,,,,,,,,,,,,,,,0,1,1,2,1,,,,,,,,,,,,,,,,,,,,,,,,,,,,,,,,,,,,,,,,,,,,,,
279478,001,2022-11-21_24h20.40.927,Info_measure_main_exp,2022.2.2,Win32,59.48132286,,,,,,,,,,,,,,,,,,masks/mask_001.jpg,,,,,,,,,,,,,,,,,,,,,,,,,,,,,,,,,,,,,,,,,,,0,2,2,0,1,,,,,,,,,,,,,,,,,,,,,,,,,,,,,,,,,,,,,,,,,,,,,,
279478,001,2022-11-21_24h20.40.927,Info_measure_main_exp,2022.2.2,Win32,59.48132286,,,,,,,,,,,,,,,,,,masks/mask_004.jpg,,,,,,,,,,,,,,,,,,,,,,,,,,,,,,,,,,,,,,,,,,,0,3,3,3,1,,,,,,,,,,,,,,,,,,,,,,,,,,,,,,,,,,,,,,,,,,,,,,
279478,001,2022-11-21_24h20.40.927,Info_measure_main_exp,2022.2.2,Win32,59.48132286,,,,,,,,,,,,,,,,,,masks/mask_002.jpg,,,,,,,,,,,,,,,,,,,,,,,,,,,,,,,,,,,,,,,,,,,0,4,4,1,1,,,,,,,,,,,,,,,,,,,,,,,,,,,,,,,,,,,,,,,,,,,,,,
279478,001,2022-11-21_24h20.40.927,Info_measure_main_exp,2022.2.2,Win32,59.48132286,,,,,,,,,,,,,,,,,,masks/mask_005.jpg,,,,,,,,,,,,,,,,,,,,,,,,,,,,,,,,,,,,,,,,,,,,,,,,0,0,0,4,1,,,,,,,,,,,,,,,,,,,,,,,,,,,,,,,,,,,,,,,,,
279478,001,2022-11-21_24h20.40.927,Info_measure_main_exp,2022.2.2,Win32,59.48132286,,,,,,,,,,,,,,,,,,masks/mask_003.jpg,,,,,,,,,,,,,,,,,,,,,,,,,,,,,,,,,,,,,,,,,,,,,,,,0,1,1,2,1,,,,,,,,,,,,,,,,,,,,,,,,,,,,,,,,,,,,,,,,,
279478,001,2022-11-21_24h20.40.927,Info_measure_main_exp,2022.2.2,Win32,59.48132286,,,,,,,,,,,,,,,,,,masks/mask_002.jpg,,,,,,,,,,,,,,,,,,,,,,,,,,,,,,,,,,,,,,,,,,,,,,,,0,2,2,1,1,,,,,,,,,,,,,,,,,,,,,,,,,,,,,,,,,,,,,,,,,
279478,001,2022-11-21_24h20.40.927,Info_measure_main_exp,2022.2.2,Win32,59.48132286,,,,,,,,,,,,,,,,,,masks/mask_004.jpg,,,,,,,,,,,,,,,,,,,,,,,,,,,,,,,,,,,,,,,,,,,,,,,,0,3,3,3,1,,,,,,,,,,,,,,,,,,,,,,,,,,,,,,,,,,,,,,,,,
279478,001,2022-11-21_24h20.40.927,Info_measure_main_exp,2022.2.2,Win32,59.48132286,,,,,,,,,,,,,,,,,,masks/mask_001.jpg,,,,,,,,,,,,,,,,,,,,,,,,,,,,,,,,,,,,,,,,,,,,,,,,0,4,4,0,1,,,,,,,,,,,,,,,,,,,,,,,,,,,,,,,,,,,,,,,,,
279478,001,2022-11-21_24h20.40.927,Info_measure_main_exp,2022.2.2,Win32,59.48132286,,,,,,,,,,,,,,,,,,,,,,,,,,,,,,5,0.6171,1,,,,,,,,,,,,0,131,5,5,2250,2238,absent_patch/patch0002250.jpg,absent_patch/patch0002238.jpg,,,,,,,,,,,,,,,,,,,,0.147135417,-0.0390625,1,0,0,response3disk,12,-0.013020833,0.009114583,1,0,0,center_square,0,11,11,110,1,,,,,,,,,,,,,,,,,,,,,,,
279478,001,2022-11-21_24h20.40.927,Info_measure_main_exp,2022.2.2,Win32,59.48132286,,,,,,,,,,,,,,,,,,masks/mask_004.jpg,,,,,,,,,,,,,,,,,,,,,,,,,,,,,,,,,,,,,,,,,,,0,0,0,3,1,,,,,,,,,,,,,,,,,,,,,,,,,,,,,,,,,,,,,,,,,,,,,,
279478,001,2022-11-21_24h20.40.927,Info_measure_main_exp,2022.2.2,Win32,59.48132286,,,,,,,,,,,,,,,,,,masks/mask_005.jpg,,,,,,,,,,,,,,,,,,,,,,,,,,,,,,,,,,,,,,,,,,,0,1,1,4,1,,,,,,,,,,,,,,,,,,,,,,,,,,,,,,,,,,,,,,,,,,,,,,
279478,001,2022-11-21_24h20.40.927,Info_measure_main_exp,2022.2.2,Win32,59.48132286,,,,,,,,,,,,,,,,,,masks/mask_001.jpg,,,,,,,,,,,,,,,,,,,,,,,,,,,,,,,,,,,,,,,,,,,0,2,2,0,1,,,,,,,,,,,,,,,,,,,,,,,,,,,,,,,,,,,,,,,,,,,,,,
279478,001,2022-11-21_24h20.40.927,Info_measure_main_exp,2022.2.2,Win32,59.48132286,,,,,,,,,,,,,,,,,,masks/mask_002.jpg,,,,,,,,,,,,,,,,,,,,,,,,,,,,,,,,,,,,,,,,,,,0,3,3,1,1,,,,,,,,,,,,,,,,,,,,,,,,,,,,,,,,,,,,,,,,,,,,,,
279478,001,2022-11-21_24h20.40.927,Info_measure_main_exp,2022.2.2,Win32,59.48132286,,,,,,,,,,,,,,,,,,masks/mask_003.jpg,,,,,,,,,,,,,,,,,,,,,,,,,,,,,,,,,,,,,,,,,,,0,4,4,2,1,,,,,,,,,,,,,,,,,,,,,,,,,,,,,,,,,,,,,,,,,,,,,,
279478,001,2022-11-21_24h20.40.927,Info_measure_main_exp,2022.2.2,Win32,59.48132286,,,,,,,,,,,,,,,,,,masks/mask_004.jpg,,,,,,,,,,,,,,,,,,,,,,,,,,,,,,,,,,,,,,,,,,,,,,,,0,0,0,3,1,,,,,,,,,,,,,,,,,,,,,,,,,,,,,,,,,,,,,,,,,
279478,001,2022-11-21_24h20.40.927,Info_measure_main_exp,2022.2.2,Win32,59.48132286,,,,,,,,,,,,,,,,,,masks/mask_001.jpg,,,,,,,,,,,,,,,,,,,,,,,,,,,,,,,,,,,,,,,,,,,,,,,,0,1,1,0,1,,,,,,,,,,,,,,,,,,,,,,,,,,,,,,,,,,,,,,,,,
279478,001,2022-11-21_24h20.40.927,Info_measure_main_exp,2022.2.2,Win32,59.48132286,,,,,,,,,,,,,,,,,,masks/mask_002.jpg,,,,,,,,,,,,,,,,,,,,,,,,,,,,,,,,,,,,,,,,,,,,,,,,0,2,2,1,1,,,,,,,,,,,,,,,,,,,,,,,,,,,,,,,,,,,,,,,,,
279478,001,2022-11-21_24h20.40.927,Info_measure_main_exp,2022.2.2,Win32,59.48132286,,,,,,,,,,,,,,,,,,masks/mask_005.jpg,,,,,,,,,,,,,,,,,,,,,,,,,,,,,,,,,,,,,,,,,,,,,,,,0,3,3,4,1,,,,,,,,,,,,,,,,,,,,,,,,,,,,,,,,,,,,,,,,,
279478,001,2022-11-21_24h20.40.927,Info_measure_main_exp,2022.2.2,Win32,59.48132286,,,,,,,,,,,,,,,,,,masks/mask_003.jpg,,,,,,,,,,,,,,,,,,,,,,,,,,,,,,,,,,,,,,,,,,,,,,,,0,4,4,2,1,,,,,,,,,,,,,,,,,,,,,,,,,,,,,,,,,,,,,,,,,
279478,001,2022-11-21_24h20.40.927,Info_measure_main_exp,2022.2.2,Win32,59.48132286,,,,,,,,,,,,,,,,,,,,,,,,,,,,,,0,0.5663,1,,,,,,,,,,,,0,131,5,5,2238,2238,absent_patch/patch0002238.jpg,absent_patch/patch0002238.jpg,,,,,,,,,,,,,,,,,,,,-0.028645833,0.091145833,1,0,0,response7disk,13,-0.0078125,0.005208333,1,0,0,center_square,0,12,12,58,1,,,,,,,,,,,,,,,,,,,,,,,
279478,001,2022-11-21_24h20.40.927,Info_measure_main_exp,2022.2.2,Win32,59.48132286,,,,,,,,,,,,,,,,,,masks/mask_002.jpg,,,,,,,,,,,,,,,,,,,,,,,,,,,,,,,,,,,,,,,,,,,0,0,0,1,1,,,,,,,,,,,,,,,,,,,,,,,,,,,,,,,,,,,,,,,,,,,,,,
279478,001,2022-11-21_24h20.40.927,Info_measure_main_exp,2022.2.2,Win32,59.48132286,,,,,,,,,,,,,,,,,,masks/mask_005.jpg,,,,,,,,,,,,,,,,,,,,,,,,,,,,,,,,,,,,,,,,,,,0,1,1,4,1,,,,,,,,,,,,,,,,,,,,,,,,,,,,,,,,,,,,,,,,,,,,,,
279478,001,2022-11-21_24h20.40.927,Info_measure_main_exp,2022.2.2,Win32,59.48132286,,,,,,,,,,,,,,,,,,masks/mask_001.jpg,,,,,,,,,,,,,,,,,,,,,,,,,,,,,,,,,,,,,,,,,,,0,2,2,0,1,,,,,,,,,,,,,,,,,,,,,,,,,,,,,,,,,,,,,,,,,,,,,,
279478,001,2022-11-21_24h20.40.927,Info_measure_main_exp,2022.2.2,Win32,59.48132286,,,,,,,,,,,,,,,,,,masks/mask_003.jpg,,,,,,,,,,,,,,,,,,,,,,,,,,,,,,,,,,,,,,,,,,,0,3,3,2,1,,,,,,,,,,,,,,,,,,,,,,,,,,,,,,,,,,,,,,,,,,,,,,
279478,001,2022-11-21_24h20.40.927,Info_measure_main_exp,2022.2.2,Win32,59.48132286,,,,,,,,,,,,,,,,,,masks/mask_004.jpg,,,,,,,,,,,,,,,,,,,,,,,,,,,,,,,,,,,,,,,,,,,0,4,4,3,1,,,,,,,,,,,,,,,,,,,,,,,,,,,,,,,,,,,,,,,,,,,,,,
279478,001,2022-11-21_24h20.40.927,Info_measure_main_exp,2022.2.2,Win32,59.48132286,,,,,,,,,,,,,,,,,,masks/mask_004.jpg,,,,,,,,,,,,,,,,,,,,,,,,,,,,,,,,,,,,,,,,,,,,,,,,0,0,0,3,1,,,,,,,,,,,,,,,,,,,,,,,,,,,,,,,,,,,,,,,,,
279478,001,2022-11-21_24h20.40.927,Info_measure_main_exp,2022.2.2,Win32,59.48132286,,,,,,,,,,,,,,,,,,masks/mask_002.jpg,,,,,,,,,,,,,,,,,,,,,,,,,,,,,,,,,,,,,,,,,,,,,,,,0,1,1,1,1,,,,,,,,,,,,,,,,,,,,,,,,,,,,,,,,,,,,,,,,,
279478,001,2022-11-21_24h20.40.927,Info_measure_main_exp,2022.2.2,Win32,59.48132286,,,,,,,,,,,,,,,,,,masks/mask_005.jpg,,,,,,,,,,,,,,,,,,,,,,,,,,,,,,,,,,,,,,,,,,,,,,,,0,2,2,4,1,,,,,,,,,,,,,,,,,,,,,,,,,,,,,,,,,,,,,,,,,
279478,001,2022-11-21_24h20.40.927,Info_measure_main_exp,2022.2.2,Win32,59.48132286,,,,,,,,,,,,,,,,,,masks/mask_001.jpg,,,,,,,,,,,,,,,,,,,,,,,,,,,,,,,,,,,,,,,,,,,,,,,,0,3,3,0,1,,,,,,,,,,,,,,,,,,,,,,,,,,,,,,,,,,,,,,,,,
279478,001,2022-11-21_24h20.40.927,Info_measure_main_exp,2022.2.2,Win32,59.48132286,,,,,,,,,,,,,,,,,,masks/mask_003.jpg,,,,,,,,,,,,,,,,,,,,,,,,,,,,,,,,,,,,,,,,,,,,,,,,0,4,4,2,1,,,,,,,,,,,,,,,,,,,,,,,,,,,,,,,,,,,,,,,,,
279478,001,2022-11-21_24h20.40.927,Info_measure_main_exp,2022.2.2,Win32,59.48132286,,,,,,,,,,,,,,,,,,,,,,,,,,,,,,0,0.4831,1,,,,,,,,,,,,0,131,5,5,2142,2142,absent_patch/patch0002142.jpg,absent_patch/patch0002142.jpg,,,,,,,,,,,,,,,,,,,,-0.020833333,0.088541667,1,0,0,response7disk,14,0.006510417,-0.002604167,1,0,0,center_square,0,13,13,13,1,,,,,,,,,,,,,,,,,,,,,,,
279478,001,2022-11-21_24h20.40.927,Info_measure_main_exp,2022.2.2,Win32,59.48132286,,,,,,,,,,,,,,,,,,masks/mask_003.jpg,,,,,,,,,,,,,,,,,,,,,,,,,,,,,,,,,,,,,,,,,,,0,0,0,2,1,,,,,,,,,,,,,,,,,,,,,,,,,,,,,,,,,,,,,,,,,,,,,,
279478,001,2022-11-21_24h20.40.927,Info_measure_main_exp,2022.2.2,Win32,59.48132286,,,,,,,,,,,,,,,,,,masks/mask_002.jpg,,,,,,,,,,,,,,,,,,,,,,,,,,,,,,,,,,,,,,,,,,,0,1,1,1,1,,,,,,,,,,,,,,,,,,,,,,,,,,,,,,,,,,,,,,,,,,,,,,
279478,001,2022-11-21_24h20.40.927,Info_measure_main_exp,2022.2.2,Win32,59.48132286,,,,,,,,,,,,,,,,,,masks/mask_001.jpg,,,,,,,,,,,,,,,,,,,,,,,,,,,,,,,,,,,,,,,,,,,0,2,2,0,1,,,,,,,,,,,,,,,,,,,,,,,,,,,,,,,,,,,,,,,,,,,,,,
279478,001,2022-11-21_24h20.40.927,Info_measure_main_exp,2022.2.2,Win32,59.48132286,,,,,,,,,,,,,,,,,,masks/mask_004.jpg,,,,,,,,,,,,,,,,,,,,,,,,,,,,,,,,,,,,,,,,,,,0,3,3,3,1,,,,,,,,,,,,,,,,,,,,,,,,,,,,,,,,,,,,,,,,,,,,,,
279478,001,2022-11-21_24h20.40.927,Info_measure_main_exp,2022.2.2,Win32,59.48132286,,,,,,,,,,,,,,,,,,masks/mask_005.jpg,,,,,,,,,,,,,,,,,,,,,,,,,,,,,,,,,,,,,,,,,,,0,4,4,4,1,,,,,,,,,,,,,,,,,,,,,,,,,,,,,,,,,,,,,,,,,,,,,,
279478,001,2022-11-21_24h20.40.927,Info_measure_main_exp,2022.2.2,Win32,59.48132286,,,,,,,,,,,,,,,,,,masks/mask_002.jpg,,,,,,,,,,,,,,,,,,,,,,,,,,,,,,,,,,,,,,,,,,,,,,,,0,0,0,1,1,,,,,,,,,,,,,,,,,,,,,,,,,,,,,,,,,,,,,,,,,
279478,001,2022-11-21_24h20.40.927,Info_measure_main_exp,2022.2.2,Win32,59.48132286,,,,,,,,,,,,,,,,,,masks/mask_005.jpg,,,,,,,,,,,,,,,,,,,,,,,,,,,,,,,,,,,,,,,,,,,,,,,,0,1,1,4,1,,,,,,,,,,,,,,,,,,,,,,,,,,,,,,,,,,,,,,,,,
279478,001,2022-11-21_24h20.40.927,Info_measure_main_exp,2022.2.2,Win32,59.48132286,,,,,,,,,,,,,,,,,,masks/mask_004.jpg,,,,,,,,,,,,,,,,,,,,,,,,,,,,,,,,,,,,,,,,,,,,,,,,0,2,2,3,1,,,,,,,,,,,,,,,,,,,,,,,,,,,,,,,,,,,,,,,,,
279478,001,2022-11-21_24h20.40.927,Info_measure_main_exp,2022.2.2,Win32,59.48132286,,,,,,,,,,,,,,,,,,masks/mask_003.jpg,,,,,,,,,,,,,,,,,,,,,,,,,,,,,,,,,,,,,,,,,,,,,,,,0,3,3,2,1,,,,,,,,,,,,,,,,,,,,,,,,,,,,,,,,,,,,,,,,,
279478,001,2022-11-21_24h20.40.927,Info_measure_main_exp,2022.2.2,Win32,59.48132286,,,,,,,,,,,,,,,,,,masks/mask_001.jpg,,,,,,,,,,,,,,,,,,,,,,,,,,,,,,,,,,,,,,,,,,,,,,,,0,4,4,0,1,,,,,,,,,,,,,,,,,,,,,,,,,,,,,,,,,,,,,,,,,
279478,001,2022-11-21_24h20.40.927,Info_measure_main_exp,2022.2.2,Win32,59.48132286,,,,,,,,,,,,,,,,,,,,,,,,,,,,,,6,1.0171,1,,,,,,,,,,,,0,131,5,5,2298,2274,absent_patch/patch0002298.jpg,absent_patch/patch0002274.jpg,,,,,,,,,,,,,,,,,,,,0.158854167,0.01171875,1,0,0,response1disk,15,0,0.0078125,1,0,0,center_square,0,14,14,1,1,,,,,,,,,,,,,,,,,,,,,,,
279478,001,2022-11-21_24h20.40.927,Info_measure_main_exp,2022.2.2,Win32,59.48132286,,,,,,,,,,,,,,,,,,masks/mask_005.jpg,,,,,,,,,,,,,,,,,,,,,,,,,,,,,,,,,,,,,,,,,,,0,0,0,4,1,,,,,,,,,,,,,,,,,,,,,,,,,,,,,,,,,,,,,,,,,,,,,,
279478,001,2022-11-21_24h20.40.927,Info_measure_main_exp,2022.2.2,Win32,59.48132286,,,,,,,,,,,,,,,,,,masks/mask_004.jpg,,,,,,,,,,,,,,,,,,,,,,,,,,,,,,,,,,,,,,,,,,,0,1,1,3,1,,,,,,,,,,,,,,,,,,,,,,,,,,,,,,,,,,,,,,,,,,,,,,
279478,001,2022-11-21_24h20.40.927,Info_measure_main_exp,2022.2.2,Win32,59.48132286,,,,,,,,,,,,,,,,,,masks/mask_003.jpg,,,,,,,,,,,,,,,,,,,,,,,,,,,,,,,,,,,,,,,,,,,0,2,2,2,1,,,,,,,,,,,,,,,,,,,,,,,,,,,,,,,,,,,,,,,,,,,,,,
279478,001,2022-11-21_24h20.40.927,Info_measure_main_exp,2022.2.2,Win32,59.48132286,,,,,,,,,,,,,,,,,,masks/mask_001.jpg,,,,,,,,,,,,,,,,,,,,,,,,,,,,,,,,,,,,,,,,,,,0,3,3,0,1,,,,,,,,,,,,,,,,,,,,,,,,,,,,,,,,,,,,,,,,,,,,,,
279478,001,2022-11-21_24h20.40.927,Info_measure_main_exp,2022.2.2,Win32,59.48132286,,,,,,,,,,,,,,,,,,masks/mask_002.jpg,,,,,,,,,,,,,,,,,,,,,,,,,,,,,,,,,,,,,,,,,,,0,4,4,1,1,,,,,,,,,,,,,,,,,,,,,,,,,,,,,,,,,,,,,,,,,,,,,,
279478,001,2022-11-21_24h20.40.927,Info_measure_main_exp,2022.2.2,Win32,59.48132286,,,,,,,,,,,,,,,,,,masks/mask_001.jpg,,,,,,,,,,,,,,,,,,,,,,,,,,,,,,,,,,,,,,,,,,,,,,,,0,0,0,0,1,,,,,,,,,,,,,,,,,,,,,,,,,,,,,,,,,,,,,,,,,
279478,001,2022-11-21_24h20.40.927,Info_measure_main_exp,2022.2.2,Win32,59.48132286,,,,,,,,,,,,,,,,,,masks/mask_002.jpg,,,,,,,,,,,,,,,,,,,,,,,,,,,,,,,,,,,,,,,,,,,,,,,,0,1,1,1,1,,,,,,,,,,,,,,,,,,,,,,,,,,,,,,,,,,,,,,,,,
279478,001,2022-11-21_24h20.40.927,Info_measure_main_exp,2022.2.2,Win32,59.48132286,,,,,,,,,,,,,,,,,,masks/mask_005.jpg,,,,,,,,,,,,,,,,,,,,,,,,,,,,,,,,,,,,,,,,,,,,,,,,0,2,2,4,1,,,,,,,,,,,,,,,,,,,,,,,,,,,,,,,,,,,,,,,,,
279478,001,2022-11-21_24h20.40.927,Info_measure_main_exp,2022.2.2,Win32,59.48132286,,,,,,,,,,,,,,,,,,masks/mask_004.jpg,,,,,,,,,,,,,,,,,,,,,,,,,,,,,,,,,,,,,,,,,,,,,,,,0,3,3,3,1,,,,,,,,,,,,,,,,,,,,,,,,,,,,,,,,,,,,,,,,,
279478,001,2022-11-21_24h20.40.927,Info_measure_main_exp,2022.2.2,Win32,59.48132286,,,,,,,,,,,,,,,,,,masks/mask_003.jpg,,,,,,,,,,,,,,,,,,,,,,,,,,,,,,,,,,,,,,,,,,,,,,,,0,4,4,2,1,,,,,,,,,,,,,,,,,,,,,,,,,,,,,,,,,,,,,,,,,
279478,001,2022-11-21_24h20.40.927,Info_measure_main_exp,2022.2.2,Win32,59.48132286,,,,,,,,,,,,,,,,,,,,,,,,,,,,,,2,1.2835,1,,,,,,,,,,,,0,131,5,5,1950,2142,absent_patch/patch0001950.jpg,absent_patch/patch0002142.jpg,,,,,,,,,,,,,,,,,,,,-0.11328125,-0.046875,1,0,0,response5disk,16,0.001302083,-0.002604167,1,0,0,center_square,0,15,15,83,1,,,,,,,,,,,,,,,,,,,,,,,
279478,001,2022-11-21_24h20.40.927,Info_measure_main_exp,2022.2.2,Win32,59.48132286,,,,,,,,,,,,,,,,,,masks/mask_002.jpg,,,,,,,,,,,,,,,,,,,,,,,,,,,,,,,,,,,,,,,,,,,0,0,0,1,1,,,,,,,,,,,,,,,,,,,,,,,,,,,,,,,,,,,,,,,,,,,,,,
279478,001,2022-11-21_24h20.40.927,Info_measure_main_exp,2022.2.2,Win32,59.48132286,,,,,,,,,,,,,,,,,,masks/mask_004.jpg,,,,,,,,,,,,,,,,,,,,,,,,,,,,,,,,,,,,,,,,,,,0,1,1,3,1,,,,,,,,,,,,,,,,,,,,,,,,,,,,,,,,,,,,,,,,,,,,,,
279478,001,2022-11-21_24h20.40.927,Info_measure_main_exp,2022.2.2,Win32,59.48132286,,,,,,,,,,,,,,,,,,masks/mask_003.jpg,,,,,,,,,,,,,,,,,,,,,,,,,,,,,,,,,,,,,,,,,,,0,2,2,2,1,,,,,,,,,,,,,,,,,,,,,,,,,,,,,,,,,,,,,,,,,,,,,,
279478,001,2022-11-21_24h20.40.927,Info_measure_main_exp,2022.2.2,Win32,59.48132286,,,,,,,,,,,,,,,,,,masks/mask_005.jpg,,,,,,,,,,,,,,,,,,,,,,,,,,,,,,,,,,,,,,,,,,,0,3,3,4,1,,,,,,,,,,,,,,,,,,,,,,,,,,,,,,,,,,,,,,,,,,,,,,
279478,001,2022-11-21_24h20.40.927,Info_measure_main_exp,2022.2.2,Win32,59.48132286,,,,,,,,,,,,,,,,,,masks/mask_001.jpg,,,,,,,,,,,,,,,,,,,,,,,,,,,,,,,,,,,,,,,,,,,0,4,4,0,1,,,,,,,,,,,,,,,,,,,,,,,,,,,,,,,,,,,,,,,,,,,,,,
279478,001,2022-11-21_24h20.40.927,Info_measure_main_exp,2022.2.2,Win32,59.48132286,,,,,,,,,,,,,,,,,,masks/mask_001.jpg,,,,,,,,,,,,,,,,,,,,,,,,,,,,,,,,,,,,,,,,,,,,,,,,0,0,0,0,1,,,,,,,,,,,,,,,,,,,,,,,,,,,,,,,,,,,,,,,,,
279478,001,2022-11-21_24h20.40.927,Info_measure_main_exp,2022.2.2,Win32,59.48132286,,,,,,,,,,,,,,,,,,masks/mask_003.jpg,,,,,,,,,,,,,,,,,,,,,,,,,,,,,,,,,,,,,,,,,,,,,,,,0,1,1,2,1,,,,,,,,,,,,,,,,,,,,,,,,,,,,,,,,,,,,,,,,,
279478,001,2022-11-21_24h20.40.927,Info_measure_main_exp,2022.2.2,Win32,59.48132286,,,,,,,,,,,,,,,,,,masks/mask_005.jpg,,,,,,,,,,,,,,,,,,,,,,,,,,,,,,,,,,,,,,,,,,,,,,,,0,2,2,4,1,,,,,,,,,,,,,,,,,,,,,,,,,,,,,,,,,,,,,,,,,
279478,001,2022-11-21_24h20.40.927,Info_measure_main_exp,2022.2.2,Win32,59.48132286,,,,,,,,,,,,,,,,,,masks/mask_002.jpg,,,,,,,,,,,,,,,,,,,,,,,,,,,,,,,,,,,,,,,,,,,,,,,,0,3,3,1,1,,,,,,,,,,,,,,,,,,,,,,,,,,,,,,,,,,,,,,,,,
279478,001,2022-11-21_24h20.40.927,Info_measure_main_exp,2022.2.2,Win32,59.48132286,,,,,,,,,,,,,,,,,,masks/mask_004.jpg,,,,,,,,,,,,,,,,,,,,,,,,,,,,,,,,,,,,,,,,,,,,,,,,0,4,4,3,1,,,,,,,,,,,,,,,,,,,,,,,,,,,,,,,,,,,,,,,,,
279478,001,2022-11-21_24h20.40.927,Info_measure_main_exp,2022.2.2,Win32,59.48132286,,,,,,,,,,,,,,,,,,,,,,,,,,,,,,4,0.6668,1,,,,,,,,,,,,0,131,5,5,2178,2166,absent_patch/patch0002178.jpg,absent_patch/patch0002166.jpg,,,,,,,,,,,,,,,,,,,,0.059895833,-0.110677083,1,0,0,response3disk,17,0.00390625,0.00390625,1,0,0,center_square,0,16,16,72,1,,,,,,,,,,,,,,,,,,,,,,,
279478,001,2022-11-21_24h20.40.927,Info_measure_main_exp,2022.2.2,Win32,59.48132286,,,,,,,,,,,,,,,,,,masks/mask_004.jpg,,,,,,,,,,,,,,,,,,,,,,,,,,,,,,,,,,,,,,,,,,,0,0,0,3,1,,,,,,,,,,,,,,,,,,,,,,,,,,,,,,,,,,,,,,,,,,,,,,
279478,001,2022-11-21_24h20.40.927,Info_measure_main_exp,2022.2.2,Win32,59.48132286,,,,,,,,,,,,,,,,,,masks/mask_003.jpg,,,,,,,,,,,,,,,,,,,,,,,,,,,,,,,,,,,,,,,,,,,0,1,1,2,1,,,,,,,,,,,,,,,,,,,,,,,,,,,,,,,,,,,,,,,,,,,,,,
279478,001,2022-11-21_24h20.40.927,Info_measure_main_exp,2022.2.2,Win32,59.48132286,,,,,,,,,,,,,,,,,,masks/mask_001.jpg,,,,,,,,,,,,,,,,,,,,,,,,,,,,,,,,,,,,,,,,,,,0,2,2,0,1,,,,,,,,,,,,,,,,,,,,,,,,,,,,,,,,,,,,,,,,,,,,,,
279478,001,2022-11-21_24h20.40.927,Info_measure_main_exp,2022.2.2,Win32,59.48132286,,,,,,,,,,,,,,,,,,masks/mask_005.jpg,,,,,,,,,,,,,,,,,,,,,,,,,,,,,,,,,,,,,,,,,,,0,3,3,4,1,,,,,,,,,,,,,,,,,,,,,,,,,,,,,,,,,,,,,,,,,,,,,,
279478,001,2022-11-21_24h20.40.927,Info_measure_main_exp,2022.2.2,Win32,59.48132286,,,,,,,,,,,,,,,,,,masks/mask_002.jpg,,,,,,,,,,,,,,,,,,,,,,,,,,,,,,,,,,,,,,,,,,,0,4,4,1,1,,,,,,,,,,,,,,,,,,,,,,,,,,,,,,,,,,,,,,,,,,,,,,
279478,001,2022-11-21_24h20.40.927,Info_measure_main_exp,2022.2.2,Win32,59.48132286,,,,,,,,,,,,,,,,,,masks/mask_005.jpg,,,,,,,,,,,,,,,,,,,,,,,,,,,,,,,,,,,,,,,,,,,,,,,,0,0,0,4,1,,,,,,,,,,,,,,,,,,,,,,,,,,,,,,,,,,,,,,,,,
279478,001,2022-11-21_24h20.40.927,Info_measure_main_exp,2022.2.2,Win32,59.48132286,,,,,,,,,,,,,,,,,,masks/mask_002.jpg,,,,,,,,,,,,,,,,,,,,,,,,,,,,,,,,,,,,,,,,,,,,,,,,0,1,1,1,1,,,,,,,,,,,,,,,,,,,,,,,,,,,,,,,,,,,,,,,,,
279478,001,2022-11-21_24h20.40.927,Info_measure_main_exp,2022.2.2,Win32,59.48132286,,,,,,,,,,,,,,,,,,masks/mask_001.jpg,,,,,,,,,,,,,,,,,,,,,,,,,,,,,,,,,,,,,,,,,,,,,,,,0,2,2,0,1,,,,,,,,,,,,,,,,,,,,,,,,,,,,,,,,,,,,,,,,,
279478,001,2022-11-21_24h20.40.927,Info_measure_main_exp,2022.2.2,Win32,59.48132286,,,,,,,,,,,,,,,,,,masks/mask_004.jpg,,,,,,,,,,,,,,,,,,,,,,,,,,,,,,,,,,,,,,,,,,,,,,,,0,3,3,3,1,,,,,,,,,,,,,,,,,,,,,,,,,,,,,,,,,,,,,,,,,
279478,001,2022-11-21_24h20.40.927,Info_measure_main_exp,2022.2.2,Win32,59.48132286,,,,,,,,,,,,,,,,,,masks/mask_003.jpg,,,,,,,,,,,,,,,,,,,,,,,,,,,,,,,,,,,,,,,,,,,,,,,,0,4,4,2,1,,,,,,,,,,,,,,,,,,,,,,,,,,,,,,,,,,,,,,,,,
279478,001,2022-11-21_24h20.40.927,Info_measure_main_exp,2022.2.2,Win32,59.48132286,,,,,,,,,,,,,,,,,,,,,,,,,,,,,,5,0.6336,1,,,,,,,,,,,,0,131,5,5,2154,2190,absent_patch/patch0002154.jpg,absent_patch/patch0002190.jpg,,,,,,,,,,,,,,,,,,,,0.139322917,-0.040364583,1,0,0,response3disk,18,-0.009114583,0.0078125,1,0,0,center_square,0,17,17,68,1,,,,,,,,,,,,,,,,,,,,,,,
279478,001,2022-11-21_24h20.40.927,Info_measure_main_exp,2022.2.2,Win32,59.48132286,,,,,,,,,,,,,,,,,,masks/mask_001.jpg,,,,,,,,,,,,,,,,,,,,,,,,,,,,,,,,,,,,,,,,,,,0,0,0,0,1,,,,,,,,,,,,,,,,,,,,,,,,,,,,,,,,,,,,,,,,,,,,,,
279478,001,2022-11-21_24h20.40.927,Info_measure_main_exp,2022.2.2,Win32,59.48132286,,,,,,,,,,,,,,,,,,masks/mask_005.jpg,,,,,,,,,,,,,,,,,,,,,,,,,,,,,,,,,,,,,,,,,,,0,1,1,4,1,,,,,,,,,,,,,,,,,,,,,,,,,,,,,,,,,,,,,,,,,,,,,,
279478,001,2022-11-21_24h20.40.927,Info_measure_main_exp,2022.2.2,Win32,59.48132286,,,,,,,,,,,,,,,,,,masks/mask_003.jpg,,,,,,,,,,,,,,,,,,,,,,,,,,,,,,,,,,,,,,,,,,,0,2,2,2,1,,,,,,,,,,,,,,,,,,,,,,,,,,,,,,,,,,,,,,,,,,,,,,
279478,001,2022-11-21_24h20.40.927,Info_measure_main_exp,2022.2.2,Win32,59.48132286,,,,,,,,,,,,,,,,,,masks/mask_004.jpg,,,,,,,,,,,,,,,,,,,,,,,,,,,,,,,,,,,,,,,,,,,0,3,3,3,1,,,,,,,,,,,,,,,,,,,,,,,,,,,,,,,,,,,,,,,,,,,,,,
279478,001,2022-11-21_24h20.40.927,Info_measure_main_exp,2022.2.2,Win32,59.48132286,,,,,,,,,,,,,,,,,,masks/mask_002.jpg,,,,,,,,,,,,,,,,,,,,,,,,,,,,,,,,,,,,,,,,,,,0,4,4,1,1,,,,,,,,,,,,,,,,,,,,,,,,,,,,,,,,,,,,,,,,,,,,,,
279478,001,2022-11-21_24h20.40.927,Info_measure_main_exp,2022.2.2,Win32,59.48132286,,,,,,,,,,,,,,,,,,masks/mask_002.jpg,,,,,,,,,,,,,,,,,,,,,,,,,,,,,,,,,,,,,,,,,,,,,,,,0,0,0,1,1,,,,,,,,,,,,,,,,,,,,,,,,,,,,,,,,,,,,,,,,,
279478,001,2022-11-21_24h20.40.927,Info_measure_main_exp,2022.2.2,Win32,59.48132286,,,,,,,,,,,,,,,,,,masks/mask_004.jpg,,,,,,,,,,,,,,,,,,,,,,,,,,,,,,,,,,,,,,,,,,,,,,,,0,1,1,3,1,,,,,,,,,,,,,,,,,,,,,,,,,,,,,,,,,,,,,,,,,
279478,001,2022-11-21_24h20.40.927,Info_measure_main_exp,2022.2.2,Win32,59.48132286,,,,,,,,,,,,,,,,,,masks/mask_003.jpg,,,,,,,,,,,,,,,,,,,,,,,,,,,,,,,,,,,,,,,,,,,,,,,,0,2,2,2,1,,,,,,,,,,,,,,,,,,,,,,,,,,,,,,,,,,,,,,,,,
279478,001,2022-11-21_24h20.40.927,Info_measure_main_exp,2022.2.2,Win32,59.48132286,,,,,,,,,,,,,,,,,,masks/mask_001.jpg,,,,,,,,,,,,,,,,,,,,,,,,,,,,,,,,,,,,,,,,,,,,,,,,0,3,3,0,1,,,,,,,,,,,,,,,,,,,,,,,,,,,,,,,,,,,,,,,,,
279478,001,2022-11-21_24h20.40.927,Info_measure_main_exp,2022.2.2,Win32,59.48132286,,,,,,,,,,,,,,,,,,masks/mask_005.jpg,,,,,,,,,,,,,,,,,,,,,,,,,,,,,,,,,,,,,,,,,,,,,,,,0,4,4,4,1,,,,,,,,,,,,,,,,,,,,,,,,,,,,,,,,,,,,,,,,,
279478,001,2022-11-21_24h20.40.927,Info_measure_main_exp,2022.2.2,Win32,59.48132286,,,,,,,,,,,,,,,,,,,,,,,,,,,,,,7,1.0338,1,,,,,,,,,,,,0,131,5,5,2274,1974,absent_patch/patch0002274.jpg,absent_patch/patch0001974.jpg,,,,,,,,,,,,,,,,,,,,0.08984375,0.125,1,0,0,response1disk,19,-0.006510417,0.014322917,1,0,0,center_square,0,18,18,90,1,,,,,,,,,,,,,,,,,,,,,,,
279478,001,2022-11-21_24h20.40.927,Info_measure_main_exp,2022.2.2,Win32,59.48132286,,,,,,,,,,,,,,,,,,masks/mask_002.jpg,,,,,,,,,,,,,,,,,,,,,,,,,,,,,,,,,,,,,,,,,,,0,0,0,1,1,,,,,,,,,,,,,,,,,,,,,,,,,,,,,,,,,,,,,,,,,,,,,,
279478,001,2022-11-21_24h20.40.927,Info_measure_main_exp,2022.2.2,Win32,59.48132286,,,,,,,,,,,,,,,,,,masks/mask_005.jpg,,,,,,,,,,,,,,,,,,,,,,,,,,,,,,,,,,,,,,,,,,,0,1,1,4,1,,,,,,,,,,,,,,,,,,,,,,,,,,,,,,,,,,,,,,,,,,,,,,
279478,001,2022-11-21_24h20.40.927,Info_measure_main_exp,2022.2.2,Win32,59.48132286,,,,,,,,,,,,,,,,,,masks/mask_003.jpg,,,,,,,,,,,,,,,,,,,,,,,,,,,,,,,,,,,,,,,,,,,0,2,2,2,1,,,,,,,,,,,,,,,,,,,,,,,,,,,,,,,,,,,,,,,,,,,,,,
279478,001,2022-11-21_24h20.40.927,Info_measure_main_exp,2022.2.2,Win32,59.48132286,,,,,,,,,,,,,,,,,,masks/mask_004.jpg,,,,,,,,,,,,,,,,,,,,,,,,,,,,,,,,,,,,,,,,,,,0,3,3,3,1,,,,,,,,,,,,,,,,,,,,,,,,,,,,,,,,,,,,,,,,,,,,,,
279478,001,2022-11-21_24h20.40.927,Info_measure_main_exp,2022.2.2,Win32,59.48132286,,,,,,,,,,,,,,,,,,masks/mask_001.jpg,,,,,,,,,,,,,,,,,,,,,,,,,,,,,,,,,,,,,,,,,,,0,4,4,0,1,,,,,,,,,,,,,,,,,,,,,,,,,,,,,,,,,,,,,,,,,,,,,,
279478,001,2022-11-21_24h20.40.927,Info_measure_main_exp,2022.2.2,Win32,59.48132286,,,,,,,,,,,,,,,,,,masks/mask_004.jpg,,,,,,,,,,,,,,,,,,,,,,,,,,,,,,,,,,,,,,,,,,,,,,,,0,0,0,3,1,,,,,,,,,,,,,,,,,,,,,,,,,,,,,,,,,,,,,,,,,
279478,001,2022-11-21_24h20.40.927,Info_measure_main_exp,2022.2.2,Win32,59.48132286,,,,,,,,,,,,,,,,,,masks/mask_003.jpg,,,,,,,,,,,,,,,,,,,,,,,,,,,,,,,,,,,,,,,,,,,,,,,,0,1,1,2,1,,,,,,,,,,,,,,,,,,,,,,,,,,,,,,,,,,,,,,,,,
279478,001,2022-11-21_24h20.40.927,Info_measure_main_exp,2022.2.2,Win32,59.48132286,,,,,,,,,,,,,,,,,,masks/mask_005.jpg,,,,,,,,,,,,,,,,,,,,,,,,,,,,,,,,,,,,,,,,,,,,,,,,0,2,2,4,1,,,,,,,,,,,,,,,,,,,,,,,,,,,,,,,,,,,,,,,,,
279478,001,2022-11-21_24h20.40.927,Info_measure_main_exp,2022.2.2,Win32,59.48132286,,,,,,,,,,,,,,,,,,masks/mask_001.jpg,,,,,,,,,,,,,,,,,,,,,,,,,,,,,,,,,,,,,,,,,,,,,,,,0,3,3,0,1,,,,,,,,,,,,,,,,,,,,,,,,,,,,,,,,,,,,,,,,,
279478,001,2022-11-21_24h20.40.927,Info_measure_main_exp,2022.2.2,Win32,59.48132286,,,,,,,,,,,,,,,,,,masks/mask_002.jpg,,,,,,,,,,,,,,,,,,,,,,,,,,,,,,,,,,,,,,,,,,,,,,,,0,4,4,1,1,,,,,,,,,,,,,,,,,,,,,,,,,,,,,,,,,,,,,,,,,
279478,001,2022-11-21_24h20.40.927,Info_measure_main_exp,2022.2.2,Win32,59.48132286,,,,,,,,,,,,,,,,,,,,,,,,,,,,,,3,0.6335,1,,,,,,,,,,,,0,131,5,5,2154,1950,absent_patch/patch0002154.jpg,absent_patch/patch0001950.jpg,,,,,,,,,,,,,,,,,,,,-0.04296875,-0.079427083,1,0,0,response5disk,20,-0.00390625,0,1,0,0,center_square,0,19,19,96,1,,,,,,,,,,,,,,,,,,,,,,,
279478,001,2022-11-21_24h20.40.927,Info_measure_main_exp,2022.2.2,Win32,59.48132286,,,,,,,,,,,,,,,,,,masks/mask_002.jpg,,,,,,,,,,,,,,,,,,,,,,,,,,,,,,,,,,,,,,,,,,,0,0,0,1,1,,,,,,,,,,,,,,,,,,,,,,,,,,,,,,,,,,,,,,,,,,,,,,
279478,001,2022-11-21_24h20.40.927,Info_measure_main_exp,2022.2.2,Win32,59.48132286,,,,,,,,,,,,,,,,,,masks/mask_005.jpg,,,,,,,,,,,,,,,,,,,,,,,,,,,,,,,,,,,,,,,,,,,0,1,1,4,1,,,,,,,,,,,,,,,,,,,,,,,,,,,,,,,,,,,,,,,,,,,,,,
279478,001,2022-11-21_24h20.40.927,Info_measure_main_exp,2022.2.2,Win32,59.48132286,,,,,,,,,,,,,,,,,,masks/mask_001.jpg,,,,,,,,,,,,,,,,,,,,,,,,,,,,,,,,,,,,,,,,,,,0,2,2,0,1,,,,,,,,,,,,,,,,,,,,,,,,,,,,,,,,,,,,,,,,,,,,,,
279478,001,2022-11-21_24h20.40.927,Info_measure_main_exp,2022.2.2,Win32,59.48132286,,,,,,,,,,,,,,,,,,masks/mask_003.jpg,,,,,,,,,,,,,,,,,,,,,,,,,,,,,,,,,,,,,,,,,,,0,3,3,2,1,,,,,,,,,,,,,,,,,,,,,,,,,,,,,,,,,,,,,,,,,,,,,,
279478,001,2022-11-21_24h20.40.927,Info_measure_main_exp,2022.2.2,Win32,59.48132286,,,,,,,,,,,,,,,,,,masks/mask_004.jpg,,,,,,,,,,,,,,,,,,,,,,,,,,,,,,,,,,,,,,,,,,,0,4,4,3,1,,,,,,,,,,,,,,,,,,,,,,,,,,,,,,,,,,,,,,,,,,,,,,
279478,001,2022-11-21_24h20.40.927,Info_measure_main_exp,2022.2.2,Win32,59.48132286,,,,,,,,,,,,,,,,,,masks/mask_005.jpg,,,,,,,,,,,,,,,,,,,,,,,,,,,,,,,,,,,,,,,,,,,,,,,,0,0,0,4,1,,,,,,,,,,,,,,,,,,,,,,,,,,,,,,,,,,,,,,,,,
279478,001,2022-11-21_24h20.40.927,Info_measure_main_exp,2022.2.2,Win32,59.48132286,,,,,,,,,,,,,,,,,,masks/mask_002.jpg,,,,,,,,,,,,,,,,,,,,,,,,,,,,,,,,,,,,,,,,,,,,,,,,0,1,1,1,1,,,,,,,,,,,,,,,,,,,,,,,,,,,,,,,,,,,,,,,,,
279478,001,2022-11-21_24h20.40.927,Info_measure_main_exp,2022.2.2,Win32,59.48132286,,,,,,,,,,,,,,,,,,masks/mask_001.jpg,,,,,,,,,,,,,,,,,,,,,,,,,,,,,,,,,,,,,,,,,,,,,,,,0,2,2,0,1,,,,,,,,,,,,,,,,,,,,,,,,,,,,,,,,,,,,,,,,,
279478,001,2022-11-21_24h20.40.927,Info_measure_main_exp,2022.2.2,Win32,59.48132286,,,,,,,,,,,,,,,,,,masks/mask_004.jpg,,,,,,,,,,,,,,,,,,,,,,,,,,,,,,,,,,,,,,,,,,,,,,,,0,3,3,3,1,,,,,,,,,,,,,,,,,,,,,,,,,,,,,,,,,,,,,,,,,
279478,001,2022-11-21_24h20.40.927,Info_measure_main_exp,2022.2.2,Win32,59.48132286,,,,,,,,,,,,,,,,,,masks/mask_003.jpg,,,,,,,,,,,,,,,,,,,,,,,,,,,,,,,,,,,,,,,,,,,,,,,,0,4,4,2,1,,,,,,,,,,,,,,,,,,,,,,,,,,,,,,,,,,,,,,,,,
279478,001,2022-11-21_24h20.40.927,Info_measure_main_exp,2022.2.2,Win32,59.48132286,,,,,,,,,,,,,,,,,,,,,,,,,,,,,,4,0.5173,1,,,,,,,,,,,,0,131,5,5,2214,2178,absent_patch/patch0002214.jpg,absent_patch/patch0002178.jpg,,,,,,,,,,,,,,,,,,,,0.057291667,-0.095052083,1,0,0,response3disk,21,0.002604167,-0.001302083,1,0,0,center_square,0,20,20,62,1,,,,,,,,,,,,,,,,,,,,,,,
279478,001,2022-11-21_24h20.40.927,Info_measure_main_exp,2022.2.2,Win32,59.48132286,,,,,,,,,,,,,,,,,,masks/mask_001.jpg,,,,,,,,,,,,,,,,,,,,,,,,,,,,,,,,,,,,,,,,,,,0,0,0,0,1,,,,,,,,,,,,,,,,,,,,,,,,,,,,,,,,,,,,,,,,,,,,,,
279478,001,2022-11-21_24h20.40.927,Info_measure_main_exp,2022.2.2,Win32,59.48132286,,,,,,,,,,,,,,,,,,masks/mask_005.jpg,,,,,,,,,,,,,,,,,,,,,,,,,,,,,,,,,,,,,,,,,,,0,1,1,4,1,,,,,,,,,,,,,,,,,,,,,,,,,,,,,,,,,,,,,,,,,,,,,,
279478,001,2022-11-21_24h20.40.927,Info_measure_main_exp,2022.2.2,Win32,59.48132286,,,,,,,,,,,,,,,,,,masks/mask_002.jpg,,,,,,,,,,,,,,,,,,,,,,,,,,,,,,,,,,,,,,,,,,,0,2,2,1,1,,,,,,,,,,,,,,,,,,,,,,,,,,,,,,,,,,,,,,,,,,,,,,
279478,001,2022-11-21_24h20.40.927,Info_measure_main_exp,2022.2.2,Win32,59.48132286,,,,,,,,,,,,,,,,,,masks/mask_003.jpg,,,,,,,,,,,,,,,,,,,,,,,,,,,,,,,,,,,,,,,,,,,0,3,3,2,1,,,,,,,,,,,,,,,,,,,,,,,,,,,,,,,,,,,,,,,,,,,,,,
279478,001,2022-11-21_24h20.40.927,Info_measure_main_exp,2022.2.2,Win32,59.48132286,,,,,,,,,,,,,,,,,,masks/mask_004.jpg,,,,,,,,,,,,,,,,,,,,,,,,,,,,,,,,,,,,,,,,,,,0,4,4,3,1,,,,,,,,,,,,,,,,,,,,,,,,,,,,,,,,,,,,,,,,,,,,,,
279478,001,2022-11-21_24h20.40.927,Info_measure_main_exp,2022.2.2,Win32,59.48132286,,,,,,,,,,,,,,,,,,masks/mask_004.jpg,,,,,,,,,,,,,,,,,,,,,,,,,,,,,,,,,,,,,,,,,,,,,,,,0,0,0,3,1,,,,,,,,,,,,,,,,,,,,,,,,,,,,,,,,,,,,,,,,,
279478,001,2022-11-21_24h20.40.927,Info_measure_main_exp,2022.2.2,Win32,59.48132286,,,,,,,,,,,,,,,,,,masks/mask_003.jpg,,,,,,,,,,,,,,,,,,,,,,,,,,,,,,,,,,,,,,,,,,,,,,,,0,1,1,2,1,,,,,,,,,,,,,,,,,,,,,,,,,,,,,,,,,,,,,,,,,
279478,001,2022-11-21_24h20.40.927,Info_measure_main_exp,2022.2.2,Win32,59.48132286,,,,,,,,,,,,,,,,,,masks/mask_001.jpg,,,,,,,,,,,,,,,,,,,,,,,,,,,,,,,,,,,,,,,,,,,,,,,,0,2,2,0,1,,,,,,,,,,,,,,,,,,,,,,,,,,,,,,,,,,,,,,,,,
279478,001,2022-11-21_24h20.40.927,Info_measure_main_exp,2022.2.2,Win32,59.48132286,,,,,,,,,,,,,,,,,,masks/mask_002.jpg,,,,,,,,,,,,,,,,,,,,,,,,,,,,,,,,,,,,,,,,,,,,,,,,0,3,3,1,1,,,,,,,,,,,,,,,,,,,,,,,,,,,,,,,,,,,,,,,,,
279478,001,2022-11-21_24h20.40.927,Info_measure_main_exp,2022.2.2,Win32,59.48132286,,,,,,,,,,,,,,,,,,masks/mask_005.jpg,,,,,,,,,,,,,,,,,,,,,,,,,,,,,,,,,,,,,,,,,,,,,,,,0,4,4,4,1,,,,,,,,,,,,,,,,,,,,,,,,,,,,,,,,,,,,,,,,,
279478,001,2022-11-21_24h20.40.927,Info_measure_main_exp,2022.2.2,Win32,59.48132286,,,,,,,,,,,,,,,,,,,,,,,,,,,,,,5,0.5839,1,,,,,,,,,,,,1,131,5,5,2250,1,absent_patch/patch0002250.jpg,present_patch/cong_131_5_a.jpg,,,,,,,,,,,,,,,,,,,,0.065104167,-0.005208333,1,0,0,response3disk,22,0.009114583,0.0078125,1,0,0,center_square,0,21,21,5,1,,,,,,,,,,,,,,,,,,,,,,,
279478,001,2022-11-21_24h20.40.927,Info_measure_main_exp,2022.2.2,Win32,59.48132286,,,,,,,,,,,,,,,,,,masks/mask_005.jpg,,,,,,,,,,,,,,,,,,,,,,,,,,,,,,,,,,,,,,,,,,,0,0,0,4,1,,,,,,,,,,,,,,,,,,,,,,,,,,,,,,,,,,,,,,,,,,,,,,
279478,001,2022-11-21_24h20.40.927,Info_measure_main_exp,2022.2.2,Win32,59.48132286,,,,,,,,,,,,,,,,,,masks/mask_003.jpg,,,,,,,,,,,,,,,,,,,,,,,,,,,,,,,,,,,,,,,,,,,0,1,1,2,1,,,,,,,,,,,,,,,,,,,,,,,,,,,,,,,,,,,,,,,,,,,,,,
279478,001,2022-11-21_24h20.40.927,Info_measure_main_exp,2022.2.2,Win32,59.48132286,,,,,,,,,,,,,,,,,,masks/mask_001.jpg,,,,,,,,,,,,,,,,,,,,,,,,,,,,,,,,,,,,,,,,,,,0,2,2,0,1,,,,,,,,,,,,,,,,,,,,,,,,,,,,,,,,,,,,,,,,,,,,,,
279478,001,2022-11-21_24h20.40.927,Info_measure_main_exp,2022.2.2,Win32,59.48132286,,,,,,,,,,,,,,,,,,masks/mask_002.jpg,,,,,,,,,,,,,,,,,,,,,,,,,,,,,,,,,,,,,,,,,,,0,3,3,1,1,,,,,,,,,,,,,,,,,,,,,,,,,,,,,,,,,,,,,,,,,,,,,,
279478,001,2022-11-21_24h20.40.927,Info_measure_main_exp,2022.2.2,Win32,59.48132286,,,,,,,,,,,,,,,,,,masks/mask_004.jpg,,,,,,,,,,,,,,,,,,,,,,,,,,,,,,,,,,,,,,,,,,,0,4,4,3,1,,,,,,,,,,,,,,,,,,,,,,,,,,,,,,,,,,,,,,,,,,,,,,
279478,001,2022-11-21_24h20.40.927,Info_measure_main_exp,2022.2.2,Win32,59.48132286,,,,,,,,,,,,,,,,,,masks/mask_005.jpg,,,,,,,,,,,,,,,,,,,,,,,,,,,,,,,,,,,,,,,,,,,,,,,,0,0,0,4,1,,,,,,,,,,,,,,,,,,,,,,,,,,,,,,,,,,,,,,,,,
279478,001,2022-11-21_24h20.40.927,Info_measure_main_exp,2022.2.2,Win32,59.48132286,,,,,,,,,,,,,,,,,,masks/mask_002.jpg,,,,,,,,,,,,,,,,,,,,,,,,,,,,,,,,,,,,,,,,,,,,,,,,0,1,1,1,1,,,,,,,,,,,,,,,,,,,,,,,,,,,,,,,,,,,,,,,,,
279478,001,2022-11-21_24h20.40.927,Info_measure_main_exp,2022.2.2,Win32,59.48132286,,,,,,,,,,,,,,,,,,masks/mask_004.jpg,,,,,,,,,,,,,,,,,,,,,,,,,,,,,,,,,,,,,,,,,,,,,,,,0,2,2,3,1,,,,,,,,,,,,,,,,,,,,,,,,,,,,,,,,,,,,,,,,,
279478,001,2022-11-21_24h20.40.927,Info_measure_main_exp,2022.2.2,Win32,59.48132286,,,,,,,,,,,,,,,,,,masks/mask_001.jpg,,,,,,,,,,,,,,,,,,,,,,,,,,,,,,,,,,,,,,,,,,,,,,,,0,3,3,0,1,,,,,,,,,,,,,,,,,,,,,,,,,,,,,,,,,,,,,,,,,
279478,001,2022-11-21_24h20.40.927,Info_measure_main_exp,2022.2.2,Win32,59.48132286,,,,,,,,,,,,,,,,,,masks/mask_003.jpg,,,,,,,,,,,,,,,,,,,,,,,,,,,,,,,,,,,,,,,,,,,,,,,,0,4,4,2,1,,,,,,,,,,,,,,,,,,,,,,,,,,,,,,,,,,,,,,,,,
279478,001,2022-11-21_24h20.40.927,Info_measure_main_exp,2022.2.2,Win32,59.48132286,,,,,,,,,,,,,,,,,,,,,,,,,,,,,,6,1.0495,1,,,,,,,,,,,,0,131,5,5,2178,2154,absent_patch/patch0002178.jpg,absent_patch/patch0002154.jpg,,,,,,,,,,,,,,,,,,,,0.15625,0.052083333,1,0,0,response1disk,23,-0.002604167,-0.005208333,1,0,0,center_square,0,22,22,63,1,,,,,,,,,,,,,,,,,,,,,,,
279478,001,2022-11-21_24h20.40.927,Info_measure_main_exp,2022.2.2,Win32,59.48132286,,,,,,,,,,,,,,,,,,masks/mask_004.jpg,,,,,,,,,,,,,,,,,,,,,,,,,,,,,,,,,,,,,,,,,,,0,0,0,3,1,,,,,,,,,,,,,,,,,,,,,,,,,,,,,,,,,,,,,,,,,,,,,,
279478,001,2022-11-21_24h20.40.927,Info_measure_main_exp,2022.2.2,Win32,59.48132286,,,,,,,,,,,,,,,,,,masks/mask_002.jpg,,,,,,,,,,,,,,,,,,,,,,,,,,,,,,,,,,,,,,,,,,,0,1,1,1,1,,,,,,,,,,,,,,,,,,,,,,,,,,,,,,,,,,,,,,,,,,,,,,
279478,001,2022-11-21_24h20.40.927,Info_measure_main_exp,2022.2.2,Win32,59.48132286,,,,,,,,,,,,,,,,,,masks/mask_003.jpg,,,,,,,,,,,,,,,,,,,,,,,,,,,,,,,,,,,,,,,,,,,0,2,2,2,1,,,,,,,,,,,,,,,,,,,,,,,,,,,,,,,,,,,,,,,,,,,,,,
279478,001,2022-11-21_24h20.40.927,Info_measure_main_exp,2022.2.2,Win32,59.48132286,,,,,,,,,,,,,,,,,,masks/mask_005.jpg,,,,,,,,,,,,,,,,,,,,,,,,,,,,,,,,,,,,,,,,,,,0,3,3,4,1,,,,,,,,,,,,,,,,,,,,,,,,,,,,,,,,,,,,,,,,,,,,,,
279478,001,2022-11-21_24h20.40.927,Info_measure_main_exp,2022.2.2,Win32,59.48132286,,,,,,,,,,,,,,,,,,masks/mask_001.jpg,,,,,,,,,,,,,,,,,,,,,,,,,,,,,,,,,,,,,,,,,,,0,4,4,0,1,,,,,,,,,,,,,,,,,,,,,,,,,,,,,,,,,,,,,,,,,,,,,,
279478,001,2022-11-21_24h20.40.927,Info_measure_main_exp,2022.2.2,Win32,59.48132286,,,,,,,,,,,,,,,,,,masks/mask_004.jpg,,,,,,,,,,,,,,,,,,,,,,,,,,,,,,,,,,,,,,,,,,,,,,,,0,0,0,3,1,,,,,,,,,,,,,,,,,,,,,,,,,,,,,,,,,,,,,,,,,
279478,001,2022-11-21_24h20.40.927,Info_measure_main_exp,2022.2.2,Win32,59.48132286,,,,,,,,,,,,,,,,,,masks/mask_002.jpg,,,,,,,,,,,,,,,,,,,,,,,,,,,,,,,,,,,,,,,,,,,,,,,,0,1,1,1,1,,,,,,,,,,,,,,,,,,,,,,,,,,,,,,,,,,,,,,,,,
279478,001,2022-11-21_24h20.40.927,Info_measure_main_exp,2022.2.2,Win32,59.48132286,,,,,,,,,,,,,,,,,,masks/mask_005.jpg,,,,,,,,,,,,,,,,,,,,,,,,,,,,,,,,,,,,,,,,,,,,,,,,0,2,2,4,1,,,,,,,,,,,,,,,,,,,,,,,,,,,,,,,,,,,,,,,,,
279478,001,2022-11-21_24h20.40.927,Info_measure_main_exp,2022.2.2,Win32,59.48132286,,,,,,,,,,,,,,,,,,masks/mask_003.jpg,,,,,,,,,,,,,,,,,,,,,,,,,,,,,,,,,,,,,,,,,,,,,,,,0,3,3,2,1,,,,,,,,,,,,,,,,,,,,,,,,,,,,,,,,,,,,,,,,,
279478,001,2022-11-21_24h20.40.927,Info_measure_main_exp,2022.2.2,Win32,59.48132286,,,,,,,,,,,,,,,,,,masks/mask_001.jpg,,,,,,,,,,,,,,,,,,,,,,,,,,,,,,,,,,,,,,,,,,,,,,,,0,4,4,0,1,,,,,,,,,,,,,,,,,,,,,,,,,,,,,,,,,,,,,,,,,
279478,001,2022-11-21_24h20.40.927,Info_measure_main_exp,2022.2.2,Win32,59.48132286,,,,,,,,,,,,,,,,,,,,,,,,,,,,,,2,0.5837,1,,,,,,,,,,,,0,131,5,5,2190,2214,absent_patch/patch0002190.jpg,absent_patch/patch0002214.jpg,,,,,,,,,,,,,,,,,,,,-0.102864583,-0.029947917,1,0,0,response5disk,24,0.006510417,0.006510417,1,0,0,center_square,0,23,23,35,1,,,,,,,,,,,,,,,,,,,,,,,
279478,001,2022-11-21_24h20.40.927,Info_measure_main_exp,2022.2.2,Win32,59.48132286,,,,,,,,,,,,,,,,,,masks/mask_002.jpg,,,,,,,,,,,,,,,,,,,,,,,,,,,,,,,,,,,,,,,,,,,0,0,0,1,1,,,,,,,,,,,,,,,,,,,,,,,,,,,,,,,,,,,,,,,,,,,,,,
279478,001,2022-11-21_24h20.40.927,Info_measure_main_exp,2022.2.2,Win32,59.48132286,,,,,,,,,,,,,,,,,,masks/mask_001.jpg,,,,,,,,,,,,,,,,,,,,,,,,,,,,,,,,,,,,,,,,,,,0,1,1,0,1,,,,,,,,,,,,,,,,,,,,,,,,,,,,,,,,,,,,,,,,,,,,,,
279478,001,2022-11-21_24h20.40.927,Info_measure_main_exp,2022.2.2,Win32,59.48132286,,,,,,,,,,,,,,,,,,masks/mask_003.jpg,,,,,,,,,,,,,,,,,,,,,,,,,,,,,,,,,,,,,,,,,,,0,2,2,2,1,,,,,,,,,,,,,,,,,,,,,,,,,,,,,,,,,,,,,,,,,,,,,,
279478,001,2022-11-21_24h20.40.927,Info_measure_main_exp,2022.2.2,Win32,59.48132286,,,,,,,,,,,,,,,,,,masks/mask_004.jpg,,,,,,,,,,,,,,,,,,,,,,,,,,,,,,,,,,,,,,,,,,,0,3,3,3,1,,,,,,,,,,,,,,,,,,,,,,,,,,,,,,,,,,,,,,,,,,,,,,
279478,001,2022-11-21_24h20.40.927,Info_measure_main_exp,2022.2.2,Win32,59.48132286,,,,,,,,,,,,,,,,,,masks/mask_005.jpg,,,,,,,,,,,,,,,,,,,,,,,,,,,,,,,,,,,,,,,,,,,0,4,4,4,1,,,,,,,,,,,,,,,,,,,,,,,,,,,,,,,,,,,,,,,,,,,,,,
279478,001,2022-11-21_24h20.40.927,Info_measure_main_exp,2022.2.2,Win32,59.48132286,,,,,,,,,,,,,,,,,,masks/mask_001.jpg,,,,,,,,,,,,,,,,,,,,,,,,,,,,,,,,,,,,,,,,,,,,,,,,0,0,0,0,1,,,,,,,,,,,,,,,,,,,,,,,,,,,,,,,,,,,,,,,,,
279478,001,2022-11-21_24h20.40.927,Info_measure_main_exp,2022.2.2,Win32,59.48132286,,,,,,,,,,,,,,,,,,masks/mask_004.jpg,,,,,,,,,,,,,,,,,,,,,,,,,,,,,,,,,,,,,,,,,,,,,,,,0,1,1,3,1,,,,,,,,,,,,,,,,,,,,,,,,,,,,,,,,,,,,,,,,,
279478,001,2022-11-21_24h20.40.927,Info_measure_main_exp,2022.2.2,Win32,59.48132286,,,,,,,,,,,,,,,,,,masks/mask_005.jpg,,,,,,,,,,,,,,,,,,,,,,,,,,,,,,,,,,,,,,,,,,,,,,,,0,2,2,4,1,,,,,,,,,,,,,,,,,,,,,,,,,,,,,,,,,,,,,,,,,
279478,001,2022-11-21_24h20.40.927,Info_measure_main_exp,2022.2.2,Win32,59.48132286,,,,,,,,,,,,,,,,,,masks/mask_003.jpg,,,,,,,,,,,,,,,,,,,,,,,,,,,,,,,,,,,,,,,,,,,,,,,,0,3,3,2,1,,,,,,,,,,,,,,,,,,,,,,,,,,,,,,,,,,,,,,,,,
279478,001,2022-11-21_24h20.40.927,Info_measure_main_exp,2022.2.2,Win32,59.48132286,,,,,,,,,,,,,,,,,,masks/mask_002.jpg,,,,,,,,,,,,,,,,,,,,,,,,,,,,,,,,,,,,,,,,,,,,,,,,0,4,4,1,1,,,,,,,,,,,,,,,,,,,,,,,,,,,,,,,,,,,,,,,,,
279478,001,2022-11-21_24h20.40.927,Info_measure_main_exp,2022.2.2,Win32,59.48132286,,,,,,,,,,,,,,,,,,,,,,,,,,,,,,3,1.1842,1,,,,,,,,,,,,1,131,5,5,1,2166,present_patch/cong_131_5_a.jpg,absent_patch/patch0002166.jpg,,,,,,,,,,,,,,,,,,,,-0.046875,-0.088541667,1,0,0,response5disk,25,-0.00390625,0,1,0,0,center_square,0,24,24,54,1,,,,,,,,,,,,,,,,,,,,,,,
279478,001,2022-11-21_24h20.40.927,Info_measure_main_exp,2022.2.2,Win32,59.48132286,,,,,,,,,,,,,,,,,,masks/mask_002.jpg,,,,,,,,,,,,,,,,,,,,,,,,,,,,,,,,,,,,,,,,,,,0,0,0,1,1,,,,,,,,,,,,,,,,,,,,,,,,,,,,,,,,,,,,,,,,,,,,,,
279478,001,2022-11-21_24h20.40.927,Info_measure_main_exp,2022.2.2,Win32,59.48132286,,,,,,,,,,,,,,,,,,masks/mask_005.jpg,,,,,,,,,,,,,,,,,,,,,,,,,,,,,,,,,,,,,,,,,,,0,1,1,4,1,,,,,,,,,,,,,,,,,,,,,,,,,,,,,,,,,,,,,,,,,,,,,,
279478,001,2022-11-21_24h20.40.927,Info_measure_main_exp,2022.2.2,Win32,59.48132286,,,,,,,,,,,,,,,,,,masks/mask_004.jpg,,,,,,,,,,,,,,,,,,,,,,,,,,,,,,,,,,,,,,,,,,,0,2,2,3,1,,,,,,,,,,,,,,,,,,,,,,,,,,,,,,,,,,,,,,,,,,,,,,
279478,001,2022-11-21_24h20.40.927,Info_measure_main_exp,2022.2.2,Win32,59.48132286,,,,,,,,,,,,,,,,,,masks/mask_001.jpg,,,,,,,,,,,,,,,,,,,,,,,,,,,,,,,,,,,,,,,,,,,0,3,3,0,1,,,,,,,,,,,,,,,,,,,,,,,,,,,,,,,,,,,,,,,,,,,,,,
279478,001,2022-11-21_24h20.40.927,Info_measure_main_exp,2022.2.2,Win32,59.48132286,,,,,,,,,,,,,,,,,,masks/mask_003.jpg,,,,,,,,,,,,,,,,,,,,,,,,,,,,,,,,,,,,,,,,,,,0,4,4,2,1,,,,,,,,,,,,,,,,,,,,,,,,,,,,,,,,,,,,,,,,,,,,,,
279478,001,2022-11-21_24h20.40.927,Info_measure_main_exp,2022.2.2,Win32,59.48132286,,,,,,,,,,,,,,,,,,masks/mask_005.jpg,,,,,,,,,,,,,,,,,,,,,,,,,,,,,,,,,,,,,,,,,,,,,,,,0,0,0,4,1,,,,,,,,,,,,,,,,,,,,,,,,,,,,,,,,,,,,,,,,,
279478,001,2022-11-21_24h20.40.927,Info_measure_main_exp,2022.2.2,Win32,59.48132286,,,,,,,,,,,,,,,,,,masks/mask_001.jpg,,,,,,,,,,,,,,,,,,,,,,,,,,,,,,,,,,,,,,,,,,,,,,,,0,1,1,0,1,,,,,,,,,,,,,,,,,,,,,,,,,,,,,,,,,,,,,,,,,
279478,001,2022-11-21_24h20.40.927,Info_measure_main_exp,2022.2.2,Win32,59.48132286,,,,,,,,,,,,,,,,,,masks/mask_004.jpg,,,,,,,,,,,,,,,,,,,,,,,,,,,,,,,,,,,,,,,,,,,,,,,,0,2,2,3,1,,,,,,,,,,,,,,,,,,,,,,,,,,,,,,,,,,,,,,,,,
279478,001,2022-11-21_24h20.40.927,Info_measure_main_exp,2022.2.2,Win32,59.48132286,,,,,,,,,,,,,,,,,,masks/mask_003.jpg,,,,,,,,,,,,,,,,,,,,,,,,,,,,,,,,,,,,,,,,,,,,,,,,0,3,3,2,1,,,,,,,,,,,,,,,,,,,,,,,,,,,,,,,,,,,,,,,,,
279478,001,2022-11-21_24h20.40.927,Info_measure_main_exp,2022.2.2,Win32,59.48132286,,,,,,,,,,,,,,,,,,masks/mask_002.jpg,,,,,,,,,,,,,,,,,,,,,,,,,,,,,,,,,,,,,,,,,,,,,,,,0,4,4,1,1,,,,,,,,,,,,,,,,,,,,,,,,,,,,,,,,,,,,,,,,,
279478,001,2022-11-21_24h20.40.927,Info_measure_main_exp,2022.2.2,Win32,59.48132286,,,,,,,,,,,,,,,,,,,,,,,,,,,,,,4,1.2833,1,,,,,,,,,,,,1,131,5,5,2190,1,absent_patch/patch0002190.jpg,present_patch/cong_131_5_a.jpg,,,,,,,,,,,,,,,,,,,,0.010416667,-0.12109375,1,0,0,response3disk,26,-0.010416667,-0.002604167,1,0,0,center_square,0,25,25,64,1,,,,,,,,,,,,,,,,,,,,,,,
279478,001,2022-11-21_24h20.40.927,Info_measure_main_exp,2022.2.2,Win32,59.48132286,,,,,,,,,,,,,,,,,,masks/mask_005.jpg,,,,,,,,,,,,,,,,,,,,,,,,,,,,,,,,,,,,,,,,,,,0,0,0,4,1,,,,,,,,,,,,,,,,,,,,,,,,,,,,,,,,,,,,,,,,,,,,,,
279478,001,2022-11-21_24h20.40.927,Info_measure_main_exp,2022.2.2,Win32,59.48132286,,,,,,,,,,,,,,,,,,masks/mask_002.jpg,,,,,,,,,,,,,,,,,,,,,,,,,,,,,,,,,,,,,,,,,,,0,1,1,1,1,,,,,,,,,,,,,,,,,,,,,,,,,,,,,,,,,,,,,,,,,,,,,,
279478,001,2022-11-21_24h20.40.927,Info_measure_main_exp,2022.2.2,Win32,59.48132286,,,,,,,,,,,,,,,,,,masks/mask_001.jpg,,,,,,,,,,,,,,,,,,,,,,,,,,,,,,,,,,,,,,,,,,,0,2,2,0,1,,,,,,,,,,,,,,,,,,,,,,,,,,,,,,,,,,,,,,,,,,,,,,
279478,001,2022-11-21_24h20.40.927,Info_measure_main_exp,2022.2.2,Win32,59.48132286,,,,,,,,,,,,,,,,,,masks/mask_004.jpg,,,,,,,,,,,,,,,,,,,,,,,,,,,,,,,,,,,,,,,,,,,0,3,3,3,1,,,,,,,,,,,,,,,,,,,,,,,,,,,,,,,,,,,,,,,,,,,,,,
279478,001,2022-11-21_24h20.40.927,Info_measure_main_exp,2022.2.2,Win32,59.48132286,,,,,,,,,,,,,,,,,,masks/mask_003.jpg,,,,,,,,,,,,,,,,,,,,,,,,,,,,,,,,,,,,,,,,,,,0,4,4,2,1,,,,,,,,,,,,,,,,,,,,,,,,,,,,,,,,,,,,,,,,,,,,,,
279478,001,2022-11-21_24h20.40.927,Info_measure_main_exp,2022.2.2,Win32,59.48132286,,,,,,,,,,,,,,,,,,masks/mask_002.jpg,,,,,,,,,,,,,,,,,,,,,,,,,,,,,,,,,,,,,,,,,,,,,,,,0,0,0,1,1,,,,,,,,,,,,,,,,,,,,,,,,,,,,,,,,,,,,,,,,,
279478,001,2022-11-21_24h20.40.927,Info_measure_main_exp,2022.2.2,Win32,59.48132286,,,,,,,,,,,,,,,,,,masks/mask_001.jpg,,,,,,,,,,,,,,,,,,,,,,,,,,,,,,,,,,,,,,,,,,,,,,,,0,1,1,0,1,,,,,,,,,,,,,,,,,,,,,,,,,,,,,,,,,,,,,,,,,
279478,001,2022-11-21_24h20.40.927,Info_measure_main_exp,2022.2.2,Win32,59.48132286,,,,,,,,,,,,,,,,,,masks/mask_003.jpg,,,,,,,,,,,,,,,,,,,,,,,,,,,,,,,,,,,,,,,,,,,,,,,,0,2,2,2,1,,,,,,,,,,,,,,,,,,,,,,,,,,,,,,,,,,,,,,,,,
279478,001,2022-11-21_24h20.40.927,Info_measure_main_exp,2022.2.2,Win32,59.48132286,,,,,,,,,,,,,,,,,,masks/mask_004.jpg,,,,,,,,,,,,,,,,,,,,,,,,,,,,,,,,,,,,,,,,,,,,,,,,0,3,3,3,1,,,,,,,,,,,,,,,,,,,,,,,,,,,,,,,,,,,,,,,,,
279478,001,2022-11-21_24h20.40.927,Info_measure_main_exp,2022.2.2,Win32,59.48132286,,,,,,,,,,,,,,,,,,masks/mask_005.jpg,,,,,,,,,,,,,,,,,,,,,,,,,,,,,,,,,,,,,,,,,,,,,,,,0,4,4,4,1,,,,,,,,,,,,,,,,,,,,,,,,,,,,,,,,,,,,,,,,,
279478,001,2022-11-21_24h20.40.927,Info_measure_main_exp,2022.2.2,Win32,59.48132286,,,,,,,,,,,,,,,,,,,,,,,,,,,,,,2,0.7829,1,,,,,,,,,,,,0,131,5,5,2298,2190,absent_patch/patch0002298.jpg,absent_patch/patch0002190.jpg,,,,,,,,,,,,,,,,,,,,-0.069010417,-0.04296875,1,0,0,response5disk,27,0.002604167,-0.005208333,1,0,0,center_square,0,26,26,20,1,,,,,,,,,,,,,,,,,,,,,,,
279478,001,2022-11-21_24h20.40.927,Info_measure_main_exp,2022.2.2,Win32,59.48132286,,,,,,,,,,,,,,,,,,masks/mask_002.jpg,,,,,,,,,,,,,,,,,,,,,,,,,,,,,,,,,,,,,,,,,,,0,0,0,1,1,,,,,,,,,,,,,,,,,,,,,,,,,,,,,,,,,,,,,,,,,,,,,,
279478,001,2022-11-21_24h20.40.927,Info_measure_main_exp,2022.2.2,Win32,59.48132286,,,,,,,,,,,,,,,,,,masks/mask_005.jpg,,,,,,,,,,,,,,,,,,,,,,,,,,,,,,,,,,,,,,,,,,,0,1,1,4,1,,,,,,,,,,,,,,,,,,,,,,,,,,,,,,,,,,,,,,,,,,,,,,
279478,001,2022-11-21_24h20.40.927,Info_measure_main_exp,2022.2.2,Win32,59.48132286,,,,,,,,,,,,,,,,,,masks/mask_003.jpg,,,,,,,,,,,,,,,,,,,,,,,,,,,,,,,,,,,,,,,,,,,0,2,2,2,1,,,,,,,,,,,,,,,,,,,,,,,,,,,,,,,,,,,,,,,,,,,,,,
279478,001,2022-11-21_24h20.40.927,Info_measure_main_exp,2022.2.2,Win32,59.48132286,,,,,,,,,,,,,,,,,,masks/mask_004.jpg,,,,,,,,,,,,,,,,,,,,,,,,,,,,,,,,,,,,,,,,,,,0,3,3,3,1,,,,,,,,,,,,,,,,,,,,,,,,,,,,,,,,,,,,,,,,,,,,,,
279478,001,2022-11-21_24h20.40.927,Info_measure_main_exp,2022.2.2,Win32,59.48132286,,,,,,,,,,,,,,,,,,masks/mask_001.jpg,,,,,,,,,,,,,,,,,,,,,,,,,,,,,,,,,,,,,,,,,,,0,4,4,0,1,,,,,,,,,,,,,,,,,,,,,,,,,,,,,,,,,,,,,,,,,,,,,,
279478,001,2022-11-21_24h20.40.927,Info_measure_main_exp,2022.2.2,Win32,59.48132286,,,,,,,,,,,,,,,,,,masks/mask_005.jpg,,,,,,,,,,,,,,,,,,,,,,,,,,,,,,,,,,,,,,,,,,,,,,,,0,0,0,4,1,,,,,,,,,,,,,,,,,,,,,,,,,,,,,,,,,,,,,,,,,
279478,001,2022-11-21_24h20.40.927,Info_measure_main_exp,2022.2.2,Win32,59.48132286,,,,,,,,,,,,,,,,,,masks/mask_001.jpg,,,,,,,,,,,,,,,,,,,,,,,,,,,,,,,,,,,,,,,,,,,,,,,,0,1,1,0,1,,,,,,,,,,,,,,,,,,,,,,,,,,,,,,,,,,,,,,,,,
279478,001,2022-11-21_24h20.40.927,Info_measure_main_exp,2022.2.2,Win32,59.48132286,,,,,,,,,,,,,,,,,,masks/mask_004.jpg,,,,,,,,,,,,,,,,,,,,,,,,,,,,,,,,,,,,,,,,,,,,,,,,0,2,2,3,1,,,,,,,,,,,,,,,,,,,,,,,,,,,,,,,,,,,,,,,,,
279478,001,2022-11-21_24h20.40.927,Info_measure_main_exp,2022.2.2,Win32,59.48132286,,,,,,,,,,,,,,,,,,masks/mask_002.jpg,,,,,,,,,,,,,,,,,,,,,,,,,,,,,,,,,,,,,,,,,,,,,,,,0,3,3,1,1,,,,,,,,,,,,,,,,,,,,,,,,,,,,,,,,,,,,,,,,,
279478,001,2022-11-21_24h20.40.927,Info_measure_main_exp,2022.2.2,Win32,59.48132286,,,,,,,,,,,,,,,,,,masks/mask_003.jpg,,,,,,,,,,,,,,,,,,,,,,,,,,,,,,,,,,,,,,,,,,,,,,,,0,4,4,2,1,,,,,,,,,,,,,,,,,,,,,,,,,,,,,,,,,,,,,,,,,
279478,001,2022-11-21_24h20.40.927,Info_measure_main_exp,2022.2.2,Win32,59.48132286,,,,,,,,,,,,,,,,,,,,,,,,,,,,,,3,0.9002,1,,,,,,,,,,,,0,131,5,5,2238,2166,absent_patch/patch0002238.jpg,absent_patch/patch0002166.jpg,,,,,,,,,,,,,,,,,,,,-0.040364583,-0.151041667,1,0,0,response5disk,28,0.00390625,-0.010416667,1,0,0,center_square,0,27,27,118,1,,,,,,,,,,,,,,,,,,,,,,,
279478,001,2022-11-21_24h20.40.927,Info_measure_main_exp,2022.2.2,Win32,59.48132286,,,,,,,,,,,,,,,,,,masks/mask_004.jpg,,,,,,,,,,,,,,,,,,,,,,,,,,,,,,,,,,,,,,,,,,,0,0,0,3,1,,,,,,,,,,,,,,,,,,,,,,,,,,,,,,,,,,,,,,,,,,,,,,
279478,001,2022-11-21_24h20.40.927,Info_measure_main_exp,2022.2.2,Win32,59.48132286,,,,,,,,,,,,,,,,,,masks/mask_002.jpg,,,,,,,,,,,,,,,,,,,,,,,,,,,,,,,,,,,,,,,,,,,0,1,1,1,1,,,,,,,,,,,,,,,,,,,,,,,,,,,,,,,,,,,,,,,,,,,,,,
279478,001,2022-11-21_24h20.40.927,Info_measure_main_exp,2022.2.2,Win32,59.48132286,,,,,,,,,,,,,,,,,,masks/mask_001.jpg,,,,,,,,,,,,,,,,,,,,,,,,,,,,,,,,,,,,,,,,,,,0,2,2,0,1,,,,,,,,,,,,,,,,,,,,,,,,,,,,,,,,,,,,,,,,,,,,,,
279478,001,2022-11-21_24h20.40.927,Info_measure_main_exp,2022.2.2,Win32,59.48132286,,,,,,,,,,,,,,,,,,masks/mask_003.jpg,,,,,,,,,,,,,,,,,,,,,,,,,,,,,,,,,,,,,,,,,,,0,3,3,2,1,,,,,,,,,,,,,,,,,,,,,,,,,,,,,,,,,,,,,,,,,,,,,,
279478,001,2022-11-21_24h20.40.927,Info_measure_main_exp,2022.2.2,Win32,59.48132286,,,,,,,,,,,,,,,,,,masks/mask_005.jpg,,,,,,,,,,,,,,,,,,,,,,,,,,,,,,,,,,,,,,,,,,,0,4,4,4,1,,,,,,,,,,,,,,,,,,,,,,,,,,,,,,,,,,,,,,,,,,,,,,
279478,001,2022-11-21_24h20.40.927,Info_measure_main_exp,2022.2.2,Win32,59.48132286,,,,,,,,,,,,,,,,,,masks/mask_004.jpg,,,,,,,,,,,,,,,,,,,,,,,,,,,,,,,,,,,,,,,,,,,,,,,,0,0,0,3,1,,,,,,,,,,,,,,,,,,,,,,,,,,,,,,,,,,,,,,,,,
279478,001,2022-11-21_24h20.40.927,Info_measure_main_exp,2022.2.2,Win32,59.48132286,,,,,,,,,,,,,,,,,,masks/mask_001.jpg,,,,,,,,,,,,,,,,,,,,,,,,,,,,,,,,,,,,,,,,,,,,,,,,0,1,1,0,1,,,,,,,,,,,,,,,,,,,,,,,,,,,,,,,,,,,,,,,,,
279478,001,2022-11-21_24h20.40.927,Info_measure_main_exp,2022.2.2,Win32,59.48132286,,,,,,,,,,,,,,,,,,masks/mask_002.jpg,,,,,,,,,,,,,,,,,,,,,,,,,,,,,,,,,,,,,,,,,,,,,,,,0,2,2,1,1,,,,,,,,,,,,,,,,,,,,,,,,,,,,,,,,,,,,,,,,,
279478,001,2022-11-21_24h20.40.927,Info_measure_main_exp,2022.2.2,Win32,59.48132286,,,,,,,,,,,,,,,,,,masks/mask_003.jpg,,,,,,,,,,,,,,,,,,,,,,,,,,,,,,,,,,,,,,,,,,,,,,,,0,3,3,2,1,,,,,,,,,,,,,,,,,,,,,,,,,,,,,,,,,,,,,,,,,
279478,001,2022-11-21_24h20.40.927,Info_measure_main_exp,2022.2.2,Win32,59.48132286,,,,,,,,,,,,,,,,,,masks/mask_005.jpg,,,,,,,,,,,,,,,,,,,,,,,,,,,,,,,,,,,,,,,,,,,,,,,,0,4,4,4,1,,,,,,,,,,,,,,,,,,,,,,,,,,,,,,,,,,,,,,,,,
279478,001,2022-11-21_24h20.40.927,Info_measure_main_exp,2022.2.2,Win32,59.48132286,,,,,,,,,,,,,,,,,,,,,,,,,,,,,,5,0.8169,1,,,,,,,,,,,,0,131,5,5,2274,2082,absent_patch/patch0002274.jpg,absent_patch/patch0002082.jpg,,,,,,,,,,,,,,,,,,,,0.08984375,-0.02734375,1,0,0,response3disk,29,0,0,1,0,0,center_square,0,28,28,100,1,,,,,,,,,,,,,,,,,,,,,,,
279478,001,2022-11-21_24h20.40.927,Info_measure_main_exp,2022.2.2,Win32,59.48132286,,,,,,,,,,,,,,,,,,masks/mask_003.jpg,,,,,,,,,,,,,,,,,,,,,,,,,,,,,,,,,,,,,,,,,,,0,0,0,2,1,,,,,,,,,,,,,,,,,,,,,,,,,,,,,,,,,,,,,,,,,,,,,,
279478,001,2022-11-21_24h20.40.927,Info_measure_main_exp,2022.2.2,Win32,59.48132286,,,,,,,,,,,,,,,,,,masks/mask_005.jpg,,,,,,,,,,,,,,,,,,,,,,,,,,,,,,,,,,,,,,,,,,,0,1,1,4,1,,,,,,,,,,,,,,,,,,,,,,,,,,,,,,,,,,,,,,,,,,,,,,
279478,001,2022-11-21_24h20.40.927,Info_measure_main_exp,2022.2.2,Win32,59.48132286,,,,,,,,,,,,,,,,,,masks/mask_004.jpg,,,,,,,,,,,,,,,,,,,,,,,,,,,,,,,,,,,,,,,,,,,0,2,2,3,1,,,,,,,,,,,,,,,,,,,,,,,,,,,,,,,,,,,,,,,,,,,,,,
279478,001,2022-11-21_24h20.40.927,Info_measure_main_exp,2022.2.2,Win32,59.48132286,,,,,,,,,,,,,,,,,,masks/mask_002.jpg,,,,,,,,,,,,,,,,,,,,,,,,,,,,,,,,,,,,,,,,,,,0,3,3,1,1,,,,,,,,,,,,,,,,,,,,,,,,,,,,,,,,,,,,,,,,,,,,,,
279478,001,2022-11-21_24h20.40.927,Info_measure_main_exp,2022.2.2,Win32,59.48132286,,,,,,,,,,,,,,,,,,masks/mask_001.jpg,,,,,,,,,,,,,,,,,,,,,,,,,,,,,,,,,,,,,,,,,,,0,4,4,0,1,,,,,,,,,,,,,,,,,,,,,,,,,,,,,,,,,,,,,,,,,,,,,,
279478,001,2022-11-21_24h20.40.927,Info_measure_main_exp,2022.2.2,Win32,59.48132286,,,,,,,,,,,,,,,,,,masks/mask_003.jpg,,,,,,,,,,,,,,,,,,,,,,,,,,,,,,,,,,,,,,,,,,,,,,,,0,0,0,2,1,,,,,,,,,,,,,,,,,,,,,,,,,,,,,,,,,,,,,,,,,
279478,001,2022-11-21_24h20.40.927,Info_measure_main_exp,2022.2.2,Win32,59.48132286,,,,,,,,,,,,,,,,,,masks/mask_005.jpg,,,,,,,,,,,,,,,,,,,,,,,,,,,,,,,,,,,,,,,,,,,,,,,,0,1,1,4,1,,,,,,,,,,,,,,,,,,,,,,,,,,,,,,,,,,,,,,,,,
279478,001,2022-11-21_24h20.40.927,Info_measure_main_exp,2022.2.2,Win32,59.48132286,,,,,,,,,,,,,,,,,,masks/mask_002.jpg,,,,,,,,,,,,,,,,,,,,,,,,,,,,,,,,,,,,,,,,,,,,,,,,0,2,2,1,1,,,,,,,,,,,,,,,,,,,,,,,,,,,,,,,,,,,,,,,,,
279478,001,2022-11-21_24h20.40.927,Info_measure_main_exp,2022.2.2,Win32,59.48132286,,,,,,,,,,,,,,,,,,masks/mask_001.jpg,,,,,,,,,,,,,,,,,,,,,,,,,,,,,,,,,,,,,,,,,,,,,,,,0,3,3,0,1,,,,,,,,,,,,,,,,,,,,,,,,,,,,,,,,,,,,,,,,,
279478,001,2022-11-21_24h20.40.927,Info_measure_main_exp,2022.2.2,Win32,59.48132286,,,,,,,,,,,,,,,,,,masks/mask_004.jpg,,,,,,,,,,,,,,,,,,,,,,,,,,,,,,,,,,,,,,,,,,,,,,,,0,4,4,3,1,,,,,,,,,,,,,,,,,,,,,,,,,,,,,,,,,,,,,,,,,
279478,001,2022-11-21_24h20.40.927,Info_measure_main_exp,2022.2.2,Win32,59.48132286,,,,,,,,,,,,,,,,,,,,,,,,,,,,,,0,0.6663,1,,,,,,,,,,,,0,131,5,5,2274,2274,absent_patch/patch0002274.jpg,absent_patch/patch0002274.jpg,,,,,,,,,,,,,,,,,,,,-0.024739583,0.052083333,1,0,0,response7disk,30,0.014322917,-0.001302083,1,0,0,center_square,0,29,29,114,1,,,,,,,,,,,,,,,,,,,,,,,
279478,001,2022-11-21_24h20.40.927,Info_measure_main_exp,2022.2.2,Win32,59.48132286,,,,,,,,,,,,,,,,,,masks/mask_004.jpg,,,,,,,,,,,,,,,,,,,,,,,,,,,,,,,,,,,,,,,,,,,0,0,0,3,1,,,,,,,,,,,,,,,,,,,,,,,,,,,,,,,,,,,,,,,,,,,,,,
279478,001,2022-11-21_24h20.40.927,Info_measure_main_exp,2022.2.2,Win32,59.48132286,,,,,,,,,,,,,,,,,,masks/mask_005.jpg,,,,,,,,,,,,,,,,,,,,,,,,,,,,,,,,,,,,,,,,,,,0,1,1,4,1,,,,,,,,,,,,,,,,,,,,,,,,,,,,,,,,,,,,,,,,,,,,,,
279478,001,2022-11-21_24h20.40.927,Info_measure_main_exp,2022.2.2,Win32,59.48132286,,,,,,,,,,,,,,,,,,masks/mask_003.jpg,,,,,,,,,,,,,,,,,,,,,,,,,,,,,,,,,,,,,,,,,,,0,2,2,2,1,,,,,,,,,,,,,,,,,,,,,,,,,,,,,,,,,,,,,,,,,,,,,,
279478,001,2022-11-21_24h20.40.927,Info_measure_main_exp,2022.2.2,Win32,59.48132286,,,,,,,,,,,,,,,,,,masks/mask_002.jpg,,,,,,,,,,,,,,,,,,,,,,,,,,,,,,,,,,,,,,,,,,,0,3,3,1,1,,,,,,,,,,,,,,,,,,,,,,,,,,,,,,,,,,,,,,,,,,,,,,
279478,001,2022-11-21_24h20.40.927,Info_measure_main_exp,2022.2.2,Win32,59.48132286,,,,,,,,,,,,,,,,,,masks/mask_001.jpg,,,,,,,,,,,,,,,,,,,,,,,,,,,,,,,,,,,,,,,,,,,0,4,4,0,1,,,,,,,,,,,,,,,,,,,,,,,,,,,,,,,,,,,,,,,,,,,,,,
279478,001,2022-11-21_24h20.40.927,Info_measure_main_exp,2022.2.2,Win32,59.48132286,,,,,,,,,,,,,,,,,,masks/mask_001.jpg,,,,,,,,,,,,,,,,,,,,,,,,,,,,,,,,,,,,,,,,,,,,,,,,0,0,0,0,1,,,,,,,,,,,,,,,,,,,,,,,,,,,,,,,,,,,,,,,,,
279478,001,2022-11-21_24h20.40.927,Info_measure_main_exp,2022.2.2,Win32,59.48132286,,,,,,,,,,,,,,,,,,masks/mask_002.jpg,,,,,,,,,,,,,,,,,,,,,,,,,,,,,,,,,,,,,,,,,,,,,,,,0,1,1,1,1,,,,,,,,,,,,,,,,,,,,,,,,,,,,,,,,,,,,,,,,,
279478,001,2022-11-21_24h20.40.927,Info_measure_main_exp,2022.2.2,Win32,59.48132286,,,,,,,,,,,,,,,,,,masks/mask_003.jpg,,,,,,,,,,,,,,,,,,,,,,,,,,,,,,,,,,,,,,,,,,,,,,,,0,2,2,2,1,,,,,,,,,,,,,,,,,,,,,,,,,,,,,,,,,,,,,,,,,
279478,001,2022-11-21_24h20.40.927,Info_measure_main_exp,2022.2.2,Win32,59.48132286,,,,,,,,,,,,,,,,,,masks/mask_004.jpg,,,,,,,,,,,,,,,,,,,,,,,,,,,,,,,,,,,,,,,,,,,,,,,,0,3,3,3,1,,,,,,,,,,,,,,,,,,,,,,,,,,,,,,,,,,,,,,,,,
279478,001,2022-11-21_24h20.40.927,Info_measure_main_exp,2022.2.2,Win32,59.48132286,,,,,,,,,,,,,,,,,,masks/mask_005.jpg,,,,,,,,,,,,,,,,,,,,,,,,,,,,,,,,,,,,,,,,,,,,,,,,0,4,4,4,1,,,,,,,,,,,,,,,,,,,,,,,,,,,,,,,,,,,,,,,,,
279478,001,2022-11-21_24h20.40.927,Info_measure_main_exp,2022.2.2,Win32,59.48132286,,,,,,,,,,,,,,,,,,,,,,,,,,,,,,3,0.6508,1,,,,,,,,,,,,0,131,5,5,2178,2142,absent_patch/patch0002178.jpg,absent_patch/patch0002142.jpg,,,,,,,,,,,,,,,,,,,,-0.006510417,-0.096354167,1,0,0,response5disk,31,0.006510417,0,1,0,0,center_square,0,30,30,41,1,,,,,,,,,,,,,,,,,,,,,,,
279478,001,2022-11-21_24h20.40.927,Info_measure_main_exp,2022.2.2,Win32,59.48132286,,,,,,,,,,,,,,,,,,masks/mask_004.jpg,,,,,,,,,,,,,,,,,,,,,,,,,,,,,,,,,,,,,,,,,,,0,0,0,3,1,,,,,,,,,,,,,,,,,,,,,,,,,,,,,,,,,,,,,,,,,,,,,,
279478,001,2022-11-21_24h20.40.927,Info_measure_main_exp,2022.2.2,Win32,59.48132286,,,,,,,,,,,,,,,,,,masks/mask_002.jpg,,,,,,,,,,,,,,,,,,,,,,,,,,,,,,,,,,,,,,,,,,,0,1,1,1,1,,,,,,,,,,,,,,,,,,,,,,,,,,,,,,,,,,,,,,,,,,,,,,
279478,001,2022-11-21_24h20.40.927,Info_measure_main_exp,2022.2.2,Win32,59.48132286,,,,,,,,,,,,,,,,,,masks/mask_003.jpg,,,,,,,,,,,,,,,,,,,,,,,,,,,,,,,,,,,,,,,,,,,0,2,2,2,1,,,,,,,,,,,,,,,,,,,,,,,,,,,,,,,,,,,,,,,,,,,,,,
279478,001,2022-11-21_24h20.40.927,Info_measure_main_exp,2022.2.2,Win32,59.48132286,,,,,,,,,,,,,,,,,,masks/mask_001.jpg,,,,,,,,,,,,,,,,,,,,,,,,,,,,,,,,,,,,,,,,,,,0,3,3,0,1,,,,,,,,,,,,,,,,,,,,,,,,,,,,,,,,,,,,,,,,,,,,,,
279478,001,2022-11-21_24h20.40.927,Info_measure_main_exp,2022.2.2,Win32,59.48132286,,,,,,,,,,,,,,,,,,masks/mask_005.jpg,,,,,,,,,,,,,,,,,,,,,,,,,,,,,,,,,,,,,,,,,,,0,4,4,4,1,,,,,,,,,,,,,,,,,,,,,,,,,,,,,,,,,,,,,,,,,,,,,,
279478,001,2022-11-21_24h20.40.927,Info_measure_main_exp,2022.2.2,Win32,59.48132286,,,,,,,,,,,,,,,,,,masks/mask_003.jpg,,,,,,,,,,,,,,,,,,,,,,,,,,,,,,,,,,,,,,,,,,,,,,,,0,0,0,2,1,,,,,,,,,,,,,,,,,,,,,,,,,,,,,,,,,,,,,,,,,
279478,001,2022-11-21_24h20.40.927,Info_measure_main_exp,2022.2.2,Win32,59.48132286,,,,,,,,,,,,,,,,,,masks/mask_005.jpg,,,,,,,,,,,,,,,,,,,,,,,,,,,,,,,,,,,,,,,,,,,,,,,,0,1,1,4,1,,,,,,,,,,,,,,,,,,,,,,,,,,,,,,,,,,,,,,,,,
279478,001,2022-11-21_24h20.40.927,Info_measure_main_exp,2022.2.2,Win32,59.48132286,,,,,,,,,,,,,,,,,,masks/mask_002.jpg,,,,,,,,,,,,,,,,,,,,,,,,,,,,,,,,,,,,,,,,,,,,,,,,0,2,2,1,1,,,,,,,,,,,,,,,,,,,,,,,,,,,,,,,,,,,,,,,,,
279478,001,2022-11-21_24h20.40.927,Info_measure_main_exp,2022.2.2,Win32,59.48132286,,,,,,,,,,,,,,,,,,masks/mask_004.jpg,,,,,,,,,,,,,,,,,,,,,,,,,,,,,,,,,,,,,,,,,,,,,,,,0,3,3,3,1,,,,,,,,,,,,,,,,,,,,,,,,,,,,,,,,,,,,,,,,,
279478,001,2022-11-21_24h20.40.927,Info_measure_main_exp,2022.2.2,Win32,59.48132286,,,,,,,,,,,,,,,,,,masks/mask_001.jpg,,,,,,,,,,,,,,,,,,,,,,,,,,,,,,,,,,,,,,,,,,,,,,,,0,4,4,0,1,,,,,,,,,,,,,,,,,,,,,,,,,,,,,,,,,,,,,,,,,
279478,001,2022-11-21_24h20.40.927,Info_measure_main_exp,2022.2.2,Win32,59.48132286,,,,,,,,,,,,,,,,,,,,,,,,,,,,,,6,0.933,1,,,,,,,,,,,,1,131,5,5,1,2214,present_patch/cong_131_5_a.jpg,absent_patch/patch0002214.jpg,,,,,,,,,,,,,,,,,,,,0.0859375,0.03125,1,0,0,response1disk,32,-0.0078125,-0.001302083,1,0,0,center_square,0,31,31,4,1,,,,,,,,,,,,,,,,,,,,,,,
279478,001,2022-11-21_24h20.40.927,Info_measure_main_exp,2022.2.2,Win32,59.48132286,,,,,,,,,,,,,,,,,,masks/mask_005.jpg,,,,,,,,,,,,,,,,,,,,,,,,,,,,,,,,,,,,,,,,,,,0,0,0,4,1,,,,,,,,,,,,,,,,,,,,,,,,,,,,,,,,,,,,,,,,,,,,,,
279478,001,2022-11-21_24h20.40.927,Info_measure_main_exp,2022.2.2,Win32,59.48132286,,,,,,,,,,,,,,,,,,masks/mask_001.jpg,,,,,,,,,,,,,,,,,,,,,,,,,,,,,,,,,,,,,,,,,,,0,1,1,0,1,,,,,,,,,,,,,,,,,,,,,,,,,,,,,,,,,,,,,,,,,,,,,,
279478,001,2022-11-21_24h20.40.927,Info_measure_main_exp,2022.2.2,Win32,59.48132286,,,,,,,,,,,,,,,,,,masks/mask_002.jpg,,,,,,,,,,,,,,,,,,,,,,,,,,,,,,,,,,,,,,,,,,,0,2,2,1,1,,,,,,,,,,,,,,,,,,,,,,,,,,,,,,,,,,,,,,,,,,,,,,
279478,001,2022-11-21_24h20.40.927,Info_measure_main_exp,2022.2.2,Win32,59.48132286,,,,,,,,,,,,,,,,,,masks/mask_004.jpg,,,,,,,,,,,,,,,,,,,,,,,,,,,,,,,,,,,,,,,,,,,0,3,3,3,1,,,,,,,,,,,,,,,,,,,,,,,,,,,,,,,,,,,,,,,,,,,,,,
279478,001,2022-11-21_24h20.40.927,Info_measure_main_exp,2022.2.2,Win32,59.48132286,,,,,,,,,,,,,,,,,,masks/mask_003.jpg,,,,,,,,,,,,,,,,,,,,,,,,,,,,,,,,,,,,,,,,,,,0,4,4,2,1,,,,,,,,,,,,,,,,,,,,,,,,,,,,,,,,,,,,,,,,,,,,,,
279478,001,2022-11-21_24h20.40.927,Info_measure_main_exp,2022.2.2,Win32,59.48132286,,,,,,,,,,,,,,,,,,masks/mask_002.jpg,,,,,,,,,,,,,,,,,,,,,,,,,,,,,,,,,,,,,,,,,,,,,,,,0,0,0,1,1,,,,,,,,,,,,,,,,,,,,,,,,,,,,,,,,,,,,,,,,,
279478,001,2022-11-21_24h20.40.927,Info_measure_main_exp,2022.2.2,Win32,59.48132286,,,,,,,,,,,,,,,,,,masks/mask_004.jpg,,,,,,,,,,,,,,,,,,,,,,,,,,,,,,,,,,,,,,,,,,,,,,,,0,1,1,3,1,,,,,,,,,,,,,,,,,,,,,,,,,,,,,,,,,,,,,,,,,
279478,001,2022-11-21_24h20.40.927,Info_measure_main_exp,2022.2.2,Win32,59.48132286,,,,,,,,,,,,,,,,,,masks/mask_001.jpg,,,,,,,,,,,,,,,,,,,,,,,,,,,,,,,,,,,,,,,,,,,,,,,,0,2,2,0,1,,,,,,,,,,,,,,,,,,,,,,,,,,,,,,,,,,,,,,,,,
279478,001,2022-11-21_24h20.40.927,Info_measure_main_exp,2022.2.2,Win32,59.48132286,,,,,,,,,,,,,,,,,,masks/mask_003.jpg,,,,,,,,,,,,,,,,,,,,,,,,,,,,,,,,,,,,,,,,,,,,,,,,0,3,3,2,1,,,,,,,,,,,,,,,,,,,,,,,,,,,,,,,,,,,,,,,,,
279478,001,2022-11-21_24h20.40.927,Info_measure_main_exp,2022.2.2,Win32,59.48132286,,,,,,,,,,,,,,,,,,masks/mask_005.jpg,,,,,,,,,,,,,,,,,,,,,,,,,,,,,,,,,,,,,,,,,,,,,,,,0,4,4,4,1,,,,,,,,,,,,,,,,,,,,,,,,,,,,,,,,,,,,,,,,,
279478,001,2022-11-21_24h20.40.927,Info_measure_main_exp,2022.2.2,Win32,59.48132286,,,,,,,,,,,,,,,,,,,,,,,,,,,,,,5,0.8178,1,,,,,,,,,,,,0,131,5,5,1974,2166,absent_patch/patch0001974.jpg,absent_patch/patch0002166.jpg,,,,,,,,,,,,,,,,,,,,0.100260417,-0.061197917,1,0,0,response3disk,33,-0.002604167,0.005208333,1,0,0,center_square,0,32,32,77,1,,,,,,,,,,,,,,,,,,,,,,,
279478,001,2022-11-21_24h20.40.927,Info_measure_main_exp,2022.2.2,Win32,59.48132286,,,,,,,,,,,,,,,,,,masks/mask_005.jpg,,,,,,,,,,,,,,,,,,,,,,,,,,,,,,,,,,,,,,,,,,,0,0,0,4,1,,,,,,,,,,,,,,,,,,,,,,,,,,,,,,,,,,,,,,,,,,,,,,
279478,001,2022-11-21_24h20.40.927,Info_measure_main_exp,2022.2.2,Win32,59.48132286,,,,,,,,,,,,,,,,,,masks/mask_004.jpg,,,,,,,,,,,,,,,,,,,,,,,,,,,,,,,,,,,,,,,,,,,0,1,1,3,1,,,,,,,,,,,,,,,,,,,,,,,,,,,,,,,,,,,,,,,,,,,,,,
279478,001,2022-11-21_24h20.40.927,Info_measure_main_exp,2022.2.2,Win32,59.48132286,,,,,,,,,,,,,,,,,,masks/mask_001.jpg,,,,,,,,,,,,,,,,,,,,,,,,,,,,,,,,,,,,,,,,,,,0,2,2,0,1,,,,,,,,,,,,,,,,,,,,,,,,,,,,,,,,,,,,,,,,,,,,,,
279478,001,2022-11-21_24h20.40.927,Info_measure_main_exp,2022.2.2,Win32,59.48132286,,,,,,,,,,,,,,,,,,masks/mask_003.jpg,,,,,,,,,,,,,,,,,,,,,,,,,,,,,,,,,,,,,,,,,,,0,3,3,2,1,,,,,,,,,,,,,,,,,,,,,,,,,,,,,,,,,,,,,,,,,,,,,,
279478,001,2022-11-21_24h20.40.927,Info_measure_main_exp,2022.2.2,Win32,59.48132286,,,,,,,,,,,,,,,,,,masks/mask_002.jpg,,,,,,,,,,,,,,,,,,,,,,,,,,,,,,,,,,,,,,,,,,,0,4,4,1,1,,,,,,,,,,,,,,,,,,,,,,,,,,,,,,,,,,,,,,,,,,,,,,
279478,001,2022-11-21_24h20.40.927,Info_measure_main_exp,2022.2.2,Win32,59.48132286,,,,,,,,,,,,,,,,,,masks/mask_001.jpg,,,,,,,,,,,,,,,,,,,,,,,,,,,,,,,,,,,,,,,,,,,,,,,,0,0,0,0,1,,,,,,,,,,,,,,,,,,,,,,,,,,,,,,,,,,,,,,,,,
279478,001,2022-11-21_24h20.40.927,Info_measure_main_exp,2022.2.2,Win32,59.48132286,,,,,,,,,,,,,,,,,,masks/mask_002.jpg,,,,,,,,,,,,,,,,,,,,,,,,,,,,,,,,,,,,,,,,,,,,,,,,0,1,1,1,1,,,,,,,,,,,,,,,,,,,,,,,,,,,,,,,,,,,,,,,,,
279478,001,2022-11-21_24h20.40.927,Info_measure_main_exp,2022.2.2,Win32,59.48132286,,,,,,,,,,,,,,,,,,masks/mask_003.jpg,,,,,,,,,,,,,,,,,,,,,,,,,,,,,,,,,,,,,,,,,,,,,,,,0,2,2,2,1,,,,,,,,,,,,,,,,,,,,,,,,,,,,,,,,,,,,,,,,,
279478,001,2022-11-21_24h20.40.927,Info_measure_main_exp,2022.2.2,Win32,59.48132286,,,,,,,,,,,,,,,,,,masks/mask_005.jpg,,,,,,,,,,,,,,,,,,,,,,,,,,,,,,,,,,,,,,,,,,,,,,,,0,3,3,4,1,,,,,,,,,,,,,,,,,,,,,,,,,,,,,,,,,,,,,,,,,
279478,001,2022-11-21_24h20.40.927,Info_measure_main_exp,2022.2.2,Win32,59.48132286,,,,,,,,,,,,,,,,,,masks/mask_004.jpg,,,,,,,,,,,,,,,,,,,,,,,,,,,,,,,,,,,,,,,,,,,,,,,,0,4,4,3,1,,,,,,,,,,,,,,,,,,,,,,,,,,,,,,,,,,,,,,,,,
279478,001,2022-11-21_24h20.40.927,Info_measure_main_exp,2022.2.2,Win32,59.48132286,,,,,,,,,,,,,,,,,,,,,,,,,,,,,,4,0.6851,1,,,,,,,,,,,,0,131,5,5,2142,2190,absent_patch/patch0002142.jpg,absent_patch/patch0002190.jpg,,,,,,,,,,,,,,,,,,,,0.048177083,-0.088541667,1,0,0,response3disk,34,-0.001302083,-0.0078125,1,0,0,center_square,0,33,33,70,1,,,,,,,,,,,,,,,,,,,,,,,
279478,001,2022-11-21_24h20.40.927,Info_measure_main_exp,2022.2.2,Win32,59.48132286,,,,,,,,,,,,,,,,,,masks/mask_004.jpg,,,,,,,,,,,,,,,,,,,,,,,,,,,,,,,,,,,,,,,,,,,0,0,0,3,1,,,,,,,,,,,,,,,,,,,,,,,,,,,,,,,,,,,,,,,,,,,,,,
279478,001,2022-11-21_24h20.40.927,Info_measure_main_exp,2022.2.2,Win32,59.48132286,,,,,,,,,,,,,,,,,,masks/mask_003.jpg,,,,,,,,,,,,,,,,,,,,,,,,,,,,,,,,,,,,,,,,,,,0,1,1,2,1,,,,,,,,,,,,,,,,,,,,,,,,,,,,,,,,,,,,,,,,,,,,,,
279478,001,2022-11-21_24h20.40.927,Info_measure_main_exp,2022.2.2,Win32,59.48132286,,,,,,,,,,,,,,,,,,masks/mask_005.jpg,,,,,,,,,,,,,,,,,,,,,,,,,,,,,,,,,,,,,,,,,,,0,2,2,4,1,,,,,,,,,,,,,,,,,,,,,,,,,,,,,,,,,,,,,,,,,,,,,,
279478,001,2022-11-21_24h20.40.927,Info_measure_main_exp,2022.2.2,Win32,59.48132286,,,,,,,,,,,,,,,,,,masks/mask_002.jpg,,,,,,,,,,,,,,,,,,,,,,,,,,,,,,,,,,,,,,,,,,,0,3,3,1,1,,,,,,,,,,,,,,,,,,,,,,,,,,,,,,,,,,,,,,,,,,,,,,
279478,001,2022-11-21_24h20.40.927,Info_measure_main_exp,2022.2.2,Win32,59.48132286,,,,,,,,,,,,,,,,,,masks/mask_001.jpg,,,,,,,,,,,,,,,,,,,,,,,,,,,,,,,,,,,,,,,,,,,0,4,4,0,1,,,,,,,,,,,,,,,,,,,,,,,,,,,,,,,,,,,,,,,,,,,,,,
279478,001,2022-11-21_24h20.40.927,Info_measure_main_exp,2022.2.2,Win32,59.48132286,,,,,,,,,,,,,,,,,,masks/mask_004.jpg,,,,,,,,,,,,,,,,,,,,,,,,,,,,,,,,,,,,,,,,,,,,,,,,0,0,0,3,1,,,,,,,,,,,,,,,,,,,,,,,,,,,,,,,,,,,,,,,,,
279478,001,2022-11-21_24h20.40.927,Info_measure_main_exp,2022.2.2,Win32,59.48132286,,,,,,,,,,,,,,,,,,masks/mask_005.jpg,,,,,,,,,,,,,,,,,,,,,,,,,,,,,,,,,,,,,,,,,,,,,,,,0,1,1,4,1,,,,,,,,,,,,,,,,,,,,,,,,,,,,,,,,,,,,,,,,,
279478,001,2022-11-21_24h20.40.927,Info_measure_main_exp,2022.2.2,Win32,59.48132286,,,,,,,,,,,,,,,,,,masks/mask_001.jpg,,,,,,,,,,,,,,,,,,,,,,,,,,,,,,,,,,,,,,,,,,,,,,,,0,2,2,0,1,,,,,,,,,,,,,,,,,,,,,,,,,,,,,,,,,,,,,,,,,
279478,001,2022-11-21_24h20.40.927,Info_measure_main_exp,2022.2.2,Win32,59.48132286,,,,,,,,,,,,,,,,,,masks/mask_003.jpg,,,,,,,,,,,,,,,,,,,,,,,,,,,,,,,,,,,,,,,,,,,,,,,,0,3,3,2,1,,,,,,,,,,,,,,,,,,,,,,,,,,,,,,,,,,,,,,,,,
