participant,session,date,expName,psychopyVersion,OS,frameRate,space_press_continue.keys,space_press_continue.rt,space_press_continue_2.keys,space_press_continue_2.rt,space_press_continue_3.keys,space_press_continue_3.rt,space_press_continue_4.keys,space_press_continue_4.rt,space_press_continue_5.keys,space_press_continue_5.rt,space_press_continue_6.keys,space_press_continue_6.rt,prac_mask_loop_1.thisRepN,prac_mask_loop_1.thisTrialN,prac_mask_loop_1.thisN,prac_mask_loop_1.thisIndex,prac_mask_loop_1.ran,mask_name,prac_mask_loop_2.thisRepN,prac_mask_loop_2.thisTrialN,prac_mask_loop_2.thisN,prac_mask_loop_2.thisIndex,prac_mask_loop_2.ran,mouse_2.x,mouse_2.y,mouse_2.leftButton,mouse_2.midButton,mouse_2.rightButton,mouse_2.clicked_name,similarity,response_time,Pass,mouse_12.x,mouse_12.y,mouse_12.leftButton,mouse_12.midButton,mouse_12.rightButton,mouse_12.clicked_name,prac_loop.thisRepN,prac_loop.thisTrialN,prac_loop.thisN,prac_loop.thisIndex,prac_loop.ran,Pair_type,Image_num,Patch_1_loc,Patch_2_loc,Patch_1_info,Patch_2_info,Patch_1_name,Patch_2_name,mouse_1.x,mouse_1.y,mouse_1.leftButton,mouse_1.midButton,mouse_1.rightButton,mouse_1.time,mouse_1.clicked_name,space_press_continue_7.keys,space_press_continue_7.rt,mask_loop.thisRepN,mask_loop.thisTrialN,mask_loop.thisN,mask_loop.thisIndex,mask_loop.ran,mask_loop_2.thisRepN,mask_loop_2.thisTrialN,mask_loop_2.thisN,mask_loop_2.thisIndex,mask_loop_2.ran,mouse.x,mouse.y,mouse.leftButton,mouse.midButton,mouse.rightButton,mouse.clicked_name,trialNumber,mouse_11.x,mouse_11.y,mouse_11.leftButton,mouse_11.midButton,mouse_11.rightButton,mouse_11.clicked_name,first_pass_loop.thisRepN,first_pass_loop.thisTrialN,first_pass_loop.thisN,first_pass_loop.thisIndex,first_pass_loop.ran,mask_loop_3.thisRepN,mask_loop_3.thisTrialN,mask_loop_3.thisN,mask_loop_3.thisIndex,mask_loop_3.ran,mask_loop_4.thisRepN,mask_loop_4.thisTrialN,mask_loop_4.thisN,mask_loop_4.thisIndex,mask_loop_4.ran,mouse_3.x,mouse_3.y,mouse_3.leftButton,mouse_3.midButton,mouse_3.rightButton,mouse_3.clicked_name,double_pass_loop.thisRepN,double_pass_loop.thisTrialN,double_pass_loop.thisN,double_pass_loop.thisIndex,double_pass_loop.ran,space_exit.keys,space_exit.rt
280973,001,2022-11-21_24h58.50.385,Info_measure_main_exp,2022.2.2,Win32,60.56935191,,,,,,,,,,,,,,,,,,,,,,,,,,,,,,,,,,,,,,,,,,,,,,,,,,,,,,,,,,,,,,,,,,,,,,,,,,,,,,,,,,,,,,,,,,,,,,,,,,,,,,,,,,,,,,,
280973,001,2022-11-21_24h58.50.385,Info_measure_main_exp,2022.2.2,Win32,60.56935191,,,,,,,,,,,,,,,,,,,,,,,,,,,,,,,,,,,,,,,,,,,,,,,,,,,,,,,,,,,,,,,,,,,,,,,,,,,,,,,,,,,,,,,,,,,,,,,,,,,,,,,,,,,,,,,
280973,001,2022-11-21_24h58.50.385,Info_measure_main_exp,2022.2.2,Win32,60.56935191,space,6.6532,,,,,,,,,,,,,,,,,,,,,,,,,,,,,,,,,,,,,,,,,,,,,,,,,,,,,,,,,,,,,,,,,,,,,,,,,,,,,,,,,,,,,,,,,,,,,,,,,,,,,,,,,,,,,
280973,001,2022-11-21_24h58.50.385,Info_measure_main_exp,2022.2.2,Win32,60.56935191,,,space,15.4633,,,,,,,,,,,,,,,,,,,,,,,,,,,,,,,,,,,,,,,,,,,,,,,,,,,,,,,,,,,,,,,,,,,,,,,,,,,,,,,,,,,,,,,,,,,,,,,,,,,,,,,,,,,
280973,001,2022-11-21_24h58.50.385,Info_measure_main_exp,2022.2.2,Win32,60.56935191,,,,,space,10.9624,,,,,,,,,,,,,,,,,,,,,,,,,,,,,,,,,,,,,,,,,,,,,,,,,,,,,,,,,,,,,,,,,,,,,,,,,,,,,,,,,,,,,,,,,,,,,,,,,,,,,,,,,
280973,001,2022-11-21_24h58.50.385,Info_measure_main_exp,2022.2.2,Win32,60.56935191,,,,,,,space,25.0298,,,,,,,,,,,,,,,,,,,,,,,,,,,,,,,,,,,,,,,,,,,,,,,,,,,,,,,,,,,,,,,,,,,,,,,,,,,,,,,,,,,,,,,,,,,,,,,,,,,,,,,
280973,001,2022-11-21_24h58.50.385,Info_measure_main_exp,2022.2.2,Win32,60.56935191,,,,,,,,,space,7.7295,,,,,,,,,,,,,,,,,,,,,,,,,,,,,,,,,,,,,,,,,,,,,,,,,,,,,,,,,,,,,,,,,,,,,,,,,,,,,,,,,,,,,,,,,,,,,,,,,,,,,
280973,001,2022-11-21_24h58.50.385,Info_measure_main_exp,2022.2.2,Win32,60.56935191,,,,,,,,,,,space,17.7493,,,,,,,,,,,,,,,,,,,,,,,,,,,,,,,,,,,,,,,,,,,,,,,,,,,,,,,,,,,,,,,,,,,,,,,,,,,,,,,,,,,,,,,,,,,,,,,,,,,
280973,001,2022-11-21_24h58.50.385,Info_measure_main_exp,2022.2.2,Win32,60.56935191,,,,,,,,,,,,,0,0,0,3,1,masks/mask_004.jpg,,,,,,,,,,,,,,,,,,,,,,,,,,,,,,,,,,,,,,,,,,,,,,,,,,,,,,,,,,,,,,,,,,,,,,,,,,,,,,,,,,,,,,,,,,,,,
280973,001,2022-11-21_24h58.50.385,Info_measure_main_exp,2022.2.2,Win32,60.56935191,,,,,,,,,,,,,0,1,1,1,1,masks/mask_002.jpg,,,,,,,,,,,,,,,,,,,,,,,,,,,,,,,,,,,,,,,,,,,,,,,,,,,,,,,,,,,,,,,,,,,,,,,,,,,,,,,,,,,,,,,,,,,,,
280973,001,2022-11-21_24h58.50.385,Info_measure_main_exp,2022.2.2,Win32,60.56935191,,,,,,,,,,,,,0,2,2,0,1,masks/mask_001.jpg,,,,,,,,,,,,,,,,,,,,,,,,,,,,,,,,,,,,,,,,,,,,,,,,,,,,,,,,,,,,,,,,,,,,,,,,,,,,,,,,,,,,,,,,,,,,,
280973,001,2022-11-21_24h58.50.385,Info_measure_main_exp,2022.2.2,Win32,60.56935191,,,,,,,,,,,,,0,3,3,2,1,masks/mask_003.jpg,,,,,,,,,,,,,,,,,,,,,,,,,,,,,,,,,,,,,,,,,,,,,,,,,,,,,,,,,,,,,,,,,,,,,,,,,,,,,,,,,,,,,,,,,,,,,
280973,001,2022-11-21_24h58.50.385,Info_measure_main_exp,2022.2.2,Win32,60.56935191,,,,,,,,,,,,,0,4,4,4,1,masks/mask_005.jpg,,,,,,,,,,,,,,,,,,,,,,,,,,,,,,,,,,,,,,,,,,,,,,,,,,,,,,,,,,,,,,,,,,,,,,,,,,,,,,,,,,,,,,,,,,,,,
280973,001,2022-11-21_24h58.50.385,Info_measure_main_exp,2022.2.2,Win32,60.56935191,,,,,,,,,,,,,,,,,,masks/mask_003.jpg,0,0,0,2,1,,,,,,,,,,,,,,,,,,,,,,,,,,,,,,,,,,,,,,,,,,,,,,,,,,,,,,,,,,,,,,,,,,,,,,,,,,,,,,,,,,,,,,,,
280973,001,2022-11-21_24h58.50.385,Info_measure_main_exp,2022.2.2,Win32,60.56935191,,,,,,,,,,,,,,,,,,masks/mask_001.jpg,0,1,1,0,1,,,,,,,,,,,,,,,,,,,,,,,,,,,,,,,,,,,,,,,,,,,,,,,,,,,,,,,,,,,,,,,,,,,,,,,,,,,,,,,,,,,,,,,,
280973,001,2022-11-21_24h58.50.385,Info_measure_main_exp,2022.2.2,Win32,60.56935191,,,,,,,,,,,,,,,,,,masks/mask_004.jpg,0,2,2,3,1,,,,,,,,,,,,,,,,,,,,,,,,,,,,,,,,,,,,,,,,,,,,,,,,,,,,,,,,,,,,,,,,,,,,,,,,,,,,,,,,,,,,,,,,
280973,001,2022-11-21_24h58.50.385,Info_measure_main_exp,2022.2.2,Win32,60.56935191,,,,,,,,,,,,,,,,,,masks/mask_002.jpg,0,3,3,1,1,,,,,,,,,,,,,,,,,,,,,,,,,,,,,,,,,,,,,,,,,,,,,,,,,,,,,,,,,,,,,,,,,,,,,,,,,,,,,,,,,,,,,,,,
280973,001,2022-11-21_24h58.50.385,Info_measure_main_exp,2022.2.2,Win32,60.56935191,,,,,,,,,,,,,,,,,,masks/mask_005.jpg,0,4,4,4,1,,,,,,,,,,,,,,,,,,,,,,,,,,,,,,,,,,,,,,,,,,,,,,,,,,,,,,,,,,,,,,,,,,,,,,,,,,,,,,,,,,,,,,,,
280973,001,2022-11-21_24h58.50.385,Info_measure_main_exp,2022.2.2,Win32,60.56935191,,,,,,,,,,,,,,,,,,,,,,,,0.049074131,0.201851845,1,0,0,response1disk,7,90.2605,1,-0.000925869,0.006481467,1,0,0,center_square,0,0,0,2,1,0,131,5,5,2526,2526,prac_patch/patch0002526.jpg,prac_patch/patch0002526.jpg,,,,,,,,,,,,,,,,,,,,,,,,,,,,,,,,,,,,,,,,,,,,,,,,,,,,,,,,,,,,
280973,001,2022-11-21_24h58.50.385,Info_measure_main_exp,2022.2.2,Win32,60.56935191,,,,,,,,,,,,,0,0,0,1,1,masks/mask_002.jpg,,,,,,,,,,,,,,,,,,,,,,,,,,,,,,,,,,,,,,,,,,,,,,,,,,,,,,,,,,,,,,,,,,,,,,,,,,,,,,,,,,,,,,,,,,,,,
280973,001,2022-11-21_24h58.50.385,Info_measure_main_exp,2022.2.2,Win32,60.56935191,,,,,,,,,,,,,0,1,1,2,1,masks/mask_003.jpg,,,,,,,,,,,,,,,,,,,,,,,,,,,,,,,,,,,,,,,,,,,,,,,,,,,,,,,,,,,,,,,,,,,,,,,,,,,,,,,,,,,,,,,,,,,,,
280973,001,2022-11-21_24h58.50.385,Info_measure_main_exp,2022.2.2,Win32,60.56935191,,,,,,,,,,,,,0,2,2,3,1,masks/mask_004.jpg,,,,,,,,,,,,,,,,,,,,,,,,,,,,,,,,,,,,,,,,,,,,,,,,,,,,,,,,,,,,,,,,,,,,,,,,,,,,,,,,,,,,,,,,,,,,,
280973,001,2022-11-21_24h58.50.385,Info_measure_main_exp,2022.2.2,Win32,60.56935191,,,,,,,,,,,,,0,3,3,4,1,masks/mask_005.jpg,,,,,,,,,,,,,,,,,,,,,,,,,,,,,,,,,,,,,,,,,,,,,,,,,,,,,,,,,,,,,,,,,,,,,,,,,,,,,,,,,,,,,,,,,,,,,
280973,001,2022-11-21_24h58.50.385,Info_measure_main_exp,2022.2.2,Win32,60.56935191,,,,,,,,,,,,,0,4,4,0,1,masks/mask_001.jpg,,,,,,,,,,,,,,,,,,,,,,,,,,,,,,,,,,,,,,,,,,,,,,,,,,,,,,,,,,,,,,,,,,,,,,,,,,,,,,,,,,,,,,,,,,,,,
280973,001,2022-11-21_24h58.50.385,Info_measure_main_exp,2022.2.2,Win32,60.56935191,,,,,,,,,,,,,,,,,,masks/mask_002.jpg,0,0,0,1,1,,,,,,,,,,,,,,,,,,,,,,,,,,,,,,,,,,,,,,,,,,,,,,,,,,,,,,,,,,,,,,,,,,,,,,,,,,,,,,,,,,,,,,,,
280973,001,2022-11-21_24h58.50.385,Info_measure_main_exp,2022.2.2,Win32,60.56935191,,,,,,,,,,,,,,,,,,masks/mask_001.jpg,0,1,1,0,1,,,,,,,,,,,,,,,,,,,,,,,,,,,,,,,,,,,,,,,,,,,,,,,,,,,,,,,,,,,,,,,,,,,,,,,,,,,,,,,,,,,,,,,,
280973,001,2022-11-21_24h58.50.385,Info_measure_main_exp,2022.2.2,Win32,60.56935191,,,,,,,,,,,,,,,,,,masks/mask_004.jpg,0,2,2,3,1,,,,,,,,,,,,,,,,,,,,,,,,,,,,,,,,,,,,,,,,,,,,,,,,,,,,,,,,,,,,,,,,,,,,,,,,,,,,,,,,,,,,,,,,
280973,001,2022-11-21_24h58.50.385,Info_measure_main_exp,2022.2.2,Win32,60.56935191,,,,,,,,,,,,,,,,,,masks/mask_003.jpg,0,3,3,2,1,,,,,,,,,,,,,,,,,,,,,,,,,,,,,,,,,,,,,,,,,,,,,,,,,,,,,,,,,,,,,,,,,,,,,,,,,,,,,,,,,,,,,,,,
280973,001,2022-11-21_24h58.50.385,Info_measure_main_exp,2022.2.2,Win32,60.56935191,,,,,,,,,,,,,,,,,,masks/mask_005.jpg,0,4,4,4,1,,,,,,,,,,,,,,,,,,,,,,,,,,,,,,,,,,,,,,,,,,,,,,,,,,,,,,,,,,,,,,,,,,,,,,,,,,,,,,,,,,,,,,,,
280973,001,2022-11-21_24h58.50.385,Info_measure_main_exp,2022.2.2,Win32,60.56935191,,,,,,,,,,,,,,,,,,,,,,,,0.025925954,-0.113888889,1,0,0,response3disk,4,108.9031,1,0.002777778,0.002777778,1,0,0,center_square,0,1,1,0,1,0,131,5,5,2370,2406,prac_patch/patch0002370.jpg,prac_patch/patch0002406.jpg,,,,,,,,,,,,,,,,,,,,,,,,,,,,,,,,,,,,,,,,,,,,,,,,,,,,,,,,,,,,
280973,001,2022-11-21_24h58.50.385,Info_measure_main_exp,2022.2.2,Win32,60.56935191,,,,,,,,,,,,,0,0,0,3,1,masks/mask_004.jpg,,,,,,,,,,,,,,,,,,,,,,,,,,,,,,,,,,,,,,,,,,,,,,,,,,,,,,,,,,,,,,,,,,,,,,,,,,,,,,,,,,,,,,,,,,,,,
280973,001,2022-11-21_24h58.50.385,Info_measure_main_exp,2022.2.2,Win32,60.56935191,,,,,,,,,,,,,0,1,1,1,1,masks/mask_002.jpg,,,,,,,,,,,,,,,,,,,,,,,,,,,,,,,,,,,,,,,,,,,,,,,,,,,,,,,,,,,,,,,,,,,,,,,,,,,,,,,,,,,,,,,,,,,,,
280973,001,2022-11-21_24h58.50.385,Info_measure_main_exp,2022.2.2,Win32,60.56935191,,,,,,,,,,,,,0,2,2,2,1,masks/mask_003.jpg,,,,,,,,,,,,,,,,,,,,,,,,,,,,,,,,,,,,,,,,,,,,,,,,,,,,,,,,,,,,,,,,,,,,,,,,,,,,,,,,,,,,,,,,,,,,,
280973,001,2022-11-21_24h58.50.385,Info_measure_main_exp,2022.2.2,Win32,60.56935191,,,,,,,,,,,,,0,3,3,4,1,masks/mask_005.jpg,,,,,,,,,,,,,,,,,,,,,,,,,,,,,,,,,,,,,,,,,,,,,,,,,,,,,,,,,,,,,,,,,,,,,,,,,,,,,,,,,,,,,,,,,,,,,
280973,001,2022-11-21_24h58.50.385,Info_measure_main_exp,2022.2.2,Win32,60.56935191,,,,,,,,,,,,,0,4,4,0,1,masks/mask_001.jpg,,,,,,,,,,,,,,,,,,,,,,,,,,,,,,,,,,,,,,,,,,,,,,,,,,,,,,,,,,,,,,,,,,,,,,,,,,,,,,,,,,,,,,,,,,,,,
280973,001,2022-11-21_24h58.50.385,Info_measure_main_exp,2022.2.2,Win32,60.56935191,,,,,,,,,,,,,,,,,,masks/mask_004.jpg,0,0,0,3,1,,,,,,,,,,,,,,,,,,,,,,,,,,,,,,,,,,,,,,,,,,,,,,,,,,,,,,,,,,,,,,,,,,,,,,,,,,,,,,,,,,,,,,,,
280973,001,2022-11-21_24h58.50.385,Info_measure_main_exp,2022.2.2,Win32,60.56935191,,,,,,,,,,,,,,,,,,masks/mask_001.jpg,0,1,1,0,1,,,,,,,,,,,,,,,,,,,,,,,,,,,,,,,,,,,,,,,,,,,,,,,,,,,,,,,,,,,,,,,,,,,,,,,,,,,,,,,,,,,,,,,,
280973,001,2022-11-21_24h58.50.385,Info_measure_main_exp,2022.2.2,Win32,60.56935191,,,,,,,,,,,,,,,,,,masks/mask_002.jpg,0,2,2,1,1,,,,,,,,,,,,,,,,,,,,,,,,,,,,,,,,,,,,,,,,,,,,,,,,,,,,,,,,,,,,,,,,,,,,,,,,,,,,,,,,,,,,,,,,
280973,001,2022-11-21_24h58.50.385,Info_measure_main_exp,2022.2.2,Win32,60.56935191,,,,,,,,,,,,,,,,,,masks/mask_005.jpg,0,3,3,4,1,,,,,,,,,,,,,,,,,,,,,,,,,,,,,,,,,,,,,,,,,,,,,,,,,,,,,,,,,,,,,,,,,,,,,,,,,,,,,,,,,,,,,,,,
280973,001,2022-11-21_24h58.50.385,Info_measure_main_exp,2022.2.2,Win32,60.56935191,,,,,,,,,,,,,,,,,,masks/mask_003.jpg,0,4,4,2,1,,,,,,,,,,,,,,,,,,,,,,,,,,,,,,,,,,,,,,,,,,,,,,,,,,,,,,,,,,,,,,,,,,,,,,,,,,,,,,,,,,,,,,,,
280973,001,2022-11-21_24h58.50.385,Info_measure_main_exp,2022.2.2,Win32,60.56935191,,,,,,,,,,,,,,,,,,,,,,,,0.034259288,-0.125925954,1,0,0,response3disk,4,119.1589,1,0.002777778,-0.007407422,1,0,0,center_square,0,2,2,1,1,0,131,5,5,2514,2490,prac_patch/patch0002514.jpg,prac_patch/patch0002490.jpg,,,,,,,,,,,,,,,,,,,,,,,,,,,,,,,,,,,,,,,,,,,,,,,,,,,,,,,,,,,,
280973,001,2022-11-21_24h58.50.385,Info_measure_main_exp,2022.2.2,Win32,60.56935191,,,,,,,,,,,,,,,,,,,,,,,,,,,,,,,,,,,,,,,,,,,,,,,,,,,,,,,,,,,space,2.5327,,,,,,,,,,,,,,,,,,,,,,,,,,,,,,,,,,,,,,,,,,,,,,,,,,,
280973,001,2022-11-21_24h58.50.385,Info_measure_main_exp,2022.2.2,Win32,60.56935191,,,,,,,,,,,,,,,,,,masks/mask_003.jpg,,,,,,,,,,,,,,,,,,,,,,,,,,,,,,,,,,,,,,,,,,,0,0,0,2,1,,,,,,,,,,,,,,,,,,,,,,,,,,,,,,,,,,,,,,,,,,,,,,
280973,001,2022-11-21_24h58.50.385,Info_measure_main_exp,2022.2.2,Win32,60.56935191,,,,,,,,,,,,,,,,,,masks/mask_001.jpg,,,,,,,,,,,,,,,,,,,,,,,,,,,,,,,,,,,,,,,,,,,0,1,1,0,1,,,,,,,,,,,,,,,,,,,,,,,,,,,,,,,,,,,,,,,,,,,,,,
280973,001,2022-11-21_24h58.50.385,Info_measure_main_exp,2022.2.2,Win32,60.56935191,,,,,,,,,,,,,,,,,,masks/mask_002.jpg,,,,,,,,,,,,,,,,,,,,,,,,,,,,,,,,,,,,,,,,,,,0,2,2,1,1,,,,,,,,,,,,,,,,,,,,,,,,,,,,,,,,,,,,,,,,,,,,,,
280973,001,2022-11-21_24h58.50.385,Info_measure_main_exp,2022.2.2,Win32,60.56935191,,,,,,,,,,,,,,,,,,masks/mask_004.jpg,,,,,,,,,,,,,,,,,,,,,,,,,,,,,,,,,,,,,,,,,,,0,3,3,3,1,,,,,,,,,,,,,,,,,,,,,,,,,,,,,,,,,,,,,,,,,,,,,,
280973,001,2022-11-21_24h58.50.385,Info_measure_main_exp,2022.2.2,Win32,60.56935191,,,,,,,,,,,,,,,,,,masks/mask_005.jpg,,,,,,,,,,,,,,,,,,,,,,,,,,,,,,,,,,,,,,,,,,,0,4,4,4,1,,,,,,,,,,,,,,,,,,,,,,,,,,,,,,,,,,,,,,,,,,,,,,
280973,001,2022-11-21_24h58.50.385,Info_measure_main_exp,2022.2.2,Win32,60.56935191,,,,,,,,,,,,,,,,,,masks/mask_002.jpg,,,,,,,,,,,,,,,,,,,,,,,,,,,,,,,,,,,,,,,,,,,,,,,,0,0,0,1,1,,,,,,,,,,,,,,,,,,,,,,,,,,,,,,,,,,,,,,,,,
280973,001,2022-11-21_24h58.50.385,Info_measure_main_exp,2022.2.2,Win32,60.56935191,,,,,,,,,,,,,,,,,,masks/mask_004.jpg,,,,,,,,,,,,,,,,,,,,,,,,,,,,,,,,,,,,,,,,,,,,,,,,0,1,1,3,1,,,,,,,,,,,,,,,,,,,,,,,,,,,,,,,,,,,,,,,,,
280973,001,2022-11-21_24h58.50.385,Info_measure_main_exp,2022.2.2,Win32,60.56935191,,,,,,,,,,,,,,,,,,masks/mask_005.jpg,,,,,,,,,,,,,,,,,,,,,,,,,,,,,,,,,,,,,,,,,,,,,,,,0,2,2,4,1,,,,,,,,,,,,,,,,,,,,,,,,,,,,,,,,,,,,,,,,,
280973,001,2022-11-21_24h58.50.385,Info_measure_main_exp,2022.2.2,Win32,60.56935191,,,,,,,,,,,,,,,,,,masks/mask_003.jpg,,,,,,,,,,,,,,,,,,,,,,,,,,,,,,,,,,,,,,,,,,,,,,,,0,3,3,2,1,,,,,,,,,,,,,,,,,,,,,,,,,,,,,,,,,,,,,,,,,
280973,001,2022-11-21_24h58.50.385,Info_measure_main_exp,2022.2.2,Win32,60.56935191,,,,,,,,,,,,,,,,,,masks/mask_001.jpg,,,,,,,,,,,,,,,,,,,,,,,,,,,,,,,,,,,,,,,,,,,,,,,,0,4,4,0,1,,,,,,,,,,,,,,,,,,,,,,,,,,,,,,,,,,,,,,,,,
280973,001,2022-11-21_24h58.50.385,Info_measure_main_exp,2022.2.2,Win32,60.56935191,,,,,,,,,,,,,,,,,,,,,,,,,,,,,,7,3.197,1,,,,,,,,,,,,0,131,5,5,2274,2274,absent_patch/patch0002274.jpg,absent_patch/patch0002274.jpg,,,,,,,,,,,,,,,,,,,,0.035185242,0.125,1,0,0,response1disk,1,0.001851908,-0.002777778,1,0,0,center_square,0,0,0,114,1,,,,,,,,,,,,,,,,,,,,,,,
280973,001,2022-11-21_24h58.50.385,Info_measure_main_exp,2022.2.2,Win32,60.56935191,,,,,,,,,,,,,,,,,,masks/mask_002.jpg,,,,,,,,,,,,,,,,,,,,,,,,,,,,,,,,,,,,,,,,,,,0,0,0,1,1,,,,,,,,,,,,,,,,,,,,,,,,,,,,,,,,,,,,,,,,,,,,,,
280973,001,2022-11-21_24h58.50.385,Info_measure_main_exp,2022.2.2,Win32,60.56935191,,,,,,,,,,,,,,,,,,masks/mask_001.jpg,,,,,,,,,,,,,,,,,,,,,,,,,,,,,,,,,,,,,,,,,,,0,1,1,0,1,,,,,,,,,,,,,,,,,,,,,,,,,,,,,,,,,,,,,,,,,,,,,,
280973,001,2022-11-21_24h58.50.385,Info_measure_main_exp,2022.2.2,Win32,60.56935191,,,,,,,,,,,,,,,,,,masks/mask_003.jpg,,,,,,,,,,,,,,,,,,,,,,,,,,,,,,,,,,,,,,,,,,,0,2,2,2,1,,,,,,,,,,,,,,,,,,,,,,,,,,,,,,,,,,,,,,,,,,,,,,
280973,001,2022-11-21_24h58.50.385,Info_measure_main_exp,2022.2.2,Win32,60.56935191,,,,,,,,,,,,,,,,,,masks/mask_004.jpg,,,,,,,,,,,,,,,,,,,,,,,,,,,,,,,,,,,,,,,,,,,0,3,3,3,1,,,,,,,,,,,,,,,,,,,,,,,,,,,,,,,,,,,,,,,,,,,,,,
280973,001,2022-11-21_24h58.50.385,Info_measure_main_exp,2022.2.2,Win32,60.56935191,,,,,,,,,,,,,,,,,,masks/mask_005.jpg,,,,,,,,,,,,,,,,,,,,,,,,,,,,,,,,,,,,,,,,,,,0,4,4,4,1,,,,,,,,,,,,,,,,,,,,,,,,,,,,,,,,,,,,,,,,,,,,,,
280973,001,2022-11-21_24h58.50.385,Info_measure_main_exp,2022.2.2,Win32,60.56935191,,,,,,,,,,,,,,,,,,masks/mask_001.jpg,,,,,,,,,,,,,,,,,,,,,,,,,,,,,,,,,,,,,,,,,,,,,,,,0,0,0,0,1,,,,,,,,,,,,,,,,,,,,,,,,,,,,,,,,,,,,,,,,,
280973,001,2022-11-21_24h58.50.385,Info_measure_main_exp,2022.2.2,Win32,60.56935191,,,,,,,,,,,,,,,,,,masks/mask_002.jpg,,,,,,,,,,,,,,,,,,,,,,,,,,,,,,,,,,,,,,,,,,,,,,,,0,1,1,1,1,,,,,,,,,,,,,,,,,,,,,,,,,,,,,,,,,,,,,,,,,
280973,001,2022-11-21_24h58.50.385,Info_measure_main_exp,2022.2.2,Win32,60.56935191,,,,,,,,,,,,,,,,,,masks/mask_005.jpg,,,,,,,,,,,,,,,,,,,,,,,,,,,,,,,,,,,,,,,,,,,,,,,,0,2,2,4,1,,,,,,,,,,,,,,,,,,,,,,,,,,,,,,,,,,,,,,,,,
280973,001,2022-11-21_24h58.50.385,Info_measure_main_exp,2022.2.2,Win32,60.56935191,,,,,,,,,,,,,,,,,,masks/mask_004.jpg,,,,,,,,,,,,,,,,,,,,,,,,,,,,,,,,,,,,,,,,,,,,,,,,0,3,3,3,1,,,,,,,,,,,,,,,,,,,,,,,,,,,,,,,,,,,,,,,,,
280973,001,2022-11-21_24h58.50.385,Info_measure_main_exp,2022.2.2,Win32,60.56935191,,,,,,,,,,,,,,,,,,masks/mask_003.jpg,,,,,,,,,,,,,,,,,,,,,,,,,,,,,,,,,,,,,,,,,,,,,,,,0,4,4,2,1,,,,,,,,,,,,,,,,,,,,,,,,,,,,,,,,,,,,,,,,,
280973,001,2022-11-21_24h58.50.385,Info_measure_main_exp,2022.2.2,Win32,60.56935191,,,,,,,,,,,,,,,,,,,,,,,,,,,,,,5,1.8985,1,,,,,,,,,,,,0,131,5,5,2190,1950,absent_patch/patch0002190.jpg,absent_patch/patch0001950.jpg,,,,,,,,,,,,,,,,,,,,0.139814843,-0.075925954,1,0,0,response3disk,2,0.008333333,0.011111111,1,0,0,center_square,0,1,1,73,1,,,,,,,,,,,,,,,,,,,,,,,
280973,001,2022-11-21_24h58.50.385,Info_measure_main_exp,2022.2.2,Win32,60.56935191,,,,,,,,,,,,,,,,,,masks/mask_002.jpg,,,,,,,,,,,,,,,,,,,,,,,,,,,,,,,,,,,,,,,,,,,0,0,0,1,1,,,,,,,,,,,,,,,,,,,,,,,,,,,,,,,,,,,,,,,,,,,,,,
280973,001,2022-11-21_24h58.50.385,Info_measure_main_exp,2022.2.2,Win32,60.56935191,,,,,,,,,,,,,,,,,,masks/mask_003.jpg,,,,,,,,,,,,,,,,,,,,,,,,,,,,,,,,,,,,,,,,,,,0,1,1,2,1,,,,,,,,,,,,,,,,,,,,,,,,,,,,,,,,,,,,,,,,,,,,,,
280973,001,2022-11-21_24h58.50.385,Info_measure_main_exp,2022.2.2,Win32,60.56935191,,,,,,,,,,,,,,,,,,masks/mask_001.jpg,,,,,,,,,,,,,,,,,,,,,,,,,,,,,,,,,,,,,,,,,,,0,2,2,0,1,,,,,,,,,,,,,,,,,,,,,,,,,,,,,,,,,,,,,,,,,,,,,,
280973,001,2022-11-21_24h58.50.385,Info_measure_main_exp,2022.2.2,Win32,60.56935191,,,,,,,,,,,,,,,,,,masks/mask_004.jpg,,,,,,,,,,,,,,,,,,,,,,,,,,,,,,,,,,,,,,,,,,,0,3,3,3,1,,,,,,,,,,,,,,,,,,,,,,,,,,,,,,,,,,,,,,,,,,,,,,
280973,001,2022-11-21_24h58.50.385,Info_measure_main_exp,2022.2.2,Win32,60.56935191,,,,,,,,,,,,,,,,,,masks/mask_005.jpg,,,,,,,,,,,,,,,,,,,,,,,,,,,,,,,,,,,,,,,,,,,0,4,4,4,1,,,,,,,,,,,,,,,,,,,,,,,,,,,,,,,,,,,,,,,,,,,,,,
280973,001,2022-11-21_24h58.50.385,Info_measure_main_exp,2022.2.2,Win32,60.56935191,,,,,,,,,,,,,,,,,,masks/mask_004.jpg,,,,,,,,,,,,,,,,,,,,,,,,,,,,,,,,,,,,,,,,,,,,,,,,0,0,0,3,1,,,,,,,,,,,,,,,,,,,,,,,,,,,,,,,,,,,,,,,,,
280973,001,2022-11-21_24h58.50.385,Info_measure_main_exp,2022.2.2,Win32,60.56935191,,,,,,,,,,,,,,,,,,masks/mask_002.jpg,,,,,,,,,,,,,,,,,,,,,,,,,,,,,,,,,,,,,,,,,,,,,,,,0,1,1,1,1,,,,,,,,,,,,,,,,,,,,,,,,,,,,,,,,,,,,,,,,,
280973,001,2022-11-21_24h58.50.385,Info_measure_main_exp,2022.2.2,Win32,60.56935191,,,,,,,,,,,,,,,,,,masks/mask_001.jpg,,,,,,,,,,,,,,,,,,,,,,,,,,,,,,,,,,,,,,,,,,,,,,,,0,2,2,0,1,,,,,,,,,,,,,,,,,,,,,,,,,,,,,,,,,,,,,,,,,
280973,001,2022-11-21_24h58.50.385,Info_measure_main_exp,2022.2.2,Win32,60.56935191,,,,,,,,,,,,,,,,,,masks/mask_003.jpg,,,,,,,,,,,,,,,,,,,,,,,,,,,,,,,,,,,,,,,,,,,,,,,,0,3,3,2,1,,,,,,,,,,,,,,,,,,,,,,,,,,,,,,,,,,,,,,,,,
280973,001,2022-11-21_24h58.50.385,Info_measure_main_exp,2022.2.2,Win32,60.56935191,,,,,,,,,,,,,,,,,,masks/mask_005.jpg,,,,,,,,,,,,,,,,,,,,,,,,,,,,,,,,,,,,,,,,,,,,,,,,0,4,4,4,1,,,,,,,,,,,,,,,,,,,,,,,,,,,,,,,,,,,,,,,,,
280973,001,2022-11-21_24h58.50.385,Info_measure_main_exp,2022.2.2,Win32,60.56935191,,,,,,,,,,,,,,,,,,,,,,,,,,,,,,7,1.8983,1,,,,,,,,,,,,0,131,5,5,2274,1950,absent_patch/patch0002274.jpg,absent_patch/patch0001950.jpg,,,,,,,,,,,,,,,,,,,,0.043518575,0.144444444,1,0,0,response1disk,3,-0.006481425,0.005555556,1,0,0,center_square,0,2,2,10,1,,,,,,,,,,,,,,,,,,,,,,,
280973,001,2022-11-21_24h58.50.385,Info_measure_main_exp,2022.2.2,Win32,60.56935191,,,,,,,,,,,,,,,,,,masks/mask_005.jpg,,,,,,,,,,,,,,,,,,,,,,,,,,,,,,,,,,,,,,,,,,,0,0,0,4,1,,,,,,,,,,,,,,,,,,,,,,,,,,,,,,,,,,,,,,,,,,,,,,
280973,001,2022-11-21_24h58.50.385,Info_measure_main_exp,2022.2.2,Win32,60.56935191,,,,,,,,,,,,,,,,,,masks/mask_003.jpg,,,,,,,,,,,,,,,,,,,,,,,,,,,,,,,,,,,,,,,,,,,0,1,1,2,1,,,,,,,,,,,,,,,,,,,,,,,,,,,,,,,,,,,,,,,,,,,,,,
280973,001,2022-11-21_24h58.50.385,Info_measure_main_exp,2022.2.2,Win32,60.56935191,,,,,,,,,,,,,,,,,,masks/mask_002.jpg,,,,,,,,,,,,,,,,,,,,,,,,,,,,,,,,,,,,,,,,,,,0,2,2,1,1,,,,,,,,,,,,,,,,,,,,,,,,,,,,,,,,,,,,,,,,,,,,,,
280973,001,2022-11-21_24h58.50.385,Info_measure_main_exp,2022.2.2,Win32,60.56935191,,,,,,,,,,,,,,,,,,masks/mask_001.jpg,,,,,,,,,,,,,,,,,,,,,,,,,,,,,,,,,,,,,,,,,,,0,3,3,0,1,,,,,,,,,,,,,,,,,,,,,,,,,,,,,,,,,,,,,,,,,,,,,,
280973,001,2022-11-21_24h58.50.385,Info_measure_main_exp,2022.2.2,Win32,60.56935191,,,,,,,,,,,,,,,,,,masks/mask_004.jpg,,,,,,,,,,,,,,,,,,,,,,,,,,,,,,,,,,,,,,,,,,,0,4,4,3,1,,,,,,,,,,,,,,,,,,,,,,,,,,,,,,,,,,,,,,,,,,,,,,
280973,001,2022-11-21_24h58.50.385,Info_measure_main_exp,2022.2.2,Win32,60.56935191,,,,,,,,,,,,,,,,,,masks/mask_001.jpg,,,,,,,,,,,,,,,,,,,,,,,,,,,,,,,,,,,,,,,,,,,,,,,,0,0,0,0,1,,,,,,,,,,,,,,,,,,,,,,,,,,,,,,,,,,,,,,,,,
280973,001,2022-11-21_24h58.50.385,Info_measure_main_exp,2022.2.2,Win32,60.56935191,,,,,,,,,,,,,,,,,,masks/mask_004.jpg,,,,,,,,,,,,,,,,,,,,,,,,,,,,,,,,,,,,,,,,,,,,,,,,0,1,1,3,1,,,,,,,,,,,,,,,,,,,,,,,,,,,,,,,,,,,,,,,,,
280973,001,2022-11-21_24h58.50.385,Info_measure_main_exp,2022.2.2,Win32,60.56935191,,,,,,,,,,,,,,,,,,masks/mask_003.jpg,,,,,,,,,,,,,,,,,,,,,,,,,,,,,,,,,,,,,,,,,,,,,,,,0,2,2,2,1,,,,,,,,,,,,,,,,,,,,,,,,,,,,,,,,,,,,,,,,,
280973,001,2022-11-21_24h58.50.385,Info_measure_main_exp,2022.2.2,Win32,60.56935191,,,,,,,,,,,,,,,,,,masks/mask_002.jpg,,,,,,,,,,,,,,,,,,,,,,,,,,,,,,,,,,,,,,,,,,,,,,,,0,3,3,1,1,,,,,,,,,,,,,,,,,,,,,,,,,,,,,,,,,,,,,,,,,
280973,001,2022-11-21_24h58.50.385,Info_measure_main_exp,2022.2.2,Win32,60.56935191,,,,,,,,,,,,,,,,,,masks/mask_005.jpg,,,,,,,,,,,,,,,,,,,,,,,,,,,,,,,,,,,,,,,,,,,,,,,,0,4,4,4,1,,,,,,,,,,,,,,,,,,,,,,,,,,,,,,,,,,,,,,,,,
280973,001,2022-11-21_24h58.50.385,Info_measure_main_exp,2022.2.2,Win32,60.56935191,,,,,,,,,,,,,,,,,,,,,,,,,,,,,,7,1.5328,1,,,,,,,,,,,,0,131,5,5,2154,2190,absent_patch/patch0002154.jpg,absent_patch/patch0002190.jpg,,,,,,,,,,,,,,,,,,,,0.034259288,0.136111111,1,0,0,response1disk,4,-0.002777778,0.007407379,1,0,0,center_square,0,3,3,68,1,,,,,,,,,,,,,,,,,,,,,,,
280973,001,2022-11-21_24h58.50.385,Info_measure_main_exp,2022.2.2,Win32,60.56935191,,,,,,,,,,,,,,,,,,masks/mask_001.jpg,,,,,,,,,,,,,,,,,,,,,,,,,,,,,,,,,,,,,,,,,,,0,0,0,0,1,,,,,,,,,,,,,,,,,,,,,,,,,,,,,,,,,,,,,,,,,,,,,,
280973,001,2022-11-21_24h58.50.385,Info_measure_main_exp,2022.2.2,Win32,60.56935191,,,,,,,,,,,,,,,,,,masks/mask_004.jpg,,,,,,,,,,,,,,,,,,,,,,,,,,,,,,,,,,,,,,,,,,,0,1,1,3,1,,,,,,,,,,,,,,,,,,,,,,,,,,,,,,,,,,,,,,,,,,,,,,
280973,001,2022-11-21_24h58.50.385,Info_measure_main_exp,2022.2.2,Win32,60.56935191,,,,,,,,,,,,,,,,,,masks/mask_002.jpg,,,,,,,,,,,,,,,,,,,,,,,,,,,,,,,,,,,,,,,,,,,0,2,2,1,1,,,,,,,,,,,,,,,,,,,,,,,,,,,,,,,,,,,,,,,,,,,,,,
280973,001,2022-11-21_24h58.50.385,Info_measure_main_exp,2022.2.2,Win32,60.56935191,,,,,,,,,,,,,,,,,,masks/mask_003.jpg,,,,,,,,,,,,,,,,,,,,,,,,,,,,,,,,,,,,,,,,,,,0,3,3,2,1,,,,,,,,,,,,,,,,,,,,,,,,,,,,,,,,,,,,,,,,,,,,,,
280973,001,2022-11-21_24h58.50.385,Info_measure_main_exp,2022.2.2,Win32,60.56935191,,,,,,,,,,,,,,,,,,masks/mask_005.jpg,,,,,,,,,,,,,,,,,,,,,,,,,,,,,,,,,,,,,,,,,,,0,4,4,4,1,,,,,,,,,,,,,,,,,,,,,,,,,,,,,,,,,,,,,,,,,,,,,,
280973,001,2022-11-21_24h58.50.385,Info_measure_main_exp,2022.2.2,Win32,60.56935191,,,,,,,,,,,,,,,,,,masks/mask_003.jpg,,,,,,,,,,,,,,,,,,,,,,,,,,,,,,,,,,,,,,,,,,,,,,,,0,0,0,2,1,,,,,,,,,,,,,,,,,,,,,,,,,,,,,,,,,,,,,,,,,
280973,001,2022-11-21_24h58.50.385,Info_measure_main_exp,2022.2.2,Win32,60.56935191,,,,,,,,,,,,,,,,,,masks/mask_002.jpg,,,,,,,,,,,,,,,,,,,,,,,,,,,,,,,,,,,,,,,,,,,,,,,,0,1,1,1,1,,,,,,,,,,,,,,,,,,,,,,,,,,,,,,,,,,,,,,,,,
280973,001,2022-11-21_24h58.50.385,Info_measure_main_exp,2022.2.2,Win32,60.56935191,,,,,,,,,,,,,,,,,,masks/mask_001.jpg,,,,,,,,,,,,,,,,,,,,,,,,,,,,,,,,,,,,,,,,,,,,,,,,0,2,2,0,1,,,,,,,,,,,,,,,,,,,,,,,,,,,,,,,,,,,,,,,,,
280973,001,2022-11-21_24h58.50.385,Info_measure_main_exp,2022.2.2,Win32,60.56935191,,,,,,,,,,,,,,,,,,masks/mask_005.jpg,,,,,,,,,,,,,,,,,,,,,,,,,,,,,,,,,,,,,,,,,,,,,,,,0,3,3,4,1,,,,,,,,,,,,,,,,,,,,,,,,,,,,,,,,,,,,,,,,,
280973,001,2022-11-21_24h58.50.385,Info_measure_main_exp,2022.2.2,Win32,60.56935191,,,,,,,,,,,,,,,,,,masks/mask_004.jpg,,,,,,,,,,,,,,,,,,,,,,,,,,,,,,,,,,,,,,,,,,,,,,,,0,4,4,3,1,,,,,,,,,,,,,,,,,,,,,,,,,,,,,,,,,,,,,,,,,
280973,001,2022-11-21_24h58.50.385,Info_measure_main_exp,2022.2.2,Win32,60.56935191,,,,,,,,,,,,,,,,,,,,,,,,,,,,,,7,0.7997,1,,,,,,,,,,,,0,131,5,5,2250,2298,absent_patch/patch0002250.jpg,absent_patch/patch0002298.jpg,,,,,,,,,,,,,,,,,,,,0.033333333,0.073148134,1,0,0,response1disk,5,-0.004629601,-0.001851866,1,0,0,center_square,0,4,4,59,1,,,,,,,,,,,,,,,,,,,,,,,
280973,001,2022-11-21_24h58.50.385,Info_measure_main_exp,2022.2.2,Win32,60.56935191,,,,,,,,,,,,,,,,,,masks/mask_002.jpg,,,,,,,,,,,,,,,,,,,,,,,,,,,,,,,,,,,,,,,,,,,0,0,0,1,1,,,,,,,,,,,,,,,,,,,,,,,,,,,,,,,,,,,,,,,,,,,,,,
280973,001,2022-11-21_24h58.50.385,Info_measure_main_exp,2022.2.2,Win32,60.56935191,,,,,,,,,,,,,,,,,,masks/mask_005.jpg,,,,,,,,,,,,,,,,,,,,,,,,,,,,,,,,,,,,,,,,,,,0,1,1,4,1,,,,,,,,,,,,,,,,,,,,,,,,,,,,,,,,,,,,,,,,,,,,,,
280973,001,2022-11-21_24h58.50.385,Info_measure_main_exp,2022.2.2,Win32,60.56935191,,,,,,,,,,,,,,,,,,masks/mask_003.jpg,,,,,,,,,,,,,,,,,,,,,,,,,,,,,,,,,,,,,,,,,,,0,2,2,2,1,,,,,,,,,,,,,,,,,,,,,,,,,,,,,,,,,,,,,,,,,,,,,,
280973,001,2022-11-21_24h58.50.385,Info_measure_main_exp,2022.2.2,Win32,60.56935191,,,,,,,,,,,,,,,,,,masks/mask_001.jpg,,,,,,,,,,,,,,,,,,,,,,,,,,,,,,,,,,,,,,,,,,,0,3,3,0,1,,,,,,,,,,,,,,,,,,,,,,,,,,,,,,,,,,,,,,,,,,,,,,
280973,001,2022-11-21_24h58.50.385,Info_measure_main_exp,2022.2.2,Win32,60.56935191,,,,,,,,,,,,,,,,,,masks/mask_004.jpg,,,,,,,,,,,,,,,,,,,,,,,,,,,,,,,,,,,,,,,,,,,0,4,4,3,1,,,,,,,,,,,,,,,,,,,,,,,,,,,,,,,,,,,,,,,,,,,,,,
280973,001,2022-11-21_24h58.50.385,Info_measure_main_exp,2022.2.2,Win32,60.56935191,,,,,,,,,,,,,,,,,,masks/mask_001.jpg,,,,,,,,,,,,,,,,,,,,,,,,,,,,,,,,,,,,,,,,,,,,,,,,0,0,0,0,1,,,,,,,,,,,,,,,,,,,,,,,,,,,,,,,,,,,,,,,,,
280973,001,2022-11-21_24h58.50.385,Info_measure_main_exp,2022.2.2,Win32,60.56935191,,,,,,,,,,,,,,,,,,masks/mask_005.jpg,,,,,,,,,,,,,,,,,,,,,,,,,,,,,,,,,,,,,,,,,,,,,,,,0,1,1,4,1,,,,,,,,,,,,,,,,,,,,,,,,,,,,,,,,,,,,,,,,,
280973,001,2022-11-21_24h58.50.385,Info_measure_main_exp,2022.2.2,Win32,60.56935191,,,,,,,,,,,,,,,,,,masks/mask_003.jpg,,,,,,,,,,,,,,,,,,,,,,,,,,,,,,,,,,,,,,,,,,,,,,,,0,2,2,2,1,,,,,,,,,,,,,,,,,,,,,,,,,,,,,,,,,,,,,,,,,
280973,001,2022-11-21_24h58.50.385,Info_measure_main_exp,2022.2.2,Win32,60.56935191,,,,,,,,,,,,,,,,,,masks/mask_004.jpg,,,,,,,,,,,,,,,,,,,,,,,,,,,,,,,,,,,,,,,,,,,,,,,,0,3,3,3,1,,,,,,,,,,,,,,,,,,,,,,,,,,,,,,,,,,,,,,,,,
280973,001,2022-11-21_24h58.50.385,Info_measure_main_exp,2022.2.2,Win32,60.56935191,,,,,,,,,,,,,,,,,,masks/mask_002.jpg,,,,,,,,,,,,,,,,,,,,,,,,,,,,,,,,,,,,,,,,,,,,,,,,0,4,4,1,1,,,,,,,,,,,,,,,,,,,,,,,,,,,,,,,,,,,,,,,,,
280973,001,2022-11-21_24h58.50.385,Info_measure_main_exp,2022.2.2,Win32,60.56935191,,,,,,,,,,,,,,,,,,,,,,,,,,,,,,0,1.0826,1,,,,,,,,,,,,0,131,5,5,2298,2298,absent_patch/patch0002298.jpg,absent_patch/patch0002298.jpg,,,,,,,,,,,,,,,,,,,,-0.046296268,0.15,1,0,0,response7disk,6,0.003703732,-0.003703732,1,0,0,center_square,0,5,5,37,1,,,,,,,,,,,,,,,,,,,,,,,
280973,001,2022-11-21_24h58.50.385,Info_measure_main_exp,2022.2.2,Win32,60.56935191,,,,,,,,,,,,,,,,,,masks/mask_004.jpg,,,,,,,,,,,,,,,,,,,,,,,,,,,,,,,,,,,,,,,,,,,0,0,0,3,1,,,,,,,,,,,,,,,,,,,,,,,,,,,,,,,,,,,,,,,,,,,,,,
280973,001,2022-11-21_24h58.50.385,Info_measure_main_exp,2022.2.2,Win32,60.56935191,,,,,,,,,,,,,,,,,,masks/mask_001.jpg,,,,,,,,,,,,,,,,,,,,,,,,,,,,,,,,,,,,,,,,,,,0,1,1,0,1,,,,,,,,,,,,,,,,,,,,,,,,,,,,,,,,,,,,,,,,,,,,,,
280973,001,2022-11-21_24h58.50.385,Info_measure_main_exp,2022.2.2,Win32,60.56935191,,,,,,,,,,,,,,,,,,masks/mask_002.jpg,,,,,,,,,,,,,,,,,,,,,,,,,,,,,,,,,,,,,,,,,,,0,2,2,1,1,,,,,,,,,,,,,,,,,,,,,,,,,,,,,,,,,,,,,,,,,,,,,,
280973,001,2022-11-21_24h58.50.385,Info_measure_main_exp,2022.2.2,Win32,60.56935191,,,,,,,,,,,,,,,,,,masks/mask_003.jpg,,,,,,,,,,,,,,,,,,,,,,,,,,,,,,,,,,,,,,,,,,,0,3,3,2,1,,,,,,,,,,,,,,,,,,,,,,,,,,,,,,,,,,,,,,,,,,,,,,
280973,001,2022-11-21_24h58.50.385,Info_measure_main_exp,2022.2.2,Win32,60.56935191,,,,,,,,,,,,,,,,,,masks/mask_005.jpg,,,,,,,,,,,,,,,,,,,,,,,,,,,,,,,,,,,,,,,,,,,0,4,4,4,1,,,,,,,,,,,,,,,,,,,,,,,,,,,,,,,,,,,,,,,,,,,,,,
280973,001,2022-11-21_24h58.50.385,Info_measure_main_exp,2022.2.2,Win32,60.56935191,,,,,,,,,,,,,,,,,,masks/mask_003.jpg,,,,,,,,,,,,,,,,,,,,,,,,,,,,,,,,,,,,,,,,,,,,,,,,0,0,0,2,1,,,,,,,,,,,,,,,,,,,,,,,,,,,,,,,,,,,,,,,,,
280973,001,2022-11-21_24h58.50.385,Info_measure_main_exp,2022.2.2,Win32,60.56935191,,,,,,,,,,,,,,,,,,masks/mask_004.jpg,,,,,,,,,,,,,,,,,,,,,,,,,,,,,,,,,,,,,,,,,,,,,,,,0,1,1,3,1,,,,,,,,,,,,,,,,,,,,,,,,,,,,,,,,,,,,,,,,,
280973,001,2022-11-21_24h58.50.385,Info_measure_main_exp,2022.2.2,Win32,60.56935191,,,,,,,,,,,,,,,,,,masks/mask_002.jpg,,,,,,,,,,,,,,,,,,,,,,,,,,,,,,,,,,,,,,,,,,,,,,,,0,2,2,1,1,,,,,,,,,,,,,,,,,,,,,,,,,,,,,,,,,,,,,,,,,
280973,001,2022-11-21_24h58.50.385,Info_measure_main_exp,2022.2.2,Win32,60.56935191,,,,,,,,,,,,,,,,,,masks/mask_001.jpg,,,,,,,,,,,,,,,,,,,,,,,,,,,,,,,,,,,,,,,,,,,,,,,,0,3,3,0,1,,,,,,,,,,,,,,,,,,,,,,,,,,,,,,,,,,,,,,,,,
280973,001,2022-11-21_24h58.50.385,Info_measure_main_exp,2022.2.2,Win32,60.56935191,,,,,,,,,,,,,,,,,,masks/mask_005.jpg,,,,,,,,,,,,,,,,,,,,,,,,,,,,,,,,,,,,,,,,,,,,,,,,0,4,4,4,1,,,,,,,,,,,,,,,,,,,,,,,,,,,,,,,,,,,,,,,,,
280973,001,2022-11-21_24h58.50.385,Info_measure_main_exp,2022.2.2,Win32,60.56935191,,,,,,,,,,,,,,,,,,,,,,,,,,,,,,6,2.5318,1,,,,,,,,,,,,1,131,5,5,1,1974,present_patch/cong_131_5_a.jpg,absent_patch/patch0001974.jpg,,,,,,,,,,,,,,,,,,,,0.130555556,0.05,1,0,0,response1disk,7,0,0,1,0,0,center_square,0,6,6,69,1,,,,,,,,,,,,,,,,,,,,,,,
280973,001,2022-11-21_24h58.50.385,Info_measure_main_exp,2022.2.2,Win32,60.56935191,,,,,,,,,,,,,,,,,,masks/mask_003.jpg,,,,,,,,,,,,,,,,,,,,,,,,,,,,,,,,,,,,,,,,,,,0,0,0,2,1,,,,,,,,,,,,,,,,,,,,,,,,,,,,,,,,,,,,,,,,,,,,,,
280973,001,2022-11-21_24h58.50.385,Info_measure_main_exp,2022.2.2,Win32,60.56935191,,,,,,,,,,,,,,,,,,masks/mask_005.jpg,,,,,,,,,,,,,,,,,,,,,,,,,,,,,,,,,,,,,,,,,,,0,1,1,4,1,,,,,,,,,,,,,,,,,,,,,,,,,,,,,,,,,,,,,,,,,,,,,,
280973,001,2022-11-21_24h58.50.385,Info_measure_main_exp,2022.2.2,Win32,60.56935191,,,,,,,,,,,,,,,,,,masks/mask_004.jpg,,,,,,,,,,,,,,,,,,,,,,,,,,,,,,,,,,,,,,,,,,,0,2,2,3,1,,,,,,,,,,,,,,,,,,,,,,,,,,,,,,,,,,,,,,,,,,,,,,
280973,001,2022-11-21_24h58.50.385,Info_measure_main_exp,2022.2.2,Win32,60.56935191,,,,,,,,,,,,,,,,,,masks/mask_002.jpg,,,,,,,,,,,,,,,,,,,,,,,,,,,,,,,,,,,,,,,,,,,0,3,3,1,1,,,,,,,,,,,,,,,,,,,,,,,,,,,,,,,,,,,,,,,,,,,,,,
280973,001,2022-11-21_24h58.50.385,Info_measure_main_exp,2022.2.2,Win32,60.56935191,,,,,,,,,,,,,,,,,,masks/mask_001.jpg,,,,,,,,,,,,,,,,,,,,,,,,,,,,,,,,,,,,,,,,,,,0,4,4,0,1,,,,,,,,,,,,,,,,,,,,,,,,,,,,,,,,,,,,,,,,,,,,,,
280973,001,2022-11-21_24h58.50.385,Info_measure_main_exp,2022.2.2,Win32,60.56935191,,,,,,,,,,,,,,,,,,masks/mask_001.jpg,,,,,,,,,,,,,,,,,,,,,,,,,,,,,,,,,,,,,,,,,,,,,,,,0,0,0,0,1,,,,,,,,,,,,,,,,,,,,,,,,,,,,,,,,,,,,,,,,,
280973,001,2022-11-21_24h58.50.385,Info_measure_main_exp,2022.2.2,Win32,60.56935191,,,,,,,,,,,,,,,,,,masks/mask_005.jpg,,,,,,,,,,,,,,,,,,,,,,,,,,,,,,,,,,,,,,,,,,,,,,,,0,1,1,4,1,,,,,,,,,,,,,,,,,,,,,,,,,,,,,,,,,,,,,,,,,
280973,001,2022-11-21_24h58.50.385,Info_measure_main_exp,2022.2.2,Win32,60.56935191,,,,,,,,,,,,,,,,,,masks/mask_002.jpg,,,,,,,,,,,,,,,,,,,,,,,,,,,,,,,,,,,,,,,,,,,,,,,,0,2,2,1,1,,,,,,,,,,,,,,,,,,,,,,,,,,,,,,,,,,,,,,,,,
280973,001,2022-11-21_24h58.50.385,Info_measure_main_exp,2022.2.2,Win32,60.56935191,,,,,,,,,,,,,,,,,,masks/mask_004.jpg,,,,,,,,,,,,,,,,,,,,,,,,,,,,,,,,,,,,,,,,,,,,,,,,0,3,3,3,1,,,,,,,,,,,,,,,,,,,,,,,,,,,,,,,,,,,,,,,,,
280973,001,2022-11-21_24h58.50.385,Info_measure_main_exp,2022.2.2,Win32,60.56935191,,,,,,,,,,,,,,,,,,masks/mask_003.jpg,,,,,,,,,,,,,,,,,,,,,,,,,,,,,,,,,,,,,,,,,,,,,,,,0,4,4,2,1,,,,,,,,,,,,,,,,,,,,,,,,,,,,,,,,,,,,,,,,,
280973,001,2022-11-21_24h58.50.385,Info_measure_main_exp,2022.2.2,Win32,60.56935191,,,,,,,,,,,,,,,,,,,,,,,,,,,,,,0,1.3822,1,,,,,,,,,,,,0,131,5,5,1986,1986,absent_patch/patch0001986.jpg,absent_patch/patch0001986.jpg,,,,,,,,,,,,,,,,,,,,-0.052777778,0.175,1,0,0,response7disk,8,-0.003703647,0.004629601,1,0,0,center_square,0,7,7,19,1,,,,,,,,,,,,,,,,,,,,,,,
280973,001,2022-11-21_24h58.50.385,Info_measure_main_exp,2022.2.2,Win32,60.56935191,,,,,,,,,,,,,,,,,,masks/mask_003.jpg,,,,,,,,,,,,,,,,,,,,,,,,,,,,,,,,,,,,,,,,,,,0,0,0,2,1,,,,,,,,,,,,,,,,,,,,,,,,,,,,,,,,,,,,,,,,,,,,,,
280973,001,2022-11-21_24h58.50.385,Info_measure_main_exp,2022.2.2,Win32,60.56935191,,,,,,,,,,,,,,,,,,masks/mask_005.jpg,,,,,,,,,,,,,,,,,,,,,,,,,,,,,,,,,,,,,,,,,,,0,1,1,4,1,,,,,,,,,,,,,,,,,,,,,,,,,,,,,,,,,,,,,,,,,,,,,,
280973,001,2022-11-21_24h58.50.385,Info_measure_main_exp,2022.2.2,Win32,60.56935191,,,,,,,,,,,,,,,,,,masks/mask_002.jpg,,,,,,,,,,,,,,,,,,,,,,,,,,,,,,,,,,,,,,,,,,,0,2,2,1,1,,,,,,,,,,,,,,,,,,,,,,,,,,,,,,,,,,,,,,,,,,,,,,
280973,001,2022-11-21_24h58.50.385,Info_measure_main_exp,2022.2.2,Win32,60.56935191,,,,,,,,,,,,,,,,,,masks/mask_004.jpg,,,,,,,,,,,,,,,,,,,,,,,,,,,,,,,,,,,,,,,,,,,0,3,3,3,1,,,,,,,,,,,,,,,,,,,,,,,,,,,,,,,,,,,,,,,,,,,,,,
280973,001,2022-11-21_24h58.50.385,Info_measure_main_exp,2022.2.2,Win32,60.56935191,,,,,,,,,,,,,,,,,,masks/mask_001.jpg,,,,,,,,,,,,,,,,,,,,,,,,,,,,,,,,,,,,,,,,,,,0,4,4,0,1,,,,,,,,,,,,,,,,,,,,,,,,,,,,,,,,,,,,,,,,,,,,,,
280973,001,2022-11-21_24h58.50.385,Info_measure_main_exp,2022.2.2,Win32,60.56935191,,,,,,,,,,,,,,,,,,masks/mask_004.jpg,,,,,,,,,,,,,,,,,,,,,,,,,,,,,,,,,,,,,,,,,,,,,,,,0,0,0,3,1,,,,,,,,,,,,,,,,,,,,,,,,,,,,,,,,,,,,,,,,,
280973,001,2022-11-21_24h58.50.385,Info_measure_main_exp,2022.2.2,Win32,60.56935191,,,,,,,,,,,,,,,,,,masks/mask_005.jpg,,,,,,,,,,,,,,,,,,,,,,,,,,,,,,,,,,,,,,,,,,,,,,,,0,1,1,4,1,,,,,,,,,,,,,,,,,,,,,,,,,,,,,,,,,,,,,,,,,
280973,001,2022-11-21_24h58.50.385,Info_measure_main_exp,2022.2.2,Win32,60.56935191,,,,,,,,,,,,,,,,,,masks/mask_001.jpg,,,,,,,,,,,,,,,,,,,,,,,,,,,,,,,,,,,,,,,,,,,,,,,,0,2,2,0,1,,,,,,,,,,,,,,,,,,,,,,,,,,,,,,,,,,,,,,,,,
280973,001,2022-11-21_24h58.50.385,Info_measure_main_exp,2022.2.2,Win32,60.56935191,,,,,,,,,,,,,,,,,,masks/mask_003.jpg,,,,,,,,,,,,,,,,,,,,,,,,,,,,,,,,,,,,,,,,,,,,,,,,0,3,3,2,1,,,,,,,,,,,,,,,,,,,,,,,,,,,,,,,,,,,,,,,,,
280973,001,2022-11-21_24h58.50.385,Info_measure_main_exp,2022.2.2,Win32,60.56935191,,,,,,,,,,,,,,,,,,masks/mask_002.jpg,,,,,,,,,,,,,,,,,,,,,,,,,,,,,,,,,,,,,,,,,,,,,,,,0,4,4,1,1,,,,,,,,,,,,,,,,,,,,,,,,,,,,,,,,,,,,,,,,,
280973,001,2022-11-21_24h58.50.385,Info_measure_main_exp,2022.2.2,Win32,60.56935191,,,,,,,,,,,,,,,,,,,,,,,,,,,,,,5,3.1823,1,,,,,,,,,,,,1,131,5,5,1950,1,absent_patch/patch0001950.jpg,present_patch/cong_131_5_a.jpg,,,,,,,,,,,,,,,,,,,,0.13148151,-0.044444444,1,0,0,response3disk,9,-0.004629601,0,1,0,0,center_square,0,8,8,39,1,,,,,,,,,,,,,,,,,,,,,,,
280973,001,2022-11-21_24h58.50.385,Info_measure_main_exp,2022.2.2,Win32,60.56935191,,,,,,,,,,,,,,,,,,masks/mask_001.jpg,,,,,,,,,,,,,,,,,,,,,,,,,,,,,,,,,,,,,,,,,,,0,0,0,0,1,,,,,,,,,,,,,,,,,,,,,,,,,,,,,,,,,,,,,,,,,,,,,,
280973,001,2022-11-21_24h58.50.385,Info_measure_main_exp,2022.2.2,Win32,60.56935191,,,,,,,,,,,,,,,,,,masks/mask_002.jpg,,,,,,,,,,,,,,,,,,,,,,,,,,,,,,,,,,,,,,,,,,,0,1,1,1,1,,,,,,,,,,,,,,,,,,,,,,,,,,,,,,,,,,,,,,,,,,,,,,
280973,001,2022-11-21_24h58.50.385,Info_measure_main_exp,2022.2.2,Win32,60.56935191,,,,,,,,,,,,,,,,,,masks/mask_005.jpg,,,,,,,,,,,,,,,,,,,,,,,,,,,,,,,,,,,,,,,,,,,0,2,2,4,1,,,,,,,,,,,,,,,,,,,,,,,,,,,,,,,,,,,,,,,,,,,,,,
280973,001,2022-11-21_24h58.50.385,Info_measure_main_exp,2022.2.2,Win32,60.56935191,,,,,,,,,,,,,,,,,,masks/mask_004.jpg,,,,,,,,,,,,,,,,,,,,,,,,,,,,,,,,,,,,,,,,,,,0,3,3,3,1,,,,,,,,,,,,,,,,,,,,,,,,,,,,,,,,,,,,,,,,,,,,,,
280973,001,2022-11-21_24h58.50.385,Info_measure_main_exp,2022.2.2,Win32,60.56935191,,,,,,,,,,,,,,,,,,masks/mask_003.jpg,,,,,,,,,,,,,,,,,,,,,,,,,,,,,,,,,,,,,,,,,,,0,4,4,2,1,,,,,,,,,,,,,,,,,,,,,,,,,,,,,,,,,,,,,,,,,,,,,,
280973,001,2022-11-21_24h58.50.385,Info_measure_main_exp,2022.2.2,Win32,60.56935191,,,,,,,,,,,,,,,,,,masks/mask_002.jpg,,,,,,,,,,,,,,,,,,,,,,,,,,,,,,,,,,,,,,,,,,,,,,,,0,0,0,1,1,,,,,,,,,,,,,,,,,,,,,,,,,,,,,,,,,,,,,,,,,
280973,001,2022-11-21_24h58.50.385,Info_measure_main_exp,2022.2.2,Win32,60.56935191,,,,,,,,,,,,,,,,,,masks/mask_005.jpg,,,,,,,,,,,,,,,,,,,,,,,,,,,,,,,,,,,,,,,,,,,,,,,,0,1,1,4,1,,,,,,,,,,,,,,,,,,,,,,,,,,,,,,,,,,,,,,,,,
280973,001,2022-11-21_24h58.50.385,Info_measure_main_exp,2022.2.2,Win32,60.56935191,,,,,,,,,,,,,,,,,,masks/mask_001.jpg,,,,,,,,,,,,,,,,,,,,,,,,,,,,,,,,,,,,,,,,,,,,,,,,0,2,2,0,1,,,,,,,,,,,,,,,,,,,,,,,,,,,,,,,,,,,,,,,,,
280973,001,2022-11-21_24h58.50.385,Info_measure_main_exp,2022.2.2,Win32,60.56935191,,,,,,,,,,,,,,,,,,masks/mask_003.jpg,,,,,,,,,,,,,,,,,,,,,,,,,,,,,,,,,,,,,,,,,,,,,,,,0,3,3,2,1,,,,,,,,,,,,,,,,,,,,,,,,,,,,,,,,,,,,,,,,,
280973,001,2022-11-21_24h58.50.385,Info_measure_main_exp,2022.2.2,Win32,60.56935191,,,,,,,,,,,,,,,,,,masks/mask_004.jpg,,,,,,,,,,,,,,,,,,,,,,,,,,,,,,,,,,,,,,,,,,,,,,,,0,4,4,3,1,,,,,,,,,,,,,,,,,,,,,,,,,,,,,,,,,,,,,,,,,
280973,001,2022-11-21_24h58.50.385,Info_measure_main_exp,2022.2.2,Win32,60.56935191,,,,,,,,,,,,,,,,,,,,,,,,,,,,,,7,1.4982,1,,,,,,,,,,,,0,131,5,5,2274,1974,absent_patch/patch0002274.jpg,absent_patch/patch0001974.jpg,,,,,,,,,,,,,,,,,,,,0.020370399,0.112037023,1,0,0,response1disk,10,0.012963019,0.009259245,1,0,0,center_square,0,9,9,90,1,,,,,,,,,,,,,,,,,,,,,,,
280973,001,2022-11-21_24h58.50.385,Info_measure_main_exp,2022.2.2,Win32,60.56935191,,,,,,,,,,,,,,,,,,masks/mask_003.jpg,,,,,,,,,,,,,,,,,,,,,,,,,,,,,,,,,,,,,,,,,,,0,0,0,2,1,,,,,,,,,,,,,,,,,,,,,,,,,,,,,,,,,,,,,,,,,,,,,,
280973,001,2022-11-21_24h58.50.385,Info_measure_main_exp,2022.2.2,Win32,60.56935191,,,,,,,,,,,,,,,,,,masks/mask_002.jpg,,,,,,,,,,,,,,,,,,,,,,,,,,,,,,,,,,,,,,,,,,,0,1,1,1,1,,,,,,,,,,,,,,,,,,,,,,,,,,,,,,,,,,,,,,,,,,,,,,
280973,001,2022-11-21_24h58.50.385,Info_measure_main_exp,2022.2.2,Win32,60.56935191,,,,,,,,,,,,,,,,,,masks/mask_001.jpg,,,,,,,,,,,,,,,,,,,,,,,,,,,,,,,,,,,,,,,,,,,0,2,2,0,1,,,,,,,,,,,,,,,,,,,,,,,,,,,,,,,,,,,,,,,,,,,,,,
280973,001,2022-11-21_24h58.50.385,Info_measure_main_exp,2022.2.2,Win32,60.56935191,,,,,,,,,,,,,,,,,,masks/mask_005.jpg,,,,,,,,,,,,,,,,,,,,,,,,,,,,,,,,,,,,,,,,,,,0,3,3,4,1,,,,,,,,,,,,,,,,,,,,,,,,,,,,,,,,,,,,,,,,,,,,,,
280973,001,2022-11-21_24h58.50.385,Info_measure_main_exp,2022.2.2,Win32,60.56935191,,,,,,,,,,,,,,,,,,masks/mask_004.jpg,,,,,,,,,,,,,,,,,,,,,,,,,,,,,,,,,,,,,,,,,,,0,4,4,3,1,,,,,,,,,,,,,,,,,,,,,,,,,,,,,,,,,,,,,,,,,,,,,,
280973,001,2022-11-21_24h58.50.385,Info_measure_main_exp,2022.2.2,Win32,60.56935191,,,,,,,,,,,,,,,,,,masks/mask_005.jpg,,,,,,,,,,,,,,,,,,,,,,,,,,,,,,,,,,,,,,,,,,,,,,,,0,0,0,4,1,,,,,,,,,,,,,,,,,,,,,,,,,,,,,,,,,,,,,,,,,
280973,001,2022-11-21_24h58.50.385,Info_measure_main_exp,2022.2.2,Win32,60.56935191,,,,,,,,,,,,,,,,,,masks/mask_001.jpg,,,,,,,,,,,,,,,,,,,,,,,,,,,,,,,,,,,,,,,,,,,,,,,,0,1,1,0,1,,,,,,,,,,,,,,,,,,,,,,,,,,,,,,,,,,,,,,,,,
280973,001,2022-11-21_24h58.50.385,Info_measure_main_exp,2022.2.2,Win32,60.56935191,,,,,,,,,,,,,,,,,,masks/mask_003.jpg,,,,,,,,,,,,,,,,,,,,,,,,,,,,,,,,,,,,,,,,,,,,,,,,0,2,2,2,1,,,,,,,,,,,,,,,,,,,,,,,,,,,,,,,,,,,,,,,,,
280973,001,2022-11-21_24h58.50.385,Info_measure_main_exp,2022.2.2,Win32,60.56935191,,,,,,,,,,,,,,,,,,masks/mask_002.jpg,,,,,,,,,,,,,,,,,,,,,,,,,,,,,,,,,,,,,,,,,,,,,,,,0,3,3,1,1,,,,,,,,,,,,,,,,,,,,,,,,,,,,,,,,,,,,,,,,,
280973,001,2022-11-21_24h58.50.385,Info_measure_main_exp,2022.2.2,Win32,60.56935191,,,,,,,,,,,,,,,,,,masks/mask_004.jpg,,,,,,,,,,,,,,,,,,,,,,,,,,,,,,,,,,,,,,,,,,,,,,,,0,4,4,3,1,,,,,,,,,,,,,,,,,,,,,,,,,,,,,,,,,,,,,,,,,
280973,001,2022-11-21_24h58.50.385,Info_measure_main_exp,2022.2.2,Win32,60.56935191,,,,,,,,,,,,,,,,,,,,,,,,,,,,,,4,1.6651,1,,,,,,,,,,,,0,131,5,5,2250,1950,absent_patch/patch0002250.jpg,absent_patch/patch0001950.jpg,,,,,,,,,,,,,,,,,,,,0.089814843,-0.128703732,1,0,0,response3disk,11,0.009259288,0.006481467,1,0,0,center_square,0,10,10,16,1,,,,,,,,,,,,,,,,,,,,,,,
280973,001,2022-11-21_24h58.50.385,Info_measure_main_exp,2022.2.2,Win32,60.56935191,,,,,,,,,,,,,,,,,,masks/mask_001.jpg,,,,,,,,,,,,,,,,,,,,,,,,,,,,,,,,,,,,,,,,,,,0,0,0,0,1,,,,,,,,,,,,,,,,,,,,,,,,,,,,,,,,,,,,,,,,,,,,,,
280973,001,2022-11-21_24h58.50.385,Info_measure_main_exp,2022.2.2,Win32,60.56935191,,,,,,,,,,,,,,,,,,masks/mask_003.jpg,,,,,,,,,,,,,,,,,,,,,,,,,,,,,,,,,,,,,,,,,,,0,1,1,2,1,,,,,,,,,,,,,,,,,,,,,,,,,,,,,,,,,,,,,,,,,,,,,,
280973,001,2022-11-21_24h58.50.385,Info_measure_main_exp,2022.2.2,Win32,60.56935191,,,,,,,,,,,,,,,,,,masks/mask_004.jpg,,,,,,,,,,,,,,,,,,,,,,,,,,,,,,,,,,,,,,,,,,,0,2,2,3,1,,,,,,,,,,,,,,,,,,,,,,,,,,,,,,,,,,,,,,,,,,,,,,
280973,001,2022-11-21_24h58.50.385,Info_measure_main_exp,2022.2.2,Win32,60.56935191,,,,,,,,,,,,,,,,,,masks/mask_002.jpg,,,,,,,,,,,,,,,,,,,,,,,,,,,,,,,,,,,,,,,,,,,0,3,3,1,1,,,,,,,,,,,,,,,,,,,,,,,,,,,,,,,,,,,,,,,,,,,,,,
280973,001,2022-11-21_24h58.50.385,Info_measure_main_exp,2022.2.2,Win32,60.56935191,,,,,,,,,,,,,,,,,,masks/mask_005.jpg,,,,,,,,,,,,,,,,,,,,,,,,,,,,,,,,,,,,,,,,,,,0,4,4,4,1,,,,,,,,,,,,,,,,,,,,,,,,,,,,,,,,,,,,,,,,,,,,,,
280973,001,2022-11-21_24h58.50.385,Info_measure_main_exp,2022.2.2,Win32,60.56935191,,,,,,,,,,,,,,,,,,masks/mask_002.jpg,,,,,,,,,,,,,,,,,,,,,,,,,,,,,,,,,,,,,,,,,,,,,,,,0,0,0,1,1,,,,,,,,,,,,,,,,,,,,,,,,,,,,,,,,,,,,,,,,,
280973,001,2022-11-21_24h58.50.385,Info_measure_main_exp,2022.2.2,Win32,60.56935191,,,,,,,,,,,,,,,,,,masks/mask_004.jpg,,,,,,,,,,,,,,,,,,,,,,,,,,,,,,,,,,,,,,,,,,,,,,,,0,1,1,3,1,,,,,,,,,,,,,,,,,,,,,,,,,,,,,,,,,,,,,,,,,
280973,001,2022-11-21_24h58.50.385,Info_measure_main_exp,2022.2.2,Win32,60.56935191,,,,,,,,,,,,,,,,,,masks/mask_001.jpg,,,,,,,,,,,,,,,,,,,,,,,,,,,,,,,,,,,,,,,,,,,,,,,,0,2,2,0,1,,,,,,,,,,,,,,,,,,,,,,,,,,,,,,,,,,,,,,,,,
280973,001,2022-11-21_24h58.50.385,Info_measure_main_exp,2022.2.2,Win32,60.56935191,,,,,,,,,,,,,,,,,,masks/mask_005.jpg,,,,,,,,,,,,,,,,,,,,,,,,,,,,,,,,,,,,,,,,,,,,,,,,0,3,3,4,1,,,,,,,,,,,,,,,,,,,,,,,,,,,,,,,,,,,,,,,,,
280973,001,2022-11-21_24h58.50.385,Info_measure_main_exp,2022.2.2,Win32,60.56935191,,,,,,,,,,,,,,,,,,masks/mask_003.jpg,,,,,,,,,,,,,,,,,,,,,,,,,,,,,,,,,,,,,,,,,,,,,,,,0,4,4,2,1,,,,,,,,,,,,,,,,,,,,,,,,,,,,,,,,,,,,,,,,,
280973,001,2022-11-21_24h58.50.385,Info_measure_main_exp,2022.2.2,Win32,60.56935191,,,,,,,,,,,,,,,,,,,,,,,,,,,,,,5,1.8987,1,,,,,,,,,,,,0,131,5,5,2238,2166,absent_patch/patch0002238.jpg,absent_patch/patch0002166.jpg,,,,,,,,,,,,,,,,,,,,0.153703732,-0.065740755,1,0,0,response3disk,12,-0.007407379,0.002777778,1,0,0,center_square,0,11,11,118,1,,,,,,,,,,,,,,,,,,,,,,,
280973,001,2022-11-21_24h58.50.385,Info_measure_main_exp,2022.2.2,Win32,60.56935191,,,,,,,,,,,,,,,,,,masks/mask_004.jpg,,,,,,,,,,,,,,,,,,,,,,,,,,,,,,,,,,,,,,,,,,,0,0,0,3,1,,,,,,,,,,,,,,,,,,,,,,,,,,,,,,,,,,,,,,,,,,,,,,
280973,001,2022-11-21_24h58.50.385,Info_measure_main_exp,2022.2.2,Win32,60.56935191,,,,,,,,,,,,,,,,,,masks/mask_003.jpg,,,,,,,,,,,,,,,,,,,,,,,,,,,,,,,,,,,,,,,,,,,0,1,1,2,1,,,,,,,,,,,,,,,,,,,,,,,,,,,,,,,,,,,,,,,,,,,,,,
280973,001,2022-11-21_24h58.50.385,Info_measure_main_exp,2022.2.2,Win32,60.56935191,,,,,,,,,,,,,,,,,,masks/mask_005.jpg,,,,,,,,,,,,,,,,,,,,,,,,,,,,,,,,,,,,,,,,,,,0,2,2,4,1,,,,,,,,,,,,,,,,,,,,,,,,,,,,,,,,,,,,,,,,,,,,,,
280973,001,2022-11-21_24h58.50.385,Info_measure_main_exp,2022.2.2,Win32,60.56935191,,,,,,,,,,,,,,,,,,masks/mask_002.jpg,,,,,,,,,,,,,,,,,,,,,,,,,,,,,,,,,,,,,,,,,,,0,3,3,1,1,,,,,,,,,,,,,,,,,,,,,,,,,,,,,,,,,,,,,,,,,,,,,,
280973,001,2022-11-21_24h58.50.385,Info_measure_main_exp,2022.2.2,Win32,60.56935191,,,,,,,,,,,,,,,,,,masks/mask_001.jpg,,,,,,,,,,,,,,,,,,,,,,,,,,,,,,,,,,,,,,,,,,,0,4,4,0,1,,,,,,,,,,,,,,,,,,,,,,,,,,,,,,,,,,,,,,,,,,,,,,
280973,001,2022-11-21_24h58.50.385,Info_measure_main_exp,2022.2.2,Win32,60.56935191,,,,,,,,,,,,,,,,,,masks/mask_004.jpg,,,,,,,,,,,,,,,,,,,,,,,,,,,,,,,,,,,,,,,,,,,,,,,,0,0,0,3,1,,,,,,,,,,,,,,,,,,,,,,,,,,,,,,,,,,,,,,,,,
280973,001,2022-11-21_24h58.50.385,Info_measure_main_exp,2022.2.2,Win32,60.56935191,,,,,,,,,,,,,,,,,,masks/mask_002.jpg,,,,,,,,,,,,,,,,,,,,,,,,,,,,,,,,,,,,,,,,,,,,,,,,0,1,1,1,1,,,,,,,,,,,,,,,,,,,,,,,,,,,,,,,,,,,,,,,,,
280973,001,2022-11-21_24h58.50.385,Info_measure_main_exp,2022.2.2,Win32,60.56935191,,,,,,,,,,,,,,,,,,masks/mask_001.jpg,,,,,,,,,,,,,,,,,,,,,,,,,,,,,,,,,,,,,,,,,,,,,,,,0,2,2,0,1,,,,,,,,,,,,,,,,,,,,,,,,,,,,,,,,,,,,,,,,,
280973,001,2022-11-21_24h58.50.385,Info_measure_main_exp,2022.2.2,Win32,60.56935191,,,,,,,,,,,,,,,,,,masks/mask_005.jpg,,,,,,,,,,,,,,,,,,,,,,,,,,,,,,,,,,,,,,,,,,,,,,,,0,3,3,4,1,,,,,,,,,,,,,,,,,,,,,,,,,,,,,,,,,,,,,,,,,
280973,001,2022-11-21_24h58.50.385,Info_measure_main_exp,2022.2.2,Win32,60.56935191,,,,,,,,,,,,,,,,,,masks/mask_003.jpg,,,,,,,,,,,,,,,,,,,,,,,,,,,,,,,,,,,,,,,,,,,,,,,,0,4,4,2,1,,,,,,,,,,,,,,,,,,,,,,,,,,,,,,,,,,,,,,,,,
280973,001,2022-11-21_24h58.50.385,Info_measure_main_exp,2022.2.2,Win32,60.56935191,,,,,,,,,,,,,,,,,,,,,,,,,,,,,,0,0.9008,1,,,,,,,,,,,,0,131,5,5,1974,1950,absent_patch/patch0001974.jpg,absent_patch/patch0001950.jpg,,,,,,,,,,,,,,,,,,,,-0.060185157,0.168518511,1,0,0,response7disk,13,-0.001851824,0.006481467,1,0,0,center_square,0,12,12,17,1,,,,,,,,,,,,,,,,,,,,,,,
280973,001,2022-11-21_24h58.50.385,Info_measure_main_exp,2022.2.2,Win32,60.56935191,,,,,,,,,,,,,,,,,,masks/mask_002.jpg,,,,,,,,,,,,,,,,,,,,,,,,,,,,,,,,,,,,,,,,,,,0,0,0,1,1,,,,,,,,,,,,,,,,,,,,,,,,,,,,,,,,,,,,,,,,,,,,,,
280973,001,2022-11-21_24h58.50.385,Info_measure_main_exp,2022.2.2,Win32,60.56935191,,,,,,,,,,,,,,,,,,masks/mask_004.jpg,,,,,,,,,,,,,,,,,,,,,,,,,,,,,,,,,,,,,,,,,,,0,1,1,3,1,,,,,,,,,,,,,,,,,,,,,,,,,,,,,,,,,,,,,,,,,,,,,,
280973,001,2022-11-21_24h58.50.385,Info_measure_main_exp,2022.2.2,Win32,60.56935191,,,,,,,,,,,,,,,,,,masks/mask_005.jpg,,,,,,,,,,,,,,,,,,,,,,,,,,,,,,,,,,,,,,,,,,,0,2,2,4,1,,,,,,,,,,,,,,,,,,,,,,,,,,,,,,,,,,,,,,,,,,,,,,
280973,001,2022-11-21_24h58.50.385,Info_measure_main_exp,2022.2.2,Win32,60.56935191,,,,,,,,,,,,,,,,,,masks/mask_001.jpg,,,,,,,,,,,,,,,,,,,,,,,,,,,,,,,,,,,,,,,,,,,0,3,3,0,1,,,,,,,,,,,,,,,,,,,,,,,,,,,,,,,,,,,,,,,,,,,,,,
280973,001,2022-11-21_24h58.50.385,Info_measure_main_exp,2022.2.2,Win32,60.56935191,,,,,,,,,,,,,,,,,,masks/mask_003.jpg,,,,,,,,,,,,,,,,,,,,,,,,,,,,,,,,,,,,,,,,,,,0,4,4,2,1,,,,,,,,,,,,,,,,,,,,,,,,,,,,,,,,,,,,,,,,,,,,,,
280973,001,2022-11-21_24h58.50.385,Info_measure_main_exp,2022.2.2,Win32,60.56935191,,,,,,,,,,,,,,,,,,masks/mask_005.jpg,,,,,,,,,,,,,,,,,,,,,,,,,,,,,,,,,,,,,,,,,,,,,,,,0,0,0,4,1,,,,,,,,,,,,,,,,,,,,,,,,,,,,,,,,,,,,,,,,,
280973,001,2022-11-21_24h58.50.385,Info_measure_main_exp,2022.2.2,Win32,60.56935191,,,,,,,,,,,,,,,,,,masks/mask_002.jpg,,,,,,,,,,,,,,,,,,,,,,,,,,,,,,,,,,,,,,,,,,,,,,,,0,1,1,1,1,,,,,,,,,,,,,,,,,,,,,,,,,,,,,,,,,,,,,,,,,
280973,001,2022-11-21_24h58.50.385,Info_measure_main_exp,2022.2.2,Win32,60.56935191,,,,,,,,,,,,,,,,,,masks/mask_001.jpg,,,,,,,,,,,,,,,,,,,,,,,,,,,,,,,,,,,,,,,,,,,,,,,,0,2,2,0,1,,,,,,,,,,,,,,,,,,,,,,,,,,,,,,,,,,,,,,,,,
280973,001,2022-11-21_24h58.50.385,Info_measure_main_exp,2022.2.2,Win32,60.56935191,,,,,,,,,,,,,,,,,,masks/mask_003.jpg,,,,,,,,,,,,,,,,,,,,,,,,,,,,,,,,,,,,,,,,,,,,,,,,0,3,3,2,1,,,,,,,,,,,,,,,,,,,,,,,,,,,,,,,,,,,,,,,,,
280973,001,2022-11-21_24h58.50.385,Info_measure_main_exp,2022.2.2,Win32,60.56935191,,,,,,,,,,,,,,,,,,masks/mask_004.jpg,,,,,,,,,,,,,,,,,,,,,,,,,,,,,,,,,,,,,,,,,,,,,,,,0,4,4,3,1,,,,,,,,,,,,,,,,,,,,,,,,,,,,,,,,,,,,,,,,,
280973,001,2022-11-21_24h58.50.385,Info_measure_main_exp,2022.2.2,Win32,60.56935191,,,,,,,,,,,,,,,,,,,,,,,,,,,,,,3,3.0321,1,,,,,,,,,,,,0,131,5,5,1950,2142,absent_patch/patch0001950.jpg,absent_patch/patch0002142.jpg,,,,,,,,,,,,,,,,,,,,-0.033333333,-0.144444444,1,0,0,response5disk,14,0.009259288,0.008333333,1,0,0,center_square,0,13,13,83,1,,,,,,,,,,,,,,,,,,,,,,,
280973,001,2022-11-21_24h58.50.385,Info_measure_main_exp,2022.2.2,Win32,60.56935191,,,,,,,,,,,,,,,,,,masks/mask_001.jpg,,,,,,,,,,,,,,,,,,,,,,,,,,,,,,,,,,,,,,,,,,,0,0,0,0,1,,,,,,,,,,,,,,,,,,,,,,,,,,,,,,,,,,,,,,,,,,,,,,
280973,001,2022-11-21_24h58.50.385,Info_measure_main_exp,2022.2.2,Win32,60.56935191,,,,,,,,,,,,,,,,,,masks/mask_002.jpg,,,,,,,,,,,,,,,,,,,,,,,,,,,,,,,,,,,,,,,,,,,0,1,1,1,1,,,,,,,,,,,,,,,,,,,,,,,,,,,,,,,,,,,,,,,,,,,,,,
280973,001,2022-11-21_24h58.50.385,Info_measure_main_exp,2022.2.2,Win32,60.56935191,,,,,,,,,,,,,,,,,,masks/mask_004.jpg,,,,,,,,,,,,,,,,,,,,,,,,,,,,,,,,,,,,,,,,,,,0,2,2,3,1,,,,,,,,,,,,,,,,,,,,,,,,,,,,,,,,,,,,,,,,,,,,,,
280973,001,2022-11-21_24h58.50.385,Info_measure_main_exp,2022.2.2,Win32,60.56935191,,,,,,,,,,,,,,,,,,masks/mask_005.jpg,,,,,,,,,,,,,,,,,,,,,,,,,,,,,,,,,,,,,,,,,,,0,3,3,4,1,,,,,,,,,,,,,,,,,,,,,,,,,,,,,,,,,,,,,,,,,,,,,,
280973,001,2022-11-21_24h58.50.385,Info_measure_main_exp,2022.2.2,Win32,60.56935191,,,,,,,,,,,,,,,,,,masks/mask_003.jpg,,,,,,,,,,,,,,,,,,,,,,,,,,,,,,,,,,,,,,,,,,,0,4,4,2,1,,,,,,,,,,,,,,,,,,,,,,,,,,,,,,,,,,,,,,,,,,,,,,
280973,001,2022-11-21_24h58.50.385,Info_measure_main_exp,2022.2.2,Win32,60.56935191,,,,,,,,,,,,,,,,,,masks/mask_001.jpg,,,,,,,,,,,,,,,,,,,,,,,,,,,,,,,,,,,,,,,,,,,,,,,,0,0,0,0,1,,,,,,,,,,,,,,,,,,,,,,,,,,,,,,,,,,,,,,,,,
280973,001,2022-11-21_24h58.50.385,Info_measure_main_exp,2022.2.2,Win32,60.56935191,,,,,,,,,,,,,,,,,,masks/mask_002.jpg,,,,,,,,,,,,,,,,,,,,,,,,,,,,,,,,,,,,,,,,,,,,,,,,0,1,1,1,1,,,,,,,,,,,,,,,,,,,,,,,,,,,,,,,,,,,,,,,,,
280973,001,2022-11-21_24h58.50.385,Info_measure_main_exp,2022.2.2,Win32,60.56935191,,,,,,,,,,,,,,,,,,masks/mask_005.jpg,,,,,,,,,,,,,,,,,,,,,,,,,,,,,,,,,,,,,,,,,,,,,,,,0,2,2,4,1,,,,,,,,,,,,,,,,,,,,,,,,,,,,,,,,,,,,,,,,,
280973,001,2022-11-21_24h58.50.385,Info_measure_main_exp,2022.2.2,Win32,60.56935191,,,,,,,,,,,,,,,,,,masks/mask_003.jpg,,,,,,,,,,,,,,,,,,,,,,,,,,,,,,,,,,,,,,,,,,,,,,,,0,3,3,2,1,,,,,,,,,,,,,,,,,,,,,,,,,,,,,,,,,,,,,,,,,
280973,001,2022-11-21_24h58.50.385,Info_measure_main_exp,2022.2.2,Win32,60.56935191,,,,,,,,,,,,,,,,,,masks/mask_004.jpg,,,,,,,,,,,,,,,,,,,,,,,,,,,,,,,,,,,,,,,,,,,,,,,,0,4,4,3,1,,,,,,,,,,,,,,,,,,,,,,,,,,,,,,,,,,,,,,,,,
280973,001,2022-11-21_24h58.50.385,Info_measure_main_exp,2022.2.2,Win32,60.56935191,,,,,,,,,,,,,,,,,,,,,,,,,,,,,,7,1.6319,1,,,,,,,,,,,,0,131,5,5,1986,2238,absent_patch/patch0001986.jpg,absent_patch/patch0002238.jpg,,,,,,,,,,,,,,,,,,,,0.012037065,0.169444444,1,0,0,response1disk,15,0.001851908,0.001851824,1,0,0,center_square,0,14,14,31,1,,,,,,,,,,,,,,,,,,,,,,,
280973,001,2022-11-21_24h58.50.385,Info_measure_main_exp,2022.2.2,Win32,60.56935191,,,,,,,,,,,,,,,,,,masks/mask_002.jpg,,,,,,,,,,,,,,,,,,,,,,,,,,,,,,,,,,,,,,,,,,,0,0,0,1,1,,,,,,,,,,,,,,,,,,,,,,,,,,,,,,,,,,,,,,,,,,,,,,
280973,001,2022-11-21_24h58.50.385,Info_measure_main_exp,2022.2.2,Win32,60.56935191,,,,,,,,,,,,,,,,,,masks/mask_005.jpg,,,,,,,,,,,,,,,,,,,,,,,,,,,,,,,,,,,,,,,,,,,0,1,1,4,1,,,,,,,,,,,,,,,,,,,,,,,,,,,,,,,,,,,,,,,,,,,,,,
280973,001,2022-11-21_24h58.50.385,Info_measure_main_exp,2022.2.2,Win32,60.56935191,,,,,,,,,,,,,,,,,,masks/mask_004.jpg,,,,,,,,,,,,,,,,,,,,,,,,,,,,,,,,,,,,,,,,,,,0,2,2,3,1,,,,,,,,,,,,,,,,,,,,,,,,,,,,,,,,,,,,,,,,,,,,,,
280973,001,2022-11-21_24h58.50.385,Info_measure_main_exp,2022.2.2,Win32,60.56935191,,,,,,,,,,,,,,,,,,masks/mask_003.jpg,,,,,,,,,,,,,,,,,,,,,,,,,,,,,,,,,,,,,,,,,,,0,3,3,2,1,,,,,,,,,,,,,,,,,,,,,,,,,,,,,,,,,,,,,,,,,,,,,,
280973,001,2022-11-21_24h58.50.385,Info_measure_main_exp,2022.2.2,Win32,60.56935191,,,,,,,,,,,,,,,,,,masks/mask_001.jpg,,,,,,,,,,,,,,,,,,,,,,,,,,,,,,,,,,,,,,,,,,,0,4,4,0,1,,,,,,,,,,,,,,,,,,,,,,,,,,,,,,,,,,,,,,,,,,,,,,
280973,001,2022-11-21_24h58.50.385,Info_measure_main_exp,2022.2.2,Win32,60.56935191,,,,,,,,,,,,,,,,,,masks/mask_002.jpg,,,,,,,,,,,,,,,,,,,,,,,,,,,,,,,,,,,,,,,,,,,,,,,,0,0,0,1,1,,,,,,,,,,,,,,,,,,,,,,,,,,,,,,,,,,,,,,,,,
280973,001,2022-11-21_24h58.50.385,Info_measure_main_exp,2022.2.2,Win32,60.56935191,,,,,,,,,,,,,,,,,,masks/mask_001.jpg,,,,,,,,,,,,,,,,,,,,,,,,,,,,,,,,,,,,,,,,,,,,,,,,0,1,1,0,1,,,,,,,,,,,,,,,,,,,,,,,,,,,,,,,,,,,,,,,,,
280973,001,2022-11-21_24h58.50.385,Info_measure_main_exp,2022.2.2,Win32,60.56935191,,,,,,,,,,,,,,,,,,masks/mask_003.jpg,,,,,,,,,,,,,,,,,,,,,,,,,,,,,,,,,,,,,,,,,,,,,,,,0,2,2,2,1,,,,,,,,,,,,,,,,,,,,,,,,,,,,,,,,,,,,,,,,,
280973,001,2022-11-21_24h58.50.385,Info_measure_main_exp,2022.2.2,Win32,60.56935191,,,,,,,,,,,,,,,,,,masks/mask_005.jpg,,,,,,,,,,,,,,,,,,,,,,,,,,,,,,,,,,,,,,,,,,,,,,,,0,3,3,4,1,,,,,,,,,,,,,,,,,,,,,,,,,,,,,,,,,,,,,,,,,
280973,001,2022-11-21_24h58.50.385,Info_measure_main_exp,2022.2.2,Win32,60.56935191,,,,,,,,,,,,,,,,,,masks/mask_004.jpg,,,,,,,,,,,,,,,,,,,,,,,,,,,,,,,,,,,,,,,,,,,,,,,,0,4,4,3,1,,,,,,,,,,,,,,,,,,,,,,,,,,,,,,,,,,,,,,,,,
280973,001,2022-11-21_24h58.50.385,Info_measure_main_exp,2022.2.2,Win32,60.56935191,,,,,,,,,,,,,,,,,,,,,,,,,,,,,,7,2.4984,1,,,,,,,,,,,,0,131,5,5,2274,2190,absent_patch/patch0002274.jpg,absent_patch/patch0002190.jpg,,,,,,,,,,,,,,,,,,,,0.076851908,0.117592578,1,0,0,response1disk,16,0.002777778,-0.004629644,1,0,0,center_square,0,15,15,116,1,,,,,,,,,,,,,,,,,,,,,,,
280973,001,2022-11-21_24h58.50.385,Info_measure_main_exp,2022.2.2,Win32,60.56935191,,,,,,,,,,,,,,,,,,masks/mask_005.jpg,,,,,,,,,,,,,,,,,,,,,,,,,,,,,,,,,,,,,,,,,,,0,0,0,4,1,,,,,,,,,,,,,,,,,,,,,,,,,,,,,,,,,,,,,,,,,,,,,,
280973,001,2022-11-21_24h58.50.385,Info_measure_main_exp,2022.2.2,Win32,60.56935191,,,,,,,,,,,,,,,,,,masks/mask_002.jpg,,,,,,,,,,,,,,,,,,,,,,,,,,,,,,,,,,,,,,,,,,,0,1,1,1,1,,,,,,,,,,,,,,,,,,,,,,,,,,,,,,,,,,,,,,,,,,,,,,
280973,001,2022-11-21_24h58.50.385,Info_measure_main_exp,2022.2.2,Win32,60.56935191,,,,,,,,,,,,,,,,,,masks/mask_004.jpg,,,,,,,,,,,,,,,,,,,,,,,,,,,,,,,,,,,,,,,,,,,0,2,2,3,1,,,,,,,,,,,,,,,,,,,,,,,,,,,,,,,,,,,,,,,,,,,,,,
280973,001,2022-11-21_24h58.50.385,Info_measure_main_exp,2022.2.2,Win32,60.56935191,,,,,,,,,,,,,,,,,,masks/mask_001.jpg,,,,,,,,,,,,,,,,,,,,,,,,,,,,,,,,,,,,,,,,,,,0,3,3,0,1,,,,,,,,,,,,,,,,,,,,,,,,,,,,,,,,,,,,,,,,,,,,,,
280973,001,2022-11-21_24h58.50.385,Info_measure_main_exp,2022.2.2,Win32,60.56935191,,,,,,,,,,,,,,,,,,masks/mask_003.jpg,,,,,,,,,,,,,,,,,,,,,,,,,,,,,,,,,,,,,,,,,,,0,4,4,2,1,,,,,,,,,,,,,,,,,,,,,,,,,,,,,,,,,,,,,,,,,,,,,,
280973,001,2022-11-21_24h58.50.385,Info_measure_main_exp,2022.2.2,Win32,60.56935191,,,,,,,,,,,,,,,,,,masks/mask_002.jpg,,,,,,,,,,,,,,,,,,,,,,,,,,,,,,,,,,,,,,,,,,,,,,,,0,0,0,1,1,,,,,,,,,,,,,,,,,,,,,,,,,,,,,,,,,,,,,,,,,
280973,001,2022-11-21_24h58.50.385,Info_measure_main_exp,2022.2.2,Win32,60.56935191,,,,,,,,,,,,,,,,,,masks/mask_004.jpg,,,,,,,,,,,,,,,,,,,,,,,,,,,,,,,,,,,,,,,,,,,,,,,,0,1,1,3,1,,,,,,,,,,,,,,,,,,,,,,,,,,,,,,,,,,,,,,,,,
280973,001,2022-11-21_24h58.50.385,Info_measure_main_exp,2022.2.2,Win32,60.56935191,,,,,,,,,,,,,,,,,,masks/mask_005.jpg,,,,,,,,,,,,,,,,,,,,,,,,,,,,,,,,,,,,,,,,,,,,,,,,0,2,2,4,1,,,,,,,,,,,,,,,,,,,,,,,,,,,,,,,,,,,,,,,,,
280973,001,2022-11-21_24h58.50.385,Info_measure_main_exp,2022.2.2,Win32,60.56935191,,,,,,,,,,,,,,,,,,masks/mask_003.jpg,,,,,,,,,,,,,,,,,,,,,,,,,,,,,,,,,,,,,,,,,,,,,,,,0,3,3,2,1,,,,,,,,,,,,,,,,,,,,,,,,,,,,,,,,,,,,,,,,,
280973,001,2022-11-21_24h58.50.385,Info_measure_main_exp,2022.2.2,Win32,60.56935191,,,,,,,,,,,,,,,,,,masks/mask_001.jpg,,,,,,,,,,,,,,,,,,,,,,,,,,,,,,,,,,,,,,,,,,,,,,,,0,4,4,0,1,,,,,,,,,,,,,,,,,,,,,,,,,,,,,,,,,,,,,,,,,
280973,001,2022-11-21_24h58.50.385,Info_measure_main_exp,2022.2.2,Win32,60.56935191,,,,,,,,,,,,,,,,,,,,,,,,,,,,,,3,3.7485,1,,,,,,,,,,,,0,131,5,5,1974,2142,absent_patch/patch0001974.jpg,absent_patch/patch0002142.jpg,,,,,,,,,,,,,,,,,,,,-0.046296268,-0.079629644,1,0,0,response5disk,17,-0.005555556,-0.001851866,1,0,0,center_square,0,16,16,38,1,,,,,,,,,,,,,,,,,,,,,,,
280973,001,2022-11-21_24h58.50.385,Info_measure_main_exp,2022.2.2,Win32,60.56935191,,,,,,,,,,,,,,,,,,masks/mask_005.jpg,,,,,,,,,,,,,,,,,,,,,,,,,,,,,,,,,,,,,,,,,,,0,0,0,4,1,,,,,,,,,,,,,,,,,,,,,,,,,,,,,,,,,,,,,,,,,,,,,,
280973,001,2022-11-21_24h58.50.385,Info_measure_main_exp,2022.2.2,Win32,60.56935191,,,,,,,,,,,,,,,,,,masks/mask_002.jpg,,,,,,,,,,,,,,,,,,,,,,,,,,,,,,,,,,,,,,,,,,,0,1,1,1,1,,,,,,,,,,,,,,,,,,,,,,,,,,,,,,,,,,,,,,,,,,,,,,
280973,001,2022-11-21_24h58.50.385,Info_measure_main_exp,2022.2.2,Win32,60.56935191,,,,,,,,,,,,,,,,,,masks/mask_001.jpg,,,,,,,,,,,,,,,,,,,,,,,,,,,,,,,,,,,,,,,,,,,0,2,2,0,1,,,,,,,,,,,,,,,,,,,,,,,,,,,,,,,,,,,,,,,,,,,,,,
280973,001,2022-11-21_24h58.50.385,Info_measure_main_exp,2022.2.2,Win32,60.56935191,,,,,,,,,,,,,,,,,,masks/mask_004.jpg,,,,,,,,,,,,,,,,,,,,,,,,,,,,,,,,,,,,,,,,,,,0,3,3,3,1,,,,,,,,,,,,,,,,,,,,,,,,,,,,,,,,,,,,,,,,,,,,,,
280973,001,2022-11-21_24h58.50.385,Info_measure_main_exp,2022.2.2,Win32,60.56935191,,,,,,,,,,,,,,,,,,masks/mask_003.jpg,,,,,,,,,,,,,,,,,,,,,,,,,,,,,,,,,,,,,,,,,,,0,4,4,2,1,,,,,,,,,,,,,,,,,,,,,,,,,,,,,,,,,,,,,,,,,,,,,,
280973,001,2022-11-21_24h58.50.385,Info_measure_main_exp,2022.2.2,Win32,60.56935191,,,,,,,,,,,,,,,,,,masks/mask_004.jpg,,,,,,,,,,,,,,,,,,,,,,,,,,,,,,,,,,,,,,,,,,,,,,,,0,0,0,3,1,,,,,,,,,,,,,,,,,,,,,,,,,,,,,,,,,,,,,,,,,
280973,001,2022-11-21_24h58.50.385,Info_measure_main_exp,2022.2.2,Win32,60.56935191,,,,,,,,,,,,,,,,,,masks/mask_005.jpg,,,,,,,,,,,,,,,,,,,,,,,,,,,,,,,,,,,,,,,,,,,,,,,,0,1,1,4,1,,,,,,,,,,,,,,,,,,,,,,,,,,,,,,,,,,,,,,,,,
280973,001,2022-11-21_24h58.50.385,Info_measure_main_exp,2022.2.2,Win32,60.56935191,,,,,,,,,,,,,,,,,,masks/mask_003.jpg,,,,,,,,,,,,,,,,,,,,,,,,,,,,,,,,,,,,,,,,,,,,,,,,0,2,2,2,1,,,,,,,,,,,,,,,,,,,,,,,,,,,,,,,,,,,,,,,,,
280973,001,2022-11-21_24h58.50.385,Info_measure_main_exp,2022.2.2,Win32,60.56935191,,,,,,,,,,,,,,,,,,masks/mask_001.jpg,,,,,,,,,,,,,,,,,,,,,,,,,,,,,,,,,,,,,,,,,,,,,,,,0,3,3,0,1,,,,,,,,,,,,,,,,,,,,,,,,,,,,,,,,,,,,,,,,,
280973,001,2022-11-21_24h58.50.385,Info_measure_main_exp,2022.2.2,Win32,60.56935191,,,,,,,,,,,,,,,,,,masks/mask_002.jpg,,,,,,,,,,,,,,,,,,,,,,,,,,,,,,,,,,,,,,,,,,,,,,,,0,4,4,1,1,,,,,,,,,,,,,,,,,,,,,,,,,,,,,,,,,,,,,,,,,
280973,001,2022-11-21_24h58.50.385,Info_measure_main_exp,2022.2.2,Win32,60.56935191,,,,,,,,,,,,,,,,,,,,,,,,,,,,,,7,1.3251,1,,,,,,,,,,,,0,131,5,5,2082,2154,absent_patch/patch0002082.jpg,absent_patch/patch0002154.jpg,,,,,,,,,,,,,,,,,,,,0.037037065,0.094444444,1,0,0,response1disk,18,0.004629686,0.000925912,1,0,0,center_square,0,17,17,33,1,,,,,,,,,,,,,,,,,,,,,,,
280973,001,2022-11-21_24h58.50.385,Info_measure_main_exp,2022.2.2,Win32,60.56935191,,,,,,,,,,,,,,,,,,masks/mask_003.jpg,,,,,,,,,,,,,,,,,,,,,,,,,,,,,,,,,,,,,,,,,,,0,0,0,2,1,,,,,,,,,,,,,,,,,,,,,,,,,,,,,,,,,,,,,,,,,,,,,,
280973,001,2022-11-21_24h58.50.385,Info_measure_main_exp,2022.2.2,Win32,60.56935191,,,,,,,,,,,,,,,,,,masks/mask_004.jpg,,,,,,,,,,,,,,,,,,,,,,,,,,,,,,,,,,,,,,,,,,,0,1,1,3,1,,,,,,,,,,,,,,,,,,,,,,,,,,,,,,,,,,,,,,,,,,,,,,
280973,001,2022-11-21_24h58.50.385,Info_measure_main_exp,2022.2.2,Win32,60.56935191,,,,,,,,,,,,,,,,,,masks/mask_002.jpg,,,,,,,,,,,,,,,,,,,,,,,,,,,,,,,,,,,,,,,,,,,0,2,2,1,1,,,,,,,,,,,,,,,,,,,,,,,,,,,,,,,,,,,,,,,,,,,,,,
280973,001,2022-11-21_24h58.50.385,Info_measure_main_exp,2022.2.2,Win32,60.56935191,,,,,,,,,,,,,,,,,,masks/mask_001.jpg,,,,,,,,,,,,,,,,,,,,,,,,,,,,,,,,,,,,,,,,,,,0,3,3,0,1,,,,,,,,,,,,,,,,,,,,,,,,,,,,,,,,,,,,,,,,,,,,,,
280973,001,2022-11-21_24h58.50.385,Info_measure_main_exp,2022.2.2,Win32,60.56935191,,,,,,,,,,,,,,,,,,masks/mask_005.jpg,,,,,,,,,,,,,,,,,,,,,,,,,,,,,,,,,,,,,,,,,,,0,4,4,4,1,,,,,,,,,,,,,,,,,,,,,,,,,,,,,,,,,,,,,,,,,,,,,,
280973,001,2022-11-21_24h58.50.385,Info_measure_main_exp,2022.2.2,Win32,60.56935191,,,,,,,,,,,,,,,,,,masks/mask_004.jpg,,,,,,,,,,,,,,,,,,,,,,,,,,,,,,,,,,,,,,,,,,,,,,,,0,0,0,3,1,,,,,,,,,,,,,,,,,,,,,,,,,,,,,,,,,,,,,,,,,
280973,001,2022-11-21_24h58.50.385,Info_measure_main_exp,2022.2.2,Win32,60.56935191,,,,,,,,,,,,,,,,,,masks/mask_002.jpg,,,,,,,,,,,,,,,,,,,,,,,,,,,,,,,,,,,,,,,,,,,,,,,,0,1,1,1,1,,,,,,,,,,,,,,,,,,,,,,,,,,,,,,,,,,,,,,,,,
280973,001,2022-11-21_24h58.50.385,Info_measure_main_exp,2022.2.2,Win32,60.56935191,,,,,,,,,,,,,,,,,,masks/mask_003.jpg,,,,,,,,,,,,,,,,,,,,,,,,,,,,,,,,,,,,,,,,,,,,,,,,0,2,2,2,1,,,,,,,,,,,,,,,,,,,,,,,,,,,,,,,,,,,,,,,,,
280973,001,2022-11-21_24h58.50.385,Info_measure_main_exp,2022.2.2,Win32,60.56935191,,,,,,,,,,,,,,,,,,masks/mask_005.jpg,,,,,,,,,,,,,,,,,,,,,,,,,,,,,,,,,,,,,,,,,,,,,,,,0,3,3,4,1,,,,,,,,,,,,,,,,,,,,,,,,,,,,,,,,,,,,,,,,,
280973,001,2022-11-21_24h58.50.385,Info_measure_main_exp,2022.2.2,Win32,60.56935191,,,,,,,,,,,,,,,,,,masks/mask_001.jpg,,,,,,,,,,,,,,,,,,,,,,,,,,,,,,,,,,,,,,,,,,,,,,,,0,4,4,0,1,,,,,,,,,,,,,,,,,,,,,,,,,,,,,,,,,,,,,,,,,
280973,001,2022-11-21_24h58.50.385,Info_measure_main_exp,2022.2.2,Win32,60.56935191,,,,,,,,,,,,,,,,,,,,,,,,,,,,,,0,0.9655,1,,,,,,,,,,,,0,131,5,5,2166,2166,absent_patch/patch0002166.jpg,absent_patch/patch0002166.jpg,,,,,,,,,,,,,,,,,,,,-0.050925869,0.14351849,1,0,0,response7disk,19,0.003703732,-0.005555556,1,0,0,center_square,0,18,18,42,1,,,,,,,,,,,,,,,,,,,,,,,
280973,001,2022-11-21_24h58.50.385,Info_measure_main_exp,2022.2.2,Win32,60.56935191,,,,,,,,,,,,,,,,,,masks/mask_004.jpg,,,,,,,,,,,,,,,,,,,,,,,,,,,,,,,,,,,,,,,,,,,0,0,0,3,1,,,,,,,,,,,,,,,,,,,,,,,,,,,,,,,,,,,,,,,,,,,,,,
280973,001,2022-11-21_24h58.50.385,Info_measure_main_exp,2022.2.2,Win32,60.56935191,,,,,,,,,,,,,,,,,,masks/mask_002.jpg,,,,,,,,,,,,,,,,,,,,,,,,,,,,,,,,,,,,,,,,,,,0,1,1,1,1,,,,,,,,,,,,,,,,,,,,,,,,,,,,,,,,,,,,,,,,,,,,,,
280973,001,2022-11-21_24h58.50.385,Info_measure_main_exp,2022.2.2,Win32,60.56935191,,,,,,,,,,,,,,,,,,masks/mask_005.jpg,,,,,,,,,,,,,,,,,,,,,,,,,,,,,,,,,,,,,,,,,,,0,2,2,4,1,,,,,,,,,,,,,,,,,,,,,,,,,,,,,,,,,,,,,,,,,,,,,,
280973,001,2022-11-21_24h58.50.385,Info_measure_main_exp,2022.2.2,Win32,60.56935191,,,,,,,,,,,,,,,,,,masks/mask_003.jpg,,,,,,,,,,,,,,,,,,,,,,,,,,,,,,,,,,,,,,,,,,,0,3,3,2,1,,,,,,,,,,,,,,,,,,,,,,,,,,,,,,,,,,,,,,,,,,,,,,
280973,001,2022-11-21_24h58.50.385,Info_measure_main_exp,2022.2.2,Win32,60.56935191,,,,,,,,,,,,,,,,,,masks/mask_001.jpg,,,,,,,,,,,,,,,,,,,,,,,,,,,,,,,,,,,,,,,,,,,0,4,4,0,1,,,,,,,,,,,,,,,,,,,,,,,,,,,,,,,,,,,,,,,,,,,,,,
280973,001,2022-11-21_24h58.50.385,Info_measure_main_exp,2022.2.2,Win32,60.56935191,,,,,,,,,,,,,,,,,,masks/mask_001.jpg,,,,,,,,,,,,,,,,,,,,,,,,,,,,,,,,,,,,,,,,,,,,,,,,0,0,0,0,1,,,,,,,,,,,,,,,,,,,,,,,,,,,,,,,,,,,,,,,,,
280973,001,2022-11-21_24h58.50.385,Info_measure_main_exp,2022.2.2,Win32,60.56935191,,,,,,,,,,,,,,,,,,masks/mask_004.jpg,,,,,,,,,,,,,,,,,,,,,,,,,,,,,,,,,,,,,,,,,,,,,,,,0,1,1,3,1,,,,,,,,,,,,,,,,,,,,,,,,,,,,,,,,,,,,,,,,,
280973,001,2022-11-21_24h58.50.385,Info_measure_main_exp,2022.2.2,Win32,60.56935191,,,,,,,,,,,,,,,,,,masks/mask_003.jpg,,,,,,,,,,,,,,,,,,,,,,,,,,,,,,,,,,,,,,,,,,,,,,,,0,2,2,2,1,,,,,,,,,,,,,,,,,,,,,,,,,,,,,,,,,,,,,,,,,
280973,001,2022-11-21_24h58.50.385,Info_measure_main_exp,2022.2.2,Win32,60.56935191,,,,,,,,,,,,,,,,,,masks/mask_005.jpg,,,,,,,,,,,,,,,,,,,,,,,,,,,,,,,,,,,,,,,,,,,,,,,,0,3,3,4,1,,,,,,,,,,,,,,,,,,,,,,,,,,,,,,,,,,,,,,,,,
280973,001,2022-11-21_24h58.50.385,Info_measure_main_exp,2022.2.2,Win32,60.56935191,,,,,,,,,,,,,,,,,,masks/mask_002.jpg,,,,,,,,,,,,,,,,,,,,,,,,,,,,,,,,,,,,,,,,,,,,,,,,0,4,4,1,1,,,,,,,,,,,,,,,,,,,,,,,,,,,,,,,,,,,,,,,,,
280973,001,2022-11-21_24h58.50.385,Info_measure_main_exp,2022.2.2,Win32,60.56935191,,,,,,,,,,,,,,,,,,,,,,,,,,,,,,2,3.1828,1,,,,,,,,,,,,0,131,5,5,2142,2166,absent_patch/patch0002142.jpg,absent_patch/patch0002166.jpg,,,,,,,,,,,,,,,,,,,,-0.136111111,-0.070370399,1,0,0,response5disk,20,-0.000925869,-0.002777778,1,0,0,center_square,0,19,19,66,1,,,,,,,,,,,,,,,,,,,,,,,
280973,001,2022-11-21_24h58.50.385,Info_measure_main_exp,2022.2.2,Win32,60.56935191,,,,,,,,,,,,,,,,,,masks/mask_004.jpg,,,,,,,,,,,,,,,,,,,,,,,,,,,,,,,,,,,,,,,,,,,0,0,0,3,1,,,,,,,,,,,,,,,,,,,,,,,,,,,,,,,,,,,,,,,,,,,,,,
280973,001,2022-11-21_24h58.50.385,Info_measure_main_exp,2022.2.2,Win32,60.56935191,,,,,,,,,,,,,,,,,,masks/mask_002.jpg,,,,,,,,,,,,,,,,,,,,,,,,,,,,,,,,,,,,,,,,,,,0,1,1,1,1,,,,,,,,,,,,,,,,,,,,,,,,,,,,,,,,,,,,,,,,,,,,,,
280973,001,2022-11-21_24h58.50.385,Info_measure_main_exp,2022.2.2,Win32,60.56935191,,,,,,,,,,,,,,,,,,masks/mask_005.jpg,,,,,,,,,,,,,,,,,,,,,,,,,,,,,,,,,,,,,,,,,,,0,2,2,4,1,,,,,,,,,,,,,,,,,,,,,,,,,,,,,,,,,,,,,,,,,,,,,,
280973,001,2022-11-21_24h58.50.385,Info_measure_main_exp,2022.2.2,Win32,60.56935191,,,,,,,,,,,,,,,,,,masks/mask_001.jpg,,,,,,,,,,,,,,,,,,,,,,,,,,,,,,,,,,,,,,,,,,,0,3,3,0,1,,,,,,,,,,,,,,,,,,,,,,,,,,,,,,,,,,,,,,,,,,,,,,
280973,001,2022-11-21_24h58.50.385,Info_measure_main_exp,2022.2.2,Win32,60.56935191,,,,,,,,,,,,,,,,,,masks/mask_003.jpg,,,,,,,,,,,,,,,,,,,,,,,,,,,,,,,,,,,,,,,,,,,0,4,4,2,1,,,,,,,,,,,,,,,,,,,,,,,,,,,,,,,,,,,,,,,,,,,,,,
280973,001,2022-11-21_24h58.50.385,Info_measure_main_exp,2022.2.2,Win32,60.56935191,,,,,,,,,,,,,,,,,,masks/mask_001.jpg,,,,,,,,,,,,,,,,,,,,,,,,,,,,,,,,,,,,,,,,,,,,,,,,0,0,0,0,1,,,,,,,,,,,,,,,,,,,,,,,,,,,,,,,,,,,,,,,,,
280973,001,2022-11-21_24h58.50.385,Info_measure_main_exp,2022.2.2,Win32,60.56935191,,,,,,,,,,,,,,,,,,masks/mask_004.jpg,,,,,,,,,,,,,,,,,,,,,,,,,,,,,,,,,,,,,,,,,,,,,,,,0,1,1,3,1,,,,,,,,,,,,,,,,,,,,,,,,,,,,,,,,,,,,,,,,,
280973,001,2022-11-21_24h58.50.385,Info_measure_main_exp,2022.2.2,Win32,60.56935191,,,,,,,,,,,,,,,,,,masks/mask_005.jpg,,,,,,,,,,,,,,,,,,,,,,,,,,,,,,,,,,,,,,,,,,,,,,,,0,2,2,4,1,,,,,,,,,,,,,,,,,,,,,,,,,,,,,,,,,,,,,,,,,
280973,001,2022-11-21_24h58.50.385,Info_measure_main_exp,2022.2.2,Win32,60.56935191,,,,,,,,,,,,,,,,,,masks/mask_002.jpg,,,,,,,,,,,,,,,,,,,,,,,,,,,,,,,,,,,,,,,,,,,,,,,,0,3,3,1,1,,,,,,,,,,,,,,,,,,,,,,,,,,,,,,,,,,,,,,,,,
280973,001,2022-11-21_24h58.50.385,Info_measure_main_exp,2022.2.2,Win32,60.56935191,,,,,,,,,,,,,,,,,,masks/mask_003.jpg,,,,,,,,,,,,,,,,,,,,,,,,,,,,,,,,,,,,,,,,,,,,,,,,0,4,4,2,1,,,,,,,,,,,,,,,,,,,,,,,,,,,,,,,,,,,,,,,,,
280973,001,2022-11-21_24h58.50.385,Info_measure_main_exp,2022.2.2,Win32,60.56935191,,,,,,,,,,,,,,,,,,,,,,,,,,,,,,7,1.2491,1,,,,,,,,,,,,0,131,5,5,1974,2238,absent_patch/patch0001974.jpg,absent_patch/patch0002238.jpg,,,,,,,,,,,,,,,,,,,,0.035185242,0.179629623,1,0,0,response1disk,21,0.005555556,0.012962935,1,0,0,center_square,0,20,20,95,1,,,,,,,,,,,,,,,,,,,,,,,
280973,001,2022-11-21_24h58.50.385,Info_measure_main_exp,2022.2.2,Win32,60.56935191,,,,,,,,,,,,,,,,,,masks/mask_002.jpg,,,,,,,,,,,,,,,,,,,,,,,,,,,,,,,,,,,,,,,,,,,0,0,0,1,1,,,,,,,,,,,,,,,,,,,,,,,,,,,,,,,,,,,,,,,,,,,,,,
280973,001,2022-11-21_24h58.50.385,Info_measure_main_exp,2022.2.2,Win32,60.56935191,,,,,,,,,,,,,,,,,,masks/mask_001.jpg,,,,,,,,,,,,,,,,,,,,,,,,,,,,,,,,,,,,,,,,,,,0,1,1,0,1,,,,,,,,,,,,,,,,,,,,,,,,,,,,,,,,,,,,,,,,,,,,,,
280973,001,2022-11-21_24h58.50.385,Info_measure_main_exp,2022.2.2,Win32,60.56935191,,,,,,,,,,,,,,,,,,masks/mask_003.jpg,,,,,,,,,,,,,,,,,,,,,,,,,,,,,,,,,,,,,,,,,,,0,2,2,2,1,,,,,,,,,,,,,,,,,,,,,,,,,,,,,,,,,,,,,,,,,,,,,,
280973,001,2022-11-21_24h58.50.385,Info_measure_main_exp,2022.2.2,Win32,60.56935191,,,,,,,,,,,,,,,,,,masks/mask_004.jpg,,,,,,,,,,,,,,,,,,,,,,,,,,,,,,,,,,,,,,,,,,,0,3,3,3,1,,,,,,,,,,,,,,,,,,,,,,,,,,,,,,,,,,,,,,,,,,,,,,
280973,001,2022-11-21_24h58.50.385,Info_measure_main_exp,2022.2.2,Win32,60.56935191,,,,,,,,,,,,,,,,,,masks/mask_005.jpg,,,,,,,,,,,,,,,,,,,,,,,,,,,,,,,,,,,,,,,,,,,0,4,4,4,1,,,,,,,,,,,,,,,,,,,,,,,,,,,,,,,,,,,,,,,,,,,,,,
280973,001,2022-11-21_24h58.50.385,Info_measure_main_exp,2022.2.2,Win32,60.56935191,,,,,,,,,,,,,,,,,,masks/mask_002.jpg,,,,,,,,,,,,,,,,,,,,,,,,,,,,,,,,,,,,,,,,,,,,,,,,0,0,0,1,1,,,,,,,,,,,,,,,,,,,,,,,,,,,,,,,,,,,,,,,,,
280973,001,2022-11-21_24h58.50.385,Info_measure_main_exp,2022.2.2,Win32,60.56935191,,,,,,,,,,,,,,,,,,masks/mask_005.jpg,,,,,,,,,,,,,,,,,,,,,,,,,,,,,,,,,,,,,,,,,,,,,,,,0,1,1,4,1,,,,,,,,,,,,,,,,,,,,,,,,,,,,,,,,,,,,,,,,,
280973,001,2022-11-21_24h58.50.385,Info_measure_main_exp,2022.2.2,Win32,60.56935191,,,,,,,,,,,,,,,,,,masks/mask_001.jpg,,,,,,,,,,,,,,,,,,,,,,,,,,,,,,,,,,,,,,,,,,,,,,,,0,2,2,0,1,,,,,,,,,,,,,,,,,,,,,,,,,,,,,,,,,,,,,,,,,
280973,001,2022-11-21_24h58.50.385,Info_measure_main_exp,2022.2.2,Win32,60.56935191,,,,,,,,,,,,,,,,,,masks/mask_004.jpg,,,,,,,,,,,,,,,,,,,,,,,,,,,,,,,,,,,,,,,,,,,,,,,,0,3,3,3,1,,,,,,,,,,,,,,,,,,,,,,,,,,,,,,,,,,,,,,,,,
280973,001,2022-11-21_24h58.50.385,Info_measure_main_exp,2022.2.2,Win32,60.56935191,,,,,,,,,,,,,,,,,,masks/mask_003.jpg,,,,,,,,,,,,,,,,,,,,,,,,,,,,,,,,,,,,,,,,,,,,,,,,0,4,4,2,1,,,,,,,,,,,,,,,,,,,,,,,,,,,,,,,,,,,,,,,,,
280973,001,2022-11-21_24h58.50.385,Info_measure_main_exp,2022.2.2,Win32,60.56935191,,,,,,,,,,,,,,,,,,,,,,,,,,,,,,7,1.0492,1,,,,,,,,,,,,0,131,5,5,2154,1950,absent_patch/patch0002154.jpg,absent_patch/patch0001950.jpg,,,,,,,,,,,,,,,,,,,,0.03148151,0.139814801,1,0,0,response1disk,22,0,-0.00648151,1,0,0,center_square,0,21,21,96,1,,,,,,,,,,,,,,,,,,,,,,,
280973,001,2022-11-21_24h58.50.385,Info_measure_main_exp,2022.2.2,Win32,60.56935191,,,,,,,,,,,,,,,,,,masks/mask_005.jpg,,,,,,,,,,,,,,,,,,,,,,,,,,,,,,,,,,,,,,,,,,,0,0,0,4,1,,,,,,,,,,,,,,,,,,,,,,,,,,,,,,,,,,,,,,,,,,,,,,
280973,001,2022-11-21_24h58.50.385,Info_measure_main_exp,2022.2.2,Win32,60.56935191,,,,,,,,,,,,,,,,,,masks/mask_002.jpg,,,,,,,,,,,,,,,,,,,,,,,,,,,,,,,,,,,,,,,,,,,0,1,1,1,1,,,,,,,,,,,,,,,,,,,,,,,,,,,,,,,,,,,,,,,,,,,,,,
280973,001,2022-11-21_24h58.50.385,Info_measure_main_exp,2022.2.2,Win32,60.56935191,,,,,,,,,,,,,,,,,,masks/mask_001.jpg,,,,,,,,,,,,,,,,,,,,,,,,,,,,,,,,,,,,,,,,,,,0,2,2,0,1,,,,,,,,,,,,,,,,,,,,,,,,,,,,,,,,,,,,,,,,,,,,,,
280973,001,2022-11-21_24h58.50.385,Info_measure_main_exp,2022.2.2,Win32,60.56935191,,,,,,,,,,,,,,,,,,masks/mask_003.jpg,,,,,,,,,,,,,,,,,,,,,,,,,,,,,,,,,,,,,,,,,,,0,3,3,2,1,,,,,,,,,,,,,,,,,,,,,,,,,,,,,,,,,,,,,,,,,,,,,,
280973,001,2022-11-21_24h58.50.385,Info_measure_main_exp,2022.2.2,Win32,60.56935191,,,,,,,,,,,,,,,,,,masks/mask_004.jpg,,,,,,,,,,,,,,,,,,,,,,,,,,,,,,,,,,,,,,,,,,,0,4,4,3,1,,,,,,,,,,,,,,,,,,,,,,,,,,,,,,,,,,,,,,,,,,,,,,
280973,001,2022-11-21_24h58.50.385,Info_measure_main_exp,2022.2.2,Win32,60.56935191,,,,,,,,,,,,,,,,,,masks/mask_001.jpg,,,,,,,,,,,,,,,,,,,,,,,,,,,,,,,,,,,,,,,,,,,,,,,,0,0,0,0,1,,,,,,,,,,,,,,,,,,,,,,,,,,,,,,,,,,,,,,,,,
280973,001,2022-11-21_24h58.50.385,Info_measure_main_exp,2022.2.2,Win32,60.56935191,,,,,,,,,,,,,,,,,,masks/mask_003.jpg,,,,,,,,,,,,,,,,,,,,,,,,,,,,,,,,,,,,,,,,,,,,,,,,0,1,1,2,1,,,,,,,,,,,,,,,,,,,,,,,,,,,,,,,,,,,,,,,,,
280973,001,2022-11-21_24h58.50.385,Info_measure_main_exp,2022.2.2,Win32,60.56935191,,,,,,,,,,,,,,,,,,masks/mask_004.jpg,,,,,,,,,,,,,,,,,,,,,,,,,,,,,,,,,,,,,,,,,,,,,,,,0,2,2,3,1,,,,,,,,,,,,,,,,,,,,,,,,,,,,,,,,,,,,,,,,,
280973,001,2022-11-21_24h58.50.385,Info_measure_main_exp,2022.2.2,Win32,60.56935191,,,,,,,,,,,,,,,,,,masks/mask_002.jpg,,,,,,,,,,,,,,,,,,,,,,,,,,,,,,,,,,,,,,,,,,,,,,,,0,3,3,1,1,,,,,,,,,,,,,,,,,,,,,,,,,,,,,,,,,,,,,,,,,
280973,001,2022-11-21_24h58.50.385,Info_measure_main_exp,2022.2.2,Win32,60.56935191,,,,,,,,,,,,,,,,,,masks/mask_005.jpg,,,,,,,,,,,,,,,,,,,,,,,,,,,,,,,,,,,,,,,,,,,,,,,,0,4,4,4,1,,,,,,,,,,,,,,,,,,,,,,,,,,,,,,,,,,,,,,,,,
280973,001,2022-11-21_24h58.50.385,Info_measure_main_exp,2022.2.2,Win32,60.56935191,,,,,,,,,,,,,,,,,,,,,,,,,,,,,,7,0.8654,1,,,,,,,,,,,,0,131,5,5,2178,2154,absent_patch/patch0002178.jpg,absent_patch/patch0002154.jpg,,,,,,,,,,,,,,,,,,,,0.051851908,0.144444444,1,0,0,response1disk,23,-0.007407379,0.006481467,1,0,0,center_square,0,22,22,63,1,,,,,,,,,,,,,,,,,,,,,,,
280973,001,2022-11-21_24h58.50.385,Info_measure_main_exp,2022.2.2,Win32,60.56935191,,,,,,,,,,,,,,,,,,masks/mask_002.jpg,,,,,,,,,,,,,,,,,,,,,,,,,,,,,,,,,,,,,,,,,,,0,0,0,1,1,,,,,,,,,,,,,,,,,,,,,,,,,,,,,,,,,,,,,,,,,,,,,,
280973,001,2022-11-21_24h58.50.385,Info_measure_main_exp,2022.2.2,Win32,60.56935191,,,,,,,,,,,,,,,,,,masks/mask_005.jpg,,,,,,,,,,,,,,,,,,,,,,,,,,,,,,,,,,,,,,,,,,,0,1,1,4,1,,,,,,,,,,,,,,,,,,,,,,,,,,,,,,,,,,,,,,,,,,,,,,
280973,001,2022-11-21_24h58.50.385,Info_measure_main_exp,2022.2.2,Win32,60.56935191,,,,,,,,,,,,,,,,,,masks/mask_004.jpg,,,,,,,,,,,,,,,,,,,,,,,,,,,,,,,,,,,,,,,,,,,0,2,2,3,1,,,,,,,,,,,,,,,,,,,,,,,,,,,,,,,,,,,,,,,,,,,,,,
280973,001,2022-11-21_24h58.50.385,Info_measure_main_exp,2022.2.2,Win32,60.56935191,,,,,,,,,,,,,,,,,,masks/mask_003.jpg,,,,,,,,,,,,,,,,,,,,,,,,,,,,,,,,,,,,,,,,,,,0,3,3,2,1,,,,,,,,,,,,,,,,,,,,,,,,,,,,,,,,,,,,,,,,,,,,,,
280973,001,2022-11-21_24h58.50.385,Info_measure_main_exp,2022.2.2,Win32,60.56935191,,,,,,,,,,,,,,,,,,masks/mask_001.jpg,,,,,,,,,,,,,,,,,,,,,,,,,,,,,,,,,,,,,,,,,,,0,4,4,0,1,,,,,,,,,,,,,,,,,,,,,,,,,,,,,,,,,,,,,,,,,,,,,,
280973,001,2022-11-21_24h58.50.385,Info_measure_main_exp,2022.2.2,Win32,60.56935191,,,,,,,,,,,,,,,,,,masks/mask_004.jpg,,,,,,,,,,,,,,,,,,,,,,,,,,,,,,,,,,,,,,,,,,,,,,,,0,0,0,3,1,,,,,,,,,,,,,,,,,,,,,,,,,,,,,,,,,,,,,,,,,
280973,001,2022-11-21_24h58.50.385,Info_measure_main_exp,2022.2.2,Win32,60.56935191,,,,,,,,,,,,,,,,,,masks/mask_005.jpg,,,,,,,,,,,,,,,,,,,,,,,,,,,,,,,,,,,,,,,,,,,,,,,,0,1,1,4,1,,,,,,,,,,,,,,,,,,,,,,,,,,,,,,,,,,,,,,,,,
280973,001,2022-11-21_24h58.50.385,Info_measure_main_exp,2022.2.2,Win32,60.56935191,,,,,,,,,,,,,,,,,,masks/mask_002.jpg,,,,,,,,,,,,,,,,,,,,,,,,,,,,,,,,,,,,,,,,,,,,,,,,0,2,2,1,1,,,,,,,,,,,,,,,,,,,,,,,,,,,,,,,,,,,,,,,,,
280973,001,2022-11-21_24h58.50.385,Info_measure_main_exp,2022.2.2,Win32,60.56935191,,,,,,,,,,,,,,,,,,masks/mask_001.jpg,,,,,,,,,,,,,,,,,,,,,,,,,,,,,,,,,,,,,,,,,,,,,,,,0,3,3,0,1,,,,,,,,,,,,,,,,,,,,,,,,,,,,,,,,,,,,,,,,,
280973,001,2022-11-21_24h58.50.385,Info_measure_main_exp,2022.2.2,Win32,60.56935191,,,,,,,,,,,,,,,,,,masks/mask_003.jpg,,,,,,,,,,,,,,,,,,,,,,,,,,,,,,,,,,,,,,,,,,,,,,,,0,4,4,2,1,,,,,,,,,,,,,,,,,,,,,,,,,,,,,,,,,,,,,,,,,
280973,001,2022-11-21_24h58.50.385,Info_measure_main_exp,2022.2.2,Win32,60.56935191,,,,,,,,,,,,,,,,,,,,,,,,,,,,,,7,1.6742,1,,,,,,,,,,,,0,131,5,5,2214,2166,absent_patch/patch0002214.jpg,absent_patch/patch0002166.jpg,,,,,,,,,,,,,,,,,,,,0.062963019,0.156481467,1,0,0,response1disk,24,-0.002777778,0.004629601,1,0,0,center_square,0,23,23,109,1,,,,,,,,,,,,,,,,,,,,,,,
280973,001,2022-11-21_24h58.50.385,Info_measure_main_exp,2022.2.2,Win32,60.56935191,,,,,,,,,,,,,,,,,,masks/mask_005.jpg,,,,,,,,,,,,,,,,,,,,,,,,,,,,,,,,,,,,,,,,,,,0,0,0,4,1,,,,,,,,,,,,,,,,,,,,,,,,,,,,,,,,,,,,,,,,,,,,,,
280973,001,2022-11-21_24h58.50.385,Info_measure_main_exp,2022.2.2,Win32,60.56935191,,,,,,,,,,,,,,,,,,masks/mask_003.jpg,,,,,,,,,,,,,,,,,,,,,,,,,,,,,,,,,,,,,,,,,,,0,1,1,2,1,,,,,,,,,,,,,,,,,,,,,,,,,,,,,,,,,,,,,,,,,,,,,,
280973,001,2022-11-21_24h58.50.385,Info_measure_main_exp,2022.2.2,Win32,60.56935191,,,,,,,,,,,,,,,,,,masks/mask_001.jpg,,,,,,,,,,,,,,,,,,,,,,,,,,,,,,,,,,,,,,,,,,,0,2,2,0,1,,,,,,,,,,,,,,,,,,,,,,,,,,,,,,,,,,,,,,,,,,,,,,
280973,001,2022-11-21_24h58.50.385,Info_measure_main_exp,2022.2.2,Win32,60.56935191,,,,,,,,,,,,,,,,,,masks/mask_002.jpg,,,,,,,,,,,,,,,,,,,,,,,,,,,,,,,,,,,,,,,,,,,0,3,3,1,1,,,,,,,,,,,,,,,,,,,,,,,,,,,,,,,,,,,,,,,,,,,,,,
280973,001,2022-11-21_24h58.50.385,Info_measure_main_exp,2022.2.2,Win32,60.56935191,,,,,,,,,,,,,,,,,,masks/mask_004.jpg,,,,,,,,,,,,,,,,,,,,,,,,,,,,,,,,,,,,,,,,,,,0,4,4,3,1,,,,,,,,,,,,,,,,,,,,,,,,,,,,,,,,,,,,,,,,,,,,,,
280973,001,2022-11-21_24h58.50.385,Info_measure_main_exp,2022.2.2,Win32,60.56935191,,,,,,,,,,,,,,,,,,masks/mask_004.jpg,,,,,,,,,,,,,,,,,,,,,,,,,,,,,,,,,,,,,,,,,,,,,,,,0,0,0,3,1,,,,,,,,,,,,,,,,,,,,,,,,,,,,,,,,,,,,,,,,,
280973,001,2022-11-21_24h58.50.385,Info_measure_main_exp,2022.2.2,Win32,60.56935191,,,,,,,,,,,,,,,,,,masks/mask_003.jpg,,,,,,,,,,,,,,,,,,,,,,,,,,,,,,,,,,,,,,,,,,,,,,,,0,1,1,2,1,,,,,,,,,,,,,,,,,,,,,,,,,,,,,,,,,,,,,,,,,
280973,001,2022-11-21_24h58.50.385,Info_measure_main_exp,2022.2.2,Win32,60.56935191,,,,,,,,,,,,,,,,,,masks/mask_001.jpg,,,,,,,,,,,,,,,,,,,,,,,,,,,,,,,,,,,,,,,,,,,,,,,,0,2,2,0,1,,,,,,,,,,,,,,,,,,,,,,,,,,,,,,,,,,,,,,,,,
280973,001,2022-11-21_24h58.50.385,Info_measure_main_exp,2022.2.2,Win32,60.56935191,,,,,,,,,,,,,,,,,,masks/mask_002.jpg,,,,,,,,,,,,,,,,,,,,,,,,,,,,,,,,,,,,,,,,,,,,,,,,0,3,3,1,1,,,,,,,,,,,,,,,,,,,,,,,,,,,,,,,,,,,,,,,,,
280973,001,2022-11-21_24h58.50.385,Info_measure_main_exp,2022.2.2,Win32,60.56935191,,,,,,,,,,,,,,,,,,masks/mask_005.jpg,,,,,,,,,,,,,,,,,,,,,,,,,,,,,,,,,,,,,,,,,,,,,,,,0,4,4,4,1,,,,,,,,,,,,,,,,,,,,,,,,,,,,,,,,,,,,,,,,,
280973,001,2022-11-21_24h58.50.385,Info_measure_main_exp,2022.2.2,Win32,60.56935191,,,,,,,,,,,,,,,,,,,,,,,,,,,,,,5,2.0321,1,,,,,,,,,,,,0,131,5,5,2274,2214,absent_patch/patch0002274.jpg,absent_patch/patch0002214.jpg,,,,,,,,,,,,,,,,,,,,0.149074131,-0.068518533,1,0,0,response3disk,25,0.008333333,0.002777778,1,0,0,center_square,0,24,24,11,1,,,,,,,,,,,,,,,,,,,,,,,
280973,001,2022-11-21_24h58.50.385,Info_measure_main_exp,2022.2.2,Win32,60.56935191,,,,,,,,,,,,,,,,,,masks/mask_004.jpg,,,,,,,,,,,,,,,,,,,,,,,,,,,,,,,,,,,,,,,,,,,0,0,0,3,1,,,,,,,,,,,,,,,,,,,,,,,,,,,,,,,,,,,,,,,,,,,,,,
280973,001,2022-11-21_24h58.50.385,Info_measure_main_exp,2022.2.2,Win32,60.56935191,,,,,,,,,,,,,,,,,,masks/mask_005.jpg,,,,,,,,,,,,,,,,,,,,,,,,,,,,,,,,,,,,,,,,,,,0,1,1,4,1,,,,,,,,,,,,,,,,,,,,,,,,,,,,,,,,,,,,,,,,,,,,,,
280973,001,2022-11-21_24h58.50.385,Info_measure_main_exp,2022.2.2,Win32,60.56935191,,,,,,,,,,,,,,,,,,masks/mask_001.jpg,,,,,,,,,,,,,,,,,,,,,,,,,,,,,,,,,,,,,,,,,,,0,2,2,0,1,,,,,,,,,,,,,,,,,,,,,,,,,,,,,,,,,,,,,,,,,,,,,,
280973,001,2022-11-21_24h58.50.385,Info_measure_main_exp,2022.2.2,Win32,60.56935191,,,,,,,,,,,,,,,,,,masks/mask_002.jpg,,,,,,,,,,,,,,,,,,,,,,,,,,,,,,,,,,,,,,,,,,,0,3,3,1,1,,,,,,,,,,,,,,,,,,,,,,,,,,,,,,,,,,,,,,,,,,,,,,
280973,001,2022-11-21_24h58.50.385,Info_measure_main_exp,2022.2.2,Win32,60.56935191,,,,,,,,,,,,,,,,,,masks/mask_003.jpg,,,,,,,,,,,,,,,,,,,,,,,,,,,,,,,,,,,,,,,,,,,0,4,4,2,1,,,,,,,,,,,,,,,,,,,,,,,,,,,,,,,,,,,,,,,,,,,,,,
280973,001,2022-11-21_24h58.50.385,Info_measure_main_exp,2022.2.2,Win32,60.56935191,,,,,,,,,,,,,,,,,,masks/mask_001.jpg,,,,,,,,,,,,,,,,,,,,,,,,,,,,,,,,,,,,,,,,,,,,,,,,0,0,0,0,1,,,,,,,,,,,,,,,,,,,,,,,,,,,,,,,,,,,,,,,,,
280973,001,2022-11-21_24h58.50.385,Info_measure_main_exp,2022.2.2,Win32,60.56935191,,,,,,,,,,,,,,,,,,masks/mask_003.jpg,,,,,,,,,,,,,,,,,,,,,,,,,,,,,,,,,,,,,,,,,,,,,,,,0,1,1,2,1,,,,,,,,,,,,,,,,,,,,,,,,,,,,,,,,,,,,,,,,,
280973,001,2022-11-21_24h58.50.385,Info_measure_main_exp,2022.2.2,Win32,60.56935191,,,,,,,,,,,,,,,,,,masks/mask_002.jpg,,,,,,,,,,,,,,,,,,,,,,,,,,,,,,,,,,,,,,,,,,,,,,,,0,2,2,1,1,,,,,,,,,,,,,,,,,,,,,,,,,,,,,,,,,,,,,,,,,
280973,001,2022-11-21_24h58.50.385,Info_measure_main_exp,2022.2.2,Win32,60.56935191,,,,,,,,,,,,,,,,,,masks/mask_004.jpg,,,,,,,,,,,,,,,,,,,,,,,,,,,,,,,,,,,,,,,,,,,,,,,,0,3,3,3,1,,,,,,,,,,,,,,,,,,,,,,,,,,,,,,,,,,,,,,,,,
280973,001,2022-11-21_24h58.50.385,Info_measure_main_exp,2022.2.2,Win32,60.56935191,,,,,,,,,,,,,,,,,,masks/mask_005.jpg,,,,,,,,,,,,,,,,,,,,,,,,,,,,,,,,,,,,,,,,,,,,,,,,0,4,4,4,1,,,,,,,,,,,,,,,,,,,,,,,,,,,,,,,,,,,,,,,,,
280973,001,2022-11-21_24h58.50.385,Info_measure_main_exp,2022.2.2,Win32,60.56935191,,,,,,,,,,,,,,,,,,,,,,,,,,,,,,6,5.2651,1,,,,,,,,,,,,0,131,5,5,1950,2082,absent_patch/patch0001950.jpg,absent_patch/patch0002082.jpg,,,,,,,,,,,,,,,,,,,,0.130555556,0.023148134,1,0,0,response1disk,26,0.001851908,0.006481467,1,0,0,center_square,0,25,25,12,1,,,,,,,,,,,,,,,,,,,,,,,
280973,001,2022-11-21_24h58.50.385,Info_measure_main_exp,2022.2.2,Win32,60.56935191,,,,,,,,,,,,,,,,,,masks/mask_005.jpg,,,,,,,,,,,,,,,,,,,,,,,,,,,,,,,,,,,,,,,,,,,0,0,0,4,1,,,,,,,,,,,,,,,,,,,,,,,,,,,,,,,,,,,,,,,,,,,,,,
280973,001,2022-11-21_24h58.50.385,Info_measure_main_exp,2022.2.2,Win32,60.56935191,,,,,,,,,,,,,,,,,,masks/mask_001.jpg,,,,,,,,,,,,,,,,,,,,,,,,,,,,,,,,,,,,,,,,,,,0,1,1,0,1,,,,,,,,,,,,,,,,,,,,,,,,,,,,,,,,,,,,,,,,,,,,,,
280973,001,2022-11-21_24h58.50.385,Info_measure_main_exp,2022.2.2,Win32,60.56935191,,,,,,,,,,,,,,,,,,masks/mask_003.jpg,,,,,,,,,,,,,,,,,,,,,,,,,,,,,,,,,,,,,,,,,,,0,2,2,2,1,,,,,,,,,,,,,,,,,,,,,,,,,,,,,,,,,,,,,,,,,,,,,,
280973,001,2022-11-21_24h58.50.385,Info_measure_main_exp,2022.2.2,Win32,60.56935191,,,,,,,,,,,,,,,,,,masks/mask_002.jpg,,,,,,,,,,,,,,,,,,,,,,,,,,,,,,,,,,,,,,,,,,,0,3,3,1,1,,,,,,,,,,,,,,,,,,,,,,,,,,,,,,,,,,,,,,,,,,,,,,
280973,001,2022-11-21_24h58.50.385,Info_measure_main_exp,2022.2.2,Win32,60.56935191,,,,,,,,,,,,,,,,,,masks/mask_004.jpg,,,,,,,,,,,,,,,,,,,,,,,,,,,,,,,,,,,,,,,,,,,0,4,4,3,1,,,,,,,,,,,,,,,,,,,,,,,,,,,,,,,,,,,,,,,,,,,,,,
280973,001,2022-11-21_24h58.50.385,Info_measure_main_exp,2022.2.2,Win32,60.56935191,,,,,,,,,,,,,,,,,,masks/mask_002.jpg,,,,,,,,,,,,,,,,,,,,,,,,,,,,,,,,,,,,,,,,,,,,,,,,0,0,0,1,1,,,,,,,,,,,,,,,,,,,,,,,,,,,,,,,,,,,,,,,,,
280973,001,2022-11-21_24h58.50.385,Info_measure_main_exp,2022.2.2,Win32,60.56935191,,,,,,,,,,,,,,,,,,masks/mask_001.jpg,,,,,,,,,,,,,,,,,,,,,,,,,,,,,,,,,,,,,,,,,,,,,,,,0,1,1,0,1,,,,,,,,,,,,,,,,,,,,,,,,,,,,,,,,,,,,,,,,,
280973,001,2022-11-21_24h58.50.385,Info_measure_main_exp,2022.2.2,Win32,60.56935191,,,,,,,,,,,,,,,,,,masks/mask_004.jpg,,,,,,,,,,,,,,,,,,,,,,,,,,,,,,,,,,,,,,,,,,,,,,,,0,2,2,3,1,,,,,,,,,,,,,,,,,,,,,,,,,,,,,,,,,,,,,,,,,
280973,001,2022-11-21_24h58.50.385,Info_measure_main_exp,2022.2.2,Win32,60.56935191,,,,,,,,,,,,,,,,,,masks/mask_005.jpg,,,,,,,,,,,,,,,,,,,,,,,,,,,,,,,,,,,,,,,,,,,,,,,,0,3,3,4,1,,,,,,,,,,,,,,,,,,,,,,,,,,,,,,,,,,,,,,,,,
280973,001,2022-11-21_24h58.50.385,Info_measure_main_exp,2022.2.2,Win32,60.56935191,,,,,,,,,,,,,,,,,,masks/mask_003.jpg,,,,,,,,,,,,,,,,,,,,,,,,,,,,,,,,,,,,,,,,,,,,,,,,0,4,4,2,1,,,,,,,,,,,,,,,,,,,,,,,,,,,,,,,,,,,,,,,,,
280973,001,2022-11-21_24h58.50.385,Info_measure_main_exp,2022.2.2,Win32,60.56935191,,,,,,,,,,,,,,,,,,,,,,,,,,,,,,6,1.299,1,,,,,,,,,,,,0,131,5,5,2190,2166,absent_patch/patch0002190.jpg,absent_patch/patch0002166.jpg,,,,,,,,,,,,,,,,,,,,0.116666667,0.017592578,1,0,0,response1disk,27,-0.000925869,0,1,0,0,center_square,0,26,26,50,1,,,,,,,,,,,,,,,,,,,,,,,
280973,001,2022-11-21_24h58.50.385,Info_measure_main_exp,2022.2.2,Win32,60.56935191,,,,,,,,,,,,,,,,,,masks/mask_002.jpg,,,,,,,,,,,,,,,,,,,,,,,,,,,,,,,,,,,,,,,,,,,0,0,0,1,1,,,,,,,,,,,,,,,,,,,,,,,,,,,,,,,,,,,,,,,,,,,,,,
280973,001,2022-11-21_24h58.50.385,Info_measure_main_exp,2022.2.2,Win32,60.56935191,,,,,,,,,,,,,,,,,,masks/mask_005.jpg,,,,,,,,,,,,,,,,,,,,,,,,,,,,,,,,,,,,,,,,,,,0,1,1,4,1,,,,,,,,,,,,,,,,,,,,,,,,,,,,,,,,,,,,,,,,,,,,,,
280973,001,2022-11-21_24h58.50.385,Info_measure_main_exp,2022.2.2,Win32,60.56935191,,,,,,,,,,,,,,,,,,masks/mask_003.jpg,,,,,,,,,,,,,,,,,,,,,,,,,,,,,,,,,,,,,,,,,,,0,2,2,2,1,,,,,,,,,,,,,,,,,,,,,,,,,,,,,,,,,,,,,,,,,,,,,,
280973,001,2022-11-21_24h58.50.385,Info_measure_main_exp,2022.2.2,Win32,60.56935191,,,,,,,,,,,,,,,,,,masks/mask_001.jpg,,,,,,,,,,,,,,,,,,,,,,,,,,,,,,,,,,,,,,,,,,,0,3,3,0,1,,,,,,,,,,,,,,,,,,,,,,,,,,,,,,,,,,,,,,,,,,,,,,
280973,001,2022-11-21_24h58.50.385,Info_measure_main_exp,2022.2.2,Win32,60.56935191,,,,,,,,,,,,,,,,,,masks/mask_004.jpg,,,,,,,,,,,,,,,,,,,,,,,,,,,,,,,,,,,,,,,,,,,0,4,4,3,1,,,,,,,,,,,,,,,,,,,,,,,,,,,,,,,,,,,,,,,,,,,,,,
280973,001,2022-11-21_24h58.50.385,Info_measure_main_exp,2022.2.2,Win32,60.56935191,,,,,,,,,,,,,,,,,,masks/mask_005.jpg,,,,,,,,,,,,,,,,,,,,,,,,,,,,,,,,,,,,,,,,,,,,,,,,0,0,0,4,1,,,,,,,,,,,,,,,,,,,,,,,,,,,,,,,,,,,,,,,,,
280973,001,2022-11-21_24h58.50.385,Info_measure_main_exp,2022.2.2,Win32,60.56935191,,,,,,,,,,,,,,,,,,masks/mask_003.jpg,,,,,,,,,,,,,,,,,,,,,,,,,,,,,,,,,,,,,,,,,,,,,,,,0,1,1,2,1,,,,,,,,,,,,,,,,,,,,,,,,,,,,,,,,,,,,,,,,,
280973,001,2022-11-21_24h58.50.385,Info_measure_main_exp,2022.2.2,Win32,60.56935191,,,,,,,,,,,,,,,,,,masks/mask_004.jpg,,,,,,,,,,,,,,,,,,,,,,,,,,,,,,,,,,,,,,,,,,,,,,,,0,2,2,3,1,,,,,,,,,,,,,,,,,,,,,,,,,,,,,,,,,,,,,,,,,
280973,001,2022-11-21_24h58.50.385,Info_measure_main_exp,2022.2.2,Win32,60.56935191,,,,,,,,,,,,,,,,,,masks/mask_001.jpg,,,,,,,,,,,,,,,,,,,,,,,,,,,,,,,,,,,,,,,,,,,,,,,,0,3,3,0,1,,,,,,,,,,,,,,,,,,,,,,,,,,,,,,,,,,,,,,,,,
280973,001,2022-11-21_24h58.50.385,Info_measure_main_exp,2022.2.2,Win32,60.56935191,,,,,,,,,,,,,,,,,,masks/mask_002.jpg,,,,,,,,,,,,,,,,,,,,,,,,,,,,,,,,,,,,,,,,,,,,,,,,0,4,4,1,1,,,,,,,,,,,,,,,,,,,,,,,,,,,,,,,,,,,,,,,,,
280973,001,2022-11-21_24h58.50.385,Info_measure_main_exp,2022.2.2,Win32,60.56935191,,,,,,,,,,,,,,,,,,,,,,,,,,,,,,4,1.3666,1,,,,,,,,,,,,0,131,5,5,2154,2214,absent_patch/patch0002154.jpg,absent_patch/patch0002214.jpg,,,,,,,,,,,,,,,,,,,,0.027777778,-0.115740755,1,0,0,response3disk,28,0.001851908,0.006481467,1,0,0,center_square,0,27,27,67,1,,,,,,,,,,,,,,,,,,,,,,,
280973,001,2022-11-21_24h58.50.385,Info_measure_main_exp,2022.2.2,Win32,60.56935191,,,,,,,,,,,,,,,,,,masks/mask_001.jpg,,,,,,,,,,,,,,,,,,,,,,,,,,,,,,,,,,,,,,,,,,,0,0,0,0,1,,,,,,,,,,,,,,,,,,,,,,,,,,,,,,,,,,,,,,,,,,,,,,
280973,001,2022-11-21_24h58.50.385,Info_measure_main_exp,2022.2.2,Win32,60.56935191,,,,,,,,,,,,,,,,,,masks/mask_002.jpg,,,,,,,,,,,,,,,,,,,,,,,,,,,,,,,,,,,,,,,,,,,0,1,1,1,1,,,,,,,,,,,,,,,,,,,,,,,,,,,,,,,,,,,,,,,,,,,,,,
280973,001,2022-11-21_24h58.50.385,Info_measure_main_exp,2022.2.2,Win32,60.56935191,,,,,,,,,,,,,,,,,,masks/mask_003.jpg,,,,,,,,,,,,,,,,,,,,,,,,,,,,,,,,,,,,,,,,,,,0,2,2,2,1,,,,,,,,,,,,,,,,,,,,,,,,,,,,,,,,,,,,,,,,,,,,,,
280973,001,2022-11-21_24h58.50.385,Info_measure_main_exp,2022.2.2,Win32,60.56935191,,,,,,,,,,,,,,,,,,masks/mask_004.jpg,,,,,,,,,,,,,,,,,,,,,,,,,,,,,,,,,,,,,,,,,,,0,3,3,3,1,,,,,,,,,,,,,,,,,,,,,,,,,,,,,,,,,,,,,,,,,,,,,,
280973,001,2022-11-21_24h58.50.385,Info_measure_main_exp,2022.2.2,Win32,60.56935191,,,,,,,,,,,,,,,,,,masks/mask_005.jpg,,,,,,,,,,,,,,,,,,,,,,,,,,,,,,,,,,,,,,,,,,,0,4,4,4,1,,,,,,,,,,,,,,,,,,,,,,,,,,,,,,,,,,,,,,,,,,,,,,
280973,001,2022-11-21_24h58.50.385,Info_measure_main_exp,2022.2.2,Win32,60.56935191,,,,,,,,,,,,,,,,,,masks/mask_005.jpg,,,,,,,,,,,,,,,,,,,,,,,,,,,,,,,,,,,,,,,,,,,,,,,,0,0,0,4,1,,,,,,,,,,,,,,,,,,,,,,,,,,,,,,,,,,,,,,,,,
280973,001,2022-11-21_24h58.50.385,Info_measure_main_exp,2022.2.2,Win32,60.56935191,,,,,,,,,,,,,,,,,,masks/mask_002.jpg,,,,,,,,,,,,,,,,,,,,,,,,,,,,,,,,,,,,,,,,,,,,,,,,0,1,1,1,1,,,,,,,,,,,,,,,,,,,,,,,,,,,,,,,,,,,,,,,,,
280973,001,2022-11-21_24h58.50.385,Info_measure_main_exp,2022.2.2,Win32,60.56935191,,,,,,,,,,,,,,,,,,masks/mask_003.jpg,,,,,,,,,,,,,,,,,,,,,,,,,,,,,,,,,,,,,,,,,,,,,,,,0,2,2,2,1,,,,,,,,,,,,,,,,,,,,,,,,,,,,,,,,,,,,,,,,,
280973,001,2022-11-21_24h58.50.385,Info_measure_main_exp,2022.2.2,Win32,60.56935191,,,,,,,,,,,,,,,,,,masks/mask_004.jpg,,,,,,,,,,,,,,,,,,,,,,,,,,,,,,,,,,,,,,,,,,,,,,,,0,3,3,3,1,,,,,,,,,,,,,,,,,,,,,,,,,,,,,,,,,,,,,,,,,
280973,001,2022-11-21_24h58.50.385,Info_measure_main_exp,2022.2.2,Win32,60.56935191,,,,,,,,,,,,,,,,,,masks/mask_001.jpg,,,,,,,,,,,,,,,,,,,,,,,,,,,,,,,,,,,,,,,,,,,,,,,,0,4,4,0,1,,,,,,,,,,,,,,,,,,,,,,,,,,,,,,,,,,,,,,,,,
280973,001,2022-11-21_24h58.50.385,Info_measure_main_exp,2022.2.2,Win32,60.56935191,,,,,,,,,,,,,,,,,,,,,,,,,,,,,,7,1.1155,1,,,,,,,,,,,,0,131,5,5,1950,2214,absent_patch/patch0001950.jpg,absent_patch/patch0002214.jpg,,,,,,,,,,,,,,,,,,,,0.083333333,0.117592578,1,0,0,response1disk,29,0.002777778,0.009259245,1,0,0,center_square,0,28,28,85,1,,,,,,,,,,,,,,,,,,,,,,,
280973,001,2022-11-21_24h58.50.385,Info_measure_main_exp,2022.2.2,Win32,60.56935191,,,,,,,,,,,,,,,,,,masks/mask_001.jpg,,,,,,,,,,,,,,,,,,,,,,,,,,,,,,,,,,,,,,,,,,,0,0,0,0,1,,,,,,,,,,,,,,,,,,,,,,,,,,,,,,,,,,,,,,,,,,,,,,
280973,001,2022-11-21_24h58.50.385,Info_measure_main_exp,2022.2.2,Win32,60.56935191,,,,,,,,,,,,,,,,,,masks/mask_004.jpg,,,,,,,,,,,,,,,,,,,,,,,,,,,,,,,,,,,,,,,,,,,0,1,1,3,1,,,,,,,,,,,,,,,,,,,,,,,,,,,,,,,,,,,,,,,,,,,,,,
280973,001,2022-11-21_24h58.50.385,Info_measure_main_exp,2022.2.2,Win32,60.56935191,,,,,,,,,,,,,,,,,,masks/mask_002.jpg,,,,,,,,,,,,,,,,,,,,,,,,,,,,,,,,,,,,,,,,,,,0,2,2,1,1,,,,,,,,,,,,,,,,,,,,,,,,,,,,,,,,,,,,,,,,,,,,,,
280973,001,2022-11-21_24h58.50.385,Info_measure_main_exp,2022.2.2,Win32,60.56935191,,,,,,,,,,,,,,,,,,masks/mask_003.jpg,,,,,,,,,,,,,,,,,,,,,,,,,,,,,,,,,,,,,,,,,,,0,3,3,2,1,,,,,,,,,,,,,,,,,,,,,,,,,,,,,,,,,,,,,,,,,,,,,,
280973,001,2022-11-21_24h58.50.385,Info_measure_main_exp,2022.2.2,Win32,60.56935191,,,,,,,,,,,,,,,,,,masks/mask_005.jpg,,,,,,,,,,,,,,,,,,,,,,,,,,,,,,,,,,,,,,,,,,,0,4,4,4,1,,,,,,,,,,,,,,,,,,,,,,,,,,,,,,,,,,,,,,,,,,,,,,
280973,001,2022-11-21_24h58.50.385,Info_measure_main_exp,2022.2.2,Win32,60.56935191,,,,,,,,,,,,,,,,,,masks/mask_001.jpg,,,,,,,,,,,,,,,,,,,,,,,,,,,,,,,,,,,,,,,,,,,,,,,,0,0,0,0,1,,,,,,,,,,,,,,,,,,,,,,,,,,,,,,,,,,,,,,,,,
280973,001,2022-11-21_24h58.50.385,Info_measure_main_exp,2022.2.2,Win32,60.56935191,,,,,,,,,,,,,,,,,,masks/mask_003.jpg,,,,,,,,,,,,,,,,,,,,,,,,,,,,,,,,,,,,,,,,,,,,,,,,0,1,1,2,1,,,,,,,,,,,,,,,,,,,,,,,,,,,,,,,,,,,,,,,,,
280973,001,2022-11-21_24h58.50.385,Info_measure_main_exp,2022.2.2,Win32,60.56935191,,,,,,,,,,,,,,,,,,masks/mask_005.jpg,,,,,,,,,,,,,,,,,,,,,,,,,,,,,,,,,,,,,,,,,,,,,,,,0,2,2,4,1,,,,,,,,,,,,,,,,,,,,,,,,,,,,,,,,,,,,,,,,,
280973,001,2022-11-21_24h58.50.385,Info_measure_main_exp,2022.2.2,Win32,60.56935191,,,,,,,,,,,,,,,,,,masks/mask_004.jpg,,,,,,,,,,,,,,,,,,,,,,,,,,,,,,,,,,,,,,,,,,,,,,,,0,3,3,3,1,,,,,,,,,,,,,,,,,,,,,,,,,,,,,,,,,,,,,,,,,
280973,001,2022-11-21_24h58.50.385,Info_measure_main_exp,2022.2.2,Win32,60.56935191,,,,,,,,,,,,,,,,,,masks/mask_002.jpg,,,,,,,,,,,,,,,,,,,,,,,,,,,,,,,,,,,,,,,,,,,,,,,,0,4,4,1,1,,,,,,,,,,,,,,,,,,,,,,,,,,,,,,,,,,,,,,,,,
280973,001,2022-11-21_24h58.50.385,Info_measure_main_exp,2022.2.2,Win32,60.56935191,,,,,,,,,,,,,,,,,,,,,,,,,,,,,,7,3.3506,1,,,,,,,,,,,,0,131,5,5,1986,1974,absent_patch/patch0001986.jpg,absent_patch/patch0001974.jpg,,,,,,,,,,,,,,,,,,,,0.051851908,0.099074046,1,0,0,response1disk,30,0.008333333,0.007407379,1,0,0,center_square,0,29,29,25,1,,,,,,,,,,,,,,,,,,,,,,,
280973,001,2022-11-21_24h58.50.385,Info_measure_main_exp,2022.2.2,Win32,60.56935191,,,,,,,,,,,,,,,,,,masks/mask_004.jpg,,,,,,,,,,,,,,,,,,,,,,,,,,,,,,,,,,,,,,,,,,,0,0,0,3,1,,,,,,,,,,,,,,,,,,,,,,,,,,,,,,,,,,,,,,,,,,,,,,
280973,001,2022-11-21_24h58.50.385,Info_measure_main_exp,2022.2.2,Win32,60.56935191,,,,,,,,,,,,,,,,,,masks/mask_005.jpg,,,,,,,,,,,,,,,,,,,,,,,,,,,,,,,,,,,,,,,,,,,0,1,1,4,1,,,,,,,,,,,,,,,,,,,,,,,,,,,,,,,,,,,,,,,,,,,,,,
280973,001,2022-11-21_24h58.50.385,Info_measure_main_exp,2022.2.2,Win32,60.56935191,,,,,,,,,,,,,,,,,,masks/mask_002.jpg,,,,,,,,,,,,,,,,,,,,,,,,,,,,,,,,,,,,,,,,,,,0,2,2,1,1,,,,,,,,,,,,,,,,,,,,,,,,,,,,,,,,,,,,,,,,,,,,,,
280973,001,2022-11-21_24h58.50.385,Info_measure_main_exp,2022.2.2,Win32,60.56935191,,,,,,,,,,,,,,,,,,masks/mask_001.jpg,,,,,,,,,,,,,,,,,,,,,,,,,,,,,,,,,,,,,,,,,,,0,3,3,0,1,,,,,,,,,,,,,,,,,,,,,,,,,,,,,,,,,,,,,,,,,,,,,,
280973,001,2022-11-21_24h58.50.385,Info_measure_main_exp,2022.2.2,Win32,60.56935191,,,,,,,,,,,,,,,,,,masks/mask_003.jpg,,,,,,,,,,,,,,,,,,,,,,,,,,,,,,,,,,,,,,,,,,,0,4,4,2,1,,,,,,,,,,,,,,,,,,,,,,,,,,,,,,,,,,,,,,,,,,,,,,
280973,001,2022-11-21_24h58.50.385,Info_measure_main_exp,2022.2.2,Win32,60.56935191,,,,,,,,,,,,,,,,,,masks/mask_001.jpg,,,,,,,,,,,,,,,,,,,,,,,,,,,,,,,,,,,,,,,,,,,,,,,,0,0,0,0,1,,,,,,,,,,,,,,,,,,,,,,,,,,,,,,,,,,,,,,,,,
280973,001,2022-11-21_24h58.50.385,Info_measure_main_exp,2022.2.2,Win32,60.56935191,,,,,,,,,,,,,,,,,,masks/mask_002.jpg,,,,,,,,,,,,,,,,,,,,,,,,,,,,,,,,,,,,,,,,,,,,,,,,0,1,1,1,1,,,,,,,,,,,,,,,,,,,,,,,,,,,,,,,,,,,,,,,,,
280973,001,2022-11-21_24h58.50.385,Info_measure_main_exp,2022.2.2,Win32,60.56935191,,,,,,,,,,,,,,,,,,masks/mask_003.jpg,,,,,,,,,,,,,,,,,,,,,,,,,,,,,,,,,,,,,,,,,,,,,,,,0,2,2,2,1,,,,,,,,,,,,,,,,,,,,,,,,,,,,,,,,,,,,,,,,,
280973,001,2022-11-21_24h58.50.385,Info_measure_main_exp,2022.2.2,Win32,60.56935191,,,,,,,,,,,,,,,,,,masks/mask_005.jpg,,,,,,,,,,,,,,,,,,,,,,,,,,,,,,,,,,,,,,,,,,,,,,,,0,3,3,4,1,,,,,,,,,,,,,,,,,,,,,,,,,,,,,,,,,,,,,,,,,
280973,001,2022-11-21_24h58.50.385,Info_measure_main_exp,2022.2.2,Win32,60.56935191,,,,,,,,,,,,,,,,,,masks/mask_004.jpg,,,,,,,,,,,,,,,,,,,,,,,,,,,,,,,,,,,,,,,,,,,,,,,,0,4,4,3,1,,,,,,,,,,,,,,,,,,,,,,,,,,,,,,,,,,,,,,,,,
280973,001,2022-11-21_24h58.50.385,Info_measure_main_exp,2022.2.2,Win32,60.56935191,,,,,,,,,,,,,,,,,,,,,,,,,,,,,,0,0.7488,1,,,,,,,,,,,,0,131,5,5,1974,1974,absent_patch/patch0001974.jpg,absent_patch/patch0001974.jpg,,,,,,,,,,,,,,,,,,,,-0.01851849,0.105555556,1,0,0,response7disk,31,0.008333333,0.006481467,1,0,0,center_square,0,30,30,113,1,,,,,,,,,,,,,,,,,,,,,,,
280973,001,2022-11-21_24h58.50.385,Info_measure_main_exp,2022.2.2,Win32,60.56935191,,,,,,,,,,,,,,,,,,masks/mask_001.jpg,,,,,,,,,,,,,,,,,,,,,,,,,,,,,,,,,,,,,,,,,,,0,0,0,0,1,,,,,,,,,,,,,,,,,,,,,,,,,,,,,,,,,,,,,,,,,,,,,,
280973,001,2022-11-21_24h58.50.385,Info_measure_main_exp,2022.2.2,Win32,60.56935191,,,,,,,,,,,,,,,,,,masks/mask_003.jpg,,,,,,,,,,,,,,,,,,,,,,,,,,,,,,,,,,,,,,,,,,,0,1,1,2,1,,,,,,,,,,,,,,,,,,,,,,,,,,,,,,,,,,,,,,,,,,,,,,
280973,001,2022-11-21_24h58.50.385,Info_measure_main_exp,2022.2.2,Win32,60.56935191,,,,,,,,,,,,,,,,,,masks/mask_005.jpg,,,,,,,,,,,,,,,,,,,,,,,,,,,,,,,,,,,,,,,,,,,0,2,2,4,1,,,,,,,,,,,,,,,,,,,,,,,,,,,,,,,,,,,,,,,,,,,,,,
280973,001,2022-11-21_24h58.50.385,Info_measure_main_exp,2022.2.2,Win32,60.56935191,,,,,,,,,,,,,,,,,,masks/mask_002.jpg,,,,,,,,,,,,,,,,,,,,,,,,,,,,,,,,,,,,,,,,,,,0,3,3,1,1,,,,,,,,,,,,,,,,,,,,,,,,,,,,,,,,,,,,,,,,,,,,,,
280973,001,2022-11-21_24h58.50.385,Info_measure_main_exp,2022.2.2,Win32,60.56935191,,,,,,,,,,,,,,,,,,masks/mask_004.jpg,,,,,,,,,,,,,,,,,,,,,,,,,,,,,,,,,,,,,,,,,,,0,4,4,3,1,,,,,,,,,,,,,,,,,,,,,,,,,,,,,,,,,,,,,,,,,,,,,,
280973,001,2022-11-21_24h58.50.385,Info_measure_main_exp,2022.2.2,Win32,60.56935191,,,,,,,,,,,,,,,,,,masks/mask_002.jpg,,,,,,,,,,,,,,,,,,,,,,,,,,,,,,,,,,,,,,,,,,,,,,,,0,0,0,1,1,,,,,,,,,,,,,,,,,,,,,,,,,,,,,,,,,,,,,,,,,
280973,001,2022-11-21_24h58.50.385,Info_measure_main_exp,2022.2.2,Win32,60.56935191,,,,,,,,,,,,,,,,,,masks/mask_005.jpg,,,,,,,,,,,,,,,,,,,,,,,,,,,,,,,,,,,,,,,,,,,,,,,,0,1,1,4,1,,,,,,,,,,,,,,,,,,,,,,,,,,,,,,,,,,,,,,,,,
280973,001,2022-11-21_24h58.50.385,Info_measure_main_exp,2022.2.2,Win32,60.56935191,,,,,,,,,,,,,,,,,,masks/mask_004.jpg,,,,,,,,,,,,,,,,,,,,,,,,,,,,,,,,,,,,,,,,,,,,,,,,0,2,2,3,1,,,,,,,,,,,,,,,,,,,,,,,,,,,,,,,,,,,,,,,,,
280973,001,2022-11-21_24h58.50.385,Info_measure_main_exp,2022.2.2,Win32,60.56935191,,,,,,,,,,,,,,,,,,masks/mask_001.jpg,,,,,,,,,,,,,,,,,,,,,,,,,,,,,,,,,,,,,,,,,,,,,,,,0,3,3,0,1,,,,,,,,,,,,,,,,,,,,,,,,,,,,,,,,,,,,,,,,,
280973,001,2022-11-21_24h58.50.385,Info_measure_main_exp,2022.2.2,Win32,60.56935191,,,,,,,,,,,,,,,,,,masks/mask_003.jpg,,,,,,,,,,,,,,,,,,,,,,,,,,,,,,,,,,,,,,,,,,,,,,,,0,4,4,2,1,,,,,,,,,,,,,,,,,,,,,,,,,,,,,,,,,,,,,,,,,
280973,001,2022-11-21_24h58.50.385,Info_measure_main_exp,2022.2.2,Win32,60.56935191,,,,,,,,,,,,,,,,,,,,,,,,,,,,,,7,1.2326,1,,,,,,,,,,,,1,131,5,5,1,2166,present_patch/cong_131_5_a.jpg,absent_patch/patch0002166.jpg,,,,,,,,,,,,,,,,,,,,0.030555556,0.129629601,1,0,0,response1disk,32,-0.003703647,-0.008333333,1,0,0,center_square,0,31,31,54,1,,,,,,,,,,,,,,,,,,,,,,,
280973,001,2022-11-21_24h58.50.385,Info_measure_main_exp,2022.2.2,Win32,60.56935191,,,,,,,,,,,,,,,,,,masks/mask_001.jpg,,,,,,,,,,,,,,,,,,,,,,,,,,,,,,,,,,,,,,,,,,,0,0,0,0,1,,,,,,,,,,,,,,,,,,,,,,,,,,,,,,,,,,,,,,,,,,,,,,
280973,001,2022-11-21_24h58.50.385,Info_measure_main_exp,2022.2.2,Win32,60.56935191,,,,,,,,,,,,,,,,,,masks/mask_002.jpg,,,,,,,,,,,,,,,,,,,,,,,,,,,,,,,,,,,,,,,,,,,0,1,1,1,1,,,,,,,,,,,,,,,,,,,,,,,,,,,,,,,,,,,,,,,,,,,,,,
280973,001,2022-11-21_24h58.50.385,Info_measure_main_exp,2022.2.2,Win32,60.56935191,,,,,,,,,,,,,,,,,,masks/mask_003.jpg,,,,,,,,,,,,,,,,,,,,,,,,,,,,,,,,,,,,,,,,,,,0,2,2,2,1,,,,,,,,,,,,,,,,,,,,,,,,,,,,,,,,,,,,,,,,,,,,,,
280973,001,2022-11-21_24h58.50.385,Info_measure_main_exp,2022.2.2,Win32,60.56935191,,,,,,,,,,,,,,,,,,masks/mask_005.jpg,,,,,,,,,,,,,,,,,,,,,,,,,,,,,,,,,,,,,,,,,,,0,3,3,4,1,,,,,,,,,,,,,,,,,,,,,,,,,,,,,,,,,,,,,,,,,,,,,,
280973,001,2022-11-21_24h58.50.385,Info_measure_main_exp,2022.2.2,Win32,60.56935191,,,,,,,,,,,,,,,,,,masks/mask_004.jpg,,,,,,,,,,,,,,,,,,,,,,,,,,,,,,,,,,,,,,,,,,,0,4,4,3,1,,,,,,,,,,,,,,,,,,,,,,,,,,,,,,,,,,,,,,,,,,,,,,
280973,001,2022-11-21_24h58.50.385,Info_measure_main_exp,2022.2.2,Win32,60.56935191,,,,,,,,,,,,,,,,,,masks/mask_003.jpg,,,,,,,,,,,,,,,,,,,,,,,,,,,,,,,,,,,,,,,,,,,,,,,,0,0,0,2,1,,,,,,,,,,,,,,,,,,,,,,,,,,,,,,,,,,,,,,,,,
280973,001,2022-11-21_24h58.50.385,Info_measure_main_exp,2022.2.2,Win32,60.56935191,,,,,,,,,,,,,,,,,,masks/mask_001.jpg,,,,,,,,,,,,,,,,,,,,,,,,,,,,,,,,,,,,,,,,,,,,,,,,0,1,1,0,1,,,,,,,,,,,,,,,,,,,,,,,,,,,,,,,,,,,,,,,,,
280973,001,2022-11-21_24h58.50.385,Info_measure_main_exp,2022.2.2,Win32,60.56935191,,,,,,,,,,,,,,,,,,masks/mask_002.jpg,,,,,,,,,,,,,,,,,,,,,,,,,,,,,,,,,,,,,,,,,,,,,,,,0,2,2,1,1,,,,,,,,,,,,,,,,,,,,,,,,,,,,,,,,,,,,,,,,,
280973,001,2022-11-21_24h58.50.385,Info_measure_main_exp,2022.2.2,Win32,60.56935191,,,,,,,,,,,,,,,,,,masks/mask_004.jpg,,,,,,,,,,,,,,,,,,,,,,,,,,,,,,,,,,,,,,,,,,,,,,,,0,3,3,3,1,,,,,,,,,,,,,,,,,,,,,,,,,,,,,,,,,,,,,,,,,
280973,001,2022-11-21_24h58.50.385,Info_measure_main_exp,2022.2.2,Win32,60.56935191,,,,,,,,,,,,,,,,,,masks/mask_005.jpg,,,,,,,,,,,,,,,,,,,,,,,,,,,,,,,,,,,,,,,,,,,,,,,,0,4,4,4,1,,,,,,,,,,,,,,,,,,,,,,,,,,,,,,,,,,,,,,,,,
280973,001,2022-11-21_24h58.50.385,Info_measure_main_exp,2022.2.2,Win32,60.56935191,,,,,,,,,,,,,,,,,,,,,,,,,,,,,,7,2.4661,1,,,,,,,,,,,,0,131,5,5,1974,2214,absent_patch/patch0001974.jpg,absent_patch/patch0002214.jpg,,,,,,,,,,,,,,,,,,,,0.023148176,0.11851849,1,0,0,response1disk,33,0,0.010185157,1,0,0,center_square,0,32,32,24,1,,,,,,,,,,,,,,,,,,,,,,,
280973,001,2022-11-21_24h58.50.385,Info_measure_main_exp,2022.2.2,Win32,60.56935191,,,,,,,,,,,,,,,,,,masks/mask_005.jpg,,,,,,,,,,,,,,,,,,,,,,,,,,,,,,,,,,,,,,,,,,,0,0,0,4,1,,,,,,,,,,,,,,,,,,,,,,,,,,,,,,,,,,,,,,,,,,,,,,
280973,001,2022-11-21_24h58.50.385,Info_measure_main_exp,2022.2.2,Win32,60.56935191,,,,,,,,,,,,,,,,,,masks/mask_004.jpg,,,,,,,,,,,,,,,,,,,,,,,,,,,,,,,,,,,,,,,,,,,0,1,1,3,1,,,,,,,,,,,,,,,,,,,,,,,,,,,,,,,,,,,,,,,,,,,,,,
280973,001,2022-11-21_24h58.50.385,Info_measure_main_exp,2022.2.2,Win32,60.56935191,,,,,,,,,,,,,,,,,,masks/mask_001.jpg,,,,,,,,,,,,,,,,,,,,,,,,,,,,,,,,,,,,,,,,,,,0,2,2,0,1,,,,,,,,,,,,,,,,,,,,,,,,,,,,,,,,,,,,,,,,,,,,,,
280973,001,2022-11-21_24h58.50.385,Info_measure_main_exp,2022.2.2,Win32,60.56935191,,,,,,,,,,,,,,,,,,masks/mask_002.jpg,,,,,,,,,,,,,,,,,,,,,,,,,,,,,,,,,,,,,,,,,,,0,3,3,1,1,,,,,,,,,,,,,,,,,,,,,,,,,,,,,,,,,,,,,,,,,,,,,,
280973,001,2022-11-21_24h58.50.385,Info_measure_main_exp,2022.2.2,Win32,60.56935191,,,,,,,,,,,,,,,,,,masks/mask_003.jpg,,,,,,,,,,,,,,,,,,,,,,,,,,,,,,,,,,,,,,,,,,,0,4,4,2,1,,,,,,,,,,,,,,,,,,,,,,,,,,,,,,,,,,,,,,,,,,,,,,
280973,001,2022-11-21_24h58.50.385,Info_measure_main_exp,2022.2.2,Win32,60.56935191,,,,,,,,,,,,,,,,,,masks/mask_003.jpg,,,,,,,,,,,,,,,,,,,,,,,,,,,,,,,,,,,,,,,,,,,,,,,,0,0,0,2,1,,,,,,,,,,,,,,,,,,,,,,,,,,,,,,,,,,,,,,,,,
280973,001,2022-11-21_24h58.50.385,Info_measure_main_exp,2022.2.2,Win32,60.56935191,,,,,,,,,,,,,,,,,,masks/mask_001.jpg,,,,,,,,,,,,,,,,,,,,,,,,,,,,,,,,,,,,,,,,,,,,,,,,0,1,1,0,1,,,,,,,,,,,,,,,,,,,,,,,,,,,,,,,,,,,,,,,,,
280973,001,2022-11-21_24h58.50.385,Info_measure_main_exp,2022.2.2,Win32,60.56935191,,,,,,,,,,,,,,,,,,masks/mask_002.jpg,,,,,,,,,,,,,,,,,,,,,,,,,,,,,,,,,,,,,,,,,,,,,,,,0,2,2,1,1,,,,,,,,,,,,,,,,,,,,,,,,,,,,,,,,,,,,,,,,,
280973,001,2022-11-21_24h58.50.385,Info_measure_main_exp,2022.2.2,Win32,60.56935191,,,,,,,,,,,,,,,,,,masks/mask_004.jpg,,,,,,,,,,,,,,,,,,,,,,,,,,,,,,,,,,,,,,,,,,,,,,,,0,3,3,3,1,,,,,,,,,,,,,,,,,,,,,,,,,,,,,,,,,,,,,,,,,
280973,001,2022-11-21_24h58.50.385,Info_measure_main_exp,2022.2.2,Win32,60.56935191,,,,,,,,,,,,,,,,,,masks/mask_005.jpg,,,,,,,,,,,,,,,,,,,,,,,,,,,,,,,,,,,,,,,,,,,,,,,,0,4,4,4,1,,,,,,,,,,,,,,,,,,,,,,,,,,,,,,,,,,,,,,,,,
280973,001,2022-11-21_24h58.50.385,Info_measure_main_exp,2022.2.2,Win32,60.56935191,,,,,,,,,,,,,,,,,,,,,,,,,,,,,,6,1.8822,1,,,,,,,,,,,,0,131,5,5,2154,2298,absent_patch/patch0002154.jpg,absent_patch/patch0002298.jpg,,,,,,,,,,,,,,,,,,,,0.127777778,0.06851849,1,0,0,response1disk,34,-0.010185157,-0.002777778,1,0,0,center_square,0,33,33,27,1,,,,,,,,,,,,,,,,,,,,,,,
280973,001,2022-11-21_24h58.50.385,Info_measure_main_exp,2022.2.2,Win32,60.56935191,,,,,,,,,,,,,,,,,,masks/mask_002.jpg,,,,,,,,,,,,,,,,,,,,,,,,,,,,,,,,,,,,,,,,,,,0,0,0,1,1,,,,,,,,,,,,,,,,,,,,,,,,,,,,,,,,,,,,,,,,,,,,,,
280973,001,2022-11-21_24h58.50.385,Info_measure_main_exp,2022.2.2,Win32,60.56935191,,,,,,,,,,,,,,,,,,masks/mask_004.jpg,,,,,,,,,,,,,,,,,,,,,,,,,,,,,,,,,,,,,,,,,,,0,1,1,3,1,,,,,,,,,,,,,,,,,,,,,,,,,,,,,,,,,,,,,,,,,,,,,,
280973,001,2022-11-21_24h58.50.385,Info_measure_main_exp,2022.2.2,Win32,60.56935191,,,,,,,,,,,,,,,,,,masks/mask_003.jpg,,,,,,,,,,,,,,,,,,,,,,,,,,,,,,,,,,,,,,,,,,,0,2,2,2,1,,,,,,,,,,,,,,,,,,,,,,,,,,,,,,,,,,,,,,,,,,,,,,
280973,001,2022-11-21_24h58.50.385,Info_measure_main_exp,2022.2.2,Win32,60.56935191,,,,,,,,,,,,,,,,,,masks/mask_001.jpg,,,,,,,,,,,,,,,,,,,,,,,,,,,,,,,,,,,,,,,,,,,0,3,3,0,1,,,,,,,,,,,,,,,,,,,,,,,,,,,,,,,,,,,,,,,,,,,,,,
280973,001,2022-11-21_24h58.50.385,Info_measure_main_exp,2022.2.2,Win32,60.56935191,,,,,,,,,,,,,,,,,,masks/mask_005.jpg,,,,,,,,,,,,,,,,,,,,,,,,,,,,,,,,,,,,,,,,,,,0,4,4,4,1,,,,,,,,,,,,,,,,,,,,,,,,,,,,,,,,,,,,,,,,,,,,,,
280973,001,2022-11-21_24h58.50.385,Info_measure_main_exp,2022.2.2,Win32,60.56935191,,,,,,,,,,,,,,,,,,masks/mask_004.jpg,,,,,,,,,,,,,,,,,,,,,,,,,,,,,,,,,,,,,,,,,,,,,,,,0,0,0,3,1,,,,,,,,,,,,,,,,,,,,,,,,,,,,,,,,,,,,,,,,,
280973,001,2022-11-21_24h58.50.385,Info_measure_main_exp,2022.2.2,Win32,60.56935191,,,,,,,,,,,,,,,,,,masks/mask_002.jpg,,,,,,,,,,,,,,,,,,,,,,,,,,,,,,,,,,,,,,,,,,,,,,,,0,1,1,1,1,,,,,,,,,,,,,,,,,,,,,,,,,,,,,,,,,,,,,,,,,
280973,001,2022-11-21_24h58.50.385,Info_measure_main_exp,2022.2.2,Win32,60.56935191,,,,,,,,,,,,,,,,,,masks/mask_003.jpg,,,,,,,,,,,,,,,,,,,,,,,,,,,,,,,,,,,,,,,,,,,,,,,,0,2,2,2,1,,,,,,,,,,,,,,,,,,,,,,,,,,,,,,,,,,,,,,,,,
280973,001,2022-11-21_24h58.50.385,Info_measure_main_exp,2022.2.2,Win32,60.56935191,,,,,,,,,,,,,,,,,,masks/mask_005.jpg,,,,,,,,,,,,,,,,,,,,,,,,,,,,,,,,,,,,,,,,,,,,,,,,0,3,3,4,1,,,,,,,,,,,,,,,,,,,,,,,,,,,,,,,,,,,,,,,,,
