participant,session,date,expName,psychopyVersion,OS,frameRate,space_press_continue.keys,space_press_continue.rt,space_press_continue_2.keys,space_press_continue_2.rt,space_press_continue_3.keys,space_press_continue_3.rt,space_press_continue_4.keys,space_press_continue_4.rt,space_press_continue_5.keys,space_press_continue_5.rt,space_press_continue_6.keys,space_press_continue_6.rt,prac_mask_loop_1.thisRepN,prac_mask_loop_1.thisTrialN,prac_mask_loop_1.thisN,prac_mask_loop_1.thisIndex,prac_mask_loop_1.ran,mask_name,prac_mask_loop_2.thisRepN,prac_mask_loop_2.thisTrialN,prac_mask_loop_2.thisN,prac_mask_loop_2.thisIndex,prac_mask_loop_2.ran,mouse_2.x,mouse_2.y,mouse_2.leftButton,mouse_2.midButton,mouse_2.rightButton,mouse_2.clicked_name,similarity,response_time,Pass,mouse_12.x,mouse_12.y,mouse_12.leftButton,mouse_12.midButton,mouse_12.rightButton,mouse_12.clicked_name,prac_loop.thisRepN,prac_loop.thisTrialN,prac_loop.thisN,prac_loop.thisIndex,prac_loop.ran,Pair_type,Image_num,Patch_1_loc,Patch_2_loc,Patch_1_info,Patch_2_info,Patch_1_name,Patch_2_name,mouse_1.x,mouse_1.y,mouse_1.leftButton,mouse_1.midButton,mouse_1.rightButton,mouse_1.time,mouse_1.clicked_name,space_press_continue_7.keys,space_press_continue_7.rt,mask_loop.thisRepN,mask_loop.thisTrialN,mask_loop.thisN,mask_loop.thisIndex,mask_loop.ran,mask_loop_2.thisRepN,mask_loop_2.thisTrialN,mask_loop_2.thisN,mask_loop_2.thisIndex,mask_loop_2.ran,mouse.x,mouse.y,mouse.leftButton,mouse.midButton,mouse.rightButton,mouse.clicked_name,trialNumber,mouse_11.x,mouse_11.y,mouse_11.leftButton,mouse_11.midButton,mouse_11.rightButton,mouse_11.clicked_name,first_pass_loop.thisRepN,first_pass_loop.thisTrialN,first_pass_loop.thisN,first_pass_loop.thisIndex,first_pass_loop.ran,mask_loop_3.thisRepN,mask_loop_3.thisTrialN,mask_loop_3.thisN,mask_loop_3.thisIndex,mask_loop_3.ran,mask_loop_4.thisRepN,mask_loop_4.thisTrialN,mask_loop_4.thisN,mask_loop_4.thisIndex,mask_loop_4.ran,mouse_3.x,mouse_3.y,mouse_3.leftButton,mouse_3.midButton,mouse_3.rightButton,mouse_3.clicked_name,double_pass_loop.thisRepN,double_pass_loop.thisTrialN,double_pass_loop.thisN,double_pass_loop.thisIndex,double_pass_loop.ran
300339,001,2022-11-20_16h55.25.925,Info_measure_main_exp,2022.2.2,Win32,240.1536984,,,,,,,,,,,,,,,,,,,,,,,,,,,,,,,,,,,,,,,,,,,,,,,,,,,,,,,,,,,,,,,,,,,,,,,,,,,,,,,,,,,,,,,,,,,,,,,,,,,,,,,,,,,,,
300339,001,2022-11-20_16h55.25.925,Info_measure_main_exp,2022.2.2,Win32,240.1536984,,,,,,,,,,,,,,,,,,,,,,,,,,,,,,,,,,,,,,,,,,,,,,,,,,,,,,,,,,,,,,,,,,,,,,,,,,,,,,,,,,,,,,,,,,,,,,,,,,,,,,,,,,,,,
300339,001,2022-11-20_16h55.25.925,Info_measure_main_exp,2022.2.2,Win32,240.1536984,space,5.7556,,,,,,,,,,,,,,,,,,,,,,,,,,,,,,,,,,,,,,,,,,,,,,,,,,,,,,,,,,,,,,,,,,,,,,,,,,,,,,,,,,,,,,,,,,,,,,,,,,,,,,,,,,,
300339,001,2022-11-20_16h55.25.925,Info_measure_main_exp,2022.2.2,Win32,240.1536984,,,space,13.6561,,,,,,,,,,,,,,,,,,,,,,,,,,,,,,,,,,,,,,,,,,,,,,,,,,,,,,,,,,,,,,,,,,,,,,,,,,,,,,,,,,,,,,,,,,,,,,,,,,,,,,,,,
300339,001,2022-11-20_16h55.25.925,Info_measure_main_exp,2022.2.2,Win32,240.1536984,,,,,space,41.9362,,,,,,,,,,,,,,,,,,,,,,,,,,,,,,,,,,,,,,,,,,,,,,,,,,,,,,,,,,,,,,,,,,,,,,,,,,,,,,,,,,,,,,,,,,,,,,,,,,,,,,,
300339,001,2022-11-20_16h55.25.925,Info_measure_main_exp,2022.2.2,Win32,240.1536984,,,,,,,space,16.8061,,,,,,,,,,,,,,,,,,,,,,,,,,,,,,,,,,,,,,,,,,,,,,,,,,,,,,,,,,,,,,,,,,,,,,,,,,,,,,,,,,,,,,,,,,,,,,,,,,,,,
300339,001,2022-11-20_16h55.25.925,Info_measure_main_exp,2022.2.2,Win32,240.1536984,,,,,,,,,space,4.3207,,,,,,,,,,,,,,,,,,,,,,,,,,,,,,,,,,,,,,,,,,,,,,,,,,,,,,,,,,,,,,,,,,,,,,,,,,,,,,,,,,,,,,,,,,,,,,,,,,,
300339,001,2022-11-20_16h55.25.925,Info_measure_main_exp,2022.2.2,Win32,240.1536984,,,,,,,,,,,space,1461.0127,,,,,,,,,,,,,,,,,,,,,,,,,,,,,,,,,,,,,,,,,,,,,,,,,,,,,,,,,,,,,,,,,,,,,,,,,,,,,,,,,,,,,,,,,,,,,,,,,
300339,001,2022-11-20_16h55.25.925,Info_measure_main_exp,2022.2.2,Win32,240.1536984,,,,,,,,,,,,,0,0,0,4,1,masks/mask_005.jpg,,,,,,,,,,,,,,,,,,,,,,,,,,,,,,,,,,,,,,,,,,,,,,,,,,,,,,,,,,,,,,,,,,,,,,,,,,,,,,,,,,,,,,,,,,,
300339,001,2022-11-20_16h55.25.925,Info_measure_main_exp,2022.2.2,Win32,240.1536984,,,,,,,,,,,,,0,1,1,1,1,masks/mask_002.jpg,,,,,,,,,,,,,,,,,,,,,,,,,,,,,,,,,,,,,,,,,,,,,,,,,,,,,,,,,,,,,,,,,,,,,,,,,,,,,,,,,,,,,,,,,,,
300339,001,2022-11-20_16h55.25.925,Info_measure_main_exp,2022.2.2,Win32,240.1536984,,,,,,,,,,,,,0,2,2,2,1,masks/mask_003.jpg,,,,,,,,,,,,,,,,,,,,,,,,,,,,,,,,,,,,,,,,,,,,,,,,,,,,,,,,,,,,,,,,,,,,,,,,,,,,,,,,,,,,,,,,,,,
300339,001,2022-11-20_16h55.25.925,Info_measure_main_exp,2022.2.2,Win32,240.1536984,,,,,,,,,,,,,0,3,3,3,1,masks/mask_004.jpg,,,,,,,,,,,,,,,,,,,,,,,,,,,,,,,,,,,,,,,,,,,,,,,,,,,,,,,,,,,,,,,,,,,,,,,,,,,,,,,,,,,,,,,,,,,
300339,001,2022-11-20_16h55.25.925,Info_measure_main_exp,2022.2.2,Win32,240.1536984,,,,,,,,,,,,,0,4,4,0,1,masks/mask_001.jpg,,,,,,,,,,,,,,,,,,,,,,,,,,,,,,,,,,,,,,,,,,,,,,,,,,,,,,,,,,,,,,,,,,,,,,,,,,,,,,,,,,,,,,,,,,,
300339,001,2022-11-20_16h55.25.925,Info_measure_main_exp,2022.2.2,Win32,240.1536984,,,,,,,,,,,,,,,,,,masks/mask_005.jpg,0,0,0,4,1,,,,,,,,,,,,,,,,,,,,,,,,,,,,,,,,,,,,,,,,,,,,,,,,,,,,,,,,,,,,,,,,,,,,,,,,,,,,,,,,,,,,,,
300339,001,2022-11-20_16h55.25.925,Info_measure_main_exp,2022.2.2,Win32,240.1536984,,,,,,,,,,,,,,,,,,masks/mask_004.jpg,0,1,1,3,1,,,,,,,,,,,,,,,,,,,,,,,,,,,,,,,,,,,,,,,,,,,,,,,,,,,,,,,,,,,,,,,,,,,,,,,,,,,,,,,,,,,,,,
300339,001,2022-11-20_16h55.25.925,Info_measure_main_exp,2022.2.2,Win32,240.1536984,,,,,,,,,,,,,,,,,,masks/mask_003.jpg,0,2,2,2,1,,,,,,,,,,,,,,,,,,,,,,,,,,,,,,,,,,,,,,,,,,,,,,,,,,,,,,,,,,,,,,,,,,,,,,,,,,,,,,,,,,,,,,
300339,001,2022-11-20_16h55.25.925,Info_measure_main_exp,2022.2.2,Win32,240.1536984,,,,,,,,,,,,,,,,,,masks/mask_002.jpg,0,3,3,1,1,,,,,,,,,,,,,,,,,,,,,,,,,,,,,,,,,,,,,,,,,,,,,,,,,,,,,,,,,,,,,,,,,,,,,,,,,,,,,,,,,,,,,,
300339,001,2022-11-20_16h55.25.925,Info_measure_main_exp,2022.2.2,Win32,240.1536984,,,,,,,,,,,,,,,,,,masks/mask_001.jpg,0,4,4,0,1,,,,,,,,,,,,,,,,,,,,,,,,,,,,,,,,,,,,,,,,,,,,,,,,,,,,,,,,,,,,,,,,,,,,,,,,,,,,,,,,,,,,,,
300339,001,2022-11-20_16h55.25.925,Info_measure_main_exp,2022.2.2,Win32,240.1536984,,,,,,,,,,,,,,,,,,,,,,,,-0.117585848,0.032778356,1,0,0,response7disk,1,1555.5224,1,0,-0.002601457,1,0,0,center_square,0,0,0,2,1,0,131,5,5,2526,2526,prac_patch/patch0002526.jpg,prac_patch/patch0002526.jpg,,,,,,,,,,,,,,,,,,,,,,,,,,,,,,,,,,,,,,,,,,,,,,,,,,,,,,,,,,
300339,001,2022-11-20_16h55.25.925,Info_measure_main_exp,2022.2.2,Win32,240.1536984,,,,,,,,,,,,,0,0,0,1,1,masks/mask_002.jpg,,,,,,,,,,,,,,,,,,,,,,,,,,,,,,,,,,,,,,,,,,,,,,,,,,,,,,,,,,,,,,,,,,,,,,,,,,,,,,,,,,,,,,,,,,,
300339,001,2022-11-20_16h55.25.925,Info_measure_main_exp,2022.2.2,Win32,240.1536984,,,,,,,,,,,,,0,1,1,0,1,masks/mask_001.jpg,,,,,,,,,,,,,,,,,,,,,,,,,,,,,,,,,,,,,,,,,,,,,,,,,,,,,,,,,,,,,,,,,,,,,,,,,,,,,,,,,,,,,,,,,,,
300339,001,2022-11-20_16h55.25.925,Info_measure_main_exp,2022.2.2,Win32,240.1536984,,,,,,,,,,,,,0,2,2,2,1,masks/mask_003.jpg,,,,,,,,,,,,,,,,,,,,,,,,,,,,,,,,,,,,,,,,,,,,,,,,,,,,,,,,,,,,,,,,,,,,,,,,,,,,,,,,,,,,,,,,,,,
300339,001,2022-11-20_16h55.25.925,Info_measure_main_exp,2022.2.2,Win32,240.1536984,,,,,,,,,,,,,0,3,3,4,1,masks/mask_005.jpg,,,,,,,,,,,,,,,,,,,,,,,,,,,,,,,,,,,,,,,,,,,,,,,,,,,,,,,,,,,,,,,,,,,,,,,,,,,,,,,,,,,,,,,,,,,
300339,001,2022-11-20_16h55.25.925,Info_measure_main_exp,2022.2.2,Win32,240.1536984,,,,,,,,,,,,,0,4,4,3,1,masks/mask_004.jpg,,,,,,,,,,,,,,,,,,,,,,,,,,,,,,,,,,,,,,,,,,,,,,,,,,,,,,,,,,,,,,,,,,,,,,,,,,,,,,,,,,,,,,,,,,,
300339,001,2022-11-20_16h55.25.925,Info_measure_main_exp,2022.2.2,Win32,240.1536984,,,,,,,,,,,,,,,,,,masks/mask_003.jpg,0,0,0,2,1,,,,,,,,,,,,,,,,,,,,,,,,,,,,,,,,,,,,,,,,,,,,,,,,,,,,,,,,,,,,,,,,,,,,,,,,,,,,,,,,,,,,,,
300339,001,2022-11-20_16h55.25.925,Info_measure_main_exp,2022.2.2,Win32,240.1536984,,,,,,,,,,,,,,,,,,masks/mask_001.jpg,0,1,1,0,1,,,,,,,,,,,,,,,,,,,,,,,,,,,,,,,,,,,,,,,,,,,,,,,,,,,,,,,,,,,,,,,,,,,,,,,,,,,,,,,,,,,,,,
300339,001,2022-11-20_16h55.25.925,Info_measure_main_exp,2022.2.2,Win32,240.1536984,,,,,,,,,,,,,,,,,,masks/mask_002.jpg,0,2,2,1,1,,,,,,,,,,,,,,,,,,,,,,,,,,,,,,,,,,,,,,,,,,,,,,,,,,,,,,,,,,,,,,,,,,,,,,,,,,,,,,,,,,,,,,
300339,001,2022-11-20_16h55.25.925,Info_measure_main_exp,2022.2.2,Win32,240.1536984,,,,,,,,,,,,,,,,,,masks/mask_005.jpg,0,3,3,4,1,,,,,,,,,,,,,,,,,,,,,,,,,,,,,,,,,,,,,,,,,,,,,,,,,,,,,,,,,,,,,,,,,,,,,,,,,,,,,,,,,,,,,,
300339,001,2022-11-20_16h55.25.925,Info_measure_main_exp,2022.2.2,Win32,240.1536984,,,,,,,,,,,,,,,,,,masks/mask_004.jpg,0,4,4,3,1,,,,,,,,,,,,,,,,,,,,,,,,,,,,,,,,,,,,,,,,,,,,,,,,,,,,,,,,,,,,,,,,,,,,,,,,,,,,,,,,,,,,,,
300339,001,2022-11-20_16h55.25.925,Info_measure_main_exp,2022.2.2,Win32,240.1536984,,,,,,,,,,,,,,,,,,,,,,,,0.122788762,0.191987513,1,0,0,response1disk,7,1566.7998,1,-0.014568158,-0.00364204,1,0,0,center_square,0,1,1,1,1,0,131,5,5,2514,2490,prac_patch/patch0002514.jpg,prac_patch/patch0002490.jpg,,,,,,,,,,,,,,,,,,,,,,,,,,,,,,,,,,,,,,,,,,,,,,,,,,,,,,,,,,
300339,001,2022-11-20_16h55.25.925,Info_measure_main_exp,2022.2.2,Win32,240.1536984,,,,,,,,,,,,,0,0,0,0,1,masks/mask_001.jpg,,,,,,,,,,,,,,,,,,,,,,,,,,,,,,,,,,,,,,,,,,,,,,,,,,,,,,,,,,,,,,,,,,,,,,,,,,,,,,,,,,,,,,,,,,,
300339,001,2022-11-20_16h55.25.925,Info_measure_main_exp,2022.2.2,Win32,240.1536984,,,,,,,,,,,,,0,1,1,3,1,masks/mask_004.jpg,,,,,,,,,,,,,,,,,,,,,,,,,,,,,,,,,,,,,,,,,,,,,,,,,,,,,,,,,,,,,,,,,,,,,,,,,,,,,,,,,,,,,,,,,,,
300339,001,2022-11-20_16h55.25.925,Info_measure_main_exp,2022.2.2,Win32,240.1536984,,,,,,,,,,,,,0,2,2,4,1,masks/mask_005.jpg,,,,,,,,,,,,,,,,,,,,,,,,,,,,,,,,,,,,,,,,,,,,,,,,,,,,,,,,,,,,,,,,,,,,,,,,,,,,,,,,,,,,,,,,,,,
300339,001,2022-11-20_16h55.25.925,Info_measure_main_exp,2022.2.2,Win32,240.1536984,,,,,,,,,,,,,0,3,3,2,1,masks/mask_003.jpg,,,,,,,,,,,,,,,,,,,,,,,,,,,,,,,,,,,,,,,,,,,,,,,,,,,,,,,,,,,,,,,,,,,,,,,,,,,,,,,,,,,,,,,,,,,
300339,001,2022-11-20_16h55.25.925,Info_measure_main_exp,2022.2.2,Win32,240.1536984,,,,,,,,,,,,,0,4,4,1,1,masks/mask_002.jpg,,,,,,,,,,,,,,,,,,,,,,,,,,,,,,,,,,,,,,,,,,,,,,,,,,,,,,,,,,,,,,,,,,,,,,,,,,,,,,,,,,,,,,,,,,,
300339,001,2022-11-20_16h55.25.925,Info_measure_main_exp,2022.2.2,Win32,240.1536984,,,,,,,,,,,,,,,,,,masks/mask_001.jpg,0,0,0,0,1,,,,,,,,,,,,,,,,,,,,,,,,,,,,,,,,,,,,,,,,,,,,,,,,,,,,,,,,,,,,,,,,,,,,,,,,,,,,,,,,,,,,,,
300339,001,2022-11-20_16h55.25.925,Info_measure_main_exp,2022.2.2,Win32,240.1536984,,,,,,,,,,,,,,,,,,masks/mask_005.jpg,0,1,1,4,1,,,,,,,,,,,,,,,,,,,,,,,,,,,,,,,,,,,,,,,,,,,,,,,,,,,,,,,,,,,,,,,,,,,,,,,,,,,,,,,,,,,,,,
300339,001,2022-11-20_16h55.25.925,Info_measure_main_exp,2022.2.2,Win32,240.1536984,,,,,,,,,,,,,,,,,,masks/mask_002.jpg,0,2,2,1,1,,,,,,,,,,,,,,,,,,,,,,,,,,,,,,,,,,,,,,,,,,,,,,,,,,,,,,,,,,,,,,,,,,,,,,,,,,,,,,,,,,,,,,
300339,001,2022-11-20_16h55.25.925,Info_measure_main_exp,2022.2.2,Win32,240.1536984,,,,,,,,,,,,,,,,,,masks/mask_003.jpg,0,3,3,2,1,,,,,,,,,,,,,,,,,,,,,,,,,,,,,,,,,,,,,,,,,,,,,,,,,,,,,,,,,,,,,,,,,,,,,,,,,,,,,,,,,,,,,,
300339,001,2022-11-20_16h55.25.925,Info_measure_main_exp,2022.2.2,Win32,240.1536984,,,,,,,,,,,,,,,,,,masks/mask_004.jpg,0,4,4,3,1,,,,,,,,,,,,,,,,,,,,,,,,,,,,,,,,,,,,,,,,,,,,,,,,,,,,,,,,,,,,,,,,,,,,,,,,,,,,,,,,,,,,,,
300339,001,2022-11-20_16h55.25.925,Info_measure_main_exp,2022.2.2,Win32,240.1536984,,,,,,,,,,,,,,,,,,,,,,,,0.124869927,0.195109261,1,0,0,response1disk,7,1575.9175,1,-0.001040583,0.006763788,1,0,0,center_square,0,2,2,0,1,0,131,5,5,2370,2406,prac_patch/patch0002370.jpg,prac_patch/patch0002406.jpg,,,,,,,,,,,,,,,,,,,,,,,,,,,,,,,,,,,,,,,,,,,,,,,,,,,,,,,,,,
300339,001,2022-11-20_16h55.25.925,Info_measure_main_exp,2022.2.2,Win32,240.1536984,,,,,,,,,,,,,,,,,,,,,,,,,,,,,,,,,,,,,,,,,,,,,,,,,,,,,,,,,,,space,2.0677,,,,,,,,,,,,,,,,,,,,,,,,,,,,,,,,,,,,,,,,,,,,,,,,,
300339,001,2022-11-20_16h55.25.925,Info_measure_main_exp,2022.2.2,Win32,240.1536984,,,,,,,,,,,,,,,,,,masks/mask_004.jpg,,,,,,,,,,,,,,,,,,,,,,,,,,,,,,,,,,,,,,,,,,,0,0,0,3,1,,,,,,,,,,,,,,,,,,,,,,,,,,,,,,,,,,,,,,,,,,,,
300339,001,2022-11-20_16h55.25.925,Info_measure_main_exp,2022.2.2,Win32,240.1536984,,,,,,,,,,,,,,,,,,masks/mask_003.jpg,,,,,,,,,,,,,,,,,,,,,,,,,,,,,,,,,,,,,,,,,,,0,1,1,2,1,,,,,,,,,,,,,,,,,,,,,,,,,,,,,,,,,,,,,,,,,,,,
300339,001,2022-11-20_16h55.25.925,Info_measure_main_exp,2022.2.2,Win32,240.1536984,,,,,,,,,,,,,,,,,,masks/mask_002.jpg,,,,,,,,,,,,,,,,,,,,,,,,,,,,,,,,,,,,,,,,,,,0,2,2,1,1,,,,,,,,,,,,,,,,,,,,,,,,,,,,,,,,,,,,,,,,,,,,
300339,001,2022-11-20_16h55.25.925,Info_measure_main_exp,2022.2.2,Win32,240.1536984,,,,,,,,,,,,,,,,,,masks/mask_005.jpg,,,,,,,,,,,,,,,,,,,,,,,,,,,,,,,,,,,,,,,,,,,0,3,3,4,1,,,,,,,,,,,,,,,,,,,,,,,,,,,,,,,,,,,,,,,,,,,,
300339,001,2022-11-20_16h55.25.925,Info_measure_main_exp,2022.2.2,Win32,240.1536984,,,,,,,,,,,,,,,,,,masks/mask_001.jpg,,,,,,,,,,,,,,,,,,,,,,,,,,,,,,,,,,,,,,,,,,,0,4,4,0,1,,,,,,,,,,,,,,,,,,,,,,,,,,,,,,,,,,,,,,,,,,,,
300339,001,2022-11-20_16h55.25.925,Info_measure_main_exp,2022.2.2,Win32,240.1536984,,,,,,,,,,,,,,,,,,masks/mask_005.jpg,,,,,,,,,,,,,,,,,,,,,,,,,,,,,,,,,,,,,,,,,,,,,,,,0,0,0,4,1,,,,,,,,,,,,,,,,,,,,,,,,,,,,,,,,,,,,,,,
300339,001,2022-11-20_16h55.25.925,Info_measure_main_exp,2022.2.2,Win32,240.1536984,,,,,,,,,,,,,,,,,,masks/mask_001.jpg,,,,,,,,,,,,,,,,,,,,,,,,,,,,,,,,,,,,,,,,,,,,,,,,0,1,1,0,1,,,,,,,,,,,,,,,,,,,,,,,,,,,,,,,,,,,,,,,
300339,001,2022-11-20_16h55.25.925,Info_measure_main_exp,2022.2.2,Win32,240.1536984,,,,,,,,,,,,,,,,,,masks/mask_004.jpg,,,,,,,,,,,,,,,,,,,,,,,,,,,,,,,,,,,,,,,,,,,,,,,,0,2,2,3,1,,,,,,,,,,,,,,,,,,,,,,,,,,,,,,,,,,,,,,,
300339,001,2022-11-20_16h55.25.925,Info_measure_main_exp,2022.2.2,Win32,240.1536984,,,,,,,,,,,,,,,,,,masks/mask_003.jpg,,,,,,,,,,,,,,,,,,,,,,,,,,,,,,,,,,,,,,,,,,,,,,,,0,3,3,2,1,,,,,,,,,,,,,,,,,,,,,,,,,,,,,,,,,,,,,,,
300339,001,2022-11-20_16h55.25.925,Info_measure_main_exp,2022.2.2,Win32,240.1536984,,,,,,,,,,,,,,,,,,masks/mask_002.jpg,,,,,,,,,,,,,,,,,,,,,,,,,,,,,,,,,,,,,,,,,,,,,,,,0,4,4,1,1,,,,,,,,,,,,,,,,,,,,,,,,,,,,,,,,,,,,,,,
300339,001,2022-11-20_16h55.25.925,Info_measure_main_exp,2022.2.2,Win32,240.1536984,,,,,,,,,,,,,,,,,,,,,,,,,,,,,,7,0.7134,1,,,,,,,,,,,,0,131,5,5,1986,1950,absent_patch/patch0001986.jpg,absent_patch/patch0001950.jpg,,,,,,,,,,,,,,,,,,,,0.044745057,0.167013528,1,0,0,response1disk,1,0.003121748,0.002601457,1,0,0,center_square,0,0,0,15,1,,,,,,,,,,,,,,,,,,,,,
300339,001,2022-11-20_16h55.25.925,Info_measure_main_exp,2022.2.2,Win32,240.1536984,,,,,,,,,,,,,,,,,,masks/mask_001.jpg,,,,,,,,,,,,,,,,,,,,,,,,,,,,,,,,,,,,,,,,,,,0,0,0,0,1,,,,,,,,,,,,,,,,,,,,,,,,,,,,,,,,,,,,,,,,,,,,
300339,001,2022-11-20_16h55.25.925,Info_measure_main_exp,2022.2.2,Win32,240.1536984,,,,,,,,,,,,,,,,,,masks/mask_002.jpg,,,,,,,,,,,,,,,,,,,,,,,,,,,,,,,,,,,,,,,,,,,0,1,1,1,1,,,,,,,,,,,,,,,,,,,,,,,,,,,,,,,,,,,,,,,,,,,,
300339,001,2022-11-20_16h55.25.925,Info_measure_main_exp,2022.2.2,Win32,240.1536984,,,,,,,,,,,,,,,,,,masks/mask_004.jpg,,,,,,,,,,,,,,,,,,,,,,,,,,,,,,,,,,,,,,,,,,,0,2,2,3,1,,,,,,,,,,,,,,,,,,,,,,,,,,,,,,,,,,,,,,,,,,,,
300339,001,2022-11-20_16h55.25.925,Info_measure_main_exp,2022.2.2,Win32,240.1536984,,,,,,,,,,,,,,,,,,masks/mask_003.jpg,,,,,,,,,,,,,,,,,,,,,,,,,,,,,,,,,,,,,,,,,,,0,3,3,2,1,,,,,,,,,,,,,,,,,,,,,,,,,,,,,,,,,,,,,,,,,,,,
300339,001,2022-11-20_16h55.25.925,Info_measure_main_exp,2022.2.2,Win32,240.1536984,,,,,,,,,,,,,,,,,,masks/mask_005.jpg,,,,,,,,,,,,,,,,,,,,,,,,,,,,,,,,,,,,,,,,,,,0,4,4,4,1,,,,,,,,,,,,,,,,,,,,,,,,,,,,,,,,,,,,,,,,,,,,
300339,001,2022-11-20_16h55.25.925,Info_measure_main_exp,2022.2.2,Win32,240.1536984,,,,,,,,,,,,,,,,,,masks/mask_003.jpg,,,,,,,,,,,,,,,,,,,,,,,,,,,,,,,,,,,,,,,,,,,,,,,,0,0,0,2,1,,,,,,,,,,,,,,,,,,,,,,,,,,,,,,,,,,,,,,,
300339,001,2022-11-20_16h55.25.925,Info_measure_main_exp,2022.2.2,Win32,240.1536984,,,,,,,,,,,,,,,,,,masks/mask_004.jpg,,,,,,,,,,,,,,,,,,,,,,,,,,,,,,,,,,,,,,,,,,,,,,,,0,1,1,3,1,,,,,,,,,,,,,,,,,,,,,,,,,,,,,,,,,,,,,,,
300339,001,2022-11-20_16h55.25.925,Info_measure_main_exp,2022.2.2,Win32,240.1536984,,,,,,,,,,,,,,,,,,masks/mask_005.jpg,,,,,,,,,,,,,,,,,,,,,,,,,,,,,,,,,,,,,,,,,,,,,,,,0,2,2,4,1,,,,,,,,,,,,,,,,,,,,,,,,,,,,,,,,,,,,,,,
300339,001,2022-11-20_16h55.25.925,Info_measure_main_exp,2022.2.2,Win32,240.1536984,,,,,,,,,,,,,,,,,,masks/mask_001.jpg,,,,,,,,,,,,,,,,,,,,,,,,,,,,,,,,,,,,,,,,,,,,,,,,0,3,3,0,1,,,,,,,,,,,,,,,,,,,,,,,,,,,,,,,,,,,,,,,
300339,001,2022-11-20_16h55.25.925,Info_measure_main_exp,2022.2.2,Win32,240.1536984,,,,,,,,,,,,,,,,,,masks/mask_002.jpg,,,,,,,,,,,,,,,,,,,,,,,,,,,,,,,,,,,,,,,,,,,,,,,,0,4,4,1,1,,,,,,,,,,,,,,,,,,,,,,,,,,,,,,,,,,,,,,,
300339,001,2022-11-20_16h55.25.925,Info_measure_main_exp,2022.2.2,Win32,240.1536984,,,,,,,,,,,,,,,,,,,,,,,,,,,,,,7,0.6883,1,,,,,,,,,,,,0,131,5,5,1950,2178,absent_patch/patch0001950.jpg,absent_patch/patch0002178.jpg,,,,,,,,,,,,,,,,,,,,0.065556712,0.177419355,1,0,0,response1disk,2,0.003121748,0.001560874,1,0,0,center_square,0,1,1,61,1,,,,,,,,,,,,,,,,,,,,,
300339,001,2022-11-20_16h55.25.925,Info_measure_main_exp,2022.2.2,Win32,240.1536984,,,,,,,,,,,,,,,,,,masks/mask_004.jpg,,,,,,,,,,,,,,,,,,,,,,,,,,,,,,,,,,,,,,,,,,,0,0,0,3,1,,,,,,,,,,,,,,,,,,,,,,,,,,,,,,,,,,,,,,,,,,,,
300339,001,2022-11-20_16h55.25.925,Info_measure_main_exp,2022.2.2,Win32,240.1536984,,,,,,,,,,,,,,,,,,masks/mask_003.jpg,,,,,,,,,,,,,,,,,,,,,,,,,,,,,,,,,,,,,,,,,,,0,1,1,2,1,,,,,,,,,,,,,,,,,,,,,,,,,,,,,,,,,,,,,,,,,,,,
300339,001,2022-11-20_16h55.25.925,Info_measure_main_exp,2022.2.2,Win32,240.1536984,,,,,,,,,,,,,,,,,,masks/mask_002.jpg,,,,,,,,,,,,,,,,,,,,,,,,,,,,,,,,,,,,,,,,,,,0,2,2,1,1,,,,,,,,,,,,,,,,,,,,,,,,,,,,,,,,,,,,,,,,,,,,
300339,001,2022-11-20_16h55.25.925,Info_measure_main_exp,2022.2.2,Win32,240.1536984,,,,,,,,,,,,,,,,,,masks/mask_001.jpg,,,,,,,,,,,,,,,,,,,,,,,,,,,,,,,,,,,,,,,,,,,0,3,3,0,1,,,,,,,,,,,,,,,,,,,,,,,,,,,,,,,,,,,,,,,,,,,,
300339,001,2022-11-20_16h55.25.925,Info_measure_main_exp,2022.2.2,Win32,240.1536984,,,,,,,,,,,,,,,,,,masks/mask_005.jpg,,,,,,,,,,,,,,,,,,,,,,,,,,,,,,,,,,,,,,,,,,,0,4,4,4,1,,,,,,,,,,,,,,,,,,,,,,,,,,,,,,,,,,,,,,,,,,,,
300339,001,2022-11-20_16h55.25.925,Info_measure_main_exp,2022.2.2,Win32,240.1536984,,,,,,,,,,,,,,,,,,masks/mask_005.jpg,,,,,,,,,,,,,,,,,,,,,,,,,,,,,,,,,,,,,,,,,,,,,,,,0,0,0,4,1,,,,,,,,,,,,,,,,,,,,,,,,,,,,,,,,,,,,,,,
300339,001,2022-11-20_16h55.25.925,Info_measure_main_exp,2022.2.2,Win32,240.1536984,,,,,,,,,,,,,,,,,,masks/mask_003.jpg,,,,,,,,,,,,,,,,,,,,,,,,,,,,,,,,,,,,,,,,,,,,,,,,0,1,1,2,1,,,,,,,,,,,,,,,,,,,,,,,,,,,,,,,,,,,,,,,
300339,001,2022-11-20_16h55.25.925,Info_measure_main_exp,2022.2.2,Win32,240.1536984,,,,,,,,,,,,,,,,,,masks/mask_002.jpg,,,,,,,,,,,,,,,,,,,,,,,,,,,,,,,,,,,,,,,,,,,,,,,,0,2,2,1,1,,,,,,,,,,,,,,,,,,,,,,,,,,,,,,,,,,,,,,,
300339,001,2022-11-20_16h55.25.925,Info_measure_main_exp,2022.2.2,Win32,240.1536984,,,,,,,,,,,,,,,,,,masks/mask_004.jpg,,,,,,,,,,,,,,,,,,,,,,,,,,,,,,,,,,,,,,,,,,,,,,,,0,3,3,3,1,,,,,,,,,,,,,,,,,,,,,,,,,,,,,,,,,,,,,,,
300339,001,2022-11-20_16h55.25.925,Info_measure_main_exp,2022.2.2,Win32,240.1536984,,,,,,,,,,,,,,,,,,masks/mask_001.jpg,,,,,,,,,,,,,,,,,,,,,,,,,,,,,,,,,,,,,,,,,,,,,,,,0,4,4,0,1,,,,,,,,,,,,,,,,,,,,,,,,,,,,,,,,,,,,,,,
300339,001,2022-11-20_16h55.25.925,Info_measure_main_exp,2022.2.2,Win32,240.1536984,,,,,,,,,,,,,,,,,,,,,,,,,,,,,,7,0.6382,1,,,,,,,,,,,,0,131,5,5,2178,1986,absent_patch/patch0002178.jpg,absent_patch/patch0001986.jpg,,,,,,,,,,,,,,,,,,,,0.048907388,0.161810614,1,0,0,response1disk,3,0.006243496,-0.005723205,1,0,0,center_square,0,2,2,46,1,,,,,,,,,,,,,,,,,,,,,
300339,001,2022-11-20_16h55.25.925,Info_measure_main_exp,2022.2.2,Win32,240.1536984,,,,,,,,,,,,,,,,,,masks/mask_001.jpg,,,,,,,,,,,,,,,,,,,,,,,,,,,,,,,,,,,,,,,,,,,0,0,0,0,1,,,,,,,,,,,,,,,,,,,,,,,,,,,,,,,,,,,,,,,,,,,,
300339,001,2022-11-20_16h55.25.925,Info_measure_main_exp,2022.2.2,Win32,240.1536984,,,,,,,,,,,,,,,,,,masks/mask_002.jpg,,,,,,,,,,,,,,,,,,,,,,,,,,,,,,,,,,,,,,,,,,,0,1,1,1,1,,,,,,,,,,,,,,,,,,,,,,,,,,,,,,,,,,,,,,,,,,,,
300339,001,2022-11-20_16h55.25.925,Info_measure_main_exp,2022.2.2,Win32,240.1536984,,,,,,,,,,,,,,,,,,masks/mask_004.jpg,,,,,,,,,,,,,,,,,,,,,,,,,,,,,,,,,,,,,,,,,,,0,2,2,3,1,,,,,,,,,,,,,,,,,,,,,,,,,,,,,,,,,,,,,,,,,,,,
300339,001,2022-11-20_16h55.25.925,Info_measure_main_exp,2022.2.2,Win32,240.1536984,,,,,,,,,,,,,,,,,,masks/mask_005.jpg,,,,,,,,,,,,,,,,,,,,,,,,,,,,,,,,,,,,,,,,,,,0,3,3,4,1,,,,,,,,,,,,,,,,,,,,,,,,,,,,,,,,,,,,,,,,,,,,
300339,001,2022-11-20_16h55.25.925,Info_measure_main_exp,2022.2.2,Win32,240.1536984,,,,,,,,,,,,,,,,,,masks/mask_003.jpg,,,,,,,,,,,,,,,,,,,,,,,,,,,,,,,,,,,,,,,,,,,0,4,4,2,1,,,,,,,,,,,,,,,,,,,,,,,,,,,,,,,,,,,,,,,,,,,,
300339,001,2022-11-20_16h55.25.925,Info_measure_main_exp,2022.2.2,Win32,240.1536984,,,,,,,,,,,,,,,,,,masks/mask_001.jpg,,,,,,,,,,,,,,,,,,,,,,,,,,,,,,,,,,,,,,,,,,,,,,,,0,0,0,0,1,,,,,,,,,,,,,,,,,,,,,,,,,,,,,,,,,,,,,,,
300339,001,2022-11-20_16h55.25.925,Info_measure_main_exp,2022.2.2,Win32,240.1536984,,,,,,,,,,,,,,,,,,masks/mask_002.jpg,,,,,,,,,,,,,,,,,,,,,,,,,,,,,,,,,,,,,,,,,,,,,,,,0,1,1,1,1,,,,,,,,,,,,,,,,,,,,,,,,,,,,,,,,,,,,,,,
300339,001,2022-11-20_16h55.25.925,Info_measure_main_exp,2022.2.2,Win32,240.1536984,,,,,,,,,,,,,,,,,,masks/mask_003.jpg,,,,,,,,,,,,,,,,,,,,,,,,,,,,,,,,,,,,,,,,,,,,,,,,0,2,2,2,1,,,,,,,,,,,,,,,,,,,,,,,,,,,,,,,,,,,,,,,
300339,001,2022-11-20_16h55.25.925,Info_measure_main_exp,2022.2.2,Win32,240.1536984,,,,,,,,,,,,,,,,,,masks/mask_004.jpg,,,,,,,,,,,,,,,,,,,,,,,,,,,,,,,,,,,,,,,,,,,,,,,,0,3,3,3,1,,,,,,,,,,,,,,,,,,,,,,,,,,,,,,,,,,,,,,,
300339,001,2022-11-20_16h55.25.925,Info_measure_main_exp,2022.2.2,Win32,240.1536984,,,,,,,,,,,,,,,,,,masks/mask_005.jpg,,,,,,,,,,,,,,,,,,,,,,,,,,,,,,,,,,,,,,,,,,,,,,,,0,4,4,4,1,,,,,,,,,,,,,,,,,,,,,,,,,,,,,,,,,,,,,,,
300339,001,2022-11-20_16h55.25.925,Info_measure_main_exp,2022.2.2,Win32,240.1536984,,,,,,,,,,,,,,,,,,,,,,,,,,,,,,7,0.4088,1,,,,,,,,,,,,0,131,5,5,2250,2238,absent_patch/patch0002250.jpg,absent_patch/patch0002238.jpg,,,,,,,,,,,,,,,,,,,,0.035379813,0.128511967,1,0,0,response1disk,4,-0.003121748,-0.011966701,1,0,0,center_square,0,3,3,110,1,,,,,,,,,,,,,,,,,,,,,
300339,001,2022-11-20_16h55.25.925,Info_measure_main_exp,2022.2.2,Win32,240.1536984,,,,,,,,,,,,,,,,,,masks/mask_004.jpg,,,,,,,,,,,,,,,,,,,,,,,,,,,,,,,,,,,,,,,,,,,0,0,0,3,1,,,,,,,,,,,,,,,,,,,,,,,,,,,,,,,,,,,,,,,,,,,,
300339,001,2022-11-20_16h55.25.925,Info_measure_main_exp,2022.2.2,Win32,240.1536984,,,,,,,,,,,,,,,,,,masks/mask_001.jpg,,,,,,,,,,,,,,,,,,,,,,,,,,,,,,,,,,,,,,,,,,,0,1,1,0,1,,,,,,,,,,,,,,,,,,,,,,,,,,,,,,,,,,,,,,,,,,,,
300339,001,2022-11-20_16h55.25.925,Info_measure_main_exp,2022.2.2,Win32,240.1536984,,,,,,,,,,,,,,,,,,masks/mask_003.jpg,,,,,,,,,,,,,,,,,,,,,,,,,,,,,,,,,,,,,,,,,,,0,2,2,2,1,,,,,,,,,,,,,,,,,,,,,,,,,,,,,,,,,,,,,,,,,,,,
300339,001,2022-11-20_16h55.25.925,Info_measure_main_exp,2022.2.2,Win32,240.1536984,,,,,,,,,,,,,,,,,,masks/mask_005.jpg,,,,,,,,,,,,,,,,,,,,,,,,,,,,,,,,,,,,,,,,,,,0,3,3,4,1,,,,,,,,,,,,,,,,,,,,,,,,,,,,,,,,,,,,,,,,,,,,
300339,001,2022-11-20_16h55.25.925,Info_measure_main_exp,2022.2.2,Win32,240.1536984,,,,,,,,,,,,,,,,,,masks/mask_002.jpg,,,,,,,,,,,,,,,,,,,,,,,,,,,,,,,,,,,,,,,,,,,0,4,4,1,1,,,,,,,,,,,,,,,,,,,,,,,,,,,,,,,,,,,,,,,,,,,,
300339,001,2022-11-20_16h55.25.925,Info_measure_main_exp,2022.2.2,Win32,240.1536984,,,,,,,,,,,,,,,,,,masks/mask_004.jpg,,,,,,,,,,,,,,,,,,,,,,,,,,,,,,,,,,,,,,,,,,,,,,,,0,0,0,3,1,,,,,,,,,,,,,,,,,,,,,,,,,,,,,,,,,,,,,,,
300339,001,2022-11-20_16h55.25.925,Info_measure_main_exp,2022.2.2,Win32,240.1536984,,,,,,,,,,,,,,,,,,masks/mask_005.jpg,,,,,,,,,,,,,,,,,,,,,,,,,,,,,,,,,,,,,,,,,,,,,,,,0,1,1,4,1,,,,,,,,,,,,,,,,,,,,,,,,,,,,,,,,,,,,,,,
300339,001,2022-11-20_16h55.25.925,Info_measure_main_exp,2022.2.2,Win32,240.1536984,,,,,,,,,,,,,,,,,,masks/mask_003.jpg,,,,,,,,,,,,,,,,,,,,,,,,,,,,,,,,,,,,,,,,,,,,,,,,0,2,2,2,1,,,,,,,,,,,,,,,,,,,,,,,,,,,,,,,,,,,,,,,
300339,001,2022-11-20_16h55.25.925,Info_measure_main_exp,2022.2.2,Win32,240.1536984,,,,,,,,,,,,,,,,,,masks/mask_001.jpg,,,,,,,,,,,,,,,,,,,,,,,,,,,,,,,,,,,,,,,,,,,,,,,,0,3,3,0,1,,,,,,,,,,,,,,,,,,,,,,,,,,,,,,,,,,,,,,,
300339,001,2022-11-20_16h55.25.925,Info_measure_main_exp,2022.2.2,Win32,240.1536984,,,,,,,,,,,,,,,,,,masks/mask_002.jpg,,,,,,,,,,,,,,,,,,,,,,,,,,,,,,,,,,,,,,,,,,,,,,,,0,4,4,1,1,,,,,,,,,,,,,,,,,,,,,,,,,,,,,,,,,,,,,,,
300339,001,2022-11-20_16h55.25.925,Info_measure_main_exp,2022.2.2,Win32,240.1536984,,,,,,,,,,,,,,,,,,,,,,,,,,,,,,6,0.6611,1,,,,,,,,,,,,0,131,5,5,1974,2250,absent_patch/patch0001974.jpg,absent_patch/patch0002250.jpg,,,,,,,,,,,,,,,,,,,,0.1144641,0.080645161,1,0,0,response1disk,5,-0.005202914,0.006763788,1,0,0,center_square,0,4,4,55,1,,,,,,,,,,,,,,,,,,,,,
300339,001,2022-11-20_16h55.25.925,Info_measure_main_exp,2022.2.2,Win32,240.1536984,,,,,,,,,,,,,,,,,,masks/mask_005.jpg,,,,,,,,,,,,,,,,,,,,,,,,,,,,,,,,,,,,,,,,,,,0,0,0,4,1,,,,,,,,,,,,,,,,,,,,,,,,,,,,,,,,,,,,,,,,,,,,
300339,001,2022-11-20_16h55.25.925,Info_measure_main_exp,2022.2.2,Win32,240.1536984,,,,,,,,,,,,,,,,,,masks/mask_001.jpg,,,,,,,,,,,,,,,,,,,,,,,,,,,,,,,,,,,,,,,,,,,0,1,1,0,1,,,,,,,,,,,,,,,,,,,,,,,,,,,,,,,,,,,,,,,,,,,,
300339,001,2022-11-20_16h55.25.925,Info_measure_main_exp,2022.2.2,Win32,240.1536984,,,,,,,,,,,,,,,,,,masks/mask_003.jpg,,,,,,,,,,,,,,,,,,,,,,,,,,,,,,,,,,,,,,,,,,,0,2,2,2,1,,,,,,,,,,,,,,,,,,,,,,,,,,,,,,,,,,,,,,,,,,,,
300339,001,2022-11-20_16h55.25.925,Info_measure_main_exp,2022.2.2,Win32,240.1536984,,,,,,,,,,,,,,,,,,masks/mask_004.jpg,,,,,,,,,,,,,,,,,,,,,,,,,,,,,,,,,,,,,,,,,,,0,3,3,3,1,,,,,,,,,,,,,,,,,,,,,,,,,,,,,,,,,,,,,,,,,,,,
300339,001,2022-11-20_16h55.25.925,Info_measure_main_exp,2022.2.2,Win32,240.1536984,,,,,,,,,,,,,,,,,,masks/mask_002.jpg,,,,,,,,,,,,,,,,,,,,,,,,,,,,,,,,,,,,,,,,,,,0,4,4,1,1,,,,,,,,,,,,,,,,,,,,,,,,,,,,,,,,,,,,,,,,,,,,
300339,001,2022-11-20_16h55.25.925,Info_measure_main_exp,2022.2.2,Win32,240.1536984,,,,,,,,,,,,,,,,,,masks/mask_002.jpg,,,,,,,,,,,,,,,,,,,,,,,,,,,,,,,,,,,,,,,,,,,,,,,,0,0,0,1,1,,,,,,,,,,,,,,,,,,,,,,,,,,,,,,,,,,,,,,,
300339,001,2022-11-20_16h55.25.925,Info_measure_main_exp,2022.2.2,Win32,240.1536984,,,,,,,,,,,,,,,,,,masks/mask_004.jpg,,,,,,,,,,,,,,,,,,,,,,,,,,,,,,,,,,,,,,,,,,,,,,,,0,1,1,3,1,,,,,,,,,,,,,,,,,,,,,,,,,,,,,,,,,,,,,,,
300339,001,2022-11-20_16h55.25.925,Info_measure_main_exp,2022.2.2,Win32,240.1536984,,,,,,,,,,,,,,,,,,masks/mask_005.jpg,,,,,,,,,,,,,,,,,,,,,,,,,,,,,,,,,,,,,,,,,,,,,,,,0,2,2,4,1,,,,,,,,,,,,,,,,,,,,,,,,,,,,,,,,,,,,,,,
300339,001,2022-11-20_16h55.25.925,Info_measure_main_exp,2022.2.2,Win32,240.1536984,,,,,,,,,,,,,,,,,,masks/mask_001.jpg,,,,,,,,,,,,,,,,,,,,,,,,,,,,,,,,,,,,,,,,,,,,,,,,0,3,3,0,1,,,,,,,,,,,,,,,,,,,,,,,,,,,,,,,,,,,,,,,
300339,001,2022-11-20_16h55.25.925,Info_measure_main_exp,2022.2.2,Win32,240.1536984,,,,,,,,,,,,,,,,,,masks/mask_003.jpg,,,,,,,,,,,,,,,,,,,,,,,,,,,,,,,,,,,,,,,,,,,,,,,,0,4,4,2,1,,,,,,,,,,,,,,,,,,,,,,,,,,,,,,,,,,,,,,,
300339,001,2022-11-20_16h55.25.925,Info_measure_main_exp,2022.2.2,Win32,240.1536984,,,,,,,,,,,,,,,,,,,,,,,,,,,,,,7,1.0845,1,,,,,,,,,,,,0,131,5,5,2274,2082,absent_patch/patch0002274.jpg,absent_patch/patch0002082.jpg,,,,,,,,,,,,,,,,,,,,0.081165453,0.134755463,1,0,0,response1disk,6,0.013527575,-0.001560874,1,0,0,center_square,0,5,5,100,1,,,,,,,,,,,,,,,,,,,,,
300339,001,2022-11-20_16h55.25.925,Info_measure_main_exp,2022.2.2,Win32,240.1536984,,,,,,,,,,,,,,,,,,masks/mask_005.jpg,,,,,,,,,,,,,,,,,,,,,,,,,,,,,,,,,,,,,,,,,,,0,0,0,4,1,,,,,,,,,,,,,,,,,,,,,,,,,,,,,,,,,,,,,,,,,,,,
300339,001,2022-11-20_16h55.25.925,Info_measure_main_exp,2022.2.2,Win32,240.1536984,,,,,,,,,,,,,,,,,,masks/mask_003.jpg,,,,,,,,,,,,,,,,,,,,,,,,,,,,,,,,,,,,,,,,,,,0,1,1,2,1,,,,,,,,,,,,,,,,,,,,,,,,,,,,,,,,,,,,,,,,,,,,
300339,001,2022-11-20_16h55.25.925,Info_measure_main_exp,2022.2.2,Win32,240.1536984,,,,,,,,,,,,,,,,,,masks/mask_001.jpg,,,,,,,,,,,,,,,,,,,,,,,,,,,,,,,,,,,,,,,,,,,0,2,2,0,1,,,,,,,,,,,,,,,,,,,,,,,,,,,,,,,,,,,,,,,,,,,,
300339,001,2022-11-20_16h55.25.925,Info_measure_main_exp,2022.2.2,Win32,240.1536984,,,,,,,,,,,,,,,,,,masks/mask_004.jpg,,,,,,,,,,,,,,,,,,,,,,,,,,,,,,,,,,,,,,,,,,,0,3,3,3,1,,,,,,,,,,,,,,,,,,,,,,,,,,,,,,,,,,,,,,,,,,,,
300339,001,2022-11-20_16h55.25.925,Info_measure_main_exp,2022.2.2,Win32,240.1536984,,,,,,,,,,,,,,,,,,masks/mask_002.jpg,,,,,,,,,,,,,,,,,,,,,,,,,,,,,,,,,,,,,,,,,,,0,4,4,1,1,,,,,,,,,,,,,,,,,,,,,,,,,,,,,,,,,,,,,,,,,,,,
300339,001,2022-11-20_16h55.25.925,Info_measure_main_exp,2022.2.2,Win32,240.1536984,,,,,,,,,,,,,,,,,,masks/mask_002.jpg,,,,,,,,,,,,,,,,,,,,,,,,,,,,,,,,,,,,,,,,,,,,,,,,0,0,0,1,1,,,,,,,,,,,,,,,,,,,,,,,,,,,,,,,,,,,,,,,
300339,001,2022-11-20_16h55.25.925,Info_measure_main_exp,2022.2.2,Win32,240.1536984,,,,,,,,,,,,,,,,,,masks/mask_005.jpg,,,,,,,,,,,,,,,,,,,,,,,,,,,,,,,,,,,,,,,,,,,,,,,,0,1,1,4,1,,,,,,,,,,,,,,,,,,,,,,,,,,,,,,,,,,,,,,,
300339,001,2022-11-20_16h55.25.925,Info_measure_main_exp,2022.2.2,Win32,240.1536984,,,,,,,,,,,,,,,,,,masks/mask_001.jpg,,,,,,,,,,,,,,,,,,,,,,,,,,,,,,,,,,,,,,,,,,,,,,,,0,2,2,0,1,,,,,,,,,,,,,,,,,,,,,,,,,,,,,,,,,,,,,,,
300339,001,2022-11-20_16h55.25.925,Info_measure_main_exp,2022.2.2,Win32,240.1536984,,,,,,,,,,,,,,,,,,masks/mask_003.jpg,,,,,,,,,,,,,,,,,,,,,,,,,,,,,,,,,,,,,,,,,,,,,,,,0,3,3,2,1,,,,,,,,,,,,,,,,,,,,,,,,,,,,,,,,,,,,,,,
300339,001,2022-11-20_16h55.25.925,Info_measure_main_exp,2022.2.2,Win32,240.1536984,,,,,,,,,,,,,,,,,,masks/mask_004.jpg,,,,,,,,,,,,,,,,,,,,,,,,,,,,,,,,,,,,,,,,,,,,,,,,0,4,4,3,1,,,,,,,,,,,,,,,,,,,,,,,,,,,,,,,,,,,,,,,
300339,001,2022-11-20_16h55.25.925,Info_measure_main_exp,2022.2.2,Win32,240.1536984,,,,,,,,,,,,,,,,,,,,,,,,,,,,,,4,1.2053,1,,,,,,,,,,,,0,131,5,5,2082,1974,absent_patch/patch0002082.jpg,absent_patch/patch0001974.jpg,,,,,,,,,,,,,,,,,,,,0.042663892,-0.095213319,1,0,0,response3disk,7,-0.003121748,-0.00364204,1,0,0,center_square,0,6,6,26,1,,,,,,,,,,,,,,,,,,,,,
300339,001,2022-11-20_16h55.25.925,Info_measure_main_exp,2022.2.2,Win32,240.1536984,,,,,,,,,,,,,,,,,,masks/mask_004.jpg,,,,,,,,,,,,,,,,,,,,,,,,,,,,,,,,,,,,,,,,,,,0,0,0,3,1,,,,,,,,,,,,,,,,,,,,,,,,,,,,,,,,,,,,,,,,,,,,
300339,001,2022-11-20_16h55.25.925,Info_measure_main_exp,2022.2.2,Win32,240.1536984,,,,,,,,,,,,,,,,,,masks/mask_003.jpg,,,,,,,,,,,,,,,,,,,,,,,,,,,,,,,,,,,,,,,,,,,0,1,1,2,1,,,,,,,,,,,,,,,,,,,,,,,,,,,,,,,,,,,,,,,,,,,,
300339,001,2022-11-20_16h55.25.925,Info_measure_main_exp,2022.2.2,Win32,240.1536984,,,,,,,,,,,,,,,,,,masks/mask_005.jpg,,,,,,,,,,,,,,,,,,,,,,,,,,,,,,,,,,,,,,,,,,,0,2,2,4,1,,,,,,,,,,,,,,,,,,,,,,,,,,,,,,,,,,,,,,,,,,,,
300339,001,2022-11-20_16h55.25.925,Info_measure_main_exp,2022.2.2,Win32,240.1536984,,,,,,,,,,,,,,,,,,masks/mask_002.jpg,,,,,,,,,,,,,,,,,,,,,,,,,,,,,,,,,,,,,,,,,,,0,3,3,1,1,,,,,,,,,,,,,,,,,,,,,,,,,,,,,,,,,,,,,,,,,,,,
300339,001,2022-11-20_16h55.25.925,Info_measure_main_exp,2022.2.2,Win32,240.1536984,,,,,,,,,,,,,,,,,,masks/mask_001.jpg,,,,,,,,,,,,,,,,,,,,,,,,,,,,,,,,,,,,,,,,,,,0,4,4,0,1,,,,,,,,,,,,,,,,,,,,,,,,,,,,,,,,,,,,,,,,,,,,
300339,001,2022-11-20_16h55.25.925,Info_measure_main_exp,2022.2.2,Win32,240.1536984,,,,,,,,,,,,,,,,,,masks/mask_001.jpg,,,,,,,,,,,,,,,,,,,,,,,,,,,,,,,,,,,,,,,,,,,,,,,,0,0,0,0,1,,,,,,,,,,,,,,,,,,,,,,,,,,,,,,,,,,,,,,,
300339,001,2022-11-20_16h55.25.925,Info_measure_main_exp,2022.2.2,Win32,240.1536984,,,,,,,,,,,,,,,,,,masks/mask_005.jpg,,,,,,,,,,,,,,,,,,,,,,,,,,,,,,,,,,,,,,,,,,,,,,,,0,1,1,4,1,,,,,,,,,,,,,,,,,,,,,,,,,,,,,,,,,,,,,,,
300339,001,2022-11-20_16h55.25.925,Info_measure_main_exp,2022.2.2,Win32,240.1536984,,,,,,,,,,,,,,,,,,masks/mask_002.jpg,,,,,,,,,,,,,,,,,,,,,,,,,,,,,,,,,,,,,,,,,,,,,,,,0,2,2,1,1,,,,,,,,,,,,,,,,,,,,,,,,,,,,,,,,,,,,,,,
300339,001,2022-11-20_16h55.25.925,Info_measure_main_exp,2022.2.2,Win32,240.1536984,,,,,,,,,,,,,,,,,,masks/mask_003.jpg,,,,,,,,,,,,,,,,,,,,,,,,,,,,,,,,,,,,,,,,,,,,,,,,0,3,3,2,1,,,,,,,,,,,,,,,,,,,,,,,,,,,,,,,,,,,,,,,
300339,001,2022-11-20_16h55.25.925,Info_measure_main_exp,2022.2.2,Win32,240.1536984,,,,,,,,,,,,,,,,,,masks/mask_004.jpg,,,,,,,,,,,,,,,,,,,,,,,,,,,,,,,,,,,,,,,,,,,,,,,,0,4,4,3,1,,,,,,,,,,,,,,,,,,,,,,,,,,,,,,,,,,,,,,,
300339,001,2022-11-20_16h55.25.925,Info_measure_main_exp,2022.2.2,Win32,240.1536984,,,,,,,,,,,,,,,,,,,,,,,,,,,,,,6,0.8218,1,,,,,,,,,,,,0,131,5,5,2190,1974,absent_patch/patch0002190.jpg,absent_patch/patch0001974.jpg,,,,,,,,,,,,,,,,,,,,0.13735692,0.032778356,1,0,0,response1disk,8,0.006243496,-0.000520291,1,0,0,center_square,0,7,7,119,1,,,,,,,,,,,,,,,,,,,,,
300339,001,2022-11-20_16h55.25.925,Info_measure_main_exp,2022.2.2,Win32,240.1536984,,,,,,,,,,,,,,,,,,masks/mask_003.jpg,,,,,,,,,,,,,,,,,,,,,,,,,,,,,,,,,,,,,,,,,,,0,0,0,2,1,,,,,,,,,,,,,,,,,,,,,,,,,,,,,,,,,,,,,,,,,,,,
300339,001,2022-11-20_16h55.25.925,Info_measure_main_exp,2022.2.2,Win32,240.1536984,,,,,,,,,,,,,,,,,,masks/mask_001.jpg,,,,,,,,,,,,,,,,,,,,,,,,,,,,,,,,,,,,,,,,,,,0,1,1,0,1,,,,,,,,,,,,,,,,,,,,,,,,,,,,,,,,,,,,,,,,,,,,
300339,001,2022-11-20_16h55.25.925,Info_measure_main_exp,2022.2.2,Win32,240.1536984,,,,,,,,,,,,,,,,,,masks/mask_002.jpg,,,,,,,,,,,,,,,,,,,,,,,,,,,,,,,,,,,,,,,,,,,0,2,2,1,1,,,,,,,,,,,,,,,,,,,,,,,,,,,,,,,,,,,,,,,,,,,,
300339,001,2022-11-20_16h55.25.925,Info_measure_main_exp,2022.2.2,Win32,240.1536984,,,,,,,,,,,,,,,,,,masks/mask_004.jpg,,,,,,,,,,,,,,,,,,,,,,,,,,,,,,,,,,,,,,,,,,,0,3,3,3,1,,,,,,,,,,,,,,,,,,,,,,,,,,,,,,,,,,,,,,,,,,,,
300339,001,2022-11-20_16h55.25.925,Info_measure_main_exp,2022.2.2,Win32,240.1536984,,,,,,,,,,,,,,,,,,masks/mask_005.jpg,,,,,,,,,,,,,,,,,,,,,,,,,,,,,,,,,,,,,,,,,,,0,4,4,4,1,,,,,,,,,,,,,,,,,,,,,,,,,,,,,,,,,,,,,,,,,,,,
300339,001,2022-11-20_16h55.25.925,Info_measure_main_exp,2022.2.2,Win32,240.1536984,,,,,,,,,,,,,,,,,,masks/mask_004.jpg,,,,,,,,,,,,,,,,,,,,,,,,,,,,,,,,,,,,,,,,,,,,,,,,0,0,0,3,1,,,,,,,,,,,,,,,,,,,,,,,,,,,,,,,,,,,,,,,
300339,001,2022-11-20_16h55.25.925,Info_measure_main_exp,2022.2.2,Win32,240.1536984,,,,,,,,,,,,,,,,,,masks/mask_002.jpg,,,,,,,,,,,,,,,,,,,,,,,,,,,,,,,,,,,,,,,,,,,,,,,,0,1,1,1,1,,,,,,,,,,,,,,,,,,,,,,,,,,,,,,,,,,,,,,,
300339,001,2022-11-20_16h55.25.925,Info_measure_main_exp,2022.2.2,Win32,240.1536984,,,,,,,,,,,,,,,,,,masks/mask_001.jpg,,,,,,,,,,,,,,,,,,,,,,,,,,,,,,,,,,,,,,,,,,,,,,,,0,2,2,0,1,,,,,,,,,,,,,,,,,,,,,,,,,,,,,,,,,,,,,,,
300339,001,2022-11-20_16h55.25.925,Info_measure_main_exp,2022.2.2,Win32,240.1536984,,,,,,,,,,,,,,,,,,masks/mask_003.jpg,,,,,,,,,,,,,,,,,,,,,,,,,,,,,,,,,,,,,,,,,,,,,,,,0,3,3,2,1,,,,,,,,,,,,,,,,,,,,,,,,,,,,,,,,,,,,,,,
300339,001,2022-11-20_16h55.25.925,Info_measure_main_exp,2022.2.2,Win32,240.1536984,,,,,,,,,,,,,,,,,,masks/mask_005.jpg,,,,,,,,,,,,,,,,,,,,,,,,,,,,,,,,,,,,,,,,,,,,,,,,0,4,4,4,1,,,,,,,,,,,,,,,,,,,,,,,,,,,,,,,,,,,,,,,
300339,001,2022-11-20_16h55.25.925,Info_measure_main_exp,2022.2.2,Win32,240.1536984,,,,,,,,,,,,,,,,,,,,,,,,,,,,,,4,1.3055,1,,,,,,,,,,,,0,131,5,5,2250,1950,absent_patch/patch0002250.jpg,absent_patch/patch0001950.jpg,,,,,,,,,,,,,,,,,,,,0.012486993,-0.082726327,1,0,0,response3disk,9,-0.008324662,-0.00780437,1,0,0,center_square,0,8,8,16,1,,,,,,,,,,,,,,,,,,,,,
300339,001,2022-11-20_16h55.25.925,Info_measure_main_exp,2022.2.2,Win32,240.1536984,,,,,,,,,,,,,,,,,,masks/mask_004.jpg,,,,,,,,,,,,,,,,,,,,,,,,,,,,,,,,,,,,,,,,,,,0,0,0,3,1,,,,,,,,,,,,,,,,,,,,,,,,,,,,,,,,,,,,,,,,,,,,
300339,001,2022-11-20_16h55.25.925,Info_measure_main_exp,2022.2.2,Win32,240.1536984,,,,,,,,,,,,,,,,,,masks/mask_003.jpg,,,,,,,,,,,,,,,,,,,,,,,,,,,,,,,,,,,,,,,,,,,0,1,1,2,1,,,,,,,,,,,,,,,,,,,,,,,,,,,,,,,,,,,,,,,,,,,,
300339,001,2022-11-20_16h55.25.925,Info_measure_main_exp,2022.2.2,Win32,240.1536984,,,,,,,,,,,,,,,,,,masks/mask_001.jpg,,,,,,,,,,,,,,,,,,,,,,,,,,,,,,,,,,,,,,,,,,,0,2,2,0,1,,,,,,,,,,,,,,,,,,,,,,,,,,,,,,,,,,,,,,,,,,,,
300339,001,2022-11-20_16h55.25.925,Info_measure_main_exp,2022.2.2,Win32,240.1536984,,,,,,,,,,,,,,,,,,masks/mask_002.jpg,,,,,,,,,,,,,,,,,,,,,,,,,,,,,,,,,,,,,,,,,,,0,3,3,1,1,,,,,,,,,,,,,,,,,,,,,,,,,,,,,,,,,,,,,,,,,,,,
300339,001,2022-11-20_16h55.25.925,Info_measure_main_exp,2022.2.2,Win32,240.1536984,,,,,,,,,,,,,,,,,,masks/mask_005.jpg,,,,,,,,,,,,,,,,,,,,,,,,,,,,,,,,,,,,,,,,,,,0,4,4,4,1,,,,,,,,,,,,,,,,,,,,,,,,,,,,,,,,,,,,,,,,,,,,
300339,001,2022-11-20_16h55.25.925,Info_measure_main_exp,2022.2.2,Win32,240.1536984,,,,,,,,,,,,,,,,,,masks/mask_002.jpg,,,,,,,,,,,,,,,,,,,,,,,,,,,,,,,,,,,,,,,,,,,,,,,,0,0,0,1,1,,,,,,,,,,,,,,,,,,,,,,,,,,,,,,,,,,,,,,,
300339,001,2022-11-20_16h55.25.925,Info_measure_main_exp,2022.2.2,Win32,240.1536984,,,,,,,,,,,,,,,,,,masks/mask_004.jpg,,,,,,,,,,,,,,,,,,,,,,,,,,,,,,,,,,,,,,,,,,,,,,,,0,1,1,3,1,,,,,,,,,,,,,,,,,,,,,,,,,,,,,,,,,,,,,,,
300339,001,2022-11-20_16h55.25.925,Info_measure_main_exp,2022.2.2,Win32,240.1536984,,,,,,,,,,,,,,,,,,masks/mask_005.jpg,,,,,,,,,,,,,,,,,,,,,,,,,,,,,,,,,,,,,,,,,,,,,,,,0,2,2,4,1,,,,,,,,,,,,,,,,,,,,,,,,,,,,,,,,,,,,,,,
300339,001,2022-11-20_16h55.25.925,Info_measure_main_exp,2022.2.2,Win32,240.1536984,,,,,,,,,,,,,,,,,,masks/mask_001.jpg,,,,,,,,,,,,,,,,,,,,,,,,,,,,,,,,,,,,,,,,,,,,,,,,0,3,3,0,1,,,,,,,,,,,,,,,,,,,,,,,,,,,,,,,,,,,,,,,
300339,001,2022-11-20_16h55.25.925,Info_measure_main_exp,2022.2.2,Win32,240.1536984,,,,,,,,,,,,,,,,,,masks/mask_003.jpg,,,,,,,,,,,,,,,,,,,,,,,,,,,,,,,,,,,,,,,,,,,,,,,,0,4,4,2,1,,,,,,,,,,,,,,,,,,,,,,,,,,,,,,,,,,,,,,,
300339,001,2022-11-20_16h55.25.925,Info_measure_main_exp,2022.2.2,Win32,240.1536984,,,,,,,,,,,,,,,,,,,,,,,,,,,,,,0,1.1596,1,,,,,,,,,,,,1,131,5,5,1,1,present_patch/cong_131_5_a.jpg,present_patch/cong_131_5_a.jpg,,,,,,,,,,,,,,,,,,,,-0.047866805,0.135796046,1,0,0,response7disk,10,-0.007284079,-0.004682622,1,0,0,center_square,0,9,9,30,1,,,,,,,,,,,,,,,,,,,,,
300339,001,2022-11-20_16h55.25.925,Info_measure_main_exp,2022.2.2,Win32,240.1536984,,,,,,,,,,,,,,,,,,masks/mask_003.jpg,,,,,,,,,,,,,,,,,,,,,,,,,,,,,,,,,,,,,,,,,,,0,0,0,2,1,,,,,,,,,,,,,,,,,,,,,,,,,,,,,,,,,,,,,,,,,,,,
300339,001,2022-11-20_16h55.25.925,Info_measure_main_exp,2022.2.2,Win32,240.1536984,,,,,,,,,,,,,,,,,,masks/mask_004.jpg,,,,,,,,,,,,,,,,,,,,,,,,,,,,,,,,,,,,,,,,,,,0,1,1,3,1,,,,,,,,,,,,,,,,,,,,,,,,,,,,,,,,,,,,,,,,,,,,
300339,001,2022-11-20_16h55.25.925,Info_measure_main_exp,2022.2.2,Win32,240.1536984,,,,,,,,,,,,,,,,,,masks/mask_001.jpg,,,,,,,,,,,,,,,,,,,,,,,,,,,,,,,,,,,,,,,,,,,0,2,2,0,1,,,,,,,,,,,,,,,,,,,,,,,,,,,,,,,,,,,,,,,,,,,,
300339,001,2022-11-20_16h55.25.925,Info_measure_main_exp,2022.2.2,Win32,240.1536984,,,,,,,,,,,,,,,,,,masks/mask_002.jpg,,,,,,,,,,,,,,,,,,,,,,,,,,,,,,,,,,,,,,,,,,,0,3,3,1,1,,,,,,,,,,,,,,,,,,,,,,,,,,,,,,,,,,,,,,,,,,,,
300339,001,2022-11-20_16h55.25.925,Info_measure_main_exp,2022.2.2,Win32,240.1536984,,,,,,,,,,,,,,,,,,masks/mask_005.jpg,,,,,,,,,,,,,,,,,,,,,,,,,,,,,,,,,,,,,,,,,,,0,4,4,4,1,,,,,,,,,,,,,,,,,,,,,,,,,,,,,,,,,,,,,,,,,,,,
300339,001,2022-11-20_16h55.25.925,Info_measure_main_exp,2022.2.2,Win32,240.1536984,,,,,,,,,,,,,,,,,,masks/mask_005.jpg,,,,,,,,,,,,,,,,,,,,,,,,,,,,,,,,,,,,,,,,,,,,,,,,0,0,0,4,1,,,,,,,,,,,,,,,,,,,,,,,,,,,,,,,,,,,,,,,
300339,001,2022-11-20_16h55.25.925,Info_measure_main_exp,2022.2.2,Win32,240.1536984,,,,,,,,,,,,,,,,,,masks/mask_002.jpg,,,,,,,,,,,,,,,,,,,,,,,,,,,,,,,,,,,,,,,,,,,,,,,,0,1,1,1,1,,,,,,,,,,,,,,,,,,,,,,,,,,,,,,,,,,,,,,,
300339,001,2022-11-20_16h55.25.925,Info_measure_main_exp,2022.2.2,Win32,240.1536984,,,,,,,,,,,,,,,,,,masks/mask_003.jpg,,,,,,,,,,,,,,,,,,,,,,,,,,,,,,,,,,,,,,,,,,,,,,,,0,2,2,2,1,,,,,,,,,,,,,,,,,,,,,,,,,,,,,,,,,,,,,,,
300339,001,2022-11-20_16h55.25.925,Info_measure_main_exp,2022.2.2,Win32,240.1536984,,,,,,,,,,,,,,,,,,masks/mask_001.jpg,,,,,,,,,,,,,,,,,,,,,,,,,,,,,,,,,,,,,,,,,,,,,,,,0,3,3,0,1,,,,,,,,,,,,,,,,,,,,,,,,,,,,,,,,,,,,,,,
300339,001,2022-11-20_16h55.25.925,Info_measure_main_exp,2022.2.2,Win32,240.1536984,,,,,,,,,,,,,,,,,,masks/mask_004.jpg,,,,,,,,,,,,,,,,,,,,,,,,,,,,,,,,,,,,,,,,,,,,,,,,0,4,4,3,1,,,,,,,,,,,,,,,,,,,,,,,,,,,,,,,,,,,,,,,
300339,001,2022-11-20_16h55.25.925,Info_measure_main_exp,2022.2.2,Win32,240.1536984,,,,,,,,,,,,,,,,,,,,,,,,,,,,,,7,1.1177,1,,,,,,,,,,,,0,131,5,5,2274,1950,absent_patch/patch0002274.jpg,absent_patch/patch0001950.jpg,,,,,,,,,,,,,,,,,,,,0.056191467,0.125390219,1,0,0,response1disk,11,0,0.00364204,1,0,0,center_square,0,10,10,10,1,,,,,,,,,,,,,,,,,,,,,
300339,001,2022-11-20_16h55.25.925,Info_measure_main_exp,2022.2.2,Win32,240.1536984,,,,,,,,,,,,,,,,,,masks/mask_005.jpg,,,,,,,,,,,,,,,,,,,,,,,,,,,,,,,,,,,,,,,,,,,0,0,0,4,1,,,,,,,,,,,,,,,,,,,,,,,,,,,,,,,,,,,,,,,,,,,,
300339,001,2022-11-20_16h55.25.925,Info_measure_main_exp,2022.2.2,Win32,240.1536984,,,,,,,,,,,,,,,,,,masks/mask_002.jpg,,,,,,,,,,,,,,,,,,,,,,,,,,,,,,,,,,,,,,,,,,,0,1,1,1,1,,,,,,,,,,,,,,,,,,,,,,,,,,,,,,,,,,,,,,,,,,,,
300339,001,2022-11-20_16h55.25.925,Info_measure_main_exp,2022.2.2,Win32,240.1536984,,,,,,,,,,,,,,,,,,masks/mask_004.jpg,,,,,,,,,,,,,,,,,,,,,,,,,,,,,,,,,,,,,,,,,,,0,2,2,3,1,,,,,,,,,,,,,,,,,,,,,,,,,,,,,,,,,,,,,,,,,,,,
300339,001,2022-11-20_16h55.25.925,Info_measure_main_exp,2022.2.2,Win32,240.1536984,,,,,,,,,,,,,,,,,,masks/mask_001.jpg,,,,,,,,,,,,,,,,,,,,,,,,,,,,,,,,,,,,,,,,,,,0,3,3,0,1,,,,,,,,,,,,,,,,,,,,,,,,,,,,,,,,,,,,,,,,,,,,
300339,001,2022-11-20_16h55.25.925,Info_measure_main_exp,2022.2.2,Win32,240.1536984,,,,,,,,,,,,,,,,,,masks/mask_003.jpg,,,,,,,,,,,,,,,,,,,,,,,,,,,,,,,,,,,,,,,,,,,0,4,4,2,1,,,,,,,,,,,,,,,,,,,,,,,,,,,,,,,,,,,,,,,,,,,,
300339,001,2022-11-20_16h55.25.925,Info_measure_main_exp,2022.2.2,Win32,240.1536984,,,,,,,,,,,,,,,,,,masks/mask_001.jpg,,,,,,,,,,,,,,,,,,,,,,,,,,,,,,,,,,,,,,,,,,,,,,,,0,0,0,0,1,,,,,,,,,,,,,,,,,,,,,,,,,,,,,,,,,,,,,,,
300339,001,2022-11-20_16h55.25.925,Info_measure_main_exp,2022.2.2,Win32,240.1536984,,,,,,,,,,,,,,,,,,masks/mask_002.jpg,,,,,,,,,,,,,,,,,,,,,,,,,,,,,,,,,,,,,,,,,,,,,,,,0,1,1,1,1,,,,,,,,,,,,,,,,,,,,,,,,,,,,,,,,,,,,,,,
300339,001,2022-11-20_16h55.25.925,Info_measure_main_exp,2022.2.2,Win32,240.1536984,,,,,,,,,,,,,,,,,,masks/mask_004.jpg,,,,,,,,,,,,,,,,,,,,,,,,,,,,,,,,,,,,,,,,,,,,,,,,0,2,2,3,1,,,,,,,,,,,,,,,,,,,,,,,,,,,,,,,,,,,,,,,
300339,001,2022-11-20_16h55.25.925,Info_measure_main_exp,2022.2.2,Win32,240.1536984,,,,,,,,,,,,,,,,,,masks/mask_003.jpg,,,,,,,,,,,,,,,,,,,,,,,,,,,,,,,,,,,,,,,,,,,,,,,,0,3,3,2,1,,,,,,,,,,,,,,,,,,,,,,,,,,,,,,,,,,,,,,,
300339,001,2022-11-20_16h55.25.925,Info_measure_main_exp,2022.2.2,Win32,240.1536984,,,,,,,,,,,,,,,,,,masks/mask_005.jpg,,,,,,,,,,,,,,,,,,,,,,,,,,,,,,,,,,,,,,,,,,,,,,,,0,4,4,4,1,,,,,,,,,,,,,,,,,,,,,,,,,,,,,,,,,,,,,,,
300339,001,2022-11-20_16h55.25.925,Info_measure_main_exp,2022.2.2,Win32,240.1536984,,,,,,,,,,,,,,,,,,,,,,,,,,,,,,5,0.7008,1,,,,,,,,,,,,0,131,5,5,2154,2250,absent_patch/patch0002154.jpg,absent_patch/patch0002250.jpg,,,,,,,,,,,,,,,,,,,,0.116545265,-0.033818939,1,0,0,response3disk,12,-0.007284079,0.00364204,1,0,0,center_square,0,11,11,108,1,,,,,,,,,,,,,,,,,,,,,
300339,001,2022-11-20_16h55.25.925,Info_measure_main_exp,2022.2.2,Win32,240.1536984,,,,,,,,,,,,,,,,,,masks/mask_002.jpg,,,,,,,,,,,,,,,,,,,,,,,,,,,,,,,,,,,,,,,,,,,0,0,0,1,1,,,,,,,,,,,,,,,,,,,,,,,,,,,,,,,,,,,,,,,,,,,,
300339,001,2022-11-20_16h55.25.925,Info_measure_main_exp,2022.2.2,Win32,240.1536984,,,,,,,,,,,,,,,,,,masks/mask_003.jpg,,,,,,,,,,,,,,,,,,,,,,,,,,,,,,,,,,,,,,,,,,,0,1,1,2,1,,,,,,,,,,,,,,,,,,,,,,,,,,,,,,,,,,,,,,,,,,,,
300339,001,2022-11-20_16h55.25.925,Info_measure_main_exp,2022.2.2,Win32,240.1536984,,,,,,,,,,,,,,,,,,masks/mask_004.jpg,,,,,,,,,,,,,,,,,,,,,,,,,,,,,,,,,,,,,,,,,,,0,2,2,3,1,,,,,,,,,,,,,,,,,,,,,,,,,,,,,,,,,,,,,,,,,,,,
300339,001,2022-11-20_16h55.25.925,Info_measure_main_exp,2022.2.2,Win32,240.1536984,,,,,,,,,,,,,,,,,,masks/mask_001.jpg,,,,,,,,,,,,,,,,,,,,,,,,,,,,,,,,,,,,,,,,,,,0,3,3,0,1,,,,,,,,,,,,,,,,,,,,,,,,,,,,,,,,,,,,,,,,,,,,
300339,001,2022-11-20_16h55.25.925,Info_measure_main_exp,2022.2.2,Win32,240.1536984,,,,,,,,,,,,,,,,,,masks/mask_005.jpg,,,,,,,,,,,,,,,,,,,,,,,,,,,,,,,,,,,,,,,,,,,0,4,4,4,1,,,,,,,,,,,,,,,,,,,,,,,,,,,,,,,,,,,,,,,,,,,,
300339,001,2022-11-20_16h55.25.925,Info_measure_main_exp,2022.2.2,Win32,240.1536984,,,,,,,,,,,,,,,,,,masks/mask_003.jpg,,,,,,,,,,,,,,,,,,,,,,,,,,,,,,,,,,,,,,,,,,,,,,,,0,0,0,2,1,,,,,,,,,,,,,,,,,,,,,,,,,,,,,,,,,,,,,,,
300339,001,2022-11-20_16h55.25.925,Info_measure_main_exp,2022.2.2,Win32,240.1536984,,,,,,,,,,,,,,,,,,masks/mask_005.jpg,,,,,,,,,,,,,,,,,,,,,,,,,,,,,,,,,,,,,,,,,,,,,,,,0,1,1,4,1,,,,,,,,,,,,,,,,,,,,,,,,,,,,,,,,,,,,,,,
300339,001,2022-11-20_16h55.25.925,Info_measure_main_exp,2022.2.2,Win32,240.1536984,,,,,,,,,,,,,,,,,,masks/mask_001.jpg,,,,,,,,,,,,,,,,,,,,,,,,,,,,,,,,,,,,,,,,,,,,,,,,0,2,2,0,1,,,,,,,,,,,,,,,,,,,,,,,,,,,,,,,,,,,,,,,
300339,001,2022-11-20_16h55.25.925,Info_measure_main_exp,2022.2.2,Win32,240.1536984,,,,,,,,,,,,,,,,,,masks/mask_002.jpg,,,,,,,,,,,,,,,,,,,,,,,,,,,,,,,,,,,,,,,,,,,,,,,,0,3,3,1,1,,,,,,,,,,,,,,,,,,,,,,,,,,,,,,,,,,,,,,,
300339,001,2022-11-20_16h55.25.925,Info_measure_main_exp,2022.2.2,Win32,240.1536984,,,,,,,,,,,,,,,,,,masks/mask_004.jpg,,,,,,,,,,,,,,,,,,,,,,,,,,,,,,,,,,,,,,,,,,,,,,,,0,4,4,3,1,,,,,,,,,,,,,,,,,,,,,,,,,,,,,,,,,,,,,,,
300339,001,2022-11-20_16h55.25.925,Info_measure_main_exp,2022.2.2,Win32,240.1536984,,,,,,,,,,,,,,,,,,,,,,,,,,,,,,5,0.78,1,,,,,,,,,,,,0,131,5,5,2298,2214,absent_patch/patch0002298.jpg,absent_patch/patch0002214.jpg,,,,,,,,,,,,,,,,,,,,0.064516129,-0.033818939,1,0,0,response3disk,13,-0.003121748,0.002601457,1,0,0,center_square,0,12,12,99,1,,,,,,,,,,,,,,,,,,,,,
300339,001,2022-11-20_16h55.25.925,Info_measure_main_exp,2022.2.2,Win32,240.1536984,,,,,,,,,,,,,,,,,,masks/mask_003.jpg,,,,,,,,,,,,,,,,,,,,,,,,,,,,,,,,,,,,,,,,,,,0,0,0,2,1,,,,,,,,,,,,,,,,,,,,,,,,,,,,,,,,,,,,,,,,,,,,
300339,001,2022-11-20_16h55.25.925,Info_measure_main_exp,2022.2.2,Win32,240.1536984,,,,,,,,,,,,,,,,,,masks/mask_004.jpg,,,,,,,,,,,,,,,,,,,,,,,,,,,,,,,,,,,,,,,,,,,0,1,1,3,1,,,,,,,,,,,,,,,,,,,,,,,,,,,,,,,,,,,,,,,,,,,,
300339,001,2022-11-20_16h55.25.925,Info_measure_main_exp,2022.2.2,Win32,240.1536984,,,,,,,,,,,,,,,,,,masks/mask_001.jpg,,,,,,,,,,,,,,,,,,,,,,,,,,,,,,,,,,,,,,,,,,,0,2,2,0,1,,,,,,,,,,,,,,,,,,,,,,,,,,,,,,,,,,,,,,,,,,,,
300339,001,2022-11-20_16h55.25.925,Info_measure_main_exp,2022.2.2,Win32,240.1536984,,,,,,,,,,,,,,,,,,masks/mask_002.jpg,,,,,,,,,,,,,,,,,,,,,,,,,,,,,,,,,,,,,,,,,,,0,3,3,1,1,,,,,,,,,,,,,,,,,,,,,,,,,,,,,,,,,,,,,,,,,,,,
300339,001,2022-11-20_16h55.25.925,Info_measure_main_exp,2022.2.2,Win32,240.1536984,,,,,,,,,,,,,,,,,,masks/mask_005.jpg,,,,,,,,,,,,,,,,,,,,,,,,,,,,,,,,,,,,,,,,,,,0,4,4,4,1,,,,,,,,,,,,,,,,,,,,,,,,,,,,,,,,,,,,,,,,,,,,
300339,001,2022-11-20_16h55.25.925,Info_measure_main_exp,2022.2.2,Win32,240.1536984,,,,,,,,,,,,,,,,,,masks/mask_005.jpg,,,,,,,,,,,,,,,,,,,,,,,,,,,,,,,,,,,,,,,,,,,,,,,,0,0,0,4,1,,,,,,,,,,,,,,,,,,,,,,,,,,,,,,,,,,,,,,,
300339,001,2022-11-20_16h55.25.925,Info_measure_main_exp,2022.2.2,Win32,240.1536984,,,,,,,,,,,,,,,,,,masks/mask_004.jpg,,,,,,,,,,,,,,,,,,,,,,,,,,,,,,,,,,,,,,,,,,,,,,,,0,1,1,3,1,,,,,,,,,,,,,,,,,,,,,,,,,,,,,,,,,,,,,,,
300339,001,2022-11-20_16h55.25.925,Info_measure_main_exp,2022.2.2,Win32,240.1536984,,,,,,,,,,,,,,,,,,masks/mask_003.jpg,,,,,,,,,,,,,,,,,,,,,,,,,,,,,,,,,,,,,,,,,,,,,,,,0,2,2,2,1,,,,,,,,,,,,,,,,,,,,,,,,,,,,,,,,,,,,,,,
300339,001,2022-11-20_16h55.25.925,Info_measure_main_exp,2022.2.2,Win32,240.1536984,,,,,,,,,,,,,,,,,,masks/mask_002.jpg,,,,,,,,,,,,,,,,,,,,,,,,,,,,,,,,,,,,,,,,,,,,,,,,0,3,3,1,1,,,,,,,,,,,,,,,,,,,,,,,,,,,,,,,,,,,,,,,
300339,001,2022-11-20_16h55.25.925,Info_measure_main_exp,2022.2.2,Win32,240.1536984,,,,,,,,,,,,,,,,,,masks/mask_001.jpg,,,,,,,,,,,,,,,,,,,,,,,,,,,,,,,,,,,,,,,,,,,,,,,,0,4,4,0,1,,,,,,,,,,,,,,,,,,,,,,,,,,,,,,,,,,,,,,,
300339,001,2022-11-20_16h55.25.925,Info_measure_main_exp,2022.2.2,Win32,240.1536984,,,,,,,,,,,,,,,,,,,,,,,,,,,,,,5,1.0731,1,,,,,,,,,,,,0,131,5,5,2250,2178,absent_patch/patch0002250.jpg,absent_patch/patch0002178.jpg,,,,,,,,,,,,,,,,,,,,0.079084287,-0.031737773,1,0,0,response3disk,14,0.004162331,-0.002601457,1,0,0,center_square,0,13,13,48,1,,,,,,,,,,,,,,,,,,,,,
300339,001,2022-11-20_16h55.25.925,Info_measure_main_exp,2022.2.2,Win32,240.1536984,,,,,,,,,,,,,,,,,,masks/mask_004.jpg,,,,,,,,,,,,,,,,,,,,,,,,,,,,,,,,,,,,,,,,,,,0,0,0,3,1,,,,,,,,,,,,,,,,,,,,,,,,,,,,,,,,,,,,,,,,,,,,
300339,001,2022-11-20_16h55.25.925,Info_measure_main_exp,2022.2.2,Win32,240.1536984,,,,,,,,,,,,,,,,,,masks/mask_002.jpg,,,,,,,,,,,,,,,,,,,,,,,,,,,,,,,,,,,,,,,,,,,0,1,1,1,1,,,,,,,,,,,,,,,,,,,,,,,,,,,,,,,,,,,,,,,,,,,,
300339,001,2022-11-20_16h55.25.925,Info_measure_main_exp,2022.2.2,Win32,240.1536984,,,,,,,,,,,,,,,,,,masks/mask_003.jpg,,,,,,,,,,,,,,,,,,,,,,,,,,,,,,,,,,,,,,,,,,,0,2,2,2,1,,,,,,,,,,,,,,,,,,,,,,,,,,,,,,,,,,,,,,,,,,,,
300339,001,2022-11-20_16h55.25.925,Info_measure_main_exp,2022.2.2,Win32,240.1536984,,,,,,,,,,,,,,,,,,masks/mask_005.jpg,,,,,,,,,,,,,,,,,,,,,,,,,,,,,,,,,,,,,,,,,,,0,3,3,4,1,,,,,,,,,,,,,,,,,,,,,,,,,,,,,,,,,,,,,,,,,,,,
300339,001,2022-11-20_16h55.25.925,Info_measure_main_exp,2022.2.2,Win32,240.1536984,,,,,,,,,,,,,,,,,,masks/mask_001.jpg,,,,,,,,,,,,,,,,,,,,,,,,,,,,,,,,,,,,,,,,,,,0,4,4,0,1,,,,,,,,,,,,,,,,,,,,,,,,,,,,,,,,,,,,,,,,,,,,
300339,001,2022-11-20_16h55.25.925,Info_measure_main_exp,2022.2.2,Win32,240.1536984,,,,,,,,,,,,,,,,,,masks/mask_005.jpg,,,,,,,,,,,,,,,,,,,,,,,,,,,,,,,,,,,,,,,,,,,,,,,,0,0,0,4,1,,,,,,,,,,,,,,,,,,,,,,,,,,,,,,,,,,,,,,,
300339,001,2022-11-20_16h55.25.925,Info_measure_main_exp,2022.2.2,Win32,240.1536984,,,,,,,,,,,,,,,,,,masks/mask_002.jpg,,,,,,,,,,,,,,,,,,,,,,,,,,,,,,,,,,,,,,,,,,,,,,,,0,1,1,1,1,,,,,,,,,,,,,,,,,,,,,,,,,,,,,,,,,,,,,,,
300339,001,2022-11-20_16h55.25.925,Info_measure_main_exp,2022.2.2,Win32,240.1536984,,,,,,,,,,,,,,,,,,masks/mask_004.jpg,,,,,,,,,,,,,,,,,,,,,,,,,,,,,,,,,,,,,,,,,,,,,,,,0,2,2,3,1,,,,,,,,,,,,,,,,,,,,,,,,,,,,,,,,,,,,,,,
300339,001,2022-11-20_16h55.25.925,Info_measure_main_exp,2022.2.2,Win32,240.1536984,,,,,,,,,,,,,,,,,,masks/mask_001.jpg,,,,,,,,,,,,,,,,,,,,,,,,,,,,,,,,,,,,,,,,,,,,,,,,0,3,3,0,1,,,,,,,,,,,,,,,,,,,,,,,,,,,,,,,,,,,,,,,
300339,001,2022-11-20_16h55.25.925,Info_measure_main_exp,2022.2.2,Win32,240.1536984,,,,,,,,,,,,,,,,,,masks/mask_003.jpg,,,,,,,,,,,,,,,,,,,,,,,,,,,,,,,,,,,,,,,,,,,,,,,,0,4,4,2,1,,,,,,,,,,,,,,,,,,,,,,,,,,,,,,,,,,,,,,,
300339,001,2022-11-20_16h55.25.925,Info_measure_main_exp,2022.2.2,Win32,240.1536984,,,,,,,,,,,,,,,,,,,,,,,,,,,,,,6,0.5005,1,,,,,,,,,,,,0,131,5,5,2298,2142,absent_patch/patch0002298.jpg,absent_patch/patch0002142.jpg,,,,,,,,,,,,,,,,,,,,0.097814776,0.056711759,1,0,0,response1disk,15,0.01144641,-0.002601457,1,0,0,center_square,0,14,14,49,1,,,,,,,,,,,,,,,,,,,,,
300339,001,2022-11-20_16h55.25.925,Info_measure_main_exp,2022.2.2,Win32,240.1536984,,,,,,,,,,,,,,,,,,masks/mask_003.jpg,,,,,,,,,,,,,,,,,,,,,,,,,,,,,,,,,,,,,,,,,,,0,0,0,2,1,,,,,,,,,,,,,,,,,,,,,,,,,,,,,,,,,,,,,,,,,,,,
300339,001,2022-11-20_16h55.25.925,Info_measure_main_exp,2022.2.2,Win32,240.1536984,,,,,,,,,,,,,,,,,,masks/mask_001.jpg,,,,,,,,,,,,,,,,,,,,,,,,,,,,,,,,,,,,,,,,,,,0,1,1,0,1,,,,,,,,,,,,,,,,,,,,,,,,,,,,,,,,,,,,,,,,,,,,
300339,001,2022-11-20_16h55.25.925,Info_measure_main_exp,2022.2.2,Win32,240.1536984,,,,,,,,,,,,,,,,,,masks/mask_004.jpg,,,,,,,,,,,,,,,,,,,,,,,,,,,,,,,,,,,,,,,,,,,0,2,2,3,1,,,,,,,,,,,,,,,,,,,,,,,,,,,,,,,,,,,,,,,,,,,,
300339,001,2022-11-20_16h55.25.925,Info_measure_main_exp,2022.2.2,Win32,240.1536984,,,,,,,,,,,,,,,,,,masks/mask_005.jpg,,,,,,,,,,,,,,,,,,,,,,,,,,,,,,,,,,,,,,,,,,,0,3,3,4,1,,,,,,,,,,,,,,,,,,,,,,,,,,,,,,,,,,,,,,,,,,,,
300339,001,2022-11-20_16h55.25.925,Info_measure_main_exp,2022.2.2,Win32,240.1536984,,,,,,,,,,,,,,,,,,masks/mask_002.jpg,,,,,,,,,,,,,,,,,,,,,,,,,,,,,,,,,,,,,,,,,,,0,4,4,1,1,,,,,,,,,,,,,,,,,,,,,,,,,,,,,,,,,,,,,,,,,,,,
300339,001,2022-11-20_16h55.25.925,Info_measure_main_exp,2022.2.2,Win32,240.1536984,,,,,,,,,,,,,,,,,,masks/mask_002.jpg,,,,,,,,,,,,,,,,,,,,,,,,,,,,,,,,,,,,,,,,,,,,,,,,0,0,0,1,1,,,,,,,,,,,,,,,,,,,,,,,,,,,,,,,,,,,,,,,
300339,001,2022-11-20_16h55.25.925,Info_measure_main_exp,2022.2.2,Win32,240.1536984,,,,,,,,,,,,,,,,,,masks/mask_001.jpg,,,,,,,,,,,,,,,,,,,,,,,,,,,,,,,,,,,,,,,,,,,,,,,,0,1,1,0,1,,,,,,,,,,,,,,,,,,,,,,,,,,,,,,,,,,,,,,,
300339,001,2022-11-20_16h55.25.925,Info_measure_main_exp,2022.2.2,Win32,240.1536984,,,,,,,,,,,,,,,,,,masks/mask_005.jpg,,,,,,,,,,,,,,,,,,,,,,,,,,,,,,,,,,,,,,,,,,,,,,,,0,2,2,4,1,,,,,,,,,,,,,,,,,,,,,,,,,,,,,,,,,,,,,,,
300339,001,2022-11-20_16h55.25.925,Info_measure_main_exp,2022.2.2,Win32,240.1536984,,,,,,,,,,,,,,,,,,masks/mask_003.jpg,,,,,,,,,,,,,,,,,,,,,,,,,,,,,,,,,,,,,,,,,,,,,,,,0,3,3,2,1,,,,,,,,,,,,,,,,,,,,,,,,,,,,,,,,,,,,,,,
300339,001,2022-11-20_16h55.25.925,Info_measure_main_exp,2022.2.2,Win32,240.1536984,,,,,,,,,,,,,,,,,,masks/mask_004.jpg,,,,,,,,,,,,,,,,,,,,,,,,,,,,,,,,,,,,,,,,,,,,,,,,0,4,4,3,1,,,,,,,,,,,,,,,,,,,,,,,,,,,,,,,,,,,,,,,
300339,001,2022-11-20_16h55.25.925,Info_measure_main_exp,2022.2.2,Win32,240.1536984,,,,,,,,,,,,,,,,,,,,,,,,,,,,,,7,0.9593,1,,,,,,,,,,,,0,131,5,5,2142,2238,absent_patch/patch0002142.jpg,absent_patch/patch0002238.jpg,,,,,,,,,,,,,,,,,,,,0.029136316,0.112903226,1,0,0,response1disk,16,-0.005202914,-0.002601457,1,0,0,center_square,0,15,15,101,1,,,,,,,,,,,,,,,,,,,,,
300339,001,2022-11-20_16h55.25.925,Info_measure_main_exp,2022.2.2,Win32,240.1536984,,,,,,,,,,,,,,,,,,masks/mask_003.jpg,,,,,,,,,,,,,,,,,,,,,,,,,,,,,,,,,,,,,,,,,,,0,0,0,2,1,,,,,,,,,,,,,,,,,,,,,,,,,,,,,,,,,,,,,,,,,,,,
300339,001,2022-11-20_16h55.25.925,Info_measure_main_exp,2022.2.2,Win32,240.1536984,,,,,,,,,,,,,,,,,,masks/mask_005.jpg,,,,,,,,,,,,,,,,,,,,,,,,,,,,,,,,,,,,,,,,,,,0,1,1,4,1,,,,,,,,,,,,,,,,,,,,,,,,,,,,,,,,,,,,,,,,,,,,
300339,001,2022-11-20_16h55.25.925,Info_measure_main_exp,2022.2.2,Win32,240.1536984,,,,,,,,,,,,,,,,,,masks/mask_002.jpg,,,,,,,,,,,,,,,,,,,,,,,,,,,,,,,,,,,,,,,,,,,0,2,2,1,1,,,,,,,,,,,,,,,,,,,,,,,,,,,,,,,,,,,,,,,,,,,,
300339,001,2022-11-20_16h55.25.925,Info_measure_main_exp,2022.2.2,Win32,240.1536984,,,,,,,,,,,,,,,,,,masks/mask_004.jpg,,,,,,,,,,,,,,,,,,,,,,,,,,,,,,,,,,,,,,,,,,,0,3,3,3,1,,,,,,,,,,,,,,,,,,,,,,,,,,,,,,,,,,,,,,,,,,,,
300339,001,2022-11-20_16h55.25.925,Info_measure_main_exp,2022.2.2,Win32,240.1536984,,,,,,,,,,,,,,,,,,masks/mask_001.jpg,,,,,,,,,,,,,,,,,,,,,,,,,,,,,,,,,,,,,,,,,,,0,4,4,0,1,,,,,,,,,,,,,,,,,,,,,,,,,,,,,,,,,,,,,,,,,,,,
300339,001,2022-11-20_16h55.25.925,Info_measure_main_exp,2022.2.2,Win32,240.1536984,,,,,,,,,,,,,,,,,,masks/mask_003.jpg,,,,,,,,,,,,,,,,,,,,,,,,,,,,,,,,,,,,,,,,,,,,,,,,0,0,0,2,1,,,,,,,,,,,,,,,,,,,,,,,,,,,,,,,,,,,,,,,
300339,001,2022-11-20_16h55.25.925,Info_measure_main_exp,2022.2.2,Win32,240.1536984,,,,,,,,,,,,,,,,,,masks/mask_004.jpg,,,,,,,,,,,,,,,,,,,,,,,,,,,,,,,,,,,,,,,,,,,,,,,,0,1,1,3,1,,,,,,,,,,,,,,,,,,,,,,,,,,,,,,,,,,,,,,,
300339,001,2022-11-20_16h55.25.925,Info_measure_main_exp,2022.2.2,Win32,240.1536984,,,,,,,,,,,,,,,,,,masks/mask_005.jpg,,,,,,,,,,,,,,,,,,,,,,,,,,,,,,,,,,,,,,,,,,,,,,,,0,2,2,4,1,,,,,,,,,,,,,,,,,,,,,,,,,,,,,,,,,,,,,,,
300339,001,2022-11-20_16h55.25.925,Info_measure_main_exp,2022.2.2,Win32,240.1536984,,,,,,,,,,,,,,,,,,masks/mask_002.jpg,,,,,,,,,,,,,,,,,,,,,,,,,,,,,,,,,,,,,,,,,,,,,,,,0,3,3,1,1,,,,,,,,,,,,,,,,,,,,,,,,,,,,,,,,,,,,,,,
300339,001,2022-11-20_16h55.25.925,Info_measure_main_exp,2022.2.2,Win32,240.1536984,,,,,,,,,,,,,,,,,,masks/mask_001.jpg,,,,,,,,,,,,,,,,,,,,,,,,,,,,,,,,,,,,,,,,,,,,,,,,0,4,4,0,1,,,,,,,,,,,,,,,,,,,,,,,,,,,,,,,,,,,,,,,
300339,001,2022-11-20_16h55.25.925,Info_measure_main_exp,2022.2.2,Win32,240.1536984,,,,,,,,,,,,,,,,,,,,,,,,,,,,,,0,0.7049,1,,,,,,,,,,,,0,131,5,5,1950,1950,absent_patch/patch0001950.jpg,absent_patch/patch0001950.jpg,,,,,,,,,,,,,,,,,,,,-0.067637877,0.137877211,1,0,0,response7disk,17,0.004162331,-0.006763788,1,0,0,center_square,0,16,16,92,1,,,,,,,,,,,,,,,,,,,,,
300339,001,2022-11-20_16h55.25.925,Info_measure_main_exp,2022.2.2,Win32,240.1536984,,,,,,,,,,,,,,,,,,masks/mask_003.jpg,,,,,,,,,,,,,,,,,,,,,,,,,,,,,,,,,,,,,,,,,,,0,0,0,2,1,,,,,,,,,,,,,,,,,,,,,,,,,,,,,,,,,,,,,,,,,,,,
300339,001,2022-11-20_16h55.25.925,Info_measure_main_exp,2022.2.2,Win32,240.1536984,,,,,,,,,,,,,,,,,,masks/mask_005.jpg,,,,,,,,,,,,,,,,,,,,,,,,,,,,,,,,,,,,,,,,,,,0,1,1,4,1,,,,,,,,,,,,,,,,,,,,,,,,,,,,,,,,,,,,,,,,,,,,
300339,001,2022-11-20_16h55.25.925,Info_measure_main_exp,2022.2.2,Win32,240.1536984,,,,,,,,,,,,,,,,,,masks/mask_001.jpg,,,,,,,,,,,,,,,,,,,,,,,,,,,,,,,,,,,,,,,,,,,0,2,2,0,1,,,,,,,,,,,,,,,,,,,,,,,,,,,,,,,,,,,,,,,,,,,,
300339,001,2022-11-20_16h55.25.925,Info_measure_main_exp,2022.2.2,Win32,240.1536984,,,,,,,,,,,,,,,,,,masks/mask_002.jpg,,,,,,,,,,,,,,,,,,,,,,,,,,,,,,,,,,,,,,,,,,,0,3,3,1,1,,,,,,,,,,,,,,,,,,,,,,,,,,,,,,,,,,,,,,,,,,,,
300339,001,2022-11-20_16h55.25.925,Info_measure_main_exp,2022.2.2,Win32,240.1536984,,,,,,,,,,,,,,,,,,masks/mask_004.jpg,,,,,,,,,,,,,,,,,,,,,,,,,,,,,,,,,,,,,,,,,,,0,4,4,3,1,,,,,,,,,,,,,,,,,,,,,,,,,,,,,,,,,,,,,,,,,,,,
300339,001,2022-11-20_16h55.25.925,Info_measure_main_exp,2022.2.2,Win32,240.1536984,,,,,,,,,,,,,,,,,,masks/mask_001.jpg,,,,,,,,,,,,,,,,,,,,,,,,,,,,,,,,,,,,,,,,,,,,,,,,0,0,0,0,1,,,,,,,,,,,,,,,,,,,,,,,,,,,,,,,,,,,,,,,
300339,001,2022-11-20_16h55.25.925,Info_measure_main_exp,2022.2.2,Win32,240.1536984,,,,,,,,,,,,,,,,,,masks/mask_004.jpg,,,,,,,,,,,,,,,,,,,,,,,,,,,,,,,,,,,,,,,,,,,,,,,,0,1,1,3,1,,,,,,,,,,,,,,,,,,,,,,,,,,,,,,,,,,,,,,,
300339,001,2022-11-20_16h55.25.925,Info_measure_main_exp,2022.2.2,Win32,240.1536984,,,,,,,,,,,,,,,,,,masks/mask_002.jpg,,,,,,,,,,,,,,,,,,,,,,,,,,,,,,,,,,,,,,,,,,,,,,,,0,2,2,1,1,,,,,,,,,,,,,,,,,,,,,,,,,,,,,,,,,,,,,,,
300339,001,2022-11-20_16h55.25.925,Info_measure_main_exp,2022.2.2,Win32,240.1536984,,,,,,,,,,,,,,,,,,masks/mask_005.jpg,,,,,,,,,,,,,,,,,,,,,,,,,,,,,,,,,,,,,,,,,,,,,,,,0,3,3,4,1,,,,,,,,,,,,,,,,,,,,,,,,,,,,,,,,,,,,,,,
300339,001,2022-11-20_16h55.25.925,Info_measure_main_exp,2022.2.2,Win32,240.1536984,,,,,,,,,,,,,,,,,,masks/mask_003.jpg,,,,,,,,,,,,,,,,,,,,,,,,,,,,,,,,,,,,,,,,,,,,,,,,0,4,4,2,1,,,,,,,,,,,,,,,,,,,,,,,,,,,,,,,,,,,,,,,
300339,001,2022-11-20_16h55.25.925,Info_measure_main_exp,2022.2.2,Win32,240.1536984,,,,,,,,,,,,,,,,,,,,,,,,,,,,,,7,1.1221,1,,,,,,,,,,,,1,131,5,5,2298,1,absent_patch/patch0002298.jpg,present_patch/cong_131_5_a.jpg,,,,,,,,,,,,,,,,,,,,0.074921956,0.127471384,1,0,0,response1disk,18,-0.001040583,-0.010926119,1,0,0,center_square,0,17,17,45,1,,,,,,,,,,,,,,,,,,,,,
300339,001,2022-11-20_16h55.25.925,Info_measure_main_exp,2022.2.2,Win32,240.1536984,,,,,,,,,,,,,,,,,,masks/mask_001.jpg,,,,,,,,,,,,,,,,,,,,,,,,,,,,,,,,,,,,,,,,,,,0,0,0,0,1,,,,,,,,,,,,,,,,,,,,,,,,,,,,,,,,,,,,,,,,,,,,
300339,001,2022-11-20_16h55.25.925,Info_measure_main_exp,2022.2.2,Win32,240.1536984,,,,,,,,,,,,,,,,,,masks/mask_002.jpg,,,,,,,,,,,,,,,,,,,,,,,,,,,,,,,,,,,,,,,,,,,0,1,1,1,1,,,,,,,,,,,,,,,,,,,,,,,,,,,,,,,,,,,,,,,,,,,,
300339,001,2022-11-20_16h55.25.925,Info_measure_main_exp,2022.2.2,Win32,240.1536984,,,,,,,,,,,,,,,,,,masks/mask_003.jpg,,,,,,,,,,,,,,,,,,,,,,,,,,,,,,,,,,,,,,,,,,,0,2,2,2,1,,,,,,,,,,,,,,,,,,,,,,,,,,,,,,,,,,,,,,,,,,,,
300339,001,2022-11-20_16h55.25.925,Info_measure_main_exp,2022.2.2,Win32,240.1536984,,,,,,,,,,,,,,,,,,masks/mask_005.jpg,,,,,,,,,,,,,,,,,,,,,,,,,,,,,,,,,,,,,,,,,,,0,3,3,4,1,,,,,,,,,,,,,,,,,,,,,,,,,,,,,,,,,,,,,,,,,,,,
300339,001,2022-11-20_16h55.25.925,Info_measure_main_exp,2022.2.2,Win32,240.1536984,,,,,,,,,,,,,,,,,,masks/mask_004.jpg,,,,,,,,,,,,,,,,,,,,,,,,,,,,,,,,,,,,,,,,,,,0,4,4,3,1,,,,,,,,,,,,,,,,,,,,,,,,,,,,,,,,,,,,,,,,,,,,
300339,001,2022-11-20_16h55.25.925,Info_measure_main_exp,2022.2.2,Win32,240.1536984,,,,,,,,,,,,,,,,,,masks/mask_002.jpg,,,,,,,,,,,,,,,,,,,,,,,,,,,,,,,,,,,,,,,,,,,,,,,,0,0,0,1,1,,,,,,,,,,,,,,,,,,,,,,,,,,,,,,,,,,,,,,,
300339,001,2022-11-20_16h55.25.925,Info_measure_main_exp,2022.2.2,Win32,240.1536984,,,,,,,,,,,,,,,,,,masks/mask_005.jpg,,,,,,,,,,,,,,,,,,,,,,,,,,,,,,,,,,,,,,,,,,,,,,,,0,1,1,4,1,,,,,,,,,,,,,,,,,,,,,,,,,,,,,,,,,,,,,,,
300339,001,2022-11-20_16h55.25.925,Info_measure_main_exp,2022.2.2,Win32,240.1536984,,,,,,,,,,,,,,,,,,masks/mask_004.jpg,,,,,,,,,,,,,,,,,,,,,,,,,,,,,,,,,,,,,,,,,,,,,,,,0,2,2,3,1,,,,,,,,,,,,,,,,,,,,,,,,,,,,,,,,,,,,,,,
300339,001,2022-11-20_16h55.25.925,Info_measure_main_exp,2022.2.2,Win32,240.1536984,,,,,,,,,,,,,,,,,,masks/mask_001.jpg,,,,,,,,,,,,,,,,,,,,,,,,,,,,,,,,,,,,,,,,,,,,,,,,0,3,3,0,1,,,,,,,,,,,,,,,,,,,,,,,,,,,,,,,,,,,,,,,
300339,001,2022-11-20_16h55.25.925,Info_measure_main_exp,2022.2.2,Win32,240.1536984,,,,,,,,,,,,,,,,,,masks/mask_003.jpg,,,,,,,,,,,,,,,,,,,,,,,,,,,,,,,,,,,,,,,,,,,,,,,,0,4,4,2,1,,,,,,,,,,,,,,,,,,,,,,,,,,,,,,,,,,,,,,,
300339,001,2022-11-20_16h55.25.925,Info_measure_main_exp,2022.2.2,Win32,240.1536984,,,,,,,,,,,,,,,,,,,,,,,,,,,,,,7,0.7174,1,,,,,,,,,,,,0,131,5,5,2238,2214,absent_patch/patch0002238.jpg,absent_patch/patch0002214.jpg,,,,,,,,,,,,,,,,,,,,0.063475546,0.129552549,1,0,0,response1disk,19,0.001040583,0.006763788,1,0,0,center_square,0,18,18,81,1,,,,,,,,,,,,,,,,,,,,,
300339,001,2022-11-20_16h55.25.925,Info_measure_main_exp,2022.2.2,Win32,240.1536984,,,,,,,,,,,,,,,,,,masks/mask_004.jpg,,,,,,,,,,,,,,,,,,,,,,,,,,,,,,,,,,,,,,,,,,,0,0,0,3,1,,,,,,,,,,,,,,,,,,,,,,,,,,,,,,,,,,,,,,,,,,,,
300339,001,2022-11-20_16h55.25.925,Info_measure_main_exp,2022.2.2,Win32,240.1536984,,,,,,,,,,,,,,,,,,masks/mask_003.jpg,,,,,,,,,,,,,,,,,,,,,,,,,,,,,,,,,,,,,,,,,,,0,1,1,2,1,,,,,,,,,,,,,,,,,,,,,,,,,,,,,,,,,,,,,,,,,,,,
300339,001,2022-11-20_16h55.25.925,Info_measure_main_exp,2022.2.2,Win32,240.1536984,,,,,,,,,,,,,,,,,,masks/mask_005.jpg,,,,,,,,,,,,,,,,,,,,,,,,,,,,,,,,,,,,,,,,,,,0,2,2,4,1,,,,,,,,,,,,,,,,,,,,,,,,,,,,,,,,,,,,,,,,,,,,
300339,001,2022-11-20_16h55.25.925,Info_measure_main_exp,2022.2.2,Win32,240.1536984,,,,,,,,,,,,,,,,,,masks/mask_001.jpg,,,,,,,,,,,,,,,,,,,,,,,,,,,,,,,,,,,,,,,,,,,0,3,3,0,1,,,,,,,,,,,,,,,,,,,,,,,,,,,,,,,,,,,,,,,,,,,,
300339,001,2022-11-20_16h55.25.925,Info_measure_main_exp,2022.2.2,Win32,240.1536984,,,,,,,,,,,,,,,,,,masks/mask_002.jpg,,,,,,,,,,,,,,,,,,,,,,,,,,,,,,,,,,,,,,,,,,,0,4,4,1,1,,,,,,,,,,,,,,,,,,,,,,,,,,,,,,,,,,,,,,,,,,,,
300339,001,2022-11-20_16h55.25.925,Info_measure_main_exp,2022.2.2,Win32,240.1536984,,,,,,,,,,,,,,,,,,masks/mask_002.jpg,,,,,,,,,,,,,,,,,,,,,,,,,,,,,,,,,,,,,,,,,,,,,,,,0,0,0,1,1,,,,,,,,,,,,,,,,,,,,,,,,,,,,,,,,,,,,,,,
300339,001,2022-11-20_16h55.25.925,Info_measure_main_exp,2022.2.2,Win32,240.1536984,,,,,,,,,,,,,,,,,,masks/mask_004.jpg,,,,,,,,,,,,,,,,,,,,,,,,,,,,,,,,,,,,,,,,,,,,,,,,0,1,1,3,1,,,,,,,,,,,,,,,,,,,,,,,,,,,,,,,,,,,,,,,
300339,001,2022-11-20_16h55.25.925,Info_measure_main_exp,2022.2.2,Win32,240.1536984,,,,,,,,,,,,,,,,,,masks/mask_003.jpg,,,,,,,,,,,,,,,,,,,,,,,,,,,,,,,,,,,,,,,,,,,,,,,,0,2,2,2,1,,,,,,,,,,,,,,,,,,,,,,,,,,,,,,,,,,,,,,,
300339,001,2022-11-20_16h55.25.925,Info_measure_main_exp,2022.2.2,Win32,240.1536984,,,,,,,,,,,,,,,,,,masks/mask_005.jpg,,,,,,,,,,,,,,,,,,,,,,,,,,,,,,,,,,,,,,,,,,,,,,,,0,3,3,4,1,,,,,,,,,,,,,,,,,,,,,,,,,,,,,,,,,,,,,,,
300339,001,2022-11-20_16h55.25.925,Info_measure_main_exp,2022.2.2,Win32,240.1536984,,,,,,,,,,,,,,,,,,masks/mask_001.jpg,,,,,,,,,,,,,,,,,,,,,,,,,,,,,,,,,,,,,,,,,,,,,,,,0,4,4,0,1,,,,,,,,,,,,,,,,,,,,,,,,,,,,,,,,,,,,,,,
300339,001,2022-11-20_16h55.25.925,Info_measure_main_exp,2022.2.2,Win32,240.1536984,,,,,,,,,,,,,,,,,,,,,,,,,,,,,,4,1.1178,1,,,,,,,,,,,,0,131,5,5,2082,2082,absent_patch/patch0002082.jpg,absent_patch/patch0002082.jpg,,,,,,,,,,,,,,,,,,,,0.026014568,-0.069198751,1,0,0,response3disk,20,-0.008324662,0.008844953,1,0,0,center_square,0,19,19,74,1,,,,,,,,,,,,,,,,,,,,,
300339,001,2022-11-20_16h55.25.925,Info_measure_main_exp,2022.2.2,Win32,240.1536984,,,,,,,,,,,,,,,,,,masks/mask_003.jpg,,,,,,,,,,,,,,,,,,,,,,,,,,,,,,,,,,,,,,,,,,,0,0,0,2,1,,,,,,,,,,,,,,,,,,,,,,,,,,,,,,,,,,,,,,,,,,,,
300339,001,2022-11-20_16h55.25.925,Info_measure_main_exp,2022.2.2,Win32,240.1536984,,,,,,,,,,,,,,,,,,masks/mask_005.jpg,,,,,,,,,,,,,,,,,,,,,,,,,,,,,,,,,,,,,,,,,,,0,1,1,4,1,,,,,,,,,,,,,,,,,,,,,,,,,,,,,,,,,,,,,,,,,,,,
300339,001,2022-11-20_16h55.25.925,Info_measure_main_exp,2022.2.2,Win32,240.1536984,,,,,,,,,,,,,,,,,,masks/mask_002.jpg,,,,,,,,,,,,,,,,,,,,,,,,,,,,,,,,,,,,,,,,,,,0,2,2,1,1,,,,,,,,,,,,,,,,,,,,,,,,,,,,,,,,,,,,,,,,,,,,
300339,001,2022-11-20_16h55.25.925,Info_measure_main_exp,2022.2.2,Win32,240.1536984,,,,,,,,,,,,,,,,,,masks/mask_001.jpg,,,,,,,,,,,,,,,,,,,,,,,,,,,,,,,,,,,,,,,,,,,0,3,3,0,1,,,,,,,,,,,,,,,,,,,,,,,,,,,,,,,,,,,,,,,,,,,,
300339,001,2022-11-20_16h55.25.925,Info_measure_main_exp,2022.2.2,Win32,240.1536984,,,,,,,,,,,,,,,,,,masks/mask_004.jpg,,,,,,,,,,,,,,,,,,,,,,,,,,,,,,,,,,,,,,,,,,,0,4,4,3,1,,,,,,,,,,,,,,,,,,,,,,,,,,,,,,,,,,,,,,,,,,,,
300339,001,2022-11-20_16h55.25.925,Info_measure_main_exp,2022.2.2,Win32,240.1536984,,,,,,,,,,,,,,,,,,masks/mask_002.jpg,,,,,,,,,,,,,,,,,,,,,,,,,,,,,,,,,,,,,,,,,,,,,,,,0,0,0,1,1,,,,,,,,,,,,,,,,,,,,,,,,,,,,,,,,,,,,,,,
300339,001,2022-11-20_16h55.25.925,Info_measure_main_exp,2022.2.2,Win32,240.1536984,,,,,,,,,,,,,,,,,,masks/mask_004.jpg,,,,,,,,,,,,,,,,,,,,,,,,,,,,,,,,,,,,,,,,,,,,,,,,0,1,1,3,1,,,,,,,,,,,,,,,,,,,,,,,,,,,,,,,,,,,,,,,
300339,001,2022-11-20_16h55.25.925,Info_measure_main_exp,2022.2.2,Win32,240.1536984,,,,,,,,,,,,,,,,,,masks/mask_001.jpg,,,,,,,,,,,,,,,,,,,,,,,,,,,,,,,,,,,,,,,,,,,,,,,,0,2,2,0,1,,,,,,,,,,,,,,,,,,,,,,,,,,,,,,,,,,,,,,,
300339,001,2022-11-20_16h55.25.925,Info_measure_main_exp,2022.2.2,Win32,240.1536984,,,,,,,,,,,,,,,,,,masks/mask_003.jpg,,,,,,,,,,,,,,,,,,,,,,,,,,,,,,,,,,,,,,,,,,,,,,,,0,3,3,2,1,,,,,,,,,,,,,,,,,,,,,,,,,,,,,,,,,,,,,,,
300339,001,2022-11-20_16h55.25.925,Info_measure_main_exp,2022.2.2,Win32,240.1536984,,,,,,,,,,,,,,,,,,masks/mask_005.jpg,,,,,,,,,,,,,,,,,,,,,,,,,,,,,,,,,,,,,,,,,,,,,,,,0,4,4,4,1,,,,,,,,,,,,,,,,,,,,,,,,,,,,,,,,,,,,,,,
300339,001,2022-11-20_16h55.25.925,Info_measure_main_exp,2022.2.2,Win32,240.1536984,,,,,,,,,,,,,,,,,,,,,,,,,,,,,,7,0.9761,1,,,,,,,,,,,,0,131,5,5,1974,2166,absent_patch/patch0001974.jpg,absent_patch/patch0002166.jpg,,,,,,,,,,,,,,,,,,,,0.05723205,0.125390219,1,0,0,response1disk,21,-0.002081165,0.002601457,1,0,0,center_square,0,20,20,77,1,,,,,,,,,,,,,,,,,,,,,
300339,001,2022-11-20_16h55.25.925,Info_measure_main_exp,2022.2.2,Win32,240.1536984,,,,,,,,,,,,,,,,,,masks/mask_005.jpg,,,,,,,,,,,,,,,,,,,,,,,,,,,,,,,,,,,,,,,,,,,0,0,0,4,1,,,,,,,,,,,,,,,,,,,,,,,,,,,,,,,,,,,,,,,,,,,,
300339,001,2022-11-20_16h55.25.925,Info_measure_main_exp,2022.2.2,Win32,240.1536984,,,,,,,,,,,,,,,,,,masks/mask_003.jpg,,,,,,,,,,,,,,,,,,,,,,,,,,,,,,,,,,,,,,,,,,,0,1,1,2,1,,,,,,,,,,,,,,,,,,,,,,,,,,,,,,,,,,,,,,,,,,,,
300339,001,2022-11-20_16h55.25.925,Info_measure_main_exp,2022.2.2,Win32,240.1536984,,,,,,,,,,,,,,,,,,masks/mask_002.jpg,,,,,,,,,,,,,,,,,,,,,,,,,,,,,,,,,,,,,,,,,,,0,2,2,1,1,,,,,,,,,,,,,,,,,,,,,,,,,,,,,,,,,,,,,,,,,,,,
300339,001,2022-11-20_16h55.25.925,Info_measure_main_exp,2022.2.2,Win32,240.1536984,,,,,,,,,,,,,,,,,,masks/mask_001.jpg,,,,,,,,,,,,,,,,,,,,,,,,,,,,,,,,,,,,,,,,,,,0,3,3,0,1,,,,,,,,,,,,,,,,,,,,,,,,,,,,,,,,,,,,,,,,,,,,
300339,001,2022-11-20_16h55.25.925,Info_measure_main_exp,2022.2.2,Win32,240.1536984,,,,,,,,,,,,,,,,,,masks/mask_004.jpg,,,,,,,,,,,,,,,,,,,,,,,,,,,,,,,,,,,,,,,,,,,0,4,4,3,1,,,,,,,,,,,,,,,,,,,,,,,,,,,,,,,,,,,,,,,,,,,,
300339,001,2022-11-20_16h55.25.925,Info_measure_main_exp,2022.2.2,Win32,240.1536984,,,,,,,,,,,,,,,,,,masks/mask_005.jpg,,,,,,,,,,,,,,,,,,,,,,,,,,,,,,,,,,,,,,,,,,,,,,,,0,0,0,4,1,,,,,,,,,,,,,,,,,,,,,,,,,,,,,,,,,,,,,,,
300339,001,2022-11-20_16h55.25.925,Info_measure_main_exp,2022.2.2,Win32,240.1536984,,,,,,,,,,,,,,,,,,masks/mask_004.jpg,,,,,,,,,,,,,,,,,,,,,,,,,,,,,,,,,,,,,,,,,,,,,,,,0,1,1,3,1,,,,,,,,,,,,,,,,,,,,,,,,,,,,,,,,,,,,,,,
300339,001,2022-11-20_16h55.25.925,Info_measure_main_exp,2022.2.2,Win32,240.1536984,,,,,,,,,,,,,,,,,,masks/mask_003.jpg,,,,,,,,,,,,,,,,,,,,,,,,,,,,,,,,,,,,,,,,,,,,,,,,0,2,2,2,1,,,,,,,,,,,,,,,,,,,,,,,,,,,,,,,,,,,,,,,
300339,001,2022-11-20_16h55.25.925,Info_measure_main_exp,2022.2.2,Win32,240.1536984,,,,,,,,,,,,,,,,,,masks/mask_001.jpg,,,,,,,,,,,,,,,,,,,,,,,,,,,,,,,,,,,,,,,,,,,,,,,,0,3,3,0,1,,,,,,,,,,,,,,,,,,,,,,,,,,,,,,,,,,,,,,,
300339,001,2022-11-20_16h55.25.925,Info_measure_main_exp,2022.2.2,Win32,240.1536984,,,,,,,,,,,,,,,,,,masks/mask_002.jpg,,,,,,,,,,,,,,,,,,,,,,,,,,,,,,,,,,,,,,,,,,,,,,,,0,4,4,1,1,,,,,,,,,,,,,,,,,,,,,,,,,,,,,,,,,,,,,,,
300339,001,2022-11-20_16h55.25.925,Info_measure_main_exp,2022.2.2,Win32,240.1536984,,,,,,,,,,,,,,,,,,,,,,,,,,,,,,7,0.7967,1,,,,,,,,,,,,0,131,5,5,2190,1986,absent_patch/patch0002190.jpg,absent_patch/patch0001986.jpg,,,,,,,,,,,,,,,,,,,,0.067637877,0.128511967,1,0,0,response1disk,22,0.005202914,0.00364204,1,0,0,center_square,0,21,21,111,1,,,,,,,,,,,,,,,,,,,,,
300339,001,2022-11-20_16h55.25.925,Info_measure_main_exp,2022.2.2,Win32,240.1536984,,,,,,,,,,,,,,,,,,masks/mask_005.jpg,,,,,,,,,,,,,,,,,,,,,,,,,,,,,,,,,,,,,,,,,,,0,0,0,4,1,,,,,,,,,,,,,,,,,,,,,,,,,,,,,,,,,,,,,,,,,,,,
300339,001,2022-11-20_16h55.25.925,Info_measure_main_exp,2022.2.2,Win32,240.1536984,,,,,,,,,,,,,,,,,,masks/mask_001.jpg,,,,,,,,,,,,,,,,,,,,,,,,,,,,,,,,,,,,,,,,,,,0,1,1,0,1,,,,,,,,,,,,,,,,,,,,,,,,,,,,,,,,,,,,,,,,,,,,
300339,001,2022-11-20_16h55.25.925,Info_measure_main_exp,2022.2.2,Win32,240.1536984,,,,,,,,,,,,,,,,,,masks/mask_004.jpg,,,,,,,,,,,,,,,,,,,,,,,,,,,,,,,,,,,,,,,,,,,0,2,2,3,1,,,,,,,,,,,,,,,,,,,,,,,,,,,,,,,,,,,,,,,,,,,,
300339,001,2022-11-20_16h55.25.925,Info_measure_main_exp,2022.2.2,Win32,240.1536984,,,,,,,,,,,,,,,,,,masks/mask_002.jpg,,,,,,,,,,,,,,,,,,,,,,,,,,,,,,,,,,,,,,,,,,,0,3,3,1,1,,,,,,,,,,,,,,,,,,,,,,,,,,,,,,,,,,,,,,,,,,,,
300339,001,2022-11-20_16h55.25.925,Info_measure_main_exp,2022.2.2,Win32,240.1536984,,,,,,,,,,,,,,,,,,masks/mask_003.jpg,,,,,,,,,,,,,,,,,,,,,,,,,,,,,,,,,,,,,,,,,,,0,4,4,2,1,,,,,,,,,,,,,,,,,,,,,,,,,,,,,,,,,,,,,,,,,,,,
300339,001,2022-11-20_16h55.25.925,Info_measure_main_exp,2022.2.2,Win32,240.1536984,,,,,,,,,,,,,,,,,,masks/mask_004.jpg,,,,,,,,,,,,,,,,,,,,,,,,,,,,,,,,,,,,,,,,,,,,,,,,0,0,0,3,1,,,,,,,,,,,,,,,,,,,,,,,,,,,,,,,,,,,,,,,
300339,001,2022-11-20_16h55.25.925,Info_measure_main_exp,2022.2.2,Win32,240.1536984,,,,,,,,,,,,,,,,,,masks/mask_005.jpg,,,,,,,,,,,,,,,,,,,,,,,,,,,,,,,,,,,,,,,,,,,,,,,,0,1,1,4,1,,,,,,,,,,,,,,,,,,,,,,,,,,,,,,,,,,,,,,,
300339,001,2022-11-20_16h55.25.925,Info_measure_main_exp,2022.2.2,Win32,240.1536984,,,,,,,,,,,,,,,,,,masks/mask_003.jpg,,,,,,,,,,,,,,,,,,,,,,,,,,,,,,,,,,,,,,,,,,,,,,,,0,2,2,2,1,,,,,,,,,,,,,,,,,,,,,,,,,,,,,,,,,,,,,,,
300339,001,2022-11-20_16h55.25.925,Info_measure_main_exp,2022.2.2,Win32,240.1536984,,,,,,,,,,,,,,,,,,masks/mask_002.jpg,,,,,,,,,,,,,,,,,,,,,,,,,,,,,,,,,,,,,,,,,,,,,,,,0,3,3,1,1,,,,,,,,,,,,,,,,,,,,,,,,,,,,,,,,,,,,,,,
300339,001,2022-11-20_16h55.25.925,Info_measure_main_exp,2022.2.2,Win32,240.1536984,,,,,,,,,,,,,,,,,,masks/mask_001.jpg,,,,,,,,,,,,,,,,,,,,,,,,,,,,,,,,,,,,,,,,,,,,,,,,0,4,4,0,1,,,,,,,,,,,,,,,,,,,,,,,,,,,,,,,,,,,,,,,
300339,001,2022-11-20_16h55.25.925,Info_measure_main_exp,2022.2.2,Win32,240.1536984,,,,,,,,,,,,,,,,,,,,,,,,,,,,,,7,0.5881,1,,,,,,,,,,,,1,131,5,5,2250,1,absent_patch/patch0002250.jpg,present_patch/cong_131_5_a.jpg,,,,,,,,,,,,,,,,,,,,0.029136316,0.108740895,1,0,0,response1disk,23,-0.012486993,-0.005723205,1,0,0,center_square,0,22,22,5,1,,,,,,,,,,,,,,,,,,,,,
300339,001,2022-11-20_16h55.25.925,Info_measure_main_exp,2022.2.2,Win32,240.1536984,,,,,,,,,,,,,,,,,,masks/mask_003.jpg,,,,,,,,,,,,,,,,,,,,,,,,,,,,,,,,,,,,,,,,,,,0,0,0,2,1,,,,,,,,,,,,,,,,,,,,,,,,,,,,,,,,,,,,,,,,,,,,
300339,001,2022-11-20_16h55.25.925,Info_measure_main_exp,2022.2.2,Win32,240.1536984,,,,,,,,,,,,,,,,,,masks/mask_004.jpg,,,,,,,,,,,,,,,,,,,,,,,,,,,,,,,,,,,,,,,,,,,0,1,1,3,1,,,,,,,,,,,,,,,,,,,,,,,,,,,,,,,,,,,,,,,,,,,,
300339,001,2022-11-20_16h55.25.925,Info_measure_main_exp,2022.2.2,Win32,240.1536984,,,,,,,,,,,,,,,,,,masks/mask_002.jpg,,,,,,,,,,,,,,,,,,,,,,,,,,,,,,,,,,,,,,,,,,,0,2,2,1,1,,,,,,,,,,,,,,,,,,,,,,,,,,,,,,,,,,,,,,,,,,,,
300339,001,2022-11-20_16h55.25.925,Info_measure_main_exp,2022.2.2,Win32,240.1536984,,,,,,,,,,,,,,,,,,masks/mask_001.jpg,,,,,,,,,,,,,,,,,,,,,,,,,,,,,,,,,,,,,,,,,,,0,3,3,0,1,,,,,,,,,,,,,,,,,,,,,,,,,,,,,,,,,,,,,,,,,,,,
300339,001,2022-11-20_16h55.25.925,Info_measure_main_exp,2022.2.2,Win32,240.1536984,,,,,,,,,,,,,,,,,,masks/mask_005.jpg,,,,,,,,,,,,,,,,,,,,,,,,,,,,,,,,,,,,,,,,,,,0,4,4,4,1,,,,,,,,,,,,,,,,,,,,,,,,,,,,,,,,,,,,,,,,,,,,
300339,001,2022-11-20_16h55.25.925,Info_measure_main_exp,2022.2.2,Win32,240.1536984,,,,,,,,,,,,,,,,,,masks/mask_002.jpg,,,,,,,,,,,,,,,,,,,,,,,,,,,,,,,,,,,,,,,,,,,,,,,,0,0,0,1,1,,,,,,,,,,,,,,,,,,,,,,,,,,,,,,,,,,,,,,,
300339,001,2022-11-20_16h55.25.925,Info_measure_main_exp,2022.2.2,Win32,240.1536984,,,,,,,,,,,,,,,,,,masks/mask_001.jpg,,,,,,,,,,,,,,,,,,,,,,,,,,,,,,,,,,,,,,,,,,,,,,,,0,1,1,0,1,,,,,,,,,,,,,,,,,,,,,,,,,,,,,,,,,,,,,,,
300339,001,2022-11-20_16h55.25.925,Info_measure_main_exp,2022.2.2,Win32,240.1536984,,,,,,,,,,,,,,,,,,masks/mask_004.jpg,,,,,,,,,,,,,,,,,,,,,,,,,,,,,,,,,,,,,,,,,,,,,,,,0,2,2,3,1,,,,,,,,,,,,,,,,,,,,,,,,,,,,,,,,,,,,,,,
300339,001,2022-11-20_16h55.25.925,Info_measure_main_exp,2022.2.2,Win32,240.1536984,,,,,,,,,,,,,,,,,,masks/mask_005.jpg,,,,,,,,,,,,,,,,,,,,,,,,,,,,,,,,,,,,,,,,,,,,,,,,0,3,3,4,1,,,,,,,,,,,,,,,,,,,,,,,,,,,,,,,,,,,,,,,
300339,001,2022-11-20_16h55.25.925,Info_measure_main_exp,2022.2.2,Win32,240.1536984,,,,,,,,,,,,,,,,,,masks/mask_003.jpg,,,,,,,,,,,,,,,,,,,,,,,,,,,,,,,,,,,,,,,,,,,,,,,,0,4,4,2,1,,,,,,,,,,,,,,,,,,,,,,,,,,,,,,,,,,,,,,,
300339,001,2022-11-20_16h55.25.925,Info_measure_main_exp,2022.2.2,Win32,240.1536984,,,,,,,,,,,,,,,,,,,,,,,,,,,,,,6,0.811,1,,,,,,,,,,,,1,131,5,5,2238,1,absent_patch/patch0002238.jpg,present_patch/cong_131_5_a.jpg,,,,,,,,,,,,,,,,,,,,0.082206035,0.034859521,1,0,0,response1disk,24,0.009365245,-0.005723205,1,0,0,center_square,0,23,23,104,1,,,,,,,,,,,,,,,,,,,,,
300339,001,2022-11-20_16h55.25.925,Info_measure_main_exp,2022.2.2,Win32,240.1536984,,,,,,,,,,,,,,,,,,masks/mask_004.jpg,,,,,,,,,,,,,,,,,,,,,,,,,,,,,,,,,,,,,,,,,,,0,0,0,3,1,,,,,,,,,,,,,,,,,,,,,,,,,,,,,,,,,,,,,,,,,,,,
300339,001,2022-11-20_16h55.25.925,Info_measure_main_exp,2022.2.2,Win32,240.1536984,,,,,,,,,,,,,,,,,,masks/mask_001.jpg,,,,,,,,,,,,,,,,,,,,,,,,,,,,,,,,,,,,,,,,,,,0,1,1,0,1,,,,,,,,,,,,,,,,,,,,,,,,,,,,,,,,,,,,,,,,,,,,
300339,001,2022-11-20_16h55.25.925,Info_measure_main_exp,2022.2.2,Win32,240.1536984,,,,,,,,,,,,,,,,,,masks/mask_005.jpg,,,,,,,,,,,,,,,,,,,,,,,,,,,,,,,,,,,,,,,,,,,0,2,2,4,1,,,,,,,,,,,,,,,,,,,,,,,,,,,,,,,,,,,,,,,,,,,,
300339,001,2022-11-20_16h55.25.925,Info_measure_main_exp,2022.2.2,Win32,240.1536984,,,,,,,,,,,,,,,,,,masks/mask_003.jpg,,,,,,,,,,,,,,,,,,,,,,,,,,,,,,,,,,,,,,,,,,,0,3,3,2,1,,,,,,,,,,,,,,,,,,,,,,,,,,,,,,,,,,,,,,,,,,,,
300339,001,2022-11-20_16h55.25.925,Info_measure_main_exp,2022.2.2,Win32,240.1536984,,,,,,,,,,,,,,,,,,masks/mask_002.jpg,,,,,,,,,,,,,,,,,,,,,,,,,,,,,,,,,,,,,,,,,,,0,4,4,1,1,,,,,,,,,,,,,,,,,,,,,,,,,,,,,,,,,,,,,,,,,,,,
300339,001,2022-11-20_16h55.25.925,Info_measure_main_exp,2022.2.2,Win32,240.1536984,,,,,,,,,,,,,,,,,,masks/mask_002.jpg,,,,,,,,,,,,,,,,,,,,,,,,,,,,,,,,,,,,,,,,,,,,,,,,0,0,0,1,1,,,,,,,,,,,,,,,,,,,,,,,,,,,,,,,,,,,,,,,
300339,001,2022-11-20_16h55.25.925,Info_measure_main_exp,2022.2.2,Win32,240.1536984,,,,,,,,,,,,,,,,,,masks/mask_004.jpg,,,,,,,,,,,,,,,,,,,,,,,,,,,,,,,,,,,,,,,,,,,,,,,,0,1,1,3,1,,,,,,,,,,,,,,,,,,,,,,,,,,,,,,,,,,,,,,,
300339,001,2022-11-20_16h55.25.925,Info_measure_main_exp,2022.2.2,Win32,240.1536984,,,,,,,,,,,,,,,,,,masks/mask_003.jpg,,,,,,,,,,,,,,,,,,,,,,,,,,,,,,,,,,,,,,,,,,,,,,,,0,2,2,2,1,,,,,,,,,,,,,,,,,,,,,,,,,,,,,,,,,,,,,,,
300339,001,2022-11-20_16h55.25.925,Info_measure_main_exp,2022.2.2,Win32,240.1536984,,,,,,,,,,,,,,,,,,masks/mask_001.jpg,,,,,,,,,,,,,,,,,,,,,,,,,,,,,,,,,,,,,,,,,,,,,,,,0,3,3,0,1,,,,,,,,,,,,,,,,,,,,,,,,,,,,,,,,,,,,,,,
300339,001,2022-11-20_16h55.25.925,Info_measure_main_exp,2022.2.2,Win32,240.1536984,,,,,,,,,,,,,,,,,,masks/mask_005.jpg,,,,,,,,,,,,,,,,,,,,,,,,,,,,,,,,,,,,,,,,,,,,,,,,0,4,4,4,1,,,,,,,,,,,,,,,,,,,,,,,,,,,,,,,,,,,,,,,
300339,001,2022-11-20_16h55.25.925,Info_measure_main_exp,2022.2.2,Win32,240.1536984,,,,,,,,,,,,,,,,,,,,,,,,,,,,,,6,4.4654,1,,,,,,,,,,,,0,131,5,5,2178,2178,absent_patch/patch0002178.jpg,absent_patch/patch0002178.jpg,,,,,,,,,,,,,,,,,,,,0.087408949,0.059833507,1,0,0,response1disk,25,0.001040583,-0.000520291,1,0,0,center_square,0,24,24,98,1,,,,,,,,,,,,,,,,,,,,,
300339,001,2022-11-20_16h55.25.925,Info_measure_main_exp,2022.2.2,Win32,240.1536984,,,,,,,,,,,,,,,,,,masks/mask_004.jpg,,,,,,,,,,,,,,,,,,,,,,,,,,,,,,,,,,,,,,,,,,,0,0,0,3,1,,,,,,,,,,,,,,,,,,,,,,,,,,,,,,,,,,,,,,,,,,,,
300339,001,2022-11-20_16h55.25.925,Info_measure_main_exp,2022.2.2,Win32,240.1536984,,,,,,,,,,,,,,,,,,masks/mask_002.jpg,,,,,,,,,,,,,,,,,,,,,,,,,,,,,,,,,,,,,,,,,,,0,1,1,1,1,,,,,,,,,,,,,,,,,,,,,,,,,,,,,,,,,,,,,,,,,,,,
300339,001,2022-11-20_16h55.25.925,Info_measure_main_exp,2022.2.2,Win32,240.1536984,,,,,,,,,,,,,,,,,,masks/mask_001.jpg,,,,,,,,,,,,,,,,,,,,,,,,,,,,,,,,,,,,,,,,,,,0,2,2,0,1,,,,,,,,,,,,,,,,,,,,,,,,,,,,,,,,,,,,,,,,,,,,
300339,001,2022-11-20_16h55.25.925,Info_measure_main_exp,2022.2.2,Win32,240.1536984,,,,,,,,,,,,,,,,,,masks/mask_005.jpg,,,,,,,,,,,,,,,,,,,,,,,,,,,,,,,,,,,,,,,,,,,0,3,3,4,1,,,,,,,,,,,,,,,,,,,,,,,,,,,,,,,,,,,,,,,,,,,,
300339,001,2022-11-20_16h55.25.925,Info_measure_main_exp,2022.2.2,Win32,240.1536984,,,,,,,,,,,,,,,,,,masks/mask_003.jpg,,,,,,,,,,,,,,,,,,,,,,,,,,,,,,,,,,,,,,,,,,,0,4,4,2,1,,,,,,,,,,,,,,,,,,,,,,,,,,,,,,,,,,,,,,,,,,,,
300339,001,2022-11-20_16h55.25.925,Info_measure_main_exp,2022.2.2,Win32,240.1536984,,,,,,,,,,,,,,,,,,masks/mask_004.jpg,,,,,,,,,,,,,,,,,,,,,,,,,,,,,,,,,,,,,,,,,,,,,,,,0,0,0,3,1,,,,,,,,,,,,,,,,,,,,,,,,,,,,,,,,,,,,,,,
300339,001,2022-11-20_16h55.25.925,Info_measure_main_exp,2022.2.2,Win32,240.1536984,,,,,,,,,,,,,,,,,,masks/mask_001.jpg,,,,,,,,,,,,,,,,,,,,,,,,,,,,,,,,,,,,,,,,,,,,,,,,0,1,1,0,1,,,,,,,,,,,,,,,,,,,,,,,,,,,,,,,,,,,,,,,
300339,001,2022-11-20_16h55.25.925,Info_measure_main_exp,2022.2.2,Win32,240.1536984,,,,,,,,,,,,,,,,,,masks/mask_003.jpg,,,,,,,,,,,,,,,,,,,,,,,,,,,,,,,,,,,,,,,,,,,,,,,,0,2,2,2,1,,,,,,,,,,,,,,,,,,,,,,,,,,,,,,,,,,,,,,,
300339,001,2022-11-20_16h55.25.925,Info_measure_main_exp,2022.2.2,Win32,240.1536984,,,,,,,,,,,,,,,,,,masks/mask_002.jpg,,,,,,,,,,,,,,,,,,,,,,,,,,,,,,,,,,,,,,,,,,,,,,,,0,3,3,1,1,,,,,,,,,,,,,,,,,,,,,,,,,,,,,,,,,,,,,,,
300339,001,2022-11-20_16h55.25.925,Info_measure_main_exp,2022.2.2,Win32,240.1536984,,,,,,,,,,,,,,,,,,masks/mask_005.jpg,,,,,,,,,,,,,,,,,,,,,,,,,,,,,,,,,,,,,,,,,,,,,,,,0,4,4,4,1,,,,,,,,,,,,,,,,,,,,,,,,,,,,,,,,,,,,,,,
300339,001,2022-11-20_16h55.25.925,Info_measure_main_exp,2022.2.2,Win32,240.1536984,,,,,,,,,,,,,,,,,,,,,,,,,,,,,,7,0.5089,1,,,,,,,,,,,,1,131,5,5,1,2142,present_patch/cong_131_5_a.jpg,absent_patch/patch0002142.jpg,,,,,,,,,,,,,,,,,,,,0.079084287,0.142039542,1,0,0,response1disk,26,-0.001040583,0.016129032,1,0,0,center_square,0,25,25,80,1,,,,,,,,,,,,,,,,,,,,,
300339,001,2022-11-20_16h55.25.925,Info_measure_main_exp,2022.2.2,Win32,240.1536984,,,,,,,,,,,,,,,,,,masks/mask_001.jpg,,,,,,,,,,,,,,,,,,,,,,,,,,,,,,,,,,,,,,,,,,,0,0,0,0,1,,,,,,,,,,,,,,,,,,,,,,,,,,,,,,,,,,,,,,,,,,,,
300339,001,2022-11-20_16h55.25.925,Info_measure_main_exp,2022.2.2,Win32,240.1536984,,,,,,,,,,,,,,,,,,masks/mask_005.jpg,,,,,,,,,,,,,,,,,,,,,,,,,,,,,,,,,,,,,,,,,,,0,1,1,4,1,,,,,,,,,,,,,,,,,,,,,,,,,,,,,,,,,,,,,,,,,,,,
300339,001,2022-11-20_16h55.25.925,Info_measure_main_exp,2022.2.2,Win32,240.1536984,,,,,,,,,,,,,,,,,,masks/mask_004.jpg,,,,,,,,,,,,,,,,,,,,,,,,,,,,,,,,,,,,,,,,,,,0,2,2,3,1,,,,,,,,,,,,,,,,,,,,,,,,,,,,,,,,,,,,,,,,,,,,
300339,001,2022-11-20_16h55.25.925,Info_measure_main_exp,2022.2.2,Win32,240.1536984,,,,,,,,,,,,,,,,,,masks/mask_002.jpg,,,,,,,,,,,,,,,,,,,,,,,,,,,,,,,,,,,,,,,,,,,0,3,3,1,1,,,,,,,,,,,,,,,,,,,,,,,,,,,,,,,,,,,,,,,,,,,,
300339,001,2022-11-20_16h55.25.925,Info_measure_main_exp,2022.2.2,Win32,240.1536984,,,,,,,,,,,,,,,,,,masks/mask_003.jpg,,,,,,,,,,,,,,,,,,,,,,,,,,,,,,,,,,,,,,,,,,,0,4,4,2,1,,,,,,,,,,,,,,,,,,,,,,,,,,,,,,,,,,,,,,,,,,,,
300339,001,2022-11-20_16h55.25.925,Info_measure_main_exp,2022.2.2,Win32,240.1536984,,,,,,,,,,,,,,,,,,masks/mask_002.jpg,,,,,,,,,,,,,,,,,,,,,,,,,,,,,,,,,,,,,,,,,,,,,,,,0,0,0,1,1,,,,,,,,,,,,,,,,,,,,,,,,,,,,,,,,,,,,,,,
300339,001,2022-11-20_16h55.25.925,Info_measure_main_exp,2022.2.2,Win32,240.1536984,,,,,,,,,,,,,,,,,,masks/mask_003.jpg,,,,,,,,,,,,,,,,,,,,,,,,,,,,,,,,,,,,,,,,,,,,,,,,0,1,1,2,1,,,,,,,,,,,,,,,,,,,,,,,,,,,,,,,,,,,,,,,
300339,001,2022-11-20_16h55.25.925,Info_measure_main_exp,2022.2.2,Win32,240.1536984,,,,,,,,,,,,,,,,,,masks/mask_001.jpg,,,,,,,,,,,,,,,,,,,,,,,,,,,,,,,,,,,,,,,,,,,,,,,,0,2,2,0,1,,,,,,,,,,,,,,,,,,,,,,,,,,,,,,,,,,,,,,,
300339,001,2022-11-20_16h55.25.925,Info_measure_main_exp,2022.2.2,Win32,240.1536984,,,,,,,,,,,,,,,,,,masks/mask_004.jpg,,,,,,,,,,,,,,,,,,,,,,,,,,,,,,,,,,,,,,,,,,,,,,,,0,3,3,3,1,,,,,,,,,,,,,,,,,,,,,,,,,,,,,,,,,,,,,,,
300339,001,2022-11-20_16h55.25.925,Info_measure_main_exp,2022.2.2,Win32,240.1536984,,,,,,,,,,,,,,,,,,masks/mask_005.jpg,,,,,,,,,,,,,,,,,,,,,,,,,,,,,,,,,,,,,,,,,,,,,,,,0,4,4,4,1,,,,,,,,,,,,,,,,,,,,,,,,,,,,,,,,,,,,,,,
300339,001,2022-11-20_16h55.25.925,Info_measure_main_exp,2022.2.2,Win32,240.1536984,,,,,,,,,,,,,,,,,,,,,,,,,,,,,,0,0.609,1,,,,,,,,,,,,0,131,5,5,2166,2166,absent_patch/patch0002166.jpg,absent_patch/patch0002166.jpg,,,,,,,,,,,,,,,,,,,,-0.083246618,0.158688866,1,0,0,response7disk,27,0,0.001560874,1,0,0,center_square,0,26,26,42,1,,,,,,,,,,,,,,,,,,,,,
300339,001,2022-11-20_16h55.25.925,Info_measure_main_exp,2022.2.2,Win32,240.1536984,,,,,,,,,,,,,,,,,,masks/mask_003.jpg,,,,,,,,,,,,,,,,,,,,,,,,,,,,,,,,,,,,,,,,,,,0,0,0,2,1,,,,,,,,,,,,,,,,,,,,,,,,,,,,,,,,,,,,,,,,,,,,
300339,001,2022-11-20_16h55.25.925,Info_measure_main_exp,2022.2.2,Win32,240.1536984,,,,,,,,,,,,,,,,,,masks/mask_005.jpg,,,,,,,,,,,,,,,,,,,,,,,,,,,,,,,,,,,,,,,,,,,0,1,1,4,1,,,,,,,,,,,,,,,,,,,,,,,,,,,,,,,,,,,,,,,,,,,,
300339,001,2022-11-20_16h55.25.925,Info_measure_main_exp,2022.2.2,Win32,240.1536984,,,,,,,,,,,,,,,,,,masks/mask_004.jpg,,,,,,,,,,,,,,,,,,,,,,,,,,,,,,,,,,,,,,,,,,,0,2,2,3,1,,,,,,,,,,,,,,,,,,,,,,,,,,,,,,,,,,,,,,,,,,,,
300339,001,2022-11-20_16h55.25.925,Info_measure_main_exp,2022.2.2,Win32,240.1536984,,,,,,,,,,,,,,,,,,masks/mask_002.jpg,,,,,,,,,,,,,,,,,,,,,,,,,,,,,,,,,,,,,,,,,,,0,3,3,1,1,,,,,,,,,,,,,,,,,,,,,,,,,,,,,,,,,,,,,,,,,,,,
300339,001,2022-11-20_16h55.25.925,Info_measure_main_exp,2022.2.2,Win32,240.1536984,,,,,,,,,,,,,,,,,,masks/mask_001.jpg,,,,,,,,,,,,,,,,,,,,,,,,,,,,,,,,,,,,,,,,,,,0,4,4,0,1,,,,,,,,,,,,,,,,,,,,,,,,,,,,,,,,,,,,,,,,,,,,
300339,001,2022-11-20_16h55.25.925,Info_measure_main_exp,2022.2.2,Win32,240.1536984,,,,,,,,,,,,,,,,,,masks/mask_001.jpg,,,,,,,,,,,,,,,,,,,,,,,,,,,,,,,,,,,,,,,,,,,,,,,,0,0,0,0,1,,,,,,,,,,,,,,,,,,,,,,,,,,,,,,,,,,,,,,,
300339,001,2022-11-20_16h55.25.925,Info_measure_main_exp,2022.2.2,Win32,240.1536984,,,,,,,,,,,,,,,,,,masks/mask_005.jpg,,,,,,,,,,,,,,,,,,,,,,,,,,,,,,,,,,,,,,,,,,,,,,,,0,1,1,4,1,,,,,,,,,,,,,,,,,,,,,,,,,,,,,,,,,,,,,,,
300339,001,2022-11-20_16h55.25.925,Info_measure_main_exp,2022.2.2,Win32,240.1536984,,,,,,,,,,,,,,,,,,masks/mask_003.jpg,,,,,,,,,,,,,,,,,,,,,,,,,,,,,,,,,,,,,,,,,,,,,,,,0,2,2,2,1,,,,,,,,,,,,,,,,,,,,,,,,,,,,,,,,,,,,,,,
300339,001,2022-11-20_16h55.25.925,Info_measure_main_exp,2022.2.2,Win32,240.1536984,,,,,,,,,,,,,,,,,,masks/mask_002.jpg,,,,,,,,,,,,,,,,,,,,,,,,,,,,,,,,,,,,,,,,,,,,,,,,0,3,3,1,1,,,,,,,,,,,,,,,,,,,,,,,,,,,,,,,,,,,,,,,
300339,001,2022-11-20_16h55.25.925,Info_measure_main_exp,2022.2.2,Win32,240.1536984,,,,,,,,,,,,,,,,,,masks/mask_004.jpg,,,,,,,,,,,,,,,,,,,,,,,,,,,,,,,,,,,,,,,,,,,,,,,,0,4,4,3,1,,,,,,,,,,,,,,,,,,,,,,,,,,,,,,,,,,,,,,,
300339,001,2022-11-20_16h55.25.925,Info_measure_main_exp,2022.2.2,Win32,240.1536984,,,,,,,,,,,,,,,,,,,,,,,,,,,,,,0,0.9934,1,,,,,,,,,,,,0,131,5,5,2298,2298,absent_patch/patch0002298.jpg,absent_patch/patch0002298.jpg,,,,,,,,,,,,,,,,,,,,-0.061394381,0.1566077,1,0,0,response7disk,28,-0.009365245,0.000520291,1,0,0,center_square,0,27,27,37,1,,,,,,,,,,,,,,,,,,,,,
300339,001,2022-11-20_16h55.25.925,Info_measure_main_exp,2022.2.2,Win32,240.1536984,,,,,,,,,,,,,,,,,,masks/mask_001.jpg,,,,,,,,,,,,,,,,,,,,,,,,,,,,,,,,,,,,,,,,,,,0,0,0,0,1,,,,,,,,,,,,,,,,,,,,,,,,,,,,,,,,,,,,,,,,,,,,
300339,001,2022-11-20_16h55.25.925,Info_measure_main_exp,2022.2.2,Win32,240.1536984,,,,,,,,,,,,,,,,,,masks/mask_005.jpg,,,,,,,,,,,,,,,,,,,,,,,,,,,,,,,,,,,,,,,,,,,0,1,1,4,1,,,,,,,,,,,,,,,,,,,,,,,,,,,,,,,,,,,,,,,,,,,,
300339,001,2022-11-20_16h55.25.925,Info_measure_main_exp,2022.2.2,Win32,240.1536984,,,,,,,,,,,,,,,,,,masks/mask_004.jpg,,,,,,,,,,,,,,,,,,,,,,,,,,,,,,,,,,,,,,,,,,,0,2,2,3,1,,,,,,,,,,,,,,,,,,,,,,,,,,,,,,,,,,,,,,,,,,,,
300339,001,2022-11-20_16h55.25.925,Info_measure_main_exp,2022.2.2,Win32,240.1536984,,,,,,,,,,,,,,,,,,masks/mask_003.jpg,,,,,,,,,,,,,,,,,,,,,,,,,,,,,,,,,,,,,,,,,,,0,3,3,2,1,,,,,,,,,,,,,,,,,,,,,,,,,,,,,,,,,,,,,,,,,,,,
300339,001,2022-11-20_16h55.25.925,Info_measure_main_exp,2022.2.2,Win32,240.1536984,,,,,,,,,,,,,,,,,,masks/mask_002.jpg,,,,,,,,,,,,,,,,,,,,,,,,,,,,,,,,,,,,,,,,,,,0,4,4,1,1,,,,,,,,,,,,,,,,,,,,,,,,,,,,,,,,,,,,,,,,,,,,
300339,001,2022-11-20_16h55.25.925,Info_measure_main_exp,2022.2.2,Win32,240.1536984,,,,,,,,,,,,,,,,,,masks/mask_005.jpg,,,,,,,,,,,,,,,,,,,,,,,,,,,,,,,,,,,,,,,,,,,,,,,,0,0,0,4,1,,,,,,,,,,,,,,,,,,,,,,,,,,,,,,,,,,,,,,,
300339,001,2022-11-20_16h55.25.925,Info_measure_main_exp,2022.2.2,Win32,240.1536984,,,,,,,,,,,,,,,,,,masks/mask_004.jpg,,,,,,,,,,,,,,,,,,,,,,,,,,,,,,,,,,,,,,,,,,,,,,,,0,1,1,3,1,,,,,,,,,,,,,,,,,,,,,,,,,,,,,,,,,,,,,,,
300339,001,2022-11-20_16h55.25.925,Info_measure_main_exp,2022.2.2,Win32,240.1536984,,,,,,,,,,,,,,,,,,masks/mask_002.jpg,,,,,,,,,,,,,,,,,,,,,,,,,,,,,,,,,,,,,,,,,,,,,,,,0,2,2,1,1,,,,,,,,,,,,,,,,,,,,,,,,,,,,,,,,,,,,,,,
300339,001,2022-11-20_16h55.25.925,Info_measure_main_exp,2022.2.2,Win32,240.1536984,,,,,,,,,,,,,,,,,,masks/mask_003.jpg,,,,,,,,,,,,,,,,,,,,,,,,,,,,,,,,,,,,,,,,,,,,,,,,0,3,3,2,1,,,,,,,,,,,,,,,,,,,,,,,,,,,,,,,,,,,,,,,
300339,001,2022-11-20_16h55.25.925,Info_measure_main_exp,2022.2.2,Win32,240.1536984,,,,,,,,,,,,,,,,,,masks/mask_001.jpg,,,,,,,,,,,,,,,,,,,,,,,,,,,,,,,,,,,,,,,,,,,,,,,,0,4,4,0,1,,,,,,,,,,,,,,,,,,,,,,,,,,,,,,,,,,,,,,,
300339,001,2022-11-20_16h55.25.925,Info_measure_main_exp,2022.2.2,Win32,240.1536984,,,,,,,,,,,,,,,,,,,,,,,,,,,,,,4,1.2764,1,,,,,,,,,,,,1,131,5,5,1,2178,present_patch/cong_131_5_a.jpg,absent_patch/patch0002178.jpg,,,,,,,,,,,,,,,,,,,,0.059313215,-0.175338189,1,0,0,response3disk,29,0.004162331,0.000520291,1,0,0,center_square,0,28,28,40,1,,,,,,,,,,,,,,,,,,,,,
300339,001,2022-11-20_16h55.25.925,Info_measure_main_exp,2022.2.2,Win32,240.1536984,,,,,,,,,,,,,,,,,,masks/mask_001.jpg,,,,,,,,,,,,,,,,,,,,,,,,,,,,,,,,,,,,,,,,,,,0,0,0,0,1,,,,,,,,,,,,,,,,,,,,,,,,,,,,,,,,,,,,,,,,,,,,
300339,001,2022-11-20_16h55.25.925,Info_measure_main_exp,2022.2.2,Win32,240.1536984,,,,,,,,,,,,,,,,,,masks/mask_005.jpg,,,,,,,,,,,,,,,,,,,,,,,,,,,,,,,,,,,,,,,,,,,0,1,1,4,1,,,,,,,,,,,,,,,,,,,,,,,,,,,,,,,,,,,,,,,,,,,,
300339,001,2022-11-20_16h55.25.925,Info_measure_main_exp,2022.2.2,Win32,240.1536984,,,,,,,,,,,,,,,,,,masks/mask_002.jpg,,,,,,,,,,,,,,,,,,,,,,,,,,,,,,,,,,,,,,,,,,,0,2,2,1,1,,,,,,,,,,,,,,,,,,,,,,,,,,,,,,,,,,,,,,,,,,,,
300339,001,2022-11-20_16h55.25.925,Info_measure_main_exp,2022.2.2,Win32,240.1536984,,,,,,,,,,,,,,,,,,masks/mask_004.jpg,,,,,,,,,,,,,,,,,,,,,,,,,,,,,,,,,,,,,,,,,,,0,3,3,3,1,,,,,,,,,,,,,,,,,,,,,,,,,,,,,,,,,,,,,,,,,,,,
300339,001,2022-11-20_16h55.25.925,Info_measure_main_exp,2022.2.2,Win32,240.1536984,,,,,,,,,,,,,,,,,,masks/mask_003.jpg,,,,,,,,,,,,,,,,,,,,,,,,,,,,,,,,,,,,,,,,,,,0,4,4,2,1,,,,,,,,,,,,,,,,,,,,,,,,,,,,,,,,,,,,,,,,,,,,
300339,001,2022-11-20_16h55.25.925,Info_measure_main_exp,2022.2.2,Win32,240.1536984,,,,,,,,,,,,,,,,,,masks/mask_005.jpg,,,,,,,,,,,,,,,,,,,,,,,,,,,,,,,,,,,,,,,,,,,,,,,,0,0,0,4,1,,,,,,,,,,,,,,,,,,,,,,,,,,,,,,,,,,,,,,,
300339,001,2022-11-20_16h55.25.925,Info_measure_main_exp,2022.2.2,Win32,240.1536984,,,,,,,,,,,,,,,,,,masks/mask_002.jpg,,,,,,,,,,,,,,,,,,,,,,,,,,,,,,,,,,,,,,,,,,,,,,,,0,1,1,1,1,,,,,,,,,,,,,,,,,,,,,,,,,,,,,,,,,,,,,,,
300339,001,2022-11-20_16h55.25.925,Info_measure_main_exp,2022.2.2,Win32,240.1536984,,,,,,,,,,,,,,,,,,masks/mask_003.jpg,,,,,,,,,,,,,,,,,,,,,,,,,,,,,,,,,,,,,,,,,,,,,,,,0,2,2,2,1,,,,,,,,,,,,,,,,,,,,,,,,,,,,,,,,,,,,,,,
300339,001,2022-11-20_16h55.25.925,Info_measure_main_exp,2022.2.2,Win32,240.1536984,,,,,,,,,,,,,,,,,,masks/mask_001.jpg,,,,,,,,,,,,,,,,,,,,,,,,,,,,,,,,,,,,,,,,,,,,,,,,0,3,3,0,1,,,,,,,,,,,,,,,,,,,,,,,,,,,,,,,,,,,,,,,
300339,001,2022-11-20_16h55.25.925,Info_measure_main_exp,2022.2.2,Win32,240.1536984,,,,,,,,,,,,,,,,,,masks/mask_004.jpg,,,,,,,,,,,,,,,,,,,,,,,,,,,,,,,,,,,,,,,,,,,,,,,,0,4,4,3,1,,,,,,,,,,,,,,,,,,,,,,,,,,,,,,,,,,,,,,,
300339,001,2022-11-20_16h55.25.925,Info_measure_main_exp,2022.2.2,Win32,240.1536984,,,,,,,,,,,,,,,,,,,,,,,,,,,,,,3,1.2428,1,,,,,,,,,,,,0,131,5,5,2298,1986,absent_patch/patch0002298.jpg,absent_patch/patch0001986.jpg,,,,,,,,,,,,,,,,,,,,-0.090530697,-0.112903226,1,0,0,response5disk,30,-0.016649324,-0.009885536,1,0,0,center_square,0,29,29,32,1,,,,,,,,,,,,,,,,,,,,,
300339,001,2022-11-20_16h55.25.925,Info_measure_main_exp,2022.2.2,Win32,240.1536984,,,,,,,,,,,,,,,,,,masks/mask_001.jpg,,,,,,,,,,,,,,,,,,,,,,,,,,,,,,,,,,,,,,,,,,,0,0,0,0,1,,,,,,,,,,,,,,,,,,,,,,,,,,,,,,,,,,,,,,,,,,,,
300339,001,2022-11-20_16h55.25.925,Info_measure_main_exp,2022.2.2,Win32,240.1536984,,,,,,,,,,,,,,,,,,masks/mask_005.jpg,,,,,,,,,,,,,,,,,,,,,,,,,,,,,,,,,,,,,,,,,,,0,1,1,4,1,,,,,,,,,,,,,,,,,,,,,,,,,,,,,,,,,,,,,,,,,,,,
300339,001,2022-11-20_16h55.25.925,Info_measure_main_exp,2022.2.2,Win32,240.1536984,,,,,,,,,,,,,,,,,,masks/mask_004.jpg,,,,,,,,,,,,,,,,,,,,,,,,,,,,,,,,,,,,,,,,,,,0,2,2,3,1,,,,,,,,,,,,,,,,,,,,,,,,,,,,,,,,,,,,,,,,,,,,
300339,001,2022-11-20_16h55.25.925,Info_measure_main_exp,2022.2.2,Win32,240.1536984,,,,,,,,,,,,,,,,,,masks/mask_003.jpg,,,,,,,,,,,,,,,,,,,,,,,,,,,,,,,,,,,,,,,,,,,0,3,3,2,1,,,,,,,,,,,,,,,,,,,,,,,,,,,,,,,,,,,,,,,,,,,,
300339,001,2022-11-20_16h55.25.925,Info_measure_main_exp,2022.2.2,Win32,240.1536984,,,,,,,,,,,,,,,,,,masks/mask_002.jpg,,,,,,,,,,,,,,,,,,,,,,,,,,,,,,,,,,,,,,,,,,,0,4,4,1,1,,,,,,,,,,,,,,,,,,,,,,,,,,,,,,,,,,,,,,,,,,,,
300339,001,2022-11-20_16h55.25.925,Info_measure_main_exp,2022.2.2,Win32,240.1536984,,,,,,,,,,,,,,,,,,masks/mask_003.jpg,,,,,,,,,,,,,,,,,,,,,,,,,,,,,,,,,,,,,,,,,,,,,,,,0,0,0,2,1,,,,,,,,,,,,,,,,,,,,,,,,,,,,,,,,,,,,,,,
300339,001,2022-11-20_16h55.25.925,Info_measure_main_exp,2022.2.2,Win32,240.1536984,,,,,,,,,,,,,,,,,,masks/mask_001.jpg,,,,,,,,,,,,,,,,,,,,,,,,,,,,,,,,,,,,,,,,,,,,,,,,0,1,1,0,1,,,,,,,,,,,,,,,,,,,,,,,,,,,,,,,,,,,,,,,
300339,001,2022-11-20_16h55.25.925,Info_measure_main_exp,2022.2.2,Win32,240.1536984,,,,,,,,,,,,,,,,,,masks/mask_004.jpg,,,,,,,,,,,,,,,,,,,,,,,,,,,,,,,,,,,,,,,,,,,,,,,,0,2,2,3,1,,,,,,,,,,,,,,,,,,,,,,,,,,,,,,,,,,,,,,,
300339,001,2022-11-20_16h55.25.925,Info_measure_main_exp,2022.2.2,Win32,240.1536984,,,,,,,,,,,,,,,,,,masks/mask_005.jpg,,,,,,,,,,,,,,,,,,,,,,,,,,,,,,,,,,,,,,,,,,,,,,,,0,3,3,4,1,,,,,,,,,,,,,,,,,,,,,,,,,,,,,,,,,,,,,,,
300339,001,2022-11-20_16h55.25.925,Info_measure_main_exp,2022.2.2,Win32,240.1536984,,,,,,,,,,,,,,,,,,masks/mask_002.jpg,,,,,,,,,,,,,,,,,,,,,,,,,,,,,,,,,,,,,,,,,,,,,,,,0,4,4,1,1,,,,,,,,,,,,,,,,,,,,,,,,,,,,,,,,,,,,,,,
300339,001,2022-11-20_16h55.25.925,Info_measure_main_exp,2022.2.2,Win32,240.1536984,,,,,,,,,,,,,,,,,,,,,,,,,,,,,,7,0.7216,1,,,,,,,,,,,,0,131,5,5,1986,1974,absent_patch/patch0001986.jpg,absent_patch/patch0001974.jpg,,,,,,,,,,,,,,,,,,,,0.058272633,0.13371488,1,0,0,response1disk,31,-0.006243496,0.011966701,1,0,0,center_square,0,30,30,25,1,,,,,,,,,,,,,,,,,,,,,
300339,001,2022-11-20_16h55.25.925,Info_measure_main_exp,2022.2.2,Win32,240.1536984,,,,,,,,,,,,,,,,,,masks/mask_004.jpg,,,,,,,,,,,,,,,,,,,,,,,,,,,,,,,,,,,,,,,,,,,0,0,0,3,1,,,,,,,,,,,,,,,,,,,,,,,,,,,,,,,,,,,,,,,,,,,,
300339,001,2022-11-20_16h55.25.925,Info_measure_main_exp,2022.2.2,Win32,240.1536984,,,,,,,,,,,,,,,,,,masks/mask_002.jpg,,,,,,,,,,,,,,,,,,,,,,,,,,,,,,,,,,,,,,,,,,,0,1,1,1,1,,,,,,,,,,,,,,,,,,,,,,,,,,,,,,,,,,,,,,,,,,,,
300339,001,2022-11-20_16h55.25.925,Info_measure_main_exp,2022.2.2,Win32,240.1536984,,,,,,,,,,,,,,,,,,masks/mask_001.jpg,,,,,,,,,,,,,,,,,,,,,,,,,,,,,,,,,,,,,,,,,,,0,2,2,0,1,,,,,,,,,,,,,,,,,,,,,,,,,,,,,,,,,,,,,,,,,,,,
300339,001,2022-11-20_16h55.25.925,Info_measure_main_exp,2022.2.2,Win32,240.1536984,,,,,,,,,,,,,,,,,,masks/mask_003.jpg,,,,,,,,,,,,,,,,,,,,,,,,,,,,,,,,,,,,,,,,,,,0,3,3,2,1,,,,,,,,,,,,,,,,,,,,,,,,,,,,,,,,,,,,,,,,,,,,
300339,001,2022-11-20_16h55.25.925,Info_measure_main_exp,2022.2.2,Win32,240.1536984,,,,,,,,,,,,,,,,,,masks/mask_005.jpg,,,,,,,,,,,,,,,,,,,,,,,,,,,,,,,,,,,,,,,,,,,0,4,4,4,1,,,,,,,,,,,,,,,,,,,,,,,,,,,,,,,,,,,,,,,,,,,,
300339,001,2022-11-20_16h55.25.925,Info_measure_main_exp,2022.2.2,Win32,240.1536984,,,,,,,,,,,,,,,,,,masks/mask_003.jpg,,,,,,,,,,,,,,,,,,,,,,,,,,,,,,,,,,,,,,,,,,,,,,,,0,0,0,2,1,,,,,,,,,,,,,,,,,,,,,,,,,,,,,,,,,,,,,,,
300339,001,2022-11-20_16h55.25.925,Info_measure_main_exp,2022.2.2,Win32,240.1536984,,,,,,,,,,,,,,,,,,masks/mask_004.jpg,,,,,,,,,,,,,,,,,,,,,,,,,,,,,,,,,,,,,,,,,,,,,,,,0,1,1,3,1,,,,,,,,,,,,,,,,,,,,,,,,,,,,,,,,,,,,,,,
300339,001,2022-11-20_16h55.25.925,Info_measure_main_exp,2022.2.2,Win32,240.1536984,,,,,,,,,,,,,,,,,,masks/mask_005.jpg,,,,,,,,,,,,,,,,,,,,,,,,,,,,,,,,,,,,,,,,,,,,,,,,0,2,2,4,1,,,,,,,,,,,,,,,,,,,,,,,,,,,,,,,,,,,,,,,
300339,001,2022-11-20_16h55.25.925,Info_measure_main_exp,2022.2.2,Win32,240.1536984,,,,,,,,,,,,,,,,,,masks/mask_002.jpg,,,,,,,,,,,,,,,,,,,,,,,,,,,,,,,,,,,,,,,,,,,,,,,,0,3,3,1,1,,,,,,,,,,,,,,,,,,,,,,,,,,,,,,,,,,,,,,,
300339,001,2022-11-20_16h55.25.925,Info_measure_main_exp,2022.2.2,Win32,240.1536984,,,,,,,,,,,,,,,,,,masks/mask_001.jpg,,,,,,,,,,,,,,,,,,,,,,,,,,,,,,,,,,,,,,,,,,,,,,,,0,4,4,0,1,,,,,,,,,,,,,,,,,,,,,,,,,,,,,,,,,,,,,,,
300339,001,2022-11-20_16h55.25.925,Info_measure_main_exp,2022.2.2,Win32,240.1536984,,,,,,,,,,,,,,,,,,,,,,,,,,,,,,6,0.7508,1,,,,,,,,,,,,0,131,5,5,2238,2298,absent_patch/patch0002238.jpg,absent_patch/patch0002298.jpg,,,,,,,,,,,,,,,,,,,,0.127991675,0.03798127,1,0,0,response1disk,32,0.013527575,-0.013007284,1,0,0,center_square,0,31,31,51,1,,,,,,,,,,,,,,,,,,,,,
300339,001,2022-11-20_16h55.25.925,Info_measure_main_exp,2022.2.2,Win32,240.1536984,,,,,,,,,,,,,,,,,,masks/mask_004.jpg,,,,,,,,,,,,,,,,,,,,,,,,,,,,,,,,,,,,,,,,,,,0,0,0,3,1,,,,,,,,,,,,,,,,,,,,,,,,,,,,,,,,,,,,,,,,,,,,
300339,001,2022-11-20_16h55.25.925,Info_measure_main_exp,2022.2.2,Win32,240.1536984,,,,,,,,,,,,,,,,,,masks/mask_003.jpg,,,,,,,,,,,,,,,,,,,,,,,,,,,,,,,,,,,,,,,,,,,0,1,1,2,1,,,,,,,,,,,,,,,,,,,,,,,,,,,,,,,,,,,,,,,,,,,,
300339,001,2022-11-20_16h55.25.925,Info_measure_main_exp,2022.2.2,Win32,240.1536984,,,,,,,,,,,,,,,,,,masks/mask_005.jpg,,,,,,,,,,,,,,,,,,,,,,,,,,,,,,,,,,,,,,,,,,,0,2,2,4,1,,,,,,,,,,,,,,,,,,,,,,,,,,,,,,,,,,,,,,,,,,,,
300339,001,2022-11-20_16h55.25.925,Info_measure_main_exp,2022.2.2,Win32,240.1536984,,,,,,,,,,,,,,,,,,masks/mask_002.jpg,,,,,,,,,,,,,,,,,,,,,,,,,,,,,,,,,,,,,,,,,,,0,3,3,1,1,,,,,,,,,,,,,,,,,,,,,,,,,,,,,,,,,,,,,,,,,,,,
300339,001,2022-11-20_16h55.25.925,Info_measure_main_exp,2022.2.2,Win32,240.1536984,,,,,,,,,,,,,,,,,,masks/mask_001.jpg,,,,,,,,,,,,,,,,,,,,,,,,,,,,,,,,,,,,,,,,,,,0,4,4,0,1,,,,,,,,,,,,,,,,,,,,,,,,,,,,,,,,,,,,,,,,,,,,
300339,001,2022-11-20_16h55.25.925,Info_measure_main_exp,2022.2.2,Win32,240.1536984,,,,,,,,,,,,,,,,,,masks/mask_001.jpg,,,,,,,,,,,,,,,,,,,,,,,,,,,,,,,,,,,,,,,,,,,,,,,,0,0,0,0,1,,,,,,,,,,,,,,,,,,,,,,,,,,,,,,,,,,,,,,,
300339,001,2022-11-20_16h55.25.925,Info_measure_main_exp,2022.2.2,Win32,240.1536984,,,,,,,,,,,,,,,,,,masks/mask_002.jpg,,,,,,,,,,,,,,,,,,,,,,,,,,,,,,,,,,,,,,,,,,,,,,,,0,1,1,1,1,,,,,,,,,,,,,,,,,,,,,,,,,,,,,,,,,,,,,,,
300339,001,2022-11-20_16h55.25.925,Info_measure_main_exp,2022.2.2,Win32,240.1536984,,,,,,,,,,,,,,,,,,masks/mask_005.jpg,,,,,,,,,,,,,,,,,,,,,,,,,,,,,,,,,,,,,,,,,,,,,,,,0,2,2,4,1,,,,,,,,,,,,,,,,,,,,,,,,,,,,,,,,,,,,,,,
300339,001,2022-11-20_16h55.25.925,Info_measure_main_exp,2022.2.2,Win32,240.1536984,,,,,,,,,,,,,,,,,,masks/mask_003.jpg,,,,,,,,,,,,,,,,,,,,,,,,,,,,,,,,,,,,,,,,,,,,,,,,0,3,3,2,1,,,,,,,,,,,,,,,,,,,,,,,,,,,,,,,,,,,,,,,
300339,001,2022-11-20_16h55.25.925,Info_measure_main_exp,2022.2.2,Win32,240.1536984,,,,,,,,,,,,,,,,,,masks/mask_004.jpg,,,,,,,,,,,,,,,,,,,,,,,,,,,,,,,,,,,,,,,,,,,,,,,,0,4,4,3,1,,,,,,,,,,,,,,,,,,,,,,,,,,,,,,,,,,,,,,,
300339,001,2022-11-20_16h55.25.925,Info_measure_main_exp,2022.2.2,Win32,240.1536984,,,,,,,,,,,,,,,,,,,,,,,,,,,,,,3,2.3649,1,,,,,,,,,,,,1,131,5,5,1,1986,present_patch/cong_131_5_a.jpg,absent_patch/patch0001986.jpg,,,,,,,,,,,,,,,,,,,,-0.079084287,-0.117065557,1,0,0,response5disk,33,-0.009365245,0.010926119,1,0,0,center_square,0,32,32,106,1,,,,,,,,,,,,,,,,,,,,,
300339,001,2022-11-20_16h55.25.925,Info_measure_main_exp,2022.2.2,Win32,240.1536984,,,,,,,,,,,,,,,,,,masks/mask_005.jpg,,,,,,,,,,,,,,,,,,,,,,,,,,,,,,,,,,,,,,,,,,,0,0,0,4,1,,,,,,,,,,,,,,,,,,,,,,,,,,,,,,,,,,,,,,,,,,,,
300339,001,2022-11-20_16h55.25.925,Info_measure_main_exp,2022.2.2,Win32,240.1536984,,,,,,,,,,,,,,,,,,masks/mask_003.jpg,,,,,,,,,,,,,,,,,,,,,,,,,,,,,,,,,,,,,,,,,,,0,1,1,2,1,,,,,,,,,,,,,,,,,,,,,,,,,,,,,,,,,,,,,,,,,,,,
300339,001,2022-11-20_16h55.25.925,Info_measure_main_exp,2022.2.2,Win32,240.1536984,,,,,,,,,,,,,,,,,,masks/mask_001.jpg,,,,,,,,,,,,,,,,,,,,,,,,,,,,,,,,,,,,,,,,,,,0,2,2,0,1,,,,,,,,,,,,,,,,,,,,,,,,,,,,,,,,,,,,,,,,,,,,
300339,001,2022-11-20_16h55.25.925,Info_measure_main_exp,2022.2.2,Win32,240.1536984,,,,,,,,,,,,,,,,,,masks/mask_004.jpg,,,,,,,,,,,,,,,,,,,,,,,,,,,,,,,,,,,,,,,,,,,0,3,3,3,1,,,,,,,,,,,,,,,,,,,,,,,,,,,,,,,,,,,,,,,,,,,,
300339,001,2022-11-20_16h55.25.925,Info_measure_main_exp,2022.2.2,Win32,240.1536984,,,,,,,,,,,,,,,,,,masks/mask_002.jpg,,,,,,,,,,,,,,,,,,,,,,,,,,,,,,,,,,,,,,,,,,,0,4,4,1,1,,,,,,,,,,,,,,,,,,,,,,,,,,,,,,,,,,,,,,,,,,,,
300339,001,2022-11-20_16h55.25.925,Info_measure_main_exp,2022.2.2,Win32,240.1536984,,,,,,,,,,,,,,,,,,masks/mask_003.jpg,,,,,,,,,,,,,,,,,,,,,,,,,,,,,,,,,,,,,,,,,,,,,,,,0,0,0,2,1,,,,,,,,,,,,,,,,,,,,,,,,,,,,,,,,,,,,,,,
300339,001,2022-11-20_16h55.25.925,Info_measure_main_exp,2022.2.2,Win32,240.1536984,,,,,,,,,,,,,,,,,,masks/mask_002.jpg,,,,,,,,,,,,,,,,,,,,,,,,,,,,,,,,,,,,,,,,,,,,,,,,0,1,1,1,1,,,,,,,,,,,,,,,,,,,,,,,,,,,,,,,,,,,,,,,
300339,001,2022-11-20_16h55.25.925,Info_measure_main_exp,2022.2.2,Win32,240.1536984,,,,,,,,,,,,,,,,,,masks/mask_005.jpg,,,,,,,,,,,,,,,,,,,,,,,,,,,,,,,,,,,,,,,,,,,,,,,,0,2,2,4,1,,,,,,,,,,,,,,,,,,,,,,,,,,,,,,,,,,,,,,,
300339,001,2022-11-20_16h55.25.925,Info_measure_main_exp,2022.2.2,Win32,240.1536984,,,,,,,,,,,,,,,,,,masks/mask_001.jpg,,,,,,,,,,,,,,,,,,,,,,,,,,,,,,,,,,,,,,,,,,,,,,,,0,3,3,0,1,,,,,,,,,,,,,,,,,,,,,,,,,,,,,,,,,,,,,,,
300339,001,2022-11-20_16h55.25.925,Info_measure_main_exp,2022.2.2,Win32,240.1536984,,,,,,,,,,,,,,,,,,masks/mask_004.jpg,,,,,,,,,,,,,,,,,,,,,,,,,,,,,,,,,,,,,,,,,,,,,,,,0,4,4,3,1,,,,,,,,,,,,,,,,,,,,,,,,,,,,,,,,,,,,,,,
300339,001,2022-11-20_16h55.25.925,Info_measure_main_exp,2022.2.2,Win32,240.1536984,,,,,,,,,,,,,,,,,,,,,,,,,,,,,,5,0.976,1,,,,,,,,,,,,0,131,5,5,2274,2250,absent_patch/patch0002274.jpg,absent_patch/patch0002250.jpg,,,,,,,,,,,,,,,,,,,,0.058272633,-0.043184183,1,0,0,response3disk,34,-0.007284079,0.000520291,1,0,0,center_square,0,33,33,28,1,,,,,,,,,,,,,,,,,,,,,
300339,001,2022-11-20_16h55.25.925,Info_measure_main_exp,2022.2.2,Win32,240.1536984,,,,,,,,,,,,,,,,,,masks/mask_001.jpg,,,,,,,,,,,,,,,,,,,,,,,,,,,,,,,,,,,,,,,,,,,0,0,0,0,1,,,,,,,,,,,,,,,,,,,,,,,,,,,,,,,,,,,,,,,,,,,,
300339,001,2022-11-20_16h55.25.925,Info_measure_main_exp,2022.2.2,Win32,240.1536984,,,,,,,,,,,,,,,,,,masks/mask_002.jpg,,,,,,,,,,,,,,,,,,,,,,,,,,,,,,,,,,,,,,,,,,,0,1,1,1,1,,,,,,,,,,,,,,,,,,,,,,,,,,,,,,,,,,,,,,,,,,,,
300339,001,2022-11-20_16h55.25.925,Info_measure_main_exp,2022.2.2,Win32,240.1536984,,,,,,,,,,,,,,,,,,masks/mask_003.jpg,,,,,,,,,,,,,,,,,,,,,,,,,,,,,,,,,,,,,,,,,,,0,2,2,2,1,,,,,,,,,,,,,,,,,,,,,,,,,,,,,,,,,,,,,,,,,,,,
300339,001,2022-11-20_16h55.25.925,Info_measure_main_exp,2022.2.2,Win32,240.1536984,,,,,,,,,,,,,,,,,,masks/mask_004.jpg,,,,,,,,,,,,,,,,,,,,,,,,,,,,,,,,,,,,,,,,,,,0,3,3,3,1,,,,,,,,,,,,,,,,,,,,,,,,,,,,,,,,,,,,,,,,,,,,
300339,001,2022-11-20_16h55.25.925,Info_measure_main_exp,2022.2.2,Win32,240.1536984,,,,,,,,,,,,,,,,,,masks/mask_005.jpg,,,,,,,,,,,,,,,,,,,,,,,,,,,,,,,,,,,,,,,,,,,0,4,4,4,1,,,,,,,,,,,,,,,,,,,,,,,,,,,,,,,,,,,,,,,,,,,,
300339,001,2022-11-20_16h55.25.925,Info_measure_main_exp,2022.2.2,Win32,240.1536984,,,,,,,,,,,,,,,,,,masks/mask_005.jpg,,,,,,,,,,,,,,,,,,,,,,,,,,,,,,,,,,,,,,,,,,,,,,,,0,0,0,4,1,,,,,,,,,,,,,,,,,,,,,,,,,,,,,,,,,,,,,,,
300339,001,2022-11-20_16h55.25.925,Info_measure_main_exp,2022.2.2,Win32,240.1536984,,,,,,,,,,,,,,,,,,masks/mask_004.jpg,,,,,,,,,,,,,,,,,,,,,,,,,,,,,,,,,,,,,,,,,,,,,,,,0,1,1,3,1,,,,,,,,,,,,,,,,,,,,,,,,,,,,,,,,,,,,,,,
300339,001,2022-11-20_16h55.25.925,Info_measure_main_exp,2022.2.2,Win32,240.1536984,,,,,,,,,,,,,,,,,,masks/mask_003.jpg,,,,,,,,,,,,,,,,,,,,,,,,,,,,,,,,,,,,,,,,,,,,,,,,0,2,2,2,1,,,,,,,,,,,,,,,,,,,,,,,,,,,,,,,,,,,,,,,
300339,001,2022-11-20_16h55.25.925,Info_measure_main_exp,2022.2.2,Win32,240.1536984,,,,,,,,,,,,,,,,,,masks/mask_001.jpg,,,,,,,,,,,,,,,,,,,,,,,,,,,,,,,,,,,,,,,,,,,,,,,,0,3,3,0,1,,,,,,,,,,,,,,,,,,,,,,,,,,,,,,,,,,,,,,,
300339,001,2022-11-20_16h55.25.925,Info_measure_main_exp,2022.2.2,Win32,240.1536984,,,,,,,,,,,,,,,,,,masks/mask_002.jpg,,,,,,,,,,,,,,,,,,,,,,,,,,,,,,,,,,,,,,,,,,,,,,,,0,4,4,1,1,,,,,,,,,,,,,,,,,,,,,,,,,,,,,,,,,,,,,,,
300339,001,2022-11-20_16h55.25.925,Info_measure_main_exp,2022.2.2,Win32,240.1536984,,,,,,,,,,,,,,,,,,,,,,,,,,,,,,2,0.9886,1,,,,,,,,,,,,1,131,5,5,1,2154,present_patch/cong_131_5_a.jpg,absent_patch/patch0002154.jpg,,,,,,,,,,,,,,,,,,,,-0.046826223,-0.014047867,1,0,0,response5disk,35,0.003121748,0.002601457,1,0,0,center_square,0,34,34,87,1,,,,,,,,,,,,,,,,,,,,,
300339,001,2022-11-20_16h55.25.925,Info_measure_main_exp,2022.2.2,Win32,240.1536984,,,,,,,,,,,,,,,,,,masks/mask_001.jpg,,,,,,,,,,,,,,,,,,,,,,,,,,,,,,,,,,,,,,,,,,,0,0,0,0,1,,,,,,,,,,,,,,,,,,,,,,,,,,,,,,,,,,,,,,,,,,,,
