participant,session,date,expName,psychopyVersion,OS,frameRate,space_press_continue.keys,space_press_continue.rt,space_press_continue_2.keys,space_press_continue_2.rt,space_press_continue_3.keys,space_press_continue_3.rt,space_press_continue_4.keys,space_press_continue_4.rt,space_press_continue_5.keys,space_press_continue_5.rt,space_press_continue_6.keys,space_press_continue_6.rt,prac_mask_loop_1.thisRepN,prac_mask_loop_1.thisTrialN,prac_mask_loop_1.thisN,prac_mask_loop_1.thisIndex,prac_mask_loop_1.ran,mask_name,prac_mask_loop_2.thisRepN,prac_mask_loop_2.thisTrialN,prac_mask_loop_2.thisN,prac_mask_loop_2.thisIndex,prac_mask_loop_2.ran,mouse_2.x,mouse_2.y,mouse_2.leftButton,mouse_2.midButton,mouse_2.rightButton,mouse_2.clicked_name,similarity,response_time,Pass,mouse_12.x,mouse_12.y,mouse_12.leftButton,mouse_12.midButton,mouse_12.rightButton,mouse_12.clicked_name,prac_loop.thisRepN,prac_loop.thisTrialN,prac_loop.thisN,prac_loop.thisIndex,prac_loop.ran,Pair_type,Image_num,Patch_1_loc,Patch_2_loc,Patch_1_info,Patch_2_info,Patch_1_name,Patch_2_name,mouse_1.x,mouse_1.y,mouse_1.leftButton,mouse_1.midButton,mouse_1.rightButton,mouse_1.time,mouse_1.clicked_name,space_press_continue_7.keys,space_press_continue_7.rt,mask_loop.thisRepN,mask_loop.thisTrialN,mask_loop.thisN,mask_loop.thisIndex,mask_loop.ran,mask_loop_2.thisRepN,mask_loop_2.thisTrialN,mask_loop_2.thisN,mask_loop_2.thisIndex,mask_loop_2.ran,mouse.x,mouse.y,mouse.leftButton,mouse.midButton,mouse.rightButton,mouse.clicked_name,trialNumber,mouse_11.x,mouse_11.y,mouse_11.leftButton,mouse_11.midButton,mouse_11.rightButton,mouse_11.clicked_name,first_pass_loop.thisRepN,first_pass_loop.thisTrialN,first_pass_loop.thisN,first_pass_loop.thisIndex,first_pass_loop.ran
304977,001,2022-11-20_20h51.56.475,Info_measure_main_exp,2022.2.2,Linux x86_64,6.00240096,,,,,,,,,,,,,,,,,,,,,,,,,,,,,,,,,,,,,,,,,,,,,,,,,,,,,,,,,,,,,,,,,,,,,,,,,,,,,,,,,,,,,,,,
304977,001,2022-11-20_20h51.56.475,Info_measure_main_exp,2022.2.2,Linux x86_64,6.00240096,,,,,,,,,,,,,,,,,,,,,,,,,,,,,,,,,,,,,,,,,,,,,,,,,,,,,,,,,,,,,,,,,,,,,,,,,,,,,,,,,,,,,,,,
304977,001,2022-11-20_20h51.56.475,Info_measure_main_exp,2022.2.2,Linux x86_64,6.00240096,space,14.5425,,,,,,,,,,,,,,,,,,,,,,,,,,,,,,,,,,,,,,,,,,,,,,,,,,,,,,,,,,,,,,,,,,,,,,,,,,,,,,,,,,,,,,
304977,001,2022-11-20_20h51.56.475,Info_measure_main_exp,2022.2.2,Linux x86_64,6.00240096,,,space,14.6243,,,,,,,,,,,,,,,,,,,,,,,,,,,,,,,,,,,,,,,,,,,,,,,,,,,,,,,,,,,,,,,,,,,,,,,,,,,,,,,,,,,,
304977,001,2022-11-20_20h51.56.475,Info_measure_main_exp,2022.2.2,Linux x86_64,6.00240096,,,,,space,6.6587,,,,,,,,,,,,,,,,,,,,,,,,,,,,,,,,,,,,,,,,,,,,,,,,,,,,,,,,,,,,,,,,,,,,,,,,,,,,,,,,,,
304977,001,2022-11-20_20h51.56.475,Info_measure_main_exp,2022.2.2,Linux x86_64,6.00240096,,,,,,,space,15.7714,,,,,,,,,,,,,,,,,,,,,,,,,,,,,,,,,,,,,,,,,,,,,,,,,,,,,,,,,,,,,,,,,,,,,,,,,,,,,,,,
304977,001,2022-11-20_20h51.56.475,Info_measure_main_exp,2022.2.2,Linux x86_64,6.00240096,,,,,,,,,space,7.2802,,,,,,,,,,,,,,,,,,,,,,,,,,,,,,,,,,,,,,,,,,,,,,,,,,,,,,,,,,,,,,,,,,,,,,,,,,,,,,
304977,001,2022-11-20_20h51.56.475,Info_measure_main_exp,2022.2.2,Linux x86_64,6.00240096,,,,,,,,,,,space,2.823,,,,,,,,,,,,,,,,,,,,,,,,,,,,,,,,,,,,,,,,,,,,,,,,,,,,,,,,,,,,,,,,,,,,,,,,,,,,
304977,001,2022-11-20_20h51.56.475,Info_measure_main_exp,2022.2.2,Linux x86_64,6.00240096,,,,,,,,,,,,,0,0,0,0,1,masks/mask_001.jpg,,,,,,,,,,,,,,,,,,,,,,,,,,,,,,,,,,,,,,,,,,,,,,,,,,,,,,,,,,,,,,,,,,,,,,
304977,001,2022-11-20_20h51.56.475,Info_measure_main_exp,2022.2.2,Linux x86_64,6.00240096,,,,,,,,,,,,,0,1,1,1,1,masks/mask_002.jpg,,,,,,,,,,,,,,,,,,,,,,,,,,,,,,,,,,,,,,,,,,,,,,,,,,,,,,,,,,,,,,,,,,,,,,
304977,001,2022-11-20_20h51.56.475,Info_measure_main_exp,2022.2.2,Linux x86_64,6.00240096,,,,,,,,,,,,,0,2,2,4,1,masks/mask_005.jpg,,,,,,,,,,,,,,,,,,,,,,,,,,,,,,,,,,,,,,,,,,,,,,,,,,,,,,,,,,,,,,,,,,,,,,
304977,001,2022-11-20_20h51.56.475,Info_measure_main_exp,2022.2.2,Linux x86_64,6.00240096,,,,,,,,,,,,,0,3,3,3,1,masks/mask_004.jpg,,,,,,,,,,,,,,,,,,,,,,,,,,,,,,,,,,,,,,,,,,,,,,,,,,,,,,,,,,,,,,,,,,,,,,
304977,001,2022-11-20_20h51.56.475,Info_measure_main_exp,2022.2.2,Linux x86_64,6.00240096,,,,,,,,,,,,,0,4,4,2,1,masks/mask_003.jpg,,,,,,,,,,,,,,,,,,,,,,,,,,,,,,,,,,,,,,,,,,,,,,,,,,,,,,,,,,,,,,,,,,,,,,
304977,001,2022-11-20_20h51.56.475,Info_measure_main_exp,2022.2.2,Linux x86_64,6.00240096,,,,,,,,,,,,,,,,,,masks/mask_002.jpg,0,0,0,1,1,,,,,,,,,,,,,,,,,,,,,,,,,,,,,,,,,,,,,,,,,,,,,,,,,,,,,,,,,,,,,,,,,
304977,001,2022-11-20_20h51.56.475,Info_measure_main_exp,2022.2.2,Linux x86_64,6.00240096,,,,,,,,,,,,,,,,,,masks/mask_004.jpg,0,1,1,3,1,,,,,,,,,,,,,,,,,,,,,,,,,,,,,,,,,,,,,,,,,,,,,,,,,,,,,,,,,,,,,,,,,
304977,001,2022-11-20_20h51.56.475,Info_measure_main_exp,2022.2.2,Linux x86_64,6.00240096,,,,,,,,,,,,,,,,,,masks/mask_001.jpg,0,2,2,0,1,,,,,,,,,,,,,,,,,,,,,,,,,,,,,,,,,,,,,,,,,,,,,,,,,,,,,,,,,,,,,,,,,
304977,001,2022-11-20_20h51.56.475,Info_measure_main_exp,2022.2.2,Linux x86_64,6.00240096,,,,,,,,,,,,,,,,,,masks/mask_003.jpg,0,3,3,2,1,,,,,,,,,,,,,,,,,,,,,,,,,,,,,,,,,,,,,,,,,,,,,,,,,,,,,,,,,,,,,,,,,
304977,001,2022-11-20_20h51.56.475,Info_measure_main_exp,2022.2.2,Linux x86_64,6.00240096,,,,,,,,,,,,,,,,,,masks/mask_005.jpg,0,4,4,4,1,,,,,,,,,,,,,,,,,,,,,,,,,,,,,,,,,,,,,,,,,,,,,,,,,,,,,,,,,,,,,,,,,
304977,001,2022-11-20_20h51.56.475,Info_measure_main_exp,2022.2.2,Linux x86_64,6.00240096,,,,,,,,,,,,,,,,,,,,,,,,-0.119444444,-0.047222222,1,0,0,response5disk,2,69.4445,1,-0.000925926,-0.003703704,1,0,0,center_square,0,0,0,0,1,0,131,5,5,2370,2406,prac_patch/patch0002370.jpg,prac_patch/patch0002406.jpg,,,,,,,,,,,,,,,,,,,,,,,,,,,,,,,,,,,,,
304977,001,2022-11-20_20h51.56.475,Info_measure_main_exp,2022.2.2,Linux x86_64,6.00240096,,,,,,,,,,,,,0,0,0,4,1,masks/mask_005.jpg,,,,,,,,,,,,,,,,,,,,,,,,,,,,,,,,,,,,,,,,,,,,,,,,,,,,,,,,,,,,,,,,,,,,,,
304977,001,2022-11-20_20h51.56.475,Info_measure_main_exp,2022.2.2,Linux x86_64,6.00240096,,,,,,,,,,,,,0,1,1,3,1,masks/mask_004.jpg,,,,,,,,,,,,,,,,,,,,,,,,,,,,,,,,,,,,,,,,,,,,,,,,,,,,,,,,,,,,,,,,,,,,,,
304977,001,2022-11-20_20h51.56.475,Info_measure_main_exp,2022.2.2,Linux x86_64,6.00240096,,,,,,,,,,,,,0,2,2,1,1,masks/mask_002.jpg,,,,,,,,,,,,,,,,,,,,,,,,,,,,,,,,,,,,,,,,,,,,,,,,,,,,,,,,,,,,,,,,,,,,,,
304977,001,2022-11-20_20h51.56.475,Info_measure_main_exp,2022.2.2,Linux x86_64,6.00240096,,,,,,,,,,,,,0,3,3,2,1,masks/mask_003.jpg,,,,,,,,,,,,,,,,,,,,,,,,,,,,,,,,,,,,,,,,,,,,,,,,,,,,,,,,,,,,,,,,,,,,,,
304977,001,2022-11-20_20h51.56.475,Info_measure_main_exp,2022.2.2,Linux x86_64,6.00240096,,,,,,,,,,,,,0,4,4,0,1,masks/mask_001.jpg,,,,,,,,,,,,,,,,,,,,,,,,,,,,,,,,,,,,,,,,,,,,,,,,,,,,,,,,,,,,,,,,,,,,,,
304977,001,2022-11-20_20h51.56.475,Info_measure_main_exp,2022.2.2,Linux x86_64,6.00240096,,,,,,,,,,,,,,,,,,masks/mask_002.jpg,0,0,0,1,1,,,,,,,,,,,,,,,,,,,,,,,,,,,,,,,,,,,,,,,,,,,,,,,,,,,,,,,,,,,,,,,,,
304977,001,2022-11-20_20h51.56.475,Info_measure_main_exp,2022.2.2,Linux x86_64,6.00240096,,,,,,,,,,,,,,,,,,masks/mask_001.jpg,0,1,1,0,1,,,,,,,,,,,,,,,,,,,,,,,,,,,,,,,,,,,,,,,,,,,,,,,,,,,,,,,,,,,,,,,,,
304977,001,2022-11-20_20h51.56.475,Info_measure_main_exp,2022.2.2,Linux x86_64,6.00240096,,,,,,,,,,,,,,,,,,masks/mask_003.jpg,0,2,2,2,1,,,,,,,,,,,,,,,,,,,,,,,,,,,,,,,,,,,,,,,,,,,,,,,,,,,,,,,,,,,,,,,,,
304977,001,2022-11-20_20h51.56.475,Info_measure_main_exp,2022.2.2,Linux x86_64,6.00240096,,,,,,,,,,,,,,,,,,masks/mask_004.jpg,0,3,3,3,1,,,,,,,,,,,,,,,,,,,,,,,,,,,,,,,,,,,,,,,,,,,,,,,,,,,,,,,,,,,,,,,,,
304977,001,2022-11-20_20h51.56.475,Info_measure_main_exp,2022.2.2,Linux x86_64,6.00240096,,,,,,,,,,,,,,,,,,masks/mask_005.jpg,0,4,4,4,1,,,,,,,,,,,,,,,,,,,,,,,,,,,,,,,,,,,,,,,,,,,,,,,,,,,,,,,,,,,,,,,,,
304977,001,2022-11-20_20h51.56.475,Info_measure_main_exp,2022.2.2,Linux x86_64,6.00240096,,,,,,,,,,,,,,,,,,,,,,,,-0.017592593,-0.030555556,1,0,0,response5disk,3,85.1318,1,-0.007407407,-0.005555556,1,0,0,center_square,0,1,1,1,1,0,131,5,5,2514,2490,prac_patch/patch0002514.jpg,prac_patch/patch0002490.jpg,,,,,,,,,,,,,,,,,,,,,,,,,,,,,,,,,,,,,
304977,001,2022-11-20_20h51.56.475,Info_measure_main_exp,2022.2.2,Linux x86_64,6.00240096,,,,,,,,,,,,,0,0,0,1,1,masks/mask_002.jpg,,,,,,,,,,,,,,,,,,,,,,,,,,,,,,,,,,,,,,,,,,,,,,,,,,,,,,,,,,,,,,,,,,,,,,
304977,001,2022-11-20_20h51.56.475,Info_measure_main_exp,2022.2.2,Linux x86_64,6.00240096,,,,,,,,,,,,,0,1,1,3,1,masks/mask_004.jpg,,,,,,,,,,,,,,,,,,,,,,,,,,,,,,,,,,,,,,,,,,,,,,,,,,,,,,,,,,,,,,,,,,,,,,
304977,001,2022-11-20_20h51.56.475,Info_measure_main_exp,2022.2.2,Linux x86_64,6.00240096,,,,,,,,,,,,,0,2,2,2,1,masks/mask_003.jpg,,,,,,,,,,,,,,,,,,,,,,,,,,,,,,,,,,,,,,,,,,,,,,,,,,,,,,,,,,,,,,,,,,,,,,
304977,001,2022-11-20_20h51.56.475,Info_measure_main_exp,2022.2.2,Linux x86_64,6.00240096,,,,,,,,,,,,,0,3,3,0,1,masks/mask_001.jpg,,,,,,,,,,,,,,,,,,,,,,,,,,,,,,,,,,,,,,,,,,,,,,,,,,,,,,,,,,,,,,,,,,,,,,
304977,001,2022-11-20_20h51.56.475,Info_measure_main_exp,2022.2.2,Linux x86_64,6.00240096,,,,,,,,,,,,,0,4,4,4,1,masks/mask_005.jpg,,,,,,,,,,,,,,,,,,,,,,,,,,,,,,,,,,,,,,,,,,,,,,,,,,,,,,,,,,,,,,,,,,,,,,
304977,001,2022-11-20_20h51.56.475,Info_measure_main_exp,2022.2.2,Linux x86_64,6.00240096,,,,,,,,,,,,,,,,,,masks/mask_003.jpg,0,0,0,2,1,,,,,,,,,,,,,,,,,,,,,,,,,,,,,,,,,,,,,,,,,,,,,,,,,,,,,,,,,,,,,,,,,
304977,001,2022-11-20_20h51.56.475,Info_measure_main_exp,2022.2.2,Linux x86_64,6.00240096,,,,,,,,,,,,,,,,,,masks/mask_004.jpg,0,1,1,3,1,,,,,,,,,,,,,,,,,,,,,,,,,,,,,,,,,,,,,,,,,,,,,,,,,,,,,,,,,,,,,,,,,
304977,001,2022-11-20_20h51.56.475,Info_measure_main_exp,2022.2.2,Linux x86_64,6.00240096,,,,,,,,,,,,,,,,,,masks/mask_005.jpg,0,2,2,4,1,,,,,,,,,,,,,,,,,,,,,,,,,,,,,,,,,,,,,,,,,,,,,,,,,,,,,,,,,,,,,,,,,
304977,001,2022-11-20_20h51.56.475,Info_measure_main_exp,2022.2.2,Linux x86_64,6.00240096,,,,,,,,,,,,,,,,,,masks/mask_001.jpg,0,3,3,0,1,,,,,,,,,,,,,,,,,,,,,,,,,,,,,,,,,,,,,,,,,,,,,,,,,,,,,,,,,,,,,,,,,
304977,001,2022-11-20_20h51.56.475,Info_measure_main_exp,2022.2.2,Linux x86_64,6.00240096,,,,,,,,,,,,,,,,,,masks/mask_002.jpg,0,4,4,1,1,,,,,,,,,,,,,,,,,,,,,,,,,,,,,,,,,,,,,,,,,,,,,,,,,,,,,,,,,,,,,,,,,
304977,001,2022-11-20_20h51.56.475,Info_measure_main_exp,2022.2.2,Linux x86_64,6.00240096,,,,,,,,,,,,,,,,,,,,,,,,0.093518519,0.037037037,1,0,0,response1disk,6,95.6883,1,-0.002777778,0.001851852,1,0,0,center_square,0,2,2,2,1,0,131,5,5,2526,2526,prac_patch/patch0002526.jpg,prac_patch/patch0002526.jpg,,,,,,,,,,,,,,,,,,,,,,,,,,,,,,,,,,,,,
304977,001,2022-11-20_20h51.56.475,Info_measure_main_exp,2022.2.2,Linux x86_64,6.00240096,,,,,,,,,,,,,,,,,,,,,,,,,,,,,,,,,,,,,,,,,,,,,,,,,,,,,,,,,,,space,1.9269,,,,,,,,,,,,,,,,,,,,,,,,,,,,
304977,001,2022-11-20_20h51.56.475,Info_measure_main_exp,2022.2.2,Linux x86_64,6.00240096,,,,,,,,,,,,,,,,,,masks/mask_002.jpg,,,,,,,,,,,,,,,,,,,,,,,,,,,,,,,,,,,,,,,,,,,0,0,0,1,1,,,,,,,,,,,,,,,,,,,,,,,
304977,001,2022-11-20_20h51.56.475,Info_measure_main_exp,2022.2.2,Linux x86_64,6.00240096,,,,,,,,,,,,,,,,,,masks/mask_003.jpg,,,,,,,,,,,,,,,,,,,,,,,,,,,,,,,,,,,,,,,,,,,0,1,1,2,1,,,,,,,,,,,,,,,,,,,,,,,
304977,001,2022-11-20_20h51.56.475,Info_measure_main_exp,2022.2.2,Linux x86_64,6.00240096,,,,,,,,,,,,,,,,,,masks/mask_004.jpg,,,,,,,,,,,,,,,,,,,,,,,,,,,,,,,,,,,,,,,,,,,0,2,2,3,1,,,,,,,,,,,,,,,,,,,,,,,
304977,001,2022-11-20_20h51.56.475,Info_measure_main_exp,2022.2.2,Linux x86_64,6.00240096,,,,,,,,,,,,,,,,,,masks/mask_001.jpg,,,,,,,,,,,,,,,,,,,,,,,,,,,,,,,,,,,,,,,,,,,0,3,3,0,1,,,,,,,,,,,,,,,,,,,,,,,
304977,001,2022-11-20_20h51.56.475,Info_measure_main_exp,2022.2.2,Linux x86_64,6.00240096,,,,,,,,,,,,,,,,,,masks/mask_005.jpg,,,,,,,,,,,,,,,,,,,,,,,,,,,,,,,,,,,,,,,,,,,0,4,4,4,1,,,,,,,,,,,,,,,,,,,,,,,
304977,001,2022-11-20_20h51.56.475,Info_measure_main_exp,2022.2.2,Linux x86_64,6.00240096,,,,,,,,,,,,,,,,,,masks/mask_004.jpg,,,,,,,,,,,,,,,,,,,,,,,,,,,,,,,,,,,,,,,,,,,,,,,,0,0,0,3,1,,,,,,,,,,,,,,,,,,
304977,001,2022-11-20_20h51.56.475,Info_measure_main_exp,2022.2.2,Linux x86_64,6.00240096,,,,,,,,,,,,,,,,,,masks/mask_002.jpg,,,,,,,,,,,,,,,,,,,,,,,,,,,,,,,,,,,,,,,,,,,,,,,,0,1,1,1,1,,,,,,,,,,,,,,,,,,
304977,001,2022-11-20_20h51.56.475,Info_measure_main_exp,2022.2.2,Linux x86_64,6.00240096,,,,,,,,,,,,,,,,,,masks/mask_005.jpg,,,,,,,,,,,,,,,,,,,,,,,,,,,,,,,,,,,,,,,,,,,,,,,,0,2,2,4,1,,,,,,,,,,,,,,,,,,
304977,001,2022-11-20_20h51.56.475,Info_measure_main_exp,2022.2.2,Linux x86_64,6.00240096,,,,,,,,,,,,,,,,,,masks/mask_001.jpg,,,,,,,,,,,,,,,,,,,,,,,,,,,,,,,,,,,,,,,,,,,,,,,,0,3,3,0,1,,,,,,,,,,,,,,,,,,
304977,001,2022-11-20_20h51.56.475,Info_measure_main_exp,2022.2.2,Linux x86_64,6.00240096,,,,,,,,,,,,,,,,,,masks/mask_003.jpg,,,,,,,,,,,,,,,,,,,,,,,,,,,,,,,,,,,,,,,,,,,,,,,,0,4,4,2,1,,,,,,,,,,,,,,,,,,
304977,001,2022-11-20_20h51.56.475,Info_measure_main_exp,2022.2.2,Linux x86_64,6.00240096,,,,,,,,,,,,,,,,,,,,,,,,,,,,,,0,4.3138,1,,,,,,,,,,,,0,131,5,5,2154,2154,absent_patch/patch0002154.jpg,absent_patch/patch0002154.jpg,,,,,,,,,,,,,,,,,,,,-0.05,0.068518519,1,0,0,response7disk,1,-0.00462963,0.011111111,1,0,0,center_square,0,0,0,89,1
304977,001,2022-11-20_20h51.56.475,Info_measure_main_exp,2022.2.2,Linux x86_64,6.00240096,,,,,,,,,,,,,,,,,,masks/mask_004.jpg,,,,,,,,,,,,,,,,,,,,,,,,,,,,,,,,,,,,,,,,,,,0,0,0,3,1,,,,,,,,,,,,,,,,,,,,,,,
304977,001,2022-11-20_20h51.56.475,Info_measure_main_exp,2022.2.2,Linux x86_64,6.00240096,,,,,,,,,,,,,,,,,,masks/mask_002.jpg,,,,,,,,,,,,,,,,,,,,,,,,,,,,,,,,,,,,,,,,,,,0,1,1,1,1,,,,,,,,,,,,,,,,,,,,,,,
304977,001,2022-11-20_20h51.56.475,Info_measure_main_exp,2022.2.2,Linux x86_64,6.00240096,,,,,,,,,,,,,,,,,,masks/mask_005.jpg,,,,,,,,,,,,,,,,,,,,,,,,,,,,,,,,,,,,,,,,,,,0,2,2,4,1,,,,,,,,,,,,,,,,,,,,,,,
304977,001,2022-11-20_20h51.56.475,Info_measure_main_exp,2022.2.2,Linux x86_64,6.00240096,,,,,,,,,,,,,,,,,,masks/mask_001.jpg,,,,,,,,,,,,,,,,,,,,,,,,,,,,,,,,,,,,,,,,,,,0,3,3,0,1,,,,,,,,,,,,,,,,,,,,,,,
304977,001,2022-11-20_20h51.56.475,Info_measure_main_exp,2022.2.2,Linux x86_64,6.00240096,,,,,,,,,,,,,,,,,,masks/mask_003.jpg,,,,,,,,,,,,,,,,,,,,,,,,,,,,,,,,,,,,,,,,,,,0,4,4,2,1,,,,,,,,,,,,,,,,,,,,,,,
304977,001,2022-11-20_20h51.56.475,Info_measure_main_exp,2022.2.2,Linux x86_64,6.00240096,,,,,,,,,,,,,,,,,,masks/mask_001.jpg,,,,,,,,,,,,,,,,,,,,,,,,,,,,,,,,,,,,,,,,,,,,,,,,0,0,0,0,1,,,,,,,,,,,,,,,,,,
304977,001,2022-11-20_20h51.56.475,Info_measure_main_exp,2022.2.2,Linux x86_64,6.00240096,,,,,,,,,,,,,,,,,,masks/mask_005.jpg,,,,,,,,,,,,,,,,,,,,,,,,,,,,,,,,,,,,,,,,,,,,,,,,0,1,1,4,1,,,,,,,,,,,,,,,,,,
304977,001,2022-11-20_20h51.56.475,Info_measure_main_exp,2022.2.2,Linux x86_64,6.00240096,,,,,,,,,,,,,,,,,,masks/mask_003.jpg,,,,,,,,,,,,,,,,,,,,,,,,,,,,,,,,,,,,,,,,,,,,,,,,0,2,2,2,1,,,,,,,,,,,,,,,,,,
304977,001,2022-11-20_20h51.56.475,Info_measure_main_exp,2022.2.2,Linux x86_64,6.00240096,,,,,,,,,,,,,,,,,,masks/mask_004.jpg,,,,,,,,,,,,,,,,,,,,,,,,,,,,,,,,,,,,,,,,,,,,,,,,0,3,3,3,1,,,,,,,,,,,,,,,,,,
304977,001,2022-11-20_20h51.56.475,Info_measure_main_exp,2022.2.2,Linux x86_64,6.00240096,,,,,,,,,,,,,,,,,,masks/mask_002.jpg,,,,,,,,,,,,,,,,,,,,,,,,,,,,,,,,,,,,,,,,,,,,,,,,0,4,4,1,1,,,,,,,,,,,,,,,,,,
304977,001,2022-11-20_20h51.56.475,Info_measure_main_exp,2022.2.2,Linux x86_64,6.00240096,,,,,,,,,,,,,,,,,,,,,,,,,,,,,,2,6.0834,1,,,,,,,,,,,,0,131,5,5,2274,2154,absent_patch/patch0002274.jpg,absent_patch/patch0002154.jpg,,,,,,,,,,,,,,,,,,,,-0.037962963,-0.016666667,1,0,0,response5disk,2,0.002777778,-0.00462963,1,0,0,center_square,0,1,1,23,1
304977,001,2022-11-20_20h51.56.475,Info_measure_main_exp,2022.2.2,Linux x86_64,6.00240096,,,,,,,,,,,,,,,,,,masks/mask_005.jpg,,,,,,,,,,,,,,,,,,,,,,,,,,,,,,,,,,,,,,,,,,,0,0,0,4,1,,,,,,,,,,,,,,,,,,,,,,,
304977,001,2022-11-20_20h51.56.475,Info_measure_main_exp,2022.2.2,Linux x86_64,6.00240096,,,,,,,,,,,,,,,,,,masks/mask_004.jpg,,,,,,,,,,,,,,,,,,,,,,,,,,,,,,,,,,,,,,,,,,,0,1,1,3,1,,,,,,,,,,,,,,,,,,,,,,,
304977,001,2022-11-20_20h51.56.475,Info_measure_main_exp,2022.2.2,Linux x86_64,6.00240096,,,,,,,,,,,,,,,,,,masks/mask_001.jpg,,,,,,,,,,,,,,,,,,,,,,,,,,,,,,,,,,,,,,,,,,,0,2,2,0,1,,,,,,,,,,,,,,,,,,,,,,,
304977,001,2022-11-20_20h51.56.475,Info_measure_main_exp,2022.2.2,Linux x86_64,6.00240096,,,,,,,,,,,,,,,,,,masks/mask_002.jpg,,,,,,,,,,,,,,,,,,,,,,,,,,,,,,,,,,,,,,,,,,,0,3,3,1,1,,,,,,,,,,,,,,,,,,,,,,,
304977,001,2022-11-20_20h51.56.475,Info_measure_main_exp,2022.2.2,Linux x86_64,6.00240096,,,,,,,,,,,,,,,,,,masks/mask_003.jpg,,,,,,,,,,,,,,,,,,,,,,,,,,,,,,,,,,,,,,,,,,,0,4,4,2,1,,,,,,,,,,,,,,,,,,,,,,,
304977,001,2022-11-20_20h51.56.475,Info_measure_main_exp,2022.2.2,Linux x86_64,6.00240096,,,,,,,,,,,,,,,,,,masks/mask_002.jpg,,,,,,,,,,,,,,,,,,,,,,,,,,,,,,,,,,,,,,,,,,,,,,,,0,0,0,1,1,,,,,,,,,,,,,,,,,,
304977,001,2022-11-20_20h51.56.475,Info_measure_main_exp,2022.2.2,Linux x86_64,6.00240096,,,,,,,,,,,,,,,,,,masks/mask_003.jpg,,,,,,,,,,,,,,,,,,,,,,,,,,,,,,,,,,,,,,,,,,,,,,,,0,1,1,2,1,,,,,,,,,,,,,,,,,,
304977,001,2022-11-20_20h51.56.475,Info_measure_main_exp,2022.2.2,Linux x86_64,6.00240096,,,,,,,,,,,,,,,,,,masks/mask_004.jpg,,,,,,,,,,,,,,,,,,,,,,,,,,,,,,,,,,,,,,,,,,,,,,,,0,2,2,3,1,,,,,,,,,,,,,,,,,,
304977,001,2022-11-20_20h51.56.475,Info_measure_main_exp,2022.2.2,Linux x86_64,6.00240096,,,,,,,,,,,,,,,,,,masks/mask_001.jpg,,,,,,,,,,,,,,,,,,,,,,,,,,,,,,,,,,,,,,,,,,,,,,,,0,3,3,0,1,,,,,,,,,,,,,,,,,,
304977,001,2022-11-20_20h51.56.475,Info_measure_main_exp,2022.2.2,Linux x86_64,6.00240096,,,,,,,,,,,,,,,,,,masks/mask_005.jpg,,,,,,,,,,,,,,,,,,,,,,,,,,,,,,,,,,,,,,,,,,,,,,,,0,4,4,4,1,,,,,,,,,,,,,,,,,,
304977,001,2022-11-20_20h51.56.475,Info_measure_main_exp,2022.2.2,Linux x86_64,6.00240096,,,,,,,,,,,,,,,,,,,,,,,,,,,,,,0,3.2338,1,,,,,,,,,,,,0,131,5,5,2274,2082,absent_patch/patch0002274.jpg,absent_patch/patch0002082.jpg,,,,,,,,,,,,,,,,,,,,-0.052777778,0.084259259,1,0,0,response7disk,3,0.001851852,0.001851852,1,0,0,center_square,0,2,2,100,1
304977,001,2022-11-20_20h51.56.475,Info_measure_main_exp,2022.2.2,Linux x86_64,6.00240096,,,,,,,,,,,,,,,,,,masks/mask_005.jpg,,,,,,,,,,,,,,,,,,,,,,,,,,,,,,,,,,,,,,,,,,,0,0,0,4,1,,,,,,,,,,,,,,,,,,,,,,,
304977,001,2022-11-20_20h51.56.475,Info_measure_main_exp,2022.2.2,Linux x86_64,6.00240096,,,,,,,,,,,,,,,,,,masks/mask_002.jpg,,,,,,,,,,,,,,,,,,,,,,,,,,,,,,,,,,,,,,,,,,,0,1,1,1,1,,,,,,,,,,,,,,,,,,,,,,,
304977,001,2022-11-20_20h51.56.475,Info_measure_main_exp,2022.2.2,Linux x86_64,6.00240096,,,,,,,,,,,,,,,,,,masks/mask_004.jpg,,,,,,,,,,,,,,,,,,,,,,,,,,,,,,,,,,,,,,,,,,,0,2,2,3,1,,,,,,,,,,,,,,,,,,,,,,,
304977,001,2022-11-20_20h51.56.475,Info_measure_main_exp,2022.2.2,Linux x86_64,6.00240096,,,,,,,,,,,,,,,,,,masks/mask_003.jpg,,,,,,,,,,,,,,,,,,,,,,,,,,,,,,,,,,,,,,,,,,,0,3,3,2,1,,,,,,,,,,,,,,,,,,,,,,,
304977,001,2022-11-20_20h51.56.475,Info_measure_main_exp,2022.2.2,Linux x86_64,6.00240096,,,,,,,,,,,,,,,,,,masks/mask_001.jpg,,,,,,,,,,,,,,,,,,,,,,,,,,,,,,,,,,,,,,,,,,,0,4,4,0,1,,,,,,,,,,,,,,,,,,,,,,,
304977,001,2022-11-20_20h51.56.475,Info_measure_main_exp,2022.2.2,Linux x86_64,6.00240096,,,,,,,,,,,,,,,,,,masks/mask_003.jpg,,,,,,,,,,,,,,,,,,,,,,,,,,,,,,,,,,,,,,,,,,,,,,,,0,0,0,2,1,,,,,,,,,,,,,,,,,,
304977,001,2022-11-20_20h51.56.475,Info_measure_main_exp,2022.2.2,Linux x86_64,6.00240096,,,,,,,,,,,,,,,,,,masks/mask_001.jpg,,,,,,,,,,,,,,,,,,,,,,,,,,,,,,,,,,,,,,,,,,,,,,,,0,1,1,0,1,,,,,,,,,,,,,,,,,,
304977,001,2022-11-20_20h51.56.475,Info_measure_main_exp,2022.2.2,Linux x86_64,6.00240096,,,,,,,,,,,,,,,,,,masks/mask_005.jpg,,,,,,,,,,,,,,,,,,,,,,,,,,,,,,,,,,,,,,,,,,,,,,,,0,2,2,4,1,,,,,,,,,,,,,,,,,,
304977,001,2022-11-20_20h51.56.475,Info_measure_main_exp,2022.2.2,Linux x86_64,6.00240096,,,,,,,,,,,,,,,,,,masks/mask_002.jpg,,,,,,,,,,,,,,,,,,,,,,,,,,,,,,,,,,,,,,,,,,,,,,,,0,3,3,1,1,,,,,,,,,,,,,,,,,,
304977,001,2022-11-20_20h51.56.475,Info_measure_main_exp,2022.2.2,Linux x86_64,6.00240096,,,,,,,,,,,,,,,,,,masks/mask_004.jpg,,,,,,,,,,,,,,,,,,,,,,,,,,,,,,,,,,,,,,,,,,,,,,,,0,4,4,3,1,,,,,,,,,,,,,,,,,,
304977,001,2022-11-20_20h51.56.475,Info_measure_main_exp,2022.2.2,Linux x86_64,6.00240096,,,,,,,,,,,,,,,,,,,,,,,,,,,,,,0,3.2227,1,,,,,,,,,,,,1,131,5,5,2298,1,absent_patch/patch0002298.jpg,present_patch/cong_131_5_a.jpg,,,,,,,,,,,,,,,,,,,,-0.016666667,0.062037037,1,0,0,response7disk,4,-0.001851852,0.007407407,1,0,0,center_square,0,3,3,45,1
304977,001,2022-11-20_20h51.56.475,Info_measure_main_exp,2022.2.2,Linux x86_64,6.00240096,,,,,,,,,,,,,,,,,,masks/mask_004.jpg,,,,,,,,,,,,,,,,,,,,,,,,,,,,,,,,,,,,,,,,,,,0,0,0,3,1,,,,,,,,,,,,,,,,,,,,,,,
304977,001,2022-11-20_20h51.56.475,Info_measure_main_exp,2022.2.2,Linux x86_64,6.00240096,,,,,,,,,,,,,,,,,,masks/mask_005.jpg,,,,,,,,,,,,,,,,,,,,,,,,,,,,,,,,,,,,,,,,,,,0,1,1,4,1,,,,,,,,,,,,,,,,,,,,,,,
304977,001,2022-11-20_20h51.56.475,Info_measure_main_exp,2022.2.2,Linux x86_64,6.00240096,,,,,,,,,,,,,,,,,,masks/mask_002.jpg,,,,,,,,,,,,,,,,,,,,,,,,,,,,,,,,,,,,,,,,,,,0,2,2,1,1,,,,,,,,,,,,,,,,,,,,,,,
304977,001,2022-11-20_20h51.56.475,Info_measure_main_exp,2022.2.2,Linux x86_64,6.00240096,,,,,,,,,,,,,,,,,,masks/mask_001.jpg,,,,,,,,,,,,,,,,,,,,,,,,,,,,,,,,,,,,,,,,,,,0,3,3,0,1,,,,,,,,,,,,,,,,,,,,,,,
304977,001,2022-11-20_20h51.56.475,Info_measure_main_exp,2022.2.2,Linux x86_64,6.00240096,,,,,,,,,,,,,,,,,,masks/mask_003.jpg,,,,,,,,,,,,,,,,,,,,,,,,,,,,,,,,,,,,,,,,,,,0,4,4,2,1,,,,,,,,,,,,,,,,,,,,,,,
304977,001,2022-11-20_20h51.56.475,Info_measure_main_exp,2022.2.2,Linux x86_64,6.00240096,,,,,,,,,,,,,,,,,,masks/mask_004.jpg,,,,,,,,,,,,,,,,,,,,,,,,,,,,,,,,,,,,,,,,,,,,,,,,0,0,0,3,1,,,,,,,,,,,,,,,,,,
304977,001,2022-11-20_20h51.56.475,Info_measure_main_exp,2022.2.2,Linux x86_64,6.00240096,,,,,,,,,,,,,,,,,,masks/mask_003.jpg,,,,,,,,,,,,,,,,,,,,,,,,,,,,,,,,,,,,,,,,,,,,,,,,0,1,1,2,1,,,,,,,,,,,,,,,,,,
304977,001,2022-11-20_20h51.56.475,Info_measure_main_exp,2022.2.2,Linux x86_64,6.00240096,,,,,,,,,,,,,,,,,,masks/mask_001.jpg,,,,,,,,,,,,,,,,,,,,,,,,,,,,,,,,,,,,,,,,,,,,,,,,0,2,2,0,1,,,,,,,,,,,,,,,,,,
304977,001,2022-11-20_20h51.56.475,Info_measure_main_exp,2022.2.2,Linux x86_64,6.00240096,,,,,,,,,,,,,,,,,,masks/mask_002.jpg,,,,,,,,,,,,,,,,,,,,,,,,,,,,,,,,,,,,,,,,,,,,,,,,0,3,3,1,1,,,,,,,,,,,,,,,,,,
304977,001,2022-11-20_20h51.56.475,Info_measure_main_exp,2022.2.2,Linux x86_64,6.00240096,,,,,,,,,,,,,,,,,,masks/mask_005.jpg,,,,,,,,,,,,,,,,,,,,,,,,,,,,,,,,,,,,,,,,,,,,,,,,0,4,4,4,1,,,,,,,,,,,,,,,,,,
304977,001,2022-11-20_20h51.56.475,Info_measure_main_exp,2022.2.2,Linux x86_64,6.00240096,,,,,,,,,,,,,,,,,,,,,,,,,,,,,,0,1.5329,1,,,,,,,,,,,,0,131,5,5,1950,2166,absent_patch/patch0001950.jpg,absent_patch/patch0002166.jpg,,,,,,,,,,,,,,,,,,,,-0.016666667,0.058333333,1,0,0,response7disk,5,0.007407407,0.00462963,1,0,0,center_square,0,4,4,0,1
304977,001,2022-11-20_20h51.56.475,Info_measure_main_exp,2022.2.2,Linux x86_64,6.00240096,,,,,,,,,,,,,,,,,,masks/mask_002.jpg,,,,,,,,,,,,,,,,,,,,,,,,,,,,,,,,,,,,,,,,,,,0,0,0,1,1,,,,,,,,,,,,,,,,,,,,,,,
304977,001,2022-11-20_20h51.56.475,Info_measure_main_exp,2022.2.2,Linux x86_64,6.00240096,,,,,,,,,,,,,,,,,,masks/mask_001.jpg,,,,,,,,,,,,,,,,,,,,,,,,,,,,,,,,,,,,,,,,,,,0,1,1,0,1,,,,,,,,,,,,,,,,,,,,,,,
304977,001,2022-11-20_20h51.56.475,Info_measure_main_exp,2022.2.2,Linux x86_64,6.00240096,,,,,,,,,,,,,,,,,,masks/mask_005.jpg,,,,,,,,,,,,,,,,,,,,,,,,,,,,,,,,,,,,,,,,,,,0,2,2,4,1,,,,,,,,,,,,,,,,,,,,,,,
304977,001,2022-11-20_20h51.56.475,Info_measure_main_exp,2022.2.2,Linux x86_64,6.00240096,,,,,,,,,,,,,,,,,,masks/mask_003.jpg,,,,,,,,,,,,,,,,,,,,,,,,,,,,,,,,,,,,,,,,,,,0,3,3,2,1,,,,,,,,,,,,,,,,,,,,,,,
304977,001,2022-11-20_20h51.56.475,Info_measure_main_exp,2022.2.2,Linux x86_64,6.00240096,,,,,,,,,,,,,,,,,,masks/mask_004.jpg,,,,,,,,,,,,,,,,,,,,,,,,,,,,,,,,,,,,,,,,,,,0,4,4,3,1,,,,,,,,,,,,,,,,,,,,,,,
304977,001,2022-11-20_20h51.56.475,Info_measure_main_exp,2022.2.2,Linux x86_64,6.00240096,,,,,,,,,,,,,,,,,,masks/mask_002.jpg,,,,,,,,,,,,,,,,,,,,,,,,,,,,,,,,,,,,,,,,,,,,,,,,0,0,0,1,1,,,,,,,,,,,,,,,,,,
304977,001,2022-11-20_20h51.56.475,Info_measure_main_exp,2022.2.2,Linux x86_64,6.00240096,,,,,,,,,,,,,,,,,,masks/mask_004.jpg,,,,,,,,,,,,,,,,,,,,,,,,,,,,,,,,,,,,,,,,,,,,,,,,0,1,1,3,1,,,,,,,,,,,,,,,,,,
304977,001,2022-11-20_20h51.56.475,Info_measure_main_exp,2022.2.2,Linux x86_64,6.00240096,,,,,,,,,,,,,,,,,,masks/mask_005.jpg,,,,,,,,,,,,,,,,,,,,,,,,,,,,,,,,,,,,,,,,,,,,,,,,0,2,2,4,1,,,,,,,,,,,,,,,,,,
304977,001,2022-11-20_20h51.56.475,Info_measure_main_exp,2022.2.2,Linux x86_64,6.00240096,,,,,,,,,,,,,,,,,,masks/mask_003.jpg,,,,,,,,,,,,,,,,,,,,,,,,,,,,,,,,,,,,,,,,,,,,,,,,0,3,3,2,1,,,,,,,,,,,,,,,,,,
304977,001,2022-11-20_20h51.56.475,Info_measure_main_exp,2022.2.2,Linux x86_64,6.00240096,,,,,,,,,,,,,,,,,,masks/mask_001.jpg,,,,,,,,,,,,,,,,,,,,,,,,,,,,,,,,,,,,,,,,,,,,,,,,0,4,4,0,1,,,,,,,,,,,,,,,,,,
304977,001,2022-11-20_20h51.56.475,Info_measure_main_exp,2022.2.2,Linux x86_64,6.00240096,,,,,,,,,,,,,,,,,,,,,,,,,,,,,,2,5.4739,1,,,,,,,,,,,,0,131,5,5,1986,2142,absent_patch/patch0001986.jpg,absent_patch/patch0002142.jpg,,,,,,,,,,,,,,,,,,,,-0.049074074,-0.001851852,1,0,0,response5disk,6,0.005555556,0.001851852,1,0,0,center_square,0,5,5,76,1
304977,001,2022-11-20_20h51.56.475,Info_measure_main_exp,2022.2.2,Linux x86_64,6.00240096,,,,,,,,,,,,,,,,,,masks/mask_003.jpg,,,,,,,,,,,,,,,,,,,,,,,,,,,,,,,,,,,,,,,,,,,0,0,0,2,1,,,,,,,,,,,,,,,,,,,,,,,
304977,001,2022-11-20_20h51.56.475,Info_measure_main_exp,2022.2.2,Linux x86_64,6.00240096,,,,,,,,,,,,,,,,,,masks/mask_005.jpg,,,,,,,,,,,,,,,,,,,,,,,,,,,,,,,,,,,,,,,,,,,0,1,1,4,1,,,,,,,,,,,,,,,,,,,,,,,
304977,001,2022-11-20_20h51.56.475,Info_measure_main_exp,2022.2.2,Linux x86_64,6.00240096,,,,,,,,,,,,,,,,,,masks/mask_004.jpg,,,,,,,,,,,,,,,,,,,,,,,,,,,,,,,,,,,,,,,,,,,0,2,2,3,1,,,,,,,,,,,,,,,,,,,,,,,
304977,001,2022-11-20_20h51.56.475,Info_measure_main_exp,2022.2.2,Linux x86_64,6.00240096,,,,,,,,,,,,,,,,,,masks/mask_001.jpg,,,,,,,,,,,,,,,,,,,,,,,,,,,,,,,,,,,,,,,,,,,0,3,3,0,1,,,,,,,,,,,,,,,,,,,,,,,
304977,001,2022-11-20_20h51.56.475,Info_measure_main_exp,2022.2.2,Linux x86_64,6.00240096,,,,,,,,,,,,,,,,,,masks/mask_002.jpg,,,,,,,,,,,,,,,,,,,,,,,,,,,,,,,,,,,,,,,,,,,0,4,4,1,1,,,,,,,,,,,,,,,,,,,,,,,
304977,001,2022-11-20_20h51.56.475,Info_measure_main_exp,2022.2.2,Linux x86_64,6.00240096,,,,,,,,,,,,,,,,,,masks/mask_005.jpg,,,,,,,,,,,,,,,,,,,,,,,,,,,,,,,,,,,,,,,,,,,,,,,,0,0,0,4,1,,,,,,,,,,,,,,,,,,
304977,001,2022-11-20_20h51.56.475,Info_measure_main_exp,2022.2.2,Linux x86_64,6.00240096,,,,,,,,,,,,,,,,,,masks/mask_004.jpg,,,,,,,,,,,,,,,,,,,,,,,,,,,,,,,,,,,,,,,,,,,,,,,,0,1,1,3,1,,,,,,,,,,,,,,,,,,
304977,001,2022-11-20_20h51.56.475,Info_measure_main_exp,2022.2.2,Linux x86_64,6.00240096,,,,,,,,,,,,,,,,,,masks/mask_003.jpg,,,,,,,,,,,,,,,,,,,,,,,,,,,,,,,,,,,,,,,,,,,,,,,,0,2,2,2,1,,,,,,,,,,,,,,,,,,
304977,001,2022-11-20_20h51.56.475,Info_measure_main_exp,2022.2.2,Linux x86_64,6.00240096,,,,,,,,,,,,,,,,,,masks/mask_001.jpg,,,,,,,,,,,,,,,,,,,,,,,,,,,,,,,,,,,,,,,,,,,,,,,,0,3,3,0,1,,,,,,,,,,,,,,,,,,
304977,001,2022-11-20_20h51.56.475,Info_measure_main_exp,2022.2.2,Linux x86_64,6.00240096,,,,,,,,,,,,,,,,,,masks/mask_002.jpg,,,,,,,,,,,,,,,,,,,,,,,,,,,,,,,,,,,,,,,,,,,,,,,,0,4,4,1,1,,,,,,,,,,,,,,,,,,
304977,001,2022-11-20_20h51.56.475,Info_measure_main_exp,2022.2.2,Linux x86_64,6.00240096,,,,,,,,,,,,,,,,,,,,,,,,,,,,,,2,4.749,1,,,,,,,,,,,,0,131,5,5,2190,1974,absent_patch/patch0002190.jpg,absent_patch/patch0001974.jpg,,,,,,,,,,,,,,,,,,,,-0.057407407,-0.026851852,1,0,0,response5disk,7,-0.007407407,0,1,0,0,center_square,0,6,6,119,1
304977,001,2022-11-20_20h51.56.475,Info_measure_main_exp,2022.2.2,Linux x86_64,6.00240096,,,,,,,,,,,,,,,,,,masks/mask_001.jpg,,,,,,,,,,,,,,,,,,,,,,,,,,,,,,,,,,,,,,,,,,,0,0,0,0,1,,,,,,,,,,,,,,,,,,,,,,,
304977,001,2022-11-20_20h51.56.475,Info_measure_main_exp,2022.2.2,Linux x86_64,6.00240096,,,,,,,,,,,,,,,,,,masks/mask_003.jpg,,,,,,,,,,,,,,,,,,,,,,,,,,,,,,,,,,,,,,,,,,,0,1,1,2,1,,,,,,,,,,,,,,,,,,,,,,,
304977,001,2022-11-20_20h51.56.475,Info_measure_main_exp,2022.2.2,Linux x86_64,6.00240096,,,,,,,,,,,,,,,,,,masks/mask_005.jpg,,,,,,,,,,,,,,,,,,,,,,,,,,,,,,,,,,,,,,,,,,,0,2,2,4,1,,,,,,,,,,,,,,,,,,,,,,,
304977,001,2022-11-20_20h51.56.475,Info_measure_main_exp,2022.2.2,Linux x86_64,6.00240096,,,,,,,,,,,,,,,,,,masks/mask_004.jpg,,,,,,,,,,,,,,,,,,,,,,,,,,,,,,,,,,,,,,,,,,,0,3,3,3,1,,,,,,,,,,,,,,,,,,,,,,,
304977,001,2022-11-20_20h51.56.475,Info_measure_main_exp,2022.2.2,Linux x86_64,6.00240096,,,,,,,,,,,,,,,,,,masks/mask_002.jpg,,,,,,,,,,,,,,,,,,,,,,,,,,,,,,,,,,,,,,,,,,,0,4,4,1,1,,,,,,,,,,,,,,,,,,,,,,,
304977,001,2022-11-20_20h51.56.475,Info_measure_main_exp,2022.2.2,Linux x86_64,6.00240096,,,,,,,,,,,,,,,,,,masks/mask_003.jpg,,,,,,,,,,,,,,,,,,,,,,,,,,,,,,,,,,,,,,,,,,,,,,,,0,0,0,2,1,,,,,,,,,,,,,,,,,,
304977,001,2022-11-20_20h51.56.475,Info_measure_main_exp,2022.2.2,Linux x86_64,6.00240096,,,,,,,,,,,,,,,,,,masks/mask_001.jpg,,,,,,,,,,,,,,,,,,,,,,,,,,,,,,,,,,,,,,,,,,,,,,,,0,1,1,0,1,,,,,,,,,,,,,,,,,,
304977,001,2022-11-20_20h51.56.475,Info_measure_main_exp,2022.2.2,Linux x86_64,6.00240096,,,,,,,,,,,,,,,,,,masks/mask_004.jpg,,,,,,,,,,,,,,,,,,,,,,,,,,,,,,,,,,,,,,,,,,,,,,,,0,2,2,3,1,,,,,,,,,,,,,,,,,,
304977,001,2022-11-20_20h51.56.475,Info_measure_main_exp,2022.2.2,Linux x86_64,6.00240096,,,,,,,,,,,,,,,,,,masks/mask_002.jpg,,,,,,,,,,,,,,,,,,,,,,,,,,,,,,,,,,,,,,,,,,,,,,,,0,3,3,1,1,,,,,,,,,,,,,,,,,,
304977,001,2022-11-20_20h51.56.475,Info_measure_main_exp,2022.2.2,Linux x86_64,6.00240096,,,,,,,,,,,,,,,,,,masks/mask_005.jpg,,,,,,,,,,,,,,,,,,,,,,,,,,,,,,,,,,,,,,,,,,,,,,,,0,4,4,4,1,,,,,,,,,,,,,,,,,,
304977,001,2022-11-20_20h51.56.475,Info_measure_main_exp,2022.2.2,Linux x86_64,6.00240096,,,,,,,,,,,,,,,,,,,,,,,,,,,,,,1,2.6105,1,,,,,,,,,,,,0,131,5,5,2274,2178,absent_patch/patch0002274.jpg,absent_patch/patch0002178.jpg,,,,,,,,,,,,,,,,,,,,-0.042592593,0.021296296,1,0,0,response7disk,8,0.001851852,0.007407407,1,0,0,center_square,0,7,7,117,1
304977,001,2022-11-20_20h51.56.475,Info_measure_main_exp,2022.2.2,Linux x86_64,6.00240096,,,,,,,,,,,,,,,,,,masks/mask_001.jpg,,,,,,,,,,,,,,,,,,,,,,,,,,,,,,,,,,,,,,,,,,,0,0,0,0,1,,,,,,,,,,,,,,,,,,,,,,,
304977,001,2022-11-20_20h51.56.475,Info_measure_main_exp,2022.2.2,Linux x86_64,6.00240096,,,,,,,,,,,,,,,,,,masks/mask_005.jpg,,,,,,,,,,,,,,,,,,,,,,,,,,,,,,,,,,,,,,,,,,,0,1,1,4,1,,,,,,,,,,,,,,,,,,,,,,,
304977,001,2022-11-20_20h51.56.475,Info_measure_main_exp,2022.2.2,Linux x86_64,6.00240096,,,,,,,,,,,,,,,,,,masks/mask_002.jpg,,,,,,,,,,,,,,,,,,,,,,,,,,,,,,,,,,,,,,,,,,,0,2,2,1,1,,,,,,,,,,,,,,,,,,,,,,,
304977,001,2022-11-20_20h51.56.475,Info_measure_main_exp,2022.2.2,Linux x86_64,6.00240096,,,,,,,,,,,,,,,,,,masks/mask_004.jpg,,,,,,,,,,,,,,,,,,,,,,,,,,,,,,,,,,,,,,,,,,,0,3,3,3,1,,,,,,,,,,,,,,,,,,,,,,,
304977,001,2022-11-20_20h51.56.475,Info_measure_main_exp,2022.2.2,Linux x86_64,6.00240096,,,,,,,,,,,,,,,,,,masks/mask_003.jpg,,,,,,,,,,,,,,,,,,,,,,,,,,,,,,,,,,,,,,,,,,,0,4,4,2,1,,,,,,,,,,,,,,,,,,,,,,,
304977,001,2022-11-20_20h51.56.475,Info_measure_main_exp,2022.2.2,Linux x86_64,6.00240096,,,,,,,,,,,,,,,,,,masks/mask_004.jpg,,,,,,,,,,,,,,,,,,,,,,,,,,,,,,,,,,,,,,,,,,,,,,,,0,0,0,3,1,,,,,,,,,,,,,,,,,,
304977,001,2022-11-20_20h51.56.475,Info_measure_main_exp,2022.2.2,Linux x86_64,6.00240096,,,,,,,,,,,,,,,,,,masks/mask_005.jpg,,,,,,,,,,,,,,,,,,,,,,,,,,,,,,,,,,,,,,,,,,,,,,,,0,1,1,4,1,,,,,,,,,,,,,,,,,,
304977,001,2022-11-20_20h51.56.475,Info_measure_main_exp,2022.2.2,Linux x86_64,6.00240096,,,,,,,,,,,,,,,,,,masks/mask_002.jpg,,,,,,,,,,,,,,,,,,,,,,,,,,,,,,,,,,,,,,,,,,,,,,,,0,2,2,1,1,,,,,,,,,,,,,,,,,,
304977,001,2022-11-20_20h51.56.475,Info_measure_main_exp,2022.2.2,Linux x86_64,6.00240096,,,,,,,,,,,,,,,,,,masks/mask_001.jpg,,,,,,,,,,,,,,,,,,,,,,,,,,,,,,,,,,,,,,,,,,,,,,,,0,3,3,0,1,,,,,,,,,,,,,,,,,,
304977,001,2022-11-20_20h51.56.475,Info_measure_main_exp,2022.2.2,Linux x86_64,6.00240096,,,,,,,,,,,,,,,,,,masks/mask_003.jpg,,,,,,,,,,,,,,,,,,,,,,,,,,,,,,,,,,,,,,,,,,,,,,,,0,4,4,2,1,,,,,,,,,,,,,,,,,,
304977,001,2022-11-20_20h51.56.475,Info_measure_main_exp,2022.2.2,Linux x86_64,6.00240096,,,,,,,,,,,,,,,,,,,,,,,,,,,,,,0,1.2236,1,,,,,,,,,,,,0,131,5,5,1974,2214,absent_patch/patch0001974.jpg,absent_patch/patch0002214.jpg,,,,,,,,,,,,,,,,,,,,-0.016666667,0.024074074,1,0,0,response7disk,9,0.006481481,-0.006481481,1,0,0,center_square,0,8,8,24,1
304977,001,2022-11-20_20h51.56.475,Info_measure_main_exp,2022.2.2,Linux x86_64,6.00240096,,,,,,,,,,,,,,,,,,masks/mask_003.jpg,,,,,,,,,,,,,,,,,,,,,,,,,,,,,,,,,,,,,,,,,,,0,0,0,2,1,,,,,,,,,,,,,,,,,,,,,,,
304977,001,2022-11-20_20h51.56.475,Info_measure_main_exp,2022.2.2,Linux x86_64,6.00240096,,,,,,,,,,,,,,,,,,masks/mask_002.jpg,,,,,,,,,,,,,,,,,,,,,,,,,,,,,,,,,,,,,,,,,,,0,1,1,1,1,,,,,,,,,,,,,,,,,,,,,,,
304977,001,2022-11-20_20h51.56.475,Info_measure_main_exp,2022.2.2,Linux x86_64,6.00240096,,,,,,,,,,,,,,,,,,masks/mask_004.jpg,,,,,,,,,,,,,,,,,,,,,,,,,,,,,,,,,,,,,,,,,,,0,2,2,3,1,,,,,,,,,,,,,,,,,,,,,,,
304977,001,2022-11-20_20h51.56.475,Info_measure_main_exp,2022.2.2,Linux x86_64,6.00240096,,,,,,,,,,,,,,,,,,masks/mask_005.jpg,,,,,,,,,,,,,,,,,,,,,,,,,,,,,,,,,,,,,,,,,,,0,3,3,4,1,,,,,,,,,,,,,,,,,,,,,,,
304977,001,2022-11-20_20h51.56.475,Info_measure_main_exp,2022.2.2,Linux x86_64,6.00240096,,,,,,,,,,,,,,,,,,masks/mask_001.jpg,,,,,,,,,,,,,,,,,,,,,,,,,,,,,,,,,,,,,,,,,,,0,4,4,0,1,,,,,,,,,,,,,,,,,,,,,,,
304977,001,2022-11-20_20h51.56.475,Info_measure_main_exp,2022.2.2,Linux x86_64,6.00240096,,,,,,,,,,,,,,,,,,masks/mask_003.jpg,,,,,,,,,,,,,,,,,,,,,,,,,,,,,,,,,,,,,,,,,,,,,,,,0,0,0,2,1,,,,,,,,,,,,,,,,,,
304977,001,2022-11-20_20h51.56.475,Info_measure_main_exp,2022.2.2,Linux x86_64,6.00240096,,,,,,,,,,,,,,,,,,masks/mask_004.jpg,,,,,,,,,,,,,,,,,,,,,,,,,,,,,,,,,,,,,,,,,,,,,,,,0,1,1,3,1,,,,,,,,,,,,,,,,,,
304977,001,2022-11-20_20h51.56.475,Info_measure_main_exp,2022.2.2,Linux x86_64,6.00240096,,,,,,,,,,,,,,,,,,masks/mask_001.jpg,,,,,,,,,,,,,,,,,,,,,,,,,,,,,,,,,,,,,,,,,,,,,,,,0,2,2,0,1,,,,,,,,,,,,,,,,,,
304977,001,2022-11-20_20h51.56.475,Info_measure_main_exp,2022.2.2,Linux x86_64,6.00240096,,,,,,,,,,,,,,,,,,masks/mask_002.jpg,,,,,,,,,,,,,,,,,,,,,,,,,,,,,,,,,,,,,,,,,,,,,,,,0,3,3,1,1,,,,,,,,,,,,,,,,,,
304977,001,2022-11-20_20h51.56.475,Info_measure_main_exp,2022.2.2,Linux x86_64,6.00240096,,,,,,,,,,,,,,,,,,masks/mask_005.jpg,,,,,,,,,,,,,,,,,,,,,,,,,,,,,,,,,,,,,,,,,,,,,,,,0,4,4,4,1,,,,,,,,,,,,,,,,,,
304977,001,2022-11-20_20h51.56.475,Info_measure_main_exp,2022.2.2,Linux x86_64,6.00240096,,,,,,,,,,,,,,,,,,,,,,,,,,,,,,0,0.8546,1,,,,,,,,,,,,0,131,5,5,1974,2238,absent_patch/patch0001974.jpg,absent_patch/patch0002238.jpg,,,,,,,,,,,,,,,,,,,,-0.02037037,0.04537037,1,0,0,response7disk,10,0.002777778,-0.002777778,1,0,0,center_square,0,9,9,95,1
304977,001,2022-11-20_20h51.56.475,Info_measure_main_exp,2022.2.2,Linux x86_64,6.00240096,,,,,,,,,,,,,,,,,,masks/mask_005.jpg,,,,,,,,,,,,,,,,,,,,,,,,,,,,,,,,,,,,,,,,,,,0,0,0,4,1,,,,,,,,,,,,,,,,,,,,,,,
304977,001,2022-11-20_20h51.56.475,Info_measure_main_exp,2022.2.2,Linux x86_64,6.00240096,,,,,,,,,,,,,,,,,,masks/mask_004.jpg,,,,,,,,,,,,,,,,,,,,,,,,,,,,,,,,,,,,,,,,,,,0,1,1,3,1,,,,,,,,,,,,,,,,,,,,,,,
304977,001,2022-11-20_20h51.56.475,Info_measure_main_exp,2022.2.2,Linux x86_64,6.00240096,,,,,,,,,,,,,,,,,,masks/mask_002.jpg,,,,,,,,,,,,,,,,,,,,,,,,,,,,,,,,,,,,,,,,,,,0,2,2,1,1,,,,,,,,,,,,,,,,,,,,,,,
304977,001,2022-11-20_20h51.56.475,Info_measure_main_exp,2022.2.2,Linux x86_64,6.00240096,,,,,,,,,,,,,,,,,,masks/mask_003.jpg,,,,,,,,,,,,,,,,,,,,,,,,,,,,,,,,,,,,,,,,,,,0,3,3,2,1,,,,,,,,,,,,,,,,,,,,,,,
304977,001,2022-11-20_20h51.56.475,Info_measure_main_exp,2022.2.2,Linux x86_64,6.00240096,,,,,,,,,,,,,,,,,,masks/mask_001.jpg,,,,,,,,,,,,,,,,,,,,,,,,,,,,,,,,,,,,,,,,,,,0,4,4,0,1,,,,,,,,,,,,,,,,,,,,,,,
304977,001,2022-11-20_20h51.56.475,Info_measure_main_exp,2022.2.2,Linux x86_64,6.00240096,,,,,,,,,,,,,,,,,,masks/mask_001.jpg,,,,,,,,,,,,,,,,,,,,,,,,,,,,,,,,,,,,,,,,,,,,,,,,0,0,0,0,1,,,,,,,,,,,,,,,,,,
304977,001,2022-11-20_20h51.56.475,Info_measure_main_exp,2022.2.2,Linux x86_64,6.00240096,,,,,,,,,,,,,,,,,,masks/mask_005.jpg,,,,,,,,,,,,,,,,,,,,,,,,,,,,,,,,,,,,,,,,,,,,,,,,0,1,1,4,1,,,,,,,,,,,,,,,,,,
304977,001,2022-11-20_20h51.56.475,Info_measure_main_exp,2022.2.2,Linux x86_64,6.00240096,,,,,,,,,,,,,,,,,,masks/mask_002.jpg,,,,,,,,,,,,,,,,,,,,,,,,,,,,,,,,,,,,,,,,,,,,,,,,0,2,2,1,1,,,,,,,,,,,,,,,,,,
304977,001,2022-11-20_20h51.56.475,Info_measure_main_exp,2022.2.2,Linux x86_64,6.00240096,,,,,,,,,,,,,,,,,,masks/mask_004.jpg,,,,,,,,,,,,,,,,,,,,,,,,,,,,,,,,,,,,,,,,,,,,,,,,0,3,3,3,1,,,,,,,,,,,,,,,,,,
304977,001,2022-11-20_20h51.56.475,Info_measure_main_exp,2022.2.2,Linux x86_64,6.00240096,,,,,,,,,,,,,,,,,,masks/mask_003.jpg,,,,,,,,,,,,,,,,,,,,,,,,,,,,,,,,,,,,,,,,,,,,,,,,0,4,4,2,1,,,,,,,,,,,,,,,,,,
304977,001,2022-11-20_20h51.56.475,Info_measure_main_exp,2022.2.2,Linux x86_64,6.00240096,,,,,,,,,,,,,,,,,,,,,,,,,,,,,,1,1.1944,1,,,,,,,,,,,,0,131,5,5,2178,2154,absent_patch/patch0002178.jpg,absent_patch/patch0002154.jpg,,,,,,,,,,,,,,,,,,,,-0.052777778,0.013888889,1,0,0,response7disk,11,-0.012037037,0.00462963,1,0,0,center_square,0,10,10,63,1
304977,001,2022-11-20_20h51.56.475,Info_measure_main_exp,2022.2.2,Linux x86_64,6.00240096,,,,,,,,,,,,,,,,,,masks/mask_003.jpg,,,,,,,,,,,,,,,,,,,,,,,,,,,,,,,,,,,,,,,,,,,0,0,0,2,1,,,,,,,,,,,,,,,,,,,,,,,
304977,001,2022-11-20_20h51.56.475,Info_measure_main_exp,2022.2.2,Linux x86_64,6.00240096,,,,,,,,,,,,,,,,,,masks/mask_001.jpg,,,,,,,,,,,,,,,,,,,,,,,,,,,,,,,,,,,,,,,,,,,0,1,1,0,1,,,,,,,,,,,,,,,,,,,,,,,
304977,001,2022-11-20_20h51.56.475,Info_measure_main_exp,2022.2.2,Linux x86_64,6.00240096,,,,,,,,,,,,,,,,,,masks/mask_004.jpg,,,,,,,,,,,,,,,,,,,,,,,,,,,,,,,,,,,,,,,,,,,0,2,2,3,1,,,,,,,,,,,,,,,,,,,,,,,
304977,001,2022-11-20_20h51.56.475,Info_measure_main_exp,2022.2.2,Linux x86_64,6.00240096,,,,,,,,,,,,,,,,,,masks/mask_005.jpg,,,,,,,,,,,,,,,,,,,,,,,,,,,,,,,,,,,,,,,,,,,0,3,3,4,1,,,,,,,,,,,,,,,,,,,,,,,
304977,001,2022-11-20_20h51.56.475,Info_measure_main_exp,2022.2.2,Linux x86_64,6.00240096,,,,,,,,,,,,,,,,,,masks/mask_002.jpg,,,,,,,,,,,,,,,,,,,,,,,,,,,,,,,,,,,,,,,,,,,0,4,4,1,1,,,,,,,,,,,,,,,,,,,,,,,
304977,001,2022-11-20_20h51.56.475,Info_measure_main_exp,2022.2.2,Linux x86_64,6.00240096,,,,,,,,,,,,,,,,,,masks/mask_004.jpg,,,,,,,,,,,,,,,,,,,,,,,,,,,,,,,,,,,,,,,,,,,,,,,,0,0,0,3,1,,,,,,,,,,,,,,,,,,
304977,001,2022-11-20_20h51.56.475,Info_measure_main_exp,2022.2.2,Linux x86_64,6.00240096,,,,,,,,,,,,,,,,,,masks/mask_002.jpg,,,,,,,,,,,,,,,,,,,,,,,,,,,,,,,,,,,,,,,,,,,,,,,,0,1,1,1,1,,,,,,,,,,,,,,,,,,
304977,001,2022-11-20_20h51.56.475,Info_measure_main_exp,2022.2.2,Linux x86_64,6.00240096,,,,,,,,,,,,,,,,,,masks/mask_005.jpg,,,,,,,,,,,,,,,,,,,,,,,,,,,,,,,,,,,,,,,,,,,,,,,,0,2,2,4,1,,,,,,,,,,,,,,,,,,
304977,001,2022-11-20_20h51.56.475,Info_measure_main_exp,2022.2.2,Linux x86_64,6.00240096,,,,,,,,,,,,,,,,,,masks/mask_003.jpg,,,,,,,,,,,,,,,,,,,,,,,,,,,,,,,,,,,,,,,,,,,,,,,,0,3,3,2,1,,,,,,,,,,,,,,,,,,
304977,001,2022-11-20_20h51.56.475,Info_measure_main_exp,2022.2.2,Linux x86_64,6.00240096,,,,,,,,,,,,,,,,,,masks/mask_001.jpg,,,,,,,,,,,,,,,,,,,,,,,,,,,,,,,,,,,,,,,,,,,,,,,,0,4,4,0,1,,,,,,,,,,,,,,,,,,
304977,001,2022-11-20_20h51.56.475,Info_measure_main_exp,2022.2.2,Linux x86_64,6.00240096,,,,,,,,,,,,,,,,,,,,,,,,,,,,,,1,1.0381,1,,,,,,,,,,,,0,131,5,5,2274,2250,absent_patch/patch0002274.jpg,absent_patch/patch0002250.jpg,,,,,,,,,,,,,,,,,,,,-0.012037037,0.00462963,1,0,0,response7disk,12,-0.012037037,0.00462963,1,0,0,center_square,0,11,11,28,1
304977,001,2022-11-20_20h51.56.475,Info_measure_main_exp,2022.2.2,Linux x86_64,6.00240096,,,,,,,,,,,,,,,,,,masks/mask_001.jpg,,,,,,,,,,,,,,,,,,,,,,,,,,,,,,,,,,,,,,,,,,,0,0,0,0,1,,,,,,,,,,,,,,,,,,,,,,,
304977,001,2022-11-20_20h51.56.475,Info_measure_main_exp,2022.2.2,Linux x86_64,6.00240096,,,,,,,,,,,,,,,,,,masks/mask_005.jpg,,,,,,,,,,,,,,,,,,,,,,,,,,,,,,,,,,,,,,,,,,,0,1,1,4,1,,,,,,,,,,,,,,,,,,,,,,,
304977,001,2022-11-20_20h51.56.475,Info_measure_main_exp,2022.2.2,Linux x86_64,6.00240096,,,,,,,,,,,,,,,,,,masks/mask_004.jpg,,,,,,,,,,,,,,,,,,,,,,,,,,,,,,,,,,,,,,,,,,,0,2,2,3,1,,,,,,,,,,,,,,,,,,,,,,,
304977,001,2022-11-20_20h51.56.475,Info_measure_main_exp,2022.2.2,Linux x86_64,6.00240096,,,,,,,,,,,,,,,,,,masks/mask_002.jpg,,,,,,,,,,,,,,,,,,,,,,,,,,,,,,,,,,,,,,,,,,,0,3,3,1,1,,,,,,,,,,,,,,,,,,,,,,,
304977,001,2022-11-20_20h51.56.475,Info_measure_main_exp,2022.2.2,Linux x86_64,6.00240096,,,,,,,,,,,,,,,,,,masks/mask_003.jpg,,,,,,,,,,,,,,,,,,,,,,,,,,,,,,,,,,,,,,,,,,,0,4,4,2,1,,,,,,,,,,,,,,,,,,,,,,,
304977,001,2022-11-20_20h51.56.475,Info_measure_main_exp,2022.2.2,Linux x86_64,6.00240096,,,,,,,,,,,,,,,,,,masks/mask_005.jpg,,,,,,,,,,,,,,,,,,,,,,,,,,,,,,,,,,,,,,,,,,,,,,,,0,0,0,4,1,,,,,,,,,,,,,,,,,,
304977,001,2022-11-20_20h51.56.475,Info_measure_main_exp,2022.2.2,Linux x86_64,6.00240096,,,,,,,,,,,,,,,,,,masks/mask_002.jpg,,,,,,,,,,,,,,,,,,,,,,,,,,,,,,,,,,,,,,,,,,,,,,,,0,1,1,1,1,,,,,,,,,,,,,,,,,,
304977,001,2022-11-20_20h51.56.475,Info_measure_main_exp,2022.2.2,Linux x86_64,6.00240096,,,,,,,,,,,,,,,,,,masks/mask_003.jpg,,,,,,,,,,,,,,,,,,,,,,,,,,,,,,,,,,,,,,,,,,,,,,,,0,2,2,2,1,,,,,,,,,,,,,,,,,,
304977,001,2022-11-20_20h51.56.475,Info_measure_main_exp,2022.2.2,Linux x86_64,6.00240096,,,,,,,,,,,,,,,,,,masks/mask_001.jpg,,,,,,,,,,,,,,,,,,,,,,,,,,,,,,,,,,,,,,,,,,,,,,,,0,3,3,0,1,,,,,,,,,,,,,,,,,,
304977,001,2022-11-20_20h51.56.475,Info_measure_main_exp,2022.2.2,Linux x86_64,6.00240096,,,,,,,,,,,,,,,,,,masks/mask_004.jpg,,,,,,,,,,,,,,,,,,,,,,,,,,,,,,,,,,,,,,,,,,,,,,,,0,4,4,3,1,,,,,,,,,,,,,,,,,,
304977,001,2022-11-20_20h51.56.475,Info_measure_main_exp,2022.2.2,Linux x86_64,6.00240096,,,,,,,,,,,,,,,,,,,,,,,,,,,,,,1,18.5151,1,,,,,,,,,,,,0,131,5,5,2082,2238,absent_patch/patch0002082.jpg,absent_patch/patch0002238.jpg,,,,,,,,,,,,,,,,,,,,-0.128703704,0.05,1,0,0,response7disk,13,0.001851852,0.009259259,1,0,0,center_square,0,12,12,22,1
304977,001,2022-11-20_20h51.56.475,Info_measure_main_exp,2022.2.2,Linux x86_64,6.00240096,,,,,,,,,,,,,,,,,,masks/mask_004.jpg,,,,,,,,,,,,,,,,,,,,,,,,,,,,,,,,,,,,,,,,,,,0,0,0,3,1,,,,,,,,,,,,,,,,,,,,,,,
304977,001,2022-11-20_20h51.56.475,Info_measure_main_exp,2022.2.2,Linux x86_64,6.00240096,,,,,,,,,,,,,,,,,,masks/mask_001.jpg,,,,,,,,,,,,,,,,,,,,,,,,,,,,,,,,,,,,,,,,,,,0,1,1,0,1,,,,,,,,,,,,,,,,,,,,,,,
304977,001,2022-11-20_20h51.56.475,Info_measure_main_exp,2022.2.2,Linux x86_64,6.00240096,,,,,,,,,,,,,,,,,,masks/mask_002.jpg,,,,,,,,,,,,,,,,,,,,,,,,,,,,,,,,,,,,,,,,,,,0,2,2,1,1,,,,,,,,,,,,,,,,,,,,,,,
304977,001,2022-11-20_20h51.56.475,Info_measure_main_exp,2022.2.2,Linux x86_64,6.00240096,,,,,,,,,,,,,,,,,,masks/mask_003.jpg,,,,,,,,,,,,,,,,,,,,,,,,,,,,,,,,,,,,,,,,,,,0,3,3,2,1,,,,,,,,,,,,,,,,,,,,,,,
304977,001,2022-11-20_20h51.56.475,Info_measure_main_exp,2022.2.2,Linux x86_64,6.00240096,,,,,,,,,,,,,,,,,,masks/mask_005.jpg,,,,,,,,,,,,,,,,,,,,,,,,,,,,,,,,,,,,,,,,,,,0,4,4,4,1,,,,,,,,,,,,,,,,,,,,,,,
304977,001,2022-11-20_20h51.56.475,Info_measure_main_exp,2022.2.2,Linux x86_64,6.00240096,,,,,,,,,,,,,,,,,,masks/mask_001.jpg,,,,,,,,,,,,,,,,,,,,,,,,,,,,,,,,,,,,,,,,,,,,,,,,0,0,0,0,1,,,,,,,,,,,,,,,,,,
304977,001,2022-11-20_20h51.56.475,Info_measure_main_exp,2022.2.2,Linux x86_64,6.00240096,,,,,,,,,,,,,,,,,,masks/mask_004.jpg,,,,,,,,,,,,,,,,,,,,,,,,,,,,,,,,,,,,,,,,,,,,,,,,0,1,1,3,1,,,,,,,,,,,,,,,,,,
304977,001,2022-11-20_20h51.56.475,Info_measure_main_exp,2022.2.2,Linux x86_64,6.00240096,,,,,,,,,,,,,,,,,,masks/mask_002.jpg,,,,,,,,,,,,,,,,,,,,,,,,,,,,,,,,,,,,,,,,,,,,,,,,0,2,2,1,1,,,,,,,,,,,,,,,,,,
304977,001,2022-11-20_20h51.56.475,Info_measure_main_exp,2022.2.2,Linux x86_64,6.00240096,,,,,,,,,,,,,,,,,,masks/mask_005.jpg,,,,,,,,,,,,,,,,,,,,,,,,,,,,,,,,,,,,,,,,,,,,,,,,0,3,3,4,1,,,,,,,,,,,,,,,,,,
304977,001,2022-11-20_20h51.56.475,Info_measure_main_exp,2022.2.2,Linux x86_64,6.00240096,,,,,,,,,,,,,,,,,,masks/mask_003.jpg,,,,,,,,,,,,,,,,,,,,,,,,,,,,,,,,,,,,,,,,,,,,,,,,0,4,4,2,1,,,,,,,,,,,,,,,,,,
304977,001,2022-11-20_20h51.56.475,Info_measure_main_exp,2022.2.2,Linux x86_64,6.00240096,,,,,,,,,,,,,,,,,,,,,,,,,,,,,,1,1.5618,1,,,,,,,,,,,,0,131,5,5,2178,2238,absent_patch/patch0002178.jpg,absent_patch/patch0002238.jpg,,,,,,,,,,,,,,,,,,,,-0.056481481,0.012037037,1,0,0,response7disk,14,-0.002777778,-0.015740741,1,0,0,center_square,0,13,13,57,1
304977,001,2022-11-20_20h51.56.475,Info_measure_main_exp,2022.2.2,Linux x86_64,6.00240096,,,,,,,,,,,,,,,,,,masks/mask_003.jpg,,,,,,,,,,,,,,,,,,,,,,,,,,,,,,,,,,,,,,,,,,,0,0,0,2,1,,,,,,,,,,,,,,,,,,,,,,,
304977,001,2022-11-20_20h51.56.475,Info_measure_main_exp,2022.2.2,Linux x86_64,6.00240096,,,,,,,,,,,,,,,,,,masks/mask_002.jpg,,,,,,,,,,,,,,,,,,,,,,,,,,,,,,,,,,,,,,,,,,,0,1,1,1,1,,,,,,,,,,,,,,,,,,,,,,,
304977,001,2022-11-20_20h51.56.475,Info_measure_main_exp,2022.2.2,Linux x86_64,6.00240096,,,,,,,,,,,,,,,,,,masks/mask_001.jpg,,,,,,,,,,,,,,,,,,,,,,,,,,,,,,,,,,,,,,,,,,,0,2,2,0,1,,,,,,,,,,,,,,,,,,,,,,,
304977,001,2022-11-20_20h51.56.475,Info_measure_main_exp,2022.2.2,Linux x86_64,6.00240096,,,,,,,,,,,,,,,,,,masks/mask_004.jpg,,,,,,,,,,,,,,,,,,,,,,,,,,,,,,,,,,,,,,,,,,,0,3,3,3,1,,,,,,,,,,,,,,,,,,,,,,,
304977,001,2022-11-20_20h51.56.475,Info_measure_main_exp,2022.2.2,Linux x86_64,6.00240096,,,,,,,,,,,,,,,,,,masks/mask_005.jpg,,,,,,,,,,,,,,,,,,,,,,,,,,,,,,,,,,,,,,,,,,,0,4,4,4,1,,,,,,,,,,,,,,,,,,,,,,,
304977,001,2022-11-20_20h51.56.475,Info_measure_main_exp,2022.2.2,Linux x86_64,6.00240096,,,,,,,,,,,,,,,,,,masks/mask_004.jpg,,,,,,,,,,,,,,,,,,,,,,,,,,,,,,,,,,,,,,,,,,,,,,,,0,0,0,3,1,,,,,,,,,,,,,,,,,,
304977,001,2022-11-20_20h51.56.475,Info_measure_main_exp,2022.2.2,Linux x86_64,6.00240096,,,,,,,,,,,,,,,,,,masks/mask_005.jpg,,,,,,,,,,,,,,,,,,,,,,,,,,,,,,,,,,,,,,,,,,,,,,,,0,1,1,4,1,,,,,,,,,,,,,,,,,,
304977,001,2022-11-20_20h51.56.475,Info_measure_main_exp,2022.2.2,Linux x86_64,6.00240096,,,,,,,,,,,,,,,,,,masks/mask_003.jpg,,,,,,,,,,,,,,,,,,,,,,,,,,,,,,,,,,,,,,,,,,,,,,,,0,2,2,2,1,,,,,,,,,,,,,,,,,,
304977,001,2022-11-20_20h51.56.475,Info_measure_main_exp,2022.2.2,Linux x86_64,6.00240096,,,,,,,,,,,,,,,,,,masks/mask_002.jpg,,,,,,,,,,,,,,,,,,,,,,,,,,,,,,,,,,,,,,,,,,,,,,,,0,3,3,1,1,,,,,,,,,,,,,,,,,,
304977,001,2022-11-20_20h51.56.475,Info_measure_main_exp,2022.2.2,Linux x86_64,6.00240096,,,,,,,,,,,,,,,,,,masks/mask_001.jpg,,,,,,,,,,,,,,,,,,,,,,,,,,,,,,,,,,,,,,,,,,,,,,,,0,4,4,0,1,,,,,,,,,,,,,,,,,,
304977,001,2022-11-20_20h51.56.475,Info_measure_main_exp,2022.2.2,Linux x86_64,6.00240096,,,,,,,,,,,,,,,,,,,,,,,,,,,,,,1,2.5001,1,,,,,,,,,,,,0,131,5,5,2298,2178,absent_patch/patch0002298.jpg,absent_patch/patch0002178.jpg,,,,,,,,,,,,,,,,,,,,-0.055555556,0.009259259,1,0,0,response7disk,15,0.000925926,0.000925926,1,0,0,center_square,0,14,14,84,1
304977,001,2022-11-20_20h51.56.475,Info_measure_main_exp,2022.2.2,Linux x86_64,6.00240096,,,,,,,,,,,,,,,,,,masks/mask_005.jpg,,,,,,,,,,,,,,,,,,,,,,,,,,,,,,,,,,,,,,,,,,,0,0,0,4,1,,,,,,,,,,,,,,,,,,,,,,,
304977,001,2022-11-20_20h51.56.475,Info_measure_main_exp,2022.2.2,Linux x86_64,6.00240096,,,,,,,,,,,,,,,,,,masks/mask_001.jpg,,,,,,,,,,,,,,,,,,,,,,,,,,,,,,,,,,,,,,,,,,,0,1,1,0,1,,,,,,,,,,,,,,,,,,,,,,,
304977,001,2022-11-20_20h51.56.475,Info_measure_main_exp,2022.2.2,Linux x86_64,6.00240096,,,,,,,,,,,,,,,,,,masks/mask_002.jpg,,,,,,,,,,,,,,,,,,,,,,,,,,,,,,,,,,,,,,,,,,,0,2,2,1,1,,,,,,,,,,,,,,,,,,,,,,,
304977,001,2022-11-20_20h51.56.475,Info_measure_main_exp,2022.2.2,Linux x86_64,6.00240096,,,,,,,,,,,,,,,,,,masks/mask_004.jpg,,,,,,,,,,,,,,,,,,,,,,,,,,,,,,,,,,,,,,,,,,,0,3,3,3,1,,,,,,,,,,,,,,,,,,,,,,,
304977,001,2022-11-20_20h51.56.475,Info_measure_main_exp,2022.2.2,Linux x86_64,6.00240096,,,,,,,,,,,,,,,,,,masks/mask_003.jpg,,,,,,,,,,,,,,,,,,,,,,,,,,,,,,,,,,,,,,,,,,,0,4,4,2,1,,,,,,,,,,,,,,,,,,,,,,,
304977,001,2022-11-20_20h51.56.475,Info_measure_main_exp,2022.2.2,Linux x86_64,6.00240096,,,,,,,,,,,,,,,,,,masks/mask_002.jpg,,,,,,,,,,,,,,,,,,,,,,,,,,,,,,,,,,,,,,,,,,,,,,,,0,0,0,1,1,,,,,,,,,,,,,,,,,,
304977,001,2022-11-20_20h51.56.475,Info_measure_main_exp,2022.2.2,Linux x86_64,6.00240096,,,,,,,,,,,,,,,,,,masks/mask_001.jpg,,,,,,,,,,,,,,,,,,,,,,,,,,,,,,,,,,,,,,,,,,,,,,,,0,1,1,0,1,,,,,,,,,,,,,,,,,,
304977,001,2022-11-20_20h51.56.475,Info_measure_main_exp,2022.2.2,Linux x86_64,6.00240096,,,,,,,,,,,,,,,,,,masks/mask_003.jpg,,,,,,,,,,,,,,,,,,,,,,,,,,,,,,,,,,,,,,,,,,,,,,,,0,2,2,2,1,,,,,,,,,,,,,,,,,,
304977,001,2022-11-20_20h51.56.475,Info_measure_main_exp,2022.2.2,Linux x86_64,6.00240096,,,,,,,,,,,,,,,,,,masks/mask_004.jpg,,,,,,,,,,,,,,,,,,,,,,,,,,,,,,,,,,,,,,,,,,,,,,,,0,3,3,3,1,,,,,,,,,,,,,,,,,,
304977,001,2022-11-20_20h51.56.475,Info_measure_main_exp,2022.2.2,Linux x86_64,6.00240096,,,,,,,,,,,,,,,,,,masks/mask_005.jpg,,,,,,,,,,,,,,,,,,,,,,,,,,,,,,,,,,,,,,,,,,,,,,,,0,4,4,4,1,,,,,,,,,,,,,,,,,,
304977,001,2022-11-20_20h51.56.475,Info_measure_main_exp,2022.2.2,Linux x86_64,6.00240096,,,,,,,,,,,,,,,,,,,,,,,,,,,,,,1,1.4802,1,,,,,,,,,,,,0,131,5,5,2238,2298,absent_patch/patch0002238.jpg,absent_patch/patch0002298.jpg,,,,,,,,,,,,,,,,,,,,-0.088888889,0.008333333,1,0,0,response7disk,16,-0.011111111,0.000925926,1,0,0,center_square,0,15,15,51,1
304977,001,2022-11-20_20h51.56.475,Info_measure_main_exp,2022.2.2,Linux x86_64,6.00240096,,,,,,,,,,,,,,,,,,masks/mask_002.jpg,,,,,,,,,,,,,,,,,,,,,,,,,,,,,,,,,,,,,,,,,,,0,0,0,1,1,,,,,,,,,,,,,,,,,,,,,,,
304977,001,2022-11-20_20h51.56.475,Info_measure_main_exp,2022.2.2,Linux x86_64,6.00240096,,,,,,,,,,,,,,,,,,masks/mask_001.jpg,,,,,,,,,,,,,,,,,,,,,,,,,,,,,,,,,,,,,,,,,,,0,1,1,0,1,,,,,,,,,,,,,,,,,,,,,,,
304977,001,2022-11-20_20h51.56.475,Info_measure_main_exp,2022.2.2,Linux x86_64,6.00240096,,,,,,,,,,,,,,,,,,masks/mask_004.jpg,,,,,,,,,,,,,,,,,,,,,,,,,,,,,,,,,,,,,,,,,,,0,2,2,3,1,,,,,,,,,,,,,,,,,,,,,,,
304977,001,2022-11-20_20h51.56.475,Info_measure_main_exp,2022.2.2,Linux x86_64,6.00240096,,,,,,,,,,,,,,,,,,masks/mask_005.jpg,,,,,,,,,,,,,,,,,,,,,,,,,,,,,,,,,,,,,,,,,,,0,3,3,4,1,,,,,,,,,,,,,,,,,,,,,,,
304977,001,2022-11-20_20h51.56.475,Info_measure_main_exp,2022.2.2,Linux x86_64,6.00240096,,,,,,,,,,,,,,,,,,masks/mask_003.jpg,,,,,,,,,,,,,,,,,,,,,,,,,,,,,,,,,,,,,,,,,,,0,4,4,2,1,,,,,,,,,,,,,,,,,,,,,,,
304977,001,2022-11-20_20h51.56.475,Info_measure_main_exp,2022.2.2,Linux x86_64,6.00240096,,,,,,,,,,,,,,,,,,masks/mask_005.jpg,,,,,,,,,,,,,,,,,,,,,,,,,,,,,,,,,,,,,,,,,,,,,,,,0,0,0,4,1,,,,,,,,,,,,,,,,,,
304977,001,2022-11-20_20h51.56.475,Info_measure_main_exp,2022.2.2,Linux x86_64,6.00240096,,,,,,,,,,,,,,,,,,masks/mask_004.jpg,,,,,,,,,,,,,,,,,,,,,,,,,,,,,,,,,,,,,,,,,,,,,,,,0,1,1,3,1,,,,,,,,,,,,,,,,,,
304977,001,2022-11-20_20h51.56.475,Info_measure_main_exp,2022.2.2,Linux x86_64,6.00240096,,,,,,,,,,,,,,,,,,masks/mask_001.jpg,,,,,,,,,,,,,,,,,,,,,,,,,,,,,,,,,,,,,,,,,,,,,,,,0,2,2,0,1,,,,,,,,,,,,,,,,,,
304977,001,2022-11-20_20h51.56.475,Info_measure_main_exp,2022.2.2,Linux x86_64,6.00240096,,,,,,,,,,,,,,,,,,masks/mask_003.jpg,,,,,,,,,,,,,,,,,,,,,,,,,,,,,,,,,,,,,,,,,,,,,,,,0,3,3,2,1,,,,,,,,,,,,,,,,,,
304977,001,2022-11-20_20h51.56.475,Info_measure_main_exp,2022.2.2,Linux x86_64,6.00240096,,,,,,,,,,,,,,,,,,masks/mask_002.jpg,,,,,,,,,,,,,,,,,,,,,,,,,,,,,,,,,,,,,,,,,,,,,,,,0,4,4,1,1,,,,,,,,,,,,,,,,,,
