participant,session,date,expName,psychopyVersion,OS,frameRate,space_press_continue.keys,space_press_continue.rt,space_press_continue_2.keys,space_press_continue_2.rt,space_press_continue_3.keys,space_press_continue_3.rt,space_press_continue_4.keys,space_press_continue_4.rt,space_press_continue_5.keys,space_press_continue_5.rt,space_press_continue_6.keys,space_press_continue_6.rt,prac_mask_loop_1.thisRepN,prac_mask_loop_1.thisTrialN,prac_mask_loop_1.thisN,prac_mask_loop_1.thisIndex,prac_mask_loop_1.ran,mask_name,prac_mask_loop_2.thisRepN,prac_mask_loop_2.thisTrialN,prac_mask_loop_2.thisN,prac_mask_loop_2.thisIndex,prac_mask_loop_2.ran,mouse_2.x,mouse_2.y,mouse_2.leftButton,mouse_2.midButton,mouse_2.rightButton,mouse_2.clicked_name,similarity,response_time,Pass,mouse_12.x,mouse_12.y,mouse_12.leftButton,mouse_12.midButton,mouse_12.rightButton,mouse_12.clicked_name,prac_loop.thisRepN,prac_loop.thisTrialN,prac_loop.thisN,prac_loop.thisIndex,prac_loop.ran,Pair_type,Image_num,Patch_1_loc,Patch_2_loc,Patch_1_info,Patch_2_info,Patch_1_name,Patch_2_name,mouse_1.x,mouse_1.y,mouse_1.leftButton,mouse_1.midButton,mouse_1.rightButton,mouse_1.time,mouse_1.clicked_name,space_press_continue_7.keys,space_press_continue_7.rt,mask_loop.thisRepN,mask_loop.thisTrialN,mask_loop.thisN,mask_loop.thisIndex,mask_loop.ran,mask_loop_2.thisRepN,mask_loop_2.thisTrialN,mask_loop_2.thisN,mask_loop_2.thisIndex,mask_loop_2.ran,mouse.x,mouse.y,mouse.leftButton,mouse.midButton,mouse.rightButton,mouse.clicked_name,trialNumber,mouse_11.x,mouse_11.y,mouse_11.leftButton,mouse_11.midButton,mouse_11.rightButton,mouse_11.clicked_name,first_pass_loop.thisRepN,first_pass_loop.thisTrialN,first_pass_loop.thisN,first_pass_loop.thisIndex,first_pass_loop.ran,mask_loop_3.thisRepN,mask_loop_3.thisTrialN,mask_loop_3.thisN,mask_loop_3.thisIndex,mask_loop_3.ran,mask_loop_4.thisRepN,mask_loop_4.thisTrialN,mask_loop_4.thisN,mask_loop_4.thisIndex,mask_loop_4.ran,mouse_3.x,mouse_3.y,mouse_3.leftButton,mouse_3.midButton,mouse_3.rightButton,mouse_3.clicked_name,double_pass_loop.thisRepN,double_pass_loop.thisTrialN,double_pass_loop.thisN,double_pass_loop.thisIndex,double_pass_loop.ran,space_exit.keys,space_exit.rt
304903,001,2022-11-21_24h54.56.858,Info_measure_main_exp,2022.2.2,Win32,59.81576744,,,,,,,,,,,,,,,,,,,,,,,,,,,,,,,,,,,,,,,,,,,,,,,,,,,,,,,,,,,,,,,,,,,,,,,,,,,,,,,,,,,,,,,,,,,,,,,,,,,,,,,,,,,,,,,
304903,001,2022-11-21_24h54.56.858,Info_measure_main_exp,2022.2.2,Win32,59.81576744,,,,,,,,,,,,,,,,,,,,,,,,,,,,,,,,,,,,,,,,,,,,,,,,,,,,,,,,,,,,,,,,,,,,,,,,,,,,,,,,,,,,,,,,,,,,,,,,,,,,,,,,,,,,,,,
304903,001,2022-11-21_24h54.56.858,Info_measure_main_exp,2022.2.2,Win32,59.81576744,space,11.3983,,,,,,,,,,,,,,,,,,,,,,,,,,,,,,,,,,,,,,,,,,,,,,,,,,,,,,,,,,,,,,,,,,,,,,,,,,,,,,,,,,,,,,,,,,,,,,,,,,,,,,,,,,,,,
304903,001,2022-11-21_24h54.56.858,Info_measure_main_exp,2022.2.2,Win32,59.81576744,,,space,13.6248,,,,,,,,,,,,,,,,,,,,,,,,,,,,,,,,,,,,,,,,,,,,,,,,,,,,,,,,,,,,,,,,,,,,,,,,,,,,,,,,,,,,,,,,,,,,,,,,,,,,,,,,,,,
304903,001,2022-11-21_24h54.56.858,Info_measure_main_exp,2022.2.2,Win32,59.81576744,,,,,space,5.5791,,,,,,,,,,,,,,,,,,,,,,,,,,,,,,,,,,,,,,,,,,,,,,,,,,,,,,,,,,,,,,,,,,,,,,,,,,,,,,,,,,,,,,,,,,,,,,,,,,,,,,,,,
304903,001,2022-11-21_24h54.56.858,Info_measure_main_exp,2022.2.2,Win32,59.81576744,,,,,,,space,128.3294,,,,,,,,,,,,,,,,,,,,,,,,,,,,,,,,,,,,,,,,,,,,,,,,,,,,,,,,,,,,,,,,,,,,,,,,,,,,,,,,,,,,,,,,,,,,,,,,,,,,,,,
304903,001,2022-11-21_24h54.56.858,Info_measure_main_exp,2022.2.2,Win32,59.81576744,,,,,,,,,space,19.1628,,,,,,,,,,,,,,,,,,,,,,,,,,,,,,,,,,,,,,,,,,,,,,,,,,,,,,,,,,,,,,,,,,,,,,,,,,,,,,,,,,,,,,,,,,,,,,,,,,,,,
304903,001,2022-11-21_24h54.56.858,Info_measure_main_exp,2022.2.2,Win32,59.81576744,,,,,,,,,,,space,4.0765,,,,,,,,,,,,,,,,,,,,,,,,,,,,,,,,,,,,,,,,,,,,,,,,,,,,,,,,,,,,,,,,,,,,,,,,,,,,,,,,,,,,,,,,,,,,,,,,,,,
304903,001,2022-11-21_24h54.56.858,Info_measure_main_exp,2022.2.2,Win32,59.81576744,,,,,,,,,,,,,0,0,0,4,1,masks/mask_005.jpg,,,,,,,,,,,,,,,,,,,,,,,,,,,,,,,,,,,,,,,,,,,,,,,,,,,,,,,,,,,,,,,,,,,,,,,,,,,,,,,,,,,,,,,,,,,,,
304903,001,2022-11-21_24h54.56.858,Info_measure_main_exp,2022.2.2,Win32,59.81576744,,,,,,,,,,,,,0,1,1,0,1,masks/mask_001.jpg,,,,,,,,,,,,,,,,,,,,,,,,,,,,,,,,,,,,,,,,,,,,,,,,,,,,,,,,,,,,,,,,,,,,,,,,,,,,,,,,,,,,,,,,,,,,,
304903,001,2022-11-21_24h54.56.858,Info_measure_main_exp,2022.2.2,Win32,59.81576744,,,,,,,,,,,,,0,2,2,3,1,masks/mask_004.jpg,,,,,,,,,,,,,,,,,,,,,,,,,,,,,,,,,,,,,,,,,,,,,,,,,,,,,,,,,,,,,,,,,,,,,,,,,,,,,,,,,,,,,,,,,,,,,
304903,001,2022-11-21_24h54.56.858,Info_measure_main_exp,2022.2.2,Win32,59.81576744,,,,,,,,,,,,,0,3,3,2,1,masks/mask_003.jpg,,,,,,,,,,,,,,,,,,,,,,,,,,,,,,,,,,,,,,,,,,,,,,,,,,,,,,,,,,,,,,,,,,,,,,,,,,,,,,,,,,,,,,,,,,,,,
304903,001,2022-11-21_24h54.56.858,Info_measure_main_exp,2022.2.2,Win32,59.81576744,,,,,,,,,,,,,0,4,4,1,1,masks/mask_002.jpg,,,,,,,,,,,,,,,,,,,,,,,,,,,,,,,,,,,,,,,,,,,,,,,,,,,,,,,,,,,,,,,,,,,,,,,,,,,,,,,,,,,,,,,,,,,,,
304903,001,2022-11-21_24h54.56.858,Info_measure_main_exp,2022.2.2,Win32,59.81576744,,,,,,,,,,,,,,,,,,masks/mask_004.jpg,0,0,0,3,1,,,,,,,,,,,,,,,,,,,,,,,,,,,,,,,,,,,,,,,,,,,,,,,,,,,,,,,,,,,,,,,,,,,,,,,,,,,,,,,,,,,,,,,,
304903,001,2022-11-21_24h54.56.858,Info_measure_main_exp,2022.2.2,Win32,59.81576744,,,,,,,,,,,,,,,,,,masks/mask_003.jpg,0,1,1,2,1,,,,,,,,,,,,,,,,,,,,,,,,,,,,,,,,,,,,,,,,,,,,,,,,,,,,,,,,,,,,,,,,,,,,,,,,,,,,,,,,,,,,,,,,
304903,001,2022-11-21_24h54.56.858,Info_measure_main_exp,2022.2.2,Win32,59.81576744,,,,,,,,,,,,,,,,,,masks/mask_001.jpg,0,2,2,0,1,,,,,,,,,,,,,,,,,,,,,,,,,,,,,,,,,,,,,,,,,,,,,,,,,,,,,,,,,,,,,,,,,,,,,,,,,,,,,,,,,,,,,,,,
304903,001,2022-11-21_24h54.56.858,Info_measure_main_exp,2022.2.2,Win32,59.81576744,,,,,,,,,,,,,,,,,,masks/mask_005.jpg,0,3,3,4,1,,,,,,,,,,,,,,,,,,,,,,,,,,,,,,,,,,,,,,,,,,,,,,,,,,,,,,,,,,,,,,,,,,,,,,,,,,,,,,,,,,,,,,,,
304903,001,2022-11-21_24h54.56.858,Info_measure_main_exp,2022.2.2,Win32,59.81576744,,,,,,,,,,,,,,,,,,masks/mask_002.jpg,0,4,4,1,1,,,,,,,,,,,,,,,,,,,,,,,,,,,,,,,,,,,,,,,,,,,,,,,,,,,,,,,,,,,,,,,,,,,,,,,,,,,,,,,,,,,,,,,,
304903,001,2022-11-21_24h54.56.858,Info_measure_main_exp,2022.2.2,Win32,59.81576744,,,,,,,,,,,,,,,,,,,,,,,,-0.146296254,0.059259238,1,0,0,response7disk,1,187.7128,1,-0.000925912,0.00462963,1,0,0,center_square,0,0,0,2,1,0,131,5,5,2526,2526,prac_patch/patch0002526.jpg,prac_patch/patch0002526.jpg,,,,,,,,,,,,,,,,,,,,,,,,,,,,,,,,,,,,,,,,,,,,,,,,,,,,,,,,,,,,
304903,001,2022-11-21_24h54.56.858,Info_measure_main_exp,2022.2.2,Win32,59.81576744,,,,,,,,,,,,,0,0,0,1,1,masks/mask_002.jpg,,,,,,,,,,,,,,,,,,,,,,,,,,,,,,,,,,,,,,,,,,,,,,,,,,,,,,,,,,,,,,,,,,,,,,,,,,,,,,,,,,,,,,,,,,,,,
304903,001,2022-11-21_24h54.56.858,Info_measure_main_exp,2022.2.2,Win32,59.81576744,,,,,,,,,,,,,0,1,1,2,1,masks/mask_003.jpg,,,,,,,,,,,,,,,,,,,,,,,,,,,,,,,,,,,,,,,,,,,,,,,,,,,,,,,,,,,,,,,,,,,,,,,,,,,,,,,,,,,,,,,,,,,,,
304903,001,2022-11-21_24h54.56.858,Info_measure_main_exp,2022.2.2,Win32,59.81576744,,,,,,,,,,,,,0,2,2,3,1,masks/mask_004.jpg,,,,,,,,,,,,,,,,,,,,,,,,,,,,,,,,,,,,,,,,,,,,,,,,,,,,,,,,,,,,,,,,,,,,,,,,,,,,,,,,,,,,,,,,,,,,,
304903,001,2022-11-21_24h54.56.858,Info_measure_main_exp,2022.2.2,Win32,59.81576744,,,,,,,,,,,,,0,3,3,0,1,masks/mask_001.jpg,,,,,,,,,,,,,,,,,,,,,,,,,,,,,,,,,,,,,,,,,,,,,,,,,,,,,,,,,,,,,,,,,,,,,,,,,,,,,,,,,,,,,,,,,,,,,
304903,001,2022-11-21_24h54.56.858,Info_measure_main_exp,2022.2.2,Win32,59.81576744,,,,,,,,,,,,,0,4,4,4,1,masks/mask_005.jpg,,,,,,,,,,,,,,,,,,,,,,,,,,,,,,,,,,,,,,,,,,,,,,,,,,,,,,,,,,,,,,,,,,,,,,,,,,,,,,,,,,,,,,,,,,,,,
304903,001,2022-11-21_24h54.56.858,Info_measure_main_exp,2022.2.2,Win32,59.81576744,,,,,,,,,,,,,,,,,,masks/mask_003.jpg,0,0,0,2,1,,,,,,,,,,,,,,,,,,,,,,,,,,,,,,,,,,,,,,,,,,,,,,,,,,,,,,,,,,,,,,,,,,,,,,,,,,,,,,,,,,,,,,,,
304903,001,2022-11-21_24h54.56.858,Info_measure_main_exp,2022.2.2,Win32,59.81576744,,,,,,,,,,,,,,,,,,masks/mask_001.jpg,0,1,1,0,1,,,,,,,,,,,,,,,,,,,,,,,,,,,,,,,,,,,,,,,,,,,,,,,,,,,,,,,,,,,,,,,,,,,,,,,,,,,,,,,,,,,,,,,,
304903,001,2022-11-21_24h54.56.858,Info_measure_main_exp,2022.2.2,Win32,59.81576744,,,,,,,,,,,,,,,,,,masks/mask_002.jpg,0,2,2,1,1,,,,,,,,,,,,,,,,,,,,,,,,,,,,,,,,,,,,,,,,,,,,,,,,,,,,,,,,,,,,,,,,,,,,,,,,,,,,,,,,,,,,,,,,
304903,001,2022-11-21_24h54.56.858,Info_measure_main_exp,2022.2.2,Win32,59.81576744,,,,,,,,,,,,,,,,,,masks/mask_005.jpg,0,3,3,4,1,,,,,,,,,,,,,,,,,,,,,,,,,,,,,,,,,,,,,,,,,,,,,,,,,,,,,,,,,,,,,,,,,,,,,,,,,,,,,,,,,,,,,,,,
304903,001,2022-11-21_24h54.56.858,Info_measure_main_exp,2022.2.2,Win32,59.81576744,,,,,,,,,,,,,,,,,,masks/mask_004.jpg,0,4,4,3,1,,,,,,,,,,,,,,,,,,,,,,,,,,,,,,,,,,,,,,,,,,,,,,,,,,,,,,,,,,,,,,,,,,,,,,,,,,,,,,,,,,,,,,,,
304903,001,2022-11-21_24h54.56.858,Info_measure_main_exp,2022.2.2,Win32,59.81576744,,,,,,,,,,,,,,,,,,,,,,,,0.118518547,0.030555548,1,0,0,response1disk,6,204.1717,1,-0.001851824,-0.001851859,1,0,0,center_square,0,1,1,0,1,0,131,5,5,2370,2406,prac_patch/patch0002370.jpg,prac_patch/patch0002406.jpg,,,,,,,,,,,,,,,,,,,,,,,,,,,,,,,,,,,,,,,,,,,,,,,,,,,,,,,,,,,,
304903,001,2022-11-21_24h54.56.858,Info_measure_main_exp,2022.2.2,Win32,59.81576744,,,,,,,,,,,,,0,0,0,2,1,masks/mask_003.jpg,,,,,,,,,,,,,,,,,,,,,,,,,,,,,,,,,,,,,,,,,,,,,,,,,,,,,,,,,,,,,,,,,,,,,,,,,,,,,,,,,,,,,,,,,,,,,
304903,001,2022-11-21_24h54.56.858,Info_measure_main_exp,2022.2.2,Win32,59.81576744,,,,,,,,,,,,,0,1,1,1,1,masks/mask_002.jpg,,,,,,,,,,,,,,,,,,,,,,,,,,,,,,,,,,,,,,,,,,,,,,,,,,,,,,,,,,,,,,,,,,,,,,,,,,,,,,,,,,,,,,,,,,,,,
304903,001,2022-11-21_24h54.56.858,Info_measure_main_exp,2022.2.2,Win32,59.81576744,,,,,,,,,,,,,0,2,2,3,1,masks/mask_004.jpg,,,,,,,,,,,,,,,,,,,,,,,,,,,,,,,,,,,,,,,,,,,,,,,,,,,,,,,,,,,,,,,,,,,,,,,,,,,,,,,,,,,,,,,,,,,,,
304903,001,2022-11-21_24h54.56.858,Info_measure_main_exp,2022.2.2,Win32,59.81576744,,,,,,,,,,,,,0,3,3,0,1,masks/mask_001.jpg,,,,,,,,,,,,,,,,,,,,,,,,,,,,,,,,,,,,,,,,,,,,,,,,,,,,,,,,,,,,,,,,,,,,,,,,,,,,,,,,,,,,,,,,,,,,,
304903,001,2022-11-21_24h54.56.858,Info_measure_main_exp,2022.2.2,Win32,59.81576744,,,,,,,,,,,,,0,4,4,4,1,masks/mask_005.jpg,,,,,,,,,,,,,,,,,,,,,,,,,,,,,,,,,,,,,,,,,,,,,,,,,,,,,,,,,,,,,,,,,,,,,,,,,,,,,,,,,,,,,,,,,,,,,
304903,001,2022-11-21_24h54.56.858,Info_measure_main_exp,2022.2.2,Win32,59.81576744,,,,,,,,,,,,,,,,,,masks/mask_005.jpg,0,0,0,4,1,,,,,,,,,,,,,,,,,,,,,,,,,,,,,,,,,,,,,,,,,,,,,,,,,,,,,,,,,,,,,,,,,,,,,,,,,,,,,,,,,,,,,,,,
304903,001,2022-11-21_24h54.56.858,Info_measure_main_exp,2022.2.2,Win32,59.81576744,,,,,,,,,,,,,,,,,,masks/mask_003.jpg,0,1,1,2,1,,,,,,,,,,,,,,,,,,,,,,,,,,,,,,,,,,,,,,,,,,,,,,,,,,,,,,,,,,,,,,,,,,,,,,,,,,,,,,,,,,,,,,,,
304903,001,2022-11-21_24h54.56.858,Info_measure_main_exp,2022.2.2,Win32,59.81576744,,,,,,,,,,,,,,,,,,masks/mask_004.jpg,0,2,2,3,1,,,,,,,,,,,,,,,,,,,,,,,,,,,,,,,,,,,,,,,,,,,,,,,,,,,,,,,,,,,,,,,,,,,,,,,,,,,,,,,,,,,,,,,,
304903,001,2022-11-21_24h54.56.858,Info_measure_main_exp,2022.2.2,Win32,59.81576744,,,,,,,,,,,,,,,,,,masks/mask_001.jpg,0,3,3,0,1,,,,,,,,,,,,,,,,,,,,,,,,,,,,,,,,,,,,,,,,,,,,,,,,,,,,,,,,,,,,,,,,,,,,,,,,,,,,,,,,,,,,,,,,
304903,001,2022-11-21_24h54.56.858,Info_measure_main_exp,2022.2.2,Win32,59.81576744,,,,,,,,,,,,,,,,,,masks/mask_002.jpg,0,4,4,1,1,,,,,,,,,,,,,,,,,,,,,,,,,,,,,,,,,,,,,,,,,,,,,,,,,,,,,,,,,,,,,,,,,,,,,,,,,,,,,,,,,,,,,,,,
304903,001,2022-11-21_24h54.56.858,Info_measure_main_exp,2022.2.2,Win32,59.81576744,,,,,,,,,,,,,,,,,,,,,,,,0.097222222,0.033333319,1,0,0,response1disk,6,214.1767,1,0.00462963,0.001851859,1,0,0,center_square,0,2,2,1,1,0,131,5,5,2514,2490,prac_patch/patch0002514.jpg,prac_patch/patch0002490.jpg,,,,,,,,,,,,,,,,,,,,,,,,,,,,,,,,,,,,,,,,,,,,,,,,,,,,,,,,,,,,
304903,001,2022-11-21_24h54.56.858,Info_measure_main_exp,2022.2.2,Win32,59.81576744,,,,,,,,,,,,,,,,,,,,,,,,,,,,,,,,,,,,,,,,,,,,,,,,,,,,,,,,,,,space,3.0155,,,,,,,,,,,,,,,,,,,,,,,,,,,,,,,,,,,,,,,,,,,,,,,,,,,
304903,001,2022-11-21_24h54.56.858,Info_measure_main_exp,2022.2.2,Win32,59.81576744,,,,,,,,,,,,,,,,,,masks/mask_002.jpg,,,,,,,,,,,,,,,,,,,,,,,,,,,,,,,,,,,,,,,,,,,0,0,0,1,1,,,,,,,,,,,,,,,,,,,,,,,,,,,,,,,,,,,,,,,,,,,,,,
304903,001,2022-11-21_24h54.56.858,Info_measure_main_exp,2022.2.2,Win32,59.81576744,,,,,,,,,,,,,,,,,,masks/mask_004.jpg,,,,,,,,,,,,,,,,,,,,,,,,,,,,,,,,,,,,,,,,,,,0,1,1,3,1,,,,,,,,,,,,,,,,,,,,,,,,,,,,,,,,,,,,,,,,,,,,,,
304903,001,2022-11-21_24h54.56.858,Info_measure_main_exp,2022.2.2,Win32,59.81576744,,,,,,,,,,,,,,,,,,masks/mask_001.jpg,,,,,,,,,,,,,,,,,,,,,,,,,,,,,,,,,,,,,,,,,,,0,2,2,0,1,,,,,,,,,,,,,,,,,,,,,,,,,,,,,,,,,,,,,,,,,,,,,,
304903,001,2022-11-21_24h54.56.858,Info_measure_main_exp,2022.2.2,Win32,59.81576744,,,,,,,,,,,,,,,,,,masks/mask_005.jpg,,,,,,,,,,,,,,,,,,,,,,,,,,,,,,,,,,,,,,,,,,,0,3,3,4,1,,,,,,,,,,,,,,,,,,,,,,,,,,,,,,,,,,,,,,,,,,,,,,
304903,001,2022-11-21_24h54.56.858,Info_measure_main_exp,2022.2.2,Win32,59.81576744,,,,,,,,,,,,,,,,,,masks/mask_003.jpg,,,,,,,,,,,,,,,,,,,,,,,,,,,,,,,,,,,,,,,,,,,0,4,4,2,1,,,,,,,,,,,,,,,,,,,,,,,,,,,,,,,,,,,,,,,,,,,,,,
304903,001,2022-11-21_24h54.56.858,Info_measure_main_exp,2022.2.2,Win32,59.81576744,,,,,,,,,,,,,,,,,,masks/mask_001.jpg,,,,,,,,,,,,,,,,,,,,,,,,,,,,,,,,,,,,,,,,,,,,,,,,0,0,0,0,1,,,,,,,,,,,,,,,,,,,,,,,,,,,,,,,,,,,,,,,,,
304903,001,2022-11-21_24h54.56.858,Info_measure_main_exp,2022.2.2,Win32,59.81576744,,,,,,,,,,,,,,,,,,masks/mask_002.jpg,,,,,,,,,,,,,,,,,,,,,,,,,,,,,,,,,,,,,,,,,,,,,,,,0,1,1,1,1,,,,,,,,,,,,,,,,,,,,,,,,,,,,,,,,,,,,,,,,,
304903,001,2022-11-21_24h54.56.858,Info_measure_main_exp,2022.2.2,Win32,59.81576744,,,,,,,,,,,,,,,,,,masks/mask_005.jpg,,,,,,,,,,,,,,,,,,,,,,,,,,,,,,,,,,,,,,,,,,,,,,,,0,2,2,4,1,,,,,,,,,,,,,,,,,,,,,,,,,,,,,,,,,,,,,,,,,
304903,001,2022-11-21_24h54.56.858,Info_measure_main_exp,2022.2.2,Win32,59.81576744,,,,,,,,,,,,,,,,,,masks/mask_004.jpg,,,,,,,,,,,,,,,,,,,,,,,,,,,,,,,,,,,,,,,,,,,,,,,,0,3,3,3,1,,,,,,,,,,,,,,,,,,,,,,,,,,,,,,,,,,,,,,,,,
304903,001,2022-11-21_24h54.56.858,Info_measure_main_exp,2022.2.2,Win32,59.81576744,,,,,,,,,,,,,,,,,,masks/mask_003.jpg,,,,,,,,,,,,,,,,,,,,,,,,,,,,,,,,,,,,,,,,,,,,,,,,0,4,4,2,1,,,,,,,,,,,,,,,,,,,,,,,,,,,,,,,,,,,,,,,,,
304903,001,2022-11-21_24h54.56.858,Info_measure_main_exp,2022.2.2,Win32,59.81576744,,,,,,,,,,,,,,,,,,,,,,,,,,,,,,5,1.6668,1,,,,,,,,,,,,0,131,5,5,2142,2082,absent_patch/patch0002142.jpg,absent_patch/patch0002082.jpg,,,,,,,,,,,,,,,,,,,,0.079629616,-0.046296296,1,0,0,response3disk,1,0.003703718,0.006481489,1,0,0,center_square,0,0,0,88,1,,,,,,,,,,,,,,,,,,,,,,,
304903,001,2022-11-21_24h54.56.858,Info_measure_main_exp,2022.2.2,Win32,59.81576744,,,,,,,,,,,,,,,,,,masks/mask_004.jpg,,,,,,,,,,,,,,,,,,,,,,,,,,,,,,,,,,,,,,,,,,,0,0,0,3,1,,,,,,,,,,,,,,,,,,,,,,,,,,,,,,,,,,,,,,,,,,,,,,
304903,001,2022-11-21_24h54.56.858,Info_measure_main_exp,2022.2.2,Win32,59.81576744,,,,,,,,,,,,,,,,,,masks/mask_001.jpg,,,,,,,,,,,,,,,,,,,,,,,,,,,,,,,,,,,,,,,,,,,0,1,1,0,1,,,,,,,,,,,,,,,,,,,,,,,,,,,,,,,,,,,,,,,,,,,,,,
304903,001,2022-11-21_24h54.56.858,Info_measure_main_exp,2022.2.2,Win32,59.81576744,,,,,,,,,,,,,,,,,,masks/mask_005.jpg,,,,,,,,,,,,,,,,,,,,,,,,,,,,,,,,,,,,,,,,,,,0,2,2,4,1,,,,,,,,,,,,,,,,,,,,,,,,,,,,,,,,,,,,,,,,,,,,,,
304903,001,2022-11-21_24h54.56.858,Info_measure_main_exp,2022.2.2,Win32,59.81576744,,,,,,,,,,,,,,,,,,masks/mask_003.jpg,,,,,,,,,,,,,,,,,,,,,,,,,,,,,,,,,,,,,,,,,,,0,3,3,2,1,,,,,,,,,,,,,,,,,,,,,,,,,,,,,,,,,,,,,,,,,,,,,,
304903,001,2022-11-21_24h54.56.858,Info_measure_main_exp,2022.2.2,Win32,59.81576744,,,,,,,,,,,,,,,,,,masks/mask_002.jpg,,,,,,,,,,,,,,,,,,,,,,,,,,,,,,,,,,,,,,,,,,,0,4,4,1,1,,,,,,,,,,,,,,,,,,,,,,,,,,,,,,,,,,,,,,,,,,,,,,
304903,001,2022-11-21_24h54.56.858,Info_measure_main_exp,2022.2.2,Win32,59.81576744,,,,,,,,,,,,,,,,,,masks/mask_004.jpg,,,,,,,,,,,,,,,,,,,,,,,,,,,,,,,,,,,,,,,,,,,,,,,,0,0,0,3,1,,,,,,,,,,,,,,,,,,,,,,,,,,,,,,,,,,,,,,,,,
304903,001,2022-11-21_24h54.56.858,Info_measure_main_exp,2022.2.2,Win32,59.81576744,,,,,,,,,,,,,,,,,,masks/mask_001.jpg,,,,,,,,,,,,,,,,,,,,,,,,,,,,,,,,,,,,,,,,,,,,,,,,0,1,1,0,1,,,,,,,,,,,,,,,,,,,,,,,,,,,,,,,,,,,,,,,,,
304903,001,2022-11-21_24h54.56.858,Info_measure_main_exp,2022.2.2,Win32,59.81576744,,,,,,,,,,,,,,,,,,masks/mask_002.jpg,,,,,,,,,,,,,,,,,,,,,,,,,,,,,,,,,,,,,,,,,,,,,,,,0,2,2,1,1,,,,,,,,,,,,,,,,,,,,,,,,,,,,,,,,,,,,,,,,,
304903,001,2022-11-21_24h54.56.858,Info_measure_main_exp,2022.2.2,Win32,59.81576744,,,,,,,,,,,,,,,,,,masks/mask_005.jpg,,,,,,,,,,,,,,,,,,,,,,,,,,,,,,,,,,,,,,,,,,,,,,,,0,3,3,4,1,,,,,,,,,,,,,,,,,,,,,,,,,,,,,,,,,,,,,,,,,
304903,001,2022-11-21_24h54.56.858,Info_measure_main_exp,2022.2.2,Win32,59.81576744,,,,,,,,,,,,,,,,,,masks/mask_003.jpg,,,,,,,,,,,,,,,,,,,,,,,,,,,,,,,,,,,,,,,,,,,,,,,,0,4,4,2,1,,,,,,,,,,,,,,,,,,,,,,,,,,,,,,,,,,,,,,,,,
304903,001,2022-11-21_24h54.56.858,Info_measure_main_exp,2022.2.2,Win32,59.81576744,,,,,,,,,,,,,,,,,,,,,,,,,,,,,,1,2.5998,1,,,,,,,,,,,,0,131,5,5,2238,2238,absent_patch/patch0002238.jpg,absent_patch/patch0002238.jpg,,,,,,,,,,,,,,,,,,,,-0.131481453,0.062962956,1,0,0,response7disk,2,-0.000925912,-0.005555577,1,0,0,center_square,0,1,1,58,1,,,,,,,,,,,,,,,,,,,,,,,
304903,001,2022-11-21_24h54.56.858,Info_measure_main_exp,2022.2.2,Win32,59.81576744,,,,,,,,,,,,,,,,,,masks/mask_003.jpg,,,,,,,,,,,,,,,,,,,,,,,,,,,,,,,,,,,,,,,,,,,0,0,0,2,1,,,,,,,,,,,,,,,,,,,,,,,,,,,,,,,,,,,,,,,,,,,,,,
304903,001,2022-11-21_24h54.56.858,Info_measure_main_exp,2022.2.2,Win32,59.81576744,,,,,,,,,,,,,,,,,,masks/mask_004.jpg,,,,,,,,,,,,,,,,,,,,,,,,,,,,,,,,,,,,,,,,,,,0,1,1,3,1,,,,,,,,,,,,,,,,,,,,,,,,,,,,,,,,,,,,,,,,,,,,,,
304903,001,2022-11-21_24h54.56.858,Info_measure_main_exp,2022.2.2,Win32,59.81576744,,,,,,,,,,,,,,,,,,masks/mask_001.jpg,,,,,,,,,,,,,,,,,,,,,,,,,,,,,,,,,,,,,,,,,,,0,2,2,0,1,,,,,,,,,,,,,,,,,,,,,,,,,,,,,,,,,,,,,,,,,,,,,,
304903,001,2022-11-21_24h54.56.858,Info_measure_main_exp,2022.2.2,Win32,59.81576744,,,,,,,,,,,,,,,,,,masks/mask_005.jpg,,,,,,,,,,,,,,,,,,,,,,,,,,,,,,,,,,,,,,,,,,,0,3,3,4,1,,,,,,,,,,,,,,,,,,,,,,,,,,,,,,,,,,,,,,,,,,,,,,
304903,001,2022-11-21_24h54.56.858,Info_measure_main_exp,2022.2.2,Win32,59.81576744,,,,,,,,,,,,,,,,,,masks/mask_002.jpg,,,,,,,,,,,,,,,,,,,,,,,,,,,,,,,,,,,,,,,,,,,0,4,4,1,1,,,,,,,,,,,,,,,,,,,,,,,,,,,,,,,,,,,,,,,,,,,,,,
304903,001,2022-11-21_24h54.56.858,Info_measure_main_exp,2022.2.2,Win32,59.81576744,,,,,,,,,,,,,,,,,,masks/mask_001.jpg,,,,,,,,,,,,,,,,,,,,,,,,,,,,,,,,,,,,,,,,,,,,,,,,0,0,0,0,1,,,,,,,,,,,,,,,,,,,,,,,,,,,,,,,,,,,,,,,,,
304903,001,2022-11-21_24h54.56.858,Info_measure_main_exp,2022.2.2,Win32,59.81576744,,,,,,,,,,,,,,,,,,masks/mask_002.jpg,,,,,,,,,,,,,,,,,,,,,,,,,,,,,,,,,,,,,,,,,,,,,,,,0,1,1,1,1,,,,,,,,,,,,,,,,,,,,,,,,,,,,,,,,,,,,,,,,,
304903,001,2022-11-21_24h54.56.858,Info_measure_main_exp,2022.2.2,Win32,59.81576744,,,,,,,,,,,,,,,,,,masks/mask_003.jpg,,,,,,,,,,,,,,,,,,,,,,,,,,,,,,,,,,,,,,,,,,,,,,,,0,2,2,2,1,,,,,,,,,,,,,,,,,,,,,,,,,,,,,,,,,,,,,,,,,
304903,001,2022-11-21_24h54.56.858,Info_measure_main_exp,2022.2.2,Win32,59.81576744,,,,,,,,,,,,,,,,,,masks/mask_005.jpg,,,,,,,,,,,,,,,,,,,,,,,,,,,,,,,,,,,,,,,,,,,,,,,,0,3,3,4,1,,,,,,,,,,,,,,,,,,,,,,,,,,,,,,,,,,,,,,,,,
304903,001,2022-11-21_24h54.56.858,Info_measure_main_exp,2022.2.2,Win32,59.81576744,,,,,,,,,,,,,,,,,,masks/mask_004.jpg,,,,,,,,,,,,,,,,,,,,,,,,,,,,,,,,,,,,,,,,,,,,,,,,0,4,4,3,1,,,,,,,,,,,,,,,,,,,,,,,,,,,,,,,,,,,,,,,,,
304903,001,2022-11-21_24h54.56.858,Info_measure_main_exp,2022.2.2,Win32,59.81576744,,,,,,,,,,,,,,,,,,,,,,,,,,,,,,7,0.7222,1,,,,,,,,,,,,0,131,5,5,2154,2250,absent_patch/patch0002154.jpg,absent_patch/patch0002250.jpg,,,,,,,,,,,,,,,,,,,,0.039814843,0.103703711,1,0,0,response1disk,3,0.005555541,-0.000925947,1,0,0,center_square,0,2,2,108,1,,,,,,,,,,,,,,,,,,,,,,,
304903,001,2022-11-21_24h54.56.858,Info_measure_main_exp,2022.2.2,Win32,59.81576744,,,,,,,,,,,,,,,,,,masks/mask_001.jpg,,,,,,,,,,,,,,,,,,,,,,,,,,,,,,,,,,,,,,,,,,,0,0,0,0,1,,,,,,,,,,,,,,,,,,,,,,,,,,,,,,,,,,,,,,,,,,,,,,
304903,001,2022-11-21_24h54.56.858,Info_measure_main_exp,2022.2.2,Win32,59.81576744,,,,,,,,,,,,,,,,,,masks/mask_003.jpg,,,,,,,,,,,,,,,,,,,,,,,,,,,,,,,,,,,,,,,,,,,0,1,1,2,1,,,,,,,,,,,,,,,,,,,,,,,,,,,,,,,,,,,,,,,,,,,,,,
304903,001,2022-11-21_24h54.56.858,Info_measure_main_exp,2022.2.2,Win32,59.81576744,,,,,,,,,,,,,,,,,,masks/mask_004.jpg,,,,,,,,,,,,,,,,,,,,,,,,,,,,,,,,,,,,,,,,,,,0,2,2,3,1,,,,,,,,,,,,,,,,,,,,,,,,,,,,,,,,,,,,,,,,,,,,,,
304903,001,2022-11-21_24h54.56.858,Info_measure_main_exp,2022.2.2,Win32,59.81576744,,,,,,,,,,,,,,,,,,masks/mask_005.jpg,,,,,,,,,,,,,,,,,,,,,,,,,,,,,,,,,,,,,,,,,,,0,3,3,4,1,,,,,,,,,,,,,,,,,,,,,,,,,,,,,,,,,,,,,,,,,,,,,,
304903,001,2022-11-21_24h54.56.858,Info_measure_main_exp,2022.2.2,Win32,59.81576744,,,,,,,,,,,,,,,,,,masks/mask_002.jpg,,,,,,,,,,,,,,,,,,,,,,,,,,,,,,,,,,,,,,,,,,,0,4,4,1,1,,,,,,,,,,,,,,,,,,,,,,,,,,,,,,,,,,,,,,,,,,,,,,
304903,001,2022-11-21_24h54.56.858,Info_measure_main_exp,2022.2.2,Win32,59.81576744,,,,,,,,,,,,,,,,,,masks/mask_004.jpg,,,,,,,,,,,,,,,,,,,,,,,,,,,,,,,,,,,,,,,,,,,,,,,,0,0,0,3,1,,,,,,,,,,,,,,,,,,,,,,,,,,,,,,,,,,,,,,,,,
304903,001,2022-11-21_24h54.56.858,Info_measure_main_exp,2022.2.2,Win32,59.81576744,,,,,,,,,,,,,,,,,,masks/mask_002.jpg,,,,,,,,,,,,,,,,,,,,,,,,,,,,,,,,,,,,,,,,,,,,,,,,0,1,1,1,1,,,,,,,,,,,,,,,,,,,,,,,,,,,,,,,,,,,,,,,,,
304903,001,2022-11-21_24h54.56.858,Info_measure_main_exp,2022.2.2,Win32,59.81576744,,,,,,,,,,,,,,,,,,masks/mask_001.jpg,,,,,,,,,,,,,,,,,,,,,,,,,,,,,,,,,,,,,,,,,,,,,,,,0,2,2,0,1,,,,,,,,,,,,,,,,,,,,,,,,,,,,,,,,,,,,,,,,,
304903,001,2022-11-21_24h54.56.858,Info_measure_main_exp,2022.2.2,Win32,59.81576744,,,,,,,,,,,,,,,,,,masks/mask_005.jpg,,,,,,,,,,,,,,,,,,,,,,,,,,,,,,,,,,,,,,,,,,,,,,,,0,3,3,4,1,,,,,,,,,,,,,,,,,,,,,,,,,,,,,,,,,,,,,,,,,
304903,001,2022-11-21_24h54.56.858,Info_measure_main_exp,2022.2.2,Win32,59.81576744,,,,,,,,,,,,,,,,,,masks/mask_003.jpg,,,,,,,,,,,,,,,,,,,,,,,,,,,,,,,,,,,,,,,,,,,,,,,,0,4,4,2,1,,,,,,,,,,,,,,,,,,,,,,,,,,,,,,,,,,,,,,,,,
304903,001,2022-11-21_24h54.56.858,Info_measure_main_exp,2022.2.2,Win32,59.81576744,,,,,,,,,,,,,,,,,,,,,,,,,,,,,,1,0.7173,1,,,,,,,,,,,,0,131,5,5,2274,2274,absent_patch/patch0002274.jpg,absent_patch/patch0002274.jpg,,,,,,,,,,,,,,,,,,,,-0.098148134,0.056481467,1,0,0,response7disk,4,0.003703718,0.000925912,1,0,0,center_square,0,3,3,114,1,,,,,,,,,,,,,,,,,,,,,,,
304903,001,2022-11-21_24h54.56.858,Info_measure_main_exp,2022.2.2,Win32,59.81576744,,,,,,,,,,,,,,,,,,masks/mask_001.jpg,,,,,,,,,,,,,,,,,,,,,,,,,,,,,,,,,,,,,,,,,,,0,0,0,0,1,,,,,,,,,,,,,,,,,,,,,,,,,,,,,,,,,,,,,,,,,,,,,,
304903,001,2022-11-21_24h54.56.858,Info_measure_main_exp,2022.2.2,Win32,59.81576744,,,,,,,,,,,,,,,,,,masks/mask_003.jpg,,,,,,,,,,,,,,,,,,,,,,,,,,,,,,,,,,,,,,,,,,,0,1,1,2,1,,,,,,,,,,,,,,,,,,,,,,,,,,,,,,,,,,,,,,,,,,,,,,
304903,001,2022-11-21_24h54.56.858,Info_measure_main_exp,2022.2.2,Win32,59.81576744,,,,,,,,,,,,,,,,,,masks/mask_002.jpg,,,,,,,,,,,,,,,,,,,,,,,,,,,,,,,,,,,,,,,,,,,0,2,2,1,1,,,,,,,,,,,,,,,,,,,,,,,,,,,,,,,,,,,,,,,,,,,,,,
304903,001,2022-11-21_24h54.56.858,Info_measure_main_exp,2022.2.2,Win32,59.81576744,,,,,,,,,,,,,,,,,,masks/mask_004.jpg,,,,,,,,,,,,,,,,,,,,,,,,,,,,,,,,,,,,,,,,,,,0,3,3,3,1,,,,,,,,,,,,,,,,,,,,,,,,,,,,,,,,,,,,,,,,,,,,,,
304903,001,2022-11-21_24h54.56.858,Info_measure_main_exp,2022.2.2,Win32,59.81576744,,,,,,,,,,,,,,,,,,masks/mask_005.jpg,,,,,,,,,,,,,,,,,,,,,,,,,,,,,,,,,,,,,,,,,,,0,4,4,4,1,,,,,,,,,,,,,,,,,,,,,,,,,,,,,,,,,,,,,,,,,,,,,,
304903,001,2022-11-21_24h54.56.858,Info_measure_main_exp,2022.2.2,Win32,59.81576744,,,,,,,,,,,,,,,,,,masks/mask_001.jpg,,,,,,,,,,,,,,,,,,,,,,,,,,,,,,,,,,,,,,,,,,,,,,,,0,0,0,0,1,,,,,,,,,,,,,,,,,,,,,,,,,,,,,,,,,,,,,,,,,
304903,001,2022-11-21_24h54.56.858,Info_measure_main_exp,2022.2.2,Win32,59.81576744,,,,,,,,,,,,,,,,,,masks/mask_004.jpg,,,,,,,,,,,,,,,,,,,,,,,,,,,,,,,,,,,,,,,,,,,,,,,,0,1,1,3,1,,,,,,,,,,,,,,,,,,,,,,,,,,,,,,,,,,,,,,,,,
304903,001,2022-11-21_24h54.56.858,Info_measure_main_exp,2022.2.2,Win32,59.81576744,,,,,,,,,,,,,,,,,,masks/mask_005.jpg,,,,,,,,,,,,,,,,,,,,,,,,,,,,,,,,,,,,,,,,,,,,,,,,0,2,2,4,1,,,,,,,,,,,,,,,,,,,,,,,,,,,,,,,,,,,,,,,,,
304903,001,2022-11-21_24h54.56.858,Info_measure_main_exp,2022.2.2,Win32,59.81576744,,,,,,,,,,,,,,,,,,masks/mask_003.jpg,,,,,,,,,,,,,,,,,,,,,,,,,,,,,,,,,,,,,,,,,,,,,,,,0,3,3,2,1,,,,,,,,,,,,,,,,,,,,,,,,,,,,,,,,,,,,,,,,,
304903,001,2022-11-21_24h54.56.858,Info_measure_main_exp,2022.2.2,Win32,59.81576744,,,,,,,,,,,,,,,,,,masks/mask_002.jpg,,,,,,,,,,,,,,,,,,,,,,,,,,,,,,,,,,,,,,,,,,,,,,,,0,4,4,1,1,,,,,,,,,,,,,,,,,,,,,,,,,,,,,,,,,,,,,,,,,
304903,001,2022-11-21_24h54.56.858,Info_measure_main_exp,2022.2.2,Win32,59.81576744,,,,,,,,,,,,,,,,,,,,,,,,,,,,,,6,1.0496,1,,,,,,,,,,,,0,131,5,5,2274,2082,absent_patch/patch0002274.jpg,absent_patch/patch0002082.jpg,,,,,,,,,,,,,,,,,,,,0.117592635,0.04074072,1,0,0,response1disk,5,0.007407436,0.00462963,1,0,0,center_square,0,4,4,100,1,,,,,,,,,,,,,,,,,,,,,,,
304903,001,2022-11-21_24h54.56.858,Info_measure_main_exp,2022.2.2,Win32,59.81576744,,,,,,,,,,,,,,,,,,masks/mask_005.jpg,,,,,,,,,,,,,,,,,,,,,,,,,,,,,,,,,,,,,,,,,,,0,0,0,4,1,,,,,,,,,,,,,,,,,,,,,,,,,,,,,,,,,,,,,,,,,,,,,,
304903,001,2022-11-21_24h54.56.858,Info_measure_main_exp,2022.2.2,Win32,59.81576744,,,,,,,,,,,,,,,,,,masks/mask_004.jpg,,,,,,,,,,,,,,,,,,,,,,,,,,,,,,,,,,,,,,,,,,,0,1,1,3,1,,,,,,,,,,,,,,,,,,,,,,,,,,,,,,,,,,,,,,,,,,,,,,
304903,001,2022-11-21_24h54.56.858,Info_measure_main_exp,2022.2.2,Win32,59.81576744,,,,,,,,,,,,,,,,,,masks/mask_003.jpg,,,,,,,,,,,,,,,,,,,,,,,,,,,,,,,,,,,,,,,,,,,0,2,2,2,1,,,,,,,,,,,,,,,,,,,,,,,,,,,,,,,,,,,,,,,,,,,,,,
304903,001,2022-11-21_24h54.56.858,Info_measure_main_exp,2022.2.2,Win32,59.81576744,,,,,,,,,,,,,,,,,,masks/mask_002.jpg,,,,,,,,,,,,,,,,,,,,,,,,,,,,,,,,,,,,,,,,,,,0,3,3,1,1,,,,,,,,,,,,,,,,,,,,,,,,,,,,,,,,,,,,,,,,,,,,,,
304903,001,2022-11-21_24h54.56.858,Info_measure_main_exp,2022.2.2,Win32,59.81576744,,,,,,,,,,,,,,,,,,masks/mask_001.jpg,,,,,,,,,,,,,,,,,,,,,,,,,,,,,,,,,,,,,,,,,,,0,4,4,0,1,,,,,,,,,,,,,,,,,,,,,,,,,,,,,,,,,,,,,,,,,,,,,,
304903,001,2022-11-21_24h54.56.858,Info_measure_main_exp,2022.2.2,Win32,59.81576744,,,,,,,,,,,,,,,,,,masks/mask_001.jpg,,,,,,,,,,,,,,,,,,,,,,,,,,,,,,,,,,,,,,,,,,,,,,,,0,0,0,0,1,,,,,,,,,,,,,,,,,,,,,,,,,,,,,,,,,,,,,,,,,
304903,001,2022-11-21_24h54.56.858,Info_measure_main_exp,2022.2.2,Win32,59.81576744,,,,,,,,,,,,,,,,,,masks/mask_005.jpg,,,,,,,,,,,,,,,,,,,,,,,,,,,,,,,,,,,,,,,,,,,,,,,,0,1,1,4,1,,,,,,,,,,,,,,,,,,,,,,,,,,,,,,,,,,,,,,,,,
304903,001,2022-11-21_24h54.56.858,Info_measure_main_exp,2022.2.2,Win32,59.81576744,,,,,,,,,,,,,,,,,,masks/mask_003.jpg,,,,,,,,,,,,,,,,,,,,,,,,,,,,,,,,,,,,,,,,,,,,,,,,0,2,2,2,1,,,,,,,,,,,,,,,,,,,,,,,,,,,,,,,,,,,,,,,,,
304903,001,2022-11-21_24h54.56.858,Info_measure_main_exp,2022.2.2,Win32,59.81576744,,,,,,,,,,,,,,,,,,masks/mask_004.jpg,,,,,,,,,,,,,,,,,,,,,,,,,,,,,,,,,,,,,,,,,,,,,,,,0,3,3,3,1,,,,,,,,,,,,,,,,,,,,,,,,,,,,,,,,,,,,,,,,,
304903,001,2022-11-21_24h54.56.858,Info_measure_main_exp,2022.2.2,Win32,59.81576744,,,,,,,,,,,,,,,,,,masks/mask_002.jpg,,,,,,,,,,,,,,,,,,,,,,,,,,,,,,,,,,,,,,,,,,,,,,,,0,4,4,1,1,,,,,,,,,,,,,,,,,,,,,,,,,,,,,,,,,,,,,,,,,
304903,001,2022-11-21_24h54.56.858,Info_measure_main_exp,2022.2.2,Win32,59.81576744,,,,,,,,,,,,,,,,,,,,,,,,,,,,,,7,0.8504,1,,,,,,,,,,,,0,131,5,5,1986,2238,absent_patch/patch0001986.jpg,absent_patch/patch0002238.jpg,,,,,,,,,,,,,,,,,,,,0.092592593,0.115740741,1,0,0,response1disk,6,0.009259259,-0.000925947,1,0,0,center_square,0,5,5,31,1,,,,,,,,,,,,,,,,,,,,,,,
304903,001,2022-11-21_24h54.56.858,Info_measure_main_exp,2022.2.2,Win32,59.81576744,,,,,,,,,,,,,,,,,,masks/mask_002.jpg,,,,,,,,,,,,,,,,,,,,,,,,,,,,,,,,,,,,,,,,,,,0,0,0,1,1,,,,,,,,,,,,,,,,,,,,,,,,,,,,,,,,,,,,,,,,,,,,,,
304903,001,2022-11-21_24h54.56.858,Info_measure_main_exp,2022.2.2,Win32,59.81576744,,,,,,,,,,,,,,,,,,masks/mask_004.jpg,,,,,,,,,,,,,,,,,,,,,,,,,,,,,,,,,,,,,,,,,,,0,1,1,3,1,,,,,,,,,,,,,,,,,,,,,,,,,,,,,,,,,,,,,,,,,,,,,,
304903,001,2022-11-21_24h54.56.858,Info_measure_main_exp,2022.2.2,Win32,59.81576744,,,,,,,,,,,,,,,,,,masks/mask_003.jpg,,,,,,,,,,,,,,,,,,,,,,,,,,,,,,,,,,,,,,,,,,,0,2,2,2,1,,,,,,,,,,,,,,,,,,,,,,,,,,,,,,,,,,,,,,,,,,,,,,
304903,001,2022-11-21_24h54.56.858,Info_measure_main_exp,2022.2.2,Win32,59.81576744,,,,,,,,,,,,,,,,,,masks/mask_005.jpg,,,,,,,,,,,,,,,,,,,,,,,,,,,,,,,,,,,,,,,,,,,0,3,3,4,1,,,,,,,,,,,,,,,,,,,,,,,,,,,,,,,,,,,,,,,,,,,,,,
304903,001,2022-11-21_24h54.56.858,Info_measure_main_exp,2022.2.2,Win32,59.81576744,,,,,,,,,,,,,,,,,,masks/mask_001.jpg,,,,,,,,,,,,,,,,,,,,,,,,,,,,,,,,,,,,,,,,,,,0,4,4,0,1,,,,,,,,,,,,,,,,,,,,,,,,,,,,,,,,,,,,,,,,,,,,,,
304903,001,2022-11-21_24h54.56.858,Info_measure_main_exp,2022.2.2,Win32,59.81576744,,,,,,,,,,,,,,,,,,masks/mask_004.jpg,,,,,,,,,,,,,,,,,,,,,,,,,,,,,,,,,,,,,,,,,,,,,,,,0,0,0,3,1,,,,,,,,,,,,,,,,,,,,,,,,,,,,,,,,,,,,,,,,,
304903,001,2022-11-21_24h54.56.858,Info_measure_main_exp,2022.2.2,Win32,59.81576744,,,,,,,,,,,,,,,,,,masks/mask_003.jpg,,,,,,,,,,,,,,,,,,,,,,,,,,,,,,,,,,,,,,,,,,,,,,,,0,1,1,2,1,,,,,,,,,,,,,,,,,,,,,,,,,,,,,,,,,,,,,,,,,
304903,001,2022-11-21_24h54.56.858,Info_measure_main_exp,2022.2.2,Win32,59.81576744,,,,,,,,,,,,,,,,,,masks/mask_005.jpg,,,,,,,,,,,,,,,,,,,,,,,,,,,,,,,,,,,,,,,,,,,,,,,,0,2,2,4,1,,,,,,,,,,,,,,,,,,,,,,,,,,,,,,,,,,,,,,,,,
304903,001,2022-11-21_24h54.56.858,Info_measure_main_exp,2022.2.2,Win32,59.81576744,,,,,,,,,,,,,,,,,,masks/mask_002.jpg,,,,,,,,,,,,,,,,,,,,,,,,,,,,,,,,,,,,,,,,,,,,,,,,0,3,3,1,1,,,,,,,,,,,,,,,,,,,,,,,,,,,,,,,,,,,,,,,,,
304903,001,2022-11-21_24h54.56.858,Info_measure_main_exp,2022.2.2,Win32,59.81576744,,,,,,,,,,,,,,,,,,masks/mask_001.jpg,,,,,,,,,,,,,,,,,,,,,,,,,,,,,,,,,,,,,,,,,,,,,,,,0,4,4,0,1,,,,,,,,,,,,,,,,,,,,,,,,,,,,,,,,,,,,,,,,,
304903,001,2022-11-21_24h54.56.858,Info_measure_main_exp,2022.2.2,Win32,59.81576744,,,,,,,,,,,,,,,,,,,,,,,,,,,,,,7,0.7518,1,,,,,,,,,,,,0,131,5,5,2190,1950,absent_patch/patch0002190.jpg,absent_patch/patch0001950.jpg,,,,,,,,,,,,,,,,,,,,0.067592621,0.14166666,1,0,0,response1disk,7,-0.002777735,-0.00462963,1,0,0,center_square,0,6,6,73,1,,,,,,,,,,,,,,,,,,,,,,,
304903,001,2022-11-21_24h54.56.858,Info_measure_main_exp,2022.2.2,Win32,59.81576744,,,,,,,,,,,,,,,,,,masks/mask_001.jpg,,,,,,,,,,,,,,,,,,,,,,,,,,,,,,,,,,,,,,,,,,,0,0,0,0,1,,,,,,,,,,,,,,,,,,,,,,,,,,,,,,,,,,,,,,,,,,,,,,
304903,001,2022-11-21_24h54.56.858,Info_measure_main_exp,2022.2.2,Win32,59.81576744,,,,,,,,,,,,,,,,,,masks/mask_005.jpg,,,,,,,,,,,,,,,,,,,,,,,,,,,,,,,,,,,,,,,,,,,0,1,1,4,1,,,,,,,,,,,,,,,,,,,,,,,,,,,,,,,,,,,,,,,,,,,,,,
304903,001,2022-11-21_24h54.56.858,Info_measure_main_exp,2022.2.2,Win32,59.81576744,,,,,,,,,,,,,,,,,,masks/mask_002.jpg,,,,,,,,,,,,,,,,,,,,,,,,,,,,,,,,,,,,,,,,,,,0,2,2,1,1,,,,,,,,,,,,,,,,,,,,,,,,,,,,,,,,,,,,,,,,,,,,,,
304903,001,2022-11-21_24h54.56.858,Info_measure_main_exp,2022.2.2,Win32,59.81576744,,,,,,,,,,,,,,,,,,masks/mask_004.jpg,,,,,,,,,,,,,,,,,,,,,,,,,,,,,,,,,,,,,,,,,,,0,3,3,3,1,,,,,,,,,,,,,,,,,,,,,,,,,,,,,,,,,,,,,,,,,,,,,,
304903,001,2022-11-21_24h54.56.858,Info_measure_main_exp,2022.2.2,Win32,59.81576744,,,,,,,,,,,,,,,,,,masks/mask_003.jpg,,,,,,,,,,,,,,,,,,,,,,,,,,,,,,,,,,,,,,,,,,,0,4,4,2,1,,,,,,,,,,,,,,,,,,,,,,,,,,,,,,,,,,,,,,,,,,,,,,
304903,001,2022-11-21_24h54.56.858,Info_measure_main_exp,2022.2.2,Win32,59.81576744,,,,,,,,,,,,,,,,,,masks/mask_005.jpg,,,,,,,,,,,,,,,,,,,,,,,,,,,,,,,,,,,,,,,,,,,,,,,,0,0,0,4,1,,,,,,,,,,,,,,,,,,,,,,,,,,,,,,,,,,,,,,,,,
304903,001,2022-11-21_24h54.56.858,Info_measure_main_exp,2022.2.2,Win32,59.81576744,,,,,,,,,,,,,,,,,,masks/mask_002.jpg,,,,,,,,,,,,,,,,,,,,,,,,,,,,,,,,,,,,,,,,,,,,,,,,0,1,1,1,1,,,,,,,,,,,,,,,,,,,,,,,,,,,,,,,,,,,,,,,,,
304903,001,2022-11-21_24h54.56.858,Info_measure_main_exp,2022.2.2,Win32,59.81576744,,,,,,,,,,,,,,,,,,masks/mask_004.jpg,,,,,,,,,,,,,,,,,,,,,,,,,,,,,,,,,,,,,,,,,,,,,,,,0,2,2,3,1,,,,,,,,,,,,,,,,,,,,,,,,,,,,,,,,,,,,,,,,,
304903,001,2022-11-21_24h54.56.858,Info_measure_main_exp,2022.2.2,Win32,59.81576744,,,,,,,,,,,,,,,,,,masks/mask_003.jpg,,,,,,,,,,,,,,,,,,,,,,,,,,,,,,,,,,,,,,,,,,,,,,,,0,3,3,2,1,,,,,,,,,,,,,,,,,,,,,,,,,,,,,,,,,,,,,,,,,
304903,001,2022-11-21_24h54.56.858,Info_measure_main_exp,2022.2.2,Win32,59.81576744,,,,,,,,,,,,,,,,,,masks/mask_001.jpg,,,,,,,,,,,,,,,,,,,,,,,,,,,,,,,,,,,,,,,,,,,,,,,,0,4,4,0,1,,,,,,,,,,,,,,,,,,,,,,,,,,,,,,,,,,,,,,,,,
304903,001,2022-11-21_24h54.56.858,Info_measure_main_exp,2022.2.2,Win32,59.81576744,,,,,,,,,,,,,,,,,,,,,,,,,,,,,,7,0.8494,1,,,,,,,,,,,,0,131,5,5,2166,2298,absent_patch/patch0002166.jpg,absent_patch/patch0002298.jpg,,,,,,,,,,,,,,,,,,,,0.038888931,0.136111118,1,0,0,response1disk,8,0.001851894,-0.0074074,1,0,0,center_square,0,7,7,52,1,,,,,,,,,,,,,,,,,,,,,,,
304903,001,2022-11-21_24h54.56.858,Info_measure_main_exp,2022.2.2,Win32,59.81576744,,,,,,,,,,,,,,,,,,masks/mask_003.jpg,,,,,,,,,,,,,,,,,,,,,,,,,,,,,,,,,,,,,,,,,,,0,0,0,2,1,,,,,,,,,,,,,,,,,,,,,,,,,,,,,,,,,,,,,,,,,,,,,,
304903,001,2022-11-21_24h54.56.858,Info_measure_main_exp,2022.2.2,Win32,59.81576744,,,,,,,,,,,,,,,,,,masks/mask_004.jpg,,,,,,,,,,,,,,,,,,,,,,,,,,,,,,,,,,,,,,,,,,,0,1,1,3,1,,,,,,,,,,,,,,,,,,,,,,,,,,,,,,,,,,,,,,,,,,,,,,
304903,001,2022-11-21_24h54.56.858,Info_measure_main_exp,2022.2.2,Win32,59.81576744,,,,,,,,,,,,,,,,,,masks/mask_002.jpg,,,,,,,,,,,,,,,,,,,,,,,,,,,,,,,,,,,,,,,,,,,0,2,2,1,1,,,,,,,,,,,,,,,,,,,,,,,,,,,,,,,,,,,,,,,,,,,,,,
304903,001,2022-11-21_24h54.56.858,Info_measure_main_exp,2022.2.2,Win32,59.81576744,,,,,,,,,,,,,,,,,,masks/mask_001.jpg,,,,,,,,,,,,,,,,,,,,,,,,,,,,,,,,,,,,,,,,,,,0,3,3,0,1,,,,,,,,,,,,,,,,,,,,,,,,,,,,,,,,,,,,,,,,,,,,,,
304903,001,2022-11-21_24h54.56.858,Info_measure_main_exp,2022.2.2,Win32,59.81576744,,,,,,,,,,,,,,,,,,masks/mask_005.jpg,,,,,,,,,,,,,,,,,,,,,,,,,,,,,,,,,,,,,,,,,,,0,4,4,4,1,,,,,,,,,,,,,,,,,,,,,,,,,,,,,,,,,,,,,,,,,,,,,,
304903,001,2022-11-21_24h54.56.858,Info_measure_main_exp,2022.2.2,Win32,59.81576744,,,,,,,,,,,,,,,,,,masks/mask_005.jpg,,,,,,,,,,,,,,,,,,,,,,,,,,,,,,,,,,,,,,,,,,,,,,,,0,0,0,4,1,,,,,,,,,,,,,,,,,,,,,,,,,,,,,,,,,,,,,,,,,
304903,001,2022-11-21_24h54.56.858,Info_measure_main_exp,2022.2.2,Win32,59.81576744,,,,,,,,,,,,,,,,,,masks/mask_001.jpg,,,,,,,,,,,,,,,,,,,,,,,,,,,,,,,,,,,,,,,,,,,,,,,,0,1,1,0,1,,,,,,,,,,,,,,,,,,,,,,,,,,,,,,,,,,,,,,,,,
304903,001,2022-11-21_24h54.56.858,Info_measure_main_exp,2022.2.2,Win32,59.81576744,,,,,,,,,,,,,,,,,,masks/mask_003.jpg,,,,,,,,,,,,,,,,,,,,,,,,,,,,,,,,,,,,,,,,,,,,,,,,0,2,2,2,1,,,,,,,,,,,,,,,,,,,,,,,,,,,,,,,,,,,,,,,,,
304903,001,2022-11-21_24h54.56.858,Info_measure_main_exp,2022.2.2,Win32,59.81576744,,,,,,,,,,,,,,,,,,masks/mask_004.jpg,,,,,,,,,,,,,,,,,,,,,,,,,,,,,,,,,,,,,,,,,,,,,,,,0,3,3,3,1,,,,,,,,,,,,,,,,,,,,,,,,,,,,,,,,,,,,,,,,,
304903,001,2022-11-21_24h54.56.858,Info_measure_main_exp,2022.2.2,Win32,59.81576744,,,,,,,,,,,,,,,,,,masks/mask_002.jpg,,,,,,,,,,,,,,,,,,,,,,,,,,,,,,,,,,,,,,,,,,,,,,,,0,4,4,1,1,,,,,,,,,,,,,,,,,,,,,,,,,,,,,,,,,,,,,,,,,
304903,001,2022-11-21_24h54.56.858,Info_measure_main_exp,2022.2.2,Win32,59.81576744,,,,,,,,,,,,,,,,,,,,,,,,,,,,,,7,0.7667,1,,,,,,,,,,,,0,131,5,5,2190,2214,absent_patch/patch0002190.jpg,absent_patch/patch0002214.jpg,,,,,,,,,,,,,,,,,,,,0.08148151,0.154629637,1,0,0,response1disk,9,0.00462963,-0.002777771,1,0,0,center_square,0,8,8,35,1,,,,,,,,,,,,,,,,,,,,,,,
304903,001,2022-11-21_24h54.56.858,Info_measure_main_exp,2022.2.2,Win32,59.81576744,,,,,,,,,,,,,,,,,,masks/mask_005.jpg,,,,,,,,,,,,,,,,,,,,,,,,,,,,,,,,,,,,,,,,,,,0,0,0,4,1,,,,,,,,,,,,,,,,,,,,,,,,,,,,,,,,,,,,,,,,,,,,,,
304903,001,2022-11-21_24h54.56.858,Info_measure_main_exp,2022.2.2,Win32,59.81576744,,,,,,,,,,,,,,,,,,masks/mask_003.jpg,,,,,,,,,,,,,,,,,,,,,,,,,,,,,,,,,,,,,,,,,,,0,1,1,2,1,,,,,,,,,,,,,,,,,,,,,,,,,,,,,,,,,,,,,,,,,,,,,,
304903,001,2022-11-21_24h54.56.858,Info_measure_main_exp,2022.2.2,Win32,59.81576744,,,,,,,,,,,,,,,,,,masks/mask_004.jpg,,,,,,,,,,,,,,,,,,,,,,,,,,,,,,,,,,,,,,,,,,,0,2,2,3,1,,,,,,,,,,,,,,,,,,,,,,,,,,,,,,,,,,,,,,,,,,,,,,
304903,001,2022-11-21_24h54.56.858,Info_measure_main_exp,2022.2.2,Win32,59.81576744,,,,,,,,,,,,,,,,,,masks/mask_001.jpg,,,,,,,,,,,,,,,,,,,,,,,,,,,,,,,,,,,,,,,,,,,0,3,3,0,1,,,,,,,,,,,,,,,,,,,,,,,,,,,,,,,,,,,,,,,,,,,,,,
304903,001,2022-11-21_24h54.56.858,Info_measure_main_exp,2022.2.2,Win32,59.81576744,,,,,,,,,,,,,,,,,,masks/mask_002.jpg,,,,,,,,,,,,,,,,,,,,,,,,,,,,,,,,,,,,,,,,,,,0,4,4,1,1,,,,,,,,,,,,,,,,,,,,,,,,,,,,,,,,,,,,,,,,,,,,,,
304903,001,2022-11-21_24h54.56.858,Info_measure_main_exp,2022.2.2,Win32,59.81576744,,,,,,,,,,,,,,,,,,masks/mask_005.jpg,,,,,,,,,,,,,,,,,,,,,,,,,,,,,,,,,,,,,,,,,,,,,,,,0,0,0,4,1,,,,,,,,,,,,,,,,,,,,,,,,,,,,,,,,,,,,,,,,,
304903,001,2022-11-21_24h54.56.858,Info_measure_main_exp,2022.2.2,Win32,59.81576744,,,,,,,,,,,,,,,,,,masks/mask_002.jpg,,,,,,,,,,,,,,,,,,,,,,,,,,,,,,,,,,,,,,,,,,,,,,,,0,1,1,1,1,,,,,,,,,,,,,,,,,,,,,,,,,,,,,,,,,,,,,,,,,
304903,001,2022-11-21_24h54.56.858,Info_measure_main_exp,2022.2.2,Win32,59.81576744,,,,,,,,,,,,,,,,,,masks/mask_001.jpg,,,,,,,,,,,,,,,,,,,,,,,,,,,,,,,,,,,,,,,,,,,,,,,,0,2,2,0,1,,,,,,,,,,,,,,,,,,,,,,,,,,,,,,,,,,,,,,,,,
304903,001,2022-11-21_24h54.56.858,Info_measure_main_exp,2022.2.2,Win32,59.81576744,,,,,,,,,,,,,,,,,,masks/mask_003.jpg,,,,,,,,,,,,,,,,,,,,,,,,,,,,,,,,,,,,,,,,,,,,,,,,0,3,3,2,1,,,,,,,,,,,,,,,,,,,,,,,,,,,,,,,,,,,,,,,,,
304903,001,2022-11-21_24h54.56.858,Info_measure_main_exp,2022.2.2,Win32,59.81576744,,,,,,,,,,,,,,,,,,masks/mask_004.jpg,,,,,,,,,,,,,,,,,,,,,,,,,,,,,,,,,,,,,,,,,,,,,,,,0,4,4,3,1,,,,,,,,,,,,,,,,,,,,,,,,,,,,,,,,,,,,,,,,,
304903,001,2022-11-21_24h54.56.858,Info_measure_main_exp,2022.2.2,Win32,59.81576744,,,,,,,,,,,,,,,,,,,,,,,,,,,,,,7,0.6819,1,,,,,,,,,,,,0,131,5,5,1950,2238,absent_patch/patch0001950.jpg,absent_patch/patch0002238.jpg,,,,,,,,,,,,,,,,,,,,0.122222265,0.186111097,1,0,0,response1disk,10,0.006481524,0.010185171,1,0,0,center_square,0,9,9,8,1,,,,,,,,,,,,,,,,,,,,,,,
304903,001,2022-11-21_24h54.56.858,Info_measure_main_exp,2022.2.2,Win32,59.81576744,,,,,,,,,,,,,,,,,,masks/mask_003.jpg,,,,,,,,,,,,,,,,,,,,,,,,,,,,,,,,,,,,,,,,,,,0,0,0,2,1,,,,,,,,,,,,,,,,,,,,,,,,,,,,,,,,,,,,,,,,,,,,,,
304903,001,2022-11-21_24h54.56.858,Info_measure_main_exp,2022.2.2,Win32,59.81576744,,,,,,,,,,,,,,,,,,masks/mask_001.jpg,,,,,,,,,,,,,,,,,,,,,,,,,,,,,,,,,,,,,,,,,,,0,1,1,0,1,,,,,,,,,,,,,,,,,,,,,,,,,,,,,,,,,,,,,,,,,,,,,,
304903,001,2022-11-21_24h54.56.858,Info_measure_main_exp,2022.2.2,Win32,59.81576744,,,,,,,,,,,,,,,,,,masks/mask_005.jpg,,,,,,,,,,,,,,,,,,,,,,,,,,,,,,,,,,,,,,,,,,,0,2,2,4,1,,,,,,,,,,,,,,,,,,,,,,,,,,,,,,,,,,,,,,,,,,,,,,
304903,001,2022-11-21_24h54.56.858,Info_measure_main_exp,2022.2.2,Win32,59.81576744,,,,,,,,,,,,,,,,,,masks/mask_002.jpg,,,,,,,,,,,,,,,,,,,,,,,,,,,,,,,,,,,,,,,,,,,0,3,3,1,1,,,,,,,,,,,,,,,,,,,,,,,,,,,,,,,,,,,,,,,,,,,,,,
304903,001,2022-11-21_24h54.56.858,Info_measure_main_exp,2022.2.2,Win32,59.81576744,,,,,,,,,,,,,,,,,,masks/mask_004.jpg,,,,,,,,,,,,,,,,,,,,,,,,,,,,,,,,,,,,,,,,,,,0,4,4,3,1,,,,,,,,,,,,,,,,,,,,,,,,,,,,,,,,,,,,,,,,,,,,,,
304903,001,2022-11-21_24h54.56.858,Info_measure_main_exp,2022.2.2,Win32,59.81576744,,,,,,,,,,,,,,,,,,masks/mask_002.jpg,,,,,,,,,,,,,,,,,,,,,,,,,,,,,,,,,,,,,,,,,,,,,,,,0,0,0,1,1,,,,,,,,,,,,,,,,,,,,,,,,,,,,,,,,,,,,,,,,,
304903,001,2022-11-21_24h54.56.858,Info_measure_main_exp,2022.2.2,Win32,59.81576744,,,,,,,,,,,,,,,,,,masks/mask_004.jpg,,,,,,,,,,,,,,,,,,,,,,,,,,,,,,,,,,,,,,,,,,,,,,,,0,1,1,3,1,,,,,,,,,,,,,,,,,,,,,,,,,,,,,,,,,,,,,,,,,
304903,001,2022-11-21_24h54.56.858,Info_measure_main_exp,2022.2.2,Win32,59.81576744,,,,,,,,,,,,,,,,,,masks/mask_001.jpg,,,,,,,,,,,,,,,,,,,,,,,,,,,,,,,,,,,,,,,,,,,,,,,,0,2,2,0,1,,,,,,,,,,,,,,,,,,,,,,,,,,,,,,,,,,,,,,,,,
304903,001,2022-11-21_24h54.56.858,Info_measure_main_exp,2022.2.2,Win32,59.81576744,,,,,,,,,,,,,,,,,,masks/mask_005.jpg,,,,,,,,,,,,,,,,,,,,,,,,,,,,,,,,,,,,,,,,,,,,,,,,0,3,3,4,1,,,,,,,,,,,,,,,,,,,,,,,,,,,,,,,,,,,,,,,,,
304903,001,2022-11-21_24h54.56.858,Info_measure_main_exp,2022.2.2,Win32,59.81576744,,,,,,,,,,,,,,,,,,masks/mask_003.jpg,,,,,,,,,,,,,,,,,,,,,,,,,,,,,,,,,,,,,,,,,,,,,,,,0,4,4,2,1,,,,,,,,,,,,,,,,,,,,,,,,,,,,,,,,,,,,,,,,,
304903,001,2022-11-21_24h54.56.858,Info_measure_main_exp,2022.2.2,Win32,59.81576744,,,,,,,,,,,,,,,,,,,,,,,,,,,,,,7,0.6669,1,,,,,,,,,,,,0,131,5,5,2238,2166,absent_patch/patch0002238.jpg,absent_patch/patch0002166.jpg,,,,,,,,,,,,,,,,,,,,0.10555557,0.15370369,1,0,0,response1disk,11,0.007407436,0.006481489,1,0,0,center_square,0,10,10,118,1,,,,,,,,,,,,,,,,,,,,,,,
304903,001,2022-11-21_24h54.56.858,Info_measure_main_exp,2022.2.2,Win32,59.81576744,,,,,,,,,,,,,,,,,,masks/mask_002.jpg,,,,,,,,,,,,,,,,,,,,,,,,,,,,,,,,,,,,,,,,,,,0,0,0,1,1,,,,,,,,,,,,,,,,,,,,,,,,,,,,,,,,,,,,,,,,,,,,,,
304903,001,2022-11-21_24h54.56.858,Info_measure_main_exp,2022.2.2,Win32,59.81576744,,,,,,,,,,,,,,,,,,masks/mask_003.jpg,,,,,,,,,,,,,,,,,,,,,,,,,,,,,,,,,,,,,,,,,,,0,1,1,2,1,,,,,,,,,,,,,,,,,,,,,,,,,,,,,,,,,,,,,,,,,,,,,,
304903,001,2022-11-21_24h54.56.858,Info_measure_main_exp,2022.2.2,Win32,59.81576744,,,,,,,,,,,,,,,,,,masks/mask_001.jpg,,,,,,,,,,,,,,,,,,,,,,,,,,,,,,,,,,,,,,,,,,,0,2,2,0,1,,,,,,,,,,,,,,,,,,,,,,,,,,,,,,,,,,,,,,,,,,,,,,
304903,001,2022-11-21_24h54.56.858,Info_measure_main_exp,2022.2.2,Win32,59.81576744,,,,,,,,,,,,,,,,,,masks/mask_005.jpg,,,,,,,,,,,,,,,,,,,,,,,,,,,,,,,,,,,,,,,,,,,0,3,3,4,1,,,,,,,,,,,,,,,,,,,,,,,,,,,,,,,,,,,,,,,,,,,,,,
304903,001,2022-11-21_24h54.56.858,Info_measure_main_exp,2022.2.2,Win32,59.81576744,,,,,,,,,,,,,,,,,,masks/mask_004.jpg,,,,,,,,,,,,,,,,,,,,,,,,,,,,,,,,,,,,,,,,,,,0,4,4,3,1,,,,,,,,,,,,,,,,,,,,,,,,,,,,,,,,,,,,,,,,,,,,,,
304903,001,2022-11-21_24h54.56.858,Info_measure_main_exp,2022.2.2,Win32,59.81576744,,,,,,,,,,,,,,,,,,masks/mask_005.jpg,,,,,,,,,,,,,,,,,,,,,,,,,,,,,,,,,,,,,,,,,,,,,,,,0,0,0,4,1,,,,,,,,,,,,,,,,,,,,,,,,,,,,,,,,,,,,,,,,,
304903,001,2022-11-21_24h54.56.858,Info_measure_main_exp,2022.2.2,Win32,59.81576744,,,,,,,,,,,,,,,,,,masks/mask_003.jpg,,,,,,,,,,,,,,,,,,,,,,,,,,,,,,,,,,,,,,,,,,,,,,,,0,1,1,2,1,,,,,,,,,,,,,,,,,,,,,,,,,,,,,,,,,,,,,,,,,
304903,001,2022-11-21_24h54.56.858,Info_measure_main_exp,2022.2.2,Win32,59.81576744,,,,,,,,,,,,,,,,,,masks/mask_004.jpg,,,,,,,,,,,,,,,,,,,,,,,,,,,,,,,,,,,,,,,,,,,,,,,,0,2,2,3,1,,,,,,,,,,,,,,,,,,,,,,,,,,,,,,,,,,,,,,,,,
304903,001,2022-11-21_24h54.56.858,Info_measure_main_exp,2022.2.2,Win32,59.81576744,,,,,,,,,,,,,,,,,,masks/mask_001.jpg,,,,,,,,,,,,,,,,,,,,,,,,,,,,,,,,,,,,,,,,,,,,,,,,0,3,3,0,1,,,,,,,,,,,,,,,,,,,,,,,,,,,,,,,,,,,,,,,,,
304903,001,2022-11-21_24h54.56.858,Info_measure_main_exp,2022.2.2,Win32,59.81576744,,,,,,,,,,,,,,,,,,masks/mask_002.jpg,,,,,,,,,,,,,,,,,,,,,,,,,,,,,,,,,,,,,,,,,,,,,,,,0,4,4,1,1,,,,,,,,,,,,,,,,,,,,,,,,,,,,,,,,,,,,,,,,,
304903,001,2022-11-21_24h54.56.858,Info_measure_main_exp,2022.2.2,Win32,59.81576744,,,,,,,,,,,,,,,,,,,,,,,,,,,,,,7,0.6161,1,,,,,,,,,,,,0,131,5,5,2082,1974,absent_patch/patch0002082.jpg,absent_patch/patch0001974.jpg,,,,,,,,,,,,,,,,,,,,0.088888875,0.178703697,1,0,0,response1disk,12,0.006481524,0.006481489,1,0,0,center_square,0,11,11,26,1,,,,,,,,,,,,,,,,,,,,,,,
304903,001,2022-11-21_24h54.56.858,Info_measure_main_exp,2022.2.2,Win32,59.81576744,,,,,,,,,,,,,,,,,,masks/mask_004.jpg,,,,,,,,,,,,,,,,,,,,,,,,,,,,,,,,,,,,,,,,,,,0,0,0,3,1,,,,,,,,,,,,,,,,,,,,,,,,,,,,,,,,,,,,,,,,,,,,,,
304903,001,2022-11-21_24h54.56.858,Info_measure_main_exp,2022.2.2,Win32,59.81576744,,,,,,,,,,,,,,,,,,masks/mask_005.jpg,,,,,,,,,,,,,,,,,,,,,,,,,,,,,,,,,,,,,,,,,,,0,1,1,4,1,,,,,,,,,,,,,,,,,,,,,,,,,,,,,,,,,,,,,,,,,,,,,,
304903,001,2022-11-21_24h54.56.858,Info_measure_main_exp,2022.2.2,Win32,59.81576744,,,,,,,,,,,,,,,,,,masks/mask_001.jpg,,,,,,,,,,,,,,,,,,,,,,,,,,,,,,,,,,,,,,,,,,,0,2,2,0,1,,,,,,,,,,,,,,,,,,,,,,,,,,,,,,,,,,,,,,,,,,,,,,
304903,001,2022-11-21_24h54.56.858,Info_measure_main_exp,2022.2.2,Win32,59.81576744,,,,,,,,,,,,,,,,,,masks/mask_003.jpg,,,,,,,,,,,,,,,,,,,,,,,,,,,,,,,,,,,,,,,,,,,0,3,3,2,1,,,,,,,,,,,,,,,,,,,,,,,,,,,,,,,,,,,,,,,,,,,,,,
304903,001,2022-11-21_24h54.56.858,Info_measure_main_exp,2022.2.2,Win32,59.81576744,,,,,,,,,,,,,,,,,,masks/mask_002.jpg,,,,,,,,,,,,,,,,,,,,,,,,,,,,,,,,,,,,,,,,,,,0,4,4,1,1,,,,,,,,,,,,,,,,,,,,,,,,,,,,,,,,,,,,,,,,,,,,,,
304903,001,2022-11-21_24h54.56.858,Info_measure_main_exp,2022.2.2,Win32,59.81576744,,,,,,,,,,,,,,,,,,masks/mask_002.jpg,,,,,,,,,,,,,,,,,,,,,,,,,,,,,,,,,,,,,,,,,,,,,,,,0,0,0,1,1,,,,,,,,,,,,,,,,,,,,,,,,,,,,,,,,,,,,,,,,,
304903,001,2022-11-21_24h54.56.858,Info_measure_main_exp,2022.2.2,Win32,59.81576744,,,,,,,,,,,,,,,,,,masks/mask_001.jpg,,,,,,,,,,,,,,,,,,,,,,,,,,,,,,,,,,,,,,,,,,,,,,,,0,1,1,0,1,,,,,,,,,,,,,,,,,,,,,,,,,,,,,,,,,,,,,,,,,
304903,001,2022-11-21_24h54.56.858,Info_measure_main_exp,2022.2.2,Win32,59.81576744,,,,,,,,,,,,,,,,,,masks/mask_004.jpg,,,,,,,,,,,,,,,,,,,,,,,,,,,,,,,,,,,,,,,,,,,,,,,,0,2,2,3,1,,,,,,,,,,,,,,,,,,,,,,,,,,,,,,,,,,,,,,,,,
304903,001,2022-11-21_24h54.56.858,Info_measure_main_exp,2022.2.2,Win32,59.81576744,,,,,,,,,,,,,,,,,,masks/mask_003.jpg,,,,,,,,,,,,,,,,,,,,,,,,,,,,,,,,,,,,,,,,,,,,,,,,0,3,3,2,1,,,,,,,,,,,,,,,,,,,,,,,,,,,,,,,,,,,,,,,,,
304903,001,2022-11-21_24h54.56.858,Info_measure_main_exp,2022.2.2,Win32,59.81576744,,,,,,,,,,,,,,,,,,masks/mask_005.jpg,,,,,,,,,,,,,,,,,,,,,,,,,,,,,,,,,,,,,,,,,,,,,,,,0,4,4,4,1,,,,,,,,,,,,,,,,,,,,,,,,,,,,,,,,,,,,,,,,,
304903,001,2022-11-21_24h54.56.858,Info_measure_main_exp,2022.2.2,Win32,59.81576744,,,,,,,,,,,,,,,,,,,,,,,,,,,,,,7,0.5163,1,,,,,,,,,,,,0,131,5,5,2274,2214,absent_patch/patch0002274.jpg,absent_patch/patch0002214.jpg,,,,,,,,,,,,,,,,,,,,0.110185199,0.162962949,1,0,0,response1disk,13,0.003703718,0.000925912,1,0,0,center_square,0,12,12,11,1,,,,,,,,,,,,,,,,,,,,,,,
304903,001,2022-11-21_24h54.56.858,Info_measure_main_exp,2022.2.2,Win32,59.81576744,,,,,,,,,,,,,,,,,,masks/mask_002.jpg,,,,,,,,,,,,,,,,,,,,,,,,,,,,,,,,,,,,,,,,,,,0,0,0,1,1,,,,,,,,,,,,,,,,,,,,,,,,,,,,,,,,,,,,,,,,,,,,,,
304903,001,2022-11-21_24h54.56.858,Info_measure_main_exp,2022.2.2,Win32,59.81576744,,,,,,,,,,,,,,,,,,masks/mask_003.jpg,,,,,,,,,,,,,,,,,,,,,,,,,,,,,,,,,,,,,,,,,,,0,1,1,2,1,,,,,,,,,,,,,,,,,,,,,,,,,,,,,,,,,,,,,,,,,,,,,,
304903,001,2022-11-21_24h54.56.858,Info_measure_main_exp,2022.2.2,Win32,59.81576744,,,,,,,,,,,,,,,,,,masks/mask_005.jpg,,,,,,,,,,,,,,,,,,,,,,,,,,,,,,,,,,,,,,,,,,,0,2,2,4,1,,,,,,,,,,,,,,,,,,,,,,,,,,,,,,,,,,,,,,,,,,,,,,
304903,001,2022-11-21_24h54.56.858,Info_measure_main_exp,2022.2.2,Win32,59.81576744,,,,,,,,,,,,,,,,,,masks/mask_001.jpg,,,,,,,,,,,,,,,,,,,,,,,,,,,,,,,,,,,,,,,,,,,0,3,3,0,1,,,,,,,,,,,,,,,,,,,,,,,,,,,,,,,,,,,,,,,,,,,,,,
304903,001,2022-11-21_24h54.56.858,Info_measure_main_exp,2022.2.2,Win32,59.81576744,,,,,,,,,,,,,,,,,,masks/mask_004.jpg,,,,,,,,,,,,,,,,,,,,,,,,,,,,,,,,,,,,,,,,,,,0,4,4,3,1,,,,,,,,,,,,,,,,,,,,,,,,,,,,,,,,,,,,,,,,,,,,,,
304903,001,2022-11-21_24h54.56.858,Info_measure_main_exp,2022.2.2,Win32,59.81576744,,,,,,,,,,,,,,,,,,masks/mask_001.jpg,,,,,,,,,,,,,,,,,,,,,,,,,,,,,,,,,,,,,,,,,,,,,,,,0,0,0,0,1,,,,,,,,,,,,,,,,,,,,,,,,,,,,,,,,,,,,,,,,,
304903,001,2022-11-21_24h54.56.858,Info_measure_main_exp,2022.2.2,Win32,59.81576744,,,,,,,,,,,,,,,,,,masks/mask_004.jpg,,,,,,,,,,,,,,,,,,,,,,,,,,,,,,,,,,,,,,,,,,,,,,,,0,1,1,3,1,,,,,,,,,,,,,,,,,,,,,,,,,,,,,,,,,,,,,,,,,
304903,001,2022-11-21_24h54.56.858,Info_measure_main_exp,2022.2.2,Win32,59.81576744,,,,,,,,,,,,,,,,,,masks/mask_002.jpg,,,,,,,,,,,,,,,,,,,,,,,,,,,,,,,,,,,,,,,,,,,,,,,,0,2,2,1,1,,,,,,,,,,,,,,,,,,,,,,,,,,,,,,,,,,,,,,,,,
304903,001,2022-11-21_24h54.56.858,Info_measure_main_exp,2022.2.2,Win32,59.81576744,,,,,,,,,,,,,,,,,,masks/mask_003.jpg,,,,,,,,,,,,,,,,,,,,,,,,,,,,,,,,,,,,,,,,,,,,,,,,0,3,3,2,1,,,,,,,,,,,,,,,,,,,,,,,,,,,,,,,,,,,,,,,,,
304903,001,2022-11-21_24h54.56.858,Info_measure_main_exp,2022.2.2,Win32,59.81576744,,,,,,,,,,,,,,,,,,masks/mask_005.jpg,,,,,,,,,,,,,,,,,,,,,,,,,,,,,,,,,,,,,,,,,,,,,,,,0,4,4,4,1,,,,,,,,,,,,,,,,,,,,,,,,,,,,,,,,,,,,,,,,,
304903,001,2022-11-21_24h54.56.858,Info_measure_main_exp,2022.2.2,Win32,59.81576744,,,,,,,,,,,,,,,,,,,,,,,,,,,,,,7,0.5499,1,,,,,,,,,,,,1,131,5,5,1,2154,present_patch/cong_131_5_a.jpg,absent_patch/patch0002154.jpg,,,,,,,,,,,,,,,,,,,,0.070370356,0.14444443,1,0,0,response1disk,14,0.000925912,0,1,0,0,center_square,0,13,13,87,1,,,,,,,,,,,,,,,,,,,,,,,
304903,001,2022-11-21_24h54.56.858,Info_measure_main_exp,2022.2.2,Win32,59.81576744,,,,,,,,,,,,,,,,,,masks/mask_001.jpg,,,,,,,,,,,,,,,,,,,,,,,,,,,,,,,,,,,,,,,,,,,0,0,0,0,1,,,,,,,,,,,,,,,,,,,,,,,,,,,,,,,,,,,,,,,,,,,,,,
304903,001,2022-11-21_24h54.56.858,Info_measure_main_exp,2022.2.2,Win32,59.81576744,,,,,,,,,,,,,,,,,,masks/mask_004.jpg,,,,,,,,,,,,,,,,,,,,,,,,,,,,,,,,,,,,,,,,,,,0,1,1,3,1,,,,,,,,,,,,,,,,,,,,,,,,,,,,,,,,,,,,,,,,,,,,,,
304903,001,2022-11-21_24h54.56.858,Info_measure_main_exp,2022.2.2,Win32,59.81576744,,,,,,,,,,,,,,,,,,masks/mask_002.jpg,,,,,,,,,,,,,,,,,,,,,,,,,,,,,,,,,,,,,,,,,,,0,2,2,1,1,,,,,,,,,,,,,,,,,,,,,,,,,,,,,,,,,,,,,,,,,,,,,,
304903,001,2022-11-21_24h54.56.858,Info_measure_main_exp,2022.2.2,Win32,59.81576744,,,,,,,,,,,,,,,,,,masks/mask_003.jpg,,,,,,,,,,,,,,,,,,,,,,,,,,,,,,,,,,,,,,,,,,,0,3,3,2,1,,,,,,,,,,,,,,,,,,,,,,,,,,,,,,,,,,,,,,,,,,,,,,
304903,001,2022-11-21_24h54.56.858,Info_measure_main_exp,2022.2.2,Win32,59.81576744,,,,,,,,,,,,,,,,,,masks/mask_005.jpg,,,,,,,,,,,,,,,,,,,,,,,,,,,,,,,,,,,,,,,,,,,0,4,4,4,1,,,,,,,,,,,,,,,,,,,,,,,,,,,,,,,,,,,,,,,,,,,,,,
304903,001,2022-11-21_24h54.56.858,Info_measure_main_exp,2022.2.2,Win32,59.81576744,,,,,,,,,,,,,,,,,,masks/mask_004.jpg,,,,,,,,,,,,,,,,,,,,,,,,,,,,,,,,,,,,,,,,,,,,,,,,0,0,0,3,1,,,,,,,,,,,,,,,,,,,,,,,,,,,,,,,,,,,,,,,,,
304903,001,2022-11-21_24h54.56.858,Info_measure_main_exp,2022.2.2,Win32,59.81576744,,,,,,,,,,,,,,,,,,masks/mask_005.jpg,,,,,,,,,,,,,,,,,,,,,,,,,,,,,,,,,,,,,,,,,,,,,,,,0,1,1,4,1,,,,,,,,,,,,,,,,,,,,,,,,,,,,,,,,,,,,,,,,,
304903,001,2022-11-21_24h54.56.858,Info_measure_main_exp,2022.2.2,Win32,59.81576744,,,,,,,,,,,,,,,,,,masks/mask_003.jpg,,,,,,,,,,,,,,,,,,,,,,,,,,,,,,,,,,,,,,,,,,,,,,,,0,2,2,2,1,,,,,,,,,,,,,,,,,,,,,,,,,,,,,,,,,,,,,,,,,
304903,001,2022-11-21_24h54.56.858,Info_measure_main_exp,2022.2.2,Win32,59.81576744,,,,,,,,,,,,,,,,,,masks/mask_001.jpg,,,,,,,,,,,,,,,,,,,,,,,,,,,,,,,,,,,,,,,,,,,,,,,,0,3,3,0,1,,,,,,,,,,,,,,,,,,,,,,,,,,,,,,,,,,,,,,,,,
304903,001,2022-11-21_24h54.56.858,Info_measure_main_exp,2022.2.2,Win32,59.81576744,,,,,,,,,,,,,,,,,,masks/mask_002.jpg,,,,,,,,,,,,,,,,,,,,,,,,,,,,,,,,,,,,,,,,,,,,,,,,0,4,4,1,1,,,,,,,,,,,,,,,,,,,,,,,,,,,,,,,,,,,,,,,,,
304903,001,2022-11-21_24h54.56.858,Info_measure_main_exp,2022.2.2,Win32,59.81576744,,,,,,,,,,,,,,,,,,,,,,,,,,,,,,5,0.9675,1,,,,,,,,,,,,0,131,5,5,1986,2154,absent_patch/patch0001986.jpg,absent_patch/patch0002154.jpg,,,,,,,,,,,,,,,,,,,,0.078703704,-0.033333355,1,0,0,response3disk,15,0.00462963,0.005555541,1,0,0,center_square,0,14,14,36,1,,,,,,,,,,,,,,,,,,,,,,,
304903,001,2022-11-21_24h54.56.858,Info_measure_main_exp,2022.2.2,Win32,59.81576744,,,,,,,,,,,,,,,,,,masks/mask_005.jpg,,,,,,,,,,,,,,,,,,,,,,,,,,,,,,,,,,,,,,,,,,,0,0,0,4,1,,,,,,,,,,,,,,,,,,,,,,,,,,,,,,,,,,,,,,,,,,,,,,
304903,001,2022-11-21_24h54.56.858,Info_measure_main_exp,2022.2.2,Win32,59.81576744,,,,,,,,,,,,,,,,,,masks/mask_001.jpg,,,,,,,,,,,,,,,,,,,,,,,,,,,,,,,,,,,,,,,,,,,0,1,1,0,1,,,,,,,,,,,,,,,,,,,,,,,,,,,,,,,,,,,,,,,,,,,,,,
304903,001,2022-11-21_24h54.56.858,Info_measure_main_exp,2022.2.2,Win32,59.81576744,,,,,,,,,,,,,,,,,,masks/mask_004.jpg,,,,,,,,,,,,,,,,,,,,,,,,,,,,,,,,,,,,,,,,,,,0,2,2,3,1,,,,,,,,,,,,,,,,,,,,,,,,,,,,,,,,,,,,,,,,,,,,,,
304903,001,2022-11-21_24h54.56.858,Info_measure_main_exp,2022.2.2,Win32,59.81576744,,,,,,,,,,,,,,,,,,masks/mask_003.jpg,,,,,,,,,,,,,,,,,,,,,,,,,,,,,,,,,,,,,,,,,,,0,3,3,2,1,,,,,,,,,,,,,,,,,,,,,,,,,,,,,,,,,,,,,,,,,,,,,,
304903,001,2022-11-21_24h54.56.858,Info_measure_main_exp,2022.2.2,Win32,59.81576744,,,,,,,,,,,,,,,,,,masks/mask_002.jpg,,,,,,,,,,,,,,,,,,,,,,,,,,,,,,,,,,,,,,,,,,,0,4,4,1,1,,,,,,,,,,,,,,,,,,,,,,,,,,,,,,,,,,,,,,,,,,,,,,
304903,001,2022-11-21_24h54.56.858,Info_measure_main_exp,2022.2.2,Win32,59.81576744,,,,,,,,,,,,,,,,,,masks/mask_004.jpg,,,,,,,,,,,,,,,,,,,,,,,,,,,,,,,,,,,,,,,,,,,,,,,,0,0,0,3,1,,,,,,,,,,,,,,,,,,,,,,,,,,,,,,,,,,,,,,,,,
304903,001,2022-11-21_24h54.56.858,Info_measure_main_exp,2022.2.2,Win32,59.81576744,,,,,,,,,,,,,,,,,,masks/mask_001.jpg,,,,,,,,,,,,,,,,,,,,,,,,,,,,,,,,,,,,,,,,,,,,,,,,0,1,1,0,1,,,,,,,,,,,,,,,,,,,,,,,,,,,,,,,,,,,,,,,,,
304903,001,2022-11-21_24h54.56.858,Info_measure_main_exp,2022.2.2,Win32,59.81576744,,,,,,,,,,,,,,,,,,masks/mask_005.jpg,,,,,,,,,,,,,,,,,,,,,,,,,,,,,,,,,,,,,,,,,,,,,,,,0,2,2,4,1,,,,,,,,,,,,,,,,,,,,,,,,,,,,,,,,,,,,,,,,,
304903,001,2022-11-21_24h54.56.858,Info_measure_main_exp,2022.2.2,Win32,59.81576744,,,,,,,,,,,,,,,,,,masks/mask_002.jpg,,,,,,,,,,,,,,,,,,,,,,,,,,,,,,,,,,,,,,,,,,,,,,,,0,3,3,1,1,,,,,,,,,,,,,,,,,,,,,,,,,,,,,,,,,,,,,,,,,
304903,001,2022-11-21_24h54.56.858,Info_measure_main_exp,2022.2.2,Win32,59.81576744,,,,,,,,,,,,,,,,,,masks/mask_003.jpg,,,,,,,,,,,,,,,,,,,,,,,,,,,,,,,,,,,,,,,,,,,,,,,,0,4,4,2,1,,,,,,,,,,,,,,,,,,,,,,,,,,,,,,,,,,,,,,,,,
304903,001,2022-11-21_24h54.56.858,Info_measure_main_exp,2022.2.2,Win32,59.81576744,,,,,,,,,,,,,,,,,,,,,,,,,,,,,,6,1.0825,1,,,,,,,,,,,,0,131,5,5,1950,2142,absent_patch/patch0001950.jpg,absent_patch/patch0002142.jpg,,,,,,,,,,,,,,,,,,,,0.110185199,0.062962956,1,0,0,response1disk,16,0.001851894,-0.002777771,1,0,0,center_square,0,15,15,83,1,,,,,,,,,,,,,,,,,,,,,,,
304903,001,2022-11-21_24h54.56.858,Info_measure_main_exp,2022.2.2,Win32,59.81576744,,,,,,,,,,,,,,,,,,masks/mask_002.jpg,,,,,,,,,,,,,,,,,,,,,,,,,,,,,,,,,,,,,,,,,,,0,0,0,1,1,,,,,,,,,,,,,,,,,,,,,,,,,,,,,,,,,,,,,,,,,,,,,,
304903,001,2022-11-21_24h54.56.858,Info_measure_main_exp,2022.2.2,Win32,59.81576744,,,,,,,,,,,,,,,,,,masks/mask_005.jpg,,,,,,,,,,,,,,,,,,,,,,,,,,,,,,,,,,,,,,,,,,,0,1,1,4,1,,,,,,,,,,,,,,,,,,,,,,,,,,,,,,,,,,,,,,,,,,,,,,
304903,001,2022-11-21_24h54.56.858,Info_measure_main_exp,2022.2.2,Win32,59.81576744,,,,,,,,,,,,,,,,,,masks/mask_004.jpg,,,,,,,,,,,,,,,,,,,,,,,,,,,,,,,,,,,,,,,,,,,0,2,2,3,1,,,,,,,,,,,,,,,,,,,,,,,,,,,,,,,,,,,,,,,,,,,,,,
304903,001,2022-11-21_24h54.56.858,Info_measure_main_exp,2022.2.2,Win32,59.81576744,,,,,,,,,,,,,,,,,,masks/mask_003.jpg,,,,,,,,,,,,,,,,,,,,,,,,,,,,,,,,,,,,,,,,,,,0,3,3,2,1,,,,,,,,,,,,,,,,,,,,,,,,,,,,,,,,,,,,,,,,,,,,,,
304903,001,2022-11-21_24h54.56.858,Info_measure_main_exp,2022.2.2,Win32,59.81576744,,,,,,,,,,,,,,,,,,masks/mask_001.jpg,,,,,,,,,,,,,,,,,,,,,,,,,,,,,,,,,,,,,,,,,,,0,4,4,0,1,,,,,,,,,,,,,,,,,,,,,,,,,,,,,,,,,,,,,,,,,,,,,,
304903,001,2022-11-21_24h54.56.858,Info_measure_main_exp,2022.2.2,Win32,59.81576744,,,,,,,,,,,,,,,,,,masks/mask_001.jpg,,,,,,,,,,,,,,,,,,,,,,,,,,,,,,,,,,,,,,,,,,,,,,,,0,0,0,0,1,,,,,,,,,,,,,,,,,,,,,,,,,,,,,,,,,,,,,,,,,
304903,001,2022-11-21_24h54.56.858,Info_measure_main_exp,2022.2.2,Win32,59.81576744,,,,,,,,,,,,,,,,,,masks/mask_002.jpg,,,,,,,,,,,,,,,,,,,,,,,,,,,,,,,,,,,,,,,,,,,,,,,,0,1,1,1,1,,,,,,,,,,,,,,,,,,,,,,,,,,,,,,,,,,,,,,,,,
304903,001,2022-11-21_24h54.56.858,Info_measure_main_exp,2022.2.2,Win32,59.81576744,,,,,,,,,,,,,,,,,,masks/mask_005.jpg,,,,,,,,,,,,,,,,,,,,,,,,,,,,,,,,,,,,,,,,,,,,,,,,0,2,2,4,1,,,,,,,,,,,,,,,,,,,,,,,,,,,,,,,,,,,,,,,,,
304903,001,2022-11-21_24h54.56.858,Info_measure_main_exp,2022.2.2,Win32,59.81576744,,,,,,,,,,,,,,,,,,masks/mask_003.jpg,,,,,,,,,,,,,,,,,,,,,,,,,,,,,,,,,,,,,,,,,,,,,,,,0,3,3,2,1,,,,,,,,,,,,,,,,,,,,,,,,,,,,,,,,,,,,,,,,,
304903,001,2022-11-21_24h54.56.858,Info_measure_main_exp,2022.2.2,Win32,59.81576744,,,,,,,,,,,,,,,,,,masks/mask_004.jpg,,,,,,,,,,,,,,,,,,,,,,,,,,,,,,,,,,,,,,,,,,,,,,,,0,4,4,3,1,,,,,,,,,,,,,,,,,,,,,,,,,,,,,,,,,,,,,,,,,
304903,001,2022-11-21_24h54.56.858,Info_measure_main_exp,2022.2.2,Win32,59.81576744,,,,,,,,,,,,,,,,,,,,,,,,,,,,,,6,0.7334,1,,,,,,,,,,,,1,131,5,5,1,1986,present_patch/cong_131_5_a.jpg,absent_patch/patch0001986.jpg,,,,,,,,,,,,,,,,,,,,0.109259288,0.032407407,1,0,0,response1disk,17,0,-0.006481489,1,0,0,center_square,0,16,16,106,1,,,,,,,,,,,,,,,,,,,,,,,
304903,001,2022-11-21_24h54.56.858,Info_measure_main_exp,2022.2.2,Win32,59.81576744,,,,,,,,,,,,,,,,,,masks/mask_005.jpg,,,,,,,,,,,,,,,,,,,,,,,,,,,,,,,,,,,,,,,,,,,0,0,0,4,1,,,,,,,,,,,,,,,,,,,,,,,,,,,,,,,,,,,,,,,,,,,,,,
304903,001,2022-11-21_24h54.56.858,Info_measure_main_exp,2022.2.2,Win32,59.81576744,,,,,,,,,,,,,,,,,,masks/mask_001.jpg,,,,,,,,,,,,,,,,,,,,,,,,,,,,,,,,,,,,,,,,,,,0,1,1,0,1,,,,,,,,,,,,,,,,,,,,,,,,,,,,,,,,,,,,,,,,,,,,,,
304903,001,2022-11-21_24h54.56.858,Info_measure_main_exp,2022.2.2,Win32,59.81576744,,,,,,,,,,,,,,,,,,masks/mask_003.jpg,,,,,,,,,,,,,,,,,,,,,,,,,,,,,,,,,,,,,,,,,,,0,2,2,2,1,,,,,,,,,,,,,,,,,,,,,,,,,,,,,,,,,,,,,,,,,,,,,,
304903,001,2022-11-21_24h54.56.858,Info_measure_main_exp,2022.2.2,Win32,59.81576744,,,,,,,,,,,,,,,,,,masks/mask_004.jpg,,,,,,,,,,,,,,,,,,,,,,,,,,,,,,,,,,,,,,,,,,,0,3,3,3,1,,,,,,,,,,,,,,,,,,,,,,,,,,,,,,,,,,,,,,,,,,,,,,
304903,001,2022-11-21_24h54.56.858,Info_measure_main_exp,2022.2.2,Win32,59.81576744,,,,,,,,,,,,,,,,,,masks/mask_002.jpg,,,,,,,,,,,,,,,,,,,,,,,,,,,,,,,,,,,,,,,,,,,0,4,4,1,1,,,,,,,,,,,,,,,,,,,,,,,,,,,,,,,,,,,,,,,,,,,,,,
304903,001,2022-11-21_24h54.56.858,Info_measure_main_exp,2022.2.2,Win32,59.81576744,,,,,,,,,,,,,,,,,,masks/mask_001.jpg,,,,,,,,,,,,,,,,,,,,,,,,,,,,,,,,,,,,,,,,,,,,,,,,0,0,0,0,1,,,,,,,,,,,,,,,,,,,,,,,,,,,,,,,,,,,,,,,,,
304903,001,2022-11-21_24h54.56.858,Info_measure_main_exp,2022.2.2,Win32,59.81576744,,,,,,,,,,,,,,,,,,masks/mask_005.jpg,,,,,,,,,,,,,,,,,,,,,,,,,,,,,,,,,,,,,,,,,,,,,,,,0,1,1,4,1,,,,,,,,,,,,,,,,,,,,,,,,,,,,,,,,,,,,,,,,,
304903,001,2022-11-21_24h54.56.858,Info_measure_main_exp,2022.2.2,Win32,59.81576744,,,,,,,,,,,,,,,,,,masks/mask_004.jpg,,,,,,,,,,,,,,,,,,,,,,,,,,,,,,,,,,,,,,,,,,,,,,,,0,2,2,3,1,,,,,,,,,,,,,,,,,,,,,,,,,,,,,,,,,,,,,,,,,
304903,001,2022-11-21_24h54.56.858,Info_measure_main_exp,2022.2.2,Win32,59.81576744,,,,,,,,,,,,,,,,,,masks/mask_003.jpg,,,,,,,,,,,,,,,,,,,,,,,,,,,,,,,,,,,,,,,,,,,,,,,,0,3,3,2,1,,,,,,,,,,,,,,,,,,,,,,,,,,,,,,,,,,,,,,,,,
304903,001,2022-11-21_24h54.56.858,Info_measure_main_exp,2022.2.2,Win32,59.81576744,,,,,,,,,,,,,,,,,,masks/mask_002.jpg,,,,,,,,,,,,,,,,,,,,,,,,,,,,,,,,,,,,,,,,,,,,,,,,0,4,4,1,1,,,,,,,,,,,,,,,,,,,,,,,,,,,,,,,,,,,,,,,,,
304903,001,2022-11-21_24h54.56.858,Info_measure_main_exp,2022.2.2,Win32,59.81576744,,,,,,,,,,,,,,,,,,,,,,,,,,,,,,7,0.8494,1,,,,,,,,,,,,1,131,5,5,2298,1,absent_patch/patch0002298.jpg,present_patch/cong_131_5_a.jpg,,,,,,,,,,,,,,,,,,,,0.05277782,0.098148134,1,0,0,response1disk,18,-0.003703718,-0.003703718,1,0,0,center_square,0,17,17,45,1,,,,,,,,,,,,,,,,,,,,,,,
304903,001,2022-11-21_24h54.56.858,Info_measure_main_exp,2022.2.2,Win32,59.81576744,,,,,,,,,,,,,,,,,,masks/mask_002.jpg,,,,,,,,,,,,,,,,,,,,,,,,,,,,,,,,,,,,,,,,,,,0,0,0,1,1,,,,,,,,,,,,,,,,,,,,,,,,,,,,,,,,,,,,,,,,,,,,,,
304903,001,2022-11-21_24h54.56.858,Info_measure_main_exp,2022.2.2,Win32,59.81576744,,,,,,,,,,,,,,,,,,masks/mask_004.jpg,,,,,,,,,,,,,,,,,,,,,,,,,,,,,,,,,,,,,,,,,,,0,1,1,3,1,,,,,,,,,,,,,,,,,,,,,,,,,,,,,,,,,,,,,,,,,,,,,,
304903,001,2022-11-21_24h54.56.858,Info_measure_main_exp,2022.2.2,Win32,59.81576744,,,,,,,,,,,,,,,,,,masks/mask_003.jpg,,,,,,,,,,,,,,,,,,,,,,,,,,,,,,,,,,,,,,,,,,,0,2,2,2,1,,,,,,,,,,,,,,,,,,,,,,,,,,,,,,,,,,,,,,,,,,,,,,
304903,001,2022-11-21_24h54.56.858,Info_measure_main_exp,2022.2.2,Win32,59.81576744,,,,,,,,,,,,,,,,,,masks/mask_005.jpg,,,,,,,,,,,,,,,,,,,,,,,,,,,,,,,,,,,,,,,,,,,0,3,3,4,1,,,,,,,,,,,,,,,,,,,,,,,,,,,,,,,,,,,,,,,,,,,,,,
304903,001,2022-11-21_24h54.56.858,Info_measure_main_exp,2022.2.2,Win32,59.81576744,,,,,,,,,,,,,,,,,,masks/mask_001.jpg,,,,,,,,,,,,,,,,,,,,,,,,,,,,,,,,,,,,,,,,,,,0,4,4,0,1,,,,,,,,,,,,,,,,,,,,,,,,,,,,,,,,,,,,,,,,,,,,,,
304903,001,2022-11-21_24h54.56.858,Info_measure_main_exp,2022.2.2,Win32,59.81576744,,,,,,,,,,,,,,,,,,masks/mask_002.jpg,,,,,,,,,,,,,,,,,,,,,,,,,,,,,,,,,,,,,,,,,,,,,,,,0,0,0,1,1,,,,,,,,,,,,,,,,,,,,,,,,,,,,,,,,,,,,,,,,,
304903,001,2022-11-21_24h54.56.858,Info_measure_main_exp,2022.2.2,Win32,59.81576744,,,,,,,,,,,,,,,,,,masks/mask_003.jpg,,,,,,,,,,,,,,,,,,,,,,,,,,,,,,,,,,,,,,,,,,,,,,,,0,1,1,2,1,,,,,,,,,,,,,,,,,,,,,,,,,,,,,,,,,,,,,,,,,
304903,001,2022-11-21_24h54.56.858,Info_measure_main_exp,2022.2.2,Win32,59.81576744,,,,,,,,,,,,,,,,,,masks/mask_004.jpg,,,,,,,,,,,,,,,,,,,,,,,,,,,,,,,,,,,,,,,,,,,,,,,,0,2,2,3,1,,,,,,,,,,,,,,,,,,,,,,,,,,,,,,,,,,,,,,,,,
304903,001,2022-11-21_24h54.56.858,Info_measure_main_exp,2022.2.2,Win32,59.81576744,,,,,,,,,,,,,,,,,,masks/mask_001.jpg,,,,,,,,,,,,,,,,,,,,,,,,,,,,,,,,,,,,,,,,,,,,,,,,0,3,3,0,1,,,,,,,,,,,,,,,,,,,,,,,,,,,,,,,,,,,,,,,,,
304903,001,2022-11-21_24h54.56.858,Info_measure_main_exp,2022.2.2,Win32,59.81576744,,,,,,,,,,,,,,,,,,masks/mask_005.jpg,,,,,,,,,,,,,,,,,,,,,,,,,,,,,,,,,,,,,,,,,,,,,,,,0,4,4,4,1,,,,,,,,,,,,,,,,,,,,,,,,,,,,,,,,,,,,,,,,,
304903,001,2022-11-21_24h54.56.858,Info_measure_main_exp,2022.2.2,Win32,59.81576744,,,,,,,,,,,,,,,,,,,,,,,,,,,,,,7,0.7668,1,,,,,,,,,,,,0,131,5,5,1950,2082,absent_patch/patch0001950.jpg,absent_patch/patch0002082.jpg,,,,,,,,,,,,,,,,,,,,0.05740745,0.104629623,1,0,0,response1disk,19,-0.005555541,-0.005555577,1,0,0,center_square,0,18,18,12,1,,,,,,,,,,,,,,,,,,,,,,,
304903,001,2022-11-21_24h54.56.858,Info_measure_main_exp,2022.2.2,Win32,59.81576744,,,,,,,,,,,,,,,,,,masks/mask_003.jpg,,,,,,,,,,,,,,,,,,,,,,,,,,,,,,,,,,,,,,,,,,,0,0,0,2,1,,,,,,,,,,,,,,,,,,,,,,,,,,,,,,,,,,,,,,,,,,,,,,
304903,001,2022-11-21_24h54.56.858,Info_measure_main_exp,2022.2.2,Win32,59.81576744,,,,,,,,,,,,,,,,,,masks/mask_002.jpg,,,,,,,,,,,,,,,,,,,,,,,,,,,,,,,,,,,,,,,,,,,0,1,1,1,1,,,,,,,,,,,,,,,,,,,,,,,,,,,,,,,,,,,,,,,,,,,,,,
304903,001,2022-11-21_24h54.56.858,Info_measure_main_exp,2022.2.2,Win32,59.81576744,,,,,,,,,,,,,,,,,,masks/mask_001.jpg,,,,,,,,,,,,,,,,,,,,,,,,,,,,,,,,,,,,,,,,,,,0,2,2,0,1,,,,,,,,,,,,,,,,,,,,,,,,,,,,,,,,,,,,,,,,,,,,,,
304903,001,2022-11-21_24h54.56.858,Info_measure_main_exp,2022.2.2,Win32,59.81576744,,,,,,,,,,,,,,,,,,masks/mask_004.jpg,,,,,,,,,,,,,,,,,,,,,,,,,,,,,,,,,,,,,,,,,,,0,3,3,3,1,,,,,,,,,,,,,,,,,,,,,,,,,,,,,,,,,,,,,,,,,,,,,,
304903,001,2022-11-21_24h54.56.858,Info_measure_main_exp,2022.2.2,Win32,59.81576744,,,,,,,,,,,,,,,,,,masks/mask_005.jpg,,,,,,,,,,,,,,,,,,,,,,,,,,,,,,,,,,,,,,,,,,,0,4,4,4,1,,,,,,,,,,,,,,,,,,,,,,,,,,,,,,,,,,,,,,,,,,,,,,
304903,001,2022-11-21_24h54.56.858,Info_measure_main_exp,2022.2.2,Win32,59.81576744,,,,,,,,,,,,,,,,,,masks/mask_002.jpg,,,,,,,,,,,,,,,,,,,,,,,,,,,,,,,,,,,,,,,,,,,,,,,,0,0,0,1,1,,,,,,,,,,,,,,,,,,,,,,,,,,,,,,,,,,,,,,,,,
304903,001,2022-11-21_24h54.56.858,Info_measure_main_exp,2022.2.2,Win32,59.81576744,,,,,,,,,,,,,,,,,,masks/mask_001.jpg,,,,,,,,,,,,,,,,,,,,,,,,,,,,,,,,,,,,,,,,,,,,,,,,0,1,1,0,1,,,,,,,,,,,,,,,,,,,,,,,,,,,,,,,,,,,,,,,,,
304903,001,2022-11-21_24h54.56.858,Info_measure_main_exp,2022.2.2,Win32,59.81576744,,,,,,,,,,,,,,,,,,masks/mask_005.jpg,,,,,,,,,,,,,,,,,,,,,,,,,,,,,,,,,,,,,,,,,,,,,,,,0,2,2,4,1,,,,,,,,,,,,,,,,,,,,,,,,,,,,,,,,,,,,,,,,,
304903,001,2022-11-21_24h54.56.858,Info_measure_main_exp,2022.2.2,Win32,59.81576744,,,,,,,,,,,,,,,,,,masks/mask_003.jpg,,,,,,,,,,,,,,,,,,,,,,,,,,,,,,,,,,,,,,,,,,,,,,,,0,3,3,2,1,,,,,,,,,,,,,,,,,,,,,,,,,,,,,,,,,,,,,,,,,
304903,001,2022-11-21_24h54.56.858,Info_measure_main_exp,2022.2.2,Win32,59.81576744,,,,,,,,,,,,,,,,,,masks/mask_004.jpg,,,,,,,,,,,,,,,,,,,,,,,,,,,,,,,,,,,,,,,,,,,,,,,,0,4,4,3,1,,,,,,,,,,,,,,,,,,,,,,,,,,,,,,,,,,,,,,,,,
304903,001,2022-11-21_24h54.56.858,Info_measure_main_exp,2022.2.2,Win32,59.81576744,,,,,,,,,,,,,,,,,,,,,,,,,,,,,,1,1.187,1,,,,,,,,,,,,0,131,5,5,2154,2154,absent_patch/patch0002154.jpg,absent_patch/patch0002154.jpg,,,,,,,,,,,,,,,,,,,,-0.125,0.071296303,1,0,0,response7disk,20,-0.00462963,0.008333312,1,0,0,center_square,0,19,19,89,1,,,,,,,,,,,,,,,,,,,,,,,
304903,001,2022-11-21_24h54.56.858,Info_measure_main_exp,2022.2.2,Win32,59.81576744,,,,,,,,,,,,,,,,,,masks/mask_005.jpg,,,,,,,,,,,,,,,,,,,,,,,,,,,,,,,,,,,,,,,,,,,0,0,0,4,1,,,,,,,,,,,,,,,,,,,,,,,,,,,,,,,,,,,,,,,,,,,,,,
304903,001,2022-11-21_24h54.56.858,Info_measure_main_exp,2022.2.2,Win32,59.81576744,,,,,,,,,,,,,,,,,,masks/mask_002.jpg,,,,,,,,,,,,,,,,,,,,,,,,,,,,,,,,,,,,,,,,,,,0,1,1,1,1,,,,,,,,,,,,,,,,,,,,,,,,,,,,,,,,,,,,,,,,,,,,,,
304903,001,2022-11-21_24h54.56.858,Info_measure_main_exp,2022.2.2,Win32,59.81576744,,,,,,,,,,,,,,,,,,masks/mask_003.jpg,,,,,,,,,,,,,,,,,,,,,,,,,,,,,,,,,,,,,,,,,,,0,2,2,2,1,,,,,,,,,,,,,,,,,,,,,,,,,,,,,,,,,,,,,,,,,,,,,,
304903,001,2022-11-21_24h54.56.858,Info_measure_main_exp,2022.2.2,Win32,59.81576744,,,,,,,,,,,,,,,,,,masks/mask_001.jpg,,,,,,,,,,,,,,,,,,,,,,,,,,,,,,,,,,,,,,,,,,,0,3,3,0,1,,,,,,,,,,,,,,,,,,,,,,,,,,,,,,,,,,,,,,,,,,,,,,
304903,001,2022-11-21_24h54.56.858,Info_measure_main_exp,2022.2.2,Win32,59.81576744,,,,,,,,,,,,,,,,,,masks/mask_004.jpg,,,,,,,,,,,,,,,,,,,,,,,,,,,,,,,,,,,,,,,,,,,0,4,4,3,1,,,,,,,,,,,,,,,,,,,,,,,,,,,,,,,,,,,,,,,,,,,,,,
304903,001,2022-11-21_24h54.56.858,Info_measure_main_exp,2022.2.2,Win32,59.81576744,,,,,,,,,,,,,,,,,,masks/mask_005.jpg,,,,,,,,,,,,,,,,,,,,,,,,,,,,,,,,,,,,,,,,,,,,,,,,0,0,0,4,1,,,,,,,,,,,,,,,,,,,,,,,,,,,,,,,,,,,,,,,,,
304903,001,2022-11-21_24h54.56.858,Info_measure_main_exp,2022.2.2,Win32,59.81576744,,,,,,,,,,,,,,,,,,masks/mask_001.jpg,,,,,,,,,,,,,,,,,,,,,,,,,,,,,,,,,,,,,,,,,,,,,,,,0,1,1,0,1,,,,,,,,,,,,,,,,,,,,,,,,,,,,,,,,,,,,,,,,,
304903,001,2022-11-21_24h54.56.858,Info_measure_main_exp,2022.2.2,Win32,59.81576744,,,,,,,,,,,,,,,,,,masks/mask_002.jpg,,,,,,,,,,,,,,,,,,,,,,,,,,,,,,,,,,,,,,,,,,,,,,,,0,2,2,1,1,,,,,,,,,,,,,,,,,,,,,,,,,,,,,,,,,,,,,,,,,
304903,001,2022-11-21_24h54.56.858,Info_measure_main_exp,2022.2.2,Win32,59.81576744,,,,,,,,,,,,,,,,,,masks/mask_003.jpg,,,,,,,,,,,,,,,,,,,,,,,,,,,,,,,,,,,,,,,,,,,,,,,,0,3,3,2,1,,,,,,,,,,,,,,,,,,,,,,,,,,,,,,,,,,,,,,,,,
304903,001,2022-11-21_24h54.56.858,Info_measure_main_exp,2022.2.2,Win32,59.81576744,,,,,,,,,,,,,,,,,,masks/mask_004.jpg,,,,,,,,,,,,,,,,,,,,,,,,,,,,,,,,,,,,,,,,,,,,,,,,0,4,4,3,1,,,,,,,,,,,,,,,,,,,,,,,,,,,,,,,,,,,,,,,,,
304903,001,2022-11-21_24h54.56.858,Info_measure_main_exp,2022.2.2,Win32,59.81576744,,,,,,,,,,,,,,,,,,,,,,,,,,,,,,6,1.2519,1,,,,,,,,,,,,0,131,5,5,2082,2082,absent_patch/patch0002082.jpg,absent_patch/patch0002082.jpg,,,,,,,,,,,,,,,,,,,,0.108333376,0.032407407,1,0,0,response1disk,21,0.002777806,0.000925912,1,0,0,center_square,0,20,20,74,1,,,,,,,,,,,,,,,,,,,,,,,
304903,001,2022-11-21_24h54.56.858,Info_measure_main_exp,2022.2.2,Win32,59.81576744,,,,,,,,,,,,,,,,,,masks/mask_004.jpg,,,,,,,,,,,,,,,,,,,,,,,,,,,,,,,,,,,,,,,,,,,0,0,0,3,1,,,,,,,,,,,,,,,,,,,,,,,,,,,,,,,,,,,,,,,,,,,,,,
304903,001,2022-11-21_24h54.56.858,Info_measure_main_exp,2022.2.2,Win32,59.81576744,,,,,,,,,,,,,,,,,,masks/mask_002.jpg,,,,,,,,,,,,,,,,,,,,,,,,,,,,,,,,,,,,,,,,,,,0,1,1,1,1,,,,,,,,,,,,,,,,,,,,,,,,,,,,,,,,,,,,,,,,,,,,,,
304903,001,2022-11-21_24h54.56.858,Info_measure_main_exp,2022.2.2,Win32,59.81576744,,,,,,,,,,,,,,,,,,masks/mask_005.jpg,,,,,,,,,,,,,,,,,,,,,,,,,,,,,,,,,,,,,,,,,,,0,2,2,4,1,,,,,,,,,,,,,,,,,,,,,,,,,,,,,,,,,,,,,,,,,,,,,,
304903,001,2022-11-21_24h54.56.858,Info_measure_main_exp,2022.2.2,Win32,59.81576744,,,,,,,,,,,,,,,,,,masks/mask_003.jpg,,,,,,,,,,,,,,,,,,,,,,,,,,,,,,,,,,,,,,,,,,,0,3,3,2,1,,,,,,,,,,,,,,,,,,,,,,,,,,,,,,,,,,,,,,,,,,,,,,
304903,001,2022-11-21_24h54.56.858,Info_measure_main_exp,2022.2.2,Win32,59.81576744,,,,,,,,,,,,,,,,,,masks/mask_001.jpg,,,,,,,,,,,,,,,,,,,,,,,,,,,,,,,,,,,,,,,,,,,0,4,4,0,1,,,,,,,,,,,,,,,,,,,,,,,,,,,,,,,,,,,,,,,,,,,,,,
304903,001,2022-11-21_24h54.56.858,Info_measure_main_exp,2022.2.2,Win32,59.81576744,,,,,,,,,,,,,,,,,,masks/mask_001.jpg,,,,,,,,,,,,,,,,,,,,,,,,,,,,,,,,,,,,,,,,,,,,,,,,0,0,0,0,1,,,,,,,,,,,,,,,,,,,,,,,,,,,,,,,,,,,,,,,,,
304903,001,2022-11-21_24h54.56.858,Info_measure_main_exp,2022.2.2,Win32,59.81576744,,,,,,,,,,,,,,,,,,masks/mask_003.jpg,,,,,,,,,,,,,,,,,,,,,,,,,,,,,,,,,,,,,,,,,,,,,,,,0,1,1,2,1,,,,,,,,,,,,,,,,,,,,,,,,,,,,,,,,,,,,,,,,,
304903,001,2022-11-21_24h54.56.858,Info_measure_main_exp,2022.2.2,Win32,59.81576744,,,,,,,,,,,,,,,,,,masks/mask_002.jpg,,,,,,,,,,,,,,,,,,,,,,,,,,,,,,,,,,,,,,,,,,,,,,,,0,2,2,1,1,,,,,,,,,,,,,,,,,,,,,,,,,,,,,,,,,,,,,,,,,
304903,001,2022-11-21_24h54.56.858,Info_measure_main_exp,2022.2.2,Win32,59.81576744,,,,,,,,,,,,,,,,,,masks/mask_005.jpg,,,,,,,,,,,,,,,,,,,,,,,,,,,,,,,,,,,,,,,,,,,,,,,,0,3,3,4,1,,,,,,,,,,,,,,,,,,,,,,,,,,,,,,,,,,,,,,,,,
304903,001,2022-11-21_24h54.56.858,Info_measure_main_exp,2022.2.2,Win32,59.81576744,,,,,,,,,,,,,,,,,,masks/mask_004.jpg,,,,,,,,,,,,,,,,,,,,,,,,,,,,,,,,,,,,,,,,,,,,,,,,0,4,4,3,1,,,,,,,,,,,,,,,,,,,,,,,,,,,,,,,,,,,,,,,,,
304903,001,2022-11-21_24h54.56.858,Info_measure_main_exp,2022.2.2,Win32,59.81576744,,,,,,,,,,,,,,,,,,,,,,,,,,,,,,7,1.0664,1,,,,,,,,,,,,0,131,5,5,2250,2214,absent_patch/patch0002250.jpg,absent_patch/patch0002214.jpg,,,,,,,,,,,,,,,,,,,,0.051851838,0.130555541,1,0,0,response1disk,22,0.003703718,-0.005555577,1,0,0,center_square,0,21,21,97,1,,,,,,,,,,,,,,,,,,,,,,,
304903,001,2022-11-21_24h54.56.858,Info_measure_main_exp,2022.2.2,Win32,59.81576744,,,,,,,,,,,,,,,,,,masks/mask_002.jpg,,,,,,,,,,,,,,,,,,,,,,,,,,,,,,,,,,,,,,,,,,,0,0,0,1,1,,,,,,,,,,,,,,,,,,,,,,,,,,,,,,,,,,,,,,,,,,,,,,
304903,001,2022-11-21_24h54.56.858,Info_measure_main_exp,2022.2.2,Win32,59.81576744,,,,,,,,,,,,,,,,,,masks/mask_004.jpg,,,,,,,,,,,,,,,,,,,,,,,,,,,,,,,,,,,,,,,,,,,0,1,1,3,1,,,,,,,,,,,,,,,,,,,,,,,,,,,,,,,,,,,,,,,,,,,,,,
304903,001,2022-11-21_24h54.56.858,Info_measure_main_exp,2022.2.2,Win32,59.81576744,,,,,,,,,,,,,,,,,,masks/mask_005.jpg,,,,,,,,,,,,,,,,,,,,,,,,,,,,,,,,,,,,,,,,,,,0,2,2,4,1,,,,,,,,,,,,,,,,,,,,,,,,,,,,,,,,,,,,,,,,,,,,,,
304903,001,2022-11-21_24h54.56.858,Info_measure_main_exp,2022.2.2,Win32,59.81576744,,,,,,,,,,,,,,,,,,masks/mask_003.jpg,,,,,,,,,,,,,,,,,,,,,,,,,,,,,,,,,,,,,,,,,,,0,3,3,2,1,,,,,,,,,,,,,,,,,,,,,,,,,,,,,,,,,,,,,,,,,,,,,,
304903,001,2022-11-21_24h54.56.858,Info_measure_main_exp,2022.2.2,Win32,59.81576744,,,,,,,,,,,,,,,,,,masks/mask_001.jpg,,,,,,,,,,,,,,,,,,,,,,,,,,,,,,,,,,,,,,,,,,,0,4,4,0,1,,,,,,,,,,,,,,,,,,,,,,,,,,,,,,,,,,,,,,,,,,,,,,
304903,001,2022-11-21_24h54.56.858,Info_measure_main_exp,2022.2.2,Win32,59.81576744,,,,,,,,,,,,,,,,,,masks/mask_004.jpg,,,,,,,,,,,,,,,,,,,,,,,,,,,,,,,,,,,,,,,,,,,,,,,,0,0,0,3,1,,,,,,,,,,,,,,,,,,,,,,,,,,,,,,,,,,,,,,,,,
304903,001,2022-11-21_24h54.56.858,Info_measure_main_exp,2022.2.2,Win32,59.81576744,,,,,,,,,,,,,,,,,,masks/mask_003.jpg,,,,,,,,,,,,,,,,,,,,,,,,,,,,,,,,,,,,,,,,,,,,,,,,0,1,1,2,1,,,,,,,,,,,,,,,,,,,,,,,,,,,,,,,,,,,,,,,,,
304903,001,2022-11-21_24h54.56.858,Info_measure_main_exp,2022.2.2,Win32,59.81576744,,,,,,,,,,,,,,,,,,masks/mask_001.jpg,,,,,,,,,,,,,,,,,,,,,,,,,,,,,,,,,,,,,,,,,,,,,,,,0,2,2,0,1,,,,,,,,,,,,,,,,,,,,,,,,,,,,,,,,,,,,,,,,,
304903,001,2022-11-21_24h54.56.858,Info_measure_main_exp,2022.2.2,Win32,59.81576744,,,,,,,,,,,,,,,,,,masks/mask_002.jpg,,,,,,,,,,,,,,,,,,,,,,,,,,,,,,,,,,,,,,,,,,,,,,,,0,3,3,1,1,,,,,,,,,,,,,,,,,,,,,,,,,,,,,,,,,,,,,,,,,
304903,001,2022-11-21_24h54.56.858,Info_measure_main_exp,2022.2.2,Win32,59.81576744,,,,,,,,,,,,,,,,,,masks/mask_005.jpg,,,,,,,,,,,,,,,,,,,,,,,,,,,,,,,,,,,,,,,,,,,,,,,,0,4,4,4,1,,,,,,,,,,,,,,,,,,,,,,,,,,,,,,,,,,,,,,,,,
304903,001,2022-11-21_24h54.56.858,Info_measure_main_exp,2022.2.2,Win32,59.81576744,,,,,,,,,,,,,,,,,,,,,,,,,,,,,,7,2.2345,1,,,,,,,,,,,,0,131,5,5,2214,2082,absent_patch/patch0002214.jpg,absent_patch/patch0002082.jpg,,,,,,,,,,,,,,,,,,,,0.060185185,0.091666645,1,0,0,response1disk,23,-0.002777735,0.000925912,1,0,0,center_square,0,22,22,103,1,,,,,,,,,,,,,,,,,,,,,,,
304903,001,2022-11-21_24h54.56.858,Info_measure_main_exp,2022.2.2,Win32,59.81576744,,,,,,,,,,,,,,,,,,masks/mask_004.jpg,,,,,,,,,,,,,,,,,,,,,,,,,,,,,,,,,,,,,,,,,,,0,0,0,3,1,,,,,,,,,,,,,,,,,,,,,,,,,,,,,,,,,,,,,,,,,,,,,,
304903,001,2022-11-21_24h54.56.858,Info_measure_main_exp,2022.2.2,Win32,59.81576744,,,,,,,,,,,,,,,,,,masks/mask_002.jpg,,,,,,,,,,,,,,,,,,,,,,,,,,,,,,,,,,,,,,,,,,,0,1,1,1,1,,,,,,,,,,,,,,,,,,,,,,,,,,,,,,,,,,,,,,,,,,,,,,
304903,001,2022-11-21_24h54.56.858,Info_measure_main_exp,2022.2.2,Win32,59.81576744,,,,,,,,,,,,,,,,,,masks/mask_003.jpg,,,,,,,,,,,,,,,,,,,,,,,,,,,,,,,,,,,,,,,,,,,0,2,2,2,1,,,,,,,,,,,,,,,,,,,,,,,,,,,,,,,,,,,,,,,,,,,,,,
304903,001,2022-11-21_24h54.56.858,Info_measure_main_exp,2022.2.2,Win32,59.81576744,,,,,,,,,,,,,,,,,,masks/mask_005.jpg,,,,,,,,,,,,,,,,,,,,,,,,,,,,,,,,,,,,,,,,,,,0,3,3,4,1,,,,,,,,,,,,,,,,,,,,,,,,,,,,,,,,,,,,,,,,,,,,,,
304903,001,2022-11-21_24h54.56.858,Info_measure_main_exp,2022.2.2,Win32,59.81576744,,,,,,,,,,,,,,,,,,masks/mask_001.jpg,,,,,,,,,,,,,,,,,,,,,,,,,,,,,,,,,,,,,,,,,,,0,4,4,0,1,,,,,,,,,,,,,,,,,,,,,,,,,,,,,,,,,,,,,,,,,,,,,,
304903,001,2022-11-21_24h54.56.858,Info_measure_main_exp,2022.2.2,Win32,59.81576744,,,,,,,,,,,,,,,,,,masks/mask_001.jpg,,,,,,,,,,,,,,,,,,,,,,,,,,,,,,,,,,,,,,,,,,,,,,,,0,0,0,0,1,,,,,,,,,,,,,,,,,,,,,,,,,,,,,,,,,,,,,,,,,
304903,001,2022-11-21_24h54.56.858,Info_measure_main_exp,2022.2.2,Win32,59.81576744,,,,,,,,,,,,,,,,,,masks/mask_003.jpg,,,,,,,,,,,,,,,,,,,,,,,,,,,,,,,,,,,,,,,,,,,,,,,,0,1,1,2,1,,,,,,,,,,,,,,,,,,,,,,,,,,,,,,,,,,,,,,,,,
304903,001,2022-11-21_24h54.56.858,Info_measure_main_exp,2022.2.2,Win32,59.81576744,,,,,,,,,,,,,,,,,,masks/mask_005.jpg,,,,,,,,,,,,,,,,,,,,,,,,,,,,,,,,,,,,,,,,,,,,,,,,0,2,2,4,1,,,,,,,,,,,,,,,,,,,,,,,,,,,,,,,,,,,,,,,,,
304903,001,2022-11-21_24h54.56.858,Info_measure_main_exp,2022.2.2,Win32,59.81576744,,,,,,,,,,,,,,,,,,masks/mask_004.jpg,,,,,,,,,,,,,,,,,,,,,,,,,,,,,,,,,,,,,,,,,,,,,,,,0,3,3,3,1,,,,,,,,,,,,,,,,,,,,,,,,,,,,,,,,,,,,,,,,,
304903,001,2022-11-21_24h54.56.858,Info_measure_main_exp,2022.2.2,Win32,59.81576744,,,,,,,,,,,,,,,,,,masks/mask_002.jpg,,,,,,,,,,,,,,,,,,,,,,,,,,,,,,,,,,,,,,,,,,,,,,,,0,4,4,1,1,,,,,,,,,,,,,,,,,,,,,,,,,,,,,,,,,,,,,,,,,
304903,001,2022-11-21_24h54.56.858,Info_measure_main_exp,2022.2.2,Win32,59.81576744,,,,,,,,,,,,,,,,,,,,,,,,,,,,,,7,0.5335,1,,,,,,,,,,,,1,131,5,5,1,2214,present_patch/cong_131_5_a.jpg,absent_patch/patch0002214.jpg,,,,,,,,,,,,,,,,,,,,0.040740755,0.080555563,1,0,0,response1disk,24,0,0,1,0,0,center_square,0,23,23,4,1,,,,,,,,,,,,,,,,,,,,,,,
304903,001,2022-11-21_24h54.56.858,Info_measure_main_exp,2022.2.2,Win32,59.81576744,,,,,,,,,,,,,,,,,,masks/mask_003.jpg,,,,,,,,,,,,,,,,,,,,,,,,,,,,,,,,,,,,,,,,,,,0,0,0,2,1,,,,,,,,,,,,,,,,,,,,,,,,,,,,,,,,,,,,,,,,,,,,,,
304903,001,2022-11-21_24h54.56.858,Info_measure_main_exp,2022.2.2,Win32,59.81576744,,,,,,,,,,,,,,,,,,masks/mask_004.jpg,,,,,,,,,,,,,,,,,,,,,,,,,,,,,,,,,,,,,,,,,,,0,1,1,3,1,,,,,,,,,,,,,,,,,,,,,,,,,,,,,,,,,,,,,,,,,,,,,,
304903,001,2022-11-21_24h54.56.858,Info_measure_main_exp,2022.2.2,Win32,59.81576744,,,,,,,,,,,,,,,,,,masks/mask_002.jpg,,,,,,,,,,,,,,,,,,,,,,,,,,,,,,,,,,,,,,,,,,,0,2,2,1,1,,,,,,,,,,,,,,,,,,,,,,,,,,,,,,,,,,,,,,,,,,,,,,
304903,001,2022-11-21_24h54.56.858,Info_measure_main_exp,2022.2.2,Win32,59.81576744,,,,,,,,,,,,,,,,,,masks/mask_005.jpg,,,,,,,,,,,,,,,,,,,,,,,,,,,,,,,,,,,,,,,,,,,0,3,3,4,1,,,,,,,,,,,,,,,,,,,,,,,,,,,,,,,,,,,,,,,,,,,,,,
304903,001,2022-11-21_24h54.56.858,Info_measure_main_exp,2022.2.2,Win32,59.81576744,,,,,,,,,,,,,,,,,,masks/mask_001.jpg,,,,,,,,,,,,,,,,,,,,,,,,,,,,,,,,,,,,,,,,,,,0,4,4,0,1,,,,,,,,,,,,,,,,,,,,,,,,,,,,,,,,,,,,,,,,,,,,,,
304903,001,2022-11-21_24h54.56.858,Info_measure_main_exp,2022.2.2,Win32,59.81576744,,,,,,,,,,,,,,,,,,masks/mask_001.jpg,,,,,,,,,,,,,,,,,,,,,,,,,,,,,,,,,,,,,,,,,,,,,,,,0,0,0,0,1,,,,,,,,,,,,,,,,,,,,,,,,,,,,,,,,,,,,,,,,,
304903,001,2022-11-21_24h54.56.858,Info_measure_main_exp,2022.2.2,Win32,59.81576744,,,,,,,,,,,,,,,,,,masks/mask_002.jpg,,,,,,,,,,,,,,,,,,,,,,,,,,,,,,,,,,,,,,,,,,,,,,,,0,1,1,1,1,,,,,,,,,,,,,,,,,,,,,,,,,,,,,,,,,,,,,,,,,
304903,001,2022-11-21_24h54.56.858,Info_measure_main_exp,2022.2.2,Win32,59.81576744,,,,,,,,,,,,,,,,,,masks/mask_004.jpg,,,,,,,,,,,,,,,,,,,,,,,,,,,,,,,,,,,,,,,,,,,,,,,,0,2,2,3,1,,,,,,,,,,,,,,,,,,,,,,,,,,,,,,,,,,,,,,,,,
304903,001,2022-11-21_24h54.56.858,Info_measure_main_exp,2022.2.2,Win32,59.81576744,,,,,,,,,,,,,,,,,,masks/mask_005.jpg,,,,,,,,,,,,,,,,,,,,,,,,,,,,,,,,,,,,,,,,,,,,,,,,0,3,3,4,1,,,,,,,,,,,,,,,,,,,,,,,,,,,,,,,,,,,,,,,,,
304903,001,2022-11-21_24h54.56.858,Info_measure_main_exp,2022.2.2,Win32,59.81576744,,,,,,,,,,,,,,,,,,masks/mask_003.jpg,,,,,,,,,,,,,,,,,,,,,,,,,,,,,,,,,,,,,,,,,,,,,,,,0,4,4,2,1,,,,,,,,,,,,,,,,,,,,,,,,,,,,,,,,,,,,,,,,,
304903,001,2022-11-21_24h54.56.858,Info_measure_main_exp,2022.2.2,Win32,59.81576744,,,,,,,,,,,,,,,,,,,,,,,,,,,,,,6,0.6841,1,,,,,,,,,,,,0,131,5,5,2238,2298,absent_patch/patch0002238.jpg,absent_patch/patch0002298.jpg,,,,,,,,,,,,,,,,,,,,0.10092594,0.050925926,1,0,0,response1disk,25,0.009259259,0.001851859,1,0,0,center_square,0,24,24,51,1,,,,,,,,,,,,,,,,,,,,,,,
304903,001,2022-11-21_24h54.56.858,Info_measure_main_exp,2022.2.2,Win32,59.81576744,,,,,,,,,,,,,,,,,,masks/mask_005.jpg,,,,,,,,,,,,,,,,,,,,,,,,,,,,,,,,,,,,,,,,,,,0,0,0,4,1,,,,,,,,,,,,,,,,,,,,,,,,,,,,,,,,,,,,,,,,,,,,,,
304903,001,2022-11-21_24h54.56.858,Info_measure_main_exp,2022.2.2,Win32,59.81576744,,,,,,,,,,,,,,,,,,masks/mask_002.jpg,,,,,,,,,,,,,,,,,,,,,,,,,,,,,,,,,,,,,,,,,,,0,1,1,1,1,,,,,,,,,,,,,,,,,,,,,,,,,,,,,,,,,,,,,,,,,,,,,,
304903,001,2022-11-21_24h54.56.858,Info_measure_main_exp,2022.2.2,Win32,59.81576744,,,,,,,,,,,,,,,,,,masks/mask_003.jpg,,,,,,,,,,,,,,,,,,,,,,,,,,,,,,,,,,,,,,,,,,,0,2,2,2,1,,,,,,,,,,,,,,,,,,,,,,,,,,,,,,,,,,,,,,,,,,,,,,
304903,001,2022-11-21_24h54.56.858,Info_measure_main_exp,2022.2.2,Win32,59.81576744,,,,,,,,,,,,,,,,,,masks/mask_004.jpg,,,,,,,,,,,,,,,,,,,,,,,,,,,,,,,,,,,,,,,,,,,0,3,3,3,1,,,,,,,,,,,,,,,,,,,,,,,,,,,,,,,,,,,,,,,,,,,,,,
304903,001,2022-11-21_24h54.56.858,Info_measure_main_exp,2022.2.2,Win32,59.81576744,,,,,,,,,,,,,,,,,,masks/mask_001.jpg,,,,,,,,,,,,,,,,,,,,,,,,,,,,,,,,,,,,,,,,,,,0,4,4,0,1,,,,,,,,,,,,,,,,,,,,,,,,,,,,,,,,,,,,,,,,,,,,,,
304903,001,2022-11-21_24h54.56.858,Info_measure_main_exp,2022.2.2,Win32,59.81576744,,,,,,,,,,,,,,,,,,masks/mask_003.jpg,,,,,,,,,,,,,,,,,,,,,,,,,,,,,,,,,,,,,,,,,,,,,,,,0,0,0,2,1,,,,,,,,,,,,,,,,,,,,,,,,,,,,,,,,,,,,,,,,,
304903,001,2022-11-21_24h54.56.858,Info_measure_main_exp,2022.2.2,Win32,59.81576744,,,,,,,,,,,,,,,,,,masks/mask_002.jpg,,,,,,,,,,,,,,,,,,,,,,,,,,,,,,,,,,,,,,,,,,,,,,,,0,1,1,1,1,,,,,,,,,,,,,,,,,,,,,,,,,,,,,,,,,,,,,,,,,
304903,001,2022-11-21_24h54.56.858,Info_measure_main_exp,2022.2.2,Win32,59.81576744,,,,,,,,,,,,,,,,,,masks/mask_004.jpg,,,,,,,,,,,,,,,,,,,,,,,,,,,,,,,,,,,,,,,,,,,,,,,,0,2,2,3,1,,,,,,,,,,,,,,,,,,,,,,,,,,,,,,,,,,,,,,,,,
304903,001,2022-11-21_24h54.56.858,Info_measure_main_exp,2022.2.2,Win32,59.81576744,,,,,,,,,,,,,,,,,,masks/mask_001.jpg,,,,,,,,,,,,,,,,,,,,,,,,,,,,,,,,,,,,,,,,,,,,,,,,0,3,3,0,1,,,,,,,,,,,,,,,,,,,,,,,,,,,,,,,,,,,,,,,,,
304903,001,2022-11-21_24h54.56.858,Info_measure_main_exp,2022.2.2,Win32,59.81576744,,,,,,,,,,,,,,,,,,masks/mask_005.jpg,,,,,,,,,,,,,,,,,,,,,,,,,,,,,,,,,,,,,,,,,,,,,,,,0,4,4,4,1,,,,,,,,,,,,,,,,,,,,,,,,,,,,,,,,,,,,,,,,,
304903,001,2022-11-21_24h54.56.858,Info_measure_main_exp,2022.2.2,Win32,59.81576744,,,,,,,,,,,,,,,,,,,,,,,,,,,,,,7,0.501,1,,,,,,,,,,,,0,131,5,5,2082,1986,absent_patch/patch0002082.jpg,absent_patch/patch0001986.jpg,,,,,,,,,,,,,,,,,,,,0.083333333,0.12037037,1,0,0,response1disk,26,0.003703718,0.006481489,1,0,0,center_square,0,25,25,94,1,,,,,,,,,,,,,,,,,,,,,,,
304903,001,2022-11-21_24h54.56.858,Info_measure_main_exp,2022.2.2,Win32,59.81576744,,,,,,,,,,,,,,,,,,masks/mask_001.jpg,,,,,,,,,,,,,,,,,,,,,,,,,,,,,,,,,,,,,,,,,,,0,0,0,0,1,,,,,,,,,,,,,,,,,,,,,,,,,,,,,,,,,,,,,,,,,,,,,,
304903,001,2022-11-21_24h54.56.858,Info_measure_main_exp,2022.2.2,Win32,59.81576744,,,,,,,,,,,,,,,,,,masks/mask_003.jpg,,,,,,,,,,,,,,,,,,,,,,,,,,,,,,,,,,,,,,,,,,,0,1,1,2,1,,,,,,,,,,,,,,,,,,,,,,,,,,,,,,,,,,,,,,,,,,,,,,
304903,001,2022-11-21_24h54.56.858,Info_measure_main_exp,2022.2.2,Win32,59.81576744,,,,,,,,,,,,,,,,,,masks/mask_004.jpg,,,,,,,,,,,,,,,,,,,,,,,,,,,,,,,,,,,,,,,,,,,0,2,2,3,1,,,,,,,,,,,,,,,,,,,,,,,,,,,,,,,,,,,,,,,,,,,,,,
304903,001,2022-11-21_24h54.56.858,Info_measure_main_exp,2022.2.2,Win32,59.81576744,,,,,,,,,,,,,,,,,,masks/mask_002.jpg,,,,,,,,,,,,,,,,,,,,,,,,,,,,,,,,,,,,,,,,,,,0,3,3,1,1,,,,,,,,,,,,,,,,,,,,,,,,,,,,,,,,,,,,,,,,,,,,,,
304903,001,2022-11-21_24h54.56.858,Info_measure_main_exp,2022.2.2,Win32,59.81576744,,,,,,,,,,,,,,,,,,masks/mask_005.jpg,,,,,,,,,,,,,,,,,,,,,,,,,,,,,,,,,,,,,,,,,,,0,4,4,4,1,,,,,,,,,,,,,,,,,,,,,,,,,,,,,,,,,,,,,,,,,,,,,,
304903,001,2022-11-21_24h54.56.858,Info_measure_main_exp,2022.2.2,Win32,59.81576744,,,,,,,,,,,,,,,,,,masks/mask_002.jpg,,,,,,,,,,,,,,,,,,,,,,,,,,,,,,,,,,,,,,,,,,,,,,,,0,0,0,1,1,,,,,,,,,,,,,,,,,,,,,,,,,,,,,,,,,,,,,,,,,
304903,001,2022-11-21_24h54.56.858,Info_measure_main_exp,2022.2.2,Win32,59.81576744,,,,,,,,,,,,,,,,,,masks/mask_005.jpg,,,,,,,,,,,,,,,,,,,,,,,,,,,,,,,,,,,,,,,,,,,,,,,,0,1,1,4,1,,,,,,,,,,,,,,,,,,,,,,,,,,,,,,,,,,,,,,,,,
304903,001,2022-11-21_24h54.56.858,Info_measure_main_exp,2022.2.2,Win32,59.81576744,,,,,,,,,,,,,,,,,,masks/mask_003.jpg,,,,,,,,,,,,,,,,,,,,,,,,,,,,,,,,,,,,,,,,,,,,,,,,0,2,2,2,1,,,,,,,,,,,,,,,,,,,,,,,,,,,,,,,,,,,,,,,,,
304903,001,2022-11-21_24h54.56.858,Info_measure_main_exp,2022.2.2,Win32,59.81576744,,,,,,,,,,,,,,,,,,masks/mask_004.jpg,,,,,,,,,,,,,,,,,,,,,,,,,,,,,,,,,,,,,,,,,,,,,,,,0,3,3,3,1,,,,,,,,,,,,,,,,,,,,,,,,,,,,,,,,,,,,,,,,,
304903,001,2022-11-21_24h54.56.858,Info_measure_main_exp,2022.2.2,Win32,59.81576744,,,,,,,,,,,,,,,,,,masks/mask_001.jpg,,,,,,,,,,,,,,,,,,,,,,,,,,,,,,,,,,,,,,,,,,,,,,,,0,4,4,0,1,,,,,,,,,,,,,,,,,,,,,,,,,,,,,,,,,,,,,,,,,
304903,001,2022-11-21_24h54.56.858,Info_measure_main_exp,2022.2.2,Win32,59.81576744,,,,,,,,,,,,,,,,,,,,,,,,,,,,,,7,0.5675,1,,,,,,,,,,,,0,131,5,5,1950,2214,absent_patch/patch0001950.jpg,absent_patch/patch0002214.jpg,,,,,,,,,,,,,,,,,,,,0.090740769,0.111111111,1,0,0,response1disk,27,-0.006481453,-0.000925947,1,0,0,center_square,0,26,26,85,1,,,,,,,,,,,,,,,,,,,,,,,
304903,001,2022-11-21_24h54.56.858,Info_measure_main_exp,2022.2.2,Win32,59.81576744,,,,,,,,,,,,,,,,,,masks/mask_002.jpg,,,,,,,,,,,,,,,,,,,,,,,,,,,,,,,,,,,,,,,,,,,0,0,0,1,1,,,,,,,,,,,,,,,,,,,,,,,,,,,,,,,,,,,,,,,,,,,,,,
304903,001,2022-11-21_24h54.56.858,Info_measure_main_exp,2022.2.2,Win32,59.81576744,,,,,,,,,,,,,,,,,,masks/mask_005.jpg,,,,,,,,,,,,,,,,,,,,,,,,,,,,,,,,,,,,,,,,,,,0,1,1,4,1,,,,,,,,,,,,,,,,,,,,,,,,,,,,,,,,,,,,,,,,,,,,,,
304903,001,2022-11-21_24h54.56.858,Info_measure_main_exp,2022.2.2,Win32,59.81576744,,,,,,,,,,,,,,,,,,masks/mask_003.jpg,,,,,,,,,,,,,,,,,,,,,,,,,,,,,,,,,,,,,,,,,,,0,2,2,2,1,,,,,,,,,,,,,,,,,,,,,,,,,,,,,,,,,,,,,,,,,,,,,,
304903,001,2022-11-21_24h54.56.858,Info_measure_main_exp,2022.2.2,Win32,59.81576744,,,,,,,,,,,,,,,,,,masks/mask_004.jpg,,,,,,,,,,,,,,,,,,,,,,,,,,,,,,,,,,,,,,,,,,,0,3,3,3,1,,,,,,,,,,,,,,,,,,,,,,,,,,,,,,,,,,,,,,,,,,,,,,
304903,001,2022-11-21_24h54.56.858,Info_measure_main_exp,2022.2.2,Win32,59.81576744,,,,,,,,,,,,,,,,,,masks/mask_001.jpg,,,,,,,,,,,,,,,,,,,,,,,,,,,,,,,,,,,,,,,,,,,0,4,4,0,1,,,,,,,,,,,,,,,,,,,,,,,,,,,,,,,,,,,,,,,,,,,,,,
304903,001,2022-11-21_24h54.56.858,Info_measure_main_exp,2022.2.2,Win32,59.81576744,,,,,,,,,,,,,,,,,,masks/mask_001.jpg,,,,,,,,,,,,,,,,,,,,,,,,,,,,,,,,,,,,,,,,,,,,,,,,0,0,0,0,1,,,,,,,,,,,,,,,,,,,,,,,,,,,,,,,,,,,,,,,,,
304903,001,2022-11-21_24h54.56.858,Info_measure_main_exp,2022.2.2,Win32,59.81576744,,,,,,,,,,,,,,,,,,masks/mask_004.jpg,,,,,,,,,,,,,,,,,,,,,,,,,,,,,,,,,,,,,,,,,,,,,,,,0,1,1,3,1,,,,,,,,,,,,,,,,,,,,,,,,,,,,,,,,,,,,,,,,,
304903,001,2022-11-21_24h54.56.858,Info_measure_main_exp,2022.2.2,Win32,59.81576744,,,,,,,,,,,,,,,,,,masks/mask_003.jpg,,,,,,,,,,,,,,,,,,,,,,,,,,,,,,,,,,,,,,,,,,,,,,,,0,2,2,2,1,,,,,,,,,,,,,,,,,,,,,,,,,,,,,,,,,,,,,,,,,
304903,001,2022-11-21_24h54.56.858,Info_measure_main_exp,2022.2.2,Win32,59.81576744,,,,,,,,,,,,,,,,,,masks/mask_005.jpg,,,,,,,,,,,,,,,,,,,,,,,,,,,,,,,,,,,,,,,,,,,,,,,,0,3,3,4,1,,,,,,,,,,,,,,,,,,,,,,,,,,,,,,,,,,,,,,,,,
304903,001,2022-11-21_24h54.56.858,Info_measure_main_exp,2022.2.2,Win32,59.81576744,,,,,,,,,,,,,,,,,,masks/mask_002.jpg,,,,,,,,,,,,,,,,,,,,,,,,,,,,,,,,,,,,,,,,,,,,,,,,0,4,4,1,1,,,,,,,,,,,,,,,,,,,,,,,,,,,,,,,,,,,,,,,,,
304903,001,2022-11-21_24h54.56.858,Info_measure_main_exp,2022.2.2,Win32,59.81576744,,,,,,,,,,,,,,,,,,,,,,,,,,,,,,6,0.5504,1,,,,,,,,,,,,0,131,5,5,2214,2142,absent_patch/patch0002214.jpg,absent_patch/patch0002142.jpg,,,,,,,,,,,,,,,,,,,,0.098148134,0.043518526,1,0,0,response1disk,28,0.014814801,-0.003703718,1,0,0,center_square,0,27,27,102,1,,,,,,,,,,,,,,,,,,,,,,,
304903,001,2022-11-21_24h54.56.858,Info_measure_main_exp,2022.2.2,Win32,59.81576744,,,,,,,,,,,,,,,,,,masks/mask_003.jpg,,,,,,,,,,,,,,,,,,,,,,,,,,,,,,,,,,,,,,,,,,,0,0,0,2,1,,,,,,,,,,,,,,,,,,,,,,,,,,,,,,,,,,,,,,,,,,,,,,
304903,001,2022-11-21_24h54.56.858,Info_measure_main_exp,2022.2.2,Win32,59.81576744,,,,,,,,,,,,,,,,,,masks/mask_004.jpg,,,,,,,,,,,,,,,,,,,,,,,,,,,,,,,,,,,,,,,,,,,0,1,1,3,1,,,,,,,,,,,,,,,,,,,,,,,,,,,,,,,,,,,,,,,,,,,,,,
304903,001,2022-11-21_24h54.56.858,Info_measure_main_exp,2022.2.2,Win32,59.81576744,,,,,,,,,,,,,,,,,,masks/mask_005.jpg,,,,,,,,,,,,,,,,,,,,,,,,,,,,,,,,,,,,,,,,,,,0,2,2,4,1,,,,,,,,,,,,,,,,,,,,,,,,,,,,,,,,,,,,,,,,,,,,,,
304903,001,2022-11-21_24h54.56.858,Info_measure_main_exp,2022.2.2,Win32,59.81576744,,,,,,,,,,,,,,,,,,masks/mask_001.jpg,,,,,,,,,,,,,,,,,,,,,,,,,,,,,,,,,,,,,,,,,,,0,3,3,0,1,,,,,,,,,,,,,,,,,,,,,,,,,,,,,,,,,,,,,,,,,,,,,,
304903,001,2022-11-21_24h54.56.858,Info_measure_main_exp,2022.2.2,Win32,59.81576744,,,,,,,,,,,,,,,,,,masks/mask_002.jpg,,,,,,,,,,,,,,,,,,,,,,,,,,,,,,,,,,,,,,,,,,,0,4,4,1,1,,,,,,,,,,,,,,,,,,,,,,,,,,,,,,,,,,,,,,,,,,,,,,
304903,001,2022-11-21_24h54.56.858,Info_measure_main_exp,2022.2.2,Win32,59.81576744,,,,,,,,,,,,,,,,,,masks/mask_002.jpg,,,,,,,,,,,,,,,,,,,,,,,,,,,,,,,,,,,,,,,,,,,,,,,,0,0,0,1,1,,,,,,,,,,,,,,,,,,,,,,,,,,,,,,,,,,,,,,,,,
304903,001,2022-11-21_24h54.56.858,Info_measure_main_exp,2022.2.2,Win32,59.81576744,,,,,,,,,,,,,,,,,,masks/mask_001.jpg,,,,,,,,,,,,,,,,,,,,,,,,,,,,,,,,,,,,,,,,,,,,,,,,0,1,1,0,1,,,,,,,,,,,,,,,,,,,,,,,,,,,,,,,,,,,,,,,,,
304903,001,2022-11-21_24h54.56.858,Info_measure_main_exp,2022.2.2,Win32,59.81576744,,,,,,,,,,,,,,,,,,masks/mask_003.jpg,,,,,,,,,,,,,,,,,,,,,,,,,,,,,,,,,,,,,,,,,,,,,,,,0,2,2,2,1,,,,,,,,,,,,,,,,,,,,,,,,,,,,,,,,,,,,,,,,,
304903,001,2022-11-21_24h54.56.858,Info_measure_main_exp,2022.2.2,Win32,59.81576744,,,,,,,,,,,,,,,,,,masks/mask_004.jpg,,,,,,,,,,,,,,,,,,,,,,,,,,,,,,,,,,,,,,,,,,,,,,,,0,3,3,3,1,,,,,,,,,,,,,,,,,,,,,,,,,,,,,,,,,,,,,,,,,
304903,001,2022-11-21_24h54.56.858,Info_measure_main_exp,2022.2.2,Win32,59.81576744,,,,,,,,,,,,,,,,,,masks/mask_005.jpg,,,,,,,,,,,,,,,,,,,,,,,,,,,,,,,,,,,,,,,,,,,,,,,,0,4,4,4,1,,,,,,,,,,,,,,,,,,,,,,,,,,,,,,,,,,,,,,,,,
304903,001,2022-11-21_24h54.56.858,Info_measure_main_exp,2022.2.2,Win32,59.81576744,,,,,,,,,,,,,,,,,,,,,,,,,,,,,,7,0.5161,1,,,,,,,,,,,,0,131,5,5,2142,2190,absent_patch/patch0002142.jpg,absent_patch/patch0002190.jpg,,,,,,,,,,,,,,,,,,,,0.044444473,0.145370377,1,0,0,response1disk,29,-0.000925912,-0.01203703,1,0,0,center_square,0,28,28,70,1,,,,,,,,,,,,,,,,,,,,,,,
304903,001,2022-11-21_24h54.56.858,Info_measure_main_exp,2022.2.2,Win32,59.81576744,,,,,,,,,,,,,,,,,,masks/mask_003.jpg,,,,,,,,,,,,,,,,,,,,,,,,,,,,,,,,,,,,,,,,,,,0,0,0,2,1,,,,,,,,,,,,,,,,,,,,,,,,,,,,,,,,,,,,,,,,,,,,,,
304903,001,2022-11-21_24h54.56.858,Info_measure_main_exp,2022.2.2,Win32,59.81576744,,,,,,,,,,,,,,,,,,masks/mask_005.jpg,,,,,,,,,,,,,,,,,,,,,,,,,,,,,,,,,,,,,,,,,,,0,1,1,4,1,,,,,,,,,,,,,,,,,,,,,,,,,,,,,,,,,,,,,,,,,,,,,,
304903,001,2022-11-21_24h54.56.858,Info_measure_main_exp,2022.2.2,Win32,59.81576744,,,,,,,,,,,,,,,,,,masks/mask_001.jpg,,,,,,,,,,,,,,,,,,,,,,,,,,,,,,,,,,,,,,,,,,,0,2,2,0,1,,,,,,,,,,,,,,,,,,,,,,,,,,,,,,,,,,,,,,,,,,,,,,
304903,001,2022-11-21_24h54.56.858,Info_measure_main_exp,2022.2.2,Win32,59.81576744,,,,,,,,,,,,,,,,,,masks/mask_004.jpg,,,,,,,,,,,,,,,,,,,,,,,,,,,,,,,,,,,,,,,,,,,0,3,3,3,1,,,,,,,,,,,,,,,,,,,,,,,,,,,,,,,,,,,,,,,,,,,,,,
304903,001,2022-11-21_24h54.56.858,Info_measure_main_exp,2022.2.2,Win32,59.81576744,,,,,,,,,,,,,,,,,,masks/mask_002.jpg,,,,,,,,,,,,,,,,,,,,,,,,,,,,,,,,,,,,,,,,,,,0,4,4,1,1,,,,,,,,,,,,,,,,,,,,,,,,,,,,,,,,,,,,,,,,,,,,,,
304903,001,2022-11-21_24h54.56.858,Info_measure_main_exp,2022.2.2,Win32,59.81576744,,,,,,,,,,,,,,,,,,masks/mask_003.jpg,,,,,,,,,,,,,,,,,,,,,,,,,,,,,,,,,,,,,,,,,,,,,,,,0,0,0,2,1,,,,,,,,,,,,,,,,,,,,,,,,,,,,,,,,,,,,,,,,,
304903,001,2022-11-21_24h54.56.858,Info_measure_main_exp,2022.2.2,Win32,59.81576744,,,,,,,,,,,,,,,,,,masks/mask_004.jpg,,,,,,,,,,,,,,,,,,,,,,,,,,,,,,,,,,,,,,,,,,,,,,,,0,1,1,3,1,,,,,,,,,,,,,,,,,,,,,,,,,,,,,,,,,,,,,,,,,
304903,001,2022-11-21_24h54.56.858,Info_measure_main_exp,2022.2.2,Win32,59.81576744,,,,,,,,,,,,,,,,,,masks/mask_002.jpg,,,,,,,,,,,,,,,,,,,,,,,,,,,,,,,,,,,,,,,,,,,,,,,,0,2,2,1,1,,,,,,,,,,,,,,,,,,,,,,,,,,,,,,,,,,,,,,,,,
304903,001,2022-11-21_24h54.56.858,Info_measure_main_exp,2022.2.2,Win32,59.81576744,,,,,,,,,,,,,,,,,,masks/mask_005.jpg,,,,,,,,,,,,,,,,,,,,,,,,,,,,,,,,,,,,,,,,,,,,,,,,0,3,3,4,1,,,,,,,,,,,,,,,,,,,,,,,,,,,,,,,,,,,,,,,,,
304903,001,2022-11-21_24h54.56.858,Info_measure_main_exp,2022.2.2,Win32,59.81576744,,,,,,,,,,,,,,,,,,masks/mask_001.jpg,,,,,,,,,,,,,,,,,,,,,,,,,,,,,,,,,,,,,,,,,,,,,,,,0,4,4,0,1,,,,,,,,,,,,,,,,,,,,,,,,,,,,,,,,,,,,,,,,,
304903,001,2022-11-21_24h54.56.858,Info_measure_main_exp,2022.2.2,Win32,59.81576744,,,,,,,,,,,,,,,,,,,,,,,,,,,,,,7,0.7851,1,,,,,,,,,,,,0,131,5,5,2250,2298,absent_patch/patch0002250.jpg,absent_patch/patch0002298.jpg,,,,,,,,,,,,,,,,,,,,0.054629644,0.103703711,1,0,0,response1disk,30,0.003703718,-0.0074074,1,0,0,center_square,0,29,29,59,1,,,,,,,,,,,,,,,,,,,,,,,
304903,001,2022-11-21_24h54.56.858,Info_measure_main_exp,2022.2.2,Win32,59.81576744,,,,,,,,,,,,,,,,,,masks/mask_004.jpg,,,,,,,,,,,,,,,,,,,,,,,,,,,,,,,,,,,,,,,,,,,0,0,0,3,1,,,,,,,,,,,,,,,,,,,,,,,,,,,,,,,,,,,,,,,,,,,,,,
304903,001,2022-11-21_24h54.56.858,Info_measure_main_exp,2022.2.2,Win32,59.81576744,,,,,,,,,,,,,,,,,,masks/mask_002.jpg,,,,,,,,,,,,,,,,,,,,,,,,,,,,,,,,,,,,,,,,,,,0,1,1,1,1,,,,,,,,,,,,,,,,,,,,,,,,,,,,,,,,,,,,,,,,,,,,,,
304903,001,2022-11-21_24h54.56.858,Info_measure_main_exp,2022.2.2,Win32,59.81576744,,,,,,,,,,,,,,,,,,masks/mask_005.jpg,,,,,,,,,,,,,,,,,,,,,,,,,,,,,,,,,,,,,,,,,,,0,2,2,4,1,,,,,,,,,,,,,,,,,,,,,,,,,,,,,,,,,,,,,,,,,,,,,,
304903,001,2022-11-21_24h54.56.858,Info_measure_main_exp,2022.2.2,Win32,59.81576744,,,,,,,,,,,,,,,,,,masks/mask_001.jpg,,,,,,,,,,,,,,,,,,,,,,,,,,,,,,,,,,,,,,,,,,,0,3,3,0,1,,,,,,,,,,,,,,,,,,,,,,,,,,,,,,,,,,,,,,,,,,,,,,
304903,001,2022-11-21_24h54.56.858,Info_measure_main_exp,2022.2.2,Win32,59.81576744,,,,,,,,,,,,,,,,,,masks/mask_003.jpg,,,,,,,,,,,,,,,,,,,,,,,,,,,,,,,,,,,,,,,,,,,0,4,4,2,1,,,,,,,,,,,,,,,,,,,,,,,,,,,,,,,,,,,,,,,,,,,,,,
304903,001,2022-11-21_24h54.56.858,Info_measure_main_exp,2022.2.2,Win32,59.81576744,,,,,,,,,,,,,,,,,,masks/mask_003.jpg,,,,,,,,,,,,,,,,,,,,,,,,,,,,,,,,,,,,,,,,,,,,,,,,0,0,0,2,1,,,,,,,,,,,,,,,,,,,,,,,,,,,,,,,,,,,,,,,,,
304903,001,2022-11-21_24h54.56.858,Info_measure_main_exp,2022.2.2,Win32,59.81576744,,,,,,,,,,,,,,,,,,masks/mask_002.jpg,,,,,,,,,,,,,,,,,,,,,,,,,,,,,,,,,,,,,,,,,,,,,,,,0,1,1,1,1,,,,,,,,,,,,,,,,,,,,,,,,,,,,,,,,,,,,,,,,,
304903,001,2022-11-21_24h54.56.858,Info_measure_main_exp,2022.2.2,Win32,59.81576744,,,,,,,,,,,,,,,,,,masks/mask_001.jpg,,,,,,,,,,,,,,,,,,,,,,,,,,,,,,,,,,,,,,,,,,,,,,,,0,2,2,0,1,,,,,,,,,,,,,,,,,,,,,,,,,,,,,,,,,,,,,,,,,
304903,001,2022-11-21_24h54.56.858,Info_measure_main_exp,2022.2.2,Win32,59.81576744,,,,,,,,,,,,,,,,,,masks/mask_005.jpg,,,,,,,,,,,,,,,,,,,,,,,,,,,,,,,,,,,,,,,,,,,,,,,,0,3,3,4,1,,,,,,,,,,,,,,,,,,,,,,,,,,,,,,,,,,,,,,,,,
304903,001,2022-11-21_24h54.56.858,Info_measure_main_exp,2022.2.2,Win32,59.81576744,,,,,,,,,,,,,,,,,,masks/mask_004.jpg,,,,,,,,,,,,,,,,,,,,,,,,,,,,,,,,,,,,,,,,,,,,,,,,0,4,4,3,1,,,,,,,,,,,,,,,,,,,,,,,,,,,,,,,,,,,,,,,,,
304903,001,2022-11-21_24h54.56.858,Info_measure_main_exp,2022.2.2,Win32,59.81576744,,,,,,,,,,,,,,,,,,,,,,,,,,,,,,5,1.2995,1,,,,,,,,,,,,0,131,5,5,1974,2178,absent_patch/patch0001974.jpg,absent_patch/patch0002178.jpg,,,,,,,,,,,,,,,,,,,,0.102777764,-0.066666674,1,0,0,response3disk,31,-0.002777735,0.003703683,1,0,0,center_square,0,30,30,44,1,,,,,,,,,,,,,,,,,,,,,,,
304903,001,2022-11-21_24h54.56.858,Info_measure_main_exp,2022.2.2,Win32,59.81576744,,,,,,,,,,,,,,,,,,masks/mask_003.jpg,,,,,,,,,,,,,,,,,,,,,,,,,,,,,,,,,,,,,,,,,,,0,0,0,2,1,,,,,,,,,,,,,,,,,,,,,,,,,,,,,,,,,,,,,,,,,,,,,,
304903,001,2022-11-21_24h54.56.858,Info_measure_main_exp,2022.2.2,Win32,59.81576744,,,,,,,,,,,,,,,,,,masks/mask_001.jpg,,,,,,,,,,,,,,,,,,,,,,,,,,,,,,,,,,,,,,,,,,,0,1,1,0,1,,,,,,,,,,,,,,,,,,,,,,,,,,,,,,,,,,,,,,,,,,,,,,
304903,001,2022-11-21_24h54.56.858,Info_measure_main_exp,2022.2.2,Win32,59.81576744,,,,,,,,,,,,,,,,,,masks/mask_004.jpg,,,,,,,,,,,,,,,,,,,,,,,,,,,,,,,,,,,,,,,,,,,0,2,2,3,1,,,,,,,,,,,,,,,,,,,,,,,,,,,,,,,,,,,,,,,,,,,,,,
304903,001,2022-11-21_24h54.56.858,Info_measure_main_exp,2022.2.2,Win32,59.81576744,,,,,,,,,,,,,,,,,,masks/mask_005.jpg,,,,,,,,,,,,,,,,,,,,,,,,,,,,,,,,,,,,,,,,,,,0,3,3,4,1,,,,,,,,,,,,,,,,,,,,,,,,,,,,,,,,,,,,,,,,,,,,,,
304903,001,2022-11-21_24h54.56.858,Info_measure_main_exp,2022.2.2,Win32,59.81576744,,,,,,,,,,,,,,,,,,masks/mask_002.jpg,,,,,,,,,,,,,,,,,,,,,,,,,,,,,,,,,,,,,,,,,,,0,4,4,1,1,,,,,,,,,,,,,,,,,,,,,,,,,,,,,,,,,,,,,,,,,,,,,,
304903,001,2022-11-21_24h54.56.858,Info_measure_main_exp,2022.2.2,Win32,59.81576744,,,,,,,,,,,,,,,,,,masks/mask_003.jpg,,,,,,,,,,,,,,,,,,,,,,,,,,,,,,,,,,,,,,,,,,,,,,,,0,0,0,2,1,,,,,,,,,,,,,,,,,,,,,,,,,,,,,,,,,,,,,,,,,
304903,001,2022-11-21_24h54.56.858,Info_measure_main_exp,2022.2.2,Win32,59.81576744,,,,,,,,,,,,,,,,,,masks/mask_002.jpg,,,,,,,,,,,,,,,,,,,,,,,,,,,,,,,,,,,,,,,,,,,,,,,,0,1,1,1,1,,,,,,,,,,,,,,,,,,,,,,,,,,,,,,,,,,,,,,,,,
304903,001,2022-11-21_24h54.56.858,Info_measure_main_exp,2022.2.2,Win32,59.81576744,,,,,,,,,,,,,,,,,,masks/mask_001.jpg,,,,,,,,,,,,,,,,,,,,,,,,,,,,,,,,,,,,,,,,,,,,,,,,0,2,2,0,1,,,,,,,,,,,,,,,,,,,,,,,,,,,,,,,,,,,,,,,,,
304903,001,2022-11-21_24h54.56.858,Info_measure_main_exp,2022.2.2,Win32,59.81576744,,,,,,,,,,,,,,,,,,masks/mask_004.jpg,,,,,,,,,,,,,,,,,,,,,,,,,,,,,,,,,,,,,,,,,,,,,,,,0,3,3,3,1,,,,,,,,,,,,,,,,,,,,,,,,,,,,,,,,,,,,,,,,,
304903,001,2022-11-21_24h54.56.858,Info_measure_main_exp,2022.2.2,Win32,59.81576744,,,,,,,,,,,,,,,,,,masks/mask_005.jpg,,,,,,,,,,,,,,,,,,,,,,,,,,,,,,,,,,,,,,,,,,,,,,,,0,4,4,4,1,,,,,,,,,,,,,,,,,,,,,,,,,,,,,,,,,,,,,,,,,
304903,001,2022-11-21_24h54.56.858,Info_measure_main_exp,2022.2.2,Win32,59.81576744,,,,,,,,,,,,,,,,,,,,,,,,,,,,,,0,1.0181,1,,,,,,,,,,,,0,131,5,5,1974,1950,absent_patch/patch0001974.jpg,absent_patch/patch0001950.jpg,,,,,,,,,,,,,,,,,,,,-0.063888903,0.131481489,1,0,0,response7disk,32,0,-0.009259259,1,0,0,center_square,0,31,31,17,1,,,,,,,,,,,,,,,,,,,,,,,
304903,001,2022-11-21_24h54.56.858,Info_measure_main_exp,2022.2.2,Win32,59.81576744,,,,,,,,,,,,,,,,,,masks/mask_005.jpg,,,,,,,,,,,,,,,,,,,,,,,,,,,,,,,,,,,,,,,,,,,0,0,0,4,1,,,,,,,,,,,,,,,,,,,,,,,,,,,,,,,,,,,,,,,,,,,,,,
304903,001,2022-11-21_24h54.56.858,Info_measure_main_exp,2022.2.2,Win32,59.81576744,,,,,,,,,,,,,,,,,,masks/mask_002.jpg,,,,,,,,,,,,,,,,,,,,,,,,,,,,,,,,,,,,,,,,,,,0,1,1,1,1,,,,,,,,,,,,,,,,,,,,,,,,,,,,,,,,,,,,,,,,,,,,,,
304903,001,2022-11-21_24h54.56.858,Info_measure_main_exp,2022.2.2,Win32,59.81576744,,,,,,,,,,,,,,,,,,masks/mask_003.jpg,,,,,,,,,,,,,,,,,,,,,,,,,,,,,,,,,,,,,,,,,,,0,2,2,2,1,,,,,,,,,,,,,,,,,,,,,,,,,,,,,,,,,,,,,,,,,,,,,,
304903,001,2022-11-21_24h54.56.858,Info_measure_main_exp,2022.2.2,Win32,59.81576744,,,,,,,,,,,,,,,,,,masks/mask_004.jpg,,,,,,,,,,,,,,,,,,,,,,,,,,,,,,,,,,,,,,,,,,,0,3,3,3,1,,,,,,,,,,,,,,,,,,,,,,,,,,,,,,,,,,,,,,,,,,,,,,
304903,001,2022-11-21_24h54.56.858,Info_measure_main_exp,2022.2.2,Win32,59.81576744,,,,,,,,,,,,,,,,,,masks/mask_001.jpg,,,,,,,,,,,,,,,,,,,,,,,,,,,,,,,,,,,,,,,,,,,0,4,4,0,1,,,,,,,,,,,,,,,,,,,,,,,,,,,,,,,,,,,,,,,,,,,,,,
304903,001,2022-11-21_24h54.56.858,Info_measure_main_exp,2022.2.2,Win32,59.81576744,,,,,,,,,,,,,,,,,,masks/mask_002.jpg,,,,,,,,,,,,,,,,,,,,,,,,,,,,,,,,,,,,,,,,,,,,,,,,0,0,0,1,1,,,,,,,,,,,,,,,,,,,,,,,,,,,,,,,,,,,,,,,,,
304903,001,2022-11-21_24h54.56.858,Info_measure_main_exp,2022.2.2,Win32,59.81576744,,,,,,,,,,,,,,,,,,masks/mask_005.jpg,,,,,,,,,,,,,,,,,,,,,,,,,,,,,,,,,,,,,,,,,,,,,,,,0,1,1,4,1,,,,,,,,,,,,,,,,,,,,,,,,,,,,,,,,,,,,,,,,,
304903,001,2022-11-21_24h54.56.858,Info_measure_main_exp,2022.2.2,Win32,59.81576744,,,,,,,,,,,,,,,,,,masks/mask_004.jpg,,,,,,,,,,,,,,,,,,,,,,,,,,,,,,,,,,,,,,,,,,,,,,,,0,2,2,3,1,,,,,,,,,,,,,,,,,,,,,,,,,,,,,,,,,,,,,,,,,
304903,001,2022-11-21_24h54.56.858,Info_measure_main_exp,2022.2.2,Win32,59.81576744,,,,,,,,,,,,,,,,,,masks/mask_001.jpg,,,,,,,,,,,,,,,,,,,,,,,,,,,,,,,,,,,,,,,,,,,,,,,,0,3,3,0,1,,,,,,,,,,,,,,,,,,,,,,,,,,,,,,,,,,,,,,,,,
304903,001,2022-11-21_24h54.56.858,Info_measure_main_exp,2022.2.2,Win32,59.81576744,,,,,,,,,,,,,,,,,,masks/mask_003.jpg,,,,,,,,,,,,,,,,,,,,,,,,,,,,,,,,,,,,,,,,,,,,,,,,0,4,4,2,1,,,,,,,,,,,,,,,,,,,,,,,,,,,,,,,,,,,,,,,,,
304903,001,2022-11-21_24h54.56.858,Info_measure_main_exp,2022.2.2,Win32,59.81576744,,,,,,,,,,,,,,,,,,,,,,,,,,,,,,7,0.5138,1,,,,,,,,,,,,0,131,5,5,2190,2166,absent_patch/patch0002190.jpg,absent_patch/patch0002166.jpg,,,,,,,,,,,,,,,,,,,,0.083333333,0.166666667,1,0,0,response1disk,33,0.002777806,0,1,0,0,center_square,0,32,32,50,1,,,,,,,,,,,,,,,,,,,,,,,
304903,001,2022-11-21_24h54.56.858,Info_measure_main_exp,2022.2.2,Win32,59.81576744,,,,,,,,,,,,,,,,,,masks/mask_003.jpg,,,,,,,,,,,,,,,,,,,,,,,,,,,,,,,,,,,,,,,,,,,0,0,0,2,1,,,,,,,,,,,,,,,,,,,,,,,,,,,,,,,,,,,,,,,,,,,,,,
304903,001,2022-11-21_24h54.56.858,Info_measure_main_exp,2022.2.2,Win32,59.81576744,,,,,,,,,,,,,,,,,,masks/mask_001.jpg,,,,,,,,,,,,,,,,,,,,,,,,,,,,,,,,,,,,,,,,,,,0,1,1,0,1,,,,,,,,,,,,,,,,,,,,,,,,,,,,,,,,,,,,,,,,,,,,,,
304903,001,2022-11-21_24h54.56.858,Info_measure_main_exp,2022.2.2,Win32,59.81576744,,,,,,,,,,,,,,,,,,masks/mask_005.jpg,,,,,,,,,,,,,,,,,,,,,,,,,,,,,,,,,,,,,,,,,,,0,2,2,4,1,,,,,,,,,,,,,,,,,,,,,,,,,,,,,,,,,,,,,,,,,,,,,,
304903,001,2022-11-21_24h54.56.858,Info_measure_main_exp,2022.2.2,Win32,59.81576744,,,,,,,,,,,,,,,,,,masks/mask_002.jpg,,,,,,,,,,,,,,,,,,,,,,,,,,,,,,,,,,,,,,,,,,,0,3,3,1,1,,,,,,,,,,,,,,,,,,,,,,,,,,,,,,,,,,,,,,,,,,,,,,
304903,001,2022-11-21_24h54.56.858,Info_measure_main_exp,2022.2.2,Win32,59.81576744,,,,,,,,,,,,,,,,,,masks/mask_004.jpg,,,,,,,,,,,,,,,,,,,,,,,,,,,,,,,,,,,,,,,,,,,0,4,4,3,1,,,,,,,,,,,,,,,,,,,,,,,,,,,,,,,,,,,,,,,,,,,,,,
304903,001,2022-11-21_24h54.56.858,Info_measure_main_exp,2022.2.2,Win32,59.81576744,,,,,,,,,,,,,,,,,,masks/mask_002.jpg,,,,,,,,,,,,,,,,,,,,,,,,,,,,,,,,,,,,,,,,,,,,,,,,0,0,0,1,1,,,,,,,,,,,,,,,,,,,,,,,,,,,,,,,,,,,,,,,,,
304903,001,2022-11-21_24h54.56.858,Info_measure_main_exp,2022.2.2,Win32,59.81576744,,,,,,,,,,,,,,,,,,masks/mask_004.jpg,,,,,,,,,,,,,,,,,,,,,,,,,,,,,,,,,,,,,,,,,,,,,,,,0,1,1,3,1,,,,,,,,,,,,,,,,,,,,,,,,,,,,,,,,,,,,,,,,,
304903,001,2022-11-21_24h54.56.858,Info_measure_main_exp,2022.2.2,Win32,59.81576744,,,,,,,,,,,,,,,,,,masks/mask_005.jpg,,,,,,,,,,,,,,,,,,,,,,,,,,,,,,,,,,,,,,,,,,,,,,,,0,2,2,4,1,,,,,,,,,,,,,,,,,,,,,,,,,,,,,,,,,,,,,,,,,
304903,001,2022-11-21_24h54.56.858,Info_measure_main_exp,2022.2.2,Win32,59.81576744,,,,,,,,,,,,,,,,,,masks/mask_001.jpg,,,,,,,,,,,,,,,,,,,,,,,,,,,,,,,,,,,,,,,,,,,,,,,,0,3,3,0,1,,,,,,,,,,,,,,,,,,,,,,,,,,,,,,,,,,,,,,,,,
304903,001,2022-11-21_24h54.56.858,Info_measure_main_exp,2022.2.2,Win32,59.81576744,,,,,,,,,,,,,,,,,,masks/mask_003.jpg,,,,,,,,,,,,,,,,,,,,,,,,,,,,,,,,,,,,,,,,,,,,,,,,0,4,4,2,1,,,,,,,,,,,,,,,,,,,,,,,,,,,,,,,,,,,,,,,,,
304903,001,2022-11-21_24h54.56.858,Info_measure_main_exp,2022.2.2,Win32,59.81576744,,,,,,,,,,,,,,,,,,,,,,,,,,,,,,0,0.5881,1,,,,,,,,,,,,0,131,5,5,1950,1950,absent_patch/patch0001950.jpg,absent_patch/patch0001950.jpg,,,,,,,,,,,,,,,,,,,,-0.059259273,0.113888882,1,0,0,response7disk,34,-0.003703718,-0.006481489,1,0,0,center_square,0,33,33,92,1,,,,,,,,,,,,,,,,,,,,,,,
304903,001,2022-11-21_24h54.56.858,Info_measure_main_exp,2022.2.2,Win32,59.81576744,,,,,,,,,,,,,,,,,,masks/mask_003.jpg,,,,,,,,,,,,,,,,,,,,,,,,,,,,,,,,,,,,,,,,,,,0,0,0,2,1,,,,,,,,,,,,,,,,,,,,,,,,,,,,,,,,,,,,,,,,,,,,,,
304903,001,2022-11-21_24h54.56.858,Info_measure_main_exp,2022.2.2,Win32,59.81576744,,,,,,,,,,,,,,,,,,masks/mask_002.jpg,,,,,,,,,,,,,,,,,,,,,,,,,,,,,,,,,,,,,,,,,,,0,1,1,1,1,,,,,,,,,,,,,,,,,,,,,,,,,,,,,,,,,,,,,,,,,,,,,,
304903,001,2022-11-21_24h54.56.858,Info_measure_main_exp,2022.2.2,Win32,59.81576744,,,,,,,,,,,,,,,,,,masks/mask_005.jpg,,,,,,,,,,,,,,,,,,,,,,,,,,,,,,,,,,,,,,,,,,,0,2,2,4,1,,,,,,,,,,,,,,,,,,,,,,,,,,,,,,,,,,,,,,,,,,,,,,
304903,001,2022-11-21_24h54.56.858,Info_measure_main_exp,2022.2.2,Win32,59.81576744,,,,,,,,,,,,,,,,,,masks/mask_004.jpg,,,,,,,,,,,,,,,,,,,,,,,,,,,,,,,,,,,,,,,,,,,0,3,3,3,1,,,,,,,,,,,,,,,,,,,,,,,,,,,,,,,,,,,,,,,,,,,,,,
304903,001,2022-11-21_24h54.56.858,Info_measure_main_exp,2022.2.2,Win32,59.81576744,,,,,,,,,,,,,,,,,,masks/mask_001.jpg,,,,,,,,,,,,,,,,,,,,,,,,,,,,,,,,,,,,,,,,,,,0,4,4,0,1,,,,,,,,,,,,,,,,,,,,,,,,,,,,,,,,,,,,,,,,,,,,,,
304903,001,2022-11-21_24h54.56.858,Info_measure_main_exp,2022.2.2,Win32,59.81576744,,,,,,,,,,,,,,,,,,masks/mask_004.jpg,,,,,,,,,,,,,,,,,,,,,,,,,,,,,,,,,,,,,,,,,,,,,,,,0,0,0,3,1,,,,,,,,,,,,,,,,,,,,,,,,,,,,,,,,,,,,,,,,,
304903,001,2022-11-21_24h54.56.858,Info_measure_main_exp,2022.2.2,Win32,59.81576744,,,,,,,,,,,,,,,,,,masks/mask_003.jpg,,,,,,,,,,,,,,,,,,,,,,,,,,,,,,,,,,,,,,,,,,,,,,,,0,1,1,2,1,,,,,,,,,,,,,,,,,,,,,,,,,,,,,,,,,,,,,,,,,
304903,001,2022-11-21_24h54.56.858,Info_measure_main_exp,2022.2.2,Win32,59.81576744,,,,,,,,,,,,,,,,,,masks/mask_002.jpg,,,,,,,,,,,,,,,,,,,,,,,,,,,,,,,,,,,,,,,,,,,,,,,,0,2,2,1,1,,,,,,,,,,,,,,,,,,,,,,,,,,,,,,,,,,,,,,,,,
304903,001,2022-11-21_24h54.56.858,Info_measure_main_exp,2022.2.2,Win32,59.81576744,,,,,,,,,,,,,,,,,,masks/mask_001.jpg,,,,,,,,,,,,,,,,,,,,,,,,,,,,,,,,,,,,,,,,,,,,,,,,0,3,3,0,1,,,,,,,,,,,,,,,,,,,,,,,,,,,,,,,,,,,,,,,,,
