participant,session,date,expName,psychopyVersion,OS,frameRate,space_press_continue.keys,space_press_continue.rt,space_press_continue_2.keys,space_press_continue_2.rt,space_press_continue_3.keys,space_press_continue_3.rt,space_press_continue_4.keys,space_press_continue_4.rt,space_press_continue_5.keys,space_press_continue_5.rt,space_press_continue_6.keys,space_press_continue_6.rt,prac_mask_loop_1.thisRepN,prac_mask_loop_1.thisTrialN,prac_mask_loop_1.thisN,prac_mask_loop_1.thisIndex,prac_mask_loop_1.ran,mask_name,prac_mask_loop_2.thisRepN,prac_mask_loop_2.thisTrialN,prac_mask_loop_2.thisN,prac_mask_loop_2.thisIndex,prac_mask_loop_2.ran,mouse_2.x,mouse_2.y,mouse_2.leftButton,mouse_2.midButton,mouse_2.rightButton,mouse_2.clicked_name,similarity,response_time,Pass,mouse_12.x,mouse_12.y,mouse_12.leftButton,mouse_12.midButton,mouse_12.rightButton,mouse_12.clicked_name,prac_loop.thisRepN,prac_loop.thisTrialN,prac_loop.thisN,prac_loop.thisIndex,prac_loop.ran,Pair_type,Image_num,Patch_1_loc,Patch_2_loc,Patch_1_info,Patch_2_info,Patch_1_name,Patch_2_name,mouse_1.x,mouse_1.y,mouse_1.leftButton,mouse_1.midButton,mouse_1.rightButton,mouse_1.time,mouse_1.clicked_name,space_press_continue_7.keys,space_press_continue_7.rt,mask_loop.thisRepN,mask_loop.thisTrialN,mask_loop.thisN,mask_loop.thisIndex,mask_loop.ran,mask_loop_2.thisRepN,mask_loop_2.thisTrialN,mask_loop_2.thisN,mask_loop_2.thisIndex,mask_loop_2.ran,mouse.x,mouse.y,mouse.leftButton,mouse.midButton,mouse.rightButton,mouse.clicked_name,trialNumber,mouse_11.x,mouse_11.y,mouse_11.leftButton,mouse_11.midButton,mouse_11.rightButton,mouse_11.clicked_name,first_pass_loop.thisRepN,first_pass_loop.thisTrialN,first_pass_loop.thisN,first_pass_loop.thisIndex,first_pass_loop.ran,mask_loop_3.thisRepN,mask_loop_3.thisTrialN,mask_loop_3.thisN,mask_loop_3.thisIndex,mask_loop_3.ran,mask_loop_4.thisRepN,mask_loop_4.thisTrialN,mask_loop_4.thisN,mask_loop_4.thisIndex,mask_loop_4.ran,mouse_3.x,mouse_3.y,mouse_3.leftButton,mouse_3.midButton,mouse_3.rightButton,mouse_3.clicked_name,double_pass_loop.thisRepN,double_pass_loop.thisTrialN,double_pass_loop.thisN,double_pass_loop.thisIndex,double_pass_loop.ran,space_exit.keys,space_exit.rt
311626,001,2022-11-20_17h53.33.932,Info_measure_main_exp,2022.2.2,Win32,60.0240096,,,,,,,,,,,,,,,,,,,,,,,,,,,,,,,,,,,,,,,,,,,,,,,,,,,,,,,,,,,,,,,,,,,,,,,,,,,,,,,,,,,,,,,,,,,,,,,,,,,,,,,,,,,,,,,
311626,001,2022-11-20_17h53.33.932,Info_measure_main_exp,2022.2.2,Win32,60.0240096,,,,,,,,,,,,,,,,,,,,,,,,,,,,,,,,,,,,,,,,,,,,,,,,,,,,,,,,,,,,,,,,,,,,,,,,,,,,,,,,,,,,,,,,,,,,,,,,,,,,,,,,,,,,,,,
311626,001,2022-11-20_17h53.33.932,Info_measure_main_exp,2022.2.2,Win32,60.0240096,space,24.472,,,,,,,,,,,,,,,,,,,,,,,,,,,,,,,,,,,,,,,,,,,,,,,,,,,,,,,,,,,,,,,,,,,,,,,,,,,,,,,,,,,,,,,,,,,,,,,,,,,,,,,,,,,,,
311626,001,2022-11-20_17h53.33.932,Info_measure_main_exp,2022.2.2,Win32,60.0240096,,,space,3.52,,,,,,,,,,,,,,,,,,,,,,,,,,,,,,,,,,,,,,,,,,,,,,,,,,,,,,,,,,,,,,,,,,,,,,,,,,,,,,,,,,,,,,,,,,,,,,,,,,,,,,,,,,,
311626,001,2022-11-20_17h53.33.932,Info_measure_main_exp,2022.2.2,Win32,60.0240096,,,,,space,9.71,,,,,,,,,,,,,,,,,,,,,,,,,,,,,,,,,,,,,,,,,,,,,,,,,,,,,,,,,,,,,,,,,,,,,,,,,,,,,,,,,,,,,,,,,,,,,,,,,,,,,,,,,
311626,001,2022-11-20_17h53.33.932,Info_measure_main_exp,2022.2.2,Win32,60.0240096,,,,,,,space,39.621,,,,,,,,,,,,,,,,,,,,,,,,,,,,,,,,,,,,,,,,,,,,,,,,,,,,,,,,,,,,,,,,,,,,,,,,,,,,,,,,,,,,,,,,,,,,,,,,,,,,,,,
311626,001,2022-11-20_17h53.33.932,Info_measure_main_exp,2022.2.2,Win32,60.0240096,,,,,,,,,space,1.698,,,,,,,,,,,,,,,,,,,,,,,,,,,,,,,,,,,,,,,,,,,,,,,,,,,,,,,,,,,,,,,,,,,,,,,,,,,,,,,,,,,,,,,,,,,,,,,,,,,,,
311626,001,2022-11-20_17h53.33.932,Info_measure_main_exp,2022.2.2,Win32,60.0240096,,,,,,,,,,,space,16.15,,,,,,,,,,,,,,,,,,,,,,,,,,,,,,,,,,,,,,,,,,,,,,,,,,,,,,,,,,,,,,,,,,,,,,,,,,,,,,,,,,,,,,,,,,,,,,,,,,,
311626,001,2022-11-20_17h53.33.932,Info_measure_main_exp,2022.2.2,Win32,60.0240096,,,,,,,,,,,,,0,0,0,2,1,masks/mask_003.jpg,,,,,,,,,,,,,,,,,,,,,,,,,,,,,,,,,,,,,,,,,,,,,,,,,,,,,,,,,,,,,,,,,,,,,,,,,,,,,,,,,,,,,,,,,,,,,
311626,001,2022-11-20_17h53.33.932,Info_measure_main_exp,2022.2.2,Win32,60.0240096,,,,,,,,,,,,,0,1,1,0,1,masks/mask_001.jpg,,,,,,,,,,,,,,,,,,,,,,,,,,,,,,,,,,,,,,,,,,,,,,,,,,,,,,,,,,,,,,,,,,,,,,,,,,,,,,,,,,,,,,,,,,,,,
311626,001,2022-11-20_17h53.33.932,Info_measure_main_exp,2022.2.2,Win32,60.0240096,,,,,,,,,,,,,0,2,2,3,1,masks/mask_004.jpg,,,,,,,,,,,,,,,,,,,,,,,,,,,,,,,,,,,,,,,,,,,,,,,,,,,,,,,,,,,,,,,,,,,,,,,,,,,,,,,,,,,,,,,,,,,,,
311626,001,2022-11-20_17h53.33.932,Info_measure_main_exp,2022.2.2,Win32,60.0240096,,,,,,,,,,,,,0,3,3,4,1,masks/mask_005.jpg,,,,,,,,,,,,,,,,,,,,,,,,,,,,,,,,,,,,,,,,,,,,,,,,,,,,,,,,,,,,,,,,,,,,,,,,,,,,,,,,,,,,,,,,,,,,,
311626,001,2022-11-20_17h53.33.932,Info_measure_main_exp,2022.2.2,Win32,60.0240096,,,,,,,,,,,,,0,4,4,1,1,masks/mask_002.jpg,,,,,,,,,,,,,,,,,,,,,,,,,,,,,,,,,,,,,,,,,,,,,,,,,,,,,,,,,,,,,,,,,,,,,,,,,,,,,,,,,,,,,,,,,,,,,
311626,001,2022-11-20_17h53.33.932,Info_measure_main_exp,2022.2.2,Win32,60.0240096,,,,,,,,,,,,,,,,,,masks/mask_002.jpg,0,0,0,1,1,,,,,,,,,,,,,,,,,,,,,,,,,,,,,,,,,,,,,,,,,,,,,,,,,,,,,,,,,,,,,,,,,,,,,,,,,,,,,,,,,,,,,,,,
311626,001,2022-11-20_17h53.33.932,Info_measure_main_exp,2022.2.2,Win32,60.0240096,,,,,,,,,,,,,,,,,,masks/mask_003.jpg,0,1,1,2,1,,,,,,,,,,,,,,,,,,,,,,,,,,,,,,,,,,,,,,,,,,,,,,,,,,,,,,,,,,,,,,,,,,,,,,,,,,,,,,,,,,,,,,,,
311626,001,2022-11-20_17h53.33.932,Info_measure_main_exp,2022.2.2,Win32,60.0240096,,,,,,,,,,,,,,,,,,masks/mask_004.jpg,0,2,2,3,1,,,,,,,,,,,,,,,,,,,,,,,,,,,,,,,,,,,,,,,,,,,,,,,,,,,,,,,,,,,,,,,,,,,,,,,,,,,,,,,,,,,,,,,,
311626,001,2022-11-20_17h53.33.932,Info_measure_main_exp,2022.2.2,Win32,60.0240096,,,,,,,,,,,,,,,,,,masks/mask_005.jpg,0,3,3,4,1,,,,,,,,,,,,,,,,,,,,,,,,,,,,,,,,,,,,,,,,,,,,,,,,,,,,,,,,,,,,,,,,,,,,,,,,,,,,,,,,,,,,,,,,
311626,001,2022-11-20_17h53.33.932,Info_measure_main_exp,2022.2.2,Win32,60.0240096,,,,,,,,,,,,,,,,,,masks/mask_001.jpg,0,4,4,0,1,,,,,,,,,,,,,,,,,,,,,,,,,,,,,,,,,,,,,,,,,,,,,,,,,,,,,,,,,,,,,,,,,,,,,,,,,,,,,,,,,,,,,,,,
311626,001,2022-11-20_17h53.33.932,Info_measure_main_exp,2022.2.2,Win32,60.0240096,,,,,,,,,,,,,,,,,,,,,,,,-0.032552083,0.110677083,1,0,0,response7disk,0,100.157,1,0.001302083,0.006510417,1,0,0,center_square,0,0,0,0,1,0,131,5,5,2370,2406,prac_patch/patch0002370.jpg,prac_patch/patch0002406.jpg,,,,,,,,,,,,,,,,,,,,,,,,,,,,,,,,,,,,,,,,,,,,,,,,,,,,,,,,,,,,
311626,001,2022-11-20_17h53.33.932,Info_measure_main_exp,2022.2.2,Win32,60.0240096,,,,,,,,,,,,,0,0,0,4,1,masks/mask_005.jpg,,,,,,,,,,,,,,,,,,,,,,,,,,,,,,,,,,,,,,,,,,,,,,,,,,,,,,,,,,,,,,,,,,,,,,,,,,,,,,,,,,,,,,,,,,,,,
311626,001,2022-11-20_17h53.33.932,Info_measure_main_exp,2022.2.2,Win32,60.0240096,,,,,,,,,,,,,0,1,1,2,1,masks/mask_003.jpg,,,,,,,,,,,,,,,,,,,,,,,,,,,,,,,,,,,,,,,,,,,,,,,,,,,,,,,,,,,,,,,,,,,,,,,,,,,,,,,,,,,,,,,,,,,,,
311626,001,2022-11-20_17h53.33.932,Info_measure_main_exp,2022.2.2,Win32,60.0240096,,,,,,,,,,,,,0,2,2,1,1,masks/mask_002.jpg,,,,,,,,,,,,,,,,,,,,,,,,,,,,,,,,,,,,,,,,,,,,,,,,,,,,,,,,,,,,,,,,,,,,,,,,,,,,,,,,,,,,,,,,,,,,,
311626,001,2022-11-20_17h53.33.932,Info_measure_main_exp,2022.2.2,Win32,60.0240096,,,,,,,,,,,,,0,3,3,0,1,masks/mask_001.jpg,,,,,,,,,,,,,,,,,,,,,,,,,,,,,,,,,,,,,,,,,,,,,,,,,,,,,,,,,,,,,,,,,,,,,,,,,,,,,,,,,,,,,,,,,,,,,
311626,001,2022-11-20_17h53.33.932,Info_measure_main_exp,2022.2.2,Win32,60.0240096,,,,,,,,,,,,,0,4,4,3,1,masks/mask_004.jpg,,,,,,,,,,,,,,,,,,,,,,,,,,,,,,,,,,,,,,,,,,,,,,,,,,,,,,,,,,,,,,,,,,,,,,,,,,,,,,,,,,,,,,,,,,,,,
311626,001,2022-11-20_17h53.33.932,Info_measure_main_exp,2022.2.2,Win32,60.0240096,,,,,,,,,,,,,,,,,,masks/mask_003.jpg,0,0,0,2,1,,,,,,,,,,,,,,,,,,,,,,,,,,,,,,,,,,,,,,,,,,,,,,,,,,,,,,,,,,,,,,,,,,,,,,,,,,,,,,,,,,,,,,,,
311626,001,2022-11-20_17h53.33.932,Info_measure_main_exp,2022.2.2,Win32,60.0240096,,,,,,,,,,,,,,,,,,masks/mask_005.jpg,0,1,1,4,1,,,,,,,,,,,,,,,,,,,,,,,,,,,,,,,,,,,,,,,,,,,,,,,,,,,,,,,,,,,,,,,,,,,,,,,,,,,,,,,,,,,,,,,,
311626,001,2022-11-20_17h53.33.932,Info_measure_main_exp,2022.2.2,Win32,60.0240096,,,,,,,,,,,,,,,,,,masks/mask_004.jpg,0,2,2,3,1,,,,,,,,,,,,,,,,,,,,,,,,,,,,,,,,,,,,,,,,,,,,,,,,,,,,,,,,,,,,,,,,,,,,,,,,,,,,,,,,,,,,,,,,
311626,001,2022-11-20_17h53.33.932,Info_measure_main_exp,2022.2.2,Win32,60.0240096,,,,,,,,,,,,,,,,,,masks/mask_002.jpg,0,3,3,1,1,,,,,,,,,,,,,,,,,,,,,,,,,,,,,,,,,,,,,,,,,,,,,,,,,,,,,,,,,,,,,,,,,,,,,,,,,,,,,,,,,,,,,,,,
311626,001,2022-11-20_17h53.33.932,Info_measure_main_exp,2022.2.2,Win32,60.0240096,,,,,,,,,,,,,,,,,,masks/mask_001.jpg,0,4,4,0,1,,,,,,,,,,,,,,,,,,,,,,,,,,,,,,,,,,,,,,,,,,,,,,,,,,,,,,,,,,,,,,,,,,,,,,,,,,,,,,,,,,,,,,,,
311626,001,2022-11-20_17h53.33.932,Info_measure_main_exp,2022.2.2,Win32,60.0240096,,,,,,,,,,,,,,,,,,,,,,,,0.0234375,0.078125,1,0,0,response1disk,7,124.034,1,-0.002604167,0.0078125,1,0,0,center_square,0,1,1,1,1,0,131,5,5,2514,2490,prac_patch/patch0002514.jpg,prac_patch/patch0002490.jpg,,,,,,,,,,,,,,,,,,,,,,,,,,,,,,,,,,,,,,,,,,,,,,,,,,,,,,,,,,,,
311626,001,2022-11-20_17h53.33.932,Info_measure_main_exp,2022.2.2,Win32,60.0240096,,,,,,,,,,,,,0,0,0,2,1,masks/mask_003.jpg,,,,,,,,,,,,,,,,,,,,,,,,,,,,,,,,,,,,,,,,,,,,,,,,,,,,,,,,,,,,,,,,,,,,,,,,,,,,,,,,,,,,,,,,,,,,,
311626,001,2022-11-20_17h53.33.932,Info_measure_main_exp,2022.2.2,Win32,60.0240096,,,,,,,,,,,,,0,1,1,0,1,masks/mask_001.jpg,,,,,,,,,,,,,,,,,,,,,,,,,,,,,,,,,,,,,,,,,,,,,,,,,,,,,,,,,,,,,,,,,,,,,,,,,,,,,,,,,,,,,,,,,,,,,
311626,001,2022-11-20_17h53.33.932,Info_measure_main_exp,2022.2.2,Win32,60.0240096,,,,,,,,,,,,,0,2,2,4,1,masks/mask_005.jpg,,,,,,,,,,,,,,,,,,,,,,,,,,,,,,,,,,,,,,,,,,,,,,,,,,,,,,,,,,,,,,,,,,,,,,,,,,,,,,,,,,,,,,,,,,,,,
311626,001,2022-11-20_17h53.33.932,Info_measure_main_exp,2022.2.2,Win32,60.0240096,,,,,,,,,,,,,0,3,3,3,1,masks/mask_004.jpg,,,,,,,,,,,,,,,,,,,,,,,,,,,,,,,,,,,,,,,,,,,,,,,,,,,,,,,,,,,,,,,,,,,,,,,,,,,,,,,,,,,,,,,,,,,,,
311626,001,2022-11-20_17h53.33.932,Info_measure_main_exp,2022.2.2,Win32,60.0240096,,,,,,,,,,,,,0,4,4,1,1,masks/mask_002.jpg,,,,,,,,,,,,,,,,,,,,,,,,,,,,,,,,,,,,,,,,,,,,,,,,,,,,,,,,,,,,,,,,,,,,,,,,,,,,,,,,,,,,,,,,,,,,,
311626,001,2022-11-20_17h53.33.932,Info_measure_main_exp,2022.2.2,Win32,60.0240096,,,,,,,,,,,,,,,,,,masks/mask_003.jpg,0,0,0,2,1,,,,,,,,,,,,,,,,,,,,,,,,,,,,,,,,,,,,,,,,,,,,,,,,,,,,,,,,,,,,,,,,,,,,,,,,,,,,,,,,,,,,,,,,
311626,001,2022-11-20_17h53.33.932,Info_measure_main_exp,2022.2.2,Win32,60.0240096,,,,,,,,,,,,,,,,,,masks/mask_005.jpg,0,1,1,4,1,,,,,,,,,,,,,,,,,,,,,,,,,,,,,,,,,,,,,,,,,,,,,,,,,,,,,,,,,,,,,,,,,,,,,,,,,,,,,,,,,,,,,,,,
311626,001,2022-11-20_17h53.33.932,Info_measure_main_exp,2022.2.2,Win32,60.0240096,,,,,,,,,,,,,,,,,,masks/mask_004.jpg,0,2,2,3,1,,,,,,,,,,,,,,,,,,,,,,,,,,,,,,,,,,,,,,,,,,,,,,,,,,,,,,,,,,,,,,,,,,,,,,,,,,,,,,,,,,,,,,,,
311626,001,2022-11-20_17h53.33.932,Info_measure_main_exp,2022.2.2,Win32,60.0240096,,,,,,,,,,,,,,,,,,masks/mask_002.jpg,0,3,3,1,1,,,,,,,,,,,,,,,,,,,,,,,,,,,,,,,,,,,,,,,,,,,,,,,,,,,,,,,,,,,,,,,,,,,,,,,,,,,,,,,,,,,,,,,,
311626,001,2022-11-20_17h53.33.932,Info_measure_main_exp,2022.2.2,Win32,60.0240096,,,,,,,,,,,,,,,,,,masks/mask_001.jpg,0,4,4,0,1,,,,,,,,,,,,,,,,,,,,,,,,,,,,,,,,,,,,,,,,,,,,,,,,,,,,,,,,,,,,,,,,,,,,,,,,,,,,,,,,,,,,,,,,
311626,001,2022-11-20_17h53.33.932,Info_measure_main_exp,2022.2.2,Win32,60.0240096,,,,,,,,,,,,,,,,,,,,,,,,-0.029947917,0.111979167,1,0,0,response7disk,0,155.273,1,-0.005208333,0.001302083,1,0,0,center_square,0,2,2,2,1,0,131,5,5,2526,2526,prac_patch/patch0002526.jpg,prac_patch/patch0002526.jpg,,,,,,,,,,,,,,,,,,,,,,,,,,,,,,,,,,,,,,,,,,,,,,,,,,,,,,,,,,,,
311626,001,2022-11-20_17h53.33.932,Info_measure_main_exp,2022.2.2,Win32,60.0240096,,,,,,,,,,,,,,,,,,,,,,,,,,,,,,,,,,,,,,,,,,,,,,,,,,,,,,,,,,,space,23.884,,,,,,,,,,,,,,,,,,,,,,,,,,,,,,,,,,,,,,,,,,,,,,,,,,,
311626,001,2022-11-20_17h53.33.932,Info_measure_main_exp,2022.2.2,Win32,60.0240096,,,,,,,,,,,,,,,,,,masks/mask_001.jpg,,,,,,,,,,,,,,,,,,,,,,,,,,,,,,,,,,,,,,,,,,,0,0,0,0,1,,,,,,,,,,,,,,,,,,,,,,,,,,,,,,,,,,,,,,,,,,,,,,
311626,001,2022-11-20_17h53.33.932,Info_measure_main_exp,2022.2.2,Win32,60.0240096,,,,,,,,,,,,,,,,,,masks/mask_005.jpg,,,,,,,,,,,,,,,,,,,,,,,,,,,,,,,,,,,,,,,,,,,0,1,1,4,1,,,,,,,,,,,,,,,,,,,,,,,,,,,,,,,,,,,,,,,,,,,,,,
311626,001,2022-11-20_17h53.33.932,Info_measure_main_exp,2022.2.2,Win32,60.0240096,,,,,,,,,,,,,,,,,,masks/mask_004.jpg,,,,,,,,,,,,,,,,,,,,,,,,,,,,,,,,,,,,,,,,,,,0,2,2,3,1,,,,,,,,,,,,,,,,,,,,,,,,,,,,,,,,,,,,,,,,,,,,,,
311626,001,2022-11-20_17h53.33.932,Info_measure_main_exp,2022.2.2,Win32,60.0240096,,,,,,,,,,,,,,,,,,masks/mask_003.jpg,,,,,,,,,,,,,,,,,,,,,,,,,,,,,,,,,,,,,,,,,,,0,3,3,2,1,,,,,,,,,,,,,,,,,,,,,,,,,,,,,,,,,,,,,,,,,,,,,,
311626,001,2022-11-20_17h53.33.932,Info_measure_main_exp,2022.2.2,Win32,60.0240096,,,,,,,,,,,,,,,,,,masks/mask_002.jpg,,,,,,,,,,,,,,,,,,,,,,,,,,,,,,,,,,,,,,,,,,,0,4,4,1,1,,,,,,,,,,,,,,,,,,,,,,,,,,,,,,,,,,,,,,,,,,,,,,
311626,001,2022-11-20_17h53.33.932,Info_measure_main_exp,2022.2.2,Win32,60.0240096,,,,,,,,,,,,,,,,,,masks/mask_004.jpg,,,,,,,,,,,,,,,,,,,,,,,,,,,,,,,,,,,,,,,,,,,,,,,,0,0,0,3,1,,,,,,,,,,,,,,,,,,,,,,,,,,,,,,,,,,,,,,,,,
311626,001,2022-11-20_17h53.33.932,Info_measure_main_exp,2022.2.2,Win32,60.0240096,,,,,,,,,,,,,,,,,,masks/mask_003.jpg,,,,,,,,,,,,,,,,,,,,,,,,,,,,,,,,,,,,,,,,,,,,,,,,0,1,1,2,1,,,,,,,,,,,,,,,,,,,,,,,,,,,,,,,,,,,,,,,,,
311626,001,2022-11-20_17h53.33.932,Info_measure_main_exp,2022.2.2,Win32,60.0240096,,,,,,,,,,,,,,,,,,masks/mask_001.jpg,,,,,,,,,,,,,,,,,,,,,,,,,,,,,,,,,,,,,,,,,,,,,,,,0,2,2,0,1,,,,,,,,,,,,,,,,,,,,,,,,,,,,,,,,,,,,,,,,,
311626,001,2022-11-20_17h53.33.932,Info_measure_main_exp,2022.2.2,Win32,60.0240096,,,,,,,,,,,,,,,,,,masks/mask_005.jpg,,,,,,,,,,,,,,,,,,,,,,,,,,,,,,,,,,,,,,,,,,,,,,,,0,3,3,4,1,,,,,,,,,,,,,,,,,,,,,,,,,,,,,,,,,,,,,,,,,
311626,001,2022-11-20_17h53.33.932,Info_measure_main_exp,2022.2.2,Win32,60.0240096,,,,,,,,,,,,,,,,,,masks/mask_002.jpg,,,,,,,,,,,,,,,,,,,,,,,,,,,,,,,,,,,,,,,,,,,,,,,,0,4,4,1,1,,,,,,,,,,,,,,,,,,,,,,,,,,,,,,,,,,,,,,,,,
311626,001,2022-11-20_17h53.33.932,Info_measure_main_exp,2022.2.2,Win32,60.0240096,,,,,,,,,,,,,,,,,,,,,,,,,,,,,,7,2.347,1,,,,,,,,,,,,0,131,5,5,1950,2166,absent_patch/patch0001950.jpg,absent_patch/patch0002166.jpg,,,,,,,,,,,,,,,,,,,,0.057291667,0.09375,1,0,0,response1disk,1,0.002604167,0.001302083,1,0,0,center_square,0,0,0,0,1,,,,,,,,,,,,,,,,,,,,,,,
311626,001,2022-11-20_17h53.33.932,Info_measure_main_exp,2022.2.2,Win32,60.0240096,,,,,,,,,,,,,,,,,,masks/mask_003.jpg,,,,,,,,,,,,,,,,,,,,,,,,,,,,,,,,,,,,,,,,,,,0,0,0,2,1,,,,,,,,,,,,,,,,,,,,,,,,,,,,,,,,,,,,,,,,,,,,,,
311626,001,2022-11-20_17h53.33.932,Info_measure_main_exp,2022.2.2,Win32,60.0240096,,,,,,,,,,,,,,,,,,masks/mask_001.jpg,,,,,,,,,,,,,,,,,,,,,,,,,,,,,,,,,,,,,,,,,,,0,1,1,0,1,,,,,,,,,,,,,,,,,,,,,,,,,,,,,,,,,,,,,,,,,,,,,,
311626,001,2022-11-20_17h53.33.932,Info_measure_main_exp,2022.2.2,Win32,60.0240096,,,,,,,,,,,,,,,,,,masks/mask_005.jpg,,,,,,,,,,,,,,,,,,,,,,,,,,,,,,,,,,,,,,,,,,,0,2,2,4,1,,,,,,,,,,,,,,,,,,,,,,,,,,,,,,,,,,,,,,,,,,,,,,
311626,001,2022-11-20_17h53.33.932,Info_measure_main_exp,2022.2.2,Win32,60.0240096,,,,,,,,,,,,,,,,,,masks/mask_004.jpg,,,,,,,,,,,,,,,,,,,,,,,,,,,,,,,,,,,,,,,,,,,0,3,3,3,1,,,,,,,,,,,,,,,,,,,,,,,,,,,,,,,,,,,,,,,,,,,,,,
311626,001,2022-11-20_17h53.33.932,Info_measure_main_exp,2022.2.2,Win32,60.0240096,,,,,,,,,,,,,,,,,,masks/mask_002.jpg,,,,,,,,,,,,,,,,,,,,,,,,,,,,,,,,,,,,,,,,,,,0,4,4,1,1,,,,,,,,,,,,,,,,,,,,,,,,,,,,,,,,,,,,,,,,,,,,,,
311626,001,2022-11-20_17h53.33.932,Info_measure_main_exp,2022.2.2,Win32,60.0240096,,,,,,,,,,,,,,,,,,masks/mask_003.jpg,,,,,,,,,,,,,,,,,,,,,,,,,,,,,,,,,,,,,,,,,,,,,,,,0,0,0,2,1,,,,,,,,,,,,,,,,,,,,,,,,,,,,,,,,,,,,,,,,,
311626,001,2022-11-20_17h53.33.932,Info_measure_main_exp,2022.2.2,Win32,60.0240096,,,,,,,,,,,,,,,,,,masks/mask_002.jpg,,,,,,,,,,,,,,,,,,,,,,,,,,,,,,,,,,,,,,,,,,,,,,,,0,1,1,1,1,,,,,,,,,,,,,,,,,,,,,,,,,,,,,,,,,,,,,,,,,
311626,001,2022-11-20_17h53.33.932,Info_measure_main_exp,2022.2.2,Win32,60.0240096,,,,,,,,,,,,,,,,,,masks/mask_004.jpg,,,,,,,,,,,,,,,,,,,,,,,,,,,,,,,,,,,,,,,,,,,,,,,,0,2,2,3,1,,,,,,,,,,,,,,,,,,,,,,,,,,,,,,,,,,,,,,,,,
311626,001,2022-11-20_17h53.33.932,Info_measure_main_exp,2022.2.2,Win32,60.0240096,,,,,,,,,,,,,,,,,,masks/mask_001.jpg,,,,,,,,,,,,,,,,,,,,,,,,,,,,,,,,,,,,,,,,,,,,,,,,0,3,3,0,1,,,,,,,,,,,,,,,,,,,,,,,,,,,,,,,,,,,,,,,,,
311626,001,2022-11-20_17h53.33.932,Info_measure_main_exp,2022.2.2,Win32,60.0240096,,,,,,,,,,,,,,,,,,masks/mask_005.jpg,,,,,,,,,,,,,,,,,,,,,,,,,,,,,,,,,,,,,,,,,,,,,,,,0,4,4,4,1,,,,,,,,,,,,,,,,,,,,,,,,,,,,,,,,,,,,,,,,,
311626,001,2022-11-20_17h53.33.932,Info_measure_main_exp,2022.2.2,Win32,60.0240096,,,,,,,,,,,,,,,,,,,,,,,,,,,,,,6,2.133,1,,,,,,,,,,,,0,131,5,5,2298,2190,absent_patch/patch0002298.jpg,absent_patch/patch0002190.jpg,,,,,,,,,,,,,,,,,,,,0.087239583,0.029947917,1,0,0,response1disk,2,0.006510417,-0.002604167,1,0,0,center_square,0,1,1,20,1,,,,,,,,,,,,,,,,,,,,,,,
311626,001,2022-11-20_17h53.33.932,Info_measure_main_exp,2022.2.2,Win32,60.0240096,,,,,,,,,,,,,,,,,,masks/mask_004.jpg,,,,,,,,,,,,,,,,,,,,,,,,,,,,,,,,,,,,,,,,,,,0,0,0,3,1,,,,,,,,,,,,,,,,,,,,,,,,,,,,,,,,,,,,,,,,,,,,,,
311626,001,2022-11-20_17h53.33.932,Info_measure_main_exp,2022.2.2,Win32,60.0240096,,,,,,,,,,,,,,,,,,masks/mask_002.jpg,,,,,,,,,,,,,,,,,,,,,,,,,,,,,,,,,,,,,,,,,,,0,1,1,1,1,,,,,,,,,,,,,,,,,,,,,,,,,,,,,,,,,,,,,,,,,,,,,,
311626,001,2022-11-20_17h53.33.932,Info_measure_main_exp,2022.2.2,Win32,60.0240096,,,,,,,,,,,,,,,,,,masks/mask_001.jpg,,,,,,,,,,,,,,,,,,,,,,,,,,,,,,,,,,,,,,,,,,,0,2,2,0,1,,,,,,,,,,,,,,,,,,,,,,,,,,,,,,,,,,,,,,,,,,,,,,
311626,001,2022-11-20_17h53.33.932,Info_measure_main_exp,2022.2.2,Win32,60.0240096,,,,,,,,,,,,,,,,,,masks/mask_005.jpg,,,,,,,,,,,,,,,,,,,,,,,,,,,,,,,,,,,,,,,,,,,0,3,3,4,1,,,,,,,,,,,,,,,,,,,,,,,,,,,,,,,,,,,,,,,,,,,,,,
311626,001,2022-11-20_17h53.33.932,Info_measure_main_exp,2022.2.2,Win32,60.0240096,,,,,,,,,,,,,,,,,,masks/mask_003.jpg,,,,,,,,,,,,,,,,,,,,,,,,,,,,,,,,,,,,,,,,,,,0,4,4,2,1,,,,,,,,,,,,,,,,,,,,,,,,,,,,,,,,,,,,,,,,,,,,,,
311626,001,2022-11-20_17h53.33.932,Info_measure_main_exp,2022.2.2,Win32,60.0240096,,,,,,,,,,,,,,,,,,masks/mask_002.jpg,,,,,,,,,,,,,,,,,,,,,,,,,,,,,,,,,,,,,,,,,,,,,,,,0,0,0,1,1,,,,,,,,,,,,,,,,,,,,,,,,,,,,,,,,,,,,,,,,,
311626,001,2022-11-20_17h53.33.932,Info_measure_main_exp,2022.2.2,Win32,60.0240096,,,,,,,,,,,,,,,,,,masks/mask_003.jpg,,,,,,,,,,,,,,,,,,,,,,,,,,,,,,,,,,,,,,,,,,,,,,,,0,1,1,2,1,,,,,,,,,,,,,,,,,,,,,,,,,,,,,,,,,,,,,,,,,
311626,001,2022-11-20_17h53.33.932,Info_measure_main_exp,2022.2.2,Win32,60.0240096,,,,,,,,,,,,,,,,,,masks/mask_005.jpg,,,,,,,,,,,,,,,,,,,,,,,,,,,,,,,,,,,,,,,,,,,,,,,,0,2,2,4,1,,,,,,,,,,,,,,,,,,,,,,,,,,,,,,,,,,,,,,,,,
311626,001,2022-11-20_17h53.33.932,Info_measure_main_exp,2022.2.2,Win32,60.0240096,,,,,,,,,,,,,,,,,,masks/mask_004.jpg,,,,,,,,,,,,,,,,,,,,,,,,,,,,,,,,,,,,,,,,,,,,,,,,0,3,3,3,1,,,,,,,,,,,,,,,,,,,,,,,,,,,,,,,,,,,,,,,,,
311626,001,2022-11-20_17h53.33.932,Info_measure_main_exp,2022.2.2,Win32,60.0240096,,,,,,,,,,,,,,,,,,masks/mask_001.jpg,,,,,,,,,,,,,,,,,,,,,,,,,,,,,,,,,,,,,,,,,,,,,,,,0,4,4,0,1,,,,,,,,,,,,,,,,,,,,,,,,,,,,,,,,,,,,,,,,,
311626,001,2022-11-20_17h53.33.932,Info_measure_main_exp,2022.2.2,Win32,60.0240096,,,,,,,,,,,,,,,,,,,,,,,,,,,,,,7,0.672,1,,,,,,,,,,,,0,131,5,5,2214,1986,absent_patch/patch0002214.jpg,absent_patch/patch0001986.jpg,,,,,,,,,,,,,,,,,,,,0.053385417,0.1015625,1,0,0,response1disk,3,0.0078125,-0.002604167,1,0,0,center_square,0,2,2,34,1,,,,,,,,,,,,,,,,,,,,,,,
311626,001,2022-11-20_17h53.33.932,Info_measure_main_exp,2022.2.2,Win32,60.0240096,,,,,,,,,,,,,,,,,,masks/mask_003.jpg,,,,,,,,,,,,,,,,,,,,,,,,,,,,,,,,,,,,,,,,,,,0,0,0,2,1,,,,,,,,,,,,,,,,,,,,,,,,,,,,,,,,,,,,,,,,,,,,,,
311626,001,2022-11-20_17h53.33.932,Info_measure_main_exp,2022.2.2,Win32,60.0240096,,,,,,,,,,,,,,,,,,masks/mask_005.jpg,,,,,,,,,,,,,,,,,,,,,,,,,,,,,,,,,,,,,,,,,,,0,1,1,4,1,,,,,,,,,,,,,,,,,,,,,,,,,,,,,,,,,,,,,,,,,,,,,,
311626,001,2022-11-20_17h53.33.932,Info_measure_main_exp,2022.2.2,Win32,60.0240096,,,,,,,,,,,,,,,,,,masks/mask_004.jpg,,,,,,,,,,,,,,,,,,,,,,,,,,,,,,,,,,,,,,,,,,,0,2,2,3,1,,,,,,,,,,,,,,,,,,,,,,,,,,,,,,,,,,,,,,,,,,,,,,
311626,001,2022-11-20_17h53.33.932,Info_measure_main_exp,2022.2.2,Win32,60.0240096,,,,,,,,,,,,,,,,,,masks/mask_001.jpg,,,,,,,,,,,,,,,,,,,,,,,,,,,,,,,,,,,,,,,,,,,0,3,3,0,1,,,,,,,,,,,,,,,,,,,,,,,,,,,,,,,,,,,,,,,,,,,,,,
311626,001,2022-11-20_17h53.33.932,Info_measure_main_exp,2022.2.2,Win32,60.0240096,,,,,,,,,,,,,,,,,,masks/mask_002.jpg,,,,,,,,,,,,,,,,,,,,,,,,,,,,,,,,,,,,,,,,,,,0,4,4,1,1,,,,,,,,,,,,,,,,,,,,,,,,,,,,,,,,,,,,,,,,,,,,,,
311626,001,2022-11-20_17h53.33.932,Info_measure_main_exp,2022.2.2,Win32,60.0240096,,,,,,,,,,,,,,,,,,masks/mask_004.jpg,,,,,,,,,,,,,,,,,,,,,,,,,,,,,,,,,,,,,,,,,,,,,,,,0,0,0,3,1,,,,,,,,,,,,,,,,,,,,,,,,,,,,,,,,,,,,,,,,,
311626,001,2022-11-20_17h53.33.932,Info_measure_main_exp,2022.2.2,Win32,60.0240096,,,,,,,,,,,,,,,,,,masks/mask_001.jpg,,,,,,,,,,,,,,,,,,,,,,,,,,,,,,,,,,,,,,,,,,,,,,,,0,1,1,0,1,,,,,,,,,,,,,,,,,,,,,,,,,,,,,,,,,,,,,,,,,
311626,001,2022-11-20_17h53.33.932,Info_measure_main_exp,2022.2.2,Win32,60.0240096,,,,,,,,,,,,,,,,,,masks/mask_005.jpg,,,,,,,,,,,,,,,,,,,,,,,,,,,,,,,,,,,,,,,,,,,,,,,,0,2,2,4,1,,,,,,,,,,,,,,,,,,,,,,,,,,,,,,,,,,,,,,,,,
311626,001,2022-11-20_17h53.33.932,Info_measure_main_exp,2022.2.2,Win32,60.0240096,,,,,,,,,,,,,,,,,,masks/mask_003.jpg,,,,,,,,,,,,,,,,,,,,,,,,,,,,,,,,,,,,,,,,,,,,,,,,0,3,3,2,1,,,,,,,,,,,,,,,,,,,,,,,,,,,,,,,,,,,,,,,,,
311626,001,2022-11-20_17h53.33.932,Info_measure_main_exp,2022.2.2,Win32,60.0240096,,,,,,,,,,,,,,,,,,masks/mask_002.jpg,,,,,,,,,,,,,,,,,,,,,,,,,,,,,,,,,,,,,,,,,,,,,,,,0,4,4,1,1,,,,,,,,,,,,,,,,,,,,,,,,,,,,,,,,,,,,,,,,,
311626,001,2022-11-20_17h53.33.932,Info_measure_main_exp,2022.2.2,Win32,60.0240096,,,,,,,,,,,,,,,,,,,,,,,,,,,,,,0,0.739,1,,,,,,,,,,,,0,131,5,5,1986,1986,absent_patch/patch0001986.jpg,absent_patch/patch0001986.jpg,,,,,,,,,,,,,,,,,,,,-0.028645833,0.119791667,1,0,0,response7disk,4,0.005208333,0.005208333,1,0,0,center_square,0,3,3,19,1,,,,,,,,,,,,,,,,,,,,,,,
311626,001,2022-11-20_17h53.33.932,Info_measure_main_exp,2022.2.2,Win32,60.0240096,,,,,,,,,,,,,,,,,,masks/mask_002.jpg,,,,,,,,,,,,,,,,,,,,,,,,,,,,,,,,,,,,,,,,,,,0,0,0,1,1,,,,,,,,,,,,,,,,,,,,,,,,,,,,,,,,,,,,,,,,,,,,,,
311626,001,2022-11-20_17h53.33.932,Info_measure_main_exp,2022.2.2,Win32,60.0240096,,,,,,,,,,,,,,,,,,masks/mask_004.jpg,,,,,,,,,,,,,,,,,,,,,,,,,,,,,,,,,,,,,,,,,,,0,1,1,3,1,,,,,,,,,,,,,,,,,,,,,,,,,,,,,,,,,,,,,,,,,,,,,,
311626,001,2022-11-20_17h53.33.932,Info_measure_main_exp,2022.2.2,Win32,60.0240096,,,,,,,,,,,,,,,,,,masks/mask_003.jpg,,,,,,,,,,,,,,,,,,,,,,,,,,,,,,,,,,,,,,,,,,,0,2,2,2,1,,,,,,,,,,,,,,,,,,,,,,,,,,,,,,,,,,,,,,,,,,,,,,
311626,001,2022-11-20_17h53.33.932,Info_measure_main_exp,2022.2.2,Win32,60.0240096,,,,,,,,,,,,,,,,,,masks/mask_001.jpg,,,,,,,,,,,,,,,,,,,,,,,,,,,,,,,,,,,,,,,,,,,0,3,3,0,1,,,,,,,,,,,,,,,,,,,,,,,,,,,,,,,,,,,,,,,,,,,,,,
311626,001,2022-11-20_17h53.33.932,Info_measure_main_exp,2022.2.2,Win32,60.0240096,,,,,,,,,,,,,,,,,,masks/mask_005.jpg,,,,,,,,,,,,,,,,,,,,,,,,,,,,,,,,,,,,,,,,,,,0,4,4,4,1,,,,,,,,,,,,,,,,,,,,,,,,,,,,,,,,,,,,,,,,,,,,,,
311626,001,2022-11-20_17h53.33.932,Info_measure_main_exp,2022.2.2,Win32,60.0240096,,,,,,,,,,,,,,,,,,masks/mask_001.jpg,,,,,,,,,,,,,,,,,,,,,,,,,,,,,,,,,,,,,,,,,,,,,,,,0,0,0,0,1,,,,,,,,,,,,,,,,,,,,,,,,,,,,,,,,,,,,,,,,,
311626,001,2022-11-20_17h53.33.932,Info_measure_main_exp,2022.2.2,Win32,60.0240096,,,,,,,,,,,,,,,,,,masks/mask_003.jpg,,,,,,,,,,,,,,,,,,,,,,,,,,,,,,,,,,,,,,,,,,,,,,,,0,1,1,2,1,,,,,,,,,,,,,,,,,,,,,,,,,,,,,,,,,,,,,,,,,
311626,001,2022-11-20_17h53.33.932,Info_measure_main_exp,2022.2.2,Win32,60.0240096,,,,,,,,,,,,,,,,,,masks/mask_002.jpg,,,,,,,,,,,,,,,,,,,,,,,,,,,,,,,,,,,,,,,,,,,,,,,,0,2,2,1,1,,,,,,,,,,,,,,,,,,,,,,,,,,,,,,,,,,,,,,,,,
311626,001,2022-11-20_17h53.33.932,Info_measure_main_exp,2022.2.2,Win32,60.0240096,,,,,,,,,,,,,,,,,,masks/mask_004.jpg,,,,,,,,,,,,,,,,,,,,,,,,,,,,,,,,,,,,,,,,,,,,,,,,0,3,3,3,1,,,,,,,,,,,,,,,,,,,,,,,,,,,,,,,,,,,,,,,,,
311626,001,2022-11-20_17h53.33.932,Info_measure_main_exp,2022.2.2,Win32,60.0240096,,,,,,,,,,,,,,,,,,masks/mask_005.jpg,,,,,,,,,,,,,,,,,,,,,,,,,,,,,,,,,,,,,,,,,,,,,,,,0,4,4,4,1,,,,,,,,,,,,,,,,,,,,,,,,,,,,,,,,,,,,,,,,,
311626,001,2022-11-20_17h53.33.932,Info_measure_main_exp,2022.2.2,Win32,60.0240096,,,,,,,,,,,,,,,,,,,,,,,,,,,,,,0,0.806,1,,,,,,,,,,,,1,131,5,5,1,1,present_patch/cong_131_5_a.jpg,present_patch/cong_131_5_a.jpg,,,,,,,,,,,,,,,,,,,,-0.029947917,0.0703125,1,0,0,response7disk,5,0.002604167,-0.001302083,1,0,0,center_square,0,4,4,30,1,,,,,,,,,,,,,,,,,,,,,,,
311626,001,2022-11-20_17h53.33.932,Info_measure_main_exp,2022.2.2,Win32,60.0240096,,,,,,,,,,,,,,,,,,masks/mask_001.jpg,,,,,,,,,,,,,,,,,,,,,,,,,,,,,,,,,,,,,,,,,,,0,0,0,0,1,,,,,,,,,,,,,,,,,,,,,,,,,,,,,,,,,,,,,,,,,,,,,,
311626,001,2022-11-20_17h53.33.932,Info_measure_main_exp,2022.2.2,Win32,60.0240096,,,,,,,,,,,,,,,,,,masks/mask_003.jpg,,,,,,,,,,,,,,,,,,,,,,,,,,,,,,,,,,,,,,,,,,,0,1,1,2,1,,,,,,,,,,,,,,,,,,,,,,,,,,,,,,,,,,,,,,,,,,,,,,
311626,001,2022-11-20_17h53.33.932,Info_measure_main_exp,2022.2.2,Win32,60.0240096,,,,,,,,,,,,,,,,,,masks/mask_004.jpg,,,,,,,,,,,,,,,,,,,,,,,,,,,,,,,,,,,,,,,,,,,0,2,2,3,1,,,,,,,,,,,,,,,,,,,,,,,,,,,,,,,,,,,,,,,,,,,,,,
311626,001,2022-11-20_17h53.33.932,Info_measure_main_exp,2022.2.2,Win32,60.0240096,,,,,,,,,,,,,,,,,,masks/mask_005.jpg,,,,,,,,,,,,,,,,,,,,,,,,,,,,,,,,,,,,,,,,,,,0,3,3,4,1,,,,,,,,,,,,,,,,,,,,,,,,,,,,,,,,,,,,,,,,,,,,,,
311626,001,2022-11-20_17h53.33.932,Info_measure_main_exp,2022.2.2,Win32,60.0240096,,,,,,,,,,,,,,,,,,masks/mask_002.jpg,,,,,,,,,,,,,,,,,,,,,,,,,,,,,,,,,,,,,,,,,,,0,4,4,1,1,,,,,,,,,,,,,,,,,,,,,,,,,,,,,,,,,,,,,,,,,,,,,,
311626,001,2022-11-20_17h53.33.932,Info_measure_main_exp,2022.2.2,Win32,60.0240096,,,,,,,,,,,,,,,,,,masks/mask_001.jpg,,,,,,,,,,,,,,,,,,,,,,,,,,,,,,,,,,,,,,,,,,,,,,,,0,0,0,0,1,,,,,,,,,,,,,,,,,,,,,,,,,,,,,,,,,,,,,,,,,
311626,001,2022-11-20_17h53.33.932,Info_measure_main_exp,2022.2.2,Win32,60.0240096,,,,,,,,,,,,,,,,,,masks/mask_005.jpg,,,,,,,,,,,,,,,,,,,,,,,,,,,,,,,,,,,,,,,,,,,,,,,,0,1,1,4,1,,,,,,,,,,,,,,,,,,,,,,,,,,,,,,,,,,,,,,,,,
311626,001,2022-11-20_17h53.33.932,Info_measure_main_exp,2022.2.2,Win32,60.0240096,,,,,,,,,,,,,,,,,,masks/mask_004.jpg,,,,,,,,,,,,,,,,,,,,,,,,,,,,,,,,,,,,,,,,,,,,,,,,0,2,2,3,1,,,,,,,,,,,,,,,,,,,,,,,,,,,,,,,,,,,,,,,,,
311626,001,2022-11-20_17h53.33.932,Info_measure_main_exp,2022.2.2,Win32,60.0240096,,,,,,,,,,,,,,,,,,masks/mask_003.jpg,,,,,,,,,,,,,,,,,,,,,,,,,,,,,,,,,,,,,,,,,,,,,,,,0,3,3,2,1,,,,,,,,,,,,,,,,,,,,,,,,,,,,,,,,,,,,,,,,,
311626,001,2022-11-20_17h53.33.932,Info_measure_main_exp,2022.2.2,Win32,60.0240096,,,,,,,,,,,,,,,,,,masks/mask_002.jpg,,,,,,,,,,,,,,,,,,,,,,,,,,,,,,,,,,,,,,,,,,,,,,,,0,4,4,1,1,,,,,,,,,,,,,,,,,,,,,,,,,,,,,,,,,,,,,,,,,
311626,001,2022-11-20_17h53.33.932,Info_measure_main_exp,2022.2.2,Win32,60.0240096,,,,,,,,,,,,,,,,,,,,,,,,,,,,,,7,0.738,1,,,,,,,,,,,,0,131,5,5,1950,2214,absent_patch/patch0001950.jpg,absent_patch/patch0002214.jpg,,,,,,,,,,,,,,,,,,,,0.033854167,0.151041667,1,0,0,response1disk,6,0.005208333,0.00390625,1,0,0,center_square,0,5,5,85,1,,,,,,,,,,,,,,,,,,,,,,,
311626,001,2022-11-20_17h53.33.932,Info_measure_main_exp,2022.2.2,Win32,60.0240096,,,,,,,,,,,,,,,,,,masks/mask_001.jpg,,,,,,,,,,,,,,,,,,,,,,,,,,,,,,,,,,,,,,,,,,,0,0,0,0,1,,,,,,,,,,,,,,,,,,,,,,,,,,,,,,,,,,,,,,,,,,,,,,
311626,001,2022-11-20_17h53.33.932,Info_measure_main_exp,2022.2.2,Win32,60.0240096,,,,,,,,,,,,,,,,,,masks/mask_002.jpg,,,,,,,,,,,,,,,,,,,,,,,,,,,,,,,,,,,,,,,,,,,0,1,1,1,1,,,,,,,,,,,,,,,,,,,,,,,,,,,,,,,,,,,,,,,,,,,,,,
311626,001,2022-11-20_17h53.33.932,Info_measure_main_exp,2022.2.2,Win32,60.0240096,,,,,,,,,,,,,,,,,,masks/mask_003.jpg,,,,,,,,,,,,,,,,,,,,,,,,,,,,,,,,,,,,,,,,,,,0,2,2,2,1,,,,,,,,,,,,,,,,,,,,,,,,,,,,,,,,,,,,,,,,,,,,,,
311626,001,2022-11-20_17h53.33.932,Info_measure_main_exp,2022.2.2,Win32,60.0240096,,,,,,,,,,,,,,,,,,masks/mask_005.jpg,,,,,,,,,,,,,,,,,,,,,,,,,,,,,,,,,,,,,,,,,,,0,3,3,4,1,,,,,,,,,,,,,,,,,,,,,,,,,,,,,,,,,,,,,,,,,,,,,,
311626,001,2022-11-20_17h53.33.932,Info_measure_main_exp,2022.2.2,Win32,60.0240096,,,,,,,,,,,,,,,,,,masks/mask_004.jpg,,,,,,,,,,,,,,,,,,,,,,,,,,,,,,,,,,,,,,,,,,,0,4,4,3,1,,,,,,,,,,,,,,,,,,,,,,,,,,,,,,,,,,,,,,,,,,,,,,
311626,001,2022-11-20_17h53.33.932,Info_measure_main_exp,2022.2.2,Win32,60.0240096,,,,,,,,,,,,,,,,,,masks/mask_004.jpg,,,,,,,,,,,,,,,,,,,,,,,,,,,,,,,,,,,,,,,,,,,,,,,,0,0,0,3,1,,,,,,,,,,,,,,,,,,,,,,,,,,,,,,,,,,,,,,,,,
311626,001,2022-11-20_17h53.33.932,Info_measure_main_exp,2022.2.2,Win32,60.0240096,,,,,,,,,,,,,,,,,,masks/mask_001.jpg,,,,,,,,,,,,,,,,,,,,,,,,,,,,,,,,,,,,,,,,,,,,,,,,0,1,1,0,1,,,,,,,,,,,,,,,,,,,,,,,,,,,,,,,,,,,,,,,,,
311626,001,2022-11-20_17h53.33.932,Info_measure_main_exp,2022.2.2,Win32,60.0240096,,,,,,,,,,,,,,,,,,masks/mask_003.jpg,,,,,,,,,,,,,,,,,,,,,,,,,,,,,,,,,,,,,,,,,,,,,,,,0,2,2,2,1,,,,,,,,,,,,,,,,,,,,,,,,,,,,,,,,,,,,,,,,,
311626,001,2022-11-20_17h53.33.932,Info_measure_main_exp,2022.2.2,Win32,60.0240096,,,,,,,,,,,,,,,,,,masks/mask_005.jpg,,,,,,,,,,,,,,,,,,,,,,,,,,,,,,,,,,,,,,,,,,,,,,,,0,3,3,4,1,,,,,,,,,,,,,,,,,,,,,,,,,,,,,,,,,,,,,,,,,
311626,001,2022-11-20_17h53.33.932,Info_measure_main_exp,2022.2.2,Win32,60.0240096,,,,,,,,,,,,,,,,,,masks/mask_002.jpg,,,,,,,,,,,,,,,,,,,,,,,,,,,,,,,,,,,,,,,,,,,,,,,,0,4,4,1,1,,,,,,,,,,,,,,,,,,,,,,,,,,,,,,,,,,,,,,,,,
311626,001,2022-11-20_17h53.33.932,Info_measure_main_exp,2022.2.2,Win32,60.0240096,,,,,,,,,,,,,,,,,,,,,,,,,,,,,,0,0.754,1,,,,,,,,,,,,0,131,5,5,2274,2274,absent_patch/patch0002274.jpg,absent_patch/patch0002274.jpg,,,,,,,,,,,,,,,,,,,,-0.033854167,0.115885417,1,0,0,response7disk,7,0.00390625,0.0078125,1,0,0,center_square,0,6,6,114,1,,,,,,,,,,,,,,,,,,,,,,,
311626,001,2022-11-20_17h53.33.932,Info_measure_main_exp,2022.2.2,Win32,60.0240096,,,,,,,,,,,,,,,,,,masks/mask_003.jpg,,,,,,,,,,,,,,,,,,,,,,,,,,,,,,,,,,,,,,,,,,,0,0,0,2,1,,,,,,,,,,,,,,,,,,,,,,,,,,,,,,,,,,,,,,,,,,,,,,
311626,001,2022-11-20_17h53.33.932,Info_measure_main_exp,2022.2.2,Win32,60.0240096,,,,,,,,,,,,,,,,,,masks/mask_005.jpg,,,,,,,,,,,,,,,,,,,,,,,,,,,,,,,,,,,,,,,,,,,0,1,1,4,1,,,,,,,,,,,,,,,,,,,,,,,,,,,,,,,,,,,,,,,,,,,,,,
311626,001,2022-11-20_17h53.33.932,Info_measure_main_exp,2022.2.2,Win32,60.0240096,,,,,,,,,,,,,,,,,,masks/mask_001.jpg,,,,,,,,,,,,,,,,,,,,,,,,,,,,,,,,,,,,,,,,,,,0,2,2,0,1,,,,,,,,,,,,,,,,,,,,,,,,,,,,,,,,,,,,,,,,,,,,,,
311626,001,2022-11-20_17h53.33.932,Info_measure_main_exp,2022.2.2,Win32,60.0240096,,,,,,,,,,,,,,,,,,masks/mask_004.jpg,,,,,,,,,,,,,,,,,,,,,,,,,,,,,,,,,,,,,,,,,,,0,3,3,3,1,,,,,,,,,,,,,,,,,,,,,,,,,,,,,,,,,,,,,,,,,,,,,,
311626,001,2022-11-20_17h53.33.932,Info_measure_main_exp,2022.2.2,Win32,60.0240096,,,,,,,,,,,,,,,,,,masks/mask_002.jpg,,,,,,,,,,,,,,,,,,,,,,,,,,,,,,,,,,,,,,,,,,,0,4,4,1,1,,,,,,,,,,,,,,,,,,,,,,,,,,,,,,,,,,,,,,,,,,,,,,
311626,001,2022-11-20_17h53.33.932,Info_measure_main_exp,2022.2.2,Win32,60.0240096,,,,,,,,,,,,,,,,,,masks/mask_003.jpg,,,,,,,,,,,,,,,,,,,,,,,,,,,,,,,,,,,,,,,,,,,,,,,,0,0,0,2,1,,,,,,,,,,,,,,,,,,,,,,,,,,,,,,,,,,,,,,,,,
311626,001,2022-11-20_17h53.33.932,Info_measure_main_exp,2022.2.2,Win32,60.0240096,,,,,,,,,,,,,,,,,,masks/mask_005.jpg,,,,,,,,,,,,,,,,,,,,,,,,,,,,,,,,,,,,,,,,,,,,,,,,0,1,1,4,1,,,,,,,,,,,,,,,,,,,,,,,,,,,,,,,,,,,,,,,,,
311626,001,2022-11-20_17h53.33.932,Info_measure_main_exp,2022.2.2,Win32,60.0240096,,,,,,,,,,,,,,,,,,masks/mask_002.jpg,,,,,,,,,,,,,,,,,,,,,,,,,,,,,,,,,,,,,,,,,,,,,,,,0,2,2,1,1,,,,,,,,,,,,,,,,,,,,,,,,,,,,,,,,,,,,,,,,,
311626,001,2022-11-20_17h53.33.932,Info_measure_main_exp,2022.2.2,Win32,60.0240096,,,,,,,,,,,,,,,,,,masks/mask_004.jpg,,,,,,,,,,,,,,,,,,,,,,,,,,,,,,,,,,,,,,,,,,,,,,,,0,3,3,3,1,,,,,,,,,,,,,,,,,,,,,,,,,,,,,,,,,,,,,,,,,
311626,001,2022-11-20_17h53.33.932,Info_measure_main_exp,2022.2.2,Win32,60.0240096,,,,,,,,,,,,,,,,,,masks/mask_001.jpg,,,,,,,,,,,,,,,,,,,,,,,,,,,,,,,,,,,,,,,,,,,,,,,,0,4,4,0,1,,,,,,,,,,,,,,,,,,,,,,,,,,,,,,,,,,,,,,,,,
311626,001,2022-11-20_17h53.33.932,Info_measure_main_exp,2022.2.2,Win32,60.0240096,,,,,,,,,,,,,,,,,,,,,,,,,,,,,,7,0.838,1,,,,,,,,,,,,1,131,5,5,1,2142,present_patch/cong_131_5_a.jpg,absent_patch/patch0002142.jpg,,,,,,,,,,,,,,,,,,,,0.05078125,0.139322917,1,0,0,response1disk,8,0.002604167,0.010416667,1,0,0,center_square,0,7,7,80,1,,,,,,,,,,,,,,,,,,,,,,,
311626,001,2022-11-20_17h53.33.932,Info_measure_main_exp,2022.2.2,Win32,60.0240096,,,,,,,,,,,,,,,,,,masks/mask_002.jpg,,,,,,,,,,,,,,,,,,,,,,,,,,,,,,,,,,,,,,,,,,,0,0,0,1,1,,,,,,,,,,,,,,,,,,,,,,,,,,,,,,,,,,,,,,,,,,,,,,
311626,001,2022-11-20_17h53.33.932,Info_measure_main_exp,2022.2.2,Win32,60.0240096,,,,,,,,,,,,,,,,,,masks/mask_003.jpg,,,,,,,,,,,,,,,,,,,,,,,,,,,,,,,,,,,,,,,,,,,0,1,1,2,1,,,,,,,,,,,,,,,,,,,,,,,,,,,,,,,,,,,,,,,,,,,,,,
311626,001,2022-11-20_17h53.33.932,Info_measure_main_exp,2022.2.2,Win32,60.0240096,,,,,,,,,,,,,,,,,,masks/mask_005.jpg,,,,,,,,,,,,,,,,,,,,,,,,,,,,,,,,,,,,,,,,,,,0,2,2,4,1,,,,,,,,,,,,,,,,,,,,,,,,,,,,,,,,,,,,,,,,,,,,,,
311626,001,2022-11-20_17h53.33.932,Info_measure_main_exp,2022.2.2,Win32,60.0240096,,,,,,,,,,,,,,,,,,masks/mask_001.jpg,,,,,,,,,,,,,,,,,,,,,,,,,,,,,,,,,,,,,,,,,,,0,3,3,0,1,,,,,,,,,,,,,,,,,,,,,,,,,,,,,,,,,,,,,,,,,,,,,,
311626,001,2022-11-20_17h53.33.932,Info_measure_main_exp,2022.2.2,Win32,60.0240096,,,,,,,,,,,,,,,,,,masks/mask_004.jpg,,,,,,,,,,,,,,,,,,,,,,,,,,,,,,,,,,,,,,,,,,,0,4,4,3,1,,,,,,,,,,,,,,,,,,,,,,,,,,,,,,,,,,,,,,,,,,,,,,
311626,001,2022-11-20_17h53.33.932,Info_measure_main_exp,2022.2.2,Win32,60.0240096,,,,,,,,,,,,,,,,,,masks/mask_005.jpg,,,,,,,,,,,,,,,,,,,,,,,,,,,,,,,,,,,,,,,,,,,,,,,,0,0,0,4,1,,,,,,,,,,,,,,,,,,,,,,,,,,,,,,,,,,,,,,,,,
311626,001,2022-11-20_17h53.33.932,Info_measure_main_exp,2022.2.2,Win32,60.0240096,,,,,,,,,,,,,,,,,,masks/mask_004.jpg,,,,,,,,,,,,,,,,,,,,,,,,,,,,,,,,,,,,,,,,,,,,,,,,0,1,1,3,1,,,,,,,,,,,,,,,,,,,,,,,,,,,,,,,,,,,,,,,,,
311626,001,2022-11-20_17h53.33.932,Info_measure_main_exp,2022.2.2,Win32,60.0240096,,,,,,,,,,,,,,,,,,masks/mask_003.jpg,,,,,,,,,,,,,,,,,,,,,,,,,,,,,,,,,,,,,,,,,,,,,,,,0,2,2,2,1,,,,,,,,,,,,,,,,,,,,,,,,,,,,,,,,,,,,,,,,,
311626,001,2022-11-20_17h53.33.932,Info_measure_main_exp,2022.2.2,Win32,60.0240096,,,,,,,,,,,,,,,,,,masks/mask_001.jpg,,,,,,,,,,,,,,,,,,,,,,,,,,,,,,,,,,,,,,,,,,,,,,,,0,3,3,0,1,,,,,,,,,,,,,,,,,,,,,,,,,,,,,,,,,,,,,,,,,
311626,001,2022-11-20_17h53.33.932,Info_measure_main_exp,2022.2.2,Win32,60.0240096,,,,,,,,,,,,,,,,,,masks/mask_002.jpg,,,,,,,,,,,,,,,,,,,,,,,,,,,,,,,,,,,,,,,,,,,,,,,,0,4,4,1,1,,,,,,,,,,,,,,,,,,,,,,,,,,,,,,,,,,,,,,,,,
311626,001,2022-11-20_17h53.33.932,Info_measure_main_exp,2022.2.2,Win32,60.0240096,,,,,,,,,,,,,,,,,,,,,,,,,,,,,,6,1.356,1,,,,,,,,,,,,0,131,5,5,1986,2154,absent_patch/patch0001986.jpg,absent_patch/patch0002154.jpg,,,,,,,,,,,,,,,,,,,,0.071614583,0.041666667,1,0,0,response1disk,9,0.001302083,-0.001302083,1,0,0,center_square,0,8,8,36,1,,,,,,,,,,,,,,,,,,,,,,,
311626,001,2022-11-20_17h53.33.932,Info_measure_main_exp,2022.2.2,Win32,60.0240096,,,,,,,,,,,,,,,,,,masks/mask_001.jpg,,,,,,,,,,,,,,,,,,,,,,,,,,,,,,,,,,,,,,,,,,,0,0,0,0,1,,,,,,,,,,,,,,,,,,,,,,,,,,,,,,,,,,,,,,,,,,,,,,
311626,001,2022-11-20_17h53.33.932,Info_measure_main_exp,2022.2.2,Win32,60.0240096,,,,,,,,,,,,,,,,,,masks/mask_004.jpg,,,,,,,,,,,,,,,,,,,,,,,,,,,,,,,,,,,,,,,,,,,0,1,1,3,1,,,,,,,,,,,,,,,,,,,,,,,,,,,,,,,,,,,,,,,,,,,,,,
311626,001,2022-11-20_17h53.33.932,Info_measure_main_exp,2022.2.2,Win32,60.0240096,,,,,,,,,,,,,,,,,,masks/mask_002.jpg,,,,,,,,,,,,,,,,,,,,,,,,,,,,,,,,,,,,,,,,,,,0,2,2,1,1,,,,,,,,,,,,,,,,,,,,,,,,,,,,,,,,,,,,,,,,,,,,,,
311626,001,2022-11-20_17h53.33.932,Info_measure_main_exp,2022.2.2,Win32,60.0240096,,,,,,,,,,,,,,,,,,masks/mask_005.jpg,,,,,,,,,,,,,,,,,,,,,,,,,,,,,,,,,,,,,,,,,,,0,3,3,4,1,,,,,,,,,,,,,,,,,,,,,,,,,,,,,,,,,,,,,,,,,,,,,,
311626,001,2022-11-20_17h53.33.932,Info_measure_main_exp,2022.2.2,Win32,60.0240096,,,,,,,,,,,,,,,,,,masks/mask_003.jpg,,,,,,,,,,,,,,,,,,,,,,,,,,,,,,,,,,,,,,,,,,,0,4,4,2,1,,,,,,,,,,,,,,,,,,,,,,,,,,,,,,,,,,,,,,,,,,,,,,
311626,001,2022-11-20_17h53.33.932,Info_measure_main_exp,2022.2.2,Win32,60.0240096,,,,,,,,,,,,,,,,,,masks/mask_005.jpg,,,,,,,,,,,,,,,,,,,,,,,,,,,,,,,,,,,,,,,,,,,,,,,,0,0,0,4,1,,,,,,,,,,,,,,,,,,,,,,,,,,,,,,,,,,,,,,,,,
311626,001,2022-11-20_17h53.33.932,Info_measure_main_exp,2022.2.2,Win32,60.0240096,,,,,,,,,,,,,,,,,,masks/mask_004.jpg,,,,,,,,,,,,,,,,,,,,,,,,,,,,,,,,,,,,,,,,,,,,,,,,0,1,1,3,1,,,,,,,,,,,,,,,,,,,,,,,,,,,,,,,,,,,,,,,,,
311626,001,2022-11-20_17h53.33.932,Info_measure_main_exp,2022.2.2,Win32,60.0240096,,,,,,,,,,,,,,,,,,masks/mask_003.jpg,,,,,,,,,,,,,,,,,,,,,,,,,,,,,,,,,,,,,,,,,,,,,,,,0,2,2,2,1,,,,,,,,,,,,,,,,,,,,,,,,,,,,,,,,,,,,,,,,,
311626,001,2022-11-20_17h53.33.932,Info_measure_main_exp,2022.2.2,Win32,60.0240096,,,,,,,,,,,,,,,,,,masks/mask_001.jpg,,,,,,,,,,,,,,,,,,,,,,,,,,,,,,,,,,,,,,,,,,,,,,,,0,3,3,0,1,,,,,,,,,,,,,,,,,,,,,,,,,,,,,,,,,,,,,,,,,
311626,001,2022-11-20_17h53.33.932,Info_measure_main_exp,2022.2.2,Win32,60.0240096,,,,,,,,,,,,,,,,,,masks/mask_002.jpg,,,,,,,,,,,,,,,,,,,,,,,,,,,,,,,,,,,,,,,,,,,,,,,,0,4,4,1,1,,,,,,,,,,,,,,,,,,,,,,,,,,,,,,,,,,,,,,,,,
311626,001,2022-11-20_17h53.33.932,Info_measure_main_exp,2022.2.2,Win32,60.0240096,,,,,,,,,,,,,,,,,,,,,,,,,,,,,,7,0.939,1,,,,,,,,,,,,0,131,5,5,2298,2214,absent_patch/patch0002298.jpg,absent_patch/patch0002214.jpg,,,,,,,,,,,,,,,,,,,,0.052083333,0.140625,1,0,0,response1disk,10,0.005208333,-0.001302083,1,0,0,center_square,0,9,9,99,1,,,,,,,,,,,,,,,,,,,,,,,
311626,001,2022-11-20_17h53.33.932,Info_measure_main_exp,2022.2.2,Win32,60.0240096,,,,,,,,,,,,,,,,,,masks/mask_003.jpg,,,,,,,,,,,,,,,,,,,,,,,,,,,,,,,,,,,,,,,,,,,0,0,0,2,1,,,,,,,,,,,,,,,,,,,,,,,,,,,,,,,,,,,,,,,,,,,,,,
311626,001,2022-11-20_17h53.33.932,Info_measure_main_exp,2022.2.2,Win32,60.0240096,,,,,,,,,,,,,,,,,,masks/mask_001.jpg,,,,,,,,,,,,,,,,,,,,,,,,,,,,,,,,,,,,,,,,,,,0,1,1,0,1,,,,,,,,,,,,,,,,,,,,,,,,,,,,,,,,,,,,,,,,,,,,,,
311626,001,2022-11-20_17h53.33.932,Info_measure_main_exp,2022.2.2,Win32,60.0240096,,,,,,,,,,,,,,,,,,masks/mask_004.jpg,,,,,,,,,,,,,,,,,,,,,,,,,,,,,,,,,,,,,,,,,,,0,2,2,3,1,,,,,,,,,,,,,,,,,,,,,,,,,,,,,,,,,,,,,,,,,,,,,,
311626,001,2022-11-20_17h53.33.932,Info_measure_main_exp,2022.2.2,Win32,60.0240096,,,,,,,,,,,,,,,,,,masks/mask_002.jpg,,,,,,,,,,,,,,,,,,,,,,,,,,,,,,,,,,,,,,,,,,,0,3,3,1,1,,,,,,,,,,,,,,,,,,,,,,,,,,,,,,,,,,,,,,,,,,,,,,
311626,001,2022-11-20_17h53.33.932,Info_measure_main_exp,2022.2.2,Win32,60.0240096,,,,,,,,,,,,,,,,,,masks/mask_005.jpg,,,,,,,,,,,,,,,,,,,,,,,,,,,,,,,,,,,,,,,,,,,0,4,4,4,1,,,,,,,,,,,,,,,,,,,,,,,,,,,,,,,,,,,,,,,,,,,,,,
311626,001,2022-11-20_17h53.33.932,Info_measure_main_exp,2022.2.2,Win32,60.0240096,,,,,,,,,,,,,,,,,,masks/mask_002.jpg,,,,,,,,,,,,,,,,,,,,,,,,,,,,,,,,,,,,,,,,,,,,,,,,0,0,0,1,1,,,,,,,,,,,,,,,,,,,,,,,,,,,,,,,,,,,,,,,,,
311626,001,2022-11-20_17h53.33.932,Info_measure_main_exp,2022.2.2,Win32,60.0240096,,,,,,,,,,,,,,,,,,masks/mask_003.jpg,,,,,,,,,,,,,,,,,,,,,,,,,,,,,,,,,,,,,,,,,,,,,,,,0,1,1,2,1,,,,,,,,,,,,,,,,,,,,,,,,,,,,,,,,,,,,,,,,,
311626,001,2022-11-20_17h53.33.932,Info_measure_main_exp,2022.2.2,Win32,60.0240096,,,,,,,,,,,,,,,,,,masks/mask_001.jpg,,,,,,,,,,,,,,,,,,,,,,,,,,,,,,,,,,,,,,,,,,,,,,,,0,2,2,0,1,,,,,,,,,,,,,,,,,,,,,,,,,,,,,,,,,,,,,,,,,
311626,001,2022-11-20_17h53.33.932,Info_measure_main_exp,2022.2.2,Win32,60.0240096,,,,,,,,,,,,,,,,,,masks/mask_004.jpg,,,,,,,,,,,,,,,,,,,,,,,,,,,,,,,,,,,,,,,,,,,,,,,,0,3,3,3,1,,,,,,,,,,,,,,,,,,,,,,,,,,,,,,,,,,,,,,,,,
311626,001,2022-11-20_17h53.33.932,Info_measure_main_exp,2022.2.2,Win32,60.0240096,,,,,,,,,,,,,,,,,,masks/mask_005.jpg,,,,,,,,,,,,,,,,,,,,,,,,,,,,,,,,,,,,,,,,,,,,,,,,0,4,4,4,1,,,,,,,,,,,,,,,,,,,,,,,,,,,,,,,,,,,,,,,,,
311626,001,2022-11-20_17h53.33.932,Info_measure_main_exp,2022.2.2,Win32,60.0240096,,,,,,,,,,,,,,,,,,,,,,,,,,,,,,7,0.651,1,,,,,,,,,,,,0,131,5,5,2298,2142,absent_patch/patch0002298.jpg,absent_patch/patch0002142.jpg,,,,,,,,,,,,,,,,,,,,0.036458333,0.131510417,1,0,0,response1disk,11,-0.002604167,0.002604167,1,0,0,center_square,0,10,10,49,1,,,,,,,,,,,,,,,,,,,,,,,
311626,001,2022-11-20_17h53.33.932,Info_measure_main_exp,2022.2.2,Win32,60.0240096,,,,,,,,,,,,,,,,,,masks/mask_002.jpg,,,,,,,,,,,,,,,,,,,,,,,,,,,,,,,,,,,,,,,,,,,0,0,0,1,1,,,,,,,,,,,,,,,,,,,,,,,,,,,,,,,,,,,,,,,,,,,,,,
311626,001,2022-11-20_17h53.33.932,Info_measure_main_exp,2022.2.2,Win32,60.0240096,,,,,,,,,,,,,,,,,,masks/mask_003.jpg,,,,,,,,,,,,,,,,,,,,,,,,,,,,,,,,,,,,,,,,,,,0,1,1,2,1,,,,,,,,,,,,,,,,,,,,,,,,,,,,,,,,,,,,,,,,,,,,,,
311626,001,2022-11-20_17h53.33.932,Info_measure_main_exp,2022.2.2,Win32,60.0240096,,,,,,,,,,,,,,,,,,masks/mask_005.jpg,,,,,,,,,,,,,,,,,,,,,,,,,,,,,,,,,,,,,,,,,,,0,2,2,4,1,,,,,,,,,,,,,,,,,,,,,,,,,,,,,,,,,,,,,,,,,,,,,,
311626,001,2022-11-20_17h53.33.932,Info_measure_main_exp,2022.2.2,Win32,60.0240096,,,,,,,,,,,,,,,,,,masks/mask_004.jpg,,,,,,,,,,,,,,,,,,,,,,,,,,,,,,,,,,,,,,,,,,,0,3,3,3,1,,,,,,,,,,,,,,,,,,,,,,,,,,,,,,,,,,,,,,,,,,,,,,
311626,001,2022-11-20_17h53.33.932,Info_measure_main_exp,2022.2.2,Win32,60.0240096,,,,,,,,,,,,,,,,,,masks/mask_001.jpg,,,,,,,,,,,,,,,,,,,,,,,,,,,,,,,,,,,,,,,,,,,0,4,4,0,1,,,,,,,,,,,,,,,,,,,,,,,,,,,,,,,,,,,,,,,,,,,,,,
311626,001,2022-11-20_17h53.33.932,Info_measure_main_exp,2022.2.2,Win32,60.0240096,,,,,,,,,,,,,,,,,,masks/mask_003.jpg,,,,,,,,,,,,,,,,,,,,,,,,,,,,,,,,,,,,,,,,,,,,,,,,0,0,0,2,1,,,,,,,,,,,,,,,,,,,,,,,,,,,,,,,,,,,,,,,,,
311626,001,2022-11-20_17h53.33.932,Info_measure_main_exp,2022.2.2,Win32,60.0240096,,,,,,,,,,,,,,,,,,masks/mask_005.jpg,,,,,,,,,,,,,,,,,,,,,,,,,,,,,,,,,,,,,,,,,,,,,,,,0,1,1,4,1,,,,,,,,,,,,,,,,,,,,,,,,,,,,,,,,,,,,,,,,,
311626,001,2022-11-20_17h53.33.932,Info_measure_main_exp,2022.2.2,Win32,60.0240096,,,,,,,,,,,,,,,,,,masks/mask_002.jpg,,,,,,,,,,,,,,,,,,,,,,,,,,,,,,,,,,,,,,,,,,,,,,,,0,2,2,1,1,,,,,,,,,,,,,,,,,,,,,,,,,,,,,,,,,,,,,,,,,
311626,001,2022-11-20_17h53.33.932,Info_measure_main_exp,2022.2.2,Win32,60.0240096,,,,,,,,,,,,,,,,,,masks/mask_004.jpg,,,,,,,,,,,,,,,,,,,,,,,,,,,,,,,,,,,,,,,,,,,,,,,,0,3,3,3,1,,,,,,,,,,,,,,,,,,,,,,,,,,,,,,,,,,,,,,,,,
311626,001,2022-11-20_17h53.33.932,Info_measure_main_exp,2022.2.2,Win32,60.0240096,,,,,,,,,,,,,,,,,,masks/mask_001.jpg,,,,,,,,,,,,,,,,,,,,,,,,,,,,,,,,,,,,,,,,,,,,,,,,0,4,4,0,1,,,,,,,,,,,,,,,,,,,,,,,,,,,,,,,,,,,,,,,,,
311626,001,2022-11-20_17h53.33.932,Info_measure_main_exp,2022.2.2,Win32,60.0240096,,,,,,,,,,,,,,,,,,,,,,,,,,,,,,0,0.854,1,,,,,,,,,,,,0,131,5,5,1950,1950,absent_patch/patch0001950.jpg,absent_patch/patch0001950.jpg,,,,,,,,,,,,,,,,,,,,-0.03515625,0.11328125,1,0,0,response7disk,12,0.005208333,-0.00390625,1,0,0,center_square,0,11,11,92,1,,,,,,,,,,,,,,,,,,,,,,,
311626,001,2022-11-20_17h53.33.932,Info_measure_main_exp,2022.2.2,Win32,60.0240096,,,,,,,,,,,,,,,,,,masks/mask_004.jpg,,,,,,,,,,,,,,,,,,,,,,,,,,,,,,,,,,,,,,,,,,,0,0,0,3,1,,,,,,,,,,,,,,,,,,,,,,,,,,,,,,,,,,,,,,,,,,,,,,
311626,001,2022-11-20_17h53.33.932,Info_measure_main_exp,2022.2.2,Win32,60.0240096,,,,,,,,,,,,,,,,,,masks/mask_002.jpg,,,,,,,,,,,,,,,,,,,,,,,,,,,,,,,,,,,,,,,,,,,0,1,1,1,1,,,,,,,,,,,,,,,,,,,,,,,,,,,,,,,,,,,,,,,,,,,,,,
311626,001,2022-11-20_17h53.33.932,Info_measure_main_exp,2022.2.2,Win32,60.0240096,,,,,,,,,,,,,,,,,,masks/mask_003.jpg,,,,,,,,,,,,,,,,,,,,,,,,,,,,,,,,,,,,,,,,,,,0,2,2,2,1,,,,,,,,,,,,,,,,,,,,,,,,,,,,,,,,,,,,,,,,,,,,,,
311626,001,2022-11-20_17h53.33.932,Info_measure_main_exp,2022.2.2,Win32,60.0240096,,,,,,,,,,,,,,,,,,masks/mask_005.jpg,,,,,,,,,,,,,,,,,,,,,,,,,,,,,,,,,,,,,,,,,,,0,3,3,4,1,,,,,,,,,,,,,,,,,,,,,,,,,,,,,,,,,,,,,,,,,,,,,,
311626,001,2022-11-20_17h53.33.932,Info_measure_main_exp,2022.2.2,Win32,60.0240096,,,,,,,,,,,,,,,,,,masks/mask_001.jpg,,,,,,,,,,,,,,,,,,,,,,,,,,,,,,,,,,,,,,,,,,,0,4,4,0,1,,,,,,,,,,,,,,,,,,,,,,,,,,,,,,,,,,,,,,,,,,,,,,
311626,001,2022-11-20_17h53.33.932,Info_measure_main_exp,2022.2.2,Win32,60.0240096,,,,,,,,,,,,,,,,,,masks/mask_004.jpg,,,,,,,,,,,,,,,,,,,,,,,,,,,,,,,,,,,,,,,,,,,,,,,,0,0,0,3,1,,,,,,,,,,,,,,,,,,,,,,,,,,,,,,,,,,,,,,,,,
311626,001,2022-11-20_17h53.33.932,Info_measure_main_exp,2022.2.2,Win32,60.0240096,,,,,,,,,,,,,,,,,,masks/mask_005.jpg,,,,,,,,,,,,,,,,,,,,,,,,,,,,,,,,,,,,,,,,,,,,,,,,0,1,1,4,1,,,,,,,,,,,,,,,,,,,,,,,,,,,,,,,,,,,,,,,,,
311626,001,2022-11-20_17h53.33.932,Info_measure_main_exp,2022.2.2,Win32,60.0240096,,,,,,,,,,,,,,,,,,masks/mask_002.jpg,,,,,,,,,,,,,,,,,,,,,,,,,,,,,,,,,,,,,,,,,,,,,,,,0,2,2,1,1,,,,,,,,,,,,,,,,,,,,,,,,,,,,,,,,,,,,,,,,,
311626,001,2022-11-20_17h53.33.932,Info_measure_main_exp,2022.2.2,Win32,60.0240096,,,,,,,,,,,,,,,,,,masks/mask_001.jpg,,,,,,,,,,,,,,,,,,,,,,,,,,,,,,,,,,,,,,,,,,,,,,,,0,3,3,0,1,,,,,,,,,,,,,,,,,,,,,,,,,,,,,,,,,,,,,,,,,
311626,001,2022-11-20_17h53.33.932,Info_measure_main_exp,2022.2.2,Win32,60.0240096,,,,,,,,,,,,,,,,,,masks/mask_003.jpg,,,,,,,,,,,,,,,,,,,,,,,,,,,,,,,,,,,,,,,,,,,,,,,,0,4,4,2,1,,,,,,,,,,,,,,,,,,,,,,,,,,,,,,,,,,,,,,,,,
311626,001,2022-11-20_17h53.33.932,Info_measure_main_exp,2022.2.2,Win32,60.0240096,,,,,,,,,,,,,,,,,,,,,,,,,,,,,,7,0.77,1,,,,,,,,,,,,1,131,5,5,1950,1,absent_patch/patch0001950.jpg,present_patch/cong_131_5_a.jpg,,,,,,,,,,,,,,,,,,,,0.055989583,0.1328125,1,0,0,response1disk,13,0.001302083,0.006510417,1,0,0,center_square,0,12,12,39,1,,,,,,,,,,,,,,,,,,,,,,,
311626,001,2022-11-20_17h53.33.932,Info_measure_main_exp,2022.2.2,Win32,60.0240096,,,,,,,,,,,,,,,,,,masks/mask_005.jpg,,,,,,,,,,,,,,,,,,,,,,,,,,,,,,,,,,,,,,,,,,,0,0,0,4,1,,,,,,,,,,,,,,,,,,,,,,,,,,,,,,,,,,,,,,,,,,,,,,
311626,001,2022-11-20_17h53.33.932,Info_measure_main_exp,2022.2.2,Win32,60.0240096,,,,,,,,,,,,,,,,,,masks/mask_001.jpg,,,,,,,,,,,,,,,,,,,,,,,,,,,,,,,,,,,,,,,,,,,0,1,1,0,1,,,,,,,,,,,,,,,,,,,,,,,,,,,,,,,,,,,,,,,,,,,,,,
311626,001,2022-11-20_17h53.33.932,Info_measure_main_exp,2022.2.2,Win32,60.0240096,,,,,,,,,,,,,,,,,,masks/mask_004.jpg,,,,,,,,,,,,,,,,,,,,,,,,,,,,,,,,,,,,,,,,,,,0,2,2,3,1,,,,,,,,,,,,,,,,,,,,,,,,,,,,,,,,,,,,,,,,,,,,,,
311626,001,2022-11-20_17h53.33.932,Info_measure_main_exp,2022.2.2,Win32,60.0240096,,,,,,,,,,,,,,,,,,masks/mask_002.jpg,,,,,,,,,,,,,,,,,,,,,,,,,,,,,,,,,,,,,,,,,,,0,3,3,1,1,,,,,,,,,,,,,,,,,,,,,,,,,,,,,,,,,,,,,,,,,,,,,,
311626,001,2022-11-20_17h53.33.932,Info_measure_main_exp,2022.2.2,Win32,60.0240096,,,,,,,,,,,,,,,,,,masks/mask_003.jpg,,,,,,,,,,,,,,,,,,,,,,,,,,,,,,,,,,,,,,,,,,,0,4,4,2,1,,,,,,,,,,,,,,,,,,,,,,,,,,,,,,,,,,,,,,,,,,,,,,
311626,001,2022-11-20_17h53.33.932,Info_measure_main_exp,2022.2.2,Win32,60.0240096,,,,,,,,,,,,,,,,,,masks/mask_002.jpg,,,,,,,,,,,,,,,,,,,,,,,,,,,,,,,,,,,,,,,,,,,,,,,,0,0,0,1,1,,,,,,,,,,,,,,,,,,,,,,,,,,,,,,,,,,,,,,,,,
311626,001,2022-11-20_17h53.33.932,Info_measure_main_exp,2022.2.2,Win32,60.0240096,,,,,,,,,,,,,,,,,,masks/mask_001.jpg,,,,,,,,,,,,,,,,,,,,,,,,,,,,,,,,,,,,,,,,,,,,,,,,0,1,1,0,1,,,,,,,,,,,,,,,,,,,,,,,,,,,,,,,,,,,,,,,,,
311626,001,2022-11-20_17h53.33.932,Info_measure_main_exp,2022.2.2,Win32,60.0240096,,,,,,,,,,,,,,,,,,masks/mask_004.jpg,,,,,,,,,,,,,,,,,,,,,,,,,,,,,,,,,,,,,,,,,,,,,,,,0,2,2,3,1,,,,,,,,,,,,,,,,,,,,,,,,,,,,,,,,,,,,,,,,,
311626,001,2022-11-20_17h53.33.932,Info_measure_main_exp,2022.2.2,Win32,60.0240096,,,,,,,,,,,,,,,,,,masks/mask_003.jpg,,,,,,,,,,,,,,,,,,,,,,,,,,,,,,,,,,,,,,,,,,,,,,,,0,3,3,2,1,,,,,,,,,,,,,,,,,,,,,,,,,,,,,,,,,,,,,,,,,
311626,001,2022-11-20_17h53.33.932,Info_measure_main_exp,2022.2.2,Win32,60.0240096,,,,,,,,,,,,,,,,,,masks/mask_005.jpg,,,,,,,,,,,,,,,,,,,,,,,,,,,,,,,,,,,,,,,,,,,,,,,,0,4,4,4,1,,,,,,,,,,,,,,,,,,,,,,,,,,,,,,,,,,,,,,,,,
311626,001,2022-11-20_17h53.33.932,Info_measure_main_exp,2022.2.2,Win32,60.0240096,,,,,,,,,,,,,,,,,,,,,,,,,,,,,,7,1.24,1,,,,,,,,,,,,0,131,5,5,2274,2214,absent_patch/patch0002274.jpg,absent_patch/patch0002214.jpg,,,,,,,,,,,,,,,,,,,,0.048177083,0.135416667,1,0,0,response1disk,14,0.002604167,0.005208333,1,0,0,center_square,0,13,13,11,1,,,,,,,,,,,,,,,,,,,,,,,
311626,001,2022-11-20_17h53.33.932,Info_measure_main_exp,2022.2.2,Win32,60.0240096,,,,,,,,,,,,,,,,,,masks/mask_004.jpg,,,,,,,,,,,,,,,,,,,,,,,,,,,,,,,,,,,,,,,,,,,0,0,0,3,1,,,,,,,,,,,,,,,,,,,,,,,,,,,,,,,,,,,,,,,,,,,,,,
311626,001,2022-11-20_17h53.33.932,Info_measure_main_exp,2022.2.2,Win32,60.0240096,,,,,,,,,,,,,,,,,,masks/mask_005.jpg,,,,,,,,,,,,,,,,,,,,,,,,,,,,,,,,,,,,,,,,,,,0,1,1,4,1,,,,,,,,,,,,,,,,,,,,,,,,,,,,,,,,,,,,,,,,,,,,,,
311626,001,2022-11-20_17h53.33.932,Info_measure_main_exp,2022.2.2,Win32,60.0240096,,,,,,,,,,,,,,,,,,masks/mask_003.jpg,,,,,,,,,,,,,,,,,,,,,,,,,,,,,,,,,,,,,,,,,,,0,2,2,2,1,,,,,,,,,,,,,,,,,,,,,,,,,,,,,,,,,,,,,,,,,,,,,,
311626,001,2022-11-20_17h53.33.932,Info_measure_main_exp,2022.2.2,Win32,60.0240096,,,,,,,,,,,,,,,,,,masks/mask_002.jpg,,,,,,,,,,,,,,,,,,,,,,,,,,,,,,,,,,,,,,,,,,,0,3,3,1,1,,,,,,,,,,,,,,,,,,,,,,,,,,,,,,,,,,,,,,,,,,,,,,
311626,001,2022-11-20_17h53.33.932,Info_measure_main_exp,2022.2.2,Win32,60.0240096,,,,,,,,,,,,,,,,,,masks/mask_001.jpg,,,,,,,,,,,,,,,,,,,,,,,,,,,,,,,,,,,,,,,,,,,0,4,4,0,1,,,,,,,,,,,,,,,,,,,,,,,,,,,,,,,,,,,,,,,,,,,,,,
311626,001,2022-11-20_17h53.33.932,Info_measure_main_exp,2022.2.2,Win32,60.0240096,,,,,,,,,,,,,,,,,,masks/mask_002.jpg,,,,,,,,,,,,,,,,,,,,,,,,,,,,,,,,,,,,,,,,,,,,,,,,0,0,0,1,1,,,,,,,,,,,,,,,,,,,,,,,,,,,,,,,,,,,,,,,,,
311626,001,2022-11-20_17h53.33.932,Info_measure_main_exp,2022.2.2,Win32,60.0240096,,,,,,,,,,,,,,,,,,masks/mask_003.jpg,,,,,,,,,,,,,,,,,,,,,,,,,,,,,,,,,,,,,,,,,,,,,,,,0,1,1,2,1,,,,,,,,,,,,,,,,,,,,,,,,,,,,,,,,,,,,,,,,,
311626,001,2022-11-20_17h53.33.932,Info_measure_main_exp,2022.2.2,Win32,60.0240096,,,,,,,,,,,,,,,,,,masks/mask_005.jpg,,,,,,,,,,,,,,,,,,,,,,,,,,,,,,,,,,,,,,,,,,,,,,,,0,2,2,4,1,,,,,,,,,,,,,,,,,,,,,,,,,,,,,,,,,,,,,,,,,
311626,001,2022-11-20_17h53.33.932,Info_measure_main_exp,2022.2.2,Win32,60.0240096,,,,,,,,,,,,,,,,,,masks/mask_001.jpg,,,,,,,,,,,,,,,,,,,,,,,,,,,,,,,,,,,,,,,,,,,,,,,,0,3,3,0,1,,,,,,,,,,,,,,,,,,,,,,,,,,,,,,,,,,,,,,,,,
311626,001,2022-11-20_17h53.33.932,Info_measure_main_exp,2022.2.2,Win32,60.0240096,,,,,,,,,,,,,,,,,,masks/mask_004.jpg,,,,,,,,,,,,,,,,,,,,,,,,,,,,,,,,,,,,,,,,,,,,,,,,0,4,4,3,1,,,,,,,,,,,,,,,,,,,,,,,,,,,,,,,,,,,,,,,,,
311626,001,2022-11-20_17h53.33.932,Info_measure_main_exp,2022.2.2,Win32,60.0240096,,,,,,,,,,,,,,,,,,,,,,,,,,,,,,7,0.706,1,,,,,,,,,,,,0,131,5,5,2190,2082,absent_patch/patch0002190.jpg,absent_patch/patch0002082.jpg,,,,,,,,,,,,,,,,,,,,0.03125,0.08203125,1,0,0,response1disk,15,0.0078125,0.005208333,1,0,0,center_square,0,14,14,112,1,,,,,,,,,,,,,,,,,,,,,,,
311626,001,2022-11-20_17h53.33.932,Info_measure_main_exp,2022.2.2,Win32,60.0240096,,,,,,,,,,,,,,,,,,masks/mask_002.jpg,,,,,,,,,,,,,,,,,,,,,,,,,,,,,,,,,,,,,,,,,,,0,0,0,1,1,,,,,,,,,,,,,,,,,,,,,,,,,,,,,,,,,,,,,,,,,,,,,,
311626,001,2022-11-20_17h53.33.932,Info_measure_main_exp,2022.2.2,Win32,60.0240096,,,,,,,,,,,,,,,,,,masks/mask_004.jpg,,,,,,,,,,,,,,,,,,,,,,,,,,,,,,,,,,,,,,,,,,,0,1,1,3,1,,,,,,,,,,,,,,,,,,,,,,,,,,,,,,,,,,,,,,,,,,,,,,
311626,001,2022-11-20_17h53.33.932,Info_measure_main_exp,2022.2.2,Win32,60.0240096,,,,,,,,,,,,,,,,,,masks/mask_001.jpg,,,,,,,,,,,,,,,,,,,,,,,,,,,,,,,,,,,,,,,,,,,0,2,2,0,1,,,,,,,,,,,,,,,,,,,,,,,,,,,,,,,,,,,,,,,,,,,,,,
311626,001,2022-11-20_17h53.33.932,Info_measure_main_exp,2022.2.2,Win32,60.0240096,,,,,,,,,,,,,,,,,,masks/mask_003.jpg,,,,,,,,,,,,,,,,,,,,,,,,,,,,,,,,,,,,,,,,,,,0,3,3,2,1,,,,,,,,,,,,,,,,,,,,,,,,,,,,,,,,,,,,,,,,,,,,,,
311626,001,2022-11-20_17h53.33.932,Info_measure_main_exp,2022.2.2,Win32,60.0240096,,,,,,,,,,,,,,,,,,masks/mask_005.jpg,,,,,,,,,,,,,,,,,,,,,,,,,,,,,,,,,,,,,,,,,,,0,4,4,4,1,,,,,,,,,,,,,,,,,,,,,,,,,,,,,,,,,,,,,,,,,,,,,,
311626,001,2022-11-20_17h53.33.932,Info_measure_main_exp,2022.2.2,Win32,60.0240096,,,,,,,,,,,,,,,,,,masks/mask_005.jpg,,,,,,,,,,,,,,,,,,,,,,,,,,,,,,,,,,,,,,,,,,,,,,,,0,0,0,4,1,,,,,,,,,,,,,,,,,,,,,,,,,,,,,,,,,,,,,,,,,
311626,001,2022-11-20_17h53.33.932,Info_measure_main_exp,2022.2.2,Win32,60.0240096,,,,,,,,,,,,,,,,,,masks/mask_004.jpg,,,,,,,,,,,,,,,,,,,,,,,,,,,,,,,,,,,,,,,,,,,,,,,,0,1,1,3,1,,,,,,,,,,,,,,,,,,,,,,,,,,,,,,,,,,,,,,,,,
311626,001,2022-11-20_17h53.33.932,Info_measure_main_exp,2022.2.2,Win32,60.0240096,,,,,,,,,,,,,,,,,,masks/mask_001.jpg,,,,,,,,,,,,,,,,,,,,,,,,,,,,,,,,,,,,,,,,,,,,,,,,0,2,2,0,1,,,,,,,,,,,,,,,,,,,,,,,,,,,,,,,,,,,,,,,,,
311626,001,2022-11-20_17h53.33.932,Info_measure_main_exp,2022.2.2,Win32,60.0240096,,,,,,,,,,,,,,,,,,masks/mask_003.jpg,,,,,,,,,,,,,,,,,,,,,,,,,,,,,,,,,,,,,,,,,,,,,,,,0,3,3,2,1,,,,,,,,,,,,,,,,,,,,,,,,,,,,,,,,,,,,,,,,,
311626,001,2022-11-20_17h53.33.932,Info_measure_main_exp,2022.2.2,Win32,60.0240096,,,,,,,,,,,,,,,,,,masks/mask_002.jpg,,,,,,,,,,,,,,,,,,,,,,,,,,,,,,,,,,,,,,,,,,,,,,,,0,4,4,1,1,,,,,,,,,,,,,,,,,,,,,,,,,,,,,,,,,,,,,,,,,
311626,001,2022-11-20_17h53.33.932,Info_measure_main_exp,2022.2.2,Win32,60.0240096,,,,,,,,,,,,,,,,,,,,,,,,,,,,,,0,0.637,1,,,,,,,,,,,,0,131,5,5,2178,2178,absent_patch/patch0002178.jpg,absent_patch/patch0002178.jpg,,,,,,,,,,,,,,,,,,,,-0.03125,0.095052083,1,0,0,response7disk,16,0.006510417,0.0078125,1,0,0,center_square,0,15,15,98,1,,,,,,,,,,,,,,,,,,,,,,,
311626,001,2022-11-20_17h53.33.932,Info_measure_main_exp,2022.2.2,Win32,60.0240096,,,,,,,,,,,,,,,,,,masks/mask_002.jpg,,,,,,,,,,,,,,,,,,,,,,,,,,,,,,,,,,,,,,,,,,,0,0,0,1,1,,,,,,,,,,,,,,,,,,,,,,,,,,,,,,,,,,,,,,,,,,,,,,
311626,001,2022-11-20_17h53.33.932,Info_measure_main_exp,2022.2.2,Win32,60.0240096,,,,,,,,,,,,,,,,,,masks/mask_004.jpg,,,,,,,,,,,,,,,,,,,,,,,,,,,,,,,,,,,,,,,,,,,0,1,1,3,1,,,,,,,,,,,,,,,,,,,,,,,,,,,,,,,,,,,,,,,,,,,,,,
311626,001,2022-11-20_17h53.33.932,Info_measure_main_exp,2022.2.2,Win32,60.0240096,,,,,,,,,,,,,,,,,,masks/mask_001.jpg,,,,,,,,,,,,,,,,,,,,,,,,,,,,,,,,,,,,,,,,,,,0,2,2,0,1,,,,,,,,,,,,,,,,,,,,,,,,,,,,,,,,,,,,,,,,,,,,,,
311626,001,2022-11-20_17h53.33.932,Info_measure_main_exp,2022.2.2,Win32,60.0240096,,,,,,,,,,,,,,,,,,masks/mask_003.jpg,,,,,,,,,,,,,,,,,,,,,,,,,,,,,,,,,,,,,,,,,,,0,3,3,2,1,,,,,,,,,,,,,,,,,,,,,,,,,,,,,,,,,,,,,,,,,,,,,,
311626,001,2022-11-20_17h53.33.932,Info_measure_main_exp,2022.2.2,Win32,60.0240096,,,,,,,,,,,,,,,,,,masks/mask_005.jpg,,,,,,,,,,,,,,,,,,,,,,,,,,,,,,,,,,,,,,,,,,,0,4,4,4,1,,,,,,,,,,,,,,,,,,,,,,,,,,,,,,,,,,,,,,,,,,,,,,
311626,001,2022-11-20_17h53.33.932,Info_measure_main_exp,2022.2.2,Win32,60.0240096,,,,,,,,,,,,,,,,,,masks/mask_005.jpg,,,,,,,,,,,,,,,,,,,,,,,,,,,,,,,,,,,,,,,,,,,,,,,,0,0,0,4,1,,,,,,,,,,,,,,,,,,,,,,,,,,,,,,,,,,,,,,,,,
311626,001,2022-11-20_17h53.33.932,Info_measure_main_exp,2022.2.2,Win32,60.0240096,,,,,,,,,,,,,,,,,,masks/mask_001.jpg,,,,,,,,,,,,,,,,,,,,,,,,,,,,,,,,,,,,,,,,,,,,,,,,0,1,1,0,1,,,,,,,,,,,,,,,,,,,,,,,,,,,,,,,,,,,,,,,,,
311626,001,2022-11-20_17h53.33.932,Info_measure_main_exp,2022.2.2,Win32,60.0240096,,,,,,,,,,,,,,,,,,masks/mask_004.jpg,,,,,,,,,,,,,,,,,,,,,,,,,,,,,,,,,,,,,,,,,,,,,,,,0,2,2,3,1,,,,,,,,,,,,,,,,,,,,,,,,,,,,,,,,,,,,,,,,,
311626,001,2022-11-20_17h53.33.932,Info_measure_main_exp,2022.2.2,Win32,60.0240096,,,,,,,,,,,,,,,,,,masks/mask_003.jpg,,,,,,,,,,,,,,,,,,,,,,,,,,,,,,,,,,,,,,,,,,,,,,,,0,3,3,2,1,,,,,,,,,,,,,,,,,,,,,,,,,,,,,,,,,,,,,,,,,
311626,001,2022-11-20_17h53.33.932,Info_measure_main_exp,2022.2.2,Win32,60.0240096,,,,,,,,,,,,,,,,,,masks/mask_002.jpg,,,,,,,,,,,,,,,,,,,,,,,,,,,,,,,,,,,,,,,,,,,,,,,,0,4,4,1,1,,,,,,,,,,,,,,,,,,,,,,,,,,,,,,,,,,,,,,,,,
311626,001,2022-11-20_17h53.33.932,Info_measure_main_exp,2022.2.2,Win32,60.0240096,,,,,,,,,,,,,,,,,,,,,,,,,,,,,,7,0.608,1,,,,,,,,,,,,0,131,5,5,2274,2166,absent_patch/patch0002274.jpg,absent_patch/patch0002166.jpg,,,,,,,,,,,,,,,,,,,,0.04296875,0.092447917,1,0,0,response1disk,17,0.006510417,0.010416667,1,0,0,center_square,0,16,16,78,1,,,,,,,,,,,,,,,,,,,,,,,
311626,001,2022-11-20_17h53.33.932,Info_measure_main_exp,2022.2.2,Win32,60.0240096,,,,,,,,,,,,,,,,,,masks/mask_004.jpg,,,,,,,,,,,,,,,,,,,,,,,,,,,,,,,,,,,,,,,,,,,0,0,0,3,1,,,,,,,,,,,,,,,,,,,,,,,,,,,,,,,,,,,,,,,,,,,,,,
311626,001,2022-11-20_17h53.33.932,Info_measure_main_exp,2022.2.2,Win32,60.0240096,,,,,,,,,,,,,,,,,,masks/mask_005.jpg,,,,,,,,,,,,,,,,,,,,,,,,,,,,,,,,,,,,,,,,,,,0,1,1,4,1,,,,,,,,,,,,,,,,,,,,,,,,,,,,,,,,,,,,,,,,,,,,,,
311626,001,2022-11-20_17h53.33.932,Info_measure_main_exp,2022.2.2,Win32,60.0240096,,,,,,,,,,,,,,,,,,masks/mask_003.jpg,,,,,,,,,,,,,,,,,,,,,,,,,,,,,,,,,,,,,,,,,,,0,2,2,2,1,,,,,,,,,,,,,,,,,,,,,,,,,,,,,,,,,,,,,,,,,,,,,,
311626,001,2022-11-20_17h53.33.932,Info_measure_main_exp,2022.2.2,Win32,60.0240096,,,,,,,,,,,,,,,,,,masks/mask_002.jpg,,,,,,,,,,,,,,,,,,,,,,,,,,,,,,,,,,,,,,,,,,,0,3,3,1,1,,,,,,,,,,,,,,,,,,,,,,,,,,,,,,,,,,,,,,,,,,,,,,
311626,001,2022-11-20_17h53.33.932,Info_measure_main_exp,2022.2.2,Win32,60.0240096,,,,,,,,,,,,,,,,,,masks/mask_001.jpg,,,,,,,,,,,,,,,,,,,,,,,,,,,,,,,,,,,,,,,,,,,0,4,4,0,1,,,,,,,,,,,,,,,,,,,,,,,,,,,,,,,,,,,,,,,,,,,,,,
311626,001,2022-11-20_17h53.33.932,Info_measure_main_exp,2022.2.2,Win32,60.0240096,,,,,,,,,,,,,,,,,,masks/mask_005.jpg,,,,,,,,,,,,,,,,,,,,,,,,,,,,,,,,,,,,,,,,,,,,,,,,0,0,0,4,1,,,,,,,,,,,,,,,,,,,,,,,,,,,,,,,,,,,,,,,,,
311626,001,2022-11-20_17h53.33.932,Info_measure_main_exp,2022.2.2,Win32,60.0240096,,,,,,,,,,,,,,,,,,masks/mask_001.jpg,,,,,,,,,,,,,,,,,,,,,,,,,,,,,,,,,,,,,,,,,,,,,,,,0,1,1,0,1,,,,,,,,,,,,,,,,,,,,,,,,,,,,,,,,,,,,,,,,,
311626,001,2022-11-20_17h53.33.932,Info_measure_main_exp,2022.2.2,Win32,60.0240096,,,,,,,,,,,,,,,,,,masks/mask_002.jpg,,,,,,,,,,,,,,,,,,,,,,,,,,,,,,,,,,,,,,,,,,,,,,,,0,2,2,1,1,,,,,,,,,,,,,,,,,,,,,,,,,,,,,,,,,,,,,,,,,
311626,001,2022-11-20_17h53.33.932,Info_measure_main_exp,2022.2.2,Win32,60.0240096,,,,,,,,,,,,,,,,,,masks/mask_003.jpg,,,,,,,,,,,,,,,,,,,,,,,,,,,,,,,,,,,,,,,,,,,,,,,,0,3,3,2,1,,,,,,,,,,,,,,,,,,,,,,,,,,,,,,,,,,,,,,,,,
311626,001,2022-11-20_17h53.33.932,Info_measure_main_exp,2022.2.2,Win32,60.0240096,,,,,,,,,,,,,,,,,,masks/mask_004.jpg,,,,,,,,,,,,,,,,,,,,,,,,,,,,,,,,,,,,,,,,,,,,,,,,0,4,4,3,1,,,,,,,,,,,,,,,,,,,,,,,,,,,,,,,,,,,,,,,,,
311626,001,2022-11-20_17h53.33.932,Info_measure_main_exp,2022.2.2,Win32,60.0240096,,,,,,,,,,,,,,,,,,,,,,,,,,,,,,7,0.692,1,,,,,,,,,,,,0,131,5,5,2238,2166,absent_patch/patch0002238.jpg,absent_patch/patch0002166.jpg,,,,,,,,,,,,,,,,,,,,0.015625,0.084635417,1,0,0,response1disk,18,-0.002604167,0.00390625,1,0,0,center_square,0,17,17,118,1,,,,,,,,,,,,,,,,,,,,,,,
311626,001,2022-11-20_17h53.33.932,Info_measure_main_exp,2022.2.2,Win32,60.0240096,,,,,,,,,,,,,,,,,,masks/mask_001.jpg,,,,,,,,,,,,,,,,,,,,,,,,,,,,,,,,,,,,,,,,,,,0,0,0,0,1,,,,,,,,,,,,,,,,,,,,,,,,,,,,,,,,,,,,,,,,,,,,,,
311626,001,2022-11-20_17h53.33.932,Info_measure_main_exp,2022.2.2,Win32,60.0240096,,,,,,,,,,,,,,,,,,masks/mask_002.jpg,,,,,,,,,,,,,,,,,,,,,,,,,,,,,,,,,,,,,,,,,,,0,1,1,1,1,,,,,,,,,,,,,,,,,,,,,,,,,,,,,,,,,,,,,,,,,,,,,,
311626,001,2022-11-20_17h53.33.932,Info_measure_main_exp,2022.2.2,Win32,60.0240096,,,,,,,,,,,,,,,,,,masks/mask_003.jpg,,,,,,,,,,,,,,,,,,,,,,,,,,,,,,,,,,,,,,,,,,,0,2,2,2,1,,,,,,,,,,,,,,,,,,,,,,,,,,,,,,,,,,,,,,,,,,,,,,
311626,001,2022-11-20_17h53.33.932,Info_measure_main_exp,2022.2.2,Win32,60.0240096,,,,,,,,,,,,,,,,,,masks/mask_005.jpg,,,,,,,,,,,,,,,,,,,,,,,,,,,,,,,,,,,,,,,,,,,0,3,3,4,1,,,,,,,,,,,,,,,,,,,,,,,,,,,,,,,,,,,,,,,,,,,,,,
311626,001,2022-11-20_17h53.33.932,Info_measure_main_exp,2022.2.2,Win32,60.0240096,,,,,,,,,,,,,,,,,,masks/mask_004.jpg,,,,,,,,,,,,,,,,,,,,,,,,,,,,,,,,,,,,,,,,,,,0,4,4,3,1,,,,,,,,,,,,,,,,,,,,,,,,,,,,,,,,,,,,,,,,,,,,,,
311626,001,2022-11-20_17h53.33.932,Info_measure_main_exp,2022.2.2,Win32,60.0240096,,,,,,,,,,,,,,,,,,masks/mask_002.jpg,,,,,,,,,,,,,,,,,,,,,,,,,,,,,,,,,,,,,,,,,,,,,,,,0,0,0,1,1,,,,,,,,,,,,,,,,,,,,,,,,,,,,,,,,,,,,,,,,,
311626,001,2022-11-20_17h53.33.932,Info_measure_main_exp,2022.2.2,Win32,60.0240096,,,,,,,,,,,,,,,,,,masks/mask_001.jpg,,,,,,,,,,,,,,,,,,,,,,,,,,,,,,,,,,,,,,,,,,,,,,,,0,1,1,0,1,,,,,,,,,,,,,,,,,,,,,,,,,,,,,,,,,,,,,,,,,
311626,001,2022-11-20_17h53.33.932,Info_measure_main_exp,2022.2.2,Win32,60.0240096,,,,,,,,,,,,,,,,,,masks/mask_004.jpg,,,,,,,,,,,,,,,,,,,,,,,,,,,,,,,,,,,,,,,,,,,,,,,,0,2,2,3,1,,,,,,,,,,,,,,,,,,,,,,,,,,,,,,,,,,,,,,,,,
311626,001,2022-11-20_17h53.33.932,Info_measure_main_exp,2022.2.2,Win32,60.0240096,,,,,,,,,,,,,,,,,,masks/mask_005.jpg,,,,,,,,,,,,,,,,,,,,,,,,,,,,,,,,,,,,,,,,,,,,,,,,0,3,3,4,1,,,,,,,,,,,,,,,,,,,,,,,,,,,,,,,,,,,,,,,,,
311626,001,2022-11-20_17h53.33.932,Info_measure_main_exp,2022.2.2,Win32,60.0240096,,,,,,,,,,,,,,,,,,masks/mask_003.jpg,,,,,,,,,,,,,,,,,,,,,,,,,,,,,,,,,,,,,,,,,,,,,,,,0,4,4,2,1,,,,,,,,,,,,,,,,,,,,,,,,,,,,,,,,,,,,,,,,,
311626,001,2022-11-20_17h53.33.932,Info_measure_main_exp,2022.2.2,Win32,60.0240096,,,,,,,,,,,,,,,,,,,,,,,,,,,,,,7,0.855,1,,,,,,,,,,,,1,131,5,5,1,1986,present_patch/cong_131_5_a.jpg,absent_patch/patch0001986.jpg,,,,,,,,,,,,,,,,,,,,0.08203125,0.126302083,1,0,0,response1disk,19,0.002604167,0.002604167,1,0,0,center_square,0,18,18,106,1,,,,,,,,,,,,,,,,,,,,,,,
311626,001,2022-11-20_17h53.33.932,Info_measure_main_exp,2022.2.2,Win32,60.0240096,,,,,,,,,,,,,,,,,,masks/mask_002.jpg,,,,,,,,,,,,,,,,,,,,,,,,,,,,,,,,,,,,,,,,,,,0,0,0,1,1,,,,,,,,,,,,,,,,,,,,,,,,,,,,,,,,,,,,,,,,,,,,,,
311626,001,2022-11-20_17h53.33.932,Info_measure_main_exp,2022.2.2,Win32,60.0240096,,,,,,,,,,,,,,,,,,masks/mask_004.jpg,,,,,,,,,,,,,,,,,,,,,,,,,,,,,,,,,,,,,,,,,,,0,1,1,3,1,,,,,,,,,,,,,,,,,,,,,,,,,,,,,,,,,,,,,,,,,,,,,,
311626,001,2022-11-20_17h53.33.932,Info_measure_main_exp,2022.2.2,Win32,60.0240096,,,,,,,,,,,,,,,,,,masks/mask_005.jpg,,,,,,,,,,,,,,,,,,,,,,,,,,,,,,,,,,,,,,,,,,,0,2,2,4,1,,,,,,,,,,,,,,,,,,,,,,,,,,,,,,,,,,,,,,,,,,,,,,
311626,001,2022-11-20_17h53.33.932,Info_measure_main_exp,2022.2.2,Win32,60.0240096,,,,,,,,,,,,,,,,,,masks/mask_001.jpg,,,,,,,,,,,,,,,,,,,,,,,,,,,,,,,,,,,,,,,,,,,0,3,3,0,1,,,,,,,,,,,,,,,,,,,,,,,,,,,,,,,,,,,,,,,,,,,,,,
311626,001,2022-11-20_17h53.33.932,Info_measure_main_exp,2022.2.2,Win32,60.0240096,,,,,,,,,,,,,,,,,,masks/mask_003.jpg,,,,,,,,,,,,,,,,,,,,,,,,,,,,,,,,,,,,,,,,,,,0,4,4,2,1,,,,,,,,,,,,,,,,,,,,,,,,,,,,,,,,,,,,,,,,,,,,,,
311626,001,2022-11-20_17h53.33.932,Info_measure_main_exp,2022.2.2,Win32,60.0240096,,,,,,,,,,,,,,,,,,masks/mask_002.jpg,,,,,,,,,,,,,,,,,,,,,,,,,,,,,,,,,,,,,,,,,,,,,,,,0,0,0,1,1,,,,,,,,,,,,,,,,,,,,,,,,,,,,,,,,,,,,,,,,,
311626,001,2022-11-20_17h53.33.932,Info_measure_main_exp,2022.2.2,Win32,60.0240096,,,,,,,,,,,,,,,,,,masks/mask_001.jpg,,,,,,,,,,,,,,,,,,,,,,,,,,,,,,,,,,,,,,,,,,,,,,,,0,1,1,0,1,,,,,,,,,,,,,,,,,,,,,,,,,,,,,,,,,,,,,,,,,
311626,001,2022-11-20_17h53.33.932,Info_measure_main_exp,2022.2.2,Win32,60.0240096,,,,,,,,,,,,,,,,,,masks/mask_005.jpg,,,,,,,,,,,,,,,,,,,,,,,,,,,,,,,,,,,,,,,,,,,,,,,,0,2,2,4,1,,,,,,,,,,,,,,,,,,,,,,,,,,,,,,,,,,,,,,,,,
311626,001,2022-11-20_17h53.33.932,Info_measure_main_exp,2022.2.2,Win32,60.0240096,,,,,,,,,,,,,,,,,,masks/mask_004.jpg,,,,,,,,,,,,,,,,,,,,,,,,,,,,,,,,,,,,,,,,,,,,,,,,0,3,3,3,1,,,,,,,,,,,,,,,,,,,,,,,,,,,,,,,,,,,,,,,,,
311626,001,2022-11-20_17h53.33.932,Info_measure_main_exp,2022.2.2,Win32,60.0240096,,,,,,,,,,,,,,,,,,masks/mask_003.jpg,,,,,,,,,,,,,,,,,,,,,,,,,,,,,,,,,,,,,,,,,,,,,,,,0,4,4,2,1,,,,,,,,,,,,,,,,,,,,,,,,,,,,,,,,,,,,,,,,,
311626,001,2022-11-20_17h53.33.932,Info_measure_main_exp,2022.2.2,Win32,60.0240096,,,,,,,,,,,,,,,,,,,,,,,,,,,,,,7,0.771,1,,,,,,,,,,,,0,131,5,5,2166,1986,absent_patch/patch0002166.jpg,absent_patch/patch0001986.jpg,,,,,,,,,,,,,,,,,,,,0.063802083,0.139322917,1,0,0,response1disk,20,0.006510417,0.00390625,1,0,0,center_square,0,19,19,47,1,,,,,,,,,,,,,,,,,,,,,,,
311626,001,2022-11-20_17h53.33.932,Info_measure_main_exp,2022.2.2,Win32,60.0240096,,,,,,,,,,,,,,,,,,masks/mask_003.jpg,,,,,,,,,,,,,,,,,,,,,,,,,,,,,,,,,,,,,,,,,,,0,0,0,2,1,,,,,,,,,,,,,,,,,,,,,,,,,,,,,,,,,,,,,,,,,,,,,,
311626,001,2022-11-20_17h53.33.932,Info_measure_main_exp,2022.2.2,Win32,60.0240096,,,,,,,,,,,,,,,,,,masks/mask_002.jpg,,,,,,,,,,,,,,,,,,,,,,,,,,,,,,,,,,,,,,,,,,,0,1,1,1,1,,,,,,,,,,,,,,,,,,,,,,,,,,,,,,,,,,,,,,,,,,,,,,
311626,001,2022-11-20_17h53.33.932,Info_measure_main_exp,2022.2.2,Win32,60.0240096,,,,,,,,,,,,,,,,,,masks/mask_004.jpg,,,,,,,,,,,,,,,,,,,,,,,,,,,,,,,,,,,,,,,,,,,0,2,2,3,1,,,,,,,,,,,,,,,,,,,,,,,,,,,,,,,,,,,,,,,,,,,,,,
311626,001,2022-11-20_17h53.33.932,Info_measure_main_exp,2022.2.2,Win32,60.0240096,,,,,,,,,,,,,,,,,,masks/mask_001.jpg,,,,,,,,,,,,,,,,,,,,,,,,,,,,,,,,,,,,,,,,,,,0,3,3,0,1,,,,,,,,,,,,,,,,,,,,,,,,,,,,,,,,,,,,,,,,,,,,,,
311626,001,2022-11-20_17h53.33.932,Info_measure_main_exp,2022.2.2,Win32,60.0240096,,,,,,,,,,,,,,,,,,masks/mask_005.jpg,,,,,,,,,,,,,,,,,,,,,,,,,,,,,,,,,,,,,,,,,,,0,4,4,4,1,,,,,,,,,,,,,,,,,,,,,,,,,,,,,,,,,,,,,,,,,,,,,,
311626,001,2022-11-20_17h53.33.932,Info_measure_main_exp,2022.2.2,Win32,60.0240096,,,,,,,,,,,,,,,,,,masks/mask_005.jpg,,,,,,,,,,,,,,,,,,,,,,,,,,,,,,,,,,,,,,,,,,,,,,,,0,0,0,4,1,,,,,,,,,,,,,,,,,,,,,,,,,,,,,,,,,,,,,,,,,
311626,001,2022-11-20_17h53.33.932,Info_measure_main_exp,2022.2.2,Win32,60.0240096,,,,,,,,,,,,,,,,,,masks/mask_004.jpg,,,,,,,,,,,,,,,,,,,,,,,,,,,,,,,,,,,,,,,,,,,,,,,,0,1,1,3,1,,,,,,,,,,,,,,,,,,,,,,,,,,,,,,,,,,,,,,,,,
311626,001,2022-11-20_17h53.33.932,Info_measure_main_exp,2022.2.2,Win32,60.0240096,,,,,,,,,,,,,,,,,,masks/mask_001.jpg,,,,,,,,,,,,,,,,,,,,,,,,,,,,,,,,,,,,,,,,,,,,,,,,0,2,2,0,1,,,,,,,,,,,,,,,,,,,,,,,,,,,,,,,,,,,,,,,,,
311626,001,2022-11-20_17h53.33.932,Info_measure_main_exp,2022.2.2,Win32,60.0240096,,,,,,,,,,,,,,,,,,masks/mask_002.jpg,,,,,,,,,,,,,,,,,,,,,,,,,,,,,,,,,,,,,,,,,,,,,,,,0,3,3,1,1,,,,,,,,,,,,,,,,,,,,,,,,,,,,,,,,,,,,,,,,,
311626,001,2022-11-20_17h53.33.932,Info_measure_main_exp,2022.2.2,Win32,60.0240096,,,,,,,,,,,,,,,,,,masks/mask_003.jpg,,,,,,,,,,,,,,,,,,,,,,,,,,,,,,,,,,,,,,,,,,,,,,,,0,4,4,2,1,,,,,,,,,,,,,,,,,,,,,,,,,,,,,,,,,,,,,,,,,
311626,001,2022-11-20_17h53.33.932,Info_measure_main_exp,2022.2.2,Win32,60.0240096,,,,,,,,,,,,,,,,,,,,,,,,,,,,,,7,0.864,1,,,,,,,,,,,,0,131,5,5,2298,2274,absent_patch/patch0002298.jpg,absent_patch/patch0002274.jpg,,,,,,,,,,,,,,,,,,,,0.048177083,0.147135417,1,0,0,response1disk,21,0.005208333,0.010416667,1,0,0,center_square,0,20,20,1,1,,,,,,,,,,,,,,,,,,,,,,,
311626,001,2022-11-20_17h53.33.932,Info_measure_main_exp,2022.2.2,Win32,60.0240096,,,,,,,,,,,,,,,,,,masks/mask_001.jpg,,,,,,,,,,,,,,,,,,,,,,,,,,,,,,,,,,,,,,,,,,,0,0,0,0,1,,,,,,,,,,,,,,,,,,,,,,,,,,,,,,,,,,,,,,,,,,,,,,
311626,001,2022-11-20_17h53.33.932,Info_measure_main_exp,2022.2.2,Win32,60.0240096,,,,,,,,,,,,,,,,,,masks/mask_004.jpg,,,,,,,,,,,,,,,,,,,,,,,,,,,,,,,,,,,,,,,,,,,0,1,1,3,1,,,,,,,,,,,,,,,,,,,,,,,,,,,,,,,,,,,,,,,,,,,,,,
311626,001,2022-11-20_17h53.33.932,Info_measure_main_exp,2022.2.2,Win32,60.0240096,,,,,,,,,,,,,,,,,,masks/mask_002.jpg,,,,,,,,,,,,,,,,,,,,,,,,,,,,,,,,,,,,,,,,,,,0,2,2,1,1,,,,,,,,,,,,,,,,,,,,,,,,,,,,,,,,,,,,,,,,,,,,,,
311626,001,2022-11-20_17h53.33.932,Info_measure_main_exp,2022.2.2,Win32,60.0240096,,,,,,,,,,,,,,,,,,masks/mask_005.jpg,,,,,,,,,,,,,,,,,,,,,,,,,,,,,,,,,,,,,,,,,,,0,3,3,4,1,,,,,,,,,,,,,,,,,,,,,,,,,,,,,,,,,,,,,,,,,,,,,,
311626,001,2022-11-20_17h53.33.932,Info_measure_main_exp,2022.2.2,Win32,60.0240096,,,,,,,,,,,,,,,,,,masks/mask_003.jpg,,,,,,,,,,,,,,,,,,,,,,,,,,,,,,,,,,,,,,,,,,,0,4,4,2,1,,,,,,,,,,,,,,,,,,,,,,,,,,,,,,,,,,,,,,,,,,,,,,
311626,001,2022-11-20_17h53.33.932,Info_measure_main_exp,2022.2.2,Win32,60.0240096,,,,,,,,,,,,,,,,,,masks/mask_001.jpg,,,,,,,,,,,,,,,,,,,,,,,,,,,,,,,,,,,,,,,,,,,,,,,,0,0,0,0,1,,,,,,,,,,,,,,,,,,,,,,,,,,,,,,,,,,,,,,,,,
311626,001,2022-11-20_17h53.33.932,Info_measure_main_exp,2022.2.2,Win32,60.0240096,,,,,,,,,,,,,,,,,,masks/mask_002.jpg,,,,,,,,,,,,,,,,,,,,,,,,,,,,,,,,,,,,,,,,,,,,,,,,0,1,1,1,1,,,,,,,,,,,,,,,,,,,,,,,,,,,,,,,,,,,,,,,,,
311626,001,2022-11-20_17h53.33.932,Info_measure_main_exp,2022.2.2,Win32,60.0240096,,,,,,,,,,,,,,,,,,masks/mask_003.jpg,,,,,,,,,,,,,,,,,,,,,,,,,,,,,,,,,,,,,,,,,,,,,,,,0,2,2,2,1,,,,,,,,,,,,,,,,,,,,,,,,,,,,,,,,,,,,,,,,,
311626,001,2022-11-20_17h53.33.932,Info_measure_main_exp,2022.2.2,Win32,60.0240096,,,,,,,,,,,,,,,,,,masks/mask_004.jpg,,,,,,,,,,,,,,,,,,,,,,,,,,,,,,,,,,,,,,,,,,,,,,,,0,3,3,3,1,,,,,,,,,,,,,,,,,,,,,,,,,,,,,,,,,,,,,,,,,
311626,001,2022-11-20_17h53.33.932,Info_measure_main_exp,2022.2.2,Win32,60.0240096,,,,,,,,,,,,,,,,,,masks/mask_005.jpg,,,,,,,,,,,,,,,,,,,,,,,,,,,,,,,,,,,,,,,,,,,,,,,,0,4,4,4,1,,,,,,,,,,,,,,,,,,,,,,,,,,,,,,,,,,,,,,,,,
311626,001,2022-11-20_17h53.33.932,Info_measure_main_exp,2022.2.2,Win32,60.0240096,,,,,,,,,,,,,,,,,,,,,,,,,,,,,,7,0.704,1,,,,,,,,,,,,0,131,5,5,2190,2166,absent_patch/patch0002190.jpg,absent_patch/patch0002166.jpg,,,,,,,,,,,,,,,,,,,,0.05859375,0.169270833,1,0,0,response1disk,22,-0.006510417,0.009114583,1,0,0,center_square,0,21,21,50,1,,,,,,,,,,,,,,,,,,,,,,,
311626,001,2022-11-20_17h53.33.932,Info_measure_main_exp,2022.2.2,Win32,60.0240096,,,,,,,,,,,,,,,,,,masks/mask_005.jpg,,,,,,,,,,,,,,,,,,,,,,,,,,,,,,,,,,,,,,,,,,,0,0,0,4,1,,,,,,,,,,,,,,,,,,,,,,,,,,,,,,,,,,,,,,,,,,,,,,
311626,001,2022-11-20_17h53.33.932,Info_measure_main_exp,2022.2.2,Win32,60.0240096,,,,,,,,,,,,,,,,,,masks/mask_002.jpg,,,,,,,,,,,,,,,,,,,,,,,,,,,,,,,,,,,,,,,,,,,0,1,1,1,1,,,,,,,,,,,,,,,,,,,,,,,,,,,,,,,,,,,,,,,,,,,,,,
311626,001,2022-11-20_17h53.33.932,Info_measure_main_exp,2022.2.2,Win32,60.0240096,,,,,,,,,,,,,,,,,,masks/mask_003.jpg,,,,,,,,,,,,,,,,,,,,,,,,,,,,,,,,,,,,,,,,,,,0,2,2,2,1,,,,,,,,,,,,,,,,,,,,,,,,,,,,,,,,,,,,,,,,,,,,,,
311626,001,2022-11-20_17h53.33.932,Info_measure_main_exp,2022.2.2,Win32,60.0240096,,,,,,,,,,,,,,,,,,masks/mask_001.jpg,,,,,,,,,,,,,,,,,,,,,,,,,,,,,,,,,,,,,,,,,,,0,3,3,0,1,,,,,,,,,,,,,,,,,,,,,,,,,,,,,,,,,,,,,,,,,,,,,,
311626,001,2022-11-20_17h53.33.932,Info_measure_main_exp,2022.2.2,Win32,60.0240096,,,,,,,,,,,,,,,,,,masks/mask_004.jpg,,,,,,,,,,,,,,,,,,,,,,,,,,,,,,,,,,,,,,,,,,,0,4,4,3,1,,,,,,,,,,,,,,,,,,,,,,,,,,,,,,,,,,,,,,,,,,,,,,
311626,001,2022-11-20_17h53.33.932,Info_measure_main_exp,2022.2.2,Win32,60.0240096,,,,,,,,,,,,,,,,,,masks/mask_001.jpg,,,,,,,,,,,,,,,,,,,,,,,,,,,,,,,,,,,,,,,,,,,,,,,,0,0,0,0,1,,,,,,,,,,,,,,,,,,,,,,,,,,,,,,,,,,,,,,,,,
311626,001,2022-11-20_17h53.33.932,Info_measure_main_exp,2022.2.2,Win32,60.0240096,,,,,,,,,,,,,,,,,,masks/mask_005.jpg,,,,,,,,,,,,,,,,,,,,,,,,,,,,,,,,,,,,,,,,,,,,,,,,0,1,1,4,1,,,,,,,,,,,,,,,,,,,,,,,,,,,,,,,,,,,,,,,,,
311626,001,2022-11-20_17h53.33.932,Info_measure_main_exp,2022.2.2,Win32,60.0240096,,,,,,,,,,,,,,,,,,masks/mask_002.jpg,,,,,,,,,,,,,,,,,,,,,,,,,,,,,,,,,,,,,,,,,,,,,,,,0,2,2,1,1,,,,,,,,,,,,,,,,,,,,,,,,,,,,,,,,,,,,,,,,,
311626,001,2022-11-20_17h53.33.932,Info_measure_main_exp,2022.2.2,Win32,60.0240096,,,,,,,,,,,,,,,,,,masks/mask_003.jpg,,,,,,,,,,,,,,,,,,,,,,,,,,,,,,,,,,,,,,,,,,,,,,,,0,3,3,2,1,,,,,,,,,,,,,,,,,,,,,,,,,,,,,,,,,,,,,,,,,
311626,001,2022-11-20_17h53.33.932,Info_measure_main_exp,2022.2.2,Win32,60.0240096,,,,,,,,,,,,,,,,,,masks/mask_004.jpg,,,,,,,,,,,,,,,,,,,,,,,,,,,,,,,,,,,,,,,,,,,,,,,,0,4,4,3,1,,,,,,,,,,,,,,,,,,,,,,,,,,,,,,,,,,,,,,,,,
311626,001,2022-11-20_17h53.33.932,Info_measure_main_exp,2022.2.2,Win32,60.0240096,,,,,,,,,,,,,,,,,,,,,,,,,,,,,,7,0.754,1,,,,,,,,,,,,0,131,5,5,1950,2238,absent_patch/patch0001950.jpg,absent_patch/patch0002238.jpg,,,,,,,,,,,,,,,,,,,,0.098958333,0.170572917,1,0,0,response1disk,23,-0.0078125,-0.01171875,1,0,0,center_square,0,22,22,8,1,,,,,,,,,,,,,,,,,,,,,,,
311626,001,2022-11-20_17h53.33.932,Info_measure_main_exp,2022.2.2,Win32,60.0240096,,,,,,,,,,,,,,,,,,masks/mask_002.jpg,,,,,,,,,,,,,,,,,,,,,,,,,,,,,,,,,,,,,,,,,,,0,0,0,1,1,,,,,,,,,,,,,,,,,,,,,,,,,,,,,,,,,,,,,,,,,,,,,,
311626,001,2022-11-20_17h53.33.932,Info_measure_main_exp,2022.2.2,Win32,60.0240096,,,,,,,,,,,,,,,,,,masks/mask_003.jpg,,,,,,,,,,,,,,,,,,,,,,,,,,,,,,,,,,,,,,,,,,,0,1,1,2,1,,,,,,,,,,,,,,,,,,,,,,,,,,,,,,,,,,,,,,,,,,,,,,
311626,001,2022-11-20_17h53.33.932,Info_measure_main_exp,2022.2.2,Win32,60.0240096,,,,,,,,,,,,,,,,,,masks/mask_005.jpg,,,,,,,,,,,,,,,,,,,,,,,,,,,,,,,,,,,,,,,,,,,0,2,2,4,1,,,,,,,,,,,,,,,,,,,,,,,,,,,,,,,,,,,,,,,,,,,,,,
311626,001,2022-11-20_17h53.33.932,Info_measure_main_exp,2022.2.2,Win32,60.0240096,,,,,,,,,,,,,,,,,,masks/mask_001.jpg,,,,,,,,,,,,,,,,,,,,,,,,,,,,,,,,,,,,,,,,,,,0,3,3,0,1,,,,,,,,,,,,,,,,,,,,,,,,,,,,,,,,,,,,,,,,,,,,,,
311626,001,2022-11-20_17h53.33.932,Info_measure_main_exp,2022.2.2,Win32,60.0240096,,,,,,,,,,,,,,,,,,masks/mask_004.jpg,,,,,,,,,,,,,,,,,,,,,,,,,,,,,,,,,,,,,,,,,,,0,4,4,3,1,,,,,,,,,,,,,,,,,,,,,,,,,,,,,,,,,,,,,,,,,,,,,,
311626,001,2022-11-20_17h53.33.932,Info_measure_main_exp,2022.2.2,Win32,60.0240096,,,,,,,,,,,,,,,,,,masks/mask_001.jpg,,,,,,,,,,,,,,,,,,,,,,,,,,,,,,,,,,,,,,,,,,,,,,,,0,0,0,0,1,,,,,,,,,,,,,,,,,,,,,,,,,,,,,,,,,,,,,,,,,
311626,001,2022-11-20_17h53.33.932,Info_measure_main_exp,2022.2.2,Win32,60.0240096,,,,,,,,,,,,,,,,,,masks/mask_002.jpg,,,,,,,,,,,,,,,,,,,,,,,,,,,,,,,,,,,,,,,,,,,,,,,,0,1,1,1,1,,,,,,,,,,,,,,,,,,,,,,,,,,,,,,,,,,,,,,,,,
311626,001,2022-11-20_17h53.33.932,Info_measure_main_exp,2022.2.2,Win32,60.0240096,,,,,,,,,,,,,,,,,,masks/mask_003.jpg,,,,,,,,,,,,,,,,,,,,,,,,,,,,,,,,,,,,,,,,,,,,,,,,0,2,2,2,1,,,,,,,,,,,,,,,,,,,,,,,,,,,,,,,,,,,,,,,,,
311626,001,2022-11-20_17h53.33.932,Info_measure_main_exp,2022.2.2,Win32,60.0240096,,,,,,,,,,,,,,,,,,masks/mask_004.jpg,,,,,,,,,,,,,,,,,,,,,,,,,,,,,,,,,,,,,,,,,,,,,,,,0,3,3,3,1,,,,,,,,,,,,,,,,,,,,,,,,,,,,,,,,,,,,,,,,,
311626,001,2022-11-20_17h53.33.932,Info_measure_main_exp,2022.2.2,Win32,60.0240096,,,,,,,,,,,,,,,,,,masks/mask_005.jpg,,,,,,,,,,,,,,,,,,,,,,,,,,,,,,,,,,,,,,,,,,,,,,,,0,4,4,4,1,,,,,,,,,,,,,,,,,,,,,,,,,,,,,,,,,,,,,,,,,
311626,001,2022-11-20_17h53.33.932,Info_measure_main_exp,2022.2.2,Win32,60.0240096,,,,,,,,,,,,,,,,,,,,,,,,,,,,,,7,0.897,1,,,,,,,,,,,,0,131,5,5,2250,2178,absent_patch/patch0002250.jpg,absent_patch/patch0002178.jpg,,,,,,,,,,,,,,,,,,,,0.067708333,0.153645833,1,0,0,response1disk,24,-0.002604167,0.001302083,1,0,0,center_square,0,23,23,48,1,,,,,,,,,,,,,,,,,,,,,,,
311626,001,2022-11-20_17h53.33.932,Info_measure_main_exp,2022.2.2,Win32,60.0240096,,,,,,,,,,,,,,,,,,masks/mask_005.jpg,,,,,,,,,,,,,,,,,,,,,,,,,,,,,,,,,,,,,,,,,,,0,0,0,4,1,,,,,,,,,,,,,,,,,,,,,,,,,,,,,,,,,,,,,,,,,,,,,,
311626,001,2022-11-20_17h53.33.932,Info_measure_main_exp,2022.2.2,Win32,60.0240096,,,,,,,,,,,,,,,,,,masks/mask_002.jpg,,,,,,,,,,,,,,,,,,,,,,,,,,,,,,,,,,,,,,,,,,,0,1,1,1,1,,,,,,,,,,,,,,,,,,,,,,,,,,,,,,,,,,,,,,,,,,,,,,
311626,001,2022-11-20_17h53.33.932,Info_measure_main_exp,2022.2.2,Win32,60.0240096,,,,,,,,,,,,,,,,,,masks/mask_004.jpg,,,,,,,,,,,,,,,,,,,,,,,,,,,,,,,,,,,,,,,,,,,0,2,2,3,1,,,,,,,,,,,,,,,,,,,,,,,,,,,,,,,,,,,,,,,,,,,,,,
311626,001,2022-11-20_17h53.33.932,Info_measure_main_exp,2022.2.2,Win32,60.0240096,,,,,,,,,,,,,,,,,,masks/mask_001.jpg,,,,,,,,,,,,,,,,,,,,,,,,,,,,,,,,,,,,,,,,,,,0,3,3,0,1,,,,,,,,,,,,,,,,,,,,,,,,,,,,,,,,,,,,,,,,,,,,,,
311626,001,2022-11-20_17h53.33.932,Info_measure_main_exp,2022.2.2,Win32,60.0240096,,,,,,,,,,,,,,,,,,masks/mask_003.jpg,,,,,,,,,,,,,,,,,,,,,,,,,,,,,,,,,,,,,,,,,,,0,4,4,2,1,,,,,,,,,,,,,,,,,,,,,,,,,,,,,,,,,,,,,,,,,,,,,,
311626,001,2022-11-20_17h53.33.932,Info_measure_main_exp,2022.2.2,Win32,60.0240096,,,,,,,,,,,,,,,,,,masks/mask_003.jpg,,,,,,,,,,,,,,,,,,,,,,,,,,,,,,,,,,,,,,,,,,,,,,,,0,0,0,2,1,,,,,,,,,,,,,,,,,,,,,,,,,,,,,,,,,,,,,,,,,
311626,001,2022-11-20_17h53.33.932,Info_measure_main_exp,2022.2.2,Win32,60.0240096,,,,,,,,,,,,,,,,,,masks/mask_004.jpg,,,,,,,,,,,,,,,,,,,,,,,,,,,,,,,,,,,,,,,,,,,,,,,,0,1,1,3,1,,,,,,,,,,,,,,,,,,,,,,,,,,,,,,,,,,,,,,,,,
311626,001,2022-11-20_17h53.33.932,Info_measure_main_exp,2022.2.2,Win32,60.0240096,,,,,,,,,,,,,,,,,,masks/mask_001.jpg,,,,,,,,,,,,,,,,,,,,,,,,,,,,,,,,,,,,,,,,,,,,,,,,0,2,2,0,1,,,,,,,,,,,,,,,,,,,,,,,,,,,,,,,,,,,,,,,,,
311626,001,2022-11-20_17h53.33.932,Info_measure_main_exp,2022.2.2,Win32,60.0240096,,,,,,,,,,,,,,,,,,masks/mask_005.jpg,,,,,,,,,,,,,,,,,,,,,,,,,,,,,,,,,,,,,,,,,,,,,,,,0,3,3,4,1,,,,,,,,,,,,,,,,,,,,,,,,,,,,,,,,,,,,,,,,,
311626,001,2022-11-20_17h53.33.932,Info_measure_main_exp,2022.2.2,Win32,60.0240096,,,,,,,,,,,,,,,,,,masks/mask_002.jpg,,,,,,,,,,,,,,,,,,,,,,,,,,,,,,,,,,,,,,,,,,,,,,,,0,4,4,1,1,,,,,,,,,,,,,,,,,,,,,,,,,,,,,,,,,,,,,,,,,
311626,001,2022-11-20_17h53.33.932,Info_measure_main_exp,2022.2.2,Win32,60.0240096,,,,,,,,,,,,,,,,,,,,,,,,,,,,,,0,0.654,1,,,,,,,,,,,,0,131,5,5,2250,2250,absent_patch/patch0002250.jpg,absent_patch/patch0002250.jpg,,,,,,,,,,,,,,,,,,,,-0.0390625,0.140625,1,0,0,response7disk,25,-0.006510417,0.010416667,1,0,0,center_square,0,24,24,56,1,,,,,,,,,,,,,,,,,,,,,,,
311626,001,2022-11-20_17h53.33.932,Info_measure_main_exp,2022.2.2,Win32,60.0240096,,,,,,,,,,,,,,,,,,masks/mask_001.jpg,,,,,,,,,,,,,,,,,,,,,,,,,,,,,,,,,,,,,,,,,,,0,0,0,0,1,,,,,,,,,,,,,,,,,,,,,,,,,,,,,,,,,,,,,,,,,,,,,,
311626,001,2022-11-20_17h53.33.932,Info_measure_main_exp,2022.2.2,Win32,60.0240096,,,,,,,,,,,,,,,,,,masks/mask_005.jpg,,,,,,,,,,,,,,,,,,,,,,,,,,,,,,,,,,,,,,,,,,,0,1,1,4,1,,,,,,,,,,,,,,,,,,,,,,,,,,,,,,,,,,,,,,,,,,,,,,
311626,001,2022-11-20_17h53.33.932,Info_measure_main_exp,2022.2.2,Win32,60.0240096,,,,,,,,,,,,,,,,,,masks/mask_002.jpg,,,,,,,,,,,,,,,,,,,,,,,,,,,,,,,,,,,,,,,,,,,0,2,2,1,1,,,,,,,,,,,,,,,,,,,,,,,,,,,,,,,,,,,,,,,,,,,,,,
311626,001,2022-11-20_17h53.33.932,Info_measure_main_exp,2022.2.2,Win32,60.0240096,,,,,,,,,,,,,,,,,,masks/mask_004.jpg,,,,,,,,,,,,,,,,,,,,,,,,,,,,,,,,,,,,,,,,,,,0,3,3,3,1,,,,,,,,,,,,,,,,,,,,,,,,,,,,,,,,,,,,,,,,,,,,,,
311626,001,2022-11-20_17h53.33.932,Info_measure_main_exp,2022.2.2,Win32,60.0240096,,,,,,,,,,,,,,,,,,masks/mask_003.jpg,,,,,,,,,,,,,,,,,,,,,,,,,,,,,,,,,,,,,,,,,,,0,4,4,2,1,,,,,,,,,,,,,,,,,,,,,,,,,,,,,,,,,,,,,,,,,,,,,,
311626,001,2022-11-20_17h53.33.932,Info_measure_main_exp,2022.2.2,Win32,60.0240096,,,,,,,,,,,,,,,,,,masks/mask_001.jpg,,,,,,,,,,,,,,,,,,,,,,,,,,,,,,,,,,,,,,,,,,,,,,,,0,0,0,0,1,,,,,,,,,,,,,,,,,,,,,,,,,,,,,,,,,,,,,,,,,
311626,001,2022-11-20_17h53.33.932,Info_measure_main_exp,2022.2.2,Win32,60.0240096,,,,,,,,,,,,,,,,,,masks/mask_005.jpg,,,,,,,,,,,,,,,,,,,,,,,,,,,,,,,,,,,,,,,,,,,,,,,,0,1,1,4,1,,,,,,,,,,,,,,,,,,,,,,,,,,,,,,,,,,,,,,,,,
311626,001,2022-11-20_17h53.33.932,Info_measure_main_exp,2022.2.2,Win32,60.0240096,,,,,,,,,,,,,,,,,,masks/mask_004.jpg,,,,,,,,,,,,,,,,,,,,,,,,,,,,,,,,,,,,,,,,,,,,,,,,0,2,2,3,1,,,,,,,,,,,,,,,,,,,,,,,,,,,,,,,,,,,,,,,,,
311626,001,2022-11-20_17h53.33.932,Info_measure_main_exp,2022.2.2,Win32,60.0240096,,,,,,,,,,,,,,,,,,masks/mask_003.jpg,,,,,,,,,,,,,,,,,,,,,,,,,,,,,,,,,,,,,,,,,,,,,,,,0,3,3,2,1,,,,,,,,,,,,,,,,,,,,,,,,,,,,,,,,,,,,,,,,,
311626,001,2022-11-20_17h53.33.932,Info_measure_main_exp,2022.2.2,Win32,60.0240096,,,,,,,,,,,,,,,,,,masks/mask_002.jpg,,,,,,,,,,,,,,,,,,,,,,,,,,,,,,,,,,,,,,,,,,,,,,,,0,4,4,1,1,,,,,,,,,,,,,,,,,,,,,,,,,,,,,,,,,,,,,,,,,
311626,001,2022-11-20_17h53.33.932,Info_measure_main_exp,2022.2.2,Win32,60.0240096,,,,,,,,,,,,,,,,,,,,,,,,,,,,,,7,1.459,1,,,,,,,,,,,,0,131,5,5,2298,2178,absent_patch/patch0002298.jpg,absent_patch/patch0002178.jpg,,,,,,,,,,,,,,,,,,,,0.07421875,0.15625,1,0,0,response1disk,26,0.002604167,0.0078125,1,0,0,center_square,0,25,25,84,1,,,,,,,,,,,,,,,,,,,,,,,
311626,001,2022-11-20_17h53.33.932,Info_measure_main_exp,2022.2.2,Win32,60.0240096,,,,,,,,,,,,,,,,,,masks/mask_005.jpg,,,,,,,,,,,,,,,,,,,,,,,,,,,,,,,,,,,,,,,,,,,0,0,0,4,1,,,,,,,,,,,,,,,,,,,,,,,,,,,,,,,,,,,,,,,,,,,,,,
311626,001,2022-11-20_17h53.33.932,Info_measure_main_exp,2022.2.2,Win32,60.0240096,,,,,,,,,,,,,,,,,,masks/mask_002.jpg,,,,,,,,,,,,,,,,,,,,,,,,,,,,,,,,,,,,,,,,,,,0,1,1,1,1,,,,,,,,,,,,,,,,,,,,,,,,,,,,,,,,,,,,,,,,,,,,,,
311626,001,2022-11-20_17h53.33.932,Info_measure_main_exp,2022.2.2,Win32,60.0240096,,,,,,,,,,,,,,,,,,masks/mask_004.jpg,,,,,,,,,,,,,,,,,,,,,,,,,,,,,,,,,,,,,,,,,,,0,2,2,3,1,,,,,,,,,,,,,,,,,,,,,,,,,,,,,,,,,,,,,,,,,,,,,,
311626,001,2022-11-20_17h53.33.932,Info_measure_main_exp,2022.2.2,Win32,60.0240096,,,,,,,,,,,,,,,,,,masks/mask_003.jpg,,,,,,,,,,,,,,,,,,,,,,,,,,,,,,,,,,,,,,,,,,,0,3,3,2,1,,,,,,,,,,,,,,,,,,,,,,,,,,,,,,,,,,,,,,,,,,,,,,
311626,001,2022-11-20_17h53.33.932,Info_measure_main_exp,2022.2.2,Win32,60.0240096,,,,,,,,,,,,,,,,,,masks/mask_001.jpg,,,,,,,,,,,,,,,,,,,,,,,,,,,,,,,,,,,,,,,,,,,0,4,4,0,1,,,,,,,,,,,,,,,,,,,,,,,,,,,,,,,,,,,,,,,,,,,,,,
311626,001,2022-11-20_17h53.33.932,Info_measure_main_exp,2022.2.2,Win32,60.0240096,,,,,,,,,,,,,,,,,,masks/mask_004.jpg,,,,,,,,,,,,,,,,,,,,,,,,,,,,,,,,,,,,,,,,,,,,,,,,0,0,0,3,1,,,,,,,,,,,,,,,,,,,,,,,,,,,,,,,,,,,,,,,,,
311626,001,2022-11-20_17h53.33.932,Info_measure_main_exp,2022.2.2,Win32,60.0240096,,,,,,,,,,,,,,,,,,masks/mask_005.jpg,,,,,,,,,,,,,,,,,,,,,,,,,,,,,,,,,,,,,,,,,,,,,,,,0,1,1,4,1,,,,,,,,,,,,,,,,,,,,,,,,,,,,,,,,,,,,,,,,,
311626,001,2022-11-20_17h53.33.932,Info_measure_main_exp,2022.2.2,Win32,60.0240096,,,,,,,,,,,,,,,,,,masks/mask_003.jpg,,,,,,,,,,,,,,,,,,,,,,,,,,,,,,,,,,,,,,,,,,,,,,,,0,2,2,2,1,,,,,,,,,,,,,,,,,,,,,,,,,,,,,,,,,,,,,,,,,
311626,001,2022-11-20_17h53.33.932,Info_measure_main_exp,2022.2.2,Win32,60.0240096,,,,,,,,,,,,,,,,,,masks/mask_002.jpg,,,,,,,,,,,,,,,,,,,,,,,,,,,,,,,,,,,,,,,,,,,,,,,,0,3,3,1,1,,,,,,,,,,,,,,,,,,,,,,,,,,,,,,,,,,,,,,,,,
311626,001,2022-11-20_17h53.33.932,Info_measure_main_exp,2022.2.2,Win32,60.0240096,,,,,,,,,,,,,,,,,,masks/mask_001.jpg,,,,,,,,,,,,,,,,,,,,,,,,,,,,,,,,,,,,,,,,,,,,,,,,0,4,4,0,1,,,,,,,,,,,,,,,,,,,,,,,,,,,,,,,,,,,,,,,,,
311626,001,2022-11-20_17h53.33.932,Info_measure_main_exp,2022.2.2,Win32,60.0240096,,,,,,,,,,,,,,,,,,,,,,,,,,,,,,7,0.706,1,,,,,,,,,,,,0,131,5,5,2190,1950,absent_patch/patch0002190.jpg,absent_patch/patch0001950.jpg,,,,,,,,,,,,,,,,,,,,0.052083333,0.130208333,1,0,0,response1disk,27,0.0078125,0,1,0,0,center_square,0,26,26,73,1,,,,,,,,,,,,,,,,,,,,,,,
311626,001,2022-11-20_17h53.33.932,Info_measure_main_exp,2022.2.2,Win32,60.0240096,,,,,,,,,,,,,,,,,,masks/mask_005.jpg,,,,,,,,,,,,,,,,,,,,,,,,,,,,,,,,,,,,,,,,,,,0,0,0,4,1,,,,,,,,,,,,,,,,,,,,,,,,,,,,,,,,,,,,,,,,,,,,,,
311626,001,2022-11-20_17h53.33.932,Info_measure_main_exp,2022.2.2,Win32,60.0240096,,,,,,,,,,,,,,,,,,masks/mask_002.jpg,,,,,,,,,,,,,,,,,,,,,,,,,,,,,,,,,,,,,,,,,,,0,1,1,1,1,,,,,,,,,,,,,,,,,,,,,,,,,,,,,,,,,,,,,,,,,,,,,,
311626,001,2022-11-20_17h53.33.932,Info_measure_main_exp,2022.2.2,Win32,60.0240096,,,,,,,,,,,,,,,,,,masks/mask_001.jpg,,,,,,,,,,,,,,,,,,,,,,,,,,,,,,,,,,,,,,,,,,,0,2,2,0,1,,,,,,,,,,,,,,,,,,,,,,,,,,,,,,,,,,,,,,,,,,,,,,
311626,001,2022-11-20_17h53.33.932,Info_measure_main_exp,2022.2.2,Win32,60.0240096,,,,,,,,,,,,,,,,,,masks/mask_004.jpg,,,,,,,,,,,,,,,,,,,,,,,,,,,,,,,,,,,,,,,,,,,0,3,3,3,1,,,,,,,,,,,,,,,,,,,,,,,,,,,,,,,,,,,,,,,,,,,,,,
311626,001,2022-11-20_17h53.33.932,Info_measure_main_exp,2022.2.2,Win32,60.0240096,,,,,,,,,,,,,,,,,,masks/mask_003.jpg,,,,,,,,,,,,,,,,,,,,,,,,,,,,,,,,,,,,,,,,,,,0,4,4,2,1,,,,,,,,,,,,,,,,,,,,,,,,,,,,,,,,,,,,,,,,,,,,,,
311626,001,2022-11-20_17h53.33.932,Info_measure_main_exp,2022.2.2,Win32,60.0240096,,,,,,,,,,,,,,,,,,masks/mask_001.jpg,,,,,,,,,,,,,,,,,,,,,,,,,,,,,,,,,,,,,,,,,,,,,,,,0,0,0,0,1,,,,,,,,,,,,,,,,,,,,,,,,,,,,,,,,,,,,,,,,,
311626,001,2022-11-20_17h53.33.932,Info_measure_main_exp,2022.2.2,Win32,60.0240096,,,,,,,,,,,,,,,,,,masks/mask_003.jpg,,,,,,,,,,,,,,,,,,,,,,,,,,,,,,,,,,,,,,,,,,,,,,,,0,1,1,2,1,,,,,,,,,,,,,,,,,,,,,,,,,,,,,,,,,,,,,,,,,
311626,001,2022-11-20_17h53.33.932,Info_measure_main_exp,2022.2.2,Win32,60.0240096,,,,,,,,,,,,,,,,,,masks/mask_002.jpg,,,,,,,,,,,,,,,,,,,,,,,,,,,,,,,,,,,,,,,,,,,,,,,,0,2,2,1,1,,,,,,,,,,,,,,,,,,,,,,,,,,,,,,,,,,,,,,,,,
311626,001,2022-11-20_17h53.33.932,Info_measure_main_exp,2022.2.2,Win32,60.0240096,,,,,,,,,,,,,,,,,,masks/mask_004.jpg,,,,,,,,,,,,,,,,,,,,,,,,,,,,,,,,,,,,,,,,,,,,,,,,0,3,3,3,1,,,,,,,,,,,,,,,,,,,,,,,,,,,,,,,,,,,,,,,,,
311626,001,2022-11-20_17h53.33.932,Info_measure_main_exp,2022.2.2,Win32,60.0240096,,,,,,,,,,,,,,,,,,masks/mask_005.jpg,,,,,,,,,,,,,,,,,,,,,,,,,,,,,,,,,,,,,,,,,,,,,,,,0,4,4,4,1,,,,,,,,,,,,,,,,,,,,,,,,,,,,,,,,,,,,,,,,,
311626,001,2022-11-20_17h53.33.932,Info_measure_main_exp,2022.2.2,Win32,60.0240096,,,,,,,,,,,,,,,,,,,,,,,,,,,,,,7,0.906,1,,,,,,,,,,,,0,131,5,5,1986,1974,absent_patch/patch0001986.jpg,absent_patch/patch0001974.jpg,,,,,,,,,,,,,,,,,,,,0.06640625,0.169270833,1,0,0,response1disk,28,0.001302083,0.001302083,1,0,0,center_square,0,27,27,25,1,,,,,,,,,,,,,,,,,,,,,,,
311626,001,2022-11-20_17h53.33.932,Info_measure_main_exp,2022.2.2,Win32,60.0240096,,,,,,,,,,,,,,,,,,masks/mask_002.jpg,,,,,,,,,,,,,,,,,,,,,,,,,,,,,,,,,,,,,,,,,,,0,0,0,1,1,,,,,,,,,,,,,,,,,,,,,,,,,,,,,,,,,,,,,,,,,,,,,,
311626,001,2022-11-20_17h53.33.932,Info_measure_main_exp,2022.2.2,Win32,60.0240096,,,,,,,,,,,,,,,,,,masks/mask_005.jpg,,,,,,,,,,,,,,,,,,,,,,,,,,,,,,,,,,,,,,,,,,,0,1,1,4,1,,,,,,,,,,,,,,,,,,,,,,,,,,,,,,,,,,,,,,,,,,,,,,
311626,001,2022-11-20_17h53.33.932,Info_measure_main_exp,2022.2.2,Win32,60.0240096,,,,,,,,,,,,,,,,,,masks/mask_003.jpg,,,,,,,,,,,,,,,,,,,,,,,,,,,,,,,,,,,,,,,,,,,0,2,2,2,1,,,,,,,,,,,,,,,,,,,,,,,,,,,,,,,,,,,,,,,,,,,,,,
311626,001,2022-11-20_17h53.33.932,Info_measure_main_exp,2022.2.2,Win32,60.0240096,,,,,,,,,,,,,,,,,,masks/mask_001.jpg,,,,,,,,,,,,,,,,,,,,,,,,,,,,,,,,,,,,,,,,,,,0,3,3,0,1,,,,,,,,,,,,,,,,,,,,,,,,,,,,,,,,,,,,,,,,,,,,,,
311626,001,2022-11-20_17h53.33.932,Info_measure_main_exp,2022.2.2,Win32,60.0240096,,,,,,,,,,,,,,,,,,masks/mask_004.jpg,,,,,,,,,,,,,,,,,,,,,,,,,,,,,,,,,,,,,,,,,,,0,4,4,3,1,,,,,,,,,,,,,,,,,,,,,,,,,,,,,,,,,,,,,,,,,,,,,,
311626,001,2022-11-20_17h53.33.932,Info_measure_main_exp,2022.2.2,Win32,60.0240096,,,,,,,,,,,,,,,,,,masks/mask_004.jpg,,,,,,,,,,,,,,,,,,,,,,,,,,,,,,,,,,,,,,,,,,,,,,,,0,0,0,3,1,,,,,,,,,,,,,,,,,,,,,,,,,,,,,,,,,,,,,,,,,
311626,001,2022-11-20_17h53.33.932,Info_measure_main_exp,2022.2.2,Win32,60.0240096,,,,,,,,,,,,,,,,,,masks/mask_005.jpg,,,,,,,,,,,,,,,,,,,,,,,,,,,,,,,,,,,,,,,,,,,,,,,,0,1,1,4,1,,,,,,,,,,,,,,,,,,,,,,,,,,,,,,,,,,,,,,,,,
311626,001,2022-11-20_17h53.33.932,Info_measure_main_exp,2022.2.2,Win32,60.0240096,,,,,,,,,,,,,,,,,,masks/mask_003.jpg,,,,,,,,,,,,,,,,,,,,,,,,,,,,,,,,,,,,,,,,,,,,,,,,0,2,2,2,1,,,,,,,,,,,,,,,,,,,,,,,,,,,,,,,,,,,,,,,,,
311626,001,2022-11-20_17h53.33.932,Info_measure_main_exp,2022.2.2,Win32,60.0240096,,,,,,,,,,,,,,,,,,masks/mask_002.jpg,,,,,,,,,,,,,,,,,,,,,,,,,,,,,,,,,,,,,,,,,,,,,,,,0,3,3,1,1,,,,,,,,,,,,,,,,,,,,,,,,,,,,,,,,,,,,,,,,,
311626,001,2022-11-20_17h53.33.932,Info_measure_main_exp,2022.2.2,Win32,60.0240096,,,,,,,,,,,,,,,,,,masks/mask_001.jpg,,,,,,,,,,,,,,,,,,,,,,,,,,,,,,,,,,,,,,,,,,,,,,,,0,4,4,0,1,,,,,,,,,,,,,,,,,,,,,,,,,,,,,,,,,,,,,,,,,
311626,001,2022-11-20_17h53.33.932,Info_measure_main_exp,2022.2.2,Win32,60.0240096,,,,,,,,,,,,,,,,,,,,,,,,,,,,,,7,0.737,1,,,,,,,,,,,,0,131,5,5,2082,1986,absent_patch/patch0002082.jpg,absent_patch/patch0001986.jpg,,,,,,,,,,,,,,,,,,,,0.071614583,0.15234375,1,0,0,response1disk,29,0.005208333,0.00390625,1,0,0,center_square,0,28,28,94,1,,,,,,,,,,,,,,,,,,,,,,,
311626,001,2022-11-20_17h53.33.932,Info_measure_main_exp,2022.2.2,Win32,60.0240096,,,,,,,,,,,,,,,,,,masks/mask_004.jpg,,,,,,,,,,,,,,,,,,,,,,,,,,,,,,,,,,,,,,,,,,,0,0,0,3,1,,,,,,,,,,,,,,,,,,,,,,,,,,,,,,,,,,,,,,,,,,,,,,
311626,001,2022-11-20_17h53.33.932,Info_measure_main_exp,2022.2.2,Win32,60.0240096,,,,,,,,,,,,,,,,,,masks/mask_001.jpg,,,,,,,,,,,,,,,,,,,,,,,,,,,,,,,,,,,,,,,,,,,0,1,1,0,1,,,,,,,,,,,,,,,,,,,,,,,,,,,,,,,,,,,,,,,,,,,,,,
311626,001,2022-11-20_17h53.33.932,Info_measure_main_exp,2022.2.2,Win32,60.0240096,,,,,,,,,,,,,,,,,,masks/mask_002.jpg,,,,,,,,,,,,,,,,,,,,,,,,,,,,,,,,,,,,,,,,,,,0,2,2,1,1,,,,,,,,,,,,,,,,,,,,,,,,,,,,,,,,,,,,,,,,,,,,,,
311626,001,2022-11-20_17h53.33.932,Info_measure_main_exp,2022.2.2,Win32,60.0240096,,,,,,,,,,,,,,,,,,masks/mask_005.jpg,,,,,,,,,,,,,,,,,,,,,,,,,,,,,,,,,,,,,,,,,,,0,3,3,4,1,,,,,,,,,,,,,,,,,,,,,,,,,,,,,,,,,,,,,,,,,,,,,,
311626,001,2022-11-20_17h53.33.932,Info_measure_main_exp,2022.2.2,Win32,60.0240096,,,,,,,,,,,,,,,,,,masks/mask_003.jpg,,,,,,,,,,,,,,,,,,,,,,,,,,,,,,,,,,,,,,,,,,,0,4,4,2,1,,,,,,,,,,,,,,,,,,,,,,,,,,,,,,,,,,,,,,,,,,,,,,
311626,001,2022-11-20_17h53.33.932,Info_measure_main_exp,2022.2.2,Win32,60.0240096,,,,,,,,,,,,,,,,,,masks/mask_004.jpg,,,,,,,,,,,,,,,,,,,,,,,,,,,,,,,,,,,,,,,,,,,,,,,,0,0,0,3,1,,,,,,,,,,,,,,,,,,,,,,,,,,,,,,,,,,,,,,,,,
311626,001,2022-11-20_17h53.33.932,Info_measure_main_exp,2022.2.2,Win32,60.0240096,,,,,,,,,,,,,,,,,,masks/mask_002.jpg,,,,,,,,,,,,,,,,,,,,,,,,,,,,,,,,,,,,,,,,,,,,,,,,0,1,1,1,1,,,,,,,,,,,,,,,,,,,,,,,,,,,,,,,,,,,,,,,,,
311626,001,2022-11-20_17h53.33.932,Info_measure_main_exp,2022.2.2,Win32,60.0240096,,,,,,,,,,,,,,,,,,masks/mask_005.jpg,,,,,,,,,,,,,,,,,,,,,,,,,,,,,,,,,,,,,,,,,,,,,,,,0,2,2,4,1,,,,,,,,,,,,,,,,,,,,,,,,,,,,,,,,,,,,,,,,,
311626,001,2022-11-20_17h53.33.932,Info_measure_main_exp,2022.2.2,Win32,60.0240096,,,,,,,,,,,,,,,,,,masks/mask_001.jpg,,,,,,,,,,,,,,,,,,,,,,,,,,,,,,,,,,,,,,,,,,,,,,,,0,3,3,0,1,,,,,,,,,,,,,,,,,,,,,,,,,,,,,,,,,,,,,,,,,
311626,001,2022-11-20_17h53.33.932,Info_measure_main_exp,2022.2.2,Win32,60.0240096,,,,,,,,,,,,,,,,,,masks/mask_003.jpg,,,,,,,,,,,,,,,,,,,,,,,,,,,,,,,,,,,,,,,,,,,,,,,,0,4,4,2,1,,,,,,,,,,,,,,,,,,,,,,,,,,,,,,,,,,,,,,,,,
311626,001,2022-11-20_17h53.33.932,Info_measure_main_exp,2022.2.2,Win32,60.0240096,,,,,,,,,,,,,,,,,,,,,,,,,,,,,,7,0.656,1,,,,,,,,,,,,0,131,5,5,2178,2154,absent_patch/patch0002178.jpg,absent_patch/patch0002154.jpg,,,,,,,,,,,,,,,,,,,,0.069010417,0.138020833,1,0,0,response1disk,30,-0.001302083,0.005208333,1,0,0,center_square,0,29,29,63,1,,,,,,,,,,,,,,,,,,,,,,,
311626,001,2022-11-20_17h53.33.932,Info_measure_main_exp,2022.2.2,Win32,60.0240096,,,,,,,,,,,,,,,,,,masks/mask_002.jpg,,,,,,,,,,,,,,,,,,,,,,,,,,,,,,,,,,,,,,,,,,,0,0,0,1,1,,,,,,,,,,,,,,,,,,,,,,,,,,,,,,,,,,,,,,,,,,,,,,
311626,001,2022-11-20_17h53.33.932,Info_measure_main_exp,2022.2.2,Win32,60.0240096,,,,,,,,,,,,,,,,,,masks/mask_005.jpg,,,,,,,,,,,,,,,,,,,,,,,,,,,,,,,,,,,,,,,,,,,0,1,1,4,1,,,,,,,,,,,,,,,,,,,,,,,,,,,,,,,,,,,,,,,,,,,,,,
311626,001,2022-11-20_17h53.33.932,Info_measure_main_exp,2022.2.2,Win32,60.0240096,,,,,,,,,,,,,,,,,,masks/mask_001.jpg,,,,,,,,,,,,,,,,,,,,,,,,,,,,,,,,,,,,,,,,,,,0,2,2,0,1,,,,,,,,,,,,,,,,,,,,,,,,,,,,,,,,,,,,,,,,,,,,,,
311626,001,2022-11-20_17h53.33.932,Info_measure_main_exp,2022.2.2,Win32,60.0240096,,,,,,,,,,,,,,,,,,masks/mask_003.jpg,,,,,,,,,,,,,,,,,,,,,,,,,,,,,,,,,,,,,,,,,,,0,3,3,2,1,,,,,,,,,,,,,,,,,,,,,,,,,,,,,,,,,,,,,,,,,,,,,,
311626,001,2022-11-20_17h53.33.932,Info_measure_main_exp,2022.2.2,Win32,60.0240096,,,,,,,,,,,,,,,,,,masks/mask_004.jpg,,,,,,,,,,,,,,,,,,,,,,,,,,,,,,,,,,,,,,,,,,,0,4,4,3,1,,,,,,,,,,,,,,,,,,,,,,,,,,,,,,,,,,,,,,,,,,,,,,
311626,001,2022-11-20_17h53.33.932,Info_measure_main_exp,2022.2.2,Win32,60.0240096,,,,,,,,,,,,,,,,,,masks/mask_001.jpg,,,,,,,,,,,,,,,,,,,,,,,,,,,,,,,,,,,,,,,,,,,,,,,,0,0,0,0,1,,,,,,,,,,,,,,,,,,,,,,,,,,,,,,,,,,,,,,,,,
311626,001,2022-11-20_17h53.33.932,Info_measure_main_exp,2022.2.2,Win32,60.0240096,,,,,,,,,,,,,,,,,,masks/mask_002.jpg,,,,,,,,,,,,,,,,,,,,,,,,,,,,,,,,,,,,,,,,,,,,,,,,0,1,1,1,1,,,,,,,,,,,,,,,,,,,,,,,,,,,,,,,,,,,,,,,,,
311626,001,2022-11-20_17h53.33.932,Info_measure_main_exp,2022.2.2,Win32,60.0240096,,,,,,,,,,,,,,,,,,masks/mask_003.jpg,,,,,,,,,,,,,,,,,,,,,,,,,,,,,,,,,,,,,,,,,,,,,,,,0,2,2,2,1,,,,,,,,,,,,,,,,,,,,,,,,,,,,,,,,,,,,,,,,,
311626,001,2022-11-20_17h53.33.932,Info_measure_main_exp,2022.2.2,Win32,60.0240096,,,,,,,,,,,,,,,,,,masks/mask_004.jpg,,,,,,,,,,,,,,,,,,,,,,,,,,,,,,,,,,,,,,,,,,,,,,,,0,3,3,3,1,,,,,,,,,,,,,,,,,,,,,,,,,,,,,,,,,,,,,,,,,
311626,001,2022-11-20_17h53.33.932,Info_measure_main_exp,2022.2.2,Win32,60.0240096,,,,,,,,,,,,,,,,,,masks/mask_005.jpg,,,,,,,,,,,,,,,,,,,,,,,,,,,,,,,,,,,,,,,,,,,,,,,,0,4,4,4,1,,,,,,,,,,,,,,,,,,,,,,,,,,,,,,,,,,,,,,,,,
311626,001,2022-11-20_17h53.33.932,Info_measure_main_exp,2022.2.2,Win32,60.0240096,,,,,,,,,,,,,,,,,,,,,,,,,,,,,,0,0.87,1,,,,,,,,,,,,0,131,5,5,2082,2082,absent_patch/patch0002082.jpg,absent_patch/patch0002082.jpg,,,,,,,,,,,,,,,,,,,,-0.03515625,0.135416667,1,0,0,response7disk,31,0.002604167,0,1,0,0,center_square,0,30,30,74,1,,,,,,,,,,,,,,,,,,,,,,,
311626,001,2022-11-20_17h53.33.932,Info_measure_main_exp,2022.2.2,Win32,60.0240096,,,,,,,,,,,,,,,,,,masks/mask_003.jpg,,,,,,,,,,,,,,,,,,,,,,,,,,,,,,,,,,,,,,,,,,,0,0,0,2,1,,,,,,,,,,,,,,,,,,,,,,,,,,,,,,,,,,,,,,,,,,,,,,
311626,001,2022-11-20_17h53.33.932,Info_measure_main_exp,2022.2.2,Win32,60.0240096,,,,,,,,,,,,,,,,,,masks/mask_002.jpg,,,,,,,,,,,,,,,,,,,,,,,,,,,,,,,,,,,,,,,,,,,0,1,1,1,1,,,,,,,,,,,,,,,,,,,,,,,,,,,,,,,,,,,,,,,,,,,,,,
311626,001,2022-11-20_17h53.33.932,Info_measure_main_exp,2022.2.2,Win32,60.0240096,,,,,,,,,,,,,,,,,,masks/mask_004.jpg,,,,,,,,,,,,,,,,,,,,,,,,,,,,,,,,,,,,,,,,,,,0,2,2,3,1,,,,,,,,,,,,,,,,,,,,,,,,,,,,,,,,,,,,,,,,,,,,,,
311626,001,2022-11-20_17h53.33.932,Info_measure_main_exp,2022.2.2,Win32,60.0240096,,,,,,,,,,,,,,,,,,masks/mask_005.jpg,,,,,,,,,,,,,,,,,,,,,,,,,,,,,,,,,,,,,,,,,,,0,3,3,4,1,,,,,,,,,,,,,,,,,,,,,,,,,,,,,,,,,,,,,,,,,,,,,,
311626,001,2022-11-20_17h53.33.932,Info_measure_main_exp,2022.2.2,Win32,60.0240096,,,,,,,,,,,,,,,,,,masks/mask_001.jpg,,,,,,,,,,,,,,,,,,,,,,,,,,,,,,,,,,,,,,,,,,,0,4,4,0,1,,,,,,,,,,,,,,,,,,,,,,,,,,,,,,,,,,,,,,,,,,,,,,
311626,001,2022-11-20_17h53.33.932,Info_measure_main_exp,2022.2.2,Win32,60.0240096,,,,,,,,,,,,,,,,,,masks/mask_002.jpg,,,,,,,,,,,,,,,,,,,,,,,,,,,,,,,,,,,,,,,,,,,,,,,,0,0,0,1,1,,,,,,,,,,,,,,,,,,,,,,,,,,,,,,,,,,,,,,,,,
311626,001,2022-11-20_17h53.33.932,Info_measure_main_exp,2022.2.2,Win32,60.0240096,,,,,,,,,,,,,,,,,,masks/mask_005.jpg,,,,,,,,,,,,,,,,,,,,,,,,,,,,,,,,,,,,,,,,,,,,,,,,0,1,1,4,1,,,,,,,,,,,,,,,,,,,,,,,,,,,,,,,,,,,,,,,,,
311626,001,2022-11-20_17h53.33.932,Info_measure_main_exp,2022.2.2,Win32,60.0240096,,,,,,,,,,,,,,,,,,masks/mask_004.jpg,,,,,,,,,,,,,,,,,,,,,,,,,,,,,,,,,,,,,,,,,,,,,,,,0,2,2,3,1,,,,,,,,,,,,,,,,,,,,,,,,,,,,,,,,,,,,,,,,,
311626,001,2022-11-20_17h53.33.932,Info_measure_main_exp,2022.2.2,Win32,60.0240096,,,,,,,,,,,,,,,,,,masks/mask_001.jpg,,,,,,,,,,,,,,,,,,,,,,,,,,,,,,,,,,,,,,,,,,,,,,,,0,3,3,0,1,,,,,,,,,,,,,,,,,,,,,,,,,,,,,,,,,,,,,,,,,
311626,001,2022-11-20_17h53.33.932,Info_measure_main_exp,2022.2.2,Win32,60.0240096,,,,,,,,,,,,,,,,,,masks/mask_003.jpg,,,,,,,,,,,,,,,,,,,,,,,,,,,,,,,,,,,,,,,,,,,,,,,,0,4,4,2,1,,,,,,,,,,,,,,,,,,,,,,,,,,,,,,,,,,,,,,,,,
311626,001,2022-11-20_17h53.33.932,Info_measure_main_exp,2022.2.2,Win32,60.0240096,,,,,,,,,,,,,,,,,,,,,,,,,,,,,,7,0.755,1,,,,,,,,,,,,0,131,5,5,2082,2166,absent_patch/patch0002082.jpg,absent_patch/patch0002166.jpg,,,,,,,,,,,,,,,,,,,,0.055989583,0.115885417,1,0,0,response1disk,32,0.009114583,-0.001302083,1,0,0,center_square,0,31,31,43,1,,,,,,,,,,,,,,,,,,,,,,,
311626,001,2022-11-20_17h53.33.932,Info_measure_main_exp,2022.2.2,Win32,60.0240096,,,,,,,,,,,,,,,,,,masks/mask_003.jpg,,,,,,,,,,,,,,,,,,,,,,,,,,,,,,,,,,,,,,,,,,,0,0,0,2,1,,,,,,,,,,,,,,,,,,,,,,,,,,,,,,,,,,,,,,,,,,,,,,
311626,001,2022-11-20_17h53.33.932,Info_measure_main_exp,2022.2.2,Win32,60.0240096,,,,,,,,,,,,,,,,,,masks/mask_005.jpg,,,,,,,,,,,,,,,,,,,,,,,,,,,,,,,,,,,,,,,,,,,0,1,1,4,1,,,,,,,,,,,,,,,,,,,,,,,,,,,,,,,,,,,,,,,,,,,,,,
311626,001,2022-11-20_17h53.33.932,Info_measure_main_exp,2022.2.2,Win32,60.0240096,,,,,,,,,,,,,,,,,,masks/mask_002.jpg,,,,,,,,,,,,,,,,,,,,,,,,,,,,,,,,,,,,,,,,,,,0,2,2,1,1,,,,,,,,,,,,,,,,,,,,,,,,,,,,,,,,,,,,,,,,,,,,,,
311626,001,2022-11-20_17h53.33.932,Info_measure_main_exp,2022.2.2,Win32,60.0240096,,,,,,,,,,,,,,,,,,masks/mask_004.jpg,,,,,,,,,,,,,,,,,,,,,,,,,,,,,,,,,,,,,,,,,,,0,3,3,3,1,,,,,,,,,,,,,,,,,,,,,,,,,,,,,,,,,,,,,,,,,,,,,,
311626,001,2022-11-20_17h53.33.932,Info_measure_main_exp,2022.2.2,Win32,60.0240096,,,,,,,,,,,,,,,,,,masks/mask_001.jpg,,,,,,,,,,,,,,,,,,,,,,,,,,,,,,,,,,,,,,,,,,,0,4,4,0,1,,,,,,,,,,,,,,,,,,,,,,,,,,,,,,,,,,,,,,,,,,,,,,
311626,001,2022-11-20_17h53.33.932,Info_measure_main_exp,2022.2.2,Win32,60.0240096,,,,,,,,,,,,,,,,,,masks/mask_005.jpg,,,,,,,,,,,,,,,,,,,,,,,,,,,,,,,,,,,,,,,,,,,,,,,,0,0,0,4,1,,,,,,,,,,,,,,,,,,,,,,,,,,,,,,,,,,,,,,,,,
311626,001,2022-11-20_17h53.33.932,Info_measure_main_exp,2022.2.2,Win32,60.0240096,,,,,,,,,,,,,,,,,,masks/mask_004.jpg,,,,,,,,,,,,,,,,,,,,,,,,,,,,,,,,,,,,,,,,,,,,,,,,0,1,1,3,1,,,,,,,,,,,,,,,,,,,,,,,,,,,,,,,,,,,,,,,,,
311626,001,2022-11-20_17h53.33.932,Info_measure_main_exp,2022.2.2,Win32,60.0240096,,,,,,,,,,,,,,,,,,masks/mask_001.jpg,,,,,,,,,,,,,,,,,,,,,,,,,,,,,,,,,,,,,,,,,,,,,,,,0,2,2,0,1,,,,,,,,,,,,,,,,,,,,,,,,,,,,,,,,,,,,,,,,,
311626,001,2022-11-20_17h53.33.932,Info_measure_main_exp,2022.2.2,Win32,60.0240096,,,,,,,,,,,,,,,,,,masks/mask_002.jpg,,,,,,,,,,,,,,,,,,,,,,,,,,,,,,,,,,,,,,,,,,,,,,,,0,3,3,1,1,,,,,,,,,,,,,,,,,,,,,,,,,,,,,,,,,,,,,,,,,
311626,001,2022-11-20_17h53.33.932,Info_measure_main_exp,2022.2.2,Win32,60.0240096,,,,,,,,,,,,,,,,,,masks/mask_003.jpg,,,,,,,,,,,,,,,,,,,,,,,,,,,,,,,,,,,,,,,,,,,,,,,,0,4,4,2,1,,,,,,,,,,,,,,,,,,,,,,,,,,,,,,,,,,,,,,,,,
311626,001,2022-11-20_17h53.33.932,Info_measure_main_exp,2022.2.2,Win32,60.0240096,,,,,,,,,,,,,,,,,,,,,,,,,,,,,,7,0.603,1,,,,,,,,,,,,0,131,5,5,2214,2082,absent_patch/patch0002214.jpg,absent_patch/patch0002082.jpg,,,,,,,,,,,,,,,,,,,,0.032552083,0.09765625,1,0,0,response1disk,33,0.010416667,0,1,0,0,center_square,0,32,32,103,1,,,,,,,,,,,,,,,,,,,,,,,
311626,001,2022-11-20_17h53.33.932,Info_measure_main_exp,2022.2.2,Win32,60.0240096,,,,,,,,,,,,,,,,,,masks/mask_004.jpg,,,,,,,,,,,,,,,,,,,,,,,,,,,,,,,,,,,,,,,,,,,0,0,0,3,1,,,,,,,,,,,,,,,,,,,,,,,,,,,,,,,,,,,,,,,,,,,,,,
311626,001,2022-11-20_17h53.33.932,Info_measure_main_exp,2022.2.2,Win32,60.0240096,,,,,,,,,,,,,,,,,,masks/mask_001.jpg,,,,,,,,,,,,,,,,,,,,,,,,,,,,,,,,,,,,,,,,,,,0,1,1,0,1,,,,,,,,,,,,,,,,,,,,,,,,,,,,,,,,,,,,,,,,,,,,,,
311626,001,2022-11-20_17h53.33.932,Info_measure_main_exp,2022.2.2,Win32,60.0240096,,,,,,,,,,,,,,,,,,masks/mask_005.jpg,,,,,,,,,,,,,,,,,,,,,,,,,,,,,,,,,,,,,,,,,,,0,2,2,4,1,,,,,,,,,,,,,,,,,,,,,,,,,,,,,,,,,,,,,,,,,,,,,,
311626,001,2022-11-20_17h53.33.932,Info_measure_main_exp,2022.2.2,Win32,60.0240096,,,,,,,,,,,,,,,,,,masks/mask_002.jpg,,,,,,,,,,,,,,,,,,,,,,,,,,,,,,,,,,,,,,,,,,,0,3,3,1,1,,,,,,,,,,,,,,,,,,,,,,,,,,,,,,,,,,,,,,,,,,,,,,
311626,001,2022-11-20_17h53.33.932,Info_measure_main_exp,2022.2.2,Win32,60.0240096,,,,,,,,,,,,,,,,,,masks/mask_003.jpg,,,,,,,,,,,,,,,,,,,,,,,,,,,,,,,,,,,,,,,,,,,0,4,4,2,1,,,,,,,,,,,,,,,,,,,,,,,,,,,,,,,,,,,,,,,,,,,,,,
311626,001,2022-11-20_17h53.33.932,Info_measure_main_exp,2022.2.2,Win32,60.0240096,,,,,,,,,,,,,,,,,,masks/mask_003.jpg,,,,,,,,,,,,,,,,,,,,,,,,,,,,,,,,,,,,,,,,,,,,,,,,0,0,0,2,1,,,,,,,,,,,,,,,,,,,,,,,,,,,,,,,,,,,,,,,,,
311626,001,2022-11-20_17h53.33.932,Info_measure_main_exp,2022.2.2,Win32,60.0240096,,,,,,,,,,,,,,,,,,masks/mask_001.jpg,,,,,,,,,,,,,,,,,,,,,,,,,,,,,,,,,,,,,,,,,,,,,,,,0,1,1,0,1,,,,,,,,,,,,,,,,,,,,,,,,,,,,,,,,,,,,,,,,,
311626,001,2022-11-20_17h53.33.932,Info_measure_main_exp,2022.2.2,Win32,60.0240096,,,,,,,,,,,,,,,,,,masks/mask_005.jpg,,,,,,,,,,,,,,,,,,,,,,,,,,,,,,,,,,,,,,,,,,,,,,,,0,2,2,4,1,,,,,,,,,,,,,,,,,,,,,,,,,,,,,,,,,,,,,,,,,
311626,001,2022-11-20_17h53.33.932,Info_measure_main_exp,2022.2.2,Win32,60.0240096,,,,,,,,,,,,,,,,,,masks/mask_002.jpg,,,,,,,,,,,,,,,,,,,,,,,,,,,,,,,,,,,,,,,,,,,,,,,,0,3,3,1,1,,,,,,,,,,,,,,,,,,,,,,,,,,,,,,,,,,,,,,,,,
311626,001,2022-11-20_17h53.33.932,Info_measure_main_exp,2022.2.2,Win32,60.0240096,,,,,,,,,,,,,,,,,,masks/mask_004.jpg,,,,,,,,,,,,,,,,,,,,,,,,,,,,,,,,,,,,,,,,,,,,,,,,0,4,4,3,1,,,,,,,,,,,,,,,,,,,,,,,,,,,,,,,,,,,,,,,,,
311626,001,2022-11-20_17h53.33.932,Info_measure_main_exp,2022.2.2,Win32,60.0240096,,,,,,,,,,,,,,,,,,,,,,,,,,,,,,7,0.604,1,,,,,,,,,,,,0,131,5,5,2190,2250,absent_patch/patch0002190.jpg,absent_patch/patch0002250.jpg,,,,,,,,,,,,,,,,,,,,0.08984375,0.174479167,1,0,0,response1disk,34,0.010416667,-0.00390625,1,0,0,center_square,0,33,33,93,1,,,,,,,,,,,,,,,,,,,,,,,
311626,001,2022-11-20_17h53.33.932,Info_measure_main_exp,2022.2.2,Win32,60.0240096,,,,,,,,,,,,,,,,,,masks/mask_001.jpg,,,,,,,,,,,,,,,,,,,,,,,,,,,,,,,,,,,,,,,,,,,0,0,0,0,1,,,,,,,,,,,,,,,,,,,,,,,,,,,,,,,,,,,,,,,,,,,,,,
311626,001,2022-11-20_17h53.33.932,Info_measure_main_exp,2022.2.2,Win32,60.0240096,,,,,,,,,,,,,,,,,,masks/mask_002.jpg,,,,,,,,,,,,,,,,,,,,,,,,,,,,,,,,,,,,,,,,,,,0,1,1,1,1,,,,,,,,,,,,,,,,,,,,,,,,,,,,,,,,,,,,,,,,,,,,,,
311626,001,2022-11-20_17h53.33.932,Info_measure_main_exp,2022.2.2,Win32,60.0240096,,,,,,,,,,,,,,,,,,masks/mask_003.jpg,,,,,,,,,,,,,,,,,,,,,,,,,,,,,,,,,,,,,,,,,,,0,2,2,2,1,,,,,,,,,,,,,,,,,,,,,,,,,,,,,,,,,,,,,,,,,,,,,,
311626,001,2022-11-20_17h53.33.932,Info_measure_main_exp,2022.2.2,Win32,60.0240096,,,,,,,,,,,,,,,,,,masks/mask_004.jpg,,,,,,,,,,,,,,,,,,,,,,,,,,,,,,,,,,,,,,,,,,,0,3,3,3,1,,,,,,,,,,,,,,,,,,,,,,,,,,,,,,,,,,,,,,,,,,,,,,
311626,001,2022-11-20_17h53.33.932,Info_measure_main_exp,2022.2.2,Win32,60.0240096,,,,,,,,,,,,,,,,,,masks/mask_005.jpg,,,,,,,,,,,,,,,,,,,,,,,,,,,,,,,,,,,,,,,,,,,0,4,4,4,1,,,,,,,,,,,,,,,,,,,,,,,,,,,,,,,,,,,,,,,,,,,,,,
311626,001,2022-11-20_17h53.33.932,Info_measure_main_exp,2022.2.2,Win32,60.0240096,,,,,,,,,,,,,,,,,,masks/mask_004.jpg,,,,,,,,,,,,,,,,,,,,,,,,,,,,,,,,,,,,,,,,,,,,,,,,0,0,0,3,1,,,,,,,,,,,,,,,,,,,,,,,,,,,,,,,,,,,,,,,,,
311626,001,2022-11-20_17h53.33.932,Info_measure_main_exp,2022.2.2,Win32,60.0240096,,,,,,,,,,,,,,,,,,masks/mask_002.jpg,,,,,,,,,,,,,,,,,,,,,,,,,,,,,,,,,,,,,,,,,,,,,,,,0,1,1,1,1,,,,,,,,,,,,,,,,,,,,,,,,,,,,,,,,,,,,,,,,,
311626,001,2022-11-20_17h53.33.932,Info_measure_main_exp,2022.2.2,Win32,60.0240096,,,,,,,,,,,,,,,,,,masks/mask_003.jpg,,,,,,,,,,,,,,,,,,,,,,,,,,,,,,,,,,,,,,,,,,,,,,,,0,2,2,2,1,,,,,,,,,,,,,,,,,,,,,,,,,,,,,,,,,,,,,,,,,
311626,001,2022-11-20_17h53.33.932,Info_measure_main_exp,2022.2.2,Win32,60.0240096,,,,,,,,,,,,,,,,,,masks/mask_001.jpg,,,,,,,,,,,,,,,,,,,,,,,,,,,,,,,,,,,,,,,,,,,,,,,,0,3,3,0,1,,,,,,,,,,,,,,,,,,,,,,,,,,,,,,,,,,,,,,,,,
311626,001,2022-11-20_17h53.33.932,Info_measure_main_exp,2022.2.2,Win32,60.0240096,,,,,,,,,,,,,,,,,,masks/mask_005.jpg,,,,,,,,,,,,,,,,,,,,,,,,,,,,,,,,,,,,,,,,,,,,,,,,0,4,4,4,1,,,,,,,,,,,,,,,,,,,,,,,,,,,,,,,,,,,,,,,,,
311626,001,2022-11-20_17h53.33.932,Info_measure_main_exp,2022.2.2,Win32,60.0240096,,,,,,,,,,,,,,,,,,,,,,,,,,,,,,7,0.603,1,,,,,,,,,,,,0,131,5,5,2154,2214,absent_patch/patch0002154.jpg,absent_patch/patch0002214.jpg,,,,,,,,,,,,,,,,,,,,0.07421875,0.1484375,1,0,0,response1disk,35,0.009114583,-0.002604167,1,0,0,center_square,0,34,34,67,1,,,,,,,,,,,,,,,,,,,,,,,
