participant,session,date,expName,psychopyVersion,OS,frameRate,space_press_continue.keys,space_press_continue.rt,space_press_continue_2.keys,space_press_continue_2.rt,space_press_continue_3.keys,space_press_continue_3.rt,space_press_continue_4.keys,space_press_continue_4.rt,space_press_continue_5.keys,space_press_continue_5.rt,space_press_continue_6.keys,space_press_continue_6.rt,prac_mask_loop_1.thisRepN,prac_mask_loop_1.thisTrialN,prac_mask_loop_1.thisN,prac_mask_loop_1.thisIndex,prac_mask_loop_1.ran,mask_name,prac_mask_loop_2.thisRepN,prac_mask_loop_2.thisTrialN,prac_mask_loop_2.thisN,prac_mask_loop_2.thisIndex,prac_mask_loop_2.ran,mouse_2.x,mouse_2.y,mouse_2.leftButton,mouse_2.midButton,mouse_2.rightButton,mouse_2.clicked_name,similarity,response_time,Pass,mouse_12.x,mouse_12.y,mouse_12.leftButton,mouse_12.midButton,mouse_12.rightButton,mouse_12.clicked_name,prac_loop.thisRepN,prac_loop.thisTrialN,prac_loop.thisN,prac_loop.thisIndex,prac_loop.ran,Pair_type,Image_num,Patch_1_loc,Patch_2_loc,Patch_1_info,Patch_2_info,Patch_1_name,Patch_2_name,mouse_1.x,mouse_1.y,mouse_1.leftButton,mouse_1.midButton,mouse_1.rightButton,mouse_1.time,mouse_1.clicked_name,space_press_continue_7.keys,space_press_continue_7.rt,mask_loop.thisRepN,mask_loop.thisTrialN,mask_loop.thisN,mask_loop.thisIndex,mask_loop.ran,mask_loop_2.thisRepN,mask_loop_2.thisTrialN,mask_loop_2.thisN,mask_loop_2.thisIndex,mask_loop_2.ran,mouse.x,mouse.y,mouse.leftButton,mouse.midButton,mouse.rightButton,mouse.clicked_name,trialNumber,mouse_11.x,mouse_11.y,mouse_11.leftButton,mouse_11.midButton,mouse_11.rightButton,mouse_11.clicked_name,first_pass_loop.thisRepN,first_pass_loop.thisTrialN,first_pass_loop.thisN,first_pass_loop.thisIndex,first_pass_loop.ran,mask_loop_3.thisRepN,mask_loop_3.thisTrialN,mask_loop_3.thisN,mask_loop_3.thisIndex,mask_loop_3.ran,mask_loop_4.thisRepN,mask_loop_4.thisTrialN,mask_loop_4.thisN,mask_loop_4.thisIndex,mask_loop_4.ran,mouse_3.x,mouse_3.y,mouse_3.leftButton,mouse_3.midButton,mouse_3.rightButton,mouse_3.clicked_name,double_pass_loop.thisRepN,double_pass_loop.thisTrialN,double_pass_loop.thisN,double_pass_loop.thisIndex,double_pass_loop.ran,space_exit.keys,space_exit.rt
319382,001,2022-11-13_18h28.01.575,Info_measure_main_exp,2022.2.2,Win32,60.0348202,,,,,,,,,,,,,,,,,,,,,,,,,,,,,,,,,,,,,,,,,,,,,,,,,,,,,,,,,,,,,,,,,,,,,,,,,,,,,,,,,,,,,,,,,,,,,,,,,,,,,,,,,,,,,,,
319382,001,2022-11-13_18h28.01.575,Info_measure_main_exp,2022.2.2,Win32,60.0348202,,,,,,,,,,,,,,,,,,,,,,,,,,,,,,,,,,,,,,,,,,,,,,,,,,,,,,,,,,,,,,,,,,,,,,,,,,,,,,,,,,,,,,,,,,,,,,,,,,,,,,,,,,,,,,,
319382,001,2022-11-13_18h28.01.575,Info_measure_main_exp,2022.2.2,Win32,60.0348202,space,6.1845,,,,,,,,,,,,,,,,,,,,,,,,,,,,,,,,,,,,,,,,,,,,,,,,,,,,,,,,,,,,,,,,,,,,,,,,,,,,,,,,,,,,,,,,,,,,,,,,,,,,,,,,,,,,,
319382,001,2022-11-13_18h28.01.575,Info_measure_main_exp,2022.2.2,Win32,60.0348202,,,space,10.184,,,,,,,,,,,,,,,,,,,,,,,,,,,,,,,,,,,,,,,,,,,,,,,,,,,,,,,,,,,,,,,,,,,,,,,,,,,,,,,,,,,,,,,,,,,,,,,,,,,,,,,,,,,
319382,001,2022-11-13_18h28.01.575,Info_measure_main_exp,2022.2.2,Win32,60.0348202,,,,,space,21.9999,,,,,,,,,,,,,,,,,,,,,,,,,,,,,,,,,,,,,,,,,,,,,,,,,,,,,,,,,,,,,,,,,,,,,,,,,,,,,,,,,,,,,,,,,,,,,,,,,,,,,,,,,
319382,001,2022-11-13_18h28.01.575,Info_measure_main_exp,2022.2.2,Win32,60.0348202,,,,,,,space,16.2796,,,,,,,,,,,,,,,,,,,,,,,,,,,,,,,,,,,,,,,,,,,,,,,,,,,,,,,,,,,,,,,,,,,,,,,,,,,,,,,,,,,,,,,,,,,,,,,,,,,,,,,
319382,001,2022-11-13_18h28.01.575,Info_measure_main_exp,2022.2.2,Win32,60.0348202,,,,,,,,,space,3.6774,,,,,,,,,,,,,,,,,,,,,,,,,,,,,,,,,,,,,,,,,,,,,,,,,,,,,,,,,,,,,,,,,,,,,,,,,,,,,,,,,,,,,,,,,,,,,,,,,,,,,
319382,001,2022-11-13_18h28.01.575,Info_measure_main_exp,2022.2.2,Win32,60.0348202,,,,,,,,,,,space,4.694,,,,,,,,,,,,,,,,,,,,,,,,,,,,,,,,,,,,,,,,,,,,,,,,,,,,,,,,,,,,,,,,,,,,,,,,,,,,,,,,,,,,,,,,,,,,,,,,,,,
319382,001,2022-11-13_18h28.01.575,Info_measure_main_exp,2022.2.2,Win32,60.0348202,,,,,,,,,,,,,0,0,0,1,1,masks/mask_002.jpg,,,,,,,,,,,,,,,,,,,,,,,,,,,,,,,,,,,,,,,,,,,,,,,,,,,,,,,,,,,,,,,,,,,,,,,,,,,,,,,,,,,,,,,,,,,,,
319382,001,2022-11-13_18h28.01.575,Info_measure_main_exp,2022.2.2,Win32,60.0348202,,,,,,,,,,,,,0,1,1,2,1,masks/mask_003.jpg,,,,,,,,,,,,,,,,,,,,,,,,,,,,,,,,,,,,,,,,,,,,,,,,,,,,,,,,,,,,,,,,,,,,,,,,,,,,,,,,,,,,,,,,,,,,,
319382,001,2022-11-13_18h28.01.575,Info_measure_main_exp,2022.2.2,Win32,60.0348202,,,,,,,,,,,,,0,2,2,3,1,masks/mask_004.jpg,,,,,,,,,,,,,,,,,,,,,,,,,,,,,,,,,,,,,,,,,,,,,,,,,,,,,,,,,,,,,,,,,,,,,,,,,,,,,,,,,,,,,,,,,,,,,
319382,001,2022-11-13_18h28.01.575,Info_measure_main_exp,2022.2.2,Win32,60.0348202,,,,,,,,,,,,,0,3,3,4,1,masks/mask_005.jpg,,,,,,,,,,,,,,,,,,,,,,,,,,,,,,,,,,,,,,,,,,,,,,,,,,,,,,,,,,,,,,,,,,,,,,,,,,,,,,,,,,,,,,,,,,,,,
319382,001,2022-11-13_18h28.01.575,Info_measure_main_exp,2022.2.2,Win32,60.0348202,,,,,,,,,,,,,0,4,4,0,1,masks/mask_001.jpg,,,,,,,,,,,,,,,,,,,,,,,,,,,,,,,,,,,,,,,,,,,,,,,,,,,,,,,,,,,,,,,,,,,,,,,,,,,,,,,,,,,,,,,,,,,,,
319382,001,2022-11-13_18h28.01.575,Info_measure_main_exp,2022.2.2,Win32,60.0348202,,,,,,,,,,,,,,,,,,masks/mask_003.jpg,0,0,0,2,1,,,,,,,,,,,,,,,,,,,,,,,,,,,,,,,,,,,,,,,,,,,,,,,,,,,,,,,,,,,,,,,,,,,,,,,,,,,,,,,,,,,,,,,,
319382,001,2022-11-13_18h28.01.575,Info_measure_main_exp,2022.2.2,Win32,60.0348202,,,,,,,,,,,,,,,,,,masks/mask_004.jpg,0,1,1,3,1,,,,,,,,,,,,,,,,,,,,,,,,,,,,,,,,,,,,,,,,,,,,,,,,,,,,,,,,,,,,,,,,,,,,,,,,,,,,,,,,,,,,,,,,
319382,001,2022-11-13_18h28.01.575,Info_measure_main_exp,2022.2.2,Win32,60.0348202,,,,,,,,,,,,,,,,,,masks/mask_001.jpg,0,2,2,0,1,,,,,,,,,,,,,,,,,,,,,,,,,,,,,,,,,,,,,,,,,,,,,,,,,,,,,,,,,,,,,,,,,,,,,,,,,,,,,,,,,,,,,,,,
319382,001,2022-11-13_18h28.01.575,Info_measure_main_exp,2022.2.2,Win32,60.0348202,,,,,,,,,,,,,,,,,,masks/mask_005.jpg,0,3,3,4,1,,,,,,,,,,,,,,,,,,,,,,,,,,,,,,,,,,,,,,,,,,,,,,,,,,,,,,,,,,,,,,,,,,,,,,,,,,,,,,,,,,,,,,,,
319382,001,2022-11-13_18h28.01.575,Info_measure_main_exp,2022.2.2,Win32,60.0348202,,,,,,,,,,,,,,,,,,masks/mask_002.jpg,0,4,4,1,1,,,,,,,,,,,,,,,,,,,,,,,,,,,,,,,,,,,,,,,,,,,,,,,,,,,,,,,,,,,,,,,,,,,,,,,,,,,,,,,,,,,,,,,,
319382,001,2022-11-13_18h28.01.575,Info_measure_main_exp,2022.2.2,Win32,60.0348202,,,,,,,,,,,,,,,,,,,,,,,,0.062037037,0.143518519,1,0,0,response1disk,7,70.6706,1,-0.002777778,0.005555556,1,0,0,center_square,0,0,0,0,1,0,131,5,5,2370,2406,prac_patch/patch0002370.jpg,prac_patch/patch0002406.jpg,,,,,,,,,,,,,,,,,,,,,,,,,,,,,,,,,,,,,,,,,,,,,,,,,,,,,,,,,,,,
319382,001,2022-11-13_18h28.01.575,Info_measure_main_exp,2022.2.2,Win32,60.0348202,,,,,,,,,,,,,0,0,0,1,1,masks/mask_002.jpg,,,,,,,,,,,,,,,,,,,,,,,,,,,,,,,,,,,,,,,,,,,,,,,,,,,,,,,,,,,,,,,,,,,,,,,,,,,,,,,,,,,,,,,,,,,,,
319382,001,2022-11-13_18h28.01.575,Info_measure_main_exp,2022.2.2,Win32,60.0348202,,,,,,,,,,,,,0,1,1,0,1,masks/mask_001.jpg,,,,,,,,,,,,,,,,,,,,,,,,,,,,,,,,,,,,,,,,,,,,,,,,,,,,,,,,,,,,,,,,,,,,,,,,,,,,,,,,,,,,,,,,,,,,,
319382,001,2022-11-13_18h28.01.575,Info_measure_main_exp,2022.2.2,Win32,60.0348202,,,,,,,,,,,,,0,2,2,4,1,masks/mask_005.jpg,,,,,,,,,,,,,,,,,,,,,,,,,,,,,,,,,,,,,,,,,,,,,,,,,,,,,,,,,,,,,,,,,,,,,,,,,,,,,,,,,,,,,,,,,,,,,
319382,001,2022-11-13_18h28.01.575,Info_measure_main_exp,2022.2.2,Win32,60.0348202,,,,,,,,,,,,,0,3,3,2,1,masks/mask_003.jpg,,,,,,,,,,,,,,,,,,,,,,,,,,,,,,,,,,,,,,,,,,,,,,,,,,,,,,,,,,,,,,,,,,,,,,,,,,,,,,,,,,,,,,,,,,,,,
319382,001,2022-11-13_18h28.01.575,Info_measure_main_exp,2022.2.2,Win32,60.0348202,,,,,,,,,,,,,0,4,4,3,1,masks/mask_004.jpg,,,,,,,,,,,,,,,,,,,,,,,,,,,,,,,,,,,,,,,,,,,,,,,,,,,,,,,,,,,,,,,,,,,,,,,,,,,,,,,,,,,,,,,,,,,,,
319382,001,2022-11-13_18h28.01.575,Info_measure_main_exp,2022.2.2,Win32,60.0348202,,,,,,,,,,,,,,,,,,masks/mask_004.jpg,0,0,0,3,1,,,,,,,,,,,,,,,,,,,,,,,,,,,,,,,,,,,,,,,,,,,,,,,,,,,,,,,,,,,,,,,,,,,,,,,,,,,,,,,,,,,,,,,,
319382,001,2022-11-13_18h28.01.575,Info_measure_main_exp,2022.2.2,Win32,60.0348202,,,,,,,,,,,,,,,,,,masks/mask_003.jpg,0,1,1,2,1,,,,,,,,,,,,,,,,,,,,,,,,,,,,,,,,,,,,,,,,,,,,,,,,,,,,,,,,,,,,,,,,,,,,,,,,,,,,,,,,,,,,,,,,
319382,001,2022-11-13_18h28.01.575,Info_measure_main_exp,2022.2.2,Win32,60.0348202,,,,,,,,,,,,,,,,,,masks/mask_002.jpg,0,2,2,1,1,,,,,,,,,,,,,,,,,,,,,,,,,,,,,,,,,,,,,,,,,,,,,,,,,,,,,,,,,,,,,,,,,,,,,,,,,,,,,,,,,,,,,,,,
319382,001,2022-11-13_18h28.01.575,Info_measure_main_exp,2022.2.2,Win32,60.0348202,,,,,,,,,,,,,,,,,,masks/mask_005.jpg,0,3,3,4,1,,,,,,,,,,,,,,,,,,,,,,,,,,,,,,,,,,,,,,,,,,,,,,,,,,,,,,,,,,,,,,,,,,,,,,,,,,,,,,,,,,,,,,,,
319382,001,2022-11-13_18h28.01.575,Info_measure_main_exp,2022.2.2,Win32,60.0348202,,,,,,,,,,,,,,,,,,masks/mask_001.jpg,0,4,4,0,1,,,,,,,,,,,,,,,,,,,,,,,,,,,,,,,,,,,,,,,,,,,,,,,,,,,,,,,,,,,,,,,,,,,,,,,,,,,,,,,,,,,,,,,,
319382,001,2022-11-13_18h28.01.575,Info_measure_main_exp,2022.2.2,Win32,60.0348202,,,,,,,,,,,,,,,,,,,,,,,,0.090740741,-0.112962963,1,0,0,response3disk,4,84.6255,1,-0.007407407,0.008333333,1,0,0,center_square,0,1,1,2,1,0,131,5,5,2526,2526,prac_patch/patch0002526.jpg,prac_patch/patch0002526.jpg,,,,,,,,,,,,,,,,,,,,,,,,,,,,,,,,,,,,,,,,,,,,,,,,,,,,,,,,,,,,
319382,001,2022-11-13_18h28.01.575,Info_measure_main_exp,2022.2.2,Win32,60.0348202,,,,,,,,,,,,,0,0,0,4,1,masks/mask_005.jpg,,,,,,,,,,,,,,,,,,,,,,,,,,,,,,,,,,,,,,,,,,,,,,,,,,,,,,,,,,,,,,,,,,,,,,,,,,,,,,,,,,,,,,,,,,,,,
319382,001,2022-11-13_18h28.01.575,Info_measure_main_exp,2022.2.2,Win32,60.0348202,,,,,,,,,,,,,0,1,1,3,1,masks/mask_004.jpg,,,,,,,,,,,,,,,,,,,,,,,,,,,,,,,,,,,,,,,,,,,,,,,,,,,,,,,,,,,,,,,,,,,,,,,,,,,,,,,,,,,,,,,,,,,,,
319382,001,2022-11-13_18h28.01.575,Info_measure_main_exp,2022.2.2,Win32,60.0348202,,,,,,,,,,,,,0,2,2,1,1,masks/mask_002.jpg,,,,,,,,,,,,,,,,,,,,,,,,,,,,,,,,,,,,,,,,,,,,,,,,,,,,,,,,,,,,,,,,,,,,,,,,,,,,,,,,,,,,,,,,,,,,,
319382,001,2022-11-13_18h28.01.575,Info_measure_main_exp,2022.2.2,Win32,60.0348202,,,,,,,,,,,,,0,3,3,0,1,masks/mask_001.jpg,,,,,,,,,,,,,,,,,,,,,,,,,,,,,,,,,,,,,,,,,,,,,,,,,,,,,,,,,,,,,,,,,,,,,,,,,,,,,,,,,,,,,,,,,,,,,
319382,001,2022-11-13_18h28.01.575,Info_measure_main_exp,2022.2.2,Win32,60.0348202,,,,,,,,,,,,,0,4,4,2,1,masks/mask_003.jpg,,,,,,,,,,,,,,,,,,,,,,,,,,,,,,,,,,,,,,,,,,,,,,,,,,,,,,,,,,,,,,,,,,,,,,,,,,,,,,,,,,,,,,,,,,,,,
319382,001,2022-11-13_18h28.01.575,Info_measure_main_exp,2022.2.2,Win32,60.0348202,,,,,,,,,,,,,,,,,,masks/mask_003.jpg,0,0,0,2,1,,,,,,,,,,,,,,,,,,,,,,,,,,,,,,,,,,,,,,,,,,,,,,,,,,,,,,,,,,,,,,,,,,,,,,,,,,,,,,,,,,,,,,,,
319382,001,2022-11-13_18h28.01.575,Info_measure_main_exp,2022.2.2,Win32,60.0348202,,,,,,,,,,,,,,,,,,masks/mask_002.jpg,0,1,1,1,1,,,,,,,,,,,,,,,,,,,,,,,,,,,,,,,,,,,,,,,,,,,,,,,,,,,,,,,,,,,,,,,,,,,,,,,,,,,,,,,,,,,,,,,,
319382,001,2022-11-13_18h28.01.575,Info_measure_main_exp,2022.2.2,Win32,60.0348202,,,,,,,,,,,,,,,,,,masks/mask_001.jpg,0,2,2,0,1,,,,,,,,,,,,,,,,,,,,,,,,,,,,,,,,,,,,,,,,,,,,,,,,,,,,,,,,,,,,,,,,,,,,,,,,,,,,,,,,,,,,,,,,
319382,001,2022-11-13_18h28.01.575,Info_measure_main_exp,2022.2.2,Win32,60.0348202,,,,,,,,,,,,,,,,,,masks/mask_005.jpg,0,3,3,4,1,,,,,,,,,,,,,,,,,,,,,,,,,,,,,,,,,,,,,,,,,,,,,,,,,,,,,,,,,,,,,,,,,,,,,,,,,,,,,,,,,,,,,,,,
319382,001,2022-11-13_18h28.01.575,Info_measure_main_exp,2022.2.2,Win32,60.0348202,,,,,,,,,,,,,,,,,,masks/mask_004.jpg,0,4,4,3,1,,,,,,,,,,,,,,,,,,,,,,,,,,,,,,,,,,,,,,,,,,,,,,,,,,,,,,,,,,,,,,,,,,,,,,,,,,,,,,,,,,,,,,,,
319382,001,2022-11-13_18h28.01.575,Info_measure_main_exp,2022.2.2,Win32,60.0348202,,,,,,,,,,,,,,,,,,,,,,,,0.110185185,-0.064814815,1,0,0,response3disk,5,96.904,1,0.003703704,-0.008333333,1,0,0,center_square,0,2,2,1,1,0,131,5,5,2514,2490,prac_patch/patch0002514.jpg,prac_patch/patch0002490.jpg,,,,,,,,,,,,,,,,,,,,,,,,,,,,,,,,,,,,,,,,,,,,,,,,,,,,,,,,,,,,
319382,001,2022-11-13_18h28.01.575,Info_measure_main_exp,2022.2.2,Win32,60.0348202,,,,,,,,,,,,,,,,,,,,,,,,,,,,,,,,,,,,,,,,,,,,,,,,,,,,,,,,,,,space,1.4494,,,,,,,,,,,,,,,,,,,,,,,,,,,,,,,,,,,,,,,,,,,,,,,,,,,
319382,001,2022-11-13_18h28.01.575,Info_measure_main_exp,2022.2.2,Win32,60.0348202,,,,,,,,,,,,,,,,,,masks/mask_005.jpg,,,,,,,,,,,,,,,,,,,,,,,,,,,,,,,,,,,,,,,,,,,0,0,0,4,1,,,,,,,,,,,,,,,,,,,,,,,,,,,,,,,,,,,,,,,,,,,,,,
319382,001,2022-11-13_18h28.01.575,Info_measure_main_exp,2022.2.2,Win32,60.0348202,,,,,,,,,,,,,,,,,,masks/mask_002.jpg,,,,,,,,,,,,,,,,,,,,,,,,,,,,,,,,,,,,,,,,,,,0,1,1,1,1,,,,,,,,,,,,,,,,,,,,,,,,,,,,,,,,,,,,,,,,,,,,,,
319382,001,2022-11-13_18h28.01.575,Info_measure_main_exp,2022.2.2,Win32,60.0348202,,,,,,,,,,,,,,,,,,masks/mask_004.jpg,,,,,,,,,,,,,,,,,,,,,,,,,,,,,,,,,,,,,,,,,,,0,2,2,3,1,,,,,,,,,,,,,,,,,,,,,,,,,,,,,,,,,,,,,,,,,,,,,,
319382,001,2022-11-13_18h28.01.575,Info_measure_main_exp,2022.2.2,Win32,60.0348202,,,,,,,,,,,,,,,,,,masks/mask_001.jpg,,,,,,,,,,,,,,,,,,,,,,,,,,,,,,,,,,,,,,,,,,,0,3,3,0,1,,,,,,,,,,,,,,,,,,,,,,,,,,,,,,,,,,,,,,,,,,,,,,
319382,001,2022-11-13_18h28.01.575,Info_measure_main_exp,2022.2.2,Win32,60.0348202,,,,,,,,,,,,,,,,,,masks/mask_003.jpg,,,,,,,,,,,,,,,,,,,,,,,,,,,,,,,,,,,,,,,,,,,0,4,4,2,1,,,,,,,,,,,,,,,,,,,,,,,,,,,,,,,,,,,,,,,,,,,,,,
319382,001,2022-11-13_18h28.01.575,Info_measure_main_exp,2022.2.2,Win32,60.0348202,,,,,,,,,,,,,,,,,,masks/mask_001.jpg,,,,,,,,,,,,,,,,,,,,,,,,,,,,,,,,,,,,,,,,,,,,,,,,0,0,0,0,1,,,,,,,,,,,,,,,,,,,,,,,,,,,,,,,,,,,,,,,,,
319382,001,2022-11-13_18h28.01.575,Info_measure_main_exp,2022.2.2,Win32,60.0348202,,,,,,,,,,,,,,,,,,masks/mask_003.jpg,,,,,,,,,,,,,,,,,,,,,,,,,,,,,,,,,,,,,,,,,,,,,,,,0,1,1,2,1,,,,,,,,,,,,,,,,,,,,,,,,,,,,,,,,,,,,,,,,,
319382,001,2022-11-13_18h28.01.575,Info_measure_main_exp,2022.2.2,Win32,60.0348202,,,,,,,,,,,,,,,,,,masks/mask_004.jpg,,,,,,,,,,,,,,,,,,,,,,,,,,,,,,,,,,,,,,,,,,,,,,,,0,2,2,3,1,,,,,,,,,,,,,,,,,,,,,,,,,,,,,,,,,,,,,,,,,
319382,001,2022-11-13_18h28.01.575,Info_measure_main_exp,2022.2.2,Win32,60.0348202,,,,,,,,,,,,,,,,,,masks/mask_005.jpg,,,,,,,,,,,,,,,,,,,,,,,,,,,,,,,,,,,,,,,,,,,,,,,,0,3,3,4,1,,,,,,,,,,,,,,,,,,,,,,,,,,,,,,,,,,,,,,,,,
319382,001,2022-11-13_18h28.01.575,Info_measure_main_exp,2022.2.2,Win32,60.0348202,,,,,,,,,,,,,,,,,,masks/mask_002.jpg,,,,,,,,,,,,,,,,,,,,,,,,,,,,,,,,,,,,,,,,,,,,,,,,0,4,4,1,1,,,,,,,,,,,,,,,,,,,,,,,,,,,,,,,,,,,,,,,,,
319382,001,2022-11-13_18h28.01.575,Info_measure_main_exp,2022.2.2,Win32,60.0348202,,,,,,,,,,,,,,,,,,,,,,,,,,,,,,7,0.9239,1,,,,,,,,,,,,0,131,5,5,1950,2214,absent_patch/patch0001950.jpg,absent_patch/patch0002214.jpg,,,,,,,,,,,,,,,,,,,,0.050925926,0.168518519,1,0,0,response1disk,1,0.011111111,0.00462963,1,0,0,center_square,0,0,0,85,1,,,,,,,,,,,,,,,,,,,,,,,
319382,001,2022-11-13_18h28.01.575,Info_measure_main_exp,2022.2.2,Win32,60.0348202,,,,,,,,,,,,,,,,,,masks/mask_002.jpg,,,,,,,,,,,,,,,,,,,,,,,,,,,,,,,,,,,,,,,,,,,0,0,0,1,1,,,,,,,,,,,,,,,,,,,,,,,,,,,,,,,,,,,,,,,,,,,,,,
319382,001,2022-11-13_18h28.01.575,Info_measure_main_exp,2022.2.2,Win32,60.0348202,,,,,,,,,,,,,,,,,,masks/mask_003.jpg,,,,,,,,,,,,,,,,,,,,,,,,,,,,,,,,,,,,,,,,,,,0,1,1,2,1,,,,,,,,,,,,,,,,,,,,,,,,,,,,,,,,,,,,,,,,,,,,,,
319382,001,2022-11-13_18h28.01.575,Info_measure_main_exp,2022.2.2,Win32,60.0348202,,,,,,,,,,,,,,,,,,masks/mask_004.jpg,,,,,,,,,,,,,,,,,,,,,,,,,,,,,,,,,,,,,,,,,,,0,2,2,3,1,,,,,,,,,,,,,,,,,,,,,,,,,,,,,,,,,,,,,,,,,,,,,,
319382,001,2022-11-13_18h28.01.575,Info_measure_main_exp,2022.2.2,Win32,60.0348202,,,,,,,,,,,,,,,,,,masks/mask_001.jpg,,,,,,,,,,,,,,,,,,,,,,,,,,,,,,,,,,,,,,,,,,,0,3,3,0,1,,,,,,,,,,,,,,,,,,,,,,,,,,,,,,,,,,,,,,,,,,,,,,
319382,001,2022-11-13_18h28.01.575,Info_measure_main_exp,2022.2.2,Win32,60.0348202,,,,,,,,,,,,,,,,,,masks/mask_005.jpg,,,,,,,,,,,,,,,,,,,,,,,,,,,,,,,,,,,,,,,,,,,0,4,4,4,1,,,,,,,,,,,,,,,,,,,,,,,,,,,,,,,,,,,,,,,,,,,,,,
319382,001,2022-11-13_18h28.01.575,Info_measure_main_exp,2022.2.2,Win32,60.0348202,,,,,,,,,,,,,,,,,,masks/mask_001.jpg,,,,,,,,,,,,,,,,,,,,,,,,,,,,,,,,,,,,,,,,,,,,,,,,0,0,0,0,1,,,,,,,,,,,,,,,,,,,,,,,,,,,,,,,,,,,,,,,,,
319382,001,2022-11-13_18h28.01.575,Info_measure_main_exp,2022.2.2,Win32,60.0348202,,,,,,,,,,,,,,,,,,masks/mask_005.jpg,,,,,,,,,,,,,,,,,,,,,,,,,,,,,,,,,,,,,,,,,,,,,,,,0,1,1,4,1,,,,,,,,,,,,,,,,,,,,,,,,,,,,,,,,,,,,,,,,,
319382,001,2022-11-13_18h28.01.575,Info_measure_main_exp,2022.2.2,Win32,60.0348202,,,,,,,,,,,,,,,,,,masks/mask_002.jpg,,,,,,,,,,,,,,,,,,,,,,,,,,,,,,,,,,,,,,,,,,,,,,,,0,2,2,1,1,,,,,,,,,,,,,,,,,,,,,,,,,,,,,,,,,,,,,,,,,
319382,001,2022-11-13_18h28.01.575,Info_measure_main_exp,2022.2.2,Win32,60.0348202,,,,,,,,,,,,,,,,,,masks/mask_003.jpg,,,,,,,,,,,,,,,,,,,,,,,,,,,,,,,,,,,,,,,,,,,,,,,,0,3,3,2,1,,,,,,,,,,,,,,,,,,,,,,,,,,,,,,,,,,,,,,,,,
319382,001,2022-11-13_18h28.01.575,Info_measure_main_exp,2022.2.2,Win32,60.0348202,,,,,,,,,,,,,,,,,,masks/mask_004.jpg,,,,,,,,,,,,,,,,,,,,,,,,,,,,,,,,,,,,,,,,,,,,,,,,0,4,4,3,1,,,,,,,,,,,,,,,,,,,,,,,,,,,,,,,,,,,,,,,,,
319382,001,2022-11-13_18h28.01.575,Info_measure_main_exp,2022.2.2,Win32,60.0348202,,,,,,,,,,,,,,,,,,,,,,,,,,,,,,7,0.6418,1,,,,,,,,,,,,0,131,5,5,1986,1950,absent_patch/patch0001986.jpg,absent_patch/patch0001950.jpg,,,,,,,,,,,,,,,,,,,,0.075,0.162962963,1,0,0,response1disk,2,-0.002777778,0.006481481,1,0,0,center_square,0,1,1,15,1,,,,,,,,,,,,,,,,,,,,,,,
319382,001,2022-11-13_18h28.01.575,Info_measure_main_exp,2022.2.2,Win32,60.0348202,,,,,,,,,,,,,,,,,,masks/mask_002.jpg,,,,,,,,,,,,,,,,,,,,,,,,,,,,,,,,,,,,,,,,,,,0,0,0,1,1,,,,,,,,,,,,,,,,,,,,,,,,,,,,,,,,,,,,,,,,,,,,,,
319382,001,2022-11-13_18h28.01.575,Info_measure_main_exp,2022.2.2,Win32,60.0348202,,,,,,,,,,,,,,,,,,masks/mask_004.jpg,,,,,,,,,,,,,,,,,,,,,,,,,,,,,,,,,,,,,,,,,,,0,1,1,3,1,,,,,,,,,,,,,,,,,,,,,,,,,,,,,,,,,,,,,,,,,,,,,,
319382,001,2022-11-13_18h28.01.575,Info_measure_main_exp,2022.2.2,Win32,60.0348202,,,,,,,,,,,,,,,,,,masks/mask_001.jpg,,,,,,,,,,,,,,,,,,,,,,,,,,,,,,,,,,,,,,,,,,,0,2,2,0,1,,,,,,,,,,,,,,,,,,,,,,,,,,,,,,,,,,,,,,,,,,,,,,
319382,001,2022-11-13_18h28.01.575,Info_measure_main_exp,2022.2.2,Win32,60.0348202,,,,,,,,,,,,,,,,,,masks/mask_003.jpg,,,,,,,,,,,,,,,,,,,,,,,,,,,,,,,,,,,,,,,,,,,0,3,3,2,1,,,,,,,,,,,,,,,,,,,,,,,,,,,,,,,,,,,,,,,,,,,,,,
319382,001,2022-11-13_18h28.01.575,Info_measure_main_exp,2022.2.2,Win32,60.0348202,,,,,,,,,,,,,,,,,,masks/mask_005.jpg,,,,,,,,,,,,,,,,,,,,,,,,,,,,,,,,,,,,,,,,,,,0,4,4,4,1,,,,,,,,,,,,,,,,,,,,,,,,,,,,,,,,,,,,,,,,,,,,,,
319382,001,2022-11-13_18h28.01.575,Info_measure_main_exp,2022.2.2,Win32,60.0348202,,,,,,,,,,,,,,,,,,masks/mask_001.jpg,,,,,,,,,,,,,,,,,,,,,,,,,,,,,,,,,,,,,,,,,,,,,,,,0,0,0,0,1,,,,,,,,,,,,,,,,,,,,,,,,,,,,,,,,,,,,,,,,,
319382,001,2022-11-13_18h28.01.575,Info_measure_main_exp,2022.2.2,Win32,60.0348202,,,,,,,,,,,,,,,,,,masks/mask_003.jpg,,,,,,,,,,,,,,,,,,,,,,,,,,,,,,,,,,,,,,,,,,,,,,,,0,1,1,2,1,,,,,,,,,,,,,,,,,,,,,,,,,,,,,,,,,,,,,,,,,
319382,001,2022-11-13_18h28.01.575,Info_measure_main_exp,2022.2.2,Win32,60.0348202,,,,,,,,,,,,,,,,,,masks/mask_005.jpg,,,,,,,,,,,,,,,,,,,,,,,,,,,,,,,,,,,,,,,,,,,,,,,,0,2,2,4,1,,,,,,,,,,,,,,,,,,,,,,,,,,,,,,,,,,,,,,,,,
319382,001,2022-11-13_18h28.01.575,Info_measure_main_exp,2022.2.2,Win32,60.0348202,,,,,,,,,,,,,,,,,,masks/mask_004.jpg,,,,,,,,,,,,,,,,,,,,,,,,,,,,,,,,,,,,,,,,,,,,,,,,0,3,3,3,1,,,,,,,,,,,,,,,,,,,,,,,,,,,,,,,,,,,,,,,,,
319382,001,2022-11-13_18h28.01.575,Info_measure_main_exp,2022.2.2,Win32,60.0348202,,,,,,,,,,,,,,,,,,masks/mask_002.jpg,,,,,,,,,,,,,,,,,,,,,,,,,,,,,,,,,,,,,,,,,,,,,,,,0,4,4,1,1,,,,,,,,,,,,,,,,,,,,,,,,,,,,,,,,,,,,,,,,,
319382,001,2022-11-13_18h28.01.575,Info_measure_main_exp,2022.2.2,Win32,60.0348202,,,,,,,,,,,,,,,,,,,,,,,,,,,,,,1,1.4102,1,,,,,,,,,,,,0,131,5,5,2082,2082,absent_patch/patch0002082.jpg,absent_patch/patch0002082.jpg,,,,,,,,,,,,,,,,,,,,-0.14537037,0.044444444,1,0,0,response7disk,3,-0.001851852,-0.006481481,1,0,0,center_square,0,2,2,74,1,,,,,,,,,,,,,,,,,,,,,,,
319382,001,2022-11-13_18h28.01.575,Info_measure_main_exp,2022.2.2,Win32,60.0348202,,,,,,,,,,,,,,,,,,masks/mask_003.jpg,,,,,,,,,,,,,,,,,,,,,,,,,,,,,,,,,,,,,,,,,,,0,0,0,2,1,,,,,,,,,,,,,,,,,,,,,,,,,,,,,,,,,,,,,,,,,,,,,,
319382,001,2022-11-13_18h28.01.575,Info_measure_main_exp,2022.2.2,Win32,60.0348202,,,,,,,,,,,,,,,,,,masks/mask_002.jpg,,,,,,,,,,,,,,,,,,,,,,,,,,,,,,,,,,,,,,,,,,,0,1,1,1,1,,,,,,,,,,,,,,,,,,,,,,,,,,,,,,,,,,,,,,,,,,,,,,
319382,001,2022-11-13_18h28.01.575,Info_measure_main_exp,2022.2.2,Win32,60.0348202,,,,,,,,,,,,,,,,,,masks/mask_004.jpg,,,,,,,,,,,,,,,,,,,,,,,,,,,,,,,,,,,,,,,,,,,0,2,2,3,1,,,,,,,,,,,,,,,,,,,,,,,,,,,,,,,,,,,,,,,,,,,,,,
319382,001,2022-11-13_18h28.01.575,Info_measure_main_exp,2022.2.2,Win32,60.0348202,,,,,,,,,,,,,,,,,,masks/mask_005.jpg,,,,,,,,,,,,,,,,,,,,,,,,,,,,,,,,,,,,,,,,,,,0,3,3,4,1,,,,,,,,,,,,,,,,,,,,,,,,,,,,,,,,,,,,,,,,,,,,,,
319382,001,2022-11-13_18h28.01.575,Info_measure_main_exp,2022.2.2,Win32,60.0348202,,,,,,,,,,,,,,,,,,masks/mask_001.jpg,,,,,,,,,,,,,,,,,,,,,,,,,,,,,,,,,,,,,,,,,,,0,4,4,0,1,,,,,,,,,,,,,,,,,,,,,,,,,,,,,,,,,,,,,,,,,,,,,,
319382,001,2022-11-13_18h28.01.575,Info_measure_main_exp,2022.2.2,Win32,60.0348202,,,,,,,,,,,,,,,,,,masks/mask_003.jpg,,,,,,,,,,,,,,,,,,,,,,,,,,,,,,,,,,,,,,,,,,,,,,,,0,0,0,2,1,,,,,,,,,,,,,,,,,,,,,,,,,,,,,,,,,,,,,,,,,
319382,001,2022-11-13_18h28.01.575,Info_measure_main_exp,2022.2.2,Win32,60.0348202,,,,,,,,,,,,,,,,,,masks/mask_001.jpg,,,,,,,,,,,,,,,,,,,,,,,,,,,,,,,,,,,,,,,,,,,,,,,,0,1,1,0,1,,,,,,,,,,,,,,,,,,,,,,,,,,,,,,,,,,,,,,,,,
319382,001,2022-11-13_18h28.01.575,Info_measure_main_exp,2022.2.2,Win32,60.0348202,,,,,,,,,,,,,,,,,,masks/mask_005.jpg,,,,,,,,,,,,,,,,,,,,,,,,,,,,,,,,,,,,,,,,,,,,,,,,0,2,2,4,1,,,,,,,,,,,,,,,,,,,,,,,,,,,,,,,,,,,,,,,,,
319382,001,2022-11-13_18h28.01.575,Info_measure_main_exp,2022.2.2,Win32,60.0348202,,,,,,,,,,,,,,,,,,masks/mask_002.jpg,,,,,,,,,,,,,,,,,,,,,,,,,,,,,,,,,,,,,,,,,,,,,,,,0,3,3,1,1,,,,,,,,,,,,,,,,,,,,,,,,,,,,,,,,,,,,,,,,,
319382,001,2022-11-13_18h28.01.575,Info_measure_main_exp,2022.2.2,Win32,60.0348202,,,,,,,,,,,,,,,,,,masks/mask_004.jpg,,,,,,,,,,,,,,,,,,,,,,,,,,,,,,,,,,,,,,,,,,,,,,,,0,4,4,3,1,,,,,,,,,,,,,,,,,,,,,,,,,,,,,,,,,,,,,,,,,
319382,001,2022-11-13_18h28.01.575,Info_measure_main_exp,2022.2.2,Win32,60.0348202,,,,,,,,,,,,,,,,,,,,,,,,,,,,,,7,0.5011,1,,,,,,,,,,,,0,131,5,5,2274,2178,absent_patch/patch0002274.jpg,absent_patch/patch0002178.jpg,,,,,,,,,,,,,,,,,,,,0.078703704,0.157407407,1,0,0,response1disk,4,-0.002777778,0.008333333,1,0,0,center_square,0,3,3,117,1,,,,,,,,,,,,,,,,,,,,,,,
319382,001,2022-11-13_18h28.01.575,Info_measure_main_exp,2022.2.2,Win32,60.0348202,,,,,,,,,,,,,,,,,,masks/mask_004.jpg,,,,,,,,,,,,,,,,,,,,,,,,,,,,,,,,,,,,,,,,,,,0,0,0,3,1,,,,,,,,,,,,,,,,,,,,,,,,,,,,,,,,,,,,,,,,,,,,,,
319382,001,2022-11-13_18h28.01.575,Info_measure_main_exp,2022.2.2,Win32,60.0348202,,,,,,,,,,,,,,,,,,masks/mask_002.jpg,,,,,,,,,,,,,,,,,,,,,,,,,,,,,,,,,,,,,,,,,,,0,1,1,1,1,,,,,,,,,,,,,,,,,,,,,,,,,,,,,,,,,,,,,,,,,,,,,,
319382,001,2022-11-13_18h28.01.575,Info_measure_main_exp,2022.2.2,Win32,60.0348202,,,,,,,,,,,,,,,,,,masks/mask_005.jpg,,,,,,,,,,,,,,,,,,,,,,,,,,,,,,,,,,,,,,,,,,,0,2,2,4,1,,,,,,,,,,,,,,,,,,,,,,,,,,,,,,,,,,,,,,,,,,,,,,
319382,001,2022-11-13_18h28.01.575,Info_measure_main_exp,2022.2.2,Win32,60.0348202,,,,,,,,,,,,,,,,,,masks/mask_001.jpg,,,,,,,,,,,,,,,,,,,,,,,,,,,,,,,,,,,,,,,,,,,0,3,3,0,1,,,,,,,,,,,,,,,,,,,,,,,,,,,,,,,,,,,,,,,,,,,,,,
319382,001,2022-11-13_18h28.01.575,Info_measure_main_exp,2022.2.2,Win32,60.0348202,,,,,,,,,,,,,,,,,,masks/mask_003.jpg,,,,,,,,,,,,,,,,,,,,,,,,,,,,,,,,,,,,,,,,,,,0,4,4,2,1,,,,,,,,,,,,,,,,,,,,,,,,,,,,,,,,,,,,,,,,,,,,,,
319382,001,2022-11-13_18h28.01.575,Info_measure_main_exp,2022.2.2,Win32,60.0348202,,,,,,,,,,,,,,,,,,masks/mask_003.jpg,,,,,,,,,,,,,,,,,,,,,,,,,,,,,,,,,,,,,,,,,,,,,,,,0,0,0,2,1,,,,,,,,,,,,,,,,,,,,,,,,,,,,,,,,,,,,,,,,,
319382,001,2022-11-13_18h28.01.575,Info_measure_main_exp,2022.2.2,Win32,60.0348202,,,,,,,,,,,,,,,,,,masks/mask_001.jpg,,,,,,,,,,,,,,,,,,,,,,,,,,,,,,,,,,,,,,,,,,,,,,,,0,1,1,0,1,,,,,,,,,,,,,,,,,,,,,,,,,,,,,,,,,,,,,,,,,
319382,001,2022-11-13_18h28.01.575,Info_measure_main_exp,2022.2.2,Win32,60.0348202,,,,,,,,,,,,,,,,,,masks/mask_004.jpg,,,,,,,,,,,,,,,,,,,,,,,,,,,,,,,,,,,,,,,,,,,,,,,,0,2,2,3,1,,,,,,,,,,,,,,,,,,,,,,,,,,,,,,,,,,,,,,,,,
319382,001,2022-11-13_18h28.01.575,Info_measure_main_exp,2022.2.2,Win32,60.0348202,,,,,,,,,,,,,,,,,,masks/mask_002.jpg,,,,,,,,,,,,,,,,,,,,,,,,,,,,,,,,,,,,,,,,,,,,,,,,0,3,3,1,1,,,,,,,,,,,,,,,,,,,,,,,,,,,,,,,,,,,,,,,,,
319382,001,2022-11-13_18h28.01.575,Info_measure_main_exp,2022.2.2,Win32,60.0348202,,,,,,,,,,,,,,,,,,masks/mask_005.jpg,,,,,,,,,,,,,,,,,,,,,,,,,,,,,,,,,,,,,,,,,,,,,,,,0,4,4,4,1,,,,,,,,,,,,,,,,,,,,,,,,,,,,,,,,,,,,,,,,,
319382,001,2022-11-13_18h28.01.575,Info_measure_main_exp,2022.2.2,Win32,60.0348202,,,,,,,,,,,,,,,,,,,,,,,,,,,,,,7,0.6339,1,,,,,,,,,,,,0,131,5,5,2214,2178,absent_patch/patch0002214.jpg,absent_patch/patch0002178.jpg,,,,,,,,,,,,,,,,,,,,0.067592593,0.157407407,1,0,0,response1disk,5,0.005555556,0.00462963,1,0,0,center_square,0,4,4,62,1,,,,,,,,,,,,,,,,,,,,,,,
319382,001,2022-11-13_18h28.01.575,Info_measure_main_exp,2022.2.2,Win32,60.0348202,,,,,,,,,,,,,,,,,,masks/mask_005.jpg,,,,,,,,,,,,,,,,,,,,,,,,,,,,,,,,,,,,,,,,,,,0,0,0,4,1,,,,,,,,,,,,,,,,,,,,,,,,,,,,,,,,,,,,,,,,,,,,,,
319382,001,2022-11-13_18h28.01.575,Info_measure_main_exp,2022.2.2,Win32,60.0348202,,,,,,,,,,,,,,,,,,masks/mask_004.jpg,,,,,,,,,,,,,,,,,,,,,,,,,,,,,,,,,,,,,,,,,,,0,1,1,3,1,,,,,,,,,,,,,,,,,,,,,,,,,,,,,,,,,,,,,,,,,,,,,,
319382,001,2022-11-13_18h28.01.575,Info_measure_main_exp,2022.2.2,Win32,60.0348202,,,,,,,,,,,,,,,,,,masks/mask_003.jpg,,,,,,,,,,,,,,,,,,,,,,,,,,,,,,,,,,,,,,,,,,,0,2,2,2,1,,,,,,,,,,,,,,,,,,,,,,,,,,,,,,,,,,,,,,,,,,,,,,
319382,001,2022-11-13_18h28.01.575,Info_measure_main_exp,2022.2.2,Win32,60.0348202,,,,,,,,,,,,,,,,,,masks/mask_002.jpg,,,,,,,,,,,,,,,,,,,,,,,,,,,,,,,,,,,,,,,,,,,0,3,3,1,1,,,,,,,,,,,,,,,,,,,,,,,,,,,,,,,,,,,,,,,,,,,,,,
319382,001,2022-11-13_18h28.01.575,Info_measure_main_exp,2022.2.2,Win32,60.0348202,,,,,,,,,,,,,,,,,,masks/mask_001.jpg,,,,,,,,,,,,,,,,,,,,,,,,,,,,,,,,,,,,,,,,,,,0,4,4,0,1,,,,,,,,,,,,,,,,,,,,,,,,,,,,,,,,,,,,,,,,,,,,,,
319382,001,2022-11-13_18h28.01.575,Info_measure_main_exp,2022.2.2,Win32,60.0348202,,,,,,,,,,,,,,,,,,masks/mask_002.jpg,,,,,,,,,,,,,,,,,,,,,,,,,,,,,,,,,,,,,,,,,,,,,,,,0,0,0,1,1,,,,,,,,,,,,,,,,,,,,,,,,,,,,,,,,,,,,,,,,,
319382,001,2022-11-13_18h28.01.575,Info_measure_main_exp,2022.2.2,Win32,60.0348202,,,,,,,,,,,,,,,,,,masks/mask_005.jpg,,,,,,,,,,,,,,,,,,,,,,,,,,,,,,,,,,,,,,,,,,,,,,,,0,1,1,4,1,,,,,,,,,,,,,,,,,,,,,,,,,,,,,,,,,,,,,,,,,
319382,001,2022-11-13_18h28.01.575,Info_measure_main_exp,2022.2.2,Win32,60.0348202,,,,,,,,,,,,,,,,,,masks/mask_001.jpg,,,,,,,,,,,,,,,,,,,,,,,,,,,,,,,,,,,,,,,,,,,,,,,,0,2,2,0,1,,,,,,,,,,,,,,,,,,,,,,,,,,,,,,,,,,,,,,,,,
319382,001,2022-11-13_18h28.01.575,Info_measure_main_exp,2022.2.2,Win32,60.0348202,,,,,,,,,,,,,,,,,,masks/mask_004.jpg,,,,,,,,,,,,,,,,,,,,,,,,,,,,,,,,,,,,,,,,,,,,,,,,0,3,3,3,1,,,,,,,,,,,,,,,,,,,,,,,,,,,,,,,,,,,,,,,,,
319382,001,2022-11-13_18h28.01.575,Info_measure_main_exp,2022.2.2,Win32,60.0348202,,,,,,,,,,,,,,,,,,masks/mask_003.jpg,,,,,,,,,,,,,,,,,,,,,,,,,,,,,,,,,,,,,,,,,,,,,,,,0,4,4,2,1,,,,,,,,,,,,,,,,,,,,,,,,,,,,,,,,,,,,,,,,,
319382,001,2022-11-13_18h28.01.575,Info_measure_main_exp,2022.2.2,Win32,60.0348202,,,,,,,,,,,,,,,,,,,,,,,,,,,,,,7,0.4749,1,,,,,,,,,,,,0,131,5,5,1974,2238,absent_patch/patch0001974.jpg,absent_patch/patch0002238.jpg,,,,,,,,,,,,,,,,,,,,0.057407407,0.122222222,1,0,0,response1disk,6,-0.000925926,-0.002777778,1,0,0,center_square,0,5,5,95,1,,,,,,,,,,,,,,,,,,,,,,,
319382,001,2022-11-13_18h28.01.575,Info_measure_main_exp,2022.2.2,Win32,60.0348202,,,,,,,,,,,,,,,,,,masks/mask_001.jpg,,,,,,,,,,,,,,,,,,,,,,,,,,,,,,,,,,,,,,,,,,,0,0,0,0,1,,,,,,,,,,,,,,,,,,,,,,,,,,,,,,,,,,,,,,,,,,,,,,
319382,001,2022-11-13_18h28.01.575,Info_measure_main_exp,2022.2.2,Win32,60.0348202,,,,,,,,,,,,,,,,,,masks/mask_003.jpg,,,,,,,,,,,,,,,,,,,,,,,,,,,,,,,,,,,,,,,,,,,0,1,1,2,1,,,,,,,,,,,,,,,,,,,,,,,,,,,,,,,,,,,,,,,,,,,,,,
319382,001,2022-11-13_18h28.01.575,Info_measure_main_exp,2022.2.2,Win32,60.0348202,,,,,,,,,,,,,,,,,,masks/mask_002.jpg,,,,,,,,,,,,,,,,,,,,,,,,,,,,,,,,,,,,,,,,,,,0,2,2,1,1,,,,,,,,,,,,,,,,,,,,,,,,,,,,,,,,,,,,,,,,,,,,,,
319382,001,2022-11-13_18h28.01.575,Info_measure_main_exp,2022.2.2,Win32,60.0348202,,,,,,,,,,,,,,,,,,masks/mask_004.jpg,,,,,,,,,,,,,,,,,,,,,,,,,,,,,,,,,,,,,,,,,,,0,3,3,3,1,,,,,,,,,,,,,,,,,,,,,,,,,,,,,,,,,,,,,,,,,,,,,,
319382,001,2022-11-13_18h28.01.575,Info_measure_main_exp,2022.2.2,Win32,60.0348202,,,,,,,,,,,,,,,,,,masks/mask_005.jpg,,,,,,,,,,,,,,,,,,,,,,,,,,,,,,,,,,,,,,,,,,,0,4,4,4,1,,,,,,,,,,,,,,,,,,,,,,,,,,,,,,,,,,,,,,,,,,,,,,
319382,001,2022-11-13_18h28.01.575,Info_measure_main_exp,2022.2.2,Win32,60.0348202,,,,,,,,,,,,,,,,,,masks/mask_001.jpg,,,,,,,,,,,,,,,,,,,,,,,,,,,,,,,,,,,,,,,,,,,,,,,,0,0,0,0,1,,,,,,,,,,,,,,,,,,,,,,,,,,,,,,,,,,,,,,,,,
319382,001,2022-11-13_18h28.01.575,Info_measure_main_exp,2022.2.2,Win32,60.0348202,,,,,,,,,,,,,,,,,,masks/mask_003.jpg,,,,,,,,,,,,,,,,,,,,,,,,,,,,,,,,,,,,,,,,,,,,,,,,0,1,1,2,1,,,,,,,,,,,,,,,,,,,,,,,,,,,,,,,,,,,,,,,,,
319382,001,2022-11-13_18h28.01.575,Info_measure_main_exp,2022.2.2,Win32,60.0348202,,,,,,,,,,,,,,,,,,masks/mask_004.jpg,,,,,,,,,,,,,,,,,,,,,,,,,,,,,,,,,,,,,,,,,,,,,,,,0,2,2,3,1,,,,,,,,,,,,,,,,,,,,,,,,,,,,,,,,,,,,,,,,,
319382,001,2022-11-13_18h28.01.575,Info_measure_main_exp,2022.2.2,Win32,60.0348202,,,,,,,,,,,,,,,,,,masks/mask_002.jpg,,,,,,,,,,,,,,,,,,,,,,,,,,,,,,,,,,,,,,,,,,,,,,,,0,3,3,1,1,,,,,,,,,,,,,,,,,,,,,,,,,,,,,,,,,,,,,,,,,
319382,001,2022-11-13_18h28.01.575,Info_measure_main_exp,2022.2.2,Win32,60.0348202,,,,,,,,,,,,,,,,,,masks/mask_005.jpg,,,,,,,,,,,,,,,,,,,,,,,,,,,,,,,,,,,,,,,,,,,,,,,,0,4,4,4,1,,,,,,,,,,,,,,,,,,,,,,,,,,,,,,,,,,,,,,,,,
319382,001,2022-11-13_18h28.01.575,Info_measure_main_exp,2022.2.2,Win32,60.0348202,,,,,,,,,,,,,,,,,,,,,,,,,,,,,,7,0.4919,1,,,,,,,,,,,,0,131,5,5,2166,1986,absent_patch/patch0002166.jpg,absent_patch/patch0001986.jpg,,,,,,,,,,,,,,,,,,,,0.052777778,0.139814815,1,0,0,response1disk,7,-0.000925926,0.002777778,1,0,0,center_square,0,6,6,47,1,,,,,,,,,,,,,,,,,,,,,,,
319382,001,2022-11-13_18h28.01.575,Info_measure_main_exp,2022.2.2,Win32,60.0348202,,,,,,,,,,,,,,,,,,masks/mask_001.jpg,,,,,,,,,,,,,,,,,,,,,,,,,,,,,,,,,,,,,,,,,,,0,0,0,0,1,,,,,,,,,,,,,,,,,,,,,,,,,,,,,,,,,,,,,,,,,,,,,,
319382,001,2022-11-13_18h28.01.575,Info_measure_main_exp,2022.2.2,Win32,60.0348202,,,,,,,,,,,,,,,,,,masks/mask_004.jpg,,,,,,,,,,,,,,,,,,,,,,,,,,,,,,,,,,,,,,,,,,,0,1,1,3,1,,,,,,,,,,,,,,,,,,,,,,,,,,,,,,,,,,,,,,,,,,,,,,
319382,001,2022-11-13_18h28.01.575,Info_measure_main_exp,2022.2.2,Win32,60.0348202,,,,,,,,,,,,,,,,,,masks/mask_003.jpg,,,,,,,,,,,,,,,,,,,,,,,,,,,,,,,,,,,,,,,,,,,0,2,2,2,1,,,,,,,,,,,,,,,,,,,,,,,,,,,,,,,,,,,,,,,,,,,,,,
319382,001,2022-11-13_18h28.01.575,Info_measure_main_exp,2022.2.2,Win32,60.0348202,,,,,,,,,,,,,,,,,,masks/mask_002.jpg,,,,,,,,,,,,,,,,,,,,,,,,,,,,,,,,,,,,,,,,,,,0,3,3,1,1,,,,,,,,,,,,,,,,,,,,,,,,,,,,,,,,,,,,,,,,,,,,,,
319382,001,2022-11-13_18h28.01.575,Info_measure_main_exp,2022.2.2,Win32,60.0348202,,,,,,,,,,,,,,,,,,masks/mask_005.jpg,,,,,,,,,,,,,,,,,,,,,,,,,,,,,,,,,,,,,,,,,,,0,4,4,4,1,,,,,,,,,,,,,,,,,,,,,,,,,,,,,,,,,,,,,,,,,,,,,,
319382,001,2022-11-13_18h28.01.575,Info_measure_main_exp,2022.2.2,Win32,60.0348202,,,,,,,,,,,,,,,,,,masks/mask_002.jpg,,,,,,,,,,,,,,,,,,,,,,,,,,,,,,,,,,,,,,,,,,,,,,,,0,0,0,1,1,,,,,,,,,,,,,,,,,,,,,,,,,,,,,,,,,,,,,,,,,
319382,001,2022-11-13_18h28.01.575,Info_measure_main_exp,2022.2.2,Win32,60.0348202,,,,,,,,,,,,,,,,,,masks/mask_004.jpg,,,,,,,,,,,,,,,,,,,,,,,,,,,,,,,,,,,,,,,,,,,,,,,,0,1,1,3,1,,,,,,,,,,,,,,,,,,,,,,,,,,,,,,,,,,,,,,,,,
319382,001,2022-11-13_18h28.01.575,Info_measure_main_exp,2022.2.2,Win32,60.0348202,,,,,,,,,,,,,,,,,,masks/mask_005.jpg,,,,,,,,,,,,,,,,,,,,,,,,,,,,,,,,,,,,,,,,,,,,,,,,0,2,2,4,1,,,,,,,,,,,,,,,,,,,,,,,,,,,,,,,,,,,,,,,,,
319382,001,2022-11-13_18h28.01.575,Info_measure_main_exp,2022.2.2,Win32,60.0348202,,,,,,,,,,,,,,,,,,masks/mask_003.jpg,,,,,,,,,,,,,,,,,,,,,,,,,,,,,,,,,,,,,,,,,,,,,,,,0,3,3,2,1,,,,,,,,,,,,,,,,,,,,,,,,,,,,,,,,,,,,,,,,,
319382,001,2022-11-13_18h28.01.575,Info_measure_main_exp,2022.2.2,Win32,60.0348202,,,,,,,,,,,,,,,,,,masks/mask_001.jpg,,,,,,,,,,,,,,,,,,,,,,,,,,,,,,,,,,,,,,,,,,,,,,,,0,4,4,0,1,,,,,,,,,,,,,,,,,,,,,,,,,,,,,,,,,,,,,,,,,
319382,001,2022-11-13_18h28.01.575,Info_measure_main_exp,2022.2.2,Win32,60.0348202,,,,,,,,,,,,,,,,,,,,,,,,,,,,,,7,0.5254,1,,,,,,,,,,,,0,131,5,5,2214,2166,absent_patch/patch0002214.jpg,absent_patch/patch0002166.jpg,,,,,,,,,,,,,,,,,,,,0.058333333,0.14537037,1,0,0,response1disk,8,0,0.011111111,1,0,0,center_square,0,7,7,109,1,,,,,,,,,,,,,,,,,,,,,,,
319382,001,2022-11-13_18h28.01.575,Info_measure_main_exp,2022.2.2,Win32,60.0348202,,,,,,,,,,,,,,,,,,masks/mask_001.jpg,,,,,,,,,,,,,,,,,,,,,,,,,,,,,,,,,,,,,,,,,,,0,0,0,0,1,,,,,,,,,,,,,,,,,,,,,,,,,,,,,,,,,,,,,,,,,,,,,,
319382,001,2022-11-13_18h28.01.575,Info_measure_main_exp,2022.2.2,Win32,60.0348202,,,,,,,,,,,,,,,,,,masks/mask_005.jpg,,,,,,,,,,,,,,,,,,,,,,,,,,,,,,,,,,,,,,,,,,,0,1,1,4,1,,,,,,,,,,,,,,,,,,,,,,,,,,,,,,,,,,,,,,,,,,,,,,
319382,001,2022-11-13_18h28.01.575,Info_measure_main_exp,2022.2.2,Win32,60.0348202,,,,,,,,,,,,,,,,,,masks/mask_004.jpg,,,,,,,,,,,,,,,,,,,,,,,,,,,,,,,,,,,,,,,,,,,0,2,2,3,1,,,,,,,,,,,,,,,,,,,,,,,,,,,,,,,,,,,,,,,,,,,,,,
319382,001,2022-11-13_18h28.01.575,Info_measure_main_exp,2022.2.2,Win32,60.0348202,,,,,,,,,,,,,,,,,,masks/mask_003.jpg,,,,,,,,,,,,,,,,,,,,,,,,,,,,,,,,,,,,,,,,,,,0,3,3,2,1,,,,,,,,,,,,,,,,,,,,,,,,,,,,,,,,,,,,,,,,,,,,,,
319382,001,2022-11-13_18h28.01.575,Info_measure_main_exp,2022.2.2,Win32,60.0348202,,,,,,,,,,,,,,,,,,masks/mask_002.jpg,,,,,,,,,,,,,,,,,,,,,,,,,,,,,,,,,,,,,,,,,,,0,4,4,1,1,,,,,,,,,,,,,,,,,,,,,,,,,,,,,,,,,,,,,,,,,,,,,,
319382,001,2022-11-13_18h28.01.575,Info_measure_main_exp,2022.2.2,Win32,60.0348202,,,,,,,,,,,,,,,,,,masks/mask_004.jpg,,,,,,,,,,,,,,,,,,,,,,,,,,,,,,,,,,,,,,,,,,,,,,,,0,0,0,3,1,,,,,,,,,,,,,,,,,,,,,,,,,,,,,,,,,,,,,,,,,
319382,001,2022-11-13_18h28.01.575,Info_measure_main_exp,2022.2.2,Win32,60.0348202,,,,,,,,,,,,,,,,,,masks/mask_002.jpg,,,,,,,,,,,,,,,,,,,,,,,,,,,,,,,,,,,,,,,,,,,,,,,,0,1,1,1,1,,,,,,,,,,,,,,,,,,,,,,,,,,,,,,,,,,,,,,,,,
319382,001,2022-11-13_18h28.01.575,Info_measure_main_exp,2022.2.2,Win32,60.0348202,,,,,,,,,,,,,,,,,,masks/mask_003.jpg,,,,,,,,,,,,,,,,,,,,,,,,,,,,,,,,,,,,,,,,,,,,,,,,0,2,2,2,1,,,,,,,,,,,,,,,,,,,,,,,,,,,,,,,,,,,,,,,,,
319382,001,2022-11-13_18h28.01.575,Info_measure_main_exp,2022.2.2,Win32,60.0348202,,,,,,,,,,,,,,,,,,masks/mask_001.jpg,,,,,,,,,,,,,,,,,,,,,,,,,,,,,,,,,,,,,,,,,,,,,,,,0,3,3,0,1,,,,,,,,,,,,,,,,,,,,,,,,,,,,,,,,,,,,,,,,,
319382,001,2022-11-13_18h28.01.575,Info_measure_main_exp,2022.2.2,Win32,60.0348202,,,,,,,,,,,,,,,,,,masks/mask_005.jpg,,,,,,,,,,,,,,,,,,,,,,,,,,,,,,,,,,,,,,,,,,,,,,,,0,4,4,4,1,,,,,,,,,,,,,,,,,,,,,,,,,,,,,,,,,,,,,,,,,
319382,001,2022-11-13_18h28.01.575,Info_measure_main_exp,2022.2.2,Win32,60.0348202,,,,,,,,,,,,,,,,,,,,,,,,,,,,,,4,1.5521,1,,,,,,,,,,,,0,131,5,5,2142,2082,absent_patch/patch0002142.jpg,absent_patch/patch0002082.jpg,,,,,,,,,,,,,,,,,,,,0.075925926,-0.149074074,1,0,0,response3disk,9,0.002777778,0.000925926,1,0,0,center_square,0,8,8,88,1,,,,,,,,,,,,,,,,,,,,,,,
319382,001,2022-11-13_18h28.01.575,Info_measure_main_exp,2022.2.2,Win32,60.0348202,,,,,,,,,,,,,,,,,,masks/mask_004.jpg,,,,,,,,,,,,,,,,,,,,,,,,,,,,,,,,,,,,,,,,,,,0,0,0,3,1,,,,,,,,,,,,,,,,,,,,,,,,,,,,,,,,,,,,,,,,,,,,,,
319382,001,2022-11-13_18h28.01.575,Info_measure_main_exp,2022.2.2,Win32,60.0348202,,,,,,,,,,,,,,,,,,masks/mask_001.jpg,,,,,,,,,,,,,,,,,,,,,,,,,,,,,,,,,,,,,,,,,,,0,1,1,0,1,,,,,,,,,,,,,,,,,,,,,,,,,,,,,,,,,,,,,,,,,,,,,,
319382,001,2022-11-13_18h28.01.575,Info_measure_main_exp,2022.2.2,Win32,60.0348202,,,,,,,,,,,,,,,,,,masks/mask_005.jpg,,,,,,,,,,,,,,,,,,,,,,,,,,,,,,,,,,,,,,,,,,,0,2,2,4,1,,,,,,,,,,,,,,,,,,,,,,,,,,,,,,,,,,,,,,,,,,,,,,
319382,001,2022-11-13_18h28.01.575,Info_measure_main_exp,2022.2.2,Win32,60.0348202,,,,,,,,,,,,,,,,,,masks/mask_002.jpg,,,,,,,,,,,,,,,,,,,,,,,,,,,,,,,,,,,,,,,,,,,0,3,3,1,1,,,,,,,,,,,,,,,,,,,,,,,,,,,,,,,,,,,,,,,,,,,,,,
319382,001,2022-11-13_18h28.01.575,Info_measure_main_exp,2022.2.2,Win32,60.0348202,,,,,,,,,,,,,,,,,,masks/mask_003.jpg,,,,,,,,,,,,,,,,,,,,,,,,,,,,,,,,,,,,,,,,,,,0,4,4,2,1,,,,,,,,,,,,,,,,,,,,,,,,,,,,,,,,,,,,,,,,,,,,,,
319382,001,2022-11-13_18h28.01.575,Info_measure_main_exp,2022.2.2,Win32,60.0348202,,,,,,,,,,,,,,,,,,masks/mask_001.jpg,,,,,,,,,,,,,,,,,,,,,,,,,,,,,,,,,,,,,,,,,,,,,,,,0,0,0,0,1,,,,,,,,,,,,,,,,,,,,,,,,,,,,,,,,,,,,,,,,,
319382,001,2022-11-13_18h28.01.575,Info_measure_main_exp,2022.2.2,Win32,60.0348202,,,,,,,,,,,,,,,,,,masks/mask_002.jpg,,,,,,,,,,,,,,,,,,,,,,,,,,,,,,,,,,,,,,,,,,,,,,,,0,1,1,1,1,,,,,,,,,,,,,,,,,,,,,,,,,,,,,,,,,,,,,,,,,
319382,001,2022-11-13_18h28.01.575,Info_measure_main_exp,2022.2.2,Win32,60.0348202,,,,,,,,,,,,,,,,,,masks/mask_003.jpg,,,,,,,,,,,,,,,,,,,,,,,,,,,,,,,,,,,,,,,,,,,,,,,,0,2,2,2,1,,,,,,,,,,,,,,,,,,,,,,,,,,,,,,,,,,,,,,,,,
319382,001,2022-11-13_18h28.01.575,Info_measure_main_exp,2022.2.2,Win32,60.0348202,,,,,,,,,,,,,,,,,,masks/mask_005.jpg,,,,,,,,,,,,,,,,,,,,,,,,,,,,,,,,,,,,,,,,,,,,,,,,0,3,3,4,1,,,,,,,,,,,,,,,,,,,,,,,,,,,,,,,,,,,,,,,,,
319382,001,2022-11-13_18h28.01.575,Info_measure_main_exp,2022.2.2,Win32,60.0348202,,,,,,,,,,,,,,,,,,masks/mask_004.jpg,,,,,,,,,,,,,,,,,,,,,,,,,,,,,,,,,,,,,,,,,,,,,,,,0,4,4,3,1,,,,,,,,,,,,,,,,,,,,,,,,,,,,,,,,,,,,,,,,,
319382,001,2022-11-13_18h28.01.575,Info_measure_main_exp,2022.2.2,Win32,60.0348202,,,,,,,,,,,,,,,,,,,,,,,,,,,,,,0,0.9251,1,,,,,,,,,,,,0,131,5,5,1986,1986,absent_patch/patch0001986.jpg,absent_patch/patch0001986.jpg,,,,,,,,,,,,,,,,,,,,-0.05,0.150925926,1,0,0,response7disk,10,-0.000925926,-0.007407407,1,0,0,center_square,0,9,9,19,1,,,,,,,,,,,,,,,,,,,,,,,
319382,001,2022-11-13_18h28.01.575,Info_measure_main_exp,2022.2.2,Win32,60.0348202,,,,,,,,,,,,,,,,,,masks/mask_003.jpg,,,,,,,,,,,,,,,,,,,,,,,,,,,,,,,,,,,,,,,,,,,0,0,0,2,1,,,,,,,,,,,,,,,,,,,,,,,,,,,,,,,,,,,,,,,,,,,,,,
319382,001,2022-11-13_18h28.01.575,Info_measure_main_exp,2022.2.2,Win32,60.0348202,,,,,,,,,,,,,,,,,,masks/mask_004.jpg,,,,,,,,,,,,,,,,,,,,,,,,,,,,,,,,,,,,,,,,,,,0,1,1,3,1,,,,,,,,,,,,,,,,,,,,,,,,,,,,,,,,,,,,,,,,,,,,,,
319382,001,2022-11-13_18h28.01.575,Info_measure_main_exp,2022.2.2,Win32,60.0348202,,,,,,,,,,,,,,,,,,masks/mask_001.jpg,,,,,,,,,,,,,,,,,,,,,,,,,,,,,,,,,,,,,,,,,,,0,2,2,0,1,,,,,,,,,,,,,,,,,,,,,,,,,,,,,,,,,,,,,,,,,,,,,,
319382,001,2022-11-13_18h28.01.575,Info_measure_main_exp,2022.2.2,Win32,60.0348202,,,,,,,,,,,,,,,,,,masks/mask_005.jpg,,,,,,,,,,,,,,,,,,,,,,,,,,,,,,,,,,,,,,,,,,,0,3,3,4,1,,,,,,,,,,,,,,,,,,,,,,,,,,,,,,,,,,,,,,,,,,,,,,
319382,001,2022-11-13_18h28.01.575,Info_measure_main_exp,2022.2.2,Win32,60.0348202,,,,,,,,,,,,,,,,,,masks/mask_002.jpg,,,,,,,,,,,,,,,,,,,,,,,,,,,,,,,,,,,,,,,,,,,0,4,4,1,1,,,,,,,,,,,,,,,,,,,,,,,,,,,,,,,,,,,,,,,,,,,,,,
319382,001,2022-11-13_18h28.01.575,Info_measure_main_exp,2022.2.2,Win32,60.0348202,,,,,,,,,,,,,,,,,,masks/mask_005.jpg,,,,,,,,,,,,,,,,,,,,,,,,,,,,,,,,,,,,,,,,,,,,,,,,0,0,0,4,1,,,,,,,,,,,,,,,,,,,,,,,,,,,,,,,,,,,,,,,,,
319382,001,2022-11-13_18h28.01.575,Info_measure_main_exp,2022.2.2,Win32,60.0348202,,,,,,,,,,,,,,,,,,masks/mask_001.jpg,,,,,,,,,,,,,,,,,,,,,,,,,,,,,,,,,,,,,,,,,,,,,,,,0,1,1,0,1,,,,,,,,,,,,,,,,,,,,,,,,,,,,,,,,,,,,,,,,,
319382,001,2022-11-13_18h28.01.575,Info_measure_main_exp,2022.2.2,Win32,60.0348202,,,,,,,,,,,,,,,,,,masks/mask_002.jpg,,,,,,,,,,,,,,,,,,,,,,,,,,,,,,,,,,,,,,,,,,,,,,,,0,2,2,1,1,,,,,,,,,,,,,,,,,,,,,,,,,,,,,,,,,,,,,,,,,
319382,001,2022-11-13_18h28.01.575,Info_measure_main_exp,2022.2.2,Win32,60.0348202,,,,,,,,,,,,,,,,,,masks/mask_004.jpg,,,,,,,,,,,,,,,,,,,,,,,,,,,,,,,,,,,,,,,,,,,,,,,,0,3,3,3,1,,,,,,,,,,,,,,,,,,,,,,,,,,,,,,,,,,,,,,,,,
319382,001,2022-11-13_18h28.01.575,Info_measure_main_exp,2022.2.2,Win32,60.0348202,,,,,,,,,,,,,,,,,,masks/mask_003.jpg,,,,,,,,,,,,,,,,,,,,,,,,,,,,,,,,,,,,,,,,,,,,,,,,0,4,4,2,1,,,,,,,,,,,,,,,,,,,,,,,,,,,,,,,,,,,,,,,,,
319382,001,2022-11-13_18h28.01.575,Info_measure_main_exp,2022.2.2,Win32,60.0348202,,,,,,,,,,,,,,,,,,,,,,,,,,,,,,7,0.4411,1,,,,,,,,,,,,1,131,5,5,1,1974,present_patch/cong_131_5_a.jpg,absent_patch/patch0001974.jpg,,,,,,,,,,,,,,,,,,,,0.087037037,0.149074074,1,0,0,response1disk,11,0.008333333,-0.001851852,1,0,0,center_square,0,10,10,69,1,,,,,,,,,,,,,,,,,,,,,,,
319382,001,2022-11-13_18h28.01.575,Info_measure_main_exp,2022.2.2,Win32,60.0348202,,,,,,,,,,,,,,,,,,masks/mask_004.jpg,,,,,,,,,,,,,,,,,,,,,,,,,,,,,,,,,,,,,,,,,,,0,0,0,3,1,,,,,,,,,,,,,,,,,,,,,,,,,,,,,,,,,,,,,,,,,,,,,,
319382,001,2022-11-13_18h28.01.575,Info_measure_main_exp,2022.2.2,Win32,60.0348202,,,,,,,,,,,,,,,,,,masks/mask_002.jpg,,,,,,,,,,,,,,,,,,,,,,,,,,,,,,,,,,,,,,,,,,,0,1,1,1,1,,,,,,,,,,,,,,,,,,,,,,,,,,,,,,,,,,,,,,,,,,,,,,
319382,001,2022-11-13_18h28.01.575,Info_measure_main_exp,2022.2.2,Win32,60.0348202,,,,,,,,,,,,,,,,,,masks/mask_001.jpg,,,,,,,,,,,,,,,,,,,,,,,,,,,,,,,,,,,,,,,,,,,0,2,2,0,1,,,,,,,,,,,,,,,,,,,,,,,,,,,,,,,,,,,,,,,,,,,,,,
319382,001,2022-11-13_18h28.01.575,Info_measure_main_exp,2022.2.2,Win32,60.0348202,,,,,,,,,,,,,,,,,,masks/mask_005.jpg,,,,,,,,,,,,,,,,,,,,,,,,,,,,,,,,,,,,,,,,,,,0,3,3,4,1,,,,,,,,,,,,,,,,,,,,,,,,,,,,,,,,,,,,,,,,,,,,,,
319382,001,2022-11-13_18h28.01.575,Info_measure_main_exp,2022.2.2,Win32,60.0348202,,,,,,,,,,,,,,,,,,masks/mask_003.jpg,,,,,,,,,,,,,,,,,,,,,,,,,,,,,,,,,,,,,,,,,,,0,4,4,2,1,,,,,,,,,,,,,,,,,,,,,,,,,,,,,,,,,,,,,,,,,,,,,,
319382,001,2022-11-13_18h28.01.575,Info_measure_main_exp,2022.2.2,Win32,60.0348202,,,,,,,,,,,,,,,,,,masks/mask_003.jpg,,,,,,,,,,,,,,,,,,,,,,,,,,,,,,,,,,,,,,,,,,,,,,,,0,0,0,2,1,,,,,,,,,,,,,,,,,,,,,,,,,,,,,,,,,,,,,,,,,
319382,001,2022-11-13_18h28.01.575,Info_measure_main_exp,2022.2.2,Win32,60.0348202,,,,,,,,,,,,,,,,,,masks/mask_002.jpg,,,,,,,,,,,,,,,,,,,,,,,,,,,,,,,,,,,,,,,,,,,,,,,,0,1,1,1,1,,,,,,,,,,,,,,,,,,,,,,,,,,,,,,,,,,,,,,,,,
319382,001,2022-11-13_18h28.01.575,Info_measure_main_exp,2022.2.2,Win32,60.0348202,,,,,,,,,,,,,,,,,,masks/mask_005.jpg,,,,,,,,,,,,,,,,,,,,,,,,,,,,,,,,,,,,,,,,,,,,,,,,0,2,2,4,1,,,,,,,,,,,,,,,,,,,,,,,,,,,,,,,,,,,,,,,,,
319382,001,2022-11-13_18h28.01.575,Info_measure_main_exp,2022.2.2,Win32,60.0348202,,,,,,,,,,,,,,,,,,masks/mask_001.jpg,,,,,,,,,,,,,,,,,,,,,,,,,,,,,,,,,,,,,,,,,,,,,,,,0,3,3,0,1,,,,,,,,,,,,,,,,,,,,,,,,,,,,,,,,,,,,,,,,,
319382,001,2022-11-13_18h28.01.575,Info_measure_main_exp,2022.2.2,Win32,60.0348202,,,,,,,,,,,,,,,,,,masks/mask_004.jpg,,,,,,,,,,,,,,,,,,,,,,,,,,,,,,,,,,,,,,,,,,,,,,,,0,4,4,3,1,,,,,,,,,,,,,,,,,,,,,,,,,,,,,,,,,,,,,,,,,
319382,001,2022-11-13_18h28.01.575,Info_measure_main_exp,2022.2.2,Win32,60.0348202,,,,,,,,,,,,,,,,,,,,,,,,,,,,,,0,0.5715,1,,,,,,,,,,,,0,131,5,5,2154,2154,absent_patch/patch0002154.jpg,absent_patch/patch0002154.jpg,,,,,,,,,,,,,,,,,,,,-0.063888889,0.125,1,0,0,response7disk,12,-0.001851852,0.00462963,1,0,0,center_square,0,11,11,89,1,,,,,,,,,,,,,,,,,,,,,,,
319382,001,2022-11-13_18h28.01.575,Info_measure_main_exp,2022.2.2,Win32,60.0348202,,,,,,,,,,,,,,,,,,masks/mask_005.jpg,,,,,,,,,,,,,,,,,,,,,,,,,,,,,,,,,,,,,,,,,,,0,0,0,4,1,,,,,,,,,,,,,,,,,,,,,,,,,,,,,,,,,,,,,,,,,,,,,,
319382,001,2022-11-13_18h28.01.575,Info_measure_main_exp,2022.2.2,Win32,60.0348202,,,,,,,,,,,,,,,,,,masks/mask_004.jpg,,,,,,,,,,,,,,,,,,,,,,,,,,,,,,,,,,,,,,,,,,,0,1,1,3,1,,,,,,,,,,,,,,,,,,,,,,,,,,,,,,,,,,,,,,,,,,,,,,
319382,001,2022-11-13_18h28.01.575,Info_measure_main_exp,2022.2.2,Win32,60.0348202,,,,,,,,,,,,,,,,,,masks/mask_001.jpg,,,,,,,,,,,,,,,,,,,,,,,,,,,,,,,,,,,,,,,,,,,0,2,2,0,1,,,,,,,,,,,,,,,,,,,,,,,,,,,,,,,,,,,,,,,,,,,,,,
319382,001,2022-11-13_18h28.01.575,Info_measure_main_exp,2022.2.2,Win32,60.0348202,,,,,,,,,,,,,,,,,,masks/mask_002.jpg,,,,,,,,,,,,,,,,,,,,,,,,,,,,,,,,,,,,,,,,,,,0,3,3,1,1,,,,,,,,,,,,,,,,,,,,,,,,,,,,,,,,,,,,,,,,,,,,,,
319382,001,2022-11-13_18h28.01.575,Info_measure_main_exp,2022.2.2,Win32,60.0348202,,,,,,,,,,,,,,,,,,masks/mask_003.jpg,,,,,,,,,,,,,,,,,,,,,,,,,,,,,,,,,,,,,,,,,,,0,4,4,2,1,,,,,,,,,,,,,,,,,,,,,,,,,,,,,,,,,,,,,,,,,,,,,,
319382,001,2022-11-13_18h28.01.575,Info_measure_main_exp,2022.2.2,Win32,60.0348202,,,,,,,,,,,,,,,,,,masks/mask_001.jpg,,,,,,,,,,,,,,,,,,,,,,,,,,,,,,,,,,,,,,,,,,,,,,,,0,0,0,0,1,,,,,,,,,,,,,,,,,,,,,,,,,,,,,,,,,,,,,,,,,
319382,001,2022-11-13_18h28.01.575,Info_measure_main_exp,2022.2.2,Win32,60.0348202,,,,,,,,,,,,,,,,,,masks/mask_005.jpg,,,,,,,,,,,,,,,,,,,,,,,,,,,,,,,,,,,,,,,,,,,,,,,,0,1,1,4,1,,,,,,,,,,,,,,,,,,,,,,,,,,,,,,,,,,,,,,,,,
319382,001,2022-11-13_18h28.01.575,Info_measure_main_exp,2022.2.2,Win32,60.0348202,,,,,,,,,,,,,,,,,,masks/mask_003.jpg,,,,,,,,,,,,,,,,,,,,,,,,,,,,,,,,,,,,,,,,,,,,,,,,0,2,2,2,1,,,,,,,,,,,,,,,,,,,,,,,,,,,,,,,,,,,,,,,,,
319382,001,2022-11-13_18h28.01.575,Info_measure_main_exp,2022.2.2,Win32,60.0348202,,,,,,,,,,,,,,,,,,masks/mask_004.jpg,,,,,,,,,,,,,,,,,,,,,,,,,,,,,,,,,,,,,,,,,,,,,,,,0,3,3,3,1,,,,,,,,,,,,,,,,,,,,,,,,,,,,,,,,,,,,,,,,,
319382,001,2022-11-13_18h28.01.575,Info_measure_main_exp,2022.2.2,Win32,60.0348202,,,,,,,,,,,,,,,,,,masks/mask_002.jpg,,,,,,,,,,,,,,,,,,,,,,,,,,,,,,,,,,,,,,,,,,,,,,,,0,4,4,1,1,,,,,,,,,,,,,,,,,,,,,,,,,,,,,,,,,,,,,,,,,
319382,001,2022-11-13_18h28.01.575,Info_measure_main_exp,2022.2.2,Win32,60.0348202,,,,,,,,,,,,,,,,,,,,,,,,,,,,,,5,0.7754,1,,,,,,,,,,,,0,131,5,5,2250,2298,absent_patch/patch0002250.jpg,absent_patch/patch0002298.jpg,,,,,,,,,,,,,,,,,,,,0.134259259,-0.050925926,1,0,0,response3disk,13,0.001851852,0.003703704,1,0,0,center_square,0,12,12,59,1,,,,,,,,,,,,,,,,,,,,,,,
319382,001,2022-11-13_18h28.01.575,Info_measure_main_exp,2022.2.2,Win32,60.0348202,,,,,,,,,,,,,,,,,,masks/mask_001.jpg,,,,,,,,,,,,,,,,,,,,,,,,,,,,,,,,,,,,,,,,,,,0,0,0,0,1,,,,,,,,,,,,,,,,,,,,,,,,,,,,,,,,,,,,,,,,,,,,,,
319382,001,2022-11-13_18h28.01.575,Info_measure_main_exp,2022.2.2,Win32,60.0348202,,,,,,,,,,,,,,,,,,masks/mask_002.jpg,,,,,,,,,,,,,,,,,,,,,,,,,,,,,,,,,,,,,,,,,,,0,1,1,1,1,,,,,,,,,,,,,,,,,,,,,,,,,,,,,,,,,,,,,,,,,,,,,,
319382,001,2022-11-13_18h28.01.575,Info_measure_main_exp,2022.2.2,Win32,60.0348202,,,,,,,,,,,,,,,,,,masks/mask_004.jpg,,,,,,,,,,,,,,,,,,,,,,,,,,,,,,,,,,,,,,,,,,,0,2,2,3,1,,,,,,,,,,,,,,,,,,,,,,,,,,,,,,,,,,,,,,,,,,,,,,
319382,001,2022-11-13_18h28.01.575,Info_measure_main_exp,2022.2.2,Win32,60.0348202,,,,,,,,,,,,,,,,,,masks/mask_003.jpg,,,,,,,,,,,,,,,,,,,,,,,,,,,,,,,,,,,,,,,,,,,0,3,3,2,1,,,,,,,,,,,,,,,,,,,,,,,,,,,,,,,,,,,,,,,,,,,,,,
319382,001,2022-11-13_18h28.01.575,Info_measure_main_exp,2022.2.2,Win32,60.0348202,,,,,,,,,,,,,,,,,,masks/mask_005.jpg,,,,,,,,,,,,,,,,,,,,,,,,,,,,,,,,,,,,,,,,,,,0,4,4,4,1,,,,,,,,,,,,,,,,,,,,,,,,,,,,,,,,,,,,,,,,,,,,,,
319382,001,2022-11-13_18h28.01.575,Info_measure_main_exp,2022.2.2,Win32,60.0348202,,,,,,,,,,,,,,,,,,masks/mask_002.jpg,,,,,,,,,,,,,,,,,,,,,,,,,,,,,,,,,,,,,,,,,,,,,,,,0,0,0,1,1,,,,,,,,,,,,,,,,,,,,,,,,,,,,,,,,,,,,,,,,,
319382,001,2022-11-13_18h28.01.575,Info_measure_main_exp,2022.2.2,Win32,60.0348202,,,,,,,,,,,,,,,,,,masks/mask_003.jpg,,,,,,,,,,,,,,,,,,,,,,,,,,,,,,,,,,,,,,,,,,,,,,,,0,1,1,2,1,,,,,,,,,,,,,,,,,,,,,,,,,,,,,,,,,,,,,,,,,
319382,001,2022-11-13_18h28.01.575,Info_measure_main_exp,2022.2.2,Win32,60.0348202,,,,,,,,,,,,,,,,,,masks/mask_001.jpg,,,,,,,,,,,,,,,,,,,,,,,,,,,,,,,,,,,,,,,,,,,,,,,,0,2,2,0,1,,,,,,,,,,,,,,,,,,,,,,,,,,,,,,,,,,,,,,,,,
319382,001,2022-11-13_18h28.01.575,Info_measure_main_exp,2022.2.2,Win32,60.0348202,,,,,,,,,,,,,,,,,,masks/mask_005.jpg,,,,,,,,,,,,,,,,,,,,,,,,,,,,,,,,,,,,,,,,,,,,,,,,0,3,3,4,1,,,,,,,,,,,,,,,,,,,,,,,,,,,,,,,,,,,,,,,,,
319382,001,2022-11-13_18h28.01.575,Info_measure_main_exp,2022.2.2,Win32,60.0348202,,,,,,,,,,,,,,,,,,masks/mask_004.jpg,,,,,,,,,,,,,,,,,,,,,,,,,,,,,,,,,,,,,,,,,,,,,,,,0,4,4,3,1,,,,,,,,,,,,,,,,,,,,,,,,,,,,,,,,,,,,,,,,,
319382,001,2022-11-13_18h28.01.575,Info_measure_main_exp,2022.2.2,Win32,60.0348202,,,,,,,,,,,,,,,,,,,,,,,,,,,,,,5,2.5858,1,,,,,,,,,,,,0,131,5,5,1974,2178,absent_patch/patch0001974.jpg,absent_patch/patch0002178.jpg,,,,,,,,,,,,,,,,,,,,0.160185185,-0.068518519,1,0,0,response3disk,14,-0.002777778,0.003703704,1,0,0,center_square,0,13,13,44,1,,,,,,,,,,,,,,,,,,,,,,,
319382,001,2022-11-13_18h28.01.575,Info_measure_main_exp,2022.2.2,Win32,60.0348202,,,,,,,,,,,,,,,,,,masks/mask_002.jpg,,,,,,,,,,,,,,,,,,,,,,,,,,,,,,,,,,,,,,,,,,,0,0,0,1,1,,,,,,,,,,,,,,,,,,,,,,,,,,,,,,,,,,,,,,,,,,,,,,
319382,001,2022-11-13_18h28.01.575,Info_measure_main_exp,2022.2.2,Win32,60.0348202,,,,,,,,,,,,,,,,,,masks/mask_001.jpg,,,,,,,,,,,,,,,,,,,,,,,,,,,,,,,,,,,,,,,,,,,0,1,1,0,1,,,,,,,,,,,,,,,,,,,,,,,,,,,,,,,,,,,,,,,,,,,,,,
319382,001,2022-11-13_18h28.01.575,Info_measure_main_exp,2022.2.2,Win32,60.0348202,,,,,,,,,,,,,,,,,,masks/mask_005.jpg,,,,,,,,,,,,,,,,,,,,,,,,,,,,,,,,,,,,,,,,,,,0,2,2,4,1,,,,,,,,,,,,,,,,,,,,,,,,,,,,,,,,,,,,,,,,,,,,,,
319382,001,2022-11-13_18h28.01.575,Info_measure_main_exp,2022.2.2,Win32,60.0348202,,,,,,,,,,,,,,,,,,masks/mask_003.jpg,,,,,,,,,,,,,,,,,,,,,,,,,,,,,,,,,,,,,,,,,,,0,3,3,2,1,,,,,,,,,,,,,,,,,,,,,,,,,,,,,,,,,,,,,,,,,,,,,,
319382,001,2022-11-13_18h28.01.575,Info_measure_main_exp,2022.2.2,Win32,60.0348202,,,,,,,,,,,,,,,,,,masks/mask_004.jpg,,,,,,,,,,,,,,,,,,,,,,,,,,,,,,,,,,,,,,,,,,,0,4,4,3,1,,,,,,,,,,,,,,,,,,,,,,,,,,,,,,,,,,,,,,,,,,,,,,
319382,001,2022-11-13_18h28.01.575,Info_measure_main_exp,2022.2.2,Win32,60.0348202,,,,,,,,,,,,,,,,,,masks/mask_003.jpg,,,,,,,,,,,,,,,,,,,,,,,,,,,,,,,,,,,,,,,,,,,,,,,,0,0,0,2,1,,,,,,,,,,,,,,,,,,,,,,,,,,,,,,,,,,,,,,,,,
319382,001,2022-11-13_18h28.01.575,Info_measure_main_exp,2022.2.2,Win32,60.0348202,,,,,,,,,,,,,,,,,,masks/mask_001.jpg,,,,,,,,,,,,,,,,,,,,,,,,,,,,,,,,,,,,,,,,,,,,,,,,0,1,1,0,1,,,,,,,,,,,,,,,,,,,,,,,,,,,,,,,,,,,,,,,,,
319382,001,2022-11-13_18h28.01.575,Info_measure_main_exp,2022.2.2,Win32,60.0348202,,,,,,,,,,,,,,,,,,masks/mask_005.jpg,,,,,,,,,,,,,,,,,,,,,,,,,,,,,,,,,,,,,,,,,,,,,,,,0,2,2,4,1,,,,,,,,,,,,,,,,,,,,,,,,,,,,,,,,,,,,,,,,,
319382,001,2022-11-13_18h28.01.575,Info_measure_main_exp,2022.2.2,Win32,60.0348202,,,,,,,,,,,,,,,,,,masks/mask_002.jpg,,,,,,,,,,,,,,,,,,,,,,,,,,,,,,,,,,,,,,,,,,,,,,,,0,3,3,1,1,,,,,,,,,,,,,,,,,,,,,,,,,,,,,,,,,,,,,,,,,
319382,001,2022-11-13_18h28.01.575,Info_measure_main_exp,2022.2.2,Win32,60.0348202,,,,,,,,,,,,,,,,,,masks/mask_004.jpg,,,,,,,,,,,,,,,,,,,,,,,,,,,,,,,,,,,,,,,,,,,,,,,,0,4,4,3,1,,,,,,,,,,,,,,,,,,,,,,,,,,,,,,,,,,,,,,,,,
319382,001,2022-11-13_18h28.01.575,Info_measure_main_exp,2022.2.2,Win32,60.0348202,,,,,,,,,,,,,,,,,,,,,,,,,,,,,,7,0.6515,1,,,,,,,,,,,,0,131,5,5,2082,2154,absent_patch/patch0002082.jpg,absent_patch/patch0002154.jpg,,,,,,,,,,,,,,,,,,,,0.055555556,0.151851852,1,0,0,response1disk,15,0.005555556,-0.002777778,1,0,0,center_square,0,14,14,33,1,,,,,,,,,,,,,,,,,,,,,,,
319382,001,2022-11-13_18h28.01.575,Info_measure_main_exp,2022.2.2,Win32,60.0348202,,,,,,,,,,,,,,,,,,masks/mask_001.jpg,,,,,,,,,,,,,,,,,,,,,,,,,,,,,,,,,,,,,,,,,,,0,0,0,0,1,,,,,,,,,,,,,,,,,,,,,,,,,,,,,,,,,,,,,,,,,,,,,,
319382,001,2022-11-13_18h28.01.575,Info_measure_main_exp,2022.2.2,Win32,60.0348202,,,,,,,,,,,,,,,,,,masks/mask_005.jpg,,,,,,,,,,,,,,,,,,,,,,,,,,,,,,,,,,,,,,,,,,,0,1,1,4,1,,,,,,,,,,,,,,,,,,,,,,,,,,,,,,,,,,,,,,,,,,,,,,
319382,001,2022-11-13_18h28.01.575,Info_measure_main_exp,2022.2.2,Win32,60.0348202,,,,,,,,,,,,,,,,,,masks/mask_002.jpg,,,,,,,,,,,,,,,,,,,,,,,,,,,,,,,,,,,,,,,,,,,0,2,2,1,1,,,,,,,,,,,,,,,,,,,,,,,,,,,,,,,,,,,,,,,,,,,,,,
319382,001,2022-11-13_18h28.01.575,Info_measure_main_exp,2022.2.2,Win32,60.0348202,,,,,,,,,,,,,,,,,,masks/mask_004.jpg,,,,,,,,,,,,,,,,,,,,,,,,,,,,,,,,,,,,,,,,,,,0,3,3,3,1,,,,,,,,,,,,,,,,,,,,,,,,,,,,,,,,,,,,,,,,,,,,,,
319382,001,2022-11-13_18h28.01.575,Info_measure_main_exp,2022.2.2,Win32,60.0348202,,,,,,,,,,,,,,,,,,masks/mask_003.jpg,,,,,,,,,,,,,,,,,,,,,,,,,,,,,,,,,,,,,,,,,,,0,4,4,2,1,,,,,,,,,,,,,,,,,,,,,,,,,,,,,,,,,,,,,,,,,,,,,,
319382,001,2022-11-13_18h28.01.575,Info_measure_main_exp,2022.2.2,Win32,60.0348202,,,,,,,,,,,,,,,,,,masks/mask_003.jpg,,,,,,,,,,,,,,,,,,,,,,,,,,,,,,,,,,,,,,,,,,,,,,,,0,0,0,2,1,,,,,,,,,,,,,,,,,,,,,,,,,,,,,,,,,,,,,,,,,
319382,001,2022-11-13_18h28.01.575,Info_measure_main_exp,2022.2.2,Win32,60.0348202,,,,,,,,,,,,,,,,,,masks/mask_004.jpg,,,,,,,,,,,,,,,,,,,,,,,,,,,,,,,,,,,,,,,,,,,,,,,,0,1,1,3,1,,,,,,,,,,,,,,,,,,,,,,,,,,,,,,,,,,,,,,,,,
319382,001,2022-11-13_18h28.01.575,Info_measure_main_exp,2022.2.2,Win32,60.0348202,,,,,,,,,,,,,,,,,,masks/mask_005.jpg,,,,,,,,,,,,,,,,,,,,,,,,,,,,,,,,,,,,,,,,,,,,,,,,0,2,2,4,1,,,,,,,,,,,,,,,,,,,,,,,,,,,,,,,,,,,,,,,,,
319382,001,2022-11-13_18h28.01.575,Info_measure_main_exp,2022.2.2,Win32,60.0348202,,,,,,,,,,,,,,,,,,masks/mask_001.jpg,,,,,,,,,,,,,,,,,,,,,,,,,,,,,,,,,,,,,,,,,,,,,,,,0,3,3,0,1,,,,,,,,,,,,,,,,,,,,,,,,,,,,,,,,,,,,,,,,,
319382,001,2022-11-13_18h28.01.575,Info_measure_main_exp,2022.2.2,Win32,60.0348202,,,,,,,,,,,,,,,,,,masks/mask_002.jpg,,,,,,,,,,,,,,,,,,,,,,,,,,,,,,,,,,,,,,,,,,,,,,,,0,4,4,1,1,,,,,,,,,,,,,,,,,,,,,,,,,,,,,,,,,,,,,,,,,
319382,001,2022-11-13_18h28.01.575,Info_measure_main_exp,2022.2.2,Win32,60.0348202,,,,,,,,,,,,,,,,,,,,,,,,,,,,,,7,0.4254,1,,,,,,,,,,,,0,131,5,5,1974,2166,absent_patch/patch0001974.jpg,absent_patch/patch0002166.jpg,,,,,,,,,,,,,,,,,,,,0.039814815,0.124074074,1,0,0,response1disk,16,-0.00462963,0.003703704,1,0,0,center_square,0,15,15,77,1,,,,,,,,,,,,,,,,,,,,,,,
319382,001,2022-11-13_18h28.01.575,Info_measure_main_exp,2022.2.2,Win32,60.0348202,,,,,,,,,,,,,,,,,,masks/mask_003.jpg,,,,,,,,,,,,,,,,,,,,,,,,,,,,,,,,,,,,,,,,,,,0,0,0,2,1,,,,,,,,,,,,,,,,,,,,,,,,,,,,,,,,,,,,,,,,,,,,,,
319382,001,2022-11-13_18h28.01.575,Info_measure_main_exp,2022.2.2,Win32,60.0348202,,,,,,,,,,,,,,,,,,masks/mask_005.jpg,,,,,,,,,,,,,,,,,,,,,,,,,,,,,,,,,,,,,,,,,,,0,1,1,4,1,,,,,,,,,,,,,,,,,,,,,,,,,,,,,,,,,,,,,,,,,,,,,,
319382,001,2022-11-13_18h28.01.575,Info_measure_main_exp,2022.2.2,Win32,60.0348202,,,,,,,,,,,,,,,,,,masks/mask_002.jpg,,,,,,,,,,,,,,,,,,,,,,,,,,,,,,,,,,,,,,,,,,,0,2,2,1,1,,,,,,,,,,,,,,,,,,,,,,,,,,,,,,,,,,,,,,,,,,,,,,
319382,001,2022-11-13_18h28.01.575,Info_measure_main_exp,2022.2.2,Win32,60.0348202,,,,,,,,,,,,,,,,,,masks/mask_001.jpg,,,,,,,,,,,,,,,,,,,,,,,,,,,,,,,,,,,,,,,,,,,0,3,3,0,1,,,,,,,,,,,,,,,,,,,,,,,,,,,,,,,,,,,,,,,,,,,,,,
319382,001,2022-11-13_18h28.01.575,Info_measure_main_exp,2022.2.2,Win32,60.0348202,,,,,,,,,,,,,,,,,,masks/mask_004.jpg,,,,,,,,,,,,,,,,,,,,,,,,,,,,,,,,,,,,,,,,,,,0,4,4,3,1,,,,,,,,,,,,,,,,,,,,,,,,,,,,,,,,,,,,,,,,,,,,,,
319382,001,2022-11-13_18h28.01.575,Info_measure_main_exp,2022.2.2,Win32,60.0348202,,,,,,,,,,,,,,,,,,masks/mask_004.jpg,,,,,,,,,,,,,,,,,,,,,,,,,,,,,,,,,,,,,,,,,,,,,,,,0,0,0,3,1,,,,,,,,,,,,,,,,,,,,,,,,,,,,,,,,,,,,,,,,,
319382,001,2022-11-13_18h28.01.575,Info_measure_main_exp,2022.2.2,Win32,60.0348202,,,,,,,,,,,,,,,,,,masks/mask_002.jpg,,,,,,,,,,,,,,,,,,,,,,,,,,,,,,,,,,,,,,,,,,,,,,,,0,1,1,1,1,,,,,,,,,,,,,,,,,,,,,,,,,,,,,,,,,,,,,,,,,
319382,001,2022-11-13_18h28.01.575,Info_measure_main_exp,2022.2.2,Win32,60.0348202,,,,,,,,,,,,,,,,,,masks/mask_005.jpg,,,,,,,,,,,,,,,,,,,,,,,,,,,,,,,,,,,,,,,,,,,,,,,,0,2,2,4,1,,,,,,,,,,,,,,,,,,,,,,,,,,,,,,,,,,,,,,,,,
319382,001,2022-11-13_18h28.01.575,Info_measure_main_exp,2022.2.2,Win32,60.0348202,,,,,,,,,,,,,,,,,,masks/mask_001.jpg,,,,,,,,,,,,,,,,,,,,,,,,,,,,,,,,,,,,,,,,,,,,,,,,0,3,3,0,1,,,,,,,,,,,,,,,,,,,,,,,,,,,,,,,,,,,,,,,,,
319382,001,2022-11-13_18h28.01.575,Info_measure_main_exp,2022.2.2,Win32,60.0348202,,,,,,,,,,,,,,,,,,masks/mask_003.jpg,,,,,,,,,,,,,,,,,,,,,,,,,,,,,,,,,,,,,,,,,,,,,,,,0,4,4,2,1,,,,,,,,,,,,,,,,,,,,,,,,,,,,,,,,,,,,,,,,,
319382,001,2022-11-13_18h28.01.575,Info_measure_main_exp,2022.2.2,Win32,60.0348202,,,,,,,,,,,,,,,,,,,,,,,,,,,,,,5,0.9752,1,,,,,,,,,,,,0,131,5,5,1974,2142,absent_patch/patch0001974.jpg,absent_patch/patch0002142.jpg,,,,,,,,,,,,,,,,,,,,0.126851852,-0.050925926,1,0,0,response3disk,17,0.006481481,-0.005555556,1,0,0,center_square,0,16,16,38,1,,,,,,,,,,,,,,,,,,,,,,,
319382,001,2022-11-13_18h28.01.575,Info_measure_main_exp,2022.2.2,Win32,60.0348202,,,,,,,,,,,,,,,,,,masks/mask_002.jpg,,,,,,,,,,,,,,,,,,,,,,,,,,,,,,,,,,,,,,,,,,,0,0,0,1,1,,,,,,,,,,,,,,,,,,,,,,,,,,,,,,,,,,,,,,,,,,,,,,
319382,001,2022-11-13_18h28.01.575,Info_measure_main_exp,2022.2.2,Win32,60.0348202,,,,,,,,,,,,,,,,,,masks/mask_004.jpg,,,,,,,,,,,,,,,,,,,,,,,,,,,,,,,,,,,,,,,,,,,0,1,1,3,1,,,,,,,,,,,,,,,,,,,,,,,,,,,,,,,,,,,,,,,,,,,,,,
319382,001,2022-11-13_18h28.01.575,Info_measure_main_exp,2022.2.2,Win32,60.0348202,,,,,,,,,,,,,,,,,,masks/mask_001.jpg,,,,,,,,,,,,,,,,,,,,,,,,,,,,,,,,,,,,,,,,,,,0,2,2,0,1,,,,,,,,,,,,,,,,,,,,,,,,,,,,,,,,,,,,,,,,,,,,,,
319382,001,2022-11-13_18h28.01.575,Info_measure_main_exp,2022.2.2,Win32,60.0348202,,,,,,,,,,,,,,,,,,masks/mask_005.jpg,,,,,,,,,,,,,,,,,,,,,,,,,,,,,,,,,,,,,,,,,,,0,3,3,4,1,,,,,,,,,,,,,,,,,,,,,,,,,,,,,,,,,,,,,,,,,,,,,,
319382,001,2022-11-13_18h28.01.575,Info_measure_main_exp,2022.2.2,Win32,60.0348202,,,,,,,,,,,,,,,,,,masks/mask_003.jpg,,,,,,,,,,,,,,,,,,,,,,,,,,,,,,,,,,,,,,,,,,,0,4,4,2,1,,,,,,,,,,,,,,,,,,,,,,,,,,,,,,,,,,,,,,,,,,,,,,
319382,001,2022-11-13_18h28.01.575,Info_measure_main_exp,2022.2.2,Win32,60.0348202,,,,,,,,,,,,,,,,,,masks/mask_003.jpg,,,,,,,,,,,,,,,,,,,,,,,,,,,,,,,,,,,,,,,,,,,,,,,,0,0,0,2,1,,,,,,,,,,,,,,,,,,,,,,,,,,,,,,,,,,,,,,,,,
319382,001,2022-11-13_18h28.01.575,Info_measure_main_exp,2022.2.2,Win32,60.0348202,,,,,,,,,,,,,,,,,,masks/mask_001.jpg,,,,,,,,,,,,,,,,,,,,,,,,,,,,,,,,,,,,,,,,,,,,,,,,0,1,1,0,1,,,,,,,,,,,,,,,,,,,,,,,,,,,,,,,,,,,,,,,,,
319382,001,2022-11-13_18h28.01.575,Info_measure_main_exp,2022.2.2,Win32,60.0348202,,,,,,,,,,,,,,,,,,masks/mask_004.jpg,,,,,,,,,,,,,,,,,,,,,,,,,,,,,,,,,,,,,,,,,,,,,,,,0,2,2,3,1,,,,,,,,,,,,,,,,,,,,,,,,,,,,,,,,,,,,,,,,,
319382,001,2022-11-13_18h28.01.575,Info_measure_main_exp,2022.2.2,Win32,60.0348202,,,,,,,,,,,,,,,,,,masks/mask_002.jpg,,,,,,,,,,,,,,,,,,,,,,,,,,,,,,,,,,,,,,,,,,,,,,,,0,3,3,1,1,,,,,,,,,,,,,,,,,,,,,,,,,,,,,,,,,,,,,,,,,
319382,001,2022-11-13_18h28.01.575,Info_measure_main_exp,2022.2.2,Win32,60.0348202,,,,,,,,,,,,,,,,,,masks/mask_005.jpg,,,,,,,,,,,,,,,,,,,,,,,,,,,,,,,,,,,,,,,,,,,,,,,,0,4,4,4,1,,,,,,,,,,,,,,,,,,,,,,,,,,,,,,,,,,,,,,,,,
319382,001,2022-11-13_18h28.01.575,Info_measure_main_exp,2022.2.2,Win32,60.0348202,,,,,,,,,,,,,,,,,,,,,,,,,,,,,,7,0.7172,1,,,,,,,,,,,,0,131,5,5,2190,1950,absent_patch/patch0002190.jpg,absent_patch/patch0001950.jpg,,,,,,,,,,,,,,,,,,,,0.043518519,0.114814815,1,0,0,response1disk,18,-0.002777778,0.00462963,1,0,0,center_square,0,17,17,73,1,,,,,,,,,,,,,,,,,,,,,,,
319382,001,2022-11-13_18h28.01.575,Info_measure_main_exp,2022.2.2,Win32,60.0348202,,,,,,,,,,,,,,,,,,masks/mask_002.jpg,,,,,,,,,,,,,,,,,,,,,,,,,,,,,,,,,,,,,,,,,,,0,0,0,1,1,,,,,,,,,,,,,,,,,,,,,,,,,,,,,,,,,,,,,,,,,,,,,,
319382,001,2022-11-13_18h28.01.575,Info_measure_main_exp,2022.2.2,Win32,60.0348202,,,,,,,,,,,,,,,,,,masks/mask_004.jpg,,,,,,,,,,,,,,,,,,,,,,,,,,,,,,,,,,,,,,,,,,,0,1,1,3,1,,,,,,,,,,,,,,,,,,,,,,,,,,,,,,,,,,,,,,,,,,,,,,
319382,001,2022-11-13_18h28.01.575,Info_measure_main_exp,2022.2.2,Win32,60.0348202,,,,,,,,,,,,,,,,,,masks/mask_001.jpg,,,,,,,,,,,,,,,,,,,,,,,,,,,,,,,,,,,,,,,,,,,0,2,2,0,1,,,,,,,,,,,,,,,,,,,,,,,,,,,,,,,,,,,,,,,,,,,,,,
319382,001,2022-11-13_18h28.01.575,Info_measure_main_exp,2022.2.2,Win32,60.0348202,,,,,,,,,,,,,,,,,,masks/mask_003.jpg,,,,,,,,,,,,,,,,,,,,,,,,,,,,,,,,,,,,,,,,,,,0,3,3,2,1,,,,,,,,,,,,,,,,,,,,,,,,,,,,,,,,,,,,,,,,,,,,,,
319382,001,2022-11-13_18h28.01.575,Info_measure_main_exp,2022.2.2,Win32,60.0348202,,,,,,,,,,,,,,,,,,masks/mask_005.jpg,,,,,,,,,,,,,,,,,,,,,,,,,,,,,,,,,,,,,,,,,,,0,4,4,4,1,,,,,,,,,,,,,,,,,,,,,,,,,,,,,,,,,,,,,,,,,,,,,,
319382,001,2022-11-13_18h28.01.575,Info_measure_main_exp,2022.2.2,Win32,60.0348202,,,,,,,,,,,,,,,,,,masks/mask_001.jpg,,,,,,,,,,,,,,,,,,,,,,,,,,,,,,,,,,,,,,,,,,,,,,,,0,0,0,0,1,,,,,,,,,,,,,,,,,,,,,,,,,,,,,,,,,,,,,,,,,
319382,001,2022-11-13_18h28.01.575,Info_measure_main_exp,2022.2.2,Win32,60.0348202,,,,,,,,,,,,,,,,,,masks/mask_003.jpg,,,,,,,,,,,,,,,,,,,,,,,,,,,,,,,,,,,,,,,,,,,,,,,,0,1,1,2,1,,,,,,,,,,,,,,,,,,,,,,,,,,,,,,,,,,,,,,,,,
319382,001,2022-11-13_18h28.01.575,Info_measure_main_exp,2022.2.2,Win32,60.0348202,,,,,,,,,,,,,,,,,,masks/mask_002.jpg,,,,,,,,,,,,,,,,,,,,,,,,,,,,,,,,,,,,,,,,,,,,,,,,0,2,2,1,1,,,,,,,,,,,,,,,,,,,,,,,,,,,,,,,,,,,,,,,,,
319382,001,2022-11-13_18h28.01.575,Info_measure_main_exp,2022.2.2,Win32,60.0348202,,,,,,,,,,,,,,,,,,masks/mask_004.jpg,,,,,,,,,,,,,,,,,,,,,,,,,,,,,,,,,,,,,,,,,,,,,,,,0,3,3,3,1,,,,,,,,,,,,,,,,,,,,,,,,,,,,,,,,,,,,,,,,,
319382,001,2022-11-13_18h28.01.575,Info_measure_main_exp,2022.2.2,Win32,60.0348202,,,,,,,,,,,,,,,,,,masks/mask_005.jpg,,,,,,,,,,,,,,,,,,,,,,,,,,,,,,,,,,,,,,,,,,,,,,,,0,4,4,4,1,,,,,,,,,,,,,,,,,,,,,,,,,,,,,,,,,,,,,,,,,
319382,001,2022-11-13_18h28.01.575,Info_measure_main_exp,2022.2.2,Win32,60.0348202,,,,,,,,,,,,,,,,,,,,,,,,,,,,,,7,0.4755,1,,,,,,,,,,,,0,131,5,5,2274,2154,absent_patch/patch0002274.jpg,absent_patch/patch0002154.jpg,,,,,,,,,,,,,,,,,,,,0.094444444,0.203703704,1,0,0,response1disk,19,0.00462963,-0.000925926,1,0,0,center_square,0,18,18,23,1,,,,,,,,,,,,,,,,,,,,,,,
319382,001,2022-11-13_18h28.01.575,Info_measure_main_exp,2022.2.2,Win32,60.0348202,,,,,,,,,,,,,,,,,,masks/mask_003.jpg,,,,,,,,,,,,,,,,,,,,,,,,,,,,,,,,,,,,,,,,,,,0,0,0,2,1,,,,,,,,,,,,,,,,,,,,,,,,,,,,,,,,,,,,,,,,,,,,,,
319382,001,2022-11-13_18h28.01.575,Info_measure_main_exp,2022.2.2,Win32,60.0348202,,,,,,,,,,,,,,,,,,masks/mask_004.jpg,,,,,,,,,,,,,,,,,,,,,,,,,,,,,,,,,,,,,,,,,,,0,1,1,3,1,,,,,,,,,,,,,,,,,,,,,,,,,,,,,,,,,,,,,,,,,,,,,,
319382,001,2022-11-13_18h28.01.575,Info_measure_main_exp,2022.2.2,Win32,60.0348202,,,,,,,,,,,,,,,,,,masks/mask_005.jpg,,,,,,,,,,,,,,,,,,,,,,,,,,,,,,,,,,,,,,,,,,,0,2,2,4,1,,,,,,,,,,,,,,,,,,,,,,,,,,,,,,,,,,,,,,,,,,,,,,
319382,001,2022-11-13_18h28.01.575,Info_measure_main_exp,2022.2.2,Win32,60.0348202,,,,,,,,,,,,,,,,,,masks/mask_001.jpg,,,,,,,,,,,,,,,,,,,,,,,,,,,,,,,,,,,,,,,,,,,0,3,3,0,1,,,,,,,,,,,,,,,,,,,,,,,,,,,,,,,,,,,,,,,,,,,,,,
319382,001,2022-11-13_18h28.01.575,Info_measure_main_exp,2022.2.2,Win32,60.0348202,,,,,,,,,,,,,,,,,,masks/mask_002.jpg,,,,,,,,,,,,,,,,,,,,,,,,,,,,,,,,,,,,,,,,,,,0,4,4,1,1,,,,,,,,,,,,,,,,,,,,,,,,,,,,,,,,,,,,,,,,,,,,,,
319382,001,2022-11-13_18h28.01.575,Info_measure_main_exp,2022.2.2,Win32,60.0348202,,,,,,,,,,,,,,,,,,masks/mask_003.jpg,,,,,,,,,,,,,,,,,,,,,,,,,,,,,,,,,,,,,,,,,,,,,,,,0,0,0,2,1,,,,,,,,,,,,,,,,,,,,,,,,,,,,,,,,,,,,,,,,,
319382,001,2022-11-13_18h28.01.575,Info_measure_main_exp,2022.2.2,Win32,60.0348202,,,,,,,,,,,,,,,,,,masks/mask_001.jpg,,,,,,,,,,,,,,,,,,,,,,,,,,,,,,,,,,,,,,,,,,,,,,,,0,1,1,0,1,,,,,,,,,,,,,,,,,,,,,,,,,,,,,,,,,,,,,,,,,
319382,001,2022-11-13_18h28.01.575,Info_measure_main_exp,2022.2.2,Win32,60.0348202,,,,,,,,,,,,,,,,,,masks/mask_004.jpg,,,,,,,,,,,,,,,,,,,,,,,,,,,,,,,,,,,,,,,,,,,,,,,,0,2,2,3,1,,,,,,,,,,,,,,,,,,,,,,,,,,,,,,,,,,,,,,,,,
319382,001,2022-11-13_18h28.01.575,Info_measure_main_exp,2022.2.2,Win32,60.0348202,,,,,,,,,,,,,,,,,,masks/mask_002.jpg,,,,,,,,,,,,,,,,,,,,,,,,,,,,,,,,,,,,,,,,,,,,,,,,0,3,3,1,1,,,,,,,,,,,,,,,,,,,,,,,,,,,,,,,,,,,,,,,,,
319382,001,2022-11-13_18h28.01.575,Info_measure_main_exp,2022.2.2,Win32,60.0348202,,,,,,,,,,,,,,,,,,masks/mask_005.jpg,,,,,,,,,,,,,,,,,,,,,,,,,,,,,,,,,,,,,,,,,,,,,,,,0,4,4,4,1,,,,,,,,,,,,,,,,,,,,,,,,,,,,,,,,,,,,,,,,,
319382,001,2022-11-13_18h28.01.575,Info_measure_main_exp,2022.2.2,Win32,60.0348202,,,,,,,,,,,,,,,,,,,,,,,,,,,,,,5,1.7084,1,,,,,,,,,,,,0,131,5,5,2250,2250,absent_patch/patch0002250.jpg,absent_patch/patch0002250.jpg,,,,,,,,,,,,,,,,,,,,0.09537037,-0.026851852,1,0,0,response3disk,20,0.006481481,-0.001851852,1,0,0,center_square,0,19,19,56,1,,,,,,,,,,,,,,,,,,,,,,,
319382,001,2022-11-13_18h28.01.575,Info_measure_main_exp,2022.2.2,Win32,60.0348202,,,,,,,,,,,,,,,,,,masks/mask_002.jpg,,,,,,,,,,,,,,,,,,,,,,,,,,,,,,,,,,,,,,,,,,,0,0,0,1,1,,,,,,,,,,,,,,,,,,,,,,,,,,,,,,,,,,,,,,,,,,,,,,
319382,001,2022-11-13_18h28.01.575,Info_measure_main_exp,2022.2.2,Win32,60.0348202,,,,,,,,,,,,,,,,,,masks/mask_005.jpg,,,,,,,,,,,,,,,,,,,,,,,,,,,,,,,,,,,,,,,,,,,0,1,1,4,1,,,,,,,,,,,,,,,,,,,,,,,,,,,,,,,,,,,,,,,,,,,,,,
319382,001,2022-11-13_18h28.01.575,Info_measure_main_exp,2022.2.2,Win32,60.0348202,,,,,,,,,,,,,,,,,,masks/mask_004.jpg,,,,,,,,,,,,,,,,,,,,,,,,,,,,,,,,,,,,,,,,,,,0,2,2,3,1,,,,,,,,,,,,,,,,,,,,,,,,,,,,,,,,,,,,,,,,,,,,,,
319382,001,2022-11-13_18h28.01.575,Info_measure_main_exp,2022.2.2,Win32,60.0348202,,,,,,,,,,,,,,,,,,masks/mask_003.jpg,,,,,,,,,,,,,,,,,,,,,,,,,,,,,,,,,,,,,,,,,,,0,3,3,2,1,,,,,,,,,,,,,,,,,,,,,,,,,,,,,,,,,,,,,,,,,,,,,,
319382,001,2022-11-13_18h28.01.575,Info_measure_main_exp,2022.2.2,Win32,60.0348202,,,,,,,,,,,,,,,,,,masks/mask_001.jpg,,,,,,,,,,,,,,,,,,,,,,,,,,,,,,,,,,,,,,,,,,,0,4,4,0,1,,,,,,,,,,,,,,,,,,,,,,,,,,,,,,,,,,,,,,,,,,,,,,
319382,001,2022-11-13_18h28.01.575,Info_measure_main_exp,2022.2.2,Win32,60.0348202,,,,,,,,,,,,,,,,,,masks/mask_004.jpg,,,,,,,,,,,,,,,,,,,,,,,,,,,,,,,,,,,,,,,,,,,,,,,,0,0,0,3,1,,,,,,,,,,,,,,,,,,,,,,,,,,,,,,,,,,,,,,,,,
319382,001,2022-11-13_18h28.01.575,Info_measure_main_exp,2022.2.2,Win32,60.0348202,,,,,,,,,,,,,,,,,,masks/mask_002.jpg,,,,,,,,,,,,,,,,,,,,,,,,,,,,,,,,,,,,,,,,,,,,,,,,0,1,1,1,1,,,,,,,,,,,,,,,,,,,,,,,,,,,,,,,,,,,,,,,,,
319382,001,2022-11-13_18h28.01.575,Info_measure_main_exp,2022.2.2,Win32,60.0348202,,,,,,,,,,,,,,,,,,masks/mask_003.jpg,,,,,,,,,,,,,,,,,,,,,,,,,,,,,,,,,,,,,,,,,,,,,,,,0,2,2,2,1,,,,,,,,,,,,,,,,,,,,,,,,,,,,,,,,,,,,,,,,,
319382,001,2022-11-13_18h28.01.575,Info_measure_main_exp,2022.2.2,Win32,60.0348202,,,,,,,,,,,,,,,,,,masks/mask_005.jpg,,,,,,,,,,,,,,,,,,,,,,,,,,,,,,,,,,,,,,,,,,,,,,,,0,3,3,4,1,,,,,,,,,,,,,,,,,,,,,,,,,,,,,,,,,,,,,,,,,
319382,001,2022-11-13_18h28.01.575,Info_measure_main_exp,2022.2.2,Win32,60.0348202,,,,,,,,,,,,,,,,,,masks/mask_001.jpg,,,,,,,,,,,,,,,,,,,,,,,,,,,,,,,,,,,,,,,,,,,,,,,,0,4,4,0,1,,,,,,,,,,,,,,,,,,,,,,,,,,,,,,,,,,,,,,,,,
319382,001,2022-11-13_18h28.01.575,Info_measure_main_exp,2022.2.2,Win32,60.0348202,,,,,,,,,,,,,,,,,,,,,,,,,,,,,,4,1.1512,1,,,,,,,,,,,,1,131,5,5,1,2154,present_patch/cong_131_5_a.jpg,absent_patch/patch0002154.jpg,,,,,,,,,,,,,,,,,,,,0.037037037,-0.134259259,1,0,0,response3disk,21,0.006481481,-0.005555556,1,0,0,center_square,0,20,20,87,1,,,,,,,,,,,,,,,,,,,,,,,
319382,001,2022-11-13_18h28.01.575,Info_measure_main_exp,2022.2.2,Win32,60.0348202,,,,,,,,,,,,,,,,,,masks/mask_001.jpg,,,,,,,,,,,,,,,,,,,,,,,,,,,,,,,,,,,,,,,,,,,0,0,0,0,1,,,,,,,,,,,,,,,,,,,,,,,,,,,,,,,,,,,,,,,,,,,,,,
319382,001,2022-11-13_18h28.01.575,Info_measure_main_exp,2022.2.2,Win32,60.0348202,,,,,,,,,,,,,,,,,,masks/mask_002.jpg,,,,,,,,,,,,,,,,,,,,,,,,,,,,,,,,,,,,,,,,,,,0,1,1,1,1,,,,,,,,,,,,,,,,,,,,,,,,,,,,,,,,,,,,,,,,,,,,,,
319382,001,2022-11-13_18h28.01.575,Info_measure_main_exp,2022.2.2,Win32,60.0348202,,,,,,,,,,,,,,,,,,masks/mask_004.jpg,,,,,,,,,,,,,,,,,,,,,,,,,,,,,,,,,,,,,,,,,,,0,2,2,3,1,,,,,,,,,,,,,,,,,,,,,,,,,,,,,,,,,,,,,,,,,,,,,,
319382,001,2022-11-13_18h28.01.575,Info_measure_main_exp,2022.2.2,Win32,60.0348202,,,,,,,,,,,,,,,,,,masks/mask_003.jpg,,,,,,,,,,,,,,,,,,,,,,,,,,,,,,,,,,,,,,,,,,,0,3,3,2,1,,,,,,,,,,,,,,,,,,,,,,,,,,,,,,,,,,,,,,,,,,,,,,
319382,001,2022-11-13_18h28.01.575,Info_measure_main_exp,2022.2.2,Win32,60.0348202,,,,,,,,,,,,,,,,,,masks/mask_005.jpg,,,,,,,,,,,,,,,,,,,,,,,,,,,,,,,,,,,,,,,,,,,0,4,4,4,1,,,,,,,,,,,,,,,,,,,,,,,,,,,,,,,,,,,,,,,,,,,,,,
319382,001,2022-11-13_18h28.01.575,Info_measure_main_exp,2022.2.2,Win32,60.0348202,,,,,,,,,,,,,,,,,,masks/mask_001.jpg,,,,,,,,,,,,,,,,,,,,,,,,,,,,,,,,,,,,,,,,,,,,,,,,0,0,0,0,1,,,,,,,,,,,,,,,,,,,,,,,,,,,,,,,,,,,,,,,,,
319382,001,2022-11-13_18h28.01.575,Info_measure_main_exp,2022.2.2,Win32,60.0348202,,,,,,,,,,,,,,,,,,masks/mask_003.jpg,,,,,,,,,,,,,,,,,,,,,,,,,,,,,,,,,,,,,,,,,,,,,,,,0,1,1,2,1,,,,,,,,,,,,,,,,,,,,,,,,,,,,,,,,,,,,,,,,,
319382,001,2022-11-13_18h28.01.575,Info_measure_main_exp,2022.2.2,Win32,60.0348202,,,,,,,,,,,,,,,,,,masks/mask_004.jpg,,,,,,,,,,,,,,,,,,,,,,,,,,,,,,,,,,,,,,,,,,,,,,,,0,2,2,3,1,,,,,,,,,,,,,,,,,,,,,,,,,,,,,,,,,,,,,,,,,
319382,001,2022-11-13_18h28.01.575,Info_measure_main_exp,2022.2.2,Win32,60.0348202,,,,,,,,,,,,,,,,,,masks/mask_005.jpg,,,,,,,,,,,,,,,,,,,,,,,,,,,,,,,,,,,,,,,,,,,,,,,,0,3,3,4,1,,,,,,,,,,,,,,,,,,,,,,,,,,,,,,,,,,,,,,,,,
319382,001,2022-11-13_18h28.01.575,Info_measure_main_exp,2022.2.2,Win32,60.0348202,,,,,,,,,,,,,,,,,,masks/mask_002.jpg,,,,,,,,,,,,,,,,,,,,,,,,,,,,,,,,,,,,,,,,,,,,,,,,0,4,4,1,1,,,,,,,,,,,,,,,,,,,,,,,,,,,,,,,,,,,,,,,,,
319382,001,2022-11-13_18h28.01.575,Info_measure_main_exp,2022.2.2,Win32,60.0348202,,,,,,,,,,,,,,,,,,,,,,,,,,,,,,7,0.5581,1,,,,,,,,,,,,1,131,5,5,2250,1,absent_patch/patch0002250.jpg,present_patch/cong_131_5_a.jpg,,,,,,,,,,,,,,,,,,,,0.043518519,0.106481481,1,0,0,response1disk,22,-0.003703704,0.012962963,1,0,0,center_square,0,21,21,5,1,,,,,,,,,,,,,,,,,,,,,,,
319382,001,2022-11-13_18h28.01.575,Info_measure_main_exp,2022.2.2,Win32,60.0348202,,,,,,,,,,,,,,,,,,masks/mask_001.jpg,,,,,,,,,,,,,,,,,,,,,,,,,,,,,,,,,,,,,,,,,,,0,0,0,0,1,,,,,,,,,,,,,,,,,,,,,,,,,,,,,,,,,,,,,,,,,,,,,,
319382,001,2022-11-13_18h28.01.575,Info_measure_main_exp,2022.2.2,Win32,60.0348202,,,,,,,,,,,,,,,,,,masks/mask_003.jpg,,,,,,,,,,,,,,,,,,,,,,,,,,,,,,,,,,,,,,,,,,,0,1,1,2,1,,,,,,,,,,,,,,,,,,,,,,,,,,,,,,,,,,,,,,,,,,,,,,
319382,001,2022-11-13_18h28.01.575,Info_measure_main_exp,2022.2.2,Win32,60.0348202,,,,,,,,,,,,,,,,,,masks/mask_002.jpg,,,,,,,,,,,,,,,,,,,,,,,,,,,,,,,,,,,,,,,,,,,0,2,2,1,1,,,,,,,,,,,,,,,,,,,,,,,,,,,,,,,,,,,,,,,,,,,,,,
319382,001,2022-11-13_18h28.01.575,Info_measure_main_exp,2022.2.2,Win32,60.0348202,,,,,,,,,,,,,,,,,,masks/mask_004.jpg,,,,,,,,,,,,,,,,,,,,,,,,,,,,,,,,,,,,,,,,,,,0,3,3,3,1,,,,,,,,,,,,,,,,,,,,,,,,,,,,,,,,,,,,,,,,,,,,,,
319382,001,2022-11-13_18h28.01.575,Info_measure_main_exp,2022.2.2,Win32,60.0348202,,,,,,,,,,,,,,,,,,masks/mask_005.jpg,,,,,,,,,,,,,,,,,,,,,,,,,,,,,,,,,,,,,,,,,,,0,4,4,4,1,,,,,,,,,,,,,,,,,,,,,,,,,,,,,,,,,,,,,,,,,,,,,,
319382,001,2022-11-13_18h28.01.575,Info_measure_main_exp,2022.2.2,Win32,60.0348202,,,,,,,,,,,,,,,,,,masks/mask_005.jpg,,,,,,,,,,,,,,,,,,,,,,,,,,,,,,,,,,,,,,,,,,,,,,,,0,0,0,4,1,,,,,,,,,,,,,,,,,,,,,,,,,,,,,,,,,,,,,,,,,
319382,001,2022-11-13_18h28.01.575,Info_measure_main_exp,2022.2.2,Win32,60.0348202,,,,,,,,,,,,,,,,,,masks/mask_004.jpg,,,,,,,,,,,,,,,,,,,,,,,,,,,,,,,,,,,,,,,,,,,,,,,,0,1,1,3,1,,,,,,,,,,,,,,,,,,,,,,,,,,,,,,,,,,,,,,,,,
319382,001,2022-11-13_18h28.01.575,Info_measure_main_exp,2022.2.2,Win32,60.0348202,,,,,,,,,,,,,,,,,,masks/mask_002.jpg,,,,,,,,,,,,,,,,,,,,,,,,,,,,,,,,,,,,,,,,,,,,,,,,0,2,2,1,1,,,,,,,,,,,,,,,,,,,,,,,,,,,,,,,,,,,,,,,,,
319382,001,2022-11-13_18h28.01.575,Info_measure_main_exp,2022.2.2,Win32,60.0348202,,,,,,,,,,,,,,,,,,masks/mask_003.jpg,,,,,,,,,,,,,,,,,,,,,,,,,,,,,,,,,,,,,,,,,,,,,,,,0,3,3,2,1,,,,,,,,,,,,,,,,,,,,,,,,,,,,,,,,,,,,,,,,,
319382,001,2022-11-13_18h28.01.575,Info_measure_main_exp,2022.2.2,Win32,60.0348202,,,,,,,,,,,,,,,,,,masks/mask_001.jpg,,,,,,,,,,,,,,,,,,,,,,,,,,,,,,,,,,,,,,,,,,,,,,,,0,4,4,0,1,,,,,,,,,,,,,,,,,,,,,,,,,,,,,,,,,,,,,,,,,
319382,001,2022-11-13_18h28.01.575,Info_measure_main_exp,2022.2.2,Win32,60.0348202,,,,,,,,,,,,,,,,,,,,,,,,,,,,,,7,0.3918,1,,,,,,,,,,,,0,131,5,5,2250,2166,absent_patch/patch0002250.jpg,absent_patch/patch0002166.jpg,,,,,,,,,,,,,,,,,,,,0.037037037,0.078703704,1,0,0,response1disk,23,-0.006481481,-0.000925926,1,0,0,center_square,0,22,22,60,1,,,,,,,,,,,,,,,,,,,,,,,
319382,001,2022-11-13_18h28.01.575,Info_measure_main_exp,2022.2.2,Win32,60.0348202,,,,,,,,,,,,,,,,,,masks/mask_002.jpg,,,,,,,,,,,,,,,,,,,,,,,,,,,,,,,,,,,,,,,,,,,0,0,0,1,1,,,,,,,,,,,,,,,,,,,,,,,,,,,,,,,,,,,,,,,,,,,,,,
319382,001,2022-11-13_18h28.01.575,Info_measure_main_exp,2022.2.2,Win32,60.0348202,,,,,,,,,,,,,,,,,,masks/mask_001.jpg,,,,,,,,,,,,,,,,,,,,,,,,,,,,,,,,,,,,,,,,,,,0,1,1,0,1,,,,,,,,,,,,,,,,,,,,,,,,,,,,,,,,,,,,,,,,,,,,,,
319382,001,2022-11-13_18h28.01.575,Info_measure_main_exp,2022.2.2,Win32,60.0348202,,,,,,,,,,,,,,,,,,masks/mask_004.jpg,,,,,,,,,,,,,,,,,,,,,,,,,,,,,,,,,,,,,,,,,,,0,2,2,3,1,,,,,,,,,,,,,,,,,,,,,,,,,,,,,,,,,,,,,,,,,,,,,,
319382,001,2022-11-13_18h28.01.575,Info_measure_main_exp,2022.2.2,Win32,60.0348202,,,,,,,,,,,,,,,,,,masks/mask_003.jpg,,,,,,,,,,,,,,,,,,,,,,,,,,,,,,,,,,,,,,,,,,,0,3,3,2,1,,,,,,,,,,,,,,,,,,,,,,,,,,,,,,,,,,,,,,,,,,,,,,
319382,001,2022-11-13_18h28.01.575,Info_measure_main_exp,2022.2.2,Win32,60.0348202,,,,,,,,,,,,,,,,,,masks/mask_005.jpg,,,,,,,,,,,,,,,,,,,,,,,,,,,,,,,,,,,,,,,,,,,0,4,4,4,1,,,,,,,,,,,,,,,,,,,,,,,,,,,,,,,,,,,,,,,,,,,,,,
319382,001,2022-11-13_18h28.01.575,Info_measure_main_exp,2022.2.2,Win32,60.0348202,,,,,,,,,,,,,,,,,,masks/mask_003.jpg,,,,,,,,,,,,,,,,,,,,,,,,,,,,,,,,,,,,,,,,,,,,,,,,0,0,0,2,1,,,,,,,,,,,,,,,,,,,,,,,,,,,,,,,,,,,,,,,,,
319382,001,2022-11-13_18h28.01.575,Info_measure_main_exp,2022.2.2,Win32,60.0348202,,,,,,,,,,,,,,,,,,masks/mask_002.jpg,,,,,,,,,,,,,,,,,,,,,,,,,,,,,,,,,,,,,,,,,,,,,,,,0,1,1,1,1,,,,,,,,,,,,,,,,,,,,,,,,,,,,,,,,,,,,,,,,,
319382,001,2022-11-13_18h28.01.575,Info_measure_main_exp,2022.2.2,Win32,60.0348202,,,,,,,,,,,,,,,,,,masks/mask_005.jpg,,,,,,,,,,,,,,,,,,,,,,,,,,,,,,,,,,,,,,,,,,,,,,,,0,2,2,4,1,,,,,,,,,,,,,,,,,,,,,,,,,,,,,,,,,,,,,,,,,
319382,001,2022-11-13_18h28.01.575,Info_measure_main_exp,2022.2.2,Win32,60.0348202,,,,,,,,,,,,,,,,,,masks/mask_001.jpg,,,,,,,,,,,,,,,,,,,,,,,,,,,,,,,,,,,,,,,,,,,,,,,,0,3,3,0,1,,,,,,,,,,,,,,,,,,,,,,,,,,,,,,,,,,,,,,,,,
319382,001,2022-11-13_18h28.01.575,Info_measure_main_exp,2022.2.2,Win32,60.0348202,,,,,,,,,,,,,,,,,,masks/mask_004.jpg,,,,,,,,,,,,,,,,,,,,,,,,,,,,,,,,,,,,,,,,,,,,,,,,0,4,4,3,1,,,,,,,,,,,,,,,,,,,,,,,,,,,,,,,,,,,,,,,,,
319382,001,2022-11-13_18h28.01.575,Info_measure_main_exp,2022.2.2,Win32,60.0348202,,,,,,,,,,,,,,,,,,,,,,,,,,,,,,7,0.425,1,,,,,,,,,,,,0,131,5,5,1986,1974,absent_patch/patch0001986.jpg,absent_patch/patch0001974.jpg,,,,,,,,,,,,,,,,,,,,0.047222222,0.102777778,1,0,0,response1disk,24,-0.014814815,0,1,0,0,center_square,0,23,23,25,1,,,,,,,,,,,,,,,,,,,,,,,
319382,001,2022-11-13_18h28.01.575,Info_measure_main_exp,2022.2.2,Win32,60.0348202,,,,,,,,,,,,,,,,,,masks/mask_004.jpg,,,,,,,,,,,,,,,,,,,,,,,,,,,,,,,,,,,,,,,,,,,0,0,0,3,1,,,,,,,,,,,,,,,,,,,,,,,,,,,,,,,,,,,,,,,,,,,,,,
319382,001,2022-11-13_18h28.01.575,Info_measure_main_exp,2022.2.2,Win32,60.0348202,,,,,,,,,,,,,,,,,,masks/mask_002.jpg,,,,,,,,,,,,,,,,,,,,,,,,,,,,,,,,,,,,,,,,,,,0,1,1,1,1,,,,,,,,,,,,,,,,,,,,,,,,,,,,,,,,,,,,,,,,,,,,,,
319382,001,2022-11-13_18h28.01.575,Info_measure_main_exp,2022.2.2,Win32,60.0348202,,,,,,,,,,,,,,,,,,masks/mask_001.jpg,,,,,,,,,,,,,,,,,,,,,,,,,,,,,,,,,,,,,,,,,,,0,2,2,0,1,,,,,,,,,,,,,,,,,,,,,,,,,,,,,,,,,,,,,,,,,,,,,,
319382,001,2022-11-13_18h28.01.575,Info_measure_main_exp,2022.2.2,Win32,60.0348202,,,,,,,,,,,,,,,,,,masks/mask_005.jpg,,,,,,,,,,,,,,,,,,,,,,,,,,,,,,,,,,,,,,,,,,,0,3,3,4,1,,,,,,,,,,,,,,,,,,,,,,,,,,,,,,,,,,,,,,,,,,,,,,
319382,001,2022-11-13_18h28.01.575,Info_measure_main_exp,2022.2.2,Win32,60.0348202,,,,,,,,,,,,,,,,,,masks/mask_003.jpg,,,,,,,,,,,,,,,,,,,,,,,,,,,,,,,,,,,,,,,,,,,0,4,4,2,1,,,,,,,,,,,,,,,,,,,,,,,,,,,,,,,,,,,,,,,,,,,,,,
319382,001,2022-11-13_18h28.01.575,Info_measure_main_exp,2022.2.2,Win32,60.0348202,,,,,,,,,,,,,,,,,,masks/mask_005.jpg,,,,,,,,,,,,,,,,,,,,,,,,,,,,,,,,,,,,,,,,,,,,,,,,0,0,0,4,1,,,,,,,,,,,,,,,,,,,,,,,,,,,,,,,,,,,,,,,,,
319382,001,2022-11-13_18h28.01.575,Info_measure_main_exp,2022.2.2,Win32,60.0348202,,,,,,,,,,,,,,,,,,masks/mask_001.jpg,,,,,,,,,,,,,,,,,,,,,,,,,,,,,,,,,,,,,,,,,,,,,,,,0,1,1,0,1,,,,,,,,,,,,,,,,,,,,,,,,,,,,,,,,,,,,,,,,,
319382,001,2022-11-13_18h28.01.575,Info_measure_main_exp,2022.2.2,Win32,60.0348202,,,,,,,,,,,,,,,,,,masks/mask_003.jpg,,,,,,,,,,,,,,,,,,,,,,,,,,,,,,,,,,,,,,,,,,,,,,,,0,2,2,2,1,,,,,,,,,,,,,,,,,,,,,,,,,,,,,,,,,,,,,,,,,
319382,001,2022-11-13_18h28.01.575,Info_measure_main_exp,2022.2.2,Win32,60.0348202,,,,,,,,,,,,,,,,,,masks/mask_002.jpg,,,,,,,,,,,,,,,,,,,,,,,,,,,,,,,,,,,,,,,,,,,,,,,,0,3,3,1,1,,,,,,,,,,,,,,,,,,,,,,,,,,,,,,,,,,,,,,,,,
319382,001,2022-11-13_18h28.01.575,Info_measure_main_exp,2022.2.2,Win32,60.0348202,,,,,,,,,,,,,,,,,,masks/mask_004.jpg,,,,,,,,,,,,,,,,,,,,,,,,,,,,,,,,,,,,,,,,,,,,,,,,0,4,4,3,1,,,,,,,,,,,,,,,,,,,,,,,,,,,,,,,,,,,,,,,,,
319382,001,2022-11-13_18h28.01.575,Info_measure_main_exp,2022.2.2,Win32,60.0348202,,,,,,,,,,,,,,,,,,,,,,,,,,,,,,7,0.4047,1,,,,,,,,,,,,1,131,5,5,1950,1,absent_patch/patch0001950.jpg,present_patch/cong_131_5_a.jpg,,,,,,,,,,,,,,,,,,,,0.098148148,0.121296296,1,0,0,response1disk,25,-0.000925926,-0.000925926,1,0,0,center_square,0,24,24,39,1,,,,,,,,,,,,,,,,,,,,,,,
319382,001,2022-11-13_18h28.01.575,Info_measure_main_exp,2022.2.2,Win32,60.0348202,,,,,,,,,,,,,,,,,,masks/mask_005.jpg,,,,,,,,,,,,,,,,,,,,,,,,,,,,,,,,,,,,,,,,,,,0,0,0,4,1,,,,,,,,,,,,,,,,,,,,,,,,,,,,,,,,,,,,,,,,,,,,,,
319382,001,2022-11-13_18h28.01.575,Info_measure_main_exp,2022.2.2,Win32,60.0348202,,,,,,,,,,,,,,,,,,masks/mask_004.jpg,,,,,,,,,,,,,,,,,,,,,,,,,,,,,,,,,,,,,,,,,,,0,1,1,3,1,,,,,,,,,,,,,,,,,,,,,,,,,,,,,,,,,,,,,,,,,,,,,,
319382,001,2022-11-13_18h28.01.575,Info_measure_main_exp,2022.2.2,Win32,60.0348202,,,,,,,,,,,,,,,,,,masks/mask_002.jpg,,,,,,,,,,,,,,,,,,,,,,,,,,,,,,,,,,,,,,,,,,,0,2,2,1,1,,,,,,,,,,,,,,,,,,,,,,,,,,,,,,,,,,,,,,,,,,,,,,
319382,001,2022-11-13_18h28.01.575,Info_measure_main_exp,2022.2.2,Win32,60.0348202,,,,,,,,,,,,,,,,,,masks/mask_001.jpg,,,,,,,,,,,,,,,,,,,,,,,,,,,,,,,,,,,,,,,,,,,0,3,3,0,1,,,,,,,,,,,,,,,,,,,,,,,,,,,,,,,,,,,,,,,,,,,,,,
319382,001,2022-11-13_18h28.01.575,Info_measure_main_exp,2022.2.2,Win32,60.0348202,,,,,,,,,,,,,,,,,,masks/mask_003.jpg,,,,,,,,,,,,,,,,,,,,,,,,,,,,,,,,,,,,,,,,,,,0,4,4,2,1,,,,,,,,,,,,,,,,,,,,,,,,,,,,,,,,,,,,,,,,,,,,,,
319382,001,2022-11-13_18h28.01.575,Info_measure_main_exp,2022.2.2,Win32,60.0348202,,,,,,,,,,,,,,,,,,masks/mask_001.jpg,,,,,,,,,,,,,,,,,,,,,,,,,,,,,,,,,,,,,,,,,,,,,,,,0,0,0,0,1,,,,,,,,,,,,,,,,,,,,,,,,,,,,,,,,,,,,,,,,,
319382,001,2022-11-13_18h28.01.575,Info_measure_main_exp,2022.2.2,Win32,60.0348202,,,,,,,,,,,,,,,,,,masks/mask_003.jpg,,,,,,,,,,,,,,,,,,,,,,,,,,,,,,,,,,,,,,,,,,,,,,,,0,1,1,2,1,,,,,,,,,,,,,,,,,,,,,,,,,,,,,,,,,,,,,,,,,
319382,001,2022-11-13_18h28.01.575,Info_measure_main_exp,2022.2.2,Win32,60.0348202,,,,,,,,,,,,,,,,,,masks/mask_002.jpg,,,,,,,,,,,,,,,,,,,,,,,,,,,,,,,,,,,,,,,,,,,,,,,,0,2,2,1,1,,,,,,,,,,,,,,,,,,,,,,,,,,,,,,,,,,,,,,,,,
319382,001,2022-11-13_18h28.01.575,Info_measure_main_exp,2022.2.2,Win32,60.0348202,,,,,,,,,,,,,,,,,,masks/mask_005.jpg,,,,,,,,,,,,,,,,,,,,,,,,,,,,,,,,,,,,,,,,,,,,,,,,0,3,3,4,1,,,,,,,,,,,,,,,,,,,,,,,,,,,,,,,,,,,,,,,,,
319382,001,2022-11-13_18h28.01.575,Info_measure_main_exp,2022.2.2,Win32,60.0348202,,,,,,,,,,,,,,,,,,masks/mask_004.jpg,,,,,,,,,,,,,,,,,,,,,,,,,,,,,,,,,,,,,,,,,,,,,,,,0,4,4,3,1,,,,,,,,,,,,,,,,,,,,,,,,,,,,,,,,,,,,,,,,,
319382,001,2022-11-13_18h28.01.575,Info_measure_main_exp,2022.2.2,Win32,60.0348202,,,,,,,,,,,,,,,,,,,,,,,,,,,,,,7,1.1769,1,,,,,,,,,,,,0,131,5,5,2238,2166,absent_patch/patch0002238.jpg,absent_patch/patch0002166.jpg,,,,,,,,,,,,,,,,,,,,0.072222222,0.116666667,1,0,0,response1disk,26,0.005555556,0.002777778,1,0,0,center_square,0,25,25,118,1,,,,,,,,,,,,,,,,,,,,,,,
319382,001,2022-11-13_18h28.01.575,Info_measure_main_exp,2022.2.2,Win32,60.0348202,,,,,,,,,,,,,,,,,,masks/mask_002.jpg,,,,,,,,,,,,,,,,,,,,,,,,,,,,,,,,,,,,,,,,,,,0,0,0,1,1,,,,,,,,,,,,,,,,,,,,,,,,,,,,,,,,,,,,,,,,,,,,,,
319382,001,2022-11-13_18h28.01.575,Info_measure_main_exp,2022.2.2,Win32,60.0348202,,,,,,,,,,,,,,,,,,masks/mask_004.jpg,,,,,,,,,,,,,,,,,,,,,,,,,,,,,,,,,,,,,,,,,,,0,1,1,3,1,,,,,,,,,,,,,,,,,,,,,,,,,,,,,,,,,,,,,,,,,,,,,,
319382,001,2022-11-13_18h28.01.575,Info_measure_main_exp,2022.2.2,Win32,60.0348202,,,,,,,,,,,,,,,,,,masks/mask_001.jpg,,,,,,,,,,,,,,,,,,,,,,,,,,,,,,,,,,,,,,,,,,,0,2,2,0,1,,,,,,,,,,,,,,,,,,,,,,,,,,,,,,,,,,,,,,,,,,,,,,
319382,001,2022-11-13_18h28.01.575,Info_measure_main_exp,2022.2.2,Win32,60.0348202,,,,,,,,,,,,,,,,,,masks/mask_003.jpg,,,,,,,,,,,,,,,,,,,,,,,,,,,,,,,,,,,,,,,,,,,0,3,3,2,1,,,,,,,,,,,,,,,,,,,,,,,,,,,,,,,,,,,,,,,,,,,,,,
319382,001,2022-11-13_18h28.01.575,Info_measure_main_exp,2022.2.2,Win32,60.0348202,,,,,,,,,,,,,,,,,,masks/mask_005.jpg,,,,,,,,,,,,,,,,,,,,,,,,,,,,,,,,,,,,,,,,,,,0,4,4,4,1,,,,,,,,,,,,,,,,,,,,,,,,,,,,,,,,,,,,,,,,,,,,,,
319382,001,2022-11-13_18h28.01.575,Info_measure_main_exp,2022.2.2,Win32,60.0348202,,,,,,,,,,,,,,,,,,masks/mask_002.jpg,,,,,,,,,,,,,,,,,,,,,,,,,,,,,,,,,,,,,,,,,,,,,,,,0,0,0,1,1,,,,,,,,,,,,,,,,,,,,,,,,,,,,,,,,,,,,,,,,,
319382,001,2022-11-13_18h28.01.575,Info_measure_main_exp,2022.2.2,Win32,60.0348202,,,,,,,,,,,,,,,,,,masks/mask_005.jpg,,,,,,,,,,,,,,,,,,,,,,,,,,,,,,,,,,,,,,,,,,,,,,,,0,1,1,4,1,,,,,,,,,,,,,,,,,,,,,,,,,,,,,,,,,,,,,,,,,
319382,001,2022-11-13_18h28.01.575,Info_measure_main_exp,2022.2.2,Win32,60.0348202,,,,,,,,,,,,,,,,,,masks/mask_003.jpg,,,,,,,,,,,,,,,,,,,,,,,,,,,,,,,,,,,,,,,,,,,,,,,,0,2,2,2,1,,,,,,,,,,,,,,,,,,,,,,,,,,,,,,,,,,,,,,,,,
319382,001,2022-11-13_18h28.01.575,Info_measure_main_exp,2022.2.2,Win32,60.0348202,,,,,,,,,,,,,,,,,,masks/mask_004.jpg,,,,,,,,,,,,,,,,,,,,,,,,,,,,,,,,,,,,,,,,,,,,,,,,0,3,3,3,1,,,,,,,,,,,,,,,,,,,,,,,,,,,,,,,,,,,,,,,,,
319382,001,2022-11-13_18h28.01.575,Info_measure_main_exp,2022.2.2,Win32,60.0348202,,,,,,,,,,,,,,,,,,masks/mask_001.jpg,,,,,,,,,,,,,,,,,,,,,,,,,,,,,,,,,,,,,,,,,,,,,,,,0,4,4,0,1,,,,,,,,,,,,,,,,,,,,,,,,,,,,,,,,,,,,,,,,,
319382,001,2022-11-13_18h28.01.575,Info_measure_main_exp,2022.2.2,Win32,60.0348202,,,,,,,,,,,,,,,,,,,,,,,,,,,,,,6,1.0346,1,,,,,,,,,,,,0,131,5,5,2214,2082,absent_patch/patch0002214.jpg,absent_patch/patch0002082.jpg,,,,,,,,,,,,,,,,,,,,0.156481481,0.042592593,1,0,0,response1disk,27,0.002777778,0.003703704,1,0,0,center_square,0,26,26,103,1,,,,,,,,,,,,,,,,,,,,,,,
319382,001,2022-11-13_18h28.01.575,Info_measure_main_exp,2022.2.2,Win32,60.0348202,,,,,,,,,,,,,,,,,,masks/mask_003.jpg,,,,,,,,,,,,,,,,,,,,,,,,,,,,,,,,,,,,,,,,,,,0,0,0,2,1,,,,,,,,,,,,,,,,,,,,,,,,,,,,,,,,,,,,,,,,,,,,,,
319382,001,2022-11-13_18h28.01.575,Info_measure_main_exp,2022.2.2,Win32,60.0348202,,,,,,,,,,,,,,,,,,masks/mask_001.jpg,,,,,,,,,,,,,,,,,,,,,,,,,,,,,,,,,,,,,,,,,,,0,1,1,0,1,,,,,,,,,,,,,,,,,,,,,,,,,,,,,,,,,,,,,,,,,,,,,,
319382,001,2022-11-13_18h28.01.575,Info_measure_main_exp,2022.2.2,Win32,60.0348202,,,,,,,,,,,,,,,,,,masks/mask_004.jpg,,,,,,,,,,,,,,,,,,,,,,,,,,,,,,,,,,,,,,,,,,,0,2,2,3,1,,,,,,,,,,,,,,,,,,,,,,,,,,,,,,,,,,,,,,,,,,,,,,
319382,001,2022-11-13_18h28.01.575,Info_measure_main_exp,2022.2.2,Win32,60.0348202,,,,,,,,,,,,,,,,,,masks/mask_005.jpg,,,,,,,,,,,,,,,,,,,,,,,,,,,,,,,,,,,,,,,,,,,0,3,3,4,1,,,,,,,,,,,,,,,,,,,,,,,,,,,,,,,,,,,,,,,,,,,,,,
319382,001,2022-11-13_18h28.01.575,Info_measure_main_exp,2022.2.2,Win32,60.0348202,,,,,,,,,,,,,,,,,,masks/mask_002.jpg,,,,,,,,,,,,,,,,,,,,,,,,,,,,,,,,,,,,,,,,,,,0,4,4,1,1,,,,,,,,,,,,,,,,,,,,,,,,,,,,,,,,,,,,,,,,,,,,,,
319382,001,2022-11-13_18h28.01.575,Info_measure_main_exp,2022.2.2,Win32,60.0348202,,,,,,,,,,,,,,,,,,masks/mask_001.jpg,,,,,,,,,,,,,,,,,,,,,,,,,,,,,,,,,,,,,,,,,,,,,,,,0,0,0,0,1,,,,,,,,,,,,,,,,,,,,,,,,,,,,,,,,,,,,,,,,,
319382,001,2022-11-13_18h28.01.575,Info_measure_main_exp,2022.2.2,Win32,60.0348202,,,,,,,,,,,,,,,,,,masks/mask_005.jpg,,,,,,,,,,,,,,,,,,,,,,,,,,,,,,,,,,,,,,,,,,,,,,,,0,1,1,4,1,,,,,,,,,,,,,,,,,,,,,,,,,,,,,,,,,,,,,,,,,
319382,001,2022-11-13_18h28.01.575,Info_measure_main_exp,2022.2.2,Win32,60.0348202,,,,,,,,,,,,,,,,,,masks/mask_004.jpg,,,,,,,,,,,,,,,,,,,,,,,,,,,,,,,,,,,,,,,,,,,,,,,,0,2,2,3,1,,,,,,,,,,,,,,,,,,,,,,,,,,,,,,,,,,,,,,,,,
319382,001,2022-11-13_18h28.01.575,Info_measure_main_exp,2022.2.2,Win32,60.0348202,,,,,,,,,,,,,,,,,,masks/mask_002.jpg,,,,,,,,,,,,,,,,,,,,,,,,,,,,,,,,,,,,,,,,,,,,,,,,0,3,3,1,1,,,,,,,,,,,,,,,,,,,,,,,,,,,,,,,,,,,,,,,,,
319382,001,2022-11-13_18h28.01.575,Info_measure_main_exp,2022.2.2,Win32,60.0348202,,,,,,,,,,,,,,,,,,masks/mask_003.jpg,,,,,,,,,,,,,,,,,,,,,,,,,,,,,,,,,,,,,,,,,,,,,,,,0,4,4,2,1,,,,,,,,,,,,,,,,,,,,,,,,,,,,,,,,,,,,,,,,,
319382,001,2022-11-13_18h28.01.575,Info_measure_main_exp,2022.2.2,Win32,60.0348202,,,,,,,,,,,,,,,,,,,,,,,,,,,,,,7,0.5674,1,,,,,,,,,,,,0,131,5,5,2190,2214,absent_patch/patch0002190.jpg,absent_patch/patch0002214.jpg,,,,,,,,,,,,,,,,,,,,0.051851852,0.099074074,1,0,0,response1disk,28,-0.006481481,0.009259259,1,0,0,center_square,0,27,27,35,1,,,,,,,,,,,,,,,,,,,,,,,
319382,001,2022-11-13_18h28.01.575,Info_measure_main_exp,2022.2.2,Win32,60.0348202,,,,,,,,,,,,,,,,,,masks/mask_002.jpg,,,,,,,,,,,,,,,,,,,,,,,,,,,,,,,,,,,,,,,,,,,0,0,0,1,1,,,,,,,,,,,,,,,,,,,,,,,,,,,,,,,,,,,,,,,,,,,,,,
319382,001,2022-11-13_18h28.01.575,Info_measure_main_exp,2022.2.2,Win32,60.0348202,,,,,,,,,,,,,,,,,,masks/mask_003.jpg,,,,,,,,,,,,,,,,,,,,,,,,,,,,,,,,,,,,,,,,,,,0,1,1,2,1,,,,,,,,,,,,,,,,,,,,,,,,,,,,,,,,,,,,,,,,,,,,,,
319382,001,2022-11-13_18h28.01.575,Info_measure_main_exp,2022.2.2,Win32,60.0348202,,,,,,,,,,,,,,,,,,masks/mask_004.jpg,,,,,,,,,,,,,,,,,,,,,,,,,,,,,,,,,,,,,,,,,,,0,2,2,3,1,,,,,,,,,,,,,,,,,,,,,,,,,,,,,,,,,,,,,,,,,,,,,,
319382,001,2022-11-13_18h28.01.575,Info_measure_main_exp,2022.2.2,Win32,60.0348202,,,,,,,,,,,,,,,,,,masks/mask_001.jpg,,,,,,,,,,,,,,,,,,,,,,,,,,,,,,,,,,,,,,,,,,,0,3,3,0,1,,,,,,,,,,,,,,,,,,,,,,,,,,,,,,,,,,,,,,,,,,,,,,
319382,001,2022-11-13_18h28.01.575,Info_measure_main_exp,2022.2.2,Win32,60.0348202,,,,,,,,,,,,,,,,,,masks/mask_005.jpg,,,,,,,,,,,,,,,,,,,,,,,,,,,,,,,,,,,,,,,,,,,0,4,4,4,1,,,,,,,,,,,,,,,,,,,,,,,,,,,,,,,,,,,,,,,,,,,,,,
319382,001,2022-11-13_18h28.01.575,Info_measure_main_exp,2022.2.2,Win32,60.0348202,,,,,,,,,,,,,,,,,,masks/mask_005.jpg,,,,,,,,,,,,,,,,,,,,,,,,,,,,,,,,,,,,,,,,,,,,,,,,0,0,0,4,1,,,,,,,,,,,,,,,,,,,,,,,,,,,,,,,,,,,,,,,,,
319382,001,2022-11-13_18h28.01.575,Info_measure_main_exp,2022.2.2,Win32,60.0348202,,,,,,,,,,,,,,,,,,masks/mask_002.jpg,,,,,,,,,,,,,,,,,,,,,,,,,,,,,,,,,,,,,,,,,,,,,,,,0,1,1,1,1,,,,,,,,,,,,,,,,,,,,,,,,,,,,,,,,,,,,,,,,,
319382,001,2022-11-13_18h28.01.575,Info_measure_main_exp,2022.2.2,Win32,60.0348202,,,,,,,,,,,,,,,,,,masks/mask_003.jpg,,,,,,,,,,,,,,,,,,,,,,,,,,,,,,,,,,,,,,,,,,,,,,,,0,2,2,2,1,,,,,,,,,,,,,,,,,,,,,,,,,,,,,,,,,,,,,,,,,
319382,001,2022-11-13_18h28.01.575,Info_measure_main_exp,2022.2.2,Win32,60.0348202,,,,,,,,,,,,,,,,,,masks/mask_001.jpg,,,,,,,,,,,,,,,,,,,,,,,,,,,,,,,,,,,,,,,,,,,,,,,,0,3,3,0,1,,,,,,,,,,,,,,,,,,,,,,,,,,,,,,,,,,,,,,,,,
319382,001,2022-11-13_18h28.01.575,Info_measure_main_exp,2022.2.2,Win32,60.0348202,,,,,,,,,,,,,,,,,,masks/mask_004.jpg,,,,,,,,,,,,,,,,,,,,,,,,,,,,,,,,,,,,,,,,,,,,,,,,0,4,4,3,1,,,,,,,,,,,,,,,,,,,,,,,,,,,,,,,,,,,,,,,,,
319382,001,2022-11-13_18h28.01.575,Info_measure_main_exp,2022.2.2,Win32,60.0348202,,,,,,,,,,,,,,,,,,,,,,,,,,,,,,7,0.4746,1,,,,,,,,,,,,1,131,5,5,1,2166,present_patch/cong_131_5_a.jpg,absent_patch/patch0002166.jpg,,,,,,,,,,,,,,,,,,,,0.036111111,0.115740741,1,0,0,response1disk,29,-0.009259259,0.002777778,1,0,0,center_square,0,28,28,54,1,,,,,,,,,,,,,,,,,,,,,,,
319382,001,2022-11-13_18h28.01.575,Info_measure_main_exp,2022.2.2,Win32,60.0348202,,,,,,,,,,,,,,,,,,masks/mask_004.jpg,,,,,,,,,,,,,,,,,,,,,,,,,,,,,,,,,,,,,,,,,,,0,0,0,3,1,,,,,,,,,,,,,,,,,,,,,,,,,,,,,,,,,,,,,,,,,,,,,,
319382,001,2022-11-13_18h28.01.575,Info_measure_main_exp,2022.2.2,Win32,60.0348202,,,,,,,,,,,,,,,,,,masks/mask_005.jpg,,,,,,,,,,,,,,,,,,,,,,,,,,,,,,,,,,,,,,,,,,,0,1,1,4,1,,,,,,,,,,,,,,,,,,,,,,,,,,,,,,,,,,,,,,,,,,,,,,
319382,001,2022-11-13_18h28.01.575,Info_measure_main_exp,2022.2.2,Win32,60.0348202,,,,,,,,,,,,,,,,,,masks/mask_002.jpg,,,,,,,,,,,,,,,,,,,,,,,,,,,,,,,,,,,,,,,,,,,0,2,2,1,1,,,,,,,,,,,,,,,,,,,,,,,,,,,,,,,,,,,,,,,,,,,,,,
319382,001,2022-11-13_18h28.01.575,Info_measure_main_exp,2022.2.2,Win32,60.0348202,,,,,,,,,,,,,,,,,,masks/mask_003.jpg,,,,,,,,,,,,,,,,,,,,,,,,,,,,,,,,,,,,,,,,,,,0,3,3,2,1,,,,,,,,,,,,,,,,,,,,,,,,,,,,,,,,,,,,,,,,,,,,,,
319382,001,2022-11-13_18h28.01.575,Info_measure_main_exp,2022.2.2,Win32,60.0348202,,,,,,,,,,,,,,,,,,masks/mask_001.jpg,,,,,,,,,,,,,,,,,,,,,,,,,,,,,,,,,,,,,,,,,,,0,4,4,0,1,,,,,,,,,,,,,,,,,,,,,,,,,,,,,,,,,,,,,,,,,,,,,,
319382,001,2022-11-13_18h28.01.575,Info_measure_main_exp,2022.2.2,Win32,60.0348202,,,,,,,,,,,,,,,,,,masks/mask_005.jpg,,,,,,,,,,,,,,,,,,,,,,,,,,,,,,,,,,,,,,,,,,,,,,,,0,0,0,4,1,,,,,,,,,,,,,,,,,,,,,,,,,,,,,,,,,,,,,,,,,
319382,001,2022-11-13_18h28.01.575,Info_measure_main_exp,2022.2.2,Win32,60.0348202,,,,,,,,,,,,,,,,,,masks/mask_001.jpg,,,,,,,,,,,,,,,,,,,,,,,,,,,,,,,,,,,,,,,,,,,,,,,,0,1,1,0,1,,,,,,,,,,,,,,,,,,,,,,,,,,,,,,,,,,,,,,,,,
319382,001,2022-11-13_18h28.01.575,Info_measure_main_exp,2022.2.2,Win32,60.0348202,,,,,,,,,,,,,,,,,,masks/mask_003.jpg,,,,,,,,,,,,,,,,,,,,,,,,,,,,,,,,,,,,,,,,,,,,,,,,0,2,2,2,1,,,,,,,,,,,,,,,,,,,,,,,,,,,,,,,,,,,,,,,,,
319382,001,2022-11-13_18h28.01.575,Info_measure_main_exp,2022.2.2,Win32,60.0348202,,,,,,,,,,,,,,,,,,masks/mask_004.jpg,,,,,,,,,,,,,,,,,,,,,,,,,,,,,,,,,,,,,,,,,,,,,,,,0,3,3,3,1,,,,,,,,,,,,,,,,,,,,,,,,,,,,,,,,,,,,,,,,,
319382,001,2022-11-13_18h28.01.575,Info_measure_main_exp,2022.2.2,Win32,60.0348202,,,,,,,,,,,,,,,,,,masks/mask_002.jpg,,,,,,,,,,,,,,,,,,,,,,,,,,,,,,,,,,,,,,,,,,,,,,,,0,4,4,1,1,,,,,,,,,,,,,,,,,,,,,,,,,,,,,,,,,,,,,,,,,
319382,001,2022-11-13_18h28.01.575,Info_measure_main_exp,2022.2.2,Win32,60.0348202,,,,,,,,,,,,,,,,,,,,,,,,,,,,,,7,0.6004,1,,,,,,,,,,,,0,131,5,5,2154,2250,absent_patch/patch0002154.jpg,absent_patch/patch0002250.jpg,,,,,,,,,,,,,,,,,,,,0.042592593,0.130555556,1,0,0,response1disk,30,-0.007407407,-0.006481481,1,0,0,center_square,0,29,29,108,1,,,,,,,,,,,,,,,,,,,,,,,
319382,001,2022-11-13_18h28.01.575,Info_measure_main_exp,2022.2.2,Win32,60.0348202,,,,,,,,,,,,,,,,,,masks/mask_002.jpg,,,,,,,,,,,,,,,,,,,,,,,,,,,,,,,,,,,,,,,,,,,0,0,0,1,1,,,,,,,,,,,,,,,,,,,,,,,,,,,,,,,,,,,,,,,,,,,,,,
319382,001,2022-11-13_18h28.01.575,Info_measure_main_exp,2022.2.2,Win32,60.0348202,,,,,,,,,,,,,,,,,,masks/mask_001.jpg,,,,,,,,,,,,,,,,,,,,,,,,,,,,,,,,,,,,,,,,,,,0,1,1,0,1,,,,,,,,,,,,,,,,,,,,,,,,,,,,,,,,,,,,,,,,,,,,,,
319382,001,2022-11-13_18h28.01.575,Info_measure_main_exp,2022.2.2,Win32,60.0348202,,,,,,,,,,,,,,,,,,masks/mask_003.jpg,,,,,,,,,,,,,,,,,,,,,,,,,,,,,,,,,,,,,,,,,,,0,2,2,2,1,,,,,,,,,,,,,,,,,,,,,,,,,,,,,,,,,,,,,,,,,,,,,,
319382,001,2022-11-13_18h28.01.575,Info_measure_main_exp,2022.2.2,Win32,60.0348202,,,,,,,,,,,,,,,,,,masks/mask_004.jpg,,,,,,,,,,,,,,,,,,,,,,,,,,,,,,,,,,,,,,,,,,,0,3,3,3,1,,,,,,,,,,,,,,,,,,,,,,,,,,,,,,,,,,,,,,,,,,,,,,
319382,001,2022-11-13_18h28.01.575,Info_measure_main_exp,2022.2.2,Win32,60.0348202,,,,,,,,,,,,,,,,,,masks/mask_005.jpg,,,,,,,,,,,,,,,,,,,,,,,,,,,,,,,,,,,,,,,,,,,0,4,4,4,1,,,,,,,,,,,,,,,,,,,,,,,,,,,,,,,,,,,,,,,,,,,,,,
319382,001,2022-11-13_18h28.01.575,Info_measure_main_exp,2022.2.2,Win32,60.0348202,,,,,,,,,,,,,,,,,,masks/mask_005.jpg,,,,,,,,,,,,,,,,,,,,,,,,,,,,,,,,,,,,,,,,,,,,,,,,0,0,0,4,1,,,,,,,,,,,,,,,,,,,,,,,,,,,,,,,,,,,,,,,,,
319382,001,2022-11-13_18h28.01.575,Info_measure_main_exp,2022.2.2,Win32,60.0348202,,,,,,,,,,,,,,,,,,masks/mask_002.jpg,,,,,,,,,,,,,,,,,,,,,,,,,,,,,,,,,,,,,,,,,,,,,,,,0,1,1,1,1,,,,,,,,,,,,,,,,,,,,,,,,,,,,,,,,,,,,,,,,,
319382,001,2022-11-13_18h28.01.575,Info_measure_main_exp,2022.2.2,Win32,60.0348202,,,,,,,,,,,,,,,,,,masks/mask_001.jpg,,,,,,,,,,,,,,,,,,,,,,,,,,,,,,,,,,,,,,,,,,,,,,,,0,2,2,0,1,,,,,,,,,,,,,,,,,,,,,,,,,,,,,,,,,,,,,,,,,
319382,001,2022-11-13_18h28.01.575,Info_measure_main_exp,2022.2.2,Win32,60.0348202,,,,,,,,,,,,,,,,,,masks/mask_003.jpg,,,,,,,,,,,,,,,,,,,,,,,,,,,,,,,,,,,,,,,,,,,,,,,,0,3,3,2,1,,,,,,,,,,,,,,,,,,,,,,,,,,,,,,,,,,,,,,,,,
319382,001,2022-11-13_18h28.01.575,Info_measure_main_exp,2022.2.2,Win32,60.0348202,,,,,,,,,,,,,,,,,,masks/mask_004.jpg,,,,,,,,,,,,,,,,,,,,,,,,,,,,,,,,,,,,,,,,,,,,,,,,0,4,4,3,1,,,,,,,,,,,,,,,,,,,,,,,,,,,,,,,,,,,,,,,,,
319382,001,2022-11-13_18h28.01.575,Info_measure_main_exp,2022.2.2,Win32,60.0348202,,,,,,,,,,,,,,,,,,,,,,,,,,,,,,7,0.5421,1,,,,,,,,,,,,0,131,5,5,2154,2190,absent_patch/patch0002154.jpg,absent_patch/patch0002190.jpg,,,,,,,,,,,,,,,,,,,,0.061111111,0.123148148,1,0,0,response1disk,31,-0.002777778,-0.000925926,1,0,0,center_square,0,30,30,68,1,,,,,,,,,,,,,,,,,,,,,,,
319382,001,2022-11-13_18h28.01.575,Info_measure_main_exp,2022.2.2,Win32,60.0348202,,,,,,,,,,,,,,,,,,masks/mask_005.jpg,,,,,,,,,,,,,,,,,,,,,,,,,,,,,,,,,,,,,,,,,,,0,0,0,4,1,,,,,,,,,,,,,,,,,,,,,,,,,,,,,,,,,,,,,,,,,,,,,,
319382,001,2022-11-13_18h28.01.575,Info_measure_main_exp,2022.2.2,Win32,60.0348202,,,,,,,,,,,,,,,,,,masks/mask_003.jpg,,,,,,,,,,,,,,,,,,,,,,,,,,,,,,,,,,,,,,,,,,,0,1,1,2,1,,,,,,,,,,,,,,,,,,,,,,,,,,,,,,,,,,,,,,,,,,,,,,
319382,001,2022-11-13_18h28.01.575,Info_measure_main_exp,2022.2.2,Win32,60.0348202,,,,,,,,,,,,,,,,,,masks/mask_002.jpg,,,,,,,,,,,,,,,,,,,,,,,,,,,,,,,,,,,,,,,,,,,0,2,2,1,1,,,,,,,,,,,,,,,,,,,,,,,,,,,,,,,,,,,,,,,,,,,,,,
319382,001,2022-11-13_18h28.01.575,Info_measure_main_exp,2022.2.2,Win32,60.0348202,,,,,,,,,,,,,,,,,,masks/mask_001.jpg,,,,,,,,,,,,,,,,,,,,,,,,,,,,,,,,,,,,,,,,,,,0,3,3,0,1,,,,,,,,,,,,,,,,,,,,,,,,,,,,,,,,,,,,,,,,,,,,,,
319382,001,2022-11-13_18h28.01.575,Info_measure_main_exp,2022.2.2,Win32,60.0348202,,,,,,,,,,,,,,,,,,masks/mask_004.jpg,,,,,,,,,,,,,,,,,,,,,,,,,,,,,,,,,,,,,,,,,,,0,4,4,3,1,,,,,,,,,,,,,,,,,,,,,,,,,,,,,,,,,,,,,,,,,,,,,,
319382,001,2022-11-13_18h28.01.575,Info_measure_main_exp,2022.2.2,Win32,60.0348202,,,,,,,,,,,,,,,,,,masks/mask_005.jpg,,,,,,,,,,,,,,,,,,,,,,,,,,,,,,,,,,,,,,,,,,,,,,,,0,0,0,4,1,,,,,,,,,,,,,,,,,,,,,,,,,,,,,,,,,,,,,,,,,
319382,001,2022-11-13_18h28.01.575,Info_measure_main_exp,2022.2.2,Win32,60.0348202,,,,,,,,,,,,,,,,,,masks/mask_001.jpg,,,,,,,,,,,,,,,,,,,,,,,,,,,,,,,,,,,,,,,,,,,,,,,,0,1,1,0,1,,,,,,,,,,,,,,,,,,,,,,,,,,,,,,,,,,,,,,,,,
319382,001,2022-11-13_18h28.01.575,Info_measure_main_exp,2022.2.2,Win32,60.0348202,,,,,,,,,,,,,,,,,,masks/mask_002.jpg,,,,,,,,,,,,,,,,,,,,,,,,,,,,,,,,,,,,,,,,,,,,,,,,0,2,2,1,1,,,,,,,,,,,,,,,,,,,,,,,,,,,,,,,,,,,,,,,,,
319382,001,2022-11-13_18h28.01.575,Info_measure_main_exp,2022.2.2,Win32,60.0348202,,,,,,,,,,,,,,,,,,masks/mask_004.jpg,,,,,,,,,,,,,,,,,,,,,,,,,,,,,,,,,,,,,,,,,,,,,,,,0,3,3,3,1,,,,,,,,,,,,,,,,,,,,,,,,,,,,,,,,,,,,,,,,,
319382,001,2022-11-13_18h28.01.575,Info_measure_main_exp,2022.2.2,Win32,60.0348202,,,,,,,,,,,,,,,,,,masks/mask_003.jpg,,,,,,,,,,,,,,,,,,,,,,,,,,,,,,,,,,,,,,,,,,,,,,,,0,4,4,2,1,,,,,,,,,,,,,,,,,,,,,,,,,,,,,,,,,,,,,,,,,
319382,001,2022-11-13_18h28.01.575,Info_measure_main_exp,2022.2.2,Win32,60.0348202,,,,,,,,,,,,,,,,,,,,,,,,,,,,,,5,0.8418,1,,,,,,,,,,,,0,131,5,5,2154,2238,absent_patch/patch0002154.jpg,absent_patch/patch0002238.jpg,,,,,,,,,,,,,,,,,,,,0.09537037,-0.059259259,1,0,0,response3disk,32,0.008333333,-0.011111111,1,0,0,center_square,0,31,31,21,1,,,,,,,,,,,,,,,,,,,,,,,
319382,001,2022-11-13_18h28.01.575,Info_measure_main_exp,2022.2.2,Win32,60.0348202,,,,,,,,,,,,,,,,,,masks/mask_002.jpg,,,,,,,,,,,,,,,,,,,,,,,,,,,,,,,,,,,,,,,,,,,0,0,0,1,1,,,,,,,,,,,,,,,,,,,,,,,,,,,,,,,,,,,,,,,,,,,,,,
319382,001,2022-11-13_18h28.01.575,Info_measure_main_exp,2022.2.2,Win32,60.0348202,,,,,,,,,,,,,,,,,,masks/mask_005.jpg,,,,,,,,,,,,,,,,,,,,,,,,,,,,,,,,,,,,,,,,,,,0,1,1,4,1,,,,,,,,,,,,,,,,,,,,,,,,,,,,,,,,,,,,,,,,,,,,,,
319382,001,2022-11-13_18h28.01.575,Info_measure_main_exp,2022.2.2,Win32,60.0348202,,,,,,,,,,,,,,,,,,masks/mask_001.jpg,,,,,,,,,,,,,,,,,,,,,,,,,,,,,,,,,,,,,,,,,,,0,2,2,0,1,,,,,,,,,,,,,,,,,,,,,,,,,,,,,,,,,,,,,,,,,,,,,,
319382,001,2022-11-13_18h28.01.575,Info_measure_main_exp,2022.2.2,Win32,60.0348202,,,,,,,,,,,,,,,,,,masks/mask_004.jpg,,,,,,,,,,,,,,,,,,,,,,,,,,,,,,,,,,,,,,,,,,,0,3,3,3,1,,,,,,,,,,,,,,,,,,,,,,,,,,,,,,,,,,,,,,,,,,,,,,
319382,001,2022-11-13_18h28.01.575,Info_measure_main_exp,2022.2.2,Win32,60.0348202,,,,,,,,,,,,,,,,,,masks/mask_003.jpg,,,,,,,,,,,,,,,,,,,,,,,,,,,,,,,,,,,,,,,,,,,0,4,4,2,1,,,,,,,,,,,,,,,,,,,,,,,,,,,,,,,,,,,,,,,,,,,,,,
319382,001,2022-11-13_18h28.01.575,Info_measure_main_exp,2022.2.2,Win32,60.0348202,,,,,,,,,,,,,,,,,,masks/mask_002.jpg,,,,,,,,,,,,,,,,,,,,,,,,,,,,,,,,,,,,,,,,,,,,,,,,0,0,0,1,1,,,,,,,,,,,,,,,,,,,,,,,,,,,,,,,,,,,,,,,,,
319382,001,2022-11-13_18h28.01.575,Info_measure_main_exp,2022.2.2,Win32,60.0348202,,,,,,,,,,,,,,,,,,masks/mask_003.jpg,,,,,,,,,,,,,,,,,,,,,,,,,,,,,,,,,,,,,,,,,,,,,,,,0,1,1,2,1,,,,,,,,,,,,,,,,,,,,,,,,,,,,,,,,,,,,,,,,,
319382,001,2022-11-13_18h28.01.575,Info_measure_main_exp,2022.2.2,Win32,60.0348202,,,,,,,,,,,,,,,,,,masks/mask_001.jpg,,,,,,,,,,,,,,,,,,,,,,,,,,,,,,,,,,,,,,,,,,,,,,,,0,2,2,0,1,,,,,,,,,,,,,,,,,,,,,,,,,,,,,,,,,,,,,,,,,
319382,001,2022-11-13_18h28.01.575,Info_measure_main_exp,2022.2.2,Win32,60.0348202,,,,,,,,,,,,,,,,,,masks/mask_004.jpg,,,,,,,,,,,,,,,,,,,,,,,,,,,,,,,,,,,,,,,,,,,,,,,,0,3,3,3,1,,,,,,,,,,,,,,,,,,,,,,,,,,,,,,,,,,,,,,,,,
319382,001,2022-11-13_18h28.01.575,Info_measure_main_exp,2022.2.2,Win32,60.0348202,,,,,,,,,,,,,,,,,,masks/mask_005.jpg,,,,,,,,,,,,,,,,,,,,,,,,,,,,,,,,,,,,,,,,,,,,,,,,0,4,4,4,1,,,,,,,,,,,,,,,,,,,,,,,,,,,,,,,,,,,,,,,,,
319382,001,2022-11-13_18h28.01.575,Info_measure_main_exp,2022.2.2,Win32,60.0348202,,,,,,,,,,,,,,,,,,,,,,,,,,,,,,7,0.3249,1,,,,,,,,,,,,0,131,5,5,2082,2166,absent_patch/patch0002082.jpg,absent_patch/patch0002166.jpg,,,,,,,,,,,,,,,,,,,,0.067592593,0.12037037,1,0,0,response1disk,33,0,0.006481481,1,0,0,center_square,0,32,32,43,1,,,,,,,,,,,,,,,,,,,,,,,
319382,001,2022-11-13_18h28.01.575,Info_measure_main_exp,2022.2.2,Win32,60.0348202,,,,,,,,,,,,,,,,,,masks/mask_001.jpg,,,,,,,,,,,,,,,,,,,,,,,,,,,,,,,,,,,,,,,,,,,0,0,0,0,1,,,,,,,,,,,,,,,,,,,,,,,,,,,,,,,,,,,,,,,,,,,,,,
319382,001,2022-11-13_18h28.01.575,Info_measure_main_exp,2022.2.2,Win32,60.0348202,,,,,,,,,,,,,,,,,,masks/mask_003.jpg,,,,,,,,,,,,,,,,,,,,,,,,,,,,,,,,,,,,,,,,,,,0,1,1,2,1,,,,,,,,,,,,,,,,,,,,,,,,,,,,,,,,,,,,,,,,,,,,,,
319382,001,2022-11-13_18h28.01.575,Info_measure_main_exp,2022.2.2,Win32,60.0348202,,,,,,,,,,,,,,,,,,masks/mask_004.jpg,,,,,,,,,,,,,,,,,,,,,,,,,,,,,,,,,,,,,,,,,,,0,2,2,3,1,,,,,,,,,,,,,,,,,,,,,,,,,,,,,,,,,,,,,,,,,,,,,,
319382,001,2022-11-13_18h28.01.575,Info_measure_main_exp,2022.2.2,Win32,60.0348202,,,,,,,,,,,,,,,,,,masks/mask_005.jpg,,,,,,,,,,,,,,,,,,,,,,,,,,,,,,,,,,,,,,,,,,,0,3,3,4,1,,,,,,,,,,,,,,,,,,,,,,,,,,,,,,,,,,,,,,,,,,,,,,
319382,001,2022-11-13_18h28.01.575,Info_measure_main_exp,2022.2.2,Win32,60.0348202,,,,,,,,,,,,,,,,,,masks/mask_002.jpg,,,,,,,,,,,,,,,,,,,,,,,,,,,,,,,,,,,,,,,,,,,0,4,4,1,1,,,,,,,,,,,,,,,,,,,,,,,,,,,,,,,,,,,,,,,,,,,,,,
319382,001,2022-11-13_18h28.01.575,Info_measure_main_exp,2022.2.2,Win32,60.0348202,,,,,,,,,,,,,,,,,,masks/mask_001.jpg,,,,,,,,,,,,,,,,,,,,,,,,,,,,,,,,,,,,,,,,,,,,,,,,0,0,0,0,1,,,,,,,,,,,,,,,,,,,,,,,,,,,,,,,,,,,,,,,,,
319382,001,2022-11-13_18h28.01.575,Info_measure_main_exp,2022.2.2,Win32,60.0348202,,,,,,,,,,,,,,,,,,masks/mask_004.jpg,,,,,,,,,,,,,,,,,,,,,,,,,,,,,,,,,,,,,,,,,,,,,,,,0,1,1,3,1,,,,,,,,,,,,,,,,,,,,,,,,,,,,,,,,,,,,,,,,,
319382,001,2022-11-13_18h28.01.575,Info_measure_main_exp,2022.2.2,Win32,60.0348202,,,,,,,,,,,,,,,,,,masks/mask_003.jpg,,,,,,,,,,,,,,,,,,,,,,,,,,,,,,,,,,,,,,,,,,,,,,,,0,2,2,2,1,,,,,,,,,,,,,,,,,,,,,,,,,,,,,,,,,,,,,,,,,
319382,001,2022-11-13_18h28.01.575,Info_measure_main_exp,2022.2.2,Win32,60.0348202,,,,,,,,,,,,,,,,,,masks/mask_002.jpg,,,,,,,,,,,,,,,,,,,,,,,,,,,,,,,,,,,,,,,,,,,,,,,,0,3,3,1,1,,,,,,,,,,,,,,,,,,,,,,,,,,,,,,,,,,,,,,,,,
319382,001,2022-11-13_18h28.01.575,Info_measure_main_exp,2022.2.2,Win32,60.0348202,,,,,,,,,,,,,,,,,,masks/mask_005.jpg,,,,,,,,,,,,,,,,,,,,,,,,,,,,,,,,,,,,,,,,,,,,,,,,0,4,4,4,1,,,,,,,,,,,,,,,,,,,,,,,,,,,,,,,,,,,,,,,,,
319382,001,2022-11-13_18h28.01.575,Info_measure_main_exp,2022.2.2,Win32,60.0348202,,,,,,,,,,,,,,,,,,,,,,,,,,,,,,7,0.4417,1,,,,,,,,,,,,0,131,5,5,2298,2274,absent_patch/patch0002298.jpg,absent_patch/patch0002274.jpg,,,,,,,,,,,,,,,,,,,,0.036111111,0.099074074,1,0,0,response1disk,34,-0.006481481,0.001851852,1,0,0,center_square,0,33,33,1,1,,,,,,,,,,,,,,,,,,,,,,,
319382,001,2022-11-13_18h28.01.575,Info_measure_main_exp,2022.2.2,Win32,60.0348202,,,,,,,,,,,,,,,,,,masks/mask_004.jpg,,,,,,,,,,,,,,,,,,,,,,,,,,,,,,,,,,,,,,,,,,,0,0,0,3,1,,,,,,,,,,,,,,,,,,,,,,,,,,,,,,,,,,,,,,,,,,,,,,
319382,001,2022-11-13_18h28.01.575,Info_measure_main_exp,2022.2.2,Win32,60.0348202,,,,,,,,,,,,,,,,,,masks/mask_005.jpg,,,,,,,,,,,,,,,,,,,,,,,,,,,,,,,,,,,,,,,,,,,0,1,1,4,1,,,,,,,,,,,,,,,,,,,,,,,,,,,,,,,,,,,,,,,,,,,,,,
319382,001,2022-11-13_18h28.01.575,Info_measure_main_exp,2022.2.2,Win32,60.0348202,,,,,,,,,,,,,,,,,,masks/mask_001.jpg,,,,,,,,,,,,,,,,,,,,,,,,,,,,,,,,,,,,,,,,,,,0,2,2,0,1,,,,,,,,,,,,,,,,,,,,,,,,,,,,,,,,,,,,,,,,,,,,,,
319382,001,2022-11-13_18h28.01.575,Info_measure_main_exp,2022.2.2,Win32,60.0348202,,,,,,,,,,,,,,,,,,masks/mask_003.jpg,,,,,,,,,,,,,,,,,,,,,,,,,,,,,,,,,,,,,,,,,,,0,3,3,2,1,,,,,,,,,,,,,,,,,,,,,,,,,,,,,,,,,,,,,,,,,,,,,,
319382,001,2022-11-13_18h28.01.575,Info_measure_main_exp,2022.2.2,Win32,60.0348202,,,,,,,,,,,,,,,,,,masks/mask_002.jpg,,,,,,,,,,,,,,,,,,,,,,,,,,,,,,,,,,,,,,,,,,,0,4,4,1,1,,,,,,,,,,,,,,,,,,,,,,,,,,,,,,,,,,,,,,,,,,,,,,
319382,001,2022-11-13_18h28.01.575,Info_measure_main_exp,2022.2.2,Win32,60.0348202,,,,,,,,,,,,,,,,,,masks/mask_004.jpg,,,,,,,,,,,,,,,,,,,,,,,,,,,,,,,,,,,,,,,,,,,,,,,,0,0,0,3,1,,,,,,,,,,,,,,,,,,,,,,,,,,,,,,,,,,,,,,,,,
319382,001,2022-11-13_18h28.01.575,Info_measure_main_exp,2022.2.2,Win32,60.0348202,,,,,,,,,,,,,,,,,,masks/mask_002.jpg,,,,,,,,,,,,,,,,,,,,,,,,,,,,,,,,,,,,,,,,,,,,,,,,0,1,1,1,1,,,,,,,,,,,,,,,,,,,,,,,,,,,,,,,,,,,,,,,,,
319382,001,2022-11-13_18h28.01.575,Info_measure_main_exp,2022.2.2,Win32,60.0348202,,,,,,,,,,,,,,,,,,masks/mask_003.jpg,,,,,,,,,,,,,,,,,,,,,,,,,,,,,,,,,,,,,,,,,,,,,,,,0,2,2,2,1,,,,,,,,,,,,,,,,,,,,,,,,,,,,,,,,,,,,,,,,,
319382,001,2022-11-13_18h28.01.575,Info_measure_main_exp,2022.2.2,Win32,60.0348202,,,,,,,,,,,,,,,,,,masks/mask_001.jpg,,,,,,,,,,,,,,,,,,,,,,,,,,,,,,,,,,,,,,,,,,,,,,,,0,3,3,0,1,,,,,,,,,,,,,,,,,,,,,,,,,,,,,,,,,,,,,,,,,
319382,001,2022-11-13_18h28.01.575,Info_measure_main_exp,2022.2.2,Win32,60.0348202,,,,,,,,,,,,,,,,,,masks/mask_005.jpg,,,,,,,,,,,,,,,,,,,,,,,,,,,,,,,,,,,,,,,,,,,,,,,,0,4,4,4,1,,,,,,,,,,,,,,,,,,,,,,,,,,,,,,,,,,,,,,,,,
