participant,session,date,expName,psychopyVersion,OS,frameRate,space_press_continue.keys,space_press_continue.rt,space_press_continue_2.keys,space_press_continue_2.rt,space_press_continue_3.keys,space_press_continue_3.rt,space_press_continue_4.keys,space_press_continue_4.rt,space_press_continue_5.keys,space_press_continue_5.rt,space_press_continue_6.keys,space_press_continue_6.rt,prac_mask_loop_1.thisRepN,prac_mask_loop_1.thisTrialN,prac_mask_loop_1.thisN,prac_mask_loop_1.thisIndex,prac_mask_loop_1.ran,mask_name,prac_mask_loop_2.thisRepN,prac_mask_loop_2.thisTrialN,prac_mask_loop_2.thisN,prac_mask_loop_2.thisIndex,prac_mask_loop_2.ran,mouse_2.x,mouse_2.y,mouse_2.leftButton,mouse_2.midButton,mouse_2.rightButton,mouse_2.clicked_name,similarity,response_time,Pass,mouse_12.x,mouse_12.y,mouse_12.leftButton,mouse_12.midButton,mouse_12.rightButton,mouse_12.clicked_name,prac_loop.thisRepN,prac_loop.thisTrialN,prac_loop.thisN,prac_loop.thisIndex,prac_loop.ran,Pair_type,Image_num,Patch_1_loc,Patch_2_loc,Patch_1_info,Patch_2_info,Patch_1_name,Patch_2_name,mouse_1.x,mouse_1.y,mouse_1.leftButton,mouse_1.midButton,mouse_1.rightButton,mouse_1.time,mouse_1.clicked_name,space_press_continue_7.keys,space_press_continue_7.rt,mask_loop.thisRepN,mask_loop.thisTrialN,mask_loop.thisN,mask_loop.thisIndex,mask_loop.ran,mask_loop_2.thisRepN,mask_loop_2.thisTrialN,mask_loop_2.thisN,mask_loop_2.thisIndex,mask_loop_2.ran,mouse.x,mouse.y,mouse.leftButton,mouse.midButton,mouse.rightButton,mouse.clicked_name,trialNumber,mouse_11.x,mouse_11.y,mouse_11.leftButton,mouse_11.midButton,mouse_11.rightButton,mouse_11.clicked_name,first_pass_loop.thisRepN,first_pass_loop.thisTrialN,first_pass_loop.thisN,first_pass_loop.thisIndex,first_pass_loop.ran,mask_loop_3.thisRepN,mask_loop_3.thisTrialN,mask_loop_3.thisN,mask_loop_3.thisIndex,mask_loop_3.ran,mask_loop_4.thisRepN,mask_loop_4.thisTrialN,mask_loop_4.thisN,mask_loop_4.thisIndex,mask_loop_4.ran,mouse_3.x,mouse_3.y,mouse_3.leftButton,mouse_3.midButton,mouse_3.rightButton,mouse_3.clicked_name,double_pass_loop.thisRepN,double_pass_loop.thisTrialN,double_pass_loop.thisN,double_pass_loop.thisIndex,double_pass_loop.ran,space_exit.keys,space_exit.rt
324572,001,2022-11-14_24h26.41.138,Info_measure_main_exp,2022.2.2,Win32,60.0132029,,,,,,,,,,,,,,,,,,,,,,,,,,,,,,,,,,,,,,,,,,,,,,,,,,,,,,,,,,,,,,,,,,,,,,,,,,,,,,,,,,,,,,,,,,,,,,,,,,,,,,,,,,,,,,,
324572,001,2022-11-14_24h26.41.138,Info_measure_main_exp,2022.2.2,Win32,60.0132029,,,,,,,,,,,,,,,,,,,,,,,,,,,,,,,,,,,,,,,,,,,,,,,,,,,,,,,,,,,,,,,,,,,,,,,,,,,,,,,,,,,,,,,,,,,,,,,,,,,,,,,,,,,,,,,
324572,001,2022-11-14_24h26.41.138,Info_measure_main_exp,2022.2.2,Win32,60.0132029,space,13.3389,,,,,,,,,,,,,,,,,,,,,,,,,,,,,,,,,,,,,,,,,,,,,,,,,,,,,,,,,,,,,,,,,,,,,,,,,,,,,,,,,,,,,,,,,,,,,,,,,,,,,,,,,,,,,
324572,001,2022-11-14_24h26.41.138,Info_measure_main_exp,2022.2.2,Win32,60.0132029,,,space,11.47,,,,,,,,,,,,,,,,,,,,,,,,,,,,,,,,,,,,,,,,,,,,,,,,,,,,,,,,,,,,,,,,,,,,,,,,,,,,,,,,,,,,,,,,,,,,,,,,,,,,,,,,,,,
324572,001,2022-11-14_24h26.41.138,Info_measure_main_exp,2022.2.2,Win32,60.0132029,,,,,space,7.27,,,,,,,,,,,,,,,,,,,,,,,,,,,,,,,,,,,,,,,,,,,,,,,,,,,,,,,,,,,,,,,,,,,,,,,,,,,,,,,,,,,,,,,,,,,,,,,,,,,,,,,,,
324572,001,2022-11-14_24h26.41.138,Info_measure_main_exp,2022.2.2,Win32,60.0132029,,,,,,,space,15.9918,,,,,,,,,,,,,,,,,,,,,,,,,,,,,,,,,,,,,,,,,,,,,,,,,,,,,,,,,,,,,,,,,,,,,,,,,,,,,,,,,,,,,,,,,,,,,,,,,,,,,,,
324572,001,2022-11-14_24h26.41.138,Info_measure_main_exp,2022.2.2,Win32,60.0132029,,,,,,,,,space,6.8131,,,,,,,,,,,,,,,,,,,,,,,,,,,,,,,,,,,,,,,,,,,,,,,,,,,,,,,,,,,,,,,,,,,,,,,,,,,,,,,,,,,,,,,,,,,,,,,,,,,,,
324572,001,2022-11-14_24h26.41.138,Info_measure_main_exp,2022.2.2,Win32,60.0132029,,,,,,,,,,,space,5.6822,,,,,,,,,,,,,,,,,,,,,,,,,,,,,,,,,,,,,,,,,,,,,,,,,,,,,,,,,,,,,,,,,,,,,,,,,,,,,,,,,,,,,,,,,,,,,,,,,,,
324572,001,2022-11-14_24h26.41.138,Info_measure_main_exp,2022.2.2,Win32,60.0132029,,,,,,,,,,,,,0,0,0,3,1,masks/mask_004.jpg,,,,,,,,,,,,,,,,,,,,,,,,,,,,,,,,,,,,,,,,,,,,,,,,,,,,,,,,,,,,,,,,,,,,,,,,,,,,,,,,,,,,,,,,,,,,,
324572,001,2022-11-14_24h26.41.138,Info_measure_main_exp,2022.2.2,Win32,60.0132029,,,,,,,,,,,,,0,1,1,4,1,masks/mask_005.jpg,,,,,,,,,,,,,,,,,,,,,,,,,,,,,,,,,,,,,,,,,,,,,,,,,,,,,,,,,,,,,,,,,,,,,,,,,,,,,,,,,,,,,,,,,,,,,
324572,001,2022-11-14_24h26.41.138,Info_measure_main_exp,2022.2.2,Win32,60.0132029,,,,,,,,,,,,,0,2,2,2,1,masks/mask_003.jpg,,,,,,,,,,,,,,,,,,,,,,,,,,,,,,,,,,,,,,,,,,,,,,,,,,,,,,,,,,,,,,,,,,,,,,,,,,,,,,,,,,,,,,,,,,,,,
324572,001,2022-11-14_24h26.41.138,Info_measure_main_exp,2022.2.2,Win32,60.0132029,,,,,,,,,,,,,0,3,3,1,1,masks/mask_002.jpg,,,,,,,,,,,,,,,,,,,,,,,,,,,,,,,,,,,,,,,,,,,,,,,,,,,,,,,,,,,,,,,,,,,,,,,,,,,,,,,,,,,,,,,,,,,,,
324572,001,2022-11-14_24h26.41.138,Info_measure_main_exp,2022.2.2,Win32,60.0132029,,,,,,,,,,,,,0,4,4,0,1,masks/mask_001.jpg,,,,,,,,,,,,,,,,,,,,,,,,,,,,,,,,,,,,,,,,,,,,,,,,,,,,,,,,,,,,,,,,,,,,,,,,,,,,,,,,,,,,,,,,,,,,,
324572,001,2022-11-14_24h26.41.138,Info_measure_main_exp,2022.2.2,Win32,60.0132029,,,,,,,,,,,,,,,,,,masks/mask_002.jpg,0,0,0,1,1,,,,,,,,,,,,,,,,,,,,,,,,,,,,,,,,,,,,,,,,,,,,,,,,,,,,,,,,,,,,,,,,,,,,,,,,,,,,,,,,,,,,,,,,
324572,001,2022-11-14_24h26.41.138,Info_measure_main_exp,2022.2.2,Win32,60.0132029,,,,,,,,,,,,,,,,,,masks/mask_001.jpg,0,1,1,0,1,,,,,,,,,,,,,,,,,,,,,,,,,,,,,,,,,,,,,,,,,,,,,,,,,,,,,,,,,,,,,,,,,,,,,,,,,,,,,,,,,,,,,,,,
324572,001,2022-11-14_24h26.41.138,Info_measure_main_exp,2022.2.2,Win32,60.0132029,,,,,,,,,,,,,,,,,,masks/mask_005.jpg,0,2,2,4,1,,,,,,,,,,,,,,,,,,,,,,,,,,,,,,,,,,,,,,,,,,,,,,,,,,,,,,,,,,,,,,,,,,,,,,,,,,,,,,,,,,,,,,,,
324572,001,2022-11-14_24h26.41.138,Info_measure_main_exp,2022.2.2,Win32,60.0132029,,,,,,,,,,,,,,,,,,masks/mask_003.jpg,0,3,3,2,1,,,,,,,,,,,,,,,,,,,,,,,,,,,,,,,,,,,,,,,,,,,,,,,,,,,,,,,,,,,,,,,,,,,,,,,,,,,,,,,,,,,,,,,,
324572,001,2022-11-14_24h26.41.138,Info_measure_main_exp,2022.2.2,Win32,60.0132029,,,,,,,,,,,,,,,,,,masks/mask_004.jpg,0,4,4,3,1,,,,,,,,,,,,,,,,,,,,,,,,,,,,,,,,,,,,,,,,,,,,,,,,,,,,,,,,,,,,,,,,,,,,,,,,,,,,,,,,,,,,,,,,
324572,001,2022-11-14_24h26.41.138,Info_measure_main_exp,2022.2.2,Win32,60.0132029,,,,,,,,,,,,,,,,,,,,,,,,0.138888889,0.052777778,1,0,0,response1disk,6,67.0357,1,-0.002777778,-0.001851852,1,0,0,center_square,0,0,0,2,1,0,131,5,5,2526,2526,prac_patch/patch0002526.jpg,prac_patch/patch0002526.jpg,,,,,,,,,,,,,,,,,,,,,,,,,,,,,,,,,,,,,,,,,,,,,,,,,,,,,,,,,,,,
324572,001,2022-11-14_24h26.41.138,Info_measure_main_exp,2022.2.2,Win32,60.0132029,,,,,,,,,,,,,0,0,0,2,1,masks/mask_003.jpg,,,,,,,,,,,,,,,,,,,,,,,,,,,,,,,,,,,,,,,,,,,,,,,,,,,,,,,,,,,,,,,,,,,,,,,,,,,,,,,,,,,,,,,,,,,,,
324572,001,2022-11-14_24h26.41.138,Info_measure_main_exp,2022.2.2,Win32,60.0132029,,,,,,,,,,,,,0,1,1,3,1,masks/mask_004.jpg,,,,,,,,,,,,,,,,,,,,,,,,,,,,,,,,,,,,,,,,,,,,,,,,,,,,,,,,,,,,,,,,,,,,,,,,,,,,,,,,,,,,,,,,,,,,,
324572,001,2022-11-14_24h26.41.138,Info_measure_main_exp,2022.2.2,Win32,60.0132029,,,,,,,,,,,,,0,2,2,1,1,masks/mask_002.jpg,,,,,,,,,,,,,,,,,,,,,,,,,,,,,,,,,,,,,,,,,,,,,,,,,,,,,,,,,,,,,,,,,,,,,,,,,,,,,,,,,,,,,,,,,,,,,
324572,001,2022-11-14_24h26.41.138,Info_measure_main_exp,2022.2.2,Win32,60.0132029,,,,,,,,,,,,,0,3,3,0,1,masks/mask_001.jpg,,,,,,,,,,,,,,,,,,,,,,,,,,,,,,,,,,,,,,,,,,,,,,,,,,,,,,,,,,,,,,,,,,,,,,,,,,,,,,,,,,,,,,,,,,,,,
324572,001,2022-11-14_24h26.41.138,Info_measure_main_exp,2022.2.2,Win32,60.0132029,,,,,,,,,,,,,0,4,4,4,1,masks/mask_005.jpg,,,,,,,,,,,,,,,,,,,,,,,,,,,,,,,,,,,,,,,,,,,,,,,,,,,,,,,,,,,,,,,,,,,,,,,,,,,,,,,,,,,,,,,,,,,,,
324572,001,2022-11-14_24h26.41.138,Info_measure_main_exp,2022.2.2,Win32,60.0132029,,,,,,,,,,,,,,,,,,masks/mask_003.jpg,0,0,0,2,1,,,,,,,,,,,,,,,,,,,,,,,,,,,,,,,,,,,,,,,,,,,,,,,,,,,,,,,,,,,,,,,,,,,,,,,,,,,,,,,,,,,,,,,,
324572,001,2022-11-14_24h26.41.138,Info_measure_main_exp,2022.2.2,Win32,60.0132029,,,,,,,,,,,,,,,,,,masks/mask_004.jpg,0,1,1,3,1,,,,,,,,,,,,,,,,,,,,,,,,,,,,,,,,,,,,,,,,,,,,,,,,,,,,,,,,,,,,,,,,,,,,,,,,,,,,,,,,,,,,,,,,
324572,001,2022-11-14_24h26.41.138,Info_measure_main_exp,2022.2.2,Win32,60.0132029,,,,,,,,,,,,,,,,,,masks/mask_005.jpg,0,2,2,4,1,,,,,,,,,,,,,,,,,,,,,,,,,,,,,,,,,,,,,,,,,,,,,,,,,,,,,,,,,,,,,,,,,,,,,,,,,,,,,,,,,,,,,,,,
324572,001,2022-11-14_24h26.41.138,Info_measure_main_exp,2022.2.2,Win32,60.0132029,,,,,,,,,,,,,,,,,,masks/mask_001.jpg,0,3,3,0,1,,,,,,,,,,,,,,,,,,,,,,,,,,,,,,,,,,,,,,,,,,,,,,,,,,,,,,,,,,,,,,,,,,,,,,,,,,,,,,,,,,,,,,,,
324572,001,2022-11-14_24h26.41.138,Info_measure_main_exp,2022.2.2,Win32,60.0132029,,,,,,,,,,,,,,,,,,masks/mask_002.jpg,0,4,4,1,1,,,,,,,,,,,,,,,,,,,,,,,,,,,,,,,,,,,,,,,,,,,,,,,,,,,,,,,,,,,,,,,,,,,,,,,,,,,,,,,,,,,,,,,,
324572,001,2022-11-14_24h26.41.138,Info_measure_main_exp,2022.2.2,Win32,60.0132029,,,,,,,,,,,,,,,,,,,,,,,,0.063888889,0.107407407,1,0,0,response1disk,7,79.2462,1,-0.00462963,0.005555556,1,0,0,center_square,0,1,1,0,1,0,131,5,5,2370,2406,prac_patch/patch0002370.jpg,prac_patch/patch0002406.jpg,,,,,,,,,,,,,,,,,,,,,,,,,,,,,,,,,,,,,,,,,,,,,,,,,,,,,,,,,,,,
324572,001,2022-11-14_24h26.41.138,Info_measure_main_exp,2022.2.2,Win32,60.0132029,,,,,,,,,,,,,0,0,0,3,1,masks/mask_004.jpg,,,,,,,,,,,,,,,,,,,,,,,,,,,,,,,,,,,,,,,,,,,,,,,,,,,,,,,,,,,,,,,,,,,,,,,,,,,,,,,,,,,,,,,,,,,,,
324572,001,2022-11-14_24h26.41.138,Info_measure_main_exp,2022.2.2,Win32,60.0132029,,,,,,,,,,,,,0,1,1,2,1,masks/mask_003.jpg,,,,,,,,,,,,,,,,,,,,,,,,,,,,,,,,,,,,,,,,,,,,,,,,,,,,,,,,,,,,,,,,,,,,,,,,,,,,,,,,,,,,,,,,,,,,,
324572,001,2022-11-14_24h26.41.138,Info_measure_main_exp,2022.2.2,Win32,60.0132029,,,,,,,,,,,,,0,2,2,1,1,masks/mask_002.jpg,,,,,,,,,,,,,,,,,,,,,,,,,,,,,,,,,,,,,,,,,,,,,,,,,,,,,,,,,,,,,,,,,,,,,,,,,,,,,,,,,,,,,,,,,,,,,
324572,001,2022-11-14_24h26.41.138,Info_measure_main_exp,2022.2.2,Win32,60.0132029,,,,,,,,,,,,,0,3,3,4,1,masks/mask_005.jpg,,,,,,,,,,,,,,,,,,,,,,,,,,,,,,,,,,,,,,,,,,,,,,,,,,,,,,,,,,,,,,,,,,,,,,,,,,,,,,,,,,,,,,,,,,,,,
324572,001,2022-11-14_24h26.41.138,Info_measure_main_exp,2022.2.2,Win32,60.0132029,,,,,,,,,,,,,0,4,4,0,1,masks/mask_001.jpg,,,,,,,,,,,,,,,,,,,,,,,,,,,,,,,,,,,,,,,,,,,,,,,,,,,,,,,,,,,,,,,,,,,,,,,,,,,,,,,,,,,,,,,,,,,,,
324572,001,2022-11-14_24h26.41.138,Info_measure_main_exp,2022.2.2,Win32,60.0132029,,,,,,,,,,,,,,,,,,masks/mask_001.jpg,0,0,0,0,1,,,,,,,,,,,,,,,,,,,,,,,,,,,,,,,,,,,,,,,,,,,,,,,,,,,,,,,,,,,,,,,,,,,,,,,,,,,,,,,,,,,,,,,,
324572,001,2022-11-14_24h26.41.138,Info_measure_main_exp,2022.2.2,Win32,60.0132029,,,,,,,,,,,,,,,,,,masks/mask_005.jpg,0,1,1,4,1,,,,,,,,,,,,,,,,,,,,,,,,,,,,,,,,,,,,,,,,,,,,,,,,,,,,,,,,,,,,,,,,,,,,,,,,,,,,,,,,,,,,,,,,
324572,001,2022-11-14_24h26.41.138,Info_measure_main_exp,2022.2.2,Win32,60.0132029,,,,,,,,,,,,,,,,,,masks/mask_002.jpg,0,2,2,1,1,,,,,,,,,,,,,,,,,,,,,,,,,,,,,,,,,,,,,,,,,,,,,,,,,,,,,,,,,,,,,,,,,,,,,,,,,,,,,,,,,,,,,,,,
324572,001,2022-11-14_24h26.41.138,Info_measure_main_exp,2022.2.2,Win32,60.0132029,,,,,,,,,,,,,,,,,,masks/mask_003.jpg,0,3,3,2,1,,,,,,,,,,,,,,,,,,,,,,,,,,,,,,,,,,,,,,,,,,,,,,,,,,,,,,,,,,,,,,,,,,,,,,,,,,,,,,,,,,,,,,,,
324572,001,2022-11-14_24h26.41.138,Info_measure_main_exp,2022.2.2,Win32,60.0132029,,,,,,,,,,,,,,,,,,masks/mask_004.jpg,0,4,4,3,1,,,,,,,,,,,,,,,,,,,,,,,,,,,,,,,,,,,,,,,,,,,,,,,,,,,,,,,,,,,,,,,,,,,,,,,,,,,,,,,,,,,,,,,,
324572,001,2022-11-14_24h26.41.138,Info_measure_main_exp,2022.2.2,Win32,60.0132029,,,,,,,,,,,,,,,,,,,,,,,,-0.033333333,-0.086111111,1,0,0,response5disk,3,88.3259,1,0.003703704,0.000925926,1,0,0,center_square,0,2,2,1,1,0,131,5,5,2514,2490,prac_patch/patch0002514.jpg,prac_patch/patch0002490.jpg,,,,,,,,,,,,,,,,,,,,,,,,,,,,,,,,,,,,,,,,,,,,,,,,,,,,,,,,,,,,
324572,001,2022-11-14_24h26.41.138,Info_measure_main_exp,2022.2.2,Win32,60.0132029,,,,,,,,,,,,,,,,,,,,,,,,,,,,,,,,,,,,,,,,,,,,,,,,,,,,,,,,,,,space,2.9712,,,,,,,,,,,,,,,,,,,,,,,,,,,,,,,,,,,,,,,,,,,,,,,,,,,
324572,001,2022-11-14_24h26.41.138,Info_measure_main_exp,2022.2.2,Win32,60.0132029,,,,,,,,,,,,,,,,,,masks/mask_005.jpg,,,,,,,,,,,,,,,,,,,,,,,,,,,,,,,,,,,,,,,,,,,0,0,0,4,1,,,,,,,,,,,,,,,,,,,,,,,,,,,,,,,,,,,,,,,,,,,,,,
324572,001,2022-11-14_24h26.41.138,Info_measure_main_exp,2022.2.2,Win32,60.0132029,,,,,,,,,,,,,,,,,,masks/mask_002.jpg,,,,,,,,,,,,,,,,,,,,,,,,,,,,,,,,,,,,,,,,,,,0,1,1,1,1,,,,,,,,,,,,,,,,,,,,,,,,,,,,,,,,,,,,,,,,,,,,,,
324572,001,2022-11-14_24h26.41.138,Info_measure_main_exp,2022.2.2,Win32,60.0132029,,,,,,,,,,,,,,,,,,masks/mask_001.jpg,,,,,,,,,,,,,,,,,,,,,,,,,,,,,,,,,,,,,,,,,,,0,2,2,0,1,,,,,,,,,,,,,,,,,,,,,,,,,,,,,,,,,,,,,,,,,,,,,,
324572,001,2022-11-14_24h26.41.138,Info_measure_main_exp,2022.2.2,Win32,60.0132029,,,,,,,,,,,,,,,,,,masks/mask_003.jpg,,,,,,,,,,,,,,,,,,,,,,,,,,,,,,,,,,,,,,,,,,,0,3,3,2,1,,,,,,,,,,,,,,,,,,,,,,,,,,,,,,,,,,,,,,,,,,,,,,
324572,001,2022-11-14_24h26.41.138,Info_measure_main_exp,2022.2.2,Win32,60.0132029,,,,,,,,,,,,,,,,,,masks/mask_004.jpg,,,,,,,,,,,,,,,,,,,,,,,,,,,,,,,,,,,,,,,,,,,0,4,4,3,1,,,,,,,,,,,,,,,,,,,,,,,,,,,,,,,,,,,,,,,,,,,,,,
324572,001,2022-11-14_24h26.41.138,Info_measure_main_exp,2022.2.2,Win32,60.0132029,,,,,,,,,,,,,,,,,,masks/mask_005.jpg,,,,,,,,,,,,,,,,,,,,,,,,,,,,,,,,,,,,,,,,,,,,,,,,0,0,0,4,1,,,,,,,,,,,,,,,,,,,,,,,,,,,,,,,,,,,,,,,,,
324572,001,2022-11-14_24h26.41.138,Info_measure_main_exp,2022.2.2,Win32,60.0132029,,,,,,,,,,,,,,,,,,masks/mask_004.jpg,,,,,,,,,,,,,,,,,,,,,,,,,,,,,,,,,,,,,,,,,,,,,,,,0,1,1,3,1,,,,,,,,,,,,,,,,,,,,,,,,,,,,,,,,,,,,,,,,,
324572,001,2022-11-14_24h26.41.138,Info_measure_main_exp,2022.2.2,Win32,60.0132029,,,,,,,,,,,,,,,,,,masks/mask_002.jpg,,,,,,,,,,,,,,,,,,,,,,,,,,,,,,,,,,,,,,,,,,,,,,,,0,2,2,1,1,,,,,,,,,,,,,,,,,,,,,,,,,,,,,,,,,,,,,,,,,
324572,001,2022-11-14_24h26.41.138,Info_measure_main_exp,2022.2.2,Win32,60.0132029,,,,,,,,,,,,,,,,,,masks/mask_003.jpg,,,,,,,,,,,,,,,,,,,,,,,,,,,,,,,,,,,,,,,,,,,,,,,,0,3,3,2,1,,,,,,,,,,,,,,,,,,,,,,,,,,,,,,,,,,,,,,,,,
324572,001,2022-11-14_24h26.41.138,Info_measure_main_exp,2022.2.2,Win32,60.0132029,,,,,,,,,,,,,,,,,,masks/mask_001.jpg,,,,,,,,,,,,,,,,,,,,,,,,,,,,,,,,,,,,,,,,,,,,,,,,0,4,4,0,1,,,,,,,,,,,,,,,,,,,,,,,,,,,,,,,,,,,,,,,,,
324572,001,2022-11-14_24h26.41.138,Info_measure_main_exp,2022.2.2,Win32,60.0132029,,,,,,,,,,,,,,,,,,,,,,,,,,,,,,7,1.919,1,,,,,,,,,,,,0,131,5,5,1950,2238,absent_patch/patch0001950.jpg,absent_patch/patch0002238.jpg,,,,,,,,,,,,,,,,,,,,0.050925926,0.142592593,1,0,0,response1disk,1,-0.000925926,-0.000925926,1,0,0,center_square,0,0,0,8,1,,,,,,,,,,,,,,,,,,,,,,,
324572,001,2022-11-14_24h26.41.138,Info_measure_main_exp,2022.2.2,Win32,60.0132029,,,,,,,,,,,,,,,,,,masks/mask_002.jpg,,,,,,,,,,,,,,,,,,,,,,,,,,,,,,,,,,,,,,,,,,,0,0,0,1,1,,,,,,,,,,,,,,,,,,,,,,,,,,,,,,,,,,,,,,,,,,,,,,
324572,001,2022-11-14_24h26.41.138,Info_measure_main_exp,2022.2.2,Win32,60.0132029,,,,,,,,,,,,,,,,,,masks/mask_005.jpg,,,,,,,,,,,,,,,,,,,,,,,,,,,,,,,,,,,,,,,,,,,0,1,1,4,1,,,,,,,,,,,,,,,,,,,,,,,,,,,,,,,,,,,,,,,,,,,,,,
324572,001,2022-11-14_24h26.41.138,Info_measure_main_exp,2022.2.2,Win32,60.0132029,,,,,,,,,,,,,,,,,,masks/mask_003.jpg,,,,,,,,,,,,,,,,,,,,,,,,,,,,,,,,,,,,,,,,,,,0,2,2,2,1,,,,,,,,,,,,,,,,,,,,,,,,,,,,,,,,,,,,,,,,,,,,,,
324572,001,2022-11-14_24h26.41.138,Info_measure_main_exp,2022.2.2,Win32,60.0132029,,,,,,,,,,,,,,,,,,masks/mask_004.jpg,,,,,,,,,,,,,,,,,,,,,,,,,,,,,,,,,,,,,,,,,,,0,3,3,3,1,,,,,,,,,,,,,,,,,,,,,,,,,,,,,,,,,,,,,,,,,,,,,,
324572,001,2022-11-14_24h26.41.138,Info_measure_main_exp,2022.2.2,Win32,60.0132029,,,,,,,,,,,,,,,,,,masks/mask_001.jpg,,,,,,,,,,,,,,,,,,,,,,,,,,,,,,,,,,,,,,,,,,,0,4,4,0,1,,,,,,,,,,,,,,,,,,,,,,,,,,,,,,,,,,,,,,,,,,,,,,
324572,001,2022-11-14_24h26.41.138,Info_measure_main_exp,2022.2.2,Win32,60.0132029,,,,,,,,,,,,,,,,,,masks/mask_005.jpg,,,,,,,,,,,,,,,,,,,,,,,,,,,,,,,,,,,,,,,,,,,,,,,,0,0,0,4,1,,,,,,,,,,,,,,,,,,,,,,,,,,,,,,,,,,,,,,,,,
324572,001,2022-11-14_24h26.41.138,Info_measure_main_exp,2022.2.2,Win32,60.0132029,,,,,,,,,,,,,,,,,,masks/mask_004.jpg,,,,,,,,,,,,,,,,,,,,,,,,,,,,,,,,,,,,,,,,,,,,,,,,0,1,1,3,1,,,,,,,,,,,,,,,,,,,,,,,,,,,,,,,,,,,,,,,,,
324572,001,2022-11-14_24h26.41.138,Info_measure_main_exp,2022.2.2,Win32,60.0132029,,,,,,,,,,,,,,,,,,masks/mask_003.jpg,,,,,,,,,,,,,,,,,,,,,,,,,,,,,,,,,,,,,,,,,,,,,,,,0,2,2,2,1,,,,,,,,,,,,,,,,,,,,,,,,,,,,,,,,,,,,,,,,,
324572,001,2022-11-14_24h26.41.138,Info_measure_main_exp,2022.2.2,Win32,60.0132029,,,,,,,,,,,,,,,,,,masks/mask_001.jpg,,,,,,,,,,,,,,,,,,,,,,,,,,,,,,,,,,,,,,,,,,,,,,,,0,3,3,0,1,,,,,,,,,,,,,,,,,,,,,,,,,,,,,,,,,,,,,,,,,
324572,001,2022-11-14_24h26.41.138,Info_measure_main_exp,2022.2.2,Win32,60.0132029,,,,,,,,,,,,,,,,,,masks/mask_002.jpg,,,,,,,,,,,,,,,,,,,,,,,,,,,,,,,,,,,,,,,,,,,,,,,,0,4,4,1,1,,,,,,,,,,,,,,,,,,,,,,,,,,,,,,,,,,,,,,,,,
324572,001,2022-11-14_24h26.41.138,Info_measure_main_exp,2022.2.2,Win32,60.0132029,,,,,,,,,,,,,,,,,,,,,,,,,,,,,,7,0.5173,1,,,,,,,,,,,,0,131,5,5,2274,2082,absent_patch/patch0002274.jpg,absent_patch/patch0002082.jpg,,,,,,,,,,,,,,,,,,,,0.051851852,0.137962963,1,0,0,response1disk,2,0.006481481,0.000925926,1,0,0,center_square,0,1,1,100,1,,,,,,,,,,,,,,,,,,,,,,,
324572,001,2022-11-14_24h26.41.138,Info_measure_main_exp,2022.2.2,Win32,60.0132029,,,,,,,,,,,,,,,,,,masks/mask_003.jpg,,,,,,,,,,,,,,,,,,,,,,,,,,,,,,,,,,,,,,,,,,,0,0,0,2,1,,,,,,,,,,,,,,,,,,,,,,,,,,,,,,,,,,,,,,,,,,,,,,
324572,001,2022-11-14_24h26.41.138,Info_measure_main_exp,2022.2.2,Win32,60.0132029,,,,,,,,,,,,,,,,,,masks/mask_004.jpg,,,,,,,,,,,,,,,,,,,,,,,,,,,,,,,,,,,,,,,,,,,0,1,1,3,1,,,,,,,,,,,,,,,,,,,,,,,,,,,,,,,,,,,,,,,,,,,,,,
324572,001,2022-11-14_24h26.41.138,Info_measure_main_exp,2022.2.2,Win32,60.0132029,,,,,,,,,,,,,,,,,,masks/mask_002.jpg,,,,,,,,,,,,,,,,,,,,,,,,,,,,,,,,,,,,,,,,,,,0,2,2,1,1,,,,,,,,,,,,,,,,,,,,,,,,,,,,,,,,,,,,,,,,,,,,,,
324572,001,2022-11-14_24h26.41.138,Info_measure_main_exp,2022.2.2,Win32,60.0132029,,,,,,,,,,,,,,,,,,masks/mask_001.jpg,,,,,,,,,,,,,,,,,,,,,,,,,,,,,,,,,,,,,,,,,,,0,3,3,0,1,,,,,,,,,,,,,,,,,,,,,,,,,,,,,,,,,,,,,,,,,,,,,,
324572,001,2022-11-14_24h26.41.138,Info_measure_main_exp,2022.2.2,Win32,60.0132029,,,,,,,,,,,,,,,,,,masks/mask_005.jpg,,,,,,,,,,,,,,,,,,,,,,,,,,,,,,,,,,,,,,,,,,,0,4,4,4,1,,,,,,,,,,,,,,,,,,,,,,,,,,,,,,,,,,,,,,,,,,,,,,
324572,001,2022-11-14_24h26.41.138,Info_measure_main_exp,2022.2.2,Win32,60.0132029,,,,,,,,,,,,,,,,,,masks/mask_001.jpg,,,,,,,,,,,,,,,,,,,,,,,,,,,,,,,,,,,,,,,,,,,,,,,,0,0,0,0,1,,,,,,,,,,,,,,,,,,,,,,,,,,,,,,,,,,,,,,,,,
324572,001,2022-11-14_24h26.41.138,Info_measure_main_exp,2022.2.2,Win32,60.0132029,,,,,,,,,,,,,,,,,,masks/mask_005.jpg,,,,,,,,,,,,,,,,,,,,,,,,,,,,,,,,,,,,,,,,,,,,,,,,0,1,1,4,1,,,,,,,,,,,,,,,,,,,,,,,,,,,,,,,,,,,,,,,,,
324572,001,2022-11-14_24h26.41.138,Info_measure_main_exp,2022.2.2,Win32,60.0132029,,,,,,,,,,,,,,,,,,masks/mask_002.jpg,,,,,,,,,,,,,,,,,,,,,,,,,,,,,,,,,,,,,,,,,,,,,,,,0,2,2,1,1,,,,,,,,,,,,,,,,,,,,,,,,,,,,,,,,,,,,,,,,,
324572,001,2022-11-14_24h26.41.138,Info_measure_main_exp,2022.2.2,Win32,60.0132029,,,,,,,,,,,,,,,,,,masks/mask_004.jpg,,,,,,,,,,,,,,,,,,,,,,,,,,,,,,,,,,,,,,,,,,,,,,,,0,3,3,3,1,,,,,,,,,,,,,,,,,,,,,,,,,,,,,,,,,,,,,,,,,
324572,001,2022-11-14_24h26.41.138,Info_measure_main_exp,2022.2.2,Win32,60.0132029,,,,,,,,,,,,,,,,,,masks/mask_003.jpg,,,,,,,,,,,,,,,,,,,,,,,,,,,,,,,,,,,,,,,,,,,,,,,,0,4,4,2,1,,,,,,,,,,,,,,,,,,,,,,,,,,,,,,,,,,,,,,,,,
324572,001,2022-11-14_24h26.41.138,Info_measure_main_exp,2022.2.2,Win32,60.0132029,,,,,,,,,,,,,,,,,,,,,,,,,,,,,,7,0.534,1,,,,,,,,,,,,0,131,5,5,2190,2238,absent_patch/patch0002190.jpg,absent_patch/patch0002238.jpg,,,,,,,,,,,,,,,,,,,,0.053703704,0.117592593,1,0,0,response1disk,3,0.000925926,0.001851852,1,0,0,center_square,0,2,2,53,1,,,,,,,,,,,,,,,,,,,,,,,
324572,001,2022-11-14_24h26.41.138,Info_measure_main_exp,2022.2.2,Win32,60.0132029,,,,,,,,,,,,,,,,,,masks/mask_005.jpg,,,,,,,,,,,,,,,,,,,,,,,,,,,,,,,,,,,,,,,,,,,0,0,0,4,1,,,,,,,,,,,,,,,,,,,,,,,,,,,,,,,,,,,,,,,,,,,,,,
324572,001,2022-11-14_24h26.41.138,Info_measure_main_exp,2022.2.2,Win32,60.0132029,,,,,,,,,,,,,,,,,,masks/mask_001.jpg,,,,,,,,,,,,,,,,,,,,,,,,,,,,,,,,,,,,,,,,,,,0,1,1,0,1,,,,,,,,,,,,,,,,,,,,,,,,,,,,,,,,,,,,,,,,,,,,,,
324572,001,2022-11-14_24h26.41.138,Info_measure_main_exp,2022.2.2,Win32,60.0132029,,,,,,,,,,,,,,,,,,masks/mask_003.jpg,,,,,,,,,,,,,,,,,,,,,,,,,,,,,,,,,,,,,,,,,,,0,2,2,2,1,,,,,,,,,,,,,,,,,,,,,,,,,,,,,,,,,,,,,,,,,,,,,,
324572,001,2022-11-14_24h26.41.138,Info_measure_main_exp,2022.2.2,Win32,60.0132029,,,,,,,,,,,,,,,,,,masks/mask_004.jpg,,,,,,,,,,,,,,,,,,,,,,,,,,,,,,,,,,,,,,,,,,,0,3,3,3,1,,,,,,,,,,,,,,,,,,,,,,,,,,,,,,,,,,,,,,,,,,,,,,
324572,001,2022-11-14_24h26.41.138,Info_measure_main_exp,2022.2.2,Win32,60.0132029,,,,,,,,,,,,,,,,,,masks/mask_002.jpg,,,,,,,,,,,,,,,,,,,,,,,,,,,,,,,,,,,,,,,,,,,0,4,4,1,1,,,,,,,,,,,,,,,,,,,,,,,,,,,,,,,,,,,,,,,,,,,,,,
324572,001,2022-11-14_24h26.41.138,Info_measure_main_exp,2022.2.2,Win32,60.0132029,,,,,,,,,,,,,,,,,,masks/mask_005.jpg,,,,,,,,,,,,,,,,,,,,,,,,,,,,,,,,,,,,,,,,,,,,,,,,0,0,0,4,1,,,,,,,,,,,,,,,,,,,,,,,,,,,,,,,,,,,,,,,,,
324572,001,2022-11-14_24h26.41.138,Info_measure_main_exp,2022.2.2,Win32,60.0132029,,,,,,,,,,,,,,,,,,masks/mask_004.jpg,,,,,,,,,,,,,,,,,,,,,,,,,,,,,,,,,,,,,,,,,,,,,,,,0,1,1,3,1,,,,,,,,,,,,,,,,,,,,,,,,,,,,,,,,,,,,,,,,,
324572,001,2022-11-14_24h26.41.138,Info_measure_main_exp,2022.2.2,Win32,60.0132029,,,,,,,,,,,,,,,,,,masks/mask_001.jpg,,,,,,,,,,,,,,,,,,,,,,,,,,,,,,,,,,,,,,,,,,,,,,,,0,2,2,0,1,,,,,,,,,,,,,,,,,,,,,,,,,,,,,,,,,,,,,,,,,
324572,001,2022-11-14_24h26.41.138,Info_measure_main_exp,2022.2.2,Win32,60.0132029,,,,,,,,,,,,,,,,,,masks/mask_003.jpg,,,,,,,,,,,,,,,,,,,,,,,,,,,,,,,,,,,,,,,,,,,,,,,,0,3,3,2,1,,,,,,,,,,,,,,,,,,,,,,,,,,,,,,,,,,,,,,,,,
324572,001,2022-11-14_24h26.41.138,Info_measure_main_exp,2022.2.2,Win32,60.0132029,,,,,,,,,,,,,,,,,,masks/mask_002.jpg,,,,,,,,,,,,,,,,,,,,,,,,,,,,,,,,,,,,,,,,,,,,,,,,0,4,4,1,1,,,,,,,,,,,,,,,,,,,,,,,,,,,,,,,,,,,,,,,,,
324572,001,2022-11-14_24h26.41.138,Info_measure_main_exp,2022.2.2,Win32,60.0132029,,,,,,,,,,,,,,,,,,,,,,,,,,,,,,7,0.9344,1,,,,,,,,,,,,0,131,5,5,2190,1950,absent_patch/patch0002190.jpg,absent_patch/patch0001950.jpg,,,,,,,,,,,,,,,,,,,,0.040740741,0.098148148,1,0,0,response1disk,4,-0.000925926,0.00462963,1,0,0,center_square,0,3,3,73,1,,,,,,,,,,,,,,,,,,,,,,,
324572,001,2022-11-14_24h26.41.138,Info_measure_main_exp,2022.2.2,Win32,60.0132029,,,,,,,,,,,,,,,,,,masks/mask_005.jpg,,,,,,,,,,,,,,,,,,,,,,,,,,,,,,,,,,,,,,,,,,,0,0,0,4,1,,,,,,,,,,,,,,,,,,,,,,,,,,,,,,,,,,,,,,,,,,,,,,
324572,001,2022-11-14_24h26.41.138,Info_measure_main_exp,2022.2.2,Win32,60.0132029,,,,,,,,,,,,,,,,,,masks/mask_001.jpg,,,,,,,,,,,,,,,,,,,,,,,,,,,,,,,,,,,,,,,,,,,0,1,1,0,1,,,,,,,,,,,,,,,,,,,,,,,,,,,,,,,,,,,,,,,,,,,,,,
324572,001,2022-11-14_24h26.41.138,Info_measure_main_exp,2022.2.2,Win32,60.0132029,,,,,,,,,,,,,,,,,,masks/mask_002.jpg,,,,,,,,,,,,,,,,,,,,,,,,,,,,,,,,,,,,,,,,,,,0,2,2,1,1,,,,,,,,,,,,,,,,,,,,,,,,,,,,,,,,,,,,,,,,,,,,,,
324572,001,2022-11-14_24h26.41.138,Info_measure_main_exp,2022.2.2,Win32,60.0132029,,,,,,,,,,,,,,,,,,masks/mask_003.jpg,,,,,,,,,,,,,,,,,,,,,,,,,,,,,,,,,,,,,,,,,,,0,3,3,2,1,,,,,,,,,,,,,,,,,,,,,,,,,,,,,,,,,,,,,,,,,,,,,,
324572,001,2022-11-14_24h26.41.138,Info_measure_main_exp,2022.2.2,Win32,60.0132029,,,,,,,,,,,,,,,,,,masks/mask_004.jpg,,,,,,,,,,,,,,,,,,,,,,,,,,,,,,,,,,,,,,,,,,,0,4,4,3,1,,,,,,,,,,,,,,,,,,,,,,,,,,,,,,,,,,,,,,,,,,,,,,
324572,001,2022-11-14_24h26.41.138,Info_measure_main_exp,2022.2.2,Win32,60.0132029,,,,,,,,,,,,,,,,,,masks/mask_001.jpg,,,,,,,,,,,,,,,,,,,,,,,,,,,,,,,,,,,,,,,,,,,,,,,,0,0,0,0,1,,,,,,,,,,,,,,,,,,,,,,,,,,,,,,,,,,,,,,,,,
324572,001,2022-11-14_24h26.41.138,Info_measure_main_exp,2022.2.2,Win32,60.0132029,,,,,,,,,,,,,,,,,,masks/mask_005.jpg,,,,,,,,,,,,,,,,,,,,,,,,,,,,,,,,,,,,,,,,,,,,,,,,0,1,1,4,1,,,,,,,,,,,,,,,,,,,,,,,,,,,,,,,,,,,,,,,,,
324572,001,2022-11-14_24h26.41.138,Info_measure_main_exp,2022.2.2,Win32,60.0132029,,,,,,,,,,,,,,,,,,masks/mask_002.jpg,,,,,,,,,,,,,,,,,,,,,,,,,,,,,,,,,,,,,,,,,,,,,,,,0,2,2,1,1,,,,,,,,,,,,,,,,,,,,,,,,,,,,,,,,,,,,,,,,,
324572,001,2022-11-14_24h26.41.138,Info_measure_main_exp,2022.2.2,Win32,60.0132029,,,,,,,,,,,,,,,,,,masks/mask_003.jpg,,,,,,,,,,,,,,,,,,,,,,,,,,,,,,,,,,,,,,,,,,,,,,,,0,3,3,2,1,,,,,,,,,,,,,,,,,,,,,,,,,,,,,,,,,,,,,,,,,
324572,001,2022-11-14_24h26.41.138,Info_measure_main_exp,2022.2.2,Win32,60.0132029,,,,,,,,,,,,,,,,,,masks/mask_004.jpg,,,,,,,,,,,,,,,,,,,,,,,,,,,,,,,,,,,,,,,,,,,,,,,,0,4,4,3,1,,,,,,,,,,,,,,,,,,,,,,,,,,,,,,,,,,,,,,,,,
324572,001,2022-11-14_24h26.41.138,Info_measure_main_exp,2022.2.2,Win32,60.0132029,,,,,,,,,,,,,,,,,,,,,,,,,,,,,,5,2.0022,1,,,,,,,,,,,,0,131,5,5,2274,2154,absent_patch/patch0002274.jpg,absent_patch/patch0002154.jpg,,,,,,,,,,,,,,,,,,,,0.090740741,-0.049074074,1,0,0,response3disk,5,-0.000925926,0.000925926,1,0,0,center_square,0,4,4,23,1,,,,,,,,,,,,,,,,,,,,,,,
324572,001,2022-11-14_24h26.41.138,Info_measure_main_exp,2022.2.2,Win32,60.0132029,,,,,,,,,,,,,,,,,,masks/mask_003.jpg,,,,,,,,,,,,,,,,,,,,,,,,,,,,,,,,,,,,,,,,,,,0,0,0,2,1,,,,,,,,,,,,,,,,,,,,,,,,,,,,,,,,,,,,,,,,,,,,,,
324572,001,2022-11-14_24h26.41.138,Info_measure_main_exp,2022.2.2,Win32,60.0132029,,,,,,,,,,,,,,,,,,masks/mask_005.jpg,,,,,,,,,,,,,,,,,,,,,,,,,,,,,,,,,,,,,,,,,,,0,1,1,4,1,,,,,,,,,,,,,,,,,,,,,,,,,,,,,,,,,,,,,,,,,,,,,,
324572,001,2022-11-14_24h26.41.138,Info_measure_main_exp,2022.2.2,Win32,60.0132029,,,,,,,,,,,,,,,,,,masks/mask_001.jpg,,,,,,,,,,,,,,,,,,,,,,,,,,,,,,,,,,,,,,,,,,,0,2,2,0,1,,,,,,,,,,,,,,,,,,,,,,,,,,,,,,,,,,,,,,,,,,,,,,
324572,001,2022-11-14_24h26.41.138,Info_measure_main_exp,2022.2.2,Win32,60.0132029,,,,,,,,,,,,,,,,,,masks/mask_004.jpg,,,,,,,,,,,,,,,,,,,,,,,,,,,,,,,,,,,,,,,,,,,0,3,3,3,1,,,,,,,,,,,,,,,,,,,,,,,,,,,,,,,,,,,,,,,,,,,,,,
324572,001,2022-11-14_24h26.41.138,Info_measure_main_exp,2022.2.2,Win32,60.0132029,,,,,,,,,,,,,,,,,,masks/mask_002.jpg,,,,,,,,,,,,,,,,,,,,,,,,,,,,,,,,,,,,,,,,,,,0,4,4,1,1,,,,,,,,,,,,,,,,,,,,,,,,,,,,,,,,,,,,,,,,,,,,,,
324572,001,2022-11-14_24h26.41.138,Info_measure_main_exp,2022.2.2,Win32,60.0132029,,,,,,,,,,,,,,,,,,masks/mask_001.jpg,,,,,,,,,,,,,,,,,,,,,,,,,,,,,,,,,,,,,,,,,,,,,,,,0,0,0,0,1,,,,,,,,,,,,,,,,,,,,,,,,,,,,,,,,,,,,,,,,,
324572,001,2022-11-14_24h26.41.138,Info_measure_main_exp,2022.2.2,Win32,60.0132029,,,,,,,,,,,,,,,,,,masks/mask_004.jpg,,,,,,,,,,,,,,,,,,,,,,,,,,,,,,,,,,,,,,,,,,,,,,,,0,1,1,3,1,,,,,,,,,,,,,,,,,,,,,,,,,,,,,,,,,,,,,,,,,
324572,001,2022-11-14_24h26.41.138,Info_measure_main_exp,2022.2.2,Win32,60.0132029,,,,,,,,,,,,,,,,,,masks/mask_003.jpg,,,,,,,,,,,,,,,,,,,,,,,,,,,,,,,,,,,,,,,,,,,,,,,,0,2,2,2,1,,,,,,,,,,,,,,,,,,,,,,,,,,,,,,,,,,,,,,,,,
324572,001,2022-11-14_24h26.41.138,Info_measure_main_exp,2022.2.2,Win32,60.0132029,,,,,,,,,,,,,,,,,,masks/mask_005.jpg,,,,,,,,,,,,,,,,,,,,,,,,,,,,,,,,,,,,,,,,,,,,,,,,0,3,3,4,1,,,,,,,,,,,,,,,,,,,,,,,,,,,,,,,,,,,,,,,,,
324572,001,2022-11-14_24h26.41.138,Info_measure_main_exp,2022.2.2,Win32,60.0132029,,,,,,,,,,,,,,,,,,masks/mask_002.jpg,,,,,,,,,,,,,,,,,,,,,,,,,,,,,,,,,,,,,,,,,,,,,,,,0,4,4,1,1,,,,,,,,,,,,,,,,,,,,,,,,,,,,,,,,,,,,,,,,,
324572,001,2022-11-14_24h26.41.138,Info_measure_main_exp,2022.2.2,Win32,60.0132029,,,,,,,,,,,,,,,,,,,,,,,,,,,,,,7,0.6171,1,,,,,,,,,,,,0,131,5,5,2154,2250,absent_patch/patch0002154.jpg,absent_patch/patch0002250.jpg,,,,,,,,,,,,,,,,,,,,0.038888889,0.07962963,1,0,0,response1disk,6,0.003703704,-0.003703704,1,0,0,center_square,0,5,5,108,1,,,,,,,,,,,,,,,,,,,,,,,
324572,001,2022-11-14_24h26.41.138,Info_measure_main_exp,2022.2.2,Win32,60.0132029,,,,,,,,,,,,,,,,,,masks/mask_001.jpg,,,,,,,,,,,,,,,,,,,,,,,,,,,,,,,,,,,,,,,,,,,0,0,0,0,1,,,,,,,,,,,,,,,,,,,,,,,,,,,,,,,,,,,,,,,,,,,,,,
324572,001,2022-11-14_24h26.41.138,Info_measure_main_exp,2022.2.2,Win32,60.0132029,,,,,,,,,,,,,,,,,,masks/mask_005.jpg,,,,,,,,,,,,,,,,,,,,,,,,,,,,,,,,,,,,,,,,,,,0,1,1,4,1,,,,,,,,,,,,,,,,,,,,,,,,,,,,,,,,,,,,,,,,,,,,,,
324572,001,2022-11-14_24h26.41.138,Info_measure_main_exp,2022.2.2,Win32,60.0132029,,,,,,,,,,,,,,,,,,masks/mask_003.jpg,,,,,,,,,,,,,,,,,,,,,,,,,,,,,,,,,,,,,,,,,,,0,2,2,2,1,,,,,,,,,,,,,,,,,,,,,,,,,,,,,,,,,,,,,,,,,,,,,,
324572,001,2022-11-14_24h26.41.138,Info_measure_main_exp,2022.2.2,Win32,60.0132029,,,,,,,,,,,,,,,,,,masks/mask_002.jpg,,,,,,,,,,,,,,,,,,,,,,,,,,,,,,,,,,,,,,,,,,,0,3,3,1,1,,,,,,,,,,,,,,,,,,,,,,,,,,,,,,,,,,,,,,,,,,,,,,
324572,001,2022-11-14_24h26.41.138,Info_measure_main_exp,2022.2.2,Win32,60.0132029,,,,,,,,,,,,,,,,,,masks/mask_004.jpg,,,,,,,,,,,,,,,,,,,,,,,,,,,,,,,,,,,,,,,,,,,0,4,4,3,1,,,,,,,,,,,,,,,,,,,,,,,,,,,,,,,,,,,,,,,,,,,,,,
324572,001,2022-11-14_24h26.41.138,Info_measure_main_exp,2022.2.2,Win32,60.0132029,,,,,,,,,,,,,,,,,,masks/mask_002.jpg,,,,,,,,,,,,,,,,,,,,,,,,,,,,,,,,,,,,,,,,,,,,,,,,0,0,0,1,1,,,,,,,,,,,,,,,,,,,,,,,,,,,,,,,,,,,,,,,,,
324572,001,2022-11-14_24h26.41.138,Info_measure_main_exp,2022.2.2,Win32,60.0132029,,,,,,,,,,,,,,,,,,masks/mask_004.jpg,,,,,,,,,,,,,,,,,,,,,,,,,,,,,,,,,,,,,,,,,,,,,,,,0,1,1,3,1,,,,,,,,,,,,,,,,,,,,,,,,,,,,,,,,,,,,,,,,,
324572,001,2022-11-14_24h26.41.138,Info_measure_main_exp,2022.2.2,Win32,60.0132029,,,,,,,,,,,,,,,,,,masks/mask_001.jpg,,,,,,,,,,,,,,,,,,,,,,,,,,,,,,,,,,,,,,,,,,,,,,,,0,2,2,0,1,,,,,,,,,,,,,,,,,,,,,,,,,,,,,,,,,,,,,,,,,
324572,001,2022-11-14_24h26.41.138,Info_measure_main_exp,2022.2.2,Win32,60.0132029,,,,,,,,,,,,,,,,,,masks/mask_003.jpg,,,,,,,,,,,,,,,,,,,,,,,,,,,,,,,,,,,,,,,,,,,,,,,,0,3,3,2,1,,,,,,,,,,,,,,,,,,,,,,,,,,,,,,,,,,,,,,,,,
324572,001,2022-11-14_24h26.41.138,Info_measure_main_exp,2022.2.2,Win32,60.0132029,,,,,,,,,,,,,,,,,,masks/mask_005.jpg,,,,,,,,,,,,,,,,,,,,,,,,,,,,,,,,,,,,,,,,,,,,,,,,0,4,4,4,1,,,,,,,,,,,,,,,,,,,,,,,,,,,,,,,,,,,,,,,,,
324572,001,2022-11-14_24h26.41.138,Info_measure_main_exp,2022.2.2,Win32,60.0132029,,,,,,,,,,,,,,,,,,,,,,,,,,,,,,6,2.5191,1,,,,,,,,,,,,0,131,5,5,2166,1986,absent_patch/patch0002166.jpg,absent_patch/patch0001986.jpg,,,,,,,,,,,,,,,,,,,,0.12037037,0.019444444,1,0,0,response1disk,7,0.005555556,0.000925926,1,0,0,center_square,0,6,6,47,1,,,,,,,,,,,,,,,,,,,,,,,
324572,001,2022-11-14_24h26.41.138,Info_measure_main_exp,2022.2.2,Win32,60.0132029,,,,,,,,,,,,,,,,,,masks/mask_002.jpg,,,,,,,,,,,,,,,,,,,,,,,,,,,,,,,,,,,,,,,,,,,0,0,0,1,1,,,,,,,,,,,,,,,,,,,,,,,,,,,,,,,,,,,,,,,,,,,,,,
324572,001,2022-11-14_24h26.41.138,Info_measure_main_exp,2022.2.2,Win32,60.0132029,,,,,,,,,,,,,,,,,,masks/mask_003.jpg,,,,,,,,,,,,,,,,,,,,,,,,,,,,,,,,,,,,,,,,,,,0,1,1,2,1,,,,,,,,,,,,,,,,,,,,,,,,,,,,,,,,,,,,,,,,,,,,,,
324572,001,2022-11-14_24h26.41.138,Info_measure_main_exp,2022.2.2,Win32,60.0132029,,,,,,,,,,,,,,,,,,masks/mask_001.jpg,,,,,,,,,,,,,,,,,,,,,,,,,,,,,,,,,,,,,,,,,,,0,2,2,0,1,,,,,,,,,,,,,,,,,,,,,,,,,,,,,,,,,,,,,,,,,,,,,,
324572,001,2022-11-14_24h26.41.138,Info_measure_main_exp,2022.2.2,Win32,60.0132029,,,,,,,,,,,,,,,,,,masks/mask_005.jpg,,,,,,,,,,,,,,,,,,,,,,,,,,,,,,,,,,,,,,,,,,,0,3,3,4,1,,,,,,,,,,,,,,,,,,,,,,,,,,,,,,,,,,,,,,,,,,,,,,
324572,001,2022-11-14_24h26.41.138,Info_measure_main_exp,2022.2.2,Win32,60.0132029,,,,,,,,,,,,,,,,,,masks/mask_004.jpg,,,,,,,,,,,,,,,,,,,,,,,,,,,,,,,,,,,,,,,,,,,0,4,4,3,1,,,,,,,,,,,,,,,,,,,,,,,,,,,,,,,,,,,,,,,,,,,,,,
324572,001,2022-11-14_24h26.41.138,Info_measure_main_exp,2022.2.2,Win32,60.0132029,,,,,,,,,,,,,,,,,,masks/mask_002.jpg,,,,,,,,,,,,,,,,,,,,,,,,,,,,,,,,,,,,,,,,,,,,,,,,0,0,0,1,1,,,,,,,,,,,,,,,,,,,,,,,,,,,,,,,,,,,,,,,,,
324572,001,2022-11-14_24h26.41.138,Info_measure_main_exp,2022.2.2,Win32,60.0132029,,,,,,,,,,,,,,,,,,masks/mask_001.jpg,,,,,,,,,,,,,,,,,,,,,,,,,,,,,,,,,,,,,,,,,,,,,,,,0,1,1,0,1,,,,,,,,,,,,,,,,,,,,,,,,,,,,,,,,,,,,,,,,,
324572,001,2022-11-14_24h26.41.138,Info_measure_main_exp,2022.2.2,Win32,60.0132029,,,,,,,,,,,,,,,,,,masks/mask_003.jpg,,,,,,,,,,,,,,,,,,,,,,,,,,,,,,,,,,,,,,,,,,,,,,,,0,2,2,2,1,,,,,,,,,,,,,,,,,,,,,,,,,,,,,,,,,,,,,,,,,
324572,001,2022-11-14_24h26.41.138,Info_measure_main_exp,2022.2.2,Win32,60.0132029,,,,,,,,,,,,,,,,,,masks/mask_005.jpg,,,,,,,,,,,,,,,,,,,,,,,,,,,,,,,,,,,,,,,,,,,,,,,,0,3,3,4,1,,,,,,,,,,,,,,,,,,,,,,,,,,,,,,,,,,,,,,,,,
324572,001,2022-11-14_24h26.41.138,Info_measure_main_exp,2022.2.2,Win32,60.0132029,,,,,,,,,,,,,,,,,,masks/mask_004.jpg,,,,,,,,,,,,,,,,,,,,,,,,,,,,,,,,,,,,,,,,,,,,,,,,0,4,4,3,1,,,,,,,,,,,,,,,,,,,,,,,,,,,,,,,,,,,,,,,,,
324572,001,2022-11-14_24h26.41.138,Info_measure_main_exp,2022.2.2,Win32,60.0132029,,,,,,,,,,,,,,,,,,,,,,,,,,,,,,6,2.0685,1,,,,,,,,,,,,0,131,5,5,2250,1950,absent_patch/patch0002250.jpg,absent_patch/patch0001950.jpg,,,,,,,,,,,,,,,,,,,,0.131481481,0.059259259,1,0,0,response1disk,8,-0.010185185,0.007407407,1,0,0,center_square,0,7,7,16,1,,,,,,,,,,,,,,,,,,,,,,,
324572,001,2022-11-14_24h26.41.138,Info_measure_main_exp,2022.2.2,Win32,60.0132029,,,,,,,,,,,,,,,,,,masks/mask_001.jpg,,,,,,,,,,,,,,,,,,,,,,,,,,,,,,,,,,,,,,,,,,,0,0,0,0,1,,,,,,,,,,,,,,,,,,,,,,,,,,,,,,,,,,,,,,,,,,,,,,
324572,001,2022-11-14_24h26.41.138,Info_measure_main_exp,2022.2.2,Win32,60.0132029,,,,,,,,,,,,,,,,,,masks/mask_005.jpg,,,,,,,,,,,,,,,,,,,,,,,,,,,,,,,,,,,,,,,,,,,0,1,1,4,1,,,,,,,,,,,,,,,,,,,,,,,,,,,,,,,,,,,,,,,,,,,,,,
324572,001,2022-11-14_24h26.41.138,Info_measure_main_exp,2022.2.2,Win32,60.0132029,,,,,,,,,,,,,,,,,,masks/mask_004.jpg,,,,,,,,,,,,,,,,,,,,,,,,,,,,,,,,,,,,,,,,,,,0,2,2,3,1,,,,,,,,,,,,,,,,,,,,,,,,,,,,,,,,,,,,,,,,,,,,,,
324572,001,2022-11-14_24h26.41.138,Info_measure_main_exp,2022.2.2,Win32,60.0132029,,,,,,,,,,,,,,,,,,masks/mask_002.jpg,,,,,,,,,,,,,,,,,,,,,,,,,,,,,,,,,,,,,,,,,,,0,3,3,1,1,,,,,,,,,,,,,,,,,,,,,,,,,,,,,,,,,,,,,,,,,,,,,,
324572,001,2022-11-14_24h26.41.138,Info_measure_main_exp,2022.2.2,Win32,60.0132029,,,,,,,,,,,,,,,,,,masks/mask_003.jpg,,,,,,,,,,,,,,,,,,,,,,,,,,,,,,,,,,,,,,,,,,,0,4,4,2,1,,,,,,,,,,,,,,,,,,,,,,,,,,,,,,,,,,,,,,,,,,,,,,
324572,001,2022-11-14_24h26.41.138,Info_measure_main_exp,2022.2.2,Win32,60.0132029,,,,,,,,,,,,,,,,,,masks/mask_002.jpg,,,,,,,,,,,,,,,,,,,,,,,,,,,,,,,,,,,,,,,,,,,,,,,,0,0,0,1,1,,,,,,,,,,,,,,,,,,,,,,,,,,,,,,,,,,,,,,,,,
324572,001,2022-11-14_24h26.41.138,Info_measure_main_exp,2022.2.2,Win32,60.0132029,,,,,,,,,,,,,,,,,,masks/mask_001.jpg,,,,,,,,,,,,,,,,,,,,,,,,,,,,,,,,,,,,,,,,,,,,,,,,0,1,1,0,1,,,,,,,,,,,,,,,,,,,,,,,,,,,,,,,,,,,,,,,,,
324572,001,2022-11-14_24h26.41.138,Info_measure_main_exp,2022.2.2,Win32,60.0132029,,,,,,,,,,,,,,,,,,masks/mask_003.jpg,,,,,,,,,,,,,,,,,,,,,,,,,,,,,,,,,,,,,,,,,,,,,,,,0,2,2,2,1,,,,,,,,,,,,,,,,,,,,,,,,,,,,,,,,,,,,,,,,,
324572,001,2022-11-14_24h26.41.138,Info_measure_main_exp,2022.2.2,Win32,60.0132029,,,,,,,,,,,,,,,,,,masks/mask_005.jpg,,,,,,,,,,,,,,,,,,,,,,,,,,,,,,,,,,,,,,,,,,,,,,,,0,3,3,4,1,,,,,,,,,,,,,,,,,,,,,,,,,,,,,,,,,,,,,,,,,
324572,001,2022-11-14_24h26.41.138,Info_measure_main_exp,2022.2.2,Win32,60.0132029,,,,,,,,,,,,,,,,,,masks/mask_004.jpg,,,,,,,,,,,,,,,,,,,,,,,,,,,,,,,,,,,,,,,,,,,,,,,,0,4,4,3,1,,,,,,,,,,,,,,,,,,,,,,,,,,,,,,,,,,,,,,,,,
324572,001,2022-11-14_24h26.41.138,Info_measure_main_exp,2022.2.2,Win32,60.0132029,,,,,,,,,,,,,,,,,,,,,,,,,,,,,,7,1.1684,1,,,,,,,,,,,,0,131,5,5,2082,2178,absent_patch/patch0002082.jpg,absent_patch/patch0002178.jpg,,,,,,,,,,,,,,,,,,,,0.090740741,0.127777778,1,0,0,response1disk,9,-0.001851852,-0.009259259,1,0,0,center_square,0,8,8,2,1,,,,,,,,,,,,,,,,,,,,,,,
324572,001,2022-11-14_24h26.41.138,Info_measure_main_exp,2022.2.2,Win32,60.0132029,,,,,,,,,,,,,,,,,,masks/mask_005.jpg,,,,,,,,,,,,,,,,,,,,,,,,,,,,,,,,,,,,,,,,,,,0,0,0,4,1,,,,,,,,,,,,,,,,,,,,,,,,,,,,,,,,,,,,,,,,,,,,,,
324572,001,2022-11-14_24h26.41.138,Info_measure_main_exp,2022.2.2,Win32,60.0132029,,,,,,,,,,,,,,,,,,masks/mask_002.jpg,,,,,,,,,,,,,,,,,,,,,,,,,,,,,,,,,,,,,,,,,,,0,1,1,1,1,,,,,,,,,,,,,,,,,,,,,,,,,,,,,,,,,,,,,,,,,,,,,,
324572,001,2022-11-14_24h26.41.138,Info_measure_main_exp,2022.2.2,Win32,60.0132029,,,,,,,,,,,,,,,,,,masks/mask_003.jpg,,,,,,,,,,,,,,,,,,,,,,,,,,,,,,,,,,,,,,,,,,,0,2,2,2,1,,,,,,,,,,,,,,,,,,,,,,,,,,,,,,,,,,,,,,,,,,,,,,
324572,001,2022-11-14_24h26.41.138,Info_measure_main_exp,2022.2.2,Win32,60.0132029,,,,,,,,,,,,,,,,,,masks/mask_004.jpg,,,,,,,,,,,,,,,,,,,,,,,,,,,,,,,,,,,,,,,,,,,0,3,3,3,1,,,,,,,,,,,,,,,,,,,,,,,,,,,,,,,,,,,,,,,,,,,,,,
324572,001,2022-11-14_24h26.41.138,Info_measure_main_exp,2022.2.2,Win32,60.0132029,,,,,,,,,,,,,,,,,,masks/mask_001.jpg,,,,,,,,,,,,,,,,,,,,,,,,,,,,,,,,,,,,,,,,,,,0,4,4,0,1,,,,,,,,,,,,,,,,,,,,,,,,,,,,,,,,,,,,,,,,,,,,,,
324572,001,2022-11-14_24h26.41.138,Info_measure_main_exp,2022.2.2,Win32,60.0132029,,,,,,,,,,,,,,,,,,masks/mask_001.jpg,,,,,,,,,,,,,,,,,,,,,,,,,,,,,,,,,,,,,,,,,,,,,,,,0,0,0,0,1,,,,,,,,,,,,,,,,,,,,,,,,,,,,,,,,,,,,,,,,,
324572,001,2022-11-14_24h26.41.138,Info_measure_main_exp,2022.2.2,Win32,60.0132029,,,,,,,,,,,,,,,,,,masks/mask_002.jpg,,,,,,,,,,,,,,,,,,,,,,,,,,,,,,,,,,,,,,,,,,,,,,,,0,1,1,1,1,,,,,,,,,,,,,,,,,,,,,,,,,,,,,,,,,,,,,,,,,
324572,001,2022-11-14_24h26.41.138,Info_measure_main_exp,2022.2.2,Win32,60.0132029,,,,,,,,,,,,,,,,,,masks/mask_003.jpg,,,,,,,,,,,,,,,,,,,,,,,,,,,,,,,,,,,,,,,,,,,,,,,,0,2,2,2,1,,,,,,,,,,,,,,,,,,,,,,,,,,,,,,,,,,,,,,,,,
324572,001,2022-11-14_24h26.41.138,Info_measure_main_exp,2022.2.2,Win32,60.0132029,,,,,,,,,,,,,,,,,,masks/mask_004.jpg,,,,,,,,,,,,,,,,,,,,,,,,,,,,,,,,,,,,,,,,,,,,,,,,0,3,3,3,1,,,,,,,,,,,,,,,,,,,,,,,,,,,,,,,,,,,,,,,,,
324572,001,2022-11-14_24h26.41.138,Info_measure_main_exp,2022.2.2,Win32,60.0132029,,,,,,,,,,,,,,,,,,masks/mask_005.jpg,,,,,,,,,,,,,,,,,,,,,,,,,,,,,,,,,,,,,,,,,,,,,,,,0,4,4,4,1,,,,,,,,,,,,,,,,,,,,,,,,,,,,,,,,,,,,,,,,,
324572,001,2022-11-14_24h26.41.138,Info_measure_main_exp,2022.2.2,Win32,60.0132029,,,,,,,,,,,,,,,,,,,,,,,,,,,,,,7,0.5838,1,,,,,,,,,,,,0,131,5,5,1974,2166,absent_patch/patch0001974.jpg,absent_patch/patch0002166.jpg,,,,,,,,,,,,,,,,,,,,0.032407407,0.125,1,0,0,response1disk,10,-0.002777778,0.012037037,1,0,0,center_square,0,9,9,77,1,,,,,,,,,,,,,,,,,,,,,,,
324572,001,2022-11-14_24h26.41.138,Info_measure_main_exp,2022.2.2,Win32,60.0132029,,,,,,,,,,,,,,,,,,masks/mask_004.jpg,,,,,,,,,,,,,,,,,,,,,,,,,,,,,,,,,,,,,,,,,,,0,0,0,3,1,,,,,,,,,,,,,,,,,,,,,,,,,,,,,,,,,,,,,,,,,,,,,,
324572,001,2022-11-14_24h26.41.138,Info_measure_main_exp,2022.2.2,Win32,60.0132029,,,,,,,,,,,,,,,,,,masks/mask_005.jpg,,,,,,,,,,,,,,,,,,,,,,,,,,,,,,,,,,,,,,,,,,,0,1,1,4,1,,,,,,,,,,,,,,,,,,,,,,,,,,,,,,,,,,,,,,,,,,,,,,
324572,001,2022-11-14_24h26.41.138,Info_measure_main_exp,2022.2.2,Win32,60.0132029,,,,,,,,,,,,,,,,,,masks/mask_002.jpg,,,,,,,,,,,,,,,,,,,,,,,,,,,,,,,,,,,,,,,,,,,0,2,2,1,1,,,,,,,,,,,,,,,,,,,,,,,,,,,,,,,,,,,,,,,,,,,,,,
324572,001,2022-11-14_24h26.41.138,Info_measure_main_exp,2022.2.2,Win32,60.0132029,,,,,,,,,,,,,,,,,,masks/mask_003.jpg,,,,,,,,,,,,,,,,,,,,,,,,,,,,,,,,,,,,,,,,,,,0,3,3,2,1,,,,,,,,,,,,,,,,,,,,,,,,,,,,,,,,,,,,,,,,,,,,,,
324572,001,2022-11-14_24h26.41.138,Info_measure_main_exp,2022.2.2,Win32,60.0132029,,,,,,,,,,,,,,,,,,masks/mask_001.jpg,,,,,,,,,,,,,,,,,,,,,,,,,,,,,,,,,,,,,,,,,,,0,4,4,0,1,,,,,,,,,,,,,,,,,,,,,,,,,,,,,,,,,,,,,,,,,,,,,,
324572,001,2022-11-14_24h26.41.138,Info_measure_main_exp,2022.2.2,Win32,60.0132029,,,,,,,,,,,,,,,,,,masks/mask_003.jpg,,,,,,,,,,,,,,,,,,,,,,,,,,,,,,,,,,,,,,,,,,,,,,,,0,0,0,2,1,,,,,,,,,,,,,,,,,,,,,,,,,,,,,,,,,,,,,,,,,
324572,001,2022-11-14_24h26.41.138,Info_measure_main_exp,2022.2.2,Win32,60.0132029,,,,,,,,,,,,,,,,,,masks/mask_002.jpg,,,,,,,,,,,,,,,,,,,,,,,,,,,,,,,,,,,,,,,,,,,,,,,,0,1,1,1,1,,,,,,,,,,,,,,,,,,,,,,,,,,,,,,,,,,,,,,,,,
324572,001,2022-11-14_24h26.41.138,Info_measure_main_exp,2022.2.2,Win32,60.0132029,,,,,,,,,,,,,,,,,,masks/mask_004.jpg,,,,,,,,,,,,,,,,,,,,,,,,,,,,,,,,,,,,,,,,,,,,,,,,0,2,2,3,1,,,,,,,,,,,,,,,,,,,,,,,,,,,,,,,,,,,,,,,,,
324572,001,2022-11-14_24h26.41.138,Info_measure_main_exp,2022.2.2,Win32,60.0132029,,,,,,,,,,,,,,,,,,masks/mask_005.jpg,,,,,,,,,,,,,,,,,,,,,,,,,,,,,,,,,,,,,,,,,,,,,,,,0,3,3,4,1,,,,,,,,,,,,,,,,,,,,,,,,,,,,,,,,,,,,,,,,,
324572,001,2022-11-14_24h26.41.138,Info_measure_main_exp,2022.2.2,Win32,60.0132029,,,,,,,,,,,,,,,,,,masks/mask_001.jpg,,,,,,,,,,,,,,,,,,,,,,,,,,,,,,,,,,,,,,,,,,,,,,,,0,4,4,0,1,,,,,,,,,,,,,,,,,,,,,,,,,,,,,,,,,,,,,,,,,
324572,001,2022-11-14_24h26.41.138,Info_measure_main_exp,2022.2.2,Win32,60.0132029,,,,,,,,,,,,,,,,,,,,,,,,,,,,,,6,2.5027,1,,,,,,,,,,,,0,131,5,5,2190,2082,absent_patch/patch0002190.jpg,absent_patch/patch0002082.jpg,,,,,,,,,,,,,,,,,,,,0.111111111,0.055555556,1,0,0,response1disk,11,-0.000925926,0,1,0,0,center_square,0,10,10,112,1,,,,,,,,,,,,,,,,,,,,,,,
324572,001,2022-11-14_24h26.41.138,Info_measure_main_exp,2022.2.2,Win32,60.0132029,,,,,,,,,,,,,,,,,,masks/mask_004.jpg,,,,,,,,,,,,,,,,,,,,,,,,,,,,,,,,,,,,,,,,,,,0,0,0,3,1,,,,,,,,,,,,,,,,,,,,,,,,,,,,,,,,,,,,,,,,,,,,,,
324572,001,2022-11-14_24h26.41.138,Info_measure_main_exp,2022.2.2,Win32,60.0132029,,,,,,,,,,,,,,,,,,masks/mask_002.jpg,,,,,,,,,,,,,,,,,,,,,,,,,,,,,,,,,,,,,,,,,,,0,1,1,1,1,,,,,,,,,,,,,,,,,,,,,,,,,,,,,,,,,,,,,,,,,,,,,,
324572,001,2022-11-14_24h26.41.138,Info_measure_main_exp,2022.2.2,Win32,60.0132029,,,,,,,,,,,,,,,,,,masks/mask_005.jpg,,,,,,,,,,,,,,,,,,,,,,,,,,,,,,,,,,,,,,,,,,,0,2,2,4,1,,,,,,,,,,,,,,,,,,,,,,,,,,,,,,,,,,,,,,,,,,,,,,
324572,001,2022-11-14_24h26.41.138,Info_measure_main_exp,2022.2.2,Win32,60.0132029,,,,,,,,,,,,,,,,,,masks/mask_003.jpg,,,,,,,,,,,,,,,,,,,,,,,,,,,,,,,,,,,,,,,,,,,0,3,3,2,1,,,,,,,,,,,,,,,,,,,,,,,,,,,,,,,,,,,,,,,,,,,,,,
324572,001,2022-11-14_24h26.41.138,Info_measure_main_exp,2022.2.2,Win32,60.0132029,,,,,,,,,,,,,,,,,,masks/mask_001.jpg,,,,,,,,,,,,,,,,,,,,,,,,,,,,,,,,,,,,,,,,,,,0,4,4,0,1,,,,,,,,,,,,,,,,,,,,,,,,,,,,,,,,,,,,,,,,,,,,,,
324572,001,2022-11-14_24h26.41.138,Info_measure_main_exp,2022.2.2,Win32,60.0132029,,,,,,,,,,,,,,,,,,masks/mask_003.jpg,,,,,,,,,,,,,,,,,,,,,,,,,,,,,,,,,,,,,,,,,,,,,,,,0,0,0,2,1,,,,,,,,,,,,,,,,,,,,,,,,,,,,,,,,,,,,,,,,,
324572,001,2022-11-14_24h26.41.138,Info_measure_main_exp,2022.2.2,Win32,60.0132029,,,,,,,,,,,,,,,,,,masks/mask_001.jpg,,,,,,,,,,,,,,,,,,,,,,,,,,,,,,,,,,,,,,,,,,,,,,,,0,1,1,0,1,,,,,,,,,,,,,,,,,,,,,,,,,,,,,,,,,,,,,,,,,
324572,001,2022-11-14_24h26.41.138,Info_measure_main_exp,2022.2.2,Win32,60.0132029,,,,,,,,,,,,,,,,,,masks/mask_004.jpg,,,,,,,,,,,,,,,,,,,,,,,,,,,,,,,,,,,,,,,,,,,,,,,,0,2,2,3,1,,,,,,,,,,,,,,,,,,,,,,,,,,,,,,,,,,,,,,,,,
324572,001,2022-11-14_24h26.41.138,Info_measure_main_exp,2022.2.2,Win32,60.0132029,,,,,,,,,,,,,,,,,,masks/mask_005.jpg,,,,,,,,,,,,,,,,,,,,,,,,,,,,,,,,,,,,,,,,,,,,,,,,0,3,3,4,1,,,,,,,,,,,,,,,,,,,,,,,,,,,,,,,,,,,,,,,,,
324572,001,2022-11-14_24h26.41.138,Info_measure_main_exp,2022.2.2,Win32,60.0132029,,,,,,,,,,,,,,,,,,masks/mask_002.jpg,,,,,,,,,,,,,,,,,,,,,,,,,,,,,,,,,,,,,,,,,,,,,,,,0,4,4,1,1,,,,,,,,,,,,,,,,,,,,,,,,,,,,,,,,,,,,,,,,,
324572,001,2022-11-14_24h26.41.138,Info_measure_main_exp,2022.2.2,Win32,60.0132029,,,,,,,,,,,,,,,,,,,,,,,,,,,,,,7,1.1179,1,,,,,,,,,,,,0,131,5,5,2190,1974,absent_patch/patch0002190.jpg,absent_patch/patch0001974.jpg,,,,,,,,,,,,,,,,,,,,0.039814815,0.090740741,1,0,0,response1disk,12,0.002777778,0.00462963,1,0,0,center_square,0,11,11,119,1,,,,,,,,,,,,,,,,,,,,,,,
324572,001,2022-11-14_24h26.41.138,Info_measure_main_exp,2022.2.2,Win32,60.0132029,,,,,,,,,,,,,,,,,,masks/mask_005.jpg,,,,,,,,,,,,,,,,,,,,,,,,,,,,,,,,,,,,,,,,,,,0,0,0,4,1,,,,,,,,,,,,,,,,,,,,,,,,,,,,,,,,,,,,,,,,,,,,,,
324572,001,2022-11-14_24h26.41.138,Info_measure_main_exp,2022.2.2,Win32,60.0132029,,,,,,,,,,,,,,,,,,masks/mask_004.jpg,,,,,,,,,,,,,,,,,,,,,,,,,,,,,,,,,,,,,,,,,,,0,1,1,3,1,,,,,,,,,,,,,,,,,,,,,,,,,,,,,,,,,,,,,,,,,,,,,,
324572,001,2022-11-14_24h26.41.138,Info_measure_main_exp,2022.2.2,Win32,60.0132029,,,,,,,,,,,,,,,,,,masks/mask_001.jpg,,,,,,,,,,,,,,,,,,,,,,,,,,,,,,,,,,,,,,,,,,,0,2,2,0,1,,,,,,,,,,,,,,,,,,,,,,,,,,,,,,,,,,,,,,,,,,,,,,
324572,001,2022-11-14_24h26.41.138,Info_measure_main_exp,2022.2.2,Win32,60.0132029,,,,,,,,,,,,,,,,,,masks/mask_002.jpg,,,,,,,,,,,,,,,,,,,,,,,,,,,,,,,,,,,,,,,,,,,0,3,3,1,1,,,,,,,,,,,,,,,,,,,,,,,,,,,,,,,,,,,,,,,,,,,,,,
324572,001,2022-11-14_24h26.41.138,Info_measure_main_exp,2022.2.2,Win32,60.0132029,,,,,,,,,,,,,,,,,,masks/mask_003.jpg,,,,,,,,,,,,,,,,,,,,,,,,,,,,,,,,,,,,,,,,,,,0,4,4,2,1,,,,,,,,,,,,,,,,,,,,,,,,,,,,,,,,,,,,,,,,,,,,,,
324572,001,2022-11-14_24h26.41.138,Info_measure_main_exp,2022.2.2,Win32,60.0132029,,,,,,,,,,,,,,,,,,masks/mask_002.jpg,,,,,,,,,,,,,,,,,,,,,,,,,,,,,,,,,,,,,,,,,,,,,,,,0,0,0,1,1,,,,,,,,,,,,,,,,,,,,,,,,,,,,,,,,,,,,,,,,,
324572,001,2022-11-14_24h26.41.138,Info_measure_main_exp,2022.2.2,Win32,60.0132029,,,,,,,,,,,,,,,,,,masks/mask_004.jpg,,,,,,,,,,,,,,,,,,,,,,,,,,,,,,,,,,,,,,,,,,,,,,,,0,1,1,3,1,,,,,,,,,,,,,,,,,,,,,,,,,,,,,,,,,,,,,,,,,
324572,001,2022-11-14_24h26.41.138,Info_measure_main_exp,2022.2.2,Win32,60.0132029,,,,,,,,,,,,,,,,,,masks/mask_005.jpg,,,,,,,,,,,,,,,,,,,,,,,,,,,,,,,,,,,,,,,,,,,,,,,,0,2,2,4,1,,,,,,,,,,,,,,,,,,,,,,,,,,,,,,,,,,,,,,,,,
324572,001,2022-11-14_24h26.41.138,Info_measure_main_exp,2022.2.2,Win32,60.0132029,,,,,,,,,,,,,,,,,,masks/mask_001.jpg,,,,,,,,,,,,,,,,,,,,,,,,,,,,,,,,,,,,,,,,,,,,,,,,0,3,3,0,1,,,,,,,,,,,,,,,,,,,,,,,,,,,,,,,,,,,,,,,,,
324572,001,2022-11-14_24h26.41.138,Info_measure_main_exp,2022.2.2,Win32,60.0132029,,,,,,,,,,,,,,,,,,masks/mask_003.jpg,,,,,,,,,,,,,,,,,,,,,,,,,,,,,,,,,,,,,,,,,,,,,,,,0,4,4,2,1,,,,,,,,,,,,,,,,,,,,,,,,,,,,,,,,,,,,,,,,,
324572,001,2022-11-14_24h26.41.138,Info_measure_main_exp,2022.2.2,Win32,60.0132029,,,,,,,,,,,,,,,,,,,,,,,,,,,,,,6,1.7015,1,,,,,,,,,,,,0,131,5,5,2274,2250,absent_patch/patch0002274.jpg,absent_patch/patch0002250.jpg,,,,,,,,,,,,,,,,,,,,0.078703704,0.05,1,0,0,response1disk,13,0.00462963,0.000925926,1,0,0,center_square,0,12,12,28,1,,,,,,,,,,,,,,,,,,,,,,,
324572,001,2022-11-14_24h26.41.138,Info_measure_main_exp,2022.2.2,Win32,60.0132029,,,,,,,,,,,,,,,,,,masks/mask_004.jpg,,,,,,,,,,,,,,,,,,,,,,,,,,,,,,,,,,,,,,,,,,,0,0,0,3,1,,,,,,,,,,,,,,,,,,,,,,,,,,,,,,,,,,,,,,,,,,,,,,
324572,001,2022-11-14_24h26.41.138,Info_measure_main_exp,2022.2.2,Win32,60.0132029,,,,,,,,,,,,,,,,,,masks/mask_002.jpg,,,,,,,,,,,,,,,,,,,,,,,,,,,,,,,,,,,,,,,,,,,0,1,1,1,1,,,,,,,,,,,,,,,,,,,,,,,,,,,,,,,,,,,,,,,,,,,,,,
324572,001,2022-11-14_24h26.41.138,Info_measure_main_exp,2022.2.2,Win32,60.0132029,,,,,,,,,,,,,,,,,,masks/mask_005.jpg,,,,,,,,,,,,,,,,,,,,,,,,,,,,,,,,,,,,,,,,,,,0,2,2,4,1,,,,,,,,,,,,,,,,,,,,,,,,,,,,,,,,,,,,,,,,,,,,,,
324572,001,2022-11-14_24h26.41.138,Info_measure_main_exp,2022.2.2,Win32,60.0132029,,,,,,,,,,,,,,,,,,masks/mask_001.jpg,,,,,,,,,,,,,,,,,,,,,,,,,,,,,,,,,,,,,,,,,,,0,3,3,0,1,,,,,,,,,,,,,,,,,,,,,,,,,,,,,,,,,,,,,,,,,,,,,,
324572,001,2022-11-14_24h26.41.138,Info_measure_main_exp,2022.2.2,Win32,60.0132029,,,,,,,,,,,,,,,,,,masks/mask_003.jpg,,,,,,,,,,,,,,,,,,,,,,,,,,,,,,,,,,,,,,,,,,,0,4,4,2,1,,,,,,,,,,,,,,,,,,,,,,,,,,,,,,,,,,,,,,,,,,,,,,
324572,001,2022-11-14_24h26.41.138,Info_measure_main_exp,2022.2.2,Win32,60.0132029,,,,,,,,,,,,,,,,,,masks/mask_005.jpg,,,,,,,,,,,,,,,,,,,,,,,,,,,,,,,,,,,,,,,,,,,,,,,,0,0,0,4,1,,,,,,,,,,,,,,,,,,,,,,,,,,,,,,,,,,,,,,,,,
324572,001,2022-11-14_24h26.41.138,Info_measure_main_exp,2022.2.2,Win32,60.0132029,,,,,,,,,,,,,,,,,,masks/mask_004.jpg,,,,,,,,,,,,,,,,,,,,,,,,,,,,,,,,,,,,,,,,,,,,,,,,0,1,1,3,1,,,,,,,,,,,,,,,,,,,,,,,,,,,,,,,,,,,,,,,,,
324572,001,2022-11-14_24h26.41.138,Info_measure_main_exp,2022.2.2,Win32,60.0132029,,,,,,,,,,,,,,,,,,masks/mask_001.jpg,,,,,,,,,,,,,,,,,,,,,,,,,,,,,,,,,,,,,,,,,,,,,,,,0,2,2,0,1,,,,,,,,,,,,,,,,,,,,,,,,,,,,,,,,,,,,,,,,,
324572,001,2022-11-14_24h26.41.138,Info_measure_main_exp,2022.2.2,Win32,60.0132029,,,,,,,,,,,,,,,,,,masks/mask_002.jpg,,,,,,,,,,,,,,,,,,,,,,,,,,,,,,,,,,,,,,,,,,,,,,,,0,3,3,1,1,,,,,,,,,,,,,,,,,,,,,,,,,,,,,,,,,,,,,,,,,
324572,001,2022-11-14_24h26.41.138,Info_measure_main_exp,2022.2.2,Win32,60.0132029,,,,,,,,,,,,,,,,,,masks/mask_003.jpg,,,,,,,,,,,,,,,,,,,,,,,,,,,,,,,,,,,,,,,,,,,,,,,,0,4,4,2,1,,,,,,,,,,,,,,,,,,,,,,,,,,,,,,,,,,,,,,,,,
324572,001,2022-11-14_24h26.41.138,Info_measure_main_exp,2022.2.2,Win32,60.0132029,,,,,,,,,,,,,,,,,,,,,,,,,,,,,,7,1.2011,1,,,,,,,,,,,,0,131,5,5,2190,2178,absent_patch/patch0002190.jpg,absent_patch/patch0002178.jpg,,,,,,,,,,,,,,,,,,,,0.02962963,0.062037037,1,0,0,response1disk,14,0.001851852,0.007407407,1,0,0,center_square,0,13,13,14,1,,,,,,,,,,,,,,,,,,,,,,,
324572,001,2022-11-14_24h26.41.138,Info_measure_main_exp,2022.2.2,Win32,60.0132029,,,,,,,,,,,,,,,,,,masks/mask_002.jpg,,,,,,,,,,,,,,,,,,,,,,,,,,,,,,,,,,,,,,,,,,,0,0,0,1,1,,,,,,,,,,,,,,,,,,,,,,,,,,,,,,,,,,,,,,,,,,,,,,
324572,001,2022-11-14_24h26.41.138,Info_measure_main_exp,2022.2.2,Win32,60.0132029,,,,,,,,,,,,,,,,,,masks/mask_003.jpg,,,,,,,,,,,,,,,,,,,,,,,,,,,,,,,,,,,,,,,,,,,0,1,1,2,1,,,,,,,,,,,,,,,,,,,,,,,,,,,,,,,,,,,,,,,,,,,,,,
324572,001,2022-11-14_24h26.41.138,Info_measure_main_exp,2022.2.2,Win32,60.0132029,,,,,,,,,,,,,,,,,,masks/mask_005.jpg,,,,,,,,,,,,,,,,,,,,,,,,,,,,,,,,,,,,,,,,,,,0,2,2,4,1,,,,,,,,,,,,,,,,,,,,,,,,,,,,,,,,,,,,,,,,,,,,,,
324572,001,2022-11-14_24h26.41.138,Info_measure_main_exp,2022.2.2,Win32,60.0132029,,,,,,,,,,,,,,,,,,masks/mask_004.jpg,,,,,,,,,,,,,,,,,,,,,,,,,,,,,,,,,,,,,,,,,,,0,3,3,3,1,,,,,,,,,,,,,,,,,,,,,,,,,,,,,,,,,,,,,,,,,,,,,,
324572,001,2022-11-14_24h26.41.138,Info_measure_main_exp,2022.2.2,Win32,60.0132029,,,,,,,,,,,,,,,,,,masks/mask_001.jpg,,,,,,,,,,,,,,,,,,,,,,,,,,,,,,,,,,,,,,,,,,,0,4,4,0,1,,,,,,,,,,,,,,,,,,,,,,,,,,,,,,,,,,,,,,,,,,,,,,
324572,001,2022-11-14_24h26.41.138,Info_measure_main_exp,2022.2.2,Win32,60.0132029,,,,,,,,,,,,,,,,,,masks/mask_001.jpg,,,,,,,,,,,,,,,,,,,,,,,,,,,,,,,,,,,,,,,,,,,,,,,,0,0,0,0,1,,,,,,,,,,,,,,,,,,,,,,,,,,,,,,,,,,,,,,,,,
324572,001,2022-11-14_24h26.41.138,Info_measure_main_exp,2022.2.2,Win32,60.0132029,,,,,,,,,,,,,,,,,,masks/mask_005.jpg,,,,,,,,,,,,,,,,,,,,,,,,,,,,,,,,,,,,,,,,,,,,,,,,0,1,1,4,1,,,,,,,,,,,,,,,,,,,,,,,,,,,,,,,,,,,,,,,,,
324572,001,2022-11-14_24h26.41.138,Info_measure_main_exp,2022.2.2,Win32,60.0132029,,,,,,,,,,,,,,,,,,masks/mask_004.jpg,,,,,,,,,,,,,,,,,,,,,,,,,,,,,,,,,,,,,,,,,,,,,,,,0,2,2,3,1,,,,,,,,,,,,,,,,,,,,,,,,,,,,,,,,,,,,,,,,,
324572,001,2022-11-14_24h26.41.138,Info_measure_main_exp,2022.2.2,Win32,60.0132029,,,,,,,,,,,,,,,,,,masks/mask_002.jpg,,,,,,,,,,,,,,,,,,,,,,,,,,,,,,,,,,,,,,,,,,,,,,,,0,3,3,1,1,,,,,,,,,,,,,,,,,,,,,,,,,,,,,,,,,,,,,,,,,
324572,001,2022-11-14_24h26.41.138,Info_measure_main_exp,2022.2.2,Win32,60.0132029,,,,,,,,,,,,,,,,,,masks/mask_003.jpg,,,,,,,,,,,,,,,,,,,,,,,,,,,,,,,,,,,,,,,,,,,,,,,,0,4,4,2,1,,,,,,,,,,,,,,,,,,,,,,,,,,,,,,,,,,,,,,,,,
324572,001,2022-11-14_24h26.41.138,Info_measure_main_exp,2022.2.2,Win32,60.0132029,,,,,,,,,,,,,,,,,,,,,,,,,,,,,,7,0.467,1,,,,,,,,,,,,0,131,5,5,1986,1974,absent_patch/patch0001986.jpg,absent_patch/patch0001974.jpg,,,,,,,,,,,,,,,,,,,,0.046296296,0.075,1,0,0,response1disk,15,0.008333333,0.001851852,1,0,0,center_square,0,14,14,25,1,,,,,,,,,,,,,,,,,,,,,,,
324572,001,2022-11-14_24h26.41.138,Info_measure_main_exp,2022.2.2,Win32,60.0132029,,,,,,,,,,,,,,,,,,masks/mask_001.jpg,,,,,,,,,,,,,,,,,,,,,,,,,,,,,,,,,,,,,,,,,,,0,0,0,0,1,,,,,,,,,,,,,,,,,,,,,,,,,,,,,,,,,,,,,,,,,,,,,,
324572,001,2022-11-14_24h26.41.138,Info_measure_main_exp,2022.2.2,Win32,60.0132029,,,,,,,,,,,,,,,,,,masks/mask_002.jpg,,,,,,,,,,,,,,,,,,,,,,,,,,,,,,,,,,,,,,,,,,,0,1,1,1,1,,,,,,,,,,,,,,,,,,,,,,,,,,,,,,,,,,,,,,,,,,,,,,
324572,001,2022-11-14_24h26.41.138,Info_measure_main_exp,2022.2.2,Win32,60.0132029,,,,,,,,,,,,,,,,,,masks/mask_004.jpg,,,,,,,,,,,,,,,,,,,,,,,,,,,,,,,,,,,,,,,,,,,0,2,2,3,1,,,,,,,,,,,,,,,,,,,,,,,,,,,,,,,,,,,,,,,,,,,,,,
324572,001,2022-11-14_24h26.41.138,Info_measure_main_exp,2022.2.2,Win32,60.0132029,,,,,,,,,,,,,,,,,,masks/mask_005.jpg,,,,,,,,,,,,,,,,,,,,,,,,,,,,,,,,,,,,,,,,,,,0,3,3,4,1,,,,,,,,,,,,,,,,,,,,,,,,,,,,,,,,,,,,,,,,,,,,,,
324572,001,2022-11-14_24h26.41.138,Info_measure_main_exp,2022.2.2,Win32,60.0132029,,,,,,,,,,,,,,,,,,masks/mask_003.jpg,,,,,,,,,,,,,,,,,,,,,,,,,,,,,,,,,,,,,,,,,,,0,4,4,2,1,,,,,,,,,,,,,,,,,,,,,,,,,,,,,,,,,,,,,,,,,,,,,,
324572,001,2022-11-14_24h26.41.138,Info_measure_main_exp,2022.2.2,Win32,60.0132029,,,,,,,,,,,,,,,,,,masks/mask_001.jpg,,,,,,,,,,,,,,,,,,,,,,,,,,,,,,,,,,,,,,,,,,,,,,,,0,0,0,0,1,,,,,,,,,,,,,,,,,,,,,,,,,,,,,,,,,,,,,,,,,
324572,001,2022-11-14_24h26.41.138,Info_measure_main_exp,2022.2.2,Win32,60.0132029,,,,,,,,,,,,,,,,,,masks/mask_004.jpg,,,,,,,,,,,,,,,,,,,,,,,,,,,,,,,,,,,,,,,,,,,,,,,,0,1,1,3,1,,,,,,,,,,,,,,,,,,,,,,,,,,,,,,,,,,,,,,,,,
324572,001,2022-11-14_24h26.41.138,Info_measure_main_exp,2022.2.2,Win32,60.0132029,,,,,,,,,,,,,,,,,,masks/mask_005.jpg,,,,,,,,,,,,,,,,,,,,,,,,,,,,,,,,,,,,,,,,,,,,,,,,0,2,2,4,1,,,,,,,,,,,,,,,,,,,,,,,,,,,,,,,,,,,,,,,,,
324572,001,2022-11-14_24h26.41.138,Info_measure_main_exp,2022.2.2,Win32,60.0132029,,,,,,,,,,,,,,,,,,masks/mask_003.jpg,,,,,,,,,,,,,,,,,,,,,,,,,,,,,,,,,,,,,,,,,,,,,,,,0,3,3,2,1,,,,,,,,,,,,,,,,,,,,,,,,,,,,,,,,,,,,,,,,,
324572,001,2022-11-14_24h26.41.138,Info_measure_main_exp,2022.2.2,Win32,60.0132029,,,,,,,,,,,,,,,,,,masks/mask_002.jpg,,,,,,,,,,,,,,,,,,,,,,,,,,,,,,,,,,,,,,,,,,,,,,,,0,4,4,1,1,,,,,,,,,,,,,,,,,,,,,,,,,,,,,,,,,,,,,,,,,
324572,001,2022-11-14_24h26.41.138,Info_measure_main_exp,2022.2.2,Win32,60.0132029,,,,,,,,,,,,,,,,,,,,,,,,,,,,,,7,0.4836,1,,,,,,,,,,,,0,131,5,5,2214,2166,absent_patch/patch0002214.jpg,absent_patch/patch0002166.jpg,,,,,,,,,,,,,,,,,,,,0.035185185,0.075925926,1,0,0,response1disk,16,-0.001851852,-0.007407407,1,0,0,center_square,0,15,15,109,1,,,,,,,,,,,,,,,,,,,,,,,
324572,001,2022-11-14_24h26.41.138,Info_measure_main_exp,2022.2.2,Win32,60.0132029,,,,,,,,,,,,,,,,,,masks/mask_002.jpg,,,,,,,,,,,,,,,,,,,,,,,,,,,,,,,,,,,,,,,,,,,0,0,0,1,1,,,,,,,,,,,,,,,,,,,,,,,,,,,,,,,,,,,,,,,,,,,,,,
324572,001,2022-11-14_24h26.41.138,Info_measure_main_exp,2022.2.2,Win32,60.0132029,,,,,,,,,,,,,,,,,,masks/mask_004.jpg,,,,,,,,,,,,,,,,,,,,,,,,,,,,,,,,,,,,,,,,,,,0,1,1,3,1,,,,,,,,,,,,,,,,,,,,,,,,,,,,,,,,,,,,,,,,,,,,,,
324572,001,2022-11-14_24h26.41.138,Info_measure_main_exp,2022.2.2,Win32,60.0132029,,,,,,,,,,,,,,,,,,masks/mask_005.jpg,,,,,,,,,,,,,,,,,,,,,,,,,,,,,,,,,,,,,,,,,,,0,2,2,4,1,,,,,,,,,,,,,,,,,,,,,,,,,,,,,,,,,,,,,,,,,,,,,,
324572,001,2022-11-14_24h26.41.138,Info_measure_main_exp,2022.2.2,Win32,60.0132029,,,,,,,,,,,,,,,,,,masks/mask_001.jpg,,,,,,,,,,,,,,,,,,,,,,,,,,,,,,,,,,,,,,,,,,,0,3,3,0,1,,,,,,,,,,,,,,,,,,,,,,,,,,,,,,,,,,,,,,,,,,,,,,
324572,001,2022-11-14_24h26.41.138,Info_measure_main_exp,2022.2.2,Win32,60.0132029,,,,,,,,,,,,,,,,,,masks/mask_003.jpg,,,,,,,,,,,,,,,,,,,,,,,,,,,,,,,,,,,,,,,,,,,0,4,4,2,1,,,,,,,,,,,,,,,,,,,,,,,,,,,,,,,,,,,,,,,,,,,,,,
324572,001,2022-11-14_24h26.41.138,Info_measure_main_exp,2022.2.2,Win32,60.0132029,,,,,,,,,,,,,,,,,,masks/mask_005.jpg,,,,,,,,,,,,,,,,,,,,,,,,,,,,,,,,,,,,,,,,,,,,,,,,0,0,0,4,1,,,,,,,,,,,,,,,,,,,,,,,,,,,,,,,,,,,,,,,,,
324572,001,2022-11-14_24h26.41.138,Info_measure_main_exp,2022.2.2,Win32,60.0132029,,,,,,,,,,,,,,,,,,masks/mask_003.jpg,,,,,,,,,,,,,,,,,,,,,,,,,,,,,,,,,,,,,,,,,,,,,,,,0,1,1,2,1,,,,,,,,,,,,,,,,,,,,,,,,,,,,,,,,,,,,,,,,,
324572,001,2022-11-14_24h26.41.138,Info_measure_main_exp,2022.2.2,Win32,60.0132029,,,,,,,,,,,,,,,,,,masks/mask_002.jpg,,,,,,,,,,,,,,,,,,,,,,,,,,,,,,,,,,,,,,,,,,,,,,,,0,2,2,1,1,,,,,,,,,,,,,,,,,,,,,,,,,,,,,,,,,,,,,,,,,
324572,001,2022-11-14_24h26.41.138,Info_measure_main_exp,2022.2.2,Win32,60.0132029,,,,,,,,,,,,,,,,,,masks/mask_004.jpg,,,,,,,,,,,,,,,,,,,,,,,,,,,,,,,,,,,,,,,,,,,,,,,,0,3,3,3,1,,,,,,,,,,,,,,,,,,,,,,,,,,,,,,,,,,,,,,,,,
324572,001,2022-11-14_24h26.41.138,Info_measure_main_exp,2022.2.2,Win32,60.0132029,,,,,,,,,,,,,,,,,,masks/mask_001.jpg,,,,,,,,,,,,,,,,,,,,,,,,,,,,,,,,,,,,,,,,,,,,,,,,0,4,4,0,1,,,,,,,,,,,,,,,,,,,,,,,,,,,,,,,,,,,,,,,,,
324572,001,2022-11-14_24h26.41.138,Info_measure_main_exp,2022.2.2,Win32,60.0132029,,,,,,,,,,,,,,,,,,,,,,,,,,,,,,6,1.3514,1,,,,,,,,,,,,0,131,5,5,2082,2298,absent_patch/patch0002082.jpg,absent_patch/patch0002298.jpg,,,,,,,,,,,,,,,,,,,,0.084259259,0.044444444,1,0,0,response1disk,17,-0.001851852,0.008333333,1,0,0,center_square,0,16,16,107,1,,,,,,,,,,,,,,,,,,,,,,,
324572,001,2022-11-14_24h26.41.138,Info_measure_main_exp,2022.2.2,Win32,60.0132029,,,,,,,,,,,,,,,,,,masks/mask_004.jpg,,,,,,,,,,,,,,,,,,,,,,,,,,,,,,,,,,,,,,,,,,,0,0,0,3,1,,,,,,,,,,,,,,,,,,,,,,,,,,,,,,,,,,,,,,,,,,,,,,
324572,001,2022-11-14_24h26.41.138,Info_measure_main_exp,2022.2.2,Win32,60.0132029,,,,,,,,,,,,,,,,,,masks/mask_003.jpg,,,,,,,,,,,,,,,,,,,,,,,,,,,,,,,,,,,,,,,,,,,0,1,1,2,1,,,,,,,,,,,,,,,,,,,,,,,,,,,,,,,,,,,,,,,,,,,,,,
324572,001,2022-11-14_24h26.41.138,Info_measure_main_exp,2022.2.2,Win32,60.0132029,,,,,,,,,,,,,,,,,,masks/mask_005.jpg,,,,,,,,,,,,,,,,,,,,,,,,,,,,,,,,,,,,,,,,,,,0,2,2,4,1,,,,,,,,,,,,,,,,,,,,,,,,,,,,,,,,,,,,,,,,,,,,,,
324572,001,2022-11-14_24h26.41.138,Info_measure_main_exp,2022.2.2,Win32,60.0132029,,,,,,,,,,,,,,,,,,masks/mask_002.jpg,,,,,,,,,,,,,,,,,,,,,,,,,,,,,,,,,,,,,,,,,,,0,3,3,1,1,,,,,,,,,,,,,,,,,,,,,,,,,,,,,,,,,,,,,,,,,,,,,,
324572,001,2022-11-14_24h26.41.138,Info_measure_main_exp,2022.2.2,Win32,60.0132029,,,,,,,,,,,,,,,,,,masks/mask_001.jpg,,,,,,,,,,,,,,,,,,,,,,,,,,,,,,,,,,,,,,,,,,,0,4,4,0,1,,,,,,,,,,,,,,,,,,,,,,,,,,,,,,,,,,,,,,,,,,,,,,
324572,001,2022-11-14_24h26.41.138,Info_measure_main_exp,2022.2.2,Win32,60.0132029,,,,,,,,,,,,,,,,,,masks/mask_001.jpg,,,,,,,,,,,,,,,,,,,,,,,,,,,,,,,,,,,,,,,,,,,,,,,,0,0,0,0,1,,,,,,,,,,,,,,,,,,,,,,,,,,,,,,,,,,,,,,,,,
324572,001,2022-11-14_24h26.41.138,Info_measure_main_exp,2022.2.2,Win32,60.0132029,,,,,,,,,,,,,,,,,,masks/mask_002.jpg,,,,,,,,,,,,,,,,,,,,,,,,,,,,,,,,,,,,,,,,,,,,,,,,0,1,1,1,1,,,,,,,,,,,,,,,,,,,,,,,,,,,,,,,,,,,,,,,,,
324572,001,2022-11-14_24h26.41.138,Info_measure_main_exp,2022.2.2,Win32,60.0132029,,,,,,,,,,,,,,,,,,masks/mask_004.jpg,,,,,,,,,,,,,,,,,,,,,,,,,,,,,,,,,,,,,,,,,,,,,,,,0,2,2,3,1,,,,,,,,,,,,,,,,,,,,,,,,,,,,,,,,,,,,,,,,,
324572,001,2022-11-14_24h26.41.138,Info_measure_main_exp,2022.2.2,Win32,60.0132029,,,,,,,,,,,,,,,,,,masks/mask_005.jpg,,,,,,,,,,,,,,,,,,,,,,,,,,,,,,,,,,,,,,,,,,,,,,,,0,3,3,4,1,,,,,,,,,,,,,,,,,,,,,,,,,,,,,,,,,,,,,,,,,
324572,001,2022-11-14_24h26.41.138,Info_measure_main_exp,2022.2.2,Win32,60.0132029,,,,,,,,,,,,,,,,,,masks/mask_003.jpg,,,,,,,,,,,,,,,,,,,,,,,,,,,,,,,,,,,,,,,,,,,,,,,,0,4,4,2,1,,,,,,,,,,,,,,,,,,,,,,,,,,,,,,,,,,,,,,,,,
324572,001,2022-11-14_24h26.41.138,Info_measure_main_exp,2022.2.2,Win32,60.0132029,,,,,,,,,,,,,,,,,,,,,,,,,,,,,,7,0.5008,1,,,,,,,,,,,,0,131,5,5,2178,2142,absent_patch/patch0002178.jpg,absent_patch/patch0002142.jpg,,,,,,,,,,,,,,,,,,,,0.028703704,0.085185185,1,0,0,response1disk,18,0.010185185,-0.006481481,1,0,0,center_square,0,17,17,41,1,,,,,,,,,,,,,,,,,,,,,,,
324572,001,2022-11-14_24h26.41.138,Info_measure_main_exp,2022.2.2,Win32,60.0132029,,,,,,,,,,,,,,,,,,masks/mask_001.jpg,,,,,,,,,,,,,,,,,,,,,,,,,,,,,,,,,,,,,,,,,,,0,0,0,0,1,,,,,,,,,,,,,,,,,,,,,,,,,,,,,,,,,,,,,,,,,,,,,,
324572,001,2022-11-14_24h26.41.138,Info_measure_main_exp,2022.2.2,Win32,60.0132029,,,,,,,,,,,,,,,,,,masks/mask_005.jpg,,,,,,,,,,,,,,,,,,,,,,,,,,,,,,,,,,,,,,,,,,,0,1,1,4,1,,,,,,,,,,,,,,,,,,,,,,,,,,,,,,,,,,,,,,,,,,,,,,
324572,001,2022-11-14_24h26.41.138,Info_measure_main_exp,2022.2.2,Win32,60.0132029,,,,,,,,,,,,,,,,,,masks/mask_002.jpg,,,,,,,,,,,,,,,,,,,,,,,,,,,,,,,,,,,,,,,,,,,0,2,2,1,1,,,,,,,,,,,,,,,,,,,,,,,,,,,,,,,,,,,,,,,,,,,,,,
324572,001,2022-11-14_24h26.41.138,Info_measure_main_exp,2022.2.2,Win32,60.0132029,,,,,,,,,,,,,,,,,,masks/mask_003.jpg,,,,,,,,,,,,,,,,,,,,,,,,,,,,,,,,,,,,,,,,,,,0,3,3,2,1,,,,,,,,,,,,,,,,,,,,,,,,,,,,,,,,,,,,,,,,,,,,,,
324572,001,2022-11-14_24h26.41.138,Info_measure_main_exp,2022.2.2,Win32,60.0132029,,,,,,,,,,,,,,,,,,masks/mask_004.jpg,,,,,,,,,,,,,,,,,,,,,,,,,,,,,,,,,,,,,,,,,,,0,4,4,3,1,,,,,,,,,,,,,,,,,,,,,,,,,,,,,,,,,,,,,,,,,,,,,,
324572,001,2022-11-14_24h26.41.138,Info_measure_main_exp,2022.2.2,Win32,60.0132029,,,,,,,,,,,,,,,,,,masks/mask_001.jpg,,,,,,,,,,,,,,,,,,,,,,,,,,,,,,,,,,,,,,,,,,,,,,,,0,0,0,0,1,,,,,,,,,,,,,,,,,,,,,,,,,,,,,,,,,,,,,,,,,
324572,001,2022-11-14_24h26.41.138,Info_measure_main_exp,2022.2.2,Win32,60.0132029,,,,,,,,,,,,,,,,,,masks/mask_003.jpg,,,,,,,,,,,,,,,,,,,,,,,,,,,,,,,,,,,,,,,,,,,,,,,,0,1,1,2,1,,,,,,,,,,,,,,,,,,,,,,,,,,,,,,,,,,,,,,,,,
324572,001,2022-11-14_24h26.41.138,Info_measure_main_exp,2022.2.2,Win32,60.0132029,,,,,,,,,,,,,,,,,,masks/mask_002.jpg,,,,,,,,,,,,,,,,,,,,,,,,,,,,,,,,,,,,,,,,,,,,,,,,0,2,2,1,1,,,,,,,,,,,,,,,,,,,,,,,,,,,,,,,,,,,,,,,,,
324572,001,2022-11-14_24h26.41.138,Info_measure_main_exp,2022.2.2,Win32,60.0132029,,,,,,,,,,,,,,,,,,masks/mask_004.jpg,,,,,,,,,,,,,,,,,,,,,,,,,,,,,,,,,,,,,,,,,,,,,,,,0,3,3,3,1,,,,,,,,,,,,,,,,,,,,,,,,,,,,,,,,,,,,,,,,,
324572,001,2022-11-14_24h26.41.138,Info_measure_main_exp,2022.2.2,Win32,60.0132029,,,,,,,,,,,,,,,,,,masks/mask_005.jpg,,,,,,,,,,,,,,,,,,,,,,,,,,,,,,,,,,,,,,,,,,,,,,,,0,4,4,4,1,,,,,,,,,,,,,,,,,,,,,,,,,,,,,,,,,,,,,,,,,
324572,001,2022-11-14_24h26.41.138,Info_measure_main_exp,2022.2.2,Win32,60.0132029,,,,,,,,,,,,,,,,,,,,,,,,,,,,,,7,0.517,1,,,,,,,,,,,,0,131,5,5,2250,2298,absent_patch/patch0002250.jpg,absent_patch/patch0002298.jpg,,,,,,,,,,,,,,,,,,,,0.046296296,0.066666667,1,0,0,response1disk,19,0.012037037,0.002777778,1,0,0,center_square,0,18,18,59,1,,,,,,,,,,,,,,,,,,,,,,,
324572,001,2022-11-14_24h26.41.138,Info_measure_main_exp,2022.2.2,Win32,60.0132029,,,,,,,,,,,,,,,,,,masks/mask_001.jpg,,,,,,,,,,,,,,,,,,,,,,,,,,,,,,,,,,,,,,,,,,,0,0,0,0,1,,,,,,,,,,,,,,,,,,,,,,,,,,,,,,,,,,,,,,,,,,,,,,
324572,001,2022-11-14_24h26.41.138,Info_measure_main_exp,2022.2.2,Win32,60.0132029,,,,,,,,,,,,,,,,,,masks/mask_002.jpg,,,,,,,,,,,,,,,,,,,,,,,,,,,,,,,,,,,,,,,,,,,0,1,1,1,1,,,,,,,,,,,,,,,,,,,,,,,,,,,,,,,,,,,,,,,,,,,,,,
324572,001,2022-11-14_24h26.41.138,Info_measure_main_exp,2022.2.2,Win32,60.0132029,,,,,,,,,,,,,,,,,,masks/mask_003.jpg,,,,,,,,,,,,,,,,,,,,,,,,,,,,,,,,,,,,,,,,,,,0,2,2,2,1,,,,,,,,,,,,,,,,,,,,,,,,,,,,,,,,,,,,,,,,,,,,,,
324572,001,2022-11-14_24h26.41.138,Info_measure_main_exp,2022.2.2,Win32,60.0132029,,,,,,,,,,,,,,,,,,masks/mask_005.jpg,,,,,,,,,,,,,,,,,,,,,,,,,,,,,,,,,,,,,,,,,,,0,3,3,4,1,,,,,,,,,,,,,,,,,,,,,,,,,,,,,,,,,,,,,,,,,,,,,,
324572,001,2022-11-14_24h26.41.138,Info_measure_main_exp,2022.2.2,Win32,60.0132029,,,,,,,,,,,,,,,,,,masks/mask_004.jpg,,,,,,,,,,,,,,,,,,,,,,,,,,,,,,,,,,,,,,,,,,,0,4,4,3,1,,,,,,,,,,,,,,,,,,,,,,,,,,,,,,,,,,,,,,,,,,,,,,
324572,001,2022-11-14_24h26.41.138,Info_measure_main_exp,2022.2.2,Win32,60.0132029,,,,,,,,,,,,,,,,,,masks/mask_004.jpg,,,,,,,,,,,,,,,,,,,,,,,,,,,,,,,,,,,,,,,,,,,,,,,,0,0,0,3,1,,,,,,,,,,,,,,,,,,,,,,,,,,,,,,,,,,,,,,,,,
324572,001,2022-11-14_24h26.41.138,Info_measure_main_exp,2022.2.2,Win32,60.0132029,,,,,,,,,,,,,,,,,,masks/mask_002.jpg,,,,,,,,,,,,,,,,,,,,,,,,,,,,,,,,,,,,,,,,,,,,,,,,0,1,1,1,1,,,,,,,,,,,,,,,,,,,,,,,,,,,,,,,,,,,,,,,,,
324572,001,2022-11-14_24h26.41.138,Info_measure_main_exp,2022.2.2,Win32,60.0132029,,,,,,,,,,,,,,,,,,masks/mask_005.jpg,,,,,,,,,,,,,,,,,,,,,,,,,,,,,,,,,,,,,,,,,,,,,,,,0,2,2,4,1,,,,,,,,,,,,,,,,,,,,,,,,,,,,,,,,,,,,,,,,,
324572,001,2022-11-14_24h26.41.138,Info_measure_main_exp,2022.2.2,Win32,60.0132029,,,,,,,,,,,,,,,,,,masks/mask_001.jpg,,,,,,,,,,,,,,,,,,,,,,,,,,,,,,,,,,,,,,,,,,,,,,,,0,3,3,0,1,,,,,,,,,,,,,,,,,,,,,,,,,,,,,,,,,,,,,,,,,
324572,001,2022-11-14_24h26.41.138,Info_measure_main_exp,2022.2.2,Win32,60.0132029,,,,,,,,,,,,,,,,,,masks/mask_003.jpg,,,,,,,,,,,,,,,,,,,,,,,,,,,,,,,,,,,,,,,,,,,,,,,,0,4,4,2,1,,,,,,,,,,,,,,,,,,,,,,,,,,,,,,,,,,,,,,,,,
324572,001,2022-11-14_24h26.41.138,Info_measure_main_exp,2022.2.2,Win32,60.0132029,,,,,,,,,,,,,,,,,,,,,,,,,,,,,,7,1.3511,1,,,,,,,,,,,,0,131,5,5,2250,2166,absent_patch/patch0002250.jpg,absent_patch/patch0002166.jpg,,,,,,,,,,,,,,,,,,,,0.040740741,0.066666667,1,0,0,response1disk,20,0.005555556,-0.002777778,1,0,0,center_square,0,19,19,60,1,,,,,,,,,,,,,,,,,,,,,,,
324572,001,2022-11-14_24h26.41.138,Info_measure_main_exp,2022.2.2,Win32,60.0132029,,,,,,,,,,,,,,,,,,masks/mask_004.jpg,,,,,,,,,,,,,,,,,,,,,,,,,,,,,,,,,,,,,,,,,,,0,0,0,3,1,,,,,,,,,,,,,,,,,,,,,,,,,,,,,,,,,,,,,,,,,,,,,,
324572,001,2022-11-14_24h26.41.138,Info_measure_main_exp,2022.2.2,Win32,60.0132029,,,,,,,,,,,,,,,,,,masks/mask_005.jpg,,,,,,,,,,,,,,,,,,,,,,,,,,,,,,,,,,,,,,,,,,,0,1,1,4,1,,,,,,,,,,,,,,,,,,,,,,,,,,,,,,,,,,,,,,,,,,,,,,
324572,001,2022-11-14_24h26.41.138,Info_measure_main_exp,2022.2.2,Win32,60.0132029,,,,,,,,,,,,,,,,,,masks/mask_003.jpg,,,,,,,,,,,,,,,,,,,,,,,,,,,,,,,,,,,,,,,,,,,0,2,2,2,1,,,,,,,,,,,,,,,,,,,,,,,,,,,,,,,,,,,,,,,,,,,,,,
324572,001,2022-11-14_24h26.41.138,Info_measure_main_exp,2022.2.2,Win32,60.0132029,,,,,,,,,,,,,,,,,,masks/mask_001.jpg,,,,,,,,,,,,,,,,,,,,,,,,,,,,,,,,,,,,,,,,,,,0,3,3,0,1,,,,,,,,,,,,,,,,,,,,,,,,,,,,,,,,,,,,,,,,,,,,,,
324572,001,2022-11-14_24h26.41.138,Info_measure_main_exp,2022.2.2,Win32,60.0132029,,,,,,,,,,,,,,,,,,masks/mask_002.jpg,,,,,,,,,,,,,,,,,,,,,,,,,,,,,,,,,,,,,,,,,,,0,4,4,1,1,,,,,,,,,,,,,,,,,,,,,,,,,,,,,,,,,,,,,,,,,,,,,,
324572,001,2022-11-14_24h26.41.138,Info_measure_main_exp,2022.2.2,Win32,60.0132029,,,,,,,,,,,,,,,,,,masks/mask_005.jpg,,,,,,,,,,,,,,,,,,,,,,,,,,,,,,,,,,,,,,,,,,,,,,,,0,0,0,4,1,,,,,,,,,,,,,,,,,,,,,,,,,,,,,,,,,,,,,,,,,
324572,001,2022-11-14_24h26.41.138,Info_measure_main_exp,2022.2.2,Win32,60.0132029,,,,,,,,,,,,,,,,,,masks/mask_003.jpg,,,,,,,,,,,,,,,,,,,,,,,,,,,,,,,,,,,,,,,,,,,,,,,,0,1,1,2,1,,,,,,,,,,,,,,,,,,,,,,,,,,,,,,,,,,,,,,,,,
324572,001,2022-11-14_24h26.41.138,Info_measure_main_exp,2022.2.2,Win32,60.0132029,,,,,,,,,,,,,,,,,,masks/mask_004.jpg,,,,,,,,,,,,,,,,,,,,,,,,,,,,,,,,,,,,,,,,,,,,,,,,0,2,2,3,1,,,,,,,,,,,,,,,,,,,,,,,,,,,,,,,,,,,,,,,,,
324572,001,2022-11-14_24h26.41.138,Info_measure_main_exp,2022.2.2,Win32,60.0132029,,,,,,,,,,,,,,,,,,masks/mask_001.jpg,,,,,,,,,,,,,,,,,,,,,,,,,,,,,,,,,,,,,,,,,,,,,,,,0,3,3,0,1,,,,,,,,,,,,,,,,,,,,,,,,,,,,,,,,,,,,,,,,,
324572,001,2022-11-14_24h26.41.138,Info_measure_main_exp,2022.2.2,Win32,60.0132029,,,,,,,,,,,,,,,,,,masks/mask_002.jpg,,,,,,,,,,,,,,,,,,,,,,,,,,,,,,,,,,,,,,,,,,,,,,,,0,4,4,1,1,,,,,,,,,,,,,,,,,,,,,,,,,,,,,,,,,,,,,,,,,
324572,001,2022-11-14_24h26.41.138,Info_measure_main_exp,2022.2.2,Win32,60.0132029,,,,,,,,,,,,,,,,,,,,,,,,,,,,,,0,1.4349,1,,,,,,,,,,,,0,131,5,5,2238,2238,absent_patch/patch0002238.jpg,absent_patch/patch0002238.jpg,,,,,,,,,,,,,,,,,,,,-0.044444444,0.109259259,1,0,0,response7disk,21,0.000925926,-0.002777778,1,0,0,center_square,0,20,20,58,1,,,,,,,,,,,,,,,,,,,,,,,
324572,001,2022-11-14_24h26.41.138,Info_measure_main_exp,2022.2.2,Win32,60.0132029,,,,,,,,,,,,,,,,,,masks/mask_005.jpg,,,,,,,,,,,,,,,,,,,,,,,,,,,,,,,,,,,,,,,,,,,0,0,0,4,1,,,,,,,,,,,,,,,,,,,,,,,,,,,,,,,,,,,,,,,,,,,,,,
324572,001,2022-11-14_24h26.41.138,Info_measure_main_exp,2022.2.2,Win32,60.0132029,,,,,,,,,,,,,,,,,,masks/mask_003.jpg,,,,,,,,,,,,,,,,,,,,,,,,,,,,,,,,,,,,,,,,,,,0,1,1,2,1,,,,,,,,,,,,,,,,,,,,,,,,,,,,,,,,,,,,,,,,,,,,,,
324572,001,2022-11-14_24h26.41.138,Info_measure_main_exp,2022.2.2,Win32,60.0132029,,,,,,,,,,,,,,,,,,masks/mask_004.jpg,,,,,,,,,,,,,,,,,,,,,,,,,,,,,,,,,,,,,,,,,,,0,2,2,3,1,,,,,,,,,,,,,,,,,,,,,,,,,,,,,,,,,,,,,,,,,,,,,,
324572,001,2022-11-14_24h26.41.138,Info_measure_main_exp,2022.2.2,Win32,60.0132029,,,,,,,,,,,,,,,,,,masks/mask_001.jpg,,,,,,,,,,,,,,,,,,,,,,,,,,,,,,,,,,,,,,,,,,,0,3,3,0,1,,,,,,,,,,,,,,,,,,,,,,,,,,,,,,,,,,,,,,,,,,,,,,
324572,001,2022-11-14_24h26.41.138,Info_measure_main_exp,2022.2.2,Win32,60.0132029,,,,,,,,,,,,,,,,,,masks/mask_002.jpg,,,,,,,,,,,,,,,,,,,,,,,,,,,,,,,,,,,,,,,,,,,0,4,4,1,1,,,,,,,,,,,,,,,,,,,,,,,,,,,,,,,,,,,,,,,,,,,,,,
324572,001,2022-11-14_24h26.41.138,Info_measure_main_exp,2022.2.2,Win32,60.0132029,,,,,,,,,,,,,,,,,,masks/mask_004.jpg,,,,,,,,,,,,,,,,,,,,,,,,,,,,,,,,,,,,,,,,,,,,,,,,0,0,0,3,1,,,,,,,,,,,,,,,,,,,,,,,,,,,,,,,,,,,,,,,,,
324572,001,2022-11-14_24h26.41.138,Info_measure_main_exp,2022.2.2,Win32,60.0132029,,,,,,,,,,,,,,,,,,masks/mask_005.jpg,,,,,,,,,,,,,,,,,,,,,,,,,,,,,,,,,,,,,,,,,,,,,,,,0,1,1,4,1,,,,,,,,,,,,,,,,,,,,,,,,,,,,,,,,,,,,,,,,,
324572,001,2022-11-14_24h26.41.138,Info_measure_main_exp,2022.2.2,Win32,60.0132029,,,,,,,,,,,,,,,,,,masks/mask_001.jpg,,,,,,,,,,,,,,,,,,,,,,,,,,,,,,,,,,,,,,,,,,,,,,,,0,2,2,0,1,,,,,,,,,,,,,,,,,,,,,,,,,,,,,,,,,,,,,,,,,
324572,001,2022-11-14_24h26.41.138,Info_measure_main_exp,2022.2.2,Win32,60.0132029,,,,,,,,,,,,,,,,,,masks/mask_002.jpg,,,,,,,,,,,,,,,,,,,,,,,,,,,,,,,,,,,,,,,,,,,,,,,,0,3,3,1,1,,,,,,,,,,,,,,,,,,,,,,,,,,,,,,,,,,,,,,,,,
324572,001,2022-11-14_24h26.41.138,Info_measure_main_exp,2022.2.2,Win32,60.0132029,,,,,,,,,,,,,,,,,,masks/mask_003.jpg,,,,,,,,,,,,,,,,,,,,,,,,,,,,,,,,,,,,,,,,,,,,,,,,0,4,4,2,1,,,,,,,,,,,,,,,,,,,,,,,,,,,,,,,,,,,,,,,,,
324572,001,2022-11-14_24h26.41.138,Info_measure_main_exp,2022.2.2,Win32,60.0132029,,,,,,,,,,,,,,,,,,,,,,,,,,,,,,6,1.1182,1,,,,,,,,,,,,0,131,5,5,2298,2214,absent_patch/patch0002298.jpg,absent_patch/patch0002214.jpg,,,,,,,,,,,,,,,,,,,,0.069444444,0.043518519,1,0,0,response1disk,22,0.001851852,-0.000925926,1,0,0,center_square,0,21,21,99,1,,,,,,,,,,,,,,,,,,,,,,,
324572,001,2022-11-14_24h26.41.138,Info_measure_main_exp,2022.2.2,Win32,60.0132029,,,,,,,,,,,,,,,,,,masks/mask_002.jpg,,,,,,,,,,,,,,,,,,,,,,,,,,,,,,,,,,,,,,,,,,,0,0,0,1,1,,,,,,,,,,,,,,,,,,,,,,,,,,,,,,,,,,,,,,,,,,,,,,
324572,001,2022-11-14_24h26.41.138,Info_measure_main_exp,2022.2.2,Win32,60.0132029,,,,,,,,,,,,,,,,,,masks/mask_001.jpg,,,,,,,,,,,,,,,,,,,,,,,,,,,,,,,,,,,,,,,,,,,0,1,1,0,1,,,,,,,,,,,,,,,,,,,,,,,,,,,,,,,,,,,,,,,,,,,,,,
324572,001,2022-11-14_24h26.41.138,Info_measure_main_exp,2022.2.2,Win32,60.0132029,,,,,,,,,,,,,,,,,,masks/mask_005.jpg,,,,,,,,,,,,,,,,,,,,,,,,,,,,,,,,,,,,,,,,,,,0,2,2,4,1,,,,,,,,,,,,,,,,,,,,,,,,,,,,,,,,,,,,,,,,,,,,,,
324572,001,2022-11-14_24h26.41.138,Info_measure_main_exp,2022.2.2,Win32,60.0132029,,,,,,,,,,,,,,,,,,masks/mask_004.jpg,,,,,,,,,,,,,,,,,,,,,,,,,,,,,,,,,,,,,,,,,,,0,3,3,3,1,,,,,,,,,,,,,,,,,,,,,,,,,,,,,,,,,,,,,,,,,,,,,,
324572,001,2022-11-14_24h26.41.138,Info_measure_main_exp,2022.2.2,Win32,60.0132029,,,,,,,,,,,,,,,,,,masks/mask_003.jpg,,,,,,,,,,,,,,,,,,,,,,,,,,,,,,,,,,,,,,,,,,,0,4,4,2,1,,,,,,,,,,,,,,,,,,,,,,,,,,,,,,,,,,,,,,,,,,,,,,
324572,001,2022-11-14_24h26.41.138,Info_measure_main_exp,2022.2.2,Win32,60.0132029,,,,,,,,,,,,,,,,,,masks/mask_005.jpg,,,,,,,,,,,,,,,,,,,,,,,,,,,,,,,,,,,,,,,,,,,,,,,,0,0,0,4,1,,,,,,,,,,,,,,,,,,,,,,,,,,,,,,,,,,,,,,,,,
324572,001,2022-11-14_24h26.41.138,Info_measure_main_exp,2022.2.2,Win32,60.0132029,,,,,,,,,,,,,,,,,,masks/mask_004.jpg,,,,,,,,,,,,,,,,,,,,,,,,,,,,,,,,,,,,,,,,,,,,,,,,0,1,1,3,1,,,,,,,,,,,,,,,,,,,,,,,,,,,,,,,,,,,,,,,,,
324572,001,2022-11-14_24h26.41.138,Info_measure_main_exp,2022.2.2,Win32,60.0132029,,,,,,,,,,,,,,,,,,masks/mask_002.jpg,,,,,,,,,,,,,,,,,,,,,,,,,,,,,,,,,,,,,,,,,,,,,,,,0,2,2,1,1,,,,,,,,,,,,,,,,,,,,,,,,,,,,,,,,,,,,,,,,,
324572,001,2022-11-14_24h26.41.138,Info_measure_main_exp,2022.2.2,Win32,60.0132029,,,,,,,,,,,,,,,,,,masks/mask_001.jpg,,,,,,,,,,,,,,,,,,,,,,,,,,,,,,,,,,,,,,,,,,,,,,,,0,3,3,0,1,,,,,,,,,,,,,,,,,,,,,,,,,,,,,,,,,,,,,,,,,
324572,001,2022-11-14_24h26.41.138,Info_measure_main_exp,2022.2.2,Win32,60.0132029,,,,,,,,,,,,,,,,,,masks/mask_003.jpg,,,,,,,,,,,,,,,,,,,,,,,,,,,,,,,,,,,,,,,,,,,,,,,,0,4,4,2,1,,,,,,,,,,,,,,,,,,,,,,,,,,,,,,,,,,,,,,,,,
324572,001,2022-11-14_24h26.41.138,Info_measure_main_exp,2022.2.2,Win32,60.0132029,,,,,,,,,,,,,,,,,,,,,,,,,,,,,,6,2.0189,1,,,,,,,,,,,,0,131,5,5,2178,2238,absent_patch/patch0002178.jpg,absent_patch/patch0002238.jpg,,,,,,,,,,,,,,,,,,,,0.093518519,0.037037037,1,0,0,response1disk,23,-0.000925926,0.002777778,1,0,0,center_square,0,22,22,57,1,,,,,,,,,,,,,,,,,,,,,,,
324572,001,2022-11-14_24h26.41.138,Info_measure_main_exp,2022.2.2,Win32,60.0132029,,,,,,,,,,,,,,,,,,masks/mask_005.jpg,,,,,,,,,,,,,,,,,,,,,,,,,,,,,,,,,,,,,,,,,,,0,0,0,4,1,,,,,,,,,,,,,,,,,,,,,,,,,,,,,,,,,,,,,,,,,,,,,,
324572,001,2022-11-14_24h26.41.138,Info_measure_main_exp,2022.2.2,Win32,60.0132029,,,,,,,,,,,,,,,,,,masks/mask_001.jpg,,,,,,,,,,,,,,,,,,,,,,,,,,,,,,,,,,,,,,,,,,,0,1,1,0,1,,,,,,,,,,,,,,,,,,,,,,,,,,,,,,,,,,,,,,,,,,,,,,
324572,001,2022-11-14_24h26.41.138,Info_measure_main_exp,2022.2.2,Win32,60.0132029,,,,,,,,,,,,,,,,,,masks/mask_003.jpg,,,,,,,,,,,,,,,,,,,,,,,,,,,,,,,,,,,,,,,,,,,0,2,2,2,1,,,,,,,,,,,,,,,,,,,,,,,,,,,,,,,,,,,,,,,,,,,,,,
324572,001,2022-11-14_24h26.41.138,Info_measure_main_exp,2022.2.2,Win32,60.0132029,,,,,,,,,,,,,,,,,,masks/mask_004.jpg,,,,,,,,,,,,,,,,,,,,,,,,,,,,,,,,,,,,,,,,,,,0,3,3,3,1,,,,,,,,,,,,,,,,,,,,,,,,,,,,,,,,,,,,,,,,,,,,,,
324572,001,2022-11-14_24h26.41.138,Info_measure_main_exp,2022.2.2,Win32,60.0132029,,,,,,,,,,,,,,,,,,masks/mask_002.jpg,,,,,,,,,,,,,,,,,,,,,,,,,,,,,,,,,,,,,,,,,,,0,4,4,1,1,,,,,,,,,,,,,,,,,,,,,,,,,,,,,,,,,,,,,,,,,,,,,,
324572,001,2022-11-14_24h26.41.138,Info_measure_main_exp,2022.2.2,Win32,60.0132029,,,,,,,,,,,,,,,,,,masks/mask_004.jpg,,,,,,,,,,,,,,,,,,,,,,,,,,,,,,,,,,,,,,,,,,,,,,,,0,0,0,3,1,,,,,,,,,,,,,,,,,,,,,,,,,,,,,,,,,,,,,,,,,
324572,001,2022-11-14_24h26.41.138,Info_measure_main_exp,2022.2.2,Win32,60.0132029,,,,,,,,,,,,,,,,,,masks/mask_003.jpg,,,,,,,,,,,,,,,,,,,,,,,,,,,,,,,,,,,,,,,,,,,,,,,,0,1,1,2,1,,,,,,,,,,,,,,,,,,,,,,,,,,,,,,,,,,,,,,,,,
324572,001,2022-11-14_24h26.41.138,Info_measure_main_exp,2022.2.2,Win32,60.0132029,,,,,,,,,,,,,,,,,,masks/mask_002.jpg,,,,,,,,,,,,,,,,,,,,,,,,,,,,,,,,,,,,,,,,,,,,,,,,0,2,2,1,1,,,,,,,,,,,,,,,,,,,,,,,,,,,,,,,,,,,,,,,,,
324572,001,2022-11-14_24h26.41.138,Info_measure_main_exp,2022.2.2,Win32,60.0132029,,,,,,,,,,,,,,,,,,masks/mask_001.jpg,,,,,,,,,,,,,,,,,,,,,,,,,,,,,,,,,,,,,,,,,,,,,,,,0,3,3,0,1,,,,,,,,,,,,,,,,,,,,,,,,,,,,,,,,,,,,,,,,,
324572,001,2022-11-14_24h26.41.138,Info_measure_main_exp,2022.2.2,Win32,60.0132029,,,,,,,,,,,,,,,,,,masks/mask_005.jpg,,,,,,,,,,,,,,,,,,,,,,,,,,,,,,,,,,,,,,,,,,,,,,,,0,4,4,4,1,,,,,,,,,,,,,,,,,,,,,,,,,,,,,,,,,,,,,,,,,
324572,001,2022-11-14_24h26.41.138,Info_measure_main_exp,2022.2.2,Win32,60.0132029,,,,,,,,,,,,,,,,,,,,,,,,,,,,,,7,2.5533,1,,,,,,,,,,,,0,131,5,5,2298,1986,absent_patch/patch0002298.jpg,absent_patch/patch0001986.jpg,,,,,,,,,,,,,,,,,,,,0.056481481,0.082407407,1,0,0,response1disk,24,0.012962963,0.009259259,1,0,0,center_square,0,23,23,32,1,,,,,,,,,,,,,,,,,,,,,,,
324572,001,2022-11-14_24h26.41.138,Info_measure_main_exp,2022.2.2,Win32,60.0132029,,,,,,,,,,,,,,,,,,masks/mask_002.jpg,,,,,,,,,,,,,,,,,,,,,,,,,,,,,,,,,,,,,,,,,,,0,0,0,1,1,,,,,,,,,,,,,,,,,,,,,,,,,,,,,,,,,,,,,,,,,,,,,,
324572,001,2022-11-14_24h26.41.138,Info_measure_main_exp,2022.2.2,Win32,60.0132029,,,,,,,,,,,,,,,,,,masks/mask_001.jpg,,,,,,,,,,,,,,,,,,,,,,,,,,,,,,,,,,,,,,,,,,,0,1,1,0,1,,,,,,,,,,,,,,,,,,,,,,,,,,,,,,,,,,,,,,,,,,,,,,
324572,001,2022-11-14_24h26.41.138,Info_measure_main_exp,2022.2.2,Win32,60.0132029,,,,,,,,,,,,,,,,,,masks/mask_005.jpg,,,,,,,,,,,,,,,,,,,,,,,,,,,,,,,,,,,,,,,,,,,0,2,2,4,1,,,,,,,,,,,,,,,,,,,,,,,,,,,,,,,,,,,,,,,,,,,,,,
324572,001,2022-11-14_24h26.41.138,Info_measure_main_exp,2022.2.2,Win32,60.0132029,,,,,,,,,,,,,,,,,,masks/mask_004.jpg,,,,,,,,,,,,,,,,,,,,,,,,,,,,,,,,,,,,,,,,,,,0,3,3,3,1,,,,,,,,,,,,,,,,,,,,,,,,,,,,,,,,,,,,,,,,,,,,,,
324572,001,2022-11-14_24h26.41.138,Info_measure_main_exp,2022.2.2,Win32,60.0132029,,,,,,,,,,,,,,,,,,masks/mask_003.jpg,,,,,,,,,,,,,,,,,,,,,,,,,,,,,,,,,,,,,,,,,,,0,4,4,2,1,,,,,,,,,,,,,,,,,,,,,,,,,,,,,,,,,,,,,,,,,,,,,,
324572,001,2022-11-14_24h26.41.138,Info_measure_main_exp,2022.2.2,Win32,60.0132029,,,,,,,,,,,,,,,,,,masks/mask_005.jpg,,,,,,,,,,,,,,,,,,,,,,,,,,,,,,,,,,,,,,,,,,,,,,,,0,0,0,4,1,,,,,,,,,,,,,,,,,,,,,,,,,,,,,,,,,,,,,,,,,
324572,001,2022-11-14_24h26.41.138,Info_measure_main_exp,2022.2.2,Win32,60.0132029,,,,,,,,,,,,,,,,,,masks/mask_001.jpg,,,,,,,,,,,,,,,,,,,,,,,,,,,,,,,,,,,,,,,,,,,,,,,,0,1,1,0,1,,,,,,,,,,,,,,,,,,,,,,,,,,,,,,,,,,,,,,,,,
324572,001,2022-11-14_24h26.41.138,Info_measure_main_exp,2022.2.2,Win32,60.0132029,,,,,,,,,,,,,,,,,,masks/mask_004.jpg,,,,,,,,,,,,,,,,,,,,,,,,,,,,,,,,,,,,,,,,,,,,,,,,0,2,2,3,1,,,,,,,,,,,,,,,,,,,,,,,,,,,,,,,,,,,,,,,,,
324572,001,2022-11-14_24h26.41.138,Info_measure_main_exp,2022.2.2,Win32,60.0132029,,,,,,,,,,,,,,,,,,masks/mask_003.jpg,,,,,,,,,,,,,,,,,,,,,,,,,,,,,,,,,,,,,,,,,,,,,,,,0,3,3,2,1,,,,,,,,,,,,,,,,,,,,,,,,,,,,,,,,,,,,,,,,,
324572,001,2022-11-14_24h26.41.138,Info_measure_main_exp,2022.2.2,Win32,60.0132029,,,,,,,,,,,,,,,,,,masks/mask_002.jpg,,,,,,,,,,,,,,,,,,,,,,,,,,,,,,,,,,,,,,,,,,,,,,,,0,4,4,1,1,,,,,,,,,,,,,,,,,,,,,,,,,,,,,,,,,,,,,,,,,
324572,001,2022-11-14_24h26.41.138,Info_measure_main_exp,2022.2.2,Win32,60.0132029,,,,,,,,,,,,,,,,,,,,,,,,,,,,,,0,1.1679,1,,,,,,,,,,,,0,131,5,5,2178,2178,absent_patch/patch0002178.jpg,absent_patch/patch0002178.jpg,,,,,,,,,,,,,,,,,,,,-0.032407407,0.09537037,1,0,0,response7disk,25,-0.007407407,0.003703704,1,0,0,center_square,0,24,24,98,1,,,,,,,,,,,,,,,,,,,,,,,
324572,001,2022-11-14_24h26.41.138,Info_measure_main_exp,2022.2.2,Win32,60.0132029,,,,,,,,,,,,,,,,,,masks/mask_003.jpg,,,,,,,,,,,,,,,,,,,,,,,,,,,,,,,,,,,,,,,,,,,0,0,0,2,1,,,,,,,,,,,,,,,,,,,,,,,,,,,,,,,,,,,,,,,,,,,,,,
324572,001,2022-11-14_24h26.41.138,Info_measure_main_exp,2022.2.2,Win32,60.0132029,,,,,,,,,,,,,,,,,,masks/mask_001.jpg,,,,,,,,,,,,,,,,,,,,,,,,,,,,,,,,,,,,,,,,,,,0,1,1,0,1,,,,,,,,,,,,,,,,,,,,,,,,,,,,,,,,,,,,,,,,,,,,,,
324572,001,2022-11-14_24h26.41.138,Info_measure_main_exp,2022.2.2,Win32,60.0132029,,,,,,,,,,,,,,,,,,masks/mask_005.jpg,,,,,,,,,,,,,,,,,,,,,,,,,,,,,,,,,,,,,,,,,,,0,2,2,4,1,,,,,,,,,,,,,,,,,,,,,,,,,,,,,,,,,,,,,,,,,,,,,,
324572,001,2022-11-14_24h26.41.138,Info_measure_main_exp,2022.2.2,Win32,60.0132029,,,,,,,,,,,,,,,,,,masks/mask_002.jpg,,,,,,,,,,,,,,,,,,,,,,,,,,,,,,,,,,,,,,,,,,,0,3,3,1,1,,,,,,,,,,,,,,,,,,,,,,,,,,,,,,,,,,,,,,,,,,,,,,
324572,001,2022-11-14_24h26.41.138,Info_measure_main_exp,2022.2.2,Win32,60.0132029,,,,,,,,,,,,,,,,,,masks/mask_004.jpg,,,,,,,,,,,,,,,,,,,,,,,,,,,,,,,,,,,,,,,,,,,0,4,4,3,1,,,,,,,,,,,,,,,,,,,,,,,,,,,,,,,,,,,,,,,,,,,,,,
324572,001,2022-11-14_24h26.41.138,Info_measure_main_exp,2022.2.2,Win32,60.0132029,,,,,,,,,,,,,,,,,,masks/mask_001.jpg,,,,,,,,,,,,,,,,,,,,,,,,,,,,,,,,,,,,,,,,,,,,,,,,0,0,0,0,1,,,,,,,,,,,,,,,,,,,,,,,,,,,,,,,,,,,,,,,,,
324572,001,2022-11-14_24h26.41.138,Info_measure_main_exp,2022.2.2,Win32,60.0132029,,,,,,,,,,,,,,,,,,masks/mask_004.jpg,,,,,,,,,,,,,,,,,,,,,,,,,,,,,,,,,,,,,,,,,,,,,,,,0,1,1,3,1,,,,,,,,,,,,,,,,,,,,,,,,,,,,,,,,,,,,,,,,,
324572,001,2022-11-14_24h26.41.138,Info_measure_main_exp,2022.2.2,Win32,60.0132029,,,,,,,,,,,,,,,,,,masks/mask_002.jpg,,,,,,,,,,,,,,,,,,,,,,,,,,,,,,,,,,,,,,,,,,,,,,,,0,2,2,1,1,,,,,,,,,,,,,,,,,,,,,,,,,,,,,,,,,,,,,,,,,
324572,001,2022-11-14_24h26.41.138,Info_measure_main_exp,2022.2.2,Win32,60.0132029,,,,,,,,,,,,,,,,,,masks/mask_003.jpg,,,,,,,,,,,,,,,,,,,,,,,,,,,,,,,,,,,,,,,,,,,,,,,,0,3,3,2,1,,,,,,,,,,,,,,,,,,,,,,,,,,,,,,,,,,,,,,,,,
324572,001,2022-11-14_24h26.41.138,Info_measure_main_exp,2022.2.2,Win32,60.0132029,,,,,,,,,,,,,,,,,,masks/mask_005.jpg,,,,,,,,,,,,,,,,,,,,,,,,,,,,,,,,,,,,,,,,,,,,,,,,0,4,4,4,1,,,,,,,,,,,,,,,,,,,,,,,,,,,,,,,,,,,,,,,,,
324572,001,2022-11-14_24h26.41.138,Info_measure_main_exp,2022.2.2,Win32,60.0132029,,,,,,,,,,,,,,,,,,,,,,,,,,,,,,6,2.4695,1,,,,,,,,,,,,0,131,5,5,2274,2238,absent_patch/patch0002274.jpg,absent_patch/patch0002238.jpg,,,,,,,,,,,,,,,,,,,,0.111111111,0.023148148,1,0,0,response1disk,26,-0.007407407,-0.001851852,1,0,0,center_square,0,25,25,91,1,,,,,,,,,,,,,,,,,,,,,,,
324572,001,2022-11-14_24h26.41.138,Info_measure_main_exp,2022.2.2,Win32,60.0132029,,,,,,,,,,,,,,,,,,masks/mask_004.jpg,,,,,,,,,,,,,,,,,,,,,,,,,,,,,,,,,,,,,,,,,,,0,0,0,3,1,,,,,,,,,,,,,,,,,,,,,,,,,,,,,,,,,,,,,,,,,,,,,,
324572,001,2022-11-14_24h26.41.138,Info_measure_main_exp,2022.2.2,Win32,60.0132029,,,,,,,,,,,,,,,,,,masks/mask_005.jpg,,,,,,,,,,,,,,,,,,,,,,,,,,,,,,,,,,,,,,,,,,,0,1,1,4,1,,,,,,,,,,,,,,,,,,,,,,,,,,,,,,,,,,,,,,,,,,,,,,
324572,001,2022-11-14_24h26.41.138,Info_measure_main_exp,2022.2.2,Win32,60.0132029,,,,,,,,,,,,,,,,,,masks/mask_003.jpg,,,,,,,,,,,,,,,,,,,,,,,,,,,,,,,,,,,,,,,,,,,0,2,2,2,1,,,,,,,,,,,,,,,,,,,,,,,,,,,,,,,,,,,,,,,,,,,,,,
324572,001,2022-11-14_24h26.41.138,Info_measure_main_exp,2022.2.2,Win32,60.0132029,,,,,,,,,,,,,,,,,,masks/mask_002.jpg,,,,,,,,,,,,,,,,,,,,,,,,,,,,,,,,,,,,,,,,,,,0,3,3,1,1,,,,,,,,,,,,,,,,,,,,,,,,,,,,,,,,,,,,,,,,,,,,,,
324572,001,2022-11-14_24h26.41.138,Info_measure_main_exp,2022.2.2,Win32,60.0132029,,,,,,,,,,,,,,,,,,masks/mask_001.jpg,,,,,,,,,,,,,,,,,,,,,,,,,,,,,,,,,,,,,,,,,,,0,4,4,0,1,,,,,,,,,,,,,,,,,,,,,,,,,,,,,,,,,,,,,,,,,,,,,,
324572,001,2022-11-14_24h26.41.138,Info_measure_main_exp,2022.2.2,Win32,60.0132029,,,,,,,,,,,,,,,,,,masks/mask_001.jpg,,,,,,,,,,,,,,,,,,,,,,,,,,,,,,,,,,,,,,,,,,,,,,,,0,0,0,0,1,,,,,,,,,,,,,,,,,,,,,,,,,,,,,,,,,,,,,,,,,
324572,001,2022-11-14_24h26.41.138,Info_measure_main_exp,2022.2.2,Win32,60.0132029,,,,,,,,,,,,,,,,,,masks/mask_005.jpg,,,,,,,,,,,,,,,,,,,,,,,,,,,,,,,,,,,,,,,,,,,,,,,,0,1,1,4,1,,,,,,,,,,,,,,,,,,,,,,,,,,,,,,,,,,,,,,,,,
324572,001,2022-11-14_24h26.41.138,Info_measure_main_exp,2022.2.2,Win32,60.0132029,,,,,,,,,,,,,,,,,,masks/mask_004.jpg,,,,,,,,,,,,,,,,,,,,,,,,,,,,,,,,,,,,,,,,,,,,,,,,0,2,2,3,1,,,,,,,,,,,,,,,,,,,,,,,,,,,,,,,,,,,,,,,,,
324572,001,2022-11-14_24h26.41.138,Info_measure_main_exp,2022.2.2,Win32,60.0132029,,,,,,,,,,,,,,,,,,masks/mask_003.jpg,,,,,,,,,,,,,,,,,,,,,,,,,,,,,,,,,,,,,,,,,,,,,,,,0,3,3,2,1,,,,,,,,,,,,,,,,,,,,,,,,,,,,,,,,,,,,,,,,,
324572,001,2022-11-14_24h26.41.138,Info_measure_main_exp,2022.2.2,Win32,60.0132029,,,,,,,,,,,,,,,,,,masks/mask_002.jpg,,,,,,,,,,,,,,,,,,,,,,,,,,,,,,,,,,,,,,,,,,,,,,,,0,4,4,1,1,,,,,,,,,,,,,,,,,,,,,,,,,,,,,,,,,,,,,,,,,
324572,001,2022-11-14_24h26.41.138,Info_measure_main_exp,2022.2.2,Win32,60.0132029,,,,,,,,,,,,,,,,,,,,,,,,,,,,,,7,0.634,1,,,,,,,,,,,,0,131,5,5,1950,2082,absent_patch/patch0001950.jpg,absent_patch/patch0002082.jpg,,,,,,,,,,,,,,,,,,,,0.02962963,0.080555556,1,0,0,response1disk,27,0.003703704,0.007407407,1,0,0,center_square,0,26,26,12,1,,,,,,,,,,,,,,,,,,,,,,,
324572,001,2022-11-14_24h26.41.138,Info_measure_main_exp,2022.2.2,Win32,60.0132029,,,,,,,,,,,,,,,,,,masks/mask_005.jpg,,,,,,,,,,,,,,,,,,,,,,,,,,,,,,,,,,,,,,,,,,,0,0,0,4,1,,,,,,,,,,,,,,,,,,,,,,,,,,,,,,,,,,,,,,,,,,,,,,
324572,001,2022-11-14_24h26.41.138,Info_measure_main_exp,2022.2.2,Win32,60.0132029,,,,,,,,,,,,,,,,,,masks/mask_002.jpg,,,,,,,,,,,,,,,,,,,,,,,,,,,,,,,,,,,,,,,,,,,0,1,1,1,1,,,,,,,,,,,,,,,,,,,,,,,,,,,,,,,,,,,,,,,,,,,,,,
324572,001,2022-11-14_24h26.41.138,Info_measure_main_exp,2022.2.2,Win32,60.0132029,,,,,,,,,,,,,,,,,,masks/mask_001.jpg,,,,,,,,,,,,,,,,,,,,,,,,,,,,,,,,,,,,,,,,,,,0,2,2,0,1,,,,,,,,,,,,,,,,,,,,,,,,,,,,,,,,,,,,,,,,,,,,,,
324572,001,2022-11-14_24h26.41.138,Info_measure_main_exp,2022.2.2,Win32,60.0132029,,,,,,,,,,,,,,,,,,masks/mask_003.jpg,,,,,,,,,,,,,,,,,,,,,,,,,,,,,,,,,,,,,,,,,,,0,3,3,2,1,,,,,,,,,,,,,,,,,,,,,,,,,,,,,,,,,,,,,,,,,,,,,,
324572,001,2022-11-14_24h26.41.138,Info_measure_main_exp,2022.2.2,Win32,60.0132029,,,,,,,,,,,,,,,,,,masks/mask_004.jpg,,,,,,,,,,,,,,,,,,,,,,,,,,,,,,,,,,,,,,,,,,,0,4,4,3,1,,,,,,,,,,,,,,,,,,,,,,,,,,,,,,,,,,,,,,,,,,,,,,
324572,001,2022-11-14_24h26.41.138,Info_measure_main_exp,2022.2.2,Win32,60.0132029,,,,,,,,,,,,,,,,,,masks/mask_002.jpg,,,,,,,,,,,,,,,,,,,,,,,,,,,,,,,,,,,,,,,,,,,,,,,,0,0,0,1,1,,,,,,,,,,,,,,,,,,,,,,,,,,,,,,,,,,,,,,,,,
324572,001,2022-11-14_24h26.41.138,Info_measure_main_exp,2022.2.2,Win32,60.0132029,,,,,,,,,,,,,,,,,,masks/mask_003.jpg,,,,,,,,,,,,,,,,,,,,,,,,,,,,,,,,,,,,,,,,,,,,,,,,0,1,1,2,1,,,,,,,,,,,,,,,,,,,,,,,,,,,,,,,,,,,,,,,,,
324572,001,2022-11-14_24h26.41.138,Info_measure_main_exp,2022.2.2,Win32,60.0132029,,,,,,,,,,,,,,,,,,masks/mask_004.jpg,,,,,,,,,,,,,,,,,,,,,,,,,,,,,,,,,,,,,,,,,,,,,,,,0,2,2,3,1,,,,,,,,,,,,,,,,,,,,,,,,,,,,,,,,,,,,,,,,,
324572,001,2022-11-14_24h26.41.138,Info_measure_main_exp,2022.2.2,Win32,60.0132029,,,,,,,,,,,,,,,,,,masks/mask_005.jpg,,,,,,,,,,,,,,,,,,,,,,,,,,,,,,,,,,,,,,,,,,,,,,,,0,3,3,4,1,,,,,,,,,,,,,,,,,,,,,,,,,,,,,,,,,,,,,,,,,
324572,001,2022-11-14_24h26.41.138,Info_measure_main_exp,2022.2.2,Win32,60.0132029,,,,,,,,,,,,,,,,,,masks/mask_001.jpg,,,,,,,,,,,,,,,,,,,,,,,,,,,,,,,,,,,,,,,,,,,,,,,,0,4,4,0,1,,,,,,,,,,,,,,,,,,,,,,,,,,,,,,,,,,,,,,,,,
324572,001,2022-11-14_24h26.41.138,Info_measure_main_exp,2022.2.2,Win32,60.0132029,,,,,,,,,,,,,,,,,,,,,,,,,,,,,,7,0.7843,1,,,,,,,,,,,,0,131,5,5,2238,2214,absent_patch/patch0002238.jpg,absent_patch/patch0002214.jpg,,,,,,,,,,,,,,,,,,,,0.037962963,0.086111111,1,0,0,response1disk,28,-0.002777778,0.001851852,1,0,0,center_square,0,27,27,81,1,,,,,,,,,,,,,,,,,,,,,,,
324572,001,2022-11-14_24h26.41.138,Info_measure_main_exp,2022.2.2,Win32,60.0132029,,,,,,,,,,,,,,,,,,masks/mask_005.jpg,,,,,,,,,,,,,,,,,,,,,,,,,,,,,,,,,,,,,,,,,,,0,0,0,4,1,,,,,,,,,,,,,,,,,,,,,,,,,,,,,,,,,,,,,,,,,,,,,,
324572,001,2022-11-14_24h26.41.138,Info_measure_main_exp,2022.2.2,Win32,60.0132029,,,,,,,,,,,,,,,,,,masks/mask_004.jpg,,,,,,,,,,,,,,,,,,,,,,,,,,,,,,,,,,,,,,,,,,,0,1,1,3,1,,,,,,,,,,,,,,,,,,,,,,,,,,,,,,,,,,,,,,,,,,,,,,
324572,001,2022-11-14_24h26.41.138,Info_measure_main_exp,2022.2.2,Win32,60.0132029,,,,,,,,,,,,,,,,,,masks/mask_002.jpg,,,,,,,,,,,,,,,,,,,,,,,,,,,,,,,,,,,,,,,,,,,0,2,2,1,1,,,,,,,,,,,,,,,,,,,,,,,,,,,,,,,,,,,,,,,,,,,,,,
324572,001,2022-11-14_24h26.41.138,Info_measure_main_exp,2022.2.2,Win32,60.0132029,,,,,,,,,,,,,,,,,,masks/mask_001.jpg,,,,,,,,,,,,,,,,,,,,,,,,,,,,,,,,,,,,,,,,,,,0,3,3,0,1,,,,,,,,,,,,,,,,,,,,,,,,,,,,,,,,,,,,,,,,,,,,,,
324572,001,2022-11-14_24h26.41.138,Info_measure_main_exp,2022.2.2,Win32,60.0132029,,,,,,,,,,,,,,,,,,masks/mask_003.jpg,,,,,,,,,,,,,,,,,,,,,,,,,,,,,,,,,,,,,,,,,,,0,4,4,2,1,,,,,,,,,,,,,,,,,,,,,,,,,,,,,,,,,,,,,,,,,,,,,,
324572,001,2022-11-14_24h26.41.138,Info_measure_main_exp,2022.2.2,Win32,60.0132029,,,,,,,,,,,,,,,,,,masks/mask_005.jpg,,,,,,,,,,,,,,,,,,,,,,,,,,,,,,,,,,,,,,,,,,,,,,,,0,0,0,4,1,,,,,,,,,,,,,,,,,,,,,,,,,,,,,,,,,,,,,,,,,
324572,001,2022-11-14_24h26.41.138,Info_measure_main_exp,2022.2.2,Win32,60.0132029,,,,,,,,,,,,,,,,,,masks/mask_001.jpg,,,,,,,,,,,,,,,,,,,,,,,,,,,,,,,,,,,,,,,,,,,,,,,,0,1,1,0,1,,,,,,,,,,,,,,,,,,,,,,,,,,,,,,,,,,,,,,,,,
324572,001,2022-11-14_24h26.41.138,Info_measure_main_exp,2022.2.2,Win32,60.0132029,,,,,,,,,,,,,,,,,,masks/mask_003.jpg,,,,,,,,,,,,,,,,,,,,,,,,,,,,,,,,,,,,,,,,,,,,,,,,0,2,2,2,1,,,,,,,,,,,,,,,,,,,,,,,,,,,,,,,,,,,,,,,,,
324572,001,2022-11-14_24h26.41.138,Info_measure_main_exp,2022.2.2,Win32,60.0132029,,,,,,,,,,,,,,,,,,masks/mask_004.jpg,,,,,,,,,,,,,,,,,,,,,,,,,,,,,,,,,,,,,,,,,,,,,,,,0,3,3,3,1,,,,,,,,,,,,,,,,,,,,,,,,,,,,,,,,,,,,,,,,,
324572,001,2022-11-14_24h26.41.138,Info_measure_main_exp,2022.2.2,Win32,60.0132029,,,,,,,,,,,,,,,,,,masks/mask_002.jpg,,,,,,,,,,,,,,,,,,,,,,,,,,,,,,,,,,,,,,,,,,,,,,,,0,4,4,1,1,,,,,,,,,,,,,,,,,,,,,,,,,,,,,,,,,,,,,,,,,
324572,001,2022-11-14_24h26.41.138,Info_measure_main_exp,2022.2.2,Win32,60.0132029,,,,,,,,,,,,,,,,,,,,,,,,,,,,,,5,1.5033,1,,,,,,,,,,,,1,131,5,5,2238,1,absent_patch/patch0002238.jpg,present_patch/cong_131_5_a.jpg,,,,,,,,,,,,,,,,,,,,0.069444444,-0.010185185,1,0,0,response3disk,29,0.001851852,0,1,0,0,center_square,0,28,28,104,1,,,,,,,,,,,,,,,,,,,,,,,
324572,001,2022-11-14_24h26.41.138,Info_measure_main_exp,2022.2.2,Win32,60.0132029,,,,,,,,,,,,,,,,,,masks/mask_002.jpg,,,,,,,,,,,,,,,,,,,,,,,,,,,,,,,,,,,,,,,,,,,0,0,0,1,1,,,,,,,,,,,,,,,,,,,,,,,,,,,,,,,,,,,,,,,,,,,,,,
324572,001,2022-11-14_24h26.41.138,Info_measure_main_exp,2022.2.2,Win32,60.0132029,,,,,,,,,,,,,,,,,,masks/mask_004.jpg,,,,,,,,,,,,,,,,,,,,,,,,,,,,,,,,,,,,,,,,,,,0,1,1,3,1,,,,,,,,,,,,,,,,,,,,,,,,,,,,,,,,,,,,,,,,,,,,,,
324572,001,2022-11-14_24h26.41.138,Info_measure_main_exp,2022.2.2,Win32,60.0132029,,,,,,,,,,,,,,,,,,masks/mask_005.jpg,,,,,,,,,,,,,,,,,,,,,,,,,,,,,,,,,,,,,,,,,,,0,2,2,4,1,,,,,,,,,,,,,,,,,,,,,,,,,,,,,,,,,,,,,,,,,,,,,,
324572,001,2022-11-14_24h26.41.138,Info_measure_main_exp,2022.2.2,Win32,60.0132029,,,,,,,,,,,,,,,,,,masks/mask_003.jpg,,,,,,,,,,,,,,,,,,,,,,,,,,,,,,,,,,,,,,,,,,,0,3,3,2,1,,,,,,,,,,,,,,,,,,,,,,,,,,,,,,,,,,,,,,,,,,,,,,
324572,001,2022-11-14_24h26.41.138,Info_measure_main_exp,2022.2.2,Win32,60.0132029,,,,,,,,,,,,,,,,,,masks/mask_001.jpg,,,,,,,,,,,,,,,,,,,,,,,,,,,,,,,,,,,,,,,,,,,0,4,4,0,1,,,,,,,,,,,,,,,,,,,,,,,,,,,,,,,,,,,,,,,,,,,,,,
324572,001,2022-11-14_24h26.41.138,Info_measure_main_exp,2022.2.2,Win32,60.0132029,,,,,,,,,,,,,,,,,,masks/mask_005.jpg,,,,,,,,,,,,,,,,,,,,,,,,,,,,,,,,,,,,,,,,,,,,,,,,0,0,0,4,1,,,,,,,,,,,,,,,,,,,,,,,,,,,,,,,,,,,,,,,,,
324572,001,2022-11-14_24h26.41.138,Info_measure_main_exp,2022.2.2,Win32,60.0132029,,,,,,,,,,,,,,,,,,masks/mask_001.jpg,,,,,,,,,,,,,,,,,,,,,,,,,,,,,,,,,,,,,,,,,,,,,,,,0,1,1,0,1,,,,,,,,,,,,,,,,,,,,,,,,,,,,,,,,,,,,,,,,,
324572,001,2022-11-14_24h26.41.138,Info_measure_main_exp,2022.2.2,Win32,60.0132029,,,,,,,,,,,,,,,,,,masks/mask_003.jpg,,,,,,,,,,,,,,,,,,,,,,,,,,,,,,,,,,,,,,,,,,,,,,,,0,2,2,2,1,,,,,,,,,,,,,,,,,,,,,,,,,,,,,,,,,,,,,,,,,
324572,001,2022-11-14_24h26.41.138,Info_measure_main_exp,2022.2.2,Win32,60.0132029,,,,,,,,,,,,,,,,,,masks/mask_002.jpg,,,,,,,,,,,,,,,,,,,,,,,,,,,,,,,,,,,,,,,,,,,,,,,,0,3,3,1,1,,,,,,,,,,,,,,,,,,,,,,,,,,,,,,,,,,,,,,,,,
324572,001,2022-11-14_24h26.41.138,Info_measure_main_exp,2022.2.2,Win32,60.0132029,,,,,,,,,,,,,,,,,,masks/mask_004.jpg,,,,,,,,,,,,,,,,,,,,,,,,,,,,,,,,,,,,,,,,,,,,,,,,0,4,4,3,1,,,,,,,,,,,,,,,,,,,,,,,,,,,,,,,,,,,,,,,,,
324572,001,2022-11-14_24h26.41.138,Info_measure_main_exp,2022.2.2,Win32,60.0132029,,,,,,,,,,,,,,,,,,,,,,,,,,,,,,0,2.1186,1,,,,,,,,,,,,0,131,5,5,1950,1950,absent_patch/patch0001950.jpg,absent_patch/patch0001950.jpg,,,,,,,,,,,,,,,,,,,,-0.038888889,0.084259259,1,0,0,response7disk,30,-0.010185185,0.009259259,1,0,0,center_square,0,29,29,92,1,,,,,,,,,,,,,,,,,,,,,,,
324572,001,2022-11-14_24h26.41.138,Info_measure_main_exp,2022.2.2,Win32,60.0132029,,,,,,,,,,,,,,,,,,masks/mask_001.jpg,,,,,,,,,,,,,,,,,,,,,,,,,,,,,,,,,,,,,,,,,,,0,0,0,0,1,,,,,,,,,,,,,,,,,,,,,,,,,,,,,,,,,,,,,,,,,,,,,,
324572,001,2022-11-14_24h26.41.138,Info_measure_main_exp,2022.2.2,Win32,60.0132029,,,,,,,,,,,,,,,,,,masks/mask_004.jpg,,,,,,,,,,,,,,,,,,,,,,,,,,,,,,,,,,,,,,,,,,,0,1,1,3,1,,,,,,,,,,,,,,,,,,,,,,,,,,,,,,,,,,,,,,,,,,,,,,
324572,001,2022-11-14_24h26.41.138,Info_measure_main_exp,2022.2.2,Win32,60.0132029,,,,,,,,,,,,,,,,,,masks/mask_005.jpg,,,,,,,,,,,,,,,,,,,,,,,,,,,,,,,,,,,,,,,,,,,0,2,2,4,1,,,,,,,,,,,,,,,,,,,,,,,,,,,,,,,,,,,,,,,,,,,,,,
324572,001,2022-11-14_24h26.41.138,Info_measure_main_exp,2022.2.2,Win32,60.0132029,,,,,,,,,,,,,,,,,,masks/mask_003.jpg,,,,,,,,,,,,,,,,,,,,,,,,,,,,,,,,,,,,,,,,,,,0,3,3,2,1,,,,,,,,,,,,,,,,,,,,,,,,,,,,,,,,,,,,,,,,,,,,,,
324572,001,2022-11-14_24h26.41.138,Info_measure_main_exp,2022.2.2,Win32,60.0132029,,,,,,,,,,,,,,,,,,masks/mask_002.jpg,,,,,,,,,,,,,,,,,,,,,,,,,,,,,,,,,,,,,,,,,,,0,4,4,1,1,,,,,,,,,,,,,,,,,,,,,,,,,,,,,,,,,,,,,,,,,,,,,,
324572,001,2022-11-14_24h26.41.138,Info_measure_main_exp,2022.2.2,Win32,60.0132029,,,,,,,,,,,,,,,,,,masks/mask_005.jpg,,,,,,,,,,,,,,,,,,,,,,,,,,,,,,,,,,,,,,,,,,,,,,,,0,0,0,4,1,,,,,,,,,,,,,,,,,,,,,,,,,,,,,,,,,,,,,,,,,
324572,001,2022-11-14_24h26.41.138,Info_measure_main_exp,2022.2.2,Win32,60.0132029,,,,,,,,,,,,,,,,,,masks/mask_004.jpg,,,,,,,,,,,,,,,,,,,,,,,,,,,,,,,,,,,,,,,,,,,,,,,,0,1,1,3,1,,,,,,,,,,,,,,,,,,,,,,,,,,,,,,,,,,,,,,,,,
324572,001,2022-11-14_24h26.41.138,Info_measure_main_exp,2022.2.2,Win32,60.0132029,,,,,,,,,,,,,,,,,,masks/mask_002.jpg,,,,,,,,,,,,,,,,,,,,,,,,,,,,,,,,,,,,,,,,,,,,,,,,0,2,2,1,1,,,,,,,,,,,,,,,,,,,,,,,,,,,,,,,,,,,,,,,,,
324572,001,2022-11-14_24h26.41.138,Info_measure_main_exp,2022.2.2,Win32,60.0132029,,,,,,,,,,,,,,,,,,masks/mask_003.jpg,,,,,,,,,,,,,,,,,,,,,,,,,,,,,,,,,,,,,,,,,,,,,,,,0,3,3,2,1,,,,,,,,,,,,,,,,,,,,,,,,,,,,,,,,,,,,,,,,,
324572,001,2022-11-14_24h26.41.138,Info_measure_main_exp,2022.2.2,Win32,60.0132029,,,,,,,,,,,,,,,,,,masks/mask_001.jpg,,,,,,,,,,,,,,,,,,,,,,,,,,,,,,,,,,,,,,,,,,,,,,,,0,4,4,0,1,,,,,,,,,,,,,,,,,,,,,,,,,,,,,,,,,,,,,,,,,
324572,001,2022-11-14_24h26.41.138,Info_measure_main_exp,2022.2.2,Win32,60.0132029,,,,,,,,,,,,,,,,,,,,,,,,,,,,,,7,1.5851,1,,,,,,,,,,,,0,131,5,5,1974,2142,absent_patch/patch0001974.jpg,absent_patch/patch0002142.jpg,,,,,,,,,,,,,,,,,,,,0.036111111,0.066666667,1,0,0,response1disk,31,-0.006481481,-0.002777778,1,0,0,center_square,0,30,30,38,1,,,,,,,,,,,,,,,,,,,,,,,
324572,001,2022-11-14_24h26.41.138,Info_measure_main_exp,2022.2.2,Win32,60.0132029,,,,,,,,,,,,,,,,,,masks/mask_004.jpg,,,,,,,,,,,,,,,,,,,,,,,,,,,,,,,,,,,,,,,,,,,0,0,0,3,1,,,,,,,,,,,,,,,,,,,,,,,,,,,,,,,,,,,,,,,,,,,,,,
324572,001,2022-11-14_24h26.41.138,Info_measure_main_exp,2022.2.2,Win32,60.0132029,,,,,,,,,,,,,,,,,,masks/mask_005.jpg,,,,,,,,,,,,,,,,,,,,,,,,,,,,,,,,,,,,,,,,,,,0,1,1,4,1,,,,,,,,,,,,,,,,,,,,,,,,,,,,,,,,,,,,,,,,,,,,,,
324572,001,2022-11-14_24h26.41.138,Info_measure_main_exp,2022.2.2,Win32,60.0132029,,,,,,,,,,,,,,,,,,masks/mask_001.jpg,,,,,,,,,,,,,,,,,,,,,,,,,,,,,,,,,,,,,,,,,,,0,2,2,0,1,,,,,,,,,,,,,,,,,,,,,,,,,,,,,,,,,,,,,,,,,,,,,,
324572,001,2022-11-14_24h26.41.138,Info_measure_main_exp,2022.2.2,Win32,60.0132029,,,,,,,,,,,,,,,,,,masks/mask_003.jpg,,,,,,,,,,,,,,,,,,,,,,,,,,,,,,,,,,,,,,,,,,,0,3,3,2,1,,,,,,,,,,,,,,,,,,,,,,,,,,,,,,,,,,,,,,,,,,,,,,
324572,001,2022-11-14_24h26.41.138,Info_measure_main_exp,2022.2.2,Win32,60.0132029,,,,,,,,,,,,,,,,,,masks/mask_002.jpg,,,,,,,,,,,,,,,,,,,,,,,,,,,,,,,,,,,,,,,,,,,0,4,4,1,1,,,,,,,,,,,,,,,,,,,,,,,,,,,,,,,,,,,,,,,,,,,,,,
324572,001,2022-11-14_24h26.41.138,Info_measure_main_exp,2022.2.2,Win32,60.0132029,,,,,,,,,,,,,,,,,,masks/mask_003.jpg,,,,,,,,,,,,,,,,,,,,,,,,,,,,,,,,,,,,,,,,,,,,,,,,0,0,0,2,1,,,,,,,,,,,,,,,,,,,,,,,,,,,,,,,,,,,,,,,,,
324572,001,2022-11-14_24h26.41.138,Info_measure_main_exp,2022.2.2,Win32,60.0132029,,,,,,,,,,,,,,,,,,masks/mask_004.jpg,,,,,,,,,,,,,,,,,,,,,,,,,,,,,,,,,,,,,,,,,,,,,,,,0,1,1,3,1,,,,,,,,,,,,,,,,,,,,,,,,,,,,,,,,,,,,,,,,,
324572,001,2022-11-14_24h26.41.138,Info_measure_main_exp,2022.2.2,Win32,60.0132029,,,,,,,,,,,,,,,,,,masks/mask_002.jpg,,,,,,,,,,,,,,,,,,,,,,,,,,,,,,,,,,,,,,,,,,,,,,,,0,2,2,1,1,,,,,,,,,,,,,,,,,,,,,,,,,,,,,,,,,,,,,,,,,
324572,001,2022-11-14_24h26.41.138,Info_measure_main_exp,2022.2.2,Win32,60.0132029,,,,,,,,,,,,,,,,,,masks/mask_005.jpg,,,,,,,,,,,,,,,,,,,,,,,,,,,,,,,,,,,,,,,,,,,,,,,,0,3,3,4,1,,,,,,,,,,,,,,,,,,,,,,,,,,,,,,,,,,,,,,,,,
324572,001,2022-11-14_24h26.41.138,Info_measure_main_exp,2022.2.2,Win32,60.0132029,,,,,,,,,,,,,,,,,,masks/mask_001.jpg,,,,,,,,,,,,,,,,,,,,,,,,,,,,,,,,,,,,,,,,,,,,,,,,0,4,4,0,1,,,,,,,,,,,,,,,,,,,,,,,,,,,,,,,,,,,,,,,,,
324572,001,2022-11-14_24h26.41.138,Info_measure_main_exp,2022.2.2,Win32,60.0132029,,,,,,,,,,,,,,,,,,,,,,,,,,,,,,7,1.2536,1,,,,,,,,,,,,0,131,5,5,2250,2238,absent_patch/patch0002250.jpg,absent_patch/patch0002238.jpg,,,,,,,,,,,,,,,,,,,,0.062037037,0.119444444,1,0,0,response1disk,32,-0.000925926,0.003703704,1,0,0,center_square,0,31,31,110,1,,,,,,,,,,,,,,,,,,,,,,,
324572,001,2022-11-14_24h26.41.138,Info_measure_main_exp,2022.2.2,Win32,60.0132029,,,,,,,,,,,,,,,,,,masks/mask_002.jpg,,,,,,,,,,,,,,,,,,,,,,,,,,,,,,,,,,,,,,,,,,,0,0,0,1,1,,,,,,,,,,,,,,,,,,,,,,,,,,,,,,,,,,,,,,,,,,,,,,
324572,001,2022-11-14_24h26.41.138,Info_measure_main_exp,2022.2.2,Win32,60.0132029,,,,,,,,,,,,,,,,,,masks/mask_003.jpg,,,,,,,,,,,,,,,,,,,,,,,,,,,,,,,,,,,,,,,,,,,0,1,1,2,1,,,,,,,,,,,,,,,,,,,,,,,,,,,,,,,,,,,,,,,,,,,,,,
324572,001,2022-11-14_24h26.41.138,Info_measure_main_exp,2022.2.2,Win32,60.0132029,,,,,,,,,,,,,,,,,,masks/mask_001.jpg,,,,,,,,,,,,,,,,,,,,,,,,,,,,,,,,,,,,,,,,,,,0,2,2,0,1,,,,,,,,,,,,,,,,,,,,,,,,,,,,,,,,,,,,,,,,,,,,,,
324572,001,2022-11-14_24h26.41.138,Info_measure_main_exp,2022.2.2,Win32,60.0132029,,,,,,,,,,,,,,,,,,masks/mask_004.jpg,,,,,,,,,,,,,,,,,,,,,,,,,,,,,,,,,,,,,,,,,,,0,3,3,3,1,,,,,,,,,,,,,,,,,,,,,,,,,,,,,,,,,,,,,,,,,,,,,,
324572,001,2022-11-14_24h26.41.138,Info_measure_main_exp,2022.2.2,Win32,60.0132029,,,,,,,,,,,,,,,,,,masks/mask_005.jpg,,,,,,,,,,,,,,,,,,,,,,,,,,,,,,,,,,,,,,,,,,,0,4,4,4,1,,,,,,,,,,,,,,,,,,,,,,,,,,,,,,,,,,,,,,,,,,,,,,
324572,001,2022-11-14_24h26.41.138,Info_measure_main_exp,2022.2.2,Win32,60.0132029,,,,,,,,,,,,,,,,,,masks/mask_001.jpg,,,,,,,,,,,,,,,,,,,,,,,,,,,,,,,,,,,,,,,,,,,,,,,,0,0,0,0,1,,,,,,,,,,,,,,,,,,,,,,,,,,,,,,,,,,,,,,,,,
324572,001,2022-11-14_24h26.41.138,Info_measure_main_exp,2022.2.2,Win32,60.0132029,,,,,,,,,,,,,,,,,,masks/mask_005.jpg,,,,,,,,,,,,,,,,,,,,,,,,,,,,,,,,,,,,,,,,,,,,,,,,0,1,1,4,1,,,,,,,,,,,,,,,,,,,,,,,,,,,,,,,,,,,,,,,,,
324572,001,2022-11-14_24h26.41.138,Info_measure_main_exp,2022.2.2,Win32,60.0132029,,,,,,,,,,,,,,,,,,masks/mask_004.jpg,,,,,,,,,,,,,,,,,,,,,,,,,,,,,,,,,,,,,,,,,,,,,,,,0,2,2,3,1,,,,,,,,,,,,,,,,,,,,,,,,,,,,,,,,,,,,,,,,,
324572,001,2022-11-14_24h26.41.138,Info_measure_main_exp,2022.2.2,Win32,60.0132029,,,,,,,,,,,,,,,,,,masks/mask_003.jpg,,,,,,,,,,,,,,,,,,,,,,,,,,,,,,,,,,,,,,,,,,,,,,,,0,3,3,2,1,,,,,,,,,,,,,,,,,,,,,,,,,,,,,,,,,,,,,,,,,
324572,001,2022-11-14_24h26.41.138,Info_measure_main_exp,2022.2.2,Win32,60.0132029,,,,,,,,,,,,,,,,,,masks/mask_002.jpg,,,,,,,,,,,,,,,,,,,,,,,,,,,,,,,,,,,,,,,,,,,,,,,,0,4,4,1,1,,,,,,,,,,,,,,,,,,,,,,,,,,,,,,,,,,,,,,,,,
324572,001,2022-11-14_24h26.41.138,Info_measure_main_exp,2022.2.2,Win32,60.0132029,,,,,,,,,,,,,,,,,,,,,,,,,,,,,,7,1.3672,1,,,,,,,,,,,,0,131,5,5,1986,2274,absent_patch/patch0001986.jpg,absent_patch/patch0002274.jpg,,,,,,,,,,,,,,,,,,,,0.049074074,0.118518519,1,0,0,response1disk,33,0.009259259,0.003703704,1,0,0,center_square,0,32,32,7,1,,,,,,,,,,,,,,,,,,,,,,,
324572,001,2022-11-14_24h26.41.138,Info_measure_main_exp,2022.2.2,Win32,60.0132029,,,,,,,,,,,,,,,,,,masks/mask_002.jpg,,,,,,,,,,,,,,,,,,,,,,,,,,,,,,,,,,,,,,,,,,,0,0,0,1,1,,,,,,,,,,,,,,,,,,,,,,,,,,,,,,,,,,,,,,,,,,,,,,
324572,001,2022-11-14_24h26.41.138,Info_measure_main_exp,2022.2.2,Win32,60.0132029,,,,,,,,,,,,,,,,,,masks/mask_004.jpg,,,,,,,,,,,,,,,,,,,,,,,,,,,,,,,,,,,,,,,,,,,0,1,1,3,1,,,,,,,,,,,,,,,,,,,,,,,,,,,,,,,,,,,,,,,,,,,,,,
324572,001,2022-11-14_24h26.41.138,Info_measure_main_exp,2022.2.2,Win32,60.0132029,,,,,,,,,,,,,,,,,,masks/mask_003.jpg,,,,,,,,,,,,,,,,,,,,,,,,,,,,,,,,,,,,,,,,,,,0,2,2,2,1,,,,,,,,,,,,,,,,,,,,,,,,,,,,,,,,,,,,,,,,,,,,,,
324572,001,2022-11-14_24h26.41.138,Info_measure_main_exp,2022.2.2,Win32,60.0132029,,,,,,,,,,,,,,,,,,masks/mask_005.jpg,,,,,,,,,,,,,,,,,,,,,,,,,,,,,,,,,,,,,,,,,,,0,3,3,4,1,,,,,,,,,,,,,,,,,,,,,,,,,,,,,,,,,,,,,,,,,,,,,,
324572,001,2022-11-14_24h26.41.138,Info_measure_main_exp,2022.2.2,Win32,60.0132029,,,,,,,,,,,,,,,,,,masks/mask_001.jpg,,,,,,,,,,,,,,,,,,,,,,,,,,,,,,,,,,,,,,,,,,,0,4,4,0,1,,,,,,,,,,,,,,,,,,,,,,,,,,,,,,,,,,,,,,,,,,,,,,
324572,001,2022-11-14_24h26.41.138,Info_measure_main_exp,2022.2.2,Win32,60.0132029,,,,,,,,,,,,,,,,,,masks/mask_001.jpg,,,,,,,,,,,,,,,,,,,,,,,,,,,,,,,,,,,,,,,,,,,,,,,,0,0,0,0,1,,,,,,,,,,,,,,,,,,,,,,,,,,,,,,,,,,,,,,,,,
324572,001,2022-11-14_24h26.41.138,Info_measure_main_exp,2022.2.2,Win32,60.0132029,,,,,,,,,,,,,,,,,,masks/mask_005.jpg,,,,,,,,,,,,,,,,,,,,,,,,,,,,,,,,,,,,,,,,,,,,,,,,0,1,1,4,1,,,,,,,,,,,,,,,,,,,,,,,,,,,,,,,,,,,,,,,,,
324572,001,2022-11-14_24h26.41.138,Info_measure_main_exp,2022.2.2,Win32,60.0132029,,,,,,,,,,,,,,,,,,masks/mask_002.jpg,,,,,,,,,,,,,,,,,,,,,,,,,,,,,,,,,,,,,,,,,,,,,,,,0,2,2,1,1,,,,,,,,,,,,,,,,,,,,,,,,,,,,,,,,,,,,,,,,,
324572,001,2022-11-14_24h26.41.138,Info_measure_main_exp,2022.2.2,Win32,60.0132029,,,,,,,,,,,,,,,,,,masks/mask_003.jpg,,,,,,,,,,,,,,,,,,,,,,,,,,,,,,,,,,,,,,,,,,,,,,,,0,3,3,2,1,,,,,,,,,,,,,,,,,,,,,,,,,,,,,,,,,,,,,,,,,
324572,001,2022-11-14_24h26.41.138,Info_measure_main_exp,2022.2.2,Win32,60.0132029,,,,,,,,,,,,,,,,,,masks/mask_004.jpg,,,,,,,,,,,,,,,,,,,,,,,,,,,,,,,,,,,,,,,,,,,,,,,,0,4,4,3,1,,,,,,,,,,,,,,,,,,,,,,,,,,,,,,,,,,,,,,,,,
324572,001,2022-11-14_24h26.41.138,Info_measure_main_exp,2022.2.2,Win32,60.0132029,,,,,,,,,,,,,,,,,,,,,,,,,,,,,,0,0.8349,1,,,,,,,,,,,,1,131,5,5,1,1,present_patch/cong_131_5_a.jpg,present_patch/cong_131_5_a.jpg,,,,,,,,,,,,,,,,,,,,-0.044444444,0.102777778,1,0,0,response7disk,34,-0.005555556,0.00462963,1,0,0,center_square,0,33,33,30,1,,,,,,,,,,,,,,,,,,,,,,,
324572,001,2022-11-14_24h26.41.138,Info_measure_main_exp,2022.2.2,Win32,60.0132029,,,,,,,,,,,,,,,,,,masks/mask_001.jpg,,,,,,,,,,,,,,,,,,,,,,,,,,,,,,,,,,,,,,,,,,,0,0,0,0,1,,,,,,,,,,,,,,,,,,,,,,,,,,,,,,,,,,,,,,,,,,,,,,
324572,001,2022-11-14_24h26.41.138,Info_measure_main_exp,2022.2.2,Win32,60.0132029,,,,,,,,,,,,,,,,,,masks/mask_005.jpg,,,,,,,,,,,,,,,,,,,,,,,,,,,,,,,,,,,,,,,,,,,0,1,1,4,1,,,,,,,,,,,,,,,,,,,,,,,,,,,,,,,,,,,,,,,,,,,,,,
324572,001,2022-11-14_24h26.41.138,Info_measure_main_exp,2022.2.2,Win32,60.0132029,,,,,,,,,,,,,,,,,,masks/mask_002.jpg,,,,,,,,,,,,,,,,,,,,,,,,,,,,,,,,,,,,,,,,,,,0,2,2,1,1,,,,,,,,,,,,,,,,,,,,,,,,,,,,,,,,,,,,,,,,,,,,,,
324572,001,2022-11-14_24h26.41.138,Info_measure_main_exp,2022.2.2,Win32,60.0132029,,,,,,,,,,,,,,,,,,masks/mask_003.jpg,,,,,,,,,,,,,,,,,,,,,,,,,,,,,,,,,,,,,,,,,,,0,3,3,2,1,,,,,,,,,,,,,,,,,,,,,,,,,,,,,,,,,,,,,,,,,,,,,,
324572,001,2022-11-14_24h26.41.138,Info_measure_main_exp,2022.2.2,Win32,60.0132029,,,,,,,,,,,,,,,,,,masks/mask_004.jpg,,,,,,,,,,,,,,,,,,,,,,,,,,,,,,,,,,,,,,,,,,,0,4,4,3,1,,,,,,,,,,,,,,,,,,,,,,,,,,,,,,,,,,,,,,,,,,,,,,
324572,001,2022-11-14_24h26.41.138,Info_measure_main_exp,2022.2.2,Win32,60.0132029,,,,,,,,,,,,,,,,,,masks/mask_003.jpg,,,,,,,,,,,,,,,,,,,,,,,,,,,,,,,,,,,,,,,,,,,,,,,,0,0,0,2,1,,,,,,,,,,,,,,,,,,,,,,,,,,,,,,,,,,,,,,,,,
324572,001,2022-11-14_24h26.41.138,Info_measure_main_exp,2022.2.2,Win32,60.0132029,,,,,,,,,,,,,,,,,,masks/mask_005.jpg,,,,,,,,,,,,,,,,,,,,,,,,,,,,,,,,,,,,,,,,,,,,,,,,0,1,1,4,1,,,,,,,,,,,,,,,,,,,,,,,,,,,,,,,,,,,,,,,,,
324572,001,2022-11-14_24h26.41.138,Info_measure_main_exp,2022.2.2,Win32,60.0132029,,,,,,,,,,,,,,,,,,masks/mask_004.jpg,,,,,,,,,,,,,,,,,,,,,,,,,,,,,,,,,,,,,,,,,,,,,,,,0,2,2,3,1,,,,,,,,,,,,,,,,,,,,,,,,,,,,,,,,,,,,,,,,,
324572,001,2022-11-14_24h26.41.138,Info_measure_main_exp,2022.2.2,Win32,60.0132029,,,,,,,,,,,,,,,,,,masks/mask_001.jpg,,,,,,,,,,,,,,,,,,,,,,,,,,,,,,,,,,,,,,,,,,,,,,,,0,3,3,0,1,,,,,,,,,,,,,,,,,,,,,,,,,,,,,,,,,,,,,,,,,
324572,001,2022-11-14_24h26.41.138,Info_measure_main_exp,2022.2.2,Win32,60.0132029,,,,,,,,,,,,,,,,,,masks/mask_002.jpg,,,,,,,,,,,,,,,,,,,,,,,,,,,,,,,,,,,,,,,,,,,,,,,,0,4,4,1,1,,,,,,,,,,,,,,,,,,,,,,,,,,,,,,,,,,,,,,,,,
