participant,session,date,expName,psychopyVersion,OS,frameRate,space_press_continue.keys,space_press_continue.rt,space_press_continue_2.keys,space_press_continue_2.rt,space_press_continue_3.keys,space_press_continue_3.rt,space_press_continue_4.keys,space_press_continue_4.rt,space_press_continue_5.keys,space_press_continue_5.rt,space_press_continue_6.keys,space_press_continue_6.rt,prac_mask_loop_1.thisRepN,prac_mask_loop_1.thisTrialN,prac_mask_loop_1.thisN,prac_mask_loop_1.thisIndex,prac_mask_loop_1.ran,mask_name,prac_mask_loop_2.thisRepN,prac_mask_loop_2.thisTrialN,prac_mask_loop_2.thisN,prac_mask_loop_2.thisIndex,prac_mask_loop_2.ran,mouse_2.x,mouse_2.y,mouse_2.leftButton,mouse_2.midButton,mouse_2.rightButton,mouse_2.clicked_name,similarity,response_time,Pass,mouse_12.x,mouse_12.y,mouse_12.leftButton,mouse_12.midButton,mouse_12.rightButton,mouse_12.clicked_name,prac_loop.thisRepN,prac_loop.thisTrialN,prac_loop.thisN,prac_loop.thisIndex,prac_loop.ran,Pair_type,Image_num,Patch_1_loc,Patch_2_loc,Patch_1_info,Patch_2_info,Patch_1_name,Patch_2_name,mouse_1.x,mouse_1.y,mouse_1.leftButton,mouse_1.midButton,mouse_1.rightButton,mouse_1.time,mouse_1.clicked_name,space_press_continue_7.keys,space_press_continue_7.rt,mask_loop.thisRepN,mask_loop.thisTrialN,mask_loop.thisN,mask_loop.thisIndex,mask_loop.ran,mask_loop_2.thisRepN,mask_loop_2.thisTrialN,mask_loop_2.thisN,mask_loop_2.thisIndex,mask_loop_2.ran,mouse.x,mouse.y,mouse.leftButton,mouse.midButton,mouse.rightButton,mouse.clicked_name,trialNumber,mouse_11.x,mouse_11.y,mouse_11.leftButton,mouse_11.midButton,mouse_11.rightButton,mouse_11.clicked_name,first_pass_loop.thisRepN,first_pass_loop.thisTrialN,first_pass_loop.thisN,first_pass_loop.thisIndex,first_pass_loop.ran,mask_loop_3.thisRepN,mask_loop_3.thisTrialN,mask_loop_3.thisN,mask_loop_3.thisIndex,mask_loop_3.ran,mask_loop_4.thisRepN,mask_loop_4.thisTrialN,mask_loop_4.thisN,mask_loop_4.thisIndex,mask_loop_4.ran,mouse_3.x,mouse_3.y,mouse_3.leftButton,mouse_3.midButton,mouse_3.rightButton,mouse_3.clicked_name,double_pass_loop.thisRepN,double_pass_loop.thisTrialN,double_pass_loop.thisN,double_pass_loop.thisIndex,double_pass_loop.ran,space_exit.keys,space_exit.rt
333135,001,2022-11-20_17h53.26.631,Info_measure_main_exp,2022.2.2,Win32,60.19020104,,,,,,,,,,,,,,,,,,,,,,,,,,,,,,,,,,,,,,,,,,,,,,,,,,,,,,,,,,,,,,,,,,,,,,,,,,,,,,,,,,,,,,,,,,,,,,,,,,,,,,,,,,,,,,,
333135,001,2022-11-20_17h53.26.631,Info_measure_main_exp,2022.2.2,Win32,60.19020104,,,,,,,,,,,,,,,,,,,,,,,,,,,,,,,,,,,,,,,,,,,,,,,,,,,,,,,,,,,,,,,,,,,,,,,,,,,,,,,,,,,,,,,,,,,,,,,,,,,,,,,,,,,,,,,
333135,001,2022-11-20_17h53.26.631,Info_measure_main_exp,2022.2.2,Win32,60.19020104,space,4.9116,,,,,,,,,,,,,,,,,,,,,,,,,,,,,,,,,,,,,,,,,,,,,,,,,,,,,,,,,,,,,,,,,,,,,,,,,,,,,,,,,,,,,,,,,,,,,,,,,,,,,,,,,,,,,
333135,001,2022-11-20_17h53.26.631,Info_measure_main_exp,2022.2.2,Win32,60.19020104,,,space,39.7361,,,,,,,,,,,,,,,,,,,,,,,,,,,,,,,,,,,,,,,,,,,,,,,,,,,,,,,,,,,,,,,,,,,,,,,,,,,,,,,,,,,,,,,,,,,,,,,,,,,,,,,,,,,
333135,001,2022-11-20_17h53.26.631,Info_measure_main_exp,2022.2.2,Win32,60.19020104,,,,,space,5.9773,,,,,,,,,,,,,,,,,,,,,,,,,,,,,,,,,,,,,,,,,,,,,,,,,,,,,,,,,,,,,,,,,,,,,,,,,,,,,,,,,,,,,,,,,,,,,,,,,,,,,,,,,
333135,001,2022-11-20_17h53.26.631,Info_measure_main_exp,2022.2.2,Win32,60.19020104,,,,,,,space,32.6158,,,,,,,,,,,,,,,,,,,,,,,,,,,,,,,,,,,,,,,,,,,,,,,,,,,,,,,,,,,,,,,,,,,,,,,,,,,,,,,,,,,,,,,,,,,,,,,,,,,,,,,
333135,001,2022-11-20_17h53.26.631,Info_measure_main_exp,2022.2.2,Win32,60.19020104,,,,,,,,,space,22.7017,,,,,,,,,,,,,,,,,,,,,,,,,,,,,,,,,,,,,,,,,,,,,,,,,,,,,,,,,,,,,,,,,,,,,,,,,,,,,,,,,,,,,,,,,,,,,,,,,,,,,
333135,001,2022-11-20_17h53.26.631,Info_measure_main_exp,2022.2.2,Win32,60.19020104,,,,,,,,,,,space,2.9996,,,,,,,,,,,,,,,,,,,,,,,,,,,,,,,,,,,,,,,,,,,,,,,,,,,,,,,,,,,,,,,,,,,,,,,,,,,,,,,,,,,,,,,,,,,,,,,,,,,
333135,001,2022-11-20_17h53.26.631,Info_measure_main_exp,2022.2.2,Win32,60.19020104,,,,,,,,,,,,,0,0,0,3,1,masks/mask_004.jpg,,,,,,,,,,,,,,,,,,,,,,,,,,,,,,,,,,,,,,,,,,,,,,,,,,,,,,,,,,,,,,,,,,,,,,,,,,,,,,,,,,,,,,,,,,,,,
333135,001,2022-11-20_17h53.26.631,Info_measure_main_exp,2022.2.2,Win32,60.19020104,,,,,,,,,,,,,0,1,1,0,1,masks/mask_001.jpg,,,,,,,,,,,,,,,,,,,,,,,,,,,,,,,,,,,,,,,,,,,,,,,,,,,,,,,,,,,,,,,,,,,,,,,,,,,,,,,,,,,,,,,,,,,,,
333135,001,2022-11-20_17h53.26.631,Info_measure_main_exp,2022.2.2,Win32,60.19020104,,,,,,,,,,,,,0,2,2,1,1,masks/mask_002.jpg,,,,,,,,,,,,,,,,,,,,,,,,,,,,,,,,,,,,,,,,,,,,,,,,,,,,,,,,,,,,,,,,,,,,,,,,,,,,,,,,,,,,,,,,,,,,,
333135,001,2022-11-20_17h53.26.631,Info_measure_main_exp,2022.2.2,Win32,60.19020104,,,,,,,,,,,,,0,3,3,2,1,masks/mask_003.jpg,,,,,,,,,,,,,,,,,,,,,,,,,,,,,,,,,,,,,,,,,,,,,,,,,,,,,,,,,,,,,,,,,,,,,,,,,,,,,,,,,,,,,,,,,,,,,
333135,001,2022-11-20_17h53.26.631,Info_measure_main_exp,2022.2.2,Win32,60.19020104,,,,,,,,,,,,,0,4,4,4,1,masks/mask_005.jpg,,,,,,,,,,,,,,,,,,,,,,,,,,,,,,,,,,,,,,,,,,,,,,,,,,,,,,,,,,,,,,,,,,,,,,,,,,,,,,,,,,,,,,,,,,,,,
333135,001,2022-11-20_17h53.26.631,Info_measure_main_exp,2022.2.2,Win32,60.19020104,,,,,,,,,,,,,,,,,,masks/mask_001.jpg,0,0,0,0,1,,,,,,,,,,,,,,,,,,,,,,,,,,,,,,,,,,,,,,,,,,,,,,,,,,,,,,,,,,,,,,,,,,,,,,,,,,,,,,,,,,,,,,,,
333135,001,2022-11-20_17h53.26.631,Info_measure_main_exp,2022.2.2,Win32,60.19020104,,,,,,,,,,,,,,,,,,masks/mask_002.jpg,0,1,1,1,1,,,,,,,,,,,,,,,,,,,,,,,,,,,,,,,,,,,,,,,,,,,,,,,,,,,,,,,,,,,,,,,,,,,,,,,,,,,,,,,,,,,,,,,,
333135,001,2022-11-20_17h53.26.631,Info_measure_main_exp,2022.2.2,Win32,60.19020104,,,,,,,,,,,,,,,,,,masks/mask_004.jpg,0,2,2,3,1,,,,,,,,,,,,,,,,,,,,,,,,,,,,,,,,,,,,,,,,,,,,,,,,,,,,,,,,,,,,,,,,,,,,,,,,,,,,,,,,,,,,,,,,
333135,001,2022-11-20_17h53.26.631,Info_measure_main_exp,2022.2.2,Win32,60.19020104,,,,,,,,,,,,,,,,,,masks/mask_005.jpg,0,3,3,4,1,,,,,,,,,,,,,,,,,,,,,,,,,,,,,,,,,,,,,,,,,,,,,,,,,,,,,,,,,,,,,,,,,,,,,,,,,,,,,,,,,,,,,,,,
333135,001,2022-11-20_17h53.26.631,Info_measure_main_exp,2022.2.2,Win32,60.19020104,,,,,,,,,,,,,,,,,,masks/mask_003.jpg,0,4,4,2,1,,,,,,,,,,,,,,,,,,,,,,,,,,,,,,,,,,,,,,,,,,,,,,,,,,,,,,,,,,,,,,,,,,,,,,,,,,,,,,,,,,,,,,,,
333135,001,2022-11-20_17h53.26.631,Info_measure_main_exp,2022.2.2,Win32,60.19020104,,,,,,,,,,,,,,,,,,,,,,,,-0.070370356,-0.106481481,1,0,0,response5disk,3,115.4122,1,0.000925912,-0.000925947,1,0,0,center_square,0,0,0,1,1,0,131,5,5,2514,2490,prac_patch/patch0002514.jpg,prac_patch/patch0002490.jpg,,,,,,,,,,,,,,,,,,,,,,,,,,,,,,,,,,,,,,,,,,,,,,,,,,,,,,,,,,,,
333135,001,2022-11-20_17h53.26.631,Info_measure_main_exp,2022.2.2,Win32,60.19020104,,,,,,,,,,,,,0,0,0,2,1,masks/mask_003.jpg,,,,,,,,,,,,,,,,,,,,,,,,,,,,,,,,,,,,,,,,,,,,,,,,,,,,,,,,,,,,,,,,,,,,,,,,,,,,,,,,,,,,,,,,,,,,,
333135,001,2022-11-20_17h53.26.631,Info_measure_main_exp,2022.2.2,Win32,60.19020104,,,,,,,,,,,,,0,1,1,3,1,masks/mask_004.jpg,,,,,,,,,,,,,,,,,,,,,,,,,,,,,,,,,,,,,,,,,,,,,,,,,,,,,,,,,,,,,,,,,,,,,,,,,,,,,,,,,,,,,,,,,,,,,
333135,001,2022-11-20_17h53.26.631,Info_measure_main_exp,2022.2.2,Win32,60.19020104,,,,,,,,,,,,,0,2,2,4,1,masks/mask_005.jpg,,,,,,,,,,,,,,,,,,,,,,,,,,,,,,,,,,,,,,,,,,,,,,,,,,,,,,,,,,,,,,,,,,,,,,,,,,,,,,,,,,,,,,,,,,,,,
333135,001,2022-11-20_17h53.26.631,Info_measure_main_exp,2022.2.2,Win32,60.19020104,,,,,,,,,,,,,0,3,3,0,1,masks/mask_001.jpg,,,,,,,,,,,,,,,,,,,,,,,,,,,,,,,,,,,,,,,,,,,,,,,,,,,,,,,,,,,,,,,,,,,,,,,,,,,,,,,,,,,,,,,,,,,,,
333135,001,2022-11-20_17h53.26.631,Info_measure_main_exp,2022.2.2,Win32,60.19020104,,,,,,,,,,,,,0,4,4,1,1,masks/mask_002.jpg,,,,,,,,,,,,,,,,,,,,,,,,,,,,,,,,,,,,,,,,,,,,,,,,,,,,,,,,,,,,,,,,,,,,,,,,,,,,,,,,,,,,,,,,,,,,,
333135,001,2022-11-20_17h53.26.631,Info_measure_main_exp,2022.2.2,Win32,60.19020104,,,,,,,,,,,,,,,,,,masks/mask_001.jpg,0,0,0,0,1,,,,,,,,,,,,,,,,,,,,,,,,,,,,,,,,,,,,,,,,,,,,,,,,,,,,,,,,,,,,,,,,,,,,,,,,,,,,,,,,,,,,,,,,
333135,001,2022-11-20_17h53.26.631,Info_measure_main_exp,2022.2.2,Win32,60.19020104,,,,,,,,,,,,,,,,,,masks/mask_002.jpg,0,1,1,1,1,,,,,,,,,,,,,,,,,,,,,,,,,,,,,,,,,,,,,,,,,,,,,,,,,,,,,,,,,,,,,,,,,,,,,,,,,,,,,,,,,,,,,,,,
333135,001,2022-11-20_17h53.26.631,Info_measure_main_exp,2022.2.2,Win32,60.19020104,,,,,,,,,,,,,,,,,,masks/mask_005.jpg,0,2,2,4,1,,,,,,,,,,,,,,,,,,,,,,,,,,,,,,,,,,,,,,,,,,,,,,,,,,,,,,,,,,,,,,,,,,,,,,,,,,,,,,,,,,,,,,,,
333135,001,2022-11-20_17h53.26.631,Info_measure_main_exp,2022.2.2,Win32,60.19020104,,,,,,,,,,,,,,,,,,masks/mask_004.jpg,0,3,3,3,1,,,,,,,,,,,,,,,,,,,,,,,,,,,,,,,,,,,,,,,,,,,,,,,,,,,,,,,,,,,,,,,,,,,,,,,,,,,,,,,,,,,,,,,,
333135,001,2022-11-20_17h53.26.631,Info_measure_main_exp,2022.2.2,Win32,60.19020104,,,,,,,,,,,,,,,,,,masks/mask_003.jpg,0,4,4,2,1,,,,,,,,,,,,,,,,,,,,,,,,,,,,,,,,,,,,,,,,,,,,,,,,,,,,,,,,,,,,,,,,,,,,,,,,,,,,,,,,,,,,,,,,
333135,001,2022-11-20_17h53.26.631,Info_measure_main_exp,2022.2.2,Win32,60.19020104,,,,,,,,,,,,,,,,,,,,,,,,0.189814815,0.034259266,1,0,0,response1disk,6,127.1038,1,-0.006481453,0.005555541,1,0,0,center_square,0,1,1,0,1,0,131,5,5,2370,2406,prac_patch/patch0002370.jpg,prac_patch/patch0002406.jpg,,,,,,,,,,,,,,,,,,,,,,,,,,,,,,,,,,,,,,,,,,,,,,,,,,,,,,,,,,,,
333135,001,2022-11-20_17h53.26.631,Info_measure_main_exp,2022.2.2,Win32,60.19020104,,,,,,,,,,,,,0,0,0,2,1,masks/mask_003.jpg,,,,,,,,,,,,,,,,,,,,,,,,,,,,,,,,,,,,,,,,,,,,,,,,,,,,,,,,,,,,,,,,,,,,,,,,,,,,,,,,,,,,,,,,,,,,,
333135,001,2022-11-20_17h53.26.631,Info_measure_main_exp,2022.2.2,Win32,60.19020104,,,,,,,,,,,,,0,1,1,1,1,masks/mask_002.jpg,,,,,,,,,,,,,,,,,,,,,,,,,,,,,,,,,,,,,,,,,,,,,,,,,,,,,,,,,,,,,,,,,,,,,,,,,,,,,,,,,,,,,,,,,,,,,
333135,001,2022-11-20_17h53.26.631,Info_measure_main_exp,2022.2.2,Win32,60.19020104,,,,,,,,,,,,,0,2,2,0,1,masks/mask_001.jpg,,,,,,,,,,,,,,,,,,,,,,,,,,,,,,,,,,,,,,,,,,,,,,,,,,,,,,,,,,,,,,,,,,,,,,,,,,,,,,,,,,,,,,,,,,,,,
333135,001,2022-11-20_17h53.26.631,Info_measure_main_exp,2022.2.2,Win32,60.19020104,,,,,,,,,,,,,0,3,3,3,1,masks/mask_004.jpg,,,,,,,,,,,,,,,,,,,,,,,,,,,,,,,,,,,,,,,,,,,,,,,,,,,,,,,,,,,,,,,,,,,,,,,,,,,,,,,,,,,,,,,,,,,,,
333135,001,2022-11-20_17h53.26.631,Info_measure_main_exp,2022.2.2,Win32,60.19020104,,,,,,,,,,,,,0,4,4,4,1,masks/mask_005.jpg,,,,,,,,,,,,,,,,,,,,,,,,,,,,,,,,,,,,,,,,,,,,,,,,,,,,,,,,,,,,,,,,,,,,,,,,,,,,,,,,,,,,,,,,,,,,,
333135,001,2022-11-20_17h53.26.631,Info_measure_main_exp,2022.2.2,Win32,60.19020104,,,,,,,,,,,,,,,,,,masks/mask_002.jpg,0,0,0,1,1,,,,,,,,,,,,,,,,,,,,,,,,,,,,,,,,,,,,,,,,,,,,,,,,,,,,,,,,,,,,,,,,,,,,,,,,,,,,,,,,,,,,,,,,
333135,001,2022-11-20_17h53.26.631,Info_measure_main_exp,2022.2.2,Win32,60.19020104,,,,,,,,,,,,,,,,,,masks/mask_004.jpg,0,1,1,3,1,,,,,,,,,,,,,,,,,,,,,,,,,,,,,,,,,,,,,,,,,,,,,,,,,,,,,,,,,,,,,,,,,,,,,,,,,,,,,,,,,,,,,,,,
333135,001,2022-11-20_17h53.26.631,Info_measure_main_exp,2022.2.2,Win32,60.19020104,,,,,,,,,,,,,,,,,,masks/mask_005.jpg,0,2,2,4,1,,,,,,,,,,,,,,,,,,,,,,,,,,,,,,,,,,,,,,,,,,,,,,,,,,,,,,,,,,,,,,,,,,,,,,,,,,,,,,,,,,,,,,,,
333135,001,2022-11-20_17h53.26.631,Info_measure_main_exp,2022.2.2,Win32,60.19020104,,,,,,,,,,,,,,,,,,masks/mask_001.jpg,0,3,3,0,1,,,,,,,,,,,,,,,,,,,,,,,,,,,,,,,,,,,,,,,,,,,,,,,,,,,,,,,,,,,,,,,,,,,,,,,,,,,,,,,,,,,,,,,,
333135,001,2022-11-20_17h53.26.631,Info_measure_main_exp,2022.2.2,Win32,60.19020104,,,,,,,,,,,,,,,,,,masks/mask_003.jpg,0,4,4,2,1,,,,,,,,,,,,,,,,,,,,,,,,,,,,,,,,,,,,,,,,,,,,,,,,,,,,,,,,,,,,,,,,,,,,,,,,,,,,,,,,,,,,,,,,
333135,001,2022-11-20_17h53.26.631,Info_measure_main_exp,2022.2.2,Win32,60.19020104,,,,,,,,,,,,,,,,,,,,,,,,-0.115740741,0.186111097,1,0,0,response7disk,0,136.7947,1,0.00462963,-0.002777771,1,0,0,center_square,0,2,2,2,1,0,131,5,5,2526,2526,prac_patch/patch0002526.jpg,prac_patch/patch0002526.jpg,,,,,,,,,,,,,,,,,,,,,,,,,,,,,,,,,,,,,,,,,,,,,,,,,,,,,,,,,,,,
333135,001,2022-11-20_17h53.26.631,Info_measure_main_exp,2022.2.2,Win32,60.19020104,,,,,,,,,,,,,,,,,,,,,,,,,,,,,,,,,,,,,,,,,,,,,,,,,,,,,,,,,,,space,2.7598,,,,,,,,,,,,,,,,,,,,,,,,,,,,,,,,,,,,,,,,,,,,,,,,,,,
333135,001,2022-11-20_17h53.26.631,Info_measure_main_exp,2022.2.2,Win32,60.19020104,,,,,,,,,,,,,,,,,,masks/mask_003.jpg,,,,,,,,,,,,,,,,,,,,,,,,,,,,,,,,,,,,,,,,,,,0,0,0,2,1,,,,,,,,,,,,,,,,,,,,,,,,,,,,,,,,,,,,,,,,,,,,,,
333135,001,2022-11-20_17h53.26.631,Info_measure_main_exp,2022.2.2,Win32,60.19020104,,,,,,,,,,,,,,,,,,masks/mask_005.jpg,,,,,,,,,,,,,,,,,,,,,,,,,,,,,,,,,,,,,,,,,,,0,1,1,4,1,,,,,,,,,,,,,,,,,,,,,,,,,,,,,,,,,,,,,,,,,,,,,,
333135,001,2022-11-20_17h53.26.631,Info_measure_main_exp,2022.2.2,Win32,60.19020104,,,,,,,,,,,,,,,,,,masks/mask_002.jpg,,,,,,,,,,,,,,,,,,,,,,,,,,,,,,,,,,,,,,,,,,,0,2,2,1,1,,,,,,,,,,,,,,,,,,,,,,,,,,,,,,,,,,,,,,,,,,,,,,
333135,001,2022-11-20_17h53.26.631,Info_measure_main_exp,2022.2.2,Win32,60.19020104,,,,,,,,,,,,,,,,,,masks/mask_001.jpg,,,,,,,,,,,,,,,,,,,,,,,,,,,,,,,,,,,,,,,,,,,0,3,3,0,1,,,,,,,,,,,,,,,,,,,,,,,,,,,,,,,,,,,,,,,,,,,,,,
333135,001,2022-11-20_17h53.26.631,Info_measure_main_exp,2022.2.2,Win32,60.19020104,,,,,,,,,,,,,,,,,,masks/mask_004.jpg,,,,,,,,,,,,,,,,,,,,,,,,,,,,,,,,,,,,,,,,,,,0,4,4,3,1,,,,,,,,,,,,,,,,,,,,,,,,,,,,,,,,,,,,,,,,,,,,,,
333135,001,2022-11-20_17h53.26.631,Info_measure_main_exp,2022.2.2,Win32,60.19020104,,,,,,,,,,,,,,,,,,masks/mask_004.jpg,,,,,,,,,,,,,,,,,,,,,,,,,,,,,,,,,,,,,,,,,,,,,,,,0,0,0,3,1,,,,,,,,,,,,,,,,,,,,,,,,,,,,,,,,,,,,,,,,,
333135,001,2022-11-20_17h53.26.631,Info_measure_main_exp,2022.2.2,Win32,60.19020104,,,,,,,,,,,,,,,,,,masks/mask_002.jpg,,,,,,,,,,,,,,,,,,,,,,,,,,,,,,,,,,,,,,,,,,,,,,,,0,1,1,1,1,,,,,,,,,,,,,,,,,,,,,,,,,,,,,,,,,,,,,,,,,
333135,001,2022-11-20_17h53.26.631,Info_measure_main_exp,2022.2.2,Win32,60.19020104,,,,,,,,,,,,,,,,,,masks/mask_003.jpg,,,,,,,,,,,,,,,,,,,,,,,,,,,,,,,,,,,,,,,,,,,,,,,,0,2,2,2,1,,,,,,,,,,,,,,,,,,,,,,,,,,,,,,,,,,,,,,,,,
333135,001,2022-11-20_17h53.26.631,Info_measure_main_exp,2022.2.2,Win32,60.19020104,,,,,,,,,,,,,,,,,,masks/mask_001.jpg,,,,,,,,,,,,,,,,,,,,,,,,,,,,,,,,,,,,,,,,,,,,,,,,0,3,3,0,1,,,,,,,,,,,,,,,,,,,,,,,,,,,,,,,,,,,,,,,,,
333135,001,2022-11-20_17h53.26.631,Info_measure_main_exp,2022.2.2,Win32,60.19020104,,,,,,,,,,,,,,,,,,masks/mask_005.jpg,,,,,,,,,,,,,,,,,,,,,,,,,,,,,,,,,,,,,,,,,,,,,,,,0,4,4,4,1,,,,,,,,,,,,,,,,,,,,,,,,,,,,,,,,,,,,,,,,,
333135,001,2022-11-20_17h53.26.631,Info_measure_main_exp,2022.2.2,Win32,60.19020104,,,,,,,,,,,,,,,,,,,,,,,,,,,,,,6,1.4463,1,,,,,,,,,,,,0,131,5,5,2190,1950,absent_patch/patch0002190.jpg,absent_patch/patch0001950.jpg,,,,,,,,,,,,,,,,,,,,0.100000028,0.051851838,1,0,0,response1disk,1,0,0.008333312,1,0,0,center_square,0,0,0,73,1,,,,,,,,,,,,,,,,,,,,,,,
333135,001,2022-11-20_17h53.26.631,Info_measure_main_exp,2022.2.2,Win32,60.19020104,,,,,,,,,,,,,,,,,,masks/mask_005.jpg,,,,,,,,,,,,,,,,,,,,,,,,,,,,,,,,,,,,,,,,,,,0,0,0,4,1,,,,,,,,,,,,,,,,,,,,,,,,,,,,,,,,,,,,,,,,,,,,,,
333135,001,2022-11-20_17h53.26.631,Info_measure_main_exp,2022.2.2,Win32,60.19020104,,,,,,,,,,,,,,,,,,masks/mask_003.jpg,,,,,,,,,,,,,,,,,,,,,,,,,,,,,,,,,,,,,,,,,,,0,1,1,2,1,,,,,,,,,,,,,,,,,,,,,,,,,,,,,,,,,,,,,,,,,,,,,,
333135,001,2022-11-20_17h53.26.631,Info_measure_main_exp,2022.2.2,Win32,60.19020104,,,,,,,,,,,,,,,,,,masks/mask_001.jpg,,,,,,,,,,,,,,,,,,,,,,,,,,,,,,,,,,,,,,,,,,,0,2,2,0,1,,,,,,,,,,,,,,,,,,,,,,,,,,,,,,,,,,,,,,,,,,,,,,
333135,001,2022-11-20_17h53.26.631,Info_measure_main_exp,2022.2.2,Win32,60.19020104,,,,,,,,,,,,,,,,,,masks/mask_002.jpg,,,,,,,,,,,,,,,,,,,,,,,,,,,,,,,,,,,,,,,,,,,0,3,3,1,1,,,,,,,,,,,,,,,,,,,,,,,,,,,,,,,,,,,,,,,,,,,,,,
333135,001,2022-11-20_17h53.26.631,Info_measure_main_exp,2022.2.2,Win32,60.19020104,,,,,,,,,,,,,,,,,,masks/mask_004.jpg,,,,,,,,,,,,,,,,,,,,,,,,,,,,,,,,,,,,,,,,,,,0,4,4,3,1,,,,,,,,,,,,,,,,,,,,,,,,,,,,,,,,,,,,,,,,,,,,,,
333135,001,2022-11-20_17h53.26.631,Info_measure_main_exp,2022.2.2,Win32,60.19020104,,,,,,,,,,,,,,,,,,masks/mask_002.jpg,,,,,,,,,,,,,,,,,,,,,,,,,,,,,,,,,,,,,,,,,,,,,,,,0,0,0,1,1,,,,,,,,,,,,,,,,,,,,,,,,,,,,,,,,,,,,,,,,,
333135,001,2022-11-20_17h53.26.631,Info_measure_main_exp,2022.2.2,Win32,60.19020104,,,,,,,,,,,,,,,,,,masks/mask_003.jpg,,,,,,,,,,,,,,,,,,,,,,,,,,,,,,,,,,,,,,,,,,,,,,,,0,1,1,2,1,,,,,,,,,,,,,,,,,,,,,,,,,,,,,,,,,,,,,,,,,
333135,001,2022-11-20_17h53.26.631,Info_measure_main_exp,2022.2.2,Win32,60.19020104,,,,,,,,,,,,,,,,,,masks/mask_001.jpg,,,,,,,,,,,,,,,,,,,,,,,,,,,,,,,,,,,,,,,,,,,,,,,,0,2,2,0,1,,,,,,,,,,,,,,,,,,,,,,,,,,,,,,,,,,,,,,,,,
333135,001,2022-11-20_17h53.26.631,Info_measure_main_exp,2022.2.2,Win32,60.19020104,,,,,,,,,,,,,,,,,,masks/mask_004.jpg,,,,,,,,,,,,,,,,,,,,,,,,,,,,,,,,,,,,,,,,,,,,,,,,0,3,3,3,1,,,,,,,,,,,,,,,,,,,,,,,,,,,,,,,,,,,,,,,,,
333135,001,2022-11-20_17h53.26.631,Info_measure_main_exp,2022.2.2,Win32,60.19020104,,,,,,,,,,,,,,,,,,masks/mask_005.jpg,,,,,,,,,,,,,,,,,,,,,,,,,,,,,,,,,,,,,,,,,,,,,,,,0,4,4,4,1,,,,,,,,,,,,,,,,,,,,,,,,,,,,,,,,,,,,,,,,,
333135,001,2022-11-20_17h53.26.631,Info_measure_main_exp,2022.2.2,Win32,60.19020104,,,,,,,,,,,,,,,,,,,,,,,,,,,,,,6,1.2137,1,,,,,,,,,,,,0,131,5,5,2082,2166,absent_patch/patch0002082.jpg,absent_patch/patch0002166.jpg,,,,,,,,,,,,,,,,,,,,0.133333347,0.02870369,1,0,0,response1disk,2,-0.003703718,0.006481489,1,0,0,center_square,0,1,1,43,1,,,,,,,,,,,,,,,,,,,,,,,
333135,001,2022-11-20_17h53.26.631,Info_measure_main_exp,2022.2.2,Win32,60.19020104,,,,,,,,,,,,,,,,,,masks/mask_003.jpg,,,,,,,,,,,,,,,,,,,,,,,,,,,,,,,,,,,,,,,,,,,0,0,0,2,1,,,,,,,,,,,,,,,,,,,,,,,,,,,,,,,,,,,,,,,,,,,,,,
333135,001,2022-11-20_17h53.26.631,Info_measure_main_exp,2022.2.2,Win32,60.19020104,,,,,,,,,,,,,,,,,,masks/mask_004.jpg,,,,,,,,,,,,,,,,,,,,,,,,,,,,,,,,,,,,,,,,,,,0,1,1,3,1,,,,,,,,,,,,,,,,,,,,,,,,,,,,,,,,,,,,,,,,,,,,,,
333135,001,2022-11-20_17h53.26.631,Info_measure_main_exp,2022.2.2,Win32,60.19020104,,,,,,,,,,,,,,,,,,masks/mask_005.jpg,,,,,,,,,,,,,,,,,,,,,,,,,,,,,,,,,,,,,,,,,,,0,2,2,4,1,,,,,,,,,,,,,,,,,,,,,,,,,,,,,,,,,,,,,,,,,,,,,,
333135,001,2022-11-20_17h53.26.631,Info_measure_main_exp,2022.2.2,Win32,60.19020104,,,,,,,,,,,,,,,,,,masks/mask_001.jpg,,,,,,,,,,,,,,,,,,,,,,,,,,,,,,,,,,,,,,,,,,,0,3,3,0,1,,,,,,,,,,,,,,,,,,,,,,,,,,,,,,,,,,,,,,,,,,,,,,
333135,001,2022-11-20_17h53.26.631,Info_measure_main_exp,2022.2.2,Win32,60.19020104,,,,,,,,,,,,,,,,,,masks/mask_002.jpg,,,,,,,,,,,,,,,,,,,,,,,,,,,,,,,,,,,,,,,,,,,0,4,4,1,1,,,,,,,,,,,,,,,,,,,,,,,,,,,,,,,,,,,,,,,,,,,,,,
333135,001,2022-11-20_17h53.26.631,Info_measure_main_exp,2022.2.2,Win32,60.19020104,,,,,,,,,,,,,,,,,,masks/mask_005.jpg,,,,,,,,,,,,,,,,,,,,,,,,,,,,,,,,,,,,,,,,,,,,,,,,0,0,0,4,1,,,,,,,,,,,,,,,,,,,,,,,,,,,,,,,,,,,,,,,,,
333135,001,2022-11-20_17h53.26.631,Info_measure_main_exp,2022.2.2,Win32,60.19020104,,,,,,,,,,,,,,,,,,masks/mask_001.jpg,,,,,,,,,,,,,,,,,,,,,,,,,,,,,,,,,,,,,,,,,,,,,,,,0,1,1,0,1,,,,,,,,,,,,,,,,,,,,,,,,,,,,,,,,,,,,,,,,,
333135,001,2022-11-20_17h53.26.631,Info_measure_main_exp,2022.2.2,Win32,60.19020104,,,,,,,,,,,,,,,,,,masks/mask_004.jpg,,,,,,,,,,,,,,,,,,,,,,,,,,,,,,,,,,,,,,,,,,,,,,,,0,2,2,3,1,,,,,,,,,,,,,,,,,,,,,,,,,,,,,,,,,,,,,,,,,
333135,001,2022-11-20_17h53.26.631,Info_measure_main_exp,2022.2.2,Win32,60.19020104,,,,,,,,,,,,,,,,,,masks/mask_002.jpg,,,,,,,,,,,,,,,,,,,,,,,,,,,,,,,,,,,,,,,,,,,,,,,,0,3,3,1,1,,,,,,,,,,,,,,,,,,,,,,,,,,,,,,,,,,,,,,,,,
333135,001,2022-11-20_17h53.26.631,Info_measure_main_exp,2022.2.2,Win32,60.19020104,,,,,,,,,,,,,,,,,,masks/mask_003.jpg,,,,,,,,,,,,,,,,,,,,,,,,,,,,,,,,,,,,,,,,,,,,,,,,0,4,4,2,1,,,,,,,,,,,,,,,,,,,,,,,,,,,,,,,,,,,,,,,,,
333135,001,2022-11-20_17h53.26.631,Info_measure_main_exp,2022.2.2,Win32,60.19020104,,,,,,,,,,,,,,,,,,,,,,,,,,,,,,4,1.2131,1,,,,,,,,,,,,0,131,5,5,2082,2298,absent_patch/patch0002082.jpg,absent_patch/patch0002298.jpg,,,,,,,,,,,,,,,,,,,,0.021296325,-0.09629631,1,0,0,response3disk,3,-0.005555541,0.003703683,1,0,0,center_square,0,2,2,107,1,,,,,,,,,,,,,,,,,,,,,,,
333135,001,2022-11-20_17h53.26.631,Info_measure_main_exp,2022.2.2,Win32,60.19020104,,,,,,,,,,,,,,,,,,masks/mask_001.jpg,,,,,,,,,,,,,,,,,,,,,,,,,,,,,,,,,,,,,,,,,,,0,0,0,0,1,,,,,,,,,,,,,,,,,,,,,,,,,,,,,,,,,,,,,,,,,,,,,,
333135,001,2022-11-20_17h53.26.631,Info_measure_main_exp,2022.2.2,Win32,60.19020104,,,,,,,,,,,,,,,,,,masks/mask_005.jpg,,,,,,,,,,,,,,,,,,,,,,,,,,,,,,,,,,,,,,,,,,,0,1,1,4,1,,,,,,,,,,,,,,,,,,,,,,,,,,,,,,,,,,,,,,,,,,,,,,
333135,001,2022-11-20_17h53.26.631,Info_measure_main_exp,2022.2.2,Win32,60.19020104,,,,,,,,,,,,,,,,,,masks/mask_002.jpg,,,,,,,,,,,,,,,,,,,,,,,,,,,,,,,,,,,,,,,,,,,0,2,2,1,1,,,,,,,,,,,,,,,,,,,,,,,,,,,,,,,,,,,,,,,,,,,,,,
333135,001,2022-11-20_17h53.26.631,Info_measure_main_exp,2022.2.2,Win32,60.19020104,,,,,,,,,,,,,,,,,,masks/mask_004.jpg,,,,,,,,,,,,,,,,,,,,,,,,,,,,,,,,,,,,,,,,,,,0,3,3,3,1,,,,,,,,,,,,,,,,,,,,,,,,,,,,,,,,,,,,,,,,,,,,,,
333135,001,2022-11-20_17h53.26.631,Info_measure_main_exp,2022.2.2,Win32,60.19020104,,,,,,,,,,,,,,,,,,masks/mask_003.jpg,,,,,,,,,,,,,,,,,,,,,,,,,,,,,,,,,,,,,,,,,,,0,4,4,2,1,,,,,,,,,,,,,,,,,,,,,,,,,,,,,,,,,,,,,,,,,,,,,,
333135,001,2022-11-20_17h53.26.631,Info_measure_main_exp,2022.2.2,Win32,60.19020104,,,,,,,,,,,,,,,,,,masks/mask_003.jpg,,,,,,,,,,,,,,,,,,,,,,,,,,,,,,,,,,,,,,,,,,,,,,,,0,0,0,2,1,,,,,,,,,,,,,,,,,,,,,,,,,,,,,,,,,,,,,,,,,
333135,001,2022-11-20_17h53.26.631,Info_measure_main_exp,2022.2.2,Win32,60.19020104,,,,,,,,,,,,,,,,,,masks/mask_002.jpg,,,,,,,,,,,,,,,,,,,,,,,,,,,,,,,,,,,,,,,,,,,,,,,,0,1,1,1,1,,,,,,,,,,,,,,,,,,,,,,,,,,,,,,,,,,,,,,,,,
333135,001,2022-11-20_17h53.26.631,Info_measure_main_exp,2022.2.2,Win32,60.19020104,,,,,,,,,,,,,,,,,,masks/mask_001.jpg,,,,,,,,,,,,,,,,,,,,,,,,,,,,,,,,,,,,,,,,,,,,,,,,0,2,2,0,1,,,,,,,,,,,,,,,,,,,,,,,,,,,,,,,,,,,,,,,,,
333135,001,2022-11-20_17h53.26.631,Info_measure_main_exp,2022.2.2,Win32,60.19020104,,,,,,,,,,,,,,,,,,masks/mask_004.jpg,,,,,,,,,,,,,,,,,,,,,,,,,,,,,,,,,,,,,,,,,,,,,,,,0,3,3,3,1,,,,,,,,,,,,,,,,,,,,,,,,,,,,,,,,,,,,,,,,,
333135,001,2022-11-20_17h53.26.631,Info_measure_main_exp,2022.2.2,Win32,60.19020104,,,,,,,,,,,,,,,,,,masks/mask_005.jpg,,,,,,,,,,,,,,,,,,,,,,,,,,,,,,,,,,,,,,,,,,,,,,,,0,4,4,4,1,,,,,,,,,,,,,,,,,,,,,,,,,,,,,,,,,,,,,,,,,
333135,001,2022-11-20_17h53.26.631,Info_measure_main_exp,2022.2.2,Win32,60.19020104,,,,,,,,,,,,,,,,,,,,,,,,,,,,,,5,0.7977,1,,,,,,,,,,,,0,131,5,5,2250,2142,absent_patch/patch0002250.jpg,absent_patch/patch0002142.jpg,,,,,,,,,,,,,,,,,,,,0.121296282,-0.042592614,1,0,0,response3disk,4,0.008333347,0.006481489,1,0,0,center_square,0,3,3,71,1,,,,,,,,,,,,,,,,,,,,,,,
333135,001,2022-11-20_17h53.26.631,Info_measure_main_exp,2022.2.2,Win32,60.19020104,,,,,,,,,,,,,,,,,,masks/mask_005.jpg,,,,,,,,,,,,,,,,,,,,,,,,,,,,,,,,,,,,,,,,,,,0,0,0,4,1,,,,,,,,,,,,,,,,,,,,,,,,,,,,,,,,,,,,,,,,,,,,,,
333135,001,2022-11-20_17h53.26.631,Info_measure_main_exp,2022.2.2,Win32,60.19020104,,,,,,,,,,,,,,,,,,masks/mask_004.jpg,,,,,,,,,,,,,,,,,,,,,,,,,,,,,,,,,,,,,,,,,,,0,1,1,3,1,,,,,,,,,,,,,,,,,,,,,,,,,,,,,,,,,,,,,,,,,,,,,,
333135,001,2022-11-20_17h53.26.631,Info_measure_main_exp,2022.2.2,Win32,60.19020104,,,,,,,,,,,,,,,,,,masks/mask_001.jpg,,,,,,,,,,,,,,,,,,,,,,,,,,,,,,,,,,,,,,,,,,,0,2,2,0,1,,,,,,,,,,,,,,,,,,,,,,,,,,,,,,,,,,,,,,,,,,,,,,
333135,001,2022-11-20_17h53.26.631,Info_measure_main_exp,2022.2.2,Win32,60.19020104,,,,,,,,,,,,,,,,,,masks/mask_002.jpg,,,,,,,,,,,,,,,,,,,,,,,,,,,,,,,,,,,,,,,,,,,0,3,3,1,1,,,,,,,,,,,,,,,,,,,,,,,,,,,,,,,,,,,,,,,,,,,,,,
333135,001,2022-11-20_17h53.26.631,Info_measure_main_exp,2022.2.2,Win32,60.19020104,,,,,,,,,,,,,,,,,,masks/mask_003.jpg,,,,,,,,,,,,,,,,,,,,,,,,,,,,,,,,,,,,,,,,,,,0,4,4,2,1,,,,,,,,,,,,,,,,,,,,,,,,,,,,,,,,,,,,,,,,,,,,,,
333135,001,2022-11-20_17h53.26.631,Info_measure_main_exp,2022.2.2,Win32,60.19020104,,,,,,,,,,,,,,,,,,masks/mask_004.jpg,,,,,,,,,,,,,,,,,,,,,,,,,,,,,,,,,,,,,,,,,,,,,,,,0,0,0,3,1,,,,,,,,,,,,,,,,,,,,,,,,,,,,,,,,,,,,,,,,,
333135,001,2022-11-20_17h53.26.631,Info_measure_main_exp,2022.2.2,Win32,60.19020104,,,,,,,,,,,,,,,,,,masks/mask_002.jpg,,,,,,,,,,,,,,,,,,,,,,,,,,,,,,,,,,,,,,,,,,,,,,,,0,1,1,1,1,,,,,,,,,,,,,,,,,,,,,,,,,,,,,,,,,,,,,,,,,
333135,001,2022-11-20_17h53.26.631,Info_measure_main_exp,2022.2.2,Win32,60.19020104,,,,,,,,,,,,,,,,,,masks/mask_005.jpg,,,,,,,,,,,,,,,,,,,,,,,,,,,,,,,,,,,,,,,,,,,,,,,,0,2,2,4,1,,,,,,,,,,,,,,,,,,,,,,,,,,,,,,,,,,,,,,,,,
333135,001,2022-11-20_17h53.26.631,Info_measure_main_exp,2022.2.2,Win32,60.19020104,,,,,,,,,,,,,,,,,,masks/mask_001.jpg,,,,,,,,,,,,,,,,,,,,,,,,,,,,,,,,,,,,,,,,,,,,,,,,0,3,3,0,1,,,,,,,,,,,,,,,,,,,,,,,,,,,,,,,,,,,,,,,,,
333135,001,2022-11-20_17h53.26.631,Info_measure_main_exp,2022.2.2,Win32,60.19020104,,,,,,,,,,,,,,,,,,masks/mask_003.jpg,,,,,,,,,,,,,,,,,,,,,,,,,,,,,,,,,,,,,,,,,,,,,,,,0,4,4,2,1,,,,,,,,,,,,,,,,,,,,,,,,,,,,,,,,,,,,,,,,,
333135,001,2022-11-20_17h53.26.631,Info_measure_main_exp,2022.2.2,Win32,60.19020104,,,,,,,,,,,,,,,,,,,,,,,,,,,,,,6,0.7148,1,,,,,,,,,,,,0,131,5,5,1974,2250,absent_patch/patch0001974.jpg,absent_patch/patch0002250.jpg,,,,,,,,,,,,,,,,,,,,0.117592635,0.035185178,1,0,0,response1disk,5,-0.001851824,-0.002777771,1,0,0,center_square,0,4,4,55,1,,,,,,,,,,,,,,,,,,,,,,,
333135,001,2022-11-20_17h53.26.631,Info_measure_main_exp,2022.2.2,Win32,60.19020104,,,,,,,,,,,,,,,,,,masks/mask_004.jpg,,,,,,,,,,,,,,,,,,,,,,,,,,,,,,,,,,,,,,,,,,,0,0,0,3,1,,,,,,,,,,,,,,,,,,,,,,,,,,,,,,,,,,,,,,,,,,,,,,
333135,001,2022-11-20_17h53.26.631,Info_measure_main_exp,2022.2.2,Win32,60.19020104,,,,,,,,,,,,,,,,,,masks/mask_005.jpg,,,,,,,,,,,,,,,,,,,,,,,,,,,,,,,,,,,,,,,,,,,0,1,1,4,1,,,,,,,,,,,,,,,,,,,,,,,,,,,,,,,,,,,,,,,,,,,,,,
333135,001,2022-11-20_17h53.26.631,Info_measure_main_exp,2022.2.2,Win32,60.19020104,,,,,,,,,,,,,,,,,,masks/mask_002.jpg,,,,,,,,,,,,,,,,,,,,,,,,,,,,,,,,,,,,,,,,,,,0,2,2,1,1,,,,,,,,,,,,,,,,,,,,,,,,,,,,,,,,,,,,,,,,,,,,,,
333135,001,2022-11-20_17h53.26.631,Info_measure_main_exp,2022.2.2,Win32,60.19020104,,,,,,,,,,,,,,,,,,masks/mask_001.jpg,,,,,,,,,,,,,,,,,,,,,,,,,,,,,,,,,,,,,,,,,,,0,3,3,0,1,,,,,,,,,,,,,,,,,,,,,,,,,,,,,,,,,,,,,,,,,,,,,,
333135,001,2022-11-20_17h53.26.631,Info_measure_main_exp,2022.2.2,Win32,60.19020104,,,,,,,,,,,,,,,,,,masks/mask_003.jpg,,,,,,,,,,,,,,,,,,,,,,,,,,,,,,,,,,,,,,,,,,,0,4,4,2,1,,,,,,,,,,,,,,,,,,,,,,,,,,,,,,,,,,,,,,,,,,,,,,
333135,001,2022-11-20_17h53.26.631,Info_measure_main_exp,2022.2.2,Win32,60.19020104,,,,,,,,,,,,,,,,,,masks/mask_001.jpg,,,,,,,,,,,,,,,,,,,,,,,,,,,,,,,,,,,,,,,,,,,,,,,,0,0,0,0,1,,,,,,,,,,,,,,,,,,,,,,,,,,,,,,,,,,,,,,,,,
333135,001,2022-11-20_17h53.26.631,Info_measure_main_exp,2022.2.2,Win32,60.19020104,,,,,,,,,,,,,,,,,,masks/mask_005.jpg,,,,,,,,,,,,,,,,,,,,,,,,,,,,,,,,,,,,,,,,,,,,,,,,0,1,1,4,1,,,,,,,,,,,,,,,,,,,,,,,,,,,,,,,,,,,,,,,,,
333135,001,2022-11-20_17h53.26.631,Info_measure_main_exp,2022.2.2,Win32,60.19020104,,,,,,,,,,,,,,,,,,masks/mask_003.jpg,,,,,,,,,,,,,,,,,,,,,,,,,,,,,,,,,,,,,,,,,,,,,,,,0,2,2,2,1,,,,,,,,,,,,,,,,,,,,,,,,,,,,,,,,,,,,,,,,,
333135,001,2022-11-20_17h53.26.631,Info_measure_main_exp,2022.2.2,Win32,60.19020104,,,,,,,,,,,,,,,,,,masks/mask_002.jpg,,,,,,,,,,,,,,,,,,,,,,,,,,,,,,,,,,,,,,,,,,,,,,,,0,3,3,1,1,,,,,,,,,,,,,,,,,,,,,,,,,,,,,,,,,,,,,,,,,
333135,001,2022-11-20_17h53.26.631,Info_measure_main_exp,2022.2.2,Win32,60.19020104,,,,,,,,,,,,,,,,,,masks/mask_004.jpg,,,,,,,,,,,,,,,,,,,,,,,,,,,,,,,,,,,,,,,,,,,,,,,,0,4,4,3,1,,,,,,,,,,,,,,,,,,,,,,,,,,,,,,,,,,,,,,,,,
333135,001,2022-11-20_17h53.26.631,Info_measure_main_exp,2022.2.2,Win32,60.19020104,,,,,,,,,,,,,,,,,,,,,,,,,,,,,,6,1.8448,1,,,,,,,,,,,,1,131,5,5,2190,1,absent_patch/patch0002190.jpg,present_patch/cong_131_5_a.jpg,,,,,,,,,,,,,,,,,,,,0.098148134,0.030555548,1,0,0,response1disk,6,-0.00462963,0.014814801,1,0,0,center_square,0,5,5,64,1,,,,,,,,,,,,,,,,,,,,,,,
333135,001,2022-11-20_17h53.26.631,Info_measure_main_exp,2022.2.2,Win32,60.19020104,,,,,,,,,,,,,,,,,,masks/mask_005.jpg,,,,,,,,,,,,,,,,,,,,,,,,,,,,,,,,,,,,,,,,,,,0,0,0,4,1,,,,,,,,,,,,,,,,,,,,,,,,,,,,,,,,,,,,,,,,,,,,,,
333135,001,2022-11-20_17h53.26.631,Info_measure_main_exp,2022.2.2,Win32,60.19020104,,,,,,,,,,,,,,,,,,masks/mask_004.jpg,,,,,,,,,,,,,,,,,,,,,,,,,,,,,,,,,,,,,,,,,,,0,1,1,3,1,,,,,,,,,,,,,,,,,,,,,,,,,,,,,,,,,,,,,,,,,,,,,,
333135,001,2022-11-20_17h53.26.631,Info_measure_main_exp,2022.2.2,Win32,60.19020104,,,,,,,,,,,,,,,,,,masks/mask_001.jpg,,,,,,,,,,,,,,,,,,,,,,,,,,,,,,,,,,,,,,,,,,,0,2,2,0,1,,,,,,,,,,,,,,,,,,,,,,,,,,,,,,,,,,,,,,,,,,,,,,
333135,001,2022-11-20_17h53.26.631,Info_measure_main_exp,2022.2.2,Win32,60.19020104,,,,,,,,,,,,,,,,,,masks/mask_003.jpg,,,,,,,,,,,,,,,,,,,,,,,,,,,,,,,,,,,,,,,,,,,0,3,3,2,1,,,,,,,,,,,,,,,,,,,,,,,,,,,,,,,,,,,,,,,,,,,,,,
333135,001,2022-11-20_17h53.26.631,Info_measure_main_exp,2022.2.2,Win32,60.19020104,,,,,,,,,,,,,,,,,,masks/mask_002.jpg,,,,,,,,,,,,,,,,,,,,,,,,,,,,,,,,,,,,,,,,,,,0,4,4,1,1,,,,,,,,,,,,,,,,,,,,,,,,,,,,,,,,,,,,,,,,,,,,,,
333135,001,2022-11-20_17h53.26.631,Info_measure_main_exp,2022.2.2,Win32,60.19020104,,,,,,,,,,,,,,,,,,masks/mask_001.jpg,,,,,,,,,,,,,,,,,,,,,,,,,,,,,,,,,,,,,,,,,,,,,,,,0,0,0,0,1,,,,,,,,,,,,,,,,,,,,,,,,,,,,,,,,,,,,,,,,,
333135,001,2022-11-20_17h53.26.631,Info_measure_main_exp,2022.2.2,Win32,60.19020104,,,,,,,,,,,,,,,,,,masks/mask_002.jpg,,,,,,,,,,,,,,,,,,,,,,,,,,,,,,,,,,,,,,,,,,,,,,,,0,1,1,1,1,,,,,,,,,,,,,,,,,,,,,,,,,,,,,,,,,,,,,,,,,
333135,001,2022-11-20_17h53.26.631,Info_measure_main_exp,2022.2.2,Win32,60.19020104,,,,,,,,,,,,,,,,,,masks/mask_005.jpg,,,,,,,,,,,,,,,,,,,,,,,,,,,,,,,,,,,,,,,,,,,,,,,,0,2,2,4,1,,,,,,,,,,,,,,,,,,,,,,,,,,,,,,,,,,,,,,,,,
333135,001,2022-11-20_17h53.26.631,Info_measure_main_exp,2022.2.2,Win32,60.19020104,,,,,,,,,,,,,,,,,,masks/mask_003.jpg,,,,,,,,,,,,,,,,,,,,,,,,,,,,,,,,,,,,,,,,,,,,,,,,0,3,3,2,1,,,,,,,,,,,,,,,,,,,,,,,,,,,,,,,,,,,,,,,,,
333135,001,2022-11-20_17h53.26.631,Info_measure_main_exp,2022.2.2,Win32,60.19020104,,,,,,,,,,,,,,,,,,masks/mask_004.jpg,,,,,,,,,,,,,,,,,,,,,,,,,,,,,,,,,,,,,,,,,,,,,,,,0,4,4,3,1,,,,,,,,,,,,,,,,,,,,,,,,,,,,,,,,,,,,,,,,,
333135,001,2022-11-20_17h53.26.631,Info_measure_main_exp,2022.2.2,Win32,60.19020104,,,,,,,,,,,,,,,,,,,,,,,,,,,,,,7,1.1803,1,,,,,,,,,,,,0,131,5,5,1974,2166,absent_patch/patch0001974.jpg,absent_patch/patch0002166.jpg,,,,,,,,,,,,,,,,,,,,0.070370356,0.118518511,1,0,0,response1disk,7,0.001851894,-0.00462963,1,0,0,center_square,0,6,6,77,1,,,,,,,,,,,,,,,,,,,,,,,
333135,001,2022-11-20_17h53.26.631,Info_measure_main_exp,2022.2.2,Win32,60.19020104,,,,,,,,,,,,,,,,,,masks/mask_002.jpg,,,,,,,,,,,,,,,,,,,,,,,,,,,,,,,,,,,,,,,,,,,0,0,0,1,1,,,,,,,,,,,,,,,,,,,,,,,,,,,,,,,,,,,,,,,,,,,,,,
333135,001,2022-11-20_17h53.26.631,Info_measure_main_exp,2022.2.2,Win32,60.19020104,,,,,,,,,,,,,,,,,,masks/mask_005.jpg,,,,,,,,,,,,,,,,,,,,,,,,,,,,,,,,,,,,,,,,,,,0,1,1,4,1,,,,,,,,,,,,,,,,,,,,,,,,,,,,,,,,,,,,,,,,,,,,,,
333135,001,2022-11-20_17h53.26.631,Info_measure_main_exp,2022.2.2,Win32,60.19020104,,,,,,,,,,,,,,,,,,masks/mask_004.jpg,,,,,,,,,,,,,,,,,,,,,,,,,,,,,,,,,,,,,,,,,,,0,2,2,3,1,,,,,,,,,,,,,,,,,,,,,,,,,,,,,,,,,,,,,,,,,,,,,,
333135,001,2022-11-20_17h53.26.631,Info_measure_main_exp,2022.2.2,Win32,60.19020104,,,,,,,,,,,,,,,,,,masks/mask_003.jpg,,,,,,,,,,,,,,,,,,,,,,,,,,,,,,,,,,,,,,,,,,,0,3,3,2,1,,,,,,,,,,,,,,,,,,,,,,,,,,,,,,,,,,,,,,,,,,,,,,
333135,001,2022-11-20_17h53.26.631,Info_measure_main_exp,2022.2.2,Win32,60.19020104,,,,,,,,,,,,,,,,,,masks/mask_001.jpg,,,,,,,,,,,,,,,,,,,,,,,,,,,,,,,,,,,,,,,,,,,0,4,4,0,1,,,,,,,,,,,,,,,,,,,,,,,,,,,,,,,,,,,,,,,,,,,,,,
333135,001,2022-11-20_17h53.26.631,Info_measure_main_exp,2022.2.2,Win32,60.19020104,,,,,,,,,,,,,,,,,,masks/mask_001.jpg,,,,,,,,,,,,,,,,,,,,,,,,,,,,,,,,,,,,,,,,,,,,,,,,0,0,0,0,1,,,,,,,,,,,,,,,,,,,,,,,,,,,,,,,,,,,,,,,,,
333135,001,2022-11-20_17h53.26.631,Info_measure_main_exp,2022.2.2,Win32,60.19020104,,,,,,,,,,,,,,,,,,masks/mask_002.jpg,,,,,,,,,,,,,,,,,,,,,,,,,,,,,,,,,,,,,,,,,,,,,,,,0,1,1,1,1,,,,,,,,,,,,,,,,,,,,,,,,,,,,,,,,,,,,,,,,,
333135,001,2022-11-20_17h53.26.631,Info_measure_main_exp,2022.2.2,Win32,60.19020104,,,,,,,,,,,,,,,,,,masks/mask_003.jpg,,,,,,,,,,,,,,,,,,,,,,,,,,,,,,,,,,,,,,,,,,,,,,,,0,2,2,2,1,,,,,,,,,,,,,,,,,,,,,,,,,,,,,,,,,,,,,,,,,
333135,001,2022-11-20_17h53.26.631,Info_measure_main_exp,2022.2.2,Win32,60.19020104,,,,,,,,,,,,,,,,,,masks/mask_004.jpg,,,,,,,,,,,,,,,,,,,,,,,,,,,,,,,,,,,,,,,,,,,,,,,,0,3,3,3,1,,,,,,,,,,,,,,,,,,,,,,,,,,,,,,,,,,,,,,,,,
333135,001,2022-11-20_17h53.26.631,Info_measure_main_exp,2022.2.2,Win32,60.19020104,,,,,,,,,,,,,,,,,,masks/mask_005.jpg,,,,,,,,,,,,,,,,,,,,,,,,,,,,,,,,,,,,,,,,,,,,,,,,0,4,4,4,1,,,,,,,,,,,,,,,,,,,,,,,,,,,,,,,,,,,,,,,,,
333135,001,2022-11-20_17h53.26.631,Info_measure_main_exp,2022.2.2,Win32,60.19020104,,,,,,,,,,,,,,,,,,,,,,,,,,,,,,4,1.197,1,,,,,,,,,,,,0,131,5,5,2250,1950,absent_patch/patch0002250.jpg,absent_patch/patch0001950.jpg,,,,,,,,,,,,,,,,,,,,0.02870369,-0.099074116,1,0,0,response3disk,8,0.010185171,0.003703683,1,0,0,center_square,0,7,7,16,1,,,,,,,,,,,,,,,,,,,,,,,
333135,001,2022-11-20_17h53.26.631,Info_measure_main_exp,2022.2.2,Win32,60.19020104,,,,,,,,,,,,,,,,,,masks/mask_003.jpg,,,,,,,,,,,,,,,,,,,,,,,,,,,,,,,,,,,,,,,,,,,0,0,0,2,1,,,,,,,,,,,,,,,,,,,,,,,,,,,,,,,,,,,,,,,,,,,,,,
333135,001,2022-11-20_17h53.26.631,Info_measure_main_exp,2022.2.2,Win32,60.19020104,,,,,,,,,,,,,,,,,,masks/mask_002.jpg,,,,,,,,,,,,,,,,,,,,,,,,,,,,,,,,,,,,,,,,,,,0,1,1,1,1,,,,,,,,,,,,,,,,,,,,,,,,,,,,,,,,,,,,,,,,,,,,,,
333135,001,2022-11-20_17h53.26.631,Info_measure_main_exp,2022.2.2,Win32,60.19020104,,,,,,,,,,,,,,,,,,masks/mask_001.jpg,,,,,,,,,,,,,,,,,,,,,,,,,,,,,,,,,,,,,,,,,,,0,2,2,0,1,,,,,,,,,,,,,,,,,,,,,,,,,,,,,,,,,,,,,,,,,,,,,,
333135,001,2022-11-20_17h53.26.631,Info_measure_main_exp,2022.2.2,Win32,60.19020104,,,,,,,,,,,,,,,,,,masks/mask_004.jpg,,,,,,,,,,,,,,,,,,,,,,,,,,,,,,,,,,,,,,,,,,,0,3,3,3,1,,,,,,,,,,,,,,,,,,,,,,,,,,,,,,,,,,,,,,,,,,,,,,
333135,001,2022-11-20_17h53.26.631,Info_measure_main_exp,2022.2.2,Win32,60.19020104,,,,,,,,,,,,,,,,,,masks/mask_005.jpg,,,,,,,,,,,,,,,,,,,,,,,,,,,,,,,,,,,,,,,,,,,0,4,4,4,1,,,,,,,,,,,,,,,,,,,,,,,,,,,,,,,,,,,,,,,,,,,,,,
333135,001,2022-11-20_17h53.26.631,Info_measure_main_exp,2022.2.2,Win32,60.19020104,,,,,,,,,,,,,,,,,,masks/mask_002.jpg,,,,,,,,,,,,,,,,,,,,,,,,,,,,,,,,,,,,,,,,,,,,,,,,0,0,0,1,1,,,,,,,,,,,,,,,,,,,,,,,,,,,,,,,,,,,,,,,,,
333135,001,2022-11-20_17h53.26.631,Info_measure_main_exp,2022.2.2,Win32,60.19020104,,,,,,,,,,,,,,,,,,masks/mask_004.jpg,,,,,,,,,,,,,,,,,,,,,,,,,,,,,,,,,,,,,,,,,,,,,,,,0,1,1,3,1,,,,,,,,,,,,,,,,,,,,,,,,,,,,,,,,,,,,,,,,,
333135,001,2022-11-20_17h53.26.631,Info_measure_main_exp,2022.2.2,Win32,60.19020104,,,,,,,,,,,,,,,,,,masks/mask_005.jpg,,,,,,,,,,,,,,,,,,,,,,,,,,,,,,,,,,,,,,,,,,,,,,,,0,2,2,4,1,,,,,,,,,,,,,,,,,,,,,,,,,,,,,,,,,,,,,,,,,
333135,001,2022-11-20_17h53.26.631,Info_measure_main_exp,2022.2.2,Win32,60.19020104,,,,,,,,,,,,,,,,,,masks/mask_001.jpg,,,,,,,,,,,,,,,,,,,,,,,,,,,,,,,,,,,,,,,,,,,,,,,,0,3,3,0,1,,,,,,,,,,,,,,,,,,,,,,,,,,,,,,,,,,,,,,,,,
333135,001,2022-11-20_17h53.26.631,Info_measure_main_exp,2022.2.2,Win32,60.19020104,,,,,,,,,,,,,,,,,,masks/mask_003.jpg,,,,,,,,,,,,,,,,,,,,,,,,,,,,,,,,,,,,,,,,,,,,,,,,0,4,4,2,1,,,,,,,,,,,,,,,,,,,,,,,,,,,,,,,,,,,,,,,,,
333135,001,2022-11-20_17h53.26.631,Info_measure_main_exp,2022.2.2,Win32,60.19020104,,,,,,,,,,,,,,,,,,,,,,,,,,,,,,2,1.0806,1,,,,,,,,,,,,0,131,5,5,2298,2190,absent_patch/patch0002298.jpg,absent_patch/patch0002190.jpg,,,,,,,,,,,,,,,,,,,,-0.127777735,-0.060185185,1,0,0,response5disk,9,-0.000925912,-0.000925947,1,0,0,center_square,0,8,8,20,1,,,,,,,,,,,,,,,,,,,,,,,
333135,001,2022-11-20_17h53.26.631,Info_measure_main_exp,2022.2.2,Win32,60.19020104,,,,,,,,,,,,,,,,,,masks/mask_002.jpg,,,,,,,,,,,,,,,,,,,,,,,,,,,,,,,,,,,,,,,,,,,0,0,0,1,1,,,,,,,,,,,,,,,,,,,,,,,,,,,,,,,,,,,,,,,,,,,,,,
333135,001,2022-11-20_17h53.26.631,Info_measure_main_exp,2022.2.2,Win32,60.19020104,,,,,,,,,,,,,,,,,,masks/mask_004.jpg,,,,,,,,,,,,,,,,,,,,,,,,,,,,,,,,,,,,,,,,,,,0,1,1,3,1,,,,,,,,,,,,,,,,,,,,,,,,,,,,,,,,,,,,,,,,,,,,,,
333135,001,2022-11-20_17h53.26.631,Info_measure_main_exp,2022.2.2,Win32,60.19020104,,,,,,,,,,,,,,,,,,masks/mask_001.jpg,,,,,,,,,,,,,,,,,,,,,,,,,,,,,,,,,,,,,,,,,,,0,2,2,0,1,,,,,,,,,,,,,,,,,,,,,,,,,,,,,,,,,,,,,,,,,,,,,,
333135,001,2022-11-20_17h53.26.631,Info_measure_main_exp,2022.2.2,Win32,60.19020104,,,,,,,,,,,,,,,,,,masks/mask_003.jpg,,,,,,,,,,,,,,,,,,,,,,,,,,,,,,,,,,,,,,,,,,,0,3,3,2,1,,,,,,,,,,,,,,,,,,,,,,,,,,,,,,,,,,,,,,,,,,,,,,
333135,001,2022-11-20_17h53.26.631,Info_measure_main_exp,2022.2.2,Win32,60.19020104,,,,,,,,,,,,,,,,,,masks/mask_005.jpg,,,,,,,,,,,,,,,,,,,,,,,,,,,,,,,,,,,,,,,,,,,0,4,4,4,1,,,,,,,,,,,,,,,,,,,,,,,,,,,,,,,,,,,,,,,,,,,,,,
333135,001,2022-11-20_17h53.26.631,Info_measure_main_exp,2022.2.2,Win32,60.19020104,,,,,,,,,,,,,,,,,,masks/mask_002.jpg,,,,,,,,,,,,,,,,,,,,,,,,,,,,,,,,,,,,,,,,,,,,,,,,0,0,0,1,1,,,,,,,,,,,,,,,,,,,,,,,,,,,,,,,,,,,,,,,,,
333135,001,2022-11-20_17h53.26.631,Info_measure_main_exp,2022.2.2,Win32,60.19020104,,,,,,,,,,,,,,,,,,masks/mask_001.jpg,,,,,,,,,,,,,,,,,,,,,,,,,,,,,,,,,,,,,,,,,,,,,,,,0,1,1,0,1,,,,,,,,,,,,,,,,,,,,,,,,,,,,,,,,,,,,,,,,,
333135,001,2022-11-20_17h53.26.631,Info_measure_main_exp,2022.2.2,Win32,60.19020104,,,,,,,,,,,,,,,,,,masks/mask_005.jpg,,,,,,,,,,,,,,,,,,,,,,,,,,,,,,,,,,,,,,,,,,,,,,,,0,2,2,4,1,,,,,,,,,,,,,,,,,,,,,,,,,,,,,,,,,,,,,,,,,
333135,001,2022-11-20_17h53.26.631,Info_measure_main_exp,2022.2.2,Win32,60.19020104,,,,,,,,,,,,,,,,,,masks/mask_004.jpg,,,,,,,,,,,,,,,,,,,,,,,,,,,,,,,,,,,,,,,,,,,,,,,,0,3,3,3,1,,,,,,,,,,,,,,,,,,,,,,,,,,,,,,,,,,,,,,,,,
333135,001,2022-11-20_17h53.26.631,Info_measure_main_exp,2022.2.2,Win32,60.19020104,,,,,,,,,,,,,,,,,,masks/mask_003.jpg,,,,,,,,,,,,,,,,,,,,,,,,,,,,,,,,,,,,,,,,,,,,,,,,0,4,4,2,1,,,,,,,,,,,,,,,,,,,,,,,,,,,,,,,,,,,,,,,,,
333135,001,2022-11-20_17h53.26.631,Info_measure_main_exp,2022.2.2,Win32,60.19020104,,,,,,,,,,,,,,,,,,,,,,,,,,,,,,7,0.8974,1,,,,,,,,,,,,0,131,5,5,1950,2214,absent_patch/patch0001950.jpg,absent_patch/patch0002214.jpg,,,,,,,,,,,,,,,,,,,,0.067592621,0.125,1,0,0,response1disk,10,0.00462963,0.002777771,1,0,0,center_square,0,9,9,85,1,,,,,,,,,,,,,,,,,,,,,,,
333135,001,2022-11-20_17h53.26.631,Info_measure_main_exp,2022.2.2,Win32,60.19020104,,,,,,,,,,,,,,,,,,masks/mask_004.jpg,,,,,,,,,,,,,,,,,,,,,,,,,,,,,,,,,,,,,,,,,,,0,0,0,3,1,,,,,,,,,,,,,,,,,,,,,,,,,,,,,,,,,,,,,,,,,,,,,,
333135,001,2022-11-20_17h53.26.631,Info_measure_main_exp,2022.2.2,Win32,60.19020104,,,,,,,,,,,,,,,,,,masks/mask_003.jpg,,,,,,,,,,,,,,,,,,,,,,,,,,,,,,,,,,,,,,,,,,,0,1,1,2,1,,,,,,,,,,,,,,,,,,,,,,,,,,,,,,,,,,,,,,,,,,,,,,
333135,001,2022-11-20_17h53.26.631,Info_measure_main_exp,2022.2.2,Win32,60.19020104,,,,,,,,,,,,,,,,,,masks/mask_005.jpg,,,,,,,,,,,,,,,,,,,,,,,,,,,,,,,,,,,,,,,,,,,0,2,2,4,1,,,,,,,,,,,,,,,,,,,,,,,,,,,,,,,,,,,,,,,,,,,,,,
333135,001,2022-11-20_17h53.26.631,Info_measure_main_exp,2022.2.2,Win32,60.19020104,,,,,,,,,,,,,,,,,,masks/mask_002.jpg,,,,,,,,,,,,,,,,,,,,,,,,,,,,,,,,,,,,,,,,,,,0,3,3,1,1,,,,,,,,,,,,,,,,,,,,,,,,,,,,,,,,,,,,,,,,,,,,,,
333135,001,2022-11-20_17h53.26.631,Info_measure_main_exp,2022.2.2,Win32,60.19020104,,,,,,,,,,,,,,,,,,masks/mask_001.jpg,,,,,,,,,,,,,,,,,,,,,,,,,,,,,,,,,,,,,,,,,,,0,4,4,0,1,,,,,,,,,,,,,,,,,,,,,,,,,,,,,,,,,,,,,,,,,,,,,,
333135,001,2022-11-20_17h53.26.631,Info_measure_main_exp,2022.2.2,Win32,60.19020104,,,,,,,,,,,,,,,,,,masks/mask_004.jpg,,,,,,,,,,,,,,,,,,,,,,,,,,,,,,,,,,,,,,,,,,,,,,,,0,0,0,3,1,,,,,,,,,,,,,,,,,,,,,,,,,,,,,,,,,,,,,,,,,
333135,001,2022-11-20_17h53.26.631,Info_measure_main_exp,2022.2.2,Win32,60.19020104,,,,,,,,,,,,,,,,,,masks/mask_002.jpg,,,,,,,,,,,,,,,,,,,,,,,,,,,,,,,,,,,,,,,,,,,,,,,,0,1,1,1,1,,,,,,,,,,,,,,,,,,,,,,,,,,,,,,,,,,,,,,,,,
333135,001,2022-11-20_17h53.26.631,Info_measure_main_exp,2022.2.2,Win32,60.19020104,,,,,,,,,,,,,,,,,,masks/mask_003.jpg,,,,,,,,,,,,,,,,,,,,,,,,,,,,,,,,,,,,,,,,,,,,,,,,0,2,2,2,1,,,,,,,,,,,,,,,,,,,,,,,,,,,,,,,,,,,,,,,,,
333135,001,2022-11-20_17h53.26.631,Info_measure_main_exp,2022.2.2,Win32,60.19020104,,,,,,,,,,,,,,,,,,masks/mask_001.jpg,,,,,,,,,,,,,,,,,,,,,,,,,,,,,,,,,,,,,,,,,,,,,,,,0,3,3,0,1,,,,,,,,,,,,,,,,,,,,,,,,,,,,,,,,,,,,,,,,,
333135,001,2022-11-20_17h53.26.631,Info_measure_main_exp,2022.2.2,Win32,60.19020104,,,,,,,,,,,,,,,,,,masks/mask_005.jpg,,,,,,,,,,,,,,,,,,,,,,,,,,,,,,,,,,,,,,,,,,,,,,,,0,4,4,4,1,,,,,,,,,,,,,,,,,,,,,,,,,,,,,,,,,,,,,,,,,
333135,001,2022-11-20_17h53.26.631,Info_measure_main_exp,2022.2.2,Win32,60.19020104,,,,,,,,,,,,,,,,,,,,,,,,,,,,,,6,6.6807,1,,,,,,,,,,,,0,131,5,5,2154,1974,absent_patch/patch0002154.jpg,absent_patch/patch0001974.jpg,,,,,,,,,,,,,,,,,,,,0.113888917,0.068518497,1,0,0,response1disk,11,-0.006481453,-0.0074074,1,0,0,center_square,0,10,10,82,1,,,,,,,,,,,,,,,,,,,,,,,
333135,001,2022-11-20_17h53.26.631,Info_measure_main_exp,2022.2.2,Win32,60.19020104,,,,,,,,,,,,,,,,,,masks/mask_004.jpg,,,,,,,,,,,,,,,,,,,,,,,,,,,,,,,,,,,,,,,,,,,0,0,0,3,1,,,,,,,,,,,,,,,,,,,,,,,,,,,,,,,,,,,,,,,,,,,,,,
333135,001,2022-11-20_17h53.26.631,Info_measure_main_exp,2022.2.2,Win32,60.19020104,,,,,,,,,,,,,,,,,,masks/mask_002.jpg,,,,,,,,,,,,,,,,,,,,,,,,,,,,,,,,,,,,,,,,,,,0,1,1,1,1,,,,,,,,,,,,,,,,,,,,,,,,,,,,,,,,,,,,,,,,,,,,,,
333135,001,2022-11-20_17h53.26.631,Info_measure_main_exp,2022.2.2,Win32,60.19020104,,,,,,,,,,,,,,,,,,masks/mask_003.jpg,,,,,,,,,,,,,,,,,,,,,,,,,,,,,,,,,,,,,,,,,,,0,2,2,2,1,,,,,,,,,,,,,,,,,,,,,,,,,,,,,,,,,,,,,,,,,,,,,,
333135,001,2022-11-20_17h53.26.631,Info_measure_main_exp,2022.2.2,Win32,60.19020104,,,,,,,,,,,,,,,,,,masks/mask_005.jpg,,,,,,,,,,,,,,,,,,,,,,,,,,,,,,,,,,,,,,,,,,,0,3,3,4,1,,,,,,,,,,,,,,,,,,,,,,,,,,,,,,,,,,,,,,,,,,,,,,
333135,001,2022-11-20_17h53.26.631,Info_measure_main_exp,2022.2.2,Win32,60.19020104,,,,,,,,,,,,,,,,,,masks/mask_001.jpg,,,,,,,,,,,,,,,,,,,,,,,,,,,,,,,,,,,,,,,,,,,0,4,4,0,1,,,,,,,,,,,,,,,,,,,,,,,,,,,,,,,,,,,,,,,,,,,,,,
333135,001,2022-11-20_17h53.26.631,Info_measure_main_exp,2022.2.2,Win32,60.19020104,,,,,,,,,,,,,,,,,,masks/mask_005.jpg,,,,,,,,,,,,,,,,,,,,,,,,,,,,,,,,,,,,,,,,,,,,,,,,0,0,0,4,1,,,,,,,,,,,,,,,,,,,,,,,,,,,,,,,,,,,,,,,,,
333135,001,2022-11-20_17h53.26.631,Info_measure_main_exp,2022.2.2,Win32,60.19020104,,,,,,,,,,,,,,,,,,masks/mask_004.jpg,,,,,,,,,,,,,,,,,,,,,,,,,,,,,,,,,,,,,,,,,,,,,,,,0,1,1,3,1,,,,,,,,,,,,,,,,,,,,,,,,,,,,,,,,,,,,,,,,,
333135,001,2022-11-20_17h53.26.631,Info_measure_main_exp,2022.2.2,Win32,60.19020104,,,,,,,,,,,,,,,,,,masks/mask_002.jpg,,,,,,,,,,,,,,,,,,,,,,,,,,,,,,,,,,,,,,,,,,,,,,,,0,2,2,1,1,,,,,,,,,,,,,,,,,,,,,,,,,,,,,,,,,,,,,,,,,
333135,001,2022-11-20_17h53.26.631,Info_measure_main_exp,2022.2.2,Win32,60.19020104,,,,,,,,,,,,,,,,,,masks/mask_001.jpg,,,,,,,,,,,,,,,,,,,,,,,,,,,,,,,,,,,,,,,,,,,,,,,,0,3,3,0,1,,,,,,,,,,,,,,,,,,,,,,,,,,,,,,,,,,,,,,,,,
333135,001,2022-11-20_17h53.26.631,Info_measure_main_exp,2022.2.2,Win32,60.19020104,,,,,,,,,,,,,,,,,,masks/mask_003.jpg,,,,,,,,,,,,,,,,,,,,,,,,,,,,,,,,,,,,,,,,,,,,,,,,0,4,4,2,1,,,,,,,,,,,,,,,,,,,,,,,,,,,,,,,,,,,,,,,,,
333135,001,2022-11-20_17h53.26.631,Info_measure_main_exp,2022.2.2,Win32,60.19020104,,,,,,,,,,,,,,,,,,,,,,,,,,,,,,7,1.0305,1,,,,,,,,,,,,0,131,5,5,2166,2154,absent_patch/patch0002166.jpg,absent_patch/patch0002154.jpg,,,,,,,,,,,,,,,,,,,,0.062037079,0.100925905,1,0,0,response1disk,12,0.000925912,0.012962942,1,0,0,center_square,0,11,11,79,1,,,,,,,,,,,,,,,,,,,,,,,
333135,001,2022-11-20_17h53.26.631,Info_measure_main_exp,2022.2.2,Win32,60.19020104,,,,,,,,,,,,,,,,,,masks/mask_004.jpg,,,,,,,,,,,,,,,,,,,,,,,,,,,,,,,,,,,,,,,,,,,0,0,0,3,1,,,,,,,,,,,,,,,,,,,,,,,,,,,,,,,,,,,,,,,,,,,,,,
333135,001,2022-11-20_17h53.26.631,Info_measure_main_exp,2022.2.2,Win32,60.19020104,,,,,,,,,,,,,,,,,,masks/mask_001.jpg,,,,,,,,,,,,,,,,,,,,,,,,,,,,,,,,,,,,,,,,,,,0,1,1,0,1,,,,,,,,,,,,,,,,,,,,,,,,,,,,,,,,,,,,,,,,,,,,,,
333135,001,2022-11-20_17h53.26.631,Info_measure_main_exp,2022.2.2,Win32,60.19020104,,,,,,,,,,,,,,,,,,masks/mask_003.jpg,,,,,,,,,,,,,,,,,,,,,,,,,,,,,,,,,,,,,,,,,,,0,2,2,2,1,,,,,,,,,,,,,,,,,,,,,,,,,,,,,,,,,,,,,,,,,,,,,,
333135,001,2022-11-20_17h53.26.631,Info_measure_main_exp,2022.2.2,Win32,60.19020104,,,,,,,,,,,,,,,,,,masks/mask_002.jpg,,,,,,,,,,,,,,,,,,,,,,,,,,,,,,,,,,,,,,,,,,,0,3,3,1,1,,,,,,,,,,,,,,,,,,,,,,,,,,,,,,,,,,,,,,,,,,,,,,
333135,001,2022-11-20_17h53.26.631,Info_measure_main_exp,2022.2.2,Win32,60.19020104,,,,,,,,,,,,,,,,,,masks/mask_005.jpg,,,,,,,,,,,,,,,,,,,,,,,,,,,,,,,,,,,,,,,,,,,0,4,4,4,1,,,,,,,,,,,,,,,,,,,,,,,,,,,,,,,,,,,,,,,,,,,,,,
333135,001,2022-11-20_17h53.26.631,Info_measure_main_exp,2022.2.2,Win32,60.19020104,,,,,,,,,,,,,,,,,,masks/mask_004.jpg,,,,,,,,,,,,,,,,,,,,,,,,,,,,,,,,,,,,,,,,,,,,,,,,0,0,0,3,1,,,,,,,,,,,,,,,,,,,,,,,,,,,,,,,,,,,,,,,,,
333135,001,2022-11-20_17h53.26.631,Info_measure_main_exp,2022.2.2,Win32,60.19020104,,,,,,,,,,,,,,,,,,masks/mask_005.jpg,,,,,,,,,,,,,,,,,,,,,,,,,,,,,,,,,,,,,,,,,,,,,,,,0,1,1,4,1,,,,,,,,,,,,,,,,,,,,,,,,,,,,,,,,,,,,,,,,,
333135,001,2022-11-20_17h53.26.631,Info_measure_main_exp,2022.2.2,Win32,60.19020104,,,,,,,,,,,,,,,,,,masks/mask_003.jpg,,,,,,,,,,,,,,,,,,,,,,,,,,,,,,,,,,,,,,,,,,,,,,,,0,2,2,2,1,,,,,,,,,,,,,,,,,,,,,,,,,,,,,,,,,,,,,,,,,
333135,001,2022-11-20_17h53.26.631,Info_measure_main_exp,2022.2.2,Win32,60.19020104,,,,,,,,,,,,,,,,,,masks/mask_001.jpg,,,,,,,,,,,,,,,,,,,,,,,,,,,,,,,,,,,,,,,,,,,,,,,,0,3,3,0,1,,,,,,,,,,,,,,,,,,,,,,,,,,,,,,,,,,,,,,,,,
333135,001,2022-11-20_17h53.26.631,Info_measure_main_exp,2022.2.2,Win32,60.19020104,,,,,,,,,,,,,,,,,,masks/mask_002.jpg,,,,,,,,,,,,,,,,,,,,,,,,,,,,,,,,,,,,,,,,,,,,,,,,0,4,4,1,1,,,,,,,,,,,,,,,,,,,,,,,,,,,,,,,,,,,,,,,,,
333135,001,2022-11-20_17h53.26.631,Info_measure_main_exp,2022.2.2,Win32,60.19020104,,,,,,,,,,,,,,,,,,,,,,,,,,,,,,7,7.1312,1,,,,,,,,,,,,0,131,5,5,2298,2274,absent_patch/patch0002298.jpg,absent_patch/patch0002274.jpg,,,,,,,,,,,,,,,,,,,,0.078703704,0.118518511,1,0,0,response1disk,13,0.012037065,0.003703683,1,0,0,center_square,0,12,12,1,1,,,,,,,,,,,,,,,,,,,,,,,
333135,001,2022-11-20_17h53.26.631,Info_measure_main_exp,2022.2.2,Win32,60.19020104,,,,,,,,,,,,,,,,,,masks/mask_005.jpg,,,,,,,,,,,,,,,,,,,,,,,,,,,,,,,,,,,,,,,,,,,0,0,0,4,1,,,,,,,,,,,,,,,,,,,,,,,,,,,,,,,,,,,,,,,,,,,,,,
333135,001,2022-11-20_17h53.26.631,Info_measure_main_exp,2022.2.2,Win32,60.19020104,,,,,,,,,,,,,,,,,,masks/mask_003.jpg,,,,,,,,,,,,,,,,,,,,,,,,,,,,,,,,,,,,,,,,,,,0,1,1,2,1,,,,,,,,,,,,,,,,,,,,,,,,,,,,,,,,,,,,,,,,,,,,,,
333135,001,2022-11-20_17h53.26.631,Info_measure_main_exp,2022.2.2,Win32,60.19020104,,,,,,,,,,,,,,,,,,masks/mask_001.jpg,,,,,,,,,,,,,,,,,,,,,,,,,,,,,,,,,,,,,,,,,,,0,2,2,0,1,,,,,,,,,,,,,,,,,,,,,,,,,,,,,,,,,,,,,,,,,,,,,,
333135,001,2022-11-20_17h53.26.631,Info_measure_main_exp,2022.2.2,Win32,60.19020104,,,,,,,,,,,,,,,,,,masks/mask_004.jpg,,,,,,,,,,,,,,,,,,,,,,,,,,,,,,,,,,,,,,,,,,,0,3,3,3,1,,,,,,,,,,,,,,,,,,,,,,,,,,,,,,,,,,,,,,,,,,,,,,
333135,001,2022-11-20_17h53.26.631,Info_measure_main_exp,2022.2.2,Win32,60.19020104,,,,,,,,,,,,,,,,,,masks/mask_002.jpg,,,,,,,,,,,,,,,,,,,,,,,,,,,,,,,,,,,,,,,,,,,0,4,4,1,1,,,,,,,,,,,,,,,,,,,,,,,,,,,,,,,,,,,,,,,,,,,,,,
333135,001,2022-11-20_17h53.26.631,Info_measure_main_exp,2022.2.2,Win32,60.19020104,,,,,,,,,,,,,,,,,,masks/mask_004.jpg,,,,,,,,,,,,,,,,,,,,,,,,,,,,,,,,,,,,,,,,,,,,,,,,0,0,0,3,1,,,,,,,,,,,,,,,,,,,,,,,,,,,,,,,,,,,,,,,,,
333135,001,2022-11-20_17h53.26.631,Info_measure_main_exp,2022.2.2,Win32,60.19020104,,,,,,,,,,,,,,,,,,masks/mask_002.jpg,,,,,,,,,,,,,,,,,,,,,,,,,,,,,,,,,,,,,,,,,,,,,,,,0,1,1,1,1,,,,,,,,,,,,,,,,,,,,,,,,,,,,,,,,,,,,,,,,,
333135,001,2022-11-20_17h53.26.631,Info_measure_main_exp,2022.2.2,Win32,60.19020104,,,,,,,,,,,,,,,,,,masks/mask_005.jpg,,,,,,,,,,,,,,,,,,,,,,,,,,,,,,,,,,,,,,,,,,,,,,,,0,2,2,4,1,,,,,,,,,,,,,,,,,,,,,,,,,,,,,,,,,,,,,,,,,
333135,001,2022-11-20_17h53.26.631,Info_measure_main_exp,2022.2.2,Win32,60.19020104,,,,,,,,,,,,,,,,,,masks/mask_001.jpg,,,,,,,,,,,,,,,,,,,,,,,,,,,,,,,,,,,,,,,,,,,,,,,,0,3,3,0,1,,,,,,,,,,,,,,,,,,,,,,,,,,,,,,,,,,,,,,,,,
333135,001,2022-11-20_17h53.26.631,Info_measure_main_exp,2022.2.2,Win32,60.19020104,,,,,,,,,,,,,,,,,,masks/mask_003.jpg,,,,,,,,,,,,,,,,,,,,,,,,,,,,,,,,,,,,,,,,,,,,,,,,0,4,4,2,1,,,,,,,,,,,,,,,,,,,,,,,,,,,,,,,,,,,,,,,,,
333135,001,2022-11-20_17h53.26.631,Info_measure_main_exp,2022.2.2,Win32,60.19020104,,,,,,,,,,,,,,,,,,,,,,,,,,,,,,6,0.7313,1,,,,,,,,,,,,0,131,5,5,2274,2154,absent_patch/patch0002274.jpg,absent_patch/patch0002154.jpg,,,,,,,,,,,,,,,,,,,,0.10555557,0.061111097,1,0,0,response1disk,14,0.001851894,0.003703683,1,0,0,center_square,0,13,13,23,1,,,,,,,,,,,,,,,,,,,,,,,
333135,001,2022-11-20_17h53.26.631,Info_measure_main_exp,2022.2.2,Win32,60.19020104,,,,,,,,,,,,,,,,,,masks/mask_002.jpg,,,,,,,,,,,,,,,,,,,,,,,,,,,,,,,,,,,,,,,,,,,0,0,0,1,1,,,,,,,,,,,,,,,,,,,,,,,,,,,,,,,,,,,,,,,,,,,,,,
333135,001,2022-11-20_17h53.26.631,Info_measure_main_exp,2022.2.2,Win32,60.19020104,,,,,,,,,,,,,,,,,,masks/mask_003.jpg,,,,,,,,,,,,,,,,,,,,,,,,,,,,,,,,,,,,,,,,,,,0,1,1,2,1,,,,,,,,,,,,,,,,,,,,,,,,,,,,,,,,,,,,,,,,,,,,,,
333135,001,2022-11-20_17h53.26.631,Info_measure_main_exp,2022.2.2,Win32,60.19020104,,,,,,,,,,,,,,,,,,masks/mask_005.jpg,,,,,,,,,,,,,,,,,,,,,,,,,,,,,,,,,,,,,,,,,,,0,2,2,4,1,,,,,,,,,,,,,,,,,,,,,,,,,,,,,,,,,,,,,,,,,,,,,,
333135,001,2022-11-20_17h53.26.631,Info_measure_main_exp,2022.2.2,Win32,60.19020104,,,,,,,,,,,,,,,,,,masks/mask_001.jpg,,,,,,,,,,,,,,,,,,,,,,,,,,,,,,,,,,,,,,,,,,,0,3,3,0,1,,,,,,,,,,,,,,,,,,,,,,,,,,,,,,,,,,,,,,,,,,,,,,
333135,001,2022-11-20_17h53.26.631,Info_measure_main_exp,2022.2.2,Win32,60.19020104,,,,,,,,,,,,,,,,,,masks/mask_004.jpg,,,,,,,,,,,,,,,,,,,,,,,,,,,,,,,,,,,,,,,,,,,0,4,4,3,1,,,,,,,,,,,,,,,,,,,,,,,,,,,,,,,,,,,,,,,,,,,,,,
333135,001,2022-11-20_17h53.26.631,Info_measure_main_exp,2022.2.2,Win32,60.19020104,,,,,,,,,,,,,,,,,,masks/mask_001.jpg,,,,,,,,,,,,,,,,,,,,,,,,,,,,,,,,,,,,,,,,,,,,,,,,0,0,0,0,1,,,,,,,,,,,,,,,,,,,,,,,,,,,,,,,,,,,,,,,,,
333135,001,2022-11-20_17h53.26.631,Info_measure_main_exp,2022.2.2,Win32,60.19020104,,,,,,,,,,,,,,,,,,masks/mask_004.jpg,,,,,,,,,,,,,,,,,,,,,,,,,,,,,,,,,,,,,,,,,,,,,,,,0,1,1,3,1,,,,,,,,,,,,,,,,,,,,,,,,,,,,,,,,,,,,,,,,,
333135,001,2022-11-20_17h53.26.631,Info_measure_main_exp,2022.2.2,Win32,60.19020104,,,,,,,,,,,,,,,,,,masks/mask_002.jpg,,,,,,,,,,,,,,,,,,,,,,,,,,,,,,,,,,,,,,,,,,,,,,,,0,2,2,1,1,,,,,,,,,,,,,,,,,,,,,,,,,,,,,,,,,,,,,,,,,
333135,001,2022-11-20_17h53.26.631,Info_measure_main_exp,2022.2.2,Win32,60.19020104,,,,,,,,,,,,,,,,,,masks/mask_003.jpg,,,,,,,,,,,,,,,,,,,,,,,,,,,,,,,,,,,,,,,,,,,,,,,,0,3,3,2,1,,,,,,,,,,,,,,,,,,,,,,,,,,,,,,,,,,,,,,,,,
333135,001,2022-11-20_17h53.26.631,Info_measure_main_exp,2022.2.2,Win32,60.19020104,,,,,,,,,,,,,,,,,,masks/mask_005.jpg,,,,,,,,,,,,,,,,,,,,,,,,,,,,,,,,,,,,,,,,,,,,,,,,0,4,4,4,1,,,,,,,,,,,,,,,,,,,,,,,,,,,,,,,,,,,,,,,,,
333135,001,2022-11-20_17h53.26.631,Info_measure_main_exp,2022.2.2,Win32,60.19020104,,,,,,,,,,,,,,,,,,,,,,,,,,,,,,0,0.7814,1,,,,,,,,,,,,0,131,5,5,2178,2178,absent_patch/patch0002178.jpg,absent_patch/patch0002178.jpg,,,,,,,,,,,,,,,,,,,,-0.010185171,0.142592571,1,0,0,response7disk,15,0.000925912,0.012962942,1,0,0,center_square,0,14,14,98,1,,,,,,,,,,,,,,,,,,,,,,,
333135,001,2022-11-20_17h53.26.631,Info_measure_main_exp,2022.2.2,Win32,60.19020104,,,,,,,,,,,,,,,,,,masks/mask_004.jpg,,,,,,,,,,,,,,,,,,,,,,,,,,,,,,,,,,,,,,,,,,,0,0,0,3,1,,,,,,,,,,,,,,,,,,,,,,,,,,,,,,,,,,,,,,,,,,,,,,
333135,001,2022-11-20_17h53.26.631,Info_measure_main_exp,2022.2.2,Win32,60.19020104,,,,,,,,,,,,,,,,,,masks/mask_002.jpg,,,,,,,,,,,,,,,,,,,,,,,,,,,,,,,,,,,,,,,,,,,0,1,1,1,1,,,,,,,,,,,,,,,,,,,,,,,,,,,,,,,,,,,,,,,,,,,,,,
333135,001,2022-11-20_17h53.26.631,Info_measure_main_exp,2022.2.2,Win32,60.19020104,,,,,,,,,,,,,,,,,,masks/mask_001.jpg,,,,,,,,,,,,,,,,,,,,,,,,,,,,,,,,,,,,,,,,,,,0,2,2,0,1,,,,,,,,,,,,,,,,,,,,,,,,,,,,,,,,,,,,,,,,,,,,,,
333135,001,2022-11-20_17h53.26.631,Info_measure_main_exp,2022.2.2,Win32,60.19020104,,,,,,,,,,,,,,,,,,masks/mask_005.jpg,,,,,,,,,,,,,,,,,,,,,,,,,,,,,,,,,,,,,,,,,,,0,3,3,4,1,,,,,,,,,,,,,,,,,,,,,,,,,,,,,,,,,,,,,,,,,,,,,,
333135,001,2022-11-20_17h53.26.631,Info_measure_main_exp,2022.2.2,Win32,60.19020104,,,,,,,,,,,,,,,,,,masks/mask_003.jpg,,,,,,,,,,,,,,,,,,,,,,,,,,,,,,,,,,,,,,,,,,,0,4,4,2,1,,,,,,,,,,,,,,,,,,,,,,,,,,,,,,,,,,,,,,,,,,,,,,
333135,001,2022-11-20_17h53.26.631,Info_measure_main_exp,2022.2.2,Win32,60.19020104,,,,,,,,,,,,,,,,,,masks/mask_002.jpg,,,,,,,,,,,,,,,,,,,,,,,,,,,,,,,,,,,,,,,,,,,,,,,,0,0,0,1,1,,,,,,,,,,,,,,,,,,,,,,,,,,,,,,,,,,,,,,,,,
333135,001,2022-11-20_17h53.26.631,Info_measure_main_exp,2022.2.2,Win32,60.19020104,,,,,,,,,,,,,,,,,,masks/mask_004.jpg,,,,,,,,,,,,,,,,,,,,,,,,,,,,,,,,,,,,,,,,,,,,,,,,0,1,1,3,1,,,,,,,,,,,,,,,,,,,,,,,,,,,,,,,,,,,,,,,,,
333135,001,2022-11-20_17h53.26.631,Info_measure_main_exp,2022.2.2,Win32,60.19020104,,,,,,,,,,,,,,,,,,masks/mask_003.jpg,,,,,,,,,,,,,,,,,,,,,,,,,,,,,,,,,,,,,,,,,,,,,,,,0,2,2,2,1,,,,,,,,,,,,,,,,,,,,,,,,,,,,,,,,,,,,,,,,,
333135,001,2022-11-20_17h53.26.631,Info_measure_main_exp,2022.2.2,Win32,60.19020104,,,,,,,,,,,,,,,,,,masks/mask_001.jpg,,,,,,,,,,,,,,,,,,,,,,,,,,,,,,,,,,,,,,,,,,,,,,,,0,3,3,0,1,,,,,,,,,,,,,,,,,,,,,,,,,,,,,,,,,,,,,,,,,
333135,001,2022-11-20_17h53.26.631,Info_measure_main_exp,2022.2.2,Win32,60.19020104,,,,,,,,,,,,,,,,,,masks/mask_005.jpg,,,,,,,,,,,,,,,,,,,,,,,,,,,,,,,,,,,,,,,,,,,,,,,,0,4,4,4,1,,,,,,,,,,,,,,,,,,,,,,,,,,,,,,,,,,,,,,,,,
333135,001,2022-11-20_17h53.26.631,Info_measure_main_exp,2022.2.2,Win32,60.19020104,,,,,,,,,,,,,,,,,,,,,,,,,,,,,,7,0.9475,1,,,,,,,,,,,,0,131,5,5,2190,1986,absent_patch/patch0002190.jpg,absent_patch/patch0001986.jpg,,,,,,,,,,,,,,,,,,,,0.059259273,0.100925905,1,0,0,response1disk,16,-0.011111083,-0.00462963,1,0,0,center_square,0,15,15,111,1,,,,,,,,,,,,,,,,,,,,,,,
333135,001,2022-11-20_17h53.26.631,Info_measure_main_exp,2022.2.2,Win32,60.19020104,,,,,,,,,,,,,,,,,,masks/mask_005.jpg,,,,,,,,,,,,,,,,,,,,,,,,,,,,,,,,,,,,,,,,,,,0,0,0,4,1,,,,,,,,,,,,,,,,,,,,,,,,,,,,,,,,,,,,,,,,,,,,,,
333135,001,2022-11-20_17h53.26.631,Info_measure_main_exp,2022.2.2,Win32,60.19020104,,,,,,,,,,,,,,,,,,masks/mask_002.jpg,,,,,,,,,,,,,,,,,,,,,,,,,,,,,,,,,,,,,,,,,,,0,1,1,1,1,,,,,,,,,,,,,,,,,,,,,,,,,,,,,,,,,,,,,,,,,,,,,,
333135,001,2022-11-20_17h53.26.631,Info_measure_main_exp,2022.2.2,Win32,60.19020104,,,,,,,,,,,,,,,,,,masks/mask_003.jpg,,,,,,,,,,,,,,,,,,,,,,,,,,,,,,,,,,,,,,,,,,,0,2,2,2,1,,,,,,,,,,,,,,,,,,,,,,,,,,,,,,,,,,,,,,,,,,,,,,
333135,001,2022-11-20_17h53.26.631,Info_measure_main_exp,2022.2.2,Win32,60.19020104,,,,,,,,,,,,,,,,,,masks/mask_001.jpg,,,,,,,,,,,,,,,,,,,,,,,,,,,,,,,,,,,,,,,,,,,0,3,3,0,1,,,,,,,,,,,,,,,,,,,,,,,,,,,,,,,,,,,,,,,,,,,,,,
333135,001,2022-11-20_17h53.26.631,Info_measure_main_exp,2022.2.2,Win32,60.19020104,,,,,,,,,,,,,,,,,,masks/mask_004.jpg,,,,,,,,,,,,,,,,,,,,,,,,,,,,,,,,,,,,,,,,,,,0,4,4,3,1,,,,,,,,,,,,,,,,,,,,,,,,,,,,,,,,,,,,,,,,,,,,,,
333135,001,2022-11-20_17h53.26.631,Info_measure_main_exp,2022.2.2,Win32,60.19020104,,,,,,,,,,,,,,,,,,masks/mask_005.jpg,,,,,,,,,,,,,,,,,,,,,,,,,,,,,,,,,,,,,,,,,,,,,,,,0,0,0,4,1,,,,,,,,,,,,,,,,,,,,,,,,,,,,,,,,,,,,,,,,,
333135,001,2022-11-20_17h53.26.631,Info_measure_main_exp,2022.2.2,Win32,60.19020104,,,,,,,,,,,,,,,,,,masks/mask_003.jpg,,,,,,,,,,,,,,,,,,,,,,,,,,,,,,,,,,,,,,,,,,,,,,,,0,1,1,2,1,,,,,,,,,,,,,,,,,,,,,,,,,,,,,,,,,,,,,,,,,
333135,001,2022-11-20_17h53.26.631,Info_measure_main_exp,2022.2.2,Win32,60.19020104,,,,,,,,,,,,,,,,,,masks/mask_004.jpg,,,,,,,,,,,,,,,,,,,,,,,,,,,,,,,,,,,,,,,,,,,,,,,,0,2,2,3,1,,,,,,,,,,,,,,,,,,,,,,,,,,,,,,,,,,,,,,,,,
333135,001,2022-11-20_17h53.26.631,Info_measure_main_exp,2022.2.2,Win32,60.19020104,,,,,,,,,,,,,,,,,,masks/mask_002.jpg,,,,,,,,,,,,,,,,,,,,,,,,,,,,,,,,,,,,,,,,,,,,,,,,0,3,3,1,1,,,,,,,,,,,,,,,,,,,,,,,,,,,,,,,,,,,,,,,,,
333135,001,2022-11-20_17h53.26.631,Info_measure_main_exp,2022.2.2,Win32,60.19020104,,,,,,,,,,,,,,,,,,masks/mask_001.jpg,,,,,,,,,,,,,,,,,,,,,,,,,,,,,,,,,,,,,,,,,,,,,,,,0,4,4,0,1,,,,,,,,,,,,,,,,,,,,,,,,,,,,,,,,,,,,,,,,,
333135,001,2022-11-20_17h53.26.631,Info_measure_main_exp,2022.2.2,Win32,60.19020104,,,,,,,,,,,,,,,,,,,,,,,,,,,,,,0,0.698,1,,,,,,,,,,,,0,131,5,5,2166,2166,absent_patch/patch0002166.jpg,absent_patch/patch0002166.jpg,,,,,,,,,,,,,,,,,,,,-0.050925926,0.087037016,1,0,0,response7disk,17,0.005555541,0.002777771,1,0,0,center_square,0,16,16,42,1,,,,,,,,,,,,,,,,,,,,,,,
333135,001,2022-11-20_17h53.26.631,Info_measure_main_exp,2022.2.2,Win32,60.19020104,,,,,,,,,,,,,,,,,,masks/mask_004.jpg,,,,,,,,,,,,,,,,,,,,,,,,,,,,,,,,,,,,,,,,,,,0,0,0,3,1,,,,,,,,,,,,,,,,,,,,,,,,,,,,,,,,,,,,,,,,,,,,,,
333135,001,2022-11-20_17h53.26.631,Info_measure_main_exp,2022.2.2,Win32,60.19020104,,,,,,,,,,,,,,,,,,masks/mask_001.jpg,,,,,,,,,,,,,,,,,,,,,,,,,,,,,,,,,,,,,,,,,,,0,1,1,0,1,,,,,,,,,,,,,,,,,,,,,,,,,,,,,,,,,,,,,,,,,,,,,,
333135,001,2022-11-20_17h53.26.631,Info_measure_main_exp,2022.2.2,Win32,60.19020104,,,,,,,,,,,,,,,,,,masks/mask_002.jpg,,,,,,,,,,,,,,,,,,,,,,,,,,,,,,,,,,,,,,,,,,,0,2,2,1,1,,,,,,,,,,,,,,,,,,,,,,,,,,,,,,,,,,,,,,,,,,,,,,
333135,001,2022-11-20_17h53.26.631,Info_measure_main_exp,2022.2.2,Win32,60.19020104,,,,,,,,,,,,,,,,,,masks/mask_003.jpg,,,,,,,,,,,,,,,,,,,,,,,,,,,,,,,,,,,,,,,,,,,0,3,3,2,1,,,,,,,,,,,,,,,,,,,,,,,,,,,,,,,,,,,,,,,,,,,,,,
333135,001,2022-11-20_17h53.26.631,Info_measure_main_exp,2022.2.2,Win32,60.19020104,,,,,,,,,,,,,,,,,,masks/mask_005.jpg,,,,,,,,,,,,,,,,,,,,,,,,,,,,,,,,,,,,,,,,,,,0,4,4,4,1,,,,,,,,,,,,,,,,,,,,,,,,,,,,,,,,,,,,,,,,,,,,,,
333135,001,2022-11-20_17h53.26.631,Info_measure_main_exp,2022.2.2,Win32,60.19020104,,,,,,,,,,,,,,,,,,masks/mask_001.jpg,,,,,,,,,,,,,,,,,,,,,,,,,,,,,,,,,,,,,,,,,,,,,,,,0,0,0,0,1,,,,,,,,,,,,,,,,,,,,,,,,,,,,,,,,,,,,,,,,,
333135,001,2022-11-20_17h53.26.631,Info_measure_main_exp,2022.2.2,Win32,60.19020104,,,,,,,,,,,,,,,,,,masks/mask_005.jpg,,,,,,,,,,,,,,,,,,,,,,,,,,,,,,,,,,,,,,,,,,,,,,,,0,1,1,4,1,,,,,,,,,,,,,,,,,,,,,,,,,,,,,,,,,,,,,,,,,
333135,001,2022-11-20_17h53.26.631,Info_measure_main_exp,2022.2.2,Win32,60.19020104,,,,,,,,,,,,,,,,,,masks/mask_002.jpg,,,,,,,,,,,,,,,,,,,,,,,,,,,,,,,,,,,,,,,,,,,,,,,,0,2,2,1,1,,,,,,,,,,,,,,,,,,,,,,,,,,,,,,,,,,,,,,,,,
333135,001,2022-11-20_17h53.26.631,Info_measure_main_exp,2022.2.2,Win32,60.19020104,,,,,,,,,,,,,,,,,,masks/mask_004.jpg,,,,,,,,,,,,,,,,,,,,,,,,,,,,,,,,,,,,,,,,,,,,,,,,0,3,3,3,1,,,,,,,,,,,,,,,,,,,,,,,,,,,,,,,,,,,,,,,,,
333135,001,2022-11-20_17h53.26.631,Info_measure_main_exp,2022.2.2,Win32,60.19020104,,,,,,,,,,,,,,,,,,masks/mask_003.jpg,,,,,,,,,,,,,,,,,,,,,,,,,,,,,,,,,,,,,,,,,,,,,,,,0,4,4,2,1,,,,,,,,,,,,,,,,,,,,,,,,,,,,,,,,,,,,,,,,,
333135,001,2022-11-20_17h53.26.631,Info_measure_main_exp,2022.2.2,Win32,60.19020104,,,,,,,,,,,,,,,,,,,,,,,,,,,,,,7,1.0637,1,,,,,,,,,,,,0,131,5,5,2274,1950,absent_patch/patch0002274.jpg,absent_patch/patch0001950.jpg,,,,,,,,,,,,,,,,,,,,0.018518519,0.048148155,1,0,0,response1disk,18,-0.000925912,-0.012962977,1,0,0,center_square,0,17,17,10,1,,,,,,,,,,,,,,,,,,,,,,,
333135,001,2022-11-20_17h53.26.631,Info_measure_main_exp,2022.2.2,Win32,60.19020104,,,,,,,,,,,,,,,,,,masks/mask_002.jpg,,,,,,,,,,,,,,,,,,,,,,,,,,,,,,,,,,,,,,,,,,,0,0,0,1,1,,,,,,,,,,,,,,,,,,,,,,,,,,,,,,,,,,,,,,,,,,,,,,
333135,001,2022-11-20_17h53.26.631,Info_measure_main_exp,2022.2.2,Win32,60.19020104,,,,,,,,,,,,,,,,,,masks/mask_004.jpg,,,,,,,,,,,,,,,,,,,,,,,,,,,,,,,,,,,,,,,,,,,0,1,1,3,1,,,,,,,,,,,,,,,,,,,,,,,,,,,,,,,,,,,,,,,,,,,,,,
333135,001,2022-11-20_17h53.26.631,Info_measure_main_exp,2022.2.2,Win32,60.19020104,,,,,,,,,,,,,,,,,,masks/mask_005.jpg,,,,,,,,,,,,,,,,,,,,,,,,,,,,,,,,,,,,,,,,,,,0,2,2,4,1,,,,,,,,,,,,,,,,,,,,,,,,,,,,,,,,,,,,,,,,,,,,,,
333135,001,2022-11-20_17h53.26.631,Info_measure_main_exp,2022.2.2,Win32,60.19020104,,,,,,,,,,,,,,,,,,masks/mask_001.jpg,,,,,,,,,,,,,,,,,,,,,,,,,,,,,,,,,,,,,,,,,,,0,3,3,0,1,,,,,,,,,,,,,,,,,,,,,,,,,,,,,,,,,,,,,,,,,,,,,,
333135,001,2022-11-20_17h53.26.631,Info_measure_main_exp,2022.2.2,Win32,60.19020104,,,,,,,,,,,,,,,,,,masks/mask_003.jpg,,,,,,,,,,,,,,,,,,,,,,,,,,,,,,,,,,,,,,,,,,,0,4,4,2,1,,,,,,,,,,,,,,,,,,,,,,,,,,,,,,,,,,,,,,,,,,,,,,
333135,001,2022-11-20_17h53.26.631,Info_measure_main_exp,2022.2.2,Win32,60.19020104,,,,,,,,,,,,,,,,,,masks/mask_001.jpg,,,,,,,,,,,,,,,,,,,,,,,,,,,,,,,,,,,,,,,,,,,,,,,,0,0,0,0,1,,,,,,,,,,,,,,,,,,,,,,,,,,,,,,,,,,,,,,,,,
333135,001,2022-11-20_17h53.26.631,Info_measure_main_exp,2022.2.2,Win32,60.19020104,,,,,,,,,,,,,,,,,,masks/mask_002.jpg,,,,,,,,,,,,,,,,,,,,,,,,,,,,,,,,,,,,,,,,,,,,,,,,0,1,1,1,1,,,,,,,,,,,,,,,,,,,,,,,,,,,,,,,,,,,,,,,,,
333135,001,2022-11-20_17h53.26.631,Info_measure_main_exp,2022.2.2,Win32,60.19020104,,,,,,,,,,,,,,,,,,masks/mask_005.jpg,,,,,,,,,,,,,,,,,,,,,,,,,,,,,,,,,,,,,,,,,,,,,,,,0,2,2,4,1,,,,,,,,,,,,,,,,,,,,,,,,,,,,,,,,,,,,,,,,,
333135,001,2022-11-20_17h53.26.631,Info_measure_main_exp,2022.2.2,Win32,60.19020104,,,,,,,,,,,,,,,,,,masks/mask_003.jpg,,,,,,,,,,,,,,,,,,,,,,,,,,,,,,,,,,,,,,,,,,,,,,,,0,3,3,2,1,,,,,,,,,,,,,,,,,,,,,,,,,,,,,,,,,,,,,,,,,
333135,001,2022-11-20_17h53.26.631,Info_measure_main_exp,2022.2.2,Win32,60.19020104,,,,,,,,,,,,,,,,,,masks/mask_004.jpg,,,,,,,,,,,,,,,,,,,,,,,,,,,,,,,,,,,,,,,,,,,,,,,,0,4,4,3,1,,,,,,,,,,,,,,,,,,,,,,,,,,,,,,,,,,,,,,,,,
333135,001,2022-11-20_17h53.26.631,Info_measure_main_exp,2022.2.2,Win32,60.19020104,,,,,,,,,,,,,,,,,,,,,,,,,,,,,,7,1.3132,1,,,,,,,,,,,,0,131,5,5,2250,1986,absent_patch/patch0002250.jpg,absent_patch/patch0001986.jpg,,,,,,,,,,,,,,,,,,,,0.075925968,0.116666653,1,0,0,response1disk,19,-0.002777735,0.0074074,1,0,0,center_square,0,18,18,29,1,,,,,,,,,,,,,,,,,,,,,,,
333135,001,2022-11-20_17h53.26.631,Info_measure_main_exp,2022.2.2,Win32,60.19020104,,,,,,,,,,,,,,,,,,masks/mask_003.jpg,,,,,,,,,,,,,,,,,,,,,,,,,,,,,,,,,,,,,,,,,,,0,0,0,2,1,,,,,,,,,,,,,,,,,,,,,,,,,,,,,,,,,,,,,,,,,,,,,,
333135,001,2022-11-20_17h53.26.631,Info_measure_main_exp,2022.2.2,Win32,60.19020104,,,,,,,,,,,,,,,,,,masks/mask_005.jpg,,,,,,,,,,,,,,,,,,,,,,,,,,,,,,,,,,,,,,,,,,,0,1,1,4,1,,,,,,,,,,,,,,,,,,,,,,,,,,,,,,,,,,,,,,,,,,,,,,
333135,001,2022-11-20_17h53.26.631,Info_measure_main_exp,2022.2.2,Win32,60.19020104,,,,,,,,,,,,,,,,,,masks/mask_002.jpg,,,,,,,,,,,,,,,,,,,,,,,,,,,,,,,,,,,,,,,,,,,0,2,2,1,1,,,,,,,,,,,,,,,,,,,,,,,,,,,,,,,,,,,,,,,,,,,,,,
333135,001,2022-11-20_17h53.26.631,Info_measure_main_exp,2022.2.2,Win32,60.19020104,,,,,,,,,,,,,,,,,,masks/mask_004.jpg,,,,,,,,,,,,,,,,,,,,,,,,,,,,,,,,,,,,,,,,,,,0,3,3,3,1,,,,,,,,,,,,,,,,,,,,,,,,,,,,,,,,,,,,,,,,,,,,,,
333135,001,2022-11-20_17h53.26.631,Info_measure_main_exp,2022.2.2,Win32,60.19020104,,,,,,,,,,,,,,,,,,masks/mask_001.jpg,,,,,,,,,,,,,,,,,,,,,,,,,,,,,,,,,,,,,,,,,,,0,4,4,0,1,,,,,,,,,,,,,,,,,,,,,,,,,,,,,,,,,,,,,,,,,,,,,,
333135,001,2022-11-20_17h53.26.631,Info_measure_main_exp,2022.2.2,Win32,60.19020104,,,,,,,,,,,,,,,,,,masks/mask_003.jpg,,,,,,,,,,,,,,,,,,,,,,,,,,,,,,,,,,,,,,,,,,,,,,,,0,0,0,2,1,,,,,,,,,,,,,,,,,,,,,,,,,,,,,,,,,,,,,,,,,
333135,001,2022-11-20_17h53.26.631,Info_measure_main_exp,2022.2.2,Win32,60.19020104,,,,,,,,,,,,,,,,,,masks/mask_004.jpg,,,,,,,,,,,,,,,,,,,,,,,,,,,,,,,,,,,,,,,,,,,,,,,,0,1,1,3,1,,,,,,,,,,,,,,,,,,,,,,,,,,,,,,,,,,,,,,,,,
333135,001,2022-11-20_17h53.26.631,Info_measure_main_exp,2022.2.2,Win32,60.19020104,,,,,,,,,,,,,,,,,,masks/mask_001.jpg,,,,,,,,,,,,,,,,,,,,,,,,,,,,,,,,,,,,,,,,,,,,,,,,0,2,2,0,1,,,,,,,,,,,,,,,,,,,,,,,,,,,,,,,,,,,,,,,,,
333135,001,2022-11-20_17h53.26.631,Info_measure_main_exp,2022.2.2,Win32,60.19020104,,,,,,,,,,,,,,,,,,masks/mask_005.jpg,,,,,,,,,,,,,,,,,,,,,,,,,,,,,,,,,,,,,,,,,,,,,,,,0,3,3,4,1,,,,,,,,,,,,,,,,,,,,,,,,,,,,,,,,,,,,,,,,,
333135,001,2022-11-20_17h53.26.631,Info_measure_main_exp,2022.2.2,Win32,60.19020104,,,,,,,,,,,,,,,,,,masks/mask_002.jpg,,,,,,,,,,,,,,,,,,,,,,,,,,,,,,,,,,,,,,,,,,,,,,,,0,4,4,1,1,,,,,,,,,,,,,,,,,,,,,,,,,,,,,,,,,,,,,,,,,
333135,001,2022-11-20_17h53.26.631,Info_measure_main_exp,2022.2.2,Win32,60.19020104,,,,,,,,,,,,,,,,,,,,,,,,,,,,,,7,1.1138,1,,,,,,,,,,,,0,131,5,5,2274,2178,absent_patch/patch0002274.jpg,absent_patch/patch0002178.jpg,,,,,,,,,,,,,,,,,,,,0.061111097,0.092592593,1,0,0,response1disk,20,-0.000925912,0.006481489,1,0,0,center_square,0,19,19,117,1,,,,,,,,,,,,,,,,,,,,,,,
333135,001,2022-11-20_17h53.26.631,Info_measure_main_exp,2022.2.2,Win32,60.19020104,,,,,,,,,,,,,,,,,,masks/mask_004.jpg,,,,,,,,,,,,,,,,,,,,,,,,,,,,,,,,,,,,,,,,,,,0,0,0,3,1,,,,,,,,,,,,,,,,,,,,,,,,,,,,,,,,,,,,,,,,,,,,,,
333135,001,2022-11-20_17h53.26.631,Info_measure_main_exp,2022.2.2,Win32,60.19020104,,,,,,,,,,,,,,,,,,masks/mask_003.jpg,,,,,,,,,,,,,,,,,,,,,,,,,,,,,,,,,,,,,,,,,,,0,1,1,2,1,,,,,,,,,,,,,,,,,,,,,,,,,,,,,,,,,,,,,,,,,,,,,,
333135,001,2022-11-20_17h53.26.631,Info_measure_main_exp,2022.2.2,Win32,60.19020104,,,,,,,,,,,,,,,,,,masks/mask_001.jpg,,,,,,,,,,,,,,,,,,,,,,,,,,,,,,,,,,,,,,,,,,,0,2,2,0,1,,,,,,,,,,,,,,,,,,,,,,,,,,,,,,,,,,,,,,,,,,,,,,
333135,001,2022-11-20_17h53.26.631,Info_measure_main_exp,2022.2.2,Win32,60.19020104,,,,,,,,,,,,,,,,,,masks/mask_002.jpg,,,,,,,,,,,,,,,,,,,,,,,,,,,,,,,,,,,,,,,,,,,0,3,3,1,1,,,,,,,,,,,,,,,,,,,,,,,,,,,,,,,,,,,,,,,,,,,,,,
333135,001,2022-11-20_17h53.26.631,Info_measure_main_exp,2022.2.2,Win32,60.19020104,,,,,,,,,,,,,,,,,,masks/mask_005.jpg,,,,,,,,,,,,,,,,,,,,,,,,,,,,,,,,,,,,,,,,,,,0,4,4,4,1,,,,,,,,,,,,,,,,,,,,,,,,,,,,,,,,,,,,,,,,,,,,,,
333135,001,2022-11-20_17h53.26.631,Info_measure_main_exp,2022.2.2,Win32,60.19020104,,,,,,,,,,,,,,,,,,masks/mask_005.jpg,,,,,,,,,,,,,,,,,,,,,,,,,,,,,,,,,,,,,,,,,,,,,,,,0,0,0,4,1,,,,,,,,,,,,,,,,,,,,,,,,,,,,,,,,,,,,,,,,,
333135,001,2022-11-20_17h53.26.631,Info_measure_main_exp,2022.2.2,Win32,60.19020104,,,,,,,,,,,,,,,,,,masks/mask_001.jpg,,,,,,,,,,,,,,,,,,,,,,,,,,,,,,,,,,,,,,,,,,,,,,,,0,1,1,0,1,,,,,,,,,,,,,,,,,,,,,,,,,,,,,,,,,,,,,,,,,
333135,001,2022-11-20_17h53.26.631,Info_measure_main_exp,2022.2.2,Win32,60.19020104,,,,,,,,,,,,,,,,,,masks/mask_004.jpg,,,,,,,,,,,,,,,,,,,,,,,,,,,,,,,,,,,,,,,,,,,,,,,,0,2,2,3,1,,,,,,,,,,,,,,,,,,,,,,,,,,,,,,,,,,,,,,,,,
333135,001,2022-11-20_17h53.26.631,Info_measure_main_exp,2022.2.2,Win32,60.19020104,,,,,,,,,,,,,,,,,,masks/mask_002.jpg,,,,,,,,,,,,,,,,,,,,,,,,,,,,,,,,,,,,,,,,,,,,,,,,0,3,3,1,1,,,,,,,,,,,,,,,,,,,,,,,,,,,,,,,,,,,,,,,,,
333135,001,2022-11-20_17h53.26.631,Info_measure_main_exp,2022.2.2,Win32,60.19020104,,,,,,,,,,,,,,,,,,masks/mask_003.jpg,,,,,,,,,,,,,,,,,,,,,,,,,,,,,,,,,,,,,,,,,,,,,,,,0,4,4,2,1,,,,,,,,,,,,,,,,,,,,,,,,,,,,,,,,,,,,,,,,,
333135,001,2022-11-20_17h53.26.631,Info_measure_main_exp,2022.2.2,Win32,60.19020104,,,,,,,,,,,,,,,,,,,,,,,,,,,,,,3,1.1811,1,,,,,,,,,,,,1,131,5,5,1,2274,present_patch/cong_131_5_a.jpg,absent_patch/patch0002274.jpg,,,,,,,,,,,,,,,,,,,,-0.032407407,-0.083333333,1,0,0,response5disk,21,0.005555541,-0.012962977,1,0,0,center_square,0,20,20,105,1,,,,,,,,,,,,,,,,,,,,,,,
333135,001,2022-11-20_17h53.26.631,Info_measure_main_exp,2022.2.2,Win32,60.19020104,,,,,,,,,,,,,,,,,,masks/mask_005.jpg,,,,,,,,,,,,,,,,,,,,,,,,,,,,,,,,,,,,,,,,,,,0,0,0,4,1,,,,,,,,,,,,,,,,,,,,,,,,,,,,,,,,,,,,,,,,,,,,,,
333135,001,2022-11-20_17h53.26.631,Info_measure_main_exp,2022.2.2,Win32,60.19020104,,,,,,,,,,,,,,,,,,masks/mask_001.jpg,,,,,,,,,,,,,,,,,,,,,,,,,,,,,,,,,,,,,,,,,,,0,1,1,0,1,,,,,,,,,,,,,,,,,,,,,,,,,,,,,,,,,,,,,,,,,,,,,,
333135,001,2022-11-20_17h53.26.631,Info_measure_main_exp,2022.2.2,Win32,60.19020104,,,,,,,,,,,,,,,,,,masks/mask_003.jpg,,,,,,,,,,,,,,,,,,,,,,,,,,,,,,,,,,,,,,,,,,,0,2,2,2,1,,,,,,,,,,,,,,,,,,,,,,,,,,,,,,,,,,,,,,,,,,,,,,
333135,001,2022-11-20_17h53.26.631,Info_measure_main_exp,2022.2.2,Win32,60.19020104,,,,,,,,,,,,,,,,,,masks/mask_004.jpg,,,,,,,,,,,,,,,,,,,,,,,,,,,,,,,,,,,,,,,,,,,0,3,3,3,1,,,,,,,,,,,,,,,,,,,,,,,,,,,,,,,,,,,,,,,,,,,,,,
333135,001,2022-11-20_17h53.26.631,Info_measure_main_exp,2022.2.2,Win32,60.19020104,,,,,,,,,,,,,,,,,,masks/mask_002.jpg,,,,,,,,,,,,,,,,,,,,,,,,,,,,,,,,,,,,,,,,,,,0,4,4,1,1,,,,,,,,,,,,,,,,,,,,,,,,,,,,,,,,,,,,,,,,,,,,,,
333135,001,2022-11-20_17h53.26.631,Info_measure_main_exp,2022.2.2,Win32,60.19020104,,,,,,,,,,,,,,,,,,masks/mask_003.jpg,,,,,,,,,,,,,,,,,,,,,,,,,,,,,,,,,,,,,,,,,,,,,,,,0,0,0,2,1,,,,,,,,,,,,,,,,,,,,,,,,,,,,,,,,,,,,,,,,,
333135,001,2022-11-20_17h53.26.631,Info_measure_main_exp,2022.2.2,Win32,60.19020104,,,,,,,,,,,,,,,,,,masks/mask_002.jpg,,,,,,,,,,,,,,,,,,,,,,,,,,,,,,,,,,,,,,,,,,,,,,,,0,1,1,1,1,,,,,,,,,,,,,,,,,,,,,,,,,,,,,,,,,,,,,,,,,
333135,001,2022-11-20_17h53.26.631,Info_measure_main_exp,2022.2.2,Win32,60.19020104,,,,,,,,,,,,,,,,,,masks/mask_001.jpg,,,,,,,,,,,,,,,,,,,,,,,,,,,,,,,,,,,,,,,,,,,,,,,,0,2,2,0,1,,,,,,,,,,,,,,,,,,,,,,,,,,,,,,,,,,,,,,,,,
333135,001,2022-11-20_17h53.26.631,Info_measure_main_exp,2022.2.2,Win32,60.19020104,,,,,,,,,,,,,,,,,,masks/mask_004.jpg,,,,,,,,,,,,,,,,,,,,,,,,,,,,,,,,,,,,,,,,,,,,,,,,0,3,3,3,1,,,,,,,,,,,,,,,,,,,,,,,,,,,,,,,,,,,,,,,,,
333135,001,2022-11-20_17h53.26.631,Info_measure_main_exp,2022.2.2,Win32,60.19020104,,,,,,,,,,,,,,,,,,masks/mask_005.jpg,,,,,,,,,,,,,,,,,,,,,,,,,,,,,,,,,,,,,,,,,,,,,,,,0,4,4,4,1,,,,,,,,,,,,,,,,,,,,,,,,,,,,,,,,,,,,,,,,,
333135,001,2022-11-20_17h53.26.631,Info_measure_main_exp,2022.2.2,Win32,60.19020104,,,,,,,,,,,,,,,,,,,,,,,,,,,,,,6,1.5791,1,,,,,,,,,,,,0,131,5,5,2142,2238,absent_patch/patch0002142.jpg,absent_patch/patch0002238.jpg,,,,,,,,,,,,,,,,,,,,0.100000028,0.03148146,1,0,0,response1disk,22,-0.009259259,-0.012962977,1,0,0,center_square,0,21,21,101,1,,,,,,,,,,,,,,,,,,,,,,,
333135,001,2022-11-20_17h53.26.631,Info_measure_main_exp,2022.2.2,Win32,60.19020104,,,,,,,,,,,,,,,,,,masks/mask_001.jpg,,,,,,,,,,,,,,,,,,,,,,,,,,,,,,,,,,,,,,,,,,,0,0,0,0,1,,,,,,,,,,,,,,,,,,,,,,,,,,,,,,,,,,,,,,,,,,,,,,
333135,001,2022-11-20_17h53.26.631,Info_measure_main_exp,2022.2.2,Win32,60.19020104,,,,,,,,,,,,,,,,,,masks/mask_003.jpg,,,,,,,,,,,,,,,,,,,,,,,,,,,,,,,,,,,,,,,,,,,0,1,1,2,1,,,,,,,,,,,,,,,,,,,,,,,,,,,,,,,,,,,,,,,,,,,,,,
333135,001,2022-11-20_17h53.26.631,Info_measure_main_exp,2022.2.2,Win32,60.19020104,,,,,,,,,,,,,,,,,,masks/mask_002.jpg,,,,,,,,,,,,,,,,,,,,,,,,,,,,,,,,,,,,,,,,,,,0,2,2,1,1,,,,,,,,,,,,,,,,,,,,,,,,,,,,,,,,,,,,,,,,,,,,,,
333135,001,2022-11-20_17h53.26.631,Info_measure_main_exp,2022.2.2,Win32,60.19020104,,,,,,,,,,,,,,,,,,masks/mask_004.jpg,,,,,,,,,,,,,,,,,,,,,,,,,,,,,,,,,,,,,,,,,,,0,3,3,3,1,,,,,,,,,,,,,,,,,,,,,,,,,,,,,,,,,,,,,,,,,,,,,,
333135,001,2022-11-20_17h53.26.631,Info_measure_main_exp,2022.2.2,Win32,60.19020104,,,,,,,,,,,,,,,,,,masks/mask_005.jpg,,,,,,,,,,,,,,,,,,,,,,,,,,,,,,,,,,,,,,,,,,,0,4,4,4,1,,,,,,,,,,,,,,,,,,,,,,,,,,,,,,,,,,,,,,,,,,,,,,
333135,001,2022-11-20_17h53.26.631,Info_measure_main_exp,2022.2.2,Win32,60.19020104,,,,,,,,,,,,,,,,,,masks/mask_005.jpg,,,,,,,,,,,,,,,,,,,,,,,,,,,,,,,,,,,,,,,,,,,,,,,,0,0,0,4,1,,,,,,,,,,,,,,,,,,,,,,,,,,,,,,,,,,,,,,,,,
333135,001,2022-11-20_17h53.26.631,Info_measure_main_exp,2022.2.2,Win32,60.19020104,,,,,,,,,,,,,,,,,,masks/mask_002.jpg,,,,,,,,,,,,,,,,,,,,,,,,,,,,,,,,,,,,,,,,,,,,,,,,0,1,1,1,1,,,,,,,,,,,,,,,,,,,,,,,,,,,,,,,,,,,,,,,,,
333135,001,2022-11-20_17h53.26.631,Info_measure_main_exp,2022.2.2,Win32,60.19020104,,,,,,,,,,,,,,,,,,masks/mask_001.jpg,,,,,,,,,,,,,,,,,,,,,,,,,,,,,,,,,,,,,,,,,,,,,,,,0,2,2,0,1,,,,,,,,,,,,,,,,,,,,,,,,,,,,,,,,,,,,,,,,,
333135,001,2022-11-20_17h53.26.631,Info_measure_main_exp,2022.2.2,Win32,60.19020104,,,,,,,,,,,,,,,,,,masks/mask_004.jpg,,,,,,,,,,,,,,,,,,,,,,,,,,,,,,,,,,,,,,,,,,,,,,,,0,3,3,3,1,,,,,,,,,,,,,,,,,,,,,,,,,,,,,,,,,,,,,,,,,
333135,001,2022-11-20_17h53.26.631,Info_measure_main_exp,2022.2.2,Win32,60.19020104,,,,,,,,,,,,,,,,,,masks/mask_003.jpg,,,,,,,,,,,,,,,,,,,,,,,,,,,,,,,,,,,,,,,,,,,,,,,,0,4,4,2,1,,,,,,,,,,,,,,,,,,,,,,,,,,,,,,,,,,,,,,,,,
333135,001,2022-11-20_17h53.26.631,Info_measure_main_exp,2022.2.2,Win32,60.19020104,,,,,,,,,,,,,,,,,,,,,,,,,,,,,,6,1.1971,1,,,,,,,,,,,,0,131,5,5,2274,2166,absent_patch/patch0002274.jpg,absent_patch/patch0002166.jpg,,,,,,,,,,,,,,,,,,,,0.10092594,0.035185178,1,0,0,response1disk,23,0.00462963,0.003703683,1,0,0,center_square,0,22,22,78,1,,,,,,,,,,,,,,,,,,,,,,,
333135,001,2022-11-20_17h53.26.631,Info_measure_main_exp,2022.2.2,Win32,60.19020104,,,,,,,,,,,,,,,,,,masks/mask_001.jpg,,,,,,,,,,,,,,,,,,,,,,,,,,,,,,,,,,,,,,,,,,,0,0,0,0,1,,,,,,,,,,,,,,,,,,,,,,,,,,,,,,,,,,,,,,,,,,,,,,
333135,001,2022-11-20_17h53.26.631,Info_measure_main_exp,2022.2.2,Win32,60.19020104,,,,,,,,,,,,,,,,,,masks/mask_005.jpg,,,,,,,,,,,,,,,,,,,,,,,,,,,,,,,,,,,,,,,,,,,0,1,1,4,1,,,,,,,,,,,,,,,,,,,,,,,,,,,,,,,,,,,,,,,,,,,,,,
333135,001,2022-11-20_17h53.26.631,Info_measure_main_exp,2022.2.2,Win32,60.19020104,,,,,,,,,,,,,,,,,,masks/mask_003.jpg,,,,,,,,,,,,,,,,,,,,,,,,,,,,,,,,,,,,,,,,,,,0,2,2,2,1,,,,,,,,,,,,,,,,,,,,,,,,,,,,,,,,,,,,,,,,,,,,,,
333135,001,2022-11-20_17h53.26.631,Info_measure_main_exp,2022.2.2,Win32,60.19020104,,,,,,,,,,,,,,,,,,masks/mask_002.jpg,,,,,,,,,,,,,,,,,,,,,,,,,,,,,,,,,,,,,,,,,,,0,3,3,1,1,,,,,,,,,,,,,,,,,,,,,,,,,,,,,,,,,,,,,,,,,,,,,,
333135,001,2022-11-20_17h53.26.631,Info_measure_main_exp,2022.2.2,Win32,60.19020104,,,,,,,,,,,,,,,,,,masks/mask_004.jpg,,,,,,,,,,,,,,,,,,,,,,,,,,,,,,,,,,,,,,,,,,,0,4,4,3,1,,,,,,,,,,,,,,,,,,,,,,,,,,,,,,,,,,,,,,,,,,,,,,
333135,001,2022-11-20_17h53.26.631,Info_measure_main_exp,2022.2.2,Win32,60.19020104,,,,,,,,,,,,,,,,,,masks/mask_004.jpg,,,,,,,,,,,,,,,,,,,,,,,,,,,,,,,,,,,,,,,,,,,,,,,,0,0,0,3,1,,,,,,,,,,,,,,,,,,,,,,,,,,,,,,,,,,,,,,,,,
333135,001,2022-11-20_17h53.26.631,Info_measure_main_exp,2022.2.2,Win32,60.19020104,,,,,,,,,,,,,,,,,,masks/mask_003.jpg,,,,,,,,,,,,,,,,,,,,,,,,,,,,,,,,,,,,,,,,,,,,,,,,0,1,1,2,1,,,,,,,,,,,,,,,,,,,,,,,,,,,,,,,,,,,,,,,,,
333135,001,2022-11-20_17h53.26.631,Info_measure_main_exp,2022.2.2,Win32,60.19020104,,,,,,,,,,,,,,,,,,masks/mask_002.jpg,,,,,,,,,,,,,,,,,,,,,,,,,,,,,,,,,,,,,,,,,,,,,,,,0,2,2,1,1,,,,,,,,,,,,,,,,,,,,,,,,,,,,,,,,,,,,,,,,,
333135,001,2022-11-20_17h53.26.631,Info_measure_main_exp,2022.2.2,Win32,60.19020104,,,,,,,,,,,,,,,,,,masks/mask_005.jpg,,,,,,,,,,,,,,,,,,,,,,,,,,,,,,,,,,,,,,,,,,,,,,,,0,3,3,4,1,,,,,,,,,,,,,,,,,,,,,,,,,,,,,,,,,,,,,,,,,
333135,001,2022-11-20_17h53.26.631,Info_measure_main_exp,2022.2.2,Win32,60.19020104,,,,,,,,,,,,,,,,,,masks/mask_001.jpg,,,,,,,,,,,,,,,,,,,,,,,,,,,,,,,,,,,,,,,,,,,,,,,,0,4,4,0,1,,,,,,,,,,,,,,,,,,,,,,,,,,,,,,,,,,,,,,,,,
333135,001,2022-11-20_17h53.26.631,Info_measure_main_exp,2022.2.2,Win32,60.19020104,,,,,,,,,,,,,,,,,,,,,,,,,,,,,,2,1.3463,1,,,,,,,,,,,,1,131,5,5,1,1986,present_patch/cong_131_5_a.jpg,absent_patch/patch0001986.jpg,,,,,,,,,,,,,,,,,,,,-0.133333347,-0.029629637,1,0,0,response5disk,24,-0.011111083,0.000925912,1,0,0,center_square,0,23,23,106,1,,,,,,,,,,,,,,,,,,,,,,,
333135,001,2022-11-20_17h53.26.631,Info_measure_main_exp,2022.2.2,Win32,60.19020104,,,,,,,,,,,,,,,,,,masks/mask_005.jpg,,,,,,,,,,,,,,,,,,,,,,,,,,,,,,,,,,,,,,,,,,,0,0,0,4,1,,,,,,,,,,,,,,,,,,,,,,,,,,,,,,,,,,,,,,,,,,,,,,
333135,001,2022-11-20_17h53.26.631,Info_measure_main_exp,2022.2.2,Win32,60.19020104,,,,,,,,,,,,,,,,,,masks/mask_002.jpg,,,,,,,,,,,,,,,,,,,,,,,,,,,,,,,,,,,,,,,,,,,0,1,1,1,1,,,,,,,,,,,,,,,,,,,,,,,,,,,,,,,,,,,,,,,,,,,,,,
333135,001,2022-11-20_17h53.26.631,Info_measure_main_exp,2022.2.2,Win32,60.19020104,,,,,,,,,,,,,,,,,,masks/mask_001.jpg,,,,,,,,,,,,,,,,,,,,,,,,,,,,,,,,,,,,,,,,,,,0,2,2,0,1,,,,,,,,,,,,,,,,,,,,,,,,,,,,,,,,,,,,,,,,,,,,,,
333135,001,2022-11-20_17h53.26.631,Info_measure_main_exp,2022.2.2,Win32,60.19020104,,,,,,,,,,,,,,,,,,masks/mask_003.jpg,,,,,,,,,,,,,,,,,,,,,,,,,,,,,,,,,,,,,,,,,,,0,3,3,2,1,,,,,,,,,,,,,,,,,,,,,,,,,,,,,,,,,,,,,,,,,,,,,,
333135,001,2022-11-20_17h53.26.631,Info_measure_main_exp,2022.2.2,Win32,60.19020104,,,,,,,,,,,,,,,,,,masks/mask_004.jpg,,,,,,,,,,,,,,,,,,,,,,,,,,,,,,,,,,,,,,,,,,,0,4,4,3,1,,,,,,,,,,,,,,,,,,,,,,,,,,,,,,,,,,,,,,,,,,,,,,
333135,001,2022-11-20_17h53.26.631,Info_measure_main_exp,2022.2.2,Win32,60.19020104,,,,,,,,,,,,,,,,,,masks/mask_001.jpg,,,,,,,,,,,,,,,,,,,,,,,,,,,,,,,,,,,,,,,,,,,,,,,,0,0,0,0,1,,,,,,,,,,,,,,,,,,,,,,,,,,,,,,,,,,,,,,,,,
333135,001,2022-11-20_17h53.26.631,Info_measure_main_exp,2022.2.2,Win32,60.19020104,,,,,,,,,,,,,,,,,,masks/mask_005.jpg,,,,,,,,,,,,,,,,,,,,,,,,,,,,,,,,,,,,,,,,,,,,,,,,0,1,1,4,1,,,,,,,,,,,,,,,,,,,,,,,,,,,,,,,,,,,,,,,,,
333135,001,2022-11-20_17h53.26.631,Info_measure_main_exp,2022.2.2,Win32,60.19020104,,,,,,,,,,,,,,,,,,masks/mask_004.jpg,,,,,,,,,,,,,,,,,,,,,,,,,,,,,,,,,,,,,,,,,,,,,,,,0,2,2,3,1,,,,,,,,,,,,,,,,,,,,,,,,,,,,,,,,,,,,,,,,,
333135,001,2022-11-20_17h53.26.631,Info_measure_main_exp,2022.2.2,Win32,60.19020104,,,,,,,,,,,,,,,,,,masks/mask_003.jpg,,,,,,,,,,,,,,,,,,,,,,,,,,,,,,,,,,,,,,,,,,,,,,,,0,3,3,2,1,,,,,,,,,,,,,,,,,,,,,,,,,,,,,,,,,,,,,,,,,
333135,001,2022-11-20_17h53.26.631,Info_measure_main_exp,2022.2.2,Win32,60.19020104,,,,,,,,,,,,,,,,,,masks/mask_002.jpg,,,,,,,,,,,,,,,,,,,,,,,,,,,,,,,,,,,,,,,,,,,,,,,,0,4,4,1,1,,,,,,,,,,,,,,,,,,,,,,,,,,,,,,,,,,,,,,,,,
333135,001,2022-11-20_17h53.26.631,Info_measure_main_exp,2022.2.2,Win32,60.19020104,,,,,,,,,,,,,,,,,,,,,,,,,,,,,,6,0.8476,1,,,,,,,,,,,,0,131,5,5,2274,1974,absent_patch/patch0002274.jpg,absent_patch/patch0001974.jpg,,,,,,,,,,,,,,,,,,,,0.125925912,0.042592578,1,0,0,response1disk,25,0.006481524,0.002777771,1,0,0,center_square,0,24,24,90,1,,,,,,,,,,,,,,,,,,,,,,,
333135,001,2022-11-20_17h53.26.631,Info_measure_main_exp,2022.2.2,Win32,60.19020104,,,,,,,,,,,,,,,,,,masks/mask_005.jpg,,,,,,,,,,,,,,,,,,,,,,,,,,,,,,,,,,,,,,,,,,,0,0,0,4,1,,,,,,,,,,,,,,,,,,,,,,,,,,,,,,,,,,,,,,,,,,,,,,
333135,001,2022-11-20_17h53.26.631,Info_measure_main_exp,2022.2.2,Win32,60.19020104,,,,,,,,,,,,,,,,,,masks/mask_003.jpg,,,,,,,,,,,,,,,,,,,,,,,,,,,,,,,,,,,,,,,,,,,0,1,1,2,1,,,,,,,,,,,,,,,,,,,,,,,,,,,,,,,,,,,,,,,,,,,,,,
333135,001,2022-11-20_17h53.26.631,Info_measure_main_exp,2022.2.2,Win32,60.19020104,,,,,,,,,,,,,,,,,,masks/mask_004.jpg,,,,,,,,,,,,,,,,,,,,,,,,,,,,,,,,,,,,,,,,,,,0,2,2,3,1,,,,,,,,,,,,,,,,,,,,,,,,,,,,,,,,,,,,,,,,,,,,,,
333135,001,2022-11-20_17h53.26.631,Info_measure_main_exp,2022.2.2,Win32,60.19020104,,,,,,,,,,,,,,,,,,masks/mask_001.jpg,,,,,,,,,,,,,,,,,,,,,,,,,,,,,,,,,,,,,,,,,,,0,3,3,0,1,,,,,,,,,,,,,,,,,,,,,,,,,,,,,,,,,,,,,,,,,,,,,,
333135,001,2022-11-20_17h53.26.631,Info_measure_main_exp,2022.2.2,Win32,60.19020104,,,,,,,,,,,,,,,,,,masks/mask_002.jpg,,,,,,,,,,,,,,,,,,,,,,,,,,,,,,,,,,,,,,,,,,,0,4,4,1,1,,,,,,,,,,,,,,,,,,,,,,,,,,,,,,,,,,,,,,,,,,,,,,
333135,001,2022-11-20_17h53.26.631,Info_measure_main_exp,2022.2.2,Win32,60.19020104,,,,,,,,,,,,,,,,,,masks/mask_004.jpg,,,,,,,,,,,,,,,,,,,,,,,,,,,,,,,,,,,,,,,,,,,,,,,,0,0,0,3,1,,,,,,,,,,,,,,,,,,,,,,,,,,,,,,,,,,,,,,,,,
333135,001,2022-11-20_17h53.26.631,Info_measure_main_exp,2022.2.2,Win32,60.19020104,,,,,,,,,,,,,,,,,,masks/mask_005.jpg,,,,,,,,,,,,,,,,,,,,,,,,,,,,,,,,,,,,,,,,,,,,,,,,0,1,1,4,1,,,,,,,,,,,,,,,,,,,,,,,,,,,,,,,,,,,,,,,,,
333135,001,2022-11-20_17h53.26.631,Info_measure_main_exp,2022.2.2,Win32,60.19020104,,,,,,,,,,,,,,,,,,masks/mask_001.jpg,,,,,,,,,,,,,,,,,,,,,,,,,,,,,,,,,,,,,,,,,,,,,,,,0,2,2,0,1,,,,,,,,,,,,,,,,,,,,,,,,,,,,,,,,,,,,,,,,,
333135,001,2022-11-20_17h53.26.631,Info_measure_main_exp,2022.2.2,Win32,60.19020104,,,,,,,,,,,,,,,,,,masks/mask_003.jpg,,,,,,,,,,,,,,,,,,,,,,,,,,,,,,,,,,,,,,,,,,,,,,,,0,3,3,2,1,,,,,,,,,,,,,,,,,,,,,,,,,,,,,,,,,,,,,,,,,
333135,001,2022-11-20_17h53.26.631,Info_measure_main_exp,2022.2.2,Win32,60.19020104,,,,,,,,,,,,,,,,,,masks/mask_002.jpg,,,,,,,,,,,,,,,,,,,,,,,,,,,,,,,,,,,,,,,,,,,,,,,,0,4,4,1,1,,,,,,,,,,,,,,,,,,,,,,,,,,,,,,,,,,,,,,,,,
333135,001,2022-11-20_17h53.26.631,Info_measure_main_exp,2022.2.2,Win32,60.19020104,,,,,,,,,,,,,,,,,,,,,,,,,,,,,,6,0.7643,1,,,,,,,,,,,,0,131,5,5,1986,1974,absent_patch/patch0001986.jpg,absent_patch/patch0001974.jpg,,,,,,,,,,,,,,,,,,,,0.066666709,0.011111118,1,0,0,response1disk,26,0.00462963,0,1,0,0,center_square,0,25,25,25,1,,,,,,,,,,,,,,,,,,,,,,,
333135,001,2022-11-20_17h53.26.631,Info_measure_main_exp,2022.2.2,Win32,60.19020104,,,,,,,,,,,,,,,,,,masks/mask_003.jpg,,,,,,,,,,,,,,,,,,,,,,,,,,,,,,,,,,,,,,,,,,,0,0,0,2,1,,,,,,,,,,,,,,,,,,,,,,,,,,,,,,,,,,,,,,,,,,,,,,
333135,001,2022-11-20_17h53.26.631,Info_measure_main_exp,2022.2.2,Win32,60.19020104,,,,,,,,,,,,,,,,,,masks/mask_001.jpg,,,,,,,,,,,,,,,,,,,,,,,,,,,,,,,,,,,,,,,,,,,0,1,1,0,1,,,,,,,,,,,,,,,,,,,,,,,,,,,,,,,,,,,,,,,,,,,,,,
333135,001,2022-11-20_17h53.26.631,Info_measure_main_exp,2022.2.2,Win32,60.19020104,,,,,,,,,,,,,,,,,,masks/mask_004.jpg,,,,,,,,,,,,,,,,,,,,,,,,,,,,,,,,,,,,,,,,,,,0,2,2,3,1,,,,,,,,,,,,,,,,,,,,,,,,,,,,,,,,,,,,,,,,,,,,,,
333135,001,2022-11-20_17h53.26.631,Info_measure_main_exp,2022.2.2,Win32,60.19020104,,,,,,,,,,,,,,,,,,masks/mask_002.jpg,,,,,,,,,,,,,,,,,,,,,,,,,,,,,,,,,,,,,,,,,,,0,3,3,1,1,,,,,,,,,,,,,,,,,,,,,,,,,,,,,,,,,,,,,,,,,,,,,,
333135,001,2022-11-20_17h53.26.631,Info_measure_main_exp,2022.2.2,Win32,60.19020104,,,,,,,,,,,,,,,,,,masks/mask_005.jpg,,,,,,,,,,,,,,,,,,,,,,,,,,,,,,,,,,,,,,,,,,,0,4,4,4,1,,,,,,,,,,,,,,,,,,,,,,,,,,,,,,,,,,,,,,,,,,,,,,
333135,001,2022-11-20_17h53.26.631,Info_measure_main_exp,2022.2.2,Win32,60.19020104,,,,,,,,,,,,,,,,,,masks/mask_002.jpg,,,,,,,,,,,,,,,,,,,,,,,,,,,,,,,,,,,,,,,,,,,,,,,,0,0,0,1,1,,,,,,,,,,,,,,,,,,,,,,,,,,,,,,,,,,,,,,,,,
333135,001,2022-11-20_17h53.26.631,Info_measure_main_exp,2022.2.2,Win32,60.19020104,,,,,,,,,,,,,,,,,,masks/mask_001.jpg,,,,,,,,,,,,,,,,,,,,,,,,,,,,,,,,,,,,,,,,,,,,,,,,0,1,1,0,1,,,,,,,,,,,,,,,,,,,,,,,,,,,,,,,,,,,,,,,,,
333135,001,2022-11-20_17h53.26.631,Info_measure_main_exp,2022.2.2,Win32,60.19020104,,,,,,,,,,,,,,,,,,masks/mask_005.jpg,,,,,,,,,,,,,,,,,,,,,,,,,,,,,,,,,,,,,,,,,,,,,,,,0,2,2,4,1,,,,,,,,,,,,,,,,,,,,,,,,,,,,,,,,,,,,,,,,,
333135,001,2022-11-20_17h53.26.631,Info_measure_main_exp,2022.2.2,Win32,60.19020104,,,,,,,,,,,,,,,,,,masks/mask_003.jpg,,,,,,,,,,,,,,,,,,,,,,,,,,,,,,,,,,,,,,,,,,,,,,,,0,3,3,2,1,,,,,,,,,,,,,,,,,,,,,,,,,,,,,,,,,,,,,,,,,
333135,001,2022-11-20_17h53.26.631,Info_measure_main_exp,2022.2.2,Win32,60.19020104,,,,,,,,,,,,,,,,,,masks/mask_004.jpg,,,,,,,,,,,,,,,,,,,,,,,,,,,,,,,,,,,,,,,,,,,,,,,,0,4,4,3,1,,,,,,,,,,,,,,,,,,,,,,,,,,,,,,,,,,,,,,,,,
333135,001,2022-11-20_17h53.26.631,Info_measure_main_exp,2022.2.2,Win32,60.19020104,,,,,,,,,,,,,,,,,,,,,,,,,,,,,,6,0.9143,1,,,,,,,,,,,,1,131,5,5,1,2142,present_patch/cong_131_5_a.jpg,absent_patch/patch0002142.jpg,,,,,,,,,,,,,,,,,,,,0.112037023,0.03148146,1,0,0,response1disk,27,0.000925912,0.002777771,1,0,0,center_square,0,26,26,80,1,,,,,,,,,,,,,,,,,,,,,,,
333135,001,2022-11-20_17h53.26.631,Info_measure_main_exp,2022.2.2,Win32,60.19020104,,,,,,,,,,,,,,,,,,masks/mask_003.jpg,,,,,,,,,,,,,,,,,,,,,,,,,,,,,,,,,,,,,,,,,,,0,0,0,2,1,,,,,,,,,,,,,,,,,,,,,,,,,,,,,,,,,,,,,,,,,,,,,,
333135,001,2022-11-20_17h53.26.631,Info_measure_main_exp,2022.2.2,Win32,60.19020104,,,,,,,,,,,,,,,,,,masks/mask_001.jpg,,,,,,,,,,,,,,,,,,,,,,,,,,,,,,,,,,,,,,,,,,,0,1,1,0,1,,,,,,,,,,,,,,,,,,,,,,,,,,,,,,,,,,,,,,,,,,,,,,
333135,001,2022-11-20_17h53.26.631,Info_measure_main_exp,2022.2.2,Win32,60.19020104,,,,,,,,,,,,,,,,,,masks/mask_005.jpg,,,,,,,,,,,,,,,,,,,,,,,,,,,,,,,,,,,,,,,,,,,0,2,2,4,1,,,,,,,,,,,,,,,,,,,,,,,,,,,,,,,,,,,,,,,,,,,,,,
333135,001,2022-11-20_17h53.26.631,Info_measure_main_exp,2022.2.2,Win32,60.19020104,,,,,,,,,,,,,,,,,,masks/mask_004.jpg,,,,,,,,,,,,,,,,,,,,,,,,,,,,,,,,,,,,,,,,,,,0,3,3,3,1,,,,,,,,,,,,,,,,,,,,,,,,,,,,,,,,,,,,,,,,,,,,,,
333135,001,2022-11-20_17h53.26.631,Info_measure_main_exp,2022.2.2,Win32,60.19020104,,,,,,,,,,,,,,,,,,masks/mask_002.jpg,,,,,,,,,,,,,,,,,,,,,,,,,,,,,,,,,,,,,,,,,,,0,4,4,1,1,,,,,,,,,,,,,,,,,,,,,,,,,,,,,,,,,,,,,,,,,,,,,,
333135,001,2022-11-20_17h53.26.631,Info_measure_main_exp,2022.2.2,Win32,60.19020104,,,,,,,,,,,,,,,,,,masks/mask_005.jpg,,,,,,,,,,,,,,,,,,,,,,,,,,,,,,,,,,,,,,,,,,,,,,,,0,0,0,4,1,,,,,,,,,,,,,,,,,,,,,,,,,,,,,,,,,,,,,,,,,
333135,001,2022-11-20_17h53.26.631,Info_measure_main_exp,2022.2.2,Win32,60.19020104,,,,,,,,,,,,,,,,,,masks/mask_003.jpg,,,,,,,,,,,,,,,,,,,,,,,,,,,,,,,,,,,,,,,,,,,,,,,,0,1,1,2,1,,,,,,,,,,,,,,,,,,,,,,,,,,,,,,,,,,,,,,,,,
333135,001,2022-11-20_17h53.26.631,Info_measure_main_exp,2022.2.2,Win32,60.19020104,,,,,,,,,,,,,,,,,,masks/mask_002.jpg,,,,,,,,,,,,,,,,,,,,,,,,,,,,,,,,,,,,,,,,,,,,,,,,0,2,2,1,1,,,,,,,,,,,,,,,,,,,,,,,,,,,,,,,,,,,,,,,,,
333135,001,2022-11-20_17h53.26.631,Info_measure_main_exp,2022.2.2,Win32,60.19020104,,,,,,,,,,,,,,,,,,masks/mask_004.jpg,,,,,,,,,,,,,,,,,,,,,,,,,,,,,,,,,,,,,,,,,,,,,,,,0,3,3,3,1,,,,,,,,,,,,,,,,,,,,,,,,,,,,,,,,,,,,,,,,,
333135,001,2022-11-20_17h53.26.631,Info_measure_main_exp,2022.2.2,Win32,60.19020104,,,,,,,,,,,,,,,,,,masks/mask_001.jpg,,,,,,,,,,,,,,,,,,,,,,,,,,,,,,,,,,,,,,,,,,,,,,,,0,4,4,0,1,,,,,,,,,,,,,,,,,,,,,,,,,,,,,,,,,,,,,,,,,
333135,001,2022-11-20_17h53.26.631,Info_measure_main_exp,2022.2.2,Win32,60.19020104,,,,,,,,,,,,,,,,,,,,,,,,,,,,,,6,0.9808,1,,,,,,,,,,,,0,131,5,5,1974,2178,absent_patch/patch0001974.jpg,absent_patch/patch0002178.jpg,,,,,,,,,,,,,,,,,,,,0.112037023,0.035185178,1,0,0,response1disk,28,-0.002777735,0.002777771,1,0,0,center_square,0,27,27,44,1,,,,,,,,,,,,,,,,,,,,,,,
333135,001,2022-11-20_17h53.26.631,Info_measure_main_exp,2022.2.2,Win32,60.19020104,,,,,,,,,,,,,,,,,,masks/mask_004.jpg,,,,,,,,,,,,,,,,,,,,,,,,,,,,,,,,,,,,,,,,,,,0,0,0,3,1,,,,,,,,,,,,,,,,,,,,,,,,,,,,,,,,,,,,,,,,,,,,,,
333135,001,2022-11-20_17h53.26.631,Info_measure_main_exp,2022.2.2,Win32,60.19020104,,,,,,,,,,,,,,,,,,masks/mask_005.jpg,,,,,,,,,,,,,,,,,,,,,,,,,,,,,,,,,,,,,,,,,,,0,1,1,4,1,,,,,,,,,,,,,,,,,,,,,,,,,,,,,,,,,,,,,,,,,,,,,,
333135,001,2022-11-20_17h53.26.631,Info_measure_main_exp,2022.2.2,Win32,60.19020104,,,,,,,,,,,,,,,,,,masks/mask_002.jpg,,,,,,,,,,,,,,,,,,,,,,,,,,,,,,,,,,,,,,,,,,,0,2,2,1,1,,,,,,,,,,,,,,,,,,,,,,,,,,,,,,,,,,,,,,,,,,,,,,
333135,001,2022-11-20_17h53.26.631,Info_measure_main_exp,2022.2.2,Win32,60.19020104,,,,,,,,,,,,,,,,,,masks/mask_003.jpg,,,,,,,,,,,,,,,,,,,,,,,,,,,,,,,,,,,,,,,,,,,0,3,3,2,1,,,,,,,,,,,,,,,,,,,,,,,,,,,,,,,,,,,,,,,,,,,,,,
333135,001,2022-11-20_17h53.26.631,Info_measure_main_exp,2022.2.2,Win32,60.19020104,,,,,,,,,,,,,,,,,,masks/mask_001.jpg,,,,,,,,,,,,,,,,,,,,,,,,,,,,,,,,,,,,,,,,,,,0,4,4,0,1,,,,,,,,,,,,,,,,,,,,,,,,,,,,,,,,,,,,,,,,,,,,,,
333135,001,2022-11-20_17h53.26.631,Info_measure_main_exp,2022.2.2,Win32,60.19020104,,,,,,,,,,,,,,,,,,masks/mask_005.jpg,,,,,,,,,,,,,,,,,,,,,,,,,,,,,,,,,,,,,,,,,,,,,,,,0,0,0,4,1,,,,,,,,,,,,,,,,,,,,,,,,,,,,,,,,,,,,,,,,,
333135,001,2022-11-20_17h53.26.631,Info_measure_main_exp,2022.2.2,Win32,60.19020104,,,,,,,,,,,,,,,,,,masks/mask_003.jpg,,,,,,,,,,,,,,,,,,,,,,,,,,,,,,,,,,,,,,,,,,,,,,,,0,1,1,2,1,,,,,,,,,,,,,,,,,,,,,,,,,,,,,,,,,,,,,,,,,
333135,001,2022-11-20_17h53.26.631,Info_measure_main_exp,2022.2.2,Win32,60.19020104,,,,,,,,,,,,,,,,,,masks/mask_002.jpg,,,,,,,,,,,,,,,,,,,,,,,,,,,,,,,,,,,,,,,,,,,,,,,,0,2,2,1,1,,,,,,,,,,,,,,,,,,,,,,,,,,,,,,,,,,,,,,,,,
333135,001,2022-11-20_17h53.26.631,Info_measure_main_exp,2022.2.2,Win32,60.19020104,,,,,,,,,,,,,,,,,,masks/mask_004.jpg,,,,,,,,,,,,,,,,,,,,,,,,,,,,,,,,,,,,,,,,,,,,,,,,0,3,3,3,1,,,,,,,,,,,,,,,,,,,,,,,,,,,,,,,,,,,,,,,,,
333135,001,2022-11-20_17h53.26.631,Info_measure_main_exp,2022.2.2,Win32,60.19020104,,,,,,,,,,,,,,,,,,masks/mask_001.jpg,,,,,,,,,,,,,,,,,,,,,,,,,,,,,,,,,,,,,,,,,,,,,,,,0,4,4,0,1,,,,,,,,,,,,,,,,,,,,,,,,,,,,,,,,,,,,,,,,,
333135,001,2022-11-20_17h53.26.631,Info_measure_main_exp,2022.2.2,Win32,60.19020104,,,,,,,,,,,,,,,,,,,,,,,,,,,,,,5,0.7646,1,,,,,,,,,,,,1,131,5,5,1950,1,absent_patch/patch0001950.jpg,present_patch/cong_131_5_a.jpg,,,,,,,,,,,,,,,,,,,,0.094444487,-0.049074067,1,0,0,response3disk,29,-0.00462963,0.006481489,1,0,0,center_square,0,28,28,39,1,,,,,,,,,,,,,,,,,,,,,,,
333135,001,2022-11-20_17h53.26.631,Info_measure_main_exp,2022.2.2,Win32,60.19020104,,,,,,,,,,,,,,,,,,masks/mask_001.jpg,,,,,,,,,,,,,,,,,,,,,,,,,,,,,,,,,,,,,,,,,,,0,0,0,0,1,,,,,,,,,,,,,,,,,,,,,,,,,,,,,,,,,,,,,,,,,,,,,,
333135,001,2022-11-20_17h53.26.631,Info_measure_main_exp,2022.2.2,Win32,60.19020104,,,,,,,,,,,,,,,,,,masks/mask_005.jpg,,,,,,,,,,,,,,,,,,,,,,,,,,,,,,,,,,,,,,,,,,,0,1,1,4,1,,,,,,,,,,,,,,,,,,,,,,,,,,,,,,,,,,,,,,,,,,,,,,
333135,001,2022-11-20_17h53.26.631,Info_measure_main_exp,2022.2.2,Win32,60.19020104,,,,,,,,,,,,,,,,,,masks/mask_003.jpg,,,,,,,,,,,,,,,,,,,,,,,,,,,,,,,,,,,,,,,,,,,0,2,2,2,1,,,,,,,,,,,,,,,,,,,,,,,,,,,,,,,,,,,,,,,,,,,,,,
333135,001,2022-11-20_17h53.26.631,Info_measure_main_exp,2022.2.2,Win32,60.19020104,,,,,,,,,,,,,,,,,,masks/mask_002.jpg,,,,,,,,,,,,,,,,,,,,,,,,,,,,,,,,,,,,,,,,,,,0,3,3,1,1,,,,,,,,,,,,,,,,,,,,,,,,,,,,,,,,,,,,,,,,,,,,,,
333135,001,2022-11-20_17h53.26.631,Info_measure_main_exp,2022.2.2,Win32,60.19020104,,,,,,,,,,,,,,,,,,masks/mask_004.jpg,,,,,,,,,,,,,,,,,,,,,,,,,,,,,,,,,,,,,,,,,,,0,4,4,3,1,,,,,,,,,,,,,,,,,,,,,,,,,,,,,,,,,,,,,,,,,,,,,,
333135,001,2022-11-20_17h53.26.631,Info_measure_main_exp,2022.2.2,Win32,60.19020104,,,,,,,,,,,,,,,,,,masks/mask_002.jpg,,,,,,,,,,,,,,,,,,,,,,,,,,,,,,,,,,,,,,,,,,,,,,,,0,0,0,1,1,,,,,,,,,,,,,,,,,,,,,,,,,,,,,,,,,,,,,,,,,
333135,001,2022-11-20_17h53.26.631,Info_measure_main_exp,2022.2.2,Win32,60.19020104,,,,,,,,,,,,,,,,,,masks/mask_005.jpg,,,,,,,,,,,,,,,,,,,,,,,,,,,,,,,,,,,,,,,,,,,,,,,,0,1,1,4,1,,,,,,,,,,,,,,,,,,,,,,,,,,,,,,,,,,,,,,,,,
333135,001,2022-11-20_17h53.26.631,Info_measure_main_exp,2022.2.2,Win32,60.19020104,,,,,,,,,,,,,,,,,,masks/mask_003.jpg,,,,,,,,,,,,,,,,,,,,,,,,,,,,,,,,,,,,,,,,,,,,,,,,0,2,2,2,1,,,,,,,,,,,,,,,,,,,,,,,,,,,,,,,,,,,,,,,,,
333135,001,2022-11-20_17h53.26.631,Info_measure_main_exp,2022.2.2,Win32,60.19020104,,,,,,,,,,,,,,,,,,masks/mask_001.jpg,,,,,,,,,,,,,,,,,,,,,,,,,,,,,,,,,,,,,,,,,,,,,,,,0,3,3,0,1,,,,,,,,,,,,,,,,,,,,,,,,,,,,,,,,,,,,,,,,,
333135,001,2022-11-20_17h53.26.631,Info_measure_main_exp,2022.2.2,Win32,60.19020104,,,,,,,,,,,,,,,,,,masks/mask_004.jpg,,,,,,,,,,,,,,,,,,,,,,,,,,,,,,,,,,,,,,,,,,,,,,,,0,4,4,3,1,,,,,,,,,,,,,,,,,,,,,,,,,,,,,,,,,,,,,,,,,
333135,001,2022-11-20_17h53.26.631,Info_measure_main_exp,2022.2.2,Win32,60.19020104,,,,,,,,,,,,,,,,,,,,,,,,,,,,,,0,1.5454,1,,,,,,,,,,,,0,131,5,5,2238,2238,absent_patch/patch0002238.jpg,absent_patch/patch0002238.jpg,,,,,,,,,,,,,,,,,,,,-0.077777792,0.168518526,1,0,0,response7disk,30,0.000925912,0.003703683,1,0,0,center_square,0,29,29,58,1,,,,,,,,,,,,,,,,,,,,,,,
333135,001,2022-11-20_17h53.26.631,Info_measure_main_exp,2022.2.2,Win32,60.19020104,,,,,,,,,,,,,,,,,,masks/mask_004.jpg,,,,,,,,,,,,,,,,,,,,,,,,,,,,,,,,,,,,,,,,,,,0,0,0,3,1,,,,,,,,,,,,,,,,,,,,,,,,,,,,,,,,,,,,,,,,,,,,,,
333135,001,2022-11-20_17h53.26.631,Info_measure_main_exp,2022.2.2,Win32,60.19020104,,,,,,,,,,,,,,,,,,masks/mask_005.jpg,,,,,,,,,,,,,,,,,,,,,,,,,,,,,,,,,,,,,,,,,,,0,1,1,4,1,,,,,,,,,,,,,,,,,,,,,,,,,,,,,,,,,,,,,,,,,,,,,,
333135,001,2022-11-20_17h53.26.631,Info_measure_main_exp,2022.2.2,Win32,60.19020104,,,,,,,,,,,,,,,,,,masks/mask_003.jpg,,,,,,,,,,,,,,,,,,,,,,,,,,,,,,,,,,,,,,,,,,,0,2,2,2,1,,,,,,,,,,,,,,,,,,,,,,,,,,,,,,,,,,,,,,,,,,,,,,
333135,001,2022-11-20_17h53.26.631,Info_measure_main_exp,2022.2.2,Win32,60.19020104,,,,,,,,,,,,,,,,,,masks/mask_002.jpg,,,,,,,,,,,,,,,,,,,,,,,,,,,,,,,,,,,,,,,,,,,0,3,3,1,1,,,,,,,,,,,,,,,,,,,,,,,,,,,,,,,,,,,,,,,,,,,,,,
333135,001,2022-11-20_17h53.26.631,Info_measure_main_exp,2022.2.2,Win32,60.19020104,,,,,,,,,,,,,,,,,,masks/mask_001.jpg,,,,,,,,,,,,,,,,,,,,,,,,,,,,,,,,,,,,,,,,,,,0,4,4,0,1,,,,,,,,,,,,,,,,,,,,,,,,,,,,,,,,,,,,,,,,,,,,,,
333135,001,2022-11-20_17h53.26.631,Info_measure_main_exp,2022.2.2,Win32,60.19020104,,,,,,,,,,,,,,,,,,masks/mask_005.jpg,,,,,,,,,,,,,,,,,,,,,,,,,,,,,,,,,,,,,,,,,,,,,,,,0,0,0,4,1,,,,,,,,,,,,,,,,,,,,,,,,,,,,,,,,,,,,,,,,,
333135,001,2022-11-20_17h53.26.631,Info_measure_main_exp,2022.2.2,Win32,60.19020104,,,,,,,,,,,,,,,,,,masks/mask_001.jpg,,,,,,,,,,,,,,,,,,,,,,,,,,,,,,,,,,,,,,,,,,,,,,,,0,1,1,0,1,,,,,,,,,,,,,,,,,,,,,,,,,,,,,,,,,,,,,,,,,
333135,001,2022-11-20_17h53.26.631,Info_measure_main_exp,2022.2.2,Win32,60.19020104,,,,,,,,,,,,,,,,,,masks/mask_004.jpg,,,,,,,,,,,,,,,,,,,,,,,,,,,,,,,,,,,,,,,,,,,,,,,,0,2,2,3,1,,,,,,,,,,,,,,,,,,,,,,,,,,,,,,,,,,,,,,,,,
333135,001,2022-11-20_17h53.26.631,Info_measure_main_exp,2022.2.2,Win32,60.19020104,,,,,,,,,,,,,,,,,,masks/mask_002.jpg,,,,,,,,,,,,,,,,,,,,,,,,,,,,,,,,,,,,,,,,,,,,,,,,0,3,3,1,1,,,,,,,,,,,,,,,,,,,,,,,,,,,,,,,,,,,,,,,,,
333135,001,2022-11-20_17h53.26.631,Info_measure_main_exp,2022.2.2,Win32,60.19020104,,,,,,,,,,,,,,,,,,masks/mask_003.jpg,,,,,,,,,,,,,,,,,,,,,,,,,,,,,,,,,,,,,,,,,,,,,,,,0,4,4,2,1,,,,,,,,,,,,,,,,,,,,,,,,,,,,,,,,,,,,,,,,,
333135,001,2022-11-20_17h53.26.631,Info_measure_main_exp,2022.2.2,Win32,60.19020104,,,,,,,,,,,,,,,,,,,,,,,,,,,,,,6,0.7146,1,,,,,,,,,,,,0,131,5,5,2142,2154,absent_patch/patch0002142.jpg,absent_patch/patch0002154.jpg,,,,,,,,,,,,,,,,,,,,0.085185228,0.021296289,1,0,0,response1disk,31,-0.014814801,-0.010185206,1,0,0,center_square,0,30,30,9,1,,,,,,,,,,,,,,,,,,,,,,,
333135,001,2022-11-20_17h53.26.631,Info_measure_main_exp,2022.2.2,Win32,60.19020104,,,,,,,,,,,,,,,,,,masks/mask_003.jpg,,,,,,,,,,,,,,,,,,,,,,,,,,,,,,,,,,,,,,,,,,,0,0,0,2,1,,,,,,,,,,,,,,,,,,,,,,,,,,,,,,,,,,,,,,,,,,,,,,
333135,001,2022-11-20_17h53.26.631,Info_measure_main_exp,2022.2.2,Win32,60.19020104,,,,,,,,,,,,,,,,,,masks/mask_004.jpg,,,,,,,,,,,,,,,,,,,,,,,,,,,,,,,,,,,,,,,,,,,0,1,1,3,1,,,,,,,,,,,,,,,,,,,,,,,,,,,,,,,,,,,,,,,,,,,,,,
333135,001,2022-11-20_17h53.26.631,Info_measure_main_exp,2022.2.2,Win32,60.19020104,,,,,,,,,,,,,,,,,,masks/mask_001.jpg,,,,,,,,,,,,,,,,,,,,,,,,,,,,,,,,,,,,,,,,,,,0,2,2,0,1,,,,,,,,,,,,,,,,,,,,,,,,,,,,,,,,,,,,,,,,,,,,,,
333135,001,2022-11-20_17h53.26.631,Info_measure_main_exp,2022.2.2,Win32,60.19020104,,,,,,,,,,,,,,,,,,masks/mask_005.jpg,,,,,,,,,,,,,,,,,,,,,,,,,,,,,,,,,,,,,,,,,,,0,3,3,4,1,,,,,,,,,,,,,,,,,,,,,,,,,,,,,,,,,,,,,,,,,,,,,,
333135,001,2022-11-20_17h53.26.631,Info_measure_main_exp,2022.2.2,Win32,60.19020104,,,,,,,,,,,,,,,,,,masks/mask_002.jpg,,,,,,,,,,,,,,,,,,,,,,,,,,,,,,,,,,,,,,,,,,,0,4,4,1,1,,,,,,,,,,,,,,,,,,,,,,,,,,,,,,,,,,,,,,,,,,,,,,
333135,001,2022-11-20_17h53.26.631,Info_measure_main_exp,2022.2.2,Win32,60.19020104,,,,,,,,,,,,,,,,,,masks/mask_001.jpg,,,,,,,,,,,,,,,,,,,,,,,,,,,,,,,,,,,,,,,,,,,,,,,,0,0,0,0,1,,,,,,,,,,,,,,,,,,,,,,,,,,,,,,,,,,,,,,,,,
333135,001,2022-11-20_17h53.26.631,Info_measure_main_exp,2022.2.2,Win32,60.19020104,,,,,,,,,,,,,,,,,,masks/mask_003.jpg,,,,,,,,,,,,,,,,,,,,,,,,,,,,,,,,,,,,,,,,,,,,,,,,0,1,1,2,1,,,,,,,,,,,,,,,,,,,,,,,,,,,,,,,,,,,,,,,,,
333135,001,2022-11-20_17h53.26.631,Info_measure_main_exp,2022.2.2,Win32,60.19020104,,,,,,,,,,,,,,,,,,masks/mask_002.jpg,,,,,,,,,,,,,,,,,,,,,,,,,,,,,,,,,,,,,,,,,,,,,,,,0,2,2,1,1,,,,,,,,,,,,,,,,,,,,,,,,,,,,,,,,,,,,,,,,,
333135,001,2022-11-20_17h53.26.631,Info_measure_main_exp,2022.2.2,Win32,60.19020104,,,,,,,,,,,,,,,,,,masks/mask_004.jpg,,,,,,,,,,,,,,,,,,,,,,,,,,,,,,,,,,,,,,,,,,,,,,,,0,3,3,3,1,,,,,,,,,,,,,,,,,,,,,,,,,,,,,,,,,,,,,,,,,
333135,001,2022-11-20_17h53.26.631,Info_measure_main_exp,2022.2.2,Win32,60.19020104,,,,,,,,,,,,,,,,,,masks/mask_005.jpg,,,,,,,,,,,,,,,,,,,,,,,,,,,,,,,,,,,,,,,,,,,,,,,,0,4,4,4,1,,,,,,,,,,,,,,,,,,,,,,,,,,,,,,,,,,,,,,,,,
333135,001,2022-11-20_17h53.26.631,Info_measure_main_exp,2022.2.2,Win32,60.19020104,,,,,,,,,,,,,,,,,,,,,,,,,,,,,,2,1.047,1,,,,,,,,,,,,0,131,5,5,2298,2142,absent_patch/patch0002298.jpg,absent_patch/patch0002142.jpg,,,,,,,,,,,,,,,,,,,,-0.073148162,-0.025000007,1,0,0,response5disk,32,0.001851894,0.001851859,1,0,0,center_square,0,31,31,49,1,,,,,,,,,,,,,,,,,,,,,,,
333135,001,2022-11-20_17h53.26.631,Info_measure_main_exp,2022.2.2,Win32,60.19020104,,,,,,,,,,,,,,,,,,masks/mask_001.jpg,,,,,,,,,,,,,,,,,,,,,,,,,,,,,,,,,,,,,,,,,,,0,0,0,0,1,,,,,,,,,,,,,,,,,,,,,,,,,,,,,,,,,,,,,,,,,,,,,,
333135,001,2022-11-20_17h53.26.631,Info_measure_main_exp,2022.2.2,Win32,60.19020104,,,,,,,,,,,,,,,,,,masks/mask_003.jpg,,,,,,,,,,,,,,,,,,,,,,,,,,,,,,,,,,,,,,,,,,,0,1,1,2,1,,,,,,,,,,,,,,,,,,,,,,,,,,,,,,,,,,,,,,,,,,,,,,
333135,001,2022-11-20_17h53.26.631,Info_measure_main_exp,2022.2.2,Win32,60.19020104,,,,,,,,,,,,,,,,,,masks/mask_005.jpg,,,,,,,,,,,,,,,,,,,,,,,,,,,,,,,,,,,,,,,,,,,0,2,2,4,1,,,,,,,,,,,,,,,,,,,,,,,,,,,,,,,,,,,,,,,,,,,,,,
333135,001,2022-11-20_17h53.26.631,Info_measure_main_exp,2022.2.2,Win32,60.19020104,,,,,,,,,,,,,,,,,,masks/mask_002.jpg,,,,,,,,,,,,,,,,,,,,,,,,,,,,,,,,,,,,,,,,,,,0,3,3,1,1,,,,,,,,,,,,,,,,,,,,,,,,,,,,,,,,,,,,,,,,,,,,,,
333135,001,2022-11-20_17h53.26.631,Info_measure_main_exp,2022.2.2,Win32,60.19020104,,,,,,,,,,,,,,,,,,masks/mask_004.jpg,,,,,,,,,,,,,,,,,,,,,,,,,,,,,,,,,,,,,,,,,,,0,4,4,3,1,,,,,,,,,,,,,,,,,,,,,,,,,,,,,,,,,,,,,,,,,,,,,,
333135,001,2022-11-20_17h53.26.631,Info_measure_main_exp,2022.2.2,Win32,60.19020104,,,,,,,,,,,,,,,,,,masks/mask_002.jpg,,,,,,,,,,,,,,,,,,,,,,,,,,,,,,,,,,,,,,,,,,,,,,,,0,0,0,1,1,,,,,,,,,,,,,,,,,,,,,,,,,,,,,,,,,,,,,,,,,
333135,001,2022-11-20_17h53.26.631,Info_measure_main_exp,2022.2.2,Win32,60.19020104,,,,,,,,,,,,,,,,,,masks/mask_003.jpg,,,,,,,,,,,,,,,,,,,,,,,,,,,,,,,,,,,,,,,,,,,,,,,,0,1,1,2,1,,,,,,,,,,,,,,,,,,,,,,,,,,,,,,,,,,,,,,,,,
333135,001,2022-11-20_17h53.26.631,Info_measure_main_exp,2022.2.2,Win32,60.19020104,,,,,,,,,,,,,,,,,,masks/mask_001.jpg,,,,,,,,,,,,,,,,,,,,,,,,,,,,,,,,,,,,,,,,,,,,,,,,0,2,2,0,1,,,,,,,,,,,,,,,,,,,,,,,,,,,,,,,,,,,,,,,,,
333135,001,2022-11-20_17h53.26.631,Info_measure_main_exp,2022.2.2,Win32,60.19020104,,,,,,,,,,,,,,,,,,masks/mask_004.jpg,,,,,,,,,,,,,,,,,,,,,,,,,,,,,,,,,,,,,,,,,,,,,,,,0,3,3,3,1,,,,,,,,,,,,,,,,,,,,,,,,,,,,,,,,,,,,,,,,,
333135,001,2022-11-20_17h53.26.631,Info_measure_main_exp,2022.2.2,Win32,60.19020104,,,,,,,,,,,,,,,,,,masks/mask_005.jpg,,,,,,,,,,,,,,,,,,,,,,,,,,,,,,,,,,,,,,,,,,,,,,,,0,4,4,4,1,,,,,,,,,,,,,,,,,,,,,,,,,,,,,,,,,,,,,,,,,
333135,001,2022-11-20_17h53.26.631,Info_measure_main_exp,2022.2.2,Win32,60.19020104,,,,,,,,,,,,,,,,,,,,,,,,,,,,,,4,1.5125,1,,,,,,,,,,,,0,131,5,5,2082,1974,absent_patch/patch0002082.jpg,absent_patch/patch0001974.jpg,,,,,,,,,,,,,,,,,,,,0.030555584,-0.079629651,1,0,0,response3disk,33,-0.006481453,0.00462963,1,0,0,center_square,0,32,32,26,1,,,,,,,,,,,,,,,,,,,,,,,
333135,001,2022-11-20_17h53.26.631,Info_measure_main_exp,2022.2.2,Win32,60.19020104,,,,,,,,,,,,,,,,,,masks/mask_003.jpg,,,,,,,,,,,,,,,,,,,,,,,,,,,,,,,,,,,,,,,,,,,0,0,0,2,1,,,,,,,,,,,,,,,,,,,,,,,,,,,,,,,,,,,,,,,,,,,,,,
333135,001,2022-11-20_17h53.26.631,Info_measure_main_exp,2022.2.2,Win32,60.19020104,,,,,,,,,,,,,,,,,,masks/mask_004.jpg,,,,,,,,,,,,,,,,,,,,,,,,,,,,,,,,,,,,,,,,,,,0,1,1,3,1,,,,,,,,,,,,,,,,,,,,,,,,,,,,,,,,,,,,,,,,,,,,,,
333135,001,2022-11-20_17h53.26.631,Info_measure_main_exp,2022.2.2,Win32,60.19020104,,,,,,,,,,,,,,,,,,masks/mask_002.jpg,,,,,,,,,,,,,,,,,,,,,,,,,,,,,,,,,,,,,,,,,,,0,2,2,1,1,,,,,,,,,,,,,,,,,,,,,,,,,,,,,,,,,,,,,,,,,,,,,,
333135,001,2022-11-20_17h53.26.631,Info_measure_main_exp,2022.2.2,Win32,60.19020104,,,,,,,,,,,,,,,,,,masks/mask_001.jpg,,,,,,,,,,,,,,,,,,,,,,,,,,,,,,,,,,,,,,,,,,,0,3,3,0,1,,,,,,,,,,,,,,,,,,,,,,,,,,,,,,,,,,,,,,,,,,,,,,
333135,001,2022-11-20_17h53.26.631,Info_measure_main_exp,2022.2.2,Win32,60.19020104,,,,,,,,,,,,,,,,,,masks/mask_005.jpg,,,,,,,,,,,,,,,,,,,,,,,,,,,,,,,,,,,,,,,,,,,0,4,4,4,1,,,,,,,,,,,,,,,,,,,,,,,,,,,,,,,,,,,,,,,,,,,,,,
333135,001,2022-11-20_17h53.26.631,Info_measure_main_exp,2022.2.2,Win32,60.19020104,,,,,,,,,,,,,,,,,,masks/mask_005.jpg,,,,,,,,,,,,,,,,,,,,,,,,,,,,,,,,,,,,,,,,,,,,,,,,0,0,0,4,1,,,,,,,,,,,,,,,,,,,,,,,,,,,,,,,,,,,,,,,,,
333135,001,2022-11-20_17h53.26.631,Info_measure_main_exp,2022.2.2,Win32,60.19020104,,,,,,,,,,,,,,,,,,masks/mask_001.jpg,,,,,,,,,,,,,,,,,,,,,,,,,,,,,,,,,,,,,,,,,,,,,,,,0,1,1,0,1,,,,,,,,,,,,,,,,,,,,,,,,,,,,,,,,,,,,,,,,,
333135,001,2022-11-20_17h53.26.631,Info_measure_main_exp,2022.2.2,Win32,60.19020104,,,,,,,,,,,,,,,,,,masks/mask_003.jpg,,,,,,,,,,,,,,,,,,,,,,,,,,,,,,,,,,,,,,,,,,,,,,,,0,2,2,2,1,,,,,,,,,,,,,,,,,,,,,,,,,,,,,,,,,,,,,,,,,
333135,001,2022-11-20_17h53.26.631,Info_measure_main_exp,2022.2.2,Win32,60.19020104,,,,,,,,,,,,,,,,,,masks/mask_002.jpg,,,,,,,,,,,,,,,,,,,,,,,,,,,,,,,,,,,,,,,,,,,,,,,,0,3,3,1,1,,,,,,,,,,,,,,,,,,,,,,,,,,,,,,,,,,,,,,,,,
333135,001,2022-11-20_17h53.26.631,Info_measure_main_exp,2022.2.2,Win32,60.19020104,,,,,,,,,,,,,,,,,,masks/mask_004.jpg,,,,,,,,,,,,,,,,,,,,,,,,,,,,,,,,,,,,,,,,,,,,,,,,0,4,4,3,1,,,,,,,,,,,,,,,,,,,,,,,,,,,,,,,,,,,,,,,,,
333135,001,2022-11-20_17h53.26.631,Info_measure_main_exp,2022.2.2,Win32,60.19020104,,,,,,,,,,,,,,,,,,,,,,,,,,,,,,4,0.8975,1,,,,,,,,,,,,0,131,5,5,2238,2214,absent_patch/patch0002238.jpg,absent_patch/patch0002214.jpg,,,,,,,,,,,,,,,,,,,,0.025925954,-0.100000028,1,0,0,response3disk,34,-0.006481453,-0.005555577,1,0,0,center_square,0,33,33,81,1,,,,,,,,,,,,,,,,,,,,,,,
333135,001,2022-11-20_17h53.26.631,Info_measure_main_exp,2022.2.2,Win32,60.19020104,,,,,,,,,,,,,,,,,,masks/mask_004.jpg,,,,,,,,,,,,,,,,,,,,,,,,,,,,,,,,,,,,,,,,,,,0,0,0,3,1,,,,,,,,,,,,,,,,,,,,,,,,,,,,,,,,,,,,,,,,,,,,,,
333135,001,2022-11-20_17h53.26.631,Info_measure_main_exp,2022.2.2,Win32,60.19020104,,,,,,,,,,,,,,,,,,masks/mask_002.jpg,,,,,,,,,,,,,,,,,,,,,,,,,,,,,,,,,,,,,,,,,,,0,1,1,1,1,,,,,,,,,,,,,,,,,,,,,,,,,,,,,,,,,,,,,,,,,,,,,,
333135,001,2022-11-20_17h53.26.631,Info_measure_main_exp,2022.2.2,Win32,60.19020104,,,,,,,,,,,,,,,,,,masks/mask_003.jpg,,,,,,,,,,,,,,,,,,,,,,,,,,,,,,,,,,,,,,,,,,,0,2,2,2,1,,,,,,,,,,,,,,,,,,,,,,,,,,,,,,,,,,,,,,,,,,,,,,
333135,001,2022-11-20_17h53.26.631,Info_measure_main_exp,2022.2.2,Win32,60.19020104,,,,,,,,,,,,,,,,,,masks/mask_005.jpg,,,,,,,,,,,,,,,,,,,,,,,,,,,,,,,,,,,,,,,,,,,0,3,3,4,1,,,,,,,,,,,,,,,,,,,,,,,,,,,,,,,,,,,,,,,,,,,,,,
333135,001,2022-11-20_17h53.26.631,Info_measure_main_exp,2022.2.2,Win32,60.19020104,,,,,,,,,,,,,,,,,,masks/mask_001.jpg,,,,,,,,,,,,,,,,,,,,,,,,,,,,,,,,,,,,,,,,,,,0,4,4,0,1,,,,,,,,,,,,,,,,,,,,,,,,,,,,,,,,,,,,,,,,,,,,,,
333135,001,2022-11-20_17h53.26.631,Info_measure_main_exp,2022.2.2,Win32,60.19020104,,,,,,,,,,,,,,,,,,masks/mask_005.jpg,,,,,,,,,,,,,,,,,,,,,,,,,,,,,,,,,,,,,,,,,,,,,,,,0,0,0,4,1,,,,,,,,,,,,,,,,,,,,,,,,,,,,,,,,,,,,,,,,,
333135,001,2022-11-20_17h53.26.631,Info_measure_main_exp,2022.2.2,Win32,60.19020104,,,,,,,,,,,,,,,,,,masks/mask_004.jpg,,,,,,,,,,,,,,,,,,,,,,,,,,,,,,,,,,,,,,,,,,,,,,,,0,1,1,3,1,,,,,,,,,,,,,,,,,,,,,,,,,,,,,,,,,,,,,,,,,
333135,001,2022-11-20_17h53.26.631,Info_measure_main_exp,2022.2.2,Win32,60.19020104,,,,,,,,,,,,,,,,,,masks/mask_002.jpg,,,,,,,,,,,,,,,,,,,,,,,,,,,,,,,,,,,,,,,,,,,,,,,,0,2,2,1,1,,,,,,,,,,,,,,,,,,,,,,,,,,,,,,,,,,,,,,,,,
333135,001,2022-11-20_17h53.26.631,Info_measure_main_exp,2022.2.2,Win32,60.19020104,,,,,,,,,,,,,,,,,,masks/mask_001.jpg,,,,,,,,,,,,,,,,,,,,,,,,,,,,,,,,,,,,,,,,,,,,,,,,0,3,3,0,1,,,,,,,,,,,,,,,,,,,,,,,,,,,,,,,,,,,,,,,,,
