participant,session,date,expName,psychopyVersion,OS,frameRate,space_press_continue.keys,space_press_continue.rt,space_press_continue_2.keys,space_press_continue_2.rt,space_press_continue_3.keys,space_press_continue_3.rt,space_press_continue_4.keys,space_press_continue_4.rt,space_press_continue_5.keys,space_press_continue_5.rt,space_press_continue_6.keys,space_press_continue_6.rt,prac_mask_loop_1.thisRepN,prac_mask_loop_1.thisTrialN,prac_mask_loop_1.thisN,prac_mask_loop_1.thisIndex,prac_mask_loop_1.ran,mask_name,prac_mask_loop_2.thisRepN,prac_mask_loop_2.thisTrialN,prac_mask_loop_2.thisN,prac_mask_loop_2.thisIndex,prac_mask_loop_2.ran,mouse_2.x,mouse_2.y,mouse_2.leftButton,mouse_2.midButton,mouse_2.rightButton,mouse_2.clicked_name,similarity,response_time,Pass,mouse_12.x,mouse_12.y,mouse_12.leftButton,mouse_12.midButton,mouse_12.rightButton,mouse_12.clicked_name,prac_loop.thisRepN,prac_loop.thisTrialN,prac_loop.thisN,prac_loop.thisIndex,prac_loop.ran,Pair_type,Image_num,Patch_1_loc,Patch_2_loc,Patch_1_info,Patch_2_info,Patch_1_name,Patch_2_name,mouse_1.x,mouse_1.y,mouse_1.leftButton,mouse_1.midButton,mouse_1.rightButton,mouse_1.time,mouse_1.clicked_name,space_press_continue_7.keys,space_press_continue_7.rt,mask_loop.thisRepN,mask_loop.thisTrialN,mask_loop.thisN,mask_loop.thisIndex,mask_loop.ran,mask_loop_2.thisRepN,mask_loop_2.thisTrialN,mask_loop_2.thisN,mask_loop_2.thisIndex,mask_loop_2.ran,mouse.x,mouse.y,mouse.leftButton,mouse.midButton,mouse.rightButton,mouse.clicked_name,trialNumber,mouse_11.x,mouse_11.y,mouse_11.leftButton,mouse_11.midButton,mouse_11.rightButton,mouse_11.clicked_name,first_pass_loop.thisRepN,first_pass_loop.thisTrialN,first_pass_loop.thisN,first_pass_loop.thisIndex,first_pass_loop.ran,mask_loop_3.thisRepN,mask_loop_3.thisTrialN,mask_loop_3.thisN,mask_loop_3.thisIndex,mask_loop_3.ran,mask_loop_4.thisRepN,mask_loop_4.thisTrialN,mask_loop_4.thisN,mask_loop_4.thisIndex,mask_loop_4.ran,mouse_3.x,mouse_3.y,mouse_3.leftButton,mouse_3.midButton,mouse_3.rightButton,mouse_3.clicked_name,double_pass_loop.thisRepN,double_pass_loop.thisTrialN,double_pass_loop.thisN,double_pass_loop.thisIndex,double_pass_loop.ran,space_exit.keys,space_exit.rt
334597,001,2022-11-14_01h00.38.982,Info_measure_main_exp,2022.2.2,Win32,59.85515054,,,,,,,,,,,,,,,,,,,,,,,,,,,,,,,,,,,,,,,,,,,,,,,,,,,,,,,,,,,,,,,,,,,,,,,,,,,,,,,,,,,,,,,,,,,,,,,,,,,,,,,,,,,,,,,
334597,001,2022-11-14_01h00.38.982,Info_measure_main_exp,2022.2.2,Win32,59.85515054,,,,,,,,,,,,,,,,,,,,,,,,,,,,,,,,,,,,,,,,,,,,,,,,,,,,,,,,,,,,,,,,,,,,,,,,,,,,,,,,,,,,,,,,,,,,,,,,,,,,,,,,,,,,,,,
334597,001,2022-11-14_01h00.38.982,Info_measure_main_exp,2022.2.2,Win32,59.85515054,space,6.002,,,,,,,,,,,,,,,,,,,,,,,,,,,,,,,,,,,,,,,,,,,,,,,,,,,,,,,,,,,,,,,,,,,,,,,,,,,,,,,,,,,,,,,,,,,,,,,,,,,,,,,,,,,,,
334597,001,2022-11-14_01h00.38.982,Info_measure_main_exp,2022.2.2,Win32,59.85515054,,,space,7.2093,,,,,,,,,,,,,,,,,,,,,,,,,,,,,,,,,,,,,,,,,,,,,,,,,,,,,,,,,,,,,,,,,,,,,,,,,,,,,,,,,,,,,,,,,,,,,,,,,,,,,,,,,,,
334597,001,2022-11-14_01h00.38.982,Info_measure_main_exp,2022.2.2,Win32,59.85515054,,,,,space,5.6756,,,,,,,,,,,,,,,,,,,,,,,,,,,,,,,,,,,,,,,,,,,,,,,,,,,,,,,,,,,,,,,,,,,,,,,,,,,,,,,,,,,,,,,,,,,,,,,,,,,,,,,,,
334597,001,2022-11-14_01h00.38.982,Info_measure_main_exp,2022.2.2,Win32,59.85515054,,,,,,,space,120.8686,,,,,,,,,,,,,,,,,,,,,,,,,,,,,,,,,,,,,,,,,,,,,,,,,,,,,,,,,,,,,,,,,,,,,,,,,,,,,,,,,,,,,,,,,,,,,,,,,,,,,,,
334597,001,2022-11-14_01h00.38.982,Info_measure_main_exp,2022.2.2,Win32,59.85515054,,,,,,,,,space,127.4454,,,,,,,,,,,,,,,,,,,,,,,,,,,,,,,,,,,,,,,,,,,,,,,,,,,,,,,,,,,,,,,,,,,,,,,,,,,,,,,,,,,,,,,,,,,,,,,,,,,,,
334597,001,2022-11-14_01h00.38.982,Info_measure_main_exp,2022.2.2,Win32,59.85515054,,,,,,,,,,,space,4.7977,,,,,,,,,,,,,,,,,,,,,,,,,,,,,,,,,,,,,,,,,,,,,,,,,,,,,,,,,,,,,,,,,,,,,,,,,,,,,,,,,,,,,,,,,,,,,,,,,,,
334597,001,2022-11-14_01h00.38.982,Info_measure_main_exp,2022.2.2,Win32,59.85515054,,,,,,,,,,,,,0,0,0,3,1,masks/mask_004.jpg,,,,,,,,,,,,,,,,,,,,,,,,,,,,,,,,,,,,,,,,,,,,,,,,,,,,,,,,,,,,,,,,,,,,,,,,,,,,,,,,,,,,,,,,,,,,,
334597,001,2022-11-14_01h00.38.982,Info_measure_main_exp,2022.2.2,Win32,59.85515054,,,,,,,,,,,,,0,1,1,0,1,masks/mask_001.jpg,,,,,,,,,,,,,,,,,,,,,,,,,,,,,,,,,,,,,,,,,,,,,,,,,,,,,,,,,,,,,,,,,,,,,,,,,,,,,,,,,,,,,,,,,,,,,
334597,001,2022-11-14_01h00.38.982,Info_measure_main_exp,2022.2.2,Win32,59.85515054,,,,,,,,,,,,,0,2,2,4,1,masks/mask_005.jpg,,,,,,,,,,,,,,,,,,,,,,,,,,,,,,,,,,,,,,,,,,,,,,,,,,,,,,,,,,,,,,,,,,,,,,,,,,,,,,,,,,,,,,,,,,,,,
334597,001,2022-11-14_01h00.38.982,Info_measure_main_exp,2022.2.2,Win32,59.85515054,,,,,,,,,,,,,0,3,3,1,1,masks/mask_002.jpg,,,,,,,,,,,,,,,,,,,,,,,,,,,,,,,,,,,,,,,,,,,,,,,,,,,,,,,,,,,,,,,,,,,,,,,,,,,,,,,,,,,,,,,,,,,,,
334597,001,2022-11-14_01h00.38.982,Info_measure_main_exp,2022.2.2,Win32,59.85515054,,,,,,,,,,,,,0,4,4,2,1,masks/mask_003.jpg,,,,,,,,,,,,,,,,,,,,,,,,,,,,,,,,,,,,,,,,,,,,,,,,,,,,,,,,,,,,,,,,,,,,,,,,,,,,,,,,,,,,,,,,,,,,,
334597,001,2022-11-14_01h00.38.982,Info_measure_main_exp,2022.2.2,Win32,59.85515054,,,,,,,,,,,,,,,,,,masks/mask_003.jpg,0,0,0,2,1,,,,,,,,,,,,,,,,,,,,,,,,,,,,,,,,,,,,,,,,,,,,,,,,,,,,,,,,,,,,,,,,,,,,,,,,,,,,,,,,,,,,,,,,
334597,001,2022-11-14_01h00.38.982,Info_measure_main_exp,2022.2.2,Win32,59.85515054,,,,,,,,,,,,,,,,,,masks/mask_005.jpg,0,1,1,4,1,,,,,,,,,,,,,,,,,,,,,,,,,,,,,,,,,,,,,,,,,,,,,,,,,,,,,,,,,,,,,,,,,,,,,,,,,,,,,,,,,,,,,,,,
334597,001,2022-11-14_01h00.38.982,Info_measure_main_exp,2022.2.2,Win32,59.85515054,,,,,,,,,,,,,,,,,,masks/mask_004.jpg,0,2,2,3,1,,,,,,,,,,,,,,,,,,,,,,,,,,,,,,,,,,,,,,,,,,,,,,,,,,,,,,,,,,,,,,,,,,,,,,,,,,,,,,,,,,,,,,,,
334597,001,2022-11-14_01h00.38.982,Info_measure_main_exp,2022.2.2,Win32,59.85515054,,,,,,,,,,,,,,,,,,masks/mask_001.jpg,0,3,3,0,1,,,,,,,,,,,,,,,,,,,,,,,,,,,,,,,,,,,,,,,,,,,,,,,,,,,,,,,,,,,,,,,,,,,,,,,,,,,,,,,,,,,,,,,,
334597,001,2022-11-14_01h00.38.982,Info_measure_main_exp,2022.2.2,Win32,59.85515054,,,,,,,,,,,,,,,,,,masks/mask_002.jpg,0,4,4,1,1,,,,,,,,,,,,,,,,,,,,,,,,,,,,,,,,,,,,,,,,,,,,,,,,,,,,,,,,,,,,,,,,,,,,,,,,,,,,,,,,,,,,,,,,
334597,001,2022-11-14_01h00.38.982,Info_measure_main_exp,2022.2.2,Win32,59.85515054,,,,,,,,,,,,,,,,,,,,,,,,-0.141446011,0.032296487,1,0,0,response7disk,1,280.0736,1,-0.006935687,0.00651533,1,0,0,center_square,0,0,0,0,1,0,131,5,5,2370,2406,prac_patch/patch0002370.jpg,prac_patch/patch0002406.jpg,,,,,,,,,,,,,,,,,,,,,,,,,,,,,,,,,,,,,,,,,,,,,,,,,,,,,,,,,,,,
334597,001,2022-11-14_01h00.38.982,Info_measure_main_exp,2022.2.2,Win32,59.85515054,,,,,,,,,,,,,0,0,0,1,1,masks/mask_002.jpg,,,,,,,,,,,,,,,,,,,,,,,,,,,,,,,,,,,,,,,,,,,,,,,,,,,,,,,,,,,,,,,,,,,,,,,,,,,,,,,,,,,,,,,,,,,,,
334597,001,2022-11-14_01h00.38.982,Info_measure_main_exp,2022.2.2,Win32,59.85515054,,,,,,,,,,,,,0,1,1,2,1,masks/mask_003.jpg,,,,,,,,,,,,,,,,,,,,,,,,,,,,,,,,,,,,,,,,,,,,,,,,,,,,,,,,,,,,,,,,,,,,,,,,,,,,,,,,,,,,,,,,,,,,,
334597,001,2022-11-14_01h00.38.982,Info_measure_main_exp,2022.2.2,Win32,59.85515054,,,,,,,,,,,,,0,2,2,3,1,masks/mask_004.jpg,,,,,,,,,,,,,,,,,,,,,,,,,,,,,,,,,,,,,,,,,,,,,,,,,,,,,,,,,,,,,,,,,,,,,,,,,,,,,,,,,,,,,,,,,,,,,
334597,001,2022-11-14_01h00.38.982,Info_measure_main_exp,2022.2.2,Win32,59.85515054,,,,,,,,,,,,,0,3,3,0,1,masks/mask_001.jpg,,,,,,,,,,,,,,,,,,,,,,,,,,,,,,,,,,,,,,,,,,,,,,,,,,,,,,,,,,,,,,,,,,,,,,,,,,,,,,,,,,,,,,,,,,,,,
334597,001,2022-11-14_01h00.38.982,Info_measure_main_exp,2022.2.2,Win32,59.85515054,,,,,,,,,,,,,0,4,4,4,1,masks/mask_005.jpg,,,,,,,,,,,,,,,,,,,,,,,,,,,,,,,,,,,,,,,,,,,,,,,,,,,,,,,,,,,,,,,,,,,,,,,,,,,,,,,,,,,,,,,,,,,,,
334597,001,2022-11-14_01h00.38.982,Info_measure_main_exp,2022.2.2,Win32,59.85515054,,,,,,,,,,,,,,,,,,masks/mask_002.jpg,0,0,0,1,1,,,,,,,,,,,,,,,,,,,,,,,,,,,,,,,,,,,,,,,,,,,,,,,,,,,,,,,,,,,,,,,,,,,,,,,,,,,,,,,,,,,,,,,,
334597,001,2022-11-14_01h00.38.982,Info_measure_main_exp,2022.2.2,Win32,59.85515054,,,,,,,,,,,,,,,,,,masks/mask_005.jpg,0,1,1,4,1,,,,,,,,,,,,,,,,,,,,,,,,,,,,,,,,,,,,,,,,,,,,,,,,,,,,,,,,,,,,,,,,,,,,,,,,,,,,,,,,,,,,,,,,
334597,001,2022-11-14_01h00.38.982,Info_measure_main_exp,2022.2.2,Win32,59.85515054,,,,,,,,,,,,,,,,,,masks/mask_004.jpg,0,2,2,3,1,,,,,,,,,,,,,,,,,,,,,,,,,,,,,,,,,,,,,,,,,,,,,,,,,,,,,,,,,,,,,,,,,,,,,,,,,,,,,,,,,,,,,,,,
334597,001,2022-11-14_01h00.38.982,Info_measure_main_exp,2022.2.2,Win32,59.85515054,,,,,,,,,,,,,,,,,,masks/mask_003.jpg,0,3,3,2,1,,,,,,,,,,,,,,,,,,,,,,,,,,,,,,,,,,,,,,,,,,,,,,,,,,,,,,,,,,,,,,,,,,,,,,,,,,,,,,,,,,,,,,,,
334597,001,2022-11-14_01h00.38.982,Info_measure_main_exp,2022.2.2,Win32,59.85515054,,,,,,,,,,,,,,,,,,masks/mask_001.jpg,0,4,4,0,1,,,,,,,,,,,,,,,,,,,,,,,,,,,,,,,,,,,,,,,,,,,,,,,,,,,,,,,,,,,,,,,,,,,,,,,,,,,,,,,,,,,,,,,,
334597,001,2022-11-14_01h00.38.982,Info_measure_main_exp,2022.2.2,Win32,59.85515054,,,,,,,,,,,,,,,,,,,,,,,,-0.051772436,-0.130236786,1,0,0,response5disk,3,303.246,1,-0.004693781,-0.00021016,1,0,0,center_square,0,1,1,1,1,0,131,5,5,2514,2490,prac_patch/patch0002514.jpg,prac_patch/patch0002490.jpg,,,,,,,,,,,,,,,,,,,,,,,,,,,,,,,,,,,,,,,,,,,,,,,,,,,,,,,,,,,,
334597,001,2022-11-14_01h00.38.982,Info_measure_main_exp,2022.2.2,Win32,59.85515054,,,,,,,,,,,,,0,0,0,2,1,masks/mask_003.jpg,,,,,,,,,,,,,,,,,,,,,,,,,,,,,,,,,,,,,,,,,,,,,,,,,,,,,,,,,,,,,,,,,,,,,,,,,,,,,,,,,,,,,,,,,,,,,
334597,001,2022-11-14_01h00.38.982,Info_measure_main_exp,2022.2.2,Win32,59.85515054,,,,,,,,,,,,,0,1,1,3,1,masks/mask_004.jpg,,,,,,,,,,,,,,,,,,,,,,,,,,,,,,,,,,,,,,,,,,,,,,,,,,,,,,,,,,,,,,,,,,,,,,,,,,,,,,,,,,,,,,,,,,,,,
334597,001,2022-11-14_01h00.38.982,Info_measure_main_exp,2022.2.2,Win32,59.85515054,,,,,,,,,,,,,0,2,2,1,1,masks/mask_002.jpg,,,,,,,,,,,,,,,,,,,,,,,,,,,,,,,,,,,,,,,,,,,,,,,,,,,,,,,,,,,,,,,,,,,,,,,,,,,,,,,,,,,,,,,,,,,,,
334597,001,2022-11-14_01h00.38.982,Info_measure_main_exp,2022.2.2,Win32,59.85515054,,,,,,,,,,,,,0,3,3,0,1,masks/mask_001.jpg,,,,,,,,,,,,,,,,,,,,,,,,,,,,,,,,,,,,,,,,,,,,,,,,,,,,,,,,,,,,,,,,,,,,,,,,,,,,,,,,,,,,,,,,,,,,,
334597,001,2022-11-14_01h00.38.982,Info_measure_main_exp,2022.2.2,Win32,59.85515054,,,,,,,,,,,,,0,4,4,4,1,masks/mask_005.jpg,,,,,,,,,,,,,,,,,,,,,,,,,,,,,,,,,,,,,,,,,,,,,,,,,,,,,,,,,,,,,,,,,,,,,,,,,,,,,,,,,,,,,,,,,,,,,
334597,001,2022-11-14_01h00.38.982,Info_measure_main_exp,2022.2.2,Win32,59.85515054,,,,,,,,,,,,,,,,,,masks/mask_004.jpg,0,0,0,3,1,,,,,,,,,,,,,,,,,,,,,,,,,,,,,,,,,,,,,,,,,,,,,,,,,,,,,,,,,,,,,,,,,,,,,,,,,,,,,,,,,,,,,,,,
334597,001,2022-11-14_01h00.38.982,Info_measure_main_exp,2022.2.2,Win32,59.85515054,,,,,,,,,,,,,,,,,,masks/mask_005.jpg,0,1,1,4,1,,,,,,,,,,,,,,,,,,,,,,,,,,,,,,,,,,,,,,,,,,,,,,,,,,,,,,,,,,,,,,,,,,,,,,,,,,,,,,,,,,,,,,,,
334597,001,2022-11-14_01h00.38.982,Info_measure_main_exp,2022.2.2,Win32,59.85515054,,,,,,,,,,,,,,,,,,masks/mask_001.jpg,0,2,2,0,1,,,,,,,,,,,,,,,,,,,,,,,,,,,,,,,,,,,,,,,,,,,,,,,,,,,,,,,,,,,,,,,,,,,,,,,,,,,,,,,,,,,,,,,,
334597,001,2022-11-14_01h00.38.982,Info_measure_main_exp,2022.2.2,Win32,59.85515054,,,,,,,,,,,,,,,,,,masks/mask_003.jpg,0,3,3,2,1,,,,,,,,,,,,,,,,,,,,,,,,,,,,,,,,,,,,,,,,,,,,,,,,,,,,,,,,,,,,,,,,,,,,,,,,,,,,,,,,,,,,,,,,
334597,001,2022-11-14_01h00.38.982,Info_measure_main_exp,2022.2.2,Win32,59.85515054,,,,,,,,,,,,,,,,,,masks/mask_002.jpg,0,4,4,1,1,,,,,,,,,,,,,,,,,,,,,,,,,,,,,,,,,,,,,,,,,,,,,,,,,,,,,,,,,,,,,,,,,,,,,,,,,,,,,,,,,,,,,,,,
334597,001,2022-11-14_01h00.38.982,Info_measure_main_exp,2022.2.2,Win32,59.85515054,,,,,,,,,,,,,,,,,,,,,,,,0.0210873,0.171290433,1,0,0,response1disk,7,315.6932,1,-0.004693781,-0.00021016,1,0,0,center_square,0,2,2,2,1,0,131,5,5,2526,2526,prac_patch/patch0002526.jpg,prac_patch/patch0002526.jpg,,,,,,,,,,,,,,,,,,,,,,,,,,,,,,,,,,,,,,,,,,,,,,,,,,,,,,,,,,,,
334597,001,2022-11-14_01h00.38.982,Info_measure_main_exp,2022.2.2,Win32,59.85515054,,,,,,,,,,,,,,,,,,,,,,,,,,,,,,,,,,,,,,,,,,,,,,,,,,,,,,,,,,,space,2.1812,,,,,,,,,,,,,,,,,,,,,,,,,,,,,,,,,,,,,,,,,,,,,,,,,,,
334597,001,2022-11-14_01h00.38.982,Info_measure_main_exp,2022.2.2,Win32,59.85515054,,,,,,,,,,,,,,,,,,masks/mask_002.jpg,,,,,,,,,,,,,,,,,,,,,,,,,,,,,,,,,,,,,,,,,,,0,0,0,1,1,,,,,,,,,,,,,,,,,,,,,,,,,,,,,,,,,,,,,,,,,,,,,,
334597,001,2022-11-14_01h00.38.982,Info_measure_main_exp,2022.2.2,Win32,59.85515054,,,,,,,,,,,,,,,,,,masks/mask_003.jpg,,,,,,,,,,,,,,,,,,,,,,,,,,,,,,,,,,,,,,,,,,,0,1,1,2,1,,,,,,,,,,,,,,,,,,,,,,,,,,,,,,,,,,,,,,,,,,,,,,
334597,001,2022-11-14_01h00.38.982,Info_measure_main_exp,2022.2.2,Win32,59.85515054,,,,,,,,,,,,,,,,,,masks/mask_004.jpg,,,,,,,,,,,,,,,,,,,,,,,,,,,,,,,,,,,,,,,,,,,0,2,2,3,1,,,,,,,,,,,,,,,,,,,,,,,,,,,,,,,,,,,,,,,,,,,,,,
334597,001,2022-11-14_01h00.38.982,Info_measure_main_exp,2022.2.2,Win32,59.85515054,,,,,,,,,,,,,,,,,,masks/mask_005.jpg,,,,,,,,,,,,,,,,,,,,,,,,,,,,,,,,,,,,,,,,,,,0,3,3,4,1,,,,,,,,,,,,,,,,,,,,,,,,,,,,,,,,,,,,,,,,,,,,,,
334597,001,2022-11-14_01h00.38.982,Info_measure_main_exp,2022.2.2,Win32,59.85515054,,,,,,,,,,,,,,,,,,masks/mask_001.jpg,,,,,,,,,,,,,,,,,,,,,,,,,,,,,,,,,,,,,,,,,,,0,4,4,0,1,,,,,,,,,,,,,,,,,,,,,,,,,,,,,,,,,,,,,,,,,,,,,,
334597,001,2022-11-14_01h00.38.982,Info_measure_main_exp,2022.2.2,Win32,59.85515054,,,,,,,,,,,,,,,,,,masks/mask_003.jpg,,,,,,,,,,,,,,,,,,,,,,,,,,,,,,,,,,,,,,,,,,,,,,,,0,0,0,2,1,,,,,,,,,,,,,,,,,,,,,,,,,,,,,,,,,,,,,,,,,
334597,001,2022-11-14_01h00.38.982,Info_measure_main_exp,2022.2.2,Win32,59.85515054,,,,,,,,,,,,,,,,,,masks/mask_001.jpg,,,,,,,,,,,,,,,,,,,,,,,,,,,,,,,,,,,,,,,,,,,,,,,,0,1,1,0,1,,,,,,,,,,,,,,,,,,,,,,,,,,,,,,,,,,,,,,,,,
334597,001,2022-11-14_01h00.38.982,Info_measure_main_exp,2022.2.2,Win32,59.85515054,,,,,,,,,,,,,,,,,,masks/mask_002.jpg,,,,,,,,,,,,,,,,,,,,,,,,,,,,,,,,,,,,,,,,,,,,,,,,0,2,2,1,1,,,,,,,,,,,,,,,,,,,,,,,,,,,,,,,,,,,,,,,,,
334597,001,2022-11-14_01h00.38.982,Info_measure_main_exp,2022.2.2,Win32,59.85515054,,,,,,,,,,,,,,,,,,masks/mask_004.jpg,,,,,,,,,,,,,,,,,,,,,,,,,,,,,,,,,,,,,,,,,,,,,,,,0,3,3,3,1,,,,,,,,,,,,,,,,,,,,,,,,,,,,,,,,,,,,,,,,,
334597,001,2022-11-14_01h00.38.982,Info_measure_main_exp,2022.2.2,Win32,59.85515054,,,,,,,,,,,,,,,,,,masks/mask_005.jpg,,,,,,,,,,,,,,,,,,,,,,,,,,,,,,,,,,,,,,,,,,,,,,,,0,4,4,4,1,,,,,,,,,,,,,,,,,,,,,,,,,,,,,,,,,,,,,,,,,
334597,001,2022-11-14_01h00.38.982,Info_measure_main_exp,2022.2.2,Win32,59.85515054,,,,,,,,,,,,,,,,,,,,,,,,,,,,,,4,9.0782,1,,,,,,,,,,,,1,131,5,5,2250,1,absent_patch/patch0002250.jpg,present_patch/cong_131_5_a.jpg,,,,,,,,,,,,,,,,,,,,0.036780185,-0.138083305,1,0,0,response3disk,1,0.002031709,0.000910755,1,0,0,center_square,0,0,0,5,1,,,,,,,,,,,,,,,,,,,,,,,
334597,001,2022-11-14_01h00.38.982,Info_measure_main_exp,2022.2.2,Win32,59.85515054,,,,,,,,,,,,,,,,,,masks/mask_003.jpg,,,,,,,,,,,,,,,,,,,,,,,,,,,,,,,,,,,,,,,,,,,0,0,0,2,1,,,,,,,,,,,,,,,,,,,,,,,,,,,,,,,,,,,,,,,,,,,,,,
334597,001,2022-11-14_01h00.38.982,Info_measure_main_exp,2022.2.2,Win32,59.85515054,,,,,,,,,,,,,,,,,,masks/mask_005.jpg,,,,,,,,,,,,,,,,,,,,,,,,,,,,,,,,,,,,,,,,,,,0,1,1,4,1,,,,,,,,,,,,,,,,,,,,,,,,,,,,,,,,,,,,,,,,,,,,,,
334597,001,2022-11-14_01h00.38.982,Info_measure_main_exp,2022.2.2,Win32,59.85515054,,,,,,,,,,,,,,,,,,masks/mask_001.jpg,,,,,,,,,,,,,,,,,,,,,,,,,,,,,,,,,,,,,,,,,,,0,2,2,0,1,,,,,,,,,,,,,,,,,,,,,,,,,,,,,,,,,,,,,,,,,,,,,,
334597,001,2022-11-14_01h00.38.982,Info_measure_main_exp,2022.2.2,Win32,59.85515054,,,,,,,,,,,,,,,,,,masks/mask_002.jpg,,,,,,,,,,,,,,,,,,,,,,,,,,,,,,,,,,,,,,,,,,,0,3,3,1,1,,,,,,,,,,,,,,,,,,,,,,,,,,,,,,,,,,,,,,,,,,,,,,
334597,001,2022-11-14_01h00.38.982,Info_measure_main_exp,2022.2.2,Win32,59.85515054,,,,,,,,,,,,,,,,,,masks/mask_004.jpg,,,,,,,,,,,,,,,,,,,,,,,,,,,,,,,,,,,,,,,,,,,0,4,4,3,1,,,,,,,,,,,,,,,,,,,,,,,,,,,,,,,,,,,,,,,,,,,,,,
334597,001,2022-11-14_01h00.38.982,Info_measure_main_exp,2022.2.2,Win32,59.85515054,,,,,,,,,,,,,,,,,,masks/mask_004.jpg,,,,,,,,,,,,,,,,,,,,,,,,,,,,,,,,,,,,,,,,,,,,,,,,0,0,0,3,1,,,,,,,,,,,,,,,,,,,,,,,,,,,,,,,,,,,,,,,,,
334597,001,2022-11-14_01h00.38.982,Info_measure_main_exp,2022.2.2,Win32,59.85515054,,,,,,,,,,,,,,,,,,masks/mask_002.jpg,,,,,,,,,,,,,,,,,,,,,,,,,,,,,,,,,,,,,,,,,,,,,,,,0,1,1,1,1,,,,,,,,,,,,,,,,,,,,,,,,,,,,,,,,,,,,,,,,,
334597,001,2022-11-14_01h00.38.982,Info_measure_main_exp,2022.2.2,Win32,59.85515054,,,,,,,,,,,,,,,,,,masks/mask_005.jpg,,,,,,,,,,,,,,,,,,,,,,,,,,,,,,,,,,,,,,,,,,,,,,,,0,2,2,4,1,,,,,,,,,,,,,,,,,,,,,,,,,,,,,,,,,,,,,,,,,
334597,001,2022-11-14_01h00.38.982,Info_measure_main_exp,2022.2.2,Win32,59.85515054,,,,,,,,,,,,,,,,,,masks/mask_003.jpg,,,,,,,,,,,,,,,,,,,,,,,,,,,,,,,,,,,,,,,,,,,,,,,,0,3,3,2,1,,,,,,,,,,,,,,,,,,,,,,,,,,,,,,,,,,,,,,,,,
334597,001,2022-11-14_01h00.38.982,Info_measure_main_exp,2022.2.2,Win32,59.85515054,,,,,,,,,,,,,,,,,,masks/mask_001.jpg,,,,,,,,,,,,,,,,,,,,,,,,,,,,,,,,,,,,,,,,,,,,,,,,0,4,4,0,1,,,,,,,,,,,,,,,,,,,,,,,,,,,,,,,,,,,,,,,,,
334597,001,2022-11-14_01h00.38.982,Info_measure_main_exp,2022.2.2,Win32,59.85515054,,,,,,,,,,,,,,,,,,,,,,,,,,,,,,3,2.2025,1,,,,,,,,,,,,0,131,5,5,2274,2142,absent_patch/patch0002274.jpg,absent_patch/patch0002142.jpg,,,,,,,,,,,,,,,,,,,,-0.051772436,-0.125753126,1,0,0,response5disk,2,-0.008056564,-0.00021016,1,0,0,center_square,0,1,1,75,1,,,,,,,,,,,,,,,,,,,,,,,
334597,001,2022-11-14_01h00.38.982,Info_measure_main_exp,2022.2.2,Win32,59.85515054,,,,,,,,,,,,,,,,,,masks/mask_004.jpg,,,,,,,,,,,,,,,,,,,,,,,,,,,,,,,,,,,,,,,,,,,0,0,0,3,1,,,,,,,,,,,,,,,,,,,,,,,,,,,,,,,,,,,,,,,,,,,,,,
334597,001,2022-11-14_01h00.38.982,Info_measure_main_exp,2022.2.2,Win32,59.85515054,,,,,,,,,,,,,,,,,,masks/mask_002.jpg,,,,,,,,,,,,,,,,,,,,,,,,,,,,,,,,,,,,,,,,,,,0,1,1,1,1,,,,,,,,,,,,,,,,,,,,,,,,,,,,,,,,,,,,,,,,,,,,,,
334597,001,2022-11-14_01h00.38.982,Info_measure_main_exp,2022.2.2,Win32,59.85515054,,,,,,,,,,,,,,,,,,masks/mask_003.jpg,,,,,,,,,,,,,,,,,,,,,,,,,,,,,,,,,,,,,,,,,,,0,2,2,2,1,,,,,,,,,,,,,,,,,,,,,,,,,,,,,,,,,,,,,,,,,,,,,,
334597,001,2022-11-14_01h00.38.982,Info_measure_main_exp,2022.2.2,Win32,59.85515054,,,,,,,,,,,,,,,,,,masks/mask_001.jpg,,,,,,,,,,,,,,,,,,,,,,,,,,,,,,,,,,,,,,,,,,,0,3,3,0,1,,,,,,,,,,,,,,,,,,,,,,,,,,,,,,,,,,,,,,,,,,,,,,
334597,001,2022-11-14_01h00.38.982,Info_measure_main_exp,2022.2.2,Win32,59.85515054,,,,,,,,,,,,,,,,,,masks/mask_005.jpg,,,,,,,,,,,,,,,,,,,,,,,,,,,,,,,,,,,,,,,,,,,0,4,4,4,1,,,,,,,,,,,,,,,,,,,,,,,,,,,,,,,,,,,,,,,,,,,,,,
334597,001,2022-11-14_01h00.38.982,Info_measure_main_exp,2022.2.2,Win32,59.85515054,,,,,,,,,,,,,,,,,,masks/mask_005.jpg,,,,,,,,,,,,,,,,,,,,,,,,,,,,,,,,,,,,,,,,,,,,,,,,0,0,0,4,1,,,,,,,,,,,,,,,,,,,,,,,,,,,,,,,,,,,,,,,,,
334597,001,2022-11-14_01h00.38.982,Info_measure_main_exp,2022.2.2,Win32,59.85515054,,,,,,,,,,,,,,,,,,masks/mask_001.jpg,,,,,,,,,,,,,,,,,,,,,,,,,,,,,,,,,,,,,,,,,,,,,,,,0,1,1,0,1,,,,,,,,,,,,,,,,,,,,,,,,,,,,,,,,,,,,,,,,,
334597,001,2022-11-14_01h00.38.982,Info_measure_main_exp,2022.2.2,Win32,59.85515054,,,,,,,,,,,,,,,,,,masks/mask_004.jpg,,,,,,,,,,,,,,,,,,,,,,,,,,,,,,,,,,,,,,,,,,,,,,,,0,2,2,3,1,,,,,,,,,,,,,,,,,,,,,,,,,,,,,,,,,,,,,,,,,
334597,001,2022-11-14_01h00.38.982,Info_measure_main_exp,2022.2.2,Win32,59.85515054,,,,,,,,,,,,,,,,,,masks/mask_003.jpg,,,,,,,,,,,,,,,,,,,,,,,,,,,,,,,,,,,,,,,,,,,,,,,,0,3,3,2,1,,,,,,,,,,,,,,,,,,,,,,,,,,,,,,,,,,,,,,,,,
334597,001,2022-11-14_01h00.38.982,Info_measure_main_exp,2022.2.2,Win32,59.85515054,,,,,,,,,,,,,,,,,,masks/mask_002.jpg,,,,,,,,,,,,,,,,,,,,,,,,,,,,,,,,,,,,,,,,,,,,,,,,0,4,4,1,1,,,,,,,,,,,,,,,,,,,,,,,,,,,,,,,,,,,,,,,,,
334597,001,2022-11-14_01h00.38.982,Info_measure_main_exp,2022.2.2,Win32,59.85515054,,,,,,,,,,,,,,,,,,,,,,,,,,,,,,7,2.0856,1,,,,,,,,,,,,0,131,5,5,1950,2238,absent_patch/patch0001950.jpg,absent_patch/patch0002238.jpg,,,,,,,,,,,,,,,,,,,,0.031175573,0.058077607,1,0,0,response1disk,3,-0.01141927,0.005394376,1,0,0,center_square,0,2,2,8,1,,,,,,,,,,,,,,,,,,,,,,,
334597,001,2022-11-14_01h00.38.982,Info_measure_main_exp,2022.2.2,Win32,59.85515054,,,,,,,,,,,,,,,,,,masks/mask_003.jpg,,,,,,,,,,,,,,,,,,,,,,,,,,,,,,,,,,,,,,,,,,,0,0,0,2,1,,,,,,,,,,,,,,,,,,,,,,,,,,,,,,,,,,,,,,,,,,,,,,
334597,001,2022-11-14_01h00.38.982,Info_measure_main_exp,2022.2.2,Win32,59.85515054,,,,,,,,,,,,,,,,,,masks/mask_005.jpg,,,,,,,,,,,,,,,,,,,,,,,,,,,,,,,,,,,,,,,,,,,0,1,1,4,1,,,,,,,,,,,,,,,,,,,,,,,,,,,,,,,,,,,,,,,,,,,,,,
334597,001,2022-11-14_01h00.38.982,Info_measure_main_exp,2022.2.2,Win32,59.85515054,,,,,,,,,,,,,,,,,,masks/mask_004.jpg,,,,,,,,,,,,,,,,,,,,,,,,,,,,,,,,,,,,,,,,,,,0,2,2,3,1,,,,,,,,,,,,,,,,,,,,,,,,,,,,,,,,,,,,,,,,,,,,,,
334597,001,2022-11-14_01h00.38.982,Info_measure_main_exp,2022.2.2,Win32,59.85515054,,,,,,,,,,,,,,,,,,masks/mask_001.jpg,,,,,,,,,,,,,,,,,,,,,,,,,,,,,,,,,,,,,,,,,,,0,3,3,0,1,,,,,,,,,,,,,,,,,,,,,,,,,,,,,,,,,,,,,,,,,,,,,,
334597,001,2022-11-14_01h00.38.982,Info_measure_main_exp,2022.2.2,Win32,59.85515054,,,,,,,,,,,,,,,,,,masks/mask_002.jpg,,,,,,,,,,,,,,,,,,,,,,,,,,,,,,,,,,,,,,,,,,,0,4,4,1,1,,,,,,,,,,,,,,,,,,,,,,,,,,,,,,,,,,,,,,,,,,,,,,
334597,001,2022-11-14_01h00.38.982,Info_measure_main_exp,2022.2.2,Win32,59.85515054,,,,,,,,,,,,,,,,,,masks/mask_004.jpg,,,,,,,,,,,,,,,,,,,,,,,,,,,,,,,,,,,,,,,,,,,,,,,,0,0,0,3,1,,,,,,,,,,,,,,,,,,,,,,,,,,,,,,,,,,,,,,,,,
334597,001,2022-11-14_01h00.38.982,Info_measure_main_exp,2022.2.2,Win32,59.85515054,,,,,,,,,,,,,,,,,,masks/mask_005.jpg,,,,,,,,,,,,,,,,,,,,,,,,,,,,,,,,,,,,,,,,,,,,,,,,0,1,1,4,1,,,,,,,,,,,,,,,,,,,,,,,,,,,,,,,,,,,,,,,,,
334597,001,2022-11-14_01h00.38.982,Info_measure_main_exp,2022.2.2,Win32,59.85515054,,,,,,,,,,,,,,,,,,masks/mask_003.jpg,,,,,,,,,,,,,,,,,,,,,,,,,,,,,,,,,,,,,,,,,,,,,,,,0,2,2,2,1,,,,,,,,,,,,,,,,,,,,,,,,,,,,,,,,,,,,,,,,,
334597,001,2022-11-14_01h00.38.982,Info_measure_main_exp,2022.2.2,Win32,59.85515054,,,,,,,,,,,,,,,,,,masks/mask_002.jpg,,,,,,,,,,,,,,,,,,,,,,,,,,,,,,,,,,,,,,,,,,,,,,,,0,3,3,1,1,,,,,,,,,,,,,,,,,,,,,,,,,,,,,,,,,,,,,,,,,
334597,001,2022-11-14_01h00.38.982,Info_measure_main_exp,2022.2.2,Win32,59.85515054,,,,,,,,,,,,,,,,,,masks/mask_001.jpg,,,,,,,,,,,,,,,,,,,,,,,,,,,,,,,,,,,,,,,,,,,,,,,,0,4,4,0,1,,,,,,,,,,,,,,,,,,,,,,,,,,,,,,,,,,,,,,,,,
334597,001,2022-11-14_01h00.38.982,Info_measure_main_exp,2022.2.2,Win32,59.85515054,,,,,,,,,,,,,,,,,,,,,,,,,,,,,,3,2.5696,1,,,,,,,,,,,,0,131,5,5,2250,2214,absent_patch/patch0002250.jpg,absent_patch/patch0002214.jpg,,,,,,,,,,,,,,,,,,,,-0.043925994,-0.058498003,1,0,0,response5disk,4,-0.003572904,-0.018144875,1,0,0,center_square,0,3,3,97,1,,,,,,,,,,,,,,,,,,,,,,,
334597,001,2022-11-14_01h00.38.982,Info_measure_main_exp,2022.2.2,Win32,59.85515054,,,,,,,,,,,,,,,,,,masks/mask_005.jpg,,,,,,,,,,,,,,,,,,,,,,,,,,,,,,,,,,,,,,,,,,,0,0,0,4,1,,,,,,,,,,,,,,,,,,,,,,,,,,,,,,,,,,,,,,,,,,,,,,
334597,001,2022-11-14_01h00.38.982,Info_measure_main_exp,2022.2.2,Win32,59.85515054,,,,,,,,,,,,,,,,,,masks/mask_004.jpg,,,,,,,,,,,,,,,,,,,,,,,,,,,,,,,,,,,,,,,,,,,0,1,1,3,1,,,,,,,,,,,,,,,,,,,,,,,,,,,,,,,,,,,,,,,,,,,,,,
334597,001,2022-11-14_01h00.38.982,Info_measure_main_exp,2022.2.2,Win32,59.85515054,,,,,,,,,,,,,,,,,,masks/mask_002.jpg,,,,,,,,,,,,,,,,,,,,,,,,,,,,,,,,,,,,,,,,,,,0,2,2,1,1,,,,,,,,,,,,,,,,,,,,,,,,,,,,,,,,,,,,,,,,,,,,,,
334597,001,2022-11-14_01h00.38.982,Info_measure_main_exp,2022.2.2,Win32,59.85515054,,,,,,,,,,,,,,,,,,masks/mask_003.jpg,,,,,,,,,,,,,,,,,,,,,,,,,,,,,,,,,,,,,,,,,,,0,3,3,2,1,,,,,,,,,,,,,,,,,,,,,,,,,,,,,,,,,,,,,,,,,,,,,,
334597,001,2022-11-14_01h00.38.982,Info_measure_main_exp,2022.2.2,Win32,59.85515054,,,,,,,,,,,,,,,,,,masks/mask_001.jpg,,,,,,,,,,,,,,,,,,,,,,,,,,,,,,,,,,,,,,,,,,,0,4,4,0,1,,,,,,,,,,,,,,,,,,,,,,,,,,,,,,,,,,,,,,,,,,,,,,
334597,001,2022-11-14_01h00.38.982,Info_measure_main_exp,2022.2.2,Win32,59.85515054,,,,,,,,,,,,,,,,,,masks/mask_001.jpg,,,,,,,,,,,,,,,,,,,,,,,,,,,,,,,,,,,,,,,,,,,,,,,,0,0,0,0,1,,,,,,,,,,,,,,,,,,,,,,,,,,,,,,,,,,,,,,,,,
334597,001,2022-11-14_01h00.38.982,Info_measure_main_exp,2022.2.2,Win32,59.85515054,,,,,,,,,,,,,,,,,,masks/mask_005.jpg,,,,,,,,,,,,,,,,,,,,,,,,,,,,,,,,,,,,,,,,,,,,,,,,0,1,1,4,1,,,,,,,,,,,,,,,,,,,,,,,,,,,,,,,,,,,,,,,,,
334597,001,2022-11-14_01h00.38.982,Info_measure_main_exp,2022.2.2,Win32,59.85515054,,,,,,,,,,,,,,,,,,masks/mask_002.jpg,,,,,,,,,,,,,,,,,,,,,,,,,,,,,,,,,,,,,,,,,,,,,,,,0,2,2,1,1,,,,,,,,,,,,,,,,,,,,,,,,,,,,,,,,,,,,,,,,,
334597,001,2022-11-14_01h00.38.982,Info_measure_main_exp,2022.2.2,Win32,59.85515054,,,,,,,,,,,,,,,,,,masks/mask_004.jpg,,,,,,,,,,,,,,,,,,,,,,,,,,,,,,,,,,,,,,,,,,,,,,,,0,3,3,3,1,,,,,,,,,,,,,,,,,,,,,,,,,,,,,,,,,,,,,,,,,
334597,001,2022-11-14_01h00.38.982,Info_measure_main_exp,2022.2.2,Win32,59.85515054,,,,,,,,,,,,,,,,,,masks/mask_003.jpg,,,,,,,,,,,,,,,,,,,,,,,,,,,,,,,,,,,,,,,,,,,,,,,,0,4,4,2,1,,,,,,,,,,,,,,,,,,,,,,,,,,,,,,,,,,,,,,,,,
334597,001,2022-11-14_01h00.38.982,Info_measure_main_exp,2022.2.2,Win32,59.85515054,,,,,,,,,,,,,,,,,,,,,,,,,,,,,,4,0.5,1,,,,,,,,,,,,0,131,5,5,2214,2082,absent_patch/patch0002214.jpg,absent_patch/patch0002082.jpg,,,,,,,,,,,,,,,,,,,,0.031175573,-0.147050624,1,0,0,response3disk,5,0.005394492,0.00203167,1,0,0,center_square,0,4,4,103,1,,,,,,,,,,,,,,,,,,,,,,,
334597,001,2022-11-14_01h00.38.982,Info_measure_main_exp,2022.2.2,Win32,59.85515054,,,,,,,,,,,,,,,,,,masks/mask_003.jpg,,,,,,,,,,,,,,,,,,,,,,,,,,,,,,,,,,,,,,,,,,,0,0,0,2,1,,,,,,,,,,,,,,,,,,,,,,,,,,,,,,,,,,,,,,,,,,,,,,
334597,001,2022-11-14_01h00.38.982,Info_measure_main_exp,2022.2.2,Win32,59.85515054,,,,,,,,,,,,,,,,,,masks/mask_001.jpg,,,,,,,,,,,,,,,,,,,,,,,,,,,,,,,,,,,,,,,,,,,0,1,1,0,1,,,,,,,,,,,,,,,,,,,,,,,,,,,,,,,,,,,,,,,,,,,,,,
334597,001,2022-11-14_01h00.38.982,Info_measure_main_exp,2022.2.2,Win32,59.85515054,,,,,,,,,,,,,,,,,,masks/mask_004.jpg,,,,,,,,,,,,,,,,,,,,,,,,,,,,,,,,,,,,,,,,,,,0,2,2,3,1,,,,,,,,,,,,,,,,,,,,,,,,,,,,,,,,,,,,,,,,,,,,,,
334597,001,2022-11-14_01h00.38.982,Info_measure_main_exp,2022.2.2,Win32,59.85515054,,,,,,,,,,,,,,,,,,masks/mask_002.jpg,,,,,,,,,,,,,,,,,,,,,,,,,,,,,,,,,,,,,,,,,,,0,3,3,1,1,,,,,,,,,,,,,,,,,,,,,,,,,,,,,,,,,,,,,,,,,,,,,,
334597,001,2022-11-14_01h00.38.982,Info_measure_main_exp,2022.2.2,Win32,59.85515054,,,,,,,,,,,,,,,,,,masks/mask_005.jpg,,,,,,,,,,,,,,,,,,,,,,,,,,,,,,,,,,,,,,,,,,,0,4,4,4,1,,,,,,,,,,,,,,,,,,,,,,,,,,,,,,,,,,,,,,,,,,,,,,
334597,001,2022-11-14_01h00.38.982,Info_measure_main_exp,2022.2.2,Win32,59.85515054,,,,,,,,,,,,,,,,,,masks/mask_005.jpg,,,,,,,,,,,,,,,,,,,,,,,,,,,,,,,,,,,,,,,,,,,,,,,,0,0,0,4,1,,,,,,,,,,,,,,,,,,,,,,,,,,,,,,,,,,,,,,,,,
334597,001,2022-11-14_01h00.38.982,Info_measure_main_exp,2022.2.2,Win32,59.85515054,,,,,,,,,,,,,,,,,,masks/mask_001.jpg,,,,,,,,,,,,,,,,,,,,,,,,,,,,,,,,,,,,,,,,,,,,,,,,0,1,1,0,1,,,,,,,,,,,,,,,,,,,,,,,,,,,,,,,,,,,,,,,,,
334597,001,2022-11-14_01h00.38.982,Info_measure_main_exp,2022.2.2,Win32,59.85515054,,,,,,,,,,,,,,,,,,masks/mask_003.jpg,,,,,,,,,,,,,,,,,,,,,,,,,,,,,,,,,,,,,,,,,,,,,,,,0,2,2,2,1,,,,,,,,,,,,,,,,,,,,,,,,,,,,,,,,,,,,,,,,,
334597,001,2022-11-14_01h00.38.982,Info_measure_main_exp,2022.2.2,Win32,59.85515054,,,,,,,,,,,,,,,,,,masks/mask_004.jpg,,,,,,,,,,,,,,,,,,,,,,,,,,,,,,,,,,,,,,,,,,,,,,,,0,3,3,3,1,,,,,,,,,,,,,,,,,,,,,,,,,,,,,,,,,,,,,,,,,
334597,001,2022-11-14_01h00.38.982,Info_measure_main_exp,2022.2.2,Win32,59.85515054,,,,,,,,,,,,,,,,,,masks/mask_002.jpg,,,,,,,,,,,,,,,,,,,,,,,,,,,,,,,,,,,,,,,,,,,,,,,,0,4,4,1,1,,,,,,,,,,,,,,,,,,,,,,,,,,,,,,,,,,,,,,,,,
334597,001,2022-11-14_01h00.38.982,Info_measure_main_exp,2022.2.2,Win32,59.85515054,,,,,,,,,,,,,,,,,,,,,,,,,,,,,,1,0.5342,1,,,,,,,,,,,,0,131,5,5,2082,2298,absent_patch/patch0002082.jpg,absent_patch/patch0002298.jpg,,,,,,,,,,,,,,,,,,,,-0.103334752,0.037901062,1,0,0,response7disk,6,0.009878074,-0.001331113,1,0,0,center_square,0,5,5,107,1,,,,,,,,,,,,,,,,,,,,,,,
334597,001,2022-11-14_01h00.38.982,Info_measure_main_exp,2022.2.2,Win32,59.85515054,,,,,,,,,,,,,,,,,,masks/mask_003.jpg,,,,,,,,,,,,,,,,,,,,,,,,,,,,,,,,,,,,,,,,,,,0,0,0,2,1,,,,,,,,,,,,,,,,,,,,,,,,,,,,,,,,,,,,,,,,,,,,,,
334597,001,2022-11-14_01h00.38.982,Info_measure_main_exp,2022.2.2,Win32,59.85515054,,,,,,,,,,,,,,,,,,masks/mask_001.jpg,,,,,,,,,,,,,,,,,,,,,,,,,,,,,,,,,,,,,,,,,,,0,1,1,0,1,,,,,,,,,,,,,,,,,,,,,,,,,,,,,,,,,,,,,,,,,,,,,,
334597,001,2022-11-14_01h00.38.982,Info_measure_main_exp,2022.2.2,Win32,59.85515054,,,,,,,,,,,,,,,,,,masks/mask_004.jpg,,,,,,,,,,,,,,,,,,,,,,,,,,,,,,,,,,,,,,,,,,,0,2,2,3,1,,,,,,,,,,,,,,,,,,,,,,,,,,,,,,,,,,,,,,,,,,,,,,
334597,001,2022-11-14_01h00.38.982,Info_measure_main_exp,2022.2.2,Win32,59.85515054,,,,,,,,,,,,,,,,,,masks/mask_002.jpg,,,,,,,,,,,,,,,,,,,,,,,,,,,,,,,,,,,,,,,,,,,0,3,3,1,1,,,,,,,,,,,,,,,,,,,,,,,,,,,,,,,,,,,,,,,,,,,,,,
334597,001,2022-11-14_01h00.38.982,Info_measure_main_exp,2022.2.2,Win32,59.85515054,,,,,,,,,,,,,,,,,,masks/mask_005.jpg,,,,,,,,,,,,,,,,,,,,,,,,,,,,,,,,,,,,,,,,,,,0,4,4,4,1,,,,,,,,,,,,,,,,,,,,,,,,,,,,,,,,,,,,,,,,,,,,,,
334597,001,2022-11-14_01h00.38.982,Info_measure_main_exp,2022.2.2,Win32,59.85515054,,,,,,,,,,,,,,,,,,masks/mask_001.jpg,,,,,,,,,,,,,,,,,,,,,,,,,,,,,,,,,,,,,,,,,,,,,,,,0,0,0,0,1,,,,,,,,,,,,,,,,,,,,,,,,,,,,,,,,,,,,,,,,,
334597,001,2022-11-14_01h00.38.982,Info_measure_main_exp,2022.2.2,Win32,59.85515054,,,,,,,,,,,,,,,,,,masks/mask_004.jpg,,,,,,,,,,,,,,,,,,,,,,,,,,,,,,,,,,,,,,,,,,,,,,,,0,1,1,3,1,,,,,,,,,,,,,,,,,,,,,,,,,,,,,,,,,,,,,,,,,
334597,001,2022-11-14_01h00.38.982,Info_measure_main_exp,2022.2.2,Win32,59.85515054,,,,,,,,,,,,,,,,,,masks/mask_005.jpg,,,,,,,,,,,,,,,,,,,,,,,,,,,,,,,,,,,,,,,,,,,,,,,,0,2,2,4,1,,,,,,,,,,,,,,,,,,,,,,,,,,,,,,,,,,,,,,,,,
334597,001,2022-11-14_01h00.38.982,Info_measure_main_exp,2022.2.2,Win32,59.85515054,,,,,,,,,,,,,,,,,,masks/mask_003.jpg,,,,,,,,,,,,,,,,,,,,,,,,,,,,,,,,,,,,,,,,,,,,,,,,0,3,3,2,1,,,,,,,,,,,,,,,,,,,,,,,,,,,,,,,,,,,,,,,,,
334597,001,2022-11-14_01h00.38.982,Info_measure_main_exp,2022.2.2,Win32,59.85515054,,,,,,,,,,,,,,,,,,masks/mask_002.jpg,,,,,,,,,,,,,,,,,,,,,,,,,,,,,,,,,,,,,,,,,,,,,,,,0,4,4,1,1,,,,,,,,,,,,,,,,,,,,,,,,,,,,,,,,,,,,,,,,,
334597,001,2022-11-14_01h00.38.982,Info_measure_main_exp,2022.2.2,Win32,59.85515054,,,,,,,,,,,,,,,,,,,,,,,,,,,,,,7,1.9188,1,,,,,,,,,,,,0,131,5,5,2238,2298,absent_patch/patch0002238.jpg,absent_patch/patch0002298.jpg,,,,,,,,,,,,,,,,,,,,0.047989334,0.129816428,1,0,0,response1disk,7,0.000910755,0.00875716,1,0,0,center_square,0,6,6,51,1,,,,,,,,,,,,,,,,,,,,,,,
334597,001,2022-11-14_01h00.38.982,Info_measure_main_exp,2022.2.2,Win32,59.85515054,,,,,,,,,,,,,,,,,,masks/mask_003.jpg,,,,,,,,,,,,,,,,,,,,,,,,,,,,,,,,,,,,,,,,,,,0,0,0,2,1,,,,,,,,,,,,,,,,,,,,,,,,,,,,,,,,,,,,,,,,,,,,,,
334597,001,2022-11-14_01h00.38.982,Info_measure_main_exp,2022.2.2,Win32,59.85515054,,,,,,,,,,,,,,,,,,masks/mask_002.jpg,,,,,,,,,,,,,,,,,,,,,,,,,,,,,,,,,,,,,,,,,,,0,1,1,1,1,,,,,,,,,,,,,,,,,,,,,,,,,,,,,,,,,,,,,,,,,,,,,,
334597,001,2022-11-14_01h00.38.982,Info_measure_main_exp,2022.2.2,Win32,59.85515054,,,,,,,,,,,,,,,,,,masks/mask_004.jpg,,,,,,,,,,,,,,,,,,,,,,,,,,,,,,,,,,,,,,,,,,,0,2,2,3,1,,,,,,,,,,,,,,,,,,,,,,,,,,,,,,,,,,,,,,,,,,,,,,
334597,001,2022-11-14_01h00.38.982,Info_measure_main_exp,2022.2.2,Win32,59.85515054,,,,,,,,,,,,,,,,,,masks/mask_005.jpg,,,,,,,,,,,,,,,,,,,,,,,,,,,,,,,,,,,,,,,,,,,0,3,3,4,1,,,,,,,,,,,,,,,,,,,,,,,,,,,,,,,,,,,,,,,,,,,,,,
334597,001,2022-11-14_01h00.38.982,Info_measure_main_exp,2022.2.2,Win32,59.85515054,,,,,,,,,,,,,,,,,,masks/mask_001.jpg,,,,,,,,,,,,,,,,,,,,,,,,,,,,,,,,,,,,,,,,,,,0,4,4,0,1,,,,,,,,,,,,,,,,,,,,,,,,,,,,,,,,,,,,,,,,,,,,,,
334597,001,2022-11-14_01h00.38.982,Info_measure_main_exp,2022.2.2,Win32,59.85515054,,,,,,,,,,,,,,,,,,masks/mask_001.jpg,,,,,,,,,,,,,,,,,,,,,,,,,,,,,,,,,,,,,,,,,,,,,,,,0,0,0,0,1,,,,,,,,,,,,,,,,,,,,,,,,,,,,,,,,,,,,,,,,,
334597,001,2022-11-14_01h00.38.982,Info_measure_main_exp,2022.2.2,Win32,59.85515054,,,,,,,,,,,,,,,,,,masks/mask_005.jpg,,,,,,,,,,,,,,,,,,,,,,,,,,,,,,,,,,,,,,,,,,,,,,,,0,1,1,4,1,,,,,,,,,,,,,,,,,,,,,,,,,,,,,,,,,,,,,,,,,
334597,001,2022-11-14_01h00.38.982,Info_measure_main_exp,2022.2.2,Win32,59.85515054,,,,,,,,,,,,,,,,,,masks/mask_002.jpg,,,,,,,,,,,,,,,,,,,,,,,,,,,,,,,,,,,,,,,,,,,,,,,,0,2,2,1,1,,,,,,,,,,,,,,,,,,,,,,,,,,,,,,,,,,,,,,,,,
334597,001,2022-11-14_01h00.38.982,Info_measure_main_exp,2022.2.2,Win32,59.85515054,,,,,,,,,,,,,,,,,,masks/mask_003.jpg,,,,,,,,,,,,,,,,,,,,,,,,,,,,,,,,,,,,,,,,,,,,,,,,0,3,3,2,1,,,,,,,,,,,,,,,,,,,,,,,,,,,,,,,,,,,,,,,,,
334597,001,2022-11-14_01h00.38.982,Info_measure_main_exp,2022.2.2,Win32,59.85515054,,,,,,,,,,,,,,,,,,masks/mask_004.jpg,,,,,,,,,,,,,,,,,,,,,,,,,,,,,,,,,,,,,,,,,,,,,,,,0,4,4,3,1,,,,,,,,,,,,,,,,,,,,,,,,,,,,,,,,,,,,,,,,,
334597,001,2022-11-14_01h00.38.982,Info_measure_main_exp,2022.2.2,Win32,59.85515054,,,,,,,,,,,,,,,,,,,,,,,,,,,,,,4,2.8366,1,,,,,,,,,,,,0,131,5,5,1950,2166,absent_patch/patch0001950.jpg,absent_patch/patch0002166.jpg,,,,,,,,,,,,,,,,,,,,0.016603718,-0.147050624,1,0,0,response3disk,8,-0.000210044,-0.003572943,1,0,0,center_square,0,7,7,0,1,,,,,,,,,,,,,,,,,,,,,,,
334597,001,2022-11-14_01h00.38.982,Info_measure_main_exp,2022.2.2,Win32,59.85515054,,,,,,,,,,,,,,,,,,masks/mask_005.jpg,,,,,,,,,,,,,,,,,,,,,,,,,,,,,,,,,,,,,,,,,,,0,0,0,4,1,,,,,,,,,,,,,,,,,,,,,,,,,,,,,,,,,,,,,,,,,,,,,,
334597,001,2022-11-14_01h00.38.982,Info_measure_main_exp,2022.2.2,Win32,59.85515054,,,,,,,,,,,,,,,,,,masks/mask_002.jpg,,,,,,,,,,,,,,,,,,,,,,,,,,,,,,,,,,,,,,,,,,,0,1,1,1,1,,,,,,,,,,,,,,,,,,,,,,,,,,,,,,,,,,,,,,,,,,,,,,
334597,001,2022-11-14_01h00.38.982,Info_measure_main_exp,2022.2.2,Win32,59.85515054,,,,,,,,,,,,,,,,,,masks/mask_004.jpg,,,,,,,,,,,,,,,,,,,,,,,,,,,,,,,,,,,,,,,,,,,0,2,2,3,1,,,,,,,,,,,,,,,,,,,,,,,,,,,,,,,,,,,,,,,,,,,,,,
334597,001,2022-11-14_01h00.38.982,Info_measure_main_exp,2022.2.2,Win32,59.85515054,,,,,,,,,,,,,,,,,,masks/mask_003.jpg,,,,,,,,,,,,,,,,,,,,,,,,,,,,,,,,,,,,,,,,,,,0,3,3,2,1,,,,,,,,,,,,,,,,,,,,,,,,,,,,,,,,,,,,,,,,,,,,,,
334597,001,2022-11-14_01h00.38.982,Info_measure_main_exp,2022.2.2,Win32,59.85515054,,,,,,,,,,,,,,,,,,masks/mask_001.jpg,,,,,,,,,,,,,,,,,,,,,,,,,,,,,,,,,,,,,,,,,,,0,4,4,0,1,,,,,,,,,,,,,,,,,,,,,,,,,,,,,,,,,,,,,,,,,,,,,,
334597,001,2022-11-14_01h00.38.982,Info_measure_main_exp,2022.2.2,Win32,59.85515054,,,,,,,,,,,,,,,,,,masks/mask_002.jpg,,,,,,,,,,,,,,,,,,,,,,,,,,,,,,,,,,,,,,,,,,,,,,,,0,0,0,1,1,,,,,,,,,,,,,,,,,,,,,,,,,,,,,,,,,,,,,,,,,
334597,001,2022-11-14_01h00.38.982,Info_measure_main_exp,2022.2.2,Win32,59.85515054,,,,,,,,,,,,,,,,,,masks/mask_004.jpg,,,,,,,,,,,,,,,,,,,,,,,,,,,,,,,,,,,,,,,,,,,,,,,,0,1,1,3,1,,,,,,,,,,,,,,,,,,,,,,,,,,,,,,,,,,,,,,,,,
334597,001,2022-11-14_01h00.38.982,Info_measure_main_exp,2022.2.2,Win32,59.85515054,,,,,,,,,,,,,,,,,,masks/mask_003.jpg,,,,,,,,,,,,,,,,,,,,,,,,,,,,,,,,,,,,,,,,,,,,,,,,0,2,2,2,1,,,,,,,,,,,,,,,,,,,,,,,,,,,,,,,,,,,,,,,,,
334597,001,2022-11-14_01h00.38.982,Info_measure_main_exp,2022.2.2,Win32,59.85515054,,,,,,,,,,,,,,,,,,masks/mask_001.jpg,,,,,,,,,,,,,,,,,,,,,,,,,,,,,,,,,,,,,,,,,,,,,,,,0,3,3,0,1,,,,,,,,,,,,,,,,,,,,,,,,,,,,,,,,,,,,,,,,,
334597,001,2022-11-14_01h00.38.982,Info_measure_main_exp,2022.2.2,Win32,59.85515054,,,,,,,,,,,,,,,,,,masks/mask_005.jpg,,,,,,,,,,,,,,,,,,,,,,,,,,,,,,,,,,,,,,,,,,,,,,,,0,4,4,4,1,,,,,,,,,,,,,,,,,,,,,,,,,,,,,,,,,,,,,,,,,
334597,001,2022-11-14_01h00.38.982,Info_measure_main_exp,2022.2.2,Win32,59.85515054,,,,,,,,,,,,,,,,,,,,,,,,,,,,,,6,1.385,1,,,,,,,,,,,,0,131,5,5,2274,1950,absent_patch/patch0002274.jpg,absent_patch/patch0001950.jpg,,,,,,,,,,,,,,,,,,,,0.079375105,0.022208215,1,0,0,response1disk,9,0.005394492,-0.00021016,1,0,0,center_square,0,8,8,10,1,,,,,,,,,,,,,,,,,,,,,,,
334597,001,2022-11-14_01h00.38.982,Info_measure_main_exp,2022.2.2,Win32,59.85515054,,,,,,,,,,,,,,,,,,masks/mask_002.jpg,,,,,,,,,,,,,,,,,,,,,,,,,,,,,,,,,,,,,,,,,,,0,0,0,1,1,,,,,,,,,,,,,,,,,,,,,,,,,,,,,,,,,,,,,,,,,,,,,,
334597,001,2022-11-14_01h00.38.982,Info_measure_main_exp,2022.2.2,Win32,59.85515054,,,,,,,,,,,,,,,,,,masks/mask_004.jpg,,,,,,,,,,,,,,,,,,,,,,,,,,,,,,,,,,,,,,,,,,,0,1,1,3,1,,,,,,,,,,,,,,,,,,,,,,,,,,,,,,,,,,,,,,,,,,,,,,
334597,001,2022-11-14_01h00.38.982,Info_measure_main_exp,2022.2.2,Win32,59.85515054,,,,,,,,,,,,,,,,,,masks/mask_001.jpg,,,,,,,,,,,,,,,,,,,,,,,,,,,,,,,,,,,,,,,,,,,0,2,2,0,1,,,,,,,,,,,,,,,,,,,,,,,,,,,,,,,,,,,,,,,,,,,,,,
334597,001,2022-11-14_01h00.38.982,Info_measure_main_exp,2022.2.2,Win32,59.85515054,,,,,,,,,,,,,,,,,,masks/mask_003.jpg,,,,,,,,,,,,,,,,,,,,,,,,,,,,,,,,,,,,,,,,,,,0,3,3,2,1,,,,,,,,,,,,,,,,,,,,,,,,,,,,,,,,,,,,,,,,,,,,,,
334597,001,2022-11-14_01h00.38.982,Info_measure_main_exp,2022.2.2,Win32,59.85515054,,,,,,,,,,,,,,,,,,masks/mask_005.jpg,,,,,,,,,,,,,,,,,,,,,,,,,,,,,,,,,,,,,,,,,,,0,4,4,4,1,,,,,,,,,,,,,,,,,,,,,,,,,,,,,,,,,,,,,,,,,,,,,,
334597,001,2022-11-14_01h00.38.982,Info_measure_main_exp,2022.2.2,Win32,59.85515054,,,,,,,,,,,,,,,,,,masks/mask_005.jpg,,,,,,,,,,,,,,,,,,,,,,,,,,,,,,,,,,,,,,,,,,,,,,,,0,0,0,4,1,,,,,,,,,,,,,,,,,,,,,,,,,,,,,,,,,,,,,,,,,
334597,001,2022-11-14_01h00.38.982,Info_measure_main_exp,2022.2.2,Win32,59.85515054,,,,,,,,,,,,,,,,,,masks/mask_003.jpg,,,,,,,,,,,,,,,,,,,,,,,,,,,,,,,,,,,,,,,,,,,,,,,,0,1,1,2,1,,,,,,,,,,,,,,,,,,,,,,,,,,,,,,,,,,,,,,,,,
334597,001,2022-11-14_01h00.38.982,Info_measure_main_exp,2022.2.2,Win32,59.85515054,,,,,,,,,,,,,,,,,,masks/mask_004.jpg,,,,,,,,,,,,,,,,,,,,,,,,,,,,,,,,,,,,,,,,,,,,,,,,0,2,2,3,1,,,,,,,,,,,,,,,,,,,,,,,,,,,,,,,,,,,,,,,,,
334597,001,2022-11-14_01h00.38.982,Info_measure_main_exp,2022.2.2,Win32,59.85515054,,,,,,,,,,,,,,,,,,masks/mask_001.jpg,,,,,,,,,,,,,,,,,,,,,,,,,,,,,,,,,,,,,,,,,,,,,,,,0,3,3,0,1,,,,,,,,,,,,,,,,,,,,,,,,,,,,,,,,,,,,,,,,,
334597,001,2022-11-14_01h00.38.982,Info_measure_main_exp,2022.2.2,Win32,59.85515054,,,,,,,,,,,,,,,,,,masks/mask_002.jpg,,,,,,,,,,,,,,,,,,,,,,,,,,,,,,,,,,,,,,,,,,,,,,,,0,4,4,1,1,,,,,,,,,,,,,,,,,,,,,,,,,,,,,,,,,,,,,,,,,
334597,001,2022-11-14_01h00.38.982,Info_measure_main_exp,2022.2.2,Win32,59.85515054,,,,,,,,,,,,,,,,,,,,,,,,,,,,,,4,1.3856,1,,,,,,,,,,,,0,131,5,5,2214,2142,absent_patch/patch0002214.jpg,absent_patch/patch0002142.jpg,,,,,,,,,,,,,,,,,,,,0.051352117,-0.074190849,1,0,0,response3disk,10,0.000910755,-0.015903045,1,0,0,center_square,0,9,9,102,1,,,,,,,,,,,,,,,,,,,,,,,
334597,001,2022-11-14_01h00.38.982,Info_measure_main_exp,2022.2.2,Win32,59.85515054,,,,,,,,,,,,,,,,,,masks/mask_004.jpg,,,,,,,,,,,,,,,,,,,,,,,,,,,,,,,,,,,,,,,,,,,0,0,0,3,1,,,,,,,,,,,,,,,,,,,,,,,,,,,,,,,,,,,,,,,,,,,,,,
334597,001,2022-11-14_01h00.38.982,Info_measure_main_exp,2022.2.2,Win32,59.85515054,,,,,,,,,,,,,,,,,,masks/mask_002.jpg,,,,,,,,,,,,,,,,,,,,,,,,,,,,,,,,,,,,,,,,,,,0,1,1,1,1,,,,,,,,,,,,,,,,,,,,,,,,,,,,,,,,,,,,,,,,,,,,,,
334597,001,2022-11-14_01h00.38.982,Info_measure_main_exp,2022.2.2,Win32,59.85515054,,,,,,,,,,,,,,,,,,masks/mask_005.jpg,,,,,,,,,,,,,,,,,,,,,,,,,,,,,,,,,,,,,,,,,,,0,2,2,4,1,,,,,,,,,,,,,,,,,,,,,,,,,,,,,,,,,,,,,,,,,,,,,,
334597,001,2022-11-14_01h00.38.982,Info_measure_main_exp,2022.2.2,Win32,59.85515054,,,,,,,,,,,,,,,,,,masks/mask_001.jpg,,,,,,,,,,,,,,,,,,,,,,,,,,,,,,,,,,,,,,,,,,,0,3,3,0,1,,,,,,,,,,,,,,,,,,,,,,,,,,,,,,,,,,,,,,,,,,,,,,
334597,001,2022-11-14_01h00.38.982,Info_measure_main_exp,2022.2.2,Win32,59.85515054,,,,,,,,,,,,,,,,,,masks/mask_003.jpg,,,,,,,,,,,,,,,,,,,,,,,,,,,,,,,,,,,,,,,,,,,0,4,4,2,1,,,,,,,,,,,,,,,,,,,,,,,,,,,,,,,,,,,,,,,,,,,,,,
334597,001,2022-11-14_01h00.38.982,Info_measure_main_exp,2022.2.2,Win32,59.85515054,,,,,,,,,,,,,,,,,,masks/mask_001.jpg,,,,,,,,,,,,,,,,,,,,,,,,,,,,,,,,,,,,,,,,,,,,,,,,0,0,0,0,1,,,,,,,,,,,,,,,,,,,,,,,,,,,,,,,,,,,,,,,,,
334597,001,2022-11-14_01h00.38.982,Info_measure_main_exp,2022.2.2,Win32,59.85515054,,,,,,,,,,,,,,,,,,masks/mask_002.jpg,,,,,,,,,,,,,,,,,,,,,,,,,,,,,,,,,,,,,,,,,,,,,,,,0,1,1,1,1,,,,,,,,,,,,,,,,,,,,,,,,,,,,,,,,,,,,,,,,,
334597,001,2022-11-14_01h00.38.982,Info_measure_main_exp,2022.2.2,Win32,59.85515054,,,,,,,,,,,,,,,,,,masks/mask_004.jpg,,,,,,,,,,,,,,,,,,,,,,,,,,,,,,,,,,,,,,,,,,,,,,,,0,2,2,3,1,,,,,,,,,,,,,,,,,,,,,,,,,,,,,,,,,,,,,,,,,
334597,001,2022-11-14_01h00.38.982,Info_measure_main_exp,2022.2.2,Win32,59.85515054,,,,,,,,,,,,,,,,,,masks/mask_005.jpg,,,,,,,,,,,,,,,,,,,,,,,,,,,,,,,,,,,,,,,,,,,,,,,,0,3,3,4,1,,,,,,,,,,,,,,,,,,,,,,,,,,,,,,,,,,,,,,,,,
334597,001,2022-11-14_01h00.38.982,Info_measure_main_exp,2022.2.2,Win32,59.85515054,,,,,,,,,,,,,,,,,,masks/mask_003.jpg,,,,,,,,,,,,,,,,,,,,,,,,,,,,,,,,,,,,,,,,,,,,,,,,0,4,4,2,1,,,,,,,,,,,,,,,,,,,,,,,,,,,,,,,,,,,,,,,,,
334597,001,2022-11-14_01h00.38.982,Info_measure_main_exp,2022.2.2,Win32,59.85515054,,,,,,,,,,,,,,,,,,,,,,,,,,,,,,4,28.615,1,,,,,,,,,,,,0,131,5,5,2082,2166,absent_patch/patch0002082.jpg,absent_patch/patch0002166.jpg,,,,,,,,,,,,,,,,,,,,0.055835854,-0.132478692,1,0,0,response3disk,11,-0.008056564,0.005394376,1,0,0,center_square,0,10,10,43,1,,,,,,,,,,,,,,,,,,,,,,,
334597,001,2022-11-14_01h00.38.982,Info_measure_main_exp,2022.2.2,Win32,59.85515054,,,,,,,,,,,,,,,,,,masks/mask_005.jpg,,,,,,,,,,,,,,,,,,,,,,,,,,,,,,,,,,,,,,,,,,,0,0,0,4,1,,,,,,,,,,,,,,,,,,,,,,,,,,,,,,,,,,,,,,,,,,,,,,
334597,001,2022-11-14_01h00.38.982,Info_measure_main_exp,2022.2.2,Win32,59.85515054,,,,,,,,,,,,,,,,,,masks/mask_004.jpg,,,,,,,,,,,,,,,,,,,,,,,,,,,,,,,,,,,,,,,,,,,0,1,1,3,1,,,,,,,,,,,,,,,,,,,,,,,,,,,,,,,,,,,,,,,,,,,,,,
334597,001,2022-11-14_01h00.38.982,Info_measure_main_exp,2022.2.2,Win32,59.85515054,,,,,,,,,,,,,,,,,,masks/mask_003.jpg,,,,,,,,,,,,,,,,,,,,,,,,,,,,,,,,,,,,,,,,,,,0,2,2,2,1,,,,,,,,,,,,,,,,,,,,,,,,,,,,,,,,,,,,,,,,,,,,,,
334597,001,2022-11-14_01h00.38.982,Info_measure_main_exp,2022.2.2,Win32,59.85515054,,,,,,,,,,,,,,,,,,masks/mask_001.jpg,,,,,,,,,,,,,,,,,,,,,,,,,,,,,,,,,,,,,,,,,,,0,3,3,0,1,,,,,,,,,,,,,,,,,,,,,,,,,,,,,,,,,,,,,,,,,,,,,,
334597,001,2022-11-14_01h00.38.982,Info_measure_main_exp,2022.2.2,Win32,59.85515054,,,,,,,,,,,,,,,,,,masks/mask_002.jpg,,,,,,,,,,,,,,,,,,,,,,,,,,,,,,,,,,,,,,,,,,,0,4,4,1,1,,,,,,,,,,,,,,,,,,,,,,,,,,,,,,,,,,,,,,,,,,,,,,
334597,001,2022-11-14_01h00.38.982,Info_measure_main_exp,2022.2.2,Win32,59.85515054,,,,,,,,,,,,,,,,,,masks/mask_001.jpg,,,,,,,,,,,,,,,,,,,,,,,,,,,,,,,,,,,,,,,,,,,,,,,,0,0,0,0,1,,,,,,,,,,,,,,,,,,,,,,,,,,,,,,,,,,,,,,,,,
334597,001,2022-11-14_01h00.38.982,Info_measure_main_exp,2022.2.2,Win32,59.85515054,,,,,,,,,,,,,,,,,,masks/mask_004.jpg,,,,,,,,,,,,,,,,,,,,,,,,,,,,,,,,,,,,,,,,,,,,,,,,0,1,1,3,1,,,,,,,,,,,,,,,,,,,,,,,,,,,,,,,,,,,,,,,,,
334597,001,2022-11-14_01h00.38.982,Info_measure_main_exp,2022.2.2,Win32,59.85515054,,,,,,,,,,,,,,,,,,masks/mask_003.jpg,,,,,,,,,,,,,,,,,,,,,,,,,,,,,,,,,,,,,,,,,,,,,,,,0,2,2,2,1,,,,,,,,,,,,,,,,,,,,,,,,,,,,,,,,,,,,,,,,,
334597,001,2022-11-14_01h00.38.982,Info_measure_main_exp,2022.2.2,Win32,59.85515054,,,,,,,,,,,,,,,,,,masks/mask_002.jpg,,,,,,,,,,,,,,,,,,,,,,,,,,,,,,,,,,,,,,,,,,,,,,,,0,3,3,1,1,,,,,,,,,,,,,,,,,,,,,,,,,,,,,,,,,,,,,,,,,
334597,001,2022-11-14_01h00.38.982,Info_measure_main_exp,2022.2.2,Win32,59.85515054,,,,,,,,,,,,,,,,,,masks/mask_005.jpg,,,,,,,,,,,,,,,,,,,,,,,,,,,,,,,,,,,,,,,,,,,,,,,,0,4,4,4,1,,,,,,,,,,,,,,,,,,,,,,,,,,,,,,,,,,,,,,,,,
334597,001,2022-11-14_01h00.38.982,Info_measure_main_exp,2022.2.2,Win32,59.85515054,,,,,,,,,,,,,,,,,,,,,,,,,,,,,,4,0.4003,1,,,,,,,,,,,,0,131,5,5,2190,1950,absent_patch/patch0002190.jpg,absent_patch/patch0001950.jpg,,,,,,,,,,,,,,,,,,,,0.079375105,-0.079795424,1,0,0,response3disk,12,0.005394492,-0.009177517,1,0,0,center_square,0,11,11,73,1,,,,,,,,,,,,,,,,,,,,,,,
334597,001,2022-11-14_01h00.38.982,Info_measure_main_exp,2022.2.2,Win32,59.85515054,,,,,,,,,,,,,,,,,,masks/mask_003.jpg,,,,,,,,,,,,,,,,,,,,,,,,,,,,,,,,,,,,,,,,,,,0,0,0,2,1,,,,,,,,,,,,,,,,,,,,,,,,,,,,,,,,,,,,,,,,,,,,,,
334597,001,2022-11-14_01h00.38.982,Info_measure_main_exp,2022.2.2,Win32,59.85515054,,,,,,,,,,,,,,,,,,masks/mask_004.jpg,,,,,,,,,,,,,,,,,,,,,,,,,,,,,,,,,,,,,,,,,,,0,1,1,3,1,,,,,,,,,,,,,,,,,,,,,,,,,,,,,,,,,,,,,,,,,,,,,,
334597,001,2022-11-14_01h00.38.982,Info_measure_main_exp,2022.2.2,Win32,59.85515054,,,,,,,,,,,,,,,,,,masks/mask_002.jpg,,,,,,,,,,,,,,,,,,,,,,,,,,,,,,,,,,,,,,,,,,,0,2,2,1,1,,,,,,,,,,,,,,,,,,,,,,,,,,,,,,,,,,,,,,,,,,,,,,
334597,001,2022-11-14_01h00.38.982,Info_measure_main_exp,2022.2.2,Win32,59.85515054,,,,,,,,,,,,,,,,,,masks/mask_005.jpg,,,,,,,,,,,,,,,,,,,,,,,,,,,,,,,,,,,,,,,,,,,0,3,3,4,1,,,,,,,,,,,,,,,,,,,,,,,,,,,,,,,,,,,,,,,,,,,,,,
334597,001,2022-11-14_01h00.38.982,Info_measure_main_exp,2022.2.2,Win32,59.85515054,,,,,,,,,,,,,,,,,,masks/mask_001.jpg,,,,,,,,,,,,,,,,,,,,,,,,,,,,,,,,,,,,,,,,,,,0,4,4,0,1,,,,,,,,,,,,,,,,,,,,,,,,,,,,,,,,,,,,,,,,,,,,,,
334597,001,2022-11-14_01h00.38.982,Info_measure_main_exp,2022.2.2,Win32,59.85515054,,,,,,,,,,,,,,,,,,masks/mask_004.jpg,,,,,,,,,,,,,,,,,,,,,,,,,,,,,,,,,,,,,,,,,,,,,,,,0,0,0,3,1,,,,,,,,,,,,,,,,,,,,,,,,,,,,,,,,,,,,,,,,,
334597,001,2022-11-14_01h00.38.982,Info_measure_main_exp,2022.2.2,Win32,59.85515054,,,,,,,,,,,,,,,,,,masks/mask_003.jpg,,,,,,,,,,,,,,,,,,,,,,,,,,,,,,,,,,,,,,,,,,,,,,,,0,1,1,2,1,,,,,,,,,,,,,,,,,,,,,,,,,,,,,,,,,,,,,,,,,
334597,001,2022-11-14_01h00.38.982,Info_measure_main_exp,2022.2.2,Win32,59.85515054,,,,,,,,,,,,,,,,,,masks/mask_002.jpg,,,,,,,,,,,,,,,,,,,,,,,,,,,,,,,,,,,,,,,,,,,,,,,,0,2,2,1,1,,,,,,,,,,,,,,,,,,,,,,,,,,,,,,,,,,,,,,,,,
334597,001,2022-11-14_01h00.38.982,Info_measure_main_exp,2022.2.2,Win32,59.85515054,,,,,,,,,,,,,,,,,,masks/mask_001.jpg,,,,,,,,,,,,,,,,,,,,,,,,,,,,,,,,,,,,,,,,,,,,,,,,0,3,3,0,1,,,,,,,,,,,,,,,,,,,,,,,,,,,,,,,,,,,,,,,,,
334597,001,2022-11-14_01h00.38.982,Info_measure_main_exp,2022.2.2,Win32,59.85515054,,,,,,,,,,,,,,,,,,masks/mask_005.jpg,,,,,,,,,,,,,,,,,,,,,,,,,,,,,,,,,,,,,,,,,,,,,,,,0,4,4,4,1,,,,,,,,,,,,,,,,,,,,,,,,,,,,,,,,,,,,,,,,,
334597,001,2022-11-14_01h00.38.982,Info_measure_main_exp,2022.2.2,Win32,59.85515054,,,,,,,,,,,,,,,,,,,,,,,,,,,,,,5,0.684,1,,,,,,,,,,,,0,131,5,5,2154,1974,absent_patch/patch0002154.jpg,absent_patch/patch0001974.jpg,,,,,,,,,,,,,,,,,,,,0.109639922,-0.037200504,1,0,0,response3disk,13,-0.0125403,-0.002452066,1,0,0,center_square,0,12,12,82,1,,,,,,,,,,,,,,,,,,,,,,,
334597,001,2022-11-14_01h00.38.982,Info_measure_main_exp,2022.2.2,Win32,59.85515054,,,,,,,,,,,,,,,,,,masks/mask_004.jpg,,,,,,,,,,,,,,,,,,,,,,,,,,,,,,,,,,,,,,,,,,,0,0,0,3,1,,,,,,,,,,,,,,,,,,,,,,,,,,,,,,,,,,,,,,,,,,,,,,
334597,001,2022-11-14_01h00.38.982,Info_measure_main_exp,2022.2.2,Win32,59.85515054,,,,,,,,,,,,,,,,,,masks/mask_002.jpg,,,,,,,,,,,,,,,,,,,,,,,,,,,,,,,,,,,,,,,,,,,0,1,1,1,1,,,,,,,,,,,,,,,,,,,,,,,,,,,,,,,,,,,,,,,,,,,,,,
334597,001,2022-11-14_01h00.38.982,Info_measure_main_exp,2022.2.2,Win32,59.85515054,,,,,,,,,,,,,,,,,,masks/mask_001.jpg,,,,,,,,,,,,,,,,,,,,,,,,,,,,,,,,,,,,,,,,,,,0,2,2,0,1,,,,,,,,,,,,,,,,,,,,,,,,,,,,,,,,,,,,,,,,,,,,,,
334597,001,2022-11-14_01h00.38.982,Info_measure_main_exp,2022.2.2,Win32,59.85515054,,,,,,,,,,,,,,,,,,masks/mask_003.jpg,,,,,,,,,,,,,,,,,,,,,,,,,,,,,,,,,,,,,,,,,,,0,3,3,2,1,,,,,,,,,,,,,,,,,,,,,,,,,,,,,,,,,,,,,,,,,,,,,,
334597,001,2022-11-14_01h00.38.982,Info_measure_main_exp,2022.2.2,Win32,59.85515054,,,,,,,,,,,,,,,,,,masks/mask_005.jpg,,,,,,,,,,,,,,,,,,,,,,,,,,,,,,,,,,,,,,,,,,,0,4,4,4,1,,,,,,,,,,,,,,,,,,,,,,,,,,,,,,,,,,,,,,,,,,,,,,
334597,001,2022-11-14_01h00.38.982,Info_measure_main_exp,2022.2.2,Win32,59.85515054,,,,,,,,,,,,,,,,,,masks/mask_002.jpg,,,,,,,,,,,,,,,,,,,,,,,,,,,,,,,,,,,,,,,,,,,,,,,,0,0,0,1,1,,,,,,,,,,,,,,,,,,,,,,,,,,,,,,,,,,,,,,,,,
334597,001,2022-11-14_01h00.38.982,Info_measure_main_exp,2022.2.2,Win32,59.85515054,,,,,,,,,,,,,,,,,,masks/mask_004.jpg,,,,,,,,,,,,,,,,,,,,,,,,,,,,,,,,,,,,,,,,,,,,,,,,0,1,1,3,1,,,,,,,,,,,,,,,,,,,,,,,,,,,,,,,,,,,,,,,,,
334597,001,2022-11-14_01h00.38.982,Info_measure_main_exp,2022.2.2,Win32,59.85515054,,,,,,,,,,,,,,,,,,masks/mask_001.jpg,,,,,,,,,,,,,,,,,,,,,,,,,,,,,,,,,,,,,,,,,,,,,,,,0,2,2,0,1,,,,,,,,,,,,,,,,,,,,,,,,,,,,,,,,,,,,,,,,,
334597,001,2022-11-14_01h00.38.982,Info_measure_main_exp,2022.2.2,Win32,59.85515054,,,,,,,,,,,,,,,,,,masks/mask_003.jpg,,,,,,,,,,,,,,,,,,,,,,,,,,,,,,,,,,,,,,,,,,,,,,,,0,3,3,2,1,,,,,,,,,,,,,,,,,,,,,,,,,,,,,,,,,,,,,,,,,
334597,001,2022-11-14_01h00.38.982,Info_measure_main_exp,2022.2.2,Win32,59.85515054,,,,,,,,,,,,,,,,,,masks/mask_005.jpg,,,,,,,,,,,,,,,,,,,,,,,,,,,,,,,,,,,,,,,,,,,,,,,,0,4,4,4,1,,,,,,,,,,,,,,,,,,,,,,,,,,,,,,,,,,,,,,,,,
334597,001,2022-11-14_01h00.38.982,Info_measure_main_exp,2022.2.2,Win32,59.85515054,,,,,,,,,,,,,,,,,,,,,,,,,,,,,,7,0.9669,1,,,,,,,,,,,,0,131,5,5,1986,1986,absent_patch/patch0001986.jpg,absent_patch/patch0001986.jpg,,,,,,,,,,,,,,,,,,,,0.045747581,0.116365373,1,0,0,response1disk,14,0.010999105,0.010999028,1,0,0,center_square,0,13,13,19,1,,,,,,,,,,,,,,,,,,,,,,,
334597,001,2022-11-14_01h00.38.982,Info_measure_main_exp,2022.2.2,Win32,59.85515054,,,,,,,,,,,,,,,,,,masks/mask_003.jpg,,,,,,,,,,,,,,,,,,,,,,,,,,,,,,,,,,,,,,,,,,,0,0,0,2,1,,,,,,,,,,,,,,,,,,,,,,,,,,,,,,,,,,,,,,,,,,,,,,
334597,001,2022-11-14_01h00.38.982,Info_measure_main_exp,2022.2.2,Win32,59.85515054,,,,,,,,,,,,,,,,,,masks/mask_004.jpg,,,,,,,,,,,,,,,,,,,,,,,,,,,,,,,,,,,,,,,,,,,0,1,1,3,1,,,,,,,,,,,,,,,,,,,,,,,,,,,,,,,,,,,,,,,,,,,,,,
334597,001,2022-11-14_01h00.38.982,Info_measure_main_exp,2022.2.2,Win32,59.85515054,,,,,,,,,,,,,,,,,,masks/mask_005.jpg,,,,,,,,,,,,,,,,,,,,,,,,,,,,,,,,,,,,,,,,,,,0,2,2,4,1,,,,,,,,,,,,,,,,,,,,,,,,,,,,,,,,,,,,,,,,,,,,,,
334597,001,2022-11-14_01h00.38.982,Info_measure_main_exp,2022.2.2,Win32,59.85515054,,,,,,,,,,,,,,,,,,masks/mask_001.jpg,,,,,,,,,,,,,,,,,,,,,,,,,,,,,,,,,,,,,,,,,,,0,3,3,0,1,,,,,,,,,,,,,,,,,,,,,,,,,,,,,,,,,,,,,,,,,,,,,,
334597,001,2022-11-14_01h00.38.982,Info_measure_main_exp,2022.2.2,Win32,59.85515054,,,,,,,,,,,,,,,,,,masks/mask_002.jpg,,,,,,,,,,,,,,,,,,,,,,,,,,,,,,,,,,,,,,,,,,,0,4,4,1,1,,,,,,,,,,,,,,,,,,,,,,,,,,,,,,,,,,,,,,,,,,,,,,
334597,001,2022-11-14_01h00.38.982,Info_measure_main_exp,2022.2.2,Win32,59.85515054,,,,,,,,,,,,,,,,,,masks/mask_004.jpg,,,,,,,,,,,,,,,,,,,,,,,,,,,,,,,,,,,,,,,,,,,,,,,,0,0,0,3,1,,,,,,,,,,,,,,,,,,,,,,,,,,,,,,,,,,,,,,,,,
334597,001,2022-11-14_01h00.38.982,Info_measure_main_exp,2022.2.2,Win32,59.85515054,,,,,,,,,,,,,,,,,,masks/mask_005.jpg,,,,,,,,,,,,,,,,,,,,,,,,,,,,,,,,,,,,,,,,,,,,,,,,0,1,1,4,1,,,,,,,,,,,,,,,,,,,,,,,,,,,,,,,,,,,,,,,,,
334597,001,2022-11-14_01h00.38.982,Info_measure_main_exp,2022.2.2,Win32,59.85515054,,,,,,,,,,,,,,,,,,masks/mask_001.jpg,,,,,,,,,,,,,,,,,,,,,,,,,,,,,,,,,,,,,,,,,,,,,,,,0,2,2,0,1,,,,,,,,,,,,,,,,,,,,,,,,,,,,,,,,,,,,,,,,,
334597,001,2022-11-14_01h00.38.982,Info_measure_main_exp,2022.2.2,Win32,59.85515054,,,,,,,,,,,,,,,,,,masks/mask_002.jpg,,,,,,,,,,,,,,,,,,,,,,,,,,,,,,,,,,,,,,,,,,,,,,,,0,3,3,1,1,,,,,,,,,,,,,,,,,,,,,,,,,,,,,,,,,,,,,,,,,
334597,001,2022-11-14_01h00.38.982,Info_measure_main_exp,2022.2.2,Win32,59.85515054,,,,,,,,,,,,,,,,,,masks/mask_003.jpg,,,,,,,,,,,,,,,,,,,,,,,,,,,,,,,,,,,,,,,,,,,,,,,,0,4,4,2,1,,,,,,,,,,,,,,,,,,,,,,,,,,,,,,,,,,,,,,,,,
334597,001,2022-11-14_01h00.38.982,Info_measure_main_exp,2022.2.2,Win32,59.85515054,,,,,,,,,,,,,,,,,,,,,,,,,,,,,,5,1.3678,1,,,,,,,,,,,,0,131,5,5,2142,2190,absent_patch/patch0002142.jpg,absent_patch/patch0002190.jpg,,,,,,,,,,,,,,,,,,,,0.078254151,-0.064102615,1,0,0,response3disk,15,-0.001331074,-0.010298432,1,0,0,center_square,0,14,14,70,1,,,,,,,,,,,,,,,,,,,,,,,
334597,001,2022-11-14_01h00.38.982,Info_measure_main_exp,2022.2.2,Win32,59.85515054,,,,,,,,,,,,,,,,,,masks/mask_001.jpg,,,,,,,,,,,,,,,,,,,,,,,,,,,,,,,,,,,,,,,,,,,0,0,0,0,1,,,,,,,,,,,,,,,,,,,,,,,,,,,,,,,,,,,,,,,,,,,,,,
334597,001,2022-11-14_01h00.38.982,Info_measure_main_exp,2022.2.2,Win32,59.85515054,,,,,,,,,,,,,,,,,,masks/mask_004.jpg,,,,,,,,,,,,,,,,,,,,,,,,,,,,,,,,,,,,,,,,,,,0,1,1,3,1,,,,,,,,,,,,,,,,,,,,,,,,,,,,,,,,,,,,,,,,,,,,,,
334597,001,2022-11-14_01h00.38.982,Info_measure_main_exp,2022.2.2,Win32,59.85515054,,,,,,,,,,,,,,,,,,masks/mask_003.jpg,,,,,,,,,,,,,,,,,,,,,,,,,,,,,,,,,,,,,,,,,,,0,2,2,2,1,,,,,,,,,,,,,,,,,,,,,,,,,,,,,,,,,,,,,,,,,,,,,,
334597,001,2022-11-14_01h00.38.982,Info_measure_main_exp,2022.2.2,Win32,59.85515054,,,,,,,,,,,,,,,,,,masks/mask_002.jpg,,,,,,,,,,,,,,,,,,,,,,,,,,,,,,,,,,,,,,,,,,,0,3,3,1,1,,,,,,,,,,,,,,,,,,,,,,,,,,,,,,,,,,,,,,,,,,,,,,
334597,001,2022-11-14_01h00.38.982,Info_measure_main_exp,2022.2.2,Win32,59.85515054,,,,,,,,,,,,,,,,,,masks/mask_005.jpg,,,,,,,,,,,,,,,,,,,,,,,,,,,,,,,,,,,,,,,,,,,0,4,4,4,1,,,,,,,,,,,,,,,,,,,,,,,,,,,,,,,,,,,,,,,,,,,,,,
334597,001,2022-11-14_01h00.38.982,Info_measure_main_exp,2022.2.2,Win32,59.85515054,,,,,,,,,,,,,,,,,,masks/mask_002.jpg,,,,,,,,,,,,,,,,,,,,,,,,,,,,,,,,,,,,,,,,,,,,,,,,0,0,0,1,1,,,,,,,,,,,,,,,,,,,,,,,,,,,,,,,,,,,,,,,,,
334597,001,2022-11-14_01h00.38.982,Info_measure_main_exp,2022.2.2,Win32,59.85515054,,,,,,,,,,,,,,,,,,masks/mask_004.jpg,,,,,,,,,,,,,,,,,,,,,,,,,,,,,,,,,,,,,,,,,,,,,,,,0,1,1,3,1,,,,,,,,,,,,,,,,,,,,,,,,,,,,,,,,,,,,,,,,,
334597,001,2022-11-14_01h00.38.982,Info_measure_main_exp,2022.2.2,Win32,59.85515054,,,,,,,,,,,,,,,,,,masks/mask_001.jpg,,,,,,,,,,,,,,,,,,,,,,,,,,,,,,,,,,,,,,,,,,,,,,,,0,2,2,0,1,,,,,,,,,,,,,,,,,,,,,,,,,,,,,,,,,,,,,,,,,
334597,001,2022-11-14_01h00.38.982,Info_measure_main_exp,2022.2.2,Win32,59.85515054,,,,,,,,,,,,,,,,,,masks/mask_003.jpg,,,,,,,,,,,,,,,,,,,,,,,,,,,,,,,,,,,,,,,,,,,,,,,,0,3,3,2,1,,,,,,,,,,,,,,,,,,,,,,,,,,,,,,,,,,,,,,,,,
334597,001,2022-11-14_01h00.38.982,Info_measure_main_exp,2022.2.2,Win32,59.85515054,,,,,,,,,,,,,,,,,,masks/mask_005.jpg,,,,,,,,,,,,,,,,,,,,,,,,,,,,,,,,,,,,,,,,,,,,,,,,0,4,4,4,1,,,,,,,,,,,,,,,,,,,,,,,,,,,,,,,,,,,,,,,,,
334597,001,2022-11-14_01h00.38.982,Info_measure_main_exp,2022.2.2,Win32,59.85515054,,,,,,,,,,,,,,,,,,,,,,,,,,,,,,4,2.019,1,,,,,,,,,,,,1,131,5,5,2082,1,absent_patch/patch0002082.jpg,present_patch/cong_131_5_a.jpg,,,,,,,,,,,,,,,,,,,,0.035659309,-0.149292531,1,0,0,response3disk,16,0.009878074,-0.003572943,1,0,0,center_square,0,15,15,65,1,,,,,,,,,,,,,,,,,,,,,,,
334597,001,2022-11-14_01h00.38.982,Info_measure_main_exp,2022.2.2,Win32,59.85515054,,,,,,,,,,,,,,,,,,masks/mask_002.jpg,,,,,,,,,,,,,,,,,,,,,,,,,,,,,,,,,,,,,,,,,,,0,0,0,1,1,,,,,,,,,,,,,,,,,,,,,,,,,,,,,,,,,,,,,,,,,,,,,,
334597,001,2022-11-14_01h00.38.982,Info_measure_main_exp,2022.2.2,Win32,59.85515054,,,,,,,,,,,,,,,,,,masks/mask_004.jpg,,,,,,,,,,,,,,,,,,,,,,,,,,,,,,,,,,,,,,,,,,,0,1,1,3,1,,,,,,,,,,,,,,,,,,,,,,,,,,,,,,,,,,,,,,,,,,,,,,
334597,001,2022-11-14_01h00.38.982,Info_measure_main_exp,2022.2.2,Win32,59.85515054,,,,,,,,,,,,,,,,,,masks/mask_005.jpg,,,,,,,,,,,,,,,,,,,,,,,,,,,,,,,,,,,,,,,,,,,0,2,2,4,1,,,,,,,,,,,,,,,,,,,,,,,,,,,,,,,,,,,,,,,,,,,,,,
334597,001,2022-11-14_01h00.38.982,Info_measure_main_exp,2022.2.2,Win32,59.85515054,,,,,,,,,,,,,,,,,,masks/mask_003.jpg,,,,,,,,,,,,,,,,,,,,,,,,,,,,,,,,,,,,,,,,,,,0,3,3,2,1,,,,,,,,,,,,,,,,,,,,,,,,,,,,,,,,,,,,,,,,,,,,,,
334597,001,2022-11-14_01h00.38.982,Info_measure_main_exp,2022.2.2,Win32,59.85515054,,,,,,,,,,,,,,,,,,masks/mask_001.jpg,,,,,,,,,,,,,,,,,,,,,,,,,,,,,,,,,,,,,,,,,,,0,4,4,0,1,,,,,,,,,,,,,,,,,,,,,,,,,,,,,,,,,,,,,,,,,,,,,,
334597,001,2022-11-14_01h00.38.982,Info_measure_main_exp,2022.2.2,Win32,59.85515054,,,,,,,,,,,,,,,,,,masks/mask_003.jpg,,,,,,,,,,,,,,,,,,,,,,,,,,,,,,,,,,,,,,,,,,,,,,,,0,0,0,2,1,,,,,,,,,,,,,,,,,,,,,,,,,,,,,,,,,,,,,,,,,
334597,001,2022-11-14_01h00.38.982,Info_measure_main_exp,2022.2.2,Win32,59.85515054,,,,,,,,,,,,,,,,,,masks/mask_001.jpg,,,,,,,,,,,,,,,,,,,,,,,,,,,,,,,,,,,,,,,,,,,,,,,,0,1,1,0,1,,,,,,,,,,,,,,,,,,,,,,,,,,,,,,,,,,,,,,,,,
334597,001,2022-11-14_01h00.38.982,Info_measure_main_exp,2022.2.2,Win32,59.85515054,,,,,,,,,,,,,,,,,,masks/mask_002.jpg,,,,,,,,,,,,,,,,,,,,,,,,,,,,,,,,,,,,,,,,,,,,,,,,0,2,2,1,1,,,,,,,,,,,,,,,,,,,,,,,,,,,,,,,,,,,,,,,,,
334597,001,2022-11-14_01h00.38.982,Info_measure_main_exp,2022.2.2,Win32,59.85515054,,,,,,,,,,,,,,,,,,masks/mask_004.jpg,,,,,,,,,,,,,,,,,,,,,,,,,,,,,,,,,,,,,,,,,,,,,,,,0,3,3,3,1,,,,,,,,,,,,,,,,,,,,,,,,,,,,,,,,,,,,,,,,,
334597,001,2022-11-14_01h00.38.982,Info_measure_main_exp,2022.2.2,Win32,59.85515054,,,,,,,,,,,,,,,,,,masks/mask_005.jpg,,,,,,,,,,,,,,,,,,,,,,,,,,,,,,,,,,,,,,,,,,,,,,,,0,4,4,4,1,,,,,,,,,,,,,,,,,,,,,,,,,,,,,,,,,,,,,,,,,
334597,001,2022-11-14_01h00.38.982,Info_measure_main_exp,2022.2.2,Win32,59.85515054,,,,,,,,,,,,,,,,,,,,,,,,,,,,,,3,2.6362,1,,,,,,,,,,,,0,131,5,5,2178,1986,absent_patch/patch0002178.jpg,absent_patch/patch0001986.jpg,,,,,,,,,,,,,,,,,,,,-0.020386743,-0.098851131,1,0,0,response5disk,17,-0.005814657,-0.002452066,1,0,0,center_square,0,16,16,46,1,,,,,,,,,,,,,,,,,,,,,,,
334597,001,2022-11-14_01h00.38.982,Info_measure_main_exp,2022.2.2,Win32,59.85515054,,,,,,,,,,,,,,,,,,masks/mask_001.jpg,,,,,,,,,,,,,,,,,,,,,,,,,,,,,,,,,,,,,,,,,,,0,0,0,0,1,,,,,,,,,,,,,,,,,,,,,,,,,,,,,,,,,,,,,,,,,,,,,,
334597,001,2022-11-14_01h00.38.982,Info_measure_main_exp,2022.2.2,Win32,59.85515054,,,,,,,,,,,,,,,,,,masks/mask_002.jpg,,,,,,,,,,,,,,,,,,,,,,,,,,,,,,,,,,,,,,,,,,,0,1,1,1,1,,,,,,,,,,,,,,,,,,,,,,,,,,,,,,,,,,,,,,,,,,,,,,
334597,001,2022-11-14_01h00.38.982,Info_measure_main_exp,2022.2.2,Win32,59.85515054,,,,,,,,,,,,,,,,,,masks/mask_003.jpg,,,,,,,,,,,,,,,,,,,,,,,,,,,,,,,,,,,,,,,,,,,0,2,2,2,1,,,,,,,,,,,,,,,,,,,,,,,,,,,,,,,,,,,,,,,,,,,,,,
334597,001,2022-11-14_01h00.38.982,Info_measure_main_exp,2022.2.2,Win32,59.85515054,,,,,,,,,,,,,,,,,,masks/mask_005.jpg,,,,,,,,,,,,,,,,,,,,,,,,,,,,,,,,,,,,,,,,,,,0,3,3,4,1,,,,,,,,,,,,,,,,,,,,,,,,,,,,,,,,,,,,,,,,,,,,,,
334597,001,2022-11-14_01h00.38.982,Info_measure_main_exp,2022.2.2,Win32,59.85515054,,,,,,,,,,,,,,,,,,masks/mask_004.jpg,,,,,,,,,,,,,,,,,,,,,,,,,,,,,,,,,,,,,,,,,,,0,4,4,3,1,,,,,,,,,,,,,,,,,,,,,,,,,,,,,,,,,,,,,,,,,,,,,,
334597,001,2022-11-14_01h00.38.982,Info_measure_main_exp,2022.2.2,Win32,59.85515054,,,,,,,,,,,,,,,,,,masks/mask_001.jpg,,,,,,,,,,,,,,,,,,,,,,,,,,,,,,,,,,,,,,,,,,,,,,,,0,0,0,0,1,,,,,,,,,,,,,,,,,,,,,,,,,,,,,,,,,,,,,,,,,
334597,001,2022-11-14_01h00.38.982,Info_measure_main_exp,2022.2.2,Win32,59.85515054,,,,,,,,,,,,,,,,,,masks/mask_005.jpg,,,,,,,,,,,,,,,,,,,,,,,,,,,,,,,,,,,,,,,,,,,,,,,,0,1,1,4,1,,,,,,,,,,,,,,,,,,,,,,,,,,,,,,,,,,,,,,,,,
334597,001,2022-11-14_01h00.38.982,Info_measure_main_exp,2022.2.2,Win32,59.85515054,,,,,,,,,,,,,,,,,,masks/mask_002.jpg,,,,,,,,,,,,,,,,,,,,,,,,,,,,,,,,,,,,,,,,,,,,,,,,0,2,2,1,1,,,,,,,,,,,,,,,,,,,,,,,,,,,,,,,,,,,,,,,,,
334597,001,2022-11-14_01h00.38.982,Info_measure_main_exp,2022.2.2,Win32,59.85515054,,,,,,,,,,,,,,,,,,masks/mask_003.jpg,,,,,,,,,,,,,,,,,,,,,,,,,,,,,,,,,,,,,,,,,,,,,,,,0,3,3,2,1,,,,,,,,,,,,,,,,,,,,,,,,,,,,,,,,,,,,,,,,,
334597,001,2022-11-14_01h00.38.982,Info_measure_main_exp,2022.2.2,Win32,59.85515054,,,,,,,,,,,,,,,,,,masks/mask_004.jpg,,,,,,,,,,,,,,,,,,,,,,,,,,,,,,,,,,,,,,,,,,,,,,,,0,4,4,3,1,,,,,,,,,,,,,,,,,,,,,,,,,,,,,,,,,,,,,,,,,
334597,001,2022-11-14_01h00.38.982,Info_measure_main_exp,2022.2.2,Win32,59.85515054,,,,,,,,,,,,,,,,,,,,,,,,,,,,,,2,2.3862,1,,,,,,,,,,,,0,131,5,5,2274,2238,absent_patch/patch0002274.jpg,absent_patch/patch0002238.jpg,,,,,,,,,,,,,,,,,,,,-0.124632173,-0.064102615,1,0,0,response5disk,18,-0.001331074,0.007636245,1,0,0,center_square,0,17,17,91,1,,,,,,,,,,,,,,,,,,,,,,,
334597,001,2022-11-14_01h00.38.982,Info_measure_main_exp,2022.2.2,Win32,59.85515054,,,,,,,,,,,,,,,,,,masks/mask_002.jpg,,,,,,,,,,,,,,,,,,,,,,,,,,,,,,,,,,,,,,,,,,,0,0,0,1,1,,,,,,,,,,,,,,,,,,,,,,,,,,,,,,,,,,,,,,,,,,,,,,
334597,001,2022-11-14_01h00.38.982,Info_measure_main_exp,2022.2.2,Win32,59.85515054,,,,,,,,,,,,,,,,,,masks/mask_004.jpg,,,,,,,,,,,,,,,,,,,,,,,,,,,,,,,,,,,,,,,,,,,0,1,1,3,1,,,,,,,,,,,,,,,,,,,,,,,,,,,,,,,,,,,,,,,,,,,,,,
334597,001,2022-11-14_01h00.38.982,Info_measure_main_exp,2022.2.2,Win32,59.85515054,,,,,,,,,,,,,,,,,,masks/mask_005.jpg,,,,,,,,,,,,,,,,,,,,,,,,,,,,,,,,,,,,,,,,,,,0,2,2,4,1,,,,,,,,,,,,,,,,,,,,,,,,,,,,,,,,,,,,,,,,,,,,,,
334597,001,2022-11-14_01h00.38.982,Info_measure_main_exp,2022.2.2,Win32,59.85515054,,,,,,,,,,,,,,,,,,masks/mask_001.jpg,,,,,,,,,,,,,,,,,,,,,,,,,,,,,,,,,,,,,,,,,,,0,3,3,0,1,,,,,,,,,,,,,,,,,,,,,,,,,,,,,,,,,,,,,,,,,,,,,,
334597,001,2022-11-14_01h00.38.982,Info_measure_main_exp,2022.2.2,Win32,59.85515054,,,,,,,,,,,,,,,,,,masks/mask_003.jpg,,,,,,,,,,,,,,,,,,,,,,,,,,,,,,,,,,,,,,,,,,,0,4,4,2,1,,,,,,,,,,,,,,,,,,,,,,,,,,,,,,,,,,,,,,,,,,,,,,
334597,001,2022-11-14_01h00.38.982,Info_measure_main_exp,2022.2.2,Win32,59.85515054,,,,,,,,,,,,,,,,,,masks/mask_002.jpg,,,,,,,,,,,,,,,,,,,,,,,,,,,,,,,,,,,,,,,,,,,,,,,,0,0,0,1,1,,,,,,,,,,,,,,,,,,,,,,,,,,,,,,,,,,,,,,,,,
334597,001,2022-11-14_01h00.38.982,Info_measure_main_exp,2022.2.2,Win32,59.85515054,,,,,,,,,,,,,,,,,,masks/mask_005.jpg,,,,,,,,,,,,,,,,,,,,,,,,,,,,,,,,,,,,,,,,,,,,,,,,0,1,1,4,1,,,,,,,,,,,,,,,,,,,,,,,,,,,,,,,,,,,,,,,,,
334597,001,2022-11-14_01h00.38.982,Info_measure_main_exp,2022.2.2,Win32,59.85515054,,,,,,,,,,,,,,,,,,masks/mask_004.jpg,,,,,,,,,,,,,,,,,,,,,,,,,,,,,,,,,,,,,,,,,,,,,,,,0,2,2,3,1,,,,,,,,,,,,,,,,,,,,,,,,,,,,,,,,,,,,,,,,,
334597,001,2022-11-14_01h00.38.982,Info_measure_main_exp,2022.2.2,Win32,59.85515054,,,,,,,,,,,,,,,,,,masks/mask_003.jpg,,,,,,,,,,,,,,,,,,,,,,,,,,,,,,,,,,,,,,,,,,,,,,,,0,3,3,2,1,,,,,,,,,,,,,,,,,,,,,,,,,,,,,,,,,,,,,,,,,
334597,001,2022-11-14_01h00.38.982,Info_measure_main_exp,2022.2.2,Win32,59.85515054,,,,,,,,,,,,,,,,,,masks/mask_001.jpg,,,,,,,,,,,,,,,,,,,,,,,,,,,,,,,,,,,,,,,,,,,,,,,,0,4,4,0,1,,,,,,,,,,,,,,,,,,,,,,,,,,,,,,,,,,,,,,,,,
334597,001,2022-11-14_01h00.38.982,Info_measure_main_exp,2022.2.2,Win32,59.85515054,,,,,,,,,,,,,,,,,,,,,,,,,,,,,,2,3.1431,1,,,,,,,,,,,,0,131,5,5,1974,2178,absent_patch/patch0001974.jpg,absent_patch/patch0002178.jpg,,,,,,,,,,,,,,,,,,,,-0.101092768,-0.054014305,1,0,0,response5disk,19,-0.004693781,-0.014782168,1,0,0,center_square,0,18,18,44,1,,,,,,,,,,,,,,,,,,,,,,,
334597,001,2022-11-14_01h00.38.982,Info_measure_main_exp,2022.2.2,Win32,59.85515054,,,,,,,,,,,,,,,,,,masks/mask_004.jpg,,,,,,,,,,,,,,,,,,,,,,,,,,,,,,,,,,,,,,,,,,,0,0,0,3,1,,,,,,,,,,,,,,,,,,,,,,,,,,,,,,,,,,,,,,,,,,,,,,
334597,001,2022-11-14_01h00.38.982,Info_measure_main_exp,2022.2.2,Win32,59.85515054,,,,,,,,,,,,,,,,,,masks/mask_005.jpg,,,,,,,,,,,,,,,,,,,,,,,,,,,,,,,,,,,,,,,,,,,0,1,1,4,1,,,,,,,,,,,,,,,,,,,,,,,,,,,,,,,,,,,,,,,,,,,,,,
334597,001,2022-11-14_01h00.38.982,Info_measure_main_exp,2022.2.2,Win32,59.85515054,,,,,,,,,,,,,,,,,,masks/mask_001.jpg,,,,,,,,,,,,,,,,,,,,,,,,,,,,,,,,,,,,,,,,,,,0,2,2,0,1,,,,,,,,,,,,,,,,,,,,,,,,,,,,,,,,,,,,,,,,,,,,,,
334597,001,2022-11-14_01h00.38.982,Info_measure_main_exp,2022.2.2,Win32,59.85515054,,,,,,,,,,,,,,,,,,masks/mask_002.jpg,,,,,,,,,,,,,,,,,,,,,,,,,,,,,,,,,,,,,,,,,,,0,3,3,1,1,,,,,,,,,,,,,,,,,,,,,,,,,,,,,,,,,,,,,,,,,,,,,,
334597,001,2022-11-14_01h00.38.982,Info_measure_main_exp,2022.2.2,Win32,59.85515054,,,,,,,,,,,,,,,,,,masks/mask_003.jpg,,,,,,,,,,,,,,,,,,,,,,,,,,,,,,,,,,,,,,,,,,,0,4,4,2,1,,,,,,,,,,,,,,,,,,,,,,,,,,,,,,,,,,,,,,,,,,,,,,
334597,001,2022-11-14_01h00.38.982,Info_measure_main_exp,2022.2.2,Win32,59.85515054,,,,,,,,,,,,,,,,,,masks/mask_004.jpg,,,,,,,,,,,,,,,,,,,,,,,,,,,,,,,,,,,,,,,,,,,,,,,,0,0,0,3,1,,,,,,,,,,,,,,,,,,,,,,,,,,,,,,,,,,,,,,,,,
334597,001,2022-11-14_01h00.38.982,Info_measure_main_exp,2022.2.2,Win32,59.85515054,,,,,,,,,,,,,,,,,,masks/mask_002.jpg,,,,,,,,,,,,,,,,,,,,,,,,,,,,,,,,,,,,,,,,,,,,,,,,0,1,1,1,1,,,,,,,,,,,,,,,,,,,,,,,,,,,,,,,,,,,,,,,,,
334597,001,2022-11-14_01h00.38.982,Info_measure_main_exp,2022.2.2,Win32,59.85515054,,,,,,,,,,,,,,,,,,masks/mask_005.jpg,,,,,,,,,,,,,,,,,,,,,,,,,,,,,,,,,,,,,,,,,,,,,,,,0,2,2,4,1,,,,,,,,,,,,,,,,,,,,,,,,,,,,,,,,,,,,,,,,,
334597,001,2022-11-14_01h00.38.982,Info_measure_main_exp,2022.2.2,Win32,59.85515054,,,,,,,,,,,,,,,,,,masks/mask_003.jpg,,,,,,,,,,,,,,,,,,,,,,,,,,,,,,,,,,,,,,,,,,,,,,,,0,3,3,2,1,,,,,,,,,,,,,,,,,,,,,,,,,,,,,,,,,,,,,,,,,
334597,001,2022-11-14_01h00.38.982,Info_measure_main_exp,2022.2.2,Win32,59.85515054,,,,,,,,,,,,,,,,,,masks/mask_001.jpg,,,,,,,,,,,,,,,,,,,,,,,,,,,,,,,,,,,,,,,,,,,,,,,,0,4,4,0,1,,,,,,,,,,,,,,,,,,,,,,,,,,,,,,,,,,,,,,,,,
334597,001,2022-11-14_01h00.38.982,Info_measure_main_exp,2022.2.2,Win32,59.85515054,,,,,,,,,,,,,,,,,,,,,,,,,,,,,,6,6.441,1,,,,,,,,,,,,0,131,5,5,1974,2298,absent_patch/patch0001974.jpg,absent_patch/patch0002298.jpg,,,,,,,,,,,,,,,,,,,,0.088342424,0.034538317,1,0,0,response1disk,20,-0.003572904,0.007636245,1,0,0,center_square,0,19,19,6,1,,,,,,,,,,,,,,,,,,,,,,,
334597,001,2022-11-14_01h00.38.982,Info_measure_main_exp,2022.2.2,Win32,59.85515054,,,,,,,,,,,,,,,,,,masks/mask_004.jpg,,,,,,,,,,,,,,,,,,,,,,,,,,,,,,,,,,,,,,,,,,,0,0,0,3,1,,,,,,,,,,,,,,,,,,,,,,,,,,,,,,,,,,,,,,,,,,,,,,
334597,001,2022-11-14_01h00.38.982,Info_measure_main_exp,2022.2.2,Win32,59.85515054,,,,,,,,,,,,,,,,,,masks/mask_002.jpg,,,,,,,,,,,,,,,,,,,,,,,,,,,,,,,,,,,,,,,,,,,0,1,1,1,1,,,,,,,,,,,,,,,,,,,,,,,,,,,,,,,,,,,,,,,,,,,,,,
334597,001,2022-11-14_01h00.38.982,Info_measure_main_exp,2022.2.2,Win32,59.85515054,,,,,,,,,,,,,,,,,,masks/mask_005.jpg,,,,,,,,,,,,,,,,,,,,,,,,,,,,,,,,,,,,,,,,,,,0,2,2,4,1,,,,,,,,,,,,,,,,,,,,,,,,,,,,,,,,,,,,,,,,,,,,,,
334597,001,2022-11-14_01h00.38.982,Info_measure_main_exp,2022.2.2,Win32,59.85515054,,,,,,,,,,,,,,,,,,masks/mask_001.jpg,,,,,,,,,,,,,,,,,,,,,,,,,,,,,,,,,,,,,,,,,,,0,3,3,0,1,,,,,,,,,,,,,,,,,,,,,,,,,,,,,,,,,,,,,,,,,,,,,,
334597,001,2022-11-14_01h00.38.982,Info_measure_main_exp,2022.2.2,Win32,59.85515054,,,,,,,,,,,,,,,,,,masks/mask_003.jpg,,,,,,,,,,,,,,,,,,,,,,,,,,,,,,,,,,,,,,,,,,,0,4,4,2,1,,,,,,,,,,,,,,,,,,,,,,,,,,,,,,,,,,,,,,,,,,,,,,
334597,001,2022-11-14_01h00.38.982,Info_measure_main_exp,2022.2.2,Win32,59.85515054,,,,,,,,,,,,,,,,,,masks/mask_003.jpg,,,,,,,,,,,,,,,,,,,,,,,,,,,,,,,,,,,,,,,,,,,,,,,,0,0,0,2,1,,,,,,,,,,,,,,,,,,,,,,,,,,,,,,,,,,,,,,,,,
334597,001,2022-11-14_01h00.38.982,Info_measure_main_exp,2022.2.2,Win32,59.85515054,,,,,,,,,,,,,,,,,,masks/mask_005.jpg,,,,,,,,,,,,,,,,,,,,,,,,,,,,,,,,,,,,,,,,,,,,,,,,0,1,1,4,1,,,,,,,,,,,,,,,,,,,,,,,,,,,,,,,,,,,,,,,,,
334597,001,2022-11-14_01h00.38.982,Info_measure_main_exp,2022.2.2,Win32,59.85515054,,,,,,,,,,,,,,,,,,masks/mask_002.jpg,,,,,,,,,,,,,,,,,,,,,,,,,,,,,,,,,,,,,,,,,,,,,,,,0,2,2,1,1,,,,,,,,,,,,,,,,,,,,,,,,,,,,,,,,,,,,,,,,,
334597,001,2022-11-14_01h00.38.982,Info_measure_main_exp,2022.2.2,Win32,59.85515054,,,,,,,,,,,,,,,,,,masks/mask_004.jpg,,,,,,,,,,,,,,,,,,,,,,,,,,,,,,,,,,,,,,,,,,,,,,,,0,3,3,3,1,,,,,,,,,,,,,,,,,,,,,,,,,,,,,,,,,,,,,,,,,
334597,001,2022-11-14_01h00.38.982,Info_measure_main_exp,2022.2.2,Win32,59.85515054,,,,,,,,,,,,,,,,,,masks/mask_001.jpg,,,,,,,,,,,,,,,,,,,,,,,,,,,,,,,,,,,,,,,,,,,,,,,,0,4,4,0,1,,,,,,,,,,,,,,,,,,,,,,,,,,,,,,,,,,,,,,,,,
334597,001,2022-11-14_01h00.38.982,Info_measure_main_exp,2022.2.2,Win32,59.85515054,,,,,,,,,,,,,,,,,,,,,,,,,,,,,,4,2.586,1,,,,,,,,,,,,0,131,5,5,2298,2274,absent_patch/patch0002298.jpg,absent_patch/patch0002274.jpg,,,,,,,,,,,,,,,,,,,,0.039022092,-0.073069934,1,0,0,response3disk,21,0.017724517,0.00203167,1,0,0,center_square,0,20,20,1,1,,,,,,,,,,,,,,,,,,,,,,,
334597,001,2022-11-14_01h00.38.982,Info_measure_main_exp,2022.2.2,Win32,59.85515054,,,,,,,,,,,,,,,,,,masks/mask_005.jpg,,,,,,,,,,,,,,,,,,,,,,,,,,,,,,,,,,,,,,,,,,,0,0,0,4,1,,,,,,,,,,,,,,,,,,,,,,,,,,,,,,,,,,,,,,,,,,,,,,
334597,001,2022-11-14_01h00.38.982,Info_measure_main_exp,2022.2.2,Win32,59.85515054,,,,,,,,,,,,,,,,,,masks/mask_002.jpg,,,,,,,,,,,,,,,,,,,,,,,,,,,,,,,,,,,,,,,,,,,0,1,1,1,1,,,,,,,,,,,,,,,,,,,,,,,,,,,,,,,,,,,,,,,,,,,,,,
334597,001,2022-11-14_01h00.38.982,Info_measure_main_exp,2022.2.2,Win32,59.85515054,,,,,,,,,,,,,,,,,,masks/mask_004.jpg,,,,,,,,,,,,,,,,,,,,,,,,,,,,,,,,,,,,,,,,,,,0,2,2,3,1,,,,,,,,,,,,,,,,,,,,,,,,,,,,,,,,,,,,,,,,,,,,,,
334597,001,2022-11-14_01h00.38.982,Info_measure_main_exp,2022.2.2,Win32,59.85515054,,,,,,,,,,,,,,,,,,masks/mask_001.jpg,,,,,,,,,,,,,,,,,,,,,,,,,,,,,,,,,,,,,,,,,,,0,3,3,0,1,,,,,,,,,,,,,,,,,,,,,,,,,,,,,,,,,,,,,,,,,,,,,,
334597,001,2022-11-14_01h00.38.982,Info_measure_main_exp,2022.2.2,Win32,59.85515054,,,,,,,,,,,,,,,,,,masks/mask_003.jpg,,,,,,,,,,,,,,,,,,,,,,,,,,,,,,,,,,,,,,,,,,,0,4,4,2,1,,,,,,,,,,,,,,,,,,,,,,,,,,,,,,,,,,,,,,,,,,,,,,
334597,001,2022-11-14_01h00.38.982,Info_measure_main_exp,2022.2.2,Win32,59.85515054,,,,,,,,,,,,,,,,,,masks/mask_001.jpg,,,,,,,,,,,,,,,,,,,,,,,,,,,,,,,,,,,,,,,,,,,,,,,,0,0,0,0,1,,,,,,,,,,,,,,,,,,,,,,,,,,,,,,,,,,,,,,,,,
334597,001,2022-11-14_01h00.38.982,Info_measure_main_exp,2022.2.2,Win32,59.85515054,,,,,,,,,,,,,,,,,,masks/mask_004.jpg,,,,,,,,,,,,,,,,,,,,,,,,,,,,,,,,,,,,,,,,,,,,,,,,0,1,1,3,1,,,,,,,,,,,,,,,,,,,,,,,,,,,,,,,,,,,,,,,,,
334597,001,2022-11-14_01h00.38.982,Info_measure_main_exp,2022.2.2,Win32,59.85515054,,,,,,,,,,,,,,,,,,masks/mask_003.jpg,,,,,,,,,,,,,,,,,,,,,,,,,,,,,,,,,,,,,,,,,,,,,,,,0,2,2,2,1,,,,,,,,,,,,,,,,,,,,,,,,,,,,,,,,,,,,,,,,,
334597,001,2022-11-14_01h00.38.982,Info_measure_main_exp,2022.2.2,Win32,59.85515054,,,,,,,,,,,,,,,,,,masks/mask_005.jpg,,,,,,,,,,,,,,,,,,,,,,,,,,,,,,,,,,,,,,,,,,,,,,,,0,3,3,4,1,,,,,,,,,,,,,,,,,,,,,,,,,,,,,,,,,,,,,,,,,
334597,001,2022-11-14_01h00.38.982,Info_measure_main_exp,2022.2.2,Win32,59.85515054,,,,,,,,,,,,,,,,,,masks/mask_002.jpg,,,,,,,,,,,,,,,,,,,,,,,,,,,,,,,,,,,,,,,,,,,,,,,,0,4,4,1,1,,,,,,,,,,,,,,,,,,,,,,,,,,,,,,,,,,,,,,,,,
334597,001,2022-11-14_01h00.38.982,Info_measure_main_exp,2022.2.2,Win32,59.85515054,,,,,,,,,,,,,,,,,,,,,,,,,,,,,,6,0.8841,1,,,,,,,,,,,,0,131,5,5,2082,2250,absent_patch/patch0002082.jpg,absent_patch/patch0002250.jpg,,,,,,,,,,,,,,,,,,,,0.058077607,0.041263845,1,0,0,response1disk,22,0.008757198,-0.006935687,1,0,0,center_square,0,21,21,3,1,,,,,,,,,,,,,,,,,,,,,,,
334597,001,2022-11-14_01h00.38.982,Info_measure_main_exp,2022.2.2,Win32,59.85515054,,,,,,,,,,,,,,,,,,masks/mask_005.jpg,,,,,,,,,,,,,,,,,,,,,,,,,,,,,,,,,,,,,,,,,,,0,0,0,4,1,,,,,,,,,,,,,,,,,,,,,,,,,,,,,,,,,,,,,,,,,,,,,,
334597,001,2022-11-14_01h00.38.982,Info_measure_main_exp,2022.2.2,Win32,59.85515054,,,,,,,,,,,,,,,,,,masks/mask_004.jpg,,,,,,,,,,,,,,,,,,,,,,,,,,,,,,,,,,,,,,,,,,,0,1,1,3,1,,,,,,,,,,,,,,,,,,,,,,,,,,,,,,,,,,,,,,,,,,,,,,
334597,001,2022-11-14_01h00.38.982,Info_measure_main_exp,2022.2.2,Win32,59.85515054,,,,,,,,,,,,,,,,,,masks/mask_001.jpg,,,,,,,,,,,,,,,,,,,,,,,,,,,,,,,,,,,,,,,,,,,0,2,2,0,1,,,,,,,,,,,,,,,,,,,,,,,,,,,,,,,,,,,,,,,,,,,,,,
334597,001,2022-11-14_01h00.38.982,Info_measure_main_exp,2022.2.2,Win32,59.85515054,,,,,,,,,,,,,,,,,,masks/mask_002.jpg,,,,,,,,,,,,,,,,,,,,,,,,,,,,,,,,,,,,,,,,,,,0,3,3,1,1,,,,,,,,,,,,,,,,,,,,,,,,,,,,,,,,,,,,,,,,,,,,,,
334597,001,2022-11-14_01h00.38.982,Info_measure_main_exp,2022.2.2,Win32,59.85515054,,,,,,,,,,,,,,,,,,masks/mask_003.jpg,,,,,,,,,,,,,,,,,,,,,,,,,,,,,,,,,,,,,,,,,,,0,4,4,2,1,,,,,,,,,,,,,,,,,,,,,,,,,,,,,,,,,,,,,,,,,,,,,,
334597,001,2022-11-14_01h00.38.982,Info_measure_main_exp,2022.2.2,Win32,59.85515054,,,,,,,,,,,,,,,,,,masks/mask_005.jpg,,,,,,,,,,,,,,,,,,,,,,,,,,,,,,,,,,,,,,,,,,,,,,,,0,0,0,4,1,,,,,,,,,,,,,,,,,,,,,,,,,,,,,,,,,,,,,,,,,
334597,001,2022-11-14_01h00.38.982,Info_measure_main_exp,2022.2.2,Win32,59.85515054,,,,,,,,,,,,,,,,,,masks/mask_002.jpg,,,,,,,,,,,,,,,,,,,,,,,,,,,,,,,,,,,,,,,,,,,,,,,,0,1,1,1,1,,,,,,,,,,,,,,,,,,,,,,,,,,,,,,,,,,,,,,,,,
334597,001,2022-11-14_01h00.38.982,Info_measure_main_exp,2022.2.2,Win32,59.85515054,,,,,,,,,,,,,,,,,,masks/mask_004.jpg,,,,,,,,,,,,,,,,,,,,,,,,,,,,,,,,,,,,,,,,,,,,,,,,0,2,2,3,1,,,,,,,,,,,,,,,,,,,,,,,,,,,,,,,,,,,,,,,,,
334597,001,2022-11-14_01h00.38.982,Info_measure_main_exp,2022.2.2,Win32,59.85515054,,,,,,,,,,,,,,,,,,masks/mask_001.jpg,,,,,,,,,,,,,,,,,,,,,,,,,,,,,,,,,,,,,,,,,,,,,,,,0,3,3,0,1,,,,,,,,,,,,,,,,,,,,,,,,,,,,,,,,,,,,,,,,,
334597,001,2022-11-14_01h00.38.982,Info_measure_main_exp,2022.2.2,Win32,59.85515054,,,,,,,,,,,,,,,,,,masks/mask_003.jpg,,,,,,,,,,,,,,,,,,,,,,,,,,,,,,,,,,,,,,,,,,,,,,,,0,4,4,2,1,,,,,,,,,,,,,,,,,,,,,,,,,,,,,,,,,,,,,,,,,
334597,001,2022-11-14_01h00.38.982,Info_measure_main_exp,2022.2.2,Win32,59.85515054,,,,,,,,,,,,,,,,,,,,,,,,,,,,,,7,2.6696,1,,,,,,,,,,,,0,131,5,5,2274,2166,absent_patch/patch0002274.jpg,absent_patch/patch0002166.jpg,,,,,,,,,,,,,,,,,,,,0.040142892,0.051352117,1,0,0,response1disk,23,-0.006935687,-0.004693896,1,0,0,center_square,0,22,22,78,1,,,,,,,,,,,,,,,,,,,,,,,
334597,001,2022-11-14_01h00.38.982,Info_measure_main_exp,2022.2.2,Win32,59.85515054,,,,,,,,,,,,,,,,,,masks/mask_004.jpg,,,,,,,,,,,,,,,,,,,,,,,,,,,,,,,,,,,,,,,,,,,0,0,0,3,1,,,,,,,,,,,,,,,,,,,,,,,,,,,,,,,,,,,,,,,,,,,,,,
334597,001,2022-11-14_01h00.38.982,Info_measure_main_exp,2022.2.2,Win32,59.85515054,,,,,,,,,,,,,,,,,,masks/mask_003.jpg,,,,,,,,,,,,,,,,,,,,,,,,,,,,,,,,,,,,,,,,,,,0,1,1,2,1,,,,,,,,,,,,,,,,,,,,,,,,,,,,,,,,,,,,,,,,,,,,,,
334597,001,2022-11-14_01h00.38.982,Info_measure_main_exp,2022.2.2,Win32,59.85515054,,,,,,,,,,,,,,,,,,masks/mask_001.jpg,,,,,,,,,,,,,,,,,,,,,,,,,,,,,,,,,,,,,,,,,,,0,2,2,0,1,,,,,,,,,,,,,,,,,,,,,,,,,,,,,,,,,,,,,,,,,,,,,,
334597,001,2022-11-14_01h00.38.982,Info_measure_main_exp,2022.2.2,Win32,59.85515054,,,,,,,,,,,,,,,,,,masks/mask_002.jpg,,,,,,,,,,,,,,,,,,,,,,,,,,,,,,,,,,,,,,,,,,,0,3,3,1,1,,,,,,,,,,,,,,,,,,,,,,,,,,,,,,,,,,,,,,,,,,,,,,
334597,001,2022-11-14_01h00.38.982,Info_measure_main_exp,2022.2.2,Win32,59.85515054,,,,,,,,,,,,,,,,,,masks/mask_005.jpg,,,,,,,,,,,,,,,,,,,,,,,,,,,,,,,,,,,,,,,,,,,0,4,4,4,1,,,,,,,,,,,,,,,,,,,,,,,,,,,,,,,,,,,,,,,,,,,,,,
334597,001,2022-11-14_01h00.38.982,Info_measure_main_exp,2022.2.2,Win32,59.85515054,,,,,,,,,,,,,,,,,,masks/mask_002.jpg,,,,,,,,,,,,,,,,,,,,,,,,,,,,,,,,,,,,,,,,,,,,,,,,0,0,0,1,1,,,,,,,,,,,,,,,,,,,,,,,,,,,,,,,,,,,,,,,,,
334597,001,2022-11-14_01h00.38.982,Info_measure_main_exp,2022.2.2,Win32,59.85515054,,,,,,,,,,,,,,,,,,masks/mask_005.jpg,,,,,,,,,,,,,,,,,,,,,,,,,,,,,,,,,,,,,,,,,,,,,,,,0,1,1,4,1,,,,,,,,,,,,,,,,,,,,,,,,,,,,,,,,,,,,,,,,,
334597,001,2022-11-14_01h00.38.982,Info_measure_main_exp,2022.2.2,Win32,59.85515054,,,,,,,,,,,,,,,,,,masks/mask_004.jpg,,,,,,,,,,,,,,,,,,,,,,,,,,,,,,,,,,,,,,,,,,,,,,,,0,2,2,3,1,,,,,,,,,,,,,,,,,,,,,,,,,,,,,,,,,,,,,,,,,
334597,001,2022-11-14_01h00.38.982,Info_measure_main_exp,2022.2.2,Win32,59.85515054,,,,,,,,,,,,,,,,,,masks/mask_001.jpg,,,,,,,,,,,,,,,,,,,,,,,,,,,,,,,,,,,,,,,,,,,,,,,,0,3,3,0,1,,,,,,,,,,,,,,,,,,,,,,,,,,,,,,,,,,,,,,,,,
334597,001,2022-11-14_01h00.38.982,Info_measure_main_exp,2022.2.2,Win32,59.85515054,,,,,,,,,,,,,,,,,,masks/mask_003.jpg,,,,,,,,,,,,,,,,,,,,,,,,,,,,,,,,,,,,,,,,,,,,,,,,0,4,4,2,1,,,,,,,,,,,,,,,,,,,,,,,,,,,,,,,,,,,,,,,,,
334597,001,2022-11-14_01h00.38.982,Info_measure_main_exp,2022.2.2,Win32,59.85515054,,,,,,,,,,,,,,,,,,,,,,,,,,,,,,6,1.4348,1,,,,,,,,,,,,0,131,5,5,1974,1950,absent_patch/patch0001974.jpg,absent_patch/patch0001950.jpg,,,,,,,,,,,,,,,,,,,,0.063682219,0.007636245,1,0,0,response1disk,24,-0.002452028,-0.001331113,1,0,0,center_square,0,23,23,17,1,,,,,,,,,,,,,,,,,,,,,,,
334597,001,2022-11-14_01h00.38.982,Info_measure_main_exp,2022.2.2,Win32,59.85515054,,,,,,,,,,,,,,,,,,masks/mask_004.jpg,,,,,,,,,,,,,,,,,,,,,,,,,,,,,,,,,,,,,,,,,,,0,0,0,3,1,,,,,,,,,,,,,,,,,,,,,,,,,,,,,,,,,,,,,,,,,,,,,,
334597,001,2022-11-14_01h00.38.982,Info_measure_main_exp,2022.2.2,Win32,59.85515054,,,,,,,,,,,,,,,,,,masks/mask_005.jpg,,,,,,,,,,,,,,,,,,,,,,,,,,,,,,,,,,,,,,,,,,,0,1,1,4,1,,,,,,,,,,,,,,,,,,,,,,,,,,,,,,,,,,,,,,,,,,,,,,
334597,001,2022-11-14_01h00.38.982,Info_measure_main_exp,2022.2.2,Win32,59.85515054,,,,,,,,,,,,,,,,,,masks/mask_001.jpg,,,,,,,,,,,,,,,,,,,,,,,,,,,,,,,,,,,,,,,,,,,0,2,2,0,1,,,,,,,,,,,,,,,,,,,,,,,,,,,,,,,,,,,,,,,,,,,,,,
334597,001,2022-11-14_01h00.38.982,Info_measure_main_exp,2022.2.2,Win32,59.85515054,,,,,,,,,,,,,,,,,,masks/mask_003.jpg,,,,,,,,,,,,,,,,,,,,,,,,,,,,,,,,,,,,,,,,,,,0,3,3,2,1,,,,,,,,,,,,,,,,,,,,,,,,,,,,,,,,,,,,,,,,,,,,,,
334597,001,2022-11-14_01h00.38.982,Info_measure_main_exp,2022.2.2,Win32,59.85515054,,,,,,,,,,,,,,,,,,masks/mask_002.jpg,,,,,,,,,,,,,,,,,,,,,,,,,,,,,,,,,,,,,,,,,,,0,4,4,1,1,,,,,,,,,,,,,,,,,,,,,,,,,,,,,,,,,,,,,,,,,,,,,,
334597,001,2022-11-14_01h00.38.982,Info_measure_main_exp,2022.2.2,Win32,59.85515054,,,,,,,,,,,,,,,,,,masks/mask_005.jpg,,,,,,,,,,,,,,,,,,,,,,,,,,,,,,,,,,,,,,,,,,,,,,,,0,0,0,4,1,,,,,,,,,,,,,,,,,,,,,,,,,,,,,,,,,,,,,,,,,
334597,001,2022-11-14_01h00.38.982,Info_measure_main_exp,2022.2.2,Win32,59.85515054,,,,,,,,,,,,,,,,,,masks/mask_004.jpg,,,,,,,,,,,,,,,,,,,,,,,,,,,,,,,,,,,,,,,,,,,,,,,,0,1,1,3,1,,,,,,,,,,,,,,,,,,,,,,,,,,,,,,,,,,,,,,,,,
334597,001,2022-11-14_01h00.38.982,Info_measure_main_exp,2022.2.2,Win32,59.85515054,,,,,,,,,,,,,,,,,,masks/mask_002.jpg,,,,,,,,,,,,,,,,,,,,,,,,,,,,,,,,,,,,,,,,,,,,,,,,0,2,2,1,1,,,,,,,,,,,,,,,,,,,,,,,,,,,,,,,,,,,,,,,,,
334597,001,2022-11-14_01h00.38.982,Info_measure_main_exp,2022.2.2,Win32,59.85515054,,,,,,,,,,,,,,,,,,masks/mask_001.jpg,,,,,,,,,,,,,,,,,,,,,,,,,,,,,,,,,,,,,,,,,,,,,,,,0,3,3,0,1,,,,,,,,,,,,,,,,,,,,,,,,,,,,,,,,,,,,,,,,,
334597,001,2022-11-14_01h00.38.982,Info_measure_main_exp,2022.2.2,Win32,59.85515054,,,,,,,,,,,,,,,,,,masks/mask_003.jpg,,,,,,,,,,,,,,,,,,,,,,,,,,,,,,,,,,,,,,,,,,,,,,,,0,4,4,2,1,,,,,,,,,,,,,,,,,,,,,,,,,,,,,,,,,,,,,,,,,
334597,001,2022-11-14_01h00.38.982,Info_measure_main_exp,2022.2.2,Win32,59.85515054,,,,,,,,,,,,,,,,,,,,,,,,,,,,,,5,0.584,1,,,,,,,,,,,,0,131,5,5,2274,2250,absent_patch/patch0002274.jpg,absent_patch/patch0002250.jpg,,,,,,,,,,,,,,,,,,,,0.137662909,-0.03159593,1,0,0,response3disk,25,0.000910755,0.005394376,1,0,0,center_square,0,24,24,28,1,,,,,,,,,,,,,,,,,,,,,,,
334597,001,2022-11-14_01h00.38.982,Info_measure_main_exp,2022.2.2,Win32,59.85515054,,,,,,,,,,,,,,,,,,masks/mask_002.jpg,,,,,,,,,,,,,,,,,,,,,,,,,,,,,,,,,,,,,,,,,,,0,0,0,1,1,,,,,,,,,,,,,,,,,,,,,,,,,,,,,,,,,,,,,,,,,,,,,,
334597,001,2022-11-14_01h00.38.982,Info_measure_main_exp,2022.2.2,Win32,59.85515054,,,,,,,,,,,,,,,,,,masks/mask_003.jpg,,,,,,,,,,,,,,,,,,,,,,,,,,,,,,,,,,,,,,,,,,,0,1,1,2,1,,,,,,,,,,,,,,,,,,,,,,,,,,,,,,,,,,,,,,,,,,,,,,
334597,001,2022-11-14_01h00.38.982,Info_measure_main_exp,2022.2.2,Win32,59.85515054,,,,,,,,,,,,,,,,,,masks/mask_004.jpg,,,,,,,,,,,,,,,,,,,,,,,,,,,,,,,,,,,,,,,,,,,0,2,2,3,1,,,,,,,,,,,,,,,,,,,,,,,,,,,,,,,,,,,,,,,,,,,,,,
334597,001,2022-11-14_01h00.38.982,Info_measure_main_exp,2022.2.2,Win32,59.85515054,,,,,,,,,,,,,,,,,,masks/mask_005.jpg,,,,,,,,,,,,,,,,,,,,,,,,,,,,,,,,,,,,,,,,,,,0,3,3,4,1,,,,,,,,,,,,,,,,,,,,,,,,,,,,,,,,,,,,,,,,,,,,,,
334597,001,2022-11-14_01h00.38.982,Info_measure_main_exp,2022.2.2,Win32,59.85515054,,,,,,,,,,,,,,,,,,masks/mask_001.jpg,,,,,,,,,,,,,,,,,,,,,,,,,,,,,,,,,,,,,,,,,,,0,4,4,0,1,,,,,,,,,,,,,,,,,,,,,,,,,,,,,,,,,,,,,,,,,,,,,,
334597,001,2022-11-14_01h00.38.982,Info_measure_main_exp,2022.2.2,Win32,59.85515054,,,,,,,,,,,,,,,,,,masks/mask_001.jpg,,,,,,,,,,,,,,,,,,,,,,,,,,,,,,,,,,,,,,,,,,,,,,,,0,0,0,0,1,,,,,,,,,,,,,,,,,,,,,,,,,,,,,,,,,,,,,,,,,
334597,001,2022-11-14_01h00.38.982,Info_measure_main_exp,2022.2.2,Win32,59.85515054,,,,,,,,,,,,,,,,,,masks/mask_004.jpg,,,,,,,,,,,,,,,,,,,,,,,,,,,,,,,,,,,,,,,,,,,,,,,,0,1,1,3,1,,,,,,,,,,,,,,,,,,,,,,,,,,,,,,,,,,,,,,,,,
334597,001,2022-11-14_01h00.38.982,Info_measure_main_exp,2022.2.2,Win32,59.85515054,,,,,,,,,,,,,,,,,,masks/mask_005.jpg,,,,,,,,,,,,,,,,,,,,,,,,,,,,,,,,,,,,,,,,,,,,,,,,0,2,2,4,1,,,,,,,,,,,,,,,,,,,,,,,,,,,,,,,,,,,,,,,,,
334597,001,2022-11-14_01h00.38.982,Info_measure_main_exp,2022.2.2,Win32,59.85515054,,,,,,,,,,,,,,,,,,masks/mask_002.jpg,,,,,,,,,,,,,,,,,,,,,,,,,,,,,,,,,,,,,,,,,,,,,,,,0,3,3,1,1,,,,,,,,,,,,,,,,,,,,,,,,,,,,,,,,,,,,,,,,,
334597,001,2022-11-14_01h00.38.982,Info_measure_main_exp,2022.2.2,Win32,59.85515054,,,,,,,,,,,,,,,,,,masks/mask_003.jpg,,,,,,,,,,,,,,,,,,,,,,,,,,,,,,,,,,,,,,,,,,,,,,,,0,4,4,2,1,,,,,,,,,,,,,,,,,,,,,,,,,,,,,,,,,,,,,,,,,
334597,001,2022-11-14_01h00.38.982,Info_measure_main_exp,2022.2.2,Win32,59.85515054,,,,,,,,,,,,,,,,,,,,,,,,,,,,,,4,0.6507,1,,,,,,,,,,,,1,131,5,5,1,2178,present_patch/cong_131_5_a.jpg,absent_patch/patch0002178.jpg,,,,,,,,,,,,,,,,,,,,0.016603718,-0.084279122,1,0,0,response3disk,26,-0.006935687,0.009878113,1,0,0,center_square,0,25,25,40,1,,,,,,,,,,,,,,,,,,,,,,,
334597,001,2022-11-14_01h00.38.982,Info_measure_main_exp,2022.2.2,Win32,59.85515054,,,,,,,,,,,,,,,,,,masks/mask_003.jpg,,,,,,,,,,,,,,,,,,,,,,,,,,,,,,,,,,,,,,,,,,,0,0,0,2,1,,,,,,,,,,,,,,,,,,,,,,,,,,,,,,,,,,,,,,,,,,,,,,
334597,001,2022-11-14_01h00.38.982,Info_measure_main_exp,2022.2.2,Win32,59.85515054,,,,,,,,,,,,,,,,,,masks/mask_002.jpg,,,,,,,,,,,,,,,,,,,,,,,,,,,,,,,,,,,,,,,,,,,0,1,1,1,1,,,,,,,,,,,,,,,,,,,,,,,,,,,,,,,,,,,,,,,,,,,,,,
334597,001,2022-11-14_01h00.38.982,Info_measure_main_exp,2022.2.2,Win32,59.85515054,,,,,,,,,,,,,,,,,,masks/mask_005.jpg,,,,,,,,,,,,,,,,,,,,,,,,,,,,,,,,,,,,,,,,,,,0,2,2,4,1,,,,,,,,,,,,,,,,,,,,,,,,,,,,,,,,,,,,,,,,,,,,,,
334597,001,2022-11-14_01h00.38.982,Info_measure_main_exp,2022.2.2,Win32,59.85515054,,,,,,,,,,,,,,,,,,masks/mask_004.jpg,,,,,,,,,,,,,,,,,,,,,,,,,,,,,,,,,,,,,,,,,,,0,3,3,3,1,,,,,,,,,,,,,,,,,,,,,,,,,,,,,,,,,,,,,,,,,,,,,,
334597,001,2022-11-14_01h00.38.982,Info_measure_main_exp,2022.2.2,Win32,59.85515054,,,,,,,,,,,,,,,,,,masks/mask_001.jpg,,,,,,,,,,,,,,,,,,,,,,,,,,,,,,,,,,,,,,,,,,,0,4,4,0,1,,,,,,,,,,,,,,,,,,,,,,,,,,,,,,,,,,,,,,,,,,,,,,
334597,001,2022-11-14_01h00.38.982,Info_measure_main_exp,2022.2.2,Win32,59.85515054,,,,,,,,,,,,,,,,,,masks/mask_005.jpg,,,,,,,,,,,,,,,,,,,,,,,,,,,,,,,,,,,,,,,,,,,,,,,,0,0,0,4,1,,,,,,,,,,,,,,,,,,,,,,,,,,,,,,,,,,,,,,,,,
334597,001,2022-11-14_01h00.38.982,Info_measure_main_exp,2022.2.2,Win32,59.85515054,,,,,,,,,,,,,,,,,,masks/mask_004.jpg,,,,,,,,,,,,,,,,,,,,,,,,,,,,,,,,,,,,,,,,,,,,,,,,0,1,1,3,1,,,,,,,,,,,,,,,,,,,,,,,,,,,,,,,,,,,,,,,,,
334597,001,2022-11-14_01h00.38.982,Info_measure_main_exp,2022.2.2,Win32,59.85515054,,,,,,,,,,,,,,,,,,masks/mask_003.jpg,,,,,,,,,,,,,,,,,,,,,,,,,,,,,,,,,,,,,,,,,,,,,,,,0,2,2,2,1,,,,,,,,,,,,,,,,,,,,,,,,,,,,,,,,,,,,,,,,,
334597,001,2022-11-14_01h00.38.982,Info_measure_main_exp,2022.2.2,Win32,59.85515054,,,,,,,,,,,,,,,,,,masks/mask_001.jpg,,,,,,,,,,,,,,,,,,,,,,,,,,,,,,,,,,,,,,,,,,,,,,,,0,3,3,0,1,,,,,,,,,,,,,,,,,,,,,,,,,,,,,,,,,,,,,,,,,
334597,001,2022-11-14_01h00.38.982,Info_measure_main_exp,2022.2.2,Win32,59.85515054,,,,,,,,,,,,,,,,,,masks/mask_002.jpg,,,,,,,,,,,,,,,,,,,,,,,,,,,,,,,,,,,,,,,,,,,,,,,,0,4,4,1,1,,,,,,,,,,,,,,,,,,,,,,,,,,,,,,,,,,,,,,,,,
334597,001,2022-11-14_01h00.38.982,Info_measure_main_exp,2022.2.2,Win32,59.85515054,,,,,,,,,,,,,,,,,,,,,,,,,,,,,,4,0.5837,1,,,,,,,,,,,,0,131,5,5,2274,2082,absent_patch/patch0002274.jpg,absent_patch/patch0002082.jpg,,,,,,,,,,,,,,,,,,,,0.081616934,-0.120148513,1,0,0,response3disk,27,0.000910755,-0.003572943,1,0,0,center_square,0,26,26,100,1,,,,,,,,,,,,,,,,,,,,,,,
334597,001,2022-11-14_01h00.38.982,Info_measure_main_exp,2022.2.2,Win32,59.85515054,,,,,,,,,,,,,,,,,,masks/mask_005.jpg,,,,,,,,,,,,,,,,,,,,,,,,,,,,,,,,,,,,,,,,,,,0,0,0,4,1,,,,,,,,,,,,,,,,,,,,,,,,,,,,,,,,,,,,,,,,,,,,,,
334597,001,2022-11-14_01h00.38.982,Info_measure_main_exp,2022.2.2,Win32,59.85515054,,,,,,,,,,,,,,,,,,masks/mask_001.jpg,,,,,,,,,,,,,,,,,,,,,,,,,,,,,,,,,,,,,,,,,,,0,1,1,0,1,,,,,,,,,,,,,,,,,,,,,,,,,,,,,,,,,,,,,,,,,,,,,,
334597,001,2022-11-14_01h00.38.982,Info_measure_main_exp,2022.2.2,Win32,59.85515054,,,,,,,,,,,,,,,,,,masks/mask_002.jpg,,,,,,,,,,,,,,,,,,,,,,,,,,,,,,,,,,,,,,,,,,,0,2,2,1,1,,,,,,,,,,,,,,,,,,,,,,,,,,,,,,,,,,,,,,,,,,,,,,
334597,001,2022-11-14_01h00.38.982,Info_measure_main_exp,2022.2.2,Win32,59.85515054,,,,,,,,,,,,,,,,,,masks/mask_003.jpg,,,,,,,,,,,,,,,,,,,,,,,,,,,,,,,,,,,,,,,,,,,0,3,3,2,1,,,,,,,,,,,,,,,,,,,,,,,,,,,,,,,,,,,,,,,,,,,,,,
334597,001,2022-11-14_01h00.38.982,Info_measure_main_exp,2022.2.2,Win32,59.85515054,,,,,,,,,,,,,,,,,,masks/mask_004.jpg,,,,,,,,,,,,,,,,,,,,,,,,,,,,,,,,,,,,,,,,,,,0,4,4,3,1,,,,,,,,,,,,,,,,,,,,,,,,,,,,,,,,,,,,,,,,,,,,,,
334597,001,2022-11-14_01h00.38.982,Info_measure_main_exp,2022.2.2,Win32,59.85515054,,,,,,,,,,,,,,,,,,masks/mask_003.jpg,,,,,,,,,,,,,,,,,,,,,,,,,,,,,,,,,,,,,,,,,,,,,,,,0,0,0,2,1,,,,,,,,,,,,,,,,,,,,,,,,,,,,,,,,,,,,,,,,,
334597,001,2022-11-14_01h00.38.982,Info_measure_main_exp,2022.2.2,Win32,59.85515054,,,,,,,,,,,,,,,,,,masks/mask_004.jpg,,,,,,,,,,,,,,,,,,,,,,,,,,,,,,,,,,,,,,,,,,,,,,,,0,1,1,3,1,,,,,,,,,,,,,,,,,,,,,,,,,,,,,,,,,,,,,,,,,
334597,001,2022-11-14_01h00.38.982,Info_measure_main_exp,2022.2.2,Win32,59.85515054,,,,,,,,,,,,,,,,,,masks/mask_005.jpg,,,,,,,,,,,,,,,,,,,,,,,,,,,,,,,,,,,,,,,,,,,,,,,,0,2,2,4,1,,,,,,,,,,,,,,,,,,,,,,,,,,,,,,,,,,,,,,,,,
334597,001,2022-11-14_01h00.38.982,Info_measure_main_exp,2022.2.2,Win32,59.85515054,,,,,,,,,,,,,,,,,,masks/mask_001.jpg,,,,,,,,,,,,,,,,,,,,,,,,,,,,,,,,,,,,,,,,,,,,,,,,0,3,3,0,1,,,,,,,,,,,,,,,,,,,,,,,,,,,,,,,,,,,,,,,,,
334597,001,2022-11-14_01h00.38.982,Info_measure_main_exp,2022.2.2,Win32,59.85515054,,,,,,,,,,,,,,,,,,masks/mask_002.jpg,,,,,,,,,,,,,,,,,,,,,,,,,,,,,,,,,,,,,,,,,,,,,,,,0,4,4,1,1,,,,,,,,,,,,,,,,,,,,,,,,,,,,,,,,,,,,,,,,,
334597,001,2022-11-14_01h00.38.982,Info_measure_main_exp,2022.2.2,Win32,59.85515054,,,,,,,,,,,,,,,,,,,,,,,,,,,,,,6,8.0276,1,,,,,,,,,,,,0,131,5,5,2082,2082,absent_patch/patch0002082.jpg,absent_patch/patch0002082.jpg,,,,,,,,,,,,,,,,,,,,0.108518968,0.013240858,1,0,0,response1disk,28,-0.008056564,-0.018144875,1,0,0,center_square,0,27,27,74,1,,,,,,,,,,,,,,,,,,,,,,,
334597,001,2022-11-14_01h00.38.982,Info_measure_main_exp,2022.2.2,Win32,59.85515054,,,,,,,,,,,,,,,,,,masks/mask_003.jpg,,,,,,,,,,,,,,,,,,,,,,,,,,,,,,,,,,,,,,,,,,,0,0,0,2,1,,,,,,,,,,,,,,,,,,,,,,,,,,,,,,,,,,,,,,,,,,,,,,
334597,001,2022-11-14_01h00.38.982,Info_measure_main_exp,2022.2.2,Win32,59.85515054,,,,,,,,,,,,,,,,,,masks/mask_005.jpg,,,,,,,,,,,,,,,,,,,,,,,,,,,,,,,,,,,,,,,,,,,0,1,1,4,1,,,,,,,,,,,,,,,,,,,,,,,,,,,,,,,,,,,,,,,,,,,,,,
334597,001,2022-11-14_01h00.38.982,Info_measure_main_exp,2022.2.2,Win32,59.85515054,,,,,,,,,,,,,,,,,,masks/mask_002.jpg,,,,,,,,,,,,,,,,,,,,,,,,,,,,,,,,,,,,,,,,,,,0,2,2,1,1,,,,,,,,,,,,,,,,,,,,,,,,,,,,,,,,,,,,,,,,,,,,,,
334597,001,2022-11-14_01h00.38.982,Info_measure_main_exp,2022.2.2,Win32,59.85515054,,,,,,,,,,,,,,,,,,masks/mask_004.jpg,,,,,,,,,,,,,,,,,,,,,,,,,,,,,,,,,,,,,,,,,,,0,3,3,3,1,,,,,,,,,,,,,,,,,,,,,,,,,,,,,,,,,,,,,,,,,,,,,,
334597,001,2022-11-14_01h00.38.982,Info_measure_main_exp,2022.2.2,Win32,59.85515054,,,,,,,,,,,,,,,,,,masks/mask_001.jpg,,,,,,,,,,,,,,,,,,,,,,,,,,,,,,,,,,,,,,,,,,,0,4,4,0,1,,,,,,,,,,,,,,,,,,,,,,,,,,,,,,,,,,,,,,,,,,,,,,
334597,001,2022-11-14_01h00.38.982,Info_measure_main_exp,2022.2.2,Win32,59.85515054,,,,,,,,,,,,,,,,,,masks/mask_002.jpg,,,,,,,,,,,,,,,,,,,,,,,,,,,,,,,,,,,,,,,,,,,,,,,,0,0,0,1,1,,,,,,,,,,,,,,,,,,,,,,,,,,,,,,,,,,,,,,,,,
334597,001,2022-11-14_01h00.38.982,Info_measure_main_exp,2022.2.2,Win32,59.85515054,,,,,,,,,,,,,,,,,,masks/mask_005.jpg,,,,,,,,,,,,,,,,,,,,,,,,,,,,,,,,,,,,,,,,,,,,,,,,0,1,1,4,1,,,,,,,,,,,,,,,,,,,,,,,,,,,,,,,,,,,,,,,,,
334597,001,2022-11-14_01h00.38.982,Info_measure_main_exp,2022.2.2,Win32,59.85515054,,,,,,,,,,,,,,,,,,masks/mask_004.jpg,,,,,,,,,,,,,,,,,,,,,,,,,,,,,,,,,,,,,,,,,,,,,,,,0,2,2,3,1,,,,,,,,,,,,,,,,,,,,,,,,,,,,,,,,,,,,,,,,,
334597,001,2022-11-14_01h00.38.982,Info_measure_main_exp,2022.2.2,Win32,59.85515054,,,,,,,,,,,,,,,,,,masks/mask_001.jpg,,,,,,,,,,,,,,,,,,,,,,,,,,,,,,,,,,,,,,,,,,,,,,,,0,3,3,0,1,,,,,,,,,,,,,,,,,,,,,,,,,,,,,,,,,,,,,,,,,
334597,001,2022-11-14_01h00.38.982,Info_measure_main_exp,2022.2.2,Win32,59.85515054,,,,,,,,,,,,,,,,,,masks/mask_003.jpg,,,,,,,,,,,,,,,,,,,,,,,,,,,,,,,,,,,,,,,,,,,,,,,,0,4,4,2,1,,,,,,,,,,,,,,,,,,,,,,,,,,,,,,,,,,,,,,,,,
334597,001,2022-11-14_01h00.38.982,Info_measure_main_exp,2022.2.2,Win32,59.85515054,,,,,,,,,,,,,,,,,,,,,,,,,,,,,,6,0.5561,1,,,,,,,,,,,,0,131,5,5,2082,2238,absent_patch/patch0002082.jpg,absent_patch/patch0002238.jpg,,,,,,,,,,,,,,,,,,,,0.111881752,0.010999028,1,0,0,response1disk,29,0.013240858,-0.005814772,1,0,0,center_square,0,28,28,22,1,,,,,,,,,,,,,,,,,,,,,,,
334597,001,2022-11-14_01h00.38.982,Info_measure_main_exp,2022.2.2,Win32,59.85515054,,,,,,,,,,,,,,,,,,masks/mask_003.jpg,,,,,,,,,,,,,,,,,,,,,,,,,,,,,,,,,,,,,,,,,,,0,0,0,2,1,,,,,,,,,,,,,,,,,,,,,,,,,,,,,,,,,,,,,,,,,,,,,,
334597,001,2022-11-14_01h00.38.982,Info_measure_main_exp,2022.2.2,Win32,59.85515054,,,,,,,,,,,,,,,,,,masks/mask_004.jpg,,,,,,,,,,,,,,,,,,,,,,,,,,,,,,,,,,,,,,,,,,,0,1,1,3,1,,,,,,,,,,,,,,,,,,,,,,,,,,,,,,,,,,,,,,,,,,,,,,
334597,001,2022-11-14_01h00.38.982,Info_measure_main_exp,2022.2.2,Win32,59.85515054,,,,,,,,,,,,,,,,,,masks/mask_001.jpg,,,,,,,,,,,,,,,,,,,,,,,,,,,,,,,,,,,,,,,,,,,0,2,2,0,1,,,,,,,,,,,,,,,,,,,,,,,,,,,,,,,,,,,,,,,,,,,,,,
334597,001,2022-11-14_01h00.38.982,Info_measure_main_exp,2022.2.2,Win32,59.85515054,,,,,,,,,,,,,,,,,,masks/mask_005.jpg,,,,,,,,,,,,,,,,,,,,,,,,,,,,,,,,,,,,,,,,,,,0,3,3,4,1,,,,,,,,,,,,,,,,,,,,,,,,,,,,,,,,,,,,,,,,,,,,,,
334597,001,2022-11-14_01h00.38.982,Info_measure_main_exp,2022.2.2,Win32,59.85515054,,,,,,,,,,,,,,,,,,masks/mask_002.jpg,,,,,,,,,,,,,,,,,,,,,,,,,,,,,,,,,,,,,,,,,,,0,4,4,1,1,,,,,,,,,,,,,,,,,,,,,,,,,,,,,,,,,,,,,,,,,,,,,,
334597,001,2022-11-14_01h00.38.982,Info_measure_main_exp,2022.2.2,Win32,59.85515054,,,,,,,,,,,,,,,,,,masks/mask_005.jpg,,,,,,,,,,,,,,,,,,,,,,,,,,,,,,,,,,,,,,,,,,,,,,,,0,0,0,4,1,,,,,,,,,,,,,,,,,,,,,,,,,,,,,,,,,,,,,,,,,
334597,001,2022-11-14_01h00.38.982,Info_measure_main_exp,2022.2.2,Win32,59.85515054,,,,,,,,,,,,,,,,,,masks/mask_001.jpg,,,,,,,,,,,,,,,,,,,,,,,,,,,,,,,,,,,,,,,,,,,,,,,,0,1,1,0,1,,,,,,,,,,,,,,,,,,,,,,,,,,,,,,,,,,,,,,,,,
334597,001,2022-11-14_01h00.38.982,Info_measure_main_exp,2022.2.2,Win32,59.85515054,,,,,,,,,,,,,,,,,,masks/mask_002.jpg,,,,,,,,,,,,,,,,,,,,,,,,,,,,,,,,,,,,,,,,,,,,,,,,0,2,2,1,1,,,,,,,,,,,,,,,,,,,,,,,,,,,,,,,,,,,,,,,,,
334597,001,2022-11-14_01h00.38.982,Info_measure_main_exp,2022.2.2,Win32,59.85515054,,,,,,,,,,,,,,,,,,masks/mask_004.jpg,,,,,,,,,,,,,,,,,,,,,,,,,,,,,,,,,,,,,,,,,,,,,,,,0,3,3,3,1,,,,,,,,,,,,,,,,,,,,,,,,,,,,,,,,,,,,,,,,,
334597,001,2022-11-14_01h00.38.982,Info_measure_main_exp,2022.2.2,Win32,59.85515054,,,,,,,,,,,,,,,,,,masks/mask_003.jpg,,,,,,,,,,,,,,,,,,,,,,,,,,,,,,,,,,,,,,,,,,,,,,,,0,4,4,2,1,,,,,,,,,,,,,,,,,,,,,,,,,,,,,,,,,,,,,,,,,
334597,001,2022-11-14_01h00.38.982,Info_measure_main_exp,2022.2.2,Win32,59.85515054,,,,,,,,,,,,,,,,,,,,,,,,,,,,,,5,0.7287,1,,,,,,,,,,,,0,131,5,5,2142,2082,absent_patch/patch0002142.jpg,absent_patch/patch0002082.jpg,,,,,,,,,,,,,,,,,,,,0.124211854,-0.055135258,1,0,0,response3disk,30,0.013240858,-0.014782168,1,0,0,center_square,0,29,29,88,1,,,,,,,,,,,,,,,,,,,,,,,
334597,001,2022-11-14_01h00.38.982,Info_measure_main_exp,2022.2.2,Win32,59.85515054,,,,,,,,,,,,,,,,,,masks/mask_001.jpg,,,,,,,,,,,,,,,,,,,,,,,,,,,,,,,,,,,,,,,,,,,0,0,0,0,1,,,,,,,,,,,,,,,,,,,,,,,,,,,,,,,,,,,,,,,,,,,,,,
334597,001,2022-11-14_01h00.38.982,Info_measure_main_exp,2022.2.2,Win32,59.85515054,,,,,,,,,,,,,,,,,,masks/mask_004.jpg,,,,,,,,,,,,,,,,,,,,,,,,,,,,,,,,,,,,,,,,,,,0,1,1,3,1,,,,,,,,,,,,,,,,,,,,,,,,,,,,,,,,,,,,,,,,,,,,,,
334597,001,2022-11-14_01h00.38.982,Info_measure_main_exp,2022.2.2,Win32,59.85515054,,,,,,,,,,,,,,,,,,masks/mask_002.jpg,,,,,,,,,,,,,,,,,,,,,,,,,,,,,,,,,,,,,,,,,,,0,2,2,1,1,,,,,,,,,,,,,,,,,,,,,,,,,,,,,,,,,,,,,,,,,,,,,,
334597,001,2022-11-14_01h00.38.982,Info_measure_main_exp,2022.2.2,Win32,59.85515054,,,,,,,,,,,,,,,,,,masks/mask_003.jpg,,,,,,,,,,,,,,,,,,,,,,,,,,,,,,,,,,,,,,,,,,,0,3,3,2,1,,,,,,,,,,,,,,,,,,,,,,,,,,,,,,,,,,,,,,,,,,,,,,
334597,001,2022-11-14_01h00.38.982,Info_measure_main_exp,2022.2.2,Win32,59.85515054,,,,,,,,,,,,,,,,,,masks/mask_005.jpg,,,,,,,,,,,,,,,,,,,,,,,,,,,,,,,,,,,,,,,,,,,0,4,4,4,1,,,,,,,,,,,,,,,,,,,,,,,,,,,,,,,,,,,,,,,,,,,,,,
334597,001,2022-11-14_01h00.38.982,Info_measure_main_exp,2022.2.2,Win32,59.85515054,,,,,,,,,,,,,,,,,,masks/mask_001.jpg,,,,,,,,,,,,,,,,,,,,,,,,,,,,,,,,,,,,,,,,,,,,,,,,0,0,0,0,1,,,,,,,,,,,,,,,,,,,,,,,,,,,,,,,,,,,,,,,,,
334597,001,2022-11-14_01h00.38.982,Info_measure_main_exp,2022.2.2,Win32,59.85515054,,,,,,,,,,,,,,,,,,masks/mask_004.jpg,,,,,,,,,,,,,,,,,,,,,,,,,,,,,,,,,,,,,,,,,,,,,,,,0,1,1,3,1,,,,,,,,,,,,,,,,,,,,,,,,,,,,,,,,,,,,,,,,,
334597,001,2022-11-14_01h00.38.982,Info_measure_main_exp,2022.2.2,Win32,59.85515054,,,,,,,,,,,,,,,,,,masks/mask_005.jpg,,,,,,,,,,,,,,,,,,,,,,,,,,,,,,,,,,,,,,,,,,,,,,,,0,2,2,4,1,,,,,,,,,,,,,,,,,,,,,,,,,,,,,,,,,,,,,,,,,
334597,001,2022-11-14_01h00.38.982,Info_measure_main_exp,2022.2.2,Win32,59.85515054,,,,,,,,,,,,,,,,,,masks/mask_002.jpg,,,,,,,,,,,,,,,,,,,,,,,,,,,,,,,,,,,,,,,,,,,,,,,,0,3,3,1,1,,,,,,,,,,,,,,,,,,,,,,,,,,,,,,,,,,,,,,,,,
334597,001,2022-11-14_01h00.38.982,Info_measure_main_exp,2022.2.2,Win32,59.85515054,,,,,,,,,,,,,,,,,,masks/mask_003.jpg,,,,,,,,,,,,,,,,,,,,,,,,,,,,,,,,,,,,,,,,,,,,,,,,0,4,4,2,1,,,,,,,,,,,,,,,,,,,,,,,,,,,,,,,,,,,,,,,,,
334597,001,2022-11-14_01h00.38.982,Info_measure_main_exp,2022.2.2,Win32,59.85515054,,,,,,,,,,,,,,,,,,,,,,,,,,,,,,6,0.7339,1,,,,,,,,,,,,0,131,5,5,2178,2154,absent_patch/patch0002178.jpg,absent_patch/patch0002154.jpg,,,,,,,,,,,,,,,,,,,,0.058077607,0.0210873,1,0,0,response1disk,31,0.002031709,-0.001331113,1,0,0,center_square,0,30,30,63,1,,,,,,,,,,,,,,,,,,,,,,,
334597,001,2022-11-14_01h00.38.982,Info_measure_main_exp,2022.2.2,Win32,59.85515054,,,,,,,,,,,,,,,,,,masks/mask_001.jpg,,,,,,,,,,,,,,,,,,,,,,,,,,,,,,,,,,,,,,,,,,,0,0,0,0,1,,,,,,,,,,,,,,,,,,,,,,,,,,,,,,,,,,,,,,,,,,,,,,
334597,001,2022-11-14_01h00.38.982,Info_measure_main_exp,2022.2.2,Win32,59.85515054,,,,,,,,,,,,,,,,,,masks/mask_005.jpg,,,,,,,,,,,,,,,,,,,,,,,,,,,,,,,,,,,,,,,,,,,0,1,1,4,1,,,,,,,,,,,,,,,,,,,,,,,,,,,,,,,,,,,,,,,,,,,,,,
334597,001,2022-11-14_01h00.38.982,Info_measure_main_exp,2022.2.2,Win32,59.85515054,,,,,,,,,,,,,,,,,,masks/mask_002.jpg,,,,,,,,,,,,,,,,,,,,,,,,,,,,,,,,,,,,,,,,,,,0,2,2,1,1,,,,,,,,,,,,,,,,,,,,,,,,,,,,,,,,,,,,,,,,,,,,,,
334597,001,2022-11-14_01h00.38.982,Info_measure_main_exp,2022.2.2,Win32,59.85515054,,,,,,,,,,,,,,,,,,masks/mask_004.jpg,,,,,,,,,,,,,,,,,,,,,,,,,,,,,,,,,,,,,,,,,,,0,3,3,3,1,,,,,,,,,,,,,,,,,,,,,,,,,,,,,,,,,,,,,,,,,,,,,,
334597,001,2022-11-14_01h00.38.982,Info_measure_main_exp,2022.2.2,Win32,59.85515054,,,,,,,,,,,,,,,,,,masks/mask_003.jpg,,,,,,,,,,,,,,,,,,,,,,,,,,,,,,,,,,,,,,,,,,,0,4,4,2,1,,,,,,,,,,,,,,,,,,,,,,,,,,,,,,,,,,,,,,,,,,,,,,
334597,001,2022-11-14_01h00.38.982,Info_measure_main_exp,2022.2.2,Win32,59.85515054,,,,,,,,,,,,,,,,,,masks/mask_004.jpg,,,,,,,,,,,,,,,,,,,,,,,,,,,,,,,,,,,,,,,,,,,,,,,,0,0,0,3,1,,,,,,,,,,,,,,,,,,,,,,,,,,,,,,,,,,,,,,,,,
334597,001,2022-11-14_01h00.38.982,Info_measure_main_exp,2022.2.2,Win32,59.85515054,,,,,,,,,,,,,,,,,,masks/mask_003.jpg,,,,,,,,,,,,,,,,,,,,,,,,,,,,,,,,,,,,,,,,,,,,,,,,0,1,1,2,1,,,,,,,,,,,,,,,,,,,,,,,,,,,,,,,,,,,,,,,,,
334597,001,2022-11-14_01h00.38.982,Info_measure_main_exp,2022.2.2,Win32,59.85515054,,,,,,,,,,,,,,,,,,masks/mask_002.jpg,,,,,,,,,,,,,,,,,,,,,,,,,,,,,,,,,,,,,,,,,,,,,,,,0,2,2,1,1,,,,,,,,,,,,,,,,,,,,,,,,,,,,,,,,,,,,,,,,,
334597,001,2022-11-14_01h00.38.982,Info_measure_main_exp,2022.2.2,Win32,59.85515054,,,,,,,,,,,,,,,,,,masks/mask_005.jpg,,,,,,,,,,,,,,,,,,,,,,,,,,,,,,,,,,,,,,,,,,,,,,,,0,3,3,4,1,,,,,,,,,,,,,,,,,,,,,,,,,,,,,,,,,,,,,,,,,
334597,001,2022-11-14_01h00.38.982,Info_measure_main_exp,2022.2.2,Win32,59.85515054,,,,,,,,,,,,,,,,,,masks/mask_001.jpg,,,,,,,,,,,,,,,,,,,,,,,,,,,,,,,,,,,,,,,,,,,,,,,,0,4,4,0,1,,,,,,,,,,,,,,,,,,,,,,,,,,,,,,,,,,,,,,,,,
334597,001,2022-11-14_01h00.38.982,Info_measure_main_exp,2022.2.2,Win32,59.85515054,,,,,,,,,,,,,,,,,,,,,,,,,,,,,,6,0.5841,1,,,,,,,,,,,,0,131,5,5,2274,2214,absent_patch/patch0002274.jpg,absent_patch/patch0002214.jpg,,,,,,,,,,,,,,,,,,,,0.084979718,0.017724517,1,0,0,response1disk,32,0.012119981,-0.004693896,1,0,0,center_square,0,31,31,11,1,,,,,,,,,,,,,,,,,,,,,,,
334597,001,2022-11-14_01h00.38.982,Info_measure_main_exp,2022.2.2,Win32,59.85515054,,,,,,,,,,,,,,,,,,masks/mask_002.jpg,,,,,,,,,,,,,,,,,,,,,,,,,,,,,,,,,,,,,,,,,,,0,0,0,1,1,,,,,,,,,,,,,,,,,,,,,,,,,,,,,,,,,,,,,,,,,,,,,,
334597,001,2022-11-14_01h00.38.982,Info_measure_main_exp,2022.2.2,Win32,59.85515054,,,,,,,,,,,,,,,,,,masks/mask_004.jpg,,,,,,,,,,,,,,,,,,,,,,,,,,,,,,,,,,,,,,,,,,,0,1,1,3,1,,,,,,,,,,,,,,,,,,,,,,,,,,,,,,,,,,,,,,,,,,,,,,
334597,001,2022-11-14_01h00.38.982,Info_measure_main_exp,2022.2.2,Win32,59.85515054,,,,,,,,,,,,,,,,,,masks/mask_005.jpg,,,,,,,,,,,,,,,,,,,,,,,,,,,,,,,,,,,,,,,,,,,0,2,2,4,1,,,,,,,,,,,,,,,,,,,,,,,,,,,,,,,,,,,,,,,,,,,,,,
334597,001,2022-11-14_01h00.38.982,Info_measure_main_exp,2022.2.2,Win32,59.85515054,,,,,,,,,,,,,,,,,,masks/mask_003.jpg,,,,,,,,,,,,,,,,,,,,,,,,,,,,,,,,,,,,,,,,,,,0,3,3,2,1,,,,,,,,,,,,,,,,,,,,,,,,,,,,,,,,,,,,,,,,,,,,,,
334597,001,2022-11-14_01h00.38.982,Info_measure_main_exp,2022.2.2,Win32,59.85515054,,,,,,,,,,,,,,,,,,masks/mask_001.jpg,,,,,,,,,,,,,,,,,,,,,,,,,,,,,,,,,,,,,,,,,,,0,4,4,0,1,,,,,,,,,,,,,,,,,,,,,,,,,,,,,,,,,,,,,,,,,,,,,,
334597,001,2022-11-14_01h00.38.982,Info_measure_main_exp,2022.2.2,Win32,59.85515054,,,,,,,,,,,,,,,,,,masks/mask_005.jpg,,,,,,,,,,,,,,,,,,,,,,,,,,,,,,,,,,,,,,,,,,,,,,,,0,0,0,4,1,,,,,,,,,,,,,,,,,,,,,,,,,,,,,,,,,,,,,,,,,
334597,001,2022-11-14_01h00.38.982,Info_measure_main_exp,2022.2.2,Win32,59.85515054,,,,,,,,,,,,,,,,,,masks/mask_004.jpg,,,,,,,,,,,,,,,,,,,,,,,,,,,,,,,,,,,,,,,,,,,,,,,,0,1,1,3,1,,,,,,,,,,,,,,,,,,,,,,,,,,,,,,,,,,,,,,,,,
334597,001,2022-11-14_01h00.38.982,Info_measure_main_exp,2022.2.2,Win32,59.85515054,,,,,,,,,,,,,,,,,,masks/mask_003.jpg,,,,,,,,,,,,,,,,,,,,,,,,,,,,,,,,,,,,,,,,,,,,,,,,0,2,2,2,1,,,,,,,,,,,,,,,,,,,,,,,,,,,,,,,,,,,,,,,,,
334597,001,2022-11-14_01h00.38.982,Info_measure_main_exp,2022.2.2,Win32,59.85515054,,,,,,,,,,,,,,,,,,masks/mask_002.jpg,,,,,,,,,,,,,,,,,,,,,,,,,,,,,,,,,,,,,,,,,,,,,,,,0,3,3,1,1,,,,,,,,,,,,,,,,,,,,,,,,,,,,,,,,,,,,,,,,,
334597,001,2022-11-14_01h00.38.982,Info_measure_main_exp,2022.2.2,Win32,59.85515054,,,,,,,,,,,,,,,,,,masks/mask_001.jpg,,,,,,,,,,,,,,,,,,,,,,,,,,,,,,,,,,,,,,,,,,,,,,,,0,4,4,0,1,,,,,,,,,,,,,,,,,,,,,,,,,,,,,,,,,,,,,,,,,
334597,001,2022-11-14_01h00.38.982,Info_measure_main_exp,2022.2.2,Win32,59.85515054,,,,,,,,,,,,,,,,,,,,,,,,,,,,,,6,2.4028,1,,,,,,,,,,,,1,131,5,5,2190,1,absent_patch/patch0002190.jpg,present_patch/cong_131_5_a.jpg,,,,,,,,,,,,,,,,,,,,0.062561343,0.025570921,1,0,0,response1disk,33,0.008757198,-0.0125403,1,0,0,center_square,0,32,32,64,1,,,,,,,,,,,,,,,,,,,,,,,
334597,001,2022-11-14_01h00.38.982,Info_measure_main_exp,2022.2.2,Win32,59.85515054,,,,,,,,,,,,,,,,,,masks/mask_001.jpg,,,,,,,,,,,,,,,,,,,,,,,,,,,,,,,,,,,,,,,,,,,0,0,0,0,1,,,,,,,,,,,,,,,,,,,,,,,,,,,,,,,,,,,,,,,,,,,,,,
334597,001,2022-11-14_01h00.38.982,Info_measure_main_exp,2022.2.2,Win32,59.85515054,,,,,,,,,,,,,,,,,,masks/mask_003.jpg,,,,,,,,,,,,,,,,,,,,,,,,,,,,,,,,,,,,,,,,,,,0,1,1,2,1,,,,,,,,,,,,,,,,,,,,,,,,,,,,,,,,,,,,,,,,,,,,,,
334597,001,2022-11-14_01h00.38.982,Info_measure_main_exp,2022.2.2,Win32,59.85515054,,,,,,,,,,,,,,,,,,masks/mask_004.jpg,,,,,,,,,,,,,,,,,,,,,,,,,,,,,,,,,,,,,,,,,,,0,2,2,3,1,,,,,,,,,,,,,,,,,,,,,,,,,,,,,,,,,,,,,,,,,,,,,,
334597,001,2022-11-14_01h00.38.982,Info_measure_main_exp,2022.2.2,Win32,59.85515054,,,,,,,,,,,,,,,,,,masks/mask_002.jpg,,,,,,,,,,,,,,,,,,,,,,,,,,,,,,,,,,,,,,,,,,,0,3,3,1,1,,,,,,,,,,,,,,,,,,,,,,,,,,,,,,,,,,,,,,,,,,,,,,
334597,001,2022-11-14_01h00.38.982,Info_measure_main_exp,2022.2.2,Win32,59.85515054,,,,,,,,,,,,,,,,,,masks/mask_005.jpg,,,,,,,,,,,,,,,,,,,,,,,,,,,,,,,,,,,,,,,,,,,0,4,4,4,1,,,,,,,,,,,,,,,,,,,,,,,,,,,,,,,,,,,,,,,,,,,,,,
334597,001,2022-11-14_01h00.38.982,Info_measure_main_exp,2022.2.2,Win32,59.85515054,,,,,,,,,,,,,,,,,,masks/mask_004.jpg,,,,,,,,,,,,,,,,,,,,,,,,,,,,,,,,,,,,,,,,,,,,,,,,0,0,0,3,1,,,,,,,,,,,,,,,,,,,,,,,,,,,,,,,,,,,,,,,,,
334597,001,2022-11-14_01h00.38.982,Info_measure_main_exp,2022.2.2,Win32,59.85515054,,,,,,,,,,,,,,,,,,masks/mask_003.jpg,,,,,,,,,,,,,,,,,,,,,,,,,,,,,,,,,,,,,,,,,,,,,,,,0,1,1,2,1,,,,,,,,,,,,,,,,,,,,,,,,,,,,,,,,,,,,,,,,,
334597,001,2022-11-14_01h00.38.982,Info_measure_main_exp,2022.2.2,Win32,59.85515054,,,,,,,,,,,,,,,,,,masks/mask_002.jpg,,,,,,,,,,,,,,,,,,,,,,,,,,,,,,,,,,,,,,,,,,,,,,,,0,2,2,1,1,,,,,,,,,,,,,,,,,,,,,,,,,,,,,,,,,,,,,,,,,
334597,001,2022-11-14_01h00.38.982,Info_measure_main_exp,2022.2.2,Win32,59.85515054,,,,,,,,,,,,,,,,,,masks/mask_005.jpg,,,,,,,,,,,,,,,,,,,,,,,,,,,,,,,,,,,,,,,,,,,,,,,,0,3,3,4,1,,,,,,,,,,,,,,,,,,,,,,,,,,,,,,,,,,,,,,,,,
334597,001,2022-11-14_01h00.38.982,Info_measure_main_exp,2022.2.2,Win32,59.85515054,,,,,,,,,,,,,,,,,,masks/mask_001.jpg,,,,,,,,,,,,,,,,,,,,,,,,,,,,,,,,,,,,,,,,,,,,,,,,0,4,4,0,1,,,,,,,,,,,,,,,,,,,,,,,,,,,,,,,,,,,,,,,,,
334597,001,2022-11-14_01h00.38.982,Info_measure_main_exp,2022.2.2,Win32,59.85515054,,,,,,,,,,,,,,,,,,,,,,,,,,,,,,6,0.5502,1,,,,,,,,,,,,1,131,5,5,1,2154,present_patch/cong_131_5_a.jpg,absent_patch/patch0002154.jpg,,,,,,,,,,,,,,,,,,,,0.087221547,0.012119943,1,0,0,response1disk,34,0.017724517,0.003152508,1,0,0,center_square,0,33,33,87,1,,,,,,,,,,,,,,,,,,,,,,,
334597,001,2022-11-14_01h00.38.982,Info_measure_main_exp,2022.2.2,Win32,59.85515054,,,,,,,,,,,,,,,,,,masks/mask_003.jpg,,,,,,,,,,,,,,,,,,,,,,,,,,,,,,,,,,,,,,,,,,,0,0,0,2,1,,,,,,,,,,,,,,,,,,,,,,,,,,,,,,,,,,,,,,,,,,,,,,
334597,001,2022-11-14_01h00.38.982,Info_measure_main_exp,2022.2.2,Win32,59.85515054,,,,,,,,,,,,,,,,,,masks/mask_004.jpg,,,,,,,,,,,,,,,,,,,,,,,,,,,,,,,,,,,,,,,,,,,0,1,1,3,1,,,,,,,,,,,,,,,,,,,,,,,,,,,,,,,,,,,,,,,,,,,,,,
334597,001,2022-11-14_01h00.38.982,Info_measure_main_exp,2022.2.2,Win32,59.85515054,,,,,,,,,,,,,,,,,,masks/mask_001.jpg,,,,,,,,,,,,,,,,,,,,,,,,,,,,,,,,,,,,,,,,,,,0,2,2,0,1,,,,,,,,,,,,,,,,,,,,,,,,,,,,,,,,,,,,,,,,,,,,,,
334597,001,2022-11-14_01h00.38.982,Info_measure_main_exp,2022.2.2,Win32,59.85515054,,,,,,,,,,,,,,,,,,masks/mask_002.jpg,,,,,,,,,,,,,,,,,,,,,,,,,,,,,,,,,,,,,,,,,,,0,3,3,1,1,,,,,,,,,,,,,,,,,,,,,,,,,,,,,,,,,,,,,,,,,,,,,,
334597,001,2022-11-14_01h00.38.982,Info_measure_main_exp,2022.2.2,Win32,59.85515054,,,,,,,,,,,,,,,,,,masks/mask_005.jpg,,,,,,,,,,,,,,,,,,,,,,,,,,,,,,,,,,,,,,,,,,,0,4,4,4,1,,,,,,,,,,,,,,,,,,,,,,,,,,,,,,,,,,,,,,,,,,,,,,
334597,001,2022-11-14_01h00.38.982,Info_measure_main_exp,2022.2.2,Win32,59.85515054,,,,,,,,,,,,,,,,,,masks/mask_002.jpg,,,,,,,,,,,,,,,,,,,,,,,,,,,,,,,,,,,,,,,,,,,,,,,,0,0,0,1,1,,,,,,,,,,,,,,,,,,,,,,,,,,,,,,,,,,,,,,,,,
334597,001,2022-11-14_01h00.38.982,Info_measure_main_exp,2022.2.2,Win32,59.85515054,,,,,,,,,,,,,,,,,,masks/mask_005.jpg,,,,,,,,,,,,,,,,,,,,,,,,,,,,,,,,,,,,,,,,,,,,,,,,0,1,1,4,1,,,,,,,,,,,,,,,,,,,,,,,,,,,,,,,,,,,,,,,,,
334597,001,2022-11-14_01h00.38.982,Info_measure_main_exp,2022.2.2,Win32,59.85515054,,,,,,,,,,,,,,,,,,masks/mask_003.jpg,,,,,,,,,,,,,,,,,,,,,,,,,,,,,,,,,,,,,,,,,,,,,,,,0,2,2,2,1,,,,,,,,,,,,,,,,,,,,,,,,,,,,,,,,,,,,,,,,,
334597,001,2022-11-14_01h00.38.982,Info_measure_main_exp,2022.2.2,Win32,59.85515054,,,,,,,,,,,,,,,,,,masks/mask_004.jpg,,,,,,,,,,,,,,,,,,,,,,,,,,,,,,,,,,,,,,,,,,,,,,,,0,3,3,3,1,,,,,,,,,,,,,,,,,,,,,,,,,,,,,,,,,,,,,,,,,
