participant,session,date,expName,psychopyVersion,OS,frameRate,space_press_continue.keys,space_press_continue.rt,space_press_continue_2.keys,space_press_continue_2.rt,space_press_continue_3.keys,space_press_continue_3.rt,space_press_continue_4.keys,space_press_continue_4.rt,space_press_continue_5.keys,space_press_continue_5.rt,space_press_continue_6.keys,space_press_continue_6.rt,prac_mask_loop_1.thisRepN,prac_mask_loop_1.thisTrialN,prac_mask_loop_1.thisN,prac_mask_loop_1.thisIndex,prac_mask_loop_1.ran,mask_name,prac_mask_loop_2.thisRepN,prac_mask_loop_2.thisTrialN,prac_mask_loop_2.thisN,prac_mask_loop_2.thisIndex,prac_mask_loop_2.ran,mouse_2.x,mouse_2.y,mouse_2.leftButton,mouse_2.midButton,mouse_2.rightButton,mouse_2.clicked_name,similarity,response_time,Pass,mouse_12.x,mouse_12.y,mouse_12.leftButton,mouse_12.midButton,mouse_12.rightButton,mouse_12.clicked_name,prac_loop.thisRepN,prac_loop.thisTrialN,prac_loop.thisN,prac_loop.thisIndex,prac_loop.ran,Pair_type,Image_num,Patch_1_loc,Patch_2_loc,Patch_1_info,Patch_2_info,Patch_1_name,Patch_2_name,mouse_1.x,mouse_1.y,mouse_1.leftButton,mouse_1.midButton,mouse_1.rightButton,mouse_1.time,mouse_1.clicked_name,space_press_continue_7.keys,space_press_continue_7.rt,mask_loop.thisRepN,mask_loop.thisTrialN,mask_loop.thisN,mask_loop.thisIndex,mask_loop.ran,mask_loop_2.thisRepN,mask_loop_2.thisTrialN,mask_loop_2.thisN,mask_loop_2.thisIndex,mask_loop_2.ran,mouse.x,mouse.y,mouse.leftButton,mouse.midButton,mouse.rightButton,mouse.clicked_name,trialNumber,mouse_11.x,mouse_11.y,mouse_11.leftButton,mouse_11.midButton,mouse_11.rightButton,mouse_11.clicked_name,first_pass_loop.thisRepN,first_pass_loop.thisTrialN,first_pass_loop.thisN,first_pass_loop.thisIndex,first_pass_loop.ran,mask_loop_3.thisRepN,mask_loop_3.thisTrialN,mask_loop_3.thisN,mask_loop_3.thisIndex,mask_loop_3.ran,mask_loop_4.thisRepN,mask_loop_4.thisTrialN,mask_loop_4.thisN,mask_loop_4.thisIndex,mask_loop_4.ran,mouse_3.x,mouse_3.y,mouse_3.leftButton,mouse_3.midButton,mouse_3.rightButton,mouse_3.clicked_name,double_pass_loop.thisRepN,double_pass_loop.thisTrialN,double_pass_loop.thisN,double_pass_loop.thisIndex,double_pass_loop.ran,space_exit.keys,space_exit.rt
349832,001,2022-11-20_17h49.41.937,Info_measure_main_exp,2022.2.2,MacIntel,59.95203837,,,,,,,,,,,,,,,,,,,,,,,,,,,,,,,,,,,,,,,,,,,,,,,,,,,,,,,,,,,,,,,,,,,,,,,,,,,,,,,,,,,,,,,,,,,,,,,,,,,,,,,,,,,,,,,
349832,001,2022-11-20_17h49.41.937,Info_measure_main_exp,2022.2.2,MacIntel,59.95203837,,,,,,,,,,,,,,,,,,,,,,,,,,,,,,,,,,,,,,,,,,,,,,,,,,,,,,,,,,,,,,,,,,,,,,,,,,,,,,,,,,,,,,,,,,,,,,,,,,,,,,,,,,,,,,,
349832,001,2022-11-20_17h49.41.937,Info_measure_main_exp,2022.2.2,MacIntel,59.95203837,space,9.077,,,,,,,,,,,,,,,,,,,,,,,,,,,,,,,,,,,,,,,,,,,,,,,,,,,,,,,,,,,,,,,,,,,,,,,,,,,,,,,,,,,,,,,,,,,,,,,,,,,,,,,,,,,,,
349832,001,2022-11-20_17h49.41.937,Info_measure_main_exp,2022.2.2,MacIntel,59.95203837,,,space,12.418,,,,,,,,,,,,,,,,,,,,,,,,,,,,,,,,,,,,,,,,,,,,,,,,,,,,,,,,,,,,,,,,,,,,,,,,,,,,,,,,,,,,,,,,,,,,,,,,,,,,,,,,,,,
349832,001,2022-11-20_17h49.41.937,Info_measure_main_exp,2022.2.2,MacIntel,59.95203837,,,,,space,5.889,,,,,,,,,,,,,,,,,,,,,,,,,,,,,,,,,,,,,,,,,,,,,,,,,,,,,,,,,,,,,,,,,,,,,,,,,,,,,,,,,,,,,,,,,,,,,,,,,,,,,,,,,
349832,001,2022-11-20_17h49.41.937,Info_measure_main_exp,2022.2.2,MacIntel,59.95203837,,,,,,,space,19.232,,,,,,,,,,,,,,,,,,,,,,,,,,,,,,,,,,,,,,,,,,,,,,,,,,,,,,,,,,,,,,,,,,,,,,,,,,,,,,,,,,,,,,,,,,,,,,,,,,,,,,,
349832,001,2022-11-20_17h49.41.937,Info_measure_main_exp,2022.2.2,MacIntel,59.95203837,,,,,,,,,space,10.961,,,,,,,,,,,,,,,,,,,,,,,,,,,,,,,,,,,,,,,,,,,,,,,,,,,,,,,,,,,,,,,,,,,,,,,,,,,,,,,,,,,,,,,,,,,,,,,,,,,,,
349832,001,2022-11-20_17h49.41.937,Info_measure_main_exp,2022.2.2,MacIntel,59.95203837,,,,,,,,,,,space,2.99,,,,,,,,,,,,,,,,,,,,,,,,,,,,,,,,,,,,,,,,,,,,,,,,,,,,,,,,,,,,,,,,,,,,,,,,,,,,,,,,,,,,,,,,,,,,,,,,,,,
349832,001,2022-11-20_17h49.41.937,Info_measure_main_exp,2022.2.2,MacIntel,59.95203837,,,,,,,,,,,,,0,0,0,0,1,masks/mask_001.jpg,,,,,,,,,,,,,,,,,,,,,,,,,,,,,,,,,,,,,,,,,,,,,,,,,,,,,,,,,,,,,,,,,,,,,,,,,,,,,,,,,,,,,,,,,,,,,
349832,001,2022-11-20_17h49.41.937,Info_measure_main_exp,2022.2.2,MacIntel,59.95203837,,,,,,,,,,,,,0,1,1,2,1,masks/mask_003.jpg,,,,,,,,,,,,,,,,,,,,,,,,,,,,,,,,,,,,,,,,,,,,,,,,,,,,,,,,,,,,,,,,,,,,,,,,,,,,,,,,,,,,,,,,,,,,,
349832,001,2022-11-20_17h49.41.937,Info_measure_main_exp,2022.2.2,MacIntel,59.95203837,,,,,,,,,,,,,0,2,2,4,1,masks/mask_005.jpg,,,,,,,,,,,,,,,,,,,,,,,,,,,,,,,,,,,,,,,,,,,,,,,,,,,,,,,,,,,,,,,,,,,,,,,,,,,,,,,,,,,,,,,,,,,,,
349832,001,2022-11-20_17h49.41.937,Info_measure_main_exp,2022.2.2,MacIntel,59.95203837,,,,,,,,,,,,,0,3,3,1,1,masks/mask_002.jpg,,,,,,,,,,,,,,,,,,,,,,,,,,,,,,,,,,,,,,,,,,,,,,,,,,,,,,,,,,,,,,,,,,,,,,,,,,,,,,,,,,,,,,,,,,,,,
349832,001,2022-11-20_17h49.41.937,Info_measure_main_exp,2022.2.2,MacIntel,59.95203837,,,,,,,,,,,,,0,4,4,3,1,masks/mask_004.jpg,,,,,,,,,,,,,,,,,,,,,,,,,,,,,,,,,,,,,,,,,,,,,,,,,,,,,,,,,,,,,,,,,,,,,,,,,,,,,,,,,,,,,,,,,,,,,
349832,001,2022-11-20_17h49.41.937,Info_measure_main_exp,2022.2.2,MacIntel,59.95203837,,,,,,,,,,,,,,,,,,masks/mask_005.jpg,0,0,0,4,1,,,,,,,,,,,,,,,,,,,,,,,,,,,,,,,,,,,,,,,,,,,,,,,,,,,,,,,,,,,,,,,,,,,,,,,,,,,,,,,,,,,,,,,,
349832,001,2022-11-20_17h49.41.937,Info_measure_main_exp,2022.2.2,MacIntel,59.95203837,,,,,,,,,,,,,,,,,,masks/mask_004.jpg,0,1,1,3,1,,,,,,,,,,,,,,,,,,,,,,,,,,,,,,,,,,,,,,,,,,,,,,,,,,,,,,,,,,,,,,,,,,,,,,,,,,,,,,,,,,,,,,,,
349832,001,2022-11-20_17h49.41.937,Info_measure_main_exp,2022.2.2,MacIntel,59.95203837,,,,,,,,,,,,,,,,,,masks/mask_001.jpg,0,2,2,0,1,,,,,,,,,,,,,,,,,,,,,,,,,,,,,,,,,,,,,,,,,,,,,,,,,,,,,,,,,,,,,,,,,,,,,,,,,,,,,,,,,,,,,,,,
349832,001,2022-11-20_17h49.41.937,Info_measure_main_exp,2022.2.2,MacIntel,59.95203837,,,,,,,,,,,,,,,,,,masks/mask_002.jpg,0,3,3,1,1,,,,,,,,,,,,,,,,,,,,,,,,,,,,,,,,,,,,,,,,,,,,,,,,,,,,,,,,,,,,,,,,,,,,,,,,,,,,,,,,,,,,,,,,
349832,001,2022-11-20_17h49.41.937,Info_measure_main_exp,2022.2.2,MacIntel,59.95203837,,,,,,,,,,,,,,,,,,masks/mask_003.jpg,0,4,4,2,1,,,,,,,,,,,,,,,,,,,,,,,,,,,,,,,,,,,,,,,,,,,,,,,,,,,,,,,,,,,,,,,,,,,,,,,,,,,,,,,,,,,,,,,,
349832,001,2022-11-20_17h49.41.937,Info_measure_main_exp,2022.2.2,MacIntel,59.95203837,,,,,,,,,,,,,,,,,,,,,,,,-0.058888889,0.164444444,1,0,0,response7disk,0,66.854,1,-0.005555556,-0.011111111,1,0,0,center_square,0,0,0,2,1,0,131,5,5,2526,2526,prac_patch/patch0002526.jpg,prac_patch/patch0002526.jpg,,,,,,,,,,,,,,,,,,,,,,,,,,,,,,,,,,,,,,,,,,,,,,,,,,,,,,,,,,,,
349832,001,2022-11-20_17h49.41.937,Info_measure_main_exp,2022.2.2,MacIntel,59.95203837,,,,,,,,,,,,,0,0,0,2,1,masks/mask_003.jpg,,,,,,,,,,,,,,,,,,,,,,,,,,,,,,,,,,,,,,,,,,,,,,,,,,,,,,,,,,,,,,,,,,,,,,,,,,,,,,,,,,,,,,,,,,,,,
349832,001,2022-11-20_17h49.41.937,Info_measure_main_exp,2022.2.2,MacIntel,59.95203837,,,,,,,,,,,,,0,1,1,0,1,masks/mask_001.jpg,,,,,,,,,,,,,,,,,,,,,,,,,,,,,,,,,,,,,,,,,,,,,,,,,,,,,,,,,,,,,,,,,,,,,,,,,,,,,,,,,,,,,,,,,,,,,
349832,001,2022-11-20_17h49.41.937,Info_measure_main_exp,2022.2.2,MacIntel,59.95203837,,,,,,,,,,,,,0,2,2,1,1,masks/mask_002.jpg,,,,,,,,,,,,,,,,,,,,,,,,,,,,,,,,,,,,,,,,,,,,,,,,,,,,,,,,,,,,,,,,,,,,,,,,,,,,,,,,,,,,,,,,,,,,,
349832,001,2022-11-20_17h49.41.937,Info_measure_main_exp,2022.2.2,MacIntel,59.95203837,,,,,,,,,,,,,0,3,3,3,1,masks/mask_004.jpg,,,,,,,,,,,,,,,,,,,,,,,,,,,,,,,,,,,,,,,,,,,,,,,,,,,,,,,,,,,,,,,,,,,,,,,,,,,,,,,,,,,,,,,,,,,,,
349832,001,2022-11-20_17h49.41.937,Info_measure_main_exp,2022.2.2,MacIntel,59.95203837,,,,,,,,,,,,,0,4,4,4,1,masks/mask_005.jpg,,,,,,,,,,,,,,,,,,,,,,,,,,,,,,,,,,,,,,,,,,,,,,,,,,,,,,,,,,,,,,,,,,,,,,,,,,,,,,,,,,,,,,,,,,,,,
349832,001,2022-11-20_17h49.41.937,Info_measure_main_exp,2022.2.2,MacIntel,59.95203837,,,,,,,,,,,,,,,,,,masks/mask_003.jpg,0,0,0,2,1,,,,,,,,,,,,,,,,,,,,,,,,,,,,,,,,,,,,,,,,,,,,,,,,,,,,,,,,,,,,,,,,,,,,,,,,,,,,,,,,,,,,,,,,
349832,001,2022-11-20_17h49.41.937,Info_measure_main_exp,2022.2.2,MacIntel,59.95203837,,,,,,,,,,,,,,,,,,masks/mask_001.jpg,0,1,1,0,1,,,,,,,,,,,,,,,,,,,,,,,,,,,,,,,,,,,,,,,,,,,,,,,,,,,,,,,,,,,,,,,,,,,,,,,,,,,,,,,,,,,,,,,,
349832,001,2022-11-20_17h49.41.937,Info_measure_main_exp,2022.2.2,MacIntel,59.95203837,,,,,,,,,,,,,,,,,,masks/mask_005.jpg,0,2,2,4,1,,,,,,,,,,,,,,,,,,,,,,,,,,,,,,,,,,,,,,,,,,,,,,,,,,,,,,,,,,,,,,,,,,,,,,,,,,,,,,,,,,,,,,,,
349832,001,2022-11-20_17h49.41.937,Info_measure_main_exp,2022.2.2,MacIntel,59.95203837,,,,,,,,,,,,,,,,,,masks/mask_002.jpg,0,3,3,1,1,,,,,,,,,,,,,,,,,,,,,,,,,,,,,,,,,,,,,,,,,,,,,,,,,,,,,,,,,,,,,,,,,,,,,,,,,,,,,,,,,,,,,,,,
349832,001,2022-11-20_17h49.41.937,Info_measure_main_exp,2022.2.2,MacIntel,59.95203837,,,,,,,,,,,,,,,,,,masks/mask_004.jpg,0,4,4,3,1,,,,,,,,,,,,,,,,,,,,,,,,,,,,,,,,,,,,,,,,,,,,,,,,,,,,,,,,,,,,,,,,,,,,,,,,,,,,,,,,,,,,,,,,
349832,001,2022-11-20_17h49.41.937,Info_measure_main_exp,2022.2.2,MacIntel,59.95203837,,,,,,,,,,,,,,,,,,,,,,,,0.05,0.166666667,1,0,0,response1disk,7,76.593,1,0.01,-0.002222222,1,0,0,center_square,0,1,1,0,1,0,131,5,5,2370,2406,prac_patch/patch0002370.jpg,prac_patch/patch0002406.jpg,,,,,,,,,,,,,,,,,,,,,,,,,,,,,,,,,,,,,,,,,,,,,,,,,,,,,,,,,,,,
349832,001,2022-11-20_17h49.41.937,Info_measure_main_exp,2022.2.2,MacIntel,59.95203837,,,,,,,,,,,,,0,0,0,0,1,masks/mask_001.jpg,,,,,,,,,,,,,,,,,,,,,,,,,,,,,,,,,,,,,,,,,,,,,,,,,,,,,,,,,,,,,,,,,,,,,,,,,,,,,,,,,,,,,,,,,,,,,
349832,001,2022-11-20_17h49.41.937,Info_measure_main_exp,2022.2.2,MacIntel,59.95203837,,,,,,,,,,,,,0,1,1,2,1,masks/mask_003.jpg,,,,,,,,,,,,,,,,,,,,,,,,,,,,,,,,,,,,,,,,,,,,,,,,,,,,,,,,,,,,,,,,,,,,,,,,,,,,,,,,,,,,,,,,,,,,,
349832,001,2022-11-20_17h49.41.937,Info_measure_main_exp,2022.2.2,MacIntel,59.95203837,,,,,,,,,,,,,0,2,2,1,1,masks/mask_002.jpg,,,,,,,,,,,,,,,,,,,,,,,,,,,,,,,,,,,,,,,,,,,,,,,,,,,,,,,,,,,,,,,,,,,,,,,,,,,,,,,,,,,,,,,,,,,,,
349832,001,2022-11-20_17h49.41.937,Info_measure_main_exp,2022.2.2,MacIntel,59.95203837,,,,,,,,,,,,,0,3,3,4,1,masks/mask_005.jpg,,,,,,,,,,,,,,,,,,,,,,,,,,,,,,,,,,,,,,,,,,,,,,,,,,,,,,,,,,,,,,,,,,,,,,,,,,,,,,,,,,,,,,,,,,,,,
349832,001,2022-11-20_17h49.41.937,Info_measure_main_exp,2022.2.2,MacIntel,59.95203837,,,,,,,,,,,,,0,4,4,3,1,masks/mask_004.jpg,,,,,,,,,,,,,,,,,,,,,,,,,,,,,,,,,,,,,,,,,,,,,,,,,,,,,,,,,,,,,,,,,,,,,,,,,,,,,,,,,,,,,,,,,,,,,
349832,001,2022-11-20_17h49.41.937,Info_measure_main_exp,2022.2.2,MacIntel,59.95203837,,,,,,,,,,,,,,,,,,masks/mask_005.jpg,0,0,0,4,1,,,,,,,,,,,,,,,,,,,,,,,,,,,,,,,,,,,,,,,,,,,,,,,,,,,,,,,,,,,,,,,,,,,,,,,,,,,,,,,,,,,,,,,,
349832,001,2022-11-20_17h49.41.937,Info_measure_main_exp,2022.2.2,MacIntel,59.95203837,,,,,,,,,,,,,,,,,,masks/mask_003.jpg,0,1,1,2,1,,,,,,,,,,,,,,,,,,,,,,,,,,,,,,,,,,,,,,,,,,,,,,,,,,,,,,,,,,,,,,,,,,,,,,,,,,,,,,,,,,,,,,,,
349832,001,2022-11-20_17h49.41.937,Info_measure_main_exp,2022.2.2,MacIntel,59.95203837,,,,,,,,,,,,,,,,,,masks/mask_002.jpg,0,2,2,1,1,,,,,,,,,,,,,,,,,,,,,,,,,,,,,,,,,,,,,,,,,,,,,,,,,,,,,,,,,,,,,,,,,,,,,,,,,,,,,,,,,,,,,,,,
349832,001,2022-11-20_17h49.41.937,Info_measure_main_exp,2022.2.2,MacIntel,59.95203837,,,,,,,,,,,,,,,,,,masks/mask_004.jpg,0,3,3,3,1,,,,,,,,,,,,,,,,,,,,,,,,,,,,,,,,,,,,,,,,,,,,,,,,,,,,,,,,,,,,,,,,,,,,,,,,,,,,,,,,,,,,,,,,
349832,001,2022-11-20_17h49.41.937,Info_measure_main_exp,2022.2.2,MacIntel,59.95203837,,,,,,,,,,,,,,,,,,masks/mask_001.jpg,0,4,4,0,1,,,,,,,,,,,,,,,,,,,,,,,,,,,,,,,,,,,,,,,,,,,,,,,,,,,,,,,,,,,,,,,,,,,,,,,,,,,,,,,,,,,,,,,,
349832,001,2022-11-20_17h49.41.937,Info_measure_main_exp,2022.2.2,MacIntel,59.95203837,,,,,,,,,,,,,,,,,,,,,,,,-0.071111111,-0.127777778,1,0,0,response5disk,3,86.137,1,0.003333333,-0.003333333,1,0,0,center_square,0,2,2,1,1,0,131,5,5,2514,2490,prac_patch/patch0002514.jpg,prac_patch/patch0002490.jpg,,,,,,,,,,,,,,,,,,,,,,,,,,,,,,,,,,,,,,,,,,,,,,,,,,,,,,,,,,,,
349832,001,2022-11-20_17h49.41.937,Info_measure_main_exp,2022.2.2,MacIntel,59.95203837,,,,,,,,,,,,,,,,,,,,,,,,,,,,,,,,,,,,,,,,,,,,,,,,,,,,,,,,,,,space,1.921,,,,,,,,,,,,,,,,,,,,,,,,,,,,,,,,,,,,,,,,,,,,,,,,,,,
349832,001,2022-11-20_17h49.41.937,Info_measure_main_exp,2022.2.2,MacIntel,59.95203837,,,,,,,,,,,,,,,,,,masks/mask_003.jpg,,,,,,,,,,,,,,,,,,,,,,,,,,,,,,,,,,,,,,,,,,,0,0,0,2,1,,,,,,,,,,,,,,,,,,,,,,,,,,,,,,,,,,,,,,,,,,,,,,
349832,001,2022-11-20_17h49.41.937,Info_measure_main_exp,2022.2.2,MacIntel,59.95203837,,,,,,,,,,,,,,,,,,masks/mask_001.jpg,,,,,,,,,,,,,,,,,,,,,,,,,,,,,,,,,,,,,,,,,,,0,1,1,0,1,,,,,,,,,,,,,,,,,,,,,,,,,,,,,,,,,,,,,,,,,,,,,,
349832,001,2022-11-20_17h49.41.937,Info_measure_main_exp,2022.2.2,MacIntel,59.95203837,,,,,,,,,,,,,,,,,,masks/mask_002.jpg,,,,,,,,,,,,,,,,,,,,,,,,,,,,,,,,,,,,,,,,,,,0,2,2,1,1,,,,,,,,,,,,,,,,,,,,,,,,,,,,,,,,,,,,,,,,,,,,,,
349832,001,2022-11-20_17h49.41.937,Info_measure_main_exp,2022.2.2,MacIntel,59.95203837,,,,,,,,,,,,,,,,,,masks/mask_005.jpg,,,,,,,,,,,,,,,,,,,,,,,,,,,,,,,,,,,,,,,,,,,0,3,3,4,1,,,,,,,,,,,,,,,,,,,,,,,,,,,,,,,,,,,,,,,,,,,,,,
349832,001,2022-11-20_17h49.41.937,Info_measure_main_exp,2022.2.2,MacIntel,59.95203837,,,,,,,,,,,,,,,,,,masks/mask_004.jpg,,,,,,,,,,,,,,,,,,,,,,,,,,,,,,,,,,,,,,,,,,,0,4,4,3,1,,,,,,,,,,,,,,,,,,,,,,,,,,,,,,,,,,,,,,,,,,,,,,
349832,001,2022-11-20_17h49.41.937,Info_measure_main_exp,2022.2.2,MacIntel,59.95203837,,,,,,,,,,,,,,,,,,masks/mask_002.jpg,,,,,,,,,,,,,,,,,,,,,,,,,,,,,,,,,,,,,,,,,,,,,,,,0,0,0,1,1,,,,,,,,,,,,,,,,,,,,,,,,,,,,,,,,,,,,,,,,,
349832,001,2022-11-20_17h49.41.937,Info_measure_main_exp,2022.2.2,MacIntel,59.95203837,,,,,,,,,,,,,,,,,,masks/mask_005.jpg,,,,,,,,,,,,,,,,,,,,,,,,,,,,,,,,,,,,,,,,,,,,,,,,0,1,1,4,1,,,,,,,,,,,,,,,,,,,,,,,,,,,,,,,,,,,,,,,,,
349832,001,2022-11-20_17h49.41.937,Info_measure_main_exp,2022.2.2,MacIntel,59.95203837,,,,,,,,,,,,,,,,,,masks/mask_004.jpg,,,,,,,,,,,,,,,,,,,,,,,,,,,,,,,,,,,,,,,,,,,,,,,,0,2,2,3,1,,,,,,,,,,,,,,,,,,,,,,,,,,,,,,,,,,,,,,,,,
349832,001,2022-11-20_17h49.41.937,Info_measure_main_exp,2022.2.2,MacIntel,59.95203837,,,,,,,,,,,,,,,,,,masks/mask_003.jpg,,,,,,,,,,,,,,,,,,,,,,,,,,,,,,,,,,,,,,,,,,,,,,,,0,3,3,2,1,,,,,,,,,,,,,,,,,,,,,,,,,,,,,,,,,,,,,,,,,
349832,001,2022-11-20_17h49.41.937,Info_measure_main_exp,2022.2.2,MacIntel,59.95203837,,,,,,,,,,,,,,,,,,masks/mask_001.jpg,,,,,,,,,,,,,,,,,,,,,,,,,,,,,,,,,,,,,,,,,,,,,,,,0,4,4,0,1,,,,,,,,,,,,,,,,,,,,,,,,,,,,,,,,,,,,,,,,,
349832,001,2022-11-20_17h49.41.937,Info_measure_main_exp,2022.2.2,MacIntel,59.95203837,,,,,,,,,,,,,,,,,,,,,,,,,,,,,,3,2.463,1,,,,,,,,,,,,0,131,5,5,1974,1950,absent_patch/patch0001974.jpg,absent_patch/patch0001950.jpg,,,,,,,,,,,,,,,,,,,,-0.046666667,-0.116666667,1,0,0,response5disk,1,0.002222222,-0.003333333,1,0,0,center_square,0,0,0,17,1,,,,,,,,,,,,,,,,,,,,,,,
349832,001,2022-11-20_17h49.41.937,Info_measure_main_exp,2022.2.2,MacIntel,59.95203837,,,,,,,,,,,,,,,,,,masks/mask_003.jpg,,,,,,,,,,,,,,,,,,,,,,,,,,,,,,,,,,,,,,,,,,,0,0,0,2,1,,,,,,,,,,,,,,,,,,,,,,,,,,,,,,,,,,,,,,,,,,,,,,
349832,001,2022-11-20_17h49.41.937,Info_measure_main_exp,2022.2.2,MacIntel,59.95203837,,,,,,,,,,,,,,,,,,masks/mask_004.jpg,,,,,,,,,,,,,,,,,,,,,,,,,,,,,,,,,,,,,,,,,,,0,1,1,3,1,,,,,,,,,,,,,,,,,,,,,,,,,,,,,,,,,,,,,,,,,,,,,,
349832,001,2022-11-20_17h49.41.937,Info_measure_main_exp,2022.2.2,MacIntel,59.95203837,,,,,,,,,,,,,,,,,,masks/mask_001.jpg,,,,,,,,,,,,,,,,,,,,,,,,,,,,,,,,,,,,,,,,,,,0,2,2,0,1,,,,,,,,,,,,,,,,,,,,,,,,,,,,,,,,,,,,,,,,,,,,,,
349832,001,2022-11-20_17h49.41.937,Info_measure_main_exp,2022.2.2,MacIntel,59.95203837,,,,,,,,,,,,,,,,,,masks/mask_002.jpg,,,,,,,,,,,,,,,,,,,,,,,,,,,,,,,,,,,,,,,,,,,0,3,3,1,1,,,,,,,,,,,,,,,,,,,,,,,,,,,,,,,,,,,,,,,,,,,,,,
349832,001,2022-11-20_17h49.41.937,Info_measure_main_exp,2022.2.2,MacIntel,59.95203837,,,,,,,,,,,,,,,,,,masks/mask_005.jpg,,,,,,,,,,,,,,,,,,,,,,,,,,,,,,,,,,,,,,,,,,,0,4,4,4,1,,,,,,,,,,,,,,,,,,,,,,,,,,,,,,,,,,,,,,,,,,,,,,
349832,001,2022-11-20_17h49.41.937,Info_measure_main_exp,2022.2.2,MacIntel,59.95203837,,,,,,,,,,,,,,,,,,masks/mask_001.jpg,,,,,,,,,,,,,,,,,,,,,,,,,,,,,,,,,,,,,,,,,,,,,,,,0,0,0,0,1,,,,,,,,,,,,,,,,,,,,,,,,,,,,,,,,,,,,,,,,,
349832,001,2022-11-20_17h49.41.937,Info_measure_main_exp,2022.2.2,MacIntel,59.95203837,,,,,,,,,,,,,,,,,,masks/mask_003.jpg,,,,,,,,,,,,,,,,,,,,,,,,,,,,,,,,,,,,,,,,,,,,,,,,0,1,1,2,1,,,,,,,,,,,,,,,,,,,,,,,,,,,,,,,,,,,,,,,,,
349832,001,2022-11-20_17h49.41.937,Info_measure_main_exp,2022.2.2,MacIntel,59.95203837,,,,,,,,,,,,,,,,,,masks/mask_005.jpg,,,,,,,,,,,,,,,,,,,,,,,,,,,,,,,,,,,,,,,,,,,,,,,,0,2,2,4,1,,,,,,,,,,,,,,,,,,,,,,,,,,,,,,,,,,,,,,,,,
349832,001,2022-11-20_17h49.41.937,Info_measure_main_exp,2022.2.2,MacIntel,59.95203837,,,,,,,,,,,,,,,,,,masks/mask_004.jpg,,,,,,,,,,,,,,,,,,,,,,,,,,,,,,,,,,,,,,,,,,,,,,,,0,3,3,3,1,,,,,,,,,,,,,,,,,,,,,,,,,,,,,,,,,,,,,,,,,
349832,001,2022-11-20_17h49.41.937,Info_measure_main_exp,2022.2.2,MacIntel,59.95203837,,,,,,,,,,,,,,,,,,masks/mask_002.jpg,,,,,,,,,,,,,,,,,,,,,,,,,,,,,,,,,,,,,,,,,,,,,,,,0,4,4,1,1,,,,,,,,,,,,,,,,,,,,,,,,,,,,,,,,,,,,,,,,,
349832,001,2022-11-20_17h49.41.937,Info_measure_main_exp,2022.2.2,MacIntel,59.95203837,,,,,,,,,,,,,,,,,,,,,,,,,,,,,,0,3.415,1,,,,,,,,,,,,0,131,5,5,2238,2238,absent_patch/patch0002238.jpg,absent_patch/patch0002238.jpg,,,,,,,,,,,,,,,,,,,,-0.052222222,0.142222222,1,0,0,response7disk,2,0,-0.002222222,1,0,0,center_square,0,1,1,58,1,,,,,,,,,,,,,,,,,,,,,,,
349832,001,2022-11-20_17h49.41.937,Info_measure_main_exp,2022.2.2,MacIntel,59.95203837,,,,,,,,,,,,,,,,,,masks/mask_004.jpg,,,,,,,,,,,,,,,,,,,,,,,,,,,,,,,,,,,,,,,,,,,0,0,0,3,1,,,,,,,,,,,,,,,,,,,,,,,,,,,,,,,,,,,,,,,,,,,,,,
349832,001,2022-11-20_17h49.41.937,Info_measure_main_exp,2022.2.2,MacIntel,59.95203837,,,,,,,,,,,,,,,,,,masks/mask_001.jpg,,,,,,,,,,,,,,,,,,,,,,,,,,,,,,,,,,,,,,,,,,,0,1,1,0,1,,,,,,,,,,,,,,,,,,,,,,,,,,,,,,,,,,,,,,,,,,,,,,
349832,001,2022-11-20_17h49.41.937,Info_measure_main_exp,2022.2.2,MacIntel,59.95203837,,,,,,,,,,,,,,,,,,masks/mask_002.jpg,,,,,,,,,,,,,,,,,,,,,,,,,,,,,,,,,,,,,,,,,,,0,2,2,1,1,,,,,,,,,,,,,,,,,,,,,,,,,,,,,,,,,,,,,,,,,,,,,,
349832,001,2022-11-20_17h49.41.937,Info_measure_main_exp,2022.2.2,MacIntel,59.95203837,,,,,,,,,,,,,,,,,,masks/mask_003.jpg,,,,,,,,,,,,,,,,,,,,,,,,,,,,,,,,,,,,,,,,,,,0,3,3,2,1,,,,,,,,,,,,,,,,,,,,,,,,,,,,,,,,,,,,,,,,,,,,,,
349832,001,2022-11-20_17h49.41.937,Info_measure_main_exp,2022.2.2,MacIntel,59.95203837,,,,,,,,,,,,,,,,,,masks/mask_005.jpg,,,,,,,,,,,,,,,,,,,,,,,,,,,,,,,,,,,,,,,,,,,0,4,4,4,1,,,,,,,,,,,,,,,,,,,,,,,,,,,,,,,,,,,,,,,,,,,,,,
349832,001,2022-11-20_17h49.41.937,Info_measure_main_exp,2022.2.2,MacIntel,59.95203837,,,,,,,,,,,,,,,,,,masks/mask_001.jpg,,,,,,,,,,,,,,,,,,,,,,,,,,,,,,,,,,,,,,,,,,,,,,,,0,0,0,0,1,,,,,,,,,,,,,,,,,,,,,,,,,,,,,,,,,,,,,,,,,
349832,001,2022-11-20_17h49.41.937,Info_measure_main_exp,2022.2.2,MacIntel,59.95203837,,,,,,,,,,,,,,,,,,masks/mask_005.jpg,,,,,,,,,,,,,,,,,,,,,,,,,,,,,,,,,,,,,,,,,,,,,,,,0,1,1,4,1,,,,,,,,,,,,,,,,,,,,,,,,,,,,,,,,,,,,,,,,,
349832,001,2022-11-20_17h49.41.937,Info_measure_main_exp,2022.2.2,MacIntel,59.95203837,,,,,,,,,,,,,,,,,,masks/mask_004.jpg,,,,,,,,,,,,,,,,,,,,,,,,,,,,,,,,,,,,,,,,,,,,,,,,0,2,2,3,1,,,,,,,,,,,,,,,,,,,,,,,,,,,,,,,,,,,,,,,,,
349832,001,2022-11-20_17h49.41.937,Info_measure_main_exp,2022.2.2,MacIntel,59.95203837,,,,,,,,,,,,,,,,,,masks/mask_002.jpg,,,,,,,,,,,,,,,,,,,,,,,,,,,,,,,,,,,,,,,,,,,,,,,,0,3,3,1,1,,,,,,,,,,,,,,,,,,,,,,,,,,,,,,,,,,,,,,,,,
349832,001,2022-11-20_17h49.41.937,Info_measure_main_exp,2022.2.2,MacIntel,59.95203837,,,,,,,,,,,,,,,,,,masks/mask_003.jpg,,,,,,,,,,,,,,,,,,,,,,,,,,,,,,,,,,,,,,,,,,,,,,,,0,4,4,2,1,,,,,,,,,,,,,,,,,,,,,,,,,,,,,,,,,,,,,,,,,
349832,001,2022-11-20_17h49.41.937,Info_measure_main_exp,2022.2.2,MacIntel,59.95203837,,,,,,,,,,,,,,,,,,,,,,,,,,,,,,6,1.317,1,,,,,,,,,,,,0,131,5,5,2178,1986,absent_patch/patch0002178.jpg,absent_patch/patch0001986.jpg,,,,,,,,,,,,,,,,,,,,0.148888889,0.04,1,0,0,response1disk,3,0.003333333,-0.002222222,1,0,0,center_square,0,2,2,46,1,,,,,,,,,,,,,,,,,,,,,,,
349832,001,2022-11-20_17h49.41.937,Info_measure_main_exp,2022.2.2,MacIntel,59.95203837,,,,,,,,,,,,,,,,,,masks/mask_002.jpg,,,,,,,,,,,,,,,,,,,,,,,,,,,,,,,,,,,,,,,,,,,0,0,0,1,1,,,,,,,,,,,,,,,,,,,,,,,,,,,,,,,,,,,,,,,,,,,,,,
349832,001,2022-11-20_17h49.41.937,Info_measure_main_exp,2022.2.2,MacIntel,59.95203837,,,,,,,,,,,,,,,,,,masks/mask_001.jpg,,,,,,,,,,,,,,,,,,,,,,,,,,,,,,,,,,,,,,,,,,,0,1,1,0,1,,,,,,,,,,,,,,,,,,,,,,,,,,,,,,,,,,,,,,,,,,,,,,
349832,001,2022-11-20_17h49.41.937,Info_measure_main_exp,2022.2.2,MacIntel,59.95203837,,,,,,,,,,,,,,,,,,masks/mask_004.jpg,,,,,,,,,,,,,,,,,,,,,,,,,,,,,,,,,,,,,,,,,,,0,2,2,3,1,,,,,,,,,,,,,,,,,,,,,,,,,,,,,,,,,,,,,,,,,,,,,,
349832,001,2022-11-20_17h49.41.937,Info_measure_main_exp,2022.2.2,MacIntel,59.95203837,,,,,,,,,,,,,,,,,,masks/mask_003.jpg,,,,,,,,,,,,,,,,,,,,,,,,,,,,,,,,,,,,,,,,,,,0,3,3,2,1,,,,,,,,,,,,,,,,,,,,,,,,,,,,,,,,,,,,,,,,,,,,,,
349832,001,2022-11-20_17h49.41.937,Info_measure_main_exp,2022.2.2,MacIntel,59.95203837,,,,,,,,,,,,,,,,,,masks/mask_005.jpg,,,,,,,,,,,,,,,,,,,,,,,,,,,,,,,,,,,,,,,,,,,0,4,4,4,1,,,,,,,,,,,,,,,,,,,,,,,,,,,,,,,,,,,,,,,,,,,,,,
349832,001,2022-11-20_17h49.41.937,Info_measure_main_exp,2022.2.2,MacIntel,59.95203837,,,,,,,,,,,,,,,,,,masks/mask_003.jpg,,,,,,,,,,,,,,,,,,,,,,,,,,,,,,,,,,,,,,,,,,,,,,,,0,0,0,2,1,,,,,,,,,,,,,,,,,,,,,,,,,,,,,,,,,,,,,,,,,
349832,001,2022-11-20_17h49.41.937,Info_measure_main_exp,2022.2.2,MacIntel,59.95203837,,,,,,,,,,,,,,,,,,masks/mask_004.jpg,,,,,,,,,,,,,,,,,,,,,,,,,,,,,,,,,,,,,,,,,,,,,,,,0,1,1,3,1,,,,,,,,,,,,,,,,,,,,,,,,,,,,,,,,,,,,,,,,,
349832,001,2022-11-20_17h49.41.937,Info_measure_main_exp,2022.2.2,MacIntel,59.95203837,,,,,,,,,,,,,,,,,,masks/mask_005.jpg,,,,,,,,,,,,,,,,,,,,,,,,,,,,,,,,,,,,,,,,,,,,,,,,0,2,2,4,1,,,,,,,,,,,,,,,,,,,,,,,,,,,,,,,,,,,,,,,,,
349832,001,2022-11-20_17h49.41.937,Info_measure_main_exp,2022.2.2,MacIntel,59.95203837,,,,,,,,,,,,,,,,,,masks/mask_002.jpg,,,,,,,,,,,,,,,,,,,,,,,,,,,,,,,,,,,,,,,,,,,,,,,,0,3,3,1,1,,,,,,,,,,,,,,,,,,,,,,,,,,,,,,,,,,,,,,,,,
349832,001,2022-11-20_17h49.41.937,Info_measure_main_exp,2022.2.2,MacIntel,59.95203837,,,,,,,,,,,,,,,,,,masks/mask_001.jpg,,,,,,,,,,,,,,,,,,,,,,,,,,,,,,,,,,,,,,,,,,,,,,,,0,4,4,0,1,,,,,,,,,,,,,,,,,,,,,,,,,,,,,,,,,,,,,,,,,
349832,001,2022-11-20_17h49.41.937,Info_measure_main_exp,2022.2.2,MacIntel,59.95203837,,,,,,,,,,,,,,,,,,,,,,,,,,,,,,6,0.949,1,,,,,,,,,,,,1,131,5,5,2298,1,absent_patch/patch0002298.jpg,present_patch/cong_131_5_a.jpg,,,,,,,,,,,,,,,,,,,,0.143333333,0.067777778,1,0,0,response1disk,4,-0.002222222,-0.008888889,1,0,0,center_square,0,3,3,45,1,,,,,,,,,,,,,,,,,,,,,,,
349832,001,2022-11-20_17h49.41.937,Info_measure_main_exp,2022.2.2,MacIntel,59.95203837,,,,,,,,,,,,,,,,,,masks/mask_005.jpg,,,,,,,,,,,,,,,,,,,,,,,,,,,,,,,,,,,,,,,,,,,0,0,0,4,1,,,,,,,,,,,,,,,,,,,,,,,,,,,,,,,,,,,,,,,,,,,,,,
349832,001,2022-11-20_17h49.41.937,Info_measure_main_exp,2022.2.2,MacIntel,59.95203837,,,,,,,,,,,,,,,,,,masks/mask_004.jpg,,,,,,,,,,,,,,,,,,,,,,,,,,,,,,,,,,,,,,,,,,,0,1,1,3,1,,,,,,,,,,,,,,,,,,,,,,,,,,,,,,,,,,,,,,,,,,,,,,
349832,001,2022-11-20_17h49.41.937,Info_measure_main_exp,2022.2.2,MacIntel,59.95203837,,,,,,,,,,,,,,,,,,masks/mask_002.jpg,,,,,,,,,,,,,,,,,,,,,,,,,,,,,,,,,,,,,,,,,,,0,2,2,1,1,,,,,,,,,,,,,,,,,,,,,,,,,,,,,,,,,,,,,,,,,,,,,,
349832,001,2022-11-20_17h49.41.937,Info_measure_main_exp,2022.2.2,MacIntel,59.95203837,,,,,,,,,,,,,,,,,,masks/mask_003.jpg,,,,,,,,,,,,,,,,,,,,,,,,,,,,,,,,,,,,,,,,,,,0,3,3,2,1,,,,,,,,,,,,,,,,,,,,,,,,,,,,,,,,,,,,,,,,,,,,,,
349832,001,2022-11-20_17h49.41.937,Info_measure_main_exp,2022.2.2,MacIntel,59.95203837,,,,,,,,,,,,,,,,,,masks/mask_001.jpg,,,,,,,,,,,,,,,,,,,,,,,,,,,,,,,,,,,,,,,,,,,0,4,4,0,1,,,,,,,,,,,,,,,,,,,,,,,,,,,,,,,,,,,,,,,,,,,,,,
349832,001,2022-11-20_17h49.41.937,Info_measure_main_exp,2022.2.2,MacIntel,59.95203837,,,,,,,,,,,,,,,,,,masks/mask_004.jpg,,,,,,,,,,,,,,,,,,,,,,,,,,,,,,,,,,,,,,,,,,,,,,,,0,0,0,3,1,,,,,,,,,,,,,,,,,,,,,,,,,,,,,,,,,,,,,,,,,
349832,001,2022-11-20_17h49.41.937,Info_measure_main_exp,2022.2.2,MacIntel,59.95203837,,,,,,,,,,,,,,,,,,masks/mask_003.jpg,,,,,,,,,,,,,,,,,,,,,,,,,,,,,,,,,,,,,,,,,,,,,,,,0,1,1,2,1,,,,,,,,,,,,,,,,,,,,,,,,,,,,,,,,,,,,,,,,,
349832,001,2022-11-20_17h49.41.937,Info_measure_main_exp,2022.2.2,MacIntel,59.95203837,,,,,,,,,,,,,,,,,,masks/mask_001.jpg,,,,,,,,,,,,,,,,,,,,,,,,,,,,,,,,,,,,,,,,,,,,,,,,0,2,2,0,1,,,,,,,,,,,,,,,,,,,,,,,,,,,,,,,,,,,,,,,,,
349832,001,2022-11-20_17h49.41.937,Info_measure_main_exp,2022.2.2,MacIntel,59.95203837,,,,,,,,,,,,,,,,,,masks/mask_005.jpg,,,,,,,,,,,,,,,,,,,,,,,,,,,,,,,,,,,,,,,,,,,,,,,,0,3,3,4,1,,,,,,,,,,,,,,,,,,,,,,,,,,,,,,,,,,,,,,,,,
349832,001,2022-11-20_17h49.41.937,Info_measure_main_exp,2022.2.2,MacIntel,59.95203837,,,,,,,,,,,,,,,,,,masks/mask_002.jpg,,,,,,,,,,,,,,,,,,,,,,,,,,,,,,,,,,,,,,,,,,,,,,,,0,4,4,1,1,,,,,,,,,,,,,,,,,,,,,,,,,,,,,,,,,,,,,,,,,
349832,001,2022-11-20_17h49.41.937,Info_measure_main_exp,2022.2.2,MacIntel,59.95203837,,,,,,,,,,,,,,,,,,,,,,,,,,,,,,0,0.817,1,,,,,,,,,,,,0,131,5,5,2142,2142,absent_patch/patch0002142.jpg,absent_patch/patch0002142.jpg,,,,,,,,,,,,,,,,,,,,-0.028888889,0.144444444,1,0,0,response7disk,5,0.003333333,0.005555556,1,0,0,center_square,0,4,4,13,1,,,,,,,,,,,,,,,,,,,,,,,
349832,001,2022-11-20_17h49.41.937,Info_measure_main_exp,2022.2.2,MacIntel,59.95203837,,,,,,,,,,,,,,,,,,masks/mask_004.jpg,,,,,,,,,,,,,,,,,,,,,,,,,,,,,,,,,,,,,,,,,,,0,0,0,3,1,,,,,,,,,,,,,,,,,,,,,,,,,,,,,,,,,,,,,,,,,,,,,,
349832,001,2022-11-20_17h49.41.937,Info_measure_main_exp,2022.2.2,MacIntel,59.95203837,,,,,,,,,,,,,,,,,,masks/mask_002.jpg,,,,,,,,,,,,,,,,,,,,,,,,,,,,,,,,,,,,,,,,,,,0,1,1,1,1,,,,,,,,,,,,,,,,,,,,,,,,,,,,,,,,,,,,,,,,,,,,,,
349832,001,2022-11-20_17h49.41.937,Info_measure_main_exp,2022.2.2,MacIntel,59.95203837,,,,,,,,,,,,,,,,,,masks/mask_005.jpg,,,,,,,,,,,,,,,,,,,,,,,,,,,,,,,,,,,,,,,,,,,0,2,2,4,1,,,,,,,,,,,,,,,,,,,,,,,,,,,,,,,,,,,,,,,,,,,,,,
349832,001,2022-11-20_17h49.41.937,Info_measure_main_exp,2022.2.2,MacIntel,59.95203837,,,,,,,,,,,,,,,,,,masks/mask_001.jpg,,,,,,,,,,,,,,,,,,,,,,,,,,,,,,,,,,,,,,,,,,,0,3,3,0,1,,,,,,,,,,,,,,,,,,,,,,,,,,,,,,,,,,,,,,,,,,,,,,
349832,001,2022-11-20_17h49.41.937,Info_measure_main_exp,2022.2.2,MacIntel,59.95203837,,,,,,,,,,,,,,,,,,masks/mask_003.jpg,,,,,,,,,,,,,,,,,,,,,,,,,,,,,,,,,,,,,,,,,,,0,4,4,2,1,,,,,,,,,,,,,,,,,,,,,,,,,,,,,,,,,,,,,,,,,,,,,,
349832,001,2022-11-20_17h49.41.937,Info_measure_main_exp,2022.2.2,MacIntel,59.95203837,,,,,,,,,,,,,,,,,,masks/mask_004.jpg,,,,,,,,,,,,,,,,,,,,,,,,,,,,,,,,,,,,,,,,,,,,,,,,0,0,0,3,1,,,,,,,,,,,,,,,,,,,,,,,,,,,,,,,,,,,,,,,,,
349832,001,2022-11-20_17h49.41.937,Info_measure_main_exp,2022.2.2,MacIntel,59.95203837,,,,,,,,,,,,,,,,,,masks/mask_001.jpg,,,,,,,,,,,,,,,,,,,,,,,,,,,,,,,,,,,,,,,,,,,,,,,,0,1,1,0,1,,,,,,,,,,,,,,,,,,,,,,,,,,,,,,,,,,,,,,,,,
349832,001,2022-11-20_17h49.41.937,Info_measure_main_exp,2022.2.2,MacIntel,59.95203837,,,,,,,,,,,,,,,,,,masks/mask_003.jpg,,,,,,,,,,,,,,,,,,,,,,,,,,,,,,,,,,,,,,,,,,,,,,,,0,2,2,2,1,,,,,,,,,,,,,,,,,,,,,,,,,,,,,,,,,,,,,,,,,
349832,001,2022-11-20_17h49.41.937,Info_measure_main_exp,2022.2.2,MacIntel,59.95203837,,,,,,,,,,,,,,,,,,masks/mask_002.jpg,,,,,,,,,,,,,,,,,,,,,,,,,,,,,,,,,,,,,,,,,,,,,,,,0,3,3,1,1,,,,,,,,,,,,,,,,,,,,,,,,,,,,,,,,,,,,,,,,,
349832,001,2022-11-20_17h49.41.937,Info_measure_main_exp,2022.2.2,MacIntel,59.95203837,,,,,,,,,,,,,,,,,,masks/mask_005.jpg,,,,,,,,,,,,,,,,,,,,,,,,,,,,,,,,,,,,,,,,,,,,,,,,0,4,4,4,1,,,,,,,,,,,,,,,,,,,,,,,,,,,,,,,,,,,,,,,,,
349832,001,2022-11-20_17h49.41.937,Info_measure_main_exp,2022.2.2,MacIntel,59.95203837,,,,,,,,,,,,,,,,,,,,,,,,,,,,,,4,0.911,1,,,,,,,,,,,,0,131,5,5,2190,1950,absent_patch/patch0002190.jpg,absent_patch/patch0001950.jpg,,,,,,,,,,,,,,,,,,,,0.041111111,-0.096666667,1,0,0,response3disk,6,0.004444444,-0.006666667,1,0,0,center_square,0,5,5,73,1,,,,,,,,,,,,,,,,,,,,,,,
349832,001,2022-11-20_17h49.41.937,Info_measure_main_exp,2022.2.2,MacIntel,59.95203837,,,,,,,,,,,,,,,,,,masks/mask_003.jpg,,,,,,,,,,,,,,,,,,,,,,,,,,,,,,,,,,,,,,,,,,,0,0,0,2,1,,,,,,,,,,,,,,,,,,,,,,,,,,,,,,,,,,,,,,,,,,,,,,
349832,001,2022-11-20_17h49.41.937,Info_measure_main_exp,2022.2.2,MacIntel,59.95203837,,,,,,,,,,,,,,,,,,masks/mask_004.jpg,,,,,,,,,,,,,,,,,,,,,,,,,,,,,,,,,,,,,,,,,,,0,1,1,3,1,,,,,,,,,,,,,,,,,,,,,,,,,,,,,,,,,,,,,,,,,,,,,,
349832,001,2022-11-20_17h49.41.937,Info_measure_main_exp,2022.2.2,MacIntel,59.95203837,,,,,,,,,,,,,,,,,,masks/mask_002.jpg,,,,,,,,,,,,,,,,,,,,,,,,,,,,,,,,,,,,,,,,,,,0,2,2,1,1,,,,,,,,,,,,,,,,,,,,,,,,,,,,,,,,,,,,,,,,,,,,,,
349832,001,2022-11-20_17h49.41.937,Info_measure_main_exp,2022.2.2,MacIntel,59.95203837,,,,,,,,,,,,,,,,,,masks/mask_001.jpg,,,,,,,,,,,,,,,,,,,,,,,,,,,,,,,,,,,,,,,,,,,0,3,3,0,1,,,,,,,,,,,,,,,,,,,,,,,,,,,,,,,,,,,,,,,,,,,,,,
349832,001,2022-11-20_17h49.41.937,Info_measure_main_exp,2022.2.2,MacIntel,59.95203837,,,,,,,,,,,,,,,,,,masks/mask_005.jpg,,,,,,,,,,,,,,,,,,,,,,,,,,,,,,,,,,,,,,,,,,,0,4,4,4,1,,,,,,,,,,,,,,,,,,,,,,,,,,,,,,,,,,,,,,,,,,,,,,
349832,001,2022-11-20_17h49.41.937,Info_measure_main_exp,2022.2.2,MacIntel,59.95203837,,,,,,,,,,,,,,,,,,masks/mask_005.jpg,,,,,,,,,,,,,,,,,,,,,,,,,,,,,,,,,,,,,,,,,,,,,,,,0,0,0,4,1,,,,,,,,,,,,,,,,,,,,,,,,,,,,,,,,,,,,,,,,,
349832,001,2022-11-20_17h49.41.937,Info_measure_main_exp,2022.2.2,MacIntel,59.95203837,,,,,,,,,,,,,,,,,,masks/mask_001.jpg,,,,,,,,,,,,,,,,,,,,,,,,,,,,,,,,,,,,,,,,,,,,,,,,0,1,1,0,1,,,,,,,,,,,,,,,,,,,,,,,,,,,,,,,,,,,,,,,,,
349832,001,2022-11-20_17h49.41.937,Info_measure_main_exp,2022.2.2,MacIntel,59.95203837,,,,,,,,,,,,,,,,,,masks/mask_002.jpg,,,,,,,,,,,,,,,,,,,,,,,,,,,,,,,,,,,,,,,,,,,,,,,,0,2,2,1,1,,,,,,,,,,,,,,,,,,,,,,,,,,,,,,,,,,,,,,,,,
349832,001,2022-11-20_17h49.41.937,Info_measure_main_exp,2022.2.2,MacIntel,59.95203837,,,,,,,,,,,,,,,,,,masks/mask_004.jpg,,,,,,,,,,,,,,,,,,,,,,,,,,,,,,,,,,,,,,,,,,,,,,,,0,3,3,3,1,,,,,,,,,,,,,,,,,,,,,,,,,,,,,,,,,,,,,,,,,
349832,001,2022-11-20_17h49.41.937,Info_measure_main_exp,2022.2.2,MacIntel,59.95203837,,,,,,,,,,,,,,,,,,masks/mask_003.jpg,,,,,,,,,,,,,,,,,,,,,,,,,,,,,,,,,,,,,,,,,,,,,,,,0,4,4,2,1,,,,,,,,,,,,,,,,,,,,,,,,,,,,,,,,,,,,,,,,,
349832,001,2022-11-20_17h49.41.937,Info_measure_main_exp,2022.2.2,MacIntel,59.95203837,,,,,,,,,,,,,,,,,,,,,,,,,,,,,,0,1,1,,,,,,,,,,,,0,131,5,5,1950,1950,absent_patch/patch0001950.jpg,absent_patch/patch0001950.jpg,,,,,,,,,,,,,,,,,,,,-0.038888889,0.117777778,1,0,0,response7disk,7,0.006666667,0.008888889,1,0,0,center_square,0,6,6,92,1,,,,,,,,,,,,,,,,,,,,,,,
349832,001,2022-11-20_17h49.41.937,Info_measure_main_exp,2022.2.2,MacIntel,59.95203837,,,,,,,,,,,,,,,,,,masks/mask_001.jpg,,,,,,,,,,,,,,,,,,,,,,,,,,,,,,,,,,,,,,,,,,,0,0,0,0,1,,,,,,,,,,,,,,,,,,,,,,,,,,,,,,,,,,,,,,,,,,,,,,
349832,001,2022-11-20_17h49.41.937,Info_measure_main_exp,2022.2.2,MacIntel,59.95203837,,,,,,,,,,,,,,,,,,masks/mask_004.jpg,,,,,,,,,,,,,,,,,,,,,,,,,,,,,,,,,,,,,,,,,,,0,1,1,3,1,,,,,,,,,,,,,,,,,,,,,,,,,,,,,,,,,,,,,,,,,,,,,,
349832,001,2022-11-20_17h49.41.937,Info_measure_main_exp,2022.2.2,MacIntel,59.95203837,,,,,,,,,,,,,,,,,,masks/mask_002.jpg,,,,,,,,,,,,,,,,,,,,,,,,,,,,,,,,,,,,,,,,,,,0,2,2,1,1,,,,,,,,,,,,,,,,,,,,,,,,,,,,,,,,,,,,,,,,,,,,,,
349832,001,2022-11-20_17h49.41.937,Info_measure_main_exp,2022.2.2,MacIntel,59.95203837,,,,,,,,,,,,,,,,,,masks/mask_003.jpg,,,,,,,,,,,,,,,,,,,,,,,,,,,,,,,,,,,,,,,,,,,0,3,3,2,1,,,,,,,,,,,,,,,,,,,,,,,,,,,,,,,,,,,,,,,,,,,,,,
349832,001,2022-11-20_17h49.41.937,Info_measure_main_exp,2022.2.2,MacIntel,59.95203837,,,,,,,,,,,,,,,,,,masks/mask_005.jpg,,,,,,,,,,,,,,,,,,,,,,,,,,,,,,,,,,,,,,,,,,,0,4,4,4,1,,,,,,,,,,,,,,,,,,,,,,,,,,,,,,,,,,,,,,,,,,,,,,
349832,001,2022-11-20_17h49.41.937,Info_measure_main_exp,2022.2.2,MacIntel,59.95203837,,,,,,,,,,,,,,,,,,masks/mask_002.jpg,,,,,,,,,,,,,,,,,,,,,,,,,,,,,,,,,,,,,,,,,,,,,,,,0,0,0,1,1,,,,,,,,,,,,,,,,,,,,,,,,,,,,,,,,,,,,,,,,,
349832,001,2022-11-20_17h49.41.937,Info_measure_main_exp,2022.2.2,MacIntel,59.95203837,,,,,,,,,,,,,,,,,,masks/mask_001.jpg,,,,,,,,,,,,,,,,,,,,,,,,,,,,,,,,,,,,,,,,,,,,,,,,0,1,1,0,1,,,,,,,,,,,,,,,,,,,,,,,,,,,,,,,,,,,,,,,,,
349832,001,2022-11-20_17h49.41.937,Info_measure_main_exp,2022.2.2,MacIntel,59.95203837,,,,,,,,,,,,,,,,,,masks/mask_005.jpg,,,,,,,,,,,,,,,,,,,,,,,,,,,,,,,,,,,,,,,,,,,,,,,,0,2,2,4,1,,,,,,,,,,,,,,,,,,,,,,,,,,,,,,,,,,,,,,,,,
349832,001,2022-11-20_17h49.41.937,Info_measure_main_exp,2022.2.2,MacIntel,59.95203837,,,,,,,,,,,,,,,,,,masks/mask_003.jpg,,,,,,,,,,,,,,,,,,,,,,,,,,,,,,,,,,,,,,,,,,,,,,,,0,3,3,2,1,,,,,,,,,,,,,,,,,,,,,,,,,,,,,,,,,,,,,,,,,
349832,001,2022-11-20_17h49.41.937,Info_measure_main_exp,2022.2.2,MacIntel,59.95203837,,,,,,,,,,,,,,,,,,masks/mask_004.jpg,,,,,,,,,,,,,,,,,,,,,,,,,,,,,,,,,,,,,,,,,,,,,,,,0,4,4,3,1,,,,,,,,,,,,,,,,,,,,,,,,,,,,,,,,,,,,,,,,,
349832,001,2022-11-20_17h49.41.937,Info_measure_main_exp,2022.2.2,MacIntel,59.95203837,,,,,,,,,,,,,,,,,,,,,,,,,,,,,,0,0.583,1,,,,,,,,,,,,0,131,5,5,2190,2190,absent_patch/patch0002190.jpg,absent_patch/patch0002190.jpg,,,,,,,,,,,,,,,,,,,,-0.027777778,0.101111111,1,0,0,response7disk,8,-0.002222222,0,1,0,0,center_square,0,7,7,86,1,,,,,,,,,,,,,,,,,,,,,,,
349832,001,2022-11-20_17h49.41.937,Info_measure_main_exp,2022.2.2,MacIntel,59.95203837,,,,,,,,,,,,,,,,,,masks/mask_005.jpg,,,,,,,,,,,,,,,,,,,,,,,,,,,,,,,,,,,,,,,,,,,0,0,0,4,1,,,,,,,,,,,,,,,,,,,,,,,,,,,,,,,,,,,,,,,,,,,,,,
349832,001,2022-11-20_17h49.41.937,Info_measure_main_exp,2022.2.2,MacIntel,59.95203837,,,,,,,,,,,,,,,,,,masks/mask_003.jpg,,,,,,,,,,,,,,,,,,,,,,,,,,,,,,,,,,,,,,,,,,,0,1,1,2,1,,,,,,,,,,,,,,,,,,,,,,,,,,,,,,,,,,,,,,,,,,,,,,
349832,001,2022-11-20_17h49.41.937,Info_measure_main_exp,2022.2.2,MacIntel,59.95203837,,,,,,,,,,,,,,,,,,masks/mask_001.jpg,,,,,,,,,,,,,,,,,,,,,,,,,,,,,,,,,,,,,,,,,,,0,2,2,0,1,,,,,,,,,,,,,,,,,,,,,,,,,,,,,,,,,,,,,,,,,,,,,,
349832,001,2022-11-20_17h49.41.937,Info_measure_main_exp,2022.2.2,MacIntel,59.95203837,,,,,,,,,,,,,,,,,,masks/mask_004.jpg,,,,,,,,,,,,,,,,,,,,,,,,,,,,,,,,,,,,,,,,,,,0,3,3,3,1,,,,,,,,,,,,,,,,,,,,,,,,,,,,,,,,,,,,,,,,,,,,,,
349832,001,2022-11-20_17h49.41.937,Info_measure_main_exp,2022.2.2,MacIntel,59.95203837,,,,,,,,,,,,,,,,,,masks/mask_002.jpg,,,,,,,,,,,,,,,,,,,,,,,,,,,,,,,,,,,,,,,,,,,0,4,4,1,1,,,,,,,,,,,,,,,,,,,,,,,,,,,,,,,,,,,,,,,,,,,,,,
349832,001,2022-11-20_17h49.41.937,Info_measure_main_exp,2022.2.2,MacIntel,59.95203837,,,,,,,,,,,,,,,,,,masks/mask_003.jpg,,,,,,,,,,,,,,,,,,,,,,,,,,,,,,,,,,,,,,,,,,,,,,,,0,0,0,2,1,,,,,,,,,,,,,,,,,,,,,,,,,,,,,,,,,,,,,,,,,
349832,001,2022-11-20_17h49.41.937,Info_measure_main_exp,2022.2.2,MacIntel,59.95203837,,,,,,,,,,,,,,,,,,masks/mask_001.jpg,,,,,,,,,,,,,,,,,,,,,,,,,,,,,,,,,,,,,,,,,,,,,,,,0,1,1,0,1,,,,,,,,,,,,,,,,,,,,,,,,,,,,,,,,,,,,,,,,,
349832,001,2022-11-20_17h49.41.937,Info_measure_main_exp,2022.2.2,MacIntel,59.95203837,,,,,,,,,,,,,,,,,,masks/mask_005.jpg,,,,,,,,,,,,,,,,,,,,,,,,,,,,,,,,,,,,,,,,,,,,,,,,0,2,2,4,1,,,,,,,,,,,,,,,,,,,,,,,,,,,,,,,,,,,,,,,,,
349832,001,2022-11-20_17h49.41.937,Info_measure_main_exp,2022.2.2,MacIntel,59.95203837,,,,,,,,,,,,,,,,,,masks/mask_004.jpg,,,,,,,,,,,,,,,,,,,,,,,,,,,,,,,,,,,,,,,,,,,,,,,,0,3,3,3,1,,,,,,,,,,,,,,,,,,,,,,,,,,,,,,,,,,,,,,,,,
349832,001,2022-11-20_17h49.41.937,Info_measure_main_exp,2022.2.2,MacIntel,59.95203837,,,,,,,,,,,,,,,,,,masks/mask_002.jpg,,,,,,,,,,,,,,,,,,,,,,,,,,,,,,,,,,,,,,,,,,,,,,,,0,4,4,1,1,,,,,,,,,,,,,,,,,,,,,,,,,,,,,,,,,,,,,,,,,
349832,001,2022-11-20_17h49.41.937,Info_measure_main_exp,2022.2.2,MacIntel,59.95203837,,,,,,,,,,,,,,,,,,,,,,,,,,,,,,6,0.984,1,,,,,,,,,,,,0,131,5,5,2154,1974,absent_patch/patch0002154.jpg,absent_patch/patch0001974.jpg,,,,,,,,,,,,,,,,,,,,0.156666667,0.1,1,0,0,response1disk,9,-0.003333333,0.01,1,0,0,center_square,0,8,8,82,1,,,,,,,,,,,,,,,,,,,,,,,
349832,001,2022-11-20_17h49.41.937,Info_measure_main_exp,2022.2.2,MacIntel,59.95203837,,,,,,,,,,,,,,,,,,masks/mask_003.jpg,,,,,,,,,,,,,,,,,,,,,,,,,,,,,,,,,,,,,,,,,,,0,0,0,2,1,,,,,,,,,,,,,,,,,,,,,,,,,,,,,,,,,,,,,,,,,,,,,,
349832,001,2022-11-20_17h49.41.937,Info_measure_main_exp,2022.2.2,MacIntel,59.95203837,,,,,,,,,,,,,,,,,,masks/mask_004.jpg,,,,,,,,,,,,,,,,,,,,,,,,,,,,,,,,,,,,,,,,,,,0,1,1,3,1,,,,,,,,,,,,,,,,,,,,,,,,,,,,,,,,,,,,,,,,,,,,,,
349832,001,2022-11-20_17h49.41.937,Info_measure_main_exp,2022.2.2,MacIntel,59.95203837,,,,,,,,,,,,,,,,,,masks/mask_005.jpg,,,,,,,,,,,,,,,,,,,,,,,,,,,,,,,,,,,,,,,,,,,0,2,2,4,1,,,,,,,,,,,,,,,,,,,,,,,,,,,,,,,,,,,,,,,,,,,,,,
349832,001,2022-11-20_17h49.41.937,Info_measure_main_exp,2022.2.2,MacIntel,59.95203837,,,,,,,,,,,,,,,,,,masks/mask_002.jpg,,,,,,,,,,,,,,,,,,,,,,,,,,,,,,,,,,,,,,,,,,,0,3,3,1,1,,,,,,,,,,,,,,,,,,,,,,,,,,,,,,,,,,,,,,,,,,,,,,
349832,001,2022-11-20_17h49.41.937,Info_measure_main_exp,2022.2.2,MacIntel,59.95203837,,,,,,,,,,,,,,,,,,masks/mask_001.jpg,,,,,,,,,,,,,,,,,,,,,,,,,,,,,,,,,,,,,,,,,,,0,4,4,0,1,,,,,,,,,,,,,,,,,,,,,,,,,,,,,,,,,,,,,,,,,,,,,,
349832,001,2022-11-20_17h49.41.937,Info_measure_main_exp,2022.2.2,MacIntel,59.95203837,,,,,,,,,,,,,,,,,,masks/mask_002.jpg,,,,,,,,,,,,,,,,,,,,,,,,,,,,,,,,,,,,,,,,,,,,,,,,0,0,0,1,1,,,,,,,,,,,,,,,,,,,,,,,,,,,,,,,,,,,,,,,,,
349832,001,2022-11-20_17h49.41.937,Info_measure_main_exp,2022.2.2,MacIntel,59.95203837,,,,,,,,,,,,,,,,,,masks/mask_005.jpg,,,,,,,,,,,,,,,,,,,,,,,,,,,,,,,,,,,,,,,,,,,,,,,,0,1,1,4,1,,,,,,,,,,,,,,,,,,,,,,,,,,,,,,,,,,,,,,,,,
349832,001,2022-11-20_17h49.41.937,Info_measure_main_exp,2022.2.2,MacIntel,59.95203837,,,,,,,,,,,,,,,,,,masks/mask_001.jpg,,,,,,,,,,,,,,,,,,,,,,,,,,,,,,,,,,,,,,,,,,,,,,,,0,2,2,0,1,,,,,,,,,,,,,,,,,,,,,,,,,,,,,,,,,,,,,,,,,
349832,001,2022-11-20_17h49.41.937,Info_measure_main_exp,2022.2.2,MacIntel,59.95203837,,,,,,,,,,,,,,,,,,masks/mask_003.jpg,,,,,,,,,,,,,,,,,,,,,,,,,,,,,,,,,,,,,,,,,,,,,,,,0,3,3,2,1,,,,,,,,,,,,,,,,,,,,,,,,,,,,,,,,,,,,,,,,,
349832,001,2022-11-20_17h49.41.937,Info_measure_main_exp,2022.2.2,MacIntel,59.95203837,,,,,,,,,,,,,,,,,,masks/mask_004.jpg,,,,,,,,,,,,,,,,,,,,,,,,,,,,,,,,,,,,,,,,,,,,,,,,0,4,4,3,1,,,,,,,,,,,,,,,,,,,,,,,,,,,,,,,,,,,,,,,,,
349832,001,2022-11-20_17h49.41.937,Info_measure_main_exp,2022.2.2,MacIntel,59.95203837,,,,,,,,,,,,,,,,,,,,,,,,,,,,,,6,1.549,1,,,,,,,,,,,,0,131,5,5,2082,2298,absent_patch/patch0002082.jpg,absent_patch/patch0002298.jpg,,,,,,,,,,,,,,,,,,,,0.163333333,0.052222222,1,0,0,response1disk,10,-0.003333333,0.008888889,1,0,0,center_square,0,9,9,107,1,,,,,,,,,,,,,,,,,,,,,,,
349832,001,2022-11-20_17h49.41.937,Info_measure_main_exp,2022.2.2,MacIntel,59.95203837,,,,,,,,,,,,,,,,,,masks/mask_002.jpg,,,,,,,,,,,,,,,,,,,,,,,,,,,,,,,,,,,,,,,,,,,0,0,0,1,1,,,,,,,,,,,,,,,,,,,,,,,,,,,,,,,,,,,,,,,,,,,,,,
349832,001,2022-11-20_17h49.41.937,Info_measure_main_exp,2022.2.2,MacIntel,59.95203837,,,,,,,,,,,,,,,,,,masks/mask_004.jpg,,,,,,,,,,,,,,,,,,,,,,,,,,,,,,,,,,,,,,,,,,,0,1,1,3,1,,,,,,,,,,,,,,,,,,,,,,,,,,,,,,,,,,,,,,,,,,,,,,
349832,001,2022-11-20_17h49.41.937,Info_measure_main_exp,2022.2.2,MacIntel,59.95203837,,,,,,,,,,,,,,,,,,masks/mask_005.jpg,,,,,,,,,,,,,,,,,,,,,,,,,,,,,,,,,,,,,,,,,,,0,2,2,4,1,,,,,,,,,,,,,,,,,,,,,,,,,,,,,,,,,,,,,,,,,,,,,,
349832,001,2022-11-20_17h49.41.937,Info_measure_main_exp,2022.2.2,MacIntel,59.95203837,,,,,,,,,,,,,,,,,,masks/mask_003.jpg,,,,,,,,,,,,,,,,,,,,,,,,,,,,,,,,,,,,,,,,,,,0,3,3,2,1,,,,,,,,,,,,,,,,,,,,,,,,,,,,,,,,,,,,,,,,,,,,,,
349832,001,2022-11-20_17h49.41.937,Info_measure_main_exp,2022.2.2,MacIntel,59.95203837,,,,,,,,,,,,,,,,,,masks/mask_001.jpg,,,,,,,,,,,,,,,,,,,,,,,,,,,,,,,,,,,,,,,,,,,0,4,4,0,1,,,,,,,,,,,,,,,,,,,,,,,,,,,,,,,,,,,,,,,,,,,,,,
349832,001,2022-11-20_17h49.41.937,Info_measure_main_exp,2022.2.2,MacIntel,59.95203837,,,,,,,,,,,,,,,,,,masks/mask_001.jpg,,,,,,,,,,,,,,,,,,,,,,,,,,,,,,,,,,,,,,,,,,,,,,,,0,0,0,0,1,,,,,,,,,,,,,,,,,,,,,,,,,,,,,,,,,,,,,,,,,
349832,001,2022-11-20_17h49.41.937,Info_measure_main_exp,2022.2.2,MacIntel,59.95203837,,,,,,,,,,,,,,,,,,masks/mask_005.jpg,,,,,,,,,,,,,,,,,,,,,,,,,,,,,,,,,,,,,,,,,,,,,,,,0,1,1,4,1,,,,,,,,,,,,,,,,,,,,,,,,,,,,,,,,,,,,,,,,,
349832,001,2022-11-20_17h49.41.937,Info_measure_main_exp,2022.2.2,MacIntel,59.95203837,,,,,,,,,,,,,,,,,,masks/mask_003.jpg,,,,,,,,,,,,,,,,,,,,,,,,,,,,,,,,,,,,,,,,,,,,,,,,0,2,2,2,1,,,,,,,,,,,,,,,,,,,,,,,,,,,,,,,,,,,,,,,,,
349832,001,2022-11-20_17h49.41.937,Info_measure_main_exp,2022.2.2,MacIntel,59.95203837,,,,,,,,,,,,,,,,,,masks/mask_004.jpg,,,,,,,,,,,,,,,,,,,,,,,,,,,,,,,,,,,,,,,,,,,,,,,,0,3,3,3,1,,,,,,,,,,,,,,,,,,,,,,,,,,,,,,,,,,,,,,,,,
349832,001,2022-11-20_17h49.41.937,Info_measure_main_exp,2022.2.2,MacIntel,59.95203837,,,,,,,,,,,,,,,,,,masks/mask_002.jpg,,,,,,,,,,,,,,,,,,,,,,,,,,,,,,,,,,,,,,,,,,,,,,,,0,4,4,1,1,,,,,,,,,,,,,,,,,,,,,,,,,,,,,,,,,,,,,,,,,
349832,001,2022-11-20_17h49.41.937,Info_measure_main_exp,2022.2.2,MacIntel,59.95203837,,,,,,,,,,,,,,,,,,,,,,,,,,,,,,5,1.163,1,,,,,,,,,,,,0,131,5,5,1950,2238,absent_patch/patch0001950.jpg,absent_patch/patch0002238.jpg,,,,,,,,,,,,,,,,,,,,0.128888889,-0.088888889,1,0,0,response3disk,11,-0.006666667,0.005555556,1,0,0,center_square,0,10,10,8,1,,,,,,,,,,,,,,,,,,,,,,,
349832,001,2022-11-20_17h49.41.937,Info_measure_main_exp,2022.2.2,MacIntel,59.95203837,,,,,,,,,,,,,,,,,,masks/mask_005.jpg,,,,,,,,,,,,,,,,,,,,,,,,,,,,,,,,,,,,,,,,,,,0,0,0,4,1,,,,,,,,,,,,,,,,,,,,,,,,,,,,,,,,,,,,,,,,,,,,,,
349832,001,2022-11-20_17h49.41.937,Info_measure_main_exp,2022.2.2,MacIntel,59.95203837,,,,,,,,,,,,,,,,,,masks/mask_003.jpg,,,,,,,,,,,,,,,,,,,,,,,,,,,,,,,,,,,,,,,,,,,0,1,1,2,1,,,,,,,,,,,,,,,,,,,,,,,,,,,,,,,,,,,,,,,,,,,,,,
349832,001,2022-11-20_17h49.41.937,Info_measure_main_exp,2022.2.2,MacIntel,59.95203837,,,,,,,,,,,,,,,,,,masks/mask_001.jpg,,,,,,,,,,,,,,,,,,,,,,,,,,,,,,,,,,,,,,,,,,,0,2,2,0,1,,,,,,,,,,,,,,,,,,,,,,,,,,,,,,,,,,,,,,,,,,,,,,
349832,001,2022-11-20_17h49.41.937,Info_measure_main_exp,2022.2.2,MacIntel,59.95203837,,,,,,,,,,,,,,,,,,masks/mask_002.jpg,,,,,,,,,,,,,,,,,,,,,,,,,,,,,,,,,,,,,,,,,,,0,3,3,1,1,,,,,,,,,,,,,,,,,,,,,,,,,,,,,,,,,,,,,,,,,,,,,,
349832,001,2022-11-20_17h49.41.937,Info_measure_main_exp,2022.2.2,MacIntel,59.95203837,,,,,,,,,,,,,,,,,,masks/mask_004.jpg,,,,,,,,,,,,,,,,,,,,,,,,,,,,,,,,,,,,,,,,,,,0,4,4,3,1,,,,,,,,,,,,,,,,,,,,,,,,,,,,,,,,,,,,,,,,,,,,,,
349832,001,2022-11-20_17h49.41.937,Info_measure_main_exp,2022.2.2,MacIntel,59.95203837,,,,,,,,,,,,,,,,,,masks/mask_001.jpg,,,,,,,,,,,,,,,,,,,,,,,,,,,,,,,,,,,,,,,,,,,,,,,,0,0,0,0,1,,,,,,,,,,,,,,,,,,,,,,,,,,,,,,,,,,,,,,,,,
349832,001,2022-11-20_17h49.41.937,Info_measure_main_exp,2022.2.2,MacIntel,59.95203837,,,,,,,,,,,,,,,,,,masks/mask_004.jpg,,,,,,,,,,,,,,,,,,,,,,,,,,,,,,,,,,,,,,,,,,,,,,,,0,1,1,3,1,,,,,,,,,,,,,,,,,,,,,,,,,,,,,,,,,,,,,,,,,
349832,001,2022-11-20_17h49.41.937,Info_measure_main_exp,2022.2.2,MacIntel,59.95203837,,,,,,,,,,,,,,,,,,masks/mask_005.jpg,,,,,,,,,,,,,,,,,,,,,,,,,,,,,,,,,,,,,,,,,,,,,,,,0,2,2,4,1,,,,,,,,,,,,,,,,,,,,,,,,,,,,,,,,,,,,,,,,,
349832,001,2022-11-20_17h49.41.937,Info_measure_main_exp,2022.2.2,MacIntel,59.95203837,,,,,,,,,,,,,,,,,,masks/mask_003.jpg,,,,,,,,,,,,,,,,,,,,,,,,,,,,,,,,,,,,,,,,,,,,,,,,0,3,3,2,1,,,,,,,,,,,,,,,,,,,,,,,,,,,,,,,,,,,,,,,,,
349832,001,2022-11-20_17h49.41.937,Info_measure_main_exp,2022.2.2,MacIntel,59.95203837,,,,,,,,,,,,,,,,,,masks/mask_002.jpg,,,,,,,,,,,,,,,,,,,,,,,,,,,,,,,,,,,,,,,,,,,,,,,,0,4,4,1,1,,,,,,,,,,,,,,,,,,,,,,,,,,,,,,,,,,,,,,,,,
349832,001,2022-11-20_17h49.41.937,Info_measure_main_exp,2022.2.2,MacIntel,59.95203837,,,,,,,,,,,,,,,,,,,,,,,,,,,,,,5,1.016,1,,,,,,,,,,,,0,131,5,5,2142,2154,absent_patch/patch0002142.jpg,absent_patch/patch0002154.jpg,,,,,,,,,,,,,,,,,,,,0.134444444,-0.05,1,0,0,response3disk,12,0.007777778,0.007777778,1,0,0,center_square,0,11,11,9,1,,,,,,,,,,,,,,,,,,,,,,,
349832,001,2022-11-20_17h49.41.937,Info_measure_main_exp,2022.2.2,MacIntel,59.95203837,,,,,,,,,,,,,,,,,,masks/mask_001.jpg,,,,,,,,,,,,,,,,,,,,,,,,,,,,,,,,,,,,,,,,,,,0,0,0,0,1,,,,,,,,,,,,,,,,,,,,,,,,,,,,,,,,,,,,,,,,,,,,,,
349832,001,2022-11-20_17h49.41.937,Info_measure_main_exp,2022.2.2,MacIntel,59.95203837,,,,,,,,,,,,,,,,,,masks/mask_005.jpg,,,,,,,,,,,,,,,,,,,,,,,,,,,,,,,,,,,,,,,,,,,0,1,1,4,1,,,,,,,,,,,,,,,,,,,,,,,,,,,,,,,,,,,,,,,,,,,,,,
349832,001,2022-11-20_17h49.41.937,Info_measure_main_exp,2022.2.2,MacIntel,59.95203837,,,,,,,,,,,,,,,,,,masks/mask_004.jpg,,,,,,,,,,,,,,,,,,,,,,,,,,,,,,,,,,,,,,,,,,,0,2,2,3,1,,,,,,,,,,,,,,,,,,,,,,,,,,,,,,,,,,,,,,,,,,,,,,
349832,001,2022-11-20_17h49.41.937,Info_measure_main_exp,2022.2.2,MacIntel,59.95203837,,,,,,,,,,,,,,,,,,masks/mask_003.jpg,,,,,,,,,,,,,,,,,,,,,,,,,,,,,,,,,,,,,,,,,,,0,3,3,2,1,,,,,,,,,,,,,,,,,,,,,,,,,,,,,,,,,,,,,,,,,,,,,,
349832,001,2022-11-20_17h49.41.937,Info_measure_main_exp,2022.2.2,MacIntel,59.95203837,,,,,,,,,,,,,,,,,,masks/mask_002.jpg,,,,,,,,,,,,,,,,,,,,,,,,,,,,,,,,,,,,,,,,,,,0,4,4,1,1,,,,,,,,,,,,,,,,,,,,,,,,,,,,,,,,,,,,,,,,,,,,,,
349832,001,2022-11-20_17h49.41.937,Info_measure_main_exp,2022.2.2,MacIntel,59.95203837,,,,,,,,,,,,,,,,,,masks/mask_001.jpg,,,,,,,,,,,,,,,,,,,,,,,,,,,,,,,,,,,,,,,,,,,,,,,,0,0,0,0,1,,,,,,,,,,,,,,,,,,,,,,,,,,,,,,,,,,,,,,,,,
349832,001,2022-11-20_17h49.41.937,Info_measure_main_exp,2022.2.2,MacIntel,59.95203837,,,,,,,,,,,,,,,,,,masks/mask_004.jpg,,,,,,,,,,,,,,,,,,,,,,,,,,,,,,,,,,,,,,,,,,,,,,,,0,1,1,3,1,,,,,,,,,,,,,,,,,,,,,,,,,,,,,,,,,,,,,,,,,
349832,001,2022-11-20_17h49.41.937,Info_measure_main_exp,2022.2.2,MacIntel,59.95203837,,,,,,,,,,,,,,,,,,masks/mask_005.jpg,,,,,,,,,,,,,,,,,,,,,,,,,,,,,,,,,,,,,,,,,,,,,,,,0,2,2,4,1,,,,,,,,,,,,,,,,,,,,,,,,,,,,,,,,,,,,,,,,,
349832,001,2022-11-20_17h49.41.937,Info_measure_main_exp,2022.2.2,MacIntel,59.95203837,,,,,,,,,,,,,,,,,,masks/mask_003.jpg,,,,,,,,,,,,,,,,,,,,,,,,,,,,,,,,,,,,,,,,,,,,,,,,0,3,3,2,1,,,,,,,,,,,,,,,,,,,,,,,,,,,,,,,,,,,,,,,,,
349832,001,2022-11-20_17h49.41.937,Info_measure_main_exp,2022.2.2,MacIntel,59.95203837,,,,,,,,,,,,,,,,,,masks/mask_002.jpg,,,,,,,,,,,,,,,,,,,,,,,,,,,,,,,,,,,,,,,,,,,,,,,,0,4,4,1,1,,,,,,,,,,,,,,,,,,,,,,,,,,,,,,,,,,,,,,,,,
349832,001,2022-11-20_17h49.41.937,Info_measure_main_exp,2022.2.2,MacIntel,59.95203837,,,,,,,,,,,,,,,,,,,,,,,,,,,,,,6,1.133,1,,,,,,,,,,,,0,131,5,5,1974,2250,absent_patch/patch0001974.jpg,absent_patch/patch0002250.jpg,,,,,,,,,,,,,,,,,,,,0.156666667,0.134444444,1,0,0,response1disk,13,0.002222222,0.004444444,1,0,0,center_square,0,12,12,55,1,,,,,,,,,,,,,,,,,,,,,,,
349832,001,2022-11-20_17h49.41.937,Info_measure_main_exp,2022.2.2,MacIntel,59.95203837,,,,,,,,,,,,,,,,,,masks/mask_004.jpg,,,,,,,,,,,,,,,,,,,,,,,,,,,,,,,,,,,,,,,,,,,0,0,0,3,1,,,,,,,,,,,,,,,,,,,,,,,,,,,,,,,,,,,,,,,,,,,,,,
349832,001,2022-11-20_17h49.41.937,Info_measure_main_exp,2022.2.2,MacIntel,59.95203837,,,,,,,,,,,,,,,,,,masks/mask_003.jpg,,,,,,,,,,,,,,,,,,,,,,,,,,,,,,,,,,,,,,,,,,,0,1,1,2,1,,,,,,,,,,,,,,,,,,,,,,,,,,,,,,,,,,,,,,,,,,,,,,
349832,001,2022-11-20_17h49.41.937,Info_measure_main_exp,2022.2.2,MacIntel,59.95203837,,,,,,,,,,,,,,,,,,masks/mask_001.jpg,,,,,,,,,,,,,,,,,,,,,,,,,,,,,,,,,,,,,,,,,,,0,2,2,0,1,,,,,,,,,,,,,,,,,,,,,,,,,,,,,,,,,,,,,,,,,,,,,,
349832,001,2022-11-20_17h49.41.937,Info_measure_main_exp,2022.2.2,MacIntel,59.95203837,,,,,,,,,,,,,,,,,,masks/mask_002.jpg,,,,,,,,,,,,,,,,,,,,,,,,,,,,,,,,,,,,,,,,,,,0,3,3,1,1,,,,,,,,,,,,,,,,,,,,,,,,,,,,,,,,,,,,,,,,,,,,,,
349832,001,2022-11-20_17h49.41.937,Info_measure_main_exp,2022.2.2,MacIntel,59.95203837,,,,,,,,,,,,,,,,,,masks/mask_005.jpg,,,,,,,,,,,,,,,,,,,,,,,,,,,,,,,,,,,,,,,,,,,0,4,4,4,1,,,,,,,,,,,,,,,,,,,,,,,,,,,,,,,,,,,,,,,,,,,,,,
349832,001,2022-11-20_17h49.41.937,Info_measure_main_exp,2022.2.2,MacIntel,59.95203837,,,,,,,,,,,,,,,,,,masks/mask_004.jpg,,,,,,,,,,,,,,,,,,,,,,,,,,,,,,,,,,,,,,,,,,,,,,,,0,0,0,3,1,,,,,,,,,,,,,,,,,,,,,,,,,,,,,,,,,,,,,,,,,
349832,001,2022-11-20_17h49.41.937,Info_measure_main_exp,2022.2.2,MacIntel,59.95203837,,,,,,,,,,,,,,,,,,masks/mask_001.jpg,,,,,,,,,,,,,,,,,,,,,,,,,,,,,,,,,,,,,,,,,,,,,,,,0,1,1,0,1,,,,,,,,,,,,,,,,,,,,,,,,,,,,,,,,,,,,,,,,,
349832,001,2022-11-20_17h49.41.937,Info_measure_main_exp,2022.2.2,MacIntel,59.95203837,,,,,,,,,,,,,,,,,,masks/mask_005.jpg,,,,,,,,,,,,,,,,,,,,,,,,,,,,,,,,,,,,,,,,,,,,,,,,0,2,2,4,1,,,,,,,,,,,,,,,,,,,,,,,,,,,,,,,,,,,,,,,,,
349832,001,2022-11-20_17h49.41.937,Info_measure_main_exp,2022.2.2,MacIntel,59.95203837,,,,,,,,,,,,,,,,,,masks/mask_003.jpg,,,,,,,,,,,,,,,,,,,,,,,,,,,,,,,,,,,,,,,,,,,,,,,,0,3,3,2,1,,,,,,,,,,,,,,,,,,,,,,,,,,,,,,,,,,,,,,,,,
349832,001,2022-11-20_17h49.41.937,Info_measure_main_exp,2022.2.2,MacIntel,59.95203837,,,,,,,,,,,,,,,,,,masks/mask_002.jpg,,,,,,,,,,,,,,,,,,,,,,,,,,,,,,,,,,,,,,,,,,,,,,,,0,4,4,1,1,,,,,,,,,,,,,,,,,,,,,,,,,,,,,,,,,,,,,,,,,
349832,001,2022-11-20_17h49.41.937,Info_measure_main_exp,2022.2.2,MacIntel,59.95203837,,,,,,,,,,,,,,,,,,,,,,,,,,,,,,3,1.667,1,,,,,,,,,,,,0,131,5,5,2190,2214,absent_patch/patch0002190.jpg,absent_patch/patch0002214.jpg,,,,,,,,,,,,,,,,,,,,-0.04,-0.115555556,1,0,0,response5disk,14,0.001111111,0.01,1,0,0,center_square,0,13,13,35,1,,,,,,,,,,,,,,,,,,,,,,,
349832,001,2022-11-20_17h49.41.937,Info_measure_main_exp,2022.2.2,MacIntel,59.95203837,,,,,,,,,,,,,,,,,,masks/mask_005.jpg,,,,,,,,,,,,,,,,,,,,,,,,,,,,,,,,,,,,,,,,,,,0,0,0,4,1,,,,,,,,,,,,,,,,,,,,,,,,,,,,,,,,,,,,,,,,,,,,,,
349832,001,2022-11-20_17h49.41.937,Info_measure_main_exp,2022.2.2,MacIntel,59.95203837,,,,,,,,,,,,,,,,,,masks/mask_001.jpg,,,,,,,,,,,,,,,,,,,,,,,,,,,,,,,,,,,,,,,,,,,0,1,1,0,1,,,,,,,,,,,,,,,,,,,,,,,,,,,,,,,,,,,,,,,,,,,,,,
349832,001,2022-11-20_17h49.41.937,Info_measure_main_exp,2022.2.2,MacIntel,59.95203837,,,,,,,,,,,,,,,,,,masks/mask_003.jpg,,,,,,,,,,,,,,,,,,,,,,,,,,,,,,,,,,,,,,,,,,,0,2,2,2,1,,,,,,,,,,,,,,,,,,,,,,,,,,,,,,,,,,,,,,,,,,,,,,
349832,001,2022-11-20_17h49.41.937,Info_measure_main_exp,2022.2.2,MacIntel,59.95203837,,,,,,,,,,,,,,,,,,masks/mask_004.jpg,,,,,,,,,,,,,,,,,,,,,,,,,,,,,,,,,,,,,,,,,,,0,3,3,3,1,,,,,,,,,,,,,,,,,,,,,,,,,,,,,,,,,,,,,,,,,,,,,,
349832,001,2022-11-20_17h49.41.937,Info_measure_main_exp,2022.2.2,MacIntel,59.95203837,,,,,,,,,,,,,,,,,,masks/mask_002.jpg,,,,,,,,,,,,,,,,,,,,,,,,,,,,,,,,,,,,,,,,,,,0,4,4,1,1,,,,,,,,,,,,,,,,,,,,,,,,,,,,,,,,,,,,,,,,,,,,,,
349832,001,2022-11-20_17h49.41.937,Info_measure_main_exp,2022.2.2,MacIntel,59.95203837,,,,,,,,,,,,,,,,,,masks/mask_001.jpg,,,,,,,,,,,,,,,,,,,,,,,,,,,,,,,,,,,,,,,,,,,,,,,,0,0,0,0,1,,,,,,,,,,,,,,,,,,,,,,,,,,,,,,,,,,,,,,,,,
349832,001,2022-11-20_17h49.41.937,Info_measure_main_exp,2022.2.2,MacIntel,59.95203837,,,,,,,,,,,,,,,,,,masks/mask_003.jpg,,,,,,,,,,,,,,,,,,,,,,,,,,,,,,,,,,,,,,,,,,,,,,,,0,1,1,2,1,,,,,,,,,,,,,,,,,,,,,,,,,,,,,,,,,,,,,,,,,
349832,001,2022-11-20_17h49.41.937,Info_measure_main_exp,2022.2.2,MacIntel,59.95203837,,,,,,,,,,,,,,,,,,masks/mask_005.jpg,,,,,,,,,,,,,,,,,,,,,,,,,,,,,,,,,,,,,,,,,,,,,,,,0,2,2,4,1,,,,,,,,,,,,,,,,,,,,,,,,,,,,,,,,,,,,,,,,,
349832,001,2022-11-20_17h49.41.937,Info_measure_main_exp,2022.2.2,MacIntel,59.95203837,,,,,,,,,,,,,,,,,,masks/mask_004.jpg,,,,,,,,,,,,,,,,,,,,,,,,,,,,,,,,,,,,,,,,,,,,,,,,0,3,3,3,1,,,,,,,,,,,,,,,,,,,,,,,,,,,,,,,,,,,,,,,,,
349832,001,2022-11-20_17h49.41.937,Info_measure_main_exp,2022.2.2,MacIntel,59.95203837,,,,,,,,,,,,,,,,,,masks/mask_002.jpg,,,,,,,,,,,,,,,,,,,,,,,,,,,,,,,,,,,,,,,,,,,,,,,,0,4,4,1,1,,,,,,,,,,,,,,,,,,,,,,,,,,,,,,,,,,,,,,,,,
349832,001,2022-11-20_17h49.41.937,Info_measure_main_exp,2022.2.2,MacIntel,59.95203837,,,,,,,,,,,,,,,,,,,,,,,,,,,,,,6,0.815,1,,,,,,,,,,,,0,131,5,5,1986,1950,absent_patch/patch0001986.jpg,absent_patch/patch0001950.jpg,,,,,,,,,,,,,,,,,,,,0.107777778,0.017777778,1,0,0,response1disk,15,0,-0.001111111,1,0,0,center_square,0,14,14,15,1,,,,,,,,,,,,,,,,,,,,,,,
349832,001,2022-11-20_17h49.41.937,Info_measure_main_exp,2022.2.2,MacIntel,59.95203837,,,,,,,,,,,,,,,,,,masks/mask_005.jpg,,,,,,,,,,,,,,,,,,,,,,,,,,,,,,,,,,,,,,,,,,,0,0,0,4,1,,,,,,,,,,,,,,,,,,,,,,,,,,,,,,,,,,,,,,,,,,,,,,
349832,001,2022-11-20_17h49.41.937,Info_measure_main_exp,2022.2.2,MacIntel,59.95203837,,,,,,,,,,,,,,,,,,masks/mask_004.jpg,,,,,,,,,,,,,,,,,,,,,,,,,,,,,,,,,,,,,,,,,,,0,1,1,3,1,,,,,,,,,,,,,,,,,,,,,,,,,,,,,,,,,,,,,,,,,,,,,,
349832,001,2022-11-20_17h49.41.937,Info_measure_main_exp,2022.2.2,MacIntel,59.95203837,,,,,,,,,,,,,,,,,,masks/mask_002.jpg,,,,,,,,,,,,,,,,,,,,,,,,,,,,,,,,,,,,,,,,,,,0,2,2,1,1,,,,,,,,,,,,,,,,,,,,,,,,,,,,,,,,,,,,,,,,,,,,,,
349832,001,2022-11-20_17h49.41.937,Info_measure_main_exp,2022.2.2,MacIntel,59.95203837,,,,,,,,,,,,,,,,,,masks/mask_003.jpg,,,,,,,,,,,,,,,,,,,,,,,,,,,,,,,,,,,,,,,,,,,0,3,3,2,1,,,,,,,,,,,,,,,,,,,,,,,,,,,,,,,,,,,,,,,,,,,,,,
349832,001,2022-11-20_17h49.41.937,Info_measure_main_exp,2022.2.2,MacIntel,59.95203837,,,,,,,,,,,,,,,,,,masks/mask_001.jpg,,,,,,,,,,,,,,,,,,,,,,,,,,,,,,,,,,,,,,,,,,,0,4,4,0,1,,,,,,,,,,,,,,,,,,,,,,,,,,,,,,,,,,,,,,,,,,,,,,
349832,001,2022-11-20_17h49.41.937,Info_measure_main_exp,2022.2.2,MacIntel,59.95203837,,,,,,,,,,,,,,,,,,masks/mask_002.jpg,,,,,,,,,,,,,,,,,,,,,,,,,,,,,,,,,,,,,,,,,,,,,,,,0,0,0,1,1,,,,,,,,,,,,,,,,,,,,,,,,,,,,,,,,,,,,,,,,,
349832,001,2022-11-20_17h49.41.937,Info_measure_main_exp,2022.2.2,MacIntel,59.95203837,,,,,,,,,,,,,,,,,,masks/mask_005.jpg,,,,,,,,,,,,,,,,,,,,,,,,,,,,,,,,,,,,,,,,,,,,,,,,0,1,1,4,1,,,,,,,,,,,,,,,,,,,,,,,,,,,,,,,,,,,,,,,,,
349832,001,2022-11-20_17h49.41.937,Info_measure_main_exp,2022.2.2,MacIntel,59.95203837,,,,,,,,,,,,,,,,,,masks/mask_004.jpg,,,,,,,,,,,,,,,,,,,,,,,,,,,,,,,,,,,,,,,,,,,,,,,,0,2,2,3,1,,,,,,,,,,,,,,,,,,,,,,,,,,,,,,,,,,,,,,,,,
349832,001,2022-11-20_17h49.41.937,Info_measure_main_exp,2022.2.2,MacIntel,59.95203837,,,,,,,,,,,,,,,,,,masks/mask_003.jpg,,,,,,,,,,,,,,,,,,,,,,,,,,,,,,,,,,,,,,,,,,,,,,,,0,3,3,2,1,,,,,,,,,,,,,,,,,,,,,,,,,,,,,,,,,,,,,,,,,
349832,001,2022-11-20_17h49.41.937,Info_measure_main_exp,2022.2.2,MacIntel,59.95203837,,,,,,,,,,,,,,,,,,masks/mask_001.jpg,,,,,,,,,,,,,,,,,,,,,,,,,,,,,,,,,,,,,,,,,,,,,,,,0,4,4,0,1,,,,,,,,,,,,,,,,,,,,,,,,,,,,,,,,,,,,,,,,,
349832,001,2022-11-20_17h49.41.937,Info_measure_main_exp,2022.2.2,MacIntel,59.95203837,,,,,,,,,,,,,,,,,,,,,,,,,,,,,,0,0.554,1,,,,,,,,,,,,0,131,5,5,2154,2154,absent_patch/patch0002154.jpg,absent_patch/patch0002154.jpg,,,,,,,,,,,,,,,,,,,,-0.033333333,0.102222222,1,0,0,response7disk,16,0.001111111,0.005555556,1,0,0,center_square,0,15,15,89,1,,,,,,,,,,,,,,,,,,,,,,,
349832,001,2022-11-20_17h49.41.937,Info_measure_main_exp,2022.2.2,MacIntel,59.95203837,,,,,,,,,,,,,,,,,,masks/mask_002.jpg,,,,,,,,,,,,,,,,,,,,,,,,,,,,,,,,,,,,,,,,,,,0,0,0,1,1,,,,,,,,,,,,,,,,,,,,,,,,,,,,,,,,,,,,,,,,,,,,,,
349832,001,2022-11-20_17h49.41.937,Info_measure_main_exp,2022.2.2,MacIntel,59.95203837,,,,,,,,,,,,,,,,,,masks/mask_003.jpg,,,,,,,,,,,,,,,,,,,,,,,,,,,,,,,,,,,,,,,,,,,0,1,1,2,1,,,,,,,,,,,,,,,,,,,,,,,,,,,,,,,,,,,,,,,,,,,,,,
349832,001,2022-11-20_17h49.41.937,Info_measure_main_exp,2022.2.2,MacIntel,59.95203837,,,,,,,,,,,,,,,,,,masks/mask_004.jpg,,,,,,,,,,,,,,,,,,,,,,,,,,,,,,,,,,,,,,,,,,,0,2,2,3,1,,,,,,,,,,,,,,,,,,,,,,,,,,,,,,,,,,,,,,,,,,,,,,
349832,001,2022-11-20_17h49.41.937,Info_measure_main_exp,2022.2.2,MacIntel,59.95203837,,,,,,,,,,,,,,,,,,masks/mask_001.jpg,,,,,,,,,,,,,,,,,,,,,,,,,,,,,,,,,,,,,,,,,,,0,3,3,0,1,,,,,,,,,,,,,,,,,,,,,,,,,,,,,,,,,,,,,,,,,,,,,,
349832,001,2022-11-20_17h49.41.937,Info_measure_main_exp,2022.2.2,MacIntel,59.95203837,,,,,,,,,,,,,,,,,,masks/mask_005.jpg,,,,,,,,,,,,,,,,,,,,,,,,,,,,,,,,,,,,,,,,,,,0,4,4,4,1,,,,,,,,,,,,,,,,,,,,,,,,,,,,,,,,,,,,,,,,,,,,,,
349832,001,2022-11-20_17h49.41.937,Info_measure_main_exp,2022.2.2,MacIntel,59.95203837,,,,,,,,,,,,,,,,,,masks/mask_004.jpg,,,,,,,,,,,,,,,,,,,,,,,,,,,,,,,,,,,,,,,,,,,,,,,,0,0,0,3,1,,,,,,,,,,,,,,,,,,,,,,,,,,,,,,,,,,,,,,,,,
349832,001,2022-11-20_17h49.41.937,Info_measure_main_exp,2022.2.2,MacIntel,59.95203837,,,,,,,,,,,,,,,,,,masks/mask_002.jpg,,,,,,,,,,,,,,,,,,,,,,,,,,,,,,,,,,,,,,,,,,,,,,,,0,1,1,1,1,,,,,,,,,,,,,,,,,,,,,,,,,,,,,,,,,,,,,,,,,
349832,001,2022-11-20_17h49.41.937,Info_measure_main_exp,2022.2.2,MacIntel,59.95203837,,,,,,,,,,,,,,,,,,masks/mask_005.jpg,,,,,,,,,,,,,,,,,,,,,,,,,,,,,,,,,,,,,,,,,,,,,,,,0,2,2,4,1,,,,,,,,,,,,,,,,,,,,,,,,,,,,,,,,,,,,,,,,,
349832,001,2022-11-20_17h49.41.937,Info_measure_main_exp,2022.2.2,MacIntel,59.95203837,,,,,,,,,,,,,,,,,,masks/mask_001.jpg,,,,,,,,,,,,,,,,,,,,,,,,,,,,,,,,,,,,,,,,,,,,,,,,0,3,3,0,1,,,,,,,,,,,,,,,,,,,,,,,,,,,,,,,,,,,,,,,,,
349832,001,2022-11-20_17h49.41.937,Info_measure_main_exp,2022.2.2,MacIntel,59.95203837,,,,,,,,,,,,,,,,,,masks/mask_003.jpg,,,,,,,,,,,,,,,,,,,,,,,,,,,,,,,,,,,,,,,,,,,,,,,,0,4,4,2,1,,,,,,,,,,,,,,,,,,,,,,,,,,,,,,,,,,,,,,,,,
349832,001,2022-11-20_17h49.41.937,Info_measure_main_exp,2022.2.2,MacIntel,59.95203837,,,,,,,,,,,,,,,,,,,,,,,,,,,,,,6,1.315,1,,,,,,,,,,,,0,131,5,5,2178,2154,absent_patch/patch0002178.jpg,absent_patch/patch0002154.jpg,,,,,,,,,,,,,,,,,,,,0.155555556,0.071111111,1,0,0,response1disk,17,-0.001111111,-0.002222222,1,0,0,center_square,0,16,16,63,1,,,,,,,,,,,,,,,,,,,,,,,
349832,001,2022-11-20_17h49.41.937,Info_measure_main_exp,2022.2.2,MacIntel,59.95203837,,,,,,,,,,,,,,,,,,masks/mask_001.jpg,,,,,,,,,,,,,,,,,,,,,,,,,,,,,,,,,,,,,,,,,,,0,0,0,0,1,,,,,,,,,,,,,,,,,,,,,,,,,,,,,,,,,,,,,,,,,,,,,,
349832,001,2022-11-20_17h49.41.937,Info_measure_main_exp,2022.2.2,MacIntel,59.95203837,,,,,,,,,,,,,,,,,,masks/mask_003.jpg,,,,,,,,,,,,,,,,,,,,,,,,,,,,,,,,,,,,,,,,,,,0,1,1,2,1,,,,,,,,,,,,,,,,,,,,,,,,,,,,,,,,,,,,,,,,,,,,,,
349832,001,2022-11-20_17h49.41.937,Info_measure_main_exp,2022.2.2,MacIntel,59.95203837,,,,,,,,,,,,,,,,,,masks/mask_002.jpg,,,,,,,,,,,,,,,,,,,,,,,,,,,,,,,,,,,,,,,,,,,0,2,2,1,1,,,,,,,,,,,,,,,,,,,,,,,,,,,,,,,,,,,,,,,,,,,,,,
349832,001,2022-11-20_17h49.41.937,Info_measure_main_exp,2022.2.2,MacIntel,59.95203837,,,,,,,,,,,,,,,,,,masks/mask_005.jpg,,,,,,,,,,,,,,,,,,,,,,,,,,,,,,,,,,,,,,,,,,,0,3,3,4,1,,,,,,,,,,,,,,,,,,,,,,,,,,,,,,,,,,,,,,,,,,,,,,
349832,001,2022-11-20_17h49.41.937,Info_measure_main_exp,2022.2.2,MacIntel,59.95203837,,,,,,,,,,,,,,,,,,masks/mask_004.jpg,,,,,,,,,,,,,,,,,,,,,,,,,,,,,,,,,,,,,,,,,,,0,4,4,3,1,,,,,,,,,,,,,,,,,,,,,,,,,,,,,,,,,,,,,,,,,,,,,,
349832,001,2022-11-20_17h49.41.937,Info_measure_main_exp,2022.2.2,MacIntel,59.95203837,,,,,,,,,,,,,,,,,,masks/mask_004.jpg,,,,,,,,,,,,,,,,,,,,,,,,,,,,,,,,,,,,,,,,,,,,,,,,0,0,0,3,1,,,,,,,,,,,,,,,,,,,,,,,,,,,,,,,,,,,,,,,,,
349832,001,2022-11-20_17h49.41.937,Info_measure_main_exp,2022.2.2,MacIntel,59.95203837,,,,,,,,,,,,,,,,,,masks/mask_005.jpg,,,,,,,,,,,,,,,,,,,,,,,,,,,,,,,,,,,,,,,,,,,,,,,,0,1,1,4,1,,,,,,,,,,,,,,,,,,,,,,,,,,,,,,,,,,,,,,,,,
349832,001,2022-11-20_17h49.41.937,Info_measure_main_exp,2022.2.2,MacIntel,59.95203837,,,,,,,,,,,,,,,,,,masks/mask_001.jpg,,,,,,,,,,,,,,,,,,,,,,,,,,,,,,,,,,,,,,,,,,,,,,,,0,2,2,0,1,,,,,,,,,,,,,,,,,,,,,,,,,,,,,,,,,,,,,,,,,
349832,001,2022-11-20_17h49.41.937,Info_measure_main_exp,2022.2.2,MacIntel,59.95203837,,,,,,,,,,,,,,,,,,masks/mask_002.jpg,,,,,,,,,,,,,,,,,,,,,,,,,,,,,,,,,,,,,,,,,,,,,,,,0,3,3,1,1,,,,,,,,,,,,,,,,,,,,,,,,,,,,,,,,,,,,,,,,,
349832,001,2022-11-20_17h49.41.937,Info_measure_main_exp,2022.2.2,MacIntel,59.95203837,,,,,,,,,,,,,,,,,,masks/mask_003.jpg,,,,,,,,,,,,,,,,,,,,,,,,,,,,,,,,,,,,,,,,,,,,,,,,0,4,4,2,1,,,,,,,,,,,,,,,,,,,,,,,,,,,,,,,,,,,,,,,,,
349832,001,2022-11-20_17h49.41.937,Info_measure_main_exp,2022.2.2,MacIntel,59.95203837,,,,,,,,,,,,,,,,,,,,,,,,,,,,,,4,2.463,1,,,,,,,,,,,,0,131,5,5,2190,2082,absent_patch/patch0002190.jpg,absent_patch/patch0002082.jpg,,,,,,,,,,,,,,,,,,,,0.066666667,-0.104444444,1,0,0,response3disk,18,0.005555556,0.01,1,0,0,center_square,0,17,17,112,1,,,,,,,,,,,,,,,,,,,,,,,
349832,001,2022-11-20_17h49.41.937,Info_measure_main_exp,2022.2.2,MacIntel,59.95203837,,,,,,,,,,,,,,,,,,masks/mask_003.jpg,,,,,,,,,,,,,,,,,,,,,,,,,,,,,,,,,,,,,,,,,,,0,0,0,2,1,,,,,,,,,,,,,,,,,,,,,,,,,,,,,,,,,,,,,,,,,,,,,,
349832,001,2022-11-20_17h49.41.937,Info_measure_main_exp,2022.2.2,MacIntel,59.95203837,,,,,,,,,,,,,,,,,,masks/mask_004.jpg,,,,,,,,,,,,,,,,,,,,,,,,,,,,,,,,,,,,,,,,,,,0,1,1,3,1,,,,,,,,,,,,,,,,,,,,,,,,,,,,,,,,,,,,,,,,,,,,,,
349832,001,2022-11-20_17h49.41.937,Info_measure_main_exp,2022.2.2,MacIntel,59.95203837,,,,,,,,,,,,,,,,,,masks/mask_005.jpg,,,,,,,,,,,,,,,,,,,,,,,,,,,,,,,,,,,,,,,,,,,0,2,2,4,1,,,,,,,,,,,,,,,,,,,,,,,,,,,,,,,,,,,,,,,,,,,,,,
349832,001,2022-11-20_17h49.41.937,Info_measure_main_exp,2022.2.2,MacIntel,59.95203837,,,,,,,,,,,,,,,,,,masks/mask_002.jpg,,,,,,,,,,,,,,,,,,,,,,,,,,,,,,,,,,,,,,,,,,,0,3,3,1,1,,,,,,,,,,,,,,,,,,,,,,,,,,,,,,,,,,,,,,,,,,,,,,
349832,001,2022-11-20_17h49.41.937,Info_measure_main_exp,2022.2.2,MacIntel,59.95203837,,,,,,,,,,,,,,,,,,masks/mask_001.jpg,,,,,,,,,,,,,,,,,,,,,,,,,,,,,,,,,,,,,,,,,,,0,4,4,0,1,,,,,,,,,,,,,,,,,,,,,,,,,,,,,,,,,,,,,,,,,,,,,,
349832,001,2022-11-20_17h49.41.937,Info_measure_main_exp,2022.2.2,MacIntel,59.95203837,,,,,,,,,,,,,,,,,,masks/mask_005.jpg,,,,,,,,,,,,,,,,,,,,,,,,,,,,,,,,,,,,,,,,,,,,,,,,0,0,0,4,1,,,,,,,,,,,,,,,,,,,,,,,,,,,,,,,,,,,,,,,,,
349832,001,2022-11-20_17h49.41.937,Info_measure_main_exp,2022.2.2,MacIntel,59.95203837,,,,,,,,,,,,,,,,,,masks/mask_002.jpg,,,,,,,,,,,,,,,,,,,,,,,,,,,,,,,,,,,,,,,,,,,,,,,,0,1,1,1,1,,,,,,,,,,,,,,,,,,,,,,,,,,,,,,,,,,,,,,,,,
349832,001,2022-11-20_17h49.41.937,Info_measure_main_exp,2022.2.2,MacIntel,59.95203837,,,,,,,,,,,,,,,,,,masks/mask_003.jpg,,,,,,,,,,,,,,,,,,,,,,,,,,,,,,,,,,,,,,,,,,,,,,,,0,2,2,2,1,,,,,,,,,,,,,,,,,,,,,,,,,,,,,,,,,,,,,,,,,
349832,001,2022-11-20_17h49.41.937,Info_measure_main_exp,2022.2.2,MacIntel,59.95203837,,,,,,,,,,,,,,,,,,masks/mask_001.jpg,,,,,,,,,,,,,,,,,,,,,,,,,,,,,,,,,,,,,,,,,,,,,,,,0,3,3,0,1,,,,,,,,,,,,,,,,,,,,,,,,,,,,,,,,,,,,,,,,,
349832,001,2022-11-20_17h49.41.937,Info_measure_main_exp,2022.2.2,MacIntel,59.95203837,,,,,,,,,,,,,,,,,,masks/mask_004.jpg,,,,,,,,,,,,,,,,,,,,,,,,,,,,,,,,,,,,,,,,,,,,,,,,0,4,4,3,1,,,,,,,,,,,,,,,,,,,,,,,,,,,,,,,,,,,,,,,,,
349832,001,2022-11-20_17h49.41.937,Info_measure_main_exp,2022.2.2,MacIntel,59.95203837,,,,,,,,,,,,,,,,,,,,,,,,,,,,,,3,6.429,1,,,,,,,,,,,,0,131,5,5,1950,2178,absent_patch/patch0001950.jpg,absent_patch/patch0002178.jpg,,,,,,,,,,,,,,,,,,,,-0.076666667,-0.103333333,1,0,0,response5disk,19,-0.002222222,-0.007777778,1,0,0,center_square,0,18,18,61,1,,,,,,,,,,,,,,,,,,,,,,,
349832,001,2022-11-20_17h49.41.937,Info_measure_main_exp,2022.2.2,MacIntel,59.95203837,,,,,,,,,,,,,,,,,,masks/mask_002.jpg,,,,,,,,,,,,,,,,,,,,,,,,,,,,,,,,,,,,,,,,,,,0,0,0,1,1,,,,,,,,,,,,,,,,,,,,,,,,,,,,,,,,,,,,,,,,,,,,,,
349832,001,2022-11-20_17h49.41.937,Info_measure_main_exp,2022.2.2,MacIntel,59.95203837,,,,,,,,,,,,,,,,,,masks/mask_005.jpg,,,,,,,,,,,,,,,,,,,,,,,,,,,,,,,,,,,,,,,,,,,0,1,1,4,1,,,,,,,,,,,,,,,,,,,,,,,,,,,,,,,,,,,,,,,,,,,,,,
349832,001,2022-11-20_17h49.41.937,Info_measure_main_exp,2022.2.2,MacIntel,59.95203837,,,,,,,,,,,,,,,,,,masks/mask_003.jpg,,,,,,,,,,,,,,,,,,,,,,,,,,,,,,,,,,,,,,,,,,,0,2,2,2,1,,,,,,,,,,,,,,,,,,,,,,,,,,,,,,,,,,,,,,,,,,,,,,
349832,001,2022-11-20_17h49.41.937,Info_measure_main_exp,2022.2.2,MacIntel,59.95203837,,,,,,,,,,,,,,,,,,masks/mask_001.jpg,,,,,,,,,,,,,,,,,,,,,,,,,,,,,,,,,,,,,,,,,,,0,3,3,0,1,,,,,,,,,,,,,,,,,,,,,,,,,,,,,,,,,,,,,,,,,,,,,,
349832,001,2022-11-20_17h49.41.937,Info_measure_main_exp,2022.2.2,MacIntel,59.95203837,,,,,,,,,,,,,,,,,,masks/mask_004.jpg,,,,,,,,,,,,,,,,,,,,,,,,,,,,,,,,,,,,,,,,,,,0,4,4,3,1,,,,,,,,,,,,,,,,,,,,,,,,,,,,,,,,,,,,,,,,,,,,,,
349832,001,2022-11-20_17h49.41.937,Info_measure_main_exp,2022.2.2,MacIntel,59.95203837,,,,,,,,,,,,,,,,,,masks/mask_002.jpg,,,,,,,,,,,,,,,,,,,,,,,,,,,,,,,,,,,,,,,,,,,,,,,,0,0,0,1,1,,,,,,,,,,,,,,,,,,,,,,,,,,,,,,,,,,,,,,,,,
349832,001,2022-11-20_17h49.41.937,Info_measure_main_exp,2022.2.2,MacIntel,59.95203837,,,,,,,,,,,,,,,,,,masks/mask_004.jpg,,,,,,,,,,,,,,,,,,,,,,,,,,,,,,,,,,,,,,,,,,,,,,,,0,1,1,3,1,,,,,,,,,,,,,,,,,,,,,,,,,,,,,,,,,,,,,,,,,
349832,001,2022-11-20_17h49.41.937,Info_measure_main_exp,2022.2.2,MacIntel,59.95203837,,,,,,,,,,,,,,,,,,masks/mask_005.jpg,,,,,,,,,,,,,,,,,,,,,,,,,,,,,,,,,,,,,,,,,,,,,,,,0,2,2,4,1,,,,,,,,,,,,,,,,,,,,,,,,,,,,,,,,,,,,,,,,,
349832,001,2022-11-20_17h49.41.937,Info_measure_main_exp,2022.2.2,MacIntel,59.95203837,,,,,,,,,,,,,,,,,,masks/mask_003.jpg,,,,,,,,,,,,,,,,,,,,,,,,,,,,,,,,,,,,,,,,,,,,,,,,0,3,3,2,1,,,,,,,,,,,,,,,,,,,,,,,,,,,,,,,,,,,,,,,,,
349832,001,2022-11-20_17h49.41.937,Info_measure_main_exp,2022.2.2,MacIntel,59.95203837,,,,,,,,,,,,,,,,,,masks/mask_001.jpg,,,,,,,,,,,,,,,,,,,,,,,,,,,,,,,,,,,,,,,,,,,,,,,,0,4,4,0,1,,,,,,,,,,,,,,,,,,,,,,,,,,,,,,,,,,,,,,,,,
349832,001,2022-11-20_17h49.41.937,Info_measure_main_exp,2022.2.2,MacIntel,59.95203837,,,,,,,,,,,,,,,,,,,,,,,,,,,,,,6,0.898,1,,,,,,,,,,,,0,131,5,5,2250,1950,absent_patch/patch0002250.jpg,absent_patch/patch0001950.jpg,,,,,,,,,,,,,,,,,,,,0.157777778,0.025555556,1,0,0,response1disk,20,-0.006666667,0.001111111,1,0,0,center_square,0,19,19,16,1,,,,,,,,,,,,,,,,,,,,,,,
349832,001,2022-11-20_17h49.41.937,Info_measure_main_exp,2022.2.2,MacIntel,59.95203837,,,,,,,,,,,,,,,,,,masks/mask_004.jpg,,,,,,,,,,,,,,,,,,,,,,,,,,,,,,,,,,,,,,,,,,,0,0,0,3,1,,,,,,,,,,,,,,,,,,,,,,,,,,,,,,,,,,,,,,,,,,,,,,
349832,001,2022-11-20_17h49.41.937,Info_measure_main_exp,2022.2.2,MacIntel,59.95203837,,,,,,,,,,,,,,,,,,masks/mask_003.jpg,,,,,,,,,,,,,,,,,,,,,,,,,,,,,,,,,,,,,,,,,,,0,1,1,2,1,,,,,,,,,,,,,,,,,,,,,,,,,,,,,,,,,,,,,,,,,,,,,,
349832,001,2022-11-20_17h49.41.937,Info_measure_main_exp,2022.2.2,MacIntel,59.95203837,,,,,,,,,,,,,,,,,,masks/mask_005.jpg,,,,,,,,,,,,,,,,,,,,,,,,,,,,,,,,,,,,,,,,,,,0,2,2,4,1,,,,,,,,,,,,,,,,,,,,,,,,,,,,,,,,,,,,,,,,,,,,,,
349832,001,2022-11-20_17h49.41.937,Info_measure_main_exp,2022.2.2,MacIntel,59.95203837,,,,,,,,,,,,,,,,,,masks/mask_001.jpg,,,,,,,,,,,,,,,,,,,,,,,,,,,,,,,,,,,,,,,,,,,0,3,3,0,1,,,,,,,,,,,,,,,,,,,,,,,,,,,,,,,,,,,,,,,,,,,,,,
349832,001,2022-11-20_17h49.41.937,Info_measure_main_exp,2022.2.2,MacIntel,59.95203837,,,,,,,,,,,,,,,,,,masks/mask_002.jpg,,,,,,,,,,,,,,,,,,,,,,,,,,,,,,,,,,,,,,,,,,,0,4,4,1,1,,,,,,,,,,,,,,,,,,,,,,,,,,,,,,,,,,,,,,,,,,,,,,
349832,001,2022-11-20_17h49.41.937,Info_measure_main_exp,2022.2.2,MacIntel,59.95203837,,,,,,,,,,,,,,,,,,masks/mask_005.jpg,,,,,,,,,,,,,,,,,,,,,,,,,,,,,,,,,,,,,,,,,,,,,,,,0,0,0,4,1,,,,,,,,,,,,,,,,,,,,,,,,,,,,,,,,,,,,,,,,,
349832,001,2022-11-20_17h49.41.937,Info_measure_main_exp,2022.2.2,MacIntel,59.95203837,,,,,,,,,,,,,,,,,,masks/mask_003.jpg,,,,,,,,,,,,,,,,,,,,,,,,,,,,,,,,,,,,,,,,,,,,,,,,0,1,1,2,1,,,,,,,,,,,,,,,,,,,,,,,,,,,,,,,,,,,,,,,,,
349832,001,2022-11-20_17h49.41.937,Info_measure_main_exp,2022.2.2,MacIntel,59.95203837,,,,,,,,,,,,,,,,,,masks/mask_002.jpg,,,,,,,,,,,,,,,,,,,,,,,,,,,,,,,,,,,,,,,,,,,,,,,,0,2,2,1,1,,,,,,,,,,,,,,,,,,,,,,,,,,,,,,,,,,,,,,,,,
349832,001,2022-11-20_17h49.41.937,Info_measure_main_exp,2022.2.2,MacIntel,59.95203837,,,,,,,,,,,,,,,,,,masks/mask_004.jpg,,,,,,,,,,,,,,,,,,,,,,,,,,,,,,,,,,,,,,,,,,,,,,,,0,3,3,3,1,,,,,,,,,,,,,,,,,,,,,,,,,,,,,,,,,,,,,,,,,
349832,001,2022-11-20_17h49.41.937,Info_measure_main_exp,2022.2.2,MacIntel,59.95203837,,,,,,,,,,,,,,,,,,masks/mask_001.jpg,,,,,,,,,,,,,,,,,,,,,,,,,,,,,,,,,,,,,,,,,,,,,,,,0,4,4,0,1,,,,,,,,,,,,,,,,,,,,,,,,,,,,,,,,,,,,,,,,,
349832,001,2022-11-20_17h49.41.937,Info_measure_main_exp,2022.2.2,MacIntel,59.95203837,,,,,,,,,,,,,,,,,,,,,,,,,,,,,,2,1.967,1,,,,,,,,,,,,1,131,5,5,1,1986,present_patch/cong_131_5_a.jpg,absent_patch/patch0001986.jpg,,,,,,,,,,,,,,,,,,,,-0.134444444,-0.034444444,1,0,0,response5disk,21,-0.004444444,-0.005555556,1,0,0,center_square,0,20,20,106,1,,,,,,,,,,,,,,,,,,,,,,,
349832,001,2022-11-20_17h49.41.937,Info_measure_main_exp,2022.2.2,MacIntel,59.95203837,,,,,,,,,,,,,,,,,,masks/mask_002.jpg,,,,,,,,,,,,,,,,,,,,,,,,,,,,,,,,,,,,,,,,,,,0,0,0,1,1,,,,,,,,,,,,,,,,,,,,,,,,,,,,,,,,,,,,,,,,,,,,,,
349832,001,2022-11-20_17h49.41.937,Info_measure_main_exp,2022.2.2,MacIntel,59.95203837,,,,,,,,,,,,,,,,,,masks/mask_004.jpg,,,,,,,,,,,,,,,,,,,,,,,,,,,,,,,,,,,,,,,,,,,0,1,1,3,1,,,,,,,,,,,,,,,,,,,,,,,,,,,,,,,,,,,,,,,,,,,,,,
349832,001,2022-11-20_17h49.41.937,Info_measure_main_exp,2022.2.2,MacIntel,59.95203837,,,,,,,,,,,,,,,,,,masks/mask_005.jpg,,,,,,,,,,,,,,,,,,,,,,,,,,,,,,,,,,,,,,,,,,,0,2,2,4,1,,,,,,,,,,,,,,,,,,,,,,,,,,,,,,,,,,,,,,,,,,,,,,
349832,001,2022-11-20_17h49.41.937,Info_measure_main_exp,2022.2.2,MacIntel,59.95203837,,,,,,,,,,,,,,,,,,masks/mask_003.jpg,,,,,,,,,,,,,,,,,,,,,,,,,,,,,,,,,,,,,,,,,,,0,3,3,2,1,,,,,,,,,,,,,,,,,,,,,,,,,,,,,,,,,,,,,,,,,,,,,,
349832,001,2022-11-20_17h49.41.937,Info_measure_main_exp,2022.2.2,MacIntel,59.95203837,,,,,,,,,,,,,,,,,,masks/mask_001.jpg,,,,,,,,,,,,,,,,,,,,,,,,,,,,,,,,,,,,,,,,,,,0,4,4,0,1,,,,,,,,,,,,,,,,,,,,,,,,,,,,,,,,,,,,,,,,,,,,,,
349832,001,2022-11-20_17h49.41.937,Info_measure_main_exp,2022.2.2,MacIntel,59.95203837,,,,,,,,,,,,,,,,,,masks/mask_005.jpg,,,,,,,,,,,,,,,,,,,,,,,,,,,,,,,,,,,,,,,,,,,,,,,,0,0,0,4,1,,,,,,,,,,,,,,,,,,,,,,,,,,,,,,,,,,,,,,,,,
349832,001,2022-11-20_17h49.41.937,Info_measure_main_exp,2022.2.2,MacIntel,59.95203837,,,,,,,,,,,,,,,,,,masks/mask_004.jpg,,,,,,,,,,,,,,,,,,,,,,,,,,,,,,,,,,,,,,,,,,,,,,,,0,1,1,3,1,,,,,,,,,,,,,,,,,,,,,,,,,,,,,,,,,,,,,,,,,
349832,001,2022-11-20_17h49.41.937,Info_measure_main_exp,2022.2.2,MacIntel,59.95203837,,,,,,,,,,,,,,,,,,masks/mask_003.jpg,,,,,,,,,,,,,,,,,,,,,,,,,,,,,,,,,,,,,,,,,,,,,,,,0,2,2,2,1,,,,,,,,,,,,,,,,,,,,,,,,,,,,,,,,,,,,,,,,,
349832,001,2022-11-20_17h49.41.937,Info_measure_main_exp,2022.2.2,MacIntel,59.95203837,,,,,,,,,,,,,,,,,,masks/mask_001.jpg,,,,,,,,,,,,,,,,,,,,,,,,,,,,,,,,,,,,,,,,,,,,,,,,0,3,3,0,1,,,,,,,,,,,,,,,,,,,,,,,,,,,,,,,,,,,,,,,,,
349832,001,2022-11-20_17h49.41.937,Info_measure_main_exp,2022.2.2,MacIntel,59.95203837,,,,,,,,,,,,,,,,,,masks/mask_002.jpg,,,,,,,,,,,,,,,,,,,,,,,,,,,,,,,,,,,,,,,,,,,,,,,,0,4,4,1,1,,,,,,,,,,,,,,,,,,,,,,,,,,,,,,,,,,,,,,,,,
349832,001,2022-11-20_17h49.41.937,Info_measure_main_exp,2022.2.2,MacIntel,59.95203837,,,,,,,,,,,,,,,,,,,,,,,,,,,,,,6,0.801,1,,,,,,,,,,,,0,131,5,5,2190,2166,absent_patch/patch0002190.jpg,absent_patch/patch0002166.jpg,,,,,,,,,,,,,,,,,,,,0.127777778,0.014444444,1,0,0,response1disk,22,0.005555556,0.006666667,1,0,0,center_square,0,21,21,50,1,,,,,,,,,,,,,,,,,,,,,,,
349832,001,2022-11-20_17h49.41.937,Info_measure_main_exp,2022.2.2,MacIntel,59.95203837,,,,,,,,,,,,,,,,,,masks/mask_001.jpg,,,,,,,,,,,,,,,,,,,,,,,,,,,,,,,,,,,,,,,,,,,0,0,0,0,1,,,,,,,,,,,,,,,,,,,,,,,,,,,,,,,,,,,,,,,,,,,,,,
349832,001,2022-11-20_17h49.41.937,Info_measure_main_exp,2022.2.2,MacIntel,59.95203837,,,,,,,,,,,,,,,,,,masks/mask_004.jpg,,,,,,,,,,,,,,,,,,,,,,,,,,,,,,,,,,,,,,,,,,,0,1,1,3,1,,,,,,,,,,,,,,,,,,,,,,,,,,,,,,,,,,,,,,,,,,,,,,
349832,001,2022-11-20_17h49.41.937,Info_measure_main_exp,2022.2.2,MacIntel,59.95203837,,,,,,,,,,,,,,,,,,masks/mask_002.jpg,,,,,,,,,,,,,,,,,,,,,,,,,,,,,,,,,,,,,,,,,,,0,2,2,1,1,,,,,,,,,,,,,,,,,,,,,,,,,,,,,,,,,,,,,,,,,,,,,,
349832,001,2022-11-20_17h49.41.937,Info_measure_main_exp,2022.2.2,MacIntel,59.95203837,,,,,,,,,,,,,,,,,,masks/mask_003.jpg,,,,,,,,,,,,,,,,,,,,,,,,,,,,,,,,,,,,,,,,,,,0,3,3,2,1,,,,,,,,,,,,,,,,,,,,,,,,,,,,,,,,,,,,,,,,,,,,,,
349832,001,2022-11-20_17h49.41.937,Info_measure_main_exp,2022.2.2,MacIntel,59.95203837,,,,,,,,,,,,,,,,,,masks/mask_005.jpg,,,,,,,,,,,,,,,,,,,,,,,,,,,,,,,,,,,,,,,,,,,0,4,4,4,1,,,,,,,,,,,,,,,,,,,,,,,,,,,,,,,,,,,,,,,,,,,,,,
349832,001,2022-11-20_17h49.41.937,Info_measure_main_exp,2022.2.2,MacIntel,59.95203837,,,,,,,,,,,,,,,,,,masks/mask_004.jpg,,,,,,,,,,,,,,,,,,,,,,,,,,,,,,,,,,,,,,,,,,,,,,,,0,0,0,3,1,,,,,,,,,,,,,,,,,,,,,,,,,,,,,,,,,,,,,,,,,
349832,001,2022-11-20_17h49.41.937,Info_measure_main_exp,2022.2.2,MacIntel,59.95203837,,,,,,,,,,,,,,,,,,masks/mask_005.jpg,,,,,,,,,,,,,,,,,,,,,,,,,,,,,,,,,,,,,,,,,,,,,,,,0,1,1,4,1,,,,,,,,,,,,,,,,,,,,,,,,,,,,,,,,,,,,,,,,,
349832,001,2022-11-20_17h49.41.937,Info_measure_main_exp,2022.2.2,MacIntel,59.95203837,,,,,,,,,,,,,,,,,,masks/mask_001.jpg,,,,,,,,,,,,,,,,,,,,,,,,,,,,,,,,,,,,,,,,,,,,,,,,0,2,2,0,1,,,,,,,,,,,,,,,,,,,,,,,,,,,,,,,,,,,,,,,,,
349832,001,2022-11-20_17h49.41.937,Info_measure_main_exp,2022.2.2,MacIntel,59.95203837,,,,,,,,,,,,,,,,,,masks/mask_002.jpg,,,,,,,,,,,,,,,,,,,,,,,,,,,,,,,,,,,,,,,,,,,,,,,,0,3,3,1,1,,,,,,,,,,,,,,,,,,,,,,,,,,,,,,,,,,,,,,,,,
349832,001,2022-11-20_17h49.41.937,Info_measure_main_exp,2022.2.2,MacIntel,59.95203837,,,,,,,,,,,,,,,,,,masks/mask_003.jpg,,,,,,,,,,,,,,,,,,,,,,,,,,,,,,,,,,,,,,,,,,,,,,,,0,4,4,2,1,,,,,,,,,,,,,,,,,,,,,,,,,,,,,,,,,,,,,,,,,
349832,001,2022-11-20_17h49.41.937,Info_measure_main_exp,2022.2.2,MacIntel,59.95203837,,,,,,,,,,,,,,,,,,,,,,,,,,,,,,0,0.799,1,,,,,,,,,,,,0,131,5,5,1986,1986,absent_patch/patch0001986.jpg,absent_patch/patch0001986.jpg,,,,,,,,,,,,,,,,,,,,-0.076666667,0.135555556,1,0,0,response7disk,23,-0.002222222,0.003333333,1,0,0,center_square,0,22,22,19,1,,,,,,,,,,,,,,,,,,,,,,,
349832,001,2022-11-20_17h49.41.937,Info_measure_main_exp,2022.2.2,MacIntel,59.95203837,,,,,,,,,,,,,,,,,,masks/mask_004.jpg,,,,,,,,,,,,,,,,,,,,,,,,,,,,,,,,,,,,,,,,,,,0,0,0,3,1,,,,,,,,,,,,,,,,,,,,,,,,,,,,,,,,,,,,,,,,,,,,,,
349832,001,2022-11-20_17h49.41.937,Info_measure_main_exp,2022.2.2,MacIntel,59.95203837,,,,,,,,,,,,,,,,,,masks/mask_002.jpg,,,,,,,,,,,,,,,,,,,,,,,,,,,,,,,,,,,,,,,,,,,0,1,1,1,1,,,,,,,,,,,,,,,,,,,,,,,,,,,,,,,,,,,,,,,,,,,,,,
349832,001,2022-11-20_17h49.41.937,Info_measure_main_exp,2022.2.2,MacIntel,59.95203837,,,,,,,,,,,,,,,,,,masks/mask_005.jpg,,,,,,,,,,,,,,,,,,,,,,,,,,,,,,,,,,,,,,,,,,,0,2,2,4,1,,,,,,,,,,,,,,,,,,,,,,,,,,,,,,,,,,,,,,,,,,,,,,
349832,001,2022-11-20_17h49.41.937,Info_measure_main_exp,2022.2.2,MacIntel,59.95203837,,,,,,,,,,,,,,,,,,masks/mask_001.jpg,,,,,,,,,,,,,,,,,,,,,,,,,,,,,,,,,,,,,,,,,,,0,3,3,0,1,,,,,,,,,,,,,,,,,,,,,,,,,,,,,,,,,,,,,,,,,,,,,,
349832,001,2022-11-20_17h49.41.937,Info_measure_main_exp,2022.2.2,MacIntel,59.95203837,,,,,,,,,,,,,,,,,,masks/mask_003.jpg,,,,,,,,,,,,,,,,,,,,,,,,,,,,,,,,,,,,,,,,,,,0,4,4,2,1,,,,,,,,,,,,,,,,,,,,,,,,,,,,,,,,,,,,,,,,,,,,,,
349832,001,2022-11-20_17h49.41.937,Info_measure_main_exp,2022.2.2,MacIntel,59.95203837,,,,,,,,,,,,,,,,,,masks/mask_005.jpg,,,,,,,,,,,,,,,,,,,,,,,,,,,,,,,,,,,,,,,,,,,,,,,,0,0,0,4,1,,,,,,,,,,,,,,,,,,,,,,,,,,,,,,,,,,,,,,,,,
349832,001,2022-11-20_17h49.41.937,Info_measure_main_exp,2022.2.2,MacIntel,59.95203837,,,,,,,,,,,,,,,,,,masks/mask_004.jpg,,,,,,,,,,,,,,,,,,,,,,,,,,,,,,,,,,,,,,,,,,,,,,,,0,1,1,3,1,,,,,,,,,,,,,,,,,,,,,,,,,,,,,,,,,,,,,,,,,
349832,001,2022-11-20_17h49.41.937,Info_measure_main_exp,2022.2.2,MacIntel,59.95203837,,,,,,,,,,,,,,,,,,masks/mask_003.jpg,,,,,,,,,,,,,,,,,,,,,,,,,,,,,,,,,,,,,,,,,,,,,,,,0,2,2,2,1,,,,,,,,,,,,,,,,,,,,,,,,,,,,,,,,,,,,,,,,,
349832,001,2022-11-20_17h49.41.937,Info_measure_main_exp,2022.2.2,MacIntel,59.95203837,,,,,,,,,,,,,,,,,,masks/mask_002.jpg,,,,,,,,,,,,,,,,,,,,,,,,,,,,,,,,,,,,,,,,,,,,,,,,0,3,3,1,1,,,,,,,,,,,,,,,,,,,,,,,,,,,,,,,,,,,,,,,,,
349832,001,2022-11-20_17h49.41.937,Info_measure_main_exp,2022.2.2,MacIntel,59.95203837,,,,,,,,,,,,,,,,,,masks/mask_001.jpg,,,,,,,,,,,,,,,,,,,,,,,,,,,,,,,,,,,,,,,,,,,,,,,,0,4,4,0,1,,,,,,,,,,,,,,,,,,,,,,,,,,,,,,,,,,,,,,,,,
349832,001,2022-11-20_17h49.41.937,Info_measure_main_exp,2022.2.2,MacIntel,59.95203837,,,,,,,,,,,,,,,,,,,,,,,,,,,,,,1,1.109,1,,,,,,,,,,,,0,131,5,5,2298,2190,absent_patch/patch0002298.jpg,absent_patch/patch0002190.jpg,,,,,,,,,,,,,,,,,,,,-0.13,0.037777778,1,0,0,response7disk,24,-0.004444444,0.003333333,1,0,0,center_square,0,23,23,20,1,,,,,,,,,,,,,,,,,,,,,,,
349832,001,2022-11-20_17h49.41.937,Info_measure_main_exp,2022.2.2,MacIntel,59.95203837,,,,,,,,,,,,,,,,,,masks/mask_005.jpg,,,,,,,,,,,,,,,,,,,,,,,,,,,,,,,,,,,,,,,,,,,0,0,0,4,1,,,,,,,,,,,,,,,,,,,,,,,,,,,,,,,,,,,,,,,,,,,,,,
349832,001,2022-11-20_17h49.41.937,Info_measure_main_exp,2022.2.2,MacIntel,59.95203837,,,,,,,,,,,,,,,,,,masks/mask_004.jpg,,,,,,,,,,,,,,,,,,,,,,,,,,,,,,,,,,,,,,,,,,,0,1,1,3,1,,,,,,,,,,,,,,,,,,,,,,,,,,,,,,,,,,,,,,,,,,,,,,
349832,001,2022-11-20_17h49.41.937,Info_measure_main_exp,2022.2.2,MacIntel,59.95203837,,,,,,,,,,,,,,,,,,masks/mask_002.jpg,,,,,,,,,,,,,,,,,,,,,,,,,,,,,,,,,,,,,,,,,,,0,2,2,1,1,,,,,,,,,,,,,,,,,,,,,,,,,,,,,,,,,,,,,,,,,,,,,,
349832,001,2022-11-20_17h49.41.937,Info_measure_main_exp,2022.2.2,MacIntel,59.95203837,,,,,,,,,,,,,,,,,,masks/mask_003.jpg,,,,,,,,,,,,,,,,,,,,,,,,,,,,,,,,,,,,,,,,,,,0,3,3,2,1,,,,,,,,,,,,,,,,,,,,,,,,,,,,,,,,,,,,,,,,,,,,,,
349832,001,2022-11-20_17h49.41.937,Info_measure_main_exp,2022.2.2,MacIntel,59.95203837,,,,,,,,,,,,,,,,,,masks/mask_001.jpg,,,,,,,,,,,,,,,,,,,,,,,,,,,,,,,,,,,,,,,,,,,0,4,4,0,1,,,,,,,,,,,,,,,,,,,,,,,,,,,,,,,,,,,,,,,,,,,,,,
349832,001,2022-11-20_17h49.41.937,Info_measure_main_exp,2022.2.2,MacIntel,59.95203837,,,,,,,,,,,,,,,,,,masks/mask_001.jpg,,,,,,,,,,,,,,,,,,,,,,,,,,,,,,,,,,,,,,,,,,,,,,,,0,0,0,0,1,,,,,,,,,,,,,,,,,,,,,,,,,,,,,,,,,,,,,,,,,
349832,001,2022-11-20_17h49.41.937,Info_measure_main_exp,2022.2.2,MacIntel,59.95203837,,,,,,,,,,,,,,,,,,masks/mask_003.jpg,,,,,,,,,,,,,,,,,,,,,,,,,,,,,,,,,,,,,,,,,,,,,,,,0,1,1,2,1,,,,,,,,,,,,,,,,,,,,,,,,,,,,,,,,,,,,,,,,,
349832,001,2022-11-20_17h49.41.937,Info_measure_main_exp,2022.2.2,MacIntel,59.95203837,,,,,,,,,,,,,,,,,,masks/mask_005.jpg,,,,,,,,,,,,,,,,,,,,,,,,,,,,,,,,,,,,,,,,,,,,,,,,0,2,2,4,1,,,,,,,,,,,,,,,,,,,,,,,,,,,,,,,,,,,,,,,,,
349832,001,2022-11-20_17h49.41.937,Info_measure_main_exp,2022.2.2,MacIntel,59.95203837,,,,,,,,,,,,,,,,,,masks/mask_002.jpg,,,,,,,,,,,,,,,,,,,,,,,,,,,,,,,,,,,,,,,,,,,,,,,,0,3,3,1,1,,,,,,,,,,,,,,,,,,,,,,,,,,,,,,,,,,,,,,,,,
349832,001,2022-11-20_17h49.41.937,Info_measure_main_exp,2022.2.2,MacIntel,59.95203837,,,,,,,,,,,,,,,,,,masks/mask_004.jpg,,,,,,,,,,,,,,,,,,,,,,,,,,,,,,,,,,,,,,,,,,,,,,,,0,4,4,3,1,,,,,,,,,,,,,,,,,,,,,,,,,,,,,,,,,,,,,,,,,
349832,001,2022-11-20_17h49.41.937,Info_measure_main_exp,2022.2.2,MacIntel,59.95203837,,,,,,,,,,,,,,,,,,,,,,,,,,,,,,5,1.398,1,,,,,,,,,,,,0,131,5,5,2178,2166,absent_patch/patch0002178.jpg,absent_patch/patch0002166.jpg,,,,,,,,,,,,,,,,,,,,0.131111111,-0.041111111,1,0,0,response3disk,25,-0.004444444,0.008888889,1,0,0,center_square,0,24,24,72,1,,,,,,,,,,,,,,,,,,,,,,,
349832,001,2022-11-20_17h49.41.937,Info_measure_main_exp,2022.2.2,MacIntel,59.95203837,,,,,,,,,,,,,,,,,,masks/mask_003.jpg,,,,,,,,,,,,,,,,,,,,,,,,,,,,,,,,,,,,,,,,,,,0,0,0,2,1,,,,,,,,,,,,,,,,,,,,,,,,,,,,,,,,,,,,,,,,,,,,,,
349832,001,2022-11-20_17h49.41.937,Info_measure_main_exp,2022.2.2,MacIntel,59.95203837,,,,,,,,,,,,,,,,,,masks/mask_005.jpg,,,,,,,,,,,,,,,,,,,,,,,,,,,,,,,,,,,,,,,,,,,0,1,1,4,1,,,,,,,,,,,,,,,,,,,,,,,,,,,,,,,,,,,,,,,,,,,,,,
349832,001,2022-11-20_17h49.41.937,Info_measure_main_exp,2022.2.2,MacIntel,59.95203837,,,,,,,,,,,,,,,,,,masks/mask_004.jpg,,,,,,,,,,,,,,,,,,,,,,,,,,,,,,,,,,,,,,,,,,,0,2,2,3,1,,,,,,,,,,,,,,,,,,,,,,,,,,,,,,,,,,,,,,,,,,,,,,
349832,001,2022-11-20_17h49.41.937,Info_measure_main_exp,2022.2.2,MacIntel,59.95203837,,,,,,,,,,,,,,,,,,masks/mask_002.jpg,,,,,,,,,,,,,,,,,,,,,,,,,,,,,,,,,,,,,,,,,,,0,3,3,1,1,,,,,,,,,,,,,,,,,,,,,,,,,,,,,,,,,,,,,,,,,,,,,,
349832,001,2022-11-20_17h49.41.937,Info_measure_main_exp,2022.2.2,MacIntel,59.95203837,,,,,,,,,,,,,,,,,,masks/mask_001.jpg,,,,,,,,,,,,,,,,,,,,,,,,,,,,,,,,,,,,,,,,,,,0,4,4,0,1,,,,,,,,,,,,,,,,,,,,,,,,,,,,,,,,,,,,,,,,,,,,,,
349832,001,2022-11-20_17h49.41.937,Info_measure_main_exp,2022.2.2,MacIntel,59.95203837,,,,,,,,,,,,,,,,,,masks/mask_005.jpg,,,,,,,,,,,,,,,,,,,,,,,,,,,,,,,,,,,,,,,,,,,,,,,,0,0,0,4,1,,,,,,,,,,,,,,,,,,,,,,,,,,,,,,,,,,,,,,,,,
349832,001,2022-11-20_17h49.41.937,Info_measure_main_exp,2022.2.2,MacIntel,59.95203837,,,,,,,,,,,,,,,,,,masks/mask_001.jpg,,,,,,,,,,,,,,,,,,,,,,,,,,,,,,,,,,,,,,,,,,,,,,,,0,1,1,0,1,,,,,,,,,,,,,,,,,,,,,,,,,,,,,,,,,,,,,,,,,
349832,001,2022-11-20_17h49.41.937,Info_measure_main_exp,2022.2.2,MacIntel,59.95203837,,,,,,,,,,,,,,,,,,masks/mask_003.jpg,,,,,,,,,,,,,,,,,,,,,,,,,,,,,,,,,,,,,,,,,,,,,,,,0,2,2,2,1,,,,,,,,,,,,,,,,,,,,,,,,,,,,,,,,,,,,,,,,,
349832,001,2022-11-20_17h49.41.937,Info_measure_main_exp,2022.2.2,MacIntel,59.95203837,,,,,,,,,,,,,,,,,,masks/mask_004.jpg,,,,,,,,,,,,,,,,,,,,,,,,,,,,,,,,,,,,,,,,,,,,,,,,0,3,3,3,1,,,,,,,,,,,,,,,,,,,,,,,,,,,,,,,,,,,,,,,,,
349832,001,2022-11-20_17h49.41.937,Info_measure_main_exp,2022.2.2,MacIntel,59.95203837,,,,,,,,,,,,,,,,,,masks/mask_002.jpg,,,,,,,,,,,,,,,,,,,,,,,,,,,,,,,,,,,,,,,,,,,,,,,,0,4,4,1,1,,,,,,,,,,,,,,,,,,,,,,,,,,,,,,,,,,,,,,,,,
349832,001,2022-11-20_17h49.41.937,Info_measure_main_exp,2022.2.2,MacIntel,59.95203837,,,,,,,,,,,,,,,,,,,,,,,,,,,,,,7,0.533,1,,,,,,,,,,,,0,131,5,5,2274,2178,absent_patch/patch0002274.jpg,absent_patch/patch0002178.jpg,,,,,,,,,,,,,,,,,,,,0.053333333,0.137777778,1,0,0,response1disk,26,0.003333333,0.013333333,1,0,0,center_square,0,25,25,117,1,,,,,,,,,,,,,,,,,,,,,,,
349832,001,2022-11-20_17h49.41.937,Info_measure_main_exp,2022.2.2,MacIntel,59.95203837,,,,,,,,,,,,,,,,,,masks/mask_005.jpg,,,,,,,,,,,,,,,,,,,,,,,,,,,,,,,,,,,,,,,,,,,0,0,0,4,1,,,,,,,,,,,,,,,,,,,,,,,,,,,,,,,,,,,,,,,,,,,,,,
349832,001,2022-11-20_17h49.41.937,Info_measure_main_exp,2022.2.2,MacIntel,59.95203837,,,,,,,,,,,,,,,,,,masks/mask_003.jpg,,,,,,,,,,,,,,,,,,,,,,,,,,,,,,,,,,,,,,,,,,,0,1,1,2,1,,,,,,,,,,,,,,,,,,,,,,,,,,,,,,,,,,,,,,,,,,,,,,
349832,001,2022-11-20_17h49.41.937,Info_measure_main_exp,2022.2.2,MacIntel,59.95203837,,,,,,,,,,,,,,,,,,masks/mask_001.jpg,,,,,,,,,,,,,,,,,,,,,,,,,,,,,,,,,,,,,,,,,,,0,2,2,0,1,,,,,,,,,,,,,,,,,,,,,,,,,,,,,,,,,,,,,,,,,,,,,,
349832,001,2022-11-20_17h49.41.937,Info_measure_main_exp,2022.2.2,MacIntel,59.95203837,,,,,,,,,,,,,,,,,,masks/mask_002.jpg,,,,,,,,,,,,,,,,,,,,,,,,,,,,,,,,,,,,,,,,,,,0,3,3,1,1,,,,,,,,,,,,,,,,,,,,,,,,,,,,,,,,,,,,,,,,,,,,,,
349832,001,2022-11-20_17h49.41.937,Info_measure_main_exp,2022.2.2,MacIntel,59.95203837,,,,,,,,,,,,,,,,,,masks/mask_004.jpg,,,,,,,,,,,,,,,,,,,,,,,,,,,,,,,,,,,,,,,,,,,0,4,4,3,1,,,,,,,,,,,,,,,,,,,,,,,,,,,,,,,,,,,,,,,,,,,,,,
349832,001,2022-11-20_17h49.41.937,Info_measure_main_exp,2022.2.2,MacIntel,59.95203837,,,,,,,,,,,,,,,,,,masks/mask_002.jpg,,,,,,,,,,,,,,,,,,,,,,,,,,,,,,,,,,,,,,,,,,,,,,,,0,0,0,1,1,,,,,,,,,,,,,,,,,,,,,,,,,,,,,,,,,,,,,,,,,
349832,001,2022-11-20_17h49.41.937,Info_measure_main_exp,2022.2.2,MacIntel,59.95203837,,,,,,,,,,,,,,,,,,masks/mask_004.jpg,,,,,,,,,,,,,,,,,,,,,,,,,,,,,,,,,,,,,,,,,,,,,,,,0,1,1,3,1,,,,,,,,,,,,,,,,,,,,,,,,,,,,,,,,,,,,,,,,,
349832,001,2022-11-20_17h49.41.937,Info_measure_main_exp,2022.2.2,MacIntel,59.95203837,,,,,,,,,,,,,,,,,,masks/mask_001.jpg,,,,,,,,,,,,,,,,,,,,,,,,,,,,,,,,,,,,,,,,,,,,,,,,0,2,2,0,1,,,,,,,,,,,,,,,,,,,,,,,,,,,,,,,,,,,,,,,,,
349832,001,2022-11-20_17h49.41.937,Info_measure_main_exp,2022.2.2,MacIntel,59.95203837,,,,,,,,,,,,,,,,,,masks/mask_005.jpg,,,,,,,,,,,,,,,,,,,,,,,,,,,,,,,,,,,,,,,,,,,,,,,,0,3,3,4,1,,,,,,,,,,,,,,,,,,,,,,,,,,,,,,,,,,,,,,,,,
349832,001,2022-11-20_17h49.41.937,Info_measure_main_exp,2022.2.2,MacIntel,59.95203837,,,,,,,,,,,,,,,,,,masks/mask_003.jpg,,,,,,,,,,,,,,,,,,,,,,,,,,,,,,,,,,,,,,,,,,,,,,,,0,4,4,2,1,,,,,,,,,,,,,,,,,,,,,,,,,,,,,,,,,,,,,,,,,
349832,001,2022-11-20_17h49.41.937,Info_measure_main_exp,2022.2.2,MacIntel,59.95203837,,,,,,,,,,,,,,,,,,,,,,,,,,,,,,6,0.915,1,,,,,,,,,,,,0,131,5,5,2082,2178,absent_patch/patch0002082.jpg,absent_patch/patch0002178.jpg,,,,,,,,,,,,,,,,,,,,0.134444444,0.054444444,1,0,0,response1disk,27,-0.003333333,-0.005555556,1,0,0,center_square,0,26,26,2,1,,,,,,,,,,,,,,,,,,,,,,,
349832,001,2022-11-20_17h49.41.937,Info_measure_main_exp,2022.2.2,MacIntel,59.95203837,,,,,,,,,,,,,,,,,,masks/mask_002.jpg,,,,,,,,,,,,,,,,,,,,,,,,,,,,,,,,,,,,,,,,,,,0,0,0,1,1,,,,,,,,,,,,,,,,,,,,,,,,,,,,,,,,,,,,,,,,,,,,,,
349832,001,2022-11-20_17h49.41.937,Info_measure_main_exp,2022.2.2,MacIntel,59.95203837,,,,,,,,,,,,,,,,,,masks/mask_001.jpg,,,,,,,,,,,,,,,,,,,,,,,,,,,,,,,,,,,,,,,,,,,0,1,1,0,1,,,,,,,,,,,,,,,,,,,,,,,,,,,,,,,,,,,,,,,,,,,,,,
349832,001,2022-11-20_17h49.41.937,Info_measure_main_exp,2022.2.2,MacIntel,59.95203837,,,,,,,,,,,,,,,,,,masks/mask_004.jpg,,,,,,,,,,,,,,,,,,,,,,,,,,,,,,,,,,,,,,,,,,,0,2,2,3,1,,,,,,,,,,,,,,,,,,,,,,,,,,,,,,,,,,,,,,,,,,,,,,
349832,001,2022-11-20_17h49.41.937,Info_measure_main_exp,2022.2.2,MacIntel,59.95203837,,,,,,,,,,,,,,,,,,masks/mask_003.jpg,,,,,,,,,,,,,,,,,,,,,,,,,,,,,,,,,,,,,,,,,,,0,3,3,2,1,,,,,,,,,,,,,,,,,,,,,,,,,,,,,,,,,,,,,,,,,,,,,,
349832,001,2022-11-20_17h49.41.937,Info_measure_main_exp,2022.2.2,MacIntel,59.95203837,,,,,,,,,,,,,,,,,,masks/mask_005.jpg,,,,,,,,,,,,,,,,,,,,,,,,,,,,,,,,,,,,,,,,,,,0,4,4,4,1,,,,,,,,,,,,,,,,,,,,,,,,,,,,,,,,,,,,,,,,,,,,,,
349832,001,2022-11-20_17h49.41.937,Info_measure_main_exp,2022.2.2,MacIntel,59.95203837,,,,,,,,,,,,,,,,,,masks/mask_004.jpg,,,,,,,,,,,,,,,,,,,,,,,,,,,,,,,,,,,,,,,,,,,,,,,,0,0,0,3,1,,,,,,,,,,,,,,,,,,,,,,,,,,,,,,,,,,,,,,,,,
349832,001,2022-11-20_17h49.41.937,Info_measure_main_exp,2022.2.2,MacIntel,59.95203837,,,,,,,,,,,,,,,,,,masks/mask_001.jpg,,,,,,,,,,,,,,,,,,,,,,,,,,,,,,,,,,,,,,,,,,,,,,,,0,1,1,0,1,,,,,,,,,,,,,,,,,,,,,,,,,,,,,,,,,,,,,,,,,
349832,001,2022-11-20_17h49.41.937,Info_measure_main_exp,2022.2.2,MacIntel,59.95203837,,,,,,,,,,,,,,,,,,masks/mask_005.jpg,,,,,,,,,,,,,,,,,,,,,,,,,,,,,,,,,,,,,,,,,,,,,,,,0,2,2,4,1,,,,,,,,,,,,,,,,,,,,,,,,,,,,,,,,,,,,,,,,,
349832,001,2022-11-20_17h49.41.937,Info_measure_main_exp,2022.2.2,MacIntel,59.95203837,,,,,,,,,,,,,,,,,,masks/mask_002.jpg,,,,,,,,,,,,,,,,,,,,,,,,,,,,,,,,,,,,,,,,,,,,,,,,0,3,3,1,1,,,,,,,,,,,,,,,,,,,,,,,,,,,,,,,,,,,,,,,,,
349832,001,2022-11-20_17h49.41.937,Info_measure_main_exp,2022.2.2,MacIntel,59.95203837,,,,,,,,,,,,,,,,,,masks/mask_003.jpg,,,,,,,,,,,,,,,,,,,,,,,,,,,,,,,,,,,,,,,,,,,,,,,,0,4,4,2,1,,,,,,,,,,,,,,,,,,,,,,,,,,,,,,,,,,,,,,,,,
349832,001,2022-11-20_17h49.41.937,Info_measure_main_exp,2022.2.2,MacIntel,59.95203837,,,,,,,,,,,,,,,,,,,,,,,,,,,,,,6,1.032,1,,,,,,,,,,,,1,131,5,5,1,1974,present_patch/cong_131_5_a.jpg,absent_patch/patch0001974.jpg,,,,,,,,,,,,,,,,,,,,0.121111111,0.058888889,1,0,0,response1disk,28,0.005555556,0.001111111,1,0,0,center_square,0,27,27,69,1,,,,,,,,,,,,,,,,,,,,,,,
349832,001,2022-11-20_17h49.41.937,Info_measure_main_exp,2022.2.2,MacIntel,59.95203837,,,,,,,,,,,,,,,,,,masks/mask_005.jpg,,,,,,,,,,,,,,,,,,,,,,,,,,,,,,,,,,,,,,,,,,,0,0,0,4,1,,,,,,,,,,,,,,,,,,,,,,,,,,,,,,,,,,,,,,,,,,,,,,
349832,001,2022-11-20_17h49.41.937,Info_measure_main_exp,2022.2.2,MacIntel,59.95203837,,,,,,,,,,,,,,,,,,masks/mask_001.jpg,,,,,,,,,,,,,,,,,,,,,,,,,,,,,,,,,,,,,,,,,,,0,1,1,0,1,,,,,,,,,,,,,,,,,,,,,,,,,,,,,,,,,,,,,,,,,,,,,,
349832,001,2022-11-20_17h49.41.937,Info_measure_main_exp,2022.2.2,MacIntel,59.95203837,,,,,,,,,,,,,,,,,,masks/mask_002.jpg,,,,,,,,,,,,,,,,,,,,,,,,,,,,,,,,,,,,,,,,,,,0,2,2,1,1,,,,,,,,,,,,,,,,,,,,,,,,,,,,,,,,,,,,,,,,,,,,,,
349832,001,2022-11-20_17h49.41.937,Info_measure_main_exp,2022.2.2,MacIntel,59.95203837,,,,,,,,,,,,,,,,,,masks/mask_003.jpg,,,,,,,,,,,,,,,,,,,,,,,,,,,,,,,,,,,,,,,,,,,0,3,3,2,1,,,,,,,,,,,,,,,,,,,,,,,,,,,,,,,,,,,,,,,,,,,,,,
349832,001,2022-11-20_17h49.41.937,Info_measure_main_exp,2022.2.2,MacIntel,59.95203837,,,,,,,,,,,,,,,,,,masks/mask_004.jpg,,,,,,,,,,,,,,,,,,,,,,,,,,,,,,,,,,,,,,,,,,,0,4,4,3,1,,,,,,,,,,,,,,,,,,,,,,,,,,,,,,,,,,,,,,,,,,,,,,
349832,001,2022-11-20_17h49.41.937,Info_measure_main_exp,2022.2.2,MacIntel,59.95203837,,,,,,,,,,,,,,,,,,masks/mask_003.jpg,,,,,,,,,,,,,,,,,,,,,,,,,,,,,,,,,,,,,,,,,,,,,,,,0,0,0,2,1,,,,,,,,,,,,,,,,,,,,,,,,,,,,,,,,,,,,,,,,,
349832,001,2022-11-20_17h49.41.937,Info_measure_main_exp,2022.2.2,MacIntel,59.95203837,,,,,,,,,,,,,,,,,,masks/mask_005.jpg,,,,,,,,,,,,,,,,,,,,,,,,,,,,,,,,,,,,,,,,,,,,,,,,0,1,1,4,1,,,,,,,,,,,,,,,,,,,,,,,,,,,,,,,,,,,,,,,,,
349832,001,2022-11-20_17h49.41.937,Info_measure_main_exp,2022.2.2,MacIntel,59.95203837,,,,,,,,,,,,,,,,,,masks/mask_001.jpg,,,,,,,,,,,,,,,,,,,,,,,,,,,,,,,,,,,,,,,,,,,,,,,,0,2,2,0,1,,,,,,,,,,,,,,,,,,,,,,,,,,,,,,,,,,,,,,,,,
349832,001,2022-11-20_17h49.41.937,Info_measure_main_exp,2022.2.2,MacIntel,59.95203837,,,,,,,,,,,,,,,,,,masks/mask_004.jpg,,,,,,,,,,,,,,,,,,,,,,,,,,,,,,,,,,,,,,,,,,,,,,,,0,3,3,3,1,,,,,,,,,,,,,,,,,,,,,,,,,,,,,,,,,,,,,,,,,
349832,001,2022-11-20_17h49.41.937,Info_measure_main_exp,2022.2.2,MacIntel,59.95203837,,,,,,,,,,,,,,,,,,masks/mask_002.jpg,,,,,,,,,,,,,,,,,,,,,,,,,,,,,,,,,,,,,,,,,,,,,,,,0,4,4,1,1,,,,,,,,,,,,,,,,,,,,,,,,,,,,,,,,,,,,,,,,,
349832,001,2022-11-20_17h49.41.937,Info_measure_main_exp,2022.2.2,MacIntel,59.95203837,,,,,,,,,,,,,,,,,,,,,,,,,,,,,,4,0.899,1,,,,,,,,,,,,0,131,5,5,2274,2082,absent_patch/patch0002274.jpg,absent_patch/patch0002082.jpg,,,,,,,,,,,,,,,,,,,,0.021111111,-0.101111111,1,0,0,response3disk,29,0.002222222,0.004444444,1,0,0,center_square,0,28,28,100,1,,,,,,,,,,,,,,,,,,,,,,,
349832,001,2022-11-20_17h49.41.937,Info_measure_main_exp,2022.2.2,MacIntel,59.95203837,,,,,,,,,,,,,,,,,,masks/mask_005.jpg,,,,,,,,,,,,,,,,,,,,,,,,,,,,,,,,,,,,,,,,,,,0,0,0,4,1,,,,,,,,,,,,,,,,,,,,,,,,,,,,,,,,,,,,,,,,,,,,,,
349832,001,2022-11-20_17h49.41.937,Info_measure_main_exp,2022.2.2,MacIntel,59.95203837,,,,,,,,,,,,,,,,,,masks/mask_003.jpg,,,,,,,,,,,,,,,,,,,,,,,,,,,,,,,,,,,,,,,,,,,0,1,1,2,1,,,,,,,,,,,,,,,,,,,,,,,,,,,,,,,,,,,,,,,,,,,,,,
349832,001,2022-11-20_17h49.41.937,Info_measure_main_exp,2022.2.2,MacIntel,59.95203837,,,,,,,,,,,,,,,,,,masks/mask_001.jpg,,,,,,,,,,,,,,,,,,,,,,,,,,,,,,,,,,,,,,,,,,,0,2,2,0,1,,,,,,,,,,,,,,,,,,,,,,,,,,,,,,,,,,,,,,,,,,,,,,
349832,001,2022-11-20_17h49.41.937,Info_measure_main_exp,2022.2.2,MacIntel,59.95203837,,,,,,,,,,,,,,,,,,masks/mask_004.jpg,,,,,,,,,,,,,,,,,,,,,,,,,,,,,,,,,,,,,,,,,,,0,3,3,3,1,,,,,,,,,,,,,,,,,,,,,,,,,,,,,,,,,,,,,,,,,,,,,,
349832,001,2022-11-20_17h49.41.937,Info_measure_main_exp,2022.2.2,MacIntel,59.95203837,,,,,,,,,,,,,,,,,,masks/mask_002.jpg,,,,,,,,,,,,,,,,,,,,,,,,,,,,,,,,,,,,,,,,,,,0,4,4,1,1,,,,,,,,,,,,,,,,,,,,,,,,,,,,,,,,,,,,,,,,,,,,,,
349832,001,2022-11-20_17h49.41.937,Info_measure_main_exp,2022.2.2,MacIntel,59.95203837,,,,,,,,,,,,,,,,,,masks/mask_001.jpg,,,,,,,,,,,,,,,,,,,,,,,,,,,,,,,,,,,,,,,,,,,,,,,,0,0,0,0,1,,,,,,,,,,,,,,,,,,,,,,,,,,,,,,,,,,,,,,,,,
349832,001,2022-11-20_17h49.41.937,Info_measure_main_exp,2022.2.2,MacIntel,59.95203837,,,,,,,,,,,,,,,,,,masks/mask_002.jpg,,,,,,,,,,,,,,,,,,,,,,,,,,,,,,,,,,,,,,,,,,,,,,,,0,1,1,1,1,,,,,,,,,,,,,,,,,,,,,,,,,,,,,,,,,,,,,,,,,
349832,001,2022-11-20_17h49.41.937,Info_measure_main_exp,2022.2.2,MacIntel,59.95203837,,,,,,,,,,,,,,,,,,masks/mask_004.jpg,,,,,,,,,,,,,,,,,,,,,,,,,,,,,,,,,,,,,,,,,,,,,,,,0,2,2,3,1,,,,,,,,,,,,,,,,,,,,,,,,,,,,,,,,,,,,,,,,,
349832,001,2022-11-20_17h49.41.937,Info_measure_main_exp,2022.2.2,MacIntel,59.95203837,,,,,,,,,,,,,,,,,,masks/mask_005.jpg,,,,,,,,,,,,,,,,,,,,,,,,,,,,,,,,,,,,,,,,,,,,,,,,0,3,3,4,1,,,,,,,,,,,,,,,,,,,,,,,,,,,,,,,,,,,,,,,,,
349832,001,2022-11-20_17h49.41.937,Info_measure_main_exp,2022.2.2,MacIntel,59.95203837,,,,,,,,,,,,,,,,,,masks/mask_003.jpg,,,,,,,,,,,,,,,,,,,,,,,,,,,,,,,,,,,,,,,,,,,,,,,,0,4,4,2,1,,,,,,,,,,,,,,,,,,,,,,,,,,,,,,,,,,,,,,,,,
349832,001,2022-11-20_17h49.41.937,Info_measure_main_exp,2022.2.2,MacIntel,59.95203837,,,,,,,,,,,,,,,,,,,,,,,,,,,,,,6,0.632,1,,,,,,,,,,,,0,131,5,5,2082,2238,absent_patch/patch0002082.jpg,absent_patch/patch0002238.jpg,,,,,,,,,,,,,,,,,,,,0.133333333,0.066666667,1,0,0,response1disk,30,0.004444444,0.013333333,1,0,0,center_square,0,29,29,22,1,,,,,,,,,,,,,,,,,,,,,,,
349832,001,2022-11-20_17h49.41.937,Info_measure_main_exp,2022.2.2,MacIntel,59.95203837,,,,,,,,,,,,,,,,,,masks/mask_001.jpg,,,,,,,,,,,,,,,,,,,,,,,,,,,,,,,,,,,,,,,,,,,0,0,0,0,1,,,,,,,,,,,,,,,,,,,,,,,,,,,,,,,,,,,,,,,,,,,,,,
349832,001,2022-11-20_17h49.41.937,Info_measure_main_exp,2022.2.2,MacIntel,59.95203837,,,,,,,,,,,,,,,,,,masks/mask_004.jpg,,,,,,,,,,,,,,,,,,,,,,,,,,,,,,,,,,,,,,,,,,,0,1,1,3,1,,,,,,,,,,,,,,,,,,,,,,,,,,,,,,,,,,,,,,,,,,,,,,
349832,001,2022-11-20_17h49.41.937,Info_measure_main_exp,2022.2.2,MacIntel,59.95203837,,,,,,,,,,,,,,,,,,masks/mask_005.jpg,,,,,,,,,,,,,,,,,,,,,,,,,,,,,,,,,,,,,,,,,,,0,2,2,4,1,,,,,,,,,,,,,,,,,,,,,,,,,,,,,,,,,,,,,,,,,,,,,,
349832,001,2022-11-20_17h49.41.937,Info_measure_main_exp,2022.2.2,MacIntel,59.95203837,,,,,,,,,,,,,,,,,,masks/mask_003.jpg,,,,,,,,,,,,,,,,,,,,,,,,,,,,,,,,,,,,,,,,,,,0,3,3,2,1,,,,,,,,,,,,,,,,,,,,,,,,,,,,,,,,,,,,,,,,,,,,,,
349832,001,2022-11-20_17h49.41.937,Info_measure_main_exp,2022.2.2,MacIntel,59.95203837,,,,,,,,,,,,,,,,,,masks/mask_002.jpg,,,,,,,,,,,,,,,,,,,,,,,,,,,,,,,,,,,,,,,,,,,0,4,4,1,1,,,,,,,,,,,,,,,,,,,,,,,,,,,,,,,,,,,,,,,,,,,,,,
349832,001,2022-11-20_17h49.41.937,Info_measure_main_exp,2022.2.2,MacIntel,59.95203837,,,,,,,,,,,,,,,,,,masks/mask_001.jpg,,,,,,,,,,,,,,,,,,,,,,,,,,,,,,,,,,,,,,,,,,,,,,,,0,0,0,0,1,,,,,,,,,,,,,,,,,,,,,,,,,,,,,,,,,,,,,,,,,
349832,001,2022-11-20_17h49.41.937,Info_measure_main_exp,2022.2.2,MacIntel,59.95203837,,,,,,,,,,,,,,,,,,masks/mask_002.jpg,,,,,,,,,,,,,,,,,,,,,,,,,,,,,,,,,,,,,,,,,,,,,,,,0,1,1,1,1,,,,,,,,,,,,,,,,,,,,,,,,,,,,,,,,,,,,,,,,,
349832,001,2022-11-20_17h49.41.937,Info_measure_main_exp,2022.2.2,MacIntel,59.95203837,,,,,,,,,,,,,,,,,,masks/mask_004.jpg,,,,,,,,,,,,,,,,,,,,,,,,,,,,,,,,,,,,,,,,,,,,,,,,0,2,2,3,1,,,,,,,,,,,,,,,,,,,,,,,,,,,,,,,,,,,,,,,,,
349832,001,2022-11-20_17h49.41.937,Info_measure_main_exp,2022.2.2,MacIntel,59.95203837,,,,,,,,,,,,,,,,,,masks/mask_005.jpg,,,,,,,,,,,,,,,,,,,,,,,,,,,,,,,,,,,,,,,,,,,,,,,,0,3,3,4,1,,,,,,,,,,,,,,,,,,,,,,,,,,,,,,,,,,,,,,,,,
349832,001,2022-11-20_17h49.41.937,Info_measure_main_exp,2022.2.2,MacIntel,59.95203837,,,,,,,,,,,,,,,,,,masks/mask_003.jpg,,,,,,,,,,,,,,,,,,,,,,,,,,,,,,,,,,,,,,,,,,,,,,,,0,4,4,2,1,,,,,,,,,,,,,,,,,,,,,,,,,,,,,,,,,,,,,,,,,
349832,001,2022-11-20_17h49.41.937,Info_measure_main_exp,2022.2.2,MacIntel,59.95203837,,,,,,,,,,,,,,,,,,,,,,,,,,,,,,3,1.265,1,,,,,,,,,,,,0,131,5,5,2250,2142,absent_patch/patch0002250.jpg,absent_patch/patch0002142.jpg,,,,,,,,,,,,,,,,,,,,-0.026666667,-0.065555556,1,0,0,response5disk,31,-0.003333333,-0.006666667,1,0,0,center_square,0,30,30,71,1,,,,,,,,,,,,,,,,,,,,,,,
349832,001,2022-11-20_17h49.41.937,Info_measure_main_exp,2022.2.2,MacIntel,59.95203837,,,,,,,,,,,,,,,,,,masks/mask_002.jpg,,,,,,,,,,,,,,,,,,,,,,,,,,,,,,,,,,,,,,,,,,,0,0,0,1,1,,,,,,,,,,,,,,,,,,,,,,,,,,,,,,,,,,,,,,,,,,,,,,
349832,001,2022-11-20_17h49.41.937,Info_measure_main_exp,2022.2.2,MacIntel,59.95203837,,,,,,,,,,,,,,,,,,masks/mask_004.jpg,,,,,,,,,,,,,,,,,,,,,,,,,,,,,,,,,,,,,,,,,,,0,1,1,3,1,,,,,,,,,,,,,,,,,,,,,,,,,,,,,,,,,,,,,,,,,,,,,,
349832,001,2022-11-20_17h49.41.937,Info_measure_main_exp,2022.2.2,MacIntel,59.95203837,,,,,,,,,,,,,,,,,,masks/mask_001.jpg,,,,,,,,,,,,,,,,,,,,,,,,,,,,,,,,,,,,,,,,,,,0,2,2,0,1,,,,,,,,,,,,,,,,,,,,,,,,,,,,,,,,,,,,,,,,,,,,,,
349832,001,2022-11-20_17h49.41.937,Info_measure_main_exp,2022.2.2,MacIntel,59.95203837,,,,,,,,,,,,,,,,,,masks/mask_005.jpg,,,,,,,,,,,,,,,,,,,,,,,,,,,,,,,,,,,,,,,,,,,0,3,3,4,1,,,,,,,,,,,,,,,,,,,,,,,,,,,,,,,,,,,,,,,,,,,,,,
349832,001,2022-11-20_17h49.41.937,Info_measure_main_exp,2022.2.2,MacIntel,59.95203837,,,,,,,,,,,,,,,,,,masks/mask_003.jpg,,,,,,,,,,,,,,,,,,,,,,,,,,,,,,,,,,,,,,,,,,,0,4,4,2,1,,,,,,,,,,,,,,,,,,,,,,,,,,,,,,,,,,,,,,,,,,,,,,
349832,001,2022-11-20_17h49.41.937,Info_measure_main_exp,2022.2.2,MacIntel,59.95203837,,,,,,,,,,,,,,,,,,masks/mask_004.jpg,,,,,,,,,,,,,,,,,,,,,,,,,,,,,,,,,,,,,,,,,,,,,,,,0,0,0,3,1,,,,,,,,,,,,,,,,,,,,,,,,,,,,,,,,,,,,,,,,,
349832,001,2022-11-20_17h49.41.937,Info_measure_main_exp,2022.2.2,MacIntel,59.95203837,,,,,,,,,,,,,,,,,,masks/mask_003.jpg,,,,,,,,,,,,,,,,,,,,,,,,,,,,,,,,,,,,,,,,,,,,,,,,0,1,1,2,1,,,,,,,,,,,,,,,,,,,,,,,,,,,,,,,,,,,,,,,,,
349832,001,2022-11-20_17h49.41.937,Info_measure_main_exp,2022.2.2,MacIntel,59.95203837,,,,,,,,,,,,,,,,,,masks/mask_002.jpg,,,,,,,,,,,,,,,,,,,,,,,,,,,,,,,,,,,,,,,,,,,,,,,,0,2,2,1,1,,,,,,,,,,,,,,,,,,,,,,,,,,,,,,,,,,,,,,,,,
349832,001,2022-11-20_17h49.41.937,Info_measure_main_exp,2022.2.2,MacIntel,59.95203837,,,,,,,,,,,,,,,,,,masks/mask_005.jpg,,,,,,,,,,,,,,,,,,,,,,,,,,,,,,,,,,,,,,,,,,,,,,,,0,3,3,4,1,,,,,,,,,,,,,,,,,,,,,,,,,,,,,,,,,,,,,,,,,
349832,001,2022-11-20_17h49.41.937,Info_measure_main_exp,2022.2.2,MacIntel,59.95203837,,,,,,,,,,,,,,,,,,masks/mask_001.jpg,,,,,,,,,,,,,,,,,,,,,,,,,,,,,,,,,,,,,,,,,,,,,,,,0,4,4,0,1,,,,,,,,,,,,,,,,,,,,,,,,,,,,,,,,,,,,,,,,,
349832,001,2022-11-20_17h49.41.937,Info_measure_main_exp,2022.2.2,MacIntel,59.95203837,,,,,,,,,,,,,,,,,,,,,,,,,,,,,,6,0.565,1,,,,,,,,,,,,0,131,5,5,2298,2178,absent_patch/patch0002298.jpg,absent_patch/patch0002178.jpg,,,,,,,,,,,,,,,,,,,,0.096666667,0.06,1,0,0,response1disk,32,0.008888889,0.007777778,1,0,0,center_square,0,31,31,84,1,,,,,,,,,,,,,,,,,,,,,,,
349832,001,2022-11-20_17h49.41.937,Info_measure_main_exp,2022.2.2,MacIntel,59.95203837,,,,,,,,,,,,,,,,,,masks/mask_003.jpg,,,,,,,,,,,,,,,,,,,,,,,,,,,,,,,,,,,,,,,,,,,0,0,0,2,1,,,,,,,,,,,,,,,,,,,,,,,,,,,,,,,,,,,,,,,,,,,,,,
349832,001,2022-11-20_17h49.41.937,Info_measure_main_exp,2022.2.2,MacIntel,59.95203837,,,,,,,,,,,,,,,,,,masks/mask_002.jpg,,,,,,,,,,,,,,,,,,,,,,,,,,,,,,,,,,,,,,,,,,,0,1,1,1,1,,,,,,,,,,,,,,,,,,,,,,,,,,,,,,,,,,,,,,,,,,,,,,
349832,001,2022-11-20_17h49.41.937,Info_measure_main_exp,2022.2.2,MacIntel,59.95203837,,,,,,,,,,,,,,,,,,masks/mask_001.jpg,,,,,,,,,,,,,,,,,,,,,,,,,,,,,,,,,,,,,,,,,,,0,2,2,0,1,,,,,,,,,,,,,,,,,,,,,,,,,,,,,,,,,,,,,,,,,,,,,,
349832,001,2022-11-20_17h49.41.937,Info_measure_main_exp,2022.2.2,MacIntel,59.95203837,,,,,,,,,,,,,,,,,,masks/mask_005.jpg,,,,,,,,,,,,,,,,,,,,,,,,,,,,,,,,,,,,,,,,,,,0,3,3,4,1,,,,,,,,,,,,,,,,,,,,,,,,,,,,,,,,,,,,,,,,,,,,,,
349832,001,2022-11-20_17h49.41.937,Info_measure_main_exp,2022.2.2,MacIntel,59.95203837,,,,,,,,,,,,,,,,,,masks/mask_004.jpg,,,,,,,,,,,,,,,,,,,,,,,,,,,,,,,,,,,,,,,,,,,0,4,4,3,1,,,,,,,,,,,,,,,,,,,,,,,,,,,,,,,,,,,,,,,,,,,,,,
349832,001,2022-11-20_17h49.41.937,Info_measure_main_exp,2022.2.2,MacIntel,59.95203837,,,,,,,,,,,,,,,,,,masks/mask_002.jpg,,,,,,,,,,,,,,,,,,,,,,,,,,,,,,,,,,,,,,,,,,,,,,,,0,0,0,1,1,,,,,,,,,,,,,,,,,,,,,,,,,,,,,,,,,,,,,,,,,
349832,001,2022-11-20_17h49.41.937,Info_measure_main_exp,2022.2.2,MacIntel,59.95203837,,,,,,,,,,,,,,,,,,masks/mask_005.jpg,,,,,,,,,,,,,,,,,,,,,,,,,,,,,,,,,,,,,,,,,,,,,,,,0,1,1,4,1,,,,,,,,,,,,,,,,,,,,,,,,,,,,,,,,,,,,,,,,,
349832,001,2022-11-20_17h49.41.937,Info_measure_main_exp,2022.2.2,MacIntel,59.95203837,,,,,,,,,,,,,,,,,,masks/mask_001.jpg,,,,,,,,,,,,,,,,,,,,,,,,,,,,,,,,,,,,,,,,,,,,,,,,0,2,2,0,1,,,,,,,,,,,,,,,,,,,,,,,,,,,,,,,,,,,,,,,,,
349832,001,2022-11-20_17h49.41.937,Info_measure_main_exp,2022.2.2,MacIntel,59.95203837,,,,,,,,,,,,,,,,,,masks/mask_004.jpg,,,,,,,,,,,,,,,,,,,,,,,,,,,,,,,,,,,,,,,,,,,,,,,,0,3,3,3,1,,,,,,,,,,,,,,,,,,,,,,,,,,,,,,,,,,,,,,,,,
349832,001,2022-11-20_17h49.41.937,Info_measure_main_exp,2022.2.2,MacIntel,59.95203837,,,,,,,,,,,,,,,,,,masks/mask_003.jpg,,,,,,,,,,,,,,,,,,,,,,,,,,,,,,,,,,,,,,,,,,,,,,,,0,4,4,2,1,,,,,,,,,,,,,,,,,,,,,,,,,,,,,,,,,,,,,,,,,
349832,001,2022-11-20_17h49.41.937,Info_measure_main_exp,2022.2.2,MacIntel,59.95203837,,,,,,,,,,,,,,,,,,,,,,,,,,,,,,6,1.033,1,,,,,,,,,,,,0,131,5,5,2274,2190,absent_patch/patch0002274.jpg,absent_patch/patch0002190.jpg,,,,,,,,,,,,,,,,,,,,0.146666667,0.071111111,1,0,0,response1disk,33,-0.008888889,-0.002222222,1,0,0,center_square,0,32,32,116,1,,,,,,,,,,,,,,,,,,,,,,,
349832,001,2022-11-20_17h49.41.937,Info_measure_main_exp,2022.2.2,MacIntel,59.95203837,,,,,,,,,,,,,,,,,,masks/mask_005.jpg,,,,,,,,,,,,,,,,,,,,,,,,,,,,,,,,,,,,,,,,,,,0,0,0,4,1,,,,,,,,,,,,,,,,,,,,,,,,,,,,,,,,,,,,,,,,,,,,,,
349832,001,2022-11-20_17h49.41.937,Info_measure_main_exp,2022.2.2,MacIntel,59.95203837,,,,,,,,,,,,,,,,,,masks/mask_002.jpg,,,,,,,,,,,,,,,,,,,,,,,,,,,,,,,,,,,,,,,,,,,0,1,1,1,1,,,,,,,,,,,,,,,,,,,,,,,,,,,,,,,,,,,,,,,,,,,,,,
349832,001,2022-11-20_17h49.41.937,Info_measure_main_exp,2022.2.2,MacIntel,59.95203837,,,,,,,,,,,,,,,,,,masks/mask_003.jpg,,,,,,,,,,,,,,,,,,,,,,,,,,,,,,,,,,,,,,,,,,,0,2,2,2,1,,,,,,,,,,,,,,,,,,,,,,,,,,,,,,,,,,,,,,,,,,,,,,
349832,001,2022-11-20_17h49.41.937,Info_measure_main_exp,2022.2.2,MacIntel,59.95203837,,,,,,,,,,,,,,,,,,masks/mask_004.jpg,,,,,,,,,,,,,,,,,,,,,,,,,,,,,,,,,,,,,,,,,,,0,3,3,3,1,,,,,,,,,,,,,,,,,,,,,,,,,,,,,,,,,,,,,,,,,,,,,,
349832,001,2022-11-20_17h49.41.937,Info_measure_main_exp,2022.2.2,MacIntel,59.95203837,,,,,,,,,,,,,,,,,,masks/mask_001.jpg,,,,,,,,,,,,,,,,,,,,,,,,,,,,,,,,,,,,,,,,,,,0,4,4,0,1,,,,,,,,,,,,,,,,,,,,,,,,,,,,,,,,,,,,,,,,,,,,,,
349832,001,2022-11-20_17h49.41.937,Info_measure_main_exp,2022.2.2,MacIntel,59.95203837,,,,,,,,,,,,,,,,,,masks/mask_003.jpg,,,,,,,,,,,,,,,,,,,,,,,,,,,,,,,,,,,,,,,,,,,,,,,,0,0,0,2,1,,,,,,,,,,,,,,,,,,,,,,,,,,,,,,,,,,,,,,,,,
349832,001,2022-11-20_17h49.41.937,Info_measure_main_exp,2022.2.2,MacIntel,59.95203837,,,,,,,,,,,,,,,,,,masks/mask_005.jpg,,,,,,,,,,,,,,,,,,,,,,,,,,,,,,,,,,,,,,,,,,,,,,,,0,1,1,4,1,,,,,,,,,,,,,,,,,,,,,,,,,,,,,,,,,,,,,,,,,
349832,001,2022-11-20_17h49.41.937,Info_measure_main_exp,2022.2.2,MacIntel,59.95203837,,,,,,,,,,,,,,,,,,masks/mask_002.jpg,,,,,,,,,,,,,,,,,,,,,,,,,,,,,,,,,,,,,,,,,,,,,,,,0,2,2,1,1,,,,,,,,,,,,,,,,,,,,,,,,,,,,,,,,,,,,,,,,,
349832,001,2022-11-20_17h49.41.937,Info_measure_main_exp,2022.2.2,MacIntel,59.95203837,,,,,,,,,,,,,,,,,,masks/mask_001.jpg,,,,,,,,,,,,,,,,,,,,,,,,,,,,,,,,,,,,,,,,,,,,,,,,0,3,3,0,1,,,,,,,,,,,,,,,,,,,,,,,,,,,,,,,,,,,,,,,,,
349832,001,2022-11-20_17h49.41.937,Info_measure_main_exp,2022.2.2,MacIntel,59.95203837,,,,,,,,,,,,,,,,,,masks/mask_004.jpg,,,,,,,,,,,,,,,,,,,,,,,,,,,,,,,,,,,,,,,,,,,,,,,,0,4,4,3,1,,,,,,,,,,,,,,,,,,,,,,,,,,,,,,,,,,,,,,,,,
349832,001,2022-11-20_17h49.41.937,Info_measure_main_exp,2022.2.2,MacIntel,59.95203837,,,,,,,,,,,,,,,,,,,,,,,,,,,,,,0,0.499,1,,,,,,,,,,,,0,131,5,5,1974,1974,absent_patch/patch0001974.jpg,absent_patch/patch0001974.jpg,,,,,,,,,,,,,,,,,,,,-0.046666667,0.087777778,1,0,0,response7disk,34,0,0.012222222,1,0,0,center_square,0,33,33,113,1,,,,,,,,,,,,,,,,,,,,,,,
349832,001,2022-11-20_17h49.41.937,Info_measure_main_exp,2022.2.2,MacIntel,59.95203837,,,,,,,,,,,,,,,,,,masks/mask_001.jpg,,,,,,,,,,,,,,,,,,,,,,,,,,,,,,,,,,,,,,,,,,,0,0,0,0,1,,,,,,,,,,,,,,,,,,,,,,,,,,,,,,,,,,,,,,,,,,,,,,
349832,001,2022-11-20_17h49.41.937,Info_measure_main_exp,2022.2.2,MacIntel,59.95203837,,,,,,,,,,,,,,,,,,masks/mask_005.jpg,,,,,,,,,,,,,,,,,,,,,,,,,,,,,,,,,,,,,,,,,,,0,1,1,4,1,,,,,,,,,,,,,,,,,,,,,,,,,,,,,,,,,,,,,,,,,,,,,,
349832,001,2022-11-20_17h49.41.937,Info_measure_main_exp,2022.2.2,MacIntel,59.95203837,,,,,,,,,,,,,,,,,,masks/mask_004.jpg,,,,,,,,,,,,,,,,,,,,,,,,,,,,,,,,,,,,,,,,,,,0,2,2,3,1,,,,,,,,,,,,,,,,,,,,,,,,,,,,,,,,,,,,,,,,,,,,,,
