participant,session,date,expName,psychopyVersion,OS,frameRate,space_press_continue.keys,space_press_continue.rt,space_press_continue_2.keys,space_press_continue_2.rt,space_press_continue_3.keys,space_press_continue_3.rt,space_press_continue_4.keys,space_press_continue_4.rt,space_press_continue_5.keys,space_press_continue_5.rt,space_press_continue_6.keys,space_press_continue_6.rt,prac_mask_loop_1.thisRepN,prac_mask_loop_1.thisTrialN,prac_mask_loop_1.thisN,prac_mask_loop_1.thisIndex,prac_mask_loop_1.ran,mask_name,prac_mask_loop_2.thisRepN,prac_mask_loop_2.thisTrialN,prac_mask_loop_2.thisN,prac_mask_loop_2.thisIndex,prac_mask_loop_2.ran,mouse_2.x,mouse_2.y,mouse_2.leftButton,mouse_2.midButton,mouse_2.rightButton,mouse_2.clicked_name,similarity,response_time,Pass,mouse_12.x,mouse_12.y,mouse_12.leftButton,mouse_12.midButton,mouse_12.rightButton,mouse_12.clicked_name,prac_loop.thisRepN,prac_loop.thisTrialN,prac_loop.thisN,prac_loop.thisIndex,prac_loop.ran,Pair_type,Image_num,Patch_1_loc,Patch_2_loc,Patch_1_info,Patch_2_info,Patch_1_name,Patch_2_name,mouse_1.x,mouse_1.y,mouse_1.leftButton,mouse_1.midButton,mouse_1.rightButton,mouse_1.time,mouse_1.clicked_name,space_press_continue_7.keys,space_press_continue_7.rt,mask_loop.thisRepN,mask_loop.thisTrialN,mask_loop.thisN,mask_loop.thisIndex,mask_loop.ran,mask_loop_2.thisRepN,mask_loop_2.thisTrialN,mask_loop_2.thisN,mask_loop_2.thisIndex,mask_loop_2.ran,mouse.x,mouse.y,mouse.leftButton,mouse.midButton,mouse.rightButton,mouse.clicked_name,trialNumber,mouse_11.x,mouse_11.y,mouse_11.leftButton,mouse_11.midButton,mouse_11.rightButton,mouse_11.clicked_name,first_pass_loop.thisRepN,first_pass_loop.thisTrialN,first_pass_loop.thisN,first_pass_loop.thisIndex,first_pass_loop.ran,mask_loop_3.thisRepN,mask_loop_3.thisTrialN,mask_loop_3.thisN,mask_loop_3.thisIndex,mask_loop_3.ran,mask_loop_4.thisRepN,mask_loop_4.thisTrialN,mask_loop_4.thisN,mask_loop_4.thisIndex,mask_loop_4.ran,mouse_3.x,mouse_3.y,mouse_3.leftButton,mouse_3.midButton,mouse_3.rightButton,mouse_3.clicked_name,double_pass_loop.thisRepN,double_pass_loop.thisTrialN,double_pass_loop.thisN,double_pass_loop.thisIndex,double_pass_loop.ran,space_exit.keys,space_exit.rt
352802,001,2022-11-21_00h28.43.746,Info_measure_main_exp,2022.2.2,Win32,240.3846154,,,,,,,,,,,,,,,,,,,,,,,,,,,,,,,,,,,,,,,,,,,,,,,,,,,,,,,,,,,,,,,,,,,,,,,,,,,,,,,,,,,,,,,,,,,,,,,,,,,,,,,,,,,,,,,
352802,001,2022-11-21_00h28.43.746,Info_measure_main_exp,2022.2.2,Win32,240.3846154,,,,,,,,,,,,,,,,,,,,,,,,,,,,,,,,,,,,,,,,,,,,,,,,,,,,,,,,,,,,,,,,,,,,,,,,,,,,,,,,,,,,,,,,,,,,,,,,,,,,,,,,,,,,,,,
352802,001,2022-11-21_00h28.43.746,Info_measure_main_exp,2022.2.2,Win32,240.3846154,space,7.361,,,,,,,,,,,,,,,,,,,,,,,,,,,,,,,,,,,,,,,,,,,,,,,,,,,,,,,,,,,,,,,,,,,,,,,,,,,,,,,,,,,,,,,,,,,,,,,,,,,,,,,,,,,,,
352802,001,2022-11-21_00h28.43.746,Info_measure_main_exp,2022.2.2,Win32,240.3846154,,,space,8.784,,,,,,,,,,,,,,,,,,,,,,,,,,,,,,,,,,,,,,,,,,,,,,,,,,,,,,,,,,,,,,,,,,,,,,,,,,,,,,,,,,,,,,,,,,,,,,,,,,,,,,,,,,,
352802,001,2022-11-21_00h28.43.746,Info_measure_main_exp,2022.2.2,Win32,240.3846154,,,,,space,5.125,,,,,,,,,,,,,,,,,,,,,,,,,,,,,,,,,,,,,,,,,,,,,,,,,,,,,,,,,,,,,,,,,,,,,,,,,,,,,,,,,,,,,,,,,,,,,,,,,,,,,,,,,
352802,001,2022-11-21_00h28.43.746,Info_measure_main_exp,2022.2.2,Win32,240.3846154,,,,,,,space,10.26,,,,,,,,,,,,,,,,,,,,,,,,,,,,,,,,,,,,,,,,,,,,,,,,,,,,,,,,,,,,,,,,,,,,,,,,,,,,,,,,,,,,,,,,,,,,,,,,,,,,,,,
352802,001,2022-11-21_00h28.43.746,Info_measure_main_exp,2022.2.2,Win32,240.3846154,,,,,,,,,space,3.657,,,,,,,,,,,,,,,,,,,,,,,,,,,,,,,,,,,,,,,,,,,,,,,,,,,,,,,,,,,,,,,,,,,,,,,,,,,,,,,,,,,,,,,,,,,,,,,,,,,,,
352802,001,2022-11-21_00h28.43.746,Info_measure_main_exp,2022.2.2,Win32,240.3846154,,,,,,,,,,,space,2.55,,,,,,,,,,,,,,,,,,,,,,,,,,,,,,,,,,,,,,,,,,,,,,,,,,,,,,,,,,,,,,,,,,,,,,,,,,,,,,,,,,,,,,,,,,,,,,,,,,,
352802,001,2022-11-21_00h28.43.746,Info_measure_main_exp,2022.2.2,Win32,240.3846154,,,,,,,,,,,,,0,0,0,0,1,masks/mask_001.jpg,,,,,,,,,,,,,,,,,,,,,,,,,,,,,,,,,,,,,,,,,,,,,,,,,,,,,,,,,,,,,,,,,,,,,,,,,,,,,,,,,,,,,,,,,,,,,
352802,001,2022-11-21_00h28.43.746,Info_measure_main_exp,2022.2.2,Win32,240.3846154,,,,,,,,,,,,,0,1,1,2,1,masks/mask_003.jpg,,,,,,,,,,,,,,,,,,,,,,,,,,,,,,,,,,,,,,,,,,,,,,,,,,,,,,,,,,,,,,,,,,,,,,,,,,,,,,,,,,,,,,,,,,,,,
352802,001,2022-11-21_00h28.43.746,Info_measure_main_exp,2022.2.2,Win32,240.3846154,,,,,,,,,,,,,0,2,2,1,1,masks/mask_002.jpg,,,,,,,,,,,,,,,,,,,,,,,,,,,,,,,,,,,,,,,,,,,,,,,,,,,,,,,,,,,,,,,,,,,,,,,,,,,,,,,,,,,,,,,,,,,,,
352802,001,2022-11-21_00h28.43.746,Info_measure_main_exp,2022.2.2,Win32,240.3846154,,,,,,,,,,,,,0,3,3,4,1,masks/mask_005.jpg,,,,,,,,,,,,,,,,,,,,,,,,,,,,,,,,,,,,,,,,,,,,,,,,,,,,,,,,,,,,,,,,,,,,,,,,,,,,,,,,,,,,,,,,,,,,,
352802,001,2022-11-21_00h28.43.746,Info_measure_main_exp,2022.2.2,Win32,240.3846154,,,,,,,,,,,,,0,4,4,3,1,masks/mask_004.jpg,,,,,,,,,,,,,,,,,,,,,,,,,,,,,,,,,,,,,,,,,,,,,,,,,,,,,,,,,,,,,,,,,,,,,,,,,,,,,,,,,,,,,,,,,,,,,
352802,001,2022-11-21_00h28.43.746,Info_measure_main_exp,2022.2.2,Win32,240.3846154,,,,,,,,,,,,,,,,,,masks/mask_001.jpg,0,0,0,0,1,,,,,,,,,,,,,,,,,,,,,,,,,,,,,,,,,,,,,,,,,,,,,,,,,,,,,,,,,,,,,,,,,,,,,,,,,,,,,,,,,,,,,,,,
352802,001,2022-11-21_00h28.43.746,Info_measure_main_exp,2022.2.2,Win32,240.3846154,,,,,,,,,,,,,,,,,,masks/mask_003.jpg,0,1,1,2,1,,,,,,,,,,,,,,,,,,,,,,,,,,,,,,,,,,,,,,,,,,,,,,,,,,,,,,,,,,,,,,,,,,,,,,,,,,,,,,,,,,,,,,,,
352802,001,2022-11-21_00h28.43.746,Info_measure_main_exp,2022.2.2,Win32,240.3846154,,,,,,,,,,,,,,,,,,masks/mask_004.jpg,0,2,2,3,1,,,,,,,,,,,,,,,,,,,,,,,,,,,,,,,,,,,,,,,,,,,,,,,,,,,,,,,,,,,,,,,,,,,,,,,,,,,,,,,,,,,,,,,,
352802,001,2022-11-21_00h28.43.746,Info_measure_main_exp,2022.2.2,Win32,240.3846154,,,,,,,,,,,,,,,,,,masks/mask_005.jpg,0,3,3,4,1,,,,,,,,,,,,,,,,,,,,,,,,,,,,,,,,,,,,,,,,,,,,,,,,,,,,,,,,,,,,,,,,,,,,,,,,,,,,,,,,,,,,,,,,
352802,001,2022-11-21_00h28.43.746,Info_measure_main_exp,2022.2.2,Win32,240.3846154,,,,,,,,,,,,,,,,,,masks/mask_002.jpg,0,4,4,1,1,,,,,,,,,,,,,,,,,,,,,,,,,,,,,,,,,,,,,,,,,,,,,,,,,,,,,,,,,,,,,,,,,,,,,,,,,,,,,,,,,,,,,,,,
352802,001,2022-11-21_00h28.43.746,Info_measure_main_exp,2022.2.2,Win32,240.3846154,,,,,,,,,,,,,,,,,,,,,,,,-0.114583333,-0.070138889,1,0,0,response5disk,2,43.74,1,0.002083333,0.00625,1,0,0,center_square,0,0,0,0,1,0,131,5,5,2370,2406,prac_patch/patch0002370.jpg,prac_patch/patch0002406.jpg,,,,,,,,,,,,,,,,,,,,,,,,,,,,,,,,,,,,,,,,,,,,,,,,,,,,,,,,,,,,
352802,001,2022-11-21_00h28.43.746,Info_measure_main_exp,2022.2.2,Win32,240.3846154,,,,,,,,,,,,,0,0,0,3,1,masks/mask_004.jpg,,,,,,,,,,,,,,,,,,,,,,,,,,,,,,,,,,,,,,,,,,,,,,,,,,,,,,,,,,,,,,,,,,,,,,,,,,,,,,,,,,,,,,,,,,,,,
352802,001,2022-11-21_00h28.43.746,Info_measure_main_exp,2022.2.2,Win32,240.3846154,,,,,,,,,,,,,0,1,1,1,1,masks/mask_002.jpg,,,,,,,,,,,,,,,,,,,,,,,,,,,,,,,,,,,,,,,,,,,,,,,,,,,,,,,,,,,,,,,,,,,,,,,,,,,,,,,,,,,,,,,,,,,,,
352802,001,2022-11-21_00h28.43.746,Info_measure_main_exp,2022.2.2,Win32,240.3846154,,,,,,,,,,,,,0,2,2,0,1,masks/mask_001.jpg,,,,,,,,,,,,,,,,,,,,,,,,,,,,,,,,,,,,,,,,,,,,,,,,,,,,,,,,,,,,,,,,,,,,,,,,,,,,,,,,,,,,,,,,,,,,,
352802,001,2022-11-21_00h28.43.746,Info_measure_main_exp,2022.2.2,Win32,240.3846154,,,,,,,,,,,,,0,3,3,2,1,masks/mask_003.jpg,,,,,,,,,,,,,,,,,,,,,,,,,,,,,,,,,,,,,,,,,,,,,,,,,,,,,,,,,,,,,,,,,,,,,,,,,,,,,,,,,,,,,,,,,,,,,
352802,001,2022-11-21_00h28.43.746,Info_measure_main_exp,2022.2.2,Win32,240.3846154,,,,,,,,,,,,,0,4,4,4,1,masks/mask_005.jpg,,,,,,,,,,,,,,,,,,,,,,,,,,,,,,,,,,,,,,,,,,,,,,,,,,,,,,,,,,,,,,,,,,,,,,,,,,,,,,,,,,,,,,,,,,,,,
352802,001,2022-11-21_00h28.43.746,Info_measure_main_exp,2022.2.2,Win32,240.3846154,,,,,,,,,,,,,,,,,,masks/mask_001.jpg,0,0,0,0,1,,,,,,,,,,,,,,,,,,,,,,,,,,,,,,,,,,,,,,,,,,,,,,,,,,,,,,,,,,,,,,,,,,,,,,,,,,,,,,,,,,,,,,,,
352802,001,2022-11-21_00h28.43.746,Info_measure_main_exp,2022.2.2,Win32,240.3846154,,,,,,,,,,,,,,,,,,masks/mask_003.jpg,0,1,1,2,1,,,,,,,,,,,,,,,,,,,,,,,,,,,,,,,,,,,,,,,,,,,,,,,,,,,,,,,,,,,,,,,,,,,,,,,,,,,,,,,,,,,,,,,,
352802,001,2022-11-21_00h28.43.746,Info_measure_main_exp,2022.2.2,Win32,240.3846154,,,,,,,,,,,,,,,,,,masks/mask_005.jpg,0,2,2,4,1,,,,,,,,,,,,,,,,,,,,,,,,,,,,,,,,,,,,,,,,,,,,,,,,,,,,,,,,,,,,,,,,,,,,,,,,,,,,,,,,,,,,,,,,
352802,001,2022-11-21_00h28.43.746,Info_measure_main_exp,2022.2.2,Win32,240.3846154,,,,,,,,,,,,,,,,,,masks/mask_004.jpg,0,3,3,3,1,,,,,,,,,,,,,,,,,,,,,,,,,,,,,,,,,,,,,,,,,,,,,,,,,,,,,,,,,,,,,,,,,,,,,,,,,,,,,,,,,,,,,,,,
352802,001,2022-11-21_00h28.43.746,Info_measure_main_exp,2022.2.2,Win32,240.3846154,,,,,,,,,,,,,,,,,,masks/mask_002.jpg,0,4,4,1,1,,,,,,,,,,,,,,,,,,,,,,,,,,,,,,,,,,,,,,,,,,,,,,,,,,,,,,,,,,,,,,,,,,,,,,,,,,,,,,,,,,,,,,,,
352802,001,2022-11-21_00h28.43.746,Info_measure_main_exp,2022.2.2,Win32,240.3846154,,,,,,,,,,,,,,,,,,,,,,,,-0.020833333,0.060416667,1,0,0,response7disk,0,52.919,1,0.002777778,0.000694444,1,0,0,center_square,0,1,1,2,1,0,131,5,5,2526,2526,prac_patch/patch0002526.jpg,prac_patch/patch0002526.jpg,,,,,,,,,,,,,,,,,,,,,,,,,,,,,,,,,,,,,,,,,,,,,,,,,,,,,,,,,,,,
352802,001,2022-11-21_00h28.43.746,Info_measure_main_exp,2022.2.2,Win32,240.3846154,,,,,,,,,,,,,0,0,0,2,1,masks/mask_003.jpg,,,,,,,,,,,,,,,,,,,,,,,,,,,,,,,,,,,,,,,,,,,,,,,,,,,,,,,,,,,,,,,,,,,,,,,,,,,,,,,,,,,,,,,,,,,,,
352802,001,2022-11-21_00h28.43.746,Info_measure_main_exp,2022.2.2,Win32,240.3846154,,,,,,,,,,,,,0,1,1,1,1,masks/mask_002.jpg,,,,,,,,,,,,,,,,,,,,,,,,,,,,,,,,,,,,,,,,,,,,,,,,,,,,,,,,,,,,,,,,,,,,,,,,,,,,,,,,,,,,,,,,,,,,,
352802,001,2022-11-21_00h28.43.746,Info_measure_main_exp,2022.2.2,Win32,240.3846154,,,,,,,,,,,,,0,2,2,4,1,masks/mask_005.jpg,,,,,,,,,,,,,,,,,,,,,,,,,,,,,,,,,,,,,,,,,,,,,,,,,,,,,,,,,,,,,,,,,,,,,,,,,,,,,,,,,,,,,,,,,,,,,
352802,001,2022-11-21_00h28.43.746,Info_measure_main_exp,2022.2.2,Win32,240.3846154,,,,,,,,,,,,,0,3,3,0,1,masks/mask_001.jpg,,,,,,,,,,,,,,,,,,,,,,,,,,,,,,,,,,,,,,,,,,,,,,,,,,,,,,,,,,,,,,,,,,,,,,,,,,,,,,,,,,,,,,,,,,,,,
352802,001,2022-11-21_00h28.43.746,Info_measure_main_exp,2022.2.2,Win32,240.3846154,,,,,,,,,,,,,0,4,4,3,1,masks/mask_004.jpg,,,,,,,,,,,,,,,,,,,,,,,,,,,,,,,,,,,,,,,,,,,,,,,,,,,,,,,,,,,,,,,,,,,,,,,,,,,,,,,,,,,,,,,,,,,,,
352802,001,2022-11-21_00h28.43.746,Info_measure_main_exp,2022.2.2,Win32,240.3846154,,,,,,,,,,,,,,,,,,masks/mask_004.jpg,0,0,0,3,1,,,,,,,,,,,,,,,,,,,,,,,,,,,,,,,,,,,,,,,,,,,,,,,,,,,,,,,,,,,,,,,,,,,,,,,,,,,,,,,,,,,,,,,,
352802,001,2022-11-21_00h28.43.746,Info_measure_main_exp,2022.2.2,Win32,240.3846154,,,,,,,,,,,,,,,,,,masks/mask_001.jpg,0,1,1,0,1,,,,,,,,,,,,,,,,,,,,,,,,,,,,,,,,,,,,,,,,,,,,,,,,,,,,,,,,,,,,,,,,,,,,,,,,,,,,,,,,,,,,,,,,
352802,001,2022-11-21_00h28.43.746,Info_measure_main_exp,2022.2.2,Win32,240.3846154,,,,,,,,,,,,,,,,,,masks/mask_002.jpg,0,2,2,1,1,,,,,,,,,,,,,,,,,,,,,,,,,,,,,,,,,,,,,,,,,,,,,,,,,,,,,,,,,,,,,,,,,,,,,,,,,,,,,,,,,,,,,,,,
352802,001,2022-11-21_00h28.43.746,Info_measure_main_exp,2022.2.2,Win32,240.3846154,,,,,,,,,,,,,,,,,,masks/mask_005.jpg,0,3,3,4,1,,,,,,,,,,,,,,,,,,,,,,,,,,,,,,,,,,,,,,,,,,,,,,,,,,,,,,,,,,,,,,,,,,,,,,,,,,,,,,,,,,,,,,,,
352802,001,2022-11-21_00h28.43.746,Info_measure_main_exp,2022.2.2,Win32,240.3846154,,,,,,,,,,,,,,,,,,masks/mask_003.jpg,0,4,4,2,1,,,,,,,,,,,,,,,,,,,,,,,,,,,,,,,,,,,,,,,,,,,,,,,,,,,,,,,,,,,,,,,,,,,,,,,,,,,,,,,,,,,,,,,,
352802,001,2022-11-21_00h28.43.746,Info_measure_main_exp,2022.2.2,Win32,240.3846154,,,,,,,,,,,,,,,,,,,,,,,,-0.0375,-0.0125,1,0,0,response5disk,2,62.494,1,0.004861111,-0.005555556,1,0,0,center_square,0,2,2,1,1,0,131,5,5,2514,2490,prac_patch/patch0002514.jpg,prac_patch/patch0002490.jpg,,,,,,,,,,,,,,,,,,,,,,,,,,,,,,,,,,,,,,,,,,,,,,,,,,,,,,,,,,,,
352802,001,2022-11-21_00h28.43.746,Info_measure_main_exp,2022.2.2,Win32,240.3846154,,,,,,,,,,,,,,,,,,,,,,,,,,,,,,,,,,,,,,,,,,,,,,,,,,,,,,,,,,,space,2.597,,,,,,,,,,,,,,,,,,,,,,,,,,,,,,,,,,,,,,,,,,,,,,,,,,,
352802,001,2022-11-21_00h28.43.746,Info_measure_main_exp,2022.2.2,Win32,240.3846154,,,,,,,,,,,,,,,,,,masks/mask_003.jpg,,,,,,,,,,,,,,,,,,,,,,,,,,,,,,,,,,,,,,,,,,,0,0,0,2,1,,,,,,,,,,,,,,,,,,,,,,,,,,,,,,,,,,,,,,,,,,,,,,
352802,001,2022-11-21_00h28.43.746,Info_measure_main_exp,2022.2.2,Win32,240.3846154,,,,,,,,,,,,,,,,,,masks/mask_004.jpg,,,,,,,,,,,,,,,,,,,,,,,,,,,,,,,,,,,,,,,,,,,0,1,1,3,1,,,,,,,,,,,,,,,,,,,,,,,,,,,,,,,,,,,,,,,,,,,,,,
352802,001,2022-11-21_00h28.43.746,Info_measure_main_exp,2022.2.2,Win32,240.3846154,,,,,,,,,,,,,,,,,,masks/mask_001.jpg,,,,,,,,,,,,,,,,,,,,,,,,,,,,,,,,,,,,,,,,,,,0,2,2,0,1,,,,,,,,,,,,,,,,,,,,,,,,,,,,,,,,,,,,,,,,,,,,,,
352802,001,2022-11-21_00h28.43.746,Info_measure_main_exp,2022.2.2,Win32,240.3846154,,,,,,,,,,,,,,,,,,masks/mask_005.jpg,,,,,,,,,,,,,,,,,,,,,,,,,,,,,,,,,,,,,,,,,,,0,3,3,4,1,,,,,,,,,,,,,,,,,,,,,,,,,,,,,,,,,,,,,,,,,,,,,,
352802,001,2022-11-21_00h28.43.746,Info_measure_main_exp,2022.2.2,Win32,240.3846154,,,,,,,,,,,,,,,,,,masks/mask_002.jpg,,,,,,,,,,,,,,,,,,,,,,,,,,,,,,,,,,,,,,,,,,,0,4,4,1,1,,,,,,,,,,,,,,,,,,,,,,,,,,,,,,,,,,,,,,,,,,,,,,
352802,001,2022-11-21_00h28.43.746,Info_measure_main_exp,2022.2.2,Win32,240.3846154,,,,,,,,,,,,,,,,,,masks/mask_005.jpg,,,,,,,,,,,,,,,,,,,,,,,,,,,,,,,,,,,,,,,,,,,,,,,,0,0,0,4,1,,,,,,,,,,,,,,,,,,,,,,,,,,,,,,,,,,,,,,,,,
352802,001,2022-11-21_00h28.43.746,Info_measure_main_exp,2022.2.2,Win32,240.3846154,,,,,,,,,,,,,,,,,,masks/mask_004.jpg,,,,,,,,,,,,,,,,,,,,,,,,,,,,,,,,,,,,,,,,,,,,,,,,0,1,1,3,1,,,,,,,,,,,,,,,,,,,,,,,,,,,,,,,,,,,,,,,,,
352802,001,2022-11-21_00h28.43.746,Info_measure_main_exp,2022.2.2,Win32,240.3846154,,,,,,,,,,,,,,,,,,masks/mask_002.jpg,,,,,,,,,,,,,,,,,,,,,,,,,,,,,,,,,,,,,,,,,,,,,,,,0,2,2,1,1,,,,,,,,,,,,,,,,,,,,,,,,,,,,,,,,,,,,,,,,,
352802,001,2022-11-21_00h28.43.746,Info_measure_main_exp,2022.2.2,Win32,240.3846154,,,,,,,,,,,,,,,,,,masks/mask_001.jpg,,,,,,,,,,,,,,,,,,,,,,,,,,,,,,,,,,,,,,,,,,,,,,,,0,3,3,0,1,,,,,,,,,,,,,,,,,,,,,,,,,,,,,,,,,,,,,,,,,
352802,001,2022-11-21_00h28.43.746,Info_measure_main_exp,2022.2.2,Win32,240.3846154,,,,,,,,,,,,,,,,,,masks/mask_003.jpg,,,,,,,,,,,,,,,,,,,,,,,,,,,,,,,,,,,,,,,,,,,,,,,,0,4,4,2,1,,,,,,,,,,,,,,,,,,,,,,,,,,,,,,,,,,,,,,,,,
352802,001,2022-11-21_00h28.43.746,Info_measure_main_exp,2022.2.2,Win32,240.3846154,,,,,,,,,,,,,,,,,,,,,,,,,,,,,,4,3.276,1,,,,,,,,,,,,0,131,5,5,2298,2178,absent_patch/patch0002298.jpg,absent_patch/patch0002178.jpg,,,,,,,,,,,,,,,,,,,,0.026388889,-0.049305556,1,0,0,response3disk,1,-0.002777778,0.003472222,1,0,0,center_square,0,0,0,84,1,,,,,,,,,,,,,,,,,,,,,,,
352802,001,2022-11-21_00h28.43.746,Info_measure_main_exp,2022.2.2,Win32,240.3846154,,,,,,,,,,,,,,,,,,masks/mask_002.jpg,,,,,,,,,,,,,,,,,,,,,,,,,,,,,,,,,,,,,,,,,,,0,0,0,1,1,,,,,,,,,,,,,,,,,,,,,,,,,,,,,,,,,,,,,,,,,,,,,,
352802,001,2022-11-21_00h28.43.746,Info_measure_main_exp,2022.2.2,Win32,240.3846154,,,,,,,,,,,,,,,,,,masks/mask_004.jpg,,,,,,,,,,,,,,,,,,,,,,,,,,,,,,,,,,,,,,,,,,,0,1,1,3,1,,,,,,,,,,,,,,,,,,,,,,,,,,,,,,,,,,,,,,,,,,,,,,
352802,001,2022-11-21_00h28.43.746,Info_measure_main_exp,2022.2.2,Win32,240.3846154,,,,,,,,,,,,,,,,,,masks/mask_001.jpg,,,,,,,,,,,,,,,,,,,,,,,,,,,,,,,,,,,,,,,,,,,0,2,2,0,1,,,,,,,,,,,,,,,,,,,,,,,,,,,,,,,,,,,,,,,,,,,,,,
352802,001,2022-11-21_00h28.43.746,Info_measure_main_exp,2022.2.2,Win32,240.3846154,,,,,,,,,,,,,,,,,,masks/mask_005.jpg,,,,,,,,,,,,,,,,,,,,,,,,,,,,,,,,,,,,,,,,,,,0,3,3,4,1,,,,,,,,,,,,,,,,,,,,,,,,,,,,,,,,,,,,,,,,,,,,,,
352802,001,2022-11-21_00h28.43.746,Info_measure_main_exp,2022.2.2,Win32,240.3846154,,,,,,,,,,,,,,,,,,masks/mask_003.jpg,,,,,,,,,,,,,,,,,,,,,,,,,,,,,,,,,,,,,,,,,,,0,4,4,2,1,,,,,,,,,,,,,,,,,,,,,,,,,,,,,,,,,,,,,,,,,,,,,,
352802,001,2022-11-21_00h28.43.746,Info_measure_main_exp,2022.2.2,Win32,240.3846154,,,,,,,,,,,,,,,,,,masks/mask_005.jpg,,,,,,,,,,,,,,,,,,,,,,,,,,,,,,,,,,,,,,,,,,,,,,,,0,0,0,4,1,,,,,,,,,,,,,,,,,,,,,,,,,,,,,,,,,,,,,,,,,
352802,001,2022-11-21_00h28.43.746,Info_measure_main_exp,2022.2.2,Win32,240.3846154,,,,,,,,,,,,,,,,,,masks/mask_003.jpg,,,,,,,,,,,,,,,,,,,,,,,,,,,,,,,,,,,,,,,,,,,,,,,,0,1,1,2,1,,,,,,,,,,,,,,,,,,,,,,,,,,,,,,,,,,,,,,,,,
352802,001,2022-11-21_00h28.43.746,Info_measure_main_exp,2022.2.2,Win32,240.3846154,,,,,,,,,,,,,,,,,,masks/mask_002.jpg,,,,,,,,,,,,,,,,,,,,,,,,,,,,,,,,,,,,,,,,,,,,,,,,0,2,2,1,1,,,,,,,,,,,,,,,,,,,,,,,,,,,,,,,,,,,,,,,,,
352802,001,2022-11-21_00h28.43.746,Info_measure_main_exp,2022.2.2,Win32,240.3846154,,,,,,,,,,,,,,,,,,masks/mask_004.jpg,,,,,,,,,,,,,,,,,,,,,,,,,,,,,,,,,,,,,,,,,,,,,,,,0,3,3,3,1,,,,,,,,,,,,,,,,,,,,,,,,,,,,,,,,,,,,,,,,,
352802,001,2022-11-21_00h28.43.746,Info_measure_main_exp,2022.2.2,Win32,240.3846154,,,,,,,,,,,,,,,,,,masks/mask_001.jpg,,,,,,,,,,,,,,,,,,,,,,,,,,,,,,,,,,,,,,,,,,,,,,,,0,4,4,0,1,,,,,,,,,,,,,,,,,,,,,,,,,,,,,,,,,,,,,,,,,
352802,001,2022-11-21_00h28.43.746,Info_measure_main_exp,2022.2.2,Win32,240.3846154,,,,,,,,,,,,,,,,,,,,,,,,,,,,,,4,6.171,1,,,,,,,,,,,,0,131,5,5,2214,2142,absent_patch/patch0002214.jpg,absent_patch/patch0002142.jpg,,,,,,,,,,,,,,,,,,,,0.046527778,-0.0875,1,0,0,response3disk,2,-0.014583333,0.009722222,1,0,0,center_square,0,1,1,102,1,,,,,,,,,,,,,,,,,,,,,,,
352802,001,2022-11-21_00h28.43.746,Info_measure_main_exp,2022.2.2,Win32,240.3846154,,,,,,,,,,,,,,,,,,masks/mask_003.jpg,,,,,,,,,,,,,,,,,,,,,,,,,,,,,,,,,,,,,,,,,,,0,0,0,2,1,,,,,,,,,,,,,,,,,,,,,,,,,,,,,,,,,,,,,,,,,,,,,,
352802,001,2022-11-21_00h28.43.746,Info_measure_main_exp,2022.2.2,Win32,240.3846154,,,,,,,,,,,,,,,,,,masks/mask_004.jpg,,,,,,,,,,,,,,,,,,,,,,,,,,,,,,,,,,,,,,,,,,,0,1,1,3,1,,,,,,,,,,,,,,,,,,,,,,,,,,,,,,,,,,,,,,,,,,,,,,
352802,001,2022-11-21_00h28.43.746,Info_measure_main_exp,2022.2.2,Win32,240.3846154,,,,,,,,,,,,,,,,,,masks/mask_005.jpg,,,,,,,,,,,,,,,,,,,,,,,,,,,,,,,,,,,,,,,,,,,0,2,2,4,1,,,,,,,,,,,,,,,,,,,,,,,,,,,,,,,,,,,,,,,,,,,,,,
352802,001,2022-11-21_00h28.43.746,Info_measure_main_exp,2022.2.2,Win32,240.3846154,,,,,,,,,,,,,,,,,,masks/mask_001.jpg,,,,,,,,,,,,,,,,,,,,,,,,,,,,,,,,,,,,,,,,,,,0,3,3,0,1,,,,,,,,,,,,,,,,,,,,,,,,,,,,,,,,,,,,,,,,,,,,,,
352802,001,2022-11-21_00h28.43.746,Info_measure_main_exp,2022.2.2,Win32,240.3846154,,,,,,,,,,,,,,,,,,masks/mask_002.jpg,,,,,,,,,,,,,,,,,,,,,,,,,,,,,,,,,,,,,,,,,,,0,4,4,1,1,,,,,,,,,,,,,,,,,,,,,,,,,,,,,,,,,,,,,,,,,,,,,,
352802,001,2022-11-21_00h28.43.746,Info_measure_main_exp,2022.2.2,Win32,240.3846154,,,,,,,,,,,,,,,,,,masks/mask_004.jpg,,,,,,,,,,,,,,,,,,,,,,,,,,,,,,,,,,,,,,,,,,,,,,,,0,0,0,3,1,,,,,,,,,,,,,,,,,,,,,,,,,,,,,,,,,,,,,,,,,
352802,001,2022-11-21_00h28.43.746,Info_measure_main_exp,2022.2.2,Win32,240.3846154,,,,,,,,,,,,,,,,,,masks/mask_001.jpg,,,,,,,,,,,,,,,,,,,,,,,,,,,,,,,,,,,,,,,,,,,,,,,,0,1,1,0,1,,,,,,,,,,,,,,,,,,,,,,,,,,,,,,,,,,,,,,,,,
352802,001,2022-11-21_00h28.43.746,Info_measure_main_exp,2022.2.2,Win32,240.3846154,,,,,,,,,,,,,,,,,,masks/mask_005.jpg,,,,,,,,,,,,,,,,,,,,,,,,,,,,,,,,,,,,,,,,,,,,,,,,0,2,2,4,1,,,,,,,,,,,,,,,,,,,,,,,,,,,,,,,,,,,,,,,,,
352802,001,2022-11-21_00h28.43.746,Info_measure_main_exp,2022.2.2,Win32,240.3846154,,,,,,,,,,,,,,,,,,masks/mask_003.jpg,,,,,,,,,,,,,,,,,,,,,,,,,,,,,,,,,,,,,,,,,,,,,,,,0,3,3,2,1,,,,,,,,,,,,,,,,,,,,,,,,,,,,,,,,,,,,,,,,,
352802,001,2022-11-21_00h28.43.746,Info_measure_main_exp,2022.2.2,Win32,240.3846154,,,,,,,,,,,,,,,,,,masks/mask_002.jpg,,,,,,,,,,,,,,,,,,,,,,,,,,,,,,,,,,,,,,,,,,,,,,,,0,4,4,1,1,,,,,,,,,,,,,,,,,,,,,,,,,,,,,,,,,,,,,,,,,
352802,001,2022-11-21_00h28.43.746,Info_measure_main_exp,2022.2.2,Win32,240.3846154,,,,,,,,,,,,,,,,,,,,,,,,,,,,,,7,2.096,1,,,,,,,,,,,,0,131,5,5,2082,2238,absent_patch/patch0002082.jpg,absent_patch/patch0002238.jpg,,,,,,,,,,,,,,,,,,,,0.057638889,0.074305556,1,0,0,response1disk,3,0.010416667,0.006944444,1,0,0,center_square,0,2,2,22,1,,,,,,,,,,,,,,,,,,,,,,,
352802,001,2022-11-21_00h28.43.746,Info_measure_main_exp,2022.2.2,Win32,240.3846154,,,,,,,,,,,,,,,,,,masks/mask_001.jpg,,,,,,,,,,,,,,,,,,,,,,,,,,,,,,,,,,,,,,,,,,,0,0,0,0,1,,,,,,,,,,,,,,,,,,,,,,,,,,,,,,,,,,,,,,,,,,,,,,
352802,001,2022-11-21_00h28.43.746,Info_measure_main_exp,2022.2.2,Win32,240.3846154,,,,,,,,,,,,,,,,,,masks/mask_005.jpg,,,,,,,,,,,,,,,,,,,,,,,,,,,,,,,,,,,,,,,,,,,0,1,1,4,1,,,,,,,,,,,,,,,,,,,,,,,,,,,,,,,,,,,,,,,,,,,,,,
352802,001,2022-11-21_00h28.43.746,Info_measure_main_exp,2022.2.2,Win32,240.3846154,,,,,,,,,,,,,,,,,,masks/mask_003.jpg,,,,,,,,,,,,,,,,,,,,,,,,,,,,,,,,,,,,,,,,,,,0,2,2,2,1,,,,,,,,,,,,,,,,,,,,,,,,,,,,,,,,,,,,,,,,,,,,,,
352802,001,2022-11-21_00h28.43.746,Info_measure_main_exp,2022.2.2,Win32,240.3846154,,,,,,,,,,,,,,,,,,masks/mask_002.jpg,,,,,,,,,,,,,,,,,,,,,,,,,,,,,,,,,,,,,,,,,,,0,3,3,1,1,,,,,,,,,,,,,,,,,,,,,,,,,,,,,,,,,,,,,,,,,,,,,,
352802,001,2022-11-21_00h28.43.746,Info_measure_main_exp,2022.2.2,Win32,240.3846154,,,,,,,,,,,,,,,,,,masks/mask_004.jpg,,,,,,,,,,,,,,,,,,,,,,,,,,,,,,,,,,,,,,,,,,,0,4,4,3,1,,,,,,,,,,,,,,,,,,,,,,,,,,,,,,,,,,,,,,,,,,,,,,
352802,001,2022-11-21_00h28.43.746,Info_measure_main_exp,2022.2.2,Win32,240.3846154,,,,,,,,,,,,,,,,,,masks/mask_003.jpg,,,,,,,,,,,,,,,,,,,,,,,,,,,,,,,,,,,,,,,,,,,,,,,,0,0,0,2,1,,,,,,,,,,,,,,,,,,,,,,,,,,,,,,,,,,,,,,,,,
352802,001,2022-11-21_00h28.43.746,Info_measure_main_exp,2022.2.2,Win32,240.3846154,,,,,,,,,,,,,,,,,,masks/mask_004.jpg,,,,,,,,,,,,,,,,,,,,,,,,,,,,,,,,,,,,,,,,,,,,,,,,0,1,1,3,1,,,,,,,,,,,,,,,,,,,,,,,,,,,,,,,,,,,,,,,,,
352802,001,2022-11-21_00h28.43.746,Info_measure_main_exp,2022.2.2,Win32,240.3846154,,,,,,,,,,,,,,,,,,masks/mask_005.jpg,,,,,,,,,,,,,,,,,,,,,,,,,,,,,,,,,,,,,,,,,,,,,,,,0,2,2,4,1,,,,,,,,,,,,,,,,,,,,,,,,,,,,,,,,,,,,,,,,,
352802,001,2022-11-21_00h28.43.746,Info_measure_main_exp,2022.2.2,Win32,240.3846154,,,,,,,,,,,,,,,,,,masks/mask_002.jpg,,,,,,,,,,,,,,,,,,,,,,,,,,,,,,,,,,,,,,,,,,,,,,,,0,3,3,1,1,,,,,,,,,,,,,,,,,,,,,,,,,,,,,,,,,,,,,,,,,
352802,001,2022-11-21_00h28.43.746,Info_measure_main_exp,2022.2.2,Win32,240.3846154,,,,,,,,,,,,,,,,,,masks/mask_001.jpg,,,,,,,,,,,,,,,,,,,,,,,,,,,,,,,,,,,,,,,,,,,,,,,,0,4,4,0,1,,,,,,,,,,,,,,,,,,,,,,,,,,,,,,,,,,,,,,,,,
352802,001,2022-11-21_00h28.43.746,Info_measure_main_exp,2022.2.2,Win32,240.3846154,,,,,,,,,,,,,,,,,,,,,,,,,,,,,,6,1.504,1,,,,,,,,,,,,1,131,5,5,1,2178,present_patch/cong_131_5_a.jpg,absent_patch/patch0002178.jpg,,,,,,,,,,,,,,,,,,,,0.041666667,0.025694444,1,0,0,response1disk,4,0.004166667,0.003472222,1,0,0,center_square,0,3,3,40,1,,,,,,,,,,,,,,,,,,,,,,,
352802,001,2022-11-21_00h28.43.746,Info_measure_main_exp,2022.2.2,Win32,240.3846154,,,,,,,,,,,,,,,,,,masks/mask_003.jpg,,,,,,,,,,,,,,,,,,,,,,,,,,,,,,,,,,,,,,,,,,,0,0,0,2,1,,,,,,,,,,,,,,,,,,,,,,,,,,,,,,,,,,,,,,,,,,,,,,
352802,001,2022-11-21_00h28.43.746,Info_measure_main_exp,2022.2.2,Win32,240.3846154,,,,,,,,,,,,,,,,,,masks/mask_001.jpg,,,,,,,,,,,,,,,,,,,,,,,,,,,,,,,,,,,,,,,,,,,0,1,1,0,1,,,,,,,,,,,,,,,,,,,,,,,,,,,,,,,,,,,,,,,,,,,,,,
352802,001,2022-11-21_00h28.43.746,Info_measure_main_exp,2022.2.2,Win32,240.3846154,,,,,,,,,,,,,,,,,,masks/mask_005.jpg,,,,,,,,,,,,,,,,,,,,,,,,,,,,,,,,,,,,,,,,,,,0,2,2,4,1,,,,,,,,,,,,,,,,,,,,,,,,,,,,,,,,,,,,,,,,,,,,,,
352802,001,2022-11-21_00h28.43.746,Info_measure_main_exp,2022.2.2,Win32,240.3846154,,,,,,,,,,,,,,,,,,masks/mask_002.jpg,,,,,,,,,,,,,,,,,,,,,,,,,,,,,,,,,,,,,,,,,,,0,3,3,1,1,,,,,,,,,,,,,,,,,,,,,,,,,,,,,,,,,,,,,,,,,,,,,,
352802,001,2022-11-21_00h28.43.746,Info_measure_main_exp,2022.2.2,Win32,240.3846154,,,,,,,,,,,,,,,,,,masks/mask_004.jpg,,,,,,,,,,,,,,,,,,,,,,,,,,,,,,,,,,,,,,,,,,,0,4,4,3,1,,,,,,,,,,,,,,,,,,,,,,,,,,,,,,,,,,,,,,,,,,,,,,
352802,001,2022-11-21_00h28.43.746,Info_measure_main_exp,2022.2.2,Win32,240.3846154,,,,,,,,,,,,,,,,,,masks/mask_001.jpg,,,,,,,,,,,,,,,,,,,,,,,,,,,,,,,,,,,,,,,,,,,,,,,,0,0,0,0,1,,,,,,,,,,,,,,,,,,,,,,,,,,,,,,,,,,,,,,,,,
352802,001,2022-11-21_00h28.43.746,Info_measure_main_exp,2022.2.2,Win32,240.3846154,,,,,,,,,,,,,,,,,,masks/mask_003.jpg,,,,,,,,,,,,,,,,,,,,,,,,,,,,,,,,,,,,,,,,,,,,,,,,0,1,1,2,1,,,,,,,,,,,,,,,,,,,,,,,,,,,,,,,,,,,,,,,,,
352802,001,2022-11-21_00h28.43.746,Info_measure_main_exp,2022.2.2,Win32,240.3846154,,,,,,,,,,,,,,,,,,masks/mask_005.jpg,,,,,,,,,,,,,,,,,,,,,,,,,,,,,,,,,,,,,,,,,,,,,,,,0,2,2,4,1,,,,,,,,,,,,,,,,,,,,,,,,,,,,,,,,,,,,,,,,,
352802,001,2022-11-21_00h28.43.746,Info_measure_main_exp,2022.2.2,Win32,240.3846154,,,,,,,,,,,,,,,,,,masks/mask_004.jpg,,,,,,,,,,,,,,,,,,,,,,,,,,,,,,,,,,,,,,,,,,,,,,,,0,3,3,3,1,,,,,,,,,,,,,,,,,,,,,,,,,,,,,,,,,,,,,,,,,
352802,001,2022-11-21_00h28.43.746,Info_measure_main_exp,2022.2.2,Win32,240.3846154,,,,,,,,,,,,,,,,,,masks/mask_002.jpg,,,,,,,,,,,,,,,,,,,,,,,,,,,,,,,,,,,,,,,,,,,,,,,,0,4,4,1,1,,,,,,,,,,,,,,,,,,,,,,,,,,,,,,,,,,,,,,,,,
352802,001,2022-11-21_00h28.43.746,Info_measure_main_exp,2022.2.2,Win32,240.3846154,,,,,,,,,,,,,,,,,,,,,,,,,,,,,,5,1.638,1,,,,,,,,,,,,0,131,5,5,2190,2214,absent_patch/patch0002190.jpg,absent_patch/patch0002214.jpg,,,,,,,,,,,,,,,,,,,,0.05625,-0.013194444,1,0,0,response3disk,5,0.009722222,-0.002777778,1,0,0,center_square,0,4,4,35,1,,,,,,,,,,,,,,,,,,,,,,,
352802,001,2022-11-21_00h28.43.746,Info_measure_main_exp,2022.2.2,Win32,240.3846154,,,,,,,,,,,,,,,,,,masks/mask_004.jpg,,,,,,,,,,,,,,,,,,,,,,,,,,,,,,,,,,,,,,,,,,,0,0,0,3,1,,,,,,,,,,,,,,,,,,,,,,,,,,,,,,,,,,,,,,,,,,,,,,
352802,001,2022-11-21_00h28.43.746,Info_measure_main_exp,2022.2.2,Win32,240.3846154,,,,,,,,,,,,,,,,,,masks/mask_003.jpg,,,,,,,,,,,,,,,,,,,,,,,,,,,,,,,,,,,,,,,,,,,0,1,1,2,1,,,,,,,,,,,,,,,,,,,,,,,,,,,,,,,,,,,,,,,,,,,,,,
352802,001,2022-11-21_00h28.43.746,Info_measure_main_exp,2022.2.2,Win32,240.3846154,,,,,,,,,,,,,,,,,,masks/mask_001.jpg,,,,,,,,,,,,,,,,,,,,,,,,,,,,,,,,,,,,,,,,,,,0,2,2,0,1,,,,,,,,,,,,,,,,,,,,,,,,,,,,,,,,,,,,,,,,,,,,,,
352802,001,2022-11-21_00h28.43.746,Info_measure_main_exp,2022.2.2,Win32,240.3846154,,,,,,,,,,,,,,,,,,masks/mask_005.jpg,,,,,,,,,,,,,,,,,,,,,,,,,,,,,,,,,,,,,,,,,,,0,3,3,4,1,,,,,,,,,,,,,,,,,,,,,,,,,,,,,,,,,,,,,,,,,,,,,,
352802,001,2022-11-21_00h28.43.746,Info_measure_main_exp,2022.2.2,Win32,240.3846154,,,,,,,,,,,,,,,,,,masks/mask_002.jpg,,,,,,,,,,,,,,,,,,,,,,,,,,,,,,,,,,,,,,,,,,,0,4,4,1,1,,,,,,,,,,,,,,,,,,,,,,,,,,,,,,,,,,,,,,,,,,,,,,
352802,001,2022-11-21_00h28.43.746,Info_measure_main_exp,2022.2.2,Win32,240.3846154,,,,,,,,,,,,,,,,,,masks/mask_003.jpg,,,,,,,,,,,,,,,,,,,,,,,,,,,,,,,,,,,,,,,,,,,,,,,,0,0,0,2,1,,,,,,,,,,,,,,,,,,,,,,,,,,,,,,,,,,,,,,,,,
352802,001,2022-11-21_00h28.43.746,Info_measure_main_exp,2022.2.2,Win32,240.3846154,,,,,,,,,,,,,,,,,,masks/mask_004.jpg,,,,,,,,,,,,,,,,,,,,,,,,,,,,,,,,,,,,,,,,,,,,,,,,0,1,1,3,1,,,,,,,,,,,,,,,,,,,,,,,,,,,,,,,,,,,,,,,,,
352802,001,2022-11-21_00h28.43.746,Info_measure_main_exp,2022.2.2,Win32,240.3846154,,,,,,,,,,,,,,,,,,masks/mask_002.jpg,,,,,,,,,,,,,,,,,,,,,,,,,,,,,,,,,,,,,,,,,,,,,,,,0,2,2,1,1,,,,,,,,,,,,,,,,,,,,,,,,,,,,,,,,,,,,,,,,,
352802,001,2022-11-21_00h28.43.746,Info_measure_main_exp,2022.2.2,Win32,240.3846154,,,,,,,,,,,,,,,,,,masks/mask_005.jpg,,,,,,,,,,,,,,,,,,,,,,,,,,,,,,,,,,,,,,,,,,,,,,,,0,3,3,4,1,,,,,,,,,,,,,,,,,,,,,,,,,,,,,,,,,,,,,,,,,
352802,001,2022-11-21_00h28.43.746,Info_measure_main_exp,2022.2.2,Win32,240.3846154,,,,,,,,,,,,,,,,,,masks/mask_001.jpg,,,,,,,,,,,,,,,,,,,,,,,,,,,,,,,,,,,,,,,,,,,,,,,,0,4,4,0,1,,,,,,,,,,,,,,,,,,,,,,,,,,,,,,,,,,,,,,,,,
352802,001,2022-11-21_00h28.43.746,Info_measure_main_exp,2022.2.2,Win32,240.3846154,,,,,,,,,,,,,,,,,,,,,,,,,,,,,,6,1.2,1,,,,,,,,,,,,0,131,5,5,2274,1950,absent_patch/patch0002274.jpg,absent_patch/patch0001950.jpg,,,,,,,,,,,,,,,,,,,,0.040972222,0.019444444,1,0,0,response1disk,6,-0.005555556,-0.001388889,1,0,0,center_square,0,5,5,10,1,,,,,,,,,,,,,,,,,,,,,,,
352802,001,2022-11-21_00h28.43.746,Info_measure_main_exp,2022.2.2,Win32,240.3846154,,,,,,,,,,,,,,,,,,masks/mask_004.jpg,,,,,,,,,,,,,,,,,,,,,,,,,,,,,,,,,,,,,,,,,,,0,0,0,3,1,,,,,,,,,,,,,,,,,,,,,,,,,,,,,,,,,,,,,,,,,,,,,,
352802,001,2022-11-21_00h28.43.746,Info_measure_main_exp,2022.2.2,Win32,240.3846154,,,,,,,,,,,,,,,,,,masks/mask_005.jpg,,,,,,,,,,,,,,,,,,,,,,,,,,,,,,,,,,,,,,,,,,,0,1,1,4,1,,,,,,,,,,,,,,,,,,,,,,,,,,,,,,,,,,,,,,,,,,,,,,
352802,001,2022-11-21_00h28.43.746,Info_measure_main_exp,2022.2.2,Win32,240.3846154,,,,,,,,,,,,,,,,,,masks/mask_001.jpg,,,,,,,,,,,,,,,,,,,,,,,,,,,,,,,,,,,,,,,,,,,0,2,2,0,1,,,,,,,,,,,,,,,,,,,,,,,,,,,,,,,,,,,,,,,,,,,,,,
352802,001,2022-11-21_00h28.43.746,Info_measure_main_exp,2022.2.2,Win32,240.3846154,,,,,,,,,,,,,,,,,,masks/mask_003.jpg,,,,,,,,,,,,,,,,,,,,,,,,,,,,,,,,,,,,,,,,,,,0,3,3,2,1,,,,,,,,,,,,,,,,,,,,,,,,,,,,,,,,,,,,,,,,,,,,,,
352802,001,2022-11-21_00h28.43.746,Info_measure_main_exp,2022.2.2,Win32,240.3846154,,,,,,,,,,,,,,,,,,masks/mask_002.jpg,,,,,,,,,,,,,,,,,,,,,,,,,,,,,,,,,,,,,,,,,,,0,4,4,1,1,,,,,,,,,,,,,,,,,,,,,,,,,,,,,,,,,,,,,,,,,,,,,,
352802,001,2022-11-21_00h28.43.746,Info_measure_main_exp,2022.2.2,Win32,240.3846154,,,,,,,,,,,,,,,,,,masks/mask_001.jpg,,,,,,,,,,,,,,,,,,,,,,,,,,,,,,,,,,,,,,,,,,,,,,,,0,0,0,0,1,,,,,,,,,,,,,,,,,,,,,,,,,,,,,,,,,,,,,,,,,
352802,001,2022-11-21_00h28.43.746,Info_measure_main_exp,2022.2.2,Win32,240.3846154,,,,,,,,,,,,,,,,,,masks/mask_004.jpg,,,,,,,,,,,,,,,,,,,,,,,,,,,,,,,,,,,,,,,,,,,,,,,,0,1,1,3,1,,,,,,,,,,,,,,,,,,,,,,,,,,,,,,,,,,,,,,,,,
352802,001,2022-11-21_00h28.43.746,Info_measure_main_exp,2022.2.2,Win32,240.3846154,,,,,,,,,,,,,,,,,,masks/mask_002.jpg,,,,,,,,,,,,,,,,,,,,,,,,,,,,,,,,,,,,,,,,,,,,,,,,0,2,2,1,1,,,,,,,,,,,,,,,,,,,,,,,,,,,,,,,,,,,,,,,,,
352802,001,2022-11-21_00h28.43.746,Info_measure_main_exp,2022.2.2,Win32,240.3846154,,,,,,,,,,,,,,,,,,masks/mask_003.jpg,,,,,,,,,,,,,,,,,,,,,,,,,,,,,,,,,,,,,,,,,,,,,,,,0,3,3,2,1,,,,,,,,,,,,,,,,,,,,,,,,,,,,,,,,,,,,,,,,,
352802,001,2022-11-21_00h28.43.746,Info_measure_main_exp,2022.2.2,Win32,240.3846154,,,,,,,,,,,,,,,,,,masks/mask_005.jpg,,,,,,,,,,,,,,,,,,,,,,,,,,,,,,,,,,,,,,,,,,,,,,,,0,4,4,4,1,,,,,,,,,,,,,,,,,,,,,,,,,,,,,,,,,,,,,,,,,
352802,001,2022-11-21_00h28.43.746,Info_measure_main_exp,2022.2.2,Win32,240.3846154,,,,,,,,,,,,,,,,,,,,,,,,,,,,,,4,3.437,1,,,,,,,,,,,,0,131,5,5,2142,2154,absent_patch/patch0002142.jpg,absent_patch/patch0002154.jpg,,,,,,,,,,,,,,,,,,,,0.029166667,-0.03125,1,0,0,response3disk,7,0,-0.001388889,1,0,0,center_square,0,6,6,9,1,,,,,,,,,,,,,,,,,,,,,,,
352802,001,2022-11-21_00h28.43.746,Info_measure_main_exp,2022.2.2,Win32,240.3846154,,,,,,,,,,,,,,,,,,masks/mask_005.jpg,,,,,,,,,,,,,,,,,,,,,,,,,,,,,,,,,,,,,,,,,,,0,0,0,4,1,,,,,,,,,,,,,,,,,,,,,,,,,,,,,,,,,,,,,,,,,,,,,,
352802,001,2022-11-21_00h28.43.746,Info_measure_main_exp,2022.2.2,Win32,240.3846154,,,,,,,,,,,,,,,,,,masks/mask_001.jpg,,,,,,,,,,,,,,,,,,,,,,,,,,,,,,,,,,,,,,,,,,,0,1,1,0,1,,,,,,,,,,,,,,,,,,,,,,,,,,,,,,,,,,,,,,,,,,,,,,
352802,001,2022-11-21_00h28.43.746,Info_measure_main_exp,2022.2.2,Win32,240.3846154,,,,,,,,,,,,,,,,,,masks/mask_002.jpg,,,,,,,,,,,,,,,,,,,,,,,,,,,,,,,,,,,,,,,,,,,0,2,2,1,1,,,,,,,,,,,,,,,,,,,,,,,,,,,,,,,,,,,,,,,,,,,,,,
352802,001,2022-11-21_00h28.43.746,Info_measure_main_exp,2022.2.2,Win32,240.3846154,,,,,,,,,,,,,,,,,,masks/mask_004.jpg,,,,,,,,,,,,,,,,,,,,,,,,,,,,,,,,,,,,,,,,,,,0,3,3,3,1,,,,,,,,,,,,,,,,,,,,,,,,,,,,,,,,,,,,,,,,,,,,,,
352802,001,2022-11-21_00h28.43.746,Info_measure_main_exp,2022.2.2,Win32,240.3846154,,,,,,,,,,,,,,,,,,masks/mask_003.jpg,,,,,,,,,,,,,,,,,,,,,,,,,,,,,,,,,,,,,,,,,,,0,4,4,2,1,,,,,,,,,,,,,,,,,,,,,,,,,,,,,,,,,,,,,,,,,,,,,,
352802,001,2022-11-21_00h28.43.746,Info_measure_main_exp,2022.2.2,Win32,240.3846154,,,,,,,,,,,,,,,,,,masks/mask_004.jpg,,,,,,,,,,,,,,,,,,,,,,,,,,,,,,,,,,,,,,,,,,,,,,,,0,0,0,3,1,,,,,,,,,,,,,,,,,,,,,,,,,,,,,,,,,,,,,,,,,
352802,001,2022-11-21_00h28.43.746,Info_measure_main_exp,2022.2.2,Win32,240.3846154,,,,,,,,,,,,,,,,,,masks/mask_001.jpg,,,,,,,,,,,,,,,,,,,,,,,,,,,,,,,,,,,,,,,,,,,,,,,,0,1,1,0,1,,,,,,,,,,,,,,,,,,,,,,,,,,,,,,,,,,,,,,,,,
352802,001,2022-11-21_00h28.43.746,Info_measure_main_exp,2022.2.2,Win32,240.3846154,,,,,,,,,,,,,,,,,,masks/mask_002.jpg,,,,,,,,,,,,,,,,,,,,,,,,,,,,,,,,,,,,,,,,,,,,,,,,0,2,2,1,1,,,,,,,,,,,,,,,,,,,,,,,,,,,,,,,,,,,,,,,,,
352802,001,2022-11-21_00h28.43.746,Info_measure_main_exp,2022.2.2,Win32,240.3846154,,,,,,,,,,,,,,,,,,masks/mask_003.jpg,,,,,,,,,,,,,,,,,,,,,,,,,,,,,,,,,,,,,,,,,,,,,,,,0,3,3,2,1,,,,,,,,,,,,,,,,,,,,,,,,,,,,,,,,,,,,,,,,,
352802,001,2022-11-21_00h28.43.746,Info_measure_main_exp,2022.2.2,Win32,240.3846154,,,,,,,,,,,,,,,,,,masks/mask_005.jpg,,,,,,,,,,,,,,,,,,,,,,,,,,,,,,,,,,,,,,,,,,,,,,,,0,4,4,4,1,,,,,,,,,,,,,,,,,,,,,,,,,,,,,,,,,,,,,,,,,
352802,001,2022-11-21_00h28.43.746,Info_measure_main_exp,2022.2.2,Win32,240.3846154,,,,,,,,,,,,,,,,,,,,,,,,,,,,,,5,1.513,1,,,,,,,,,,,,0,131,5,5,2190,2238,absent_patch/patch0002190.jpg,absent_patch/patch0002238.jpg,,,,,,,,,,,,,,,,,,,,0.052777778,-0.005555556,1,0,0,response3disk,8,0.005555556,-0.001388889,1,0,0,center_square,0,7,7,53,1,,,,,,,,,,,,,,,,,,,,,,,
352802,001,2022-11-21_00h28.43.746,Info_measure_main_exp,2022.2.2,Win32,240.3846154,,,,,,,,,,,,,,,,,,masks/mask_005.jpg,,,,,,,,,,,,,,,,,,,,,,,,,,,,,,,,,,,,,,,,,,,0,0,0,4,1,,,,,,,,,,,,,,,,,,,,,,,,,,,,,,,,,,,,,,,,,,,,,,
352802,001,2022-11-21_00h28.43.746,Info_measure_main_exp,2022.2.2,Win32,240.3846154,,,,,,,,,,,,,,,,,,masks/mask_001.jpg,,,,,,,,,,,,,,,,,,,,,,,,,,,,,,,,,,,,,,,,,,,0,1,1,0,1,,,,,,,,,,,,,,,,,,,,,,,,,,,,,,,,,,,,,,,,,,,,,,
352802,001,2022-11-21_00h28.43.746,Info_measure_main_exp,2022.2.2,Win32,240.3846154,,,,,,,,,,,,,,,,,,masks/mask_002.jpg,,,,,,,,,,,,,,,,,,,,,,,,,,,,,,,,,,,,,,,,,,,0,2,2,1,1,,,,,,,,,,,,,,,,,,,,,,,,,,,,,,,,,,,,,,,,,,,,,,
352802,001,2022-11-21_00h28.43.746,Info_measure_main_exp,2022.2.2,Win32,240.3846154,,,,,,,,,,,,,,,,,,masks/mask_004.jpg,,,,,,,,,,,,,,,,,,,,,,,,,,,,,,,,,,,,,,,,,,,0,3,3,3,1,,,,,,,,,,,,,,,,,,,,,,,,,,,,,,,,,,,,,,,,,,,,,,
352802,001,2022-11-21_00h28.43.746,Info_measure_main_exp,2022.2.2,Win32,240.3846154,,,,,,,,,,,,,,,,,,masks/mask_003.jpg,,,,,,,,,,,,,,,,,,,,,,,,,,,,,,,,,,,,,,,,,,,0,4,4,2,1,,,,,,,,,,,,,,,,,,,,,,,,,,,,,,,,,,,,,,,,,,,,,,
352802,001,2022-11-21_00h28.43.746,Info_measure_main_exp,2022.2.2,Win32,240.3846154,,,,,,,,,,,,,,,,,,masks/mask_005.jpg,,,,,,,,,,,,,,,,,,,,,,,,,,,,,,,,,,,,,,,,,,,,,,,,0,0,0,4,1,,,,,,,,,,,,,,,,,,,,,,,,,,,,,,,,,,,,,,,,,
352802,001,2022-11-21_00h28.43.746,Info_measure_main_exp,2022.2.2,Win32,240.3846154,,,,,,,,,,,,,,,,,,masks/mask_004.jpg,,,,,,,,,,,,,,,,,,,,,,,,,,,,,,,,,,,,,,,,,,,,,,,,0,1,1,3,1,,,,,,,,,,,,,,,,,,,,,,,,,,,,,,,,,,,,,,,,,
352802,001,2022-11-21_00h28.43.746,Info_measure_main_exp,2022.2.2,Win32,240.3846154,,,,,,,,,,,,,,,,,,masks/mask_002.jpg,,,,,,,,,,,,,,,,,,,,,,,,,,,,,,,,,,,,,,,,,,,,,,,,0,2,2,1,1,,,,,,,,,,,,,,,,,,,,,,,,,,,,,,,,,,,,,,,,,
352802,001,2022-11-21_00h28.43.746,Info_measure_main_exp,2022.2.2,Win32,240.3846154,,,,,,,,,,,,,,,,,,masks/mask_001.jpg,,,,,,,,,,,,,,,,,,,,,,,,,,,,,,,,,,,,,,,,,,,,,,,,0,3,3,0,1,,,,,,,,,,,,,,,,,,,,,,,,,,,,,,,,,,,,,,,,,
352802,001,2022-11-21_00h28.43.746,Info_measure_main_exp,2022.2.2,Win32,240.3846154,,,,,,,,,,,,,,,,,,masks/mask_003.jpg,,,,,,,,,,,,,,,,,,,,,,,,,,,,,,,,,,,,,,,,,,,,,,,,0,4,4,2,1,,,,,,,,,,,,,,,,,,,,,,,,,,,,,,,,,,,,,,,,,
352802,001,2022-11-21_00h28.43.746,Info_measure_main_exp,2022.2.2,Win32,240.3846154,,,,,,,,,,,,,,,,,,,,,,,,,,,,,,0,1.037,1,,,,,,,,,,,,0,131,5,5,2142,2142,absent_patch/patch0002142.jpg,absent_patch/patch0002142.jpg,,,,,,,,,,,,,,,,,,,,-0.01875,0.111805556,1,0,0,response7disk,9,0.006944444,-0.002083333,1,0,0,center_square,0,8,8,13,1,,,,,,,,,,,,,,,,,,,,,,,
352802,001,2022-11-21_00h28.43.746,Info_measure_main_exp,2022.2.2,Win32,240.3846154,,,,,,,,,,,,,,,,,,masks/mask_004.jpg,,,,,,,,,,,,,,,,,,,,,,,,,,,,,,,,,,,,,,,,,,,0,0,0,3,1,,,,,,,,,,,,,,,,,,,,,,,,,,,,,,,,,,,,,,,,,,,,,,
352802,001,2022-11-21_00h28.43.746,Info_measure_main_exp,2022.2.2,Win32,240.3846154,,,,,,,,,,,,,,,,,,masks/mask_002.jpg,,,,,,,,,,,,,,,,,,,,,,,,,,,,,,,,,,,,,,,,,,,0,1,1,1,1,,,,,,,,,,,,,,,,,,,,,,,,,,,,,,,,,,,,,,,,,,,,,,
352802,001,2022-11-21_00h28.43.746,Info_measure_main_exp,2022.2.2,Win32,240.3846154,,,,,,,,,,,,,,,,,,masks/mask_003.jpg,,,,,,,,,,,,,,,,,,,,,,,,,,,,,,,,,,,,,,,,,,,0,2,2,2,1,,,,,,,,,,,,,,,,,,,,,,,,,,,,,,,,,,,,,,,,,,,,,,
352802,001,2022-11-21_00h28.43.746,Info_measure_main_exp,2022.2.2,Win32,240.3846154,,,,,,,,,,,,,,,,,,masks/mask_005.jpg,,,,,,,,,,,,,,,,,,,,,,,,,,,,,,,,,,,,,,,,,,,0,3,3,4,1,,,,,,,,,,,,,,,,,,,,,,,,,,,,,,,,,,,,,,,,,,,,,,
352802,001,2022-11-21_00h28.43.746,Info_measure_main_exp,2022.2.2,Win32,240.3846154,,,,,,,,,,,,,,,,,,masks/mask_001.jpg,,,,,,,,,,,,,,,,,,,,,,,,,,,,,,,,,,,,,,,,,,,0,4,4,0,1,,,,,,,,,,,,,,,,,,,,,,,,,,,,,,,,,,,,,,,,,,,,,,
352802,001,2022-11-21_00h28.43.746,Info_measure_main_exp,2022.2.2,Win32,240.3846154,,,,,,,,,,,,,,,,,,masks/mask_001.jpg,,,,,,,,,,,,,,,,,,,,,,,,,,,,,,,,,,,,,,,,,,,,,,,,0,0,0,0,1,,,,,,,,,,,,,,,,,,,,,,,,,,,,,,,,,,,,,,,,,
352802,001,2022-11-21_00h28.43.746,Info_measure_main_exp,2022.2.2,Win32,240.3846154,,,,,,,,,,,,,,,,,,masks/mask_004.jpg,,,,,,,,,,,,,,,,,,,,,,,,,,,,,,,,,,,,,,,,,,,,,,,,0,1,1,3,1,,,,,,,,,,,,,,,,,,,,,,,,,,,,,,,,,,,,,,,,,
352802,001,2022-11-21_00h28.43.746,Info_measure_main_exp,2022.2.2,Win32,240.3846154,,,,,,,,,,,,,,,,,,masks/mask_002.jpg,,,,,,,,,,,,,,,,,,,,,,,,,,,,,,,,,,,,,,,,,,,,,,,,0,2,2,1,1,,,,,,,,,,,,,,,,,,,,,,,,,,,,,,,,,,,,,,,,,
352802,001,2022-11-21_00h28.43.746,Info_measure_main_exp,2022.2.2,Win32,240.3846154,,,,,,,,,,,,,,,,,,masks/mask_005.jpg,,,,,,,,,,,,,,,,,,,,,,,,,,,,,,,,,,,,,,,,,,,,,,,,0,3,3,4,1,,,,,,,,,,,,,,,,,,,,,,,,,,,,,,,,,,,,,,,,,
352802,001,2022-11-21_00h28.43.746,Info_measure_main_exp,2022.2.2,Win32,240.3846154,,,,,,,,,,,,,,,,,,masks/mask_003.jpg,,,,,,,,,,,,,,,,,,,,,,,,,,,,,,,,,,,,,,,,,,,,,,,,0,4,4,2,1,,,,,,,,,,,,,,,,,,,,,,,,,,,,,,,,,,,,,,,,,
352802,001,2022-11-21_00h28.43.746,Info_measure_main_exp,2022.2.2,Win32,240.3846154,,,,,,,,,,,,,,,,,,,,,,,,,,,,,,6,4.708,1,,,,,,,,,,,,0,131,5,5,2142,2190,absent_patch/patch0002142.jpg,absent_patch/patch0002190.jpg,,,,,,,,,,,,,,,,,,,,0.065277778,0.007638889,1,0,0,response1disk,10,-0.0125,0,1,0,0,center_square,0,9,9,70,1,,,,,,,,,,,,,,,,,,,,,,,
352802,001,2022-11-21_00h28.43.746,Info_measure_main_exp,2022.2.2,Win32,240.3846154,,,,,,,,,,,,,,,,,,masks/mask_003.jpg,,,,,,,,,,,,,,,,,,,,,,,,,,,,,,,,,,,,,,,,,,,0,0,0,2,1,,,,,,,,,,,,,,,,,,,,,,,,,,,,,,,,,,,,,,,,,,,,,,
352802,001,2022-11-21_00h28.43.746,Info_measure_main_exp,2022.2.2,Win32,240.3846154,,,,,,,,,,,,,,,,,,masks/mask_001.jpg,,,,,,,,,,,,,,,,,,,,,,,,,,,,,,,,,,,,,,,,,,,0,1,1,0,1,,,,,,,,,,,,,,,,,,,,,,,,,,,,,,,,,,,,,,,,,,,,,,
352802,001,2022-11-21_00h28.43.746,Info_measure_main_exp,2022.2.2,Win32,240.3846154,,,,,,,,,,,,,,,,,,masks/mask_002.jpg,,,,,,,,,,,,,,,,,,,,,,,,,,,,,,,,,,,,,,,,,,,0,2,2,1,1,,,,,,,,,,,,,,,,,,,,,,,,,,,,,,,,,,,,,,,,,,,,,,
352802,001,2022-11-21_00h28.43.746,Info_measure_main_exp,2022.2.2,Win32,240.3846154,,,,,,,,,,,,,,,,,,masks/mask_004.jpg,,,,,,,,,,,,,,,,,,,,,,,,,,,,,,,,,,,,,,,,,,,0,3,3,3,1,,,,,,,,,,,,,,,,,,,,,,,,,,,,,,,,,,,,,,,,,,,,,,
352802,001,2022-11-21_00h28.43.746,Info_measure_main_exp,2022.2.2,Win32,240.3846154,,,,,,,,,,,,,,,,,,masks/mask_005.jpg,,,,,,,,,,,,,,,,,,,,,,,,,,,,,,,,,,,,,,,,,,,0,4,4,4,1,,,,,,,,,,,,,,,,,,,,,,,,,,,,,,,,,,,,,,,,,,,,,,
352802,001,2022-11-21_00h28.43.746,Info_measure_main_exp,2022.2.2,Win32,240.3846154,,,,,,,,,,,,,,,,,,masks/mask_003.jpg,,,,,,,,,,,,,,,,,,,,,,,,,,,,,,,,,,,,,,,,,,,,,,,,0,0,0,2,1,,,,,,,,,,,,,,,,,,,,,,,,,,,,,,,,,,,,,,,,,
352802,001,2022-11-21_00h28.43.746,Info_measure_main_exp,2022.2.2,Win32,240.3846154,,,,,,,,,,,,,,,,,,masks/mask_001.jpg,,,,,,,,,,,,,,,,,,,,,,,,,,,,,,,,,,,,,,,,,,,,,,,,0,1,1,0,1,,,,,,,,,,,,,,,,,,,,,,,,,,,,,,,,,,,,,,,,,
352802,001,2022-11-21_00h28.43.746,Info_measure_main_exp,2022.2.2,Win32,240.3846154,,,,,,,,,,,,,,,,,,masks/mask_005.jpg,,,,,,,,,,,,,,,,,,,,,,,,,,,,,,,,,,,,,,,,,,,,,,,,0,2,2,4,1,,,,,,,,,,,,,,,,,,,,,,,,,,,,,,,,,,,,,,,,,
352802,001,2022-11-21_00h28.43.746,Info_measure_main_exp,2022.2.2,Win32,240.3846154,,,,,,,,,,,,,,,,,,masks/mask_002.jpg,,,,,,,,,,,,,,,,,,,,,,,,,,,,,,,,,,,,,,,,,,,,,,,,0,3,3,1,1,,,,,,,,,,,,,,,,,,,,,,,,,,,,,,,,,,,,,,,,,
352802,001,2022-11-21_00h28.43.746,Info_measure_main_exp,2022.2.2,Win32,240.3846154,,,,,,,,,,,,,,,,,,masks/mask_004.jpg,,,,,,,,,,,,,,,,,,,,,,,,,,,,,,,,,,,,,,,,,,,,,,,,0,4,4,3,1,,,,,,,,,,,,,,,,,,,,,,,,,,,,,,,,,,,,,,,,,
352802,001,2022-11-21_00h28.43.746,Info_measure_main_exp,2022.2.2,Win32,240.3846154,,,,,,,,,,,,,,,,,,,,,,,,,,,,,,5,2.334,1,,,,,,,,,,,,0,131,5,5,2298,2274,absent_patch/patch0002298.jpg,absent_patch/patch0002274.jpg,,,,,,,,,,,,,,,,,,,,0.080555556,-0.021527778,1,0,0,response3disk,11,0.004861111,-0.00625,1,0,0,center_square,0,10,10,1,1,,,,,,,,,,,,,,,,,,,,,,,
352802,001,2022-11-21_00h28.43.746,Info_measure_main_exp,2022.2.2,Win32,240.3846154,,,,,,,,,,,,,,,,,,masks/mask_001.jpg,,,,,,,,,,,,,,,,,,,,,,,,,,,,,,,,,,,,,,,,,,,0,0,0,0,1,,,,,,,,,,,,,,,,,,,,,,,,,,,,,,,,,,,,,,,,,,,,,,
352802,001,2022-11-21_00h28.43.746,Info_measure_main_exp,2022.2.2,Win32,240.3846154,,,,,,,,,,,,,,,,,,masks/mask_004.jpg,,,,,,,,,,,,,,,,,,,,,,,,,,,,,,,,,,,,,,,,,,,0,1,1,3,1,,,,,,,,,,,,,,,,,,,,,,,,,,,,,,,,,,,,,,,,,,,,,,
352802,001,2022-11-21_00h28.43.746,Info_measure_main_exp,2022.2.2,Win32,240.3846154,,,,,,,,,,,,,,,,,,masks/mask_003.jpg,,,,,,,,,,,,,,,,,,,,,,,,,,,,,,,,,,,,,,,,,,,0,2,2,2,1,,,,,,,,,,,,,,,,,,,,,,,,,,,,,,,,,,,,,,,,,,,,,,
352802,001,2022-11-21_00h28.43.746,Info_measure_main_exp,2022.2.2,Win32,240.3846154,,,,,,,,,,,,,,,,,,masks/mask_005.jpg,,,,,,,,,,,,,,,,,,,,,,,,,,,,,,,,,,,,,,,,,,,0,3,3,4,1,,,,,,,,,,,,,,,,,,,,,,,,,,,,,,,,,,,,,,,,,,,,,,
352802,001,2022-11-21_00h28.43.746,Info_measure_main_exp,2022.2.2,Win32,240.3846154,,,,,,,,,,,,,,,,,,masks/mask_002.jpg,,,,,,,,,,,,,,,,,,,,,,,,,,,,,,,,,,,,,,,,,,,0,4,4,1,1,,,,,,,,,,,,,,,,,,,,,,,,,,,,,,,,,,,,,,,,,,,,,,
352802,001,2022-11-21_00h28.43.746,Info_measure_main_exp,2022.2.2,Win32,240.3846154,,,,,,,,,,,,,,,,,,masks/mask_001.jpg,,,,,,,,,,,,,,,,,,,,,,,,,,,,,,,,,,,,,,,,,,,,,,,,0,0,0,0,1,,,,,,,,,,,,,,,,,,,,,,,,,,,,,,,,,,,,,,,,,
352802,001,2022-11-21_00h28.43.746,Info_measure_main_exp,2022.2.2,Win32,240.3846154,,,,,,,,,,,,,,,,,,masks/mask_004.jpg,,,,,,,,,,,,,,,,,,,,,,,,,,,,,,,,,,,,,,,,,,,,,,,,0,1,1,3,1,,,,,,,,,,,,,,,,,,,,,,,,,,,,,,,,,,,,,,,,,
352802,001,2022-11-21_00h28.43.746,Info_measure_main_exp,2022.2.2,Win32,240.3846154,,,,,,,,,,,,,,,,,,masks/mask_003.jpg,,,,,,,,,,,,,,,,,,,,,,,,,,,,,,,,,,,,,,,,,,,,,,,,0,2,2,2,1,,,,,,,,,,,,,,,,,,,,,,,,,,,,,,,,,,,,,,,,,
352802,001,2022-11-21_00h28.43.746,Info_measure_main_exp,2022.2.2,Win32,240.3846154,,,,,,,,,,,,,,,,,,masks/mask_002.jpg,,,,,,,,,,,,,,,,,,,,,,,,,,,,,,,,,,,,,,,,,,,,,,,,0,3,3,1,1,,,,,,,,,,,,,,,,,,,,,,,,,,,,,,,,,,,,,,,,,
352802,001,2022-11-21_00h28.43.746,Info_measure_main_exp,2022.2.2,Win32,240.3846154,,,,,,,,,,,,,,,,,,masks/mask_005.jpg,,,,,,,,,,,,,,,,,,,,,,,,,,,,,,,,,,,,,,,,,,,,,,,,0,4,4,4,1,,,,,,,,,,,,,,,,,,,,,,,,,,,,,,,,,,,,,,,,,
352802,001,2022-11-21_00h28.43.746,Info_measure_main_exp,2022.2.2,Win32,240.3846154,,,,,,,,,,,,,,,,,,,,,,,,,,,,,,1,2.559,1,,,,,,,,,,,,0,131,5,5,1986,2154,absent_patch/patch0001986.jpg,absent_patch/patch0002154.jpg,,,,,,,,,,,,,,,,,,,,-0.1,0.017361111,1,0,0,response7disk,12,-0.00625,0.015277778,1,0,0,center_square,0,11,11,36,1,,,,,,,,,,,,,,,,,,,,,,,
352802,001,2022-11-21_00h28.43.746,Info_measure_main_exp,2022.2.2,Win32,240.3846154,,,,,,,,,,,,,,,,,,masks/mask_005.jpg,,,,,,,,,,,,,,,,,,,,,,,,,,,,,,,,,,,,,,,,,,,0,0,0,4,1,,,,,,,,,,,,,,,,,,,,,,,,,,,,,,,,,,,,,,,,,,,,,,
352802,001,2022-11-21_00h28.43.746,Info_measure_main_exp,2022.2.2,Win32,240.3846154,,,,,,,,,,,,,,,,,,masks/mask_003.jpg,,,,,,,,,,,,,,,,,,,,,,,,,,,,,,,,,,,,,,,,,,,0,1,1,2,1,,,,,,,,,,,,,,,,,,,,,,,,,,,,,,,,,,,,,,,,,,,,,,
352802,001,2022-11-21_00h28.43.746,Info_measure_main_exp,2022.2.2,Win32,240.3846154,,,,,,,,,,,,,,,,,,masks/mask_002.jpg,,,,,,,,,,,,,,,,,,,,,,,,,,,,,,,,,,,,,,,,,,,0,2,2,1,1,,,,,,,,,,,,,,,,,,,,,,,,,,,,,,,,,,,,,,,,,,,,,,
352802,001,2022-11-21_00h28.43.746,Info_measure_main_exp,2022.2.2,Win32,240.3846154,,,,,,,,,,,,,,,,,,masks/mask_001.jpg,,,,,,,,,,,,,,,,,,,,,,,,,,,,,,,,,,,,,,,,,,,0,3,3,0,1,,,,,,,,,,,,,,,,,,,,,,,,,,,,,,,,,,,,,,,,,,,,,,
352802,001,2022-11-21_00h28.43.746,Info_measure_main_exp,2022.2.2,Win32,240.3846154,,,,,,,,,,,,,,,,,,masks/mask_004.jpg,,,,,,,,,,,,,,,,,,,,,,,,,,,,,,,,,,,,,,,,,,,0,4,4,3,1,,,,,,,,,,,,,,,,,,,,,,,,,,,,,,,,,,,,,,,,,,,,,,
352802,001,2022-11-21_00h28.43.746,Info_measure_main_exp,2022.2.2,Win32,240.3846154,,,,,,,,,,,,,,,,,,masks/mask_002.jpg,,,,,,,,,,,,,,,,,,,,,,,,,,,,,,,,,,,,,,,,,,,,,,,,0,0,0,1,1,,,,,,,,,,,,,,,,,,,,,,,,,,,,,,,,,,,,,,,,,
352802,001,2022-11-21_00h28.43.746,Info_measure_main_exp,2022.2.2,Win32,240.3846154,,,,,,,,,,,,,,,,,,masks/mask_005.jpg,,,,,,,,,,,,,,,,,,,,,,,,,,,,,,,,,,,,,,,,,,,,,,,,0,1,1,4,1,,,,,,,,,,,,,,,,,,,,,,,,,,,,,,,,,,,,,,,,,
352802,001,2022-11-21_00h28.43.746,Info_measure_main_exp,2022.2.2,Win32,240.3846154,,,,,,,,,,,,,,,,,,masks/mask_003.jpg,,,,,,,,,,,,,,,,,,,,,,,,,,,,,,,,,,,,,,,,,,,,,,,,0,2,2,2,1,,,,,,,,,,,,,,,,,,,,,,,,,,,,,,,,,,,,,,,,,
352802,001,2022-11-21_00h28.43.746,Info_measure_main_exp,2022.2.2,Win32,240.3846154,,,,,,,,,,,,,,,,,,masks/mask_001.jpg,,,,,,,,,,,,,,,,,,,,,,,,,,,,,,,,,,,,,,,,,,,,,,,,0,3,3,0,1,,,,,,,,,,,,,,,,,,,,,,,,,,,,,,,,,,,,,,,,,
352802,001,2022-11-21_00h28.43.746,Info_measure_main_exp,2022.2.2,Win32,240.3846154,,,,,,,,,,,,,,,,,,masks/mask_004.jpg,,,,,,,,,,,,,,,,,,,,,,,,,,,,,,,,,,,,,,,,,,,,,,,,0,4,4,3,1,,,,,,,,,,,,,,,,,,,,,,,,,,,,,,,,,,,,,,,,,
352802,001,2022-11-21_00h28.43.746,Info_measure_main_exp,2022.2.2,Win32,240.3846154,,,,,,,,,,,,,,,,,,,,,,,,,,,,,,5,2.622,1,,,,,,,,,,,,0,131,5,5,2190,1950,absent_patch/patch0002190.jpg,absent_patch/patch0001950.jpg,,,,,,,,,,,,,,,,,,,,0.0375,-0.004861111,1,0,0,response3disk,13,-0.004861111,0.003472222,1,0,0,center_square,0,12,12,73,1,,,,,,,,,,,,,,,,,,,,,,,
352802,001,2022-11-21_00h28.43.746,Info_measure_main_exp,2022.2.2,Win32,240.3846154,,,,,,,,,,,,,,,,,,masks/mask_004.jpg,,,,,,,,,,,,,,,,,,,,,,,,,,,,,,,,,,,,,,,,,,,0,0,0,3,1,,,,,,,,,,,,,,,,,,,,,,,,,,,,,,,,,,,,,,,,,,,,,,
352802,001,2022-11-21_00h28.43.746,Info_measure_main_exp,2022.2.2,Win32,240.3846154,,,,,,,,,,,,,,,,,,masks/mask_001.jpg,,,,,,,,,,,,,,,,,,,,,,,,,,,,,,,,,,,,,,,,,,,0,1,1,0,1,,,,,,,,,,,,,,,,,,,,,,,,,,,,,,,,,,,,,,,,,,,,,,
352802,001,2022-11-21_00h28.43.746,Info_measure_main_exp,2022.2.2,Win32,240.3846154,,,,,,,,,,,,,,,,,,masks/mask_002.jpg,,,,,,,,,,,,,,,,,,,,,,,,,,,,,,,,,,,,,,,,,,,0,2,2,1,1,,,,,,,,,,,,,,,,,,,,,,,,,,,,,,,,,,,,,,,,,,,,,,
352802,001,2022-11-21_00h28.43.746,Info_measure_main_exp,2022.2.2,Win32,240.3846154,,,,,,,,,,,,,,,,,,masks/mask_003.jpg,,,,,,,,,,,,,,,,,,,,,,,,,,,,,,,,,,,,,,,,,,,0,3,3,2,1,,,,,,,,,,,,,,,,,,,,,,,,,,,,,,,,,,,,,,,,,,,,,,
352802,001,2022-11-21_00h28.43.746,Info_measure_main_exp,2022.2.2,Win32,240.3846154,,,,,,,,,,,,,,,,,,masks/mask_005.jpg,,,,,,,,,,,,,,,,,,,,,,,,,,,,,,,,,,,,,,,,,,,0,4,4,4,1,,,,,,,,,,,,,,,,,,,,,,,,,,,,,,,,,,,,,,,,,,,,,,
352802,001,2022-11-21_00h28.43.746,Info_measure_main_exp,2022.2.2,Win32,240.3846154,,,,,,,,,,,,,,,,,,masks/mask_005.jpg,,,,,,,,,,,,,,,,,,,,,,,,,,,,,,,,,,,,,,,,,,,,,,,,0,0,0,4,1,,,,,,,,,,,,,,,,,,,,,,,,,,,,,,,,,,,,,,,,,
352802,001,2022-11-21_00h28.43.746,Info_measure_main_exp,2022.2.2,Win32,240.3846154,,,,,,,,,,,,,,,,,,masks/mask_001.jpg,,,,,,,,,,,,,,,,,,,,,,,,,,,,,,,,,,,,,,,,,,,,,,,,0,1,1,0,1,,,,,,,,,,,,,,,,,,,,,,,,,,,,,,,,,,,,,,,,,
352802,001,2022-11-21_00h28.43.746,Info_measure_main_exp,2022.2.2,Win32,240.3846154,,,,,,,,,,,,,,,,,,masks/mask_004.jpg,,,,,,,,,,,,,,,,,,,,,,,,,,,,,,,,,,,,,,,,,,,,,,,,0,2,2,3,1,,,,,,,,,,,,,,,,,,,,,,,,,,,,,,,,,,,,,,,,,
352802,001,2022-11-21_00h28.43.746,Info_measure_main_exp,2022.2.2,Win32,240.3846154,,,,,,,,,,,,,,,,,,masks/mask_002.jpg,,,,,,,,,,,,,,,,,,,,,,,,,,,,,,,,,,,,,,,,,,,,,,,,0,3,3,1,1,,,,,,,,,,,,,,,,,,,,,,,,,,,,,,,,,,,,,,,,,
352802,001,2022-11-21_00h28.43.746,Info_measure_main_exp,2022.2.2,Win32,240.3846154,,,,,,,,,,,,,,,,,,masks/mask_003.jpg,,,,,,,,,,,,,,,,,,,,,,,,,,,,,,,,,,,,,,,,,,,,,,,,0,4,4,2,1,,,,,,,,,,,,,,,,,,,,,,,,,,,,,,,,,,,,,,,,,
352802,001,2022-11-21_00h28.43.746,Info_measure_main_exp,2022.2.2,Win32,240.3846154,,,,,,,,,,,,,,,,,,,,,,,,,,,,,,6,1.362,1,,,,,,,,,,,,0,131,5,5,2250,2214,absent_patch/patch0002250.jpg,absent_patch/patch0002214.jpg,,,,,,,,,,,,,,,,,,,,0.029861111,0.015972222,1,0,0,response1disk,14,0.011111111,0.006944444,1,0,0,center_square,0,13,13,97,1,,,,,,,,,,,,,,,,,,,,,,,
352802,001,2022-11-21_00h28.43.746,Info_measure_main_exp,2022.2.2,Win32,240.3846154,,,,,,,,,,,,,,,,,,masks/mask_001.jpg,,,,,,,,,,,,,,,,,,,,,,,,,,,,,,,,,,,,,,,,,,,0,0,0,0,1,,,,,,,,,,,,,,,,,,,,,,,,,,,,,,,,,,,,,,,,,,,,,,
352802,001,2022-11-21_00h28.43.746,Info_measure_main_exp,2022.2.2,Win32,240.3846154,,,,,,,,,,,,,,,,,,masks/mask_003.jpg,,,,,,,,,,,,,,,,,,,,,,,,,,,,,,,,,,,,,,,,,,,0,1,1,2,1,,,,,,,,,,,,,,,,,,,,,,,,,,,,,,,,,,,,,,,,,,,,,,
352802,001,2022-11-21_00h28.43.746,Info_measure_main_exp,2022.2.2,Win32,240.3846154,,,,,,,,,,,,,,,,,,masks/mask_002.jpg,,,,,,,,,,,,,,,,,,,,,,,,,,,,,,,,,,,,,,,,,,,0,2,2,1,1,,,,,,,,,,,,,,,,,,,,,,,,,,,,,,,,,,,,,,,,,,,,,,
352802,001,2022-11-21_00h28.43.746,Info_measure_main_exp,2022.2.2,Win32,240.3846154,,,,,,,,,,,,,,,,,,masks/mask_005.jpg,,,,,,,,,,,,,,,,,,,,,,,,,,,,,,,,,,,,,,,,,,,0,3,3,4,1,,,,,,,,,,,,,,,,,,,,,,,,,,,,,,,,,,,,,,,,,,,,,,
352802,001,2022-11-21_00h28.43.746,Info_measure_main_exp,2022.2.2,Win32,240.3846154,,,,,,,,,,,,,,,,,,masks/mask_004.jpg,,,,,,,,,,,,,,,,,,,,,,,,,,,,,,,,,,,,,,,,,,,0,4,4,3,1,,,,,,,,,,,,,,,,,,,,,,,,,,,,,,,,,,,,,,,,,,,,,,
352802,001,2022-11-21_00h28.43.746,Info_measure_main_exp,2022.2.2,Win32,240.3846154,,,,,,,,,,,,,,,,,,masks/mask_004.jpg,,,,,,,,,,,,,,,,,,,,,,,,,,,,,,,,,,,,,,,,,,,,,,,,0,0,0,3,1,,,,,,,,,,,,,,,,,,,,,,,,,,,,,,,,,,,,,,,,,
352802,001,2022-11-21_00h28.43.746,Info_measure_main_exp,2022.2.2,Win32,240.3846154,,,,,,,,,,,,,,,,,,masks/mask_001.jpg,,,,,,,,,,,,,,,,,,,,,,,,,,,,,,,,,,,,,,,,,,,,,,,,0,1,1,0,1,,,,,,,,,,,,,,,,,,,,,,,,,,,,,,,,,,,,,,,,,
352802,001,2022-11-21_00h28.43.746,Info_measure_main_exp,2022.2.2,Win32,240.3846154,,,,,,,,,,,,,,,,,,masks/mask_002.jpg,,,,,,,,,,,,,,,,,,,,,,,,,,,,,,,,,,,,,,,,,,,,,,,,0,2,2,1,1,,,,,,,,,,,,,,,,,,,,,,,,,,,,,,,,,,,,,,,,,
352802,001,2022-11-21_00h28.43.746,Info_measure_main_exp,2022.2.2,Win32,240.3846154,,,,,,,,,,,,,,,,,,masks/mask_005.jpg,,,,,,,,,,,,,,,,,,,,,,,,,,,,,,,,,,,,,,,,,,,,,,,,0,3,3,4,1,,,,,,,,,,,,,,,,,,,,,,,,,,,,,,,,,,,,,,,,,
352802,001,2022-11-21_00h28.43.746,Info_measure_main_exp,2022.2.2,Win32,240.3846154,,,,,,,,,,,,,,,,,,masks/mask_003.jpg,,,,,,,,,,,,,,,,,,,,,,,,,,,,,,,,,,,,,,,,,,,,,,,,0,4,4,2,1,,,,,,,,,,,,,,,,,,,,,,,,,,,,,,,,,,,,,,,,,
352802,001,2022-11-21_00h28.43.746,Info_measure_main_exp,2022.2.2,Win32,240.3846154,,,,,,,,,,,,,,,,,,,,,,,,,,,,,,6,1.976,1,,,,,,,,,,,,0,131,5,5,1950,2178,absent_patch/patch0001950.jpg,absent_patch/patch0002178.jpg,,,,,,,,,,,,,,,,,,,,0.032638889,0.013194444,1,0,0,response1disk,15,0.002777778,-0.001388889,1,0,0,center_square,0,14,14,61,1,,,,,,,,,,,,,,,,,,,,,,,
352802,001,2022-11-21_00h28.43.746,Info_measure_main_exp,2022.2.2,Win32,240.3846154,,,,,,,,,,,,,,,,,,masks/mask_004.jpg,,,,,,,,,,,,,,,,,,,,,,,,,,,,,,,,,,,,,,,,,,,0,0,0,3,1,,,,,,,,,,,,,,,,,,,,,,,,,,,,,,,,,,,,,,,,,,,,,,
352802,001,2022-11-21_00h28.43.746,Info_measure_main_exp,2022.2.2,Win32,240.3846154,,,,,,,,,,,,,,,,,,masks/mask_003.jpg,,,,,,,,,,,,,,,,,,,,,,,,,,,,,,,,,,,,,,,,,,,0,1,1,2,1,,,,,,,,,,,,,,,,,,,,,,,,,,,,,,,,,,,,,,,,,,,,,,
352802,001,2022-11-21_00h28.43.746,Info_measure_main_exp,2022.2.2,Win32,240.3846154,,,,,,,,,,,,,,,,,,masks/mask_005.jpg,,,,,,,,,,,,,,,,,,,,,,,,,,,,,,,,,,,,,,,,,,,0,2,2,4,1,,,,,,,,,,,,,,,,,,,,,,,,,,,,,,,,,,,,,,,,,,,,,,
352802,001,2022-11-21_00h28.43.746,Info_measure_main_exp,2022.2.2,Win32,240.3846154,,,,,,,,,,,,,,,,,,masks/mask_001.jpg,,,,,,,,,,,,,,,,,,,,,,,,,,,,,,,,,,,,,,,,,,,0,3,3,0,1,,,,,,,,,,,,,,,,,,,,,,,,,,,,,,,,,,,,,,,,,,,,,,
352802,001,2022-11-21_00h28.43.746,Info_measure_main_exp,2022.2.2,Win32,240.3846154,,,,,,,,,,,,,,,,,,masks/mask_002.jpg,,,,,,,,,,,,,,,,,,,,,,,,,,,,,,,,,,,,,,,,,,,0,4,4,1,1,,,,,,,,,,,,,,,,,,,,,,,,,,,,,,,,,,,,,,,,,,,,,,
352802,001,2022-11-21_00h28.43.746,Info_measure_main_exp,2022.2.2,Win32,240.3846154,,,,,,,,,,,,,,,,,,masks/mask_001.jpg,,,,,,,,,,,,,,,,,,,,,,,,,,,,,,,,,,,,,,,,,,,,,,,,0,0,0,0,1,,,,,,,,,,,,,,,,,,,,,,,,,,,,,,,,,,,,,,,,,
352802,001,2022-11-21_00h28.43.746,Info_measure_main_exp,2022.2.2,Win32,240.3846154,,,,,,,,,,,,,,,,,,masks/mask_002.jpg,,,,,,,,,,,,,,,,,,,,,,,,,,,,,,,,,,,,,,,,,,,,,,,,0,1,1,1,1,,,,,,,,,,,,,,,,,,,,,,,,,,,,,,,,,,,,,,,,,
352802,001,2022-11-21_00h28.43.746,Info_measure_main_exp,2022.2.2,Win32,240.3846154,,,,,,,,,,,,,,,,,,masks/mask_005.jpg,,,,,,,,,,,,,,,,,,,,,,,,,,,,,,,,,,,,,,,,,,,,,,,,0,2,2,4,1,,,,,,,,,,,,,,,,,,,,,,,,,,,,,,,,,,,,,,,,,
352802,001,2022-11-21_00h28.43.746,Info_measure_main_exp,2022.2.2,Win32,240.3846154,,,,,,,,,,,,,,,,,,masks/mask_003.jpg,,,,,,,,,,,,,,,,,,,,,,,,,,,,,,,,,,,,,,,,,,,,,,,,0,3,3,2,1,,,,,,,,,,,,,,,,,,,,,,,,,,,,,,,,,,,,,,,,,
352802,001,2022-11-21_00h28.43.746,Info_measure_main_exp,2022.2.2,Win32,240.3846154,,,,,,,,,,,,,,,,,,masks/mask_004.jpg,,,,,,,,,,,,,,,,,,,,,,,,,,,,,,,,,,,,,,,,,,,,,,,,0,4,4,3,1,,,,,,,,,,,,,,,,,,,,,,,,,,,,,,,,,,,,,,,,,
352802,001,2022-11-21_00h28.43.746,Info_measure_main_exp,2022.2.2,Win32,240.3846154,,,,,,,,,,,,,,,,,,,,,,,,,,,,,,5,2.32,1,,,,,,,,,,,,0,131,5,5,1986,1950,absent_patch/patch0001986.jpg,absent_patch/patch0001950.jpg,,,,,,,,,,,,,,,,,,,,0.042361111,-0.011805556,1,0,0,response3disk,16,0.003472222,-0.008333333,1,0,0,center_square,0,15,15,15,1,,,,,,,,,,,,,,,,,,,,,,,
352802,001,2022-11-21_00h28.43.746,Info_measure_main_exp,2022.2.2,Win32,240.3846154,,,,,,,,,,,,,,,,,,masks/mask_004.jpg,,,,,,,,,,,,,,,,,,,,,,,,,,,,,,,,,,,,,,,,,,,0,0,0,3,1,,,,,,,,,,,,,,,,,,,,,,,,,,,,,,,,,,,,,,,,,,,,,,
352802,001,2022-11-21_00h28.43.746,Info_measure_main_exp,2022.2.2,Win32,240.3846154,,,,,,,,,,,,,,,,,,masks/mask_003.jpg,,,,,,,,,,,,,,,,,,,,,,,,,,,,,,,,,,,,,,,,,,,0,1,1,2,1,,,,,,,,,,,,,,,,,,,,,,,,,,,,,,,,,,,,,,,,,,,,,,
352802,001,2022-11-21_00h28.43.746,Info_measure_main_exp,2022.2.2,Win32,240.3846154,,,,,,,,,,,,,,,,,,masks/mask_002.jpg,,,,,,,,,,,,,,,,,,,,,,,,,,,,,,,,,,,,,,,,,,,0,2,2,1,1,,,,,,,,,,,,,,,,,,,,,,,,,,,,,,,,,,,,,,,,,,,,,,
352802,001,2022-11-21_00h28.43.746,Info_measure_main_exp,2022.2.2,Win32,240.3846154,,,,,,,,,,,,,,,,,,masks/mask_005.jpg,,,,,,,,,,,,,,,,,,,,,,,,,,,,,,,,,,,,,,,,,,,0,3,3,4,1,,,,,,,,,,,,,,,,,,,,,,,,,,,,,,,,,,,,,,,,,,,,,,
352802,001,2022-11-21_00h28.43.746,Info_measure_main_exp,2022.2.2,Win32,240.3846154,,,,,,,,,,,,,,,,,,masks/mask_001.jpg,,,,,,,,,,,,,,,,,,,,,,,,,,,,,,,,,,,,,,,,,,,0,4,4,0,1,,,,,,,,,,,,,,,,,,,,,,,,,,,,,,,,,,,,,,,,,,,,,,
352802,001,2022-11-21_00h28.43.746,Info_measure_main_exp,2022.2.2,Win32,240.3846154,,,,,,,,,,,,,,,,,,masks/mask_004.jpg,,,,,,,,,,,,,,,,,,,,,,,,,,,,,,,,,,,,,,,,,,,,,,,,0,0,0,3,1,,,,,,,,,,,,,,,,,,,,,,,,,,,,,,,,,,,,,,,,,
352802,001,2022-11-21_00h28.43.746,Info_measure_main_exp,2022.2.2,Win32,240.3846154,,,,,,,,,,,,,,,,,,masks/mask_002.jpg,,,,,,,,,,,,,,,,,,,,,,,,,,,,,,,,,,,,,,,,,,,,,,,,0,1,1,1,1,,,,,,,,,,,,,,,,,,,,,,,,,,,,,,,,,,,,,,,,,
352802,001,2022-11-21_00h28.43.746,Info_measure_main_exp,2022.2.2,Win32,240.3846154,,,,,,,,,,,,,,,,,,masks/mask_003.jpg,,,,,,,,,,,,,,,,,,,,,,,,,,,,,,,,,,,,,,,,,,,,,,,,0,2,2,2,1,,,,,,,,,,,,,,,,,,,,,,,,,,,,,,,,,,,,,,,,,
352802,001,2022-11-21_00h28.43.746,Info_measure_main_exp,2022.2.2,Win32,240.3846154,,,,,,,,,,,,,,,,,,masks/mask_001.jpg,,,,,,,,,,,,,,,,,,,,,,,,,,,,,,,,,,,,,,,,,,,,,,,,0,3,3,0,1,,,,,,,,,,,,,,,,,,,,,,,,,,,,,,,,,,,,,,,,,
352802,001,2022-11-21_00h28.43.746,Info_measure_main_exp,2022.2.2,Win32,240.3846154,,,,,,,,,,,,,,,,,,masks/mask_005.jpg,,,,,,,,,,,,,,,,,,,,,,,,,,,,,,,,,,,,,,,,,,,,,,,,0,4,4,4,1,,,,,,,,,,,,,,,,,,,,,,,,,,,,,,,,,,,,,,,,,
352802,001,2022-11-21_00h28.43.746,Info_measure_main_exp,2022.2.2,Win32,240.3846154,,,,,,,,,,,,,,,,,,,,,,,,,,,,,,0,0.879,1,,,,,,,,,,,,0,131,5,5,2250,2250,absent_patch/patch0002250.jpg,absent_patch/patch0002250.jpg,,,,,,,,,,,,,,,,,,,,-0.025694444,0.079861111,1,0,0,response7disk,17,0.001388889,0.011111111,1,0,0,center_square,0,16,16,56,1,,,,,,,,,,,,,,,,,,,,,,,
352802,001,2022-11-21_00h28.43.746,Info_measure_main_exp,2022.2.2,Win32,240.3846154,,,,,,,,,,,,,,,,,,masks/mask_005.jpg,,,,,,,,,,,,,,,,,,,,,,,,,,,,,,,,,,,,,,,,,,,0,0,0,4,1,,,,,,,,,,,,,,,,,,,,,,,,,,,,,,,,,,,,,,,,,,,,,,
352802,001,2022-11-21_00h28.43.746,Info_measure_main_exp,2022.2.2,Win32,240.3846154,,,,,,,,,,,,,,,,,,masks/mask_003.jpg,,,,,,,,,,,,,,,,,,,,,,,,,,,,,,,,,,,,,,,,,,,0,1,1,2,1,,,,,,,,,,,,,,,,,,,,,,,,,,,,,,,,,,,,,,,,,,,,,,
352802,001,2022-11-21_00h28.43.746,Info_measure_main_exp,2022.2.2,Win32,240.3846154,,,,,,,,,,,,,,,,,,masks/mask_001.jpg,,,,,,,,,,,,,,,,,,,,,,,,,,,,,,,,,,,,,,,,,,,0,2,2,0,1,,,,,,,,,,,,,,,,,,,,,,,,,,,,,,,,,,,,,,,,,,,,,,
352802,001,2022-11-21_00h28.43.746,Info_measure_main_exp,2022.2.2,Win32,240.3846154,,,,,,,,,,,,,,,,,,masks/mask_004.jpg,,,,,,,,,,,,,,,,,,,,,,,,,,,,,,,,,,,,,,,,,,,0,3,3,3,1,,,,,,,,,,,,,,,,,,,,,,,,,,,,,,,,,,,,,,,,,,,,,,
352802,001,2022-11-21_00h28.43.746,Info_measure_main_exp,2022.2.2,Win32,240.3846154,,,,,,,,,,,,,,,,,,masks/mask_002.jpg,,,,,,,,,,,,,,,,,,,,,,,,,,,,,,,,,,,,,,,,,,,0,4,4,1,1,,,,,,,,,,,,,,,,,,,,,,,,,,,,,,,,,,,,,,,,,,,,,,
352802,001,2022-11-21_00h28.43.746,Info_measure_main_exp,2022.2.2,Win32,240.3846154,,,,,,,,,,,,,,,,,,masks/mask_004.jpg,,,,,,,,,,,,,,,,,,,,,,,,,,,,,,,,,,,,,,,,,,,,,,,,0,0,0,3,1,,,,,,,,,,,,,,,,,,,,,,,,,,,,,,,,,,,,,,,,,
352802,001,2022-11-21_00h28.43.746,Info_measure_main_exp,2022.2.2,Win32,240.3846154,,,,,,,,,,,,,,,,,,masks/mask_003.jpg,,,,,,,,,,,,,,,,,,,,,,,,,,,,,,,,,,,,,,,,,,,,,,,,0,1,1,2,1,,,,,,,,,,,,,,,,,,,,,,,,,,,,,,,,,,,,,,,,,
352802,001,2022-11-21_00h28.43.746,Info_measure_main_exp,2022.2.2,Win32,240.3846154,,,,,,,,,,,,,,,,,,masks/mask_005.jpg,,,,,,,,,,,,,,,,,,,,,,,,,,,,,,,,,,,,,,,,,,,,,,,,0,2,2,4,1,,,,,,,,,,,,,,,,,,,,,,,,,,,,,,,,,,,,,,,,,
352802,001,2022-11-21_00h28.43.746,Info_measure_main_exp,2022.2.2,Win32,240.3846154,,,,,,,,,,,,,,,,,,masks/mask_002.jpg,,,,,,,,,,,,,,,,,,,,,,,,,,,,,,,,,,,,,,,,,,,,,,,,0,3,3,1,1,,,,,,,,,,,,,,,,,,,,,,,,,,,,,,,,,,,,,,,,,
352802,001,2022-11-21_00h28.43.746,Info_measure_main_exp,2022.2.2,Win32,240.3846154,,,,,,,,,,,,,,,,,,masks/mask_001.jpg,,,,,,,,,,,,,,,,,,,,,,,,,,,,,,,,,,,,,,,,,,,,,,,,0,4,4,0,1,,,,,,,,,,,,,,,,,,,,,,,,,,,,,,,,,,,,,,,,,
352802,001,2022-11-21_00h28.43.746,Info_measure_main_exp,2022.2.2,Win32,240.3846154,,,,,,,,,,,,,,,,,,,,,,,,,,,,,,4,2.417,1,,,,,,,,,,,,0,131,5,5,1974,2178,absent_patch/patch0001974.jpg,absent_patch/patch0002178.jpg,,,,,,,,,,,,,,,,,,,,0.028472222,-0.063194444,1,0,0,response3disk,18,0.007638889,-0.002083333,1,0,0,center_square,0,17,17,44,1,,,,,,,,,,,,,,,,,,,,,,,
352802,001,2022-11-21_00h28.43.746,Info_measure_main_exp,2022.2.2,Win32,240.3846154,,,,,,,,,,,,,,,,,,masks/mask_003.jpg,,,,,,,,,,,,,,,,,,,,,,,,,,,,,,,,,,,,,,,,,,,0,0,0,2,1,,,,,,,,,,,,,,,,,,,,,,,,,,,,,,,,,,,,,,,,,,,,,,
352802,001,2022-11-21_00h28.43.746,Info_measure_main_exp,2022.2.2,Win32,240.3846154,,,,,,,,,,,,,,,,,,masks/mask_004.jpg,,,,,,,,,,,,,,,,,,,,,,,,,,,,,,,,,,,,,,,,,,,0,1,1,3,1,,,,,,,,,,,,,,,,,,,,,,,,,,,,,,,,,,,,,,,,,,,,,,
352802,001,2022-11-21_00h28.43.746,Info_measure_main_exp,2022.2.2,Win32,240.3846154,,,,,,,,,,,,,,,,,,masks/mask_001.jpg,,,,,,,,,,,,,,,,,,,,,,,,,,,,,,,,,,,,,,,,,,,0,2,2,0,1,,,,,,,,,,,,,,,,,,,,,,,,,,,,,,,,,,,,,,,,,,,,,,
352802,001,2022-11-21_00h28.43.746,Info_measure_main_exp,2022.2.2,Win32,240.3846154,,,,,,,,,,,,,,,,,,masks/mask_002.jpg,,,,,,,,,,,,,,,,,,,,,,,,,,,,,,,,,,,,,,,,,,,0,3,3,1,1,,,,,,,,,,,,,,,,,,,,,,,,,,,,,,,,,,,,,,,,,,,,,,
352802,001,2022-11-21_00h28.43.746,Info_measure_main_exp,2022.2.2,Win32,240.3846154,,,,,,,,,,,,,,,,,,masks/mask_005.jpg,,,,,,,,,,,,,,,,,,,,,,,,,,,,,,,,,,,,,,,,,,,0,4,4,4,1,,,,,,,,,,,,,,,,,,,,,,,,,,,,,,,,,,,,,,,,,,,,,,
352802,001,2022-11-21_00h28.43.746,Info_measure_main_exp,2022.2.2,Win32,240.3846154,,,,,,,,,,,,,,,,,,masks/mask_003.jpg,,,,,,,,,,,,,,,,,,,,,,,,,,,,,,,,,,,,,,,,,,,,,,,,0,0,0,2,1,,,,,,,,,,,,,,,,,,,,,,,,,,,,,,,,,,,,,,,,,
352802,001,2022-11-21_00h28.43.746,Info_measure_main_exp,2022.2.2,Win32,240.3846154,,,,,,,,,,,,,,,,,,masks/mask_002.jpg,,,,,,,,,,,,,,,,,,,,,,,,,,,,,,,,,,,,,,,,,,,,,,,,0,1,1,1,1,,,,,,,,,,,,,,,,,,,,,,,,,,,,,,,,,,,,,,,,,
352802,001,2022-11-21_00h28.43.746,Info_measure_main_exp,2022.2.2,Win32,240.3846154,,,,,,,,,,,,,,,,,,masks/mask_005.jpg,,,,,,,,,,,,,,,,,,,,,,,,,,,,,,,,,,,,,,,,,,,,,,,,0,2,2,4,1,,,,,,,,,,,,,,,,,,,,,,,,,,,,,,,,,,,,,,,,,
352802,001,2022-11-21_00h28.43.746,Info_measure_main_exp,2022.2.2,Win32,240.3846154,,,,,,,,,,,,,,,,,,masks/mask_001.jpg,,,,,,,,,,,,,,,,,,,,,,,,,,,,,,,,,,,,,,,,,,,,,,,,0,3,3,0,1,,,,,,,,,,,,,,,,,,,,,,,,,,,,,,,,,,,,,,,,,
352802,001,2022-11-21_00h28.43.746,Info_measure_main_exp,2022.2.2,Win32,240.3846154,,,,,,,,,,,,,,,,,,masks/mask_004.jpg,,,,,,,,,,,,,,,,,,,,,,,,,,,,,,,,,,,,,,,,,,,,,,,,0,4,4,3,1,,,,,,,,,,,,,,,,,,,,,,,,,,,,,,,,,,,,,,,,,
352802,001,2022-11-21_00h28.43.746,Info_measure_main_exp,2022.2.2,Win32,240.3846154,,,,,,,,,,,,,,,,,,,,,,,,,,,,,,5,1.941,1,,,,,,,,,,,,0,131,5,5,2166,2298,absent_patch/patch0002166.jpg,absent_patch/patch0002298.jpg,,,,,,,,,,,,,,,,,,,,0.013194444,-0.00625,1,0,0,response3disk,19,-0.005555556,0.002777778,1,0,0,center_square,0,18,18,52,1,,,,,,,,,,,,,,,,,,,,,,,
352802,001,2022-11-21_00h28.43.746,Info_measure_main_exp,2022.2.2,Win32,240.3846154,,,,,,,,,,,,,,,,,,masks/mask_001.jpg,,,,,,,,,,,,,,,,,,,,,,,,,,,,,,,,,,,,,,,,,,,0,0,0,0,1,,,,,,,,,,,,,,,,,,,,,,,,,,,,,,,,,,,,,,,,,,,,,,
352802,001,2022-11-21_00h28.43.746,Info_measure_main_exp,2022.2.2,Win32,240.3846154,,,,,,,,,,,,,,,,,,masks/mask_003.jpg,,,,,,,,,,,,,,,,,,,,,,,,,,,,,,,,,,,,,,,,,,,0,1,1,2,1,,,,,,,,,,,,,,,,,,,,,,,,,,,,,,,,,,,,,,,,,,,,,,
352802,001,2022-11-21_00h28.43.746,Info_measure_main_exp,2022.2.2,Win32,240.3846154,,,,,,,,,,,,,,,,,,masks/mask_002.jpg,,,,,,,,,,,,,,,,,,,,,,,,,,,,,,,,,,,,,,,,,,,0,2,2,1,1,,,,,,,,,,,,,,,,,,,,,,,,,,,,,,,,,,,,,,,,,,,,,,
352802,001,2022-11-21_00h28.43.746,Info_measure_main_exp,2022.2.2,Win32,240.3846154,,,,,,,,,,,,,,,,,,masks/mask_004.jpg,,,,,,,,,,,,,,,,,,,,,,,,,,,,,,,,,,,,,,,,,,,0,3,3,3,1,,,,,,,,,,,,,,,,,,,,,,,,,,,,,,,,,,,,,,,,,,,,,,
352802,001,2022-11-21_00h28.43.746,Info_measure_main_exp,2022.2.2,Win32,240.3846154,,,,,,,,,,,,,,,,,,masks/mask_005.jpg,,,,,,,,,,,,,,,,,,,,,,,,,,,,,,,,,,,,,,,,,,,0,4,4,4,1,,,,,,,,,,,,,,,,,,,,,,,,,,,,,,,,,,,,,,,,,,,,,,
352802,001,2022-11-21_00h28.43.746,Info_measure_main_exp,2022.2.2,Win32,240.3846154,,,,,,,,,,,,,,,,,,masks/mask_001.jpg,,,,,,,,,,,,,,,,,,,,,,,,,,,,,,,,,,,,,,,,,,,,,,,,0,0,0,0,1,,,,,,,,,,,,,,,,,,,,,,,,,,,,,,,,,,,,,,,,,
352802,001,2022-11-21_00h28.43.746,Info_measure_main_exp,2022.2.2,Win32,240.3846154,,,,,,,,,,,,,,,,,,masks/mask_002.jpg,,,,,,,,,,,,,,,,,,,,,,,,,,,,,,,,,,,,,,,,,,,,,,,,0,1,1,1,1,,,,,,,,,,,,,,,,,,,,,,,,,,,,,,,,,,,,,,,,,
352802,001,2022-11-21_00h28.43.746,Info_measure_main_exp,2022.2.2,Win32,240.3846154,,,,,,,,,,,,,,,,,,masks/mask_004.jpg,,,,,,,,,,,,,,,,,,,,,,,,,,,,,,,,,,,,,,,,,,,,,,,,0,2,2,3,1,,,,,,,,,,,,,,,,,,,,,,,,,,,,,,,,,,,,,,,,,
352802,001,2022-11-21_00h28.43.746,Info_measure_main_exp,2022.2.2,Win32,240.3846154,,,,,,,,,,,,,,,,,,masks/mask_005.jpg,,,,,,,,,,,,,,,,,,,,,,,,,,,,,,,,,,,,,,,,,,,,,,,,0,3,3,4,1,,,,,,,,,,,,,,,,,,,,,,,,,,,,,,,,,,,,,,,,,
352802,001,2022-11-21_00h28.43.746,Info_measure_main_exp,2022.2.2,Win32,240.3846154,,,,,,,,,,,,,,,,,,masks/mask_003.jpg,,,,,,,,,,,,,,,,,,,,,,,,,,,,,,,,,,,,,,,,,,,,,,,,0,4,4,2,1,,,,,,,,,,,,,,,,,,,,,,,,,,,,,,,,,,,,,,,,,
352802,001,2022-11-21_00h28.43.746,Info_measure_main_exp,2022.2.2,Win32,240.3846154,,,,,,,,,,,,,,,,,,,,,,,,,,,,,,0,0.837,1,,,,,,,,,,,,0,131,5,5,2082,2082,absent_patch/patch0002082.jpg,absent_patch/patch0002082.jpg,,,,,,,,,,,,,,,,,,,,-0.024305556,0.082638889,1,0,0,response7disk,20,0,0.003472222,1,0,0,center_square,0,19,19,74,1,,,,,,,,,,,,,,,,,,,,,,,
352802,001,2022-11-21_00h28.43.746,Info_measure_main_exp,2022.2.2,Win32,240.3846154,,,,,,,,,,,,,,,,,,masks/mask_005.jpg,,,,,,,,,,,,,,,,,,,,,,,,,,,,,,,,,,,,,,,,,,,0,0,0,4,1,,,,,,,,,,,,,,,,,,,,,,,,,,,,,,,,,,,,,,,,,,,,,,
352802,001,2022-11-21_00h28.43.746,Info_measure_main_exp,2022.2.2,Win32,240.3846154,,,,,,,,,,,,,,,,,,masks/mask_003.jpg,,,,,,,,,,,,,,,,,,,,,,,,,,,,,,,,,,,,,,,,,,,0,1,1,2,1,,,,,,,,,,,,,,,,,,,,,,,,,,,,,,,,,,,,,,,,,,,,,,
352802,001,2022-11-21_00h28.43.746,Info_measure_main_exp,2022.2.2,Win32,240.3846154,,,,,,,,,,,,,,,,,,masks/mask_001.jpg,,,,,,,,,,,,,,,,,,,,,,,,,,,,,,,,,,,,,,,,,,,0,2,2,0,1,,,,,,,,,,,,,,,,,,,,,,,,,,,,,,,,,,,,,,,,,,,,,,
352802,001,2022-11-21_00h28.43.746,Info_measure_main_exp,2022.2.2,Win32,240.3846154,,,,,,,,,,,,,,,,,,masks/mask_002.jpg,,,,,,,,,,,,,,,,,,,,,,,,,,,,,,,,,,,,,,,,,,,0,3,3,1,1,,,,,,,,,,,,,,,,,,,,,,,,,,,,,,,,,,,,,,,,,,,,,,
352802,001,2022-11-21_00h28.43.746,Info_measure_main_exp,2022.2.2,Win32,240.3846154,,,,,,,,,,,,,,,,,,masks/mask_004.jpg,,,,,,,,,,,,,,,,,,,,,,,,,,,,,,,,,,,,,,,,,,,0,4,4,3,1,,,,,,,,,,,,,,,,,,,,,,,,,,,,,,,,,,,,,,,,,,,,,,
352802,001,2022-11-21_00h28.43.746,Info_measure_main_exp,2022.2.2,Win32,240.3846154,,,,,,,,,,,,,,,,,,masks/mask_004.jpg,,,,,,,,,,,,,,,,,,,,,,,,,,,,,,,,,,,,,,,,,,,,,,,,0,0,0,3,1,,,,,,,,,,,,,,,,,,,,,,,,,,,,,,,,,,,,,,,,,
352802,001,2022-11-21_00h28.43.746,Info_measure_main_exp,2022.2.2,Win32,240.3846154,,,,,,,,,,,,,,,,,,masks/mask_005.jpg,,,,,,,,,,,,,,,,,,,,,,,,,,,,,,,,,,,,,,,,,,,,,,,,0,1,1,4,1,,,,,,,,,,,,,,,,,,,,,,,,,,,,,,,,,,,,,,,,,
352802,001,2022-11-21_00h28.43.746,Info_measure_main_exp,2022.2.2,Win32,240.3846154,,,,,,,,,,,,,,,,,,masks/mask_003.jpg,,,,,,,,,,,,,,,,,,,,,,,,,,,,,,,,,,,,,,,,,,,,,,,,0,2,2,2,1,,,,,,,,,,,,,,,,,,,,,,,,,,,,,,,,,,,,,,,,,
352802,001,2022-11-21_00h28.43.746,Info_measure_main_exp,2022.2.2,Win32,240.3846154,,,,,,,,,,,,,,,,,,masks/mask_001.jpg,,,,,,,,,,,,,,,,,,,,,,,,,,,,,,,,,,,,,,,,,,,,,,,,0,3,3,0,1,,,,,,,,,,,,,,,,,,,,,,,,,,,,,,,,,,,,,,,,,
352802,001,2022-11-21_00h28.43.746,Info_measure_main_exp,2022.2.2,Win32,240.3846154,,,,,,,,,,,,,,,,,,masks/mask_002.jpg,,,,,,,,,,,,,,,,,,,,,,,,,,,,,,,,,,,,,,,,,,,,,,,,0,4,4,1,1,,,,,,,,,,,,,,,,,,,,,,,,,,,,,,,,,,,,,,,,,
352802,001,2022-11-21_00h28.43.746,Info_measure_main_exp,2022.2.2,Win32,240.3846154,,,,,,,,,,,,,,,,,,,,,,,,,,,,,,3,1.916,1,,,,,,,,,,,,1,131,5,5,2238,1,absent_patch/patch0002238.jpg,present_patch/cong_131_5_a.jpg,,,,,,,,,,,,,,,,,,,,-0.009722222,-0.028472222,1,0,0,response5disk,21,-0.002083333,0.004166667,1,0,0,center_square,0,20,20,104,1,,,,,,,,,,,,,,,,,,,,,,,
352802,001,2022-11-21_00h28.43.746,Info_measure_main_exp,2022.2.2,Win32,240.3846154,,,,,,,,,,,,,,,,,,masks/mask_001.jpg,,,,,,,,,,,,,,,,,,,,,,,,,,,,,,,,,,,,,,,,,,,0,0,0,0,1,,,,,,,,,,,,,,,,,,,,,,,,,,,,,,,,,,,,,,,,,,,,,,
352802,001,2022-11-21_00h28.43.746,Info_measure_main_exp,2022.2.2,Win32,240.3846154,,,,,,,,,,,,,,,,,,masks/mask_002.jpg,,,,,,,,,,,,,,,,,,,,,,,,,,,,,,,,,,,,,,,,,,,0,1,1,1,1,,,,,,,,,,,,,,,,,,,,,,,,,,,,,,,,,,,,,,,,,,,,,,
352802,001,2022-11-21_00h28.43.746,Info_measure_main_exp,2022.2.2,Win32,240.3846154,,,,,,,,,,,,,,,,,,masks/mask_005.jpg,,,,,,,,,,,,,,,,,,,,,,,,,,,,,,,,,,,,,,,,,,,0,2,2,4,1,,,,,,,,,,,,,,,,,,,,,,,,,,,,,,,,,,,,,,,,,,,,,,
352802,001,2022-11-21_00h28.43.746,Info_measure_main_exp,2022.2.2,Win32,240.3846154,,,,,,,,,,,,,,,,,,masks/mask_003.jpg,,,,,,,,,,,,,,,,,,,,,,,,,,,,,,,,,,,,,,,,,,,0,3,3,2,1,,,,,,,,,,,,,,,,,,,,,,,,,,,,,,,,,,,,,,,,,,,,,,
352802,001,2022-11-21_00h28.43.746,Info_measure_main_exp,2022.2.2,Win32,240.3846154,,,,,,,,,,,,,,,,,,masks/mask_004.jpg,,,,,,,,,,,,,,,,,,,,,,,,,,,,,,,,,,,,,,,,,,,0,4,4,3,1,,,,,,,,,,,,,,,,,,,,,,,,,,,,,,,,,,,,,,,,,,,,,,
352802,001,2022-11-21_00h28.43.746,Info_measure_main_exp,2022.2.2,Win32,240.3846154,,,,,,,,,,,,,,,,,,masks/mask_003.jpg,,,,,,,,,,,,,,,,,,,,,,,,,,,,,,,,,,,,,,,,,,,,,,,,0,0,0,2,1,,,,,,,,,,,,,,,,,,,,,,,,,,,,,,,,,,,,,,,,,
352802,001,2022-11-21_00h28.43.746,Info_measure_main_exp,2022.2.2,Win32,240.3846154,,,,,,,,,,,,,,,,,,masks/mask_002.jpg,,,,,,,,,,,,,,,,,,,,,,,,,,,,,,,,,,,,,,,,,,,,,,,,0,1,1,1,1,,,,,,,,,,,,,,,,,,,,,,,,,,,,,,,,,,,,,,,,,
352802,001,2022-11-21_00h28.43.746,Info_measure_main_exp,2022.2.2,Win32,240.3846154,,,,,,,,,,,,,,,,,,masks/mask_004.jpg,,,,,,,,,,,,,,,,,,,,,,,,,,,,,,,,,,,,,,,,,,,,,,,,0,2,2,3,1,,,,,,,,,,,,,,,,,,,,,,,,,,,,,,,,,,,,,,,,,
352802,001,2022-11-21_00h28.43.746,Info_measure_main_exp,2022.2.2,Win32,240.3846154,,,,,,,,,,,,,,,,,,masks/mask_005.jpg,,,,,,,,,,,,,,,,,,,,,,,,,,,,,,,,,,,,,,,,,,,,,,,,0,3,3,4,1,,,,,,,,,,,,,,,,,,,,,,,,,,,,,,,,,,,,,,,,,
352802,001,2022-11-21_00h28.43.746,Info_measure_main_exp,2022.2.2,Win32,240.3846154,,,,,,,,,,,,,,,,,,masks/mask_001.jpg,,,,,,,,,,,,,,,,,,,,,,,,,,,,,,,,,,,,,,,,,,,,,,,,0,4,4,0,1,,,,,,,,,,,,,,,,,,,,,,,,,,,,,,,,,,,,,,,,,
352802,001,2022-11-21_00h28.43.746,Info_measure_main_exp,2022.2.2,Win32,240.3846154,,,,,,,,,,,,,,,,,,,,,,,,,,,,,,4,2.116,1,,,,,,,,,,,,0,131,5,5,1950,2142,absent_patch/patch0001950.jpg,absent_patch/patch0002142.jpg,,,,,,,,,,,,,,,,,,,,0.004166667,-0.020833333,1,0,0,response3disk,22,-0.002777778,-0.004166667,1,0,0,center_square,0,21,21,83,1,,,,,,,,,,,,,,,,,,,,,,,
352802,001,2022-11-21_00h28.43.746,Info_measure_main_exp,2022.2.2,Win32,240.3846154,,,,,,,,,,,,,,,,,,masks/mask_005.jpg,,,,,,,,,,,,,,,,,,,,,,,,,,,,,,,,,,,,,,,,,,,0,0,0,4,1,,,,,,,,,,,,,,,,,,,,,,,,,,,,,,,,,,,,,,,,,,,,,,
352802,001,2022-11-21_00h28.43.746,Info_measure_main_exp,2022.2.2,Win32,240.3846154,,,,,,,,,,,,,,,,,,masks/mask_002.jpg,,,,,,,,,,,,,,,,,,,,,,,,,,,,,,,,,,,,,,,,,,,0,1,1,1,1,,,,,,,,,,,,,,,,,,,,,,,,,,,,,,,,,,,,,,,,,,,,,,
352802,001,2022-11-21_00h28.43.746,Info_measure_main_exp,2022.2.2,Win32,240.3846154,,,,,,,,,,,,,,,,,,masks/mask_003.jpg,,,,,,,,,,,,,,,,,,,,,,,,,,,,,,,,,,,,,,,,,,,0,2,2,2,1,,,,,,,,,,,,,,,,,,,,,,,,,,,,,,,,,,,,,,,,,,,,,,
352802,001,2022-11-21_00h28.43.746,Info_measure_main_exp,2022.2.2,Win32,240.3846154,,,,,,,,,,,,,,,,,,masks/mask_001.jpg,,,,,,,,,,,,,,,,,,,,,,,,,,,,,,,,,,,,,,,,,,,0,3,3,0,1,,,,,,,,,,,,,,,,,,,,,,,,,,,,,,,,,,,,,,,,,,,,,,
352802,001,2022-11-21_00h28.43.746,Info_measure_main_exp,2022.2.2,Win32,240.3846154,,,,,,,,,,,,,,,,,,masks/mask_004.jpg,,,,,,,,,,,,,,,,,,,,,,,,,,,,,,,,,,,,,,,,,,,0,4,4,3,1,,,,,,,,,,,,,,,,,,,,,,,,,,,,,,,,,,,,,,,,,,,,,,
352802,001,2022-11-21_00h28.43.746,Info_measure_main_exp,2022.2.2,Win32,240.3846154,,,,,,,,,,,,,,,,,,masks/mask_002.jpg,,,,,,,,,,,,,,,,,,,,,,,,,,,,,,,,,,,,,,,,,,,,,,,,0,0,0,1,1,,,,,,,,,,,,,,,,,,,,,,,,,,,,,,,,,,,,,,,,,
352802,001,2022-11-21_00h28.43.746,Info_measure_main_exp,2022.2.2,Win32,240.3846154,,,,,,,,,,,,,,,,,,masks/mask_001.jpg,,,,,,,,,,,,,,,,,,,,,,,,,,,,,,,,,,,,,,,,,,,,,,,,0,1,1,0,1,,,,,,,,,,,,,,,,,,,,,,,,,,,,,,,,,,,,,,,,,
352802,001,2022-11-21_00h28.43.746,Info_measure_main_exp,2022.2.2,Win32,240.3846154,,,,,,,,,,,,,,,,,,masks/mask_003.jpg,,,,,,,,,,,,,,,,,,,,,,,,,,,,,,,,,,,,,,,,,,,,,,,,0,2,2,2,1,,,,,,,,,,,,,,,,,,,,,,,,,,,,,,,,,,,,,,,,,
352802,001,2022-11-21_00h28.43.746,Info_measure_main_exp,2022.2.2,Win32,240.3846154,,,,,,,,,,,,,,,,,,masks/mask_005.jpg,,,,,,,,,,,,,,,,,,,,,,,,,,,,,,,,,,,,,,,,,,,,,,,,0,3,3,4,1,,,,,,,,,,,,,,,,,,,,,,,,,,,,,,,,,,,,,,,,,
352802,001,2022-11-21_00h28.43.746,Info_measure_main_exp,2022.2.2,Win32,240.3846154,,,,,,,,,,,,,,,,,,masks/mask_004.jpg,,,,,,,,,,,,,,,,,,,,,,,,,,,,,,,,,,,,,,,,,,,,,,,,0,4,4,3,1,,,,,,,,,,,,,,,,,,,,,,,,,,,,,,,,,,,,,,,,,
352802,001,2022-11-21_00h28.43.746,Info_measure_main_exp,2022.2.2,Win32,240.3846154,,,,,,,,,,,,,,,,,,,,,,,,,,,,,,6,1.304,1,,,,,,,,,,,,0,131,5,5,2250,2298,absent_patch/patch0002250.jpg,absent_patch/patch0002298.jpg,,,,,,,,,,,,,,,,,,,,0.072222222,0.034722222,1,0,0,response1disk,23,0.013194444,0.001388889,1,0,0,center_square,0,22,22,59,1,,,,,,,,,,,,,,,,,,,,,,,
352802,001,2022-11-21_00h28.43.746,Info_measure_main_exp,2022.2.2,Win32,240.3846154,,,,,,,,,,,,,,,,,,masks/mask_005.jpg,,,,,,,,,,,,,,,,,,,,,,,,,,,,,,,,,,,,,,,,,,,0,0,0,4,1,,,,,,,,,,,,,,,,,,,,,,,,,,,,,,,,,,,,,,,,,,,,,,
352802,001,2022-11-21_00h28.43.746,Info_measure_main_exp,2022.2.2,Win32,240.3846154,,,,,,,,,,,,,,,,,,masks/mask_003.jpg,,,,,,,,,,,,,,,,,,,,,,,,,,,,,,,,,,,,,,,,,,,0,1,1,2,1,,,,,,,,,,,,,,,,,,,,,,,,,,,,,,,,,,,,,,,,,,,,,,
352802,001,2022-11-21_00h28.43.746,Info_measure_main_exp,2022.2.2,Win32,240.3846154,,,,,,,,,,,,,,,,,,masks/mask_002.jpg,,,,,,,,,,,,,,,,,,,,,,,,,,,,,,,,,,,,,,,,,,,0,2,2,1,1,,,,,,,,,,,,,,,,,,,,,,,,,,,,,,,,,,,,,,,,,,,,,,
352802,001,2022-11-21_00h28.43.746,Info_measure_main_exp,2022.2.2,Win32,240.3846154,,,,,,,,,,,,,,,,,,masks/mask_004.jpg,,,,,,,,,,,,,,,,,,,,,,,,,,,,,,,,,,,,,,,,,,,0,3,3,3,1,,,,,,,,,,,,,,,,,,,,,,,,,,,,,,,,,,,,,,,,,,,,,,
352802,001,2022-11-21_00h28.43.746,Info_measure_main_exp,2022.2.2,Win32,240.3846154,,,,,,,,,,,,,,,,,,masks/mask_001.jpg,,,,,,,,,,,,,,,,,,,,,,,,,,,,,,,,,,,,,,,,,,,0,4,4,0,1,,,,,,,,,,,,,,,,,,,,,,,,,,,,,,,,,,,,,,,,,,,,,,
352802,001,2022-11-21_00h28.43.746,Info_measure_main_exp,2022.2.2,Win32,240.3846154,,,,,,,,,,,,,,,,,,masks/mask_004.jpg,,,,,,,,,,,,,,,,,,,,,,,,,,,,,,,,,,,,,,,,,,,,,,,,0,0,0,3,1,,,,,,,,,,,,,,,,,,,,,,,,,,,,,,,,,,,,,,,,,
352802,001,2022-11-21_00h28.43.746,Info_measure_main_exp,2022.2.2,Win32,240.3846154,,,,,,,,,,,,,,,,,,masks/mask_001.jpg,,,,,,,,,,,,,,,,,,,,,,,,,,,,,,,,,,,,,,,,,,,,,,,,0,1,1,0,1,,,,,,,,,,,,,,,,,,,,,,,,,,,,,,,,,,,,,,,,,
352802,001,2022-11-21_00h28.43.746,Info_measure_main_exp,2022.2.2,Win32,240.3846154,,,,,,,,,,,,,,,,,,masks/mask_003.jpg,,,,,,,,,,,,,,,,,,,,,,,,,,,,,,,,,,,,,,,,,,,,,,,,0,2,2,2,1,,,,,,,,,,,,,,,,,,,,,,,,,,,,,,,,,,,,,,,,,
352802,001,2022-11-21_00h28.43.746,Info_measure_main_exp,2022.2.2,Win32,240.3846154,,,,,,,,,,,,,,,,,,masks/mask_002.jpg,,,,,,,,,,,,,,,,,,,,,,,,,,,,,,,,,,,,,,,,,,,,,,,,0,3,3,1,1,,,,,,,,,,,,,,,,,,,,,,,,,,,,,,,,,,,,,,,,,
352802,001,2022-11-21_00h28.43.746,Info_measure_main_exp,2022.2.2,Win32,240.3846154,,,,,,,,,,,,,,,,,,masks/mask_005.jpg,,,,,,,,,,,,,,,,,,,,,,,,,,,,,,,,,,,,,,,,,,,,,,,,0,4,4,4,1,,,,,,,,,,,,,,,,,,,,,,,,,,,,,,,,,,,,,,,,,
352802,001,2022-11-21_00h28.43.746,Info_measure_main_exp,2022.2.2,Win32,240.3846154,,,,,,,,,,,,,,,,,,,,,,,,,,,,,,5,1.725,1,,,,,,,,,,,,0,131,5,5,1974,2250,absent_patch/patch0001974.jpg,absent_patch/patch0002250.jpg,,,,,,,,,,,,,,,,,,,,0.053472222,-0.011111111,1,0,0,response3disk,24,0.006944444,-0.002777778,1,0,0,center_square,0,23,23,55,1,,,,,,,,,,,,,,,,,,,,,,,
352802,001,2022-11-21_00h28.43.746,Info_measure_main_exp,2022.2.2,Win32,240.3846154,,,,,,,,,,,,,,,,,,masks/mask_004.jpg,,,,,,,,,,,,,,,,,,,,,,,,,,,,,,,,,,,,,,,,,,,0,0,0,3,1,,,,,,,,,,,,,,,,,,,,,,,,,,,,,,,,,,,,,,,,,,,,,,
352802,001,2022-11-21_00h28.43.746,Info_measure_main_exp,2022.2.2,Win32,240.3846154,,,,,,,,,,,,,,,,,,masks/mask_002.jpg,,,,,,,,,,,,,,,,,,,,,,,,,,,,,,,,,,,,,,,,,,,0,1,1,1,1,,,,,,,,,,,,,,,,,,,,,,,,,,,,,,,,,,,,,,,,,,,,,,
352802,001,2022-11-21_00h28.43.746,Info_measure_main_exp,2022.2.2,Win32,240.3846154,,,,,,,,,,,,,,,,,,masks/mask_003.jpg,,,,,,,,,,,,,,,,,,,,,,,,,,,,,,,,,,,,,,,,,,,0,2,2,2,1,,,,,,,,,,,,,,,,,,,,,,,,,,,,,,,,,,,,,,,,,,,,,,
352802,001,2022-11-21_00h28.43.746,Info_measure_main_exp,2022.2.2,Win32,240.3846154,,,,,,,,,,,,,,,,,,masks/mask_001.jpg,,,,,,,,,,,,,,,,,,,,,,,,,,,,,,,,,,,,,,,,,,,0,3,3,0,1,,,,,,,,,,,,,,,,,,,,,,,,,,,,,,,,,,,,,,,,,,,,,,
352802,001,2022-11-21_00h28.43.746,Info_measure_main_exp,2022.2.2,Win32,240.3846154,,,,,,,,,,,,,,,,,,masks/mask_005.jpg,,,,,,,,,,,,,,,,,,,,,,,,,,,,,,,,,,,,,,,,,,,0,4,4,4,1,,,,,,,,,,,,,,,,,,,,,,,,,,,,,,,,,,,,,,,,,,,,,,
352802,001,2022-11-21_00h28.43.746,Info_measure_main_exp,2022.2.2,Win32,240.3846154,,,,,,,,,,,,,,,,,,masks/mask_002.jpg,,,,,,,,,,,,,,,,,,,,,,,,,,,,,,,,,,,,,,,,,,,,,,,,0,0,0,1,1,,,,,,,,,,,,,,,,,,,,,,,,,,,,,,,,,,,,,,,,,
352802,001,2022-11-21_00h28.43.746,Info_measure_main_exp,2022.2.2,Win32,240.3846154,,,,,,,,,,,,,,,,,,masks/mask_004.jpg,,,,,,,,,,,,,,,,,,,,,,,,,,,,,,,,,,,,,,,,,,,,,,,,0,1,1,3,1,,,,,,,,,,,,,,,,,,,,,,,,,,,,,,,,,,,,,,,,,
352802,001,2022-11-21_00h28.43.746,Info_measure_main_exp,2022.2.2,Win32,240.3846154,,,,,,,,,,,,,,,,,,masks/mask_001.jpg,,,,,,,,,,,,,,,,,,,,,,,,,,,,,,,,,,,,,,,,,,,,,,,,0,2,2,0,1,,,,,,,,,,,,,,,,,,,,,,,,,,,,,,,,,,,,,,,,,
352802,001,2022-11-21_00h28.43.746,Info_measure_main_exp,2022.2.2,Win32,240.3846154,,,,,,,,,,,,,,,,,,masks/mask_005.jpg,,,,,,,,,,,,,,,,,,,,,,,,,,,,,,,,,,,,,,,,,,,,,,,,0,3,3,4,1,,,,,,,,,,,,,,,,,,,,,,,,,,,,,,,,,,,,,,,,,
352802,001,2022-11-21_00h28.43.746,Info_measure_main_exp,2022.2.2,Win32,240.3846154,,,,,,,,,,,,,,,,,,masks/mask_003.jpg,,,,,,,,,,,,,,,,,,,,,,,,,,,,,,,,,,,,,,,,,,,,,,,,0,4,4,2,1,,,,,,,,,,,,,,,,,,,,,,,,,,,,,,,,,,,,,,,,,
352802,001,2022-11-21_00h28.43.746,Info_measure_main_exp,2022.2.2,Win32,240.3846154,,,,,,,,,,,,,,,,,,,,,,,,,,,,,,5,1.291,1,,,,,,,,,,,,0,131,5,5,2154,2298,absent_patch/patch0002154.jpg,absent_patch/patch0002298.jpg,,,,,,,,,,,,,,,,,,,,0.045138889,-0.015972222,1,0,0,response3disk,25,0.011805556,-0.010416667,1,0,0,center_square,0,24,24,27,1,,,,,,,,,,,,,,,,,,,,,,,
352802,001,2022-11-21_00h28.43.746,Info_measure_main_exp,2022.2.2,Win32,240.3846154,,,,,,,,,,,,,,,,,,masks/mask_001.jpg,,,,,,,,,,,,,,,,,,,,,,,,,,,,,,,,,,,,,,,,,,,0,0,0,0,1,,,,,,,,,,,,,,,,,,,,,,,,,,,,,,,,,,,,,,,,,,,,,,
352802,001,2022-11-21_00h28.43.746,Info_measure_main_exp,2022.2.2,Win32,240.3846154,,,,,,,,,,,,,,,,,,masks/mask_003.jpg,,,,,,,,,,,,,,,,,,,,,,,,,,,,,,,,,,,,,,,,,,,0,1,1,2,1,,,,,,,,,,,,,,,,,,,,,,,,,,,,,,,,,,,,,,,,,,,,,,
352802,001,2022-11-21_00h28.43.746,Info_measure_main_exp,2022.2.2,Win32,240.3846154,,,,,,,,,,,,,,,,,,masks/mask_004.jpg,,,,,,,,,,,,,,,,,,,,,,,,,,,,,,,,,,,,,,,,,,,0,2,2,3,1,,,,,,,,,,,,,,,,,,,,,,,,,,,,,,,,,,,,,,,,,,,,,,
352802,001,2022-11-21_00h28.43.746,Info_measure_main_exp,2022.2.2,Win32,240.3846154,,,,,,,,,,,,,,,,,,masks/mask_005.jpg,,,,,,,,,,,,,,,,,,,,,,,,,,,,,,,,,,,,,,,,,,,0,3,3,4,1,,,,,,,,,,,,,,,,,,,,,,,,,,,,,,,,,,,,,,,,,,,,,,
352802,001,2022-11-21_00h28.43.746,Info_measure_main_exp,2022.2.2,Win32,240.3846154,,,,,,,,,,,,,,,,,,masks/mask_002.jpg,,,,,,,,,,,,,,,,,,,,,,,,,,,,,,,,,,,,,,,,,,,0,4,4,1,1,,,,,,,,,,,,,,,,,,,,,,,,,,,,,,,,,,,,,,,,,,,,,,
352802,001,2022-11-21_00h28.43.746,Info_measure_main_exp,2022.2.2,Win32,240.3846154,,,,,,,,,,,,,,,,,,masks/mask_005.jpg,,,,,,,,,,,,,,,,,,,,,,,,,,,,,,,,,,,,,,,,,,,,,,,,0,0,0,4,1,,,,,,,,,,,,,,,,,,,,,,,,,,,,,,,,,,,,,,,,,
352802,001,2022-11-21_00h28.43.746,Info_measure_main_exp,2022.2.2,Win32,240.3846154,,,,,,,,,,,,,,,,,,masks/mask_003.jpg,,,,,,,,,,,,,,,,,,,,,,,,,,,,,,,,,,,,,,,,,,,,,,,,0,1,1,2,1,,,,,,,,,,,,,,,,,,,,,,,,,,,,,,,,,,,,,,,,,
352802,001,2022-11-21_00h28.43.746,Info_measure_main_exp,2022.2.2,Win32,240.3846154,,,,,,,,,,,,,,,,,,masks/mask_001.jpg,,,,,,,,,,,,,,,,,,,,,,,,,,,,,,,,,,,,,,,,,,,,,,,,0,2,2,0,1,,,,,,,,,,,,,,,,,,,,,,,,,,,,,,,,,,,,,,,,,
352802,001,2022-11-21_00h28.43.746,Info_measure_main_exp,2022.2.2,Win32,240.3846154,,,,,,,,,,,,,,,,,,masks/mask_004.jpg,,,,,,,,,,,,,,,,,,,,,,,,,,,,,,,,,,,,,,,,,,,,,,,,0,3,3,3,1,,,,,,,,,,,,,,,,,,,,,,,,,,,,,,,,,,,,,,,,,
352802,001,2022-11-21_00h28.43.746,Info_measure_main_exp,2022.2.2,Win32,240.3846154,,,,,,,,,,,,,,,,,,masks/mask_002.jpg,,,,,,,,,,,,,,,,,,,,,,,,,,,,,,,,,,,,,,,,,,,,,,,,0,4,4,1,1,,,,,,,,,,,,,,,,,,,,,,,,,,,,,,,,,,,,,,,,,
352802,001,2022-11-21_00h28.43.746,Info_measure_main_exp,2022.2.2,Win32,240.3846154,,,,,,,,,,,,,,,,,,,,,,,,,,,,,,0,0.824,1,,,,,,,,,,,,0,131,5,5,2154,2154,absent_patch/patch0002154.jpg,absent_patch/patch0002154.jpg,,,,,,,,,,,,,,,,,,,,-0.030555556,0.095138889,1,0,0,response7disk,26,0,0.011111111,1,0,0,center_square,0,25,25,89,1,,,,,,,,,,,,,,,,,,,,,,,
352802,001,2022-11-21_00h28.43.746,Info_measure_main_exp,2022.2.2,Win32,240.3846154,,,,,,,,,,,,,,,,,,masks/mask_004.jpg,,,,,,,,,,,,,,,,,,,,,,,,,,,,,,,,,,,,,,,,,,,0,0,0,3,1,,,,,,,,,,,,,,,,,,,,,,,,,,,,,,,,,,,,,,,,,,,,,,
352802,001,2022-11-21_00h28.43.746,Info_measure_main_exp,2022.2.2,Win32,240.3846154,,,,,,,,,,,,,,,,,,masks/mask_002.jpg,,,,,,,,,,,,,,,,,,,,,,,,,,,,,,,,,,,,,,,,,,,0,1,1,1,1,,,,,,,,,,,,,,,,,,,,,,,,,,,,,,,,,,,,,,,,,,,,,,
352802,001,2022-11-21_00h28.43.746,Info_measure_main_exp,2022.2.2,Win32,240.3846154,,,,,,,,,,,,,,,,,,masks/mask_001.jpg,,,,,,,,,,,,,,,,,,,,,,,,,,,,,,,,,,,,,,,,,,,0,2,2,0,1,,,,,,,,,,,,,,,,,,,,,,,,,,,,,,,,,,,,,,,,,,,,,,
352802,001,2022-11-21_00h28.43.746,Info_measure_main_exp,2022.2.2,Win32,240.3846154,,,,,,,,,,,,,,,,,,masks/mask_005.jpg,,,,,,,,,,,,,,,,,,,,,,,,,,,,,,,,,,,,,,,,,,,0,3,3,4,1,,,,,,,,,,,,,,,,,,,,,,,,,,,,,,,,,,,,,,,,,,,,,,
352802,001,2022-11-21_00h28.43.746,Info_measure_main_exp,2022.2.2,Win32,240.3846154,,,,,,,,,,,,,,,,,,masks/mask_003.jpg,,,,,,,,,,,,,,,,,,,,,,,,,,,,,,,,,,,,,,,,,,,0,4,4,2,1,,,,,,,,,,,,,,,,,,,,,,,,,,,,,,,,,,,,,,,,,,,,,,
352802,001,2022-11-21_00h28.43.746,Info_measure_main_exp,2022.2.2,Win32,240.3846154,,,,,,,,,,,,,,,,,,masks/mask_001.jpg,,,,,,,,,,,,,,,,,,,,,,,,,,,,,,,,,,,,,,,,,,,,,,,,0,0,0,0,1,,,,,,,,,,,,,,,,,,,,,,,,,,,,,,,,,,,,,,,,,
352802,001,2022-11-21_00h28.43.746,Info_measure_main_exp,2022.2.2,Win32,240.3846154,,,,,,,,,,,,,,,,,,masks/mask_003.jpg,,,,,,,,,,,,,,,,,,,,,,,,,,,,,,,,,,,,,,,,,,,,,,,,0,1,1,2,1,,,,,,,,,,,,,,,,,,,,,,,,,,,,,,,,,,,,,,,,,
352802,001,2022-11-21_00h28.43.746,Info_measure_main_exp,2022.2.2,Win32,240.3846154,,,,,,,,,,,,,,,,,,masks/mask_002.jpg,,,,,,,,,,,,,,,,,,,,,,,,,,,,,,,,,,,,,,,,,,,,,,,,0,2,2,1,1,,,,,,,,,,,,,,,,,,,,,,,,,,,,,,,,,,,,,,,,,
352802,001,2022-11-21_00h28.43.746,Info_measure_main_exp,2022.2.2,Win32,240.3846154,,,,,,,,,,,,,,,,,,masks/mask_004.jpg,,,,,,,,,,,,,,,,,,,,,,,,,,,,,,,,,,,,,,,,,,,,,,,,0,3,3,3,1,,,,,,,,,,,,,,,,,,,,,,,,,,,,,,,,,,,,,,,,,
352802,001,2022-11-21_00h28.43.746,Info_measure_main_exp,2022.2.2,Win32,240.3846154,,,,,,,,,,,,,,,,,,masks/mask_005.jpg,,,,,,,,,,,,,,,,,,,,,,,,,,,,,,,,,,,,,,,,,,,,,,,,0,4,4,4,1,,,,,,,,,,,,,,,,,,,,,,,,,,,,,,,,,,,,,,,,,
352802,001,2022-11-21_00h28.43.746,Info_measure_main_exp,2022.2.2,Win32,240.3846154,,,,,,,,,,,,,,,,,,,,,,,,,,,,,,4,4.9,1,,,,,,,,,,,,0,131,5,5,1974,2214,absent_patch/patch0001974.jpg,absent_patch/patch0002214.jpg,,,,,,,,,,,,,,,,,,,,0.052777778,-0.084722222,1,0,0,response3disk,27,-0.007638889,-0.002777778,1,0,0,center_square,0,26,26,24,1,,,,,,,,,,,,,,,,,,,,,,,
352802,001,2022-11-21_00h28.43.746,Info_measure_main_exp,2022.2.2,Win32,240.3846154,,,,,,,,,,,,,,,,,,masks/mask_001.jpg,,,,,,,,,,,,,,,,,,,,,,,,,,,,,,,,,,,,,,,,,,,0,0,0,0,1,,,,,,,,,,,,,,,,,,,,,,,,,,,,,,,,,,,,,,,,,,,,,,
352802,001,2022-11-21_00h28.43.746,Info_measure_main_exp,2022.2.2,Win32,240.3846154,,,,,,,,,,,,,,,,,,masks/mask_002.jpg,,,,,,,,,,,,,,,,,,,,,,,,,,,,,,,,,,,,,,,,,,,0,1,1,1,1,,,,,,,,,,,,,,,,,,,,,,,,,,,,,,,,,,,,,,,,,,,,,,
352802,001,2022-11-21_00h28.43.746,Info_measure_main_exp,2022.2.2,Win32,240.3846154,,,,,,,,,,,,,,,,,,masks/mask_003.jpg,,,,,,,,,,,,,,,,,,,,,,,,,,,,,,,,,,,,,,,,,,,0,2,2,2,1,,,,,,,,,,,,,,,,,,,,,,,,,,,,,,,,,,,,,,,,,,,,,,
352802,001,2022-11-21_00h28.43.746,Info_measure_main_exp,2022.2.2,Win32,240.3846154,,,,,,,,,,,,,,,,,,masks/mask_005.jpg,,,,,,,,,,,,,,,,,,,,,,,,,,,,,,,,,,,,,,,,,,,0,3,3,4,1,,,,,,,,,,,,,,,,,,,,,,,,,,,,,,,,,,,,,,,,,,,,,,
352802,001,2022-11-21_00h28.43.746,Info_measure_main_exp,2022.2.2,Win32,240.3846154,,,,,,,,,,,,,,,,,,masks/mask_004.jpg,,,,,,,,,,,,,,,,,,,,,,,,,,,,,,,,,,,,,,,,,,,0,4,4,3,1,,,,,,,,,,,,,,,,,,,,,,,,,,,,,,,,,,,,,,,,,,,,,,
352802,001,2022-11-21_00h28.43.746,Info_measure_main_exp,2022.2.2,Win32,240.3846154,,,,,,,,,,,,,,,,,,masks/mask_003.jpg,,,,,,,,,,,,,,,,,,,,,,,,,,,,,,,,,,,,,,,,,,,,,,,,0,0,0,2,1,,,,,,,,,,,,,,,,,,,,,,,,,,,,,,,,,,,,,,,,,
352802,001,2022-11-21_00h28.43.746,Info_measure_main_exp,2022.2.2,Win32,240.3846154,,,,,,,,,,,,,,,,,,masks/mask_001.jpg,,,,,,,,,,,,,,,,,,,,,,,,,,,,,,,,,,,,,,,,,,,,,,,,0,1,1,0,1,,,,,,,,,,,,,,,,,,,,,,,,,,,,,,,,,,,,,,,,,
352802,001,2022-11-21_00h28.43.746,Info_measure_main_exp,2022.2.2,Win32,240.3846154,,,,,,,,,,,,,,,,,,masks/mask_004.jpg,,,,,,,,,,,,,,,,,,,,,,,,,,,,,,,,,,,,,,,,,,,,,,,,0,2,2,3,1,,,,,,,,,,,,,,,,,,,,,,,,,,,,,,,,,,,,,,,,,
352802,001,2022-11-21_00h28.43.746,Info_measure_main_exp,2022.2.2,Win32,240.3846154,,,,,,,,,,,,,,,,,,masks/mask_005.jpg,,,,,,,,,,,,,,,,,,,,,,,,,,,,,,,,,,,,,,,,,,,,,,,,0,3,3,4,1,,,,,,,,,,,,,,,,,,,,,,,,,,,,,,,,,,,,,,,,,
352802,001,2022-11-21_00h28.43.746,Info_measure_main_exp,2022.2.2,Win32,240.3846154,,,,,,,,,,,,,,,,,,masks/mask_002.jpg,,,,,,,,,,,,,,,,,,,,,,,,,,,,,,,,,,,,,,,,,,,,,,,,0,4,4,1,1,,,,,,,,,,,,,,,,,,,,,,,,,,,,,,,,,,,,,,,,,
352802,001,2022-11-21_00h28.43.746,Info_measure_main_exp,2022.2.2,Win32,240.3846154,,,,,,,,,,,,,,,,,,,,,,,,,,,,,,6,1.504,1,,,,,,,,,,,,0,131,5,5,1986,1974,absent_patch/patch0001986.jpg,absent_patch/patch0001974.jpg,,,,,,,,,,,,,,,,,,,,0.077083333,0.018055556,1,0,0,response1disk,28,0.011805556,-0.000694444,1,0,0,center_square,0,27,27,25,1,,,,,,,,,,,,,,,,,,,,,,,
352802,001,2022-11-21_00h28.43.746,Info_measure_main_exp,2022.2.2,Win32,240.3846154,,,,,,,,,,,,,,,,,,masks/mask_001.jpg,,,,,,,,,,,,,,,,,,,,,,,,,,,,,,,,,,,,,,,,,,,0,0,0,0,1,,,,,,,,,,,,,,,,,,,,,,,,,,,,,,,,,,,,,,,,,,,,,,
352802,001,2022-11-21_00h28.43.746,Info_measure_main_exp,2022.2.2,Win32,240.3846154,,,,,,,,,,,,,,,,,,masks/mask_003.jpg,,,,,,,,,,,,,,,,,,,,,,,,,,,,,,,,,,,,,,,,,,,0,1,1,2,1,,,,,,,,,,,,,,,,,,,,,,,,,,,,,,,,,,,,,,,,,,,,,,
352802,001,2022-11-21_00h28.43.746,Info_measure_main_exp,2022.2.2,Win32,240.3846154,,,,,,,,,,,,,,,,,,masks/mask_002.jpg,,,,,,,,,,,,,,,,,,,,,,,,,,,,,,,,,,,,,,,,,,,0,2,2,1,1,,,,,,,,,,,,,,,,,,,,,,,,,,,,,,,,,,,,,,,,,,,,,,
352802,001,2022-11-21_00h28.43.746,Info_measure_main_exp,2022.2.2,Win32,240.3846154,,,,,,,,,,,,,,,,,,masks/mask_005.jpg,,,,,,,,,,,,,,,,,,,,,,,,,,,,,,,,,,,,,,,,,,,0,3,3,4,1,,,,,,,,,,,,,,,,,,,,,,,,,,,,,,,,,,,,,,,,,,,,,,
352802,001,2022-11-21_00h28.43.746,Info_measure_main_exp,2022.2.2,Win32,240.3846154,,,,,,,,,,,,,,,,,,masks/mask_004.jpg,,,,,,,,,,,,,,,,,,,,,,,,,,,,,,,,,,,,,,,,,,,0,4,4,3,1,,,,,,,,,,,,,,,,,,,,,,,,,,,,,,,,,,,,,,,,,,,,,,
352802,001,2022-11-21_00h28.43.746,Info_measure_main_exp,2022.2.2,Win32,240.3846154,,,,,,,,,,,,,,,,,,masks/mask_004.jpg,,,,,,,,,,,,,,,,,,,,,,,,,,,,,,,,,,,,,,,,,,,,,,,,0,0,0,3,1,,,,,,,,,,,,,,,,,,,,,,,,,,,,,,,,,,,,,,,,,
352802,001,2022-11-21_00h28.43.746,Info_measure_main_exp,2022.2.2,Win32,240.3846154,,,,,,,,,,,,,,,,,,masks/mask_002.jpg,,,,,,,,,,,,,,,,,,,,,,,,,,,,,,,,,,,,,,,,,,,,,,,,0,1,1,1,1,,,,,,,,,,,,,,,,,,,,,,,,,,,,,,,,,,,,,,,,,
352802,001,2022-11-21_00h28.43.746,Info_measure_main_exp,2022.2.2,Win32,240.3846154,,,,,,,,,,,,,,,,,,masks/mask_001.jpg,,,,,,,,,,,,,,,,,,,,,,,,,,,,,,,,,,,,,,,,,,,,,,,,0,2,2,0,1,,,,,,,,,,,,,,,,,,,,,,,,,,,,,,,,,,,,,,,,,
352802,001,2022-11-21_00h28.43.746,Info_measure_main_exp,2022.2.2,Win32,240.3846154,,,,,,,,,,,,,,,,,,masks/mask_003.jpg,,,,,,,,,,,,,,,,,,,,,,,,,,,,,,,,,,,,,,,,,,,,,,,,0,3,3,2,1,,,,,,,,,,,,,,,,,,,,,,,,,,,,,,,,,,,,,,,,,
352802,001,2022-11-21_00h28.43.746,Info_measure_main_exp,2022.2.2,Win32,240.3846154,,,,,,,,,,,,,,,,,,masks/mask_005.jpg,,,,,,,,,,,,,,,,,,,,,,,,,,,,,,,,,,,,,,,,,,,,,,,,0,4,4,4,1,,,,,,,,,,,,,,,,,,,,,,,,,,,,,,,,,,,,,,,,,
352802,001,2022-11-21_00h28.43.746,Info_measure_main_exp,2022.2.2,Win32,240.3846154,,,,,,,,,,,,,,,,,,,,,,,,,,,,,,5,1.729,1,,,,,,,,,,,,0,131,5,5,2238,2298,absent_patch/patch0002238.jpg,absent_patch/patch0002298.jpg,,,,,,,,,,,,,,,,,,,,0.059027778,-0.011111111,1,0,0,response3disk,29,0.013194444,-0.005555556,1,0,0,center_square,0,28,28,51,1,,,,,,,,,,,,,,,,,,,,,,,
352802,001,2022-11-21_00h28.43.746,Info_measure_main_exp,2022.2.2,Win32,240.3846154,,,,,,,,,,,,,,,,,,masks/mask_004.jpg,,,,,,,,,,,,,,,,,,,,,,,,,,,,,,,,,,,,,,,,,,,0,0,0,3,1,,,,,,,,,,,,,,,,,,,,,,,,,,,,,,,,,,,,,,,,,,,,,,
352802,001,2022-11-21_00h28.43.746,Info_measure_main_exp,2022.2.2,Win32,240.3846154,,,,,,,,,,,,,,,,,,masks/mask_005.jpg,,,,,,,,,,,,,,,,,,,,,,,,,,,,,,,,,,,,,,,,,,,0,1,1,4,1,,,,,,,,,,,,,,,,,,,,,,,,,,,,,,,,,,,,,,,,,,,,,,
352802,001,2022-11-21_00h28.43.746,Info_measure_main_exp,2022.2.2,Win32,240.3846154,,,,,,,,,,,,,,,,,,masks/mask_001.jpg,,,,,,,,,,,,,,,,,,,,,,,,,,,,,,,,,,,,,,,,,,,0,2,2,0,1,,,,,,,,,,,,,,,,,,,,,,,,,,,,,,,,,,,,,,,,,,,,,,
352802,001,2022-11-21_00h28.43.746,Info_measure_main_exp,2022.2.2,Win32,240.3846154,,,,,,,,,,,,,,,,,,masks/mask_002.jpg,,,,,,,,,,,,,,,,,,,,,,,,,,,,,,,,,,,,,,,,,,,0,3,3,1,1,,,,,,,,,,,,,,,,,,,,,,,,,,,,,,,,,,,,,,,,,,,,,,
352802,001,2022-11-21_00h28.43.746,Info_measure_main_exp,2022.2.2,Win32,240.3846154,,,,,,,,,,,,,,,,,,masks/mask_003.jpg,,,,,,,,,,,,,,,,,,,,,,,,,,,,,,,,,,,,,,,,,,,0,4,4,2,1,,,,,,,,,,,,,,,,,,,,,,,,,,,,,,,,,,,,,,,,,,,,,,
352802,001,2022-11-21_00h28.43.746,Info_measure_main_exp,2022.2.2,Win32,240.3846154,,,,,,,,,,,,,,,,,,masks/mask_002.jpg,,,,,,,,,,,,,,,,,,,,,,,,,,,,,,,,,,,,,,,,,,,,,,,,0,0,0,1,1,,,,,,,,,,,,,,,,,,,,,,,,,,,,,,,,,,,,,,,,,
352802,001,2022-11-21_00h28.43.746,Info_measure_main_exp,2022.2.2,Win32,240.3846154,,,,,,,,,,,,,,,,,,masks/mask_005.jpg,,,,,,,,,,,,,,,,,,,,,,,,,,,,,,,,,,,,,,,,,,,,,,,,0,1,1,4,1,,,,,,,,,,,,,,,,,,,,,,,,,,,,,,,,,,,,,,,,,
352802,001,2022-11-21_00h28.43.746,Info_measure_main_exp,2022.2.2,Win32,240.3846154,,,,,,,,,,,,,,,,,,masks/mask_004.jpg,,,,,,,,,,,,,,,,,,,,,,,,,,,,,,,,,,,,,,,,,,,,,,,,0,2,2,3,1,,,,,,,,,,,,,,,,,,,,,,,,,,,,,,,,,,,,,,,,,
352802,001,2022-11-21_00h28.43.746,Info_measure_main_exp,2022.2.2,Win32,240.3846154,,,,,,,,,,,,,,,,,,masks/mask_003.jpg,,,,,,,,,,,,,,,,,,,,,,,,,,,,,,,,,,,,,,,,,,,,,,,,0,3,3,2,1,,,,,,,,,,,,,,,,,,,,,,,,,,,,,,,,,,,,,,,,,
352802,001,2022-11-21_00h28.43.746,Info_measure_main_exp,2022.2.2,Win32,240.3846154,,,,,,,,,,,,,,,,,,masks/mask_001.jpg,,,,,,,,,,,,,,,,,,,,,,,,,,,,,,,,,,,,,,,,,,,,,,,,0,4,4,0,1,,,,,,,,,,,,,,,,,,,,,,,,,,,,,,,,,,,,,,,,,
352802,001,2022-11-21_00h28.43.746,Info_measure_main_exp,2022.2.2,Win32,240.3846154,,,,,,,,,,,,,,,,,,,,,,,,,,,,,,5,1.654,1,,,,,,,,,,,,1,131,5,5,1,2274,present_patch/cong_131_5_a.jpg,absent_patch/patch0002274.jpg,,,,,,,,,,,,,,,,,,,,0.05,-0.01875,1,0,0,response3disk,30,0.004861111,-0.009722222,1,0,0,center_square,0,29,29,105,1,,,,,,,,,,,,,,,,,,,,,,,
352802,001,2022-11-21_00h28.43.746,Info_measure_main_exp,2022.2.2,Win32,240.3846154,,,,,,,,,,,,,,,,,,masks/mask_003.jpg,,,,,,,,,,,,,,,,,,,,,,,,,,,,,,,,,,,,,,,,,,,0,0,0,2,1,,,,,,,,,,,,,,,,,,,,,,,,,,,,,,,,,,,,,,,,,,,,,,
352802,001,2022-11-21_00h28.43.746,Info_measure_main_exp,2022.2.2,Win32,240.3846154,,,,,,,,,,,,,,,,,,masks/mask_001.jpg,,,,,,,,,,,,,,,,,,,,,,,,,,,,,,,,,,,,,,,,,,,0,1,1,0,1,,,,,,,,,,,,,,,,,,,,,,,,,,,,,,,,,,,,,,,,,,,,,,
352802,001,2022-11-21_00h28.43.746,Info_measure_main_exp,2022.2.2,Win32,240.3846154,,,,,,,,,,,,,,,,,,masks/mask_004.jpg,,,,,,,,,,,,,,,,,,,,,,,,,,,,,,,,,,,,,,,,,,,0,2,2,3,1,,,,,,,,,,,,,,,,,,,,,,,,,,,,,,,,,,,,,,,,,,,,,,
352802,001,2022-11-21_00h28.43.746,Info_measure_main_exp,2022.2.2,Win32,240.3846154,,,,,,,,,,,,,,,,,,masks/mask_005.jpg,,,,,,,,,,,,,,,,,,,,,,,,,,,,,,,,,,,,,,,,,,,0,3,3,4,1,,,,,,,,,,,,,,,,,,,,,,,,,,,,,,,,,,,,,,,,,,,,,,
352802,001,2022-11-21_00h28.43.746,Info_measure_main_exp,2022.2.2,Win32,240.3846154,,,,,,,,,,,,,,,,,,masks/mask_002.jpg,,,,,,,,,,,,,,,,,,,,,,,,,,,,,,,,,,,,,,,,,,,0,4,4,1,1,,,,,,,,,,,,,,,,,,,,,,,,,,,,,,,,,,,,,,,,,,,,,,
352802,001,2022-11-21_00h28.43.746,Info_measure_main_exp,2022.2.2,Win32,240.3846154,,,,,,,,,,,,,,,,,,masks/mask_004.jpg,,,,,,,,,,,,,,,,,,,,,,,,,,,,,,,,,,,,,,,,,,,,,,,,0,0,0,3,1,,,,,,,,,,,,,,,,,,,,,,,,,,,,,,,,,,,,,,,,,
352802,001,2022-11-21_00h28.43.746,Info_measure_main_exp,2022.2.2,Win32,240.3846154,,,,,,,,,,,,,,,,,,masks/mask_001.jpg,,,,,,,,,,,,,,,,,,,,,,,,,,,,,,,,,,,,,,,,,,,,,,,,0,1,1,0,1,,,,,,,,,,,,,,,,,,,,,,,,,,,,,,,,,,,,,,,,,
352802,001,2022-11-21_00h28.43.746,Info_measure_main_exp,2022.2.2,Win32,240.3846154,,,,,,,,,,,,,,,,,,masks/mask_005.jpg,,,,,,,,,,,,,,,,,,,,,,,,,,,,,,,,,,,,,,,,,,,,,,,,0,2,2,4,1,,,,,,,,,,,,,,,,,,,,,,,,,,,,,,,,,,,,,,,,,
352802,001,2022-11-21_00h28.43.746,Info_measure_main_exp,2022.2.2,Win32,240.3846154,,,,,,,,,,,,,,,,,,masks/mask_002.jpg,,,,,,,,,,,,,,,,,,,,,,,,,,,,,,,,,,,,,,,,,,,,,,,,0,3,3,1,1,,,,,,,,,,,,,,,,,,,,,,,,,,,,,,,,,,,,,,,,,
352802,001,2022-11-21_00h28.43.746,Info_measure_main_exp,2022.2.2,Win32,240.3846154,,,,,,,,,,,,,,,,,,masks/mask_003.jpg,,,,,,,,,,,,,,,,,,,,,,,,,,,,,,,,,,,,,,,,,,,,,,,,0,4,4,2,1,,,,,,,,,,,,,,,,,,,,,,,,,,,,,,,,,,,,,,,,,
352802,001,2022-11-21_00h28.43.746,Info_measure_main_exp,2022.2.2,Win32,240.3846154,,,,,,,,,,,,,,,,,,,,,,,,,,,,,,4,1.921,1,,,,,,,,,,,,0,131,5,5,2238,2166,absent_patch/patch0002238.jpg,absent_patch/patch0002166.jpg,,,,,,,,,,,,,,,,,,,,0.029861111,-0.036805556,1,0,0,response3disk,31,0.004166667,-0.004166667,1,0,0,center_square,0,30,30,118,1,,,,,,,,,,,,,,,,,,,,,,,
352802,001,2022-11-21_00h28.43.746,Info_measure_main_exp,2022.2.2,Win32,240.3846154,,,,,,,,,,,,,,,,,,masks/mask_002.jpg,,,,,,,,,,,,,,,,,,,,,,,,,,,,,,,,,,,,,,,,,,,0,0,0,1,1,,,,,,,,,,,,,,,,,,,,,,,,,,,,,,,,,,,,,,,,,,,,,,
352802,001,2022-11-21_00h28.43.746,Info_measure_main_exp,2022.2.2,Win32,240.3846154,,,,,,,,,,,,,,,,,,masks/mask_004.jpg,,,,,,,,,,,,,,,,,,,,,,,,,,,,,,,,,,,,,,,,,,,0,1,1,3,1,,,,,,,,,,,,,,,,,,,,,,,,,,,,,,,,,,,,,,,,,,,,,,
352802,001,2022-11-21_00h28.43.746,Info_measure_main_exp,2022.2.2,Win32,240.3846154,,,,,,,,,,,,,,,,,,masks/mask_001.jpg,,,,,,,,,,,,,,,,,,,,,,,,,,,,,,,,,,,,,,,,,,,0,2,2,0,1,,,,,,,,,,,,,,,,,,,,,,,,,,,,,,,,,,,,,,,,,,,,,,
352802,001,2022-11-21_00h28.43.746,Info_measure_main_exp,2022.2.2,Win32,240.3846154,,,,,,,,,,,,,,,,,,masks/mask_005.jpg,,,,,,,,,,,,,,,,,,,,,,,,,,,,,,,,,,,,,,,,,,,0,3,3,4,1,,,,,,,,,,,,,,,,,,,,,,,,,,,,,,,,,,,,,,,,,,,,,,
352802,001,2022-11-21_00h28.43.746,Info_measure_main_exp,2022.2.2,Win32,240.3846154,,,,,,,,,,,,,,,,,,masks/mask_003.jpg,,,,,,,,,,,,,,,,,,,,,,,,,,,,,,,,,,,,,,,,,,,0,4,4,2,1,,,,,,,,,,,,,,,,,,,,,,,,,,,,,,,,,,,,,,,,,,,,,,
352802,001,2022-11-21_00h28.43.746,Info_measure_main_exp,2022.2.2,Win32,240.3846154,,,,,,,,,,,,,,,,,,masks/mask_005.jpg,,,,,,,,,,,,,,,,,,,,,,,,,,,,,,,,,,,,,,,,,,,,,,,,0,0,0,4,1,,,,,,,,,,,,,,,,,,,,,,,,,,,,,,,,,,,,,,,,,
352802,001,2022-11-21_00h28.43.746,Info_measure_main_exp,2022.2.2,Win32,240.3846154,,,,,,,,,,,,,,,,,,masks/mask_004.jpg,,,,,,,,,,,,,,,,,,,,,,,,,,,,,,,,,,,,,,,,,,,,,,,,0,1,1,3,1,,,,,,,,,,,,,,,,,,,,,,,,,,,,,,,,,,,,,,,,,
352802,001,2022-11-21_00h28.43.746,Info_measure_main_exp,2022.2.2,Win32,240.3846154,,,,,,,,,,,,,,,,,,masks/mask_002.jpg,,,,,,,,,,,,,,,,,,,,,,,,,,,,,,,,,,,,,,,,,,,,,,,,0,2,2,1,1,,,,,,,,,,,,,,,,,,,,,,,,,,,,,,,,,,,,,,,,,
352802,001,2022-11-21_00h28.43.746,Info_measure_main_exp,2022.2.2,Win32,240.3846154,,,,,,,,,,,,,,,,,,masks/mask_003.jpg,,,,,,,,,,,,,,,,,,,,,,,,,,,,,,,,,,,,,,,,,,,,,,,,0,3,3,2,1,,,,,,,,,,,,,,,,,,,,,,,,,,,,,,,,,,,,,,,,,
352802,001,2022-11-21_00h28.43.746,Info_measure_main_exp,2022.2.2,Win32,240.3846154,,,,,,,,,,,,,,,,,,masks/mask_001.jpg,,,,,,,,,,,,,,,,,,,,,,,,,,,,,,,,,,,,,,,,,,,,,,,,0,4,4,0,1,,,,,,,,,,,,,,,,,,,,,,,,,,,,,,,,,,,,,,,,,
352802,001,2022-11-21_00h28.43.746,Info_measure_main_exp,2022.2.2,Win32,240.3846154,,,,,,,,,,,,,,,,,,,,,,,,,,,,,,6,1.271,1,,,,,,,,,,,,0,131,5,5,1974,2166,absent_patch/patch0001974.jpg,absent_patch/patch0002166.jpg,,,,,,,,,,,,,,,,,,,,0.077083333,0.022222222,1,0,0,response1disk,32,0,0.002777778,1,0,0,center_square,0,31,31,77,1,,,,,,,,,,,,,,,,,,,,,,,
352802,001,2022-11-21_00h28.43.746,Info_measure_main_exp,2022.2.2,Win32,240.3846154,,,,,,,,,,,,,,,,,,masks/mask_001.jpg,,,,,,,,,,,,,,,,,,,,,,,,,,,,,,,,,,,,,,,,,,,0,0,0,0,1,,,,,,,,,,,,,,,,,,,,,,,,,,,,,,,,,,,,,,,,,,,,,,
352802,001,2022-11-21_00h28.43.746,Info_measure_main_exp,2022.2.2,Win32,240.3846154,,,,,,,,,,,,,,,,,,masks/mask_004.jpg,,,,,,,,,,,,,,,,,,,,,,,,,,,,,,,,,,,,,,,,,,,0,1,1,3,1,,,,,,,,,,,,,,,,,,,,,,,,,,,,,,,,,,,,,,,,,,,,,,
352802,001,2022-11-21_00h28.43.746,Info_measure_main_exp,2022.2.2,Win32,240.3846154,,,,,,,,,,,,,,,,,,masks/mask_003.jpg,,,,,,,,,,,,,,,,,,,,,,,,,,,,,,,,,,,,,,,,,,,0,2,2,2,1,,,,,,,,,,,,,,,,,,,,,,,,,,,,,,,,,,,,,,,,,,,,,,
352802,001,2022-11-21_00h28.43.746,Info_measure_main_exp,2022.2.2,Win32,240.3846154,,,,,,,,,,,,,,,,,,masks/mask_005.jpg,,,,,,,,,,,,,,,,,,,,,,,,,,,,,,,,,,,,,,,,,,,0,3,3,4,1,,,,,,,,,,,,,,,,,,,,,,,,,,,,,,,,,,,,,,,,,,,,,,
352802,001,2022-11-21_00h28.43.746,Info_measure_main_exp,2022.2.2,Win32,240.3846154,,,,,,,,,,,,,,,,,,masks/mask_002.jpg,,,,,,,,,,,,,,,,,,,,,,,,,,,,,,,,,,,,,,,,,,,0,4,4,1,1,,,,,,,,,,,,,,,,,,,,,,,,,,,,,,,,,,,,,,,,,,,,,,
352802,001,2022-11-21_00h28.43.746,Info_measure_main_exp,2022.2.2,Win32,240.3846154,,,,,,,,,,,,,,,,,,masks/mask_001.jpg,,,,,,,,,,,,,,,,,,,,,,,,,,,,,,,,,,,,,,,,,,,,,,,,0,0,0,0,1,,,,,,,,,,,,,,,,,,,,,,,,,,,,,,,,,,,,,,,,,
352802,001,2022-11-21_00h28.43.746,Info_measure_main_exp,2022.2.2,Win32,240.3846154,,,,,,,,,,,,,,,,,,masks/mask_003.jpg,,,,,,,,,,,,,,,,,,,,,,,,,,,,,,,,,,,,,,,,,,,,,,,,0,1,1,2,1,,,,,,,,,,,,,,,,,,,,,,,,,,,,,,,,,,,,,,,,,
352802,001,2022-11-21_00h28.43.746,Info_measure_main_exp,2022.2.2,Win32,240.3846154,,,,,,,,,,,,,,,,,,masks/mask_002.jpg,,,,,,,,,,,,,,,,,,,,,,,,,,,,,,,,,,,,,,,,,,,,,,,,0,2,2,1,1,,,,,,,,,,,,,,,,,,,,,,,,,,,,,,,,,,,,,,,,,
352802,001,2022-11-21_00h28.43.746,Info_measure_main_exp,2022.2.2,Win32,240.3846154,,,,,,,,,,,,,,,,,,masks/mask_004.jpg,,,,,,,,,,,,,,,,,,,,,,,,,,,,,,,,,,,,,,,,,,,,,,,,0,3,3,3,1,,,,,,,,,,,,,,,,,,,,,,,,,,,,,,,,,,,,,,,,,
352802,001,2022-11-21_00h28.43.746,Info_measure_main_exp,2022.2.2,Win32,240.3846154,,,,,,,,,,,,,,,,,,masks/mask_005.jpg,,,,,,,,,,,,,,,,,,,,,,,,,,,,,,,,,,,,,,,,,,,,,,,,0,4,4,4,1,,,,,,,,,,,,,,,,,,,,,,,,,,,,,,,,,,,,,,,,,
352802,001,2022-11-21_00h28.43.746,Info_measure_main_exp,2022.2.2,Win32,240.3846154,,,,,,,,,,,,,,,,,,,,,,,,,,,,,,6,1.804,1,,,,,,,,,,,,0,131,5,5,2154,1950,absent_patch/patch0002154.jpg,absent_patch/patch0001950.jpg,,,,,,,,,,,,,,,,,,,,0.060416667,0.008333333,1,0,0,response1disk,33,-0.008333333,0.002777778,1,0,0,center_square,0,32,32,96,1,,,,,,,,,,,,,,,,,,,,,,,
352802,001,2022-11-21_00h28.43.746,Info_measure_main_exp,2022.2.2,Win32,240.3846154,,,,,,,,,,,,,,,,,,masks/mask_002.jpg,,,,,,,,,,,,,,,,,,,,,,,,,,,,,,,,,,,,,,,,,,,0,0,0,1,1,,,,,,,,,,,,,,,,,,,,,,,,,,,,,,,,,,,,,,,,,,,,,,
352802,001,2022-11-21_00h28.43.746,Info_measure_main_exp,2022.2.2,Win32,240.3846154,,,,,,,,,,,,,,,,,,masks/mask_005.jpg,,,,,,,,,,,,,,,,,,,,,,,,,,,,,,,,,,,,,,,,,,,0,1,1,4,1,,,,,,,,,,,,,,,,,,,,,,,,,,,,,,,,,,,,,,,,,,,,,,
352802,001,2022-11-21_00h28.43.746,Info_measure_main_exp,2022.2.2,Win32,240.3846154,,,,,,,,,,,,,,,,,,masks/mask_001.jpg,,,,,,,,,,,,,,,,,,,,,,,,,,,,,,,,,,,,,,,,,,,0,2,2,0,1,,,,,,,,,,,,,,,,,,,,,,,,,,,,,,,,,,,,,,,,,,,,,,
352802,001,2022-11-21_00h28.43.746,Info_measure_main_exp,2022.2.2,Win32,240.3846154,,,,,,,,,,,,,,,,,,masks/mask_003.jpg,,,,,,,,,,,,,,,,,,,,,,,,,,,,,,,,,,,,,,,,,,,0,3,3,2,1,,,,,,,,,,,,,,,,,,,,,,,,,,,,,,,,,,,,,,,,,,,,,,
352802,001,2022-11-21_00h28.43.746,Info_measure_main_exp,2022.2.2,Win32,240.3846154,,,,,,,,,,,,,,,,,,masks/mask_004.jpg,,,,,,,,,,,,,,,,,,,,,,,,,,,,,,,,,,,,,,,,,,,0,4,4,3,1,,,,,,,,,,,,,,,,,,,,,,,,,,,,,,,,,,,,,,,,,,,,,,
352802,001,2022-11-21_00h28.43.746,Info_measure_main_exp,2022.2.2,Win32,240.3846154,,,,,,,,,,,,,,,,,,masks/mask_003.jpg,,,,,,,,,,,,,,,,,,,,,,,,,,,,,,,,,,,,,,,,,,,,,,,,0,0,0,2,1,,,,,,,,,,,,,,,,,,,,,,,,,,,,,,,,,,,,,,,,,
352802,001,2022-11-21_00h28.43.746,Info_measure_main_exp,2022.2.2,Win32,240.3846154,,,,,,,,,,,,,,,,,,masks/mask_002.jpg,,,,,,,,,,,,,,,,,,,,,,,,,,,,,,,,,,,,,,,,,,,,,,,,0,1,1,1,1,,,,,,,,,,,,,,,,,,,,,,,,,,,,,,,,,,,,,,,,,
352802,001,2022-11-21_00h28.43.746,Info_measure_main_exp,2022.2.2,Win32,240.3846154,,,,,,,,,,,,,,,,,,masks/mask_005.jpg,,,,,,,,,,,,,,,,,,,,,,,,,,,,,,,,,,,,,,,,,,,,,,,,0,2,2,4,1,,,,,,,,,,,,,,,,,,,,,,,,,,,,,,,,,,,,,,,,,
352802,001,2022-11-21_00h28.43.746,Info_measure_main_exp,2022.2.2,Win32,240.3846154,,,,,,,,,,,,,,,,,,masks/mask_004.jpg,,,,,,,,,,,,,,,,,,,,,,,,,,,,,,,,,,,,,,,,,,,,,,,,0,3,3,3,1,,,,,,,,,,,,,,,,,,,,,,,,,,,,,,,,,,,,,,,,,
352802,001,2022-11-21_00h28.43.746,Info_measure_main_exp,2022.2.2,Win32,240.3846154,,,,,,,,,,,,,,,,,,masks/mask_001.jpg,,,,,,,,,,,,,,,,,,,,,,,,,,,,,,,,,,,,,,,,,,,,,,,,0,4,4,0,1,,,,,,,,,,,,,,,,,,,,,,,,,,,,,,,,,,,,,,,,,
352802,001,2022-11-21_00h28.43.746,Info_measure_main_exp,2022.2.2,Win32,240.3846154,,,,,,,,,,,,,,,,,,,,,,,,,,,,,,5,1.404,1,,,,,,,,,,,,1,131,5,5,2298,1,absent_patch/patch0002298.jpg,present_patch/cong_131_5_a.jpg,,,,,,,,,,,,,,,,,,,,0.057638889,-0.018055556,1,0,0,response3disk,34,-0.002083333,0.003472222,1,0,0,center_square,0,33,33,45,1,,,,,,,,,,,,,,,,,,,,,,,
352802,001,2022-11-21_00h28.43.746,Info_measure_main_exp,2022.2.2,Win32,240.3846154,,,,,,,,,,,,,,,,,,masks/mask_005.jpg,,,,,,,,,,,,,,,,,,,,,,,,,,,,,,,,,,,,,,,,,,,0,0,0,4,1,,,,,,,,,,,,,,,,,,,,,,,,,,,,,,,,,,,,,,,,,,,,,,
352802,001,2022-11-21_00h28.43.746,Info_measure_main_exp,2022.2.2,Win32,240.3846154,,,,,,,,,,,,,,,,,,masks/mask_001.jpg,,,,,,,,,,,,,,,,,,,,,,,,,,,,,,,,,,,,,,,,,,,0,1,1,0,1,,,,,,,,,,,,,,,,,,,,,,,,,,,,,,,,,,,,,,,,,,,,,,
352802,001,2022-11-21_00h28.43.746,Info_measure_main_exp,2022.2.2,Win32,240.3846154,,,,,,,,,,,,,,,,,,masks/mask_004.jpg,,,,,,,,,,,,,,,,,,,,,,,,,,,,,,,,,,,,,,,,,,,0,2,2,3,1,,,,,,,,,,,,,,,,,,,,,,,,,,,,,,,,,,,,,,,,,,,,,,
352802,001,2022-11-21_00h28.43.746,Info_measure_main_exp,2022.2.2,Win32,240.3846154,,,,,,,,,,,,,,,,,,masks/mask_003.jpg,,,,,,,,,,,,,,,,,,,,,,,,,,,,,,,,,,,,,,,,,,,0,3,3,2,1,,,,,,,,,,,,,,,,,,,,,,,,,,,,,,,,,,,,,,,,,,,,,,
352802,001,2022-11-21_00h28.43.746,Info_measure_main_exp,2022.2.2,Win32,240.3846154,,,,,,,,,,,,,,,,,,masks/mask_002.jpg,,,,,,,,,,,,,,,,,,,,,,,,,,,,,,,,,,,,,,,,,,,0,4,4,1,1,,,,,,,,,,,,,,,,,,,,,,,,,,,,,,,,,,,,,,,,,,,,,,
352802,001,2022-11-21_00h28.43.746,Info_measure_main_exp,2022.2.2,Win32,240.3846154,,,,,,,,,,,,,,,,,,masks/mask_005.jpg,,,,,,,,,,,,,,,,,,,,,,,,,,,,,,,,,,,,,,,,,,,,,,,,0,0,0,4,1,,,,,,,,,,,,,,,,,,,,,,,,,,,,,,,,,,,,,,,,,
352802,001,2022-11-21_00h28.43.746,Info_measure_main_exp,2022.2.2,Win32,240.3846154,,,,,,,,,,,,,,,,,,masks/mask_003.jpg,,,,,,,,,,,,,,,,,,,,,,,,,,,,,,,,,,,,,,,,,,,,,,,,0,1,1,2,1,,,,,,,,,,,,,,,,,,,,,,,,,,,,,,,,,,,,,,,,,
352802,001,2022-11-21_00h28.43.746,Info_measure_main_exp,2022.2.2,Win32,240.3846154,,,,,,,,,,,,,,,,,,masks/mask_001.jpg,,,,,,,,,,,,,,,,,,,,,,,,,,,,,,,,,,,,,,,,,,,,,,,,0,2,2,0,1,,,,,,,,,,,,,,,,,,,,,,,,,,,,,,,,,,,,,,,,,
352802,001,2022-11-21_00h28.43.746,Info_measure_main_exp,2022.2.2,Win32,240.3846154,,,,,,,,,,,,,,,,,,masks/mask_004.jpg,,,,,,,,,,,,,,,,,,,,,,,,,,,,,,,,,,,,,,,,,,,,,,,,0,3,3,3,1,,,,,,,,,,,,,,,,,,,,,,,,,,,,,,,,,,,,,,,,,
