participant,session,date,expName,psychopyVersion,OS,frameRate,space_press_continue.keys,space_press_continue.rt,space_press_continue_2.keys,space_press_continue_2.rt,space_press_continue_3.keys,space_press_continue_3.rt,space_press_continue_4.keys,space_press_continue_4.rt,space_press_continue_5.keys,space_press_continue_5.rt,space_press_continue_6.keys,space_press_continue_6.rt,prac_mask_loop_1.thisRepN,prac_mask_loop_1.thisTrialN,prac_mask_loop_1.thisN,prac_mask_loop_1.thisIndex,prac_mask_loop_1.ran,mask_name,prac_mask_loop_2.thisRepN,prac_mask_loop_2.thisTrialN,prac_mask_loop_2.thisN,prac_mask_loop_2.thisIndex,prac_mask_loop_2.ran,mouse_2.x,mouse_2.y,mouse_2.leftButton,mouse_2.midButton,mouse_2.rightButton,mouse_2.clicked_name,similarity,response_time,Pass,mouse_12.x,mouse_12.y,mouse_12.leftButton,mouse_12.midButton,mouse_12.rightButton,mouse_12.clicked_name,prac_loop.thisRepN,prac_loop.thisTrialN,prac_loop.thisN,prac_loop.thisIndex,prac_loop.ran,Pair_type,Image_num,Patch_1_loc,Patch_2_loc,Patch_1_info,Patch_2_info,Patch_1_name,Patch_2_name,mouse_1.x,mouse_1.y,mouse_1.leftButton,mouse_1.midButton,mouse_1.rightButton,mouse_1.time,mouse_1.clicked_name,space_press_continue_7.keys,space_press_continue_7.rt,mask_loop.thisRepN,mask_loop.thisTrialN,mask_loop.thisN,mask_loop.thisIndex,mask_loop.ran,mask_loop_2.thisRepN,mask_loop_2.thisTrialN,mask_loop_2.thisN,mask_loop_2.thisIndex,mask_loop_2.ran,mouse.x,mouse.y,mouse.leftButton,mouse.midButton,mouse.rightButton,mouse.clicked_name,trialNumber,mouse_11.x,mouse_11.y,mouse_11.leftButton,mouse_11.midButton,mouse_11.rightButton,mouse_11.clicked_name,first_pass_loop.thisRepN,first_pass_loop.thisTrialN,first_pass_loop.thisN,first_pass_loop.thisIndex,first_pass_loop.ran,mask_loop_3.thisRepN,mask_loop_3.thisTrialN,mask_loop_3.thisN,mask_loop_3.thisIndex,mask_loop_3.ran,mask_loop_4.thisRepN,mask_loop_4.thisTrialN,mask_loop_4.thisN,mask_loop_4.thisIndex,mask_loop_4.ran,mouse_3.x,mouse_3.y,mouse_3.leftButton,mouse_3.midButton,mouse_3.rightButton,mouse_3.clicked_name,double_pass_loop.thisRepN,double_pass_loop.thisTrialN,double_pass_loop.thisN,double_pass_loop.thisIndex,double_pass_loop.ran,space_exit.keys,space_exit.rt
359269,001,2022-11-20_23h54.23.787,Info_measure_main_exp,2022.2.2,Win32,59.95203837,,,,,,,,,,,,,,,,,,,,,,,,,,,,,,,,,,,,,,,,,,,,,,,,,,,,,,,,,,,,,,,,,,,,,,,,,,,,,,,,,,,,,,,,,,,,,,,,,,,,,,,,,,,,,,,
359269,001,2022-11-20_23h54.23.787,Info_measure_main_exp,2022.2.2,Win32,59.95203837,,,,,,,,,,,,,,,,,,,,,,,,,,,,,,,,,,,,,,,,,,,,,,,,,,,,,,,,,,,,,,,,,,,,,,,,,,,,,,,,,,,,,,,,,,,,,,,,,,,,,,,,,,,,,,,
359269,001,2022-11-20_23h54.23.787,Info_measure_main_exp,2022.2.2,Win32,59.95203837,space,6.196,,,,,,,,,,,,,,,,,,,,,,,,,,,,,,,,,,,,,,,,,,,,,,,,,,,,,,,,,,,,,,,,,,,,,,,,,,,,,,,,,,,,,,,,,,,,,,,,,,,,,,,,,,,,,
359269,001,2022-11-20_23h54.23.787,Info_measure_main_exp,2022.2.2,Win32,59.95203837,,,space,10.609,,,,,,,,,,,,,,,,,,,,,,,,,,,,,,,,,,,,,,,,,,,,,,,,,,,,,,,,,,,,,,,,,,,,,,,,,,,,,,,,,,,,,,,,,,,,,,,,,,,,,,,,,,,
359269,001,2022-11-20_23h54.23.787,Info_measure_main_exp,2022.2.2,Win32,59.95203837,,,,,space,6.249,,,,,,,,,,,,,,,,,,,,,,,,,,,,,,,,,,,,,,,,,,,,,,,,,,,,,,,,,,,,,,,,,,,,,,,,,,,,,,,,,,,,,,,,,,,,,,,,,,,,,,,,,
359269,001,2022-11-20_23h54.23.787,Info_measure_main_exp,2022.2.2,Win32,59.95203837,,,,,,,space,15.032,,,,,,,,,,,,,,,,,,,,,,,,,,,,,,,,,,,,,,,,,,,,,,,,,,,,,,,,,,,,,,,,,,,,,,,,,,,,,,,,,,,,,,,,,,,,,,,,,,,,,,,
359269,001,2022-11-20_23h54.23.787,Info_measure_main_exp,2022.2.2,Win32,59.95203837,,,,,,,,,space,3.308,,,,,,,,,,,,,,,,,,,,,,,,,,,,,,,,,,,,,,,,,,,,,,,,,,,,,,,,,,,,,,,,,,,,,,,,,,,,,,,,,,,,,,,,,,,,,,,,,,,,,
359269,001,2022-11-20_23h54.23.787,Info_measure_main_exp,2022.2.2,Win32,59.95203837,,,,,,,,,,,space,3.164,,,,,,,,,,,,,,,,,,,,,,,,,,,,,,,,,,,,,,,,,,,,,,,,,,,,,,,,,,,,,,,,,,,,,,,,,,,,,,,,,,,,,,,,,,,,,,,,,,,
359269,001,2022-11-20_23h54.23.787,Info_measure_main_exp,2022.2.2,Win32,59.95203837,,,,,,,,,,,,,0,0,0,0,1,masks/mask_001.jpg,,,,,,,,,,,,,,,,,,,,,,,,,,,,,,,,,,,,,,,,,,,,,,,,,,,,,,,,,,,,,,,,,,,,,,,,,,,,,,,,,,,,,,,,,,,,,
359269,001,2022-11-20_23h54.23.787,Info_measure_main_exp,2022.2.2,Win32,59.95203837,,,,,,,,,,,,,0,1,1,1,1,masks/mask_002.jpg,,,,,,,,,,,,,,,,,,,,,,,,,,,,,,,,,,,,,,,,,,,,,,,,,,,,,,,,,,,,,,,,,,,,,,,,,,,,,,,,,,,,,,,,,,,,,
359269,001,2022-11-20_23h54.23.787,Info_measure_main_exp,2022.2.2,Win32,59.95203837,,,,,,,,,,,,,0,2,2,3,1,masks/mask_004.jpg,,,,,,,,,,,,,,,,,,,,,,,,,,,,,,,,,,,,,,,,,,,,,,,,,,,,,,,,,,,,,,,,,,,,,,,,,,,,,,,,,,,,,,,,,,,,,
359269,001,2022-11-20_23h54.23.787,Info_measure_main_exp,2022.2.2,Win32,59.95203837,,,,,,,,,,,,,0,3,3,4,1,masks/mask_005.jpg,,,,,,,,,,,,,,,,,,,,,,,,,,,,,,,,,,,,,,,,,,,,,,,,,,,,,,,,,,,,,,,,,,,,,,,,,,,,,,,,,,,,,,,,,,,,,
359269,001,2022-11-20_23h54.23.787,Info_measure_main_exp,2022.2.2,Win32,59.95203837,,,,,,,,,,,,,0,4,4,2,1,masks/mask_003.jpg,,,,,,,,,,,,,,,,,,,,,,,,,,,,,,,,,,,,,,,,,,,,,,,,,,,,,,,,,,,,,,,,,,,,,,,,,,,,,,,,,,,,,,,,,,,,,
359269,001,2022-11-20_23h54.23.787,Info_measure_main_exp,2022.2.2,Win32,59.95203837,,,,,,,,,,,,,,,,,,masks/mask_001.jpg,0,0,0,0,1,,,,,,,,,,,,,,,,,,,,,,,,,,,,,,,,,,,,,,,,,,,,,,,,,,,,,,,,,,,,,,,,,,,,,,,,,,,,,,,,,,,,,,,,
359269,001,2022-11-20_23h54.23.787,Info_measure_main_exp,2022.2.2,Win32,59.95203837,,,,,,,,,,,,,,,,,,masks/mask_003.jpg,0,1,1,2,1,,,,,,,,,,,,,,,,,,,,,,,,,,,,,,,,,,,,,,,,,,,,,,,,,,,,,,,,,,,,,,,,,,,,,,,,,,,,,,,,,,,,,,,,
359269,001,2022-11-20_23h54.23.787,Info_measure_main_exp,2022.2.2,Win32,59.95203837,,,,,,,,,,,,,,,,,,masks/mask_004.jpg,0,2,2,3,1,,,,,,,,,,,,,,,,,,,,,,,,,,,,,,,,,,,,,,,,,,,,,,,,,,,,,,,,,,,,,,,,,,,,,,,,,,,,,,,,,,,,,,,,
359269,001,2022-11-20_23h54.23.787,Info_measure_main_exp,2022.2.2,Win32,59.95203837,,,,,,,,,,,,,,,,,,masks/mask_002.jpg,0,3,3,1,1,,,,,,,,,,,,,,,,,,,,,,,,,,,,,,,,,,,,,,,,,,,,,,,,,,,,,,,,,,,,,,,,,,,,,,,,,,,,,,,,,,,,,,,,
359269,001,2022-11-20_23h54.23.787,Info_measure_main_exp,2022.2.2,Win32,59.95203837,,,,,,,,,,,,,,,,,,masks/mask_005.jpg,0,4,4,4,1,,,,,,,,,,,,,,,,,,,,,,,,,,,,,,,,,,,,,,,,,,,,,,,,,,,,,,,,,,,,,,,,,,,,,,,,,,,,,,,,,,,,,,,,
359269,001,2022-11-20_23h54.23.787,Info_measure_main_exp,2022.2.2,Win32,59.95203837,,,,,,,,,,,,,,,,,,,,,,,,0.044444444,-0.164814815,1,0,0,response3disk,4,55.964,1,-0.006481481,-0.00462963,1,0,0,center_square,0,0,0,0,1,0,131,5,5,2370,2406,prac_patch/patch0002370.jpg,prac_patch/patch0002406.jpg,,,,,,,,,,,,,,,,,,,,,,,,,,,,,,,,,,,,,,,,,,,,,,,,,,,,,,,,,,,,
359269,001,2022-11-20_23h54.23.787,Info_measure_main_exp,2022.2.2,Win32,59.95203837,,,,,,,,,,,,,0,0,0,1,1,masks/mask_002.jpg,,,,,,,,,,,,,,,,,,,,,,,,,,,,,,,,,,,,,,,,,,,,,,,,,,,,,,,,,,,,,,,,,,,,,,,,,,,,,,,,,,,,,,,,,,,,,
359269,001,2022-11-20_23h54.23.787,Info_measure_main_exp,2022.2.2,Win32,59.95203837,,,,,,,,,,,,,0,1,1,3,1,masks/mask_004.jpg,,,,,,,,,,,,,,,,,,,,,,,,,,,,,,,,,,,,,,,,,,,,,,,,,,,,,,,,,,,,,,,,,,,,,,,,,,,,,,,,,,,,,,,,,,,,,
359269,001,2022-11-20_23h54.23.787,Info_measure_main_exp,2022.2.2,Win32,59.95203837,,,,,,,,,,,,,0,2,2,4,1,masks/mask_005.jpg,,,,,,,,,,,,,,,,,,,,,,,,,,,,,,,,,,,,,,,,,,,,,,,,,,,,,,,,,,,,,,,,,,,,,,,,,,,,,,,,,,,,,,,,,,,,,
359269,001,2022-11-20_23h54.23.787,Info_measure_main_exp,2022.2.2,Win32,59.95203837,,,,,,,,,,,,,0,3,3,0,1,masks/mask_001.jpg,,,,,,,,,,,,,,,,,,,,,,,,,,,,,,,,,,,,,,,,,,,,,,,,,,,,,,,,,,,,,,,,,,,,,,,,,,,,,,,,,,,,,,,,,,,,,
359269,001,2022-11-20_23h54.23.787,Info_measure_main_exp,2022.2.2,Win32,59.95203837,,,,,,,,,,,,,0,4,4,2,1,masks/mask_003.jpg,,,,,,,,,,,,,,,,,,,,,,,,,,,,,,,,,,,,,,,,,,,,,,,,,,,,,,,,,,,,,,,,,,,,,,,,,,,,,,,,,,,,,,,,,,,,,
359269,001,2022-11-20_23h54.23.787,Info_measure_main_exp,2022.2.2,Win32,59.95203837,,,,,,,,,,,,,,,,,,masks/mask_004.jpg,0,0,0,3,1,,,,,,,,,,,,,,,,,,,,,,,,,,,,,,,,,,,,,,,,,,,,,,,,,,,,,,,,,,,,,,,,,,,,,,,,,,,,,,,,,,,,,,,,
359269,001,2022-11-20_23h54.23.787,Info_measure_main_exp,2022.2.2,Win32,59.95203837,,,,,,,,,,,,,,,,,,masks/mask_001.jpg,0,1,1,0,1,,,,,,,,,,,,,,,,,,,,,,,,,,,,,,,,,,,,,,,,,,,,,,,,,,,,,,,,,,,,,,,,,,,,,,,,,,,,,,,,,,,,,,,,
359269,001,2022-11-20_23h54.23.787,Info_measure_main_exp,2022.2.2,Win32,59.95203837,,,,,,,,,,,,,,,,,,masks/mask_002.jpg,0,2,2,1,1,,,,,,,,,,,,,,,,,,,,,,,,,,,,,,,,,,,,,,,,,,,,,,,,,,,,,,,,,,,,,,,,,,,,,,,,,,,,,,,,,,,,,,,,
359269,001,2022-11-20_23h54.23.787,Info_measure_main_exp,2022.2.2,Win32,59.95203837,,,,,,,,,,,,,,,,,,masks/mask_005.jpg,0,3,3,4,1,,,,,,,,,,,,,,,,,,,,,,,,,,,,,,,,,,,,,,,,,,,,,,,,,,,,,,,,,,,,,,,,,,,,,,,,,,,,,,,,,,,,,,,,
359269,001,2022-11-20_23h54.23.787,Info_measure_main_exp,2022.2.2,Win32,59.95203837,,,,,,,,,,,,,,,,,,masks/mask_003.jpg,0,4,4,2,1,,,,,,,,,,,,,,,,,,,,,,,,,,,,,,,,,,,,,,,,,,,,,,,,,,,,,,,,,,,,,,,,,,,,,,,,,,,,,,,,,,,,,,,,
359269,001,2022-11-20_23h54.23.787,Info_measure_main_exp,2022.2.2,Win32,59.95203837,,,,,,,,,,,,,,,,,,,,,,,,-0.149074074,0.047222222,1,0,0,response7disk,1,65.973,1,-0.001851852,0.005555556,1,0,0,center_square,0,1,1,2,1,0,131,5,5,2526,2526,prac_patch/patch0002526.jpg,prac_patch/patch0002526.jpg,,,,,,,,,,,,,,,,,,,,,,,,,,,,,,,,,,,,,,,,,,,,,,,,,,,,,,,,,,,,
359269,001,2022-11-20_23h54.23.787,Info_measure_main_exp,2022.2.2,Win32,59.95203837,,,,,,,,,,,,,0,0,0,0,1,masks/mask_001.jpg,,,,,,,,,,,,,,,,,,,,,,,,,,,,,,,,,,,,,,,,,,,,,,,,,,,,,,,,,,,,,,,,,,,,,,,,,,,,,,,,,,,,,,,,,,,,,
359269,001,2022-11-20_23h54.23.787,Info_measure_main_exp,2022.2.2,Win32,59.95203837,,,,,,,,,,,,,0,1,1,3,1,masks/mask_004.jpg,,,,,,,,,,,,,,,,,,,,,,,,,,,,,,,,,,,,,,,,,,,,,,,,,,,,,,,,,,,,,,,,,,,,,,,,,,,,,,,,,,,,,,,,,,,,,
359269,001,2022-11-20_23h54.23.787,Info_measure_main_exp,2022.2.2,Win32,59.95203837,,,,,,,,,,,,,0,2,2,1,1,masks/mask_002.jpg,,,,,,,,,,,,,,,,,,,,,,,,,,,,,,,,,,,,,,,,,,,,,,,,,,,,,,,,,,,,,,,,,,,,,,,,,,,,,,,,,,,,,,,,,,,,,
359269,001,2022-11-20_23h54.23.787,Info_measure_main_exp,2022.2.2,Win32,59.95203837,,,,,,,,,,,,,0,3,3,4,1,masks/mask_005.jpg,,,,,,,,,,,,,,,,,,,,,,,,,,,,,,,,,,,,,,,,,,,,,,,,,,,,,,,,,,,,,,,,,,,,,,,,,,,,,,,,,,,,,,,,,,,,,
359269,001,2022-11-20_23h54.23.787,Info_measure_main_exp,2022.2.2,Win32,59.95203837,,,,,,,,,,,,,0,4,4,2,1,masks/mask_003.jpg,,,,,,,,,,,,,,,,,,,,,,,,,,,,,,,,,,,,,,,,,,,,,,,,,,,,,,,,,,,,,,,,,,,,,,,,,,,,,,,,,,,,,,,,,,,,,
359269,001,2022-11-20_23h54.23.787,Info_measure_main_exp,2022.2.2,Win32,59.95203837,,,,,,,,,,,,,,,,,,masks/mask_002.jpg,0,0,0,1,1,,,,,,,,,,,,,,,,,,,,,,,,,,,,,,,,,,,,,,,,,,,,,,,,,,,,,,,,,,,,,,,,,,,,,,,,,,,,,,,,,,,,,,,,
359269,001,2022-11-20_23h54.23.787,Info_measure_main_exp,2022.2.2,Win32,59.95203837,,,,,,,,,,,,,,,,,,masks/mask_005.jpg,0,1,1,4,1,,,,,,,,,,,,,,,,,,,,,,,,,,,,,,,,,,,,,,,,,,,,,,,,,,,,,,,,,,,,,,,,,,,,,,,,,,,,,,,,,,,,,,,,
359269,001,2022-11-20_23h54.23.787,Info_measure_main_exp,2022.2.2,Win32,59.95203837,,,,,,,,,,,,,,,,,,masks/mask_003.jpg,0,2,2,2,1,,,,,,,,,,,,,,,,,,,,,,,,,,,,,,,,,,,,,,,,,,,,,,,,,,,,,,,,,,,,,,,,,,,,,,,,,,,,,,,,,,,,,,,,
359269,001,2022-11-20_23h54.23.787,Info_measure_main_exp,2022.2.2,Win32,59.95203837,,,,,,,,,,,,,,,,,,masks/mask_004.jpg,0,3,3,3,1,,,,,,,,,,,,,,,,,,,,,,,,,,,,,,,,,,,,,,,,,,,,,,,,,,,,,,,,,,,,,,,,,,,,,,,,,,,,,,,,,,,,,,,,
359269,001,2022-11-20_23h54.23.787,Info_measure_main_exp,2022.2.2,Win32,59.95203837,,,,,,,,,,,,,,,,,,masks/mask_001.jpg,0,4,4,0,1,,,,,,,,,,,,,,,,,,,,,,,,,,,,,,,,,,,,,,,,,,,,,,,,,,,,,,,,,,,,,,,,,,,,,,,,,,,,,,,,,,,,,,,,
359269,001,2022-11-20_23h54.23.787,Info_measure_main_exp,2022.2.2,Win32,59.95203837,,,,,,,,,,,,,,,,,,,,,,,,0.059259259,-0.112962963,1,0,0,response3disk,4,75.983,1,-0.003703704,0,1,0,0,center_square,0,2,2,1,1,0,131,5,5,2514,2490,prac_patch/patch0002514.jpg,prac_patch/patch0002490.jpg,,,,,,,,,,,,,,,,,,,,,,,,,,,,,,,,,,,,,,,,,,,,,,,,,,,,,,,,,,,,
359269,001,2022-11-20_23h54.23.787,Info_measure_main_exp,2022.2.2,Win32,59.95203837,,,,,,,,,,,,,,,,,,,,,,,,,,,,,,,,,,,,,,,,,,,,,,,,,,,,-0.001851852,-0.022222222,1,0,0,1.918,,space,3.068,,,,,,,,,,,,,,,,,,,,,,,,,,,,,,,,,,,,,,,,,,,,,,,,,,,
359269,001,2022-11-20_23h54.23.787,Info_measure_main_exp,2022.2.2,Win32,59.95203837,,,,,,,,,,,,,,,,,,masks/mask_003.jpg,,,,,,,,,,,,,,,,,,,,,,,,,,,,,,,,,,,,,,,,,,,0,0,0,2,1,,,,,,,,,,,,,,,,,,,,,,,,,,,,,,,,,,,,,,,,,,,,,,
359269,001,2022-11-20_23h54.23.787,Info_measure_main_exp,2022.2.2,Win32,59.95203837,,,,,,,,,,,,,,,,,,masks/mask_002.jpg,,,,,,,,,,,,,,,,,,,,,,,,,,,,,,,,,,,,,,,,,,,0,1,1,1,1,,,,,,,,,,,,,,,,,,,,,,,,,,,,,,,,,,,,,,,,,,,,,,
359269,001,2022-11-20_23h54.23.787,Info_measure_main_exp,2022.2.2,Win32,59.95203837,,,,,,,,,,,,,,,,,,masks/mask_004.jpg,,,,,,,,,,,,,,,,,,,,,,,,,,,,,,,,,,,,,,,,,,,0,2,2,3,1,,,,,,,,,,,,,,,,,,,,,,,,,,,,,,,,,,,,,,,,,,,,,,
359269,001,2022-11-20_23h54.23.787,Info_measure_main_exp,2022.2.2,Win32,59.95203837,,,,,,,,,,,,,,,,,,masks/mask_001.jpg,,,,,,,,,,,,,,,,,,,,,,,,,,,,,,,,,,,,,,,,,,,0,3,3,0,1,,,,,,,,,,,,,,,,,,,,,,,,,,,,,,,,,,,,,,,,,,,,,,
359269,001,2022-11-20_23h54.23.787,Info_measure_main_exp,2022.2.2,Win32,59.95203837,,,,,,,,,,,,,,,,,,masks/mask_005.jpg,,,,,,,,,,,,,,,,,,,,,,,,,,,,,,,,,,,,,,,,,,,0,4,4,4,1,,,,,,,,,,,,,,,,,,,,,,,,,,,,,,,,,,,,,,,,,,,,,,
359269,001,2022-11-20_23h54.23.787,Info_measure_main_exp,2022.2.2,Win32,59.95203837,,,,,,,,,,,,,,,,,,masks/mask_001.jpg,,,,,,,,,,,,,,,,,,,,,,,,,,,,,,,,,,,,,,,,,,,,,,,,0,0,0,0,1,,,,,,,,,,,,,,,,,,,,,,,,,,,,,,,,,,,,,,,,,
359269,001,2022-11-20_23h54.23.787,Info_measure_main_exp,2022.2.2,Win32,59.95203837,,,,,,,,,,,,,,,,,,masks/mask_003.jpg,,,,,,,,,,,,,,,,,,,,,,,,,,,,,,,,,,,,,,,,,,,,,,,,0,1,1,2,1,,,,,,,,,,,,,,,,,,,,,,,,,,,,,,,,,,,,,,,,,
359269,001,2022-11-20_23h54.23.787,Info_measure_main_exp,2022.2.2,Win32,59.95203837,,,,,,,,,,,,,,,,,,masks/mask_005.jpg,,,,,,,,,,,,,,,,,,,,,,,,,,,,,,,,,,,,,,,,,,,,,,,,0,2,2,4,1,,,,,,,,,,,,,,,,,,,,,,,,,,,,,,,,,,,,,,,,,
359269,001,2022-11-20_23h54.23.787,Info_measure_main_exp,2022.2.2,Win32,59.95203837,,,,,,,,,,,,,,,,,,masks/mask_004.jpg,,,,,,,,,,,,,,,,,,,,,,,,,,,,,,,,,,,,,,,,,,,,,,,,0,3,3,3,1,,,,,,,,,,,,,,,,,,,,,,,,,,,,,,,,,,,,,,,,,
359269,001,2022-11-20_23h54.23.787,Info_measure_main_exp,2022.2.2,Win32,59.95203837,,,,,,,,,,,,,,,,,,masks/mask_002.jpg,,,,,,,,,,,,,,,,,,,,,,,,,,,,,,,,,,,,,,,,,,,,,,,,0,4,4,1,1,,,,,,,,,,,,,,,,,,,,,,,,,,,,,,,,,,,,,,,,,
359269,001,2022-11-20_23h54.23.787,Info_measure_main_exp,2022.2.2,Win32,59.95203837,,,,,,,,,,,,,,,,,,,,,,,,,,,,,,3,7.19,1,,,,,,,,,,,,0,131,5,5,1986,2238,absent_patch/patch0001986.jpg,absent_patch/patch0002238.jpg,,,,,,,,,,,,,,,,,,,,-0.023148148,-0.084259259,1,0,0,response5disk,1,-0.001851852,0.00462963,1,0,0,center_square,0,0,0,31,1,,,,,,,,,,,,,,,,,,,,,,,
359269,001,2022-11-20_23h54.23.787,Info_measure_main_exp,2022.2.2,Win32,59.95203837,,,,,,,,,,,,,,,,,,masks/mask_004.jpg,,,,,,,,,,,,,,,,,,,,,,,,,,,,,,,,,,,,,,,,,,,0,0,0,3,1,,,,,,,,,,,,,,,,,,,,,,,,,,,,,,,,,,,,,,,,,,,,,,
359269,001,2022-11-20_23h54.23.787,Info_measure_main_exp,2022.2.2,Win32,59.95203837,,,,,,,,,,,,,,,,,,masks/mask_003.jpg,,,,,,,,,,,,,,,,,,,,,,,,,,,,,,,,,,,,,,,,,,,0,1,1,2,1,,,,,,,,,,,,,,,,,,,,,,,,,,,,,,,,,,,,,,,,,,,,,,
359269,001,2022-11-20_23h54.23.787,Info_measure_main_exp,2022.2.2,Win32,59.95203837,,,,,,,,,,,,,,,,,,masks/mask_001.jpg,,,,,,,,,,,,,,,,,,,,,,,,,,,,,,,,,,,,,,,,,,,0,2,2,0,1,,,,,,,,,,,,,,,,,,,,,,,,,,,,,,,,,,,,,,,,,,,,,,
359269,001,2022-11-20_23h54.23.787,Info_measure_main_exp,2022.2.2,Win32,59.95203837,,,,,,,,,,,,,,,,,,masks/mask_005.jpg,,,,,,,,,,,,,,,,,,,,,,,,,,,,,,,,,,,,,,,,,,,0,3,3,4,1,,,,,,,,,,,,,,,,,,,,,,,,,,,,,,,,,,,,,,,,,,,,,,
359269,001,2022-11-20_23h54.23.787,Info_measure_main_exp,2022.2.2,Win32,59.95203837,,,,,,,,,,,,,,,,,,masks/mask_002.jpg,,,,,,,,,,,,,,,,,,,,,,,,,,,,,,,,,,,,,,,,,,,0,4,4,1,1,,,,,,,,,,,,,,,,,,,,,,,,,,,,,,,,,,,,,,,,,,,,,,
359269,001,2022-11-20_23h54.23.787,Info_measure_main_exp,2022.2.2,Win32,59.95203837,,,,,,,,,,,,,,,,,,masks/mask_003.jpg,,,,,,,,,,,,,,,,,,,,,,,,,,,,,,,,,,,,,,,,,,,,,,,,0,0,0,2,1,,,,,,,,,,,,,,,,,,,,,,,,,,,,,,,,,,,,,,,,,
359269,001,2022-11-20_23h54.23.787,Info_measure_main_exp,2022.2.2,Win32,59.95203837,,,,,,,,,,,,,,,,,,masks/mask_005.jpg,,,,,,,,,,,,,,,,,,,,,,,,,,,,,,,,,,,,,,,,,,,,,,,,0,1,1,4,1,,,,,,,,,,,,,,,,,,,,,,,,,,,,,,,,,,,,,,,,,
359269,001,2022-11-20_23h54.23.787,Info_measure_main_exp,2022.2.2,Win32,59.95203837,,,,,,,,,,,,,,,,,,masks/mask_001.jpg,,,,,,,,,,,,,,,,,,,,,,,,,,,,,,,,,,,,,,,,,,,,,,,,0,2,2,0,1,,,,,,,,,,,,,,,,,,,,,,,,,,,,,,,,,,,,,,,,,
359269,001,2022-11-20_23h54.23.787,Info_measure_main_exp,2022.2.2,Win32,59.95203837,,,,,,,,,,,,,,,,,,masks/mask_004.jpg,,,,,,,,,,,,,,,,,,,,,,,,,,,,,,,,,,,,,,,,,,,,,,,,0,3,3,3,1,,,,,,,,,,,,,,,,,,,,,,,,,,,,,,,,,,,,,,,,,
359269,001,2022-11-20_23h54.23.787,Info_measure_main_exp,2022.2.2,Win32,59.95203837,,,,,,,,,,,,,,,,,,masks/mask_002.jpg,,,,,,,,,,,,,,,,,,,,,,,,,,,,,,,,,,,,,,,,,,,,,,,,0,4,4,1,1,,,,,,,,,,,,,,,,,,,,,,,,,,,,,,,,,,,,,,,,,
359269,001,2022-11-20_23h54.23.787,Info_measure_main_exp,2022.2.2,Win32,59.95203837,,,,,,,,,,,,,,,,,,,,,,,,,,,,,,5,2.068,1,,,,,,,,,,,,0,131,5,5,2190,2166,absent_patch/patch0002190.jpg,absent_patch/patch0002166.jpg,,,,,,,,,,,,,,,,,,,,0.166666667,-0.049074074,1,0,0,response3disk,2,-0.005555556,0.003703704,1,0,0,center_square,0,1,1,50,1,,,,,,,,,,,,,,,,,,,,,,,
359269,001,2022-11-20_23h54.23.787,Info_measure_main_exp,2022.2.2,Win32,59.95203837,,,,,,,,,,,,,,,,,,masks/mask_002.jpg,,,,,,,,,,,,,,,,,,,,,,,,,,,,,,,,,,,,,,,,,,,0,0,0,1,1,,,,,,,,,,,,,,,,,,,,,,,,,,,,,,,,,,,,,,,,,,,,,,
359269,001,2022-11-20_23h54.23.787,Info_measure_main_exp,2022.2.2,Win32,59.95203837,,,,,,,,,,,,,,,,,,masks/mask_005.jpg,,,,,,,,,,,,,,,,,,,,,,,,,,,,,,,,,,,,,,,,,,,0,1,1,4,1,,,,,,,,,,,,,,,,,,,,,,,,,,,,,,,,,,,,,,,,,,,,,,
359269,001,2022-11-20_23h54.23.787,Info_measure_main_exp,2022.2.2,Win32,59.95203837,,,,,,,,,,,,,,,,,,masks/mask_004.jpg,,,,,,,,,,,,,,,,,,,,,,,,,,,,,,,,,,,,,,,,,,,0,2,2,3,1,,,,,,,,,,,,,,,,,,,,,,,,,,,,,,,,,,,,,,,,,,,,,,
359269,001,2022-11-20_23h54.23.787,Info_measure_main_exp,2022.2.2,Win32,59.95203837,,,,,,,,,,,,,,,,,,masks/mask_003.jpg,,,,,,,,,,,,,,,,,,,,,,,,,,,,,,,,,,,,,,,,,,,0,3,3,2,1,,,,,,,,,,,,,,,,,,,,,,,,,,,,,,,,,,,,,,,,,,,,,,
359269,001,2022-11-20_23h54.23.787,Info_measure_main_exp,2022.2.2,Win32,59.95203837,,,,,,,,,,,,,,,,,,masks/mask_001.jpg,,,,,,,,,,,,,,,,,,,,,,,,,,,,,,,,,,,,,,,,,,,0,4,4,0,1,,,,,,,,,,,,,,,,,,,,,,,,,,,,,,,,,,,,,,,,,,,,,,
359269,001,2022-11-20_23h54.23.787,Info_measure_main_exp,2022.2.2,Win32,59.95203837,,,,,,,,,,,,,,,,,,masks/mask_001.jpg,,,,,,,,,,,,,,,,,,,,,,,,,,,,,,,,,,,,,,,,,,,,,,,,0,0,0,0,1,,,,,,,,,,,,,,,,,,,,,,,,,,,,,,,,,,,,,,,,,
359269,001,2022-11-20_23h54.23.787,Info_measure_main_exp,2022.2.2,Win32,59.95203837,,,,,,,,,,,,,,,,,,masks/mask_002.jpg,,,,,,,,,,,,,,,,,,,,,,,,,,,,,,,,,,,,,,,,,,,,,,,,0,1,1,1,1,,,,,,,,,,,,,,,,,,,,,,,,,,,,,,,,,,,,,,,,,
359269,001,2022-11-20_23h54.23.787,Info_measure_main_exp,2022.2.2,Win32,59.95203837,,,,,,,,,,,,,,,,,,masks/mask_005.jpg,,,,,,,,,,,,,,,,,,,,,,,,,,,,,,,,,,,,,,,,,,,,,,,,0,2,2,4,1,,,,,,,,,,,,,,,,,,,,,,,,,,,,,,,,,,,,,,,,,
359269,001,2022-11-20_23h54.23.787,Info_measure_main_exp,2022.2.2,Win32,59.95203837,,,,,,,,,,,,,,,,,,masks/mask_003.jpg,,,,,,,,,,,,,,,,,,,,,,,,,,,,,,,,,,,,,,,,,,,,,,,,0,3,3,2,1,,,,,,,,,,,,,,,,,,,,,,,,,,,,,,,,,,,,,,,,,
359269,001,2022-11-20_23h54.23.787,Info_measure_main_exp,2022.2.2,Win32,59.95203837,,,,,,,,,,,,,,,,,,masks/mask_004.jpg,,,,,,,,,,,,,,,,,,,,,,,,,,,,,,,,,,,,,,,,,,,,,,,,0,4,4,3,1,,,,,,,,,,,,,,,,,,,,,,,,,,,,,,,,,,,,,,,,,
359269,001,2022-11-20_23h54.23.787,Info_measure_main_exp,2022.2.2,Win32,59.95203837,,,,,,,,,,,,,,,,,,,,,,,,,,,,,,7,1.068,1,,,,,,,,,,,,0,131,5,5,1986,2142,absent_patch/patch0001986.jpg,absent_patch/patch0002142.jpg,,,,,,,,,,,,,,,,,,,,0.064814815,0.127777778,1,0,0,response1disk,3,0,0.011111111,1,0,0,center_square,0,2,2,76,1,,,,,,,,,,,,,,,,,,,,,,,
359269,001,2022-11-20_23h54.23.787,Info_measure_main_exp,2022.2.2,Win32,59.95203837,,,,,,,,,,,,,,,,,,masks/mask_005.jpg,,,,,,,,,,,,,,,,,,,,,,,,,,,,,,,,,,,,,,,,,,,0,0,0,4,1,,,,,,,,,,,,,,,,,,,,,,,,,,,,,,,,,,,,,,,,,,,,,,
359269,001,2022-11-20_23h54.23.787,Info_measure_main_exp,2022.2.2,Win32,59.95203837,,,,,,,,,,,,,,,,,,masks/mask_003.jpg,,,,,,,,,,,,,,,,,,,,,,,,,,,,,,,,,,,,,,,,,,,0,1,1,2,1,,,,,,,,,,,,,,,,,,,,,,,,,,,,,,,,,,,,,,,,,,,,,,
359269,001,2022-11-20_23h54.23.787,Info_measure_main_exp,2022.2.2,Win32,59.95203837,,,,,,,,,,,,,,,,,,masks/mask_002.jpg,,,,,,,,,,,,,,,,,,,,,,,,,,,,,,,,,,,,,,,,,,,0,2,2,1,1,,,,,,,,,,,,,,,,,,,,,,,,,,,,,,,,,,,,,,,,,,,,,,
359269,001,2022-11-20_23h54.23.787,Info_measure_main_exp,2022.2.2,Win32,59.95203837,,,,,,,,,,,,,,,,,,masks/mask_004.jpg,,,,,,,,,,,,,,,,,,,,,,,,,,,,,,,,,,,,,,,,,,,0,3,3,3,1,,,,,,,,,,,,,,,,,,,,,,,,,,,,,,,,,,,,,,,,,,,,,,
359269,001,2022-11-20_23h54.23.787,Info_measure_main_exp,2022.2.2,Win32,59.95203837,,,,,,,,,,,,,,,,,,masks/mask_001.jpg,,,,,,,,,,,,,,,,,,,,,,,,,,,,,,,,,,,,,,,,,,,0,4,4,0,1,,,,,,,,,,,,,,,,,,,,,,,,,,,,,,,,,,,,,,,,,,,,,,
359269,001,2022-11-20_23h54.23.787,Info_measure_main_exp,2022.2.2,Win32,59.95203837,,,,,,,,,,,,,,,,,,masks/mask_005.jpg,,,,,,,,,,,,,,,,,,,,,,,,,,,,,,,,,,,,,,,,,,,,,,,,0,0,0,4,1,,,,,,,,,,,,,,,,,,,,,,,,,,,,,,,,,,,,,,,,,
359269,001,2022-11-20_23h54.23.787,Info_measure_main_exp,2022.2.2,Win32,59.95203837,,,,,,,,,,,,,,,,,,masks/mask_003.jpg,,,,,,,,,,,,,,,,,,,,,,,,,,,,,,,,,,,,,,,,,,,,,,,,0,1,1,2,1,,,,,,,,,,,,,,,,,,,,,,,,,,,,,,,,,,,,,,,,,
359269,001,2022-11-20_23h54.23.787,Info_measure_main_exp,2022.2.2,Win32,59.95203837,,,,,,,,,,,,,,,,,,masks/mask_004.jpg,,,,,,,,,,,,,,,,,,,,,,,,,,,,,,,,,,,,,,,,,,,,,,,,0,2,2,3,1,,,,,,,,,,,,,,,,,,,,,,,,,,,,,,,,,,,,,,,,,
359269,001,2022-11-20_23h54.23.787,Info_measure_main_exp,2022.2.2,Win32,59.95203837,,,,,,,,,,,,,,,,,,masks/mask_002.jpg,,,,,,,,,,,,,,,,,,,,,,,,,,,,,,,,,,,,,,,,,,,,,,,,0,3,3,1,1,,,,,,,,,,,,,,,,,,,,,,,,,,,,,,,,,,,,,,,,,
359269,001,2022-11-20_23h54.23.787,Info_measure_main_exp,2022.2.2,Win32,59.95203837,,,,,,,,,,,,,,,,,,masks/mask_001.jpg,,,,,,,,,,,,,,,,,,,,,,,,,,,,,,,,,,,,,,,,,,,,,,,,0,4,4,0,1,,,,,,,,,,,,,,,,,,,,,,,,,,,,,,,,,,,,,,,,,
359269,001,2022-11-20_23h54.23.787,Info_measure_main_exp,2022.2.2,Win32,59.95203837,,,,,,,,,,,,,,,,,,,,,,,,,,,,,,7,0.867,1,,,,,,,,,,,,0,131,5,5,2214,1986,absent_patch/patch0002214.jpg,absent_patch/patch0001986.jpg,,,,,,,,,,,,,,,,,,,,0.075,0.134259259,1,0,0,response1disk,4,0.010185185,0.002777778,1,0,0,center_square,0,3,3,34,1,,,,,,,,,,,,,,,,,,,,,,,
359269,001,2022-11-20_23h54.23.787,Info_measure_main_exp,2022.2.2,Win32,59.95203837,,,,,,,,,,,,,,,,,,masks/mask_001.jpg,,,,,,,,,,,,,,,,,,,,,,,,,,,,,,,,,,,,,,,,,,,0,0,0,0,1,,,,,,,,,,,,,,,,,,,,,,,,,,,,,,,,,,,,,,,,,,,,,,
359269,001,2022-11-20_23h54.23.787,Info_measure_main_exp,2022.2.2,Win32,59.95203837,,,,,,,,,,,,,,,,,,masks/mask_004.jpg,,,,,,,,,,,,,,,,,,,,,,,,,,,,,,,,,,,,,,,,,,,0,1,1,3,1,,,,,,,,,,,,,,,,,,,,,,,,,,,,,,,,,,,,,,,,,,,,,,
359269,001,2022-11-20_23h54.23.787,Info_measure_main_exp,2022.2.2,Win32,59.95203837,,,,,,,,,,,,,,,,,,masks/mask_002.jpg,,,,,,,,,,,,,,,,,,,,,,,,,,,,,,,,,,,,,,,,,,,0,2,2,1,1,,,,,,,,,,,,,,,,,,,,,,,,,,,,,,,,,,,,,,,,,,,,,,
359269,001,2022-11-20_23h54.23.787,Info_measure_main_exp,2022.2.2,Win32,59.95203837,,,,,,,,,,,,,,,,,,masks/mask_003.jpg,,,,,,,,,,,,,,,,,,,,,,,,,,,,,,,,,,,,,,,,,,,0,3,3,2,1,,,,,,,,,,,,,,,,,,,,,,,,,,,,,,,,,,,,,,,,,,,,,,
359269,001,2022-11-20_23h54.23.787,Info_measure_main_exp,2022.2.2,Win32,59.95203837,,,,,,,,,,,,,,,,,,masks/mask_005.jpg,,,,,,,,,,,,,,,,,,,,,,,,,,,,,,,,,,,,,,,,,,,0,4,4,4,1,,,,,,,,,,,,,,,,,,,,,,,,,,,,,,,,,,,,,,,,,,,,,,
359269,001,2022-11-20_23h54.23.787,Info_measure_main_exp,2022.2.2,Win32,59.95203837,,,,,,,,,,,,,,,,,,masks/mask_002.jpg,,,,,,,,,,,,,,,,,,,,,,,,,,,,,,,,,,,,,,,,,,,,,,,,0,0,0,1,1,,,,,,,,,,,,,,,,,,,,,,,,,,,,,,,,,,,,,,,,,
359269,001,2022-11-20_23h54.23.787,Info_measure_main_exp,2022.2.2,Win32,59.95203837,,,,,,,,,,,,,,,,,,masks/mask_003.jpg,,,,,,,,,,,,,,,,,,,,,,,,,,,,,,,,,,,,,,,,,,,,,,,,0,1,1,2,1,,,,,,,,,,,,,,,,,,,,,,,,,,,,,,,,,,,,,,,,,
359269,001,2022-11-20_23h54.23.787,Info_measure_main_exp,2022.2.2,Win32,59.95203837,,,,,,,,,,,,,,,,,,masks/mask_001.jpg,,,,,,,,,,,,,,,,,,,,,,,,,,,,,,,,,,,,,,,,,,,,,,,,0,2,2,0,1,,,,,,,,,,,,,,,,,,,,,,,,,,,,,,,,,,,,,,,,,
359269,001,2022-11-20_23h54.23.787,Info_measure_main_exp,2022.2.2,Win32,59.95203837,,,,,,,,,,,,,,,,,,masks/mask_005.jpg,,,,,,,,,,,,,,,,,,,,,,,,,,,,,,,,,,,,,,,,,,,,,,,,0,3,3,4,1,,,,,,,,,,,,,,,,,,,,,,,,,,,,,,,,,,,,,,,,,
359269,001,2022-11-20_23h54.23.787,Info_measure_main_exp,2022.2.2,Win32,59.95203837,,,,,,,,,,,,,,,,,,masks/mask_004.jpg,,,,,,,,,,,,,,,,,,,,,,,,,,,,,,,,,,,,,,,,,,,,,,,,0,4,4,3,1,,,,,,,,,,,,,,,,,,,,,,,,,,,,,,,,,,,,,,,,,
359269,001,2022-11-20_23h54.23.787,Info_measure_main_exp,2022.2.2,Win32,59.95203837,,,,,,,,,,,,,,,,,,,,,,,,,,,,,,7,1.084,1,,,,,,,,,,,,0,131,5,5,1950,2166,absent_patch/patch0001950.jpg,absent_patch/patch0002166.jpg,,,,,,,,,,,,,,,,,,,,0.046296296,0.14537037,1,0,0,response1disk,5,0.003703704,-0.001851852,1,0,0,center_square,0,4,4,0,1,,,,,,,,,,,,,,,,,,,,,,,
359269,001,2022-11-20_23h54.23.787,Info_measure_main_exp,2022.2.2,Win32,59.95203837,,,,,,,,,,,,,,,,,,masks/mask_004.jpg,,,,,,,,,,,,,,,,,,,,,,,,,,,,,,,,,,,,,,,,,,,0,0,0,3,1,,,,,,,,,,,,,,,,,,,,,,,,,,,,,,,,,,,,,,,,,,,,,,
359269,001,2022-11-20_23h54.23.787,Info_measure_main_exp,2022.2.2,Win32,59.95203837,,,,,,,,,,,,,,,,,,masks/mask_002.jpg,,,,,,,,,,,,,,,,,,,,,,,,,,,,,,,,,,,,,,,,,,,0,1,1,1,1,,,,,,,,,,,,,,,,,,,,,,,,,,,,,,,,,,,,,,,,,,,,,,
359269,001,2022-11-20_23h54.23.787,Info_measure_main_exp,2022.2.2,Win32,59.95203837,,,,,,,,,,,,,,,,,,masks/mask_005.jpg,,,,,,,,,,,,,,,,,,,,,,,,,,,,,,,,,,,,,,,,,,,0,2,2,4,1,,,,,,,,,,,,,,,,,,,,,,,,,,,,,,,,,,,,,,,,,,,,,,
359269,001,2022-11-20_23h54.23.787,Info_measure_main_exp,2022.2.2,Win32,59.95203837,,,,,,,,,,,,,,,,,,masks/mask_003.jpg,,,,,,,,,,,,,,,,,,,,,,,,,,,,,,,,,,,,,,,,,,,0,3,3,2,1,,,,,,,,,,,,,,,,,,,,,,,,,,,,,,,,,,,,,,,,,,,,,,
359269,001,2022-11-20_23h54.23.787,Info_measure_main_exp,2022.2.2,Win32,59.95203837,,,,,,,,,,,,,,,,,,masks/mask_001.jpg,,,,,,,,,,,,,,,,,,,,,,,,,,,,,,,,,,,,,,,,,,,0,4,4,0,1,,,,,,,,,,,,,,,,,,,,,,,,,,,,,,,,,,,,,,,,,,,,,,
359269,001,2022-11-20_23h54.23.787,Info_measure_main_exp,2022.2.2,Win32,59.95203837,,,,,,,,,,,,,,,,,,masks/mask_002.jpg,,,,,,,,,,,,,,,,,,,,,,,,,,,,,,,,,,,,,,,,,,,,,,,,0,0,0,1,1,,,,,,,,,,,,,,,,,,,,,,,,,,,,,,,,,,,,,,,,,
359269,001,2022-11-20_23h54.23.787,Info_measure_main_exp,2022.2.2,Win32,59.95203837,,,,,,,,,,,,,,,,,,masks/mask_001.jpg,,,,,,,,,,,,,,,,,,,,,,,,,,,,,,,,,,,,,,,,,,,,,,,,0,1,1,0,1,,,,,,,,,,,,,,,,,,,,,,,,,,,,,,,,,,,,,,,,,
359269,001,2022-11-20_23h54.23.787,Info_measure_main_exp,2022.2.2,Win32,59.95203837,,,,,,,,,,,,,,,,,,masks/mask_004.jpg,,,,,,,,,,,,,,,,,,,,,,,,,,,,,,,,,,,,,,,,,,,,,,,,0,2,2,3,1,,,,,,,,,,,,,,,,,,,,,,,,,,,,,,,,,,,,,,,,,
359269,001,2022-11-20_23h54.23.787,Info_measure_main_exp,2022.2.2,Win32,59.95203837,,,,,,,,,,,,,,,,,,masks/mask_003.jpg,,,,,,,,,,,,,,,,,,,,,,,,,,,,,,,,,,,,,,,,,,,,,,,,0,3,3,2,1,,,,,,,,,,,,,,,,,,,,,,,,,,,,,,,,,,,,,,,,,
359269,001,2022-11-20_23h54.23.787,Info_measure_main_exp,2022.2.2,Win32,59.95203837,,,,,,,,,,,,,,,,,,masks/mask_005.jpg,,,,,,,,,,,,,,,,,,,,,,,,,,,,,,,,,,,,,,,,,,,,,,,,0,4,4,4,1,,,,,,,,,,,,,,,,,,,,,,,,,,,,,,,,,,,,,,,,,
359269,001,2022-11-20_23h54.23.787,Info_measure_main_exp,2022.2.2,Win32,59.95203837,,,,,,,,,,,,,,,,,,,,,,,,,,,,,,6,1.333,1,,,,,,,,,,,,0,131,5,5,2250,1950,absent_patch/patch0002250.jpg,absent_patch/patch0001950.jpg,,,,,,,,,,,,,,,,,,,,0.086111111,0.025925926,1,0,0,response1disk,6,-0.009259259,0.007407407,1,0,0,center_square,0,5,5,16,1,,,,,,,,,,,,,,,,,,,,,,,
359269,001,2022-11-20_23h54.23.787,Info_measure_main_exp,2022.2.2,Win32,59.95203837,,,,,,,,,,,,,,,,,,masks/mask_003.jpg,,,,,,,,,,,,,,,,,,,,,,,,,,,,,,,,,,,,,,,,,,,0,0,0,2,1,,,,,,,,,,,,,,,,,,,,,,,,,,,,,,,,,,,,,,,,,,,,,,
359269,001,2022-11-20_23h54.23.787,Info_measure_main_exp,2022.2.2,Win32,59.95203837,,,,,,,,,,,,,,,,,,masks/mask_001.jpg,,,,,,,,,,,,,,,,,,,,,,,,,,,,,,,,,,,,,,,,,,,0,1,1,0,1,,,,,,,,,,,,,,,,,,,,,,,,,,,,,,,,,,,,,,,,,,,,,,
359269,001,2022-11-20_23h54.23.787,Info_measure_main_exp,2022.2.2,Win32,59.95203837,,,,,,,,,,,,,,,,,,masks/mask_002.jpg,,,,,,,,,,,,,,,,,,,,,,,,,,,,,,,,,,,,,,,,,,,0,2,2,1,1,,,,,,,,,,,,,,,,,,,,,,,,,,,,,,,,,,,,,,,,,,,,,,
359269,001,2022-11-20_23h54.23.787,Info_measure_main_exp,2022.2.2,Win32,59.95203837,,,,,,,,,,,,,,,,,,masks/mask_005.jpg,,,,,,,,,,,,,,,,,,,,,,,,,,,,,,,,,,,,,,,,,,,0,3,3,4,1,,,,,,,,,,,,,,,,,,,,,,,,,,,,,,,,,,,,,,,,,,,,,,
359269,001,2022-11-20_23h54.23.787,Info_measure_main_exp,2022.2.2,Win32,59.95203837,,,,,,,,,,,,,,,,,,masks/mask_004.jpg,,,,,,,,,,,,,,,,,,,,,,,,,,,,,,,,,,,,,,,,,,,0,4,4,3,1,,,,,,,,,,,,,,,,,,,,,,,,,,,,,,,,,,,,,,,,,,,,,,
359269,001,2022-11-20_23h54.23.787,Info_measure_main_exp,2022.2.2,Win32,59.95203837,,,,,,,,,,,,,,,,,,masks/mask_003.jpg,,,,,,,,,,,,,,,,,,,,,,,,,,,,,,,,,,,,,,,,,,,,,,,,0,0,0,2,1,,,,,,,,,,,,,,,,,,,,,,,,,,,,,,,,,,,,,,,,,
359269,001,2022-11-20_23h54.23.787,Info_measure_main_exp,2022.2.2,Win32,59.95203837,,,,,,,,,,,,,,,,,,masks/mask_004.jpg,,,,,,,,,,,,,,,,,,,,,,,,,,,,,,,,,,,,,,,,,,,,,,,,0,1,1,3,1,,,,,,,,,,,,,,,,,,,,,,,,,,,,,,,,,,,,,,,,,
359269,001,2022-11-20_23h54.23.787,Info_measure_main_exp,2022.2.2,Win32,59.95203837,,,,,,,,,,,,,,,,,,masks/mask_002.jpg,,,,,,,,,,,,,,,,,,,,,,,,,,,,,,,,,,,,,,,,,,,,,,,,0,2,2,1,1,,,,,,,,,,,,,,,,,,,,,,,,,,,,,,,,,,,,,,,,,
359269,001,2022-11-20_23h54.23.787,Info_measure_main_exp,2022.2.2,Win32,59.95203837,,,,,,,,,,,,,,,,,,masks/mask_005.jpg,,,,,,,,,,,,,,,,,,,,,,,,,,,,,,,,,,,,,,,,,,,,,,,,0,3,3,4,1,,,,,,,,,,,,,,,,,,,,,,,,,,,,,,,,,,,,,,,,,
359269,001,2022-11-20_23h54.23.787,Info_measure_main_exp,2022.2.2,Win32,59.95203837,,,,,,,,,,,,,,,,,,masks/mask_001.jpg,,,,,,,,,,,,,,,,,,,,,,,,,,,,,,,,,,,,,,,,,,,,,,,,0,4,4,0,1,,,,,,,,,,,,,,,,,,,,,,,,,,,,,,,,,,,,,,,,,
359269,001,2022-11-20_23h54.23.787,Info_measure_main_exp,2022.2.2,Win32,59.95203837,,,,,,,,,,,,,,,,,,,,,,,,,,,,,,7,1.034,1,,,,,,,,,,,,0,131,5,5,2082,2166,absent_patch/patch0002082.jpg,absent_patch/patch0002166.jpg,,,,,,,,,,,,,,,,,,,,0.050925926,0.108333333,1,0,0,response1disk,7,0.002777778,0.00462963,1,0,0,center_square,0,6,6,43,1,,,,,,,,,,,,,,,,,,,,,,,
359269,001,2022-11-20_23h54.23.787,Info_measure_main_exp,2022.2.2,Win32,59.95203837,,,,,,,,,,,,,,,,,,masks/mask_005.jpg,,,,,,,,,,,,,,,,,,,,,,,,,,,,,,,,,,,,,,,,,,,0,0,0,4,1,,,,,,,,,,,,,,,,,,,,,,,,,,,,,,,,,,,,,,,,,,,,,,
359269,001,2022-11-20_23h54.23.787,Info_measure_main_exp,2022.2.2,Win32,59.95203837,,,,,,,,,,,,,,,,,,masks/mask_004.jpg,,,,,,,,,,,,,,,,,,,,,,,,,,,,,,,,,,,,,,,,,,,0,1,1,3,1,,,,,,,,,,,,,,,,,,,,,,,,,,,,,,,,,,,,,,,,,,,,,,
359269,001,2022-11-20_23h54.23.787,Info_measure_main_exp,2022.2.2,Win32,59.95203837,,,,,,,,,,,,,,,,,,masks/mask_001.jpg,,,,,,,,,,,,,,,,,,,,,,,,,,,,,,,,,,,,,,,,,,,0,2,2,0,1,,,,,,,,,,,,,,,,,,,,,,,,,,,,,,,,,,,,,,,,,,,,,,
359269,001,2022-11-20_23h54.23.787,Info_measure_main_exp,2022.2.2,Win32,59.95203837,,,,,,,,,,,,,,,,,,masks/mask_002.jpg,,,,,,,,,,,,,,,,,,,,,,,,,,,,,,,,,,,,,,,,,,,0,3,3,1,1,,,,,,,,,,,,,,,,,,,,,,,,,,,,,,,,,,,,,,,,,,,,,,
359269,001,2022-11-20_23h54.23.787,Info_measure_main_exp,2022.2.2,Win32,59.95203837,,,,,,,,,,,,,,,,,,masks/mask_003.jpg,,,,,,,,,,,,,,,,,,,,,,,,,,,,,,,,,,,,,,,,,,,0,4,4,2,1,,,,,,,,,,,,,,,,,,,,,,,,,,,,,,,,,,,,,,,,,,,,,,
359269,001,2022-11-20_23h54.23.787,Info_measure_main_exp,2022.2.2,Win32,59.95203837,,,,,,,,,,,,,,,,,,masks/mask_002.jpg,,,,,,,,,,,,,,,,,,,,,,,,,,,,,,,,,,,,,,,,,,,,,,,,0,0,0,1,1,,,,,,,,,,,,,,,,,,,,,,,,,,,,,,,,,,,,,,,,,
359269,001,2022-11-20_23h54.23.787,Info_measure_main_exp,2022.2.2,Win32,59.95203837,,,,,,,,,,,,,,,,,,masks/mask_003.jpg,,,,,,,,,,,,,,,,,,,,,,,,,,,,,,,,,,,,,,,,,,,,,,,,0,1,1,2,1,,,,,,,,,,,,,,,,,,,,,,,,,,,,,,,,,,,,,,,,,
359269,001,2022-11-20_23h54.23.787,Info_measure_main_exp,2022.2.2,Win32,59.95203837,,,,,,,,,,,,,,,,,,masks/mask_005.jpg,,,,,,,,,,,,,,,,,,,,,,,,,,,,,,,,,,,,,,,,,,,,,,,,0,2,2,4,1,,,,,,,,,,,,,,,,,,,,,,,,,,,,,,,,,,,,,,,,,
359269,001,2022-11-20_23h54.23.787,Info_measure_main_exp,2022.2.2,Win32,59.95203837,,,,,,,,,,,,,,,,,,masks/mask_004.jpg,,,,,,,,,,,,,,,,,,,,,,,,,,,,,,,,,,,,,,,,,,,,,,,,0,3,3,3,1,,,,,,,,,,,,,,,,,,,,,,,,,,,,,,,,,,,,,,,,,
359269,001,2022-11-20_23h54.23.787,Info_measure_main_exp,2022.2.2,Win32,59.95203837,,,,,,,,,,,,,,,,,,masks/mask_001.jpg,,,,,,,,,,,,,,,,,,,,,,,,,,,,,,,,,,,,,,,,,,,,,,,,0,4,4,0,1,,,,,,,,,,,,,,,,,,,,,,,,,,,,,,,,,,,,,,,,,
359269,001,2022-11-20_23h54.23.787,Info_measure_main_exp,2022.2.2,Win32,59.95203837,,,,,,,,,,,,,,,,,,,,,,,,,,,,,,5,2.134,1,,,,,,,,,,,,0,131,5,5,2274,2238,absent_patch/patch0002274.jpg,absent_patch/patch0002238.jpg,,,,,,,,,,,,,,,,,,,,0.109259259,-0.075,1,0,0,response3disk,8,0.006481481,-0.006481481,1,0,0,center_square,0,7,7,91,1,,,,,,,,,,,,,,,,,,,,,,,
359269,001,2022-11-20_23h54.23.787,Info_measure_main_exp,2022.2.2,Win32,59.95203837,,,,,,,,,,,,,,,,,,masks/mask_001.jpg,,,,,,,,,,,,,,,,,,,,,,,,,,,,,,,,,,,,,,,,,,,0,0,0,0,1,,,,,,,,,,,,,,,,,,,,,,,,,,,,,,,,,,,,,,,,,,,,,,
359269,001,2022-11-20_23h54.23.787,Info_measure_main_exp,2022.2.2,Win32,59.95203837,,,,,,,,,,,,,,,,,,masks/mask_002.jpg,,,,,,,,,,,,,,,,,,,,,,,,,,,,,,,,,,,,,,,,,,,0,1,1,1,1,,,,,,,,,,,,,,,,,,,,,,,,,,,,,,,,,,,,,,,,,,,,,,
359269,001,2022-11-20_23h54.23.787,Info_measure_main_exp,2022.2.2,Win32,59.95203837,,,,,,,,,,,,,,,,,,masks/mask_004.jpg,,,,,,,,,,,,,,,,,,,,,,,,,,,,,,,,,,,,,,,,,,,0,2,2,3,1,,,,,,,,,,,,,,,,,,,,,,,,,,,,,,,,,,,,,,,,,,,,,,
359269,001,2022-11-20_23h54.23.787,Info_measure_main_exp,2022.2.2,Win32,59.95203837,,,,,,,,,,,,,,,,,,masks/mask_003.jpg,,,,,,,,,,,,,,,,,,,,,,,,,,,,,,,,,,,,,,,,,,,0,3,3,2,1,,,,,,,,,,,,,,,,,,,,,,,,,,,,,,,,,,,,,,,,,,,,,,
359269,001,2022-11-20_23h54.23.787,Info_measure_main_exp,2022.2.2,Win32,59.95203837,,,,,,,,,,,,,,,,,,masks/mask_005.jpg,,,,,,,,,,,,,,,,,,,,,,,,,,,,,,,,,,,,,,,,,,,0,4,4,4,1,,,,,,,,,,,,,,,,,,,,,,,,,,,,,,,,,,,,,,,,,,,,,,
359269,001,2022-11-20_23h54.23.787,Info_measure_main_exp,2022.2.2,Win32,59.95203837,,,,,,,,,,,,,,,,,,masks/mask_004.jpg,,,,,,,,,,,,,,,,,,,,,,,,,,,,,,,,,,,,,,,,,,,,,,,,0,0,0,3,1,,,,,,,,,,,,,,,,,,,,,,,,,,,,,,,,,,,,,,,,,
359269,001,2022-11-20_23h54.23.787,Info_measure_main_exp,2022.2.2,Win32,59.95203837,,,,,,,,,,,,,,,,,,masks/mask_001.jpg,,,,,,,,,,,,,,,,,,,,,,,,,,,,,,,,,,,,,,,,,,,,,,,,0,1,1,0,1,,,,,,,,,,,,,,,,,,,,,,,,,,,,,,,,,,,,,,,,,
359269,001,2022-11-20_23h54.23.787,Info_measure_main_exp,2022.2.2,Win32,59.95203837,,,,,,,,,,,,,,,,,,masks/mask_005.jpg,,,,,,,,,,,,,,,,,,,,,,,,,,,,,,,,,,,,,,,,,,,,,,,,0,2,2,4,1,,,,,,,,,,,,,,,,,,,,,,,,,,,,,,,,,,,,,,,,,
359269,001,2022-11-20_23h54.23.787,Info_measure_main_exp,2022.2.2,Win32,59.95203837,,,,,,,,,,,,,,,,,,masks/mask_002.jpg,,,,,,,,,,,,,,,,,,,,,,,,,,,,,,,,,,,,,,,,,,,,,,,,0,3,3,1,1,,,,,,,,,,,,,,,,,,,,,,,,,,,,,,,,,,,,,,,,,
359269,001,2022-11-20_23h54.23.787,Info_measure_main_exp,2022.2.2,Win32,59.95203837,,,,,,,,,,,,,,,,,,masks/mask_003.jpg,,,,,,,,,,,,,,,,,,,,,,,,,,,,,,,,,,,,,,,,,,,,,,,,0,4,4,2,1,,,,,,,,,,,,,,,,,,,,,,,,,,,,,,,,,,,,,,,,,
359269,001,2022-11-20_23h54.23.787,Info_measure_main_exp,2022.2.2,Win32,59.95203837,,,,,,,,,,,,,,,,,,,,,,,,,,,,,,4,1.884,1,,,,,,,,,,,,1,131,5,5,2238,1,absent_patch/patch0002238.jpg,present_patch/cong_131_5_a.jpg,,,,,,,,,,,,,,,,,,,,0.024074074,-0.087037037,1,0,0,response3disk,9,0.002777778,0.00462963,1,0,0,center_square,0,8,8,104,1,,,,,,,,,,,,,,,,,,,,,,,
359269,001,2022-11-20_23h54.23.787,Info_measure_main_exp,2022.2.2,Win32,59.95203837,,,,,,,,,,,,,,,,,,masks/mask_002.jpg,,,,,,,,,,,,,,,,,,,,,,,,,,,,,,,,,,,,,,,,,,,0,0,0,1,1,,,,,,,,,,,,,,,,,,,,,,,,,,,,,,,,,,,,,,,,,,,,,,
359269,001,2022-11-20_23h54.23.787,Info_measure_main_exp,2022.2.2,Win32,59.95203837,,,,,,,,,,,,,,,,,,masks/mask_003.jpg,,,,,,,,,,,,,,,,,,,,,,,,,,,,,,,,,,,,,,,,,,,0,1,1,2,1,,,,,,,,,,,,,,,,,,,,,,,,,,,,,,,,,,,,,,,,,,,,,,
359269,001,2022-11-20_23h54.23.787,Info_measure_main_exp,2022.2.2,Win32,59.95203837,,,,,,,,,,,,,,,,,,masks/mask_004.jpg,,,,,,,,,,,,,,,,,,,,,,,,,,,,,,,,,,,,,,,,,,,0,2,2,3,1,,,,,,,,,,,,,,,,,,,,,,,,,,,,,,,,,,,,,,,,,,,,,,
359269,001,2022-11-20_23h54.23.787,Info_measure_main_exp,2022.2.2,Win32,59.95203837,,,,,,,,,,,,,,,,,,masks/mask_001.jpg,,,,,,,,,,,,,,,,,,,,,,,,,,,,,,,,,,,,,,,,,,,0,3,3,0,1,,,,,,,,,,,,,,,,,,,,,,,,,,,,,,,,,,,,,,,,,,,,,,
359269,001,2022-11-20_23h54.23.787,Info_measure_main_exp,2022.2.2,Win32,59.95203837,,,,,,,,,,,,,,,,,,masks/mask_005.jpg,,,,,,,,,,,,,,,,,,,,,,,,,,,,,,,,,,,,,,,,,,,0,4,4,4,1,,,,,,,,,,,,,,,,,,,,,,,,,,,,,,,,,,,,,,,,,,,,,,
359269,001,2022-11-20_23h54.23.787,Info_measure_main_exp,2022.2.2,Win32,59.95203837,,,,,,,,,,,,,,,,,,masks/mask_001.jpg,,,,,,,,,,,,,,,,,,,,,,,,,,,,,,,,,,,,,,,,,,,,,,,,0,0,0,0,1,,,,,,,,,,,,,,,,,,,,,,,,,,,,,,,,,,,,,,,,,
359269,001,2022-11-20_23h54.23.787,Info_measure_main_exp,2022.2.2,Win32,59.95203837,,,,,,,,,,,,,,,,,,masks/mask_002.jpg,,,,,,,,,,,,,,,,,,,,,,,,,,,,,,,,,,,,,,,,,,,,,,,,0,1,1,1,1,,,,,,,,,,,,,,,,,,,,,,,,,,,,,,,,,,,,,,,,,
359269,001,2022-11-20_23h54.23.787,Info_measure_main_exp,2022.2.2,Win32,59.95203837,,,,,,,,,,,,,,,,,,masks/mask_005.jpg,,,,,,,,,,,,,,,,,,,,,,,,,,,,,,,,,,,,,,,,,,,,,,,,0,2,2,4,1,,,,,,,,,,,,,,,,,,,,,,,,,,,,,,,,,,,,,,,,,
359269,001,2022-11-20_23h54.23.787,Info_measure_main_exp,2022.2.2,Win32,59.95203837,,,,,,,,,,,,,,,,,,masks/mask_003.jpg,,,,,,,,,,,,,,,,,,,,,,,,,,,,,,,,,,,,,,,,,,,,,,,,0,3,3,2,1,,,,,,,,,,,,,,,,,,,,,,,,,,,,,,,,,,,,,,,,,
359269,001,2022-11-20_23h54.23.787,Info_measure_main_exp,2022.2.2,Win32,59.95203837,,,,,,,,,,,,,,,,,,masks/mask_004.jpg,,,,,,,,,,,,,,,,,,,,,,,,,,,,,,,,,,,,,,,,,,,,,,,,0,4,4,3,1,,,,,,,,,,,,,,,,,,,,,,,,,,,,,,,,,,,,,,,,,
359269,001,2022-11-20_23h54.23.787,Info_measure_main_exp,2022.2.2,Win32,59.95203837,,,,,,,,,,,,,,,,,,,,,,,,,,,,,,7,0.85,1,,,,,,,,,,,,1,131,5,5,1,1974,present_patch/cong_131_5_a.jpg,absent_patch/patch0001974.jpg,,,,,,,,,,,,,,,,,,,,0.05462963,0.115740741,1,0,0,response1disk,10,0.003703704,-0.000925926,1,0,0,center_square,0,9,9,69,1,,,,,,,,,,,,,,,,,,,,,,,
359269,001,2022-11-20_23h54.23.787,Info_measure_main_exp,2022.2.2,Win32,59.95203837,,,,,,,,,,,,,,,,,,masks/mask_005.jpg,,,,,,,,,,,,,,,,,,,,,,,,,,,,,,,,,,,,,,,,,,,0,0,0,4,1,,,,,,,,,,,,,,,,,,,,,,,,,,,,,,,,,,,,,,,,,,,,,,
359269,001,2022-11-20_23h54.23.787,Info_measure_main_exp,2022.2.2,Win32,59.95203837,,,,,,,,,,,,,,,,,,masks/mask_004.jpg,,,,,,,,,,,,,,,,,,,,,,,,,,,,,,,,,,,,,,,,,,,0,1,1,3,1,,,,,,,,,,,,,,,,,,,,,,,,,,,,,,,,,,,,,,,,,,,,,,
359269,001,2022-11-20_23h54.23.787,Info_measure_main_exp,2022.2.2,Win32,59.95203837,,,,,,,,,,,,,,,,,,masks/mask_003.jpg,,,,,,,,,,,,,,,,,,,,,,,,,,,,,,,,,,,,,,,,,,,0,2,2,2,1,,,,,,,,,,,,,,,,,,,,,,,,,,,,,,,,,,,,,,,,,,,,,,
359269,001,2022-11-20_23h54.23.787,Info_measure_main_exp,2022.2.2,Win32,59.95203837,,,,,,,,,,,,,,,,,,masks/mask_002.jpg,,,,,,,,,,,,,,,,,,,,,,,,,,,,,,,,,,,,,,,,,,,0,3,3,1,1,,,,,,,,,,,,,,,,,,,,,,,,,,,,,,,,,,,,,,,,,,,,,,
359269,001,2022-11-20_23h54.23.787,Info_measure_main_exp,2022.2.2,Win32,59.95203837,,,,,,,,,,,,,,,,,,masks/mask_001.jpg,,,,,,,,,,,,,,,,,,,,,,,,,,,,,,,,,,,,,,,,,,,0,4,4,0,1,,,,,,,,,,,,,,,,,,,,,,,,,,,,,,,,,,,,,,,,,,,,,,
359269,001,2022-11-20_23h54.23.787,Info_measure_main_exp,2022.2.2,Win32,59.95203837,,,,,,,,,,,,,,,,,,masks/mask_005.jpg,,,,,,,,,,,,,,,,,,,,,,,,,,,,,,,,,,,,,,,,,,,,,,,,0,0,0,4,1,,,,,,,,,,,,,,,,,,,,,,,,,,,,,,,,,,,,,,,,,
359269,001,2022-11-20_23h54.23.787,Info_measure_main_exp,2022.2.2,Win32,59.95203837,,,,,,,,,,,,,,,,,,masks/mask_004.jpg,,,,,,,,,,,,,,,,,,,,,,,,,,,,,,,,,,,,,,,,,,,,,,,,0,1,1,3,1,,,,,,,,,,,,,,,,,,,,,,,,,,,,,,,,,,,,,,,,,
359269,001,2022-11-20_23h54.23.787,Info_measure_main_exp,2022.2.2,Win32,59.95203837,,,,,,,,,,,,,,,,,,masks/mask_001.jpg,,,,,,,,,,,,,,,,,,,,,,,,,,,,,,,,,,,,,,,,,,,,,,,,0,2,2,0,1,,,,,,,,,,,,,,,,,,,,,,,,,,,,,,,,,,,,,,,,,
359269,001,2022-11-20_23h54.23.787,Info_measure_main_exp,2022.2.2,Win32,59.95203837,,,,,,,,,,,,,,,,,,masks/mask_003.jpg,,,,,,,,,,,,,,,,,,,,,,,,,,,,,,,,,,,,,,,,,,,,,,,,0,3,3,2,1,,,,,,,,,,,,,,,,,,,,,,,,,,,,,,,,,,,,,,,,,
359269,001,2022-11-20_23h54.23.787,Info_measure_main_exp,2022.2.2,Win32,59.95203837,,,,,,,,,,,,,,,,,,masks/mask_002.jpg,,,,,,,,,,,,,,,,,,,,,,,,,,,,,,,,,,,,,,,,,,,,,,,,0,4,4,1,1,,,,,,,,,,,,,,,,,,,,,,,,,,,,,,,,,,,,,,,,,
359269,001,2022-11-20_23h54.23.787,Info_measure_main_exp,2022.2.2,Win32,59.95203837,,,,,,,,,,,,,,,,,,,,,,,,,,,,,,5,1.368,1,,,,,,,,,,,,0,131,5,5,2166,1986,absent_patch/patch0002166.jpg,absent_patch/patch0001986.jpg,,,,,,,,,,,,,,,,,,,,0.084259259,-0.050925926,1,0,0,response3disk,11,-0.008333333,0,1,0,0,center_square,0,10,10,47,1,,,,,,,,,,,,,,,,,,,,,,,
359269,001,2022-11-20_23h54.23.787,Info_measure_main_exp,2022.2.2,Win32,59.95203837,,,,,,,,,,,,,,,,,,masks/mask_002.jpg,,,,,,,,,,,,,,,,,,,,,,,,,,,,,,,,,,,,,,,,,,,0,0,0,1,1,,,,,,,,,,,,,,,,,,,,,,,,,,,,,,,,,,,,,,,,,,,,,,
359269,001,2022-11-20_23h54.23.787,Info_measure_main_exp,2022.2.2,Win32,59.95203837,,,,,,,,,,,,,,,,,,masks/mask_001.jpg,,,,,,,,,,,,,,,,,,,,,,,,,,,,,,,,,,,,,,,,,,,0,1,1,0,1,,,,,,,,,,,,,,,,,,,,,,,,,,,,,,,,,,,,,,,,,,,,,,
359269,001,2022-11-20_23h54.23.787,Info_measure_main_exp,2022.2.2,Win32,59.95203837,,,,,,,,,,,,,,,,,,masks/mask_005.jpg,,,,,,,,,,,,,,,,,,,,,,,,,,,,,,,,,,,,,,,,,,,0,2,2,4,1,,,,,,,,,,,,,,,,,,,,,,,,,,,,,,,,,,,,,,,,,,,,,,
359269,001,2022-11-20_23h54.23.787,Info_measure_main_exp,2022.2.2,Win32,59.95203837,,,,,,,,,,,,,,,,,,masks/mask_003.jpg,,,,,,,,,,,,,,,,,,,,,,,,,,,,,,,,,,,,,,,,,,,0,3,3,2,1,,,,,,,,,,,,,,,,,,,,,,,,,,,,,,,,,,,,,,,,,,,,,,
359269,001,2022-11-20_23h54.23.787,Info_measure_main_exp,2022.2.2,Win32,59.95203837,,,,,,,,,,,,,,,,,,masks/mask_004.jpg,,,,,,,,,,,,,,,,,,,,,,,,,,,,,,,,,,,,,,,,,,,0,4,4,3,1,,,,,,,,,,,,,,,,,,,,,,,,,,,,,,,,,,,,,,,,,,,,,,
359269,001,2022-11-20_23h54.23.787,Info_measure_main_exp,2022.2.2,Win32,59.95203837,,,,,,,,,,,,,,,,,,masks/mask_001.jpg,,,,,,,,,,,,,,,,,,,,,,,,,,,,,,,,,,,,,,,,,,,,,,,,0,0,0,0,1,,,,,,,,,,,,,,,,,,,,,,,,,,,,,,,,,,,,,,,,,
359269,001,2022-11-20_23h54.23.787,Info_measure_main_exp,2022.2.2,Win32,59.95203837,,,,,,,,,,,,,,,,,,masks/mask_002.jpg,,,,,,,,,,,,,,,,,,,,,,,,,,,,,,,,,,,,,,,,,,,,,,,,0,1,1,1,1,,,,,,,,,,,,,,,,,,,,,,,,,,,,,,,,,,,,,,,,,
359269,001,2022-11-20_23h54.23.787,Info_measure_main_exp,2022.2.2,Win32,59.95203837,,,,,,,,,,,,,,,,,,masks/mask_004.jpg,,,,,,,,,,,,,,,,,,,,,,,,,,,,,,,,,,,,,,,,,,,,,,,,0,2,2,3,1,,,,,,,,,,,,,,,,,,,,,,,,,,,,,,,,,,,,,,,,,
359269,001,2022-11-20_23h54.23.787,Info_measure_main_exp,2022.2.2,Win32,59.95203837,,,,,,,,,,,,,,,,,,masks/mask_003.jpg,,,,,,,,,,,,,,,,,,,,,,,,,,,,,,,,,,,,,,,,,,,,,,,,0,3,3,2,1,,,,,,,,,,,,,,,,,,,,,,,,,,,,,,,,,,,,,,,,,
359269,001,2022-11-20_23h54.23.787,Info_measure_main_exp,2022.2.2,Win32,59.95203837,,,,,,,,,,,,,,,,,,masks/mask_005.jpg,,,,,,,,,,,,,,,,,,,,,,,,,,,,,,,,,,,,,,,,,,,,,,,,0,4,4,4,1,,,,,,,,,,,,,,,,,,,,,,,,,,,,,,,,,,,,,,,,,
359269,001,2022-11-20_23h54.23.787,Info_measure_main_exp,2022.2.2,Win32,59.95203837,,,,,,,,,,,,,,,,,,,,,,,,,,,,,,7,0.784,1,,,,,,,,,,,,0,131,5,5,2178,2166,absent_patch/patch0002178.jpg,absent_patch/patch0002166.jpg,,,,,,,,,,,,,,,,,,,,0.061111111,0.111111111,1,0,0,response1disk,12,0.010185185,-0.001851852,1,0,0,center_square,0,11,11,72,1,,,,,,,,,,,,,,,,,,,,,,,
359269,001,2022-11-20_23h54.23.787,Info_measure_main_exp,2022.2.2,Win32,59.95203837,,,,,,,,,,,,,,,,,,masks/mask_001.jpg,,,,,,,,,,,,,,,,,,,,,,,,,,,,,,,,,,,,,,,,,,,0,0,0,0,1,,,,,,,,,,,,,,,,,,,,,,,,,,,,,,,,,,,,,,,,,,,,,,
359269,001,2022-11-20_23h54.23.787,Info_measure_main_exp,2022.2.2,Win32,59.95203837,,,,,,,,,,,,,,,,,,masks/mask_004.jpg,,,,,,,,,,,,,,,,,,,,,,,,,,,,,,,,,,,,,,,,,,,0,1,1,3,1,,,,,,,,,,,,,,,,,,,,,,,,,,,,,,,,,,,,,,,,,,,,,,
359269,001,2022-11-20_23h54.23.787,Info_measure_main_exp,2022.2.2,Win32,59.95203837,,,,,,,,,,,,,,,,,,masks/mask_005.jpg,,,,,,,,,,,,,,,,,,,,,,,,,,,,,,,,,,,,,,,,,,,0,2,2,4,1,,,,,,,,,,,,,,,,,,,,,,,,,,,,,,,,,,,,,,,,,,,,,,
359269,001,2022-11-20_23h54.23.787,Info_measure_main_exp,2022.2.2,Win32,59.95203837,,,,,,,,,,,,,,,,,,masks/mask_002.jpg,,,,,,,,,,,,,,,,,,,,,,,,,,,,,,,,,,,,,,,,,,,0,3,3,1,1,,,,,,,,,,,,,,,,,,,,,,,,,,,,,,,,,,,,,,,,,,,,,,
359269,001,2022-11-20_23h54.23.787,Info_measure_main_exp,2022.2.2,Win32,59.95203837,,,,,,,,,,,,,,,,,,masks/mask_003.jpg,,,,,,,,,,,,,,,,,,,,,,,,,,,,,,,,,,,,,,,,,,,0,4,4,2,1,,,,,,,,,,,,,,,,,,,,,,,,,,,,,,,,,,,,,,,,,,,,,,
359269,001,2022-11-20_23h54.23.787,Info_measure_main_exp,2022.2.2,Win32,59.95203837,,,,,,,,,,,,,,,,,,masks/mask_003.jpg,,,,,,,,,,,,,,,,,,,,,,,,,,,,,,,,,,,,,,,,,,,,,,,,0,0,0,2,1,,,,,,,,,,,,,,,,,,,,,,,,,,,,,,,,,,,,,,,,,
359269,001,2022-11-20_23h54.23.787,Info_measure_main_exp,2022.2.2,Win32,59.95203837,,,,,,,,,,,,,,,,,,masks/mask_001.jpg,,,,,,,,,,,,,,,,,,,,,,,,,,,,,,,,,,,,,,,,,,,,,,,,0,1,1,0,1,,,,,,,,,,,,,,,,,,,,,,,,,,,,,,,,,,,,,,,,,
359269,001,2022-11-20_23h54.23.787,Info_measure_main_exp,2022.2.2,Win32,59.95203837,,,,,,,,,,,,,,,,,,masks/mask_002.jpg,,,,,,,,,,,,,,,,,,,,,,,,,,,,,,,,,,,,,,,,,,,,,,,,0,2,2,1,1,,,,,,,,,,,,,,,,,,,,,,,,,,,,,,,,,,,,,,,,,
359269,001,2022-11-20_23h54.23.787,Info_measure_main_exp,2022.2.2,Win32,59.95203837,,,,,,,,,,,,,,,,,,masks/mask_005.jpg,,,,,,,,,,,,,,,,,,,,,,,,,,,,,,,,,,,,,,,,,,,,,,,,0,3,3,4,1,,,,,,,,,,,,,,,,,,,,,,,,,,,,,,,,,,,,,,,,,
359269,001,2022-11-20_23h54.23.787,Info_measure_main_exp,2022.2.2,Win32,59.95203837,,,,,,,,,,,,,,,,,,masks/mask_004.jpg,,,,,,,,,,,,,,,,,,,,,,,,,,,,,,,,,,,,,,,,,,,,,,,,0,4,4,3,1,,,,,,,,,,,,,,,,,,,,,,,,,,,,,,,,,,,,,,,,,
359269,001,2022-11-20_23h54.23.787,Info_measure_main_exp,2022.2.2,Win32,59.95203837,,,,,,,,,,,,,,,,,,,,,,,,,,,,,,7,0.784,1,,,,,,,,,,,,0,131,5,5,2082,2154,absent_patch/patch0002082.jpg,absent_patch/patch0002154.jpg,,,,,,,,,,,,,,,,,,,,0.059259259,0.123148148,1,0,0,response1disk,13,0.006481481,0.003703704,1,0,0,center_square,0,12,12,33,1,,,,,,,,,,,,,,,,,,,,,,,
359269,001,2022-11-20_23h54.23.787,Info_measure_main_exp,2022.2.2,Win32,59.95203837,,,,,,,,,,,,,,,,,,masks/mask_002.jpg,,,,,,,,,,,,,,,,,,,,,,,,,,,,,,,,,,,,,,,,,,,0,0,0,1,1,,,,,,,,,,,,,,,,,,,,,,,,,,,,,,,,,,,,,,,,,,,,,,
359269,001,2022-11-20_23h54.23.787,Info_measure_main_exp,2022.2.2,Win32,59.95203837,,,,,,,,,,,,,,,,,,masks/mask_005.jpg,,,,,,,,,,,,,,,,,,,,,,,,,,,,,,,,,,,,,,,,,,,0,1,1,4,1,,,,,,,,,,,,,,,,,,,,,,,,,,,,,,,,,,,,,,,,,,,,,,
359269,001,2022-11-20_23h54.23.787,Info_measure_main_exp,2022.2.2,Win32,59.95203837,,,,,,,,,,,,,,,,,,masks/mask_004.jpg,,,,,,,,,,,,,,,,,,,,,,,,,,,,,,,,,,,,,,,,,,,0,2,2,3,1,,,,,,,,,,,,,,,,,,,,,,,,,,,,,,,,,,,,,,,,,,,,,,
359269,001,2022-11-20_23h54.23.787,Info_measure_main_exp,2022.2.2,Win32,59.95203837,,,,,,,,,,,,,,,,,,masks/mask_003.jpg,,,,,,,,,,,,,,,,,,,,,,,,,,,,,,,,,,,,,,,,,,,0,3,3,2,1,,,,,,,,,,,,,,,,,,,,,,,,,,,,,,,,,,,,,,,,,,,,,,
359269,001,2022-11-20_23h54.23.787,Info_measure_main_exp,2022.2.2,Win32,59.95203837,,,,,,,,,,,,,,,,,,masks/mask_001.jpg,,,,,,,,,,,,,,,,,,,,,,,,,,,,,,,,,,,,,,,,,,,0,4,4,0,1,,,,,,,,,,,,,,,,,,,,,,,,,,,,,,,,,,,,,,,,,,,,,,
359269,001,2022-11-20_23h54.23.787,Info_measure_main_exp,2022.2.2,Win32,59.95203837,,,,,,,,,,,,,,,,,,masks/mask_001.jpg,,,,,,,,,,,,,,,,,,,,,,,,,,,,,,,,,,,,,,,,,,,,,,,,0,0,0,0,1,,,,,,,,,,,,,,,,,,,,,,,,,,,,,,,,,,,,,,,,,
359269,001,2022-11-20_23h54.23.787,Info_measure_main_exp,2022.2.2,Win32,59.95203837,,,,,,,,,,,,,,,,,,masks/mask_002.jpg,,,,,,,,,,,,,,,,,,,,,,,,,,,,,,,,,,,,,,,,,,,,,,,,0,1,1,1,1,,,,,,,,,,,,,,,,,,,,,,,,,,,,,,,,,,,,,,,,,
359269,001,2022-11-20_23h54.23.787,Info_measure_main_exp,2022.2.2,Win32,59.95203837,,,,,,,,,,,,,,,,,,masks/mask_005.jpg,,,,,,,,,,,,,,,,,,,,,,,,,,,,,,,,,,,,,,,,,,,,,,,,0,2,2,4,1,,,,,,,,,,,,,,,,,,,,,,,,,,,,,,,,,,,,,,,,,
359269,001,2022-11-20_23h54.23.787,Info_measure_main_exp,2022.2.2,Win32,59.95203837,,,,,,,,,,,,,,,,,,masks/mask_004.jpg,,,,,,,,,,,,,,,,,,,,,,,,,,,,,,,,,,,,,,,,,,,,,,,,0,3,3,3,1,,,,,,,,,,,,,,,,,,,,,,,,,,,,,,,,,,,,,,,,,
359269,001,2022-11-20_23h54.23.787,Info_measure_main_exp,2022.2.2,Win32,59.95203837,,,,,,,,,,,,,,,,,,masks/mask_003.jpg,,,,,,,,,,,,,,,,,,,,,,,,,,,,,,,,,,,,,,,,,,,,,,,,0,4,4,2,1,,,,,,,,,,,,,,,,,,,,,,,,,,,,,,,,,,,,,,,,,
359269,001,2022-11-20_23h54.23.787,Info_measure_main_exp,2022.2.2,Win32,59.95203837,,,,,,,,,,,,,,,,,,,,,,,,,,,,,,7,1.3,1,,,,,,,,,,,,0,131,5,5,2274,2214,absent_patch/patch0002274.jpg,absent_patch/patch0002214.jpg,,,,,,,,,,,,,,,,,,,,0.030555556,0.105555556,1,0,0,response1disk,14,-0.003703704,-0.006481481,1,0,0,center_square,0,13,13,11,1,,,,,,,,,,,,,,,,,,,,,,,
359269,001,2022-11-20_23h54.23.787,Info_measure_main_exp,2022.2.2,Win32,59.95203837,,,,,,,,,,,,,,,,,,masks/mask_002.jpg,,,,,,,,,,,,,,,,,,,,,,,,,,,,,,,,,,,,,,,,,,,0,0,0,1,1,,,,,,,,,,,,,,,,,,,,,,,,,,,,,,,,,,,,,,,,,,,,,,
359269,001,2022-11-20_23h54.23.787,Info_measure_main_exp,2022.2.2,Win32,59.95203837,,,,,,,,,,,,,,,,,,masks/mask_001.jpg,,,,,,,,,,,,,,,,,,,,,,,,,,,,,,,,,,,,,,,,,,,0,1,1,0,1,,,,,,,,,,,,,,,,,,,,,,,,,,,,,,,,,,,,,,,,,,,,,,
359269,001,2022-11-20_23h54.23.787,Info_measure_main_exp,2022.2.2,Win32,59.95203837,,,,,,,,,,,,,,,,,,masks/mask_005.jpg,,,,,,,,,,,,,,,,,,,,,,,,,,,,,,,,,,,,,,,,,,,0,2,2,4,1,,,,,,,,,,,,,,,,,,,,,,,,,,,,,,,,,,,,,,,,,,,,,,
359269,001,2022-11-20_23h54.23.787,Info_measure_main_exp,2022.2.2,Win32,59.95203837,,,,,,,,,,,,,,,,,,masks/mask_004.jpg,,,,,,,,,,,,,,,,,,,,,,,,,,,,,,,,,,,,,,,,,,,0,3,3,3,1,,,,,,,,,,,,,,,,,,,,,,,,,,,,,,,,,,,,,,,,,,,,,,
359269,001,2022-11-20_23h54.23.787,Info_measure_main_exp,2022.2.2,Win32,59.95203837,,,,,,,,,,,,,,,,,,masks/mask_003.jpg,,,,,,,,,,,,,,,,,,,,,,,,,,,,,,,,,,,,,,,,,,,0,4,4,2,1,,,,,,,,,,,,,,,,,,,,,,,,,,,,,,,,,,,,,,,,,,,,,,
359269,001,2022-11-20_23h54.23.787,Info_measure_main_exp,2022.2.2,Win32,59.95203837,,,,,,,,,,,,,,,,,,masks/mask_003.jpg,,,,,,,,,,,,,,,,,,,,,,,,,,,,,,,,,,,,,,,,,,,,,,,,0,0,0,2,1,,,,,,,,,,,,,,,,,,,,,,,,,,,,,,,,,,,,,,,,,
359269,001,2022-11-20_23h54.23.787,Info_measure_main_exp,2022.2.2,Win32,59.95203837,,,,,,,,,,,,,,,,,,masks/mask_005.jpg,,,,,,,,,,,,,,,,,,,,,,,,,,,,,,,,,,,,,,,,,,,,,,,,0,1,1,4,1,,,,,,,,,,,,,,,,,,,,,,,,,,,,,,,,,,,,,,,,,
359269,001,2022-11-20_23h54.23.787,Info_measure_main_exp,2022.2.2,Win32,59.95203837,,,,,,,,,,,,,,,,,,masks/mask_002.jpg,,,,,,,,,,,,,,,,,,,,,,,,,,,,,,,,,,,,,,,,,,,,,,,,0,2,2,1,1,,,,,,,,,,,,,,,,,,,,,,,,,,,,,,,,,,,,,,,,,
359269,001,2022-11-20_23h54.23.787,Info_measure_main_exp,2022.2.2,Win32,59.95203837,,,,,,,,,,,,,,,,,,masks/mask_004.jpg,,,,,,,,,,,,,,,,,,,,,,,,,,,,,,,,,,,,,,,,,,,,,,,,0,3,3,3,1,,,,,,,,,,,,,,,,,,,,,,,,,,,,,,,,,,,,,,,,,
359269,001,2022-11-20_23h54.23.787,Info_measure_main_exp,2022.2.2,Win32,59.95203837,,,,,,,,,,,,,,,,,,masks/mask_001.jpg,,,,,,,,,,,,,,,,,,,,,,,,,,,,,,,,,,,,,,,,,,,,,,,,0,4,4,0,1,,,,,,,,,,,,,,,,,,,,,,,,,,,,,,,,,,,,,,,,,
359269,001,2022-11-20_23h54.23.787,Info_measure_main_exp,2022.2.2,Win32,59.95203837,,,,,,,,,,,,,,,,,,,,,,,,,,,,,,7,0.466,1,,,,,,,,,,,,0,131,5,5,2154,1974,absent_patch/patch0002154.jpg,absent_patch/patch0001974.jpg,,,,,,,,,,,,,,,,,,,,0.026851852,0.102777778,1,0,0,response1disk,15,-0.002777778,0.006481481,1,0,0,center_square,0,14,14,82,1,,,,,,,,,,,,,,,,,,,,,,,
359269,001,2022-11-20_23h54.23.787,Info_measure_main_exp,2022.2.2,Win32,59.95203837,,,,,,,,,,,,,,,,,,masks/mask_003.jpg,,,,,,,,,,,,,,,,,,,,,,,,,,,,,,,,,,,,,,,,,,,0,0,0,2,1,,,,,,,,,,,,,,,,,,,,,,,,,,,,,,,,,,,,,,,,,,,,,,
359269,001,2022-11-20_23h54.23.787,Info_measure_main_exp,2022.2.2,Win32,59.95203837,,,,,,,,,,,,,,,,,,masks/mask_004.jpg,,,,,,,,,,,,,,,,,,,,,,,,,,,,,,,,,,,,,,,,,,,0,1,1,3,1,,,,,,,,,,,,,,,,,,,,,,,,,,,,,,,,,,,,,,,,,,,,,,
359269,001,2022-11-20_23h54.23.787,Info_measure_main_exp,2022.2.2,Win32,59.95203837,,,,,,,,,,,,,,,,,,masks/mask_001.jpg,,,,,,,,,,,,,,,,,,,,,,,,,,,,,,,,,,,,,,,,,,,0,2,2,0,1,,,,,,,,,,,,,,,,,,,,,,,,,,,,,,,,,,,,,,,,,,,,,,
359269,001,2022-11-20_23h54.23.787,Info_measure_main_exp,2022.2.2,Win32,59.95203837,,,,,,,,,,,,,,,,,,masks/mask_005.jpg,,,,,,,,,,,,,,,,,,,,,,,,,,,,,,,,,,,,,,,,,,,0,3,3,4,1,,,,,,,,,,,,,,,,,,,,,,,,,,,,,,,,,,,,,,,,,,,,,,
359269,001,2022-11-20_23h54.23.787,Info_measure_main_exp,2022.2.2,Win32,59.95203837,,,,,,,,,,,,,,,,,,masks/mask_002.jpg,,,,,,,,,,,,,,,,,,,,,,,,,,,,,,,,,,,,,,,,,,,0,4,4,1,1,,,,,,,,,,,,,,,,,,,,,,,,,,,,,,,,,,,,,,,,,,,,,,
359269,001,2022-11-20_23h54.23.787,Info_measure_main_exp,2022.2.2,Win32,59.95203837,,,,,,,,,,,,,,,,,,masks/mask_002.jpg,,,,,,,,,,,,,,,,,,,,,,,,,,,,,,,,,,,,,,,,,,,,,,,,0,0,0,1,1,,,,,,,,,,,,,,,,,,,,,,,,,,,,,,,,,,,,,,,,,
359269,001,2022-11-20_23h54.23.787,Info_measure_main_exp,2022.2.2,Win32,59.95203837,,,,,,,,,,,,,,,,,,masks/mask_001.jpg,,,,,,,,,,,,,,,,,,,,,,,,,,,,,,,,,,,,,,,,,,,,,,,,0,1,1,0,1,,,,,,,,,,,,,,,,,,,,,,,,,,,,,,,,,,,,,,,,,
359269,001,2022-11-20_23h54.23.787,Info_measure_main_exp,2022.2.2,Win32,59.95203837,,,,,,,,,,,,,,,,,,masks/mask_004.jpg,,,,,,,,,,,,,,,,,,,,,,,,,,,,,,,,,,,,,,,,,,,,,,,,0,2,2,3,1,,,,,,,,,,,,,,,,,,,,,,,,,,,,,,,,,,,,,,,,,
359269,001,2022-11-20_23h54.23.787,Info_measure_main_exp,2022.2.2,Win32,59.95203837,,,,,,,,,,,,,,,,,,masks/mask_005.jpg,,,,,,,,,,,,,,,,,,,,,,,,,,,,,,,,,,,,,,,,,,,,,,,,0,3,3,4,1,,,,,,,,,,,,,,,,,,,,,,,,,,,,,,,,,,,,,,,,,
359269,001,2022-11-20_23h54.23.787,Info_measure_main_exp,2022.2.2,Win32,59.95203837,,,,,,,,,,,,,,,,,,masks/mask_003.jpg,,,,,,,,,,,,,,,,,,,,,,,,,,,,,,,,,,,,,,,,,,,,,,,,0,4,4,2,1,,,,,,,,,,,,,,,,,,,,,,,,,,,,,,,,,,,,,,,,,
359269,001,2022-11-20_23h54.23.787,Info_measure_main_exp,2022.2.2,Win32,59.95203837,,,,,,,,,,,,,,,,,,,,,,,,,,,,,,1,1.033,1,,,,,,,,,,,,0,131,5,5,1950,1950,absent_patch/patch0001950.jpg,absent_patch/patch0001950.jpg,,,,,,,,,,,,,,,,,,,,-0.109259259,0.042592593,1,0,0,response7disk,16,-0.010185185,0.005555556,1,0,0,center_square,0,15,15,92,1,,,,,,,,,,,,,,,,,,,,,,,
359269,001,2022-11-20_23h54.23.787,Info_measure_main_exp,2022.2.2,Win32,59.95203837,,,,,,,,,,,,,,,,,,masks/mask_002.jpg,,,,,,,,,,,,,,,,,,,,,,,,,,,,,,,,,,,,,,,,,,,0,0,0,1,1,,,,,,,,,,,,,,,,,,,,,,,,,,,,,,,,,,,,,,,,,,,,,,
359269,001,2022-11-20_23h54.23.787,Info_measure_main_exp,2022.2.2,Win32,59.95203837,,,,,,,,,,,,,,,,,,masks/mask_004.jpg,,,,,,,,,,,,,,,,,,,,,,,,,,,,,,,,,,,,,,,,,,,0,1,1,3,1,,,,,,,,,,,,,,,,,,,,,,,,,,,,,,,,,,,,,,,,,,,,,,
359269,001,2022-11-20_23h54.23.787,Info_measure_main_exp,2022.2.2,Win32,59.95203837,,,,,,,,,,,,,,,,,,masks/mask_001.jpg,,,,,,,,,,,,,,,,,,,,,,,,,,,,,,,,,,,,,,,,,,,0,2,2,0,1,,,,,,,,,,,,,,,,,,,,,,,,,,,,,,,,,,,,,,,,,,,,,,
359269,001,2022-11-20_23h54.23.787,Info_measure_main_exp,2022.2.2,Win32,59.95203837,,,,,,,,,,,,,,,,,,masks/mask_005.jpg,,,,,,,,,,,,,,,,,,,,,,,,,,,,,,,,,,,,,,,,,,,0,3,3,4,1,,,,,,,,,,,,,,,,,,,,,,,,,,,,,,,,,,,,,,,,,,,,,,
359269,001,2022-11-20_23h54.23.787,Info_measure_main_exp,2022.2.2,Win32,59.95203837,,,,,,,,,,,,,,,,,,masks/mask_003.jpg,,,,,,,,,,,,,,,,,,,,,,,,,,,,,,,,,,,,,,,,,,,0,4,4,2,1,,,,,,,,,,,,,,,,,,,,,,,,,,,,,,,,,,,,,,,,,,,,,,
359269,001,2022-11-20_23h54.23.787,Info_measure_main_exp,2022.2.2,Win32,59.95203837,,,,,,,,,,,,,,,,,,masks/mask_005.jpg,,,,,,,,,,,,,,,,,,,,,,,,,,,,,,,,,,,,,,,,,,,,,,,,0,0,0,4,1,,,,,,,,,,,,,,,,,,,,,,,,,,,,,,,,,,,,,,,,,
359269,001,2022-11-20_23h54.23.787,Info_measure_main_exp,2022.2.2,Win32,59.95203837,,,,,,,,,,,,,,,,,,masks/mask_001.jpg,,,,,,,,,,,,,,,,,,,,,,,,,,,,,,,,,,,,,,,,,,,,,,,,0,1,1,0,1,,,,,,,,,,,,,,,,,,,,,,,,,,,,,,,,,,,,,,,,,
359269,001,2022-11-20_23h54.23.787,Info_measure_main_exp,2022.2.2,Win32,59.95203837,,,,,,,,,,,,,,,,,,masks/mask_002.jpg,,,,,,,,,,,,,,,,,,,,,,,,,,,,,,,,,,,,,,,,,,,,,,,,0,2,2,1,1,,,,,,,,,,,,,,,,,,,,,,,,,,,,,,,,,,,,,,,,,
359269,001,2022-11-20_23h54.23.787,Info_measure_main_exp,2022.2.2,Win32,59.95203837,,,,,,,,,,,,,,,,,,masks/mask_004.jpg,,,,,,,,,,,,,,,,,,,,,,,,,,,,,,,,,,,,,,,,,,,,,,,,0,3,3,3,1,,,,,,,,,,,,,,,,,,,,,,,,,,,,,,,,,,,,,,,,,
359269,001,2022-11-20_23h54.23.787,Info_measure_main_exp,2022.2.2,Win32,59.95203837,,,,,,,,,,,,,,,,,,masks/mask_003.jpg,,,,,,,,,,,,,,,,,,,,,,,,,,,,,,,,,,,,,,,,,,,,,,,,0,4,4,2,1,,,,,,,,,,,,,,,,,,,,,,,,,,,,,,,,,,,,,,,,,
359269,001,2022-11-20_23h54.23.787,Info_measure_main_exp,2022.2.2,Win32,59.95203837,,,,,,,,,,,,,,,,,,,,,,,,,,,,,,5,1.584,1,,,,,,,,,,,,0,131,5,5,2250,1986,absent_patch/patch0002250.jpg,absent_patch/patch0001986.jpg,,,,,,,,,,,,,,,,,,,,0.090740741,-0.032407407,1,0,0,response3disk,17,-0.010185185,0.001851852,1,0,0,center_square,0,16,16,29,1,,,,,,,,,,,,,,,,,,,,,,,
359269,001,2022-11-20_23h54.23.787,Info_measure_main_exp,2022.2.2,Win32,59.95203837,,,,,,,,,,,,,,,,,,masks/mask_001.jpg,,,,,,,,,,,,,,,,,,,,,,,,,,,,,,,,,,,,,,,,,,,0,0,0,0,1,,,,,,,,,,,,,,,,,,,,,,,,,,,,,,,,,,,,,,,,,,,,,,
359269,001,2022-11-20_23h54.23.787,Info_measure_main_exp,2022.2.2,Win32,59.95203837,,,,,,,,,,,,,,,,,,masks/mask_003.jpg,,,,,,,,,,,,,,,,,,,,,,,,,,,,,,,,,,,,,,,,,,,0,1,1,2,1,,,,,,,,,,,,,,,,,,,,,,,,,,,,,,,,,,,,,,,,,,,,,,
359269,001,2022-11-20_23h54.23.787,Info_measure_main_exp,2022.2.2,Win32,59.95203837,,,,,,,,,,,,,,,,,,masks/mask_004.jpg,,,,,,,,,,,,,,,,,,,,,,,,,,,,,,,,,,,,,,,,,,,0,2,2,3,1,,,,,,,,,,,,,,,,,,,,,,,,,,,,,,,,,,,,,,,,,,,,,,
359269,001,2022-11-20_23h54.23.787,Info_measure_main_exp,2022.2.2,Win32,59.95203837,,,,,,,,,,,,,,,,,,masks/mask_002.jpg,,,,,,,,,,,,,,,,,,,,,,,,,,,,,,,,,,,,,,,,,,,0,3,3,1,1,,,,,,,,,,,,,,,,,,,,,,,,,,,,,,,,,,,,,,,,,,,,,,
359269,001,2022-11-20_23h54.23.787,Info_measure_main_exp,2022.2.2,Win32,59.95203837,,,,,,,,,,,,,,,,,,masks/mask_005.jpg,,,,,,,,,,,,,,,,,,,,,,,,,,,,,,,,,,,,,,,,,,,0,4,4,4,1,,,,,,,,,,,,,,,,,,,,,,,,,,,,,,,,,,,,,,,,,,,,,,
359269,001,2022-11-20_23h54.23.787,Info_measure_main_exp,2022.2.2,Win32,59.95203837,,,,,,,,,,,,,,,,,,masks/mask_002.jpg,,,,,,,,,,,,,,,,,,,,,,,,,,,,,,,,,,,,,,,,,,,,,,,,0,0,0,1,1,,,,,,,,,,,,,,,,,,,,,,,,,,,,,,,,,,,,,,,,,
359269,001,2022-11-20_23h54.23.787,Info_measure_main_exp,2022.2.2,Win32,59.95203837,,,,,,,,,,,,,,,,,,masks/mask_001.jpg,,,,,,,,,,,,,,,,,,,,,,,,,,,,,,,,,,,,,,,,,,,,,,,,0,1,1,0,1,,,,,,,,,,,,,,,,,,,,,,,,,,,,,,,,,,,,,,,,,
359269,001,2022-11-20_23h54.23.787,Info_measure_main_exp,2022.2.2,Win32,59.95203837,,,,,,,,,,,,,,,,,,masks/mask_003.jpg,,,,,,,,,,,,,,,,,,,,,,,,,,,,,,,,,,,,,,,,,,,,,,,,0,2,2,2,1,,,,,,,,,,,,,,,,,,,,,,,,,,,,,,,,,,,,,,,,,
359269,001,2022-11-20_23h54.23.787,Info_measure_main_exp,2022.2.2,Win32,59.95203837,,,,,,,,,,,,,,,,,,masks/mask_004.jpg,,,,,,,,,,,,,,,,,,,,,,,,,,,,,,,,,,,,,,,,,,,,,,,,0,3,3,3,1,,,,,,,,,,,,,,,,,,,,,,,,,,,,,,,,,,,,,,,,,
359269,001,2022-11-20_23h54.23.787,Info_measure_main_exp,2022.2.2,Win32,59.95203837,,,,,,,,,,,,,,,,,,masks/mask_005.jpg,,,,,,,,,,,,,,,,,,,,,,,,,,,,,,,,,,,,,,,,,,,,,,,,0,4,4,4,1,,,,,,,,,,,,,,,,,,,,,,,,,,,,,,,,,,,,,,,,,
359269,001,2022-11-20_23h54.23.787,Info_measure_main_exp,2022.2.2,Win32,59.95203837,,,,,,,,,,,,,,,,,,,,,,,,,,,,,,7,0.833,1,,,,,,,,,,,,0,131,5,5,2214,2178,absent_patch/patch0002214.jpg,absent_patch/patch0002178.jpg,,,,,,,,,,,,,,,,,,,,0.050925926,0.109259259,1,0,0,response1disk,18,0.012037037,0.006481481,1,0,0,center_square,0,17,17,62,1,,,,,,,,,,,,,,,,,,,,,,,
359269,001,2022-11-20_23h54.23.787,Info_measure_main_exp,2022.2.2,Win32,59.95203837,,,,,,,,,,,,,,,,,,masks/mask_002.jpg,,,,,,,,,,,,,,,,,,,,,,,,,,,,,,,,,,,,,,,,,,,0,0,0,1,1,,,,,,,,,,,,,,,,,,,,,,,,,,,,,,,,,,,,,,,,,,,,,,
359269,001,2022-11-20_23h54.23.787,Info_measure_main_exp,2022.2.2,Win32,59.95203837,,,,,,,,,,,,,,,,,,masks/mask_001.jpg,,,,,,,,,,,,,,,,,,,,,,,,,,,,,,,,,,,,,,,,,,,0,1,1,0,1,,,,,,,,,,,,,,,,,,,,,,,,,,,,,,,,,,,,,,,,,,,,,,
359269,001,2022-11-20_23h54.23.787,Info_measure_main_exp,2022.2.2,Win32,59.95203837,,,,,,,,,,,,,,,,,,masks/mask_005.jpg,,,,,,,,,,,,,,,,,,,,,,,,,,,,,,,,,,,,,,,,,,,0,2,2,4,1,,,,,,,,,,,,,,,,,,,,,,,,,,,,,,,,,,,,,,,,,,,,,,
359269,001,2022-11-20_23h54.23.787,Info_measure_main_exp,2022.2.2,Win32,59.95203837,,,,,,,,,,,,,,,,,,masks/mask_003.jpg,,,,,,,,,,,,,,,,,,,,,,,,,,,,,,,,,,,,,,,,,,,0,3,3,2,1,,,,,,,,,,,,,,,,,,,,,,,,,,,,,,,,,,,,,,,,,,,,,,
359269,001,2022-11-20_23h54.23.787,Info_measure_main_exp,2022.2.2,Win32,59.95203837,,,,,,,,,,,,,,,,,,masks/mask_004.jpg,,,,,,,,,,,,,,,,,,,,,,,,,,,,,,,,,,,,,,,,,,,0,4,4,3,1,,,,,,,,,,,,,,,,,,,,,,,,,,,,,,,,,,,,,,,,,,,,,,
359269,001,2022-11-20_23h54.23.787,Info_measure_main_exp,2022.2.2,Win32,59.95203837,,,,,,,,,,,,,,,,,,masks/mask_002.jpg,,,,,,,,,,,,,,,,,,,,,,,,,,,,,,,,,,,,,,,,,,,,,,,,0,0,0,1,1,,,,,,,,,,,,,,,,,,,,,,,,,,,,,,,,,,,,,,,,,
359269,001,2022-11-20_23h54.23.787,Info_measure_main_exp,2022.2.2,Win32,59.95203837,,,,,,,,,,,,,,,,,,masks/mask_003.jpg,,,,,,,,,,,,,,,,,,,,,,,,,,,,,,,,,,,,,,,,,,,,,,,,0,1,1,2,1,,,,,,,,,,,,,,,,,,,,,,,,,,,,,,,,,,,,,,,,,
359269,001,2022-11-20_23h54.23.787,Info_measure_main_exp,2022.2.2,Win32,59.95203837,,,,,,,,,,,,,,,,,,masks/mask_005.jpg,,,,,,,,,,,,,,,,,,,,,,,,,,,,,,,,,,,,,,,,,,,,,,,,0,2,2,4,1,,,,,,,,,,,,,,,,,,,,,,,,,,,,,,,,,,,,,,,,,
359269,001,2022-11-20_23h54.23.787,Info_measure_main_exp,2022.2.2,Win32,59.95203837,,,,,,,,,,,,,,,,,,masks/mask_004.jpg,,,,,,,,,,,,,,,,,,,,,,,,,,,,,,,,,,,,,,,,,,,,,,,,0,3,3,3,1,,,,,,,,,,,,,,,,,,,,,,,,,,,,,,,,,,,,,,,,,
359269,001,2022-11-20_23h54.23.787,Info_measure_main_exp,2022.2.2,Win32,59.95203837,,,,,,,,,,,,,,,,,,masks/mask_001.jpg,,,,,,,,,,,,,,,,,,,,,,,,,,,,,,,,,,,,,,,,,,,,,,,,0,4,4,0,1,,,,,,,,,,,,,,,,,,,,,,,,,,,,,,,,,,,,,,,,,
359269,001,2022-11-20_23h54.23.787,Info_measure_main_exp,2022.2.2,Win32,59.95203837,,,,,,,,,,,,,,,,,,,,,,,,,,,,,,7,0.699,1,,,,,,,,,,,,0,131,5,5,2142,2166,absent_patch/patch0002142.jpg,absent_patch/patch0002166.jpg,,,,,,,,,,,,,,,,,,,,0.021296296,0.119444444,1,0,0,response1disk,19,0.005555556,0.000925926,1,0,0,center_square,0,18,18,66,1,,,,,,,,,,,,,,,,,,,,,,,
359269,001,2022-11-20_23h54.23.787,Info_measure_main_exp,2022.2.2,Win32,59.95203837,,,,,,,,,,,,,,,,,,masks/mask_003.jpg,,,,,,,,,,,,,,,,,,,,,,,,,,,,,,,,,,,,,,,,,,,0,0,0,2,1,,,,,,,,,,,,,,,,,,,,,,,,,,,,,,,,,,,,,,,,,,,,,,
359269,001,2022-11-20_23h54.23.787,Info_measure_main_exp,2022.2.2,Win32,59.95203837,,,,,,,,,,,,,,,,,,masks/mask_005.jpg,,,,,,,,,,,,,,,,,,,,,,,,,,,,,,,,,,,,,,,,,,,0,1,1,4,1,,,,,,,,,,,,,,,,,,,,,,,,,,,,,,,,,,,,,,,,,,,,,,
359269,001,2022-11-20_23h54.23.787,Info_measure_main_exp,2022.2.2,Win32,59.95203837,,,,,,,,,,,,,,,,,,masks/mask_001.jpg,,,,,,,,,,,,,,,,,,,,,,,,,,,,,,,,,,,,,,,,,,,0,2,2,0,1,,,,,,,,,,,,,,,,,,,,,,,,,,,,,,,,,,,,,,,,,,,,,,
359269,001,2022-11-20_23h54.23.787,Info_measure_main_exp,2022.2.2,Win32,59.95203837,,,,,,,,,,,,,,,,,,masks/mask_004.jpg,,,,,,,,,,,,,,,,,,,,,,,,,,,,,,,,,,,,,,,,,,,0,3,3,3,1,,,,,,,,,,,,,,,,,,,,,,,,,,,,,,,,,,,,,,,,,,,,,,
359269,001,2022-11-20_23h54.23.787,Info_measure_main_exp,2022.2.2,Win32,59.95203837,,,,,,,,,,,,,,,,,,masks/mask_002.jpg,,,,,,,,,,,,,,,,,,,,,,,,,,,,,,,,,,,,,,,,,,,0,4,4,1,1,,,,,,,,,,,,,,,,,,,,,,,,,,,,,,,,,,,,,,,,,,,,,,
359269,001,2022-11-20_23h54.23.787,Info_measure_main_exp,2022.2.2,Win32,59.95203837,,,,,,,,,,,,,,,,,,masks/mask_001.jpg,,,,,,,,,,,,,,,,,,,,,,,,,,,,,,,,,,,,,,,,,,,,,,,,0,0,0,0,1,,,,,,,,,,,,,,,,,,,,,,,,,,,,,,,,,,,,,,,,,
359269,001,2022-11-20_23h54.23.787,Info_measure_main_exp,2022.2.2,Win32,59.95203837,,,,,,,,,,,,,,,,,,masks/mask_005.jpg,,,,,,,,,,,,,,,,,,,,,,,,,,,,,,,,,,,,,,,,,,,,,,,,0,1,1,4,1,,,,,,,,,,,,,,,,,,,,,,,,,,,,,,,,,,,,,,,,,
359269,001,2022-11-20_23h54.23.787,Info_measure_main_exp,2022.2.2,Win32,59.95203837,,,,,,,,,,,,,,,,,,masks/mask_003.jpg,,,,,,,,,,,,,,,,,,,,,,,,,,,,,,,,,,,,,,,,,,,,,,,,0,2,2,2,1,,,,,,,,,,,,,,,,,,,,,,,,,,,,,,,,,,,,,,,,,
359269,001,2022-11-20_23h54.23.787,Info_measure_main_exp,2022.2.2,Win32,59.95203837,,,,,,,,,,,,,,,,,,masks/mask_002.jpg,,,,,,,,,,,,,,,,,,,,,,,,,,,,,,,,,,,,,,,,,,,,,,,,0,3,3,1,1,,,,,,,,,,,,,,,,,,,,,,,,,,,,,,,,,,,,,,,,,
359269,001,2022-11-20_23h54.23.787,Info_measure_main_exp,2022.2.2,Win32,59.95203837,,,,,,,,,,,,,,,,,,masks/mask_004.jpg,,,,,,,,,,,,,,,,,,,,,,,,,,,,,,,,,,,,,,,,,,,,,,,,0,4,4,3,1,,,,,,,,,,,,,,,,,,,,,,,,,,,,,,,,,,,,,,,,,
359269,001,2022-11-20_23h54.23.787,Info_measure_main_exp,2022.2.2,Win32,59.95203837,,,,,,,,,,,,,,,,,,,,,,,,,,,,,,7,0.717,1,,,,,,,,,,,,0,131,5,5,2178,1986,absent_patch/patch0002178.jpg,absent_patch/patch0001986.jpg,,,,,,,,,,,,,,,,,,,,0.024074074,0.113888889,1,0,0,response1disk,20,0.00462963,0.001851852,1,0,0,center_square,0,19,19,46,1,,,,,,,,,,,,,,,,,,,,,,,
359269,001,2022-11-20_23h54.23.787,Info_measure_main_exp,2022.2.2,Win32,59.95203837,,,,,,,,,,,,,,,,,,masks/mask_004.jpg,,,,,,,,,,,,,,,,,,,,,,,,,,,,,,,,,,,,,,,,,,,0,0,0,3,1,,,,,,,,,,,,,,,,,,,,,,,,,,,,,,,,,,,,,,,,,,,,,,
359269,001,2022-11-20_23h54.23.787,Info_measure_main_exp,2022.2.2,Win32,59.95203837,,,,,,,,,,,,,,,,,,masks/mask_002.jpg,,,,,,,,,,,,,,,,,,,,,,,,,,,,,,,,,,,,,,,,,,,0,1,1,1,1,,,,,,,,,,,,,,,,,,,,,,,,,,,,,,,,,,,,,,,,,,,,,,
359269,001,2022-11-20_23h54.23.787,Info_measure_main_exp,2022.2.2,Win32,59.95203837,,,,,,,,,,,,,,,,,,masks/mask_003.jpg,,,,,,,,,,,,,,,,,,,,,,,,,,,,,,,,,,,,,,,,,,,0,2,2,2,1,,,,,,,,,,,,,,,,,,,,,,,,,,,,,,,,,,,,,,,,,,,,,,
359269,001,2022-11-20_23h54.23.787,Info_measure_main_exp,2022.2.2,Win32,59.95203837,,,,,,,,,,,,,,,,,,masks/mask_001.jpg,,,,,,,,,,,,,,,,,,,,,,,,,,,,,,,,,,,,,,,,,,,0,3,3,0,1,,,,,,,,,,,,,,,,,,,,,,,,,,,,,,,,,,,,,,,,,,,,,,
359269,001,2022-11-20_23h54.23.787,Info_measure_main_exp,2022.2.2,Win32,59.95203837,,,,,,,,,,,,,,,,,,masks/mask_005.jpg,,,,,,,,,,,,,,,,,,,,,,,,,,,,,,,,,,,,,,,,,,,0,4,4,4,1,,,,,,,,,,,,,,,,,,,,,,,,,,,,,,,,,,,,,,,,,,,,,,
359269,001,2022-11-20_23h54.23.787,Info_measure_main_exp,2022.2.2,Win32,59.95203837,,,,,,,,,,,,,,,,,,masks/mask_004.jpg,,,,,,,,,,,,,,,,,,,,,,,,,,,,,,,,,,,,,,,,,,,,,,,,0,0,0,3,1,,,,,,,,,,,,,,,,,,,,,,,,,,,,,,,,,,,,,,,,,
359269,001,2022-11-20_23h54.23.787,Info_measure_main_exp,2022.2.2,Win32,59.95203837,,,,,,,,,,,,,,,,,,masks/mask_005.jpg,,,,,,,,,,,,,,,,,,,,,,,,,,,,,,,,,,,,,,,,,,,,,,,,0,1,1,4,1,,,,,,,,,,,,,,,,,,,,,,,,,,,,,,,,,,,,,,,,,
359269,001,2022-11-20_23h54.23.787,Info_measure_main_exp,2022.2.2,Win32,59.95203837,,,,,,,,,,,,,,,,,,masks/mask_001.jpg,,,,,,,,,,,,,,,,,,,,,,,,,,,,,,,,,,,,,,,,,,,,,,,,0,2,2,0,1,,,,,,,,,,,,,,,,,,,,,,,,,,,,,,,,,,,,,,,,,
359269,001,2022-11-20_23h54.23.787,Info_measure_main_exp,2022.2.2,Win32,59.95203837,,,,,,,,,,,,,,,,,,masks/mask_002.jpg,,,,,,,,,,,,,,,,,,,,,,,,,,,,,,,,,,,,,,,,,,,,,,,,0,3,3,1,1,,,,,,,,,,,,,,,,,,,,,,,,,,,,,,,,,,,,,,,,,
359269,001,2022-11-20_23h54.23.787,Info_measure_main_exp,2022.2.2,Win32,59.95203837,,,,,,,,,,,,,,,,,,masks/mask_003.jpg,,,,,,,,,,,,,,,,,,,,,,,,,,,,,,,,,,,,,,,,,,,,,,,,0,4,4,2,1,,,,,,,,,,,,,,,,,,,,,,,,,,,,,,,,,,,,,,,,,
359269,001,2022-11-20_23h54.23.787,Info_measure_main_exp,2022.2.2,Win32,59.95203837,,,,,,,,,,,,,,,,,,,,,,,,,,,,,,0,0.784,1,,,,,,,,,,,,0,131,5,5,2082,2082,absent_patch/patch0002082.jpg,absent_patch/patch0002082.jpg,,,,,,,,,,,,,,,,,,,,-0.038888889,0.133333333,1,0,0,response7disk,21,0.001851852,0.002777778,1,0,0,center_square,0,20,20,74,1,,,,,,,,,,,,,,,,,,,,,,,
359269,001,2022-11-20_23h54.23.787,Info_measure_main_exp,2022.2.2,Win32,59.95203837,,,,,,,,,,,,,,,,,,masks/mask_003.jpg,,,,,,,,,,,,,,,,,,,,,,,,,,,,,,,,,,,,,,,,,,,0,0,0,2,1,,,,,,,,,,,,,,,,,,,,,,,,,,,,,,,,,,,,,,,,,,,,,,
359269,001,2022-11-20_23h54.23.787,Info_measure_main_exp,2022.2.2,Win32,59.95203837,,,,,,,,,,,,,,,,,,masks/mask_005.jpg,,,,,,,,,,,,,,,,,,,,,,,,,,,,,,,,,,,,,,,,,,,0,1,1,4,1,,,,,,,,,,,,,,,,,,,,,,,,,,,,,,,,,,,,,,,,,,,,,,
359269,001,2022-11-20_23h54.23.787,Info_measure_main_exp,2022.2.2,Win32,59.95203837,,,,,,,,,,,,,,,,,,masks/mask_001.jpg,,,,,,,,,,,,,,,,,,,,,,,,,,,,,,,,,,,,,,,,,,,0,2,2,0,1,,,,,,,,,,,,,,,,,,,,,,,,,,,,,,,,,,,,,,,,,,,,,,
359269,001,2022-11-20_23h54.23.787,Info_measure_main_exp,2022.2.2,Win32,59.95203837,,,,,,,,,,,,,,,,,,masks/mask_002.jpg,,,,,,,,,,,,,,,,,,,,,,,,,,,,,,,,,,,,,,,,,,,0,3,3,1,1,,,,,,,,,,,,,,,,,,,,,,,,,,,,,,,,,,,,,,,,,,,,,,
359269,001,2022-11-20_23h54.23.787,Info_measure_main_exp,2022.2.2,Win32,59.95203837,,,,,,,,,,,,,,,,,,masks/mask_004.jpg,,,,,,,,,,,,,,,,,,,,,,,,,,,,,,,,,,,,,,,,,,,0,4,4,3,1,,,,,,,,,,,,,,,,,,,,,,,,,,,,,,,,,,,,,,,,,,,,,,
359269,001,2022-11-20_23h54.23.787,Info_measure_main_exp,2022.2.2,Win32,59.95203837,,,,,,,,,,,,,,,,,,masks/mask_003.jpg,,,,,,,,,,,,,,,,,,,,,,,,,,,,,,,,,,,,,,,,,,,,,,,,0,0,0,2,1,,,,,,,,,,,,,,,,,,,,,,,,,,,,,,,,,,,,,,,,,
359269,001,2022-11-20_23h54.23.787,Info_measure_main_exp,2022.2.2,Win32,59.95203837,,,,,,,,,,,,,,,,,,masks/mask_001.jpg,,,,,,,,,,,,,,,,,,,,,,,,,,,,,,,,,,,,,,,,,,,,,,,,0,1,1,0,1,,,,,,,,,,,,,,,,,,,,,,,,,,,,,,,,,,,,,,,,,
359269,001,2022-11-20_23h54.23.787,Info_measure_main_exp,2022.2.2,Win32,59.95203837,,,,,,,,,,,,,,,,,,masks/mask_005.jpg,,,,,,,,,,,,,,,,,,,,,,,,,,,,,,,,,,,,,,,,,,,,,,,,0,2,2,4,1,,,,,,,,,,,,,,,,,,,,,,,,,,,,,,,,,,,,,,,,,
359269,001,2022-11-20_23h54.23.787,Info_measure_main_exp,2022.2.2,Win32,59.95203837,,,,,,,,,,,,,,,,,,masks/mask_004.jpg,,,,,,,,,,,,,,,,,,,,,,,,,,,,,,,,,,,,,,,,,,,,,,,,0,3,3,3,1,,,,,,,,,,,,,,,,,,,,,,,,,,,,,,,,,,,,,,,,,
359269,001,2022-11-20_23h54.23.787,Info_measure_main_exp,2022.2.2,Win32,59.95203837,,,,,,,,,,,,,,,,,,masks/mask_002.jpg,,,,,,,,,,,,,,,,,,,,,,,,,,,,,,,,,,,,,,,,,,,,,,,,0,4,4,1,1,,,,,,,,,,,,,,,,,,,,,,,,,,,,,,,,,,,,,,,,,
359269,001,2022-11-20_23h54.23.787,Info_measure_main_exp,2022.2.2,Win32,59.95203837,,,,,,,,,,,,,,,,,,,,,,,,,,,,,,3,2.435,1,,,,,,,,,,,,0,131,5,5,2178,2142,absent_patch/patch0002178.jpg,absent_patch/patch0002142.jpg,,,,,,,,,,,,,,,,,,,,-0.048148148,-0.132407407,1,0,0,response5disk,22,0.001851852,0.011111111,1,0,0,center_square,0,21,21,41,1,,,,,,,,,,,,,,,,,,,,,,,
359269,001,2022-11-20_23h54.23.787,Info_measure_main_exp,2022.2.2,Win32,59.95203837,,,,,,,,,,,,,,,,,,masks/mask_001.jpg,,,,,,,,,,,,,,,,,,,,,,,,,,,,,,,,,,,,,,,,,,,0,0,0,0,1,,,,,,,,,,,,,,,,,,,,,,,,,,,,,,,,,,,,,,,,,,,,,,
359269,001,2022-11-20_23h54.23.787,Info_measure_main_exp,2022.2.2,Win32,59.95203837,,,,,,,,,,,,,,,,,,masks/mask_005.jpg,,,,,,,,,,,,,,,,,,,,,,,,,,,,,,,,,,,,,,,,,,,0,1,1,4,1,,,,,,,,,,,,,,,,,,,,,,,,,,,,,,,,,,,,,,,,,,,,,,
359269,001,2022-11-20_23h54.23.787,Info_measure_main_exp,2022.2.2,Win32,59.95203837,,,,,,,,,,,,,,,,,,masks/mask_002.jpg,,,,,,,,,,,,,,,,,,,,,,,,,,,,,,,,,,,,,,,,,,,0,2,2,1,1,,,,,,,,,,,,,,,,,,,,,,,,,,,,,,,,,,,,,,,,,,,,,,
359269,001,2022-11-20_23h54.23.787,Info_measure_main_exp,2022.2.2,Win32,59.95203837,,,,,,,,,,,,,,,,,,masks/mask_003.jpg,,,,,,,,,,,,,,,,,,,,,,,,,,,,,,,,,,,,,,,,,,,0,3,3,2,1,,,,,,,,,,,,,,,,,,,,,,,,,,,,,,,,,,,,,,,,,,,,,,
359269,001,2022-11-20_23h54.23.787,Info_measure_main_exp,2022.2.2,Win32,59.95203837,,,,,,,,,,,,,,,,,,masks/mask_004.jpg,,,,,,,,,,,,,,,,,,,,,,,,,,,,,,,,,,,,,,,,,,,0,4,4,3,1,,,,,,,,,,,,,,,,,,,,,,,,,,,,,,,,,,,,,,,,,,,,,,
359269,001,2022-11-20_23h54.23.787,Info_measure_main_exp,2022.2.2,Win32,59.95203837,,,,,,,,,,,,,,,,,,masks/mask_001.jpg,,,,,,,,,,,,,,,,,,,,,,,,,,,,,,,,,,,,,,,,,,,,,,,,0,0,0,0,1,,,,,,,,,,,,,,,,,,,,,,,,,,,,,,,,,,,,,,,,,
359269,001,2022-11-20_23h54.23.787,Info_measure_main_exp,2022.2.2,Win32,59.95203837,,,,,,,,,,,,,,,,,,masks/mask_002.jpg,,,,,,,,,,,,,,,,,,,,,,,,,,,,,,,,,,,,,,,,,,,,,,,,0,1,1,1,1,,,,,,,,,,,,,,,,,,,,,,,,,,,,,,,,,,,,,,,,,
359269,001,2022-11-20_23h54.23.787,Info_measure_main_exp,2022.2.2,Win32,59.95203837,,,,,,,,,,,,,,,,,,masks/mask_005.jpg,,,,,,,,,,,,,,,,,,,,,,,,,,,,,,,,,,,,,,,,,,,,,,,,0,2,2,4,1,,,,,,,,,,,,,,,,,,,,,,,,,,,,,,,,,,,,,,,,,
359269,001,2022-11-20_23h54.23.787,Info_measure_main_exp,2022.2.2,Win32,59.95203837,,,,,,,,,,,,,,,,,,masks/mask_003.jpg,,,,,,,,,,,,,,,,,,,,,,,,,,,,,,,,,,,,,,,,,,,,,,,,0,3,3,2,1,,,,,,,,,,,,,,,,,,,,,,,,,,,,,,,,,,,,,,,,,
359269,001,2022-11-20_23h54.23.787,Info_measure_main_exp,2022.2.2,Win32,59.95203837,,,,,,,,,,,,,,,,,,masks/mask_004.jpg,,,,,,,,,,,,,,,,,,,,,,,,,,,,,,,,,,,,,,,,,,,,,,,,0,4,4,3,1,,,,,,,,,,,,,,,,,,,,,,,,,,,,,,,,,,,,,,,,,
359269,001,2022-11-20_23h54.23.787,Info_measure_main_exp,2022.2.2,Win32,59.95203837,,,,,,,,,,,,,,,,,,,,,,,,,,,,,,6,1.984,1,,,,,,,,,,,,0,131,5,5,2214,2166,absent_patch/patch0002214.jpg,absent_patch/patch0002166.jpg,,,,,,,,,,,,,,,,,,,,0.121296296,0.055555556,1,0,0,response1disk,23,0,-0.000925926,1,0,0,center_square,0,22,22,109,1,,,,,,,,,,,,,,,,,,,,,,,
359269,001,2022-11-20_23h54.23.787,Info_measure_main_exp,2022.2.2,Win32,59.95203837,,,,,,,,,,,,,,,,,,masks/mask_004.jpg,,,,,,,,,,,,,,,,,,,,,,,,,,,,,,,,,,,,,,,,,,,0,0,0,3,1,,,,,,,,,,,,,,,,,,,,,,,,,,,,,,,,,,,,,,,,,,,,,,
359269,001,2022-11-20_23h54.23.787,Info_measure_main_exp,2022.2.2,Win32,59.95203837,,,,,,,,,,,,,,,,,,masks/mask_003.jpg,,,,,,,,,,,,,,,,,,,,,,,,,,,,,,,,,,,,,,,,,,,0,1,1,2,1,,,,,,,,,,,,,,,,,,,,,,,,,,,,,,,,,,,,,,,,,,,,,,
359269,001,2022-11-20_23h54.23.787,Info_measure_main_exp,2022.2.2,Win32,59.95203837,,,,,,,,,,,,,,,,,,masks/mask_001.jpg,,,,,,,,,,,,,,,,,,,,,,,,,,,,,,,,,,,,,,,,,,,0,2,2,0,1,,,,,,,,,,,,,,,,,,,,,,,,,,,,,,,,,,,,,,,,,,,,,,
359269,001,2022-11-20_23h54.23.787,Info_measure_main_exp,2022.2.2,Win32,59.95203837,,,,,,,,,,,,,,,,,,masks/mask_002.jpg,,,,,,,,,,,,,,,,,,,,,,,,,,,,,,,,,,,,,,,,,,,0,3,3,1,1,,,,,,,,,,,,,,,,,,,,,,,,,,,,,,,,,,,,,,,,,,,,,,
359269,001,2022-11-20_23h54.23.787,Info_measure_main_exp,2022.2.2,Win32,59.95203837,,,,,,,,,,,,,,,,,,masks/mask_005.jpg,,,,,,,,,,,,,,,,,,,,,,,,,,,,,,,,,,,,,,,,,,,0,4,4,4,1,,,,,,,,,,,,,,,,,,,,,,,,,,,,,,,,,,,,,,,,,,,,,,
359269,001,2022-11-20_23h54.23.787,Info_measure_main_exp,2022.2.2,Win32,59.95203837,,,,,,,,,,,,,,,,,,masks/mask_005.jpg,,,,,,,,,,,,,,,,,,,,,,,,,,,,,,,,,,,,,,,,,,,,,,,,0,0,0,4,1,,,,,,,,,,,,,,,,,,,,,,,,,,,,,,,,,,,,,,,,,
359269,001,2022-11-20_23h54.23.787,Info_measure_main_exp,2022.2.2,Win32,59.95203837,,,,,,,,,,,,,,,,,,masks/mask_003.jpg,,,,,,,,,,,,,,,,,,,,,,,,,,,,,,,,,,,,,,,,,,,,,,,,0,1,1,2,1,,,,,,,,,,,,,,,,,,,,,,,,,,,,,,,,,,,,,,,,,
359269,001,2022-11-20_23h54.23.787,Info_measure_main_exp,2022.2.2,Win32,59.95203837,,,,,,,,,,,,,,,,,,masks/mask_002.jpg,,,,,,,,,,,,,,,,,,,,,,,,,,,,,,,,,,,,,,,,,,,,,,,,0,2,2,1,1,,,,,,,,,,,,,,,,,,,,,,,,,,,,,,,,,,,,,,,,,
359269,001,2022-11-20_23h54.23.787,Info_measure_main_exp,2022.2.2,Win32,59.95203837,,,,,,,,,,,,,,,,,,masks/mask_004.jpg,,,,,,,,,,,,,,,,,,,,,,,,,,,,,,,,,,,,,,,,,,,,,,,,0,3,3,3,1,,,,,,,,,,,,,,,,,,,,,,,,,,,,,,,,,,,,,,,,,
359269,001,2022-11-20_23h54.23.787,Info_measure_main_exp,2022.2.2,Win32,59.95203837,,,,,,,,,,,,,,,,,,masks/mask_001.jpg,,,,,,,,,,,,,,,,,,,,,,,,,,,,,,,,,,,,,,,,,,,,,,,,0,4,4,0,1,,,,,,,,,,,,,,,,,,,,,,,,,,,,,,,,,,,,,,,,,
359269,001,2022-11-20_23h54.23.787,Info_measure_main_exp,2022.2.2,Win32,59.95203837,,,,,,,,,,,,,,,,,,,,,,,,,,,,,,2,6.155,1,,,,,,,,,,,,0,131,5,5,1950,2142,absent_patch/patch0001950.jpg,absent_patch/patch0002142.jpg,,,,,,,,,,,,,,,,,,,,-0.135185185,-0.059259259,1,0,0,response5disk,24,-0.000925926,-0.003703704,1,0,0,center_square,0,23,23,83,1,,,,,,,,,,,,,,,,,,,,,,,
359269,001,2022-11-20_23h54.23.787,Info_measure_main_exp,2022.2.2,Win32,59.95203837,,,,,,,,,,,,,,,,,,masks/mask_003.jpg,,,,,,,,,,,,,,,,,,,,,,,,,,,,,,,,,,,,,,,,,,,0,0,0,2,1,,,,,,,,,,,,,,,,,,,,,,,,,,,,,,,,,,,,,,,,,,,,,,
359269,001,2022-11-20_23h54.23.787,Info_measure_main_exp,2022.2.2,Win32,59.95203837,,,,,,,,,,,,,,,,,,masks/mask_001.jpg,,,,,,,,,,,,,,,,,,,,,,,,,,,,,,,,,,,,,,,,,,,0,1,1,0,1,,,,,,,,,,,,,,,,,,,,,,,,,,,,,,,,,,,,,,,,,,,,,,
359269,001,2022-11-20_23h54.23.787,Info_measure_main_exp,2022.2.2,Win32,59.95203837,,,,,,,,,,,,,,,,,,masks/mask_005.jpg,,,,,,,,,,,,,,,,,,,,,,,,,,,,,,,,,,,,,,,,,,,0,2,2,4,1,,,,,,,,,,,,,,,,,,,,,,,,,,,,,,,,,,,,,,,,,,,,,,
359269,001,2022-11-20_23h54.23.787,Info_measure_main_exp,2022.2.2,Win32,59.95203837,,,,,,,,,,,,,,,,,,masks/mask_002.jpg,,,,,,,,,,,,,,,,,,,,,,,,,,,,,,,,,,,,,,,,,,,0,3,3,1,1,,,,,,,,,,,,,,,,,,,,,,,,,,,,,,,,,,,,,,,,,,,,,,
359269,001,2022-11-20_23h54.23.787,Info_measure_main_exp,2022.2.2,Win32,59.95203837,,,,,,,,,,,,,,,,,,masks/mask_004.jpg,,,,,,,,,,,,,,,,,,,,,,,,,,,,,,,,,,,,,,,,,,,0,4,4,3,1,,,,,,,,,,,,,,,,,,,,,,,,,,,,,,,,,,,,,,,,,,,,,,
359269,001,2022-11-20_23h54.23.787,Info_measure_main_exp,2022.2.2,Win32,59.95203837,,,,,,,,,,,,,,,,,,masks/mask_005.jpg,,,,,,,,,,,,,,,,,,,,,,,,,,,,,,,,,,,,,,,,,,,,,,,,0,0,0,4,1,,,,,,,,,,,,,,,,,,,,,,,,,,,,,,,,,,,,,,,,,
359269,001,2022-11-20_23h54.23.787,Info_measure_main_exp,2022.2.2,Win32,59.95203837,,,,,,,,,,,,,,,,,,masks/mask_003.jpg,,,,,,,,,,,,,,,,,,,,,,,,,,,,,,,,,,,,,,,,,,,,,,,,0,1,1,2,1,,,,,,,,,,,,,,,,,,,,,,,,,,,,,,,,,,,,,,,,,
359269,001,2022-11-20_23h54.23.787,Info_measure_main_exp,2022.2.2,Win32,59.95203837,,,,,,,,,,,,,,,,,,masks/mask_004.jpg,,,,,,,,,,,,,,,,,,,,,,,,,,,,,,,,,,,,,,,,,,,,,,,,0,2,2,3,1,,,,,,,,,,,,,,,,,,,,,,,,,,,,,,,,,,,,,,,,,
359269,001,2022-11-20_23h54.23.787,Info_measure_main_exp,2022.2.2,Win32,59.95203837,,,,,,,,,,,,,,,,,,masks/mask_001.jpg,,,,,,,,,,,,,,,,,,,,,,,,,,,,,,,,,,,,,,,,,,,,,,,,0,3,3,0,1,,,,,,,,,,,,,,,,,,,,,,,,,,,,,,,,,,,,,,,,,
359269,001,2022-11-20_23h54.23.787,Info_measure_main_exp,2022.2.2,Win32,59.95203837,,,,,,,,,,,,,,,,,,masks/mask_002.jpg,,,,,,,,,,,,,,,,,,,,,,,,,,,,,,,,,,,,,,,,,,,,,,,,0,4,4,1,1,,,,,,,,,,,,,,,,,,,,,,,,,,,,,,,,,,,,,,,,,
359269,001,2022-11-20_23h54.23.787,Info_measure_main_exp,2022.2.2,Win32,59.95203837,,,,,,,,,,,,,,,,,,,,,,,,,,,,,,7,0.617,1,,,,,,,,,,,,0,131,5,5,1950,2214,absent_patch/patch0001950.jpg,absent_patch/patch0002214.jpg,,,,,,,,,,,,,,,,,,,,0.086111111,0.146296296,1,0,0,response1disk,25,0.006481481,0.00462963,1,0,0,center_square,0,24,24,85,1,,,,,,,,,,,,,,,,,,,,,,,
359269,001,2022-11-20_23h54.23.787,Info_measure_main_exp,2022.2.2,Win32,59.95203837,,,,,,,,,,,,,,,,,,masks/mask_004.jpg,,,,,,,,,,,,,,,,,,,,,,,,,,,,,,,,,,,,,,,,,,,0,0,0,3,1,,,,,,,,,,,,,,,,,,,,,,,,,,,,,,,,,,,,,,,,,,,,,,
359269,001,2022-11-20_23h54.23.787,Info_measure_main_exp,2022.2.2,Win32,59.95203837,,,,,,,,,,,,,,,,,,masks/mask_002.jpg,,,,,,,,,,,,,,,,,,,,,,,,,,,,,,,,,,,,,,,,,,,0,1,1,1,1,,,,,,,,,,,,,,,,,,,,,,,,,,,,,,,,,,,,,,,,,,,,,,
359269,001,2022-11-20_23h54.23.787,Info_measure_main_exp,2022.2.2,Win32,59.95203837,,,,,,,,,,,,,,,,,,masks/mask_003.jpg,,,,,,,,,,,,,,,,,,,,,,,,,,,,,,,,,,,,,,,,,,,0,2,2,2,1,,,,,,,,,,,,,,,,,,,,,,,,,,,,,,,,,,,,,,,,,,,,,,
359269,001,2022-11-20_23h54.23.787,Info_measure_main_exp,2022.2.2,Win32,59.95203837,,,,,,,,,,,,,,,,,,masks/mask_001.jpg,,,,,,,,,,,,,,,,,,,,,,,,,,,,,,,,,,,,,,,,,,,0,3,3,0,1,,,,,,,,,,,,,,,,,,,,,,,,,,,,,,,,,,,,,,,,,,,,,,
359269,001,2022-11-20_23h54.23.787,Info_measure_main_exp,2022.2.2,Win32,59.95203837,,,,,,,,,,,,,,,,,,masks/mask_005.jpg,,,,,,,,,,,,,,,,,,,,,,,,,,,,,,,,,,,,,,,,,,,0,4,4,4,1,,,,,,,,,,,,,,,,,,,,,,,,,,,,,,,,,,,,,,,,,,,,,,
359269,001,2022-11-20_23h54.23.787,Info_measure_main_exp,2022.2.2,Win32,59.95203837,,,,,,,,,,,,,,,,,,masks/mask_002.jpg,,,,,,,,,,,,,,,,,,,,,,,,,,,,,,,,,,,,,,,,,,,,,,,,0,0,0,1,1,,,,,,,,,,,,,,,,,,,,,,,,,,,,,,,,,,,,,,,,,
359269,001,2022-11-20_23h54.23.787,Info_measure_main_exp,2022.2.2,Win32,59.95203837,,,,,,,,,,,,,,,,,,masks/mask_003.jpg,,,,,,,,,,,,,,,,,,,,,,,,,,,,,,,,,,,,,,,,,,,,,,,,0,1,1,2,1,,,,,,,,,,,,,,,,,,,,,,,,,,,,,,,,,,,,,,,,,
359269,001,2022-11-20_23h54.23.787,Info_measure_main_exp,2022.2.2,Win32,59.95203837,,,,,,,,,,,,,,,,,,masks/mask_005.jpg,,,,,,,,,,,,,,,,,,,,,,,,,,,,,,,,,,,,,,,,,,,,,,,,0,2,2,4,1,,,,,,,,,,,,,,,,,,,,,,,,,,,,,,,,,,,,,,,,,
359269,001,2022-11-20_23h54.23.787,Info_measure_main_exp,2022.2.2,Win32,59.95203837,,,,,,,,,,,,,,,,,,masks/mask_004.jpg,,,,,,,,,,,,,,,,,,,,,,,,,,,,,,,,,,,,,,,,,,,,,,,,0,3,3,3,1,,,,,,,,,,,,,,,,,,,,,,,,,,,,,,,,,,,,,,,,,
359269,001,2022-11-20_23h54.23.787,Info_measure_main_exp,2022.2.2,Win32,59.95203837,,,,,,,,,,,,,,,,,,masks/mask_001.jpg,,,,,,,,,,,,,,,,,,,,,,,,,,,,,,,,,,,,,,,,,,,,,,,,0,4,4,0,1,,,,,,,,,,,,,,,,,,,,,,,,,,,,,,,,,,,,,,,,,
359269,001,2022-11-20_23h54.23.787,Info_measure_main_exp,2022.2.2,Win32,59.95203837,,,,,,,,,,,,,,,,,,,,,,,,,,,,,,4,2.052,1,,,,,,,,,,,,0,131,5,5,1974,2178,absent_patch/patch0001974.jpg,absent_patch/patch0002178.jpg,,,,,,,,,,,,,,,,,,,,0.040740741,-0.088888889,1,0,0,response3disk,26,-0.000925926,-0.011111111,1,0,0,center_square,0,25,25,44,1,,,,,,,,,,,,,,,,,,,,,,,
359269,001,2022-11-20_23h54.23.787,Info_measure_main_exp,2022.2.2,Win32,59.95203837,,,,,,,,,,,,,,,,,,masks/mask_003.jpg,,,,,,,,,,,,,,,,,,,,,,,,,,,,,,,,,,,,,,,,,,,0,0,0,2,1,,,,,,,,,,,,,,,,,,,,,,,,,,,,,,,,,,,,,,,,,,,,,,
359269,001,2022-11-20_23h54.23.787,Info_measure_main_exp,2022.2.2,Win32,59.95203837,,,,,,,,,,,,,,,,,,masks/mask_004.jpg,,,,,,,,,,,,,,,,,,,,,,,,,,,,,,,,,,,,,,,,,,,0,1,1,3,1,,,,,,,,,,,,,,,,,,,,,,,,,,,,,,,,,,,,,,,,,,,,,,
359269,001,2022-11-20_23h54.23.787,Info_measure_main_exp,2022.2.2,Win32,59.95203837,,,,,,,,,,,,,,,,,,masks/mask_001.jpg,,,,,,,,,,,,,,,,,,,,,,,,,,,,,,,,,,,,,,,,,,,0,2,2,0,1,,,,,,,,,,,,,,,,,,,,,,,,,,,,,,,,,,,,,,,,,,,,,,
359269,001,2022-11-20_23h54.23.787,Info_measure_main_exp,2022.2.2,Win32,59.95203837,,,,,,,,,,,,,,,,,,masks/mask_005.jpg,,,,,,,,,,,,,,,,,,,,,,,,,,,,,,,,,,,,,,,,,,,0,3,3,4,1,,,,,,,,,,,,,,,,,,,,,,,,,,,,,,,,,,,,,,,,,,,,,,
359269,001,2022-11-20_23h54.23.787,Info_measure_main_exp,2022.2.2,Win32,59.95203837,,,,,,,,,,,,,,,,,,masks/mask_002.jpg,,,,,,,,,,,,,,,,,,,,,,,,,,,,,,,,,,,,,,,,,,,0,4,4,1,1,,,,,,,,,,,,,,,,,,,,,,,,,,,,,,,,,,,,,,,,,,,,,,
359269,001,2022-11-20_23h54.23.787,Info_measure_main_exp,2022.2.2,Win32,59.95203837,,,,,,,,,,,,,,,,,,masks/mask_003.jpg,,,,,,,,,,,,,,,,,,,,,,,,,,,,,,,,,,,,,,,,,,,,,,,,0,0,0,2,1,,,,,,,,,,,,,,,,,,,,,,,,,,,,,,,,,,,,,,,,,
359269,001,2022-11-20_23h54.23.787,Info_measure_main_exp,2022.2.2,Win32,59.95203837,,,,,,,,,,,,,,,,,,masks/mask_002.jpg,,,,,,,,,,,,,,,,,,,,,,,,,,,,,,,,,,,,,,,,,,,,,,,,0,1,1,1,1,,,,,,,,,,,,,,,,,,,,,,,,,,,,,,,,,,,,,,,,,
359269,001,2022-11-20_23h54.23.787,Info_measure_main_exp,2022.2.2,Win32,59.95203837,,,,,,,,,,,,,,,,,,masks/mask_004.jpg,,,,,,,,,,,,,,,,,,,,,,,,,,,,,,,,,,,,,,,,,,,,,,,,0,2,2,3,1,,,,,,,,,,,,,,,,,,,,,,,,,,,,,,,,,,,,,,,,,
359269,001,2022-11-20_23h54.23.787,Info_measure_main_exp,2022.2.2,Win32,59.95203837,,,,,,,,,,,,,,,,,,masks/mask_001.jpg,,,,,,,,,,,,,,,,,,,,,,,,,,,,,,,,,,,,,,,,,,,,,,,,0,3,3,0,1,,,,,,,,,,,,,,,,,,,,,,,,,,,,,,,,,,,,,,,,,
359269,001,2022-11-20_23h54.23.787,Info_measure_main_exp,2022.2.2,Win32,59.95203837,,,,,,,,,,,,,,,,,,masks/mask_005.jpg,,,,,,,,,,,,,,,,,,,,,,,,,,,,,,,,,,,,,,,,,,,,,,,,0,4,4,4,1,,,,,,,,,,,,,,,,,,,,,,,,,,,,,,,,,,,,,,,,,
359269,001,2022-11-20_23h54.23.787,Info_measure_main_exp,2022.2.2,Win32,59.95203837,,,,,,,,,,,,,,,,,,,,,,,,,,,,,,6,3.853,1,,,,,,,,,,,,0,131,5,5,1986,1950,absent_patch/patch0001986.jpg,absent_patch/patch0001950.jpg,,,,,,,,,,,,,,,,,,,,0.149074074,0.02962963,1,0,0,response1disk,27,0.002777778,0,1,0,0,center_square,0,26,26,15,1,,,,,,,,,,,,,,,,,,,,,,,
359269,001,2022-11-20_23h54.23.787,Info_measure_main_exp,2022.2.2,Win32,59.95203837,,,,,,,,,,,,,,,,,,masks/mask_001.jpg,,,,,,,,,,,,,,,,,,,,,,,,,,,,,,,,,,,,,,,,,,,0,0,0,0,1,,,,,,,,,,,,,,,,,,,,,,,,,,,,,,,,,,,,,,,,,,,,,,
359269,001,2022-11-20_23h54.23.787,Info_measure_main_exp,2022.2.2,Win32,59.95203837,,,,,,,,,,,,,,,,,,masks/mask_003.jpg,,,,,,,,,,,,,,,,,,,,,,,,,,,,,,,,,,,,,,,,,,,0,1,1,2,1,,,,,,,,,,,,,,,,,,,,,,,,,,,,,,,,,,,,,,,,,,,,,,
359269,001,2022-11-20_23h54.23.787,Info_measure_main_exp,2022.2.2,Win32,59.95203837,,,,,,,,,,,,,,,,,,masks/mask_004.jpg,,,,,,,,,,,,,,,,,,,,,,,,,,,,,,,,,,,,,,,,,,,0,2,2,3,1,,,,,,,,,,,,,,,,,,,,,,,,,,,,,,,,,,,,,,,,,,,,,,
359269,001,2022-11-20_23h54.23.787,Info_measure_main_exp,2022.2.2,Win32,59.95203837,,,,,,,,,,,,,,,,,,masks/mask_002.jpg,,,,,,,,,,,,,,,,,,,,,,,,,,,,,,,,,,,,,,,,,,,0,3,3,1,1,,,,,,,,,,,,,,,,,,,,,,,,,,,,,,,,,,,,,,,,,,,,,,
359269,001,2022-11-20_23h54.23.787,Info_measure_main_exp,2022.2.2,Win32,59.95203837,,,,,,,,,,,,,,,,,,masks/mask_005.jpg,,,,,,,,,,,,,,,,,,,,,,,,,,,,,,,,,,,,,,,,,,,0,4,4,4,1,,,,,,,,,,,,,,,,,,,,,,,,,,,,,,,,,,,,,,,,,,,,,,
359269,001,2022-11-20_23h54.23.787,Info_measure_main_exp,2022.2.2,Win32,59.95203837,,,,,,,,,,,,,,,,,,masks/mask_004.jpg,,,,,,,,,,,,,,,,,,,,,,,,,,,,,,,,,,,,,,,,,,,,,,,,0,0,0,3,1,,,,,,,,,,,,,,,,,,,,,,,,,,,,,,,,,,,,,,,,,
359269,001,2022-11-20_23h54.23.787,Info_measure_main_exp,2022.2.2,Win32,59.95203837,,,,,,,,,,,,,,,,,,masks/mask_002.jpg,,,,,,,,,,,,,,,,,,,,,,,,,,,,,,,,,,,,,,,,,,,,,,,,0,1,1,1,1,,,,,,,,,,,,,,,,,,,,,,,,,,,,,,,,,,,,,,,,,
359269,001,2022-11-20_23h54.23.787,Info_measure_main_exp,2022.2.2,Win32,59.95203837,,,,,,,,,,,,,,,,,,masks/mask_003.jpg,,,,,,,,,,,,,,,,,,,,,,,,,,,,,,,,,,,,,,,,,,,,,,,,0,2,2,2,1,,,,,,,,,,,,,,,,,,,,,,,,,,,,,,,,,,,,,,,,,
359269,001,2022-11-20_23h54.23.787,Info_measure_main_exp,2022.2.2,Win32,59.95203837,,,,,,,,,,,,,,,,,,masks/mask_001.jpg,,,,,,,,,,,,,,,,,,,,,,,,,,,,,,,,,,,,,,,,,,,,,,,,0,3,3,0,1,,,,,,,,,,,,,,,,,,,,,,,,,,,,,,,,,,,,,,,,,
359269,001,2022-11-20_23h54.23.787,Info_measure_main_exp,2022.2.2,Win32,59.95203837,,,,,,,,,,,,,,,,,,masks/mask_005.jpg,,,,,,,,,,,,,,,,,,,,,,,,,,,,,,,,,,,,,,,,,,,,,,,,0,4,4,4,1,,,,,,,,,,,,,,,,,,,,,,,,,,,,,,,,,,,,,,,,,
359269,001,2022-11-20_23h54.23.787,Info_measure_main_exp,2022.2.2,Win32,59.95203837,,,,,,,,,,,,,,,,,,,,,,,,,,,,,,7,1.201,1,,,,,,,,,,,,1,131,5,5,2082,1,absent_patch/patch0002082.jpg,present_patch/cong_131_5_a.jpg,,,,,,,,,,,,,,,,,,,,0.032407407,0.107407407,1,0,0,response1disk,28,-0.002777778,-0.003703704,1,0,0,center_square,0,27,27,65,1,,,,,,,,,,,,,,,,,,,,,,,
359269,001,2022-11-20_23h54.23.787,Info_measure_main_exp,2022.2.2,Win32,59.95203837,,,,,,,,,,,,,,,,,,masks/mask_001.jpg,,,,,,,,,,,,,,,,,,,,,,,,,,,,,,,,,,,,,,,,,,,0,0,0,0,1,,,,,,,,,,,,,,,,,,,,,,,,,,,,,,,,,,,,,,,,,,,,,,
359269,001,2022-11-20_23h54.23.787,Info_measure_main_exp,2022.2.2,Win32,59.95203837,,,,,,,,,,,,,,,,,,masks/mask_004.jpg,,,,,,,,,,,,,,,,,,,,,,,,,,,,,,,,,,,,,,,,,,,0,1,1,3,1,,,,,,,,,,,,,,,,,,,,,,,,,,,,,,,,,,,,,,,,,,,,,,
359269,001,2022-11-20_23h54.23.787,Info_measure_main_exp,2022.2.2,Win32,59.95203837,,,,,,,,,,,,,,,,,,masks/mask_002.jpg,,,,,,,,,,,,,,,,,,,,,,,,,,,,,,,,,,,,,,,,,,,0,2,2,1,1,,,,,,,,,,,,,,,,,,,,,,,,,,,,,,,,,,,,,,,,,,,,,,
359269,001,2022-11-20_23h54.23.787,Info_measure_main_exp,2022.2.2,Win32,59.95203837,,,,,,,,,,,,,,,,,,masks/mask_003.jpg,,,,,,,,,,,,,,,,,,,,,,,,,,,,,,,,,,,,,,,,,,,0,3,3,2,1,,,,,,,,,,,,,,,,,,,,,,,,,,,,,,,,,,,,,,,,,,,,,,
359269,001,2022-11-20_23h54.23.787,Info_measure_main_exp,2022.2.2,Win32,59.95203837,,,,,,,,,,,,,,,,,,masks/mask_005.jpg,,,,,,,,,,,,,,,,,,,,,,,,,,,,,,,,,,,,,,,,,,,0,4,4,4,1,,,,,,,,,,,,,,,,,,,,,,,,,,,,,,,,,,,,,,,,,,,,,,
359269,001,2022-11-20_23h54.23.787,Info_measure_main_exp,2022.2.2,Win32,59.95203837,,,,,,,,,,,,,,,,,,masks/mask_003.jpg,,,,,,,,,,,,,,,,,,,,,,,,,,,,,,,,,,,,,,,,,,,,,,,,0,0,0,2,1,,,,,,,,,,,,,,,,,,,,,,,,,,,,,,,,,,,,,,,,,
359269,001,2022-11-20_23h54.23.787,Info_measure_main_exp,2022.2.2,Win32,59.95203837,,,,,,,,,,,,,,,,,,masks/mask_005.jpg,,,,,,,,,,,,,,,,,,,,,,,,,,,,,,,,,,,,,,,,,,,,,,,,0,1,1,4,1,,,,,,,,,,,,,,,,,,,,,,,,,,,,,,,,,,,,,,,,,
359269,001,2022-11-20_23h54.23.787,Info_measure_main_exp,2022.2.2,Win32,59.95203837,,,,,,,,,,,,,,,,,,masks/mask_004.jpg,,,,,,,,,,,,,,,,,,,,,,,,,,,,,,,,,,,,,,,,,,,,,,,,0,2,2,3,1,,,,,,,,,,,,,,,,,,,,,,,,,,,,,,,,,,,,,,,,,
359269,001,2022-11-20_23h54.23.787,Info_measure_main_exp,2022.2.2,Win32,59.95203837,,,,,,,,,,,,,,,,,,masks/mask_001.jpg,,,,,,,,,,,,,,,,,,,,,,,,,,,,,,,,,,,,,,,,,,,,,,,,0,3,3,0,1,,,,,,,,,,,,,,,,,,,,,,,,,,,,,,,,,,,,,,,,,
359269,001,2022-11-20_23h54.23.787,Info_measure_main_exp,2022.2.2,Win32,59.95203837,,,,,,,,,,,,,,,,,,masks/mask_002.jpg,,,,,,,,,,,,,,,,,,,,,,,,,,,,,,,,,,,,,,,,,,,,,,,,0,4,4,1,1,,,,,,,,,,,,,,,,,,,,,,,,,,,,,,,,,,,,,,,,,
359269,001,2022-11-20_23h54.23.787,Info_measure_main_exp,2022.2.2,Win32,59.95203837,,,,,,,,,,,,,,,,,,,,,,,,,,,,,,6,1.167,1,,,,,,,,,,,,0,131,5,5,2250,2178,absent_patch/patch0002250.jpg,absent_patch/patch0002178.jpg,,,,,,,,,,,,,,,,,,,,0.093518519,0.034259259,1,0,0,response1disk,29,0.009259259,-0.008333333,1,0,0,center_square,0,28,28,48,1,,,,,,,,,,,,,,,,,,,,,,,
359269,001,2022-11-20_23h54.23.787,Info_measure_main_exp,2022.2.2,Win32,59.95203837,,,,,,,,,,,,,,,,,,masks/mask_002.jpg,,,,,,,,,,,,,,,,,,,,,,,,,,,,,,,,,,,,,,,,,,,0,0,0,1,1,,,,,,,,,,,,,,,,,,,,,,,,,,,,,,,,,,,,,,,,,,,,,,
359269,001,2022-11-20_23h54.23.787,Info_measure_main_exp,2022.2.2,Win32,59.95203837,,,,,,,,,,,,,,,,,,masks/mask_003.jpg,,,,,,,,,,,,,,,,,,,,,,,,,,,,,,,,,,,,,,,,,,,0,1,1,2,1,,,,,,,,,,,,,,,,,,,,,,,,,,,,,,,,,,,,,,,,,,,,,,
359269,001,2022-11-20_23h54.23.787,Info_measure_main_exp,2022.2.2,Win32,59.95203837,,,,,,,,,,,,,,,,,,masks/mask_004.jpg,,,,,,,,,,,,,,,,,,,,,,,,,,,,,,,,,,,,,,,,,,,0,2,2,3,1,,,,,,,,,,,,,,,,,,,,,,,,,,,,,,,,,,,,,,,,,,,,,,
359269,001,2022-11-20_23h54.23.787,Info_measure_main_exp,2022.2.2,Win32,59.95203837,,,,,,,,,,,,,,,,,,masks/mask_005.jpg,,,,,,,,,,,,,,,,,,,,,,,,,,,,,,,,,,,,,,,,,,,0,3,3,4,1,,,,,,,,,,,,,,,,,,,,,,,,,,,,,,,,,,,,,,,,,,,,,,
359269,001,2022-11-20_23h54.23.787,Info_measure_main_exp,2022.2.2,Win32,59.95203837,,,,,,,,,,,,,,,,,,masks/mask_001.jpg,,,,,,,,,,,,,,,,,,,,,,,,,,,,,,,,,,,,,,,,,,,0,4,4,0,1,,,,,,,,,,,,,,,,,,,,,,,,,,,,,,,,,,,,,,,,,,,,,,
359269,001,2022-11-20_23h54.23.787,Info_measure_main_exp,2022.2.2,Win32,59.95203837,,,,,,,,,,,,,,,,,,masks/mask_002.jpg,,,,,,,,,,,,,,,,,,,,,,,,,,,,,,,,,,,,,,,,,,,,,,,,0,0,0,1,1,,,,,,,,,,,,,,,,,,,,,,,,,,,,,,,,,,,,,,,,,
359269,001,2022-11-20_23h54.23.787,Info_measure_main_exp,2022.2.2,Win32,59.95203837,,,,,,,,,,,,,,,,,,masks/mask_004.jpg,,,,,,,,,,,,,,,,,,,,,,,,,,,,,,,,,,,,,,,,,,,,,,,,0,1,1,3,1,,,,,,,,,,,,,,,,,,,,,,,,,,,,,,,,,,,,,,,,,
359269,001,2022-11-20_23h54.23.787,Info_measure_main_exp,2022.2.2,Win32,59.95203837,,,,,,,,,,,,,,,,,,masks/mask_003.jpg,,,,,,,,,,,,,,,,,,,,,,,,,,,,,,,,,,,,,,,,,,,,,,,,0,2,2,2,1,,,,,,,,,,,,,,,,,,,,,,,,,,,,,,,,,,,,,,,,,
359269,001,2022-11-20_23h54.23.787,Info_measure_main_exp,2022.2.2,Win32,59.95203837,,,,,,,,,,,,,,,,,,masks/mask_001.jpg,,,,,,,,,,,,,,,,,,,,,,,,,,,,,,,,,,,,,,,,,,,,,,,,0,3,3,0,1,,,,,,,,,,,,,,,,,,,,,,,,,,,,,,,,,,,,,,,,,
359269,001,2022-11-20_23h54.23.787,Info_measure_main_exp,2022.2.2,Win32,59.95203837,,,,,,,,,,,,,,,,,,masks/mask_005.jpg,,,,,,,,,,,,,,,,,,,,,,,,,,,,,,,,,,,,,,,,,,,,,,,,0,4,4,4,1,,,,,,,,,,,,,,,,,,,,,,,,,,,,,,,,,,,,,,,,,
359269,001,2022-11-20_23h54.23.787,Info_measure_main_exp,2022.2.2,Win32,59.95203837,,,,,,,,,,,,,,,,,,,,,,,,,,,,,,6,3.369,1,,,,,,,,,,,,0,131,5,5,2178,2154,absent_patch/patch0002178.jpg,absent_patch/patch0002154.jpg,,,,,,,,,,,,,,,,,,,,0.114814815,0.061111111,1,0,0,response1disk,30,-0.00462963,-0.013888889,1,0,0,center_square,0,29,29,63,1,,,,,,,,,,,,,,,,,,,,,,,
359269,001,2022-11-20_23h54.23.787,Info_measure_main_exp,2022.2.2,Win32,59.95203837,,,,,,,,,,,,,,,,,,masks/mask_002.jpg,,,,,,,,,,,,,,,,,,,,,,,,,,,,,,,,,,,,,,,,,,,0,0,0,1,1,,,,,,,,,,,,,,,,,,,,,,,,,,,,,,,,,,,,,,,,,,,,,,
359269,001,2022-11-20_23h54.23.787,Info_measure_main_exp,2022.2.2,Win32,59.95203837,,,,,,,,,,,,,,,,,,masks/mask_005.jpg,,,,,,,,,,,,,,,,,,,,,,,,,,,,,,,,,,,,,,,,,,,0,1,1,4,1,,,,,,,,,,,,,,,,,,,,,,,,,,,,,,,,,,,,,,,,,,,,,,
359269,001,2022-11-20_23h54.23.787,Info_measure_main_exp,2022.2.2,Win32,59.95203837,,,,,,,,,,,,,,,,,,masks/mask_001.jpg,,,,,,,,,,,,,,,,,,,,,,,,,,,,,,,,,,,,,,,,,,,0,2,2,0,1,,,,,,,,,,,,,,,,,,,,,,,,,,,,,,,,,,,,,,,,,,,,,,
359269,001,2022-11-20_23h54.23.787,Info_measure_main_exp,2022.2.2,Win32,59.95203837,,,,,,,,,,,,,,,,,,masks/mask_003.jpg,,,,,,,,,,,,,,,,,,,,,,,,,,,,,,,,,,,,,,,,,,,0,3,3,2,1,,,,,,,,,,,,,,,,,,,,,,,,,,,,,,,,,,,,,,,,,,,,,,
359269,001,2022-11-20_23h54.23.787,Info_measure_main_exp,2022.2.2,Win32,59.95203837,,,,,,,,,,,,,,,,,,masks/mask_004.jpg,,,,,,,,,,,,,,,,,,,,,,,,,,,,,,,,,,,,,,,,,,,0,4,4,3,1,,,,,,,,,,,,,,,,,,,,,,,,,,,,,,,,,,,,,,,,,,,,,,
359269,001,2022-11-20_23h54.23.787,Info_measure_main_exp,2022.2.2,Win32,59.95203837,,,,,,,,,,,,,,,,,,masks/mask_002.jpg,,,,,,,,,,,,,,,,,,,,,,,,,,,,,,,,,,,,,,,,,,,,,,,,0,0,0,1,1,,,,,,,,,,,,,,,,,,,,,,,,,,,,,,,,,,,,,,,,,
359269,001,2022-11-20_23h54.23.787,Info_measure_main_exp,2022.2.2,Win32,59.95203837,,,,,,,,,,,,,,,,,,masks/mask_001.jpg,,,,,,,,,,,,,,,,,,,,,,,,,,,,,,,,,,,,,,,,,,,,,,,,0,1,1,0,1,,,,,,,,,,,,,,,,,,,,,,,,,,,,,,,,,,,,,,,,,
359269,001,2022-11-20_23h54.23.787,Info_measure_main_exp,2022.2.2,Win32,59.95203837,,,,,,,,,,,,,,,,,,masks/mask_004.jpg,,,,,,,,,,,,,,,,,,,,,,,,,,,,,,,,,,,,,,,,,,,,,,,,0,2,2,3,1,,,,,,,,,,,,,,,,,,,,,,,,,,,,,,,,,,,,,,,,,
359269,001,2022-11-20_23h54.23.787,Info_measure_main_exp,2022.2.2,Win32,59.95203837,,,,,,,,,,,,,,,,,,masks/mask_003.jpg,,,,,,,,,,,,,,,,,,,,,,,,,,,,,,,,,,,,,,,,,,,,,,,,0,3,3,2,1,,,,,,,,,,,,,,,,,,,,,,,,,,,,,,,,,,,,,,,,,
359269,001,2022-11-20_23h54.23.787,Info_measure_main_exp,2022.2.2,Win32,59.95203837,,,,,,,,,,,,,,,,,,masks/mask_005.jpg,,,,,,,,,,,,,,,,,,,,,,,,,,,,,,,,,,,,,,,,,,,,,,,,0,4,4,4,1,,,,,,,,,,,,,,,,,,,,,,,,,,,,,,,,,,,,,,,,,
359269,001,2022-11-20_23h54.23.787,Info_measure_main_exp,2022.2.2,Win32,59.95203837,,,,,,,,,,,,,,,,,,,,,,,,,,,,,,0,1,1,,,,,,,,,,,,0,131,5,5,2250,2250,absent_patch/patch0002250.jpg,absent_patch/patch0002250.jpg,,,,,,,,,,,,,,,,,,,,-0.05,0.141666667,1,0,0,response7disk,31,-0.003703704,0.010185185,1,0,0,center_square,0,30,30,56,1,,,,,,,,,,,,,,,,,,,,,,,
359269,001,2022-11-20_23h54.23.787,Info_measure_main_exp,2022.2.2,Win32,59.95203837,,,,,,,,,,,,,,,,,,masks/mask_001.jpg,,,,,,,,,,,,,,,,,,,,,,,,,,,,,,,,,,,,,,,,,,,0,0,0,0,1,,,,,,,,,,,,,,,,,,,,,,,,,,,,,,,,,,,,,,,,,,,,,,
359269,001,2022-11-20_23h54.23.787,Info_measure_main_exp,2022.2.2,Win32,59.95203837,,,,,,,,,,,,,,,,,,masks/mask_005.jpg,,,,,,,,,,,,,,,,,,,,,,,,,,,,,,,,,,,,,,,,,,,0,1,1,4,1,,,,,,,,,,,,,,,,,,,,,,,,,,,,,,,,,,,,,,,,,,,,,,
359269,001,2022-11-20_23h54.23.787,Info_measure_main_exp,2022.2.2,Win32,59.95203837,,,,,,,,,,,,,,,,,,masks/mask_003.jpg,,,,,,,,,,,,,,,,,,,,,,,,,,,,,,,,,,,,,,,,,,,0,2,2,2,1,,,,,,,,,,,,,,,,,,,,,,,,,,,,,,,,,,,,,,,,,,,,,,
359269,001,2022-11-20_23h54.23.787,Info_measure_main_exp,2022.2.2,Win32,59.95203837,,,,,,,,,,,,,,,,,,masks/mask_002.jpg,,,,,,,,,,,,,,,,,,,,,,,,,,,,,,,,,,,,,,,,,,,0,3,3,1,1,,,,,,,,,,,,,,,,,,,,,,,,,,,,,,,,,,,,,,,,,,,,,,
359269,001,2022-11-20_23h54.23.787,Info_measure_main_exp,2022.2.2,Win32,59.95203837,,,,,,,,,,,,,,,,,,masks/mask_004.jpg,,,,,,,,,,,,,,,,,,,,,,,,,,,,,,,,,,,,,,,,,,,0,4,4,3,1,,,,,,,,,,,,,,,,,,,,,,,,,,,,,,,,,,,,,,,,,,,,,,
359269,001,2022-11-20_23h54.23.787,Info_measure_main_exp,2022.2.2,Win32,59.95203837,,,,,,,,,,,,,,,,,,masks/mask_004.jpg,,,,,,,,,,,,,,,,,,,,,,,,,,,,,,,,,,,,,,,,,,,,,,,,0,0,0,3,1,,,,,,,,,,,,,,,,,,,,,,,,,,,,,,,,,,,,,,,,,
359269,001,2022-11-20_23h54.23.787,Info_measure_main_exp,2022.2.2,Win32,59.95203837,,,,,,,,,,,,,,,,,,masks/mask_005.jpg,,,,,,,,,,,,,,,,,,,,,,,,,,,,,,,,,,,,,,,,,,,,,,,,0,1,1,4,1,,,,,,,,,,,,,,,,,,,,,,,,,,,,,,,,,,,,,,,,,
359269,001,2022-11-20_23h54.23.787,Info_measure_main_exp,2022.2.2,Win32,59.95203837,,,,,,,,,,,,,,,,,,masks/mask_003.jpg,,,,,,,,,,,,,,,,,,,,,,,,,,,,,,,,,,,,,,,,,,,,,,,,0,2,2,2,1,,,,,,,,,,,,,,,,,,,,,,,,,,,,,,,,,,,,,,,,,
359269,001,2022-11-20_23h54.23.787,Info_measure_main_exp,2022.2.2,Win32,59.95203837,,,,,,,,,,,,,,,,,,masks/mask_002.jpg,,,,,,,,,,,,,,,,,,,,,,,,,,,,,,,,,,,,,,,,,,,,,,,,0,3,3,1,1,,,,,,,,,,,,,,,,,,,,,,,,,,,,,,,,,,,,,,,,,
359269,001,2022-11-20_23h54.23.787,Info_measure_main_exp,2022.2.2,Win32,59.95203837,,,,,,,,,,,,,,,,,,masks/mask_001.jpg,,,,,,,,,,,,,,,,,,,,,,,,,,,,,,,,,,,,,,,,,,,,,,,,0,4,4,0,1,,,,,,,,,,,,,,,,,,,,,,,,,,,,,,,,,,,,,,,,,
359269,001,2022-11-20_23h54.23.787,Info_measure_main_exp,2022.2.2,Win32,59.95203837,,,,,,,,,,,,,,,,,,,,,,,,,,,,,,4,1.818,1,,,,,,,,,,,,0,131,5,5,2142,2082,absent_patch/patch0002142.jpg,absent_patch/patch0002082.jpg,,,,,,,,,,,,,,,,,,,,0.025925926,-0.109259259,1,0,0,response3disk,32,0.007407407,-0.005555556,1,0,0,center_square,0,31,31,88,1,,,,,,,,,,,,,,,,,,,,,,,
359269,001,2022-11-20_23h54.23.787,Info_measure_main_exp,2022.2.2,Win32,59.95203837,,,,,,,,,,,,,,,,,,masks/mask_003.jpg,,,,,,,,,,,,,,,,,,,,,,,,,,,,,,,,,,,,,,,,,,,0,0,0,2,1,,,,,,,,,,,,,,,,,,,,,,,,,,,,,,,,,,,,,,,,,,,,,,
359269,001,2022-11-20_23h54.23.787,Info_measure_main_exp,2022.2.2,Win32,59.95203837,,,,,,,,,,,,,,,,,,masks/mask_004.jpg,,,,,,,,,,,,,,,,,,,,,,,,,,,,,,,,,,,,,,,,,,,0,1,1,3,1,,,,,,,,,,,,,,,,,,,,,,,,,,,,,,,,,,,,,,,,,,,,,,
359269,001,2022-11-20_23h54.23.787,Info_measure_main_exp,2022.2.2,Win32,59.95203837,,,,,,,,,,,,,,,,,,masks/mask_005.jpg,,,,,,,,,,,,,,,,,,,,,,,,,,,,,,,,,,,,,,,,,,,0,2,2,4,1,,,,,,,,,,,,,,,,,,,,,,,,,,,,,,,,,,,,,,,,,,,,,,
359269,001,2022-11-20_23h54.23.787,Info_measure_main_exp,2022.2.2,Win32,59.95203837,,,,,,,,,,,,,,,,,,masks/mask_002.jpg,,,,,,,,,,,,,,,,,,,,,,,,,,,,,,,,,,,,,,,,,,,0,3,3,1,1,,,,,,,,,,,,,,,,,,,,,,,,,,,,,,,,,,,,,,,,,,,,,,
359269,001,2022-11-20_23h54.23.787,Info_measure_main_exp,2022.2.2,Win32,59.95203837,,,,,,,,,,,,,,,,,,masks/mask_001.jpg,,,,,,,,,,,,,,,,,,,,,,,,,,,,,,,,,,,,,,,,,,,0,4,4,0,1,,,,,,,,,,,,,,,,,,,,,,,,,,,,,,,,,,,,,,,,,,,,,,
359269,001,2022-11-20_23h54.23.787,Info_measure_main_exp,2022.2.2,Win32,59.95203837,,,,,,,,,,,,,,,,,,masks/mask_004.jpg,,,,,,,,,,,,,,,,,,,,,,,,,,,,,,,,,,,,,,,,,,,,,,,,0,0,0,3,1,,,,,,,,,,,,,,,,,,,,,,,,,,,,,,,,,,,,,,,,,
359269,001,2022-11-20_23h54.23.787,Info_measure_main_exp,2022.2.2,Win32,59.95203837,,,,,,,,,,,,,,,,,,masks/mask_001.jpg,,,,,,,,,,,,,,,,,,,,,,,,,,,,,,,,,,,,,,,,,,,,,,,,0,1,1,0,1,,,,,,,,,,,,,,,,,,,,,,,,,,,,,,,,,,,,,,,,,
359269,001,2022-11-20_23h54.23.787,Info_measure_main_exp,2022.2.2,Win32,59.95203837,,,,,,,,,,,,,,,,,,masks/mask_003.jpg,,,,,,,,,,,,,,,,,,,,,,,,,,,,,,,,,,,,,,,,,,,,,,,,0,2,2,2,1,,,,,,,,,,,,,,,,,,,,,,,,,,,,,,,,,,,,,,,,,
359269,001,2022-11-20_23h54.23.787,Info_measure_main_exp,2022.2.2,Win32,59.95203837,,,,,,,,,,,,,,,,,,masks/mask_005.jpg,,,,,,,,,,,,,,,,,,,,,,,,,,,,,,,,,,,,,,,,,,,,,,,,0,3,3,4,1,,,,,,,,,,,,,,,,,,,,,,,,,,,,,,,,,,,,,,,,,
359269,001,2022-11-20_23h54.23.787,Info_measure_main_exp,2022.2.2,Win32,59.95203837,,,,,,,,,,,,,,,,,,masks/mask_002.jpg,,,,,,,,,,,,,,,,,,,,,,,,,,,,,,,,,,,,,,,,,,,,,,,,0,4,4,1,1,,,,,,,,,,,,,,,,,,,,,,,,,,,,,,,,,,,,,,,,,
359269,001,2022-11-20_23h54.23.787,Info_measure_main_exp,2022.2.2,Win32,59.95203837,,,,,,,,,,,,,,,,,,,,,,,,,,,,,,6,2.652,1,,,,,,,,,,,,0,131,5,5,2190,2082,absent_patch/patch0002190.jpg,absent_patch/patch0002082.jpg,,,,,,,,,,,,,,,,,,,,0.108333333,0.05,1,0,0,response1disk,33,0.001851852,0.005555556,1,0,0,center_square,0,32,32,112,1,,,,,,,,,,,,,,,,,,,,,,,
359269,001,2022-11-20_23h54.23.787,Info_measure_main_exp,2022.2.2,Win32,59.95203837,,,,,,,,,,,,,,,,,,masks/mask_001.jpg,,,,,,,,,,,,,,,,,,,,,,,,,,,,,,,,,,,,,,,,,,,0,0,0,0,1,,,,,,,,,,,,,,,,,,,,,,,,,,,,,,,,,,,,,,,,,,,,,,
359269,001,2022-11-20_23h54.23.787,Info_measure_main_exp,2022.2.2,Win32,59.95203837,,,,,,,,,,,,,,,,,,masks/mask_005.jpg,,,,,,,,,,,,,,,,,,,,,,,,,,,,,,,,,,,,,,,,,,,0,1,1,4,1,,,,,,,,,,,,,,,,,,,,,,,,,,,,,,,,,,,,,,,,,,,,,,
359269,001,2022-11-20_23h54.23.787,Info_measure_main_exp,2022.2.2,Win32,59.95203837,,,,,,,,,,,,,,,,,,masks/mask_002.jpg,,,,,,,,,,,,,,,,,,,,,,,,,,,,,,,,,,,,,,,,,,,0,2,2,1,1,,,,,,,,,,,,,,,,,,,,,,,,,,,,,,,,,,,,,,,,,,,,,,
359269,001,2022-11-20_23h54.23.787,Info_measure_main_exp,2022.2.2,Win32,59.95203837,,,,,,,,,,,,,,,,,,masks/mask_004.jpg,,,,,,,,,,,,,,,,,,,,,,,,,,,,,,,,,,,,,,,,,,,0,3,3,3,1,,,,,,,,,,,,,,,,,,,,,,,,,,,,,,,,,,,,,,,,,,,,,,
359269,001,2022-11-20_23h54.23.787,Info_measure_main_exp,2022.2.2,Win32,59.95203837,,,,,,,,,,,,,,,,,,masks/mask_003.jpg,,,,,,,,,,,,,,,,,,,,,,,,,,,,,,,,,,,,,,,,,,,0,4,4,2,1,,,,,,,,,,,,,,,,,,,,,,,,,,,,,,,,,,,,,,,,,,,,,,
359269,001,2022-11-20_23h54.23.787,Info_measure_main_exp,2022.2.2,Win32,59.95203837,,,,,,,,,,,,,,,,,,masks/mask_004.jpg,,,,,,,,,,,,,,,,,,,,,,,,,,,,,,,,,,,,,,,,,,,,,,,,0,0,0,3,1,,,,,,,,,,,,,,,,,,,,,,,,,,,,,,,,,,,,,,,,,
359269,001,2022-11-20_23h54.23.787,Info_measure_main_exp,2022.2.2,Win32,59.95203837,,,,,,,,,,,,,,,,,,masks/mask_001.jpg,,,,,,,,,,,,,,,,,,,,,,,,,,,,,,,,,,,,,,,,,,,,,,,,0,1,1,0,1,,,,,,,,,,,,,,,,,,,,,,,,,,,,,,,,,,,,,,,,,
359269,001,2022-11-20_23h54.23.787,Info_measure_main_exp,2022.2.2,Win32,59.95203837,,,,,,,,,,,,,,,,,,masks/mask_005.jpg,,,,,,,,,,,,,,,,,,,,,,,,,,,,,,,,,,,,,,,,,,,,,,,,0,2,2,4,1,,,,,,,,,,,,,,,,,,,,,,,,,,,,,,,,,,,,,,,,,
359269,001,2022-11-20_23h54.23.787,Info_measure_main_exp,2022.2.2,Win32,59.95203837,,,,,,,,,,,,,,,,,,masks/mask_002.jpg,,,,,,,,,,,,,,,,,,,,,,,,,,,,,,,,,,,,,,,,,,,,,,,,0,3,3,1,1,,,,,,,,,,,,,,,,,,,,,,,,,,,,,,,,,,,,,,,,,
359269,001,2022-11-20_23h54.23.787,Info_measure_main_exp,2022.2.2,Win32,59.95203837,,,,,,,,,,,,,,,,,,masks/mask_003.jpg,,,,,,,,,,,,,,,,,,,,,,,,,,,,,,,,,,,,,,,,,,,,,,,,0,4,4,2,1,,,,,,,,,,,,,,,,,,,,,,,,,,,,,,,,,,,,,,,,,
359269,001,2022-11-20_23h54.23.787,Info_measure_main_exp,2022.2.2,Win32,59.95203837,,,,,,,,,,,,,,,,,,,,,,,,,,,,,,5,1.084,1,,,,,,,,,,,,0,131,5,5,2298,2178,absent_patch/patch0002298.jpg,absent_patch/patch0002178.jpg,,,,,,,,,,,,,,,,,,,,0.076851852,-0.025,1,0,0,response3disk,34,-0.000925926,-0.003703704,1,0,0,center_square,0,33,33,84,1,,,,,,,,,,,,,,,,,,,,,,,
359269,001,2022-11-20_23h54.23.787,Info_measure_main_exp,2022.2.2,Win32,59.95203837,,,,,,,,,,,,,,,,,,masks/mask_005.jpg,,,,,,,,,,,,,,,,,,,,,,,,,,,,,,,,,,,,,,,,,,,0,0,0,4,1,,,,,,,,,,,,,,,,,,,,,,,,,,,,,,,,,,,,,,,,,,,,,,
359269,001,2022-11-20_23h54.23.787,Info_measure_main_exp,2022.2.2,Win32,59.95203837,,,,,,,,,,,,,,,,,,masks/mask_004.jpg,,,,,,,,,,,,,,,,,,,,,,,,,,,,,,,,,,,,,,,,,,,0,1,1,3,1,,,,,,,,,,,,,,,,,,,,,,,,,,,,,,,,,,,,,,,,,,,,,,
359269,001,2022-11-20_23h54.23.787,Info_measure_main_exp,2022.2.2,Win32,59.95203837,,,,,,,,,,,,,,,,,,masks/mask_003.jpg,,,,,,,,,,,,,,,,,,,,,,,,,,,,,,,,,,,,,,,,,,,0,2,2,2,1,,,,,,,,,,,,,,,,,,,,,,,,,,,,,,,,,,,,,,,,,,,,,,
359269,001,2022-11-20_23h54.23.787,Info_measure_main_exp,2022.2.2,Win32,59.95203837,,,,,,,,,,,,,,,,,,masks/mask_002.jpg,,,,,,,,,,,,,,,,,,,,,,,,,,,,,,,,,,,,,,,,,,,0,3,3,1,1,,,,,,,,,,,,,,,,,,,,,,,,,,,,,,,,,,,,,,,,,,,,,,
359269,001,2022-11-20_23h54.23.787,Info_measure_main_exp,2022.2.2,Win32,59.95203837,,,,,,,,,,,,,,,,,,masks/mask_001.jpg,,,,,,,,,,,,,,,,,,,,,,,,,,,,,,,,,,,,,,,,,,,0,4,4,0,1,,,,,,,,,,,,,,,,,,,,,,,,,,,,,,,,,,,,,,,,,,,,,,
359269,001,2022-11-20_23h54.23.787,Info_measure_main_exp,2022.2.2,Win32,59.95203837,,,,,,,,,,,,,,,,,,masks/mask_001.jpg,,,,,,,,,,,,,,,,,,,,,,,,,,,,,,,,,,,,,,,,,,,,,,,,0,0,0,0,1,,,,,,,,,,,,,,,,,,,,,,,,,,,,,,,,,,,,,,,,,
359269,001,2022-11-20_23h54.23.787,Info_measure_main_exp,2022.2.2,Win32,59.95203837,,,,,,,,,,,,,,,,,,masks/mask_002.jpg,,,,,,,,,,,,,,,,,,,,,,,,,,,,,,,,,,,,,,,,,,,,,,,,0,1,1,1,1,,,,,,,,,,,,,,,,,,,,,,,,,,,,,,,,,,,,,,,,,
359269,001,2022-11-20_23h54.23.787,Info_measure_main_exp,2022.2.2,Win32,59.95203837,,,,,,,,,,,,,,,,,,masks/mask_003.jpg,,,,,,,,,,,,,,,,,,,,,,,,,,,,,,,,,,,,,,,,,,,,,,,,0,2,2,2,1,,,,,,,,,,,,,,,,,,,,,,,,,,,,,,,,,,,,,,,,,
359269,001,2022-11-20_23h54.23.787,Info_measure_main_exp,2022.2.2,Win32,59.95203837,,,,,,,,,,,,,,,,,,masks/mask_004.jpg,,,,,,,,,,,,,,,,,,,,,,,,,,,,,,,,,,,,,,,,,,,,,,,,0,3,3,3,1,,,,,,,,,,,,,,,,,,,,,,,,,,,,,,,,,,,,,,,,,
