participant,session,date,expName,psychopyVersion,OS,frameRate,space_press_continue.keys,space_press_continue.rt,space_press_continue_2.keys,space_press_continue_2.rt,space_press_continue_3.keys,space_press_continue_3.rt,space_press_continue_4.keys,space_press_continue_4.rt,space_press_continue_5.keys,space_press_continue_5.rt,space_press_continue_6.keys,space_press_continue_6.rt,prac_mask_loop_1.thisRepN,prac_mask_loop_1.thisTrialN,prac_mask_loop_1.thisN,prac_mask_loop_1.thisIndex,prac_mask_loop_1.ran,mask_name,prac_mask_loop_2.thisRepN,prac_mask_loop_2.thisTrialN,prac_mask_loop_2.thisN,prac_mask_loop_2.thisIndex,prac_mask_loop_2.ran,mouse_2.x,mouse_2.y,mouse_2.leftButton,mouse_2.midButton,mouse_2.rightButton,mouse_2.clicked_name,similarity,response_time,Pass,mouse_12.x,mouse_12.y,mouse_12.leftButton,mouse_12.midButton,mouse_12.rightButton,mouse_12.clicked_name,prac_loop.thisRepN,prac_loop.thisTrialN,prac_loop.thisN,prac_loop.thisIndex,prac_loop.ran,Pair_type,Image_num,Patch_1_loc,Patch_2_loc,Patch_1_info,Patch_2_info,Patch_1_name,Patch_2_name,mouse_1.x,mouse_1.y,mouse_1.leftButton,mouse_1.midButton,mouse_1.rightButton,mouse_1.time,mouse_1.clicked_name,space_press_continue_7.keys,space_press_continue_7.rt,mask_loop.thisRepN,mask_loop.thisTrialN,mask_loop.thisN,mask_loop.thisIndex,mask_loop.ran,mask_loop_2.thisRepN,mask_loop_2.thisTrialN,mask_loop_2.thisN,mask_loop_2.thisIndex,mask_loop_2.ran,mouse.x,mouse.y,mouse.leftButton,mouse.midButton,mouse.rightButton,mouse.clicked_name,trialNumber,mouse_11.x,mouse_11.y,mouse_11.leftButton,mouse_11.midButton,mouse_11.rightButton,mouse_11.clicked_name,first_pass_loop.thisRepN,first_pass_loop.thisTrialN,first_pass_loop.thisN,first_pass_loop.thisIndex,first_pass_loop.ran,mask_loop_3.thisRepN,mask_loop_3.thisTrialN,mask_loop_3.thisN,mask_loop_3.thisIndex,mask_loop_3.ran,mask_loop_4.thisRepN,mask_loop_4.thisTrialN,mask_loop_4.thisN,mask_loop_4.thisIndex,mask_loop_4.ran,mouse_3.x,mouse_3.y,mouse_3.leftButton,mouse_3.midButton,mouse_3.rightButton,mouse_3.clicked_name,double_pass_loop.thisRepN,double_pass_loop.thisTrialN,double_pass_loop.thisN,double_pass_loop.thisIndex,double_pass_loop.ran,space_exit.keys,space_exit.rt
362256,001,2022-11-21_24h52.38.531,Info_measure_main_exp,2022.2.2,Win32,59.81934558,,,,,,,,,,,,,,,,,,,,,,,,,,,,,,,,,,,,,,,,,,,,,,,,,,,,,,,,,,,,,,,,,,,,,,,,,,,,,,,,,,,,,,,,,,,,,,,,,,,,,,,,,,,,,,,
362256,001,2022-11-21_24h52.38.531,Info_measure_main_exp,2022.2.2,Win32,59.81934558,,,,,,,,,,,,,,,,,,,,,,,,,,,,,,,,,,,,,,,,,,,,,,,,,,,,,,,,,,,,,,,,,,,,,,,,,,,,,,,,,,,,,,,,,,,,,,,,,,,,,,,,,,,,,,,
362256,001,2022-11-21_24h52.38.531,Info_measure_main_exp,2022.2.2,Win32,59.81934558,space,10.8305,,,,,,,,,,,,,,,,,,,,,,,,,,,,,,,,,,,,,,,,,,,,,,,,,,,,,,,,,,,,,,,,,,,,,,,,,,,,,,,,,,,,,,,,,,,,,,,,,,,,,,,,,,,,,
362256,001,2022-11-21_24h52.38.531,Info_measure_main_exp,2022.2.2,Win32,59.81934558,,,space,17.9962,,,,,,,,,,,,,,,,,,,,,,,,,,,,,,,,,,,,,,,,,,,,,,,,,,,,,,,,,,,,,,,,,,,,,,,,,,,,,,,,,,,,,,,,,,,,,,,,,,,,,,,,,,,
362256,001,2022-11-21_24h52.38.531,Info_measure_main_exp,2022.2.2,Win32,59.81934558,,,,,space,7.4961,,,,,,,,,,,,,,,,,,,,,,,,,,,,,,,,,,,,,,,,,,,,,,,,,,,,,,,,,,,,,,,,,,,,,,,,,,,,,,,,,,,,,,,,,,,,,,,,,,,,,,,,,
362256,001,2022-11-21_24h52.38.531,Info_measure_main_exp,2022.2.2,Win32,59.81934558,,,,,,,space,14.1853,,,,,,,,,,,,,,,,,,,,,,,,,,,,,,,,,,,,,,,,,,,,,,,,,,,,,,,,,,,,,,,,,,,,,,,,,,,,,,,,,,,,,,,,,,,,,,,,,,,,,,,
362256,001,2022-11-21_24h52.38.531,Info_measure_main_exp,2022.2.2,Win32,59.81934558,,,,,,,,,space,7.3553,,,,,,,,,,,,,,,,,,,,,,,,,,,,,,,,,,,,,,,,,,,,,,,,,,,,,,,,,,,,,,,,,,,,,,,,,,,,,,,,,,,,,,,,,,,,,,,,,,,,,
362256,001,2022-11-21_24h52.38.531,Info_measure_main_exp,2022.2.2,Win32,59.81934558,,,,,,,,,,,space,2.7125,,,,,,,,,,,,,,,,,,,,,,,,,,,,,,,,,,,,,,,,,,,,,,,,,,,,,,,,,,,,,,,,,,,,,,,,,,,,,,,,,,,,,,,,,,,,,,,,,,,
362256,001,2022-11-21_24h52.38.531,Info_measure_main_exp,2022.2.2,Win32,59.81934558,,,,,,,,,,,,,0,0,0,2,1,masks/mask_003.jpg,,,,,,,,,,,,,,,,,,,,,,,,,,,,,,,,,,,,,,,,,,,,,,,,,,,,,,,,,,,,,,,,,,,,,,,,,,,,,,,,,,,,,,,,,,,,,
362256,001,2022-11-21_24h52.38.531,Info_measure_main_exp,2022.2.2,Win32,59.81934558,,,,,,,,,,,,,0,1,1,3,1,masks/mask_004.jpg,,,,,,,,,,,,,,,,,,,,,,,,,,,,,,,,,,,,,,,,,,,,,,,,,,,,,,,,,,,,,,,,,,,,,,,,,,,,,,,,,,,,,,,,,,,,,
362256,001,2022-11-21_24h52.38.531,Info_measure_main_exp,2022.2.2,Win32,59.81934558,,,,,,,,,,,,,0,2,2,0,1,masks/mask_001.jpg,,,,,,,,,,,,,,,,,,,,,,,,,,,,,,,,,,,,,,,,,,,,,,,,,,,,,,,,,,,,,,,,,,,,,,,,,,,,,,,,,,,,,,,,,,,,,
362256,001,2022-11-21_24h52.38.531,Info_measure_main_exp,2022.2.2,Win32,59.81934558,,,,,,,,,,,,,0,3,3,4,1,masks/mask_005.jpg,,,,,,,,,,,,,,,,,,,,,,,,,,,,,,,,,,,,,,,,,,,,,,,,,,,,,,,,,,,,,,,,,,,,,,,,,,,,,,,,,,,,,,,,,,,,,
362256,001,2022-11-21_24h52.38.531,Info_measure_main_exp,2022.2.2,Win32,59.81934558,,,,,,,,,,,,,0,4,4,1,1,masks/mask_002.jpg,,,,,,,,,,,,,,,,,,,,,,,,,,,,,,,,,,,,,,,,,,,,,,,,,,,,,,,,,,,,,,,,,,,,,,,,,,,,,,,,,,,,,,,,,,,,,
362256,001,2022-11-21_24h52.38.531,Info_measure_main_exp,2022.2.2,Win32,59.81934558,,,,,,,,,,,,,,,,,,masks/mask_001.jpg,0,0,0,0,1,,,,,,,,,,,,,,,,,,,,,,,,,,,,,,,,,,,,,,,,,,,,,,,,,,,,,,,,,,,,,,,,,,,,,,,,,,,,,,,,,,,,,,,,
362256,001,2022-11-21_24h52.38.531,Info_measure_main_exp,2022.2.2,Win32,59.81934558,,,,,,,,,,,,,,,,,,masks/mask_005.jpg,0,1,1,4,1,,,,,,,,,,,,,,,,,,,,,,,,,,,,,,,,,,,,,,,,,,,,,,,,,,,,,,,,,,,,,,,,,,,,,,,,,,,,,,,,,,,,,,,,
362256,001,2022-11-21_24h52.38.531,Info_measure_main_exp,2022.2.2,Win32,59.81934558,,,,,,,,,,,,,,,,,,masks/mask_004.jpg,0,2,2,3,1,,,,,,,,,,,,,,,,,,,,,,,,,,,,,,,,,,,,,,,,,,,,,,,,,,,,,,,,,,,,,,,,,,,,,,,,,,,,,,,,,,,,,,,,
362256,001,2022-11-21_24h52.38.531,Info_measure_main_exp,2022.2.2,Win32,59.81934558,,,,,,,,,,,,,,,,,,masks/mask_003.jpg,0,3,3,2,1,,,,,,,,,,,,,,,,,,,,,,,,,,,,,,,,,,,,,,,,,,,,,,,,,,,,,,,,,,,,,,,,,,,,,,,,,,,,,,,,,,,,,,,,
362256,001,2022-11-21_24h52.38.531,Info_measure_main_exp,2022.2.2,Win32,59.81934558,,,,,,,,,,,,,,,,,,masks/mask_002.jpg,0,4,4,1,1,,,,,,,,,,,,,,,,,,,,,,,,,,,,,,,,,,,,,,,,,,,,,,,,,,,,,,,,,,,,,,,,,,,,,,,,,,,,,,,,,,,,,,,,
362256,001,2022-11-21_24h52.38.531,Info_measure_main_exp,2022.2.2,Win32,59.81934558,,,,,,,,,,,,,,,,,,,,,,,,0.183109164,0.044469346,1,0,0,response1disk,6,66.1961,1,-0.002989491,0.000373669,1,0,0,center_square,0,0,0,0,1,0,131,5,5,2370,2406,prac_patch/patch0002370.jpg,prac_patch/patch0002406.jpg,,,,,,,,,,,,,,,,,,,,,,,,,,,,,,,,,,,,,,,,,,,,,,,,,,,,,,,,,,,,
362256,001,2022-11-21_24h52.38.531,Info_measure_main_exp,2022.2.2,Win32,59.81934558,,,,,,,,,,,,,0,0,0,1,1,masks/mask_002.jpg,,,,,,,,,,,,,,,,,,,,,,,,,,,,,,,,,,,,,,,,,,,,,,,,,,,,,,,,,,,,,,,,,,,,,,,,,,,,,,,,,,,,,,,,,,,,,
362256,001,2022-11-21_24h52.38.531,Info_measure_main_exp,2022.2.2,Win32,59.81934558,,,,,,,,,,,,,0,1,1,4,1,masks/mask_005.jpg,,,,,,,,,,,,,,,,,,,,,,,,,,,,,,,,,,,,,,,,,,,,,,,,,,,,,,,,,,,,,,,,,,,,,,,,,,,,,,,,,,,,,,,,,,,,,
362256,001,2022-11-21_24h52.38.531,Info_measure_main_exp,2022.2.2,Win32,59.81934558,,,,,,,,,,,,,0,2,2,2,1,masks/mask_003.jpg,,,,,,,,,,,,,,,,,,,,,,,,,,,,,,,,,,,,,,,,,,,,,,,,,,,,,,,,,,,,,,,,,,,,,,,,,,,,,,,,,,,,,,,,,,,,,
362256,001,2022-11-21_24h52.38.531,Info_measure_main_exp,2022.2.2,Win32,59.81934558,,,,,,,,,,,,,0,3,3,0,1,masks/mask_001.jpg,,,,,,,,,,,,,,,,,,,,,,,,,,,,,,,,,,,,,,,,,,,,,,,,,,,,,,,,,,,,,,,,,,,,,,,,,,,,,,,,,,,,,,,,,,,,,
362256,001,2022-11-21_24h52.38.531,Info_measure_main_exp,2022.2.2,Win32,59.81934558,,,,,,,,,,,,,0,4,4,3,1,masks/mask_004.jpg,,,,,,,,,,,,,,,,,,,,,,,,,,,,,,,,,,,,,,,,,,,,,,,,,,,,,,,,,,,,,,,,,,,,,,,,,,,,,,,,,,,,,,,,,,,,,
362256,001,2022-11-21_24h52.38.531,Info_measure_main_exp,2022.2.2,Win32,59.81934558,,,,,,,,,,,,,,,,,,masks/mask_001.jpg,0,0,0,0,1,,,,,,,,,,,,,,,,,,,,,,,,,,,,,,,,,,,,,,,,,,,,,,,,,,,,,,,,,,,,,,,,,,,,,,,,,,,,,,,,,,,,,,,,
362256,001,2022-11-21_24h52.38.531,Info_measure_main_exp,2022.2.2,Win32,59.81934558,,,,,,,,,,,,,,,,,,masks/mask_002.jpg,0,1,1,1,1,,,,,,,,,,,,,,,,,,,,,,,,,,,,,,,,,,,,,,,,,,,,,,,,,,,,,,,,,,,,,,,,,,,,,,,,,,,,,,,,,,,,,,,,
362256,001,2022-11-21_24h52.38.531,Info_measure_main_exp,2022.2.2,Win32,59.81934558,,,,,,,,,,,,,,,,,,masks/mask_004.jpg,0,2,2,3,1,,,,,,,,,,,,,,,,,,,,,,,,,,,,,,,,,,,,,,,,,,,,,,,,,,,,,,,,,,,,,,,,,,,,,,,,,,,,,,,,,,,,,,,,
362256,001,2022-11-21_24h52.38.531,Info_measure_main_exp,2022.2.2,Win32,59.81934558,,,,,,,,,,,,,,,,,,masks/mask_003.jpg,0,3,3,2,1,,,,,,,,,,,,,,,,,,,,,,,,,,,,,,,,,,,,,,,,,,,,,,,,,,,,,,,,,,,,,,,,,,,,,,,,,,,,,,,,,,,,,,,,
362256,001,2022-11-21_24h52.38.531,Info_measure_main_exp,2022.2.2,Win32,59.81934558,,,,,,,,,,,,,,,,,,masks/mask_005.jpg,0,4,4,4,1,,,,,,,,,,,,,,,,,,,,,,,,,,,,,,,,,,,,,,,,,,,,,,,,,,,,,,,,,,,,,,,,,,,,,,,,,,,,,,,,,,,,,,,,
362256,001,2022-11-21_24h52.38.531,Info_measure_main_exp,2022.2.2,Win32,59.81934558,,,,,,,,,,,,,,,,,,,,,,,,-0.106875911,-0.143871496,1,0,0,response5disk,3,78.4168,1,-0.001494746,-0.0115845,1,0,0,center_square,0,1,1,1,1,0,131,5,5,2514,2490,prac_patch/patch0002514.jpg,prac_patch/patch0002490.jpg,,,,,,,,,,,,,,,,,,,,,,,,,,,,,,,,,,,,,,,,,,,,,,,,,,,,,,,,,,,,
362256,001,2022-11-21_24h52.38.531,Info_measure_main_exp,2022.2.2,Win32,59.81934558,,,,,,,,,,,,,0,0,0,4,1,masks/mask_005.jpg,,,,,,,,,,,,,,,,,,,,,,,,,,,,,,,,,,,,,,,,,,,,,,,,,,,,,,,,,,,,,,,,,,,,,,,,,,,,,,,,,,,,,,,,,,,,,
362256,001,2022-11-21_24h52.38.531,Info_measure_main_exp,2022.2.2,Win32,59.81934558,,,,,,,,,,,,,0,1,1,0,1,masks/mask_001.jpg,,,,,,,,,,,,,,,,,,,,,,,,,,,,,,,,,,,,,,,,,,,,,,,,,,,,,,,,,,,,,,,,,,,,,,,,,,,,,,,,,,,,,,,,,,,,,
362256,001,2022-11-21_24h52.38.531,Info_measure_main_exp,2022.2.2,Win32,59.81934558,,,,,,,,,,,,,0,2,2,1,1,masks/mask_002.jpg,,,,,,,,,,,,,,,,,,,,,,,,,,,,,,,,,,,,,,,,,,,,,,,,,,,,,,,,,,,,,,,,,,,,,,,,,,,,,,,,,,,,,,,,,,,,,
362256,001,2022-11-21_24h52.38.531,Info_measure_main_exp,2022.2.2,Win32,59.81934558,,,,,,,,,,,,,0,3,3,2,1,masks/mask_003.jpg,,,,,,,,,,,,,,,,,,,,,,,,,,,,,,,,,,,,,,,,,,,,,,,,,,,,,,,,,,,,,,,,,,,,,,,,,,,,,,,,,,,,,,,,,,,,,
362256,001,2022-11-21_24h52.38.531,Info_measure_main_exp,2022.2.2,Win32,59.81934558,,,,,,,,,,,,,0,4,4,3,1,masks/mask_004.jpg,,,,,,,,,,,,,,,,,,,,,,,,,,,,,,,,,,,,,,,,,,,,,,,,,,,,,,,,,,,,,,,,,,,,,,,,,,,,,,,,,,,,,,,,,,,,,
362256,001,2022-11-21_24h52.38.531,Info_measure_main_exp,2022.2.2,Win32,59.81934558,,,,,,,,,,,,,,,,,,masks/mask_004.jpg,0,0,0,3,1,,,,,,,,,,,,,,,,,,,,,,,,,,,,,,,,,,,,,,,,,,,,,,,,,,,,,,,,,,,,,,,,,,,,,,,,,,,,,,,,,,,,,,,,
362256,001,2022-11-21_24h52.38.531,Info_measure_main_exp,2022.2.2,Win32,59.81934558,,,,,,,,,,,,,,,,,,masks/mask_005.jpg,0,1,1,4,1,,,,,,,,,,,,,,,,,,,,,,,,,,,,,,,,,,,,,,,,,,,,,,,,,,,,,,,,,,,,,,,,,,,,,,,,,,,,,,,,,,,,,,,,
362256,001,2022-11-21_24h52.38.531,Info_measure_main_exp,2022.2.2,Win32,59.81934558,,,,,,,,,,,,,,,,,,masks/mask_001.jpg,0,2,2,0,1,,,,,,,,,,,,,,,,,,,,,,,,,,,,,,,,,,,,,,,,,,,,,,,,,,,,,,,,,,,,,,,,,,,,,,,,,,,,,,,,,,,,,,,,
362256,001,2022-11-21_24h52.38.531,Info_measure_main_exp,2022.2.2,Win32,59.81934558,,,,,,,,,,,,,,,,,,masks/mask_002.jpg,0,3,3,1,1,,,,,,,,,,,,,,,,,,,,,,,,,,,,,,,,,,,,,,,,,,,,,,,,,,,,,,,,,,,,,,,,,,,,,,,,,,,,,,,,,,,,,,,,
362256,001,2022-11-21_24h52.38.531,Info_measure_main_exp,2022.2.2,Win32,59.81934558,,,,,,,,,,,,,,,,,,masks/mask_003.jpg,0,4,4,2,1,,,,,,,,,,,,,,,,,,,,,,,,,,,,,,,,,,,,,,,,,,,,,,,,,,,,,,,,,,,,,,,,,,,,,,,,,,,,,,,,,,,,,,,,
362256,001,2022-11-21_24h52.38.531,Info_measure_main_exp,2022.2.2,Win32,59.81934558,,,,,,,,,,,,,,,,,,,,,,,,-0.062780269,0.176756341,1,0,0,response7disk,0,88.5841,1,-0.000747339,-0.006352788,1,0,0,center_square,0,2,2,2,1,0,131,5,5,2526,2526,prac_patch/patch0002526.jpg,prac_patch/patch0002526.jpg,,,,,,,,,,,,,,,,,,,,,,,,,,,,,,,,,,,,,,,,,,,,,,,,,,,,,,,,,,,,
362256,001,2022-11-21_24h52.38.531,Info_measure_main_exp,2022.2.2,Win32,59.81934558,,,,,,,,,,,,,,,,,,,,,,,,,,,,,,,,,,,,,,,,,,,,,,,,,,,,,,,,,,,space,1.5352,,,,,,,,,,,,,,,,,,,,,,,,,,,,,,,,,,,,,,,,,,,,,,,,,,,
362256,001,2022-11-21_24h52.38.531,Info_measure_main_exp,2022.2.2,Win32,59.81934558,,,,,,,,,,,,,,,,,,masks/mask_002.jpg,,,,,,,,,,,,,,,,,,,,,,,,,,,,,,,,,,,,,,,,,,,0,0,0,1,1,,,,,,,,,,,,,,,,,,,,,,,,,,,,,,,,,,,,,,,,,,,,,,
362256,001,2022-11-21_24h52.38.531,Info_measure_main_exp,2022.2.2,Win32,59.81934558,,,,,,,,,,,,,,,,,,masks/mask_005.jpg,,,,,,,,,,,,,,,,,,,,,,,,,,,,,,,,,,,,,,,,,,,0,1,1,4,1,,,,,,,,,,,,,,,,,,,,,,,,,,,,,,,,,,,,,,,,,,,,,,
362256,001,2022-11-21_24h52.38.531,Info_measure_main_exp,2022.2.2,Win32,59.81934558,,,,,,,,,,,,,,,,,,masks/mask_003.jpg,,,,,,,,,,,,,,,,,,,,,,,,,,,,,,,,,,,,,,,,,,,0,2,2,2,1,,,,,,,,,,,,,,,,,,,,,,,,,,,,,,,,,,,,,,,,,,,,,,
362256,001,2022-11-21_24h52.38.531,Info_measure_main_exp,2022.2.2,Win32,59.81934558,,,,,,,,,,,,,,,,,,masks/mask_004.jpg,,,,,,,,,,,,,,,,,,,,,,,,,,,,,,,,,,,,,,,,,,,0,3,3,3,1,,,,,,,,,,,,,,,,,,,,,,,,,,,,,,,,,,,,,,,,,,,,,,
362256,001,2022-11-21_24h52.38.531,Info_measure_main_exp,2022.2.2,Win32,59.81934558,,,,,,,,,,,,,,,,,,masks/mask_001.jpg,,,,,,,,,,,,,,,,,,,,,,,,,,,,,,,,,,,,,,,,,,,0,4,4,0,1,,,,,,,,,,,,,,,,,,,,,,,,,,,,,,,,,,,,,,,,,,,,,,
362256,001,2022-11-21_24h52.38.531,Info_measure_main_exp,2022.2.2,Win32,59.81934558,,,,,,,,,,,,,,,,,,masks/mask_002.jpg,,,,,,,,,,,,,,,,,,,,,,,,,,,,,,,,,,,,,,,,,,,,,,,,0,0,0,1,1,,,,,,,,,,,,,,,,,,,,,,,,,,,,,,,,,,,,,,,,,
362256,001,2022-11-21_24h52.38.531,Info_measure_main_exp,2022.2.2,Win32,59.81934558,,,,,,,,,,,,,,,,,,masks/mask_001.jpg,,,,,,,,,,,,,,,,,,,,,,,,,,,,,,,,,,,,,,,,,,,,,,,,0,1,1,0,1,,,,,,,,,,,,,,,,,,,,,,,,,,,,,,,,,,,,,,,,,
362256,001,2022-11-21_24h52.38.531,Info_measure_main_exp,2022.2.2,Win32,59.81934558,,,,,,,,,,,,,,,,,,masks/mask_005.jpg,,,,,,,,,,,,,,,,,,,,,,,,,,,,,,,,,,,,,,,,,,,,,,,,0,2,2,4,1,,,,,,,,,,,,,,,,,,,,,,,,,,,,,,,,,,,,,,,,,
362256,001,2022-11-21_24h52.38.531,Info_measure_main_exp,2022.2.2,Win32,59.81934558,,,,,,,,,,,,,,,,,,masks/mask_004.jpg,,,,,,,,,,,,,,,,,,,,,,,,,,,,,,,,,,,,,,,,,,,,,,,,0,3,3,3,1,,,,,,,,,,,,,,,,,,,,,,,,,,,,,,,,,,,,,,,,,
362256,001,2022-11-21_24h52.38.531,Info_measure_main_exp,2022.2.2,Win32,59.81934558,,,,,,,,,,,,,,,,,,masks/mask_003.jpg,,,,,,,,,,,,,,,,,,,,,,,,,,,,,,,,,,,,,,,,,,,,,,,,0,4,4,2,1,,,,,,,,,,,,,,,,,,,,,,,,,,,,,,,,,,,,,,,,,
362256,001,2022-11-21_24h52.38.531,Info_measure_main_exp,2022.2.2,Win32,59.81934558,,,,,,,,,,,,,,,,,,,,,,,,,,,,,,6,1.7681,1,,,,,,,,,,,,0,131,5,5,1950,2214,absent_patch/patch0001950.jpg,absent_patch/patch0002214.jpg,,,,,,,,,,,,,,,,,,,,0.196562079,0.020553041,1,0,0,response1disk,1,-0.002242152,0.000373669,1,0,0,center_square,0,0,0,85,1,,,,,,,,,,,,,,,,,,,,,,,
362256,001,2022-11-21_24h52.38.531,Info_measure_main_exp,2022.2.2,Win32,59.81934558,,,,,,,,,,,,,,,,,,masks/mask_004.jpg,,,,,,,,,,,,,,,,,,,,,,,,,,,,,,,,,,,,,,,,,,,0,0,0,3,1,,,,,,,,,,,,,,,,,,,,,,,,,,,,,,,,,,,,,,,,,,,,,,
362256,001,2022-11-21_24h52.38.531,Info_measure_main_exp,2022.2.2,Win32,59.81934558,,,,,,,,,,,,,,,,,,masks/mask_003.jpg,,,,,,,,,,,,,,,,,,,,,,,,,,,,,,,,,,,,,,,,,,,0,1,1,2,1,,,,,,,,,,,,,,,,,,,,,,,,,,,,,,,,,,,,,,,,,,,,,,
362256,001,2022-11-21_24h52.38.531,Info_measure_main_exp,2022.2.2,Win32,59.81934558,,,,,,,,,,,,,,,,,,masks/mask_002.jpg,,,,,,,,,,,,,,,,,,,,,,,,,,,,,,,,,,,,,,,,,,,0,2,2,1,1,,,,,,,,,,,,,,,,,,,,,,,,,,,,,,,,,,,,,,,,,,,,,,
362256,001,2022-11-21_24h52.38.531,Info_measure_main_exp,2022.2.2,Win32,59.81934558,,,,,,,,,,,,,,,,,,masks/mask_001.jpg,,,,,,,,,,,,,,,,,,,,,,,,,,,,,,,,,,,,,,,,,,,0,3,3,0,1,,,,,,,,,,,,,,,,,,,,,,,,,,,,,,,,,,,,,,,,,,,,,,
362256,001,2022-11-21_24h52.38.531,Info_measure_main_exp,2022.2.2,Win32,59.81934558,,,,,,,,,,,,,,,,,,masks/mask_005.jpg,,,,,,,,,,,,,,,,,,,,,,,,,,,,,,,,,,,,,,,,,,,0,4,4,4,1,,,,,,,,,,,,,,,,,,,,,,,,,,,,,,,,,,,,,,,,,,,,,,
362256,001,2022-11-21_24h52.38.531,Info_measure_main_exp,2022.2.2,Win32,59.81934558,,,,,,,,,,,,,,,,,,masks/mask_005.jpg,,,,,,,,,,,,,,,,,,,,,,,,,,,,,,,,,,,,,,,,,,,,,,,,0,0,0,4,1,,,,,,,,,,,,,,,,,,,,,,,,,,,,,,,,,,,,,,,,,
362256,001,2022-11-21_24h52.38.531,Info_measure_main_exp,2022.2.2,Win32,59.81934558,,,,,,,,,,,,,,,,,,masks/mask_002.jpg,,,,,,,,,,,,,,,,,,,,,,,,,,,,,,,,,,,,,,,,,,,,,,,,0,1,1,1,1,,,,,,,,,,,,,,,,,,,,,,,,,,,,,,,,,,,,,,,,,
362256,001,2022-11-21_24h52.38.531,Info_measure_main_exp,2022.2.2,Win32,59.81934558,,,,,,,,,,,,,,,,,,masks/mask_003.jpg,,,,,,,,,,,,,,,,,,,,,,,,,,,,,,,,,,,,,,,,,,,,,,,,0,2,2,2,1,,,,,,,,,,,,,,,,,,,,,,,,,,,,,,,,,,,,,,,,,
362256,001,2022-11-21_24h52.38.531,Info_measure_main_exp,2022.2.2,Win32,59.81934558,,,,,,,,,,,,,,,,,,masks/mask_004.jpg,,,,,,,,,,,,,,,,,,,,,,,,,,,,,,,,,,,,,,,,,,,,,,,,0,3,3,3,1,,,,,,,,,,,,,,,,,,,,,,,,,,,,,,,,,,,,,,,,,
362256,001,2022-11-21_24h52.38.531,Info_measure_main_exp,2022.2.2,Win32,59.81934558,,,,,,,,,,,,,,,,,,masks/mask_001.jpg,,,,,,,,,,,,,,,,,,,,,,,,,,,,,,,,,,,,,,,,,,,,,,,,0,4,4,0,1,,,,,,,,,,,,,,,,,,,,,,,,,,,,,,,,,,,,,,,,,
362256,001,2022-11-21_24h52.38.531,Info_measure_main_exp,2022.2.2,Win32,59.81934558,,,,,,,,,,,,,,,,,,,,,,,,,,,,,,4,2.152,1,,,,,,,,,,,,0,131,5,5,2298,2142,absent_patch/patch0002298.jpg,absent_patch/patch0002142.jpg,,,,,,,,,,,,,,,,,,,,0.032137541,-0.107997056,1,0,0,response3disk,2,0.00896861,0.003363229,1,0,0,center_square,0,1,1,49,1,,,,,,,,,,,,,,,,,,,,,,,
362256,001,2022-11-21_24h52.38.531,Info_measure_main_exp,2022.2.2,Win32,59.81934558,,,,,,,,,,,,,,,,,,masks/mask_001.jpg,,,,,,,,,,,,,,,,,,,,,,,,,,,,,,,,,,,,,,,,,,,0,0,0,0,1,,,,,,,,,,,,,,,,,,,,,,,,,,,,,,,,,,,,,,,,,,,,,,
362256,001,2022-11-21_24h52.38.531,Info_measure_main_exp,2022.2.2,Win32,59.81934558,,,,,,,,,,,,,,,,,,masks/mask_003.jpg,,,,,,,,,,,,,,,,,,,,,,,,,,,,,,,,,,,,,,,,,,,0,1,1,2,1,,,,,,,,,,,,,,,,,,,,,,,,,,,,,,,,,,,,,,,,,,,,,,
362256,001,2022-11-21_24h52.38.531,Info_measure_main_exp,2022.2.2,Win32,59.81934558,,,,,,,,,,,,,,,,,,masks/mask_005.jpg,,,,,,,,,,,,,,,,,,,,,,,,,,,,,,,,,,,,,,,,,,,0,2,2,4,1,,,,,,,,,,,,,,,,,,,,,,,,,,,,,,,,,,,,,,,,,,,,,,
362256,001,2022-11-21_24h52.38.531,Info_measure_main_exp,2022.2.2,Win32,59.81934558,,,,,,,,,,,,,,,,,,masks/mask_002.jpg,,,,,,,,,,,,,,,,,,,,,,,,,,,,,,,,,,,,,,,,,,,0,3,3,1,1,,,,,,,,,,,,,,,,,,,,,,,,,,,,,,,,,,,,,,,,,,,,,,
362256,001,2022-11-21_24h52.38.531,Info_measure_main_exp,2022.2.2,Win32,59.81934558,,,,,,,,,,,,,,,,,,masks/mask_004.jpg,,,,,,,,,,,,,,,,,,,,,,,,,,,,,,,,,,,,,,,,,,,0,4,4,3,1,,,,,,,,,,,,,,,,,,,,,,,,,,,,,,,,,,,,,,,,,,,,,,
362256,001,2022-11-21_24h52.38.531,Info_measure_main_exp,2022.2.2,Win32,59.81934558,,,,,,,,,,,,,,,,,,masks/mask_001.jpg,,,,,,,,,,,,,,,,,,,,,,,,,,,,,,,,,,,,,,,,,,,,,,,,0,0,0,0,1,,,,,,,,,,,,,,,,,,,,,,,,,,,,,,,,,,,,,,,,,
362256,001,2022-11-21_24h52.38.531,Info_measure_main_exp,2022.2.2,Win32,59.81934558,,,,,,,,,,,,,,,,,,masks/mask_002.jpg,,,,,,,,,,,,,,,,,,,,,,,,,,,,,,,,,,,,,,,,,,,,,,,,0,1,1,1,1,,,,,,,,,,,,,,,,,,,,,,,,,,,,,,,,,,,,,,,,,
362256,001,2022-11-21_24h52.38.531,Info_measure_main_exp,2022.2.2,Win32,59.81934558,,,,,,,,,,,,,,,,,,masks/mask_004.jpg,,,,,,,,,,,,,,,,,,,,,,,,,,,,,,,,,,,,,,,,,,,,,,,,0,2,2,3,1,,,,,,,,,,,,,,,,,,,,,,,,,,,,,,,,,,,,,,,,,
362256,001,2022-11-21_24h52.38.531,Info_measure_main_exp,2022.2.2,Win32,59.81934558,,,,,,,,,,,,,,,,,,masks/mask_003.jpg,,,,,,,,,,,,,,,,,,,,,,,,,,,,,,,,,,,,,,,,,,,,,,,,0,3,3,2,1,,,,,,,,,,,,,,,,,,,,,,,,,,,,,,,,,,,,,,,,,
362256,001,2022-11-21_24h52.38.531,Info_measure_main_exp,2022.2.2,Win32,59.81934558,,,,,,,,,,,,,,,,,,masks/mask_005.jpg,,,,,,,,,,,,,,,,,,,,,,,,,,,,,,,,,,,,,,,,,,,,,,,,0,4,4,4,1,,,,,,,,,,,,,,,,,,,,,,,,,,,,,,,,,,,,,,,,,
362256,001,2022-11-21_24h52.38.531,Info_measure_main_exp,2022.2.2,Win32,59.81934558,,,,,,,,,,,,,,,,,,,,,,,,,,,,,,6,1.7001,1,,,,,,,,,,,,0,131,5,5,1974,2238,absent_patch/patch0001974.jpg,absent_patch/patch0002238.jpg,,,,,,,,,,,,,,,,,,,,0.141255605,0.075112108,1,0,0,response1disk,3,0.005231712,-0.006352788,1,0,0,center_square,0,2,2,95,1,,,,,,,,,,,,,,,,,,,,,,,
362256,001,2022-11-21_24h52.38.531,Info_measure_main_exp,2022.2.2,Win32,59.81934558,,,,,,,,,,,,,,,,,,masks/mask_003.jpg,,,,,,,,,,,,,,,,,,,,,,,,,,,,,,,,,,,,,,,,,,,0,0,0,2,1,,,,,,,,,,,,,,,,,,,,,,,,,,,,,,,,,,,,,,,,,,,,,,
362256,001,2022-11-21_24h52.38.531,Info_measure_main_exp,2022.2.2,Win32,59.81934558,,,,,,,,,,,,,,,,,,masks/mask_002.jpg,,,,,,,,,,,,,,,,,,,,,,,,,,,,,,,,,,,,,,,,,,,0,1,1,1,1,,,,,,,,,,,,,,,,,,,,,,,,,,,,,,,,,,,,,,,,,,,,,,
362256,001,2022-11-21_24h52.38.531,Info_measure_main_exp,2022.2.2,Win32,59.81934558,,,,,,,,,,,,,,,,,,masks/mask_004.jpg,,,,,,,,,,,,,,,,,,,,,,,,,,,,,,,,,,,,,,,,,,,0,2,2,3,1,,,,,,,,,,,,,,,,,,,,,,,,,,,,,,,,,,,,,,,,,,,,,,
362256,001,2022-11-21_24h52.38.531,Info_measure_main_exp,2022.2.2,Win32,59.81934558,,,,,,,,,,,,,,,,,,masks/mask_005.jpg,,,,,,,,,,,,,,,,,,,,,,,,,,,,,,,,,,,,,,,,,,,0,3,3,4,1,,,,,,,,,,,,,,,,,,,,,,,,,,,,,,,,,,,,,,,,,,,,,,
362256,001,2022-11-21_24h52.38.531,Info_measure_main_exp,2022.2.2,Win32,59.81934558,,,,,,,,,,,,,,,,,,masks/mask_001.jpg,,,,,,,,,,,,,,,,,,,,,,,,,,,,,,,,,,,,,,,,,,,0,4,4,0,1,,,,,,,,,,,,,,,,,,,,,,,,,,,,,,,,,,,,,,,,,,,,,,
362256,001,2022-11-21_24h52.38.531,Info_measure_main_exp,2022.2.2,Win32,59.81934558,,,,,,,,,,,,,,,,,,masks/mask_004.jpg,,,,,,,,,,,,,,,,,,,,,,,,,,,,,,,,,,,,,,,,,,,,,,,,0,0,0,3,1,,,,,,,,,,,,,,,,,,,,,,,,,,,,,,,,,,,,,,,,,
362256,001,2022-11-21_24h52.38.531,Info_measure_main_exp,2022.2.2,Win32,59.81934558,,,,,,,,,,,,,,,,,,masks/mask_001.jpg,,,,,,,,,,,,,,,,,,,,,,,,,,,,,,,,,,,,,,,,,,,,,,,,0,1,1,0,1,,,,,,,,,,,,,,,,,,,,,,,,,,,,,,,,,,,,,,,,,
362256,001,2022-11-21_24h52.38.531,Info_measure_main_exp,2022.2.2,Win32,59.81934558,,,,,,,,,,,,,,,,,,masks/mask_005.jpg,,,,,,,,,,,,,,,,,,,,,,,,,,,,,,,,,,,,,,,,,,,,,,,,0,2,2,4,1,,,,,,,,,,,,,,,,,,,,,,,,,,,,,,,,,,,,,,,,,
362256,001,2022-11-21_24h52.38.531,Info_measure_main_exp,2022.2.2,Win32,59.81934558,,,,,,,,,,,,,,,,,,masks/mask_002.jpg,,,,,,,,,,,,,,,,,,,,,,,,,,,,,,,,,,,,,,,,,,,,,,,,0,3,3,1,1,,,,,,,,,,,,,,,,,,,,,,,,,,,,,,,,,,,,,,,,,
362256,001,2022-11-21_24h52.38.531,Info_measure_main_exp,2022.2.2,Win32,59.81934558,,,,,,,,,,,,,,,,,,masks/mask_003.jpg,,,,,,,,,,,,,,,,,,,,,,,,,,,,,,,,,,,,,,,,,,,,,,,,0,4,4,2,1,,,,,,,,,,,,,,,,,,,,,,,,,,,,,,,,,,,,,,,,,
362256,001,2022-11-21_24h52.38.531,Info_measure_main_exp,2022.2.2,Win32,59.81934558,,,,,,,,,,,,,,,,,,,,,,,,,,,,,,7,1.019,1,,,,,,,,,,,,1,131,5,5,2298,1,absent_patch/patch0002298.jpg,present_patch/cong_131_5_a.jpg,,,,,,,,,,,,,,,,,,,,0.073991031,0.169282511,1,0,0,response1disk,4,0.004484305,-0.007100195,1,0,0,center_square,0,3,3,45,1,,,,,,,,,,,,,,,,,,,,,,,
362256,001,2022-11-21_24h52.38.531,Info_measure_main_exp,2022.2.2,Win32,59.81934558,,,,,,,,,,,,,,,,,,masks/mask_002.jpg,,,,,,,,,,,,,,,,,,,,,,,,,,,,,,,,,,,,,,,,,,,0,0,0,1,1,,,,,,,,,,,,,,,,,,,,,,,,,,,,,,,,,,,,,,,,,,,,,,
362256,001,2022-11-21_24h52.38.531,Info_measure_main_exp,2022.2.2,Win32,59.81934558,,,,,,,,,,,,,,,,,,masks/mask_003.jpg,,,,,,,,,,,,,,,,,,,,,,,,,,,,,,,,,,,,,,,,,,,0,1,1,2,1,,,,,,,,,,,,,,,,,,,,,,,,,,,,,,,,,,,,,,,,,,,,,,
362256,001,2022-11-21_24h52.38.531,Info_measure_main_exp,2022.2.2,Win32,59.81934558,,,,,,,,,,,,,,,,,,masks/mask_001.jpg,,,,,,,,,,,,,,,,,,,,,,,,,,,,,,,,,,,,,,,,,,,0,2,2,0,1,,,,,,,,,,,,,,,,,,,,,,,,,,,,,,,,,,,,,,,,,,,,,,
362256,001,2022-11-21_24h52.38.531,Info_measure_main_exp,2022.2.2,Win32,59.81934558,,,,,,,,,,,,,,,,,,masks/mask_005.jpg,,,,,,,,,,,,,,,,,,,,,,,,,,,,,,,,,,,,,,,,,,,0,3,3,4,1,,,,,,,,,,,,,,,,,,,,,,,,,,,,,,,,,,,,,,,,,,,,,,
362256,001,2022-11-21_24h52.38.531,Info_measure_main_exp,2022.2.2,Win32,59.81934558,,,,,,,,,,,,,,,,,,masks/mask_004.jpg,,,,,,,,,,,,,,,,,,,,,,,,,,,,,,,,,,,,,,,,,,,0,4,4,3,1,,,,,,,,,,,,,,,,,,,,,,,,,,,,,,,,,,,,,,,,,,,,,,
362256,001,2022-11-21_24h52.38.531,Info_measure_main_exp,2022.2.2,Win32,59.81934558,,,,,,,,,,,,,,,,,,masks/mask_001.jpg,,,,,,,,,,,,,,,,,,,,,,,,,,,,,,,,,,,,,,,,,,,,,,,,0,0,0,0,1,,,,,,,,,,,,,,,,,,,,,,,,,,,,,,,,,,,,,,,,,
362256,001,2022-11-21_24h52.38.531,Info_measure_main_exp,2022.2.2,Win32,59.81934558,,,,,,,,,,,,,,,,,,masks/mask_005.jpg,,,,,,,,,,,,,,,,,,,,,,,,,,,,,,,,,,,,,,,,,,,,,,,,0,1,1,4,1,,,,,,,,,,,,,,,,,,,,,,,,,,,,,,,,,,,,,,,,,
362256,001,2022-11-21_24h52.38.531,Info_measure_main_exp,2022.2.2,Win32,59.81934558,,,,,,,,,,,,,,,,,,masks/mask_004.jpg,,,,,,,,,,,,,,,,,,,,,,,,,,,,,,,,,,,,,,,,,,,,,,,,0,2,2,3,1,,,,,,,,,,,,,,,,,,,,,,,,,,,,,,,,,,,,,,,,,
362256,001,2022-11-21_24h52.38.531,Info_measure_main_exp,2022.2.2,Win32,59.81934558,,,,,,,,,,,,,,,,,,masks/mask_003.jpg,,,,,,,,,,,,,,,,,,,,,,,,,,,,,,,,,,,,,,,,,,,,,,,,0,3,3,2,1,,,,,,,,,,,,,,,,,,,,,,,,,,,,,,,,,,,,,,,,,
362256,001,2022-11-21_24h52.38.531,Info_measure_main_exp,2022.2.2,Win32,59.81934558,,,,,,,,,,,,,,,,,,masks/mask_002.jpg,,,,,,,,,,,,,,,,,,,,,,,,,,,,,,,,,,,,,,,,,,,,,,,,0,4,4,1,1,,,,,,,,,,,,,,,,,,,,,,,,,,,,,,,,,,,,,,,,,
362256,001,2022-11-21_24h52.38.531,Info_measure_main_exp,2022.2.2,Win32,59.81934558,,,,,,,,,,,,,,,,,,,,,,,,,,,,,,7,1.0502,1,,,,,,,,,,,,0,131,5,5,2178,1986,absent_patch/patch0002178.jpg,absent_patch/patch0001986.jpg,,,,,,,,,,,,,,,,,,,,0.090433506,0.11920775,1,0,0,response1disk,5,0.005979119,-0.004110636,1,0,0,center_square,0,4,4,46,1,,,,,,,,,,,,,,,,,,,,,,,
362256,001,2022-11-21_24h52.38.531,Info_measure_main_exp,2022.2.2,Win32,59.81934558,,,,,,,,,,,,,,,,,,masks/mask_001.jpg,,,,,,,,,,,,,,,,,,,,,,,,,,,,,,,,,,,,,,,,,,,0,0,0,0,1,,,,,,,,,,,,,,,,,,,,,,,,,,,,,,,,,,,,,,,,,,,,,,
362256,001,2022-11-21_24h52.38.531,Info_measure_main_exp,2022.2.2,Win32,59.81934558,,,,,,,,,,,,,,,,,,masks/mask_002.jpg,,,,,,,,,,,,,,,,,,,,,,,,,,,,,,,,,,,,,,,,,,,0,1,1,1,1,,,,,,,,,,,,,,,,,,,,,,,,,,,,,,,,,,,,,,,,,,,,,,
362256,001,2022-11-21_24h52.38.531,Info_measure_main_exp,2022.2.2,Win32,59.81934558,,,,,,,,,,,,,,,,,,masks/mask_004.jpg,,,,,,,,,,,,,,,,,,,,,,,,,,,,,,,,,,,,,,,,,,,0,2,2,3,1,,,,,,,,,,,,,,,,,,,,,,,,,,,,,,,,,,,,,,,,,,,,,,
362256,001,2022-11-21_24h52.38.531,Info_measure_main_exp,2022.2.2,Win32,59.81934558,,,,,,,,,,,,,,,,,,masks/mask_003.jpg,,,,,,,,,,,,,,,,,,,,,,,,,,,,,,,,,,,,,,,,,,,0,3,3,2,1,,,,,,,,,,,,,,,,,,,,,,,,,,,,,,,,,,,,,,,,,,,,,,
362256,001,2022-11-21_24h52.38.531,Info_measure_main_exp,2022.2.2,Win32,59.81934558,,,,,,,,,,,,,,,,,,masks/mask_005.jpg,,,,,,,,,,,,,,,,,,,,,,,,,,,,,,,,,,,,,,,,,,,0,4,4,4,1,,,,,,,,,,,,,,,,,,,,,,,,,,,,,,,,,,,,,,,,,,,,,,
362256,001,2022-11-21_24h52.38.531,Info_measure_main_exp,2022.2.2,Win32,59.81934558,,,,,,,,,,,,,,,,,,masks/mask_003.jpg,,,,,,,,,,,,,,,,,,,,,,,,,,,,,,,,,,,,,,,,,,,,,,,,0,0,0,2,1,,,,,,,,,,,,,,,,,,,,,,,,,,,,,,,,,,,,,,,,,
362256,001,2022-11-21_24h52.38.531,Info_measure_main_exp,2022.2.2,Win32,59.81934558,,,,,,,,,,,,,,,,,,masks/mask_001.jpg,,,,,,,,,,,,,,,,,,,,,,,,,,,,,,,,,,,,,,,,,,,,,,,,0,1,1,0,1,,,,,,,,,,,,,,,,,,,,,,,,,,,,,,,,,,,,,,,,,
362256,001,2022-11-21_24h52.38.531,Info_measure_main_exp,2022.2.2,Win32,59.81934558,,,,,,,,,,,,,,,,,,masks/mask_005.jpg,,,,,,,,,,,,,,,,,,,,,,,,,,,,,,,,,,,,,,,,,,,,,,,,0,2,2,4,1,,,,,,,,,,,,,,,,,,,,,,,,,,,,,,,,,,,,,,,,,
362256,001,2022-11-21_24h52.38.531,Info_measure_main_exp,2022.2.2,Win32,59.81934558,,,,,,,,,,,,,,,,,,masks/mask_002.jpg,,,,,,,,,,,,,,,,,,,,,,,,,,,,,,,,,,,,,,,,,,,,,,,,0,3,3,1,1,,,,,,,,,,,,,,,,,,,,,,,,,,,,,,,,,,,,,,,,,
362256,001,2022-11-21_24h52.38.531,Info_measure_main_exp,2022.2.2,Win32,59.81934558,,,,,,,,,,,,,,,,,,masks/mask_004.jpg,,,,,,,,,,,,,,,,,,,,,,,,,,,,,,,,,,,,,,,,,,,,,,,,0,4,4,3,1,,,,,,,,,,,,,,,,,,,,,,,,,,,,,,,,,,,,,,,,,
362256,001,2022-11-21_24h52.38.531,Info_measure_main_exp,2022.2.2,Win32,59.81934558,,,,,,,,,,,,,,,,,,,,,,,,,,,,,,7,1.4187,1,,,,,,,,,,,,0,131,5,5,2154,2298,absent_patch/patch0002154.jpg,absent_patch/patch0002298.jpg,,,,,,,,,,,,,,,,,,,,0.079222743,0.10276531,1,0,0,response1disk,6,0.010463424,-0.000373738,1,0,0,center_square,0,5,5,27,1,,,,,,,,,,,,,,,,,,,,,,,
362256,001,2022-11-21_24h52.38.531,Info_measure_main_exp,2022.2.2,Win32,59.81934558,,,,,,,,,,,,,,,,,,masks/mask_005.jpg,,,,,,,,,,,,,,,,,,,,,,,,,,,,,,,,,,,,,,,,,,,0,0,0,4,1,,,,,,,,,,,,,,,,,,,,,,,,,,,,,,,,,,,,,,,,,,,,,,
362256,001,2022-11-21_24h52.38.531,Info_measure_main_exp,2022.2.2,Win32,59.81934558,,,,,,,,,,,,,,,,,,masks/mask_004.jpg,,,,,,,,,,,,,,,,,,,,,,,,,,,,,,,,,,,,,,,,,,,0,1,1,3,1,,,,,,,,,,,,,,,,,,,,,,,,,,,,,,,,,,,,,,,,,,,,,,
362256,001,2022-11-21_24h52.38.531,Info_measure_main_exp,2022.2.2,Win32,59.81934558,,,,,,,,,,,,,,,,,,masks/mask_003.jpg,,,,,,,,,,,,,,,,,,,,,,,,,,,,,,,,,,,,,,,,,,,0,2,2,2,1,,,,,,,,,,,,,,,,,,,,,,,,,,,,,,,,,,,,,,,,,,,,,,
362256,001,2022-11-21_24h52.38.531,Info_measure_main_exp,2022.2.2,Win32,59.81934558,,,,,,,,,,,,,,,,,,masks/mask_002.jpg,,,,,,,,,,,,,,,,,,,,,,,,,,,,,,,,,,,,,,,,,,,0,3,3,1,1,,,,,,,,,,,,,,,,,,,,,,,,,,,,,,,,,,,,,,,,,,,,,,
362256,001,2022-11-21_24h52.38.531,Info_measure_main_exp,2022.2.2,Win32,59.81934558,,,,,,,,,,,,,,,,,,masks/mask_001.jpg,,,,,,,,,,,,,,,,,,,,,,,,,,,,,,,,,,,,,,,,,,,0,4,4,0,1,,,,,,,,,,,,,,,,,,,,,,,,,,,,,,,,,,,,,,,,,,,,,,
362256,001,2022-11-21_24h52.38.531,Info_measure_main_exp,2022.2.2,Win32,59.81934558,,,,,,,,,,,,,,,,,,masks/mask_002.jpg,,,,,,,,,,,,,,,,,,,,,,,,,,,,,,,,,,,,,,,,,,,,,,,,0,0,0,1,1,,,,,,,,,,,,,,,,,,,,,,,,,,,,,,,,,,,,,,,,,
362256,001,2022-11-21_24h52.38.531,Info_measure_main_exp,2022.2.2,Win32,59.81934558,,,,,,,,,,,,,,,,,,masks/mask_005.jpg,,,,,,,,,,,,,,,,,,,,,,,,,,,,,,,,,,,,,,,,,,,,,,,,0,1,1,4,1,,,,,,,,,,,,,,,,,,,,,,,,,,,,,,,,,,,,,,,,,
362256,001,2022-11-21_24h52.38.531,Info_measure_main_exp,2022.2.2,Win32,59.81934558,,,,,,,,,,,,,,,,,,masks/mask_001.jpg,,,,,,,,,,,,,,,,,,,,,,,,,,,,,,,,,,,,,,,,,,,,,,,,0,2,2,0,1,,,,,,,,,,,,,,,,,,,,,,,,,,,,,,,,,,,,,,,,,
362256,001,2022-11-21_24h52.38.531,Info_measure_main_exp,2022.2.2,Win32,59.81934558,,,,,,,,,,,,,,,,,,masks/mask_004.jpg,,,,,,,,,,,,,,,,,,,,,,,,,,,,,,,,,,,,,,,,,,,,,,,,0,3,3,3,1,,,,,,,,,,,,,,,,,,,,,,,,,,,,,,,,,,,,,,,,,
362256,001,2022-11-21_24h52.38.531,Info_measure_main_exp,2022.2.2,Win32,59.81934558,,,,,,,,,,,,,,,,,,masks/mask_003.jpg,,,,,,,,,,,,,,,,,,,,,,,,,,,,,,,,,,,,,,,,,,,,,,,,0,4,4,2,1,,,,,,,,,,,,,,,,,,,,,,,,,,,,,,,,,,,,,,,,,
362256,001,2022-11-21_24h52.38.531,Info_measure_main_exp,2022.2.2,Win32,59.81934558,,,,,,,,,,,,,,,,,,,,,,,,,,,,,,6,0.9688,1,,,,,,,,,,,,0,131,5,5,2154,1950,absent_patch/patch0002154.jpg,absent_patch/patch0001950.jpg,,,,,,,,,,,,,,,,,,,,0.118834081,0.034753363,1,0,0,response1disk,7,0.000747407,-0.007100195,1,0,0,center_square,0,6,6,96,1,,,,,,,,,,,,,,,,,,,,,,,
362256,001,2022-11-21_24h52.38.531,Info_measure_main_exp,2022.2.2,Win32,59.81934558,,,,,,,,,,,,,,,,,,masks/mask_003.jpg,,,,,,,,,,,,,,,,,,,,,,,,,,,,,,,,,,,,,,,,,,,0,0,0,2,1,,,,,,,,,,,,,,,,,,,,,,,,,,,,,,,,,,,,,,,,,,,,,,
362256,001,2022-11-21_24h52.38.531,Info_measure_main_exp,2022.2.2,Win32,59.81934558,,,,,,,,,,,,,,,,,,masks/mask_005.jpg,,,,,,,,,,,,,,,,,,,,,,,,,,,,,,,,,,,,,,,,,,,0,1,1,4,1,,,,,,,,,,,,,,,,,,,,,,,,,,,,,,,,,,,,,,,,,,,,,,
362256,001,2022-11-21_24h52.38.531,Info_measure_main_exp,2022.2.2,Win32,59.81934558,,,,,,,,,,,,,,,,,,masks/mask_001.jpg,,,,,,,,,,,,,,,,,,,,,,,,,,,,,,,,,,,,,,,,,,,0,2,2,0,1,,,,,,,,,,,,,,,,,,,,,,,,,,,,,,,,,,,,,,,,,,,,,,
362256,001,2022-11-21_24h52.38.531,Info_measure_main_exp,2022.2.2,Win32,59.81934558,,,,,,,,,,,,,,,,,,masks/mask_002.jpg,,,,,,,,,,,,,,,,,,,,,,,,,,,,,,,,,,,,,,,,,,,0,3,3,1,1,,,,,,,,,,,,,,,,,,,,,,,,,,,,,,,,,,,,,,,,,,,,,,
362256,001,2022-11-21_24h52.38.531,Info_measure_main_exp,2022.2.2,Win32,59.81934558,,,,,,,,,,,,,,,,,,masks/mask_004.jpg,,,,,,,,,,,,,,,,,,,,,,,,,,,,,,,,,,,,,,,,,,,0,4,4,3,1,,,,,,,,,,,,,,,,,,,,,,,,,,,,,,,,,,,,,,,,,,,,,,
362256,001,2022-11-21_24h52.38.531,Info_measure_main_exp,2022.2.2,Win32,59.81934558,,,,,,,,,,,,,,,,,,masks/mask_003.jpg,,,,,,,,,,,,,,,,,,,,,,,,,,,,,,,,,,,,,,,,,,,,,,,,0,0,0,2,1,,,,,,,,,,,,,,,,,,,,,,,,,,,,,,,,,,,,,,,,,
362256,001,2022-11-21_24h52.38.531,Info_measure_main_exp,2022.2.2,Win32,59.81934558,,,,,,,,,,,,,,,,,,masks/mask_001.jpg,,,,,,,,,,,,,,,,,,,,,,,,,,,,,,,,,,,,,,,,,,,,,,,,0,1,1,0,1,,,,,,,,,,,,,,,,,,,,,,,,,,,,,,,,,,,,,,,,,
362256,001,2022-11-21_24h52.38.531,Info_measure_main_exp,2022.2.2,Win32,59.81934558,,,,,,,,,,,,,,,,,,masks/mask_002.jpg,,,,,,,,,,,,,,,,,,,,,,,,,,,,,,,,,,,,,,,,,,,,,,,,0,2,2,1,1,,,,,,,,,,,,,,,,,,,,,,,,,,,,,,,,,,,,,,,,,
362256,001,2022-11-21_24h52.38.531,Info_measure_main_exp,2022.2.2,Win32,59.81934558,,,,,,,,,,,,,,,,,,masks/mask_004.jpg,,,,,,,,,,,,,,,,,,,,,,,,,,,,,,,,,,,,,,,,,,,,,,,,0,3,3,3,1,,,,,,,,,,,,,,,,,,,,,,,,,,,,,,,,,,,,,,,,,
362256,001,2022-11-21_24h52.38.531,Info_measure_main_exp,2022.2.2,Win32,59.81934558,,,,,,,,,,,,,,,,,,masks/mask_005.jpg,,,,,,,,,,,,,,,,,,,,,,,,,,,,,,,,,,,,,,,,,,,,,,,,0,4,4,4,1,,,,,,,,,,,,,,,,,,,,,,,,,,,,,,,,,,,,,,,,,
362256,001,2022-11-21_24h52.38.531,Info_measure_main_exp,2022.2.2,Win32,59.81934558,,,,,,,,,,,,,,,,,,,,,,,,,,,,,,2,1.3912,1,,,,,,,,,,,,0,131,5,5,2190,2178,absent_patch/patch0002190.jpg,absent_patch/patch0002178.jpg,,,,,,,,,,,,,,,,,,,,-0.129297436,-0.040732482,1,0,0,response5disk,8,-0.002242152,-0.004110636,1,0,0,center_square,0,7,7,14,1,,,,,,,,,,,,,,,,,,,,,,,
362256,001,2022-11-21_24h52.38.531,Info_measure_main_exp,2022.2.2,Win32,59.81934558,,,,,,,,,,,,,,,,,,masks/mask_004.jpg,,,,,,,,,,,,,,,,,,,,,,,,,,,,,,,,,,,,,,,,,,,0,0,0,3,1,,,,,,,,,,,,,,,,,,,,,,,,,,,,,,,,,,,,,,,,,,,,,,
362256,001,2022-11-21_24h52.38.531,Info_measure_main_exp,2022.2.2,Win32,59.81934558,,,,,,,,,,,,,,,,,,masks/mask_005.jpg,,,,,,,,,,,,,,,,,,,,,,,,,,,,,,,,,,,,,,,,,,,0,1,1,4,1,,,,,,,,,,,,,,,,,,,,,,,,,,,,,,,,,,,,,,,,,,,,,,
362256,001,2022-11-21_24h52.38.531,Info_measure_main_exp,2022.2.2,Win32,59.81934558,,,,,,,,,,,,,,,,,,masks/mask_003.jpg,,,,,,,,,,,,,,,,,,,,,,,,,,,,,,,,,,,,,,,,,,,0,2,2,2,1,,,,,,,,,,,,,,,,,,,,,,,,,,,,,,,,,,,,,,,,,,,,,,
362256,001,2022-11-21_24h52.38.531,Info_measure_main_exp,2022.2.2,Win32,59.81934558,,,,,,,,,,,,,,,,,,masks/mask_002.jpg,,,,,,,,,,,,,,,,,,,,,,,,,,,,,,,,,,,,,,,,,,,0,3,3,1,1,,,,,,,,,,,,,,,,,,,,,,,,,,,,,,,,,,,,,,,,,,,,,,
362256,001,2022-11-21_24h52.38.531,Info_measure_main_exp,2022.2.2,Win32,59.81934558,,,,,,,,,,,,,,,,,,masks/mask_001.jpg,,,,,,,,,,,,,,,,,,,,,,,,,,,,,,,,,,,,,,,,,,,0,4,4,0,1,,,,,,,,,,,,,,,,,,,,,,,,,,,,,,,,,,,,,,,,,,,,,,
362256,001,2022-11-21_24h52.38.531,Info_measure_main_exp,2022.2.2,Win32,59.81934558,,,,,,,,,,,,,,,,,,masks/mask_004.jpg,,,,,,,,,,,,,,,,,,,,,,,,,,,,,,,,,,,,,,,,,,,,,,,,0,0,0,3,1,,,,,,,,,,,,,,,,,,,,,,,,,,,,,,,,,,,,,,,,,
362256,001,2022-11-21_24h52.38.531,Info_measure_main_exp,2022.2.2,Win32,59.81934558,,,,,,,,,,,,,,,,,,masks/mask_002.jpg,,,,,,,,,,,,,,,,,,,,,,,,,,,,,,,,,,,,,,,,,,,,,,,,0,1,1,1,1,,,,,,,,,,,,,,,,,,,,,,,,,,,,,,,,,,,,,,,,,
362256,001,2022-11-21_24h52.38.531,Info_measure_main_exp,2022.2.2,Win32,59.81934558,,,,,,,,,,,,,,,,,,masks/mask_001.jpg,,,,,,,,,,,,,,,,,,,,,,,,,,,,,,,,,,,,,,,,,,,,,,,,0,2,2,0,1,,,,,,,,,,,,,,,,,,,,,,,,,,,,,,,,,,,,,,,,,
362256,001,2022-11-21_24h52.38.531,Info_measure_main_exp,2022.2.2,Win32,59.81934558,,,,,,,,,,,,,,,,,,masks/mask_005.jpg,,,,,,,,,,,,,,,,,,,,,,,,,,,,,,,,,,,,,,,,,,,,,,,,0,3,3,4,1,,,,,,,,,,,,,,,,,,,,,,,,,,,,,,,,,,,,,,,,,
362256,001,2022-11-21_24h52.38.531,Info_measure_main_exp,2022.2.2,Win32,59.81934558,,,,,,,,,,,,,,,,,,masks/mask_003.jpg,,,,,,,,,,,,,,,,,,,,,,,,,,,,,,,,,,,,,,,,,,,,,,,,0,4,4,2,1,,,,,,,,,,,,,,,,,,,,,,,,,,,,,,,,,,,,,,,,,
362256,001,2022-11-21_24h52.38.531,Info_measure_main_exp,2022.2.2,Win32,59.81934558,,,,,,,,,,,,,,,,,,,,,,,,,,,,,,5,1.6355,1,,,,,,,,,,,,0,131,5,5,2142,2166,absent_patch/patch0002142.jpg,absent_patch/patch0002166.jpg,,,,,,,,,,,,,,,,,,,,0.119581488,-0.063154007,1,0,0,response3disk,9,-0.005231643,-0.006352788,1,0,0,center_square,0,8,8,66,1,,,,,,,,,,,,,,,,,,,,,,,
362256,001,2022-11-21_24h52.38.531,Info_measure_main_exp,2022.2.2,Win32,59.81934558,,,,,,,,,,,,,,,,,,masks/mask_005.jpg,,,,,,,,,,,,,,,,,,,,,,,,,,,,,,,,,,,,,,,,,,,0,0,0,4,1,,,,,,,,,,,,,,,,,,,,,,,,,,,,,,,,,,,,,,,,,,,,,,
362256,001,2022-11-21_24h52.38.531,Info_measure_main_exp,2022.2.2,Win32,59.81934558,,,,,,,,,,,,,,,,,,masks/mask_003.jpg,,,,,,,,,,,,,,,,,,,,,,,,,,,,,,,,,,,,,,,,,,,0,1,1,2,1,,,,,,,,,,,,,,,,,,,,,,,,,,,,,,,,,,,,,,,,,,,,,,
362256,001,2022-11-21_24h52.38.531,Info_measure_main_exp,2022.2.2,Win32,59.81934558,,,,,,,,,,,,,,,,,,masks/mask_001.jpg,,,,,,,,,,,,,,,,,,,,,,,,,,,,,,,,,,,,,,,,,,,0,2,2,0,1,,,,,,,,,,,,,,,,,,,,,,,,,,,,,,,,,,,,,,,,,,,,,,
362256,001,2022-11-21_24h52.38.531,Info_measure_main_exp,2022.2.2,Win32,59.81934558,,,,,,,,,,,,,,,,,,masks/mask_004.jpg,,,,,,,,,,,,,,,,,,,,,,,,,,,,,,,,,,,,,,,,,,,0,3,3,3,1,,,,,,,,,,,,,,,,,,,,,,,,,,,,,,,,,,,,,,,,,,,,,,
362256,001,2022-11-21_24h52.38.531,Info_measure_main_exp,2022.2.2,Win32,59.81934558,,,,,,,,,,,,,,,,,,masks/mask_002.jpg,,,,,,,,,,,,,,,,,,,,,,,,,,,,,,,,,,,,,,,,,,,0,4,4,1,1,,,,,,,,,,,,,,,,,,,,,,,,,,,,,,,,,,,,,,,,,,,,,,
362256,001,2022-11-21_24h52.38.531,Info_measure_main_exp,2022.2.2,Win32,59.81934558,,,,,,,,,,,,,,,,,,masks/mask_003.jpg,,,,,,,,,,,,,,,,,,,,,,,,,,,,,,,,,,,,,,,,,,,,,,,,0,0,0,2,1,,,,,,,,,,,,,,,,,,,,,,,,,,,,,,,,,,,,,,,,,
362256,001,2022-11-21_24h52.38.531,Info_measure_main_exp,2022.2.2,Win32,59.81934558,,,,,,,,,,,,,,,,,,masks/mask_005.jpg,,,,,,,,,,,,,,,,,,,,,,,,,,,,,,,,,,,,,,,,,,,,,,,,0,1,1,4,1,,,,,,,,,,,,,,,,,,,,,,,,,,,,,,,,,,,,,,,,,
362256,001,2022-11-21_24h52.38.531,Info_measure_main_exp,2022.2.2,Win32,59.81934558,,,,,,,,,,,,,,,,,,masks/mask_004.jpg,,,,,,,,,,,,,,,,,,,,,,,,,,,,,,,,,,,,,,,,,,,,,,,,0,2,2,3,1,,,,,,,,,,,,,,,,,,,,,,,,,,,,,,,,,,,,,,,,,
362256,001,2022-11-21_24h52.38.531,Info_measure_main_exp,2022.2.2,Win32,59.81934558,,,,,,,,,,,,,,,,,,masks/mask_001.jpg,,,,,,,,,,,,,,,,,,,,,,,,,,,,,,,,,,,,,,,,,,,,,,,,0,3,3,0,1,,,,,,,,,,,,,,,,,,,,,,,,,,,,,,,,,,,,,,,,,
362256,001,2022-11-21_24h52.38.531,Info_measure_main_exp,2022.2.2,Win32,59.81934558,,,,,,,,,,,,,,,,,,masks/mask_002.jpg,,,,,,,,,,,,,,,,,,,,,,,,,,,,,,,,,,,,,,,,,,,,,,,,0,4,4,1,1,,,,,,,,,,,,,,,,,,,,,,,,,,,,,,,,,,,,,,,,,
362256,001,2022-11-21_24h52.38.531,Info_measure_main_exp,2022.2.2,Win32,59.81934558,,,,,,,,,,,,,,,,,,,,,,,,,,,,,,6,1.1851,1,,,,,,,,,,,,0,131,5,5,2274,2214,absent_patch/patch0002274.jpg,absent_patch/patch0002214.jpg,,,,,,,,,,,,,,,,,,,,0.147982063,0.046711498,1,0,0,response1disk,10,0.002989559,-0.001868483,1,0,0,center_square,0,9,9,11,1,,,,,,,,,,,,,,,,,,,,,,,
362256,001,2022-11-21_24h52.38.531,Info_measure_main_exp,2022.2.2,Win32,59.81934558,,,,,,,,,,,,,,,,,,masks/mask_005.jpg,,,,,,,,,,,,,,,,,,,,,,,,,,,,,,,,,,,,,,,,,,,0,0,0,4,1,,,,,,,,,,,,,,,,,,,,,,,,,,,,,,,,,,,,,,,,,,,,,,
362256,001,2022-11-21_24h52.38.531,Info_measure_main_exp,2022.2.2,Win32,59.81934558,,,,,,,,,,,,,,,,,,masks/mask_002.jpg,,,,,,,,,,,,,,,,,,,,,,,,,,,,,,,,,,,,,,,,,,,0,1,1,1,1,,,,,,,,,,,,,,,,,,,,,,,,,,,,,,,,,,,,,,,,,,,,,,
362256,001,2022-11-21_24h52.38.531,Info_measure_main_exp,2022.2.2,Win32,59.81934558,,,,,,,,,,,,,,,,,,masks/mask_001.jpg,,,,,,,,,,,,,,,,,,,,,,,,,,,,,,,,,,,,,,,,,,,0,2,2,0,1,,,,,,,,,,,,,,,,,,,,,,,,,,,,,,,,,,,,,,,,,,,,,,
362256,001,2022-11-21_24h52.38.531,Info_measure_main_exp,2022.2.2,Win32,59.81934558,,,,,,,,,,,,,,,,,,masks/mask_004.jpg,,,,,,,,,,,,,,,,,,,,,,,,,,,,,,,,,,,,,,,,,,,0,3,3,3,1,,,,,,,,,,,,,,,,,,,,,,,,,,,,,,,,,,,,,,,,,,,,,,
362256,001,2022-11-21_24h52.38.531,Info_measure_main_exp,2022.2.2,Win32,59.81934558,,,,,,,,,,,,,,,,,,masks/mask_003.jpg,,,,,,,,,,,,,,,,,,,,,,,,,,,,,,,,,,,,,,,,,,,0,4,4,2,1,,,,,,,,,,,,,,,,,,,,,,,,,,,,,,,,,,,,,,,,,,,,,,
362256,001,2022-11-21_24h52.38.531,Info_measure_main_exp,2022.2.2,Win32,59.81934558,,,,,,,,,,,,,,,,,,masks/mask_005.jpg,,,,,,,,,,,,,,,,,,,,,,,,,,,,,,,,,,,,,,,,,,,,,,,,0,0,0,4,1,,,,,,,,,,,,,,,,,,,,,,,,,,,,,,,,,,,,,,,,,
362256,001,2022-11-21_24h52.38.531,Info_measure_main_exp,2022.2.2,Win32,59.81934558,,,,,,,,,,,,,,,,,,masks/mask_001.jpg,,,,,,,,,,,,,,,,,,,,,,,,,,,,,,,,,,,,,,,,,,,,,,,,0,1,1,0,1,,,,,,,,,,,,,,,,,,,,,,,,,,,,,,,,,,,,,,,,,
362256,001,2022-11-21_24h52.38.531,Info_measure_main_exp,2022.2.2,Win32,59.81934558,,,,,,,,,,,,,,,,,,masks/mask_004.jpg,,,,,,,,,,,,,,,,,,,,,,,,,,,,,,,,,,,,,,,,,,,,,,,,0,2,2,3,1,,,,,,,,,,,,,,,,,,,,,,,,,,,,,,,,,,,,,,,,,
362256,001,2022-11-21_24h52.38.531,Info_measure_main_exp,2022.2.2,Win32,59.81934558,,,,,,,,,,,,,,,,,,masks/mask_002.jpg,,,,,,,,,,,,,,,,,,,,,,,,,,,,,,,,,,,,,,,,,,,,,,,,0,3,3,1,1,,,,,,,,,,,,,,,,,,,,,,,,,,,,,,,,,,,,,,,,,
362256,001,2022-11-21_24h52.38.531,Info_measure_main_exp,2022.2.2,Win32,59.81934558,,,,,,,,,,,,,,,,,,masks/mask_003.jpg,,,,,,,,,,,,,,,,,,,,,,,,,,,,,,,,,,,,,,,,,,,,,,,,0,4,4,2,1,,,,,,,,,,,,,,,,,,,,,,,,,,,,,,,,,,,,,,,,,
362256,001,2022-11-21_24h52.38.531,Info_measure_main_exp,2022.2.2,Win32,59.81934558,,,,,,,,,,,,,,,,,,,,,,,,,,,,,,7,0.8695,1,,,,,,,,,,,,1,131,5,5,1,1974,present_patch/cong_131_5_a.jpg,absent_patch/patch0001974.jpg,,,,,,,,,,,,,,,,,,,,0.065022422,0.137892377,1,0,0,response1disk,11,0.006726457,0.009342279,1,0,0,center_square,0,10,10,69,1,,,,,,,,,,,,,,,,,,,,,,,
362256,001,2022-11-21_24h52.38.531,Info_measure_main_exp,2022.2.2,Win32,59.81934558,,,,,,,,,,,,,,,,,,masks/mask_001.jpg,,,,,,,,,,,,,,,,,,,,,,,,,,,,,,,,,,,,,,,,,,,0,0,0,0,1,,,,,,,,,,,,,,,,,,,,,,,,,,,,,,,,,,,,,,,,,,,,,,
362256,001,2022-11-21_24h52.38.531,Info_measure_main_exp,2022.2.2,Win32,59.81934558,,,,,,,,,,,,,,,,,,masks/mask_003.jpg,,,,,,,,,,,,,,,,,,,,,,,,,,,,,,,,,,,,,,,,,,,0,1,1,2,1,,,,,,,,,,,,,,,,,,,,,,,,,,,,,,,,,,,,,,,,,,,,,,
362256,001,2022-11-21_24h52.38.531,Info_measure_main_exp,2022.2.2,Win32,59.81934558,,,,,,,,,,,,,,,,,,masks/mask_002.jpg,,,,,,,,,,,,,,,,,,,,,,,,,,,,,,,,,,,,,,,,,,,0,2,2,1,1,,,,,,,,,,,,,,,,,,,,,,,,,,,,,,,,,,,,,,,,,,,,,,
362256,001,2022-11-21_24h52.38.531,Info_measure_main_exp,2022.2.2,Win32,59.81934558,,,,,,,,,,,,,,,,,,masks/mask_004.jpg,,,,,,,,,,,,,,,,,,,,,,,,,,,,,,,,,,,,,,,,,,,0,3,3,3,1,,,,,,,,,,,,,,,,,,,,,,,,,,,,,,,,,,,,,,,,,,,,,,
362256,001,2022-11-21_24h52.38.531,Info_measure_main_exp,2022.2.2,Win32,59.81934558,,,,,,,,,,,,,,,,,,masks/mask_005.jpg,,,,,,,,,,,,,,,,,,,,,,,,,,,,,,,,,,,,,,,,,,,0,4,4,4,1,,,,,,,,,,,,,,,,,,,,,,,,,,,,,,,,,,,,,,,,,,,,,,
362256,001,2022-11-21_24h52.38.531,Info_measure_main_exp,2022.2.2,Win32,59.81934558,,,,,,,,,,,,,,,,,,masks/mask_002.jpg,,,,,,,,,,,,,,,,,,,,,,,,,,,,,,,,,,,,,,,,,,,,,,,,0,0,0,1,1,,,,,,,,,,,,,,,,,,,,,,,,,,,,,,,,,,,,,,,,,
362256,001,2022-11-21_24h52.38.531,Info_measure_main_exp,2022.2.2,Win32,59.81934558,,,,,,,,,,,,,,,,,,masks/mask_001.jpg,,,,,,,,,,,,,,,,,,,,,,,,,,,,,,,,,,,,,,,,,,,,,,,,0,1,1,0,1,,,,,,,,,,,,,,,,,,,,,,,,,,,,,,,,,,,,,,,,,
362256,001,2022-11-21_24h52.38.531,Info_measure_main_exp,2022.2.2,Win32,59.81934558,,,,,,,,,,,,,,,,,,masks/mask_005.jpg,,,,,,,,,,,,,,,,,,,,,,,,,,,,,,,,,,,,,,,,,,,,,,,,0,2,2,4,1,,,,,,,,,,,,,,,,,,,,,,,,,,,,,,,,,,,,,,,,,
362256,001,2022-11-21_24h52.38.531,Info_measure_main_exp,2022.2.2,Win32,59.81934558,,,,,,,,,,,,,,,,,,masks/mask_004.jpg,,,,,,,,,,,,,,,,,,,,,,,,,,,,,,,,,,,,,,,,,,,,,,,,0,3,3,3,1,,,,,,,,,,,,,,,,,,,,,,,,,,,,,,,,,,,,,,,,,
362256,001,2022-11-21_24h52.38.531,Info_measure_main_exp,2022.2.2,Win32,59.81934558,,,,,,,,,,,,,,,,,,masks/mask_003.jpg,,,,,,,,,,,,,,,,,,,,,,,,,,,,,,,,,,,,,,,,,,,,,,,,0,4,4,2,1,,,,,,,,,,,,,,,,,,,,,,,,,,,,,,,,,,,,,,,,,
362256,001,2022-11-21_24h52.38.531,Info_measure_main_exp,2022.2.2,Win32,59.81934558,,,,,,,,,,,,,,,,,,,,,,,,,,,,,,0,1.3181,1,,,,,,,,,,,,0,131,5,5,1986,2154,absent_patch/patch0001986.jpg,absent_patch/patch0002154.jpg,,,,,,,,,,,,,,,,,,,,-0.04783254,0.090059768,1,0,0,response7disk,12,-0.008221203,0.008594906,1,0,0,center_square,0,11,11,36,1,,,,,,,,,,,,,,,,,,,,,,,
362256,001,2022-11-21_24h52.38.531,Info_measure_main_exp,2022.2.2,Win32,59.81934558,,,,,,,,,,,,,,,,,,masks/mask_004.jpg,,,,,,,,,,,,,,,,,,,,,,,,,,,,,,,,,,,,,,,,,,,0,0,0,3,1,,,,,,,,,,,,,,,,,,,,,,,,,,,,,,,,,,,,,,,,,,,,,,
362256,001,2022-11-21_24h52.38.531,Info_measure_main_exp,2022.2.2,Win32,59.81934558,,,,,,,,,,,,,,,,,,masks/mask_005.jpg,,,,,,,,,,,,,,,,,,,,,,,,,,,,,,,,,,,,,,,,,,,0,1,1,4,1,,,,,,,,,,,,,,,,,,,,,,,,,,,,,,,,,,,,,,,,,,,,,,
362256,001,2022-11-21_24h52.38.531,Info_measure_main_exp,2022.2.2,Win32,59.81934558,,,,,,,,,,,,,,,,,,masks/mask_003.jpg,,,,,,,,,,,,,,,,,,,,,,,,,,,,,,,,,,,,,,,,,,,0,2,2,2,1,,,,,,,,,,,,,,,,,,,,,,,,,,,,,,,,,,,,,,,,,,,,,,
362256,001,2022-11-21_24h52.38.531,Info_measure_main_exp,2022.2.2,Win32,59.81934558,,,,,,,,,,,,,,,,,,masks/mask_002.jpg,,,,,,,,,,,,,,,,,,,,,,,,,,,,,,,,,,,,,,,,,,,0,3,3,1,1,,,,,,,,,,,,,,,,,,,,,,,,,,,,,,,,,,,,,,,,,,,,,,
362256,001,2022-11-21_24h52.38.531,Info_measure_main_exp,2022.2.2,Win32,59.81934558,,,,,,,,,,,,,,,,,,masks/mask_001.jpg,,,,,,,,,,,,,,,,,,,,,,,,,,,,,,,,,,,,,,,,,,,0,4,4,0,1,,,,,,,,,,,,,,,,,,,,,,,,,,,,,,,,,,,,,,,,,,,,,,
362256,001,2022-11-21_24h52.38.531,Info_measure_main_exp,2022.2.2,Win32,59.81934558,,,,,,,,,,,,,,,,,,masks/mask_002.jpg,,,,,,,,,,,,,,,,,,,,,,,,,,,,,,,,,,,,,,,,,,,,,,,,0,0,0,1,1,,,,,,,,,,,,,,,,,,,,,,,,,,,,,,,,,,,,,,,,,
362256,001,2022-11-21_24h52.38.531,Info_measure_main_exp,2022.2.2,Win32,59.81934558,,,,,,,,,,,,,,,,,,masks/mask_001.jpg,,,,,,,,,,,,,,,,,,,,,,,,,,,,,,,,,,,,,,,,,,,,,,,,0,1,1,0,1,,,,,,,,,,,,,,,,,,,,,,,,,,,,,,,,,,,,,,,,,
362256,001,2022-11-21_24h52.38.531,Info_measure_main_exp,2022.2.2,Win32,59.81934558,,,,,,,,,,,,,,,,,,masks/mask_005.jpg,,,,,,,,,,,,,,,,,,,,,,,,,,,,,,,,,,,,,,,,,,,,,,,,0,2,2,4,1,,,,,,,,,,,,,,,,,,,,,,,,,,,,,,,,,,,,,,,,,
362256,001,2022-11-21_24h52.38.531,Info_measure_main_exp,2022.2.2,Win32,59.81934558,,,,,,,,,,,,,,,,,,masks/mask_004.jpg,,,,,,,,,,,,,,,,,,,,,,,,,,,,,,,,,,,,,,,,,,,,,,,,0,3,3,3,1,,,,,,,,,,,,,,,,,,,,,,,,,,,,,,,,,,,,,,,,,
362256,001,2022-11-21_24h52.38.531,Info_measure_main_exp,2022.2.2,Win32,59.81934558,,,,,,,,,,,,,,,,,,masks/mask_003.jpg,,,,,,,,,,,,,,,,,,,,,,,,,,,,,,,,,,,,,,,,,,,,,,,,0,4,4,2,1,,,,,,,,,,,,,,,,,,,,,,,,,,,,,,,,,,,,,,,,,
362256,001,2022-11-21_24h52.38.531,Info_measure_main_exp,2022.2.2,Win32,59.81934558,,,,,,,,,,,,,,,,,,,,,,,,,,,,,,6,1.587,1,,,,,,,,,,,,1,131,5,5,1950,1,absent_patch/patch0001950.jpg,present_patch/cong_131_5_a.jpg,,,,,,,,,,,,,,,,,,,,0.127802691,0.087070243,1,0,0,response1disk,13,-0.001494746,0.004110567,1,0,0,center_square,0,12,12,39,1,,,,,,,,,,,,,,,,,,,,,,,
362256,001,2022-11-21_24h52.38.531,Info_measure_main_exp,2022.2.2,Win32,59.81934558,,,,,,,,,,,,,,,,,,masks/mask_002.jpg,,,,,,,,,,,,,,,,,,,,,,,,,,,,,,,,,,,,,,,,,,,0,0,0,1,1,,,,,,,,,,,,,,,,,,,,,,,,,,,,,,,,,,,,,,,,,,,,,,
362256,001,2022-11-21_24h52.38.531,Info_measure_main_exp,2022.2.2,Win32,59.81934558,,,,,,,,,,,,,,,,,,masks/mask_004.jpg,,,,,,,,,,,,,,,,,,,,,,,,,,,,,,,,,,,,,,,,,,,0,1,1,3,1,,,,,,,,,,,,,,,,,,,,,,,,,,,,,,,,,,,,,,,,,,,,,,
362256,001,2022-11-21_24h52.38.531,Info_measure_main_exp,2022.2.2,Win32,59.81934558,,,,,,,,,,,,,,,,,,masks/mask_003.jpg,,,,,,,,,,,,,,,,,,,,,,,,,,,,,,,,,,,,,,,,,,,0,2,2,2,1,,,,,,,,,,,,,,,,,,,,,,,,,,,,,,,,,,,,,,,,,,,,,,
362256,001,2022-11-21_24h52.38.531,Info_measure_main_exp,2022.2.2,Win32,59.81934558,,,,,,,,,,,,,,,,,,masks/mask_005.jpg,,,,,,,,,,,,,,,,,,,,,,,,,,,,,,,,,,,,,,,,,,,0,3,3,4,1,,,,,,,,,,,,,,,,,,,,,,,,,,,,,,,,,,,,,,,,,,,,,,
362256,001,2022-11-21_24h52.38.531,Info_measure_main_exp,2022.2.2,Win32,59.81934558,,,,,,,,,,,,,,,,,,masks/mask_001.jpg,,,,,,,,,,,,,,,,,,,,,,,,,,,,,,,,,,,,,,,,,,,0,4,4,0,1,,,,,,,,,,,,,,,,,,,,,,,,,,,,,,,,,,,,,,,,,,,,,,
362256,001,2022-11-21_24h52.38.531,Info_measure_main_exp,2022.2.2,Win32,59.81934558,,,,,,,,,,,,,,,,,,masks/mask_002.jpg,,,,,,,,,,,,,,,,,,,,,,,,,,,,,,,,,,,,,,,,,,,,,,,,0,0,0,1,1,,,,,,,,,,,,,,,,,,,,,,,,,,,,,,,,,,,,,,,,,
362256,001,2022-11-21_24h52.38.531,Info_measure_main_exp,2022.2.2,Win32,59.81934558,,,,,,,,,,,,,,,,,,masks/mask_001.jpg,,,,,,,,,,,,,,,,,,,,,,,,,,,,,,,,,,,,,,,,,,,,,,,,0,1,1,0,1,,,,,,,,,,,,,,,,,,,,,,,,,,,,,,,,,,,,,,,,,
362256,001,2022-11-21_24h52.38.531,Info_measure_main_exp,2022.2.2,Win32,59.81934558,,,,,,,,,,,,,,,,,,masks/mask_003.jpg,,,,,,,,,,,,,,,,,,,,,,,,,,,,,,,,,,,,,,,,,,,,,,,,0,2,2,2,1,,,,,,,,,,,,,,,,,,,,,,,,,,,,,,,,,,,,,,,,,
362256,001,2022-11-21_24h52.38.531,Info_measure_main_exp,2022.2.2,Win32,59.81934558,,,,,,,,,,,,,,,,,,masks/mask_004.jpg,,,,,,,,,,,,,,,,,,,,,,,,,,,,,,,,,,,,,,,,,,,,,,,,0,3,3,3,1,,,,,,,,,,,,,,,,,,,,,,,,,,,,,,,,,,,,,,,,,
362256,001,2022-11-21_24h52.38.531,Info_measure_main_exp,2022.2.2,Win32,59.81934558,,,,,,,,,,,,,,,,,,masks/mask_005.jpg,,,,,,,,,,,,,,,,,,,,,,,,,,,,,,,,,,,,,,,,,,,,,,,,0,4,4,4,1,,,,,,,,,,,,,,,,,,,,,,,,,,,,,,,,,,,,,,,,,
362256,001,2022-11-21_24h52.38.531,Info_measure_main_exp,2022.2.2,Win32,59.81934558,,,,,,,,,,,,,,,,,,,,,,,,,,,,,,6,1.4,1,,,,,,,,,,,,0,131,5,5,2274,2250,absent_patch/patch0002274.jpg,absent_patch/patch0002250.jpg,,,,,,,,,,,,,,,,,,,,0.130044843,0.060911786,1,0,0,response1disk,14,0.005231712,0.003363229,1,0,0,center_square,0,13,13,28,1,,,,,,,,,,,,,,,,,,,,,,,
362256,001,2022-11-21_24h52.38.531,Info_measure_main_exp,2022.2.2,Win32,59.81934558,,,,,,,,,,,,,,,,,,masks/mask_001.jpg,,,,,,,,,,,,,,,,,,,,,,,,,,,,,,,,,,,,,,,,,,,0,0,0,0,1,,,,,,,,,,,,,,,,,,,,,,,,,,,,,,,,,,,,,,,,,,,,,,
362256,001,2022-11-21_24h52.38.531,Info_measure_main_exp,2022.2.2,Win32,59.81934558,,,,,,,,,,,,,,,,,,masks/mask_003.jpg,,,,,,,,,,,,,,,,,,,,,,,,,,,,,,,,,,,,,,,,,,,0,1,1,2,1,,,,,,,,,,,,,,,,,,,,,,,,,,,,,,,,,,,,,,,,,,,,,,
362256,001,2022-11-21_24h52.38.531,Info_measure_main_exp,2022.2.2,Win32,59.81934558,,,,,,,,,,,,,,,,,,masks/mask_004.jpg,,,,,,,,,,,,,,,,,,,,,,,,,,,,,,,,,,,,,,,,,,,0,2,2,3,1,,,,,,,,,,,,,,,,,,,,,,,,,,,,,,,,,,,,,,,,,,,,,,
362256,001,2022-11-21_24h52.38.531,Info_measure_main_exp,2022.2.2,Win32,59.81934558,,,,,,,,,,,,,,,,,,masks/mask_005.jpg,,,,,,,,,,,,,,,,,,,,,,,,,,,,,,,,,,,,,,,,,,,0,3,3,4,1,,,,,,,,,,,,,,,,,,,,,,,,,,,,,,,,,,,,,,,,,,,,,,
362256,001,2022-11-21_24h52.38.531,Info_measure_main_exp,2022.2.2,Win32,59.81934558,,,,,,,,,,,,,,,,,,masks/mask_002.jpg,,,,,,,,,,,,,,,,,,,,,,,,,,,,,,,,,,,,,,,,,,,0,4,4,1,1,,,,,,,,,,,,,,,,,,,,,,,,,,,,,,,,,,,,,,,,,,,,,,
362256,001,2022-11-21_24h52.38.531,Info_measure_main_exp,2022.2.2,Win32,59.81934558,,,,,,,,,,,,,,,,,,masks/mask_002.jpg,,,,,,,,,,,,,,,,,,,,,,,,,,,,,,,,,,,,,,,,,,,,,,,,0,0,0,1,1,,,,,,,,,,,,,,,,,,,,,,,,,,,,,,,,,,,,,,,,,
362256,001,2022-11-21_24h52.38.531,Info_measure_main_exp,2022.2.2,Win32,59.81934558,,,,,,,,,,,,,,,,,,masks/mask_005.jpg,,,,,,,,,,,,,,,,,,,,,,,,,,,,,,,,,,,,,,,,,,,,,,,,0,1,1,4,1,,,,,,,,,,,,,,,,,,,,,,,,,,,,,,,,,,,,,,,,,
362256,001,2022-11-21_24h52.38.531,Info_measure_main_exp,2022.2.2,Win32,59.81934558,,,,,,,,,,,,,,,,,,masks/mask_003.jpg,,,,,,,,,,,,,,,,,,,,,,,,,,,,,,,,,,,,,,,,,,,,,,,,0,2,2,2,1,,,,,,,,,,,,,,,,,,,,,,,,,,,,,,,,,,,,,,,,,
362256,001,2022-11-21_24h52.38.531,Info_measure_main_exp,2022.2.2,Win32,59.81934558,,,,,,,,,,,,,,,,,,masks/mask_004.jpg,,,,,,,,,,,,,,,,,,,,,,,,,,,,,,,,,,,,,,,,,,,,,,,,0,3,3,3,1,,,,,,,,,,,,,,,,,,,,,,,,,,,,,,,,,,,,,,,,,
362256,001,2022-11-21_24h52.38.531,Info_measure_main_exp,2022.2.2,Win32,59.81934558,,,,,,,,,,,,,,,,,,masks/mask_001.jpg,,,,,,,,,,,,,,,,,,,,,,,,,,,,,,,,,,,,,,,,,,,,,,,,0,4,4,0,1,,,,,,,,,,,,,,,,,,,,,,,,,,,,,,,,,,,,,,,,,
362256,001,2022-11-21_24h52.38.531,Info_measure_main_exp,2022.2.2,Win32,59.81934558,,,,,,,,,,,,,,,,,,,,,,,,,,,,,,7,1.5503,1,,,,,,,,,,,,0,131,5,5,2166,2298,absent_patch/patch0002166.jpg,absent_patch/patch0002298.jpg,,,,,,,,,,,,,,,,,,,,0.064275083,0.134155445,1,0,0,response1disk,15,0.002989559,-0.004110636,1,0,0,center_square,0,14,14,52,1,,,,,,,,,,,,,,,,,,,,,,,
362256,001,2022-11-21_24h52.38.531,Info_measure_main_exp,2022.2.2,Win32,59.81934558,,,,,,,,,,,,,,,,,,masks/mask_001.jpg,,,,,,,,,,,,,,,,,,,,,,,,,,,,,,,,,,,,,,,,,,,0,0,0,0,1,,,,,,,,,,,,,,,,,,,,,,,,,,,,,,,,,,,,,,,,,,,,,,
362256,001,2022-11-21_24h52.38.531,Info_measure_main_exp,2022.2.2,Win32,59.81934558,,,,,,,,,,,,,,,,,,masks/mask_003.jpg,,,,,,,,,,,,,,,,,,,,,,,,,,,,,,,,,,,,,,,,,,,0,1,1,2,1,,,,,,,,,,,,,,,,,,,,,,,,,,,,,,,,,,,,,,,,,,,,,,
362256,001,2022-11-21_24h52.38.531,Info_measure_main_exp,2022.2.2,Win32,59.81934558,,,,,,,,,,,,,,,,,,masks/mask_002.jpg,,,,,,,,,,,,,,,,,,,,,,,,,,,,,,,,,,,,,,,,,,,0,2,2,1,1,,,,,,,,,,,,,,,,,,,,,,,,,,,,,,,,,,,,,,,,,,,,,,
362256,001,2022-11-21_24h52.38.531,Info_measure_main_exp,2022.2.2,Win32,59.81934558,,,,,,,,,,,,,,,,,,masks/mask_004.jpg,,,,,,,,,,,,,,,,,,,,,,,,,,,,,,,,,,,,,,,,,,,0,3,3,3,1,,,,,,,,,,,,,,,,,,,,,,,,,,,,,,,,,,,,,,,,,,,,,,
362256,001,2022-11-21_24h52.38.531,Info_measure_main_exp,2022.2.2,Win32,59.81934558,,,,,,,,,,,,,,,,,,masks/mask_005.jpg,,,,,,,,,,,,,,,,,,,,,,,,,,,,,,,,,,,,,,,,,,,0,4,4,4,1,,,,,,,,,,,,,,,,,,,,,,,,,,,,,,,,,,,,,,,,,,,,,,
362256,001,2022-11-21_24h52.38.531,Info_measure_main_exp,2022.2.2,Win32,59.81934558,,,,,,,,,,,,,,,,,,masks/mask_004.jpg,,,,,,,,,,,,,,,,,,,,,,,,,,,,,,,,,,,,,,,,,,,,,,,,0,0,0,3,1,,,,,,,,,,,,,,,,,,,,,,,,,,,,,,,,,,,,,,,,,
362256,001,2022-11-21_24h52.38.531,Info_measure_main_exp,2022.2.2,Win32,59.81934558,,,,,,,,,,,,,,,,,,masks/mask_001.jpg,,,,,,,,,,,,,,,,,,,,,,,,,,,,,,,,,,,,,,,,,,,,,,,,0,1,1,0,1,,,,,,,,,,,,,,,,,,,,,,,,,,,,,,,,,,,,,,,,,
362256,001,2022-11-21_24h52.38.531,Info_measure_main_exp,2022.2.2,Win32,59.81934558,,,,,,,,,,,,,,,,,,masks/mask_002.jpg,,,,,,,,,,,,,,,,,,,,,,,,,,,,,,,,,,,,,,,,,,,,,,,,0,2,2,1,1,,,,,,,,,,,,,,,,,,,,,,,,,,,,,,,,,,,,,,,,,
362256,001,2022-11-21_24h52.38.531,Info_measure_main_exp,2022.2.2,Win32,59.81934558,,,,,,,,,,,,,,,,,,masks/mask_003.jpg,,,,,,,,,,,,,,,,,,,,,,,,,,,,,,,,,,,,,,,,,,,,,,,,0,3,3,2,1,,,,,,,,,,,,,,,,,,,,,,,,,,,,,,,,,,,,,,,,,
362256,001,2022-11-21_24h52.38.531,Info_measure_main_exp,2022.2.2,Win32,59.81934558,,,,,,,,,,,,,,,,,,masks/mask_005.jpg,,,,,,,,,,,,,,,,,,,,,,,,,,,,,,,,,,,,,,,,,,,,,,,,0,4,4,4,1,,,,,,,,,,,,,,,,,,,,,,,,,,,,,,,,,,,,,,,,,
362256,001,2022-11-21_24h52.38.531,Info_measure_main_exp,2022.2.2,Win32,59.81934558,,,,,,,,,,,,,,,,,,,,,,,,,,,,,,5,1.7004,1,,,,,,,,,,,,1,131,5,5,1,2166,present_patch/cong_131_5_a.jpg,absent_patch/patch0002166.jpg,,,,,,,,,,,,,,,,,,,,0.136023962,-0.048953685,1,0,0,response3disk,16,-0.000747339,0.001868415,1,0,0,center_square,0,15,15,54,1,,,,,,,,,,,,,,,,,,,,,,,
362256,001,2022-11-21_24h52.38.531,Info_measure_main_exp,2022.2.2,Win32,59.81934558,,,,,,,,,,,,,,,,,,masks/mask_001.jpg,,,,,,,,,,,,,,,,,,,,,,,,,,,,,,,,,,,,,,,,,,,0,0,0,0,1,,,,,,,,,,,,,,,,,,,,,,,,,,,,,,,,,,,,,,,,,,,,,,
362256,001,2022-11-21_24h52.38.531,Info_measure_main_exp,2022.2.2,Win32,59.81934558,,,,,,,,,,,,,,,,,,masks/mask_003.jpg,,,,,,,,,,,,,,,,,,,,,,,,,,,,,,,,,,,,,,,,,,,0,1,1,2,1,,,,,,,,,,,,,,,,,,,,,,,,,,,,,,,,,,,,,,,,,,,,,,
362256,001,2022-11-21_24h52.38.531,Info_measure_main_exp,2022.2.2,Win32,59.81934558,,,,,,,,,,,,,,,,,,masks/mask_005.jpg,,,,,,,,,,,,,,,,,,,,,,,,,,,,,,,,,,,,,,,,,,,0,2,2,4,1,,,,,,,,,,,,,,,,,,,,,,,,,,,,,,,,,,,,,,,,,,,,,,
362256,001,2022-11-21_24h52.38.531,Info_measure_main_exp,2022.2.2,Win32,59.81934558,,,,,,,,,,,,,,,,,,masks/mask_004.jpg,,,,,,,,,,,,,,,,,,,,,,,,,,,,,,,,,,,,,,,,,,,0,3,3,3,1,,,,,,,,,,,,,,,,,,,,,,,,,,,,,,,,,,,,,,,,,,,,,,
362256,001,2022-11-21_24h52.38.531,Info_measure_main_exp,2022.2.2,Win32,59.81934558,,,,,,,,,,,,,,,,,,masks/mask_002.jpg,,,,,,,,,,,,,,,,,,,,,,,,,,,,,,,,,,,,,,,,,,,0,4,4,1,1,,,,,,,,,,,,,,,,,,,,,,,,,,,,,,,,,,,,,,,,,,,,,,
362256,001,2022-11-21_24h52.38.531,Info_measure_main_exp,2022.2.2,Win32,59.81934558,,,,,,,,,,,,,,,,,,masks/mask_003.jpg,,,,,,,,,,,,,,,,,,,,,,,,,,,,,,,,,,,,,,,,,,,,,,,,0,0,0,2,1,,,,,,,,,,,,,,,,,,,,,,,,,,,,,,,,,,,,,,,,,
362256,001,2022-11-21_24h52.38.531,Info_measure_main_exp,2022.2.2,Win32,59.81934558,,,,,,,,,,,,,,,,,,masks/mask_001.jpg,,,,,,,,,,,,,,,,,,,,,,,,,,,,,,,,,,,,,,,,,,,,,,,,0,1,1,0,1,,,,,,,,,,,,,,,,,,,,,,,,,,,,,,,,,,,,,,,,,
362256,001,2022-11-21_24h52.38.531,Info_measure_main_exp,2022.2.2,Win32,59.81934558,,,,,,,,,,,,,,,,,,masks/mask_002.jpg,,,,,,,,,,,,,,,,,,,,,,,,,,,,,,,,,,,,,,,,,,,,,,,,0,2,2,1,1,,,,,,,,,,,,,,,,,,,,,,,,,,,,,,,,,,,,,,,,,
362256,001,2022-11-21_24h52.38.531,Info_measure_main_exp,2022.2.2,Win32,59.81934558,,,,,,,,,,,,,,,,,,masks/mask_005.jpg,,,,,,,,,,,,,,,,,,,,,,,,,,,,,,,,,,,,,,,,,,,,,,,,0,3,3,4,1,,,,,,,,,,,,,,,,,,,,,,,,,,,,,,,,,,,,,,,,,
362256,001,2022-11-21_24h52.38.531,Info_measure_main_exp,2022.2.2,Win32,59.81934558,,,,,,,,,,,,,,,,,,masks/mask_004.jpg,,,,,,,,,,,,,,,,,,,,,,,,,,,,,,,,,,,,,,,,,,,,,,,,0,4,4,3,1,,,,,,,,,,,,,,,,,,,,,,,,,,,,,,,,,,,,,,,,,
362256,001,2022-11-21_24h52.38.531,Info_measure_main_exp,2022.2.2,Win32,59.81934558,,,,,,,,,,,,,,,,,,,,,,,,,,,,,,6,0.9023,1,,,,,,,,,,,,0,131,5,5,2190,1986,absent_patch/patch0002190.jpg,absent_patch/patch0001986.jpg,,,,,,,,,,,,,,,,,,,,0.098654709,0.037742888,1,0,0,response1disk,17,0.006726457,-0.000373738,1,0,0,center_square,0,16,16,111,1,,,,,,,,,,,,,,,,,,,,,,,
362256,001,2022-11-21_24h52.38.531,Info_measure_main_exp,2022.2.2,Win32,59.81934558,,,,,,,,,,,,,,,,,,masks/mask_002.jpg,,,,,,,,,,,,,,,,,,,,,,,,,,,,,,,,,,,,,,,,,,,0,0,0,1,1,,,,,,,,,,,,,,,,,,,,,,,,,,,,,,,,,,,,,,,,,,,,,,
362256,001,2022-11-21_24h52.38.531,Info_measure_main_exp,2022.2.2,Win32,59.81934558,,,,,,,,,,,,,,,,,,masks/mask_003.jpg,,,,,,,,,,,,,,,,,,,,,,,,,,,,,,,,,,,,,,,,,,,0,1,1,2,1,,,,,,,,,,,,,,,,,,,,,,,,,,,,,,,,,,,,,,,,,,,,,,
362256,001,2022-11-21_24h52.38.531,Info_measure_main_exp,2022.2.2,Win32,59.81934558,,,,,,,,,,,,,,,,,,masks/mask_005.jpg,,,,,,,,,,,,,,,,,,,,,,,,,,,,,,,,,,,,,,,,,,,0,2,2,4,1,,,,,,,,,,,,,,,,,,,,,,,,,,,,,,,,,,,,,,,,,,,,,,
362256,001,2022-11-21_24h52.38.531,Info_measure_main_exp,2022.2.2,Win32,59.81934558,,,,,,,,,,,,,,,,,,masks/mask_001.jpg,,,,,,,,,,,,,,,,,,,,,,,,,,,,,,,,,,,,,,,,,,,0,3,3,0,1,,,,,,,,,,,,,,,,,,,,,,,,,,,,,,,,,,,,,,,,,,,,,,
362256,001,2022-11-21_24h52.38.531,Info_measure_main_exp,2022.2.2,Win32,59.81934558,,,,,,,,,,,,,,,,,,masks/mask_004.jpg,,,,,,,,,,,,,,,,,,,,,,,,,,,,,,,,,,,,,,,,,,,0,4,4,3,1,,,,,,,,,,,,,,,,,,,,,,,,,,,,,,,,,,,,,,,,,,,,,,
362256,001,2022-11-21_24h52.38.531,Info_measure_main_exp,2022.2.2,Win32,59.81934558,,,,,,,,,,,,,,,,,,masks/mask_004.jpg,,,,,,,,,,,,,,,,,,,,,,,,,,,,,,,,,,,,,,,,,,,,,,,,0,0,0,3,1,,,,,,,,,,,,,,,,,,,,,,,,,,,,,,,,,,,,,,,,,
362256,001,2022-11-21_24h52.38.531,Info_measure_main_exp,2022.2.2,Win32,59.81934558,,,,,,,,,,,,,,,,,,masks/mask_005.jpg,,,,,,,,,,,,,,,,,,,,,,,,,,,,,,,,,,,,,,,,,,,,,,,,0,1,1,4,1,,,,,,,,,,,,,,,,,,,,,,,,,,,,,,,,,,,,,,,,,
362256,001,2022-11-21_24h52.38.531,Info_measure_main_exp,2022.2.2,Win32,59.81934558,,,,,,,,,,,,,,,,,,masks/mask_002.jpg,,,,,,,,,,,,,,,,,,,,,,,,,,,,,,,,,,,,,,,,,,,,,,,,0,2,2,1,1,,,,,,,,,,,,,,,,,,,,,,,,,,,,,,,,,,,,,,,,,
362256,001,2022-11-21_24h52.38.531,Info_measure_main_exp,2022.2.2,Win32,59.81934558,,,,,,,,,,,,,,,,,,masks/mask_001.jpg,,,,,,,,,,,,,,,,,,,,,,,,,,,,,,,,,,,,,,,,,,,,,,,,0,3,3,0,1,,,,,,,,,,,,,,,,,,,,,,,,,,,,,,,,,,,,,,,,,
362256,001,2022-11-21_24h52.38.531,Info_measure_main_exp,2022.2.2,Win32,59.81934558,,,,,,,,,,,,,,,,,,masks/mask_003.jpg,,,,,,,,,,,,,,,,,,,,,,,,,,,,,,,,,,,,,,,,,,,,,,,,0,4,4,2,1,,,,,,,,,,,,,,,,,,,,,,,,,,,,,,,,,,,,,,,,,
362256,001,2022-11-21_24h52.38.531,Info_measure_main_exp,2022.2.2,Win32,59.81934558,,,,,,,,,,,,,,,,,,,,,,,,,,,,,,0,0.9662,1,,,,,,,,,,,,0,131,5,5,2166,2166,absent_patch/patch0002166.jpg,absent_patch/patch0002166.jpg,,,,,,,,,,,,,,,,,,,,-0.042600897,0.137892377,1,0,0,response7disk,18,-0.00896861,0.000373669,1,0,0,center_square,0,17,17,42,1,,,,,,,,,,,,,,,,,,,,,,,
362256,001,2022-11-21_24h52.38.531,Info_measure_main_exp,2022.2.2,Win32,59.81934558,,,,,,,,,,,,,,,,,,masks/mask_001.jpg,,,,,,,,,,,,,,,,,,,,,,,,,,,,,,,,,,,,,,,,,,,0,0,0,0,1,,,,,,,,,,,,,,,,,,,,,,,,,,,,,,,,,,,,,,,,,,,,,,
362256,001,2022-11-21_24h52.38.531,Info_measure_main_exp,2022.2.2,Win32,59.81934558,,,,,,,,,,,,,,,,,,masks/mask_003.jpg,,,,,,,,,,,,,,,,,,,,,,,,,,,,,,,,,,,,,,,,,,,0,1,1,2,1,,,,,,,,,,,,,,,,,,,,,,,,,,,,,,,,,,,,,,,,,,,,,,
362256,001,2022-11-21_24h52.38.531,Info_measure_main_exp,2022.2.2,Win32,59.81934558,,,,,,,,,,,,,,,,,,masks/mask_004.jpg,,,,,,,,,,,,,,,,,,,,,,,,,,,,,,,,,,,,,,,,,,,0,2,2,3,1,,,,,,,,,,,,,,,,,,,,,,,,,,,,,,,,,,,,,,,,,,,,,,
362256,001,2022-11-21_24h52.38.531,Info_measure_main_exp,2022.2.2,Win32,59.81934558,,,,,,,,,,,,,,,,,,masks/mask_002.jpg,,,,,,,,,,,,,,,,,,,,,,,,,,,,,,,,,,,,,,,,,,,0,3,3,1,1,,,,,,,,,,,,,,,,,,,,,,,,,,,,,,,,,,,,,,,,,,,,,,
362256,001,2022-11-21_24h52.38.531,Info_measure_main_exp,2022.2.2,Win32,59.81934558,,,,,,,,,,,,,,,,,,masks/mask_005.jpg,,,,,,,,,,,,,,,,,,,,,,,,,,,,,,,,,,,,,,,,,,,0,4,4,4,1,,,,,,,,,,,,,,,,,,,,,,,,,,,,,,,,,,,,,,,,,,,,,,
362256,001,2022-11-21_24h52.38.531,Info_measure_main_exp,2022.2.2,Win32,59.81934558,,,,,,,,,,,,,,,,,,masks/mask_003.jpg,,,,,,,,,,,,,,,,,,,,,,,,,,,,,,,,,,,,,,,,,,,,,,,,0,0,0,2,1,,,,,,,,,,,,,,,,,,,,,,,,,,,,,,,,,,,,,,,,,
362256,001,2022-11-21_24h52.38.531,Info_measure_main_exp,2022.2.2,Win32,59.81934558,,,,,,,,,,,,,,,,,,masks/mask_005.jpg,,,,,,,,,,,,,,,,,,,,,,,,,,,,,,,,,,,,,,,,,,,,,,,,0,1,1,4,1,,,,,,,,,,,,,,,,,,,,,,,,,,,,,,,,,,,,,,,,,
362256,001,2022-11-21_24h52.38.531,Info_measure_main_exp,2022.2.2,Win32,59.81934558,,,,,,,,,,,,,,,,,,masks/mask_001.jpg,,,,,,,,,,,,,,,,,,,,,,,,,,,,,,,,,,,,,,,,,,,,,,,,0,2,2,0,1,,,,,,,,,,,,,,,,,,,,,,,,,,,,,,,,,,,,,,,,,
362256,001,2022-11-21_24h52.38.531,Info_measure_main_exp,2022.2.2,Win32,59.81934558,,,,,,,,,,,,,,,,,,masks/mask_004.jpg,,,,,,,,,,,,,,,,,,,,,,,,,,,,,,,,,,,,,,,,,,,,,,,,0,3,3,3,1,,,,,,,,,,,,,,,,,,,,,,,,,,,,,,,,,,,,,,,,,
362256,001,2022-11-21_24h52.38.531,Info_measure_main_exp,2022.2.2,Win32,59.81934558,,,,,,,,,,,,,,,,,,masks/mask_002.jpg,,,,,,,,,,,,,,,,,,,,,,,,,,,,,,,,,,,,,,,,,,,,,,,,0,4,4,1,1,,,,,,,,,,,,,,,,,,,,,,,,,,,,,,,,,,,,,,,,,
362256,001,2022-11-21_24h52.38.531,Info_measure_main_exp,2022.2.2,Win32,59.81934558,,,,,,,,,,,,,,,,,,,,,,,,,,,,,,6,3.4176,1,,,,,,,,,,,,0,131,5,5,1950,2178,absent_patch/patch0001950.jpg,absent_patch/patch0002178.jpg,,,,,,,,,,,,,,,,,,,,0.168161435,0.048953651,1,0,0,response1disk,19,0.006726457,0.000373669,1,0,0,center_square,0,18,18,61,1,,,,,,,,,,,,,,,,,,,,,,,
362256,001,2022-11-21_24h52.38.531,Info_measure_main_exp,2022.2.2,Win32,59.81934558,,,,,,,,,,,,,,,,,,masks/mask_002.jpg,,,,,,,,,,,,,,,,,,,,,,,,,,,,,,,,,,,,,,,,,,,0,0,0,1,1,,,,,,,,,,,,,,,,,,,,,,,,,,,,,,,,,,,,,,,,,,,,,,
362256,001,2022-11-21_24h52.38.531,Info_measure_main_exp,2022.2.2,Win32,59.81934558,,,,,,,,,,,,,,,,,,masks/mask_005.jpg,,,,,,,,,,,,,,,,,,,,,,,,,,,,,,,,,,,,,,,,,,,0,1,1,4,1,,,,,,,,,,,,,,,,,,,,,,,,,,,,,,,,,,,,,,,,,,,,,,
362256,001,2022-11-21_24h52.38.531,Info_measure_main_exp,2022.2.2,Win32,59.81934558,,,,,,,,,,,,,,,,,,masks/mask_003.jpg,,,,,,,,,,,,,,,,,,,,,,,,,,,,,,,,,,,,,,,,,,,0,2,2,2,1,,,,,,,,,,,,,,,,,,,,,,,,,,,,,,,,,,,,,,,,,,,,,,
362256,001,2022-11-21_24h52.38.531,Info_measure_main_exp,2022.2.2,Win32,59.81934558,,,,,,,,,,,,,,,,,,masks/mask_001.jpg,,,,,,,,,,,,,,,,,,,,,,,,,,,,,,,,,,,,,,,,,,,0,3,3,0,1,,,,,,,,,,,,,,,,,,,,,,,,,,,,,,,,,,,,,,,,,,,,,,
362256,001,2022-11-21_24h52.38.531,Info_measure_main_exp,2022.2.2,Win32,59.81934558,,,,,,,,,,,,,,,,,,masks/mask_004.jpg,,,,,,,,,,,,,,,,,,,,,,,,,,,,,,,,,,,,,,,,,,,0,4,4,3,1,,,,,,,,,,,,,,,,,,,,,,,,,,,,,,,,,,,,,,,,,,,,,,
362256,001,2022-11-21_24h52.38.531,Info_measure_main_exp,2022.2.2,Win32,59.81934558,,,,,,,,,,,,,,,,,,masks/mask_005.jpg,,,,,,,,,,,,,,,,,,,,,,,,,,,,,,,,,,,,,,,,,,,,,,,,0,0,0,4,1,,,,,,,,,,,,,,,,,,,,,,,,,,,,,,,,,,,,,,,,,
362256,001,2022-11-21_24h52.38.531,Info_measure_main_exp,2022.2.2,Win32,59.81934558,,,,,,,,,,,,,,,,,,masks/mask_001.jpg,,,,,,,,,,,,,,,,,,,,,,,,,,,,,,,,,,,,,,,,,,,,,,,,0,1,1,0,1,,,,,,,,,,,,,,,,,,,,,,,,,,,,,,,,,,,,,,,,,
362256,001,2022-11-21_24h52.38.531,Info_measure_main_exp,2022.2.2,Win32,59.81934558,,,,,,,,,,,,,,,,,,masks/mask_002.jpg,,,,,,,,,,,,,,,,,,,,,,,,,,,,,,,,,,,,,,,,,,,,,,,,0,2,2,1,1,,,,,,,,,,,,,,,,,,,,,,,,,,,,,,,,,,,,,,,,,
362256,001,2022-11-21_24h52.38.531,Info_measure_main_exp,2022.2.2,Win32,59.81934558,,,,,,,,,,,,,,,,,,masks/mask_004.jpg,,,,,,,,,,,,,,,,,,,,,,,,,,,,,,,,,,,,,,,,,,,,,,,,0,3,3,3,1,,,,,,,,,,,,,,,,,,,,,,,,,,,,,,,,,,,,,,,,,
362256,001,2022-11-21_24h52.38.531,Info_measure_main_exp,2022.2.2,Win32,59.81934558,,,,,,,,,,,,,,,,,,masks/mask_003.jpg,,,,,,,,,,,,,,,,,,,,,,,,,,,,,,,,,,,,,,,,,,,,,,,,0,4,4,2,1,,,,,,,,,,,,,,,,,,,,,,,,,,,,,,,,,,,,,,,,,
362256,001,2022-11-21_24h52.38.531,Info_measure_main_exp,2022.2.2,Win32,59.81934558,,,,,,,,,,,,,,,,,,,,,,,,,,,,,,6,1.5166,1,,,,,,,,,,,,0,131,5,5,2154,2214,absent_patch/patch0002154.jpg,absent_patch/patch0002214.jpg,,,,,,,,,,,,,,,,,,,,0.165919283,0.074364701,1,0,0,response1disk,20,-0.002242152,0.009342279,1,0,0,center_square,0,19,19,67,1,,,,,,,,,,,,,,,,,,,,,,,
362256,001,2022-11-21_24h52.38.531,Info_measure_main_exp,2022.2.2,Win32,59.81934558,,,,,,,,,,,,,,,,,,masks/mask_001.jpg,,,,,,,,,,,,,,,,,,,,,,,,,,,,,,,,,,,,,,,,,,,0,0,0,0,1,,,,,,,,,,,,,,,,,,,,,,,,,,,,,,,,,,,,,,,,,,,,,,
362256,001,2022-11-21_24h52.38.531,Info_measure_main_exp,2022.2.2,Win32,59.81934558,,,,,,,,,,,,,,,,,,masks/mask_005.jpg,,,,,,,,,,,,,,,,,,,,,,,,,,,,,,,,,,,,,,,,,,,0,1,1,4,1,,,,,,,,,,,,,,,,,,,,,,,,,,,,,,,,,,,,,,,,,,,,,,
362256,001,2022-11-21_24h52.38.531,Info_measure_main_exp,2022.2.2,Win32,59.81934558,,,,,,,,,,,,,,,,,,masks/mask_003.jpg,,,,,,,,,,,,,,,,,,,,,,,,,,,,,,,,,,,,,,,,,,,0,2,2,2,1,,,,,,,,,,,,,,,,,,,,,,,,,,,,,,,,,,,,,,,,,,,,,,
362256,001,2022-11-21_24h52.38.531,Info_measure_main_exp,2022.2.2,Win32,59.81934558,,,,,,,,,,,,,,,,,,masks/mask_002.jpg,,,,,,,,,,,,,,,,,,,,,,,,,,,,,,,,,,,,,,,,,,,0,3,3,1,1,,,,,,,,,,,,,,,,,,,,,,,,,,,,,,,,,,,,,,,,,,,,,,
362256,001,2022-11-21_24h52.38.531,Info_measure_main_exp,2022.2.2,Win32,59.81934558,,,,,,,,,,,,,,,,,,masks/mask_004.jpg,,,,,,,,,,,,,,,,,,,,,,,,,,,,,,,,,,,,,,,,,,,0,4,4,3,1,,,,,,,,,,,,,,,,,,,,,,,,,,,,,,,,,,,,,,,,,,,,,,
362256,001,2022-11-21_24h52.38.531,Info_measure_main_exp,2022.2.2,Win32,59.81934558,,,,,,,,,,,,,,,,,,masks/mask_002.jpg,,,,,,,,,,,,,,,,,,,,,,,,,,,,,,,,,,,,,,,,,,,,,,,,0,0,0,1,1,,,,,,,,,,,,,,,,,,,,,,,,,,,,,,,,,,,,,,,,,
362256,001,2022-11-21_24h52.38.531,Info_measure_main_exp,2022.2.2,Win32,59.81934558,,,,,,,,,,,,,,,,,,masks/mask_001.jpg,,,,,,,,,,,,,,,,,,,,,,,,,,,,,,,,,,,,,,,,,,,,,,,,0,1,1,0,1,,,,,,,,,,,,,,,,,,,,,,,,,,,,,,,,,,,,,,,,,
362256,001,2022-11-21_24h52.38.531,Info_measure_main_exp,2022.2.2,Win32,59.81934558,,,,,,,,,,,,,,,,,,masks/mask_003.jpg,,,,,,,,,,,,,,,,,,,,,,,,,,,,,,,,,,,,,,,,,,,,,,,,0,2,2,2,1,,,,,,,,,,,,,,,,,,,,,,,,,,,,,,,,,,,,,,,,,
362256,001,2022-11-21_24h52.38.531,Info_measure_main_exp,2022.2.2,Win32,59.81934558,,,,,,,,,,,,,,,,,,masks/mask_004.jpg,,,,,,,,,,,,,,,,,,,,,,,,,,,,,,,,,,,,,,,,,,,,,,,,0,3,3,3,1,,,,,,,,,,,,,,,,,,,,,,,,,,,,,,,,,,,,,,,,,
362256,001,2022-11-21_24h52.38.531,Info_measure_main_exp,2022.2.2,Win32,59.81934558,,,,,,,,,,,,,,,,,,masks/mask_005.jpg,,,,,,,,,,,,,,,,,,,,,,,,,,,,,,,,,,,,,,,,,,,,,,,,0,4,4,4,1,,,,,,,,,,,,,,,,,,,,,,,,,,,,,,,,,,,,,,,,,
362256,001,2022-11-21_24h52.38.531,Info_measure_main_exp,2022.2.2,Win32,59.81934558,,,,,,,,,,,,,,,,,,,,,,,,,,,,,,7,0.7178,1,,,,,,,,,,,,0,131,5,5,2298,1986,absent_patch/patch0002298.jpg,absent_patch/patch0001986.jpg,,,,,,,,,,,,,,,,,,,,0.076233184,0.140134529,1,0,0,response1disk,21,0.008221271,0.007847534,1,0,0,center_square,0,20,20,32,1,,,,,,,,,,,,,,,,,,,,,,,
362256,001,2022-11-21_24h52.38.531,Info_measure_main_exp,2022.2.2,Win32,59.81934558,,,,,,,,,,,,,,,,,,masks/mask_005.jpg,,,,,,,,,,,,,,,,,,,,,,,,,,,,,,,,,,,,,,,,,,,0,0,0,4,1,,,,,,,,,,,,,,,,,,,,,,,,,,,,,,,,,,,,,,,,,,,,,,
362256,001,2022-11-21_24h52.38.531,Info_measure_main_exp,2022.2.2,Win32,59.81934558,,,,,,,,,,,,,,,,,,masks/mask_001.jpg,,,,,,,,,,,,,,,,,,,,,,,,,,,,,,,,,,,,,,,,,,,0,1,1,0,1,,,,,,,,,,,,,,,,,,,,,,,,,,,,,,,,,,,,,,,,,,,,,,
362256,001,2022-11-21_24h52.38.531,Info_measure_main_exp,2022.2.2,Win32,59.81934558,,,,,,,,,,,,,,,,,,masks/mask_004.jpg,,,,,,,,,,,,,,,,,,,,,,,,,,,,,,,,,,,,,,,,,,,0,2,2,3,1,,,,,,,,,,,,,,,,,,,,,,,,,,,,,,,,,,,,,,,,,,,,,,
362256,001,2022-11-21_24h52.38.531,Info_measure_main_exp,2022.2.2,Win32,59.81934558,,,,,,,,,,,,,,,,,,masks/mask_003.jpg,,,,,,,,,,,,,,,,,,,,,,,,,,,,,,,,,,,,,,,,,,,0,3,3,2,1,,,,,,,,,,,,,,,,,,,,,,,,,,,,,,,,,,,,,,,,,,,,,,
362256,001,2022-11-21_24h52.38.531,Info_measure_main_exp,2022.2.2,Win32,59.81934558,,,,,,,,,,,,,,,,,,masks/mask_002.jpg,,,,,,,,,,,,,,,,,,,,,,,,,,,,,,,,,,,,,,,,,,,0,4,4,1,1,,,,,,,,,,,,,,,,,,,,,,,,,,,,,,,,,,,,,,,,,,,,,,
362256,001,2022-11-21_24h52.38.531,Info_measure_main_exp,2022.2.2,Win32,59.81934558,,,,,,,,,,,,,,,,,,masks/mask_004.jpg,,,,,,,,,,,,,,,,,,,,,,,,,,,,,,,,,,,,,,,,,,,,,,,,0,0,0,3,1,,,,,,,,,,,,,,,,,,,,,,,,,,,,,,,,,,,,,,,,,
362256,001,2022-11-21_24h52.38.531,Info_measure_main_exp,2022.2.2,Win32,59.81934558,,,,,,,,,,,,,,,,,,masks/mask_003.jpg,,,,,,,,,,,,,,,,,,,,,,,,,,,,,,,,,,,,,,,,,,,,,,,,0,1,1,2,1,,,,,,,,,,,,,,,,,,,,,,,,,,,,,,,,,,,,,,,,,
362256,001,2022-11-21_24h52.38.531,Info_measure_main_exp,2022.2.2,Win32,59.81934558,,,,,,,,,,,,,,,,,,masks/mask_002.jpg,,,,,,,,,,,,,,,,,,,,,,,,,,,,,,,,,,,,,,,,,,,,,,,,0,2,2,1,1,,,,,,,,,,,,,,,,,,,,,,,,,,,,,,,,,,,,,,,,,
362256,001,2022-11-21_24h52.38.531,Info_measure_main_exp,2022.2.2,Win32,59.81934558,,,,,,,,,,,,,,,,,,masks/mask_001.jpg,,,,,,,,,,,,,,,,,,,,,,,,,,,,,,,,,,,,,,,,,,,,,,,,0,3,3,0,1,,,,,,,,,,,,,,,,,,,,,,,,,,,,,,,,,,,,,,,,,
362256,001,2022-11-21_24h52.38.531,Info_measure_main_exp,2022.2.2,Win32,59.81934558,,,,,,,,,,,,,,,,,,masks/mask_005.jpg,,,,,,,,,,,,,,,,,,,,,,,,,,,,,,,,,,,,,,,,,,,,,,,,0,4,4,4,1,,,,,,,,,,,,,,,,,,,,,,,,,,,,,,,,,,,,,,,,,
362256,001,2022-11-21_24h52.38.531,Info_measure_main_exp,2022.2.2,Win32,59.81934558,,,,,,,,,,,,,,,,,,,,,,,,,,,,,,7,1.0156,1,,,,,,,,,,,,0,131,5,5,1974,2250,absent_patch/patch0001974.jpg,absent_patch/patch0002250.jpg,,,,,,,,,,,,,,,,,,,,0.085201794,0.140881902,1,0,0,response1disk,22,0.014947729,0.009342279,1,0,0,center_square,0,21,21,55,1,,,,,,,,,,,,,,,,,,,,,,,
362256,001,2022-11-21_24h52.38.531,Info_measure_main_exp,2022.2.2,Win32,59.81934558,,,,,,,,,,,,,,,,,,masks/mask_005.jpg,,,,,,,,,,,,,,,,,,,,,,,,,,,,,,,,,,,,,,,,,,,0,0,0,4,1,,,,,,,,,,,,,,,,,,,,,,,,,,,,,,,,,,,,,,,,,,,,,,
362256,001,2022-11-21_24h52.38.531,Info_measure_main_exp,2022.2.2,Win32,59.81934558,,,,,,,,,,,,,,,,,,masks/mask_004.jpg,,,,,,,,,,,,,,,,,,,,,,,,,,,,,,,,,,,,,,,,,,,0,1,1,3,1,,,,,,,,,,,,,,,,,,,,,,,,,,,,,,,,,,,,,,,,,,,,,,
362256,001,2022-11-21_24h52.38.531,Info_measure_main_exp,2022.2.2,Win32,59.81934558,,,,,,,,,,,,,,,,,,masks/mask_002.jpg,,,,,,,,,,,,,,,,,,,,,,,,,,,,,,,,,,,,,,,,,,,0,2,2,1,1,,,,,,,,,,,,,,,,,,,,,,,,,,,,,,,,,,,,,,,,,,,,,,
362256,001,2022-11-21_24h52.38.531,Info_measure_main_exp,2022.2.2,Win32,59.81934558,,,,,,,,,,,,,,,,,,masks/mask_003.jpg,,,,,,,,,,,,,,,,,,,,,,,,,,,,,,,,,,,,,,,,,,,0,3,3,2,1,,,,,,,,,,,,,,,,,,,,,,,,,,,,,,,,,,,,,,,,,,,,,,
362256,001,2022-11-21_24h52.38.531,Info_measure_main_exp,2022.2.2,Win32,59.81934558,,,,,,,,,,,,,,,,,,masks/mask_001.jpg,,,,,,,,,,,,,,,,,,,,,,,,,,,,,,,,,,,,,,,,,,,0,4,4,0,1,,,,,,,,,,,,,,,,,,,,,,,,,,,,,,,,,,,,,,,,,,,,,,
362256,001,2022-11-21_24h52.38.531,Info_measure_main_exp,2022.2.2,Win32,59.81934558,,,,,,,,,,,,,,,,,,masks/mask_001.jpg,,,,,,,,,,,,,,,,,,,,,,,,,,,,,,,,,,,,,,,,,,,,,,,,0,0,0,0,1,,,,,,,,,,,,,,,,,,,,,,,,,,,,,,,,,,,,,,,,,
362256,001,2022-11-21_24h52.38.531,Info_measure_main_exp,2022.2.2,Win32,59.81934558,,,,,,,,,,,,,,,,,,masks/mask_004.jpg,,,,,,,,,,,,,,,,,,,,,,,,,,,,,,,,,,,,,,,,,,,,,,,,0,1,1,3,1,,,,,,,,,,,,,,,,,,,,,,,,,,,,,,,,,,,,,,,,,
362256,001,2022-11-21_24h52.38.531,Info_measure_main_exp,2022.2.2,Win32,59.81934558,,,,,,,,,,,,,,,,,,masks/mask_003.jpg,,,,,,,,,,,,,,,,,,,,,,,,,,,,,,,,,,,,,,,,,,,,,,,,0,2,2,2,1,,,,,,,,,,,,,,,,,,,,,,,,,,,,,,,,,,,,,,,,,
362256,001,2022-11-21_24h52.38.531,Info_measure_main_exp,2022.2.2,Win32,59.81934558,,,,,,,,,,,,,,,,,,masks/mask_005.jpg,,,,,,,,,,,,,,,,,,,,,,,,,,,,,,,,,,,,,,,,,,,,,,,,0,3,3,4,1,,,,,,,,,,,,,,,,,,,,,,,,,,,,,,,,,,,,,,,,,
362256,001,2022-11-21_24h52.38.531,Info_measure_main_exp,2022.2.2,Win32,59.81934558,,,,,,,,,,,,,,,,,,masks/mask_002.jpg,,,,,,,,,,,,,,,,,,,,,,,,,,,,,,,,,,,,,,,,,,,,,,,,0,4,4,1,1,,,,,,,,,,,,,,,,,,,,,,,,,,,,,,,,,,,,,,,,,
362256,001,2022-11-21_24h52.38.531,Info_measure_main_exp,2022.2.2,Win32,59.81934558,,,,,,,,,,,,,,,,,,,,,,,,,,,,,,6,0.771,1,,,,,,,,,,,,0,131,5,5,1950,2298,absent_patch/patch0001950.jpg,absent_patch/patch0002298.jpg,,,,,,,,,,,,,,,,,,,,0.075485845,0.008594906,1,0,0,response1disk,23,-0.002989491,-0.007100195,1,0,0,center_square,0,22,22,18,1,,,,,,,,,,,,,,,,,,,,,,,
362256,001,2022-11-21_24h52.38.531,Info_measure_main_exp,2022.2.2,Win32,59.81934558,,,,,,,,,,,,,,,,,,masks/mask_001.jpg,,,,,,,,,,,,,,,,,,,,,,,,,,,,,,,,,,,,,,,,,,,0,0,0,0,1,,,,,,,,,,,,,,,,,,,,,,,,,,,,,,,,,,,,,,,,,,,,,,
362256,001,2022-11-21_24h52.38.531,Info_measure_main_exp,2022.2.2,Win32,59.81934558,,,,,,,,,,,,,,,,,,masks/mask_003.jpg,,,,,,,,,,,,,,,,,,,,,,,,,,,,,,,,,,,,,,,,,,,0,1,1,2,1,,,,,,,,,,,,,,,,,,,,,,,,,,,,,,,,,,,,,,,,,,,,,,
362256,001,2022-11-21_24h52.38.531,Info_measure_main_exp,2022.2.2,Win32,59.81934558,,,,,,,,,,,,,,,,,,masks/mask_005.jpg,,,,,,,,,,,,,,,,,,,,,,,,,,,,,,,,,,,,,,,,,,,0,2,2,4,1,,,,,,,,,,,,,,,,,,,,,,,,,,,,,,,,,,,,,,,,,,,,,,
362256,001,2022-11-21_24h52.38.531,Info_measure_main_exp,2022.2.2,Win32,59.81934558,,,,,,,,,,,,,,,,,,masks/mask_004.jpg,,,,,,,,,,,,,,,,,,,,,,,,,,,,,,,,,,,,,,,,,,,0,3,3,3,1,,,,,,,,,,,,,,,,,,,,,,,,,,,,,,,,,,,,,,,,,,,,,,
362256,001,2022-11-21_24h52.38.531,Info_measure_main_exp,2022.2.2,Win32,59.81934558,,,,,,,,,,,,,,,,,,masks/mask_002.jpg,,,,,,,,,,,,,,,,,,,,,,,,,,,,,,,,,,,,,,,,,,,0,4,4,1,1,,,,,,,,,,,,,,,,,,,,,,,,,,,,,,,,,,,,,,,,,,,,,,
362256,001,2022-11-21_24h52.38.531,Info_measure_main_exp,2022.2.2,Win32,59.81934558,,,,,,,,,,,,,,,,,,masks/mask_002.jpg,,,,,,,,,,,,,,,,,,,,,,,,,,,,,,,,,,,,,,,,,,,,,,,,0,0,0,1,1,,,,,,,,,,,,,,,,,,,,,,,,,,,,,,,,,,,,,,,,,
362256,001,2022-11-21_24h52.38.531,Info_measure_main_exp,2022.2.2,Win32,59.81934558,,,,,,,,,,,,,,,,,,masks/mask_005.jpg,,,,,,,,,,,,,,,,,,,,,,,,,,,,,,,,,,,,,,,,,,,,,,,,0,1,1,4,1,,,,,,,,,,,,,,,,,,,,,,,,,,,,,,,,,,,,,,,,,
362256,001,2022-11-21_24h52.38.531,Info_measure_main_exp,2022.2.2,Win32,59.81934558,,,,,,,,,,,,,,,,,,masks/mask_001.jpg,,,,,,,,,,,,,,,,,,,,,,,,,,,,,,,,,,,,,,,,,,,,,,,,0,2,2,0,1,,,,,,,,,,,,,,,,,,,,,,,,,,,,,,,,,,,,,,,,,
362256,001,2022-11-21_24h52.38.531,Info_measure_main_exp,2022.2.2,Win32,59.81934558,,,,,,,,,,,,,,,,,,masks/mask_004.jpg,,,,,,,,,,,,,,,,,,,,,,,,,,,,,,,,,,,,,,,,,,,,,,,,0,3,3,3,1,,,,,,,,,,,,,,,,,,,,,,,,,,,,,,,,,,,,,,,,,
362256,001,2022-11-21_24h52.38.531,Info_measure_main_exp,2022.2.2,Win32,59.81934558,,,,,,,,,,,,,,,,,,masks/mask_003.jpg,,,,,,,,,,,,,,,,,,,,,,,,,,,,,,,,,,,,,,,,,,,,,,,,0,4,4,2,1,,,,,,,,,,,,,,,,,,,,,,,,,,,,,,,,,,,,,,,,,
362256,001,2022-11-21_24h52.38.531,Info_measure_main_exp,2022.2.2,Win32,59.81934558,,,,,,,,,,,,,,,,,,,,,,,,,,,,,,6,1.0531,1,,,,,,,,,,,,0,131,5,5,1974,2166,absent_patch/patch0001974.jpg,absent_patch/patch0002166.jpg,,,,,,,,,,,,,,,,,,,,0.137518707,0.067638243,1,0,0,response1disk,24,0.01793722,0.009342279,1,0,0,center_square,0,23,23,77,1,,,,,,,,,,,,,,,,,,,,,,,
362256,001,2022-11-21_24h52.38.531,Info_measure_main_exp,2022.2.2,Win32,59.81934558,,,,,,,,,,,,,,,,,,masks/mask_005.jpg,,,,,,,,,,,,,,,,,,,,,,,,,,,,,,,,,,,,,,,,,,,0,0,0,4,1,,,,,,,,,,,,,,,,,,,,,,,,,,,,,,,,,,,,,,,,,,,,,,
362256,001,2022-11-21_24h52.38.531,Info_measure_main_exp,2022.2.2,Win32,59.81934558,,,,,,,,,,,,,,,,,,masks/mask_002.jpg,,,,,,,,,,,,,,,,,,,,,,,,,,,,,,,,,,,,,,,,,,,0,1,1,1,1,,,,,,,,,,,,,,,,,,,,,,,,,,,,,,,,,,,,,,,,,,,,,,
362256,001,2022-11-21_24h52.38.531,Info_measure_main_exp,2022.2.2,Win32,59.81934558,,,,,,,,,,,,,,,,,,masks/mask_004.jpg,,,,,,,,,,,,,,,,,,,,,,,,,,,,,,,,,,,,,,,,,,,0,2,2,3,1,,,,,,,,,,,,,,,,,,,,,,,,,,,,,,,,,,,,,,,,,,,,,,
362256,001,2022-11-21_24h52.38.531,Info_measure_main_exp,2022.2.2,Win32,59.81934558,,,,,,,,,,,,,,,,,,masks/mask_003.jpg,,,,,,,,,,,,,,,,,,,,,,,,,,,,,,,,,,,,,,,,,,,0,3,3,2,1,,,,,,,,,,,,,,,,,,,,,,,,,,,,,,,,,,,,,,,,,,,,,,
362256,001,2022-11-21_24h52.38.531,Info_measure_main_exp,2022.2.2,Win32,59.81934558,,,,,,,,,,,,,,,,,,masks/mask_001.jpg,,,,,,,,,,,,,,,,,,,,,,,,,,,,,,,,,,,,,,,,,,,0,4,4,0,1,,,,,,,,,,,,,,,,,,,,,,,,,,,,,,,,,,,,,,,,,,,,,,
362256,001,2022-11-21_24h52.38.531,Info_measure_main_exp,2022.2.2,Win32,59.81934558,,,,,,,,,,,,,,,,,,masks/mask_002.jpg,,,,,,,,,,,,,,,,,,,,,,,,,,,,,,,,,,,,,,,,,,,,,,,,0,0,0,1,1,,,,,,,,,,,,,,,,,,,,,,,,,,,,,,,,,,,,,,,,,
362256,001,2022-11-21_24h52.38.531,Info_measure_main_exp,2022.2.2,Win32,59.81934558,,,,,,,,,,,,,,,,,,masks/mask_004.jpg,,,,,,,,,,,,,,,,,,,,,,,,,,,,,,,,,,,,,,,,,,,,,,,,0,1,1,3,1,,,,,,,,,,,,,,,,,,,,,,,,,,,,,,,,,,,,,,,,,
362256,001,2022-11-21_24h52.38.531,Info_measure_main_exp,2022.2.2,Win32,59.81934558,,,,,,,,,,,,,,,,,,masks/mask_001.jpg,,,,,,,,,,,,,,,,,,,,,,,,,,,,,,,,,,,,,,,,,,,,,,,,0,2,2,0,1,,,,,,,,,,,,,,,,,,,,,,,,,,,,,,,,,,,,,,,,,
362256,001,2022-11-21_24h52.38.531,Info_measure_main_exp,2022.2.2,Win32,59.81934558,,,,,,,,,,,,,,,,,,masks/mask_005.jpg,,,,,,,,,,,,,,,,,,,,,,,,,,,,,,,,,,,,,,,,,,,,,,,,0,3,3,4,1,,,,,,,,,,,,,,,,,,,,,,,,,,,,,,,,,,,,,,,,,
362256,001,2022-11-21_24h52.38.531,Info_measure_main_exp,2022.2.2,Win32,59.81934558,,,,,,,,,,,,,,,,,,masks/mask_003.jpg,,,,,,,,,,,,,,,,,,,,,,,,,,,,,,,,,,,,,,,,,,,,,,,,0,4,4,2,1,,,,,,,,,,,,,,,,,,,,,,,,,,,,,,,,,,,,,,,,,
362256,001,2022-11-21_24h52.38.531,Info_measure_main_exp,2022.2.2,Win32,59.81934558,,,,,,,,,,,,,,,,,,,,,,,,,,,,,,7,0.8013,1,,,,,,,,,,,,0,131,5,5,1974,2142,absent_patch/patch0001974.jpg,absent_patch/patch0002142.jpg,,,,,,,,,,,,,,,,,,,,0.074738438,0.135650224,1,0,0,response1disk,25,0.013452915,0.010089686,1,0,0,center_square,0,24,24,38,1,,,,,,,,,,,,,,,,,,,,,,,
362256,001,2022-11-21_24h52.38.531,Info_measure_main_exp,2022.2.2,Win32,59.81934558,,,,,,,,,,,,,,,,,,masks/mask_003.jpg,,,,,,,,,,,,,,,,,,,,,,,,,,,,,,,,,,,,,,,,,,,0,0,0,2,1,,,,,,,,,,,,,,,,,,,,,,,,,,,,,,,,,,,,,,,,,,,,,,
362256,001,2022-11-21_24h52.38.531,Info_measure_main_exp,2022.2.2,Win32,59.81934558,,,,,,,,,,,,,,,,,,masks/mask_005.jpg,,,,,,,,,,,,,,,,,,,,,,,,,,,,,,,,,,,,,,,,,,,0,1,1,4,1,,,,,,,,,,,,,,,,,,,,,,,,,,,,,,,,,,,,,,,,,,,,,,
362256,001,2022-11-21_24h52.38.531,Info_measure_main_exp,2022.2.2,Win32,59.81934558,,,,,,,,,,,,,,,,,,masks/mask_002.jpg,,,,,,,,,,,,,,,,,,,,,,,,,,,,,,,,,,,,,,,,,,,0,2,2,1,1,,,,,,,,,,,,,,,,,,,,,,,,,,,,,,,,,,,,,,,,,,,,,,
362256,001,2022-11-21_24h52.38.531,Info_measure_main_exp,2022.2.2,Win32,59.81934558,,,,,,,,,,,,,,,,,,masks/mask_001.jpg,,,,,,,,,,,,,,,,,,,,,,,,,,,,,,,,,,,,,,,,,,,0,3,3,0,1,,,,,,,,,,,,,,,,,,,,,,,,,,,,,,,,,,,,,,,,,,,,,,
362256,001,2022-11-21_24h52.38.531,Info_measure_main_exp,2022.2.2,Win32,59.81934558,,,,,,,,,,,,,,,,,,masks/mask_004.jpg,,,,,,,,,,,,,,,,,,,,,,,,,,,,,,,,,,,,,,,,,,,0,4,4,3,1,,,,,,,,,,,,,,,,,,,,,,,,,,,,,,,,,,,,,,,,,,,,,,
362256,001,2022-11-21_24h52.38.531,Info_measure_main_exp,2022.2.2,Win32,59.81934558,,,,,,,,,,,,,,,,,,masks/mask_005.jpg,,,,,,,,,,,,,,,,,,,,,,,,,,,,,,,,,,,,,,,,,,,,,,,,0,0,0,4,1,,,,,,,,,,,,,,,,,,,,,,,,,,,,,,,,,,,,,,,,,
362256,001,2022-11-21_24h52.38.531,Info_measure_main_exp,2022.2.2,Win32,59.81934558,,,,,,,,,,,,,,,,,,masks/mask_004.jpg,,,,,,,,,,,,,,,,,,,,,,,,,,,,,,,,,,,,,,,,,,,,,,,,0,1,1,3,1,,,,,,,,,,,,,,,,,,,,,,,,,,,,,,,,,,,,,,,,,
362256,001,2022-11-21_24h52.38.531,Info_measure_main_exp,2022.2.2,Win32,59.81934558,,,,,,,,,,,,,,,,,,masks/mask_003.jpg,,,,,,,,,,,,,,,,,,,,,,,,,,,,,,,,,,,,,,,,,,,,,,,,0,2,2,2,1,,,,,,,,,,,,,,,,,,,,,,,,,,,,,,,,,,,,,,,,,
362256,001,2022-11-21_24h52.38.531,Info_measure_main_exp,2022.2.2,Win32,59.81934558,,,,,,,,,,,,,,,,,,masks/mask_002.jpg,,,,,,,,,,,,,,,,,,,,,,,,,,,,,,,,,,,,,,,,,,,,,,,,0,3,3,1,1,,,,,,,,,,,,,,,,,,,,,,,,,,,,,,,,,,,,,,,,,
362256,001,2022-11-21_24h52.38.531,Info_measure_main_exp,2022.2.2,Win32,59.81934558,,,,,,,,,,,,,,,,,,masks/mask_001.jpg,,,,,,,,,,,,,,,,,,,,,,,,,,,,,,,,,,,,,,,,,,,,,,,,0,4,4,0,1,,,,,,,,,,,,,,,,,,,,,,,,,,,,,,,,,,,,,,,,,
362256,001,2022-11-21_24h52.38.531,Info_measure_main_exp,2022.2.2,Win32,59.81934558,,,,,,,,,,,,,,,,,,,,,,,,,,,,,,5,1.4486,1,,,,,,,,,,,,0,131,5,5,2082,1986,absent_patch/patch0002082.jpg,absent_patch/patch0001986.jpg,,,,,,,,,,,,,,,,,,,,0.086696608,-0.027279567,1,0,0,response3disk,26,0.000747407,0.002615822,1,0,0,center_square,0,25,25,94,1,,,,,,,,,,,,,,,,,,,,,,,
362256,001,2022-11-21_24h52.38.531,Info_measure_main_exp,2022.2.2,Win32,59.81934558,,,,,,,,,,,,,,,,,,masks/mask_005.jpg,,,,,,,,,,,,,,,,,,,,,,,,,,,,,,,,,,,,,,,,,,,0,0,0,4,1,,,,,,,,,,,,,,,,,,,,,,,,,,,,,,,,,,,,,,,,,,,,,,
362256,001,2022-11-21_24h52.38.531,Info_measure_main_exp,2022.2.2,Win32,59.81934558,,,,,,,,,,,,,,,,,,masks/mask_004.jpg,,,,,,,,,,,,,,,,,,,,,,,,,,,,,,,,,,,,,,,,,,,0,1,1,3,1,,,,,,,,,,,,,,,,,,,,,,,,,,,,,,,,,,,,,,,,,,,,,,
362256,001,2022-11-21_24h52.38.531,Info_measure_main_exp,2022.2.2,Win32,59.81934558,,,,,,,,,,,,,,,,,,masks/mask_003.jpg,,,,,,,,,,,,,,,,,,,,,,,,,,,,,,,,,,,,,,,,,,,0,2,2,2,1,,,,,,,,,,,,,,,,,,,,,,,,,,,,,,,,,,,,,,,,,,,,,,
362256,001,2022-11-21_24h52.38.531,Info_measure_main_exp,2022.2.2,Win32,59.81934558,,,,,,,,,,,,,,,,,,masks/mask_001.jpg,,,,,,,,,,,,,,,,,,,,,,,,,,,,,,,,,,,,,,,,,,,0,3,3,0,1,,,,,,,,,,,,,,,,,,,,,,,,,,,,,,,,,,,,,,,,,,,,,,
362256,001,2022-11-21_24h52.38.531,Info_measure_main_exp,2022.2.2,Win32,59.81934558,,,,,,,,,,,,,,,,,,masks/mask_002.jpg,,,,,,,,,,,,,,,,,,,,,,,,,,,,,,,,,,,,,,,,,,,0,4,4,1,1,,,,,,,,,,,,,,,,,,,,,,,,,,,,,,,,,,,,,,,,,,,,,,
362256,001,2022-11-21_24h52.38.531,Info_measure_main_exp,2022.2.2,Win32,59.81934558,,,,,,,,,,,,,,,,,,masks/mask_005.jpg,,,,,,,,,,,,,,,,,,,,,,,,,,,,,,,,,,,,,,,,,,,,,,,,0,0,0,4,1,,,,,,,,,,,,,,,,,,,,,,,,,,,,,,,,,,,,,,,,,
362256,001,2022-11-21_24h52.38.531,Info_measure_main_exp,2022.2.2,Win32,59.81934558,,,,,,,,,,,,,,,,,,masks/mask_002.jpg,,,,,,,,,,,,,,,,,,,,,,,,,,,,,,,,,,,,,,,,,,,,,,,,0,1,1,1,1,,,,,,,,,,,,,,,,,,,,,,,,,,,,,,,,,,,,,,,,,
362256,001,2022-11-21_24h52.38.531,Info_measure_main_exp,2022.2.2,Win32,59.81934558,,,,,,,,,,,,,,,,,,masks/mask_001.jpg,,,,,,,,,,,,,,,,,,,,,,,,,,,,,,,,,,,,,,,,,,,,,,,,0,2,2,0,1,,,,,,,,,,,,,,,,,,,,,,,,,,,,,,,,,,,,,,,,,
362256,001,2022-11-21_24h52.38.531,Info_measure_main_exp,2022.2.2,Win32,59.81934558,,,,,,,,,,,,,,,,,,masks/mask_004.jpg,,,,,,,,,,,,,,,,,,,,,,,,,,,,,,,,,,,,,,,,,,,,,,,,0,3,3,3,1,,,,,,,,,,,,,,,,,,,,,,,,,,,,,,,,,,,,,,,,,
362256,001,2022-11-21_24h52.38.531,Info_measure_main_exp,2022.2.2,Win32,59.81934558,,,,,,,,,,,,,,,,,,masks/mask_003.jpg,,,,,,,,,,,,,,,,,,,,,,,,,,,,,,,,,,,,,,,,,,,,,,,,0,4,4,2,1,,,,,,,,,,,,,,,,,,,,,,,,,,,,,,,,,,,,,,,,,
362256,001,2022-11-21_24h52.38.531,Info_measure_main_exp,2022.2.2,Win32,59.81934558,,,,,,,,,,,,,,,,,,,,,,,,,,,,,,0,0.6506,1,,,,,,,,,,,,0,131,5,5,2154,2154,absent_patch/patch0002154.jpg,absent_patch/patch0002154.jpg,,,,,,,,,,,,,,,,,,,,-0.055306405,0.147608359,1,0,0,response7disk,27,0.002989559,-0.004110636,1,0,0,center_square,0,26,26,89,1,,,,,,,,,,,,,,,,,,,,,,,
362256,001,2022-11-21_24h52.38.531,Info_measure_main_exp,2022.2.2,Win32,59.81934558,,,,,,,,,,,,,,,,,,masks/mask_005.jpg,,,,,,,,,,,,,,,,,,,,,,,,,,,,,,,,,,,,,,,,,,,0,0,0,4,1,,,,,,,,,,,,,,,,,,,,,,,,,,,,,,,,,,,,,,,,,,,,,,
362256,001,2022-11-21_24h52.38.531,Info_measure_main_exp,2022.2.2,Win32,59.81934558,,,,,,,,,,,,,,,,,,masks/mask_003.jpg,,,,,,,,,,,,,,,,,,,,,,,,,,,,,,,,,,,,,,,,,,,0,1,1,2,1,,,,,,,,,,,,,,,,,,,,,,,,,,,,,,,,,,,,,,,,,,,,,,
362256,001,2022-11-21_24h52.38.531,Info_measure_main_exp,2022.2.2,Win32,59.81934558,,,,,,,,,,,,,,,,,,masks/mask_004.jpg,,,,,,,,,,,,,,,,,,,,,,,,,,,,,,,,,,,,,,,,,,,0,2,2,3,1,,,,,,,,,,,,,,,,,,,,,,,,,,,,,,,,,,,,,,,,,,,,,,
362256,001,2022-11-21_24h52.38.531,Info_measure_main_exp,2022.2.2,Win32,59.81934558,,,,,,,,,,,,,,,,,,masks/mask_001.jpg,,,,,,,,,,,,,,,,,,,,,,,,,,,,,,,,,,,,,,,,,,,0,3,3,0,1,,,,,,,,,,,,,,,,,,,,,,,,,,,,,,,,,,,,,,,,,,,,,,
362256,001,2022-11-21_24h52.38.531,Info_measure_main_exp,2022.2.2,Win32,59.81934558,,,,,,,,,,,,,,,,,,masks/mask_002.jpg,,,,,,,,,,,,,,,,,,,,,,,,,,,,,,,,,,,,,,,,,,,0,4,4,1,1,,,,,,,,,,,,,,,,,,,,,,,,,,,,,,,,,,,,,,,,,,,,,,
362256,001,2022-11-21_24h52.38.531,Info_measure_main_exp,2022.2.2,Win32,59.81934558,,,,,,,,,,,,,,,,,,masks/mask_004.jpg,,,,,,,,,,,,,,,,,,,,,,,,,,,,,,,,,,,,,,,,,,,,,,,,0,0,0,3,1,,,,,,,,,,,,,,,,,,,,,,,,,,,,,,,,,,,,,,,,,
362256,001,2022-11-21_24h52.38.531,Info_measure_main_exp,2022.2.2,Win32,59.81934558,,,,,,,,,,,,,,,,,,masks/mask_001.jpg,,,,,,,,,,,,,,,,,,,,,,,,,,,,,,,,,,,,,,,,,,,,,,,,0,1,1,0,1,,,,,,,,,,,,,,,,,,,,,,,,,,,,,,,,,,,,,,,,,
362256,001,2022-11-21_24h52.38.531,Info_measure_main_exp,2022.2.2,Win32,59.81934558,,,,,,,,,,,,,,,,,,masks/mask_003.jpg,,,,,,,,,,,,,,,,,,,,,,,,,,,,,,,,,,,,,,,,,,,,,,,,0,2,2,2,1,,,,,,,,,,,,,,,,,,,,,,,,,,,,,,,,,,,,,,,,,
362256,001,2022-11-21_24h52.38.531,Info_measure_main_exp,2022.2.2,Win32,59.81934558,,,,,,,,,,,,,,,,,,masks/mask_002.jpg,,,,,,,,,,,,,,,,,,,,,,,,,,,,,,,,,,,,,,,,,,,,,,,,0,3,3,1,1,,,,,,,,,,,,,,,,,,,,,,,,,,,,,,,,,,,,,,,,,
362256,001,2022-11-21_24h52.38.531,Info_measure_main_exp,2022.2.2,Win32,59.81934558,,,,,,,,,,,,,,,,,,masks/mask_005.jpg,,,,,,,,,,,,,,,,,,,,,,,,,,,,,,,,,,,,,,,,,,,,,,,,0,4,4,4,1,,,,,,,,,,,,,,,,,,,,,,,,,,,,,,,,,,,,,,,,,
362256,001,2022-11-21_24h52.38.531,Info_measure_main_exp,2022.2.2,Win32,59.81934558,,,,,,,,,,,,,,,,,,,,,,,,,,,,,,0,0.6855,1,,,,,,,,,,,,0,131,5,5,2082,2082,absent_patch/patch0002082.jpg,absent_patch/patch0002082.jpg,,,,,,,,,,,,,,,,,,,,-0.056053812,0.103512683,1,0,0,response7disk,28,-0.004484305,-0.013826652,1,0,0,center_square,0,27,27,74,1,,,,,,,,,,,,,,,,,,,,,,,
362256,001,2022-11-21_24h52.38.531,Info_measure_main_exp,2022.2.2,Win32,59.81934558,,,,,,,,,,,,,,,,,,masks/mask_002.jpg,,,,,,,,,,,,,,,,,,,,,,,,,,,,,,,,,,,,,,,,,,,0,0,0,1,1,,,,,,,,,,,,,,,,,,,,,,,,,,,,,,,,,,,,,,,,,,,,,,
362256,001,2022-11-21_24h52.38.531,Info_measure_main_exp,2022.2.2,Win32,59.81934558,,,,,,,,,,,,,,,,,,masks/mask_003.jpg,,,,,,,,,,,,,,,,,,,,,,,,,,,,,,,,,,,,,,,,,,,0,1,1,2,1,,,,,,,,,,,,,,,,,,,,,,,,,,,,,,,,,,,,,,,,,,,,,,
362256,001,2022-11-21_24h52.38.531,Info_measure_main_exp,2022.2.2,Win32,59.81934558,,,,,,,,,,,,,,,,,,masks/mask_001.jpg,,,,,,,,,,,,,,,,,,,,,,,,,,,,,,,,,,,,,,,,,,,0,2,2,0,1,,,,,,,,,,,,,,,,,,,,,,,,,,,,,,,,,,,,,,,,,,,,,,
362256,001,2022-11-21_24h52.38.531,Info_measure_main_exp,2022.2.2,Win32,59.81934558,,,,,,,,,,,,,,,,,,masks/mask_005.jpg,,,,,,,,,,,,,,,,,,,,,,,,,,,,,,,,,,,,,,,,,,,0,3,3,4,1,,,,,,,,,,,,,,,,,,,,,,,,,,,,,,,,,,,,,,,,,,,,,,
362256,001,2022-11-21_24h52.38.531,Info_measure_main_exp,2022.2.2,Win32,59.81934558,,,,,,,,,,,,,,,,,,masks/mask_004.jpg,,,,,,,,,,,,,,,,,,,,,,,,,,,,,,,,,,,,,,,,,,,0,4,4,3,1,,,,,,,,,,,,,,,,,,,,,,,,,,,,,,,,,,,,,,,,,,,,,,
362256,001,2022-11-21_24h52.38.531,Info_measure_main_exp,2022.2.2,Win32,59.81934558,,,,,,,,,,,,,,,,,,masks/mask_004.jpg,,,,,,,,,,,,,,,,,,,,,,,,,,,,,,,,,,,,,,,,,,,,,,,,0,0,0,3,1,,,,,,,,,,,,,,,,,,,,,,,,,,,,,,,,,,,,,,,,,
362256,001,2022-11-21_24h52.38.531,Info_measure_main_exp,2022.2.2,Win32,59.81934558,,,,,,,,,,,,,,,,,,masks/mask_003.jpg,,,,,,,,,,,,,,,,,,,,,,,,,,,,,,,,,,,,,,,,,,,,,,,,0,1,1,2,1,,,,,,,,,,,,,,,,,,,,,,,,,,,,,,,,,,,,,,,,,
362256,001,2022-11-21_24h52.38.531,Info_measure_main_exp,2022.2.2,Win32,59.81934558,,,,,,,,,,,,,,,,,,masks/mask_001.jpg,,,,,,,,,,,,,,,,,,,,,,,,,,,,,,,,,,,,,,,,,,,,,,,,0,2,2,0,1,,,,,,,,,,,,,,,,,,,,,,,,,,,,,,,,,,,,,,,,,
362256,001,2022-11-21_24h52.38.531,Info_measure_main_exp,2022.2.2,Win32,59.81934558,,,,,,,,,,,,,,,,,,masks/mask_005.jpg,,,,,,,,,,,,,,,,,,,,,,,,,,,,,,,,,,,,,,,,,,,,,,,,0,3,3,4,1,,,,,,,,,,,,,,,,,,,,,,,,,,,,,,,,,,,,,,,,,
362256,001,2022-11-21_24h52.38.531,Info_measure_main_exp,2022.2.2,Win32,59.81934558,,,,,,,,,,,,,,,,,,masks/mask_002.jpg,,,,,,,,,,,,,,,,,,,,,,,,,,,,,,,,,,,,,,,,,,,,,,,,0,4,4,1,1,,,,,,,,,,,,,,,,,,,,,,,,,,,,,,,,,,,,,,,,,
362256,001,2022-11-21_24h52.38.531,Info_measure_main_exp,2022.2.2,Win32,59.81934558,,,,,,,,,,,,,,,,,,,,,,,,,,,,,,3,3.7665,1,,,,,,,,,,,,0,131,5,5,2214,2082,absent_patch/patch0002214.jpg,absent_patch/patch0002082.jpg,,,,,,,,,,,,,,,,,,,,-0.011958101,-0.113976107,1,0,0,response5disk,29,0.002242152,-0.004858043,1,0,0,center_square,0,28,28,103,1,,,,,,,,,,,,,,,,,,,,,,,
362256,001,2022-11-21_24h52.38.531,Info_measure_main_exp,2022.2.2,Win32,59.81934558,,,,,,,,,,,,,,,,,,masks/mask_004.jpg,,,,,,,,,,,,,,,,,,,,,,,,,,,,,,,,,,,,,,,,,,,0,0,0,3,1,,,,,,,,,,,,,,,,,,,,,,,,,,,,,,,,,,,,,,,,,,,,,,
362256,001,2022-11-21_24h52.38.531,Info_measure_main_exp,2022.2.2,Win32,59.81934558,,,,,,,,,,,,,,,,,,masks/mask_001.jpg,,,,,,,,,,,,,,,,,,,,,,,,,,,,,,,,,,,,,,,,,,,0,1,1,0,1,,,,,,,,,,,,,,,,,,,,,,,,,,,,,,,,,,,,,,,,,,,,,,
362256,001,2022-11-21_24h52.38.531,Info_measure_main_exp,2022.2.2,Win32,59.81934558,,,,,,,,,,,,,,,,,,masks/mask_003.jpg,,,,,,,,,,,,,,,,,,,,,,,,,,,,,,,,,,,,,,,,,,,0,2,2,2,1,,,,,,,,,,,,,,,,,,,,,,,,,,,,,,,,,,,,,,,,,,,,,,
362256,001,2022-11-21_24h52.38.531,Info_measure_main_exp,2022.2.2,Win32,59.81934558,,,,,,,,,,,,,,,,,,masks/mask_005.jpg,,,,,,,,,,,,,,,,,,,,,,,,,,,,,,,,,,,,,,,,,,,0,3,3,4,1,,,,,,,,,,,,,,,,,,,,,,,,,,,,,,,,,,,,,,,,,,,,,,
362256,001,2022-11-21_24h52.38.531,Info_measure_main_exp,2022.2.2,Win32,59.81934558,,,,,,,,,,,,,,,,,,masks/mask_002.jpg,,,,,,,,,,,,,,,,,,,,,,,,,,,,,,,,,,,,,,,,,,,0,4,4,1,1,,,,,,,,,,,,,,,,,,,,,,,,,,,,,,,,,,,,,,,,,,,,,,
362256,001,2022-11-21_24h52.38.531,Info_measure_main_exp,2022.2.2,Win32,59.81934558,,,,,,,,,,,,,,,,,,masks/mask_003.jpg,,,,,,,,,,,,,,,,,,,,,,,,,,,,,,,,,,,,,,,,,,,,,,,,0,0,0,2,1,,,,,,,,,,,,,,,,,,,,,,,,,,,,,,,,,,,,,,,,,
362256,001,2022-11-21_24h52.38.531,Info_measure_main_exp,2022.2.2,Win32,59.81934558,,,,,,,,,,,,,,,,,,masks/mask_001.jpg,,,,,,,,,,,,,,,,,,,,,,,,,,,,,,,,,,,,,,,,,,,,,,,,0,1,1,0,1,,,,,,,,,,,,,,,,,,,,,,,,,,,,,,,,,,,,,,,,,
362256,001,2022-11-21_24h52.38.531,Info_measure_main_exp,2022.2.2,Win32,59.81934558,,,,,,,,,,,,,,,,,,masks/mask_004.jpg,,,,,,,,,,,,,,,,,,,,,,,,,,,,,,,,,,,,,,,,,,,,,,,,0,2,2,3,1,,,,,,,,,,,,,,,,,,,,,,,,,,,,,,,,,,,,,,,,,
362256,001,2022-11-21_24h52.38.531,Info_measure_main_exp,2022.2.2,Win32,59.81934558,,,,,,,,,,,,,,,,,,masks/mask_005.jpg,,,,,,,,,,,,,,,,,,,,,,,,,,,,,,,,,,,,,,,,,,,,,,,,0,3,3,4,1,,,,,,,,,,,,,,,,,,,,,,,,,,,,,,,,,,,,,,,,,
362256,001,2022-11-21_24h52.38.531,Info_measure_main_exp,2022.2.2,Win32,59.81934558,,,,,,,,,,,,,,,,,,masks/mask_002.jpg,,,,,,,,,,,,,,,,,,,,,,,,,,,,,,,,,,,,,,,,,,,,,,,,0,4,4,1,1,,,,,,,,,,,,,,,,,,,,,,,,,,,,,,,,,,,,,,,,,
362256,001,2022-11-21_24h52.38.531,Info_measure_main_exp,2022.2.2,Win32,59.81934558,,,,,,,,,,,,,,,,,,,,,,,,,,,,,,6,0.7792,1,,,,,,,,,,,,0,131,5,5,2190,1950,absent_patch/patch0002190.jpg,absent_patch/patch0001950.jpg,,,,,,,,,,,,,,,,,,,,0.071748879,0.019058296,1,0,0,response1disk,30,-0.005231643,-0.007100195,1,0,0,center_square,0,29,29,73,1,,,,,,,,,,,,,,,,,,,,,,,
362256,001,2022-11-21_24h52.38.531,Info_measure_main_exp,2022.2.2,Win32,59.81934558,,,,,,,,,,,,,,,,,,masks/mask_003.jpg,,,,,,,,,,,,,,,,,,,,,,,,,,,,,,,,,,,,,,,,,,,0,0,0,2,1,,,,,,,,,,,,,,,,,,,,,,,,,,,,,,,,,,,,,,,,,,,,,,
362256,001,2022-11-21_24h52.38.531,Info_measure_main_exp,2022.2.2,Win32,59.81934558,,,,,,,,,,,,,,,,,,masks/mask_005.jpg,,,,,,,,,,,,,,,,,,,,,,,,,,,,,,,,,,,,,,,,,,,0,1,1,4,1,,,,,,,,,,,,,,,,,,,,,,,,,,,,,,,,,,,,,,,,,,,,,,
362256,001,2022-11-21_24h52.38.531,Info_measure_main_exp,2022.2.2,Win32,59.81934558,,,,,,,,,,,,,,,,,,masks/mask_001.jpg,,,,,,,,,,,,,,,,,,,,,,,,,,,,,,,,,,,,,,,,,,,0,2,2,0,1,,,,,,,,,,,,,,,,,,,,,,,,,,,,,,,,,,,,,,,,,,,,,,
362256,001,2022-11-21_24h52.38.531,Info_measure_main_exp,2022.2.2,Win32,59.81934558,,,,,,,,,,,,,,,,,,masks/mask_002.jpg,,,,,,,,,,,,,,,,,,,,,,,,,,,,,,,,,,,,,,,,,,,0,3,3,1,1,,,,,,,,,,,,,,,,,,,,,,,,,,,,,,,,,,,,,,,,,,,,,,
362256,001,2022-11-21_24h52.38.531,Info_measure_main_exp,2022.2.2,Win32,59.81934558,,,,,,,,,,,,,,,,,,masks/mask_004.jpg,,,,,,,,,,,,,,,,,,,,,,,,,,,,,,,,,,,,,,,,,,,0,4,4,3,1,,,,,,,,,,,,,,,,,,,,,,,,,,,,,,,,,,,,,,,,,,,,,,
362256,001,2022-11-21_24h52.38.531,Info_measure_main_exp,2022.2.2,Win32,59.81934558,,,,,,,,,,,,,,,,,,masks/mask_005.jpg,,,,,,,,,,,,,,,,,,,,,,,,,,,,,,,,,,,,,,,,,,,,,,,,0,0,0,4,1,,,,,,,,,,,,,,,,,,,,,,,,,,,,,,,,,,,,,,,,,
362256,001,2022-11-21_24h52.38.531,Info_measure_main_exp,2022.2.2,Win32,59.81934558,,,,,,,,,,,,,,,,,,masks/mask_002.jpg,,,,,,,,,,,,,,,,,,,,,,,,,,,,,,,,,,,,,,,,,,,,,,,,0,1,1,1,1,,,,,,,,,,,,,,,,,,,,,,,,,,,,,,,,,,,,,,,,,
362256,001,2022-11-21_24h52.38.531,Info_measure_main_exp,2022.2.2,Win32,59.81934558,,,,,,,,,,,,,,,,,,masks/mask_001.jpg,,,,,,,,,,,,,,,,,,,,,,,,,,,,,,,,,,,,,,,,,,,,,,,,0,2,2,0,1,,,,,,,,,,,,,,,,,,,,,,,,,,,,,,,,,,,,,,,,,
362256,001,2022-11-21_24h52.38.531,Info_measure_main_exp,2022.2.2,Win32,59.81934558,,,,,,,,,,,,,,,,,,masks/mask_003.jpg,,,,,,,,,,,,,,,,,,,,,,,,,,,,,,,,,,,,,,,,,,,,,,,,0,3,3,2,1,,,,,,,,,,,,,,,,,,,,,,,,,,,,,,,,,,,,,,,,,
362256,001,2022-11-21_24h52.38.531,Info_measure_main_exp,2022.2.2,Win32,59.81934558,,,,,,,,,,,,,,,,,,masks/mask_004.jpg,,,,,,,,,,,,,,,,,,,,,,,,,,,,,,,,,,,,,,,,,,,,,,,,0,4,4,3,1,,,,,,,,,,,,,,,,,,,,,,,,,,,,,,,,,,,,,,,,,
362256,001,2022-11-21_24h52.38.531,Info_measure_main_exp,2022.2.2,Win32,59.81934558,,,,,,,,,,,,,,,,,,,,,,,,,,,,,,0,0.7173,1,,,,,,,,,,,,0,131,5,5,2214,2214,absent_patch/patch0002214.jpg,absent_patch/patch0002214.jpg,,,,,,,,,,,,,,,,,,,,-0.047085202,0.080343785,1,0,0,response7disk,31,-0.000747339,-0.001868483,1,0,0,center_square,0,30,30,115,1,,,,,,,,,,,,,,,,,,,,,,,
362256,001,2022-11-21_24h52.38.531,Info_measure_main_exp,2022.2.2,Win32,59.81934558,,,,,,,,,,,,,,,,,,masks/mask_001.jpg,,,,,,,,,,,,,,,,,,,,,,,,,,,,,,,,,,,,,,,,,,,0,0,0,0,1,,,,,,,,,,,,,,,,,,,,,,,,,,,,,,,,,,,,,,,,,,,,,,
362256,001,2022-11-21_24h52.38.531,Info_measure_main_exp,2022.2.2,Win32,59.81934558,,,,,,,,,,,,,,,,,,masks/mask_005.jpg,,,,,,,,,,,,,,,,,,,,,,,,,,,,,,,,,,,,,,,,,,,0,1,1,4,1,,,,,,,,,,,,,,,,,,,,,,,,,,,,,,,,,,,,,,,,,,,,,,
362256,001,2022-11-21_24h52.38.531,Info_measure_main_exp,2022.2.2,Win32,59.81934558,,,,,,,,,,,,,,,,,,masks/mask_003.jpg,,,,,,,,,,,,,,,,,,,,,,,,,,,,,,,,,,,,,,,,,,,0,2,2,2,1,,,,,,,,,,,,,,,,,,,,,,,,,,,,,,,,,,,,,,,,,,,,,,
362256,001,2022-11-21_24h52.38.531,Info_measure_main_exp,2022.2.2,Win32,59.81934558,,,,,,,,,,,,,,,,,,masks/mask_002.jpg,,,,,,,,,,,,,,,,,,,,,,,,,,,,,,,,,,,,,,,,,,,0,3,3,1,1,,,,,,,,,,,,,,,,,,,,,,,,,,,,,,,,,,,,,,,,,,,,,,
362256,001,2022-11-21_24h52.38.531,Info_measure_main_exp,2022.2.2,Win32,59.81934558,,,,,,,,,,,,,,,,,,masks/mask_004.jpg,,,,,,,,,,,,,,,,,,,,,,,,,,,,,,,,,,,,,,,,,,,0,4,4,3,1,,,,,,,,,,,,,,,,,,,,,,,,,,,,,,,,,,,,,,,,,,,,,,
362256,001,2022-11-21_24h52.38.531,Info_measure_main_exp,2022.2.2,Win32,59.81934558,,,,,,,,,,,,,,,,,,masks/mask_001.jpg,,,,,,,,,,,,,,,,,,,,,,,,,,,,,,,,,,,,,,,,,,,,,,,,0,0,0,0,1,,,,,,,,,,,,,,,,,,,,,,,,,,,,,,,,,,,,,,,,,
362256,001,2022-11-21_24h52.38.531,Info_measure_main_exp,2022.2.2,Win32,59.81934558,,,,,,,,,,,,,,,,,,masks/mask_004.jpg,,,,,,,,,,,,,,,,,,,,,,,,,,,,,,,,,,,,,,,,,,,,,,,,0,1,1,3,1,,,,,,,,,,,,,,,,,,,,,,,,,,,,,,,,,,,,,,,,,
362256,001,2022-11-21_24h52.38.531,Info_measure_main_exp,2022.2.2,Win32,59.81934558,,,,,,,,,,,,,,,,,,masks/mask_003.jpg,,,,,,,,,,,,,,,,,,,,,,,,,,,,,,,,,,,,,,,,,,,,,,,,0,2,2,2,1,,,,,,,,,,,,,,,,,,,,,,,,,,,,,,,,,,,,,,,,,
362256,001,2022-11-21_24h52.38.531,Info_measure_main_exp,2022.2.2,Win32,59.81934558,,,,,,,,,,,,,,,,,,masks/mask_002.jpg,,,,,,,,,,,,,,,,,,,,,,,,,,,,,,,,,,,,,,,,,,,,,,,,0,3,3,1,1,,,,,,,,,,,,,,,,,,,,,,,,,,,,,,,,,,,,,,,,,
362256,001,2022-11-21_24h52.38.531,Info_measure_main_exp,2022.2.2,Win32,59.81934558,,,,,,,,,,,,,,,,,,masks/mask_005.jpg,,,,,,,,,,,,,,,,,,,,,,,,,,,,,,,,,,,,,,,,,,,,,,,,0,4,4,4,1,,,,,,,,,,,,,,,,,,,,,,,,,,,,,,,,,,,,,,,,,
362256,001,2022-11-21_24h52.38.531,Info_measure_main_exp,2022.2.2,Win32,59.81934558,,,,,,,,,,,,,,,,,,,,,,,,,,,,,,6,2.5643,1,,,,,,,,,,,,0,131,5,5,2250,2298,absent_patch/patch0002250.jpg,absent_patch/patch0002298.jpg,,,,,,,,,,,,,,,,,,,,0.088191353,0.025784753,1,0,0,response1disk,32,0.008221271,0.005605381,1,0,0,center_square,0,31,31,59,1,,,,,,,,,,,,,,,,,,,,,,,
362256,001,2022-11-21_24h52.38.531,Info_measure_main_exp,2022.2.2,Win32,59.81934558,,,,,,,,,,,,,,,,,,masks/mask_002.jpg,,,,,,,,,,,,,,,,,,,,,,,,,,,,,,,,,,,,,,,,,,,0,0,0,1,1,,,,,,,,,,,,,,,,,,,,,,,,,,,,,,,,,,,,,,,,,,,,,,
362256,001,2022-11-21_24h52.38.531,Info_measure_main_exp,2022.2.2,Win32,59.81934558,,,,,,,,,,,,,,,,,,masks/mask_004.jpg,,,,,,,,,,,,,,,,,,,,,,,,,,,,,,,,,,,,,,,,,,,0,1,1,3,1,,,,,,,,,,,,,,,,,,,,,,,,,,,,,,,,,,,,,,,,,,,,,,
362256,001,2022-11-21_24h52.38.531,Info_measure_main_exp,2022.2.2,Win32,59.81934558,,,,,,,,,,,,,,,,,,masks/mask_005.jpg,,,,,,,,,,,,,,,,,,,,,,,,,,,,,,,,,,,,,,,,,,,0,2,2,4,1,,,,,,,,,,,,,,,,,,,,,,,,,,,,,,,,,,,,,,,,,,,,,,
362256,001,2022-11-21_24h52.38.531,Info_measure_main_exp,2022.2.2,Win32,59.81934558,,,,,,,,,,,,,,,,,,masks/mask_003.jpg,,,,,,,,,,,,,,,,,,,,,,,,,,,,,,,,,,,,,,,,,,,0,3,3,2,1,,,,,,,,,,,,,,,,,,,,,,,,,,,,,,,,,,,,,,,,,,,,,,
362256,001,2022-11-21_24h52.38.531,Info_measure_main_exp,2022.2.2,Win32,59.81934558,,,,,,,,,,,,,,,,,,masks/mask_001.jpg,,,,,,,,,,,,,,,,,,,,,,,,,,,,,,,,,,,,,,,,,,,0,4,4,0,1,,,,,,,,,,,,,,,,,,,,,,,,,,,,,,,,,,,,,,,,,,,,,,
362256,001,2022-11-21_24h52.38.531,Info_measure_main_exp,2022.2.2,Win32,59.81934558,,,,,,,,,,,,,,,,,,masks/mask_002.jpg,,,,,,,,,,,,,,,,,,,,,,,,,,,,,,,,,,,,,,,,,,,,,,,,0,0,0,1,1,,,,,,,,,,,,,,,,,,,,,,,,,,,,,,,,,,,,,,,,,
362256,001,2022-11-21_24h52.38.531,Info_measure_main_exp,2022.2.2,Win32,59.81934558,,,,,,,,,,,,,,,,,,masks/mask_004.jpg,,,,,,,,,,,,,,,,,,,,,,,,,,,,,,,,,,,,,,,,,,,,,,,,0,1,1,3,1,,,,,,,,,,,,,,,,,,,,,,,,,,,,,,,,,,,,,,,,,
362256,001,2022-11-21_24h52.38.531,Info_measure_main_exp,2022.2.2,Win32,59.81934558,,,,,,,,,,,,,,,,,,masks/mask_001.jpg,,,,,,,,,,,,,,,,,,,,,,,,,,,,,,,,,,,,,,,,,,,,,,,,0,2,2,0,1,,,,,,,,,,,,,,,,,,,,,,,,,,,,,,,,,,,,,,,,,
362256,001,2022-11-21_24h52.38.531,Info_measure_main_exp,2022.2.2,Win32,59.81934558,,,,,,,,,,,,,,,,,,masks/mask_005.jpg,,,,,,,,,,,,,,,,,,,,,,,,,,,,,,,,,,,,,,,,,,,,,,,,0,3,3,4,1,,,,,,,,,,,,,,,,,,,,,,,,,,,,,,,,,,,,,,,,,
362256,001,2022-11-21_24h52.38.531,Info_measure_main_exp,2022.2.2,Win32,59.81934558,,,,,,,,,,,,,,,,,,masks/mask_003.jpg,,,,,,,,,,,,,,,,,,,,,,,,,,,,,,,,,,,,,,,,,,,,,,,,0,4,4,2,1,,,,,,,,,,,,,,,,,,,,,,,,,,,,,,,,,,,,,,,,,
362256,001,2022-11-21_24h52.38.531,Info_measure_main_exp,2022.2.2,Win32,59.81934558,,,,,,,,,,,,,,,,,,,,,,,,,,,,,,7,0.7019,1,,,,,,,,,,,,0,131,5,5,1950,2166,absent_patch/patch0001950.jpg,absent_patch/patch0002166.jpg,,,,,,,,,,,,,,,,,,,,0.047085202,0.075112108,1,0,0,response1disk,33,0.005231712,-0.001121076,1,0,0,center_square,0,32,32,0,1,,,,,,,,,,,,,,,,,,,,,,,
362256,001,2022-11-21_24h52.38.531,Info_measure_main_exp,2022.2.2,Win32,59.81934558,,,,,,,,,,,,,,,,,,masks/mask_005.jpg,,,,,,,,,,,,,,,,,,,,,,,,,,,,,,,,,,,,,,,,,,,0,0,0,4,1,,,,,,,,,,,,,,,,,,,,,,,,,,,,,,,,,,,,,,,,,,,,,,
362256,001,2022-11-21_24h52.38.531,Info_measure_main_exp,2022.2.2,Win32,59.81934558,,,,,,,,,,,,,,,,,,masks/mask_001.jpg,,,,,,,,,,,,,,,,,,,,,,,,,,,,,,,,,,,,,,,,,,,0,1,1,0,1,,,,,,,,,,,,,,,,,,,,,,,,,,,,,,,,,,,,,,,,,,,,,,
362256,001,2022-11-21_24h52.38.531,Info_measure_main_exp,2022.2.2,Win32,59.81934558,,,,,,,,,,,,,,,,,,masks/mask_004.jpg,,,,,,,,,,,,,,,,,,,,,,,,,,,,,,,,,,,,,,,,,,,0,2,2,3,1,,,,,,,,,,,,,,,,,,,,,,,,,,,,,,,,,,,,,,,,,,,,,,
362256,001,2022-11-21_24h52.38.531,Info_measure_main_exp,2022.2.2,Win32,59.81934558,,,,,,,,,,,,,,,,,,masks/mask_002.jpg,,,,,,,,,,,,,,,,,,,,,,,,,,,,,,,,,,,,,,,,,,,0,3,3,1,1,,,,,,,,,,,,,,,,,,,,,,,,,,,,,,,,,,,,,,,,,,,,,,
362256,001,2022-11-21_24h52.38.531,Info_measure_main_exp,2022.2.2,Win32,59.81934558,,,,,,,,,,,,,,,,,,masks/mask_003.jpg,,,,,,,,,,,,,,,,,,,,,,,,,,,,,,,,,,,,,,,,,,,0,4,4,2,1,,,,,,,,,,,,,,,,,,,,,,,,,,,,,,,,,,,,,,,,,,,,,,
362256,001,2022-11-21_24h52.38.531,Info_measure_main_exp,2022.2.2,Win32,59.81934558,,,,,,,,,,,,,,,,,,masks/mask_002.jpg,,,,,,,,,,,,,,,,,,,,,,,,,,,,,,,,,,,,,,,,,,,,,,,,0,0,0,1,1,,,,,,,,,,,,,,,,,,,,,,,,,,,,,,,,,,,,,,,,,
362256,001,2022-11-21_24h52.38.531,Info_measure_main_exp,2022.2.2,Win32,59.81934558,,,,,,,,,,,,,,,,,,masks/mask_004.jpg,,,,,,,,,,,,,,,,,,,,,,,,,,,,,,,,,,,,,,,,,,,,,,,,0,1,1,3,1,,,,,,,,,,,,,,,,,,,,,,,,,,,,,,,,,,,,,,,,,
362256,001,2022-11-21_24h52.38.531,Info_measure_main_exp,2022.2.2,Win32,59.81934558,,,,,,,,,,,,,,,,,,masks/mask_005.jpg,,,,,,,,,,,,,,,,,,,,,,,,,,,,,,,,,,,,,,,,,,,,,,,,0,2,2,4,1,,,,,,,,,,,,,,,,,,,,,,,,,,,,,,,,,,,,,,,,,
362256,001,2022-11-21_24h52.38.531,Info_measure_main_exp,2022.2.2,Win32,59.81934558,,,,,,,,,,,,,,,,,,masks/mask_003.jpg,,,,,,,,,,,,,,,,,,,,,,,,,,,,,,,,,,,,,,,,,,,,,,,,0,3,3,2,1,,,,,,,,,,,,,,,,,,,,,,,,,,,,,,,,,,,,,,,,,
362256,001,2022-11-21_24h52.38.531,Info_measure_main_exp,2022.2.2,Win32,59.81934558,,,,,,,,,,,,,,,,,,masks/mask_001.jpg,,,,,,,,,,,,,,,,,,,,,,,,,,,,,,,,,,,,,,,,,,,,,,,,0,4,4,0,1,,,,,,,,,,,,,,,,,,,,,,,,,,,,,,,,,,,,,,,,,
362256,001,2022-11-21_24h52.38.531,Info_measure_main_exp,2022.2.2,Win32,59.81934558,,,,,,,,,,,,,,,,,,,,,,,,,,,,,,6,0.8532,1,,,,,,,,,,,,1,131,5,5,2190,1,absent_patch/patch0002190.jpg,present_patch/cong_131_5_a.jpg,,,,,,,,,,,,,,,,,,,,0.10388642,0.055680108,1,0,0,response1disk,34,0.008221271,-0.001868483,1,0,0,center_square,0,33,33,64,1,,,,,,,,,,,,,,,,,,,,,,,
362256,001,2022-11-21_24h52.38.531,Info_measure_main_exp,2022.2.2,Win32,59.81934558,,,,,,,,,,,,,,,,,,masks/mask_003.jpg,,,,,,,,,,,,,,,,,,,,,,,,,,,,,,,,,,,,,,,,,,,0,0,0,2,1,,,,,,,,,,,,,,,,,,,,,,,,,,,,,,,,,,,,,,,,,,,,,,
362256,001,2022-11-21_24h52.38.531,Info_measure_main_exp,2022.2.2,Win32,59.81934558,,,,,,,,,,,,,,,,,,masks/mask_004.jpg,,,,,,,,,,,,,,,,,,,,,,,,,,,,,,,,,,,,,,,,,,,0,1,1,3,1,,,,,,,,,,,,,,,,,,,,,,,,,,,,,,,,,,,,,,,,,,,,,,
362256,001,2022-11-21_24h52.38.531,Info_measure_main_exp,2022.2.2,Win32,59.81934558,,,,,,,,,,,,,,,,,,masks/mask_001.jpg,,,,,,,,,,,,,,,,,,,,,,,,,,,,,,,,,,,,,,,,,,,0,2,2,0,1,,,,,,,,,,,,,,,,,,,,,,,,,,,,,,,,,,,,,,,,,,,,,,
362256,001,2022-11-21_24h52.38.531,Info_measure_main_exp,2022.2.2,Win32,59.81934558,,,,,,,,,,,,,,,,,,masks/mask_005.jpg,,,,,,,,,,,,,,,,,,,,,,,,,,,,,,,,,,,,,,,,,,,0,3,3,4,1,,,,,,,,,,,,,,,,,,,,,,,,,,,,,,,,,,,,,,,,,,,,,,
362256,001,2022-11-21_24h52.38.531,Info_measure_main_exp,2022.2.2,Win32,59.81934558,,,,,,,,,,,,,,,,,,masks/mask_002.jpg,,,,,,,,,,,,,,,,,,,,,,,,,,,,,,,,,,,,,,,,,,,0,4,4,1,1,,,,,,,,,,,,,,,,,,,,,,,,,,,,,,,,,,,,,,,,,,,,,,
362256,001,2022-11-21_24h52.38.531,Info_measure_main_exp,2022.2.2,Win32,59.81934558,,,,,,,,,,,,,,,,,,masks/mask_004.jpg,,,,,,,,,,,,,,,,,,,,,,,,,,,,,,,,,,,,,,,,,,,,,,,,0,0,0,3,1,,,,,,,,,,,,,,,,,,,,,,,,,,,,,,,,,,,,,,,,,
362256,001,2022-11-21_24h52.38.531,Info_measure_main_exp,2022.2.2,Win32,59.81934558,,,,,,,,,,,,,,,,,,masks/mask_005.jpg,,,,,,,,,,,,,,,,,,,,,,,,,,,,,,,,,,,,,,,,,,,,,,,,0,1,1,4,1,,,,,,,,,,,,,,,,,,,,,,,,,,,,,,,,,,,,,,,,,
362256,001,2022-11-21_24h52.38.531,Info_measure_main_exp,2022.2.2,Win32,59.81934558,,,,,,,,,,,,,,,,,,masks/mask_001.jpg,,,,,,,,,,,,,,,,,,,,,,,,,,,,,,,,,,,,,,,,,,,,,,,,0,2,2,0,1,,,,,,,,,,,,,,,,,,,,,,,,,,,,,,,,,,,,,,,,,
362256,001,2022-11-21_24h52.38.531,Info_measure_main_exp,2022.2.2,Win32,59.81934558,,,,,,,,,,,,,,,,,,masks/mask_002.jpg,,,,,,,,,,,,,,,,,,,,,,,,,,,,,,,,,,,,,,,,,,,,,,,,0,3,3,1,1,,,,,,,,,,,,,,,,,,,,,,,,,,,,,,,,,,,,,,,,,
