participant,session,date,expName,psychopyVersion,OS,frameRate,space_press_continue.keys,space_press_continue.rt,space_press_continue_2.keys,space_press_continue_2.rt,space_press_continue_3.keys,space_press_continue_3.rt,space_press_continue_4.keys,space_press_continue_4.rt,space_press_continue_5.keys,space_press_continue_5.rt,space_press_continue_6.keys,space_press_continue_6.rt,prac_mask_loop_1.thisRepN,prac_mask_loop_1.thisTrialN,prac_mask_loop_1.thisN,prac_mask_loop_1.thisIndex,prac_mask_loop_1.ran,mask_name,prac_mask_loop_2.thisRepN,prac_mask_loop_2.thisTrialN,prac_mask_loop_2.thisN,prac_mask_loop_2.thisIndex,prac_mask_loop_2.ran,mouse_2.x,mouse_2.y,mouse_2.leftButton,mouse_2.midButton,mouse_2.rightButton,mouse_2.clicked_name,similarity,response_time,Pass,mouse_12.x,mouse_12.y,mouse_12.leftButton,mouse_12.midButton,mouse_12.rightButton,mouse_12.clicked_name,prac_loop.thisRepN,prac_loop.thisTrialN,prac_loop.thisN,prac_loop.thisIndex,prac_loop.ran,Pair_type,Image_num,Patch_1_loc,Patch_2_loc,Patch_1_info,Patch_2_info,Patch_1_name,Patch_2_name,mouse_1.x,mouse_1.y,mouse_1.leftButton,mouse_1.midButton,mouse_1.rightButton,mouse_1.time,mouse_1.clicked_name,space_press_continue_7.keys,space_press_continue_7.rt,mask_loop.thisRepN,mask_loop.thisTrialN,mask_loop.thisN,mask_loop.thisIndex,mask_loop.ran,mask_loop_2.thisRepN,mask_loop_2.thisTrialN,mask_loop_2.thisN,mask_loop_2.thisIndex,mask_loop_2.ran,mouse.x,mouse.y,mouse.leftButton,mouse.midButton,mouse.rightButton,mouse.clicked_name,trialNumber,mouse_11.x,mouse_11.y,mouse_11.leftButton,mouse_11.midButton,mouse_11.rightButton,mouse_11.clicked_name,first_pass_loop.thisRepN,first_pass_loop.thisTrialN,first_pass_loop.thisN,first_pass_loop.thisIndex,first_pass_loop.ran,mask_loop_3.thisRepN,mask_loop_3.thisTrialN,mask_loop_3.thisN,mask_loop_3.thisIndex,mask_loop_3.ran,mask_loop_4.thisRepN,mask_loop_4.thisTrialN,mask_loop_4.thisN,mask_loop_4.thisIndex,mask_loop_4.ran,mouse_3.x,mouse_3.y,mouse_3.leftButton,mouse_3.midButton,mouse_3.rightButton,mouse_3.clicked_name,double_pass_loop.thisRepN,double_pass_loop.thisTrialN,double_pass_loop.thisN,double_pass_loop.thisIndex,double_pass_loop.ran,space_exit.keys,space_exit.rt
365475,001,2022-11-20_23h59.15.286,Info_measure_main_exp,2022.2.2,Win32,60.04563468,,,,,,,,,,,,,,,,,,,,,,,,,,,,,,,,,,,,,,,,,,,,,,,,,,,,,,,,,,,,,,,,,,,,,,,,,,,,,,,,,,,,,,,,,,,,,,,,,,,,,,,,,,,,,,,
365475,001,2022-11-20_23h59.15.286,Info_measure_main_exp,2022.2.2,Win32,60.04563468,,,,,,,,,,,,,,,,,,,,,,,,,,,,,,,,,,,,,,,,,,,,,,,,,,,,,,,,,,,,,,,,,,,,,,,,,,,,,,,,,,,,,,,,,,,,,,,,,,,,,,,,,,,,,,,
365475,001,2022-11-20_23h59.15.286,Info_measure_main_exp,2022.2.2,Win32,60.04563468,space,10.2426,,,,,,,,,,,,,,,,,,,,,,,,,,,,,,,,,,,,,,,,,,,,,,,,,,,,,,,,,,,,,,,,,,,,,,,,,,,,,,,,,,,,,,,,,,,,,,,,,,,,,,,,,,,,,
365475,001,2022-11-20_23h59.15.286,Info_measure_main_exp,2022.2.2,Win32,60.04563468,,,space,21.8524,,,,,,,,,,,,,,,,,,,,,,,,,,,,,,,,,,,,,,,,,,,,,,,,,,,,,,,,,,,,,,,,,,,,,,,,,,,,,,,,,,,,,,,,,,,,,,,,,,,,,,,,,,,
365475,001,2022-11-20_23h59.15.286,Info_measure_main_exp,2022.2.2,Win32,60.04563468,,,,,space,7.3636,,,,,,,,,,,,,,,,,,,,,,,,,,,,,,,,,,,,,,,,,,,,,,,,,,,,,,,,,,,,,,,,,,,,,,,,,,,,,,,,,,,,,,,,,,,,,,,,,,,,,,,,,
365475,001,2022-11-20_23h59.15.286,Info_measure_main_exp,2022.2.2,Win32,60.04563468,,,,,,,space,23.1467,,,,,,,,,,,,,,,,,,,,,,,,,,,,,,,,,,,,,,,,,,,,,,,,,,,,,,,,,,,,,,,,,,,,,,,,,,,,,,,,,,,,,,,,,,,,,,,,,,,,,,,
365475,001,2022-11-20_23h59.15.286,Info_measure_main_exp,2022.2.2,Win32,60.04563468,,,,,,,,,space,10.5128,,,,,,,,,,,,,,,,,,,,,,,,,,,,,,,,,,,,,,,,,,,,,,,,,,,,,,,,,,,,,,,,,,,,,,,,,,,,,,,,,,,,,,,,,,,,,,,,,,,,,
365475,001,2022-11-20_23h59.15.286,Info_measure_main_exp,2022.2.2,Win32,60.04563468,,,,,,,,,,,space,4.2417,,,,,,,,,,,,,,,,,,,,,,,,,,,,,,,,,,,,,,,,,,,,,,,,,,,,,,,,,,,,,,,,,,,,,,,,,,,,,,,,,,,,,,,,,,,,,,,,,,,
365475,001,2022-11-20_23h59.15.286,Info_measure_main_exp,2022.2.2,Win32,60.04563468,,,,,,,,,,,,,0,0,0,3,1,masks/mask_004.jpg,,,,,,,,,,,,,,,,,,,,,,,,,,,,,,,,,,,,,,,,,,,,,,,,,,,,,,,,,,,,,,,,,,,,,,,,,,,,,,,,,,,,,,,,,,,,,
365475,001,2022-11-20_23h59.15.286,Info_measure_main_exp,2022.2.2,Win32,60.04563468,,,,,,,,,,,,,0,1,1,4,1,masks/mask_005.jpg,,,,,,,,,,,,,,,,,,,,,,,,,,,,,,,,,,,,,,,,,,,,,,,,,,,,,,,,,,,,,,,,,,,,,,,,,,,,,,,,,,,,,,,,,,,,,
365475,001,2022-11-20_23h59.15.286,Info_measure_main_exp,2022.2.2,Win32,60.04563468,,,,,,,,,,,,,0,2,2,0,1,masks/mask_001.jpg,,,,,,,,,,,,,,,,,,,,,,,,,,,,,,,,,,,,,,,,,,,,,,,,,,,,,,,,,,,,,,,,,,,,,,,,,,,,,,,,,,,,,,,,,,,,,
365475,001,2022-11-20_23h59.15.286,Info_measure_main_exp,2022.2.2,Win32,60.04563468,,,,,,,,,,,,,0,3,3,1,1,masks/mask_002.jpg,,,,,,,,,,,,,,,,,,,,,,,,,,,,,,,,,,,,,,,,,,,,,,,,,,,,,,,,,,,,,,,,,,,,,,,,,,,,,,,,,,,,,,,,,,,,,
365475,001,2022-11-20_23h59.15.286,Info_measure_main_exp,2022.2.2,Win32,60.04563468,,,,,,,,,,,,,0,4,4,2,1,masks/mask_003.jpg,,,,,,,,,,,,,,,,,,,,,,,,,,,,,,,,,,,,,,,,,,,,,,,,,,,,,,,,,,,,,,,,,,,,,,,,,,,,,,,,,,,,,,,,,,,,,
365475,001,2022-11-20_23h59.15.286,Info_measure_main_exp,2022.2.2,Win32,60.04563468,,,,,,,,,,,,,,,,,,masks/mask_002.jpg,0,0,0,1,1,,,,,,,,,,,,,,,,,,,,,,,,,,,,,,,,,,,,,,,,,,,,,,,,,,,,,,,,,,,,,,,,,,,,,,,,,,,,,,,,,,,,,,,,
365475,001,2022-11-20_23h59.15.286,Info_measure_main_exp,2022.2.2,Win32,60.04563468,,,,,,,,,,,,,,,,,,masks/mask_003.jpg,0,1,1,2,1,,,,,,,,,,,,,,,,,,,,,,,,,,,,,,,,,,,,,,,,,,,,,,,,,,,,,,,,,,,,,,,,,,,,,,,,,,,,,,,,,,,,,,,,
365475,001,2022-11-20_23h59.15.286,Info_measure_main_exp,2022.2.2,Win32,60.04563468,,,,,,,,,,,,,,,,,,masks/mask_005.jpg,0,2,2,4,1,,,,,,,,,,,,,,,,,,,,,,,,,,,,,,,,,,,,,,,,,,,,,,,,,,,,,,,,,,,,,,,,,,,,,,,,,,,,,,,,,,,,,,,,
365475,001,2022-11-20_23h59.15.286,Info_measure_main_exp,2022.2.2,Win32,60.04563468,,,,,,,,,,,,,,,,,,masks/mask_004.jpg,0,3,3,3,1,,,,,,,,,,,,,,,,,,,,,,,,,,,,,,,,,,,,,,,,,,,,,,,,,,,,,,,,,,,,,,,,,,,,,,,,,,,,,,,,,,,,,,,,
365475,001,2022-11-20_23h59.15.286,Info_measure_main_exp,2022.2.2,Win32,60.04563468,,,,,,,,,,,,,,,,,,masks/mask_001.jpg,0,4,4,0,1,,,,,,,,,,,,,,,,,,,,,,,,,,,,,,,,,,,,,,,,,,,,,,,,,,,,,,,,,,,,,,,,,,,,,,,,,,,,,,,,,,,,,,,,
365475,001,2022-11-20_23h59.15.286,Info_measure_main_exp,2022.2.2,Win32,60.04563468,,,,,,,,,,,,,,,,,,,,,,,,0.128703718,-0.052777785,1,0,0,response3disk,5,83.0213,1,-0.003703718,0.003703683,1,0,0,center_square,0,0,0,1,1,0,131,5,5,2514,2490,prac_patch/patch0002514.jpg,prac_patch/patch0002490.jpg,,,,,,,,,,,,,,,,,,,,,,,,,,,,,,,,,,,,,,,,,,,,,,,,,,,,,,,,,,,,
365475,001,2022-11-20_23h59.15.286,Info_measure_main_exp,2022.2.2,Win32,60.04563468,,,,,,,,,,,,,0,0,0,4,1,masks/mask_005.jpg,,,,,,,,,,,,,,,,,,,,,,,,,,,,,,,,,,,,,,,,,,,,,,,,,,,,,,,,,,,,,,,,,,,,,,,,,,,,,,,,,,,,,,,,,,,,,
365475,001,2022-11-20_23h59.15.286,Info_measure_main_exp,2022.2.2,Win32,60.04563468,,,,,,,,,,,,,0,1,1,3,1,masks/mask_004.jpg,,,,,,,,,,,,,,,,,,,,,,,,,,,,,,,,,,,,,,,,,,,,,,,,,,,,,,,,,,,,,,,,,,,,,,,,,,,,,,,,,,,,,,,,,,,,,
365475,001,2022-11-20_23h59.15.286,Info_measure_main_exp,2022.2.2,Win32,60.04563468,,,,,,,,,,,,,0,2,2,1,1,masks/mask_002.jpg,,,,,,,,,,,,,,,,,,,,,,,,,,,,,,,,,,,,,,,,,,,,,,,,,,,,,,,,,,,,,,,,,,,,,,,,,,,,,,,,,,,,,,,,,,,,,
365475,001,2022-11-20_23h59.15.286,Info_measure_main_exp,2022.2.2,Win32,60.04563468,,,,,,,,,,,,,0,3,3,0,1,masks/mask_001.jpg,,,,,,,,,,,,,,,,,,,,,,,,,,,,,,,,,,,,,,,,,,,,,,,,,,,,,,,,,,,,,,,,,,,,,,,,,,,,,,,,,,,,,,,,,,,,,
365475,001,2022-11-20_23h59.15.286,Info_measure_main_exp,2022.2.2,Win32,60.04563468,,,,,,,,,,,,,0,4,4,2,1,masks/mask_003.jpg,,,,,,,,,,,,,,,,,,,,,,,,,,,,,,,,,,,,,,,,,,,,,,,,,,,,,,,,,,,,,,,,,,,,,,,,,,,,,,,,,,,,,,,,,,,,,
365475,001,2022-11-20_23h59.15.286,Info_measure_main_exp,2022.2.2,Win32,60.04563468,,,,,,,,,,,,,,,,,,masks/mask_002.jpg,0,0,0,1,1,,,,,,,,,,,,,,,,,,,,,,,,,,,,,,,,,,,,,,,,,,,,,,,,,,,,,,,,,,,,,,,,,,,,,,,,,,,,,,,,,,,,,,,,
365475,001,2022-11-20_23h59.15.286,Info_measure_main_exp,2022.2.2,Win32,60.04563468,,,,,,,,,,,,,,,,,,masks/mask_005.jpg,0,1,1,4,1,,,,,,,,,,,,,,,,,,,,,,,,,,,,,,,,,,,,,,,,,,,,,,,,,,,,,,,,,,,,,,,,,,,,,,,,,,,,,,,,,,,,,,,,
365475,001,2022-11-20_23h59.15.286,Info_measure_main_exp,2022.2.2,Win32,60.04563468,,,,,,,,,,,,,,,,,,masks/mask_004.jpg,0,2,2,3,1,,,,,,,,,,,,,,,,,,,,,,,,,,,,,,,,,,,,,,,,,,,,,,,,,,,,,,,,,,,,,,,,,,,,,,,,,,,,,,,,,,,,,,,,
365475,001,2022-11-20_23h59.15.286,Info_measure_main_exp,2022.2.2,Win32,60.04563468,,,,,,,,,,,,,,,,,,masks/mask_003.jpg,0,3,3,2,1,,,,,,,,,,,,,,,,,,,,,,,,,,,,,,,,,,,,,,,,,,,,,,,,,,,,,,,,,,,,,,,,,,,,,,,,,,,,,,,,,,,,,,,,
365475,001,2022-11-20_23h59.15.286,Info_measure_main_exp,2022.2.2,Win32,60.04563468,,,,,,,,,,,,,,,,,,masks/mask_001.jpg,0,4,4,0,1,,,,,,,,,,,,,,,,,,,,,,,,,,,,,,,,,,,,,,,,,,,,,,,,,,,,,,,,,,,,,,,,,,,,,,,,,,,,,,,,,,,,,,,,
365475,001,2022-11-20_23h59.15.286,Info_measure_main_exp,2022.2.2,Win32,60.04563468,,,,,,,,,,,,,,,,,,,,,,,,0.133333347,0.033333319,1,0,0,response1disk,6,99.6637,1,0.012962977,0.002777771,1,0,0,center_square,0,1,1,0,1,0,131,5,5,2370,2406,prac_patch/patch0002370.jpg,prac_patch/patch0002406.jpg,,,,,,,,,,,,,,,,,,,,,,,,,,,,,,,,,,,,,,,,,,,,,,,,,,,,,,,,,,,,
365475,001,2022-11-20_23h59.15.286,Info_measure_main_exp,2022.2.2,Win32,60.04563468,,,,,,,,,,,,,0,0,0,2,1,masks/mask_003.jpg,,,,,,,,,,,,,,,,,,,,,,,,,,,,,,,,,,,,,,,,,,,,,,,,,,,,,,,,,,,,,,,,,,,,,,,,,,,,,,,,,,,,,,,,,,,,,
365475,001,2022-11-20_23h59.15.286,Info_measure_main_exp,2022.2.2,Win32,60.04563468,,,,,,,,,,,,,0,1,1,3,1,masks/mask_004.jpg,,,,,,,,,,,,,,,,,,,,,,,,,,,,,,,,,,,,,,,,,,,,,,,,,,,,,,,,,,,,,,,,,,,,,,,,,,,,,,,,,,,,,,,,,,,,,
365475,001,2022-11-20_23h59.15.286,Info_measure_main_exp,2022.2.2,Win32,60.04563468,,,,,,,,,,,,,0,2,2,4,1,masks/mask_005.jpg,,,,,,,,,,,,,,,,,,,,,,,,,,,,,,,,,,,,,,,,,,,,,,,,,,,,,,,,,,,,,,,,,,,,,,,,,,,,,,,,,,,,,,,,,,,,,
365475,001,2022-11-20_23h59.15.286,Info_measure_main_exp,2022.2.2,Win32,60.04563468,,,,,,,,,,,,,0,3,3,0,1,masks/mask_001.jpg,,,,,,,,,,,,,,,,,,,,,,,,,,,,,,,,,,,,,,,,,,,,,,,,,,,,,,,,,,,,,,,,,,,,,,,,,,,,,,,,,,,,,,,,,,,,,
365475,001,2022-11-20_23h59.15.286,Info_measure_main_exp,2022.2.2,Win32,60.04563468,,,,,,,,,,,,,0,4,4,1,1,masks/mask_002.jpg,,,,,,,,,,,,,,,,,,,,,,,,,,,,,,,,,,,,,,,,,,,,,,,,,,,,,,,,,,,,,,,,,,,,,,,,,,,,,,,,,,,,,,,,,,,,,
365475,001,2022-11-20_23h59.15.286,Info_measure_main_exp,2022.2.2,Win32,60.04563468,,,,,,,,,,,,,,,,,,masks/mask_004.jpg,0,0,0,3,1,,,,,,,,,,,,,,,,,,,,,,,,,,,,,,,,,,,,,,,,,,,,,,,,,,,,,,,,,,,,,,,,,,,,,,,,,,,,,,,,,,,,,,,,
365475,001,2022-11-20_23h59.15.286,Info_measure_main_exp,2022.2.2,Win32,60.04563468,,,,,,,,,,,,,,,,,,masks/mask_002.jpg,0,1,1,1,1,,,,,,,,,,,,,,,,,,,,,,,,,,,,,,,,,,,,,,,,,,,,,,,,,,,,,,,,,,,,,,,,,,,,,,,,,,,,,,,,,,,,,,,,
365475,001,2022-11-20_23h59.15.286,Info_measure_main_exp,2022.2.2,Win32,60.04563468,,,,,,,,,,,,,,,,,,masks/mask_003.jpg,0,2,2,2,1,,,,,,,,,,,,,,,,,,,,,,,,,,,,,,,,,,,,,,,,,,,,,,,,,,,,,,,,,,,,,,,,,,,,,,,,,,,,,,,,,,,,,,,,
365475,001,2022-11-20_23h59.15.286,Info_measure_main_exp,2022.2.2,Win32,60.04563468,,,,,,,,,,,,,,,,,,masks/mask_001.jpg,0,3,3,0,1,,,,,,,,,,,,,,,,,,,,,,,,,,,,,,,,,,,,,,,,,,,,,,,,,,,,,,,,,,,,,,,,,,,,,,,,,,,,,,,,,,,,,,,,
365475,001,2022-11-20_23h59.15.286,Info_measure_main_exp,2022.2.2,Win32,60.04563468,,,,,,,,,,,,,,,,,,masks/mask_005.jpg,0,4,4,4,1,,,,,,,,,,,,,,,,,,,,,,,,,,,,,,,,,,,,,,,,,,,,,,,,,,,,,,,,,,,,,,,,,,,,,,,,,,,,,,,,,,,,,,,,
365475,001,2022-11-20_23h59.15.286,Info_measure_main_exp,2022.2.2,Win32,60.04563468,,,,,,,,,,,,,,,,,,,,,,,,-0.038888861,0.12962963,1,0,0,response7disk,0,108.3902,1,0.003703718,0.008333312,1,0,0,center_square,0,2,2,2,1,0,131,5,5,2526,2526,prac_patch/patch0002526.jpg,prac_patch/patch0002526.jpg,,,,,,,,,,,,,,,,,,,,,,,,,,,,,,,,,,,,,,,,,,,,,,,,,,,,,,,,,,,,
365475,001,2022-11-20_23h59.15.286,Info_measure_main_exp,2022.2.2,Win32,60.04563468,,,,,,,,,,,,,,,,,,,,,,,,,,,,,,,,,,,,,,,,,,,,,,,,,,,,,,,,,,,space,2.6508,,,,,,,,,,,,,,,,,,,,,,,,,,,,,,,,,,,,,,,,,,,,,,,,,,,
365475,001,2022-11-20_23h59.15.286,Info_measure_main_exp,2022.2.2,Win32,60.04563468,,,,,,,,,,,,,,,,,,masks/mask_003.jpg,,,,,,,,,,,,,,,,,,,,,,,,,,,,,,,,,,,,,,,,,,,0,0,0,2,1,,,,,,,,,,,,,,,,,,,,,,,,,,,,,,,,,,,,,,,,,,,,,,
365475,001,2022-11-20_23h59.15.286,Info_measure_main_exp,2022.2.2,Win32,60.04563468,,,,,,,,,,,,,,,,,,masks/mask_002.jpg,,,,,,,,,,,,,,,,,,,,,,,,,,,,,,,,,,,,,,,,,,,0,1,1,1,1,,,,,,,,,,,,,,,,,,,,,,,,,,,,,,,,,,,,,,,,,,,,,,
365475,001,2022-11-20_23h59.15.286,Info_measure_main_exp,2022.2.2,Win32,60.04563468,,,,,,,,,,,,,,,,,,masks/mask_004.jpg,,,,,,,,,,,,,,,,,,,,,,,,,,,,,,,,,,,,,,,,,,,0,2,2,3,1,,,,,,,,,,,,,,,,,,,,,,,,,,,,,,,,,,,,,,,,,,,,,,
365475,001,2022-11-20_23h59.15.286,Info_measure_main_exp,2022.2.2,Win32,60.04563468,,,,,,,,,,,,,,,,,,masks/mask_001.jpg,,,,,,,,,,,,,,,,,,,,,,,,,,,,,,,,,,,,,,,,,,,0,3,3,0,1,,,,,,,,,,,,,,,,,,,,,,,,,,,,,,,,,,,,,,,,,,,,,,
365475,001,2022-11-20_23h59.15.286,Info_measure_main_exp,2022.2.2,Win32,60.04563468,,,,,,,,,,,,,,,,,,masks/mask_005.jpg,,,,,,,,,,,,,,,,,,,,,,,,,,,,,,,,,,,,,,,,,,,0,4,4,4,1,,,,,,,,,,,,,,,,,,,,,,,,,,,,,,,,,,,,,,,,,,,,,,
365475,001,2022-11-20_23h59.15.286,Info_measure_main_exp,2022.2.2,Win32,60.04563468,,,,,,,,,,,,,,,,,,masks/mask_001.jpg,,,,,,,,,,,,,,,,,,,,,,,,,,,,,,,,,,,,,,,,,,,,,,,,0,0,0,0,1,,,,,,,,,,,,,,,,,,,,,,,,,,,,,,,,,,,,,,,,,
365475,001,2022-11-20_23h59.15.286,Info_measure_main_exp,2022.2.2,Win32,60.04563468,,,,,,,,,,,,,,,,,,masks/mask_002.jpg,,,,,,,,,,,,,,,,,,,,,,,,,,,,,,,,,,,,,,,,,,,,,,,,0,1,1,1,1,,,,,,,,,,,,,,,,,,,,,,,,,,,,,,,,,,,,,,,,,
365475,001,2022-11-20_23h59.15.286,Info_measure_main_exp,2022.2.2,Win32,60.04563468,,,,,,,,,,,,,,,,,,masks/mask_005.jpg,,,,,,,,,,,,,,,,,,,,,,,,,,,,,,,,,,,,,,,,,,,,,,,,0,2,2,4,1,,,,,,,,,,,,,,,,,,,,,,,,,,,,,,,,,,,,,,,,,
365475,001,2022-11-20_23h59.15.286,Info_measure_main_exp,2022.2.2,Win32,60.04563468,,,,,,,,,,,,,,,,,,masks/mask_003.jpg,,,,,,,,,,,,,,,,,,,,,,,,,,,,,,,,,,,,,,,,,,,,,,,,0,3,3,2,1,,,,,,,,,,,,,,,,,,,,,,,,,,,,,,,,,,,,,,,,,
365475,001,2022-11-20_23h59.15.286,Info_measure_main_exp,2022.2.2,Win32,60.04563468,,,,,,,,,,,,,,,,,,masks/mask_004.jpg,,,,,,,,,,,,,,,,,,,,,,,,,,,,,,,,,,,,,,,,,,,,,,,,0,4,4,3,1,,,,,,,,,,,,,,,,,,,,,,,,,,,,,,,,,,,,,,,,,
365475,001,2022-11-20_23h59.15.286,Info_measure_main_exp,2022.2.2,Win32,60.04563468,,,,,,,,,,,,,,,,,,,,,,,,,,,,,,0,1.2311,1,,,,,,,,,,,,0,131,5,5,1974,1950,absent_patch/patch0001974.jpg,absent_patch/patch0001950.jpg,,,,,,,,,,,,,,,,,,,,-0.038888861,0.098148134,1,0,0,response7disk,1,0.002777806,-0.001851859,1,0,0,center_square,0,0,0,17,1,,,,,,,,,,,,,,,,,,,,,,,
365475,001,2022-11-20_23h59.15.286,Info_measure_main_exp,2022.2.2,Win32,60.04563468,,,,,,,,,,,,,,,,,,masks/mask_001.jpg,,,,,,,,,,,,,,,,,,,,,,,,,,,,,,,,,,,,,,,,,,,0,0,0,0,1,,,,,,,,,,,,,,,,,,,,,,,,,,,,,,,,,,,,,,,,,,,,,,
365475,001,2022-11-20_23h59.15.286,Info_measure_main_exp,2022.2.2,Win32,60.04563468,,,,,,,,,,,,,,,,,,masks/mask_003.jpg,,,,,,,,,,,,,,,,,,,,,,,,,,,,,,,,,,,,,,,,,,,0,1,1,2,1,,,,,,,,,,,,,,,,,,,,,,,,,,,,,,,,,,,,,,,,,,,,,,
365475,001,2022-11-20_23h59.15.286,Info_measure_main_exp,2022.2.2,Win32,60.04563468,,,,,,,,,,,,,,,,,,masks/mask_002.jpg,,,,,,,,,,,,,,,,,,,,,,,,,,,,,,,,,,,,,,,,,,,0,2,2,1,1,,,,,,,,,,,,,,,,,,,,,,,,,,,,,,,,,,,,,,,,,,,,,,
365475,001,2022-11-20_23h59.15.286,Info_measure_main_exp,2022.2.2,Win32,60.04563468,,,,,,,,,,,,,,,,,,masks/mask_005.jpg,,,,,,,,,,,,,,,,,,,,,,,,,,,,,,,,,,,,,,,,,,,0,3,3,4,1,,,,,,,,,,,,,,,,,,,,,,,,,,,,,,,,,,,,,,,,,,,,,,
365475,001,2022-11-20_23h59.15.286,Info_measure_main_exp,2022.2.2,Win32,60.04563468,,,,,,,,,,,,,,,,,,masks/mask_004.jpg,,,,,,,,,,,,,,,,,,,,,,,,,,,,,,,,,,,,,,,,,,,0,4,4,3,1,,,,,,,,,,,,,,,,,,,,,,,,,,,,,,,,,,,,,,,,,,,,,,
365475,001,2022-11-20_23h59.15.286,Info_measure_main_exp,2022.2.2,Win32,60.04563468,,,,,,,,,,,,,,,,,,masks/mask_003.jpg,,,,,,,,,,,,,,,,,,,,,,,,,,,,,,,,,,,,,,,,,,,,,,,,0,0,0,2,1,,,,,,,,,,,,,,,,,,,,,,,,,,,,,,,,,,,,,,,,,
365475,001,2022-11-20_23h59.15.286,Info_measure_main_exp,2022.2.2,Win32,60.04563468,,,,,,,,,,,,,,,,,,masks/mask_002.jpg,,,,,,,,,,,,,,,,,,,,,,,,,,,,,,,,,,,,,,,,,,,,,,,,0,1,1,1,1,,,,,,,,,,,,,,,,,,,,,,,,,,,,,,,,,,,,,,,,,
365475,001,2022-11-20_23h59.15.286,Info_measure_main_exp,2022.2.2,Win32,60.04563468,,,,,,,,,,,,,,,,,,masks/mask_001.jpg,,,,,,,,,,,,,,,,,,,,,,,,,,,,,,,,,,,,,,,,,,,,,,,,0,2,2,0,1,,,,,,,,,,,,,,,,,,,,,,,,,,,,,,,,,,,,,,,,,
365475,001,2022-11-20_23h59.15.286,Info_measure_main_exp,2022.2.2,Win32,60.04563468,,,,,,,,,,,,,,,,,,masks/mask_005.jpg,,,,,,,,,,,,,,,,,,,,,,,,,,,,,,,,,,,,,,,,,,,,,,,,0,3,3,4,1,,,,,,,,,,,,,,,,,,,,,,,,,,,,,,,,,,,,,,,,,
365475,001,2022-11-20_23h59.15.286,Info_measure_main_exp,2022.2.2,Win32,60.04563468,,,,,,,,,,,,,,,,,,masks/mask_004.jpg,,,,,,,,,,,,,,,,,,,,,,,,,,,,,,,,,,,,,,,,,,,,,,,,0,4,4,3,1,,,,,,,,,,,,,,,,,,,,,,,,,,,,,,,,,,,,,,,,,
365475,001,2022-11-20_23h59.15.286,Info_measure_main_exp,2022.2.2,Win32,60.04563468,,,,,,,,,,,,,,,,,,,,,,,,,,,,,,6,2.6485,1,,,,,,,,,,,,0,131,5,5,2154,2298,absent_patch/patch0002154.jpg,absent_patch/patch0002298.jpg,,,,,,,,,,,,,,,,,,,,0.17777782,0.030555548,1,0,0,response1disk,2,0.00462963,0.00462963,1,0,0,center_square,0,1,1,27,1,,,,,,,,,,,,,,,,,,,,,,,
365475,001,2022-11-20_23h59.15.286,Info_measure_main_exp,2022.2.2,Win32,60.04563468,,,,,,,,,,,,,,,,,,masks/mask_001.jpg,,,,,,,,,,,,,,,,,,,,,,,,,,,,,,,,,,,,,,,,,,,0,0,0,0,1,,,,,,,,,,,,,,,,,,,,,,,,,,,,,,,,,,,,,,,,,,,,,,
365475,001,2022-11-20_23h59.15.286,Info_measure_main_exp,2022.2.2,Win32,60.04563468,,,,,,,,,,,,,,,,,,masks/mask_002.jpg,,,,,,,,,,,,,,,,,,,,,,,,,,,,,,,,,,,,,,,,,,,0,1,1,1,1,,,,,,,,,,,,,,,,,,,,,,,,,,,,,,,,,,,,,,,,,,,,,,
365475,001,2022-11-20_23h59.15.286,Info_measure_main_exp,2022.2.2,Win32,60.04563468,,,,,,,,,,,,,,,,,,masks/mask_004.jpg,,,,,,,,,,,,,,,,,,,,,,,,,,,,,,,,,,,,,,,,,,,0,2,2,3,1,,,,,,,,,,,,,,,,,,,,,,,,,,,,,,,,,,,,,,,,,,,,,,
365475,001,2022-11-20_23h59.15.286,Info_measure_main_exp,2022.2.2,Win32,60.04563468,,,,,,,,,,,,,,,,,,masks/mask_005.jpg,,,,,,,,,,,,,,,,,,,,,,,,,,,,,,,,,,,,,,,,,,,0,3,3,4,1,,,,,,,,,,,,,,,,,,,,,,,,,,,,,,,,,,,,,,,,,,,,,,
365475,001,2022-11-20_23h59.15.286,Info_measure_main_exp,2022.2.2,Win32,60.04563468,,,,,,,,,,,,,,,,,,masks/mask_003.jpg,,,,,,,,,,,,,,,,,,,,,,,,,,,,,,,,,,,,,,,,,,,0,4,4,2,1,,,,,,,,,,,,,,,,,,,,,,,,,,,,,,,,,,,,,,,,,,,,,,
365475,001,2022-11-20_23h59.15.286,Info_measure_main_exp,2022.2.2,Win32,60.04563468,,,,,,,,,,,,,,,,,,masks/mask_001.jpg,,,,,,,,,,,,,,,,,,,,,,,,,,,,,,,,,,,,,,,,,,,,,,,,0,0,0,0,1,,,,,,,,,,,,,,,,,,,,,,,,,,,,,,,,,,,,,,,,,
365475,001,2022-11-20_23h59.15.286,Info_measure_main_exp,2022.2.2,Win32,60.04563468,,,,,,,,,,,,,,,,,,masks/mask_002.jpg,,,,,,,,,,,,,,,,,,,,,,,,,,,,,,,,,,,,,,,,,,,,,,,,0,1,1,1,1,,,,,,,,,,,,,,,,,,,,,,,,,,,,,,,,,,,,,,,,,
365475,001,2022-11-20_23h59.15.286,Info_measure_main_exp,2022.2.2,Win32,60.04563468,,,,,,,,,,,,,,,,,,masks/mask_005.jpg,,,,,,,,,,,,,,,,,,,,,,,,,,,,,,,,,,,,,,,,,,,,,,,,0,2,2,4,1,,,,,,,,,,,,,,,,,,,,,,,,,,,,,,,,,,,,,,,,,
365475,001,2022-11-20_23h59.15.286,Info_measure_main_exp,2022.2.2,Win32,60.04563468,,,,,,,,,,,,,,,,,,masks/mask_003.jpg,,,,,,,,,,,,,,,,,,,,,,,,,,,,,,,,,,,,,,,,,,,,,,,,0,3,3,2,1,,,,,,,,,,,,,,,,,,,,,,,,,,,,,,,,,,,,,,,,,
365475,001,2022-11-20_23h59.15.286,Info_measure_main_exp,2022.2.2,Win32,60.04563468,,,,,,,,,,,,,,,,,,masks/mask_004.jpg,,,,,,,,,,,,,,,,,,,,,,,,,,,,,,,,,,,,,,,,,,,,,,,,0,4,4,3,1,,,,,,,,,,,,,,,,,,,,,,,,,,,,,,,,,,,,,,,,,
365475,001,2022-11-20_23h59.15.286,Info_measure_main_exp,2022.2.2,Win32,60.04563468,,,,,,,,,,,,,,,,,,,,,,,,,,,,,,0,1.0719,1,,,,,,,,,,,,1,131,5,5,1,1,present_patch/cong_131_5_a.jpg,present_patch/cong_131_5_a.jpg,,,,,,,,,,,,,,,,,,,,-0.037962949,0.077777757,1,0,0,response7disk,3,0,0.010185171,1,0,0,center_square,0,2,2,30,1,,,,,,,,,,,,,,,,,,,,,,,
365475,001,2022-11-20_23h59.15.286,Info_measure_main_exp,2022.2.2,Win32,60.04563468,,,,,,,,,,,,,,,,,,masks/mask_002.jpg,,,,,,,,,,,,,,,,,,,,,,,,,,,,,,,,,,,,,,,,,,,0,0,0,1,1,,,,,,,,,,,,,,,,,,,,,,,,,,,,,,,,,,,,,,,,,,,,,,
365475,001,2022-11-20_23h59.15.286,Info_measure_main_exp,2022.2.2,Win32,60.04563468,,,,,,,,,,,,,,,,,,masks/mask_003.jpg,,,,,,,,,,,,,,,,,,,,,,,,,,,,,,,,,,,,,,,,,,,0,1,1,2,1,,,,,,,,,,,,,,,,,,,,,,,,,,,,,,,,,,,,,,,,,,,,,,
365475,001,2022-11-20_23h59.15.286,Info_measure_main_exp,2022.2.2,Win32,60.04563468,,,,,,,,,,,,,,,,,,masks/mask_005.jpg,,,,,,,,,,,,,,,,,,,,,,,,,,,,,,,,,,,,,,,,,,,0,2,2,4,1,,,,,,,,,,,,,,,,,,,,,,,,,,,,,,,,,,,,,,,,,,,,,,
365475,001,2022-11-20_23h59.15.286,Info_measure_main_exp,2022.2.2,Win32,60.04563468,,,,,,,,,,,,,,,,,,masks/mask_001.jpg,,,,,,,,,,,,,,,,,,,,,,,,,,,,,,,,,,,,,,,,,,,0,3,3,0,1,,,,,,,,,,,,,,,,,,,,,,,,,,,,,,,,,,,,,,,,,,,,,,
365475,001,2022-11-20_23h59.15.286,Info_measure_main_exp,2022.2.2,Win32,60.04563468,,,,,,,,,,,,,,,,,,masks/mask_004.jpg,,,,,,,,,,,,,,,,,,,,,,,,,,,,,,,,,,,,,,,,,,,0,4,4,3,1,,,,,,,,,,,,,,,,,,,,,,,,,,,,,,,,,,,,,,,,,,,,,,
365475,001,2022-11-20_23h59.15.286,Info_measure_main_exp,2022.2.2,Win32,60.04563468,,,,,,,,,,,,,,,,,,masks/mask_001.jpg,,,,,,,,,,,,,,,,,,,,,,,,,,,,,,,,,,,,,,,,,,,,,,,,0,0,0,0,1,,,,,,,,,,,,,,,,,,,,,,,,,,,,,,,,,,,,,,,,,
365475,001,2022-11-20_23h59.15.286,Info_measure_main_exp,2022.2.2,Win32,60.04563468,,,,,,,,,,,,,,,,,,masks/mask_004.jpg,,,,,,,,,,,,,,,,,,,,,,,,,,,,,,,,,,,,,,,,,,,,,,,,0,1,1,3,1,,,,,,,,,,,,,,,,,,,,,,,,,,,,,,,,,,,,,,,,,
365475,001,2022-11-20_23h59.15.286,Info_measure_main_exp,2022.2.2,Win32,60.04563468,,,,,,,,,,,,,,,,,,masks/mask_002.jpg,,,,,,,,,,,,,,,,,,,,,,,,,,,,,,,,,,,,,,,,,,,,,,,,0,2,2,1,1,,,,,,,,,,,,,,,,,,,,,,,,,,,,,,,,,,,,,,,,,
365475,001,2022-11-20_23h59.15.286,Info_measure_main_exp,2022.2.2,Win32,60.04563468,,,,,,,,,,,,,,,,,,masks/mask_005.jpg,,,,,,,,,,,,,,,,,,,,,,,,,,,,,,,,,,,,,,,,,,,,,,,,0,3,3,4,1,,,,,,,,,,,,,,,,,,,,,,,,,,,,,,,,,,,,,,,,,
365475,001,2022-11-20_23h59.15.286,Info_measure_main_exp,2022.2.2,Win32,60.04563468,,,,,,,,,,,,,,,,,,masks/mask_003.jpg,,,,,,,,,,,,,,,,,,,,,,,,,,,,,,,,,,,,,,,,,,,,,,,,0,4,4,2,1,,,,,,,,,,,,,,,,,,,,,,,,,,,,,,,,,,,,,,,,,
365475,001,2022-11-20_23h59.15.286,Info_measure_main_exp,2022.2.2,Win32,60.04563468,,,,,,,,,,,,,,,,,,,,,,,,,,,,,,5,2.9667,1,,,,,,,,,,,,1,131,5,5,1,2154,present_patch/cong_131_5_a.jpg,absent_patch/patch0002154.jpg,,,,,,,,,,,,,,,,,,,,0.155555584,-0.051851873,1,0,0,response3disk,4,-0.002777735,-0.008333347,1,0,0,center_square,0,3,3,87,1,,,,,,,,,,,,,,,,,,,,,,,
365475,001,2022-11-20_23h59.15.286,Info_measure_main_exp,2022.2.2,Win32,60.04563468,,,,,,,,,,,,,,,,,,masks/mask_001.jpg,,,,,,,,,,,,,,,,,,,,,,,,,,,,,,,,,,,,,,,,,,,0,0,0,0,1,,,,,,,,,,,,,,,,,,,,,,,,,,,,,,,,,,,,,,,,,,,,,,
365475,001,2022-11-20_23h59.15.286,Info_measure_main_exp,2022.2.2,Win32,60.04563468,,,,,,,,,,,,,,,,,,masks/mask_004.jpg,,,,,,,,,,,,,,,,,,,,,,,,,,,,,,,,,,,,,,,,,,,0,1,1,3,1,,,,,,,,,,,,,,,,,,,,,,,,,,,,,,,,,,,,,,,,,,,,,,
365475,001,2022-11-20_23h59.15.286,Info_measure_main_exp,2022.2.2,Win32,60.04563468,,,,,,,,,,,,,,,,,,masks/mask_002.jpg,,,,,,,,,,,,,,,,,,,,,,,,,,,,,,,,,,,,,,,,,,,0,2,2,1,1,,,,,,,,,,,,,,,,,,,,,,,,,,,,,,,,,,,,,,,,,,,,,,
365475,001,2022-11-20_23h59.15.286,Info_measure_main_exp,2022.2.2,Win32,60.04563468,,,,,,,,,,,,,,,,,,masks/mask_005.jpg,,,,,,,,,,,,,,,,,,,,,,,,,,,,,,,,,,,,,,,,,,,0,3,3,4,1,,,,,,,,,,,,,,,,,,,,,,,,,,,,,,,,,,,,,,,,,,,,,,
365475,001,2022-11-20_23h59.15.286,Info_measure_main_exp,2022.2.2,Win32,60.04563468,,,,,,,,,,,,,,,,,,masks/mask_003.jpg,,,,,,,,,,,,,,,,,,,,,,,,,,,,,,,,,,,,,,,,,,,0,4,4,2,1,,,,,,,,,,,,,,,,,,,,,,,,,,,,,,,,,,,,,,,,,,,,,,
365475,001,2022-11-20_23h59.15.286,Info_measure_main_exp,2022.2.2,Win32,60.04563468,,,,,,,,,,,,,,,,,,masks/mask_004.jpg,,,,,,,,,,,,,,,,,,,,,,,,,,,,,,,,,,,,,,,,,,,,,,,,0,0,0,3,1,,,,,,,,,,,,,,,,,,,,,,,,,,,,,,,,,,,,,,,,,
365475,001,2022-11-20_23h59.15.286,Info_measure_main_exp,2022.2.2,Win32,60.04563468,,,,,,,,,,,,,,,,,,masks/mask_002.jpg,,,,,,,,,,,,,,,,,,,,,,,,,,,,,,,,,,,,,,,,,,,,,,,,0,1,1,1,1,,,,,,,,,,,,,,,,,,,,,,,,,,,,,,,,,,,,,,,,,
365475,001,2022-11-20_23h59.15.286,Info_measure_main_exp,2022.2.2,Win32,60.04563468,,,,,,,,,,,,,,,,,,masks/mask_005.jpg,,,,,,,,,,,,,,,,,,,,,,,,,,,,,,,,,,,,,,,,,,,,,,,,0,2,2,4,1,,,,,,,,,,,,,,,,,,,,,,,,,,,,,,,,,,,,,,,,,
365475,001,2022-11-20_23h59.15.286,Info_measure_main_exp,2022.2.2,Win32,60.04563468,,,,,,,,,,,,,,,,,,masks/mask_001.jpg,,,,,,,,,,,,,,,,,,,,,,,,,,,,,,,,,,,,,,,,,,,,,,,,0,3,3,0,1,,,,,,,,,,,,,,,,,,,,,,,,,,,,,,,,,,,,,,,,,
365475,001,2022-11-20_23h59.15.286,Info_measure_main_exp,2022.2.2,Win32,60.04563468,,,,,,,,,,,,,,,,,,masks/mask_003.jpg,,,,,,,,,,,,,,,,,,,,,,,,,,,,,,,,,,,,,,,,,,,,,,,,0,4,4,2,1,,,,,,,,,,,,,,,,,,,,,,,,,,,,,,,,,,,,,,,,,
365475,001,2022-11-20_23h59.15.286,Info_measure_main_exp,2022.2.2,Win32,60.04563468,,,,,,,,,,,,,,,,,,,,,,,,,,,,,,6,3.2379,1,,,,,,,,,,,,0,131,5,5,1986,1950,absent_patch/patch0001986.jpg,absent_patch/patch0001950.jpg,,,,,,,,,,,,,,,,,,,,0.168518561,0.070370356,1,0,0,response1disk,5,0.005555541,0.001851859,1,0,0,center_square,0,4,4,15,1,,,,,,,,,,,,,,,,,,,,,,,
365475,001,2022-11-20_23h59.15.286,Info_measure_main_exp,2022.2.2,Win32,60.04563468,,,,,,,,,,,,,,,,,,masks/mask_001.jpg,,,,,,,,,,,,,,,,,,,,,,,,,,,,,,,,,,,,,,,,,,,0,0,0,0,1,,,,,,,,,,,,,,,,,,,,,,,,,,,,,,,,,,,,,,,,,,,,,,
365475,001,2022-11-20_23h59.15.286,Info_measure_main_exp,2022.2.2,Win32,60.04563468,,,,,,,,,,,,,,,,,,masks/mask_003.jpg,,,,,,,,,,,,,,,,,,,,,,,,,,,,,,,,,,,,,,,,,,,0,1,1,2,1,,,,,,,,,,,,,,,,,,,,,,,,,,,,,,,,,,,,,,,,,,,,,,
365475,001,2022-11-20_23h59.15.286,Info_measure_main_exp,2022.2.2,Win32,60.04563468,,,,,,,,,,,,,,,,,,masks/mask_002.jpg,,,,,,,,,,,,,,,,,,,,,,,,,,,,,,,,,,,,,,,,,,,0,2,2,1,1,,,,,,,,,,,,,,,,,,,,,,,,,,,,,,,,,,,,,,,,,,,,,,
365475,001,2022-11-20_23h59.15.286,Info_measure_main_exp,2022.2.2,Win32,60.04563468,,,,,,,,,,,,,,,,,,masks/mask_004.jpg,,,,,,,,,,,,,,,,,,,,,,,,,,,,,,,,,,,,,,,,,,,0,3,3,3,1,,,,,,,,,,,,,,,,,,,,,,,,,,,,,,,,,,,,,,,,,,,,,,
365475,001,2022-11-20_23h59.15.286,Info_measure_main_exp,2022.2.2,Win32,60.04563468,,,,,,,,,,,,,,,,,,masks/mask_005.jpg,,,,,,,,,,,,,,,,,,,,,,,,,,,,,,,,,,,,,,,,,,,0,4,4,4,1,,,,,,,,,,,,,,,,,,,,,,,,,,,,,,,,,,,,,,,,,,,,,,
365475,001,2022-11-20_23h59.15.286,Info_measure_main_exp,2022.2.2,Win32,60.04563468,,,,,,,,,,,,,,,,,,masks/mask_005.jpg,,,,,,,,,,,,,,,,,,,,,,,,,,,,,,,,,,,,,,,,,,,,,,,,0,0,0,4,1,,,,,,,,,,,,,,,,,,,,,,,,,,,,,,,,,,,,,,,,,
365475,001,2022-11-20_23h59.15.286,Info_measure_main_exp,2022.2.2,Win32,60.04563468,,,,,,,,,,,,,,,,,,masks/mask_002.jpg,,,,,,,,,,,,,,,,,,,,,,,,,,,,,,,,,,,,,,,,,,,,,,,,0,1,1,1,1,,,,,,,,,,,,,,,,,,,,,,,,,,,,,,,,,,,,,,,,,
365475,001,2022-11-20_23h59.15.286,Info_measure_main_exp,2022.2.2,Win32,60.04563468,,,,,,,,,,,,,,,,,,masks/mask_004.jpg,,,,,,,,,,,,,,,,,,,,,,,,,,,,,,,,,,,,,,,,,,,,,,,,0,2,2,3,1,,,,,,,,,,,,,,,,,,,,,,,,,,,,,,,,,,,,,,,,,
365475,001,2022-11-20_23h59.15.286,Info_measure_main_exp,2022.2.2,Win32,60.04563468,,,,,,,,,,,,,,,,,,masks/mask_003.jpg,,,,,,,,,,,,,,,,,,,,,,,,,,,,,,,,,,,,,,,,,,,,,,,,0,3,3,2,1,,,,,,,,,,,,,,,,,,,,,,,,,,,,,,,,,,,,,,,,,
365475,001,2022-11-20_23h59.15.286,Info_measure_main_exp,2022.2.2,Win32,60.04563468,,,,,,,,,,,,,,,,,,masks/mask_001.jpg,,,,,,,,,,,,,,,,,,,,,,,,,,,,,,,,,,,,,,,,,,,,,,,,0,4,4,0,1,,,,,,,,,,,,,,,,,,,,,,,,,,,,,,,,,,,,,,,,,
365475,001,2022-11-20_23h59.15.286,Info_measure_main_exp,2022.2.2,Win32,60.04563468,,,,,,,,,,,,,,,,,,,,,,,,,,,,,,3,2.9617,1,,,,,,,,,,,,0,131,5,5,2154,2238,absent_patch/patch0002154.jpg,absent_patch/patch0002238.jpg,,,,,,,,,,,,,,,,,,,,-0.061111097,-0.148148148,1,0,0,response5disk,6,0.000925912,0.00462963,1,0,0,center_square,0,5,5,21,1,,,,,,,,,,,,,,,,,,,,,,,
365475,001,2022-11-20_23h59.15.286,Info_measure_main_exp,2022.2.2,Win32,60.04563468,,,,,,,,,,,,,,,,,,masks/mask_003.jpg,,,,,,,,,,,,,,,,,,,,,,,,,,,,,,,,,,,,,,,,,,,0,0,0,2,1,,,,,,,,,,,,,,,,,,,,,,,,,,,,,,,,,,,,,,,,,,,,,,
365475,001,2022-11-20_23h59.15.286,Info_measure_main_exp,2022.2.2,Win32,60.04563468,,,,,,,,,,,,,,,,,,masks/mask_004.jpg,,,,,,,,,,,,,,,,,,,,,,,,,,,,,,,,,,,,,,,,,,,0,1,1,3,1,,,,,,,,,,,,,,,,,,,,,,,,,,,,,,,,,,,,,,,,,,,,,,
365475,001,2022-11-20_23h59.15.286,Info_measure_main_exp,2022.2.2,Win32,60.04563468,,,,,,,,,,,,,,,,,,masks/mask_005.jpg,,,,,,,,,,,,,,,,,,,,,,,,,,,,,,,,,,,,,,,,,,,0,2,2,4,1,,,,,,,,,,,,,,,,,,,,,,,,,,,,,,,,,,,,,,,,,,,,,,
365475,001,2022-11-20_23h59.15.286,Info_measure_main_exp,2022.2.2,Win32,60.04563468,,,,,,,,,,,,,,,,,,masks/mask_001.jpg,,,,,,,,,,,,,,,,,,,,,,,,,,,,,,,,,,,,,,,,,,,0,3,3,0,1,,,,,,,,,,,,,,,,,,,,,,,,,,,,,,,,,,,,,,,,,,,,,,
365475,001,2022-11-20_23h59.15.286,Info_measure_main_exp,2022.2.2,Win32,60.04563468,,,,,,,,,,,,,,,,,,masks/mask_002.jpg,,,,,,,,,,,,,,,,,,,,,,,,,,,,,,,,,,,,,,,,,,,0,4,4,1,1,,,,,,,,,,,,,,,,,,,,,,,,,,,,,,,,,,,,,,,,,,,,,,
365475,001,2022-11-20_23h59.15.286,Info_measure_main_exp,2022.2.2,Win32,60.04563468,,,,,,,,,,,,,,,,,,masks/mask_001.jpg,,,,,,,,,,,,,,,,,,,,,,,,,,,,,,,,,,,,,,,,,,,,,,,,0,0,0,0,1,,,,,,,,,,,,,,,,,,,,,,,,,,,,,,,,,,,,,,,,,
365475,001,2022-11-20_23h59.15.286,Info_measure_main_exp,2022.2.2,Win32,60.04563468,,,,,,,,,,,,,,,,,,masks/mask_004.jpg,,,,,,,,,,,,,,,,,,,,,,,,,,,,,,,,,,,,,,,,,,,,,,,,0,1,1,3,1,,,,,,,,,,,,,,,,,,,,,,,,,,,,,,,,,,,,,,,,,
365475,001,2022-11-20_23h59.15.286,Info_measure_main_exp,2022.2.2,Win32,60.04563468,,,,,,,,,,,,,,,,,,masks/mask_002.jpg,,,,,,,,,,,,,,,,,,,,,,,,,,,,,,,,,,,,,,,,,,,,,,,,0,2,2,1,1,,,,,,,,,,,,,,,,,,,,,,,,,,,,,,,,,,,,,,,,,
365475,001,2022-11-20_23h59.15.286,Info_measure_main_exp,2022.2.2,Win32,60.04563468,,,,,,,,,,,,,,,,,,masks/mask_003.jpg,,,,,,,,,,,,,,,,,,,,,,,,,,,,,,,,,,,,,,,,,,,,,,,,0,3,3,2,1,,,,,,,,,,,,,,,,,,,,,,,,,,,,,,,,,,,,,,,,,
365475,001,2022-11-20_23h59.15.286,Info_measure_main_exp,2022.2.2,Win32,60.04563468,,,,,,,,,,,,,,,,,,masks/mask_005.jpg,,,,,,,,,,,,,,,,,,,,,,,,,,,,,,,,,,,,,,,,,,,,,,,,0,4,4,4,1,,,,,,,,,,,,,,,,,,,,,,,,,,,,,,,,,,,,,,,,,
365475,001,2022-11-20_23h59.15.286,Info_measure_main_exp,2022.2.2,Win32,60.04563468,,,,,,,,,,,,,,,,,,,,,,,,,,,,,,6,1.6343,1,,,,,,,,,,,,0,131,5,5,2082,2238,absent_patch/patch0002082.jpg,absent_patch/patch0002238.jpg,,,,,,,,,,,,,,,,,,,,0.170370384,0.039814808,1,0,0,response1disk,7,-0.002777735,-0.006481489,1,0,0,center_square,0,6,6,22,1,,,,,,,,,,,,,,,,,,,,,,,
365475,001,2022-11-20_23h59.15.286,Info_measure_main_exp,2022.2.2,Win32,60.04563468,,,,,,,,,,,,,,,,,,masks/mask_004.jpg,,,,,,,,,,,,,,,,,,,,,,,,,,,,,,,,,,,,,,,,,,,0,0,0,3,1,,,,,,,,,,,,,,,,,,,,,,,,,,,,,,,,,,,,,,,,,,,,,,
365475,001,2022-11-20_23h59.15.286,Info_measure_main_exp,2022.2.2,Win32,60.04563468,,,,,,,,,,,,,,,,,,masks/mask_003.jpg,,,,,,,,,,,,,,,,,,,,,,,,,,,,,,,,,,,,,,,,,,,0,1,1,2,1,,,,,,,,,,,,,,,,,,,,,,,,,,,,,,,,,,,,,,,,,,,,,,
365475,001,2022-11-20_23h59.15.286,Info_measure_main_exp,2022.2.2,Win32,60.04563468,,,,,,,,,,,,,,,,,,masks/mask_001.jpg,,,,,,,,,,,,,,,,,,,,,,,,,,,,,,,,,,,,,,,,,,,0,2,2,0,1,,,,,,,,,,,,,,,,,,,,,,,,,,,,,,,,,,,,,,,,,,,,,,
365475,001,2022-11-20_23h59.15.286,Info_measure_main_exp,2022.2.2,Win32,60.04563468,,,,,,,,,,,,,,,,,,masks/mask_002.jpg,,,,,,,,,,,,,,,,,,,,,,,,,,,,,,,,,,,,,,,,,,,0,3,3,1,1,,,,,,,,,,,,,,,,,,,,,,,,,,,,,,,,,,,,,,,,,,,,,,
365475,001,2022-11-20_23h59.15.286,Info_measure_main_exp,2022.2.2,Win32,60.04563468,,,,,,,,,,,,,,,,,,masks/mask_005.jpg,,,,,,,,,,,,,,,,,,,,,,,,,,,,,,,,,,,,,,,,,,,0,4,4,4,1,,,,,,,,,,,,,,,,,,,,,,,,,,,,,,,,,,,,,,,,,,,,,,
365475,001,2022-11-20_23h59.15.286,Info_measure_main_exp,2022.2.2,Win32,60.04563468,,,,,,,,,,,,,,,,,,masks/mask_002.jpg,,,,,,,,,,,,,,,,,,,,,,,,,,,,,,,,,,,,,,,,,,,,,,,,0,0,0,1,1,,,,,,,,,,,,,,,,,,,,,,,,,,,,,,,,,,,,,,,,,
365475,001,2022-11-20_23h59.15.286,Info_measure_main_exp,2022.2.2,Win32,60.04563468,,,,,,,,,,,,,,,,,,masks/mask_001.jpg,,,,,,,,,,,,,,,,,,,,,,,,,,,,,,,,,,,,,,,,,,,,,,,,0,1,1,0,1,,,,,,,,,,,,,,,,,,,,,,,,,,,,,,,,,,,,,,,,,
365475,001,2022-11-20_23h59.15.286,Info_measure_main_exp,2022.2.2,Win32,60.04563468,,,,,,,,,,,,,,,,,,masks/mask_005.jpg,,,,,,,,,,,,,,,,,,,,,,,,,,,,,,,,,,,,,,,,,,,,,,,,0,2,2,4,1,,,,,,,,,,,,,,,,,,,,,,,,,,,,,,,,,,,,,,,,,
365475,001,2022-11-20_23h59.15.286,Info_measure_main_exp,2022.2.2,Win32,60.04563468,,,,,,,,,,,,,,,,,,masks/mask_003.jpg,,,,,,,,,,,,,,,,,,,,,,,,,,,,,,,,,,,,,,,,,,,,,,,,0,3,3,2,1,,,,,,,,,,,,,,,,,,,,,,,,,,,,,,,,,,,,,,,,,
365475,001,2022-11-20_23h59.15.286,Info_measure_main_exp,2022.2.2,Win32,60.04563468,,,,,,,,,,,,,,,,,,masks/mask_004.jpg,,,,,,,,,,,,,,,,,,,,,,,,,,,,,,,,,,,,,,,,,,,,,,,,0,4,4,3,1,,,,,,,,,,,,,,,,,,,,,,,,,,,,,,,,,,,,,,,,,
365475,001,2022-11-20_23h59.15.286,Info_measure_main_exp,2022.2.2,Win32,60.04563468,,,,,,,,,,,,,,,,,,,,,,,,,,,,,,4,2.2333,1,,,,,,,,,,,,0,131,5,5,1950,2082,absent_patch/patch0001950.jpg,absent_patch/patch0002082.jpg,,,,,,,,,,,,,,,,,,,,0.037037037,-0.103703746,1,0,0,response3disk,8,-0.001851824,0,1,0,0,center_square,0,7,7,12,1,,,,,,,,,,,,,,,,,,,,,,,
365475,001,2022-11-20_23h59.15.286,Info_measure_main_exp,2022.2.2,Win32,60.04563468,,,,,,,,,,,,,,,,,,masks/mask_001.jpg,,,,,,,,,,,,,,,,,,,,,,,,,,,,,,,,,,,,,,,,,,,0,0,0,0,1,,,,,,,,,,,,,,,,,,,,,,,,,,,,,,,,,,,,,,,,,,,,,,
365475,001,2022-11-20_23h59.15.286,Info_measure_main_exp,2022.2.2,Win32,60.04563468,,,,,,,,,,,,,,,,,,masks/mask_005.jpg,,,,,,,,,,,,,,,,,,,,,,,,,,,,,,,,,,,,,,,,,,,0,1,1,4,1,,,,,,,,,,,,,,,,,,,,,,,,,,,,,,,,,,,,,,,,,,,,,,
365475,001,2022-11-20_23h59.15.286,Info_measure_main_exp,2022.2.2,Win32,60.04563468,,,,,,,,,,,,,,,,,,masks/mask_002.jpg,,,,,,,,,,,,,,,,,,,,,,,,,,,,,,,,,,,,,,,,,,,0,2,2,1,1,,,,,,,,,,,,,,,,,,,,,,,,,,,,,,,,,,,,,,,,,,,,,,
365475,001,2022-11-20_23h59.15.286,Info_measure_main_exp,2022.2.2,Win32,60.04563468,,,,,,,,,,,,,,,,,,masks/mask_003.jpg,,,,,,,,,,,,,,,,,,,,,,,,,,,,,,,,,,,,,,,,,,,0,3,3,2,1,,,,,,,,,,,,,,,,,,,,,,,,,,,,,,,,,,,,,,,,,,,,,,
365475,001,2022-11-20_23h59.15.286,Info_measure_main_exp,2022.2.2,Win32,60.04563468,,,,,,,,,,,,,,,,,,masks/mask_004.jpg,,,,,,,,,,,,,,,,,,,,,,,,,,,,,,,,,,,,,,,,,,,0,4,4,3,1,,,,,,,,,,,,,,,,,,,,,,,,,,,,,,,,,,,,,,,,,,,,,,
365475,001,2022-11-20_23h59.15.286,Info_measure_main_exp,2022.2.2,Win32,60.04563468,,,,,,,,,,,,,,,,,,masks/mask_005.jpg,,,,,,,,,,,,,,,,,,,,,,,,,,,,,,,,,,,,,,,,,,,,,,,,0,0,0,4,1,,,,,,,,,,,,,,,,,,,,,,,,,,,,,,,,,,,,,,,,,
365475,001,2022-11-20_23h59.15.286,Info_measure_main_exp,2022.2.2,Win32,60.04563468,,,,,,,,,,,,,,,,,,masks/mask_004.jpg,,,,,,,,,,,,,,,,,,,,,,,,,,,,,,,,,,,,,,,,,,,,,,,,0,1,1,3,1,,,,,,,,,,,,,,,,,,,,,,,,,,,,,,,,,,,,,,,,,
365475,001,2022-11-20_23h59.15.286,Info_measure_main_exp,2022.2.2,Win32,60.04563468,,,,,,,,,,,,,,,,,,masks/mask_003.jpg,,,,,,,,,,,,,,,,,,,,,,,,,,,,,,,,,,,,,,,,,,,,,,,,0,2,2,2,1,,,,,,,,,,,,,,,,,,,,,,,,,,,,,,,,,,,,,,,,,
365475,001,2022-11-20_23h59.15.286,Info_measure_main_exp,2022.2.2,Win32,60.04563468,,,,,,,,,,,,,,,,,,masks/mask_001.jpg,,,,,,,,,,,,,,,,,,,,,,,,,,,,,,,,,,,,,,,,,,,,,,,,0,3,3,0,1,,,,,,,,,,,,,,,,,,,,,,,,,,,,,,,,,,,,,,,,,
365475,001,2022-11-20_23h59.15.286,Info_measure_main_exp,2022.2.2,Win32,60.04563468,,,,,,,,,,,,,,,,,,masks/mask_002.jpg,,,,,,,,,,,,,,,,,,,,,,,,,,,,,,,,,,,,,,,,,,,,,,,,0,4,4,1,1,,,,,,,,,,,,,,,,,,,,,,,,,,,,,,,,,,,,,,,,,
365475,001,2022-11-20_23h59.15.286,Info_measure_main_exp,2022.2.2,Win32,60.04563468,,,,,,,,,,,,,,,,,,,,,,,,,,,,,,7,2.1145,1,,,,,,,,,,,,0,131,5,5,2214,1986,absent_patch/patch0002214.jpg,absent_patch/patch0001986.jpg,,,,,,,,,,,,,,,,,,,,0.087037051,0.121296282,1,0,0,response1disk,9,0.003703718,-0.00462963,1,0,0,center_square,0,8,8,34,1,,,,,,,,,,,,,,,,,,,,,,,
365475,001,2022-11-20_23h59.15.286,Info_measure_main_exp,2022.2.2,Win32,60.04563468,,,,,,,,,,,,,,,,,,masks/mask_002.jpg,,,,,,,,,,,,,,,,,,,,,,,,,,,,,,,,,,,,,,,,,,,0,0,0,1,1,,,,,,,,,,,,,,,,,,,,,,,,,,,,,,,,,,,,,,,,,,,,,,
365475,001,2022-11-20_23h59.15.286,Info_measure_main_exp,2022.2.2,Win32,60.04563468,,,,,,,,,,,,,,,,,,masks/mask_003.jpg,,,,,,,,,,,,,,,,,,,,,,,,,,,,,,,,,,,,,,,,,,,0,1,1,2,1,,,,,,,,,,,,,,,,,,,,,,,,,,,,,,,,,,,,,,,,,,,,,,
365475,001,2022-11-20_23h59.15.286,Info_measure_main_exp,2022.2.2,Win32,60.04563468,,,,,,,,,,,,,,,,,,masks/mask_005.jpg,,,,,,,,,,,,,,,,,,,,,,,,,,,,,,,,,,,,,,,,,,,0,2,2,4,1,,,,,,,,,,,,,,,,,,,,,,,,,,,,,,,,,,,,,,,,,,,,,,
365475,001,2022-11-20_23h59.15.286,Info_measure_main_exp,2022.2.2,Win32,60.04563468,,,,,,,,,,,,,,,,,,masks/mask_004.jpg,,,,,,,,,,,,,,,,,,,,,,,,,,,,,,,,,,,,,,,,,,,0,3,3,3,1,,,,,,,,,,,,,,,,,,,,,,,,,,,,,,,,,,,,,,,,,,,,,,
365475,001,2022-11-20_23h59.15.286,Info_measure_main_exp,2022.2.2,Win32,60.04563468,,,,,,,,,,,,,,,,,,masks/mask_001.jpg,,,,,,,,,,,,,,,,,,,,,,,,,,,,,,,,,,,,,,,,,,,0,4,4,0,1,,,,,,,,,,,,,,,,,,,,,,,,,,,,,,,,,,,,,,,,,,,,,,
365475,001,2022-11-20_23h59.15.286,Info_measure_main_exp,2022.2.2,Win32,60.04563468,,,,,,,,,,,,,,,,,,masks/mask_001.jpg,,,,,,,,,,,,,,,,,,,,,,,,,,,,,,,,,,,,,,,,,,,,,,,,0,0,0,0,1,,,,,,,,,,,,,,,,,,,,,,,,,,,,,,,,,,,,,,,,,
365475,001,2022-11-20_23h59.15.286,Info_measure_main_exp,2022.2.2,Win32,60.04563468,,,,,,,,,,,,,,,,,,masks/mask_005.jpg,,,,,,,,,,,,,,,,,,,,,,,,,,,,,,,,,,,,,,,,,,,,,,,,0,1,1,4,1,,,,,,,,,,,,,,,,,,,,,,,,,,,,,,,,,,,,,,,,,
365475,001,2022-11-20_23h59.15.286,Info_measure_main_exp,2022.2.2,Win32,60.04563468,,,,,,,,,,,,,,,,,,masks/mask_004.jpg,,,,,,,,,,,,,,,,,,,,,,,,,,,,,,,,,,,,,,,,,,,,,,,,0,2,2,3,1,,,,,,,,,,,,,,,,,,,,,,,,,,,,,,,,,,,,,,,,,
365475,001,2022-11-20_23h59.15.286,Info_measure_main_exp,2022.2.2,Win32,60.04563468,,,,,,,,,,,,,,,,,,masks/mask_002.jpg,,,,,,,,,,,,,,,,,,,,,,,,,,,,,,,,,,,,,,,,,,,,,,,,0,3,3,1,1,,,,,,,,,,,,,,,,,,,,,,,,,,,,,,,,,,,,,,,,,
365475,001,2022-11-20_23h59.15.286,Info_measure_main_exp,2022.2.2,Win32,60.04563468,,,,,,,,,,,,,,,,,,masks/mask_003.jpg,,,,,,,,,,,,,,,,,,,,,,,,,,,,,,,,,,,,,,,,,,,,,,,,0,4,4,2,1,,,,,,,,,,,,,,,,,,,,,,,,,,,,,,,,,,,,,,,,,
365475,001,2022-11-20_23h59.15.286,Info_measure_main_exp,2022.2.2,Win32,60.04563468,,,,,,,,,,,,,,,,,,,,,,,,,,,,,,5,1.1833,1,,,,,,,,,,,,0,131,5,5,2298,1986,absent_patch/patch0002298.jpg,absent_patch/patch0001986.jpg,,,,,,,,,,,,,,,,,,,,0.12037037,-0.035185178,1,0,0,response3disk,10,0.011111153,-0.001851859,1,0,0,center_square,0,9,9,32,1,,,,,,,,,,,,,,,,,,,,,,,
365475,001,2022-11-20_23h59.15.286,Info_measure_main_exp,2022.2.2,Win32,60.04563468,,,,,,,,,,,,,,,,,,masks/mask_005.jpg,,,,,,,,,,,,,,,,,,,,,,,,,,,,,,,,,,,,,,,,,,,0,0,0,4,1,,,,,,,,,,,,,,,,,,,,,,,,,,,,,,,,,,,,,,,,,,,,,,
365475,001,2022-11-20_23h59.15.286,Info_measure_main_exp,2022.2.2,Win32,60.04563468,,,,,,,,,,,,,,,,,,masks/mask_002.jpg,,,,,,,,,,,,,,,,,,,,,,,,,,,,,,,,,,,,,,,,,,,0,1,1,1,1,,,,,,,,,,,,,,,,,,,,,,,,,,,,,,,,,,,,,,,,,,,,,,
365475,001,2022-11-20_23h59.15.286,Info_measure_main_exp,2022.2.2,Win32,60.04563468,,,,,,,,,,,,,,,,,,masks/mask_004.jpg,,,,,,,,,,,,,,,,,,,,,,,,,,,,,,,,,,,,,,,,,,,0,2,2,3,1,,,,,,,,,,,,,,,,,,,,,,,,,,,,,,,,,,,,,,,,,,,,,,
365475,001,2022-11-20_23h59.15.286,Info_measure_main_exp,2022.2.2,Win32,60.04563468,,,,,,,,,,,,,,,,,,masks/mask_003.jpg,,,,,,,,,,,,,,,,,,,,,,,,,,,,,,,,,,,,,,,,,,,0,3,3,2,1,,,,,,,,,,,,,,,,,,,,,,,,,,,,,,,,,,,,,,,,,,,,,,
365475,001,2022-11-20_23h59.15.286,Info_measure_main_exp,2022.2.2,Win32,60.04563468,,,,,,,,,,,,,,,,,,masks/mask_001.jpg,,,,,,,,,,,,,,,,,,,,,,,,,,,,,,,,,,,,,,,,,,,0,4,4,0,1,,,,,,,,,,,,,,,,,,,,,,,,,,,,,,,,,,,,,,,,,,,,,,
365475,001,2022-11-20_23h59.15.286,Info_measure_main_exp,2022.2.2,Win32,60.04563468,,,,,,,,,,,,,,,,,,masks/mask_001.jpg,,,,,,,,,,,,,,,,,,,,,,,,,,,,,,,,,,,,,,,,,,,,,,,,0,0,0,0,1,,,,,,,,,,,,,,,,,,,,,,,,,,,,,,,,,,,,,,,,,
365475,001,2022-11-20_23h59.15.286,Info_measure_main_exp,2022.2.2,Win32,60.04563468,,,,,,,,,,,,,,,,,,masks/mask_004.jpg,,,,,,,,,,,,,,,,,,,,,,,,,,,,,,,,,,,,,,,,,,,,,,,,0,1,1,3,1,,,,,,,,,,,,,,,,,,,,,,,,,,,,,,,,,,,,,,,,,
365475,001,2022-11-20_23h59.15.286,Info_measure_main_exp,2022.2.2,Win32,60.04563468,,,,,,,,,,,,,,,,,,masks/mask_002.jpg,,,,,,,,,,,,,,,,,,,,,,,,,,,,,,,,,,,,,,,,,,,,,,,,0,2,2,1,1,,,,,,,,,,,,,,,,,,,,,,,,,,,,,,,,,,,,,,,,,
365475,001,2022-11-20_23h59.15.286,Info_measure_main_exp,2022.2.2,Win32,60.04563468,,,,,,,,,,,,,,,,,,masks/mask_003.jpg,,,,,,,,,,,,,,,,,,,,,,,,,,,,,,,,,,,,,,,,,,,,,,,,0,3,3,2,1,,,,,,,,,,,,,,,,,,,,,,,,,,,,,,,,,,,,,,,,,
365475,001,2022-11-20_23h59.15.286,Info_measure_main_exp,2022.2.2,Win32,60.04563468,,,,,,,,,,,,,,,,,,masks/mask_005.jpg,,,,,,,,,,,,,,,,,,,,,,,,,,,,,,,,,,,,,,,,,,,,,,,,0,4,4,4,1,,,,,,,,,,,,,,,,,,,,,,,,,,,,,,,,,,,,,,,,,
365475,001,2022-11-20_23h59.15.286,Info_measure_main_exp,2022.2.2,Win32,60.04563468,,,,,,,,,,,,,,,,,,,,,,,,,,,,,,5,1.1667,1,,,,,,,,,,,,0,131,5,5,2190,2082,absent_patch/patch0002190.jpg,absent_patch/patch0002082.jpg,,,,,,,,,,,,,,,,,,,,0.147222236,-0.011111118,1,0,0,response3disk,11,0.006481524,-0.000925947,1,0,0,center_square,0,10,10,112,1,,,,,,,,,,,,,,,,,,,,,,,
365475,001,2022-11-20_23h59.15.286,Info_measure_main_exp,2022.2.2,Win32,60.04563468,,,,,,,,,,,,,,,,,,masks/mask_005.jpg,,,,,,,,,,,,,,,,,,,,,,,,,,,,,,,,,,,,,,,,,,,0,0,0,4,1,,,,,,,,,,,,,,,,,,,,,,,,,,,,,,,,,,,,,,,,,,,,,,
365475,001,2022-11-20_23h59.15.286,Info_measure_main_exp,2022.2.2,Win32,60.04563468,,,,,,,,,,,,,,,,,,masks/mask_001.jpg,,,,,,,,,,,,,,,,,,,,,,,,,,,,,,,,,,,,,,,,,,,0,1,1,0,1,,,,,,,,,,,,,,,,,,,,,,,,,,,,,,,,,,,,,,,,,,,,,,
365475,001,2022-11-20_23h59.15.286,Info_measure_main_exp,2022.2.2,Win32,60.04563468,,,,,,,,,,,,,,,,,,masks/mask_004.jpg,,,,,,,,,,,,,,,,,,,,,,,,,,,,,,,,,,,,,,,,,,,0,2,2,3,1,,,,,,,,,,,,,,,,,,,,,,,,,,,,,,,,,,,,,,,,,,,,,,
365475,001,2022-11-20_23h59.15.286,Info_measure_main_exp,2022.2.2,Win32,60.04563468,,,,,,,,,,,,,,,,,,masks/mask_003.jpg,,,,,,,,,,,,,,,,,,,,,,,,,,,,,,,,,,,,,,,,,,,0,3,3,2,1,,,,,,,,,,,,,,,,,,,,,,,,,,,,,,,,,,,,,,,,,,,,,,
365475,001,2022-11-20_23h59.15.286,Info_measure_main_exp,2022.2.2,Win32,60.04563468,,,,,,,,,,,,,,,,,,masks/mask_002.jpg,,,,,,,,,,,,,,,,,,,,,,,,,,,,,,,,,,,,,,,,,,,0,4,4,1,1,,,,,,,,,,,,,,,,,,,,,,,,,,,,,,,,,,,,,,,,,,,,,,
365475,001,2022-11-20_23h59.15.286,Info_measure_main_exp,2022.2.2,Win32,60.04563468,,,,,,,,,,,,,,,,,,masks/mask_004.jpg,,,,,,,,,,,,,,,,,,,,,,,,,,,,,,,,,,,,,,,,,,,,,,,,0,0,0,3,1,,,,,,,,,,,,,,,,,,,,,,,,,,,,,,,,,,,,,,,,,
365475,001,2022-11-20_23h59.15.286,Info_measure_main_exp,2022.2.2,Win32,60.04563468,,,,,,,,,,,,,,,,,,masks/mask_001.jpg,,,,,,,,,,,,,,,,,,,,,,,,,,,,,,,,,,,,,,,,,,,,,,,,0,1,1,0,1,,,,,,,,,,,,,,,,,,,,,,,,,,,,,,,,,,,,,,,,,
365475,001,2022-11-20_23h59.15.286,Info_measure_main_exp,2022.2.2,Win32,60.04563468,,,,,,,,,,,,,,,,,,masks/mask_003.jpg,,,,,,,,,,,,,,,,,,,,,,,,,,,,,,,,,,,,,,,,,,,,,,,,0,2,2,2,1,,,,,,,,,,,,,,,,,,,,,,,,,,,,,,,,,,,,,,,,,
365475,001,2022-11-20_23h59.15.286,Info_measure_main_exp,2022.2.2,Win32,60.04563468,,,,,,,,,,,,,,,,,,masks/mask_002.jpg,,,,,,,,,,,,,,,,,,,,,,,,,,,,,,,,,,,,,,,,,,,,,,,,0,3,3,1,1,,,,,,,,,,,,,,,,,,,,,,,,,,,,,,,,,,,,,,,,,
365475,001,2022-11-20_23h59.15.286,Info_measure_main_exp,2022.2.2,Win32,60.04563468,,,,,,,,,,,,,,,,,,masks/mask_005.jpg,,,,,,,,,,,,,,,,,,,,,,,,,,,,,,,,,,,,,,,,,,,,,,,,0,4,4,4,1,,,,,,,,,,,,,,,,,,,,,,,,,,,,,,,,,,,,,,,,,
365475,001,2022-11-20_23h59.15.286,Info_measure_main_exp,2022.2.2,Win32,60.04563468,,,,,,,,,,,,,,,,,,,,,,,,,,,,,,3,1.4824,1,,,,,,,,,,,,0,131,5,5,1974,2178,absent_patch/patch0001974.jpg,absent_patch/patch0002178.jpg,,,,,,,,,,,,,,,,,,,,-0.033333319,-0.090740734,1,0,0,response5disk,12,-0.005555541,0.008333312,1,0,0,center_square,0,11,11,44,1,,,,,,,,,,,,,,,,,,,,,,,
365475,001,2022-11-20_23h59.15.286,Info_measure_main_exp,2022.2.2,Win32,60.04563468,,,,,,,,,,,,,,,,,,masks/mask_002.jpg,,,,,,,,,,,,,,,,,,,,,,,,,,,,,,,,,,,,,,,,,,,0,0,0,1,1,,,,,,,,,,,,,,,,,,,,,,,,,,,,,,,,,,,,,,,,,,,,,,
365475,001,2022-11-20_23h59.15.286,Info_measure_main_exp,2022.2.2,Win32,60.04563468,,,,,,,,,,,,,,,,,,masks/mask_001.jpg,,,,,,,,,,,,,,,,,,,,,,,,,,,,,,,,,,,,,,,,,,,0,1,1,0,1,,,,,,,,,,,,,,,,,,,,,,,,,,,,,,,,,,,,,,,,,,,,,,
365475,001,2022-11-20_23h59.15.286,Info_measure_main_exp,2022.2.2,Win32,60.04563468,,,,,,,,,,,,,,,,,,masks/mask_004.jpg,,,,,,,,,,,,,,,,,,,,,,,,,,,,,,,,,,,,,,,,,,,0,2,2,3,1,,,,,,,,,,,,,,,,,,,,,,,,,,,,,,,,,,,,,,,,,,,,,,
365475,001,2022-11-20_23h59.15.286,Info_measure_main_exp,2022.2.2,Win32,60.04563468,,,,,,,,,,,,,,,,,,masks/mask_003.jpg,,,,,,,,,,,,,,,,,,,,,,,,,,,,,,,,,,,,,,,,,,,0,3,3,2,1,,,,,,,,,,,,,,,,,,,,,,,,,,,,,,,,,,,,,,,,,,,,,,
365475,001,2022-11-20_23h59.15.286,Info_measure_main_exp,2022.2.2,Win32,60.04563468,,,,,,,,,,,,,,,,,,masks/mask_005.jpg,,,,,,,,,,,,,,,,,,,,,,,,,,,,,,,,,,,,,,,,,,,0,4,4,4,1,,,,,,,,,,,,,,,,,,,,,,,,,,,,,,,,,,,,,,,,,,,,,,
365475,001,2022-11-20_23h59.15.286,Info_measure_main_exp,2022.2.2,Win32,60.04563468,,,,,,,,,,,,,,,,,,masks/mask_001.jpg,,,,,,,,,,,,,,,,,,,,,,,,,,,,,,,,,,,,,,,,,,,,,,,,0,0,0,0,1,,,,,,,,,,,,,,,,,,,,,,,,,,,,,,,,,,,,,,,,,
365475,001,2022-11-20_23h59.15.286,Info_measure_main_exp,2022.2.2,Win32,60.04563468,,,,,,,,,,,,,,,,,,masks/mask_002.jpg,,,,,,,,,,,,,,,,,,,,,,,,,,,,,,,,,,,,,,,,,,,,,,,,0,1,1,1,1,,,,,,,,,,,,,,,,,,,,,,,,,,,,,,,,,,,,,,,,,
365475,001,2022-11-20_23h59.15.286,Info_measure_main_exp,2022.2.2,Win32,60.04563468,,,,,,,,,,,,,,,,,,masks/mask_004.jpg,,,,,,,,,,,,,,,,,,,,,,,,,,,,,,,,,,,,,,,,,,,,,,,,0,2,2,3,1,,,,,,,,,,,,,,,,,,,,,,,,,,,,,,,,,,,,,,,,,
365475,001,2022-11-20_23h59.15.286,Info_measure_main_exp,2022.2.2,Win32,60.04563468,,,,,,,,,,,,,,,,,,masks/mask_005.jpg,,,,,,,,,,,,,,,,,,,,,,,,,,,,,,,,,,,,,,,,,,,,,,,,0,3,3,4,1,,,,,,,,,,,,,,,,,,,,,,,,,,,,,,,,,,,,,,,,,
365475,001,2022-11-20_23h59.15.286,Info_measure_main_exp,2022.2.2,Win32,60.04563468,,,,,,,,,,,,,,,,,,masks/mask_003.jpg,,,,,,,,,,,,,,,,,,,,,,,,,,,,,,,,,,,,,,,,,,,,,,,,0,4,4,2,1,,,,,,,,,,,,,,,,,,,,,,,,,,,,,,,,,,,,,,,,,
365475,001,2022-11-20_23h59.15.286,Info_measure_main_exp,2022.2.2,Win32,60.04563468,,,,,,,,,,,,,,,,,,,,,,,,,,,,,,6,1.5987,1,,,,,,,,,,,,0,131,5,5,2298,2274,absent_patch/patch0002298.jpg,absent_patch/patch0002274.jpg,,,,,,,,,,,,,,,,,,,,0.137962977,0.112037023,1,0,0,response1disk,13,-0.009259259,0,1,0,0,center_square,0,12,12,1,1,,,,,,,,,,,,,,,,,,,,,,,
365475,001,2022-11-20_23h59.15.286,Info_measure_main_exp,2022.2.2,Win32,60.04563468,,,,,,,,,,,,,,,,,,masks/mask_002.jpg,,,,,,,,,,,,,,,,,,,,,,,,,,,,,,,,,,,,,,,,,,,0,0,0,1,1,,,,,,,,,,,,,,,,,,,,,,,,,,,,,,,,,,,,,,,,,,,,,,
365475,001,2022-11-20_23h59.15.286,Info_measure_main_exp,2022.2.2,Win32,60.04563468,,,,,,,,,,,,,,,,,,masks/mask_003.jpg,,,,,,,,,,,,,,,,,,,,,,,,,,,,,,,,,,,,,,,,,,,0,1,1,2,1,,,,,,,,,,,,,,,,,,,,,,,,,,,,,,,,,,,,,,,,,,,,,,
365475,001,2022-11-20_23h59.15.286,Info_measure_main_exp,2022.2.2,Win32,60.04563468,,,,,,,,,,,,,,,,,,masks/mask_005.jpg,,,,,,,,,,,,,,,,,,,,,,,,,,,,,,,,,,,,,,,,,,,0,2,2,4,1,,,,,,,,,,,,,,,,,,,,,,,,,,,,,,,,,,,,,,,,,,,,,,
365475,001,2022-11-20_23h59.15.286,Info_measure_main_exp,2022.2.2,Win32,60.04563468,,,,,,,,,,,,,,,,,,masks/mask_004.jpg,,,,,,,,,,,,,,,,,,,,,,,,,,,,,,,,,,,,,,,,,,,0,3,3,3,1,,,,,,,,,,,,,,,,,,,,,,,,,,,,,,,,,,,,,,,,,,,,,,
365475,001,2022-11-20_23h59.15.286,Info_measure_main_exp,2022.2.2,Win32,60.04563468,,,,,,,,,,,,,,,,,,masks/mask_001.jpg,,,,,,,,,,,,,,,,,,,,,,,,,,,,,,,,,,,,,,,,,,,0,4,4,0,1,,,,,,,,,,,,,,,,,,,,,,,,,,,,,,,,,,,,,,,,,,,,,,
365475,001,2022-11-20_23h59.15.286,Info_measure_main_exp,2022.2.2,Win32,60.04563468,,,,,,,,,,,,,,,,,,masks/mask_005.jpg,,,,,,,,,,,,,,,,,,,,,,,,,,,,,,,,,,,,,,,,,,,,,,,,0,0,0,4,1,,,,,,,,,,,,,,,,,,,,,,,,,,,,,,,,,,,,,,,,,
365475,001,2022-11-20_23h59.15.286,Info_measure_main_exp,2022.2.2,Win32,60.04563468,,,,,,,,,,,,,,,,,,masks/mask_004.jpg,,,,,,,,,,,,,,,,,,,,,,,,,,,,,,,,,,,,,,,,,,,,,,,,0,1,1,3,1,,,,,,,,,,,,,,,,,,,,,,,,,,,,,,,,,,,,,,,,,
365475,001,2022-11-20_23h59.15.286,Info_measure_main_exp,2022.2.2,Win32,60.04563468,,,,,,,,,,,,,,,,,,masks/mask_001.jpg,,,,,,,,,,,,,,,,,,,,,,,,,,,,,,,,,,,,,,,,,,,,,,,,0,2,2,0,1,,,,,,,,,,,,,,,,,,,,,,,,,,,,,,,,,,,,,,,,,
365475,001,2022-11-20_23h59.15.286,Info_measure_main_exp,2022.2.2,Win32,60.04563468,,,,,,,,,,,,,,,,,,masks/mask_003.jpg,,,,,,,,,,,,,,,,,,,,,,,,,,,,,,,,,,,,,,,,,,,,,,,,0,3,3,2,1,,,,,,,,,,,,,,,,,,,,,,,,,,,,,,,,,,,,,,,,,
365475,001,2022-11-20_23h59.15.286,Info_measure_main_exp,2022.2.2,Win32,60.04563468,,,,,,,,,,,,,,,,,,masks/mask_002.jpg,,,,,,,,,,,,,,,,,,,,,,,,,,,,,,,,,,,,,,,,,,,,,,,,0,4,4,1,1,,,,,,,,,,,,,,,,,,,,,,,,,,,,,,,,,,,,,,,,,
365475,001,2022-11-20_23h59.15.286,Info_measure_main_exp,2022.2.2,Win32,60.04563468,,,,,,,,,,,,,,,,,,,,,,,,,,,,,,6,0.8181,1,,,,,,,,,,,,0,131,5,5,2178,2154,absent_patch/patch0002178.jpg,absent_patch/patch0002154.jpg,,,,,,,,,,,,,,,,,,,,0.138888889,0.062037044,1,0,0,response1disk,14,0.007407436,0.001851859,1,0,0,center_square,0,13,13,63,1,,,,,,,,,,,,,,,,,,,,,,,
365475,001,2022-11-20_23h59.15.286,Info_measure_main_exp,2022.2.2,Win32,60.04563468,,,,,,,,,,,,,,,,,,masks/mask_005.jpg,,,,,,,,,,,,,,,,,,,,,,,,,,,,,,,,,,,,,,,,,,,0,0,0,4,1,,,,,,,,,,,,,,,,,,,,,,,,,,,,,,,,,,,,,,,,,,,,,,
365475,001,2022-11-20_23h59.15.286,Info_measure_main_exp,2022.2.2,Win32,60.04563468,,,,,,,,,,,,,,,,,,masks/mask_003.jpg,,,,,,,,,,,,,,,,,,,,,,,,,,,,,,,,,,,,,,,,,,,0,1,1,2,1,,,,,,,,,,,,,,,,,,,,,,,,,,,,,,,,,,,,,,,,,,,,,,
365475,001,2022-11-20_23h59.15.286,Info_measure_main_exp,2022.2.2,Win32,60.04563468,,,,,,,,,,,,,,,,,,masks/mask_004.jpg,,,,,,,,,,,,,,,,,,,,,,,,,,,,,,,,,,,,,,,,,,,0,2,2,3,1,,,,,,,,,,,,,,,,,,,,,,,,,,,,,,,,,,,,,,,,,,,,,,
365475,001,2022-11-20_23h59.15.286,Info_measure_main_exp,2022.2.2,Win32,60.04563468,,,,,,,,,,,,,,,,,,masks/mask_001.jpg,,,,,,,,,,,,,,,,,,,,,,,,,,,,,,,,,,,,,,,,,,,0,3,3,0,1,,,,,,,,,,,,,,,,,,,,,,,,,,,,,,,,,,,,,,,,,,,,,,
365475,001,2022-11-20_23h59.15.286,Info_measure_main_exp,2022.2.2,Win32,60.04563468,,,,,,,,,,,,,,,,,,masks/mask_002.jpg,,,,,,,,,,,,,,,,,,,,,,,,,,,,,,,,,,,,,,,,,,,0,4,4,1,1,,,,,,,,,,,,,,,,,,,,,,,,,,,,,,,,,,,,,,,,,,,,,,
365475,001,2022-11-20_23h59.15.286,Info_measure_main_exp,2022.2.2,Win32,60.04563468,,,,,,,,,,,,,,,,,,masks/mask_001.jpg,,,,,,,,,,,,,,,,,,,,,,,,,,,,,,,,,,,,,,,,,,,,,,,,0,0,0,0,1,,,,,,,,,,,,,,,,,,,,,,,,,,,,,,,,,,,,,,,,,
365475,001,2022-11-20_23h59.15.286,Info_measure_main_exp,2022.2.2,Win32,60.04563468,,,,,,,,,,,,,,,,,,masks/mask_003.jpg,,,,,,,,,,,,,,,,,,,,,,,,,,,,,,,,,,,,,,,,,,,,,,,,0,1,1,2,1,,,,,,,,,,,,,,,,,,,,,,,,,,,,,,,,,,,,,,,,,
365475,001,2022-11-20_23h59.15.286,Info_measure_main_exp,2022.2.2,Win32,60.04563468,,,,,,,,,,,,,,,,,,masks/mask_005.jpg,,,,,,,,,,,,,,,,,,,,,,,,,,,,,,,,,,,,,,,,,,,,,,,,0,2,2,4,1,,,,,,,,,,,,,,,,,,,,,,,,,,,,,,,,,,,,,,,,,
365475,001,2022-11-20_23h59.15.286,Info_measure_main_exp,2022.2.2,Win32,60.04563468,,,,,,,,,,,,,,,,,,masks/mask_004.jpg,,,,,,,,,,,,,,,,,,,,,,,,,,,,,,,,,,,,,,,,,,,,,,,,0,3,3,3,1,,,,,,,,,,,,,,,,,,,,,,,,,,,,,,,,,,,,,,,,,
365475,001,2022-11-20_23h59.15.286,Info_measure_main_exp,2022.2.2,Win32,60.04563468,,,,,,,,,,,,,,,,,,masks/mask_002.jpg,,,,,,,,,,,,,,,,,,,,,,,,,,,,,,,,,,,,,,,,,,,,,,,,0,4,4,1,1,,,,,,,,,,,,,,,,,,,,,,,,,,,,,,,,,,,,,,,,,
365475,001,2022-11-20_23h59.15.286,Info_measure_main_exp,2022.2.2,Win32,60.04563468,,,,,,,,,,,,,,,,,,,,,,,,,,,,,,6,0.9181,1,,,,,,,,,,,,0,131,5,5,2274,2214,absent_patch/patch0002274.jpg,absent_patch/patch0002214.jpg,,,,,,,,,,,,,,,,,,,,0.147222236,0.062962956,1,0,0,response1disk,15,-0.007407365,-0.008333347,1,0,0,center_square,0,14,14,11,1,,,,,,,,,,,,,,,,,,,,,,,
365475,001,2022-11-20_23h59.15.286,Info_measure_main_exp,2022.2.2,Win32,60.04563468,,,,,,,,,,,,,,,,,,masks/mask_004.jpg,,,,,,,,,,,,,,,,,,,,,,,,,,,,,,,,,,,,,,,,,,,0,0,0,3,1,,,,,,,,,,,,,,,,,,,,,,,,,,,,,,,,,,,,,,,,,,,,,,
365475,001,2022-11-20_23h59.15.286,Info_measure_main_exp,2022.2.2,Win32,60.04563468,,,,,,,,,,,,,,,,,,masks/mask_001.jpg,,,,,,,,,,,,,,,,,,,,,,,,,,,,,,,,,,,,,,,,,,,0,1,1,0,1,,,,,,,,,,,,,,,,,,,,,,,,,,,,,,,,,,,,,,,,,,,,,,
365475,001,2022-11-20_23h59.15.286,Info_measure_main_exp,2022.2.2,Win32,60.04563468,,,,,,,,,,,,,,,,,,masks/mask_002.jpg,,,,,,,,,,,,,,,,,,,,,,,,,,,,,,,,,,,,,,,,,,,0,2,2,1,1,,,,,,,,,,,,,,,,,,,,,,,,,,,,,,,,,,,,,,,,,,,,,,
365475,001,2022-11-20_23h59.15.286,Info_measure_main_exp,2022.2.2,Win32,60.04563468,,,,,,,,,,,,,,,,,,masks/mask_005.jpg,,,,,,,,,,,,,,,,,,,,,,,,,,,,,,,,,,,,,,,,,,,0,3,3,4,1,,,,,,,,,,,,,,,,,,,,,,,,,,,,,,,,,,,,,,,,,,,,,,
365475,001,2022-11-20_23h59.15.286,Info_measure_main_exp,2022.2.2,Win32,60.04563468,,,,,,,,,,,,,,,,,,masks/mask_003.jpg,,,,,,,,,,,,,,,,,,,,,,,,,,,,,,,,,,,,,,,,,,,0,4,4,2,1,,,,,,,,,,,,,,,,,,,,,,,,,,,,,,,,,,,,,,,,,,,,,,
365475,001,2022-11-20_23h59.15.286,Info_measure_main_exp,2022.2.2,Win32,60.04563468,,,,,,,,,,,,,,,,,,masks/mask_002.jpg,,,,,,,,,,,,,,,,,,,,,,,,,,,,,,,,,,,,,,,,,,,,,,,,0,0,0,1,1,,,,,,,,,,,,,,,,,,,,,,,,,,,,,,,,,,,,,,,,,
365475,001,2022-11-20_23h59.15.286,Info_measure_main_exp,2022.2.2,Win32,60.04563468,,,,,,,,,,,,,,,,,,masks/mask_004.jpg,,,,,,,,,,,,,,,,,,,,,,,,,,,,,,,,,,,,,,,,,,,,,,,,0,1,1,3,1,,,,,,,,,,,,,,,,,,,,,,,,,,,,,,,,,,,,,,,,,
365475,001,2022-11-20_23h59.15.286,Info_measure_main_exp,2022.2.2,Win32,60.04563468,,,,,,,,,,,,,,,,,,masks/mask_005.jpg,,,,,,,,,,,,,,,,,,,,,,,,,,,,,,,,,,,,,,,,,,,,,,,,0,2,2,4,1,,,,,,,,,,,,,,,,,,,,,,,,,,,,,,,,,,,,,,,,,
365475,001,2022-11-20_23h59.15.286,Info_measure_main_exp,2022.2.2,Win32,60.04563468,,,,,,,,,,,,,,,,,,masks/mask_001.jpg,,,,,,,,,,,,,,,,,,,,,,,,,,,,,,,,,,,,,,,,,,,,,,,,0,3,3,0,1,,,,,,,,,,,,,,,,,,,,,,,,,,,,,,,,,,,,,,,,,
365475,001,2022-11-20_23h59.15.286,Info_measure_main_exp,2022.2.2,Win32,60.04563468,,,,,,,,,,,,,,,,,,masks/mask_003.jpg,,,,,,,,,,,,,,,,,,,,,,,,,,,,,,,,,,,,,,,,,,,,,,,,0,4,4,2,1,,,,,,,,,,,,,,,,,,,,,,,,,,,,,,,,,,,,,,,,,
365475,001,2022-11-20_23h59.15.286,Info_measure_main_exp,2022.2.2,Win32,60.04563468,,,,,,,,,,,,,,,,,,,,,,,,,,,,,,6,0.7328,1,,,,,,,,,,,,0,131,5,5,2250,1950,absent_patch/patch0002250.jpg,absent_patch/patch0001950.jpg,,,,,,,,,,,,,,,,,,,,0.158333319,0.079629616,1,0,0,response1disk,16,0.00462963,0.003703683,1,0,0,center_square,0,15,15,16,1,,,,,,,,,,,,,,,,,,,,,,,
365475,001,2022-11-20_23h59.15.286,Info_measure_main_exp,2022.2.2,Win32,60.04563468,,,,,,,,,,,,,,,,,,masks/mask_003.jpg,,,,,,,,,,,,,,,,,,,,,,,,,,,,,,,,,,,,,,,,,,,0,0,0,2,1,,,,,,,,,,,,,,,,,,,,,,,,,,,,,,,,,,,,,,,,,,,,,,
365475,001,2022-11-20_23h59.15.286,Info_measure_main_exp,2022.2.2,Win32,60.04563468,,,,,,,,,,,,,,,,,,masks/mask_002.jpg,,,,,,,,,,,,,,,,,,,,,,,,,,,,,,,,,,,,,,,,,,,0,1,1,1,1,,,,,,,,,,,,,,,,,,,,,,,,,,,,,,,,,,,,,,,,,,,,,,
365475,001,2022-11-20_23h59.15.286,Info_measure_main_exp,2022.2.2,Win32,60.04563468,,,,,,,,,,,,,,,,,,masks/mask_005.jpg,,,,,,,,,,,,,,,,,,,,,,,,,,,,,,,,,,,,,,,,,,,0,2,2,4,1,,,,,,,,,,,,,,,,,,,,,,,,,,,,,,,,,,,,,,,,,,,,,,
365475,001,2022-11-20_23h59.15.286,Info_measure_main_exp,2022.2.2,Win32,60.04563468,,,,,,,,,,,,,,,,,,masks/mask_001.jpg,,,,,,,,,,,,,,,,,,,,,,,,,,,,,,,,,,,,,,,,,,,0,3,3,0,1,,,,,,,,,,,,,,,,,,,,,,,,,,,,,,,,,,,,,,,,,,,,,,
365475,001,2022-11-20_23h59.15.286,Info_measure_main_exp,2022.2.2,Win32,60.04563468,,,,,,,,,,,,,,,,,,masks/mask_004.jpg,,,,,,,,,,,,,,,,,,,,,,,,,,,,,,,,,,,,,,,,,,,0,4,4,3,1,,,,,,,,,,,,,,,,,,,,,,,,,,,,,,,,,,,,,,,,,,,,,,
365475,001,2022-11-20_23h59.15.286,Info_measure_main_exp,2022.2.2,Win32,60.04563468,,,,,,,,,,,,,,,,,,masks/mask_001.jpg,,,,,,,,,,,,,,,,,,,,,,,,,,,,,,,,,,,,,,,,,,,,,,,,0,0,0,0,1,,,,,,,,,,,,,,,,,,,,,,,,,,,,,,,,,,,,,,,,,
365475,001,2022-11-20_23h59.15.286,Info_measure_main_exp,2022.2.2,Win32,60.04563468,,,,,,,,,,,,,,,,,,masks/mask_003.jpg,,,,,,,,,,,,,,,,,,,,,,,,,,,,,,,,,,,,,,,,,,,,,,,,0,1,1,2,1,,,,,,,,,,,,,,,,,,,,,,,,,,,,,,,,,,,,,,,,,
365475,001,2022-11-20_23h59.15.286,Info_measure_main_exp,2022.2.2,Win32,60.04563468,,,,,,,,,,,,,,,,,,masks/mask_002.jpg,,,,,,,,,,,,,,,,,,,,,,,,,,,,,,,,,,,,,,,,,,,,,,,,0,2,2,1,1,,,,,,,,,,,,,,,,,,,,,,,,,,,,,,,,,,,,,,,,,
365475,001,2022-11-20_23h59.15.286,Info_measure_main_exp,2022.2.2,Win32,60.04563468,,,,,,,,,,,,,,,,,,masks/mask_005.jpg,,,,,,,,,,,,,,,,,,,,,,,,,,,,,,,,,,,,,,,,,,,,,,,,0,3,3,4,1,,,,,,,,,,,,,,,,,,,,,,,,,,,,,,,,,,,,,,,,,
365475,001,2022-11-20_23h59.15.286,Info_measure_main_exp,2022.2.2,Win32,60.04563468,,,,,,,,,,,,,,,,,,masks/mask_004.jpg,,,,,,,,,,,,,,,,,,,,,,,,,,,,,,,,,,,,,,,,,,,,,,,,0,4,4,3,1,,,,,,,,,,,,,,,,,,,,,,,,,,,,,,,,,,,,,,,,,
365475,001,2022-11-20_23h59.15.286,Info_measure_main_exp,2022.2.2,Win32,60.04563468,,,,,,,,,,,,,,,,,,,,,,,,,,,,,,6,0.7165,1,,,,,,,,,,,,0,131,5,5,2142,2190,absent_patch/patch0002142.jpg,absent_patch/patch0002190.jpg,,,,,,,,,,,,,,,,,,,,0.117592635,0.037962949,1,0,0,response1disk,17,0.00462963,-0.006481489,1,0,0,center_square,0,16,16,70,1,,,,,,,,,,,,,,,,,,,,,,,
365475,001,2022-11-20_23h59.15.286,Info_measure_main_exp,2022.2.2,Win32,60.04563468,,,,,,,,,,,,,,,,,,masks/mask_004.jpg,,,,,,,,,,,,,,,,,,,,,,,,,,,,,,,,,,,,,,,,,,,0,0,0,3,1,,,,,,,,,,,,,,,,,,,,,,,,,,,,,,,,,,,,,,,,,,,,,,
365475,001,2022-11-20_23h59.15.286,Info_measure_main_exp,2022.2.2,Win32,60.04563468,,,,,,,,,,,,,,,,,,masks/mask_001.jpg,,,,,,,,,,,,,,,,,,,,,,,,,,,,,,,,,,,,,,,,,,,0,1,1,0,1,,,,,,,,,,,,,,,,,,,,,,,,,,,,,,,,,,,,,,,,,,,,,,
365475,001,2022-11-20_23h59.15.286,Info_measure_main_exp,2022.2.2,Win32,60.04563468,,,,,,,,,,,,,,,,,,masks/mask_003.jpg,,,,,,,,,,,,,,,,,,,,,,,,,,,,,,,,,,,,,,,,,,,0,2,2,2,1,,,,,,,,,,,,,,,,,,,,,,,,,,,,,,,,,,,,,,,,,,,,,,
365475,001,2022-11-20_23h59.15.286,Info_measure_main_exp,2022.2.2,Win32,60.04563468,,,,,,,,,,,,,,,,,,masks/mask_002.jpg,,,,,,,,,,,,,,,,,,,,,,,,,,,,,,,,,,,,,,,,,,,0,3,3,1,1,,,,,,,,,,,,,,,,,,,,,,,,,,,,,,,,,,,,,,,,,,,,,,
365475,001,2022-11-20_23h59.15.286,Info_measure_main_exp,2022.2.2,Win32,60.04563468,,,,,,,,,,,,,,,,,,masks/mask_005.jpg,,,,,,,,,,,,,,,,,,,,,,,,,,,,,,,,,,,,,,,,,,,0,4,4,4,1,,,,,,,,,,,,,,,,,,,,,,,,,,,,,,,,,,,,,,,,,,,,,,
365475,001,2022-11-20_23h59.15.286,Info_measure_main_exp,2022.2.2,Win32,60.04563468,,,,,,,,,,,,,,,,,,masks/mask_001.jpg,,,,,,,,,,,,,,,,,,,,,,,,,,,,,,,,,,,,,,,,,,,,,,,,0,0,0,0,1,,,,,,,,,,,,,,,,,,,,,,,,,,,,,,,,,,,,,,,,,
365475,001,2022-11-20_23h59.15.286,Info_measure_main_exp,2022.2.2,Win32,60.04563468,,,,,,,,,,,,,,,,,,masks/mask_005.jpg,,,,,,,,,,,,,,,,,,,,,,,,,,,,,,,,,,,,,,,,,,,,,,,,0,1,1,4,1,,,,,,,,,,,,,,,,,,,,,,,,,,,,,,,,,,,,,,,,,
365475,001,2022-11-20_23h59.15.286,Info_measure_main_exp,2022.2.2,Win32,60.04563468,,,,,,,,,,,,,,,,,,masks/mask_002.jpg,,,,,,,,,,,,,,,,,,,,,,,,,,,,,,,,,,,,,,,,,,,,,,,,0,2,2,1,1,,,,,,,,,,,,,,,,,,,,,,,,,,,,,,,,,,,,,,,,,
365475,001,2022-11-20_23h59.15.286,Info_measure_main_exp,2022.2.2,Win32,60.04563468,,,,,,,,,,,,,,,,,,masks/mask_004.jpg,,,,,,,,,,,,,,,,,,,,,,,,,,,,,,,,,,,,,,,,,,,,,,,,0,3,3,3,1,,,,,,,,,,,,,,,,,,,,,,,,,,,,,,,,,,,,,,,,,
365475,001,2022-11-20_23h59.15.286,Info_measure_main_exp,2022.2.2,Win32,60.04563468,,,,,,,,,,,,,,,,,,masks/mask_003.jpg,,,,,,,,,,,,,,,,,,,,,,,,,,,,,,,,,,,,,,,,,,,,,,,,0,4,4,2,1,,,,,,,,,,,,,,,,,,,,,,,,,,,,,,,,,,,,,,,,,
365475,001,2022-11-20_23h59.15.286,Info_measure_main_exp,2022.2.2,Win32,60.04563468,,,,,,,,,,,,,,,,,,,,,,,,,,,,,,5,0.5966,1,,,,,,,,,,,,0,131,5,5,1974,2298,absent_patch/patch0001974.jpg,absent_patch/patch0002298.jpg,,,,,,,,,,,,,,,,,,,,0.127777806,-0.033333355,1,0,0,response3disk,18,-0.006481453,0,1,0,0,center_square,0,17,17,6,1,,,,,,,,,,,,,,,,,,,,,,,
365475,001,2022-11-20_23h59.15.286,Info_measure_main_exp,2022.2.2,Win32,60.04563468,,,,,,,,,,,,,,,,,,masks/mask_002.jpg,,,,,,,,,,,,,,,,,,,,,,,,,,,,,,,,,,,,,,,,,,,0,0,0,1,1,,,,,,,,,,,,,,,,,,,,,,,,,,,,,,,,,,,,,,,,,,,,,,
365475,001,2022-11-20_23h59.15.286,Info_measure_main_exp,2022.2.2,Win32,60.04563468,,,,,,,,,,,,,,,,,,masks/mask_005.jpg,,,,,,,,,,,,,,,,,,,,,,,,,,,,,,,,,,,,,,,,,,,0,1,1,4,1,,,,,,,,,,,,,,,,,,,,,,,,,,,,,,,,,,,,,,,,,,,,,,
365475,001,2022-11-20_23h59.15.286,Info_measure_main_exp,2022.2.2,Win32,60.04563468,,,,,,,,,,,,,,,,,,masks/mask_004.jpg,,,,,,,,,,,,,,,,,,,,,,,,,,,,,,,,,,,,,,,,,,,0,2,2,3,1,,,,,,,,,,,,,,,,,,,,,,,,,,,,,,,,,,,,,,,,,,,,,,
365475,001,2022-11-20_23h59.15.286,Info_measure_main_exp,2022.2.2,Win32,60.04563468,,,,,,,,,,,,,,,,,,masks/mask_001.jpg,,,,,,,,,,,,,,,,,,,,,,,,,,,,,,,,,,,,,,,,,,,0,3,3,0,1,,,,,,,,,,,,,,,,,,,,,,,,,,,,,,,,,,,,,,,,,,,,,,
365475,001,2022-11-20_23h59.15.286,Info_measure_main_exp,2022.2.2,Win32,60.04563468,,,,,,,,,,,,,,,,,,masks/mask_003.jpg,,,,,,,,,,,,,,,,,,,,,,,,,,,,,,,,,,,,,,,,,,,0,4,4,2,1,,,,,,,,,,,,,,,,,,,,,,,,,,,,,,,,,,,,,,,,,,,,,,
365475,001,2022-11-20_23h59.15.286,Info_measure_main_exp,2022.2.2,Win32,60.04563468,,,,,,,,,,,,,,,,,,masks/mask_005.jpg,,,,,,,,,,,,,,,,,,,,,,,,,,,,,,,,,,,,,,,,,,,,,,,,0,0,0,4,1,,,,,,,,,,,,,,,,,,,,,,,,,,,,,,,,,,,,,,,,,
365475,001,2022-11-20_23h59.15.286,Info_measure_main_exp,2022.2.2,Win32,60.04563468,,,,,,,,,,,,,,,,,,masks/mask_001.jpg,,,,,,,,,,,,,,,,,,,,,,,,,,,,,,,,,,,,,,,,,,,,,,,,0,1,1,0,1,,,,,,,,,,,,,,,,,,,,,,,,,,,,,,,,,,,,,,,,,
365475,001,2022-11-20_23h59.15.286,Info_measure_main_exp,2022.2.2,Win32,60.04563468,,,,,,,,,,,,,,,,,,masks/mask_002.jpg,,,,,,,,,,,,,,,,,,,,,,,,,,,,,,,,,,,,,,,,,,,,,,,,0,2,2,1,1,,,,,,,,,,,,,,,,,,,,,,,,,,,,,,,,,,,,,,,,,
365475,001,2022-11-20_23h59.15.286,Info_measure_main_exp,2022.2.2,Win32,60.04563468,,,,,,,,,,,,,,,,,,masks/mask_003.jpg,,,,,,,,,,,,,,,,,,,,,,,,,,,,,,,,,,,,,,,,,,,,,,,,0,3,3,2,1,,,,,,,,,,,,,,,,,,,,,,,,,,,,,,,,,,,,,,,,,
365475,001,2022-11-20_23h59.15.286,Info_measure_main_exp,2022.2.2,Win32,60.04563468,,,,,,,,,,,,,,,,,,masks/mask_004.jpg,,,,,,,,,,,,,,,,,,,,,,,,,,,,,,,,,,,,,,,,,,,,,,,,0,4,4,3,1,,,,,,,,,,,,,,,,,,,,,,,,,,,,,,,,,,,,,,,,,
365475,001,2022-11-20_23h59.15.286,Info_measure_main_exp,2022.2.2,Win32,60.04563468,,,,,,,,,,,,,,,,,,,,,,,,,,,,,,5,0.9916,1,,,,,,,,,,,,1,131,5,5,2250,1,absent_patch/patch0002250.jpg,present_patch/cong_131_5_a.jpg,,,,,,,,,,,,,,,,,,,,0.097222222,-0.039814808,1,0,0,response3disk,19,0.012037065,-0.010185206,1,0,0,center_square,0,18,18,5,1,,,,,,,,,,,,,,,,,,,,,,,
365475,001,2022-11-20_23h59.15.286,Info_measure_main_exp,2022.2.2,Win32,60.04563468,,,,,,,,,,,,,,,,,,masks/mask_003.jpg,,,,,,,,,,,,,,,,,,,,,,,,,,,,,,,,,,,,,,,,,,,0,0,0,2,1,,,,,,,,,,,,,,,,,,,,,,,,,,,,,,,,,,,,,,,,,,,,,,
365475,001,2022-11-20_23h59.15.286,Info_measure_main_exp,2022.2.2,Win32,60.04563468,,,,,,,,,,,,,,,,,,masks/mask_005.jpg,,,,,,,,,,,,,,,,,,,,,,,,,,,,,,,,,,,,,,,,,,,0,1,1,4,1,,,,,,,,,,,,,,,,,,,,,,,,,,,,,,,,,,,,,,,,,,,,,,
365475,001,2022-11-20_23h59.15.286,Info_measure_main_exp,2022.2.2,Win32,60.04563468,,,,,,,,,,,,,,,,,,masks/mask_002.jpg,,,,,,,,,,,,,,,,,,,,,,,,,,,,,,,,,,,,,,,,,,,0,2,2,1,1,,,,,,,,,,,,,,,,,,,,,,,,,,,,,,,,,,,,,,,,,,,,,,
365475,001,2022-11-20_23h59.15.286,Info_measure_main_exp,2022.2.2,Win32,60.04563468,,,,,,,,,,,,,,,,,,masks/mask_004.jpg,,,,,,,,,,,,,,,,,,,,,,,,,,,,,,,,,,,,,,,,,,,0,3,3,3,1,,,,,,,,,,,,,,,,,,,,,,,,,,,,,,,,,,,,,,,,,,,,,,
365475,001,2022-11-20_23h59.15.286,Info_measure_main_exp,2022.2.2,Win32,60.04563468,,,,,,,,,,,,,,,,,,masks/mask_001.jpg,,,,,,,,,,,,,,,,,,,,,,,,,,,,,,,,,,,,,,,,,,,0,4,4,0,1,,,,,,,,,,,,,,,,,,,,,,,,,,,,,,,,,,,,,,,,,,,,,,
365475,001,2022-11-20_23h59.15.286,Info_measure_main_exp,2022.2.2,Win32,60.04563468,,,,,,,,,,,,,,,,,,masks/mask_004.jpg,,,,,,,,,,,,,,,,,,,,,,,,,,,,,,,,,,,,,,,,,,,,,,,,0,0,0,3,1,,,,,,,,,,,,,,,,,,,,,,,,,,,,,,,,,,,,,,,,,
365475,001,2022-11-20_23h59.15.286,Info_measure_main_exp,2022.2.2,Win32,60.04563468,,,,,,,,,,,,,,,,,,masks/mask_002.jpg,,,,,,,,,,,,,,,,,,,,,,,,,,,,,,,,,,,,,,,,,,,,,,,,0,1,1,1,1,,,,,,,,,,,,,,,,,,,,,,,,,,,,,,,,,,,,,,,,,
365475,001,2022-11-20_23h59.15.286,Info_measure_main_exp,2022.2.2,Win32,60.04563468,,,,,,,,,,,,,,,,,,masks/mask_003.jpg,,,,,,,,,,,,,,,,,,,,,,,,,,,,,,,,,,,,,,,,,,,,,,,,0,2,2,2,1,,,,,,,,,,,,,,,,,,,,,,,,,,,,,,,,,,,,,,,,,
365475,001,2022-11-20_23h59.15.286,Info_measure_main_exp,2022.2.2,Win32,60.04563468,,,,,,,,,,,,,,,,,,masks/mask_005.jpg,,,,,,,,,,,,,,,,,,,,,,,,,,,,,,,,,,,,,,,,,,,,,,,,0,3,3,4,1,,,,,,,,,,,,,,,,,,,,,,,,,,,,,,,,,,,,,,,,,
365475,001,2022-11-20_23h59.15.286,Info_measure_main_exp,2022.2.2,Win32,60.04563468,,,,,,,,,,,,,,,,,,masks/mask_001.jpg,,,,,,,,,,,,,,,,,,,,,,,,,,,,,,,,,,,,,,,,,,,,,,,,0,4,4,0,1,,,,,,,,,,,,,,,,,,,,,,,,,,,,,,,,,,,,,,,,,
365475,001,2022-11-20_23h59.15.286,Info_measure_main_exp,2022.2.2,Win32,60.04563468,,,,,,,,,,,,,,,,,,,,,,,,,,,,,,5,1.0663,1,,,,,,,,,,,,0,131,5,5,2274,2190,absent_patch/patch0002274.jpg,absent_patch/patch0002190.jpg,,,,,,,,,,,,,,,,,,,,0.116666653,-0.048148155,1,0,0,response3disk,20,-0.005555541,-0.005555577,1,0,0,center_square,0,19,19,116,1,,,,,,,,,,,,,,,,,,,,,,,
365475,001,2022-11-20_23h59.15.286,Info_measure_main_exp,2022.2.2,Win32,60.04563468,,,,,,,,,,,,,,,,,,masks/mask_004.jpg,,,,,,,,,,,,,,,,,,,,,,,,,,,,,,,,,,,,,,,,,,,0,0,0,3,1,,,,,,,,,,,,,,,,,,,,,,,,,,,,,,,,,,,,,,,,,,,,,,
365475,001,2022-11-20_23h59.15.286,Info_measure_main_exp,2022.2.2,Win32,60.04563468,,,,,,,,,,,,,,,,,,masks/mask_003.jpg,,,,,,,,,,,,,,,,,,,,,,,,,,,,,,,,,,,,,,,,,,,0,1,1,2,1,,,,,,,,,,,,,,,,,,,,,,,,,,,,,,,,,,,,,,,,,,,,,,
365475,001,2022-11-20_23h59.15.286,Info_measure_main_exp,2022.2.2,Win32,60.04563468,,,,,,,,,,,,,,,,,,masks/mask_002.jpg,,,,,,,,,,,,,,,,,,,,,,,,,,,,,,,,,,,,,,,,,,,0,2,2,1,1,,,,,,,,,,,,,,,,,,,,,,,,,,,,,,,,,,,,,,,,,,,,,,
365475,001,2022-11-20_23h59.15.286,Info_measure_main_exp,2022.2.2,Win32,60.04563468,,,,,,,,,,,,,,,,,,masks/mask_005.jpg,,,,,,,,,,,,,,,,,,,,,,,,,,,,,,,,,,,,,,,,,,,0,3,3,4,1,,,,,,,,,,,,,,,,,,,,,,,,,,,,,,,,,,,,,,,,,,,,,,
365475,001,2022-11-20_23h59.15.286,Info_measure_main_exp,2022.2.2,Win32,60.04563468,,,,,,,,,,,,,,,,,,masks/mask_001.jpg,,,,,,,,,,,,,,,,,,,,,,,,,,,,,,,,,,,,,,,,,,,0,4,4,0,1,,,,,,,,,,,,,,,,,,,,,,,,,,,,,,,,,,,,,,,,,,,,,,
365475,001,2022-11-20_23h59.15.286,Info_measure_main_exp,2022.2.2,Win32,60.04563468,,,,,,,,,,,,,,,,,,masks/mask_003.jpg,,,,,,,,,,,,,,,,,,,,,,,,,,,,,,,,,,,,,,,,,,,,,,,,0,0,0,2,1,,,,,,,,,,,,,,,,,,,,,,,,,,,,,,,,,,,,,,,,,
365475,001,2022-11-20_23h59.15.286,Info_measure_main_exp,2022.2.2,Win32,60.04563468,,,,,,,,,,,,,,,,,,masks/mask_002.jpg,,,,,,,,,,,,,,,,,,,,,,,,,,,,,,,,,,,,,,,,,,,,,,,,0,1,1,1,1,,,,,,,,,,,,,,,,,,,,,,,,,,,,,,,,,,,,,,,,,
365475,001,2022-11-20_23h59.15.286,Info_measure_main_exp,2022.2.2,Win32,60.04563468,,,,,,,,,,,,,,,,,,masks/mask_005.jpg,,,,,,,,,,,,,,,,,,,,,,,,,,,,,,,,,,,,,,,,,,,,,,,,0,2,2,4,1,,,,,,,,,,,,,,,,,,,,,,,,,,,,,,,,,,,,,,,,,
365475,001,2022-11-20_23h59.15.286,Info_measure_main_exp,2022.2.2,Win32,60.04563468,,,,,,,,,,,,,,,,,,masks/mask_001.jpg,,,,,,,,,,,,,,,,,,,,,,,,,,,,,,,,,,,,,,,,,,,,,,,,0,3,3,0,1,,,,,,,,,,,,,,,,,,,,,,,,,,,,,,,,,,,,,,,,,
365475,001,2022-11-20_23h59.15.286,Info_measure_main_exp,2022.2.2,Win32,60.04563468,,,,,,,,,,,,,,,,,,masks/mask_004.jpg,,,,,,,,,,,,,,,,,,,,,,,,,,,,,,,,,,,,,,,,,,,,,,,,0,4,4,3,1,,,,,,,,,,,,,,,,,,,,,,,,,,,,,,,,,,,,,,,,,
365475,001,2022-11-20_23h59.15.286,Info_measure_main_exp,2022.2.2,Win32,60.04563468,,,,,,,,,,,,,,,,,,,,,,,,,,,,,,6,0.8814,1,,,,,,,,,,,,0,131,5,5,2250,2166,absent_patch/patch0002250.jpg,absent_patch/patch0002166.jpg,,,,,,,,,,,,,,,,,,,,0.090740769,0.037037037,1,0,0,response1disk,21,-0.005555541,-0.002777771,1,0,0,center_square,0,20,20,60,1,,,,,,,,,,,,,,,,,,,,,,,
365475,001,2022-11-20_23h59.15.286,Info_measure_main_exp,2022.2.2,Win32,60.04563468,,,,,,,,,,,,,,,,,,masks/mask_005.jpg,,,,,,,,,,,,,,,,,,,,,,,,,,,,,,,,,,,,,,,,,,,0,0,0,4,1,,,,,,,,,,,,,,,,,,,,,,,,,,,,,,,,,,,,,,,,,,,,,,
365475,001,2022-11-20_23h59.15.286,Info_measure_main_exp,2022.2.2,Win32,60.04563468,,,,,,,,,,,,,,,,,,masks/mask_004.jpg,,,,,,,,,,,,,,,,,,,,,,,,,,,,,,,,,,,,,,,,,,,0,1,1,3,1,,,,,,,,,,,,,,,,,,,,,,,,,,,,,,,,,,,,,,,,,,,,,,
365475,001,2022-11-20_23h59.15.286,Info_measure_main_exp,2022.2.2,Win32,60.04563468,,,,,,,,,,,,,,,,,,masks/mask_003.jpg,,,,,,,,,,,,,,,,,,,,,,,,,,,,,,,,,,,,,,,,,,,0,2,2,2,1,,,,,,,,,,,,,,,,,,,,,,,,,,,,,,,,,,,,,,,,,,,,,,
365475,001,2022-11-20_23h59.15.286,Info_measure_main_exp,2022.2.2,Win32,60.04563468,,,,,,,,,,,,,,,,,,masks/mask_002.jpg,,,,,,,,,,,,,,,,,,,,,,,,,,,,,,,,,,,,,,,,,,,0,3,3,1,1,,,,,,,,,,,,,,,,,,,,,,,,,,,,,,,,,,,,,,,,,,,,,,
365475,001,2022-11-20_23h59.15.286,Info_measure_main_exp,2022.2.2,Win32,60.04563468,,,,,,,,,,,,,,,,,,masks/mask_001.jpg,,,,,,,,,,,,,,,,,,,,,,,,,,,,,,,,,,,,,,,,,,,0,4,4,0,1,,,,,,,,,,,,,,,,,,,,,,,,,,,,,,,,,,,,,,,,,,,,,,
365475,001,2022-11-20_23h59.15.286,Info_measure_main_exp,2022.2.2,Win32,60.04563468,,,,,,,,,,,,,,,,,,masks/mask_005.jpg,,,,,,,,,,,,,,,,,,,,,,,,,,,,,,,,,,,,,,,,,,,,,,,,0,0,0,4,1,,,,,,,,,,,,,,,,,,,,,,,,,,,,,,,,,,,,,,,,,
365475,001,2022-11-20_23h59.15.286,Info_measure_main_exp,2022.2.2,Win32,60.04563468,,,,,,,,,,,,,,,,,,masks/mask_001.jpg,,,,,,,,,,,,,,,,,,,,,,,,,,,,,,,,,,,,,,,,,,,,,,,,0,1,1,0,1,,,,,,,,,,,,,,,,,,,,,,,,,,,,,,,,,,,,,,,,,
365475,001,2022-11-20_23h59.15.286,Info_measure_main_exp,2022.2.2,Win32,60.04563468,,,,,,,,,,,,,,,,,,masks/mask_003.jpg,,,,,,,,,,,,,,,,,,,,,,,,,,,,,,,,,,,,,,,,,,,,,,,,0,2,2,2,1,,,,,,,,,,,,,,,,,,,,,,,,,,,,,,,,,,,,,,,,,
365475,001,2022-11-20_23h59.15.286,Info_measure_main_exp,2022.2.2,Win32,60.04563468,,,,,,,,,,,,,,,,,,masks/mask_002.jpg,,,,,,,,,,,,,,,,,,,,,,,,,,,,,,,,,,,,,,,,,,,,,,,,0,3,3,1,1,,,,,,,,,,,,,,,,,,,,,,,,,,,,,,,,,,,,,,,,,
365475,001,2022-11-20_23h59.15.286,Info_measure_main_exp,2022.2.2,Win32,60.04563468,,,,,,,,,,,,,,,,,,masks/mask_004.jpg,,,,,,,,,,,,,,,,,,,,,,,,,,,,,,,,,,,,,,,,,,,,,,,,0,4,4,3,1,,,,,,,,,,,,,,,,,,,,,,,,,,,,,,,,,,,,,,,,,
365475,001,2022-11-20_23h59.15.286,Info_measure_main_exp,2022.2.2,Win32,60.04563468,,,,,,,,,,,,,,,,,,,,,,,,,,,,,,6,0.6331,1,,,,,,,,,,,,0,131,5,5,2082,2250,absent_patch/patch0002082.jpg,absent_patch/patch0002250.jpg,,,,,,,,,,,,,,,,,,,,0.055555556,0.033333319,1,0,0,response1disk,22,-0.002777735,0.005555541,1,0,0,center_square,0,21,21,3,1,,,,,,,,,,,,,,,,,,,,,,,
365475,001,2022-11-20_23h59.15.286,Info_measure_main_exp,2022.2.2,Win32,60.04563468,,,,,,,,,,,,,,,,,,masks/mask_003.jpg,,,,,,,,,,,,,,,,,,,,,,,,,,,,,,,,,,,,,,,,,,,0,0,0,2,1,,,,,,,,,,,,,,,,,,,,,,,,,,,,,,,,,,,,,,,,,,,,,,
365475,001,2022-11-20_23h59.15.286,Info_measure_main_exp,2022.2.2,Win32,60.04563468,,,,,,,,,,,,,,,,,,masks/mask_005.jpg,,,,,,,,,,,,,,,,,,,,,,,,,,,,,,,,,,,,,,,,,,,0,1,1,4,1,,,,,,,,,,,,,,,,,,,,,,,,,,,,,,,,,,,,,,,,,,,,,,
365475,001,2022-11-20_23h59.15.286,Info_measure_main_exp,2022.2.2,Win32,60.04563468,,,,,,,,,,,,,,,,,,masks/mask_002.jpg,,,,,,,,,,,,,,,,,,,,,,,,,,,,,,,,,,,,,,,,,,,0,2,2,1,1,,,,,,,,,,,,,,,,,,,,,,,,,,,,,,,,,,,,,,,,,,,,,,
365475,001,2022-11-20_23h59.15.286,Info_measure_main_exp,2022.2.2,Win32,60.04563468,,,,,,,,,,,,,,,,,,masks/mask_001.jpg,,,,,,,,,,,,,,,,,,,,,,,,,,,,,,,,,,,,,,,,,,,0,3,3,0,1,,,,,,,,,,,,,,,,,,,,,,,,,,,,,,,,,,,,,,,,,,,,,,
365475,001,2022-11-20_23h59.15.286,Info_measure_main_exp,2022.2.2,Win32,60.04563468,,,,,,,,,,,,,,,,,,masks/mask_004.jpg,,,,,,,,,,,,,,,,,,,,,,,,,,,,,,,,,,,,,,,,,,,0,4,4,3,1,,,,,,,,,,,,,,,,,,,,,,,,,,,,,,,,,,,,,,,,,,,,,,
365475,001,2022-11-20_23h59.15.286,Info_measure_main_exp,2022.2.2,Win32,60.04563468,,,,,,,,,,,,,,,,,,masks/mask_002.jpg,,,,,,,,,,,,,,,,,,,,,,,,,,,,,,,,,,,,,,,,,,,,,,,,0,0,0,1,1,,,,,,,,,,,,,,,,,,,,,,,,,,,,,,,,,,,,,,,,,
365475,001,2022-11-20_23h59.15.286,Info_measure_main_exp,2022.2.2,Win32,60.04563468,,,,,,,,,,,,,,,,,,masks/mask_004.jpg,,,,,,,,,,,,,,,,,,,,,,,,,,,,,,,,,,,,,,,,,,,,,,,,0,1,1,3,1,,,,,,,,,,,,,,,,,,,,,,,,,,,,,,,,,,,,,,,,,
365475,001,2022-11-20_23h59.15.286,Info_measure_main_exp,2022.2.2,Win32,60.04563468,,,,,,,,,,,,,,,,,,masks/mask_005.jpg,,,,,,,,,,,,,,,,,,,,,,,,,,,,,,,,,,,,,,,,,,,,,,,,0,2,2,4,1,,,,,,,,,,,,,,,,,,,,,,,,,,,,,,,,,,,,,,,,,
365475,001,2022-11-20_23h59.15.286,Info_measure_main_exp,2022.2.2,Win32,60.04563468,,,,,,,,,,,,,,,,,,masks/mask_003.jpg,,,,,,,,,,,,,,,,,,,,,,,,,,,,,,,,,,,,,,,,,,,,,,,,0,3,3,2,1,,,,,,,,,,,,,,,,,,,,,,,,,,,,,,,,,,,,,,,,,
365475,001,2022-11-20_23h59.15.286,Info_measure_main_exp,2022.2.2,Win32,60.04563468,,,,,,,,,,,,,,,,,,masks/mask_001.jpg,,,,,,,,,,,,,,,,,,,,,,,,,,,,,,,,,,,,,,,,,,,,,,,,0,4,4,0,1,,,,,,,,,,,,,,,,,,,,,,,,,,,,,,,,,,,,,,,,,
365475,001,2022-11-20_23h59.15.286,Info_measure_main_exp,2022.2.2,Win32,60.04563468,,,,,,,,,,,,,,,,,,,,,,,,,,,,,,5,0.9496,1,,,,,,,,,,,,1,131,5,5,1,1974,present_patch/cong_131_5_a.jpg,absent_patch/patch0001974.jpg,,,,,,,,,,,,,,,,,,,,0.116666653,-0.028703725,1,0,0,response3disk,23,0,0.001851859,1,0,0,center_square,0,22,22,69,1,,,,,,,,,,,,,,,,,,,,,,,
365475,001,2022-11-20_23h59.15.286,Info_measure_main_exp,2022.2.2,Win32,60.04563468,,,,,,,,,,,,,,,,,,masks/mask_003.jpg,,,,,,,,,,,,,,,,,,,,,,,,,,,,,,,,,,,,,,,,,,,0,0,0,2,1,,,,,,,,,,,,,,,,,,,,,,,,,,,,,,,,,,,,,,,,,,,,,,
365475,001,2022-11-20_23h59.15.286,Info_measure_main_exp,2022.2.2,Win32,60.04563468,,,,,,,,,,,,,,,,,,masks/mask_001.jpg,,,,,,,,,,,,,,,,,,,,,,,,,,,,,,,,,,,,,,,,,,,0,1,1,0,1,,,,,,,,,,,,,,,,,,,,,,,,,,,,,,,,,,,,,,,,,,,,,,
365475,001,2022-11-20_23h59.15.286,Info_measure_main_exp,2022.2.2,Win32,60.04563468,,,,,,,,,,,,,,,,,,masks/mask_005.jpg,,,,,,,,,,,,,,,,,,,,,,,,,,,,,,,,,,,,,,,,,,,0,2,2,4,1,,,,,,,,,,,,,,,,,,,,,,,,,,,,,,,,,,,,,,,,,,,,,,
365475,001,2022-11-20_23h59.15.286,Info_measure_main_exp,2022.2.2,Win32,60.04563468,,,,,,,,,,,,,,,,,,masks/mask_002.jpg,,,,,,,,,,,,,,,,,,,,,,,,,,,,,,,,,,,,,,,,,,,0,3,3,1,1,,,,,,,,,,,,,,,,,,,,,,,,,,,,,,,,,,,,,,,,,,,,,,
365475,001,2022-11-20_23h59.15.286,Info_measure_main_exp,2022.2.2,Win32,60.04563468,,,,,,,,,,,,,,,,,,masks/mask_004.jpg,,,,,,,,,,,,,,,,,,,,,,,,,,,,,,,,,,,,,,,,,,,0,4,4,3,1,,,,,,,,,,,,,,,,,,,,,,,,,,,,,,,,,,,,,,,,,,,,,,
365475,001,2022-11-20_23h59.15.286,Info_measure_main_exp,2022.2.2,Win32,60.04563468,,,,,,,,,,,,,,,,,,masks/mask_001.jpg,,,,,,,,,,,,,,,,,,,,,,,,,,,,,,,,,,,,,,,,,,,,,,,,0,0,0,0,1,,,,,,,,,,,,,,,,,,,,,,,,,,,,,,,,,,,,,,,,,
365475,001,2022-11-20_23h59.15.286,Info_measure_main_exp,2022.2.2,Win32,60.04563468,,,,,,,,,,,,,,,,,,masks/mask_004.jpg,,,,,,,,,,,,,,,,,,,,,,,,,,,,,,,,,,,,,,,,,,,,,,,,0,1,1,3,1,,,,,,,,,,,,,,,,,,,,,,,,,,,,,,,,,,,,,,,,,
365475,001,2022-11-20_23h59.15.286,Info_measure_main_exp,2022.2.2,Win32,60.04563468,,,,,,,,,,,,,,,,,,masks/mask_005.jpg,,,,,,,,,,,,,,,,,,,,,,,,,,,,,,,,,,,,,,,,,,,,,,,,0,2,2,4,1,,,,,,,,,,,,,,,,,,,,,,,,,,,,,,,,,,,,,,,,,
365475,001,2022-11-20_23h59.15.286,Info_measure_main_exp,2022.2.2,Win32,60.04563468,,,,,,,,,,,,,,,,,,masks/mask_002.jpg,,,,,,,,,,,,,,,,,,,,,,,,,,,,,,,,,,,,,,,,,,,,,,,,0,3,3,1,1,,,,,,,,,,,,,,,,,,,,,,,,,,,,,,,,,,,,,,,,,
365475,001,2022-11-20_23h59.15.286,Info_measure_main_exp,2022.2.2,Win32,60.04563468,,,,,,,,,,,,,,,,,,masks/mask_003.jpg,,,,,,,,,,,,,,,,,,,,,,,,,,,,,,,,,,,,,,,,,,,,,,,,0,4,4,2,1,,,,,,,,,,,,,,,,,,,,,,,,,,,,,,,,,,,,,,,,,
365475,001,2022-11-20_23h59.15.286,Info_measure_main_exp,2022.2.2,Win32,60.04563468,,,,,,,,,,,,,,,,,,,,,,,,,,,,,,5,0.7661,1,,,,,,,,,,,,0,131,5,5,2178,2166,absent_patch/patch0002178.jpg,absent_patch/patch0002166.jpg,,,,,,,,,,,,,,,,,,,,0.097222222,-0.042592614,1,0,0,response3disk,24,-0.012036995,0.002777771,1,0,0,center_square,0,23,23,72,1,,,,,,,,,,,,,,,,,,,,,,,
365475,001,2022-11-20_23h59.15.286,Info_measure_main_exp,2022.2.2,Win32,60.04563468,,,,,,,,,,,,,,,,,,masks/mask_002.jpg,,,,,,,,,,,,,,,,,,,,,,,,,,,,,,,,,,,,,,,,,,,0,0,0,1,1,,,,,,,,,,,,,,,,,,,,,,,,,,,,,,,,,,,,,,,,,,,,,,
365475,001,2022-11-20_23h59.15.286,Info_measure_main_exp,2022.2.2,Win32,60.04563468,,,,,,,,,,,,,,,,,,masks/mask_005.jpg,,,,,,,,,,,,,,,,,,,,,,,,,,,,,,,,,,,,,,,,,,,0,1,1,4,1,,,,,,,,,,,,,,,,,,,,,,,,,,,,,,,,,,,,,,,,,,,,,,
365475,001,2022-11-20_23h59.15.286,Info_measure_main_exp,2022.2.2,Win32,60.04563468,,,,,,,,,,,,,,,,,,masks/mask_001.jpg,,,,,,,,,,,,,,,,,,,,,,,,,,,,,,,,,,,,,,,,,,,0,2,2,0,1,,,,,,,,,,,,,,,,,,,,,,,,,,,,,,,,,,,,,,,,,,,,,,
365475,001,2022-11-20_23h59.15.286,Info_measure_main_exp,2022.2.2,Win32,60.04563468,,,,,,,,,,,,,,,,,,masks/mask_003.jpg,,,,,,,,,,,,,,,,,,,,,,,,,,,,,,,,,,,,,,,,,,,0,3,3,2,1,,,,,,,,,,,,,,,,,,,,,,,,,,,,,,,,,,,,,,,,,,,,,,
365475,001,2022-11-20_23h59.15.286,Info_measure_main_exp,2022.2.2,Win32,60.04563468,,,,,,,,,,,,,,,,,,masks/mask_004.jpg,,,,,,,,,,,,,,,,,,,,,,,,,,,,,,,,,,,,,,,,,,,0,4,4,3,1,,,,,,,,,,,,,,,,,,,,,,,,,,,,,,,,,,,,,,,,,,,,,,
365475,001,2022-11-20_23h59.15.286,Info_measure_main_exp,2022.2.2,Win32,60.04563468,,,,,,,,,,,,,,,,,,masks/mask_001.jpg,,,,,,,,,,,,,,,,,,,,,,,,,,,,,,,,,,,,,,,,,,,,,,,,0,0,0,0,1,,,,,,,,,,,,,,,,,,,,,,,,,,,,,,,,,,,,,,,,,
365475,001,2022-11-20_23h59.15.286,Info_measure_main_exp,2022.2.2,Win32,60.04563468,,,,,,,,,,,,,,,,,,masks/mask_004.jpg,,,,,,,,,,,,,,,,,,,,,,,,,,,,,,,,,,,,,,,,,,,,,,,,0,1,1,3,1,,,,,,,,,,,,,,,,,,,,,,,,,,,,,,,,,,,,,,,,,
365475,001,2022-11-20_23h59.15.286,Info_measure_main_exp,2022.2.2,Win32,60.04563468,,,,,,,,,,,,,,,,,,masks/mask_005.jpg,,,,,,,,,,,,,,,,,,,,,,,,,,,,,,,,,,,,,,,,,,,,,,,,0,2,2,4,1,,,,,,,,,,,,,,,,,,,,,,,,,,,,,,,,,,,,,,,,,
365475,001,2022-11-20_23h59.15.286,Info_measure_main_exp,2022.2.2,Win32,60.04563468,,,,,,,,,,,,,,,,,,masks/mask_002.jpg,,,,,,,,,,,,,,,,,,,,,,,,,,,,,,,,,,,,,,,,,,,,,,,,0,3,3,1,1,,,,,,,,,,,,,,,,,,,,,,,,,,,,,,,,,,,,,,,,,
365475,001,2022-11-20_23h59.15.286,Info_measure_main_exp,2022.2.2,Win32,60.04563468,,,,,,,,,,,,,,,,,,masks/mask_003.jpg,,,,,,,,,,,,,,,,,,,,,,,,,,,,,,,,,,,,,,,,,,,,,,,,0,4,4,2,1,,,,,,,,,,,,,,,,,,,,,,,,,,,,,,,,,,,,,,,,,
365475,001,2022-11-20_23h59.15.286,Info_measure_main_exp,2022.2.2,Win32,60.04563468,,,,,,,,,,,,,,,,,,,,,,,,,,,,,,5,0.6554,1,,,,,,,,,,,,0,131,5,5,2154,2214,absent_patch/patch0002154.jpg,absent_patch/patch0002214.jpg,,,,,,,,,,,,,,,,,,,,0.090740769,-0.044444437,1,0,0,response3disk,25,-0.005555541,0.008333312,1,0,0,center_square,0,24,24,67,1,,,,,,,,,,,,,,,,,,,,,,,
365475,001,2022-11-20_23h59.15.286,Info_measure_main_exp,2022.2.2,Win32,60.04563468,,,,,,,,,,,,,,,,,,masks/mask_002.jpg,,,,,,,,,,,,,,,,,,,,,,,,,,,,,,,,,,,,,,,,,,,0,0,0,1,1,,,,,,,,,,,,,,,,,,,,,,,,,,,,,,,,,,,,,,,,,,,,,,
365475,001,2022-11-20_23h59.15.286,Info_measure_main_exp,2022.2.2,Win32,60.04563468,,,,,,,,,,,,,,,,,,masks/mask_005.jpg,,,,,,,,,,,,,,,,,,,,,,,,,,,,,,,,,,,,,,,,,,,0,1,1,4,1,,,,,,,,,,,,,,,,,,,,,,,,,,,,,,,,,,,,,,,,,,,,,,
365475,001,2022-11-20_23h59.15.286,Info_measure_main_exp,2022.2.2,Win32,60.04563468,,,,,,,,,,,,,,,,,,masks/mask_003.jpg,,,,,,,,,,,,,,,,,,,,,,,,,,,,,,,,,,,,,,,,,,,0,2,2,2,1,,,,,,,,,,,,,,,,,,,,,,,,,,,,,,,,,,,,,,,,,,,,,,
365475,001,2022-11-20_23h59.15.286,Info_measure_main_exp,2022.2.2,Win32,60.04563468,,,,,,,,,,,,,,,,,,masks/mask_001.jpg,,,,,,,,,,,,,,,,,,,,,,,,,,,,,,,,,,,,,,,,,,,0,3,3,0,1,,,,,,,,,,,,,,,,,,,,,,,,,,,,,,,,,,,,,,,,,,,,,,
365475,001,2022-11-20_23h59.15.286,Info_measure_main_exp,2022.2.2,Win32,60.04563468,,,,,,,,,,,,,,,,,,masks/mask_004.jpg,,,,,,,,,,,,,,,,,,,,,,,,,,,,,,,,,,,,,,,,,,,0,4,4,3,1,,,,,,,,,,,,,,,,,,,,,,,,,,,,,,,,,,,,,,,,,,,,,,
365475,001,2022-11-20_23h59.15.286,Info_measure_main_exp,2022.2.2,Win32,60.04563468,,,,,,,,,,,,,,,,,,masks/mask_002.jpg,,,,,,,,,,,,,,,,,,,,,,,,,,,,,,,,,,,,,,,,,,,,,,,,0,0,0,1,1,,,,,,,,,,,,,,,,,,,,,,,,,,,,,,,,,,,,,,,,,
365475,001,2022-11-20_23h59.15.286,Info_measure_main_exp,2022.2.2,Win32,60.04563468,,,,,,,,,,,,,,,,,,masks/mask_004.jpg,,,,,,,,,,,,,,,,,,,,,,,,,,,,,,,,,,,,,,,,,,,,,,,,0,1,1,3,1,,,,,,,,,,,,,,,,,,,,,,,,,,,,,,,,,,,,,,,,,
365475,001,2022-11-20_23h59.15.286,Info_measure_main_exp,2022.2.2,Win32,60.04563468,,,,,,,,,,,,,,,,,,masks/mask_003.jpg,,,,,,,,,,,,,,,,,,,,,,,,,,,,,,,,,,,,,,,,,,,,,,,,0,2,2,2,1,,,,,,,,,,,,,,,,,,,,,,,,,,,,,,,,,,,,,,,,,
365475,001,2022-11-20_23h59.15.286,Info_measure_main_exp,2022.2.2,Win32,60.04563468,,,,,,,,,,,,,,,,,,masks/mask_005.jpg,,,,,,,,,,,,,,,,,,,,,,,,,,,,,,,,,,,,,,,,,,,,,,,,0,3,3,4,1,,,,,,,,,,,,,,,,,,,,,,,,,,,,,,,,,,,,,,,,,
365475,001,2022-11-20_23h59.15.286,Info_measure_main_exp,2022.2.2,Win32,60.04563468,,,,,,,,,,,,,,,,,,masks/mask_001.jpg,,,,,,,,,,,,,,,,,,,,,,,,,,,,,,,,,,,,,,,,,,,,,,,,0,4,4,0,1,,,,,,,,,,,,,,,,,,,,,,,,,,,,,,,,,,,,,,,,,
365475,001,2022-11-20_23h59.15.286,Info_measure_main_exp,2022.2.2,Win32,60.04563468,,,,,,,,,,,,,,,,,,,,,,,,,,,,,,5,0.6045,1,,,,,,,,,,,,0,131,5,5,1974,2250,absent_patch/patch0001974.jpg,absent_patch/patch0002250.jpg,,,,,,,,,,,,,,,,,,,,0.05740745,-0.024074095,1,0,0,response3disk,26,0.006481524,0.000925912,1,0,0,center_square,0,25,25,55,1,,,,,,,,,,,,,,,,,,,,,,,
365475,001,2022-11-20_23h59.15.286,Info_measure_main_exp,2022.2.2,Win32,60.04563468,,,,,,,,,,,,,,,,,,masks/mask_004.jpg,,,,,,,,,,,,,,,,,,,,,,,,,,,,,,,,,,,,,,,,,,,0,0,0,3,1,,,,,,,,,,,,,,,,,,,,,,,,,,,,,,,,,,,,,,,,,,,,,,
365475,001,2022-11-20_23h59.15.286,Info_measure_main_exp,2022.2.2,Win32,60.04563468,,,,,,,,,,,,,,,,,,masks/mask_005.jpg,,,,,,,,,,,,,,,,,,,,,,,,,,,,,,,,,,,,,,,,,,,0,1,1,4,1,,,,,,,,,,,,,,,,,,,,,,,,,,,,,,,,,,,,,,,,,,,,,,
365475,001,2022-11-20_23h59.15.286,Info_measure_main_exp,2022.2.2,Win32,60.04563468,,,,,,,,,,,,,,,,,,masks/mask_003.jpg,,,,,,,,,,,,,,,,,,,,,,,,,,,,,,,,,,,,,,,,,,,0,2,2,2,1,,,,,,,,,,,,,,,,,,,,,,,,,,,,,,,,,,,,,,,,,,,,,,
365475,001,2022-11-20_23h59.15.286,Info_measure_main_exp,2022.2.2,Win32,60.04563468,,,,,,,,,,,,,,,,,,masks/mask_001.jpg,,,,,,,,,,,,,,,,,,,,,,,,,,,,,,,,,,,,,,,,,,,0,3,3,0,1,,,,,,,,,,,,,,,,,,,,,,,,,,,,,,,,,,,,,,,,,,,,,,
365475,001,2022-11-20_23h59.15.286,Info_measure_main_exp,2022.2.2,Win32,60.04563468,,,,,,,,,,,,,,,,,,masks/mask_002.jpg,,,,,,,,,,,,,,,,,,,,,,,,,,,,,,,,,,,,,,,,,,,0,4,4,1,1,,,,,,,,,,,,,,,,,,,,,,,,,,,,,,,,,,,,,,,,,,,,,,
365475,001,2022-11-20_23h59.15.286,Info_measure_main_exp,2022.2.2,Win32,60.04563468,,,,,,,,,,,,,,,,,,masks/mask_001.jpg,,,,,,,,,,,,,,,,,,,,,,,,,,,,,,,,,,,,,,,,,,,,,,,,0,0,0,0,1,,,,,,,,,,,,,,,,,,,,,,,,,,,,,,,,,,,,,,,,,
365475,001,2022-11-20_23h59.15.286,Info_measure_main_exp,2022.2.2,Win32,60.04563468,,,,,,,,,,,,,,,,,,masks/mask_004.jpg,,,,,,,,,,,,,,,,,,,,,,,,,,,,,,,,,,,,,,,,,,,,,,,,0,1,1,3,1,,,,,,,,,,,,,,,,,,,,,,,,,,,,,,,,,,,,,,,,,
365475,001,2022-11-20_23h59.15.286,Info_measure_main_exp,2022.2.2,Win32,60.04563468,,,,,,,,,,,,,,,,,,masks/mask_005.jpg,,,,,,,,,,,,,,,,,,,,,,,,,,,,,,,,,,,,,,,,,,,,,,,,0,2,2,4,1,,,,,,,,,,,,,,,,,,,,,,,,,,,,,,,,,,,,,,,,,
365475,001,2022-11-20_23h59.15.286,Info_measure_main_exp,2022.2.2,Win32,60.04563468,,,,,,,,,,,,,,,,,,masks/mask_003.jpg,,,,,,,,,,,,,,,,,,,,,,,,,,,,,,,,,,,,,,,,,,,,,,,,0,3,3,2,1,,,,,,,,,,,,,,,,,,,,,,,,,,,,,,,,,,,,,,,,,
365475,001,2022-11-20_23h59.15.286,Info_measure_main_exp,2022.2.2,Win32,60.04563468,,,,,,,,,,,,,,,,,,masks/mask_002.jpg,,,,,,,,,,,,,,,,,,,,,,,,,,,,,,,,,,,,,,,,,,,,,,,,0,4,4,1,1,,,,,,,,,,,,,,,,,,,,,,,,,,,,,,,,,,,,,,,,,
365475,001,2022-11-20_23h59.15.286,Info_measure_main_exp,2022.2.2,Win32,60.04563468,,,,,,,,,,,,,,,,,,,,,,,,,,,,,,0,0.7327,1,,,,,,,,,,,,0,131,5,5,1986,1986,absent_patch/patch0001986.jpg,absent_patch/patch0001986.jpg,,,,,,,,,,,,,,,,,,,,-0.050925926,0.109259252,1,0,0,response7disk,27,-0.007407365,-0.000925947,1,0,0,center_square,0,26,26,19,1,,,,,,,,,,,,,,,,,,,,,,,
365475,001,2022-11-20_23h59.15.286,Info_measure_main_exp,2022.2.2,Win32,60.04563468,,,,,,,,,,,,,,,,,,masks/mask_005.jpg,,,,,,,,,,,,,,,,,,,,,,,,,,,,,,,,,,,,,,,,,,,0,0,0,4,1,,,,,,,,,,,,,,,,,,,,,,,,,,,,,,,,,,,,,,,,,,,,,,
365475,001,2022-11-20_23h59.15.286,Info_measure_main_exp,2022.2.2,Win32,60.04563468,,,,,,,,,,,,,,,,,,masks/mask_004.jpg,,,,,,,,,,,,,,,,,,,,,,,,,,,,,,,,,,,,,,,,,,,0,1,1,3,1,,,,,,,,,,,,,,,,,,,,,,,,,,,,,,,,,,,,,,,,,,,,,,
365475,001,2022-11-20_23h59.15.286,Info_measure_main_exp,2022.2.2,Win32,60.04563468,,,,,,,,,,,,,,,,,,masks/mask_001.jpg,,,,,,,,,,,,,,,,,,,,,,,,,,,,,,,,,,,,,,,,,,,0,2,2,0,1,,,,,,,,,,,,,,,,,,,,,,,,,,,,,,,,,,,,,,,,,,,,,,
365475,001,2022-11-20_23h59.15.286,Info_measure_main_exp,2022.2.2,Win32,60.04563468,,,,,,,,,,,,,,,,,,masks/mask_002.jpg,,,,,,,,,,,,,,,,,,,,,,,,,,,,,,,,,,,,,,,,,,,0,3,3,1,1,,,,,,,,,,,,,,,,,,,,,,,,,,,,,,,,,,,,,,,,,,,,,,
365475,001,2022-11-20_23h59.15.286,Info_measure_main_exp,2022.2.2,Win32,60.04563468,,,,,,,,,,,,,,,,,,masks/mask_003.jpg,,,,,,,,,,,,,,,,,,,,,,,,,,,,,,,,,,,,,,,,,,,0,4,4,2,1,,,,,,,,,,,,,,,,,,,,,,,,,,,,,,,,,,,,,,,,,,,,,,
365475,001,2022-11-20_23h59.15.286,Info_measure_main_exp,2022.2.2,Win32,60.04563468,,,,,,,,,,,,,,,,,,masks/mask_002.jpg,,,,,,,,,,,,,,,,,,,,,,,,,,,,,,,,,,,,,,,,,,,,,,,,0,0,0,1,1,,,,,,,,,,,,,,,,,,,,,,,,,,,,,,,,,,,,,,,,,
365475,001,2022-11-20_23h59.15.286,Info_measure_main_exp,2022.2.2,Win32,60.04563468,,,,,,,,,,,,,,,,,,masks/mask_001.jpg,,,,,,,,,,,,,,,,,,,,,,,,,,,,,,,,,,,,,,,,,,,,,,,,0,1,1,0,1,,,,,,,,,,,,,,,,,,,,,,,,,,,,,,,,,,,,,,,,,
365475,001,2022-11-20_23h59.15.286,Info_measure_main_exp,2022.2.2,Win32,60.04563468,,,,,,,,,,,,,,,,,,masks/mask_004.jpg,,,,,,,,,,,,,,,,,,,,,,,,,,,,,,,,,,,,,,,,,,,,,,,,0,2,2,3,1,,,,,,,,,,,,,,,,,,,,,,,,,,,,,,,,,,,,,,,,,
365475,001,2022-11-20_23h59.15.286,Info_measure_main_exp,2022.2.2,Win32,60.04563468,,,,,,,,,,,,,,,,,,masks/mask_003.jpg,,,,,,,,,,,,,,,,,,,,,,,,,,,,,,,,,,,,,,,,,,,,,,,,0,3,3,2,1,,,,,,,,,,,,,,,,,,,,,,,,,,,,,,,,,,,,,,,,,
365475,001,2022-11-20_23h59.15.286,Info_measure_main_exp,2022.2.2,Win32,60.04563468,,,,,,,,,,,,,,,,,,masks/mask_005.jpg,,,,,,,,,,,,,,,,,,,,,,,,,,,,,,,,,,,,,,,,,,,,,,,,0,4,4,4,1,,,,,,,,,,,,,,,,,,,,,,,,,,,,,,,,,,,,,,,,,
365475,001,2022-11-20_23h59.15.286,Info_measure_main_exp,2022.2.2,Win32,60.04563468,,,,,,,,,,,,,,,,,,,,,,,,,,,,,,5,0.6849,1,,,,,,,,,,,,0,131,5,5,2214,2166,absent_patch/patch0002214.jpg,absent_patch/patch0002166.jpg,,,,,,,,,,,,,,,,,,,,0.087962963,-0.023148148,1,0,0,response3disk,28,0.003703718,0.009259259,1,0,0,center_square,0,27,27,109,1,,,,,,,,,,,,,,,,,,,,,,,
365475,001,2022-11-20_23h59.15.286,Info_measure_main_exp,2022.2.2,Win32,60.04563468,,,,,,,,,,,,,,,,,,masks/mask_005.jpg,,,,,,,,,,,,,,,,,,,,,,,,,,,,,,,,,,,,,,,,,,,0,0,0,4,1,,,,,,,,,,,,,,,,,,,,,,,,,,,,,,,,,,,,,,,,,,,,,,
365475,001,2022-11-20_23h59.15.286,Info_measure_main_exp,2022.2.2,Win32,60.04563468,,,,,,,,,,,,,,,,,,masks/mask_001.jpg,,,,,,,,,,,,,,,,,,,,,,,,,,,,,,,,,,,,,,,,,,,0,1,1,0,1,,,,,,,,,,,,,,,,,,,,,,,,,,,,,,,,,,,,,,,,,,,,,,
365475,001,2022-11-20_23h59.15.286,Info_measure_main_exp,2022.2.2,Win32,60.04563468,,,,,,,,,,,,,,,,,,masks/mask_003.jpg,,,,,,,,,,,,,,,,,,,,,,,,,,,,,,,,,,,,,,,,,,,0,2,2,2,1,,,,,,,,,,,,,,,,,,,,,,,,,,,,,,,,,,,,,,,,,,,,,,
365475,001,2022-11-20_23h59.15.286,Info_measure_main_exp,2022.2.2,Win32,60.04563468,,,,,,,,,,,,,,,,,,masks/mask_004.jpg,,,,,,,,,,,,,,,,,,,,,,,,,,,,,,,,,,,,,,,,,,,0,3,3,3,1,,,,,,,,,,,,,,,,,,,,,,,,,,,,,,,,,,,,,,,,,,,,,,
365475,001,2022-11-20_23h59.15.286,Info_measure_main_exp,2022.2.2,Win32,60.04563468,,,,,,,,,,,,,,,,,,masks/mask_002.jpg,,,,,,,,,,,,,,,,,,,,,,,,,,,,,,,,,,,,,,,,,,,0,4,4,1,1,,,,,,,,,,,,,,,,,,,,,,,,,,,,,,,,,,,,,,,,,,,,,,
365475,001,2022-11-20_23h59.15.286,Info_measure_main_exp,2022.2.2,Win32,60.04563468,,,,,,,,,,,,,,,,,,masks/mask_003.jpg,,,,,,,,,,,,,,,,,,,,,,,,,,,,,,,,,,,,,,,,,,,,,,,,0,0,0,2,1,,,,,,,,,,,,,,,,,,,,,,,,,,,,,,,,,,,,,,,,,
365475,001,2022-11-20_23h59.15.286,Info_measure_main_exp,2022.2.2,Win32,60.04563468,,,,,,,,,,,,,,,,,,masks/mask_001.jpg,,,,,,,,,,,,,,,,,,,,,,,,,,,,,,,,,,,,,,,,,,,,,,,,0,1,1,0,1,,,,,,,,,,,,,,,,,,,,,,,,,,,,,,,,,,,,,,,,,
365475,001,2022-11-20_23h59.15.286,Info_measure_main_exp,2022.2.2,Win32,60.04563468,,,,,,,,,,,,,,,,,,masks/mask_002.jpg,,,,,,,,,,,,,,,,,,,,,,,,,,,,,,,,,,,,,,,,,,,,,,,,0,2,2,1,1,,,,,,,,,,,,,,,,,,,,,,,,,,,,,,,,,,,,,,,,,
365475,001,2022-11-20_23h59.15.286,Info_measure_main_exp,2022.2.2,Win32,60.04563468,,,,,,,,,,,,,,,,,,masks/mask_005.jpg,,,,,,,,,,,,,,,,,,,,,,,,,,,,,,,,,,,,,,,,,,,,,,,,0,3,3,4,1,,,,,,,,,,,,,,,,,,,,,,,,,,,,,,,,,,,,,,,,,
365475,001,2022-11-20_23h59.15.286,Info_measure_main_exp,2022.2.2,Win32,60.04563468,,,,,,,,,,,,,,,,,,masks/mask_004.jpg,,,,,,,,,,,,,,,,,,,,,,,,,,,,,,,,,,,,,,,,,,,,,,,,0,4,4,3,1,,,,,,,,,,,,,,,,,,,,,,,,,,,,,,,,,,,,,,,,,
365475,001,2022-11-20_23h59.15.286,Info_measure_main_exp,2022.2.2,Win32,60.04563468,,,,,,,,,,,,,,,,,,,,,,,,,,,,,,6,0.6656,1,,,,,,,,,,,,0,131,5,5,2250,2178,absent_patch/patch0002250.jpg,absent_patch/patch0002178.jpg,,,,,,,,,,,,,,,,,,,,0.134259259,0.065740727,1,0,0,response1disk,29,0.00462963,0.003703683,1,0,0,center_square,0,28,28,48,1,,,,,,,,,,,,,,,,,,,,,,,
365475,001,2022-11-20_23h59.15.286,Info_measure_main_exp,2022.2.2,Win32,60.04563468,,,,,,,,,,,,,,,,,,masks/mask_001.jpg,,,,,,,,,,,,,,,,,,,,,,,,,,,,,,,,,,,,,,,,,,,0,0,0,0,1,,,,,,,,,,,,,,,,,,,,,,,,,,,,,,,,,,,,,,,,,,,,,,
365475,001,2022-11-20_23h59.15.286,Info_measure_main_exp,2022.2.2,Win32,60.04563468,,,,,,,,,,,,,,,,,,masks/mask_004.jpg,,,,,,,,,,,,,,,,,,,,,,,,,,,,,,,,,,,,,,,,,,,0,1,1,3,1,,,,,,,,,,,,,,,,,,,,,,,,,,,,,,,,,,,,,,,,,,,,,,
365475,001,2022-11-20_23h59.15.286,Info_measure_main_exp,2022.2.2,Win32,60.04563468,,,,,,,,,,,,,,,,,,masks/mask_003.jpg,,,,,,,,,,,,,,,,,,,,,,,,,,,,,,,,,,,,,,,,,,,0,2,2,2,1,,,,,,,,,,,,,,,,,,,,,,,,,,,,,,,,,,,,,,,,,,,,,,
365475,001,2022-11-20_23h59.15.286,Info_measure_main_exp,2022.2.2,Win32,60.04563468,,,,,,,,,,,,,,,,,,masks/mask_005.jpg,,,,,,,,,,,,,,,,,,,,,,,,,,,,,,,,,,,,,,,,,,,0,3,3,4,1,,,,,,,,,,,,,,,,,,,,,,,,,,,,,,,,,,,,,,,,,,,,,,
365475,001,2022-11-20_23h59.15.286,Info_measure_main_exp,2022.2.2,Win32,60.04563468,,,,,,,,,,,,,,,,,,masks/mask_002.jpg,,,,,,,,,,,,,,,,,,,,,,,,,,,,,,,,,,,,,,,,,,,0,4,4,1,1,,,,,,,,,,,,,,,,,,,,,,,,,,,,,,,,,,,,,,,,,,,,,,
365475,001,2022-11-20_23h59.15.286,Info_measure_main_exp,2022.2.2,Win32,60.04563468,,,,,,,,,,,,,,,,,,masks/mask_002.jpg,,,,,,,,,,,,,,,,,,,,,,,,,,,,,,,,,,,,,,,,,,,,,,,,0,0,0,1,1,,,,,,,,,,,,,,,,,,,,,,,,,,,,,,,,,,,,,,,,,
365475,001,2022-11-20_23h59.15.286,Info_measure_main_exp,2022.2.2,Win32,60.04563468,,,,,,,,,,,,,,,,,,masks/mask_001.jpg,,,,,,,,,,,,,,,,,,,,,,,,,,,,,,,,,,,,,,,,,,,,,,,,0,1,1,0,1,,,,,,,,,,,,,,,,,,,,,,,,,,,,,,,,,,,,,,,,,
365475,001,2022-11-20_23h59.15.286,Info_measure_main_exp,2022.2.2,Win32,60.04563468,,,,,,,,,,,,,,,,,,masks/mask_003.jpg,,,,,,,,,,,,,,,,,,,,,,,,,,,,,,,,,,,,,,,,,,,,,,,,0,2,2,2,1,,,,,,,,,,,,,,,,,,,,,,,,,,,,,,,,,,,,,,,,,
365475,001,2022-11-20_23h59.15.286,Info_measure_main_exp,2022.2.2,Win32,60.04563468,,,,,,,,,,,,,,,,,,masks/mask_004.jpg,,,,,,,,,,,,,,,,,,,,,,,,,,,,,,,,,,,,,,,,,,,,,,,,0,3,3,3,1,,,,,,,,,,,,,,,,,,,,,,,,,,,,,,,,,,,,,,,,,
365475,001,2022-11-20_23h59.15.286,Info_measure_main_exp,2022.2.2,Win32,60.04563468,,,,,,,,,,,,,,,,,,masks/mask_005.jpg,,,,,,,,,,,,,,,,,,,,,,,,,,,,,,,,,,,,,,,,,,,,,,,,0,4,4,4,1,,,,,,,,,,,,,,,,,,,,,,,,,,,,,,,,,,,,,,,,,
365475,001,2022-11-20_23h59.15.286,Info_measure_main_exp,2022.2.2,Win32,60.04563468,,,,,,,,,,,,,,,,,,,,,,,,,,,,,,3,2.0827,1,,,,,,,,,,,,1,131,5,5,2238,1,absent_patch/patch0002238.jpg,present_patch/cong_131_5_a.jpg,,,,,,,,,,,,,,,,,,,,-0.064814815,-0.124074088,1,0,0,response5disk,30,0.012037065,0,1,0,0,center_square,0,29,29,104,1,,,,,,,,,,,,,,,,,,,,,,,
365475,001,2022-11-20_23h59.15.286,Info_measure_main_exp,2022.2.2,Win32,60.04563468,,,,,,,,,,,,,,,,,,masks/mask_003.jpg,,,,,,,,,,,,,,,,,,,,,,,,,,,,,,,,,,,,,,,,,,,0,0,0,2,1,,,,,,,,,,,,,,,,,,,,,,,,,,,,,,,,,,,,,,,,,,,,,,
365475,001,2022-11-20_23h59.15.286,Info_measure_main_exp,2022.2.2,Win32,60.04563468,,,,,,,,,,,,,,,,,,masks/mask_001.jpg,,,,,,,,,,,,,,,,,,,,,,,,,,,,,,,,,,,,,,,,,,,0,1,1,0,1,,,,,,,,,,,,,,,,,,,,,,,,,,,,,,,,,,,,,,,,,,,,,,
365475,001,2022-11-20_23h59.15.286,Info_measure_main_exp,2022.2.2,Win32,60.04563468,,,,,,,,,,,,,,,,,,masks/mask_004.jpg,,,,,,,,,,,,,,,,,,,,,,,,,,,,,,,,,,,,,,,,,,,0,2,2,3,1,,,,,,,,,,,,,,,,,,,,,,,,,,,,,,,,,,,,,,,,,,,,,,
365475,001,2022-11-20_23h59.15.286,Info_measure_main_exp,2022.2.2,Win32,60.04563468,,,,,,,,,,,,,,,,,,masks/mask_005.jpg,,,,,,,,,,,,,,,,,,,,,,,,,,,,,,,,,,,,,,,,,,,0,3,3,4,1,,,,,,,,,,,,,,,,,,,,,,,,,,,,,,,,,,,,,,,,,,,,,,
365475,001,2022-11-20_23h59.15.286,Info_measure_main_exp,2022.2.2,Win32,60.04563468,,,,,,,,,,,,,,,,,,masks/mask_002.jpg,,,,,,,,,,,,,,,,,,,,,,,,,,,,,,,,,,,,,,,,,,,0,4,4,1,1,,,,,,,,,,,,,,,,,,,,,,,,,,,,,,,,,,,,,,,,,,,,,,
365475,001,2022-11-20_23h59.15.286,Info_measure_main_exp,2022.2.2,Win32,60.04563468,,,,,,,,,,,,,,,,,,masks/mask_005.jpg,,,,,,,,,,,,,,,,,,,,,,,,,,,,,,,,,,,,,,,,,,,,,,,,0,0,0,4,1,,,,,,,,,,,,,,,,,,,,,,,,,,,,,,,,,,,,,,,,,
365475,001,2022-11-20_23h59.15.286,Info_measure_main_exp,2022.2.2,Win32,60.04563468,,,,,,,,,,,,,,,,,,masks/mask_002.jpg,,,,,,,,,,,,,,,,,,,,,,,,,,,,,,,,,,,,,,,,,,,,,,,,0,1,1,1,1,,,,,,,,,,,,,,,,,,,,,,,,,,,,,,,,,,,,,,,,,
365475,001,2022-11-20_23h59.15.286,Info_measure_main_exp,2022.2.2,Win32,60.04563468,,,,,,,,,,,,,,,,,,masks/mask_003.jpg,,,,,,,,,,,,,,,,,,,,,,,,,,,,,,,,,,,,,,,,,,,,,,,,0,2,2,2,1,,,,,,,,,,,,,,,,,,,,,,,,,,,,,,,,,,,,,,,,,
365475,001,2022-11-20_23h59.15.286,Info_measure_main_exp,2022.2.2,Win32,60.04563468,,,,,,,,,,,,,,,,,,masks/mask_004.jpg,,,,,,,,,,,,,,,,,,,,,,,,,,,,,,,,,,,,,,,,,,,,,,,,0,3,3,3,1,,,,,,,,,,,,,,,,,,,,,,,,,,,,,,,,,,,,,,,,,
365475,001,2022-11-20_23h59.15.286,Info_measure_main_exp,2022.2.2,Win32,60.04563468,,,,,,,,,,,,,,,,,,masks/mask_001.jpg,,,,,,,,,,,,,,,,,,,,,,,,,,,,,,,,,,,,,,,,,,,,,,,,0,4,4,0,1,,,,,,,,,,,,,,,,,,,,,,,,,,,,,,,,,,,,,,,,,
365475,001,2022-11-20_23h59.15.286,Info_measure_main_exp,2022.2.2,Win32,60.04563468,,,,,,,,,,,,,,,,,,,,,,,,,,,,,,5,0.7515,1,,,,,,,,,,,,0,131,5,5,1950,2142,absent_patch/patch0001950.jpg,absent_patch/patch0002142.jpg,,,,,,,,,,,,,,,,,,,,0.101851852,-0.012962977,1,0,0,response3disk,31,-0.00462963,0.009259259,1,0,0,center_square,0,30,30,83,1,,,,,,,,,,,,,,,,,,,,,,,
365475,001,2022-11-20_23h59.15.286,Info_measure_main_exp,2022.2.2,Win32,60.04563468,,,,,,,,,,,,,,,,,,masks/mask_001.jpg,,,,,,,,,,,,,,,,,,,,,,,,,,,,,,,,,,,,,,,,,,,0,0,0,0,1,,,,,,,,,,,,,,,,,,,,,,,,,,,,,,,,,,,,,,,,,,,,,,
365475,001,2022-11-20_23h59.15.286,Info_measure_main_exp,2022.2.2,Win32,60.04563468,,,,,,,,,,,,,,,,,,masks/mask_003.jpg,,,,,,,,,,,,,,,,,,,,,,,,,,,,,,,,,,,,,,,,,,,0,1,1,2,1,,,,,,,,,,,,,,,,,,,,,,,,,,,,,,,,,,,,,,,,,,,,,,
365475,001,2022-11-20_23h59.15.286,Info_measure_main_exp,2022.2.2,Win32,60.04563468,,,,,,,,,,,,,,,,,,masks/mask_002.jpg,,,,,,,,,,,,,,,,,,,,,,,,,,,,,,,,,,,,,,,,,,,0,2,2,1,1,,,,,,,,,,,,,,,,,,,,,,,,,,,,,,,,,,,,,,,,,,,,,,
365475,001,2022-11-20_23h59.15.286,Info_measure_main_exp,2022.2.2,Win32,60.04563468,,,,,,,,,,,,,,,,,,masks/mask_005.jpg,,,,,,,,,,,,,,,,,,,,,,,,,,,,,,,,,,,,,,,,,,,0,3,3,4,1,,,,,,,,,,,,,,,,,,,,,,,,,,,,,,,,,,,,,,,,,,,,,,
365475,001,2022-11-20_23h59.15.286,Info_measure_main_exp,2022.2.2,Win32,60.04563468,,,,,,,,,,,,,,,,,,masks/mask_004.jpg,,,,,,,,,,,,,,,,,,,,,,,,,,,,,,,,,,,,,,,,,,,0,4,4,3,1,,,,,,,,,,,,,,,,,,,,,,,,,,,,,,,,,,,,,,,,,,,,,,
365475,001,2022-11-20_23h59.15.286,Info_measure_main_exp,2022.2.2,Win32,60.04563468,,,,,,,,,,,,,,,,,,masks/mask_004.jpg,,,,,,,,,,,,,,,,,,,,,,,,,,,,,,,,,,,,,,,,,,,,,,,,0,0,0,3,1,,,,,,,,,,,,,,,,,,,,,,,,,,,,,,,,,,,,,,,,,
365475,001,2022-11-20_23h59.15.286,Info_measure_main_exp,2022.2.2,Win32,60.04563468,,,,,,,,,,,,,,,,,,masks/mask_001.jpg,,,,,,,,,,,,,,,,,,,,,,,,,,,,,,,,,,,,,,,,,,,,,,,,0,1,1,0,1,,,,,,,,,,,,,,,,,,,,,,,,,,,,,,,,,,,,,,,,,
365475,001,2022-11-20_23h59.15.286,Info_measure_main_exp,2022.2.2,Win32,60.04563468,,,,,,,,,,,,,,,,,,masks/mask_005.jpg,,,,,,,,,,,,,,,,,,,,,,,,,,,,,,,,,,,,,,,,,,,,,,,,0,2,2,4,1,,,,,,,,,,,,,,,,,,,,,,,,,,,,,,,,,,,,,,,,,
365475,001,2022-11-20_23h59.15.286,Info_measure_main_exp,2022.2.2,Win32,60.04563468,,,,,,,,,,,,,,,,,,masks/mask_003.jpg,,,,,,,,,,,,,,,,,,,,,,,,,,,,,,,,,,,,,,,,,,,,,,,,0,3,3,2,1,,,,,,,,,,,,,,,,,,,,,,,,,,,,,,,,,,,,,,,,,
365475,001,2022-11-20_23h59.15.286,Info_measure_main_exp,2022.2.2,Win32,60.04563468,,,,,,,,,,,,,,,,,,masks/mask_002.jpg,,,,,,,,,,,,,,,,,,,,,,,,,,,,,,,,,,,,,,,,,,,,,,,,0,4,4,1,1,,,,,,,,,,,,,,,,,,,,,,,,,,,,,,,,,,,,,,,,,
365475,001,2022-11-20_23h59.15.286,Info_measure_main_exp,2022.2.2,Win32,60.04563468,,,,,,,,,,,,,,,,,,,,,,,,,,,,,,5,0.6331,1,,,,,,,,,,,,0,131,5,5,1974,2214,absent_patch/patch0001974.jpg,absent_patch/patch0002214.jpg,,,,,,,,,,,,,,,,,,,,0.059259273,-0.025925919,1,0,0,response3disk,32,0.00462963,-0.002777771,1,0,0,center_square,0,31,31,24,1,,,,,,,,,,,,,,,,,,,,,,,
365475,001,2022-11-20_23h59.15.286,Info_measure_main_exp,2022.2.2,Win32,60.04563468,,,,,,,,,,,,,,,,,,masks/mask_004.jpg,,,,,,,,,,,,,,,,,,,,,,,,,,,,,,,,,,,,,,,,,,,0,0,0,3,1,,,,,,,,,,,,,,,,,,,,,,,,,,,,,,,,,,,,,,,,,,,,,,
365475,001,2022-11-20_23h59.15.286,Info_measure_main_exp,2022.2.2,Win32,60.04563468,,,,,,,,,,,,,,,,,,masks/mask_001.jpg,,,,,,,,,,,,,,,,,,,,,,,,,,,,,,,,,,,,,,,,,,,0,1,1,0,1,,,,,,,,,,,,,,,,,,,,,,,,,,,,,,,,,,,,,,,,,,,,,,
365475,001,2022-11-20_23h59.15.286,Info_measure_main_exp,2022.2.2,Win32,60.04563468,,,,,,,,,,,,,,,,,,masks/mask_003.jpg,,,,,,,,,,,,,,,,,,,,,,,,,,,,,,,,,,,,,,,,,,,0,2,2,2,1,,,,,,,,,,,,,,,,,,,,,,,,,,,,,,,,,,,,,,,,,,,,,,
365475,001,2022-11-20_23h59.15.286,Info_measure_main_exp,2022.2.2,Win32,60.04563468,,,,,,,,,,,,,,,,,,masks/mask_005.jpg,,,,,,,,,,,,,,,,,,,,,,,,,,,,,,,,,,,,,,,,,,,0,3,3,4,1,,,,,,,,,,,,,,,,,,,,,,,,,,,,,,,,,,,,,,,,,,,,,,
365475,001,2022-11-20_23h59.15.286,Info_measure_main_exp,2022.2.2,Win32,60.04563468,,,,,,,,,,,,,,,,,,masks/mask_002.jpg,,,,,,,,,,,,,,,,,,,,,,,,,,,,,,,,,,,,,,,,,,,0,4,4,1,1,,,,,,,,,,,,,,,,,,,,,,,,,,,,,,,,,,,,,,,,,,,,,,
365475,001,2022-11-20_23h59.15.286,Info_measure_main_exp,2022.2.2,Win32,60.04563468,,,,,,,,,,,,,,,,,,masks/mask_005.jpg,,,,,,,,,,,,,,,,,,,,,,,,,,,,,,,,,,,,,,,,,,,,,,,,0,0,0,4,1,,,,,,,,,,,,,,,,,,,,,,,,,,,,,,,,,,,,,,,,,
365475,001,2022-11-20_23h59.15.286,Info_measure_main_exp,2022.2.2,Win32,60.04563468,,,,,,,,,,,,,,,,,,masks/mask_004.jpg,,,,,,,,,,,,,,,,,,,,,,,,,,,,,,,,,,,,,,,,,,,,,,,,0,1,1,3,1,,,,,,,,,,,,,,,,,,,,,,,,,,,,,,,,,,,,,,,,,
365475,001,2022-11-20_23h59.15.286,Info_measure_main_exp,2022.2.2,Win32,60.04563468,,,,,,,,,,,,,,,,,,masks/mask_003.jpg,,,,,,,,,,,,,,,,,,,,,,,,,,,,,,,,,,,,,,,,,,,,,,,,0,2,2,2,1,,,,,,,,,,,,,,,,,,,,,,,,,,,,,,,,,,,,,,,,,
365475,001,2022-11-20_23h59.15.286,Info_measure_main_exp,2022.2.2,Win32,60.04563468,,,,,,,,,,,,,,,,,,masks/mask_001.jpg,,,,,,,,,,,,,,,,,,,,,,,,,,,,,,,,,,,,,,,,,,,,,,,,0,3,3,0,1,,,,,,,,,,,,,,,,,,,,,,,,,,,,,,,,,,,,,,,,,
365475,001,2022-11-20_23h59.15.286,Info_measure_main_exp,2022.2.2,Win32,60.04563468,,,,,,,,,,,,,,,,,,masks/mask_002.jpg,,,,,,,,,,,,,,,,,,,,,,,,,,,,,,,,,,,,,,,,,,,,,,,,0,4,4,1,1,,,,,,,,,,,,,,,,,,,,,,,,,,,,,,,,,,,,,,,,,
365475,001,2022-11-20_23h59.15.286,Info_measure_main_exp,2022.2.2,Win32,60.04563468,,,,,,,,,,,,,,,,,,,,,,,,,,,,,,0,0.7175,1,,,,,,,,,,,,0,131,5,5,2274,2274,absent_patch/patch0002274.jpg,absent_patch/patch0002274.jpg,,,,,,,,,,,,,,,,,,,,-0.034259231,0.073148127,1,0,0,response7disk,33,0.008333347,-0.014814836,1,0,0,center_square,0,32,32,114,1,,,,,,,,,,,,,,,,,,,,,,,
365475,001,2022-11-20_23h59.15.286,Info_measure_main_exp,2022.2.2,Win32,60.04563468,,,,,,,,,,,,,,,,,,masks/mask_003.jpg,,,,,,,,,,,,,,,,,,,,,,,,,,,,,,,,,,,,,,,,,,,0,0,0,2,1,,,,,,,,,,,,,,,,,,,,,,,,,,,,,,,,,,,,,,,,,,,,,,
365475,001,2022-11-20_23h59.15.286,Info_measure_main_exp,2022.2.2,Win32,60.04563468,,,,,,,,,,,,,,,,,,masks/mask_005.jpg,,,,,,,,,,,,,,,,,,,,,,,,,,,,,,,,,,,,,,,,,,,0,1,1,4,1,,,,,,,,,,,,,,,,,,,,,,,,,,,,,,,,,,,,,,,,,,,,,,
365475,001,2022-11-20_23h59.15.286,Info_measure_main_exp,2022.2.2,Win32,60.04563468,,,,,,,,,,,,,,,,,,masks/mask_001.jpg,,,,,,,,,,,,,,,,,,,,,,,,,,,,,,,,,,,,,,,,,,,0,2,2,0,1,,,,,,,,,,,,,,,,,,,,,,,,,,,,,,,,,,,,,,,,,,,,,,
365475,001,2022-11-20_23h59.15.286,Info_measure_main_exp,2022.2.2,Win32,60.04563468,,,,,,,,,,,,,,,,,,masks/mask_002.jpg,,,,,,,,,,,,,,,,,,,,,,,,,,,,,,,,,,,,,,,,,,,0,3,3,1,1,,,,,,,,,,,,,,,,,,,,,,,,,,,,,,,,,,,,,,,,,,,,,,
365475,001,2022-11-20_23h59.15.286,Info_measure_main_exp,2022.2.2,Win32,60.04563468,,,,,,,,,,,,,,,,,,masks/mask_004.jpg,,,,,,,,,,,,,,,,,,,,,,,,,,,,,,,,,,,,,,,,,,,0,4,4,3,1,,,,,,,,,,,,,,,,,,,,,,,,,,,,,,,,,,,,,,,,,,,,,,
365475,001,2022-11-20_23h59.15.286,Info_measure_main_exp,2022.2.2,Win32,60.04563468,,,,,,,,,,,,,,,,,,masks/mask_002.jpg,,,,,,,,,,,,,,,,,,,,,,,,,,,,,,,,,,,,,,,,,,,,,,,,0,0,0,1,1,,,,,,,,,,,,,,,,,,,,,,,,,,,,,,,,,,,,,,,,,
365475,001,2022-11-20_23h59.15.286,Info_measure_main_exp,2022.2.2,Win32,60.04563468,,,,,,,,,,,,,,,,,,masks/mask_003.jpg,,,,,,,,,,,,,,,,,,,,,,,,,,,,,,,,,,,,,,,,,,,,,,,,0,1,1,2,1,,,,,,,,,,,,,,,,,,,,,,,,,,,,,,,,,,,,,,,,,
365475,001,2022-11-20_23h59.15.286,Info_measure_main_exp,2022.2.2,Win32,60.04563468,,,,,,,,,,,,,,,,,,masks/mask_005.jpg,,,,,,,,,,,,,,,,,,,,,,,,,,,,,,,,,,,,,,,,,,,,,,,,0,2,2,4,1,,,,,,,,,,,,,,,,,,,,,,,,,,,,,,,,,,,,,,,,,
365475,001,2022-11-20_23h59.15.286,Info_measure_main_exp,2022.2.2,Win32,60.04563468,,,,,,,,,,,,,,,,,,masks/mask_004.jpg,,,,,,,,,,,,,,,,,,,,,,,,,,,,,,,,,,,,,,,,,,,,,,,,0,3,3,3,1,,,,,,,,,,,,,,,,,,,,,,,,,,,,,,,,,,,,,,,,,
365475,001,2022-11-20_23h59.15.286,Info_measure_main_exp,2022.2.2,Win32,60.04563468,,,,,,,,,,,,,,,,,,masks/mask_001.jpg,,,,,,,,,,,,,,,,,,,,,,,,,,,,,,,,,,,,,,,,,,,,,,,,0,4,4,0,1,,,,,,,,,,,,,,,,,,,,,,,,,,,,,,,,,,,,,,,,,
365475,001,2022-11-20_23h59.15.286,Info_measure_main_exp,2022.2.2,Win32,60.04563468,,,,,,,,,,,,,,,,,,,,,,,,,,,,,,6,0.8064,1,,,,,,,,,,,,0,131,5,5,2190,2166,absent_patch/patch0002190.jpg,absent_patch/patch0002166.jpg,,,,,,,,,,,,,,,,,,,,0.10092594,0.038888896,1,0,0,response1disk,34,-0.009259259,-0.001851859,1,0,0,center_square,0,33,33,50,1,,,,,,,,,,,,,,,,,,,,,,,
365475,001,2022-11-20_23h59.15.286,Info_measure_main_exp,2022.2.2,Win32,60.04563468,,,,,,,,,,,,,,,,,,masks/mask_005.jpg,,,,,,,,,,,,,,,,,,,,,,,,,,,,,,,,,,,,,,,,,,,0,0,0,4,1,,,,,,,,,,,,,,,,,,,,,,,,,,,,,,,,,,,,,,,,,,,,,,
365475,001,2022-11-20_23h59.15.286,Info_measure_main_exp,2022.2.2,Win32,60.04563468,,,,,,,,,,,,,,,,,,masks/mask_001.jpg,,,,,,,,,,,,,,,,,,,,,,,,,,,,,,,,,,,,,,,,,,,0,1,1,0,1,,,,,,,,,,,,,,,,,,,,,,,,,,,,,,,,,,,,,,,,,,,,,,
365475,001,2022-11-20_23h59.15.286,Info_measure_main_exp,2022.2.2,Win32,60.04563468,,,,,,,,,,,,,,,,,,masks/mask_004.jpg,,,,,,,,,,,,,,,,,,,,,,,,,,,,,,,,,,,,,,,,,,,0,2,2,3,1,,,,,,,,,,,,,,,,,,,,,,,,,,,,,,,,,,,,,,,,,,,,,,
365475,001,2022-11-20_23h59.15.286,Info_measure_main_exp,2022.2.2,Win32,60.04563468,,,,,,,,,,,,,,,,,,masks/mask_002.jpg,,,,,,,,,,,,,,,,,,,,,,,,,,,,,,,,,,,,,,,,,,,0,3,3,1,1,,,,,,,,,,,,,,,,,,,,,,,,,,,,,,,,,,,,,,,,,,,,,,
365475,001,2022-11-20_23h59.15.286,Info_measure_main_exp,2022.2.2,Win32,60.04563468,,,,,,,,,,,,,,,,,,masks/mask_003.jpg,,,,,,,,,,,,,,,,,,,,,,,,,,,,,,,,,,,,,,,,,,,0,4,4,2,1,,,,,,,,,,,,,,,,,,,,,,,,,,,,,,,,,,,,,,,,,,,,,,
365475,001,2022-11-20_23h59.15.286,Info_measure_main_exp,2022.2.2,Win32,60.04563468,,,,,,,,,,,,,,,,,,masks/mask_005.jpg,,,,,,,,,,,,,,,,,,,,,,,,,,,,,,,,,,,,,,,,,,,,,,,,0,0,0,4,1,,,,,,,,,,,,,,,,,,,,,,,,,,,,,,,,,,,,,,,,,
365475,001,2022-11-20_23h59.15.286,Info_measure_main_exp,2022.2.2,Win32,60.04563468,,,,,,,,,,,,,,,,,,masks/mask_002.jpg,,,,,,,,,,,,,,,,,,,,,,,,,,,,,,,,,,,,,,,,,,,,,,,,0,1,1,1,1,,,,,,,,,,,,,,,,,,,,,,,,,,,,,,,,,,,,,,,,,
365475,001,2022-11-20_23h59.15.286,Info_measure_main_exp,2022.2.2,Win32,60.04563468,,,,,,,,,,,,,,,,,,masks/mask_001.jpg,,,,,,,,,,,,,,,,,,,,,,,,,,,,,,,,,,,,,,,,,,,,,,,,0,2,2,0,1,,,,,,,,,,,,,,,,,,,,,,,,,,,,,,,,,,,,,,,,,
365475,001,2022-11-20_23h59.15.286,Info_measure_main_exp,2022.2.2,Win32,60.04563468,,,,,,,,,,,,,,,,,,masks/mask_004.jpg,,,,,,,,,,,,,,,,,,,,,,,,,,,,,,,,,,,,,,,,,,,,,,,,0,3,3,3,1,,,,,,,,,,,,,,,,,,,,,,,,,,,,,,,,,,,,,,,,,
