participant,session,date,expName,psychopyVersion,OS,frameRate,space_press_continue.keys,space_press_continue.rt,space_press_continue_2.keys,space_press_continue_2.rt,space_press_continue_3.keys,space_press_continue_3.rt,space_press_continue_4.keys,space_press_continue_4.rt,space_press_continue_5.keys,space_press_continue_5.rt,space_press_continue_6.keys,space_press_continue_6.rt,prac_mask_loop_1.thisRepN,prac_mask_loop_1.thisTrialN,prac_mask_loop_1.thisN,prac_mask_loop_1.thisIndex,prac_mask_loop_1.ran,mask_name,prac_mask_loop_2.thisRepN,prac_mask_loop_2.thisTrialN,prac_mask_loop_2.thisN,prac_mask_loop_2.thisIndex,prac_mask_loop_2.ran,mouse_2.x,mouse_2.y,mouse_2.leftButton,mouse_2.midButton,mouse_2.rightButton,mouse_2.clicked_name,similarity,response_time,Pass,mouse_12.x,mouse_12.y,mouse_12.leftButton,mouse_12.midButton,mouse_12.rightButton,mouse_12.clicked_name,prac_loop.thisRepN,prac_loop.thisTrialN,prac_loop.thisN,prac_loop.thisIndex,prac_loop.ran,Pair_type,Image_num,Patch_1_loc,Patch_2_loc,Patch_1_info,Patch_2_info,Patch_1_name,Patch_2_name,mouse_1.x,mouse_1.y,mouse_1.leftButton,mouse_1.midButton,mouse_1.rightButton,mouse_1.time,mouse_1.clicked_name,space_press_continue_7.keys,space_press_continue_7.rt,mask_loop.thisRepN,mask_loop.thisTrialN,mask_loop.thisN,mask_loop.thisIndex,mask_loop.ran,mask_loop_2.thisRepN,mask_loop_2.thisTrialN,mask_loop_2.thisN,mask_loop_2.thisIndex,mask_loop_2.ran,mouse.x,mouse.y,mouse.leftButton,mouse.midButton,mouse.rightButton,mouse.clicked_name,trialNumber,mouse_11.x,mouse_11.y,mouse_11.leftButton,mouse_11.midButton,mouse_11.rightButton,mouse_11.clicked_name,first_pass_loop.thisRepN,first_pass_loop.thisTrialN,first_pass_loop.thisN,first_pass_loop.thisIndex,first_pass_loop.ran,mask_loop_3.thisRepN,mask_loop_3.thisTrialN,mask_loop_3.thisN,mask_loop_3.thisIndex,mask_loop_3.ran,mask_loop_4.thisRepN,mask_loop_4.thisTrialN,mask_loop_4.thisN,mask_loop_4.thisIndex,mask_loop_4.ran,mouse_3.x,mouse_3.y,mouse_3.leftButton,mouse_3.midButton,mouse_3.rightButton,mouse_3.clicked_name,double_pass_loop.thisRepN,double_pass_loop.thisTrialN,double_pass_loop.thisN,double_pass_loop.thisIndex,double_pass_loop.ran,space_exit.keys,space_exit.rt
365585,001,2022-11-20_17h46.56.628,Info_measure_main_exp,2022.2.2,Win32,74.77753683,,,,,,,,,,,,,,,,,,,,,,,,,,,,,,,,,,,,,,,,,,,,,,,,,,,,,,,,,,,,,,,,,,,,,,,,,,,,,,,,,,,,,,,,,,,,,,,,,,,,,,,,,,,,,,,
365585,001,2022-11-20_17h46.56.628,Info_measure_main_exp,2022.2.2,Win32,74.77753683,,,,,,,,,,,,,,,,,,,,,,,,,,,,,,,,,,,,,,,,,,,,,,,,,,,,,,,,,,,,,,,,,,,,,,,,,,,,,,,,,,,,,,,,,,,,,,,,,,,,,,,,,,,,,,,
365585,001,2022-11-20_17h46.56.628,Info_measure_main_exp,2022.2.2,Win32,74.77753683,space,9.2381,,,,,,,,,,,,,,,,,,,,,,,,,,,,,,,,,,,,,,,,,,,,,,,,,,,,,,,,,,,,,,,,,,,,,,,,,,,,,,,,,,,,,,,,,,,,,,,,,,,,,,,,,,,,,
365585,001,2022-11-20_17h46.56.628,Info_measure_main_exp,2022.2.2,Win32,74.77753683,,,space,75.6402,,,,,,,,,,,,,,,,,,,,,,,,,,,,,,,,,,,,,,,,,,,,,,,,,,,,,,,,,,,,,,,,,,,,,,,,,,,,,,,,,,,,,,,,,,,,,,,,,,,,,,,,,,,
365585,001,2022-11-20_17h46.56.628,Info_measure_main_exp,2022.2.2,Win32,74.77753683,,,,,space,5.2434,,,,,,,,,,,,,,,,,,,,,,,,,,,,,,,,,,,,,,,,,,,,,,,,,,,,,,,,,,,,,,,,,,,,,,,,,,,,,,,,,,,,,,,,,,,,,,,,,,,,,,,,,
365585,001,2022-11-20_17h46.56.628,Info_measure_main_exp,2022.2.2,Win32,74.77753683,,,,,,,space,25.08,,,,,,,,,,,,,,,,,,,,,,,,,,,,,,,,,,,,,,,,,,,,,,,,,,,,,,,,,,,,,,,,,,,,,,,,,,,,,,,,,,,,,,,,,,,,,,,,,,,,,,,
365585,001,2022-11-20_17h46.56.628,Info_measure_main_exp,2022.2.2,Win32,74.77753683,,,,,,,,,space,7.4953,,,,,,,,,,,,,,,,,,,,,,,,,,,,,,,,,,,,,,,,,,,,,,,,,,,,,,,,,,,,,,,,,,,,,,,,,,,,,,,,,,,,,,,,,,,,,,,,,,,,,
365585,001,2022-11-20_17h46.56.628,Info_measure_main_exp,2022.2.2,Win32,74.77753683,,,,,,,,,,,space,2.585,,,,,,,,,,,,,,,,,,,,,,,,,,,,,,,,,,,,,,,,,,,,,,,,,,,,,,,,,,,,,,,,,,,,,,,,,,,,,,,,,,,,,,,,,,,,,,,,,,,
365585,001,2022-11-20_17h46.56.628,Info_measure_main_exp,2022.2.2,Win32,74.77753683,,,,,,,,,,,,,0,0,0,1,1,masks/mask_002.jpg,,,,,,,,,,,,,,,,,,,,,,,,,,,,,,,,,,,,,,,,,,,,,,,,,,,,,,,,,,,,,,,,,,,,,,,,,,,,,,,,,,,,,,,,,,,,,
365585,001,2022-11-20_17h46.56.628,Info_measure_main_exp,2022.2.2,Win32,74.77753683,,,,,,,,,,,,,0,1,1,4,1,masks/mask_005.jpg,,,,,,,,,,,,,,,,,,,,,,,,,,,,,,,,,,,,,,,,,,,,,,,,,,,,,,,,,,,,,,,,,,,,,,,,,,,,,,,,,,,,,,,,,,,,,
365585,001,2022-11-20_17h46.56.628,Info_measure_main_exp,2022.2.2,Win32,74.77753683,,,,,,,,,,,,,0,2,2,0,1,masks/mask_001.jpg,,,,,,,,,,,,,,,,,,,,,,,,,,,,,,,,,,,,,,,,,,,,,,,,,,,,,,,,,,,,,,,,,,,,,,,,,,,,,,,,,,,,,,,,,,,,,
365585,001,2022-11-20_17h46.56.628,Info_measure_main_exp,2022.2.2,Win32,74.77753683,,,,,,,,,,,,,0,3,3,2,1,masks/mask_003.jpg,,,,,,,,,,,,,,,,,,,,,,,,,,,,,,,,,,,,,,,,,,,,,,,,,,,,,,,,,,,,,,,,,,,,,,,,,,,,,,,,,,,,,,,,,,,,,
365585,001,2022-11-20_17h46.56.628,Info_measure_main_exp,2022.2.2,Win32,74.77753683,,,,,,,,,,,,,0,4,4,3,1,masks/mask_004.jpg,,,,,,,,,,,,,,,,,,,,,,,,,,,,,,,,,,,,,,,,,,,,,,,,,,,,,,,,,,,,,,,,,,,,,,,,,,,,,,,,,,,,,,,,,,,,,
365585,001,2022-11-20_17h46.56.628,Info_measure_main_exp,2022.2.2,Win32,74.77753683,,,,,,,,,,,,,,,,,,masks/mask_003.jpg,0,0,0,2,1,,,,,,,,,,,,,,,,,,,,,,,,,,,,,,,,,,,,,,,,,,,,,,,,,,,,,,,,,,,,,,,,,,,,,,,,,,,,,,,,,,,,,,,,
365585,001,2022-11-20_17h46.56.628,Info_measure_main_exp,2022.2.2,Win32,74.77753683,,,,,,,,,,,,,,,,,,masks/mask_005.jpg,0,1,1,4,1,,,,,,,,,,,,,,,,,,,,,,,,,,,,,,,,,,,,,,,,,,,,,,,,,,,,,,,,,,,,,,,,,,,,,,,,,,,,,,,,,,,,,,,,
365585,001,2022-11-20_17h46.56.628,Info_measure_main_exp,2022.2.2,Win32,74.77753683,,,,,,,,,,,,,,,,,,masks/mask_001.jpg,0,2,2,0,1,,,,,,,,,,,,,,,,,,,,,,,,,,,,,,,,,,,,,,,,,,,,,,,,,,,,,,,,,,,,,,,,,,,,,,,,,,,,,,,,,,,,,,,,
365585,001,2022-11-20_17h46.56.628,Info_measure_main_exp,2022.2.2,Win32,74.77753683,,,,,,,,,,,,,,,,,,masks/mask_002.jpg,0,3,3,1,1,,,,,,,,,,,,,,,,,,,,,,,,,,,,,,,,,,,,,,,,,,,,,,,,,,,,,,,,,,,,,,,,,,,,,,,,,,,,,,,,,,,,,,,,
365585,001,2022-11-20_17h46.56.628,Info_measure_main_exp,2022.2.2,Win32,74.77753683,,,,,,,,,,,,,,,,,,masks/mask_004.jpg,0,4,4,3,1,,,,,,,,,,,,,,,,,,,,,,,,,,,,,,,,,,,,,,,,,,,,,,,,,,,,,,,,,,,,,,,,,,,,,,,,,,,,,,,,,,,,,,,,
365585,001,2022-11-20_17h46.56.628,Info_measure_main_exp,2022.2.2,Win32,74.77753683,,,,,,,,,,,,,,,,,,,,,,,,-0.051851852,-0.019444444,1,0,0,response5disk,2,131.1915,1,-0.002777778,-0.003703704,1,0,0,center_square,0,0,0,0,1,0,131,5,5,2370,2406,prac_patch/patch0002370.jpg,prac_patch/patch0002406.jpg,,,,,,,,,,,,,,,,,,,,,,,,,,,,,,,,,,,,,,,,,,,,,,,,,,,,,,,,,,,,
365585,001,2022-11-20_17h46.56.628,Info_measure_main_exp,2022.2.2,Win32,74.77753683,,,,,,,,,,,,,0,0,0,4,1,masks/mask_005.jpg,,,,,,,,,,,,,,,,,,,,,,,,,,,,,,,,,,,,,,,,,,,,,,,,,,,,,,,,,,,,,,,,,,,,,,,,,,,,,,,,,,,,,,,,,,,,,
365585,001,2022-11-20_17h46.56.628,Info_measure_main_exp,2022.2.2,Win32,74.77753683,,,,,,,,,,,,,0,1,1,1,1,masks/mask_002.jpg,,,,,,,,,,,,,,,,,,,,,,,,,,,,,,,,,,,,,,,,,,,,,,,,,,,,,,,,,,,,,,,,,,,,,,,,,,,,,,,,,,,,,,,,,,,,,
365585,001,2022-11-20_17h46.56.628,Info_measure_main_exp,2022.2.2,Win32,74.77753683,,,,,,,,,,,,,0,2,2,3,1,masks/mask_004.jpg,,,,,,,,,,,,,,,,,,,,,,,,,,,,,,,,,,,,,,,,,,,,,,,,,,,,,,,,,,,,,,,,,,,,,,,,,,,,,,,,,,,,,,,,,,,,,
365585,001,2022-11-20_17h46.56.628,Info_measure_main_exp,2022.2.2,Win32,74.77753683,,,,,,,,,,,,,0,3,3,0,1,masks/mask_001.jpg,,,,,,,,,,,,,,,,,,,,,,,,,,,,,,,,,,,,,,,,,,,,,,,,,,,,,,,,,,,,,,,,,,,,,,,,,,,,,,,,,,,,,,,,,,,,,
365585,001,2022-11-20_17h46.56.628,Info_measure_main_exp,2022.2.2,Win32,74.77753683,,,,,,,,,,,,,0,4,4,2,1,masks/mask_003.jpg,,,,,,,,,,,,,,,,,,,,,,,,,,,,,,,,,,,,,,,,,,,,,,,,,,,,,,,,,,,,,,,,,,,,,,,,,,,,,,,,,,,,,,,,,,,,,
365585,001,2022-11-20_17h46.56.628,Info_measure_main_exp,2022.2.2,Win32,74.77753683,,,,,,,,,,,,,,,,,,masks/mask_002.jpg,0,0,0,1,1,,,,,,,,,,,,,,,,,,,,,,,,,,,,,,,,,,,,,,,,,,,,,,,,,,,,,,,,,,,,,,,,,,,,,,,,,,,,,,,,,,,,,,,,
365585,001,2022-11-20_17h46.56.628,Info_measure_main_exp,2022.2.2,Win32,74.77753683,,,,,,,,,,,,,,,,,,masks/mask_003.jpg,0,1,1,2,1,,,,,,,,,,,,,,,,,,,,,,,,,,,,,,,,,,,,,,,,,,,,,,,,,,,,,,,,,,,,,,,,,,,,,,,,,,,,,,,,,,,,,,,,
365585,001,2022-11-20_17h46.56.628,Info_measure_main_exp,2022.2.2,Win32,74.77753683,,,,,,,,,,,,,,,,,,masks/mask_001.jpg,0,2,2,0,1,,,,,,,,,,,,,,,,,,,,,,,,,,,,,,,,,,,,,,,,,,,,,,,,,,,,,,,,,,,,,,,,,,,,,,,,,,,,,,,,,,,,,,,,
365585,001,2022-11-20_17h46.56.628,Info_measure_main_exp,2022.2.2,Win32,74.77753683,,,,,,,,,,,,,,,,,,masks/mask_004.jpg,0,3,3,3,1,,,,,,,,,,,,,,,,,,,,,,,,,,,,,,,,,,,,,,,,,,,,,,,,,,,,,,,,,,,,,,,,,,,,,,,,,,,,,,,,,,,,,,,,
365585,001,2022-11-20_17h46.56.628,Info_measure_main_exp,2022.2.2,Win32,74.77753683,,,,,,,,,,,,,,,,,,masks/mask_005.jpg,0,4,4,4,1,,,,,,,,,,,,,,,,,,,,,,,,,,,,,,,,,,,,,,,,,,,,,,,,,,,,,,,,,,,,,,,,,,,,,,,,,,,,,,,,,,,,,,,,
365585,001,2022-11-20_17h46.56.628,Info_measure_main_exp,2022.2.2,Win32,74.77753683,,,,,,,,,,,,,,,,,,,,,,,,-0.065740741,0.032407407,1,0,0,response7disk,1,145.0481,1,-0.001851852,-0.005555556,1,0,0,center_square,0,1,1,2,1,0,131,5,5,2526,2526,prac_patch/patch0002526.jpg,prac_patch/patch0002526.jpg,,,,,,,,,,,,,,,,,,,,,,,,,,,,,,,,,,,,,,,,,,,,,,,,,,,,,,,,,,,,
365585,001,2022-11-20_17h46.56.628,Info_measure_main_exp,2022.2.2,Win32,74.77753683,,,,,,,,,,,,,0,0,0,1,1,masks/mask_002.jpg,,,,,,,,,,,,,,,,,,,,,,,,,,,,,,,,,,,,,,,,,,,,,,,,,,,,,,,,,,,,,,,,,,,,,,,,,,,,,,,,,,,,,,,,,,,,,
365585,001,2022-11-20_17h46.56.628,Info_measure_main_exp,2022.2.2,Win32,74.77753683,,,,,,,,,,,,,0,1,1,0,1,masks/mask_001.jpg,,,,,,,,,,,,,,,,,,,,,,,,,,,,,,,,,,,,,,,,,,,,,,,,,,,,,,,,,,,,,,,,,,,,,,,,,,,,,,,,,,,,,,,,,,,,,
365585,001,2022-11-20_17h46.56.628,Info_measure_main_exp,2022.2.2,Win32,74.77753683,,,,,,,,,,,,,0,2,2,2,1,masks/mask_003.jpg,,,,,,,,,,,,,,,,,,,,,,,,,,,,,,,,,,,,,,,,,,,,,,,,,,,,,,,,,,,,,,,,,,,,,,,,,,,,,,,,,,,,,,,,,,,,,
365585,001,2022-11-20_17h46.56.628,Info_measure_main_exp,2022.2.2,Win32,74.77753683,,,,,,,,,,,,,0,3,3,4,1,masks/mask_005.jpg,,,,,,,,,,,,,,,,,,,,,,,,,,,,,,,,,,,,,,,,,,,,,,,,,,,,,,,,,,,,,,,,,,,,,,,,,,,,,,,,,,,,,,,,,,,,,
365585,001,2022-11-20_17h46.56.628,Info_measure_main_exp,2022.2.2,Win32,74.77753683,,,,,,,,,,,,,0,4,4,3,1,masks/mask_004.jpg,,,,,,,,,,,,,,,,,,,,,,,,,,,,,,,,,,,,,,,,,,,,,,,,,,,,,,,,,,,,,,,,,,,,,,,,,,,,,,,,,,,,,,,,,,,,,
365585,001,2022-11-20_17h46.56.628,Info_measure_main_exp,2022.2.2,Win32,74.77753683,,,,,,,,,,,,,,,,,,masks/mask_005.jpg,0,0,0,4,1,,,,,,,,,,,,,,,,,,,,,,,,,,,,,,,,,,,,,,,,,,,,,,,,,,,,,,,,,,,,,,,,,,,,,,,,,,,,,,,,,,,,,,,,
365585,001,2022-11-20_17h46.56.628,Info_measure_main_exp,2022.2.2,Win32,74.77753683,,,,,,,,,,,,,,,,,,masks/mask_004.jpg,0,1,1,3,1,,,,,,,,,,,,,,,,,,,,,,,,,,,,,,,,,,,,,,,,,,,,,,,,,,,,,,,,,,,,,,,,,,,,,,,,,,,,,,,,,,,,,,,,
365585,001,2022-11-20_17h46.56.628,Info_measure_main_exp,2022.2.2,Win32,74.77753683,,,,,,,,,,,,,,,,,,masks/mask_001.jpg,0,2,2,0,1,,,,,,,,,,,,,,,,,,,,,,,,,,,,,,,,,,,,,,,,,,,,,,,,,,,,,,,,,,,,,,,,,,,,,,,,,,,,,,,,,,,,,,,,
365585,001,2022-11-20_17h46.56.628,Info_measure_main_exp,2022.2.2,Win32,74.77753683,,,,,,,,,,,,,,,,,,masks/mask_003.jpg,0,3,3,2,1,,,,,,,,,,,,,,,,,,,,,,,,,,,,,,,,,,,,,,,,,,,,,,,,,,,,,,,,,,,,,,,,,,,,,,,,,,,,,,,,,,,,,,,,
365585,001,2022-11-20_17h46.56.628,Info_measure_main_exp,2022.2.2,Win32,74.77753683,,,,,,,,,,,,,,,,,,masks/mask_002.jpg,0,4,4,1,1,,,,,,,,,,,,,,,,,,,,,,,,,,,,,,,,,,,,,,,,,,,,,,,,,,,,,,,,,,,,,,,,,,,,,,,,,,,,,,,,,,,,,,,,
365585,001,2022-11-20_17h46.56.628,Info_measure_main_exp,2022.2.2,Win32,74.77753683,,,,,,,,,,,,,,,,,,,,,,,,0.096296296,-0.023148148,1,0,0,response3disk,5,156.8483,1,-0.001851852,0,1,0,0,center_square,0,2,2,1,1,0,131,5,5,2514,2490,prac_patch/patch0002514.jpg,prac_patch/patch0002490.jpg,,,,,,,,,,,,,,,,,,,,,,,,,,,,,,,,,,,,,,,,,,,,,,,,,,,,,,,,,,,,
365585,001,2022-11-20_17h46.56.628,Info_measure_main_exp,2022.2.2,Win32,74.77753683,,,,,,,,,,,,,,,,,,,,,,,,,,,,,,,,,,,,,,,,,,,,,,,,,,,,,,,,,,,space,2.9454,,,,,,,,,,,,,,,,,,,,,,,,,,,,,,,,,,,,,,,,,,,,,,,,,,,
365585,001,2022-11-20_17h46.56.628,Info_measure_main_exp,2022.2.2,Win32,74.77753683,,,,,,,,,,,,,,,,,,masks/mask_003.jpg,,,,,,,,,,,,,,,,,,,,,,,,,,,,,,,,,,,,,,,,,,,0,0,0,2,1,,,,,,,,,,,,,,,,,,,,,,,,,,,,,,,,,,,,,,,,,,,,,,
365585,001,2022-11-20_17h46.56.628,Info_measure_main_exp,2022.2.2,Win32,74.77753683,,,,,,,,,,,,,,,,,,masks/mask_001.jpg,,,,,,,,,,,,,,,,,,,,,,,,,,,,,,,,,,,,,,,,,,,0,1,1,0,1,,,,,,,,,,,,,,,,,,,,,,,,,,,,,,,,,,,,,,,,,,,,,,
365585,001,2022-11-20_17h46.56.628,Info_measure_main_exp,2022.2.2,Win32,74.77753683,,,,,,,,,,,,,,,,,,masks/mask_002.jpg,,,,,,,,,,,,,,,,,,,,,,,,,,,,,,,,,,,,,,,,,,,0,2,2,1,1,,,,,,,,,,,,,,,,,,,,,,,,,,,,,,,,,,,,,,,,,,,,,,
365585,001,2022-11-20_17h46.56.628,Info_measure_main_exp,2022.2.2,Win32,74.77753683,,,,,,,,,,,,,,,,,,masks/mask_004.jpg,,,,,,,,,,,,,,,,,,,,,,,,,,,,,,,,,,,,,,,,,,,0,3,3,3,1,,,,,,,,,,,,,,,,,,,,,,,,,,,,,,,,,,,,,,,,,,,,,,
365585,001,2022-11-20_17h46.56.628,Info_measure_main_exp,2022.2.2,Win32,74.77753683,,,,,,,,,,,,,,,,,,masks/mask_005.jpg,,,,,,,,,,,,,,,,,,,,,,,,,,,,,,,,,,,,,,,,,,,0,4,4,4,1,,,,,,,,,,,,,,,,,,,,,,,,,,,,,,,,,,,,,,,,,,,,,,
365585,001,2022-11-20_17h46.56.628,Info_measure_main_exp,2022.2.2,Win32,74.77753683,,,,,,,,,,,,,,,,,,masks/mask_001.jpg,,,,,,,,,,,,,,,,,,,,,,,,,,,,,,,,,,,,,,,,,,,,,,,,0,0,0,0,1,,,,,,,,,,,,,,,,,,,,,,,,,,,,,,,,,,,,,,,,,
365585,001,2022-11-20_17h46.56.628,Info_measure_main_exp,2022.2.2,Win32,74.77753683,,,,,,,,,,,,,,,,,,masks/mask_004.jpg,,,,,,,,,,,,,,,,,,,,,,,,,,,,,,,,,,,,,,,,,,,,,,,,0,1,1,3,1,,,,,,,,,,,,,,,,,,,,,,,,,,,,,,,,,,,,,,,,,
365585,001,2022-11-20_17h46.56.628,Info_measure_main_exp,2022.2.2,Win32,74.77753683,,,,,,,,,,,,,,,,,,masks/mask_005.jpg,,,,,,,,,,,,,,,,,,,,,,,,,,,,,,,,,,,,,,,,,,,,,,,,0,2,2,4,1,,,,,,,,,,,,,,,,,,,,,,,,,,,,,,,,,,,,,,,,,
365585,001,2022-11-20_17h46.56.628,Info_measure_main_exp,2022.2.2,Win32,74.77753683,,,,,,,,,,,,,,,,,,masks/mask_003.jpg,,,,,,,,,,,,,,,,,,,,,,,,,,,,,,,,,,,,,,,,,,,,,,,,0,3,3,2,1,,,,,,,,,,,,,,,,,,,,,,,,,,,,,,,,,,,,,,,,,
365585,001,2022-11-20_17h46.56.628,Info_measure_main_exp,2022.2.2,Win32,74.77753683,,,,,,,,,,,,,,,,,,masks/mask_002.jpg,,,,,,,,,,,,,,,,,,,,,,,,,,,,,,,,,,,,,,,,,,,,,,,,0,4,4,1,1,,,,,,,,,,,,,,,,,,,,,,,,,,,,,,,,,,,,,,,,,
365585,001,2022-11-20_17h46.56.628,Info_measure_main_exp,2022.2.2,Win32,74.77753683,,,,,,,,,,,,,,,,,,,,,,,,,,,,,,3,3.3671,1,,,,,,,,,,,,0,131,5,5,2250,1950,absent_patch/patch0002250.jpg,absent_patch/patch0001950.jpg,,,,,,,,,,,,,,,,,,,,-0.009259259,-0.073148148,1,0,0,response5disk,1,-0.000925926,0,1,0,0,center_square,0,0,0,16,1,,,,,,,,,,,,,,,,,,,,,,,
365585,001,2022-11-20_17h46.56.628,Info_measure_main_exp,2022.2.2,Win32,74.77753683,,,,,,,,,,,,,,,,,,masks/mask_005.jpg,,,,,,,,,,,,,,,,,,,,,,,,,,,,,,,,,,,,,,,,,,,0,0,0,4,1,,,,,,,,,,,,,,,,,,,,,,,,,,,,,,,,,,,,,,,,,,,,,,
365585,001,2022-11-20_17h46.56.628,Info_measure_main_exp,2022.2.2,Win32,74.77753683,,,,,,,,,,,,,,,,,,masks/mask_001.jpg,,,,,,,,,,,,,,,,,,,,,,,,,,,,,,,,,,,,,,,,,,,0,1,1,0,1,,,,,,,,,,,,,,,,,,,,,,,,,,,,,,,,,,,,,,,,,,,,,,
365585,001,2022-11-20_17h46.56.628,Info_measure_main_exp,2022.2.2,Win32,74.77753683,,,,,,,,,,,,,,,,,,masks/mask_004.jpg,,,,,,,,,,,,,,,,,,,,,,,,,,,,,,,,,,,,,,,,,,,0,2,2,3,1,,,,,,,,,,,,,,,,,,,,,,,,,,,,,,,,,,,,,,,,,,,,,,
365585,001,2022-11-20_17h46.56.628,Info_measure_main_exp,2022.2.2,Win32,74.77753683,,,,,,,,,,,,,,,,,,masks/mask_002.jpg,,,,,,,,,,,,,,,,,,,,,,,,,,,,,,,,,,,,,,,,,,,0,3,3,1,1,,,,,,,,,,,,,,,,,,,,,,,,,,,,,,,,,,,,,,,,,,,,,,
365585,001,2022-11-20_17h46.56.628,Info_measure_main_exp,2022.2.2,Win32,74.77753683,,,,,,,,,,,,,,,,,,masks/mask_003.jpg,,,,,,,,,,,,,,,,,,,,,,,,,,,,,,,,,,,,,,,,,,,0,4,4,2,1,,,,,,,,,,,,,,,,,,,,,,,,,,,,,,,,,,,,,,,,,,,,,,
365585,001,2022-11-20_17h46.56.628,Info_measure_main_exp,2022.2.2,Win32,74.77753683,,,,,,,,,,,,,,,,,,masks/mask_003.jpg,,,,,,,,,,,,,,,,,,,,,,,,,,,,,,,,,,,,,,,,,,,,,,,,0,0,0,2,1,,,,,,,,,,,,,,,,,,,,,,,,,,,,,,,,,,,,,,,,,
365585,001,2022-11-20_17h46.56.628,Info_measure_main_exp,2022.2.2,Win32,74.77753683,,,,,,,,,,,,,,,,,,masks/mask_002.jpg,,,,,,,,,,,,,,,,,,,,,,,,,,,,,,,,,,,,,,,,,,,,,,,,0,1,1,1,1,,,,,,,,,,,,,,,,,,,,,,,,,,,,,,,,,,,,,,,,,
365585,001,2022-11-20_17h46.56.628,Info_measure_main_exp,2022.2.2,Win32,74.77753683,,,,,,,,,,,,,,,,,,masks/mask_001.jpg,,,,,,,,,,,,,,,,,,,,,,,,,,,,,,,,,,,,,,,,,,,,,,,,0,2,2,0,1,,,,,,,,,,,,,,,,,,,,,,,,,,,,,,,,,,,,,,,,,
365585,001,2022-11-20_17h46.56.628,Info_measure_main_exp,2022.2.2,Win32,74.77753683,,,,,,,,,,,,,,,,,,masks/mask_004.jpg,,,,,,,,,,,,,,,,,,,,,,,,,,,,,,,,,,,,,,,,,,,,,,,,0,3,3,3,1,,,,,,,,,,,,,,,,,,,,,,,,,,,,,,,,,,,,,,,,,
365585,001,2022-11-20_17h46.56.628,Info_measure_main_exp,2022.2.2,Win32,74.77753683,,,,,,,,,,,,,,,,,,masks/mask_005.jpg,,,,,,,,,,,,,,,,,,,,,,,,,,,,,,,,,,,,,,,,,,,,,,,,0,4,4,4,1,,,,,,,,,,,,,,,,,,,,,,,,,,,,,,,,,,,,,,,,,
365585,001,2022-11-20_17h46.56.628,Info_measure_main_exp,2022.2.2,Win32,74.77753683,,,,,,,,,,,,,,,,,,,,,,,,,,,,,,6,1.1169,1,,,,,,,,,,,,0,131,5,5,1974,2250,absent_patch/patch0001974.jpg,absent_patch/patch0002250.jpg,,,,,,,,,,,,,,,,,,,,0.061111111,0.030555556,1,0,0,response1disk,2,0.001851852,0.007407407,1,0,0,center_square,0,1,1,55,1,,,,,,,,,,,,,,,,,,,,,,,
365585,001,2022-11-20_17h46.56.628,Info_measure_main_exp,2022.2.2,Win32,74.77753683,,,,,,,,,,,,,,,,,,masks/mask_003.jpg,,,,,,,,,,,,,,,,,,,,,,,,,,,,,,,,,,,,,,,,,,,0,0,0,2,1,,,,,,,,,,,,,,,,,,,,,,,,,,,,,,,,,,,,,,,,,,,,,,
365585,001,2022-11-20_17h46.56.628,Info_measure_main_exp,2022.2.2,Win32,74.77753683,,,,,,,,,,,,,,,,,,masks/mask_002.jpg,,,,,,,,,,,,,,,,,,,,,,,,,,,,,,,,,,,,,,,,,,,0,1,1,1,1,,,,,,,,,,,,,,,,,,,,,,,,,,,,,,,,,,,,,,,,,,,,,,
365585,001,2022-11-20_17h46.56.628,Info_measure_main_exp,2022.2.2,Win32,74.77753683,,,,,,,,,,,,,,,,,,masks/mask_004.jpg,,,,,,,,,,,,,,,,,,,,,,,,,,,,,,,,,,,,,,,,,,,0,2,2,3,1,,,,,,,,,,,,,,,,,,,,,,,,,,,,,,,,,,,,,,,,,,,,,,
365585,001,2022-11-20_17h46.56.628,Info_measure_main_exp,2022.2.2,Win32,74.77753683,,,,,,,,,,,,,,,,,,masks/mask_005.jpg,,,,,,,,,,,,,,,,,,,,,,,,,,,,,,,,,,,,,,,,,,,0,3,3,4,1,,,,,,,,,,,,,,,,,,,,,,,,,,,,,,,,,,,,,,,,,,,,,,
365585,001,2022-11-20_17h46.56.628,Info_measure_main_exp,2022.2.2,Win32,74.77753683,,,,,,,,,,,,,,,,,,masks/mask_001.jpg,,,,,,,,,,,,,,,,,,,,,,,,,,,,,,,,,,,,,,,,,,,0,4,4,0,1,,,,,,,,,,,,,,,,,,,,,,,,,,,,,,,,,,,,,,,,,,,,,,
365585,001,2022-11-20_17h46.56.628,Info_measure_main_exp,2022.2.2,Win32,74.77753683,,,,,,,,,,,,,,,,,,masks/mask_005.jpg,,,,,,,,,,,,,,,,,,,,,,,,,,,,,,,,,,,,,,,,,,,,,,,,0,0,0,4,1,,,,,,,,,,,,,,,,,,,,,,,,,,,,,,,,,,,,,,,,,
365585,001,2022-11-20_17h46.56.628,Info_measure_main_exp,2022.2.2,Win32,74.77753683,,,,,,,,,,,,,,,,,,masks/mask_001.jpg,,,,,,,,,,,,,,,,,,,,,,,,,,,,,,,,,,,,,,,,,,,,,,,,0,1,1,0,1,,,,,,,,,,,,,,,,,,,,,,,,,,,,,,,,,,,,,,,,,
365585,001,2022-11-20_17h46.56.628,Info_measure_main_exp,2022.2.2,Win32,74.77753683,,,,,,,,,,,,,,,,,,masks/mask_002.jpg,,,,,,,,,,,,,,,,,,,,,,,,,,,,,,,,,,,,,,,,,,,,,,,,0,2,2,1,1,,,,,,,,,,,,,,,,,,,,,,,,,,,,,,,,,,,,,,,,,
365585,001,2022-11-20_17h46.56.628,Info_measure_main_exp,2022.2.2,Win32,74.77753683,,,,,,,,,,,,,,,,,,masks/mask_004.jpg,,,,,,,,,,,,,,,,,,,,,,,,,,,,,,,,,,,,,,,,,,,,,,,,0,3,3,3,1,,,,,,,,,,,,,,,,,,,,,,,,,,,,,,,,,,,,,,,,,
365585,001,2022-11-20_17h46.56.628,Info_measure_main_exp,2022.2.2,Win32,74.77753683,,,,,,,,,,,,,,,,,,masks/mask_003.jpg,,,,,,,,,,,,,,,,,,,,,,,,,,,,,,,,,,,,,,,,,,,,,,,,0,4,4,2,1,,,,,,,,,,,,,,,,,,,,,,,,,,,,,,,,,,,,,,,,,
365585,001,2022-11-20_17h46.56.628,Info_measure_main_exp,2022.2.2,Win32,74.77753683,,,,,,,,,,,,,,,,,,,,,,,,,,,,,,0,0.9666,1,,,,,,,,,,,,0,131,5,5,1986,1986,absent_patch/patch0001986.jpg,absent_patch/patch0001986.jpg,,,,,,,,,,,,,,,,,,,,-0.030555556,0.075925926,1,0,0,response7disk,3,-0.000925926,-0.000925926,1,0,0,center_square,0,2,2,19,1,,,,,,,,,,,,,,,,,,,,,,,
365585,001,2022-11-20_17h46.56.628,Info_measure_main_exp,2022.2.2,Win32,74.77753683,,,,,,,,,,,,,,,,,,masks/mask_005.jpg,,,,,,,,,,,,,,,,,,,,,,,,,,,,,,,,,,,,,,,,,,,0,0,0,4,1,,,,,,,,,,,,,,,,,,,,,,,,,,,,,,,,,,,,,,,,,,,,,,
365585,001,2022-11-20_17h46.56.628,Info_measure_main_exp,2022.2.2,Win32,74.77753683,,,,,,,,,,,,,,,,,,masks/mask_004.jpg,,,,,,,,,,,,,,,,,,,,,,,,,,,,,,,,,,,,,,,,,,,0,1,1,3,1,,,,,,,,,,,,,,,,,,,,,,,,,,,,,,,,,,,,,,,,,,,,,,
365585,001,2022-11-20_17h46.56.628,Info_measure_main_exp,2022.2.2,Win32,74.77753683,,,,,,,,,,,,,,,,,,masks/mask_002.jpg,,,,,,,,,,,,,,,,,,,,,,,,,,,,,,,,,,,,,,,,,,,0,2,2,1,1,,,,,,,,,,,,,,,,,,,,,,,,,,,,,,,,,,,,,,,,,,,,,,
365585,001,2022-11-20_17h46.56.628,Info_measure_main_exp,2022.2.2,Win32,74.77753683,,,,,,,,,,,,,,,,,,masks/mask_003.jpg,,,,,,,,,,,,,,,,,,,,,,,,,,,,,,,,,,,,,,,,,,,0,3,3,2,1,,,,,,,,,,,,,,,,,,,,,,,,,,,,,,,,,,,,,,,,,,,,,,
365585,001,2022-11-20_17h46.56.628,Info_measure_main_exp,2022.2.2,Win32,74.77753683,,,,,,,,,,,,,,,,,,masks/mask_001.jpg,,,,,,,,,,,,,,,,,,,,,,,,,,,,,,,,,,,,,,,,,,,0,4,4,0,1,,,,,,,,,,,,,,,,,,,,,,,,,,,,,,,,,,,,,,,,,,,,,,
365585,001,2022-11-20_17h46.56.628,Info_measure_main_exp,2022.2.2,Win32,74.77753683,,,,,,,,,,,,,,,,,,masks/mask_004.jpg,,,,,,,,,,,,,,,,,,,,,,,,,,,,,,,,,,,,,,,,,,,,,,,,0,0,0,3,1,,,,,,,,,,,,,,,,,,,,,,,,,,,,,,,,,,,,,,,,,
365585,001,2022-11-20_17h46.56.628,Info_measure_main_exp,2022.2.2,Win32,74.77753683,,,,,,,,,,,,,,,,,,masks/mask_005.jpg,,,,,,,,,,,,,,,,,,,,,,,,,,,,,,,,,,,,,,,,,,,,,,,,0,1,1,4,1,,,,,,,,,,,,,,,,,,,,,,,,,,,,,,,,,,,,,,,,,
365585,001,2022-11-20_17h46.56.628,Info_measure_main_exp,2022.2.2,Win32,74.77753683,,,,,,,,,,,,,,,,,,masks/mask_003.jpg,,,,,,,,,,,,,,,,,,,,,,,,,,,,,,,,,,,,,,,,,,,,,,,,0,2,2,2,1,,,,,,,,,,,,,,,,,,,,,,,,,,,,,,,,,,,,,,,,,
365585,001,2022-11-20_17h46.56.628,Info_measure_main_exp,2022.2.2,Win32,74.77753683,,,,,,,,,,,,,,,,,,masks/mask_002.jpg,,,,,,,,,,,,,,,,,,,,,,,,,,,,,,,,,,,,,,,,,,,,,,,,0,3,3,1,1,,,,,,,,,,,,,,,,,,,,,,,,,,,,,,,,,,,,,,,,,
365585,001,2022-11-20_17h46.56.628,Info_measure_main_exp,2022.2.2,Win32,74.77753683,,,,,,,,,,,,,,,,,,masks/mask_001.jpg,,,,,,,,,,,,,,,,,,,,,,,,,,,,,,,,,,,,,,,,,,,,,,,,0,4,4,0,1,,,,,,,,,,,,,,,,,,,,,,,,,,,,,,,,,,,,,,,,,
365585,001,2022-11-20_17h46.56.628,Info_measure_main_exp,2022.2.2,Win32,74.77753683,,,,,,,,,,,,,,,,,,,,,,,,,,,,,,1,1.6502,1,,,,,,,,,,,,1,131,5,5,1,1986,present_patch/cong_131_5_a.jpg,absent_patch/patch0001986.jpg,,,,,,,,,,,,,,,,,,,,-0.076851852,0.017592593,1,0,0,response7disk,4,-0.009259259,0.00462963,1,0,0,center_square,0,3,3,106,1,,,,,,,,,,,,,,,,,,,,,,,
365585,001,2022-11-20_17h46.56.628,Info_measure_main_exp,2022.2.2,Win32,74.77753683,,,,,,,,,,,,,,,,,,masks/mask_004.jpg,,,,,,,,,,,,,,,,,,,,,,,,,,,,,,,,,,,,,,,,,,,0,0,0,3,1,,,,,,,,,,,,,,,,,,,,,,,,,,,,,,,,,,,,,,,,,,,,,,
365585,001,2022-11-20_17h46.56.628,Info_measure_main_exp,2022.2.2,Win32,74.77753683,,,,,,,,,,,,,,,,,,masks/mask_001.jpg,,,,,,,,,,,,,,,,,,,,,,,,,,,,,,,,,,,,,,,,,,,0,1,1,0,1,,,,,,,,,,,,,,,,,,,,,,,,,,,,,,,,,,,,,,,,,,,,,,
365585,001,2022-11-20_17h46.56.628,Info_measure_main_exp,2022.2.2,Win32,74.77753683,,,,,,,,,,,,,,,,,,masks/mask_003.jpg,,,,,,,,,,,,,,,,,,,,,,,,,,,,,,,,,,,,,,,,,,,0,2,2,2,1,,,,,,,,,,,,,,,,,,,,,,,,,,,,,,,,,,,,,,,,,,,,,,
365585,001,2022-11-20_17h46.56.628,Info_measure_main_exp,2022.2.2,Win32,74.77753683,,,,,,,,,,,,,,,,,,masks/mask_002.jpg,,,,,,,,,,,,,,,,,,,,,,,,,,,,,,,,,,,,,,,,,,,0,3,3,1,1,,,,,,,,,,,,,,,,,,,,,,,,,,,,,,,,,,,,,,,,,,,,,,
365585,001,2022-11-20_17h46.56.628,Info_measure_main_exp,2022.2.2,Win32,74.77753683,,,,,,,,,,,,,,,,,,masks/mask_005.jpg,,,,,,,,,,,,,,,,,,,,,,,,,,,,,,,,,,,,,,,,,,,0,4,4,4,1,,,,,,,,,,,,,,,,,,,,,,,,,,,,,,,,,,,,,,,,,,,,,,
365585,001,2022-11-20_17h46.56.628,Info_measure_main_exp,2022.2.2,Win32,74.77753683,,,,,,,,,,,,,,,,,,masks/mask_005.jpg,,,,,,,,,,,,,,,,,,,,,,,,,,,,,,,,,,,,,,,,,,,,,,,,0,0,0,4,1,,,,,,,,,,,,,,,,,,,,,,,,,,,,,,,,,,,,,,,,,
365585,001,2022-11-20_17h46.56.628,Info_measure_main_exp,2022.2.2,Win32,74.77753683,,,,,,,,,,,,,,,,,,masks/mask_003.jpg,,,,,,,,,,,,,,,,,,,,,,,,,,,,,,,,,,,,,,,,,,,,,,,,0,1,1,2,1,,,,,,,,,,,,,,,,,,,,,,,,,,,,,,,,,,,,,,,,,
365585,001,2022-11-20_17h46.56.628,Info_measure_main_exp,2022.2.2,Win32,74.77753683,,,,,,,,,,,,,,,,,,masks/mask_002.jpg,,,,,,,,,,,,,,,,,,,,,,,,,,,,,,,,,,,,,,,,,,,,,,,,0,2,2,1,1,,,,,,,,,,,,,,,,,,,,,,,,,,,,,,,,,,,,,,,,,
365585,001,2022-11-20_17h46.56.628,Info_measure_main_exp,2022.2.2,Win32,74.77753683,,,,,,,,,,,,,,,,,,masks/mask_001.jpg,,,,,,,,,,,,,,,,,,,,,,,,,,,,,,,,,,,,,,,,,,,,,,,,0,3,3,0,1,,,,,,,,,,,,,,,,,,,,,,,,,,,,,,,,,,,,,,,,,
365585,001,2022-11-20_17h46.56.628,Info_measure_main_exp,2022.2.2,Win32,74.77753683,,,,,,,,,,,,,,,,,,masks/mask_004.jpg,,,,,,,,,,,,,,,,,,,,,,,,,,,,,,,,,,,,,,,,,,,,,,,,0,4,4,3,1,,,,,,,,,,,,,,,,,,,,,,,,,,,,,,,,,,,,,,,,,
365585,001,2022-11-20_17h46.56.628,Info_measure_main_exp,2022.2.2,Win32,74.77753683,,,,,,,,,,,,,,,,,,,,,,,,,,,,,,4,2.4168,1,,,,,,,,,,,,0,131,5,5,2250,2238,absent_patch/patch0002250.jpg,absent_patch/patch0002238.jpg,,,,,,,,,,,,,,,,,,,,0.030555556,-0.114814815,1,0,0,response3disk,5,-0.003703704,-0.003703704,1,0,0,center_square,0,4,4,110,1,,,,,,,,,,,,,,,,,,,,,,,
365585,001,2022-11-20_17h46.56.628,Info_measure_main_exp,2022.2.2,Win32,74.77753683,,,,,,,,,,,,,,,,,,masks/mask_001.jpg,,,,,,,,,,,,,,,,,,,,,,,,,,,,,,,,,,,,,,,,,,,0,0,0,0,1,,,,,,,,,,,,,,,,,,,,,,,,,,,,,,,,,,,,,,,,,,,,,,
365585,001,2022-11-20_17h46.56.628,Info_measure_main_exp,2022.2.2,Win32,74.77753683,,,,,,,,,,,,,,,,,,masks/mask_003.jpg,,,,,,,,,,,,,,,,,,,,,,,,,,,,,,,,,,,,,,,,,,,0,1,1,2,1,,,,,,,,,,,,,,,,,,,,,,,,,,,,,,,,,,,,,,,,,,,,,,
365585,001,2022-11-20_17h46.56.628,Info_measure_main_exp,2022.2.2,Win32,74.77753683,,,,,,,,,,,,,,,,,,masks/mask_005.jpg,,,,,,,,,,,,,,,,,,,,,,,,,,,,,,,,,,,,,,,,,,,0,2,2,4,1,,,,,,,,,,,,,,,,,,,,,,,,,,,,,,,,,,,,,,,,,,,,,,
365585,001,2022-11-20_17h46.56.628,Info_measure_main_exp,2022.2.2,Win32,74.77753683,,,,,,,,,,,,,,,,,,masks/mask_004.jpg,,,,,,,,,,,,,,,,,,,,,,,,,,,,,,,,,,,,,,,,,,,0,3,3,3,1,,,,,,,,,,,,,,,,,,,,,,,,,,,,,,,,,,,,,,,,,,,,,,
365585,001,2022-11-20_17h46.56.628,Info_measure_main_exp,2022.2.2,Win32,74.77753683,,,,,,,,,,,,,,,,,,masks/mask_002.jpg,,,,,,,,,,,,,,,,,,,,,,,,,,,,,,,,,,,,,,,,,,,0,4,4,1,1,,,,,,,,,,,,,,,,,,,,,,,,,,,,,,,,,,,,,,,,,,,,,,
365585,001,2022-11-20_17h46.56.628,Info_measure_main_exp,2022.2.2,Win32,74.77753683,,,,,,,,,,,,,,,,,,masks/mask_002.jpg,,,,,,,,,,,,,,,,,,,,,,,,,,,,,,,,,,,,,,,,,,,,,,,,0,0,0,1,1,,,,,,,,,,,,,,,,,,,,,,,,,,,,,,,,,,,,,,,,,
365585,001,2022-11-20_17h46.56.628,Info_measure_main_exp,2022.2.2,Win32,74.77753683,,,,,,,,,,,,,,,,,,masks/mask_005.jpg,,,,,,,,,,,,,,,,,,,,,,,,,,,,,,,,,,,,,,,,,,,,,,,,0,1,1,4,1,,,,,,,,,,,,,,,,,,,,,,,,,,,,,,,,,,,,,,,,,
365585,001,2022-11-20_17h46.56.628,Info_measure_main_exp,2022.2.2,Win32,74.77753683,,,,,,,,,,,,,,,,,,masks/mask_004.jpg,,,,,,,,,,,,,,,,,,,,,,,,,,,,,,,,,,,,,,,,,,,,,,,,0,2,2,3,1,,,,,,,,,,,,,,,,,,,,,,,,,,,,,,,,,,,,,,,,,
365585,001,2022-11-20_17h46.56.628,Info_measure_main_exp,2022.2.2,Win32,74.77753683,,,,,,,,,,,,,,,,,,masks/mask_003.jpg,,,,,,,,,,,,,,,,,,,,,,,,,,,,,,,,,,,,,,,,,,,,,,,,0,3,3,2,1,,,,,,,,,,,,,,,,,,,,,,,,,,,,,,,,,,,,,,,,,
365585,001,2022-11-20_17h46.56.628,Info_measure_main_exp,2022.2.2,Win32,74.77753683,,,,,,,,,,,,,,,,,,masks/mask_001.jpg,,,,,,,,,,,,,,,,,,,,,,,,,,,,,,,,,,,,,,,,,,,,,,,,0,4,4,0,1,,,,,,,,,,,,,,,,,,,,,,,,,,,,,,,,,,,,,,,,,
365585,001,2022-11-20_17h46.56.628,Info_measure_main_exp,2022.2.2,Win32,74.77753683,,,,,,,,,,,,,,,,,,,,,,,,,,,,,,7,0.6001,1,,,,,,,,,,,,1,131,5,5,2190,1,absent_patch/patch0002190.jpg,present_patch/cong_131_5_a.jpg,,,,,,,,,,,,,,,,,,,,0.034259259,0.085185185,1,0,0,response1disk,6,0.006481481,0.005555556,1,0,0,center_square,0,5,5,64,1,,,,,,,,,,,,,,,,,,,,,,,
365585,001,2022-11-20_17h46.56.628,Info_measure_main_exp,2022.2.2,Win32,74.77753683,,,,,,,,,,,,,,,,,,masks/mask_002.jpg,,,,,,,,,,,,,,,,,,,,,,,,,,,,,,,,,,,,,,,,,,,0,0,0,1,1,,,,,,,,,,,,,,,,,,,,,,,,,,,,,,,,,,,,,,,,,,,,,,
365585,001,2022-11-20_17h46.56.628,Info_measure_main_exp,2022.2.2,Win32,74.77753683,,,,,,,,,,,,,,,,,,masks/mask_005.jpg,,,,,,,,,,,,,,,,,,,,,,,,,,,,,,,,,,,,,,,,,,,0,1,1,4,1,,,,,,,,,,,,,,,,,,,,,,,,,,,,,,,,,,,,,,,,,,,,,,
365585,001,2022-11-20_17h46.56.628,Info_measure_main_exp,2022.2.2,Win32,74.77753683,,,,,,,,,,,,,,,,,,masks/mask_003.jpg,,,,,,,,,,,,,,,,,,,,,,,,,,,,,,,,,,,,,,,,,,,0,2,2,2,1,,,,,,,,,,,,,,,,,,,,,,,,,,,,,,,,,,,,,,,,,,,,,,
365585,001,2022-11-20_17h46.56.628,Info_measure_main_exp,2022.2.2,Win32,74.77753683,,,,,,,,,,,,,,,,,,masks/mask_001.jpg,,,,,,,,,,,,,,,,,,,,,,,,,,,,,,,,,,,,,,,,,,,0,3,3,0,1,,,,,,,,,,,,,,,,,,,,,,,,,,,,,,,,,,,,,,,,,,,,,,
365585,001,2022-11-20_17h46.56.628,Info_measure_main_exp,2022.2.2,Win32,74.77753683,,,,,,,,,,,,,,,,,,masks/mask_004.jpg,,,,,,,,,,,,,,,,,,,,,,,,,,,,,,,,,,,,,,,,,,,0,4,4,3,1,,,,,,,,,,,,,,,,,,,,,,,,,,,,,,,,,,,,,,,,,,,,,,
365585,001,2022-11-20_17h46.56.628,Info_measure_main_exp,2022.2.2,Win32,74.77753683,,,,,,,,,,,,,,,,,,masks/mask_005.jpg,,,,,,,,,,,,,,,,,,,,,,,,,,,,,,,,,,,,,,,,,,,,,,,,0,0,0,4,1,,,,,,,,,,,,,,,,,,,,,,,,,,,,,,,,,,,,,,,,,
365585,001,2022-11-20_17h46.56.628,Info_measure_main_exp,2022.2.2,Win32,74.77753683,,,,,,,,,,,,,,,,,,masks/mask_001.jpg,,,,,,,,,,,,,,,,,,,,,,,,,,,,,,,,,,,,,,,,,,,,,,,,0,1,1,0,1,,,,,,,,,,,,,,,,,,,,,,,,,,,,,,,,,,,,,,,,,
365585,001,2022-11-20_17h46.56.628,Info_measure_main_exp,2022.2.2,Win32,74.77753683,,,,,,,,,,,,,,,,,,masks/mask_002.jpg,,,,,,,,,,,,,,,,,,,,,,,,,,,,,,,,,,,,,,,,,,,,,,,,0,2,2,1,1,,,,,,,,,,,,,,,,,,,,,,,,,,,,,,,,,,,,,,,,,
365585,001,2022-11-20_17h46.56.628,Info_measure_main_exp,2022.2.2,Win32,74.77753683,,,,,,,,,,,,,,,,,,masks/mask_003.jpg,,,,,,,,,,,,,,,,,,,,,,,,,,,,,,,,,,,,,,,,,,,,,,,,0,3,3,2,1,,,,,,,,,,,,,,,,,,,,,,,,,,,,,,,,,,,,,,,,,
365585,001,2022-11-20_17h46.56.628,Info_measure_main_exp,2022.2.2,Win32,74.77753683,,,,,,,,,,,,,,,,,,masks/mask_004.jpg,,,,,,,,,,,,,,,,,,,,,,,,,,,,,,,,,,,,,,,,,,,,,,,,0,4,4,3,1,,,,,,,,,,,,,,,,,,,,,,,,,,,,,,,,,,,,,,,,,
365585,001,2022-11-20_17h46.56.628,Info_measure_main_exp,2022.2.2,Win32,74.77753683,,,,,,,,,,,,,,,,,,,,,,,,,,,,,,5,2.0336,1,,,,,,,,,,,,0,131,5,5,1986,2274,absent_patch/patch0001986.jpg,absent_patch/patch0002274.jpg,,,,,,,,,,,,,,,,,,,,0.068518519,-0.046296296,1,0,0,response3disk,7,0.011111111,0.009259259,1,0,0,center_square,0,6,6,7,1,,,,,,,,,,,,,,,,,,,,,,,
365585,001,2022-11-20_17h46.56.628,Info_measure_main_exp,2022.2.2,Win32,74.77753683,,,,,,,,,,,,,,,,,,masks/mask_005.jpg,,,,,,,,,,,,,,,,,,,,,,,,,,,,,,,,,,,,,,,,,,,0,0,0,4,1,,,,,,,,,,,,,,,,,,,,,,,,,,,,,,,,,,,,,,,,,,,,,,
365585,001,2022-11-20_17h46.56.628,Info_measure_main_exp,2022.2.2,Win32,74.77753683,,,,,,,,,,,,,,,,,,masks/mask_003.jpg,,,,,,,,,,,,,,,,,,,,,,,,,,,,,,,,,,,,,,,,,,,0,1,1,2,1,,,,,,,,,,,,,,,,,,,,,,,,,,,,,,,,,,,,,,,,,,,,,,
365585,001,2022-11-20_17h46.56.628,Info_measure_main_exp,2022.2.2,Win32,74.77753683,,,,,,,,,,,,,,,,,,masks/mask_001.jpg,,,,,,,,,,,,,,,,,,,,,,,,,,,,,,,,,,,,,,,,,,,0,2,2,0,1,,,,,,,,,,,,,,,,,,,,,,,,,,,,,,,,,,,,,,,,,,,,,,
365585,001,2022-11-20_17h46.56.628,Info_measure_main_exp,2022.2.2,Win32,74.77753683,,,,,,,,,,,,,,,,,,masks/mask_002.jpg,,,,,,,,,,,,,,,,,,,,,,,,,,,,,,,,,,,,,,,,,,,0,3,3,1,1,,,,,,,,,,,,,,,,,,,,,,,,,,,,,,,,,,,,,,,,,,,,,,
365585,001,2022-11-20_17h46.56.628,Info_measure_main_exp,2022.2.2,Win32,74.77753683,,,,,,,,,,,,,,,,,,masks/mask_004.jpg,,,,,,,,,,,,,,,,,,,,,,,,,,,,,,,,,,,,,,,,,,,0,4,4,3,1,,,,,,,,,,,,,,,,,,,,,,,,,,,,,,,,,,,,,,,,,,,,,,
365585,001,2022-11-20_17h46.56.628,Info_measure_main_exp,2022.2.2,Win32,74.77753683,,,,,,,,,,,,,,,,,,masks/mask_004.jpg,,,,,,,,,,,,,,,,,,,,,,,,,,,,,,,,,,,,,,,,,,,,,,,,0,0,0,3,1,,,,,,,,,,,,,,,,,,,,,,,,,,,,,,,,,,,,,,,,,
365585,001,2022-11-20_17h46.56.628,Info_measure_main_exp,2022.2.2,Win32,74.77753683,,,,,,,,,,,,,,,,,,masks/mask_003.jpg,,,,,,,,,,,,,,,,,,,,,,,,,,,,,,,,,,,,,,,,,,,,,,,,0,1,1,2,1,,,,,,,,,,,,,,,,,,,,,,,,,,,,,,,,,,,,,,,,,
365585,001,2022-11-20_17h46.56.628,Info_measure_main_exp,2022.2.2,Win32,74.77753683,,,,,,,,,,,,,,,,,,masks/mask_002.jpg,,,,,,,,,,,,,,,,,,,,,,,,,,,,,,,,,,,,,,,,,,,,,,,,0,2,2,1,1,,,,,,,,,,,,,,,,,,,,,,,,,,,,,,,,,,,,,,,,,
365585,001,2022-11-20_17h46.56.628,Info_measure_main_exp,2022.2.2,Win32,74.77753683,,,,,,,,,,,,,,,,,,masks/mask_001.jpg,,,,,,,,,,,,,,,,,,,,,,,,,,,,,,,,,,,,,,,,,,,,,,,,0,3,3,0,1,,,,,,,,,,,,,,,,,,,,,,,,,,,,,,,,,,,,,,,,,
365585,001,2022-11-20_17h46.56.628,Info_measure_main_exp,2022.2.2,Win32,74.77753683,,,,,,,,,,,,,,,,,,masks/mask_005.jpg,,,,,,,,,,,,,,,,,,,,,,,,,,,,,,,,,,,,,,,,,,,,,,,,0,4,4,4,1,,,,,,,,,,,,,,,,,,,,,,,,,,,,,,,,,,,,,,,,,
365585,001,2022-11-20_17h46.56.628,Info_measure_main_exp,2022.2.2,Win32,74.77753683,,,,,,,,,,,,,,,,,,,,,,,,,,,,,,7,1.0669,1,,,,,,,,,,,,0,131,5,5,2190,2250,absent_patch/patch0002190.jpg,absent_patch/patch0002250.jpg,,,,,,,,,,,,,,,,,,,,0.023148148,0.071296296,1,0,0,response1disk,8,0.00462963,-0.008333333,1,0,0,center_square,0,7,7,93,1,,,,,,,,,,,,,,,,,,,,,,,
365585,001,2022-11-20_17h46.56.628,Info_measure_main_exp,2022.2.2,Win32,74.77753683,,,,,,,,,,,,,,,,,,masks/mask_004.jpg,,,,,,,,,,,,,,,,,,,,,,,,,,,,,,,,,,,,,,,,,,,0,0,0,3,1,,,,,,,,,,,,,,,,,,,,,,,,,,,,,,,,,,,,,,,,,,,,,,
365585,001,2022-11-20_17h46.56.628,Info_measure_main_exp,2022.2.2,Win32,74.77753683,,,,,,,,,,,,,,,,,,masks/mask_003.jpg,,,,,,,,,,,,,,,,,,,,,,,,,,,,,,,,,,,,,,,,,,,0,1,1,2,1,,,,,,,,,,,,,,,,,,,,,,,,,,,,,,,,,,,,,,,,,,,,,,
365585,001,2022-11-20_17h46.56.628,Info_measure_main_exp,2022.2.2,Win32,74.77753683,,,,,,,,,,,,,,,,,,masks/mask_001.jpg,,,,,,,,,,,,,,,,,,,,,,,,,,,,,,,,,,,,,,,,,,,0,2,2,0,1,,,,,,,,,,,,,,,,,,,,,,,,,,,,,,,,,,,,,,,,,,,,,,
365585,001,2022-11-20_17h46.56.628,Info_measure_main_exp,2022.2.2,Win32,74.77753683,,,,,,,,,,,,,,,,,,masks/mask_005.jpg,,,,,,,,,,,,,,,,,,,,,,,,,,,,,,,,,,,,,,,,,,,0,3,3,4,1,,,,,,,,,,,,,,,,,,,,,,,,,,,,,,,,,,,,,,,,,,,,,,
365585,001,2022-11-20_17h46.56.628,Info_measure_main_exp,2022.2.2,Win32,74.77753683,,,,,,,,,,,,,,,,,,masks/mask_002.jpg,,,,,,,,,,,,,,,,,,,,,,,,,,,,,,,,,,,,,,,,,,,0,4,4,1,1,,,,,,,,,,,,,,,,,,,,,,,,,,,,,,,,,,,,,,,,,,,,,,
365585,001,2022-11-20_17h46.56.628,Info_measure_main_exp,2022.2.2,Win32,74.77753683,,,,,,,,,,,,,,,,,,masks/mask_005.jpg,,,,,,,,,,,,,,,,,,,,,,,,,,,,,,,,,,,,,,,,,,,,,,,,0,0,0,4,1,,,,,,,,,,,,,,,,,,,,,,,,,,,,,,,,,,,,,,,,,
365585,001,2022-11-20_17h46.56.628,Info_measure_main_exp,2022.2.2,Win32,74.77753683,,,,,,,,,,,,,,,,,,masks/mask_002.jpg,,,,,,,,,,,,,,,,,,,,,,,,,,,,,,,,,,,,,,,,,,,,,,,,0,1,1,1,1,,,,,,,,,,,,,,,,,,,,,,,,,,,,,,,,,,,,,,,,,
365585,001,2022-11-20_17h46.56.628,Info_measure_main_exp,2022.2.2,Win32,74.77753683,,,,,,,,,,,,,,,,,,masks/mask_004.jpg,,,,,,,,,,,,,,,,,,,,,,,,,,,,,,,,,,,,,,,,,,,,,,,,0,2,2,3,1,,,,,,,,,,,,,,,,,,,,,,,,,,,,,,,,,,,,,,,,,
365585,001,2022-11-20_17h46.56.628,Info_measure_main_exp,2022.2.2,Win32,74.77753683,,,,,,,,,,,,,,,,,,masks/mask_003.jpg,,,,,,,,,,,,,,,,,,,,,,,,,,,,,,,,,,,,,,,,,,,,,,,,0,3,3,2,1,,,,,,,,,,,,,,,,,,,,,,,,,,,,,,,,,,,,,,,,,
365585,001,2022-11-20_17h46.56.628,Info_measure_main_exp,2022.2.2,Win32,74.77753683,,,,,,,,,,,,,,,,,,masks/mask_001.jpg,,,,,,,,,,,,,,,,,,,,,,,,,,,,,,,,,,,,,,,,,,,,,,,,0,4,4,0,1,,,,,,,,,,,,,,,,,,,,,,,,,,,,,,,,,,,,,,,,,
365585,001,2022-11-20_17h46.56.628,Info_measure_main_exp,2022.2.2,Win32,74.77753683,,,,,,,,,,,,,,,,,,,,,,,,,,,,,,0,0.8334,1,,,,,,,,,,,,0,131,5,5,2298,2298,absent_patch/patch0002298.jpg,absent_patch/patch0002298.jpg,,,,,,,,,,,,,,,,,,,,-0.028703704,0.065740741,1,0,0,response7disk,9,-0.002777778,-0.002777778,1,0,0,center_square,0,8,8,37,1,,,,,,,,,,,,,,,,,,,,,,,
365585,001,2022-11-20_17h46.56.628,Info_measure_main_exp,2022.2.2,Win32,74.77753683,,,,,,,,,,,,,,,,,,masks/mask_001.jpg,,,,,,,,,,,,,,,,,,,,,,,,,,,,,,,,,,,,,,,,,,,0,0,0,0,1,,,,,,,,,,,,,,,,,,,,,,,,,,,,,,,,,,,,,,,,,,,,,,
365585,001,2022-11-20_17h46.56.628,Info_measure_main_exp,2022.2.2,Win32,74.77753683,,,,,,,,,,,,,,,,,,masks/mask_004.jpg,,,,,,,,,,,,,,,,,,,,,,,,,,,,,,,,,,,,,,,,,,,0,1,1,3,1,,,,,,,,,,,,,,,,,,,,,,,,,,,,,,,,,,,,,,,,,,,,,,
365585,001,2022-11-20_17h46.56.628,Info_measure_main_exp,2022.2.2,Win32,74.77753683,,,,,,,,,,,,,,,,,,masks/mask_003.jpg,,,,,,,,,,,,,,,,,,,,,,,,,,,,,,,,,,,,,,,,,,,0,2,2,2,1,,,,,,,,,,,,,,,,,,,,,,,,,,,,,,,,,,,,,,,,,,,,,,
365585,001,2022-11-20_17h46.56.628,Info_measure_main_exp,2022.2.2,Win32,74.77753683,,,,,,,,,,,,,,,,,,masks/mask_002.jpg,,,,,,,,,,,,,,,,,,,,,,,,,,,,,,,,,,,,,,,,,,,0,3,3,1,1,,,,,,,,,,,,,,,,,,,,,,,,,,,,,,,,,,,,,,,,,,,,,,
365585,001,2022-11-20_17h46.56.628,Info_measure_main_exp,2022.2.2,Win32,74.77753683,,,,,,,,,,,,,,,,,,masks/mask_005.jpg,,,,,,,,,,,,,,,,,,,,,,,,,,,,,,,,,,,,,,,,,,,0,4,4,4,1,,,,,,,,,,,,,,,,,,,,,,,,,,,,,,,,,,,,,,,,,,,,,,
365585,001,2022-11-20_17h46.56.628,Info_measure_main_exp,2022.2.2,Win32,74.77753683,,,,,,,,,,,,,,,,,,masks/mask_004.jpg,,,,,,,,,,,,,,,,,,,,,,,,,,,,,,,,,,,,,,,,,,,,,,,,0,0,0,3,1,,,,,,,,,,,,,,,,,,,,,,,,,,,,,,,,,,,,,,,,,
365585,001,2022-11-20_17h46.56.628,Info_measure_main_exp,2022.2.2,Win32,74.77753683,,,,,,,,,,,,,,,,,,masks/mask_001.jpg,,,,,,,,,,,,,,,,,,,,,,,,,,,,,,,,,,,,,,,,,,,,,,,,0,1,1,0,1,,,,,,,,,,,,,,,,,,,,,,,,,,,,,,,,,,,,,,,,,
365585,001,2022-11-20_17h46.56.628,Info_measure_main_exp,2022.2.2,Win32,74.77753683,,,,,,,,,,,,,,,,,,masks/mask_003.jpg,,,,,,,,,,,,,,,,,,,,,,,,,,,,,,,,,,,,,,,,,,,,,,,,0,2,2,2,1,,,,,,,,,,,,,,,,,,,,,,,,,,,,,,,,,,,,,,,,,
365585,001,2022-11-20_17h46.56.628,Info_measure_main_exp,2022.2.2,Win32,74.77753683,,,,,,,,,,,,,,,,,,masks/mask_002.jpg,,,,,,,,,,,,,,,,,,,,,,,,,,,,,,,,,,,,,,,,,,,,,,,,0,3,3,1,1,,,,,,,,,,,,,,,,,,,,,,,,,,,,,,,,,,,,,,,,,
365585,001,2022-11-20_17h46.56.628,Info_measure_main_exp,2022.2.2,Win32,74.77753683,,,,,,,,,,,,,,,,,,masks/mask_005.jpg,,,,,,,,,,,,,,,,,,,,,,,,,,,,,,,,,,,,,,,,,,,,,,,,0,4,4,4,1,,,,,,,,,,,,,,,,,,,,,,,,,,,,,,,,,,,,,,,,,
365585,001,2022-11-20_17h46.56.628,Info_measure_main_exp,2022.2.2,Win32,74.77753683,,,,,,,,,,,,,,,,,,,,,,,,,,,,,,6,1.1501,1,,,,,,,,,,,,0,131,5,5,2178,2154,absent_patch/patch0002178.jpg,absent_patch/patch0002154.jpg,,,,,,,,,,,,,,,,,,,,0.076851852,0.050925926,1,0,0,response1disk,10,0.00462963,0.009259259,1,0,0,center_square,0,9,9,63,1,,,,,,,,,,,,,,,,,,,,,,,
365585,001,2022-11-20_17h46.56.628,Info_measure_main_exp,2022.2.2,Win32,74.77753683,,,,,,,,,,,,,,,,,,masks/mask_002.jpg,,,,,,,,,,,,,,,,,,,,,,,,,,,,,,,,,,,,,,,,,,,0,0,0,1,1,,,,,,,,,,,,,,,,,,,,,,,,,,,,,,,,,,,,,,,,,,,,,,
365585,001,2022-11-20_17h46.56.628,Info_measure_main_exp,2022.2.2,Win32,74.77753683,,,,,,,,,,,,,,,,,,masks/mask_004.jpg,,,,,,,,,,,,,,,,,,,,,,,,,,,,,,,,,,,,,,,,,,,0,1,1,3,1,,,,,,,,,,,,,,,,,,,,,,,,,,,,,,,,,,,,,,,,,,,,,,
365585,001,2022-11-20_17h46.56.628,Info_measure_main_exp,2022.2.2,Win32,74.77753683,,,,,,,,,,,,,,,,,,masks/mask_005.jpg,,,,,,,,,,,,,,,,,,,,,,,,,,,,,,,,,,,,,,,,,,,0,2,2,4,1,,,,,,,,,,,,,,,,,,,,,,,,,,,,,,,,,,,,,,,,,,,,,,
365585,001,2022-11-20_17h46.56.628,Info_measure_main_exp,2022.2.2,Win32,74.77753683,,,,,,,,,,,,,,,,,,masks/mask_003.jpg,,,,,,,,,,,,,,,,,,,,,,,,,,,,,,,,,,,,,,,,,,,0,3,3,2,1,,,,,,,,,,,,,,,,,,,,,,,,,,,,,,,,,,,,,,,,,,,,,,
365585,001,2022-11-20_17h46.56.628,Info_measure_main_exp,2022.2.2,Win32,74.77753683,,,,,,,,,,,,,,,,,,masks/mask_001.jpg,,,,,,,,,,,,,,,,,,,,,,,,,,,,,,,,,,,,,,,,,,,0,4,4,0,1,,,,,,,,,,,,,,,,,,,,,,,,,,,,,,,,,,,,,,,,,,,,,,
365585,001,2022-11-20_17h46.56.628,Info_measure_main_exp,2022.2.2,Win32,74.77753683,,,,,,,,,,,,,,,,,,masks/mask_005.jpg,,,,,,,,,,,,,,,,,,,,,,,,,,,,,,,,,,,,,,,,,,,,,,,,0,0,0,4,1,,,,,,,,,,,,,,,,,,,,,,,,,,,,,,,,,,,,,,,,,
365585,001,2022-11-20_17h46.56.628,Info_measure_main_exp,2022.2.2,Win32,74.77753683,,,,,,,,,,,,,,,,,,masks/mask_002.jpg,,,,,,,,,,,,,,,,,,,,,,,,,,,,,,,,,,,,,,,,,,,,,,,,0,1,1,1,1,,,,,,,,,,,,,,,,,,,,,,,,,,,,,,,,,,,,,,,,,
365585,001,2022-11-20_17h46.56.628,Info_measure_main_exp,2022.2.2,Win32,74.77753683,,,,,,,,,,,,,,,,,,masks/mask_001.jpg,,,,,,,,,,,,,,,,,,,,,,,,,,,,,,,,,,,,,,,,,,,,,,,,0,2,2,0,1,,,,,,,,,,,,,,,,,,,,,,,,,,,,,,,,,,,,,,,,,
365585,001,2022-11-20_17h46.56.628,Info_measure_main_exp,2022.2.2,Win32,74.77753683,,,,,,,,,,,,,,,,,,masks/mask_003.jpg,,,,,,,,,,,,,,,,,,,,,,,,,,,,,,,,,,,,,,,,,,,,,,,,0,3,3,2,1,,,,,,,,,,,,,,,,,,,,,,,,,,,,,,,,,,,,,,,,,
365585,001,2022-11-20_17h46.56.628,Info_measure_main_exp,2022.2.2,Win32,74.77753683,,,,,,,,,,,,,,,,,,masks/mask_004.jpg,,,,,,,,,,,,,,,,,,,,,,,,,,,,,,,,,,,,,,,,,,,,,,,,0,4,4,3,1,,,,,,,,,,,,,,,,,,,,,,,,,,,,,,,,,,,,,,,,,
365585,001,2022-11-20_17h46.56.628,Info_measure_main_exp,2022.2.2,Win32,74.77753683,,,,,,,,,,,,,,,,,,,,,,,,,,,,,,3,2.0165,1,,,,,,,,,,,,0,131,5,5,2298,2214,absent_patch/patch0002298.jpg,absent_patch/patch0002214.jpg,,,,,,,,,,,,,,,,,,,,-0.05,-0.096296296,1,0,0,response5disk,11,-0.008333333,-0.000925926,1,0,0,center_square,0,10,10,99,1,,,,,,,,,,,,,,,,,,,,,,,
365585,001,2022-11-20_17h46.56.628,Info_measure_main_exp,2022.2.2,Win32,74.77753683,,,,,,,,,,,,,,,,,,masks/mask_004.jpg,,,,,,,,,,,,,,,,,,,,,,,,,,,,,,,,,,,,,,,,,,,0,0,0,3,1,,,,,,,,,,,,,,,,,,,,,,,,,,,,,,,,,,,,,,,,,,,,,,
365585,001,2022-11-20_17h46.56.628,Info_measure_main_exp,2022.2.2,Win32,74.77753683,,,,,,,,,,,,,,,,,,masks/mask_002.jpg,,,,,,,,,,,,,,,,,,,,,,,,,,,,,,,,,,,,,,,,,,,0,1,1,1,1,,,,,,,,,,,,,,,,,,,,,,,,,,,,,,,,,,,,,,,,,,,,,,
365585,001,2022-11-20_17h46.56.628,Info_measure_main_exp,2022.2.2,Win32,74.77753683,,,,,,,,,,,,,,,,,,masks/mask_003.jpg,,,,,,,,,,,,,,,,,,,,,,,,,,,,,,,,,,,,,,,,,,,0,2,2,2,1,,,,,,,,,,,,,,,,,,,,,,,,,,,,,,,,,,,,,,,,,,,,,,
365585,001,2022-11-20_17h46.56.628,Info_measure_main_exp,2022.2.2,Win32,74.77753683,,,,,,,,,,,,,,,,,,masks/mask_001.jpg,,,,,,,,,,,,,,,,,,,,,,,,,,,,,,,,,,,,,,,,,,,0,3,3,0,1,,,,,,,,,,,,,,,,,,,,,,,,,,,,,,,,,,,,,,,,,,,,,,
365585,001,2022-11-20_17h46.56.628,Info_measure_main_exp,2022.2.2,Win32,74.77753683,,,,,,,,,,,,,,,,,,masks/mask_005.jpg,,,,,,,,,,,,,,,,,,,,,,,,,,,,,,,,,,,,,,,,,,,0,4,4,4,1,,,,,,,,,,,,,,,,,,,,,,,,,,,,,,,,,,,,,,,,,,,,,,
365585,001,2022-11-20_17h46.56.628,Info_measure_main_exp,2022.2.2,Win32,74.77753683,,,,,,,,,,,,,,,,,,masks/mask_005.jpg,,,,,,,,,,,,,,,,,,,,,,,,,,,,,,,,,,,,,,,,,,,,,,,,0,0,0,4,1,,,,,,,,,,,,,,,,,,,,,,,,,,,,,,,,,,,,,,,,,
365585,001,2022-11-20_17h46.56.628,Info_measure_main_exp,2022.2.2,Win32,74.77753683,,,,,,,,,,,,,,,,,,masks/mask_003.jpg,,,,,,,,,,,,,,,,,,,,,,,,,,,,,,,,,,,,,,,,,,,,,,,,0,1,1,2,1,,,,,,,,,,,,,,,,,,,,,,,,,,,,,,,,,,,,,,,,,
365585,001,2022-11-20_17h46.56.628,Info_measure_main_exp,2022.2.2,Win32,74.77753683,,,,,,,,,,,,,,,,,,masks/mask_001.jpg,,,,,,,,,,,,,,,,,,,,,,,,,,,,,,,,,,,,,,,,,,,,,,,,0,2,2,0,1,,,,,,,,,,,,,,,,,,,,,,,,,,,,,,,,,,,,,,,,,
365585,001,2022-11-20_17h46.56.628,Info_measure_main_exp,2022.2.2,Win32,74.77753683,,,,,,,,,,,,,,,,,,masks/mask_002.jpg,,,,,,,,,,,,,,,,,,,,,,,,,,,,,,,,,,,,,,,,,,,,,,,,0,3,3,1,1,,,,,,,,,,,,,,,,,,,,,,,,,,,,,,,,,,,,,,,,,
365585,001,2022-11-20_17h46.56.628,Info_measure_main_exp,2022.2.2,Win32,74.77753683,,,,,,,,,,,,,,,,,,masks/mask_004.jpg,,,,,,,,,,,,,,,,,,,,,,,,,,,,,,,,,,,,,,,,,,,,,,,,0,4,4,3,1,,,,,,,,,,,,,,,,,,,,,,,,,,,,,,,,,,,,,,,,,
365585,001,2022-11-20_17h46.56.628,Info_measure_main_exp,2022.2.2,Win32,74.77753683,,,,,,,,,,,,,,,,,,,,,,,,,,,,,,2,1.0501,1,,,,,,,,,,,,0,131,5,5,1974,2178,absent_patch/patch0001974.jpg,absent_patch/patch0002178.jpg,,,,,,,,,,,,,,,,,,,,-0.075,-0.032407407,1,0,0,response5disk,12,-0.002777778,0.00462963,1,0,0,center_square,0,11,11,44,1,,,,,,,,,,,,,,,,,,,,,,,
365585,001,2022-11-20_17h46.56.628,Info_measure_main_exp,2022.2.2,Win32,74.77753683,,,,,,,,,,,,,,,,,,masks/mask_004.jpg,,,,,,,,,,,,,,,,,,,,,,,,,,,,,,,,,,,,,,,,,,,0,0,0,3,1,,,,,,,,,,,,,,,,,,,,,,,,,,,,,,,,,,,,,,,,,,,,,,
365585,001,2022-11-20_17h46.56.628,Info_measure_main_exp,2022.2.2,Win32,74.77753683,,,,,,,,,,,,,,,,,,masks/mask_003.jpg,,,,,,,,,,,,,,,,,,,,,,,,,,,,,,,,,,,,,,,,,,,0,1,1,2,1,,,,,,,,,,,,,,,,,,,,,,,,,,,,,,,,,,,,,,,,,,,,,,
365585,001,2022-11-20_17h46.56.628,Info_measure_main_exp,2022.2.2,Win32,74.77753683,,,,,,,,,,,,,,,,,,masks/mask_005.jpg,,,,,,,,,,,,,,,,,,,,,,,,,,,,,,,,,,,,,,,,,,,0,2,2,4,1,,,,,,,,,,,,,,,,,,,,,,,,,,,,,,,,,,,,,,,,,,,,,,
365585,001,2022-11-20_17h46.56.628,Info_measure_main_exp,2022.2.2,Win32,74.77753683,,,,,,,,,,,,,,,,,,masks/mask_002.jpg,,,,,,,,,,,,,,,,,,,,,,,,,,,,,,,,,,,,,,,,,,,0,3,3,1,1,,,,,,,,,,,,,,,,,,,,,,,,,,,,,,,,,,,,,,,,,,,,,,
365585,001,2022-11-20_17h46.56.628,Info_measure_main_exp,2022.2.2,Win32,74.77753683,,,,,,,,,,,,,,,,,,masks/mask_001.jpg,,,,,,,,,,,,,,,,,,,,,,,,,,,,,,,,,,,,,,,,,,,0,4,4,0,1,,,,,,,,,,,,,,,,,,,,,,,,,,,,,,,,,,,,,,,,,,,,,,
365585,001,2022-11-20_17h46.56.628,Info_measure_main_exp,2022.2.2,Win32,74.77753683,,,,,,,,,,,,,,,,,,masks/mask_001.jpg,,,,,,,,,,,,,,,,,,,,,,,,,,,,,,,,,,,,,,,,,,,,,,,,0,0,0,0,1,,,,,,,,,,,,,,,,,,,,,,,,,,,,,,,,,,,,,,,,,
365585,001,2022-11-20_17h46.56.628,Info_measure_main_exp,2022.2.2,Win32,74.77753683,,,,,,,,,,,,,,,,,,masks/mask_003.jpg,,,,,,,,,,,,,,,,,,,,,,,,,,,,,,,,,,,,,,,,,,,,,,,,0,1,1,2,1,,,,,,,,,,,,,,,,,,,,,,,,,,,,,,,,,,,,,,,,,
365585,001,2022-11-20_17h46.56.628,Info_measure_main_exp,2022.2.2,Win32,74.77753683,,,,,,,,,,,,,,,,,,masks/mask_005.jpg,,,,,,,,,,,,,,,,,,,,,,,,,,,,,,,,,,,,,,,,,,,,,,,,0,2,2,4,1,,,,,,,,,,,,,,,,,,,,,,,,,,,,,,,,,,,,,,,,,
365585,001,2022-11-20_17h46.56.628,Info_measure_main_exp,2022.2.2,Win32,74.77753683,,,,,,,,,,,,,,,,,,masks/mask_004.jpg,,,,,,,,,,,,,,,,,,,,,,,,,,,,,,,,,,,,,,,,,,,,,,,,0,3,3,3,1,,,,,,,,,,,,,,,,,,,,,,,,,,,,,,,,,,,,,,,,,
365585,001,2022-11-20_17h46.56.628,Info_measure_main_exp,2022.2.2,Win32,74.77753683,,,,,,,,,,,,,,,,,,masks/mask_002.jpg,,,,,,,,,,,,,,,,,,,,,,,,,,,,,,,,,,,,,,,,,,,,,,,,0,4,4,1,1,,,,,,,,,,,,,,,,,,,,,,,,,,,,,,,,,,,,,,,,,
365585,001,2022-11-20_17h46.56.628,Info_measure_main_exp,2022.2.2,Win32,74.77753683,,,,,,,,,,,,,,,,,,,,,,,,,,,,,,6,1.0002,1,,,,,,,,,,,,0,131,5,5,2082,1986,absent_patch/patch0002082.jpg,absent_patch/patch0001986.jpg,,,,,,,,,,,,,,,,,,,,0.084259259,0.025,1,0,0,response1disk,13,0.005555556,0.005555556,1,0,0,center_square,0,12,12,94,1,,,,,,,,,,,,,,,,,,,,,,,
365585,001,2022-11-20_17h46.56.628,Info_measure_main_exp,2022.2.2,Win32,74.77753683,,,,,,,,,,,,,,,,,,masks/mask_001.jpg,,,,,,,,,,,,,,,,,,,,,,,,,,,,,,,,,,,,,,,,,,,0,0,0,0,1,,,,,,,,,,,,,,,,,,,,,,,,,,,,,,,,,,,,,,,,,,,,,,
365585,001,2022-11-20_17h46.56.628,Info_measure_main_exp,2022.2.2,Win32,74.77753683,,,,,,,,,,,,,,,,,,masks/mask_003.jpg,,,,,,,,,,,,,,,,,,,,,,,,,,,,,,,,,,,,,,,,,,,0,1,1,2,1,,,,,,,,,,,,,,,,,,,,,,,,,,,,,,,,,,,,,,,,,,,,,,
365585,001,2022-11-20_17h46.56.628,Info_measure_main_exp,2022.2.2,Win32,74.77753683,,,,,,,,,,,,,,,,,,masks/mask_004.jpg,,,,,,,,,,,,,,,,,,,,,,,,,,,,,,,,,,,,,,,,,,,0,2,2,3,1,,,,,,,,,,,,,,,,,,,,,,,,,,,,,,,,,,,,,,,,,,,,,,
365585,001,2022-11-20_17h46.56.628,Info_measure_main_exp,2022.2.2,Win32,74.77753683,,,,,,,,,,,,,,,,,,masks/mask_002.jpg,,,,,,,,,,,,,,,,,,,,,,,,,,,,,,,,,,,,,,,,,,,0,3,3,1,1,,,,,,,,,,,,,,,,,,,,,,,,,,,,,,,,,,,,,,,,,,,,,,
365585,001,2022-11-20_17h46.56.628,Info_measure_main_exp,2022.2.2,Win32,74.77753683,,,,,,,,,,,,,,,,,,masks/mask_005.jpg,,,,,,,,,,,,,,,,,,,,,,,,,,,,,,,,,,,,,,,,,,,0,4,4,4,1,,,,,,,,,,,,,,,,,,,,,,,,,,,,,,,,,,,,,,,,,,,,,,
365585,001,2022-11-20_17h46.56.628,Info_measure_main_exp,2022.2.2,Win32,74.77753683,,,,,,,,,,,,,,,,,,masks/mask_002.jpg,,,,,,,,,,,,,,,,,,,,,,,,,,,,,,,,,,,,,,,,,,,,,,,,0,0,0,1,1,,,,,,,,,,,,,,,,,,,,,,,,,,,,,,,,,,,,,,,,,
365585,001,2022-11-20_17h46.56.628,Info_measure_main_exp,2022.2.2,Win32,74.77753683,,,,,,,,,,,,,,,,,,masks/mask_001.jpg,,,,,,,,,,,,,,,,,,,,,,,,,,,,,,,,,,,,,,,,,,,,,,,,0,1,1,0,1,,,,,,,,,,,,,,,,,,,,,,,,,,,,,,,,,,,,,,,,,
365585,001,2022-11-20_17h46.56.628,Info_measure_main_exp,2022.2.2,Win32,74.77753683,,,,,,,,,,,,,,,,,,masks/mask_003.jpg,,,,,,,,,,,,,,,,,,,,,,,,,,,,,,,,,,,,,,,,,,,,,,,,0,2,2,2,1,,,,,,,,,,,,,,,,,,,,,,,,,,,,,,,,,,,,,,,,,
365585,001,2022-11-20_17h46.56.628,Info_measure_main_exp,2022.2.2,Win32,74.77753683,,,,,,,,,,,,,,,,,,masks/mask_005.jpg,,,,,,,,,,,,,,,,,,,,,,,,,,,,,,,,,,,,,,,,,,,,,,,,0,3,3,4,1,,,,,,,,,,,,,,,,,,,,,,,,,,,,,,,,,,,,,,,,,
365585,001,2022-11-20_17h46.56.628,Info_measure_main_exp,2022.2.2,Win32,74.77753683,,,,,,,,,,,,,,,,,,masks/mask_004.jpg,,,,,,,,,,,,,,,,,,,,,,,,,,,,,,,,,,,,,,,,,,,,,,,,0,4,4,3,1,,,,,,,,,,,,,,,,,,,,,,,,,,,,,,,,,,,,,,,,,
365585,001,2022-11-20_17h46.56.628,Info_measure_main_exp,2022.2.2,Win32,74.77753683,,,,,,,,,,,,,,,,,,,,,,,,,,,,,,5,1.3834,1,,,,,,,,,,,,0,131,5,5,2154,2214,absent_patch/patch0002154.jpg,absent_patch/patch0002214.jpg,,,,,,,,,,,,,,,,,,,,0.059259259,-0.025925926,1,0,0,response3disk,14,0.011111111,-0.000925926,1,0,0,center_square,0,13,13,67,1,,,,,,,,,,,,,,,,,,,,,,,
365585,001,2022-11-20_17h46.56.628,Info_measure_main_exp,2022.2.2,Win32,74.77753683,,,,,,,,,,,,,,,,,,masks/mask_005.jpg,,,,,,,,,,,,,,,,,,,,,,,,,,,,,,,,,,,,,,,,,,,0,0,0,4,1,,,,,,,,,,,,,,,,,,,,,,,,,,,,,,,,,,,,,,,,,,,,,,
365585,001,2022-11-20_17h46.56.628,Info_measure_main_exp,2022.2.2,Win32,74.77753683,,,,,,,,,,,,,,,,,,masks/mask_003.jpg,,,,,,,,,,,,,,,,,,,,,,,,,,,,,,,,,,,,,,,,,,,0,1,1,2,1,,,,,,,,,,,,,,,,,,,,,,,,,,,,,,,,,,,,,,,,,,,,,,
365585,001,2022-11-20_17h46.56.628,Info_measure_main_exp,2022.2.2,Win32,74.77753683,,,,,,,,,,,,,,,,,,masks/mask_002.jpg,,,,,,,,,,,,,,,,,,,,,,,,,,,,,,,,,,,,,,,,,,,0,2,2,1,1,,,,,,,,,,,,,,,,,,,,,,,,,,,,,,,,,,,,,,,,,,,,,,
365585,001,2022-11-20_17h46.56.628,Info_measure_main_exp,2022.2.2,Win32,74.77753683,,,,,,,,,,,,,,,,,,masks/mask_004.jpg,,,,,,,,,,,,,,,,,,,,,,,,,,,,,,,,,,,,,,,,,,,0,3,3,3,1,,,,,,,,,,,,,,,,,,,,,,,,,,,,,,,,,,,,,,,,,,,,,,
365585,001,2022-11-20_17h46.56.628,Info_measure_main_exp,2022.2.2,Win32,74.77753683,,,,,,,,,,,,,,,,,,masks/mask_001.jpg,,,,,,,,,,,,,,,,,,,,,,,,,,,,,,,,,,,,,,,,,,,0,4,4,0,1,,,,,,,,,,,,,,,,,,,,,,,,,,,,,,,,,,,,,,,,,,,,,,
365585,001,2022-11-20_17h46.56.628,Info_measure_main_exp,2022.2.2,Win32,74.77753683,,,,,,,,,,,,,,,,,,masks/mask_004.jpg,,,,,,,,,,,,,,,,,,,,,,,,,,,,,,,,,,,,,,,,,,,,,,,,0,0,0,3,1,,,,,,,,,,,,,,,,,,,,,,,,,,,,,,,,,,,,,,,,,
365585,001,2022-11-20_17h46.56.628,Info_measure_main_exp,2022.2.2,Win32,74.77753683,,,,,,,,,,,,,,,,,,masks/mask_001.jpg,,,,,,,,,,,,,,,,,,,,,,,,,,,,,,,,,,,,,,,,,,,,,,,,0,1,1,0,1,,,,,,,,,,,,,,,,,,,,,,,,,,,,,,,,,,,,,,,,,
365585,001,2022-11-20_17h46.56.628,Info_measure_main_exp,2022.2.2,Win32,74.77753683,,,,,,,,,,,,,,,,,,masks/mask_002.jpg,,,,,,,,,,,,,,,,,,,,,,,,,,,,,,,,,,,,,,,,,,,,,,,,0,2,2,1,1,,,,,,,,,,,,,,,,,,,,,,,,,,,,,,,,,,,,,,,,,
365585,001,2022-11-20_17h46.56.628,Info_measure_main_exp,2022.2.2,Win32,74.77753683,,,,,,,,,,,,,,,,,,masks/mask_005.jpg,,,,,,,,,,,,,,,,,,,,,,,,,,,,,,,,,,,,,,,,,,,,,,,,0,3,3,4,1,,,,,,,,,,,,,,,,,,,,,,,,,,,,,,,,,,,,,,,,,
365585,001,2022-11-20_17h46.56.628,Info_measure_main_exp,2022.2.2,Win32,74.77753683,,,,,,,,,,,,,,,,,,masks/mask_003.jpg,,,,,,,,,,,,,,,,,,,,,,,,,,,,,,,,,,,,,,,,,,,,,,,,0,4,4,2,1,,,,,,,,,,,,,,,,,,,,,,,,,,,,,,,,,,,,,,,,,
365585,001,2022-11-20_17h46.56.628,Info_measure_main_exp,2022.2.2,Win32,74.77753683,,,,,,,,,,,,,,,,,,,,,,,,,,,,,,7,1.2835,1,,,,,,,,,,,,1,131,5,5,1,2178,present_patch/cong_131_5_a.jpg,absent_patch/patch0002178.jpg,,,,,,,,,,,,,,,,,,,,0.013888889,0.056481481,1,0,0,response1disk,15,0.001851852,0,1,0,0,center_square,0,14,14,40,1,,,,,,,,,,,,,,,,,,,,,,,
365585,001,2022-11-20_17h46.56.628,Info_measure_main_exp,2022.2.2,Win32,74.77753683,,,,,,,,,,,,,,,,,,masks/mask_005.jpg,,,,,,,,,,,,,,,,,,,,,,,,,,,,,,,,,,,,,,,,,,,0,0,0,4,1,,,,,,,,,,,,,,,,,,,,,,,,,,,,,,,,,,,,,,,,,,,,,,
365585,001,2022-11-20_17h46.56.628,Info_measure_main_exp,2022.2.2,Win32,74.77753683,,,,,,,,,,,,,,,,,,masks/mask_001.jpg,,,,,,,,,,,,,,,,,,,,,,,,,,,,,,,,,,,,,,,,,,,0,1,1,0,1,,,,,,,,,,,,,,,,,,,,,,,,,,,,,,,,,,,,,,,,,,,,,,
365585,001,2022-11-20_17h46.56.628,Info_measure_main_exp,2022.2.2,Win32,74.77753683,,,,,,,,,,,,,,,,,,masks/mask_004.jpg,,,,,,,,,,,,,,,,,,,,,,,,,,,,,,,,,,,,,,,,,,,0,2,2,3,1,,,,,,,,,,,,,,,,,,,,,,,,,,,,,,,,,,,,,,,,,,,,,,
365585,001,2022-11-20_17h46.56.628,Info_measure_main_exp,2022.2.2,Win32,74.77753683,,,,,,,,,,,,,,,,,,masks/mask_003.jpg,,,,,,,,,,,,,,,,,,,,,,,,,,,,,,,,,,,,,,,,,,,0,3,3,2,1,,,,,,,,,,,,,,,,,,,,,,,,,,,,,,,,,,,,,,,,,,,,,,
365585,001,2022-11-20_17h46.56.628,Info_measure_main_exp,2022.2.2,Win32,74.77753683,,,,,,,,,,,,,,,,,,masks/mask_002.jpg,,,,,,,,,,,,,,,,,,,,,,,,,,,,,,,,,,,,,,,,,,,0,4,4,1,1,,,,,,,,,,,,,,,,,,,,,,,,,,,,,,,,,,,,,,,,,,,,,,
365585,001,2022-11-20_17h46.56.628,Info_measure_main_exp,2022.2.2,Win32,74.77753683,,,,,,,,,,,,,,,,,,masks/mask_003.jpg,,,,,,,,,,,,,,,,,,,,,,,,,,,,,,,,,,,,,,,,,,,,,,,,0,0,0,2,1,,,,,,,,,,,,,,,,,,,,,,,,,,,,,,,,,,,,,,,,,
365585,001,2022-11-20_17h46.56.628,Info_measure_main_exp,2022.2.2,Win32,74.77753683,,,,,,,,,,,,,,,,,,masks/mask_005.jpg,,,,,,,,,,,,,,,,,,,,,,,,,,,,,,,,,,,,,,,,,,,,,,,,0,1,1,4,1,,,,,,,,,,,,,,,,,,,,,,,,,,,,,,,,,,,,,,,,,
365585,001,2022-11-20_17h46.56.628,Info_measure_main_exp,2022.2.2,Win32,74.77753683,,,,,,,,,,,,,,,,,,masks/mask_001.jpg,,,,,,,,,,,,,,,,,,,,,,,,,,,,,,,,,,,,,,,,,,,,,,,,0,2,2,0,1,,,,,,,,,,,,,,,,,,,,,,,,,,,,,,,,,,,,,,,,,
365585,001,2022-11-20_17h46.56.628,Info_measure_main_exp,2022.2.2,Win32,74.77753683,,,,,,,,,,,,,,,,,,masks/mask_002.jpg,,,,,,,,,,,,,,,,,,,,,,,,,,,,,,,,,,,,,,,,,,,,,,,,0,3,3,1,1,,,,,,,,,,,,,,,,,,,,,,,,,,,,,,,,,,,,,,,,,
365585,001,2022-11-20_17h46.56.628,Info_measure_main_exp,2022.2.2,Win32,74.77753683,,,,,,,,,,,,,,,,,,masks/mask_004.jpg,,,,,,,,,,,,,,,,,,,,,,,,,,,,,,,,,,,,,,,,,,,,,,,,0,4,4,3,1,,,,,,,,,,,,,,,,,,,,,,,,,,,,,,,,,,,,,,,,,
365585,001,2022-11-20_17h46.56.628,Info_measure_main_exp,2022.2.2,Win32,74.77753683,,,,,,,,,,,,,,,,,,,,,,,,,,,,,,7,0.7169,1,,,,,,,,,,,,1,131,5,5,1,2274,present_patch/cong_131_5_a.jpg,absent_patch/patch0002274.jpg,,,,,,,,,,,,,,,,,,,,0.018518519,0.056481481,1,0,0,response1disk,16,0.006481481,0.003703704,1,0,0,center_square,0,15,15,105,1,,,,,,,,,,,,,,,,,,,,,,,
365585,001,2022-11-20_17h46.56.628,Info_measure_main_exp,2022.2.2,Win32,74.77753683,,,,,,,,,,,,,,,,,,masks/mask_001.jpg,,,,,,,,,,,,,,,,,,,,,,,,,,,,,,,,,,,,,,,,,,,0,0,0,0,1,,,,,,,,,,,,,,,,,,,,,,,,,,,,,,,,,,,,,,,,,,,,,,
365585,001,2022-11-20_17h46.56.628,Info_measure_main_exp,2022.2.2,Win32,74.77753683,,,,,,,,,,,,,,,,,,masks/mask_004.jpg,,,,,,,,,,,,,,,,,,,,,,,,,,,,,,,,,,,,,,,,,,,0,1,1,3,1,,,,,,,,,,,,,,,,,,,,,,,,,,,,,,,,,,,,,,,,,,,,,,
365585,001,2022-11-20_17h46.56.628,Info_measure_main_exp,2022.2.2,Win32,74.77753683,,,,,,,,,,,,,,,,,,masks/mask_005.jpg,,,,,,,,,,,,,,,,,,,,,,,,,,,,,,,,,,,,,,,,,,,0,2,2,4,1,,,,,,,,,,,,,,,,,,,,,,,,,,,,,,,,,,,,,,,,,,,,,,
365585,001,2022-11-20_17h46.56.628,Info_measure_main_exp,2022.2.2,Win32,74.77753683,,,,,,,,,,,,,,,,,,masks/mask_002.jpg,,,,,,,,,,,,,,,,,,,,,,,,,,,,,,,,,,,,,,,,,,,0,3,3,1,1,,,,,,,,,,,,,,,,,,,,,,,,,,,,,,,,,,,,,,,,,,,,,,
365585,001,2022-11-20_17h46.56.628,Info_measure_main_exp,2022.2.2,Win32,74.77753683,,,,,,,,,,,,,,,,,,masks/mask_003.jpg,,,,,,,,,,,,,,,,,,,,,,,,,,,,,,,,,,,,,,,,,,,0,4,4,2,1,,,,,,,,,,,,,,,,,,,,,,,,,,,,,,,,,,,,,,,,,,,,,,
365585,001,2022-11-20_17h46.56.628,Info_measure_main_exp,2022.2.2,Win32,74.77753683,,,,,,,,,,,,,,,,,,masks/mask_003.jpg,,,,,,,,,,,,,,,,,,,,,,,,,,,,,,,,,,,,,,,,,,,,,,,,0,0,0,2,1,,,,,,,,,,,,,,,,,,,,,,,,,,,,,,,,,,,,,,,,,
365585,001,2022-11-20_17h46.56.628,Info_measure_main_exp,2022.2.2,Win32,74.77753683,,,,,,,,,,,,,,,,,,masks/mask_001.jpg,,,,,,,,,,,,,,,,,,,,,,,,,,,,,,,,,,,,,,,,,,,,,,,,0,1,1,0,1,,,,,,,,,,,,,,,,,,,,,,,,,,,,,,,,,,,,,,,,,
365585,001,2022-11-20_17h46.56.628,Info_measure_main_exp,2022.2.2,Win32,74.77753683,,,,,,,,,,,,,,,,,,masks/mask_002.jpg,,,,,,,,,,,,,,,,,,,,,,,,,,,,,,,,,,,,,,,,,,,,,,,,0,2,2,1,1,,,,,,,,,,,,,,,,,,,,,,,,,,,,,,,,,,,,,,,,,
365585,001,2022-11-20_17h46.56.628,Info_measure_main_exp,2022.2.2,Win32,74.77753683,,,,,,,,,,,,,,,,,,masks/mask_005.jpg,,,,,,,,,,,,,,,,,,,,,,,,,,,,,,,,,,,,,,,,,,,,,,,,0,3,3,4,1,,,,,,,,,,,,,,,,,,,,,,,,,,,,,,,,,,,,,,,,,
365585,001,2022-11-20_17h46.56.628,Info_measure_main_exp,2022.2.2,Win32,74.77753683,,,,,,,,,,,,,,,,,,masks/mask_004.jpg,,,,,,,,,,,,,,,,,,,,,,,,,,,,,,,,,,,,,,,,,,,,,,,,0,4,4,3,1,,,,,,,,,,,,,,,,,,,,,,,,,,,,,,,,,,,,,,,,,
365585,001,2022-11-20_17h46.56.628,Info_measure_main_exp,2022.2.2,Win32,74.77753683,,,,,,,,,,,,,,,,,,,,,,,,,,,,,,6,1.0833,1,,,,,,,,,,,,1,131,5,5,1,2214,present_patch/cong_131_5_a.jpg,absent_patch/patch0002214.jpg,,,,,,,,,,,,,,,,,,,,0.060185185,0.024074074,1,0,0,response1disk,17,0.005555556,-0.001851852,1,0,0,center_square,0,16,16,4,1,,,,,,,,,,,,,,,,,,,,,,,
365585,001,2022-11-20_17h46.56.628,Info_measure_main_exp,2022.2.2,Win32,74.77753683,,,,,,,,,,,,,,,,,,masks/mask_001.jpg,,,,,,,,,,,,,,,,,,,,,,,,,,,,,,,,,,,,,,,,,,,0,0,0,0,1,,,,,,,,,,,,,,,,,,,,,,,,,,,,,,,,,,,,,,,,,,,,,,
365585,001,2022-11-20_17h46.56.628,Info_measure_main_exp,2022.2.2,Win32,74.77753683,,,,,,,,,,,,,,,,,,masks/mask_002.jpg,,,,,,,,,,,,,,,,,,,,,,,,,,,,,,,,,,,,,,,,,,,0,1,1,1,1,,,,,,,,,,,,,,,,,,,,,,,,,,,,,,,,,,,,,,,,,,,,,,
365585,001,2022-11-20_17h46.56.628,Info_measure_main_exp,2022.2.2,Win32,74.77753683,,,,,,,,,,,,,,,,,,masks/mask_004.jpg,,,,,,,,,,,,,,,,,,,,,,,,,,,,,,,,,,,,,,,,,,,0,2,2,3,1,,,,,,,,,,,,,,,,,,,,,,,,,,,,,,,,,,,,,,,,,,,,,,
365585,001,2022-11-20_17h46.56.628,Info_measure_main_exp,2022.2.2,Win32,74.77753683,,,,,,,,,,,,,,,,,,masks/mask_003.jpg,,,,,,,,,,,,,,,,,,,,,,,,,,,,,,,,,,,,,,,,,,,0,3,3,2,1,,,,,,,,,,,,,,,,,,,,,,,,,,,,,,,,,,,,,,,,,,,,,,
365585,001,2022-11-20_17h46.56.628,Info_measure_main_exp,2022.2.2,Win32,74.77753683,,,,,,,,,,,,,,,,,,masks/mask_005.jpg,,,,,,,,,,,,,,,,,,,,,,,,,,,,,,,,,,,,,,,,,,,0,4,4,4,1,,,,,,,,,,,,,,,,,,,,,,,,,,,,,,,,,,,,,,,,,,,,,,
365585,001,2022-11-20_17h46.56.628,Info_measure_main_exp,2022.2.2,Win32,74.77753683,,,,,,,,,,,,,,,,,,masks/mask_001.jpg,,,,,,,,,,,,,,,,,,,,,,,,,,,,,,,,,,,,,,,,,,,,,,,,0,0,0,0,1,,,,,,,,,,,,,,,,,,,,,,,,,,,,,,,,,,,,,,,,,
365585,001,2022-11-20_17h46.56.628,Info_measure_main_exp,2022.2.2,Win32,74.77753683,,,,,,,,,,,,,,,,,,masks/mask_004.jpg,,,,,,,,,,,,,,,,,,,,,,,,,,,,,,,,,,,,,,,,,,,,,,,,0,1,1,3,1,,,,,,,,,,,,,,,,,,,,,,,,,,,,,,,,,,,,,,,,,
365585,001,2022-11-20_17h46.56.628,Info_measure_main_exp,2022.2.2,Win32,74.77753683,,,,,,,,,,,,,,,,,,masks/mask_005.jpg,,,,,,,,,,,,,,,,,,,,,,,,,,,,,,,,,,,,,,,,,,,,,,,,0,2,2,4,1,,,,,,,,,,,,,,,,,,,,,,,,,,,,,,,,,,,,,,,,,
365585,001,2022-11-20_17h46.56.628,Info_measure_main_exp,2022.2.2,Win32,74.77753683,,,,,,,,,,,,,,,,,,masks/mask_003.jpg,,,,,,,,,,,,,,,,,,,,,,,,,,,,,,,,,,,,,,,,,,,,,,,,0,3,3,2,1,,,,,,,,,,,,,,,,,,,,,,,,,,,,,,,,,,,,,,,,,
365585,001,2022-11-20_17h46.56.628,Info_measure_main_exp,2022.2.2,Win32,74.77753683,,,,,,,,,,,,,,,,,,masks/mask_002.jpg,,,,,,,,,,,,,,,,,,,,,,,,,,,,,,,,,,,,,,,,,,,,,,,,0,4,4,1,1,,,,,,,,,,,,,,,,,,,,,,,,,,,,,,,,,,,,,,,,,
365585,001,2022-11-20_17h46.56.628,Info_measure_main_exp,2022.2.2,Win32,74.77753683,,,,,,,,,,,,,,,,,,,,,,,,,,,,,,4,0.7832,1,,,,,,,,,,,,0,131,5,5,2178,2238,absent_patch/patch0002178.jpg,absent_patch/patch0002238.jpg,,,,,,,,,,,,,,,,,,,,0.040740741,-0.113888889,1,0,0,response3disk,18,-0.003703704,-0.002777778,1,0,0,center_square,0,17,17,57,1,,,,,,,,,,,,,,,,,,,,,,,
365585,001,2022-11-20_17h46.56.628,Info_measure_main_exp,2022.2.2,Win32,74.77753683,,,,,,,,,,,,,,,,,,masks/mask_005.jpg,,,,,,,,,,,,,,,,,,,,,,,,,,,,,,,,,,,,,,,,,,,0,0,0,4,1,,,,,,,,,,,,,,,,,,,,,,,,,,,,,,,,,,,,,,,,,,,,,,
365585,001,2022-11-20_17h46.56.628,Info_measure_main_exp,2022.2.2,Win32,74.77753683,,,,,,,,,,,,,,,,,,masks/mask_003.jpg,,,,,,,,,,,,,,,,,,,,,,,,,,,,,,,,,,,,,,,,,,,0,1,1,2,1,,,,,,,,,,,,,,,,,,,,,,,,,,,,,,,,,,,,,,,,,,,,,,
365585,001,2022-11-20_17h46.56.628,Info_measure_main_exp,2022.2.2,Win32,74.77753683,,,,,,,,,,,,,,,,,,masks/mask_004.jpg,,,,,,,,,,,,,,,,,,,,,,,,,,,,,,,,,,,,,,,,,,,0,2,2,3,1,,,,,,,,,,,,,,,,,,,,,,,,,,,,,,,,,,,,,,,,,,,,,,
365585,001,2022-11-20_17h46.56.628,Info_measure_main_exp,2022.2.2,Win32,74.77753683,,,,,,,,,,,,,,,,,,masks/mask_002.jpg,,,,,,,,,,,,,,,,,,,,,,,,,,,,,,,,,,,,,,,,,,,0,3,3,1,1,,,,,,,,,,,,,,,,,,,,,,,,,,,,,,,,,,,,,,,,,,,,,,
365585,001,2022-11-20_17h46.56.628,Info_measure_main_exp,2022.2.2,Win32,74.77753683,,,,,,,,,,,,,,,,,,masks/mask_001.jpg,,,,,,,,,,,,,,,,,,,,,,,,,,,,,,,,,,,,,,,,,,,0,4,4,0,1,,,,,,,,,,,,,,,,,,,,,,,,,,,,,,,,,,,,,,,,,,,,,,
365585,001,2022-11-20_17h46.56.628,Info_measure_main_exp,2022.2.2,Win32,74.77753683,,,,,,,,,,,,,,,,,,masks/mask_002.jpg,,,,,,,,,,,,,,,,,,,,,,,,,,,,,,,,,,,,,,,,,,,,,,,,0,0,0,1,1,,,,,,,,,,,,,,,,,,,,,,,,,,,,,,,,,,,,,,,,,
365585,001,2022-11-20_17h46.56.628,Info_measure_main_exp,2022.2.2,Win32,74.77753683,,,,,,,,,,,,,,,,,,masks/mask_005.jpg,,,,,,,,,,,,,,,,,,,,,,,,,,,,,,,,,,,,,,,,,,,,,,,,0,1,1,4,1,,,,,,,,,,,,,,,,,,,,,,,,,,,,,,,,,,,,,,,,,
365585,001,2022-11-20_17h46.56.628,Info_measure_main_exp,2022.2.2,Win32,74.77753683,,,,,,,,,,,,,,,,,,masks/mask_004.jpg,,,,,,,,,,,,,,,,,,,,,,,,,,,,,,,,,,,,,,,,,,,,,,,,0,2,2,3,1,,,,,,,,,,,,,,,,,,,,,,,,,,,,,,,,,,,,,,,,,
365585,001,2022-11-20_17h46.56.628,Info_measure_main_exp,2022.2.2,Win32,74.77753683,,,,,,,,,,,,,,,,,,masks/mask_001.jpg,,,,,,,,,,,,,,,,,,,,,,,,,,,,,,,,,,,,,,,,,,,,,,,,0,3,3,0,1,,,,,,,,,,,,,,,,,,,,,,,,,,,,,,,,,,,,,,,,,
365585,001,2022-11-20_17h46.56.628,Info_measure_main_exp,2022.2.2,Win32,74.77753683,,,,,,,,,,,,,,,,,,masks/mask_003.jpg,,,,,,,,,,,,,,,,,,,,,,,,,,,,,,,,,,,,,,,,,,,,,,,,0,4,4,2,1,,,,,,,,,,,,,,,,,,,,,,,,,,,,,,,,,,,,,,,,,
365585,001,2022-11-20_17h46.56.628,Info_measure_main_exp,2022.2.2,Win32,74.77753683,,,,,,,,,,,,,,,,,,,,,,,,,,,,,,2,1.7169,1,,,,,,,,,,,,0,131,5,5,2274,2238,absent_patch/patch0002274.jpg,absent_patch/patch0002238.jpg,,,,,,,,,,,,,,,,,,,,-0.087962963,-0.02037037,1,0,0,response5disk,19,-0.003703704,0.006481481,1,0,0,center_square,0,18,18,91,1,,,,,,,,,,,,,,,,,,,,,,,
365585,001,2022-11-20_17h46.56.628,Info_measure_main_exp,2022.2.2,Win32,74.77753683,,,,,,,,,,,,,,,,,,masks/mask_004.jpg,,,,,,,,,,,,,,,,,,,,,,,,,,,,,,,,,,,,,,,,,,,0,0,0,3,1,,,,,,,,,,,,,,,,,,,,,,,,,,,,,,,,,,,,,,,,,,,,,,
365585,001,2022-11-20_17h46.56.628,Info_measure_main_exp,2022.2.2,Win32,74.77753683,,,,,,,,,,,,,,,,,,masks/mask_005.jpg,,,,,,,,,,,,,,,,,,,,,,,,,,,,,,,,,,,,,,,,,,,0,1,1,4,1,,,,,,,,,,,,,,,,,,,,,,,,,,,,,,,,,,,,,,,,,,,,,,
365585,001,2022-11-20_17h46.56.628,Info_measure_main_exp,2022.2.2,Win32,74.77753683,,,,,,,,,,,,,,,,,,masks/mask_003.jpg,,,,,,,,,,,,,,,,,,,,,,,,,,,,,,,,,,,,,,,,,,,0,2,2,2,1,,,,,,,,,,,,,,,,,,,,,,,,,,,,,,,,,,,,,,,,,,,,,,
365585,001,2022-11-20_17h46.56.628,Info_measure_main_exp,2022.2.2,Win32,74.77753683,,,,,,,,,,,,,,,,,,masks/mask_001.jpg,,,,,,,,,,,,,,,,,,,,,,,,,,,,,,,,,,,,,,,,,,,0,3,3,0,1,,,,,,,,,,,,,,,,,,,,,,,,,,,,,,,,,,,,,,,,,,,,,,
365585,001,2022-11-20_17h46.56.628,Info_measure_main_exp,2022.2.2,Win32,74.77753683,,,,,,,,,,,,,,,,,,masks/mask_002.jpg,,,,,,,,,,,,,,,,,,,,,,,,,,,,,,,,,,,,,,,,,,,0,4,4,1,1,,,,,,,,,,,,,,,,,,,,,,,,,,,,,,,,,,,,,,,,,,,,,,
365585,001,2022-11-20_17h46.56.628,Info_measure_main_exp,2022.2.2,Win32,74.77753683,,,,,,,,,,,,,,,,,,masks/mask_002.jpg,,,,,,,,,,,,,,,,,,,,,,,,,,,,,,,,,,,,,,,,,,,,,,,,0,0,0,1,1,,,,,,,,,,,,,,,,,,,,,,,,,,,,,,,,,,,,,,,,,
365585,001,2022-11-20_17h46.56.628,Info_measure_main_exp,2022.2.2,Win32,74.77753683,,,,,,,,,,,,,,,,,,masks/mask_004.jpg,,,,,,,,,,,,,,,,,,,,,,,,,,,,,,,,,,,,,,,,,,,,,,,,0,1,1,3,1,,,,,,,,,,,,,,,,,,,,,,,,,,,,,,,,,,,,,,,,,
365585,001,2022-11-20_17h46.56.628,Info_measure_main_exp,2022.2.2,Win32,74.77753683,,,,,,,,,,,,,,,,,,masks/mask_005.jpg,,,,,,,,,,,,,,,,,,,,,,,,,,,,,,,,,,,,,,,,,,,,,,,,0,2,2,4,1,,,,,,,,,,,,,,,,,,,,,,,,,,,,,,,,,,,,,,,,,
365585,001,2022-11-20_17h46.56.628,Info_measure_main_exp,2022.2.2,Win32,74.77753683,,,,,,,,,,,,,,,,,,masks/mask_001.jpg,,,,,,,,,,,,,,,,,,,,,,,,,,,,,,,,,,,,,,,,,,,,,,,,0,3,3,0,1,,,,,,,,,,,,,,,,,,,,,,,,,,,,,,,,,,,,,,,,,
365585,001,2022-11-20_17h46.56.628,Info_measure_main_exp,2022.2.2,Win32,74.77753683,,,,,,,,,,,,,,,,,,masks/mask_003.jpg,,,,,,,,,,,,,,,,,,,,,,,,,,,,,,,,,,,,,,,,,,,,,,,,0,4,4,2,1,,,,,,,,,,,,,,,,,,,,,,,,,,,,,,,,,,,,,,,,,
365585,001,2022-11-20_17h46.56.628,Info_measure_main_exp,2022.2.2,Win32,74.77753683,,,,,,,,,,,,,,,,,,,,,,,,,,,,,,4,0.9999,1,,,,,,,,,,,,1,131,5,5,2298,1,absent_patch/patch0002298.jpg,present_patch/cong_131_5_a.jpg,,,,,,,,,,,,,,,,,,,,0.041666667,-0.085185185,1,0,0,response3disk,20,0.010185185,0.006481481,1,0,0,center_square,0,19,19,45,1,,,,,,,,,,,,,,,,,,,,,,,
365585,001,2022-11-20_17h46.56.628,Info_measure_main_exp,2022.2.2,Win32,74.77753683,,,,,,,,,,,,,,,,,,masks/mask_001.jpg,,,,,,,,,,,,,,,,,,,,,,,,,,,,,,,,,,,,,,,,,,,0,0,0,0,1,,,,,,,,,,,,,,,,,,,,,,,,,,,,,,,,,,,,,,,,,,,,,,
365585,001,2022-11-20_17h46.56.628,Info_measure_main_exp,2022.2.2,Win32,74.77753683,,,,,,,,,,,,,,,,,,masks/mask_002.jpg,,,,,,,,,,,,,,,,,,,,,,,,,,,,,,,,,,,,,,,,,,,0,1,1,1,1,,,,,,,,,,,,,,,,,,,,,,,,,,,,,,,,,,,,,,,,,,,,,,
365585,001,2022-11-20_17h46.56.628,Info_measure_main_exp,2022.2.2,Win32,74.77753683,,,,,,,,,,,,,,,,,,masks/mask_004.jpg,,,,,,,,,,,,,,,,,,,,,,,,,,,,,,,,,,,,,,,,,,,0,2,2,3,1,,,,,,,,,,,,,,,,,,,,,,,,,,,,,,,,,,,,,,,,,,,,,,
365585,001,2022-11-20_17h46.56.628,Info_measure_main_exp,2022.2.2,Win32,74.77753683,,,,,,,,,,,,,,,,,,masks/mask_005.jpg,,,,,,,,,,,,,,,,,,,,,,,,,,,,,,,,,,,,,,,,,,,0,3,3,4,1,,,,,,,,,,,,,,,,,,,,,,,,,,,,,,,,,,,,,,,,,,,,,,
365585,001,2022-11-20_17h46.56.628,Info_measure_main_exp,2022.2.2,Win32,74.77753683,,,,,,,,,,,,,,,,,,masks/mask_003.jpg,,,,,,,,,,,,,,,,,,,,,,,,,,,,,,,,,,,,,,,,,,,0,4,4,2,1,,,,,,,,,,,,,,,,,,,,,,,,,,,,,,,,,,,,,,,,,,,,,,
365585,001,2022-11-20_17h46.56.628,Info_measure_main_exp,2022.2.2,Win32,74.77753683,,,,,,,,,,,,,,,,,,masks/mask_004.jpg,,,,,,,,,,,,,,,,,,,,,,,,,,,,,,,,,,,,,,,,,,,,,,,,0,0,0,3,1,,,,,,,,,,,,,,,,,,,,,,,,,,,,,,,,,,,,,,,,,
365585,001,2022-11-20_17h46.56.628,Info_measure_main_exp,2022.2.2,Win32,74.77753683,,,,,,,,,,,,,,,,,,masks/mask_002.jpg,,,,,,,,,,,,,,,,,,,,,,,,,,,,,,,,,,,,,,,,,,,,,,,,0,1,1,1,1,,,,,,,,,,,,,,,,,,,,,,,,,,,,,,,,,,,,,,,,,
365585,001,2022-11-20_17h46.56.628,Info_measure_main_exp,2022.2.2,Win32,74.77753683,,,,,,,,,,,,,,,,,,masks/mask_005.jpg,,,,,,,,,,,,,,,,,,,,,,,,,,,,,,,,,,,,,,,,,,,,,,,,0,2,2,4,1,,,,,,,,,,,,,,,,,,,,,,,,,,,,,,,,,,,,,,,,,
365585,001,2022-11-20_17h46.56.628,Info_measure_main_exp,2022.2.2,Win32,74.77753683,,,,,,,,,,,,,,,,,,masks/mask_003.jpg,,,,,,,,,,,,,,,,,,,,,,,,,,,,,,,,,,,,,,,,,,,,,,,,0,3,3,2,1,,,,,,,,,,,,,,,,,,,,,,,,,,,,,,,,,,,,,,,,,
365585,001,2022-11-20_17h46.56.628,Info_measure_main_exp,2022.2.2,Win32,74.77753683,,,,,,,,,,,,,,,,,,masks/mask_001.jpg,,,,,,,,,,,,,,,,,,,,,,,,,,,,,,,,,,,,,,,,,,,,,,,,0,4,4,0,1,,,,,,,,,,,,,,,,,,,,,,,,,,,,,,,,,,,,,,,,,
365585,001,2022-11-20_17h46.56.628,Info_measure_main_exp,2022.2.2,Win32,74.77753683,,,,,,,,,,,,,,,,,,,,,,,,,,,,,,5,0.8167,1,,,,,,,,,,,,0,131,5,5,2142,2154,absent_patch/patch0002142.jpg,absent_patch/patch0002154.jpg,,,,,,,,,,,,,,,,,,,,0.059259259,-0.025925926,1,0,0,response3disk,21,-0.001851852,0.005555556,1,0,0,center_square,0,20,20,9,1,,,,,,,,,,,,,,,,,,,,,,,
365585,001,2022-11-20_17h46.56.628,Info_measure_main_exp,2022.2.2,Win32,74.77753683,,,,,,,,,,,,,,,,,,masks/mask_005.jpg,,,,,,,,,,,,,,,,,,,,,,,,,,,,,,,,,,,,,,,,,,,0,0,0,4,1,,,,,,,,,,,,,,,,,,,,,,,,,,,,,,,,,,,,,,,,,,,,,,
365585,001,2022-11-20_17h46.56.628,Info_measure_main_exp,2022.2.2,Win32,74.77753683,,,,,,,,,,,,,,,,,,masks/mask_002.jpg,,,,,,,,,,,,,,,,,,,,,,,,,,,,,,,,,,,,,,,,,,,0,1,1,1,1,,,,,,,,,,,,,,,,,,,,,,,,,,,,,,,,,,,,,,,,,,,,,,
365585,001,2022-11-20_17h46.56.628,Info_measure_main_exp,2022.2.2,Win32,74.77753683,,,,,,,,,,,,,,,,,,masks/mask_001.jpg,,,,,,,,,,,,,,,,,,,,,,,,,,,,,,,,,,,,,,,,,,,0,2,2,0,1,,,,,,,,,,,,,,,,,,,,,,,,,,,,,,,,,,,,,,,,,,,,,,
365585,001,2022-11-20_17h46.56.628,Info_measure_main_exp,2022.2.2,Win32,74.77753683,,,,,,,,,,,,,,,,,,masks/mask_004.jpg,,,,,,,,,,,,,,,,,,,,,,,,,,,,,,,,,,,,,,,,,,,0,3,3,3,1,,,,,,,,,,,,,,,,,,,,,,,,,,,,,,,,,,,,,,,,,,,,,,
365585,001,2022-11-20_17h46.56.628,Info_measure_main_exp,2022.2.2,Win32,74.77753683,,,,,,,,,,,,,,,,,,masks/mask_003.jpg,,,,,,,,,,,,,,,,,,,,,,,,,,,,,,,,,,,,,,,,,,,0,4,4,2,1,,,,,,,,,,,,,,,,,,,,,,,,,,,,,,,,,,,,,,,,,,,,,,
365585,001,2022-11-20_17h46.56.628,Info_measure_main_exp,2022.2.2,Win32,74.77753683,,,,,,,,,,,,,,,,,,masks/mask_003.jpg,,,,,,,,,,,,,,,,,,,,,,,,,,,,,,,,,,,,,,,,,,,,,,,,0,0,0,2,1,,,,,,,,,,,,,,,,,,,,,,,,,,,,,,,,,,,,,,,,,
365585,001,2022-11-20_17h46.56.628,Info_measure_main_exp,2022.2.2,Win32,74.77753683,,,,,,,,,,,,,,,,,,masks/mask_005.jpg,,,,,,,,,,,,,,,,,,,,,,,,,,,,,,,,,,,,,,,,,,,,,,,,0,1,1,4,1,,,,,,,,,,,,,,,,,,,,,,,,,,,,,,,,,,,,,,,,,
365585,001,2022-11-20_17h46.56.628,Info_measure_main_exp,2022.2.2,Win32,74.77753683,,,,,,,,,,,,,,,,,,masks/mask_004.jpg,,,,,,,,,,,,,,,,,,,,,,,,,,,,,,,,,,,,,,,,,,,,,,,,0,2,2,3,1,,,,,,,,,,,,,,,,,,,,,,,,,,,,,,,,,,,,,,,,,
365585,001,2022-11-20_17h46.56.628,Info_measure_main_exp,2022.2.2,Win32,74.77753683,,,,,,,,,,,,,,,,,,masks/mask_001.jpg,,,,,,,,,,,,,,,,,,,,,,,,,,,,,,,,,,,,,,,,,,,,,,,,0,3,3,0,1,,,,,,,,,,,,,,,,,,,,,,,,,,,,,,,,,,,,,,,,,
365585,001,2022-11-20_17h46.56.628,Info_measure_main_exp,2022.2.2,Win32,74.77753683,,,,,,,,,,,,,,,,,,masks/mask_002.jpg,,,,,,,,,,,,,,,,,,,,,,,,,,,,,,,,,,,,,,,,,,,,,,,,0,4,4,1,1,,,,,,,,,,,,,,,,,,,,,,,,,,,,,,,,,,,,,,,,,
365585,001,2022-11-20_17h46.56.628,Info_measure_main_exp,2022.2.2,Win32,74.77753683,,,,,,,,,,,,,,,,,,,,,,,,,,,,,,0,0.7332,1,,,,,,,,,,,,0,131,5,5,2238,2238,absent_patch/patch0002238.jpg,absent_patch/patch0002238.jpg,,,,,,,,,,,,,,,,,,,,-0.025,0.067592593,1,0,0,response7disk,22,-0.005555556,0.00462963,1,0,0,center_square,0,21,21,58,1,,,,,,,,,,,,,,,,,,,,,,,
365585,001,2022-11-20_17h46.56.628,Info_measure_main_exp,2022.2.2,Win32,74.77753683,,,,,,,,,,,,,,,,,,masks/mask_005.jpg,,,,,,,,,,,,,,,,,,,,,,,,,,,,,,,,,,,,,,,,,,,0,0,0,4,1,,,,,,,,,,,,,,,,,,,,,,,,,,,,,,,,,,,,,,,,,,,,,,
365585,001,2022-11-20_17h46.56.628,Info_measure_main_exp,2022.2.2,Win32,74.77753683,,,,,,,,,,,,,,,,,,masks/mask_001.jpg,,,,,,,,,,,,,,,,,,,,,,,,,,,,,,,,,,,,,,,,,,,0,1,1,0,1,,,,,,,,,,,,,,,,,,,,,,,,,,,,,,,,,,,,,,,,,,,,,,
365585,001,2022-11-20_17h46.56.628,Info_measure_main_exp,2022.2.2,Win32,74.77753683,,,,,,,,,,,,,,,,,,masks/mask_003.jpg,,,,,,,,,,,,,,,,,,,,,,,,,,,,,,,,,,,,,,,,,,,0,2,2,2,1,,,,,,,,,,,,,,,,,,,,,,,,,,,,,,,,,,,,,,,,,,,,,,
365585,001,2022-11-20_17h46.56.628,Info_measure_main_exp,2022.2.2,Win32,74.77753683,,,,,,,,,,,,,,,,,,masks/mask_004.jpg,,,,,,,,,,,,,,,,,,,,,,,,,,,,,,,,,,,,,,,,,,,0,3,3,3,1,,,,,,,,,,,,,,,,,,,,,,,,,,,,,,,,,,,,,,,,,,,,,,
365585,001,2022-11-20_17h46.56.628,Info_measure_main_exp,2022.2.2,Win32,74.77753683,,,,,,,,,,,,,,,,,,masks/mask_002.jpg,,,,,,,,,,,,,,,,,,,,,,,,,,,,,,,,,,,,,,,,,,,0,4,4,1,1,,,,,,,,,,,,,,,,,,,,,,,,,,,,,,,,,,,,,,,,,,,,,,
365585,001,2022-11-20_17h46.56.628,Info_measure_main_exp,2022.2.2,Win32,74.77753683,,,,,,,,,,,,,,,,,,masks/mask_002.jpg,,,,,,,,,,,,,,,,,,,,,,,,,,,,,,,,,,,,,,,,,,,,,,,,0,0,0,1,1,,,,,,,,,,,,,,,,,,,,,,,,,,,,,,,,,,,,,,,,,
365585,001,2022-11-20_17h46.56.628,Info_measure_main_exp,2022.2.2,Win32,74.77753683,,,,,,,,,,,,,,,,,,masks/mask_005.jpg,,,,,,,,,,,,,,,,,,,,,,,,,,,,,,,,,,,,,,,,,,,,,,,,0,1,1,4,1,,,,,,,,,,,,,,,,,,,,,,,,,,,,,,,,,,,,,,,,,
365585,001,2022-11-20_17h46.56.628,Info_measure_main_exp,2022.2.2,Win32,74.77753683,,,,,,,,,,,,,,,,,,masks/mask_003.jpg,,,,,,,,,,,,,,,,,,,,,,,,,,,,,,,,,,,,,,,,,,,,,,,,0,2,2,2,1,,,,,,,,,,,,,,,,,,,,,,,,,,,,,,,,,,,,,,,,,
365585,001,2022-11-20_17h46.56.628,Info_measure_main_exp,2022.2.2,Win32,74.77753683,,,,,,,,,,,,,,,,,,masks/mask_004.jpg,,,,,,,,,,,,,,,,,,,,,,,,,,,,,,,,,,,,,,,,,,,,,,,,0,3,3,3,1,,,,,,,,,,,,,,,,,,,,,,,,,,,,,,,,,,,,,,,,,
365585,001,2022-11-20_17h46.56.628,Info_measure_main_exp,2022.2.2,Win32,74.77753683,,,,,,,,,,,,,,,,,,masks/mask_001.jpg,,,,,,,,,,,,,,,,,,,,,,,,,,,,,,,,,,,,,,,,,,,,,,,,0,4,4,0,1,,,,,,,,,,,,,,,,,,,,,,,,,,,,,,,,,,,,,,,,,
365585,001,2022-11-20_17h46.56.628,Info_measure_main_exp,2022.2.2,Win32,74.77753683,,,,,,,,,,,,,,,,,,,,,,,,,,,,,,3,1.1666,1,,,,,,,,,,,,1,131,5,5,2238,1,absent_patch/patch0002238.jpg,present_patch/cong_131_5_a.jpg,,,,,,,,,,,,,,,,,,,,-0.026851852,-0.053703704,1,0,0,response5disk,23,-0.00462963,-0.003703704,1,0,0,center_square,0,22,22,104,1,,,,,,,,,,,,,,,,,,,,,,,
365585,001,2022-11-20_17h46.56.628,Info_measure_main_exp,2022.2.2,Win32,74.77753683,,,,,,,,,,,,,,,,,,masks/mask_005.jpg,,,,,,,,,,,,,,,,,,,,,,,,,,,,,,,,,,,,,,,,,,,0,0,0,4,1,,,,,,,,,,,,,,,,,,,,,,,,,,,,,,,,,,,,,,,,,,,,,,
365585,001,2022-11-20_17h46.56.628,Info_measure_main_exp,2022.2.2,Win32,74.77753683,,,,,,,,,,,,,,,,,,masks/mask_004.jpg,,,,,,,,,,,,,,,,,,,,,,,,,,,,,,,,,,,,,,,,,,,0,1,1,3,1,,,,,,,,,,,,,,,,,,,,,,,,,,,,,,,,,,,,,,,,,,,,,,
365585,001,2022-11-20_17h46.56.628,Info_measure_main_exp,2022.2.2,Win32,74.77753683,,,,,,,,,,,,,,,,,,masks/mask_001.jpg,,,,,,,,,,,,,,,,,,,,,,,,,,,,,,,,,,,,,,,,,,,0,2,2,0,1,,,,,,,,,,,,,,,,,,,,,,,,,,,,,,,,,,,,,,,,,,,,,,
365585,001,2022-11-20_17h46.56.628,Info_measure_main_exp,2022.2.2,Win32,74.77753683,,,,,,,,,,,,,,,,,,masks/mask_003.jpg,,,,,,,,,,,,,,,,,,,,,,,,,,,,,,,,,,,,,,,,,,,0,3,3,2,1,,,,,,,,,,,,,,,,,,,,,,,,,,,,,,,,,,,,,,,,,,,,,,
365585,001,2022-11-20_17h46.56.628,Info_measure_main_exp,2022.2.2,Win32,74.77753683,,,,,,,,,,,,,,,,,,masks/mask_002.jpg,,,,,,,,,,,,,,,,,,,,,,,,,,,,,,,,,,,,,,,,,,,0,4,4,1,1,,,,,,,,,,,,,,,,,,,,,,,,,,,,,,,,,,,,,,,,,,,,,,
365585,001,2022-11-20_17h46.56.628,Info_measure_main_exp,2022.2.2,Win32,74.77753683,,,,,,,,,,,,,,,,,,masks/mask_004.jpg,,,,,,,,,,,,,,,,,,,,,,,,,,,,,,,,,,,,,,,,,,,,,,,,0,0,0,3,1,,,,,,,,,,,,,,,,,,,,,,,,,,,,,,,,,,,,,,,,,
365585,001,2022-11-20_17h46.56.628,Info_measure_main_exp,2022.2.2,Win32,74.77753683,,,,,,,,,,,,,,,,,,masks/mask_003.jpg,,,,,,,,,,,,,,,,,,,,,,,,,,,,,,,,,,,,,,,,,,,,,,,,0,1,1,2,1,,,,,,,,,,,,,,,,,,,,,,,,,,,,,,,,,,,,,,,,,
365585,001,2022-11-20_17h46.56.628,Info_measure_main_exp,2022.2.2,Win32,74.77753683,,,,,,,,,,,,,,,,,,masks/mask_002.jpg,,,,,,,,,,,,,,,,,,,,,,,,,,,,,,,,,,,,,,,,,,,,,,,,0,2,2,1,1,,,,,,,,,,,,,,,,,,,,,,,,,,,,,,,,,,,,,,,,,
365585,001,2022-11-20_17h46.56.628,Info_measure_main_exp,2022.2.2,Win32,74.77753683,,,,,,,,,,,,,,,,,,masks/mask_001.jpg,,,,,,,,,,,,,,,,,,,,,,,,,,,,,,,,,,,,,,,,,,,,,,,,0,3,3,0,1,,,,,,,,,,,,,,,,,,,,,,,,,,,,,,,,,,,,,,,,,
365585,001,2022-11-20_17h46.56.628,Info_measure_main_exp,2022.2.2,Win32,74.77753683,,,,,,,,,,,,,,,,,,masks/mask_005.jpg,,,,,,,,,,,,,,,,,,,,,,,,,,,,,,,,,,,,,,,,,,,,,,,,0,4,4,4,1,,,,,,,,,,,,,,,,,,,,,,,,,,,,,,,,,,,,,,,,,
365585,001,2022-11-20_17h46.56.628,Info_measure_main_exp,2022.2.2,Win32,74.77753683,,,,,,,,,,,,,,,,,,,,,,,,,,,,,,4,1.5667,1,,,,,,,,,,,,0,131,5,5,2142,2238,absent_patch/patch0002142.jpg,absent_patch/patch0002238.jpg,,,,,,,,,,,,,,,,,,,,0.047222222,-0.068518519,1,0,0,response3disk,24,0.00462963,0.002777778,1,0,0,center_square,0,23,23,101,1,,,,,,,,,,,,,,,,,,,,,,,
365585,001,2022-11-20_17h46.56.628,Info_measure_main_exp,2022.2.2,Win32,74.77753683,,,,,,,,,,,,,,,,,,masks/mask_001.jpg,,,,,,,,,,,,,,,,,,,,,,,,,,,,,,,,,,,,,,,,,,,0,0,0,0,1,,,,,,,,,,,,,,,,,,,,,,,,,,,,,,,,,,,,,,,,,,,,,,
365585,001,2022-11-20_17h46.56.628,Info_measure_main_exp,2022.2.2,Win32,74.77753683,,,,,,,,,,,,,,,,,,masks/mask_004.jpg,,,,,,,,,,,,,,,,,,,,,,,,,,,,,,,,,,,,,,,,,,,0,1,1,3,1,,,,,,,,,,,,,,,,,,,,,,,,,,,,,,,,,,,,,,,,,,,,,,
365585,001,2022-11-20_17h46.56.628,Info_measure_main_exp,2022.2.2,Win32,74.77753683,,,,,,,,,,,,,,,,,,masks/mask_005.jpg,,,,,,,,,,,,,,,,,,,,,,,,,,,,,,,,,,,,,,,,,,,0,2,2,4,1,,,,,,,,,,,,,,,,,,,,,,,,,,,,,,,,,,,,,,,,,,,,,,
365585,001,2022-11-20_17h46.56.628,Info_measure_main_exp,2022.2.2,Win32,74.77753683,,,,,,,,,,,,,,,,,,masks/mask_002.jpg,,,,,,,,,,,,,,,,,,,,,,,,,,,,,,,,,,,,,,,,,,,0,3,3,1,1,,,,,,,,,,,,,,,,,,,,,,,,,,,,,,,,,,,,,,,,,,,,,,
365585,001,2022-11-20_17h46.56.628,Info_measure_main_exp,2022.2.2,Win32,74.77753683,,,,,,,,,,,,,,,,,,masks/mask_003.jpg,,,,,,,,,,,,,,,,,,,,,,,,,,,,,,,,,,,,,,,,,,,0,4,4,2,1,,,,,,,,,,,,,,,,,,,,,,,,,,,,,,,,,,,,,,,,,,,,,,
365585,001,2022-11-20_17h46.56.628,Info_measure_main_exp,2022.2.2,Win32,74.77753683,,,,,,,,,,,,,,,,,,masks/mask_002.jpg,,,,,,,,,,,,,,,,,,,,,,,,,,,,,,,,,,,,,,,,,,,,,,,,0,0,0,1,1,,,,,,,,,,,,,,,,,,,,,,,,,,,,,,,,,,,,,,,,,
365585,001,2022-11-20_17h46.56.628,Info_measure_main_exp,2022.2.2,Win32,74.77753683,,,,,,,,,,,,,,,,,,masks/mask_001.jpg,,,,,,,,,,,,,,,,,,,,,,,,,,,,,,,,,,,,,,,,,,,,,,,,0,1,1,0,1,,,,,,,,,,,,,,,,,,,,,,,,,,,,,,,,,,,,,,,,,
365585,001,2022-11-20_17h46.56.628,Info_measure_main_exp,2022.2.2,Win32,74.77753683,,,,,,,,,,,,,,,,,,masks/mask_004.jpg,,,,,,,,,,,,,,,,,,,,,,,,,,,,,,,,,,,,,,,,,,,,,,,,0,2,2,3,1,,,,,,,,,,,,,,,,,,,,,,,,,,,,,,,,,,,,,,,,,
365585,001,2022-11-20_17h46.56.628,Info_measure_main_exp,2022.2.2,Win32,74.77753683,,,,,,,,,,,,,,,,,,masks/mask_003.jpg,,,,,,,,,,,,,,,,,,,,,,,,,,,,,,,,,,,,,,,,,,,,,,,,0,3,3,2,1,,,,,,,,,,,,,,,,,,,,,,,,,,,,,,,,,,,,,,,,,
365585,001,2022-11-20_17h46.56.628,Info_measure_main_exp,2022.2.2,Win32,74.77753683,,,,,,,,,,,,,,,,,,masks/mask_005.jpg,,,,,,,,,,,,,,,,,,,,,,,,,,,,,,,,,,,,,,,,,,,,,,,,0,4,4,4,1,,,,,,,,,,,,,,,,,,,,,,,,,,,,,,,,,,,,,,,,,
365585,001,2022-11-20_17h46.56.628,Info_measure_main_exp,2022.2.2,Win32,74.77753683,,,,,,,,,,,,,,,,,,,,,,,,,,,,,,3,1.1332,1,,,,,,,,,,,,0,131,5,5,2274,2154,absent_patch/patch0002274.jpg,absent_patch/patch0002154.jpg,,,,,,,,,,,,,,,,,,,,-0.025925926,-0.07037037,1,0,0,response5disk,25,-0.011111111,0.00462963,1,0,0,center_square,0,24,24,23,1,,,,,,,,,,,,,,,,,,,,,,,
365585,001,2022-11-20_17h46.56.628,Info_measure_main_exp,2022.2.2,Win32,74.77753683,,,,,,,,,,,,,,,,,,masks/mask_005.jpg,,,,,,,,,,,,,,,,,,,,,,,,,,,,,,,,,,,,,,,,,,,0,0,0,4,1,,,,,,,,,,,,,,,,,,,,,,,,,,,,,,,,,,,,,,,,,,,,,,
365585,001,2022-11-20_17h46.56.628,Info_measure_main_exp,2022.2.2,Win32,74.77753683,,,,,,,,,,,,,,,,,,masks/mask_002.jpg,,,,,,,,,,,,,,,,,,,,,,,,,,,,,,,,,,,,,,,,,,,0,1,1,1,1,,,,,,,,,,,,,,,,,,,,,,,,,,,,,,,,,,,,,,,,,,,,,,
365585,001,2022-11-20_17h46.56.628,Info_measure_main_exp,2022.2.2,Win32,74.77753683,,,,,,,,,,,,,,,,,,masks/mask_001.jpg,,,,,,,,,,,,,,,,,,,,,,,,,,,,,,,,,,,,,,,,,,,0,2,2,0,1,,,,,,,,,,,,,,,,,,,,,,,,,,,,,,,,,,,,,,,,,,,,,,
365585,001,2022-11-20_17h46.56.628,Info_measure_main_exp,2022.2.2,Win32,74.77753683,,,,,,,,,,,,,,,,,,masks/mask_004.jpg,,,,,,,,,,,,,,,,,,,,,,,,,,,,,,,,,,,,,,,,,,,0,3,3,3,1,,,,,,,,,,,,,,,,,,,,,,,,,,,,,,,,,,,,,,,,,,,,,,
365585,001,2022-11-20_17h46.56.628,Info_measure_main_exp,2022.2.2,Win32,74.77753683,,,,,,,,,,,,,,,,,,masks/mask_003.jpg,,,,,,,,,,,,,,,,,,,,,,,,,,,,,,,,,,,,,,,,,,,0,4,4,2,1,,,,,,,,,,,,,,,,,,,,,,,,,,,,,,,,,,,,,,,,,,,,,,
365585,001,2022-11-20_17h46.56.628,Info_measure_main_exp,2022.2.2,Win32,74.77753683,,,,,,,,,,,,,,,,,,masks/mask_001.jpg,,,,,,,,,,,,,,,,,,,,,,,,,,,,,,,,,,,,,,,,,,,,,,,,0,0,0,0,1,,,,,,,,,,,,,,,,,,,,,,,,,,,,,,,,,,,,,,,,,
365585,001,2022-11-20_17h46.56.628,Info_measure_main_exp,2022.2.2,Win32,74.77753683,,,,,,,,,,,,,,,,,,masks/mask_004.jpg,,,,,,,,,,,,,,,,,,,,,,,,,,,,,,,,,,,,,,,,,,,,,,,,0,1,1,3,1,,,,,,,,,,,,,,,,,,,,,,,,,,,,,,,,,,,,,,,,,
365585,001,2022-11-20_17h46.56.628,Info_measure_main_exp,2022.2.2,Win32,74.77753683,,,,,,,,,,,,,,,,,,masks/mask_002.jpg,,,,,,,,,,,,,,,,,,,,,,,,,,,,,,,,,,,,,,,,,,,,,,,,0,2,2,1,1,,,,,,,,,,,,,,,,,,,,,,,,,,,,,,,,,,,,,,,,,
365585,001,2022-11-20_17h46.56.628,Info_measure_main_exp,2022.2.2,Win32,74.77753683,,,,,,,,,,,,,,,,,,masks/mask_005.jpg,,,,,,,,,,,,,,,,,,,,,,,,,,,,,,,,,,,,,,,,,,,,,,,,0,3,3,4,1,,,,,,,,,,,,,,,,,,,,,,,,,,,,,,,,,,,,,,,,,
365585,001,2022-11-20_17h46.56.628,Info_measure_main_exp,2022.2.2,Win32,74.77753683,,,,,,,,,,,,,,,,,,masks/mask_003.jpg,,,,,,,,,,,,,,,,,,,,,,,,,,,,,,,,,,,,,,,,,,,,,,,,0,4,4,2,1,,,,,,,,,,,,,,,,,,,,,,,,,,,,,,,,,,,,,,,,,
365585,001,2022-11-20_17h46.56.628,Info_measure_main_exp,2022.2.2,Win32,74.77753683,,,,,,,,,,,,,,,,,,,,,,,,,,,,,,0,0.8499,1,,,,,,,,,,,,0,131,5,5,2142,2142,absent_patch/patch0002142.jpg,absent_patch/patch0002142.jpg,,,,,,,,,,,,,,,,,,,,-0.040740741,0.082407407,1,0,0,response7disk,26,0.000925926,0.005555556,1,0,0,center_square,0,25,25,13,1,,,,,,,,,,,,,,,,,,,,,,,
365585,001,2022-11-20_17h46.56.628,Info_measure_main_exp,2022.2.2,Win32,74.77753683,,,,,,,,,,,,,,,,,,masks/mask_001.jpg,,,,,,,,,,,,,,,,,,,,,,,,,,,,,,,,,,,,,,,,,,,0,0,0,0,1,,,,,,,,,,,,,,,,,,,,,,,,,,,,,,,,,,,,,,,,,,,,,,
365585,001,2022-11-20_17h46.56.628,Info_measure_main_exp,2022.2.2,Win32,74.77753683,,,,,,,,,,,,,,,,,,masks/mask_005.jpg,,,,,,,,,,,,,,,,,,,,,,,,,,,,,,,,,,,,,,,,,,,0,1,1,4,1,,,,,,,,,,,,,,,,,,,,,,,,,,,,,,,,,,,,,,,,,,,,,,
365585,001,2022-11-20_17h46.56.628,Info_measure_main_exp,2022.2.2,Win32,74.77753683,,,,,,,,,,,,,,,,,,masks/mask_002.jpg,,,,,,,,,,,,,,,,,,,,,,,,,,,,,,,,,,,,,,,,,,,0,2,2,1,1,,,,,,,,,,,,,,,,,,,,,,,,,,,,,,,,,,,,,,,,,,,,,,
365585,001,2022-11-20_17h46.56.628,Info_measure_main_exp,2022.2.2,Win32,74.77753683,,,,,,,,,,,,,,,,,,masks/mask_004.jpg,,,,,,,,,,,,,,,,,,,,,,,,,,,,,,,,,,,,,,,,,,,0,3,3,3,1,,,,,,,,,,,,,,,,,,,,,,,,,,,,,,,,,,,,,,,,,,,,,,
365585,001,2022-11-20_17h46.56.628,Info_measure_main_exp,2022.2.2,Win32,74.77753683,,,,,,,,,,,,,,,,,,masks/mask_003.jpg,,,,,,,,,,,,,,,,,,,,,,,,,,,,,,,,,,,,,,,,,,,0,4,4,2,1,,,,,,,,,,,,,,,,,,,,,,,,,,,,,,,,,,,,,,,,,,,,,,
365585,001,2022-11-20_17h46.56.628,Info_measure_main_exp,2022.2.2,Win32,74.77753683,,,,,,,,,,,,,,,,,,masks/mask_004.jpg,,,,,,,,,,,,,,,,,,,,,,,,,,,,,,,,,,,,,,,,,,,,,,,,0,0,0,3,1,,,,,,,,,,,,,,,,,,,,,,,,,,,,,,,,,,,,,,,,,
365585,001,2022-11-20_17h46.56.628,Info_measure_main_exp,2022.2.2,Win32,74.77753683,,,,,,,,,,,,,,,,,,masks/mask_001.jpg,,,,,,,,,,,,,,,,,,,,,,,,,,,,,,,,,,,,,,,,,,,,,,,,0,1,1,0,1,,,,,,,,,,,,,,,,,,,,,,,,,,,,,,,,,,,,,,,,,
365585,001,2022-11-20_17h46.56.628,Info_measure_main_exp,2022.2.2,Win32,74.77753683,,,,,,,,,,,,,,,,,,masks/mask_005.jpg,,,,,,,,,,,,,,,,,,,,,,,,,,,,,,,,,,,,,,,,,,,,,,,,0,2,2,4,1,,,,,,,,,,,,,,,,,,,,,,,,,,,,,,,,,,,,,,,,,
365585,001,2022-11-20_17h46.56.628,Info_measure_main_exp,2022.2.2,Win32,74.77753683,,,,,,,,,,,,,,,,,,masks/mask_002.jpg,,,,,,,,,,,,,,,,,,,,,,,,,,,,,,,,,,,,,,,,,,,,,,,,0,3,3,1,1,,,,,,,,,,,,,,,,,,,,,,,,,,,,,,,,,,,,,,,,,
365585,001,2022-11-20_17h46.56.628,Info_measure_main_exp,2022.2.2,Win32,74.77753683,,,,,,,,,,,,,,,,,,masks/mask_003.jpg,,,,,,,,,,,,,,,,,,,,,,,,,,,,,,,,,,,,,,,,,,,,,,,,0,4,4,2,1,,,,,,,,,,,,,,,,,,,,,,,,,,,,,,,,,,,,,,,,,
365585,001,2022-11-20_17h46.56.628,Info_measure_main_exp,2022.2.2,Win32,74.77753683,,,,,,,,,,,,,,,,,,,,,,,,,,,,,,4,0.8833,1,,,,,,,,,,,,0,131,5,5,2298,2178,absent_patch/patch0002298.jpg,absent_patch/patch0002178.jpg,,,,,,,,,,,,,,,,,,,,0.018518519,-0.097222222,1,0,0,response3disk,27,-0.008333333,0.007407407,1,0,0,center_square,0,26,26,84,1,,,,,,,,,,,,,,,,,,,,,,,
365585,001,2022-11-20_17h46.56.628,Info_measure_main_exp,2022.2.2,Win32,74.77753683,,,,,,,,,,,,,,,,,,masks/mask_004.jpg,,,,,,,,,,,,,,,,,,,,,,,,,,,,,,,,,,,,,,,,,,,0,0,0,3,1,,,,,,,,,,,,,,,,,,,,,,,,,,,,,,,,,,,,,,,,,,,,,,
365585,001,2022-11-20_17h46.56.628,Info_measure_main_exp,2022.2.2,Win32,74.77753683,,,,,,,,,,,,,,,,,,masks/mask_002.jpg,,,,,,,,,,,,,,,,,,,,,,,,,,,,,,,,,,,,,,,,,,,0,1,1,1,1,,,,,,,,,,,,,,,,,,,,,,,,,,,,,,,,,,,,,,,,,,,,,,
365585,001,2022-11-20_17h46.56.628,Info_measure_main_exp,2022.2.2,Win32,74.77753683,,,,,,,,,,,,,,,,,,masks/mask_003.jpg,,,,,,,,,,,,,,,,,,,,,,,,,,,,,,,,,,,,,,,,,,,0,2,2,2,1,,,,,,,,,,,,,,,,,,,,,,,,,,,,,,,,,,,,,,,,,,,,,,
365585,001,2022-11-20_17h46.56.628,Info_measure_main_exp,2022.2.2,Win32,74.77753683,,,,,,,,,,,,,,,,,,masks/mask_001.jpg,,,,,,,,,,,,,,,,,,,,,,,,,,,,,,,,,,,,,,,,,,,0,3,3,0,1,,,,,,,,,,,,,,,,,,,,,,,,,,,,,,,,,,,,,,,,,,,,,,
365585,001,2022-11-20_17h46.56.628,Info_measure_main_exp,2022.2.2,Win32,74.77753683,,,,,,,,,,,,,,,,,,masks/mask_005.jpg,,,,,,,,,,,,,,,,,,,,,,,,,,,,,,,,,,,,,,,,,,,0,4,4,4,1,,,,,,,,,,,,,,,,,,,,,,,,,,,,,,,,,,,,,,,,,,,,,,
365585,001,2022-11-20_17h46.56.628,Info_measure_main_exp,2022.2.2,Win32,74.77753683,,,,,,,,,,,,,,,,,,masks/mask_002.jpg,,,,,,,,,,,,,,,,,,,,,,,,,,,,,,,,,,,,,,,,,,,,,,,,0,0,0,1,1,,,,,,,,,,,,,,,,,,,,,,,,,,,,,,,,,,,,,,,,,
365585,001,2022-11-20_17h46.56.628,Info_measure_main_exp,2022.2.2,Win32,74.77753683,,,,,,,,,,,,,,,,,,masks/mask_003.jpg,,,,,,,,,,,,,,,,,,,,,,,,,,,,,,,,,,,,,,,,,,,,,,,,0,1,1,2,1,,,,,,,,,,,,,,,,,,,,,,,,,,,,,,,,,,,,,,,,,
365585,001,2022-11-20_17h46.56.628,Info_measure_main_exp,2022.2.2,Win32,74.77753683,,,,,,,,,,,,,,,,,,masks/mask_001.jpg,,,,,,,,,,,,,,,,,,,,,,,,,,,,,,,,,,,,,,,,,,,,,,,,0,2,2,0,1,,,,,,,,,,,,,,,,,,,,,,,,,,,,,,,,,,,,,,,,,
365585,001,2022-11-20_17h46.56.628,Info_measure_main_exp,2022.2.2,Win32,74.77753683,,,,,,,,,,,,,,,,,,masks/mask_005.jpg,,,,,,,,,,,,,,,,,,,,,,,,,,,,,,,,,,,,,,,,,,,,,,,,0,3,3,4,1,,,,,,,,,,,,,,,,,,,,,,,,,,,,,,,,,,,,,,,,,
365585,001,2022-11-20_17h46.56.628,Info_measure_main_exp,2022.2.2,Win32,74.77753683,,,,,,,,,,,,,,,,,,masks/mask_004.jpg,,,,,,,,,,,,,,,,,,,,,,,,,,,,,,,,,,,,,,,,,,,,,,,,0,4,4,3,1,,,,,,,,,,,,,,,,,,,,,,,,,,,,,,,,,,,,,,,,,
365585,001,2022-11-20_17h46.56.628,Info_measure_main_exp,2022.2.2,Win32,74.77753683,,,,,,,,,,,,,,,,,,,,,,,,,,,,,,5,1.0498,1,,,,,,,,,,,,0,131,5,5,2250,2142,absent_patch/patch0002250.jpg,absent_patch/patch0002142.jpg,,,,,,,,,,,,,,,,,,,,0.076851852,-0.024074074,1,0,0,response3disk,28,0.007407407,0.007407407,1,0,0,center_square,0,27,27,71,1,,,,,,,,,,,,,,,,,,,,,,,
365585,001,2022-11-20_17h46.56.628,Info_measure_main_exp,2022.2.2,Win32,74.77753683,,,,,,,,,,,,,,,,,,masks/mask_001.jpg,,,,,,,,,,,,,,,,,,,,,,,,,,,,,,,,,,,,,,,,,,,0,0,0,0,1,,,,,,,,,,,,,,,,,,,,,,,,,,,,,,,,,,,,,,,,,,,,,,
365585,001,2022-11-20_17h46.56.628,Info_measure_main_exp,2022.2.2,Win32,74.77753683,,,,,,,,,,,,,,,,,,masks/mask_004.jpg,,,,,,,,,,,,,,,,,,,,,,,,,,,,,,,,,,,,,,,,,,,0,1,1,3,1,,,,,,,,,,,,,,,,,,,,,,,,,,,,,,,,,,,,,,,,,,,,,,
365585,001,2022-11-20_17h46.56.628,Info_measure_main_exp,2022.2.2,Win32,74.77753683,,,,,,,,,,,,,,,,,,masks/mask_002.jpg,,,,,,,,,,,,,,,,,,,,,,,,,,,,,,,,,,,,,,,,,,,0,2,2,1,1,,,,,,,,,,,,,,,,,,,,,,,,,,,,,,,,,,,,,,,,,,,,,,
365585,001,2022-11-20_17h46.56.628,Info_measure_main_exp,2022.2.2,Win32,74.77753683,,,,,,,,,,,,,,,,,,masks/mask_003.jpg,,,,,,,,,,,,,,,,,,,,,,,,,,,,,,,,,,,,,,,,,,,0,3,3,2,1,,,,,,,,,,,,,,,,,,,,,,,,,,,,,,,,,,,,,,,,,,,,,,
365585,001,2022-11-20_17h46.56.628,Info_measure_main_exp,2022.2.2,Win32,74.77753683,,,,,,,,,,,,,,,,,,masks/mask_005.jpg,,,,,,,,,,,,,,,,,,,,,,,,,,,,,,,,,,,,,,,,,,,0,4,4,4,1,,,,,,,,,,,,,,,,,,,,,,,,,,,,,,,,,,,,,,,,,,,,,,
365585,001,2022-11-20_17h46.56.628,Info_measure_main_exp,2022.2.2,Win32,74.77753683,,,,,,,,,,,,,,,,,,masks/mask_002.jpg,,,,,,,,,,,,,,,,,,,,,,,,,,,,,,,,,,,,,,,,,,,,,,,,0,0,0,1,1,,,,,,,,,,,,,,,,,,,,,,,,,,,,,,,,,,,,,,,,,
365585,001,2022-11-20_17h46.56.628,Info_measure_main_exp,2022.2.2,Win32,74.77753683,,,,,,,,,,,,,,,,,,masks/mask_005.jpg,,,,,,,,,,,,,,,,,,,,,,,,,,,,,,,,,,,,,,,,,,,,,,,,0,1,1,4,1,,,,,,,,,,,,,,,,,,,,,,,,,,,,,,,,,,,,,,,,,
365585,001,2022-11-20_17h46.56.628,Info_measure_main_exp,2022.2.2,Win32,74.77753683,,,,,,,,,,,,,,,,,,masks/mask_004.jpg,,,,,,,,,,,,,,,,,,,,,,,,,,,,,,,,,,,,,,,,,,,,,,,,0,2,2,3,1,,,,,,,,,,,,,,,,,,,,,,,,,,,,,,,,,,,,,,,,,
365585,001,2022-11-20_17h46.56.628,Info_measure_main_exp,2022.2.2,Win32,74.77753683,,,,,,,,,,,,,,,,,,masks/mask_003.jpg,,,,,,,,,,,,,,,,,,,,,,,,,,,,,,,,,,,,,,,,,,,,,,,,0,3,3,2,1,,,,,,,,,,,,,,,,,,,,,,,,,,,,,,,,,,,,,,,,,
365585,001,2022-11-20_17h46.56.628,Info_measure_main_exp,2022.2.2,Win32,74.77753683,,,,,,,,,,,,,,,,,,masks/mask_001.jpg,,,,,,,,,,,,,,,,,,,,,,,,,,,,,,,,,,,,,,,,,,,,,,,,0,4,4,0,1,,,,,,,,,,,,,,,,,,,,,,,,,,,,,,,,,,,,,,,,,
365585,001,2022-11-20_17h46.56.628,Info_measure_main_exp,2022.2.2,Win32,74.77753683,,,,,,,,,,,,,,,,,,,,,,,,,,,,,,5,0.6999,1,,,,,,,,,,,,0,131,5,5,1950,2238,absent_patch/patch0001950.jpg,absent_patch/patch0002238.jpg,,,,,,,,,,,,,,,,,,,,0.068518519,-0.032407407,1,0,0,response3disk,29,0.000925926,0.006481481,1,0,0,center_square,0,28,28,8,1,,,,,,,,,,,,,,,,,,,,,,,
365585,001,2022-11-20_17h46.56.628,Info_measure_main_exp,2022.2.2,Win32,74.77753683,,,,,,,,,,,,,,,,,,masks/mask_002.jpg,,,,,,,,,,,,,,,,,,,,,,,,,,,,,,,,,,,,,,,,,,,0,0,0,1,1,,,,,,,,,,,,,,,,,,,,,,,,,,,,,,,,,,,,,,,,,,,,,,
365585,001,2022-11-20_17h46.56.628,Info_measure_main_exp,2022.2.2,Win32,74.77753683,,,,,,,,,,,,,,,,,,masks/mask_003.jpg,,,,,,,,,,,,,,,,,,,,,,,,,,,,,,,,,,,,,,,,,,,0,1,1,2,1,,,,,,,,,,,,,,,,,,,,,,,,,,,,,,,,,,,,,,,,,,,,,,
365585,001,2022-11-20_17h46.56.628,Info_measure_main_exp,2022.2.2,Win32,74.77753683,,,,,,,,,,,,,,,,,,masks/mask_004.jpg,,,,,,,,,,,,,,,,,,,,,,,,,,,,,,,,,,,,,,,,,,,0,2,2,3,1,,,,,,,,,,,,,,,,,,,,,,,,,,,,,,,,,,,,,,,,,,,,,,
365585,001,2022-11-20_17h46.56.628,Info_measure_main_exp,2022.2.2,Win32,74.77753683,,,,,,,,,,,,,,,,,,masks/mask_001.jpg,,,,,,,,,,,,,,,,,,,,,,,,,,,,,,,,,,,,,,,,,,,0,3,3,0,1,,,,,,,,,,,,,,,,,,,,,,,,,,,,,,,,,,,,,,,,,,,,,,
365585,001,2022-11-20_17h46.56.628,Info_measure_main_exp,2022.2.2,Win32,74.77753683,,,,,,,,,,,,,,,,,,masks/mask_005.jpg,,,,,,,,,,,,,,,,,,,,,,,,,,,,,,,,,,,,,,,,,,,0,4,4,4,1,,,,,,,,,,,,,,,,,,,,,,,,,,,,,,,,,,,,,,,,,,,,,,
365585,001,2022-11-20_17h46.56.628,Info_measure_main_exp,2022.2.2,Win32,74.77753683,,,,,,,,,,,,,,,,,,masks/mask_002.jpg,,,,,,,,,,,,,,,,,,,,,,,,,,,,,,,,,,,,,,,,,,,,,,,,0,0,0,1,1,,,,,,,,,,,,,,,,,,,,,,,,,,,,,,,,,,,,,,,,,
365585,001,2022-11-20_17h46.56.628,Info_measure_main_exp,2022.2.2,Win32,74.77753683,,,,,,,,,,,,,,,,,,masks/mask_001.jpg,,,,,,,,,,,,,,,,,,,,,,,,,,,,,,,,,,,,,,,,,,,,,,,,0,1,1,0,1,,,,,,,,,,,,,,,,,,,,,,,,,,,,,,,,,,,,,,,,,
365585,001,2022-11-20_17h46.56.628,Info_measure_main_exp,2022.2.2,Win32,74.77753683,,,,,,,,,,,,,,,,,,masks/mask_003.jpg,,,,,,,,,,,,,,,,,,,,,,,,,,,,,,,,,,,,,,,,,,,,,,,,0,2,2,2,1,,,,,,,,,,,,,,,,,,,,,,,,,,,,,,,,,,,,,,,,,
365585,001,2022-11-20_17h46.56.628,Info_measure_main_exp,2022.2.2,Win32,74.77753683,,,,,,,,,,,,,,,,,,masks/mask_004.jpg,,,,,,,,,,,,,,,,,,,,,,,,,,,,,,,,,,,,,,,,,,,,,,,,0,3,3,3,1,,,,,,,,,,,,,,,,,,,,,,,,,,,,,,,,,,,,,,,,,
365585,001,2022-11-20_17h46.56.628,Info_measure_main_exp,2022.2.2,Win32,74.77753683,,,,,,,,,,,,,,,,,,masks/mask_005.jpg,,,,,,,,,,,,,,,,,,,,,,,,,,,,,,,,,,,,,,,,,,,,,,,,0,4,4,4,1,,,,,,,,,,,,,,,,,,,,,,,,,,,,,,,,,,,,,,,,,
365585,001,2022-11-20_17h46.56.628,Info_measure_main_exp,2022.2.2,Win32,74.77753683,,,,,,,,,,,,,,,,,,,,,,,,,,,,,,4,0.65,1,,,,,,,,,,,,0,131,5,5,2274,2142,absent_patch/patch0002274.jpg,absent_patch/patch0002142.jpg,,,,,,,,,,,,,,,,,,,,0.02962963,-0.068518519,1,0,0,response3disk,30,0.000925926,-0.002777778,1,0,0,center_square,0,29,29,75,1,,,,,,,,,,,,,,,,,,,,,,,
365585,001,2022-11-20_17h46.56.628,Info_measure_main_exp,2022.2.2,Win32,74.77753683,,,,,,,,,,,,,,,,,,masks/mask_001.jpg,,,,,,,,,,,,,,,,,,,,,,,,,,,,,,,,,,,,,,,,,,,0,0,0,0,1,,,,,,,,,,,,,,,,,,,,,,,,,,,,,,,,,,,,,,,,,,,,,,
365585,001,2022-11-20_17h46.56.628,Info_measure_main_exp,2022.2.2,Win32,74.77753683,,,,,,,,,,,,,,,,,,masks/mask_004.jpg,,,,,,,,,,,,,,,,,,,,,,,,,,,,,,,,,,,,,,,,,,,0,1,1,3,1,,,,,,,,,,,,,,,,,,,,,,,,,,,,,,,,,,,,,,,,,,,,,,
365585,001,2022-11-20_17h46.56.628,Info_measure_main_exp,2022.2.2,Win32,74.77753683,,,,,,,,,,,,,,,,,,masks/mask_002.jpg,,,,,,,,,,,,,,,,,,,,,,,,,,,,,,,,,,,,,,,,,,,0,2,2,1,1,,,,,,,,,,,,,,,,,,,,,,,,,,,,,,,,,,,,,,,,,,,,,,
365585,001,2022-11-20_17h46.56.628,Info_measure_main_exp,2022.2.2,Win32,74.77753683,,,,,,,,,,,,,,,,,,masks/mask_003.jpg,,,,,,,,,,,,,,,,,,,,,,,,,,,,,,,,,,,,,,,,,,,0,3,3,2,1,,,,,,,,,,,,,,,,,,,,,,,,,,,,,,,,,,,,,,,,,,,,,,
365585,001,2022-11-20_17h46.56.628,Info_measure_main_exp,2022.2.2,Win32,74.77753683,,,,,,,,,,,,,,,,,,masks/mask_005.jpg,,,,,,,,,,,,,,,,,,,,,,,,,,,,,,,,,,,,,,,,,,,0,4,4,4,1,,,,,,,,,,,,,,,,,,,,,,,,,,,,,,,,,,,,,,,,,,,,,,
365585,001,2022-11-20_17h46.56.628,Info_measure_main_exp,2022.2.2,Win32,74.77753683,,,,,,,,,,,,,,,,,,masks/mask_005.jpg,,,,,,,,,,,,,,,,,,,,,,,,,,,,,,,,,,,,,,,,,,,,,,,,0,0,0,4,1,,,,,,,,,,,,,,,,,,,,,,,,,,,,,,,,,,,,,,,,,
365585,001,2022-11-20_17h46.56.628,Info_measure_main_exp,2022.2.2,Win32,74.77753683,,,,,,,,,,,,,,,,,,masks/mask_002.jpg,,,,,,,,,,,,,,,,,,,,,,,,,,,,,,,,,,,,,,,,,,,,,,,,0,1,1,1,1,,,,,,,,,,,,,,,,,,,,,,,,,,,,,,,,,,,,,,,,,
365585,001,2022-11-20_17h46.56.628,Info_measure_main_exp,2022.2.2,Win32,74.77753683,,,,,,,,,,,,,,,,,,masks/mask_001.jpg,,,,,,,,,,,,,,,,,,,,,,,,,,,,,,,,,,,,,,,,,,,,,,,,0,2,2,0,1,,,,,,,,,,,,,,,,,,,,,,,,,,,,,,,,,,,,,,,,,
365585,001,2022-11-20_17h46.56.628,Info_measure_main_exp,2022.2.2,Win32,74.77753683,,,,,,,,,,,,,,,,,,masks/mask_004.jpg,,,,,,,,,,,,,,,,,,,,,,,,,,,,,,,,,,,,,,,,,,,,,,,,0,3,3,3,1,,,,,,,,,,,,,,,,,,,,,,,,,,,,,,,,,,,,,,,,,
365585,001,2022-11-20_17h46.56.628,Info_measure_main_exp,2022.2.2,Win32,74.77753683,,,,,,,,,,,,,,,,,,masks/mask_003.jpg,,,,,,,,,,,,,,,,,,,,,,,,,,,,,,,,,,,,,,,,,,,,,,,,0,4,4,2,1,,,,,,,,,,,,,,,,,,,,,,,,,,,,,,,,,,,,,,,,,
365585,001,2022-11-20_17h46.56.628,Info_measure_main_exp,2022.2.2,Win32,74.77753683,,,,,,,,,,,,,,,,,,,,,,,,,,,,,,4,2.6835,1,,,,,,,,,,,,0,131,5,5,2178,2166,absent_patch/patch0002178.jpg,absent_patch/patch0002166.jpg,,,,,,,,,,,,,,,,,,,,0.039814815,-0.071296296,1,0,0,response3disk,31,0.012037037,-0.003703704,1,0,0,center_square,0,30,30,72,1,,,,,,,,,,,,,,,,,,,,,,,
365585,001,2022-11-20_17h46.56.628,Info_measure_main_exp,2022.2.2,Win32,74.77753683,,,,,,,,,,,,,,,,,,masks/mask_003.jpg,,,,,,,,,,,,,,,,,,,,,,,,,,,,,,,,,,,,,,,,,,,0,0,0,2,1,,,,,,,,,,,,,,,,,,,,,,,,,,,,,,,,,,,,,,,,,,,,,,
365585,001,2022-11-20_17h46.56.628,Info_measure_main_exp,2022.2.2,Win32,74.77753683,,,,,,,,,,,,,,,,,,masks/mask_001.jpg,,,,,,,,,,,,,,,,,,,,,,,,,,,,,,,,,,,,,,,,,,,0,1,1,0,1,,,,,,,,,,,,,,,,,,,,,,,,,,,,,,,,,,,,,,,,,,,,,,
365585,001,2022-11-20_17h46.56.628,Info_measure_main_exp,2022.2.2,Win32,74.77753683,,,,,,,,,,,,,,,,,,masks/mask_002.jpg,,,,,,,,,,,,,,,,,,,,,,,,,,,,,,,,,,,,,,,,,,,0,2,2,1,1,,,,,,,,,,,,,,,,,,,,,,,,,,,,,,,,,,,,,,,,,,,,,,
365585,001,2022-11-20_17h46.56.628,Info_measure_main_exp,2022.2.2,Win32,74.77753683,,,,,,,,,,,,,,,,,,masks/mask_004.jpg,,,,,,,,,,,,,,,,,,,,,,,,,,,,,,,,,,,,,,,,,,,0,3,3,3,1,,,,,,,,,,,,,,,,,,,,,,,,,,,,,,,,,,,,,,,,,,,,,,
365585,001,2022-11-20_17h46.56.628,Info_measure_main_exp,2022.2.2,Win32,74.77753683,,,,,,,,,,,,,,,,,,masks/mask_005.jpg,,,,,,,,,,,,,,,,,,,,,,,,,,,,,,,,,,,,,,,,,,,0,4,4,4,1,,,,,,,,,,,,,,,,,,,,,,,,,,,,,,,,,,,,,,,,,,,,,,
365585,001,2022-11-20_17h46.56.628,Info_measure_main_exp,2022.2.2,Win32,74.77753683,,,,,,,,,,,,,,,,,,masks/mask_005.jpg,,,,,,,,,,,,,,,,,,,,,,,,,,,,,,,,,,,,,,,,,,,,,,,,0,0,0,4,1,,,,,,,,,,,,,,,,,,,,,,,,,,,,,,,,,,,,,,,,,
365585,001,2022-11-20_17h46.56.628,Info_measure_main_exp,2022.2.2,Win32,74.77753683,,,,,,,,,,,,,,,,,,masks/mask_002.jpg,,,,,,,,,,,,,,,,,,,,,,,,,,,,,,,,,,,,,,,,,,,,,,,,0,1,1,1,1,,,,,,,,,,,,,,,,,,,,,,,,,,,,,,,,,,,,,,,,,
365585,001,2022-11-20_17h46.56.628,Info_measure_main_exp,2022.2.2,Win32,74.77753683,,,,,,,,,,,,,,,,,,masks/mask_004.jpg,,,,,,,,,,,,,,,,,,,,,,,,,,,,,,,,,,,,,,,,,,,,,,,,0,2,2,3,1,,,,,,,,,,,,,,,,,,,,,,,,,,,,,,,,,,,,,,,,,
365585,001,2022-11-20_17h46.56.628,Info_measure_main_exp,2022.2.2,Win32,74.77753683,,,,,,,,,,,,,,,,,,masks/mask_001.jpg,,,,,,,,,,,,,,,,,,,,,,,,,,,,,,,,,,,,,,,,,,,,,,,,0,3,3,0,1,,,,,,,,,,,,,,,,,,,,,,,,,,,,,,,,,,,,,,,,,
365585,001,2022-11-20_17h46.56.628,Info_measure_main_exp,2022.2.2,Win32,74.77753683,,,,,,,,,,,,,,,,,,masks/mask_003.jpg,,,,,,,,,,,,,,,,,,,,,,,,,,,,,,,,,,,,,,,,,,,,,,,,0,4,4,2,1,,,,,,,,,,,,,,,,,,,,,,,,,,,,,,,,,,,,,,,,,
365585,001,2022-11-20_17h46.56.628,Info_measure_main_exp,2022.2.2,Win32,74.77753683,,,,,,,,,,,,,,,,,,,,,,,,,,,,,,5,1.1333,1,,,,,,,,,,,,0,131,5,5,2250,2214,absent_patch/patch0002250.jpg,absent_patch/patch0002214.jpg,,,,,,,,,,,,,,,,,,,,0.061111111,-0.034259259,1,0,0,response3disk,32,0.000925926,0,1,0,0,center_square,0,31,31,97,1,,,,,,,,,,,,,,,,,,,,,,,
365585,001,2022-11-20_17h46.56.628,Info_measure_main_exp,2022.2.2,Win32,74.77753683,,,,,,,,,,,,,,,,,,masks/mask_003.jpg,,,,,,,,,,,,,,,,,,,,,,,,,,,,,,,,,,,,,,,,,,,0,0,0,2,1,,,,,,,,,,,,,,,,,,,,,,,,,,,,,,,,,,,,,,,,,,,,,,
365585,001,2022-11-20_17h46.56.628,Info_measure_main_exp,2022.2.2,Win32,74.77753683,,,,,,,,,,,,,,,,,,masks/mask_004.jpg,,,,,,,,,,,,,,,,,,,,,,,,,,,,,,,,,,,,,,,,,,,0,1,1,3,1,,,,,,,,,,,,,,,,,,,,,,,,,,,,,,,,,,,,,,,,,,,,,,
365585,001,2022-11-20_17h46.56.628,Info_measure_main_exp,2022.2.2,Win32,74.77753683,,,,,,,,,,,,,,,,,,masks/mask_001.jpg,,,,,,,,,,,,,,,,,,,,,,,,,,,,,,,,,,,,,,,,,,,0,2,2,0,1,,,,,,,,,,,,,,,,,,,,,,,,,,,,,,,,,,,,,,,,,,,,,,
365585,001,2022-11-20_17h46.56.628,Info_measure_main_exp,2022.2.2,Win32,74.77753683,,,,,,,,,,,,,,,,,,masks/mask_005.jpg,,,,,,,,,,,,,,,,,,,,,,,,,,,,,,,,,,,,,,,,,,,0,3,3,4,1,,,,,,,,,,,,,,,,,,,,,,,,,,,,,,,,,,,,,,,,,,,,,,
365585,001,2022-11-20_17h46.56.628,Info_measure_main_exp,2022.2.2,Win32,74.77753683,,,,,,,,,,,,,,,,,,masks/mask_002.jpg,,,,,,,,,,,,,,,,,,,,,,,,,,,,,,,,,,,,,,,,,,,0,4,4,1,1,,,,,,,,,,,,,,,,,,,,,,,,,,,,,,,,,,,,,,,,,,,,,,
365585,001,2022-11-20_17h46.56.628,Info_measure_main_exp,2022.2.2,Win32,74.77753683,,,,,,,,,,,,,,,,,,masks/mask_001.jpg,,,,,,,,,,,,,,,,,,,,,,,,,,,,,,,,,,,,,,,,,,,,,,,,0,0,0,0,1,,,,,,,,,,,,,,,,,,,,,,,,,,,,,,,,,,,,,,,,,
365585,001,2022-11-20_17h46.56.628,Info_measure_main_exp,2022.2.2,Win32,74.77753683,,,,,,,,,,,,,,,,,,masks/mask_004.jpg,,,,,,,,,,,,,,,,,,,,,,,,,,,,,,,,,,,,,,,,,,,,,,,,0,1,1,3,1,,,,,,,,,,,,,,,,,,,,,,,,,,,,,,,,,,,,,,,,,
365585,001,2022-11-20_17h46.56.628,Info_measure_main_exp,2022.2.2,Win32,74.77753683,,,,,,,,,,,,,,,,,,masks/mask_003.jpg,,,,,,,,,,,,,,,,,,,,,,,,,,,,,,,,,,,,,,,,,,,,,,,,0,2,2,2,1,,,,,,,,,,,,,,,,,,,,,,,,,,,,,,,,,,,,,,,,,
365585,001,2022-11-20_17h46.56.628,Info_measure_main_exp,2022.2.2,Win32,74.77753683,,,,,,,,,,,,,,,,,,masks/mask_005.jpg,,,,,,,,,,,,,,,,,,,,,,,,,,,,,,,,,,,,,,,,,,,,,,,,0,3,3,4,1,,,,,,,,,,,,,,,,,,,,,,,,,,,,,,,,,,,,,,,,,
365585,001,2022-11-20_17h46.56.628,Info_measure_main_exp,2022.2.2,Win32,74.77753683,,,,,,,,,,,,,,,,,,masks/mask_002.jpg,,,,,,,,,,,,,,,,,,,,,,,,,,,,,,,,,,,,,,,,,,,,,,,,0,4,4,1,1,,,,,,,,,,,,,,,,,,,,,,,,,,,,,,,,,,,,,,,,,
365585,001,2022-11-20_17h46.56.628,Info_measure_main_exp,2022.2.2,Win32,74.77753683,,,,,,,,,,,,,,,,,,,,,,,,,,,,,,0,0.5666,1,,,,,,,,,,,,0,131,5,5,2178,2178,absent_patch/patch0002178.jpg,absent_patch/patch0002178.jpg,,,,,,,,,,,,,,,,,,,,-0.025,0.085185185,1,0,0,response7disk,33,-0.002777778,0.011111111,1,0,0,center_square,0,32,32,98,1,,,,,,,,,,,,,,,,,,,,,,,
365585,001,2022-11-20_17h46.56.628,Info_measure_main_exp,2022.2.2,Win32,74.77753683,,,,,,,,,,,,,,,,,,masks/mask_001.jpg,,,,,,,,,,,,,,,,,,,,,,,,,,,,,,,,,,,,,,,,,,,0,0,0,0,1,,,,,,,,,,,,,,,,,,,,,,,,,,,,,,,,,,,,,,,,,,,,,,
365585,001,2022-11-20_17h46.56.628,Info_measure_main_exp,2022.2.2,Win32,74.77753683,,,,,,,,,,,,,,,,,,masks/mask_004.jpg,,,,,,,,,,,,,,,,,,,,,,,,,,,,,,,,,,,,,,,,,,,0,1,1,3,1,,,,,,,,,,,,,,,,,,,,,,,,,,,,,,,,,,,,,,,,,,,,,,
365585,001,2022-11-20_17h46.56.628,Info_measure_main_exp,2022.2.2,Win32,74.77753683,,,,,,,,,,,,,,,,,,masks/mask_003.jpg,,,,,,,,,,,,,,,,,,,,,,,,,,,,,,,,,,,,,,,,,,,0,2,2,2,1,,,,,,,,,,,,,,,,,,,,,,,,,,,,,,,,,,,,,,,,,,,,,,
365585,001,2022-11-20_17h46.56.628,Info_measure_main_exp,2022.2.2,Win32,74.77753683,,,,,,,,,,,,,,,,,,masks/mask_005.jpg,,,,,,,,,,,,,,,,,,,,,,,,,,,,,,,,,,,,,,,,,,,0,3,3,4,1,,,,,,,,,,,,,,,,,,,,,,,,,,,,,,,,,,,,,,,,,,,,,,
365585,001,2022-11-20_17h46.56.628,Info_measure_main_exp,2022.2.2,Win32,74.77753683,,,,,,,,,,,,,,,,,,masks/mask_002.jpg,,,,,,,,,,,,,,,,,,,,,,,,,,,,,,,,,,,,,,,,,,,0,4,4,1,1,,,,,,,,,,,,,,,,,,,,,,,,,,,,,,,,,,,,,,,,,,,,,,
365585,001,2022-11-20_17h46.56.628,Info_measure_main_exp,2022.2.2,Win32,74.77753683,,,,,,,,,,,,,,,,,,masks/mask_002.jpg,,,,,,,,,,,,,,,,,,,,,,,,,,,,,,,,,,,,,,,,,,,,,,,,0,0,0,1,1,,,,,,,,,,,,,,,,,,,,,,,,,,,,,,,,,,,,,,,,,
365585,001,2022-11-20_17h46.56.628,Info_measure_main_exp,2022.2.2,Win32,74.77753683,,,,,,,,,,,,,,,,,,masks/mask_001.jpg,,,,,,,,,,,,,,,,,,,,,,,,,,,,,,,,,,,,,,,,,,,,,,,,0,1,1,0,1,,,,,,,,,,,,,,,,,,,,,,,,,,,,,,,,,,,,,,,,,
365585,001,2022-11-20_17h46.56.628,Info_measure_main_exp,2022.2.2,Win32,74.77753683,,,,,,,,,,,,,,,,,,masks/mask_004.jpg,,,,,,,,,,,,,,,,,,,,,,,,,,,,,,,,,,,,,,,,,,,,,,,,0,2,2,3,1,,,,,,,,,,,,,,,,,,,,,,,,,,,,,,,,,,,,,,,,,
365585,001,2022-11-20_17h46.56.628,Info_measure_main_exp,2022.2.2,Win32,74.77753683,,,,,,,,,,,,,,,,,,masks/mask_003.jpg,,,,,,,,,,,,,,,,,,,,,,,,,,,,,,,,,,,,,,,,,,,,,,,,0,3,3,2,1,,,,,,,,,,,,,,,,,,,,,,,,,,,,,,,,,,,,,,,,,
365585,001,2022-11-20_17h46.56.628,Info_measure_main_exp,2022.2.2,Win32,74.77753683,,,,,,,,,,,,,,,,,,masks/mask_005.jpg,,,,,,,,,,,,,,,,,,,,,,,,,,,,,,,,,,,,,,,,,,,,,,,,0,4,4,4,1,,,,,,,,,,,,,,,,,,,,,,,,,,,,,,,,,,,,,,,,,
365585,001,2022-11-20_17h46.56.628,Info_measure_main_exp,2022.2.2,Win32,74.77753683,,,,,,,,,,,,,,,,,,,,,,,,,,,,,,5,0.5832,1,,,,,,,,,,,,0,131,5,5,1974,2238,absent_patch/patch0001974.jpg,absent_patch/patch0002238.jpg,,,,,,,,,,,,,,,,,,,,0.061111111,-0.032407407,1,0,0,response3disk,34,0,0.008333333,1,0,0,center_square,0,33,33,95,1,,,,,,,,,,,,,,,,,,,,,,,
365585,001,2022-11-20_17h46.56.628,Info_measure_main_exp,2022.2.2,Win32,74.77753683,,,,,,,,,,,,,,,,,,masks/mask_003.jpg,,,,,,,,,,,,,,,,,,,,,,,,,,,,,,,,,,,,,,,,,,,0,0,0,2,1,,,,,,,,,,,,,,,,,,,,,,,,,,,,,,,,,,,,,,,,,,,,,,
365585,001,2022-11-20_17h46.56.628,Info_measure_main_exp,2022.2.2,Win32,74.77753683,,,,,,,,,,,,,,,,,,masks/mask_005.jpg,,,,,,,,,,,,,,,,,,,,,,,,,,,,,,,,,,,,,,,,,,,0,1,1,4,1,,,,,,,,,,,,,,,,,,,,,,,,,,,,,,,,,,,,,,,,,,,,,,
365585,001,2022-11-20_17h46.56.628,Info_measure_main_exp,2022.2.2,Win32,74.77753683,,,,,,,,,,,,,,,,,,masks/mask_002.jpg,,,,,,,,,,,,,,,,,,,,,,,,,,,,,,,,,,,,,,,,,,,0,2,2,1,1,,,,,,,,,,,,,,,,,,,,,,,,,,,,,,,,,,,,,,,,,,,,,,
365585,001,2022-11-20_17h46.56.628,Info_measure_main_exp,2022.2.2,Win32,74.77753683,,,,,,,,,,,,,,,,,,masks/mask_001.jpg,,,,,,,,,,,,,,,,,,,,,,,,,,,,,,,,,,,,,,,,,,,0,3,3,0,1,,,,,,,,,,,,,,,,,,,,,,,,,,,,,,,,,,,,,,,,,,,,,,
365585,001,2022-11-20_17h46.56.628,Info_measure_main_exp,2022.2.2,Win32,74.77753683,,,,,,,,,,,,,,,,,,masks/mask_004.jpg,,,,,,,,,,,,,,,,,,,,,,,,,,,,,,,,,,,,,,,,,,,0,4,4,3,1,,,,,,,,,,,,,,,,,,,,,,,,,,,,,,,,,,,,,,,,,,,,,,
365585,001,2022-11-20_17h46.56.628,Info_measure_main_exp,2022.2.2,Win32,74.77753683,,,,,,,,,,,,,,,,,,masks/mask_005.jpg,,,,,,,,,,,,,,,,,,,,,,,,,,,,,,,,,,,,,,,,,,,,,,,,0,0,0,4,1,,,,,,,,,,,,,,,,,,,,,,,,,,,,,,,,,,,,,,,,,
365585,001,2022-11-20_17h46.56.628,Info_measure_main_exp,2022.2.2,Win32,74.77753683,,,,,,,,,,,,,,,,,,masks/mask_003.jpg,,,,,,,,,,,,,,,,,,,,,,,,,,,,,,,,,,,,,,,,,,,,,,,,0,1,1,2,1,,,,,,,,,,,,,,,,,,,,,,,,,,,,,,,,,,,,,,,,,
365585,001,2022-11-20_17h46.56.628,Info_measure_main_exp,2022.2.2,Win32,74.77753683,,,,,,,,,,,,,,,,,,masks/mask_002.jpg,,,,,,,,,,,,,,,,,,,,,,,,,,,,,,,,,,,,,,,,,,,,,,,,0,2,2,1,1,,,,,,,,,,,,,,,,,,,,,,,,,,,,,,,,,,,,,,,,,
365585,001,2022-11-20_17h46.56.628,Info_measure_main_exp,2022.2.2,Win32,74.77753683,,,,,,,,,,,,,,,,,,masks/mask_004.jpg,,,,,,,,,,,,,,,,,,,,,,,,,,,,,,,,,,,,,,,,,,,,,,,,0,3,3,3,1,,,,,,,,,,,,,,,,,,,,,,,,,,,,,,,,,,,,,,,,,
