participant,session,date,expName,psychopyVersion,OS,frameRate,space_press_continue.keys,space_press_continue.rt,space_press_continue_2.keys,space_press_continue_2.rt,space_press_continue_3.keys,space_press_continue_3.rt,space_press_continue_4.keys,space_press_continue_4.rt,space_press_continue_5.keys,space_press_continue_5.rt,space_press_continue_6.keys,space_press_continue_6.rt,prac_mask_loop_1.thisRepN,prac_mask_loop_1.thisTrialN,prac_mask_loop_1.thisN,prac_mask_loop_1.thisIndex,prac_mask_loop_1.ran,mask_name,prac_mask_loop_2.thisRepN,prac_mask_loop_2.thisTrialN,prac_mask_loop_2.thisN,prac_mask_loop_2.thisIndex,prac_mask_loop_2.ran,mouse_2.x,mouse_2.y,mouse_2.leftButton,mouse_2.midButton,mouse_2.rightButton,mouse_2.clicked_name,similarity,response_time,Pass,mouse_12.x,mouse_12.y,mouse_12.leftButton,mouse_12.midButton,mouse_12.rightButton,mouse_12.clicked_name,prac_loop.thisRepN,prac_loop.thisTrialN,prac_loop.thisN,prac_loop.thisIndex,prac_loop.ran,Pair_type,Image_num,Patch_1_loc,Patch_2_loc,Patch_1_info,Patch_2_info,Patch_1_name,Patch_2_name,mouse_1.x,mouse_1.y,mouse_1.leftButton,mouse_1.midButton,mouse_1.rightButton,mouse_1.time,mouse_1.clicked_name,space_press_continue_7.keys,mask_loop.thisRepN,mask_loop.thisTrialN,mask_loop.thisN,mask_loop.thisIndex,mask_loop.ran,mask_loop_2.thisRepN,mask_loop_2.thisTrialN,mask_loop_2.thisN,mask_loop_2.thisIndex,mask_loop_2.ran,mouse.x,mouse.y,mouse.leftButton,mouse.midButton,mouse.rightButton,mouse.clicked_name,trialNumber,mouse_11.x,mouse_11.y,mouse_11.leftButton,mouse_11.midButton,mouse_11.rightButton,mouse_11.clicked_name,first_pass_loop.thisRepN,first_pass_loop.thisTrialN,first_pass_loop.thisN,first_pass_loop.thisIndex,first_pass_loop.ran,mask_loop_3.thisRepN,mask_loop_3.thisTrialN,mask_loop_3.thisN,mask_loop_3.thisIndex,mask_loop_3.ran,mask_loop_4.thisRepN,mask_loop_4.thisTrialN,mask_loop_4.thisN,mask_loop_4.thisIndex,mask_loop_4.ran,mouse_3.x,mouse_3.y,mouse_3.leftButton,mouse_3.midButton,mouse_3.rightButton,mouse_3.clicked_name,double_pass_loop.thisRepN,double_pass_loop.thisTrialN,double_pass_loop.thisN,double_pass_loop.thisIndex,double_pass_loop.ran,space_exit.keys,space_exit.rt
368107,001,2022-11-21_02h00.27.624,Info_measure_main_exp,2022.2.2,Win32,59.07721392,,,,,,,,,,,,,,,,,,,,,,,,,,,,,,,,,,,,,,,,,,,,,,,,,,,,,,,,,,,,,,,,,,,,,,,,,,,,,,,,,,,,,,,,,,,,,,,,,,,,,,,,,,,,,,
368107,001,2022-11-21_02h00.27.624,Info_measure_main_exp,2022.2.2,Win32,59.07721392,,,,,,,,,,,,,,,,,,,,,,,,,,,,,,,,,,,,,,,,,,,,,,,,,,,,,,,,,,,,,,,,,,,,,,,,,,,,,,,,,,,,,,,,,,,,,,,,,,,,,,,,,,,,,,
368107,001,2022-11-21_02h00.27.624,Info_measure_main_exp,2022.2.2,Win32,59.07721392,space,13.3384,,,,,,,,,,,,,,,,,,,,,,,,,,,,,,,,,,,,,,,,,,,,,,,,,,,,,,,,,,,,,,,,,,,,,,,,,,,,,,,,,,,,,,,,,,,,,,,,,,,,,,,,,,,,
368107,001,2022-11-21_02h00.27.624,Info_measure_main_exp,2022.2.2,Win32,59.07721392,,,space,24.2094,,,,,,,,,,,,,,,,,,,,,,,,,,,,,,,,,,,,,,,,,,,,,,,,,,,,,,,,,,,,,,,,,,,,,,,,,,,,,,,,,,,,,,,,,,,,,,,,,,,,,,,,,,
368107,001,2022-11-21_02h00.27.624,Info_measure_main_exp,2022.2.2,Win32,59.07721392,,,,,space,10.7833,,,,,,,,,,,,,,,,,,,,,,,,,,,,,,,,,,,,,,,,,,,,,,,,,,,,,,,,,,,,,,,,,,,,,,,,,,,,,,,,,,,,,,,,,,,,,,,,,,,,,,,,
368107,001,2022-11-21_02h00.27.624,Info_measure_main_exp,2022.2.2,Win32,59.07721392,,,,,,,space,29.0222,,,,,,,,,,,,,,,,,,,,,,,,,,,,,,,,,,,,,,,,,,,,,,,,,,,,,,,,,,,,,,,,,,,,,,,,,,,,,,,,,,,,,,,,,,,,,,,,,,,,,,
368107,001,2022-11-21_02h00.27.624,Info_measure_main_exp,2022.2.2,Win32,59.07721392,,,,,,,,,space,10.528,,,,,,,,,,,,,,,,,,,,,,,,,,,,,,,,,,,,,,,,,,,,,,,,,,,,,,,,,,,,,,,,,,,,,,,,,,,,,,,,,,,,,,,,,,,,,,,,,,,,
368107,001,2022-11-21_02h00.27.624,Info_measure_main_exp,2022.2.2,Win32,59.07721392,,,,,,,,,,,space,5.9838,,,,,,,,,,,,,,,,,,,,,,,,,,,,,,,,,,,,,,,,,,,,,,,,,,,,,,,,,,,,,,,,,,,,,,,,,,,,,,,,,,,,,,,,,,,,,,,,,,
368107,001,2022-11-21_02h00.27.624,Info_measure_main_exp,2022.2.2,Win32,59.07721392,,,,,,,,,,,,,0,0,0,2,1,masks/mask_003.jpg,,,,,,,,,,,,,,,,,,,,,,,,,,,,,,,,,,,,,,,,,,,,,,,,,,,,,,,,,,,,,,,,,,,,,,,,,,,,,,,,,,,,,,,,,,,,
368107,001,2022-11-21_02h00.27.624,Info_measure_main_exp,2022.2.2,Win32,59.07721392,,,,,,,,,,,,,0,1,1,4,1,masks/mask_005.jpg,,,,,,,,,,,,,,,,,,,,,,,,,,,,,,,,,,,,,,,,,,,,,,,,,,,,,,,,,,,,,,,,,,,,,,,,,,,,,,,,,,,,,,,,,,,,
368107,001,2022-11-21_02h00.27.624,Info_measure_main_exp,2022.2.2,Win32,59.07721392,,,,,,,,,,,,,0,2,2,3,1,masks/mask_004.jpg,,,,,,,,,,,,,,,,,,,,,,,,,,,,,,,,,,,,,,,,,,,,,,,,,,,,,,,,,,,,,,,,,,,,,,,,,,,,,,,,,,,,,,,,,,,,
368107,001,2022-11-21_02h00.27.624,Info_measure_main_exp,2022.2.2,Win32,59.07721392,,,,,,,,,,,,,0,3,3,0,1,masks/mask_001.jpg,,,,,,,,,,,,,,,,,,,,,,,,,,,,,,,,,,,,,,,,,,,,,,,,,,,,,,,,,,,,,,,,,,,,,,,,,,,,,,,,,,,,,,,,,,,,
368107,001,2022-11-21_02h00.27.624,Info_measure_main_exp,2022.2.2,Win32,59.07721392,,,,,,,,,,,,,0,4,4,1,1,masks/mask_002.jpg,,,,,,,,,,,,,,,,,,,,,,,,,,,,,,,,,,,,,,,,,,,,,,,,,,,,,,,,,,,,,,,,,,,,,,,,,,,,,,,,,,,,,,,,,,,,
368107,001,2022-11-21_02h00.27.624,Info_measure_main_exp,2022.2.2,Win32,59.07721392,,,,,,,,,,,,,,,,,,masks/mask_005.jpg,0,0,0,4,1,,,,,,,,,,,,,,,,,,,,,,,,,,,,,,,,,,,,,,,,,,,,,,,,,,,,,,,,,,,,,,,,,,,,,,,,,,,,,,,,,,,,,,,
368107,001,2022-11-21_02h00.27.624,Info_measure_main_exp,2022.2.2,Win32,59.07721392,,,,,,,,,,,,,,,,,,masks/mask_003.jpg,0,1,1,2,1,,,,,,,,,,,,,,,,,,,,,,,,,,,,,,,,,,,,,,,,,,,,,,,,,,,,,,,,,,,,,,,,,,,,,,,,,,,,,,,,,,,,,,,
368107,001,2022-11-21_02h00.27.624,Info_measure_main_exp,2022.2.2,Win32,59.07721392,,,,,,,,,,,,,,,,,,masks/mask_004.jpg,0,2,2,3,1,,,,,,,,,,,,,,,,,,,,,,,,,,,,,,,,,,,,,,,,,,,,,,,,,,,,,,,,,,,,,,,,,,,,,,,,,,,,,,,,,,,,,,,
368107,001,2022-11-21_02h00.27.624,Info_measure_main_exp,2022.2.2,Win32,59.07721392,,,,,,,,,,,,,,,,,,masks/mask_002.jpg,0,3,3,1,1,,,,,,,,,,,,,,,,,,,,,,,,,,,,,,,,,,,,,,,,,,,,,,,,,,,,,,,,,,,,,,,,,,,,,,,,,,,,,,,,,,,,,,,
368107,001,2022-11-21_02h00.27.624,Info_measure_main_exp,2022.2.2,Win32,59.07721392,,,,,,,,,,,,,,,,,,masks/mask_001.jpg,0,4,4,0,1,,,,,,,,,,,,,,,,,,,,,,,,,,,,,,,,,,,,,,,,,,,,,,,,,,,,,,,,,,,,,,,,,,,,,,,,,,,,,,,,,,,,,,,
368107,001,2022-11-21_02h00.27.624,Info_measure_main_exp,2022.2.2,Win32,59.07721392,,,,,,,,,,,,,,,,,,,,,,,,-0.08203125,-0.139322917,1,0,0,response5disk,3,105.799,1,0.00390625,0.0078125,1,0,0,center_square,0,0,0,2,1,0,131,5,5,2526,2526,prac_patch/patch0002526.jpg,prac_patch/patch0002526.jpg,,,,,,,,,,,,,,,,,,,,,,,,,,,,,,,,,,,,,,,,,,,,,,,,,,,,,,,,,,,
368107,001,2022-11-21_02h00.27.624,Info_measure_main_exp,2022.2.2,Win32,59.07721392,,,,,,,,,,,,,0,0,0,4,1,masks/mask_005.jpg,,,,,,,,,,,,,,,,,,,,,,,,,,,,,,,,,,,,,,,,,,,,,,,,,,,,,,,,,,,,,,,,,,,,,,,,,,,,,,,,,,,,,,,,,,,,
368107,001,2022-11-21_02h00.27.624,Info_measure_main_exp,2022.2.2,Win32,59.07721392,,,,,,,,,,,,,0,1,1,2,1,masks/mask_003.jpg,,,,,,,,,,,,,,,,,,,,,,,,,,,,,,,,,,,,,,,,,,,,,,,,,,,,,,,,,,,,,,,,,,,,,,,,,,,,,,,,,,,,,,,,,,,,
368107,001,2022-11-21_02h00.27.624,Info_measure_main_exp,2022.2.2,Win32,59.07721392,,,,,,,,,,,,,0,2,2,3,1,masks/mask_004.jpg,,,,,,,,,,,,,,,,,,,,,,,,,,,,,,,,,,,,,,,,,,,,,,,,,,,,,,,,,,,,,,,,,,,,,,,,,,,,,,,,,,,,,,,,,,,,
368107,001,2022-11-21_02h00.27.624,Info_measure_main_exp,2022.2.2,Win32,59.07721392,,,,,,,,,,,,,0,3,3,0,1,masks/mask_001.jpg,,,,,,,,,,,,,,,,,,,,,,,,,,,,,,,,,,,,,,,,,,,,,,,,,,,,,,,,,,,,,,,,,,,,,,,,,,,,,,,,,,,,,,,,,,,,
368107,001,2022-11-21_02h00.27.624,Info_measure_main_exp,2022.2.2,Win32,59.07721392,,,,,,,,,,,,,0,4,4,1,1,masks/mask_002.jpg,,,,,,,,,,,,,,,,,,,,,,,,,,,,,,,,,,,,,,,,,,,,,,,,,,,,,,,,,,,,,,,,,,,,,,,,,,,,,,,,,,,,,,,,,,,,
368107,001,2022-11-21_02h00.27.624,Info_measure_main_exp,2022.2.2,Win32,59.07721392,,,,,,,,,,,,,,,,,,masks/mask_005.jpg,0,0,0,4,1,,,,,,,,,,,,,,,,,,,,,,,,,,,,,,,,,,,,,,,,,,,,,,,,,,,,,,,,,,,,,,,,,,,,,,,,,,,,,,,,,,,,,,,
368107,001,2022-11-21_02h00.27.624,Info_measure_main_exp,2022.2.2,Win32,59.07721392,,,,,,,,,,,,,,,,,,masks/mask_002.jpg,0,1,1,1,1,,,,,,,,,,,,,,,,,,,,,,,,,,,,,,,,,,,,,,,,,,,,,,,,,,,,,,,,,,,,,,,,,,,,,,,,,,,,,,,,,,,,,,,
368107,001,2022-11-21_02h00.27.624,Info_measure_main_exp,2022.2.2,Win32,59.07721392,,,,,,,,,,,,,,,,,,masks/mask_001.jpg,0,2,2,0,1,,,,,,,,,,,,,,,,,,,,,,,,,,,,,,,,,,,,,,,,,,,,,,,,,,,,,,,,,,,,,,,,,,,,,,,,,,,,,,,,,,,,,,,
368107,001,2022-11-21_02h00.27.624,Info_measure_main_exp,2022.2.2,Win32,59.07721392,,,,,,,,,,,,,,,,,,masks/mask_003.jpg,0,3,3,2,1,,,,,,,,,,,,,,,,,,,,,,,,,,,,,,,,,,,,,,,,,,,,,,,,,,,,,,,,,,,,,,,,,,,,,,,,,,,,,,,,,,,,,,,
368107,001,2022-11-21_02h00.27.624,Info_measure_main_exp,2022.2.2,Win32,59.07721392,,,,,,,,,,,,,,,,,,masks/mask_004.jpg,0,4,4,3,1,,,,,,,,,,,,,,,,,,,,,,,,,,,,,,,,,,,,,,,,,,,,,,,,,,,,,,,,,,,,,,,,,,,,,,,,,,,,,,,,,,,,,,,
368107,001,2022-11-21_02h00.27.624,Info_measure_main_exp,2022.2.2,Win32,59.07721392,,,,,,,,,,,,,,,,,,,,,,,,0.08984375,0.166666667,1,0,0,response1disk,7,119.0482,1,0.006510417,0.005208333,1,0,0,center_square,0,1,1,1,1,0,131,5,5,2514,2490,prac_patch/patch0002514.jpg,prac_patch/patch0002490.jpg,,,,,,,,,,,,,,,,,,,,,,,,,,,,,,,,,,,,,,,,,,,,,,,,,,,,,,,,,,,
368107,001,2022-11-21_02h00.27.624,Info_measure_main_exp,2022.2.2,Win32,59.07721392,,,,,,,,,,,,,0,0,0,3,1,masks/mask_004.jpg,,,,,,,,,,,,,,,,,,,,,,,,,,,,,,,,,,,,,,,,,,,,,,,,,,,,,,,,,,,,,,,,,,,,,,,,,,,,,,,,,,,,,,,,,,,,
368107,001,2022-11-21_02h00.27.624,Info_measure_main_exp,2022.2.2,Win32,59.07721392,,,,,,,,,,,,,0,1,1,2,1,masks/mask_003.jpg,,,,,,,,,,,,,,,,,,,,,,,,,,,,,,,,,,,,,,,,,,,,,,,,,,,,,,,,,,,,,,,,,,,,,,,,,,,,,,,,,,,,,,,,,,,,
368107,001,2022-11-21_02h00.27.624,Info_measure_main_exp,2022.2.2,Win32,59.07721392,,,,,,,,,,,,,0,2,2,4,1,masks/mask_005.jpg,,,,,,,,,,,,,,,,,,,,,,,,,,,,,,,,,,,,,,,,,,,,,,,,,,,,,,,,,,,,,,,,,,,,,,,,,,,,,,,,,,,,,,,,,,,,
368107,001,2022-11-21_02h00.27.624,Info_measure_main_exp,2022.2.2,Win32,59.07721392,,,,,,,,,,,,,0,3,3,0,1,masks/mask_001.jpg,,,,,,,,,,,,,,,,,,,,,,,,,,,,,,,,,,,,,,,,,,,,,,,,,,,,,,,,,,,,,,,,,,,,,,,,,,,,,,,,,,,,,,,,,,,,
368107,001,2022-11-21_02h00.27.624,Info_measure_main_exp,2022.2.2,Win32,59.07721392,,,,,,,,,,,,,0,4,4,1,1,masks/mask_002.jpg,,,,,,,,,,,,,,,,,,,,,,,,,,,,,,,,,,,,,,,,,,,,,,,,,,,,,,,,,,,,,,,,,,,,,,,,,,,,,,,,,,,,,,,,,,,,
368107,001,2022-11-21_02h00.27.624,Info_measure_main_exp,2022.2.2,Win32,59.07721392,,,,,,,,,,,,,,,,,,masks/mask_004.jpg,0,0,0,3,1,,,,,,,,,,,,,,,,,,,,,,,,,,,,,,,,,,,,,,,,,,,,,,,,,,,,,,,,,,,,,,,,,,,,,,,,,,,,,,,,,,,,,,,
368107,001,2022-11-21_02h00.27.624,Info_measure_main_exp,2022.2.2,Win32,59.07721392,,,,,,,,,,,,,,,,,,masks/mask_001.jpg,0,1,1,0,1,,,,,,,,,,,,,,,,,,,,,,,,,,,,,,,,,,,,,,,,,,,,,,,,,,,,,,,,,,,,,,,,,,,,,,,,,,,,,,,,,,,,,,,
368107,001,2022-11-21_02h00.27.624,Info_measure_main_exp,2022.2.2,Win32,59.07721392,,,,,,,,,,,,,,,,,,masks/mask_005.jpg,0,2,2,4,1,,,,,,,,,,,,,,,,,,,,,,,,,,,,,,,,,,,,,,,,,,,,,,,,,,,,,,,,,,,,,,,,,,,,,,,,,,,,,,,,,,,,,,,
368107,001,2022-11-21_02h00.27.624,Info_measure_main_exp,2022.2.2,Win32,59.07721392,,,,,,,,,,,,,,,,,,masks/mask_002.jpg,0,3,3,1,1,,,,,,,,,,,,,,,,,,,,,,,,,,,,,,,,,,,,,,,,,,,,,,,,,,,,,,,,,,,,,,,,,,,,,,,,,,,,,,,,,,,,,,,
368107,001,2022-11-21_02h00.27.624,Info_measure_main_exp,2022.2.2,Win32,59.07721392,,,,,,,,,,,,,,,,,,masks/mask_003.jpg,0,4,4,2,1,,,,,,,,,,,,,,,,,,,,,,,,,,,,,,,,,,,,,,,,,,,,,,,,,,,,,,,,,,,,,,,,,,,,,,,,,,,,,,,,,,,,,,,
368107,001,2022-11-21_02h00.27.624,Info_measure_main_exp,2022.2.2,Win32,59.07721392,,,,,,,,,,,,,,,,,,,,,,,,0.037760417,0.147135417,1,0,0,response1disk,7,127.1762,1,-0.001302083,0.005208333,1,0,0,center_square,0,2,2,0,1,0,131,5,5,2370,2406,prac_patch/patch0002370.jpg,prac_patch/patch0002406.jpg,,,,,,,,,,,,,,,,,,,,,,,,,,,,,,,,,,,,,,,,,,,,,,,,,,,,,,,,,,,
368107,001,2022-11-21_02h00.27.624,Info_measure_main_exp,2022.2.2,Win32,59.07721392,,,,,,,,,,,,,,,,,,,,,,,,,,,,,,,,,,,,,,,,,,,,,,,,,,,,-0.001302083,0.005208333,1,0,0,1.8517,center_square,,,,,,,,,,,,,,,,,,,,,,,,,,,,,,,,,,,,,,,,,,,,,,,,,,,,
368107,001,2022-11-21_02h00.27.624,Info_measure_main_exp,2022.2.2,Win32,59.07721392,,,,,,,,,,,,,,,,,,masks/mask_005.jpg,,,,,,,,,,,,,,,,,,,,,,,,,,,,,,,,,,,,,,,,,,0,0,0,4,1,,,,,,,,,,,,,,,,,,,,,,,,,,,,,,,,,,,,,,,,,,,,,,
368107,001,2022-11-21_02h00.27.624,Info_measure_main_exp,2022.2.2,Win32,59.07721392,,,,,,,,,,,,,,,,,,masks/mask_001.jpg,,,,,,,,,,,,,,,,,,,,,,,,,,,,,,,,,,,,,,,,,,0,1,1,0,1,,,,,,,,,,,,,,,,,,,,,,,,,,,,,,,,,,,,,,,,,,,,,,
368107,001,2022-11-21_02h00.27.624,Info_measure_main_exp,2022.2.2,Win32,59.07721392,,,,,,,,,,,,,,,,,,masks/mask_003.jpg,,,,,,,,,,,,,,,,,,,,,,,,,,,,,,,,,,,,,,,,,,0,2,2,2,1,,,,,,,,,,,,,,,,,,,,,,,,,,,,,,,,,,,,,,,,,,,,,,
368107,001,2022-11-21_02h00.27.624,Info_measure_main_exp,2022.2.2,Win32,59.07721392,,,,,,,,,,,,,,,,,,masks/mask_004.jpg,,,,,,,,,,,,,,,,,,,,,,,,,,,,,,,,,,,,,,,,,,0,3,3,3,1,,,,,,,,,,,,,,,,,,,,,,,,,,,,,,,,,,,,,,,,,,,,,,
368107,001,2022-11-21_02h00.27.624,Info_measure_main_exp,2022.2.2,Win32,59.07721392,,,,,,,,,,,,,,,,,,masks/mask_002.jpg,,,,,,,,,,,,,,,,,,,,,,,,,,,,,,,,,,,,,,,,,,0,4,4,1,1,,,,,,,,,,,,,,,,,,,,,,,,,,,,,,,,,,,,,,,,,,,,,,
368107,001,2022-11-21_02h00.27.624,Info_measure_main_exp,2022.2.2,Win32,59.07721392,,,,,,,,,,,,,,,,,,masks/mask_002.jpg,,,,,,,,,,,,,,,,,,,,,,,,,,,,,,,,,,,,,,,,,,,,,,,0,0,0,1,1,,,,,,,,,,,,,,,,,,,,,,,,,,,,,,,,,,,,,,,,,
368107,001,2022-11-21_02h00.27.624,Info_measure_main_exp,2022.2.2,Win32,59.07721392,,,,,,,,,,,,,,,,,,masks/mask_001.jpg,,,,,,,,,,,,,,,,,,,,,,,,,,,,,,,,,,,,,,,,,,,,,,,0,1,1,0,1,,,,,,,,,,,,,,,,,,,,,,,,,,,,,,,,,,,,,,,,,
368107,001,2022-11-21_02h00.27.624,Info_measure_main_exp,2022.2.2,Win32,59.07721392,,,,,,,,,,,,,,,,,,masks/mask_004.jpg,,,,,,,,,,,,,,,,,,,,,,,,,,,,,,,,,,,,,,,,,,,,,,,0,2,2,3,1,,,,,,,,,,,,,,,,,,,,,,,,,,,,,,,,,,,,,,,,,
368107,001,2022-11-21_02h00.27.624,Info_measure_main_exp,2022.2.2,Win32,59.07721392,,,,,,,,,,,,,,,,,,masks/mask_003.jpg,,,,,,,,,,,,,,,,,,,,,,,,,,,,,,,,,,,,,,,,,,,,,,,0,3,3,2,1,,,,,,,,,,,,,,,,,,,,,,,,,,,,,,,,,,,,,,,,,
368107,001,2022-11-21_02h00.27.624,Info_measure_main_exp,2022.2.2,Win32,59.07721392,,,,,,,,,,,,,,,,,,masks/mask_005.jpg,,,,,,,,,,,,,,,,,,,,,,,,,,,,,,,,,,,,,,,,,,,,,,,0,4,4,4,1,,,,,,,,,,,,,,,,,,,,,,,,,,,,,,,,,,,,,,,,,
368107,001,2022-11-21_02h00.27.624,Info_measure_main_exp,2022.2.2,Win32,59.07721392,,,,,,,,,,,,,,,,,,,,,,,,,,,,,,7,0.893,1,,,,,,,,,,,,0,131,5,5,1950,2166,absent_patch/patch0001950.jpg,absent_patch/patch0002166.jpg,,,,,,,,,,,,,,,,,,,0.037760417,0.118489583,1,0,0,response1disk,1,0.00390625,0.005208333,1,0,0,center_square,0,0,0,0,1,,,,,,,,,,,,,,,,,,,,,,,
368107,001,2022-11-21_02h00.27.624,Info_measure_main_exp,2022.2.2,Win32,59.07721392,,,,,,,,,,,,,,,,,,masks/mask_004.jpg,,,,,,,,,,,,,,,,,,,,,,,,,,,,,,,,,,,,,,,,,,0,0,0,3,1,,,,,,,,,,,,,,,,,,,,,,,,,,,,,,,,,,,,,,,,,,,,,,
368107,001,2022-11-21_02h00.27.624,Info_measure_main_exp,2022.2.2,Win32,59.07721392,,,,,,,,,,,,,,,,,,masks/mask_003.jpg,,,,,,,,,,,,,,,,,,,,,,,,,,,,,,,,,,,,,,,,,,0,1,1,2,1,,,,,,,,,,,,,,,,,,,,,,,,,,,,,,,,,,,,,,,,,,,,,,
368107,001,2022-11-21_02h00.27.624,Info_measure_main_exp,2022.2.2,Win32,59.07721392,,,,,,,,,,,,,,,,,,masks/mask_002.jpg,,,,,,,,,,,,,,,,,,,,,,,,,,,,,,,,,,,,,,,,,,0,2,2,1,1,,,,,,,,,,,,,,,,,,,,,,,,,,,,,,,,,,,,,,,,,,,,,,
368107,001,2022-11-21_02h00.27.624,Info_measure_main_exp,2022.2.2,Win32,59.07721392,,,,,,,,,,,,,,,,,,masks/mask_001.jpg,,,,,,,,,,,,,,,,,,,,,,,,,,,,,,,,,,,,,,,,,,0,3,3,0,1,,,,,,,,,,,,,,,,,,,,,,,,,,,,,,,,,,,,,,,,,,,,,,
368107,001,2022-11-21_02h00.27.624,Info_measure_main_exp,2022.2.2,Win32,59.07721392,,,,,,,,,,,,,,,,,,masks/mask_005.jpg,,,,,,,,,,,,,,,,,,,,,,,,,,,,,,,,,,,,,,,,,,0,4,4,4,1,,,,,,,,,,,,,,,,,,,,,,,,,,,,,,,,,,,,,,,,,,,,,,
368107,001,2022-11-21_02h00.27.624,Info_measure_main_exp,2022.2.2,Win32,59.07721392,,,,,,,,,,,,,,,,,,masks/mask_005.jpg,,,,,,,,,,,,,,,,,,,,,,,,,,,,,,,,,,,,,,,,,,,,,,,0,0,0,4,1,,,,,,,,,,,,,,,,,,,,,,,,,,,,,,,,,,,,,,,,,
368107,001,2022-11-21_02h00.27.624,Info_measure_main_exp,2022.2.2,Win32,59.07721392,,,,,,,,,,,,,,,,,,masks/mask_001.jpg,,,,,,,,,,,,,,,,,,,,,,,,,,,,,,,,,,,,,,,,,,,,,,,0,1,1,0,1,,,,,,,,,,,,,,,,,,,,,,,,,,,,,,,,,,,,,,,,,
368107,001,2022-11-21_02h00.27.624,Info_measure_main_exp,2022.2.2,Win32,59.07721392,,,,,,,,,,,,,,,,,,masks/mask_004.jpg,,,,,,,,,,,,,,,,,,,,,,,,,,,,,,,,,,,,,,,,,,,,,,,0,2,2,3,1,,,,,,,,,,,,,,,,,,,,,,,,,,,,,,,,,,,,,,,,,
368107,001,2022-11-21_02h00.27.624,Info_measure_main_exp,2022.2.2,Win32,59.07721392,,,,,,,,,,,,,,,,,,masks/mask_003.jpg,,,,,,,,,,,,,,,,,,,,,,,,,,,,,,,,,,,,,,,,,,,,,,,0,3,3,2,1,,,,,,,,,,,,,,,,,,,,,,,,,,,,,,,,,,,,,,,,,
368107,001,2022-11-21_02h00.27.624,Info_measure_main_exp,2022.2.2,Win32,59.07721392,,,,,,,,,,,,,,,,,,masks/mask_002.jpg,,,,,,,,,,,,,,,,,,,,,,,,,,,,,,,,,,,,,,,,,,,,,,,0,4,4,1,1,,,,,,,,,,,,,,,,,,,,,,,,,,,,,,,,,,,,,,,,,
368107,001,2022-11-21_02h00.27.624,Info_measure_main_exp,2022.2.2,Win32,59.07721392,,,,,,,,,,,,,,,,,,,,,,,,,,,,,,7,0.7524,1,,,,,,,,,,,,0,131,5,5,2238,2214,absent_patch/patch0002238.jpg,absent_patch/patch0002214.jpg,,,,,,,,,,,,,,,,,,,0.078125,0.147135417,1,0,0,response1disk,2,-0.006510417,0.005208333,1,0,0,center_square,0,1,1,81,1,,,,,,,,,,,,,,,,,,,,,,,
368107,001,2022-11-21_02h00.27.624,Info_measure_main_exp,2022.2.2,Win32,59.07721392,,,,,,,,,,,,,,,,,,masks/mask_002.jpg,,,,,,,,,,,,,,,,,,,,,,,,,,,,,,,,,,,,,,,,,,0,0,0,1,1,,,,,,,,,,,,,,,,,,,,,,,,,,,,,,,,,,,,,,,,,,,,,,
368107,001,2022-11-21_02h00.27.624,Info_measure_main_exp,2022.2.2,Win32,59.07721392,,,,,,,,,,,,,,,,,,masks/mask_003.jpg,,,,,,,,,,,,,,,,,,,,,,,,,,,,,,,,,,,,,,,,,,0,1,1,2,1,,,,,,,,,,,,,,,,,,,,,,,,,,,,,,,,,,,,,,,,,,,,,,
368107,001,2022-11-21_02h00.27.624,Info_measure_main_exp,2022.2.2,Win32,59.07721392,,,,,,,,,,,,,,,,,,masks/mask_004.jpg,,,,,,,,,,,,,,,,,,,,,,,,,,,,,,,,,,,,,,,,,,0,2,2,3,1,,,,,,,,,,,,,,,,,,,,,,,,,,,,,,,,,,,,,,,,,,,,,,
368107,001,2022-11-21_02h00.27.624,Info_measure_main_exp,2022.2.2,Win32,59.07721392,,,,,,,,,,,,,,,,,,masks/mask_005.jpg,,,,,,,,,,,,,,,,,,,,,,,,,,,,,,,,,,,,,,,,,,0,3,3,4,1,,,,,,,,,,,,,,,,,,,,,,,,,,,,,,,,,,,,,,,,,,,,,,
368107,001,2022-11-21_02h00.27.624,Info_measure_main_exp,2022.2.2,Win32,59.07721392,,,,,,,,,,,,,,,,,,masks/mask_001.jpg,,,,,,,,,,,,,,,,,,,,,,,,,,,,,,,,,,,,,,,,,,0,4,4,0,1,,,,,,,,,,,,,,,,,,,,,,,,,,,,,,,,,,,,,,,,,,,,,,
368107,001,2022-11-21_02h00.27.624,Info_measure_main_exp,2022.2.2,Win32,59.07721392,,,,,,,,,,,,,,,,,,masks/mask_003.jpg,,,,,,,,,,,,,,,,,,,,,,,,,,,,,,,,,,,,,,,,,,,,,,,0,0,0,2,1,,,,,,,,,,,,,,,,,,,,,,,,,,,,,,,,,,,,,,,,,
368107,001,2022-11-21_02h00.27.624,Info_measure_main_exp,2022.2.2,Win32,59.07721392,,,,,,,,,,,,,,,,,,masks/mask_005.jpg,,,,,,,,,,,,,,,,,,,,,,,,,,,,,,,,,,,,,,,,,,,,,,,0,1,1,4,1,,,,,,,,,,,,,,,,,,,,,,,,,,,,,,,,,,,,,,,,,
368107,001,2022-11-21_02h00.27.624,Info_measure_main_exp,2022.2.2,Win32,59.07721392,,,,,,,,,,,,,,,,,,masks/mask_002.jpg,,,,,,,,,,,,,,,,,,,,,,,,,,,,,,,,,,,,,,,,,,,,,,,0,2,2,1,1,,,,,,,,,,,,,,,,,,,,,,,,,,,,,,,,,,,,,,,,,
368107,001,2022-11-21_02h00.27.624,Info_measure_main_exp,2022.2.2,Win32,59.07721392,,,,,,,,,,,,,,,,,,masks/mask_004.jpg,,,,,,,,,,,,,,,,,,,,,,,,,,,,,,,,,,,,,,,,,,,,,,,0,3,3,3,1,,,,,,,,,,,,,,,,,,,,,,,,,,,,,,,,,,,,,,,,,
368107,001,2022-11-21_02h00.27.624,Info_measure_main_exp,2022.2.2,Win32,59.07721392,,,,,,,,,,,,,,,,,,masks/mask_001.jpg,,,,,,,,,,,,,,,,,,,,,,,,,,,,,,,,,,,,,,,,,,,,,,,0,4,4,0,1,,,,,,,,,,,,,,,,,,,,,,,,,,,,,,,,,,,,,,,,,
368107,001,2022-11-21_02h00.27.624,Info_measure_main_exp,2022.2.2,Win32,59.07721392,,,,,,,,,,,,,,,,,,,,,,,,,,,,,,2,2.0561,1,,,,,,,,,,,,0,131,5,5,2178,2178,absent_patch/patch0002178.jpg,absent_patch/patch0002178.jpg,,,,,,,,,,,,,,,,,,,-0.119791667,-0.055989583,1,0,0,response5disk,3,-0.01171875,-0.001302083,1,0,0,center_square,0,2,2,98,1,,,,,,,,,,,,,,,,,,,,,,,
368107,001,2022-11-21_02h00.27.624,Info_measure_main_exp,2022.2.2,Win32,59.07721392,,,,,,,,,,,,,,,,,,masks/mask_002.jpg,,,,,,,,,,,,,,,,,,,,,,,,,,,,,,,,,,,,,,,,,,0,0,0,1,1,,,,,,,,,,,,,,,,,,,,,,,,,,,,,,,,,,,,,,,,,,,,,,
368107,001,2022-11-21_02h00.27.624,Info_measure_main_exp,2022.2.2,Win32,59.07721392,,,,,,,,,,,,,,,,,,masks/mask_003.jpg,,,,,,,,,,,,,,,,,,,,,,,,,,,,,,,,,,,,,,,,,,0,1,1,2,1,,,,,,,,,,,,,,,,,,,,,,,,,,,,,,,,,,,,,,,,,,,,,,
368107,001,2022-11-21_02h00.27.624,Info_measure_main_exp,2022.2.2,Win32,59.07721392,,,,,,,,,,,,,,,,,,masks/mask_004.jpg,,,,,,,,,,,,,,,,,,,,,,,,,,,,,,,,,,,,,,,,,,0,2,2,3,1,,,,,,,,,,,,,,,,,,,,,,,,,,,,,,,,,,,,,,,,,,,,,,
368107,001,2022-11-21_02h00.27.624,Info_measure_main_exp,2022.2.2,Win32,59.07721392,,,,,,,,,,,,,,,,,,masks/mask_005.jpg,,,,,,,,,,,,,,,,,,,,,,,,,,,,,,,,,,,,,,,,,,0,3,3,4,1,,,,,,,,,,,,,,,,,,,,,,,,,,,,,,,,,,,,,,,,,,,,,,
368107,001,2022-11-21_02h00.27.624,Info_measure_main_exp,2022.2.2,Win32,59.07721392,,,,,,,,,,,,,,,,,,masks/mask_001.jpg,,,,,,,,,,,,,,,,,,,,,,,,,,,,,,,,,,,,,,,,,,0,4,4,0,1,,,,,,,,,,,,,,,,,,,,,,,,,,,,,,,,,,,,,,,,,,,,,,
368107,001,2022-11-21_02h00.27.624,Info_measure_main_exp,2022.2.2,Win32,59.07721392,,,,,,,,,,,,,,,,,,masks/mask_001.jpg,,,,,,,,,,,,,,,,,,,,,,,,,,,,,,,,,,,,,,,,,,,,,,,0,0,0,0,1,,,,,,,,,,,,,,,,,,,,,,,,,,,,,,,,,,,,,,,,,
368107,001,2022-11-21_02h00.27.624,Info_measure_main_exp,2022.2.2,Win32,59.07721392,,,,,,,,,,,,,,,,,,masks/mask_003.jpg,,,,,,,,,,,,,,,,,,,,,,,,,,,,,,,,,,,,,,,,,,,,,,,0,1,1,2,1,,,,,,,,,,,,,,,,,,,,,,,,,,,,,,,,,,,,,,,,,
368107,001,2022-11-21_02h00.27.624,Info_measure_main_exp,2022.2.2,Win32,59.07721392,,,,,,,,,,,,,,,,,,masks/mask_005.jpg,,,,,,,,,,,,,,,,,,,,,,,,,,,,,,,,,,,,,,,,,,,,,,,0,2,2,4,1,,,,,,,,,,,,,,,,,,,,,,,,,,,,,,,,,,,,,,,,,
368107,001,2022-11-21_02h00.27.624,Info_measure_main_exp,2022.2.2,Win32,59.07721392,,,,,,,,,,,,,,,,,,masks/mask_002.jpg,,,,,,,,,,,,,,,,,,,,,,,,,,,,,,,,,,,,,,,,,,,,,,,0,3,3,1,1,,,,,,,,,,,,,,,,,,,,,,,,,,,,,,,,,,,,,,,,,
368107,001,2022-11-21_02h00.27.624,Info_measure_main_exp,2022.2.2,Win32,59.07721392,,,,,,,,,,,,,,,,,,masks/mask_004.jpg,,,,,,,,,,,,,,,,,,,,,,,,,,,,,,,,,,,,,,,,,,,,,,,0,4,4,3,1,,,,,,,,,,,,,,,,,,,,,,,,,,,,,,,,,,,,,,,,,
368107,001,2022-11-21_02h00.27.624,Info_measure_main_exp,2022.2.2,Win32,59.07721392,,,,,,,,,,,,,,,,,,,,,,,,,,,,,,7,1.5377,1,,,,,,,,,,,,0,131,5,5,2154,2298,absent_patch/patch0002154.jpg,absent_patch/patch0002298.jpg,,,,,,,,,,,,,,,,,,,0.0703125,0.178385417,1,0,0,response1disk,4,0,0.002604167,1,0,0,center_square,0,3,3,27,1,,,,,,,,,,,,,,,,,,,,,,,
368107,001,2022-11-21_02h00.27.624,Info_measure_main_exp,2022.2.2,Win32,59.07721392,,,,,,,,,,,,,,,,,,masks/mask_001.jpg,,,,,,,,,,,,,,,,,,,,,,,,,,,,,,,,,,,,,,,,,,0,0,0,0,1,,,,,,,,,,,,,,,,,,,,,,,,,,,,,,,,,,,,,,,,,,,,,,
368107,001,2022-11-21_02h00.27.624,Info_measure_main_exp,2022.2.2,Win32,59.07721392,,,,,,,,,,,,,,,,,,masks/mask_003.jpg,,,,,,,,,,,,,,,,,,,,,,,,,,,,,,,,,,,,,,,,,,0,1,1,2,1,,,,,,,,,,,,,,,,,,,,,,,,,,,,,,,,,,,,,,,,,,,,,,
368107,001,2022-11-21_02h00.27.624,Info_measure_main_exp,2022.2.2,Win32,59.07721392,,,,,,,,,,,,,,,,,,masks/mask_004.jpg,,,,,,,,,,,,,,,,,,,,,,,,,,,,,,,,,,,,,,,,,,0,2,2,3,1,,,,,,,,,,,,,,,,,,,,,,,,,,,,,,,,,,,,,,,,,,,,,,
368107,001,2022-11-21_02h00.27.624,Info_measure_main_exp,2022.2.2,Win32,59.07721392,,,,,,,,,,,,,,,,,,masks/mask_005.jpg,,,,,,,,,,,,,,,,,,,,,,,,,,,,,,,,,,,,,,,,,,0,3,3,4,1,,,,,,,,,,,,,,,,,,,,,,,,,,,,,,,,,,,,,,,,,,,,,,
368107,001,2022-11-21_02h00.27.624,Info_measure_main_exp,2022.2.2,Win32,59.07721392,,,,,,,,,,,,,,,,,,masks/mask_002.jpg,,,,,,,,,,,,,,,,,,,,,,,,,,,,,,,,,,,,,,,,,,0,4,4,1,1,,,,,,,,,,,,,,,,,,,,,,,,,,,,,,,,,,,,,,,,,,,,,,
368107,001,2022-11-21_02h00.27.624,Info_measure_main_exp,2022.2.2,Win32,59.07721392,,,,,,,,,,,,,,,,,,masks/mask_004.jpg,,,,,,,,,,,,,,,,,,,,,,,,,,,,,,,,,,,,,,,,,,,,,,,0,0,0,3,1,,,,,,,,,,,,,,,,,,,,,,,,,,,,,,,,,,,,,,,,,
368107,001,2022-11-21_02h00.27.624,Info_measure_main_exp,2022.2.2,Win32,59.07721392,,,,,,,,,,,,,,,,,,masks/mask_002.jpg,,,,,,,,,,,,,,,,,,,,,,,,,,,,,,,,,,,,,,,,,,,,,,,0,1,1,1,1,,,,,,,,,,,,,,,,,,,,,,,,,,,,,,,,,,,,,,,,,
368107,001,2022-11-21_02h00.27.624,Info_measure_main_exp,2022.2.2,Win32,59.07721392,,,,,,,,,,,,,,,,,,masks/mask_001.jpg,,,,,,,,,,,,,,,,,,,,,,,,,,,,,,,,,,,,,,,,,,,,,,,0,2,2,0,1,,,,,,,,,,,,,,,,,,,,,,,,,,,,,,,,,,,,,,,,,
368107,001,2022-11-21_02h00.27.624,Info_measure_main_exp,2022.2.2,Win32,59.07721392,,,,,,,,,,,,,,,,,,masks/mask_003.jpg,,,,,,,,,,,,,,,,,,,,,,,,,,,,,,,,,,,,,,,,,,,,,,,0,3,3,2,1,,,,,,,,,,,,,,,,,,,,,,,,,,,,,,,,,,,,,,,,,
368107,001,2022-11-21_02h00.27.624,Info_measure_main_exp,2022.2.2,Win32,59.07721392,,,,,,,,,,,,,,,,,,masks/mask_005.jpg,,,,,,,,,,,,,,,,,,,,,,,,,,,,,,,,,,,,,,,,,,,,,,,0,4,4,4,1,,,,,,,,,,,,,,,,,,,,,,,,,,,,,,,,,,,,,,,,,
368107,001,2022-11-21_02h00.27.624,Info_measure_main_exp,2022.2.2,Win32,59.07721392,,,,,,,,,,,,,,,,,,,,,,,,,,,,,,7,0.6677,1,,,,,,,,,,,,0,131,5,5,2154,2250,absent_patch/patch0002154.jpg,absent_patch/patch0002250.jpg,,,,,,,,,,,,,,,,,,,0.020833333,0.079427083,1,0,0,response1disk,5,-0.001302083,-0.002604167,1,0,0,center_square,0,4,4,108,1,,,,,,,,,,,,,,,,,,,,,,,
368107,001,2022-11-21_02h00.27.624,Info_measure_main_exp,2022.2.2,Win32,59.07721392,,,,,,,,,,,,,,,,,,masks/mask_005.jpg,,,,,,,,,,,,,,,,,,,,,,,,,,,,,,,,,,,,,,,,,,0,0,0,4,1,,,,,,,,,,,,,,,,,,,,,,,,,,,,,,,,,,,,,,,,,,,,,,
368107,001,2022-11-21_02h00.27.624,Info_measure_main_exp,2022.2.2,Win32,59.07721392,,,,,,,,,,,,,,,,,,masks/mask_003.jpg,,,,,,,,,,,,,,,,,,,,,,,,,,,,,,,,,,,,,,,,,,0,1,1,2,1,,,,,,,,,,,,,,,,,,,,,,,,,,,,,,,,,,,,,,,,,,,,,,
368107,001,2022-11-21_02h00.27.624,Info_measure_main_exp,2022.2.2,Win32,59.07721392,,,,,,,,,,,,,,,,,,masks/mask_001.jpg,,,,,,,,,,,,,,,,,,,,,,,,,,,,,,,,,,,,,,,,,,0,2,2,0,1,,,,,,,,,,,,,,,,,,,,,,,,,,,,,,,,,,,,,,,,,,,,,,
368107,001,2022-11-21_02h00.27.624,Info_measure_main_exp,2022.2.2,Win32,59.07721392,,,,,,,,,,,,,,,,,,masks/mask_002.jpg,,,,,,,,,,,,,,,,,,,,,,,,,,,,,,,,,,,,,,,,,,0,3,3,1,1,,,,,,,,,,,,,,,,,,,,,,,,,,,,,,,,,,,,,,,,,,,,,,
368107,001,2022-11-21_02h00.27.624,Info_measure_main_exp,2022.2.2,Win32,59.07721392,,,,,,,,,,,,,,,,,,masks/mask_004.jpg,,,,,,,,,,,,,,,,,,,,,,,,,,,,,,,,,,,,,,,,,,0,4,4,3,1,,,,,,,,,,,,,,,,,,,,,,,,,,,,,,,,,,,,,,,,,,,,,,
368107,001,2022-11-21_02h00.27.624,Info_measure_main_exp,2022.2.2,Win32,59.07721392,,,,,,,,,,,,,,,,,,masks/mask_001.jpg,,,,,,,,,,,,,,,,,,,,,,,,,,,,,,,,,,,,,,,,,,,,,,,0,0,0,0,1,,,,,,,,,,,,,,,,,,,,,,,,,,,,,,,,,,,,,,,,,
368107,001,2022-11-21_02h00.27.624,Info_measure_main_exp,2022.2.2,Win32,59.07721392,,,,,,,,,,,,,,,,,,masks/mask_004.jpg,,,,,,,,,,,,,,,,,,,,,,,,,,,,,,,,,,,,,,,,,,,,,,,0,1,1,3,1,,,,,,,,,,,,,,,,,,,,,,,,,,,,,,,,,,,,,,,,,
368107,001,2022-11-21_02h00.27.624,Info_measure_main_exp,2022.2.2,Win32,59.07721392,,,,,,,,,,,,,,,,,,masks/mask_003.jpg,,,,,,,,,,,,,,,,,,,,,,,,,,,,,,,,,,,,,,,,,,,,,,,0,2,2,2,1,,,,,,,,,,,,,,,,,,,,,,,,,,,,,,,,,,,,,,,,,
368107,001,2022-11-21_02h00.27.624,Info_measure_main_exp,2022.2.2,Win32,59.07721392,,,,,,,,,,,,,,,,,,masks/mask_002.jpg,,,,,,,,,,,,,,,,,,,,,,,,,,,,,,,,,,,,,,,,,,,,,,,0,3,3,1,1,,,,,,,,,,,,,,,,,,,,,,,,,,,,,,,,,,,,,,,,,
368107,001,2022-11-21_02h00.27.624,Info_measure_main_exp,2022.2.2,Win32,59.07721392,,,,,,,,,,,,,,,,,,masks/mask_005.jpg,,,,,,,,,,,,,,,,,,,,,,,,,,,,,,,,,,,,,,,,,,,,,,,0,4,4,4,1,,,,,,,,,,,,,,,,,,,,,,,,,,,,,,,,,,,,,,,,,
368107,001,2022-11-21_02h00.27.624,Info_measure_main_exp,2022.2.2,Win32,59.07721392,,,,,,,,,,,,,,,,,,,,,,,,,,,,,,5,0.8849,1,,,,,,,,,,,,0,131,5,5,2082,2298,absent_patch/patch0002082.jpg,absent_patch/patch0002298.jpg,,,,,,,,,,,,,,,,,,,0.1640625,-0.05859375,1,0,0,response3disk,6,-0.001302083,-0.005208333,1,0,0,center_square,0,5,5,107,1,,,,,,,,,,,,,,,,,,,,,,,
368107,001,2022-11-21_02h00.27.624,Info_measure_main_exp,2022.2.2,Win32,59.07721392,,,,,,,,,,,,,,,,,,masks/mask_004.jpg,,,,,,,,,,,,,,,,,,,,,,,,,,,,,,,,,,,,,,,,,,0,0,0,3,1,,,,,,,,,,,,,,,,,,,,,,,,,,,,,,,,,,,,,,,,,,,,,,
368107,001,2022-11-21_02h00.27.624,Info_measure_main_exp,2022.2.2,Win32,59.07721392,,,,,,,,,,,,,,,,,,masks/mask_001.jpg,,,,,,,,,,,,,,,,,,,,,,,,,,,,,,,,,,,,,,,,,,0,1,1,0,1,,,,,,,,,,,,,,,,,,,,,,,,,,,,,,,,,,,,,,,,,,,,,,
368107,001,2022-11-21_02h00.27.624,Info_measure_main_exp,2022.2.2,Win32,59.07721392,,,,,,,,,,,,,,,,,,masks/mask_003.jpg,,,,,,,,,,,,,,,,,,,,,,,,,,,,,,,,,,,,,,,,,,0,2,2,2,1,,,,,,,,,,,,,,,,,,,,,,,,,,,,,,,,,,,,,,,,,,,,,,
368107,001,2022-11-21_02h00.27.624,Info_measure_main_exp,2022.2.2,Win32,59.07721392,,,,,,,,,,,,,,,,,,masks/mask_002.jpg,,,,,,,,,,,,,,,,,,,,,,,,,,,,,,,,,,,,,,,,,,0,3,3,1,1,,,,,,,,,,,,,,,,,,,,,,,,,,,,,,,,,,,,,,,,,,,,,,
368107,001,2022-11-21_02h00.27.624,Info_measure_main_exp,2022.2.2,Win32,59.07721392,,,,,,,,,,,,,,,,,,masks/mask_005.jpg,,,,,,,,,,,,,,,,,,,,,,,,,,,,,,,,,,,,,,,,,,0,4,4,4,1,,,,,,,,,,,,,,,,,,,,,,,,,,,,,,,,,,,,,,,,,,,,,,
368107,001,2022-11-21_02h00.27.624,Info_measure_main_exp,2022.2.2,Win32,59.07721392,,,,,,,,,,,,,,,,,,masks/mask_005.jpg,,,,,,,,,,,,,,,,,,,,,,,,,,,,,,,,,,,,,,,,,,,,,,,0,0,0,4,1,,,,,,,,,,,,,,,,,,,,,,,,,,,,,,,,,,,,,,,,,
368107,001,2022-11-21_02h00.27.624,Info_measure_main_exp,2022.2.2,Win32,59.07721392,,,,,,,,,,,,,,,,,,masks/mask_003.jpg,,,,,,,,,,,,,,,,,,,,,,,,,,,,,,,,,,,,,,,,,,,,,,,0,1,1,2,1,,,,,,,,,,,,,,,,,,,,,,,,,,,,,,,,,,,,,,,,,
368107,001,2022-11-21_02h00.27.624,Info_measure_main_exp,2022.2.2,Win32,59.07721392,,,,,,,,,,,,,,,,,,masks/mask_004.jpg,,,,,,,,,,,,,,,,,,,,,,,,,,,,,,,,,,,,,,,,,,,,,,,0,2,2,3,1,,,,,,,,,,,,,,,,,,,,,,,,,,,,,,,,,,,,,,,,,
368107,001,2022-11-21_02h00.27.624,Info_measure_main_exp,2022.2.2,Win32,59.07721392,,,,,,,,,,,,,,,,,,masks/mask_002.jpg,,,,,,,,,,,,,,,,,,,,,,,,,,,,,,,,,,,,,,,,,,,,,,,0,3,3,1,1,,,,,,,,,,,,,,,,,,,,,,,,,,,,,,,,,,,,,,,,,
368107,001,2022-11-21_02h00.27.624,Info_measure_main_exp,2022.2.2,Win32,59.07721392,,,,,,,,,,,,,,,,,,masks/mask_001.jpg,,,,,,,,,,,,,,,,,,,,,,,,,,,,,,,,,,,,,,,,,,,,,,,0,4,4,0,1,,,,,,,,,,,,,,,,,,,,,,,,,,,,,,,,,,,,,,,,,
368107,001,2022-11-21_02h00.27.624,Info_measure_main_exp,2022.2.2,Win32,59.07721392,,,,,,,,,,,,,,,,,,,,,,,,,,,,,,7,1.4874,1,,,,,,,,,,,,0,131,5,5,1986,2142,absent_patch/patch0001986.jpg,absent_patch/patch0002142.jpg,,,,,,,,,,,,,,,,,,,0.055989583,0.111979167,1,0,0,response1disk,7,0.00390625,0.009114583,1,0,0,center_square,0,6,6,76,1,,,,,,,,,,,,,,,,,,,,,,,
368107,001,2022-11-21_02h00.27.624,Info_measure_main_exp,2022.2.2,Win32,59.07721392,,,,,,,,,,,,,,,,,,masks/mask_001.jpg,,,,,,,,,,,,,,,,,,,,,,,,,,,,,,,,,,,,,,,,,,0,0,0,0,1,,,,,,,,,,,,,,,,,,,,,,,,,,,,,,,,,,,,,,,,,,,,,,
368107,001,2022-11-21_02h00.27.624,Info_measure_main_exp,2022.2.2,Win32,59.07721392,,,,,,,,,,,,,,,,,,masks/mask_002.jpg,,,,,,,,,,,,,,,,,,,,,,,,,,,,,,,,,,,,,,,,,,0,1,1,1,1,,,,,,,,,,,,,,,,,,,,,,,,,,,,,,,,,,,,,,,,,,,,,,
368107,001,2022-11-21_02h00.27.624,Info_measure_main_exp,2022.2.2,Win32,59.07721392,,,,,,,,,,,,,,,,,,masks/mask_005.jpg,,,,,,,,,,,,,,,,,,,,,,,,,,,,,,,,,,,,,,,,,,0,2,2,4,1,,,,,,,,,,,,,,,,,,,,,,,,,,,,,,,,,,,,,,,,,,,,,,
368107,001,2022-11-21_02h00.27.624,Info_measure_main_exp,2022.2.2,Win32,59.07721392,,,,,,,,,,,,,,,,,,masks/mask_003.jpg,,,,,,,,,,,,,,,,,,,,,,,,,,,,,,,,,,,,,,,,,,0,3,3,2,1,,,,,,,,,,,,,,,,,,,,,,,,,,,,,,,,,,,,,,,,,,,,,,
368107,001,2022-11-21_02h00.27.624,Info_measure_main_exp,2022.2.2,Win32,59.07721392,,,,,,,,,,,,,,,,,,masks/mask_004.jpg,,,,,,,,,,,,,,,,,,,,,,,,,,,,,,,,,,,,,,,,,,0,4,4,3,1,,,,,,,,,,,,,,,,,,,,,,,,,,,,,,,,,,,,,,,,,,,,,,
368107,001,2022-11-21_02h00.27.624,Info_measure_main_exp,2022.2.2,Win32,59.07721392,,,,,,,,,,,,,,,,,,masks/mask_002.jpg,,,,,,,,,,,,,,,,,,,,,,,,,,,,,,,,,,,,,,,,,,,,,,,0,0,0,1,1,,,,,,,,,,,,,,,,,,,,,,,,,,,,,,,,,,,,,,,,,
368107,001,2022-11-21_02h00.27.624,Info_measure_main_exp,2022.2.2,Win32,59.07721392,,,,,,,,,,,,,,,,,,masks/mask_003.jpg,,,,,,,,,,,,,,,,,,,,,,,,,,,,,,,,,,,,,,,,,,,,,,,0,1,1,2,1,,,,,,,,,,,,,,,,,,,,,,,,,,,,,,,,,,,,,,,,,
368107,001,2022-11-21_02h00.27.624,Info_measure_main_exp,2022.2.2,Win32,59.07721392,,,,,,,,,,,,,,,,,,masks/mask_004.jpg,,,,,,,,,,,,,,,,,,,,,,,,,,,,,,,,,,,,,,,,,,,,,,,0,2,2,3,1,,,,,,,,,,,,,,,,,,,,,,,,,,,,,,,,,,,,,,,,,
368107,001,2022-11-21_02h00.27.624,Info_measure_main_exp,2022.2.2,Win32,59.07721392,,,,,,,,,,,,,,,,,,masks/mask_005.jpg,,,,,,,,,,,,,,,,,,,,,,,,,,,,,,,,,,,,,,,,,,,,,,,0,3,3,4,1,,,,,,,,,,,,,,,,,,,,,,,,,,,,,,,,,,,,,,,,,
368107,001,2022-11-21_02h00.27.624,Info_measure_main_exp,2022.2.2,Win32,59.07721392,,,,,,,,,,,,,,,,,,masks/mask_001.jpg,,,,,,,,,,,,,,,,,,,,,,,,,,,,,,,,,,,,,,,,,,,,,,,0,4,4,0,1,,,,,,,,,,,,,,,,,,,,,,,,,,,,,,,,,,,,,,,,,
368107,001,2022-11-21_02h00.27.624,Info_measure_main_exp,2022.2.2,Win32,59.07721392,,,,,,,,,,,,,,,,,,,,,,,,,,,,,,7,0.9411,1,,,,,,,,,,,,1,131,5,5,1950,1,absent_patch/patch0001950.jpg,present_patch/cong_131_5_a.jpg,,,,,,,,,,,,,,,,,,,0.040364583,0.162760417,1,0,0,response1disk,8,0,-0.0078125,1,0,0,center_square,0,7,7,39,1,,,,,,,,,,,,,,,,,,,,,,,
368107,001,2022-11-21_02h00.27.624,Info_measure_main_exp,2022.2.2,Win32,59.07721392,,,,,,,,,,,,,,,,,,masks/mask_004.jpg,,,,,,,,,,,,,,,,,,,,,,,,,,,,,,,,,,,,,,,,,,0,0,0,3,1,,,,,,,,,,,,,,,,,,,,,,,,,,,,,,,,,,,,,,,,,,,,,,
368107,001,2022-11-21_02h00.27.624,Info_measure_main_exp,2022.2.2,Win32,59.07721392,,,,,,,,,,,,,,,,,,masks/mask_005.jpg,,,,,,,,,,,,,,,,,,,,,,,,,,,,,,,,,,,,,,,,,,0,1,1,4,1,,,,,,,,,,,,,,,,,,,,,,,,,,,,,,,,,,,,,,,,,,,,,,
368107,001,2022-11-21_02h00.27.624,Info_measure_main_exp,2022.2.2,Win32,59.07721392,,,,,,,,,,,,,,,,,,masks/mask_002.jpg,,,,,,,,,,,,,,,,,,,,,,,,,,,,,,,,,,,,,,,,,,0,2,2,1,1,,,,,,,,,,,,,,,,,,,,,,,,,,,,,,,,,,,,,,,,,,,,,,
368107,001,2022-11-21_02h00.27.624,Info_measure_main_exp,2022.2.2,Win32,59.07721392,,,,,,,,,,,,,,,,,,masks/mask_001.jpg,,,,,,,,,,,,,,,,,,,,,,,,,,,,,,,,,,,,,,,,,,0,3,3,0,1,,,,,,,,,,,,,,,,,,,,,,,,,,,,,,,,,,,,,,,,,,,,,,
368107,001,2022-11-21_02h00.27.624,Info_measure_main_exp,2022.2.2,Win32,59.07721392,,,,,,,,,,,,,,,,,,masks/mask_003.jpg,,,,,,,,,,,,,,,,,,,,,,,,,,,,,,,,,,,,,,,,,,0,4,4,2,1,,,,,,,,,,,,,,,,,,,,,,,,,,,,,,,,,,,,,,,,,,,,,,
368107,001,2022-11-21_02h00.27.624,Info_measure_main_exp,2022.2.2,Win32,59.07721392,,,,,,,,,,,,,,,,,,masks/mask_004.jpg,,,,,,,,,,,,,,,,,,,,,,,,,,,,,,,,,,,,,,,,,,,,,,,0,0,0,3,1,,,,,,,,,,,,,,,,,,,,,,,,,,,,,,,,,,,,,,,,,
368107,001,2022-11-21_02h00.27.624,Info_measure_main_exp,2022.2.2,Win32,59.07721392,,,,,,,,,,,,,,,,,,masks/mask_003.jpg,,,,,,,,,,,,,,,,,,,,,,,,,,,,,,,,,,,,,,,,,,,,,,,0,1,1,2,1,,,,,,,,,,,,,,,,,,,,,,,,,,,,,,,,,,,,,,,,,
368107,001,2022-11-21_02h00.27.624,Info_measure_main_exp,2022.2.2,Win32,59.07721392,,,,,,,,,,,,,,,,,,masks/mask_002.jpg,,,,,,,,,,,,,,,,,,,,,,,,,,,,,,,,,,,,,,,,,,,,,,,0,2,2,1,1,,,,,,,,,,,,,,,,,,,,,,,,,,,,,,,,,,,,,,,,,
368107,001,2022-11-21_02h00.27.624,Info_measure_main_exp,2022.2.2,Win32,59.07721392,,,,,,,,,,,,,,,,,,masks/mask_005.jpg,,,,,,,,,,,,,,,,,,,,,,,,,,,,,,,,,,,,,,,,,,,,,,,0,3,3,4,1,,,,,,,,,,,,,,,,,,,,,,,,,,,,,,,,,,,,,,,,,
368107,001,2022-11-21_02h00.27.624,Info_measure_main_exp,2022.2.2,Win32,59.07721392,,,,,,,,,,,,,,,,,,masks/mask_001.jpg,,,,,,,,,,,,,,,,,,,,,,,,,,,,,,,,,,,,,,,,,,,,,,,0,4,4,0,1,,,,,,,,,,,,,,,,,,,,,,,,,,,,,,,,,,,,,,,,,
368107,001,2022-11-21_02h00.27.624,Info_measure_main_exp,2022.2.2,Win32,59.07721392,,,,,,,,,,,,,,,,,,,,,,,,,,,,,,0,1.7881,1,,,,,,,,,,,,0,131,5,5,2154,2154,absent_patch/patch0002154.jpg,absent_patch/patch0002154.jpg,,,,,,,,,,,,,,,,,,,-0.06640625,0.1484375,1,0,0,response7disk,9,0.002604167,0,1,0,0,center_square,0,8,8,89,1,,,,,,,,,,,,,,,,,,,,,,,
368107,001,2022-11-21_02h00.27.624,Info_measure_main_exp,2022.2.2,Win32,59.07721392,,,,,,,,,,,,,,,,,,masks/mask_005.jpg,,,,,,,,,,,,,,,,,,,,,,,,,,,,,,,,,,,,,,,,,,0,0,0,4,1,,,,,,,,,,,,,,,,,,,,,,,,,,,,,,,,,,,,,,,,,,,,,,
368107,001,2022-11-21_02h00.27.624,Info_measure_main_exp,2022.2.2,Win32,59.07721392,,,,,,,,,,,,,,,,,,masks/mask_004.jpg,,,,,,,,,,,,,,,,,,,,,,,,,,,,,,,,,,,,,,,,,,0,1,1,3,1,,,,,,,,,,,,,,,,,,,,,,,,,,,,,,,,,,,,,,,,,,,,,,
368107,001,2022-11-21_02h00.27.624,Info_measure_main_exp,2022.2.2,Win32,59.07721392,,,,,,,,,,,,,,,,,,masks/mask_002.jpg,,,,,,,,,,,,,,,,,,,,,,,,,,,,,,,,,,,,,,,,,,0,2,2,1,1,,,,,,,,,,,,,,,,,,,,,,,,,,,,,,,,,,,,,,,,,,,,,,
368107,001,2022-11-21_02h00.27.624,Info_measure_main_exp,2022.2.2,Win32,59.07721392,,,,,,,,,,,,,,,,,,masks/mask_003.jpg,,,,,,,,,,,,,,,,,,,,,,,,,,,,,,,,,,,,,,,,,,0,3,3,2,1,,,,,,,,,,,,,,,,,,,,,,,,,,,,,,,,,,,,,,,,,,,,,,
368107,001,2022-11-21_02h00.27.624,Info_measure_main_exp,2022.2.2,Win32,59.07721392,,,,,,,,,,,,,,,,,,masks/mask_001.jpg,,,,,,,,,,,,,,,,,,,,,,,,,,,,,,,,,,,,,,,,,,0,4,4,0,1,,,,,,,,,,,,,,,,,,,,,,,,,,,,,,,,,,,,,,,,,,,,,,
368107,001,2022-11-21_02h00.27.624,Info_measure_main_exp,2022.2.2,Win32,59.07721392,,,,,,,,,,,,,,,,,,masks/mask_005.jpg,,,,,,,,,,,,,,,,,,,,,,,,,,,,,,,,,,,,,,,,,,,,,,,0,0,0,4,1,,,,,,,,,,,,,,,,,,,,,,,,,,,,,,,,,,,,,,,,,
368107,001,2022-11-21_02h00.27.624,Info_measure_main_exp,2022.2.2,Win32,59.07721392,,,,,,,,,,,,,,,,,,masks/mask_002.jpg,,,,,,,,,,,,,,,,,,,,,,,,,,,,,,,,,,,,,,,,,,,,,,,0,1,1,1,1,,,,,,,,,,,,,,,,,,,,,,,,,,,,,,,,,,,,,,,,,
368107,001,2022-11-21_02h00.27.624,Info_measure_main_exp,2022.2.2,Win32,59.07721392,,,,,,,,,,,,,,,,,,masks/mask_001.jpg,,,,,,,,,,,,,,,,,,,,,,,,,,,,,,,,,,,,,,,,,,,,,,,0,2,2,0,1,,,,,,,,,,,,,,,,,,,,,,,,,,,,,,,,,,,,,,,,,
368107,001,2022-11-21_02h00.27.624,Info_measure_main_exp,2022.2.2,Win32,59.07721392,,,,,,,,,,,,,,,,,,masks/mask_003.jpg,,,,,,,,,,,,,,,,,,,,,,,,,,,,,,,,,,,,,,,,,,,,,,,0,3,3,2,1,,,,,,,,,,,,,,,,,,,,,,,,,,,,,,,,,,,,,,,,,
368107,001,2022-11-21_02h00.27.624,Info_measure_main_exp,2022.2.2,Win32,59.07721392,,,,,,,,,,,,,,,,,,masks/mask_004.jpg,,,,,,,,,,,,,,,,,,,,,,,,,,,,,,,,,,,,,,,,,,,,,,,0,4,4,3,1,,,,,,,,,,,,,,,,,,,,,,,,,,,,,,,,,,,,,,,,,
368107,001,2022-11-21_02h00.27.624,Info_measure_main_exp,2022.2.2,Win32,59.07721392,,,,,,,,,,,,,,,,,,,,,,,,,,,,,,7,0.6515,1,,,,,,,,,,,,0,131,5,5,2274,2250,absent_patch/patch0002274.jpg,absent_patch/patch0002250.jpg,,,,,,,,,,,,,,,,,,,0.0390625,0.076822917,1,0,0,response1disk,10,-0.001302083,0.00390625,1,0,0,center_square,0,9,9,28,1,,,,,,,,,,,,,,,,,,,,,,,
368107,001,2022-11-21_02h00.27.624,Info_measure_main_exp,2022.2.2,Win32,59.07721392,,,,,,,,,,,,,,,,,,masks/mask_003.jpg,,,,,,,,,,,,,,,,,,,,,,,,,,,,,,,,,,,,,,,,,,0,0,0,2,1,,,,,,,,,,,,,,,,,,,,,,,,,,,,,,,,,,,,,,,,,,,,,,
368107,001,2022-11-21_02h00.27.624,Info_measure_main_exp,2022.2.2,Win32,59.07721392,,,,,,,,,,,,,,,,,,masks/mask_001.jpg,,,,,,,,,,,,,,,,,,,,,,,,,,,,,,,,,,,,,,,,,,0,1,1,0,1,,,,,,,,,,,,,,,,,,,,,,,,,,,,,,,,,,,,,,,,,,,,,,
368107,001,2022-11-21_02h00.27.624,Info_measure_main_exp,2022.2.2,Win32,59.07721392,,,,,,,,,,,,,,,,,,masks/mask_002.jpg,,,,,,,,,,,,,,,,,,,,,,,,,,,,,,,,,,,,,,,,,,0,2,2,1,1,,,,,,,,,,,,,,,,,,,,,,,,,,,,,,,,,,,,,,,,,,,,,,
368107,001,2022-11-21_02h00.27.624,Info_measure_main_exp,2022.2.2,Win32,59.07721392,,,,,,,,,,,,,,,,,,masks/mask_004.jpg,,,,,,,,,,,,,,,,,,,,,,,,,,,,,,,,,,,,,,,,,,0,3,3,3,1,,,,,,,,,,,,,,,,,,,,,,,,,,,,,,,,,,,,,,,,,,,,,,
368107,001,2022-11-21_02h00.27.624,Info_measure_main_exp,2022.2.2,Win32,59.07721392,,,,,,,,,,,,,,,,,,masks/mask_005.jpg,,,,,,,,,,,,,,,,,,,,,,,,,,,,,,,,,,,,,,,,,,0,4,4,4,1,,,,,,,,,,,,,,,,,,,,,,,,,,,,,,,,,,,,,,,,,,,,,,
368107,001,2022-11-21_02h00.27.624,Info_measure_main_exp,2022.2.2,Win32,59.07721392,,,,,,,,,,,,,,,,,,masks/mask_001.jpg,,,,,,,,,,,,,,,,,,,,,,,,,,,,,,,,,,,,,,,,,,,,,,,0,0,0,0,1,,,,,,,,,,,,,,,,,,,,,,,,,,,,,,,,,,,,,,,,,
368107,001,2022-11-21_02h00.27.624,Info_measure_main_exp,2022.2.2,Win32,59.07721392,,,,,,,,,,,,,,,,,,masks/mask_003.jpg,,,,,,,,,,,,,,,,,,,,,,,,,,,,,,,,,,,,,,,,,,,,,,,0,1,1,2,1,,,,,,,,,,,,,,,,,,,,,,,,,,,,,,,,,,,,,,,,,
368107,001,2022-11-21_02h00.27.624,Info_measure_main_exp,2022.2.2,Win32,59.07721392,,,,,,,,,,,,,,,,,,masks/mask_004.jpg,,,,,,,,,,,,,,,,,,,,,,,,,,,,,,,,,,,,,,,,,,,,,,,0,2,2,3,1,,,,,,,,,,,,,,,,,,,,,,,,,,,,,,,,,,,,,,,,,
368107,001,2022-11-21_02h00.27.624,Info_measure_main_exp,2022.2.2,Win32,59.07721392,,,,,,,,,,,,,,,,,,masks/mask_002.jpg,,,,,,,,,,,,,,,,,,,,,,,,,,,,,,,,,,,,,,,,,,,,,,,0,3,3,1,1,,,,,,,,,,,,,,,,,,,,,,,,,,,,,,,,,,,,,,,,,
368107,001,2022-11-21_02h00.27.624,Info_measure_main_exp,2022.2.2,Win32,59.07721392,,,,,,,,,,,,,,,,,,masks/mask_005.jpg,,,,,,,,,,,,,,,,,,,,,,,,,,,,,,,,,,,,,,,,,,,,,,,0,4,4,4,1,,,,,,,,,,,,,,,,,,,,,,,,,,,,,,,,,,,,,,,,,
368107,001,2022-11-21_02h00.27.624,Info_measure_main_exp,2022.2.2,Win32,59.07721392,,,,,,,,,,,,,,,,,,,,,,,,,,,,,,7,0.8853,1,,,,,,,,,,,,0,131,5,5,2238,2298,absent_patch/patch0002238.jpg,absent_patch/patch0002298.jpg,,,,,,,,,,,,,,,,,,,0.01171875,0.036458333,1,0,0,response1disk,11,0.002604167,-0.0078125,1,0,0,center_square,0,10,10,51,1,,,,,,,,,,,,,,,,,,,,,,,
368107,001,2022-11-21_02h00.27.624,Info_measure_main_exp,2022.2.2,Win32,59.07721392,,,,,,,,,,,,,,,,,,masks/mask_002.jpg,,,,,,,,,,,,,,,,,,,,,,,,,,,,,,,,,,,,,,,,,,0,0,0,1,1,,,,,,,,,,,,,,,,,,,,,,,,,,,,,,,,,,,,,,,,,,,,,,
368107,001,2022-11-21_02h00.27.624,Info_measure_main_exp,2022.2.2,Win32,59.07721392,,,,,,,,,,,,,,,,,,masks/mask_001.jpg,,,,,,,,,,,,,,,,,,,,,,,,,,,,,,,,,,,,,,,,,,0,1,1,0,1,,,,,,,,,,,,,,,,,,,,,,,,,,,,,,,,,,,,,,,,,,,,,,
368107,001,2022-11-21_02h00.27.624,Info_measure_main_exp,2022.2.2,Win32,59.07721392,,,,,,,,,,,,,,,,,,masks/mask_004.jpg,,,,,,,,,,,,,,,,,,,,,,,,,,,,,,,,,,,,,,,,,,0,2,2,3,1,,,,,,,,,,,,,,,,,,,,,,,,,,,,,,,,,,,,,,,,,,,,,,
368107,001,2022-11-21_02h00.27.624,Info_measure_main_exp,2022.2.2,Win32,59.07721392,,,,,,,,,,,,,,,,,,masks/mask_005.jpg,,,,,,,,,,,,,,,,,,,,,,,,,,,,,,,,,,,,,,,,,,0,3,3,4,1,,,,,,,,,,,,,,,,,,,,,,,,,,,,,,,,,,,,,,,,,,,,,,
368107,001,2022-11-21_02h00.27.624,Info_measure_main_exp,2022.2.2,Win32,59.07721392,,,,,,,,,,,,,,,,,,masks/mask_003.jpg,,,,,,,,,,,,,,,,,,,,,,,,,,,,,,,,,,,,,,,,,,0,4,4,2,1,,,,,,,,,,,,,,,,,,,,,,,,,,,,,,,,,,,,,,,,,,,,,,
368107,001,2022-11-21_02h00.27.624,Info_measure_main_exp,2022.2.2,Win32,59.07721392,,,,,,,,,,,,,,,,,,masks/mask_004.jpg,,,,,,,,,,,,,,,,,,,,,,,,,,,,,,,,,,,,,,,,,,,,,,,0,0,0,3,1,,,,,,,,,,,,,,,,,,,,,,,,,,,,,,,,,,,,,,,,,
368107,001,2022-11-21_02h00.27.624,Info_measure_main_exp,2022.2.2,Win32,59.07721392,,,,,,,,,,,,,,,,,,masks/mask_001.jpg,,,,,,,,,,,,,,,,,,,,,,,,,,,,,,,,,,,,,,,,,,,,,,,0,1,1,0,1,,,,,,,,,,,,,,,,,,,,,,,,,,,,,,,,,,,,,,,,,
368107,001,2022-11-21_02h00.27.624,Info_measure_main_exp,2022.2.2,Win32,59.07721392,,,,,,,,,,,,,,,,,,masks/mask_003.jpg,,,,,,,,,,,,,,,,,,,,,,,,,,,,,,,,,,,,,,,,,,,,,,,0,2,2,2,1,,,,,,,,,,,,,,,,,,,,,,,,,,,,,,,,,,,,,,,,,
368107,001,2022-11-21_02h00.27.624,Info_measure_main_exp,2022.2.2,Win32,59.07721392,,,,,,,,,,,,,,,,,,masks/mask_002.jpg,,,,,,,,,,,,,,,,,,,,,,,,,,,,,,,,,,,,,,,,,,,,,,,0,3,3,1,1,,,,,,,,,,,,,,,,,,,,,,,,,,,,,,,,,,,,,,,,,
368107,001,2022-11-21_02h00.27.624,Info_measure_main_exp,2022.2.2,Win32,59.07721392,,,,,,,,,,,,,,,,,,masks/mask_005.jpg,,,,,,,,,,,,,,,,,,,,,,,,,,,,,,,,,,,,,,,,,,,,,,,0,4,4,4,1,,,,,,,,,,,,,,,,,,,,,,,,,,,,,,,,,,,,,,,,,
368107,001,2022-11-21_02h00.27.624,Info_measure_main_exp,2022.2.2,Win32,59.07721392,,,,,,,,,,,,,,,,,,,,,,,,,,,,,,0,1.0694,1,,,,,,,,,,,,0,131,5,5,2250,2250,absent_patch/patch0002250.jpg,absent_patch/patch0002250.jpg,,,,,,,,,,,,,,,,,,,-0.016927083,0.1171875,1,0,0,response7disk,12,0,-0.002604167,1,0,0,center_square,0,11,11,56,1,,,,,,,,,,,,,,,,,,,,,,,
368107,001,2022-11-21_02h00.27.624,Info_measure_main_exp,2022.2.2,Win32,59.07721392,,,,,,,,,,,,,,,,,,masks/mask_002.jpg,,,,,,,,,,,,,,,,,,,,,,,,,,,,,,,,,,,,,,,,,,0,0,0,1,1,,,,,,,,,,,,,,,,,,,,,,,,,,,,,,,,,,,,,,,,,,,,,,
368107,001,2022-11-21_02h00.27.624,Info_measure_main_exp,2022.2.2,Win32,59.07721392,,,,,,,,,,,,,,,,,,masks/mask_004.jpg,,,,,,,,,,,,,,,,,,,,,,,,,,,,,,,,,,,,,,,,,,0,1,1,3,1,,,,,,,,,,,,,,,,,,,,,,,,,,,,,,,,,,,,,,,,,,,,,,
368107,001,2022-11-21_02h00.27.624,Info_measure_main_exp,2022.2.2,Win32,59.07721392,,,,,,,,,,,,,,,,,,masks/mask_005.jpg,,,,,,,,,,,,,,,,,,,,,,,,,,,,,,,,,,,,,,,,,,0,2,2,4,1,,,,,,,,,,,,,,,,,,,,,,,,,,,,,,,,,,,,,,,,,,,,,,
368107,001,2022-11-21_02h00.27.624,Info_measure_main_exp,2022.2.2,Win32,59.07721392,,,,,,,,,,,,,,,,,,masks/mask_003.jpg,,,,,,,,,,,,,,,,,,,,,,,,,,,,,,,,,,,,,,,,,,0,3,3,2,1,,,,,,,,,,,,,,,,,,,,,,,,,,,,,,,,,,,,,,,,,,,,,,
368107,001,2022-11-21_02h00.27.624,Info_measure_main_exp,2022.2.2,Win32,59.07721392,,,,,,,,,,,,,,,,,,masks/mask_001.jpg,,,,,,,,,,,,,,,,,,,,,,,,,,,,,,,,,,,,,,,,,,0,4,4,0,1,,,,,,,,,,,,,,,,,,,,,,,,,,,,,,,,,,,,,,,,,,,,,,
368107,001,2022-11-21_02h00.27.624,Info_measure_main_exp,2022.2.2,Win32,59.07721392,,,,,,,,,,,,,,,,,,masks/mask_001.jpg,,,,,,,,,,,,,,,,,,,,,,,,,,,,,,,,,,,,,,,,,,,,,,,0,0,0,0,1,,,,,,,,,,,,,,,,,,,,,,,,,,,,,,,,,,,,,,,,,
368107,001,2022-11-21_02h00.27.624,Info_measure_main_exp,2022.2.2,Win32,59.07721392,,,,,,,,,,,,,,,,,,masks/mask_002.jpg,,,,,,,,,,,,,,,,,,,,,,,,,,,,,,,,,,,,,,,,,,,,,,,0,1,1,1,1,,,,,,,,,,,,,,,,,,,,,,,,,,,,,,,,,,,,,,,,,
368107,001,2022-11-21_02h00.27.624,Info_measure_main_exp,2022.2.2,Win32,59.07721392,,,,,,,,,,,,,,,,,,masks/mask_005.jpg,,,,,,,,,,,,,,,,,,,,,,,,,,,,,,,,,,,,,,,,,,,,,,,0,2,2,4,1,,,,,,,,,,,,,,,,,,,,,,,,,,,,,,,,,,,,,,,,,
368107,001,2022-11-21_02h00.27.624,Info_measure_main_exp,2022.2.2,Win32,59.07721392,,,,,,,,,,,,,,,,,,masks/mask_003.jpg,,,,,,,,,,,,,,,,,,,,,,,,,,,,,,,,,,,,,,,,,,,,,,,0,3,3,2,1,,,,,,,,,,,,,,,,,,,,,,,,,,,,,,,,,,,,,,,,,
368107,001,2022-11-21_02h00.27.624,Info_measure_main_exp,2022.2.2,Win32,59.07721392,,,,,,,,,,,,,,,,,,masks/mask_004.jpg,,,,,,,,,,,,,,,,,,,,,,,,,,,,,,,,,,,,,,,,,,,,,,,0,4,4,3,1,,,,,,,,,,,,,,,,,,,,,,,,,,,,,,,,,,,,,,,,,
368107,001,2022-11-21_02h00.27.624,Info_measure_main_exp,2022.2.2,Win32,59.07721392,,,,,,,,,,,,,,,,,,,,,,,,,,,,,,0,0.6684,1,,,,,,,,,,,,0,131,5,5,1950,1950,absent_patch/patch0001950.jpg,absent_patch/patch0001950.jpg,,,,,,,,,,,,,,,,,,,-0.041666667,0.08984375,1,0,0,response7disk,13,0,-0.001302083,1,0,0,center_square,0,12,12,92,1,,,,,,,,,,,,,,,,,,,,,,,
368107,001,2022-11-21_02h00.27.624,Info_measure_main_exp,2022.2.2,Win32,59.07721392,,,,,,,,,,,,,,,,,,masks/mask_003.jpg,,,,,,,,,,,,,,,,,,,,,,,,,,,,,,,,,,,,,,,,,,0,0,0,2,1,,,,,,,,,,,,,,,,,,,,,,,,,,,,,,,,,,,,,,,,,,,,,,
368107,001,2022-11-21_02h00.27.624,Info_measure_main_exp,2022.2.2,Win32,59.07721392,,,,,,,,,,,,,,,,,,masks/mask_005.jpg,,,,,,,,,,,,,,,,,,,,,,,,,,,,,,,,,,,,,,,,,,0,1,1,4,1,,,,,,,,,,,,,,,,,,,,,,,,,,,,,,,,,,,,,,,,,,,,,,
368107,001,2022-11-21_02h00.27.624,Info_measure_main_exp,2022.2.2,Win32,59.07721392,,,,,,,,,,,,,,,,,,masks/mask_002.jpg,,,,,,,,,,,,,,,,,,,,,,,,,,,,,,,,,,,,,,,,,,0,2,2,1,1,,,,,,,,,,,,,,,,,,,,,,,,,,,,,,,,,,,,,,,,,,,,,,
368107,001,2022-11-21_02h00.27.624,Info_measure_main_exp,2022.2.2,Win32,59.07721392,,,,,,,,,,,,,,,,,,masks/mask_004.jpg,,,,,,,,,,,,,,,,,,,,,,,,,,,,,,,,,,,,,,,,,,0,3,3,3,1,,,,,,,,,,,,,,,,,,,,,,,,,,,,,,,,,,,,,,,,,,,,,,
368107,001,2022-11-21_02h00.27.624,Info_measure_main_exp,2022.2.2,Win32,59.07721392,,,,,,,,,,,,,,,,,,masks/mask_001.jpg,,,,,,,,,,,,,,,,,,,,,,,,,,,,,,,,,,,,,,,,,,0,4,4,0,1,,,,,,,,,,,,,,,,,,,,,,,,,,,,,,,,,,,,,,,,,,,,,,
368107,001,2022-11-21_02h00.27.624,Info_measure_main_exp,2022.2.2,Win32,59.07721392,,,,,,,,,,,,,,,,,,masks/mask_004.jpg,,,,,,,,,,,,,,,,,,,,,,,,,,,,,,,,,,,,,,,,,,,,,,,0,0,0,3,1,,,,,,,,,,,,,,,,,,,,,,,,,,,,,,,,,,,,,,,,,
368107,001,2022-11-21_02h00.27.624,Info_measure_main_exp,2022.2.2,Win32,59.07721392,,,,,,,,,,,,,,,,,,masks/mask_003.jpg,,,,,,,,,,,,,,,,,,,,,,,,,,,,,,,,,,,,,,,,,,,,,,,0,1,1,2,1,,,,,,,,,,,,,,,,,,,,,,,,,,,,,,,,,,,,,,,,,
368107,001,2022-11-21_02h00.27.624,Info_measure_main_exp,2022.2.2,Win32,59.07721392,,,,,,,,,,,,,,,,,,masks/mask_002.jpg,,,,,,,,,,,,,,,,,,,,,,,,,,,,,,,,,,,,,,,,,,,,,,,0,2,2,1,1,,,,,,,,,,,,,,,,,,,,,,,,,,,,,,,,,,,,,,,,,
368107,001,2022-11-21_02h00.27.624,Info_measure_main_exp,2022.2.2,Win32,59.07721392,,,,,,,,,,,,,,,,,,masks/mask_005.jpg,,,,,,,,,,,,,,,,,,,,,,,,,,,,,,,,,,,,,,,,,,,,,,,0,3,3,4,1,,,,,,,,,,,,,,,,,,,,,,,,,,,,,,,,,,,,,,,,,
368107,001,2022-11-21_02h00.27.624,Info_measure_main_exp,2022.2.2,Win32,59.07721392,,,,,,,,,,,,,,,,,,masks/mask_001.jpg,,,,,,,,,,,,,,,,,,,,,,,,,,,,,,,,,,,,,,,,,,,,,,,0,4,4,0,1,,,,,,,,,,,,,,,,,,,,,,,,,,,,,,,,,,,,,,,,,
368107,001,2022-11-21_02h00.27.624,Info_measure_main_exp,2022.2.2,Win32,59.07721392,,,,,,,,,,,,,,,,,,,,,,,,,,,,,,7,1.9713,1,,,,,,,,,,,,1,131,5,5,1,2214,present_patch/cong_131_5_a.jpg,absent_patch/patch0002214.jpg,,,,,,,,,,,,,,,,,,,0.010416667,0.03515625,1,0,0,response1disk,14,0.002604167,-0.002604167,1,0,0,center_square,0,13,13,4,1,,,,,,,,,,,,,,,,,,,,,,,
368107,001,2022-11-21_02h00.27.624,Info_measure_main_exp,2022.2.2,Win32,59.07721392,,,,,,,,,,,,,,,,,,masks/mask_002.jpg,,,,,,,,,,,,,,,,,,,,,,,,,,,,,,,,,,,,,,,,,,0,0,0,1,1,,,,,,,,,,,,,,,,,,,,,,,,,,,,,,,,,,,,,,,,,,,,,,
368107,001,2022-11-21_02h00.27.624,Info_measure_main_exp,2022.2.2,Win32,59.07721392,,,,,,,,,,,,,,,,,,masks/mask_004.jpg,,,,,,,,,,,,,,,,,,,,,,,,,,,,,,,,,,,,,,,,,,0,1,1,3,1,,,,,,,,,,,,,,,,,,,,,,,,,,,,,,,,,,,,,,,,,,,,,,
368107,001,2022-11-21_02h00.27.624,Info_measure_main_exp,2022.2.2,Win32,59.07721392,,,,,,,,,,,,,,,,,,masks/mask_005.jpg,,,,,,,,,,,,,,,,,,,,,,,,,,,,,,,,,,,,,,,,,,0,2,2,4,1,,,,,,,,,,,,,,,,,,,,,,,,,,,,,,,,,,,,,,,,,,,,,,
368107,001,2022-11-21_02h00.27.624,Info_measure_main_exp,2022.2.2,Win32,59.07721392,,,,,,,,,,,,,,,,,,masks/mask_003.jpg,,,,,,,,,,,,,,,,,,,,,,,,,,,,,,,,,,,,,,,,,,0,3,3,2,1,,,,,,,,,,,,,,,,,,,,,,,,,,,,,,,,,,,,,,,,,,,,,,
368107,001,2022-11-21_02h00.27.624,Info_measure_main_exp,2022.2.2,Win32,59.07721392,,,,,,,,,,,,,,,,,,masks/mask_001.jpg,,,,,,,,,,,,,,,,,,,,,,,,,,,,,,,,,,,,,,,,,,0,4,4,0,1,,,,,,,,,,,,,,,,,,,,,,,,,,,,,,,,,,,,,,,,,,,,,,
368107,001,2022-11-21_02h00.27.624,Info_measure_main_exp,2022.2.2,Win32,59.07721392,,,,,,,,,,,,,,,,,,masks/mask_005.jpg,,,,,,,,,,,,,,,,,,,,,,,,,,,,,,,,,,,,,,,,,,,,,,,0,0,0,4,1,,,,,,,,,,,,,,,,,,,,,,,,,,,,,,,,,,,,,,,,,
368107,001,2022-11-21_02h00.27.624,Info_measure_main_exp,2022.2.2,Win32,59.07721392,,,,,,,,,,,,,,,,,,masks/mask_003.jpg,,,,,,,,,,,,,,,,,,,,,,,,,,,,,,,,,,,,,,,,,,,,,,,0,1,1,2,1,,,,,,,,,,,,,,,,,,,,,,,,,,,,,,,,,,,,,,,,,
368107,001,2022-11-21_02h00.27.624,Info_measure_main_exp,2022.2.2,Win32,59.07721392,,,,,,,,,,,,,,,,,,masks/mask_002.jpg,,,,,,,,,,,,,,,,,,,,,,,,,,,,,,,,,,,,,,,,,,,,,,,0,2,2,1,1,,,,,,,,,,,,,,,,,,,,,,,,,,,,,,,,,,,,,,,,,
368107,001,2022-11-21_02h00.27.624,Info_measure_main_exp,2022.2.2,Win32,59.07721392,,,,,,,,,,,,,,,,,,masks/mask_004.jpg,,,,,,,,,,,,,,,,,,,,,,,,,,,,,,,,,,,,,,,,,,,,,,,0,3,3,3,1,,,,,,,,,,,,,,,,,,,,,,,,,,,,,,,,,,,,,,,,,
368107,001,2022-11-21_02h00.27.624,Info_measure_main_exp,2022.2.2,Win32,59.07721392,,,,,,,,,,,,,,,,,,masks/mask_001.jpg,,,,,,,,,,,,,,,,,,,,,,,,,,,,,,,,,,,,,,,,,,,,,,,0,4,4,0,1,,,,,,,,,,,,,,,,,,,,,,,,,,,,,,,,,,,,,,,,,
368107,001,2022-11-21_02h00.27.624,Info_measure_main_exp,2022.2.2,Win32,59.07721392,,,,,,,,,,,,,,,,,,,,,,,,,,,,,,7,1.7777,1,,,,,,,,,,,,0,131,5,5,2214,2178,absent_patch/patch0002214.jpg,absent_patch/patch0002178.jpg,,,,,,,,,,,,,,,,,,,0.022135417,0.04296875,1,0,0,response1disk,15,0,0.002604167,1,0,0,center_square,0,14,14,62,1,,,,,,,,,,,,,,,,,,,,,,,
368107,001,2022-11-21_02h00.27.624,Info_measure_main_exp,2022.2.2,Win32,59.07721392,,,,,,,,,,,,,,,,,,masks/mask_004.jpg,,,,,,,,,,,,,,,,,,,,,,,,,,,,,,,,,,,,,,,,,,0,0,0,3,1,,,,,,,,,,,,,,,,,,,,,,,,,,,,,,,,,,,,,,,,,,,,,,
368107,001,2022-11-21_02h00.27.624,Info_measure_main_exp,2022.2.2,Win32,59.07721392,,,,,,,,,,,,,,,,,,masks/mask_002.jpg,,,,,,,,,,,,,,,,,,,,,,,,,,,,,,,,,,,,,,,,,,0,1,1,1,1,,,,,,,,,,,,,,,,,,,,,,,,,,,,,,,,,,,,,,,,,,,,,,
368107,001,2022-11-21_02h00.27.624,Info_measure_main_exp,2022.2.2,Win32,59.07721392,,,,,,,,,,,,,,,,,,masks/mask_005.jpg,,,,,,,,,,,,,,,,,,,,,,,,,,,,,,,,,,,,,,,,,,0,2,2,4,1,,,,,,,,,,,,,,,,,,,,,,,,,,,,,,,,,,,,,,,,,,,,,,
368107,001,2022-11-21_02h00.27.624,Info_measure_main_exp,2022.2.2,Win32,59.07721392,,,,,,,,,,,,,,,,,,masks/mask_003.jpg,,,,,,,,,,,,,,,,,,,,,,,,,,,,,,,,,,,,,,,,,,0,3,3,2,1,,,,,,,,,,,,,,,,,,,,,,,,,,,,,,,,,,,,,,,,,,,,,,
368107,001,2022-11-21_02h00.27.624,Info_measure_main_exp,2022.2.2,Win32,59.07721392,,,,,,,,,,,,,,,,,,masks/mask_001.jpg,,,,,,,,,,,,,,,,,,,,,,,,,,,,,,,,,,,,,,,,,,0,4,4,0,1,,,,,,,,,,,,,,,,,,,,,,,,,,,,,,,,,,,,,,,,,,,,,,
368107,001,2022-11-21_02h00.27.624,Info_measure_main_exp,2022.2.2,Win32,59.07721392,,,,,,,,,,,,,,,,,,masks/mask_002.jpg,,,,,,,,,,,,,,,,,,,,,,,,,,,,,,,,,,,,,,,,,,,,,,,0,0,0,1,1,,,,,,,,,,,,,,,,,,,,,,,,,,,,,,,,,,,,,,,,,
368107,001,2022-11-21_02h00.27.624,Info_measure_main_exp,2022.2.2,Win32,59.07721392,,,,,,,,,,,,,,,,,,masks/mask_004.jpg,,,,,,,,,,,,,,,,,,,,,,,,,,,,,,,,,,,,,,,,,,,,,,,0,1,1,3,1,,,,,,,,,,,,,,,,,,,,,,,,,,,,,,,,,,,,,,,,,
368107,001,2022-11-21_02h00.27.624,Info_measure_main_exp,2022.2.2,Win32,59.07721392,,,,,,,,,,,,,,,,,,masks/mask_001.jpg,,,,,,,,,,,,,,,,,,,,,,,,,,,,,,,,,,,,,,,,,,,,,,,0,2,2,0,1,,,,,,,,,,,,,,,,,,,,,,,,,,,,,,,,,,,,,,,,,
368107,001,2022-11-21_02h00.27.624,Info_measure_main_exp,2022.2.2,Win32,59.07721392,,,,,,,,,,,,,,,,,,masks/mask_005.jpg,,,,,,,,,,,,,,,,,,,,,,,,,,,,,,,,,,,,,,,,,,,,,,,0,3,3,4,1,,,,,,,,,,,,,,,,,,,,,,,,,,,,,,,,,,,,,,,,,
368107,001,2022-11-21_02h00.27.624,Info_measure_main_exp,2022.2.2,Win32,59.07721392,,,,,,,,,,,,,,,,,,masks/mask_003.jpg,,,,,,,,,,,,,,,,,,,,,,,,,,,,,,,,,,,,,,,,,,,,,,,0,4,4,2,1,,,,,,,,,,,,,,,,,,,,,,,,,,,,,,,,,,,,,,,,,
368107,001,2022-11-21_02h00.27.624,Info_measure_main_exp,2022.2.2,Win32,59.07721392,,,,,,,,,,,,,,,,,,,,,,,,,,,,,,6,1.1047,1,,,,,,,,,,,,0,131,5,5,2298,2142,absent_patch/patch0002298.jpg,absent_patch/patch0002142.jpg,,,,,,,,,,,,,,,,,,,0.057291667,0.016927083,1,0,0,response1disk,16,-0.001302083,-0.00390625,1,0,0,center_square,0,15,15,49,1,,,,,,,,,,,,,,,,,,,,,,,
368107,001,2022-11-21_02h00.27.624,Info_measure_main_exp,2022.2.2,Win32,59.07721392,,,,,,,,,,,,,,,,,,masks/mask_001.jpg,,,,,,,,,,,,,,,,,,,,,,,,,,,,,,,,,,,,,,,,,,0,0,0,0,1,,,,,,,,,,,,,,,,,,,,,,,,,,,,,,,,,,,,,,,,,,,,,,
368107,001,2022-11-21_02h00.27.624,Info_measure_main_exp,2022.2.2,Win32,59.07721392,,,,,,,,,,,,,,,,,,masks/mask_003.jpg,,,,,,,,,,,,,,,,,,,,,,,,,,,,,,,,,,,,,,,,,,0,1,1,2,1,,,,,,,,,,,,,,,,,,,,,,,,,,,,,,,,,,,,,,,,,,,,,,
368107,001,2022-11-21_02h00.27.624,Info_measure_main_exp,2022.2.2,Win32,59.07721392,,,,,,,,,,,,,,,,,,masks/mask_002.jpg,,,,,,,,,,,,,,,,,,,,,,,,,,,,,,,,,,,,,,,,,,0,2,2,1,1,,,,,,,,,,,,,,,,,,,,,,,,,,,,,,,,,,,,,,,,,,,,,,
368107,001,2022-11-21_02h00.27.624,Info_measure_main_exp,2022.2.2,Win32,59.07721392,,,,,,,,,,,,,,,,,,masks/mask_005.jpg,,,,,,,,,,,,,,,,,,,,,,,,,,,,,,,,,,,,,,,,,,0,3,3,4,1,,,,,,,,,,,,,,,,,,,,,,,,,,,,,,,,,,,,,,,,,,,,,,
368107,001,2022-11-21_02h00.27.624,Info_measure_main_exp,2022.2.2,Win32,59.07721392,,,,,,,,,,,,,,,,,,masks/mask_004.jpg,,,,,,,,,,,,,,,,,,,,,,,,,,,,,,,,,,,,,,,,,,0,4,4,3,1,,,,,,,,,,,,,,,,,,,,,,,,,,,,,,,,,,,,,,,,,,,,,,
368107,001,2022-11-21_02h00.27.624,Info_measure_main_exp,2022.2.2,Win32,59.07721392,,,,,,,,,,,,,,,,,,masks/mask_002.jpg,,,,,,,,,,,,,,,,,,,,,,,,,,,,,,,,,,,,,,,,,,,,,,,0,0,0,1,1,,,,,,,,,,,,,,,,,,,,,,,,,,,,,,,,,,,,,,,,,
368107,001,2022-11-21_02h00.27.624,Info_measure_main_exp,2022.2.2,Win32,59.07721392,,,,,,,,,,,,,,,,,,masks/mask_003.jpg,,,,,,,,,,,,,,,,,,,,,,,,,,,,,,,,,,,,,,,,,,,,,,,0,1,1,2,1,,,,,,,,,,,,,,,,,,,,,,,,,,,,,,,,,,,,,,,,,
368107,001,2022-11-21_02h00.27.624,Info_measure_main_exp,2022.2.2,Win32,59.07721392,,,,,,,,,,,,,,,,,,masks/mask_005.jpg,,,,,,,,,,,,,,,,,,,,,,,,,,,,,,,,,,,,,,,,,,,,,,,0,2,2,4,1,,,,,,,,,,,,,,,,,,,,,,,,,,,,,,,,,,,,,,,,,
368107,001,2022-11-21_02h00.27.624,Info_measure_main_exp,2022.2.2,Win32,59.07721392,,,,,,,,,,,,,,,,,,masks/mask_004.jpg,,,,,,,,,,,,,,,,,,,,,,,,,,,,,,,,,,,,,,,,,,,,,,,0,3,3,3,1,,,,,,,,,,,,,,,,,,,,,,,,,,,,,,,,,,,,,,,,,
368107,001,2022-11-21_02h00.27.624,Info_measure_main_exp,2022.2.2,Win32,59.07721392,,,,,,,,,,,,,,,,,,masks/mask_001.jpg,,,,,,,,,,,,,,,,,,,,,,,,,,,,,,,,,,,,,,,,,,,,,,,0,4,4,0,1,,,,,,,,,,,,,,,,,,,,,,,,,,,,,,,,,,,,,,,,,
368107,001,2022-11-21_02h00.27.624,Info_measure_main_exp,2022.2.2,Win32,59.07721392,,,,,,,,,,,,,,,,,,,,,,,,,,,,,,7,0.7184,1,,,,,,,,,,,,0,131,5,5,2178,1986,absent_patch/patch0002178.jpg,absent_patch/patch0001986.jpg,,,,,,,,,,,,,,,,,,,0.016927083,0.036458333,1,0,0,response1disk,17,0,-0.0078125,1,0,0,center_square,0,16,16,46,1,,,,,,,,,,,,,,,,,,,,,,,
368107,001,2022-11-21_02h00.27.624,Info_measure_main_exp,2022.2.2,Win32,59.07721392,,,,,,,,,,,,,,,,,,masks/mask_002.jpg,,,,,,,,,,,,,,,,,,,,,,,,,,,,,,,,,,,,,,,,,,0,0,0,1,1,,,,,,,,,,,,,,,,,,,,,,,,,,,,,,,,,,,,,,,,,,,,,,
368107,001,2022-11-21_02h00.27.624,Info_measure_main_exp,2022.2.2,Win32,59.07721392,,,,,,,,,,,,,,,,,,masks/mask_001.jpg,,,,,,,,,,,,,,,,,,,,,,,,,,,,,,,,,,,,,,,,,,0,1,1,0,1,,,,,,,,,,,,,,,,,,,,,,,,,,,,,,,,,,,,,,,,,,,,,,
368107,001,2022-11-21_02h00.27.624,Info_measure_main_exp,2022.2.2,Win32,59.07721392,,,,,,,,,,,,,,,,,,masks/mask_004.jpg,,,,,,,,,,,,,,,,,,,,,,,,,,,,,,,,,,,,,,,,,,0,2,2,3,1,,,,,,,,,,,,,,,,,,,,,,,,,,,,,,,,,,,,,,,,,,,,,,
368107,001,2022-11-21_02h00.27.624,Info_measure_main_exp,2022.2.2,Win32,59.07721392,,,,,,,,,,,,,,,,,,masks/mask_003.jpg,,,,,,,,,,,,,,,,,,,,,,,,,,,,,,,,,,,,,,,,,,0,3,3,2,1,,,,,,,,,,,,,,,,,,,,,,,,,,,,,,,,,,,,,,,,,,,,,,
368107,001,2022-11-21_02h00.27.624,Info_measure_main_exp,2022.2.2,Win32,59.07721392,,,,,,,,,,,,,,,,,,masks/mask_005.jpg,,,,,,,,,,,,,,,,,,,,,,,,,,,,,,,,,,,,,,,,,,0,4,4,4,1,,,,,,,,,,,,,,,,,,,,,,,,,,,,,,,,,,,,,,,,,,,,,,
368107,001,2022-11-21_02h00.27.624,Info_measure_main_exp,2022.2.2,Win32,59.07721392,,,,,,,,,,,,,,,,,,masks/mask_001.jpg,,,,,,,,,,,,,,,,,,,,,,,,,,,,,,,,,,,,,,,,,,,,,,,0,0,0,0,1,,,,,,,,,,,,,,,,,,,,,,,,,,,,,,,,,,,,,,,,,
368107,001,2022-11-21_02h00.27.624,Info_measure_main_exp,2022.2.2,Win32,59.07721392,,,,,,,,,,,,,,,,,,masks/mask_005.jpg,,,,,,,,,,,,,,,,,,,,,,,,,,,,,,,,,,,,,,,,,,,,,,,0,1,1,4,1,,,,,,,,,,,,,,,,,,,,,,,,,,,,,,,,,,,,,,,,,
368107,001,2022-11-21_02h00.27.624,Info_measure_main_exp,2022.2.2,Win32,59.07721392,,,,,,,,,,,,,,,,,,masks/mask_004.jpg,,,,,,,,,,,,,,,,,,,,,,,,,,,,,,,,,,,,,,,,,,,,,,,0,2,2,3,1,,,,,,,,,,,,,,,,,,,,,,,,,,,,,,,,,,,,,,,,,
368107,001,2022-11-21_02h00.27.624,Info_measure_main_exp,2022.2.2,Win32,59.07721392,,,,,,,,,,,,,,,,,,masks/mask_003.jpg,,,,,,,,,,,,,,,,,,,,,,,,,,,,,,,,,,,,,,,,,,,,,,,0,3,3,2,1,,,,,,,,,,,,,,,,,,,,,,,,,,,,,,,,,,,,,,,,,
368107,001,2022-11-21_02h00.27.624,Info_measure_main_exp,2022.2.2,Win32,59.07721392,,,,,,,,,,,,,,,,,,masks/mask_002.jpg,,,,,,,,,,,,,,,,,,,,,,,,,,,,,,,,,,,,,,,,,,,,,,,0,4,4,1,1,,,,,,,,,,,,,,,,,,,,,,,,,,,,,,,,,,,,,,,,,
368107,001,2022-11-21_02h00.27.624,Info_measure_main_exp,2022.2.2,Win32,59.07721392,,,,,,,,,,,,,,,,,,,,,,,,,,,,,,5,0.9022,1,,,,,,,,,,,,0,131,5,5,1974,2178,absent_patch/patch0001974.jpg,absent_patch/patch0002178.jpg,,,,,,,,,,,,,,,,,,,0.045572917,-0.01953125,1,0,0,response3disk,18,0.002604167,-0.006510417,1,0,0,center_square,0,17,17,44,1,,,,,,,,,,,,,,,,,,,,,,,
368107,001,2022-11-21_02h00.27.624,Info_measure_main_exp,2022.2.2,Win32,59.07721392,,,,,,,,,,,,,,,,,,masks/mask_004.jpg,,,,,,,,,,,,,,,,,,,,,,,,,,,,,,,,,,,,,,,,,,0,0,0,3,1,,,,,,,,,,,,,,,,,,,,,,,,,,,,,,,,,,,,,,,,,,,,,,
368107,001,2022-11-21_02h00.27.624,Info_measure_main_exp,2022.2.2,Win32,59.07721392,,,,,,,,,,,,,,,,,,masks/mask_001.jpg,,,,,,,,,,,,,,,,,,,,,,,,,,,,,,,,,,,,,,,,,,0,1,1,0,1,,,,,,,,,,,,,,,,,,,,,,,,,,,,,,,,,,,,,,,,,,,,,,
368107,001,2022-11-21_02h00.27.624,Info_measure_main_exp,2022.2.2,Win32,59.07721392,,,,,,,,,,,,,,,,,,masks/mask_003.jpg,,,,,,,,,,,,,,,,,,,,,,,,,,,,,,,,,,,,,,,,,,0,2,2,2,1,,,,,,,,,,,,,,,,,,,,,,,,,,,,,,,,,,,,,,,,,,,,,,
368107,001,2022-11-21_02h00.27.624,Info_measure_main_exp,2022.2.2,Win32,59.07721392,,,,,,,,,,,,,,,,,,masks/mask_002.jpg,,,,,,,,,,,,,,,,,,,,,,,,,,,,,,,,,,,,,,,,,,0,3,3,1,1,,,,,,,,,,,,,,,,,,,,,,,,,,,,,,,,,,,,,,,,,,,,,,
368107,001,2022-11-21_02h00.27.624,Info_measure_main_exp,2022.2.2,Win32,59.07721392,,,,,,,,,,,,,,,,,,masks/mask_005.jpg,,,,,,,,,,,,,,,,,,,,,,,,,,,,,,,,,,,,,,,,,,0,4,4,4,1,,,,,,,,,,,,,,,,,,,,,,,,,,,,,,,,,,,,,,,,,,,,,,
368107,001,2022-11-21_02h00.27.624,Info_measure_main_exp,2022.2.2,Win32,59.07721392,,,,,,,,,,,,,,,,,,masks/mask_005.jpg,,,,,,,,,,,,,,,,,,,,,,,,,,,,,,,,,,,,,,,,,,,,,,,0,0,0,4,1,,,,,,,,,,,,,,,,,,,,,,,,,,,,,,,,,,,,,,,,,
368107,001,2022-11-21_02h00.27.624,Info_measure_main_exp,2022.2.2,Win32,59.07721392,,,,,,,,,,,,,,,,,,masks/mask_001.jpg,,,,,,,,,,,,,,,,,,,,,,,,,,,,,,,,,,,,,,,,,,,,,,,0,1,1,0,1,,,,,,,,,,,,,,,,,,,,,,,,,,,,,,,,,,,,,,,,,
368107,001,2022-11-21_02h00.27.624,Info_measure_main_exp,2022.2.2,Win32,59.07721392,,,,,,,,,,,,,,,,,,masks/mask_002.jpg,,,,,,,,,,,,,,,,,,,,,,,,,,,,,,,,,,,,,,,,,,,,,,,0,2,2,1,1,,,,,,,,,,,,,,,,,,,,,,,,,,,,,,,,,,,,,,,,,
368107,001,2022-11-21_02h00.27.624,Info_measure_main_exp,2022.2.2,Win32,59.07721392,,,,,,,,,,,,,,,,,,masks/mask_003.jpg,,,,,,,,,,,,,,,,,,,,,,,,,,,,,,,,,,,,,,,,,,,,,,,0,3,3,2,1,,,,,,,,,,,,,,,,,,,,,,,,,,,,,,,,,,,,,,,,,
368107,001,2022-11-21_02h00.27.624,Info_measure_main_exp,2022.2.2,Win32,59.07721392,,,,,,,,,,,,,,,,,,masks/mask_004.jpg,,,,,,,,,,,,,,,,,,,,,,,,,,,,,,,,,,,,,,,,,,,,,,,0,4,4,3,1,,,,,,,,,,,,,,,,,,,,,,,,,,,,,,,,,,,,,,,,,
368107,001,2022-11-21_02h00.27.624,Info_measure_main_exp,2022.2.2,Win32,59.07721392,,,,,,,,,,,,,,,,,,,,,,,,,,,,,,7,0.986,1,,,,,,,,,,,,0,131,5,5,2190,2250,absent_patch/patch0002190.jpg,absent_patch/patch0002250.jpg,,,,,,,,,,,,,,,,,,,0.024739583,0.067708333,1,0,0,response1disk,19,0.0078125,0.002604167,1,0,0,center_square,0,18,18,93,1,,,,,,,,,,,,,,,,,,,,,,,
368107,001,2022-11-21_02h00.27.624,Info_measure_main_exp,2022.2.2,Win32,59.07721392,,,,,,,,,,,,,,,,,,masks/mask_004.jpg,,,,,,,,,,,,,,,,,,,,,,,,,,,,,,,,,,,,,,,,,,0,0,0,3,1,,,,,,,,,,,,,,,,,,,,,,,,,,,,,,,,,,,,,,,,,,,,,,
368107,001,2022-11-21_02h00.27.624,Info_measure_main_exp,2022.2.2,Win32,59.07721392,,,,,,,,,,,,,,,,,,masks/mask_003.jpg,,,,,,,,,,,,,,,,,,,,,,,,,,,,,,,,,,,,,,,,,,0,1,1,2,1,,,,,,,,,,,,,,,,,,,,,,,,,,,,,,,,,,,,,,,,,,,,,,
368107,001,2022-11-21_02h00.27.624,Info_measure_main_exp,2022.2.2,Win32,59.07721392,,,,,,,,,,,,,,,,,,masks/mask_001.jpg,,,,,,,,,,,,,,,,,,,,,,,,,,,,,,,,,,,,,,,,,,0,2,2,0,1,,,,,,,,,,,,,,,,,,,,,,,,,,,,,,,,,,,,,,,,,,,,,,
368107,001,2022-11-21_02h00.27.624,Info_measure_main_exp,2022.2.2,Win32,59.07721392,,,,,,,,,,,,,,,,,,masks/mask_005.jpg,,,,,,,,,,,,,,,,,,,,,,,,,,,,,,,,,,,,,,,,,,0,3,3,4,1,,,,,,,,,,,,,,,,,,,,,,,,,,,,,,,,,,,,,,,,,,,,,,
368107,001,2022-11-21_02h00.27.624,Info_measure_main_exp,2022.2.2,Win32,59.07721392,,,,,,,,,,,,,,,,,,masks/mask_002.jpg,,,,,,,,,,,,,,,,,,,,,,,,,,,,,,,,,,,,,,,,,,0,4,4,1,1,,,,,,,,,,,,,,,,,,,,,,,,,,,,,,,,,,,,,,,,,,,,,,
368107,001,2022-11-21_02h00.27.624,Info_measure_main_exp,2022.2.2,Win32,59.07721392,,,,,,,,,,,,,,,,,,masks/mask_004.jpg,,,,,,,,,,,,,,,,,,,,,,,,,,,,,,,,,,,,,,,,,,,,,,,0,0,0,3,1,,,,,,,,,,,,,,,,,,,,,,,,,,,,,,,,,,,,,,,,,
368107,001,2022-11-21_02h00.27.624,Info_measure_main_exp,2022.2.2,Win32,59.07721392,,,,,,,,,,,,,,,,,,masks/mask_002.jpg,,,,,,,,,,,,,,,,,,,,,,,,,,,,,,,,,,,,,,,,,,,,,,,0,1,1,1,1,,,,,,,,,,,,,,,,,,,,,,,,,,,,,,,,,,,,,,,,,
368107,001,2022-11-21_02h00.27.624,Info_measure_main_exp,2022.2.2,Win32,59.07721392,,,,,,,,,,,,,,,,,,masks/mask_001.jpg,,,,,,,,,,,,,,,,,,,,,,,,,,,,,,,,,,,,,,,,,,,,,,,0,2,2,0,1,,,,,,,,,,,,,,,,,,,,,,,,,,,,,,,,,,,,,,,,,
368107,001,2022-11-21_02h00.27.624,Info_measure_main_exp,2022.2.2,Win32,59.07721392,,,,,,,,,,,,,,,,,,masks/mask_005.jpg,,,,,,,,,,,,,,,,,,,,,,,,,,,,,,,,,,,,,,,,,,,,,,,0,3,3,4,1,,,,,,,,,,,,,,,,,,,,,,,,,,,,,,,,,,,,,,,,,
368107,001,2022-11-21_02h00.27.624,Info_measure_main_exp,2022.2.2,Win32,59.07721392,,,,,,,,,,,,,,,,,,masks/mask_003.jpg,,,,,,,,,,,,,,,,,,,,,,,,,,,,,,,,,,,,,,,,,,,,,,,0,4,4,2,1,,,,,,,,,,,,,,,,,,,,,,,,,,,,,,,,,,,,,,,,,
368107,001,2022-11-21_02h00.27.624,Info_measure_main_exp,2022.2.2,Win32,59.07721392,,,,,,,,,,,,,,,,,,,,,,,,,,,,,,6,1.3535,1,,,,,,,,,,,,0,131,5,5,2298,2178,absent_patch/patch0002298.jpg,absent_patch/patch0002178.jpg,,,,,,,,,,,,,,,,,,,0.0546875,0.009114583,1,0,0,response1disk,20,-0.002604167,0.0078125,1,0,0,center_square,0,19,19,84,1,,,,,,,,,,,,,,,,,,,,,,,
368107,001,2022-11-21_02h00.27.624,Info_measure_main_exp,2022.2.2,Win32,59.07721392,,,,,,,,,,,,,,,,,,masks/mask_004.jpg,,,,,,,,,,,,,,,,,,,,,,,,,,,,,,,,,,,,,,,,,,0,0,0,3,1,,,,,,,,,,,,,,,,,,,,,,,,,,,,,,,,,,,,,,,,,,,,,,
368107,001,2022-11-21_02h00.27.624,Info_measure_main_exp,2022.2.2,Win32,59.07721392,,,,,,,,,,,,,,,,,,masks/mask_003.jpg,,,,,,,,,,,,,,,,,,,,,,,,,,,,,,,,,,,,,,,,,,0,1,1,2,1,,,,,,,,,,,,,,,,,,,,,,,,,,,,,,,,,,,,,,,,,,,,,,
368107,001,2022-11-21_02h00.27.624,Info_measure_main_exp,2022.2.2,Win32,59.07721392,,,,,,,,,,,,,,,,,,masks/mask_005.jpg,,,,,,,,,,,,,,,,,,,,,,,,,,,,,,,,,,,,,,,,,,0,2,2,4,1,,,,,,,,,,,,,,,,,,,,,,,,,,,,,,,,,,,,,,,,,,,,,,
368107,001,2022-11-21_02h00.27.624,Info_measure_main_exp,2022.2.2,Win32,59.07721392,,,,,,,,,,,,,,,,,,masks/mask_001.jpg,,,,,,,,,,,,,,,,,,,,,,,,,,,,,,,,,,,,,,,,,,0,3,3,0,1,,,,,,,,,,,,,,,,,,,,,,,,,,,,,,,,,,,,,,,,,,,,,,
368107,001,2022-11-21_02h00.27.624,Info_measure_main_exp,2022.2.2,Win32,59.07721392,,,,,,,,,,,,,,,,,,masks/mask_002.jpg,,,,,,,,,,,,,,,,,,,,,,,,,,,,,,,,,,,,,,,,,,0,4,4,1,1,,,,,,,,,,,,,,,,,,,,,,,,,,,,,,,,,,,,,,,,,,,,,,
368107,001,2022-11-21_02h00.27.624,Info_measure_main_exp,2022.2.2,Win32,59.07721392,,,,,,,,,,,,,,,,,,masks/mask_001.jpg,,,,,,,,,,,,,,,,,,,,,,,,,,,,,,,,,,,,,,,,,,,,,,,0,0,0,0,1,,,,,,,,,,,,,,,,,,,,,,,,,,,,,,,,,,,,,,,,,
368107,001,2022-11-21_02h00.27.624,Info_measure_main_exp,2022.2.2,Win32,59.07721392,,,,,,,,,,,,,,,,,,masks/mask_002.jpg,,,,,,,,,,,,,,,,,,,,,,,,,,,,,,,,,,,,,,,,,,,,,,,0,1,1,1,1,,,,,,,,,,,,,,,,,,,,,,,,,,,,,,,,,,,,,,,,,
368107,001,2022-11-21_02h00.27.624,Info_measure_main_exp,2022.2.2,Win32,59.07721392,,,,,,,,,,,,,,,,,,masks/mask_004.jpg,,,,,,,,,,,,,,,,,,,,,,,,,,,,,,,,,,,,,,,,,,,,,,,0,2,2,3,1,,,,,,,,,,,,,,,,,,,,,,,,,,,,,,,,,,,,,,,,,
368107,001,2022-11-21_02h00.27.624,Info_measure_main_exp,2022.2.2,Win32,59.07721392,,,,,,,,,,,,,,,,,,masks/mask_005.jpg,,,,,,,,,,,,,,,,,,,,,,,,,,,,,,,,,,,,,,,,,,,,,,,0,3,3,4,1,,,,,,,,,,,,,,,,,,,,,,,,,,,,,,,,,,,,,,,,,
368107,001,2022-11-21_02h00.27.624,Info_measure_main_exp,2022.2.2,Win32,59.07721392,,,,,,,,,,,,,,,,,,masks/mask_003.jpg,,,,,,,,,,,,,,,,,,,,,,,,,,,,,,,,,,,,,,,,,,,,,,,0,4,4,2,1,,,,,,,,,,,,,,,,,,,,,,,,,,,,,,,,,,,,,,,,,
368107,001,2022-11-21_02h00.27.624,Info_measure_main_exp,2022.2.2,Win32,59.07721392,,,,,,,,,,,,,,,,,,,,,,,,,,,,,,7,0.7521,1,,,,,,,,,,,,0,131,5,5,2154,2238,absent_patch/patch0002154.jpg,absent_patch/patch0002238.jpg,,,,,,,,,,,,,,,,,,,0.009114583,0.0546875,1,0,0,response1disk,21,0.001302083,0,1,0,0,center_square,0,20,20,21,1,,,,,,,,,,,,,,,,,,,,,,,
368107,001,2022-11-21_02h00.27.624,Info_measure_main_exp,2022.2.2,Win32,59.07721392,,,,,,,,,,,,,,,,,,masks/mask_002.jpg,,,,,,,,,,,,,,,,,,,,,,,,,,,,,,,,,,,,,,,,,,0,0,0,1,1,,,,,,,,,,,,,,,,,,,,,,,,,,,,,,,,,,,,,,,,,,,,,,
368107,001,2022-11-21_02h00.27.624,Info_measure_main_exp,2022.2.2,Win32,59.07721392,,,,,,,,,,,,,,,,,,masks/mask_005.jpg,,,,,,,,,,,,,,,,,,,,,,,,,,,,,,,,,,,,,,,,,,0,1,1,4,1,,,,,,,,,,,,,,,,,,,,,,,,,,,,,,,,,,,,,,,,,,,,,,
368107,001,2022-11-21_02h00.27.624,Info_measure_main_exp,2022.2.2,Win32,59.07721392,,,,,,,,,,,,,,,,,,masks/mask_003.jpg,,,,,,,,,,,,,,,,,,,,,,,,,,,,,,,,,,,,,,,,,,0,2,2,2,1,,,,,,,,,,,,,,,,,,,,,,,,,,,,,,,,,,,,,,,,,,,,,,
368107,001,2022-11-21_02h00.27.624,Info_measure_main_exp,2022.2.2,Win32,59.07721392,,,,,,,,,,,,,,,,,,masks/mask_001.jpg,,,,,,,,,,,,,,,,,,,,,,,,,,,,,,,,,,,,,,,,,,0,3,3,0,1,,,,,,,,,,,,,,,,,,,,,,,,,,,,,,,,,,,,,,,,,,,,,,
368107,001,2022-11-21_02h00.27.624,Info_measure_main_exp,2022.2.2,Win32,59.07721392,,,,,,,,,,,,,,,,,,masks/mask_004.jpg,,,,,,,,,,,,,,,,,,,,,,,,,,,,,,,,,,,,,,,,,,0,4,4,3,1,,,,,,,,,,,,,,,,,,,,,,,,,,,,,,,,,,,,,,,,,,,,,,
368107,001,2022-11-21_02h00.27.624,Info_measure_main_exp,2022.2.2,Win32,59.07721392,,,,,,,,,,,,,,,,,,masks/mask_005.jpg,,,,,,,,,,,,,,,,,,,,,,,,,,,,,,,,,,,,,,,,,,,,,,,0,0,0,4,1,,,,,,,,,,,,,,,,,,,,,,,,,,,,,,,,,,,,,,,,,
368107,001,2022-11-21_02h00.27.624,Info_measure_main_exp,2022.2.2,Win32,59.07721392,,,,,,,,,,,,,,,,,,masks/mask_001.jpg,,,,,,,,,,,,,,,,,,,,,,,,,,,,,,,,,,,,,,,,,,,,,,,0,1,1,0,1,,,,,,,,,,,,,,,,,,,,,,,,,,,,,,,,,,,,,,,,,
368107,001,2022-11-21_02h00.27.624,Info_measure_main_exp,2022.2.2,Win32,59.07721392,,,,,,,,,,,,,,,,,,masks/mask_002.jpg,,,,,,,,,,,,,,,,,,,,,,,,,,,,,,,,,,,,,,,,,,,,,,,0,2,2,1,1,,,,,,,,,,,,,,,,,,,,,,,,,,,,,,,,,,,,,,,,,
368107,001,2022-11-21_02h00.27.624,Info_measure_main_exp,2022.2.2,Win32,59.07721392,,,,,,,,,,,,,,,,,,masks/mask_003.jpg,,,,,,,,,,,,,,,,,,,,,,,,,,,,,,,,,,,,,,,,,,,,,,,0,3,3,2,1,,,,,,,,,,,,,,,,,,,,,,,,,,,,,,,,,,,,,,,,,
368107,001,2022-11-21_02h00.27.624,Info_measure_main_exp,2022.2.2,Win32,59.07721392,,,,,,,,,,,,,,,,,,masks/mask_004.jpg,,,,,,,,,,,,,,,,,,,,,,,,,,,,,,,,,,,,,,,,,,,,,,,0,4,4,3,1,,,,,,,,,,,,,,,,,,,,,,,,,,,,,,,,,,,,,,,,,
368107,001,2022-11-21_02h00.27.624,Info_measure_main_exp,2022.2.2,Win32,59.07721392,,,,,,,,,,,,,,,,,,,,,,,,,,,,,,6,2.5015,1,,,,,,,,,,,,0,131,5,5,1974,2166,absent_patch/patch0001974.jpg,absent_patch/patch0002166.jpg,,,,,,,,,,,,,,,,,,,0.036458333,0.028645833,1,0,0,response1disk,22,0,-0.001302083,1,0,0,center_square,0,21,21,77,1,,,,,,,,,,,,,,,,,,,,,,,
368107,001,2022-11-21_02h00.27.624,Info_measure_main_exp,2022.2.2,Win32,59.07721392,,,,,,,,,,,,,,,,,,masks/mask_004.jpg,,,,,,,,,,,,,,,,,,,,,,,,,,,,,,,,,,,,,,,,,,0,0,0,3,1,,,,,,,,,,,,,,,,,,,,,,,,,,,,,,,,,,,,,,,,,,,,,,
368107,001,2022-11-21_02h00.27.624,Info_measure_main_exp,2022.2.2,Win32,59.07721392,,,,,,,,,,,,,,,,,,masks/mask_003.jpg,,,,,,,,,,,,,,,,,,,,,,,,,,,,,,,,,,,,,,,,,,0,1,1,2,1,,,,,,,,,,,,,,,,,,,,,,,,,,,,,,,,,,,,,,,,,,,,,,
368107,001,2022-11-21_02h00.27.624,Info_measure_main_exp,2022.2.2,Win32,59.07721392,,,,,,,,,,,,,,,,,,masks/mask_001.jpg,,,,,,,,,,,,,,,,,,,,,,,,,,,,,,,,,,,,,,,,,,0,2,2,0,1,,,,,,,,,,,,,,,,,,,,,,,,,,,,,,,,,,,,,,,,,,,,,,
368107,001,2022-11-21_02h00.27.624,Info_measure_main_exp,2022.2.2,Win32,59.07721392,,,,,,,,,,,,,,,,,,masks/mask_005.jpg,,,,,,,,,,,,,,,,,,,,,,,,,,,,,,,,,,,,,,,,,,0,3,3,4,1,,,,,,,,,,,,,,,,,,,,,,,,,,,,,,,,,,,,,,,,,,,,,,
368107,001,2022-11-21_02h00.27.624,Info_measure_main_exp,2022.2.2,Win32,59.07721392,,,,,,,,,,,,,,,,,,masks/mask_002.jpg,,,,,,,,,,,,,,,,,,,,,,,,,,,,,,,,,,,,,,,,,,0,4,4,1,1,,,,,,,,,,,,,,,,,,,,,,,,,,,,,,,,,,,,,,,,,,,,,,
368107,001,2022-11-21_02h00.27.624,Info_measure_main_exp,2022.2.2,Win32,59.07721392,,,,,,,,,,,,,,,,,,masks/mask_003.jpg,,,,,,,,,,,,,,,,,,,,,,,,,,,,,,,,,,,,,,,,,,,,,,,0,0,0,2,1,,,,,,,,,,,,,,,,,,,,,,,,,,,,,,,,,,,,,,,,,
368107,001,2022-11-21_02h00.27.624,Info_measure_main_exp,2022.2.2,Win32,59.07721392,,,,,,,,,,,,,,,,,,masks/mask_005.jpg,,,,,,,,,,,,,,,,,,,,,,,,,,,,,,,,,,,,,,,,,,,,,,,0,1,1,4,1,,,,,,,,,,,,,,,,,,,,,,,,,,,,,,,,,,,,,,,,,
368107,001,2022-11-21_02h00.27.624,Info_measure_main_exp,2022.2.2,Win32,59.07721392,,,,,,,,,,,,,,,,,,masks/mask_004.jpg,,,,,,,,,,,,,,,,,,,,,,,,,,,,,,,,,,,,,,,,,,,,,,,0,2,2,3,1,,,,,,,,,,,,,,,,,,,,,,,,,,,,,,,,,,,,,,,,,
368107,001,2022-11-21_02h00.27.624,Info_measure_main_exp,2022.2.2,Win32,59.07721392,,,,,,,,,,,,,,,,,,masks/mask_001.jpg,,,,,,,,,,,,,,,,,,,,,,,,,,,,,,,,,,,,,,,,,,,,,,,0,3,3,0,1,,,,,,,,,,,,,,,,,,,,,,,,,,,,,,,,,,,,,,,,,
368107,001,2022-11-21_02h00.27.624,Info_measure_main_exp,2022.2.2,Win32,59.07721392,,,,,,,,,,,,,,,,,,masks/mask_002.jpg,,,,,,,,,,,,,,,,,,,,,,,,,,,,,,,,,,,,,,,,,,,,,,,0,4,4,1,1,,,,,,,,,,,,,,,,,,,,,,,,,,,,,,,,,,,,,,,,,
368107,001,2022-11-21_02h00.27.624,Info_measure_main_exp,2022.2.2,Win32,59.07721392,,,,,,,,,,,,,,,,,,,,,,,,,,,,,,7,1.7261,1,,,,,,,,,,,,0,131,5,5,2274,2166,absent_patch/patch0002274.jpg,absent_patch/patch0002166.jpg,,,,,,,,,,,,,,,,,,,0.01953125,0.045572917,1,0,0,response1disk,23,0.00390625,0.002604167,1,0,0,center_square,0,22,22,78,1,,,,,,,,,,,,,,,,,,,,,,,
368107,001,2022-11-21_02h00.27.624,Info_measure_main_exp,2022.2.2,Win32,59.07721392,,,,,,,,,,,,,,,,,,masks/mask_003.jpg,,,,,,,,,,,,,,,,,,,,,,,,,,,,,,,,,,,,,,,,,,0,0,0,2,1,,,,,,,,,,,,,,,,,,,,,,,,,,,,,,,,,,,,,,,,,,,,,,
368107,001,2022-11-21_02h00.27.624,Info_measure_main_exp,2022.2.2,Win32,59.07721392,,,,,,,,,,,,,,,,,,masks/mask_004.jpg,,,,,,,,,,,,,,,,,,,,,,,,,,,,,,,,,,,,,,,,,,0,1,1,3,1,,,,,,,,,,,,,,,,,,,,,,,,,,,,,,,,,,,,,,,,,,,,,,
368107,001,2022-11-21_02h00.27.624,Info_measure_main_exp,2022.2.2,Win32,59.07721392,,,,,,,,,,,,,,,,,,masks/mask_005.jpg,,,,,,,,,,,,,,,,,,,,,,,,,,,,,,,,,,,,,,,,,,0,2,2,4,1,,,,,,,,,,,,,,,,,,,,,,,,,,,,,,,,,,,,,,,,,,,,,,
368107,001,2022-11-21_02h00.27.624,Info_measure_main_exp,2022.2.2,Win32,59.07721392,,,,,,,,,,,,,,,,,,masks/mask_002.jpg,,,,,,,,,,,,,,,,,,,,,,,,,,,,,,,,,,,,,,,,,,0,3,3,1,1,,,,,,,,,,,,,,,,,,,,,,,,,,,,,,,,,,,,,,,,,,,,,,
368107,001,2022-11-21_02h00.27.624,Info_measure_main_exp,2022.2.2,Win32,59.07721392,,,,,,,,,,,,,,,,,,masks/mask_001.jpg,,,,,,,,,,,,,,,,,,,,,,,,,,,,,,,,,,,,,,,,,,0,4,4,0,1,,,,,,,,,,,,,,,,,,,,,,,,,,,,,,,,,,,,,,,,,,,,,,
368107,001,2022-11-21_02h00.27.624,Info_measure_main_exp,2022.2.2,Win32,59.07721392,,,,,,,,,,,,,,,,,,masks/mask_001.jpg,,,,,,,,,,,,,,,,,,,,,,,,,,,,,,,,,,,,,,,,,,,,,,,0,0,0,0,1,,,,,,,,,,,,,,,,,,,,,,,,,,,,,,,,,,,,,,,,,
368107,001,2022-11-21_02h00.27.624,Info_measure_main_exp,2022.2.2,Win32,59.07721392,,,,,,,,,,,,,,,,,,masks/mask_004.jpg,,,,,,,,,,,,,,,,,,,,,,,,,,,,,,,,,,,,,,,,,,,,,,,0,1,1,3,1,,,,,,,,,,,,,,,,,,,,,,,,,,,,,,,,,,,,,,,,,
368107,001,2022-11-21_02h00.27.624,Info_measure_main_exp,2022.2.2,Win32,59.07721392,,,,,,,,,,,,,,,,,,masks/mask_003.jpg,,,,,,,,,,,,,,,,,,,,,,,,,,,,,,,,,,,,,,,,,,,,,,,0,2,2,2,1,,,,,,,,,,,,,,,,,,,,,,,,,,,,,,,,,,,,,,,,,
368107,001,2022-11-21_02h00.27.624,Info_measure_main_exp,2022.2.2,Win32,59.07721392,,,,,,,,,,,,,,,,,,masks/mask_002.jpg,,,,,,,,,,,,,,,,,,,,,,,,,,,,,,,,,,,,,,,,,,,,,,,0,3,3,1,1,,,,,,,,,,,,,,,,,,,,,,,,,,,,,,,,,,,,,,,,,
368107,001,2022-11-21_02h00.27.624,Info_measure_main_exp,2022.2.2,Win32,59.07721392,,,,,,,,,,,,,,,,,,masks/mask_005.jpg,,,,,,,,,,,,,,,,,,,,,,,,,,,,,,,,,,,,,,,,,,,,,,,0,4,4,4,1,,,,,,,,,,,,,,,,,,,,,,,,,,,,,,,,,,,,,,,,,
368107,001,2022-11-21_02h00.27.624,Info_measure_main_exp,2022.2.2,Win32,59.07721392,,,,,,,,,,,,,,,,,,,,,,,,,,,,,,7,2.0552,1,,,,,,,,,,,,1,131,5,5,2238,1,absent_patch/patch0002238.jpg,present_patch/cong_131_5_a.jpg,,,,,,,,,,,,,,,,,,,0.01953125,0.046875,1,0,0,response1disk,24,0.001302083,-0.0078125,1,0,0,center_square,0,23,23,104,1,,,,,,,,,,,,,,,,,,,,,,,
368107,001,2022-11-21_02h00.27.624,Info_measure_main_exp,2022.2.2,Win32,59.07721392,,,,,,,,,,,,,,,,,,masks/mask_002.jpg,,,,,,,,,,,,,,,,,,,,,,,,,,,,,,,,,,,,,,,,,,0,0,0,1,1,,,,,,,,,,,,,,,,,,,,,,,,,,,,,,,,,,,,,,,,,,,,,,
368107,001,2022-11-21_02h00.27.624,Info_measure_main_exp,2022.2.2,Win32,59.07721392,,,,,,,,,,,,,,,,,,masks/mask_001.jpg,,,,,,,,,,,,,,,,,,,,,,,,,,,,,,,,,,,,,,,,,,0,1,1,0,1,,,,,,,,,,,,,,,,,,,,,,,,,,,,,,,,,,,,,,,,,,,,,,
368107,001,2022-11-21_02h00.27.624,Info_measure_main_exp,2022.2.2,Win32,59.07721392,,,,,,,,,,,,,,,,,,masks/mask_005.jpg,,,,,,,,,,,,,,,,,,,,,,,,,,,,,,,,,,,,,,,,,,0,2,2,4,1,,,,,,,,,,,,,,,,,,,,,,,,,,,,,,,,,,,,,,,,,,,,,,
368107,001,2022-11-21_02h00.27.624,Info_measure_main_exp,2022.2.2,Win32,59.07721392,,,,,,,,,,,,,,,,,,masks/mask_003.jpg,,,,,,,,,,,,,,,,,,,,,,,,,,,,,,,,,,,,,,,,,,0,3,3,2,1,,,,,,,,,,,,,,,,,,,,,,,,,,,,,,,,,,,,,,,,,,,,,,
368107,001,2022-11-21_02h00.27.624,Info_measure_main_exp,2022.2.2,Win32,59.07721392,,,,,,,,,,,,,,,,,,masks/mask_004.jpg,,,,,,,,,,,,,,,,,,,,,,,,,,,,,,,,,,,,,,,,,,0,4,4,3,1,,,,,,,,,,,,,,,,,,,,,,,,,,,,,,,,,,,,,,,,,,,,,,
368107,001,2022-11-21_02h00.27.624,Info_measure_main_exp,2022.2.2,Win32,59.07721392,,,,,,,,,,,,,,,,,,masks/mask_001.jpg,,,,,,,,,,,,,,,,,,,,,,,,,,,,,,,,,,,,,,,,,,,,,,,0,0,0,0,1,,,,,,,,,,,,,,,,,,,,,,,,,,,,,,,,,,,,,,,,,
368107,001,2022-11-21_02h00.27.624,Info_measure_main_exp,2022.2.2,Win32,59.07721392,,,,,,,,,,,,,,,,,,masks/mask_004.jpg,,,,,,,,,,,,,,,,,,,,,,,,,,,,,,,,,,,,,,,,,,,,,,,0,1,1,3,1,,,,,,,,,,,,,,,,,,,,,,,,,,,,,,,,,,,,,,,,,
368107,001,2022-11-21_02h00.27.624,Info_measure_main_exp,2022.2.2,Win32,59.07721392,,,,,,,,,,,,,,,,,,masks/mask_002.jpg,,,,,,,,,,,,,,,,,,,,,,,,,,,,,,,,,,,,,,,,,,,,,,,0,2,2,1,1,,,,,,,,,,,,,,,,,,,,,,,,,,,,,,,,,,,,,,,,,
368107,001,2022-11-21_02h00.27.624,Info_measure_main_exp,2022.2.2,Win32,59.07721392,,,,,,,,,,,,,,,,,,masks/mask_005.jpg,,,,,,,,,,,,,,,,,,,,,,,,,,,,,,,,,,,,,,,,,,,,,,,0,3,3,4,1,,,,,,,,,,,,,,,,,,,,,,,,,,,,,,,,,,,,,,,,,
368107,001,2022-11-21_02h00.27.624,Info_measure_main_exp,2022.2.2,Win32,59.07721392,,,,,,,,,,,,,,,,,,masks/mask_003.jpg,,,,,,,,,,,,,,,,,,,,,,,,,,,,,,,,,,,,,,,,,,,,,,,0,4,4,2,1,,,,,,,,,,,,,,,,,,,,,,,,,,,,,,,,,,,,,,,,,
368107,001,2022-11-21_02h00.27.624,Info_measure_main_exp,2022.2.2,Win32,59.07721392,,,,,,,,,,,,,,,,,,,,,,,,,,,,,,7,0.5516,1,,,,,,,,,,,,0,131,5,5,2178,2238,absent_patch/patch0002178.jpg,absent_patch/patch0002238.jpg,,,,,,,,,,,,,,,,,,,0.001302083,0.026041667,1,0,0,response1disk,25,0.005208333,0.006510417,1,0,0,center_square,0,24,24,57,1,,,,,,,,,,,,,,,,,,,,,,,
368107,001,2022-11-21_02h00.27.624,Info_measure_main_exp,2022.2.2,Win32,59.07721392,,,,,,,,,,,,,,,,,,masks/mask_004.jpg,,,,,,,,,,,,,,,,,,,,,,,,,,,,,,,,,,,,,,,,,,0,0,0,3,1,,,,,,,,,,,,,,,,,,,,,,,,,,,,,,,,,,,,,,,,,,,,,,
368107,001,2022-11-21_02h00.27.624,Info_measure_main_exp,2022.2.2,Win32,59.07721392,,,,,,,,,,,,,,,,,,masks/mask_005.jpg,,,,,,,,,,,,,,,,,,,,,,,,,,,,,,,,,,,,,,,,,,0,1,1,4,1,,,,,,,,,,,,,,,,,,,,,,,,,,,,,,,,,,,,,,,,,,,,,,
368107,001,2022-11-21_02h00.27.624,Info_measure_main_exp,2022.2.2,Win32,59.07721392,,,,,,,,,,,,,,,,,,masks/mask_001.jpg,,,,,,,,,,,,,,,,,,,,,,,,,,,,,,,,,,,,,,,,,,0,2,2,0,1,,,,,,,,,,,,,,,,,,,,,,,,,,,,,,,,,,,,,,,,,,,,,,
368107,001,2022-11-21_02h00.27.624,Info_measure_main_exp,2022.2.2,Win32,59.07721392,,,,,,,,,,,,,,,,,,masks/mask_003.jpg,,,,,,,,,,,,,,,,,,,,,,,,,,,,,,,,,,,,,,,,,,0,3,3,2,1,,,,,,,,,,,,,,,,,,,,,,,,,,,,,,,,,,,,,,,,,,,,,,
368107,001,2022-11-21_02h00.27.624,Info_measure_main_exp,2022.2.2,Win32,59.07721392,,,,,,,,,,,,,,,,,,masks/mask_002.jpg,,,,,,,,,,,,,,,,,,,,,,,,,,,,,,,,,,,,,,,,,,0,4,4,1,1,,,,,,,,,,,,,,,,,,,,,,,,,,,,,,,,,,,,,,,,,,,,,,
368107,001,2022-11-21_02h00.27.624,Info_measure_main_exp,2022.2.2,Win32,59.07721392,,,,,,,,,,,,,,,,,,masks/mask_005.jpg,,,,,,,,,,,,,,,,,,,,,,,,,,,,,,,,,,,,,,,,,,,,,,,0,0,0,4,1,,,,,,,,,,,,,,,,,,,,,,,,,,,,,,,,,,,,,,,,,
368107,001,2022-11-21_02h00.27.624,Info_measure_main_exp,2022.2.2,Win32,59.07721392,,,,,,,,,,,,,,,,,,masks/mask_002.jpg,,,,,,,,,,,,,,,,,,,,,,,,,,,,,,,,,,,,,,,,,,,,,,,0,1,1,1,1,,,,,,,,,,,,,,,,,,,,,,,,,,,,,,,,,,,,,,,,,
368107,001,2022-11-21_02h00.27.624,Info_measure_main_exp,2022.2.2,Win32,59.07721392,,,,,,,,,,,,,,,,,,masks/mask_003.jpg,,,,,,,,,,,,,,,,,,,,,,,,,,,,,,,,,,,,,,,,,,,,,,,0,2,2,2,1,,,,,,,,,,,,,,,,,,,,,,,,,,,,,,,,,,,,,,,,,
368107,001,2022-11-21_02h00.27.624,Info_measure_main_exp,2022.2.2,Win32,59.07721392,,,,,,,,,,,,,,,,,,masks/mask_004.jpg,,,,,,,,,,,,,,,,,,,,,,,,,,,,,,,,,,,,,,,,,,,,,,,0,3,3,3,1,,,,,,,,,,,,,,,,,,,,,,,,,,,,,,,,,,,,,,,,,
368107,001,2022-11-21_02h00.27.624,Info_measure_main_exp,2022.2.2,Win32,59.07721392,,,,,,,,,,,,,,,,,,masks/mask_001.jpg,,,,,,,,,,,,,,,,,,,,,,,,,,,,,,,,,,,,,,,,,,,,,,,0,4,4,0,1,,,,,,,,,,,,,,,,,,,,,,,,,,,,,,,,,,,,,,,,,
368107,001,2022-11-21_02h00.27.624,Info_measure_main_exp,2022.2.2,Win32,59.07721392,,,,,,,,,,,,,,,,,,,,,,,,,,,,,,0,0.8522,1,,,,,,,,,,,,0,131,5,5,2166,2166,absent_patch/patch0002166.jpg,absent_patch/patch0002166.jpg,,,,,,,,,,,,,,,,,,,-0.03125,0.076822917,1,0,0,response7disk,26,-0.005208333,0.001302083,1,0,0,center_square,0,25,25,42,1,,,,,,,,,,,,,,,,,,,,,,,
368107,001,2022-11-21_02h00.27.624,Info_measure_main_exp,2022.2.2,Win32,59.07721392,,,,,,,,,,,,,,,,,,masks/mask_004.jpg,,,,,,,,,,,,,,,,,,,,,,,,,,,,,,,,,,,,,,,,,,0,0,0,3,1,,,,,,,,,,,,,,,,,,,,,,,,,,,,,,,,,,,,,,,,,,,,,,
368107,001,2022-11-21_02h00.27.624,Info_measure_main_exp,2022.2.2,Win32,59.07721392,,,,,,,,,,,,,,,,,,masks/mask_003.jpg,,,,,,,,,,,,,,,,,,,,,,,,,,,,,,,,,,,,,,,,,,0,1,1,2,1,,,,,,,,,,,,,,,,,,,,,,,,,,,,,,,,,,,,,,,,,,,,,,
368107,001,2022-11-21_02h00.27.624,Info_measure_main_exp,2022.2.2,Win32,59.07721392,,,,,,,,,,,,,,,,,,masks/mask_002.jpg,,,,,,,,,,,,,,,,,,,,,,,,,,,,,,,,,,,,,,,,,,0,2,2,1,1,,,,,,,,,,,,,,,,,,,,,,,,,,,,,,,,,,,,,,,,,,,,,,
368107,001,2022-11-21_02h00.27.624,Info_measure_main_exp,2022.2.2,Win32,59.07721392,,,,,,,,,,,,,,,,,,masks/mask_001.jpg,,,,,,,,,,,,,,,,,,,,,,,,,,,,,,,,,,,,,,,,,,0,3,3,0,1,,,,,,,,,,,,,,,,,,,,,,,,,,,,,,,,,,,,,,,,,,,,,,
368107,001,2022-11-21_02h00.27.624,Info_measure_main_exp,2022.2.2,Win32,59.07721392,,,,,,,,,,,,,,,,,,masks/mask_005.jpg,,,,,,,,,,,,,,,,,,,,,,,,,,,,,,,,,,,,,,,,,,0,4,4,4,1,,,,,,,,,,,,,,,,,,,,,,,,,,,,,,,,,,,,,,,,,,,,,,
368107,001,2022-11-21_02h00.27.624,Info_measure_main_exp,2022.2.2,Win32,59.07721392,,,,,,,,,,,,,,,,,,masks/mask_004.jpg,,,,,,,,,,,,,,,,,,,,,,,,,,,,,,,,,,,,,,,,,,,,,,,0,0,0,3,1,,,,,,,,,,,,,,,,,,,,,,,,,,,,,,,,,,,,,,,,,
368107,001,2022-11-21_02h00.27.624,Info_measure_main_exp,2022.2.2,Win32,59.07721392,,,,,,,,,,,,,,,,,,masks/mask_003.jpg,,,,,,,,,,,,,,,,,,,,,,,,,,,,,,,,,,,,,,,,,,,,,,,0,1,1,2,1,,,,,,,,,,,,,,,,,,,,,,,,,,,,,,,,,,,,,,,,,
368107,001,2022-11-21_02h00.27.624,Info_measure_main_exp,2022.2.2,Win32,59.07721392,,,,,,,,,,,,,,,,,,masks/mask_005.jpg,,,,,,,,,,,,,,,,,,,,,,,,,,,,,,,,,,,,,,,,,,,,,,,0,2,2,4,1,,,,,,,,,,,,,,,,,,,,,,,,,,,,,,,,,,,,,,,,,
368107,001,2022-11-21_02h00.27.624,Info_measure_main_exp,2022.2.2,Win32,59.07721392,,,,,,,,,,,,,,,,,,masks/mask_002.jpg,,,,,,,,,,,,,,,,,,,,,,,,,,,,,,,,,,,,,,,,,,,,,,,0,3,3,1,1,,,,,,,,,,,,,,,,,,,,,,,,,,,,,,,,,,,,,,,,,
368107,001,2022-11-21_02h00.27.624,Info_measure_main_exp,2022.2.2,Win32,59.07721392,,,,,,,,,,,,,,,,,,masks/mask_001.jpg,,,,,,,,,,,,,,,,,,,,,,,,,,,,,,,,,,,,,,,,,,,,,,,0,4,4,0,1,,,,,,,,,,,,,,,,,,,,,,,,,,,,,,,,,,,,,,,,,
368107,001,2022-11-21_02h00.27.624,Info_measure_main_exp,2022.2.2,Win32,59.07721392,,,,,,,,,,,,,,,,,,,,,,,,,,,,,,7,1.1362,1,,,,,,,,,,,,1,131,5,5,1,2166,present_patch/cong_131_5_a.jpg,absent_patch/patch0002166.jpg,,,,,,,,,,,,,,,,,,,0.065104167,0.0859375,1,0,0,response1disk,27,0.002604167,0.013020833,1,0,0,center_square,0,26,26,54,1,,,,,,,,,,,,,,,,,,,,,,,
368107,001,2022-11-21_02h00.27.624,Info_measure_main_exp,2022.2.2,Win32,59.07721392,,,,,,,,,,,,,,,,,,masks/mask_003.jpg,,,,,,,,,,,,,,,,,,,,,,,,,,,,,,,,,,,,,,,,,,0,0,0,2,1,,,,,,,,,,,,,,,,,,,,,,,,,,,,,,,,,,,,,,,,,,,,,,
368107,001,2022-11-21_02h00.27.624,Info_measure_main_exp,2022.2.2,Win32,59.07721392,,,,,,,,,,,,,,,,,,masks/mask_001.jpg,,,,,,,,,,,,,,,,,,,,,,,,,,,,,,,,,,,,,,,,,,0,1,1,0,1,,,,,,,,,,,,,,,,,,,,,,,,,,,,,,,,,,,,,,,,,,,,,,
368107,001,2022-11-21_02h00.27.624,Info_measure_main_exp,2022.2.2,Win32,59.07721392,,,,,,,,,,,,,,,,,,masks/mask_004.jpg,,,,,,,,,,,,,,,,,,,,,,,,,,,,,,,,,,,,,,,,,,0,2,2,3,1,,,,,,,,,,,,,,,,,,,,,,,,,,,,,,,,,,,,,,,,,,,,,,
368107,001,2022-11-21_02h00.27.624,Info_measure_main_exp,2022.2.2,Win32,59.07721392,,,,,,,,,,,,,,,,,,masks/mask_002.jpg,,,,,,,,,,,,,,,,,,,,,,,,,,,,,,,,,,,,,,,,,,0,3,3,1,1,,,,,,,,,,,,,,,,,,,,,,,,,,,,,,,,,,,,,,,,,,,,,,
368107,001,2022-11-21_02h00.27.624,Info_measure_main_exp,2022.2.2,Win32,59.07721392,,,,,,,,,,,,,,,,,,masks/mask_005.jpg,,,,,,,,,,,,,,,,,,,,,,,,,,,,,,,,,,,,,,,,,,0,4,4,4,1,,,,,,,,,,,,,,,,,,,,,,,,,,,,,,,,,,,,,,,,,,,,,,
368107,001,2022-11-21_02h00.27.624,Info_measure_main_exp,2022.2.2,Win32,59.07721392,,,,,,,,,,,,,,,,,,masks/mask_003.jpg,,,,,,,,,,,,,,,,,,,,,,,,,,,,,,,,,,,,,,,,,,,,,,,0,0,0,2,1,,,,,,,,,,,,,,,,,,,,,,,,,,,,,,,,,,,,,,,,,
368107,001,2022-11-21_02h00.27.624,Info_measure_main_exp,2022.2.2,Win32,59.07721392,,,,,,,,,,,,,,,,,,masks/mask_002.jpg,,,,,,,,,,,,,,,,,,,,,,,,,,,,,,,,,,,,,,,,,,,,,,,0,1,1,1,1,,,,,,,,,,,,,,,,,,,,,,,,,,,,,,,,,,,,,,,,,
368107,001,2022-11-21_02h00.27.624,Info_measure_main_exp,2022.2.2,Win32,59.07721392,,,,,,,,,,,,,,,,,,masks/mask_001.jpg,,,,,,,,,,,,,,,,,,,,,,,,,,,,,,,,,,,,,,,,,,,,,,,0,2,2,0,1,,,,,,,,,,,,,,,,,,,,,,,,,,,,,,,,,,,,,,,,,
368107,001,2022-11-21_02h00.27.624,Info_measure_main_exp,2022.2.2,Win32,59.07721392,,,,,,,,,,,,,,,,,,masks/mask_005.jpg,,,,,,,,,,,,,,,,,,,,,,,,,,,,,,,,,,,,,,,,,,,,,,,0,3,3,4,1,,,,,,,,,,,,,,,,,,,,,,,,,,,,,,,,,,,,,,,,,
368107,001,2022-11-21_02h00.27.624,Info_measure_main_exp,2022.2.2,Win32,59.07721392,,,,,,,,,,,,,,,,,,masks/mask_004.jpg,,,,,,,,,,,,,,,,,,,,,,,,,,,,,,,,,,,,,,,,,,,,,,,0,4,4,3,1,,,,,,,,,,,,,,,,,,,,,,,,,,,,,,,,,,,,,,,,,
368107,001,2022-11-21_02h00.27.624,Info_measure_main_exp,2022.2.2,Win32,59.07721392,,,,,,,,,,,,,,,,,,,,,,,,,,,,,,7,1.0028,1,,,,,,,,,,,,1,131,5,5,1,2274,present_patch/cong_131_5_a.jpg,absent_patch/patch0002274.jpg,,,,,,,,,,,,,,,,,,,0.041666667,0.1015625,1,0,0,response1disk,28,-0.002604167,-0.001302083,1,0,0,center_square,0,27,27,105,1,,,,,,,,,,,,,,,,,,,,,,,
368107,001,2022-11-21_02h00.27.624,Info_measure_main_exp,2022.2.2,Win32,59.07721392,,,,,,,,,,,,,,,,,,masks/mask_002.jpg,,,,,,,,,,,,,,,,,,,,,,,,,,,,,,,,,,,,,,,,,,0,0,0,1,1,,,,,,,,,,,,,,,,,,,,,,,,,,,,,,,,,,,,,,,,,,,,,,
368107,001,2022-11-21_02h00.27.624,Info_measure_main_exp,2022.2.2,Win32,59.07721392,,,,,,,,,,,,,,,,,,masks/mask_001.jpg,,,,,,,,,,,,,,,,,,,,,,,,,,,,,,,,,,,,,,,,,,0,1,1,0,1,,,,,,,,,,,,,,,,,,,,,,,,,,,,,,,,,,,,,,,,,,,,,,
368107,001,2022-11-21_02h00.27.624,Info_measure_main_exp,2022.2.2,Win32,59.07721392,,,,,,,,,,,,,,,,,,masks/mask_005.jpg,,,,,,,,,,,,,,,,,,,,,,,,,,,,,,,,,,,,,,,,,,0,2,2,4,1,,,,,,,,,,,,,,,,,,,,,,,,,,,,,,,,,,,,,,,,,,,,,,
368107,001,2022-11-21_02h00.27.624,Info_measure_main_exp,2022.2.2,Win32,59.07721392,,,,,,,,,,,,,,,,,,masks/mask_004.jpg,,,,,,,,,,,,,,,,,,,,,,,,,,,,,,,,,,,,,,,,,,0,3,3,3,1,,,,,,,,,,,,,,,,,,,,,,,,,,,,,,,,,,,,,,,,,,,,,,
368107,001,2022-11-21_02h00.27.624,Info_measure_main_exp,2022.2.2,Win32,59.07721392,,,,,,,,,,,,,,,,,,masks/mask_003.jpg,,,,,,,,,,,,,,,,,,,,,,,,,,,,,,,,,,,,,,,,,,0,4,4,2,1,,,,,,,,,,,,,,,,,,,,,,,,,,,,,,,,,,,,,,,,,,,,,,
368107,001,2022-11-21_02h00.27.624,Info_measure_main_exp,2022.2.2,Win32,59.07721392,,,,,,,,,,,,,,,,,,masks/mask_003.jpg,,,,,,,,,,,,,,,,,,,,,,,,,,,,,,,,,,,,,,,,,,,,,,,0,0,0,2,1,,,,,,,,,,,,,,,,,,,,,,,,,,,,,,,,,,,,,,,,,
368107,001,2022-11-21_02h00.27.624,Info_measure_main_exp,2022.2.2,Win32,59.07721392,,,,,,,,,,,,,,,,,,masks/mask_005.jpg,,,,,,,,,,,,,,,,,,,,,,,,,,,,,,,,,,,,,,,,,,,,,,,0,1,1,4,1,,,,,,,,,,,,,,,,,,,,,,,,,,,,,,,,,,,,,,,,,
368107,001,2022-11-21_02h00.27.624,Info_measure_main_exp,2022.2.2,Win32,59.07721392,,,,,,,,,,,,,,,,,,masks/mask_002.jpg,,,,,,,,,,,,,,,,,,,,,,,,,,,,,,,,,,,,,,,,,,,,,,,0,2,2,1,1,,,,,,,,,,,,,,,,,,,,,,,,,,,,,,,,,,,,,,,,,
368107,001,2022-11-21_02h00.27.624,Info_measure_main_exp,2022.2.2,Win32,59.07721392,,,,,,,,,,,,,,,,,,masks/mask_004.jpg,,,,,,,,,,,,,,,,,,,,,,,,,,,,,,,,,,,,,,,,,,,,,,,0,3,3,3,1,,,,,,,,,,,,,,,,,,,,,,,,,,,,,,,,,,,,,,,,,
368107,001,2022-11-21_02h00.27.624,Info_measure_main_exp,2022.2.2,Win32,59.07721392,,,,,,,,,,,,,,,,,,masks/mask_001.jpg,,,,,,,,,,,,,,,,,,,,,,,,,,,,,,,,,,,,,,,,,,,,,,,0,4,4,0,1,,,,,,,,,,,,,,,,,,,,,,,,,,,,,,,,,,,,,,,,,
368107,001,2022-11-21_02h00.27.624,Info_measure_main_exp,2022.2.2,Win32,59.07721392,,,,,,,,,,,,,,,,,,,,,,,,,,,,,,4,2.1054,1,,,,,,,,,,,,0,131,5,5,2082,1974,absent_patch/patch0002082.jpg,absent_patch/patch0001974.jpg,,,,,,,,,,,,,,,,,,,0.0390625,-0.07421875,1,0,0,response3disk,29,-0.002604167,0.0078125,1,0,0,center_square,0,28,28,26,1,,,,,,,,,,,,,,,,,,,,,,,
368107,001,2022-11-21_02h00.27.624,Info_measure_main_exp,2022.2.2,Win32,59.07721392,,,,,,,,,,,,,,,,,,masks/mask_004.jpg,,,,,,,,,,,,,,,,,,,,,,,,,,,,,,,,,,,,,,,,,,0,0,0,3,1,,,,,,,,,,,,,,,,,,,,,,,,,,,,,,,,,,,,,,,,,,,,,,
368107,001,2022-11-21_02h00.27.624,Info_measure_main_exp,2022.2.2,Win32,59.07721392,,,,,,,,,,,,,,,,,,masks/mask_005.jpg,,,,,,,,,,,,,,,,,,,,,,,,,,,,,,,,,,,,,,,,,,0,1,1,4,1,,,,,,,,,,,,,,,,,,,,,,,,,,,,,,,,,,,,,,,,,,,,,,
368107,001,2022-11-21_02h00.27.624,Info_measure_main_exp,2022.2.2,Win32,59.07721392,,,,,,,,,,,,,,,,,,masks/mask_001.jpg,,,,,,,,,,,,,,,,,,,,,,,,,,,,,,,,,,,,,,,,,,0,2,2,0,1,,,,,,,,,,,,,,,,,,,,,,,,,,,,,,,,,,,,,,,,,,,,,,
368107,001,2022-11-21_02h00.27.624,Info_measure_main_exp,2022.2.2,Win32,59.07721392,,,,,,,,,,,,,,,,,,masks/mask_002.jpg,,,,,,,,,,,,,,,,,,,,,,,,,,,,,,,,,,,,,,,,,,0,3,3,1,1,,,,,,,,,,,,,,,,,,,,,,,,,,,,,,,,,,,,,,,,,,,,,,
368107,001,2022-11-21_02h00.27.624,Info_measure_main_exp,2022.2.2,Win32,59.07721392,,,,,,,,,,,,,,,,,,masks/mask_003.jpg,,,,,,,,,,,,,,,,,,,,,,,,,,,,,,,,,,,,,,,,,,0,4,4,2,1,,,,,,,,,,,,,,,,,,,,,,,,,,,,,,,,,,,,,,,,,,,,,,
368107,001,2022-11-21_02h00.27.624,Info_measure_main_exp,2022.2.2,Win32,59.07721392,,,,,,,,,,,,,,,,,,masks/mask_005.jpg,,,,,,,,,,,,,,,,,,,,,,,,,,,,,,,,,,,,,,,,,,,,,,,0,0,0,4,1,,,,,,,,,,,,,,,,,,,,,,,,,,,,,,,,,,,,,,,,,
368107,001,2022-11-21_02h00.27.624,Info_measure_main_exp,2022.2.2,Win32,59.07721392,,,,,,,,,,,,,,,,,,masks/mask_002.jpg,,,,,,,,,,,,,,,,,,,,,,,,,,,,,,,,,,,,,,,,,,,,,,,0,1,1,1,1,,,,,,,,,,,,,,,,,,,,,,,,,,,,,,,,,,,,,,,,,
368107,001,2022-11-21_02h00.27.624,Info_measure_main_exp,2022.2.2,Win32,59.07721392,,,,,,,,,,,,,,,,,,masks/mask_003.jpg,,,,,,,,,,,,,,,,,,,,,,,,,,,,,,,,,,,,,,,,,,,,,,,0,2,2,2,1,,,,,,,,,,,,,,,,,,,,,,,,,,,,,,,,,,,,,,,,,
368107,001,2022-11-21_02h00.27.624,Info_measure_main_exp,2022.2.2,Win32,59.07721392,,,,,,,,,,,,,,,,,,masks/mask_001.jpg,,,,,,,,,,,,,,,,,,,,,,,,,,,,,,,,,,,,,,,,,,,,,,,0,3,3,0,1,,,,,,,,,,,,,,,,,,,,,,,,,,,,,,,,,,,,,,,,,
368107,001,2022-11-21_02h00.27.624,Info_measure_main_exp,2022.2.2,Win32,59.07721392,,,,,,,,,,,,,,,,,,masks/mask_004.jpg,,,,,,,,,,,,,,,,,,,,,,,,,,,,,,,,,,,,,,,,,,,,,,,0,4,4,3,1,,,,,,,,,,,,,,,,,,,,,,,,,,,,,,,,,,,,,,,,,
368107,001,2022-11-21_02h00.27.624,Info_measure_main_exp,2022.2.2,Win32,59.07721392,,,,,,,,,,,,,,,,,,,,,,,,,,,,,,6,1.6715,1,,,,,,,,,,,,0,131,5,5,1974,2298,absent_patch/patch0001974.jpg,absent_patch/patch0002298.jpg,,,,,,,,,,,,,,,,,,,0.110677083,0.052083333,1,0,0,response1disk,30,0.006510417,0.013020833,1,0,0,center_square,0,29,29,6,1,,,,,,,,,,,,,,,,,,,,,,,
368107,001,2022-11-21_02h00.27.624,Info_measure_main_exp,2022.2.2,Win32,59.07721392,,,,,,,,,,,,,,,,,,masks/mask_001.jpg,,,,,,,,,,,,,,,,,,,,,,,,,,,,,,,,,,,,,,,,,,0,0,0,0,1,,,,,,,,,,,,,,,,,,,,,,,,,,,,,,,,,,,,,,,,,,,,,,
368107,001,2022-11-21_02h00.27.624,Info_measure_main_exp,2022.2.2,Win32,59.07721392,,,,,,,,,,,,,,,,,,masks/mask_003.jpg,,,,,,,,,,,,,,,,,,,,,,,,,,,,,,,,,,,,,,,,,,0,1,1,2,1,,,,,,,,,,,,,,,,,,,,,,,,,,,,,,,,,,,,,,,,,,,,,,
368107,001,2022-11-21_02h00.27.624,Info_measure_main_exp,2022.2.2,Win32,59.07721392,,,,,,,,,,,,,,,,,,masks/mask_004.jpg,,,,,,,,,,,,,,,,,,,,,,,,,,,,,,,,,,,,,,,,,,0,2,2,3,1,,,,,,,,,,,,,,,,,,,,,,,,,,,,,,,,,,,,,,,,,,,,,,
368107,001,2022-11-21_02h00.27.624,Info_measure_main_exp,2022.2.2,Win32,59.07721392,,,,,,,,,,,,,,,,,,masks/mask_005.jpg,,,,,,,,,,,,,,,,,,,,,,,,,,,,,,,,,,,,,,,,,,0,3,3,4,1,,,,,,,,,,,,,,,,,,,,,,,,,,,,,,,,,,,,,,,,,,,,,,
368107,001,2022-11-21_02h00.27.624,Info_measure_main_exp,2022.2.2,Win32,59.07721392,,,,,,,,,,,,,,,,,,masks/mask_002.jpg,,,,,,,,,,,,,,,,,,,,,,,,,,,,,,,,,,,,,,,,,,0,4,4,1,1,,,,,,,,,,,,,,,,,,,,,,,,,,,,,,,,,,,,,,,,,,,,,,
368107,001,2022-11-21_02h00.27.624,Info_measure_main_exp,2022.2.2,Win32,59.07721392,,,,,,,,,,,,,,,,,,masks/mask_002.jpg,,,,,,,,,,,,,,,,,,,,,,,,,,,,,,,,,,,,,,,,,,,,,,,0,0,0,1,1,,,,,,,,,,,,,,,,,,,,,,,,,,,,,,,,,,,,,,,,,
368107,001,2022-11-21_02h00.27.624,Info_measure_main_exp,2022.2.2,Win32,59.07721392,,,,,,,,,,,,,,,,,,masks/mask_005.jpg,,,,,,,,,,,,,,,,,,,,,,,,,,,,,,,,,,,,,,,,,,,,,,,0,1,1,4,1,,,,,,,,,,,,,,,,,,,,,,,,,,,,,,,,,,,,,,,,,
368107,001,2022-11-21_02h00.27.624,Info_measure_main_exp,2022.2.2,Win32,59.07721392,,,,,,,,,,,,,,,,,,masks/mask_004.jpg,,,,,,,,,,,,,,,,,,,,,,,,,,,,,,,,,,,,,,,,,,,,,,,0,2,2,3,1,,,,,,,,,,,,,,,,,,,,,,,,,,,,,,,,,,,,,,,,,
368107,001,2022-11-21_02h00.27.624,Info_measure_main_exp,2022.2.2,Win32,59.07721392,,,,,,,,,,,,,,,,,,masks/mask_003.jpg,,,,,,,,,,,,,,,,,,,,,,,,,,,,,,,,,,,,,,,,,,,,,,,0,3,3,2,1,,,,,,,,,,,,,,,,,,,,,,,,,,,,,,,,,,,,,,,,,
368107,001,2022-11-21_02h00.27.624,Info_measure_main_exp,2022.2.2,Win32,59.07721392,,,,,,,,,,,,,,,,,,masks/mask_001.jpg,,,,,,,,,,,,,,,,,,,,,,,,,,,,,,,,,,,,,,,,,,,,,,,0,4,4,0,1,,,,,,,,,,,,,,,,,,,,,,,,,,,,,,,,,,,,,,,,,
368107,001,2022-11-21_02h00.27.624,Info_measure_main_exp,2022.2.2,Win32,59.07721392,,,,,,,,,,,,,,,,,,,,,,,,,,,,,,0,1.0862,1,,,,,,,,,,,,1,131,5,5,1,1,present_patch/cong_131_5_a.jpg,present_patch/cong_131_5_a.jpg,,,,,,,,,,,,,,,,,,,-0.032552083,0.05859375,1,0,0,response7disk,31,0.006510417,-0.005208333,1,0,0,center_square,0,30,30,30,1,,,,,,,,,,,,,,,,,,,,,,,
368107,001,2022-11-21_02h00.27.624,Info_measure_main_exp,2022.2.2,Win32,59.07721392,,,,,,,,,,,,,,,,,,masks/mask_002.jpg,,,,,,,,,,,,,,,,,,,,,,,,,,,,,,,,,,,,,,,,,,0,0,0,1,1,,,,,,,,,,,,,,,,,,,,,,,,,,,,,,,,,,,,,,,,,,,,,,
368107,001,2022-11-21_02h00.27.624,Info_measure_main_exp,2022.2.2,Win32,59.07721392,,,,,,,,,,,,,,,,,,masks/mask_004.jpg,,,,,,,,,,,,,,,,,,,,,,,,,,,,,,,,,,,,,,,,,,0,1,1,3,1,,,,,,,,,,,,,,,,,,,,,,,,,,,,,,,,,,,,,,,,,,,,,,
368107,001,2022-11-21_02h00.27.624,Info_measure_main_exp,2022.2.2,Win32,59.07721392,,,,,,,,,,,,,,,,,,masks/mask_005.jpg,,,,,,,,,,,,,,,,,,,,,,,,,,,,,,,,,,,,,,,,,,0,2,2,4,1,,,,,,,,,,,,,,,,,,,,,,,,,,,,,,,,,,,,,,,,,,,,,,
368107,001,2022-11-21_02h00.27.624,Info_measure_main_exp,2022.2.2,Win32,59.07721392,,,,,,,,,,,,,,,,,,masks/mask_003.jpg,,,,,,,,,,,,,,,,,,,,,,,,,,,,,,,,,,,,,,,,,,0,3,3,2,1,,,,,,,,,,,,,,,,,,,,,,,,,,,,,,,,,,,,,,,,,,,,,,
368107,001,2022-11-21_02h00.27.624,Info_measure_main_exp,2022.2.2,Win32,59.07721392,,,,,,,,,,,,,,,,,,masks/mask_001.jpg,,,,,,,,,,,,,,,,,,,,,,,,,,,,,,,,,,,,,,,,,,0,4,4,0,1,,,,,,,,,,,,,,,,,,,,,,,,,,,,,,,,,,,,,,,,,,,,,,
368107,001,2022-11-21_02h00.27.624,Info_measure_main_exp,2022.2.2,Win32,59.07721392,,,,,,,,,,,,,,,,,,masks/mask_002.jpg,,,,,,,,,,,,,,,,,,,,,,,,,,,,,,,,,,,,,,,,,,,,,,,0,0,0,1,1,,,,,,,,,,,,,,,,,,,,,,,,,,,,,,,,,,,,,,,,,
368107,001,2022-11-21_02h00.27.624,Info_measure_main_exp,2022.2.2,Win32,59.07721392,,,,,,,,,,,,,,,,,,masks/mask_005.jpg,,,,,,,,,,,,,,,,,,,,,,,,,,,,,,,,,,,,,,,,,,,,,,,0,1,1,4,1,,,,,,,,,,,,,,,,,,,,,,,,,,,,,,,,,,,,,,,,,
368107,001,2022-11-21_02h00.27.624,Info_measure_main_exp,2022.2.2,Win32,59.07721392,,,,,,,,,,,,,,,,,,masks/mask_003.jpg,,,,,,,,,,,,,,,,,,,,,,,,,,,,,,,,,,,,,,,,,,,,,,,0,2,2,2,1,,,,,,,,,,,,,,,,,,,,,,,,,,,,,,,,,,,,,,,,,
368107,001,2022-11-21_02h00.27.624,Info_measure_main_exp,2022.2.2,Win32,59.07721392,,,,,,,,,,,,,,,,,,masks/mask_004.jpg,,,,,,,,,,,,,,,,,,,,,,,,,,,,,,,,,,,,,,,,,,,,,,,0,3,3,3,1,,,,,,,,,,,,,,,,,,,,,,,,,,,,,,,,,,,,,,,,,
368107,001,2022-11-21_02h00.27.624,Info_measure_main_exp,2022.2.2,Win32,59.07721392,,,,,,,,,,,,,,,,,,masks/mask_001.jpg,,,,,,,,,,,,,,,,,,,,,,,,,,,,,,,,,,,,,,,,,,,,,,,0,4,4,0,1,,,,,,,,,,,,,,,,,,,,,,,,,,,,,,,,,,,,,,,,,
368107,001,2022-11-21_02h00.27.624,Info_measure_main_exp,2022.2.2,Win32,59.07721392,,,,,,,,,,,,,,,,,,,,,,,,,,,,,,7,2.4394,1,,,,,,,,,,,,1,131,5,5,2250,1,absent_patch/patch0002250.jpg,present_patch/cong_131_5_a.jpg,,,,,,,,,,,,,,,,,,,0.046875,0.0703125,1,0,0,response1disk,32,0.00390625,-0.001302083,1,0,0,center_square,0,31,31,5,1,,,,,,,,,,,,,,,,,,,,,,,
368107,001,2022-11-21_02h00.27.624,Info_measure_main_exp,2022.2.2,Win32,59.07721392,,,,,,,,,,,,,,,,,,masks/mask_003.jpg,,,,,,,,,,,,,,,,,,,,,,,,,,,,,,,,,,,,,,,,,,0,0,0,2,1,,,,,,,,,,,,,,,,,,,,,,,,,,,,,,,,,,,,,,,,,,,,,,
368107,001,2022-11-21_02h00.27.624,Info_measure_main_exp,2022.2.2,Win32,59.07721392,,,,,,,,,,,,,,,,,,masks/mask_002.jpg,,,,,,,,,,,,,,,,,,,,,,,,,,,,,,,,,,,,,,,,,,0,1,1,1,1,,,,,,,,,,,,,,,,,,,,,,,,,,,,,,,,,,,,,,,,,,,,,,
368107,001,2022-11-21_02h00.27.624,Info_measure_main_exp,2022.2.2,Win32,59.07721392,,,,,,,,,,,,,,,,,,masks/mask_001.jpg,,,,,,,,,,,,,,,,,,,,,,,,,,,,,,,,,,,,,,,,,,0,2,2,0,1,,,,,,,,,,,,,,,,,,,,,,,,,,,,,,,,,,,,,,,,,,,,,,
368107,001,2022-11-21_02h00.27.624,Info_measure_main_exp,2022.2.2,Win32,59.07721392,,,,,,,,,,,,,,,,,,masks/mask_005.jpg,,,,,,,,,,,,,,,,,,,,,,,,,,,,,,,,,,,,,,,,,,0,3,3,4,1,,,,,,,,,,,,,,,,,,,,,,,,,,,,,,,,,,,,,,,,,,,,,,
368107,001,2022-11-21_02h00.27.624,Info_measure_main_exp,2022.2.2,Win32,59.07721392,,,,,,,,,,,,,,,,,,masks/mask_004.jpg,,,,,,,,,,,,,,,,,,,,,,,,,,,,,,,,,,,,,,,,,,0,4,4,3,1,,,,,,,,,,,,,,,,,,,,,,,,,,,,,,,,,,,,,,,,,,,,,,
368107,001,2022-11-21_02h00.27.624,Info_measure_main_exp,2022.2.2,Win32,59.07721392,,,,,,,,,,,,,,,,,,masks/mask_005.jpg,,,,,,,,,,,,,,,,,,,,,,,,,,,,,,,,,,,,,,,,,,,,,,,0,0,0,4,1,,,,,,,,,,,,,,,,,,,,,,,,,,,,,,,,,,,,,,,,,
368107,001,2022-11-21_02h00.27.624,Info_measure_main_exp,2022.2.2,Win32,59.07721392,,,,,,,,,,,,,,,,,,masks/mask_001.jpg,,,,,,,,,,,,,,,,,,,,,,,,,,,,,,,,,,,,,,,,,,,,,,,0,1,1,0,1,,,,,,,,,,,,,,,,,,,,,,,,,,,,,,,,,,,,,,,,,
368107,001,2022-11-21_02h00.27.624,Info_measure_main_exp,2022.2.2,Win32,59.07721392,,,,,,,,,,,,,,,,,,masks/mask_003.jpg,,,,,,,,,,,,,,,,,,,,,,,,,,,,,,,,,,,,,,,,,,,,,,,0,2,2,2,1,,,,,,,,,,,,,,,,,,,,,,,,,,,,,,,,,,,,,,,,,
368107,001,2022-11-21_02h00.27.624,Info_measure_main_exp,2022.2.2,Win32,59.07721392,,,,,,,,,,,,,,,,,,masks/mask_002.jpg,,,,,,,,,,,,,,,,,,,,,,,,,,,,,,,,,,,,,,,,,,,,,,,0,3,3,1,1,,,,,,,,,,,,,,,,,,,,,,,,,,,,,,,,,,,,,,,,,
368107,001,2022-11-21_02h00.27.624,Info_measure_main_exp,2022.2.2,Win32,59.07721392,,,,,,,,,,,,,,,,,,masks/mask_004.jpg,,,,,,,,,,,,,,,,,,,,,,,,,,,,,,,,,,,,,,,,,,,,,,,0,4,4,3,1,,,,,,,,,,,,,,,,,,,,,,,,,,,,,,,,,,,,,,,,,
368107,001,2022-11-21_02h00.27.624,Info_measure_main_exp,2022.2.2,Win32,59.07721392,,,,,,,,,,,,,,,,,,,,,,,,,,,,,,7,1.22,1,,,,,,,,,,,,0,131,5,5,2274,2082,absent_patch/patch0002274.jpg,absent_patch/patch0002082.jpg,,,,,,,,,,,,,,,,,,,0.046875,0.078125,1,0,0,response1disk,33,-0.001302083,0.009114583,1,0,0,center_square,0,32,32,100,1,,,,,,,,,,,,,,,,,,,,,,,
368107,001,2022-11-21_02h00.27.624,Info_measure_main_exp,2022.2.2,Win32,59.07721392,,,,,,,,,,,,,,,,,,masks/mask_001.jpg,,,,,,,,,,,,,,,,,,,,,,,,,,,,,,,,,,,,,,,,,,0,0,0,0,1,,,,,,,,,,,,,,,,,,,,,,,,,,,,,,,,,,,,,,,,,,,,,,
368107,001,2022-11-21_02h00.27.624,Info_measure_main_exp,2022.2.2,Win32,59.07721392,,,,,,,,,,,,,,,,,,masks/mask_003.jpg,,,,,,,,,,,,,,,,,,,,,,,,,,,,,,,,,,,,,,,,,,0,1,1,2,1,,,,,,,,,,,,,,,,,,,,,,,,,,,,,,,,,,,,,,,,,,,,,,
368107,001,2022-11-21_02h00.27.624,Info_measure_main_exp,2022.2.2,Win32,59.07721392,,,,,,,,,,,,,,,,,,masks/mask_004.jpg,,,,,,,,,,,,,,,,,,,,,,,,,,,,,,,,,,,,,,,,,,0,2,2,3,1,,,,,,,,,,,,,,,,,,,,,,,,,,,,,,,,,,,,,,,,,,,,,,
368107,001,2022-11-21_02h00.27.624,Info_measure_main_exp,2022.2.2,Win32,59.07721392,,,,,,,,,,,,,,,,,,masks/mask_002.jpg,,,,,,,,,,,,,,,,,,,,,,,,,,,,,,,,,,,,,,,,,,0,3,3,1,1,,,,,,,,,,,,,,,,,,,,,,,,,,,,,,,,,,,,,,,,,,,,,,
368107,001,2022-11-21_02h00.27.624,Info_measure_main_exp,2022.2.2,Win32,59.07721392,,,,,,,,,,,,,,,,,,masks/mask_005.jpg,,,,,,,,,,,,,,,,,,,,,,,,,,,,,,,,,,,,,,,,,,0,4,4,4,1,,,,,,,,,,,,,,,,,,,,,,,,,,,,,,,,,,,,,,,,,,,,,,
368107,001,2022-11-21_02h00.27.624,Info_measure_main_exp,2022.2.2,Win32,59.07721392,,,,,,,,,,,,,,,,,,masks/mask_002.jpg,,,,,,,,,,,,,,,,,,,,,,,,,,,,,,,,,,,,,,,,,,,,,,,0,0,0,1,1,,,,,,,,,,,,,,,,,,,,,,,,,,,,,,,,,,,,,,,,,
368107,001,2022-11-21_02h00.27.624,Info_measure_main_exp,2022.2.2,Win32,59.07721392,,,,,,,,,,,,,,,,,,masks/mask_001.jpg,,,,,,,,,,,,,,,,,,,,,,,,,,,,,,,,,,,,,,,,,,,,,,,0,1,1,0,1,,,,,,,,,,,,,,,,,,,,,,,,,,,,,,,,,,,,,,,,,
368107,001,2022-11-21_02h00.27.624,Info_measure_main_exp,2022.2.2,Win32,59.07721392,,,,,,,,,,,,,,,,,,masks/mask_005.jpg,,,,,,,,,,,,,,,,,,,,,,,,,,,,,,,,,,,,,,,,,,,,,,,0,2,2,4,1,,,,,,,,,,,,,,,,,,,,,,,,,,,,,,,,,,,,,,,,,
368107,001,2022-11-21_02h00.27.624,Info_measure_main_exp,2022.2.2,Win32,59.07721392,,,,,,,,,,,,,,,,,,masks/mask_004.jpg,,,,,,,,,,,,,,,,,,,,,,,,,,,,,,,,,,,,,,,,,,,,,,,0,3,3,3,1,,,,,,,,,,,,,,,,,,,,,,,,,,,,,,,,,,,,,,,,,
368107,001,2022-11-21_02h00.27.624,Info_measure_main_exp,2022.2.2,Win32,59.07721392,,,,,,,,,,,,,,,,,,masks/mask_003.jpg,,,,,,,,,,,,,,,,,,,,,,,,,,,,,,,,,,,,,,,,,,,,,,,0,4,4,2,1,,,,,,,,,,,,,,,,,,,,,,,,,,,,,,,,,,,,,,,,,
368107,001,2022-11-21_02h00.27.624,Info_measure_main_exp,2022.2.2,Win32,59.07721392,,,,,,,,,,,,,,,,,,,,,,,,,,,,,,0,1.956,1,,,,,,,,,,,,0,131,5,5,2142,2142,absent_patch/patch0002142.jpg,absent_patch/patch0002142.jpg,,,,,,,,,,,,,,,,,,,-0.024739583,0.104166667,1,0,0,response7disk,34,0.001302083,0,1,0,0,center_square,0,33,33,13,1,,,,,,,,,,,,,,,,,,,,,,,
368107,001,2022-11-21_02h00.27.624,Info_measure_main_exp,2022.2.2,Win32,59.07721392,,,,,,,,,,,,,,,,,,masks/mask_002.jpg,,,,,,,,,,,,,,,,,,,,,,,,,,,,,,,,,,,,,,,,,,0,0,0,1,1,,,,,,,,,,,,,,,,,,,,,,,,,,,,,,,,,,,,,,,,,,,,,,
368107,001,2022-11-21_02h00.27.624,Info_measure_main_exp,2022.2.2,Win32,59.07721392,,,,,,,,,,,,,,,,,,masks/mask_004.jpg,,,,,,,,,,,,,,,,,,,,,,,,,,,,,,,,,,,,,,,,,,0,1,1,3,1,,,,,,,,,,,,,,,,,,,,,,,,,,,,,,,,,,,,,,,,,,,,,,
368107,001,2022-11-21_02h00.27.624,Info_measure_main_exp,2022.2.2,Win32,59.07721392,,,,,,,,,,,,,,,,,,masks/mask_001.jpg,,,,,,,,,,,,,,,,,,,,,,,,,,,,,,,,,,,,,,,,,,0,2,2,0,1,,,,,,,,,,,,,,,,,,,,,,,,,,,,,,,,,,,,,,,,,,,,,,
368107,001,2022-11-21_02h00.27.624,Info_measure_main_exp,2022.2.2,Win32,59.07721392,,,,,,,,,,,,,,,,,,masks/mask_003.jpg,,,,,,,,,,,,,,,,,,,,,,,,,,,,,,,,,,,,,,,,,,0,3,3,2,1,,,,,,,,,,,,,,,,,,,,,,,,,,,,,,,,,,,,,,,,,,,,,,
368107,001,2022-11-21_02h00.27.624,Info_measure_main_exp,2022.2.2,Win32,59.07721392,,,,,,,,,,,,,,,,,,masks/mask_005.jpg,,,,,,,,,,,,,,,,,,,,,,,,,,,,,,,,,,,,,,,,,,0,4,4,4,1,,,,,,,,,,,,,,,,,,,,,,,,,,,,,,,,,,,,,,,,,,,,,,
368107,001,2022-11-21_02h00.27.624,Info_measure_main_exp,2022.2.2,Win32,59.07721392,,,,,,,,,,,,,,,,,,masks/mask_001.jpg,,,,,,,,,,,,,,,,,,,,,,,,,,,,,,,,,,,,,,,,,,,,,,,0,0,0,0,1,,,,,,,,,,,,,,,,,,,,,,,,,,,,,,,,,,,,,,,,,
368107,001,2022-11-21_02h00.27.624,Info_measure_main_exp,2022.2.2,Win32,59.07721392,,,,,,,,,,,,,,,,,,masks/mask_005.jpg,,,,,,,,,,,,,,,,,,,,,,,,,,,,,,,,,,,,,,,,,,,,,,,0,1,1,4,1,,,,,,,,,,,,,,,,,,,,,,,,,,,,,,,,,,,,,,,,,
368107,001,2022-11-21_02h00.27.624,Info_measure_main_exp,2022.2.2,Win32,59.07721392,,,,,,,,,,,,,,,,,,masks/mask_003.jpg,,,,,,,,,,,,,,,,,,,,,,,,,,,,,,,,,,,,,,,,,,,,,,,0,2,2,2,1,,,,,,,,,,,,,,,,,,,,,,,,,,,,,,,,,,,,,,,,,
368107,001,2022-11-21_02h00.27.624,Info_measure_main_exp,2022.2.2,Win32,59.07721392,,,,,,,,,,,,,,,,,,masks/mask_002.jpg,,,,,,,,,,,,,,,,,,,,,,,,,,,,,,,,,,,,,,,,,,,,,,,0,3,3,1,1,,,,,,,,,,,,,,,,,,,,,,,,,,,,,,,,,,,,,,,,,
368107,001,2022-11-21_02h00.27.624,Info_measure_main_exp,2022.2.2,Win32,59.07721392,,,,,,,,,,,,,,,,,,masks/mask_004.jpg,,,,,,,,,,,,,,,,,,,,,,,,,,,,,,,,,,,,,,,,,,,,,,,0,4,4,3,1,,,,,,,,,,,,,,,,,,,,,,,,,,,,,,,,,,,,,,,,,
368107,001,2022-11-21_02h00.27.624,Info_measure_main_exp,2022.2.2,Win32,59.07721392,,,,,,,,,,,,,,,,,,,,,,,,,,,,,,7,0.6348,1,,,,,,,,,,,,0,131,5,5,2214,2166,absent_patch/patch0002214.jpg,absent_patch/patch0002166.jpg,,,,,,,,,,,,,,,,,,,0.067708333,0.125,1,0,0,response1disk,35,-0.009114583,0.010416667,1,0,0,center_square,0,34,34,109,1,,,,,,,,,,,,,,,,,,,,,,,
