participant,session,date,expName,psychopyVersion,OS,frameRate,space_press_continue.keys,space_press_continue.rt,space_press_continue_2.keys,space_press_continue_2.rt,space_press_continue_3.keys,space_press_continue_3.rt,space_press_continue_4.keys,space_press_continue_4.rt,space_press_continue_5.keys,space_press_continue_5.rt,space_press_continue_6.keys,space_press_continue_6.rt,prac_mask_loop_1.thisRepN,prac_mask_loop_1.thisTrialN,prac_mask_loop_1.thisN,prac_mask_loop_1.thisIndex,prac_mask_loop_1.ran,mask_name,prac_mask_loop_2.thisRepN,prac_mask_loop_2.thisTrialN,prac_mask_loop_2.thisN,prac_mask_loop_2.thisIndex,prac_mask_loop_2.ran,mouse_2.x,mouse_2.y,mouse_2.leftButton,mouse_2.midButton,mouse_2.rightButton,mouse_2.clicked_name,similarity,response_time,Pass,mouse_12.x,mouse_12.y,mouse_12.leftButton,mouse_12.midButton,mouse_12.rightButton,mouse_12.clicked_name,prac_loop.thisRepN,prac_loop.thisTrialN,prac_loop.thisN,prac_loop.thisIndex,prac_loop.ran,Pair_type,Image_num,Patch_1_loc,Patch_2_loc,Patch_1_info,Patch_2_info,Patch_1_name,Patch_2_name,mouse_1.x,mouse_1.y,mouse_1.leftButton,mouse_1.midButton,mouse_1.rightButton,mouse_1.time,mouse_1.clicked_name,space_press_continue_7.keys,space_press_continue_7.rt,mask_loop.thisRepN,mask_loop.thisTrialN,mask_loop.thisN,mask_loop.thisIndex,mask_loop.ran,mask_loop_2.thisRepN,mask_loop_2.thisTrialN,mask_loop_2.thisN,mask_loop_2.thisIndex,mask_loop_2.ran,mouse.x,mouse.y,mouse.leftButton,mouse.midButton,mouse.rightButton,mouse.clicked_name,trialNumber,mouse_11.x,mouse_11.y,mouse_11.leftButton,mouse_11.midButton,mouse_11.rightButton,mouse_11.clicked_name,first_pass_loop.thisRepN,first_pass_loop.thisTrialN,first_pass_loop.thisN,first_pass_loop.thisIndex,first_pass_loop.ran,mask_loop_3.thisRepN,mask_loop_3.thisTrialN,mask_loop_3.thisN,mask_loop_3.thisIndex,mask_loop_3.ran,mask_loop_4.thisRepN,mask_loop_4.thisTrialN,mask_loop_4.thisN,mask_loop_4.thisIndex,mask_loop_4.ran,mouse_3.x,mouse_3.y,mouse_3.leftButton,mouse_3.midButton,mouse_3.rightButton,mouse_3.clicked_name,double_pass_loop.thisRepN,double_pass_loop.thisTrialN,double_pass_loop.thisN,double_pass_loop.thisIndex,double_pass_loop.ran,space_exit.keys,space_exit.rt
374857,001,2022-11-21_24h54.26.484,Info_measure_main_exp,2022.2.2,Win32,7.505479,,,,,,,,,,,,,,,,,,,,,,,,,,,,,,,,,,,,,,,,,,,,,,,,,,,,,,,,,,,,,,,,,,,,,,,,,,,,,,,,,,,,,,,,,,,,,,,,,,,,,,,,,,,,,,,
374857,001,2022-11-21_24h54.26.484,Info_measure_main_exp,2022.2.2,Win32,7.505479,,,,,,,,,,,,,,,,,,,,,,,,,,,,,,,,,,,,,,,,,,,,,,,,,,,,,,,,,,,,,,,,,,,,,,,,,,,,,,,,,,,,,,,,,,,,,,,,,,,,,,,,,,,,,,,
374857,001,2022-11-21_24h54.26.484,Info_measure_main_exp,2022.2.2,Win32,7.505479,space,9.6392,,,,,,,,,,,,,,,,,,,,,,,,,,,,,,,,,,,,,,,,,,,,,,,,,,,,,,,,,,,,,,,,,,,,,,,,,,,,,,,,,,,,,,,,,,,,,,,,,,,,,,,,,,,,,
374857,001,2022-11-21_24h54.26.484,Info_measure_main_exp,2022.2.2,Win32,7.505479,,,space,24.6757,,,,,,,,,,,,,,,,,,,,,,,,,,,,,,,,,,,,,,,,,,,,,,,,,,,,,,,,,,,,,,,,,,,,,,,,,,,,,,,,,,,,,,,,,,,,,,,,,,,,,,,,,,,
374857,001,2022-11-21_24h54.26.484,Info_measure_main_exp,2022.2.2,Win32,7.505479,,,,,space,7.8896,,,,,,,,,,,,,,,,,,,,,,,,,,,,,,,,,,,,,,,,,,,,,,,,,,,,,,,,,,,,,,,,,,,,,,,,,,,,,,,,,,,,,,,,,,,,,,,,,,,,,,,,,
374857,001,2022-11-21_24h54.26.484,Info_measure_main_exp,2022.2.2,Win32,7.505479,,,,,,,space,26.0599,,,,,,,,,,,,,,,,,,,,,,,,,,,,,,,,,,,,,,,,,,,,,,,,,,,,,,,,,,,,,,,,,,,,,,,,,,,,,,,,,,,,,,,,,,,,,,,,,,,,,,,
374857,001,2022-11-21_24h54.26.484,Info_measure_main_exp,2022.2.2,Win32,7.505479,,,,,,,,,space,14.1136,,,,,,,,,,,,,,,,,,,,,,,,,,,,,,,,,,,,,,,,,,,,,,,,,,,,,,,,,,,,,,,,,,,,,,,,,,,,,,,,,,,,,,,,,,,,,,,,,,,,,
374857,001,2022-11-21_24h54.26.484,Info_measure_main_exp,2022.2.2,Win32,7.505479,,,,,,,,,,,space,3.9573,,,,,,,,,,,,,,,,,,,,,,,,,,,,,,,,,,,,,,,,,,,,,,,,,,,,,,,,,,,,,,,,,,,,,,,,,,,,,,,,,,,,,,,,,,,,,,,,,,,
374857,001,2022-11-21_24h54.26.484,Info_measure_main_exp,2022.2.2,Win32,7.505479,,,,,,,,,,,,,0,0,0,4,1,masks/mask_005.jpg,,,,,,,,,,,,,,,,,,,,,,,,,,,,,,,,,,,,,,,,,,,,,,,,,,,,,,,,,,,,,,,,,,,,,,,,,,,,,,,,,,,,,,,,,,,,,
374857,001,2022-11-21_24h54.26.484,Info_measure_main_exp,2022.2.2,Win32,7.505479,,,,,,,,,,,,,0,1,1,0,1,masks/mask_001.jpg,,,,,,,,,,,,,,,,,,,,,,,,,,,,,,,,,,,,,,,,,,,,,,,,,,,,,,,,,,,,,,,,,,,,,,,,,,,,,,,,,,,,,,,,,,,,,
374857,001,2022-11-21_24h54.26.484,Info_measure_main_exp,2022.2.2,Win32,7.505479,,,,,,,,,,,,,0,2,2,1,1,masks/mask_002.jpg,,,,,,,,,,,,,,,,,,,,,,,,,,,,,,,,,,,,,,,,,,,,,,,,,,,,,,,,,,,,,,,,,,,,,,,,,,,,,,,,,,,,,,,,,,,,,
374857,001,2022-11-21_24h54.26.484,Info_measure_main_exp,2022.2.2,Win32,7.505479,,,,,,,,,,,,,0,3,3,3,1,masks/mask_004.jpg,,,,,,,,,,,,,,,,,,,,,,,,,,,,,,,,,,,,,,,,,,,,,,,,,,,,,,,,,,,,,,,,,,,,,,,,,,,,,,,,,,,,,,,,,,,,,
374857,001,2022-11-21_24h54.26.484,Info_measure_main_exp,2022.2.2,Win32,7.505479,,,,,,,,,,,,,0,4,4,2,1,masks/mask_003.jpg,,,,,,,,,,,,,,,,,,,,,,,,,,,,,,,,,,,,,,,,,,,,,,,,,,,,,,,,,,,,,,,,,,,,,,,,,,,,,,,,,,,,,,,,,,,,,
374857,001,2022-11-21_24h54.26.484,Info_measure_main_exp,2022.2.2,Win32,7.505479,,,,,,,,,,,,,,,,,,masks/mask_005.jpg,0,0,0,4,1,,,,,,,,,,,,,,,,,,,,,,,,,,,,,,,,,,,,,,,,,,,,,,,,,,,,,,,,,,,,,,,,,,,,,,,,,,,,,,,,,,,,,,,,
374857,001,2022-11-21_24h54.26.484,Info_measure_main_exp,2022.2.2,Win32,7.505479,,,,,,,,,,,,,,,,,,masks/mask_003.jpg,0,1,1,2,1,,,,,,,,,,,,,,,,,,,,,,,,,,,,,,,,,,,,,,,,,,,,,,,,,,,,,,,,,,,,,,,,,,,,,,,,,,,,,,,,,,,,,,,,
374857,001,2022-11-21_24h54.26.484,Info_measure_main_exp,2022.2.2,Win32,7.505479,,,,,,,,,,,,,,,,,,masks/mask_004.jpg,0,2,2,3,1,,,,,,,,,,,,,,,,,,,,,,,,,,,,,,,,,,,,,,,,,,,,,,,,,,,,,,,,,,,,,,,,,,,,,,,,,,,,,,,,,,,,,,,,
374857,001,2022-11-21_24h54.26.484,Info_measure_main_exp,2022.2.2,Win32,7.505479,,,,,,,,,,,,,,,,,,masks/mask_002.jpg,0,3,3,1,1,,,,,,,,,,,,,,,,,,,,,,,,,,,,,,,,,,,,,,,,,,,,,,,,,,,,,,,,,,,,,,,,,,,,,,,,,,,,,,,,,,,,,,,,
374857,001,2022-11-21_24h54.26.484,Info_measure_main_exp,2022.2.2,Win32,7.505479,,,,,,,,,,,,,,,,,,masks/mask_001.jpg,0,4,4,0,1,,,,,,,,,,,,,,,,,,,,,,,,,,,,,,,,,,,,,,,,,,,,,,,,,,,,,,,,,,,,,,,,,,,,,,,,,,,,,,,,,,,,,,,,
374857,001,2022-11-21_24h54.26.484,Info_measure_main_exp,2022.2.2,Win32,7.505479,,,,,,,,,,,,,,,,,,,,,,,,0.15,0.039814815,1,0,0,response1disk,6,100.8743,1,0.005555556,-0.000925926,1,0,0,center_square,0,0,0,2,1,0,131,5,5,2526,2526,prac_patch/patch0002526.jpg,prac_patch/patch0002526.jpg,,,,,,,,,,,,,,,,,,,,,,,,,,,,,,,,,,,,,,,,,,,,,,,,,,,,,,,,,,,,
374857,001,2022-11-21_24h54.26.484,Info_measure_main_exp,2022.2.2,Win32,7.505479,,,,,,,,,,,,,0,0,0,2,1,masks/mask_003.jpg,,,,,,,,,,,,,,,,,,,,,,,,,,,,,,,,,,,,,,,,,,,,,,,,,,,,,,,,,,,,,,,,,,,,,,,,,,,,,,,,,,,,,,,,,,,,,
374857,001,2022-11-21_24h54.26.484,Info_measure_main_exp,2022.2.2,Win32,7.505479,,,,,,,,,,,,,0,1,1,0,1,masks/mask_001.jpg,,,,,,,,,,,,,,,,,,,,,,,,,,,,,,,,,,,,,,,,,,,,,,,,,,,,,,,,,,,,,,,,,,,,,,,,,,,,,,,,,,,,,,,,,,,,,
374857,001,2022-11-21_24h54.26.484,Info_measure_main_exp,2022.2.2,Win32,7.505479,,,,,,,,,,,,,0,2,2,4,1,masks/mask_005.jpg,,,,,,,,,,,,,,,,,,,,,,,,,,,,,,,,,,,,,,,,,,,,,,,,,,,,,,,,,,,,,,,,,,,,,,,,,,,,,,,,,,,,,,,,,,,,,
374857,001,2022-11-21_24h54.26.484,Info_measure_main_exp,2022.2.2,Win32,7.505479,,,,,,,,,,,,,0,3,3,1,1,masks/mask_002.jpg,,,,,,,,,,,,,,,,,,,,,,,,,,,,,,,,,,,,,,,,,,,,,,,,,,,,,,,,,,,,,,,,,,,,,,,,,,,,,,,,,,,,,,,,,,,,,
374857,001,2022-11-21_24h54.26.484,Info_measure_main_exp,2022.2.2,Win32,7.505479,,,,,,,,,,,,,0,4,4,3,1,masks/mask_004.jpg,,,,,,,,,,,,,,,,,,,,,,,,,,,,,,,,,,,,,,,,,,,,,,,,,,,,,,,,,,,,,,,,,,,,,,,,,,,,,,,,,,,,,,,,,,,,,
374857,001,2022-11-21_24h54.26.484,Info_measure_main_exp,2022.2.2,Win32,7.505479,,,,,,,,,,,,,,,,,,masks/mask_001.jpg,0,0,0,0,1,,,,,,,,,,,,,,,,,,,,,,,,,,,,,,,,,,,,,,,,,,,,,,,,,,,,,,,,,,,,,,,,,,,,,,,,,,,,,,,,,,,,,,,,
374857,001,2022-11-21_24h54.26.484,Info_measure_main_exp,2022.2.2,Win32,7.505479,,,,,,,,,,,,,,,,,,masks/mask_004.jpg,0,1,1,3,1,,,,,,,,,,,,,,,,,,,,,,,,,,,,,,,,,,,,,,,,,,,,,,,,,,,,,,,,,,,,,,,,,,,,,,,,,,,,,,,,,,,,,,,,
374857,001,2022-11-21_24h54.26.484,Info_measure_main_exp,2022.2.2,Win32,7.505479,,,,,,,,,,,,,,,,,,masks/mask_003.jpg,0,2,2,2,1,,,,,,,,,,,,,,,,,,,,,,,,,,,,,,,,,,,,,,,,,,,,,,,,,,,,,,,,,,,,,,,,,,,,,,,,,,,,,,,,,,,,,,,,
374857,001,2022-11-21_24h54.26.484,Info_measure_main_exp,2022.2.2,Win32,7.505479,,,,,,,,,,,,,,,,,,masks/mask_002.jpg,0,3,3,1,1,,,,,,,,,,,,,,,,,,,,,,,,,,,,,,,,,,,,,,,,,,,,,,,,,,,,,,,,,,,,,,,,,,,,,,,,,,,,,,,,,,,,,,,,
374857,001,2022-11-21_24h54.26.484,Info_measure_main_exp,2022.2.2,Win32,7.505479,,,,,,,,,,,,,,,,,,masks/mask_005.jpg,0,4,4,4,1,,,,,,,,,,,,,,,,,,,,,,,,,,,,,,,,,,,,,,,,,,,,,,,,,,,,,,,,,,,,,,,,,,,,,,,,,,,,,,,,,,,,,,,,
374857,001,2022-11-21_24h54.26.484,Info_measure_main_exp,2022.2.2,Win32,7.505479,,,,,,,,,,,,,,,,,,,,,,,,0.112962963,-0.083333333,1,0,0,response3disk,5,114.1911,1,-0.001851852,-0.001851852,1,0,0,center_square,0,1,1,1,1,0,131,5,5,2514,2490,prac_patch/patch0002514.jpg,prac_patch/patch0002490.jpg,,,,,,,,,,,,,,,,,,,,,,,,,,,,,,,,,,,,,,,,,,,,,,,,,,,,,,,,,,,,
374857,001,2022-11-21_24h54.26.484,Info_measure_main_exp,2022.2.2,Win32,7.505479,,,,,,,,,,,,,0,0,0,2,1,masks/mask_003.jpg,,,,,,,,,,,,,,,,,,,,,,,,,,,,,,,,,,,,,,,,,,,,,,,,,,,,,,,,,,,,,,,,,,,,,,,,,,,,,,,,,,,,,,,,,,,,,
374857,001,2022-11-21_24h54.26.484,Info_measure_main_exp,2022.2.2,Win32,7.505479,,,,,,,,,,,,,0,1,1,4,1,masks/mask_005.jpg,,,,,,,,,,,,,,,,,,,,,,,,,,,,,,,,,,,,,,,,,,,,,,,,,,,,,,,,,,,,,,,,,,,,,,,,,,,,,,,,,,,,,,,,,,,,,
374857,001,2022-11-21_24h54.26.484,Info_measure_main_exp,2022.2.2,Win32,7.505479,,,,,,,,,,,,,0,2,2,1,1,masks/mask_002.jpg,,,,,,,,,,,,,,,,,,,,,,,,,,,,,,,,,,,,,,,,,,,,,,,,,,,,,,,,,,,,,,,,,,,,,,,,,,,,,,,,,,,,,,,,,,,,,
374857,001,2022-11-21_24h54.26.484,Info_measure_main_exp,2022.2.2,Win32,7.505479,,,,,,,,,,,,,0,3,3,3,1,masks/mask_004.jpg,,,,,,,,,,,,,,,,,,,,,,,,,,,,,,,,,,,,,,,,,,,,,,,,,,,,,,,,,,,,,,,,,,,,,,,,,,,,,,,,,,,,,,,,,,,,,
374857,001,2022-11-21_24h54.26.484,Info_measure_main_exp,2022.2.2,Win32,7.505479,,,,,,,,,,,,,0,4,4,0,1,masks/mask_001.jpg,,,,,,,,,,,,,,,,,,,,,,,,,,,,,,,,,,,,,,,,,,,,,,,,,,,,,,,,,,,,,,,,,,,,,,,,,,,,,,,,,,,,,,,,,,,,,
374857,001,2022-11-21_24h54.26.484,Info_measure_main_exp,2022.2.2,Win32,7.505479,,,,,,,,,,,,,,,,,,masks/mask_004.jpg,0,0,0,3,1,,,,,,,,,,,,,,,,,,,,,,,,,,,,,,,,,,,,,,,,,,,,,,,,,,,,,,,,,,,,,,,,,,,,,,,,,,,,,,,,,,,,,,,,
374857,001,2022-11-21_24h54.26.484,Info_measure_main_exp,2022.2.2,Win32,7.505479,,,,,,,,,,,,,,,,,,masks/mask_003.jpg,0,1,1,2,1,,,,,,,,,,,,,,,,,,,,,,,,,,,,,,,,,,,,,,,,,,,,,,,,,,,,,,,,,,,,,,,,,,,,,,,,,,,,,,,,,,,,,,,,
374857,001,2022-11-21_24h54.26.484,Info_measure_main_exp,2022.2.2,Win32,7.505479,,,,,,,,,,,,,,,,,,masks/mask_001.jpg,0,2,2,0,1,,,,,,,,,,,,,,,,,,,,,,,,,,,,,,,,,,,,,,,,,,,,,,,,,,,,,,,,,,,,,,,,,,,,,,,,,,,,,,,,,,,,,,,,
374857,001,2022-11-21_24h54.26.484,Info_measure_main_exp,2022.2.2,Win32,7.505479,,,,,,,,,,,,,,,,,,masks/mask_002.jpg,0,3,3,1,1,,,,,,,,,,,,,,,,,,,,,,,,,,,,,,,,,,,,,,,,,,,,,,,,,,,,,,,,,,,,,,,,,,,,,,,,,,,,,,,,,,,,,,,,
374857,001,2022-11-21_24h54.26.484,Info_measure_main_exp,2022.2.2,Win32,7.505479,,,,,,,,,,,,,,,,,,masks/mask_005.jpg,0,4,4,4,1,,,,,,,,,,,,,,,,,,,,,,,,,,,,,,,,,,,,,,,,,,,,,,,,,,,,,,,,,,,,,,,,,,,,,,,,,,,,,,,,,,,,,,,,
374857,001,2022-11-21_24h54.26.484,Info_measure_main_exp,2022.2.2,Win32,7.505479,,,,,,,,,,,,,,,,,,,,,,,,-0.059259259,-0.172222222,1,0,0,response5disk,3,136.4709,1,-0.002777778,0.009259259,1,0,0,center_square,0,2,2,0,1,0,131,5,5,2370,2406,prac_patch/patch0002370.jpg,prac_patch/patch0002406.jpg,,,,,,,,,,,,,,,,,,,,,,,,,,,,,,,,,,,,,,,,,,,,,,,,,,,,,,,,,,,,
374857,001,2022-11-21_24h54.26.484,Info_measure_main_exp,2022.2.2,Win32,7.505479,,,,,,,,,,,,,,,,,,,,,,,,,,,,,,,,,,,,,,,,,,,,,,,,,,,,,,,,,,,space,42.0828,,,,,,,,,,,,,,,,,,,,,,,,,,,,,,,,,,,,,,,,,,,,,,,,,,,
374857,001,2022-11-21_24h54.26.484,Info_measure_main_exp,2022.2.2,Win32,7.505479,,,,,,,,,,,,,,,,,,masks/mask_004.jpg,,,,,,,,,,,,,,,,,,,,,,,,,,,,,,,,,,,,,,,,,,,0,0,0,3,1,,,,,,,,,,,,,,,,,,,,,,,,,,,,,,,,,,,,,,,,,,,,,,
374857,001,2022-11-21_24h54.26.484,Info_measure_main_exp,2022.2.2,Win32,7.505479,,,,,,,,,,,,,,,,,,masks/mask_005.jpg,,,,,,,,,,,,,,,,,,,,,,,,,,,,,,,,,,,,,,,,,,,0,1,1,4,1,,,,,,,,,,,,,,,,,,,,,,,,,,,,,,,,,,,,,,,,,,,,,,
374857,001,2022-11-21_24h54.26.484,Info_measure_main_exp,2022.2.2,Win32,7.505479,,,,,,,,,,,,,,,,,,masks/mask_001.jpg,,,,,,,,,,,,,,,,,,,,,,,,,,,,,,,,,,,,,,,,,,,0,2,2,0,1,,,,,,,,,,,,,,,,,,,,,,,,,,,,,,,,,,,,,,,,,,,,,,
374857,001,2022-11-21_24h54.26.484,Info_measure_main_exp,2022.2.2,Win32,7.505479,,,,,,,,,,,,,,,,,,masks/mask_003.jpg,,,,,,,,,,,,,,,,,,,,,,,,,,,,,,,,,,,,,,,,,,,0,3,3,2,1,,,,,,,,,,,,,,,,,,,,,,,,,,,,,,,,,,,,,,,,,,,,,,
374857,001,2022-11-21_24h54.26.484,Info_measure_main_exp,2022.2.2,Win32,7.505479,,,,,,,,,,,,,,,,,,masks/mask_002.jpg,,,,,,,,,,,,,,,,,,,,,,,,,,,,,,,,,,,,,,,,,,,0,4,4,1,1,,,,,,,,,,,,,,,,,,,,,,,,,,,,,,,,,,,,,,,,,,,,,,
374857,001,2022-11-21_24h54.26.484,Info_measure_main_exp,2022.2.2,Win32,7.505479,,,,,,,,,,,,,,,,,,masks/mask_004.jpg,,,,,,,,,,,,,,,,,,,,,,,,,,,,,,,,,,,,,,,,,,,,,,,,0,0,0,3,1,,,,,,,,,,,,,,,,,,,,,,,,,,,,,,,,,,,,,,,,,
374857,001,2022-11-21_24h54.26.484,Info_measure_main_exp,2022.2.2,Win32,7.505479,,,,,,,,,,,,,,,,,,masks/mask_001.jpg,,,,,,,,,,,,,,,,,,,,,,,,,,,,,,,,,,,,,,,,,,,,,,,,0,1,1,0,1,,,,,,,,,,,,,,,,,,,,,,,,,,,,,,,,,,,,,,,,,
374857,001,2022-11-21_24h54.26.484,Info_measure_main_exp,2022.2.2,Win32,7.505479,,,,,,,,,,,,,,,,,,masks/mask_005.jpg,,,,,,,,,,,,,,,,,,,,,,,,,,,,,,,,,,,,,,,,,,,,,,,,0,2,2,4,1,,,,,,,,,,,,,,,,,,,,,,,,,,,,,,,,,,,,,,,,,
374857,001,2022-11-21_24h54.26.484,Info_measure_main_exp,2022.2.2,Win32,7.505479,,,,,,,,,,,,,,,,,,masks/mask_002.jpg,,,,,,,,,,,,,,,,,,,,,,,,,,,,,,,,,,,,,,,,,,,,,,,,0,3,3,1,1,,,,,,,,,,,,,,,,,,,,,,,,,,,,,,,,,,,,,,,,,
374857,001,2022-11-21_24h54.26.484,Info_measure_main_exp,2022.2.2,Win32,7.505479,,,,,,,,,,,,,,,,,,masks/mask_003.jpg,,,,,,,,,,,,,,,,,,,,,,,,,,,,,,,,,,,,,,,,,,,,,,,,0,4,4,2,1,,,,,,,,,,,,,,,,,,,,,,,,,,,,,,,,,,,,,,,,,
374857,001,2022-11-21_24h54.26.484,Info_measure_main_exp,2022.2.2,Win32,7.505479,,,,,,,,,,,,,,,,,,,,,,,,,,,,,,5,3.3902,1,,,,,,,,,,,,0,131,5,5,1950,1950,absent_patch/patch0001950.jpg,absent_patch/patch0001950.jpg,,,,,,,,,,,,,,,,,,,,0.062962963,-0.050925926,1,0,0,response3disk,1,-0.001851852,0.003703704,1,0,0,center_square,0,0,0,92,1,,,,,,,,,,,,,,,,,,,,,,,
374857,001,2022-11-21_24h54.26.484,Info_measure_main_exp,2022.2.2,Win32,7.505479,,,,,,,,,,,,,,,,,,masks/mask_002.jpg,,,,,,,,,,,,,,,,,,,,,,,,,,,,,,,,,,,,,,,,,,,0,0,0,1,1,,,,,,,,,,,,,,,,,,,,,,,,,,,,,,,,,,,,,,,,,,,,,,
374857,001,2022-11-21_24h54.26.484,Info_measure_main_exp,2022.2.2,Win32,7.505479,,,,,,,,,,,,,,,,,,masks/mask_005.jpg,,,,,,,,,,,,,,,,,,,,,,,,,,,,,,,,,,,,,,,,,,,0,1,1,4,1,,,,,,,,,,,,,,,,,,,,,,,,,,,,,,,,,,,,,,,,,,,,,,
374857,001,2022-11-21_24h54.26.484,Info_measure_main_exp,2022.2.2,Win32,7.505479,,,,,,,,,,,,,,,,,,masks/mask_004.jpg,,,,,,,,,,,,,,,,,,,,,,,,,,,,,,,,,,,,,,,,,,,0,2,2,3,1,,,,,,,,,,,,,,,,,,,,,,,,,,,,,,,,,,,,,,,,,,,,,,
374857,001,2022-11-21_24h54.26.484,Info_measure_main_exp,2022.2.2,Win32,7.505479,,,,,,,,,,,,,,,,,,masks/mask_001.jpg,,,,,,,,,,,,,,,,,,,,,,,,,,,,,,,,,,,,,,,,,,,0,3,3,0,1,,,,,,,,,,,,,,,,,,,,,,,,,,,,,,,,,,,,,,,,,,,,,,
374857,001,2022-11-21_24h54.26.484,Info_measure_main_exp,2022.2.2,Win32,7.505479,,,,,,,,,,,,,,,,,,masks/mask_003.jpg,,,,,,,,,,,,,,,,,,,,,,,,,,,,,,,,,,,,,,,,,,,0,4,4,2,1,,,,,,,,,,,,,,,,,,,,,,,,,,,,,,,,,,,,,,,,,,,,,,
374857,001,2022-11-21_24h54.26.484,Info_measure_main_exp,2022.2.2,Win32,7.505479,,,,,,,,,,,,,,,,,,masks/mask_005.jpg,,,,,,,,,,,,,,,,,,,,,,,,,,,,,,,,,,,,,,,,,,,,,,,,0,0,0,4,1,,,,,,,,,,,,,,,,,,,,,,,,,,,,,,,,,,,,,,,,,
374857,001,2022-11-21_24h54.26.484,Info_measure_main_exp,2022.2.2,Win32,7.505479,,,,,,,,,,,,,,,,,,masks/mask_003.jpg,,,,,,,,,,,,,,,,,,,,,,,,,,,,,,,,,,,,,,,,,,,,,,,,0,1,1,2,1,,,,,,,,,,,,,,,,,,,,,,,,,,,,,,,,,,,,,,,,,
374857,001,2022-11-21_24h54.26.484,Info_measure_main_exp,2022.2.2,Win32,7.505479,,,,,,,,,,,,,,,,,,masks/mask_004.jpg,,,,,,,,,,,,,,,,,,,,,,,,,,,,,,,,,,,,,,,,,,,,,,,,0,2,2,3,1,,,,,,,,,,,,,,,,,,,,,,,,,,,,,,,,,,,,,,,,,
374857,001,2022-11-21_24h54.26.484,Info_measure_main_exp,2022.2.2,Win32,7.505479,,,,,,,,,,,,,,,,,,masks/mask_002.jpg,,,,,,,,,,,,,,,,,,,,,,,,,,,,,,,,,,,,,,,,,,,,,,,,0,3,3,1,1,,,,,,,,,,,,,,,,,,,,,,,,,,,,,,,,,,,,,,,,,
374857,001,2022-11-21_24h54.26.484,Info_measure_main_exp,2022.2.2,Win32,7.505479,,,,,,,,,,,,,,,,,,masks/mask_001.jpg,,,,,,,,,,,,,,,,,,,,,,,,,,,,,,,,,,,,,,,,,,,,,,,,0,4,4,0,1,,,,,,,,,,,,,,,,,,,,,,,,,,,,,,,,,,,,,,,,,
374857,001,2022-11-21_24h54.26.484,Info_measure_main_exp,2022.2.2,Win32,7.505479,,,,,,,,,,,,,,,,,,,,,,,,,,,,,,6,2.1092,1,,,,,,,,,,,,0,131,5,5,2250,2166,absent_patch/patch0002250.jpg,absent_patch/patch0002166.jpg,,,,,,,,,,,,,,,,,,,,0.07962963,0.05,1,0,0,response1disk,2,0.005555556,0.005555556,1,0,0,center_square,0,1,1,60,1,,,,,,,,,,,,,,,,,,,,,,,
374857,001,2022-11-21_24h54.26.484,Info_measure_main_exp,2022.2.2,Win32,7.505479,,,,,,,,,,,,,,,,,,masks/mask_002.jpg,,,,,,,,,,,,,,,,,,,,,,,,,,,,,,,,,,,,,,,,,,,0,0,0,1,1,,,,,,,,,,,,,,,,,,,,,,,,,,,,,,,,,,,,,,,,,,,,,,
374857,001,2022-11-21_24h54.26.484,Info_measure_main_exp,2022.2.2,Win32,7.505479,,,,,,,,,,,,,,,,,,masks/mask_004.jpg,,,,,,,,,,,,,,,,,,,,,,,,,,,,,,,,,,,,,,,,,,,0,1,1,3,1,,,,,,,,,,,,,,,,,,,,,,,,,,,,,,,,,,,,,,,,,,,,,,
374857,001,2022-11-21_24h54.26.484,Info_measure_main_exp,2022.2.2,Win32,7.505479,,,,,,,,,,,,,,,,,,masks/mask_005.jpg,,,,,,,,,,,,,,,,,,,,,,,,,,,,,,,,,,,,,,,,,,,0,2,2,4,1,,,,,,,,,,,,,,,,,,,,,,,,,,,,,,,,,,,,,,,,,,,,,,
374857,001,2022-11-21_24h54.26.484,Info_measure_main_exp,2022.2.2,Win32,7.505479,,,,,,,,,,,,,,,,,,masks/mask_001.jpg,,,,,,,,,,,,,,,,,,,,,,,,,,,,,,,,,,,,,,,,,,,0,3,3,0,1,,,,,,,,,,,,,,,,,,,,,,,,,,,,,,,,,,,,,,,,,,,,,,
374857,001,2022-11-21_24h54.26.484,Info_measure_main_exp,2022.2.2,Win32,7.505479,,,,,,,,,,,,,,,,,,masks/mask_003.jpg,,,,,,,,,,,,,,,,,,,,,,,,,,,,,,,,,,,,,,,,,,,0,4,4,2,1,,,,,,,,,,,,,,,,,,,,,,,,,,,,,,,,,,,,,,,,,,,,,,
374857,001,2022-11-21_24h54.26.484,Info_measure_main_exp,2022.2.2,Win32,7.505479,,,,,,,,,,,,,,,,,,masks/mask_005.jpg,,,,,,,,,,,,,,,,,,,,,,,,,,,,,,,,,,,,,,,,,,,,,,,,0,0,0,4,1,,,,,,,,,,,,,,,,,,,,,,,,,,,,,,,,,,,,,,,,,
374857,001,2022-11-21_24h54.26.484,Info_measure_main_exp,2022.2.2,Win32,7.505479,,,,,,,,,,,,,,,,,,masks/mask_004.jpg,,,,,,,,,,,,,,,,,,,,,,,,,,,,,,,,,,,,,,,,,,,,,,,,0,1,1,3,1,,,,,,,,,,,,,,,,,,,,,,,,,,,,,,,,,,,,,,,,,
374857,001,2022-11-21_24h54.26.484,Info_measure_main_exp,2022.2.2,Win32,7.505479,,,,,,,,,,,,,,,,,,masks/mask_001.jpg,,,,,,,,,,,,,,,,,,,,,,,,,,,,,,,,,,,,,,,,,,,,,,,,0,2,2,0,1,,,,,,,,,,,,,,,,,,,,,,,,,,,,,,,,,,,,,,,,,
374857,001,2022-11-21_24h54.26.484,Info_measure_main_exp,2022.2.2,Win32,7.505479,,,,,,,,,,,,,,,,,,masks/mask_003.jpg,,,,,,,,,,,,,,,,,,,,,,,,,,,,,,,,,,,,,,,,,,,,,,,,0,3,3,2,1,,,,,,,,,,,,,,,,,,,,,,,,,,,,,,,,,,,,,,,,,
374857,001,2022-11-21_24h54.26.484,Info_measure_main_exp,2022.2.2,Win32,7.505479,,,,,,,,,,,,,,,,,,masks/mask_002.jpg,,,,,,,,,,,,,,,,,,,,,,,,,,,,,,,,,,,,,,,,,,,,,,,,0,4,4,1,1,,,,,,,,,,,,,,,,,,,,,,,,,,,,,,,,,,,,,,,,,
374857,001,2022-11-21_24h54.26.484,Info_measure_main_exp,2022.2.2,Win32,7.505479,,,,,,,,,,,,,,,,,,,,,,,,,,,,,,5,2.9557,1,,,,,,,,,,,,1,131,5,5,1,1,present_patch/cong_131_5_a.jpg,present_patch/cong_131_5_a.jpg,,,,,,,,,,,,,,,,,,,,0.102777778,-0.075,1,0,0,response3disk,3,0.00462963,-0.003703704,1,0,0,center_square,0,2,2,30,1,,,,,,,,,,,,,,,,,,,,,,,
374857,001,2022-11-21_24h54.26.484,Info_measure_main_exp,2022.2.2,Win32,7.505479,,,,,,,,,,,,,,,,,,masks/mask_003.jpg,,,,,,,,,,,,,,,,,,,,,,,,,,,,,,,,,,,,,,,,,,,0,0,0,2,1,,,,,,,,,,,,,,,,,,,,,,,,,,,,,,,,,,,,,,,,,,,,,,
374857,001,2022-11-21_24h54.26.484,Info_measure_main_exp,2022.2.2,Win32,7.505479,,,,,,,,,,,,,,,,,,masks/mask_001.jpg,,,,,,,,,,,,,,,,,,,,,,,,,,,,,,,,,,,,,,,,,,,0,1,1,0,1,,,,,,,,,,,,,,,,,,,,,,,,,,,,,,,,,,,,,,,,,,,,,,
374857,001,2022-11-21_24h54.26.484,Info_measure_main_exp,2022.2.2,Win32,7.505479,,,,,,,,,,,,,,,,,,masks/mask_004.jpg,,,,,,,,,,,,,,,,,,,,,,,,,,,,,,,,,,,,,,,,,,,0,2,2,3,1,,,,,,,,,,,,,,,,,,,,,,,,,,,,,,,,,,,,,,,,,,,,,,
374857,001,2022-11-21_24h54.26.484,Info_measure_main_exp,2022.2.2,Win32,7.505479,,,,,,,,,,,,,,,,,,masks/mask_005.jpg,,,,,,,,,,,,,,,,,,,,,,,,,,,,,,,,,,,,,,,,,,,0,3,3,4,1,,,,,,,,,,,,,,,,,,,,,,,,,,,,,,,,,,,,,,,,,,,,,,
374857,001,2022-11-21_24h54.26.484,Info_measure_main_exp,2022.2.2,Win32,7.505479,,,,,,,,,,,,,,,,,,masks/mask_002.jpg,,,,,,,,,,,,,,,,,,,,,,,,,,,,,,,,,,,,,,,,,,,0,4,4,1,1,,,,,,,,,,,,,,,,,,,,,,,,,,,,,,,,,,,,,,,,,,,,,,
374857,001,2022-11-21_24h54.26.484,Info_measure_main_exp,2022.2.2,Win32,7.505479,,,,,,,,,,,,,,,,,,masks/mask_005.jpg,,,,,,,,,,,,,,,,,,,,,,,,,,,,,,,,,,,,,,,,,,,,,,,,0,0,0,4,1,,,,,,,,,,,,,,,,,,,,,,,,,,,,,,,,,,,,,,,,,
374857,001,2022-11-21_24h54.26.484,Info_measure_main_exp,2022.2.2,Win32,7.505479,,,,,,,,,,,,,,,,,,masks/mask_002.jpg,,,,,,,,,,,,,,,,,,,,,,,,,,,,,,,,,,,,,,,,,,,,,,,,0,1,1,1,1,,,,,,,,,,,,,,,,,,,,,,,,,,,,,,,,,,,,,,,,,
374857,001,2022-11-21_24h54.26.484,Info_measure_main_exp,2022.2.2,Win32,7.505479,,,,,,,,,,,,,,,,,,masks/mask_003.jpg,,,,,,,,,,,,,,,,,,,,,,,,,,,,,,,,,,,,,,,,,,,,,,,,0,2,2,2,1,,,,,,,,,,,,,,,,,,,,,,,,,,,,,,,,,,,,,,,,,
374857,001,2022-11-21_24h54.26.484,Info_measure_main_exp,2022.2.2,Win32,7.505479,,,,,,,,,,,,,,,,,,masks/mask_004.jpg,,,,,,,,,,,,,,,,,,,,,,,,,,,,,,,,,,,,,,,,,,,,,,,,0,3,3,3,1,,,,,,,,,,,,,,,,,,,,,,,,,,,,,,,,,,,,,,,,,
374857,001,2022-11-21_24h54.26.484,Info_measure_main_exp,2022.2.2,Win32,7.505479,,,,,,,,,,,,,,,,,,masks/mask_001.jpg,,,,,,,,,,,,,,,,,,,,,,,,,,,,,,,,,,,,,,,,,,,,,,,,0,4,4,0,1,,,,,,,,,,,,,,,,,,,,,,,,,,,,,,,,,,,,,,,,,
374857,001,2022-11-21_24h54.26.484,Info_measure_main_exp,2022.2.2,Win32,7.505479,,,,,,,,,,,,,,,,,,,,,,,,,,,,,,6,1.8958,1,,,,,,,,,,,,0,131,5,5,2274,2250,absent_patch/patch0002274.jpg,absent_patch/patch0002250.jpg,,,,,,,,,,,,,,,,,,,,0.134259259,0.015740741,1,0,0,response1disk,4,-0.010185185,0.001851852,1,0,0,center_square,0,3,3,28,1,,,,,,,,,,,,,,,,,,,,,,,
374857,001,2022-11-21_24h54.26.484,Info_measure_main_exp,2022.2.2,Win32,7.505479,,,,,,,,,,,,,,,,,,masks/mask_003.jpg,,,,,,,,,,,,,,,,,,,,,,,,,,,,,,,,,,,,,,,,,,,0,0,0,2,1,,,,,,,,,,,,,,,,,,,,,,,,,,,,,,,,,,,,,,,,,,,,,,
374857,001,2022-11-21_24h54.26.484,Info_measure_main_exp,2022.2.2,Win32,7.505479,,,,,,,,,,,,,,,,,,masks/mask_005.jpg,,,,,,,,,,,,,,,,,,,,,,,,,,,,,,,,,,,,,,,,,,,0,1,1,4,1,,,,,,,,,,,,,,,,,,,,,,,,,,,,,,,,,,,,,,,,,,,,,,
374857,001,2022-11-21_24h54.26.484,Info_measure_main_exp,2022.2.2,Win32,7.505479,,,,,,,,,,,,,,,,,,masks/mask_004.jpg,,,,,,,,,,,,,,,,,,,,,,,,,,,,,,,,,,,,,,,,,,,0,2,2,3,1,,,,,,,,,,,,,,,,,,,,,,,,,,,,,,,,,,,,,,,,,,,,,,
374857,001,2022-11-21_24h54.26.484,Info_measure_main_exp,2022.2.2,Win32,7.505479,,,,,,,,,,,,,,,,,,masks/mask_002.jpg,,,,,,,,,,,,,,,,,,,,,,,,,,,,,,,,,,,,,,,,,,,0,3,3,1,1,,,,,,,,,,,,,,,,,,,,,,,,,,,,,,,,,,,,,,,,,,,,,,
374857,001,2022-11-21_24h54.26.484,Info_measure_main_exp,2022.2.2,Win32,7.505479,,,,,,,,,,,,,,,,,,masks/mask_001.jpg,,,,,,,,,,,,,,,,,,,,,,,,,,,,,,,,,,,,,,,,,,,0,4,4,0,1,,,,,,,,,,,,,,,,,,,,,,,,,,,,,,,,,,,,,,,,,,,,,,
374857,001,2022-11-21_24h54.26.484,Info_measure_main_exp,2022.2.2,Win32,7.505479,,,,,,,,,,,,,,,,,,masks/mask_005.jpg,,,,,,,,,,,,,,,,,,,,,,,,,,,,,,,,,,,,,,,,,,,,,,,,0,0,0,4,1,,,,,,,,,,,,,,,,,,,,,,,,,,,,,,,,,,,,,,,,,
374857,001,2022-11-21_24h54.26.484,Info_measure_main_exp,2022.2.2,Win32,7.505479,,,,,,,,,,,,,,,,,,masks/mask_002.jpg,,,,,,,,,,,,,,,,,,,,,,,,,,,,,,,,,,,,,,,,,,,,,,,,0,1,1,1,1,,,,,,,,,,,,,,,,,,,,,,,,,,,,,,,,,,,,,,,,,
374857,001,2022-11-21_24h54.26.484,Info_measure_main_exp,2022.2.2,Win32,7.505479,,,,,,,,,,,,,,,,,,masks/mask_004.jpg,,,,,,,,,,,,,,,,,,,,,,,,,,,,,,,,,,,,,,,,,,,,,,,,0,2,2,3,1,,,,,,,,,,,,,,,,,,,,,,,,,,,,,,,,,,,,,,,,,
374857,001,2022-11-21_24h54.26.484,Info_measure_main_exp,2022.2.2,Win32,7.505479,,,,,,,,,,,,,,,,,,masks/mask_001.jpg,,,,,,,,,,,,,,,,,,,,,,,,,,,,,,,,,,,,,,,,,,,,,,,,0,3,3,0,1,,,,,,,,,,,,,,,,,,,,,,,,,,,,,,,,,,,,,,,,,
374857,001,2022-11-21_24h54.26.484,Info_measure_main_exp,2022.2.2,Win32,7.505479,,,,,,,,,,,,,,,,,,masks/mask_003.jpg,,,,,,,,,,,,,,,,,,,,,,,,,,,,,,,,,,,,,,,,,,,,,,,,0,4,4,2,1,,,,,,,,,,,,,,,,,,,,,,,,,,,,,,,,,,,,,,,,,
374857,001,2022-11-21_24h54.26.484,Info_measure_main_exp,2022.2.2,Win32,7.505479,,,,,,,,,,,,,,,,,,,,,,,,,,,,,,4,2.837,1,,,,,,,,,,,,0,131,5,5,2142,2154,absent_patch/patch0002142.jpg,absent_patch/patch0002154.jpg,,,,,,,,,,,,,,,,,,,,0.083333333,-0.161111111,1,0,0,response3disk,5,-0.006481481,0.012962963,1,0,0,center_square,0,4,4,9,1,,,,,,,,,,,,,,,,,,,,,,,
374857,001,2022-11-21_24h54.26.484,Info_measure_main_exp,2022.2.2,Win32,7.505479,,,,,,,,,,,,,,,,,,masks/mask_001.jpg,,,,,,,,,,,,,,,,,,,,,,,,,,,,,,,,,,,,,,,,,,,0,0,0,0,1,,,,,,,,,,,,,,,,,,,,,,,,,,,,,,,,,,,,,,,,,,,,,,
374857,001,2022-11-21_24h54.26.484,Info_measure_main_exp,2022.2.2,Win32,7.505479,,,,,,,,,,,,,,,,,,masks/mask_003.jpg,,,,,,,,,,,,,,,,,,,,,,,,,,,,,,,,,,,,,,,,,,,0,1,1,2,1,,,,,,,,,,,,,,,,,,,,,,,,,,,,,,,,,,,,,,,,,,,,,,
374857,001,2022-11-21_24h54.26.484,Info_measure_main_exp,2022.2.2,Win32,7.505479,,,,,,,,,,,,,,,,,,masks/mask_002.jpg,,,,,,,,,,,,,,,,,,,,,,,,,,,,,,,,,,,,,,,,,,,0,2,2,1,1,,,,,,,,,,,,,,,,,,,,,,,,,,,,,,,,,,,,,,,,,,,,,,
374857,001,2022-11-21_24h54.26.484,Info_measure_main_exp,2022.2.2,Win32,7.505479,,,,,,,,,,,,,,,,,,masks/mask_004.jpg,,,,,,,,,,,,,,,,,,,,,,,,,,,,,,,,,,,,,,,,,,,0,3,3,3,1,,,,,,,,,,,,,,,,,,,,,,,,,,,,,,,,,,,,,,,,,,,,,,
374857,001,2022-11-21_24h54.26.484,Info_measure_main_exp,2022.2.2,Win32,7.505479,,,,,,,,,,,,,,,,,,masks/mask_005.jpg,,,,,,,,,,,,,,,,,,,,,,,,,,,,,,,,,,,,,,,,,,,0,4,4,4,1,,,,,,,,,,,,,,,,,,,,,,,,,,,,,,,,,,,,,,,,,,,,,,
374857,001,2022-11-21_24h54.26.484,Info_measure_main_exp,2022.2.2,Win32,7.505479,,,,,,,,,,,,,,,,,,masks/mask_003.jpg,,,,,,,,,,,,,,,,,,,,,,,,,,,,,,,,,,,,,,,,,,,,,,,,0,0,0,2,1,,,,,,,,,,,,,,,,,,,,,,,,,,,,,,,,,,,,,,,,,
374857,001,2022-11-21_24h54.26.484,Info_measure_main_exp,2022.2.2,Win32,7.505479,,,,,,,,,,,,,,,,,,masks/mask_005.jpg,,,,,,,,,,,,,,,,,,,,,,,,,,,,,,,,,,,,,,,,,,,,,,,,0,1,1,4,1,,,,,,,,,,,,,,,,,,,,,,,,,,,,,,,,,,,,,,,,,
374857,001,2022-11-21_24h54.26.484,Info_measure_main_exp,2022.2.2,Win32,7.505479,,,,,,,,,,,,,,,,,,masks/mask_001.jpg,,,,,,,,,,,,,,,,,,,,,,,,,,,,,,,,,,,,,,,,,,,,,,,,0,2,2,0,1,,,,,,,,,,,,,,,,,,,,,,,,,,,,,,,,,,,,,,,,,
374857,001,2022-11-21_24h54.26.484,Info_measure_main_exp,2022.2.2,Win32,7.505479,,,,,,,,,,,,,,,,,,masks/mask_002.jpg,,,,,,,,,,,,,,,,,,,,,,,,,,,,,,,,,,,,,,,,,,,,,,,,0,3,3,1,1,,,,,,,,,,,,,,,,,,,,,,,,,,,,,,,,,,,,,,,,,
374857,001,2022-11-21_24h54.26.484,Info_measure_main_exp,2022.2.2,Win32,7.505479,,,,,,,,,,,,,,,,,,masks/mask_004.jpg,,,,,,,,,,,,,,,,,,,,,,,,,,,,,,,,,,,,,,,,,,,,,,,,0,4,4,3,1,,,,,,,,,,,,,,,,,,,,,,,,,,,,,,,,,,,,,,,,,
374857,001,2022-11-21_24h54.26.484,Info_measure_main_exp,2022.2.2,Win32,7.505479,,,,,,,,,,,,,,,,,,,,,,,,,,,,,,3,2.9886,1,,,,,,,,,,,,0,131,5,5,2082,2250,absent_patch/patch0002082.jpg,absent_patch/patch0002250.jpg,,,,,,,,,,,,,,,,,,,,-0.068518519,-0.113888889,1,0,0,response5disk,6,-0.006481481,0.000925926,1,0,0,center_square,0,5,5,3,1,,,,,,,,,,,,,,,,,,,,,,,
374857,001,2022-11-21_24h54.26.484,Info_measure_main_exp,2022.2.2,Win32,7.505479,,,,,,,,,,,,,,,,,,masks/mask_002.jpg,,,,,,,,,,,,,,,,,,,,,,,,,,,,,,,,,,,,,,,,,,,0,0,0,1,1,,,,,,,,,,,,,,,,,,,,,,,,,,,,,,,,,,,,,,,,,,,,,,
374857,001,2022-11-21_24h54.26.484,Info_measure_main_exp,2022.2.2,Win32,7.505479,,,,,,,,,,,,,,,,,,masks/mask_005.jpg,,,,,,,,,,,,,,,,,,,,,,,,,,,,,,,,,,,,,,,,,,,0,1,1,4,1,,,,,,,,,,,,,,,,,,,,,,,,,,,,,,,,,,,,,,,,,,,,,,
374857,001,2022-11-21_24h54.26.484,Info_measure_main_exp,2022.2.2,Win32,7.505479,,,,,,,,,,,,,,,,,,masks/mask_003.jpg,,,,,,,,,,,,,,,,,,,,,,,,,,,,,,,,,,,,,,,,,,,0,2,2,2,1,,,,,,,,,,,,,,,,,,,,,,,,,,,,,,,,,,,,,,,,,,,,,,
374857,001,2022-11-21_24h54.26.484,Info_measure_main_exp,2022.2.2,Win32,7.505479,,,,,,,,,,,,,,,,,,masks/mask_004.jpg,,,,,,,,,,,,,,,,,,,,,,,,,,,,,,,,,,,,,,,,,,,0,3,3,3,1,,,,,,,,,,,,,,,,,,,,,,,,,,,,,,,,,,,,,,,,,,,,,,
374857,001,2022-11-21_24h54.26.484,Info_measure_main_exp,2022.2.2,Win32,7.505479,,,,,,,,,,,,,,,,,,masks/mask_001.jpg,,,,,,,,,,,,,,,,,,,,,,,,,,,,,,,,,,,,,,,,,,,0,4,4,0,1,,,,,,,,,,,,,,,,,,,,,,,,,,,,,,,,,,,,,,,,,,,,,,
374857,001,2022-11-21_24h54.26.484,Info_measure_main_exp,2022.2.2,Win32,7.505479,,,,,,,,,,,,,,,,,,masks/mask_005.jpg,,,,,,,,,,,,,,,,,,,,,,,,,,,,,,,,,,,,,,,,,,,,,,,,0,0,0,4,1,,,,,,,,,,,,,,,,,,,,,,,,,,,,,,,,,,,,,,,,,
374857,001,2022-11-21_24h54.26.484,Info_measure_main_exp,2022.2.2,Win32,7.505479,,,,,,,,,,,,,,,,,,masks/mask_002.jpg,,,,,,,,,,,,,,,,,,,,,,,,,,,,,,,,,,,,,,,,,,,,,,,,0,1,1,1,1,,,,,,,,,,,,,,,,,,,,,,,,,,,,,,,,,,,,,,,,,
374857,001,2022-11-21_24h54.26.484,Info_measure_main_exp,2022.2.2,Win32,7.505479,,,,,,,,,,,,,,,,,,masks/mask_001.jpg,,,,,,,,,,,,,,,,,,,,,,,,,,,,,,,,,,,,,,,,,,,,,,,,0,2,2,0,1,,,,,,,,,,,,,,,,,,,,,,,,,,,,,,,,,,,,,,,,,
374857,001,2022-11-21_24h54.26.484,Info_measure_main_exp,2022.2.2,Win32,7.505479,,,,,,,,,,,,,,,,,,masks/mask_003.jpg,,,,,,,,,,,,,,,,,,,,,,,,,,,,,,,,,,,,,,,,,,,,,,,,0,3,3,2,1,,,,,,,,,,,,,,,,,,,,,,,,,,,,,,,,,,,,,,,,,
374857,001,2022-11-21_24h54.26.484,Info_measure_main_exp,2022.2.2,Win32,7.505479,,,,,,,,,,,,,,,,,,masks/mask_004.jpg,,,,,,,,,,,,,,,,,,,,,,,,,,,,,,,,,,,,,,,,,,,,,,,,0,4,4,3,1,,,,,,,,,,,,,,,,,,,,,,,,,,,,,,,,,,,,,,,,,
374857,001,2022-11-21_24h54.26.484,Info_measure_main_exp,2022.2.2,Win32,7.505479,,,,,,,,,,,,,,,,,,,,,,,,,,,,,,0,3.5227,1,,,,,,,,,,,,0,131,5,5,1950,2082,absent_patch/patch0001950.jpg,absent_patch/patch0002082.jpg,,,,,,,,,,,,,,,,,,,,-0.068518519,0.137962963,1,0,0,response7disk,7,-0.00462963,0.002777778,1,0,0,center_square,0,6,6,12,1,,,,,,,,,,,,,,,,,,,,,,,
374857,001,2022-11-21_24h54.26.484,Info_measure_main_exp,2022.2.2,Win32,7.505479,,,,,,,,,,,,,,,,,,masks/mask_004.jpg,,,,,,,,,,,,,,,,,,,,,,,,,,,,,,,,,,,,,,,,,,,0,0,0,3,1,,,,,,,,,,,,,,,,,,,,,,,,,,,,,,,,,,,,,,,,,,,,,,
374857,001,2022-11-21_24h54.26.484,Info_measure_main_exp,2022.2.2,Win32,7.505479,,,,,,,,,,,,,,,,,,masks/mask_005.jpg,,,,,,,,,,,,,,,,,,,,,,,,,,,,,,,,,,,,,,,,,,,0,1,1,4,1,,,,,,,,,,,,,,,,,,,,,,,,,,,,,,,,,,,,,,,,,,,,,,
374857,001,2022-11-21_24h54.26.484,Info_measure_main_exp,2022.2.2,Win32,7.505479,,,,,,,,,,,,,,,,,,masks/mask_002.jpg,,,,,,,,,,,,,,,,,,,,,,,,,,,,,,,,,,,,,,,,,,,0,2,2,1,1,,,,,,,,,,,,,,,,,,,,,,,,,,,,,,,,,,,,,,,,,,,,,,
374857,001,2022-11-21_24h54.26.484,Info_measure_main_exp,2022.2.2,Win32,7.505479,,,,,,,,,,,,,,,,,,masks/mask_001.jpg,,,,,,,,,,,,,,,,,,,,,,,,,,,,,,,,,,,,,,,,,,,0,3,3,0,1,,,,,,,,,,,,,,,,,,,,,,,,,,,,,,,,,,,,,,,,,,,,,,
374857,001,2022-11-21_24h54.26.484,Info_measure_main_exp,2022.2.2,Win32,7.505479,,,,,,,,,,,,,,,,,,masks/mask_003.jpg,,,,,,,,,,,,,,,,,,,,,,,,,,,,,,,,,,,,,,,,,,,0,4,4,2,1,,,,,,,,,,,,,,,,,,,,,,,,,,,,,,,,,,,,,,,,,,,,,,
374857,001,2022-11-21_24h54.26.484,Info_measure_main_exp,2022.2.2,Win32,7.505479,,,,,,,,,,,,,,,,,,masks/mask_004.jpg,,,,,,,,,,,,,,,,,,,,,,,,,,,,,,,,,,,,,,,,,,,,,,,,0,0,0,3,1,,,,,,,,,,,,,,,,,,,,,,,,,,,,,,,,,,,,,,,,,
374857,001,2022-11-21_24h54.26.484,Info_measure_main_exp,2022.2.2,Win32,7.505479,,,,,,,,,,,,,,,,,,masks/mask_001.jpg,,,,,,,,,,,,,,,,,,,,,,,,,,,,,,,,,,,,,,,,,,,,,,,,0,1,1,0,1,,,,,,,,,,,,,,,,,,,,,,,,,,,,,,,,,,,,,,,,,
374857,001,2022-11-21_24h54.26.484,Info_measure_main_exp,2022.2.2,Win32,7.505479,,,,,,,,,,,,,,,,,,masks/mask_002.jpg,,,,,,,,,,,,,,,,,,,,,,,,,,,,,,,,,,,,,,,,,,,,,,,,0,2,2,1,1,,,,,,,,,,,,,,,,,,,,,,,,,,,,,,,,,,,,,,,,,
374857,001,2022-11-21_24h54.26.484,Info_measure_main_exp,2022.2.2,Win32,7.505479,,,,,,,,,,,,,,,,,,masks/mask_003.jpg,,,,,,,,,,,,,,,,,,,,,,,,,,,,,,,,,,,,,,,,,,,,,,,,0,3,3,2,1,,,,,,,,,,,,,,,,,,,,,,,,,,,,,,,,,,,,,,,,,
374857,001,2022-11-21_24h54.26.484,Info_measure_main_exp,2022.2.2,Win32,7.505479,,,,,,,,,,,,,,,,,,masks/mask_005.jpg,,,,,,,,,,,,,,,,,,,,,,,,,,,,,,,,,,,,,,,,,,,,,,,,0,4,4,4,1,,,,,,,,,,,,,,,,,,,,,,,,,,,,,,,,,,,,,,,,,
374857,001,2022-11-21_24h54.26.484,Info_measure_main_exp,2022.2.2,Win32,7.505479,,,,,,,,,,,,,,,,,,,,,,,,,,,,,,5,2.0856,1,,,,,,,,,,,,0,131,5,5,1986,1974,absent_patch/patch0001986.jpg,absent_patch/patch0001974.jpg,,,,,,,,,,,,,,,,,,,,0.096296296,-0.035185185,1,0,0,response3disk,8,-0.008333333,0.000925926,1,0,0,center_square,0,7,7,25,1,,,,,,,,,,,,,,,,,,,,,,,
374857,001,2022-11-21_24h54.26.484,Info_measure_main_exp,2022.2.2,Win32,7.505479,,,,,,,,,,,,,,,,,,masks/mask_002.jpg,,,,,,,,,,,,,,,,,,,,,,,,,,,,,,,,,,,,,,,,,,,0,0,0,1,1,,,,,,,,,,,,,,,,,,,,,,,,,,,,,,,,,,,,,,,,,,,,,,
374857,001,2022-11-21_24h54.26.484,Info_measure_main_exp,2022.2.2,Win32,7.505479,,,,,,,,,,,,,,,,,,masks/mask_005.jpg,,,,,,,,,,,,,,,,,,,,,,,,,,,,,,,,,,,,,,,,,,,0,1,1,4,1,,,,,,,,,,,,,,,,,,,,,,,,,,,,,,,,,,,,,,,,,,,,,,
374857,001,2022-11-21_24h54.26.484,Info_measure_main_exp,2022.2.2,Win32,7.505479,,,,,,,,,,,,,,,,,,masks/mask_004.jpg,,,,,,,,,,,,,,,,,,,,,,,,,,,,,,,,,,,,,,,,,,,0,2,2,3,1,,,,,,,,,,,,,,,,,,,,,,,,,,,,,,,,,,,,,,,,,,,,,,
374857,001,2022-11-21_24h54.26.484,Info_measure_main_exp,2022.2.2,Win32,7.505479,,,,,,,,,,,,,,,,,,masks/mask_001.jpg,,,,,,,,,,,,,,,,,,,,,,,,,,,,,,,,,,,,,,,,,,,0,3,3,0,1,,,,,,,,,,,,,,,,,,,,,,,,,,,,,,,,,,,,,,,,,,,,,,
374857,001,2022-11-21_24h54.26.484,Info_measure_main_exp,2022.2.2,Win32,7.505479,,,,,,,,,,,,,,,,,,masks/mask_003.jpg,,,,,,,,,,,,,,,,,,,,,,,,,,,,,,,,,,,,,,,,,,,0,4,4,2,1,,,,,,,,,,,,,,,,,,,,,,,,,,,,,,,,,,,,,,,,,,,,,,
374857,001,2022-11-21_24h54.26.484,Info_measure_main_exp,2022.2.2,Win32,7.505479,,,,,,,,,,,,,,,,,,masks/mask_004.jpg,,,,,,,,,,,,,,,,,,,,,,,,,,,,,,,,,,,,,,,,,,,,,,,,0,0,0,3,1,,,,,,,,,,,,,,,,,,,,,,,,,,,,,,,,,,,,,,,,,
374857,001,2022-11-21_24h54.26.484,Info_measure_main_exp,2022.2.2,Win32,7.505479,,,,,,,,,,,,,,,,,,masks/mask_001.jpg,,,,,,,,,,,,,,,,,,,,,,,,,,,,,,,,,,,,,,,,,,,,,,,,0,1,1,0,1,,,,,,,,,,,,,,,,,,,,,,,,,,,,,,,,,,,,,,,,,
374857,001,2022-11-21_24h54.26.484,Info_measure_main_exp,2022.2.2,Win32,7.505479,,,,,,,,,,,,,,,,,,masks/mask_003.jpg,,,,,,,,,,,,,,,,,,,,,,,,,,,,,,,,,,,,,,,,,,,,,,,,0,2,2,2,1,,,,,,,,,,,,,,,,,,,,,,,,,,,,,,,,,,,,,,,,,
374857,001,2022-11-21_24h54.26.484,Info_measure_main_exp,2022.2.2,Win32,7.505479,,,,,,,,,,,,,,,,,,masks/mask_005.jpg,,,,,,,,,,,,,,,,,,,,,,,,,,,,,,,,,,,,,,,,,,,,,,,,0,3,3,4,1,,,,,,,,,,,,,,,,,,,,,,,,,,,,,,,,,,,,,,,,,
374857,001,2022-11-21_24h54.26.484,Info_measure_main_exp,2022.2.2,Win32,7.505479,,,,,,,,,,,,,,,,,,masks/mask_002.jpg,,,,,,,,,,,,,,,,,,,,,,,,,,,,,,,,,,,,,,,,,,,,,,,,0,4,4,1,1,,,,,,,,,,,,,,,,,,,,,,,,,,,,,,,,,,,,,,,,,
374857,001,2022-11-21_24h54.26.484,Info_measure_main_exp,2022.2.2,Win32,7.505479,,,,,,,,,,,,,,,,,,,,,,,,,,,,,,5,1.8619,1,,,,,,,,,,,,0,131,5,5,2082,2238,absent_patch/patch0002082.jpg,absent_patch/patch0002238.jpg,,,,,,,,,,,,,,,,,,,,0.066666667,-0.033333333,1,0,0,response3disk,9,0.001851852,0.002777778,1,0,0,center_square,0,8,8,22,1,,,,,,,,,,,,,,,,,,,,,,,
374857,001,2022-11-21_24h54.26.484,Info_measure_main_exp,2022.2.2,Win32,7.505479,,,,,,,,,,,,,,,,,,masks/mask_003.jpg,,,,,,,,,,,,,,,,,,,,,,,,,,,,,,,,,,,,,,,,,,,0,0,0,2,1,,,,,,,,,,,,,,,,,,,,,,,,,,,,,,,,,,,,,,,,,,,,,,
374857,001,2022-11-21_24h54.26.484,Info_measure_main_exp,2022.2.2,Win32,7.505479,,,,,,,,,,,,,,,,,,masks/mask_002.jpg,,,,,,,,,,,,,,,,,,,,,,,,,,,,,,,,,,,,,,,,,,,0,1,1,1,1,,,,,,,,,,,,,,,,,,,,,,,,,,,,,,,,,,,,,,,,,,,,,,
374857,001,2022-11-21_24h54.26.484,Info_measure_main_exp,2022.2.2,Win32,7.505479,,,,,,,,,,,,,,,,,,masks/mask_005.jpg,,,,,,,,,,,,,,,,,,,,,,,,,,,,,,,,,,,,,,,,,,,0,2,2,4,1,,,,,,,,,,,,,,,,,,,,,,,,,,,,,,,,,,,,,,,,,,,,,,
374857,001,2022-11-21_24h54.26.484,Info_measure_main_exp,2022.2.2,Win32,7.505479,,,,,,,,,,,,,,,,,,masks/mask_004.jpg,,,,,,,,,,,,,,,,,,,,,,,,,,,,,,,,,,,,,,,,,,,0,3,3,3,1,,,,,,,,,,,,,,,,,,,,,,,,,,,,,,,,,,,,,,,,,,,,,,
374857,001,2022-11-21_24h54.26.484,Info_measure_main_exp,2022.2.2,Win32,7.505479,,,,,,,,,,,,,,,,,,masks/mask_001.jpg,,,,,,,,,,,,,,,,,,,,,,,,,,,,,,,,,,,,,,,,,,,0,4,4,0,1,,,,,,,,,,,,,,,,,,,,,,,,,,,,,,,,,,,,,,,,,,,,,,
374857,001,2022-11-21_24h54.26.484,Info_measure_main_exp,2022.2.2,Win32,7.505479,,,,,,,,,,,,,,,,,,masks/mask_005.jpg,,,,,,,,,,,,,,,,,,,,,,,,,,,,,,,,,,,,,,,,,,,,,,,,0,0,0,4,1,,,,,,,,,,,,,,,,,,,,,,,,,,,,,,,,,,,,,,,,,
374857,001,2022-11-21_24h54.26.484,Info_measure_main_exp,2022.2.2,Win32,7.505479,,,,,,,,,,,,,,,,,,masks/mask_001.jpg,,,,,,,,,,,,,,,,,,,,,,,,,,,,,,,,,,,,,,,,,,,,,,,,0,1,1,0,1,,,,,,,,,,,,,,,,,,,,,,,,,,,,,,,,,,,,,,,,,
374857,001,2022-11-21_24h54.26.484,Info_measure_main_exp,2022.2.2,Win32,7.505479,,,,,,,,,,,,,,,,,,masks/mask_004.jpg,,,,,,,,,,,,,,,,,,,,,,,,,,,,,,,,,,,,,,,,,,,,,,,,0,2,2,3,1,,,,,,,,,,,,,,,,,,,,,,,,,,,,,,,,,,,,,,,,,
374857,001,2022-11-21_24h54.26.484,Info_measure_main_exp,2022.2.2,Win32,7.505479,,,,,,,,,,,,,,,,,,masks/mask_003.jpg,,,,,,,,,,,,,,,,,,,,,,,,,,,,,,,,,,,,,,,,,,,,,,,,0,3,3,2,1,,,,,,,,,,,,,,,,,,,,,,,,,,,,,,,,,,,,,,,,,
374857,001,2022-11-21_24h54.26.484,Info_measure_main_exp,2022.2.2,Win32,7.505479,,,,,,,,,,,,,,,,,,masks/mask_002.jpg,,,,,,,,,,,,,,,,,,,,,,,,,,,,,,,,,,,,,,,,,,,,,,,,0,4,4,1,1,,,,,,,,,,,,,,,,,,,,,,,,,,,,,,,,,,,,,,,,,
374857,001,2022-11-21_24h54.26.484,Info_measure_main_exp,2022.2.2,Win32,7.505479,,,,,,,,,,,,,,,,,,,,,,,,,,,,,,2,2.0734,1,,,,,,,,,,,,0,131,5,5,2166,1986,absent_patch/patch0002166.jpg,absent_patch/patch0001986.jpg,,,,,,,,,,,,,,,,,,,,-0.1,-0.060185185,1,0,0,response5disk,10,0.014814815,-0.005555556,1,0,0,center_square,0,9,9,47,1,,,,,,,,,,,,,,,,,,,,,,,
374857,001,2022-11-21_24h54.26.484,Info_measure_main_exp,2022.2.2,Win32,7.505479,,,,,,,,,,,,,,,,,,masks/mask_002.jpg,,,,,,,,,,,,,,,,,,,,,,,,,,,,,,,,,,,,,,,,,,,0,0,0,1,1,,,,,,,,,,,,,,,,,,,,,,,,,,,,,,,,,,,,,,,,,,,,,,
374857,001,2022-11-21_24h54.26.484,Info_measure_main_exp,2022.2.2,Win32,7.505479,,,,,,,,,,,,,,,,,,masks/mask_004.jpg,,,,,,,,,,,,,,,,,,,,,,,,,,,,,,,,,,,,,,,,,,,0,1,1,3,1,,,,,,,,,,,,,,,,,,,,,,,,,,,,,,,,,,,,,,,,,,,,,,
374857,001,2022-11-21_24h54.26.484,Info_measure_main_exp,2022.2.2,Win32,7.505479,,,,,,,,,,,,,,,,,,masks/mask_001.jpg,,,,,,,,,,,,,,,,,,,,,,,,,,,,,,,,,,,,,,,,,,,0,2,2,0,1,,,,,,,,,,,,,,,,,,,,,,,,,,,,,,,,,,,,,,,,,,,,,,
374857,001,2022-11-21_24h54.26.484,Info_measure_main_exp,2022.2.2,Win32,7.505479,,,,,,,,,,,,,,,,,,masks/mask_003.jpg,,,,,,,,,,,,,,,,,,,,,,,,,,,,,,,,,,,,,,,,,,,0,3,3,2,1,,,,,,,,,,,,,,,,,,,,,,,,,,,,,,,,,,,,,,,,,,,,,,
374857,001,2022-11-21_24h54.26.484,Info_measure_main_exp,2022.2.2,Win32,7.505479,,,,,,,,,,,,,,,,,,masks/mask_005.jpg,,,,,,,,,,,,,,,,,,,,,,,,,,,,,,,,,,,,,,,,,,,0,4,4,4,1,,,,,,,,,,,,,,,,,,,,,,,,,,,,,,,,,,,,,,,,,,,,,,
374857,001,2022-11-21_24h54.26.484,Info_measure_main_exp,2022.2.2,Win32,7.505479,,,,,,,,,,,,,,,,,,masks/mask_003.jpg,,,,,,,,,,,,,,,,,,,,,,,,,,,,,,,,,,,,,,,,,,,,,,,,0,0,0,2,1,,,,,,,,,,,,,,,,,,,,,,,,,,,,,,,,,,,,,,,,,
374857,001,2022-11-21_24h54.26.484,Info_measure_main_exp,2022.2.2,Win32,7.505479,,,,,,,,,,,,,,,,,,masks/mask_001.jpg,,,,,,,,,,,,,,,,,,,,,,,,,,,,,,,,,,,,,,,,,,,,,,,,0,1,1,0,1,,,,,,,,,,,,,,,,,,,,,,,,,,,,,,,,,,,,,,,,,
374857,001,2022-11-21_24h54.26.484,Info_measure_main_exp,2022.2.2,Win32,7.505479,,,,,,,,,,,,,,,,,,masks/mask_002.jpg,,,,,,,,,,,,,,,,,,,,,,,,,,,,,,,,,,,,,,,,,,,,,,,,0,2,2,1,1,,,,,,,,,,,,,,,,,,,,,,,,,,,,,,,,,,,,,,,,,
374857,001,2022-11-21_24h54.26.484,Info_measure_main_exp,2022.2.2,Win32,7.505479,,,,,,,,,,,,,,,,,,masks/mask_004.jpg,,,,,,,,,,,,,,,,,,,,,,,,,,,,,,,,,,,,,,,,,,,,,,,,0,3,3,3,1,,,,,,,,,,,,,,,,,,,,,,,,,,,,,,,,,,,,,,,,,
374857,001,2022-11-21_24h54.26.484,Info_measure_main_exp,2022.2.2,Win32,7.505479,,,,,,,,,,,,,,,,,,masks/mask_005.jpg,,,,,,,,,,,,,,,,,,,,,,,,,,,,,,,,,,,,,,,,,,,,,,,,0,4,4,4,1,,,,,,,,,,,,,,,,,,,,,,,,,,,,,,,,,,,,,,,,,
374857,001,2022-11-21_24h54.26.484,Info_measure_main_exp,2022.2.2,Win32,7.505479,,,,,,,,,,,,,,,,,,,,,,,,,,,,,,5,0.9549,1,,,,,,,,,,,,0,131,5,5,2250,2298,absent_patch/patch0002250.jpg,absent_patch/patch0002298.jpg,,,,,,,,,,,,,,,,,,,,0.108333333,-0.043518519,1,0,0,response3disk,11,0.006481481,0.002777778,1,0,0,center_square,0,10,10,59,1,,,,,,,,,,,,,,,,,,,,,,,
374857,001,2022-11-21_24h54.26.484,Info_measure_main_exp,2022.2.2,Win32,7.505479,,,,,,,,,,,,,,,,,,masks/mask_002.jpg,,,,,,,,,,,,,,,,,,,,,,,,,,,,,,,,,,,,,,,,,,,0,0,0,1,1,,,,,,,,,,,,,,,,,,,,,,,,,,,,,,,,,,,,,,,,,,,,,,
374857,001,2022-11-21_24h54.26.484,Info_measure_main_exp,2022.2.2,Win32,7.505479,,,,,,,,,,,,,,,,,,masks/mask_001.jpg,,,,,,,,,,,,,,,,,,,,,,,,,,,,,,,,,,,,,,,,,,,0,1,1,0,1,,,,,,,,,,,,,,,,,,,,,,,,,,,,,,,,,,,,,,,,,,,,,,
374857,001,2022-11-21_24h54.26.484,Info_measure_main_exp,2022.2.2,Win32,7.505479,,,,,,,,,,,,,,,,,,masks/mask_005.jpg,,,,,,,,,,,,,,,,,,,,,,,,,,,,,,,,,,,,,,,,,,,0,2,2,4,1,,,,,,,,,,,,,,,,,,,,,,,,,,,,,,,,,,,,,,,,,,,,,,
374857,001,2022-11-21_24h54.26.484,Info_measure_main_exp,2022.2.2,Win32,7.505479,,,,,,,,,,,,,,,,,,masks/mask_004.jpg,,,,,,,,,,,,,,,,,,,,,,,,,,,,,,,,,,,,,,,,,,,0,3,3,3,1,,,,,,,,,,,,,,,,,,,,,,,,,,,,,,,,,,,,,,,,,,,,,,
374857,001,2022-11-21_24h54.26.484,Info_measure_main_exp,2022.2.2,Win32,7.505479,,,,,,,,,,,,,,,,,,masks/mask_003.jpg,,,,,,,,,,,,,,,,,,,,,,,,,,,,,,,,,,,,,,,,,,,0,4,4,2,1,,,,,,,,,,,,,,,,,,,,,,,,,,,,,,,,,,,,,,,,,,,,,,
374857,001,2022-11-21_24h54.26.484,Info_measure_main_exp,2022.2.2,Win32,7.505479,,,,,,,,,,,,,,,,,,masks/mask_004.jpg,,,,,,,,,,,,,,,,,,,,,,,,,,,,,,,,,,,,,,,,,,,,,,,,0,0,0,3,1,,,,,,,,,,,,,,,,,,,,,,,,,,,,,,,,,,,,,,,,,
374857,001,2022-11-21_24h54.26.484,Info_measure_main_exp,2022.2.2,Win32,7.505479,,,,,,,,,,,,,,,,,,masks/mask_002.jpg,,,,,,,,,,,,,,,,,,,,,,,,,,,,,,,,,,,,,,,,,,,,,,,,0,1,1,1,1,,,,,,,,,,,,,,,,,,,,,,,,,,,,,,,,,,,,,,,,,
374857,001,2022-11-21_24h54.26.484,Info_measure_main_exp,2022.2.2,Win32,7.505479,,,,,,,,,,,,,,,,,,masks/mask_001.jpg,,,,,,,,,,,,,,,,,,,,,,,,,,,,,,,,,,,,,,,,,,,,,,,,0,2,2,0,1,,,,,,,,,,,,,,,,,,,,,,,,,,,,,,,,,,,,,,,,,
374857,001,2022-11-21_24h54.26.484,Info_measure_main_exp,2022.2.2,Win32,7.505479,,,,,,,,,,,,,,,,,,masks/mask_003.jpg,,,,,,,,,,,,,,,,,,,,,,,,,,,,,,,,,,,,,,,,,,,,,,,,0,3,3,2,1,,,,,,,,,,,,,,,,,,,,,,,,,,,,,,,,,,,,,,,,,
374857,001,2022-11-21_24h54.26.484,Info_measure_main_exp,2022.2.2,Win32,7.505479,,,,,,,,,,,,,,,,,,masks/mask_005.jpg,,,,,,,,,,,,,,,,,,,,,,,,,,,,,,,,,,,,,,,,,,,,,,,,0,4,4,4,1,,,,,,,,,,,,,,,,,,,,,,,,,,,,,,,,,,,,,,,,,
374857,001,2022-11-21_24h54.26.484,Info_measure_main_exp,2022.2.2,Win32,7.505479,,,,,,,,,,,,,,,,,,,,,,,,,,,,,,7,2.4002,1,,,,,,,,,,,,0,131,5,5,2190,2082,absent_patch/patch0002190.jpg,absent_patch/patch0002082.jpg,,,,,,,,,,,,,,,,,,,,0.072222222,0.178703704,1,0,0,response1disk,12,-0.00462963,-0.001851852,1,0,0,center_square,0,11,11,112,1,,,,,,,,,,,,,,,,,,,,,,,
374857,001,2022-11-21_24h54.26.484,Info_measure_main_exp,2022.2.2,Win32,7.505479,,,,,,,,,,,,,,,,,,masks/mask_004.jpg,,,,,,,,,,,,,,,,,,,,,,,,,,,,,,,,,,,,,,,,,,,0,0,0,3,1,,,,,,,,,,,,,,,,,,,,,,,,,,,,,,,,,,,,,,,,,,,,,,
374857,001,2022-11-21_24h54.26.484,Info_measure_main_exp,2022.2.2,Win32,7.505479,,,,,,,,,,,,,,,,,,masks/mask_002.jpg,,,,,,,,,,,,,,,,,,,,,,,,,,,,,,,,,,,,,,,,,,,0,1,1,1,1,,,,,,,,,,,,,,,,,,,,,,,,,,,,,,,,,,,,,,,,,,,,,,
374857,001,2022-11-21_24h54.26.484,Info_measure_main_exp,2022.2.2,Win32,7.505479,,,,,,,,,,,,,,,,,,masks/mask_005.jpg,,,,,,,,,,,,,,,,,,,,,,,,,,,,,,,,,,,,,,,,,,,0,2,2,4,1,,,,,,,,,,,,,,,,,,,,,,,,,,,,,,,,,,,,,,,,,,,,,,
374857,001,2022-11-21_24h54.26.484,Info_measure_main_exp,2022.2.2,Win32,7.505479,,,,,,,,,,,,,,,,,,masks/mask_003.jpg,,,,,,,,,,,,,,,,,,,,,,,,,,,,,,,,,,,,,,,,,,,0,3,3,2,1,,,,,,,,,,,,,,,,,,,,,,,,,,,,,,,,,,,,,,,,,,,,,,
374857,001,2022-11-21_24h54.26.484,Info_measure_main_exp,2022.2.2,Win32,7.505479,,,,,,,,,,,,,,,,,,masks/mask_001.jpg,,,,,,,,,,,,,,,,,,,,,,,,,,,,,,,,,,,,,,,,,,,0,4,4,0,1,,,,,,,,,,,,,,,,,,,,,,,,,,,,,,,,,,,,,,,,,,,,,,
374857,001,2022-11-21_24h54.26.484,Info_measure_main_exp,2022.2.2,Win32,7.505479,,,,,,,,,,,,,,,,,,masks/mask_003.jpg,,,,,,,,,,,,,,,,,,,,,,,,,,,,,,,,,,,,,,,,,,,,,,,,0,0,0,2,1,,,,,,,,,,,,,,,,,,,,,,,,,,,,,,,,,,,,,,,,,
374857,001,2022-11-21_24h54.26.484,Info_measure_main_exp,2022.2.2,Win32,7.505479,,,,,,,,,,,,,,,,,,masks/mask_001.jpg,,,,,,,,,,,,,,,,,,,,,,,,,,,,,,,,,,,,,,,,,,,,,,,,0,1,1,0,1,,,,,,,,,,,,,,,,,,,,,,,,,,,,,,,,,,,,,,,,,
374857,001,2022-11-21_24h54.26.484,Info_measure_main_exp,2022.2.2,Win32,7.505479,,,,,,,,,,,,,,,,,,masks/mask_004.jpg,,,,,,,,,,,,,,,,,,,,,,,,,,,,,,,,,,,,,,,,,,,,,,,,0,2,2,3,1,,,,,,,,,,,,,,,,,,,,,,,,,,,,,,,,,,,,,,,,,
374857,001,2022-11-21_24h54.26.484,Info_measure_main_exp,2022.2.2,Win32,7.505479,,,,,,,,,,,,,,,,,,masks/mask_002.jpg,,,,,,,,,,,,,,,,,,,,,,,,,,,,,,,,,,,,,,,,,,,,,,,,0,3,3,1,1,,,,,,,,,,,,,,,,,,,,,,,,,,,,,,,,,,,,,,,,,
374857,001,2022-11-21_24h54.26.484,Info_measure_main_exp,2022.2.2,Win32,7.505479,,,,,,,,,,,,,,,,,,masks/mask_005.jpg,,,,,,,,,,,,,,,,,,,,,,,,,,,,,,,,,,,,,,,,,,,,,,,,0,4,4,4,1,,,,,,,,,,,,,,,,,,,,,,,,,,,,,,,,,,,,,,,,,
374857,001,2022-11-21_24h54.26.484,Info_measure_main_exp,2022.2.2,Win32,7.505479,,,,,,,,,,,,,,,,,,,,,,,,,,,,,,6,4.0927,1,,,,,,,,,,,,0,131,5,5,1986,1950,absent_patch/patch0001986.jpg,absent_patch/patch0001950.jpg,,,,,,,,,,,,,,,,,,,,0.137962963,0.022222222,1,0,0,response1disk,13,-0.00462963,-0.001851852,1,0,0,center_square,0,12,12,15,1,,,,,,,,,,,,,,,,,,,,,,,
374857,001,2022-11-21_24h54.26.484,Info_measure_main_exp,2022.2.2,Win32,7.505479,,,,,,,,,,,,,,,,,,masks/mask_001.jpg,,,,,,,,,,,,,,,,,,,,,,,,,,,,,,,,,,,,,,,,,,,0,0,0,0,1,,,,,,,,,,,,,,,,,,,,,,,,,,,,,,,,,,,,,,,,,,,,,,
374857,001,2022-11-21_24h54.26.484,Info_measure_main_exp,2022.2.2,Win32,7.505479,,,,,,,,,,,,,,,,,,masks/mask_002.jpg,,,,,,,,,,,,,,,,,,,,,,,,,,,,,,,,,,,,,,,,,,,0,1,1,1,1,,,,,,,,,,,,,,,,,,,,,,,,,,,,,,,,,,,,,,,,,,,,,,
374857,001,2022-11-21_24h54.26.484,Info_measure_main_exp,2022.2.2,Win32,7.505479,,,,,,,,,,,,,,,,,,masks/mask_005.jpg,,,,,,,,,,,,,,,,,,,,,,,,,,,,,,,,,,,,,,,,,,,0,2,2,4,1,,,,,,,,,,,,,,,,,,,,,,,,,,,,,,,,,,,,,,,,,,,,,,
374857,001,2022-11-21_24h54.26.484,Info_measure_main_exp,2022.2.2,Win32,7.505479,,,,,,,,,,,,,,,,,,masks/mask_004.jpg,,,,,,,,,,,,,,,,,,,,,,,,,,,,,,,,,,,,,,,,,,,0,3,3,3,1,,,,,,,,,,,,,,,,,,,,,,,,,,,,,,,,,,,,,,,,,,,,,,
374857,001,2022-11-21_24h54.26.484,Info_measure_main_exp,2022.2.2,Win32,7.505479,,,,,,,,,,,,,,,,,,masks/mask_003.jpg,,,,,,,,,,,,,,,,,,,,,,,,,,,,,,,,,,,,,,,,,,,0,4,4,2,1,,,,,,,,,,,,,,,,,,,,,,,,,,,,,,,,,,,,,,,,,,,,,,
374857,001,2022-11-21_24h54.26.484,Info_measure_main_exp,2022.2.2,Win32,7.505479,,,,,,,,,,,,,,,,,,masks/mask_004.jpg,,,,,,,,,,,,,,,,,,,,,,,,,,,,,,,,,,,,,,,,,,,,,,,,0,0,0,3,1,,,,,,,,,,,,,,,,,,,,,,,,,,,,,,,,,,,,,,,,,
374857,001,2022-11-21_24h54.26.484,Info_measure_main_exp,2022.2.2,Win32,7.505479,,,,,,,,,,,,,,,,,,masks/mask_001.jpg,,,,,,,,,,,,,,,,,,,,,,,,,,,,,,,,,,,,,,,,,,,,,,,,0,1,1,0,1,,,,,,,,,,,,,,,,,,,,,,,,,,,,,,,,,,,,,,,,,
374857,001,2022-11-21_24h54.26.484,Info_measure_main_exp,2022.2.2,Win32,7.505479,,,,,,,,,,,,,,,,,,masks/mask_002.jpg,,,,,,,,,,,,,,,,,,,,,,,,,,,,,,,,,,,,,,,,,,,,,,,,0,2,2,1,1,,,,,,,,,,,,,,,,,,,,,,,,,,,,,,,,,,,,,,,,,
374857,001,2022-11-21_24h54.26.484,Info_measure_main_exp,2022.2.2,Win32,7.505479,,,,,,,,,,,,,,,,,,masks/mask_005.jpg,,,,,,,,,,,,,,,,,,,,,,,,,,,,,,,,,,,,,,,,,,,,,,,,0,3,3,4,1,,,,,,,,,,,,,,,,,,,,,,,,,,,,,,,,,,,,,,,,,
374857,001,2022-11-21_24h54.26.484,Info_measure_main_exp,2022.2.2,Win32,7.505479,,,,,,,,,,,,,,,,,,masks/mask_003.jpg,,,,,,,,,,,,,,,,,,,,,,,,,,,,,,,,,,,,,,,,,,,,,,,,0,4,4,2,1,,,,,,,,,,,,,,,,,,,,,,,,,,,,,,,,,,,,,,,,,
374857,001,2022-11-21_24h54.26.484,Info_measure_main_exp,2022.2.2,Win32,7.505479,,,,,,,,,,,,,,,,,,,,,,,,,,,,,,3,4.3072,1,,,,,,,,,,,,0,131,5,5,2178,1986,absent_patch/patch0002178.jpg,absent_patch/patch0001986.jpg,,,,,,,,,,,,,,,,,,,,-0.030555556,-0.135185185,1,0,0,response5disk,14,0,0.006481481,1,0,0,center_square,0,13,13,46,1,,,,,,,,,,,,,,,,,,,,,,,
374857,001,2022-11-21_24h54.26.484,Info_measure_main_exp,2022.2.2,Win32,7.505479,,,,,,,,,,,,,,,,,,masks/mask_003.jpg,,,,,,,,,,,,,,,,,,,,,,,,,,,,,,,,,,,,,,,,,,,0,0,0,2,1,,,,,,,,,,,,,,,,,,,,,,,,,,,,,,,,,,,,,,,,,,,,,,
374857,001,2022-11-21_24h54.26.484,Info_measure_main_exp,2022.2.2,Win32,7.505479,,,,,,,,,,,,,,,,,,masks/mask_005.jpg,,,,,,,,,,,,,,,,,,,,,,,,,,,,,,,,,,,,,,,,,,,0,1,1,4,1,,,,,,,,,,,,,,,,,,,,,,,,,,,,,,,,,,,,,,,,,,,,,,
374857,001,2022-11-21_24h54.26.484,Info_measure_main_exp,2022.2.2,Win32,7.505479,,,,,,,,,,,,,,,,,,masks/mask_001.jpg,,,,,,,,,,,,,,,,,,,,,,,,,,,,,,,,,,,,,,,,,,,0,2,2,0,1,,,,,,,,,,,,,,,,,,,,,,,,,,,,,,,,,,,,,,,,,,,,,,
374857,001,2022-11-21_24h54.26.484,Info_measure_main_exp,2022.2.2,Win32,7.505479,,,,,,,,,,,,,,,,,,masks/mask_002.jpg,,,,,,,,,,,,,,,,,,,,,,,,,,,,,,,,,,,,,,,,,,,0,3,3,1,1,,,,,,,,,,,,,,,,,,,,,,,,,,,,,,,,,,,,,,,,,,,,,,
374857,001,2022-11-21_24h54.26.484,Info_measure_main_exp,2022.2.2,Win32,7.505479,,,,,,,,,,,,,,,,,,masks/mask_004.jpg,,,,,,,,,,,,,,,,,,,,,,,,,,,,,,,,,,,,,,,,,,,0,4,4,3,1,,,,,,,,,,,,,,,,,,,,,,,,,,,,,,,,,,,,,,,,,,,,,,
374857,001,2022-11-21_24h54.26.484,Info_measure_main_exp,2022.2.2,Win32,7.505479,,,,,,,,,,,,,,,,,,masks/mask_001.jpg,,,,,,,,,,,,,,,,,,,,,,,,,,,,,,,,,,,,,,,,,,,,,,,,0,0,0,0,1,,,,,,,,,,,,,,,,,,,,,,,,,,,,,,,,,,,,,,,,,
374857,001,2022-11-21_24h54.26.484,Info_measure_main_exp,2022.2.2,Win32,7.505479,,,,,,,,,,,,,,,,,,masks/mask_004.jpg,,,,,,,,,,,,,,,,,,,,,,,,,,,,,,,,,,,,,,,,,,,,,,,,0,1,1,3,1,,,,,,,,,,,,,,,,,,,,,,,,,,,,,,,,,,,,,,,,,
374857,001,2022-11-21_24h54.26.484,Info_measure_main_exp,2022.2.2,Win32,7.505479,,,,,,,,,,,,,,,,,,masks/mask_003.jpg,,,,,,,,,,,,,,,,,,,,,,,,,,,,,,,,,,,,,,,,,,,,,,,,0,2,2,2,1,,,,,,,,,,,,,,,,,,,,,,,,,,,,,,,,,,,,,,,,,
374857,001,2022-11-21_24h54.26.484,Info_measure_main_exp,2022.2.2,Win32,7.505479,,,,,,,,,,,,,,,,,,masks/mask_005.jpg,,,,,,,,,,,,,,,,,,,,,,,,,,,,,,,,,,,,,,,,,,,,,,,,0,3,3,4,1,,,,,,,,,,,,,,,,,,,,,,,,,,,,,,,,,,,,,,,,,
374857,001,2022-11-21_24h54.26.484,Info_measure_main_exp,2022.2.2,Win32,7.505479,,,,,,,,,,,,,,,,,,masks/mask_002.jpg,,,,,,,,,,,,,,,,,,,,,,,,,,,,,,,,,,,,,,,,,,,,,,,,0,4,4,1,1,,,,,,,,,,,,,,,,,,,,,,,,,,,,,,,,,,,,,,,,,
374857,001,2022-11-21_24h54.26.484,Info_measure_main_exp,2022.2.2,Win32,7.505479,,,,,,,,,,,,,,,,,,,,,,,,,,,,,,6,29.0324,1,,,,,,,,,,,,1,131,5,5,1950,1,absent_patch/patch0001950.jpg,present_patch/cong_131_5_a.jpg,,,,,,,,,,,,,,,,,,,,0.100925926,0.059259259,1,0,0,response1disk,15,0.006481481,0.006481481,1,0,0,center_square,0,14,14,39,1,,,,,,,,,,,,,,,,,,,,,,,
374857,001,2022-11-21_24h54.26.484,Info_measure_main_exp,2022.2.2,Win32,7.505479,,,,,,,,,,,,,,,,,,masks/mask_004.jpg,,,,,,,,,,,,,,,,,,,,,,,,,,,,,,,,,,,,,,,,,,,0,0,0,3,1,,,,,,,,,,,,,,,,,,,,,,,,,,,,,,,,,,,,,,,,,,,,,,
374857,001,2022-11-21_24h54.26.484,Info_measure_main_exp,2022.2.2,Win32,7.505479,,,,,,,,,,,,,,,,,,masks/mask_002.jpg,,,,,,,,,,,,,,,,,,,,,,,,,,,,,,,,,,,,,,,,,,,0,1,1,1,1,,,,,,,,,,,,,,,,,,,,,,,,,,,,,,,,,,,,,,,,,,,,,,
374857,001,2022-11-21_24h54.26.484,Info_measure_main_exp,2022.2.2,Win32,7.505479,,,,,,,,,,,,,,,,,,masks/mask_001.jpg,,,,,,,,,,,,,,,,,,,,,,,,,,,,,,,,,,,,,,,,,,,0,2,2,0,1,,,,,,,,,,,,,,,,,,,,,,,,,,,,,,,,,,,,,,,,,,,,,,
374857,001,2022-11-21_24h54.26.484,Info_measure_main_exp,2022.2.2,Win32,7.505479,,,,,,,,,,,,,,,,,,masks/mask_003.jpg,,,,,,,,,,,,,,,,,,,,,,,,,,,,,,,,,,,,,,,,,,,0,3,3,2,1,,,,,,,,,,,,,,,,,,,,,,,,,,,,,,,,,,,,,,,,,,,,,,
374857,001,2022-11-21_24h54.26.484,Info_measure_main_exp,2022.2.2,Win32,7.505479,,,,,,,,,,,,,,,,,,masks/mask_005.jpg,,,,,,,,,,,,,,,,,,,,,,,,,,,,,,,,,,,,,,,,,,,0,4,4,4,1,,,,,,,,,,,,,,,,,,,,,,,,,,,,,,,,,,,,,,,,,,,,,,
374857,001,2022-11-21_24h54.26.484,Info_measure_main_exp,2022.2.2,Win32,7.505479,,,,,,,,,,,,,,,,,,masks/mask_002.jpg,,,,,,,,,,,,,,,,,,,,,,,,,,,,,,,,,,,,,,,,,,,,,,,,0,0,0,1,1,,,,,,,,,,,,,,,,,,,,,,,,,,,,,,,,,,,,,,,,,
374857,001,2022-11-21_24h54.26.484,Info_measure_main_exp,2022.2.2,Win32,7.505479,,,,,,,,,,,,,,,,,,masks/mask_005.jpg,,,,,,,,,,,,,,,,,,,,,,,,,,,,,,,,,,,,,,,,,,,,,,,,0,1,1,4,1,,,,,,,,,,,,,,,,,,,,,,,,,,,,,,,,,,,,,,,,,
374857,001,2022-11-21_24h54.26.484,Info_measure_main_exp,2022.2.2,Win32,7.505479,,,,,,,,,,,,,,,,,,masks/mask_001.jpg,,,,,,,,,,,,,,,,,,,,,,,,,,,,,,,,,,,,,,,,,,,,,,,,0,2,2,0,1,,,,,,,,,,,,,,,,,,,,,,,,,,,,,,,,,,,,,,,,,
374857,001,2022-11-21_24h54.26.484,Info_measure_main_exp,2022.2.2,Win32,7.505479,,,,,,,,,,,,,,,,,,masks/mask_004.jpg,,,,,,,,,,,,,,,,,,,,,,,,,,,,,,,,,,,,,,,,,,,,,,,,0,3,3,3,1,,,,,,,,,,,,,,,,,,,,,,,,,,,,,,,,,,,,,,,,,
374857,001,2022-11-21_24h54.26.484,Info_measure_main_exp,2022.2.2,Win32,7.505479,,,,,,,,,,,,,,,,,,masks/mask_003.jpg,,,,,,,,,,,,,,,,,,,,,,,,,,,,,,,,,,,,,,,,,,,,,,,,0,4,4,2,1,,,,,,,,,,,,,,,,,,,,,,,,,,,,,,,,,,,,,,,,,
374857,001,2022-11-21_24h54.26.484,Info_measure_main_exp,2022.2.2,Win32,7.505479,,,,,,,,,,,,,,,,,,,,,,,,,,,,,,4,14.7649,1,,,,,,,,,,,,0,131,5,5,2082,2178,absent_patch/patch0002082.jpg,absent_patch/patch0002178.jpg,,,,,,,,,,,,,,,,,,,,0.049074074,-0.151851852,1,0,0,response3disk,16,0.00462963,0.001851852,1,0,0,center_square,0,15,15,2,1,,,,,,,,,,,,,,,,,,,,,,,
374857,001,2022-11-21_24h54.26.484,Info_measure_main_exp,2022.2.2,Win32,7.505479,,,,,,,,,,,,,,,,,,masks/mask_005.jpg,,,,,,,,,,,,,,,,,,,,,,,,,,,,,,,,,,,,,,,,,,,0,0,0,4,1,,,,,,,,,,,,,,,,,,,,,,,,,,,,,,,,,,,,,,,,,,,,,,
374857,001,2022-11-21_24h54.26.484,Info_measure_main_exp,2022.2.2,Win32,7.505479,,,,,,,,,,,,,,,,,,masks/mask_004.jpg,,,,,,,,,,,,,,,,,,,,,,,,,,,,,,,,,,,,,,,,,,,0,1,1,3,1,,,,,,,,,,,,,,,,,,,,,,,,,,,,,,,,,,,,,,,,,,,,,,
374857,001,2022-11-21_24h54.26.484,Info_measure_main_exp,2022.2.2,Win32,7.505479,,,,,,,,,,,,,,,,,,masks/mask_001.jpg,,,,,,,,,,,,,,,,,,,,,,,,,,,,,,,,,,,,,,,,,,,0,2,2,0,1,,,,,,,,,,,,,,,,,,,,,,,,,,,,,,,,,,,,,,,,,,,,,,
374857,001,2022-11-21_24h54.26.484,Info_measure_main_exp,2022.2.2,Win32,7.505479,,,,,,,,,,,,,,,,,,masks/mask_003.jpg,,,,,,,,,,,,,,,,,,,,,,,,,,,,,,,,,,,,,,,,,,,0,3,3,2,1,,,,,,,,,,,,,,,,,,,,,,,,,,,,,,,,,,,,,,,,,,,,,,
374857,001,2022-11-21_24h54.26.484,Info_measure_main_exp,2022.2.2,Win32,7.505479,,,,,,,,,,,,,,,,,,masks/mask_002.jpg,,,,,,,,,,,,,,,,,,,,,,,,,,,,,,,,,,,,,,,,,,,0,4,4,1,1,,,,,,,,,,,,,,,,,,,,,,,,,,,,,,,,,,,,,,,,,,,,,,
374857,001,2022-11-21_24h54.26.484,Info_measure_main_exp,2022.2.2,Win32,7.505479,,,,,,,,,,,,,,,,,,masks/mask_005.jpg,,,,,,,,,,,,,,,,,,,,,,,,,,,,,,,,,,,,,,,,,,,,,,,,0,0,0,4,1,,,,,,,,,,,,,,,,,,,,,,,,,,,,,,,,,,,,,,,,,
374857,001,2022-11-21_24h54.26.484,Info_measure_main_exp,2022.2.2,Win32,7.505479,,,,,,,,,,,,,,,,,,masks/mask_001.jpg,,,,,,,,,,,,,,,,,,,,,,,,,,,,,,,,,,,,,,,,,,,,,,,,0,1,1,0,1,,,,,,,,,,,,,,,,,,,,,,,,,,,,,,,,,,,,,,,,,
374857,001,2022-11-21_24h54.26.484,Info_measure_main_exp,2022.2.2,Win32,7.505479,,,,,,,,,,,,,,,,,,masks/mask_002.jpg,,,,,,,,,,,,,,,,,,,,,,,,,,,,,,,,,,,,,,,,,,,,,,,,0,2,2,1,1,,,,,,,,,,,,,,,,,,,,,,,,,,,,,,,,,,,,,,,,,
374857,001,2022-11-21_24h54.26.484,Info_measure_main_exp,2022.2.2,Win32,7.505479,,,,,,,,,,,,,,,,,,masks/mask_004.jpg,,,,,,,,,,,,,,,,,,,,,,,,,,,,,,,,,,,,,,,,,,,,,,,,0,3,3,3,1,,,,,,,,,,,,,,,,,,,,,,,,,,,,,,,,,,,,,,,,,
374857,001,2022-11-21_24h54.26.484,Info_measure_main_exp,2022.2.2,Win32,7.505479,,,,,,,,,,,,,,,,,,masks/mask_003.jpg,,,,,,,,,,,,,,,,,,,,,,,,,,,,,,,,,,,,,,,,,,,,,,,,0,4,4,2,1,,,,,,,,,,,,,,,,,,,,,,,,,,,,,,,,,,,,,,,,,
374857,001,2022-11-21_24h54.26.484,Info_measure_main_exp,2022.2.2,Win32,7.505479,,,,,,,,,,,,,,,,,,,,,,,,,,,,,,0,1.9159,1,,,,,,,,,,,,0,131,5,5,1986,1986,absent_patch/patch0001986.jpg,absent_patch/patch0001986.jpg,,,,,,,,,,,,,,,,,,,,-0.032407407,0.159259259,1,0,0,response7disk,17,0.010185185,-0.012037037,1,0,0,center_square,0,16,16,19,1,,,,,,,,,,,,,,,,,,,,,,,
374857,001,2022-11-21_24h54.26.484,Info_measure_main_exp,2022.2.2,Win32,7.505479,,,,,,,,,,,,,,,,,,masks/mask_003.jpg,,,,,,,,,,,,,,,,,,,,,,,,,,,,,,,,,,,,,,,,,,,0,0,0,2,1,,,,,,,,,,,,,,,,,,,,,,,,,,,,,,,,,,,,,,,,,,,,,,
374857,001,2022-11-21_24h54.26.484,Info_measure_main_exp,2022.2.2,Win32,7.505479,,,,,,,,,,,,,,,,,,masks/mask_002.jpg,,,,,,,,,,,,,,,,,,,,,,,,,,,,,,,,,,,,,,,,,,,0,1,1,1,1,,,,,,,,,,,,,,,,,,,,,,,,,,,,,,,,,,,,,,,,,,,,,,
374857,001,2022-11-21_24h54.26.484,Info_measure_main_exp,2022.2.2,Win32,7.505479,,,,,,,,,,,,,,,,,,masks/mask_001.jpg,,,,,,,,,,,,,,,,,,,,,,,,,,,,,,,,,,,,,,,,,,,0,2,2,0,1,,,,,,,,,,,,,,,,,,,,,,,,,,,,,,,,,,,,,,,,,,,,,,
374857,001,2022-11-21_24h54.26.484,Info_measure_main_exp,2022.2.2,Win32,7.505479,,,,,,,,,,,,,,,,,,masks/mask_004.jpg,,,,,,,,,,,,,,,,,,,,,,,,,,,,,,,,,,,,,,,,,,,0,3,3,3,1,,,,,,,,,,,,,,,,,,,,,,,,,,,,,,,,,,,,,,,,,,,,,,
374857,001,2022-11-21_24h54.26.484,Info_measure_main_exp,2022.2.2,Win32,7.505479,,,,,,,,,,,,,,,,,,masks/mask_005.jpg,,,,,,,,,,,,,,,,,,,,,,,,,,,,,,,,,,,,,,,,,,,0,4,4,4,1,,,,,,,,,,,,,,,,,,,,,,,,,,,,,,,,,,,,,,,,,,,,,,
374857,001,2022-11-21_24h54.26.484,Info_measure_main_exp,2022.2.2,Win32,7.505479,,,,,,,,,,,,,,,,,,masks/mask_005.jpg,,,,,,,,,,,,,,,,,,,,,,,,,,,,,,,,,,,,,,,,,,,,,,,,0,0,0,4,1,,,,,,,,,,,,,,,,,,,,,,,,,,,,,,,,,,,,,,,,,
374857,001,2022-11-21_24h54.26.484,Info_measure_main_exp,2022.2.2,Win32,7.505479,,,,,,,,,,,,,,,,,,masks/mask_002.jpg,,,,,,,,,,,,,,,,,,,,,,,,,,,,,,,,,,,,,,,,,,,,,,,,0,1,1,1,1,,,,,,,,,,,,,,,,,,,,,,,,,,,,,,,,,,,,,,,,,
374857,001,2022-11-21_24h54.26.484,Info_measure_main_exp,2022.2.2,Win32,7.505479,,,,,,,,,,,,,,,,,,masks/mask_004.jpg,,,,,,,,,,,,,,,,,,,,,,,,,,,,,,,,,,,,,,,,,,,,,,,,0,2,2,3,1,,,,,,,,,,,,,,,,,,,,,,,,,,,,,,,,,,,,,,,,,
374857,001,2022-11-21_24h54.26.484,Info_measure_main_exp,2022.2.2,Win32,7.505479,,,,,,,,,,,,,,,,,,masks/mask_001.jpg,,,,,,,,,,,,,,,,,,,,,,,,,,,,,,,,,,,,,,,,,,,,,,,,0,3,3,0,1,,,,,,,,,,,,,,,,,,,,,,,,,,,,,,,,,,,,,,,,,
374857,001,2022-11-21_24h54.26.484,Info_measure_main_exp,2022.2.2,Win32,7.505479,,,,,,,,,,,,,,,,,,masks/mask_003.jpg,,,,,,,,,,,,,,,,,,,,,,,,,,,,,,,,,,,,,,,,,,,,,,,,0,4,4,2,1,,,,,,,,,,,,,,,,,,,,,,,,,,,,,,,,,,,,,,,,,
374857,001,2022-11-21_24h54.26.484,Info_measure_main_exp,2022.2.2,Win32,7.505479,,,,,,,,,,,,,,,,,,,,,,,,,,,,,,4,3.2573,1,,,,,,,,,,,,0,131,5,5,1986,2274,absent_patch/patch0001986.jpg,absent_patch/patch0002274.jpg,,,,,,,,,,,,,,,,,,,,0.02037037,-0.158333333,1,0,0,response3disk,18,0.00462963,-0.000925926,1,0,0,center_square,0,17,17,7,1,,,,,,,,,,,,,,,,,,,,,,,
374857,001,2022-11-21_24h54.26.484,Info_measure_main_exp,2022.2.2,Win32,7.505479,,,,,,,,,,,,,,,,,,masks/mask_003.jpg,,,,,,,,,,,,,,,,,,,,,,,,,,,,,,,,,,,,,,,,,,,0,0,0,2,1,,,,,,,,,,,,,,,,,,,,,,,,,,,,,,,,,,,,,,,,,,,,,,
374857,001,2022-11-21_24h54.26.484,Info_measure_main_exp,2022.2.2,Win32,7.505479,,,,,,,,,,,,,,,,,,masks/mask_001.jpg,,,,,,,,,,,,,,,,,,,,,,,,,,,,,,,,,,,,,,,,,,,0,1,1,0,1,,,,,,,,,,,,,,,,,,,,,,,,,,,,,,,,,,,,,,,,,,,,,,
374857,001,2022-11-21_24h54.26.484,Info_measure_main_exp,2022.2.2,Win32,7.505479,,,,,,,,,,,,,,,,,,masks/mask_005.jpg,,,,,,,,,,,,,,,,,,,,,,,,,,,,,,,,,,,,,,,,,,,0,2,2,4,1,,,,,,,,,,,,,,,,,,,,,,,,,,,,,,,,,,,,,,,,,,,,,,
374857,001,2022-11-21_24h54.26.484,Info_measure_main_exp,2022.2.2,Win32,7.505479,,,,,,,,,,,,,,,,,,masks/mask_002.jpg,,,,,,,,,,,,,,,,,,,,,,,,,,,,,,,,,,,,,,,,,,,0,3,3,1,1,,,,,,,,,,,,,,,,,,,,,,,,,,,,,,,,,,,,,,,,,,,,,,
374857,001,2022-11-21_24h54.26.484,Info_measure_main_exp,2022.2.2,Win32,7.505479,,,,,,,,,,,,,,,,,,masks/mask_004.jpg,,,,,,,,,,,,,,,,,,,,,,,,,,,,,,,,,,,,,,,,,,,0,4,4,3,1,,,,,,,,,,,,,,,,,,,,,,,,,,,,,,,,,,,,,,,,,,,,,,
374857,001,2022-11-21_24h54.26.484,Info_measure_main_exp,2022.2.2,Win32,7.505479,,,,,,,,,,,,,,,,,,masks/mask_005.jpg,,,,,,,,,,,,,,,,,,,,,,,,,,,,,,,,,,,,,,,,,,,,,,,,0,0,0,4,1,,,,,,,,,,,,,,,,,,,,,,,,,,,,,,,,,,,,,,,,,
374857,001,2022-11-21_24h54.26.484,Info_measure_main_exp,2022.2.2,Win32,7.505479,,,,,,,,,,,,,,,,,,masks/mask_002.jpg,,,,,,,,,,,,,,,,,,,,,,,,,,,,,,,,,,,,,,,,,,,,,,,,0,1,1,1,1,,,,,,,,,,,,,,,,,,,,,,,,,,,,,,,,,,,,,,,,,
374857,001,2022-11-21_24h54.26.484,Info_measure_main_exp,2022.2.2,Win32,7.505479,,,,,,,,,,,,,,,,,,masks/mask_001.jpg,,,,,,,,,,,,,,,,,,,,,,,,,,,,,,,,,,,,,,,,,,,,,,,,0,2,2,0,1,,,,,,,,,,,,,,,,,,,,,,,,,,,,,,,,,,,,,,,,,
374857,001,2022-11-21_24h54.26.484,Info_measure_main_exp,2022.2.2,Win32,7.505479,,,,,,,,,,,,,,,,,,masks/mask_004.jpg,,,,,,,,,,,,,,,,,,,,,,,,,,,,,,,,,,,,,,,,,,,,,,,,0,3,3,3,1,,,,,,,,,,,,,,,,,,,,,,,,,,,,,,,,,,,,,,,,,
374857,001,2022-11-21_24h54.26.484,Info_measure_main_exp,2022.2.2,Win32,7.505479,,,,,,,,,,,,,,,,,,masks/mask_003.jpg,,,,,,,,,,,,,,,,,,,,,,,,,,,,,,,,,,,,,,,,,,,,,,,,0,4,4,2,1,,,,,,,,,,,,,,,,,,,,,,,,,,,,,,,,,,,,,,,,,
374857,001,2022-11-21_24h54.26.484,Info_measure_main_exp,2022.2.2,Win32,7.505479,,,,,,,,,,,,,,,,,,,,,,,,,,,,,,5,2.6142,1,,,,,,,,,,,,0,131,5,5,2190,2250,absent_patch/patch0002190.jpg,absent_patch/patch0002250.jpg,,,,,,,,,,,,,,,,,,,,0.126851852,-0.057407407,1,0,0,response3disk,19,-0.012037037,-0.010185185,1,0,0,center_square,0,18,18,93,1,,,,,,,,,,,,,,,,,,,,,,,
374857,001,2022-11-21_24h54.26.484,Info_measure_main_exp,2022.2.2,Win32,7.505479,,,,,,,,,,,,,,,,,,masks/mask_004.jpg,,,,,,,,,,,,,,,,,,,,,,,,,,,,,,,,,,,,,,,,,,,0,0,0,3,1,,,,,,,,,,,,,,,,,,,,,,,,,,,,,,,,,,,,,,,,,,,,,,
374857,001,2022-11-21_24h54.26.484,Info_measure_main_exp,2022.2.2,Win32,7.505479,,,,,,,,,,,,,,,,,,masks/mask_005.jpg,,,,,,,,,,,,,,,,,,,,,,,,,,,,,,,,,,,,,,,,,,,0,1,1,4,1,,,,,,,,,,,,,,,,,,,,,,,,,,,,,,,,,,,,,,,,,,,,,,
374857,001,2022-11-21_24h54.26.484,Info_measure_main_exp,2022.2.2,Win32,7.505479,,,,,,,,,,,,,,,,,,masks/mask_003.jpg,,,,,,,,,,,,,,,,,,,,,,,,,,,,,,,,,,,,,,,,,,,0,2,2,2,1,,,,,,,,,,,,,,,,,,,,,,,,,,,,,,,,,,,,,,,,,,,,,,
374857,001,2022-11-21_24h54.26.484,Info_measure_main_exp,2022.2.2,Win32,7.505479,,,,,,,,,,,,,,,,,,masks/mask_001.jpg,,,,,,,,,,,,,,,,,,,,,,,,,,,,,,,,,,,,,,,,,,,0,3,3,0,1,,,,,,,,,,,,,,,,,,,,,,,,,,,,,,,,,,,,,,,,,,,,,,
374857,001,2022-11-21_24h54.26.484,Info_measure_main_exp,2022.2.2,Win32,7.505479,,,,,,,,,,,,,,,,,,masks/mask_002.jpg,,,,,,,,,,,,,,,,,,,,,,,,,,,,,,,,,,,,,,,,,,,0,4,4,1,1,,,,,,,,,,,,,,,,,,,,,,,,,,,,,,,,,,,,,,,,,,,,,,
374857,001,2022-11-21_24h54.26.484,Info_measure_main_exp,2022.2.2,Win32,7.505479,,,,,,,,,,,,,,,,,,masks/mask_001.jpg,,,,,,,,,,,,,,,,,,,,,,,,,,,,,,,,,,,,,,,,,,,,,,,,0,0,0,0,1,,,,,,,,,,,,,,,,,,,,,,,,,,,,,,,,,,,,,,,,,
374857,001,2022-11-21_24h54.26.484,Info_measure_main_exp,2022.2.2,Win32,7.505479,,,,,,,,,,,,,,,,,,masks/mask_005.jpg,,,,,,,,,,,,,,,,,,,,,,,,,,,,,,,,,,,,,,,,,,,,,,,,0,1,1,4,1,,,,,,,,,,,,,,,,,,,,,,,,,,,,,,,,,,,,,,,,,
374857,001,2022-11-21_24h54.26.484,Info_measure_main_exp,2022.2.2,Win32,7.505479,,,,,,,,,,,,,,,,,,masks/mask_003.jpg,,,,,,,,,,,,,,,,,,,,,,,,,,,,,,,,,,,,,,,,,,,,,,,,0,2,2,2,1,,,,,,,,,,,,,,,,,,,,,,,,,,,,,,,,,,,,,,,,,
374857,001,2022-11-21_24h54.26.484,Info_measure_main_exp,2022.2.2,Win32,7.505479,,,,,,,,,,,,,,,,,,masks/mask_002.jpg,,,,,,,,,,,,,,,,,,,,,,,,,,,,,,,,,,,,,,,,,,,,,,,,0,3,3,1,1,,,,,,,,,,,,,,,,,,,,,,,,,,,,,,,,,,,,,,,,,
374857,001,2022-11-21_24h54.26.484,Info_measure_main_exp,2022.2.2,Win32,7.505479,,,,,,,,,,,,,,,,,,masks/mask_004.jpg,,,,,,,,,,,,,,,,,,,,,,,,,,,,,,,,,,,,,,,,,,,,,,,,0,4,4,3,1,,,,,,,,,,,,,,,,,,,,,,,,,,,,,,,,,,,,,,,,,
374857,001,2022-11-21_24h54.26.484,Info_measure_main_exp,2022.2.2,Win32,7.505479,,,,,,,,,,,,,,,,,,,,,,,,,,,,,,7,1.6709,1,,,,,,,,,,,,0,131,5,5,2190,2214,absent_patch/patch0002190.jpg,absent_patch/patch0002214.jpg,,,,,,,,,,,,,,,,,,,,0.064814815,0.127777778,1,0,0,response1disk,20,-0.008333333,0.000925926,1,0,0,center_square,0,19,19,35,1,,,,,,,,,,,,,,,,,,,,,,,
374857,001,2022-11-21_24h54.26.484,Info_measure_main_exp,2022.2.2,Win32,7.505479,,,,,,,,,,,,,,,,,,masks/mask_005.jpg,,,,,,,,,,,,,,,,,,,,,,,,,,,,,,,,,,,,,,,,,,,0,0,0,4,1,,,,,,,,,,,,,,,,,,,,,,,,,,,,,,,,,,,,,,,,,,,,,,
374857,001,2022-11-21_24h54.26.484,Info_measure_main_exp,2022.2.2,Win32,7.505479,,,,,,,,,,,,,,,,,,masks/mask_003.jpg,,,,,,,,,,,,,,,,,,,,,,,,,,,,,,,,,,,,,,,,,,,0,1,1,2,1,,,,,,,,,,,,,,,,,,,,,,,,,,,,,,,,,,,,,,,,,,,,,,
374857,001,2022-11-21_24h54.26.484,Info_measure_main_exp,2022.2.2,Win32,7.505479,,,,,,,,,,,,,,,,,,masks/mask_001.jpg,,,,,,,,,,,,,,,,,,,,,,,,,,,,,,,,,,,,,,,,,,,0,2,2,0,1,,,,,,,,,,,,,,,,,,,,,,,,,,,,,,,,,,,,,,,,,,,,,,
374857,001,2022-11-21_24h54.26.484,Info_measure_main_exp,2022.2.2,Win32,7.505479,,,,,,,,,,,,,,,,,,masks/mask_004.jpg,,,,,,,,,,,,,,,,,,,,,,,,,,,,,,,,,,,,,,,,,,,0,3,3,3,1,,,,,,,,,,,,,,,,,,,,,,,,,,,,,,,,,,,,,,,,,,,,,,
374857,001,2022-11-21_24h54.26.484,Info_measure_main_exp,2022.2.2,Win32,7.505479,,,,,,,,,,,,,,,,,,masks/mask_002.jpg,,,,,,,,,,,,,,,,,,,,,,,,,,,,,,,,,,,,,,,,,,,0,4,4,1,1,,,,,,,,,,,,,,,,,,,,,,,,,,,,,,,,,,,,,,,,,,,,,,
374857,001,2022-11-21_24h54.26.484,Info_measure_main_exp,2022.2.2,Win32,7.505479,,,,,,,,,,,,,,,,,,masks/mask_004.jpg,,,,,,,,,,,,,,,,,,,,,,,,,,,,,,,,,,,,,,,,,,,,,,,,0,0,0,3,1,,,,,,,,,,,,,,,,,,,,,,,,,,,,,,,,,,,,,,,,,
374857,001,2022-11-21_24h54.26.484,Info_measure_main_exp,2022.2.2,Win32,7.505479,,,,,,,,,,,,,,,,,,masks/mask_001.jpg,,,,,,,,,,,,,,,,,,,,,,,,,,,,,,,,,,,,,,,,,,,,,,,,0,1,1,0,1,,,,,,,,,,,,,,,,,,,,,,,,,,,,,,,,,,,,,,,,,
374857,001,2022-11-21_24h54.26.484,Info_measure_main_exp,2022.2.2,Win32,7.505479,,,,,,,,,,,,,,,,,,masks/mask_005.jpg,,,,,,,,,,,,,,,,,,,,,,,,,,,,,,,,,,,,,,,,,,,,,,,,0,2,2,4,1,,,,,,,,,,,,,,,,,,,,,,,,,,,,,,,,,,,,,,,,,
374857,001,2022-11-21_24h54.26.484,Info_measure_main_exp,2022.2.2,Win32,7.505479,,,,,,,,,,,,,,,,,,masks/mask_002.jpg,,,,,,,,,,,,,,,,,,,,,,,,,,,,,,,,,,,,,,,,,,,,,,,,0,3,3,1,1,,,,,,,,,,,,,,,,,,,,,,,,,,,,,,,,,,,,,,,,,
374857,001,2022-11-21_24h54.26.484,Info_measure_main_exp,2022.2.2,Win32,7.505479,,,,,,,,,,,,,,,,,,masks/mask_003.jpg,,,,,,,,,,,,,,,,,,,,,,,,,,,,,,,,,,,,,,,,,,,,,,,,0,4,4,2,1,,,,,,,,,,,,,,,,,,,,,,,,,,,,,,,,,,,,,,,,,
374857,001,2022-11-21_24h54.26.484,Info_measure_main_exp,2022.2.2,Win32,7.505479,,,,,,,,,,,,,,,,,,,,,,,,,,,,,,4,2.4838,1,,,,,,,,,,,,0,131,5,5,2214,2214,absent_patch/patch0002214.jpg,absent_patch/patch0002214.jpg,,,,,,,,,,,,,,,,,,,,0.071296296,-0.163888889,1,0,0,response3disk,21,-0.003703704,0,1,0,0,center_square,0,20,20,115,1,,,,,,,,,,,,,,,,,,,,,,,
374857,001,2022-11-21_24h54.26.484,Info_measure_main_exp,2022.2.2,Win32,7.505479,,,,,,,,,,,,,,,,,,masks/mask_005.jpg,,,,,,,,,,,,,,,,,,,,,,,,,,,,,,,,,,,,,,,,,,,0,0,0,4,1,,,,,,,,,,,,,,,,,,,,,,,,,,,,,,,,,,,,,,,,,,,,,,
374857,001,2022-11-21_24h54.26.484,Info_measure_main_exp,2022.2.2,Win32,7.505479,,,,,,,,,,,,,,,,,,masks/mask_002.jpg,,,,,,,,,,,,,,,,,,,,,,,,,,,,,,,,,,,,,,,,,,,0,1,1,1,1,,,,,,,,,,,,,,,,,,,,,,,,,,,,,,,,,,,,,,,,,,,,,,
374857,001,2022-11-21_24h54.26.484,Info_measure_main_exp,2022.2.2,Win32,7.505479,,,,,,,,,,,,,,,,,,masks/mask_004.jpg,,,,,,,,,,,,,,,,,,,,,,,,,,,,,,,,,,,,,,,,,,,0,2,2,3,1,,,,,,,,,,,,,,,,,,,,,,,,,,,,,,,,,,,,,,,,,,,,,,
374857,001,2022-11-21_24h54.26.484,Info_measure_main_exp,2022.2.2,Win32,7.505479,,,,,,,,,,,,,,,,,,masks/mask_003.jpg,,,,,,,,,,,,,,,,,,,,,,,,,,,,,,,,,,,,,,,,,,,0,3,3,2,1,,,,,,,,,,,,,,,,,,,,,,,,,,,,,,,,,,,,,,,,,,,,,,
374857,001,2022-11-21_24h54.26.484,Info_measure_main_exp,2022.2.2,Win32,7.505479,,,,,,,,,,,,,,,,,,masks/mask_001.jpg,,,,,,,,,,,,,,,,,,,,,,,,,,,,,,,,,,,,,,,,,,,0,4,4,0,1,,,,,,,,,,,,,,,,,,,,,,,,,,,,,,,,,,,,,,,,,,,,,,
374857,001,2022-11-21_24h54.26.484,Info_measure_main_exp,2022.2.2,Win32,7.505479,,,,,,,,,,,,,,,,,,masks/mask_004.jpg,,,,,,,,,,,,,,,,,,,,,,,,,,,,,,,,,,,,,,,,,,,,,,,,0,0,0,3,1,,,,,,,,,,,,,,,,,,,,,,,,,,,,,,,,,,,,,,,,,
374857,001,2022-11-21_24h54.26.484,Info_measure_main_exp,2022.2.2,Win32,7.505479,,,,,,,,,,,,,,,,,,masks/mask_003.jpg,,,,,,,,,,,,,,,,,,,,,,,,,,,,,,,,,,,,,,,,,,,,,,,,0,1,1,2,1,,,,,,,,,,,,,,,,,,,,,,,,,,,,,,,,,,,,,,,,,
374857,001,2022-11-21_24h54.26.484,Info_measure_main_exp,2022.2.2,Win32,7.505479,,,,,,,,,,,,,,,,,,masks/mask_001.jpg,,,,,,,,,,,,,,,,,,,,,,,,,,,,,,,,,,,,,,,,,,,,,,,,0,2,2,0,1,,,,,,,,,,,,,,,,,,,,,,,,,,,,,,,,,,,,,,,,,
374857,001,2022-11-21_24h54.26.484,Info_measure_main_exp,2022.2.2,Win32,7.505479,,,,,,,,,,,,,,,,,,masks/mask_002.jpg,,,,,,,,,,,,,,,,,,,,,,,,,,,,,,,,,,,,,,,,,,,,,,,,0,3,3,1,1,,,,,,,,,,,,,,,,,,,,,,,,,,,,,,,,,,,,,,,,,
374857,001,2022-11-21_24h54.26.484,Info_measure_main_exp,2022.2.2,Win32,7.505479,,,,,,,,,,,,,,,,,,masks/mask_005.jpg,,,,,,,,,,,,,,,,,,,,,,,,,,,,,,,,,,,,,,,,,,,,,,,,0,4,4,4,1,,,,,,,,,,,,,,,,,,,,,,,,,,,,,,,,,,,,,,,,,
374857,001,2022-11-21_24h54.26.484,Info_measure_main_exp,2022.2.2,Win32,7.505479,,,,,,,,,,,,,,,,,,,,,,,,,,,,,,4,3.1187,1,,,,,,,,,,,,0,131,5,5,2154,2190,absent_patch/patch0002154.jpg,absent_patch/patch0002190.jpg,,,,,,,,,,,,,,,,,,,,0.025925926,-0.1,1,0,0,response3disk,22,0.00462963,0,1,0,0,center_square,0,21,21,68,1,,,,,,,,,,,,,,,,,,,,,,,
374857,001,2022-11-21_24h54.26.484,Info_measure_main_exp,2022.2.2,Win32,7.505479,,,,,,,,,,,,,,,,,,masks/mask_003.jpg,,,,,,,,,,,,,,,,,,,,,,,,,,,,,,,,,,,,,,,,,,,0,0,0,2,1,,,,,,,,,,,,,,,,,,,,,,,,,,,,,,,,,,,,,,,,,,,,,,
374857,001,2022-11-21_24h54.26.484,Info_measure_main_exp,2022.2.2,Win32,7.505479,,,,,,,,,,,,,,,,,,masks/mask_005.jpg,,,,,,,,,,,,,,,,,,,,,,,,,,,,,,,,,,,,,,,,,,,0,1,1,4,1,,,,,,,,,,,,,,,,,,,,,,,,,,,,,,,,,,,,,,,,,,,,,,
374857,001,2022-11-21_24h54.26.484,Info_measure_main_exp,2022.2.2,Win32,7.505479,,,,,,,,,,,,,,,,,,masks/mask_001.jpg,,,,,,,,,,,,,,,,,,,,,,,,,,,,,,,,,,,,,,,,,,,0,2,2,0,1,,,,,,,,,,,,,,,,,,,,,,,,,,,,,,,,,,,,,,,,,,,,,,
374857,001,2022-11-21_24h54.26.484,Info_measure_main_exp,2022.2.2,Win32,7.505479,,,,,,,,,,,,,,,,,,masks/mask_002.jpg,,,,,,,,,,,,,,,,,,,,,,,,,,,,,,,,,,,,,,,,,,,0,3,3,1,1,,,,,,,,,,,,,,,,,,,,,,,,,,,,,,,,,,,,,,,,,,,,,,
374857,001,2022-11-21_24h54.26.484,Info_measure_main_exp,2022.2.2,Win32,7.505479,,,,,,,,,,,,,,,,,,masks/mask_004.jpg,,,,,,,,,,,,,,,,,,,,,,,,,,,,,,,,,,,,,,,,,,,0,4,4,3,1,,,,,,,,,,,,,,,,,,,,,,,,,,,,,,,,,,,,,,,,,,,,,,
374857,001,2022-11-21_24h54.26.484,Info_measure_main_exp,2022.2.2,Win32,7.505479,,,,,,,,,,,,,,,,,,masks/mask_004.jpg,,,,,,,,,,,,,,,,,,,,,,,,,,,,,,,,,,,,,,,,,,,,,,,,0,0,0,3,1,,,,,,,,,,,,,,,,,,,,,,,,,,,,,,,,,,,,,,,,,
374857,001,2022-11-21_24h54.26.484,Info_measure_main_exp,2022.2.2,Win32,7.505479,,,,,,,,,,,,,,,,,,masks/mask_005.jpg,,,,,,,,,,,,,,,,,,,,,,,,,,,,,,,,,,,,,,,,,,,,,,,,0,1,1,4,1,,,,,,,,,,,,,,,,,,,,,,,,,,,,,,,,,,,,,,,,,
374857,001,2022-11-21_24h54.26.484,Info_measure_main_exp,2022.2.2,Win32,7.505479,,,,,,,,,,,,,,,,,,masks/mask_001.jpg,,,,,,,,,,,,,,,,,,,,,,,,,,,,,,,,,,,,,,,,,,,,,,,,0,2,2,0,1,,,,,,,,,,,,,,,,,,,,,,,,,,,,,,,,,,,,,,,,,
374857,001,2022-11-21_24h54.26.484,Info_measure_main_exp,2022.2.2,Win32,7.505479,,,,,,,,,,,,,,,,,,masks/mask_002.jpg,,,,,,,,,,,,,,,,,,,,,,,,,,,,,,,,,,,,,,,,,,,,,,,,0,3,3,1,1,,,,,,,,,,,,,,,,,,,,,,,,,,,,,,,,,,,,,,,,,
374857,001,2022-11-21_24h54.26.484,Info_measure_main_exp,2022.2.2,Win32,7.505479,,,,,,,,,,,,,,,,,,masks/mask_003.jpg,,,,,,,,,,,,,,,,,,,,,,,,,,,,,,,,,,,,,,,,,,,,,,,,0,4,4,2,1,,,,,,,,,,,,,,,,,,,,,,,,,,,,,,,,,,,,,,,,,
374857,001,2022-11-21_24h54.26.484,Info_measure_main_exp,2022.2.2,Win32,7.505479,,,,,,,,,,,,,,,,,,,,,,,,,,,,,,5,11.3503,1,,,,,,,,,,,,0,131,5,5,2154,2214,absent_patch/patch0002154.jpg,absent_patch/patch0002214.jpg,,,,,,,,,,,,,,,,,,,,0.138888889,-0.069444444,1,0,0,response3disk,23,0,0.002777778,1,0,0,center_square,0,22,22,67,1,,,,,,,,,,,,,,,,,,,,,,,
374857,001,2022-11-21_24h54.26.484,Info_measure_main_exp,2022.2.2,Win32,7.505479,,,,,,,,,,,,,,,,,,masks/mask_001.jpg,,,,,,,,,,,,,,,,,,,,,,,,,,,,,,,,,,,,,,,,,,,0,0,0,0,1,,,,,,,,,,,,,,,,,,,,,,,,,,,,,,,,,,,,,,,,,,,,,,
374857,001,2022-11-21_24h54.26.484,Info_measure_main_exp,2022.2.2,Win32,7.505479,,,,,,,,,,,,,,,,,,masks/mask_002.jpg,,,,,,,,,,,,,,,,,,,,,,,,,,,,,,,,,,,,,,,,,,,0,1,1,1,1,,,,,,,,,,,,,,,,,,,,,,,,,,,,,,,,,,,,,,,,,,,,,,
374857,001,2022-11-21_24h54.26.484,Info_measure_main_exp,2022.2.2,Win32,7.505479,,,,,,,,,,,,,,,,,,masks/mask_005.jpg,,,,,,,,,,,,,,,,,,,,,,,,,,,,,,,,,,,,,,,,,,,0,2,2,4,1,,,,,,,,,,,,,,,,,,,,,,,,,,,,,,,,,,,,,,,,,,,,,,
374857,001,2022-11-21_24h54.26.484,Info_measure_main_exp,2022.2.2,Win32,7.505479,,,,,,,,,,,,,,,,,,masks/mask_003.jpg,,,,,,,,,,,,,,,,,,,,,,,,,,,,,,,,,,,,,,,,,,,0,3,3,2,1,,,,,,,,,,,,,,,,,,,,,,,,,,,,,,,,,,,,,,,,,,,,,,
374857,001,2022-11-21_24h54.26.484,Info_measure_main_exp,2022.2.2,Win32,7.505479,,,,,,,,,,,,,,,,,,masks/mask_004.jpg,,,,,,,,,,,,,,,,,,,,,,,,,,,,,,,,,,,,,,,,,,,0,4,4,3,1,,,,,,,,,,,,,,,,,,,,,,,,,,,,,,,,,,,,,,,,,,,,,,
374857,001,2022-11-21_24h54.26.484,Info_measure_main_exp,2022.2.2,Win32,7.505479,,,,,,,,,,,,,,,,,,masks/mask_005.jpg,,,,,,,,,,,,,,,,,,,,,,,,,,,,,,,,,,,,,,,,,,,,,,,,0,0,0,4,1,,,,,,,,,,,,,,,,,,,,,,,,,,,,,,,,,,,,,,,,,
374857,001,2022-11-21_24h54.26.484,Info_measure_main_exp,2022.2.2,Win32,7.505479,,,,,,,,,,,,,,,,,,masks/mask_004.jpg,,,,,,,,,,,,,,,,,,,,,,,,,,,,,,,,,,,,,,,,,,,,,,,,0,1,1,3,1,,,,,,,,,,,,,,,,,,,,,,,,,,,,,,,,,,,,,,,,,
374857,001,2022-11-21_24h54.26.484,Info_measure_main_exp,2022.2.2,Win32,7.505479,,,,,,,,,,,,,,,,,,masks/mask_003.jpg,,,,,,,,,,,,,,,,,,,,,,,,,,,,,,,,,,,,,,,,,,,,,,,,0,2,2,2,1,,,,,,,,,,,,,,,,,,,,,,,,,,,,,,,,,,,,,,,,,
374857,001,2022-11-21_24h54.26.484,Info_measure_main_exp,2022.2.2,Win32,7.505479,,,,,,,,,,,,,,,,,,masks/mask_001.jpg,,,,,,,,,,,,,,,,,,,,,,,,,,,,,,,,,,,,,,,,,,,,,,,,0,3,3,0,1,,,,,,,,,,,,,,,,,,,,,,,,,,,,,,,,,,,,,,,,,
374857,001,2022-11-21_24h54.26.484,Info_measure_main_exp,2022.2.2,Win32,7.505479,,,,,,,,,,,,,,,,,,masks/mask_002.jpg,,,,,,,,,,,,,,,,,,,,,,,,,,,,,,,,,,,,,,,,,,,,,,,,0,4,4,1,1,,,,,,,,,,,,,,,,,,,,,,,,,,,,,,,,,,,,,,,,,
374857,001,2022-11-21_24h54.26.484,Info_measure_main_exp,2022.2.2,Win32,7.505479,,,,,,,,,,,,,,,,,,,,,,,,,,,,,,3,1.3767,1,,,,,,,,,,,,0,131,5,5,2166,2166,absent_patch/patch0002166.jpg,absent_patch/patch0002166.jpg,,,,,,,,,,,,,,,,,,,,-0.027777778,-0.1,1,0,0,response5disk,24,0.001851852,0.012037037,1,0,0,center_square,0,23,23,42,1,,,,,,,,,,,,,,,,,,,,,,,
374857,001,2022-11-21_24h54.26.484,Info_measure_main_exp,2022.2.2,Win32,7.505479,,,,,,,,,,,,,,,,,,masks/mask_002.jpg,,,,,,,,,,,,,,,,,,,,,,,,,,,,,,,,,,,,,,,,,,,0,0,0,1,1,,,,,,,,,,,,,,,,,,,,,,,,,,,,,,,,,,,,,,,,,,,,,,
374857,001,2022-11-21_24h54.26.484,Info_measure_main_exp,2022.2.2,Win32,7.505479,,,,,,,,,,,,,,,,,,masks/mask_001.jpg,,,,,,,,,,,,,,,,,,,,,,,,,,,,,,,,,,,,,,,,,,,0,1,1,0,1,,,,,,,,,,,,,,,,,,,,,,,,,,,,,,,,,,,,,,,,,,,,,,
374857,001,2022-11-21_24h54.26.484,Info_measure_main_exp,2022.2.2,Win32,7.505479,,,,,,,,,,,,,,,,,,masks/mask_005.jpg,,,,,,,,,,,,,,,,,,,,,,,,,,,,,,,,,,,,,,,,,,,0,2,2,4,1,,,,,,,,,,,,,,,,,,,,,,,,,,,,,,,,,,,,,,,,,,,,,,
374857,001,2022-11-21_24h54.26.484,Info_measure_main_exp,2022.2.2,Win32,7.505479,,,,,,,,,,,,,,,,,,masks/mask_004.jpg,,,,,,,,,,,,,,,,,,,,,,,,,,,,,,,,,,,,,,,,,,,0,3,3,3,1,,,,,,,,,,,,,,,,,,,,,,,,,,,,,,,,,,,,,,,,,,,,,,
374857,001,2022-11-21_24h54.26.484,Info_measure_main_exp,2022.2.2,Win32,7.505479,,,,,,,,,,,,,,,,,,masks/mask_003.jpg,,,,,,,,,,,,,,,,,,,,,,,,,,,,,,,,,,,,,,,,,,,0,4,4,2,1,,,,,,,,,,,,,,,,,,,,,,,,,,,,,,,,,,,,,,,,,,,,,,
374857,001,2022-11-21_24h54.26.484,Info_measure_main_exp,2022.2.2,Win32,7.505479,,,,,,,,,,,,,,,,,,masks/mask_002.jpg,,,,,,,,,,,,,,,,,,,,,,,,,,,,,,,,,,,,,,,,,,,,,,,,0,0,0,1,1,,,,,,,,,,,,,,,,,,,,,,,,,,,,,,,,,,,,,,,,,
374857,001,2022-11-21_24h54.26.484,Info_measure_main_exp,2022.2.2,Win32,7.505479,,,,,,,,,,,,,,,,,,masks/mask_004.jpg,,,,,,,,,,,,,,,,,,,,,,,,,,,,,,,,,,,,,,,,,,,,,,,,0,1,1,3,1,,,,,,,,,,,,,,,,,,,,,,,,,,,,,,,,,,,,,,,,,
374857,001,2022-11-21_24h54.26.484,Info_measure_main_exp,2022.2.2,Win32,7.505479,,,,,,,,,,,,,,,,,,masks/mask_003.jpg,,,,,,,,,,,,,,,,,,,,,,,,,,,,,,,,,,,,,,,,,,,,,,,,0,2,2,2,1,,,,,,,,,,,,,,,,,,,,,,,,,,,,,,,,,,,,,,,,,
374857,001,2022-11-21_24h54.26.484,Info_measure_main_exp,2022.2.2,Win32,7.505479,,,,,,,,,,,,,,,,,,masks/mask_005.jpg,,,,,,,,,,,,,,,,,,,,,,,,,,,,,,,,,,,,,,,,,,,,,,,,0,3,3,4,1,,,,,,,,,,,,,,,,,,,,,,,,,,,,,,,,,,,,,,,,,
374857,001,2022-11-21_24h54.26.484,Info_measure_main_exp,2022.2.2,Win32,7.505479,,,,,,,,,,,,,,,,,,masks/mask_001.jpg,,,,,,,,,,,,,,,,,,,,,,,,,,,,,,,,,,,,,,,,,,,,,,,,0,4,4,0,1,,,,,,,,,,,,,,,,,,,,,,,,,,,,,,,,,,,,,,,,,
374857,001,2022-11-21_24h54.26.484,Info_measure_main_exp,2022.2.2,Win32,7.505479,,,,,,,,,,,,,,,,,,,,,,,,,,,,,,2,1.3183,1,,,,,,,,,,,,0,131,5,5,2274,2142,absent_patch/patch0002274.jpg,absent_patch/patch0002142.jpg,,,,,,,,,,,,,,,,,,,,-0.127777778,-0.051851852,1,0,0,response5disk,25,-0.008333333,-0.010185185,1,0,0,center_square,0,24,24,75,1,,,,,,,,,,,,,,,,,,,,,,,
374857,001,2022-11-21_24h54.26.484,Info_measure_main_exp,2022.2.2,Win32,7.505479,,,,,,,,,,,,,,,,,,masks/mask_001.jpg,,,,,,,,,,,,,,,,,,,,,,,,,,,,,,,,,,,,,,,,,,,0,0,0,0,1,,,,,,,,,,,,,,,,,,,,,,,,,,,,,,,,,,,,,,,,,,,,,,
374857,001,2022-11-21_24h54.26.484,Info_measure_main_exp,2022.2.2,Win32,7.505479,,,,,,,,,,,,,,,,,,masks/mask_004.jpg,,,,,,,,,,,,,,,,,,,,,,,,,,,,,,,,,,,,,,,,,,,0,1,1,3,1,,,,,,,,,,,,,,,,,,,,,,,,,,,,,,,,,,,,,,,,,,,,,,
374857,001,2022-11-21_24h54.26.484,Info_measure_main_exp,2022.2.2,Win32,7.505479,,,,,,,,,,,,,,,,,,masks/mask_005.jpg,,,,,,,,,,,,,,,,,,,,,,,,,,,,,,,,,,,,,,,,,,,0,2,2,4,1,,,,,,,,,,,,,,,,,,,,,,,,,,,,,,,,,,,,,,,,,,,,,,
374857,001,2022-11-21_24h54.26.484,Info_measure_main_exp,2022.2.2,Win32,7.505479,,,,,,,,,,,,,,,,,,masks/mask_003.jpg,,,,,,,,,,,,,,,,,,,,,,,,,,,,,,,,,,,,,,,,,,,0,3,3,2,1,,,,,,,,,,,,,,,,,,,,,,,,,,,,,,,,,,,,,,,,,,,,,,
374857,001,2022-11-21_24h54.26.484,Info_measure_main_exp,2022.2.2,Win32,7.505479,,,,,,,,,,,,,,,,,,masks/mask_002.jpg,,,,,,,,,,,,,,,,,,,,,,,,,,,,,,,,,,,,,,,,,,,0,4,4,1,1,,,,,,,,,,,,,,,,,,,,,,,,,,,,,,,,,,,,,,,,,,,,,,
374857,001,2022-11-21_24h54.26.484,Info_measure_main_exp,2022.2.2,Win32,7.505479,,,,,,,,,,,,,,,,,,masks/mask_003.jpg,,,,,,,,,,,,,,,,,,,,,,,,,,,,,,,,,,,,,,,,,,,,,,,,0,0,0,2,1,,,,,,,,,,,,,,,,,,,,,,,,,,,,,,,,,,,,,,,,,
374857,001,2022-11-21_24h54.26.484,Info_measure_main_exp,2022.2.2,Win32,7.505479,,,,,,,,,,,,,,,,,,masks/mask_001.jpg,,,,,,,,,,,,,,,,,,,,,,,,,,,,,,,,,,,,,,,,,,,,,,,,0,1,1,0,1,,,,,,,,,,,,,,,,,,,,,,,,,,,,,,,,,,,,,,,,,
374857,001,2022-11-21_24h54.26.484,Info_measure_main_exp,2022.2.2,Win32,7.505479,,,,,,,,,,,,,,,,,,masks/mask_005.jpg,,,,,,,,,,,,,,,,,,,,,,,,,,,,,,,,,,,,,,,,,,,,,,,,0,2,2,4,1,,,,,,,,,,,,,,,,,,,,,,,,,,,,,,,,,,,,,,,,,
374857,001,2022-11-21_24h54.26.484,Info_measure_main_exp,2022.2.2,Win32,7.505479,,,,,,,,,,,,,,,,,,masks/mask_004.jpg,,,,,,,,,,,,,,,,,,,,,,,,,,,,,,,,,,,,,,,,,,,,,,,,0,3,3,3,1,,,,,,,,,,,,,,,,,,,,,,,,,,,,,,,,,,,,,,,,,
374857,001,2022-11-21_24h54.26.484,Info_measure_main_exp,2022.2.2,Win32,7.505479,,,,,,,,,,,,,,,,,,masks/mask_002.jpg,,,,,,,,,,,,,,,,,,,,,,,,,,,,,,,,,,,,,,,,,,,,,,,,0,4,4,1,1,,,,,,,,,,,,,,,,,,,,,,,,,,,,,,,,,,,,,,,,,
374857,001,2022-11-21_24h54.26.484,Info_measure_main_exp,2022.2.2,Win32,7.505479,,,,,,,,,,,,,,,,,,,,,,,,,,,,,,7,1.4881,1,,,,,,,,,,,,0,131,5,5,2082,2154,absent_patch/patch0002082.jpg,absent_patch/patch0002154.jpg,,,,,,,,,,,,,,,,,,,,0.085185185,0.140740741,1,0,0,response1disk,26,-0.002777778,-0.003703704,1,0,0,center_square,0,25,25,33,1,,,,,,,,,,,,,,,,,,,,,,,
374857,001,2022-11-21_24h54.26.484,Info_measure_main_exp,2022.2.2,Win32,7.505479,,,,,,,,,,,,,,,,,,masks/mask_004.jpg,,,,,,,,,,,,,,,,,,,,,,,,,,,,,,,,,,,,,,,,,,,0,0,0,3,1,,,,,,,,,,,,,,,,,,,,,,,,,,,,,,,,,,,,,,,,,,,,,,
374857,001,2022-11-21_24h54.26.484,Info_measure_main_exp,2022.2.2,Win32,7.505479,,,,,,,,,,,,,,,,,,masks/mask_003.jpg,,,,,,,,,,,,,,,,,,,,,,,,,,,,,,,,,,,,,,,,,,,0,1,1,2,1,,,,,,,,,,,,,,,,,,,,,,,,,,,,,,,,,,,,,,,,,,,,,,
374857,001,2022-11-21_24h54.26.484,Info_measure_main_exp,2022.2.2,Win32,7.505479,,,,,,,,,,,,,,,,,,masks/mask_005.jpg,,,,,,,,,,,,,,,,,,,,,,,,,,,,,,,,,,,,,,,,,,,0,2,2,4,1,,,,,,,,,,,,,,,,,,,,,,,,,,,,,,,,,,,,,,,,,,,,,,
374857,001,2022-11-21_24h54.26.484,Info_measure_main_exp,2022.2.2,Win32,7.505479,,,,,,,,,,,,,,,,,,masks/mask_001.jpg,,,,,,,,,,,,,,,,,,,,,,,,,,,,,,,,,,,,,,,,,,,0,3,3,0,1,,,,,,,,,,,,,,,,,,,,,,,,,,,,,,,,,,,,,,,,,,,,,,
374857,001,2022-11-21_24h54.26.484,Info_measure_main_exp,2022.2.2,Win32,7.505479,,,,,,,,,,,,,,,,,,masks/mask_002.jpg,,,,,,,,,,,,,,,,,,,,,,,,,,,,,,,,,,,,,,,,,,,0,4,4,1,1,,,,,,,,,,,,,,,,,,,,,,,,,,,,,,,,,,,,,,,,,,,,,,
374857,001,2022-11-21_24h54.26.484,Info_measure_main_exp,2022.2.2,Win32,7.505479,,,,,,,,,,,,,,,,,,masks/mask_003.jpg,,,,,,,,,,,,,,,,,,,,,,,,,,,,,,,,,,,,,,,,,,,,,,,,0,0,0,2,1,,,,,,,,,,,,,,,,,,,,,,,,,,,,,,,,,,,,,,,,,
374857,001,2022-11-21_24h54.26.484,Info_measure_main_exp,2022.2.2,Win32,7.505479,,,,,,,,,,,,,,,,,,masks/mask_005.jpg,,,,,,,,,,,,,,,,,,,,,,,,,,,,,,,,,,,,,,,,,,,,,,,,0,1,1,4,1,,,,,,,,,,,,,,,,,,,,,,,,,,,,,,,,,,,,,,,,,
374857,001,2022-11-21_24h54.26.484,Info_measure_main_exp,2022.2.2,Win32,7.505479,,,,,,,,,,,,,,,,,,masks/mask_004.jpg,,,,,,,,,,,,,,,,,,,,,,,,,,,,,,,,,,,,,,,,,,,,,,,,0,2,2,3,1,,,,,,,,,,,,,,,,,,,,,,,,,,,,,,,,,,,,,,,,,
374857,001,2022-11-21_24h54.26.484,Info_measure_main_exp,2022.2.2,Win32,7.505479,,,,,,,,,,,,,,,,,,masks/mask_002.jpg,,,,,,,,,,,,,,,,,,,,,,,,,,,,,,,,,,,,,,,,,,,,,,,,0,3,3,1,1,,,,,,,,,,,,,,,,,,,,,,,,,,,,,,,,,,,,,,,,,
374857,001,2022-11-21_24h54.26.484,Info_measure_main_exp,2022.2.2,Win32,7.505479,,,,,,,,,,,,,,,,,,masks/mask_001.jpg,,,,,,,,,,,,,,,,,,,,,,,,,,,,,,,,,,,,,,,,,,,,,,,,0,4,4,0,1,,,,,,,,,,,,,,,,,,,,,,,,,,,,,,,,,,,,,,,,,
374857,001,2022-11-21_24h54.26.484,Info_measure_main_exp,2022.2.2,Win32,7.505479,,,,,,,,,,,,,,,,,,,,,,,,,,,,,,4,3.3911,1,,,,,,,,,,,,1,131,5,5,1,2142,present_patch/cong_131_5_a.jpg,absent_patch/patch0002142.jpg,,,,,,,,,,,,,,,,,,,,0.087037037,-0.150925926,1,0,0,response3disk,27,-0.001851852,0.012962963,1,0,0,center_square,0,26,26,80,1,,,,,,,,,,,,,,,,,,,,,,,
374857,001,2022-11-21_24h54.26.484,Info_measure_main_exp,2022.2.2,Win32,7.505479,,,,,,,,,,,,,,,,,,masks/mask_004.jpg,,,,,,,,,,,,,,,,,,,,,,,,,,,,,,,,,,,,,,,,,,,0,0,0,3,1,,,,,,,,,,,,,,,,,,,,,,,,,,,,,,,,,,,,,,,,,,,,,,
374857,001,2022-11-21_24h54.26.484,Info_measure_main_exp,2022.2.2,Win32,7.505479,,,,,,,,,,,,,,,,,,masks/mask_003.jpg,,,,,,,,,,,,,,,,,,,,,,,,,,,,,,,,,,,,,,,,,,,0,1,1,2,1,,,,,,,,,,,,,,,,,,,,,,,,,,,,,,,,,,,,,,,,,,,,,,
374857,001,2022-11-21_24h54.26.484,Info_measure_main_exp,2022.2.2,Win32,7.505479,,,,,,,,,,,,,,,,,,masks/mask_001.jpg,,,,,,,,,,,,,,,,,,,,,,,,,,,,,,,,,,,,,,,,,,,0,2,2,0,1,,,,,,,,,,,,,,,,,,,,,,,,,,,,,,,,,,,,,,,,,,,,,,
374857,001,2022-11-21_24h54.26.484,Info_measure_main_exp,2022.2.2,Win32,7.505479,,,,,,,,,,,,,,,,,,masks/mask_002.jpg,,,,,,,,,,,,,,,,,,,,,,,,,,,,,,,,,,,,,,,,,,,0,3,3,1,1,,,,,,,,,,,,,,,,,,,,,,,,,,,,,,,,,,,,,,,,,,,,,,
374857,001,2022-11-21_24h54.26.484,Info_measure_main_exp,2022.2.2,Win32,7.505479,,,,,,,,,,,,,,,,,,masks/mask_005.jpg,,,,,,,,,,,,,,,,,,,,,,,,,,,,,,,,,,,,,,,,,,,0,4,4,4,1,,,,,,,,,,,,,,,,,,,,,,,,,,,,,,,,,,,,,,,,,,,,,,
374857,001,2022-11-21_24h54.26.484,Info_measure_main_exp,2022.2.2,Win32,7.505479,,,,,,,,,,,,,,,,,,masks/mask_004.jpg,,,,,,,,,,,,,,,,,,,,,,,,,,,,,,,,,,,,,,,,,,,,,,,,0,0,0,3,1,,,,,,,,,,,,,,,,,,,,,,,,,,,,,,,,,,,,,,,,,
374857,001,2022-11-21_24h54.26.484,Info_measure_main_exp,2022.2.2,Win32,7.505479,,,,,,,,,,,,,,,,,,masks/mask_005.jpg,,,,,,,,,,,,,,,,,,,,,,,,,,,,,,,,,,,,,,,,,,,,,,,,0,1,1,4,1,,,,,,,,,,,,,,,,,,,,,,,,,,,,,,,,,,,,,,,,,
374857,001,2022-11-21_24h54.26.484,Info_measure_main_exp,2022.2.2,Win32,7.505479,,,,,,,,,,,,,,,,,,masks/mask_003.jpg,,,,,,,,,,,,,,,,,,,,,,,,,,,,,,,,,,,,,,,,,,,,,,,,0,2,2,2,1,,,,,,,,,,,,,,,,,,,,,,,,,,,,,,,,,,,,,,,,,
374857,001,2022-11-21_24h54.26.484,Info_measure_main_exp,2022.2.2,Win32,7.505479,,,,,,,,,,,,,,,,,,masks/mask_002.jpg,,,,,,,,,,,,,,,,,,,,,,,,,,,,,,,,,,,,,,,,,,,,,,,,0,3,3,1,1,,,,,,,,,,,,,,,,,,,,,,,,,,,,,,,,,,,,,,,,,
374857,001,2022-11-21_24h54.26.484,Info_measure_main_exp,2022.2.2,Win32,7.505479,,,,,,,,,,,,,,,,,,masks/mask_001.jpg,,,,,,,,,,,,,,,,,,,,,,,,,,,,,,,,,,,,,,,,,,,,,,,,0,4,4,0,1,,,,,,,,,,,,,,,,,,,,,,,,,,,,,,,,,,,,,,,,,
374857,001,2022-11-21_24h54.26.484,Info_measure_main_exp,2022.2.2,Win32,7.505479,,,,,,,,,,,,,,,,,,,,,,,,,,,,,,5,1.7019,1,,,,,,,,,,,,0,131,5,5,1974,2298,absent_patch/patch0001974.jpg,absent_patch/patch0002298.jpg,,,,,,,,,,,,,,,,,,,,0.073148148,-0.042592593,1,0,0,response3disk,28,-0.005555556,-0.002777778,1,0,0,center_square,0,27,27,6,1,,,,,,,,,,,,,,,,,,,,,,,
374857,001,2022-11-21_24h54.26.484,Info_measure_main_exp,2022.2.2,Win32,7.505479,,,,,,,,,,,,,,,,,,masks/mask_003.jpg,,,,,,,,,,,,,,,,,,,,,,,,,,,,,,,,,,,,,,,,,,,0,0,0,2,1,,,,,,,,,,,,,,,,,,,,,,,,,,,,,,,,,,,,,,,,,,,,,,
374857,001,2022-11-21_24h54.26.484,Info_measure_main_exp,2022.2.2,Win32,7.505479,,,,,,,,,,,,,,,,,,masks/mask_005.jpg,,,,,,,,,,,,,,,,,,,,,,,,,,,,,,,,,,,,,,,,,,,0,1,1,4,1,,,,,,,,,,,,,,,,,,,,,,,,,,,,,,,,,,,,,,,,,,,,,,
374857,001,2022-11-21_24h54.26.484,Info_measure_main_exp,2022.2.2,Win32,7.505479,,,,,,,,,,,,,,,,,,masks/mask_002.jpg,,,,,,,,,,,,,,,,,,,,,,,,,,,,,,,,,,,,,,,,,,,0,2,2,1,1,,,,,,,,,,,,,,,,,,,,,,,,,,,,,,,,,,,,,,,,,,,,,,
374857,001,2022-11-21_24h54.26.484,Info_measure_main_exp,2022.2.2,Win32,7.505479,,,,,,,,,,,,,,,,,,masks/mask_004.jpg,,,,,,,,,,,,,,,,,,,,,,,,,,,,,,,,,,,,,,,,,,,0,3,3,3,1,,,,,,,,,,,,,,,,,,,,,,,,,,,,,,,,,,,,,,,,,,,,,,
374857,001,2022-11-21_24h54.26.484,Info_measure_main_exp,2022.2.2,Win32,7.505479,,,,,,,,,,,,,,,,,,masks/mask_001.jpg,,,,,,,,,,,,,,,,,,,,,,,,,,,,,,,,,,,,,,,,,,,0,4,4,0,1,,,,,,,,,,,,,,,,,,,,,,,,,,,,,,,,,,,,,,,,,,,,,,
374857,001,2022-11-21_24h54.26.484,Info_measure_main_exp,2022.2.2,Win32,7.505479,,,,,,,,,,,,,,,,,,masks/mask_003.jpg,,,,,,,,,,,,,,,,,,,,,,,,,,,,,,,,,,,,,,,,,,,,,,,,0,0,0,2,1,,,,,,,,,,,,,,,,,,,,,,,,,,,,,,,,,,,,,,,,,
374857,001,2022-11-21_24h54.26.484,Info_measure_main_exp,2022.2.2,Win32,7.505479,,,,,,,,,,,,,,,,,,masks/mask_004.jpg,,,,,,,,,,,,,,,,,,,,,,,,,,,,,,,,,,,,,,,,,,,,,,,,0,1,1,3,1,,,,,,,,,,,,,,,,,,,,,,,,,,,,,,,,,,,,,,,,,
374857,001,2022-11-21_24h54.26.484,Info_measure_main_exp,2022.2.2,Win32,7.505479,,,,,,,,,,,,,,,,,,masks/mask_001.jpg,,,,,,,,,,,,,,,,,,,,,,,,,,,,,,,,,,,,,,,,,,,,,,,,0,2,2,0,1,,,,,,,,,,,,,,,,,,,,,,,,,,,,,,,,,,,,,,,,,
374857,001,2022-11-21_24h54.26.484,Info_measure_main_exp,2022.2.2,Win32,7.505479,,,,,,,,,,,,,,,,,,masks/mask_005.jpg,,,,,,,,,,,,,,,,,,,,,,,,,,,,,,,,,,,,,,,,,,,,,,,,0,3,3,4,1,,,,,,,,,,,,,,,,,,,,,,,,,,,,,,,,,,,,,,,,,
374857,001,2022-11-21_24h54.26.484,Info_measure_main_exp,2022.2.2,Win32,7.505479,,,,,,,,,,,,,,,,,,masks/mask_002.jpg,,,,,,,,,,,,,,,,,,,,,,,,,,,,,,,,,,,,,,,,,,,,,,,,0,4,4,1,1,,,,,,,,,,,,,,,,,,,,,,,,,,,,,,,,,,,,,,,,,
374857,001,2022-11-21_24h54.26.484,Info_measure_main_exp,2022.2.2,Win32,7.505479,,,,,,,,,,,,,,,,,,,,,,,,,,,,,,7,1.3253,1,,,,,,,,,,,,0,131,5,5,1950,2214,absent_patch/patch0001950.jpg,absent_patch/patch0002214.jpg,,,,,,,,,,,,,,,,,,,,0.075,0.15462963,1,0,0,response1disk,29,0.00462963,-0.000925926,1,0,0,center_square,0,28,28,85,1,,,,,,,,,,,,,,,,,,,,,,,
374857,001,2022-11-21_24h54.26.484,Info_measure_main_exp,2022.2.2,Win32,7.505479,,,,,,,,,,,,,,,,,,masks/mask_001.jpg,,,,,,,,,,,,,,,,,,,,,,,,,,,,,,,,,,,,,,,,,,,0,0,0,0,1,,,,,,,,,,,,,,,,,,,,,,,,,,,,,,,,,,,,,,,,,,,,,,
374857,001,2022-11-21_24h54.26.484,Info_measure_main_exp,2022.2.2,Win32,7.505479,,,,,,,,,,,,,,,,,,masks/mask_002.jpg,,,,,,,,,,,,,,,,,,,,,,,,,,,,,,,,,,,,,,,,,,,0,1,1,1,1,,,,,,,,,,,,,,,,,,,,,,,,,,,,,,,,,,,,,,,,,,,,,,
374857,001,2022-11-21_24h54.26.484,Info_measure_main_exp,2022.2.2,Win32,7.505479,,,,,,,,,,,,,,,,,,masks/mask_003.jpg,,,,,,,,,,,,,,,,,,,,,,,,,,,,,,,,,,,,,,,,,,,0,2,2,2,1,,,,,,,,,,,,,,,,,,,,,,,,,,,,,,,,,,,,,,,,,,,,,,
374857,001,2022-11-21_24h54.26.484,Info_measure_main_exp,2022.2.2,Win32,7.505479,,,,,,,,,,,,,,,,,,masks/mask_004.jpg,,,,,,,,,,,,,,,,,,,,,,,,,,,,,,,,,,,,,,,,,,,0,3,3,3,1,,,,,,,,,,,,,,,,,,,,,,,,,,,,,,,,,,,,,,,,,,,,,,
374857,001,2022-11-21_24h54.26.484,Info_measure_main_exp,2022.2.2,Win32,7.505479,,,,,,,,,,,,,,,,,,masks/mask_005.jpg,,,,,,,,,,,,,,,,,,,,,,,,,,,,,,,,,,,,,,,,,,,0,4,4,4,1,,,,,,,,,,,,,,,,,,,,,,,,,,,,,,,,,,,,,,,,,,,,,,
374857,001,2022-11-21_24h54.26.484,Info_measure_main_exp,2022.2.2,Win32,7.505479,,,,,,,,,,,,,,,,,,masks/mask_004.jpg,,,,,,,,,,,,,,,,,,,,,,,,,,,,,,,,,,,,,,,,,,,,,,,,0,0,0,3,1,,,,,,,,,,,,,,,,,,,,,,,,,,,,,,,,,,,,,,,,,
374857,001,2022-11-21_24h54.26.484,Info_measure_main_exp,2022.2.2,Win32,7.505479,,,,,,,,,,,,,,,,,,masks/mask_003.jpg,,,,,,,,,,,,,,,,,,,,,,,,,,,,,,,,,,,,,,,,,,,,,,,,0,1,1,2,1,,,,,,,,,,,,,,,,,,,,,,,,,,,,,,,,,,,,,,,,,
374857,001,2022-11-21_24h54.26.484,Info_measure_main_exp,2022.2.2,Win32,7.505479,,,,,,,,,,,,,,,,,,masks/mask_001.jpg,,,,,,,,,,,,,,,,,,,,,,,,,,,,,,,,,,,,,,,,,,,,,,,,0,2,2,0,1,,,,,,,,,,,,,,,,,,,,,,,,,,,,,,,,,,,,,,,,,
374857,001,2022-11-21_24h54.26.484,Info_measure_main_exp,2022.2.2,Win32,7.505479,,,,,,,,,,,,,,,,,,masks/mask_002.jpg,,,,,,,,,,,,,,,,,,,,,,,,,,,,,,,,,,,,,,,,,,,,,,,,0,3,3,1,1,,,,,,,,,,,,,,,,,,,,,,,,,,,,,,,,,,,,,,,,,
374857,001,2022-11-21_24h54.26.484,Info_measure_main_exp,2022.2.2,Win32,7.505479,,,,,,,,,,,,,,,,,,masks/mask_005.jpg,,,,,,,,,,,,,,,,,,,,,,,,,,,,,,,,,,,,,,,,,,,,,,,,0,4,4,4,1,,,,,,,,,,,,,,,,,,,,,,,,,,,,,,,,,,,,,,,,,
374857,001,2022-11-21_24h54.26.484,Info_measure_main_exp,2022.2.2,Win32,7.505479,,,,,,,,,,,,,,,,,,,,,,,,,,,,,,6,2.2385,1,,,,,,,,,,,,0,131,5,5,2190,2166,absent_patch/patch0002190.jpg,absent_patch/patch0002166.jpg,,,,,,,,,,,,,,,,,,,,0.15462963,0.010185185,1,0,0,response1disk,30,0.000925926,-0.001851852,1,0,0,center_square,0,29,29,50,1,,,,,,,,,,,,,,,,,,,,,,,
374857,001,2022-11-21_24h54.26.484,Info_measure_main_exp,2022.2.2,Win32,7.505479,,,,,,,,,,,,,,,,,,masks/mask_001.jpg,,,,,,,,,,,,,,,,,,,,,,,,,,,,,,,,,,,,,,,,,,,0,0,0,0,1,,,,,,,,,,,,,,,,,,,,,,,,,,,,,,,,,,,,,,,,,,,,,,
374857,001,2022-11-21_24h54.26.484,Info_measure_main_exp,2022.2.2,Win32,7.505479,,,,,,,,,,,,,,,,,,masks/mask_003.jpg,,,,,,,,,,,,,,,,,,,,,,,,,,,,,,,,,,,,,,,,,,,0,1,1,2,1,,,,,,,,,,,,,,,,,,,,,,,,,,,,,,,,,,,,,,,,,,,,,,
374857,001,2022-11-21_24h54.26.484,Info_measure_main_exp,2022.2.2,Win32,7.505479,,,,,,,,,,,,,,,,,,masks/mask_005.jpg,,,,,,,,,,,,,,,,,,,,,,,,,,,,,,,,,,,,,,,,,,,0,2,2,4,1,,,,,,,,,,,,,,,,,,,,,,,,,,,,,,,,,,,,,,,,,,,,,,
374857,001,2022-11-21_24h54.26.484,Info_measure_main_exp,2022.2.2,Win32,7.505479,,,,,,,,,,,,,,,,,,masks/mask_004.jpg,,,,,,,,,,,,,,,,,,,,,,,,,,,,,,,,,,,,,,,,,,,0,3,3,3,1,,,,,,,,,,,,,,,,,,,,,,,,,,,,,,,,,,,,,,,,,,,,,,
374857,001,2022-11-21_24h54.26.484,Info_measure_main_exp,2022.2.2,Win32,7.505479,,,,,,,,,,,,,,,,,,masks/mask_002.jpg,,,,,,,,,,,,,,,,,,,,,,,,,,,,,,,,,,,,,,,,,,,0,4,4,1,1,,,,,,,,,,,,,,,,,,,,,,,,,,,,,,,,,,,,,,,,,,,,,,
374857,001,2022-11-21_24h54.26.484,Info_measure_main_exp,2022.2.2,Win32,7.505479,,,,,,,,,,,,,,,,,,masks/mask_004.jpg,,,,,,,,,,,,,,,,,,,,,,,,,,,,,,,,,,,,,,,,,,,,,,,,0,0,0,3,1,,,,,,,,,,,,,,,,,,,,,,,,,,,,,,,,,,,,,,,,,
374857,001,2022-11-21_24h54.26.484,Info_measure_main_exp,2022.2.2,Win32,7.505479,,,,,,,,,,,,,,,,,,masks/mask_005.jpg,,,,,,,,,,,,,,,,,,,,,,,,,,,,,,,,,,,,,,,,,,,,,,,,0,1,1,4,1,,,,,,,,,,,,,,,,,,,,,,,,,,,,,,,,,,,,,,,,,
374857,001,2022-11-21_24h54.26.484,Info_measure_main_exp,2022.2.2,Win32,7.505479,,,,,,,,,,,,,,,,,,masks/mask_003.jpg,,,,,,,,,,,,,,,,,,,,,,,,,,,,,,,,,,,,,,,,,,,,,,,,0,2,2,2,1,,,,,,,,,,,,,,,,,,,,,,,,,,,,,,,,,,,,,,,,,
374857,001,2022-11-21_24h54.26.484,Info_measure_main_exp,2022.2.2,Win32,7.505479,,,,,,,,,,,,,,,,,,masks/mask_002.jpg,,,,,,,,,,,,,,,,,,,,,,,,,,,,,,,,,,,,,,,,,,,,,,,,0,3,3,1,1,,,,,,,,,,,,,,,,,,,,,,,,,,,,,,,,,,,,,,,,,
374857,001,2022-11-21_24h54.26.484,Info_measure_main_exp,2022.2.2,Win32,7.505479,,,,,,,,,,,,,,,,,,masks/mask_001.jpg,,,,,,,,,,,,,,,,,,,,,,,,,,,,,,,,,,,,,,,,,,,,,,,,0,4,4,0,1,,,,,,,,,,,,,,,,,,,,,,,,,,,,,,,,,,,,,,,,,
374857,001,2022-11-21_24h54.26.484,Info_measure_main_exp,2022.2.2,Win32,7.505479,,,,,,,,,,,,,,,,,,,,,,,,,,,,,,6,1.6847,1,,,,,,,,,,,,0,131,5,5,1950,2298,absent_patch/patch0001950.jpg,absent_patch/patch0002298.jpg,,,,,,,,,,,,,,,,,,,,0.19537037,0.065740741,1,0,0,response1disk,31,0.007407407,0.000925926,1,0,0,center_square,0,30,30,18,1,,,,,,,,,,,,,,,,,,,,,,,
374857,001,2022-11-21_24h54.26.484,Info_measure_main_exp,2022.2.2,Win32,7.505479,,,,,,,,,,,,,,,,,,masks/mask_003.jpg,,,,,,,,,,,,,,,,,,,,,,,,,,,,,,,,,,,,,,,,,,,0,0,0,2,1,,,,,,,,,,,,,,,,,,,,,,,,,,,,,,,,,,,,,,,,,,,,,,
374857,001,2022-11-21_24h54.26.484,Info_measure_main_exp,2022.2.2,Win32,7.505479,,,,,,,,,,,,,,,,,,masks/mask_005.jpg,,,,,,,,,,,,,,,,,,,,,,,,,,,,,,,,,,,,,,,,,,,0,1,1,4,1,,,,,,,,,,,,,,,,,,,,,,,,,,,,,,,,,,,,,,,,,,,,,,
374857,001,2022-11-21_24h54.26.484,Info_measure_main_exp,2022.2.2,Win32,7.505479,,,,,,,,,,,,,,,,,,masks/mask_002.jpg,,,,,,,,,,,,,,,,,,,,,,,,,,,,,,,,,,,,,,,,,,,0,2,2,1,1,,,,,,,,,,,,,,,,,,,,,,,,,,,,,,,,,,,,,,,,,,,,,,
374857,001,2022-11-21_24h54.26.484,Info_measure_main_exp,2022.2.2,Win32,7.505479,,,,,,,,,,,,,,,,,,masks/mask_004.jpg,,,,,,,,,,,,,,,,,,,,,,,,,,,,,,,,,,,,,,,,,,,0,3,3,3,1,,,,,,,,,,,,,,,,,,,,,,,,,,,,,,,,,,,,,,,,,,,,,,
374857,001,2022-11-21_24h54.26.484,Info_measure_main_exp,2022.2.2,Win32,7.505479,,,,,,,,,,,,,,,,,,masks/mask_001.jpg,,,,,,,,,,,,,,,,,,,,,,,,,,,,,,,,,,,,,,,,,,,0,4,4,0,1,,,,,,,,,,,,,,,,,,,,,,,,,,,,,,,,,,,,,,,,,,,,,,
374857,001,2022-11-21_24h54.26.484,Info_measure_main_exp,2022.2.2,Win32,7.505479,,,,,,,,,,,,,,,,,,masks/mask_005.jpg,,,,,,,,,,,,,,,,,,,,,,,,,,,,,,,,,,,,,,,,,,,,,,,,0,0,0,4,1,,,,,,,,,,,,,,,,,,,,,,,,,,,,,,,,,,,,,,,,,
374857,001,2022-11-21_24h54.26.484,Info_measure_main_exp,2022.2.2,Win32,7.505479,,,,,,,,,,,,,,,,,,masks/mask_004.jpg,,,,,,,,,,,,,,,,,,,,,,,,,,,,,,,,,,,,,,,,,,,,,,,,0,1,1,3,1,,,,,,,,,,,,,,,,,,,,,,,,,,,,,,,,,,,,,,,,,
374857,001,2022-11-21_24h54.26.484,Info_measure_main_exp,2022.2.2,Win32,7.505479,,,,,,,,,,,,,,,,,,masks/mask_003.jpg,,,,,,,,,,,,,,,,,,,,,,,,,,,,,,,,,,,,,,,,,,,,,,,,0,2,2,2,1,,,,,,,,,,,,,,,,,,,,,,,,,,,,,,,,,,,,,,,,,
374857,001,2022-11-21_24h54.26.484,Info_measure_main_exp,2022.2.2,Win32,7.505479,,,,,,,,,,,,,,,,,,masks/mask_002.jpg,,,,,,,,,,,,,,,,,,,,,,,,,,,,,,,,,,,,,,,,,,,,,,,,0,3,3,1,1,,,,,,,,,,,,,,,,,,,,,,,,,,,,,,,,,,,,,,,,,
374857,001,2022-11-21_24h54.26.484,Info_measure_main_exp,2022.2.2,Win32,7.505479,,,,,,,,,,,,,,,,,,masks/mask_001.jpg,,,,,,,,,,,,,,,,,,,,,,,,,,,,,,,,,,,,,,,,,,,,,,,,0,4,4,0,1,,,,,,,,,,,,,,,,,,,,,,,,,,,,,,,,,,,,,,,,,
374857,001,2022-11-21_24h54.26.484,Info_measure_main_exp,2022.2.2,Win32,7.505479,,,,,,,,,,,,,,,,,,,,,,,,,,,,,,7,1.8903,1,,,,,,,,,,,,0,131,5,5,2178,2154,absent_patch/patch0002178.jpg,absent_patch/patch0002154.jpg,,,,,,,,,,,,,,,,,,,,0.062037037,0.176851852,1,0,0,response1disk,32,0.003703704,-0.007407407,1,0,0,center_square,0,31,31,63,1,,,,,,,,,,,,,,,,,,,,,,,
374857,001,2022-11-21_24h54.26.484,Info_measure_main_exp,2022.2.2,Win32,7.505479,,,,,,,,,,,,,,,,,,masks/mask_005.jpg,,,,,,,,,,,,,,,,,,,,,,,,,,,,,,,,,,,,,,,,,,,0,0,0,4,1,,,,,,,,,,,,,,,,,,,,,,,,,,,,,,,,,,,,,,,,,,,,,,
374857,001,2022-11-21_24h54.26.484,Info_measure_main_exp,2022.2.2,Win32,7.505479,,,,,,,,,,,,,,,,,,masks/mask_001.jpg,,,,,,,,,,,,,,,,,,,,,,,,,,,,,,,,,,,,,,,,,,,0,1,1,0,1,,,,,,,,,,,,,,,,,,,,,,,,,,,,,,,,,,,,,,,,,,,,,,
374857,001,2022-11-21_24h54.26.484,Info_measure_main_exp,2022.2.2,Win32,7.505479,,,,,,,,,,,,,,,,,,masks/mask_004.jpg,,,,,,,,,,,,,,,,,,,,,,,,,,,,,,,,,,,,,,,,,,,0,2,2,3,1,,,,,,,,,,,,,,,,,,,,,,,,,,,,,,,,,,,,,,,,,,,,,,
374857,001,2022-11-21_24h54.26.484,Info_measure_main_exp,2022.2.2,Win32,7.505479,,,,,,,,,,,,,,,,,,masks/mask_003.jpg,,,,,,,,,,,,,,,,,,,,,,,,,,,,,,,,,,,,,,,,,,,0,3,3,2,1,,,,,,,,,,,,,,,,,,,,,,,,,,,,,,,,,,,,,,,,,,,,,,
374857,001,2022-11-21_24h54.26.484,Info_measure_main_exp,2022.2.2,Win32,7.505479,,,,,,,,,,,,,,,,,,masks/mask_002.jpg,,,,,,,,,,,,,,,,,,,,,,,,,,,,,,,,,,,,,,,,,,,0,4,4,1,1,,,,,,,,,,,,,,,,,,,,,,,,,,,,,,,,,,,,,,,,,,,,,,
374857,001,2022-11-21_24h54.26.484,Info_measure_main_exp,2022.2.2,Win32,7.505479,,,,,,,,,,,,,,,,,,masks/mask_005.jpg,,,,,,,,,,,,,,,,,,,,,,,,,,,,,,,,,,,,,,,,,,,,,,,,0,0,0,4,1,,,,,,,,,,,,,,,,,,,,,,,,,,,,,,,,,,,,,,,,,
374857,001,2022-11-21_24h54.26.484,Info_measure_main_exp,2022.2.2,Win32,7.505479,,,,,,,,,,,,,,,,,,masks/mask_002.jpg,,,,,,,,,,,,,,,,,,,,,,,,,,,,,,,,,,,,,,,,,,,,,,,,0,1,1,1,1,,,,,,,,,,,,,,,,,,,,,,,,,,,,,,,,,,,,,,,,,
374857,001,2022-11-21_24h54.26.484,Info_measure_main_exp,2022.2.2,Win32,7.505479,,,,,,,,,,,,,,,,,,masks/mask_003.jpg,,,,,,,,,,,,,,,,,,,,,,,,,,,,,,,,,,,,,,,,,,,,,,,,0,2,2,2,1,,,,,,,,,,,,,,,,,,,,,,,,,,,,,,,,,,,,,,,,,
374857,001,2022-11-21_24h54.26.484,Info_measure_main_exp,2022.2.2,Win32,7.505479,,,,,,,,,,,,,,,,,,masks/mask_004.jpg,,,,,,,,,,,,,,,,,,,,,,,,,,,,,,,,,,,,,,,,,,,,,,,,0,3,3,3,1,,,,,,,,,,,,,,,,,,,,,,,,,,,,,,,,,,,,,,,,,
374857,001,2022-11-21_24h54.26.484,Info_measure_main_exp,2022.2.2,Win32,7.505479,,,,,,,,,,,,,,,,,,masks/mask_001.jpg,,,,,,,,,,,,,,,,,,,,,,,,,,,,,,,,,,,,,,,,,,,,,,,,0,4,4,0,1,,,,,,,,,,,,,,,,,,,,,,,,,,,,,,,,,,,,,,,,,
374857,001,2022-11-21_24h54.26.484,Info_measure_main_exp,2022.2.2,Win32,7.505479,,,,,,,,,,,,,,,,,,,,,,,,,,,,,,5,2.8251,1,,,,,,,,,,,,0,131,5,5,1974,2142,absent_patch/patch0001974.jpg,absent_patch/patch0002142.jpg,,,,,,,,,,,,,,,,,,,,0.135185185,-0.065740741,1,0,0,response3disk,33,-0.001851852,-0.010185185,1,0,0,center_square,0,32,32,38,1,,,,,,,,,,,,,,,,,,,,,,,
374857,001,2022-11-21_24h54.26.484,Info_measure_main_exp,2022.2.2,Win32,7.505479,,,,,,,,,,,,,,,,,,masks/mask_001.jpg,,,,,,,,,,,,,,,,,,,,,,,,,,,,,,,,,,,,,,,,,,,0,0,0,0,1,,,,,,,,,,,,,,,,,,,,,,,,,,,,,,,,,,,,,,,,,,,,,,
374857,001,2022-11-21_24h54.26.484,Info_measure_main_exp,2022.2.2,Win32,7.505479,,,,,,,,,,,,,,,,,,masks/mask_002.jpg,,,,,,,,,,,,,,,,,,,,,,,,,,,,,,,,,,,,,,,,,,,0,1,1,1,1,,,,,,,,,,,,,,,,,,,,,,,,,,,,,,,,,,,,,,,,,,,,,,
374857,001,2022-11-21_24h54.26.484,Info_measure_main_exp,2022.2.2,Win32,7.505479,,,,,,,,,,,,,,,,,,masks/mask_003.jpg,,,,,,,,,,,,,,,,,,,,,,,,,,,,,,,,,,,,,,,,,,,0,2,2,2,1,,,,,,,,,,,,,,,,,,,,,,,,,,,,,,,,,,,,,,,,,,,,,,
374857,001,2022-11-21_24h54.26.484,Info_measure_main_exp,2022.2.2,Win32,7.505479,,,,,,,,,,,,,,,,,,masks/mask_004.jpg,,,,,,,,,,,,,,,,,,,,,,,,,,,,,,,,,,,,,,,,,,,0,3,3,3,1,,,,,,,,,,,,,,,,,,,,,,,,,,,,,,,,,,,,,,,,,,,,,,
374857,001,2022-11-21_24h54.26.484,Info_measure_main_exp,2022.2.2,Win32,7.505479,,,,,,,,,,,,,,,,,,masks/mask_005.jpg,,,,,,,,,,,,,,,,,,,,,,,,,,,,,,,,,,,,,,,,,,,0,4,4,4,1,,,,,,,,,,,,,,,,,,,,,,,,,,,,,,,,,,,,,,,,,,,,,,
374857,001,2022-11-21_24h54.26.484,Info_measure_main_exp,2022.2.2,Win32,7.505479,,,,,,,,,,,,,,,,,,masks/mask_003.jpg,,,,,,,,,,,,,,,,,,,,,,,,,,,,,,,,,,,,,,,,,,,,,,,,0,0,0,2,1,,,,,,,,,,,,,,,,,,,,,,,,,,,,,,,,,,,,,,,,,
374857,001,2022-11-21_24h54.26.484,Info_measure_main_exp,2022.2.2,Win32,7.505479,,,,,,,,,,,,,,,,,,masks/mask_005.jpg,,,,,,,,,,,,,,,,,,,,,,,,,,,,,,,,,,,,,,,,,,,,,,,,0,1,1,4,1,,,,,,,,,,,,,,,,,,,,,,,,,,,,,,,,,,,,,,,,,
374857,001,2022-11-21_24h54.26.484,Info_measure_main_exp,2022.2.2,Win32,7.505479,,,,,,,,,,,,,,,,,,masks/mask_002.jpg,,,,,,,,,,,,,,,,,,,,,,,,,,,,,,,,,,,,,,,,,,,,,,,,0,2,2,1,1,,,,,,,,,,,,,,,,,,,,,,,,,,,,,,,,,,,,,,,,,
374857,001,2022-11-21_24h54.26.484,Info_measure_main_exp,2022.2.2,Win32,7.505479,,,,,,,,,,,,,,,,,,masks/mask_001.jpg,,,,,,,,,,,,,,,,,,,,,,,,,,,,,,,,,,,,,,,,,,,,,,,,0,3,3,0,1,,,,,,,,,,,,,,,,,,,,,,,,,,,,,,,,,,,,,,,,,
374857,001,2022-11-21_24h54.26.484,Info_measure_main_exp,2022.2.2,Win32,7.505479,,,,,,,,,,,,,,,,,,masks/mask_004.jpg,,,,,,,,,,,,,,,,,,,,,,,,,,,,,,,,,,,,,,,,,,,,,,,,0,4,4,3,1,,,,,,,,,,,,,,,,,,,,,,,,,,,,,,,,,,,,,,,,,
374857,001,2022-11-21_24h54.26.484,Info_measure_main_exp,2022.2.2,Win32,7.505479,,,,,,,,,,,,,,,,,,,,,,,,,,,,,,2,1.8811,1,,,,,,,,,,,,0,131,5,5,2274,2082,absent_patch/patch0002274.jpg,absent_patch/patch0002082.jpg,,,,,,,,,,,,,,,,,,,,-0.137037037,-0.041666667,1,0,0,response5disk,34,0.000925926,-0.002777778,1,0,0,center_square,0,33,33,100,1,,,,,,,,,,,,,,,,,,,,,,,
374857,001,2022-11-21_24h54.26.484,Info_measure_main_exp,2022.2.2,Win32,7.505479,,,,,,,,,,,,,,,,,,masks/mask_005.jpg,,,,,,,,,,,,,,,,,,,,,,,,,,,,,,,,,,,,,,,,,,,0,0,0,4,1,,,,,,,,,,,,,,,,,,,,,,,,,,,,,,,,,,,,,,,,,,,,,,
374857,001,2022-11-21_24h54.26.484,Info_measure_main_exp,2022.2.2,Win32,7.505479,,,,,,,,,,,,,,,,,,masks/mask_001.jpg,,,,,,,,,,,,,,,,,,,,,,,,,,,,,,,,,,,,,,,,,,,0,1,1,0,1,,,,,,,,,,,,,,,,,,,,,,,,,,,,,,,,,,,,,,,,,,,,,,
374857,001,2022-11-21_24h54.26.484,Info_measure_main_exp,2022.2.2,Win32,7.505479,,,,,,,,,,,,,,,,,,masks/mask_003.jpg,,,,,,,,,,,,,,,,,,,,,,,,,,,,,,,,,,,,,,,,,,,0,2,2,2,1,,,,,,,,,,,,,,,,,,,,,,,,,,,,,,,,,,,,,,,,,,,,,,
374857,001,2022-11-21_24h54.26.484,Info_measure_main_exp,2022.2.2,Win32,7.505479,,,,,,,,,,,,,,,,,,masks/mask_002.jpg,,,,,,,,,,,,,,,,,,,,,,,,,,,,,,,,,,,,,,,,,,,0,3,3,1,1,,,,,,,,,,,,,,,,,,,,,,,,,,,,,,,,,,,,,,,,,,,,,,
374857,001,2022-11-21_24h54.26.484,Info_measure_main_exp,2022.2.2,Win32,7.505479,,,,,,,,,,,,,,,,,,masks/mask_004.jpg,,,,,,,,,,,,,,,,,,,,,,,,,,,,,,,,,,,,,,,,,,,0,4,4,3,1,,,,,,,,,,,,,,,,,,,,,,,,,,,,,,,,,,,,,,,,,,,,,,
374857,001,2022-11-21_24h54.26.484,Info_measure_main_exp,2022.2.2,Win32,7.505479,,,,,,,,,,,,,,,,,,masks/mask_001.jpg,,,,,,,,,,,,,,,,,,,,,,,,,,,,,,,,,,,,,,,,,,,,,,,,0,0,0,0,1,,,,,,,,,,,,,,,,,,,,,,,,,,,,,,,,,,,,,,,,,
374857,001,2022-11-21_24h54.26.484,Info_measure_main_exp,2022.2.2,Win32,7.505479,,,,,,,,,,,,,,,,,,masks/mask_005.jpg,,,,,,,,,,,,,,,,,,,,,,,,,,,,,,,,,,,,,,,,,,,,,,,,0,1,1,4,1,,,,,,,,,,,,,,,,,,,,,,,,,,,,,,,,,,,,,,,,,
374857,001,2022-11-21_24h54.26.484,Info_measure_main_exp,2022.2.2,Win32,7.505479,,,,,,,,,,,,,,,,,,masks/mask_004.jpg,,,,,,,,,,,,,,,,,,,,,,,,,,,,,,,,,,,,,,,,,,,,,,,,0,2,2,3,1,,,,,,,,,,,,,,,,,,,,,,,,,,,,,,,,,,,,,,,,,
374857,001,2022-11-21_24h54.26.484,Info_measure_main_exp,2022.2.2,Win32,7.505479,,,,,,,,,,,,,,,,,,masks/mask_003.jpg,,,,,,,,,,,,,,,,,,,,,,,,,,,,,,,,,,,,,,,,,,,,,,,,0,3,3,2,1,,,,,,,,,,,,,,,,,,,,,,,,,,,,,,,,,,,,,,,,,
374857,001,2022-11-21_24h54.26.484,Info_measure_main_exp,2022.2.2,Win32,7.505479,,,,,,,,,,,,,,,,,,masks/mask_002.jpg,,,,,,,,,,,,,,,,,,,,,,,,,,,,,,,,,,,,,,,,,,,,,,,,0,4,4,1,1,,,,,,,,,,,,,,,,,,,,,,,,,,,,,,,,,,,,,,,,,
374857,001,2022-11-21_24h54.26.484,Info_measure_main_exp,2022.2.2,Win32,7.505479,,,,,,,,,,,,,,,,,,,,,,,,,,,,,,7,1.4866,1,,,,,,,,,,,,1,131,5,5,2298,1,absent_patch/patch0002298.jpg,present_patch/cong_131_5_a.jpg,,,,,,,,,,,,,,,,,,,,0.072222222,0.153703704,1,0,0,response1disk,35,-0.002777778,-0.003703704,1,0,0,center_square,0,34,34,45,1,,,,,,,,,,,,,,,,,,,,,,,
374857,001,2022-11-21_24h54.26.484,Info_measure_main_exp,2022.2.2,Win32,7.505479,,,,,,,,,,,,,,,,,,masks/mask_001.jpg,,,,,,,,,,,,,,,,,,,,,,,,,,,,,,,,,,,,,,,,,,,0,0,0,0,1,,,,,,,,,,,,,,,,,,,,,,,,,,,,,,,,,,,,,,,,,,,,,,
374857,001,2022-11-21_24h54.26.484,Info_measure_main_exp,2022.2.2,Win32,7.505479,,,,,,,,,,,,,,,,,,masks/mask_004.jpg,,,,,,,,,,,,,,,,,,,,,,,,,,,,,,,,,,,,,,,,,,,0,1,1,3,1,,,,,,,,,,,,,,,,,,,,,,,,,,,,,,,,,,,,,,,,,,,,,,
374857,001,2022-11-21_24h54.26.484,Info_measure_main_exp,2022.2.2,Win32,7.505479,,,,,,,,,,,,,,,,,,masks/mask_003.jpg,,,,,,,,,,,,,,,,,,,,,,,,,,,,,,,,,,,,,,,,,,,0,2,2,2,1,,,,,,,,,,,,,,,,,,,,,,,,,,,,,,,,,,,,,,,,,,,,,,
