participant,session,date,expName,psychopyVersion,OS,frameRate,space_press_continue.keys,space_press_continue.rt,space_press_continue_2.keys,space_press_continue_2.rt,space_press_continue_3.keys,space_press_continue_3.rt,space_press_continue_4.keys,space_press_continue_4.rt,space_press_continue_5.keys,space_press_continue_5.rt,space_press_continue_6.keys,space_press_continue_6.rt,prac_mask_loop_1.thisRepN,prac_mask_loop_1.thisTrialN,prac_mask_loop_1.thisN,prac_mask_loop_1.thisIndex,prac_mask_loop_1.ran,mask_name,prac_mask_loop_2.thisRepN,prac_mask_loop_2.thisTrialN,prac_mask_loop_2.thisN,prac_mask_loop_2.thisIndex,prac_mask_loop_2.ran,mouse_2.x,mouse_2.y,mouse_2.leftButton,mouse_2.midButton,mouse_2.rightButton,mouse_2.clicked_name,similarity,response_time,Pass,mouse_12.x,mouse_12.y,mouse_12.leftButton,mouse_12.midButton,mouse_12.rightButton,mouse_12.clicked_name,prac_loop.thisRepN,prac_loop.thisTrialN,prac_loop.thisN,prac_loop.thisIndex,prac_loop.ran,Pair_type,Image_num,Patch_1_loc,Patch_2_loc,Patch_1_info,Patch_2_info,Patch_1_name,Patch_2_name,mouse_1.x,mouse_1.y,mouse_1.leftButton,mouse_1.midButton,mouse_1.rightButton,mouse_1.time,mouse_1.clicked_name,space_press_continue_7.keys,space_press_continue_7.rt,mask_loop.thisRepN,mask_loop.thisTrialN,mask_loop.thisN,mask_loop.thisIndex,mask_loop.ran,mask_loop_2.thisRepN,mask_loop_2.thisTrialN,mask_loop_2.thisN,mask_loop_2.thisIndex,mask_loop_2.ran,mouse.x,mouse.y,mouse.leftButton,mouse.midButton,mouse.rightButton,mouse.clicked_name,trialNumber,mouse_11.x,mouse_11.y,mouse_11.leftButton,mouse_11.midButton,mouse_11.rightButton,mouse_11.clicked_name,first_pass_loop.thisRepN,first_pass_loop.thisTrialN,first_pass_loop.thisN,first_pass_loop.thisIndex,first_pass_loop.ran,mask_loop_3.thisRepN,mask_loop_3.thisTrialN,mask_loop_3.thisN,mask_loop_3.thisIndex,mask_loop_3.ran,mask_loop_4.thisRepN,mask_loop_4.thisTrialN,mask_loop_4.thisN,mask_loop_4.thisIndex,mask_loop_4.ran,mouse_3.x,mouse_3.y,mouse_3.leftButton,mouse_3.midButton,mouse_3.rightButton,mouse_3.clicked_name,double_pass_loop.thisRepN,double_pass_loop.thisTrialN,double_pass_loop.thisN,double_pass_loop.thisIndex,double_pass_loop.ran,space_exit.keys,space_exit.rt
376799,001,2022-11-21_00h57.50.550,Info_measure_main_exp,2022.2.2,Win32,144.092219,,,,,,,,,,,,,,,,,,,,,,,,,,,,,,,,,,,,,,,,,,,,,,,,,,,,,,,,,,,,,,,,,,,,,,,,,,,,,,,,,,,,,,,,,,,,,,,,,,,,,,,,,,,,,,,
376799,001,2022-11-21_00h57.50.550,Info_measure_main_exp,2022.2.2,Win32,144.092219,,,,,,,,,,,,,,,,,,,,,,,,,,,,,,,,,,,,,,,,,,,,,,,,,,,,,,,,,,,,,,,,,,,,,,,,,,,,,,,,,,,,,,,,,,,,,,,,,,,,,,,,,,,,,,,
376799,001,2022-11-21_00h57.50.550,Info_measure_main_exp,2022.2.2,Win32,144.092219,space,10.501,,,,,,,,,,,,,,,,,,,,,,,,,,,,,,,,,,,,,,,,,,,,,,,,,,,,,,,,,,,,,,,,,,,,,,,,,,,,,,,,,,,,,,,,,,,,,,,,,,,,,,,,,,,,,
376799,001,2022-11-21_00h57.50.550,Info_measure_main_exp,2022.2.2,Win32,144.092219,,,space,28.73,,,,,,,,,,,,,,,,,,,,,,,,,,,,,,,,,,,,,,,,,,,,,,,,,,,,,,,,,,,,,,,,,,,,,,,,,,,,,,,,,,,,,,,,,,,,,,,,,,,,,,,,,,,
376799,001,2022-11-21_00h57.50.550,Info_measure_main_exp,2022.2.2,Win32,144.092219,,,,,space,9.075,,,,,,,,,,,,,,,,,,,,,,,,,,,,,,,,,,,,,,,,,,,,,,,,,,,,,,,,,,,,,,,,,,,,,,,,,,,,,,,,,,,,,,,,,,,,,,,,,,,,,,,,,
376799,001,2022-11-21_00h57.50.550,Info_measure_main_exp,2022.2.2,Win32,144.092219,,,,,,,space,26.159,,,,,,,,,,,,,,,,,,,,,,,,,,,,,,,,,,,,,,,,,,,,,,,,,,,,,,,,,,,,,,,,,,,,,,,,,,,,,,,,,,,,,,,,,,,,,,,,,,,,,,,
376799,001,2022-11-21_00h57.50.550,Info_measure_main_exp,2022.2.2,Win32,144.092219,,,,,,,,,space,13.568,,,,,,,,,,,,,,,,,,,,,,,,,,,,,,,,,,,,,,,,,,,,,,,,,,,,,,,,,,,,,,,,,,,,,,,,,,,,,,,,,,,,,,,,,,,,,,,,,,,,,
376799,001,2022-11-21_00h57.50.550,Info_measure_main_exp,2022.2.2,Win32,144.092219,,,,,,,,,,,space,5.63,,,,,,,,,,,,,,,,,,,,,,,,,,,,,,,,,,,,,,,,,,,,,,,,,,,,,,,,,,,,,,,,,,,,,,,,,,,,,,,,,,,,,,,,,,,,,,,,,,,
376799,001,2022-11-21_00h57.50.550,Info_measure_main_exp,2022.2.2,Win32,144.092219,,,,,,,,,,,,,0,0,0,1,1,masks/mask_002.jpg,,,,,,,,,,,,,,,,,,,,,,,,,,,,,,,,,,,,,,,,,,,,,,,,,,,,,,,,,,,,,,,,,,,,,,,,,,,,,,,,,,,,,,,,,,,,,
376799,001,2022-11-21_00h57.50.550,Info_measure_main_exp,2022.2.2,Win32,144.092219,,,,,,,,,,,,,0,1,1,3,1,masks/mask_004.jpg,,,,,,,,,,,,,,,,,,,,,,,,,,,,,,,,,,,,,,,,,,,,,,,,,,,,,,,,,,,,,,,,,,,,,,,,,,,,,,,,,,,,,,,,,,,,,
376799,001,2022-11-21_00h57.50.550,Info_measure_main_exp,2022.2.2,Win32,144.092219,,,,,,,,,,,,,0,2,2,4,1,masks/mask_005.jpg,,,,,,,,,,,,,,,,,,,,,,,,,,,,,,,,,,,,,,,,,,,,,,,,,,,,,,,,,,,,,,,,,,,,,,,,,,,,,,,,,,,,,,,,,,,,,
376799,001,2022-11-21_00h57.50.550,Info_measure_main_exp,2022.2.2,Win32,144.092219,,,,,,,,,,,,,0,3,3,0,1,masks/mask_001.jpg,,,,,,,,,,,,,,,,,,,,,,,,,,,,,,,,,,,,,,,,,,,,,,,,,,,,,,,,,,,,,,,,,,,,,,,,,,,,,,,,,,,,,,,,,,,,,
376799,001,2022-11-21_00h57.50.550,Info_measure_main_exp,2022.2.2,Win32,144.092219,,,,,,,,,,,,,0,4,4,2,1,masks/mask_003.jpg,,,,,,,,,,,,,,,,,,,,,,,,,,,,,,,,,,,,,,,,,,,,,,,,,,,,,,,,,,,,,,,,,,,,,,,,,,,,,,,,,,,,,,,,,,,,,
376799,001,2022-11-21_00h57.50.550,Info_measure_main_exp,2022.2.2,Win32,144.092219,,,,,,,,,,,,,,,,,,masks/mask_003.jpg,0,0,0,2,1,,,,,,,,,,,,,,,,,,,,,,,,,,,,,,,,,,,,,,,,,,,,,,,,,,,,,,,,,,,,,,,,,,,,,,,,,,,,,,,,,,,,,,,,
376799,001,2022-11-21_00h57.50.550,Info_measure_main_exp,2022.2.2,Win32,144.092219,,,,,,,,,,,,,,,,,,masks/mask_002.jpg,0,1,1,1,1,,,,,,,,,,,,,,,,,,,,,,,,,,,,,,,,,,,,,,,,,,,,,,,,,,,,,,,,,,,,,,,,,,,,,,,,,,,,,,,,,,,,,,,,
376799,001,2022-11-21_00h57.50.550,Info_measure_main_exp,2022.2.2,Win32,144.092219,,,,,,,,,,,,,,,,,,masks/mask_005.jpg,0,2,2,4,1,,,,,,,,,,,,,,,,,,,,,,,,,,,,,,,,,,,,,,,,,,,,,,,,,,,,,,,,,,,,,,,,,,,,,,,,,,,,,,,,,,,,,,,,
376799,001,2022-11-21_00h57.50.550,Info_measure_main_exp,2022.2.2,Win32,144.092219,,,,,,,,,,,,,,,,,,masks/mask_004.jpg,0,3,3,3,1,,,,,,,,,,,,,,,,,,,,,,,,,,,,,,,,,,,,,,,,,,,,,,,,,,,,,,,,,,,,,,,,,,,,,,,,,,,,,,,,,,,,,,,,
376799,001,2022-11-21_00h57.50.550,Info_measure_main_exp,2022.2.2,Win32,144.092219,,,,,,,,,,,,,,,,,,masks/mask_001.jpg,0,4,4,0,1,,,,,,,,,,,,,,,,,,,,,,,,,,,,,,,,,,,,,,,,,,,,,,,,,,,,,,,,,,,,,,,,,,,,,,,,,,,,,,,,,,,,,,,,
376799,001,2022-11-21_00h57.50.550,Info_measure_main_exp,2022.2.2,Win32,144.092219,,,,,,,,,,,,,,,,,,,,,,,,0.037037037,-0.101851852,1,0,0,response3disk,4,105.674,1,-0.002314815,-0.002314815,1,0,0,center_square,0,0,0,2,1,0,131,5,5,2526,2526,prac_patch/patch0002526.jpg,prac_patch/patch0002526.jpg,,,,,,,,,,,,,,,,,,,,,,,,,,,,,,,,,,,,,,,,,,,,,,,,,,,,,,,,,,,,
376799,001,2022-11-21_00h57.50.550,Info_measure_main_exp,2022.2.2,Win32,144.092219,,,,,,,,,,,,,0,0,0,4,1,masks/mask_005.jpg,,,,,,,,,,,,,,,,,,,,,,,,,,,,,,,,,,,,,,,,,,,,,,,,,,,,,,,,,,,,,,,,,,,,,,,,,,,,,,,,,,,,,,,,,,,,,
376799,001,2022-11-21_00h57.50.550,Info_measure_main_exp,2022.2.2,Win32,144.092219,,,,,,,,,,,,,0,1,1,0,1,masks/mask_001.jpg,,,,,,,,,,,,,,,,,,,,,,,,,,,,,,,,,,,,,,,,,,,,,,,,,,,,,,,,,,,,,,,,,,,,,,,,,,,,,,,,,,,,,,,,,,,,,
376799,001,2022-11-21_00h57.50.550,Info_measure_main_exp,2022.2.2,Win32,144.092219,,,,,,,,,,,,,0,2,2,2,1,masks/mask_003.jpg,,,,,,,,,,,,,,,,,,,,,,,,,,,,,,,,,,,,,,,,,,,,,,,,,,,,,,,,,,,,,,,,,,,,,,,,,,,,,,,,,,,,,,,,,,,,,
376799,001,2022-11-21_00h57.50.550,Info_measure_main_exp,2022.2.2,Win32,144.092219,,,,,,,,,,,,,0,3,3,1,1,masks/mask_002.jpg,,,,,,,,,,,,,,,,,,,,,,,,,,,,,,,,,,,,,,,,,,,,,,,,,,,,,,,,,,,,,,,,,,,,,,,,,,,,,,,,,,,,,,,,,,,,,
376799,001,2022-11-21_00h57.50.550,Info_measure_main_exp,2022.2.2,Win32,144.092219,,,,,,,,,,,,,0,4,4,3,1,masks/mask_004.jpg,,,,,,,,,,,,,,,,,,,,,,,,,,,,,,,,,,,,,,,,,,,,,,,,,,,,,,,,,,,,,,,,,,,,,,,,,,,,,,,,,,,,,,,,,,,,,
376799,001,2022-11-21_00h57.50.550,Info_measure_main_exp,2022.2.2,Win32,144.092219,,,,,,,,,,,,,,,,,,masks/mask_004.jpg,0,0,0,3,1,,,,,,,,,,,,,,,,,,,,,,,,,,,,,,,,,,,,,,,,,,,,,,,,,,,,,,,,,,,,,,,,,,,,,,,,,,,,,,,,,,,,,,,,
376799,001,2022-11-21_00h57.50.550,Info_measure_main_exp,2022.2.2,Win32,144.092219,,,,,,,,,,,,,,,,,,masks/mask_002.jpg,0,1,1,1,1,,,,,,,,,,,,,,,,,,,,,,,,,,,,,,,,,,,,,,,,,,,,,,,,,,,,,,,,,,,,,,,,,,,,,,,,,,,,,,,,,,,,,,,,
376799,001,2022-11-21_00h57.50.550,Info_measure_main_exp,2022.2.2,Win32,144.092219,,,,,,,,,,,,,,,,,,masks/mask_001.jpg,0,2,2,0,1,,,,,,,,,,,,,,,,,,,,,,,,,,,,,,,,,,,,,,,,,,,,,,,,,,,,,,,,,,,,,,,,,,,,,,,,,,,,,,,,,,,,,,,,
376799,001,2022-11-21_00h57.50.550,Info_measure_main_exp,2022.2.2,Win32,144.092219,,,,,,,,,,,,,,,,,,masks/mask_005.jpg,0,3,3,4,1,,,,,,,,,,,,,,,,,,,,,,,,,,,,,,,,,,,,,,,,,,,,,,,,,,,,,,,,,,,,,,,,,,,,,,,,,,,,,,,,,,,,,,,,
376799,001,2022-11-21_00h57.50.550,Info_measure_main_exp,2022.2.2,Win32,144.092219,,,,,,,,,,,,,,,,,,masks/mask_003.jpg,0,4,4,2,1,,,,,,,,,,,,,,,,,,,,,,,,,,,,,,,,,,,,,,,,,,,,,,,,,,,,,,,,,,,,,,,,,,,,,,,,,,,,,,,,,,,,,,,,
376799,001,2022-11-21_00h57.50.550,Info_measure_main_exp,2022.2.2,Win32,144.092219,,,,,,,,,,,,,,,,,,,,,,,,-0.016203704,-0.052083333,1,0,0,response5disk,3,124.099,1,-0.002314815,-0.002314815,1,0,0,center_square,0,1,1,0,1,0,131,5,5,2370,2406,prac_patch/patch0002370.jpg,prac_patch/patch0002406.jpg,,,,,,,,,,,,,,,,,,,,,,,,,,,,,,,,,,,,,,,,,,,,,,,,,,,,,,,,,,,,
376799,001,2022-11-21_00h57.50.550,Info_measure_main_exp,2022.2.2,Win32,144.092219,,,,,,,,,,,,,0,0,0,3,1,masks/mask_004.jpg,,,,,,,,,,,,,,,,,,,,,,,,,,,,,,,,,,,,,,,,,,,,,,,,,,,,,,,,,,,,,,,,,,,,,,,,,,,,,,,,,,,,,,,,,,,,,
376799,001,2022-11-21_00h57.50.550,Info_measure_main_exp,2022.2.2,Win32,144.092219,,,,,,,,,,,,,0,1,1,2,1,masks/mask_003.jpg,,,,,,,,,,,,,,,,,,,,,,,,,,,,,,,,,,,,,,,,,,,,,,,,,,,,,,,,,,,,,,,,,,,,,,,,,,,,,,,,,,,,,,,,,,,,,
376799,001,2022-11-21_00h57.50.550,Info_measure_main_exp,2022.2.2,Win32,144.092219,,,,,,,,,,,,,0,2,2,1,1,masks/mask_002.jpg,,,,,,,,,,,,,,,,,,,,,,,,,,,,,,,,,,,,,,,,,,,,,,,,,,,,,,,,,,,,,,,,,,,,,,,,,,,,,,,,,,,,,,,,,,,,,
376799,001,2022-11-21_00h57.50.550,Info_measure_main_exp,2022.2.2,Win32,144.092219,,,,,,,,,,,,,0,3,3,4,1,masks/mask_005.jpg,,,,,,,,,,,,,,,,,,,,,,,,,,,,,,,,,,,,,,,,,,,,,,,,,,,,,,,,,,,,,,,,,,,,,,,,,,,,,,,,,,,,,,,,,,,,,
376799,001,2022-11-21_00h57.50.550,Info_measure_main_exp,2022.2.2,Win32,144.092219,,,,,,,,,,,,,0,4,4,0,1,masks/mask_001.jpg,,,,,,,,,,,,,,,,,,,,,,,,,,,,,,,,,,,,,,,,,,,,,,,,,,,,,,,,,,,,,,,,,,,,,,,,,,,,,,,,,,,,,,,,,,,,,
376799,001,2022-11-21_00h57.50.550,Info_measure_main_exp,2022.2.2,Win32,144.092219,,,,,,,,,,,,,,,,,,masks/mask_005.jpg,0,0,0,4,1,,,,,,,,,,,,,,,,,,,,,,,,,,,,,,,,,,,,,,,,,,,,,,,,,,,,,,,,,,,,,,,,,,,,,,,,,,,,,,,,,,,,,,,,
376799,001,2022-11-21_00h57.50.550,Info_measure_main_exp,2022.2.2,Win32,144.092219,,,,,,,,,,,,,,,,,,masks/mask_002.jpg,0,1,1,1,1,,,,,,,,,,,,,,,,,,,,,,,,,,,,,,,,,,,,,,,,,,,,,,,,,,,,,,,,,,,,,,,,,,,,,,,,,,,,,,,,,,,,,,,,
376799,001,2022-11-21_00h57.50.550,Info_measure_main_exp,2022.2.2,Win32,144.092219,,,,,,,,,,,,,,,,,,masks/mask_004.jpg,0,2,2,3,1,,,,,,,,,,,,,,,,,,,,,,,,,,,,,,,,,,,,,,,,,,,,,,,,,,,,,,,,,,,,,,,,,,,,,,,,,,,,,,,,,,,,,,,,
376799,001,2022-11-21_00h57.50.550,Info_measure_main_exp,2022.2.2,Win32,144.092219,,,,,,,,,,,,,,,,,,masks/mask_001.jpg,0,3,3,0,1,,,,,,,,,,,,,,,,,,,,,,,,,,,,,,,,,,,,,,,,,,,,,,,,,,,,,,,,,,,,,,,,,,,,,,,,,,,,,,,,,,,,,,,,
376799,001,2022-11-21_00h57.50.550,Info_measure_main_exp,2022.2.2,Win32,144.092219,,,,,,,,,,,,,,,,,,masks/mask_003.jpg,0,4,4,2,1,,,,,,,,,,,,,,,,,,,,,,,,,,,,,,,,,,,,,,,,,,,,,,,,,,,,,,,,,,,,,,,,,,,,,,,,,,,,,,,,,,,,,,,,
376799,001,2022-11-21_00h57.50.550,Info_measure_main_exp,2022.2.2,Win32,144.092219,,,,,,,,,,,,,,,,,,,,,,,,-0.113425926,-0.025462963,1,0,0,response5disk,2,134.445,1,0.008101852,0.003472222,1,0,0,center_square,0,2,2,1,1,0,131,5,5,2514,2490,prac_patch/patch0002514.jpg,prac_patch/patch0002490.jpg,,,,,,,,,,,,,,,,,,,,,,,,,,,,,,,,,,,,,,,,,,,,,,,,,,,,,,,,,,,,
376799,001,2022-11-21_00h57.50.550,Info_measure_main_exp,2022.2.2,Win32,144.092219,,,,,,,,,,,,,,,,,,,,,,,,,,,,,,,,,,,,,,,,,,,,,,,,,,,,,,,,,,,space,3.664,,,,,,,,,,,,,,,,,,,,,,,,,,,,,,,,,,,,,,,,,,,,,,,,,,,
376799,001,2022-11-21_00h57.50.550,Info_measure_main_exp,2022.2.2,Win32,144.092219,,,,,,,,,,,,,,,,,,masks/mask_005.jpg,,,,,,,,,,,,,,,,,,,,,,,,,,,,,,,,,,,,,,,,,,,0,0,0,4,1,,,,,,,,,,,,,,,,,,,,,,,,,,,,,,,,,,,,,,,,,,,,,,
376799,001,2022-11-21_00h57.50.550,Info_measure_main_exp,2022.2.2,Win32,144.092219,,,,,,,,,,,,,,,,,,masks/mask_002.jpg,,,,,,,,,,,,,,,,,,,,,,,,,,,,,,,,,,,,,,,,,,,0,1,1,1,1,,,,,,,,,,,,,,,,,,,,,,,,,,,,,,,,,,,,,,,,,,,,,,
376799,001,2022-11-21_00h57.50.550,Info_measure_main_exp,2022.2.2,Win32,144.092219,,,,,,,,,,,,,,,,,,masks/mask_001.jpg,,,,,,,,,,,,,,,,,,,,,,,,,,,,,,,,,,,,,,,,,,,0,2,2,0,1,,,,,,,,,,,,,,,,,,,,,,,,,,,,,,,,,,,,,,,,,,,,,,
376799,001,2022-11-21_00h57.50.550,Info_measure_main_exp,2022.2.2,Win32,144.092219,,,,,,,,,,,,,,,,,,masks/mask_003.jpg,,,,,,,,,,,,,,,,,,,,,,,,,,,,,,,,,,,,,,,,,,,0,3,3,2,1,,,,,,,,,,,,,,,,,,,,,,,,,,,,,,,,,,,,,,,,,,,,,,
376799,001,2022-11-21_00h57.50.550,Info_measure_main_exp,2022.2.2,Win32,144.092219,,,,,,,,,,,,,,,,,,masks/mask_004.jpg,,,,,,,,,,,,,,,,,,,,,,,,,,,,,,,,,,,,,,,,,,,0,4,4,3,1,,,,,,,,,,,,,,,,,,,,,,,,,,,,,,,,,,,,,,,,,,,,,,
376799,001,2022-11-21_00h57.50.550,Info_measure_main_exp,2022.2.2,Win32,144.092219,,,,,,,,,,,,,,,,,,masks/mask_001.jpg,,,,,,,,,,,,,,,,,,,,,,,,,,,,,,,,,,,,,,,,,,,,,,,,0,0,0,0,1,,,,,,,,,,,,,,,,,,,,,,,,,,,,,,,,,,,,,,,,,
376799,001,2022-11-21_00h57.50.550,Info_measure_main_exp,2022.2.2,Win32,144.092219,,,,,,,,,,,,,,,,,,masks/mask_003.jpg,,,,,,,,,,,,,,,,,,,,,,,,,,,,,,,,,,,,,,,,,,,,,,,,0,1,1,2,1,,,,,,,,,,,,,,,,,,,,,,,,,,,,,,,,,,,,,,,,,
376799,001,2022-11-21_00h57.50.550,Info_measure_main_exp,2022.2.2,Win32,144.092219,,,,,,,,,,,,,,,,,,masks/mask_005.jpg,,,,,,,,,,,,,,,,,,,,,,,,,,,,,,,,,,,,,,,,,,,,,,,,0,2,2,4,1,,,,,,,,,,,,,,,,,,,,,,,,,,,,,,,,,,,,,,,,,
376799,001,2022-11-21_00h57.50.550,Info_measure_main_exp,2022.2.2,Win32,144.092219,,,,,,,,,,,,,,,,,,masks/mask_004.jpg,,,,,,,,,,,,,,,,,,,,,,,,,,,,,,,,,,,,,,,,,,,,,,,,0,3,3,3,1,,,,,,,,,,,,,,,,,,,,,,,,,,,,,,,,,,,,,,,,,
376799,001,2022-11-21_00h57.50.550,Info_measure_main_exp,2022.2.2,Win32,144.092219,,,,,,,,,,,,,,,,,,masks/mask_002.jpg,,,,,,,,,,,,,,,,,,,,,,,,,,,,,,,,,,,,,,,,,,,,,,,,0,4,4,1,1,,,,,,,,,,,,,,,,,,,,,,,,,,,,,,,,,,,,,,,,,
376799,001,2022-11-21_00h57.50.550,Info_measure_main_exp,2022.2.2,Win32,144.092219,,,,,,,,,,,,,,,,,,,,,,,,,,,,,,6,2.312,1,,,,,,,,,,,,1,131,5,5,1,1974,present_patch/cong_131_5_a.jpg,absent_patch/patch0001974.jpg,,,,,,,,,,,,,,,,,,,,0.09375,0.037037037,1,0,0,response1disk,1,0.002314815,-0.002314815,1,0,0,center_square,0,0,0,69,1,,,,,,,,,,,,,,,,,,,,,,,
376799,001,2022-11-21_00h57.50.550,Info_measure_main_exp,2022.2.2,Win32,144.092219,,,,,,,,,,,,,,,,,,masks/mask_003.jpg,,,,,,,,,,,,,,,,,,,,,,,,,,,,,,,,,,,,,,,,,,,0,0,0,2,1,,,,,,,,,,,,,,,,,,,,,,,,,,,,,,,,,,,,,,,,,,,,,,
376799,001,2022-11-21_00h57.50.550,Info_measure_main_exp,2022.2.2,Win32,144.092219,,,,,,,,,,,,,,,,,,masks/mask_001.jpg,,,,,,,,,,,,,,,,,,,,,,,,,,,,,,,,,,,,,,,,,,,0,1,1,0,1,,,,,,,,,,,,,,,,,,,,,,,,,,,,,,,,,,,,,,,,,,,,,,
376799,001,2022-11-21_00h57.50.550,Info_measure_main_exp,2022.2.2,Win32,144.092219,,,,,,,,,,,,,,,,,,masks/mask_005.jpg,,,,,,,,,,,,,,,,,,,,,,,,,,,,,,,,,,,,,,,,,,,0,2,2,4,1,,,,,,,,,,,,,,,,,,,,,,,,,,,,,,,,,,,,,,,,,,,,,,
376799,001,2022-11-21_00h57.50.550,Info_measure_main_exp,2022.2.2,Win32,144.092219,,,,,,,,,,,,,,,,,,masks/mask_004.jpg,,,,,,,,,,,,,,,,,,,,,,,,,,,,,,,,,,,,,,,,,,,0,3,3,3,1,,,,,,,,,,,,,,,,,,,,,,,,,,,,,,,,,,,,,,,,,,,,,,
376799,001,2022-11-21_00h57.50.550,Info_measure_main_exp,2022.2.2,Win32,144.092219,,,,,,,,,,,,,,,,,,masks/mask_002.jpg,,,,,,,,,,,,,,,,,,,,,,,,,,,,,,,,,,,,,,,,,,,0,4,4,1,1,,,,,,,,,,,,,,,,,,,,,,,,,,,,,,,,,,,,,,,,,,,,,,
376799,001,2022-11-21_00h57.50.550,Info_measure_main_exp,2022.2.2,Win32,144.092219,,,,,,,,,,,,,,,,,,masks/mask_001.jpg,,,,,,,,,,,,,,,,,,,,,,,,,,,,,,,,,,,,,,,,,,,,,,,,0,0,0,0,1,,,,,,,,,,,,,,,,,,,,,,,,,,,,,,,,,,,,,,,,,
376799,001,2022-11-21_00h57.50.550,Info_measure_main_exp,2022.2.2,Win32,144.092219,,,,,,,,,,,,,,,,,,masks/mask_002.jpg,,,,,,,,,,,,,,,,,,,,,,,,,,,,,,,,,,,,,,,,,,,,,,,,0,1,1,1,1,,,,,,,,,,,,,,,,,,,,,,,,,,,,,,,,,,,,,,,,,
376799,001,2022-11-21_00h57.50.550,Info_measure_main_exp,2022.2.2,Win32,144.092219,,,,,,,,,,,,,,,,,,masks/mask_003.jpg,,,,,,,,,,,,,,,,,,,,,,,,,,,,,,,,,,,,,,,,,,,,,,,,0,2,2,2,1,,,,,,,,,,,,,,,,,,,,,,,,,,,,,,,,,,,,,,,,,
376799,001,2022-11-21_00h57.50.550,Info_measure_main_exp,2022.2.2,Win32,144.092219,,,,,,,,,,,,,,,,,,masks/mask_005.jpg,,,,,,,,,,,,,,,,,,,,,,,,,,,,,,,,,,,,,,,,,,,,,,,,0,3,3,4,1,,,,,,,,,,,,,,,,,,,,,,,,,,,,,,,,,,,,,,,,,
376799,001,2022-11-21_00h57.50.550,Info_measure_main_exp,2022.2.2,Win32,144.092219,,,,,,,,,,,,,,,,,,masks/mask_004.jpg,,,,,,,,,,,,,,,,,,,,,,,,,,,,,,,,,,,,,,,,,,,,,,,,0,4,4,3,1,,,,,,,,,,,,,,,,,,,,,,,,,,,,,,,,,,,,,,,,,
376799,001,2022-11-21_00h57.50.550,Info_measure_main_exp,2022.2.2,Win32,144.092219,,,,,,,,,,,,,,,,,,,,,,,,,,,,,,1,2.467,1,,,,,,,,,,,,0,131,5,5,1986,2154,absent_patch/patch0001986.jpg,absent_patch/patch0002154.jpg,,,,,,,,,,,,,,,,,,,,-0.146990741,0.054398148,1,0,0,response7disk,2,-0.008101852,0.006944444,1,0,0,center_square,0,1,1,36,1,,,,,,,,,,,,,,,,,,,,,,,
376799,001,2022-11-21_00h57.50.550,Info_measure_main_exp,2022.2.2,Win32,144.092219,,,,,,,,,,,,,,,,,,masks/mask_002.jpg,,,,,,,,,,,,,,,,,,,,,,,,,,,,,,,,,,,,,,,,,,,0,0,0,1,1,,,,,,,,,,,,,,,,,,,,,,,,,,,,,,,,,,,,,,,,,,,,,,
376799,001,2022-11-21_00h57.50.550,Info_measure_main_exp,2022.2.2,Win32,144.092219,,,,,,,,,,,,,,,,,,masks/mask_004.jpg,,,,,,,,,,,,,,,,,,,,,,,,,,,,,,,,,,,,,,,,,,,0,1,1,3,1,,,,,,,,,,,,,,,,,,,,,,,,,,,,,,,,,,,,,,,,,,,,,,
376799,001,2022-11-21_00h57.50.550,Info_measure_main_exp,2022.2.2,Win32,144.092219,,,,,,,,,,,,,,,,,,masks/mask_005.jpg,,,,,,,,,,,,,,,,,,,,,,,,,,,,,,,,,,,,,,,,,,,0,2,2,4,1,,,,,,,,,,,,,,,,,,,,,,,,,,,,,,,,,,,,,,,,,,,,,,
376799,001,2022-11-21_00h57.50.550,Info_measure_main_exp,2022.2.2,Win32,144.092219,,,,,,,,,,,,,,,,,,masks/mask_003.jpg,,,,,,,,,,,,,,,,,,,,,,,,,,,,,,,,,,,,,,,,,,,0,3,3,2,1,,,,,,,,,,,,,,,,,,,,,,,,,,,,,,,,,,,,,,,,,,,,,,
376799,001,2022-11-21_00h57.50.550,Info_measure_main_exp,2022.2.2,Win32,144.092219,,,,,,,,,,,,,,,,,,masks/mask_001.jpg,,,,,,,,,,,,,,,,,,,,,,,,,,,,,,,,,,,,,,,,,,,0,4,4,0,1,,,,,,,,,,,,,,,,,,,,,,,,,,,,,,,,,,,,,,,,,,,,,,
376799,001,2022-11-21_00h57.50.550,Info_measure_main_exp,2022.2.2,Win32,144.092219,,,,,,,,,,,,,,,,,,masks/mask_001.jpg,,,,,,,,,,,,,,,,,,,,,,,,,,,,,,,,,,,,,,,,,,,,,,,,0,0,0,0,1,,,,,,,,,,,,,,,,,,,,,,,,,,,,,,,,,,,,,,,,,
376799,001,2022-11-21_00h57.50.550,Info_measure_main_exp,2022.2.2,Win32,144.092219,,,,,,,,,,,,,,,,,,masks/mask_005.jpg,,,,,,,,,,,,,,,,,,,,,,,,,,,,,,,,,,,,,,,,,,,,,,,,0,1,1,4,1,,,,,,,,,,,,,,,,,,,,,,,,,,,,,,,,,,,,,,,,,
376799,001,2022-11-21_00h57.50.550,Info_measure_main_exp,2022.2.2,Win32,144.092219,,,,,,,,,,,,,,,,,,masks/mask_003.jpg,,,,,,,,,,,,,,,,,,,,,,,,,,,,,,,,,,,,,,,,,,,,,,,,0,2,2,2,1,,,,,,,,,,,,,,,,,,,,,,,,,,,,,,,,,,,,,,,,,
376799,001,2022-11-21_00h57.50.550,Info_measure_main_exp,2022.2.2,Win32,144.092219,,,,,,,,,,,,,,,,,,masks/mask_004.jpg,,,,,,,,,,,,,,,,,,,,,,,,,,,,,,,,,,,,,,,,,,,,,,,,0,3,3,3,1,,,,,,,,,,,,,,,,,,,,,,,,,,,,,,,,,,,,,,,,,
376799,001,2022-11-21_00h57.50.550,Info_measure_main_exp,2022.2.2,Win32,144.092219,,,,,,,,,,,,,,,,,,masks/mask_002.jpg,,,,,,,,,,,,,,,,,,,,,,,,,,,,,,,,,,,,,,,,,,,,,,,,0,4,4,1,1,,,,,,,,,,,,,,,,,,,,,,,,,,,,,,,,,,,,,,,,,
376799,001,2022-11-21_00h57.50.550,Info_measure_main_exp,2022.2.2,Win32,144.092219,,,,,,,,,,,,,,,,,,,,,,,,,,,,,,3,4.015,1,,,,,,,,,,,,0,131,5,5,1950,2142,absent_patch/patch0001950.jpg,absent_patch/patch0002142.jpg,,,,,,,,,,,,,,,,,,,,-0.039351852,-0.123842593,1,0,0,response5disk,3,-0.003472222,-0.00462963,1,0,0,center_square,0,2,2,83,1,,,,,,,,,,,,,,,,,,,,,,,
376799,001,2022-11-21_00h57.50.550,Info_measure_main_exp,2022.2.2,Win32,144.092219,,,,,,,,,,,,,,,,,,masks/mask_001.jpg,,,,,,,,,,,,,,,,,,,,,,,,,,,,,,,,,,,,,,,,,,,0,0,0,0,1,,,,,,,,,,,,,,,,,,,,,,,,,,,,,,,,,,,,,,,,,,,,,,
376799,001,2022-11-21_00h57.50.550,Info_measure_main_exp,2022.2.2,Win32,144.092219,,,,,,,,,,,,,,,,,,masks/mask_004.jpg,,,,,,,,,,,,,,,,,,,,,,,,,,,,,,,,,,,,,,,,,,,0,1,1,3,1,,,,,,,,,,,,,,,,,,,,,,,,,,,,,,,,,,,,,,,,,,,,,,
376799,001,2022-11-21_00h57.50.550,Info_measure_main_exp,2022.2.2,Win32,144.092219,,,,,,,,,,,,,,,,,,masks/mask_003.jpg,,,,,,,,,,,,,,,,,,,,,,,,,,,,,,,,,,,,,,,,,,,0,2,2,2,1,,,,,,,,,,,,,,,,,,,,,,,,,,,,,,,,,,,,,,,,,,,,,,
376799,001,2022-11-21_00h57.50.550,Info_measure_main_exp,2022.2.2,Win32,144.092219,,,,,,,,,,,,,,,,,,masks/mask_005.jpg,,,,,,,,,,,,,,,,,,,,,,,,,,,,,,,,,,,,,,,,,,,0,3,3,4,1,,,,,,,,,,,,,,,,,,,,,,,,,,,,,,,,,,,,,,,,,,,,,,
376799,001,2022-11-21_00h57.50.550,Info_measure_main_exp,2022.2.2,Win32,144.092219,,,,,,,,,,,,,,,,,,masks/mask_002.jpg,,,,,,,,,,,,,,,,,,,,,,,,,,,,,,,,,,,,,,,,,,,0,4,4,1,1,,,,,,,,,,,,,,,,,,,,,,,,,,,,,,,,,,,,,,,,,,,,,,
376799,001,2022-11-21_00h57.50.550,Info_measure_main_exp,2022.2.2,Win32,144.092219,,,,,,,,,,,,,,,,,,masks/mask_001.jpg,,,,,,,,,,,,,,,,,,,,,,,,,,,,,,,,,,,,,,,,,,,,,,,,0,0,0,0,1,,,,,,,,,,,,,,,,,,,,,,,,,,,,,,,,,,,,,,,,,
376799,001,2022-11-21_00h57.50.550,Info_measure_main_exp,2022.2.2,Win32,144.092219,,,,,,,,,,,,,,,,,,masks/mask_002.jpg,,,,,,,,,,,,,,,,,,,,,,,,,,,,,,,,,,,,,,,,,,,,,,,,0,1,1,1,1,,,,,,,,,,,,,,,,,,,,,,,,,,,,,,,,,,,,,,,,,
376799,001,2022-11-21_00h57.50.550,Info_measure_main_exp,2022.2.2,Win32,144.092219,,,,,,,,,,,,,,,,,,masks/mask_005.jpg,,,,,,,,,,,,,,,,,,,,,,,,,,,,,,,,,,,,,,,,,,,,,,,,0,2,2,4,1,,,,,,,,,,,,,,,,,,,,,,,,,,,,,,,,,,,,,,,,,
376799,001,2022-11-21_00h57.50.550,Info_measure_main_exp,2022.2.2,Win32,144.092219,,,,,,,,,,,,,,,,,,masks/mask_004.jpg,,,,,,,,,,,,,,,,,,,,,,,,,,,,,,,,,,,,,,,,,,,,,,,,0,3,3,3,1,,,,,,,,,,,,,,,,,,,,,,,,,,,,,,,,,,,,,,,,,
376799,001,2022-11-21_00h57.50.550,Info_measure_main_exp,2022.2.2,Win32,144.092219,,,,,,,,,,,,,,,,,,masks/mask_003.jpg,,,,,,,,,,,,,,,,,,,,,,,,,,,,,,,,,,,,,,,,,,,,,,,,0,4,4,2,1,,,,,,,,,,,,,,,,,,,,,,,,,,,,,,,,,,,,,,,,,
376799,001,2022-11-21_00h57.50.550,Info_measure_main_exp,2022.2.2,Win32,144.092219,,,,,,,,,,,,,,,,,,,,,,,,,,,,,,3,3.878,1,,,,,,,,,,,,0,131,5,5,2298,2190,absent_patch/patch0002298.jpg,absent_patch/patch0002190.jpg,,,,,,,,,,,,,,,,,,,,-0.039351852,-0.090277778,1,0,0,response5disk,4,0.002314815,-0.00462963,1,0,0,center_square,0,3,3,20,1,,,,,,,,,,,,,,,,,,,,,,,
376799,001,2022-11-21_00h57.50.550,Info_measure_main_exp,2022.2.2,Win32,144.092219,,,,,,,,,,,,,,,,,,masks/mask_001.jpg,,,,,,,,,,,,,,,,,,,,,,,,,,,,,,,,,,,,,,,,,,,0,0,0,0,1,,,,,,,,,,,,,,,,,,,,,,,,,,,,,,,,,,,,,,,,,,,,,,
376799,001,2022-11-21_00h57.50.550,Info_measure_main_exp,2022.2.2,Win32,144.092219,,,,,,,,,,,,,,,,,,masks/mask_004.jpg,,,,,,,,,,,,,,,,,,,,,,,,,,,,,,,,,,,,,,,,,,,0,1,1,3,1,,,,,,,,,,,,,,,,,,,,,,,,,,,,,,,,,,,,,,,,,,,,,,
376799,001,2022-11-21_00h57.50.550,Info_measure_main_exp,2022.2.2,Win32,144.092219,,,,,,,,,,,,,,,,,,masks/mask_002.jpg,,,,,,,,,,,,,,,,,,,,,,,,,,,,,,,,,,,,,,,,,,,0,2,2,1,1,,,,,,,,,,,,,,,,,,,,,,,,,,,,,,,,,,,,,,,,,,,,,,
376799,001,2022-11-21_00h57.50.550,Info_measure_main_exp,2022.2.2,Win32,144.092219,,,,,,,,,,,,,,,,,,masks/mask_003.jpg,,,,,,,,,,,,,,,,,,,,,,,,,,,,,,,,,,,,,,,,,,,0,3,3,2,1,,,,,,,,,,,,,,,,,,,,,,,,,,,,,,,,,,,,,,,,,,,,,,
376799,001,2022-11-21_00h57.50.550,Info_measure_main_exp,2022.2.2,Win32,144.092219,,,,,,,,,,,,,,,,,,masks/mask_005.jpg,,,,,,,,,,,,,,,,,,,,,,,,,,,,,,,,,,,,,,,,,,,0,4,4,4,1,,,,,,,,,,,,,,,,,,,,,,,,,,,,,,,,,,,,,,,,,,,,,,
376799,001,2022-11-21_00h57.50.550,Info_measure_main_exp,2022.2.2,Win32,144.092219,,,,,,,,,,,,,,,,,,masks/mask_003.jpg,,,,,,,,,,,,,,,,,,,,,,,,,,,,,,,,,,,,,,,,,,,,,,,,0,0,0,2,1,,,,,,,,,,,,,,,,,,,,,,,,,,,,,,,,,,,,,,,,,
376799,001,2022-11-21_00h57.50.550,Info_measure_main_exp,2022.2.2,Win32,144.092219,,,,,,,,,,,,,,,,,,masks/mask_001.jpg,,,,,,,,,,,,,,,,,,,,,,,,,,,,,,,,,,,,,,,,,,,,,,,,0,1,1,0,1,,,,,,,,,,,,,,,,,,,,,,,,,,,,,,,,,,,,,,,,,
376799,001,2022-11-21_00h57.50.550,Info_measure_main_exp,2022.2.2,Win32,144.092219,,,,,,,,,,,,,,,,,,masks/mask_005.jpg,,,,,,,,,,,,,,,,,,,,,,,,,,,,,,,,,,,,,,,,,,,,,,,,0,2,2,4,1,,,,,,,,,,,,,,,,,,,,,,,,,,,,,,,,,,,,,,,,,
376799,001,2022-11-21_00h57.50.550,Info_measure_main_exp,2022.2.2,Win32,144.092219,,,,,,,,,,,,,,,,,,masks/mask_004.jpg,,,,,,,,,,,,,,,,,,,,,,,,,,,,,,,,,,,,,,,,,,,,,,,,0,3,3,3,1,,,,,,,,,,,,,,,,,,,,,,,,,,,,,,,,,,,,,,,,,
376799,001,2022-11-21_00h57.50.550,Info_measure_main_exp,2022.2.2,Win32,144.092219,,,,,,,,,,,,,,,,,,masks/mask_002.jpg,,,,,,,,,,,,,,,,,,,,,,,,,,,,,,,,,,,,,,,,,,,,,,,,0,4,4,1,1,,,,,,,,,,,,,,,,,,,,,,,,,,,,,,,,,,,,,,,,,
376799,001,2022-11-21_00h57.50.550,Info_measure_main_exp,2022.2.2,Win32,144.092219,,,,,,,,,,,,,,,,,,,,,,,,,,,,,,6,2.097,1,,,,,,,,,,,,0,131,5,5,1974,2298,absent_patch/patch0001974.jpg,absent_patch/patch0002298.jpg,,,,,,,,,,,,,,,,,,,,0.076388889,0.020833333,1,0,0,response1disk,5,0.003472222,0.002314815,1,0,0,center_square,0,4,4,6,1,,,,,,,,,,,,,,,,,,,,,,,
376799,001,2022-11-21_00h57.50.550,Info_measure_main_exp,2022.2.2,Win32,144.092219,,,,,,,,,,,,,,,,,,masks/mask_005.jpg,,,,,,,,,,,,,,,,,,,,,,,,,,,,,,,,,,,,,,,,,,,0,0,0,4,1,,,,,,,,,,,,,,,,,,,,,,,,,,,,,,,,,,,,,,,,,,,,,,
376799,001,2022-11-21_00h57.50.550,Info_measure_main_exp,2022.2.2,Win32,144.092219,,,,,,,,,,,,,,,,,,masks/mask_003.jpg,,,,,,,,,,,,,,,,,,,,,,,,,,,,,,,,,,,,,,,,,,,0,1,1,2,1,,,,,,,,,,,,,,,,,,,,,,,,,,,,,,,,,,,,,,,,,,,,,,
376799,001,2022-11-21_00h57.50.550,Info_measure_main_exp,2022.2.2,Win32,144.092219,,,,,,,,,,,,,,,,,,masks/mask_002.jpg,,,,,,,,,,,,,,,,,,,,,,,,,,,,,,,,,,,,,,,,,,,0,2,2,1,1,,,,,,,,,,,,,,,,,,,,,,,,,,,,,,,,,,,,,,,,,,,,,,
376799,001,2022-11-21_00h57.50.550,Info_measure_main_exp,2022.2.2,Win32,144.092219,,,,,,,,,,,,,,,,,,masks/mask_004.jpg,,,,,,,,,,,,,,,,,,,,,,,,,,,,,,,,,,,,,,,,,,,0,3,3,3,1,,,,,,,,,,,,,,,,,,,,,,,,,,,,,,,,,,,,,,,,,,,,,,
376799,001,2022-11-21_00h57.50.550,Info_measure_main_exp,2022.2.2,Win32,144.092219,,,,,,,,,,,,,,,,,,masks/mask_001.jpg,,,,,,,,,,,,,,,,,,,,,,,,,,,,,,,,,,,,,,,,,,,0,4,4,0,1,,,,,,,,,,,,,,,,,,,,,,,,,,,,,,,,,,,,,,,,,,,,,,
376799,001,2022-11-21_00h57.50.550,Info_measure_main_exp,2022.2.2,Win32,144.092219,,,,,,,,,,,,,,,,,,masks/mask_003.jpg,,,,,,,,,,,,,,,,,,,,,,,,,,,,,,,,,,,,,,,,,,,,,,,,0,0,0,2,1,,,,,,,,,,,,,,,,,,,,,,,,,,,,,,,,,,,,,,,,,
376799,001,2022-11-21_00h57.50.550,Info_measure_main_exp,2022.2.2,Win32,144.092219,,,,,,,,,,,,,,,,,,masks/mask_001.jpg,,,,,,,,,,,,,,,,,,,,,,,,,,,,,,,,,,,,,,,,,,,,,,,,0,1,1,0,1,,,,,,,,,,,,,,,,,,,,,,,,,,,,,,,,,,,,,,,,,
376799,001,2022-11-21_00h57.50.550,Info_measure_main_exp,2022.2.2,Win32,144.092219,,,,,,,,,,,,,,,,,,masks/mask_004.jpg,,,,,,,,,,,,,,,,,,,,,,,,,,,,,,,,,,,,,,,,,,,,,,,,0,2,2,3,1,,,,,,,,,,,,,,,,,,,,,,,,,,,,,,,,,,,,,,,,,
376799,001,2022-11-21_00h57.50.550,Info_measure_main_exp,2022.2.2,Win32,144.092219,,,,,,,,,,,,,,,,,,masks/mask_002.jpg,,,,,,,,,,,,,,,,,,,,,,,,,,,,,,,,,,,,,,,,,,,,,,,,0,3,3,1,1,,,,,,,,,,,,,,,,,,,,,,,,,,,,,,,,,,,,,,,,,
376799,001,2022-11-21_00h57.50.550,Info_measure_main_exp,2022.2.2,Win32,144.092219,,,,,,,,,,,,,,,,,,masks/mask_005.jpg,,,,,,,,,,,,,,,,,,,,,,,,,,,,,,,,,,,,,,,,,,,,,,,,0,4,4,4,1,,,,,,,,,,,,,,,,,,,,,,,,,,,,,,,,,,,,,,,,,
376799,001,2022-11-21_00h57.50.550,Info_measure_main_exp,2022.2.2,Win32,144.092219,,,,,,,,,,,,,,,,,,,,,,,,,,,,,,7,1.618,1,,,,,,,,,,,,0,131,5,5,2154,2214,absent_patch/patch0002154.jpg,absent_patch/patch0002214.jpg,,,,,,,,,,,,,,,,,,,,0.064814815,0.113425926,1,0,0,response1disk,6,0,0.002314815,1,0,0,center_square,0,5,5,67,1,,,,,,,,,,,,,,,,,,,,,,,
376799,001,2022-11-21_00h57.50.550,Info_measure_main_exp,2022.2.2,Win32,144.092219,,,,,,,,,,,,,,,,,,masks/mask_003.jpg,,,,,,,,,,,,,,,,,,,,,,,,,,,,,,,,,,,,,,,,,,,0,0,0,2,1,,,,,,,,,,,,,,,,,,,,,,,,,,,,,,,,,,,,,,,,,,,,,,
376799,001,2022-11-21_00h57.50.550,Info_measure_main_exp,2022.2.2,Win32,144.092219,,,,,,,,,,,,,,,,,,masks/mask_005.jpg,,,,,,,,,,,,,,,,,,,,,,,,,,,,,,,,,,,,,,,,,,,0,1,1,4,1,,,,,,,,,,,,,,,,,,,,,,,,,,,,,,,,,,,,,,,,,,,,,,
376799,001,2022-11-21_00h57.50.550,Info_measure_main_exp,2022.2.2,Win32,144.092219,,,,,,,,,,,,,,,,,,masks/mask_001.jpg,,,,,,,,,,,,,,,,,,,,,,,,,,,,,,,,,,,,,,,,,,,0,2,2,0,1,,,,,,,,,,,,,,,,,,,,,,,,,,,,,,,,,,,,,,,,,,,,,,
376799,001,2022-11-21_00h57.50.550,Info_measure_main_exp,2022.2.2,Win32,144.092219,,,,,,,,,,,,,,,,,,masks/mask_002.jpg,,,,,,,,,,,,,,,,,,,,,,,,,,,,,,,,,,,,,,,,,,,0,3,3,1,1,,,,,,,,,,,,,,,,,,,,,,,,,,,,,,,,,,,,,,,,,,,,,,
376799,001,2022-11-21_00h57.50.550,Info_measure_main_exp,2022.2.2,Win32,144.092219,,,,,,,,,,,,,,,,,,masks/mask_004.jpg,,,,,,,,,,,,,,,,,,,,,,,,,,,,,,,,,,,,,,,,,,,0,4,4,3,1,,,,,,,,,,,,,,,,,,,,,,,,,,,,,,,,,,,,,,,,,,,,,,
376799,001,2022-11-21_00h57.50.550,Info_measure_main_exp,2022.2.2,Win32,144.092219,,,,,,,,,,,,,,,,,,masks/mask_004.jpg,,,,,,,,,,,,,,,,,,,,,,,,,,,,,,,,,,,,,,,,,,,,,,,,0,0,0,3,1,,,,,,,,,,,,,,,,,,,,,,,,,,,,,,,,,,,,,,,,,
376799,001,2022-11-21_00h57.50.550,Info_measure_main_exp,2022.2.2,Win32,144.092219,,,,,,,,,,,,,,,,,,masks/mask_005.jpg,,,,,,,,,,,,,,,,,,,,,,,,,,,,,,,,,,,,,,,,,,,,,,,,0,1,1,4,1,,,,,,,,,,,,,,,,,,,,,,,,,,,,,,,,,,,,,,,,,
376799,001,2022-11-21_00h57.50.550,Info_measure_main_exp,2022.2.2,Win32,144.092219,,,,,,,,,,,,,,,,,,masks/mask_001.jpg,,,,,,,,,,,,,,,,,,,,,,,,,,,,,,,,,,,,,,,,,,,,,,,,0,2,2,0,1,,,,,,,,,,,,,,,,,,,,,,,,,,,,,,,,,,,,,,,,,
376799,001,2022-11-21_00h57.50.550,Info_measure_main_exp,2022.2.2,Win32,144.092219,,,,,,,,,,,,,,,,,,masks/mask_003.jpg,,,,,,,,,,,,,,,,,,,,,,,,,,,,,,,,,,,,,,,,,,,,,,,,0,3,3,2,1,,,,,,,,,,,,,,,,,,,,,,,,,,,,,,,,,,,,,,,,,
376799,001,2022-11-21_00h57.50.550,Info_measure_main_exp,2022.2.2,Win32,144.092219,,,,,,,,,,,,,,,,,,masks/mask_002.jpg,,,,,,,,,,,,,,,,,,,,,,,,,,,,,,,,,,,,,,,,,,,,,,,,0,4,4,1,1,,,,,,,,,,,,,,,,,,,,,,,,,,,,,,,,,,,,,,,,,
376799,001,2022-11-21_00h57.50.550,Info_measure_main_exp,2022.2.2,Win32,144.092219,,,,,,,,,,,,,,,,,,,,,,,,,,,,,,7,1.696,1,,,,,,,,,,,,0,131,5,5,2274,2082,absent_patch/patch0002274.jpg,absent_patch/patch0002082.jpg,,,,,,,,,,,,,,,,,,,,0.033564815,0.078703704,1,0,0,response1disk,7,0.002314815,0.005787037,1,0,0,center_square,0,6,6,100,1,,,,,,,,,,,,,,,,,,,,,,,
376799,001,2022-11-21_00h57.50.550,Info_measure_main_exp,2022.2.2,Win32,144.092219,,,,,,,,,,,,,,,,,,masks/mask_005.jpg,,,,,,,,,,,,,,,,,,,,,,,,,,,,,,,,,,,,,,,,,,,0,0,0,4,1,,,,,,,,,,,,,,,,,,,,,,,,,,,,,,,,,,,,,,,,,,,,,,
376799,001,2022-11-21_00h57.50.550,Info_measure_main_exp,2022.2.2,Win32,144.092219,,,,,,,,,,,,,,,,,,masks/mask_004.jpg,,,,,,,,,,,,,,,,,,,,,,,,,,,,,,,,,,,,,,,,,,,0,1,1,3,1,,,,,,,,,,,,,,,,,,,,,,,,,,,,,,,,,,,,,,,,,,,,,,
376799,001,2022-11-21_00h57.50.550,Info_measure_main_exp,2022.2.2,Win32,144.092219,,,,,,,,,,,,,,,,,,masks/mask_002.jpg,,,,,,,,,,,,,,,,,,,,,,,,,,,,,,,,,,,,,,,,,,,0,2,2,1,1,,,,,,,,,,,,,,,,,,,,,,,,,,,,,,,,,,,,,,,,,,,,,,
376799,001,2022-11-21_00h57.50.550,Info_measure_main_exp,2022.2.2,Win32,144.092219,,,,,,,,,,,,,,,,,,masks/mask_003.jpg,,,,,,,,,,,,,,,,,,,,,,,,,,,,,,,,,,,,,,,,,,,0,3,3,2,1,,,,,,,,,,,,,,,,,,,,,,,,,,,,,,,,,,,,,,,,,,,,,,
376799,001,2022-11-21_00h57.50.550,Info_measure_main_exp,2022.2.2,Win32,144.092219,,,,,,,,,,,,,,,,,,masks/mask_001.jpg,,,,,,,,,,,,,,,,,,,,,,,,,,,,,,,,,,,,,,,,,,,0,4,4,0,1,,,,,,,,,,,,,,,,,,,,,,,,,,,,,,,,,,,,,,,,,,,,,,
376799,001,2022-11-21_00h57.50.550,Info_measure_main_exp,2022.2.2,Win32,144.092219,,,,,,,,,,,,,,,,,,masks/mask_002.jpg,,,,,,,,,,,,,,,,,,,,,,,,,,,,,,,,,,,,,,,,,,,,,,,,0,0,0,1,1,,,,,,,,,,,,,,,,,,,,,,,,,,,,,,,,,,,,,,,,,
376799,001,2022-11-21_00h57.50.550,Info_measure_main_exp,2022.2.2,Win32,144.092219,,,,,,,,,,,,,,,,,,masks/mask_001.jpg,,,,,,,,,,,,,,,,,,,,,,,,,,,,,,,,,,,,,,,,,,,,,,,,0,1,1,0,1,,,,,,,,,,,,,,,,,,,,,,,,,,,,,,,,,,,,,,,,,
376799,001,2022-11-21_00h57.50.550,Info_measure_main_exp,2022.2.2,Win32,144.092219,,,,,,,,,,,,,,,,,,masks/mask_005.jpg,,,,,,,,,,,,,,,,,,,,,,,,,,,,,,,,,,,,,,,,,,,,,,,,0,2,2,4,1,,,,,,,,,,,,,,,,,,,,,,,,,,,,,,,,,,,,,,,,,
376799,001,2022-11-21_00h57.50.550,Info_measure_main_exp,2022.2.2,Win32,144.092219,,,,,,,,,,,,,,,,,,masks/mask_003.jpg,,,,,,,,,,,,,,,,,,,,,,,,,,,,,,,,,,,,,,,,,,,,,,,,0,3,3,2,1,,,,,,,,,,,,,,,,,,,,,,,,,,,,,,,,,,,,,,,,,
376799,001,2022-11-21_00h57.50.550,Info_measure_main_exp,2022.2.2,Win32,144.092219,,,,,,,,,,,,,,,,,,masks/mask_004.jpg,,,,,,,,,,,,,,,,,,,,,,,,,,,,,,,,,,,,,,,,,,,,,,,,0,4,4,3,1,,,,,,,,,,,,,,,,,,,,,,,,,,,,,,,,,,,,,,,,,
376799,001,2022-11-21_00h57.50.550,Info_measure_main_exp,2022.2.2,Win32,144.092219,,,,,,,,,,,,,,,,,,,,,,,,,,,,,,7,0.952,1,,,,,,,,,,,,0,131,5,5,2250,1986,absent_patch/patch0002250.jpg,absent_patch/patch0001986.jpg,,,,,,,,,,,,,,,,,,,,0.034722222,0.061342593,1,0,0,response1disk,8,0.005787037,0.005787037,1,0,0,center_square,0,7,7,29,1,,,,,,,,,,,,,,,,,,,,,,,
376799,001,2022-11-21_00h57.50.550,Info_measure_main_exp,2022.2.2,Win32,144.092219,,,,,,,,,,,,,,,,,,masks/mask_004.jpg,,,,,,,,,,,,,,,,,,,,,,,,,,,,,,,,,,,,,,,,,,,0,0,0,3,1,,,,,,,,,,,,,,,,,,,,,,,,,,,,,,,,,,,,,,,,,,,,,,
376799,001,2022-11-21_00h57.50.550,Info_measure_main_exp,2022.2.2,Win32,144.092219,,,,,,,,,,,,,,,,,,masks/mask_005.jpg,,,,,,,,,,,,,,,,,,,,,,,,,,,,,,,,,,,,,,,,,,,0,1,1,4,1,,,,,,,,,,,,,,,,,,,,,,,,,,,,,,,,,,,,,,,,,,,,,,
376799,001,2022-11-21_00h57.50.550,Info_measure_main_exp,2022.2.2,Win32,144.092219,,,,,,,,,,,,,,,,,,masks/mask_003.jpg,,,,,,,,,,,,,,,,,,,,,,,,,,,,,,,,,,,,,,,,,,,0,2,2,2,1,,,,,,,,,,,,,,,,,,,,,,,,,,,,,,,,,,,,,,,,,,,,,,
376799,001,2022-11-21_00h57.50.550,Info_measure_main_exp,2022.2.2,Win32,144.092219,,,,,,,,,,,,,,,,,,masks/mask_001.jpg,,,,,,,,,,,,,,,,,,,,,,,,,,,,,,,,,,,,,,,,,,,0,3,3,0,1,,,,,,,,,,,,,,,,,,,,,,,,,,,,,,,,,,,,,,,,,,,,,,
376799,001,2022-11-21_00h57.50.550,Info_measure_main_exp,2022.2.2,Win32,144.092219,,,,,,,,,,,,,,,,,,masks/mask_002.jpg,,,,,,,,,,,,,,,,,,,,,,,,,,,,,,,,,,,,,,,,,,,0,4,4,1,1,,,,,,,,,,,,,,,,,,,,,,,,,,,,,,,,,,,,,,,,,,,,,,
376799,001,2022-11-21_00h57.50.550,Info_measure_main_exp,2022.2.2,Win32,144.092219,,,,,,,,,,,,,,,,,,masks/mask_001.jpg,,,,,,,,,,,,,,,,,,,,,,,,,,,,,,,,,,,,,,,,,,,,,,,,0,0,0,0,1,,,,,,,,,,,,,,,,,,,,,,,,,,,,,,,,,,,,,,,,,
376799,001,2022-11-21_00h57.50.550,Info_measure_main_exp,2022.2.2,Win32,144.092219,,,,,,,,,,,,,,,,,,masks/mask_003.jpg,,,,,,,,,,,,,,,,,,,,,,,,,,,,,,,,,,,,,,,,,,,,,,,,0,1,1,2,1,,,,,,,,,,,,,,,,,,,,,,,,,,,,,,,,,,,,,,,,,
376799,001,2022-11-21_00h57.50.550,Info_measure_main_exp,2022.2.2,Win32,144.092219,,,,,,,,,,,,,,,,,,masks/mask_004.jpg,,,,,,,,,,,,,,,,,,,,,,,,,,,,,,,,,,,,,,,,,,,,,,,,0,2,2,3,1,,,,,,,,,,,,,,,,,,,,,,,,,,,,,,,,,,,,,,,,,
376799,001,2022-11-21_00h57.50.550,Info_measure_main_exp,2022.2.2,Win32,144.092219,,,,,,,,,,,,,,,,,,masks/mask_002.jpg,,,,,,,,,,,,,,,,,,,,,,,,,,,,,,,,,,,,,,,,,,,,,,,,0,3,3,1,1,,,,,,,,,,,,,,,,,,,,,,,,,,,,,,,,,,,,,,,,,
376799,001,2022-11-21_00h57.50.550,Info_measure_main_exp,2022.2.2,Win32,144.092219,,,,,,,,,,,,,,,,,,masks/mask_005.jpg,,,,,,,,,,,,,,,,,,,,,,,,,,,,,,,,,,,,,,,,,,,,,,,,0,4,4,4,1,,,,,,,,,,,,,,,,,,,,,,,,,,,,,,,,,,,,,,,,,
376799,001,2022-11-21_00h57.50.550,Info_measure_main_exp,2022.2.2,Win32,144.092219,,,,,,,,,,,,,,,,,,,,,,,,,,,,,,7,2.197,1,,,,,,,,,,,,0,131,5,5,2250,2298,absent_patch/patch0002250.jpg,absent_patch/patch0002298.jpg,,,,,,,,,,,,,,,,,,,,0.053240741,0.083333333,1,0,0,response1disk,9,0.002314815,0.005787037,1,0,0,center_square,0,8,8,59,1,,,,,,,,,,,,,,,,,,,,,,,
376799,001,2022-11-21_00h57.50.550,Info_measure_main_exp,2022.2.2,Win32,144.092219,,,,,,,,,,,,,,,,,,masks/mask_005.jpg,,,,,,,,,,,,,,,,,,,,,,,,,,,,,,,,,,,,,,,,,,,0,0,0,4,1,,,,,,,,,,,,,,,,,,,,,,,,,,,,,,,,,,,,,,,,,,,,,,
376799,001,2022-11-21_00h57.50.550,Info_measure_main_exp,2022.2.2,Win32,144.092219,,,,,,,,,,,,,,,,,,masks/mask_002.jpg,,,,,,,,,,,,,,,,,,,,,,,,,,,,,,,,,,,,,,,,,,,0,1,1,1,1,,,,,,,,,,,,,,,,,,,,,,,,,,,,,,,,,,,,,,,,,,,,,,
376799,001,2022-11-21_00h57.50.550,Info_measure_main_exp,2022.2.2,Win32,144.092219,,,,,,,,,,,,,,,,,,masks/mask_003.jpg,,,,,,,,,,,,,,,,,,,,,,,,,,,,,,,,,,,,,,,,,,,0,2,2,2,1,,,,,,,,,,,,,,,,,,,,,,,,,,,,,,,,,,,,,,,,,,,,,,
376799,001,2022-11-21_00h57.50.550,Info_measure_main_exp,2022.2.2,Win32,144.092219,,,,,,,,,,,,,,,,,,masks/mask_001.jpg,,,,,,,,,,,,,,,,,,,,,,,,,,,,,,,,,,,,,,,,,,,0,3,3,0,1,,,,,,,,,,,,,,,,,,,,,,,,,,,,,,,,,,,,,,,,,,,,,,
376799,001,2022-11-21_00h57.50.550,Info_measure_main_exp,2022.2.2,Win32,144.092219,,,,,,,,,,,,,,,,,,masks/mask_004.jpg,,,,,,,,,,,,,,,,,,,,,,,,,,,,,,,,,,,,,,,,,,,0,4,4,3,1,,,,,,,,,,,,,,,,,,,,,,,,,,,,,,,,,,,,,,,,,,,,,,
376799,001,2022-11-21_00h57.50.550,Info_measure_main_exp,2022.2.2,Win32,144.092219,,,,,,,,,,,,,,,,,,masks/mask_004.jpg,,,,,,,,,,,,,,,,,,,,,,,,,,,,,,,,,,,,,,,,,,,,,,,,0,0,0,3,1,,,,,,,,,,,,,,,,,,,,,,,,,,,,,,,,,,,,,,,,,
376799,001,2022-11-21_00h57.50.550,Info_measure_main_exp,2022.2.2,Win32,144.092219,,,,,,,,,,,,,,,,,,masks/mask_002.jpg,,,,,,,,,,,,,,,,,,,,,,,,,,,,,,,,,,,,,,,,,,,,,,,,0,1,1,1,1,,,,,,,,,,,,,,,,,,,,,,,,,,,,,,,,,,,,,,,,,
376799,001,2022-11-21_00h57.50.550,Info_measure_main_exp,2022.2.2,Win32,144.092219,,,,,,,,,,,,,,,,,,masks/mask_001.jpg,,,,,,,,,,,,,,,,,,,,,,,,,,,,,,,,,,,,,,,,,,,,,,,,0,2,2,0,1,,,,,,,,,,,,,,,,,,,,,,,,,,,,,,,,,,,,,,,,,
376799,001,2022-11-21_00h57.50.550,Info_measure_main_exp,2022.2.2,Win32,144.092219,,,,,,,,,,,,,,,,,,masks/mask_003.jpg,,,,,,,,,,,,,,,,,,,,,,,,,,,,,,,,,,,,,,,,,,,,,,,,0,3,3,2,1,,,,,,,,,,,,,,,,,,,,,,,,,,,,,,,,,,,,,,,,,
376799,001,2022-11-21_00h57.50.550,Info_measure_main_exp,2022.2.2,Win32,144.092219,,,,,,,,,,,,,,,,,,masks/mask_005.jpg,,,,,,,,,,,,,,,,,,,,,,,,,,,,,,,,,,,,,,,,,,,,,,,,0,4,4,4,1,,,,,,,,,,,,,,,,,,,,,,,,,,,,,,,,,,,,,,,,,
376799,001,2022-11-21_00h57.50.550,Info_measure_main_exp,2022.2.2,Win32,144.092219,,,,,,,,,,,,,,,,,,,,,,,,,,,,,,6,4.458,1,,,,,,,,,,,,1,131,5,5,2298,1,absent_patch/patch0002298.jpg,present_patch/cong_131_5_a.jpg,,,,,,,,,,,,,,,,,,,,0.065972222,0.030092593,1,0,0,response1disk,10,0.002314815,0.006944444,1,0,0,center_square,0,9,9,45,1,,,,,,,,,,,,,,,,,,,,,,,
376799,001,2022-11-21_00h57.50.550,Info_measure_main_exp,2022.2.2,Win32,144.092219,,,,,,,,,,,,,,,,,,masks/mask_001.jpg,,,,,,,,,,,,,,,,,,,,,,,,,,,,,,,,,,,,,,,,,,,0,0,0,0,1,,,,,,,,,,,,,,,,,,,,,,,,,,,,,,,,,,,,,,,,,,,,,,
376799,001,2022-11-21_00h57.50.550,Info_measure_main_exp,2022.2.2,Win32,144.092219,,,,,,,,,,,,,,,,,,masks/mask_004.jpg,,,,,,,,,,,,,,,,,,,,,,,,,,,,,,,,,,,,,,,,,,,0,1,1,3,1,,,,,,,,,,,,,,,,,,,,,,,,,,,,,,,,,,,,,,,,,,,,,,
376799,001,2022-11-21_00h57.50.550,Info_measure_main_exp,2022.2.2,Win32,144.092219,,,,,,,,,,,,,,,,,,masks/mask_005.jpg,,,,,,,,,,,,,,,,,,,,,,,,,,,,,,,,,,,,,,,,,,,0,2,2,4,1,,,,,,,,,,,,,,,,,,,,,,,,,,,,,,,,,,,,,,,,,,,,,,
376799,001,2022-11-21_00h57.50.550,Info_measure_main_exp,2022.2.2,Win32,144.092219,,,,,,,,,,,,,,,,,,masks/mask_002.jpg,,,,,,,,,,,,,,,,,,,,,,,,,,,,,,,,,,,,,,,,,,,0,3,3,1,1,,,,,,,,,,,,,,,,,,,,,,,,,,,,,,,,,,,,,,,,,,,,,,
376799,001,2022-11-21_00h57.50.550,Info_measure_main_exp,2022.2.2,Win32,144.092219,,,,,,,,,,,,,,,,,,masks/mask_003.jpg,,,,,,,,,,,,,,,,,,,,,,,,,,,,,,,,,,,,,,,,,,,0,4,4,2,1,,,,,,,,,,,,,,,,,,,,,,,,,,,,,,,,,,,,,,,,,,,,,,
376799,001,2022-11-21_00h57.50.550,Info_measure_main_exp,2022.2.2,Win32,144.092219,,,,,,,,,,,,,,,,,,masks/mask_003.jpg,,,,,,,,,,,,,,,,,,,,,,,,,,,,,,,,,,,,,,,,,,,,,,,,0,0,0,2,1,,,,,,,,,,,,,,,,,,,,,,,,,,,,,,,,,,,,,,,,,
376799,001,2022-11-21_00h57.50.550,Info_measure_main_exp,2022.2.2,Win32,144.092219,,,,,,,,,,,,,,,,,,masks/mask_004.jpg,,,,,,,,,,,,,,,,,,,,,,,,,,,,,,,,,,,,,,,,,,,,,,,,0,1,1,3,1,,,,,,,,,,,,,,,,,,,,,,,,,,,,,,,,,,,,,,,,,
376799,001,2022-11-21_00h57.50.550,Info_measure_main_exp,2022.2.2,Win32,144.092219,,,,,,,,,,,,,,,,,,masks/mask_005.jpg,,,,,,,,,,,,,,,,,,,,,,,,,,,,,,,,,,,,,,,,,,,,,,,,0,2,2,4,1,,,,,,,,,,,,,,,,,,,,,,,,,,,,,,,,,,,,,,,,,
376799,001,2022-11-21_00h57.50.550,Info_measure_main_exp,2022.2.2,Win32,144.092219,,,,,,,,,,,,,,,,,,masks/mask_001.jpg,,,,,,,,,,,,,,,,,,,,,,,,,,,,,,,,,,,,,,,,,,,,,,,,0,3,3,0,1,,,,,,,,,,,,,,,,,,,,,,,,,,,,,,,,,,,,,,,,,
376799,001,2022-11-21_00h57.50.550,Info_measure_main_exp,2022.2.2,Win32,144.092219,,,,,,,,,,,,,,,,,,masks/mask_002.jpg,,,,,,,,,,,,,,,,,,,,,,,,,,,,,,,,,,,,,,,,,,,,,,,,0,4,4,1,1,,,,,,,,,,,,,,,,,,,,,,,,,,,,,,,,,,,,,,,,,
376799,001,2022-11-21_00h57.50.550,Info_measure_main_exp,2022.2.2,Win32,144.092219,,,,,,,,,,,,,,,,,,,,,,,,,,,,,,5,2.667,1,,,,,,,,,,,,0,131,5,5,2190,2238,absent_patch/patch0002190.jpg,absent_patch/patch0002238.jpg,,,,,,,,,,,,,,,,,,,,0.048611111,-0.011574074,1,0,0,response3disk,11,0.002314815,-0.00462963,1,0,0,center_square,0,10,10,53,1,,,,,,,,,,,,,,,,,,,,,,,
376799,001,2022-11-21_00h57.50.550,Info_measure_main_exp,2022.2.2,Win32,144.092219,,,,,,,,,,,,,,,,,,masks/mask_004.jpg,,,,,,,,,,,,,,,,,,,,,,,,,,,,,,,,,,,,,,,,,,,0,0,0,3,1,,,,,,,,,,,,,,,,,,,,,,,,,,,,,,,,,,,,,,,,,,,,,,
376799,001,2022-11-21_00h57.50.550,Info_measure_main_exp,2022.2.2,Win32,144.092219,,,,,,,,,,,,,,,,,,masks/mask_001.jpg,,,,,,,,,,,,,,,,,,,,,,,,,,,,,,,,,,,,,,,,,,,0,1,1,0,1,,,,,,,,,,,,,,,,,,,,,,,,,,,,,,,,,,,,,,,,,,,,,,
376799,001,2022-11-21_00h57.50.550,Info_measure_main_exp,2022.2.2,Win32,144.092219,,,,,,,,,,,,,,,,,,masks/mask_002.jpg,,,,,,,,,,,,,,,,,,,,,,,,,,,,,,,,,,,,,,,,,,,0,2,2,1,1,,,,,,,,,,,,,,,,,,,,,,,,,,,,,,,,,,,,,,,,,,,,,,
376799,001,2022-11-21_00h57.50.550,Info_measure_main_exp,2022.2.2,Win32,144.092219,,,,,,,,,,,,,,,,,,masks/mask_003.jpg,,,,,,,,,,,,,,,,,,,,,,,,,,,,,,,,,,,,,,,,,,,0,3,3,2,1,,,,,,,,,,,,,,,,,,,,,,,,,,,,,,,,,,,,,,,,,,,,,,
376799,001,2022-11-21_00h57.50.550,Info_measure_main_exp,2022.2.2,Win32,144.092219,,,,,,,,,,,,,,,,,,masks/mask_005.jpg,,,,,,,,,,,,,,,,,,,,,,,,,,,,,,,,,,,,,,,,,,,0,4,4,4,1,,,,,,,,,,,,,,,,,,,,,,,,,,,,,,,,,,,,,,,,,,,,,,
376799,001,2022-11-21_00h57.50.550,Info_measure_main_exp,2022.2.2,Win32,144.092219,,,,,,,,,,,,,,,,,,masks/mask_004.jpg,,,,,,,,,,,,,,,,,,,,,,,,,,,,,,,,,,,,,,,,,,,,,,,,0,0,0,3,1,,,,,,,,,,,,,,,,,,,,,,,,,,,,,,,,,,,,,,,,,
376799,001,2022-11-21_00h57.50.550,Info_measure_main_exp,2022.2.2,Win32,144.092219,,,,,,,,,,,,,,,,,,masks/mask_005.jpg,,,,,,,,,,,,,,,,,,,,,,,,,,,,,,,,,,,,,,,,,,,,,,,,0,1,1,4,1,,,,,,,,,,,,,,,,,,,,,,,,,,,,,,,,,,,,,,,,,
376799,001,2022-11-21_00h57.50.550,Info_measure_main_exp,2022.2.2,Win32,144.092219,,,,,,,,,,,,,,,,,,masks/mask_001.jpg,,,,,,,,,,,,,,,,,,,,,,,,,,,,,,,,,,,,,,,,,,,,,,,,0,2,2,0,1,,,,,,,,,,,,,,,,,,,,,,,,,,,,,,,,,,,,,,,,,
376799,001,2022-11-21_00h57.50.550,Info_measure_main_exp,2022.2.2,Win32,144.092219,,,,,,,,,,,,,,,,,,masks/mask_003.jpg,,,,,,,,,,,,,,,,,,,,,,,,,,,,,,,,,,,,,,,,,,,,,,,,0,3,3,2,1,,,,,,,,,,,,,,,,,,,,,,,,,,,,,,,,,,,,,,,,,
376799,001,2022-11-21_00h57.50.550,Info_measure_main_exp,2022.2.2,Win32,144.092219,,,,,,,,,,,,,,,,,,masks/mask_002.jpg,,,,,,,,,,,,,,,,,,,,,,,,,,,,,,,,,,,,,,,,,,,,,,,,0,4,4,1,1,,,,,,,,,,,,,,,,,,,,,,,,,,,,,,,,,,,,,,,,,
376799,001,2022-11-21_00h57.50.550,Info_measure_main_exp,2022.2.2,Win32,144.092219,,,,,,,,,,,,,,,,,,,,,,,,,,,,,,7,4.18,1,,,,,,,,,,,,0,131,5,5,2190,1986,absent_patch/patch0002190.jpg,absent_patch/patch0001986.jpg,,,,,,,,,,,,,,,,,,,,0.033564815,0.070601852,1,0,0,response1disk,12,0.006944444,0.008101852,1,0,0,center_square,0,11,11,111,1,,,,,,,,,,,,,,,,,,,,,,,
376799,001,2022-11-21_00h57.50.550,Info_measure_main_exp,2022.2.2,Win32,144.092219,,,,,,,,,,,,,,,,,,masks/mask_004.jpg,,,,,,,,,,,,,,,,,,,,,,,,,,,,,,,,,,,,,,,,,,,0,0,0,3,1,,,,,,,,,,,,,,,,,,,,,,,,,,,,,,,,,,,,,,,,,,,,,,
376799,001,2022-11-21_00h57.50.550,Info_measure_main_exp,2022.2.2,Win32,144.092219,,,,,,,,,,,,,,,,,,masks/mask_001.jpg,,,,,,,,,,,,,,,,,,,,,,,,,,,,,,,,,,,,,,,,,,,0,1,1,0,1,,,,,,,,,,,,,,,,,,,,,,,,,,,,,,,,,,,,,,,,,,,,,,
376799,001,2022-11-21_00h57.50.550,Info_measure_main_exp,2022.2.2,Win32,144.092219,,,,,,,,,,,,,,,,,,masks/mask_002.jpg,,,,,,,,,,,,,,,,,,,,,,,,,,,,,,,,,,,,,,,,,,,0,2,2,1,1,,,,,,,,,,,,,,,,,,,,,,,,,,,,,,,,,,,,,,,,,,,,,,
376799,001,2022-11-21_00h57.50.550,Info_measure_main_exp,2022.2.2,Win32,144.092219,,,,,,,,,,,,,,,,,,masks/mask_003.jpg,,,,,,,,,,,,,,,,,,,,,,,,,,,,,,,,,,,,,,,,,,,0,3,3,2,1,,,,,,,,,,,,,,,,,,,,,,,,,,,,,,,,,,,,,,,,,,,,,,
376799,001,2022-11-21_00h57.50.550,Info_measure_main_exp,2022.2.2,Win32,144.092219,,,,,,,,,,,,,,,,,,masks/mask_005.jpg,,,,,,,,,,,,,,,,,,,,,,,,,,,,,,,,,,,,,,,,,,,0,4,4,4,1,,,,,,,,,,,,,,,,,,,,,,,,,,,,,,,,,,,,,,,,,,,,,,
376799,001,2022-11-21_00h57.50.550,Info_measure_main_exp,2022.2.2,Win32,144.092219,,,,,,,,,,,,,,,,,,masks/mask_003.jpg,,,,,,,,,,,,,,,,,,,,,,,,,,,,,,,,,,,,,,,,,,,,,,,,0,0,0,2,1,,,,,,,,,,,,,,,,,,,,,,,,,,,,,,,,,,,,,,,,,
376799,001,2022-11-21_00h57.50.550,Info_measure_main_exp,2022.2.2,Win32,144.092219,,,,,,,,,,,,,,,,,,masks/mask_001.jpg,,,,,,,,,,,,,,,,,,,,,,,,,,,,,,,,,,,,,,,,,,,,,,,,0,1,1,0,1,,,,,,,,,,,,,,,,,,,,,,,,,,,,,,,,,,,,,,,,,
376799,001,2022-11-21_00h57.50.550,Info_measure_main_exp,2022.2.2,Win32,144.092219,,,,,,,,,,,,,,,,,,masks/mask_005.jpg,,,,,,,,,,,,,,,,,,,,,,,,,,,,,,,,,,,,,,,,,,,,,,,,0,2,2,4,1,,,,,,,,,,,,,,,,,,,,,,,,,,,,,,,,,,,,,,,,,
376799,001,2022-11-21_00h57.50.550,Info_measure_main_exp,2022.2.2,Win32,144.092219,,,,,,,,,,,,,,,,,,masks/mask_002.jpg,,,,,,,,,,,,,,,,,,,,,,,,,,,,,,,,,,,,,,,,,,,,,,,,0,3,3,1,1,,,,,,,,,,,,,,,,,,,,,,,,,,,,,,,,,,,,,,,,,
376799,001,2022-11-21_00h57.50.550,Info_measure_main_exp,2022.2.2,Win32,144.092219,,,,,,,,,,,,,,,,,,masks/mask_004.jpg,,,,,,,,,,,,,,,,,,,,,,,,,,,,,,,,,,,,,,,,,,,,,,,,0,4,4,3,1,,,,,,,,,,,,,,,,,,,,,,,,,,,,,,,,,,,,,,,,,
376799,001,2022-11-21_00h57.50.550,Info_measure_main_exp,2022.2.2,Win32,144.092219,,,,,,,,,,,,,,,,,,,,,,,,,,,,,,7,1.056,1,,,,,,,,,,,,0,131,5,5,2238,2298,absent_patch/patch0002238.jpg,absent_patch/patch0002298.jpg,,,,,,,,,,,,,,,,,,,,0.030092593,0.0625,1,0,0,response1disk,13,0.006944444,0.012731481,1,0,0,center_square,0,12,12,51,1,,,,,,,,,,,,,,,,,,,,,,,
376799,001,2022-11-21_00h57.50.550,Info_measure_main_exp,2022.2.2,Win32,144.092219,,,,,,,,,,,,,,,,,,masks/mask_002.jpg,,,,,,,,,,,,,,,,,,,,,,,,,,,,,,,,,,,,,,,,,,,0,0,0,1,1,,,,,,,,,,,,,,,,,,,,,,,,,,,,,,,,,,,,,,,,,,,,,,
376799,001,2022-11-21_00h57.50.550,Info_measure_main_exp,2022.2.2,Win32,144.092219,,,,,,,,,,,,,,,,,,masks/mask_003.jpg,,,,,,,,,,,,,,,,,,,,,,,,,,,,,,,,,,,,,,,,,,,0,1,1,2,1,,,,,,,,,,,,,,,,,,,,,,,,,,,,,,,,,,,,,,,,,,,,,,
376799,001,2022-11-21_00h57.50.550,Info_measure_main_exp,2022.2.2,Win32,144.092219,,,,,,,,,,,,,,,,,,masks/mask_005.jpg,,,,,,,,,,,,,,,,,,,,,,,,,,,,,,,,,,,,,,,,,,,0,2,2,4,1,,,,,,,,,,,,,,,,,,,,,,,,,,,,,,,,,,,,,,,,,,,,,,
376799,001,2022-11-21_00h57.50.550,Info_measure_main_exp,2022.2.2,Win32,144.092219,,,,,,,,,,,,,,,,,,masks/mask_001.jpg,,,,,,,,,,,,,,,,,,,,,,,,,,,,,,,,,,,,,,,,,,,0,3,3,0,1,,,,,,,,,,,,,,,,,,,,,,,,,,,,,,,,,,,,,,,,,,,,,,
376799,001,2022-11-21_00h57.50.550,Info_measure_main_exp,2022.2.2,Win32,144.092219,,,,,,,,,,,,,,,,,,masks/mask_004.jpg,,,,,,,,,,,,,,,,,,,,,,,,,,,,,,,,,,,,,,,,,,,0,4,4,3,1,,,,,,,,,,,,,,,,,,,,,,,,,,,,,,,,,,,,,,,,,,,,,,
376799,001,2022-11-21_00h57.50.550,Info_measure_main_exp,2022.2.2,Win32,144.092219,,,,,,,,,,,,,,,,,,masks/mask_001.jpg,,,,,,,,,,,,,,,,,,,,,,,,,,,,,,,,,,,,,,,,,,,,,,,,0,0,0,0,1,,,,,,,,,,,,,,,,,,,,,,,,,,,,,,,,,,,,,,,,,
376799,001,2022-11-21_00h57.50.550,Info_measure_main_exp,2022.2.2,Win32,144.092219,,,,,,,,,,,,,,,,,,masks/mask_003.jpg,,,,,,,,,,,,,,,,,,,,,,,,,,,,,,,,,,,,,,,,,,,,,,,,0,1,1,2,1,,,,,,,,,,,,,,,,,,,,,,,,,,,,,,,,,,,,,,,,,
376799,001,2022-11-21_00h57.50.550,Info_measure_main_exp,2022.2.2,Win32,144.092219,,,,,,,,,,,,,,,,,,masks/mask_002.jpg,,,,,,,,,,,,,,,,,,,,,,,,,,,,,,,,,,,,,,,,,,,,,,,,0,2,2,1,1,,,,,,,,,,,,,,,,,,,,,,,,,,,,,,,,,,,,,,,,,
376799,001,2022-11-21_00h57.50.550,Info_measure_main_exp,2022.2.2,Win32,144.092219,,,,,,,,,,,,,,,,,,masks/mask_005.jpg,,,,,,,,,,,,,,,,,,,,,,,,,,,,,,,,,,,,,,,,,,,,,,,,0,3,3,4,1,,,,,,,,,,,,,,,,,,,,,,,,,,,,,,,,,,,,,,,,,
376799,001,2022-11-21_00h57.50.550,Info_measure_main_exp,2022.2.2,Win32,144.092219,,,,,,,,,,,,,,,,,,masks/mask_004.jpg,,,,,,,,,,,,,,,,,,,,,,,,,,,,,,,,,,,,,,,,,,,,,,,,0,4,4,3,1,,,,,,,,,,,,,,,,,,,,,,,,,,,,,,,,,,,,,,,,,
376799,001,2022-11-21_00h57.50.550,Info_measure_main_exp,2022.2.2,Win32,144.092219,,,,,,,,,,,,,,,,,,,,,,,,,,,,,,7,2.389,1,,,,,,,,,,,,0,131,5,5,2154,2190,absent_patch/patch0002154.jpg,absent_patch/patch0002190.jpg,,,,,,,,,,,,,,,,,,,,0.045138889,0.069444444,1,0,0,response1disk,14,0,-0.001157407,1,0,0,center_square,0,13,13,68,1,,,,,,,,,,,,,,,,,,,,,,,
376799,001,2022-11-21_00h57.50.550,Info_measure_main_exp,2022.2.2,Win32,144.092219,,,,,,,,,,,,,,,,,,masks/mask_002.jpg,,,,,,,,,,,,,,,,,,,,,,,,,,,,,,,,,,,,,,,,,,,0,0,0,1,1,,,,,,,,,,,,,,,,,,,,,,,,,,,,,,,,,,,,,,,,,,,,,,
376799,001,2022-11-21_00h57.50.550,Info_measure_main_exp,2022.2.2,Win32,144.092219,,,,,,,,,,,,,,,,,,masks/mask_001.jpg,,,,,,,,,,,,,,,,,,,,,,,,,,,,,,,,,,,,,,,,,,,0,1,1,0,1,,,,,,,,,,,,,,,,,,,,,,,,,,,,,,,,,,,,,,,,,,,,,,
376799,001,2022-11-21_00h57.50.550,Info_measure_main_exp,2022.2.2,Win32,144.092219,,,,,,,,,,,,,,,,,,masks/mask_005.jpg,,,,,,,,,,,,,,,,,,,,,,,,,,,,,,,,,,,,,,,,,,,0,2,2,4,1,,,,,,,,,,,,,,,,,,,,,,,,,,,,,,,,,,,,,,,,,,,,,,
376799,001,2022-11-21_00h57.50.550,Info_measure_main_exp,2022.2.2,Win32,144.092219,,,,,,,,,,,,,,,,,,masks/mask_004.jpg,,,,,,,,,,,,,,,,,,,,,,,,,,,,,,,,,,,,,,,,,,,0,3,3,3,1,,,,,,,,,,,,,,,,,,,,,,,,,,,,,,,,,,,,,,,,,,,,,,
376799,001,2022-11-21_00h57.50.550,Info_measure_main_exp,2022.2.2,Win32,144.092219,,,,,,,,,,,,,,,,,,masks/mask_003.jpg,,,,,,,,,,,,,,,,,,,,,,,,,,,,,,,,,,,,,,,,,,,0,4,4,2,1,,,,,,,,,,,,,,,,,,,,,,,,,,,,,,,,,,,,,,,,,,,,,,
376799,001,2022-11-21_00h57.50.550,Info_measure_main_exp,2022.2.2,Win32,144.092219,,,,,,,,,,,,,,,,,,masks/mask_003.jpg,,,,,,,,,,,,,,,,,,,,,,,,,,,,,,,,,,,,,,,,,,,,,,,,0,0,0,2,1,,,,,,,,,,,,,,,,,,,,,,,,,,,,,,,,,,,,,,,,,
376799,001,2022-11-21_00h57.50.550,Info_measure_main_exp,2022.2.2,Win32,144.092219,,,,,,,,,,,,,,,,,,masks/mask_005.jpg,,,,,,,,,,,,,,,,,,,,,,,,,,,,,,,,,,,,,,,,,,,,,,,,0,1,1,4,1,,,,,,,,,,,,,,,,,,,,,,,,,,,,,,,,,,,,,,,,,
376799,001,2022-11-21_00h57.50.550,Info_measure_main_exp,2022.2.2,Win32,144.092219,,,,,,,,,,,,,,,,,,masks/mask_002.jpg,,,,,,,,,,,,,,,,,,,,,,,,,,,,,,,,,,,,,,,,,,,,,,,,0,2,2,1,1,,,,,,,,,,,,,,,,,,,,,,,,,,,,,,,,,,,,,,,,,
376799,001,2022-11-21_00h57.50.550,Info_measure_main_exp,2022.2.2,Win32,144.092219,,,,,,,,,,,,,,,,,,masks/mask_001.jpg,,,,,,,,,,,,,,,,,,,,,,,,,,,,,,,,,,,,,,,,,,,,,,,,0,3,3,0,1,,,,,,,,,,,,,,,,,,,,,,,,,,,,,,,,,,,,,,,,,
376799,001,2022-11-21_00h57.50.550,Info_measure_main_exp,2022.2.2,Win32,144.092219,,,,,,,,,,,,,,,,,,masks/mask_004.jpg,,,,,,,,,,,,,,,,,,,,,,,,,,,,,,,,,,,,,,,,,,,,,,,,0,4,4,3,1,,,,,,,,,,,,,,,,,,,,,,,,,,,,,,,,,,,,,,,,,
376799,001,2022-11-21_00h57.50.550,Info_measure_main_exp,2022.2.2,Win32,144.092219,,,,,,,,,,,,,,,,,,,,,,,,,,,,,,5,1.535,1,,,,,,,,,,,,0,131,5,5,2250,2142,absent_patch/patch0002250.jpg,absent_patch/patch0002142.jpg,,,,,,,,,,,,,,,,,,,,0.061342593,-0.011574074,1,0,0,response3disk,15,0.001157407,-0.006944444,1,0,0,center_square,0,14,14,71,1,,,,,,,,,,,,,,,,,,,,,,,
376799,001,2022-11-21_00h57.50.550,Info_measure_main_exp,2022.2.2,Win32,144.092219,,,,,,,,,,,,,,,,,,masks/mask_003.jpg,,,,,,,,,,,,,,,,,,,,,,,,,,,,,,,,,,,,,,,,,,,0,0,0,2,1,,,,,,,,,,,,,,,,,,,,,,,,,,,,,,,,,,,,,,,,,,,,,,
376799,001,2022-11-21_00h57.50.550,Info_measure_main_exp,2022.2.2,Win32,144.092219,,,,,,,,,,,,,,,,,,masks/mask_004.jpg,,,,,,,,,,,,,,,,,,,,,,,,,,,,,,,,,,,,,,,,,,,0,1,1,3,1,,,,,,,,,,,,,,,,,,,,,,,,,,,,,,,,,,,,,,,,,,,,,,
376799,001,2022-11-21_00h57.50.550,Info_measure_main_exp,2022.2.2,Win32,144.092219,,,,,,,,,,,,,,,,,,masks/mask_002.jpg,,,,,,,,,,,,,,,,,,,,,,,,,,,,,,,,,,,,,,,,,,,0,2,2,1,1,,,,,,,,,,,,,,,,,,,,,,,,,,,,,,,,,,,,,,,,,,,,,,
376799,001,2022-11-21_00h57.50.550,Info_measure_main_exp,2022.2.2,Win32,144.092219,,,,,,,,,,,,,,,,,,masks/mask_005.jpg,,,,,,,,,,,,,,,,,,,,,,,,,,,,,,,,,,,,,,,,,,,0,3,3,4,1,,,,,,,,,,,,,,,,,,,,,,,,,,,,,,,,,,,,,,,,,,,,,,
376799,001,2022-11-21_00h57.50.550,Info_measure_main_exp,2022.2.2,Win32,144.092219,,,,,,,,,,,,,,,,,,masks/mask_001.jpg,,,,,,,,,,,,,,,,,,,,,,,,,,,,,,,,,,,,,,,,,,,0,4,4,0,1,,,,,,,,,,,,,,,,,,,,,,,,,,,,,,,,,,,,,,,,,,,,,,
376799,001,2022-11-21_00h57.50.550,Info_measure_main_exp,2022.2.2,Win32,144.092219,,,,,,,,,,,,,,,,,,masks/mask_005.jpg,,,,,,,,,,,,,,,,,,,,,,,,,,,,,,,,,,,,,,,,,,,,,,,,0,0,0,4,1,,,,,,,,,,,,,,,,,,,,,,,,,,,,,,,,,,,,,,,,,
376799,001,2022-11-21_00h57.50.550,Info_measure_main_exp,2022.2.2,Win32,144.092219,,,,,,,,,,,,,,,,,,masks/mask_001.jpg,,,,,,,,,,,,,,,,,,,,,,,,,,,,,,,,,,,,,,,,,,,,,,,,0,1,1,0,1,,,,,,,,,,,,,,,,,,,,,,,,,,,,,,,,,,,,,,,,,
376799,001,2022-11-21_00h57.50.550,Info_measure_main_exp,2022.2.2,Win32,144.092219,,,,,,,,,,,,,,,,,,masks/mask_003.jpg,,,,,,,,,,,,,,,,,,,,,,,,,,,,,,,,,,,,,,,,,,,,,,,,0,2,2,2,1,,,,,,,,,,,,,,,,,,,,,,,,,,,,,,,,,,,,,,,,,
376799,001,2022-11-21_00h57.50.550,Info_measure_main_exp,2022.2.2,Win32,144.092219,,,,,,,,,,,,,,,,,,masks/mask_002.jpg,,,,,,,,,,,,,,,,,,,,,,,,,,,,,,,,,,,,,,,,,,,,,,,,0,3,3,1,1,,,,,,,,,,,,,,,,,,,,,,,,,,,,,,,,,,,,,,,,,
376799,001,2022-11-21_00h57.50.550,Info_measure_main_exp,2022.2.2,Win32,144.092219,,,,,,,,,,,,,,,,,,masks/mask_004.jpg,,,,,,,,,,,,,,,,,,,,,,,,,,,,,,,,,,,,,,,,,,,,,,,,0,4,4,3,1,,,,,,,,,,,,,,,,,,,,,,,,,,,,,,,,,,,,,,,,,
376799,001,2022-11-21_00h57.50.550,Info_measure_main_exp,2022.2.2,Win32,144.092219,,,,,,,,,,,,,,,,,,,,,,,,,,,,,,6,1.244,1,,,,,,,,,,,,0,131,5,5,1950,2214,absent_patch/patch0001950.jpg,absent_patch/patch0002214.jpg,,,,,,,,,,,,,,,,,,,,0.055555556,0.023148148,1,0,0,response1disk,16,0,-0.00462963,1,0,0,center_square,0,15,15,85,1,,,,,,,,,,,,,,,,,,,,,,,
376799,001,2022-11-21_00h57.50.550,Info_measure_main_exp,2022.2.2,Win32,144.092219,,,,,,,,,,,,,,,,,,masks/mask_004.jpg,,,,,,,,,,,,,,,,,,,,,,,,,,,,,,,,,,,,,,,,,,,0,0,0,3,1,,,,,,,,,,,,,,,,,,,,,,,,,,,,,,,,,,,,,,,,,,,,,,
376799,001,2022-11-21_00h57.50.550,Info_measure_main_exp,2022.2.2,Win32,144.092219,,,,,,,,,,,,,,,,,,masks/mask_002.jpg,,,,,,,,,,,,,,,,,,,,,,,,,,,,,,,,,,,,,,,,,,,0,1,1,1,1,,,,,,,,,,,,,,,,,,,,,,,,,,,,,,,,,,,,,,,,,,,,,,
376799,001,2022-11-21_00h57.50.550,Info_measure_main_exp,2022.2.2,Win32,144.092219,,,,,,,,,,,,,,,,,,masks/mask_003.jpg,,,,,,,,,,,,,,,,,,,,,,,,,,,,,,,,,,,,,,,,,,,0,2,2,2,1,,,,,,,,,,,,,,,,,,,,,,,,,,,,,,,,,,,,,,,,,,,,,,
376799,001,2022-11-21_00h57.50.550,Info_measure_main_exp,2022.2.2,Win32,144.092219,,,,,,,,,,,,,,,,,,masks/mask_005.jpg,,,,,,,,,,,,,,,,,,,,,,,,,,,,,,,,,,,,,,,,,,,0,3,3,4,1,,,,,,,,,,,,,,,,,,,,,,,,,,,,,,,,,,,,,,,,,,,,,,
376799,001,2022-11-21_00h57.50.550,Info_measure_main_exp,2022.2.2,Win32,144.092219,,,,,,,,,,,,,,,,,,masks/mask_001.jpg,,,,,,,,,,,,,,,,,,,,,,,,,,,,,,,,,,,,,,,,,,,0,4,4,0,1,,,,,,,,,,,,,,,,,,,,,,,,,,,,,,,,,,,,,,,,,,,,,,
376799,001,2022-11-21_00h57.50.550,Info_measure_main_exp,2022.2.2,Win32,144.092219,,,,,,,,,,,,,,,,,,masks/mask_001.jpg,,,,,,,,,,,,,,,,,,,,,,,,,,,,,,,,,,,,,,,,,,,,,,,,0,0,0,0,1,,,,,,,,,,,,,,,,,,,,,,,,,,,,,,,,,,,,,,,,,
376799,001,2022-11-21_00h57.50.550,Info_measure_main_exp,2022.2.2,Win32,144.092219,,,,,,,,,,,,,,,,,,masks/mask_005.jpg,,,,,,,,,,,,,,,,,,,,,,,,,,,,,,,,,,,,,,,,,,,,,,,,0,1,1,4,1,,,,,,,,,,,,,,,,,,,,,,,,,,,,,,,,,,,,,,,,,
376799,001,2022-11-21_00h57.50.550,Info_measure_main_exp,2022.2.2,Win32,144.092219,,,,,,,,,,,,,,,,,,masks/mask_004.jpg,,,,,,,,,,,,,,,,,,,,,,,,,,,,,,,,,,,,,,,,,,,,,,,,0,2,2,3,1,,,,,,,,,,,,,,,,,,,,,,,,,,,,,,,,,,,,,,,,,
376799,001,2022-11-21_00h57.50.550,Info_measure_main_exp,2022.2.2,Win32,144.092219,,,,,,,,,,,,,,,,,,masks/mask_002.jpg,,,,,,,,,,,,,,,,,,,,,,,,,,,,,,,,,,,,,,,,,,,,,,,,0,3,3,1,1,,,,,,,,,,,,,,,,,,,,,,,,,,,,,,,,,,,,,,,,,
376799,001,2022-11-21_00h57.50.550,Info_measure_main_exp,2022.2.2,Win32,144.092219,,,,,,,,,,,,,,,,,,masks/mask_003.jpg,,,,,,,,,,,,,,,,,,,,,,,,,,,,,,,,,,,,,,,,,,,,,,,,0,4,4,2,1,,,,,,,,,,,,,,,,,,,,,,,,,,,,,,,,,,,,,,,,,
376799,001,2022-11-21_00h57.50.550,Info_measure_main_exp,2022.2.2,Win32,144.092219,,,,,,,,,,,,,,,,,,,,,,,,,,,,,,3,2.93,1,,,,,,,,,,,,1,131,5,5,2238,1,absent_patch/patch0002238.jpg,present_patch/cong_131_5_a.jpg,,,,,,,,,,,,,,,,,,,,-0.059027778,-0.082175926,1,0,0,response5disk,17,-0.002314815,-0.008101852,1,0,0,center_square,0,16,16,104,1,,,,,,,,,,,,,,,,,,,,,,,
376799,001,2022-11-21_00h57.50.550,Info_measure_main_exp,2022.2.2,Win32,144.092219,,,,,,,,,,,,,,,,,,masks/mask_005.jpg,,,,,,,,,,,,,,,,,,,,,,,,,,,,,,,,,,,,,,,,,,,0,0,0,4,1,,,,,,,,,,,,,,,,,,,,,,,,,,,,,,,,,,,,,,,,,,,,,,
376799,001,2022-11-21_00h57.50.550,Info_measure_main_exp,2022.2.2,Win32,144.092219,,,,,,,,,,,,,,,,,,masks/mask_003.jpg,,,,,,,,,,,,,,,,,,,,,,,,,,,,,,,,,,,,,,,,,,,0,1,1,2,1,,,,,,,,,,,,,,,,,,,,,,,,,,,,,,,,,,,,,,,,,,,,,,
376799,001,2022-11-21_00h57.50.550,Info_measure_main_exp,2022.2.2,Win32,144.092219,,,,,,,,,,,,,,,,,,masks/mask_002.jpg,,,,,,,,,,,,,,,,,,,,,,,,,,,,,,,,,,,,,,,,,,,0,2,2,1,1,,,,,,,,,,,,,,,,,,,,,,,,,,,,,,,,,,,,,,,,,,,,,,
376799,001,2022-11-21_00h57.50.550,Info_measure_main_exp,2022.2.2,Win32,144.092219,,,,,,,,,,,,,,,,,,masks/mask_001.jpg,,,,,,,,,,,,,,,,,,,,,,,,,,,,,,,,,,,,,,,,,,,0,3,3,0,1,,,,,,,,,,,,,,,,,,,,,,,,,,,,,,,,,,,,,,,,,,,,,,
376799,001,2022-11-21_00h57.50.550,Info_measure_main_exp,2022.2.2,Win32,144.092219,,,,,,,,,,,,,,,,,,masks/mask_004.jpg,,,,,,,,,,,,,,,,,,,,,,,,,,,,,,,,,,,,,,,,,,,0,4,4,3,1,,,,,,,,,,,,,,,,,,,,,,,,,,,,,,,,,,,,,,,,,,,,,,
376799,001,2022-11-21_00h57.50.550,Info_measure_main_exp,2022.2.2,Win32,144.092219,,,,,,,,,,,,,,,,,,masks/mask_003.jpg,,,,,,,,,,,,,,,,,,,,,,,,,,,,,,,,,,,,,,,,,,,,,,,,0,0,0,2,1,,,,,,,,,,,,,,,,,,,,,,,,,,,,,,,,,,,,,,,,,
376799,001,2022-11-21_00h57.50.550,Info_measure_main_exp,2022.2.2,Win32,144.092219,,,,,,,,,,,,,,,,,,masks/mask_004.jpg,,,,,,,,,,,,,,,,,,,,,,,,,,,,,,,,,,,,,,,,,,,,,,,,0,1,1,3,1,,,,,,,,,,,,,,,,,,,,,,,,,,,,,,,,,,,,,,,,,
376799,001,2022-11-21_00h57.50.550,Info_measure_main_exp,2022.2.2,Win32,144.092219,,,,,,,,,,,,,,,,,,masks/mask_005.jpg,,,,,,,,,,,,,,,,,,,,,,,,,,,,,,,,,,,,,,,,,,,,,,,,0,2,2,4,1,,,,,,,,,,,,,,,,,,,,,,,,,,,,,,,,,,,,,,,,,
376799,001,2022-11-21_00h57.50.550,Info_measure_main_exp,2022.2.2,Win32,144.092219,,,,,,,,,,,,,,,,,,masks/mask_001.jpg,,,,,,,,,,,,,,,,,,,,,,,,,,,,,,,,,,,,,,,,,,,,,,,,0,3,3,0,1,,,,,,,,,,,,,,,,,,,,,,,,,,,,,,,,,,,,,,,,,
376799,001,2022-11-21_00h57.50.550,Info_measure_main_exp,2022.2.2,Win32,144.092219,,,,,,,,,,,,,,,,,,masks/mask_002.jpg,,,,,,,,,,,,,,,,,,,,,,,,,,,,,,,,,,,,,,,,,,,,,,,,0,4,4,1,1,,,,,,,,,,,,,,,,,,,,,,,,,,,,,,,,,,,,,,,,,
376799,001,2022-11-21_00h57.50.550,Info_measure_main_exp,2022.2.2,Win32,144.092219,,,,,,,,,,,,,,,,,,,,,,,,,,,,,,3,2.07,1,,,,,,,,,,,,1,131,5,5,1,1986,present_patch/cong_131_5_a.jpg,absent_patch/patch0001986.jpg,,,,,,,,,,,,,,,,,,,,-0.053240741,-0.081018519,1,0,0,response5disk,18,-0.00462963,-0.011574074,1,0,0,center_square,0,17,17,106,1,,,,,,,,,,,,,,,,,,,,,,,
376799,001,2022-11-21_00h57.50.550,Info_measure_main_exp,2022.2.2,Win32,144.092219,,,,,,,,,,,,,,,,,,masks/mask_004.jpg,,,,,,,,,,,,,,,,,,,,,,,,,,,,,,,,,,,,,,,,,,,0,0,0,3,1,,,,,,,,,,,,,,,,,,,,,,,,,,,,,,,,,,,,,,,,,,,,,,
376799,001,2022-11-21_00h57.50.550,Info_measure_main_exp,2022.2.2,Win32,144.092219,,,,,,,,,,,,,,,,,,masks/mask_005.jpg,,,,,,,,,,,,,,,,,,,,,,,,,,,,,,,,,,,,,,,,,,,0,1,1,4,1,,,,,,,,,,,,,,,,,,,,,,,,,,,,,,,,,,,,,,,,,,,,,,
376799,001,2022-11-21_00h57.50.550,Info_measure_main_exp,2022.2.2,Win32,144.092219,,,,,,,,,,,,,,,,,,masks/mask_001.jpg,,,,,,,,,,,,,,,,,,,,,,,,,,,,,,,,,,,,,,,,,,,0,2,2,0,1,,,,,,,,,,,,,,,,,,,,,,,,,,,,,,,,,,,,,,,,,,,,,,
376799,001,2022-11-21_00h57.50.550,Info_measure_main_exp,2022.2.2,Win32,144.092219,,,,,,,,,,,,,,,,,,masks/mask_003.jpg,,,,,,,,,,,,,,,,,,,,,,,,,,,,,,,,,,,,,,,,,,,0,3,3,2,1,,,,,,,,,,,,,,,,,,,,,,,,,,,,,,,,,,,,,,,,,,,,,,
376799,001,2022-11-21_00h57.50.550,Info_measure_main_exp,2022.2.2,Win32,144.092219,,,,,,,,,,,,,,,,,,masks/mask_002.jpg,,,,,,,,,,,,,,,,,,,,,,,,,,,,,,,,,,,,,,,,,,,0,4,4,1,1,,,,,,,,,,,,,,,,,,,,,,,,,,,,,,,,,,,,,,,,,,,,,,
376799,001,2022-11-21_00h57.50.550,Info_measure_main_exp,2022.2.2,Win32,144.092219,,,,,,,,,,,,,,,,,,masks/mask_004.jpg,,,,,,,,,,,,,,,,,,,,,,,,,,,,,,,,,,,,,,,,,,,,,,,,0,0,0,3,1,,,,,,,,,,,,,,,,,,,,,,,,,,,,,,,,,,,,,,,,,
376799,001,2022-11-21_00h57.50.550,Info_measure_main_exp,2022.2.2,Win32,144.092219,,,,,,,,,,,,,,,,,,masks/mask_003.jpg,,,,,,,,,,,,,,,,,,,,,,,,,,,,,,,,,,,,,,,,,,,,,,,,0,1,1,2,1,,,,,,,,,,,,,,,,,,,,,,,,,,,,,,,,,,,,,,,,,
376799,001,2022-11-21_00h57.50.550,Info_measure_main_exp,2022.2.2,Win32,144.092219,,,,,,,,,,,,,,,,,,masks/mask_005.jpg,,,,,,,,,,,,,,,,,,,,,,,,,,,,,,,,,,,,,,,,,,,,,,,,0,2,2,4,1,,,,,,,,,,,,,,,,,,,,,,,,,,,,,,,,,,,,,,,,,
376799,001,2022-11-21_00h57.50.550,Info_measure_main_exp,2022.2.2,Win32,144.092219,,,,,,,,,,,,,,,,,,masks/mask_002.jpg,,,,,,,,,,,,,,,,,,,,,,,,,,,,,,,,,,,,,,,,,,,,,,,,0,3,3,1,1,,,,,,,,,,,,,,,,,,,,,,,,,,,,,,,,,,,,,,,,,
376799,001,2022-11-21_00h57.50.550,Info_measure_main_exp,2022.2.2,Win32,144.092219,,,,,,,,,,,,,,,,,,masks/mask_001.jpg,,,,,,,,,,,,,,,,,,,,,,,,,,,,,,,,,,,,,,,,,,,,,,,,0,4,4,0,1,,,,,,,,,,,,,,,,,,,,,,,,,,,,,,,,,,,,,,,,,
376799,001,2022-11-21_00h57.50.550,Info_measure_main_exp,2022.2.2,Win32,144.092219,,,,,,,,,,,,,,,,,,,,,,,,,,,,,,6,2.257,1,,,,,,,,,,,,0,131,5,5,2298,2214,absent_patch/patch0002298.jpg,absent_patch/patch0002214.jpg,,,,,,,,,,,,,,,,,,,,0.070601852,0.043981481,1,0,0,response1disk,19,-0.012731481,-0.009259259,1,0,0,center_square,0,18,18,99,1,,,,,,,,,,,,,,,,,,,,,,,
376799,001,2022-11-21_00h57.50.550,Info_measure_main_exp,2022.2.2,Win32,144.092219,,,,,,,,,,,,,,,,,,masks/mask_004.jpg,,,,,,,,,,,,,,,,,,,,,,,,,,,,,,,,,,,,,,,,,,,0,0,0,3,1,,,,,,,,,,,,,,,,,,,,,,,,,,,,,,,,,,,,,,,,,,,,,,
376799,001,2022-11-21_00h57.50.550,Info_measure_main_exp,2022.2.2,Win32,144.092219,,,,,,,,,,,,,,,,,,masks/mask_003.jpg,,,,,,,,,,,,,,,,,,,,,,,,,,,,,,,,,,,,,,,,,,,0,1,1,2,1,,,,,,,,,,,,,,,,,,,,,,,,,,,,,,,,,,,,,,,,,,,,,,
376799,001,2022-11-21_00h57.50.550,Info_measure_main_exp,2022.2.2,Win32,144.092219,,,,,,,,,,,,,,,,,,masks/mask_001.jpg,,,,,,,,,,,,,,,,,,,,,,,,,,,,,,,,,,,,,,,,,,,0,2,2,0,1,,,,,,,,,,,,,,,,,,,,,,,,,,,,,,,,,,,,,,,,,,,,,,
376799,001,2022-11-21_00h57.50.550,Info_measure_main_exp,2022.2.2,Win32,144.092219,,,,,,,,,,,,,,,,,,masks/mask_005.jpg,,,,,,,,,,,,,,,,,,,,,,,,,,,,,,,,,,,,,,,,,,,0,3,3,4,1,,,,,,,,,,,,,,,,,,,,,,,,,,,,,,,,,,,,,,,,,,,,,,
376799,001,2022-11-21_00h57.50.550,Info_measure_main_exp,2022.2.2,Win32,144.092219,,,,,,,,,,,,,,,,,,masks/mask_002.jpg,,,,,,,,,,,,,,,,,,,,,,,,,,,,,,,,,,,,,,,,,,,0,4,4,1,1,,,,,,,,,,,,,,,,,,,,,,,,,,,,,,,,,,,,,,,,,,,,,,
376799,001,2022-11-21_00h57.50.550,Info_measure_main_exp,2022.2.2,Win32,144.092219,,,,,,,,,,,,,,,,,,masks/mask_004.jpg,,,,,,,,,,,,,,,,,,,,,,,,,,,,,,,,,,,,,,,,,,,,,,,,0,0,0,3,1,,,,,,,,,,,,,,,,,,,,,,,,,,,,,,,,,,,,,,,,,
376799,001,2022-11-21_00h57.50.550,Info_measure_main_exp,2022.2.2,Win32,144.092219,,,,,,,,,,,,,,,,,,masks/mask_003.jpg,,,,,,,,,,,,,,,,,,,,,,,,,,,,,,,,,,,,,,,,,,,,,,,,0,1,1,2,1,,,,,,,,,,,,,,,,,,,,,,,,,,,,,,,,,,,,,,,,,
376799,001,2022-11-21_00h57.50.550,Info_measure_main_exp,2022.2.2,Win32,144.092219,,,,,,,,,,,,,,,,,,masks/mask_002.jpg,,,,,,,,,,,,,,,,,,,,,,,,,,,,,,,,,,,,,,,,,,,,,,,,0,2,2,1,1,,,,,,,,,,,,,,,,,,,,,,,,,,,,,,,,,,,,,,,,,
376799,001,2022-11-21_00h57.50.550,Info_measure_main_exp,2022.2.2,Win32,144.092219,,,,,,,,,,,,,,,,,,masks/mask_001.jpg,,,,,,,,,,,,,,,,,,,,,,,,,,,,,,,,,,,,,,,,,,,,,,,,0,3,3,0,1,,,,,,,,,,,,,,,,,,,,,,,,,,,,,,,,,,,,,,,,,
376799,001,2022-11-21_00h57.50.550,Info_measure_main_exp,2022.2.2,Win32,144.092219,,,,,,,,,,,,,,,,,,masks/mask_005.jpg,,,,,,,,,,,,,,,,,,,,,,,,,,,,,,,,,,,,,,,,,,,,,,,,0,4,4,4,1,,,,,,,,,,,,,,,,,,,,,,,,,,,,,,,,,,,,,,,,,
376799,001,2022-11-21_00h57.50.550,Info_measure_main_exp,2022.2.2,Win32,144.092219,,,,,,,,,,,,,,,,,,,,,,,,,,,,,,7,0.834,1,,,,,,,,,,,,0,131,5,5,2154,2298,absent_patch/patch0002154.jpg,absent_patch/patch0002298.jpg,,,,,,,,,,,,,,,,,,,,0.015046296,0.049768519,1,0,0,response1disk,20,-0.003472222,0.001157407,1,0,0,center_square,0,19,19,27,1,,,,,,,,,,,,,,,,,,,,,,,
376799,001,2022-11-21_00h57.50.550,Info_measure_main_exp,2022.2.2,Win32,144.092219,,,,,,,,,,,,,,,,,,masks/mask_001.jpg,,,,,,,,,,,,,,,,,,,,,,,,,,,,,,,,,,,,,,,,,,,0,0,0,0,1,,,,,,,,,,,,,,,,,,,,,,,,,,,,,,,,,,,,,,,,,,,,,,
376799,001,2022-11-21_00h57.50.550,Info_measure_main_exp,2022.2.2,Win32,144.092219,,,,,,,,,,,,,,,,,,masks/mask_003.jpg,,,,,,,,,,,,,,,,,,,,,,,,,,,,,,,,,,,,,,,,,,,0,1,1,2,1,,,,,,,,,,,,,,,,,,,,,,,,,,,,,,,,,,,,,,,,,,,,,,
376799,001,2022-11-21_00h57.50.550,Info_measure_main_exp,2022.2.2,Win32,144.092219,,,,,,,,,,,,,,,,,,masks/mask_004.jpg,,,,,,,,,,,,,,,,,,,,,,,,,,,,,,,,,,,,,,,,,,,0,2,2,3,1,,,,,,,,,,,,,,,,,,,,,,,,,,,,,,,,,,,,,,,,,,,,,,
376799,001,2022-11-21_00h57.50.550,Info_measure_main_exp,2022.2.2,Win32,144.092219,,,,,,,,,,,,,,,,,,masks/mask_002.jpg,,,,,,,,,,,,,,,,,,,,,,,,,,,,,,,,,,,,,,,,,,,0,3,3,1,1,,,,,,,,,,,,,,,,,,,,,,,,,,,,,,,,,,,,,,,,,,,,,,
376799,001,2022-11-21_00h57.50.550,Info_measure_main_exp,2022.2.2,Win32,144.092219,,,,,,,,,,,,,,,,,,masks/mask_005.jpg,,,,,,,,,,,,,,,,,,,,,,,,,,,,,,,,,,,,,,,,,,,0,4,4,4,1,,,,,,,,,,,,,,,,,,,,,,,,,,,,,,,,,,,,,,,,,,,,,,
376799,001,2022-11-21_00h57.50.550,Info_measure_main_exp,2022.2.2,Win32,144.092219,,,,,,,,,,,,,,,,,,masks/mask_005.jpg,,,,,,,,,,,,,,,,,,,,,,,,,,,,,,,,,,,,,,,,,,,,,,,,0,0,0,4,1,,,,,,,,,,,,,,,,,,,,,,,,,,,,,,,,,,,,,,,,,
376799,001,2022-11-21_00h57.50.550,Info_measure_main_exp,2022.2.2,Win32,144.092219,,,,,,,,,,,,,,,,,,masks/mask_002.jpg,,,,,,,,,,,,,,,,,,,,,,,,,,,,,,,,,,,,,,,,,,,,,,,,0,1,1,1,1,,,,,,,,,,,,,,,,,,,,,,,,,,,,,,,,,,,,,,,,,
376799,001,2022-11-21_00h57.50.550,Info_measure_main_exp,2022.2.2,Win32,144.092219,,,,,,,,,,,,,,,,,,masks/mask_003.jpg,,,,,,,,,,,,,,,,,,,,,,,,,,,,,,,,,,,,,,,,,,,,,,,,0,2,2,2,1,,,,,,,,,,,,,,,,,,,,,,,,,,,,,,,,,,,,,,,,,
376799,001,2022-11-21_00h57.50.550,Info_measure_main_exp,2022.2.2,Win32,144.092219,,,,,,,,,,,,,,,,,,masks/mask_001.jpg,,,,,,,,,,,,,,,,,,,,,,,,,,,,,,,,,,,,,,,,,,,,,,,,0,3,3,0,1,,,,,,,,,,,,,,,,,,,,,,,,,,,,,,,,,,,,,,,,,
376799,001,2022-11-21_00h57.50.550,Info_measure_main_exp,2022.2.2,Win32,144.092219,,,,,,,,,,,,,,,,,,masks/mask_004.jpg,,,,,,,,,,,,,,,,,,,,,,,,,,,,,,,,,,,,,,,,,,,,,,,,0,4,4,3,1,,,,,,,,,,,,,,,,,,,,,,,,,,,,,,,,,,,,,,,,,
376799,001,2022-11-21_00h57.50.550,Info_measure_main_exp,2022.2.2,Win32,144.092219,,,,,,,,,,,,,,,,,,,,,,,,,,,,,,6,1.917,1,,,,,,,,,,,,0,131,5,5,2178,2166,absent_patch/patch0002178.jpg,absent_patch/patch0002166.jpg,,,,,,,,,,,,,,,,,,,,0.054398148,0.021990741,1,0,0,response1disk,21,0.011574074,0.001157407,1,0,0,center_square,0,20,20,72,1,,,,,,,,,,,,,,,,,,,,,,,
376799,001,2022-11-21_00h57.50.550,Info_measure_main_exp,2022.2.2,Win32,144.092219,,,,,,,,,,,,,,,,,,masks/mask_001.jpg,,,,,,,,,,,,,,,,,,,,,,,,,,,,,,,,,,,,,,,,,,,0,0,0,0,1,,,,,,,,,,,,,,,,,,,,,,,,,,,,,,,,,,,,,,,,,,,,,,
376799,001,2022-11-21_00h57.50.550,Info_measure_main_exp,2022.2.2,Win32,144.092219,,,,,,,,,,,,,,,,,,masks/mask_004.jpg,,,,,,,,,,,,,,,,,,,,,,,,,,,,,,,,,,,,,,,,,,,0,1,1,3,1,,,,,,,,,,,,,,,,,,,,,,,,,,,,,,,,,,,,,,,,,,,,,,
376799,001,2022-11-21_00h57.50.550,Info_measure_main_exp,2022.2.2,Win32,144.092219,,,,,,,,,,,,,,,,,,masks/mask_005.jpg,,,,,,,,,,,,,,,,,,,,,,,,,,,,,,,,,,,,,,,,,,,0,2,2,4,1,,,,,,,,,,,,,,,,,,,,,,,,,,,,,,,,,,,,,,,,,,,,,,
376799,001,2022-11-21_00h57.50.550,Info_measure_main_exp,2022.2.2,Win32,144.092219,,,,,,,,,,,,,,,,,,masks/mask_003.jpg,,,,,,,,,,,,,,,,,,,,,,,,,,,,,,,,,,,,,,,,,,,0,3,3,2,1,,,,,,,,,,,,,,,,,,,,,,,,,,,,,,,,,,,,,,,,,,,,,,
376799,001,2022-11-21_00h57.50.550,Info_measure_main_exp,2022.2.2,Win32,144.092219,,,,,,,,,,,,,,,,,,masks/mask_002.jpg,,,,,,,,,,,,,,,,,,,,,,,,,,,,,,,,,,,,,,,,,,,0,4,4,1,1,,,,,,,,,,,,,,,,,,,,,,,,,,,,,,,,,,,,,,,,,,,,,,
376799,001,2022-11-21_00h57.50.550,Info_measure_main_exp,2022.2.2,Win32,144.092219,,,,,,,,,,,,,,,,,,masks/mask_005.jpg,,,,,,,,,,,,,,,,,,,,,,,,,,,,,,,,,,,,,,,,,,,,,,,,0,0,0,4,1,,,,,,,,,,,,,,,,,,,,,,,,,,,,,,,,,,,,,,,,,
376799,001,2022-11-21_00h57.50.550,Info_measure_main_exp,2022.2.2,Win32,144.092219,,,,,,,,,,,,,,,,,,masks/mask_004.jpg,,,,,,,,,,,,,,,,,,,,,,,,,,,,,,,,,,,,,,,,,,,,,,,,0,1,1,3,1,,,,,,,,,,,,,,,,,,,,,,,,,,,,,,,,,,,,,,,,,
376799,001,2022-11-21_00h57.50.550,Info_measure_main_exp,2022.2.2,Win32,144.092219,,,,,,,,,,,,,,,,,,masks/mask_002.jpg,,,,,,,,,,,,,,,,,,,,,,,,,,,,,,,,,,,,,,,,,,,,,,,,0,2,2,1,1,,,,,,,,,,,,,,,,,,,,,,,,,,,,,,,,,,,,,,,,,
376799,001,2022-11-21_00h57.50.550,Info_measure_main_exp,2022.2.2,Win32,144.092219,,,,,,,,,,,,,,,,,,masks/mask_001.jpg,,,,,,,,,,,,,,,,,,,,,,,,,,,,,,,,,,,,,,,,,,,,,,,,0,3,3,0,1,,,,,,,,,,,,,,,,,,,,,,,,,,,,,,,,,,,,,,,,,
376799,001,2022-11-21_00h57.50.550,Info_measure_main_exp,2022.2.2,Win32,144.092219,,,,,,,,,,,,,,,,,,masks/mask_003.jpg,,,,,,,,,,,,,,,,,,,,,,,,,,,,,,,,,,,,,,,,,,,,,,,,0,4,4,2,1,,,,,,,,,,,,,,,,,,,,,,,,,,,,,,,,,,,,,,,,,
376799,001,2022-11-21_00h57.50.550,Info_measure_main_exp,2022.2.2,Win32,144.092219,,,,,,,,,,,,,,,,,,,,,,,,,,,,,,4,2.952,1,,,,,,,,,,,,0,131,5,5,2274,2154,absent_patch/patch0002274.jpg,absent_patch/patch0002154.jpg,,,,,,,,,,,,,,,,,,,,0.025462963,-0.071759259,1,0,0,response3disk,22,-0.005787037,-0.00462963,1,0,0,center_square,0,21,21,23,1,,,,,,,,,,,,,,,,,,,,,,,
376799,001,2022-11-21_00h57.50.550,Info_measure_main_exp,2022.2.2,Win32,144.092219,,,,,,,,,,,,,,,,,,masks/mask_002.jpg,,,,,,,,,,,,,,,,,,,,,,,,,,,,,,,,,,,,,,,,,,,0,0,0,1,1,,,,,,,,,,,,,,,,,,,,,,,,,,,,,,,,,,,,,,,,,,,,,,
376799,001,2022-11-21_00h57.50.550,Info_measure_main_exp,2022.2.2,Win32,144.092219,,,,,,,,,,,,,,,,,,masks/mask_001.jpg,,,,,,,,,,,,,,,,,,,,,,,,,,,,,,,,,,,,,,,,,,,0,1,1,0,1,,,,,,,,,,,,,,,,,,,,,,,,,,,,,,,,,,,,,,,,,,,,,,
376799,001,2022-11-21_00h57.50.550,Info_measure_main_exp,2022.2.2,Win32,144.092219,,,,,,,,,,,,,,,,,,masks/mask_004.jpg,,,,,,,,,,,,,,,,,,,,,,,,,,,,,,,,,,,,,,,,,,,0,2,2,3,1,,,,,,,,,,,,,,,,,,,,,,,,,,,,,,,,,,,,,,,,,,,,,,
376799,001,2022-11-21_00h57.50.550,Info_measure_main_exp,2022.2.2,Win32,144.092219,,,,,,,,,,,,,,,,,,masks/mask_005.jpg,,,,,,,,,,,,,,,,,,,,,,,,,,,,,,,,,,,,,,,,,,,0,3,3,4,1,,,,,,,,,,,,,,,,,,,,,,,,,,,,,,,,,,,,,,,,,,,,,,
376799,001,2022-11-21_00h57.50.550,Info_measure_main_exp,2022.2.2,Win32,144.092219,,,,,,,,,,,,,,,,,,masks/mask_003.jpg,,,,,,,,,,,,,,,,,,,,,,,,,,,,,,,,,,,,,,,,,,,0,4,4,2,1,,,,,,,,,,,,,,,,,,,,,,,,,,,,,,,,,,,,,,,,,,,,,,
376799,001,2022-11-21_00h57.50.550,Info_measure_main_exp,2022.2.2,Win32,144.092219,,,,,,,,,,,,,,,,,,masks/mask_001.jpg,,,,,,,,,,,,,,,,,,,,,,,,,,,,,,,,,,,,,,,,,,,,,,,,0,0,0,0,1,,,,,,,,,,,,,,,,,,,,,,,,,,,,,,,,,,,,,,,,,
376799,001,2022-11-21_00h57.50.550,Info_measure_main_exp,2022.2.2,Win32,144.092219,,,,,,,,,,,,,,,,,,masks/mask_005.jpg,,,,,,,,,,,,,,,,,,,,,,,,,,,,,,,,,,,,,,,,,,,,,,,,0,1,1,4,1,,,,,,,,,,,,,,,,,,,,,,,,,,,,,,,,,,,,,,,,,
376799,001,2022-11-21_00h57.50.550,Info_measure_main_exp,2022.2.2,Win32,144.092219,,,,,,,,,,,,,,,,,,masks/mask_002.jpg,,,,,,,,,,,,,,,,,,,,,,,,,,,,,,,,,,,,,,,,,,,,,,,,0,2,2,1,1,,,,,,,,,,,,,,,,,,,,,,,,,,,,,,,,,,,,,,,,,
376799,001,2022-11-21_00h57.50.550,Info_measure_main_exp,2022.2.2,Win32,144.092219,,,,,,,,,,,,,,,,,,masks/mask_004.jpg,,,,,,,,,,,,,,,,,,,,,,,,,,,,,,,,,,,,,,,,,,,,,,,,0,3,3,3,1,,,,,,,,,,,,,,,,,,,,,,,,,,,,,,,,,,,,,,,,,
376799,001,2022-11-21_00h57.50.550,Info_measure_main_exp,2022.2.2,Win32,144.092219,,,,,,,,,,,,,,,,,,masks/mask_003.jpg,,,,,,,,,,,,,,,,,,,,,,,,,,,,,,,,,,,,,,,,,,,,,,,,0,4,4,2,1,,,,,,,,,,,,,,,,,,,,,,,,,,,,,,,,,,,,,,,,,
376799,001,2022-11-21_00h57.50.550,Info_measure_main_exp,2022.2.2,Win32,144.092219,,,,,,,,,,,,,,,,,,,,,,,,,,,,,,7,0.903,1,,,,,,,,,,,,0,131,5,5,2274,2250,absent_patch/patch0002274.jpg,absent_patch/patch0002250.jpg,,,,,,,,,,,,,,,,,,,,0.02662037,0.061342593,1,0,0,response1disk,23,0.001157407,-0.002314815,1,0,0,center_square,0,22,22,28,1,,,,,,,,,,,,,,,,,,,,,,,
376799,001,2022-11-21_00h57.50.550,Info_measure_main_exp,2022.2.2,Win32,144.092219,,,,,,,,,,,,,,,,,,masks/mask_002.jpg,,,,,,,,,,,,,,,,,,,,,,,,,,,,,,,,,,,,,,,,,,,0,0,0,1,1,,,,,,,,,,,,,,,,,,,,,,,,,,,,,,,,,,,,,,,,,,,,,,
376799,001,2022-11-21_00h57.50.550,Info_measure_main_exp,2022.2.2,Win32,144.092219,,,,,,,,,,,,,,,,,,masks/mask_005.jpg,,,,,,,,,,,,,,,,,,,,,,,,,,,,,,,,,,,,,,,,,,,0,1,1,4,1,,,,,,,,,,,,,,,,,,,,,,,,,,,,,,,,,,,,,,,,,,,,,,
376799,001,2022-11-21_00h57.50.550,Info_measure_main_exp,2022.2.2,Win32,144.092219,,,,,,,,,,,,,,,,,,masks/mask_001.jpg,,,,,,,,,,,,,,,,,,,,,,,,,,,,,,,,,,,,,,,,,,,0,2,2,0,1,,,,,,,,,,,,,,,,,,,,,,,,,,,,,,,,,,,,,,,,,,,,,,
376799,001,2022-11-21_00h57.50.550,Info_measure_main_exp,2022.2.2,Win32,144.092219,,,,,,,,,,,,,,,,,,masks/mask_004.jpg,,,,,,,,,,,,,,,,,,,,,,,,,,,,,,,,,,,,,,,,,,,0,3,3,3,1,,,,,,,,,,,,,,,,,,,,,,,,,,,,,,,,,,,,,,,,,,,,,,
376799,001,2022-11-21_00h57.50.550,Info_measure_main_exp,2022.2.2,Win32,144.092219,,,,,,,,,,,,,,,,,,masks/mask_003.jpg,,,,,,,,,,,,,,,,,,,,,,,,,,,,,,,,,,,,,,,,,,,0,4,4,2,1,,,,,,,,,,,,,,,,,,,,,,,,,,,,,,,,,,,,,,,,,,,,,,
376799,001,2022-11-21_00h57.50.550,Info_measure_main_exp,2022.2.2,Win32,144.092219,,,,,,,,,,,,,,,,,,masks/mask_005.jpg,,,,,,,,,,,,,,,,,,,,,,,,,,,,,,,,,,,,,,,,,,,,,,,,0,0,0,4,1,,,,,,,,,,,,,,,,,,,,,,,,,,,,,,,,,,,,,,,,,
376799,001,2022-11-21_00h57.50.550,Info_measure_main_exp,2022.2.2,Win32,144.092219,,,,,,,,,,,,,,,,,,masks/mask_001.jpg,,,,,,,,,,,,,,,,,,,,,,,,,,,,,,,,,,,,,,,,,,,,,,,,0,1,1,0,1,,,,,,,,,,,,,,,,,,,,,,,,,,,,,,,,,,,,,,,,,
376799,001,2022-11-21_00h57.50.550,Info_measure_main_exp,2022.2.2,Win32,144.092219,,,,,,,,,,,,,,,,,,masks/mask_002.jpg,,,,,,,,,,,,,,,,,,,,,,,,,,,,,,,,,,,,,,,,,,,,,,,,0,2,2,1,1,,,,,,,,,,,,,,,,,,,,,,,,,,,,,,,,,,,,,,,,,
376799,001,2022-11-21_00h57.50.550,Info_measure_main_exp,2022.2.2,Win32,144.092219,,,,,,,,,,,,,,,,,,masks/mask_004.jpg,,,,,,,,,,,,,,,,,,,,,,,,,,,,,,,,,,,,,,,,,,,,,,,,0,3,3,3,1,,,,,,,,,,,,,,,,,,,,,,,,,,,,,,,,,,,,,,,,,
376799,001,2022-11-21_00h57.50.550,Info_measure_main_exp,2022.2.2,Win32,144.092219,,,,,,,,,,,,,,,,,,masks/mask_003.jpg,,,,,,,,,,,,,,,,,,,,,,,,,,,,,,,,,,,,,,,,,,,,,,,,0,4,4,2,1,,,,,,,,,,,,,,,,,,,,,,,,,,,,,,,,,,,,,,,,,
376799,001,2022-11-21_00h57.50.550,Info_measure_main_exp,2022.2.2,Win32,144.092219,,,,,,,,,,,,,,,,,,,,,,,,,,,,,,0,4.974,1,,,,,,,,,,,,0,131,5,5,2178,2178,absent_patch/patch0002178.jpg,absent_patch/patch0002178.jpg,,,,,,,,,,,,,,,,,,,,-0.039351852,0.079861111,1,0,0,response7disk,24,-0.006944444,0.006944444,1,0,0,center_square,0,23,23,98,1,,,,,,,,,,,,,,,,,,,,,,,
376799,001,2022-11-21_00h57.50.550,Info_measure_main_exp,2022.2.2,Win32,144.092219,,,,,,,,,,,,,,,,,,masks/mask_001.jpg,,,,,,,,,,,,,,,,,,,,,,,,,,,,,,,,,,,,,,,,,,,0,0,0,0,1,,,,,,,,,,,,,,,,,,,,,,,,,,,,,,,,,,,,,,,,,,,,,,
376799,001,2022-11-21_00h57.50.550,Info_measure_main_exp,2022.2.2,Win32,144.092219,,,,,,,,,,,,,,,,,,masks/mask_002.jpg,,,,,,,,,,,,,,,,,,,,,,,,,,,,,,,,,,,,,,,,,,,0,1,1,1,1,,,,,,,,,,,,,,,,,,,,,,,,,,,,,,,,,,,,,,,,,,,,,,
376799,001,2022-11-21_00h57.50.550,Info_measure_main_exp,2022.2.2,Win32,144.092219,,,,,,,,,,,,,,,,,,masks/mask_005.jpg,,,,,,,,,,,,,,,,,,,,,,,,,,,,,,,,,,,,,,,,,,,0,2,2,4,1,,,,,,,,,,,,,,,,,,,,,,,,,,,,,,,,,,,,,,,,,,,,,,
376799,001,2022-11-21_00h57.50.550,Info_measure_main_exp,2022.2.2,Win32,144.092219,,,,,,,,,,,,,,,,,,masks/mask_003.jpg,,,,,,,,,,,,,,,,,,,,,,,,,,,,,,,,,,,,,,,,,,,0,3,3,2,1,,,,,,,,,,,,,,,,,,,,,,,,,,,,,,,,,,,,,,,,,,,,,,
376799,001,2022-11-21_00h57.50.550,Info_measure_main_exp,2022.2.2,Win32,144.092219,,,,,,,,,,,,,,,,,,masks/mask_004.jpg,,,,,,,,,,,,,,,,,,,,,,,,,,,,,,,,,,,,,,,,,,,0,4,4,3,1,,,,,,,,,,,,,,,,,,,,,,,,,,,,,,,,,,,,,,,,,,,,,,
376799,001,2022-11-21_00h57.50.550,Info_measure_main_exp,2022.2.2,Win32,144.092219,,,,,,,,,,,,,,,,,,masks/mask_004.jpg,,,,,,,,,,,,,,,,,,,,,,,,,,,,,,,,,,,,,,,,,,,,,,,,0,0,0,3,1,,,,,,,,,,,,,,,,,,,,,,,,,,,,,,,,,,,,,,,,,
376799,001,2022-11-21_00h57.50.550,Info_measure_main_exp,2022.2.2,Win32,144.092219,,,,,,,,,,,,,,,,,,masks/mask_005.jpg,,,,,,,,,,,,,,,,,,,,,,,,,,,,,,,,,,,,,,,,,,,,,,,,0,1,1,4,1,,,,,,,,,,,,,,,,,,,,,,,,,,,,,,,,,,,,,,,,,
376799,001,2022-11-21_00h57.50.550,Info_measure_main_exp,2022.2.2,Win32,144.092219,,,,,,,,,,,,,,,,,,masks/mask_001.jpg,,,,,,,,,,,,,,,,,,,,,,,,,,,,,,,,,,,,,,,,,,,,,,,,0,2,2,0,1,,,,,,,,,,,,,,,,,,,,,,,,,,,,,,,,,,,,,,,,,
376799,001,2022-11-21_00h57.50.550,Info_measure_main_exp,2022.2.2,Win32,144.092219,,,,,,,,,,,,,,,,,,masks/mask_002.jpg,,,,,,,,,,,,,,,,,,,,,,,,,,,,,,,,,,,,,,,,,,,,,,,,0,3,3,1,1,,,,,,,,,,,,,,,,,,,,,,,,,,,,,,,,,,,,,,,,,
376799,001,2022-11-21_00h57.50.550,Info_measure_main_exp,2022.2.2,Win32,144.092219,,,,,,,,,,,,,,,,,,masks/mask_003.jpg,,,,,,,,,,,,,,,,,,,,,,,,,,,,,,,,,,,,,,,,,,,,,,,,0,4,4,2,1,,,,,,,,,,,,,,,,,,,,,,,,,,,,,,,,,,,,,,,,,
376799,001,2022-11-21_00h57.50.550,Info_measure_main_exp,2022.2.2,Win32,144.092219,,,,,,,,,,,,,,,,,,,,,,,,,,,,,,4,1.557,1,,,,,,,,,,,,0,131,5,5,1950,2298,absent_patch/patch0001950.jpg,absent_patch/patch0002298.jpg,,,,,,,,,,,,,,,,,,,,0.034722222,-0.059027778,1,0,0,response3disk,25,0.003472222,-0.009259259,1,0,0,center_square,0,24,24,18,1,,,,,,,,,,,,,,,,,,,,,,,
376799,001,2022-11-21_00h57.50.550,Info_measure_main_exp,2022.2.2,Win32,144.092219,,,,,,,,,,,,,,,,,,masks/mask_001.jpg,,,,,,,,,,,,,,,,,,,,,,,,,,,,,,,,,,,,,,,,,,,0,0,0,0,1,,,,,,,,,,,,,,,,,,,,,,,,,,,,,,,,,,,,,,,,,,,,,,
376799,001,2022-11-21_00h57.50.550,Info_measure_main_exp,2022.2.2,Win32,144.092219,,,,,,,,,,,,,,,,,,masks/mask_005.jpg,,,,,,,,,,,,,,,,,,,,,,,,,,,,,,,,,,,,,,,,,,,0,1,1,4,1,,,,,,,,,,,,,,,,,,,,,,,,,,,,,,,,,,,,,,,,,,,,,,
376799,001,2022-11-21_00h57.50.550,Info_measure_main_exp,2022.2.2,Win32,144.092219,,,,,,,,,,,,,,,,,,masks/mask_002.jpg,,,,,,,,,,,,,,,,,,,,,,,,,,,,,,,,,,,,,,,,,,,0,2,2,1,1,,,,,,,,,,,,,,,,,,,,,,,,,,,,,,,,,,,,,,,,,,,,,,
376799,001,2022-11-21_00h57.50.550,Info_measure_main_exp,2022.2.2,Win32,144.092219,,,,,,,,,,,,,,,,,,masks/mask_004.jpg,,,,,,,,,,,,,,,,,,,,,,,,,,,,,,,,,,,,,,,,,,,0,3,3,3,1,,,,,,,,,,,,,,,,,,,,,,,,,,,,,,,,,,,,,,,,,,,,,,
376799,001,2022-11-21_00h57.50.550,Info_measure_main_exp,2022.2.2,Win32,144.092219,,,,,,,,,,,,,,,,,,masks/mask_003.jpg,,,,,,,,,,,,,,,,,,,,,,,,,,,,,,,,,,,,,,,,,,,0,4,4,2,1,,,,,,,,,,,,,,,,,,,,,,,,,,,,,,,,,,,,,,,,,,,,,,
376799,001,2022-11-21_00h57.50.550,Info_measure_main_exp,2022.2.2,Win32,144.092219,,,,,,,,,,,,,,,,,,masks/mask_005.jpg,,,,,,,,,,,,,,,,,,,,,,,,,,,,,,,,,,,,,,,,,,,,,,,,0,0,0,4,1,,,,,,,,,,,,,,,,,,,,,,,,,,,,,,,,,,,,,,,,,
376799,001,2022-11-21_00h57.50.550,Info_measure_main_exp,2022.2.2,Win32,144.092219,,,,,,,,,,,,,,,,,,masks/mask_002.jpg,,,,,,,,,,,,,,,,,,,,,,,,,,,,,,,,,,,,,,,,,,,,,,,,0,1,1,1,1,,,,,,,,,,,,,,,,,,,,,,,,,,,,,,,,,,,,,,,,,
376799,001,2022-11-21_00h57.50.550,Info_measure_main_exp,2022.2.2,Win32,144.092219,,,,,,,,,,,,,,,,,,masks/mask_003.jpg,,,,,,,,,,,,,,,,,,,,,,,,,,,,,,,,,,,,,,,,,,,,,,,,0,2,2,2,1,,,,,,,,,,,,,,,,,,,,,,,,,,,,,,,,,,,,,,,,,
376799,001,2022-11-21_00h57.50.550,Info_measure_main_exp,2022.2.2,Win32,144.092219,,,,,,,,,,,,,,,,,,masks/mask_001.jpg,,,,,,,,,,,,,,,,,,,,,,,,,,,,,,,,,,,,,,,,,,,,,,,,0,3,3,0,1,,,,,,,,,,,,,,,,,,,,,,,,,,,,,,,,,,,,,,,,,
376799,001,2022-11-21_00h57.50.550,Info_measure_main_exp,2022.2.2,Win32,144.092219,,,,,,,,,,,,,,,,,,masks/mask_004.jpg,,,,,,,,,,,,,,,,,,,,,,,,,,,,,,,,,,,,,,,,,,,,,,,,0,4,4,3,1,,,,,,,,,,,,,,,,,,,,,,,,,,,,,,,,,,,,,,,,,
376799,001,2022-11-21_00h57.50.550,Info_measure_main_exp,2022.2.2,Win32,144.092219,,,,,,,,,,,,,,,,,,,,,,,,,,,,,,0,0.806,1,,,,,,,,,,,,0,131,5,5,2190,2190,absent_patch/patch0002190.jpg,absent_patch/patch0002190.jpg,,,,,,,,,,,,,,,,,,,,-0.03125,0.076388889,1,0,0,response7disk,26,-0.00462963,0.006944444,1,0,0,center_square,0,25,25,86,1,,,,,,,,,,,,,,,,,,,,,,,
376799,001,2022-11-21_00h57.50.550,Info_measure_main_exp,2022.2.2,Win32,144.092219,,,,,,,,,,,,,,,,,,masks/mask_001.jpg,,,,,,,,,,,,,,,,,,,,,,,,,,,,,,,,,,,,,,,,,,,0,0,0,0,1,,,,,,,,,,,,,,,,,,,,,,,,,,,,,,,,,,,,,,,,,,,,,,
376799,001,2022-11-21_00h57.50.550,Info_measure_main_exp,2022.2.2,Win32,144.092219,,,,,,,,,,,,,,,,,,masks/mask_004.jpg,,,,,,,,,,,,,,,,,,,,,,,,,,,,,,,,,,,,,,,,,,,0,1,1,3,1,,,,,,,,,,,,,,,,,,,,,,,,,,,,,,,,,,,,,,,,,,,,,,
376799,001,2022-11-21_00h57.50.550,Info_measure_main_exp,2022.2.2,Win32,144.092219,,,,,,,,,,,,,,,,,,masks/mask_003.jpg,,,,,,,,,,,,,,,,,,,,,,,,,,,,,,,,,,,,,,,,,,,0,2,2,2,1,,,,,,,,,,,,,,,,,,,,,,,,,,,,,,,,,,,,,,,,,,,,,,
376799,001,2022-11-21_00h57.50.550,Info_measure_main_exp,2022.2.2,Win32,144.092219,,,,,,,,,,,,,,,,,,masks/mask_005.jpg,,,,,,,,,,,,,,,,,,,,,,,,,,,,,,,,,,,,,,,,,,,0,3,3,4,1,,,,,,,,,,,,,,,,,,,,,,,,,,,,,,,,,,,,,,,,,,,,,,
376799,001,2022-11-21_00h57.50.550,Info_measure_main_exp,2022.2.2,Win32,144.092219,,,,,,,,,,,,,,,,,,masks/mask_002.jpg,,,,,,,,,,,,,,,,,,,,,,,,,,,,,,,,,,,,,,,,,,,0,4,4,1,1,,,,,,,,,,,,,,,,,,,,,,,,,,,,,,,,,,,,,,,,,,,,,,
376799,001,2022-11-21_00h57.50.550,Info_measure_main_exp,2022.2.2,Win32,144.092219,,,,,,,,,,,,,,,,,,masks/mask_005.jpg,,,,,,,,,,,,,,,,,,,,,,,,,,,,,,,,,,,,,,,,,,,,,,,,0,0,0,4,1,,,,,,,,,,,,,,,,,,,,,,,,,,,,,,,,,,,,,,,,,
376799,001,2022-11-21_00h57.50.550,Info_measure_main_exp,2022.2.2,Win32,144.092219,,,,,,,,,,,,,,,,,,masks/mask_001.jpg,,,,,,,,,,,,,,,,,,,,,,,,,,,,,,,,,,,,,,,,,,,,,,,,0,1,1,0,1,,,,,,,,,,,,,,,,,,,,,,,,,,,,,,,,,,,,,,,,,
376799,001,2022-11-21_00h57.50.550,Info_measure_main_exp,2022.2.2,Win32,144.092219,,,,,,,,,,,,,,,,,,masks/mask_004.jpg,,,,,,,,,,,,,,,,,,,,,,,,,,,,,,,,,,,,,,,,,,,,,,,,0,2,2,3,1,,,,,,,,,,,,,,,,,,,,,,,,,,,,,,,,,,,,,,,,,
376799,001,2022-11-21_00h57.50.550,Info_measure_main_exp,2022.2.2,Win32,144.092219,,,,,,,,,,,,,,,,,,masks/mask_003.jpg,,,,,,,,,,,,,,,,,,,,,,,,,,,,,,,,,,,,,,,,,,,,,,,,0,3,3,2,1,,,,,,,,,,,,,,,,,,,,,,,,,,,,,,,,,,,,,,,,,
376799,001,2022-11-21_00h57.50.550,Info_measure_main_exp,2022.2.2,Win32,144.092219,,,,,,,,,,,,,,,,,,masks/mask_002.jpg,,,,,,,,,,,,,,,,,,,,,,,,,,,,,,,,,,,,,,,,,,,,,,,,0,4,4,1,1,,,,,,,,,,,,,,,,,,,,,,,,,,,,,,,,,,,,,,,,,
376799,001,2022-11-21_00h57.50.550,Info_measure_main_exp,2022.2.2,Win32,144.092219,,,,,,,,,,,,,,,,,,,,,,,,,,,,,,2,3.007,1,,,,,,,,,,,,0,131,5,5,2082,1974,absent_patch/patch0002082.jpg,absent_patch/patch0001974.jpg,,,,,,,,,,,,,,,,,,,,-0.078703704,-0.011574074,1,0,0,response5disk,27,-0.006944444,0.001157407,1,0,0,center_square,0,26,26,26,1,,,,,,,,,,,,,,,,,,,,,,,
376799,001,2022-11-21_00h57.50.550,Info_measure_main_exp,2022.2.2,Win32,144.092219,,,,,,,,,,,,,,,,,,masks/mask_003.jpg,,,,,,,,,,,,,,,,,,,,,,,,,,,,,,,,,,,,,,,,,,,0,0,0,2,1,,,,,,,,,,,,,,,,,,,,,,,,,,,,,,,,,,,,,,,,,,,,,,
376799,001,2022-11-21_00h57.50.550,Info_measure_main_exp,2022.2.2,Win32,144.092219,,,,,,,,,,,,,,,,,,masks/mask_001.jpg,,,,,,,,,,,,,,,,,,,,,,,,,,,,,,,,,,,,,,,,,,,0,1,1,0,1,,,,,,,,,,,,,,,,,,,,,,,,,,,,,,,,,,,,,,,,,,,,,,
376799,001,2022-11-21_00h57.50.550,Info_measure_main_exp,2022.2.2,Win32,144.092219,,,,,,,,,,,,,,,,,,masks/mask_004.jpg,,,,,,,,,,,,,,,,,,,,,,,,,,,,,,,,,,,,,,,,,,,0,2,2,3,1,,,,,,,,,,,,,,,,,,,,,,,,,,,,,,,,,,,,,,,,,,,,,,
376799,001,2022-11-21_00h57.50.550,Info_measure_main_exp,2022.2.2,Win32,144.092219,,,,,,,,,,,,,,,,,,masks/mask_002.jpg,,,,,,,,,,,,,,,,,,,,,,,,,,,,,,,,,,,,,,,,,,,0,3,3,1,1,,,,,,,,,,,,,,,,,,,,,,,,,,,,,,,,,,,,,,,,,,,,,,
376799,001,2022-11-21_00h57.50.550,Info_measure_main_exp,2022.2.2,Win32,144.092219,,,,,,,,,,,,,,,,,,masks/mask_005.jpg,,,,,,,,,,,,,,,,,,,,,,,,,,,,,,,,,,,,,,,,,,,0,4,4,4,1,,,,,,,,,,,,,,,,,,,,,,,,,,,,,,,,,,,,,,,,,,,,,,
376799,001,2022-11-21_00h57.50.550,Info_measure_main_exp,2022.2.2,Win32,144.092219,,,,,,,,,,,,,,,,,,masks/mask_004.jpg,,,,,,,,,,,,,,,,,,,,,,,,,,,,,,,,,,,,,,,,,,,,,,,,0,0,0,3,1,,,,,,,,,,,,,,,,,,,,,,,,,,,,,,,,,,,,,,,,,
376799,001,2022-11-21_00h57.50.550,Info_measure_main_exp,2022.2.2,Win32,144.092219,,,,,,,,,,,,,,,,,,masks/mask_005.jpg,,,,,,,,,,,,,,,,,,,,,,,,,,,,,,,,,,,,,,,,,,,,,,,,0,1,1,4,1,,,,,,,,,,,,,,,,,,,,,,,,,,,,,,,,,,,,,,,,,
376799,001,2022-11-21_00h57.50.550,Info_measure_main_exp,2022.2.2,Win32,144.092219,,,,,,,,,,,,,,,,,,masks/mask_001.jpg,,,,,,,,,,,,,,,,,,,,,,,,,,,,,,,,,,,,,,,,,,,,,,,,0,2,2,0,1,,,,,,,,,,,,,,,,,,,,,,,,,,,,,,,,,,,,,,,,,
376799,001,2022-11-21_00h57.50.550,Info_measure_main_exp,2022.2.2,Win32,144.092219,,,,,,,,,,,,,,,,,,masks/mask_002.jpg,,,,,,,,,,,,,,,,,,,,,,,,,,,,,,,,,,,,,,,,,,,,,,,,0,3,3,1,1,,,,,,,,,,,,,,,,,,,,,,,,,,,,,,,,,,,,,,,,,
376799,001,2022-11-21_00h57.50.550,Info_measure_main_exp,2022.2.2,Win32,144.092219,,,,,,,,,,,,,,,,,,masks/mask_003.jpg,,,,,,,,,,,,,,,,,,,,,,,,,,,,,,,,,,,,,,,,,,,,,,,,0,4,4,2,1,,,,,,,,,,,,,,,,,,,,,,,,,,,,,,,,,,,,,,,,,
376799,001,2022-11-21_00h57.50.550,Info_measure_main_exp,2022.2.2,Win32,144.092219,,,,,,,,,,,,,,,,,,,,,,,,,,,,,,6,0.882,1,,,,,,,,,,,,0,131,5,5,1974,2214,absent_patch/patch0001974.jpg,absent_patch/patch0002214.jpg,,,,,,,,,,,,,,,,,,,,0.076388889,0.025462963,1,0,0,response1disk,28,0.00462963,0.002314815,1,0,0,center_square,0,27,27,24,1,,,,,,,,,,,,,,,,,,,,,,,
376799,001,2022-11-21_00h57.50.550,Info_measure_main_exp,2022.2.2,Win32,144.092219,,,,,,,,,,,,,,,,,,masks/mask_004.jpg,,,,,,,,,,,,,,,,,,,,,,,,,,,,,,,,,,,,,,,,,,,0,0,0,3,1,,,,,,,,,,,,,,,,,,,,,,,,,,,,,,,,,,,,,,,,,,,,,,
376799,001,2022-11-21_00h57.50.550,Info_measure_main_exp,2022.2.2,Win32,144.092219,,,,,,,,,,,,,,,,,,masks/mask_003.jpg,,,,,,,,,,,,,,,,,,,,,,,,,,,,,,,,,,,,,,,,,,,0,1,1,2,1,,,,,,,,,,,,,,,,,,,,,,,,,,,,,,,,,,,,,,,,,,,,,,
376799,001,2022-11-21_00h57.50.550,Info_measure_main_exp,2022.2.2,Win32,144.092219,,,,,,,,,,,,,,,,,,masks/mask_001.jpg,,,,,,,,,,,,,,,,,,,,,,,,,,,,,,,,,,,,,,,,,,,0,2,2,0,1,,,,,,,,,,,,,,,,,,,,,,,,,,,,,,,,,,,,,,,,,,,,,,
376799,001,2022-11-21_00h57.50.550,Info_measure_main_exp,2022.2.2,Win32,144.092219,,,,,,,,,,,,,,,,,,masks/mask_005.jpg,,,,,,,,,,,,,,,,,,,,,,,,,,,,,,,,,,,,,,,,,,,0,3,3,4,1,,,,,,,,,,,,,,,,,,,,,,,,,,,,,,,,,,,,,,,,,,,,,,
376799,001,2022-11-21_00h57.50.550,Info_measure_main_exp,2022.2.2,Win32,144.092219,,,,,,,,,,,,,,,,,,masks/mask_002.jpg,,,,,,,,,,,,,,,,,,,,,,,,,,,,,,,,,,,,,,,,,,,0,4,4,1,1,,,,,,,,,,,,,,,,,,,,,,,,,,,,,,,,,,,,,,,,,,,,,,
376799,001,2022-11-21_00h57.50.550,Info_measure_main_exp,2022.2.2,Win32,144.092219,,,,,,,,,,,,,,,,,,masks/mask_003.jpg,,,,,,,,,,,,,,,,,,,,,,,,,,,,,,,,,,,,,,,,,,,,,,,,0,0,0,2,1,,,,,,,,,,,,,,,,,,,,,,,,,,,,,,,,,,,,,,,,,
376799,001,2022-11-21_00h57.50.550,Info_measure_main_exp,2022.2.2,Win32,144.092219,,,,,,,,,,,,,,,,,,masks/mask_005.jpg,,,,,,,,,,,,,,,,,,,,,,,,,,,,,,,,,,,,,,,,,,,,,,,,0,1,1,4,1,,,,,,,,,,,,,,,,,,,,,,,,,,,,,,,,,,,,,,,,,
376799,001,2022-11-21_00h57.50.550,Info_measure_main_exp,2022.2.2,Win32,144.092219,,,,,,,,,,,,,,,,,,masks/mask_001.jpg,,,,,,,,,,,,,,,,,,,,,,,,,,,,,,,,,,,,,,,,,,,,,,,,0,2,2,0,1,,,,,,,,,,,,,,,,,,,,,,,,,,,,,,,,,,,,,,,,,
376799,001,2022-11-21_00h57.50.550,Info_measure_main_exp,2022.2.2,Win32,144.092219,,,,,,,,,,,,,,,,,,masks/mask_002.jpg,,,,,,,,,,,,,,,,,,,,,,,,,,,,,,,,,,,,,,,,,,,,,,,,0,3,3,1,1,,,,,,,,,,,,,,,,,,,,,,,,,,,,,,,,,,,,,,,,,
376799,001,2022-11-21_00h57.50.550,Info_measure_main_exp,2022.2.2,Win32,144.092219,,,,,,,,,,,,,,,,,,masks/mask_004.jpg,,,,,,,,,,,,,,,,,,,,,,,,,,,,,,,,,,,,,,,,,,,,,,,,0,4,4,3,1,,,,,,,,,,,,,,,,,,,,,,,,,,,,,,,,,,,,,,,,,
376799,001,2022-11-21_00h57.50.550,Info_measure_main_exp,2022.2.2,Win32,144.092219,,,,,,,,,,,,,,,,,,,,,,,,,,,,,,7,1.268,1,,,,,,,,,,,,0,131,5,5,2214,2166,absent_patch/patch0002214.jpg,absent_patch/patch0002166.jpg,,,,,,,,,,,,,,,,,,,,0.041666667,0.069444444,1,0,0,response1disk,29,0.006944444,0.006944444,1,0,0,center_square,0,28,28,109,1,,,,,,,,,,,,,,,,,,,,,,,
376799,001,2022-11-21_00h57.50.550,Info_measure_main_exp,2022.2.2,Win32,144.092219,,,,,,,,,,,,,,,,,,masks/mask_003.jpg,,,,,,,,,,,,,,,,,,,,,,,,,,,,,,,,,,,,,,,,,,,0,0,0,2,1,,,,,,,,,,,,,,,,,,,,,,,,,,,,,,,,,,,,,,,,,,,,,,
376799,001,2022-11-21_00h57.50.550,Info_measure_main_exp,2022.2.2,Win32,144.092219,,,,,,,,,,,,,,,,,,masks/mask_004.jpg,,,,,,,,,,,,,,,,,,,,,,,,,,,,,,,,,,,,,,,,,,,0,1,1,3,1,,,,,,,,,,,,,,,,,,,,,,,,,,,,,,,,,,,,,,,,,,,,,,
376799,001,2022-11-21_00h57.50.550,Info_measure_main_exp,2022.2.2,Win32,144.092219,,,,,,,,,,,,,,,,,,masks/mask_001.jpg,,,,,,,,,,,,,,,,,,,,,,,,,,,,,,,,,,,,,,,,,,,0,2,2,0,1,,,,,,,,,,,,,,,,,,,,,,,,,,,,,,,,,,,,,,,,,,,,,,
376799,001,2022-11-21_00h57.50.550,Info_measure_main_exp,2022.2.2,Win32,144.092219,,,,,,,,,,,,,,,,,,masks/mask_002.jpg,,,,,,,,,,,,,,,,,,,,,,,,,,,,,,,,,,,,,,,,,,,0,3,3,1,1,,,,,,,,,,,,,,,,,,,,,,,,,,,,,,,,,,,,,,,,,,,,,,
376799,001,2022-11-21_00h57.50.550,Info_measure_main_exp,2022.2.2,Win32,144.092219,,,,,,,,,,,,,,,,,,masks/mask_005.jpg,,,,,,,,,,,,,,,,,,,,,,,,,,,,,,,,,,,,,,,,,,,0,4,4,4,1,,,,,,,,,,,,,,,,,,,,,,,,,,,,,,,,,,,,,,,,,,,,,,
376799,001,2022-11-21_00h57.50.550,Info_measure_main_exp,2022.2.2,Win32,144.092219,,,,,,,,,,,,,,,,,,masks/mask_005.jpg,,,,,,,,,,,,,,,,,,,,,,,,,,,,,,,,,,,,,,,,,,,,,,,,0,0,0,4,1,,,,,,,,,,,,,,,,,,,,,,,,,,,,,,,,,,,,,,,,,
376799,001,2022-11-21_00h57.50.550,Info_measure_main_exp,2022.2.2,Win32,144.092219,,,,,,,,,,,,,,,,,,masks/mask_003.jpg,,,,,,,,,,,,,,,,,,,,,,,,,,,,,,,,,,,,,,,,,,,,,,,,0,1,1,2,1,,,,,,,,,,,,,,,,,,,,,,,,,,,,,,,,,,,,,,,,,
376799,001,2022-11-21_00h57.50.550,Info_measure_main_exp,2022.2.2,Win32,144.092219,,,,,,,,,,,,,,,,,,masks/mask_004.jpg,,,,,,,,,,,,,,,,,,,,,,,,,,,,,,,,,,,,,,,,,,,,,,,,0,2,2,3,1,,,,,,,,,,,,,,,,,,,,,,,,,,,,,,,,,,,,,,,,,
376799,001,2022-11-21_00h57.50.550,Info_measure_main_exp,2022.2.2,Win32,144.092219,,,,,,,,,,,,,,,,,,masks/mask_001.jpg,,,,,,,,,,,,,,,,,,,,,,,,,,,,,,,,,,,,,,,,,,,,,,,,0,3,3,0,1,,,,,,,,,,,,,,,,,,,,,,,,,,,,,,,,,,,,,,,,,
376799,001,2022-11-21_00h57.50.550,Info_measure_main_exp,2022.2.2,Win32,144.092219,,,,,,,,,,,,,,,,,,masks/mask_002.jpg,,,,,,,,,,,,,,,,,,,,,,,,,,,,,,,,,,,,,,,,,,,,,,,,0,4,4,1,1,,,,,,,,,,,,,,,,,,,,,,,,,,,,,,,,,,,,,,,,,
376799,001,2022-11-21_00h57.50.550,Info_measure_main_exp,2022.2.2,Win32,144.092219,,,,,,,,,,,,,,,,,,,,,,,,,,,,,,7,0.66,1,,,,,,,,,,,,0,131,5,5,1974,2238,absent_patch/patch0001974.jpg,absent_patch/patch0002238.jpg,,,,,,,,,,,,,,,,,,,,0.03587963,0.06712963,1,0,0,response1disk,30,0.00462963,0.006944444,1,0,0,center_square,0,29,29,95,1,,,,,,,,,,,,,,,,,,,,,,,
376799,001,2022-11-21_00h57.50.550,Info_measure_main_exp,2022.2.2,Win32,144.092219,,,,,,,,,,,,,,,,,,masks/mask_005.jpg,,,,,,,,,,,,,,,,,,,,,,,,,,,,,,,,,,,,,,,,,,,0,0,0,4,1,,,,,,,,,,,,,,,,,,,,,,,,,,,,,,,,,,,,,,,,,,,,,,
376799,001,2022-11-21_00h57.50.550,Info_measure_main_exp,2022.2.2,Win32,144.092219,,,,,,,,,,,,,,,,,,masks/mask_002.jpg,,,,,,,,,,,,,,,,,,,,,,,,,,,,,,,,,,,,,,,,,,,0,1,1,1,1,,,,,,,,,,,,,,,,,,,,,,,,,,,,,,,,,,,,,,,,,,,,,,
376799,001,2022-11-21_00h57.50.550,Info_measure_main_exp,2022.2.2,Win32,144.092219,,,,,,,,,,,,,,,,,,masks/mask_004.jpg,,,,,,,,,,,,,,,,,,,,,,,,,,,,,,,,,,,,,,,,,,,0,2,2,3,1,,,,,,,,,,,,,,,,,,,,,,,,,,,,,,,,,,,,,,,,,,,,,,
376799,001,2022-11-21_00h57.50.550,Info_measure_main_exp,2022.2.2,Win32,144.092219,,,,,,,,,,,,,,,,,,masks/mask_003.jpg,,,,,,,,,,,,,,,,,,,,,,,,,,,,,,,,,,,,,,,,,,,0,3,3,2,1,,,,,,,,,,,,,,,,,,,,,,,,,,,,,,,,,,,,,,,,,,,,,,
376799,001,2022-11-21_00h57.50.550,Info_measure_main_exp,2022.2.2,Win32,144.092219,,,,,,,,,,,,,,,,,,masks/mask_001.jpg,,,,,,,,,,,,,,,,,,,,,,,,,,,,,,,,,,,,,,,,,,,0,4,4,0,1,,,,,,,,,,,,,,,,,,,,,,,,,,,,,,,,,,,,,,,,,,,,,,
376799,001,2022-11-21_00h57.50.550,Info_measure_main_exp,2022.2.2,Win32,144.092219,,,,,,,,,,,,,,,,,,masks/mask_001.jpg,,,,,,,,,,,,,,,,,,,,,,,,,,,,,,,,,,,,,,,,,,,,,,,,0,0,0,0,1,,,,,,,,,,,,,,,,,,,,,,,,,,,,,,,,,,,,,,,,,
376799,001,2022-11-21_00h57.50.550,Info_measure_main_exp,2022.2.2,Win32,144.092219,,,,,,,,,,,,,,,,,,masks/mask_002.jpg,,,,,,,,,,,,,,,,,,,,,,,,,,,,,,,,,,,,,,,,,,,,,,,,0,1,1,1,1,,,,,,,,,,,,,,,,,,,,,,,,,,,,,,,,,,,,,,,,,
376799,001,2022-11-21_00h57.50.550,Info_measure_main_exp,2022.2.2,Win32,144.092219,,,,,,,,,,,,,,,,,,masks/mask_005.jpg,,,,,,,,,,,,,,,,,,,,,,,,,,,,,,,,,,,,,,,,,,,,,,,,0,2,2,4,1,,,,,,,,,,,,,,,,,,,,,,,,,,,,,,,,,,,,,,,,,
376799,001,2022-11-21_00h57.50.550,Info_measure_main_exp,2022.2.2,Win32,144.092219,,,,,,,,,,,,,,,,,,masks/mask_003.jpg,,,,,,,,,,,,,,,,,,,,,,,,,,,,,,,,,,,,,,,,,,,,,,,,0,3,3,2,1,,,,,,,,,,,,,,,,,,,,,,,,,,,,,,,,,,,,,,,,,
376799,001,2022-11-21_00h57.50.550,Info_measure_main_exp,2022.2.2,Win32,144.092219,,,,,,,,,,,,,,,,,,masks/mask_004.jpg,,,,,,,,,,,,,,,,,,,,,,,,,,,,,,,,,,,,,,,,,,,,,,,,0,4,4,3,1,,,,,,,,,,,,,,,,,,,,,,,,,,,,,,,,,,,,,,,,,
376799,001,2022-11-21_00h57.50.550,Info_measure_main_exp,2022.2.2,Win32,144.092219,,,,,,,,,,,,,,,,,,,,,,,,,,,,,,7,0.758,1,,,,,,,,,,,,0,131,5,5,2154,1974,absent_patch/patch0002154.jpg,absent_patch/patch0001974.jpg,,,,,,,,,,,,,,,,,,,,0.030092593,0.05787037,1,0,0,response1disk,31,0.001157407,0.006944444,1,0,0,center_square,0,30,30,82,1,,,,,,,,,,,,,,,,,,,,,,,
376799,001,2022-11-21_00h57.50.550,Info_measure_main_exp,2022.2.2,Win32,144.092219,,,,,,,,,,,,,,,,,,masks/mask_002.jpg,,,,,,,,,,,,,,,,,,,,,,,,,,,,,,,,,,,,,,,,,,,0,0,0,1,1,,,,,,,,,,,,,,,,,,,,,,,,,,,,,,,,,,,,,,,,,,,,,,
376799,001,2022-11-21_00h57.50.550,Info_measure_main_exp,2022.2.2,Win32,144.092219,,,,,,,,,,,,,,,,,,masks/mask_001.jpg,,,,,,,,,,,,,,,,,,,,,,,,,,,,,,,,,,,,,,,,,,,0,1,1,0,1,,,,,,,,,,,,,,,,,,,,,,,,,,,,,,,,,,,,,,,,,,,,,,
376799,001,2022-11-21_00h57.50.550,Info_measure_main_exp,2022.2.2,Win32,144.092219,,,,,,,,,,,,,,,,,,masks/mask_003.jpg,,,,,,,,,,,,,,,,,,,,,,,,,,,,,,,,,,,,,,,,,,,0,2,2,2,1,,,,,,,,,,,,,,,,,,,,,,,,,,,,,,,,,,,,,,,,,,,,,,
376799,001,2022-11-21_00h57.50.550,Info_measure_main_exp,2022.2.2,Win32,144.092219,,,,,,,,,,,,,,,,,,masks/mask_004.jpg,,,,,,,,,,,,,,,,,,,,,,,,,,,,,,,,,,,,,,,,,,,0,3,3,3,1,,,,,,,,,,,,,,,,,,,,,,,,,,,,,,,,,,,,,,,,,,,,,,
376799,001,2022-11-21_00h57.50.550,Info_measure_main_exp,2022.2.2,Win32,144.092219,,,,,,,,,,,,,,,,,,masks/mask_005.jpg,,,,,,,,,,,,,,,,,,,,,,,,,,,,,,,,,,,,,,,,,,,0,4,4,4,1,,,,,,,,,,,,,,,,,,,,,,,,,,,,,,,,,,,,,,,,,,,,,,
376799,001,2022-11-21_00h57.50.550,Info_measure_main_exp,2022.2.2,Win32,144.092219,,,,,,,,,,,,,,,,,,masks/mask_004.jpg,,,,,,,,,,,,,,,,,,,,,,,,,,,,,,,,,,,,,,,,,,,,,,,,0,0,0,3,1,,,,,,,,,,,,,,,,,,,,,,,,,,,,,,,,,,,,,,,,,
376799,001,2022-11-21_00h57.50.550,Info_measure_main_exp,2022.2.2,Win32,144.092219,,,,,,,,,,,,,,,,,,masks/mask_005.jpg,,,,,,,,,,,,,,,,,,,,,,,,,,,,,,,,,,,,,,,,,,,,,,,,0,1,1,4,1,,,,,,,,,,,,,,,,,,,,,,,,,,,,,,,,,,,,,,,,,
376799,001,2022-11-21_00h57.50.550,Info_measure_main_exp,2022.2.2,Win32,144.092219,,,,,,,,,,,,,,,,,,masks/mask_001.jpg,,,,,,,,,,,,,,,,,,,,,,,,,,,,,,,,,,,,,,,,,,,,,,,,0,2,2,0,1,,,,,,,,,,,,,,,,,,,,,,,,,,,,,,,,,,,,,,,,,
376799,001,2022-11-21_00h57.50.550,Info_measure_main_exp,2022.2.2,Win32,144.092219,,,,,,,,,,,,,,,,,,masks/mask_002.jpg,,,,,,,,,,,,,,,,,,,,,,,,,,,,,,,,,,,,,,,,,,,,,,,,0,3,3,1,1,,,,,,,,,,,,,,,,,,,,,,,,,,,,,,,,,,,,,,,,,
376799,001,2022-11-21_00h57.50.550,Info_measure_main_exp,2022.2.2,Win32,144.092219,,,,,,,,,,,,,,,,,,masks/mask_003.jpg,,,,,,,,,,,,,,,,,,,,,,,,,,,,,,,,,,,,,,,,,,,,,,,,0,4,4,2,1,,,,,,,,,,,,,,,,,,,,,,,,,,,,,,,,,,,,,,,,,
376799,001,2022-11-21_00h57.50.550,Info_measure_main_exp,2022.2.2,Win32,144.092219,,,,,,,,,,,,,,,,,,,,,,,,,,,,,,7,0.569,1,,,,,,,,,,,,1,131,5,5,1,2214,present_patch/cong_131_5_a.jpg,absent_patch/patch0002214.jpg,,,,,,,,,,,,,,,,,,,,0.024305556,0.055555556,1,0,0,response1disk,32,0.00462963,0.006944444,1,0,0,center_square,0,31,31,4,1,,,,,,,,,,,,,,,,,,,,,,,
376799,001,2022-11-21_00h57.50.550,Info_measure_main_exp,2022.2.2,Win32,144.092219,,,,,,,,,,,,,,,,,,masks/mask_004.jpg,,,,,,,,,,,,,,,,,,,,,,,,,,,,,,,,,,,,,,,,,,,0,0,0,3,1,,,,,,,,,,,,,,,,,,,,,,,,,,,,,,,,,,,,,,,,,,,,,,
376799,001,2022-11-21_00h57.50.550,Info_measure_main_exp,2022.2.2,Win32,144.092219,,,,,,,,,,,,,,,,,,masks/mask_005.jpg,,,,,,,,,,,,,,,,,,,,,,,,,,,,,,,,,,,,,,,,,,,0,1,1,4,1,,,,,,,,,,,,,,,,,,,,,,,,,,,,,,,,,,,,,,,,,,,,,,
376799,001,2022-11-21_00h57.50.550,Info_measure_main_exp,2022.2.2,Win32,144.092219,,,,,,,,,,,,,,,,,,masks/mask_003.jpg,,,,,,,,,,,,,,,,,,,,,,,,,,,,,,,,,,,,,,,,,,,0,2,2,2,1,,,,,,,,,,,,,,,,,,,,,,,,,,,,,,,,,,,,,,,,,,,,,,
376799,001,2022-11-21_00h57.50.550,Info_measure_main_exp,2022.2.2,Win32,144.092219,,,,,,,,,,,,,,,,,,masks/mask_002.jpg,,,,,,,,,,,,,,,,,,,,,,,,,,,,,,,,,,,,,,,,,,,0,3,3,1,1,,,,,,,,,,,,,,,,,,,,,,,,,,,,,,,,,,,,,,,,,,,,,,
376799,001,2022-11-21_00h57.50.550,Info_measure_main_exp,2022.2.2,Win32,144.092219,,,,,,,,,,,,,,,,,,masks/mask_001.jpg,,,,,,,,,,,,,,,,,,,,,,,,,,,,,,,,,,,,,,,,,,,0,4,4,0,1,,,,,,,,,,,,,,,,,,,,,,,,,,,,,,,,,,,,,,,,,,,,,,
376799,001,2022-11-21_00h57.50.550,Info_measure_main_exp,2022.2.2,Win32,144.092219,,,,,,,,,,,,,,,,,,masks/mask_001.jpg,,,,,,,,,,,,,,,,,,,,,,,,,,,,,,,,,,,,,,,,,,,,,,,,0,0,0,0,1,,,,,,,,,,,,,,,,,,,,,,,,,,,,,,,,,,,,,,,,,
376799,001,2022-11-21_00h57.50.550,Info_measure_main_exp,2022.2.2,Win32,144.092219,,,,,,,,,,,,,,,,,,masks/mask_003.jpg,,,,,,,,,,,,,,,,,,,,,,,,,,,,,,,,,,,,,,,,,,,,,,,,0,1,1,2,1,,,,,,,,,,,,,,,,,,,,,,,,,,,,,,,,,,,,,,,,,
376799,001,2022-11-21_00h57.50.550,Info_measure_main_exp,2022.2.2,Win32,144.092219,,,,,,,,,,,,,,,,,,masks/mask_004.jpg,,,,,,,,,,,,,,,,,,,,,,,,,,,,,,,,,,,,,,,,,,,,,,,,0,2,2,3,1,,,,,,,,,,,,,,,,,,,,,,,,,,,,,,,,,,,,,,,,,
376799,001,2022-11-21_00h57.50.550,Info_measure_main_exp,2022.2.2,Win32,144.092219,,,,,,,,,,,,,,,,,,masks/mask_002.jpg,,,,,,,,,,,,,,,,,,,,,,,,,,,,,,,,,,,,,,,,,,,,,,,,0,3,3,1,1,,,,,,,,,,,,,,,,,,,,,,,,,,,,,,,,,,,,,,,,,
376799,001,2022-11-21_00h57.50.550,Info_measure_main_exp,2022.2.2,Win32,144.092219,,,,,,,,,,,,,,,,,,masks/mask_005.jpg,,,,,,,,,,,,,,,,,,,,,,,,,,,,,,,,,,,,,,,,,,,,,,,,0,4,4,4,1,,,,,,,,,,,,,,,,,,,,,,,,,,,,,,,,,,,,,,,,,
376799,001,2022-11-21_00h57.50.550,Info_measure_main_exp,2022.2.2,Win32,144.092219,,,,,,,,,,,,,,,,,,,,,,,,,,,,,,6,1.097,1,,,,,,,,,,,,0,131,5,5,1974,2142,absent_patch/patch0001974.jpg,absent_patch/patch0002142.jpg,,,,,,,,,,,,,,,,,,,,0.0625,0.040509259,1,0,0,response1disk,33,0.011574074,0.006944444,1,0,0,center_square,0,32,32,38,1,,,,,,,,,,,,,,,,,,,,,,,
376799,001,2022-11-21_00h57.50.550,Info_measure_main_exp,2022.2.2,Win32,144.092219,,,,,,,,,,,,,,,,,,masks/mask_003.jpg,,,,,,,,,,,,,,,,,,,,,,,,,,,,,,,,,,,,,,,,,,,0,0,0,2,1,,,,,,,,,,,,,,,,,,,,,,,,,,,,,,,,,,,,,,,,,,,,,,
376799,001,2022-11-21_00h57.50.550,Info_measure_main_exp,2022.2.2,Win32,144.092219,,,,,,,,,,,,,,,,,,masks/mask_005.jpg,,,,,,,,,,,,,,,,,,,,,,,,,,,,,,,,,,,,,,,,,,,0,1,1,4,1,,,,,,,,,,,,,,,,,,,,,,,,,,,,,,,,,,,,,,,,,,,,,,
376799,001,2022-11-21_00h57.50.550,Info_measure_main_exp,2022.2.2,Win32,144.092219,,,,,,,,,,,,,,,,,,masks/mask_002.jpg,,,,,,,,,,,,,,,,,,,,,,,,,,,,,,,,,,,,,,,,,,,0,2,2,1,1,,,,,,,,,,,,,,,,,,,,,,,,,,,,,,,,,,,,,,,,,,,,,,
376799,001,2022-11-21_00h57.50.550,Info_measure_main_exp,2022.2.2,Win32,144.092219,,,,,,,,,,,,,,,,,,masks/mask_001.jpg,,,,,,,,,,,,,,,,,,,,,,,,,,,,,,,,,,,,,,,,,,,0,3,3,0,1,,,,,,,,,,,,,,,,,,,,,,,,,,,,,,,,,,,,,,,,,,,,,,
376799,001,2022-11-21_00h57.50.550,Info_measure_main_exp,2022.2.2,Win32,144.092219,,,,,,,,,,,,,,,,,,masks/mask_004.jpg,,,,,,,,,,,,,,,,,,,,,,,,,,,,,,,,,,,,,,,,,,,0,4,4,3,1,,,,,,,,,,,,,,,,,,,,,,,,,,,,,,,,,,,,,,,,,,,,,,
376799,001,2022-11-21_00h57.50.550,Info_measure_main_exp,2022.2.2,Win32,144.092219,,,,,,,,,,,,,,,,,,masks/mask_002.jpg,,,,,,,,,,,,,,,,,,,,,,,,,,,,,,,,,,,,,,,,,,,,,,,,0,0,0,1,1,,,,,,,,,,,,,,,,,,,,,,,,,,,,,,,,,,,,,,,,,
376799,001,2022-11-21_00h57.50.550,Info_measure_main_exp,2022.2.2,Win32,144.092219,,,,,,,,,,,,,,,,,,masks/mask_005.jpg,,,,,,,,,,,,,,,,,,,,,,,,,,,,,,,,,,,,,,,,,,,,,,,,0,1,1,4,1,,,,,,,,,,,,,,,,,,,,,,,,,,,,,,,,,,,,,,,,,
376799,001,2022-11-21_00h57.50.550,Info_measure_main_exp,2022.2.2,Win32,144.092219,,,,,,,,,,,,,,,,,,masks/mask_003.jpg,,,,,,,,,,,,,,,,,,,,,,,,,,,,,,,,,,,,,,,,,,,,,,,,0,2,2,2,1,,,,,,,,,,,,,,,,,,,,,,,,,,,,,,,,,,,,,,,,,
376799,001,2022-11-21_00h57.50.550,Info_measure_main_exp,2022.2.2,Win32,144.092219,,,,,,,,,,,,,,,,,,masks/mask_004.jpg,,,,,,,,,,,,,,,,,,,,,,,,,,,,,,,,,,,,,,,,,,,,,,,,0,3,3,3,1,,,,,,,,,,,,,,,,,,,,,,,,,,,,,,,,,,,,,,,,,
376799,001,2022-11-21_00h57.50.550,Info_measure_main_exp,2022.2.2,Win32,144.092219,,,,,,,,,,,,,,,,,,masks/mask_001.jpg,,,,,,,,,,,,,,,,,,,,,,,,,,,,,,,,,,,,,,,,,,,,,,,,0,4,4,0,1,,,,,,,,,,,,,,,,,,,,,,,,,,,,,,,,,,,,,,,,,
376799,001,2022-11-21_00h57.50.550,Info_measure_main_exp,2022.2.2,Win32,144.092219,,,,,,,,,,,,,,,,,,,,,,,,,,,,,,5,1.285,1,,,,,,,,,,,,0,131,5,5,2082,2250,absent_patch/patch0002082.jpg,absent_patch/patch0002250.jpg,,,,,,,,,,,,,,,,,,,,0.049768519,-0.012731481,1,0,0,response3disk,34,-0.005787037,-0.006944444,1,0,0,center_square,0,33,33,3,1,,,,,,,,,,,,,,,,,,,,,,,
376799,001,2022-11-21_00h57.50.550,Info_measure_main_exp,2022.2.2,Win32,144.092219,,,,,,,,,,,,,,,,,,masks/mask_003.jpg,,,,,,,,,,,,,,,,,,,,,,,,,,,,,,,,,,,,,,,,,,,0,0,0,2,1,,,,,,,,,,,,,,,,,,,,,,,,,,,,,,,,,,,,,,,,,,,,,,
376799,001,2022-11-21_00h57.50.550,Info_measure_main_exp,2022.2.2,Win32,144.092219,,,,,,,,,,,,,,,,,,masks/mask_001.jpg,,,,,,,,,,,,,,,,,,,,,,,,,,,,,,,,,,,,,,,,,,,0,1,1,0,1,,,,,,,,,,,,,,,,,,,,,,,,,,,,,,,,,,,,,,,,,,,,,,
376799,001,2022-11-21_00h57.50.550,Info_measure_main_exp,2022.2.2,Win32,144.092219,,,,,,,,,,,,,,,,,,masks/mask_002.jpg,,,,,,,,,,,,,,,,,,,,,,,,,,,,,,,,,,,,,,,,,,,0,2,2,1,1,,,,,,,,,,,,,,,,,,,,,,,,,,,,,,,,,,,,,,,,,,,,,,
376799,001,2022-11-21_00h57.50.550,Info_measure_main_exp,2022.2.2,Win32,144.092219,,,,,,,,,,,,,,,,,,masks/mask_005.jpg,,,,,,,,,,,,,,,,,,,,,,,,,,,,,,,,,,,,,,,,,,,0,3,3,4,1,,,,,,,,,,,,,,,,,,,,,,,,,,,,,,,,,,,,,,,,,,,,,,
376799,001,2022-11-21_00h57.50.550,Info_measure_main_exp,2022.2.2,Win32,144.092219,,,,,,,,,,,,,,,,,,masks/mask_004.jpg,,,,,,,,,,,,,,,,,,,,,,,,,,,,,,,,,,,,,,,,,,,0,4,4,3,1,,,,,,,,,,,,,,,,,,,,,,,,,,,,,,,,,,,,,,,,,,,,,,
376799,001,2022-11-21_00h57.50.550,Info_measure_main_exp,2022.2.2,Win32,144.092219,,,,,,,,,,,,,,,,,,masks/mask_004.jpg,,,,,,,,,,,,,,,,,,,,,,,,,,,,,,,,,,,,,,,,,,,,,,,,0,0,0,3,1,,,,,,,,,,,,,,,,,,,,,,,,,,,,,,,,,,,,,,,,,
376799,001,2022-11-21_00h57.50.550,Info_measure_main_exp,2022.2.2,Win32,144.092219,,,,,,,,,,,,,,,,,,masks/mask_002.jpg,,,,,,,,,,,,,,,,,,,,,,,,,,,,,,,,,,,,,,,,,,,,,,,,0,1,1,1,1,,,,,,,,,,,,,,,,,,,,,,,,,,,,,,,,,,,,,,,,,
376799,001,2022-11-21_00h57.50.550,Info_measure_main_exp,2022.2.2,Win32,144.092219,,,,,,,,,,,,,,,,,,masks/mask_003.jpg,,,,,,,,,,,,,,,,,,,,,,,,,,,,,,,,,,,,,,,,,,,,,,,,0,2,2,2,1,,,,,,,,,,,,,,,,,,,,,,,,,,,,,,,,,,,,,,,,,
376799,001,2022-11-21_00h57.50.550,Info_measure_main_exp,2022.2.2,Win32,144.092219,,,,,,,,,,,,,,,,,,masks/mask_001.jpg,,,,,,,,,,,,,,,,,,,,,,,,,,,,,,,,,,,,,,,,,,,,,,,,0,3,3,0,1,,,,,,,,,,,,,,,,,,,,,,,,,,,,,,,,,,,,,,,,,
376799,001,2022-11-21_00h57.50.550,Info_measure_main_exp,2022.2.2,Win32,144.092219,,,,,,,,,,,,,,,,,,masks/mask_005.jpg,,,,,,,,,,,,,,,,,,,,,,,,,,,,,,,,,,,,,,,,,,,,,,,,0,4,4,4,1,,,,,,,,,,,,,,,,,,,,,,,,,,,,,,,,,,,,,,,,,
