participant,session,date,expName,psychopyVersion,OS,frameRate,space_press_continue.keys,space_press_continue.rt,space_press_continue_2.keys,space_press_continue_2.rt,space_press_continue_3.keys,space_press_continue_3.rt,space_press_continue_4.keys,space_press_continue_4.rt,space_press_continue_5.keys,space_press_continue_5.rt,space_press_continue_6.keys,space_press_continue_6.rt,prac_mask_loop_1.thisRepN,prac_mask_loop_1.thisTrialN,prac_mask_loop_1.thisN,prac_mask_loop_1.thisIndex,prac_mask_loop_1.ran,mask_name,prac_mask_loop_2.thisRepN,prac_mask_loop_2.thisTrialN,prac_mask_loop_2.thisN,prac_mask_loop_2.thisIndex,prac_mask_loop_2.ran,mouse_2.x,mouse_2.y,mouse_2.leftButton,mouse_2.midButton,mouse_2.rightButton,mouse_2.clicked_name,similarity,response_time,Pass,mouse_12.x,mouse_12.y,mouse_12.leftButton,mouse_12.midButton,mouse_12.rightButton,mouse_12.clicked_name,prac_loop.thisRepN,prac_loop.thisTrialN,prac_loop.thisN,prac_loop.thisIndex,prac_loop.ran,Pair_type,Image_num,Patch_1_loc,Patch_2_loc,Patch_1_info,Patch_2_info,Patch_1_name,Patch_2_name,mouse_1.x,mouse_1.y,mouse_1.leftButton,mouse_1.midButton,mouse_1.rightButton,mouse_1.time,mouse_1.clicked_name,space_press_continue_7.keys,space_press_continue_7.rt,mask_loop.thisRepN,mask_loop.thisTrialN,mask_loop.thisN,mask_loop.thisIndex,mask_loop.ran,mask_loop_2.thisRepN,mask_loop_2.thisTrialN,mask_loop_2.thisN,mask_loop_2.thisIndex,mask_loop_2.ran,mouse.x,mouse.y,mouse.leftButton,mouse.midButton,mouse.rightButton,mouse.clicked_name,trialNumber,mouse_11.x,mouse_11.y,mouse_11.leftButton,mouse_11.midButton,mouse_11.rightButton,mouse_11.clicked_name,first_pass_loop.thisRepN,first_pass_loop.thisTrialN,first_pass_loop.thisN,first_pass_loop.thisIndex,first_pass_loop.ran,mask_loop_3.thisRepN,mask_loop_3.thisTrialN,mask_loop_3.thisN,mask_loop_3.thisIndex,mask_loop_3.ran,mask_loop_4.thisRepN,mask_loop_4.thisTrialN,mask_loop_4.thisN,mask_loop_4.thisIndex,mask_loop_4.ran,mouse_3.x,mouse_3.y,mouse_3.leftButton,mouse_3.midButton,mouse_3.rightButton,mouse_3.clicked_name,double_pass_loop.thisRepN,double_pass_loop.thisTrialN,double_pass_loop.thisN,double_pass_loop.thisIndex,double_pass_loop.ran,space_exit.keys,space_exit.rt
377619,001,2022-11-20_23h58.20.098,Info_measure_main_exp,2022.2.2,MacIntel,60.0024001,,,,,,,,,,,,,,,,,,,,,,,,,,,,,,,,,,,,,,,,,,,,,,,,,,,,,,,,,,,,,,,,,,,,,,,,,,,,,,,,,,,,,,,,,,,,,,,,,,,,,,,,,,,,,,,
377619,001,2022-11-20_23h58.20.098,Info_measure_main_exp,2022.2.2,MacIntel,60.0024001,,,,,,,,,,,,,,,,,,,,,,,,,,,,,,,,,,,,,,,,,,,,,,,,,,,,,,,,,,,,,,,,,,,,,,,,,,,,,,,,,,,,,,,,,,,,,,,,,,,,,,,,,,,,,,,
377619,001,2022-11-20_23h58.20.098,Info_measure_main_exp,2022.2.2,MacIntel,60.0024001,space,12.6313,,,,,,,,,,,,,,,,,,,,,,,,,,,,,,,,,,,,,,,,,,,,,,,,,,,,,,,,,,,,,,,,,,,,,,,,,,,,,,,,,,,,,,,,,,,,,,,,,,,,,,,,,,,,,
377619,001,2022-11-20_23h58.20.098,Info_measure_main_exp,2022.2.2,MacIntel,60.0024001,,,space,21.7592,,,,,,,,,,,,,,,,,,,,,,,,,,,,,,,,,,,,,,,,,,,,,,,,,,,,,,,,,,,,,,,,,,,,,,,,,,,,,,,,,,,,,,,,,,,,,,,,,,,,,,,,,,,
377619,001,2022-11-20_23h58.20.098,Info_measure_main_exp,2022.2.2,MacIntel,60.0024001,,,,,space,12.8818,,,,,,,,,,,,,,,,,,,,,,,,,,,,,,,,,,,,,,,,,,,,,,,,,,,,,,,,,,,,,,,,,,,,,,,,,,,,,,,,,,,,,,,,,,,,,,,,,,,,,,,,,
377619,001,2022-11-20_23h58.20.098,Info_measure_main_exp,2022.2.2,MacIntel,60.0024001,,,,,,,space,47.06,,,,,,,,,,,,,,,,,,,,,,,,,,,,,,,,,,,,,,,,,,,,,,,,,,,,,,,,,,,,,,,,,,,,,,,,,,,,,,,,,,,,,,,,,,,,,,,,,,,,,,,
377619,001,2022-11-20_23h58.20.098,Info_measure_main_exp,2022.2.2,MacIntel,60.0024001,,,,,,,,,space,9.7771,,,,,,,,,,,,,,,,,,,,,,,,,,,,,,,,,,,,,,,,,,,,,,,,,,,,,,,,,,,,,,,,,,,,,,,,,,,,,,,,,,,,,,,,,,,,,,,,,,,,,
377619,001,2022-11-20_23h58.20.098,Info_measure_main_exp,2022.2.2,MacIntel,60.0024001,,,,,,,,,,,space,7.6995,,,,,,,,,,,,,,,,,,,,,,,,,,,,,,,,,,,,,,,,,,,,,,,,,,,,,,,,,,,,,,,,,,,,,,,,,,,,,,,,,,,,,,,,,,,,,,,,,,,
377619,001,2022-11-20_23h58.20.098,Info_measure_main_exp,2022.2.2,MacIntel,60.0024001,,,,,,,,,,,,,0,0,0,1,1,masks/mask_002.jpg,,,,,,,,,,,,,,,,,,,,,,,,,,,,,,,,,,,,,,,,,,,,,,,,,,,,,,,,,,,,,,,,,,,,,,,,,,,,,,,,,,,,,,,,,,,,,
377619,001,2022-11-20_23h58.20.098,Info_measure_main_exp,2022.2.2,MacIntel,60.0024001,,,,,,,,,,,,,0,1,1,3,1,masks/mask_004.jpg,,,,,,,,,,,,,,,,,,,,,,,,,,,,,,,,,,,,,,,,,,,,,,,,,,,,,,,,,,,,,,,,,,,,,,,,,,,,,,,,,,,,,,,,,,,,,
377619,001,2022-11-20_23h58.20.098,Info_measure_main_exp,2022.2.2,MacIntel,60.0024001,,,,,,,,,,,,,0,2,2,0,1,masks/mask_001.jpg,,,,,,,,,,,,,,,,,,,,,,,,,,,,,,,,,,,,,,,,,,,,,,,,,,,,,,,,,,,,,,,,,,,,,,,,,,,,,,,,,,,,,,,,,,,,,
377619,001,2022-11-20_23h58.20.098,Info_measure_main_exp,2022.2.2,MacIntel,60.0024001,,,,,,,,,,,,,0,3,3,4,1,masks/mask_005.jpg,,,,,,,,,,,,,,,,,,,,,,,,,,,,,,,,,,,,,,,,,,,,,,,,,,,,,,,,,,,,,,,,,,,,,,,,,,,,,,,,,,,,,,,,,,,,,
377619,001,2022-11-20_23h58.20.098,Info_measure_main_exp,2022.2.2,MacIntel,60.0024001,,,,,,,,,,,,,0,4,4,2,1,masks/mask_003.jpg,,,,,,,,,,,,,,,,,,,,,,,,,,,,,,,,,,,,,,,,,,,,,,,,,,,,,,,,,,,,,,,,,,,,,,,,,,,,,,,,,,,,,,,,,,,,,
377619,001,2022-11-20_23h58.20.098,Info_measure_main_exp,2022.2.2,MacIntel,60.0024001,,,,,,,,,,,,,,,,,,masks/mask_001.jpg,0,0,0,0,1,,,,,,,,,,,,,,,,,,,,,,,,,,,,,,,,,,,,,,,,,,,,,,,,,,,,,,,,,,,,,,,,,,,,,,,,,,,,,,,,,,,,,,,,
377619,001,2022-11-20_23h58.20.098,Info_measure_main_exp,2022.2.2,MacIntel,60.0024001,,,,,,,,,,,,,,,,,,masks/mask_004.jpg,0,1,1,3,1,,,,,,,,,,,,,,,,,,,,,,,,,,,,,,,,,,,,,,,,,,,,,,,,,,,,,,,,,,,,,,,,,,,,,,,,,,,,,,,,,,,,,,,,
377619,001,2022-11-20_23h58.20.098,Info_measure_main_exp,2022.2.2,MacIntel,60.0024001,,,,,,,,,,,,,,,,,,masks/mask_005.jpg,0,2,2,4,1,,,,,,,,,,,,,,,,,,,,,,,,,,,,,,,,,,,,,,,,,,,,,,,,,,,,,,,,,,,,,,,,,,,,,,,,,,,,,,,,,,,,,,,,
377619,001,2022-11-20_23h58.20.098,Info_measure_main_exp,2022.2.2,MacIntel,60.0024001,,,,,,,,,,,,,,,,,,masks/mask_002.jpg,0,3,3,1,1,,,,,,,,,,,,,,,,,,,,,,,,,,,,,,,,,,,,,,,,,,,,,,,,,,,,,,,,,,,,,,,,,,,,,,,,,,,,,,,,,,,,,,,,
377619,001,2022-11-20_23h58.20.098,Info_measure_main_exp,2022.2.2,MacIntel,60.0024001,,,,,,,,,,,,,,,,,,masks/mask_003.jpg,0,4,4,2,1,,,,,,,,,,,,,,,,,,,,,,,,,,,,,,,,,,,,,,,,,,,,,,,,,,,,,,,,,,,,,,,,,,,,,,,,,,,,,,,,,,,,,,,,
377619,001,2022-11-20_23h58.20.098,Info_measure_main_exp,2022.2.2,MacIntel,60.0024001,,,,,,,,,,,,,,,,,,,,,,,,0.158081597,-0.057044271,1,0,0,response3disk,5,120.2841,1,0.000282118,-0.001380208,1,0,0,center_square,0,0,0,0,1,0,131,5,5,2370,2406,prac_patch/patch0002370.jpg,prac_patch/patch0002406.jpg,,,,,,,,,,,,,,,,,,,,,,,,,,,,,,,,,,,,,,,,,,,,,,,,,,,,,,,,,,,,
377619,001,2022-11-20_23h58.20.098,Info_measure_main_exp,2022.2.2,MacIntel,60.0024001,,,,,,,,,,,,,0,0,0,1,1,masks/mask_002.jpg,,,,,,,,,,,,,,,,,,,,,,,,,,,,,,,,,,,,,,,,,,,,,,,,,,,,,,,,,,,,,,,,,,,,,,,,,,,,,,,,,,,,,,,,,,,,,
377619,001,2022-11-20_23h58.20.098,Info_measure_main_exp,2022.2.2,MacIntel,60.0024001,,,,,,,,,,,,,0,1,1,3,1,masks/mask_004.jpg,,,,,,,,,,,,,,,,,,,,,,,,,,,,,,,,,,,,,,,,,,,,,,,,,,,,,,,,,,,,,,,,,,,,,,,,,,,,,,,,,,,,,,,,,,,,,
377619,001,2022-11-20_23h58.20.098,Info_measure_main_exp,2022.2.2,MacIntel,60.0024001,,,,,,,,,,,,,0,2,2,0,1,masks/mask_001.jpg,,,,,,,,,,,,,,,,,,,,,,,,,,,,,,,,,,,,,,,,,,,,,,,,,,,,,,,,,,,,,,,,,,,,,,,,,,,,,,,,,,,,,,,,,,,,,
377619,001,2022-11-20_23h58.20.098,Info_measure_main_exp,2022.2.2,MacIntel,60.0024001,,,,,,,,,,,,,0,3,3,2,1,masks/mask_003.jpg,,,,,,,,,,,,,,,,,,,,,,,,,,,,,,,,,,,,,,,,,,,,,,,,,,,,,,,,,,,,,,,,,,,,,,,,,,,,,,,,,,,,,,,,,,,,,
377619,001,2022-11-20_23h58.20.098,Info_measure_main_exp,2022.2.2,MacIntel,60.0024001,,,,,,,,,,,,,0,4,4,4,1,masks/mask_005.jpg,,,,,,,,,,,,,,,,,,,,,,,,,,,,,,,,,,,,,,,,,,,,,,,,,,,,,,,,,,,,,,,,,,,,,,,,,,,,,,,,,,,,,,,,,,,,,
377619,001,2022-11-20_23h58.20.098,Info_measure_main_exp,2022.2.2,MacIntel,60.0024001,,,,,,,,,,,,,,,,,,masks/mask_003.jpg,0,0,0,2,1,,,,,,,,,,,,,,,,,,,,,,,,,,,,,,,,,,,,,,,,,,,,,,,,,,,,,,,,,,,,,,,,,,,,,,,,,,,,,,,,,,,,,,,,
377619,001,2022-11-20_23h58.20.098,Info_measure_main_exp,2022.2.2,MacIntel,60.0024001,,,,,,,,,,,,,,,,,,masks/mask_005.jpg,0,1,1,4,1,,,,,,,,,,,,,,,,,,,,,,,,,,,,,,,,,,,,,,,,,,,,,,,,,,,,,,,,,,,,,,,,,,,,,,,,,,,,,,,,,,,,,,,,
377619,001,2022-11-20_23h58.20.098,Info_measure_main_exp,2022.2.2,MacIntel,60.0024001,,,,,,,,,,,,,,,,,,masks/mask_001.jpg,0,2,2,0,1,,,,,,,,,,,,,,,,,,,,,,,,,,,,,,,,,,,,,,,,,,,,,,,,,,,,,,,,,,,,,,,,,,,,,,,,,,,,,,,,,,,,,,,,
377619,001,2022-11-20_23h58.20.098,Info_measure_main_exp,2022.2.2,MacIntel,60.0024001,,,,,,,,,,,,,,,,,,masks/mask_002.jpg,0,3,3,1,1,,,,,,,,,,,,,,,,,,,,,,,,,,,,,,,,,,,,,,,,,,,,,,,,,,,,,,,,,,,,,,,,,,,,,,,,,,,,,,,,,,,,,,,,
377619,001,2022-11-20_23h58.20.098,Info_measure_main_exp,2022.2.2,MacIntel,60.0024001,,,,,,,,,,,,,,,,,,masks/mask_004.jpg,0,4,4,3,1,,,,,,,,,,,,,,,,,,,,,,,,,,,,,,,,,,,,,,,,,,,,,,,,,,,,,,,,,,,,,,,,,,,,,,,,,,,,,,,,,,,,,,,,
377619,001,2022-11-20_23h58.20.098,Info_measure_main_exp,2022.2.2,MacIntel,60.0024001,,,,,,,,,,,,,,,,,,,,,,,,-0.080842014,0.142135417,1,0,0,response7disk,0,132.3927,1,-0.001349826,-0.002703993,1,0,0,center_square,0,1,1,2,1,0,131,5,5,2526,2526,prac_patch/patch0002526.jpg,prac_patch/patch0002526.jpg,,,,,,,,,,,,,,,,,,,,,,,,,,,,,,,,,,,,,,,,,,,,,,,,,,,,,,,,,,,,
377619,001,2022-11-20_23h58.20.098,Info_measure_main_exp,2022.2.2,MacIntel,60.0024001,,,,,,,,,,,,,0,0,0,2,1,masks/mask_003.jpg,,,,,,,,,,,,,,,,,,,,,,,,,,,,,,,,,,,,,,,,,,,,,,,,,,,,,,,,,,,,,,,,,,,,,,,,,,,,,,,,,,,,,,,,,,,,,
377619,001,2022-11-20_23h58.20.098,Info_measure_main_exp,2022.2.2,MacIntel,60.0024001,,,,,,,,,,,,,0,1,1,3,1,masks/mask_004.jpg,,,,,,,,,,,,,,,,,,,,,,,,,,,,,,,,,,,,,,,,,,,,,,,,,,,,,,,,,,,,,,,,,,,,,,,,,,,,,,,,,,,,,,,,,,,,,
377619,001,2022-11-20_23h58.20.098,Info_measure_main_exp,2022.2.2,MacIntel,60.0024001,,,,,,,,,,,,,0,2,2,0,1,masks/mask_001.jpg,,,,,,,,,,,,,,,,,,,,,,,,,,,,,,,,,,,,,,,,,,,,,,,,,,,,,,,,,,,,,,,,,,,,,,,,,,,,,,,,,,,,,,,,,,,,,
377619,001,2022-11-20_23h58.20.098,Info_measure_main_exp,2022.2.2,MacIntel,60.0024001,,,,,,,,,,,,,0,3,3,4,1,masks/mask_005.jpg,,,,,,,,,,,,,,,,,,,,,,,,,,,,,,,,,,,,,,,,,,,,,,,,,,,,,,,,,,,,,,,,,,,,,,,,,,,,,,,,,,,,,,,,,,,,,
377619,001,2022-11-20_23h58.20.098,Info_measure_main_exp,2022.2.2,MacIntel,60.0024001,,,,,,,,,,,,,0,4,4,1,1,masks/mask_002.jpg,,,,,,,,,,,,,,,,,,,,,,,,,,,,,,,,,,,,,,,,,,,,,,,,,,,,,,,,,,,,,,,,,,,,,,,,,,,,,,,,,,,,,,,,,,,,,
377619,001,2022-11-20_23h58.20.098,Info_measure_main_exp,2022.2.2,MacIntel,60.0024001,,,,,,,,,,,,,,,,,,masks/mask_005.jpg,0,0,0,4,1,,,,,,,,,,,,,,,,,,,,,,,,,,,,,,,,,,,,,,,,,,,,,,,,,,,,,,,,,,,,,,,,,,,,,,,,,,,,,,,,,,,,,,,,
377619,001,2022-11-20_23h58.20.098,Info_measure_main_exp,2022.2.2,MacIntel,60.0024001,,,,,,,,,,,,,,,,,,masks/mask_002.jpg,0,1,1,1,1,,,,,,,,,,,,,,,,,,,,,,,,,,,,,,,,,,,,,,,,,,,,,,,,,,,,,,,,,,,,,,,,,,,,,,,,,,,,,,,,,,,,,,,,
377619,001,2022-11-20_23h58.20.098,Info_measure_main_exp,2022.2.2,MacIntel,60.0024001,,,,,,,,,,,,,,,,,,masks/mask_003.jpg,0,2,2,2,1,,,,,,,,,,,,,,,,,,,,,,,,,,,,,,,,,,,,,,,,,,,,,,,,,,,,,,,,,,,,,,,,,,,,,,,,,,,,,,,,,,,,,,,,
377619,001,2022-11-20_23h58.20.098,Info_measure_main_exp,2022.2.2,MacIntel,60.0024001,,,,,,,,,,,,,,,,,,masks/mask_004.jpg,0,3,3,3,1,,,,,,,,,,,,,,,,,,,,,,,,,,,,,,,,,,,,,,,,,,,,,,,,,,,,,,,,,,,,,,,,,,,,,,,,,,,,,,,,,,,,,,,,
377619,001,2022-11-20_23h58.20.098,Info_measure_main_exp,2022.2.2,MacIntel,60.0024001,,,,,,,,,,,,,,,,,,masks/mask_001.jpg,0,4,4,0,1,,,,,,,,,,,,,,,,,,,,,,,,,,,,,,,,,,,,,,,,,,,,,,,,,,,,,,,,,,,,,,,,,,,,,,,,,,,,,,,,,,,,,,,,
377619,001,2022-11-20_23h58.20.098,Info_measure_main_exp,2022.2.2,MacIntel,60.0024001,,,,,,,,,,,,,,,,,,,,,,,,0.023220486,-0.097118056,1,0,0,response3disk,4,144.5115,1,-0.005681424,-0.003007813,1,0,0,center_square,0,2,2,1,1,0,131,5,5,2514,2490,prac_patch/patch0002514.jpg,prac_patch/patch0002490.jpg,,,,,,,,,,,,,,,,,,,,,,,,,,,,,,,,,,,,,,,,,,,,,,,,,,,,,,,,,,,,
377619,001,2022-11-20_23h58.20.098,Info_measure_main_exp,2022.2.2,MacIntel,60.0024001,,,,,,,,,,,,,,,,,,,,,,,,,,,,,,,,,,,,,,,,,,,,,,,,,,,,,,,,,,,space,2.4133,,,,,,,,,,,,,,,,,,,,,,,,,,,,,,,,,,,,,,,,,,,,,,,,,,,
377619,001,2022-11-20_23h58.20.098,Info_measure_main_exp,2022.2.2,MacIntel,60.0024001,,,,,,,,,,,,,,,,,,masks/mask_001.jpg,,,,,,,,,,,,,,,,,,,,,,,,,,,,,,,,,,,,,,,,,,,0,0,0,0,1,,,,,,,,,,,,,,,,,,,,,,,,,,,,,,,,,,,,,,,,,,,,,,
377619,001,2022-11-20_23h58.20.098,Info_measure_main_exp,2022.2.2,MacIntel,60.0024001,,,,,,,,,,,,,,,,,,masks/mask_002.jpg,,,,,,,,,,,,,,,,,,,,,,,,,,,,,,,,,,,,,,,,,,,0,1,1,1,1,,,,,,,,,,,,,,,,,,,,,,,,,,,,,,,,,,,,,,,,,,,,,,
377619,001,2022-11-20_23h58.20.098,Info_measure_main_exp,2022.2.2,MacIntel,60.0024001,,,,,,,,,,,,,,,,,,masks/mask_005.jpg,,,,,,,,,,,,,,,,,,,,,,,,,,,,,,,,,,,,,,,,,,,0,2,2,4,1,,,,,,,,,,,,,,,,,,,,,,,,,,,,,,,,,,,,,,,,,,,,,,
377619,001,2022-11-20_23h58.20.098,Info_measure_main_exp,2022.2.2,MacIntel,60.0024001,,,,,,,,,,,,,,,,,,masks/mask_003.jpg,,,,,,,,,,,,,,,,,,,,,,,,,,,,,,,,,,,,,,,,,,,0,3,3,2,1,,,,,,,,,,,,,,,,,,,,,,,,,,,,,,,,,,,,,,,,,,,,,,
377619,001,2022-11-20_23h58.20.098,Info_measure_main_exp,2022.2.2,MacIntel,60.0024001,,,,,,,,,,,,,,,,,,masks/mask_004.jpg,,,,,,,,,,,,,,,,,,,,,,,,,,,,,,,,,,,,,,,,,,,0,4,4,3,1,,,,,,,,,,,,,,,,,,,,,,,,,,,,,,,,,,,,,,,,,,,,,,
377619,001,2022-11-20_23h58.20.098,Info_measure_main_exp,2022.2.2,MacIntel,60.0024001,,,,,,,,,,,,,,,,,,masks/mask_002.jpg,,,,,,,,,,,,,,,,,,,,,,,,,,,,,,,,,,,,,,,,,,,,,,,,0,0,0,1,1,,,,,,,,,,,,,,,,,,,,,,,,,,,,,,,,,,,,,,,,,
377619,001,2022-11-20_23h58.20.098,Info_measure_main_exp,2022.2.2,MacIntel,60.0024001,,,,,,,,,,,,,,,,,,masks/mask_003.jpg,,,,,,,,,,,,,,,,,,,,,,,,,,,,,,,,,,,,,,,,,,,,,,,,0,1,1,2,1,,,,,,,,,,,,,,,,,,,,,,,,,,,,,,,,,,,,,,,,,
377619,001,2022-11-20_23h58.20.098,Info_measure_main_exp,2022.2.2,MacIntel,60.0024001,,,,,,,,,,,,,,,,,,masks/mask_005.jpg,,,,,,,,,,,,,,,,,,,,,,,,,,,,,,,,,,,,,,,,,,,,,,,,0,2,2,4,1,,,,,,,,,,,,,,,,,,,,,,,,,,,,,,,,,,,,,,,,,
377619,001,2022-11-20_23h58.20.098,Info_measure_main_exp,2022.2.2,MacIntel,60.0024001,,,,,,,,,,,,,,,,,,masks/mask_001.jpg,,,,,,,,,,,,,,,,,,,,,,,,,,,,,,,,,,,,,,,,,,,,,,,,0,3,3,0,1,,,,,,,,,,,,,,,,,,,,,,,,,,,,,,,,,,,,,,,,,
377619,001,2022-11-20_23h58.20.098,Info_measure_main_exp,2022.2.2,MacIntel,60.0024001,,,,,,,,,,,,,,,,,,masks/mask_004.jpg,,,,,,,,,,,,,,,,,,,,,,,,,,,,,,,,,,,,,,,,,,,,,,,,0,4,4,3,1,,,,,,,,,,,,,,,,,,,,,,,,,,,,,,,,,,,,,,,,,
377619,001,2022-11-20_23h58.20.098,Info_measure_main_exp,2022.2.2,MacIntel,60.0024001,,,,,,,,,,,,,,,,,,,,,,,,,,,,,,6,3.3995,1,,,,,,,,,,,,0,131,5,5,2250,2166,absent_patch/patch0002250.jpg,absent_patch/patch0002166.jpg,,,,,,,,,,,,,,,,,,,,0.119626736,0.031419271,1,0,0,response1disk,1,-0.001701389,0.00328125,1,0,0,center_square,0,0,0,60,1,,,,,,,,,,,,,,,,,,,,,,,
377619,001,2022-11-20_23h58.20.098,Info_measure_main_exp,2022.2.2,MacIntel,60.0024001,,,,,,,,,,,,,,,,,,masks/mask_002.jpg,,,,,,,,,,,,,,,,,,,,,,,,,,,,,,,,,,,,,,,,,,,0,0,0,1,1,,,,,,,,,,,,,,,,,,,,,,,,,,,,,,,,,,,,,,,,,,,,,,
377619,001,2022-11-20_23h58.20.098,Info_measure_main_exp,2022.2.2,MacIntel,60.0024001,,,,,,,,,,,,,,,,,,masks/mask_003.jpg,,,,,,,,,,,,,,,,,,,,,,,,,,,,,,,,,,,,,,,,,,,0,1,1,2,1,,,,,,,,,,,,,,,,,,,,,,,,,,,,,,,,,,,,,,,,,,,,,,
377619,001,2022-11-20_23h58.20.098,Info_measure_main_exp,2022.2.2,MacIntel,60.0024001,,,,,,,,,,,,,,,,,,masks/mask_005.jpg,,,,,,,,,,,,,,,,,,,,,,,,,,,,,,,,,,,,,,,,,,,0,2,2,4,1,,,,,,,,,,,,,,,,,,,,,,,,,,,,,,,,,,,,,,,,,,,,,,
377619,001,2022-11-20_23h58.20.098,Info_measure_main_exp,2022.2.2,MacIntel,60.0024001,,,,,,,,,,,,,,,,,,masks/mask_004.jpg,,,,,,,,,,,,,,,,,,,,,,,,,,,,,,,,,,,,,,,,,,,0,3,3,3,1,,,,,,,,,,,,,,,,,,,,,,,,,,,,,,,,,,,,,,,,,,,,,,
377619,001,2022-11-20_23h58.20.098,Info_measure_main_exp,2022.2.2,MacIntel,60.0024001,,,,,,,,,,,,,,,,,,masks/mask_001.jpg,,,,,,,,,,,,,,,,,,,,,,,,,,,,,,,,,,,,,,,,,,,0,4,4,0,1,,,,,,,,,,,,,,,,,,,,,,,,,,,,,,,,,,,,,,,,,,,,,,
377619,001,2022-11-20_23h58.20.098,Info_measure_main_exp,2022.2.2,MacIntel,60.0024001,,,,,,,,,,,,,,,,,,masks/mask_001.jpg,,,,,,,,,,,,,,,,,,,,,,,,,,,,,,,,,,,,,,,,,,,,,,,,0,0,0,0,1,,,,,,,,,,,,,,,,,,,,,,,,,,,,,,,,,,,,,,,,,
377619,001,2022-11-20_23h58.20.098,Info_measure_main_exp,2022.2.2,MacIntel,60.0024001,,,,,,,,,,,,,,,,,,masks/mask_005.jpg,,,,,,,,,,,,,,,,,,,,,,,,,,,,,,,,,,,,,,,,,,,,,,,,0,1,1,4,1,,,,,,,,,,,,,,,,,,,,,,,,,,,,,,,,,,,,,,,,,
377619,001,2022-11-20_23h58.20.098,Info_measure_main_exp,2022.2.2,MacIntel,60.0024001,,,,,,,,,,,,,,,,,,masks/mask_003.jpg,,,,,,,,,,,,,,,,,,,,,,,,,,,,,,,,,,,,,,,,,,,,,,,,0,2,2,2,1,,,,,,,,,,,,,,,,,,,,,,,,,,,,,,,,,,,,,,,,,
377619,001,2022-11-20_23h58.20.098,Info_measure_main_exp,2022.2.2,MacIntel,60.0024001,,,,,,,,,,,,,,,,,,masks/mask_002.jpg,,,,,,,,,,,,,,,,,,,,,,,,,,,,,,,,,,,,,,,,,,,,,,,,0,3,3,1,1,,,,,,,,,,,,,,,,,,,,,,,,,,,,,,,,,,,,,,,,,
377619,001,2022-11-20_23h58.20.098,Info_measure_main_exp,2022.2.2,MacIntel,60.0024001,,,,,,,,,,,,,,,,,,masks/mask_004.jpg,,,,,,,,,,,,,,,,,,,,,,,,,,,,,,,,,,,,,,,,,,,,,,,,0,4,4,3,1,,,,,,,,,,,,,,,,,,,,,,,,,,,,,,,,,,,,,,,,,
377619,001,2022-11-20_23h58.20.098,Info_measure_main_exp,2022.2.2,MacIntel,60.0024001,,,,,,,,,,,,,,,,,,,,,,,,,,,,,,7,1.4172,1,,,,,,,,,,,,1,131,5,5,2082,1,absent_patch/patch0002082.jpg,present_patch/cong_131_5_a.jpg,,,,,,,,,,,,,,,,,,,,0.096471354,0.184661458,1,0,0,response1disk,2,0.007673611,0.00312066,1,0,0,center_square,0,1,1,65,1,,,,,,,,,,,,,,,,,,,,,,,
377619,001,2022-11-20_23h58.20.098,Info_measure_main_exp,2022.2.2,MacIntel,60.0024001,,,,,,,,,,,,,,,,,,masks/mask_004.jpg,,,,,,,,,,,,,,,,,,,,,,,,,,,,,,,,,,,,,,,,,,,0,0,0,3,1,,,,,,,,,,,,,,,,,,,,,,,,,,,,,,,,,,,,,,,,,,,,,,
377619,001,2022-11-20_23h58.20.098,Info_measure_main_exp,2022.2.2,MacIntel,60.0024001,,,,,,,,,,,,,,,,,,masks/mask_003.jpg,,,,,,,,,,,,,,,,,,,,,,,,,,,,,,,,,,,,,,,,,,,0,1,1,2,1,,,,,,,,,,,,,,,,,,,,,,,,,,,,,,,,,,,,,,,,,,,,,,
377619,001,2022-11-20_23h58.20.098,Info_measure_main_exp,2022.2.2,MacIntel,60.0024001,,,,,,,,,,,,,,,,,,masks/mask_001.jpg,,,,,,,,,,,,,,,,,,,,,,,,,,,,,,,,,,,,,,,,,,,0,2,2,0,1,,,,,,,,,,,,,,,,,,,,,,,,,,,,,,,,,,,,,,,,,,,,,,
377619,001,2022-11-20_23h58.20.098,Info_measure_main_exp,2022.2.2,MacIntel,60.0024001,,,,,,,,,,,,,,,,,,masks/mask_005.jpg,,,,,,,,,,,,,,,,,,,,,,,,,,,,,,,,,,,,,,,,,,,0,3,3,4,1,,,,,,,,,,,,,,,,,,,,,,,,,,,,,,,,,,,,,,,,,,,,,,
377619,001,2022-11-20_23h58.20.098,Info_measure_main_exp,2022.2.2,MacIntel,60.0024001,,,,,,,,,,,,,,,,,,masks/mask_002.jpg,,,,,,,,,,,,,,,,,,,,,,,,,,,,,,,,,,,,,,,,,,,0,4,4,1,1,,,,,,,,,,,,,,,,,,,,,,,,,,,,,,,,,,,,,,,,,,,,,,
377619,001,2022-11-20_23h58.20.098,Info_measure_main_exp,2022.2.2,MacIntel,60.0024001,,,,,,,,,,,,,,,,,,masks/mask_002.jpg,,,,,,,,,,,,,,,,,,,,,,,,,,,,,,,,,,,,,,,,,,,,,,,,0,0,0,1,1,,,,,,,,,,,,,,,,,,,,,,,,,,,,,,,,,,,,,,,,,
377619,001,2022-11-20_23h58.20.098,Info_measure_main_exp,2022.2.2,MacIntel,60.0024001,,,,,,,,,,,,,,,,,,masks/mask_005.jpg,,,,,,,,,,,,,,,,,,,,,,,,,,,,,,,,,,,,,,,,,,,,,,,,0,1,1,4,1,,,,,,,,,,,,,,,,,,,,,,,,,,,,,,,,,,,,,,,,,
377619,001,2022-11-20_23h58.20.098,Info_measure_main_exp,2022.2.2,MacIntel,60.0024001,,,,,,,,,,,,,,,,,,masks/mask_003.jpg,,,,,,,,,,,,,,,,,,,,,,,,,,,,,,,,,,,,,,,,,,,,,,,,0,2,2,2,1,,,,,,,,,,,,,,,,,,,,,,,,,,,,,,,,,,,,,,,,,
377619,001,2022-11-20_23h58.20.098,Info_measure_main_exp,2022.2.2,MacIntel,60.0024001,,,,,,,,,,,,,,,,,,masks/mask_004.jpg,,,,,,,,,,,,,,,,,,,,,,,,,,,,,,,,,,,,,,,,,,,,,,,,0,3,3,3,1,,,,,,,,,,,,,,,,,,,,,,,,,,,,,,,,,,,,,,,,,
377619,001,2022-11-20_23h58.20.098,Info_measure_main_exp,2022.2.2,MacIntel,60.0024001,,,,,,,,,,,,,,,,,,masks/mask_001.jpg,,,,,,,,,,,,,,,,,,,,,,,,,,,,,,,,,,,,,,,,,,,,,,,,0,4,4,0,1,,,,,,,,,,,,,,,,,,,,,,,,,,,,,,,,,,,,,,,,,
377619,001,2022-11-20_23h58.20.098,Info_measure_main_exp,2022.2.2,MacIntel,60.0024001,,,,,,,,,,,,,,,,,,,,,,,,,,,,,,6,1.7845,1,,,,,,,,,,,,0,131,5,5,2274,2178,absent_patch/patch0002274.jpg,absent_patch/patch0002178.jpg,,,,,,,,,,,,,,,,,,,,0.184965278,0.07000434,1,0,0,response1disk,3,0.000164931,0.001935764,1,0,0,center_square,0,2,2,117,1,,,,,,,,,,,,,,,,,,,,,,,
377619,001,2022-11-20_23h58.20.098,Info_measure_main_exp,2022.2.2,MacIntel,60.0024001,,,,,,,,,,,,,,,,,,masks/mask_003.jpg,,,,,,,,,,,,,,,,,,,,,,,,,,,,,,,,,,,,,,,,,,,0,0,0,2,1,,,,,,,,,,,,,,,,,,,,,,,,,,,,,,,,,,,,,,,,,,,,,,
377619,001,2022-11-20_23h58.20.098,Info_measure_main_exp,2022.2.2,MacIntel,60.0024001,,,,,,,,,,,,,,,,,,masks/mask_005.jpg,,,,,,,,,,,,,,,,,,,,,,,,,,,,,,,,,,,,,,,,,,,0,1,1,4,1,,,,,,,,,,,,,,,,,,,,,,,,,,,,,,,,,,,,,,,,,,,,,,
377619,001,2022-11-20_23h58.20.098,Info_measure_main_exp,2022.2.2,MacIntel,60.0024001,,,,,,,,,,,,,,,,,,masks/mask_001.jpg,,,,,,,,,,,,,,,,,,,,,,,,,,,,,,,,,,,,,,,,,,,0,2,2,0,1,,,,,,,,,,,,,,,,,,,,,,,,,,,,,,,,,,,,,,,,,,,,,,
377619,001,2022-11-20_23h58.20.098,Info_measure_main_exp,2022.2.2,MacIntel,60.0024001,,,,,,,,,,,,,,,,,,masks/mask_002.jpg,,,,,,,,,,,,,,,,,,,,,,,,,,,,,,,,,,,,,,,,,,,0,3,3,1,1,,,,,,,,,,,,,,,,,,,,,,,,,,,,,,,,,,,,,,,,,,,,,,
377619,001,2022-11-20_23h58.20.098,Info_measure_main_exp,2022.2.2,MacIntel,60.0024001,,,,,,,,,,,,,,,,,,masks/mask_004.jpg,,,,,,,,,,,,,,,,,,,,,,,,,,,,,,,,,,,,,,,,,,,0,4,4,3,1,,,,,,,,,,,,,,,,,,,,,,,,,,,,,,,,,,,,,,,,,,,,,,
377619,001,2022-11-20_23h58.20.098,Info_measure_main_exp,2022.2.2,MacIntel,60.0024001,,,,,,,,,,,,,,,,,,masks/mask_002.jpg,,,,,,,,,,,,,,,,,,,,,,,,,,,,,,,,,,,,,,,,,,,,,,,,0,0,0,1,1,,,,,,,,,,,,,,,,,,,,,,,,,,,,,,,,,,,,,,,,,
377619,001,2022-11-20_23h58.20.098,Info_measure_main_exp,2022.2.2,MacIntel,60.0024001,,,,,,,,,,,,,,,,,,masks/mask_004.jpg,,,,,,,,,,,,,,,,,,,,,,,,,,,,,,,,,,,,,,,,,,,,,,,,0,1,1,3,1,,,,,,,,,,,,,,,,,,,,,,,,,,,,,,,,,,,,,,,,,
377619,001,2022-11-20_23h58.20.098,Info_measure_main_exp,2022.2.2,MacIntel,60.0024001,,,,,,,,,,,,,,,,,,masks/mask_003.jpg,,,,,,,,,,,,,,,,,,,,,,,,,,,,,,,,,,,,,,,,,,,,,,,,0,2,2,2,1,,,,,,,,,,,,,,,,,,,,,,,,,,,,,,,,,,,,,,,,,
377619,001,2022-11-20_23h58.20.098,Info_measure_main_exp,2022.2.2,MacIntel,60.0024001,,,,,,,,,,,,,,,,,,masks/mask_001.jpg,,,,,,,,,,,,,,,,,,,,,,,,,,,,,,,,,,,,,,,,,,,,,,,,0,3,3,0,1,,,,,,,,,,,,,,,,,,,,,,,,,,,,,,,,,,,,,,,,,
377619,001,2022-11-20_23h58.20.098,Info_measure_main_exp,2022.2.2,MacIntel,60.0024001,,,,,,,,,,,,,,,,,,masks/mask_005.jpg,,,,,,,,,,,,,,,,,,,,,,,,,,,,,,,,,,,,,,,,,,,,,,,,0,4,4,4,1,,,,,,,,,,,,,,,,,,,,,,,,,,,,,,,,,,,,,,,,,
377619,001,2022-11-20_23h58.20.098,Info_measure_main_exp,2022.2.2,MacIntel,60.0024001,,,,,,,,,,,,,,,,,,,,,,,,,,,,,,2,1.8176,1,,,,,,,,,,,,1,131,5,5,1,2274,present_patch/cong_131_5_a.jpg,absent_patch/patch0002274.jpg,,,,,,,,,,,,,,,,,,,,-0.110668403,-0.032942708,1,0,0,response5disk,4,0.004422743,0.001341146,1,0,0,center_square,0,3,3,105,1,,,,,,,,,,,,,,,,,,,,,,,
377619,001,2022-11-20_23h58.20.098,Info_measure_main_exp,2022.2.2,MacIntel,60.0024001,,,,,,,,,,,,,,,,,,masks/mask_003.jpg,,,,,,,,,,,,,,,,,,,,,,,,,,,,,,,,,,,,,,,,,,,0,0,0,2,1,,,,,,,,,,,,,,,,,,,,,,,,,,,,,,,,,,,,,,,,,,,,,,
377619,001,2022-11-20_23h58.20.098,Info_measure_main_exp,2022.2.2,MacIntel,60.0024001,,,,,,,,,,,,,,,,,,masks/mask_001.jpg,,,,,,,,,,,,,,,,,,,,,,,,,,,,,,,,,,,,,,,,,,,0,1,1,0,1,,,,,,,,,,,,,,,,,,,,,,,,,,,,,,,,,,,,,,,,,,,,,,
377619,001,2022-11-20_23h58.20.098,Info_measure_main_exp,2022.2.2,MacIntel,60.0024001,,,,,,,,,,,,,,,,,,masks/mask_004.jpg,,,,,,,,,,,,,,,,,,,,,,,,,,,,,,,,,,,,,,,,,,,0,2,2,3,1,,,,,,,,,,,,,,,,,,,,,,,,,,,,,,,,,,,,,,,,,,,,,,
377619,001,2022-11-20_23h58.20.098,Info_measure_main_exp,2022.2.2,MacIntel,60.0024001,,,,,,,,,,,,,,,,,,masks/mask_002.jpg,,,,,,,,,,,,,,,,,,,,,,,,,,,,,,,,,,,,,,,,,,,0,3,3,1,1,,,,,,,,,,,,,,,,,,,,,,,,,,,,,,,,,,,,,,,,,,,,,,
377619,001,2022-11-20_23h58.20.098,Info_measure_main_exp,2022.2.2,MacIntel,60.0024001,,,,,,,,,,,,,,,,,,masks/mask_005.jpg,,,,,,,,,,,,,,,,,,,,,,,,,,,,,,,,,,,,,,,,,,,0,4,4,4,1,,,,,,,,,,,,,,,,,,,,,,,,,,,,,,,,,,,,,,,,,,,,,,
377619,001,2022-11-20_23h58.20.098,Info_measure_main_exp,2022.2.2,MacIntel,60.0024001,,,,,,,,,,,,,,,,,,masks/mask_002.jpg,,,,,,,,,,,,,,,,,,,,,,,,,,,,,,,,,,,,,,,,,,,,,,,,0,0,0,1,1,,,,,,,,,,,,,,,,,,,,,,,,,,,,,,,,,,,,,,,,,
377619,001,2022-11-20_23h58.20.098,Info_measure_main_exp,2022.2.2,MacIntel,60.0024001,,,,,,,,,,,,,,,,,,masks/mask_003.jpg,,,,,,,,,,,,,,,,,,,,,,,,,,,,,,,,,,,,,,,,,,,,,,,,0,1,1,2,1,,,,,,,,,,,,,,,,,,,,,,,,,,,,,,,,,,,,,,,,,
377619,001,2022-11-20_23h58.20.098,Info_measure_main_exp,2022.2.2,MacIntel,60.0024001,,,,,,,,,,,,,,,,,,masks/mask_001.jpg,,,,,,,,,,,,,,,,,,,,,,,,,,,,,,,,,,,,,,,,,,,,,,,,0,2,2,0,1,,,,,,,,,,,,,,,,,,,,,,,,,,,,,,,,,,,,,,,,,
377619,001,2022-11-20_23h58.20.098,Info_measure_main_exp,2022.2.2,MacIntel,60.0024001,,,,,,,,,,,,,,,,,,masks/mask_004.jpg,,,,,,,,,,,,,,,,,,,,,,,,,,,,,,,,,,,,,,,,,,,,,,,,0,3,3,3,1,,,,,,,,,,,,,,,,,,,,,,,,,,,,,,,,,,,,,,,,,
377619,001,2022-11-20_23h58.20.098,Info_measure_main_exp,2022.2.2,MacIntel,60.0024001,,,,,,,,,,,,,,,,,,masks/mask_005.jpg,,,,,,,,,,,,,,,,,,,,,,,,,,,,,,,,,,,,,,,,,,,,,,,,0,4,4,4,1,,,,,,,,,,,,,,,,,,,,,,,,,,,,,,,,,,,,,,,,,
377619,001,2022-11-20_23h58.20.098,Info_measure_main_exp,2022.2.2,MacIntel,60.0024001,,,,,,,,,,,,,,,,,,,,,,,,,,,,,,5,2.0335,1,,,,,,,,,,,,0,131,5,5,2082,2178,absent_patch/patch0002082.jpg,absent_patch/patch0002178.jpg,,,,,,,,,,,,,,,,,,,,0.169622396,-0.059427083,1,0,0,response3disk,5,-0.006145833,0.000807292,1,0,0,center_square,0,4,4,2,1,,,,,,,,,,,,,,,,,,,,,,,
377619,001,2022-11-20_23h58.20.098,Info_measure_main_exp,2022.2.2,MacIntel,60.0024001,,,,,,,,,,,,,,,,,,masks/mask_002.jpg,,,,,,,,,,,,,,,,,,,,,,,,,,,,,,,,,,,,,,,,,,,0,0,0,1,1,,,,,,,,,,,,,,,,,,,,,,,,,,,,,,,,,,,,,,,,,,,,,,
377619,001,2022-11-20_23h58.20.098,Info_measure_main_exp,2022.2.2,MacIntel,60.0024001,,,,,,,,,,,,,,,,,,masks/mask_004.jpg,,,,,,,,,,,,,,,,,,,,,,,,,,,,,,,,,,,,,,,,,,,0,1,1,3,1,,,,,,,,,,,,,,,,,,,,,,,,,,,,,,,,,,,,,,,,,,,,,,
377619,001,2022-11-20_23h58.20.098,Info_measure_main_exp,2022.2.2,MacIntel,60.0024001,,,,,,,,,,,,,,,,,,masks/mask_003.jpg,,,,,,,,,,,,,,,,,,,,,,,,,,,,,,,,,,,,,,,,,,,0,2,2,2,1,,,,,,,,,,,,,,,,,,,,,,,,,,,,,,,,,,,,,,,,,,,,,,
377619,001,2022-11-20_23h58.20.098,Info_measure_main_exp,2022.2.2,MacIntel,60.0024001,,,,,,,,,,,,,,,,,,masks/mask_005.jpg,,,,,,,,,,,,,,,,,,,,,,,,,,,,,,,,,,,,,,,,,,,0,3,3,4,1,,,,,,,,,,,,,,,,,,,,,,,,,,,,,,,,,,,,,,,,,,,,,,
377619,001,2022-11-20_23h58.20.098,Info_measure_main_exp,2022.2.2,MacIntel,60.0024001,,,,,,,,,,,,,,,,,,masks/mask_001.jpg,,,,,,,,,,,,,,,,,,,,,,,,,,,,,,,,,,,,,,,,,,,0,4,4,0,1,,,,,,,,,,,,,,,,,,,,,,,,,,,,,,,,,,,,,,,,,,,,,,
377619,001,2022-11-20_23h58.20.098,Info_measure_main_exp,2022.2.2,MacIntel,60.0024001,,,,,,,,,,,,,,,,,,masks/mask_003.jpg,,,,,,,,,,,,,,,,,,,,,,,,,,,,,,,,,,,,,,,,,,,,,,,,0,0,0,2,1,,,,,,,,,,,,,,,,,,,,,,,,,,,,,,,,,,,,,,,,,
377619,001,2022-11-20_23h58.20.098,Info_measure_main_exp,2022.2.2,MacIntel,60.0024001,,,,,,,,,,,,,,,,,,masks/mask_002.jpg,,,,,,,,,,,,,,,,,,,,,,,,,,,,,,,,,,,,,,,,,,,,,,,,0,1,1,1,1,,,,,,,,,,,,,,,,,,,,,,,,,,,,,,,,,,,,,,,,,
377619,001,2022-11-20_23h58.20.098,Info_measure_main_exp,2022.2.2,MacIntel,60.0024001,,,,,,,,,,,,,,,,,,masks/mask_001.jpg,,,,,,,,,,,,,,,,,,,,,,,,,,,,,,,,,,,,,,,,,,,,,,,,0,2,2,0,1,,,,,,,,,,,,,,,,,,,,,,,,,,,,,,,,,,,,,,,,,
377619,001,2022-11-20_23h58.20.098,Info_measure_main_exp,2022.2.2,MacIntel,60.0024001,,,,,,,,,,,,,,,,,,masks/mask_004.jpg,,,,,,,,,,,,,,,,,,,,,,,,,,,,,,,,,,,,,,,,,,,,,,,,0,3,3,3,1,,,,,,,,,,,,,,,,,,,,,,,,,,,,,,,,,,,,,,,,,
377619,001,2022-11-20_23h58.20.098,Info_measure_main_exp,2022.2.2,MacIntel,60.0024001,,,,,,,,,,,,,,,,,,masks/mask_005.jpg,,,,,,,,,,,,,,,,,,,,,,,,,,,,,,,,,,,,,,,,,,,,,,,,0,4,4,4,1,,,,,,,,,,,,,,,,,,,,,,,,,,,,,,,,,,,,,,,,,
377619,001,2022-11-20_23h58.20.098,Info_measure_main_exp,2022.2.2,MacIntel,60.0024001,,,,,,,,,,,,,,,,,,,,,,,,,,,,,,6,1.3005,1,,,,,,,,,,,,0,131,5,5,2082,2154,absent_patch/patch0002082.jpg,absent_patch/patch0002154.jpg,,,,,,,,,,,,,,,,,,,,0.167890625,0.056419271,1,0,0,response1disk,6,-0.000377604,-0.002938368,1,0,0,center_square,0,5,5,33,1,,,,,,,,,,,,,,,,,,,,,,,
377619,001,2022-11-20_23h58.20.098,Info_measure_main_exp,2022.2.2,MacIntel,60.0024001,,,,,,,,,,,,,,,,,,masks/mask_001.jpg,,,,,,,,,,,,,,,,,,,,,,,,,,,,,,,,,,,,,,,,,,,0,0,0,0,1,,,,,,,,,,,,,,,,,,,,,,,,,,,,,,,,,,,,,,,,,,,,,,
377619,001,2022-11-20_23h58.20.098,Info_measure_main_exp,2022.2.2,MacIntel,60.0024001,,,,,,,,,,,,,,,,,,masks/mask_004.jpg,,,,,,,,,,,,,,,,,,,,,,,,,,,,,,,,,,,,,,,,,,,0,1,1,3,1,,,,,,,,,,,,,,,,,,,,,,,,,,,,,,,,,,,,,,,,,,,,,,
377619,001,2022-11-20_23h58.20.098,Info_measure_main_exp,2022.2.2,MacIntel,60.0024001,,,,,,,,,,,,,,,,,,masks/mask_002.jpg,,,,,,,,,,,,,,,,,,,,,,,,,,,,,,,,,,,,,,,,,,,0,2,2,1,1,,,,,,,,,,,,,,,,,,,,,,,,,,,,,,,,,,,,,,,,,,,,,,
377619,001,2022-11-20_23h58.20.098,Info_measure_main_exp,2022.2.2,MacIntel,60.0024001,,,,,,,,,,,,,,,,,,masks/mask_005.jpg,,,,,,,,,,,,,,,,,,,,,,,,,,,,,,,,,,,,,,,,,,,0,3,3,4,1,,,,,,,,,,,,,,,,,,,,,,,,,,,,,,,,,,,,,,,,,,,,,,
377619,001,2022-11-20_23h58.20.098,Info_measure_main_exp,2022.2.2,MacIntel,60.0024001,,,,,,,,,,,,,,,,,,masks/mask_003.jpg,,,,,,,,,,,,,,,,,,,,,,,,,,,,,,,,,,,,,,,,,,,0,4,4,2,1,,,,,,,,,,,,,,,,,,,,,,,,,,,,,,,,,,,,,,,,,,,,,,
377619,001,2022-11-20_23h58.20.098,Info_measure_main_exp,2022.2.2,MacIntel,60.0024001,,,,,,,,,,,,,,,,,,masks/mask_001.jpg,,,,,,,,,,,,,,,,,,,,,,,,,,,,,,,,,,,,,,,,,,,,,,,,0,0,0,0,1,,,,,,,,,,,,,,,,,,,,,,,,,,,,,,,,,,,,,,,,,
377619,001,2022-11-20_23h58.20.098,Info_measure_main_exp,2022.2.2,MacIntel,60.0024001,,,,,,,,,,,,,,,,,,masks/mask_002.jpg,,,,,,,,,,,,,,,,,,,,,,,,,,,,,,,,,,,,,,,,,,,,,,,,0,1,1,1,1,,,,,,,,,,,,,,,,,,,,,,,,,,,,,,,,,,,,,,,,,
377619,001,2022-11-20_23h58.20.098,Info_measure_main_exp,2022.2.2,MacIntel,60.0024001,,,,,,,,,,,,,,,,,,masks/mask_003.jpg,,,,,,,,,,,,,,,,,,,,,,,,,,,,,,,,,,,,,,,,,,,,,,,,0,2,2,2,1,,,,,,,,,,,,,,,,,,,,,,,,,,,,,,,,,,,,,,,,,
377619,001,2022-11-20_23h58.20.098,Info_measure_main_exp,2022.2.2,MacIntel,60.0024001,,,,,,,,,,,,,,,,,,masks/mask_004.jpg,,,,,,,,,,,,,,,,,,,,,,,,,,,,,,,,,,,,,,,,,,,,,,,,0,3,3,3,1,,,,,,,,,,,,,,,,,,,,,,,,,,,,,,,,,,,,,,,,,
377619,001,2022-11-20_23h58.20.098,Info_measure_main_exp,2022.2.2,MacIntel,60.0024001,,,,,,,,,,,,,,,,,,masks/mask_005.jpg,,,,,,,,,,,,,,,,,,,,,,,,,,,,,,,,,,,,,,,,,,,,,,,,0,4,4,4,1,,,,,,,,,,,,,,,,,,,,,,,,,,,,,,,,,,,,,,,,,
377619,001,2022-11-20_23h58.20.098,Info_measure_main_exp,2022.2.2,MacIntel,60.0024001,,,,,,,,,,,,,,,,,,,,,,,,,,,,,,5,1.3833,1,,,,,,,,,,,,0,131,5,5,2142,2082,absent_patch/patch0002142.jpg,absent_patch/patch0002082.jpg,,,,,,,,,,,,,,,,,,,,0.141588542,-0.047608507,1,0,0,response3disk,7,-0.004700521,-0.004548611,1,0,0,center_square,0,6,6,88,1,,,,,,,,,,,,,,,,,,,,,,,
377619,001,2022-11-20_23h58.20.098,Info_measure_main_exp,2022.2.2,MacIntel,60.0024001,,,,,,,,,,,,,,,,,,masks/mask_001.jpg,,,,,,,,,,,,,,,,,,,,,,,,,,,,,,,,,,,,,,,,,,,0,0,0,0,1,,,,,,,,,,,,,,,,,,,,,,,,,,,,,,,,,,,,,,,,,,,,,,
377619,001,2022-11-20_23h58.20.098,Info_measure_main_exp,2022.2.2,MacIntel,60.0024001,,,,,,,,,,,,,,,,,,masks/mask_004.jpg,,,,,,,,,,,,,,,,,,,,,,,,,,,,,,,,,,,,,,,,,,,0,1,1,3,1,,,,,,,,,,,,,,,,,,,,,,,,,,,,,,,,,,,,,,,,,,,,,,
377619,001,2022-11-20_23h58.20.098,Info_measure_main_exp,2022.2.2,MacIntel,60.0024001,,,,,,,,,,,,,,,,,,masks/mask_003.jpg,,,,,,,,,,,,,,,,,,,,,,,,,,,,,,,,,,,,,,,,,,,0,2,2,2,1,,,,,,,,,,,,,,,,,,,,,,,,,,,,,,,,,,,,,,,,,,,,,,
377619,001,2022-11-20_23h58.20.098,Info_measure_main_exp,2022.2.2,MacIntel,60.0024001,,,,,,,,,,,,,,,,,,masks/mask_005.jpg,,,,,,,,,,,,,,,,,,,,,,,,,,,,,,,,,,,,,,,,,,,0,3,3,4,1,,,,,,,,,,,,,,,,,,,,,,,,,,,,,,,,,,,,,,,,,,,,,,
377619,001,2022-11-20_23h58.20.098,Info_measure_main_exp,2022.2.2,MacIntel,60.0024001,,,,,,,,,,,,,,,,,,masks/mask_002.jpg,,,,,,,,,,,,,,,,,,,,,,,,,,,,,,,,,,,,,,,,,,,0,4,4,1,1,,,,,,,,,,,,,,,,,,,,,,,,,,,,,,,,,,,,,,,,,,,,,,
377619,001,2022-11-20_23h58.20.098,Info_measure_main_exp,2022.2.2,MacIntel,60.0024001,,,,,,,,,,,,,,,,,,masks/mask_003.jpg,,,,,,,,,,,,,,,,,,,,,,,,,,,,,,,,,,,,,,,,,,,,,,,,0,0,0,2,1,,,,,,,,,,,,,,,,,,,,,,,,,,,,,,,,,,,,,,,,,
377619,001,2022-11-20_23h58.20.098,Info_measure_main_exp,2022.2.2,MacIntel,60.0024001,,,,,,,,,,,,,,,,,,masks/mask_002.jpg,,,,,,,,,,,,,,,,,,,,,,,,,,,,,,,,,,,,,,,,,,,,,,,,0,1,1,1,1,,,,,,,,,,,,,,,,,,,,,,,,,,,,,,,,,,,,,,,,,
377619,001,2022-11-20_23h58.20.098,Info_measure_main_exp,2022.2.2,MacIntel,60.0024001,,,,,,,,,,,,,,,,,,masks/mask_004.jpg,,,,,,,,,,,,,,,,,,,,,,,,,,,,,,,,,,,,,,,,,,,,,,,,0,2,2,3,1,,,,,,,,,,,,,,,,,,,,,,,,,,,,,,,,,,,,,,,,,
377619,001,2022-11-20_23h58.20.098,Info_measure_main_exp,2022.2.2,MacIntel,60.0024001,,,,,,,,,,,,,,,,,,masks/mask_005.jpg,,,,,,,,,,,,,,,,,,,,,,,,,,,,,,,,,,,,,,,,,,,,,,,,0,3,3,4,1,,,,,,,,,,,,,,,,,,,,,,,,,,,,,,,,,,,,,,,,,
377619,001,2022-11-20_23h58.20.098,Info_measure_main_exp,2022.2.2,MacIntel,60.0024001,,,,,,,,,,,,,,,,,,masks/mask_001.jpg,,,,,,,,,,,,,,,,,,,,,,,,,,,,,,,,,,,,,,,,,,,,,,,,0,4,4,0,1,,,,,,,,,,,,,,,,,,,,,,,,,,,,,,,,,,,,,,,,,
377619,001,2022-11-20_23h58.20.098,Info_measure_main_exp,2022.2.2,MacIntel,60.0024001,,,,,,,,,,,,,,,,,,,,,,,,,,,,,,4,1.5839,1,,,,,,,,,,,,0,131,5,5,2298,1986,absent_patch/patch0002298.jpg,absent_patch/patch0001986.jpg,,,,,,,,,,,,,,,,,,,,0.051206597,-0.117057292,1,0,0,response3disk,8,-0.004361979,-0.005230035,1,0,0,center_square,0,7,7,32,1,,,,,,,,,,,,,,,,,,,,,,,
377619,001,2022-11-20_23h58.20.098,Info_measure_main_exp,2022.2.2,MacIntel,60.0024001,,,,,,,,,,,,,,,,,,masks/mask_002.jpg,,,,,,,,,,,,,,,,,,,,,,,,,,,,,,,,,,,,,,,,,,,0,0,0,1,1,,,,,,,,,,,,,,,,,,,,,,,,,,,,,,,,,,,,,,,,,,,,,,
377619,001,2022-11-20_23h58.20.098,Info_measure_main_exp,2022.2.2,MacIntel,60.0024001,,,,,,,,,,,,,,,,,,masks/mask_005.jpg,,,,,,,,,,,,,,,,,,,,,,,,,,,,,,,,,,,,,,,,,,,0,1,1,4,1,,,,,,,,,,,,,,,,,,,,,,,,,,,,,,,,,,,,,,,,,,,,,,
377619,001,2022-11-20_23h58.20.098,Info_measure_main_exp,2022.2.2,MacIntel,60.0024001,,,,,,,,,,,,,,,,,,masks/mask_003.jpg,,,,,,,,,,,,,,,,,,,,,,,,,,,,,,,,,,,,,,,,,,,0,2,2,2,1,,,,,,,,,,,,,,,,,,,,,,,,,,,,,,,,,,,,,,,,,,,,,,
377619,001,2022-11-20_23h58.20.098,Info_measure_main_exp,2022.2.2,MacIntel,60.0024001,,,,,,,,,,,,,,,,,,masks/mask_004.jpg,,,,,,,,,,,,,,,,,,,,,,,,,,,,,,,,,,,,,,,,,,,0,3,3,3,1,,,,,,,,,,,,,,,,,,,,,,,,,,,,,,,,,,,,,,,,,,,,,,
377619,001,2022-11-20_23h58.20.098,Info_measure_main_exp,2022.2.2,MacIntel,60.0024001,,,,,,,,,,,,,,,,,,masks/mask_001.jpg,,,,,,,,,,,,,,,,,,,,,,,,,,,,,,,,,,,,,,,,,,,0,4,4,0,1,,,,,,,,,,,,,,,,,,,,,,,,,,,,,,,,,,,,,,,,,,,,,,
377619,001,2022-11-20_23h58.20.098,Info_measure_main_exp,2022.2.2,MacIntel,60.0024001,,,,,,,,,,,,,,,,,,masks/mask_005.jpg,,,,,,,,,,,,,,,,,,,,,,,,,,,,,,,,,,,,,,,,,,,,,,,,0,0,0,4,1,,,,,,,,,,,,,,,,,,,,,,,,,,,,,,,,,,,,,,,,,
377619,001,2022-11-20_23h58.20.098,Info_measure_main_exp,2022.2.2,MacIntel,60.0024001,,,,,,,,,,,,,,,,,,masks/mask_004.jpg,,,,,,,,,,,,,,,,,,,,,,,,,,,,,,,,,,,,,,,,,,,,,,,,0,1,1,3,1,,,,,,,,,,,,,,,,,,,,,,,,,,,,,,,,,,,,,,,,,
377619,001,2022-11-20_23h58.20.098,Info_measure_main_exp,2022.2.2,MacIntel,60.0024001,,,,,,,,,,,,,,,,,,masks/mask_002.jpg,,,,,,,,,,,,,,,,,,,,,,,,,,,,,,,,,,,,,,,,,,,,,,,,0,2,2,1,1,,,,,,,,,,,,,,,,,,,,,,,,,,,,,,,,,,,,,,,,,
377619,001,2022-11-20_23h58.20.098,Info_measure_main_exp,2022.2.2,MacIntel,60.0024001,,,,,,,,,,,,,,,,,,masks/mask_003.jpg,,,,,,,,,,,,,,,,,,,,,,,,,,,,,,,,,,,,,,,,,,,,,,,,0,3,3,2,1,,,,,,,,,,,,,,,,,,,,,,,,,,,,,,,,,,,,,,,,,
377619,001,2022-11-20_23h58.20.098,Info_measure_main_exp,2022.2.2,MacIntel,60.0024001,,,,,,,,,,,,,,,,,,masks/mask_001.jpg,,,,,,,,,,,,,,,,,,,,,,,,,,,,,,,,,,,,,,,,,,,,,,,,0,4,4,0,1,,,,,,,,,,,,,,,,,,,,,,,,,,,,,,,,,,,,,,,,,
377619,001,2022-11-20_23h58.20.098,Info_measure_main_exp,2022.2.2,MacIntel,60.0024001,,,,,,,,,,,,,,,,,,,,,,,,,,,,,,6,1.4834,1,,,,,,,,,,,,1,131,5,5,1,2178,present_patch/cong_131_5_a.jpg,absent_patch/patch0002178.jpg,,,,,,,,,,,,,,,,,,,,0.136506076,0.013272569,1,0,0,response1disk,9,0.010394965,-0.003528646,1,0,0,center_square,0,8,8,40,1,,,,,,,,,,,,,,,,,,,,,,,
377619,001,2022-11-20_23h58.20.098,Info_measure_main_exp,2022.2.2,MacIntel,60.0024001,,,,,,,,,,,,,,,,,,masks/mask_005.jpg,,,,,,,,,,,,,,,,,,,,,,,,,,,,,,,,,,,,,,,,,,,0,0,0,4,1,,,,,,,,,,,,,,,,,,,,,,,,,,,,,,,,,,,,,,,,,,,,,,
377619,001,2022-11-20_23h58.20.098,Info_measure_main_exp,2022.2.2,MacIntel,60.0024001,,,,,,,,,,,,,,,,,,masks/mask_002.jpg,,,,,,,,,,,,,,,,,,,,,,,,,,,,,,,,,,,,,,,,,,,0,1,1,1,1,,,,,,,,,,,,,,,,,,,,,,,,,,,,,,,,,,,,,,,,,,,,,,
377619,001,2022-11-20_23h58.20.098,Info_measure_main_exp,2022.2.2,MacIntel,60.0024001,,,,,,,,,,,,,,,,,,masks/mask_004.jpg,,,,,,,,,,,,,,,,,,,,,,,,,,,,,,,,,,,,,,,,,,,0,2,2,3,1,,,,,,,,,,,,,,,,,,,,,,,,,,,,,,,,,,,,,,,,,,,,,,
377619,001,2022-11-20_23h58.20.098,Info_measure_main_exp,2022.2.2,MacIntel,60.0024001,,,,,,,,,,,,,,,,,,masks/mask_001.jpg,,,,,,,,,,,,,,,,,,,,,,,,,,,,,,,,,,,,,,,,,,,0,3,3,0,1,,,,,,,,,,,,,,,,,,,,,,,,,,,,,,,,,,,,,,,,,,,,,,
377619,001,2022-11-20_23h58.20.098,Info_measure_main_exp,2022.2.2,MacIntel,60.0024001,,,,,,,,,,,,,,,,,,masks/mask_003.jpg,,,,,,,,,,,,,,,,,,,,,,,,,,,,,,,,,,,,,,,,,,,0,4,4,2,1,,,,,,,,,,,,,,,,,,,,,,,,,,,,,,,,,,,,,,,,,,,,,,
377619,001,2022-11-20_23h58.20.098,Info_measure_main_exp,2022.2.2,MacIntel,60.0024001,,,,,,,,,,,,,,,,,,masks/mask_004.jpg,,,,,,,,,,,,,,,,,,,,,,,,,,,,,,,,,,,,,,,,,,,,,,,,0,0,0,3,1,,,,,,,,,,,,,,,,,,,,,,,,,,,,,,,,,,,,,,,,,
377619,001,2022-11-20_23h58.20.098,Info_measure_main_exp,2022.2.2,MacIntel,60.0024001,,,,,,,,,,,,,,,,,,masks/mask_005.jpg,,,,,,,,,,,,,,,,,,,,,,,,,,,,,,,,,,,,,,,,,,,,,,,,0,1,1,4,1,,,,,,,,,,,,,,,,,,,,,,,,,,,,,,,,,,,,,,,,,
377619,001,2022-11-20_23h58.20.098,Info_measure_main_exp,2022.2.2,MacIntel,60.0024001,,,,,,,,,,,,,,,,,,masks/mask_001.jpg,,,,,,,,,,,,,,,,,,,,,,,,,,,,,,,,,,,,,,,,,,,,,,,,0,2,2,0,1,,,,,,,,,,,,,,,,,,,,,,,,,,,,,,,,,,,,,,,,,
377619,001,2022-11-20_23h58.20.098,Info_measure_main_exp,2022.2.2,MacIntel,60.0024001,,,,,,,,,,,,,,,,,,masks/mask_002.jpg,,,,,,,,,,,,,,,,,,,,,,,,,,,,,,,,,,,,,,,,,,,,,,,,0,3,3,1,1,,,,,,,,,,,,,,,,,,,,,,,,,,,,,,,,,,,,,,,,,
377619,001,2022-11-20_23h58.20.098,Info_measure_main_exp,2022.2.2,MacIntel,60.0024001,,,,,,,,,,,,,,,,,,masks/mask_003.jpg,,,,,,,,,,,,,,,,,,,,,,,,,,,,,,,,,,,,,,,,,,,,,,,,0,4,4,2,1,,,,,,,,,,,,,,,,,,,,,,,,,,,,,,,,,,,,,,,,,
377619,001,2022-11-20_23h58.20.098,Info_measure_main_exp,2022.2.2,MacIntel,60.0024001,,,,,,,,,,,,,,,,,,,,,,,,,,,,,,4,2.133,1,,,,,,,,,,,,0,131,5,5,1974,2250,absent_patch/patch0001974.jpg,absent_patch/patch0002250.jpg,,,,,,,,,,,,,,,,,,,,0.045269097,-0.096462674,1,0,0,response3disk,10,0.000824653,-0.006506076,1,0,0,center_square,0,9,9,55,1,,,,,,,,,,,,,,,,,,,,,,,
377619,001,2022-11-20_23h58.20.098,Info_measure_main_exp,2022.2.2,MacIntel,60.0024001,,,,,,,,,,,,,,,,,,masks/mask_004.jpg,,,,,,,,,,,,,,,,,,,,,,,,,,,,,,,,,,,,,,,,,,,0,0,0,3,1,,,,,,,,,,,,,,,,,,,,,,,,,,,,,,,,,,,,,,,,,,,,,,
377619,001,2022-11-20_23h58.20.098,Info_measure_main_exp,2022.2.2,MacIntel,60.0024001,,,,,,,,,,,,,,,,,,masks/mask_002.jpg,,,,,,,,,,,,,,,,,,,,,,,,,,,,,,,,,,,,,,,,,,,0,1,1,1,1,,,,,,,,,,,,,,,,,,,,,,,,,,,,,,,,,,,,,,,,,,,,,,
377619,001,2022-11-20_23h58.20.098,Info_measure_main_exp,2022.2.2,MacIntel,60.0024001,,,,,,,,,,,,,,,,,,masks/mask_001.jpg,,,,,,,,,,,,,,,,,,,,,,,,,,,,,,,,,,,,,,,,,,,0,2,2,0,1,,,,,,,,,,,,,,,,,,,,,,,,,,,,,,,,,,,,,,,,,,,,,,
377619,001,2022-11-20_23h58.20.098,Info_measure_main_exp,2022.2.2,MacIntel,60.0024001,,,,,,,,,,,,,,,,,,masks/mask_003.jpg,,,,,,,,,,,,,,,,,,,,,,,,,,,,,,,,,,,,,,,,,,,0,3,3,2,1,,,,,,,,,,,,,,,,,,,,,,,,,,,,,,,,,,,,,,,,,,,,,,
377619,001,2022-11-20_23h58.20.098,Info_measure_main_exp,2022.2.2,MacIntel,60.0024001,,,,,,,,,,,,,,,,,,masks/mask_005.jpg,,,,,,,,,,,,,,,,,,,,,,,,,,,,,,,,,,,,,,,,,,,0,4,4,4,1,,,,,,,,,,,,,,,,,,,,,,,,,,,,,,,,,,,,,,,,,,,,,,
377619,001,2022-11-20_23h58.20.098,Info_measure_main_exp,2022.2.2,MacIntel,60.0024001,,,,,,,,,,,,,,,,,,masks/mask_002.jpg,,,,,,,,,,,,,,,,,,,,,,,,,,,,,,,,,,,,,,,,,,,,,,,,0,0,0,1,1,,,,,,,,,,,,,,,,,,,,,,,,,,,,,,,,,,,,,,,,,
377619,001,2022-11-20_23h58.20.098,Info_measure_main_exp,2022.2.2,MacIntel,60.0024001,,,,,,,,,,,,,,,,,,masks/mask_004.jpg,,,,,,,,,,,,,,,,,,,,,,,,,,,,,,,,,,,,,,,,,,,,,,,,0,1,1,3,1,,,,,,,,,,,,,,,,,,,,,,,,,,,,,,,,,,,,,,,,,
377619,001,2022-11-20_23h58.20.098,Info_measure_main_exp,2022.2.2,MacIntel,60.0024001,,,,,,,,,,,,,,,,,,masks/mask_003.jpg,,,,,,,,,,,,,,,,,,,,,,,,,,,,,,,,,,,,,,,,,,,,,,,,0,2,2,2,1,,,,,,,,,,,,,,,,,,,,,,,,,,,,,,,,,,,,,,,,,
377619,001,2022-11-20_23h58.20.098,Info_measure_main_exp,2022.2.2,MacIntel,60.0024001,,,,,,,,,,,,,,,,,,masks/mask_005.jpg,,,,,,,,,,,,,,,,,,,,,,,,,,,,,,,,,,,,,,,,,,,,,,,,0,3,3,4,1,,,,,,,,,,,,,,,,,,,,,,,,,,,,,,,,,,,,,,,,,
377619,001,2022-11-20_23h58.20.098,Info_measure_main_exp,2022.2.2,MacIntel,60.0024001,,,,,,,,,,,,,,,,,,masks/mask_001.jpg,,,,,,,,,,,,,,,,,,,,,,,,,,,,,,,,,,,,,,,,,,,,,,,,0,4,4,0,1,,,,,,,,,,,,,,,,,,,,,,,,,,,,,,,,,,,,,,,,,
377619,001,2022-11-20_23h58.20.098,Info_measure_main_exp,2022.2.2,MacIntel,60.0024001,,,,,,,,,,,,,,,,,,,,,,,,,,,,,,2,1.4505,1,,,,,,,,,,,,1,131,5,5,1,2154,present_patch/cong_131_5_a.jpg,absent_patch/patch0002154.jpg,,,,,,,,,,,,,,,,,,,,-0.165850694,-0.076905382,1,0,0,response5disk,11,-0.002730035,-0.001740451,1,0,0,center_square,0,10,10,87,1,,,,,,,,,,,,,,,,,,,,,,,
377619,001,2022-11-20_23h58.20.098,Info_measure_main_exp,2022.2.2,MacIntel,60.0024001,,,,,,,,,,,,,,,,,,masks/mask_004.jpg,,,,,,,,,,,,,,,,,,,,,,,,,,,,,,,,,,,,,,,,,,,0,0,0,3,1,,,,,,,,,,,,,,,,,,,,,,,,,,,,,,,,,,,,,,,,,,,,,,
377619,001,2022-11-20_23h58.20.098,Info_measure_main_exp,2022.2.2,MacIntel,60.0024001,,,,,,,,,,,,,,,,,,masks/mask_003.jpg,,,,,,,,,,,,,,,,,,,,,,,,,,,,,,,,,,,,,,,,,,,0,1,1,2,1,,,,,,,,,,,,,,,,,,,,,,,,,,,,,,,,,,,,,,,,,,,,,,
377619,001,2022-11-20_23h58.20.098,Info_measure_main_exp,2022.2.2,MacIntel,60.0024001,,,,,,,,,,,,,,,,,,masks/mask_005.jpg,,,,,,,,,,,,,,,,,,,,,,,,,,,,,,,,,,,,,,,,,,,0,2,2,4,1,,,,,,,,,,,,,,,,,,,,,,,,,,,,,,,,,,,,,,,,,,,,,,
377619,001,2022-11-20_23h58.20.098,Info_measure_main_exp,2022.2.2,MacIntel,60.0024001,,,,,,,,,,,,,,,,,,masks/mask_002.jpg,,,,,,,,,,,,,,,,,,,,,,,,,,,,,,,,,,,,,,,,,,,0,3,3,1,1,,,,,,,,,,,,,,,,,,,,,,,,,,,,,,,,,,,,,,,,,,,,,,
377619,001,2022-11-20_23h58.20.098,Info_measure_main_exp,2022.2.2,MacIntel,60.0024001,,,,,,,,,,,,,,,,,,masks/mask_001.jpg,,,,,,,,,,,,,,,,,,,,,,,,,,,,,,,,,,,,,,,,,,,0,4,4,0,1,,,,,,,,,,,,,,,,,,,,,,,,,,,,,,,,,,,,,,,,,,,,,,
377619,001,2022-11-20_23h58.20.098,Info_measure_main_exp,2022.2.2,MacIntel,60.0024001,,,,,,,,,,,,,,,,,,masks/mask_005.jpg,,,,,,,,,,,,,,,,,,,,,,,,,,,,,,,,,,,,,,,,,,,,,,,,0,0,0,4,1,,,,,,,,,,,,,,,,,,,,,,,,,,,,,,,,,,,,,,,,,
377619,001,2022-11-20_23h58.20.098,Info_measure_main_exp,2022.2.2,MacIntel,60.0024001,,,,,,,,,,,,,,,,,,masks/mask_004.jpg,,,,,,,,,,,,,,,,,,,,,,,,,,,,,,,,,,,,,,,,,,,,,,,,0,1,1,3,1,,,,,,,,,,,,,,,,,,,,,,,,,,,,,,,,,,,,,,,,,
377619,001,2022-11-20_23h58.20.098,Info_measure_main_exp,2022.2.2,MacIntel,60.0024001,,,,,,,,,,,,,,,,,,masks/mask_003.jpg,,,,,,,,,,,,,,,,,,,,,,,,,,,,,,,,,,,,,,,,,,,,,,,,0,2,2,2,1,,,,,,,,,,,,,,,,,,,,,,,,,,,,,,,,,,,,,,,,,
377619,001,2022-11-20_23h58.20.098,Info_measure_main_exp,2022.2.2,MacIntel,60.0024001,,,,,,,,,,,,,,,,,,masks/mask_002.jpg,,,,,,,,,,,,,,,,,,,,,,,,,,,,,,,,,,,,,,,,,,,,,,,,0,3,3,1,1,,,,,,,,,,,,,,,,,,,,,,,,,,,,,,,,,,,,,,,,,
377619,001,2022-11-20_23h58.20.098,Info_measure_main_exp,2022.2.2,MacIntel,60.0024001,,,,,,,,,,,,,,,,,,masks/mask_001.jpg,,,,,,,,,,,,,,,,,,,,,,,,,,,,,,,,,,,,,,,,,,,,,,,,0,4,4,0,1,,,,,,,,,,,,,,,,,,,,,,,,,,,,,,,,,,,,,,,,,
377619,001,2022-11-20_23h58.20.098,Info_measure_main_exp,2022.2.2,MacIntel,60.0024001,,,,,,,,,,,,,,,,,,,,,,,,,,,,,,4,1.5993,1,,,,,,,,,,,,0,131,5,5,2298,2214,absent_patch/patch0002298.jpg,absent_patch/patch0002214.jpg,,,,,,,,,,,,,,,,,,,,0.027152778,-0.137834201,1,0,0,response3disk,12,-0.005512153,-0.003107639,1,0,0,center_square,0,11,11,99,1,,,,,,,,,,,,,,,,,,,,,,,
377619,001,2022-11-20_23h58.20.098,Info_measure_main_exp,2022.2.2,MacIntel,60.0024001,,,,,,,,,,,,,,,,,,masks/mask_005.jpg,,,,,,,,,,,,,,,,,,,,,,,,,,,,,,,,,,,,,,,,,,,0,0,0,4,1,,,,,,,,,,,,,,,,,,,,,,,,,,,,,,,,,,,,,,,,,,,,,,
377619,001,2022-11-20_23h58.20.098,Info_measure_main_exp,2022.2.2,MacIntel,60.0024001,,,,,,,,,,,,,,,,,,masks/mask_002.jpg,,,,,,,,,,,,,,,,,,,,,,,,,,,,,,,,,,,,,,,,,,,0,1,1,1,1,,,,,,,,,,,,,,,,,,,,,,,,,,,,,,,,,,,,,,,,,,,,,,
377619,001,2022-11-20_23h58.20.098,Info_measure_main_exp,2022.2.2,MacIntel,60.0024001,,,,,,,,,,,,,,,,,,masks/mask_001.jpg,,,,,,,,,,,,,,,,,,,,,,,,,,,,,,,,,,,,,,,,,,,0,2,2,0,1,,,,,,,,,,,,,,,,,,,,,,,,,,,,,,,,,,,,,,,,,,,,,,
377619,001,2022-11-20_23h58.20.098,Info_measure_main_exp,2022.2.2,MacIntel,60.0024001,,,,,,,,,,,,,,,,,,masks/mask_004.jpg,,,,,,,,,,,,,,,,,,,,,,,,,,,,,,,,,,,,,,,,,,,0,3,3,3,1,,,,,,,,,,,,,,,,,,,,,,,,,,,,,,,,,,,,,,,,,,,,,,
377619,001,2022-11-20_23h58.20.098,Info_measure_main_exp,2022.2.2,MacIntel,60.0024001,,,,,,,,,,,,,,,,,,masks/mask_003.jpg,,,,,,,,,,,,,,,,,,,,,,,,,,,,,,,,,,,,,,,,,,,0,4,4,2,1,,,,,,,,,,,,,,,,,,,,,,,,,,,,,,,,,,,,,,,,,,,,,,
377619,001,2022-11-20_23h58.20.098,Info_measure_main_exp,2022.2.2,MacIntel,60.0024001,,,,,,,,,,,,,,,,,,masks/mask_005.jpg,,,,,,,,,,,,,,,,,,,,,,,,,,,,,,,,,,,,,,,,,,,,,,,,0,0,0,4,1,,,,,,,,,,,,,,,,,,,,,,,,,,,,,,,,,,,,,,,,,
377619,001,2022-11-20_23h58.20.098,Info_measure_main_exp,2022.2.2,MacIntel,60.0024001,,,,,,,,,,,,,,,,,,masks/mask_004.jpg,,,,,,,,,,,,,,,,,,,,,,,,,,,,,,,,,,,,,,,,,,,,,,,,0,1,1,3,1,,,,,,,,,,,,,,,,,,,,,,,,,,,,,,,,,,,,,,,,,
377619,001,2022-11-20_23h58.20.098,Info_measure_main_exp,2022.2.2,MacIntel,60.0024001,,,,,,,,,,,,,,,,,,masks/mask_001.jpg,,,,,,,,,,,,,,,,,,,,,,,,,,,,,,,,,,,,,,,,,,,,,,,,0,2,2,0,1,,,,,,,,,,,,,,,,,,,,,,,,,,,,,,,,,,,,,,,,,
377619,001,2022-11-20_23h58.20.098,Info_measure_main_exp,2022.2.2,MacIntel,60.0024001,,,,,,,,,,,,,,,,,,masks/mask_003.jpg,,,,,,,,,,,,,,,,,,,,,,,,,,,,,,,,,,,,,,,,,,,,,,,,0,3,3,2,1,,,,,,,,,,,,,,,,,,,,,,,,,,,,,,,,,,,,,,,,,
377619,001,2022-11-20_23h58.20.098,Info_measure_main_exp,2022.2.2,MacIntel,60.0024001,,,,,,,,,,,,,,,,,,masks/mask_002.jpg,,,,,,,,,,,,,,,,,,,,,,,,,,,,,,,,,,,,,,,,,,,,,,,,0,4,4,1,1,,,,,,,,,,,,,,,,,,,,,,,,,,,,,,,,,,,,,,,,,
377619,001,2022-11-20_23h58.20.098,Info_measure_main_exp,2022.2.2,MacIntel,60.0024001,,,,,,,,,,,,,,,,,,,,,,,,,,,,,,0,0.8,1,,,,,,,,,,,,1,131,5,5,1,1,present_patch/cong_131_5_a.jpg,present_patch/cong_131_5_a.jpg,,,,,,,,,,,,,,,,,,,,-0.035920139,0.118164063,1,0,0,response7disk,13,0.004965278,-0.00719184,1,0,0,center_square,0,12,12,30,1,,,,,,,,,,,,,,,,,,,,,,,
377619,001,2022-11-20_23h58.20.098,Info_measure_main_exp,2022.2.2,MacIntel,60.0024001,,,,,,,,,,,,,,,,,,masks/mask_001.jpg,,,,,,,,,,,,,,,,,,,,,,,,,,,,,,,,,,,,,,,,,,,0,0,0,0,1,,,,,,,,,,,,,,,,,,,,,,,,,,,,,,,,,,,,,,,,,,,,,,
377619,001,2022-11-20_23h58.20.098,Info_measure_main_exp,2022.2.2,MacIntel,60.0024001,,,,,,,,,,,,,,,,,,masks/mask_003.jpg,,,,,,,,,,,,,,,,,,,,,,,,,,,,,,,,,,,,,,,,,,,0,1,1,2,1,,,,,,,,,,,,,,,,,,,,,,,,,,,,,,,,,,,,,,,,,,,,,,
377619,001,2022-11-20_23h58.20.098,Info_measure_main_exp,2022.2.2,MacIntel,60.0024001,,,,,,,,,,,,,,,,,,masks/mask_002.jpg,,,,,,,,,,,,,,,,,,,,,,,,,,,,,,,,,,,,,,,,,,,0,2,2,1,1,,,,,,,,,,,,,,,,,,,,,,,,,,,,,,,,,,,,,,,,,,,,,,
377619,001,2022-11-20_23h58.20.098,Info_measure_main_exp,2022.2.2,MacIntel,60.0024001,,,,,,,,,,,,,,,,,,masks/mask_004.jpg,,,,,,,,,,,,,,,,,,,,,,,,,,,,,,,,,,,,,,,,,,,0,3,3,3,1,,,,,,,,,,,,,,,,,,,,,,,,,,,,,,,,,,,,,,,,,,,,,,
377619,001,2022-11-20_23h58.20.098,Info_measure_main_exp,2022.2.2,MacIntel,60.0024001,,,,,,,,,,,,,,,,,,masks/mask_005.jpg,,,,,,,,,,,,,,,,,,,,,,,,,,,,,,,,,,,,,,,,,,,0,4,4,4,1,,,,,,,,,,,,,,,,,,,,,,,,,,,,,,,,,,,,,,,,,,,,,,
377619,001,2022-11-20_23h58.20.098,Info_measure_main_exp,2022.2.2,MacIntel,60.0024001,,,,,,,,,,,,,,,,,,masks/mask_002.jpg,,,,,,,,,,,,,,,,,,,,,,,,,,,,,,,,,,,,,,,,,,,,,,,,0,0,0,1,1,,,,,,,,,,,,,,,,,,,,,,,,,,,,,,,,,,,,,,,,,
377619,001,2022-11-20_23h58.20.098,Info_measure_main_exp,2022.2.2,MacIntel,60.0024001,,,,,,,,,,,,,,,,,,masks/mask_005.jpg,,,,,,,,,,,,,,,,,,,,,,,,,,,,,,,,,,,,,,,,,,,,,,,,0,1,1,4,1,,,,,,,,,,,,,,,,,,,,,,,,,,,,,,,,,,,,,,,,,
377619,001,2022-11-20_23h58.20.098,Info_measure_main_exp,2022.2.2,MacIntel,60.0024001,,,,,,,,,,,,,,,,,,masks/mask_004.jpg,,,,,,,,,,,,,,,,,,,,,,,,,,,,,,,,,,,,,,,,,,,,,,,,0,2,2,3,1,,,,,,,,,,,,,,,,,,,,,,,,,,,,,,,,,,,,,,,,,
377619,001,2022-11-20_23h58.20.098,Info_measure_main_exp,2022.2.2,MacIntel,60.0024001,,,,,,,,,,,,,,,,,,masks/mask_001.jpg,,,,,,,,,,,,,,,,,,,,,,,,,,,,,,,,,,,,,,,,,,,,,,,,0,3,3,0,1,,,,,,,,,,,,,,,,,,,,,,,,,,,,,,,,,,,,,,,,,
377619,001,2022-11-20_23h58.20.098,Info_measure_main_exp,2022.2.2,MacIntel,60.0024001,,,,,,,,,,,,,,,,,,masks/mask_003.jpg,,,,,,,,,,,,,,,,,,,,,,,,,,,,,,,,,,,,,,,,,,,,,,,,0,4,4,2,1,,,,,,,,,,,,,,,,,,,,,,,,,,,,,,,,,,,,,,,,,
377619,001,2022-11-20_23h58.20.098,Info_measure_main_exp,2022.2.2,MacIntel,60.0024001,,,,,,,,,,,,,,,,,,,,,,,,,,,,,,6,1.9834,1,,,,,,,,,,,,0,131,5,5,1986,1974,absent_patch/patch0001986.jpg,absent_patch/patch0001974.jpg,,,,,,,,,,,,,,,,,,,,0.180334201,0.078315972,1,0,0,response1disk,14,0.000577257,-0.007439236,1,0,0,center_square,0,13,13,25,1,,,,,,,,,,,,,,,,,,,,,,,
377619,001,2022-11-20_23h58.20.098,Info_measure_main_exp,2022.2.2,MacIntel,60.0024001,,,,,,,,,,,,,,,,,,masks/mask_005.jpg,,,,,,,,,,,,,,,,,,,,,,,,,,,,,,,,,,,,,,,,,,,0,0,0,4,1,,,,,,,,,,,,,,,,,,,,,,,,,,,,,,,,,,,,,,,,,,,,,,
377619,001,2022-11-20_23h58.20.098,Info_measure_main_exp,2022.2.2,MacIntel,60.0024001,,,,,,,,,,,,,,,,,,masks/mask_001.jpg,,,,,,,,,,,,,,,,,,,,,,,,,,,,,,,,,,,,,,,,,,,0,1,1,0,1,,,,,,,,,,,,,,,,,,,,,,,,,,,,,,,,,,,,,,,,,,,,,,
377619,001,2022-11-20_23h58.20.098,Info_measure_main_exp,2022.2.2,MacIntel,60.0024001,,,,,,,,,,,,,,,,,,masks/mask_003.jpg,,,,,,,,,,,,,,,,,,,,,,,,,,,,,,,,,,,,,,,,,,,0,2,2,2,1,,,,,,,,,,,,,,,,,,,,,,,,,,,,,,,,,,,,,,,,,,,,,,
377619,001,2022-11-20_23h58.20.098,Info_measure_main_exp,2022.2.2,MacIntel,60.0024001,,,,,,,,,,,,,,,,,,masks/mask_004.jpg,,,,,,,,,,,,,,,,,,,,,,,,,,,,,,,,,,,,,,,,,,,0,3,3,3,1,,,,,,,,,,,,,,,,,,,,,,,,,,,,,,,,,,,,,,,,,,,,,,
377619,001,2022-11-20_23h58.20.098,Info_measure_main_exp,2022.2.2,MacIntel,60.0024001,,,,,,,,,,,,,,,,,,masks/mask_002.jpg,,,,,,,,,,,,,,,,,,,,,,,,,,,,,,,,,,,,,,,,,,,0,4,4,1,1,,,,,,,,,,,,,,,,,,,,,,,,,,,,,,,,,,,,,,,,,,,,,,
377619,001,2022-11-20_23h58.20.098,Info_measure_main_exp,2022.2.2,MacIntel,60.0024001,,,,,,,,,,,,,,,,,,masks/mask_003.jpg,,,,,,,,,,,,,,,,,,,,,,,,,,,,,,,,,,,,,,,,,,,,,,,,0,0,0,2,1,,,,,,,,,,,,,,,,,,,,,,,,,,,,,,,,,,,,,,,,,
377619,001,2022-11-20_23h58.20.098,Info_measure_main_exp,2022.2.2,MacIntel,60.0024001,,,,,,,,,,,,,,,,,,masks/mask_004.jpg,,,,,,,,,,,,,,,,,,,,,,,,,,,,,,,,,,,,,,,,,,,,,,,,0,1,1,3,1,,,,,,,,,,,,,,,,,,,,,,,,,,,,,,,,,,,,,,,,,
377619,001,2022-11-20_23h58.20.098,Info_measure_main_exp,2022.2.2,MacIntel,60.0024001,,,,,,,,,,,,,,,,,,masks/mask_002.jpg,,,,,,,,,,,,,,,,,,,,,,,,,,,,,,,,,,,,,,,,,,,,,,,,0,2,2,1,1,,,,,,,,,,,,,,,,,,,,,,,,,,,,,,,,,,,,,,,,,
377619,001,2022-11-20_23h58.20.098,Info_measure_main_exp,2022.2.2,MacIntel,60.0024001,,,,,,,,,,,,,,,,,,masks/mask_005.jpg,,,,,,,,,,,,,,,,,,,,,,,,,,,,,,,,,,,,,,,,,,,,,,,,0,3,3,4,1,,,,,,,,,,,,,,,,,,,,,,,,,,,,,,,,,,,,,,,,,
377619,001,2022-11-20_23h58.20.098,Info_measure_main_exp,2022.2.2,MacIntel,60.0024001,,,,,,,,,,,,,,,,,,masks/mask_001.jpg,,,,,,,,,,,,,,,,,,,,,,,,,,,,,,,,,,,,,,,,,,,,,,,,0,4,4,0,1,,,,,,,,,,,,,,,,,,,,,,,,,,,,,,,,,,,,,,,,,
377619,001,2022-11-20_23h58.20.098,Info_measure_main_exp,2022.2.2,MacIntel,60.0024001,,,,,,,,,,,,,,,,,,,,,,,,,,,,,,5,1.2668,1,,,,,,,,,,,,0,131,5,5,2142,2154,absent_patch/patch0002142.jpg,absent_patch/patch0002154.jpg,,,,,,,,,,,,,,,,,,,,0.143780382,-0.057899306,1,0,0,response3disk,15,-0.006236979,-0.002278646,1,0,0,center_square,0,14,14,9,1,,,,,,,,,,,,,,,,,,,,,,,
377619,001,2022-11-20_23h58.20.098,Info_measure_main_exp,2022.2.2,MacIntel,60.0024001,,,,,,,,,,,,,,,,,,masks/mask_003.jpg,,,,,,,,,,,,,,,,,,,,,,,,,,,,,,,,,,,,,,,,,,,0,0,0,2,1,,,,,,,,,,,,,,,,,,,,,,,,,,,,,,,,,,,,,,,,,,,,,,
377619,001,2022-11-20_23h58.20.098,Info_measure_main_exp,2022.2.2,MacIntel,60.0024001,,,,,,,,,,,,,,,,,,masks/mask_005.jpg,,,,,,,,,,,,,,,,,,,,,,,,,,,,,,,,,,,,,,,,,,,0,1,1,4,1,,,,,,,,,,,,,,,,,,,,,,,,,,,,,,,,,,,,,,,,,,,,,,
377619,001,2022-11-20_23h58.20.098,Info_measure_main_exp,2022.2.2,MacIntel,60.0024001,,,,,,,,,,,,,,,,,,masks/mask_004.jpg,,,,,,,,,,,,,,,,,,,,,,,,,,,,,,,,,,,,,,,,,,,0,2,2,3,1,,,,,,,,,,,,,,,,,,,,,,,,,,,,,,,,,,,,,,,,,,,,,,
377619,001,2022-11-20_23h58.20.098,Info_measure_main_exp,2022.2.2,MacIntel,60.0024001,,,,,,,,,,,,,,,,,,masks/mask_001.jpg,,,,,,,,,,,,,,,,,,,,,,,,,,,,,,,,,,,,,,,,,,,0,3,3,0,1,,,,,,,,,,,,,,,,,,,,,,,,,,,,,,,,,,,,,,,,,,,,,,
377619,001,2022-11-20_23h58.20.098,Info_measure_main_exp,2022.2.2,MacIntel,60.0024001,,,,,,,,,,,,,,,,,,masks/mask_002.jpg,,,,,,,,,,,,,,,,,,,,,,,,,,,,,,,,,,,,,,,,,,,0,4,4,1,1,,,,,,,,,,,,,,,,,,,,,,,,,,,,,,,,,,,,,,,,,,,,,,
377619,001,2022-11-20_23h58.20.098,Info_measure_main_exp,2022.2.2,MacIntel,60.0024001,,,,,,,,,,,,,,,,,,masks/mask_001.jpg,,,,,,,,,,,,,,,,,,,,,,,,,,,,,,,,,,,,,,,,,,,,,,,,0,0,0,0,1,,,,,,,,,,,,,,,,,,,,,,,,,,,,,,,,,,,,,,,,,
377619,001,2022-11-20_23h58.20.098,Info_measure_main_exp,2022.2.2,MacIntel,60.0024001,,,,,,,,,,,,,,,,,,masks/mask_002.jpg,,,,,,,,,,,,,,,,,,,,,,,,,,,,,,,,,,,,,,,,,,,,,,,,0,1,1,1,1,,,,,,,,,,,,,,,,,,,,,,,,,,,,,,,,,,,,,,,,,
377619,001,2022-11-20_23h58.20.098,Info_measure_main_exp,2022.2.2,MacIntel,60.0024001,,,,,,,,,,,,,,,,,,masks/mask_003.jpg,,,,,,,,,,,,,,,,,,,,,,,,,,,,,,,,,,,,,,,,,,,,,,,,0,2,2,2,1,,,,,,,,,,,,,,,,,,,,,,,,,,,,,,,,,,,,,,,,,
377619,001,2022-11-20_23h58.20.098,Info_measure_main_exp,2022.2.2,MacIntel,60.0024001,,,,,,,,,,,,,,,,,,masks/mask_005.jpg,,,,,,,,,,,,,,,,,,,,,,,,,,,,,,,,,,,,,,,,,,,,,,,,0,3,3,4,1,,,,,,,,,,,,,,,,,,,,,,,,,,,,,,,,,,,,,,,,,
377619,001,2022-11-20_23h58.20.098,Info_measure_main_exp,2022.2.2,MacIntel,60.0024001,,,,,,,,,,,,,,,,,,masks/mask_004.jpg,,,,,,,,,,,,,,,,,,,,,,,,,,,,,,,,,,,,,,,,,,,,,,,,0,4,4,3,1,,,,,,,,,,,,,,,,,,,,,,,,,,,,,,,,,,,,,,,,,
377619,001,2022-11-20_23h58.20.098,Info_measure_main_exp,2022.2.2,MacIntel,60.0024001,,,,,,,,,,,,,,,,,,,,,,,,,,,,,,2,0.9168,1,,,,,,,,,,,,0,131,5,5,2274,2166,absent_patch/patch0002274.jpg,absent_patch/patch0002166.jpg,,,,,,,,,,,,,,,,,,,,-0.165251736,-0.025203993,1,0,0,response5disk,16,-0.000329861,-0.002825521,1,0,0,center_square,0,15,15,78,1,,,,,,,,,,,,,,,,,,,,,,,
377619,001,2022-11-20_23h58.20.098,Info_measure_main_exp,2022.2.2,MacIntel,60.0024001,,,,,,,,,,,,,,,,,,masks/mask_005.jpg,,,,,,,,,,,,,,,,,,,,,,,,,,,,,,,,,,,,,,,,,,,0,0,0,4,1,,,,,,,,,,,,,,,,,,,,,,,,,,,,,,,,,,,,,,,,,,,,,,
377619,001,2022-11-20_23h58.20.098,Info_measure_main_exp,2022.2.2,MacIntel,60.0024001,,,,,,,,,,,,,,,,,,masks/mask_001.jpg,,,,,,,,,,,,,,,,,,,,,,,,,,,,,,,,,,,,,,,,,,,0,1,1,0,1,,,,,,,,,,,,,,,,,,,,,,,,,,,,,,,,,,,,,,,,,,,,,,
377619,001,2022-11-20_23h58.20.098,Info_measure_main_exp,2022.2.2,MacIntel,60.0024001,,,,,,,,,,,,,,,,,,masks/mask_004.jpg,,,,,,,,,,,,,,,,,,,,,,,,,,,,,,,,,,,,,,,,,,,0,2,2,3,1,,,,,,,,,,,,,,,,,,,,,,,,,,,,,,,,,,,,,,,,,,,,,,
377619,001,2022-11-20_23h58.20.098,Info_measure_main_exp,2022.2.2,MacIntel,60.0024001,,,,,,,,,,,,,,,,,,masks/mask_003.jpg,,,,,,,,,,,,,,,,,,,,,,,,,,,,,,,,,,,,,,,,,,,0,3,3,2,1,,,,,,,,,,,,,,,,,,,,,,,,,,,,,,,,,,,,,,,,,,,,,,
377619,001,2022-11-20_23h58.20.098,Info_measure_main_exp,2022.2.2,MacIntel,60.0024001,,,,,,,,,,,,,,,,,,masks/mask_002.jpg,,,,,,,,,,,,,,,,,,,,,,,,,,,,,,,,,,,,,,,,,,,0,4,4,1,1,,,,,,,,,,,,,,,,,,,,,,,,,,,,,,,,,,,,,,,,,,,,,,
377619,001,2022-11-20_23h58.20.098,Info_measure_main_exp,2022.2.2,MacIntel,60.0024001,,,,,,,,,,,,,,,,,,masks/mask_002.jpg,,,,,,,,,,,,,,,,,,,,,,,,,,,,,,,,,,,,,,,,,,,,,,,,0,0,0,1,1,,,,,,,,,,,,,,,,,,,,,,,,,,,,,,,,,,,,,,,,,
377619,001,2022-11-20_23h58.20.098,Info_measure_main_exp,2022.2.2,MacIntel,60.0024001,,,,,,,,,,,,,,,,,,masks/mask_004.jpg,,,,,,,,,,,,,,,,,,,,,,,,,,,,,,,,,,,,,,,,,,,,,,,,0,1,1,3,1,,,,,,,,,,,,,,,,,,,,,,,,,,,,,,,,,,,,,,,,,
377619,001,2022-11-20_23h58.20.098,Info_measure_main_exp,2022.2.2,MacIntel,60.0024001,,,,,,,,,,,,,,,,,,masks/mask_001.jpg,,,,,,,,,,,,,,,,,,,,,,,,,,,,,,,,,,,,,,,,,,,,,,,,0,2,2,0,1,,,,,,,,,,,,,,,,,,,,,,,,,,,,,,,,,,,,,,,,,
377619,001,2022-11-20_23h58.20.098,Info_measure_main_exp,2022.2.2,MacIntel,60.0024001,,,,,,,,,,,,,,,,,,masks/mask_005.jpg,,,,,,,,,,,,,,,,,,,,,,,,,,,,,,,,,,,,,,,,,,,,,,,,0,3,3,4,1,,,,,,,,,,,,,,,,,,,,,,,,,,,,,,,,,,,,,,,,,
377619,001,2022-11-20_23h58.20.098,Info_measure_main_exp,2022.2.2,MacIntel,60.0024001,,,,,,,,,,,,,,,,,,masks/mask_003.jpg,,,,,,,,,,,,,,,,,,,,,,,,,,,,,,,,,,,,,,,,,,,,,,,,0,4,4,2,1,,,,,,,,,,,,,,,,,,,,,,,,,,,,,,,,,,,,,,,,,
377619,001,2022-11-20_23h58.20.098,Info_measure_main_exp,2022.2.2,MacIntel,60.0024001,,,,,,,,,,,,,,,,,,,,,,,,,,,,,,3,1.8832,1,,,,,,,,,,,,0,131,5,5,1974,2178,absent_patch/patch0001974.jpg,absent_patch/patch0002178.jpg,,,,,,,,,,,,,,,,,,,,-0.053732639,-0.153897569,1,0,0,response5disk,17,0.005403646,0.005130208,1,0,0,center_square,0,16,16,44,1,,,,,,,,,,,,,,,,,,,,,,,
377619,001,2022-11-20_23h58.20.098,Info_measure_main_exp,2022.2.2,MacIntel,60.0024001,,,,,,,,,,,,,,,,,,masks/mask_002.jpg,,,,,,,,,,,,,,,,,,,,,,,,,,,,,,,,,,,,,,,,,,,0,0,0,1,1,,,,,,,,,,,,,,,,,,,,,,,,,,,,,,,,,,,,,,,,,,,,,,
377619,001,2022-11-20_23h58.20.098,Info_measure_main_exp,2022.2.2,MacIntel,60.0024001,,,,,,,,,,,,,,,,,,masks/mask_004.jpg,,,,,,,,,,,,,,,,,,,,,,,,,,,,,,,,,,,,,,,,,,,0,1,1,3,1,,,,,,,,,,,,,,,,,,,,,,,,,,,,,,,,,,,,,,,,,,,,,,
377619,001,2022-11-20_23h58.20.098,Info_measure_main_exp,2022.2.2,MacIntel,60.0024001,,,,,,,,,,,,,,,,,,masks/mask_001.jpg,,,,,,,,,,,,,,,,,,,,,,,,,,,,,,,,,,,,,,,,,,,0,2,2,0,1,,,,,,,,,,,,,,,,,,,,,,,,,,,,,,,,,,,,,,,,,,,,,,
377619,001,2022-11-20_23h58.20.098,Info_measure_main_exp,2022.2.2,MacIntel,60.0024001,,,,,,,,,,,,,,,,,,masks/mask_003.jpg,,,,,,,,,,,,,,,,,,,,,,,,,,,,,,,,,,,,,,,,,,,0,3,3,2,1,,,,,,,,,,,,,,,,,,,,,,,,,,,,,,,,,,,,,,,,,,,,,,
377619,001,2022-11-20_23h58.20.098,Info_measure_main_exp,2022.2.2,MacIntel,60.0024001,,,,,,,,,,,,,,,,,,masks/mask_005.jpg,,,,,,,,,,,,,,,,,,,,,,,,,,,,,,,,,,,,,,,,,,,0,4,4,4,1,,,,,,,,,,,,,,,,,,,,,,,,,,,,,,,,,,,,,,,,,,,,,,
377619,001,2022-11-20_23h58.20.098,Info_measure_main_exp,2022.2.2,MacIntel,60.0024001,,,,,,,,,,,,,,,,,,masks/mask_003.jpg,,,,,,,,,,,,,,,,,,,,,,,,,,,,,,,,,,,,,,,,,,,,,,,,0,0,0,2,1,,,,,,,,,,,,,,,,,,,,,,,,,,,,,,,,,,,,,,,,,
377619,001,2022-11-20_23h58.20.098,Info_measure_main_exp,2022.2.2,MacIntel,60.0024001,,,,,,,,,,,,,,,,,,masks/mask_005.jpg,,,,,,,,,,,,,,,,,,,,,,,,,,,,,,,,,,,,,,,,,,,,,,,,0,1,1,4,1,,,,,,,,,,,,,,,,,,,,,,,,,,,,,,,,,,,,,,,,,
377619,001,2022-11-20_23h58.20.098,Info_measure_main_exp,2022.2.2,MacIntel,60.0024001,,,,,,,,,,,,,,,,,,masks/mask_004.jpg,,,,,,,,,,,,,,,,,,,,,,,,,,,,,,,,,,,,,,,,,,,,,,,,0,2,2,3,1,,,,,,,,,,,,,,,,,,,,,,,,,,,,,,,,,,,,,,,,,
377619,001,2022-11-20_23h58.20.098,Info_measure_main_exp,2022.2.2,MacIntel,60.0024001,,,,,,,,,,,,,,,,,,masks/mask_002.jpg,,,,,,,,,,,,,,,,,,,,,,,,,,,,,,,,,,,,,,,,,,,,,,,,0,3,3,1,1,,,,,,,,,,,,,,,,,,,,,,,,,,,,,,,,,,,,,,,,,
377619,001,2022-11-20_23h58.20.098,Info_measure_main_exp,2022.2.2,MacIntel,60.0024001,,,,,,,,,,,,,,,,,,masks/mask_001.jpg,,,,,,,,,,,,,,,,,,,,,,,,,,,,,,,,,,,,,,,,,,,,,,,,0,4,4,0,1,,,,,,,,,,,,,,,,,,,,,,,,,,,,,,,,,,,,,,,,,
377619,001,2022-11-20_23h58.20.098,Info_measure_main_exp,2022.2.2,MacIntel,60.0024001,,,,,,,,,,,,,,,,,,,,,,,,,,,,,,6,2.7832,1,,,,,,,,,,,,0,131,5,5,2238,2298,absent_patch/patch0002238.jpg,absent_patch/patch0002298.jpg,,,,,,,,,,,,,,,,,,,,0.143016493,0.062938368,1,0,0,response1disk,18,0.002304687,-0.005052083,1,0,0,center_square,0,17,17,51,1,,,,,,,,,,,,,,,,,,,,,,,
377619,001,2022-11-20_23h58.20.098,Info_measure_main_exp,2022.2.2,MacIntel,60.0024001,,,,,,,,,,,,,,,,,,masks/mask_004.jpg,,,,,,,,,,,,,,,,,,,,,,,,,,,,,,,,,,,,,,,,,,,0,0,0,3,1,,,,,,,,,,,,,,,,,,,,,,,,,,,,,,,,,,,,,,,,,,,,,,
377619,001,2022-11-20_23h58.20.098,Info_measure_main_exp,2022.2.2,MacIntel,60.0024001,,,,,,,,,,,,,,,,,,masks/mask_003.jpg,,,,,,,,,,,,,,,,,,,,,,,,,,,,,,,,,,,,,,,,,,,0,1,1,2,1,,,,,,,,,,,,,,,,,,,,,,,,,,,,,,,,,,,,,,,,,,,,,,
377619,001,2022-11-20_23h58.20.098,Info_measure_main_exp,2022.2.2,MacIntel,60.0024001,,,,,,,,,,,,,,,,,,masks/mask_001.jpg,,,,,,,,,,,,,,,,,,,,,,,,,,,,,,,,,,,,,,,,,,,0,2,2,0,1,,,,,,,,,,,,,,,,,,,,,,,,,,,,,,,,,,,,,,,,,,,,,,
377619,001,2022-11-20_23h58.20.098,Info_measure_main_exp,2022.2.2,MacIntel,60.0024001,,,,,,,,,,,,,,,,,,masks/mask_002.jpg,,,,,,,,,,,,,,,,,,,,,,,,,,,,,,,,,,,,,,,,,,,0,3,3,1,1,,,,,,,,,,,,,,,,,,,,,,,,,,,,,,,,,,,,,,,,,,,,,,
377619,001,2022-11-20_23h58.20.098,Info_measure_main_exp,2022.2.2,MacIntel,60.0024001,,,,,,,,,,,,,,,,,,masks/mask_005.jpg,,,,,,,,,,,,,,,,,,,,,,,,,,,,,,,,,,,,,,,,,,,0,4,4,4,1,,,,,,,,,,,,,,,,,,,,,,,,,,,,,,,,,,,,,,,,,,,,,,
377619,001,2022-11-20_23h58.20.098,Info_measure_main_exp,2022.2.2,MacIntel,60.0024001,,,,,,,,,,,,,,,,,,masks/mask_001.jpg,,,,,,,,,,,,,,,,,,,,,,,,,,,,,,,,,,,,,,,,,,,,,,,,0,0,0,0,1,,,,,,,,,,,,,,,,,,,,,,,,,,,,,,,,,,,,,,,,,
377619,001,2022-11-20_23h58.20.098,Info_measure_main_exp,2022.2.2,MacIntel,60.0024001,,,,,,,,,,,,,,,,,,masks/mask_005.jpg,,,,,,,,,,,,,,,,,,,,,,,,,,,,,,,,,,,,,,,,,,,,,,,,0,1,1,4,1,,,,,,,,,,,,,,,,,,,,,,,,,,,,,,,,,,,,,,,,,
377619,001,2022-11-20_23h58.20.098,Info_measure_main_exp,2022.2.2,MacIntel,60.0024001,,,,,,,,,,,,,,,,,,masks/mask_003.jpg,,,,,,,,,,,,,,,,,,,,,,,,,,,,,,,,,,,,,,,,,,,,,,,,0,2,2,2,1,,,,,,,,,,,,,,,,,,,,,,,,,,,,,,,,,,,,,,,,,
377619,001,2022-11-20_23h58.20.098,Info_measure_main_exp,2022.2.2,MacIntel,60.0024001,,,,,,,,,,,,,,,,,,masks/mask_004.jpg,,,,,,,,,,,,,,,,,,,,,,,,,,,,,,,,,,,,,,,,,,,,,,,,0,3,3,3,1,,,,,,,,,,,,,,,,,,,,,,,,,,,,,,,,,,,,,,,,,
377619,001,2022-11-20_23h58.20.098,Info_measure_main_exp,2022.2.2,MacIntel,60.0024001,,,,,,,,,,,,,,,,,,masks/mask_002.jpg,,,,,,,,,,,,,,,,,,,,,,,,,,,,,,,,,,,,,,,,,,,,,,,,0,4,4,1,1,,,,,,,,,,,,,,,,,,,,,,,,,,,,,,,,,,,,,,,,,
377619,001,2022-11-20_23h58.20.098,Info_measure_main_exp,2022.2.2,MacIntel,60.0024001,,,,,,,,,,,,,,,,,,,,,,,,,,,,,,3,1.7833,1,,,,,,,,,,,,0,131,5,5,2298,2142,absent_patch/patch0002298.jpg,absent_patch/patch0002142.jpg,,,,,,,,,,,,,,,,,,,,-0.024587674,-0.13203125,1,0,0,response5disk,19,-0.000633681,-6.51042E-05,1,0,0,center_square,0,18,18,49,1,,,,,,,,,,,,,,,,,,,,,,,
377619,001,2022-11-20_23h58.20.098,Info_measure_main_exp,2022.2.2,MacIntel,60.0024001,,,,,,,,,,,,,,,,,,masks/mask_004.jpg,,,,,,,,,,,,,,,,,,,,,,,,,,,,,,,,,,,,,,,,,,,0,0,0,3,1,,,,,,,,,,,,,,,,,,,,,,,,,,,,,,,,,,,,,,,,,,,,,,
377619,001,2022-11-20_23h58.20.098,Info_measure_main_exp,2022.2.2,MacIntel,60.0024001,,,,,,,,,,,,,,,,,,masks/mask_003.jpg,,,,,,,,,,,,,,,,,,,,,,,,,,,,,,,,,,,,,,,,,,,0,1,1,2,1,,,,,,,,,,,,,,,,,,,,,,,,,,,,,,,,,,,,,,,,,,,,,,
377619,001,2022-11-20_23h58.20.098,Info_measure_main_exp,2022.2.2,MacIntel,60.0024001,,,,,,,,,,,,,,,,,,masks/mask_002.jpg,,,,,,,,,,,,,,,,,,,,,,,,,,,,,,,,,,,,,,,,,,,0,2,2,1,1,,,,,,,,,,,,,,,,,,,,,,,,,,,,,,,,,,,,,,,,,,,,,,
377619,001,2022-11-20_23h58.20.098,Info_measure_main_exp,2022.2.2,MacIntel,60.0024001,,,,,,,,,,,,,,,,,,masks/mask_005.jpg,,,,,,,,,,,,,,,,,,,,,,,,,,,,,,,,,,,,,,,,,,,0,3,3,4,1,,,,,,,,,,,,,,,,,,,,,,,,,,,,,,,,,,,,,,,,,,,,,,
377619,001,2022-11-20_23h58.20.098,Info_measure_main_exp,2022.2.2,MacIntel,60.0024001,,,,,,,,,,,,,,,,,,masks/mask_001.jpg,,,,,,,,,,,,,,,,,,,,,,,,,,,,,,,,,,,,,,,,,,,0,4,4,0,1,,,,,,,,,,,,,,,,,,,,,,,,,,,,,,,,,,,,,,,,,,,,,,
377619,001,2022-11-20_23h58.20.098,Info_measure_main_exp,2022.2.2,MacIntel,60.0024001,,,,,,,,,,,,,,,,,,masks/mask_005.jpg,,,,,,,,,,,,,,,,,,,,,,,,,,,,,,,,,,,,,,,,,,,,,,,,0,0,0,4,1,,,,,,,,,,,,,,,,,,,,,,,,,,,,,,,,,,,,,,,,,
377619,001,2022-11-20_23h58.20.098,Info_measure_main_exp,2022.2.2,MacIntel,60.0024001,,,,,,,,,,,,,,,,,,masks/mask_004.jpg,,,,,,,,,,,,,,,,,,,,,,,,,,,,,,,,,,,,,,,,,,,,,,,,0,1,1,3,1,,,,,,,,,,,,,,,,,,,,,,,,,,,,,,,,,,,,,,,,,
377619,001,2022-11-20_23h58.20.098,Info_measure_main_exp,2022.2.2,MacIntel,60.0024001,,,,,,,,,,,,,,,,,,masks/mask_001.jpg,,,,,,,,,,,,,,,,,,,,,,,,,,,,,,,,,,,,,,,,,,,,,,,,0,2,2,0,1,,,,,,,,,,,,,,,,,,,,,,,,,,,,,,,,,,,,,,,,,
377619,001,2022-11-20_23h58.20.098,Info_measure_main_exp,2022.2.2,MacIntel,60.0024001,,,,,,,,,,,,,,,,,,masks/mask_002.jpg,,,,,,,,,,,,,,,,,,,,,,,,,,,,,,,,,,,,,,,,,,,,,,,,0,3,3,1,1,,,,,,,,,,,,,,,,,,,,,,,,,,,,,,,,,,,,,,,,,
377619,001,2022-11-20_23h58.20.098,Info_measure_main_exp,2022.2.2,MacIntel,60.0024001,,,,,,,,,,,,,,,,,,masks/mask_003.jpg,,,,,,,,,,,,,,,,,,,,,,,,,,,,,,,,,,,,,,,,,,,,,,,,0,4,4,2,1,,,,,,,,,,,,,,,,,,,,,,,,,,,,,,,,,,,,,,,,,
377619,001,2022-11-20_23h58.20.098,Info_measure_main_exp,2022.2.2,MacIntel,60.0024001,,,,,,,,,,,,,,,,,,,,,,,,,,,,,,2,1.7825,1,,,,,,,,,,,,0,131,5,5,1974,1950,absent_patch/patch0001974.jpg,absent_patch/patch0001950.jpg,,,,,,,,,,,,,,,,,,,,-0.134253472,-0.060177951,1,0,0,response5disk,20,-0.002152778,0.007256944,1,0,0,center_square,0,19,19,17,1,,,,,,,,,,,,,,,,,,,,,,,
377619,001,2022-11-20_23h58.20.098,Info_measure_main_exp,2022.2.2,MacIntel,60.0024001,,,,,,,,,,,,,,,,,,masks/mask_001.jpg,,,,,,,,,,,,,,,,,,,,,,,,,,,,,,,,,,,,,,,,,,,0,0,0,0,1,,,,,,,,,,,,,,,,,,,,,,,,,,,,,,,,,,,,,,,,,,,,,,
377619,001,2022-11-20_23h58.20.098,Info_measure_main_exp,2022.2.2,MacIntel,60.0024001,,,,,,,,,,,,,,,,,,masks/mask_005.jpg,,,,,,,,,,,,,,,,,,,,,,,,,,,,,,,,,,,,,,,,,,,0,1,1,4,1,,,,,,,,,,,,,,,,,,,,,,,,,,,,,,,,,,,,,,,,,,,,,,
377619,001,2022-11-20_23h58.20.098,Info_measure_main_exp,2022.2.2,MacIntel,60.0024001,,,,,,,,,,,,,,,,,,masks/mask_002.jpg,,,,,,,,,,,,,,,,,,,,,,,,,,,,,,,,,,,,,,,,,,,0,2,2,1,1,,,,,,,,,,,,,,,,,,,,,,,,,,,,,,,,,,,,,,,,,,,,,,
377619,001,2022-11-20_23h58.20.098,Info_measure_main_exp,2022.2.2,MacIntel,60.0024001,,,,,,,,,,,,,,,,,,masks/mask_004.jpg,,,,,,,,,,,,,,,,,,,,,,,,,,,,,,,,,,,,,,,,,,,0,3,3,3,1,,,,,,,,,,,,,,,,,,,,,,,,,,,,,,,,,,,,,,,,,,,,,,
377619,001,2022-11-20_23h58.20.098,Info_measure_main_exp,2022.2.2,MacIntel,60.0024001,,,,,,,,,,,,,,,,,,masks/mask_003.jpg,,,,,,,,,,,,,,,,,,,,,,,,,,,,,,,,,,,,,,,,,,,0,4,4,2,1,,,,,,,,,,,,,,,,,,,,,,,,,,,,,,,,,,,,,,,,,,,,,,
377619,001,2022-11-20_23h58.20.098,Info_measure_main_exp,2022.2.2,MacIntel,60.0024001,,,,,,,,,,,,,,,,,,masks/mask_002.jpg,,,,,,,,,,,,,,,,,,,,,,,,,,,,,,,,,,,,,,,,,,,,,,,,0,0,0,1,1,,,,,,,,,,,,,,,,,,,,,,,,,,,,,,,,,,,,,,,,,
377619,001,2022-11-20_23h58.20.098,Info_measure_main_exp,2022.2.2,MacIntel,60.0024001,,,,,,,,,,,,,,,,,,masks/mask_005.jpg,,,,,,,,,,,,,,,,,,,,,,,,,,,,,,,,,,,,,,,,,,,,,,,,0,1,1,4,1,,,,,,,,,,,,,,,,,,,,,,,,,,,,,,,,,,,,,,,,,
377619,001,2022-11-20_23h58.20.098,Info_measure_main_exp,2022.2.2,MacIntel,60.0024001,,,,,,,,,,,,,,,,,,masks/mask_003.jpg,,,,,,,,,,,,,,,,,,,,,,,,,,,,,,,,,,,,,,,,,,,,,,,,0,2,2,2,1,,,,,,,,,,,,,,,,,,,,,,,,,,,,,,,,,,,,,,,,,
377619,001,2022-11-20_23h58.20.098,Info_measure_main_exp,2022.2.2,MacIntel,60.0024001,,,,,,,,,,,,,,,,,,masks/mask_004.jpg,,,,,,,,,,,,,,,,,,,,,,,,,,,,,,,,,,,,,,,,,,,,,,,,0,3,3,3,1,,,,,,,,,,,,,,,,,,,,,,,,,,,,,,,,,,,,,,,,,
377619,001,2022-11-20_23h58.20.098,Info_measure_main_exp,2022.2.2,MacIntel,60.0024001,,,,,,,,,,,,,,,,,,masks/mask_001.jpg,,,,,,,,,,,,,,,,,,,,,,,,,,,,,,,,,,,,,,,,,,,,,,,,0,4,4,0,1,,,,,,,,,,,,,,,,,,,,,,,,,,,,,,,,,,,,,,,,,
377619,001,2022-11-20_23h58.20.098,Info_measure_main_exp,2022.2.2,MacIntel,60.0024001,,,,,,,,,,,,,,,,,,,,,,,,,,,,,,4,1.7162,1,,,,,,,,,,,,0,131,5,5,2082,2250,absent_patch/patch0002082.jpg,absent_patch/patch0002250.jpg,,,,,,,,,,,,,,,,,,,,0.064908854,-0.129865451,1,0,0,response3disk,21,-0.000438368,-0.011371528,1,0,0,center_square,0,20,20,3,1,,,,,,,,,,,,,,,,,,,,,,,
377619,001,2022-11-20_23h58.20.098,Info_measure_main_exp,2022.2.2,MacIntel,60.0024001,,,,,,,,,,,,,,,,,,masks/mask_002.jpg,,,,,,,,,,,,,,,,,,,,,,,,,,,,,,,,,,,,,,,,,,,0,0,0,1,1,,,,,,,,,,,,,,,,,,,,,,,,,,,,,,,,,,,,,,,,,,,,,,
377619,001,2022-11-20_23h58.20.098,Info_measure_main_exp,2022.2.2,MacIntel,60.0024001,,,,,,,,,,,,,,,,,,masks/mask_005.jpg,,,,,,,,,,,,,,,,,,,,,,,,,,,,,,,,,,,,,,,,,,,0,1,1,4,1,,,,,,,,,,,,,,,,,,,,,,,,,,,,,,,,,,,,,,,,,,,,,,
377619,001,2022-11-20_23h58.20.098,Info_measure_main_exp,2022.2.2,MacIntel,60.0024001,,,,,,,,,,,,,,,,,,masks/mask_003.jpg,,,,,,,,,,,,,,,,,,,,,,,,,,,,,,,,,,,,,,,,,,,0,2,2,2,1,,,,,,,,,,,,,,,,,,,,,,,,,,,,,,,,,,,,,,,,,,,,,,
377619,001,2022-11-20_23h58.20.098,Info_measure_main_exp,2022.2.2,MacIntel,60.0024001,,,,,,,,,,,,,,,,,,masks/mask_004.jpg,,,,,,,,,,,,,,,,,,,,,,,,,,,,,,,,,,,,,,,,,,,0,3,3,3,1,,,,,,,,,,,,,,,,,,,,,,,,,,,,,,,,,,,,,,,,,,,,,,
377619,001,2022-11-20_23h58.20.098,Info_measure_main_exp,2022.2.2,MacIntel,60.0024001,,,,,,,,,,,,,,,,,,masks/mask_001.jpg,,,,,,,,,,,,,,,,,,,,,,,,,,,,,,,,,,,,,,,,,,,0,4,4,0,1,,,,,,,,,,,,,,,,,,,,,,,,,,,,,,,,,,,,,,,,,,,,,,
377619,001,2022-11-20_23h58.20.098,Info_measure_main_exp,2022.2.2,MacIntel,60.0024001,,,,,,,,,,,,,,,,,,masks/mask_005.jpg,,,,,,,,,,,,,,,,,,,,,,,,,,,,,,,,,,,,,,,,,,,,,,,,0,0,0,4,1,,,,,,,,,,,,,,,,,,,,,,,,,,,,,,,,,,,,,,,,,
377619,001,2022-11-20_23h58.20.098,Info_measure_main_exp,2022.2.2,MacIntel,60.0024001,,,,,,,,,,,,,,,,,,masks/mask_004.jpg,,,,,,,,,,,,,,,,,,,,,,,,,,,,,,,,,,,,,,,,,,,,,,,,0,1,1,3,1,,,,,,,,,,,,,,,,,,,,,,,,,,,,,,,,,,,,,,,,,
377619,001,2022-11-20_23h58.20.098,Info_measure_main_exp,2022.2.2,MacIntel,60.0024001,,,,,,,,,,,,,,,,,,masks/mask_001.jpg,,,,,,,,,,,,,,,,,,,,,,,,,,,,,,,,,,,,,,,,,,,,,,,,0,2,2,0,1,,,,,,,,,,,,,,,,,,,,,,,,,,,,,,,,,,,,,,,,,
377619,001,2022-11-20_23h58.20.098,Info_measure_main_exp,2022.2.2,MacIntel,60.0024001,,,,,,,,,,,,,,,,,,masks/mask_002.jpg,,,,,,,,,,,,,,,,,,,,,,,,,,,,,,,,,,,,,,,,,,,,,,,,0,3,3,1,1,,,,,,,,,,,,,,,,,,,,,,,,,,,,,,,,,,,,,,,,,
377619,001,2022-11-20_23h58.20.098,Info_measure_main_exp,2022.2.2,MacIntel,60.0024001,,,,,,,,,,,,,,,,,,masks/mask_003.jpg,,,,,,,,,,,,,,,,,,,,,,,,,,,,,,,,,,,,,,,,,,,,,,,,0,4,4,2,1,,,,,,,,,,,,,,,,,,,,,,,,,,,,,,,,,,,,,,,,,
377619,001,2022-11-20_23h58.20.098,Info_measure_main_exp,2022.2.2,MacIntel,60.0024001,,,,,,,,,,,,,,,,,,,,,,,,,,,,,,6,1.7329,1,,,,,,,,,,,,0,131,5,5,2082,2166,absent_patch/patch0002082.jpg,absent_patch/patch0002166.jpg,,,,,,,,,,,,,,,,,,,,0.179292535,0.037903646,1,0,0,response1disk,22,-0.006775174,-0.014835069,1,0,0,center_square,0,21,21,43,1,,,,,,,,,,,,,,,,,,,,,,,
377619,001,2022-11-20_23h58.20.098,Info_measure_main_exp,2022.2.2,MacIntel,60.0024001,,,,,,,,,,,,,,,,,,masks/mask_002.jpg,,,,,,,,,,,,,,,,,,,,,,,,,,,,,,,,,,,,,,,,,,,0,0,0,1,1,,,,,,,,,,,,,,,,,,,,,,,,,,,,,,,,,,,,,,,,,,,,,,
377619,001,2022-11-20_23h58.20.098,Info_measure_main_exp,2022.2.2,MacIntel,60.0024001,,,,,,,,,,,,,,,,,,masks/mask_004.jpg,,,,,,,,,,,,,,,,,,,,,,,,,,,,,,,,,,,,,,,,,,,0,1,1,3,1,,,,,,,,,,,,,,,,,,,,,,,,,,,,,,,,,,,,,,,,,,,,,,
377619,001,2022-11-20_23h58.20.098,Info_measure_main_exp,2022.2.2,MacIntel,60.0024001,,,,,,,,,,,,,,,,,,masks/mask_003.jpg,,,,,,,,,,,,,,,,,,,,,,,,,,,,,,,,,,,,,,,,,,,0,2,2,2,1,,,,,,,,,,,,,,,,,,,,,,,,,,,,,,,,,,,,,,,,,,,,,,
377619,001,2022-11-20_23h58.20.098,Info_measure_main_exp,2022.2.2,MacIntel,60.0024001,,,,,,,,,,,,,,,,,,masks/mask_001.jpg,,,,,,,,,,,,,,,,,,,,,,,,,,,,,,,,,,,,,,,,,,,0,3,3,0,1,,,,,,,,,,,,,,,,,,,,,,,,,,,,,,,,,,,,,,,,,,,,,,
377619,001,2022-11-20_23h58.20.098,Info_measure_main_exp,2022.2.2,MacIntel,60.0024001,,,,,,,,,,,,,,,,,,masks/mask_005.jpg,,,,,,,,,,,,,,,,,,,,,,,,,,,,,,,,,,,,,,,,,,,0,4,4,4,1,,,,,,,,,,,,,,,,,,,,,,,,,,,,,,,,,,,,,,,,,,,,,,
377619,001,2022-11-20_23h58.20.098,Info_measure_main_exp,2022.2.2,MacIntel,60.0024001,,,,,,,,,,,,,,,,,,masks/mask_002.jpg,,,,,,,,,,,,,,,,,,,,,,,,,,,,,,,,,,,,,,,,,,,,,,,,0,0,0,1,1,,,,,,,,,,,,,,,,,,,,,,,,,,,,,,,,,,,,,,,,,
377619,001,2022-11-20_23h58.20.098,Info_measure_main_exp,2022.2.2,MacIntel,60.0024001,,,,,,,,,,,,,,,,,,masks/mask_003.jpg,,,,,,,,,,,,,,,,,,,,,,,,,,,,,,,,,,,,,,,,,,,,,,,,0,1,1,2,1,,,,,,,,,,,,,,,,,,,,,,,,,,,,,,,,,,,,,,,,,
377619,001,2022-11-20_23h58.20.098,Info_measure_main_exp,2022.2.2,MacIntel,60.0024001,,,,,,,,,,,,,,,,,,masks/mask_004.jpg,,,,,,,,,,,,,,,,,,,,,,,,,,,,,,,,,,,,,,,,,,,,,,,,0,2,2,3,1,,,,,,,,,,,,,,,,,,,,,,,,,,,,,,,,,,,,,,,,,
377619,001,2022-11-20_23h58.20.098,Info_measure_main_exp,2022.2.2,MacIntel,60.0024001,,,,,,,,,,,,,,,,,,masks/mask_001.jpg,,,,,,,,,,,,,,,,,,,,,,,,,,,,,,,,,,,,,,,,,,,,,,,,0,3,3,0,1,,,,,,,,,,,,,,,,,,,,,,,,,,,,,,,,,,,,,,,,,
377619,001,2022-11-20_23h58.20.098,Info_measure_main_exp,2022.2.2,MacIntel,60.0024001,,,,,,,,,,,,,,,,,,masks/mask_005.jpg,,,,,,,,,,,,,,,,,,,,,,,,,,,,,,,,,,,,,,,,,,,,,,,,0,4,4,4,1,,,,,,,,,,,,,,,,,,,,,,,,,,,,,,,,,,,,,,,,,
377619,001,2022-11-20_23h58.20.098,Info_measure_main_exp,2022.2.2,MacIntel,60.0024001,,,,,,,,,,,,,,,,,,,,,,,,,,,,,,7,0.9837,1,,,,,,,,,,,,1,131,5,5,2250,1,absent_patch/patch0002250.jpg,present_patch/cong_131_5_a.jpg,,,,,,,,,,,,,,,,,,,,0.079440104,0.13812934,1,0,0,response1disk,23,0.007456597,-0.000590278,1,0,0,center_square,0,22,22,5,1,,,,,,,,,,,,,,,,,,,,,,,
377619,001,2022-11-20_23h58.20.098,Info_measure_main_exp,2022.2.2,MacIntel,60.0024001,,,,,,,,,,,,,,,,,,masks/mask_001.jpg,,,,,,,,,,,,,,,,,,,,,,,,,,,,,,,,,,,,,,,,,,,0,0,0,0,1,,,,,,,,,,,,,,,,,,,,,,,,,,,,,,,,,,,,,,,,,,,,,,
377619,001,2022-11-20_23h58.20.098,Info_measure_main_exp,2022.2.2,MacIntel,60.0024001,,,,,,,,,,,,,,,,,,masks/mask_004.jpg,,,,,,,,,,,,,,,,,,,,,,,,,,,,,,,,,,,,,,,,,,,0,1,1,3,1,,,,,,,,,,,,,,,,,,,,,,,,,,,,,,,,,,,,,,,,,,,,,,
377619,001,2022-11-20_23h58.20.098,Info_measure_main_exp,2022.2.2,MacIntel,60.0024001,,,,,,,,,,,,,,,,,,masks/mask_003.jpg,,,,,,,,,,,,,,,,,,,,,,,,,,,,,,,,,,,,,,,,,,,0,2,2,2,1,,,,,,,,,,,,,,,,,,,,,,,,,,,,,,,,,,,,,,,,,,,,,,
377619,001,2022-11-20_23h58.20.098,Info_measure_main_exp,2022.2.2,MacIntel,60.0024001,,,,,,,,,,,,,,,,,,masks/mask_005.jpg,,,,,,,,,,,,,,,,,,,,,,,,,,,,,,,,,,,,,,,,,,,0,3,3,4,1,,,,,,,,,,,,,,,,,,,,,,,,,,,,,,,,,,,,,,,,,,,,,,
377619,001,2022-11-20_23h58.20.098,Info_measure_main_exp,2022.2.2,MacIntel,60.0024001,,,,,,,,,,,,,,,,,,masks/mask_002.jpg,,,,,,,,,,,,,,,,,,,,,,,,,,,,,,,,,,,,,,,,,,,0,4,4,1,1,,,,,,,,,,,,,,,,,,,,,,,,,,,,,,,,,,,,,,,,,,,,,,
377619,001,2022-11-20_23h58.20.098,Info_measure_main_exp,2022.2.2,MacIntel,60.0024001,,,,,,,,,,,,,,,,,,masks/mask_003.jpg,,,,,,,,,,,,,,,,,,,,,,,,,,,,,,,,,,,,,,,,,,,,,,,,0,0,0,2,1,,,,,,,,,,,,,,,,,,,,,,,,,,,,,,,,,,,,,,,,,
377619,001,2022-11-20_23h58.20.098,Info_measure_main_exp,2022.2.2,MacIntel,60.0024001,,,,,,,,,,,,,,,,,,masks/mask_004.jpg,,,,,,,,,,,,,,,,,,,,,,,,,,,,,,,,,,,,,,,,,,,,,,,,0,1,1,3,1,,,,,,,,,,,,,,,,,,,,,,,,,,,,,,,,,,,,,,,,,
377619,001,2022-11-20_23h58.20.098,Info_measure_main_exp,2022.2.2,MacIntel,60.0024001,,,,,,,,,,,,,,,,,,masks/mask_001.jpg,,,,,,,,,,,,,,,,,,,,,,,,,,,,,,,,,,,,,,,,,,,,,,,,0,2,2,0,1,,,,,,,,,,,,,,,,,,,,,,,,,,,,,,,,,,,,,,,,,
377619,001,2022-11-20_23h58.20.098,Info_measure_main_exp,2022.2.2,MacIntel,60.0024001,,,,,,,,,,,,,,,,,,masks/mask_002.jpg,,,,,,,,,,,,,,,,,,,,,,,,,,,,,,,,,,,,,,,,,,,,,,,,0,3,3,1,1,,,,,,,,,,,,,,,,,,,,,,,,,,,,,,,,,,,,,,,,,
377619,001,2022-11-20_23h58.20.098,Info_measure_main_exp,2022.2.2,MacIntel,60.0024001,,,,,,,,,,,,,,,,,,masks/mask_005.jpg,,,,,,,,,,,,,,,,,,,,,,,,,,,,,,,,,,,,,,,,,,,,,,,,0,4,4,4,1,,,,,,,,,,,,,,,,,,,,,,,,,,,,,,,,,,,,,,,,,
377619,001,2022-11-20_23h58.20.098,Info_measure_main_exp,2022.2.2,MacIntel,60.0024001,,,,,,,,,,,,,,,,,,,,,,,,,,,,,,3,1.3502,1,,,,,,,,,,,,0,131,5,5,1986,2274,absent_patch/patch0001986.jpg,absent_patch/patch0002274.jpg,,,,,,,,,,,,,,,,,,,,-0.028077257,-0.118953993,1,0,0,response5disk,24,-0.002599826,-0.003146701,1,0,0,center_square,0,23,23,7,1,,,,,,,,,,,,,,,,,,,,,,,
377619,001,2022-11-20_23h58.20.098,Info_measure_main_exp,2022.2.2,MacIntel,60.0024001,,,,,,,,,,,,,,,,,,masks/mask_001.jpg,,,,,,,,,,,,,,,,,,,,,,,,,,,,,,,,,,,,,,,,,,,0,0,0,0,1,,,,,,,,,,,,,,,,,,,,,,,,,,,,,,,,,,,,,,,,,,,,,,
377619,001,2022-11-20_23h58.20.098,Info_measure_main_exp,2022.2.2,MacIntel,60.0024001,,,,,,,,,,,,,,,,,,masks/mask_003.jpg,,,,,,,,,,,,,,,,,,,,,,,,,,,,,,,,,,,,,,,,,,,0,1,1,2,1,,,,,,,,,,,,,,,,,,,,,,,,,,,,,,,,,,,,,,,,,,,,,,
377619,001,2022-11-20_23h58.20.098,Info_measure_main_exp,2022.2.2,MacIntel,60.0024001,,,,,,,,,,,,,,,,,,masks/mask_004.jpg,,,,,,,,,,,,,,,,,,,,,,,,,,,,,,,,,,,,,,,,,,,0,2,2,3,1,,,,,,,,,,,,,,,,,,,,,,,,,,,,,,,,,,,,,,,,,,,,,,
377619,001,2022-11-20_23h58.20.098,Info_measure_main_exp,2022.2.2,MacIntel,60.0024001,,,,,,,,,,,,,,,,,,masks/mask_002.jpg,,,,,,,,,,,,,,,,,,,,,,,,,,,,,,,,,,,,,,,,,,,0,3,3,1,1,,,,,,,,,,,,,,,,,,,,,,,,,,,,,,,,,,,,,,,,,,,,,,
377619,001,2022-11-20_23h58.20.098,Info_measure_main_exp,2022.2.2,MacIntel,60.0024001,,,,,,,,,,,,,,,,,,masks/mask_005.jpg,,,,,,,,,,,,,,,,,,,,,,,,,,,,,,,,,,,,,,,,,,,0,4,4,4,1,,,,,,,,,,,,,,,,,,,,,,,,,,,,,,,,,,,,,,,,,,,,,,
377619,001,2022-11-20_23h58.20.098,Info_measure_main_exp,2022.2.2,MacIntel,60.0024001,,,,,,,,,,,,,,,,,,masks/mask_005.jpg,,,,,,,,,,,,,,,,,,,,,,,,,,,,,,,,,,,,,,,,,,,,,,,,0,0,0,4,1,,,,,,,,,,,,,,,,,,,,,,,,,,,,,,,,,,,,,,,,,
377619,001,2022-11-20_23h58.20.098,Info_measure_main_exp,2022.2.2,MacIntel,60.0024001,,,,,,,,,,,,,,,,,,masks/mask_001.jpg,,,,,,,,,,,,,,,,,,,,,,,,,,,,,,,,,,,,,,,,,,,,,,,,0,1,1,0,1,,,,,,,,,,,,,,,,,,,,,,,,,,,,,,,,,,,,,,,,,
377619,001,2022-11-20_23h58.20.098,Info_measure_main_exp,2022.2.2,MacIntel,60.0024001,,,,,,,,,,,,,,,,,,masks/mask_003.jpg,,,,,,,,,,,,,,,,,,,,,,,,,,,,,,,,,,,,,,,,,,,,,,,,0,2,2,2,1,,,,,,,,,,,,,,,,,,,,,,,,,,,,,,,,,,,,,,,,,
377619,001,2022-11-20_23h58.20.098,Info_measure_main_exp,2022.2.2,MacIntel,60.0024001,,,,,,,,,,,,,,,,,,masks/mask_004.jpg,,,,,,,,,,,,,,,,,,,,,,,,,,,,,,,,,,,,,,,,,,,,,,,,0,3,3,3,1,,,,,,,,,,,,,,,,,,,,,,,,,,,,,,,,,,,,,,,,,
377619,001,2022-11-20_23h58.20.098,Info_measure_main_exp,2022.2.2,MacIntel,60.0024001,,,,,,,,,,,,,,,,,,masks/mask_002.jpg,,,,,,,,,,,,,,,,,,,,,,,,,,,,,,,,,,,,,,,,,,,,,,,,0,4,4,1,1,,,,,,,,,,,,,,,,,,,,,,,,,,,,,,,,,,,,,,,,,
377619,001,2022-11-20_23h58.20.098,Info_measure_main_exp,2022.2.2,MacIntel,60.0024001,,,,,,,,,,,,,,,,,,,,,,,,,,,,,,6,1.5333,1,,,,,,,,,,,,0,131,5,5,2250,2142,absent_patch/patch0002250.jpg,absent_patch/patch0002142.jpg,,,,,,,,,,,,,,,,,,,,0.165520833,0.032994792,1,0,0,response1disk,25,0.005746528,0.001367187,1,0,0,center_square,0,24,24,71,1,,,,,,,,,,,,,,,,,,,,,,,
377619,001,2022-11-20_23h58.20.098,Info_measure_main_exp,2022.2.2,MacIntel,60.0024001,,,,,,,,,,,,,,,,,,masks/mask_005.jpg,,,,,,,,,,,,,,,,,,,,,,,,,,,,,,,,,,,,,,,,,,,0,0,0,4,1,,,,,,,,,,,,,,,,,,,,,,,,,,,,,,,,,,,,,,,,,,,,,,
377619,001,2022-11-20_23h58.20.098,Info_measure_main_exp,2022.2.2,MacIntel,60.0024001,,,,,,,,,,,,,,,,,,masks/mask_002.jpg,,,,,,,,,,,,,,,,,,,,,,,,,,,,,,,,,,,,,,,,,,,0,1,1,1,1,,,,,,,,,,,,,,,,,,,,,,,,,,,,,,,,,,,,,,,,,,,,,,
377619,001,2022-11-20_23h58.20.098,Info_measure_main_exp,2022.2.2,MacIntel,60.0024001,,,,,,,,,,,,,,,,,,masks/mask_001.jpg,,,,,,,,,,,,,,,,,,,,,,,,,,,,,,,,,,,,,,,,,,,0,2,2,0,1,,,,,,,,,,,,,,,,,,,,,,,,,,,,,,,,,,,,,,,,,,,,,,
377619,001,2022-11-20_23h58.20.098,Info_measure_main_exp,2022.2.2,MacIntel,60.0024001,,,,,,,,,,,,,,,,,,masks/mask_004.jpg,,,,,,,,,,,,,,,,,,,,,,,,,,,,,,,,,,,,,,,,,,,0,3,3,3,1,,,,,,,,,,,,,,,,,,,,,,,,,,,,,,,,,,,,,,,,,,,,,,
377619,001,2022-11-20_23h58.20.098,Info_measure_main_exp,2022.2.2,MacIntel,60.0024001,,,,,,,,,,,,,,,,,,masks/mask_003.jpg,,,,,,,,,,,,,,,,,,,,,,,,,,,,,,,,,,,,,,,,,,,0,4,4,2,1,,,,,,,,,,,,,,,,,,,,,,,,,,,,,,,,,,,,,,,,,,,,,,
377619,001,2022-11-20_23h58.20.098,Info_measure_main_exp,2022.2.2,MacIntel,60.0024001,,,,,,,,,,,,,,,,,,masks/mask_002.jpg,,,,,,,,,,,,,,,,,,,,,,,,,,,,,,,,,,,,,,,,,,,,,,,,0,0,0,1,1,,,,,,,,,,,,,,,,,,,,,,,,,,,,,,,,,,,,,,,,,
377619,001,2022-11-20_23h58.20.098,Info_measure_main_exp,2022.2.2,MacIntel,60.0024001,,,,,,,,,,,,,,,,,,masks/mask_003.jpg,,,,,,,,,,,,,,,,,,,,,,,,,,,,,,,,,,,,,,,,,,,,,,,,0,1,1,2,1,,,,,,,,,,,,,,,,,,,,,,,,,,,,,,,,,,,,,,,,,
377619,001,2022-11-20_23h58.20.098,Info_measure_main_exp,2022.2.2,MacIntel,60.0024001,,,,,,,,,,,,,,,,,,masks/mask_005.jpg,,,,,,,,,,,,,,,,,,,,,,,,,,,,,,,,,,,,,,,,,,,,,,,,0,2,2,4,1,,,,,,,,,,,,,,,,,,,,,,,,,,,,,,,,,,,,,,,,,
377619,001,2022-11-20_23h58.20.098,Info_measure_main_exp,2022.2.2,MacIntel,60.0024001,,,,,,,,,,,,,,,,,,masks/mask_001.jpg,,,,,,,,,,,,,,,,,,,,,,,,,,,,,,,,,,,,,,,,,,,,,,,,0,3,3,0,1,,,,,,,,,,,,,,,,,,,,,,,,,,,,,,,,,,,,,,,,,
377619,001,2022-11-20_23h58.20.098,Info_measure_main_exp,2022.2.2,MacIntel,60.0024001,,,,,,,,,,,,,,,,,,masks/mask_004.jpg,,,,,,,,,,,,,,,,,,,,,,,,,,,,,,,,,,,,,,,,,,,,,,,,0,4,4,3,1,,,,,,,,,,,,,,,,,,,,,,,,,,,,,,,,,,,,,,,,,
377619,001,2022-11-20_23h58.20.098,Info_measure_main_exp,2022.2.2,MacIntel,60.0024001,,,,,,,,,,,,,,,,,,,,,,,,,,,,,,5,1.1655,1,,,,,,,,,,,,0,131,5,5,1950,2142,absent_patch/patch0001950.jpg,absent_patch/patch0002142.jpg,,,,,,,,,,,,,,,,,,,,0.139713542,-0.059513889,1,0,0,response3disk,26,0.013849826,-0.008055556,1,0,0,center_square,0,25,25,83,1,,,,,,,,,,,,,,,,,,,,,,,
377619,001,2022-11-20_23h58.20.098,Info_measure_main_exp,2022.2.2,MacIntel,60.0024001,,,,,,,,,,,,,,,,,,masks/mask_003.jpg,,,,,,,,,,,,,,,,,,,,,,,,,,,,,,,,,,,,,,,,,,,0,0,0,2,1,,,,,,,,,,,,,,,,,,,,,,,,,,,,,,,,,,,,,,,,,,,,,,
377619,001,2022-11-20_23h58.20.098,Info_measure_main_exp,2022.2.2,MacIntel,60.0024001,,,,,,,,,,,,,,,,,,masks/mask_002.jpg,,,,,,,,,,,,,,,,,,,,,,,,,,,,,,,,,,,,,,,,,,,0,1,1,1,1,,,,,,,,,,,,,,,,,,,,,,,,,,,,,,,,,,,,,,,,,,,,,,
377619,001,2022-11-20_23h58.20.098,Info_measure_main_exp,2022.2.2,MacIntel,60.0024001,,,,,,,,,,,,,,,,,,masks/mask_001.jpg,,,,,,,,,,,,,,,,,,,,,,,,,,,,,,,,,,,,,,,,,,,0,2,2,0,1,,,,,,,,,,,,,,,,,,,,,,,,,,,,,,,,,,,,,,,,,,,,,,
377619,001,2022-11-20_23h58.20.098,Info_measure_main_exp,2022.2.2,MacIntel,60.0024001,,,,,,,,,,,,,,,,,,masks/mask_005.jpg,,,,,,,,,,,,,,,,,,,,,,,,,,,,,,,,,,,,,,,,,,,0,3,3,4,1,,,,,,,,,,,,,,,,,,,,,,,,,,,,,,,,,,,,,,,,,,,,,,
377619,001,2022-11-20_23h58.20.098,Info_measure_main_exp,2022.2.2,MacIntel,60.0024001,,,,,,,,,,,,,,,,,,masks/mask_004.jpg,,,,,,,,,,,,,,,,,,,,,,,,,,,,,,,,,,,,,,,,,,,0,4,4,3,1,,,,,,,,,,,,,,,,,,,,,,,,,,,,,,,,,,,,,,,,,,,,,,
377619,001,2022-11-20_23h58.20.098,Info_measure_main_exp,2022.2.2,MacIntel,60.0024001,,,,,,,,,,,,,,,,,,masks/mask_004.jpg,,,,,,,,,,,,,,,,,,,,,,,,,,,,,,,,,,,,,,,,,,,,,,,,0,0,0,3,1,,,,,,,,,,,,,,,,,,,,,,,,,,,,,,,,,,,,,,,,,
377619,001,2022-11-20_23h58.20.098,Info_measure_main_exp,2022.2.2,MacIntel,60.0024001,,,,,,,,,,,,,,,,,,masks/mask_001.jpg,,,,,,,,,,,,,,,,,,,,,,,,,,,,,,,,,,,,,,,,,,,,,,,,0,1,1,0,1,,,,,,,,,,,,,,,,,,,,,,,,,,,,,,,,,,,,,,,,,
377619,001,2022-11-20_23h58.20.098,Info_measure_main_exp,2022.2.2,MacIntel,60.0024001,,,,,,,,,,,,,,,,,,masks/mask_005.jpg,,,,,,,,,,,,,,,,,,,,,,,,,,,,,,,,,,,,,,,,,,,,,,,,0,2,2,4,1,,,,,,,,,,,,,,,,,,,,,,,,,,,,,,,,,,,,,,,,,
377619,001,2022-11-20_23h58.20.098,Info_measure_main_exp,2022.2.2,MacIntel,60.0024001,,,,,,,,,,,,,,,,,,masks/mask_002.jpg,,,,,,,,,,,,,,,,,,,,,,,,,,,,,,,,,,,,,,,,,,,,,,,,0,3,3,1,1,,,,,,,,,,,,,,,,,,,,,,,,,,,,,,,,,,,,,,,,,
377619,001,2022-11-20_23h58.20.098,Info_measure_main_exp,2022.2.2,MacIntel,60.0024001,,,,,,,,,,,,,,,,,,masks/mask_003.jpg,,,,,,,,,,,,,,,,,,,,,,,,,,,,,,,,,,,,,,,,,,,,,,,,0,4,4,2,1,,,,,,,,,,,,,,,,,,,,,,,,,,,,,,,,,,,,,,,,,
377619,001,2022-11-20_23h58.20.098,Info_measure_main_exp,2022.2.2,MacIntel,60.0024001,,,,,,,,,,,,,,,,,,,,,,,,,,,,,,6,1.1496,1,,,,,,,,,,,,0,131,5,5,1950,2214,absent_patch/patch0001950.jpg,absent_patch/patch0002214.jpg,,,,,,,,,,,,,,,,,,,,0.179678819,0.076844618,1,0,0,response1disk,27,-0.002230903,0.011744792,1,0,0,center_square,0,26,26,85,1,,,,,,,,,,,,,,,,,,,,,,,
377619,001,2022-11-20_23h58.20.098,Info_measure_main_exp,2022.2.2,MacIntel,60.0024001,,,,,,,,,,,,,,,,,,masks/mask_003.jpg,,,,,,,,,,,,,,,,,,,,,,,,,,,,,,,,,,,,,,,,,,,0,0,0,2,1,,,,,,,,,,,,,,,,,,,,,,,,,,,,,,,,,,,,,,,,,,,,,,
377619,001,2022-11-20_23h58.20.098,Info_measure_main_exp,2022.2.2,MacIntel,60.0024001,,,,,,,,,,,,,,,,,,masks/mask_001.jpg,,,,,,,,,,,,,,,,,,,,,,,,,,,,,,,,,,,,,,,,,,,0,1,1,0,1,,,,,,,,,,,,,,,,,,,,,,,,,,,,,,,,,,,,,,,,,,,,,,
377619,001,2022-11-20_23h58.20.098,Info_measure_main_exp,2022.2.2,MacIntel,60.0024001,,,,,,,,,,,,,,,,,,masks/mask_002.jpg,,,,,,,,,,,,,,,,,,,,,,,,,,,,,,,,,,,,,,,,,,,0,2,2,1,1,,,,,,,,,,,,,,,,,,,,,,,,,,,,,,,,,,,,,,,,,,,,,,
377619,001,2022-11-20_23h58.20.098,Info_measure_main_exp,2022.2.2,MacIntel,60.0024001,,,,,,,,,,,,,,,,,,masks/mask_004.jpg,,,,,,,,,,,,,,,,,,,,,,,,,,,,,,,,,,,,,,,,,,,0,3,3,3,1,,,,,,,,,,,,,,,,,,,,,,,,,,,,,,,,,,,,,,,,,,,,,,
377619,001,2022-11-20_23h58.20.098,Info_measure_main_exp,2022.2.2,MacIntel,60.0024001,,,,,,,,,,,,,,,,,,masks/mask_005.jpg,,,,,,,,,,,,,,,,,,,,,,,,,,,,,,,,,,,,,,,,,,,0,4,4,4,1,,,,,,,,,,,,,,,,,,,,,,,,,,,,,,,,,,,,,,,,,,,,,,
377619,001,2022-11-20_23h58.20.098,Info_measure_main_exp,2022.2.2,MacIntel,60.0024001,,,,,,,,,,,,,,,,,,masks/mask_005.jpg,,,,,,,,,,,,,,,,,,,,,,,,,,,,,,,,,,,,,,,,,,,,,,,,0,0,0,4,1,,,,,,,,,,,,,,,,,,,,,,,,,,,,,,,,,,,,,,,,,
377619,001,2022-11-20_23h58.20.098,Info_measure_main_exp,2022.2.2,MacIntel,60.0024001,,,,,,,,,,,,,,,,,,masks/mask_003.jpg,,,,,,,,,,,,,,,,,,,,,,,,,,,,,,,,,,,,,,,,,,,,,,,,0,1,1,2,1,,,,,,,,,,,,,,,,,,,,,,,,,,,,,,,,,,,,,,,,,
377619,001,2022-11-20_23h58.20.098,Info_measure_main_exp,2022.2.2,MacIntel,60.0024001,,,,,,,,,,,,,,,,,,masks/mask_004.jpg,,,,,,,,,,,,,,,,,,,,,,,,,,,,,,,,,,,,,,,,,,,,,,,,0,2,2,3,1,,,,,,,,,,,,,,,,,,,,,,,,,,,,,,,,,,,,,,,,,
377619,001,2022-11-20_23h58.20.098,Info_measure_main_exp,2022.2.2,MacIntel,60.0024001,,,,,,,,,,,,,,,,,,masks/mask_001.jpg,,,,,,,,,,,,,,,,,,,,,,,,,,,,,,,,,,,,,,,,,,,,,,,,0,3,3,0,1,,,,,,,,,,,,,,,,,,,,,,,,,,,,,,,,,,,,,,,,,
377619,001,2022-11-20_23h58.20.098,Info_measure_main_exp,2022.2.2,MacIntel,60.0024001,,,,,,,,,,,,,,,,,,masks/mask_002.jpg,,,,,,,,,,,,,,,,,,,,,,,,,,,,,,,,,,,,,,,,,,,,,,,,0,4,4,1,1,,,,,,,,,,,,,,,,,,,,,,,,,,,,,,,,,,,,,,,,,
377619,001,2022-11-20_23h58.20.098,Info_measure_main_exp,2022.2.2,MacIntel,60.0024001,,,,,,,,,,,,,,,,,,,,,,,,,,,,,,4,1.5661,1,,,,,,,,,,,,0,131,5,5,2190,1974,absent_patch/patch0002190.jpg,absent_patch/patch0001974.jpg,,,,,,,,,,,,,,,,,,,,0.030421007,-0.121115451,1,0,0,response3disk,28,0.008077257,-0.004296875,1,0,0,center_square,0,27,27,119,1,,,,,,,,,,,,,,,,,,,,,,,
377619,001,2022-11-20_23h58.20.098,Info_measure_main_exp,2022.2.2,MacIntel,60.0024001,,,,,,,,,,,,,,,,,,masks/mask_002.jpg,,,,,,,,,,,,,,,,,,,,,,,,,,,,,,,,,,,,,,,,,,,0,0,0,1,1,,,,,,,,,,,,,,,,,,,,,,,,,,,,,,,,,,,,,,,,,,,,,,
377619,001,2022-11-20_23h58.20.098,Info_measure_main_exp,2022.2.2,MacIntel,60.0024001,,,,,,,,,,,,,,,,,,masks/mask_001.jpg,,,,,,,,,,,,,,,,,,,,,,,,,,,,,,,,,,,,,,,,,,,0,1,1,0,1,,,,,,,,,,,,,,,,,,,,,,,,,,,,,,,,,,,,,,,,,,,,,,
377619,001,2022-11-20_23h58.20.098,Info_measure_main_exp,2022.2.2,MacIntel,60.0024001,,,,,,,,,,,,,,,,,,masks/mask_004.jpg,,,,,,,,,,,,,,,,,,,,,,,,,,,,,,,,,,,,,,,,,,,0,2,2,3,1,,,,,,,,,,,,,,,,,,,,,,,,,,,,,,,,,,,,,,,,,,,,,,
377619,001,2022-11-20_23h58.20.098,Info_measure_main_exp,2022.2.2,MacIntel,60.0024001,,,,,,,,,,,,,,,,,,masks/mask_003.jpg,,,,,,,,,,,,,,,,,,,,,,,,,,,,,,,,,,,,,,,,,,,0,3,3,2,1,,,,,,,,,,,,,,,,,,,,,,,,,,,,,,,,,,,,,,,,,,,,,,
377619,001,2022-11-20_23h58.20.098,Info_measure_main_exp,2022.2.2,MacIntel,60.0024001,,,,,,,,,,,,,,,,,,masks/mask_005.jpg,,,,,,,,,,,,,,,,,,,,,,,,,,,,,,,,,,,,,,,,,,,0,4,4,4,1,,,,,,,,,,,,,,,,,,,,,,,,,,,,,,,,,,,,,,,,,,,,,,
377619,001,2022-11-20_23h58.20.098,Info_measure_main_exp,2022.2.2,MacIntel,60.0024001,,,,,,,,,,,,,,,,,,masks/mask_003.jpg,,,,,,,,,,,,,,,,,,,,,,,,,,,,,,,,,,,,,,,,,,,,,,,,0,0,0,2,1,,,,,,,,,,,,,,,,,,,,,,,,,,,,,,,,,,,,,,,,,
377619,001,2022-11-20_23h58.20.098,Info_measure_main_exp,2022.2.2,MacIntel,60.0024001,,,,,,,,,,,,,,,,,,masks/mask_002.jpg,,,,,,,,,,,,,,,,,,,,,,,,,,,,,,,,,,,,,,,,,,,,,,,,0,1,1,1,1,,,,,,,,,,,,,,,,,,,,,,,,,,,,,,,,,,,,,,,,,
377619,001,2022-11-20_23h58.20.098,Info_measure_main_exp,2022.2.2,MacIntel,60.0024001,,,,,,,,,,,,,,,,,,masks/mask_001.jpg,,,,,,,,,,,,,,,,,,,,,,,,,,,,,,,,,,,,,,,,,,,,,,,,0,2,2,0,1,,,,,,,,,,,,,,,,,,,,,,,,,,,,,,,,,,,,,,,,,
377619,001,2022-11-20_23h58.20.098,Info_measure_main_exp,2022.2.2,MacIntel,60.0024001,,,,,,,,,,,,,,,,,,masks/mask_004.jpg,,,,,,,,,,,,,,,,,,,,,,,,,,,,,,,,,,,,,,,,,,,,,,,,0,3,3,3,1,,,,,,,,,,,,,,,,,,,,,,,,,,,,,,,,,,,,,,,,,
377619,001,2022-11-20_23h58.20.098,Info_measure_main_exp,2022.2.2,MacIntel,60.0024001,,,,,,,,,,,,,,,,,,masks/mask_005.jpg,,,,,,,,,,,,,,,,,,,,,,,,,,,,,,,,,,,,,,,,,,,,,,,,0,4,4,4,1,,,,,,,,,,,,,,,,,,,,,,,,,,,,,,,,,,,,,,,,,
377619,001,2022-11-20_23h58.20.098,Info_measure_main_exp,2022.2.2,MacIntel,60.0024001,,,,,,,,,,,,,,,,,,,,,,,,,,,,,,6,1.3504,1,,,,,,,,,,,,0,131,5,5,2238,2214,absent_patch/patch0002238.jpg,absent_patch/patch0002214.jpg,,,,,,,,,,,,,,,,,,,,0.11515191,0.023793403,1,0,0,response1disk,29,-0.012825521,0.004335938,1,0,0,center_square,0,28,28,81,1,,,,,,,,,,,,,,,,,,,,,,,
377619,001,2022-11-20_23h58.20.098,Info_measure_main_exp,2022.2.2,MacIntel,60.0024001,,,,,,,,,,,,,,,,,,masks/mask_003.jpg,,,,,,,,,,,,,,,,,,,,,,,,,,,,,,,,,,,,,,,,,,,0,0,0,2,1,,,,,,,,,,,,,,,,,,,,,,,,,,,,,,,,,,,,,,,,,,,,,,
377619,001,2022-11-20_23h58.20.098,Info_measure_main_exp,2022.2.2,MacIntel,60.0024001,,,,,,,,,,,,,,,,,,masks/mask_001.jpg,,,,,,,,,,,,,,,,,,,,,,,,,,,,,,,,,,,,,,,,,,,0,1,1,0,1,,,,,,,,,,,,,,,,,,,,,,,,,,,,,,,,,,,,,,,,,,,,,,
377619,001,2022-11-20_23h58.20.098,Info_measure_main_exp,2022.2.2,MacIntel,60.0024001,,,,,,,,,,,,,,,,,,masks/mask_002.jpg,,,,,,,,,,,,,,,,,,,,,,,,,,,,,,,,,,,,,,,,,,,0,2,2,1,1,,,,,,,,,,,,,,,,,,,,,,,,,,,,,,,,,,,,,,,,,,,,,,
377619,001,2022-11-20_23h58.20.098,Info_measure_main_exp,2022.2.2,MacIntel,60.0024001,,,,,,,,,,,,,,,,,,masks/mask_005.jpg,,,,,,,,,,,,,,,,,,,,,,,,,,,,,,,,,,,,,,,,,,,0,3,3,4,1,,,,,,,,,,,,,,,,,,,,,,,,,,,,,,,,,,,,,,,,,,,,,,
377619,001,2022-11-20_23h58.20.098,Info_measure_main_exp,2022.2.2,MacIntel,60.0024001,,,,,,,,,,,,,,,,,,masks/mask_004.jpg,,,,,,,,,,,,,,,,,,,,,,,,,,,,,,,,,,,,,,,,,,,0,4,4,3,1,,,,,,,,,,,,,,,,,,,,,,,,,,,,,,,,,,,,,,,,,,,,,,
377619,001,2022-11-20_23h58.20.098,Info_measure_main_exp,2022.2.2,MacIntel,60.0024001,,,,,,,,,,,,,,,,,,masks/mask_004.jpg,,,,,,,,,,,,,,,,,,,,,,,,,,,,,,,,,,,,,,,,,,,,,,,,0,0,0,3,1,,,,,,,,,,,,,,,,,,,,,,,,,,,,,,,,,,,,,,,,,
377619,001,2022-11-20_23h58.20.098,Info_measure_main_exp,2022.2.2,MacIntel,60.0024001,,,,,,,,,,,,,,,,,,masks/mask_001.jpg,,,,,,,,,,,,,,,,,,,,,,,,,,,,,,,,,,,,,,,,,,,,,,,,0,1,1,0,1,,,,,,,,,,,,,,,,,,,,,,,,,,,,,,,,,,,,,,,,,
377619,001,2022-11-20_23h58.20.098,Info_measure_main_exp,2022.2.2,MacIntel,60.0024001,,,,,,,,,,,,,,,,,,masks/mask_005.jpg,,,,,,,,,,,,,,,,,,,,,,,,,,,,,,,,,,,,,,,,,,,,,,,,0,2,2,4,1,,,,,,,,,,,,,,,,,,,,,,,,,,,,,,,,,,,,,,,,,
377619,001,2022-11-20_23h58.20.098,Info_measure_main_exp,2022.2.2,MacIntel,60.0024001,,,,,,,,,,,,,,,,,,masks/mask_002.jpg,,,,,,,,,,,,,,,,,,,,,,,,,,,,,,,,,,,,,,,,,,,,,,,,0,3,3,1,1,,,,,,,,,,,,,,,,,,,,,,,,,,,,,,,,,,,,,,,,,
377619,001,2022-11-20_23h58.20.098,Info_measure_main_exp,2022.2.2,MacIntel,60.0024001,,,,,,,,,,,,,,,,,,masks/mask_003.jpg,,,,,,,,,,,,,,,,,,,,,,,,,,,,,,,,,,,,,,,,,,,,,,,,0,4,4,2,1,,,,,,,,,,,,,,,,,,,,,,,,,,,,,,,,,,,,,,,,,
377619,001,2022-11-20_23h58.20.098,Info_measure_main_exp,2022.2.2,MacIntel,60.0024001,,,,,,,,,,,,,,,,,,,,,,,,,,,,,,5,1.7505,1,,,,,,,,,,,,0,131,5,5,2142,2190,absent_patch/patch0002142.jpg,absent_patch/patch0002190.jpg,,,,,,,,,,,,,,,,,,,,0.129605035,-0.079496528,1,0,0,response3disk,30,-0.010069444,-0.004240451,1,0,0,center_square,0,29,29,70,1,,,,,,,,,,,,,,,,,,,,,,,
377619,001,2022-11-20_23h58.20.098,Info_measure_main_exp,2022.2.2,MacIntel,60.0024001,,,,,,,,,,,,,,,,,,masks/mask_003.jpg,,,,,,,,,,,,,,,,,,,,,,,,,,,,,,,,,,,,,,,,,,,0,0,0,2,1,,,,,,,,,,,,,,,,,,,,,,,,,,,,,,,,,,,,,,,,,,,,,,
377619,001,2022-11-20_23h58.20.098,Info_measure_main_exp,2022.2.2,MacIntel,60.0024001,,,,,,,,,,,,,,,,,,masks/mask_002.jpg,,,,,,,,,,,,,,,,,,,,,,,,,,,,,,,,,,,,,,,,,,,0,1,1,1,1,,,,,,,,,,,,,,,,,,,,,,,,,,,,,,,,,,,,,,,,,,,,,,
377619,001,2022-11-20_23h58.20.098,Info_measure_main_exp,2022.2.2,MacIntel,60.0024001,,,,,,,,,,,,,,,,,,masks/mask_005.jpg,,,,,,,,,,,,,,,,,,,,,,,,,,,,,,,,,,,,,,,,,,,0,2,2,4,1,,,,,,,,,,,,,,,,,,,,,,,,,,,,,,,,,,,,,,,,,,,,,,
377619,001,2022-11-20_23h58.20.098,Info_measure_main_exp,2022.2.2,MacIntel,60.0024001,,,,,,,,,,,,,,,,,,masks/mask_004.jpg,,,,,,,,,,,,,,,,,,,,,,,,,,,,,,,,,,,,,,,,,,,0,3,3,3,1,,,,,,,,,,,,,,,,,,,,,,,,,,,,,,,,,,,,,,,,,,,,,,
377619,001,2022-11-20_23h58.20.098,Info_measure_main_exp,2022.2.2,MacIntel,60.0024001,,,,,,,,,,,,,,,,,,masks/mask_001.jpg,,,,,,,,,,,,,,,,,,,,,,,,,,,,,,,,,,,,,,,,,,,0,4,4,0,1,,,,,,,,,,,,,,,,,,,,,,,,,,,,,,,,,,,,,,,,,,,,,,
377619,001,2022-11-20_23h58.20.098,Info_measure_main_exp,2022.2.2,MacIntel,60.0024001,,,,,,,,,,,,,,,,,,masks/mask_004.jpg,,,,,,,,,,,,,,,,,,,,,,,,,,,,,,,,,,,,,,,,,,,,,,,,0,0,0,3,1,,,,,,,,,,,,,,,,,,,,,,,,,,,,,,,,,,,,,,,,,
377619,001,2022-11-20_23h58.20.098,Info_measure_main_exp,2022.2.2,MacIntel,60.0024001,,,,,,,,,,,,,,,,,,masks/mask_002.jpg,,,,,,,,,,,,,,,,,,,,,,,,,,,,,,,,,,,,,,,,,,,,,,,,0,1,1,1,1,,,,,,,,,,,,,,,,,,,,,,,,,,,,,,,,,,,,,,,,,
377619,001,2022-11-20_23h58.20.098,Info_measure_main_exp,2022.2.2,MacIntel,60.0024001,,,,,,,,,,,,,,,,,,masks/mask_001.jpg,,,,,,,,,,,,,,,,,,,,,,,,,,,,,,,,,,,,,,,,,,,,,,,,0,2,2,0,1,,,,,,,,,,,,,,,,,,,,,,,,,,,,,,,,,,,,,,,,,
377619,001,2022-11-20_23h58.20.098,Info_measure_main_exp,2022.2.2,MacIntel,60.0024001,,,,,,,,,,,,,,,,,,masks/mask_005.jpg,,,,,,,,,,,,,,,,,,,,,,,,,,,,,,,,,,,,,,,,,,,,,,,,0,3,3,4,1,,,,,,,,,,,,,,,,,,,,,,,,,,,,,,,,,,,,,,,,,
377619,001,2022-11-20_23h58.20.098,Info_measure_main_exp,2022.2.2,MacIntel,60.0024001,,,,,,,,,,,,,,,,,,masks/mask_003.jpg,,,,,,,,,,,,,,,,,,,,,,,,,,,,,,,,,,,,,,,,,,,,,,,,0,4,4,2,1,,,,,,,,,,,,,,,,,,,,,,,,,,,,,,,,,,,,,,,,,
377619,001,2022-11-20_23h58.20.098,Info_measure_main_exp,2022.2.2,MacIntel,60.0024001,,,,,,,,,,,,,,,,,,,,,,,,,,,,,,3,1.1837,1,,,,,,,,,,,,1,131,5,5,1,2166,present_patch/cong_131_5_a.jpg,absent_patch/patch0002166.jpg,,,,,,,,,,,,,,,,,,,,-0.018654514,-0.105520833,1,0,0,response5disk,31,-0.006419271,0.002478299,1,0,0,center_square,0,30,30,54,1,,,,,,,,,,,,,,,,,,,,,,,
377619,001,2022-11-20_23h58.20.098,Info_measure_main_exp,2022.2.2,MacIntel,60.0024001,,,,,,,,,,,,,,,,,,masks/mask_004.jpg,,,,,,,,,,,,,,,,,,,,,,,,,,,,,,,,,,,,,,,,,,,0,0,0,3,1,,,,,,,,,,,,,,,,,,,,,,,,,,,,,,,,,,,,,,,,,,,,,,
377619,001,2022-11-20_23h58.20.098,Info_measure_main_exp,2022.2.2,MacIntel,60.0024001,,,,,,,,,,,,,,,,,,masks/mask_002.jpg,,,,,,,,,,,,,,,,,,,,,,,,,,,,,,,,,,,,,,,,,,,0,1,1,1,1,,,,,,,,,,,,,,,,,,,,,,,,,,,,,,,,,,,,,,,,,,,,,,
377619,001,2022-11-20_23h58.20.098,Info_measure_main_exp,2022.2.2,MacIntel,60.0024001,,,,,,,,,,,,,,,,,,masks/mask_003.jpg,,,,,,,,,,,,,,,,,,,,,,,,,,,,,,,,,,,,,,,,,,,0,2,2,2,1,,,,,,,,,,,,,,,,,,,,,,,,,,,,,,,,,,,,,,,,,,,,,,
377619,001,2022-11-20_23h58.20.098,Info_measure_main_exp,2022.2.2,MacIntel,60.0024001,,,,,,,,,,,,,,,,,,masks/mask_005.jpg,,,,,,,,,,,,,,,,,,,,,,,,,,,,,,,,,,,,,,,,,,,0,3,3,4,1,,,,,,,,,,,,,,,,,,,,,,,,,,,,,,,,,,,,,,,,,,,,,,
377619,001,2022-11-20_23h58.20.098,Info_measure_main_exp,2022.2.2,MacIntel,60.0024001,,,,,,,,,,,,,,,,,,masks/mask_001.jpg,,,,,,,,,,,,,,,,,,,,,,,,,,,,,,,,,,,,,,,,,,,0,4,4,0,1,,,,,,,,,,,,,,,,,,,,,,,,,,,,,,,,,,,,,,,,,,,,,,
377619,001,2022-11-20_23h58.20.098,Info_measure_main_exp,2022.2.2,MacIntel,60.0024001,,,,,,,,,,,,,,,,,,masks/mask_002.jpg,,,,,,,,,,,,,,,,,,,,,,,,,,,,,,,,,,,,,,,,,,,,,,,,0,0,0,1,1,,,,,,,,,,,,,,,,,,,,,,,,,,,,,,,,,,,,,,,,,
377619,001,2022-11-20_23h58.20.098,Info_measure_main_exp,2022.2.2,MacIntel,60.0024001,,,,,,,,,,,,,,,,,,masks/mask_005.jpg,,,,,,,,,,,,,,,,,,,,,,,,,,,,,,,,,,,,,,,,,,,,,,,,0,1,1,4,1,,,,,,,,,,,,,,,,,,,,,,,,,,,,,,,,,,,,,,,,,
377619,001,2022-11-20_23h58.20.098,Info_measure_main_exp,2022.2.2,MacIntel,60.0024001,,,,,,,,,,,,,,,,,,masks/mask_001.jpg,,,,,,,,,,,,,,,,,,,,,,,,,,,,,,,,,,,,,,,,,,,,,,,,0,2,2,0,1,,,,,,,,,,,,,,,,,,,,,,,,,,,,,,,,,,,,,,,,,
377619,001,2022-11-20_23h58.20.098,Info_measure_main_exp,2022.2.2,MacIntel,60.0024001,,,,,,,,,,,,,,,,,,masks/mask_004.jpg,,,,,,,,,,,,,,,,,,,,,,,,,,,,,,,,,,,,,,,,,,,,,,,,0,3,3,3,1,,,,,,,,,,,,,,,,,,,,,,,,,,,,,,,,,,,,,,,,,
377619,001,2022-11-20_23h58.20.098,Info_measure_main_exp,2022.2.2,MacIntel,60.0024001,,,,,,,,,,,,,,,,,,masks/mask_003.jpg,,,,,,,,,,,,,,,,,,,,,,,,,,,,,,,,,,,,,,,,,,,,,,,,0,4,4,2,1,,,,,,,,,,,,,,,,,,,,,,,,,,,,,,,,,,,,,,,,,
377619,001,2022-11-20_23h58.20.098,Info_measure_main_exp,2022.2.2,MacIntel,60.0024001,,,,,,,,,,,,,,,,,,,,,,,,,,,,,,0,0.7497,1,,,,,,,,,,,,0,131,5,5,1950,1950,absent_patch/patch0001950.jpg,absent_patch/patch0001950.jpg,,,,,,,,,,,,,,,,,,,,-0.033554687,0.149110243,1,0,0,response7disk,32,0.008185764,0.005868056,1,0,0,center_square,0,31,31,92,1,,,,,,,,,,,,,,,,,,,,,,,
377619,001,2022-11-20_23h58.20.098,Info_measure_main_exp,2022.2.2,MacIntel,60.0024001,,,,,,,,,,,,,,,,,,masks/mask_001.jpg,,,,,,,,,,,,,,,,,,,,,,,,,,,,,,,,,,,,,,,,,,,0,0,0,0,1,,,,,,,,,,,,,,,,,,,,,,,,,,,,,,,,,,,,,,,,,,,,,,
377619,001,2022-11-20_23h58.20.098,Info_measure_main_exp,2022.2.2,MacIntel,60.0024001,,,,,,,,,,,,,,,,,,masks/mask_003.jpg,,,,,,,,,,,,,,,,,,,,,,,,,,,,,,,,,,,,,,,,,,,0,1,1,2,1,,,,,,,,,,,,,,,,,,,,,,,,,,,,,,,,,,,,,,,,,,,,,,
377619,001,2022-11-20_23h58.20.098,Info_measure_main_exp,2022.2.2,MacIntel,60.0024001,,,,,,,,,,,,,,,,,,masks/mask_005.jpg,,,,,,,,,,,,,,,,,,,,,,,,,,,,,,,,,,,,,,,,,,,0,2,2,4,1,,,,,,,,,,,,,,,,,,,,,,,,,,,,,,,,,,,,,,,,,,,,,,
377619,001,2022-11-20_23h58.20.098,Info_measure_main_exp,2022.2.2,MacIntel,60.0024001,,,,,,,,,,,,,,,,,,masks/mask_002.jpg,,,,,,,,,,,,,,,,,,,,,,,,,,,,,,,,,,,,,,,,,,,0,3,3,1,1,,,,,,,,,,,,,,,,,,,,,,,,,,,,,,,,,,,,,,,,,,,,,,
377619,001,2022-11-20_23h58.20.098,Info_measure_main_exp,2022.2.2,MacIntel,60.0024001,,,,,,,,,,,,,,,,,,masks/mask_004.jpg,,,,,,,,,,,,,,,,,,,,,,,,,,,,,,,,,,,,,,,,,,,0,4,4,3,1,,,,,,,,,,,,,,,,,,,,,,,,,,,,,,,,,,,,,,,,,,,,,,
377619,001,2022-11-20_23h58.20.098,Info_measure_main_exp,2022.2.2,MacIntel,60.0024001,,,,,,,,,,,,,,,,,,masks/mask_004.jpg,,,,,,,,,,,,,,,,,,,,,,,,,,,,,,,,,,,,,,,,,,,,,,,,0,0,0,3,1,,,,,,,,,,,,,,,,,,,,,,,,,,,,,,,,,,,,,,,,,
377619,001,2022-11-20_23h58.20.098,Info_measure_main_exp,2022.2.2,MacIntel,60.0024001,,,,,,,,,,,,,,,,,,masks/mask_003.jpg,,,,,,,,,,,,,,,,,,,,,,,,,,,,,,,,,,,,,,,,,,,,,,,,0,1,1,2,1,,,,,,,,,,,,,,,,,,,,,,,,,,,,,,,,,,,,,,,,,
377619,001,2022-11-20_23h58.20.098,Info_measure_main_exp,2022.2.2,MacIntel,60.0024001,,,,,,,,,,,,,,,,,,masks/mask_001.jpg,,,,,,,,,,,,,,,,,,,,,,,,,,,,,,,,,,,,,,,,,,,,,,,,0,2,2,0,1,,,,,,,,,,,,,,,,,,,,,,,,,,,,,,,,,,,,,,,,,
377619,001,2022-11-20_23h58.20.098,Info_measure_main_exp,2022.2.2,MacIntel,60.0024001,,,,,,,,,,,,,,,,,,masks/mask_002.jpg,,,,,,,,,,,,,,,,,,,,,,,,,,,,,,,,,,,,,,,,,,,,,,,,0,3,3,1,1,,,,,,,,,,,,,,,,,,,,,,,,,,,,,,,,,,,,,,,,,
377619,001,2022-11-20_23h58.20.098,Info_measure_main_exp,2022.2.2,MacIntel,60.0024001,,,,,,,,,,,,,,,,,,masks/mask_005.jpg,,,,,,,,,,,,,,,,,,,,,,,,,,,,,,,,,,,,,,,,,,,,,,,,0,4,4,4,1,,,,,,,,,,,,,,,,,,,,,,,,,,,,,,,,,,,,,,,,,
377619,001,2022-11-20_23h58.20.098,Info_measure_main_exp,2022.2.2,MacIntel,60.0024001,,,,,,,,,,,,,,,,,,,,,,,,,,,,,,2,0.9002,1,,,,,,,,,,,,0,131,5,5,2238,2166,absent_patch/patch0002238.jpg,absent_patch/patch0002166.jpg,,,,,,,,,,,,,,,,,,,,-0.132408854,-0.069157986,1,0,0,response5disk,33,-0.001775174,-0.002760417,1,0,0,center_square,0,32,32,118,1,,,,,,,,,,,,,,,,,,,,,,,
377619,001,2022-11-20_23h58.20.098,Info_measure_main_exp,2022.2.2,MacIntel,60.0024001,,,,,,,,,,,,,,,,,,masks/mask_004.jpg,,,,,,,,,,,,,,,,,,,,,,,,,,,,,,,,,,,,,,,,,,,0,0,0,3,1,,,,,,,,,,,,,,,,,,,,,,,,,,,,,,,,,,,,,,,,,,,,,,
377619,001,2022-11-20_23h58.20.098,Info_measure_main_exp,2022.2.2,MacIntel,60.0024001,,,,,,,,,,,,,,,,,,masks/mask_003.jpg,,,,,,,,,,,,,,,,,,,,,,,,,,,,,,,,,,,,,,,,,,,0,1,1,2,1,,,,,,,,,,,,,,,,,,,,,,,,,,,,,,,,,,,,,,,,,,,,,,
377619,001,2022-11-20_23h58.20.098,Info_measure_main_exp,2022.2.2,MacIntel,60.0024001,,,,,,,,,,,,,,,,,,masks/mask_001.jpg,,,,,,,,,,,,,,,,,,,,,,,,,,,,,,,,,,,,,,,,,,,0,2,2,0,1,,,,,,,,,,,,,,,,,,,,,,,,,,,,,,,,,,,,,,,,,,,,,,
377619,001,2022-11-20_23h58.20.098,Info_measure_main_exp,2022.2.2,MacIntel,60.0024001,,,,,,,,,,,,,,,,,,masks/mask_005.jpg,,,,,,,,,,,,,,,,,,,,,,,,,,,,,,,,,,,,,,,,,,,0,3,3,4,1,,,,,,,,,,,,,,,,,,,,,,,,,,,,,,,,,,,,,,,,,,,,,,
377619,001,2022-11-20_23h58.20.098,Info_measure_main_exp,2022.2.2,MacIntel,60.0024001,,,,,,,,,,,,,,,,,,masks/mask_002.jpg,,,,,,,,,,,,,,,,,,,,,,,,,,,,,,,,,,,,,,,,,,,0,4,4,1,1,,,,,,,,,,,,,,,,,,,,,,,,,,,,,,,,,,,,,,,,,,,,,,
377619,001,2022-11-20_23h58.20.098,Info_measure_main_exp,2022.2.2,MacIntel,60.0024001,,,,,,,,,,,,,,,,,,masks/mask_003.jpg,,,,,,,,,,,,,,,,,,,,,,,,,,,,,,,,,,,,,,,,,,,,,,,,0,0,0,2,1,,,,,,,,,,,,,,,,,,,,,,,,,,,,,,,,,,,,,,,,,
377619,001,2022-11-20_23h58.20.098,Info_measure_main_exp,2022.2.2,MacIntel,60.0024001,,,,,,,,,,,,,,,,,,masks/mask_004.jpg,,,,,,,,,,,,,,,,,,,,,,,,,,,,,,,,,,,,,,,,,,,,,,,,0,1,1,3,1,,,,,,,,,,,,,,,,,,,,,,,,,,,,,,,,,,,,,,,,,
377619,001,2022-11-20_23h58.20.098,Info_measure_main_exp,2022.2.2,MacIntel,60.0024001,,,,,,,,,,,,,,,,,,masks/mask_002.jpg,,,,,,,,,,,,,,,,,,,,,,,,,,,,,,,,,,,,,,,,,,,,,,,,0,2,2,1,1,,,,,,,,,,,,,,,,,,,,,,,,,,,,,,,,,,,,,,,,,
377619,001,2022-11-20_23h58.20.098,Info_measure_main_exp,2022.2.2,MacIntel,60.0024001,,,,,,,,,,,,,,,,,,masks/mask_005.jpg,,,,,,,,,,,,,,,,,,,,,,,,,,,,,,,,,,,,,,,,,,,,,,,,0,3,3,4,1,,,,,,,,,,,,,,,,,,,,,,,,,,,,,,,,,,,,,,,,,
377619,001,2022-11-20_23h58.20.098,Info_measure_main_exp,2022.2.2,MacIntel,60.0024001,,,,,,,,,,,,,,,,,,masks/mask_001.jpg,,,,,,,,,,,,,,,,,,,,,,,,,,,,,,,,,,,,,,,,,,,,,,,,0,4,4,0,1,,,,,,,,,,,,,,,,,,,,,,,,,,,,,,,,,,,,,,,,,
377619,001,2022-11-20_23h58.20.098,Info_measure_main_exp,2022.2.2,MacIntel,60.0024001,,,,,,,,,,,,,,,,,,,,,,,,,,,,,,3,2.2832,1,,,,,,,,,,,,0,131,5,5,2250,1950,absent_patch/patch0002250.jpg,absent_patch/patch0001950.jpg,,,,,,,,,,,,,,,,,,,,-0.069392361,-0.137669271,1,0,0,response5disk,34,0.003867187,-0.004292535,1,0,0,center_square,0,33,33,16,1,,,,,,,,,,,,,,,,,,,,,,,
377619,001,2022-11-20_23h58.20.098,Info_measure_main_exp,2022.2.2,MacIntel,60.0024001,,,,,,,,,,,,,,,,,,masks/mask_001.jpg,,,,,,,,,,,,,,,,,,,,,,,,,,,,,,,,,,,,,,,,,,,0,0,0,0,1,,,,,,,,,,,,,,,,,,,,,,,,,,,,,,,,,,,,,,,,,,,,,,
377619,001,2022-11-20_23h58.20.098,Info_measure_main_exp,2022.2.2,MacIntel,60.0024001,,,,,,,,,,,,,,,,,,masks/mask_002.jpg,,,,,,,,,,,,,,,,,,,,,,,,,,,,,,,,,,,,,,,,,,,0,1,1,1,1,,,,,,,,,,,,,,,,,,,,,,,,,,,,,,,,,,,,,,,,,,,,,,
377619,001,2022-11-20_23h58.20.098,Info_measure_main_exp,2022.2.2,MacIntel,60.0024001,,,,,,,,,,,,,,,,,,masks/mask_003.jpg,,,,,,,,,,,,,,,,,,,,,,,,,,,,,,,,,,,,,,,,,,,0,2,2,2,1,,,,,,,,,,,,,,,,,,,,,,,,,,,,,,,,,,,,,,,,,,,,,,
377619,001,2022-11-20_23h58.20.098,Info_measure_main_exp,2022.2.2,MacIntel,60.0024001,,,,,,,,,,,,,,,,,,masks/mask_005.jpg,,,,,,,,,,,,,,,,,,,,,,,,,,,,,,,,,,,,,,,,,,,0,3,3,4,1,,,,,,,,,,,,,,,,,,,,,,,,,,,,,,,,,,,,,,,,,,,,,,
377619,001,2022-11-20_23h58.20.098,Info_measure_main_exp,2022.2.2,MacIntel,60.0024001,,,,,,,,,,,,,,,,,,masks/mask_004.jpg,,,,,,,,,,,,,,,,,,,,,,,,,,,,,,,,,,,,,,,,,,,0,4,4,3,1,,,,,,,,,,,,,,,,,,,,,,,,,,,,,,,,,,,,,,,,,,,,,,
