participant,session,date,expName,psychopyVersion,OS,frameRate,space_press_continue.keys,space_press_continue.rt,space_press_continue_2.keys,space_press_continue_2.rt,space_press_continue_3.keys,space_press_continue_3.rt,space_press_continue_4.keys,space_press_continue_4.rt,space_press_continue_5.keys,space_press_continue_5.rt,space_press_continue_6.keys,space_press_continue_6.rt,prac_mask_loop_1.thisRepN,prac_mask_loop_1.thisTrialN,prac_mask_loop_1.thisN,prac_mask_loop_1.thisIndex,prac_mask_loop_1.ran,mask_name,prac_mask_loop_2.thisRepN,prac_mask_loop_2.thisTrialN,prac_mask_loop_2.thisN,prac_mask_loop_2.thisIndex,prac_mask_loop_2.ran,mouse_2.x,mouse_2.y,mouse_2.leftButton,mouse_2.midButton,mouse_2.rightButton,mouse_2.clicked_name,similarity,response_time,Pass,mouse_12.x,mouse_12.y,mouse_12.leftButton,mouse_12.midButton,mouse_12.rightButton,mouse_12.clicked_name,prac_loop.thisRepN,prac_loop.thisTrialN,prac_loop.thisN,prac_loop.thisIndex,prac_loop.ran,Pair_type,Image_num,Patch_1_loc,Patch_2_loc,Patch_1_info,Patch_2_info,Patch_1_name,Patch_2_name,mouse_1.x,mouse_1.y,mouse_1.leftButton,mouse_1.midButton,mouse_1.rightButton,mouse_1.time,mouse_1.clicked_name,space_press_continue_7.keys,space_press_continue_7.rt,mask_loop.thisRepN,mask_loop.thisTrialN,mask_loop.thisN,mask_loop.thisIndex,mask_loop.ran,mask_loop_2.thisRepN,mask_loop_2.thisTrialN,mask_loop_2.thisN,mask_loop_2.thisIndex,mask_loop_2.ran,mouse.x,mouse.y,mouse.leftButton,mouse.midButton,mouse.rightButton,mouse.clicked_name,trialNumber,mouse_11.x,mouse_11.y,mouse_11.leftButton,mouse_11.midButton,mouse_11.rightButton,mouse_11.clicked_name,first_pass_loop.thisRepN,first_pass_loop.thisTrialN,first_pass_loop.thisN,first_pass_loop.thisIndex,first_pass_loop.ran,mask_loop_3.thisRepN,mask_loop_3.thisTrialN,mask_loop_3.thisN,mask_loop_3.thisIndex,mask_loop_3.ran,mask_loop_4.thisRepN,mask_loop_4.thisTrialN,mask_loop_4.thisN,mask_loop_4.thisIndex,mask_loop_4.ran,mouse_3.x,mouse_3.y,mouse_3.leftButton,mouse_3.midButton,mouse_3.rightButton,mouse_3.clicked_name,double_pass_loop.thisRepN,double_pass_loop.thisTrialN,double_pass_loop.thisN,double_pass_loop.thisIndex,double_pass_loop.ran,space_exit.keys,space_exit.rt
377704,001,2022-11-21_24h00.39.455,Info_measure_main_exp,2022.2.2,Win32,20.56766763,,,,,,,,,,,,,,,,,,,,,,,,,,,,,,,,,,,,,,,,,,,,,,,,,,,,,,,,,,,,,,,,,,,,,,,,,,,,,,,,,,,,,,,,,,,,,,,,,,,,,,,,,,,,,,,
377704,001,2022-11-21_24h00.39.455,Info_measure_main_exp,2022.2.2,Win32,20.56766763,,,,,,,,,,,,,,,,,,,,,,,,,,,,,,,,,,,,,,,,,,,,,,,,,,,,,,,,,,,,,,,,,,,,,,,,,,,,,,,,,,,,,,,,,,,,,,,,,,,,,,,,,,,,,,,
377704,001,2022-11-21_24h00.39.455,Info_measure_main_exp,2022.2.2,Win32,20.56766763,space,239.1188,,,,,,,,,,,,,,,,,,,,,,,,,,,,,,,,,,,,,,,,,,,,,,,,,,,,,,,,,,,,,,,,,,,,,,,,,,,,,,,,,,,,,,,,,,,,,,,,,,,,,,,,,,,,,
377704,001,2022-11-21_24h00.39.455,Info_measure_main_exp,2022.2.2,Win32,20.56766763,,,space,6.4846,,,,,,,,,,,,,,,,,,,,,,,,,,,,,,,,,,,,,,,,,,,,,,,,,,,,,,,,,,,,,,,,,,,,,,,,,,,,,,,,,,,,,,,,,,,,,,,,,,,,,,,,,,,
377704,001,2022-11-21_24h00.39.455,Info_measure_main_exp,2022.2.2,Win32,20.56766763,,,,,space,3.6297,,,,,,,,,,,,,,,,,,,,,,,,,,,,,,,,,,,,,,,,,,,,,,,,,,,,,,,,,,,,,,,,,,,,,,,,,,,,,,,,,,,,,,,,,,,,,,,,,,,,,,,,,
377704,001,2022-11-21_24h00.39.455,Info_measure_main_exp,2022.2.2,Win32,20.56766763,,,,,,,space,12.4049,,,,,,,,,,,,,,,,,,,,,,,,,,,,,,,,,,,,,,,,,,,,,,,,,,,,,,,,,,,,,,,,,,,,,,,,,,,,,,,,,,,,,,,,,,,,,,,,,,,,,,,
377704,001,2022-11-21_24h00.39.455,Info_measure_main_exp,2022.2.2,Win32,20.56766763,,,,,,,,,space,4.7254,,,,,,,,,,,,,,,,,,,,,,,,,,,,,,,,,,,,,,,,,,,,,,,,,,,,,,,,,,,,,,,,,,,,,,,,,,,,,,,,,,,,,,,,,,,,,,,,,,,,,
377704,001,2022-11-21_24h00.39.455,Info_measure_main_exp,2022.2.2,Win32,20.56766763,,,,,,,,,,,space,2.577,,,,,,,,,,,,,,,,,,,,,,,,,,,,,,,,,,,,,,,,,,,,,,,,,,,,,,,,,,,,,,,,,,,,,,,,,,,,,,,,,,,,,,,,,,,,,,,,,,,
377704,001,2022-11-21_24h00.39.455,Info_measure_main_exp,2022.2.2,Win32,20.56766763,,,,,,,,,,,,,0,0,0,0,1,masks/mask_001.jpg,,,,,,,,,,,,,,,,,,,,,,,,,,,,,,,,,,,,,,,,,,,,,,,,,,,,,,,,,,,,,,,,,,,,,,,,,,,,,,,,,,,,,,,,,,,,,
377704,001,2022-11-21_24h00.39.455,Info_measure_main_exp,2022.2.2,Win32,20.56766763,,,,,,,,,,,,,0,1,1,1,1,masks/mask_002.jpg,,,,,,,,,,,,,,,,,,,,,,,,,,,,,,,,,,,,,,,,,,,,,,,,,,,,,,,,,,,,,,,,,,,,,,,,,,,,,,,,,,,,,,,,,,,,,
377704,001,2022-11-21_24h00.39.455,Info_measure_main_exp,2022.2.2,Win32,20.56766763,,,,,,,,,,,,,0,2,2,2,1,masks/mask_003.jpg,,,,,,,,,,,,,,,,,,,,,,,,,,,,,,,,,,,,,,,,,,,,,,,,,,,,,,,,,,,,,,,,,,,,,,,,,,,,,,,,,,,,,,,,,,,,,
377704,001,2022-11-21_24h00.39.455,Info_measure_main_exp,2022.2.2,Win32,20.56766763,,,,,,,,,,,,,0,3,3,4,1,masks/mask_005.jpg,,,,,,,,,,,,,,,,,,,,,,,,,,,,,,,,,,,,,,,,,,,,,,,,,,,,,,,,,,,,,,,,,,,,,,,,,,,,,,,,,,,,,,,,,,,,,
377704,001,2022-11-21_24h00.39.455,Info_measure_main_exp,2022.2.2,Win32,20.56766763,,,,,,,,,,,,,0,4,4,3,1,masks/mask_004.jpg,,,,,,,,,,,,,,,,,,,,,,,,,,,,,,,,,,,,,,,,,,,,,,,,,,,,,,,,,,,,,,,,,,,,,,,,,,,,,,,,,,,,,,,,,,,,,
377704,001,2022-11-21_24h00.39.455,Info_measure_main_exp,2022.2.2,Win32,20.56766763,,,,,,,,,,,,,,,,,,masks/mask_004.jpg,0,0,0,3,1,,,,,,,,,,,,,,,,,,,,,,,,,,,,,,,,,,,,,,,,,,,,,,,,,,,,,,,,,,,,,,,,,,,,,,,,,,,,,,,,,,,,,,,,
377704,001,2022-11-21_24h00.39.455,Info_measure_main_exp,2022.2.2,Win32,20.56766763,,,,,,,,,,,,,,,,,,masks/mask_002.jpg,0,1,1,1,1,,,,,,,,,,,,,,,,,,,,,,,,,,,,,,,,,,,,,,,,,,,,,,,,,,,,,,,,,,,,,,,,,,,,,,,,,,,,,,,,,,,,,,,,
377704,001,2022-11-21_24h00.39.455,Info_measure_main_exp,2022.2.2,Win32,20.56766763,,,,,,,,,,,,,,,,,,masks/mask_001.jpg,0,2,2,0,1,,,,,,,,,,,,,,,,,,,,,,,,,,,,,,,,,,,,,,,,,,,,,,,,,,,,,,,,,,,,,,,,,,,,,,,,,,,,,,,,,,,,,,,,
377704,001,2022-11-21_24h00.39.455,Info_measure_main_exp,2022.2.2,Win32,20.56766763,,,,,,,,,,,,,,,,,,masks/mask_005.jpg,0,3,3,4,1,,,,,,,,,,,,,,,,,,,,,,,,,,,,,,,,,,,,,,,,,,,,,,,,,,,,,,,,,,,,,,,,,,,,,,,,,,,,,,,,,,,,,,,,
377704,001,2022-11-21_24h00.39.455,Info_measure_main_exp,2022.2.2,Win32,20.56766763,,,,,,,,,,,,,,,,,,masks/mask_003.jpg,0,4,4,2,1,,,,,,,,,,,,,,,,,,,,,,,,,,,,,,,,,,,,,,,,,,,,,,,,,,,,,,,,,,,,,,,,,,,,,,,,,,,,,,,,,,,,,,,,
377704,001,2022-11-21_24h00.39.455,Info_measure_main_exp,2022.2.2,Win32,20.56766763,,,,,,,,,,,,,,,,,,,,,,,,0.101851852,0.053703704,1,0,0,response1disk,6,277.7427,1,0.000925926,0.00462963,1,0,0,center_square,0,0,0,2,1,0,131,5,5,2526,2526,prac_patch/patch0002526.jpg,prac_patch/patch0002526.jpg,,,,,,,,,,,,,,,,,,,,,,,,,,,,,,,,,,,,,,,,,,,,,,,,,,,,,,,,,,,,
377704,001,2022-11-21_24h00.39.455,Info_measure_main_exp,2022.2.2,Win32,20.56766763,,,,,,,,,,,,,0,0,0,4,1,masks/mask_005.jpg,,,,,,,,,,,,,,,,,,,,,,,,,,,,,,,,,,,,,,,,,,,,,,,,,,,,,,,,,,,,,,,,,,,,,,,,,,,,,,,,,,,,,,,,,,,,,
377704,001,2022-11-21_24h00.39.455,Info_measure_main_exp,2022.2.2,Win32,20.56766763,,,,,,,,,,,,,0,1,1,0,1,masks/mask_001.jpg,,,,,,,,,,,,,,,,,,,,,,,,,,,,,,,,,,,,,,,,,,,,,,,,,,,,,,,,,,,,,,,,,,,,,,,,,,,,,,,,,,,,,,,,,,,,,
377704,001,2022-11-21_24h00.39.455,Info_measure_main_exp,2022.2.2,Win32,20.56766763,,,,,,,,,,,,,0,2,2,2,1,masks/mask_003.jpg,,,,,,,,,,,,,,,,,,,,,,,,,,,,,,,,,,,,,,,,,,,,,,,,,,,,,,,,,,,,,,,,,,,,,,,,,,,,,,,,,,,,,,,,,,,,,
377704,001,2022-11-21_24h00.39.455,Info_measure_main_exp,2022.2.2,Win32,20.56766763,,,,,,,,,,,,,0,3,3,3,1,masks/mask_004.jpg,,,,,,,,,,,,,,,,,,,,,,,,,,,,,,,,,,,,,,,,,,,,,,,,,,,,,,,,,,,,,,,,,,,,,,,,,,,,,,,,,,,,,,,,,,,,,
377704,001,2022-11-21_24h00.39.455,Info_measure_main_exp,2022.2.2,Win32,20.56766763,,,,,,,,,,,,,0,4,4,1,1,masks/mask_002.jpg,,,,,,,,,,,,,,,,,,,,,,,,,,,,,,,,,,,,,,,,,,,,,,,,,,,,,,,,,,,,,,,,,,,,,,,,,,,,,,,,,,,,,,,,,,,,,
377704,001,2022-11-21_24h00.39.455,Info_measure_main_exp,2022.2.2,Win32,20.56766763,,,,,,,,,,,,,,,,,,masks/mask_004.jpg,0,0,0,3,1,,,,,,,,,,,,,,,,,,,,,,,,,,,,,,,,,,,,,,,,,,,,,,,,,,,,,,,,,,,,,,,,,,,,,,,,,,,,,,,,,,,,,,,,
377704,001,2022-11-21_24h00.39.455,Info_measure_main_exp,2022.2.2,Win32,20.56766763,,,,,,,,,,,,,,,,,,masks/mask_002.jpg,0,1,1,1,1,,,,,,,,,,,,,,,,,,,,,,,,,,,,,,,,,,,,,,,,,,,,,,,,,,,,,,,,,,,,,,,,,,,,,,,,,,,,,,,,,,,,,,,,
377704,001,2022-11-21_24h00.39.455,Info_measure_main_exp,2022.2.2,Win32,20.56766763,,,,,,,,,,,,,,,,,,masks/mask_001.jpg,0,2,2,0,1,,,,,,,,,,,,,,,,,,,,,,,,,,,,,,,,,,,,,,,,,,,,,,,,,,,,,,,,,,,,,,,,,,,,,,,,,,,,,,,,,,,,,,,,
377704,001,2022-11-21_24h00.39.455,Info_measure_main_exp,2022.2.2,Win32,20.56766763,,,,,,,,,,,,,,,,,,masks/mask_005.jpg,0,3,3,4,1,,,,,,,,,,,,,,,,,,,,,,,,,,,,,,,,,,,,,,,,,,,,,,,,,,,,,,,,,,,,,,,,,,,,,,,,,,,,,,,,,,,,,,,,
377704,001,2022-11-21_24h00.39.455,Info_measure_main_exp,2022.2.2,Win32,20.56766763,,,,,,,,,,,,,,,,,,masks/mask_003.jpg,0,4,4,2,1,,,,,,,,,,,,,,,,,,,,,,,,,,,,,,,,,,,,,,,,,,,,,,,,,,,,,,,,,,,,,,,,,,,,,,,,,,,,,,,,,,,,,,,,
377704,001,2022-11-21_24h00.39.455,Info_measure_main_exp,2022.2.2,Win32,20.56766763,,,,,,,,,,,,,,,,,,,,,,,,-0.066666667,0.106481481,1,0,0,response7disk,0,291.6695,1,0.008333333,0.011111111,1,0,0,center_square,0,1,1,0,1,0,131,5,5,2370,2406,prac_patch/patch0002370.jpg,prac_patch/patch0002406.jpg,,,,,,,,,,,,,,,,,,,,,,,,,,,,,,,,,,,,,,,,,,,,,,,,,,,,,,,,,,,,
377704,001,2022-11-21_24h00.39.455,Info_measure_main_exp,2022.2.2,Win32,20.56766763,,,,,,,,,,,,,0,0,0,2,1,masks/mask_003.jpg,,,,,,,,,,,,,,,,,,,,,,,,,,,,,,,,,,,,,,,,,,,,,,,,,,,,,,,,,,,,,,,,,,,,,,,,,,,,,,,,,,,,,,,,,,,,,
377704,001,2022-11-21_24h00.39.455,Info_measure_main_exp,2022.2.2,Win32,20.56766763,,,,,,,,,,,,,0,1,1,4,1,masks/mask_005.jpg,,,,,,,,,,,,,,,,,,,,,,,,,,,,,,,,,,,,,,,,,,,,,,,,,,,,,,,,,,,,,,,,,,,,,,,,,,,,,,,,,,,,,,,,,,,,,
377704,001,2022-11-21_24h00.39.455,Info_measure_main_exp,2022.2.2,Win32,20.56766763,,,,,,,,,,,,,0,2,2,3,1,masks/mask_004.jpg,,,,,,,,,,,,,,,,,,,,,,,,,,,,,,,,,,,,,,,,,,,,,,,,,,,,,,,,,,,,,,,,,,,,,,,,,,,,,,,,,,,,,,,,,,,,,
377704,001,2022-11-21_24h00.39.455,Info_measure_main_exp,2022.2.2,Win32,20.56766763,,,,,,,,,,,,,0,3,3,0,1,masks/mask_001.jpg,,,,,,,,,,,,,,,,,,,,,,,,,,,,,,,,,,,,,,,,,,,,,,,,,,,,,,,,,,,,,,,,,,,,,,,,,,,,,,,,,,,,,,,,,,,,,
377704,001,2022-11-21_24h00.39.455,Info_measure_main_exp,2022.2.2,Win32,20.56766763,,,,,,,,,,,,,0,4,4,1,1,masks/mask_002.jpg,,,,,,,,,,,,,,,,,,,,,,,,,,,,,,,,,,,,,,,,,,,,,,,,,,,,,,,,,,,,,,,,,,,,,,,,,,,,,,,,,,,,,,,,,,,,,
377704,001,2022-11-21_24h00.39.455,Info_measure_main_exp,2022.2.2,Win32,20.56766763,,,,,,,,,,,,,,,,,,masks/mask_001.jpg,0,0,0,0,1,,,,,,,,,,,,,,,,,,,,,,,,,,,,,,,,,,,,,,,,,,,,,,,,,,,,,,,,,,,,,,,,,,,,,,,,,,,,,,,,,,,,,,,,
377704,001,2022-11-21_24h00.39.455,Info_measure_main_exp,2022.2.2,Win32,20.56766763,,,,,,,,,,,,,,,,,,masks/mask_002.jpg,0,1,1,1,1,,,,,,,,,,,,,,,,,,,,,,,,,,,,,,,,,,,,,,,,,,,,,,,,,,,,,,,,,,,,,,,,,,,,,,,,,,,,,,,,,,,,,,,,
377704,001,2022-11-21_24h00.39.455,Info_measure_main_exp,2022.2.2,Win32,20.56766763,,,,,,,,,,,,,,,,,,masks/mask_005.jpg,0,2,2,4,1,,,,,,,,,,,,,,,,,,,,,,,,,,,,,,,,,,,,,,,,,,,,,,,,,,,,,,,,,,,,,,,,,,,,,,,,,,,,,,,,,,,,,,,,
377704,001,2022-11-21_24h00.39.455,Info_measure_main_exp,2022.2.2,Win32,20.56766763,,,,,,,,,,,,,,,,,,masks/mask_004.jpg,0,3,3,3,1,,,,,,,,,,,,,,,,,,,,,,,,,,,,,,,,,,,,,,,,,,,,,,,,,,,,,,,,,,,,,,,,,,,,,,,,,,,,,,,,,,,,,,,,
377704,001,2022-11-21_24h00.39.455,Info_measure_main_exp,2022.2.2,Win32,20.56766763,,,,,,,,,,,,,,,,,,masks/mask_003.jpg,0,4,4,2,1,,,,,,,,,,,,,,,,,,,,,,,,,,,,,,,,,,,,,,,,,,,,,,,,,,,,,,,,,,,,,,,,,,,,,,,,,,,,,,,,,,,,,,,,
377704,001,2022-11-21_24h00.39.455,Info_measure_main_exp,2022.2.2,Win32,20.56766763,,,,,,,,,,,,,,,,,,,,,,,,-0.108333333,0.149074074,1,0,0,response7disk,0,302.0017,1,-0.002777778,-0.005555556,1,0,0,center_square,0,2,2,1,1,0,131,5,5,2514,2490,prac_patch/patch0002514.jpg,prac_patch/patch0002490.jpg,,,,,,,,,,,,,,,,,,,,,,,,,,,,,,,,,,,,,,,,,,,,,,,,,,,,,,,,,,,,
377704,001,2022-11-21_24h00.39.455,Info_measure_main_exp,2022.2.2,Win32,20.56766763,,,,,,,,,,,,,,,,,,,,,,,,,,,,,,,,,,,,,,,,,,,,,,,,,,,,,,,,,,,space,2.3444,,,,,,,,,,,,,,,,,,,,,,,,,,,,,,,,,,,,,,,,,,,,,,,,,,,
377704,001,2022-11-21_24h00.39.455,Info_measure_main_exp,2022.2.2,Win32,20.56766763,,,,,,,,,,,,,,,,,,masks/mask_003.jpg,,,,,,,,,,,,,,,,,,,,,,,,,,,,,,,,,,,,,,,,,,,0,0,0,2,1,,,,,,,,,,,,,,,,,,,,,,,,,,,,,,,,,,,,,,,,,,,,,,
377704,001,2022-11-21_24h00.39.455,Info_measure_main_exp,2022.2.2,Win32,20.56766763,,,,,,,,,,,,,,,,,,masks/mask_001.jpg,,,,,,,,,,,,,,,,,,,,,,,,,,,,,,,,,,,,,,,,,,,0,1,1,0,1,,,,,,,,,,,,,,,,,,,,,,,,,,,,,,,,,,,,,,,,,,,,,,
377704,001,2022-11-21_24h00.39.455,Info_measure_main_exp,2022.2.2,Win32,20.56766763,,,,,,,,,,,,,,,,,,masks/mask_005.jpg,,,,,,,,,,,,,,,,,,,,,,,,,,,,,,,,,,,,,,,,,,,0,2,2,4,1,,,,,,,,,,,,,,,,,,,,,,,,,,,,,,,,,,,,,,,,,,,,,,
377704,001,2022-11-21_24h00.39.455,Info_measure_main_exp,2022.2.2,Win32,20.56766763,,,,,,,,,,,,,,,,,,masks/mask_002.jpg,,,,,,,,,,,,,,,,,,,,,,,,,,,,,,,,,,,,,,,,,,,0,3,3,1,1,,,,,,,,,,,,,,,,,,,,,,,,,,,,,,,,,,,,,,,,,,,,,,
377704,001,2022-11-21_24h00.39.455,Info_measure_main_exp,2022.2.2,Win32,20.56766763,,,,,,,,,,,,,,,,,,masks/mask_004.jpg,,,,,,,,,,,,,,,,,,,,,,,,,,,,,,,,,,,,,,,,,,,0,4,4,3,1,,,,,,,,,,,,,,,,,,,,,,,,,,,,,,,,,,,,,,,,,,,,,,
377704,001,2022-11-21_24h00.39.455,Info_measure_main_exp,2022.2.2,Win32,20.56766763,,,,,,,,,,,,,,,,,,masks/mask_001.jpg,,,,,,,,,,,,,,,,,,,,,,,,,,,,,,,,,,,,,,,,,,,,,,,,0,0,0,0,1,,,,,,,,,,,,,,,,,,,,,,,,,,,,,,,,,,,,,,,,,
377704,001,2022-11-21_24h00.39.455,Info_measure_main_exp,2022.2.2,Win32,20.56766763,,,,,,,,,,,,,,,,,,masks/mask_004.jpg,,,,,,,,,,,,,,,,,,,,,,,,,,,,,,,,,,,,,,,,,,,,,,,,0,1,1,3,1,,,,,,,,,,,,,,,,,,,,,,,,,,,,,,,,,,,,,,,,,
377704,001,2022-11-21_24h00.39.455,Info_measure_main_exp,2022.2.2,Win32,20.56766763,,,,,,,,,,,,,,,,,,masks/mask_002.jpg,,,,,,,,,,,,,,,,,,,,,,,,,,,,,,,,,,,,,,,,,,,,,,,,0,2,2,1,1,,,,,,,,,,,,,,,,,,,,,,,,,,,,,,,,,,,,,,,,,
377704,001,2022-11-21_24h00.39.455,Info_measure_main_exp,2022.2.2,Win32,20.56766763,,,,,,,,,,,,,,,,,,masks/mask_005.jpg,,,,,,,,,,,,,,,,,,,,,,,,,,,,,,,,,,,,,,,,,,,,,,,,0,3,3,4,1,,,,,,,,,,,,,,,,,,,,,,,,,,,,,,,,,,,,,,,,,
377704,001,2022-11-21_24h00.39.455,Info_measure_main_exp,2022.2.2,Win32,20.56766763,,,,,,,,,,,,,,,,,,masks/mask_003.jpg,,,,,,,,,,,,,,,,,,,,,,,,,,,,,,,,,,,,,,,,,,,,,,,,0,4,4,2,1,,,,,,,,,,,,,,,,,,,,,,,,,,,,,,,,,,,,,,,,,
377704,001,2022-11-21_24h00.39.455,Info_measure_main_exp,2022.2.2,Win32,20.56766763,,,,,,,,,,,,,,,,,,,,,,,,,,,,,,0,3.2647,1,,,,,,,,,,,,0,131,5,5,2082,2082,absent_patch/patch0002082.jpg,absent_patch/patch0002082.jpg,,,,,,,,,,,,,,,,,,,,-0.039814815,0.116666667,1,0,0,response7disk,1,-0.008333333,0.000925926,1,0,0,center_square,0,0,0,74,1,,,,,,,,,,,,,,,,,,,,,,,
377704,001,2022-11-21_24h00.39.455,Info_measure_main_exp,2022.2.2,Win32,20.56766763,,,,,,,,,,,,,,,,,,masks/mask_004.jpg,,,,,,,,,,,,,,,,,,,,,,,,,,,,,,,,,,,,,,,,,,,0,0,0,3,1,,,,,,,,,,,,,,,,,,,,,,,,,,,,,,,,,,,,,,,,,,,,,,
377704,001,2022-11-21_24h00.39.455,Info_measure_main_exp,2022.2.2,Win32,20.56766763,,,,,,,,,,,,,,,,,,masks/mask_002.jpg,,,,,,,,,,,,,,,,,,,,,,,,,,,,,,,,,,,,,,,,,,,0,1,1,1,1,,,,,,,,,,,,,,,,,,,,,,,,,,,,,,,,,,,,,,,,,,,,,,
377704,001,2022-11-21_24h00.39.455,Info_measure_main_exp,2022.2.2,Win32,20.56766763,,,,,,,,,,,,,,,,,,masks/mask_003.jpg,,,,,,,,,,,,,,,,,,,,,,,,,,,,,,,,,,,,,,,,,,,0,2,2,2,1,,,,,,,,,,,,,,,,,,,,,,,,,,,,,,,,,,,,,,,,,,,,,,
377704,001,2022-11-21_24h00.39.455,Info_measure_main_exp,2022.2.2,Win32,20.56766763,,,,,,,,,,,,,,,,,,masks/mask_005.jpg,,,,,,,,,,,,,,,,,,,,,,,,,,,,,,,,,,,,,,,,,,,0,3,3,4,1,,,,,,,,,,,,,,,,,,,,,,,,,,,,,,,,,,,,,,,,,,,,,,
377704,001,2022-11-21_24h00.39.455,Info_measure_main_exp,2022.2.2,Win32,20.56766763,,,,,,,,,,,,,,,,,,masks/mask_001.jpg,,,,,,,,,,,,,,,,,,,,,,,,,,,,,,,,,,,,,,,,,,,0,4,4,0,1,,,,,,,,,,,,,,,,,,,,,,,,,,,,,,,,,,,,,,,,,,,,,,
377704,001,2022-11-21_24h00.39.455,Info_measure_main_exp,2022.2.2,Win32,20.56766763,,,,,,,,,,,,,,,,,,masks/mask_001.jpg,,,,,,,,,,,,,,,,,,,,,,,,,,,,,,,,,,,,,,,,,,,,,,,,0,0,0,0,1,,,,,,,,,,,,,,,,,,,,,,,,,,,,,,,,,,,,,,,,,
377704,001,2022-11-21_24h00.39.455,Info_measure_main_exp,2022.2.2,Win32,20.56766763,,,,,,,,,,,,,,,,,,masks/mask_004.jpg,,,,,,,,,,,,,,,,,,,,,,,,,,,,,,,,,,,,,,,,,,,,,,,,0,1,1,3,1,,,,,,,,,,,,,,,,,,,,,,,,,,,,,,,,,,,,,,,,,
377704,001,2022-11-21_24h00.39.455,Info_measure_main_exp,2022.2.2,Win32,20.56766763,,,,,,,,,,,,,,,,,,masks/mask_003.jpg,,,,,,,,,,,,,,,,,,,,,,,,,,,,,,,,,,,,,,,,,,,,,,,,0,2,2,2,1,,,,,,,,,,,,,,,,,,,,,,,,,,,,,,,,,,,,,,,,,
377704,001,2022-11-21_24h00.39.455,Info_measure_main_exp,2022.2.2,Win32,20.56766763,,,,,,,,,,,,,,,,,,masks/mask_005.jpg,,,,,,,,,,,,,,,,,,,,,,,,,,,,,,,,,,,,,,,,,,,,,,,,0,3,3,4,1,,,,,,,,,,,,,,,,,,,,,,,,,,,,,,,,,,,,,,,,,
377704,001,2022-11-21_24h00.39.455,Info_measure_main_exp,2022.2.2,Win32,20.56766763,,,,,,,,,,,,,,,,,,masks/mask_002.jpg,,,,,,,,,,,,,,,,,,,,,,,,,,,,,,,,,,,,,,,,,,,,,,,,0,4,4,1,1,,,,,,,,,,,,,,,,,,,,,,,,,,,,,,,,,,,,,,,,,
377704,001,2022-11-21_24h00.39.455,Info_measure_main_exp,2022.2.2,Win32,20.56766763,,,,,,,,,,,,,,,,,,,,,,,,,,,,,,7,2.4844,1,,,,,,,,,,,,0,131,5,5,2154,1974,absent_patch/patch0002154.jpg,absent_patch/patch0001974.jpg,,,,,,,,,,,,,,,,,,,,0.056481481,0.099074074,1,0,0,response1disk,2,0.003703704,0.000925926,1,0,0,center_square,0,1,1,82,1,,,,,,,,,,,,,,,,,,,,,,,
377704,001,2022-11-21_24h00.39.455,Info_measure_main_exp,2022.2.2,Win32,20.56766763,,,,,,,,,,,,,,,,,,masks/mask_004.jpg,,,,,,,,,,,,,,,,,,,,,,,,,,,,,,,,,,,,,,,,,,,0,0,0,3,1,,,,,,,,,,,,,,,,,,,,,,,,,,,,,,,,,,,,,,,,,,,,,,
377704,001,2022-11-21_24h00.39.455,Info_measure_main_exp,2022.2.2,Win32,20.56766763,,,,,,,,,,,,,,,,,,masks/mask_003.jpg,,,,,,,,,,,,,,,,,,,,,,,,,,,,,,,,,,,,,,,,,,,0,1,1,2,1,,,,,,,,,,,,,,,,,,,,,,,,,,,,,,,,,,,,,,,,,,,,,,
377704,001,2022-11-21_24h00.39.455,Info_measure_main_exp,2022.2.2,Win32,20.56766763,,,,,,,,,,,,,,,,,,masks/mask_002.jpg,,,,,,,,,,,,,,,,,,,,,,,,,,,,,,,,,,,,,,,,,,,0,2,2,1,1,,,,,,,,,,,,,,,,,,,,,,,,,,,,,,,,,,,,,,,,,,,,,,
377704,001,2022-11-21_24h00.39.455,Info_measure_main_exp,2022.2.2,Win32,20.56766763,,,,,,,,,,,,,,,,,,masks/mask_005.jpg,,,,,,,,,,,,,,,,,,,,,,,,,,,,,,,,,,,,,,,,,,,0,3,3,4,1,,,,,,,,,,,,,,,,,,,,,,,,,,,,,,,,,,,,,,,,,,,,,,
377704,001,2022-11-21_24h00.39.455,Info_measure_main_exp,2022.2.2,Win32,20.56766763,,,,,,,,,,,,,,,,,,masks/mask_001.jpg,,,,,,,,,,,,,,,,,,,,,,,,,,,,,,,,,,,,,,,,,,,0,4,4,0,1,,,,,,,,,,,,,,,,,,,,,,,,,,,,,,,,,,,,,,,,,,,,,,
377704,001,2022-11-21_24h00.39.455,Info_measure_main_exp,2022.2.2,Win32,20.56766763,,,,,,,,,,,,,,,,,,masks/mask_003.jpg,,,,,,,,,,,,,,,,,,,,,,,,,,,,,,,,,,,,,,,,,,,,,,,,0,0,0,2,1,,,,,,,,,,,,,,,,,,,,,,,,,,,,,,,,,,,,,,,,,
377704,001,2022-11-21_24h00.39.455,Info_measure_main_exp,2022.2.2,Win32,20.56766763,,,,,,,,,,,,,,,,,,masks/mask_005.jpg,,,,,,,,,,,,,,,,,,,,,,,,,,,,,,,,,,,,,,,,,,,,,,,,0,1,1,4,1,,,,,,,,,,,,,,,,,,,,,,,,,,,,,,,,,,,,,,,,,
377704,001,2022-11-21_24h00.39.455,Info_measure_main_exp,2022.2.2,Win32,20.56766763,,,,,,,,,,,,,,,,,,masks/mask_001.jpg,,,,,,,,,,,,,,,,,,,,,,,,,,,,,,,,,,,,,,,,,,,,,,,,0,2,2,0,1,,,,,,,,,,,,,,,,,,,,,,,,,,,,,,,,,,,,,,,,,
377704,001,2022-11-21_24h00.39.455,Info_measure_main_exp,2022.2.2,Win32,20.56766763,,,,,,,,,,,,,,,,,,masks/mask_002.jpg,,,,,,,,,,,,,,,,,,,,,,,,,,,,,,,,,,,,,,,,,,,,,,,,0,3,3,1,1,,,,,,,,,,,,,,,,,,,,,,,,,,,,,,,,,,,,,,,,,
377704,001,2022-11-21_24h00.39.455,Info_measure_main_exp,2022.2.2,Win32,20.56766763,,,,,,,,,,,,,,,,,,masks/mask_004.jpg,,,,,,,,,,,,,,,,,,,,,,,,,,,,,,,,,,,,,,,,,,,,,,,,0,4,4,3,1,,,,,,,,,,,,,,,,,,,,,,,,,,,,,,,,,,,,,,,,,
377704,001,2022-11-21_24h00.39.455,Info_measure_main_exp,2022.2.2,Win32,20.56766763,,,,,,,,,,,,,,,,,,,,,,,,,,,,,,7,3.3193,1,,,,,,,,,,,,0,131,5,5,2154,2298,absent_patch/patch0002154.jpg,absent_patch/patch0002298.jpg,,,,,,,,,,,,,,,,,,,,0.055555556,0.082407407,1,0,0,response1disk,3,0.003703704,0.009259259,1,0,0,center_square,0,2,2,27,1,,,,,,,,,,,,,,,,,,,,,,,
377704,001,2022-11-21_24h00.39.455,Info_measure_main_exp,2022.2.2,Win32,20.56766763,,,,,,,,,,,,,,,,,,masks/mask_004.jpg,,,,,,,,,,,,,,,,,,,,,,,,,,,,,,,,,,,,,,,,,,,0,0,0,3,1,,,,,,,,,,,,,,,,,,,,,,,,,,,,,,,,,,,,,,,,,,,,,,
377704,001,2022-11-21_24h00.39.455,Info_measure_main_exp,2022.2.2,Win32,20.56766763,,,,,,,,,,,,,,,,,,masks/mask_003.jpg,,,,,,,,,,,,,,,,,,,,,,,,,,,,,,,,,,,,,,,,,,,0,1,1,2,1,,,,,,,,,,,,,,,,,,,,,,,,,,,,,,,,,,,,,,,,,,,,,,
377704,001,2022-11-21_24h00.39.455,Info_measure_main_exp,2022.2.2,Win32,20.56766763,,,,,,,,,,,,,,,,,,masks/mask_002.jpg,,,,,,,,,,,,,,,,,,,,,,,,,,,,,,,,,,,,,,,,,,,0,2,2,1,1,,,,,,,,,,,,,,,,,,,,,,,,,,,,,,,,,,,,,,,,,,,,,,
377704,001,2022-11-21_24h00.39.455,Info_measure_main_exp,2022.2.2,Win32,20.56766763,,,,,,,,,,,,,,,,,,masks/mask_001.jpg,,,,,,,,,,,,,,,,,,,,,,,,,,,,,,,,,,,,,,,,,,,0,3,3,0,1,,,,,,,,,,,,,,,,,,,,,,,,,,,,,,,,,,,,,,,,,,,,,,
377704,001,2022-11-21_24h00.39.455,Info_measure_main_exp,2022.2.2,Win32,20.56766763,,,,,,,,,,,,,,,,,,masks/mask_005.jpg,,,,,,,,,,,,,,,,,,,,,,,,,,,,,,,,,,,,,,,,,,,0,4,4,4,1,,,,,,,,,,,,,,,,,,,,,,,,,,,,,,,,,,,,,,,,,,,,,,
377704,001,2022-11-21_24h00.39.455,Info_measure_main_exp,2022.2.2,Win32,20.56766763,,,,,,,,,,,,,,,,,,masks/mask_003.jpg,,,,,,,,,,,,,,,,,,,,,,,,,,,,,,,,,,,,,,,,,,,,,,,,0,0,0,2,1,,,,,,,,,,,,,,,,,,,,,,,,,,,,,,,,,,,,,,,,,
377704,001,2022-11-21_24h00.39.455,Info_measure_main_exp,2022.2.2,Win32,20.56766763,,,,,,,,,,,,,,,,,,masks/mask_001.jpg,,,,,,,,,,,,,,,,,,,,,,,,,,,,,,,,,,,,,,,,,,,,,,,,0,1,1,0,1,,,,,,,,,,,,,,,,,,,,,,,,,,,,,,,,,,,,,,,,,
377704,001,2022-11-21_24h00.39.455,Info_measure_main_exp,2022.2.2,Win32,20.56766763,,,,,,,,,,,,,,,,,,masks/mask_002.jpg,,,,,,,,,,,,,,,,,,,,,,,,,,,,,,,,,,,,,,,,,,,,,,,,0,2,2,1,1,,,,,,,,,,,,,,,,,,,,,,,,,,,,,,,,,,,,,,,,,
377704,001,2022-11-21_24h00.39.455,Info_measure_main_exp,2022.2.2,Win32,20.56766763,,,,,,,,,,,,,,,,,,masks/mask_004.jpg,,,,,,,,,,,,,,,,,,,,,,,,,,,,,,,,,,,,,,,,,,,,,,,,0,3,3,3,1,,,,,,,,,,,,,,,,,,,,,,,,,,,,,,,,,,,,,,,,,
377704,001,2022-11-21_24h00.39.455,Info_measure_main_exp,2022.2.2,Win32,20.56766763,,,,,,,,,,,,,,,,,,masks/mask_005.jpg,,,,,,,,,,,,,,,,,,,,,,,,,,,,,,,,,,,,,,,,,,,,,,,,0,4,4,4,1,,,,,,,,,,,,,,,,,,,,,,,,,,,,,,,,,,,,,,,,,
377704,001,2022-11-21_24h00.39.455,Info_measure_main_exp,2022.2.2,Win32,20.56766763,,,,,,,,,,,,,,,,,,,,,,,,,,,,,,0,2.0043,1,,,,,,,,,,,,0,131,5,5,2298,2298,absent_patch/patch0002298.jpg,absent_patch/patch0002298.jpg,,,,,,,,,,,,,,,,,,,,-0.047222222,0.112037037,1,0,0,response7disk,4,-0.008333333,0.007407407,1,0,0,center_square,0,3,3,37,1,,,,,,,,,,,,,,,,,,,,,,,
377704,001,2022-11-21_24h00.39.455,Info_measure_main_exp,2022.2.2,Win32,20.56766763,,,,,,,,,,,,,,,,,,masks/mask_004.jpg,,,,,,,,,,,,,,,,,,,,,,,,,,,,,,,,,,,,,,,,,,,0,0,0,3,1,,,,,,,,,,,,,,,,,,,,,,,,,,,,,,,,,,,,,,,,,,,,,,
377704,001,2022-11-21_24h00.39.455,Info_measure_main_exp,2022.2.2,Win32,20.56766763,,,,,,,,,,,,,,,,,,masks/mask_001.jpg,,,,,,,,,,,,,,,,,,,,,,,,,,,,,,,,,,,,,,,,,,,0,1,1,0,1,,,,,,,,,,,,,,,,,,,,,,,,,,,,,,,,,,,,,,,,,,,,,,
377704,001,2022-11-21_24h00.39.455,Info_measure_main_exp,2022.2.2,Win32,20.56766763,,,,,,,,,,,,,,,,,,masks/mask_002.jpg,,,,,,,,,,,,,,,,,,,,,,,,,,,,,,,,,,,,,,,,,,,0,2,2,1,1,,,,,,,,,,,,,,,,,,,,,,,,,,,,,,,,,,,,,,,,,,,,,,
377704,001,2022-11-21_24h00.39.455,Info_measure_main_exp,2022.2.2,Win32,20.56766763,,,,,,,,,,,,,,,,,,masks/mask_003.jpg,,,,,,,,,,,,,,,,,,,,,,,,,,,,,,,,,,,,,,,,,,,0,3,3,2,1,,,,,,,,,,,,,,,,,,,,,,,,,,,,,,,,,,,,,,,,,,,,,,
377704,001,2022-11-21_24h00.39.455,Info_measure_main_exp,2022.2.2,Win32,20.56766763,,,,,,,,,,,,,,,,,,masks/mask_005.jpg,,,,,,,,,,,,,,,,,,,,,,,,,,,,,,,,,,,,,,,,,,,0,4,4,4,1,,,,,,,,,,,,,,,,,,,,,,,,,,,,,,,,,,,,,,,,,,,,,,
377704,001,2022-11-21_24h00.39.455,Info_measure_main_exp,2022.2.2,Win32,20.56766763,,,,,,,,,,,,,,,,,,masks/mask_002.jpg,,,,,,,,,,,,,,,,,,,,,,,,,,,,,,,,,,,,,,,,,,,,,,,,0,0,0,1,1,,,,,,,,,,,,,,,,,,,,,,,,,,,,,,,,,,,,,,,,,
377704,001,2022-11-21_24h00.39.455,Info_measure_main_exp,2022.2.2,Win32,20.56766763,,,,,,,,,,,,,,,,,,masks/mask_005.jpg,,,,,,,,,,,,,,,,,,,,,,,,,,,,,,,,,,,,,,,,,,,,,,,,0,1,1,4,1,,,,,,,,,,,,,,,,,,,,,,,,,,,,,,,,,,,,,,,,,
377704,001,2022-11-21_24h00.39.455,Info_measure_main_exp,2022.2.2,Win32,20.56766763,,,,,,,,,,,,,,,,,,masks/mask_001.jpg,,,,,,,,,,,,,,,,,,,,,,,,,,,,,,,,,,,,,,,,,,,,,,,,0,2,2,0,1,,,,,,,,,,,,,,,,,,,,,,,,,,,,,,,,,,,,,,,,,
377704,001,2022-11-21_24h00.39.455,Info_measure_main_exp,2022.2.2,Win32,20.56766763,,,,,,,,,,,,,,,,,,masks/mask_004.jpg,,,,,,,,,,,,,,,,,,,,,,,,,,,,,,,,,,,,,,,,,,,,,,,,0,3,3,3,1,,,,,,,,,,,,,,,,,,,,,,,,,,,,,,,,,,,,,,,,,
377704,001,2022-11-21_24h00.39.455,Info_measure_main_exp,2022.2.2,Win32,20.56766763,,,,,,,,,,,,,,,,,,masks/mask_003.jpg,,,,,,,,,,,,,,,,,,,,,,,,,,,,,,,,,,,,,,,,,,,,,,,,0,4,4,2,1,,,,,,,,,,,,,,,,,,,,,,,,,,,,,,,,,,,,,,,,,
377704,001,2022-11-21_24h00.39.455,Info_measure_main_exp,2022.2.2,Win32,20.56766763,,,,,,,,,,,,,,,,,,,,,,,,,,,,,,6,3.5789,1,,,,,,,,,,,,0,131,5,5,2082,2154,absent_patch/patch0002082.jpg,absent_patch/patch0002154.jpg,,,,,,,,,,,,,,,,,,,,0.075925926,0.050925926,1,0,0,response1disk,5,-0.010185185,0.009259259,1,0,0,center_square,0,4,4,33,1,,,,,,,,,,,,,,,,,,,,,,,
377704,001,2022-11-21_24h00.39.455,Info_measure_main_exp,2022.2.2,Win32,20.56766763,,,,,,,,,,,,,,,,,,masks/mask_001.jpg,,,,,,,,,,,,,,,,,,,,,,,,,,,,,,,,,,,,,,,,,,,0,0,0,0,1,,,,,,,,,,,,,,,,,,,,,,,,,,,,,,,,,,,,,,,,,,,,,,
377704,001,2022-11-21_24h00.39.455,Info_measure_main_exp,2022.2.2,Win32,20.56766763,,,,,,,,,,,,,,,,,,masks/mask_004.jpg,,,,,,,,,,,,,,,,,,,,,,,,,,,,,,,,,,,,,,,,,,,0,1,1,3,1,,,,,,,,,,,,,,,,,,,,,,,,,,,,,,,,,,,,,,,,,,,,,,
377704,001,2022-11-21_24h00.39.455,Info_measure_main_exp,2022.2.2,Win32,20.56766763,,,,,,,,,,,,,,,,,,masks/mask_003.jpg,,,,,,,,,,,,,,,,,,,,,,,,,,,,,,,,,,,,,,,,,,,0,2,2,2,1,,,,,,,,,,,,,,,,,,,,,,,,,,,,,,,,,,,,,,,,,,,,,,
377704,001,2022-11-21_24h00.39.455,Info_measure_main_exp,2022.2.2,Win32,20.56766763,,,,,,,,,,,,,,,,,,masks/mask_002.jpg,,,,,,,,,,,,,,,,,,,,,,,,,,,,,,,,,,,,,,,,,,,0,3,3,1,1,,,,,,,,,,,,,,,,,,,,,,,,,,,,,,,,,,,,,,,,,,,,,,
377704,001,2022-11-21_24h00.39.455,Info_measure_main_exp,2022.2.2,Win32,20.56766763,,,,,,,,,,,,,,,,,,masks/mask_005.jpg,,,,,,,,,,,,,,,,,,,,,,,,,,,,,,,,,,,,,,,,,,,0,4,4,4,1,,,,,,,,,,,,,,,,,,,,,,,,,,,,,,,,,,,,,,,,,,,,,,
377704,001,2022-11-21_24h00.39.455,Info_measure_main_exp,2022.2.2,Win32,20.56766763,,,,,,,,,,,,,,,,,,masks/mask_005.jpg,,,,,,,,,,,,,,,,,,,,,,,,,,,,,,,,,,,,,,,,,,,,,,,,0,0,0,4,1,,,,,,,,,,,,,,,,,,,,,,,,,,,,,,,,,,,,,,,,,
377704,001,2022-11-21_24h00.39.455,Info_measure_main_exp,2022.2.2,Win32,20.56766763,,,,,,,,,,,,,,,,,,masks/mask_001.jpg,,,,,,,,,,,,,,,,,,,,,,,,,,,,,,,,,,,,,,,,,,,,,,,,0,1,1,0,1,,,,,,,,,,,,,,,,,,,,,,,,,,,,,,,,,,,,,,,,,
377704,001,2022-11-21_24h00.39.455,Info_measure_main_exp,2022.2.2,Win32,20.56766763,,,,,,,,,,,,,,,,,,masks/mask_004.jpg,,,,,,,,,,,,,,,,,,,,,,,,,,,,,,,,,,,,,,,,,,,,,,,,0,2,2,3,1,,,,,,,,,,,,,,,,,,,,,,,,,,,,,,,,,,,,,,,,,
377704,001,2022-11-21_24h00.39.455,Info_measure_main_exp,2022.2.2,Win32,20.56766763,,,,,,,,,,,,,,,,,,masks/mask_002.jpg,,,,,,,,,,,,,,,,,,,,,,,,,,,,,,,,,,,,,,,,,,,,,,,,0,3,3,1,1,,,,,,,,,,,,,,,,,,,,,,,,,,,,,,,,,,,,,,,,,
377704,001,2022-11-21_24h00.39.455,Info_measure_main_exp,2022.2.2,Win32,20.56766763,,,,,,,,,,,,,,,,,,masks/mask_003.jpg,,,,,,,,,,,,,,,,,,,,,,,,,,,,,,,,,,,,,,,,,,,,,,,,0,4,4,2,1,,,,,,,,,,,,,,,,,,,,,,,,,,,,,,,,,,,,,,,,,
377704,001,2022-11-21_24h00.39.455,Info_measure_main_exp,2022.2.2,Win32,20.56766763,,,,,,,,,,,,,,,,,,,,,,,,,,,,,,1,6.6683,1,,,,,,,,,,,,0,131,5,5,2178,2154,absent_patch/patch0002178.jpg,absent_patch/patch0002154.jpg,,,,,,,,,,,,,,,,,,,,-0.100925926,0.064814815,1,0,0,response7disk,6,-0.002777778,-0.000925926,1,0,0,center_square,0,5,5,63,1,,,,,,,,,,,,,,,,,,,,,,,
377704,001,2022-11-21_24h00.39.455,Info_measure_main_exp,2022.2.2,Win32,20.56766763,,,,,,,,,,,,,,,,,,masks/mask_002.jpg,,,,,,,,,,,,,,,,,,,,,,,,,,,,,,,,,,,,,,,,,,,0,0,0,1,1,,,,,,,,,,,,,,,,,,,,,,,,,,,,,,,,,,,,,,,,,,,,,,
377704,001,2022-11-21_24h00.39.455,Info_measure_main_exp,2022.2.2,Win32,20.56766763,,,,,,,,,,,,,,,,,,masks/mask_004.jpg,,,,,,,,,,,,,,,,,,,,,,,,,,,,,,,,,,,,,,,,,,,0,1,1,3,1,,,,,,,,,,,,,,,,,,,,,,,,,,,,,,,,,,,,,,,,,,,,,,
377704,001,2022-11-21_24h00.39.455,Info_measure_main_exp,2022.2.2,Win32,20.56766763,,,,,,,,,,,,,,,,,,masks/mask_005.jpg,,,,,,,,,,,,,,,,,,,,,,,,,,,,,,,,,,,,,,,,,,,0,2,2,4,1,,,,,,,,,,,,,,,,,,,,,,,,,,,,,,,,,,,,,,,,,,,,,,
377704,001,2022-11-21_24h00.39.455,Info_measure_main_exp,2022.2.2,Win32,20.56766763,,,,,,,,,,,,,,,,,,masks/mask_001.jpg,,,,,,,,,,,,,,,,,,,,,,,,,,,,,,,,,,,,,,,,,,,0,3,3,0,1,,,,,,,,,,,,,,,,,,,,,,,,,,,,,,,,,,,,,,,,,,,,,,
377704,001,2022-11-21_24h00.39.455,Info_measure_main_exp,2022.2.2,Win32,20.56766763,,,,,,,,,,,,,,,,,,masks/mask_003.jpg,,,,,,,,,,,,,,,,,,,,,,,,,,,,,,,,,,,,,,,,,,,0,4,4,2,1,,,,,,,,,,,,,,,,,,,,,,,,,,,,,,,,,,,,,,,,,,,,,,
377704,001,2022-11-21_24h00.39.455,Info_measure_main_exp,2022.2.2,Win32,20.56766763,,,,,,,,,,,,,,,,,,masks/mask_005.jpg,,,,,,,,,,,,,,,,,,,,,,,,,,,,,,,,,,,,,,,,,,,,,,,,0,0,0,4,1,,,,,,,,,,,,,,,,,,,,,,,,,,,,,,,,,,,,,,,,,
377704,001,2022-11-21_24h00.39.455,Info_measure_main_exp,2022.2.2,Win32,20.56766763,,,,,,,,,,,,,,,,,,masks/mask_002.jpg,,,,,,,,,,,,,,,,,,,,,,,,,,,,,,,,,,,,,,,,,,,,,,,,0,1,1,1,1,,,,,,,,,,,,,,,,,,,,,,,,,,,,,,,,,,,,,,,,,
377704,001,2022-11-21_24h00.39.455,Info_measure_main_exp,2022.2.2,Win32,20.56766763,,,,,,,,,,,,,,,,,,masks/mask_003.jpg,,,,,,,,,,,,,,,,,,,,,,,,,,,,,,,,,,,,,,,,,,,,,,,,0,2,2,2,1,,,,,,,,,,,,,,,,,,,,,,,,,,,,,,,,,,,,,,,,,
377704,001,2022-11-21_24h00.39.455,Info_measure_main_exp,2022.2.2,Win32,20.56766763,,,,,,,,,,,,,,,,,,masks/mask_001.jpg,,,,,,,,,,,,,,,,,,,,,,,,,,,,,,,,,,,,,,,,,,,,,,,,0,3,3,0,1,,,,,,,,,,,,,,,,,,,,,,,,,,,,,,,,,,,,,,,,,
377704,001,2022-11-21_24h00.39.455,Info_measure_main_exp,2022.2.2,Win32,20.56766763,,,,,,,,,,,,,,,,,,masks/mask_004.jpg,,,,,,,,,,,,,,,,,,,,,,,,,,,,,,,,,,,,,,,,,,,,,,,,0,4,4,3,1,,,,,,,,,,,,,,,,,,,,,,,,,,,,,,,,,,,,,,,,,
377704,001,2022-11-21_24h00.39.455,Info_measure_main_exp,2022.2.2,Win32,20.56766763,,,,,,,,,,,,,,,,,,,,,,,,,,,,,,5,8.2096,1,,,,,,,,,,,,0,131,5,5,2298,2274,absent_patch/patch0002298.jpg,absent_patch/patch0002274.jpg,,,,,,,,,,,,,,,,,,,,0.09537037,-0.057407407,1,0,0,response3disk,7,-0.000925926,0.00462963,1,0,0,center_square,0,6,6,1,1,,,,,,,,,,,,,,,,,,,,,,,
377704,001,2022-11-21_24h00.39.455,Info_measure_main_exp,2022.2.2,Win32,20.56766763,,,,,,,,,,,,,,,,,,masks/mask_004.jpg,,,,,,,,,,,,,,,,,,,,,,,,,,,,,,,,,,,,,,,,,,,0,0,0,3,1,,,,,,,,,,,,,,,,,,,,,,,,,,,,,,,,,,,,,,,,,,,,,,
377704,001,2022-11-21_24h00.39.455,Info_measure_main_exp,2022.2.2,Win32,20.56766763,,,,,,,,,,,,,,,,,,masks/mask_001.jpg,,,,,,,,,,,,,,,,,,,,,,,,,,,,,,,,,,,,,,,,,,,0,1,1,0,1,,,,,,,,,,,,,,,,,,,,,,,,,,,,,,,,,,,,,,,,,,,,,,
377704,001,2022-11-21_24h00.39.455,Info_measure_main_exp,2022.2.2,Win32,20.56766763,,,,,,,,,,,,,,,,,,masks/mask_005.jpg,,,,,,,,,,,,,,,,,,,,,,,,,,,,,,,,,,,,,,,,,,,0,2,2,4,1,,,,,,,,,,,,,,,,,,,,,,,,,,,,,,,,,,,,,,,,,,,,,,
377704,001,2022-11-21_24h00.39.455,Info_measure_main_exp,2022.2.2,Win32,20.56766763,,,,,,,,,,,,,,,,,,masks/mask_003.jpg,,,,,,,,,,,,,,,,,,,,,,,,,,,,,,,,,,,,,,,,,,,0,3,3,2,1,,,,,,,,,,,,,,,,,,,,,,,,,,,,,,,,,,,,,,,,,,,,,,
377704,001,2022-11-21_24h00.39.455,Info_measure_main_exp,2022.2.2,Win32,20.56766763,,,,,,,,,,,,,,,,,,masks/mask_002.jpg,,,,,,,,,,,,,,,,,,,,,,,,,,,,,,,,,,,,,,,,,,,0,4,4,1,1,,,,,,,,,,,,,,,,,,,,,,,,,,,,,,,,,,,,,,,,,,,,,,
377704,001,2022-11-21_24h00.39.455,Info_measure_main_exp,2022.2.2,Win32,20.56766763,,,,,,,,,,,,,,,,,,masks/mask_005.jpg,,,,,,,,,,,,,,,,,,,,,,,,,,,,,,,,,,,,,,,,,,,,,,,,0,0,0,4,1,,,,,,,,,,,,,,,,,,,,,,,,,,,,,,,,,,,,,,,,,
377704,001,2022-11-21_24h00.39.455,Info_measure_main_exp,2022.2.2,Win32,20.56766763,,,,,,,,,,,,,,,,,,masks/mask_004.jpg,,,,,,,,,,,,,,,,,,,,,,,,,,,,,,,,,,,,,,,,,,,,,,,,0,1,1,3,1,,,,,,,,,,,,,,,,,,,,,,,,,,,,,,,,,,,,,,,,,
377704,001,2022-11-21_24h00.39.455,Info_measure_main_exp,2022.2.2,Win32,20.56766763,,,,,,,,,,,,,,,,,,masks/mask_001.jpg,,,,,,,,,,,,,,,,,,,,,,,,,,,,,,,,,,,,,,,,,,,,,,,,0,2,2,0,1,,,,,,,,,,,,,,,,,,,,,,,,,,,,,,,,,,,,,,,,,
377704,001,2022-11-21_24h00.39.455,Info_measure_main_exp,2022.2.2,Win32,20.56766763,,,,,,,,,,,,,,,,,,masks/mask_002.jpg,,,,,,,,,,,,,,,,,,,,,,,,,,,,,,,,,,,,,,,,,,,,,,,,0,3,3,1,1,,,,,,,,,,,,,,,,,,,,,,,,,,,,,,,,,,,,,,,,,
377704,001,2022-11-21_24h00.39.455,Info_measure_main_exp,2022.2.2,Win32,20.56766763,,,,,,,,,,,,,,,,,,masks/mask_003.jpg,,,,,,,,,,,,,,,,,,,,,,,,,,,,,,,,,,,,,,,,,,,,,,,,0,4,4,2,1,,,,,,,,,,,,,,,,,,,,,,,,,,,,,,,,,,,,,,,,,
377704,001,2022-11-21_24h00.39.455,Info_measure_main_exp,2022.2.2,Win32,20.56766763,,,,,,,,,,,,,,,,,,,,,,,,,,,,,,6,5.1976,1,,,,,,,,,,,,1,131,5,5,2238,1,absent_patch/patch0002238.jpg,present_patch/cong_131_5_a.jpg,,,,,,,,,,,,,,,,,,,,0.15,0.059259259,1,0,0,response1disk,8,0.011111111,0.003703704,1,0,0,center_square,0,7,7,104,1,,,,,,,,,,,,,,,,,,,,,,,
377704,001,2022-11-21_24h00.39.455,Info_measure_main_exp,2022.2.2,Win32,20.56766763,,,,,,,,,,,,,,,,,,masks/mask_004.jpg,,,,,,,,,,,,,,,,,,,,,,,,,,,,,,,,,,,,,,,,,,,0,0,0,3,1,,,,,,,,,,,,,,,,,,,,,,,,,,,,,,,,,,,,,,,,,,,,,,
377704,001,2022-11-21_24h00.39.455,Info_measure_main_exp,2022.2.2,Win32,20.56766763,,,,,,,,,,,,,,,,,,masks/mask_002.jpg,,,,,,,,,,,,,,,,,,,,,,,,,,,,,,,,,,,,,,,,,,,0,1,1,1,1,,,,,,,,,,,,,,,,,,,,,,,,,,,,,,,,,,,,,,,,,,,,,,
377704,001,2022-11-21_24h00.39.455,Info_measure_main_exp,2022.2.2,Win32,20.56766763,,,,,,,,,,,,,,,,,,masks/mask_005.jpg,,,,,,,,,,,,,,,,,,,,,,,,,,,,,,,,,,,,,,,,,,,0,2,2,4,1,,,,,,,,,,,,,,,,,,,,,,,,,,,,,,,,,,,,,,,,,,,,,,
377704,001,2022-11-21_24h00.39.455,Info_measure_main_exp,2022.2.2,Win32,20.56766763,,,,,,,,,,,,,,,,,,masks/mask_003.jpg,,,,,,,,,,,,,,,,,,,,,,,,,,,,,,,,,,,,,,,,,,,0,3,3,2,1,,,,,,,,,,,,,,,,,,,,,,,,,,,,,,,,,,,,,,,,,,,,,,
377704,001,2022-11-21_24h00.39.455,Info_measure_main_exp,2022.2.2,Win32,20.56766763,,,,,,,,,,,,,,,,,,masks/mask_001.jpg,,,,,,,,,,,,,,,,,,,,,,,,,,,,,,,,,,,,,,,,,,,0,4,4,0,1,,,,,,,,,,,,,,,,,,,,,,,,,,,,,,,,,,,,,,,,,,,,,,
377704,001,2022-11-21_24h00.39.455,Info_measure_main_exp,2022.2.2,Win32,20.56766763,,,,,,,,,,,,,,,,,,masks/mask_002.jpg,,,,,,,,,,,,,,,,,,,,,,,,,,,,,,,,,,,,,,,,,,,,,,,,0,0,0,1,1,,,,,,,,,,,,,,,,,,,,,,,,,,,,,,,,,,,,,,,,,
377704,001,2022-11-21_24h00.39.455,Info_measure_main_exp,2022.2.2,Win32,20.56766763,,,,,,,,,,,,,,,,,,masks/mask_003.jpg,,,,,,,,,,,,,,,,,,,,,,,,,,,,,,,,,,,,,,,,,,,,,,,,0,1,1,2,1,,,,,,,,,,,,,,,,,,,,,,,,,,,,,,,,,,,,,,,,,
377704,001,2022-11-21_24h00.39.455,Info_measure_main_exp,2022.2.2,Win32,20.56766763,,,,,,,,,,,,,,,,,,masks/mask_001.jpg,,,,,,,,,,,,,,,,,,,,,,,,,,,,,,,,,,,,,,,,,,,,,,,,0,2,2,0,1,,,,,,,,,,,,,,,,,,,,,,,,,,,,,,,,,,,,,,,,,
377704,001,2022-11-21_24h00.39.455,Info_measure_main_exp,2022.2.2,Win32,20.56766763,,,,,,,,,,,,,,,,,,masks/mask_005.jpg,,,,,,,,,,,,,,,,,,,,,,,,,,,,,,,,,,,,,,,,,,,,,,,,0,3,3,4,1,,,,,,,,,,,,,,,,,,,,,,,,,,,,,,,,,,,,,,,,,
377704,001,2022-11-21_24h00.39.455,Info_measure_main_exp,2022.2.2,Win32,20.56766763,,,,,,,,,,,,,,,,,,masks/mask_004.jpg,,,,,,,,,,,,,,,,,,,,,,,,,,,,,,,,,,,,,,,,,,,,,,,,0,4,4,3,1,,,,,,,,,,,,,,,,,,,,,,,,,,,,,,,,,,,,,,,,,
377704,001,2022-11-21_24h00.39.455,Info_measure_main_exp,2022.2.2,Win32,20.56766763,,,,,,,,,,,,,,,,,,,,,,,,,,,,,,0,18.0056,1,,,,,,,,,,,,0,131,5,5,1950,2178,absent_patch/patch0001950.jpg,absent_patch/patch0002178.jpg,,,,,,,,,,,,,,,,,,,,-0.039215686,0.122291022,1,0,0,response7disk,9,-0.001031992,0.005675955,1,0,0,center_square,0,8,8,61,1,,,,,,,,,,,,,,,,,,,,,,,
377704,001,2022-11-21_24h00.39.455,Info_measure_main_exp,2022.2.2,Win32,20.56766763,,,,,,,,,,,,,,,,,,masks/mask_001.jpg,,,,,,,,,,,,,,,,,,,,,,,,,,,,,,,,,,,,,,,,,,,0,0,0,0,1,,,,,,,,,,,,,,,,,,,,,,,,,,,,,,,,,,,,,,,,,,,,,,
377704,001,2022-11-21_24h00.39.455,Info_measure_main_exp,2022.2.2,Win32,20.56766763,,,,,,,,,,,,,,,,,,masks/mask_002.jpg,,,,,,,,,,,,,,,,,,,,,,,,,,,,,,,,,,,,,,,,,,,0,1,1,1,1,,,,,,,,,,,,,,,,,,,,,,,,,,,,,,,,,,,,,,,,,,,,,,
377704,001,2022-11-21_24h00.39.455,Info_measure_main_exp,2022.2.2,Win32,20.56766763,,,,,,,,,,,,,,,,,,masks/mask_005.jpg,,,,,,,,,,,,,,,,,,,,,,,,,,,,,,,,,,,,,,,,,,,0,2,2,4,1,,,,,,,,,,,,,,,,,,,,,,,,,,,,,,,,,,,,,,,,,,,,,,
377704,001,2022-11-21_24h00.39.455,Info_measure_main_exp,2022.2.2,Win32,20.56766763,,,,,,,,,,,,,,,,,,masks/mask_004.jpg,,,,,,,,,,,,,,,,,,,,,,,,,,,,,,,,,,,,,,,,,,,0,3,3,3,1,,,,,,,,,,,,,,,,,,,,,,,,,,,,,,,,,,,,,,,,,,,,,,
377704,001,2022-11-21_24h00.39.455,Info_measure_main_exp,2022.2.2,Win32,20.56766763,,,,,,,,,,,,,,,,,,masks/mask_003.jpg,,,,,,,,,,,,,,,,,,,,,,,,,,,,,,,,,,,,,,,,,,,0,4,4,2,1,,,,,,,,,,,,,,,,,,,,,,,,,,,,,,,,,,,,,,,,,,,,,,
377704,001,2022-11-21_24h00.39.455,Info_measure_main_exp,2022.2.2,Win32,20.56766763,,,,,,,,,,,,,,,,,,masks/mask_002.jpg,,,,,,,,,,,,,,,,,,,,,,,,,,,,,,,,,,,,,,,,,,,,,,,,0,0,0,1,1,,,,,,,,,,,,,,,,,,,,,,,,,,,,,,,,,,,,,,,,,
377704,001,2022-11-21_24h00.39.455,Info_measure_main_exp,2022.2.2,Win32,20.56766763,,,,,,,,,,,,,,,,,,masks/mask_003.jpg,,,,,,,,,,,,,,,,,,,,,,,,,,,,,,,,,,,,,,,,,,,,,,,,0,1,1,2,1,,,,,,,,,,,,,,,,,,,,,,,,,,,,,,,,,,,,,,,,,
377704,001,2022-11-21_24h00.39.455,Info_measure_main_exp,2022.2.2,Win32,20.56766763,,,,,,,,,,,,,,,,,,masks/mask_001.jpg,,,,,,,,,,,,,,,,,,,,,,,,,,,,,,,,,,,,,,,,,,,,,,,,0,2,2,0,1,,,,,,,,,,,,,,,,,,,,,,,,,,,,,,,,,,,,,,,,,
377704,001,2022-11-21_24h00.39.455,Info_measure_main_exp,2022.2.2,Win32,20.56766763,,,,,,,,,,,,,,,,,,masks/mask_004.jpg,,,,,,,,,,,,,,,,,,,,,,,,,,,,,,,,,,,,,,,,,,,,,,,,0,3,3,3,1,,,,,,,,,,,,,,,,,,,,,,,,,,,,,,,,,,,,,,,,,
377704,001,2022-11-21_24h00.39.455,Info_measure_main_exp,2022.2.2,Win32,20.56766763,,,,,,,,,,,,,,,,,,masks/mask_005.jpg,,,,,,,,,,,,,,,,,,,,,,,,,,,,,,,,,,,,,,,,,,,,,,,,0,4,4,4,1,,,,,,,,,,,,,,,,,,,,,,,,,,,,,,,,,,,,,,,,,
377704,001,2022-11-21_24h00.39.455,Info_measure_main_exp,2022.2.2,Win32,20.56766763,,,,,,,,,,,,,,,,,,,,,,,,,,,,,,6,5.4637,1,,,,,,,,,,,,0,131,5,5,2214,2166,absent_patch/patch0002214.jpg,absent_patch/patch0002166.jpg,,,,,,,,,,,,,,,,,,,,0.148606811,0.057275542,1,0,0,response1disk,10,0,0.002579979,1,0,0,center_square,0,9,9,109,1,,,,,,,,,,,,,,,,,,,,,,,
377704,001,2022-11-21_24h00.39.455,Info_measure_main_exp,2022.2.2,Win32,20.56766763,,,,,,,,,,,,,,,,,,masks/mask_003.jpg,,,,,,,,,,,,,,,,,,,,,,,,,,,,,,,,,,,,,,,,,,,0,0,0,2,1,,,,,,,,,,,,,,,,,,,,,,,,,,,,,,,,,,,,,,,,,,,,,,
377704,001,2022-11-21_24h00.39.455,Info_measure_main_exp,2022.2.2,Win32,20.56766763,,,,,,,,,,,,,,,,,,masks/mask_002.jpg,,,,,,,,,,,,,,,,,,,,,,,,,,,,,,,,,,,,,,,,,,,0,1,1,1,1,,,,,,,,,,,,,,,,,,,,,,,,,,,,,,,,,,,,,,,,,,,,,,
377704,001,2022-11-21_24h00.39.455,Info_measure_main_exp,2022.2.2,Win32,20.56766763,,,,,,,,,,,,,,,,,,masks/mask_001.jpg,,,,,,,,,,,,,,,,,,,,,,,,,,,,,,,,,,,,,,,,,,,0,2,2,0,1,,,,,,,,,,,,,,,,,,,,,,,,,,,,,,,,,,,,,,,,,,,,,,
377704,001,2022-11-21_24h00.39.455,Info_measure_main_exp,2022.2.2,Win32,20.56766763,,,,,,,,,,,,,,,,,,masks/mask_004.jpg,,,,,,,,,,,,,,,,,,,,,,,,,,,,,,,,,,,,,,,,,,,0,3,3,3,1,,,,,,,,,,,,,,,,,,,,,,,,,,,,,,,,,,,,,,,,,,,,,,
377704,001,2022-11-21_24h00.39.455,Info_measure_main_exp,2022.2.2,Win32,20.56766763,,,,,,,,,,,,,,,,,,masks/mask_005.jpg,,,,,,,,,,,,,,,,,,,,,,,,,,,,,,,,,,,,,,,,,,,0,4,4,4,1,,,,,,,,,,,,,,,,,,,,,,,,,,,,,,,,,,,,,,,,,,,,,,
377704,001,2022-11-21_24h00.39.455,Info_measure_main_exp,2022.2.2,Win32,20.56766763,,,,,,,,,,,,,,,,,,masks/mask_003.jpg,,,,,,,,,,,,,,,,,,,,,,,,,,,,,,,,,,,,,,,,,,,,,,,,0,0,0,2,1,,,,,,,,,,,,,,,,,,,,,,,,,,,,,,,,,,,,,,,,,
377704,001,2022-11-21_24h00.39.455,Info_measure_main_exp,2022.2.2,Win32,20.56766763,,,,,,,,,,,,,,,,,,masks/mask_004.jpg,,,,,,,,,,,,,,,,,,,,,,,,,,,,,,,,,,,,,,,,,,,,,,,,0,1,1,3,1,,,,,,,,,,,,,,,,,,,,,,,,,,,,,,,,,,,,,,,,,
377704,001,2022-11-21_24h00.39.455,Info_measure_main_exp,2022.2.2,Win32,20.56766763,,,,,,,,,,,,,,,,,,masks/mask_005.jpg,,,,,,,,,,,,,,,,,,,,,,,,,,,,,,,,,,,,,,,,,,,,,,,,0,2,2,4,1,,,,,,,,,,,,,,,,,,,,,,,,,,,,,,,,,,,,,,,,,
377704,001,2022-11-21_24h00.39.455,Info_measure_main_exp,2022.2.2,Win32,20.56766763,,,,,,,,,,,,,,,,,,masks/mask_001.jpg,,,,,,,,,,,,,,,,,,,,,,,,,,,,,,,,,,,,,,,,,,,,,,,,0,3,3,0,1,,,,,,,,,,,,,,,,,,,,,,,,,,,,,,,,,,,,,,,,,
377704,001,2022-11-21_24h00.39.455,Info_measure_main_exp,2022.2.2,Win32,20.56766763,,,,,,,,,,,,,,,,,,masks/mask_002.jpg,,,,,,,,,,,,,,,,,,,,,,,,,,,,,,,,,,,,,,,,,,,,,,,,0,4,4,1,1,,,,,,,,,,,,,,,,,,,,,,,,,,,,,,,,,,,,,,,,,
377704,001,2022-11-21_24h00.39.455,Info_measure_main_exp,2022.2.2,Win32,20.56766763,,,,,,,,,,,,,,,,,,,,,,,,,,,,,,3,2.5637,1,,,,,,,,,,,,0,131,5,5,2274,2238,absent_patch/patch0002274.jpg,absent_patch/patch0002238.jpg,,,,,,,,,,,,,,,,,,,,-0.070175439,-0.118163055,1,0,0,response5disk,11,0.002063983,-0.00877193,1,0,0,center_square,0,10,10,91,1,,,,,,,,,,,,,,,,,,,,,,,
377704,001,2022-11-21_24h00.39.455,Info_measure_main_exp,2022.2.2,Win32,20.56766763,,,,,,,,,,,,,,,,,,masks/mask_005.jpg,,,,,,,,,,,,,,,,,,,,,,,,,,,,,,,,,,,,,,,,,,,0,0,0,4,1,,,,,,,,,,,,,,,,,,,,,,,,,,,,,,,,,,,,,,,,,,,,,,
377704,001,2022-11-21_24h00.39.455,Info_measure_main_exp,2022.2.2,Win32,20.56766763,,,,,,,,,,,,,,,,,,masks/mask_001.jpg,,,,,,,,,,,,,,,,,,,,,,,,,,,,,,,,,,,,,,,,,,,0,1,1,0,1,,,,,,,,,,,,,,,,,,,,,,,,,,,,,,,,,,,,,,,,,,,,,,
377704,001,2022-11-21_24h00.39.455,Info_measure_main_exp,2022.2.2,Win32,20.56766763,,,,,,,,,,,,,,,,,,masks/mask_002.jpg,,,,,,,,,,,,,,,,,,,,,,,,,,,,,,,,,,,,,,,,,,,0,2,2,1,1,,,,,,,,,,,,,,,,,,,,,,,,,,,,,,,,,,,,,,,,,,,,,,
377704,001,2022-11-21_24h00.39.455,Info_measure_main_exp,2022.2.2,Win32,20.56766763,,,,,,,,,,,,,,,,,,masks/mask_004.jpg,,,,,,,,,,,,,,,,,,,,,,,,,,,,,,,,,,,,,,,,,,,0,3,3,3,1,,,,,,,,,,,,,,,,,,,,,,,,,,,,,,,,,,,,,,,,,,,,,,
377704,001,2022-11-21_24h00.39.455,Info_measure_main_exp,2022.2.2,Win32,20.56766763,,,,,,,,,,,,,,,,,,masks/mask_003.jpg,,,,,,,,,,,,,,,,,,,,,,,,,,,,,,,,,,,,,,,,,,,0,4,4,2,1,,,,,,,,,,,,,,,,,,,,,,,,,,,,,,,,,,,,,,,,,,,,,,
377704,001,2022-11-21_24h00.39.455,Info_measure_main_exp,2022.2.2,Win32,20.56766763,,,,,,,,,,,,,,,,,,masks/mask_005.jpg,,,,,,,,,,,,,,,,,,,,,,,,,,,,,,,,,,,,,,,,,,,,,,,,0,0,0,4,1,,,,,,,,,,,,,,,,,,,,,,,,,,,,,,,,,,,,,,,,,
377704,001,2022-11-21_24h00.39.455,Info_measure_main_exp,2022.2.2,Win32,20.56766763,,,,,,,,,,,,,,,,,,masks/mask_003.jpg,,,,,,,,,,,,,,,,,,,,,,,,,,,,,,,,,,,,,,,,,,,,,,,,0,1,1,2,1,,,,,,,,,,,,,,,,,,,,,,,,,,,,,,,,,,,,,,,,,
377704,001,2022-11-21_24h00.39.455,Info_measure_main_exp,2022.2.2,Win32,20.56766763,,,,,,,,,,,,,,,,,,masks/mask_002.jpg,,,,,,,,,,,,,,,,,,,,,,,,,,,,,,,,,,,,,,,,,,,,,,,,0,2,2,1,1,,,,,,,,,,,,,,,,,,,,,,,,,,,,,,,,,,,,,,,,,
377704,001,2022-11-21_24h00.39.455,Info_measure_main_exp,2022.2.2,Win32,20.56766763,,,,,,,,,,,,,,,,,,masks/mask_001.jpg,,,,,,,,,,,,,,,,,,,,,,,,,,,,,,,,,,,,,,,,,,,,,,,,0,3,3,0,1,,,,,,,,,,,,,,,,,,,,,,,,,,,,,,,,,,,,,,,,,
377704,001,2022-11-21_24h00.39.455,Info_measure_main_exp,2022.2.2,Win32,20.56766763,,,,,,,,,,,,,,,,,,masks/mask_004.jpg,,,,,,,,,,,,,,,,,,,,,,,,,,,,,,,,,,,,,,,,,,,,,,,,0,4,4,3,1,,,,,,,,,,,,,,,,,,,,,,,,,,,,,,,,,,,,,,,,,
377704,001,2022-11-21_24h00.39.455,Info_measure_main_exp,2022.2.2,Win32,20.56766763,,,,,,,,,,,,,,,,,,,,,,,,,,,,,,6,2.2467,1,,,,,,,,,,,,0,131,5,5,2082,1974,absent_patch/patch0002082.jpg,absent_patch/patch0001974.jpg,,,,,,,,,,,,,,,,,,,,0.132094943,0.041795666,1,0,0,response1disk,12,-0.010319917,0.005675955,1,0,0,center_square,0,11,11,26,1,,,,,,,,,,,,,,,,,,,,,,,
377704,001,2022-11-21_24h00.39.455,Info_measure_main_exp,2022.2.2,Win32,20.56766763,,,,,,,,,,,,,,,,,,masks/mask_005.jpg,,,,,,,,,,,,,,,,,,,,,,,,,,,,,,,,,,,,,,,,,,,0,0,0,4,1,,,,,,,,,,,,,,,,,,,,,,,,,,,,,,,,,,,,,,,,,,,,,,
377704,001,2022-11-21_24h00.39.455,Info_measure_main_exp,2022.2.2,Win32,20.56766763,,,,,,,,,,,,,,,,,,masks/mask_001.jpg,,,,,,,,,,,,,,,,,,,,,,,,,,,,,,,,,,,,,,,,,,,0,1,1,0,1,,,,,,,,,,,,,,,,,,,,,,,,,,,,,,,,,,,,,,,,,,,,,,
377704,001,2022-11-21_24h00.39.455,Info_measure_main_exp,2022.2.2,Win32,20.56766763,,,,,,,,,,,,,,,,,,masks/mask_004.jpg,,,,,,,,,,,,,,,,,,,,,,,,,,,,,,,,,,,,,,,,,,,0,2,2,3,1,,,,,,,,,,,,,,,,,,,,,,,,,,,,,,,,,,,,,,,,,,,,,,
377704,001,2022-11-21_24h00.39.455,Info_measure_main_exp,2022.2.2,Win32,20.56766763,,,,,,,,,,,,,,,,,,masks/mask_002.jpg,,,,,,,,,,,,,,,,,,,,,,,,,,,,,,,,,,,,,,,,,,,0,3,3,1,1,,,,,,,,,,,,,,,,,,,,,,,,,,,,,,,,,,,,,,,,,,,,,,
377704,001,2022-11-21_24h00.39.455,Info_measure_main_exp,2022.2.2,Win32,20.56766763,,,,,,,,,,,,,,,,,,masks/mask_003.jpg,,,,,,,,,,,,,,,,,,,,,,,,,,,,,,,,,,,,,,,,,,,0,4,4,2,1,,,,,,,,,,,,,,,,,,,,,,,,,,,,,,,,,,,,,,,,,,,,,,
377704,001,2022-11-21_24h00.39.455,Info_measure_main_exp,2022.2.2,Win32,20.56766763,,,,,,,,,,,,,,,,,,masks/mask_005.jpg,,,,,,,,,,,,,,,,,,,,,,,,,,,,,,,,,,,,,,,,,,,,,,,,0,0,0,4,1,,,,,,,,,,,,,,,,,,,,,,,,,,,,,,,,,,,,,,,,,
377704,001,2022-11-21_24h00.39.455,Info_measure_main_exp,2022.2.2,Win32,20.56766763,,,,,,,,,,,,,,,,,,masks/mask_001.jpg,,,,,,,,,,,,,,,,,,,,,,,,,,,,,,,,,,,,,,,,,,,,,,,,0,1,1,0,1,,,,,,,,,,,,,,,,,,,,,,,,,,,,,,,,,,,,,,,,,
377704,001,2022-11-21_24h00.39.455,Info_measure_main_exp,2022.2.2,Win32,20.56766763,,,,,,,,,,,,,,,,,,masks/mask_002.jpg,,,,,,,,,,,,,,,,,,,,,,,,,,,,,,,,,,,,,,,,,,,,,,,,0,2,2,1,1,,,,,,,,,,,,,,,,,,,,,,,,,,,,,,,,,,,,,,,,,
377704,001,2022-11-21_24h00.39.455,Info_measure_main_exp,2022.2.2,Win32,20.56766763,,,,,,,,,,,,,,,,,,masks/mask_003.jpg,,,,,,,,,,,,,,,,,,,,,,,,,,,,,,,,,,,,,,,,,,,,,,,,0,3,3,2,1,,,,,,,,,,,,,,,,,,,,,,,,,,,,,,,,,,,,,,,,,
377704,001,2022-11-21_24h00.39.455,Info_measure_main_exp,2022.2.2,Win32,20.56766763,,,,,,,,,,,,,,,,,,masks/mask_004.jpg,,,,,,,,,,,,,,,,,,,,,,,,,,,,,,,,,,,,,,,,,,,,,,,,0,4,4,3,1,,,,,,,,,,,,,,,,,,,,,,,,,,,,,,,,,,,,,,,,,
377704,001,2022-11-21_24h00.39.455,Info_measure_main_exp,2022.2.2,Win32,20.56766763,,,,,,,,,,,,,,,,,,,,,,,,,,,,,,7,1.1529,1,,,,,,,,,,,,0,131,5,5,2190,2166,absent_patch/patch0002190.jpg,absent_patch/patch0002166.jpg,,,,,,,,,,,,,,,,,,,,0.053663571,0.123323013,1,0,0,response1disk,13,-0.011351909,-0.00877193,1,0,0,center_square,0,12,12,50,1,,,,,,,,,,,,,,,,,,,,,,,
377704,001,2022-11-21_24h00.39.455,Info_measure_main_exp,2022.2.2,Win32,20.56766763,,,,,,,,,,,,,,,,,,masks/mask_004.jpg,,,,,,,,,,,,,,,,,,,,,,,,,,,,,,,,,,,,,,,,,,,0,0,0,3,1,,,,,,,,,,,,,,,,,,,,,,,,,,,,,,,,,,,,,,,,,,,,,,
377704,001,2022-11-21_24h00.39.455,Info_measure_main_exp,2022.2.2,Win32,20.56766763,,,,,,,,,,,,,,,,,,masks/mask_002.jpg,,,,,,,,,,,,,,,,,,,,,,,,,,,,,,,,,,,,,,,,,,,0,1,1,1,1,,,,,,,,,,,,,,,,,,,,,,,,,,,,,,,,,,,,,,,,,,,,,,
377704,001,2022-11-21_24h00.39.455,Info_measure_main_exp,2022.2.2,Win32,20.56766763,,,,,,,,,,,,,,,,,,masks/mask_003.jpg,,,,,,,,,,,,,,,,,,,,,,,,,,,,,,,,,,,,,,,,,,,0,2,2,2,1,,,,,,,,,,,,,,,,,,,,,,,,,,,,,,,,,,,,,,,,,,,,,,
377704,001,2022-11-21_24h00.39.455,Info_measure_main_exp,2022.2.2,Win32,20.56766763,,,,,,,,,,,,,,,,,,masks/mask_001.jpg,,,,,,,,,,,,,,,,,,,,,,,,,,,,,,,,,,,,,,,,,,,0,3,3,0,1,,,,,,,,,,,,,,,,,,,,,,,,,,,,,,,,,,,,,,,,,,,,,,
377704,001,2022-11-21_24h00.39.455,Info_measure_main_exp,2022.2.2,Win32,20.56766763,,,,,,,,,,,,,,,,,,masks/mask_005.jpg,,,,,,,,,,,,,,,,,,,,,,,,,,,,,,,,,,,,,,,,,,,0,4,4,4,1,,,,,,,,,,,,,,,,,,,,,,,,,,,,,,,,,,,,,,,,,,,,,,
377704,001,2022-11-21_24h00.39.455,Info_measure_main_exp,2022.2.2,Win32,20.56766763,,,,,,,,,,,,,,,,,,masks/mask_003.jpg,,,,,,,,,,,,,,,,,,,,,,,,,,,,,,,,,,,,,,,,,,,,,,,,0,0,0,2,1,,,,,,,,,,,,,,,,,,,,,,,,,,,,,,,,,,,,,,,,,
377704,001,2022-11-21_24h00.39.455,Info_measure_main_exp,2022.2.2,Win32,20.56766763,,,,,,,,,,,,,,,,,,masks/mask_004.jpg,,,,,,,,,,,,,,,,,,,,,,,,,,,,,,,,,,,,,,,,,,,,,,,,0,1,1,3,1,,,,,,,,,,,,,,,,,,,,,,,,,,,,,,,,,,,,,,,,,
377704,001,2022-11-21_24h00.39.455,Info_measure_main_exp,2022.2.2,Win32,20.56766763,,,,,,,,,,,,,,,,,,masks/mask_001.jpg,,,,,,,,,,,,,,,,,,,,,,,,,,,,,,,,,,,,,,,,,,,,,,,,0,2,2,0,1,,,,,,,,,,,,,,,,,,,,,,,,,,,,,,,,,,,,,,,,,
377704,001,2022-11-21_24h00.39.455,Info_measure_main_exp,2022.2.2,Win32,20.56766763,,,,,,,,,,,,,,,,,,masks/mask_002.jpg,,,,,,,,,,,,,,,,,,,,,,,,,,,,,,,,,,,,,,,,,,,,,,,,0,3,3,1,1,,,,,,,,,,,,,,,,,,,,,,,,,,,,,,,,,,,,,,,,,
377704,001,2022-11-21_24h00.39.455,Info_measure_main_exp,2022.2.2,Win32,20.56766763,,,,,,,,,,,,,,,,,,masks/mask_005.jpg,,,,,,,,,,,,,,,,,,,,,,,,,,,,,,,,,,,,,,,,,,,,,,,,0,4,4,4,1,,,,,,,,,,,,,,,,,,,,,,,,,,,,,,,,,,,,,,,,,
377704,001,2022-11-21_24h00.39.455,Info_measure_main_exp,2022.2.2,Win32,20.56766763,,,,,,,,,,,,,,,,,,,,,,,,,,,,,,5,2.0562,1,,,,,,,,,,,,0,131,5,5,2190,2214,absent_patch/patch0002190.jpg,absent_patch/patch0002214.jpg,,,,,,,,,,,,,,,,,,,,0.120743034,-0.07997936,1,0,0,response3disk,14,0.009287926,-0.00877193,1,0,0,center_square,0,13,13,35,1,,,,,,,,,,,,,,,,,,,,,,,
377704,001,2022-11-21_24h00.39.455,Info_measure_main_exp,2022.2.2,Win32,20.56766763,,,,,,,,,,,,,,,,,,masks/mask_005.jpg,,,,,,,,,,,,,,,,,,,,,,,,,,,,,,,,,,,,,,,,,,,0,0,0,4,1,,,,,,,,,,,,,,,,,,,,,,,,,,,,,,,,,,,,,,,,,,,,,,
377704,001,2022-11-21_24h00.39.455,Info_measure_main_exp,2022.2.2,Win32,20.56766763,,,,,,,,,,,,,,,,,,masks/mask_003.jpg,,,,,,,,,,,,,,,,,,,,,,,,,,,,,,,,,,,,,,,,,,,0,1,1,2,1,,,,,,,,,,,,,,,,,,,,,,,,,,,,,,,,,,,,,,,,,,,,,,
377704,001,2022-11-21_24h00.39.455,Info_measure_main_exp,2022.2.2,Win32,20.56766763,,,,,,,,,,,,,,,,,,masks/mask_001.jpg,,,,,,,,,,,,,,,,,,,,,,,,,,,,,,,,,,,,,,,,,,,0,2,2,0,1,,,,,,,,,,,,,,,,,,,,,,,,,,,,,,,,,,,,,,,,,,,,,,
377704,001,2022-11-21_24h00.39.455,Info_measure_main_exp,2022.2.2,Win32,20.56766763,,,,,,,,,,,,,,,,,,masks/mask_002.jpg,,,,,,,,,,,,,,,,,,,,,,,,,,,,,,,,,,,,,,,,,,,0,3,3,1,1,,,,,,,,,,,,,,,,,,,,,,,,,,,,,,,,,,,,,,,,,,,,,,
377704,001,2022-11-21_24h00.39.455,Info_measure_main_exp,2022.2.2,Win32,20.56766763,,,,,,,,,,,,,,,,,,masks/mask_004.jpg,,,,,,,,,,,,,,,,,,,,,,,,,,,,,,,,,,,,,,,,,,,0,4,4,3,1,,,,,,,,,,,,,,,,,,,,,,,,,,,,,,,,,,,,,,,,,,,,,,
377704,001,2022-11-21_24h00.39.455,Info_measure_main_exp,2022.2.2,Win32,20.56766763,,,,,,,,,,,,,,,,,,masks/mask_004.jpg,,,,,,,,,,,,,,,,,,,,,,,,,,,,,,,,,,,,,,,,,,,,,,,,0,0,0,3,1,,,,,,,,,,,,,,,,,,,,,,,,,,,,,,,,,,,,,,,,,
377704,001,2022-11-21_24h00.39.455,Info_measure_main_exp,2022.2.2,Win32,20.56766763,,,,,,,,,,,,,,,,,,masks/mask_002.jpg,,,,,,,,,,,,,,,,,,,,,,,,,,,,,,,,,,,,,,,,,,,,,,,,0,1,1,1,1,,,,,,,,,,,,,,,,,,,,,,,,,,,,,,,,,,,,,,,,,
377704,001,2022-11-21_24h00.39.455,Info_measure_main_exp,2022.2.2,Win32,20.56766763,,,,,,,,,,,,,,,,,,masks/mask_003.jpg,,,,,,,,,,,,,,,,,,,,,,,,,,,,,,,,,,,,,,,,,,,,,,,,0,2,2,2,1,,,,,,,,,,,,,,,,,,,,,,,,,,,,,,,,,,,,,,,,,
377704,001,2022-11-21_24h00.39.455,Info_measure_main_exp,2022.2.2,Win32,20.56766763,,,,,,,,,,,,,,,,,,masks/mask_005.jpg,,,,,,,,,,,,,,,,,,,,,,,,,,,,,,,,,,,,,,,,,,,,,,,,0,3,3,4,1,,,,,,,,,,,,,,,,,,,,,,,,,,,,,,,,,,,,,,,,,
377704,001,2022-11-21_24h00.39.455,Info_measure_main_exp,2022.2.2,Win32,20.56766763,,,,,,,,,,,,,,,,,,masks/mask_001.jpg,,,,,,,,,,,,,,,,,,,,,,,,,,,,,,,,,,,,,,,,,,,,,,,,0,4,4,0,1,,,,,,,,,,,,,,,,,,,,,,,,,,,,,,,,,,,,,,,,,
377704,001,2022-11-21_24h00.39.455,Info_measure_main_exp,2022.2.2,Win32,20.56766763,,,,,,,,,,,,,,,,,,,,,,,,,,,,,,4,3.5146,1,,,,,,,,,,,,0,131,5,5,2274,2190,absent_patch/patch0002274.jpg,absent_patch/patch0002190.jpg,,,,,,,,,,,,,,,,,,,,0.076367389,-0.120227038,1,0,0,response3disk,15,-0.003095975,-0.00877193,1,0,0,center_square,0,14,14,116,1,,,,,,,,,,,,,,,,,,,,,,,
377704,001,2022-11-21_24h00.39.455,Info_measure_main_exp,2022.2.2,Win32,20.56766763,,,,,,,,,,,,,,,,,,masks/mask_005.jpg,,,,,,,,,,,,,,,,,,,,,,,,,,,,,,,,,,,,,,,,,,,0,0,0,4,1,,,,,,,,,,,,,,,,,,,,,,,,,,,,,,,,,,,,,,,,,,,,,,
377704,001,2022-11-21_24h00.39.455,Info_measure_main_exp,2022.2.2,Win32,20.56766763,,,,,,,,,,,,,,,,,,masks/mask_001.jpg,,,,,,,,,,,,,,,,,,,,,,,,,,,,,,,,,,,,,,,,,,,0,1,1,0,1,,,,,,,,,,,,,,,,,,,,,,,,,,,,,,,,,,,,,,,,,,,,,,
377704,001,2022-11-21_24h00.39.455,Info_measure_main_exp,2022.2.2,Win32,20.56766763,,,,,,,,,,,,,,,,,,masks/mask_003.jpg,,,,,,,,,,,,,,,,,,,,,,,,,,,,,,,,,,,,,,,,,,,0,2,2,2,1,,,,,,,,,,,,,,,,,,,,,,,,,,,,,,,,,,,,,,,,,,,,,,
377704,001,2022-11-21_24h00.39.455,Info_measure_main_exp,2022.2.2,Win32,20.56766763,,,,,,,,,,,,,,,,,,masks/mask_002.jpg,,,,,,,,,,,,,,,,,,,,,,,,,,,,,,,,,,,,,,,,,,,0,3,3,1,1,,,,,,,,,,,,,,,,,,,,,,,,,,,,,,,,,,,,,,,,,,,,,,
377704,001,2022-11-21_24h00.39.455,Info_measure_main_exp,2022.2.2,Win32,20.56766763,,,,,,,,,,,,,,,,,,masks/mask_004.jpg,,,,,,,,,,,,,,,,,,,,,,,,,,,,,,,,,,,,,,,,,,,0,4,4,3,1,,,,,,,,,,,,,,,,,,,,,,,,,,,,,,,,,,,,,,,,,,,,,,
377704,001,2022-11-21_24h00.39.455,Info_measure_main_exp,2022.2.2,Win32,20.56766763,,,,,,,,,,,,,,,,,,masks/mask_003.jpg,,,,,,,,,,,,,,,,,,,,,,,,,,,,,,,,,,,,,,,,,,,,,,,,0,0,0,2,1,,,,,,,,,,,,,,,,,,,,,,,,,,,,,,,,,,,,,,,,,
377704,001,2022-11-21_24h00.39.455,Info_measure_main_exp,2022.2.2,Win32,20.56766763,,,,,,,,,,,,,,,,,,masks/mask_004.jpg,,,,,,,,,,,,,,,,,,,,,,,,,,,,,,,,,,,,,,,,,,,,,,,,0,1,1,3,1,,,,,,,,,,,,,,,,,,,,,,,,,,,,,,,,,,,,,,,,,
377704,001,2022-11-21_24h00.39.455,Info_measure_main_exp,2022.2.2,Win32,20.56766763,,,,,,,,,,,,,,,,,,masks/mask_005.jpg,,,,,,,,,,,,,,,,,,,,,,,,,,,,,,,,,,,,,,,,,,,,,,,,0,2,2,4,1,,,,,,,,,,,,,,,,,,,,,,,,,,,,,,,,,,,,,,,,,
377704,001,2022-11-21_24h00.39.455,Info_measure_main_exp,2022.2.2,Win32,20.56766763,,,,,,,,,,,,,,,,,,masks/mask_002.jpg,,,,,,,,,,,,,,,,,,,,,,,,,,,,,,,,,,,,,,,,,,,,,,,,0,3,3,1,1,,,,,,,,,,,,,,,,,,,,,,,,,,,,,,,,,,,,,,,,,
377704,001,2022-11-21_24h00.39.455,Info_measure_main_exp,2022.2.2,Win32,20.56766763,,,,,,,,,,,,,,,,,,masks/mask_001.jpg,,,,,,,,,,,,,,,,,,,,,,,,,,,,,,,,,,,,,,,,,,,,,,,,0,4,4,0,1,,,,,,,,,,,,,,,,,,,,,,,,,,,,,,,,,,,,,,,,,
377704,001,2022-11-21_24h00.39.455,Info_measure_main_exp,2022.2.2,Win32,20.56766763,,,,,,,,,,,,,,,,,,,,,,,,,,,,,,2,3.2185,1,,,,,,,,,,,,0,131,5,5,2154,2238,absent_patch/patch0002154.jpg,absent_patch/patch0002238.jpg,,,,,,,,,,,,,,,,,,,,-0.151702786,-0.023219814,1,0,0,response5disk,16,-0.013415893,-0.006707946,1,0,0,center_square,0,15,15,21,1,,,,,,,,,,,,,,,,,,,,,,,
377704,001,2022-11-21_24h00.39.455,Info_measure_main_exp,2022.2.2,Win32,20.56766763,,,,,,,,,,,,,,,,,,masks/mask_003.jpg,,,,,,,,,,,,,,,,,,,,,,,,,,,,,,,,,,,,,,,,,,,0,0,0,2,1,,,,,,,,,,,,,,,,,,,,,,,,,,,,,,,,,,,,,,,,,,,,,,
377704,001,2022-11-21_24h00.39.455,Info_measure_main_exp,2022.2.2,Win32,20.56766763,,,,,,,,,,,,,,,,,,masks/mask_004.jpg,,,,,,,,,,,,,,,,,,,,,,,,,,,,,,,,,,,,,,,,,,,0,1,1,3,1,,,,,,,,,,,,,,,,,,,,,,,,,,,,,,,,,,,,,,,,,,,,,,
377704,001,2022-11-21_24h00.39.455,Info_measure_main_exp,2022.2.2,Win32,20.56766763,,,,,,,,,,,,,,,,,,masks/mask_005.jpg,,,,,,,,,,,,,,,,,,,,,,,,,,,,,,,,,,,,,,,,,,,0,2,2,4,1,,,,,,,,,,,,,,,,,,,,,,,,,,,,,,,,,,,,,,,,,,,,,,
377704,001,2022-11-21_24h00.39.455,Info_measure_main_exp,2022.2.2,Win32,20.56766763,,,,,,,,,,,,,,,,,,masks/mask_002.jpg,,,,,,,,,,,,,,,,,,,,,,,,,,,,,,,,,,,,,,,,,,,0,3,3,1,1,,,,,,,,,,,,,,,,,,,,,,,,,,,,,,,,,,,,,,,,,,,,,,
377704,001,2022-11-21_24h00.39.455,Info_measure_main_exp,2022.2.2,Win32,20.56766763,,,,,,,,,,,,,,,,,,masks/mask_001.jpg,,,,,,,,,,,,,,,,,,,,,,,,,,,,,,,,,,,,,,,,,,,0,4,4,0,1,,,,,,,,,,,,,,,,,,,,,,,,,,,,,,,,,,,,,,,,,,,,,,
377704,001,2022-11-21_24h00.39.455,Info_measure_main_exp,2022.2.2,Win32,20.56766763,,,,,,,,,,,,,,,,,,masks/mask_002.jpg,,,,,,,,,,,,,,,,,,,,,,,,,,,,,,,,,,,,,,,,,,,,,,,,0,0,0,1,1,,,,,,,,,,,,,,,,,,,,,,,,,,,,,,,,,,,,,,,,,
377704,001,2022-11-21_24h00.39.455,Info_measure_main_exp,2022.2.2,Win32,20.56766763,,,,,,,,,,,,,,,,,,masks/mask_003.jpg,,,,,,,,,,,,,,,,,,,,,,,,,,,,,,,,,,,,,,,,,,,,,,,,0,1,1,2,1,,,,,,,,,,,,,,,,,,,,,,,,,,,,,,,,,,,,,,,,,
377704,001,2022-11-21_24h00.39.455,Info_measure_main_exp,2022.2.2,Win32,20.56766763,,,,,,,,,,,,,,,,,,masks/mask_001.jpg,,,,,,,,,,,,,,,,,,,,,,,,,,,,,,,,,,,,,,,,,,,,,,,,0,2,2,0,1,,,,,,,,,,,,,,,,,,,,,,,,,,,,,,,,,,,,,,,,,
377704,001,2022-11-21_24h00.39.455,Info_measure_main_exp,2022.2.2,Win32,20.56766763,,,,,,,,,,,,,,,,,,masks/mask_004.jpg,,,,,,,,,,,,,,,,,,,,,,,,,,,,,,,,,,,,,,,,,,,,,,,,0,3,3,3,1,,,,,,,,,,,,,,,,,,,,,,,,,,,,,,,,,,,,,,,,,
377704,001,2022-11-21_24h00.39.455,Info_measure_main_exp,2022.2.2,Win32,20.56766763,,,,,,,,,,,,,,,,,,masks/mask_005.jpg,,,,,,,,,,,,,,,,,,,,,,,,,,,,,,,,,,,,,,,,,,,,,,,,0,4,4,4,1,,,,,,,,,,,,,,,,,,,,,,,,,,,,,,,,,,,,,,,,,
377704,001,2022-11-21_24h00.39.455,Info_measure_main_exp,2022.2.2,Win32,20.56766763,,,,,,,,,,,,,,,,,,,,,,,,,,,,,,0,0.9194,1,,,,,,,,,,,,0,131,5,5,2154,2154,absent_patch/patch0002154.jpg,absent_patch/patch0002154.jpg,,,,,,,,,,,,,,,,,,,,-0.090815273,0.115067079,1,0,0,response7disk,17,-0.009287926,0.007739938,1,0,0,center_square,0,16,16,89,1,,,,,,,,,,,,,,,,,,,,,,,
377704,001,2022-11-21_24h00.39.455,Info_measure_main_exp,2022.2.2,Win32,20.56766763,,,,,,,,,,,,,,,,,,masks/mask_005.jpg,,,,,,,,,,,,,,,,,,,,,,,,,,,,,,,,,,,,,,,,,,,0,0,0,4,1,,,,,,,,,,,,,,,,,,,,,,,,,,,,,,,,,,,,,,,,,,,,,,
377704,001,2022-11-21_24h00.39.455,Info_measure_main_exp,2022.2.2,Win32,20.56766763,,,,,,,,,,,,,,,,,,masks/mask_004.jpg,,,,,,,,,,,,,,,,,,,,,,,,,,,,,,,,,,,,,,,,,,,0,1,1,3,1,,,,,,,,,,,,,,,,,,,,,,,,,,,,,,,,,,,,,,,,,,,,,,
377704,001,2022-11-21_24h00.39.455,Info_measure_main_exp,2022.2.2,Win32,20.56766763,,,,,,,,,,,,,,,,,,masks/mask_002.jpg,,,,,,,,,,,,,,,,,,,,,,,,,,,,,,,,,,,,,,,,,,,0,2,2,1,1,,,,,,,,,,,,,,,,,,,,,,,,,,,,,,,,,,,,,,,,,,,,,,
377704,001,2022-11-21_24h00.39.455,Info_measure_main_exp,2022.2.2,Win32,20.56766763,,,,,,,,,,,,,,,,,,masks/mask_003.jpg,,,,,,,,,,,,,,,,,,,,,,,,,,,,,,,,,,,,,,,,,,,0,3,3,2,1,,,,,,,,,,,,,,,,,,,,,,,,,,,,,,,,,,,,,,,,,,,,,,
377704,001,2022-11-21_24h00.39.455,Info_measure_main_exp,2022.2.2,Win32,20.56766763,,,,,,,,,,,,,,,,,,masks/mask_001.jpg,,,,,,,,,,,,,,,,,,,,,,,,,,,,,,,,,,,,,,,,,,,0,4,4,0,1,,,,,,,,,,,,,,,,,,,,,,,,,,,,,,,,,,,,,,,,,,,,,,
377704,001,2022-11-21_24h00.39.455,Info_measure_main_exp,2022.2.2,Win32,20.56766763,,,,,,,,,,,,,,,,,,masks/mask_001.jpg,,,,,,,,,,,,,,,,,,,,,,,,,,,,,,,,,,,,,,,,,,,,,,,,0,0,0,0,1,,,,,,,,,,,,,,,,,,,,,,,,,,,,,,,,,,,,,,,,,
377704,001,2022-11-21_24h00.39.455,Info_measure_main_exp,2022.2.2,Win32,20.56766763,,,,,,,,,,,,,,,,,,masks/mask_005.jpg,,,,,,,,,,,,,,,,,,,,,,,,,,,,,,,,,,,,,,,,,,,,,,,,0,1,1,4,1,,,,,,,,,,,,,,,,,,,,,,,,,,,,,,,,,,,,,,,,,
377704,001,2022-11-21_24h00.39.455,Info_measure_main_exp,2022.2.2,Win32,20.56766763,,,,,,,,,,,,,,,,,,masks/mask_002.jpg,,,,,,,,,,,,,,,,,,,,,,,,,,,,,,,,,,,,,,,,,,,,,,,,0,2,2,1,1,,,,,,,,,,,,,,,,,,,,,,,,,,,,,,,,,,,,,,,,,
377704,001,2022-11-21_24h00.39.455,Info_measure_main_exp,2022.2.2,Win32,20.56766763,,,,,,,,,,,,,,,,,,masks/mask_003.jpg,,,,,,,,,,,,,,,,,,,,,,,,,,,,,,,,,,,,,,,,,,,,,,,,0,3,3,2,1,,,,,,,,,,,,,,,,,,,,,,,,,,,,,,,,,,,,,,,,,
377704,001,2022-11-21_24h00.39.455,Info_measure_main_exp,2022.2.2,Win32,20.56766763,,,,,,,,,,,,,,,,,,masks/mask_004.jpg,,,,,,,,,,,,,,,,,,,,,,,,,,,,,,,,,,,,,,,,,,,,,,,,0,4,4,3,1,,,,,,,,,,,,,,,,,,,,,,,,,,,,,,,,,,,,,,,,,
377704,001,2022-11-21_24h00.39.455,Info_measure_main_exp,2022.2.2,Win32,20.56766763,,,,,,,,,,,,,,,,,,,,,,,,,,,,,,6,2.6887,1,,,,,,,,,,,,0,131,5,5,2154,2214,absent_patch/patch0002154.jpg,absent_patch/patch0002214.jpg,,,,,,,,,,,,,,,,,,,,0.163054696,0.07378741,1,0,0,response1disk,18,-0.016511868,-0.001547988,1,0,0,center_square,0,17,17,67,1,,,,,,,,,,,,,,,,,,,,,,,
377704,001,2022-11-21_24h00.39.455,Info_measure_main_exp,2022.2.2,Win32,20.56766763,,,,,,,,,,,,,,,,,,masks/mask_003.jpg,,,,,,,,,,,,,,,,,,,,,,,,,,,,,,,,,,,,,,,,,,,0,0,0,2,1,,,,,,,,,,,,,,,,,,,,,,,,,,,,,,,,,,,,,,,,,,,,,,
377704,001,2022-11-21_24h00.39.455,Info_measure_main_exp,2022.2.2,Win32,20.56766763,,,,,,,,,,,,,,,,,,masks/mask_004.jpg,,,,,,,,,,,,,,,,,,,,,,,,,,,,,,,,,,,,,,,,,,,0,1,1,3,1,,,,,,,,,,,,,,,,,,,,,,,,,,,,,,,,,,,,,,,,,,,,,,
377704,001,2022-11-21_24h00.39.455,Info_measure_main_exp,2022.2.2,Win32,20.56766763,,,,,,,,,,,,,,,,,,masks/mask_001.jpg,,,,,,,,,,,,,,,,,,,,,,,,,,,,,,,,,,,,,,,,,,,0,2,2,0,1,,,,,,,,,,,,,,,,,,,,,,,,,,,,,,,,,,,,,,,,,,,,,,
377704,001,2022-11-21_24h00.39.455,Info_measure_main_exp,2022.2.2,Win32,20.56766763,,,,,,,,,,,,,,,,,,masks/mask_005.jpg,,,,,,,,,,,,,,,,,,,,,,,,,,,,,,,,,,,,,,,,,,,0,3,3,4,1,,,,,,,,,,,,,,,,,,,,,,,,,,,,,,,,,,,,,,,,,,,,,,
377704,001,2022-11-21_24h00.39.455,Info_measure_main_exp,2022.2.2,Win32,20.56766763,,,,,,,,,,,,,,,,,,masks/mask_002.jpg,,,,,,,,,,,,,,,,,,,,,,,,,,,,,,,,,,,,,,,,,,,0,4,4,1,1,,,,,,,,,,,,,,,,,,,,,,,,,,,,,,,,,,,,,,,,,,,,,,
377704,001,2022-11-21_24h00.39.455,Info_measure_main_exp,2022.2.2,Win32,20.56766763,,,,,,,,,,,,,,,,,,masks/mask_004.jpg,,,,,,,,,,,,,,,,,,,,,,,,,,,,,,,,,,,,,,,,,,,,,,,,0,0,0,3,1,,,,,,,,,,,,,,,,,,,,,,,,,,,,,,,,,,,,,,,,,
377704,001,2022-11-21_24h00.39.455,Info_measure_main_exp,2022.2.2,Win32,20.56766763,,,,,,,,,,,,,,,,,,masks/mask_001.jpg,,,,,,,,,,,,,,,,,,,,,,,,,,,,,,,,,,,,,,,,,,,,,,,,0,1,1,0,1,,,,,,,,,,,,,,,,,,,,,,,,,,,,,,,,,,,,,,,,,
377704,001,2022-11-21_24h00.39.455,Info_measure_main_exp,2022.2.2,Win32,20.56766763,,,,,,,,,,,,,,,,,,masks/mask_005.jpg,,,,,,,,,,,,,,,,,,,,,,,,,,,,,,,,,,,,,,,,,,,,,,,,0,2,2,4,1,,,,,,,,,,,,,,,,,,,,,,,,,,,,,,,,,,,,,,,,,
377704,001,2022-11-21_24h00.39.455,Info_measure_main_exp,2022.2.2,Win32,20.56766763,,,,,,,,,,,,,,,,,,masks/mask_002.jpg,,,,,,,,,,,,,,,,,,,,,,,,,,,,,,,,,,,,,,,,,,,,,,,,0,3,3,1,1,,,,,,,,,,,,,,,,,,,,,,,,,,,,,,,,,,,,,,,,,
377704,001,2022-11-21_24h00.39.455,Info_measure_main_exp,2022.2.2,Win32,20.56766763,,,,,,,,,,,,,,,,,,masks/mask_003.jpg,,,,,,,,,,,,,,,,,,,,,,,,,,,,,,,,,,,,,,,,,,,,,,,,0,4,4,2,1,,,,,,,,,,,,,,,,,,,,,,,,,,,,,,,,,,,,,,,,,
377704,001,2022-11-21_24h00.39.455,Info_measure_main_exp,2022.2.2,Win32,20.56766763,,,,,,,,,,,,,,,,,,,,,,,,,,,,,,0,1.336,1,,,,,,,,,,,,0,131,5,5,2214,2214,absent_patch/patch0002214.jpg,absent_patch/patch0002214.jpg,,,,,,,,,,,,,,,,,,,,-0.04127967,0.125386997,1,0,0,response7disk,19,-0.011351909,0.00877193,1,0,0,center_square,0,18,18,115,1,,,,,,,,,,,,,,,,,,,,,,,
377704,001,2022-11-21_24h00.39.455,Info_measure_main_exp,2022.2.2,Win32,20.56766763,,,,,,,,,,,,,,,,,,masks/mask_003.jpg,,,,,,,,,,,,,,,,,,,,,,,,,,,,,,,,,,,,,,,,,,,0,0,0,2,1,,,,,,,,,,,,,,,,,,,,,,,,,,,,,,,,,,,,,,,,,,,,,,
377704,001,2022-11-21_24h00.39.455,Info_measure_main_exp,2022.2.2,Win32,20.56766763,,,,,,,,,,,,,,,,,,masks/mask_002.jpg,,,,,,,,,,,,,,,,,,,,,,,,,,,,,,,,,,,,,,,,,,,0,1,1,1,1,,,,,,,,,,,,,,,,,,,,,,,,,,,,,,,,,,,,,,,,,,,,,,
377704,001,2022-11-21_24h00.39.455,Info_measure_main_exp,2022.2.2,Win32,20.56766763,,,,,,,,,,,,,,,,,,masks/mask_001.jpg,,,,,,,,,,,,,,,,,,,,,,,,,,,,,,,,,,,,,,,,,,,0,2,2,0,1,,,,,,,,,,,,,,,,,,,,,,,,,,,,,,,,,,,,,,,,,,,,,,
377704,001,2022-11-21_24h00.39.455,Info_measure_main_exp,2022.2.2,Win32,20.56766763,,,,,,,,,,,,,,,,,,masks/mask_004.jpg,,,,,,,,,,,,,,,,,,,,,,,,,,,,,,,,,,,,,,,,,,,0,3,3,3,1,,,,,,,,,,,,,,,,,,,,,,,,,,,,,,,,,,,,,,,,,,,,,,
377704,001,2022-11-21_24h00.39.455,Info_measure_main_exp,2022.2.2,Win32,20.56766763,,,,,,,,,,,,,,,,,,masks/mask_005.jpg,,,,,,,,,,,,,,,,,,,,,,,,,,,,,,,,,,,,,,,,,,,0,4,4,4,1,,,,,,,,,,,,,,,,,,,,,,,,,,,,,,,,,,,,,,,,,,,,,,
377704,001,2022-11-21_24h00.39.455,Info_measure_main_exp,2022.2.2,Win32,20.56766763,,,,,,,,,,,,,,,,,,masks/mask_004.jpg,,,,,,,,,,,,,,,,,,,,,,,,,,,,,,,,,,,,,,,,,,,,,,,,0,0,0,3,1,,,,,,,,,,,,,,,,,,,,,,,,,,,,,,,,,,,,,,,,,
377704,001,2022-11-21_24h00.39.455,Info_measure_main_exp,2022.2.2,Win32,20.56766763,,,,,,,,,,,,,,,,,,masks/mask_001.jpg,,,,,,,,,,,,,,,,,,,,,,,,,,,,,,,,,,,,,,,,,,,,,,,,0,1,1,0,1,,,,,,,,,,,,,,,,,,,,,,,,,,,,,,,,,,,,,,,,,
377704,001,2022-11-21_24h00.39.455,Info_measure_main_exp,2022.2.2,Win32,20.56766763,,,,,,,,,,,,,,,,,,masks/mask_005.jpg,,,,,,,,,,,,,,,,,,,,,,,,,,,,,,,,,,,,,,,,,,,,,,,,0,2,2,4,1,,,,,,,,,,,,,,,,,,,,,,,,,,,,,,,,,,,,,,,,,
377704,001,2022-11-21_24h00.39.455,Info_measure_main_exp,2022.2.2,Win32,20.56766763,,,,,,,,,,,,,,,,,,masks/mask_002.jpg,,,,,,,,,,,,,,,,,,,,,,,,,,,,,,,,,,,,,,,,,,,,,,,,0,3,3,1,1,,,,,,,,,,,,,,,,,,,,,,,,,,,,,,,,,,,,,,,,,
377704,001,2022-11-21_24h00.39.455,Info_measure_main_exp,2022.2.2,Win32,20.56766763,,,,,,,,,,,,,,,,,,masks/mask_003.jpg,,,,,,,,,,,,,,,,,,,,,,,,,,,,,,,,,,,,,,,,,,,,,,,,0,4,4,2,1,,,,,,,,,,,,,,,,,,,,,,,,,,,,,,,,,,,,,,,,,
377704,001,2022-11-21_24h00.39.455,Info_measure_main_exp,2022.2.2,Win32,20.56766763,,,,,,,,,,,,,,,,,,,,,,,,,,,,,,0,1.2537,1,,,,,,,,,,,,0,131,5,5,2178,2178,absent_patch/patch0002178.jpg,absent_patch/patch0002178.jpg,,,,,,,,,,,,,,,,,,,,-0.06501548,0.148090815,1,0,0,response7disk,20,-0.005159959,0.000515996,1,0,0,center_square,0,19,19,98,1,,,,,,,,,,,,,,,,,,,,,,,
377704,001,2022-11-21_24h00.39.455,Info_measure_main_exp,2022.2.2,Win32,20.56766763,,,,,,,,,,,,,,,,,,masks/mask_001.jpg,,,,,,,,,,,,,,,,,,,,,,,,,,,,,,,,,,,,,,,,,,,0,0,0,0,1,,,,,,,,,,,,,,,,,,,,,,,,,,,,,,,,,,,,,,,,,,,,,,
377704,001,2022-11-21_24h00.39.455,Info_measure_main_exp,2022.2.2,Win32,20.56766763,,,,,,,,,,,,,,,,,,masks/mask_004.jpg,,,,,,,,,,,,,,,,,,,,,,,,,,,,,,,,,,,,,,,,,,,0,1,1,3,1,,,,,,,,,,,,,,,,,,,,,,,,,,,,,,,,,,,,,,,,,,,,,,
377704,001,2022-11-21_24h00.39.455,Info_measure_main_exp,2022.2.2,Win32,20.56766763,,,,,,,,,,,,,,,,,,masks/mask_002.jpg,,,,,,,,,,,,,,,,,,,,,,,,,,,,,,,,,,,,,,,,,,,0,2,2,1,1,,,,,,,,,,,,,,,,,,,,,,,,,,,,,,,,,,,,,,,,,,,,,,
377704,001,2022-11-21_24h00.39.455,Info_measure_main_exp,2022.2.2,Win32,20.56766763,,,,,,,,,,,,,,,,,,masks/mask_003.jpg,,,,,,,,,,,,,,,,,,,,,,,,,,,,,,,,,,,,,,,,,,,0,3,3,2,1,,,,,,,,,,,,,,,,,,,,,,,,,,,,,,,,,,,,,,,,,,,,,,
377704,001,2022-11-21_24h00.39.455,Info_measure_main_exp,2022.2.2,Win32,20.56766763,,,,,,,,,,,,,,,,,,masks/mask_005.jpg,,,,,,,,,,,,,,,,,,,,,,,,,,,,,,,,,,,,,,,,,,,0,4,4,4,1,,,,,,,,,,,,,,,,,,,,,,,,,,,,,,,,,,,,,,,,,,,,,,
377704,001,2022-11-21_24h00.39.455,Info_measure_main_exp,2022.2.2,Win32,20.56766763,,,,,,,,,,,,,,,,,,masks/mask_005.jpg,,,,,,,,,,,,,,,,,,,,,,,,,,,,,,,,,,,,,,,,,,,,,,,,0,0,0,4,1,,,,,,,,,,,,,,,,,,,,,,,,,,,,,,,,,,,,,,,,,
377704,001,2022-11-21_24h00.39.455,Info_measure_main_exp,2022.2.2,Win32,20.56766763,,,,,,,,,,,,,,,,,,masks/mask_001.jpg,,,,,,,,,,,,,,,,,,,,,,,,,,,,,,,,,,,,,,,,,,,,,,,,0,1,1,0,1,,,,,,,,,,,,,,,,,,,,,,,,,,,,,,,,,,,,,,,,,
377704,001,2022-11-21_24h00.39.455,Info_measure_main_exp,2022.2.2,Win32,20.56766763,,,,,,,,,,,,,,,,,,masks/mask_004.jpg,,,,,,,,,,,,,,,,,,,,,,,,,,,,,,,,,,,,,,,,,,,,,,,,0,2,2,3,1,,,,,,,,,,,,,,,,,,,,,,,,,,,,,,,,,,,,,,,,,
377704,001,2022-11-21_24h00.39.455,Info_measure_main_exp,2022.2.2,Win32,20.56766763,,,,,,,,,,,,,,,,,,masks/mask_002.jpg,,,,,,,,,,,,,,,,,,,,,,,,,,,,,,,,,,,,,,,,,,,,,,,,0,3,3,1,1,,,,,,,,,,,,,,,,,,,,,,,,,,,,,,,,,,,,,,,,,
377704,001,2022-11-21_24h00.39.455,Info_measure_main_exp,2022.2.2,Win32,20.56766763,,,,,,,,,,,,,,,,,,masks/mask_003.jpg,,,,,,,,,,,,,,,,,,,,,,,,,,,,,,,,,,,,,,,,,,,,,,,,0,4,4,2,1,,,,,,,,,,,,,,,,,,,,,,,,,,,,,,,,,,,,,,,,,
377704,001,2022-11-21_24h00.39.455,Info_measure_main_exp,2022.2.2,Win32,20.56766763,,,,,,,,,,,,,,,,,,,,,,,,,,,,,,1,7.881,1,,,,,,,,,,,,0,131,5,5,2082,2298,absent_patch/patch0002082.jpg,absent_patch/patch0002298.jpg,,,,,,,,,,,,,,,,,,,,-0.170278638,0.066563467,1,0,0,response7disk,21,0.002063983,-0.00877193,1,0,0,center_square,0,20,20,107,1,,,,,,,,,,,,,,,,,,,,,,,
377704,001,2022-11-21_24h00.39.455,Info_measure_main_exp,2022.2.2,Win32,20.56766763,,,,,,,,,,,,,,,,,,masks/mask_004.jpg,,,,,,,,,,,,,,,,,,,,,,,,,,,,,,,,,,,,,,,,,,,0,0,0,3,1,,,,,,,,,,,,,,,,,,,,,,,,,,,,,,,,,,,,,,,,,,,,,,
377704,001,2022-11-21_24h00.39.455,Info_measure_main_exp,2022.2.2,Win32,20.56766763,,,,,,,,,,,,,,,,,,masks/mask_005.jpg,,,,,,,,,,,,,,,,,,,,,,,,,,,,,,,,,,,,,,,,,,,0,1,1,4,1,,,,,,,,,,,,,,,,,,,,,,,,,,,,,,,,,,,,,,,,,,,,,,
377704,001,2022-11-21_24h00.39.455,Info_measure_main_exp,2022.2.2,Win32,20.56766763,,,,,,,,,,,,,,,,,,masks/mask_002.jpg,,,,,,,,,,,,,,,,,,,,,,,,,,,,,,,,,,,,,,,,,,,0,2,2,1,1,,,,,,,,,,,,,,,,,,,,,,,,,,,,,,,,,,,,,,,,,,,,,,
377704,001,2022-11-21_24h00.39.455,Info_measure_main_exp,2022.2.2,Win32,20.56766763,,,,,,,,,,,,,,,,,,masks/mask_001.jpg,,,,,,,,,,,,,,,,,,,,,,,,,,,,,,,,,,,,,,,,,,,0,3,3,0,1,,,,,,,,,,,,,,,,,,,,,,,,,,,,,,,,,,,,,,,,,,,,,,
377704,001,2022-11-21_24h00.39.455,Info_measure_main_exp,2022.2.2,Win32,20.56766763,,,,,,,,,,,,,,,,,,masks/mask_003.jpg,,,,,,,,,,,,,,,,,,,,,,,,,,,,,,,,,,,,,,,,,,,0,4,4,2,1,,,,,,,,,,,,,,,,,,,,,,,,,,,,,,,,,,,,,,,,,,,,,,
377704,001,2022-11-21_24h00.39.455,Info_measure_main_exp,2022.2.2,Win32,20.56766763,,,,,,,,,,,,,,,,,,masks/mask_005.jpg,,,,,,,,,,,,,,,,,,,,,,,,,,,,,,,,,,,,,,,,,,,,,,,,0,0,0,4,1,,,,,,,,,,,,,,,,,,,,,,,,,,,,,,,,,,,,,,,,,
377704,001,2022-11-21_24h00.39.455,Info_measure_main_exp,2022.2.2,Win32,20.56766763,,,,,,,,,,,,,,,,,,masks/mask_002.jpg,,,,,,,,,,,,,,,,,,,,,,,,,,,,,,,,,,,,,,,,,,,,,,,,0,1,1,1,1,,,,,,,,,,,,,,,,,,,,,,,,,,,,,,,,,,,,,,,,,
377704,001,2022-11-21_24h00.39.455,Info_measure_main_exp,2022.2.2,Win32,20.56766763,,,,,,,,,,,,,,,,,,masks/mask_001.jpg,,,,,,,,,,,,,,,,,,,,,,,,,,,,,,,,,,,,,,,,,,,,,,,,0,2,2,0,1,,,,,,,,,,,,,,,,,,,,,,,,,,,,,,,,,,,,,,,,,
377704,001,2022-11-21_24h00.39.455,Info_measure_main_exp,2022.2.2,Win32,20.56766763,,,,,,,,,,,,,,,,,,masks/mask_004.jpg,,,,,,,,,,,,,,,,,,,,,,,,,,,,,,,,,,,,,,,,,,,,,,,,0,3,3,3,1,,,,,,,,,,,,,,,,,,,,,,,,,,,,,,,,,,,,,,,,,
377704,001,2022-11-21_24h00.39.455,Info_measure_main_exp,2022.2.2,Win32,20.56766763,,,,,,,,,,,,,,,,,,masks/mask_003.jpg,,,,,,,,,,,,,,,,,,,,,,,,,,,,,,,,,,,,,,,,,,,,,,,,0,4,4,2,1,,,,,,,,,,,,,,,,,,,,,,,,,,,,,,,,,,,,,,,,,
377704,001,2022-11-21_24h00.39.455,Info_measure_main_exp,2022.2.2,Win32,20.56766763,,,,,,,,,,,,,,,,,,,,,,,,,,,,,,0,1.1401,1,,,,,,,,,,,,0,131,5,5,2166,2166,absent_patch/patch0002166.jpg,absent_patch/patch0002166.jpg,,,,,,,,,,,,,,,,,,,,-0.06501548,0.12745098,1,0,0,response7disk,22,-0.003095975,-0.005675955,1,0,0,center_square,0,21,21,42,1,,,,,,,,,,,,,,,,,,,,,,,
377704,001,2022-11-21_24h00.39.455,Info_measure_main_exp,2022.2.2,Win32,20.56766763,,,,,,,,,,,,,,,,,,masks/mask_001.jpg,,,,,,,,,,,,,,,,,,,,,,,,,,,,,,,,,,,,,,,,,,,0,0,0,0,1,,,,,,,,,,,,,,,,,,,,,,,,,,,,,,,,,,,,,,,,,,,,,,
377704,001,2022-11-21_24h00.39.455,Info_measure_main_exp,2022.2.2,Win32,20.56766763,,,,,,,,,,,,,,,,,,masks/mask_002.jpg,,,,,,,,,,,,,,,,,,,,,,,,,,,,,,,,,,,,,,,,,,,0,1,1,1,1,,,,,,,,,,,,,,,,,,,,,,,,,,,,,,,,,,,,,,,,,,,,,,
377704,001,2022-11-21_24h00.39.455,Info_measure_main_exp,2022.2.2,Win32,20.56766763,,,,,,,,,,,,,,,,,,masks/mask_004.jpg,,,,,,,,,,,,,,,,,,,,,,,,,,,,,,,,,,,,,,,,,,,0,2,2,3,1,,,,,,,,,,,,,,,,,,,,,,,,,,,,,,,,,,,,,,,,,,,,,,
377704,001,2022-11-21_24h00.39.455,Info_measure_main_exp,2022.2.2,Win32,20.56766763,,,,,,,,,,,,,,,,,,masks/mask_005.jpg,,,,,,,,,,,,,,,,,,,,,,,,,,,,,,,,,,,,,,,,,,,0,3,3,4,1,,,,,,,,,,,,,,,,,,,,,,,,,,,,,,,,,,,,,,,,,,,,,,
377704,001,2022-11-21_24h00.39.455,Info_measure_main_exp,2022.2.2,Win32,20.56766763,,,,,,,,,,,,,,,,,,masks/mask_003.jpg,,,,,,,,,,,,,,,,,,,,,,,,,,,,,,,,,,,,,,,,,,,0,4,4,2,1,,,,,,,,,,,,,,,,,,,,,,,,,,,,,,,,,,,,,,,,,,,,,,
377704,001,2022-11-21_24h00.39.455,Info_measure_main_exp,2022.2.2,Win32,20.56766763,,,,,,,,,,,,,,,,,,masks/mask_003.jpg,,,,,,,,,,,,,,,,,,,,,,,,,,,,,,,,,,,,,,,,,,,,,,,,0,0,0,2,1,,,,,,,,,,,,,,,,,,,,,,,,,,,,,,,,,,,,,,,,,
377704,001,2022-11-21_24h00.39.455,Info_measure_main_exp,2022.2.2,Win32,20.56766763,,,,,,,,,,,,,,,,,,masks/mask_002.jpg,,,,,,,,,,,,,,,,,,,,,,,,,,,,,,,,,,,,,,,,,,,,,,,,0,1,1,1,1,,,,,,,,,,,,,,,,,,,,,,,,,,,,,,,,,,,,,,,,,
377704,001,2022-11-21_24h00.39.455,Info_measure_main_exp,2022.2.2,Win32,20.56766763,,,,,,,,,,,,,,,,,,masks/mask_005.jpg,,,,,,,,,,,,,,,,,,,,,,,,,,,,,,,,,,,,,,,,,,,,,,,,0,2,2,4,1,,,,,,,,,,,,,,,,,,,,,,,,,,,,,,,,,,,,,,,,,
377704,001,2022-11-21_24h00.39.455,Info_measure_main_exp,2022.2.2,Win32,20.56766763,,,,,,,,,,,,,,,,,,masks/mask_004.jpg,,,,,,,,,,,,,,,,,,,,,,,,,,,,,,,,,,,,,,,,,,,,,,,,0,3,3,3,1,,,,,,,,,,,,,,,,,,,,,,,,,,,,,,,,,,,,,,,,,
377704,001,2022-11-21_24h00.39.455,Info_measure_main_exp,2022.2.2,Win32,20.56766763,,,,,,,,,,,,,,,,,,masks/mask_001.jpg,,,,,,,,,,,,,,,,,,,,,,,,,,,,,,,,,,,,,,,,,,,,,,,,0,4,4,0,1,,,,,,,,,,,,,,,,,,,,,,,,,,,,,,,,,,,,,,,,,
377704,001,2022-11-21_24h00.39.455,Info_measure_main_exp,2022.2.2,Win32,20.56766763,,,,,,,,,,,,,,,,,,,,,,,,,,,,,,2,1.9071,1,,,,,,,,,,,,0,131,5,5,2298,2190,absent_patch/patch0002298.jpg,absent_patch/patch0002190.jpg,,,,,,,,,,,,,,,,,,,,-0.124871001,-0.09752322,1,0,0,response5disk,23,0.013415893,0.009803922,1,0,0,center_square,0,22,22,20,1,,,,,,,,,,,,,,,,,,,,,,,
377704,001,2022-11-21_24h00.39.455,Info_measure_main_exp,2022.2.2,Win32,20.56766763,,,,,,,,,,,,,,,,,,masks/mask_005.jpg,,,,,,,,,,,,,,,,,,,,,,,,,,,,,,,,,,,,,,,,,,,0,0,0,4,1,,,,,,,,,,,,,,,,,,,,,,,,,,,,,,,,,,,,,,,,,,,,,,
377704,001,2022-11-21_24h00.39.455,Info_measure_main_exp,2022.2.2,Win32,20.56766763,,,,,,,,,,,,,,,,,,masks/mask_001.jpg,,,,,,,,,,,,,,,,,,,,,,,,,,,,,,,,,,,,,,,,,,,0,1,1,0,1,,,,,,,,,,,,,,,,,,,,,,,,,,,,,,,,,,,,,,,,,,,,,,
377704,001,2022-11-21_24h00.39.455,Info_measure_main_exp,2022.2.2,Win32,20.56766763,,,,,,,,,,,,,,,,,,masks/mask_002.jpg,,,,,,,,,,,,,,,,,,,,,,,,,,,,,,,,,,,,,,,,,,,0,2,2,1,1,,,,,,,,,,,,,,,,,,,,,,,,,,,,,,,,,,,,,,,,,,,,,,
377704,001,2022-11-21_24h00.39.455,Info_measure_main_exp,2022.2.2,Win32,20.56766763,,,,,,,,,,,,,,,,,,masks/mask_004.jpg,,,,,,,,,,,,,,,,,,,,,,,,,,,,,,,,,,,,,,,,,,,0,3,3,3,1,,,,,,,,,,,,,,,,,,,,,,,,,,,,,,,,,,,,,,,,,,,,,,
377704,001,2022-11-21_24h00.39.455,Info_measure_main_exp,2022.2.2,Win32,20.56766763,,,,,,,,,,,,,,,,,,masks/mask_003.jpg,,,,,,,,,,,,,,,,,,,,,,,,,,,,,,,,,,,,,,,,,,,0,4,4,2,1,,,,,,,,,,,,,,,,,,,,,,,,,,,,,,,,,,,,,,,,,,,,,,
377704,001,2022-11-21_24h00.39.455,Info_measure_main_exp,2022.2.2,Win32,20.56766763,,,,,,,,,,,,,,,,,,masks/mask_002.jpg,,,,,,,,,,,,,,,,,,,,,,,,,,,,,,,,,,,,,,,,,,,,,,,,0,0,0,1,1,,,,,,,,,,,,,,,,,,,,,,,,,,,,,,,,,,,,,,,,,
377704,001,2022-11-21_24h00.39.455,Info_measure_main_exp,2022.2.2,Win32,20.56766763,,,,,,,,,,,,,,,,,,masks/mask_001.jpg,,,,,,,,,,,,,,,,,,,,,,,,,,,,,,,,,,,,,,,,,,,,,,,,0,1,1,0,1,,,,,,,,,,,,,,,,,,,,,,,,,,,,,,,,,,,,,,,,,
377704,001,2022-11-21_24h00.39.455,Info_measure_main_exp,2022.2.2,Win32,20.56766763,,,,,,,,,,,,,,,,,,masks/mask_004.jpg,,,,,,,,,,,,,,,,,,,,,,,,,,,,,,,,,,,,,,,,,,,,,,,,0,2,2,3,1,,,,,,,,,,,,,,,,,,,,,,,,,,,,,,,,,,,,,,,,,
377704,001,2022-11-21_24h00.39.455,Info_measure_main_exp,2022.2.2,Win32,20.56766763,,,,,,,,,,,,,,,,,,masks/mask_003.jpg,,,,,,,,,,,,,,,,,,,,,,,,,,,,,,,,,,,,,,,,,,,,,,,,0,3,3,2,1,,,,,,,,,,,,,,,,,,,,,,,,,,,,,,,,,,,,,,,,,
377704,001,2022-11-21_24h00.39.455,Info_measure_main_exp,2022.2.2,Win32,20.56766763,,,,,,,,,,,,,,,,,,masks/mask_005.jpg,,,,,,,,,,,,,,,,,,,,,,,,,,,,,,,,,,,,,,,,,,,,,,,,0,4,4,4,1,,,,,,,,,,,,,,,,,,,,,,,,,,,,,,,,,,,,,,,,,
377704,001,2022-11-21_24h00.39.455,Info_measure_main_exp,2022.2.2,Win32,20.56766763,,,,,,,,,,,,,,,,,,,,,,,,,,,,,,6,1.8783,1,,,,,,,,,,,,0,131,5,5,2250,2166,absent_patch/patch0002250.jpg,absent_patch/patch0002166.jpg,,,,,,,,,,,,,,,,,,,,0.111455108,0.03869969,1,0,0,response1disk,24,0.003095975,0.009803922,1,0,0,center_square,0,23,23,60,1,,,,,,,,,,,,,,,,,,,,,,,
377704,001,2022-11-21_24h00.39.455,Info_measure_main_exp,2022.2.2,Win32,20.56766763,,,,,,,,,,,,,,,,,,masks/mask_001.jpg,,,,,,,,,,,,,,,,,,,,,,,,,,,,,,,,,,,,,,,,,,,0,0,0,0,1,,,,,,,,,,,,,,,,,,,,,,,,,,,,,,,,,,,,,,,,,,,,,,
377704,001,2022-11-21_24h00.39.455,Info_measure_main_exp,2022.2.2,Win32,20.56766763,,,,,,,,,,,,,,,,,,masks/mask_003.jpg,,,,,,,,,,,,,,,,,,,,,,,,,,,,,,,,,,,,,,,,,,,0,1,1,2,1,,,,,,,,,,,,,,,,,,,,,,,,,,,,,,,,,,,,,,,,,,,,,,
377704,001,2022-11-21_24h00.39.455,Info_measure_main_exp,2022.2.2,Win32,20.56766763,,,,,,,,,,,,,,,,,,masks/mask_005.jpg,,,,,,,,,,,,,,,,,,,,,,,,,,,,,,,,,,,,,,,,,,,0,2,2,4,1,,,,,,,,,,,,,,,,,,,,,,,,,,,,,,,,,,,,,,,,,,,,,,
377704,001,2022-11-21_24h00.39.455,Info_measure_main_exp,2022.2.2,Win32,20.56766763,,,,,,,,,,,,,,,,,,masks/mask_002.jpg,,,,,,,,,,,,,,,,,,,,,,,,,,,,,,,,,,,,,,,,,,,0,3,3,1,1,,,,,,,,,,,,,,,,,,,,,,,,,,,,,,,,,,,,,,,,,,,,,,
377704,001,2022-11-21_24h00.39.455,Info_measure_main_exp,2022.2.2,Win32,20.56766763,,,,,,,,,,,,,,,,,,masks/mask_004.jpg,,,,,,,,,,,,,,,,,,,,,,,,,,,,,,,,,,,,,,,,,,,0,4,4,3,1,,,,,,,,,,,,,,,,,,,,,,,,,,,,,,,,,,,,,,,,,,,,,,
377704,001,2022-11-21_24h00.39.455,Info_measure_main_exp,2022.2.2,Win32,20.56766763,,,,,,,,,,,,,,,,,,masks/mask_005.jpg,,,,,,,,,,,,,,,,,,,,,,,,,,,,,,,,,,,,,,,,,,,,,,,,0,0,0,4,1,,,,,,,,,,,,,,,,,,,,,,,,,,,,,,,,,,,,,,,,,
377704,001,2022-11-21_24h00.39.455,Info_measure_main_exp,2022.2.2,Win32,20.56766763,,,,,,,,,,,,,,,,,,masks/mask_004.jpg,,,,,,,,,,,,,,,,,,,,,,,,,,,,,,,,,,,,,,,,,,,,,,,,0,1,1,3,1,,,,,,,,,,,,,,,,,,,,,,,,,,,,,,,,,,,,,,,,,
377704,001,2022-11-21_24h00.39.455,Info_measure_main_exp,2022.2.2,Win32,20.56766763,,,,,,,,,,,,,,,,,,masks/mask_003.jpg,,,,,,,,,,,,,,,,,,,,,,,,,,,,,,,,,,,,,,,,,,,,,,,,0,2,2,2,1,,,,,,,,,,,,,,,,,,,,,,,,,,,,,,,,,,,,,,,,,
377704,001,2022-11-21_24h00.39.455,Info_measure_main_exp,2022.2.2,Win32,20.56766763,,,,,,,,,,,,,,,,,,masks/mask_002.jpg,,,,,,,,,,,,,,,,,,,,,,,,,,,,,,,,,,,,,,,,,,,,,,,,0,3,3,1,1,,,,,,,,,,,,,,,,,,,,,,,,,,,,,,,,,,,,,,,,,
377704,001,2022-11-21_24h00.39.455,Info_measure_main_exp,2022.2.2,Win32,20.56766763,,,,,,,,,,,,,,,,,,masks/mask_001.jpg,,,,,,,,,,,,,,,,,,,,,,,,,,,,,,,,,,,,,,,,,,,,,,,,0,4,4,0,1,,,,,,,,,,,,,,,,,,,,,,,,,,,,,,,,,,,,,,,,,
377704,001,2022-11-21_24h00.39.455,Info_measure_main_exp,2022.2.2,Win32,20.56766763,,,,,,,,,,,,,,,,,,,,,,,,,,,,,,7,2.0848,1,,,,,,,,,,,,0,131,5,5,2190,1974,absent_patch/patch0002190.jpg,absent_patch/patch0001974.jpg,,,,,,,,,,,,,,,,,,,,0.049535604,0.091331269,1,0,0,response1disk,25,0.004127967,0.007739938,1,0,0,center_square,0,24,24,119,1,,,,,,,,,,,,,,,,,,,,,,,
377704,001,2022-11-21_24h00.39.455,Info_measure_main_exp,2022.2.2,Win32,20.56766763,,,,,,,,,,,,,,,,,,masks/mask_001.jpg,,,,,,,,,,,,,,,,,,,,,,,,,,,,,,,,,,,,,,,,,,,0,0,0,0,1,,,,,,,,,,,,,,,,,,,,,,,,,,,,,,,,,,,,,,,,,,,,,,
377704,001,2022-11-21_24h00.39.455,Info_measure_main_exp,2022.2.2,Win32,20.56766763,,,,,,,,,,,,,,,,,,masks/mask_003.jpg,,,,,,,,,,,,,,,,,,,,,,,,,,,,,,,,,,,,,,,,,,,0,1,1,2,1,,,,,,,,,,,,,,,,,,,,,,,,,,,,,,,,,,,,,,,,,,,,,,
377704,001,2022-11-21_24h00.39.455,Info_measure_main_exp,2022.2.2,Win32,20.56766763,,,,,,,,,,,,,,,,,,masks/mask_002.jpg,,,,,,,,,,,,,,,,,,,,,,,,,,,,,,,,,,,,,,,,,,,0,2,2,1,1,,,,,,,,,,,,,,,,,,,,,,,,,,,,,,,,,,,,,,,,,,,,,,
377704,001,2022-11-21_24h00.39.455,Info_measure_main_exp,2022.2.2,Win32,20.56766763,,,,,,,,,,,,,,,,,,masks/mask_004.jpg,,,,,,,,,,,,,,,,,,,,,,,,,,,,,,,,,,,,,,,,,,,0,3,3,3,1,,,,,,,,,,,,,,,,,,,,,,,,,,,,,,,,,,,,,,,,,,,,,,
377704,001,2022-11-21_24h00.39.455,Info_measure_main_exp,2022.2.2,Win32,20.56766763,,,,,,,,,,,,,,,,,,masks/mask_005.jpg,,,,,,,,,,,,,,,,,,,,,,,,,,,,,,,,,,,,,,,,,,,0,4,4,4,1,,,,,,,,,,,,,,,,,,,,,,,,,,,,,,,,,,,,,,,,,,,,,,
377704,001,2022-11-21_24h00.39.455,Info_measure_main_exp,2022.2.2,Win32,20.56766763,,,,,,,,,,,,,,,,,,masks/mask_001.jpg,,,,,,,,,,,,,,,,,,,,,,,,,,,,,,,,,,,,,,,,,,,,,,,,0,0,0,0,1,,,,,,,,,,,,,,,,,,,,,,,,,,,,,,,,,,,,,,,,,
377704,001,2022-11-21_24h00.39.455,Info_measure_main_exp,2022.2.2,Win32,20.56766763,,,,,,,,,,,,,,,,,,masks/mask_003.jpg,,,,,,,,,,,,,,,,,,,,,,,,,,,,,,,,,,,,,,,,,,,,,,,,0,1,1,2,1,,,,,,,,,,,,,,,,,,,,,,,,,,,,,,,,,,,,,,,,,
377704,001,2022-11-21_24h00.39.455,Info_measure_main_exp,2022.2.2,Win32,20.56766763,,,,,,,,,,,,,,,,,,masks/mask_004.jpg,,,,,,,,,,,,,,,,,,,,,,,,,,,,,,,,,,,,,,,,,,,,,,,,0,2,2,3,1,,,,,,,,,,,,,,,,,,,,,,,,,,,,,,,,,,,,,,,,,
377704,001,2022-11-21_24h00.39.455,Info_measure_main_exp,2022.2.2,Win32,20.56766763,,,,,,,,,,,,,,,,,,masks/mask_005.jpg,,,,,,,,,,,,,,,,,,,,,,,,,,,,,,,,,,,,,,,,,,,,,,,,0,3,3,4,1,,,,,,,,,,,,,,,,,,,,,,,,,,,,,,,,,,,,,,,,,
377704,001,2022-11-21_24h00.39.455,Info_measure_main_exp,2022.2.2,Win32,20.56766763,,,,,,,,,,,,,,,,,,masks/mask_002.jpg,,,,,,,,,,,,,,,,,,,,,,,,,,,,,,,,,,,,,,,,,,,,,,,,0,4,4,1,1,,,,,,,,,,,,,,,,,,,,,,,,,,,,,,,,,,,,,,,,,
377704,001,2022-11-21_24h00.39.455,Info_measure_main_exp,2022.2.2,Win32,20.56766763,,,,,,,,,,,,,,,,,,,,,,,,,,,,,,4,1.8204,1,,,,,,,,,,,,0,131,5,5,2274,2166,absent_patch/patch0002274.jpg,absent_patch/patch0002166.jpg,,,,,,,,,,,,,,,,,,,,0.039215686,-0.088235294,1,0,0,response3disk,26,-0.00619195,0.000515996,1,0,0,center_square,0,25,25,78,1,,,,,,,,,,,,,,,,,,,,,,,
377704,001,2022-11-21_24h00.39.455,Info_measure_main_exp,2022.2.2,Win32,20.56766763,,,,,,,,,,,,,,,,,,masks/mask_003.jpg,,,,,,,,,,,,,,,,,,,,,,,,,,,,,,,,,,,,,,,,,,,0,0,0,2,1,,,,,,,,,,,,,,,,,,,,,,,,,,,,,,,,,,,,,,,,,,,,,,
377704,001,2022-11-21_24h00.39.455,Info_measure_main_exp,2022.2.2,Win32,20.56766763,,,,,,,,,,,,,,,,,,masks/mask_002.jpg,,,,,,,,,,,,,,,,,,,,,,,,,,,,,,,,,,,,,,,,,,,0,1,1,1,1,,,,,,,,,,,,,,,,,,,,,,,,,,,,,,,,,,,,,,,,,,,,,,
377704,001,2022-11-21_24h00.39.455,Info_measure_main_exp,2022.2.2,Win32,20.56766763,,,,,,,,,,,,,,,,,,masks/mask_004.jpg,,,,,,,,,,,,,,,,,,,,,,,,,,,,,,,,,,,,,,,,,,,0,2,2,3,1,,,,,,,,,,,,,,,,,,,,,,,,,,,,,,,,,,,,,,,,,,,,,,
377704,001,2022-11-21_24h00.39.455,Info_measure_main_exp,2022.2.2,Win32,20.56766763,,,,,,,,,,,,,,,,,,masks/mask_005.jpg,,,,,,,,,,,,,,,,,,,,,,,,,,,,,,,,,,,,,,,,,,,0,3,3,4,1,,,,,,,,,,,,,,,,,,,,,,,,,,,,,,,,,,,,,,,,,,,,,,
377704,001,2022-11-21_24h00.39.455,Info_measure_main_exp,2022.2.2,Win32,20.56766763,,,,,,,,,,,,,,,,,,masks/mask_001.jpg,,,,,,,,,,,,,,,,,,,,,,,,,,,,,,,,,,,,,,,,,,,0,4,4,0,1,,,,,,,,,,,,,,,,,,,,,,,,,,,,,,,,,,,,,,,,,,,,,,
377704,001,2022-11-21_24h00.39.455,Info_measure_main_exp,2022.2.2,Win32,20.56766763,,,,,,,,,,,,,,,,,,masks/mask_002.jpg,,,,,,,,,,,,,,,,,,,,,,,,,,,,,,,,,,,,,,,,,,,,,,,,0,0,0,1,1,,,,,,,,,,,,,,,,,,,,,,,,,,,,,,,,,,,,,,,,,
377704,001,2022-11-21_24h00.39.455,Info_measure_main_exp,2022.2.2,Win32,20.56766763,,,,,,,,,,,,,,,,,,masks/mask_005.jpg,,,,,,,,,,,,,,,,,,,,,,,,,,,,,,,,,,,,,,,,,,,,,,,,0,1,1,4,1,,,,,,,,,,,,,,,,,,,,,,,,,,,,,,,,,,,,,,,,,
377704,001,2022-11-21_24h00.39.455,Info_measure_main_exp,2022.2.2,Win32,20.56766763,,,,,,,,,,,,,,,,,,masks/mask_001.jpg,,,,,,,,,,,,,,,,,,,,,,,,,,,,,,,,,,,,,,,,,,,,,,,,0,2,2,0,1,,,,,,,,,,,,,,,,,,,,,,,,,,,,,,,,,,,,,,,,,
377704,001,2022-11-21_24h00.39.455,Info_measure_main_exp,2022.2.2,Win32,20.56766763,,,,,,,,,,,,,,,,,,masks/mask_004.jpg,,,,,,,,,,,,,,,,,,,,,,,,,,,,,,,,,,,,,,,,,,,,,,,,0,3,3,3,1,,,,,,,,,,,,,,,,,,,,,,,,,,,,,,,,,,,,,,,,,
377704,001,2022-11-21_24h00.39.455,Info_measure_main_exp,2022.2.2,Win32,20.56766763,,,,,,,,,,,,,,,,,,masks/mask_003.jpg,,,,,,,,,,,,,,,,,,,,,,,,,,,,,,,,,,,,,,,,,,,,,,,,0,4,4,2,1,,,,,,,,,,,,,,,,,,,,,,,,,,,,,,,,,,,,,,,,,
377704,001,2022-11-21_24h00.39.455,Info_measure_main_exp,2022.2.2,Win32,20.56766763,,,,,,,,,,,,,,,,,,,,,,,,,,,,,,6,2.1546,1,,,,,,,,,,,,0,131,5,5,2178,2238,absent_patch/patch0002178.jpg,absent_patch/patch0002238.jpg,,,,,,,,,,,,,,,,,,,,0.146542828,0.068627451,1,0,0,response1disk,27,0.009287926,0.004643963,1,0,0,center_square,0,26,26,57,1,,,,,,,,,,,,,,,,,,,,,,,
377704,001,2022-11-21_24h00.39.455,Info_measure_main_exp,2022.2.2,Win32,20.56766763,,,,,,,,,,,,,,,,,,masks/mask_002.jpg,,,,,,,,,,,,,,,,,,,,,,,,,,,,,,,,,,,,,,,,,,,0,0,0,1,1,,,,,,,,,,,,,,,,,,,,,,,,,,,,,,,,,,,,,,,,,,,,,,
377704,001,2022-11-21_24h00.39.455,Info_measure_main_exp,2022.2.2,Win32,20.56766763,,,,,,,,,,,,,,,,,,masks/mask_005.jpg,,,,,,,,,,,,,,,,,,,,,,,,,,,,,,,,,,,,,,,,,,,0,1,1,4,1,,,,,,,,,,,,,,,,,,,,,,,,,,,,,,,,,,,,,,,,,,,,,,
377704,001,2022-11-21_24h00.39.455,Info_measure_main_exp,2022.2.2,Win32,20.56766763,,,,,,,,,,,,,,,,,,masks/mask_004.jpg,,,,,,,,,,,,,,,,,,,,,,,,,,,,,,,,,,,,,,,,,,,0,2,2,3,1,,,,,,,,,,,,,,,,,,,,,,,,,,,,,,,,,,,,,,,,,,,,,,
377704,001,2022-11-21_24h00.39.455,Info_measure_main_exp,2022.2.2,Win32,20.56766763,,,,,,,,,,,,,,,,,,masks/mask_001.jpg,,,,,,,,,,,,,,,,,,,,,,,,,,,,,,,,,,,,,,,,,,,0,3,3,0,1,,,,,,,,,,,,,,,,,,,,,,,,,,,,,,,,,,,,,,,,,,,,,,
377704,001,2022-11-21_24h00.39.455,Info_measure_main_exp,2022.2.2,Win32,20.56766763,,,,,,,,,,,,,,,,,,masks/mask_003.jpg,,,,,,,,,,,,,,,,,,,,,,,,,,,,,,,,,,,,,,,,,,,0,4,4,2,1,,,,,,,,,,,,,,,,,,,,,,,,,,,,,,,,,,,,,,,,,,,,,,
377704,001,2022-11-21_24h00.39.455,Info_measure_main_exp,2022.2.2,Win32,20.56766763,,,,,,,,,,,,,,,,,,masks/mask_005.jpg,,,,,,,,,,,,,,,,,,,,,,,,,,,,,,,,,,,,,,,,,,,,,,,,0,0,0,4,1,,,,,,,,,,,,,,,,,,,,,,,,,,,,,,,,,,,,,,,,,
377704,001,2022-11-21_24h00.39.455,Info_measure_main_exp,2022.2.2,Win32,20.56766763,,,,,,,,,,,,,,,,,,masks/mask_002.jpg,,,,,,,,,,,,,,,,,,,,,,,,,,,,,,,,,,,,,,,,,,,,,,,,0,1,1,1,1,,,,,,,,,,,,,,,,,,,,,,,,,,,,,,,,,,,,,,,,,
377704,001,2022-11-21_24h00.39.455,Info_measure_main_exp,2022.2.2,Win32,20.56766763,,,,,,,,,,,,,,,,,,masks/mask_001.jpg,,,,,,,,,,,,,,,,,,,,,,,,,,,,,,,,,,,,,,,,,,,,,,,,0,2,2,0,1,,,,,,,,,,,,,,,,,,,,,,,,,,,,,,,,,,,,,,,,,
377704,001,2022-11-21_24h00.39.455,Info_measure_main_exp,2022.2.2,Win32,20.56766763,,,,,,,,,,,,,,,,,,masks/mask_003.jpg,,,,,,,,,,,,,,,,,,,,,,,,,,,,,,,,,,,,,,,,,,,,,,,,0,3,3,2,1,,,,,,,,,,,,,,,,,,,,,,,,,,,,,,,,,,,,,,,,,
377704,001,2022-11-21_24h00.39.455,Info_measure_main_exp,2022.2.2,Win32,20.56766763,,,,,,,,,,,,,,,,,,masks/mask_004.jpg,,,,,,,,,,,,,,,,,,,,,,,,,,,,,,,,,,,,,,,,,,,,,,,,0,4,4,3,1,,,,,,,,,,,,,,,,,,,,,,,,,,,,,,,,,,,,,,,,,
377704,001,2022-11-21_24h00.39.455,Info_measure_main_exp,2022.2.2,Win32,20.56766763,,,,,,,,,,,,,,,,,,,,,,,,,,,,,,7,0.9316,1,,,,,,,,,,,,0,131,5,5,2142,2190,absent_patch/patch0002142.jpg,absent_patch/patch0002190.jpg,,,,,,,,,,,,,,,,,,,,0.056759546,0.093395253,1,0,0,response1disk,28,0.010319917,0.017027864,1,0,0,center_square,0,27,27,70,1,,,,,,,,,,,,,,,,,,,,,,,
377704,001,2022-11-21_24h00.39.455,Info_measure_main_exp,2022.2.2,Win32,20.56766763,,,,,,,,,,,,,,,,,,masks/mask_004.jpg,,,,,,,,,,,,,,,,,,,,,,,,,,,,,,,,,,,,,,,,,,,0,0,0,3,1,,,,,,,,,,,,,,,,,,,,,,,,,,,,,,,,,,,,,,,,,,,,,,
377704,001,2022-11-21_24h00.39.455,Info_measure_main_exp,2022.2.2,Win32,20.56766763,,,,,,,,,,,,,,,,,,masks/mask_005.jpg,,,,,,,,,,,,,,,,,,,,,,,,,,,,,,,,,,,,,,,,,,,0,1,1,4,1,,,,,,,,,,,,,,,,,,,,,,,,,,,,,,,,,,,,,,,,,,,,,,
377704,001,2022-11-21_24h00.39.455,Info_measure_main_exp,2022.2.2,Win32,20.56766763,,,,,,,,,,,,,,,,,,masks/mask_001.jpg,,,,,,,,,,,,,,,,,,,,,,,,,,,,,,,,,,,,,,,,,,,0,2,2,0,1,,,,,,,,,,,,,,,,,,,,,,,,,,,,,,,,,,,,,,,,,,,,,,
377704,001,2022-11-21_24h00.39.455,Info_measure_main_exp,2022.2.2,Win32,20.56766763,,,,,,,,,,,,,,,,,,masks/mask_003.jpg,,,,,,,,,,,,,,,,,,,,,,,,,,,,,,,,,,,,,,,,,,,0,3,3,2,1,,,,,,,,,,,,,,,,,,,,,,,,,,,,,,,,,,,,,,,,,,,,,,
377704,001,2022-11-21_24h00.39.455,Info_measure_main_exp,2022.2.2,Win32,20.56766763,,,,,,,,,,,,,,,,,,masks/mask_002.jpg,,,,,,,,,,,,,,,,,,,,,,,,,,,,,,,,,,,,,,,,,,,0,4,4,1,1,,,,,,,,,,,,,,,,,,,,,,,,,,,,,,,,,,,,,,,,,,,,,,
377704,001,2022-11-21_24h00.39.455,Info_measure_main_exp,2022.2.2,Win32,20.56766763,,,,,,,,,,,,,,,,,,masks/mask_003.jpg,,,,,,,,,,,,,,,,,,,,,,,,,,,,,,,,,,,,,,,,,,,,,,,,0,0,0,2,1,,,,,,,,,,,,,,,,,,,,,,,,,,,,,,,,,,,,,,,,,
377704,001,2022-11-21_24h00.39.455,Info_measure_main_exp,2022.2.2,Win32,20.56766763,,,,,,,,,,,,,,,,,,masks/mask_001.jpg,,,,,,,,,,,,,,,,,,,,,,,,,,,,,,,,,,,,,,,,,,,,,,,,0,1,1,0,1,,,,,,,,,,,,,,,,,,,,,,,,,,,,,,,,,,,,,,,,,
377704,001,2022-11-21_24h00.39.455,Info_measure_main_exp,2022.2.2,Win32,20.56766763,,,,,,,,,,,,,,,,,,masks/mask_002.jpg,,,,,,,,,,,,,,,,,,,,,,,,,,,,,,,,,,,,,,,,,,,,,,,,0,2,2,1,1,,,,,,,,,,,,,,,,,,,,,,,,,,,,,,,,,,,,,,,,,
377704,001,2022-11-21_24h00.39.455,Info_measure_main_exp,2022.2.2,Win32,20.56766763,,,,,,,,,,,,,,,,,,masks/mask_005.jpg,,,,,,,,,,,,,,,,,,,,,,,,,,,,,,,,,,,,,,,,,,,,,,,,0,3,3,4,1,,,,,,,,,,,,,,,,,,,,,,,,,,,,,,,,,,,,,,,,,
377704,001,2022-11-21_24h00.39.455,Info_measure_main_exp,2022.2.2,Win32,20.56766763,,,,,,,,,,,,,,,,,,masks/mask_004.jpg,,,,,,,,,,,,,,,,,,,,,,,,,,,,,,,,,,,,,,,,,,,,,,,,0,4,4,3,1,,,,,,,,,,,,,,,,,,,,,,,,,,,,,,,,,,,,,,,,,
377704,001,2022-11-21_24h00.39.455,Info_measure_main_exp,2022.2.2,Win32,20.56766763,,,,,,,,,,,,,,,,,,,,,,,,,,,,,,7,1.2065,1,,,,,,,,,,,,1,131,5,5,2190,1,absent_patch/patch0002190.jpg,present_patch/cong_131_5_a.jpg,,,,,,,,,,,,,,,,,,,,0.02373581,0.122291022,1,0,0,response1disk,29,0.001031992,0.004643963,1,0,0,center_square,0,28,28,64,1,,,,,,,,,,,,,,,,,,,,,,,
377704,001,2022-11-21_24h00.39.455,Info_measure_main_exp,2022.2.2,Win32,20.56766763,,,,,,,,,,,,,,,,,,masks/mask_003.jpg,,,,,,,,,,,,,,,,,,,,,,,,,,,,,,,,,,,,,,,,,,,0,0,0,2,1,,,,,,,,,,,,,,,,,,,,,,,,,,,,,,,,,,,,,,,,,,,,,,
377704,001,2022-11-21_24h00.39.455,Info_measure_main_exp,2022.2.2,Win32,20.56766763,,,,,,,,,,,,,,,,,,masks/mask_002.jpg,,,,,,,,,,,,,,,,,,,,,,,,,,,,,,,,,,,,,,,,,,,0,1,1,1,1,,,,,,,,,,,,,,,,,,,,,,,,,,,,,,,,,,,,,,,,,,,,,,
377704,001,2022-11-21_24h00.39.455,Info_measure_main_exp,2022.2.2,Win32,20.56766763,,,,,,,,,,,,,,,,,,masks/mask_005.jpg,,,,,,,,,,,,,,,,,,,,,,,,,,,,,,,,,,,,,,,,,,,0,2,2,4,1,,,,,,,,,,,,,,,,,,,,,,,,,,,,,,,,,,,,,,,,,,,,,,
377704,001,2022-11-21_24h00.39.455,Info_measure_main_exp,2022.2.2,Win32,20.56766763,,,,,,,,,,,,,,,,,,masks/mask_004.jpg,,,,,,,,,,,,,,,,,,,,,,,,,,,,,,,,,,,,,,,,,,,0,3,3,3,1,,,,,,,,,,,,,,,,,,,,,,,,,,,,,,,,,,,,,,,,,,,,,,
377704,001,2022-11-21_24h00.39.455,Info_measure_main_exp,2022.2.2,Win32,20.56766763,,,,,,,,,,,,,,,,,,masks/mask_001.jpg,,,,,,,,,,,,,,,,,,,,,,,,,,,,,,,,,,,,,,,,,,,0,4,4,0,1,,,,,,,,,,,,,,,,,,,,,,,,,,,,,,,,,,,,,,,,,,,,,,
377704,001,2022-11-21_24h00.39.455,Info_measure_main_exp,2022.2.2,Win32,20.56766763,,,,,,,,,,,,,,,,,,masks/mask_001.jpg,,,,,,,,,,,,,,,,,,,,,,,,,,,,,,,,,,,,,,,,,,,,,,,,0,0,0,0,1,,,,,,,,,,,,,,,,,,,,,,,,,,,,,,,,,,,,,,,,,
377704,001,2022-11-21_24h00.39.455,Info_measure_main_exp,2022.2.2,Win32,20.56766763,,,,,,,,,,,,,,,,,,masks/mask_005.jpg,,,,,,,,,,,,,,,,,,,,,,,,,,,,,,,,,,,,,,,,,,,,,,,,0,1,1,4,1,,,,,,,,,,,,,,,,,,,,,,,,,,,,,,,,,,,,,,,,,
377704,001,2022-11-21_24h00.39.455,Info_measure_main_exp,2022.2.2,Win32,20.56766763,,,,,,,,,,,,,,,,,,masks/mask_003.jpg,,,,,,,,,,,,,,,,,,,,,,,,,,,,,,,,,,,,,,,,,,,,,,,,0,2,2,2,1,,,,,,,,,,,,,,,,,,,,,,,,,,,,,,,,,,,,,,,,,
377704,001,2022-11-21_24h00.39.455,Info_measure_main_exp,2022.2.2,Win32,20.56766763,,,,,,,,,,,,,,,,,,masks/mask_002.jpg,,,,,,,,,,,,,,,,,,,,,,,,,,,,,,,,,,,,,,,,,,,,,,,,0,3,3,1,1,,,,,,,,,,,,,,,,,,,,,,,,,,,,,,,,,,,,,,,,,
377704,001,2022-11-21_24h00.39.455,Info_measure_main_exp,2022.2.2,Win32,20.56766763,,,,,,,,,,,,,,,,,,masks/mask_004.jpg,,,,,,,,,,,,,,,,,,,,,,,,,,,,,,,,,,,,,,,,,,,,,,,,0,4,4,3,1,,,,,,,,,,,,,,,,,,,,,,,,,,,,,,,,,,,,,,,,,
377704,001,2022-11-21_24h00.39.455,Info_measure_main_exp,2022.2.2,Win32,20.56766763,,,,,,,,,,,,,,,,,,,,,,,,,,,,,,7,1.1452,1,,,,,,,,,,,,0,131,5,5,1974,2238,absent_patch/patch0001974.jpg,absent_patch/patch0002238.jpg,,,,,,,,,,,,,,,,,,,,0.016511868,0.105779154,1,0,0,response1disk,30,-0.016511868,0.002579979,1,0,0,center_square,0,29,29,95,1,,,,,,,,,,,,,,,,,,,,,,,
377704,001,2022-11-21_24h00.39.455,Info_measure_main_exp,2022.2.2,Win32,20.56766763,,,,,,,,,,,,,,,,,,masks/mask_001.jpg,,,,,,,,,,,,,,,,,,,,,,,,,,,,,,,,,,,,,,,,,,,0,0,0,0,1,,,,,,,,,,,,,,,,,,,,,,,,,,,,,,,,,,,,,,,,,,,,,,
377704,001,2022-11-21_24h00.39.455,Info_measure_main_exp,2022.2.2,Win32,20.56766763,,,,,,,,,,,,,,,,,,masks/mask_003.jpg,,,,,,,,,,,,,,,,,,,,,,,,,,,,,,,,,,,,,,,,,,,0,1,1,2,1,,,,,,,,,,,,,,,,,,,,,,,,,,,,,,,,,,,,,,,,,,,,,,
377704,001,2022-11-21_24h00.39.455,Info_measure_main_exp,2022.2.2,Win32,20.56766763,,,,,,,,,,,,,,,,,,masks/mask_004.jpg,,,,,,,,,,,,,,,,,,,,,,,,,,,,,,,,,,,,,,,,,,,0,2,2,3,1,,,,,,,,,,,,,,,,,,,,,,,,,,,,,,,,,,,,,,,,,,,,,,
377704,001,2022-11-21_24h00.39.455,Info_measure_main_exp,2022.2.2,Win32,20.56766763,,,,,,,,,,,,,,,,,,masks/mask_002.jpg,,,,,,,,,,,,,,,,,,,,,,,,,,,,,,,,,,,,,,,,,,,0,3,3,1,1,,,,,,,,,,,,,,,,,,,,,,,,,,,,,,,,,,,,,,,,,,,,,,
377704,001,2022-11-21_24h00.39.455,Info_measure_main_exp,2022.2.2,Win32,20.56766763,,,,,,,,,,,,,,,,,,masks/mask_005.jpg,,,,,,,,,,,,,,,,,,,,,,,,,,,,,,,,,,,,,,,,,,,0,4,4,4,1,,,,,,,,,,,,,,,,,,,,,,,,,,,,,,,,,,,,,,,,,,,,,,
377704,001,2022-11-21_24h00.39.455,Info_measure_main_exp,2022.2.2,Win32,20.56766763,,,,,,,,,,,,,,,,,,masks/mask_004.jpg,,,,,,,,,,,,,,,,,,,,,,,,,,,,,,,,,,,,,,,,,,,,,,,,0,0,0,3,1,,,,,,,,,,,,,,,,,,,,,,,,,,,,,,,,,,,,,,,,,
377704,001,2022-11-21_24h00.39.455,Info_measure_main_exp,2022.2.2,Win32,20.56766763,,,,,,,,,,,,,,,,,,masks/mask_005.jpg,,,,,,,,,,,,,,,,,,,,,,,,,,,,,,,,,,,,,,,,,,,,,,,,0,1,1,4,1,,,,,,,,,,,,,,,,,,,,,,,,,,,,,,,,,,,,,,,,,
377704,001,2022-11-21_24h00.39.455,Info_measure_main_exp,2022.2.2,Win32,20.56766763,,,,,,,,,,,,,,,,,,masks/mask_002.jpg,,,,,,,,,,,,,,,,,,,,,,,,,,,,,,,,,,,,,,,,,,,,,,,,0,2,2,1,1,,,,,,,,,,,,,,,,,,,,,,,,,,,,,,,,,,,,,,,,,
377704,001,2022-11-21_24h00.39.455,Info_measure_main_exp,2022.2.2,Win32,20.56766763,,,,,,,,,,,,,,,,,,masks/mask_001.jpg,,,,,,,,,,,,,,,,,,,,,,,,,,,,,,,,,,,,,,,,,,,,,,,,0,3,3,0,1,,,,,,,,,,,,,,,,,,,,,,,,,,,,,,,,,,,,,,,,,
377704,001,2022-11-21_24h00.39.455,Info_measure_main_exp,2022.2.2,Win32,20.56766763,,,,,,,,,,,,,,,,,,masks/mask_003.jpg,,,,,,,,,,,,,,,,,,,,,,,,,,,,,,,,,,,,,,,,,,,,,,,,0,4,4,2,1,,,,,,,,,,,,,,,,,,,,,,,,,,,,,,,,,,,,,,,,,
377704,001,2022-11-21_24h00.39.455,Info_measure_main_exp,2022.2.2,Win32,20.56766763,,,,,,,,,,,,,,,,,,,,,,,,,,,,,,6,1.4244,1,,,,,,,,,,,,0,131,5,5,2142,2082,absent_patch/patch0002142.jpg,absent_patch/patch0002082.jpg,,,,,,,,,,,,,,,,,,,,0.182662539,0.067595459,1,0,0,response1disk,31,0.004127967,-0.000515996,1,0,0,center_square,0,30,30,88,1,,,,,,,,,,,,,,,,,,,,,,,
377704,001,2022-11-21_24h00.39.455,Info_measure_main_exp,2022.2.2,Win32,20.56766763,,,,,,,,,,,,,,,,,,masks/mask_002.jpg,,,,,,,,,,,,,,,,,,,,,,,,,,,,,,,,,,,,,,,,,,,0,0,0,1,1,,,,,,,,,,,,,,,,,,,,,,,,,,,,,,,,,,,,,,,,,,,,,,
377704,001,2022-11-21_24h00.39.455,Info_measure_main_exp,2022.2.2,Win32,20.56766763,,,,,,,,,,,,,,,,,,masks/mask_004.jpg,,,,,,,,,,,,,,,,,,,,,,,,,,,,,,,,,,,,,,,,,,,0,1,1,3,1,,,,,,,,,,,,,,,,,,,,,,,,,,,,,,,,,,,,,,,,,,,,,,
377704,001,2022-11-21_24h00.39.455,Info_measure_main_exp,2022.2.2,Win32,20.56766763,,,,,,,,,,,,,,,,,,masks/mask_003.jpg,,,,,,,,,,,,,,,,,,,,,,,,,,,,,,,,,,,,,,,,,,,0,2,2,2,1,,,,,,,,,,,,,,,,,,,,,,,,,,,,,,,,,,,,,,,,,,,,,,
377704,001,2022-11-21_24h00.39.455,Info_measure_main_exp,2022.2.2,Win32,20.56766763,,,,,,,,,,,,,,,,,,masks/mask_001.jpg,,,,,,,,,,,,,,,,,,,,,,,,,,,,,,,,,,,,,,,,,,,0,3,3,0,1,,,,,,,,,,,,,,,,,,,,,,,,,,,,,,,,,,,,,,,,,,,,,,
377704,001,2022-11-21_24h00.39.455,Info_measure_main_exp,2022.2.2,Win32,20.56766763,,,,,,,,,,,,,,,,,,masks/mask_005.jpg,,,,,,,,,,,,,,,,,,,,,,,,,,,,,,,,,,,,,,,,,,,0,4,4,4,1,,,,,,,,,,,,,,,,,,,,,,,,,,,,,,,,,,,,,,,,,,,,,,
377704,001,2022-11-21_24h00.39.455,Info_measure_main_exp,2022.2.2,Win32,20.56766763,,,,,,,,,,,,,,,,,,masks/mask_004.jpg,,,,,,,,,,,,,,,,,,,,,,,,,,,,,,,,,,,,,,,,,,,,,,,,0,0,0,3,1,,,,,,,,,,,,,,,,,,,,,,,,,,,,,,,,,,,,,,,,,
377704,001,2022-11-21_24h00.39.455,Info_measure_main_exp,2022.2.2,Win32,20.56766763,,,,,,,,,,,,,,,,,,masks/mask_005.jpg,,,,,,,,,,,,,,,,,,,,,,,,,,,,,,,,,,,,,,,,,,,,,,,,0,1,1,4,1,,,,,,,,,,,,,,,,,,,,,,,,,,,,,,,,,,,,,,,,,
377704,001,2022-11-21_24h00.39.455,Info_measure_main_exp,2022.2.2,Win32,20.56766763,,,,,,,,,,,,,,,,,,masks/mask_002.jpg,,,,,,,,,,,,,,,,,,,,,,,,,,,,,,,,,,,,,,,,,,,,,,,,0,2,2,1,1,,,,,,,,,,,,,,,,,,,,,,,,,,,,,,,,,,,,,,,,,
377704,001,2022-11-21_24h00.39.455,Info_measure_main_exp,2022.2.2,Win32,20.56766763,,,,,,,,,,,,,,,,,,masks/mask_001.jpg,,,,,,,,,,,,,,,,,,,,,,,,,,,,,,,,,,,,,,,,,,,,,,,,0,3,3,0,1,,,,,,,,,,,,,,,,,,,,,,,,,,,,,,,,,,,,,,,,,
377704,001,2022-11-21_24h00.39.455,Info_measure_main_exp,2022.2.2,Win32,20.56766763,,,,,,,,,,,,,,,,,,masks/mask_003.jpg,,,,,,,,,,,,,,,,,,,,,,,,,,,,,,,,,,,,,,,,,,,,,,,,0,4,4,2,1,,,,,,,,,,,,,,,,,,,,,,,,,,,,,,,,,,,,,,,,,
377704,001,2022-11-21_24h00.39.455,Info_measure_main_exp,2022.2.2,Win32,20.56766763,,,,,,,,,,,,,,,,,,,,,,,,,,,,,,7,1.0626,1,,,,,,,,,,,,0,131,5,5,1974,2298,absent_patch/patch0001974.jpg,absent_patch/patch0002298.jpg,,,,,,,,,,,,,,,,,,,,0.086687307,0.152218782,1,0,0,response1disk,32,-0.005159959,-0.011867905,1,0,0,center_square,0,31,31,6,1,,,,,,,,,,,,,,,,,,,,,,,
377704,001,2022-11-21_24h00.39.455,Info_measure_main_exp,2022.2.2,Win32,20.56766763,,,,,,,,,,,,,,,,,,masks/mask_004.jpg,,,,,,,,,,,,,,,,,,,,,,,,,,,,,,,,,,,,,,,,,,,0,0,0,3,1,,,,,,,,,,,,,,,,,,,,,,,,,,,,,,,,,,,,,,,,,,,,,,
377704,001,2022-11-21_24h00.39.455,Info_measure_main_exp,2022.2.2,Win32,20.56766763,,,,,,,,,,,,,,,,,,masks/mask_001.jpg,,,,,,,,,,,,,,,,,,,,,,,,,,,,,,,,,,,,,,,,,,,0,1,1,0,1,,,,,,,,,,,,,,,,,,,,,,,,,,,,,,,,,,,,,,,,,,,,,,
377704,001,2022-11-21_24h00.39.455,Info_measure_main_exp,2022.2.2,Win32,20.56766763,,,,,,,,,,,,,,,,,,masks/mask_005.jpg,,,,,,,,,,,,,,,,,,,,,,,,,,,,,,,,,,,,,,,,,,,0,2,2,4,1,,,,,,,,,,,,,,,,,,,,,,,,,,,,,,,,,,,,,,,,,,,,,,
377704,001,2022-11-21_24h00.39.455,Info_measure_main_exp,2022.2.2,Win32,20.56766763,,,,,,,,,,,,,,,,,,masks/mask_003.jpg,,,,,,,,,,,,,,,,,,,,,,,,,,,,,,,,,,,,,,,,,,,0,3,3,2,1,,,,,,,,,,,,,,,,,,,,,,,,,,,,,,,,,,,,,,,,,,,,,,
377704,001,2022-11-21_24h00.39.455,Info_measure_main_exp,2022.2.2,Win32,20.56766763,,,,,,,,,,,,,,,,,,masks/mask_002.jpg,,,,,,,,,,,,,,,,,,,,,,,,,,,,,,,,,,,,,,,,,,,0,4,4,1,1,,,,,,,,,,,,,,,,,,,,,,,,,,,,,,,,,,,,,,,,,,,,,,
377704,001,2022-11-21_24h00.39.455,Info_measure_main_exp,2022.2.2,Win32,20.56766763,,,,,,,,,,,,,,,,,,masks/mask_002.jpg,,,,,,,,,,,,,,,,,,,,,,,,,,,,,,,,,,,,,,,,,,,,,,,,0,0,0,1,1,,,,,,,,,,,,,,,,,,,,,,,,,,,,,,,,,,,,,,,,,
377704,001,2022-11-21_24h00.39.455,Info_measure_main_exp,2022.2.2,Win32,20.56766763,,,,,,,,,,,,,,,,,,masks/mask_004.jpg,,,,,,,,,,,,,,,,,,,,,,,,,,,,,,,,,,,,,,,,,,,,,,,,0,1,1,3,1,,,,,,,,,,,,,,,,,,,,,,,,,,,,,,,,,,,,,,,,,
377704,001,2022-11-21_24h00.39.455,Info_measure_main_exp,2022.2.2,Win32,20.56766763,,,,,,,,,,,,,,,,,,masks/mask_001.jpg,,,,,,,,,,,,,,,,,,,,,,,,,,,,,,,,,,,,,,,,,,,,,,,,0,2,2,0,1,,,,,,,,,,,,,,,,,,,,,,,,,,,,,,,,,,,,,,,,,
377704,001,2022-11-21_24h00.39.455,Info_measure_main_exp,2022.2.2,Win32,20.56766763,,,,,,,,,,,,,,,,,,masks/mask_005.jpg,,,,,,,,,,,,,,,,,,,,,,,,,,,,,,,,,,,,,,,,,,,,,,,,0,3,3,4,1,,,,,,,,,,,,,,,,,,,,,,,,,,,,,,,,,,,,,,,,,
377704,001,2022-11-21_24h00.39.455,Info_measure_main_exp,2022.2.2,Win32,20.56766763,,,,,,,,,,,,,,,,,,masks/mask_003.jpg,,,,,,,,,,,,,,,,,,,,,,,,,,,,,,,,,,,,,,,,,,,,,,,,0,4,4,2,1,,,,,,,,,,,,,,,,,,,,,,,,,,,,,,,,,,,,,,,,,
377704,001,2022-11-21_24h00.39.455,Info_measure_main_exp,2022.2.2,Win32,20.56766763,,,,,,,,,,,,,,,,,,,,,,,,,,,,,,0,0.593,1,,,,,,,,,,,,0,131,5,5,2250,2250,absent_patch/patch0002250.jpg,absent_patch/patch0002250.jpg,,,,,,,,,,,,,,,,,,,,-0.073271414,0.114035088,1,0,0,response7disk,33,-0.011351909,-0.001547988,1,0,0,center_square,0,32,32,56,1,,,,,,,,,,,,,,,,,,,,,,,
377704,001,2022-11-21_24h00.39.455,Info_measure_main_exp,2022.2.2,Win32,20.56766763,,,,,,,,,,,,,,,,,,masks/mask_002.jpg,,,,,,,,,,,,,,,,,,,,,,,,,,,,,,,,,,,,,,,,,,,0,0,0,1,1,,,,,,,,,,,,,,,,,,,,,,,,,,,,,,,,,,,,,,,,,,,,,,
377704,001,2022-11-21_24h00.39.455,Info_measure_main_exp,2022.2.2,Win32,20.56766763,,,,,,,,,,,,,,,,,,masks/mask_001.jpg,,,,,,,,,,,,,,,,,,,,,,,,,,,,,,,,,,,,,,,,,,,0,1,1,0,1,,,,,,,,,,,,,,,,,,,,,,,,,,,,,,,,,,,,,,,,,,,,,,
377704,001,2022-11-21_24h00.39.455,Info_measure_main_exp,2022.2.2,Win32,20.56766763,,,,,,,,,,,,,,,,,,masks/mask_005.jpg,,,,,,,,,,,,,,,,,,,,,,,,,,,,,,,,,,,,,,,,,,,0,2,2,4,1,,,,,,,,,,,,,,,,,,,,,,,,,,,,,,,,,,,,,,,,,,,,,,
377704,001,2022-11-21_24h00.39.455,Info_measure_main_exp,2022.2.2,Win32,20.56766763,,,,,,,,,,,,,,,,,,masks/mask_004.jpg,,,,,,,,,,,,,,,,,,,,,,,,,,,,,,,,,,,,,,,,,,,0,3,3,3,1,,,,,,,,,,,,,,,,,,,,,,,,,,,,,,,,,,,,,,,,,,,,,,
377704,001,2022-11-21_24h00.39.455,Info_measure_main_exp,2022.2.2,Win32,20.56766763,,,,,,,,,,,,,,,,,,masks/mask_003.jpg,,,,,,,,,,,,,,,,,,,,,,,,,,,,,,,,,,,,,,,,,,,0,4,4,2,1,,,,,,,,,,,,,,,,,,,,,,,,,,,,,,,,,,,,,,,,,,,,,,
377704,001,2022-11-21_24h00.39.455,Info_measure_main_exp,2022.2.2,Win32,20.56766763,,,,,,,,,,,,,,,,,,masks/mask_002.jpg,,,,,,,,,,,,,,,,,,,,,,,,,,,,,,,,,,,,,,,,,,,,,,,,0,0,0,1,1,,,,,,,,,,,,,,,,,,,,,,,,,,,,,,,,,,,,,,,,,
377704,001,2022-11-21_24h00.39.455,Info_measure_main_exp,2022.2.2,Win32,20.56766763,,,,,,,,,,,,,,,,,,masks/mask_005.jpg,,,,,,,,,,,,,,,,,,,,,,,,,,,,,,,,,,,,,,,,,,,,,,,,0,1,1,4,1,,,,,,,,,,,,,,,,,,,,,,,,,,,,,,,,,,,,,,,,,
377704,001,2022-11-21_24h00.39.455,Info_measure_main_exp,2022.2.2,Win32,20.56766763,,,,,,,,,,,,,,,,,,masks/mask_001.jpg,,,,,,,,,,,,,,,,,,,,,,,,,,,,,,,,,,,,,,,,,,,,,,,,0,2,2,0,1,,,,,,,,,,,,,,,,,,,,,,,,,,,,,,,,,,,,,,,,,
377704,001,2022-11-21_24h00.39.455,Info_measure_main_exp,2022.2.2,Win32,20.56766763,,,,,,,,,,,,,,,,,,masks/mask_003.jpg,,,,,,,,,,,,,,,,,,,,,,,,,,,,,,,,,,,,,,,,,,,,,,,,0,3,3,2,1,,,,,,,,,,,,,,,,,,,,,,,,,,,,,,,,,,,,,,,,,
377704,001,2022-11-21_24h00.39.455,Info_measure_main_exp,2022.2.2,Win32,20.56766763,,,,,,,,,,,,,,,,,,masks/mask_004.jpg,,,,,,,,,,,,,,,,,,,,,,,,,,,,,,,,,,,,,,,,,,,,,,,,0,4,4,3,1,,,,,,,,,,,,,,,,,,,,,,,,,,,,,,,,,,,,,,,,,
377704,001,2022-11-21_24h00.39.455,Info_measure_main_exp,2022.2.2,Win32,20.56766763,,,,,,,,,,,,,,,,,,,,,,,,,,,,,,5,2.0732,1,,,,,,,,,,,,0,131,5,5,2142,2166,absent_patch/patch0002142.jpg,absent_patch/patch0002166.jpg,,,,,,,,,,,,,,,,,,,,0.139318885,-0.055211558,1,0,0,response3disk,34,-0.002063983,-0.002579979,1,0,0,center_square,0,33,33,66,1,,,,,,,,,,,,,,,,,,,,,,,
377704,001,2022-11-21_24h00.39.455,Info_measure_main_exp,2022.2.2,Win32,20.56766763,,,,,,,,,,,,,,,,,,masks/mask_003.jpg,,,,,,,,,,,,,,,,,,,,,,,,,,,,,,,,,,,,,,,,,,,0,0,0,2,1,,,,,,,,,,,,,,,,,,,,,,,,,,,,,,,,,,,,,,,,,,,,,,
377704,001,2022-11-21_24h00.39.455,Info_measure_main_exp,2022.2.2,Win32,20.56766763,,,,,,,,,,,,,,,,,,masks/mask_002.jpg,,,,,,,,,,,,,,,,,,,,,,,,,,,,,,,,,,,,,,,,,,,0,1,1,1,1,,,,,,,,,,,,,,,,,,,,,,,,,,,,,,,,,,,,,,,,,,,,,,
377704,001,2022-11-21_24h00.39.455,Info_measure_main_exp,2022.2.2,Win32,20.56766763,,,,,,,,,,,,,,,,,,masks/mask_004.jpg,,,,,,,,,,,,,,,,,,,,,,,,,,,,,,,,,,,,,,,,,,,0,2,2,3,1,,,,,,,,,,,,,,,,,,,,,,,,,,,,,,,,,,,,,,,,,,,,,,
377704,001,2022-11-21_24h00.39.455,Info_measure_main_exp,2022.2.2,Win32,20.56766763,,,,,,,,,,,,,,,,,,masks/mask_001.jpg,,,,,,,,,,,,,,,,,,,,,,,,,,,,,,,,,,,,,,,,,,,0,3,3,0,1,,,,,,,,,,,,,,,,,,,,,,,,,,,,,,,,,,,,,,,,,,,,,,
377704,001,2022-11-21_24h00.39.455,Info_measure_main_exp,2022.2.2,Win32,20.56766763,,,,,,,,,,,,,,,,,,masks/mask_005.jpg,,,,,,,,,,,,,,,,,,,,,,,,,,,,,,,,,,,,,,,,,,,0,4,4,4,1,,,,,,,,,,,,,,,,,,,,,,,,,,,,,,,,,,,,,,,,,,,,,,
377704,001,2022-11-21_24h00.39.455,Info_measure_main_exp,2022.2.2,Win32,20.56766763,,,,,,,,,,,,,,,,,,masks/mask_003.jpg,,,,,,,,,,,,,,,,,,,,,,,,,,,,,,,,,,,,,,,,,,,,,,,,0,0,0,2,1,,,,,,,,,,,,,,,,,,,,,,,,,,,,,,,,,,,,,,,,,
377704,001,2022-11-21_24h00.39.455,Info_measure_main_exp,2022.2.2,Win32,20.56766763,,,,,,,,,,,,,,,,,,masks/mask_004.jpg,,,,,,,,,,,,,,,,,,,,,,,,,,,,,,,,,,,,,,,,,,,,,,,,0,1,1,3,1,,,,,,,,,,,,,,,,,,,,,,,,,,,,,,,,,,,,,,,,,
377704,001,2022-11-21_24h00.39.455,Info_measure_main_exp,2022.2.2,Win32,20.56766763,,,,,,,,,,,,,,,,,,masks/mask_001.jpg,,,,,,,,,,,,,,,,,,,,,,,,,,,,,,,,,,,,,,,,,,,,,,,,0,2,2,0,1,,,,,,,,,,,,,,,,,,,,,,,,,,,,,,,,,,,,,,,,,
377704,001,2022-11-21_24h00.39.455,Info_measure_main_exp,2022.2.2,Win32,20.56766763,,,,,,,,,,,,,,,,,,masks/mask_005.jpg,,,,,,,,,,,,,,,,,,,,,,,,,,,,,,,,,,,,,,,,,,,,,,,,0,3,3,4,1,,,,,,,,,,,,,,,,,,,,,,,,,,,,,,,,,,,,,,,,,
