participant,session,date,expName,psychopyVersion,OS,frameRate,space_press_continue.keys,space_press_continue.rt,space_press_continue_2.keys,space_press_continue_2.rt,space_press_continue_3.keys,space_press_continue_3.rt,space_press_continue_4.keys,space_press_continue_4.rt,space_press_continue_5.keys,space_press_continue_5.rt,space_press_continue_6.keys,space_press_continue_6.rt,prac_mask_loop_1.thisRepN,prac_mask_loop_1.thisTrialN,prac_mask_loop_1.thisN,prac_mask_loop_1.thisIndex,prac_mask_loop_1.ran,mask_name,prac_mask_loop_2.thisRepN,prac_mask_loop_2.thisTrialN,prac_mask_loop_2.thisN,prac_mask_loop_2.thisIndex,prac_mask_loop_2.ran,mouse_2.x,mouse_2.y,mouse_2.leftButton,mouse_2.midButton,mouse_2.rightButton,mouse_2.clicked_name,similarity,response_time,Pass,mouse_12.x,mouse_12.y,mouse_12.leftButton,mouse_12.midButton,mouse_12.rightButton,mouse_12.clicked_name,prac_loop.thisRepN,prac_loop.thisTrialN,prac_loop.thisN,prac_loop.thisIndex,prac_loop.ran,Pair_type,Image_num,Patch_1_loc,Patch_2_loc,Patch_1_info,Patch_2_info,Patch_1_name,Patch_2_name,mouse_1.x,mouse_1.y,mouse_1.leftButton,mouse_1.midButton,mouse_1.rightButton,mouse_1.time,mouse_1.clicked_name,space_press_continue_7.keys,space_press_continue_7.rt,mask_loop.thisRepN,mask_loop.thisTrialN,mask_loop.thisN,mask_loop.thisIndex,mask_loop.ran,mask_loop_2.thisRepN,mask_loop_2.thisTrialN,mask_loop_2.thisN,mask_loop_2.thisIndex,mask_loop_2.ran,mouse.x,mouse.y,mouse.leftButton,mouse.midButton,mouse.rightButton,mouse.clicked_name,trialNumber,mouse_11.x,mouse_11.y,mouse_11.leftButton,mouse_11.midButton,mouse_11.rightButton,mouse_11.clicked_name,first_pass_loop.thisRepN,first_pass_loop.thisTrialN,first_pass_loop.thisN,first_pass_loop.thisIndex,first_pass_loop.ran,mask_loop_3.thisRepN,mask_loop_3.thisTrialN,mask_loop_3.thisN,mask_loop_3.thisIndex,mask_loop_3.ran,mask_loop_4.thisRepN,mask_loop_4.thisTrialN,mask_loop_4.thisN,mask_loop_4.thisIndex,mask_loop_4.ran,mouse_3.x,mouse_3.y,mouse_3.leftButton,mouse_3.midButton,mouse_3.rightButton,mouse_3.clicked_name,double_pass_loop.thisRepN,double_pass_loop.thisTrialN,double_pass_loop.thisN,double_pass_loop.thisIndex,double_pass_loop.ran,space_exit.keys,space_exit.rt
379787,001,2022-11-20_23h47.57.959,Info_measure_main_exp,2022.2.2,Win32,144.2169022,,,,,,,,,,,,,,,,,,,,,,,,,,,,,,,,,,,,,,,,,,,,,,,,,,,,,,,,,,,,,,,,,,,,,,,,,,,,,,,,,,,,,,,,,,,,,,,,,,,,,,,,,,,,,,,
379787,001,2022-11-20_23h47.57.959,Info_measure_main_exp,2022.2.2,Win32,144.2169022,,,,,,,,,,,,,,,,,,,,,,,,,,,,,,,,,,,,,,,,,,,,,,,,,,,,,,,,,,,,,,,,,,,,,,,,,,,,,,,,,,,,,,,,,,,,,,,,,,,,,,,,,,,,,,,
379787,001,2022-11-20_23h47.57.959,Info_measure_main_exp,2022.2.2,Win32,144.2169022,space,6.8594,,,,,,,,,,,,,,,,,,,,,,,,,,,,,,,,,,,,,,,,,,,,,,,,,,,,,,,,,,,,,,,,,,,,,,,,,,,,,,,,,,,,,,,,,,,,,,,,,,,,,,,,,,,,,
379787,001,2022-11-20_23h47.57.959,Info_measure_main_exp,2022.2.2,Win32,144.2169022,,,space,68.9899,,,,,,,,,,,,,,,,,,,,,,,,,,,,,,,,,,,,,,,,,,,,,,,,,,,,,,,,,,,,,,,,,,,,,,,,,,,,,,,,,,,,,,,,,,,,,,,,,,,,,,,,,,,
379787,001,2022-11-20_23h47.57.959,Info_measure_main_exp,2022.2.2,Win32,144.2169022,,,,,space,9.0767,,,,,,,,,,,,,,,,,,,,,,,,,,,,,,,,,,,,,,,,,,,,,,,,,,,,,,,,,,,,,,,,,,,,,,,,,,,,,,,,,,,,,,,,,,,,,,,,,,,,,,,,,
379787,001,2022-11-20_23h47.57.959,Info_measure_main_exp,2022.2.2,Win32,144.2169022,,,,,,,space,76.0591,,,,,,,,,,,,,,,,,,,,,,,,,,,,,,,,,,,,,,,,,,,,,,,,,,,,,,,,,,,,,,,,,,,,,,,,,,,,,,,,,,,,,,,,,,,,,,,,,,,,,,,
379787,001,2022-11-20_23h47.57.959,Info_measure_main_exp,2022.2.2,Win32,144.2169022,,,,,,,,,space,15.3523,,,,,,,,,,,,,,,,,,,,,,,,,,,,,,,,,,,,,,,,,,,,,,,,,,,,,,,,,,,,,,,,,,,,,,,,,,,,,,,,,,,,,,,,,,,,,,,,,,,,,
379787,001,2022-11-20_23h47.57.959,Info_measure_main_exp,2022.2.2,Win32,144.2169022,,,,,,,,,,,space,19.7936,,,,,,,,,,,,,,,,,,,,,,,,,,,,,,,,,,,,,,,,,,,,,,,,,,,,,,,,,,,,,,,,,,,,,,,,,,,,,,,,,,,,,,,,,,,,,,,,,,,
379787,001,2022-11-20_23h47.57.959,Info_measure_main_exp,2022.2.2,Win32,144.2169022,,,,,,,,,,,,,0,0,0,2,1,masks/mask_003.jpg,,,,,,,,,,,,,,,,,,,,,,,,,,,,,,,,,,,,,,,,,,,,,,,,,,,,,,,,,,,,,,,,,,,,,,,,,,,,,,,,,,,,,,,,,,,,,
379787,001,2022-11-20_23h47.57.959,Info_measure_main_exp,2022.2.2,Win32,144.2169022,,,,,,,,,,,,,0,1,1,3,1,masks/mask_004.jpg,,,,,,,,,,,,,,,,,,,,,,,,,,,,,,,,,,,,,,,,,,,,,,,,,,,,,,,,,,,,,,,,,,,,,,,,,,,,,,,,,,,,,,,,,,,,,
379787,001,2022-11-20_23h47.57.959,Info_measure_main_exp,2022.2.2,Win32,144.2169022,,,,,,,,,,,,,0,2,2,0,1,masks/mask_001.jpg,,,,,,,,,,,,,,,,,,,,,,,,,,,,,,,,,,,,,,,,,,,,,,,,,,,,,,,,,,,,,,,,,,,,,,,,,,,,,,,,,,,,,,,,,,,,,
379787,001,2022-11-20_23h47.57.959,Info_measure_main_exp,2022.2.2,Win32,144.2169022,,,,,,,,,,,,,0,3,3,1,1,masks/mask_002.jpg,,,,,,,,,,,,,,,,,,,,,,,,,,,,,,,,,,,,,,,,,,,,,,,,,,,,,,,,,,,,,,,,,,,,,,,,,,,,,,,,,,,,,,,,,,,,,
379787,001,2022-11-20_23h47.57.959,Info_measure_main_exp,2022.2.2,Win32,144.2169022,,,,,,,,,,,,,0,4,4,4,1,masks/mask_005.jpg,,,,,,,,,,,,,,,,,,,,,,,,,,,,,,,,,,,,,,,,,,,,,,,,,,,,,,,,,,,,,,,,,,,,,,,,,,,,,,,,,,,,,,,,,,,,,
379787,001,2022-11-20_23h47.57.959,Info_measure_main_exp,2022.2.2,Win32,144.2169022,,,,,,,,,,,,,,,,,,masks/mask_002.jpg,0,0,0,1,1,,,,,,,,,,,,,,,,,,,,,,,,,,,,,,,,,,,,,,,,,,,,,,,,,,,,,,,,,,,,,,,,,,,,,,,,,,,,,,,,,,,,,,,,
379787,001,2022-11-20_23h47.57.959,Info_measure_main_exp,2022.2.2,Win32,144.2169022,,,,,,,,,,,,,,,,,,masks/mask_003.jpg,0,1,1,2,1,,,,,,,,,,,,,,,,,,,,,,,,,,,,,,,,,,,,,,,,,,,,,,,,,,,,,,,,,,,,,,,,,,,,,,,,,,,,,,,,,,,,,,,,
379787,001,2022-11-20_23h47.57.959,Info_measure_main_exp,2022.2.2,Win32,144.2169022,,,,,,,,,,,,,,,,,,masks/mask_005.jpg,0,2,2,4,1,,,,,,,,,,,,,,,,,,,,,,,,,,,,,,,,,,,,,,,,,,,,,,,,,,,,,,,,,,,,,,,,,,,,,,,,,,,,,,,,,,,,,,,,
379787,001,2022-11-20_23h47.57.959,Info_measure_main_exp,2022.2.2,Win32,144.2169022,,,,,,,,,,,,,,,,,,masks/mask_001.jpg,0,3,3,0,1,,,,,,,,,,,,,,,,,,,,,,,,,,,,,,,,,,,,,,,,,,,,,,,,,,,,,,,,,,,,,,,,,,,,,,,,,,,,,,,,,,,,,,,,
379787,001,2022-11-20_23h47.57.959,Info_measure_main_exp,2022.2.2,Win32,144.2169022,,,,,,,,,,,,,,,,,,masks/mask_004.jpg,0,4,4,3,1,,,,,,,,,,,,,,,,,,,,,,,,,,,,,,,,,,,,,,,,,,,,,,,,,,,,,,,,,,,,,,,,,,,,,,,,,,,,,,,,,,,,,,,,
379787,001,2022-11-20_23h47.57.959,Info_measure_main_exp,2022.2.2,Win32,144.2169022,,,,,,,,,,,,,,,,,,,,,,,,0.084259259,-0.128703704,1,0,0,response3disk,4,206.618,1,-0.00462963,-0.002777778,1,0,0,center_square,0,0,0,2,1,0,131,5,5,2526,2526,prac_patch/patch0002526.jpg,prac_patch/patch0002526.jpg,,,,,,,,,,,,,,,,,,,,,,,,,,,,,,,,,,,,,,,,,,,,,,,,,,,,,,,,,,,,
379787,001,2022-11-20_23h47.57.959,Info_measure_main_exp,2022.2.2,Win32,144.2169022,,,,,,,,,,,,,0,0,0,1,1,masks/mask_002.jpg,,,,,,,,,,,,,,,,,,,,,,,,,,,,,,,,,,,,,,,,,,,,,,,,,,,,,,,,,,,,,,,,,,,,,,,,,,,,,,,,,,,,,,,,,,,,,
379787,001,2022-11-20_23h47.57.959,Info_measure_main_exp,2022.2.2,Win32,144.2169022,,,,,,,,,,,,,0,1,1,3,1,masks/mask_004.jpg,,,,,,,,,,,,,,,,,,,,,,,,,,,,,,,,,,,,,,,,,,,,,,,,,,,,,,,,,,,,,,,,,,,,,,,,,,,,,,,,,,,,,,,,,,,,,
379787,001,2022-11-20_23h47.57.959,Info_measure_main_exp,2022.2.2,Win32,144.2169022,,,,,,,,,,,,,0,2,2,0,1,masks/mask_001.jpg,,,,,,,,,,,,,,,,,,,,,,,,,,,,,,,,,,,,,,,,,,,,,,,,,,,,,,,,,,,,,,,,,,,,,,,,,,,,,,,,,,,,,,,,,,,,,
379787,001,2022-11-20_23h47.57.959,Info_measure_main_exp,2022.2.2,Win32,144.2169022,,,,,,,,,,,,,0,3,3,4,1,masks/mask_005.jpg,,,,,,,,,,,,,,,,,,,,,,,,,,,,,,,,,,,,,,,,,,,,,,,,,,,,,,,,,,,,,,,,,,,,,,,,,,,,,,,,,,,,,,,,,,,,,
379787,001,2022-11-20_23h47.57.959,Info_measure_main_exp,2022.2.2,Win32,144.2169022,,,,,,,,,,,,,0,4,4,2,1,masks/mask_003.jpg,,,,,,,,,,,,,,,,,,,,,,,,,,,,,,,,,,,,,,,,,,,,,,,,,,,,,,,,,,,,,,,,,,,,,,,,,,,,,,,,,,,,,,,,,,,,,
379787,001,2022-11-20_23h47.57.959,Info_measure_main_exp,2022.2.2,Win32,144.2169022,,,,,,,,,,,,,,,,,,masks/mask_001.jpg,0,0,0,0,1,,,,,,,,,,,,,,,,,,,,,,,,,,,,,,,,,,,,,,,,,,,,,,,,,,,,,,,,,,,,,,,,,,,,,,,,,,,,,,,,,,,,,,,,
379787,001,2022-11-20_23h47.57.959,Info_measure_main_exp,2022.2.2,Win32,144.2169022,,,,,,,,,,,,,,,,,,masks/mask_005.jpg,0,1,1,4,1,,,,,,,,,,,,,,,,,,,,,,,,,,,,,,,,,,,,,,,,,,,,,,,,,,,,,,,,,,,,,,,,,,,,,,,,,,,,,,,,,,,,,,,,
379787,001,2022-11-20_23h47.57.959,Info_measure_main_exp,2022.2.2,Win32,144.2169022,,,,,,,,,,,,,,,,,,masks/mask_003.jpg,0,2,2,2,1,,,,,,,,,,,,,,,,,,,,,,,,,,,,,,,,,,,,,,,,,,,,,,,,,,,,,,,,,,,,,,,,,,,,,,,,,,,,,,,,,,,,,,,,
379787,001,2022-11-20_23h47.57.959,Info_measure_main_exp,2022.2.2,Win32,144.2169022,,,,,,,,,,,,,,,,,,masks/mask_004.jpg,0,3,3,3,1,,,,,,,,,,,,,,,,,,,,,,,,,,,,,,,,,,,,,,,,,,,,,,,,,,,,,,,,,,,,,,,,,,,,,,,,,,,,,,,,,,,,,,,,
379787,001,2022-11-20_23h47.57.959,Info_measure_main_exp,2022.2.2,Win32,144.2169022,,,,,,,,,,,,,,,,,,masks/mask_002.jpg,0,4,4,1,1,,,,,,,,,,,,,,,,,,,,,,,,,,,,,,,,,,,,,,,,,,,,,,,,,,,,,,,,,,,,,,,,,,,,,,,,,,,,,,,,,,,,,,,,
379787,001,2022-11-20_23h47.57.959,Info_measure_main_exp,2022.2.2,Win32,144.2169022,,,,,,,,,,,,,,,,,,,,,,,,0.116666667,0.182407407,1,0,0,response1disk,7,219.2258,1,0.003703704,-0.002777778,1,0,0,center_square,0,1,1,0,1,0,131,5,5,2370,2406,prac_patch/patch0002370.jpg,prac_patch/patch0002406.jpg,,,,,,,,,,,,,,,,,,,,,,,,,,,,,,,,,,,,,,,,,,,,,,,,,,,,,,,,,,,,
379787,001,2022-11-20_23h47.57.959,Info_measure_main_exp,2022.2.2,Win32,144.2169022,,,,,,,,,,,,,0,0,0,3,1,masks/mask_004.jpg,,,,,,,,,,,,,,,,,,,,,,,,,,,,,,,,,,,,,,,,,,,,,,,,,,,,,,,,,,,,,,,,,,,,,,,,,,,,,,,,,,,,,,,,,,,,,
379787,001,2022-11-20_23h47.57.959,Info_measure_main_exp,2022.2.2,Win32,144.2169022,,,,,,,,,,,,,0,1,1,4,1,masks/mask_005.jpg,,,,,,,,,,,,,,,,,,,,,,,,,,,,,,,,,,,,,,,,,,,,,,,,,,,,,,,,,,,,,,,,,,,,,,,,,,,,,,,,,,,,,,,,,,,,,
379787,001,2022-11-20_23h47.57.959,Info_measure_main_exp,2022.2.2,Win32,144.2169022,,,,,,,,,,,,,0,2,2,0,1,masks/mask_001.jpg,,,,,,,,,,,,,,,,,,,,,,,,,,,,,,,,,,,,,,,,,,,,,,,,,,,,,,,,,,,,,,,,,,,,,,,,,,,,,,,,,,,,,,,,,,,,,
379787,001,2022-11-20_23h47.57.959,Info_measure_main_exp,2022.2.2,Win32,144.2169022,,,,,,,,,,,,,0,3,3,2,1,masks/mask_003.jpg,,,,,,,,,,,,,,,,,,,,,,,,,,,,,,,,,,,,,,,,,,,,,,,,,,,,,,,,,,,,,,,,,,,,,,,,,,,,,,,,,,,,,,,,,,,,,
379787,001,2022-11-20_23h47.57.959,Info_measure_main_exp,2022.2.2,Win32,144.2169022,,,,,,,,,,,,,0,4,4,1,1,masks/mask_002.jpg,,,,,,,,,,,,,,,,,,,,,,,,,,,,,,,,,,,,,,,,,,,,,,,,,,,,,,,,,,,,,,,,,,,,,,,,,,,,,,,,,,,,,,,,,,,,,
379787,001,2022-11-20_23h47.57.959,Info_measure_main_exp,2022.2.2,Win32,144.2169022,,,,,,,,,,,,,,,,,,masks/mask_001.jpg,0,0,0,0,1,,,,,,,,,,,,,,,,,,,,,,,,,,,,,,,,,,,,,,,,,,,,,,,,,,,,,,,,,,,,,,,,,,,,,,,,,,,,,,,,,,,,,,,,
379787,001,2022-11-20_23h47.57.959,Info_measure_main_exp,2022.2.2,Win32,144.2169022,,,,,,,,,,,,,,,,,,masks/mask_005.jpg,0,1,1,4,1,,,,,,,,,,,,,,,,,,,,,,,,,,,,,,,,,,,,,,,,,,,,,,,,,,,,,,,,,,,,,,,,,,,,,,,,,,,,,,,,,,,,,,,,
379787,001,2022-11-20_23h47.57.959,Info_measure_main_exp,2022.2.2,Win32,144.2169022,,,,,,,,,,,,,,,,,,masks/mask_004.jpg,0,2,2,3,1,,,,,,,,,,,,,,,,,,,,,,,,,,,,,,,,,,,,,,,,,,,,,,,,,,,,,,,,,,,,,,,,,,,,,,,,,,,,,,,,,,,,,,,,
379787,001,2022-11-20_23h47.57.959,Info_measure_main_exp,2022.2.2,Win32,144.2169022,,,,,,,,,,,,,,,,,,masks/mask_003.jpg,0,3,3,2,1,,,,,,,,,,,,,,,,,,,,,,,,,,,,,,,,,,,,,,,,,,,,,,,,,,,,,,,,,,,,,,,,,,,,,,,,,,,,,,,,,,,,,,,,
379787,001,2022-11-20_23h47.57.959,Info_measure_main_exp,2022.2.2,Win32,144.2169022,,,,,,,,,,,,,,,,,,masks/mask_002.jpg,0,4,4,1,1,,,,,,,,,,,,,,,,,,,,,,,,,,,,,,,,,,,,,,,,,,,,,,,,,,,,,,,,,,,,,,,,,,,,,,,,,,,,,,,,,,,,,,,,
379787,001,2022-11-20_23h47.57.959,Info_measure_main_exp,2022.2.2,Win32,144.2169022,,,,,,,,,,,,,,,,,,,,,,,,0.052777778,-0.112962963,1,0,0,response3disk,4,235.692,1,0.003703704,0.003703704,1,0,0,center_square,0,2,2,1,1,0,131,5,5,2514,2490,prac_patch/patch0002514.jpg,prac_patch/patch0002490.jpg,,,,,,,,,,,,,,,,,,,,,,,,,,,,,,,,,,,,,,,,,,,,,,,,,,,,,,,,,,,,
379787,001,2022-11-20_23h47.57.959,Info_measure_main_exp,2022.2.2,Win32,144.2169022,,,,,,,,,,,,,,,,,,,,,,,,,,,,,,,,,,,,,,,,,,,,,,,,,,,,,,,,,,,space,3.9334,,,,,,,,,,,,,,,,,,,,,,,,,,,,,,,,,,,,,,,,,,,,,,,,,,,
379787,001,2022-11-20_23h47.57.959,Info_measure_main_exp,2022.2.2,Win32,144.2169022,,,,,,,,,,,,,,,,,,masks/mask_002.jpg,,,,,,,,,,,,,,,,,,,,,,,,,,,,,,,,,,,,,,,,,,,0,0,0,1,1,,,,,,,,,,,,,,,,,,,,,,,,,,,,,,,,,,,,,,,,,,,,,,
379787,001,2022-11-20_23h47.57.959,Info_measure_main_exp,2022.2.2,Win32,144.2169022,,,,,,,,,,,,,,,,,,masks/mask_003.jpg,,,,,,,,,,,,,,,,,,,,,,,,,,,,,,,,,,,,,,,,,,,0,1,1,2,1,,,,,,,,,,,,,,,,,,,,,,,,,,,,,,,,,,,,,,,,,,,,,,
379787,001,2022-11-20_23h47.57.959,Info_measure_main_exp,2022.2.2,Win32,144.2169022,,,,,,,,,,,,,,,,,,masks/mask_005.jpg,,,,,,,,,,,,,,,,,,,,,,,,,,,,,,,,,,,,,,,,,,,0,2,2,4,1,,,,,,,,,,,,,,,,,,,,,,,,,,,,,,,,,,,,,,,,,,,,,,
379787,001,2022-11-20_23h47.57.959,Info_measure_main_exp,2022.2.2,Win32,144.2169022,,,,,,,,,,,,,,,,,,masks/mask_004.jpg,,,,,,,,,,,,,,,,,,,,,,,,,,,,,,,,,,,,,,,,,,,0,3,3,3,1,,,,,,,,,,,,,,,,,,,,,,,,,,,,,,,,,,,,,,,,,,,,,,
379787,001,2022-11-20_23h47.57.959,Info_measure_main_exp,2022.2.2,Win32,144.2169022,,,,,,,,,,,,,,,,,,masks/mask_001.jpg,,,,,,,,,,,,,,,,,,,,,,,,,,,,,,,,,,,,,,,,,,,0,4,4,0,1,,,,,,,,,,,,,,,,,,,,,,,,,,,,,,,,,,,,,,,,,,,,,,
379787,001,2022-11-20_23h47.57.959,Info_measure_main_exp,2022.2.2,Win32,144.2169022,,,,,,,,,,,,,,,,,,masks/mask_002.jpg,,,,,,,,,,,,,,,,,,,,,,,,,,,,,,,,,,,,,,,,,,,,,,,,0,0,0,1,1,,,,,,,,,,,,,,,,,,,,,,,,,,,,,,,,,,,,,,,,,
379787,001,2022-11-20_23h47.57.959,Info_measure_main_exp,2022.2.2,Win32,144.2169022,,,,,,,,,,,,,,,,,,masks/mask_004.jpg,,,,,,,,,,,,,,,,,,,,,,,,,,,,,,,,,,,,,,,,,,,,,,,,0,1,1,3,1,,,,,,,,,,,,,,,,,,,,,,,,,,,,,,,,,,,,,,,,,
379787,001,2022-11-20_23h47.57.959,Info_measure_main_exp,2022.2.2,Win32,144.2169022,,,,,,,,,,,,,,,,,,masks/mask_003.jpg,,,,,,,,,,,,,,,,,,,,,,,,,,,,,,,,,,,,,,,,,,,,,,,,0,2,2,2,1,,,,,,,,,,,,,,,,,,,,,,,,,,,,,,,,,,,,,,,,,
379787,001,2022-11-20_23h47.57.959,Info_measure_main_exp,2022.2.2,Win32,144.2169022,,,,,,,,,,,,,,,,,,masks/mask_005.jpg,,,,,,,,,,,,,,,,,,,,,,,,,,,,,,,,,,,,,,,,,,,,,,,,0,3,3,4,1,,,,,,,,,,,,,,,,,,,,,,,,,,,,,,,,,,,,,,,,,
379787,001,2022-11-20_23h47.57.959,Info_measure_main_exp,2022.2.2,Win32,144.2169022,,,,,,,,,,,,,,,,,,masks/mask_001.jpg,,,,,,,,,,,,,,,,,,,,,,,,,,,,,,,,,,,,,,,,,,,,,,,,0,4,4,0,1,,,,,,,,,,,,,,,,,,,,,,,,,,,,,,,,,,,,,,,,,
379787,001,2022-11-20_23h47.57.959,Info_measure_main_exp,2022.2.2,Win32,144.2169022,,,,,,,,,,,,,,,,,,,,,,,,,,,,,,0,2.8685,1,,,,,,,,,,,,0,131,5,5,2190,2190,absent_patch/patch0002190.jpg,absent_patch/patch0002190.jpg,,,,,,,,,,,,,,,,,,,,-0.02962963,0.107407407,1,0,0,response7disk,1,0,0.001851852,1,0,0,center_square,0,0,0,86,1,,,,,,,,,,,,,,,,,,,,,,,
379787,001,2022-11-20_23h47.57.959,Info_measure_main_exp,2022.2.2,Win32,144.2169022,,,,,,,,,,,,,,,,,,masks/mask_004.jpg,,,,,,,,,,,,,,,,,,,,,,,,,,,,,,,,,,,,,,,,,,,0,0,0,3,1,,,,,,,,,,,,,,,,,,,,,,,,,,,,,,,,,,,,,,,,,,,,,,
379787,001,2022-11-20_23h47.57.959,Info_measure_main_exp,2022.2.2,Win32,144.2169022,,,,,,,,,,,,,,,,,,masks/mask_005.jpg,,,,,,,,,,,,,,,,,,,,,,,,,,,,,,,,,,,,,,,,,,,0,1,1,4,1,,,,,,,,,,,,,,,,,,,,,,,,,,,,,,,,,,,,,,,,,,,,,,
379787,001,2022-11-20_23h47.57.959,Info_measure_main_exp,2022.2.2,Win32,144.2169022,,,,,,,,,,,,,,,,,,masks/mask_002.jpg,,,,,,,,,,,,,,,,,,,,,,,,,,,,,,,,,,,,,,,,,,,0,2,2,1,1,,,,,,,,,,,,,,,,,,,,,,,,,,,,,,,,,,,,,,,,,,,,,,
379787,001,2022-11-20_23h47.57.959,Info_measure_main_exp,2022.2.2,Win32,144.2169022,,,,,,,,,,,,,,,,,,masks/mask_001.jpg,,,,,,,,,,,,,,,,,,,,,,,,,,,,,,,,,,,,,,,,,,,0,3,3,0,1,,,,,,,,,,,,,,,,,,,,,,,,,,,,,,,,,,,,,,,,,,,,,,
379787,001,2022-11-20_23h47.57.959,Info_measure_main_exp,2022.2.2,Win32,144.2169022,,,,,,,,,,,,,,,,,,masks/mask_003.jpg,,,,,,,,,,,,,,,,,,,,,,,,,,,,,,,,,,,,,,,,,,,0,4,4,2,1,,,,,,,,,,,,,,,,,,,,,,,,,,,,,,,,,,,,,,,,,,,,,,
379787,001,2022-11-20_23h47.57.959,Info_measure_main_exp,2022.2.2,Win32,144.2169022,,,,,,,,,,,,,,,,,,masks/mask_003.jpg,,,,,,,,,,,,,,,,,,,,,,,,,,,,,,,,,,,,,,,,,,,,,,,,0,0,0,2,1,,,,,,,,,,,,,,,,,,,,,,,,,,,,,,,,,,,,,,,,,
379787,001,2022-11-20_23h47.57.959,Info_measure_main_exp,2022.2.2,Win32,144.2169022,,,,,,,,,,,,,,,,,,masks/mask_001.jpg,,,,,,,,,,,,,,,,,,,,,,,,,,,,,,,,,,,,,,,,,,,,,,,,0,1,1,0,1,,,,,,,,,,,,,,,,,,,,,,,,,,,,,,,,,,,,,,,,,
379787,001,2022-11-20_23h47.57.959,Info_measure_main_exp,2022.2.2,Win32,144.2169022,,,,,,,,,,,,,,,,,,masks/mask_005.jpg,,,,,,,,,,,,,,,,,,,,,,,,,,,,,,,,,,,,,,,,,,,,,,,,0,2,2,4,1,,,,,,,,,,,,,,,,,,,,,,,,,,,,,,,,,,,,,,,,,
379787,001,2022-11-20_23h47.57.959,Info_measure_main_exp,2022.2.2,Win32,144.2169022,,,,,,,,,,,,,,,,,,masks/mask_002.jpg,,,,,,,,,,,,,,,,,,,,,,,,,,,,,,,,,,,,,,,,,,,,,,,,0,3,3,1,1,,,,,,,,,,,,,,,,,,,,,,,,,,,,,,,,,,,,,,,,,
379787,001,2022-11-20_23h47.57.959,Info_measure_main_exp,2022.2.2,Win32,144.2169022,,,,,,,,,,,,,,,,,,masks/mask_004.jpg,,,,,,,,,,,,,,,,,,,,,,,,,,,,,,,,,,,,,,,,,,,,,,,,0,4,4,3,1,,,,,,,,,,,,,,,,,,,,,,,,,,,,,,,,,,,,,,,,,
379787,001,2022-11-20_23h47.57.959,Info_measure_main_exp,2022.2.2,Win32,144.2169022,,,,,,,,,,,,,,,,,,,,,,,,,,,,,,7,1.1735,1,,,,,,,,,,,,0,131,5,5,2142,2082,absent_patch/patch0002142.jpg,absent_patch/patch0002082.jpg,,,,,,,,,,,,,,,,,,,,0.065740741,0.168518519,1,0,0,response1disk,2,0.005555556,0.005555556,1,0,0,center_square,0,1,1,88,1,,,,,,,,,,,,,,,,,,,,,,,
379787,001,2022-11-20_23h47.57.959,Info_measure_main_exp,2022.2.2,Win32,144.2169022,,,,,,,,,,,,,,,,,,masks/mask_005.jpg,,,,,,,,,,,,,,,,,,,,,,,,,,,,,,,,,,,,,,,,,,,0,0,0,4,1,,,,,,,,,,,,,,,,,,,,,,,,,,,,,,,,,,,,,,,,,,,,,,
379787,001,2022-11-20_23h47.57.959,Info_measure_main_exp,2022.2.2,Win32,144.2169022,,,,,,,,,,,,,,,,,,masks/mask_003.jpg,,,,,,,,,,,,,,,,,,,,,,,,,,,,,,,,,,,,,,,,,,,0,1,1,2,1,,,,,,,,,,,,,,,,,,,,,,,,,,,,,,,,,,,,,,,,,,,,,,
379787,001,2022-11-20_23h47.57.959,Info_measure_main_exp,2022.2.2,Win32,144.2169022,,,,,,,,,,,,,,,,,,masks/mask_004.jpg,,,,,,,,,,,,,,,,,,,,,,,,,,,,,,,,,,,,,,,,,,,0,2,2,3,1,,,,,,,,,,,,,,,,,,,,,,,,,,,,,,,,,,,,,,,,,,,,,,
379787,001,2022-11-20_23h47.57.959,Info_measure_main_exp,2022.2.2,Win32,144.2169022,,,,,,,,,,,,,,,,,,masks/mask_001.jpg,,,,,,,,,,,,,,,,,,,,,,,,,,,,,,,,,,,,,,,,,,,0,3,3,0,1,,,,,,,,,,,,,,,,,,,,,,,,,,,,,,,,,,,,,,,,,,,,,,
379787,001,2022-11-20_23h47.57.959,Info_measure_main_exp,2022.2.2,Win32,144.2169022,,,,,,,,,,,,,,,,,,masks/mask_002.jpg,,,,,,,,,,,,,,,,,,,,,,,,,,,,,,,,,,,,,,,,,,,0,4,4,1,1,,,,,,,,,,,,,,,,,,,,,,,,,,,,,,,,,,,,,,,,,,,,,,
379787,001,2022-11-20_23h47.57.959,Info_measure_main_exp,2022.2.2,Win32,144.2169022,,,,,,,,,,,,,,,,,,masks/mask_003.jpg,,,,,,,,,,,,,,,,,,,,,,,,,,,,,,,,,,,,,,,,,,,,,,,,0,0,0,2,1,,,,,,,,,,,,,,,,,,,,,,,,,,,,,,,,,,,,,,,,,
379787,001,2022-11-20_23h47.57.959,Info_measure_main_exp,2022.2.2,Win32,144.2169022,,,,,,,,,,,,,,,,,,masks/mask_002.jpg,,,,,,,,,,,,,,,,,,,,,,,,,,,,,,,,,,,,,,,,,,,,,,,,0,1,1,1,1,,,,,,,,,,,,,,,,,,,,,,,,,,,,,,,,,,,,,,,,,
379787,001,2022-11-20_23h47.57.959,Info_measure_main_exp,2022.2.2,Win32,144.2169022,,,,,,,,,,,,,,,,,,masks/mask_001.jpg,,,,,,,,,,,,,,,,,,,,,,,,,,,,,,,,,,,,,,,,,,,,,,,,0,2,2,0,1,,,,,,,,,,,,,,,,,,,,,,,,,,,,,,,,,,,,,,,,,
379787,001,2022-11-20_23h47.57.959,Info_measure_main_exp,2022.2.2,Win32,144.2169022,,,,,,,,,,,,,,,,,,masks/mask_005.jpg,,,,,,,,,,,,,,,,,,,,,,,,,,,,,,,,,,,,,,,,,,,,,,,,0,3,3,4,1,,,,,,,,,,,,,,,,,,,,,,,,,,,,,,,,,,,,,,,,,
379787,001,2022-11-20_23h47.57.959,Info_measure_main_exp,2022.2.2,Win32,144.2169022,,,,,,,,,,,,,,,,,,masks/mask_004.jpg,,,,,,,,,,,,,,,,,,,,,,,,,,,,,,,,,,,,,,,,,,,,,,,,0,4,4,3,1,,,,,,,,,,,,,,,,,,,,,,,,,,,,,,,,,,,,,,,,,
379787,001,2022-11-20_23h47.57.959,Info_measure_main_exp,2022.2.2,Win32,144.2169022,,,,,,,,,,,,,,,,,,,,,,,,,,,,,,0,0.6944,1,,,,,,,,,,,,0,131,5,5,1950,1950,absent_patch/patch0001950.jpg,absent_patch/patch0001950.jpg,,,,,,,,,,,,,,,,,,,,-0.031481481,0.163888889,1,0,0,response7disk,3,0.002777778,0.002777778,1,0,0,center_square,0,2,2,92,1,,,,,,,,,,,,,,,,,,,,,,,
379787,001,2022-11-20_23h47.57.959,Info_measure_main_exp,2022.2.2,Win32,144.2169022,,,,,,,,,,,,,,,,,,masks/mask_005.jpg,,,,,,,,,,,,,,,,,,,,,,,,,,,,,,,,,,,,,,,,,,,0,0,0,4,1,,,,,,,,,,,,,,,,,,,,,,,,,,,,,,,,,,,,,,,,,,,,,,
379787,001,2022-11-20_23h47.57.959,Info_measure_main_exp,2022.2.2,Win32,144.2169022,,,,,,,,,,,,,,,,,,masks/mask_004.jpg,,,,,,,,,,,,,,,,,,,,,,,,,,,,,,,,,,,,,,,,,,,0,1,1,3,1,,,,,,,,,,,,,,,,,,,,,,,,,,,,,,,,,,,,,,,,,,,,,,
379787,001,2022-11-20_23h47.57.959,Info_measure_main_exp,2022.2.2,Win32,144.2169022,,,,,,,,,,,,,,,,,,masks/mask_002.jpg,,,,,,,,,,,,,,,,,,,,,,,,,,,,,,,,,,,,,,,,,,,0,2,2,1,1,,,,,,,,,,,,,,,,,,,,,,,,,,,,,,,,,,,,,,,,,,,,,,
379787,001,2022-11-20_23h47.57.959,Info_measure_main_exp,2022.2.2,Win32,144.2169022,,,,,,,,,,,,,,,,,,masks/mask_003.jpg,,,,,,,,,,,,,,,,,,,,,,,,,,,,,,,,,,,,,,,,,,,0,3,3,2,1,,,,,,,,,,,,,,,,,,,,,,,,,,,,,,,,,,,,,,,,,,,,,,
379787,001,2022-11-20_23h47.57.959,Info_measure_main_exp,2022.2.2,Win32,144.2169022,,,,,,,,,,,,,,,,,,masks/mask_001.jpg,,,,,,,,,,,,,,,,,,,,,,,,,,,,,,,,,,,,,,,,,,,0,4,4,0,1,,,,,,,,,,,,,,,,,,,,,,,,,,,,,,,,,,,,,,,,,,,,,,
379787,001,2022-11-20_23h47.57.959,Info_measure_main_exp,2022.2.2,Win32,144.2169022,,,,,,,,,,,,,,,,,,masks/mask_003.jpg,,,,,,,,,,,,,,,,,,,,,,,,,,,,,,,,,,,,,,,,,,,,,,,,0,0,0,2,1,,,,,,,,,,,,,,,,,,,,,,,,,,,,,,,,,,,,,,,,,
379787,001,2022-11-20_23h47.57.959,Info_measure_main_exp,2022.2.2,Win32,144.2169022,,,,,,,,,,,,,,,,,,masks/mask_001.jpg,,,,,,,,,,,,,,,,,,,,,,,,,,,,,,,,,,,,,,,,,,,,,,,,0,1,1,0,1,,,,,,,,,,,,,,,,,,,,,,,,,,,,,,,,,,,,,,,,,
379787,001,2022-11-20_23h47.57.959,Info_measure_main_exp,2022.2.2,Win32,144.2169022,,,,,,,,,,,,,,,,,,masks/mask_004.jpg,,,,,,,,,,,,,,,,,,,,,,,,,,,,,,,,,,,,,,,,,,,,,,,,0,2,2,3,1,,,,,,,,,,,,,,,,,,,,,,,,,,,,,,,,,,,,,,,,,
379787,001,2022-11-20_23h47.57.959,Info_measure_main_exp,2022.2.2,Win32,144.2169022,,,,,,,,,,,,,,,,,,masks/mask_002.jpg,,,,,,,,,,,,,,,,,,,,,,,,,,,,,,,,,,,,,,,,,,,,,,,,0,3,3,1,1,,,,,,,,,,,,,,,,,,,,,,,,,,,,,,,,,,,,,,,,,
379787,001,2022-11-20_23h47.57.959,Info_measure_main_exp,2022.2.2,Win32,144.2169022,,,,,,,,,,,,,,,,,,masks/mask_005.jpg,,,,,,,,,,,,,,,,,,,,,,,,,,,,,,,,,,,,,,,,,,,,,,,,0,4,4,4,1,,,,,,,,,,,,,,,,,,,,,,,,,,,,,,,,,,,,,,,,,
379787,001,2022-11-20_23h47.57.959,Info_measure_main_exp,2022.2.2,Win32,144.2169022,,,,,,,,,,,,,,,,,,,,,,,,,,,,,,7,0.5555,1,,,,,,,,,,,,0,131,5,5,1950,2178,absent_patch/patch0001950.jpg,absent_patch/patch0002178.jpg,,,,,,,,,,,,,,,,,,,,0.059259259,0.156481481,1,0,0,response1disk,4,0.009259259,0.00462963,1,0,0,center_square,0,3,3,61,1,,,,,,,,,,,,,,,,,,,,,,,
379787,001,2022-11-20_23h47.57.959,Info_measure_main_exp,2022.2.2,Win32,144.2169022,,,,,,,,,,,,,,,,,,masks/mask_004.jpg,,,,,,,,,,,,,,,,,,,,,,,,,,,,,,,,,,,,,,,,,,,0,0,0,3,1,,,,,,,,,,,,,,,,,,,,,,,,,,,,,,,,,,,,,,,,,,,,,,
379787,001,2022-11-20_23h47.57.959,Info_measure_main_exp,2022.2.2,Win32,144.2169022,,,,,,,,,,,,,,,,,,masks/mask_005.jpg,,,,,,,,,,,,,,,,,,,,,,,,,,,,,,,,,,,,,,,,,,,0,1,1,4,1,,,,,,,,,,,,,,,,,,,,,,,,,,,,,,,,,,,,,,,,,,,,,,
379787,001,2022-11-20_23h47.57.959,Info_measure_main_exp,2022.2.2,Win32,144.2169022,,,,,,,,,,,,,,,,,,masks/mask_001.jpg,,,,,,,,,,,,,,,,,,,,,,,,,,,,,,,,,,,,,,,,,,,0,2,2,0,1,,,,,,,,,,,,,,,,,,,,,,,,,,,,,,,,,,,,,,,,,,,,,,
379787,001,2022-11-20_23h47.57.959,Info_measure_main_exp,2022.2.2,Win32,144.2169022,,,,,,,,,,,,,,,,,,masks/mask_002.jpg,,,,,,,,,,,,,,,,,,,,,,,,,,,,,,,,,,,,,,,,,,,0,3,3,1,1,,,,,,,,,,,,,,,,,,,,,,,,,,,,,,,,,,,,,,,,,,,,,,
379787,001,2022-11-20_23h47.57.959,Info_measure_main_exp,2022.2.2,Win32,144.2169022,,,,,,,,,,,,,,,,,,masks/mask_003.jpg,,,,,,,,,,,,,,,,,,,,,,,,,,,,,,,,,,,,,,,,,,,0,4,4,2,1,,,,,,,,,,,,,,,,,,,,,,,,,,,,,,,,,,,,,,,,,,,,,,
379787,001,2022-11-20_23h47.57.959,Info_measure_main_exp,2022.2.2,Win32,144.2169022,,,,,,,,,,,,,,,,,,masks/mask_005.jpg,,,,,,,,,,,,,,,,,,,,,,,,,,,,,,,,,,,,,,,,,,,,,,,,0,0,0,4,1,,,,,,,,,,,,,,,,,,,,,,,,,,,,,,,,,,,,,,,,,
379787,001,2022-11-20_23h47.57.959,Info_measure_main_exp,2022.2.2,Win32,144.2169022,,,,,,,,,,,,,,,,,,masks/mask_003.jpg,,,,,,,,,,,,,,,,,,,,,,,,,,,,,,,,,,,,,,,,,,,,,,,,0,1,1,2,1,,,,,,,,,,,,,,,,,,,,,,,,,,,,,,,,,,,,,,,,,
379787,001,2022-11-20_23h47.57.959,Info_measure_main_exp,2022.2.2,Win32,144.2169022,,,,,,,,,,,,,,,,,,masks/mask_004.jpg,,,,,,,,,,,,,,,,,,,,,,,,,,,,,,,,,,,,,,,,,,,,,,,,0,2,2,3,1,,,,,,,,,,,,,,,,,,,,,,,,,,,,,,,,,,,,,,,,,
379787,001,2022-11-20_23h47.57.959,Info_measure_main_exp,2022.2.2,Win32,144.2169022,,,,,,,,,,,,,,,,,,masks/mask_001.jpg,,,,,,,,,,,,,,,,,,,,,,,,,,,,,,,,,,,,,,,,,,,,,,,,0,3,3,0,1,,,,,,,,,,,,,,,,,,,,,,,,,,,,,,,,,,,,,,,,,
379787,001,2022-11-20_23h47.57.959,Info_measure_main_exp,2022.2.2,Win32,144.2169022,,,,,,,,,,,,,,,,,,masks/mask_002.jpg,,,,,,,,,,,,,,,,,,,,,,,,,,,,,,,,,,,,,,,,,,,,,,,,0,4,4,1,1,,,,,,,,,,,,,,,,,,,,,,,,,,,,,,,,,,,,,,,,,
379787,001,2022-11-20_23h47.57.959,Info_measure_main_exp,2022.2.2,Win32,144.2169022,,,,,,,,,,,,,,,,,,,,,,,,,,,,,,7,1.1527,1,,,,,,,,,,,,0,131,5,5,2178,2154,absent_patch/patch0002178.jpg,absent_patch/patch0002154.jpg,,,,,,,,,,,,,,,,,,,,0.07037037,0.167592593,1,0,0,response1disk,5,0.002777778,0.008333333,1,0,0,center_square,0,4,4,63,1,,,,,,,,,,,,,,,,,,,,,,,
379787,001,2022-11-20_23h47.57.959,Info_measure_main_exp,2022.2.2,Win32,144.2169022,,,,,,,,,,,,,,,,,,masks/mask_004.jpg,,,,,,,,,,,,,,,,,,,,,,,,,,,,,,,,,,,,,,,,,,,0,0,0,3,1,,,,,,,,,,,,,,,,,,,,,,,,,,,,,,,,,,,,,,,,,,,,,,
379787,001,2022-11-20_23h47.57.959,Info_measure_main_exp,2022.2.2,Win32,144.2169022,,,,,,,,,,,,,,,,,,masks/mask_005.jpg,,,,,,,,,,,,,,,,,,,,,,,,,,,,,,,,,,,,,,,,,,,0,1,1,4,1,,,,,,,,,,,,,,,,,,,,,,,,,,,,,,,,,,,,,,,,,,,,,,
379787,001,2022-11-20_23h47.57.959,Info_measure_main_exp,2022.2.2,Win32,144.2169022,,,,,,,,,,,,,,,,,,masks/mask_002.jpg,,,,,,,,,,,,,,,,,,,,,,,,,,,,,,,,,,,,,,,,,,,0,2,2,1,1,,,,,,,,,,,,,,,,,,,,,,,,,,,,,,,,,,,,,,,,,,,,,,
379787,001,2022-11-20_23h47.57.959,Info_measure_main_exp,2022.2.2,Win32,144.2169022,,,,,,,,,,,,,,,,,,masks/mask_001.jpg,,,,,,,,,,,,,,,,,,,,,,,,,,,,,,,,,,,,,,,,,,,0,3,3,0,1,,,,,,,,,,,,,,,,,,,,,,,,,,,,,,,,,,,,,,,,,,,,,,
379787,001,2022-11-20_23h47.57.959,Info_measure_main_exp,2022.2.2,Win32,144.2169022,,,,,,,,,,,,,,,,,,masks/mask_003.jpg,,,,,,,,,,,,,,,,,,,,,,,,,,,,,,,,,,,,,,,,,,,0,4,4,2,1,,,,,,,,,,,,,,,,,,,,,,,,,,,,,,,,,,,,,,,,,,,,,,
379787,001,2022-11-20_23h47.57.959,Info_measure_main_exp,2022.2.2,Win32,144.2169022,,,,,,,,,,,,,,,,,,masks/mask_001.jpg,,,,,,,,,,,,,,,,,,,,,,,,,,,,,,,,,,,,,,,,,,,,,,,,0,0,0,0,1,,,,,,,,,,,,,,,,,,,,,,,,,,,,,,,,,,,,,,,,,
379787,001,2022-11-20_23h47.57.959,Info_measure_main_exp,2022.2.2,Win32,144.2169022,,,,,,,,,,,,,,,,,,masks/mask_005.jpg,,,,,,,,,,,,,,,,,,,,,,,,,,,,,,,,,,,,,,,,,,,,,,,,0,1,1,4,1,,,,,,,,,,,,,,,,,,,,,,,,,,,,,,,,,,,,,,,,,
379787,001,2022-11-20_23h47.57.959,Info_measure_main_exp,2022.2.2,Win32,144.2169022,,,,,,,,,,,,,,,,,,masks/mask_004.jpg,,,,,,,,,,,,,,,,,,,,,,,,,,,,,,,,,,,,,,,,,,,,,,,,0,2,2,3,1,,,,,,,,,,,,,,,,,,,,,,,,,,,,,,,,,,,,,,,,,
379787,001,2022-11-20_23h47.57.959,Info_measure_main_exp,2022.2.2,Win32,144.2169022,,,,,,,,,,,,,,,,,,masks/mask_003.jpg,,,,,,,,,,,,,,,,,,,,,,,,,,,,,,,,,,,,,,,,,,,,,,,,0,3,3,2,1,,,,,,,,,,,,,,,,,,,,,,,,,,,,,,,,,,,,,,,,,
379787,001,2022-11-20_23h47.57.959,Info_measure_main_exp,2022.2.2,Win32,144.2169022,,,,,,,,,,,,,,,,,,masks/mask_002.jpg,,,,,,,,,,,,,,,,,,,,,,,,,,,,,,,,,,,,,,,,,,,,,,,,0,4,4,1,1,,,,,,,,,,,,,,,,,,,,,,,,,,,,,,,,,,,,,,,,,
379787,001,2022-11-20_23h47.57.959,Info_measure_main_exp,2022.2.2,Win32,144.2169022,,,,,,,,,,,,,,,,,,,,,,,,,,,,,,7,1.7082,1,,,,,,,,,,,,0,131,5,5,2274,2166,absent_patch/patch0002274.jpg,absent_patch/patch0002166.jpg,,,,,,,,,,,,,,,,,,,,0.043518519,0.151851852,1,0,0,response1disk,6,-0.005555556,-0.003703704,1,0,0,center_square,0,5,5,78,1,,,,,,,,,,,,,,,,,,,,,,,
379787,001,2022-11-20_23h47.57.959,Info_measure_main_exp,2022.2.2,Win32,144.2169022,,,,,,,,,,,,,,,,,,masks/mask_005.jpg,,,,,,,,,,,,,,,,,,,,,,,,,,,,,,,,,,,,,,,,,,,0,0,0,4,1,,,,,,,,,,,,,,,,,,,,,,,,,,,,,,,,,,,,,,,,,,,,,,
379787,001,2022-11-20_23h47.57.959,Info_measure_main_exp,2022.2.2,Win32,144.2169022,,,,,,,,,,,,,,,,,,masks/mask_004.jpg,,,,,,,,,,,,,,,,,,,,,,,,,,,,,,,,,,,,,,,,,,,0,1,1,3,1,,,,,,,,,,,,,,,,,,,,,,,,,,,,,,,,,,,,,,,,,,,,,,
379787,001,2022-11-20_23h47.57.959,Info_measure_main_exp,2022.2.2,Win32,144.2169022,,,,,,,,,,,,,,,,,,masks/mask_002.jpg,,,,,,,,,,,,,,,,,,,,,,,,,,,,,,,,,,,,,,,,,,,0,2,2,1,1,,,,,,,,,,,,,,,,,,,,,,,,,,,,,,,,,,,,,,,,,,,,,,
379787,001,2022-11-20_23h47.57.959,Info_measure_main_exp,2022.2.2,Win32,144.2169022,,,,,,,,,,,,,,,,,,masks/mask_003.jpg,,,,,,,,,,,,,,,,,,,,,,,,,,,,,,,,,,,,,,,,,,,0,3,3,2,1,,,,,,,,,,,,,,,,,,,,,,,,,,,,,,,,,,,,,,,,,,,,,,
379787,001,2022-11-20_23h47.57.959,Info_measure_main_exp,2022.2.2,Win32,144.2169022,,,,,,,,,,,,,,,,,,masks/mask_001.jpg,,,,,,,,,,,,,,,,,,,,,,,,,,,,,,,,,,,,,,,,,,,0,4,4,0,1,,,,,,,,,,,,,,,,,,,,,,,,,,,,,,,,,,,,,,,,,,,,,,
379787,001,2022-11-20_23h47.57.959,Info_measure_main_exp,2022.2.2,Win32,144.2169022,,,,,,,,,,,,,,,,,,masks/mask_001.jpg,,,,,,,,,,,,,,,,,,,,,,,,,,,,,,,,,,,,,,,,,,,,,,,,0,0,0,0,1,,,,,,,,,,,,,,,,,,,,,,,,,,,,,,,,,,,,,,,,,
379787,001,2022-11-20_23h47.57.959,Info_measure_main_exp,2022.2.2,Win32,144.2169022,,,,,,,,,,,,,,,,,,masks/mask_003.jpg,,,,,,,,,,,,,,,,,,,,,,,,,,,,,,,,,,,,,,,,,,,,,,,,0,1,1,2,1,,,,,,,,,,,,,,,,,,,,,,,,,,,,,,,,,,,,,,,,,
379787,001,2022-11-20_23h47.57.959,Info_measure_main_exp,2022.2.2,Win32,144.2169022,,,,,,,,,,,,,,,,,,masks/mask_004.jpg,,,,,,,,,,,,,,,,,,,,,,,,,,,,,,,,,,,,,,,,,,,,,,,,0,2,2,3,1,,,,,,,,,,,,,,,,,,,,,,,,,,,,,,,,,,,,,,,,,
379787,001,2022-11-20_23h47.57.959,Info_measure_main_exp,2022.2.2,Win32,144.2169022,,,,,,,,,,,,,,,,,,masks/mask_002.jpg,,,,,,,,,,,,,,,,,,,,,,,,,,,,,,,,,,,,,,,,,,,,,,,,0,3,3,1,1,,,,,,,,,,,,,,,,,,,,,,,,,,,,,,,,,,,,,,,,,
379787,001,2022-11-20_23h47.57.959,Info_measure_main_exp,2022.2.2,Win32,144.2169022,,,,,,,,,,,,,,,,,,masks/mask_005.jpg,,,,,,,,,,,,,,,,,,,,,,,,,,,,,,,,,,,,,,,,,,,,,,,,0,4,4,4,1,,,,,,,,,,,,,,,,,,,,,,,,,,,,,,,,,,,,,,,,,
379787,001,2022-11-20_23h47.57.959,Info_measure_main_exp,2022.2.2,Win32,144.2169022,,,,,,,,,,,,,,,,,,,,,,,,,,,,,,7,0.5139,1,,,,,,,,,,,,0,131,5,5,1950,2214,absent_patch/patch0001950.jpg,absent_patch/patch0002214.jpg,,,,,,,,,,,,,,,,,,,,0.033333333,0.134259259,1,0,0,response1disk,7,0.001851852,-0.007407407,1,0,0,center_square,0,6,6,85,1,,,,,,,,,,,,,,,,,,,,,,,
379787,001,2022-11-20_23h47.57.959,Info_measure_main_exp,2022.2.2,Win32,144.2169022,,,,,,,,,,,,,,,,,,masks/mask_005.jpg,,,,,,,,,,,,,,,,,,,,,,,,,,,,,,,,,,,,,,,,,,,0,0,0,4,1,,,,,,,,,,,,,,,,,,,,,,,,,,,,,,,,,,,,,,,,,,,,,,
379787,001,2022-11-20_23h47.57.959,Info_measure_main_exp,2022.2.2,Win32,144.2169022,,,,,,,,,,,,,,,,,,masks/mask_001.jpg,,,,,,,,,,,,,,,,,,,,,,,,,,,,,,,,,,,,,,,,,,,0,1,1,0,1,,,,,,,,,,,,,,,,,,,,,,,,,,,,,,,,,,,,,,,,,,,,,,
379787,001,2022-11-20_23h47.57.959,Info_measure_main_exp,2022.2.2,Win32,144.2169022,,,,,,,,,,,,,,,,,,masks/mask_003.jpg,,,,,,,,,,,,,,,,,,,,,,,,,,,,,,,,,,,,,,,,,,,0,2,2,2,1,,,,,,,,,,,,,,,,,,,,,,,,,,,,,,,,,,,,,,,,,,,,,,
379787,001,2022-11-20_23h47.57.959,Info_measure_main_exp,2022.2.2,Win32,144.2169022,,,,,,,,,,,,,,,,,,masks/mask_002.jpg,,,,,,,,,,,,,,,,,,,,,,,,,,,,,,,,,,,,,,,,,,,0,3,3,1,1,,,,,,,,,,,,,,,,,,,,,,,,,,,,,,,,,,,,,,,,,,,,,,
379787,001,2022-11-20_23h47.57.959,Info_measure_main_exp,2022.2.2,Win32,144.2169022,,,,,,,,,,,,,,,,,,masks/mask_004.jpg,,,,,,,,,,,,,,,,,,,,,,,,,,,,,,,,,,,,,,,,,,,0,4,4,3,1,,,,,,,,,,,,,,,,,,,,,,,,,,,,,,,,,,,,,,,,,,,,,,
379787,001,2022-11-20_23h47.57.959,Info_measure_main_exp,2022.2.2,Win32,144.2169022,,,,,,,,,,,,,,,,,,masks/mask_003.jpg,,,,,,,,,,,,,,,,,,,,,,,,,,,,,,,,,,,,,,,,,,,,,,,,0,0,0,2,1,,,,,,,,,,,,,,,,,,,,,,,,,,,,,,,,,,,,,,,,,
379787,001,2022-11-20_23h47.57.959,Info_measure_main_exp,2022.2.2,Win32,144.2169022,,,,,,,,,,,,,,,,,,masks/mask_005.jpg,,,,,,,,,,,,,,,,,,,,,,,,,,,,,,,,,,,,,,,,,,,,,,,,0,1,1,4,1,,,,,,,,,,,,,,,,,,,,,,,,,,,,,,,,,,,,,,,,,
379787,001,2022-11-20_23h47.57.959,Info_measure_main_exp,2022.2.2,Win32,144.2169022,,,,,,,,,,,,,,,,,,masks/mask_001.jpg,,,,,,,,,,,,,,,,,,,,,,,,,,,,,,,,,,,,,,,,,,,,,,,,0,2,2,0,1,,,,,,,,,,,,,,,,,,,,,,,,,,,,,,,,,,,,,,,,,
379787,001,2022-11-20_23h47.57.959,Info_measure_main_exp,2022.2.2,Win32,144.2169022,,,,,,,,,,,,,,,,,,masks/mask_004.jpg,,,,,,,,,,,,,,,,,,,,,,,,,,,,,,,,,,,,,,,,,,,,,,,,0,3,3,3,1,,,,,,,,,,,,,,,,,,,,,,,,,,,,,,,,,,,,,,,,,
379787,001,2022-11-20_23h47.57.959,Info_measure_main_exp,2022.2.2,Win32,144.2169022,,,,,,,,,,,,,,,,,,masks/mask_002.jpg,,,,,,,,,,,,,,,,,,,,,,,,,,,,,,,,,,,,,,,,,,,,,,,,0,4,4,1,1,,,,,,,,,,,,,,,,,,,,,,,,,,,,,,,,,,,,,,,,,
379787,001,2022-11-20_23h47.57.959,Info_measure_main_exp,2022.2.2,Win32,144.2169022,,,,,,,,,,,,,,,,,,,,,,,,,,,,,,7,2.0349,1,,,,,,,,,,,,1,131,5,5,1950,1,absent_patch/patch0001950.jpg,present_patch/cong_131_5_a.jpg,,,,,,,,,,,,,,,,,,,,0.035185185,0.125,1,0,0,response1disk,8,0.005555556,0.002777778,1,0,0,center_square,0,7,7,39,1,,,,,,,,,,,,,,,,,,,,,,,
379787,001,2022-11-20_23h47.57.959,Info_measure_main_exp,2022.2.2,Win32,144.2169022,,,,,,,,,,,,,,,,,,masks/mask_003.jpg,,,,,,,,,,,,,,,,,,,,,,,,,,,,,,,,,,,,,,,,,,,0,0,0,2,1,,,,,,,,,,,,,,,,,,,,,,,,,,,,,,,,,,,,,,,,,,,,,,
379787,001,2022-11-20_23h47.57.959,Info_measure_main_exp,2022.2.2,Win32,144.2169022,,,,,,,,,,,,,,,,,,masks/mask_002.jpg,,,,,,,,,,,,,,,,,,,,,,,,,,,,,,,,,,,,,,,,,,,0,1,1,1,1,,,,,,,,,,,,,,,,,,,,,,,,,,,,,,,,,,,,,,,,,,,,,,
379787,001,2022-11-20_23h47.57.959,Info_measure_main_exp,2022.2.2,Win32,144.2169022,,,,,,,,,,,,,,,,,,masks/mask_004.jpg,,,,,,,,,,,,,,,,,,,,,,,,,,,,,,,,,,,,,,,,,,,0,2,2,3,1,,,,,,,,,,,,,,,,,,,,,,,,,,,,,,,,,,,,,,,,,,,,,,
379787,001,2022-11-20_23h47.57.959,Info_measure_main_exp,2022.2.2,Win32,144.2169022,,,,,,,,,,,,,,,,,,masks/mask_001.jpg,,,,,,,,,,,,,,,,,,,,,,,,,,,,,,,,,,,,,,,,,,,0,3,3,0,1,,,,,,,,,,,,,,,,,,,,,,,,,,,,,,,,,,,,,,,,,,,,,,
379787,001,2022-11-20_23h47.57.959,Info_measure_main_exp,2022.2.2,Win32,144.2169022,,,,,,,,,,,,,,,,,,masks/mask_005.jpg,,,,,,,,,,,,,,,,,,,,,,,,,,,,,,,,,,,,,,,,,,,0,4,4,4,1,,,,,,,,,,,,,,,,,,,,,,,,,,,,,,,,,,,,,,,,,,,,,,
379787,001,2022-11-20_23h47.57.959,Info_measure_main_exp,2022.2.2,Win32,144.2169022,,,,,,,,,,,,,,,,,,masks/mask_004.jpg,,,,,,,,,,,,,,,,,,,,,,,,,,,,,,,,,,,,,,,,,,,,,,,,0,0,0,3,1,,,,,,,,,,,,,,,,,,,,,,,,,,,,,,,,,,,,,,,,,
379787,001,2022-11-20_23h47.57.959,Info_measure_main_exp,2022.2.2,Win32,144.2169022,,,,,,,,,,,,,,,,,,masks/mask_005.jpg,,,,,,,,,,,,,,,,,,,,,,,,,,,,,,,,,,,,,,,,,,,,,,,,0,1,1,4,1,,,,,,,,,,,,,,,,,,,,,,,,,,,,,,,,,,,,,,,,,
379787,001,2022-11-20_23h47.57.959,Info_measure_main_exp,2022.2.2,Win32,144.2169022,,,,,,,,,,,,,,,,,,masks/mask_002.jpg,,,,,,,,,,,,,,,,,,,,,,,,,,,,,,,,,,,,,,,,,,,,,,,,0,2,2,1,1,,,,,,,,,,,,,,,,,,,,,,,,,,,,,,,,,,,,,,,,,
379787,001,2022-11-20_23h47.57.959,Info_measure_main_exp,2022.2.2,Win32,144.2169022,,,,,,,,,,,,,,,,,,masks/mask_003.jpg,,,,,,,,,,,,,,,,,,,,,,,,,,,,,,,,,,,,,,,,,,,,,,,,0,3,3,2,1,,,,,,,,,,,,,,,,,,,,,,,,,,,,,,,,,,,,,,,,,
379787,001,2022-11-20_23h47.57.959,Info_measure_main_exp,2022.2.2,Win32,144.2169022,,,,,,,,,,,,,,,,,,masks/mask_001.jpg,,,,,,,,,,,,,,,,,,,,,,,,,,,,,,,,,,,,,,,,,,,,,,,,0,4,4,0,1,,,,,,,,,,,,,,,,,,,,,,,,,,,,,,,,,,,,,,,,,
379787,001,2022-11-20_23h47.57.959,Info_measure_main_exp,2022.2.2,Win32,144.2169022,,,,,,,,,,,,,,,,,,,,,,,,,,,,,,7,1.4306,1,,,,,,,,,,,,0,131,5,5,2190,2178,absent_patch/patch0002190.jpg,absent_patch/patch0002178.jpg,,,,,,,,,,,,,,,,,,,,0.057407407,0.14537037,1,0,0,response1disk,9,-0.005555556,-0.000925926,1,0,0,center_square,0,8,8,14,1,,,,,,,,,,,,,,,,,,,,,,,
379787,001,2022-11-20_23h47.57.959,Info_measure_main_exp,2022.2.2,Win32,144.2169022,,,,,,,,,,,,,,,,,,masks/mask_004.jpg,,,,,,,,,,,,,,,,,,,,,,,,,,,,,,,,,,,,,,,,,,,0,0,0,3,1,,,,,,,,,,,,,,,,,,,,,,,,,,,,,,,,,,,,,,,,,,,,,,
379787,001,2022-11-20_23h47.57.959,Info_measure_main_exp,2022.2.2,Win32,144.2169022,,,,,,,,,,,,,,,,,,masks/mask_003.jpg,,,,,,,,,,,,,,,,,,,,,,,,,,,,,,,,,,,,,,,,,,,0,1,1,2,1,,,,,,,,,,,,,,,,,,,,,,,,,,,,,,,,,,,,,,,,,,,,,,
379787,001,2022-11-20_23h47.57.959,Info_measure_main_exp,2022.2.2,Win32,144.2169022,,,,,,,,,,,,,,,,,,masks/mask_002.jpg,,,,,,,,,,,,,,,,,,,,,,,,,,,,,,,,,,,,,,,,,,,0,2,2,1,1,,,,,,,,,,,,,,,,,,,,,,,,,,,,,,,,,,,,,,,,,,,,,,
379787,001,2022-11-20_23h47.57.959,Info_measure_main_exp,2022.2.2,Win32,144.2169022,,,,,,,,,,,,,,,,,,masks/mask_005.jpg,,,,,,,,,,,,,,,,,,,,,,,,,,,,,,,,,,,,,,,,,,,0,3,3,4,1,,,,,,,,,,,,,,,,,,,,,,,,,,,,,,,,,,,,,,,,,,,,,,
379787,001,2022-11-20_23h47.57.959,Info_measure_main_exp,2022.2.2,Win32,144.2169022,,,,,,,,,,,,,,,,,,masks/mask_001.jpg,,,,,,,,,,,,,,,,,,,,,,,,,,,,,,,,,,,,,,,,,,,0,4,4,0,1,,,,,,,,,,,,,,,,,,,,,,,,,,,,,,,,,,,,,,,,,,,,,,
379787,001,2022-11-20_23h47.57.959,Info_measure_main_exp,2022.2.2,Win32,144.2169022,,,,,,,,,,,,,,,,,,masks/mask_005.jpg,,,,,,,,,,,,,,,,,,,,,,,,,,,,,,,,,,,,,,,,,,,,,,,,0,0,0,4,1,,,,,,,,,,,,,,,,,,,,,,,,,,,,,,,,,,,,,,,,,
379787,001,2022-11-20_23h47.57.959,Info_measure_main_exp,2022.2.2,Win32,144.2169022,,,,,,,,,,,,,,,,,,masks/mask_002.jpg,,,,,,,,,,,,,,,,,,,,,,,,,,,,,,,,,,,,,,,,,,,,,,,,0,1,1,1,1,,,,,,,,,,,,,,,,,,,,,,,,,,,,,,,,,,,,,,,,,
379787,001,2022-11-20_23h47.57.959,Info_measure_main_exp,2022.2.2,Win32,144.2169022,,,,,,,,,,,,,,,,,,masks/mask_004.jpg,,,,,,,,,,,,,,,,,,,,,,,,,,,,,,,,,,,,,,,,,,,,,,,,0,2,2,3,1,,,,,,,,,,,,,,,,,,,,,,,,,,,,,,,,,,,,,,,,,
379787,001,2022-11-20_23h47.57.959,Info_measure_main_exp,2022.2.2,Win32,144.2169022,,,,,,,,,,,,,,,,,,masks/mask_003.jpg,,,,,,,,,,,,,,,,,,,,,,,,,,,,,,,,,,,,,,,,,,,,,,,,0,3,3,2,1,,,,,,,,,,,,,,,,,,,,,,,,,,,,,,,,,,,,,,,,,
379787,001,2022-11-20_23h47.57.959,Info_measure_main_exp,2022.2.2,Win32,144.2169022,,,,,,,,,,,,,,,,,,masks/mask_001.jpg,,,,,,,,,,,,,,,,,,,,,,,,,,,,,,,,,,,,,,,,,,,,,,,,0,4,4,0,1,,,,,,,,,,,,,,,,,,,,,,,,,,,,,,,,,,,,,,,,,
379787,001,2022-11-20_23h47.57.959,Info_measure_main_exp,2022.2.2,Win32,144.2169022,,,,,,,,,,,,,,,,,,,,,,,,,,,,,,2,1.739,1,,,,,,,,,,,,1,131,5,5,1,2154,present_patch/cong_131_5_a.jpg,absent_patch/patch0002154.jpg,,,,,,,,,,,,,,,,,,,,-0.113888889,-0.037962963,1,0,0,response5disk,10,-0.00462963,0.000925926,1,0,0,center_square,0,9,9,87,1,,,,,,,,,,,,,,,,,,,,,,,
379787,001,2022-11-20_23h47.57.959,Info_measure_main_exp,2022.2.2,Win32,144.2169022,,,,,,,,,,,,,,,,,,masks/mask_003.jpg,,,,,,,,,,,,,,,,,,,,,,,,,,,,,,,,,,,,,,,,,,,0,0,0,2,1,,,,,,,,,,,,,,,,,,,,,,,,,,,,,,,,,,,,,,,,,,,,,,
379787,001,2022-11-20_23h47.57.959,Info_measure_main_exp,2022.2.2,Win32,144.2169022,,,,,,,,,,,,,,,,,,masks/mask_004.jpg,,,,,,,,,,,,,,,,,,,,,,,,,,,,,,,,,,,,,,,,,,,0,1,1,3,1,,,,,,,,,,,,,,,,,,,,,,,,,,,,,,,,,,,,,,,,,,,,,,
379787,001,2022-11-20_23h47.57.959,Info_measure_main_exp,2022.2.2,Win32,144.2169022,,,,,,,,,,,,,,,,,,masks/mask_002.jpg,,,,,,,,,,,,,,,,,,,,,,,,,,,,,,,,,,,,,,,,,,,0,2,2,1,1,,,,,,,,,,,,,,,,,,,,,,,,,,,,,,,,,,,,,,,,,,,,,,
379787,001,2022-11-20_23h47.57.959,Info_measure_main_exp,2022.2.2,Win32,144.2169022,,,,,,,,,,,,,,,,,,masks/mask_001.jpg,,,,,,,,,,,,,,,,,,,,,,,,,,,,,,,,,,,,,,,,,,,0,3,3,0,1,,,,,,,,,,,,,,,,,,,,,,,,,,,,,,,,,,,,,,,,,,,,,,
379787,001,2022-11-20_23h47.57.959,Info_measure_main_exp,2022.2.2,Win32,144.2169022,,,,,,,,,,,,,,,,,,masks/mask_005.jpg,,,,,,,,,,,,,,,,,,,,,,,,,,,,,,,,,,,,,,,,,,,0,4,4,4,1,,,,,,,,,,,,,,,,,,,,,,,,,,,,,,,,,,,,,,,,,,,,,,
379787,001,2022-11-20_23h47.57.959,Info_measure_main_exp,2022.2.2,Win32,144.2169022,,,,,,,,,,,,,,,,,,masks/mask_003.jpg,,,,,,,,,,,,,,,,,,,,,,,,,,,,,,,,,,,,,,,,,,,,,,,,0,0,0,2,1,,,,,,,,,,,,,,,,,,,,,,,,,,,,,,,,,,,,,,,,,
379787,001,2022-11-20_23h47.57.959,Info_measure_main_exp,2022.2.2,Win32,144.2169022,,,,,,,,,,,,,,,,,,masks/mask_002.jpg,,,,,,,,,,,,,,,,,,,,,,,,,,,,,,,,,,,,,,,,,,,,,,,,0,1,1,1,1,,,,,,,,,,,,,,,,,,,,,,,,,,,,,,,,,,,,,,,,,
379787,001,2022-11-20_23h47.57.959,Info_measure_main_exp,2022.2.2,Win32,144.2169022,,,,,,,,,,,,,,,,,,masks/mask_004.jpg,,,,,,,,,,,,,,,,,,,,,,,,,,,,,,,,,,,,,,,,,,,,,,,,0,2,2,3,1,,,,,,,,,,,,,,,,,,,,,,,,,,,,,,,,,,,,,,,,,
379787,001,2022-11-20_23h47.57.959,Info_measure_main_exp,2022.2.2,Win32,144.2169022,,,,,,,,,,,,,,,,,,masks/mask_001.jpg,,,,,,,,,,,,,,,,,,,,,,,,,,,,,,,,,,,,,,,,,,,,,,,,0,3,3,0,1,,,,,,,,,,,,,,,,,,,,,,,,,,,,,,,,,,,,,,,,,
379787,001,2022-11-20_23h47.57.959,Info_measure_main_exp,2022.2.2,Win32,144.2169022,,,,,,,,,,,,,,,,,,masks/mask_005.jpg,,,,,,,,,,,,,,,,,,,,,,,,,,,,,,,,,,,,,,,,,,,,,,,,0,4,4,4,1,,,,,,,,,,,,,,,,,,,,,,,,,,,,,,,,,,,,,,,,,
379787,001,2022-11-20_23h47.57.959,Info_measure_main_exp,2022.2.2,Win32,144.2169022,,,,,,,,,,,,,,,,,,,,,,,,,,,,,,7,5.0074,1,,,,,,,,,,,,0,131,5,5,2082,2238,absent_patch/patch0002082.jpg,absent_patch/patch0002238.jpg,,,,,,,,,,,,,,,,,,,,0.05,0.15,1,0,0,response1disk,11,0.006481481,-0.001851852,1,0,0,center_square,0,10,10,22,1,,,,,,,,,,,,,,,,,,,,,,,
379787,001,2022-11-20_23h47.57.959,Info_measure_main_exp,2022.2.2,Win32,144.2169022,,,,,,,,,,,,,,,,,,masks/mask_003.jpg,,,,,,,,,,,,,,,,,,,,,,,,,,,,,,,,,,,,,,,,,,,0,0,0,2,1,,,,,,,,,,,,,,,,,,,,,,,,,,,,,,,,,,,,,,,,,,,,,,
379787,001,2022-11-20_23h47.57.959,Info_measure_main_exp,2022.2.2,Win32,144.2169022,,,,,,,,,,,,,,,,,,masks/mask_001.jpg,,,,,,,,,,,,,,,,,,,,,,,,,,,,,,,,,,,,,,,,,,,0,1,1,0,1,,,,,,,,,,,,,,,,,,,,,,,,,,,,,,,,,,,,,,,,,,,,,,
379787,001,2022-11-20_23h47.57.959,Info_measure_main_exp,2022.2.2,Win32,144.2169022,,,,,,,,,,,,,,,,,,masks/mask_005.jpg,,,,,,,,,,,,,,,,,,,,,,,,,,,,,,,,,,,,,,,,,,,0,2,2,4,1,,,,,,,,,,,,,,,,,,,,,,,,,,,,,,,,,,,,,,,,,,,,,,
379787,001,2022-11-20_23h47.57.959,Info_measure_main_exp,2022.2.2,Win32,144.2169022,,,,,,,,,,,,,,,,,,masks/mask_002.jpg,,,,,,,,,,,,,,,,,,,,,,,,,,,,,,,,,,,,,,,,,,,0,3,3,1,1,,,,,,,,,,,,,,,,,,,,,,,,,,,,,,,,,,,,,,,,,,,,,,
379787,001,2022-11-20_23h47.57.959,Info_measure_main_exp,2022.2.2,Win32,144.2169022,,,,,,,,,,,,,,,,,,masks/mask_004.jpg,,,,,,,,,,,,,,,,,,,,,,,,,,,,,,,,,,,,,,,,,,,0,4,4,3,1,,,,,,,,,,,,,,,,,,,,,,,,,,,,,,,,,,,,,,,,,,,,,,
379787,001,2022-11-20_23h47.57.959,Info_measure_main_exp,2022.2.2,Win32,144.2169022,,,,,,,,,,,,,,,,,,masks/mask_004.jpg,,,,,,,,,,,,,,,,,,,,,,,,,,,,,,,,,,,,,,,,,,,,,,,,0,0,0,3,1,,,,,,,,,,,,,,,,,,,,,,,,,,,,,,,,,,,,,,,,,
379787,001,2022-11-20_23h47.57.959,Info_measure_main_exp,2022.2.2,Win32,144.2169022,,,,,,,,,,,,,,,,,,masks/mask_001.jpg,,,,,,,,,,,,,,,,,,,,,,,,,,,,,,,,,,,,,,,,,,,,,,,,0,1,1,0,1,,,,,,,,,,,,,,,,,,,,,,,,,,,,,,,,,,,,,,,,,
379787,001,2022-11-20_23h47.57.959,Info_measure_main_exp,2022.2.2,Win32,144.2169022,,,,,,,,,,,,,,,,,,masks/mask_003.jpg,,,,,,,,,,,,,,,,,,,,,,,,,,,,,,,,,,,,,,,,,,,,,,,,0,2,2,2,1,,,,,,,,,,,,,,,,,,,,,,,,,,,,,,,,,,,,,,,,,
379787,001,2022-11-20_23h47.57.959,Info_measure_main_exp,2022.2.2,Win32,144.2169022,,,,,,,,,,,,,,,,,,masks/mask_002.jpg,,,,,,,,,,,,,,,,,,,,,,,,,,,,,,,,,,,,,,,,,,,,,,,,0,3,3,1,1,,,,,,,,,,,,,,,,,,,,,,,,,,,,,,,,,,,,,,,,,
379787,001,2022-11-20_23h47.57.959,Info_measure_main_exp,2022.2.2,Win32,144.2169022,,,,,,,,,,,,,,,,,,masks/mask_005.jpg,,,,,,,,,,,,,,,,,,,,,,,,,,,,,,,,,,,,,,,,,,,,,,,,0,4,4,4,1,,,,,,,,,,,,,,,,,,,,,,,,,,,,,,,,,,,,,,,,,
379787,001,2022-11-20_23h47.57.959,Info_measure_main_exp,2022.2.2,Win32,144.2169022,,,,,,,,,,,,,,,,,,,,,,,,,,,,,,7,0.7871,1,,,,,,,,,,,,1,131,5,5,2238,1,absent_patch/patch0002238.jpg,present_patch/cong_131_5_a.jpg,,,,,,,,,,,,,,,,,,,,0.051851852,0.141666667,1,0,0,response1disk,12,0.001851852,0.001851852,1,0,0,center_square,0,11,11,104,1,,,,,,,,,,,,,,,,,,,,,,,
379787,001,2022-11-20_23h47.57.959,Info_measure_main_exp,2022.2.2,Win32,144.2169022,,,,,,,,,,,,,,,,,,masks/mask_001.jpg,,,,,,,,,,,,,,,,,,,,,,,,,,,,,,,,,,,,,,,,,,,0,0,0,0,1,,,,,,,,,,,,,,,,,,,,,,,,,,,,,,,,,,,,,,,,,,,,,,
379787,001,2022-11-20_23h47.57.959,Info_measure_main_exp,2022.2.2,Win32,144.2169022,,,,,,,,,,,,,,,,,,masks/mask_002.jpg,,,,,,,,,,,,,,,,,,,,,,,,,,,,,,,,,,,,,,,,,,,0,1,1,1,1,,,,,,,,,,,,,,,,,,,,,,,,,,,,,,,,,,,,,,,,,,,,,,
379787,001,2022-11-20_23h47.57.959,Info_measure_main_exp,2022.2.2,Win32,144.2169022,,,,,,,,,,,,,,,,,,masks/mask_003.jpg,,,,,,,,,,,,,,,,,,,,,,,,,,,,,,,,,,,,,,,,,,,0,2,2,2,1,,,,,,,,,,,,,,,,,,,,,,,,,,,,,,,,,,,,,,,,,,,,,,
379787,001,2022-11-20_23h47.57.959,Info_measure_main_exp,2022.2.2,Win32,144.2169022,,,,,,,,,,,,,,,,,,masks/mask_005.jpg,,,,,,,,,,,,,,,,,,,,,,,,,,,,,,,,,,,,,,,,,,,0,3,3,4,1,,,,,,,,,,,,,,,,,,,,,,,,,,,,,,,,,,,,,,,,,,,,,,
379787,001,2022-11-20_23h47.57.959,Info_measure_main_exp,2022.2.2,Win32,144.2169022,,,,,,,,,,,,,,,,,,masks/mask_004.jpg,,,,,,,,,,,,,,,,,,,,,,,,,,,,,,,,,,,,,,,,,,,0,4,4,3,1,,,,,,,,,,,,,,,,,,,,,,,,,,,,,,,,,,,,,,,,,,,,,,
379787,001,2022-11-20_23h47.57.959,Info_measure_main_exp,2022.2.2,Win32,144.2169022,,,,,,,,,,,,,,,,,,masks/mask_005.jpg,,,,,,,,,,,,,,,,,,,,,,,,,,,,,,,,,,,,,,,,,,,,,,,,0,0,0,4,1,,,,,,,,,,,,,,,,,,,,,,,,,,,,,,,,,,,,,,,,,
379787,001,2022-11-20_23h47.57.959,Info_measure_main_exp,2022.2.2,Win32,144.2169022,,,,,,,,,,,,,,,,,,masks/mask_002.jpg,,,,,,,,,,,,,,,,,,,,,,,,,,,,,,,,,,,,,,,,,,,,,,,,0,1,1,1,1,,,,,,,,,,,,,,,,,,,,,,,,,,,,,,,,,,,,,,,,,
379787,001,2022-11-20_23h47.57.959,Info_measure_main_exp,2022.2.2,Win32,144.2169022,,,,,,,,,,,,,,,,,,masks/mask_003.jpg,,,,,,,,,,,,,,,,,,,,,,,,,,,,,,,,,,,,,,,,,,,,,,,,0,2,2,2,1,,,,,,,,,,,,,,,,,,,,,,,,,,,,,,,,,,,,,,,,,
379787,001,2022-11-20_23h47.57.959,Info_measure_main_exp,2022.2.2,Win32,144.2169022,,,,,,,,,,,,,,,,,,masks/mask_001.jpg,,,,,,,,,,,,,,,,,,,,,,,,,,,,,,,,,,,,,,,,,,,,,,,,0,3,3,0,1,,,,,,,,,,,,,,,,,,,,,,,,,,,,,,,,,,,,,,,,,
379787,001,2022-11-20_23h47.57.959,Info_measure_main_exp,2022.2.2,Win32,144.2169022,,,,,,,,,,,,,,,,,,masks/mask_004.jpg,,,,,,,,,,,,,,,,,,,,,,,,,,,,,,,,,,,,,,,,,,,,,,,,0,4,4,3,1,,,,,,,,,,,,,,,,,,,,,,,,,,,,,,,,,,,,,,,,,
379787,001,2022-11-20_23h47.57.959,Info_measure_main_exp,2022.2.2,Win32,144.2169022,,,,,,,,,,,,,,,,,,,,,,,,,,,,,,7,0.5236,1,,,,,,,,,,,,0,131,5,5,2142,2238,absent_patch/patch0002142.jpg,absent_patch/patch0002238.jpg,,,,,,,,,,,,,,,,,,,,0.052777778,0.151851852,1,0,0,response1disk,13,0.003703704,0.000925926,1,0,0,center_square,0,12,12,101,1,,,,,,,,,,,,,,,,,,,,,,,
379787,001,2022-11-20_23h47.57.959,Info_measure_main_exp,2022.2.2,Win32,144.2169022,,,,,,,,,,,,,,,,,,masks/mask_004.jpg,,,,,,,,,,,,,,,,,,,,,,,,,,,,,,,,,,,,,,,,,,,0,0,0,3,1,,,,,,,,,,,,,,,,,,,,,,,,,,,,,,,,,,,,,,,,,,,,,,
379787,001,2022-11-20_23h47.57.959,Info_measure_main_exp,2022.2.2,Win32,144.2169022,,,,,,,,,,,,,,,,,,masks/mask_002.jpg,,,,,,,,,,,,,,,,,,,,,,,,,,,,,,,,,,,,,,,,,,,0,1,1,1,1,,,,,,,,,,,,,,,,,,,,,,,,,,,,,,,,,,,,,,,,,,,,,,
379787,001,2022-11-20_23h47.57.959,Info_measure_main_exp,2022.2.2,Win32,144.2169022,,,,,,,,,,,,,,,,,,masks/mask_001.jpg,,,,,,,,,,,,,,,,,,,,,,,,,,,,,,,,,,,,,,,,,,,0,2,2,0,1,,,,,,,,,,,,,,,,,,,,,,,,,,,,,,,,,,,,,,,,,,,,,,
379787,001,2022-11-20_23h47.57.959,Info_measure_main_exp,2022.2.2,Win32,144.2169022,,,,,,,,,,,,,,,,,,masks/mask_005.jpg,,,,,,,,,,,,,,,,,,,,,,,,,,,,,,,,,,,,,,,,,,,0,3,3,4,1,,,,,,,,,,,,,,,,,,,,,,,,,,,,,,,,,,,,,,,,,,,,,,
379787,001,2022-11-20_23h47.57.959,Info_measure_main_exp,2022.2.2,Win32,144.2169022,,,,,,,,,,,,,,,,,,masks/mask_003.jpg,,,,,,,,,,,,,,,,,,,,,,,,,,,,,,,,,,,,,,,,,,,0,4,4,2,1,,,,,,,,,,,,,,,,,,,,,,,,,,,,,,,,,,,,,,,,,,,,,,
379787,001,2022-11-20_23h47.57.959,Info_measure_main_exp,2022.2.2,Win32,144.2169022,,,,,,,,,,,,,,,,,,masks/mask_003.jpg,,,,,,,,,,,,,,,,,,,,,,,,,,,,,,,,,,,,,,,,,,,,,,,,0,0,0,2,1,,,,,,,,,,,,,,,,,,,,,,,,,,,,,,,,,,,,,,,,,
379787,001,2022-11-20_23h47.57.959,Info_measure_main_exp,2022.2.2,Win32,144.2169022,,,,,,,,,,,,,,,,,,masks/mask_004.jpg,,,,,,,,,,,,,,,,,,,,,,,,,,,,,,,,,,,,,,,,,,,,,,,,0,1,1,3,1,,,,,,,,,,,,,,,,,,,,,,,,,,,,,,,,,,,,,,,,,
379787,001,2022-11-20_23h47.57.959,Info_measure_main_exp,2022.2.2,Win32,144.2169022,,,,,,,,,,,,,,,,,,masks/mask_002.jpg,,,,,,,,,,,,,,,,,,,,,,,,,,,,,,,,,,,,,,,,,,,,,,,,0,2,2,1,1,,,,,,,,,,,,,,,,,,,,,,,,,,,,,,,,,,,,,,,,,
379787,001,2022-11-20_23h47.57.959,Info_measure_main_exp,2022.2.2,Win32,144.2169022,,,,,,,,,,,,,,,,,,masks/mask_005.jpg,,,,,,,,,,,,,,,,,,,,,,,,,,,,,,,,,,,,,,,,,,,,,,,,0,3,3,4,1,,,,,,,,,,,,,,,,,,,,,,,,,,,,,,,,,,,,,,,,,
379787,001,2022-11-20_23h47.57.959,Info_measure_main_exp,2022.2.2,Win32,144.2169022,,,,,,,,,,,,,,,,,,masks/mask_001.jpg,,,,,,,,,,,,,,,,,,,,,,,,,,,,,,,,,,,,,,,,,,,,,,,,0,4,4,0,1,,,,,,,,,,,,,,,,,,,,,,,,,,,,,,,,,,,,,,,,,
379787,001,2022-11-20_23h47.57.959,Info_measure_main_exp,2022.2.2,Win32,144.2169022,,,,,,,,,,,,,,,,,,,,,,,,,,,,,,7,1.5488,1,,,,,,,,,,,,0,131,5,5,2190,1950,absent_patch/patch0002190.jpg,absent_patch/patch0001950.jpg,,,,,,,,,,,,,,,,,,,,0.037962963,0.124074074,1,0,0,response1disk,14,0.001851852,0.008333333,1,0,0,center_square,0,13,13,73,1,,,,,,,,,,,,,,,,,,,,,,,
379787,001,2022-11-20_23h47.57.959,Info_measure_main_exp,2022.2.2,Win32,144.2169022,,,,,,,,,,,,,,,,,,masks/mask_002.jpg,,,,,,,,,,,,,,,,,,,,,,,,,,,,,,,,,,,,,,,,,,,0,0,0,1,1,,,,,,,,,,,,,,,,,,,,,,,,,,,,,,,,,,,,,,,,,,,,,,
379787,001,2022-11-20_23h47.57.959,Info_measure_main_exp,2022.2.2,Win32,144.2169022,,,,,,,,,,,,,,,,,,masks/mask_001.jpg,,,,,,,,,,,,,,,,,,,,,,,,,,,,,,,,,,,,,,,,,,,0,1,1,0,1,,,,,,,,,,,,,,,,,,,,,,,,,,,,,,,,,,,,,,,,,,,,,,
379787,001,2022-11-20_23h47.57.959,Info_measure_main_exp,2022.2.2,Win32,144.2169022,,,,,,,,,,,,,,,,,,masks/mask_004.jpg,,,,,,,,,,,,,,,,,,,,,,,,,,,,,,,,,,,,,,,,,,,0,2,2,3,1,,,,,,,,,,,,,,,,,,,,,,,,,,,,,,,,,,,,,,,,,,,,,,
379787,001,2022-11-20_23h47.57.959,Info_measure_main_exp,2022.2.2,Win32,144.2169022,,,,,,,,,,,,,,,,,,masks/mask_005.jpg,,,,,,,,,,,,,,,,,,,,,,,,,,,,,,,,,,,,,,,,,,,0,3,3,4,1,,,,,,,,,,,,,,,,,,,,,,,,,,,,,,,,,,,,,,,,,,,,,,
379787,001,2022-11-20_23h47.57.959,Info_measure_main_exp,2022.2.2,Win32,144.2169022,,,,,,,,,,,,,,,,,,masks/mask_003.jpg,,,,,,,,,,,,,,,,,,,,,,,,,,,,,,,,,,,,,,,,,,,0,4,4,2,1,,,,,,,,,,,,,,,,,,,,,,,,,,,,,,,,,,,,,,,,,,,,,,
379787,001,2022-11-20_23h47.57.959,Info_measure_main_exp,2022.2.2,Win32,144.2169022,,,,,,,,,,,,,,,,,,masks/mask_003.jpg,,,,,,,,,,,,,,,,,,,,,,,,,,,,,,,,,,,,,,,,,,,,,,,,0,0,0,2,1,,,,,,,,,,,,,,,,,,,,,,,,,,,,,,,,,,,,,,,,,
379787,001,2022-11-20_23h47.57.959,Info_measure_main_exp,2022.2.2,Win32,144.2169022,,,,,,,,,,,,,,,,,,masks/mask_002.jpg,,,,,,,,,,,,,,,,,,,,,,,,,,,,,,,,,,,,,,,,,,,,,,,,0,1,1,1,1,,,,,,,,,,,,,,,,,,,,,,,,,,,,,,,,,,,,,,,,,
379787,001,2022-11-20_23h47.57.959,Info_measure_main_exp,2022.2.2,Win32,144.2169022,,,,,,,,,,,,,,,,,,masks/mask_005.jpg,,,,,,,,,,,,,,,,,,,,,,,,,,,,,,,,,,,,,,,,,,,,,,,,0,2,2,4,1,,,,,,,,,,,,,,,,,,,,,,,,,,,,,,,,,,,,,,,,,
379787,001,2022-11-20_23h47.57.959,Info_measure_main_exp,2022.2.2,Win32,144.2169022,,,,,,,,,,,,,,,,,,masks/mask_001.jpg,,,,,,,,,,,,,,,,,,,,,,,,,,,,,,,,,,,,,,,,,,,,,,,,0,3,3,0,1,,,,,,,,,,,,,,,,,,,,,,,,,,,,,,,,,,,,,,,,,
379787,001,2022-11-20_23h47.57.959,Info_measure_main_exp,2022.2.2,Win32,144.2169022,,,,,,,,,,,,,,,,,,masks/mask_004.jpg,,,,,,,,,,,,,,,,,,,,,,,,,,,,,,,,,,,,,,,,,,,,,,,,0,4,4,3,1,,,,,,,,,,,,,,,,,,,,,,,,,,,,,,,,,,,,,,,,,
379787,001,2022-11-20_23h47.57.959,Info_measure_main_exp,2022.2.2,Win32,144.2169022,,,,,,,,,,,,,,,,,,,,,,,,,,,,,,7,0.5903,1,,,,,,,,,,,,0,131,5,5,2166,2298,absent_patch/patch0002166.jpg,absent_patch/patch0002298.jpg,,,,,,,,,,,,,,,,,,,,0.042592593,0.133333333,1,0,0,response1disk,15,0.002777778,-0.000925926,1,0,0,center_square,0,14,14,52,1,,,,,,,,,,,,,,,,,,,,,,,
379787,001,2022-11-20_23h47.57.959,Info_measure_main_exp,2022.2.2,Win32,144.2169022,,,,,,,,,,,,,,,,,,masks/mask_004.jpg,,,,,,,,,,,,,,,,,,,,,,,,,,,,,,,,,,,,,,,,,,,0,0,0,3,1,,,,,,,,,,,,,,,,,,,,,,,,,,,,,,,,,,,,,,,,,,,,,,
379787,001,2022-11-20_23h47.57.959,Info_measure_main_exp,2022.2.2,Win32,144.2169022,,,,,,,,,,,,,,,,,,masks/mask_002.jpg,,,,,,,,,,,,,,,,,,,,,,,,,,,,,,,,,,,,,,,,,,,0,1,1,1,1,,,,,,,,,,,,,,,,,,,,,,,,,,,,,,,,,,,,,,,,,,,,,,
379787,001,2022-11-20_23h47.57.959,Info_measure_main_exp,2022.2.2,Win32,144.2169022,,,,,,,,,,,,,,,,,,masks/mask_005.jpg,,,,,,,,,,,,,,,,,,,,,,,,,,,,,,,,,,,,,,,,,,,0,2,2,4,1,,,,,,,,,,,,,,,,,,,,,,,,,,,,,,,,,,,,,,,,,,,,,,
379787,001,2022-11-20_23h47.57.959,Info_measure_main_exp,2022.2.2,Win32,144.2169022,,,,,,,,,,,,,,,,,,masks/mask_003.jpg,,,,,,,,,,,,,,,,,,,,,,,,,,,,,,,,,,,,,,,,,,,0,3,3,2,1,,,,,,,,,,,,,,,,,,,,,,,,,,,,,,,,,,,,,,,,,,,,,,
379787,001,2022-11-20_23h47.57.959,Info_measure_main_exp,2022.2.2,Win32,144.2169022,,,,,,,,,,,,,,,,,,masks/mask_001.jpg,,,,,,,,,,,,,,,,,,,,,,,,,,,,,,,,,,,,,,,,,,,0,4,4,0,1,,,,,,,,,,,,,,,,,,,,,,,,,,,,,,,,,,,,,,,,,,,,,,
379787,001,2022-11-20_23h47.57.959,Info_measure_main_exp,2022.2.2,Win32,144.2169022,,,,,,,,,,,,,,,,,,masks/mask_004.jpg,,,,,,,,,,,,,,,,,,,,,,,,,,,,,,,,,,,,,,,,,,,,,,,,0,0,0,3,1,,,,,,,,,,,,,,,,,,,,,,,,,,,,,,,,,,,,,,,,,
379787,001,2022-11-20_23h47.57.959,Info_measure_main_exp,2022.2.2,Win32,144.2169022,,,,,,,,,,,,,,,,,,masks/mask_001.jpg,,,,,,,,,,,,,,,,,,,,,,,,,,,,,,,,,,,,,,,,,,,,,,,,0,1,1,0,1,,,,,,,,,,,,,,,,,,,,,,,,,,,,,,,,,,,,,,,,,
379787,001,2022-11-20_23h47.57.959,Info_measure_main_exp,2022.2.2,Win32,144.2169022,,,,,,,,,,,,,,,,,,masks/mask_002.jpg,,,,,,,,,,,,,,,,,,,,,,,,,,,,,,,,,,,,,,,,,,,,,,,,0,2,2,1,1,,,,,,,,,,,,,,,,,,,,,,,,,,,,,,,,,,,,,,,,,
379787,001,2022-11-20_23h47.57.959,Info_measure_main_exp,2022.2.2,Win32,144.2169022,,,,,,,,,,,,,,,,,,masks/mask_005.jpg,,,,,,,,,,,,,,,,,,,,,,,,,,,,,,,,,,,,,,,,,,,,,,,,0,3,3,4,1,,,,,,,,,,,,,,,,,,,,,,,,,,,,,,,,,,,,,,,,,
379787,001,2022-11-20_23h47.57.959,Info_measure_main_exp,2022.2.2,Win32,144.2169022,,,,,,,,,,,,,,,,,,masks/mask_003.jpg,,,,,,,,,,,,,,,,,,,,,,,,,,,,,,,,,,,,,,,,,,,,,,,,0,4,4,2,1,,,,,,,,,,,,,,,,,,,,,,,,,,,,,,,,,,,,,,,,,
379787,001,2022-11-20_23h47.57.959,Info_measure_main_exp,2022.2.2,Win32,144.2169022,,,,,,,,,,,,,,,,,,,,,,,,,,,,,,7,0.5184,1,,,,,,,,,,,,0,131,5,5,2274,1974,absent_patch/patch0002274.jpg,absent_patch/patch0001974.jpg,,,,,,,,,,,,,,,,,,,,0.046296296,0.125925926,1,0,0,response1disk,16,0.008333333,0.003703704,1,0,0,center_square,0,15,15,90,1,,,,,,,,,,,,,,,,,,,,,,,
379787,001,2022-11-20_23h47.57.959,Info_measure_main_exp,2022.2.2,Win32,144.2169022,,,,,,,,,,,,,,,,,,masks/mask_002.jpg,,,,,,,,,,,,,,,,,,,,,,,,,,,,,,,,,,,,,,,,,,,0,0,0,1,1,,,,,,,,,,,,,,,,,,,,,,,,,,,,,,,,,,,,,,,,,,,,,,
379787,001,2022-11-20_23h47.57.959,Info_measure_main_exp,2022.2.2,Win32,144.2169022,,,,,,,,,,,,,,,,,,masks/mask_005.jpg,,,,,,,,,,,,,,,,,,,,,,,,,,,,,,,,,,,,,,,,,,,0,1,1,4,1,,,,,,,,,,,,,,,,,,,,,,,,,,,,,,,,,,,,,,,,,,,,,,
379787,001,2022-11-20_23h47.57.959,Info_measure_main_exp,2022.2.2,Win32,144.2169022,,,,,,,,,,,,,,,,,,masks/mask_003.jpg,,,,,,,,,,,,,,,,,,,,,,,,,,,,,,,,,,,,,,,,,,,0,2,2,2,1,,,,,,,,,,,,,,,,,,,,,,,,,,,,,,,,,,,,,,,,,,,,,,
379787,001,2022-11-20_23h47.57.959,Info_measure_main_exp,2022.2.2,Win32,144.2169022,,,,,,,,,,,,,,,,,,masks/mask_001.jpg,,,,,,,,,,,,,,,,,,,,,,,,,,,,,,,,,,,,,,,,,,,0,3,3,0,1,,,,,,,,,,,,,,,,,,,,,,,,,,,,,,,,,,,,,,,,,,,,,,
379787,001,2022-11-20_23h47.57.959,Info_measure_main_exp,2022.2.2,Win32,144.2169022,,,,,,,,,,,,,,,,,,masks/mask_004.jpg,,,,,,,,,,,,,,,,,,,,,,,,,,,,,,,,,,,,,,,,,,,0,4,4,3,1,,,,,,,,,,,,,,,,,,,,,,,,,,,,,,,,,,,,,,,,,,,,,,
379787,001,2022-11-20_23h47.57.959,Info_measure_main_exp,2022.2.2,Win32,144.2169022,,,,,,,,,,,,,,,,,,masks/mask_005.jpg,,,,,,,,,,,,,,,,,,,,,,,,,,,,,,,,,,,,,,,,,,,,,,,,0,0,0,4,1,,,,,,,,,,,,,,,,,,,,,,,,,,,,,,,,,,,,,,,,,
379787,001,2022-11-20_23h47.57.959,Info_measure_main_exp,2022.2.2,Win32,144.2169022,,,,,,,,,,,,,,,,,,masks/mask_004.jpg,,,,,,,,,,,,,,,,,,,,,,,,,,,,,,,,,,,,,,,,,,,,,,,,0,1,1,3,1,,,,,,,,,,,,,,,,,,,,,,,,,,,,,,,,,,,,,,,,,
379787,001,2022-11-20_23h47.57.959,Info_measure_main_exp,2022.2.2,Win32,144.2169022,,,,,,,,,,,,,,,,,,masks/mask_003.jpg,,,,,,,,,,,,,,,,,,,,,,,,,,,,,,,,,,,,,,,,,,,,,,,,0,2,2,2,1,,,,,,,,,,,,,,,,,,,,,,,,,,,,,,,,,,,,,,,,,
379787,001,2022-11-20_23h47.57.959,Info_measure_main_exp,2022.2.2,Win32,144.2169022,,,,,,,,,,,,,,,,,,masks/mask_002.jpg,,,,,,,,,,,,,,,,,,,,,,,,,,,,,,,,,,,,,,,,,,,,,,,,0,3,3,1,1,,,,,,,,,,,,,,,,,,,,,,,,,,,,,,,,,,,,,,,,,
379787,001,2022-11-20_23h47.57.959,Info_measure_main_exp,2022.2.2,Win32,144.2169022,,,,,,,,,,,,,,,,,,masks/mask_001.jpg,,,,,,,,,,,,,,,,,,,,,,,,,,,,,,,,,,,,,,,,,,,,,,,,0,4,4,0,1,,,,,,,,,,,,,,,,,,,,,,,,,,,,,,,,,,,,,,,,,
379787,001,2022-11-20_23h47.57.959,Info_measure_main_exp,2022.2.2,Win32,144.2169022,,,,,,,,,,,,,,,,,,,,,,,,,,,,,,7,0.5489,1,,,,,,,,,,,,0,131,5,5,1986,2274,absent_patch/patch0001986.jpg,absent_patch/patch0002274.jpg,,,,,,,,,,,,,,,,,,,,0.040740741,0.112962963,1,0,0,response1disk,17,0,-0.006481481,1,0,0,center_square,0,16,16,7,1,,,,,,,,,,,,,,,,,,,,,,,
379787,001,2022-11-20_23h47.57.959,Info_measure_main_exp,2022.2.2,Win32,144.2169022,,,,,,,,,,,,,,,,,,masks/mask_004.jpg,,,,,,,,,,,,,,,,,,,,,,,,,,,,,,,,,,,,,,,,,,,0,0,0,3,1,,,,,,,,,,,,,,,,,,,,,,,,,,,,,,,,,,,,,,,,,,,,,,
379787,001,2022-11-20_23h47.57.959,Info_measure_main_exp,2022.2.2,Win32,144.2169022,,,,,,,,,,,,,,,,,,masks/mask_003.jpg,,,,,,,,,,,,,,,,,,,,,,,,,,,,,,,,,,,,,,,,,,,0,1,1,2,1,,,,,,,,,,,,,,,,,,,,,,,,,,,,,,,,,,,,,,,,,,,,,,
379787,001,2022-11-20_23h47.57.959,Info_measure_main_exp,2022.2.2,Win32,144.2169022,,,,,,,,,,,,,,,,,,masks/mask_002.jpg,,,,,,,,,,,,,,,,,,,,,,,,,,,,,,,,,,,,,,,,,,,0,2,2,1,1,,,,,,,,,,,,,,,,,,,,,,,,,,,,,,,,,,,,,,,,,,,,,,
379787,001,2022-11-20_23h47.57.959,Info_measure_main_exp,2022.2.2,Win32,144.2169022,,,,,,,,,,,,,,,,,,masks/mask_001.jpg,,,,,,,,,,,,,,,,,,,,,,,,,,,,,,,,,,,,,,,,,,,0,3,3,0,1,,,,,,,,,,,,,,,,,,,,,,,,,,,,,,,,,,,,,,,,,,,,,,
379787,001,2022-11-20_23h47.57.959,Info_measure_main_exp,2022.2.2,Win32,144.2169022,,,,,,,,,,,,,,,,,,masks/mask_005.jpg,,,,,,,,,,,,,,,,,,,,,,,,,,,,,,,,,,,,,,,,,,,0,4,4,4,1,,,,,,,,,,,,,,,,,,,,,,,,,,,,,,,,,,,,,,,,,,,,,,
379787,001,2022-11-20_23h47.57.959,Info_measure_main_exp,2022.2.2,Win32,144.2169022,,,,,,,,,,,,,,,,,,masks/mask_005.jpg,,,,,,,,,,,,,,,,,,,,,,,,,,,,,,,,,,,,,,,,,,,,,,,,0,0,0,4,1,,,,,,,,,,,,,,,,,,,,,,,,,,,,,,,,,,,,,,,,,
379787,001,2022-11-20_23h47.57.959,Info_measure_main_exp,2022.2.2,Win32,144.2169022,,,,,,,,,,,,,,,,,,masks/mask_004.jpg,,,,,,,,,,,,,,,,,,,,,,,,,,,,,,,,,,,,,,,,,,,,,,,,0,1,1,3,1,,,,,,,,,,,,,,,,,,,,,,,,,,,,,,,,,,,,,,,,,
379787,001,2022-11-20_23h47.57.959,Info_measure_main_exp,2022.2.2,Win32,144.2169022,,,,,,,,,,,,,,,,,,masks/mask_003.jpg,,,,,,,,,,,,,,,,,,,,,,,,,,,,,,,,,,,,,,,,,,,,,,,,0,2,2,2,1,,,,,,,,,,,,,,,,,,,,,,,,,,,,,,,,,,,,,,,,,
379787,001,2022-11-20_23h47.57.959,Info_measure_main_exp,2022.2.2,Win32,144.2169022,,,,,,,,,,,,,,,,,,masks/mask_001.jpg,,,,,,,,,,,,,,,,,,,,,,,,,,,,,,,,,,,,,,,,,,,,,,,,0,3,3,0,1,,,,,,,,,,,,,,,,,,,,,,,,,,,,,,,,,,,,,,,,,
379787,001,2022-11-20_23h47.57.959,Info_measure_main_exp,2022.2.2,Win32,144.2169022,,,,,,,,,,,,,,,,,,masks/mask_002.jpg,,,,,,,,,,,,,,,,,,,,,,,,,,,,,,,,,,,,,,,,,,,,,,,,0,4,4,1,1,,,,,,,,,,,,,,,,,,,,,,,,,,,,,,,,,,,,,,,,,
379787,001,2022-11-20_23h47.57.959,Info_measure_main_exp,2022.2.2,Win32,144.2169022,,,,,,,,,,,,,,,,,,,,,,,,,,,,,,7,0.7113,1,,,,,,,,,,,,0,131,5,5,2142,2154,absent_patch/patch0002142.jpg,absent_patch/patch0002154.jpg,,,,,,,,,,,,,,,,,,,,0.031481481,0.113888889,1,0,0,response1disk,18,0.009259259,0.003703704,1,0,0,center_square,0,17,17,9,1,,,,,,,,,,,,,,,,,,,,,,,
379787,001,2022-11-20_23h47.57.959,Info_measure_main_exp,2022.2.2,Win32,144.2169022,,,,,,,,,,,,,,,,,,masks/mask_001.jpg,,,,,,,,,,,,,,,,,,,,,,,,,,,,,,,,,,,,,,,,,,,0,0,0,0,1,,,,,,,,,,,,,,,,,,,,,,,,,,,,,,,,,,,,,,,,,,,,,,
379787,001,2022-11-20_23h47.57.959,Info_measure_main_exp,2022.2.2,Win32,144.2169022,,,,,,,,,,,,,,,,,,masks/mask_002.jpg,,,,,,,,,,,,,,,,,,,,,,,,,,,,,,,,,,,,,,,,,,,0,1,1,1,1,,,,,,,,,,,,,,,,,,,,,,,,,,,,,,,,,,,,,,,,,,,,,,
379787,001,2022-11-20_23h47.57.959,Info_measure_main_exp,2022.2.2,Win32,144.2169022,,,,,,,,,,,,,,,,,,masks/mask_004.jpg,,,,,,,,,,,,,,,,,,,,,,,,,,,,,,,,,,,,,,,,,,,0,2,2,3,1,,,,,,,,,,,,,,,,,,,,,,,,,,,,,,,,,,,,,,,,,,,,,,
379787,001,2022-11-20_23h47.57.959,Info_measure_main_exp,2022.2.2,Win32,144.2169022,,,,,,,,,,,,,,,,,,masks/mask_003.jpg,,,,,,,,,,,,,,,,,,,,,,,,,,,,,,,,,,,,,,,,,,,0,3,3,2,1,,,,,,,,,,,,,,,,,,,,,,,,,,,,,,,,,,,,,,,,,,,,,,
379787,001,2022-11-20_23h47.57.959,Info_measure_main_exp,2022.2.2,Win32,144.2169022,,,,,,,,,,,,,,,,,,masks/mask_005.jpg,,,,,,,,,,,,,,,,,,,,,,,,,,,,,,,,,,,,,,,,,,,0,4,4,4,1,,,,,,,,,,,,,,,,,,,,,,,,,,,,,,,,,,,,,,,,,,,,,,
379787,001,2022-11-20_23h47.57.959,Info_measure_main_exp,2022.2.2,Win32,144.2169022,,,,,,,,,,,,,,,,,,masks/mask_002.jpg,,,,,,,,,,,,,,,,,,,,,,,,,,,,,,,,,,,,,,,,,,,,,,,,0,0,0,1,1,,,,,,,,,,,,,,,,,,,,,,,,,,,,,,,,,,,,,,,,,
379787,001,2022-11-20_23h47.57.959,Info_measure_main_exp,2022.2.2,Win32,144.2169022,,,,,,,,,,,,,,,,,,masks/mask_003.jpg,,,,,,,,,,,,,,,,,,,,,,,,,,,,,,,,,,,,,,,,,,,,,,,,0,1,1,2,1,,,,,,,,,,,,,,,,,,,,,,,,,,,,,,,,,,,,,,,,,
379787,001,2022-11-20_23h47.57.959,Info_measure_main_exp,2022.2.2,Win32,144.2169022,,,,,,,,,,,,,,,,,,masks/mask_004.jpg,,,,,,,,,,,,,,,,,,,,,,,,,,,,,,,,,,,,,,,,,,,,,,,,0,2,2,3,1,,,,,,,,,,,,,,,,,,,,,,,,,,,,,,,,,,,,,,,,,
379787,001,2022-11-20_23h47.57.959,Info_measure_main_exp,2022.2.2,Win32,144.2169022,,,,,,,,,,,,,,,,,,masks/mask_005.jpg,,,,,,,,,,,,,,,,,,,,,,,,,,,,,,,,,,,,,,,,,,,,,,,,0,3,3,4,1,,,,,,,,,,,,,,,,,,,,,,,,,,,,,,,,,,,,,,,,,
379787,001,2022-11-20_23h47.57.959,Info_measure_main_exp,2022.2.2,Win32,144.2169022,,,,,,,,,,,,,,,,,,masks/mask_001.jpg,,,,,,,,,,,,,,,,,,,,,,,,,,,,,,,,,,,,,,,,,,,,,,,,0,4,4,0,1,,,,,,,,,,,,,,,,,,,,,,,,,,,,,,,,,,,,,,,,,
379787,001,2022-11-20_23h47.57.959,Info_measure_main_exp,2022.2.2,Win32,144.2169022,,,,,,,,,,,,,,,,,,,,,,,,,,,,,,7,0.8241,1,,,,,,,,,,,,0,131,5,5,1986,1974,absent_patch/patch0001986.jpg,absent_patch/patch0001974.jpg,,,,,,,,,,,,,,,,,,,,0.035185185,0.125925926,1,0,0,response1disk,19,-0.008333333,-0.007407407,1,0,0,center_square,0,18,18,25,1,,,,,,,,,,,,,,,,,,,,,,,
379787,001,2022-11-20_23h47.57.959,Info_measure_main_exp,2022.2.2,Win32,144.2169022,,,,,,,,,,,,,,,,,,masks/mask_005.jpg,,,,,,,,,,,,,,,,,,,,,,,,,,,,,,,,,,,,,,,,,,,0,0,0,4,1,,,,,,,,,,,,,,,,,,,,,,,,,,,,,,,,,,,,,,,,,,,,,,
379787,001,2022-11-20_23h47.57.959,Info_measure_main_exp,2022.2.2,Win32,144.2169022,,,,,,,,,,,,,,,,,,masks/mask_004.jpg,,,,,,,,,,,,,,,,,,,,,,,,,,,,,,,,,,,,,,,,,,,0,1,1,3,1,,,,,,,,,,,,,,,,,,,,,,,,,,,,,,,,,,,,,,,,,,,,,,
379787,001,2022-11-20_23h47.57.959,Info_measure_main_exp,2022.2.2,Win32,144.2169022,,,,,,,,,,,,,,,,,,masks/mask_003.jpg,,,,,,,,,,,,,,,,,,,,,,,,,,,,,,,,,,,,,,,,,,,0,2,2,2,1,,,,,,,,,,,,,,,,,,,,,,,,,,,,,,,,,,,,,,,,,,,,,,
379787,001,2022-11-20_23h47.57.959,Info_measure_main_exp,2022.2.2,Win32,144.2169022,,,,,,,,,,,,,,,,,,masks/mask_002.jpg,,,,,,,,,,,,,,,,,,,,,,,,,,,,,,,,,,,,,,,,,,,0,3,3,1,1,,,,,,,,,,,,,,,,,,,,,,,,,,,,,,,,,,,,,,,,,,,,,,
379787,001,2022-11-20_23h47.57.959,Info_measure_main_exp,2022.2.2,Win32,144.2169022,,,,,,,,,,,,,,,,,,masks/mask_001.jpg,,,,,,,,,,,,,,,,,,,,,,,,,,,,,,,,,,,,,,,,,,,0,4,4,0,1,,,,,,,,,,,,,,,,,,,,,,,,,,,,,,,,,,,,,,,,,,,,,,
379787,001,2022-11-20_23h47.57.959,Info_measure_main_exp,2022.2.2,Win32,144.2169022,,,,,,,,,,,,,,,,,,masks/mask_005.jpg,,,,,,,,,,,,,,,,,,,,,,,,,,,,,,,,,,,,,,,,,,,,,,,,0,0,0,4,1,,,,,,,,,,,,,,,,,,,,,,,,,,,,,,,,,,,,,,,,,
379787,001,2022-11-20_23h47.57.959,Info_measure_main_exp,2022.2.2,Win32,144.2169022,,,,,,,,,,,,,,,,,,masks/mask_004.jpg,,,,,,,,,,,,,,,,,,,,,,,,,,,,,,,,,,,,,,,,,,,,,,,,0,1,1,3,1,,,,,,,,,,,,,,,,,,,,,,,,,,,,,,,,,,,,,,,,,
379787,001,2022-11-20_23h47.57.959,Info_measure_main_exp,2022.2.2,Win32,144.2169022,,,,,,,,,,,,,,,,,,masks/mask_003.jpg,,,,,,,,,,,,,,,,,,,,,,,,,,,,,,,,,,,,,,,,,,,,,,,,0,2,2,2,1,,,,,,,,,,,,,,,,,,,,,,,,,,,,,,,,,,,,,,,,,
379787,001,2022-11-20_23h47.57.959,Info_measure_main_exp,2022.2.2,Win32,144.2169022,,,,,,,,,,,,,,,,,,masks/mask_001.jpg,,,,,,,,,,,,,,,,,,,,,,,,,,,,,,,,,,,,,,,,,,,,,,,,0,3,3,0,1,,,,,,,,,,,,,,,,,,,,,,,,,,,,,,,,,,,,,,,,,
379787,001,2022-11-20_23h47.57.959,Info_measure_main_exp,2022.2.2,Win32,144.2169022,,,,,,,,,,,,,,,,,,masks/mask_002.jpg,,,,,,,,,,,,,,,,,,,,,,,,,,,,,,,,,,,,,,,,,,,,,,,,0,4,4,1,1,,,,,,,,,,,,,,,,,,,,,,,,,,,,,,,,,,,,,,,,,
379787,001,2022-11-20_23h47.57.959,Info_measure_main_exp,2022.2.2,Win32,144.2169022,,,,,,,,,,,,,,,,,,,,,,,,,,,,,,7,0.4563,1,,,,,,,,,,,,1,131,5,5,1,2142,present_patch/cong_131_5_a.jpg,absent_patch/patch0002142.jpg,,,,,,,,,,,,,,,,,,,,0.033333333,0.116666667,1,0,0,response1disk,20,0.002777778,-0.002777778,1,0,0,center_square,0,19,19,80,1,,,,,,,,,,,,,,,,,,,,,,,
379787,001,2022-11-20_23h47.57.959,Info_measure_main_exp,2022.2.2,Win32,144.2169022,,,,,,,,,,,,,,,,,,masks/mask_005.jpg,,,,,,,,,,,,,,,,,,,,,,,,,,,,,,,,,,,,,,,,,,,0,0,0,4,1,,,,,,,,,,,,,,,,,,,,,,,,,,,,,,,,,,,,,,,,,,,,,,
379787,001,2022-11-20_23h47.57.959,Info_measure_main_exp,2022.2.2,Win32,144.2169022,,,,,,,,,,,,,,,,,,masks/mask_004.jpg,,,,,,,,,,,,,,,,,,,,,,,,,,,,,,,,,,,,,,,,,,,0,1,1,3,1,,,,,,,,,,,,,,,,,,,,,,,,,,,,,,,,,,,,,,,,,,,,,,
379787,001,2022-11-20_23h47.57.959,Info_measure_main_exp,2022.2.2,Win32,144.2169022,,,,,,,,,,,,,,,,,,masks/mask_003.jpg,,,,,,,,,,,,,,,,,,,,,,,,,,,,,,,,,,,,,,,,,,,0,2,2,2,1,,,,,,,,,,,,,,,,,,,,,,,,,,,,,,,,,,,,,,,,,,,,,,
379787,001,2022-11-20_23h47.57.959,Info_measure_main_exp,2022.2.2,Win32,144.2169022,,,,,,,,,,,,,,,,,,masks/mask_001.jpg,,,,,,,,,,,,,,,,,,,,,,,,,,,,,,,,,,,,,,,,,,,0,3,3,0,1,,,,,,,,,,,,,,,,,,,,,,,,,,,,,,,,,,,,,,,,,,,,,,
379787,001,2022-11-20_23h47.57.959,Info_measure_main_exp,2022.2.2,Win32,144.2169022,,,,,,,,,,,,,,,,,,masks/mask_002.jpg,,,,,,,,,,,,,,,,,,,,,,,,,,,,,,,,,,,,,,,,,,,0,4,4,1,1,,,,,,,,,,,,,,,,,,,,,,,,,,,,,,,,,,,,,,,,,,,,,,
379787,001,2022-11-20_23h47.57.959,Info_measure_main_exp,2022.2.2,Win32,144.2169022,,,,,,,,,,,,,,,,,,masks/mask_004.jpg,,,,,,,,,,,,,,,,,,,,,,,,,,,,,,,,,,,,,,,,,,,,,,,,0,0,0,3,1,,,,,,,,,,,,,,,,,,,,,,,,,,,,,,,,,,,,,,,,,
379787,001,2022-11-20_23h47.57.959,Info_measure_main_exp,2022.2.2,Win32,144.2169022,,,,,,,,,,,,,,,,,,masks/mask_001.jpg,,,,,,,,,,,,,,,,,,,,,,,,,,,,,,,,,,,,,,,,,,,,,,,,0,1,1,0,1,,,,,,,,,,,,,,,,,,,,,,,,,,,,,,,,,,,,,,,,,
379787,001,2022-11-20_23h47.57.959,Info_measure_main_exp,2022.2.2,Win32,144.2169022,,,,,,,,,,,,,,,,,,masks/mask_005.jpg,,,,,,,,,,,,,,,,,,,,,,,,,,,,,,,,,,,,,,,,,,,,,,,,0,2,2,4,1,,,,,,,,,,,,,,,,,,,,,,,,,,,,,,,,,,,,,,,,,
379787,001,2022-11-20_23h47.57.959,Info_measure_main_exp,2022.2.2,Win32,144.2169022,,,,,,,,,,,,,,,,,,masks/mask_003.jpg,,,,,,,,,,,,,,,,,,,,,,,,,,,,,,,,,,,,,,,,,,,,,,,,0,3,3,2,1,,,,,,,,,,,,,,,,,,,,,,,,,,,,,,,,,,,,,,,,,
379787,001,2022-11-20_23h47.57.959,Info_measure_main_exp,2022.2.2,Win32,144.2169022,,,,,,,,,,,,,,,,,,masks/mask_002.jpg,,,,,,,,,,,,,,,,,,,,,,,,,,,,,,,,,,,,,,,,,,,,,,,,0,4,4,1,1,,,,,,,,,,,,,,,,,,,,,,,,,,,,,,,,,,,,,,,,,
379787,001,2022-11-20_23h47.57.959,Info_measure_main_exp,2022.2.2,Win32,144.2169022,,,,,,,,,,,,,,,,,,,,,,,,,,,,,,7,0.3156,1,,,,,,,,,,,,1,131,5,5,1,2274,present_patch/cong_131_5_a.jpg,absent_patch/patch0002274.jpg,,,,,,,,,,,,,,,,,,,,0.042592593,0.136111111,1,0,0,response1disk,21,-0.001851852,0.007407407,1,0,0,center_square,0,20,20,105,1,,,,,,,,,,,,,,,,,,,,,,,
379787,001,2022-11-20_23h47.57.959,Info_measure_main_exp,2022.2.2,Win32,144.2169022,,,,,,,,,,,,,,,,,,masks/mask_001.jpg,,,,,,,,,,,,,,,,,,,,,,,,,,,,,,,,,,,,,,,,,,,0,0,0,0,1,,,,,,,,,,,,,,,,,,,,,,,,,,,,,,,,,,,,,,,,,,,,,,
379787,001,2022-11-20_23h47.57.959,Info_measure_main_exp,2022.2.2,Win32,144.2169022,,,,,,,,,,,,,,,,,,masks/mask_002.jpg,,,,,,,,,,,,,,,,,,,,,,,,,,,,,,,,,,,,,,,,,,,0,1,1,1,1,,,,,,,,,,,,,,,,,,,,,,,,,,,,,,,,,,,,,,,,,,,,,,
379787,001,2022-11-20_23h47.57.959,Info_measure_main_exp,2022.2.2,Win32,144.2169022,,,,,,,,,,,,,,,,,,masks/mask_004.jpg,,,,,,,,,,,,,,,,,,,,,,,,,,,,,,,,,,,,,,,,,,,0,2,2,3,1,,,,,,,,,,,,,,,,,,,,,,,,,,,,,,,,,,,,,,,,,,,,,,
379787,001,2022-11-20_23h47.57.959,Info_measure_main_exp,2022.2.2,Win32,144.2169022,,,,,,,,,,,,,,,,,,masks/mask_005.jpg,,,,,,,,,,,,,,,,,,,,,,,,,,,,,,,,,,,,,,,,,,,0,3,3,4,1,,,,,,,,,,,,,,,,,,,,,,,,,,,,,,,,,,,,,,,,,,,,,,
379787,001,2022-11-20_23h47.57.959,Info_measure_main_exp,2022.2.2,Win32,144.2169022,,,,,,,,,,,,,,,,,,masks/mask_003.jpg,,,,,,,,,,,,,,,,,,,,,,,,,,,,,,,,,,,,,,,,,,,0,4,4,2,1,,,,,,,,,,,,,,,,,,,,,,,,,,,,,,,,,,,,,,,,,,,,,,
379787,001,2022-11-20_23h47.57.959,Info_measure_main_exp,2022.2.2,Win32,144.2169022,,,,,,,,,,,,,,,,,,masks/mask_004.jpg,,,,,,,,,,,,,,,,,,,,,,,,,,,,,,,,,,,,,,,,,,,,,,,,0,0,0,3,1,,,,,,,,,,,,,,,,,,,,,,,,,,,,,,,,,,,,,,,,,
379787,001,2022-11-20_23h47.57.959,Info_measure_main_exp,2022.2.2,Win32,144.2169022,,,,,,,,,,,,,,,,,,masks/mask_001.jpg,,,,,,,,,,,,,,,,,,,,,,,,,,,,,,,,,,,,,,,,,,,,,,,,0,1,1,0,1,,,,,,,,,,,,,,,,,,,,,,,,,,,,,,,,,,,,,,,,,
379787,001,2022-11-20_23h47.57.959,Info_measure_main_exp,2022.2.2,Win32,144.2169022,,,,,,,,,,,,,,,,,,masks/mask_005.jpg,,,,,,,,,,,,,,,,,,,,,,,,,,,,,,,,,,,,,,,,,,,,,,,,0,2,2,4,1,,,,,,,,,,,,,,,,,,,,,,,,,,,,,,,,,,,,,,,,,
379787,001,2022-11-20_23h47.57.959,Info_measure_main_exp,2022.2.2,Win32,144.2169022,,,,,,,,,,,,,,,,,,masks/mask_003.jpg,,,,,,,,,,,,,,,,,,,,,,,,,,,,,,,,,,,,,,,,,,,,,,,,0,3,3,2,1,,,,,,,,,,,,,,,,,,,,,,,,,,,,,,,,,,,,,,,,,
379787,001,2022-11-20_23h47.57.959,Info_measure_main_exp,2022.2.2,Win32,144.2169022,,,,,,,,,,,,,,,,,,masks/mask_002.jpg,,,,,,,,,,,,,,,,,,,,,,,,,,,,,,,,,,,,,,,,,,,,,,,,0,4,4,1,1,,,,,,,,,,,,,,,,,,,,,,,,,,,,,,,,,,,,,,,,,
379787,001,2022-11-20_23h47.57.959,Info_measure_main_exp,2022.2.2,Win32,144.2169022,,,,,,,,,,,,,,,,,,,,,,,,,,,,,,0,0.4372,1,,,,,,,,,,,,0,131,5,5,1986,1986,absent_patch/patch0001986.jpg,absent_patch/patch0001986.jpg,,,,,,,,,,,,,,,,,,,,-0.038888889,0.130555556,1,0,0,response7disk,22,-0.00462963,0.008333333,1,0,0,center_square,0,21,21,19,1,,,,,,,,,,,,,,,,,,,,,,,
379787,001,2022-11-20_23h47.57.959,Info_measure_main_exp,2022.2.2,Win32,144.2169022,,,,,,,,,,,,,,,,,,masks/mask_002.jpg,,,,,,,,,,,,,,,,,,,,,,,,,,,,,,,,,,,,,,,,,,,0,0,0,1,1,,,,,,,,,,,,,,,,,,,,,,,,,,,,,,,,,,,,,,,,,,,,,,
379787,001,2022-11-20_23h47.57.959,Info_measure_main_exp,2022.2.2,Win32,144.2169022,,,,,,,,,,,,,,,,,,masks/mask_001.jpg,,,,,,,,,,,,,,,,,,,,,,,,,,,,,,,,,,,,,,,,,,,0,1,1,0,1,,,,,,,,,,,,,,,,,,,,,,,,,,,,,,,,,,,,,,,,,,,,,,
379787,001,2022-11-20_23h47.57.959,Info_measure_main_exp,2022.2.2,Win32,144.2169022,,,,,,,,,,,,,,,,,,masks/mask_003.jpg,,,,,,,,,,,,,,,,,,,,,,,,,,,,,,,,,,,,,,,,,,,0,2,2,2,1,,,,,,,,,,,,,,,,,,,,,,,,,,,,,,,,,,,,,,,,,,,,,,
379787,001,2022-11-20_23h47.57.959,Info_measure_main_exp,2022.2.2,Win32,144.2169022,,,,,,,,,,,,,,,,,,masks/mask_004.jpg,,,,,,,,,,,,,,,,,,,,,,,,,,,,,,,,,,,,,,,,,,,0,3,3,3,1,,,,,,,,,,,,,,,,,,,,,,,,,,,,,,,,,,,,,,,,,,,,,,
379787,001,2022-11-20_23h47.57.959,Info_measure_main_exp,2022.2.2,Win32,144.2169022,,,,,,,,,,,,,,,,,,masks/mask_005.jpg,,,,,,,,,,,,,,,,,,,,,,,,,,,,,,,,,,,,,,,,,,,0,4,4,4,1,,,,,,,,,,,,,,,,,,,,,,,,,,,,,,,,,,,,,,,,,,,,,,
379787,001,2022-11-20_23h47.57.959,Info_measure_main_exp,2022.2.2,Win32,144.2169022,,,,,,,,,,,,,,,,,,masks/mask_003.jpg,,,,,,,,,,,,,,,,,,,,,,,,,,,,,,,,,,,,,,,,,,,,,,,,0,0,0,2,1,,,,,,,,,,,,,,,,,,,,,,,,,,,,,,,,,,,,,,,,,
379787,001,2022-11-20_23h47.57.959,Info_measure_main_exp,2022.2.2,Win32,144.2169022,,,,,,,,,,,,,,,,,,masks/mask_001.jpg,,,,,,,,,,,,,,,,,,,,,,,,,,,,,,,,,,,,,,,,,,,,,,,,0,1,1,0,1,,,,,,,,,,,,,,,,,,,,,,,,,,,,,,,,,,,,,,,,,
379787,001,2022-11-20_23h47.57.959,Info_measure_main_exp,2022.2.2,Win32,144.2169022,,,,,,,,,,,,,,,,,,masks/mask_004.jpg,,,,,,,,,,,,,,,,,,,,,,,,,,,,,,,,,,,,,,,,,,,,,,,,0,2,2,3,1,,,,,,,,,,,,,,,,,,,,,,,,,,,,,,,,,,,,,,,,,
379787,001,2022-11-20_23h47.57.959,Info_measure_main_exp,2022.2.2,Win32,144.2169022,,,,,,,,,,,,,,,,,,masks/mask_005.jpg,,,,,,,,,,,,,,,,,,,,,,,,,,,,,,,,,,,,,,,,,,,,,,,,0,3,3,4,1,,,,,,,,,,,,,,,,,,,,,,,,,,,,,,,,,,,,,,,,,
379787,001,2022-11-20_23h47.57.959,Info_measure_main_exp,2022.2.2,Win32,144.2169022,,,,,,,,,,,,,,,,,,masks/mask_002.jpg,,,,,,,,,,,,,,,,,,,,,,,,,,,,,,,,,,,,,,,,,,,,,,,,0,4,4,1,1,,,,,,,,,,,,,,,,,,,,,,,,,,,,,,,,,,,,,,,,,
379787,001,2022-11-20_23h47.57.959,Info_measure_main_exp,2022.2.2,Win32,144.2169022,,,,,,,,,,,,,,,,,,,,,,,,,,,,,,7,1.8611,1,,,,,,,,,,,,0,131,5,5,2238,2166,absent_patch/patch0002238.jpg,absent_patch/patch0002166.jpg,,,,,,,,,,,,,,,,,,,,0.025925926,0.101851852,1,0,0,response1disk,23,0.005555556,0.00462963,1,0,0,center_square,0,22,22,118,1,,,,,,,,,,,,,,,,,,,,,,,
379787,001,2022-11-20_23h47.57.959,Info_measure_main_exp,2022.2.2,Win32,144.2169022,,,,,,,,,,,,,,,,,,masks/mask_001.jpg,,,,,,,,,,,,,,,,,,,,,,,,,,,,,,,,,,,,,,,,,,,0,0,0,0,1,,,,,,,,,,,,,,,,,,,,,,,,,,,,,,,,,,,,,,,,,,,,,,
379787,001,2022-11-20_23h47.57.959,Info_measure_main_exp,2022.2.2,Win32,144.2169022,,,,,,,,,,,,,,,,,,masks/mask_005.jpg,,,,,,,,,,,,,,,,,,,,,,,,,,,,,,,,,,,,,,,,,,,0,1,1,4,1,,,,,,,,,,,,,,,,,,,,,,,,,,,,,,,,,,,,,,,,,,,,,,
379787,001,2022-11-20_23h47.57.959,Info_measure_main_exp,2022.2.2,Win32,144.2169022,,,,,,,,,,,,,,,,,,masks/mask_002.jpg,,,,,,,,,,,,,,,,,,,,,,,,,,,,,,,,,,,,,,,,,,,0,2,2,1,1,,,,,,,,,,,,,,,,,,,,,,,,,,,,,,,,,,,,,,,,,,,,,,
379787,001,2022-11-20_23h47.57.959,Info_measure_main_exp,2022.2.2,Win32,144.2169022,,,,,,,,,,,,,,,,,,masks/mask_004.jpg,,,,,,,,,,,,,,,,,,,,,,,,,,,,,,,,,,,,,,,,,,,0,3,3,3,1,,,,,,,,,,,,,,,,,,,,,,,,,,,,,,,,,,,,,,,,,,,,,,
379787,001,2022-11-20_23h47.57.959,Info_measure_main_exp,2022.2.2,Win32,144.2169022,,,,,,,,,,,,,,,,,,masks/mask_003.jpg,,,,,,,,,,,,,,,,,,,,,,,,,,,,,,,,,,,,,,,,,,,0,4,4,2,1,,,,,,,,,,,,,,,,,,,,,,,,,,,,,,,,,,,,,,,,,,,,,,
379787,001,2022-11-20_23h47.57.959,Info_measure_main_exp,2022.2.2,Win32,144.2169022,,,,,,,,,,,,,,,,,,masks/mask_003.jpg,,,,,,,,,,,,,,,,,,,,,,,,,,,,,,,,,,,,,,,,,,,,,,,,0,0,0,2,1,,,,,,,,,,,,,,,,,,,,,,,,,,,,,,,,,,,,,,,,,
379787,001,2022-11-20_23h47.57.959,Info_measure_main_exp,2022.2.2,Win32,144.2169022,,,,,,,,,,,,,,,,,,masks/mask_004.jpg,,,,,,,,,,,,,,,,,,,,,,,,,,,,,,,,,,,,,,,,,,,,,,,,0,1,1,3,1,,,,,,,,,,,,,,,,,,,,,,,,,,,,,,,,,,,,,,,,,
379787,001,2022-11-20_23h47.57.959,Info_measure_main_exp,2022.2.2,Win32,144.2169022,,,,,,,,,,,,,,,,,,masks/mask_002.jpg,,,,,,,,,,,,,,,,,,,,,,,,,,,,,,,,,,,,,,,,,,,,,,,,0,2,2,1,1,,,,,,,,,,,,,,,,,,,,,,,,,,,,,,,,,,,,,,,,,
379787,001,2022-11-20_23h47.57.959,Info_measure_main_exp,2022.2.2,Win32,144.2169022,,,,,,,,,,,,,,,,,,masks/mask_001.jpg,,,,,,,,,,,,,,,,,,,,,,,,,,,,,,,,,,,,,,,,,,,,,,,,0,3,3,0,1,,,,,,,,,,,,,,,,,,,,,,,,,,,,,,,,,,,,,,,,,
379787,001,2022-11-20_23h47.57.959,Info_measure_main_exp,2022.2.2,Win32,144.2169022,,,,,,,,,,,,,,,,,,masks/mask_005.jpg,,,,,,,,,,,,,,,,,,,,,,,,,,,,,,,,,,,,,,,,,,,,,,,,0,4,4,4,1,,,,,,,,,,,,,,,,,,,,,,,,,,,,,,,,,,,,,,,,,
379787,001,2022-11-20_23h47.57.959,Info_measure_main_exp,2022.2.2,Win32,144.2169022,,,,,,,,,,,,,,,,,,,,,,,,,,,,,,7,0.736,1,,,,,,,,,,,,0,131,5,5,2298,2214,absent_patch/patch0002298.jpg,absent_patch/patch0002214.jpg,,,,,,,,,,,,,,,,,,,,0.040740741,0.107407407,1,0,0,response1disk,24,0.009259259,0.005555556,1,0,0,center_square,0,23,23,99,1,,,,,,,,,,,,,,,,,,,,,,,
379787,001,2022-11-20_23h47.57.959,Info_measure_main_exp,2022.2.2,Win32,144.2169022,,,,,,,,,,,,,,,,,,masks/mask_001.jpg,,,,,,,,,,,,,,,,,,,,,,,,,,,,,,,,,,,,,,,,,,,0,0,0,0,1,,,,,,,,,,,,,,,,,,,,,,,,,,,,,,,,,,,,,,,,,,,,,,
379787,001,2022-11-20_23h47.57.959,Info_measure_main_exp,2022.2.2,Win32,144.2169022,,,,,,,,,,,,,,,,,,masks/mask_003.jpg,,,,,,,,,,,,,,,,,,,,,,,,,,,,,,,,,,,,,,,,,,,0,1,1,2,1,,,,,,,,,,,,,,,,,,,,,,,,,,,,,,,,,,,,,,,,,,,,,,
379787,001,2022-11-20_23h47.57.959,Info_measure_main_exp,2022.2.2,Win32,144.2169022,,,,,,,,,,,,,,,,,,masks/mask_005.jpg,,,,,,,,,,,,,,,,,,,,,,,,,,,,,,,,,,,,,,,,,,,0,2,2,4,1,,,,,,,,,,,,,,,,,,,,,,,,,,,,,,,,,,,,,,,,,,,,,,
379787,001,2022-11-20_23h47.57.959,Info_measure_main_exp,2022.2.2,Win32,144.2169022,,,,,,,,,,,,,,,,,,masks/mask_002.jpg,,,,,,,,,,,,,,,,,,,,,,,,,,,,,,,,,,,,,,,,,,,0,3,3,1,1,,,,,,,,,,,,,,,,,,,,,,,,,,,,,,,,,,,,,,,,,,,,,,
379787,001,2022-11-20_23h47.57.959,Info_measure_main_exp,2022.2.2,Win32,144.2169022,,,,,,,,,,,,,,,,,,masks/mask_004.jpg,,,,,,,,,,,,,,,,,,,,,,,,,,,,,,,,,,,,,,,,,,,0,4,4,3,1,,,,,,,,,,,,,,,,,,,,,,,,,,,,,,,,,,,,,,,,,,,,,,
379787,001,2022-11-20_23h47.57.959,Info_measure_main_exp,2022.2.2,Win32,144.2169022,,,,,,,,,,,,,,,,,,masks/mask_003.jpg,,,,,,,,,,,,,,,,,,,,,,,,,,,,,,,,,,,,,,,,,,,,,,,,0,0,0,2,1,,,,,,,,,,,,,,,,,,,,,,,,,,,,,,,,,,,,,,,,,
379787,001,2022-11-20_23h47.57.959,Info_measure_main_exp,2022.2.2,Win32,144.2169022,,,,,,,,,,,,,,,,,,masks/mask_001.jpg,,,,,,,,,,,,,,,,,,,,,,,,,,,,,,,,,,,,,,,,,,,,,,,,0,1,1,0,1,,,,,,,,,,,,,,,,,,,,,,,,,,,,,,,,,,,,,,,,,
379787,001,2022-11-20_23h47.57.959,Info_measure_main_exp,2022.2.2,Win32,144.2169022,,,,,,,,,,,,,,,,,,masks/mask_004.jpg,,,,,,,,,,,,,,,,,,,,,,,,,,,,,,,,,,,,,,,,,,,,,,,,0,2,2,3,1,,,,,,,,,,,,,,,,,,,,,,,,,,,,,,,,,,,,,,,,,
379787,001,2022-11-20_23h47.57.959,Info_measure_main_exp,2022.2.2,Win32,144.2169022,,,,,,,,,,,,,,,,,,masks/mask_002.jpg,,,,,,,,,,,,,,,,,,,,,,,,,,,,,,,,,,,,,,,,,,,,,,,,0,3,3,1,1,,,,,,,,,,,,,,,,,,,,,,,,,,,,,,,,,,,,,,,,,
379787,001,2022-11-20_23h47.57.959,Info_measure_main_exp,2022.2.2,Win32,144.2169022,,,,,,,,,,,,,,,,,,masks/mask_005.jpg,,,,,,,,,,,,,,,,,,,,,,,,,,,,,,,,,,,,,,,,,,,,,,,,0,4,4,4,1,,,,,,,,,,,,,,,,,,,,,,,,,,,,,,,,,,,,,,,,,
379787,001,2022-11-20_23h47.57.959,Info_measure_main_exp,2022.2.2,Win32,144.2169022,,,,,,,,,,,,,,,,,,,,,,,,,,,,,,0,0.3955,1,,,,,,,,,,,,0,131,5,5,2274,2274,absent_patch/patch0002274.jpg,absent_patch/patch0002274.jpg,,,,,,,,,,,,,,,,,,,,-0.040740741,0.138888889,1,0,0,response7disk,25,-0.006481481,0.007407407,1,0,0,center_square,0,24,24,114,1,,,,,,,,,,,,,,,,,,,,,,,
379787,001,2022-11-20_23h47.57.959,Info_measure_main_exp,2022.2.2,Win32,144.2169022,,,,,,,,,,,,,,,,,,masks/mask_004.jpg,,,,,,,,,,,,,,,,,,,,,,,,,,,,,,,,,,,,,,,,,,,0,0,0,3,1,,,,,,,,,,,,,,,,,,,,,,,,,,,,,,,,,,,,,,,,,,,,,,
379787,001,2022-11-20_23h47.57.959,Info_measure_main_exp,2022.2.2,Win32,144.2169022,,,,,,,,,,,,,,,,,,masks/mask_003.jpg,,,,,,,,,,,,,,,,,,,,,,,,,,,,,,,,,,,,,,,,,,,0,1,1,2,1,,,,,,,,,,,,,,,,,,,,,,,,,,,,,,,,,,,,,,,,,,,,,,
379787,001,2022-11-20_23h47.57.959,Info_measure_main_exp,2022.2.2,Win32,144.2169022,,,,,,,,,,,,,,,,,,masks/mask_005.jpg,,,,,,,,,,,,,,,,,,,,,,,,,,,,,,,,,,,,,,,,,,,0,2,2,4,1,,,,,,,,,,,,,,,,,,,,,,,,,,,,,,,,,,,,,,,,,,,,,,
379787,001,2022-11-20_23h47.57.959,Info_measure_main_exp,2022.2.2,Win32,144.2169022,,,,,,,,,,,,,,,,,,masks/mask_001.jpg,,,,,,,,,,,,,,,,,,,,,,,,,,,,,,,,,,,,,,,,,,,0,3,3,0,1,,,,,,,,,,,,,,,,,,,,,,,,,,,,,,,,,,,,,,,,,,,,,,
379787,001,2022-11-20_23h47.57.959,Info_measure_main_exp,2022.2.2,Win32,144.2169022,,,,,,,,,,,,,,,,,,masks/mask_002.jpg,,,,,,,,,,,,,,,,,,,,,,,,,,,,,,,,,,,,,,,,,,,0,4,4,1,1,,,,,,,,,,,,,,,,,,,,,,,,,,,,,,,,,,,,,,,,,,,,,,
379787,001,2022-11-20_23h47.57.959,Info_measure_main_exp,2022.2.2,Win32,144.2169022,,,,,,,,,,,,,,,,,,masks/mask_003.jpg,,,,,,,,,,,,,,,,,,,,,,,,,,,,,,,,,,,,,,,,,,,,,,,,0,0,0,2,1,,,,,,,,,,,,,,,,,,,,,,,,,,,,,,,,,,,,,,,,,
379787,001,2022-11-20_23h47.57.959,Info_measure_main_exp,2022.2.2,Win32,144.2169022,,,,,,,,,,,,,,,,,,masks/mask_005.jpg,,,,,,,,,,,,,,,,,,,,,,,,,,,,,,,,,,,,,,,,,,,,,,,,0,1,1,4,1,,,,,,,,,,,,,,,,,,,,,,,,,,,,,,,,,,,,,,,,,
379787,001,2022-11-20_23h47.57.959,Info_measure_main_exp,2022.2.2,Win32,144.2169022,,,,,,,,,,,,,,,,,,masks/mask_004.jpg,,,,,,,,,,,,,,,,,,,,,,,,,,,,,,,,,,,,,,,,,,,,,,,,0,2,2,3,1,,,,,,,,,,,,,,,,,,,,,,,,,,,,,,,,,,,,,,,,,
379787,001,2022-11-20_23h47.57.959,Info_measure_main_exp,2022.2.2,Win32,144.2169022,,,,,,,,,,,,,,,,,,masks/mask_001.jpg,,,,,,,,,,,,,,,,,,,,,,,,,,,,,,,,,,,,,,,,,,,,,,,,0,3,3,0,1,,,,,,,,,,,,,,,,,,,,,,,,,,,,,,,,,,,,,,,,,
379787,001,2022-11-20_23h47.57.959,Info_measure_main_exp,2022.2.2,Win32,144.2169022,,,,,,,,,,,,,,,,,,masks/mask_002.jpg,,,,,,,,,,,,,,,,,,,,,,,,,,,,,,,,,,,,,,,,,,,,,,,,0,4,4,1,1,,,,,,,,,,,,,,,,,,,,,,,,,,,,,,,,,,,,,,,,,
379787,001,2022-11-20_23h47.57.959,Info_measure_main_exp,2022.2.2,Win32,144.2169022,,,,,,,,,,,,,,,,,,,,,,,,,,,,,,0,0.3777,1,,,,,,,,,,,,0,131,5,5,2298,2298,absent_patch/patch0002298.jpg,absent_patch/patch0002298.jpg,,,,,,,,,,,,,,,,,,,,-0.058333333,0.12037037,1,0,0,response7disk,26,-0.010185185,0.007407407,1,0,0,center_square,0,25,25,37,1,,,,,,,,,,,,,,,,,,,,,,,
379787,001,2022-11-20_23h47.57.959,Info_measure_main_exp,2022.2.2,Win32,144.2169022,,,,,,,,,,,,,,,,,,masks/mask_001.jpg,,,,,,,,,,,,,,,,,,,,,,,,,,,,,,,,,,,,,,,,,,,0,0,0,0,1,,,,,,,,,,,,,,,,,,,,,,,,,,,,,,,,,,,,,,,,,,,,,,
379787,001,2022-11-20_23h47.57.959,Info_measure_main_exp,2022.2.2,Win32,144.2169022,,,,,,,,,,,,,,,,,,masks/mask_004.jpg,,,,,,,,,,,,,,,,,,,,,,,,,,,,,,,,,,,,,,,,,,,0,1,1,3,1,,,,,,,,,,,,,,,,,,,,,,,,,,,,,,,,,,,,,,,,,,,,,,
379787,001,2022-11-20_23h47.57.959,Info_measure_main_exp,2022.2.2,Win32,144.2169022,,,,,,,,,,,,,,,,,,masks/mask_003.jpg,,,,,,,,,,,,,,,,,,,,,,,,,,,,,,,,,,,,,,,,,,,0,2,2,2,1,,,,,,,,,,,,,,,,,,,,,,,,,,,,,,,,,,,,,,,,,,,,,,
379787,001,2022-11-20_23h47.57.959,Info_measure_main_exp,2022.2.2,Win32,144.2169022,,,,,,,,,,,,,,,,,,masks/mask_002.jpg,,,,,,,,,,,,,,,,,,,,,,,,,,,,,,,,,,,,,,,,,,,0,3,3,1,1,,,,,,,,,,,,,,,,,,,,,,,,,,,,,,,,,,,,,,,,,,,,,,
379787,001,2022-11-20_23h47.57.959,Info_measure_main_exp,2022.2.2,Win32,144.2169022,,,,,,,,,,,,,,,,,,masks/mask_005.jpg,,,,,,,,,,,,,,,,,,,,,,,,,,,,,,,,,,,,,,,,,,,0,4,4,4,1,,,,,,,,,,,,,,,,,,,,,,,,,,,,,,,,,,,,,,,,,,,,,,
379787,001,2022-11-20_23h47.57.959,Info_measure_main_exp,2022.2.2,Win32,144.2169022,,,,,,,,,,,,,,,,,,masks/mask_005.jpg,,,,,,,,,,,,,,,,,,,,,,,,,,,,,,,,,,,,,,,,,,,,,,,,0,0,0,4,1,,,,,,,,,,,,,,,,,,,,,,,,,,,,,,,,,,,,,,,,,
379787,001,2022-11-20_23h47.57.959,Info_measure_main_exp,2022.2.2,Win32,144.2169022,,,,,,,,,,,,,,,,,,masks/mask_003.jpg,,,,,,,,,,,,,,,,,,,,,,,,,,,,,,,,,,,,,,,,,,,,,,,,0,1,1,2,1,,,,,,,,,,,,,,,,,,,,,,,,,,,,,,,,,,,,,,,,,
379787,001,2022-11-20_23h47.57.959,Info_measure_main_exp,2022.2.2,Win32,144.2169022,,,,,,,,,,,,,,,,,,masks/mask_001.jpg,,,,,,,,,,,,,,,,,,,,,,,,,,,,,,,,,,,,,,,,,,,,,,,,0,2,2,0,1,,,,,,,,,,,,,,,,,,,,,,,,,,,,,,,,,,,,,,,,,
379787,001,2022-11-20_23h47.57.959,Info_measure_main_exp,2022.2.2,Win32,144.2169022,,,,,,,,,,,,,,,,,,masks/mask_002.jpg,,,,,,,,,,,,,,,,,,,,,,,,,,,,,,,,,,,,,,,,,,,,,,,,0,3,3,1,1,,,,,,,,,,,,,,,,,,,,,,,,,,,,,,,,,,,,,,,,,
379787,001,2022-11-20_23h47.57.959,Info_measure_main_exp,2022.2.2,Win32,144.2169022,,,,,,,,,,,,,,,,,,masks/mask_004.jpg,,,,,,,,,,,,,,,,,,,,,,,,,,,,,,,,,,,,,,,,,,,,,,,,0,4,4,3,1,,,,,,,,,,,,,,,,,,,,,,,,,,,,,,,,,,,,,,,,,
379787,001,2022-11-20_23h47.57.959,Info_measure_main_exp,2022.2.2,Win32,144.2169022,,,,,,,,,,,,,,,,,,,,,,,,,,,,,,7,0.9166,1,,,,,,,,,,,,0,131,5,5,2250,1986,absent_patch/patch0002250.jpg,absent_patch/patch0001986.jpg,,,,,,,,,,,,,,,,,,,,0.047222222,0.140740741,1,0,0,response1disk,27,0.010185185,0.010185185,1,0,0,center_square,0,26,26,29,1,,,,,,,,,,,,,,,,,,,,,,,
379787,001,2022-11-20_23h47.57.959,Info_measure_main_exp,2022.2.2,Win32,144.2169022,,,,,,,,,,,,,,,,,,masks/mask_003.jpg,,,,,,,,,,,,,,,,,,,,,,,,,,,,,,,,,,,,,,,,,,,0,0,0,2,1,,,,,,,,,,,,,,,,,,,,,,,,,,,,,,,,,,,,,,,,,,,,,,
379787,001,2022-11-20_23h47.57.959,Info_measure_main_exp,2022.2.2,Win32,144.2169022,,,,,,,,,,,,,,,,,,masks/mask_005.jpg,,,,,,,,,,,,,,,,,,,,,,,,,,,,,,,,,,,,,,,,,,,0,1,1,4,1,,,,,,,,,,,,,,,,,,,,,,,,,,,,,,,,,,,,,,,,,,,,,,
379787,001,2022-11-20_23h47.57.959,Info_measure_main_exp,2022.2.2,Win32,144.2169022,,,,,,,,,,,,,,,,,,masks/mask_001.jpg,,,,,,,,,,,,,,,,,,,,,,,,,,,,,,,,,,,,,,,,,,,0,2,2,0,1,,,,,,,,,,,,,,,,,,,,,,,,,,,,,,,,,,,,,,,,,,,,,,
379787,001,2022-11-20_23h47.57.959,Info_measure_main_exp,2022.2.2,Win32,144.2169022,,,,,,,,,,,,,,,,,,masks/mask_002.jpg,,,,,,,,,,,,,,,,,,,,,,,,,,,,,,,,,,,,,,,,,,,0,3,3,1,1,,,,,,,,,,,,,,,,,,,,,,,,,,,,,,,,,,,,,,,,,,,,,,
379787,001,2022-11-20_23h47.57.959,Info_measure_main_exp,2022.2.2,Win32,144.2169022,,,,,,,,,,,,,,,,,,masks/mask_004.jpg,,,,,,,,,,,,,,,,,,,,,,,,,,,,,,,,,,,,,,,,,,,0,4,4,3,1,,,,,,,,,,,,,,,,,,,,,,,,,,,,,,,,,,,,,,,,,,,,,,
379787,001,2022-11-20_23h47.57.959,Info_measure_main_exp,2022.2.2,Win32,144.2169022,,,,,,,,,,,,,,,,,,masks/mask_004.jpg,,,,,,,,,,,,,,,,,,,,,,,,,,,,,,,,,,,,,,,,,,,,,,,,0,0,0,3,1,,,,,,,,,,,,,,,,,,,,,,,,,,,,,,,,,,,,,,,,,
379787,001,2022-11-20_23h47.57.959,Info_measure_main_exp,2022.2.2,Win32,144.2169022,,,,,,,,,,,,,,,,,,masks/mask_005.jpg,,,,,,,,,,,,,,,,,,,,,,,,,,,,,,,,,,,,,,,,,,,,,,,,0,1,1,4,1,,,,,,,,,,,,,,,,,,,,,,,,,,,,,,,,,,,,,,,,,
379787,001,2022-11-20_23h47.57.959,Info_measure_main_exp,2022.2.2,Win32,144.2169022,,,,,,,,,,,,,,,,,,masks/mask_003.jpg,,,,,,,,,,,,,,,,,,,,,,,,,,,,,,,,,,,,,,,,,,,,,,,,0,2,2,2,1,,,,,,,,,,,,,,,,,,,,,,,,,,,,,,,,,,,,,,,,,
379787,001,2022-11-20_23h47.57.959,Info_measure_main_exp,2022.2.2,Win32,144.2169022,,,,,,,,,,,,,,,,,,masks/mask_002.jpg,,,,,,,,,,,,,,,,,,,,,,,,,,,,,,,,,,,,,,,,,,,,,,,,0,3,3,1,1,,,,,,,,,,,,,,,,,,,,,,,,,,,,,,,,,,,,,,,,,
379787,001,2022-11-20_23h47.57.959,Info_measure_main_exp,2022.2.2,Win32,144.2169022,,,,,,,,,,,,,,,,,,masks/mask_001.jpg,,,,,,,,,,,,,,,,,,,,,,,,,,,,,,,,,,,,,,,,,,,,,,,,0,4,4,0,1,,,,,,,,,,,,,,,,,,,,,,,,,,,,,,,,,,,,,,,,,
379787,001,2022-11-20_23h47.57.959,Info_measure_main_exp,2022.2.2,Win32,144.2169022,,,,,,,,,,,,,,,,,,,,,,,,,,,,,,7,0.4333,1,,,,,,,,,,,,0,131,5,5,1974,2214,absent_patch/patch0001974.jpg,absent_patch/patch0002214.jpg,,,,,,,,,,,,,,,,,,,,0.034259259,0.108333333,1,0,0,response1disk,28,-0.003703704,0.005555556,1,0,0,center_square,0,27,27,24,1,,,,,,,,,,,,,,,,,,,,,,,
379787,001,2022-11-20_23h47.57.959,Info_measure_main_exp,2022.2.2,Win32,144.2169022,,,,,,,,,,,,,,,,,,masks/mask_004.jpg,,,,,,,,,,,,,,,,,,,,,,,,,,,,,,,,,,,,,,,,,,,0,0,0,3,1,,,,,,,,,,,,,,,,,,,,,,,,,,,,,,,,,,,,,,,,,,,,,,
379787,001,2022-11-20_23h47.57.959,Info_measure_main_exp,2022.2.2,Win32,144.2169022,,,,,,,,,,,,,,,,,,masks/mask_003.jpg,,,,,,,,,,,,,,,,,,,,,,,,,,,,,,,,,,,,,,,,,,,0,1,1,2,1,,,,,,,,,,,,,,,,,,,,,,,,,,,,,,,,,,,,,,,,,,,,,,
379787,001,2022-11-20_23h47.57.959,Info_measure_main_exp,2022.2.2,Win32,144.2169022,,,,,,,,,,,,,,,,,,masks/mask_002.jpg,,,,,,,,,,,,,,,,,,,,,,,,,,,,,,,,,,,,,,,,,,,0,2,2,1,1,,,,,,,,,,,,,,,,,,,,,,,,,,,,,,,,,,,,,,,,,,,,,,
379787,001,2022-11-20_23h47.57.959,Info_measure_main_exp,2022.2.2,Win32,144.2169022,,,,,,,,,,,,,,,,,,masks/mask_001.jpg,,,,,,,,,,,,,,,,,,,,,,,,,,,,,,,,,,,,,,,,,,,0,3,3,0,1,,,,,,,,,,,,,,,,,,,,,,,,,,,,,,,,,,,,,,,,,,,,,,
379787,001,2022-11-20_23h47.57.959,Info_measure_main_exp,2022.2.2,Win32,144.2169022,,,,,,,,,,,,,,,,,,masks/mask_005.jpg,,,,,,,,,,,,,,,,,,,,,,,,,,,,,,,,,,,,,,,,,,,0,4,4,4,1,,,,,,,,,,,,,,,,,,,,,,,,,,,,,,,,,,,,,,,,,,,,,,
379787,001,2022-11-20_23h47.57.959,Info_measure_main_exp,2022.2.2,Win32,144.2169022,,,,,,,,,,,,,,,,,,masks/mask_001.jpg,,,,,,,,,,,,,,,,,,,,,,,,,,,,,,,,,,,,,,,,,,,,,,,,0,0,0,0,1,,,,,,,,,,,,,,,,,,,,,,,,,,,,,,,,,,,,,,,,,
379787,001,2022-11-20_23h47.57.959,Info_measure_main_exp,2022.2.2,Win32,144.2169022,,,,,,,,,,,,,,,,,,masks/mask_003.jpg,,,,,,,,,,,,,,,,,,,,,,,,,,,,,,,,,,,,,,,,,,,,,,,,0,1,1,2,1,,,,,,,,,,,,,,,,,,,,,,,,,,,,,,,,,,,,,,,,,
379787,001,2022-11-20_23h47.57.959,Info_measure_main_exp,2022.2.2,Win32,144.2169022,,,,,,,,,,,,,,,,,,masks/mask_004.jpg,,,,,,,,,,,,,,,,,,,,,,,,,,,,,,,,,,,,,,,,,,,,,,,,0,2,2,3,1,,,,,,,,,,,,,,,,,,,,,,,,,,,,,,,,,,,,,,,,,
379787,001,2022-11-20_23h47.57.959,Info_measure_main_exp,2022.2.2,Win32,144.2169022,,,,,,,,,,,,,,,,,,masks/mask_005.jpg,,,,,,,,,,,,,,,,,,,,,,,,,,,,,,,,,,,,,,,,,,,,,,,,0,3,3,4,1,,,,,,,,,,,,,,,,,,,,,,,,,,,,,,,,,,,,,,,,,
379787,001,2022-11-20_23h47.57.959,Info_measure_main_exp,2022.2.2,Win32,144.2169022,,,,,,,,,,,,,,,,,,masks/mask_002.jpg,,,,,,,,,,,,,,,,,,,,,,,,,,,,,,,,,,,,,,,,,,,,,,,,0,4,4,1,1,,,,,,,,,,,,,,,,,,,,,,,,,,,,,,,,,,,,,,,,,
379787,001,2022-11-20_23h47.57.959,Info_measure_main_exp,2022.2.2,Win32,144.2169022,,,,,,,,,,,,,,,,,,,,,,,,,,,,,,7,0.4034,1,,,,,,,,,,,,0,131,5,5,2274,2142,absent_patch/patch0002274.jpg,absent_patch/patch0002142.jpg,,,,,,,,,,,,,,,,,,,,0.02962963,0.119444444,1,0,0,response1disk,29,0.000925926,0.010185185,1,0,0,center_square,0,28,28,75,1,,,,,,,,,,,,,,,,,,,,,,,
379787,001,2022-11-20_23h47.57.959,Info_measure_main_exp,2022.2.2,Win32,144.2169022,,,,,,,,,,,,,,,,,,masks/mask_004.jpg,,,,,,,,,,,,,,,,,,,,,,,,,,,,,,,,,,,,,,,,,,,0,0,0,3,1,,,,,,,,,,,,,,,,,,,,,,,,,,,,,,,,,,,,,,,,,,,,,,
379787,001,2022-11-20_23h47.57.959,Info_measure_main_exp,2022.2.2,Win32,144.2169022,,,,,,,,,,,,,,,,,,masks/mask_001.jpg,,,,,,,,,,,,,,,,,,,,,,,,,,,,,,,,,,,,,,,,,,,0,1,1,0,1,,,,,,,,,,,,,,,,,,,,,,,,,,,,,,,,,,,,,,,,,,,,,,
379787,001,2022-11-20_23h47.57.959,Info_measure_main_exp,2022.2.2,Win32,144.2169022,,,,,,,,,,,,,,,,,,masks/mask_002.jpg,,,,,,,,,,,,,,,,,,,,,,,,,,,,,,,,,,,,,,,,,,,0,2,2,1,1,,,,,,,,,,,,,,,,,,,,,,,,,,,,,,,,,,,,,,,,,,,,,,
379787,001,2022-11-20_23h47.57.959,Info_measure_main_exp,2022.2.2,Win32,144.2169022,,,,,,,,,,,,,,,,,,masks/mask_003.jpg,,,,,,,,,,,,,,,,,,,,,,,,,,,,,,,,,,,,,,,,,,,0,3,3,2,1,,,,,,,,,,,,,,,,,,,,,,,,,,,,,,,,,,,,,,,,,,,,,,
379787,001,2022-11-20_23h47.57.959,Info_measure_main_exp,2022.2.2,Win32,144.2169022,,,,,,,,,,,,,,,,,,masks/mask_005.jpg,,,,,,,,,,,,,,,,,,,,,,,,,,,,,,,,,,,,,,,,,,,0,4,4,4,1,,,,,,,,,,,,,,,,,,,,,,,,,,,,,,,,,,,,,,,,,,,,,,
379787,001,2022-11-20_23h47.57.959,Info_measure_main_exp,2022.2.2,Win32,144.2169022,,,,,,,,,,,,,,,,,,masks/mask_005.jpg,,,,,,,,,,,,,,,,,,,,,,,,,,,,,,,,,,,,,,,,,,,,,,,,0,0,0,4,1,,,,,,,,,,,,,,,,,,,,,,,,,,,,,,,,,,,,,,,,,
379787,001,2022-11-20_23h47.57.959,Info_measure_main_exp,2022.2.2,Win32,144.2169022,,,,,,,,,,,,,,,,,,masks/mask_004.jpg,,,,,,,,,,,,,,,,,,,,,,,,,,,,,,,,,,,,,,,,,,,,,,,,0,1,1,3,1,,,,,,,,,,,,,,,,,,,,,,,,,,,,,,,,,,,,,,,,,
379787,001,2022-11-20_23h47.57.959,Info_measure_main_exp,2022.2.2,Win32,144.2169022,,,,,,,,,,,,,,,,,,masks/mask_003.jpg,,,,,,,,,,,,,,,,,,,,,,,,,,,,,,,,,,,,,,,,,,,,,,,,0,2,2,2,1,,,,,,,,,,,,,,,,,,,,,,,,,,,,,,,,,,,,,,,,,
379787,001,2022-11-20_23h47.57.959,Info_measure_main_exp,2022.2.2,Win32,144.2169022,,,,,,,,,,,,,,,,,,masks/mask_001.jpg,,,,,,,,,,,,,,,,,,,,,,,,,,,,,,,,,,,,,,,,,,,,,,,,0,3,3,0,1,,,,,,,,,,,,,,,,,,,,,,,,,,,,,,,,,,,,,,,,,
379787,001,2022-11-20_23h47.57.959,Info_measure_main_exp,2022.2.2,Win32,144.2169022,,,,,,,,,,,,,,,,,,masks/mask_002.jpg,,,,,,,,,,,,,,,,,,,,,,,,,,,,,,,,,,,,,,,,,,,,,,,,0,4,4,1,1,,,,,,,,,,,,,,,,,,,,,,,,,,,,,,,,,,,,,,,,,
379787,001,2022-11-20_23h47.57.959,Info_measure_main_exp,2022.2.2,Win32,144.2169022,,,,,,,,,,,,,,,,,,,,,,,,,,,,,,7,0.6697,1,,,,,,,,,,,,1,131,5,5,2250,1,absent_patch/patch0002250.jpg,present_patch/cong_131_5_a.jpg,,,,,,,,,,,,,,,,,,,,0.023148148,0.101851852,1,0,0,response1disk,30,-0.001851852,0.001851852,1,0,0,center_square,0,29,29,5,1,,,,,,,,,,,,,,,,,,,,,,,
379787,001,2022-11-20_23h47.57.959,Info_measure_main_exp,2022.2.2,Win32,144.2169022,,,,,,,,,,,,,,,,,,masks/mask_003.jpg,,,,,,,,,,,,,,,,,,,,,,,,,,,,,,,,,,,,,,,,,,,0,0,0,2,1,,,,,,,,,,,,,,,,,,,,,,,,,,,,,,,,,,,,,,,,,,,,,,
379787,001,2022-11-20_23h47.57.959,Info_measure_main_exp,2022.2.2,Win32,144.2169022,,,,,,,,,,,,,,,,,,masks/mask_002.jpg,,,,,,,,,,,,,,,,,,,,,,,,,,,,,,,,,,,,,,,,,,,0,1,1,1,1,,,,,,,,,,,,,,,,,,,,,,,,,,,,,,,,,,,,,,,,,,,,,,
379787,001,2022-11-20_23h47.57.959,Info_measure_main_exp,2022.2.2,Win32,144.2169022,,,,,,,,,,,,,,,,,,masks/mask_005.jpg,,,,,,,,,,,,,,,,,,,,,,,,,,,,,,,,,,,,,,,,,,,0,2,2,4,1,,,,,,,,,,,,,,,,,,,,,,,,,,,,,,,,,,,,,,,,,,,,,,
379787,001,2022-11-20_23h47.57.959,Info_measure_main_exp,2022.2.2,Win32,144.2169022,,,,,,,,,,,,,,,,,,masks/mask_004.jpg,,,,,,,,,,,,,,,,,,,,,,,,,,,,,,,,,,,,,,,,,,,0,3,3,3,1,,,,,,,,,,,,,,,,,,,,,,,,,,,,,,,,,,,,,,,,,,,,,,
379787,001,2022-11-20_23h47.57.959,Info_measure_main_exp,2022.2.2,Win32,144.2169022,,,,,,,,,,,,,,,,,,masks/mask_001.jpg,,,,,,,,,,,,,,,,,,,,,,,,,,,,,,,,,,,,,,,,,,,0,4,4,0,1,,,,,,,,,,,,,,,,,,,,,,,,,,,,,,,,,,,,,,,,,,,,,,
379787,001,2022-11-20_23h47.57.959,Info_measure_main_exp,2022.2.2,Win32,144.2169022,,,,,,,,,,,,,,,,,,masks/mask_002.jpg,,,,,,,,,,,,,,,,,,,,,,,,,,,,,,,,,,,,,,,,,,,,,,,,0,0,0,1,1,,,,,,,,,,,,,,,,,,,,,,,,,,,,,,,,,,,,,,,,,
379787,001,2022-11-20_23h47.57.959,Info_measure_main_exp,2022.2.2,Win32,144.2169022,,,,,,,,,,,,,,,,,,masks/mask_005.jpg,,,,,,,,,,,,,,,,,,,,,,,,,,,,,,,,,,,,,,,,,,,,,,,,0,1,1,4,1,,,,,,,,,,,,,,,,,,,,,,,,,,,,,,,,,,,,,,,,,
379787,001,2022-11-20_23h47.57.959,Info_measure_main_exp,2022.2.2,Win32,144.2169022,,,,,,,,,,,,,,,,,,masks/mask_003.jpg,,,,,,,,,,,,,,,,,,,,,,,,,,,,,,,,,,,,,,,,,,,,,,,,0,2,2,2,1,,,,,,,,,,,,,,,,,,,,,,,,,,,,,,,,,,,,,,,,,
379787,001,2022-11-20_23h47.57.959,Info_measure_main_exp,2022.2.2,Win32,144.2169022,,,,,,,,,,,,,,,,,,masks/mask_001.jpg,,,,,,,,,,,,,,,,,,,,,,,,,,,,,,,,,,,,,,,,,,,,,,,,0,3,3,0,1,,,,,,,,,,,,,,,,,,,,,,,,,,,,,,,,,,,,,,,,,
379787,001,2022-11-20_23h47.57.959,Info_measure_main_exp,2022.2.2,Win32,144.2169022,,,,,,,,,,,,,,,,,,masks/mask_004.jpg,,,,,,,,,,,,,,,,,,,,,,,,,,,,,,,,,,,,,,,,,,,,,,,,0,4,4,3,1,,,,,,,,,,,,,,,,,,,,,,,,,,,,,,,,,,,,,,,,,
379787,001,2022-11-20_23h47.57.959,Info_measure_main_exp,2022.2.2,Win32,144.2169022,,,,,,,,,,,,,,,,,,,,,,,,,,,,,,7,0.6854,1,,,,,,,,,,,,0,131,5,5,2154,2238,absent_patch/patch0002154.jpg,absent_patch/patch0002238.jpg,,,,,,,,,,,,,,,,,,,,0.030555556,0.092592593,1,0,0,response1disk,31,-0.00462963,-0.000925926,1,0,0,center_square,0,30,30,21,1,,,,,,,,,,,,,,,,,,,,,,,
379787,001,2022-11-20_23h47.57.959,Info_measure_main_exp,2022.2.2,Win32,144.2169022,,,,,,,,,,,,,,,,,,masks/mask_002.jpg,,,,,,,,,,,,,,,,,,,,,,,,,,,,,,,,,,,,,,,,,,,0,0,0,1,1,,,,,,,,,,,,,,,,,,,,,,,,,,,,,,,,,,,,,,,,,,,,,,
379787,001,2022-11-20_23h47.57.959,Info_measure_main_exp,2022.2.2,Win32,144.2169022,,,,,,,,,,,,,,,,,,masks/mask_004.jpg,,,,,,,,,,,,,,,,,,,,,,,,,,,,,,,,,,,,,,,,,,,0,1,1,3,1,,,,,,,,,,,,,,,,,,,,,,,,,,,,,,,,,,,,,,,,,,,,,,
379787,001,2022-11-20_23h47.57.959,Info_measure_main_exp,2022.2.2,Win32,144.2169022,,,,,,,,,,,,,,,,,,masks/mask_001.jpg,,,,,,,,,,,,,,,,,,,,,,,,,,,,,,,,,,,,,,,,,,,0,2,2,0,1,,,,,,,,,,,,,,,,,,,,,,,,,,,,,,,,,,,,,,,,,,,,,,
379787,001,2022-11-20_23h47.57.959,Info_measure_main_exp,2022.2.2,Win32,144.2169022,,,,,,,,,,,,,,,,,,masks/mask_003.jpg,,,,,,,,,,,,,,,,,,,,,,,,,,,,,,,,,,,,,,,,,,,0,3,3,2,1,,,,,,,,,,,,,,,,,,,,,,,,,,,,,,,,,,,,,,,,,,,,,,
379787,001,2022-11-20_23h47.57.959,Info_measure_main_exp,2022.2.2,Win32,144.2169022,,,,,,,,,,,,,,,,,,masks/mask_005.jpg,,,,,,,,,,,,,,,,,,,,,,,,,,,,,,,,,,,,,,,,,,,0,4,4,4,1,,,,,,,,,,,,,,,,,,,,,,,,,,,,,,,,,,,,,,,,,,,,,,
379787,001,2022-11-20_23h47.57.959,Info_measure_main_exp,2022.2.2,Win32,144.2169022,,,,,,,,,,,,,,,,,,masks/mask_002.jpg,,,,,,,,,,,,,,,,,,,,,,,,,,,,,,,,,,,,,,,,,,,,,,,,0,0,0,1,1,,,,,,,,,,,,,,,,,,,,,,,,,,,,,,,,,,,,,,,,,
379787,001,2022-11-20_23h47.57.959,Info_measure_main_exp,2022.2.2,Win32,144.2169022,,,,,,,,,,,,,,,,,,masks/mask_004.jpg,,,,,,,,,,,,,,,,,,,,,,,,,,,,,,,,,,,,,,,,,,,,,,,,0,1,1,3,1,,,,,,,,,,,,,,,,,,,,,,,,,,,,,,,,,,,,,,,,,
379787,001,2022-11-20_23h47.57.959,Info_measure_main_exp,2022.2.2,Win32,144.2169022,,,,,,,,,,,,,,,,,,masks/mask_005.jpg,,,,,,,,,,,,,,,,,,,,,,,,,,,,,,,,,,,,,,,,,,,,,,,,0,2,2,4,1,,,,,,,,,,,,,,,,,,,,,,,,,,,,,,,,,,,,,,,,,
379787,001,2022-11-20_23h47.57.959,Info_measure_main_exp,2022.2.2,Win32,144.2169022,,,,,,,,,,,,,,,,,,masks/mask_003.jpg,,,,,,,,,,,,,,,,,,,,,,,,,,,,,,,,,,,,,,,,,,,,,,,,0,3,3,2,1,,,,,,,,,,,,,,,,,,,,,,,,,,,,,,,,,,,,,,,,,
379787,001,2022-11-20_23h47.57.959,Info_measure_main_exp,2022.2.2,Win32,144.2169022,,,,,,,,,,,,,,,,,,masks/mask_001.jpg,,,,,,,,,,,,,,,,,,,,,,,,,,,,,,,,,,,,,,,,,,,,,,,,0,4,4,0,1,,,,,,,,,,,,,,,,,,,,,,,,,,,,,,,,,,,,,,,,,
379787,001,2022-11-20_23h47.57.959,Info_measure_main_exp,2022.2.2,Win32,144.2169022,,,,,,,,,,,,,,,,,,,,,,,,,,,,,,0,0.3125,1,,,,,,,,,,,,0,131,5,5,2238,2238,absent_patch/patch0002238.jpg,absent_patch/patch0002238.jpg,,,,,,,,,,,,,,,,,,,,-0.044444444,0.106481481,1,0,0,response7disk,32,-0.008333333,0.002777778,1,0,0,center_square,0,31,31,58,1,,,,,,,,,,,,,,,,,,,,,,,
379787,001,2022-11-20_23h47.57.959,Info_measure_main_exp,2022.2.2,Win32,144.2169022,,,,,,,,,,,,,,,,,,masks/mask_001.jpg,,,,,,,,,,,,,,,,,,,,,,,,,,,,,,,,,,,,,,,,,,,0,0,0,0,1,,,,,,,,,,,,,,,,,,,,,,,,,,,,,,,,,,,,,,,,,,,,,,
379787,001,2022-11-20_23h47.57.959,Info_measure_main_exp,2022.2.2,Win32,144.2169022,,,,,,,,,,,,,,,,,,masks/mask_005.jpg,,,,,,,,,,,,,,,,,,,,,,,,,,,,,,,,,,,,,,,,,,,0,1,1,4,1,,,,,,,,,,,,,,,,,,,,,,,,,,,,,,,,,,,,,,,,,,,,,,
379787,001,2022-11-20_23h47.57.959,Info_measure_main_exp,2022.2.2,Win32,144.2169022,,,,,,,,,,,,,,,,,,masks/mask_002.jpg,,,,,,,,,,,,,,,,,,,,,,,,,,,,,,,,,,,,,,,,,,,0,2,2,1,1,,,,,,,,,,,,,,,,,,,,,,,,,,,,,,,,,,,,,,,,,,,,,,
379787,001,2022-11-20_23h47.57.959,Info_measure_main_exp,2022.2.2,Win32,144.2169022,,,,,,,,,,,,,,,,,,masks/mask_004.jpg,,,,,,,,,,,,,,,,,,,,,,,,,,,,,,,,,,,,,,,,,,,0,3,3,3,1,,,,,,,,,,,,,,,,,,,,,,,,,,,,,,,,,,,,,,,,,,,,,,
379787,001,2022-11-20_23h47.57.959,Info_measure_main_exp,2022.2.2,Win32,144.2169022,,,,,,,,,,,,,,,,,,masks/mask_003.jpg,,,,,,,,,,,,,,,,,,,,,,,,,,,,,,,,,,,,,,,,,,,0,4,4,2,1,,,,,,,,,,,,,,,,,,,,,,,,,,,,,,,,,,,,,,,,,,,,,,
379787,001,2022-11-20_23h47.57.959,Info_measure_main_exp,2022.2.2,Win32,144.2169022,,,,,,,,,,,,,,,,,,masks/mask_003.jpg,,,,,,,,,,,,,,,,,,,,,,,,,,,,,,,,,,,,,,,,,,,,,,,,0,0,0,2,1,,,,,,,,,,,,,,,,,,,,,,,,,,,,,,,,,,,,,,,,,
379787,001,2022-11-20_23h47.57.959,Info_measure_main_exp,2022.2.2,Win32,144.2169022,,,,,,,,,,,,,,,,,,masks/mask_005.jpg,,,,,,,,,,,,,,,,,,,,,,,,,,,,,,,,,,,,,,,,,,,,,,,,0,1,1,4,1,,,,,,,,,,,,,,,,,,,,,,,,,,,,,,,,,,,,,,,,,
379787,001,2022-11-20_23h47.57.959,Info_measure_main_exp,2022.2.2,Win32,144.2169022,,,,,,,,,,,,,,,,,,masks/mask_002.jpg,,,,,,,,,,,,,,,,,,,,,,,,,,,,,,,,,,,,,,,,,,,,,,,,0,2,2,1,1,,,,,,,,,,,,,,,,,,,,,,,,,,,,,,,,,,,,,,,,,
379787,001,2022-11-20_23h47.57.959,Info_measure_main_exp,2022.2.2,Win32,144.2169022,,,,,,,,,,,,,,,,,,masks/mask_001.jpg,,,,,,,,,,,,,,,,,,,,,,,,,,,,,,,,,,,,,,,,,,,,,,,,0,3,3,0,1,,,,,,,,,,,,,,,,,,,,,,,,,,,,,,,,,,,,,,,,,
379787,001,2022-11-20_23h47.57.959,Info_measure_main_exp,2022.2.2,Win32,144.2169022,,,,,,,,,,,,,,,,,,masks/mask_004.jpg,,,,,,,,,,,,,,,,,,,,,,,,,,,,,,,,,,,,,,,,,,,,,,,,0,4,4,3,1,,,,,,,,,,,,,,,,,,,,,,,,,,,,,,,,,,,,,,,,,
379787,001,2022-11-20_23h47.57.959,Info_measure_main_exp,2022.2.2,Win32,144.2169022,,,,,,,,,,,,,,,,,,,,,,,,,,,,,,7,0.854,1,,,,,,,,,,,,0,131,5,5,2190,1974,absent_patch/patch0002190.jpg,absent_patch/patch0001974.jpg,,,,,,,,,,,,,,,,,,,,0.027777778,0.115740741,1,0,0,response1disk,33,0.003703704,0.011111111,1,0,0,center_square,0,32,32,119,1,,,,,,,,,,,,,,,,,,,,,,,
379787,001,2022-11-20_23h47.57.959,Info_measure_main_exp,2022.2.2,Win32,144.2169022,,,,,,,,,,,,,,,,,,masks/mask_003.jpg,,,,,,,,,,,,,,,,,,,,,,,,,,,,,,,,,,,,,,,,,,,0,0,0,2,1,,,,,,,,,,,,,,,,,,,,,,,,,,,,,,,,,,,,,,,,,,,,,,
379787,001,2022-11-20_23h47.57.959,Info_measure_main_exp,2022.2.2,Win32,144.2169022,,,,,,,,,,,,,,,,,,masks/mask_004.jpg,,,,,,,,,,,,,,,,,,,,,,,,,,,,,,,,,,,,,,,,,,,0,1,1,3,1,,,,,,,,,,,,,,,,,,,,,,,,,,,,,,,,,,,,,,,,,,,,,,
379787,001,2022-11-20_23h47.57.959,Info_measure_main_exp,2022.2.2,Win32,144.2169022,,,,,,,,,,,,,,,,,,masks/mask_005.jpg,,,,,,,,,,,,,,,,,,,,,,,,,,,,,,,,,,,,,,,,,,,0,2,2,4,1,,,,,,,,,,,,,,,,,,,,,,,,,,,,,,,,,,,,,,,,,,,,,,
379787,001,2022-11-20_23h47.57.959,Info_measure_main_exp,2022.2.2,Win32,144.2169022,,,,,,,,,,,,,,,,,,masks/mask_002.jpg,,,,,,,,,,,,,,,,,,,,,,,,,,,,,,,,,,,,,,,,,,,0,3,3,1,1,,,,,,,,,,,,,,,,,,,,,,,,,,,,,,,,,,,,,,,,,,,,,,
379787,001,2022-11-20_23h47.57.959,Info_measure_main_exp,2022.2.2,Win32,144.2169022,,,,,,,,,,,,,,,,,,masks/mask_001.jpg,,,,,,,,,,,,,,,,,,,,,,,,,,,,,,,,,,,,,,,,,,,0,4,4,0,1,,,,,,,,,,,,,,,,,,,,,,,,,,,,,,,,,,,,,,,,,,,,,,
379787,001,2022-11-20_23h47.57.959,Info_measure_main_exp,2022.2.2,Win32,144.2169022,,,,,,,,,,,,,,,,,,masks/mask_002.jpg,,,,,,,,,,,,,,,,,,,,,,,,,,,,,,,,,,,,,,,,,,,,,,,,0,0,0,1,1,,,,,,,,,,,,,,,,,,,,,,,,,,,,,,,,,,,,,,,,,
379787,001,2022-11-20_23h47.57.959,Info_measure_main_exp,2022.2.2,Win32,144.2169022,,,,,,,,,,,,,,,,,,masks/mask_004.jpg,,,,,,,,,,,,,,,,,,,,,,,,,,,,,,,,,,,,,,,,,,,,,,,,0,1,1,3,1,,,,,,,,,,,,,,,,,,,,,,,,,,,,,,,,,,,,,,,,,
379787,001,2022-11-20_23h47.57.959,Info_measure_main_exp,2022.2.2,Win32,144.2169022,,,,,,,,,,,,,,,,,,masks/mask_005.jpg,,,,,,,,,,,,,,,,,,,,,,,,,,,,,,,,,,,,,,,,,,,,,,,,0,2,2,4,1,,,,,,,,,,,,,,,,,,,,,,,,,,,,,,,,,,,,,,,,,
379787,001,2022-11-20_23h47.57.959,Info_measure_main_exp,2022.2.2,Win32,144.2169022,,,,,,,,,,,,,,,,,,masks/mask_003.jpg,,,,,,,,,,,,,,,,,,,,,,,,,,,,,,,,,,,,,,,,,,,,,,,,0,3,3,2,1,,,,,,,,,,,,,,,,,,,,,,,,,,,,,,,,,,,,,,,,,
379787,001,2022-11-20_23h47.57.959,Info_measure_main_exp,2022.2.2,Win32,144.2169022,,,,,,,,,,,,,,,,,,masks/mask_001.jpg,,,,,,,,,,,,,,,,,,,,,,,,,,,,,,,,,,,,,,,,,,,,,,,,0,4,4,0,1,,,,,,,,,,,,,,,,,,,,,,,,,,,,,,,,,,,,,,,,,
379787,001,2022-11-20_23h47.57.959,Info_measure_main_exp,2022.2.2,Win32,144.2169022,,,,,,,,,,,,,,,,,,,,,,,,,,,,,,7,0.3308,1,,,,,,,,,,,,0,131,5,5,2214,2142,absent_patch/patch0002214.jpg,absent_patch/patch0002142.jpg,,,,,,,,,,,,,,,,,,,,0.05,0.12962963,1,0,0,response1disk,34,0.007407407,0.012962963,1,0,0,center_square,0,33,33,102,1,,,,,,,,,,,,,,,,,,,,,,,
379787,001,2022-11-20_23h47.57.959,Info_measure_main_exp,2022.2.2,Win32,144.2169022,,,,,,,,,,,,,,,,,,masks/mask_002.jpg,,,,,,,,,,,,,,,,,,,,,,,,,,,,,,,,,,,,,,,,,,,0,0,0,1,1,,,,,,,,,,,,,,,,,,,,,,,,,,,,,,,,,,,,,,,,,,,,,,
379787,001,2022-11-20_23h47.57.959,Info_measure_main_exp,2022.2.2,Win32,144.2169022,,,,,,,,,,,,,,,,,,masks/mask_003.jpg,,,,,,,,,,,,,,,,,,,,,,,,,,,,,,,,,,,,,,,,,,,0,1,1,2,1,,,,,,,,,,,,,,,,,,,,,,,,,,,,,,,,,,,,,,,,,,,,,,
379787,001,2022-11-20_23h47.57.959,Info_measure_main_exp,2022.2.2,Win32,144.2169022,,,,,,,,,,,,,,,,,,masks/mask_004.jpg,,,,,,,,,,,,,,,,,,,,,,,,,,,,,,,,,,,,,,,,,,,0,2,2,3,1,,,,,,,,,,,,,,,,,,,,,,,,,,,,,,,,,,,,,,,,,,,,,,
379787,001,2022-11-20_23h47.57.959,Info_measure_main_exp,2022.2.2,Win32,144.2169022,,,,,,,,,,,,,,,,,,masks/mask_005.jpg,,,,,,,,,,,,,,,,,,,,,,,,,,,,,,,,,,,,,,,,,,,0,3,3,4,1,,,,,,,,,,,,,,,,,,,,,,,,,,,,,,,,,,,,,,,,,,,,,,
379787,001,2022-11-20_23h47.57.959,Info_measure_main_exp,2022.2.2,Win32,144.2169022,,,,,,,,,,,,,,,,,,masks/mask_001.jpg,,,,,,,,,,,,,,,,,,,,,,,,,,,,,,,,,,,,,,,,,,,0,4,4,0,1,,,,,,,,,,,,,,,,,,,,,,,,,,,,,,,,,,,,,,,,,,,,,,
379787,001,2022-11-20_23h47.57.959,Info_measure_main_exp,2022.2.2,Win32,144.2169022,,,,,,,,,,,,,,,,,,masks/mask_001.jpg,,,,,,,,,,,,,,,,,,,,,,,,,,,,,,,,,,,,,,,,,,,,,,,,0,0,0,0,1,,,,,,,,,,,,,,,,,,,,,,,,,,,,,,,,,,,,,,,,,
379787,001,2022-11-20_23h47.57.959,Info_measure_main_exp,2022.2.2,Win32,144.2169022,,,,,,,,,,,,,,,,,,masks/mask_002.jpg,,,,,,,,,,,,,,,,,,,,,,,,,,,,,,,,,,,,,,,,,,,,,,,,0,1,1,1,1,,,,,,,,,,,,,,,,,,,,,,,,,,,,,,,,,,,,,,,,,
379787,001,2022-11-20_23h47.57.959,Info_measure_main_exp,2022.2.2,Win32,144.2169022,,,,,,,,,,,,,,,,,,masks/mask_004.jpg,,,,,,,,,,,,,,,,,,,,,,,,,,,,,,,,,,,,,,,,,,,,,,,,0,2,2,3,1,,,,,,,,,,,,,,,,,,,,,,,,,,,,,,,,,,,,,,,,,
379787,001,2022-11-20_23h47.57.959,Info_measure_main_exp,2022.2.2,Win32,144.2169022,,,,,,,,,,,,,,,,,,masks/mask_003.jpg,,,,,,,,,,,,,,,,,,,,,,,,,,,,,,,,,,,,,,,,,,,,,,,,0,3,3,2,1,,,,,,,,,,,,,,,,,,,,,,,,,,,,,,,,,,,,,,,,,
