participant,session,date,expName,psychopyVersion,OS,frameRate,space_press_continue.keys,space_press_continue.rt,space_press_continue_2.keys,space_press_continue_2.rt,space_press_continue_3.keys,space_press_continue_3.rt,space_press_continue_4.keys,space_press_continue_4.rt,space_press_continue_5.keys,space_press_continue_5.rt,space_press_continue_6.keys,space_press_continue_6.rt,prac_mask_loop_1.thisRepN,prac_mask_loop_1.thisTrialN,prac_mask_loop_1.thisN,prac_mask_loop_1.thisIndex,prac_mask_loop_1.ran,mask_name,prac_mask_loop_2.thisRepN,prac_mask_loop_2.thisTrialN,prac_mask_loop_2.thisN,prac_mask_loop_2.thisIndex,prac_mask_loop_2.ran,mouse_2.x,mouse_2.y,mouse_2.leftButton,mouse_2.midButton,mouse_2.rightButton,mouse_2.clicked_name,similarity,response_time,Pass,mouse_12.x,mouse_12.y,mouse_12.leftButton,mouse_12.midButton,mouse_12.rightButton,mouse_12.clicked_name,prac_loop.thisRepN,prac_loop.thisTrialN,prac_loop.thisN,prac_loop.thisIndex,prac_loop.ran,Pair_type,Image_num,Patch_1_loc,Patch_2_loc,Patch_1_info,Patch_2_info,Patch_1_name,Patch_2_name,mouse_1.x,mouse_1.y,mouse_1.leftButton,mouse_1.midButton,mouse_1.rightButton,mouse_1.time,mouse_1.clicked_name,space_press_continue_7.keys,space_press_continue_7.rt,mask_loop.thisRepN,mask_loop.thisTrialN,mask_loop.thisN,mask_loop.thisIndex,mask_loop.ran,mask_loop_2.thisRepN,mask_loop_2.thisTrialN,mask_loop_2.thisN,mask_loop_2.thisIndex,mask_loop_2.ran,mouse.x,mouse.y,mouse.leftButton,mouse.midButton,mouse.rightButton,mouse.clicked_name,trialNumber,mouse_11.x,mouse_11.y,mouse_11.leftButton,mouse_11.midButton,mouse_11.rightButton,mouse_11.clicked_name,first_pass_loop.thisRepN,first_pass_loop.thisTrialN,first_pass_loop.thisN,first_pass_loop.thisIndex,first_pass_loop.ran
383112,001,2022-11-14_24h28.01.193,Info_measure_main_exp,2022.2.2,Win32,4.615547935,,,,,,,,,,,,,,,,,,,,,,,,,,,,,,,,,,,,,,,,,,,,,,,,,,,,,,,,,,,,,,,,,,,,,,,,,,,,,,,,,,,,,,,,
383112,001,2022-11-14_24h28.01.193,Info_measure_main_exp,2022.2.2,Win32,4.615547935,,,,,,,,,,,,,,,,,,,,,,,,,,,,,,,,,,,,,,,,,,,,,,,,,,,,,,,,,,,,,,,,,,,,,,,,,,,,,,,,,,,,,,,,
383112,001,2022-11-14_24h28.01.193,Info_measure_main_exp,2022.2.2,Win32,4.615547935,space,4.3209,,,,,,,,,,,,,,,,,,,,,,,,,,,,,,,,,,,,,,,,,,,,,,,,,,,,,,,,,,,,,,,,,,,,,,,,,,,,,,,,,,,,,,
383112,001,2022-11-14_24h28.01.193,Info_measure_main_exp,2022.2.2,Win32,4.615547935,,,space,7.5673,,,,,,,,,,,,,,,,,,,,,,,,,,,,,,,,,,,,,,,,,,,,,,,,,,,,,,,,,,,,,,,,,,,,,,,,,,,,,,,,,,,,
383112,001,2022-11-14_24h28.01.193,Info_measure_main_exp,2022.2.2,Win32,4.615547935,,,,,space,4.7866,,,,,,,,,,,,,,,,,,,,,,,,,,,,,,,,,,,,,,,,,,,,,,,,,,,,,,,,,,,,,,,,,,,,,,,,,,,,,,,,,,
383112,001,2022-11-14_24h28.01.193,Info_measure_main_exp,2022.2.2,Win32,4.615547935,,,,,,,space,13.4647,,,,,,,,,,,,,,,,,,,,,,,,,,,,,,,,,,,,,,,,,,,,,,,,,,,,,,,,,,,,,,,,,,,,,,,,,,,,,,,,
383112,001,2022-11-14_24h28.01.193,Info_measure_main_exp,2022.2.2,Win32,4.615547935,,,,,,,,,space,4.4891,,,,,,,,,,,,,,,,,,,,,,,,,,,,,,,,,,,,,,,,,,,,,,,,,,,,,,,,,,,,,,,,,,,,,,,,,,,,,,
383112,001,2022-11-14_24h28.01.193,Info_measure_main_exp,2022.2.2,Win32,4.615547935,,,,,,,,,,,space,3.5756,,,,,,,,,,,,,,,,,,,,,,,,,,,,,,,,,,,,,,,,,,,,,,,,,,,,,,,,,,,,,,,,,,,,,,,,,,,,
383112,001,2022-11-14_24h28.01.193,Info_measure_main_exp,2022.2.2,Win32,4.615547935,,,,,,,,,,,,,0,0,0,0,1,masks/mask_001.jpg,,,,,,,,,,,,,,,,,,,,,,,,,,,,,,,,,,,,,,,,,,,,,,,,,,,,,,,,,,,,,,,,,,,,,,
383112,001,2022-11-14_24h28.01.193,Info_measure_main_exp,2022.2.2,Win32,4.615547935,,,,,,,,,,,,,0,1,1,4,1,masks/mask_005.jpg,,,,,,,,,,,,,,,,,,,,,,,,,,,,,,,,,,,,,,,,,,,,,,,,,,,,,,,,,,,,,,,,,,,,,,
383112,001,2022-11-14_24h28.01.193,Info_measure_main_exp,2022.2.2,Win32,4.615547935,,,,,,,,,,,,,0,2,2,1,1,masks/mask_002.jpg,,,,,,,,,,,,,,,,,,,,,,,,,,,,,,,,,,,,,,,,,,,,,,,,,,,,,,,,,,,,,,,,,,,,,,
383112,001,2022-11-14_24h28.01.193,Info_measure_main_exp,2022.2.2,Win32,4.615547935,,,,,,,,,,,,,0,3,3,3,1,masks/mask_004.jpg,,,,,,,,,,,,,,,,,,,,,,,,,,,,,,,,,,,,,,,,,,,,,,,,,,,,,,,,,,,,,,,,,,,,,,
383112,001,2022-11-14_24h28.01.193,Info_measure_main_exp,2022.2.2,Win32,4.615547935,,,,,,,,,,,,,0,4,4,2,1,masks/mask_003.jpg,,,,,,,,,,,,,,,,,,,,,,,,,,,,,,,,,,,,,,,,,,,,,,,,,,,,,,,,,,,,,,,,,,,,,,
383112,001,2022-11-14_24h28.01.193,Info_measure_main_exp,2022.2.2,Win32,4.615547935,,,,,,,,,,,,,,,,,,masks/mask_002.jpg,0,0,0,1,1,,,,,,,,,,,,,,,,,,,,,,,,,,,,,,,,,,,,,,,,,,,,,,,,,,,,,,,,,,,,,,,,,
383112,001,2022-11-14_24h28.01.193,Info_measure_main_exp,2022.2.2,Win32,4.615547935,,,,,,,,,,,,,,,,,,masks/mask_005.jpg,0,1,1,4,1,,,,,,,,,,,,,,,,,,,,,,,,,,,,,,,,,,,,,,,,,,,,,,,,,,,,,,,,,,,,,,,,,
383112,001,2022-11-14_24h28.01.193,Info_measure_main_exp,2022.2.2,Win32,4.615547935,,,,,,,,,,,,,,,,,,masks/mask_001.jpg,0,2,2,0,1,,,,,,,,,,,,,,,,,,,,,,,,,,,,,,,,,,,,,,,,,,,,,,,,,,,,,,,,,,,,,,,,,
383112,001,2022-11-14_24h28.01.193,Info_measure_main_exp,2022.2.2,Win32,4.615547935,,,,,,,,,,,,,,,,,,masks/mask_004.jpg,0,3,3,3,1,,,,,,,,,,,,,,,,,,,,,,,,,,,,,,,,,,,,,,,,,,,,,,,,,,,,,,,,,,,,,,,,,
383112,001,2022-11-14_24h28.01.193,Info_measure_main_exp,2022.2.2,Win32,4.615547935,,,,,,,,,,,,,,,,,,masks/mask_003.jpg,0,4,4,2,1,,,,,,,,,,,,,,,,,,,,,,,,,,,,,,,,,,,,,,,,,,,,,,,,,,,,,,,,,,,,,,,,,
383112,001,2022-11-14_24h28.01.193,Info_measure_main_exp,2022.2.2,Win32,4.615547935,,,,,,,,,,,,,,,,,,,,,,,,-0.057407407,0.106481481,1,0,0,response7disk,0,47.2398,1,0.002777778,-0.002777778,1,0,0,center_square,0,0,0,2,1,0,131,5,5,2526,2526,prac_patch/patch0002526.jpg,prac_patch/patch0002526.jpg,,,,,,,,,,,,,,,,,,,,,,,,,,,,,,,,,,,,,
383112,001,2022-11-14_24h28.01.193,Info_measure_main_exp,2022.2.2,Win32,4.615547935,,,,,,,,,,,,,0,0,0,2,1,masks/mask_003.jpg,,,,,,,,,,,,,,,,,,,,,,,,,,,,,,,,,,,,,,,,,,,,,,,,,,,,,,,,,,,,,,,,,,,,,,
383112,001,2022-11-14_24h28.01.193,Info_measure_main_exp,2022.2.2,Win32,4.615547935,,,,,,,,,,,,,0,1,1,0,1,masks/mask_001.jpg,,,,,,,,,,,,,,,,,,,,,,,,,,,,,,,,,,,,,,,,,,,,,,,,,,,,,,,,,,,,,,,,,,,,,,
383112,001,2022-11-14_24h28.01.193,Info_measure_main_exp,2022.2.2,Win32,4.615547935,,,,,,,,,,,,,0,2,2,1,1,masks/mask_002.jpg,,,,,,,,,,,,,,,,,,,,,,,,,,,,,,,,,,,,,,,,,,,,,,,,,,,,,,,,,,,,,,,,,,,,,,
383112,001,2022-11-14_24h28.01.193,Info_measure_main_exp,2022.2.2,Win32,4.615547935,,,,,,,,,,,,,0,3,3,3,1,masks/mask_004.jpg,,,,,,,,,,,,,,,,,,,,,,,,,,,,,,,,,,,,,,,,,,,,,,,,,,,,,,,,,,,,,,,,,,,,,,
383112,001,2022-11-14_24h28.01.193,Info_measure_main_exp,2022.2.2,Win32,4.615547935,,,,,,,,,,,,,0,4,4,4,1,masks/mask_005.jpg,,,,,,,,,,,,,,,,,,,,,,,,,,,,,,,,,,,,,,,,,,,,,,,,,,,,,,,,,,,,,,,,,,,,,,
383112,001,2022-11-14_24h28.01.193,Info_measure_main_exp,2022.2.2,Win32,4.615547935,,,,,,,,,,,,,,,,,,masks/mask_002.jpg,0,0,0,1,1,,,,,,,,,,,,,,,,,,,,,,,,,,,,,,,,,,,,,,,,,,,,,,,,,,,,,,,,,,,,,,,,,
383112,001,2022-11-14_24h28.01.193,Info_measure_main_exp,2022.2.2,Win32,4.615547935,,,,,,,,,,,,,,,,,,masks/mask_004.jpg,0,1,1,3,1,,,,,,,,,,,,,,,,,,,,,,,,,,,,,,,,,,,,,,,,,,,,,,,,,,,,,,,,,,,,,,,,,
383112,001,2022-11-14_24h28.01.193,Info_measure_main_exp,2022.2.2,Win32,4.615547935,,,,,,,,,,,,,,,,,,masks/mask_005.jpg,0,2,2,4,1,,,,,,,,,,,,,,,,,,,,,,,,,,,,,,,,,,,,,,,,,,,,,,,,,,,,,,,,,,,,,,,,,
383112,001,2022-11-14_24h28.01.193,Info_measure_main_exp,2022.2.2,Win32,4.615547935,,,,,,,,,,,,,,,,,,masks/mask_003.jpg,0,3,3,2,1,,,,,,,,,,,,,,,,,,,,,,,,,,,,,,,,,,,,,,,,,,,,,,,,,,,,,,,,,,,,,,,,,
383112,001,2022-11-14_24h28.01.193,Info_measure_main_exp,2022.2.2,Win32,4.615547935,,,,,,,,,,,,,,,,,,masks/mask_001.jpg,0,4,4,0,1,,,,,,,,,,,,,,,,,,,,,,,,,,,,,,,,,,,,,,,,,,,,,,,,,,,,,,,,,,,,,,,,,
383112,001,2022-11-14_24h28.01.193,Info_measure_main_exp,2022.2.2,Win32,4.615547935,,,,,,,,,,,,,,,,,,,,,,,,-0.038888889,0.09537037,1,0,0,response7disk,0,62.708,1,-0.000925926,0.000925926,1,0,0,center_square,0,1,1,1,1,0,131,5,5,2514,2490,prac_patch/patch0002514.jpg,prac_patch/patch0002490.jpg,,,,,,,,,,,,,,,,,,,,,,,,,,,,,,,,,,,,,
383112,001,2022-11-14_24h28.01.193,Info_measure_main_exp,2022.2.2,Win32,4.615547935,,,,,,,,,,,,,0,0,0,2,1,masks/mask_003.jpg,,,,,,,,,,,,,,,,,,,,,,,,,,,,,,,,,,,,,,,,,,,,,,,,,,,,,,,,,,,,,,,,,,,,,,
383112,001,2022-11-14_24h28.01.193,Info_measure_main_exp,2022.2.2,Win32,4.615547935,,,,,,,,,,,,,0,1,1,4,1,masks/mask_005.jpg,,,,,,,,,,,,,,,,,,,,,,,,,,,,,,,,,,,,,,,,,,,,,,,,,,,,,,,,,,,,,,,,,,,,,,
383112,001,2022-11-14_24h28.01.193,Info_measure_main_exp,2022.2.2,Win32,4.615547935,,,,,,,,,,,,,0,2,2,0,1,masks/mask_001.jpg,,,,,,,,,,,,,,,,,,,,,,,,,,,,,,,,,,,,,,,,,,,,,,,,,,,,,,,,,,,,,,,,,,,,,,
383112,001,2022-11-14_24h28.01.193,Info_measure_main_exp,2022.2.2,Win32,4.615547935,,,,,,,,,,,,,0,3,3,1,1,masks/mask_002.jpg,,,,,,,,,,,,,,,,,,,,,,,,,,,,,,,,,,,,,,,,,,,,,,,,,,,,,,,,,,,,,,,,,,,,,,
383112,001,2022-11-14_24h28.01.193,Info_measure_main_exp,2022.2.2,Win32,4.615547935,,,,,,,,,,,,,0,4,4,3,1,masks/mask_004.jpg,,,,,,,,,,,,,,,,,,,,,,,,,,,,,,,,,,,,,,,,,,,,,,,,,,,,,,,,,,,,,,,,,,,,,,
383112,001,2022-11-14_24h28.01.193,Info_measure_main_exp,2022.2.2,Win32,4.615547935,,,,,,,,,,,,,,,,,,masks/mask_004.jpg,0,0,0,3,1,,,,,,,,,,,,,,,,,,,,,,,,,,,,,,,,,,,,,,,,,,,,,,,,,,,,,,,,,,,,,,,,,
383112,001,2022-11-14_24h28.01.193,Info_measure_main_exp,2022.2.2,Win32,4.615547935,,,,,,,,,,,,,,,,,,masks/mask_003.jpg,0,1,1,2,1,,,,,,,,,,,,,,,,,,,,,,,,,,,,,,,,,,,,,,,,,,,,,,,,,,,,,,,,,,,,,,,,,
383112,001,2022-11-14_24h28.01.193,Info_measure_main_exp,2022.2.2,Win32,4.615547935,,,,,,,,,,,,,,,,,,masks/mask_002.jpg,0,2,2,1,1,,,,,,,,,,,,,,,,,,,,,,,,,,,,,,,,,,,,,,,,,,,,,,,,,,,,,,,,,,,,,,,,,
383112,001,2022-11-14_24h28.01.193,Info_measure_main_exp,2022.2.2,Win32,4.615547935,,,,,,,,,,,,,,,,,,masks/mask_005.jpg,0,3,3,4,1,,,,,,,,,,,,,,,,,,,,,,,,,,,,,,,,,,,,,,,,,,,,,,,,,,,,,,,,,,,,,,,,,
383112,001,2022-11-14_24h28.01.193,Info_measure_main_exp,2022.2.2,Win32,4.615547935,,,,,,,,,,,,,,,,,,masks/mask_001.jpg,0,4,4,0,1,,,,,,,,,,,,,,,,,,,,,,,,,,,,,,,,,,,,,,,,,,,,,,,,,,,,,,,,,,,,,,,,,
383112,001,2022-11-14_24h28.01.193,Info_measure_main_exp,2022.2.2,Win32,4.615547935,,,,,,,,,,,,,,,,,,,,,,,,-0.043518519,0.099074074,1,0,0,response7disk,0,70.6779,1,0.00462963,-0.009259259,1,0,0,center_square,0,2,2,0,1,0,131,5,5,2370,2406,prac_patch/patch0002370.jpg,prac_patch/patch0002406.jpg,,,,,,,,,,,,,,,,,,,,,,,,,,,,,,,,,,,,,
383112,001,2022-11-14_24h28.01.193,Info_measure_main_exp,2022.2.2,Win32,4.615547935,,,,,,,,,,,,,,,,,,,,,,,,,,,,,,,,,,,,,,,,,,,,,,,,,,,,,,,,,,,space,1.8607,,,,,,,,,,,,,,,,,,,,,,,,,,,,
383112,001,2022-11-14_24h28.01.193,Info_measure_main_exp,2022.2.2,Win32,4.615547935,,,,,,,,,,,,,,,,,,masks/mask_003.jpg,,,,,,,,,,,,,,,,,,,,,,,,,,,,,,,,,,,,,,,,,,,0,0,0,2,1,,,,,,,,,,,,,,,,,,,,,,,
383112,001,2022-11-14_24h28.01.193,Info_measure_main_exp,2022.2.2,Win32,4.615547935,,,,,,,,,,,,,,,,,,masks/mask_001.jpg,,,,,,,,,,,,,,,,,,,,,,,,,,,,,,,,,,,,,,,,,,,0,1,1,0,1,,,,,,,,,,,,,,,,,,,,,,,
383112,001,2022-11-14_24h28.01.193,Info_measure_main_exp,2022.2.2,Win32,4.615547935,,,,,,,,,,,,,,,,,,masks/mask_004.jpg,,,,,,,,,,,,,,,,,,,,,,,,,,,,,,,,,,,,,,,,,,,0,2,2,3,1,,,,,,,,,,,,,,,,,,,,,,,
383112,001,2022-11-14_24h28.01.193,Info_measure_main_exp,2022.2.2,Win32,4.615547935,,,,,,,,,,,,,,,,,,masks/mask_002.jpg,,,,,,,,,,,,,,,,,,,,,,,,,,,,,,,,,,,,,,,,,,,0,3,3,1,1,,,,,,,,,,,,,,,,,,,,,,,
383112,001,2022-11-14_24h28.01.193,Info_measure_main_exp,2022.2.2,Win32,4.615547935,,,,,,,,,,,,,,,,,,masks/mask_005.jpg,,,,,,,,,,,,,,,,,,,,,,,,,,,,,,,,,,,,,,,,,,,0,4,4,4,1,,,,,,,,,,,,,,,,,,,,,,,
383112,001,2022-11-14_24h28.01.193,Info_measure_main_exp,2022.2.2,Win32,4.615547935,,,,,,,,,,,,,,,,,,masks/mask_005.jpg,,,,,,,,,,,,,,,,,,,,,,,,,,,,,,,,,,,,,,,,,,,,,,,,0,0,0,4,1,,,,,,,,,,,,,,,,,,
383112,001,2022-11-14_24h28.01.193,Info_measure_main_exp,2022.2.2,Win32,4.615547935,,,,,,,,,,,,,,,,,,masks/mask_004.jpg,,,,,,,,,,,,,,,,,,,,,,,,,,,,,,,,,,,,,,,,,,,,,,,,0,1,1,3,1,,,,,,,,,,,,,,,,,,
383112,001,2022-11-14_24h28.01.193,Info_measure_main_exp,2022.2.2,Win32,4.615547935,,,,,,,,,,,,,,,,,,masks/mask_002.jpg,,,,,,,,,,,,,,,,,,,,,,,,,,,,,,,,,,,,,,,,,,,,,,,,0,2,2,1,1,,,,,,,,,,,,,,,,,,
383112,001,2022-11-14_24h28.01.193,Info_measure_main_exp,2022.2.2,Win32,4.615547935,,,,,,,,,,,,,,,,,,masks/mask_001.jpg,,,,,,,,,,,,,,,,,,,,,,,,,,,,,,,,,,,,,,,,,,,,,,,,0,3,3,0,1,,,,,,,,,,,,,,,,,,
383112,001,2022-11-14_24h28.01.193,Info_measure_main_exp,2022.2.2,Win32,4.615547935,,,,,,,,,,,,,,,,,,masks/mask_003.jpg,,,,,,,,,,,,,,,,,,,,,,,,,,,,,,,,,,,,,,,,,,,,,,,,0,4,4,2,1,,,,,,,,,,,,,,,,,,
383112,001,2022-11-14_24h28.01.193,Info_measure_main_exp,2022.2.2,Win32,4.615547935,,,,,,,,,,,,,,,,,,,,,,,,,,,,,,2,3.3321,1,,,,,,,,,,,,0,131,5,5,2142,2238,absent_patch/patch0002142.jpg,absent_patch/patch0002238.jpg,,,,,,,,,,,,,,,,,,,,-0.126851852,-0.038888889,1,0,0,response5disk,1,-0.006481481,-0.003703704,1,0,0,center_square,0,0,0,101,1
383112,001,2022-11-14_24h28.01.193,Info_measure_main_exp,2022.2.2,Win32,4.615547935,,,,,,,,,,,,,,,,,,masks/mask_004.jpg,,,,,,,,,,,,,,,,,,,,,,,,,,,,,,,,,,,,,,,,,,,0,0,0,3,1,,,,,,,,,,,,,,,,,,,,,,,
383112,001,2022-11-14_24h28.01.193,Info_measure_main_exp,2022.2.2,Win32,4.615547935,,,,,,,,,,,,,,,,,,masks/mask_001.jpg,,,,,,,,,,,,,,,,,,,,,,,,,,,,,,,,,,,,,,,,,,,0,1,1,0,1,,,,,,,,,,,,,,,,,,,,,,,
383112,001,2022-11-14_24h28.01.193,Info_measure_main_exp,2022.2.2,Win32,4.615547935,,,,,,,,,,,,,,,,,,masks/mask_002.jpg,,,,,,,,,,,,,,,,,,,,,,,,,,,,,,,,,,,,,,,,,,,0,2,2,1,1,,,,,,,,,,,,,,,,,,,,,,,
383112,001,2022-11-14_24h28.01.193,Info_measure_main_exp,2022.2.2,Win32,4.615547935,,,,,,,,,,,,,,,,,,masks/mask_005.jpg,,,,,,,,,,,,,,,,,,,,,,,,,,,,,,,,,,,,,,,,,,,0,3,3,4,1,,,,,,,,,,,,,,,,,,,,,,,
383112,001,2022-11-14_24h28.01.193,Info_measure_main_exp,2022.2.2,Win32,4.615547935,,,,,,,,,,,,,,,,,,masks/mask_003.jpg,,,,,,,,,,,,,,,,,,,,,,,,,,,,,,,,,,,,,,,,,,,0,4,4,2,1,,,,,,,,,,,,,,,,,,,,,,,
383112,001,2022-11-14_24h28.01.193,Info_measure_main_exp,2022.2.2,Win32,4.615547935,,,,,,,,,,,,,,,,,,masks/mask_003.jpg,,,,,,,,,,,,,,,,,,,,,,,,,,,,,,,,,,,,,,,,,,,,,,,,0,0,0,2,1,,,,,,,,,,,,,,,,,,
383112,001,2022-11-14_24h28.01.193,Info_measure_main_exp,2022.2.2,Win32,4.615547935,,,,,,,,,,,,,,,,,,masks/mask_001.jpg,,,,,,,,,,,,,,,,,,,,,,,,,,,,,,,,,,,,,,,,,,,,,,,,0,1,1,0,1,,,,,,,,,,,,,,,,,,
383112,001,2022-11-14_24h28.01.193,Info_measure_main_exp,2022.2.2,Win32,4.615547935,,,,,,,,,,,,,,,,,,masks/mask_004.jpg,,,,,,,,,,,,,,,,,,,,,,,,,,,,,,,,,,,,,,,,,,,,,,,,0,2,2,3,1,,,,,,,,,,,,,,,,,,
383112,001,2022-11-14_24h28.01.193,Info_measure_main_exp,2022.2.2,Win32,4.615547935,,,,,,,,,,,,,,,,,,masks/mask_005.jpg,,,,,,,,,,,,,,,,,,,,,,,,,,,,,,,,,,,,,,,,,,,,,,,,0,3,3,4,1,,,,,,,,,,,,,,,,,,
383112,001,2022-11-14_24h28.01.193,Info_measure_main_exp,2022.2.2,Win32,4.615547935,,,,,,,,,,,,,,,,,,masks/mask_002.jpg,,,,,,,,,,,,,,,,,,,,,,,,,,,,,,,,,,,,,,,,,,,,,,,,0,4,4,1,1,,,,,,,,,,,,,,,,,,
383112,001,2022-11-14_24h28.01.193,Info_measure_main_exp,2022.2.2,Win32,4.615547935,,,,,,,,,,,,,,,,,,,,,,,,,,,,,,4,37.2142,1,,,,,,,,,,,,0,131,5,5,2274,2142,absent_patch/patch0002274.jpg,absent_patch/patch0002142.jpg,,,,,,,,,,,,,,,,,,,,0.069817401,-0.09613319,1,0,0,response3disk,2,-0.006444683,0.011278195,1,0,0,center_square,0,1,1,75,1
383112,001,2022-11-14_24h28.01.193,Info_measure_main_exp,2022.2.2,Win32,4.615547935,,,,,,,,,,,,,,,,,,masks/mask_002.jpg,,,,,,,,,,,,,,,,,,,,,,,,,,,,,,,,,,,,,,,,,,,0,0,0,1,1,,,,,,,,,,,,,,,,,,,,,,,
383112,001,2022-11-14_24h28.01.193,Info_measure_main_exp,2022.2.2,Win32,4.615547935,,,,,,,,,,,,,,,,,,masks/mask_003.jpg,,,,,,,,,,,,,,,,,,,,,,,,,,,,,,,,,,,,,,,,,,,0,1,1,2,1,,,,,,,,,,,,,,,,,,,,,,,
383112,001,2022-11-14_24h28.01.193,Info_measure_main_exp,2022.2.2,Win32,4.615547935,,,,,,,,,,,,,,,,,,masks/mask_004.jpg,,,,,,,,,,,,,,,,,,,,,,,,,,,,,,,,,,,,,,,,,,,0,2,2,3,1,,,,,,,,,,,,,,,,,,,,,,,
383112,001,2022-11-14_24h28.01.193,Info_measure_main_exp,2022.2.2,Win32,4.615547935,,,,,,,,,,,,,,,,,,masks/mask_001.jpg,,,,,,,,,,,,,,,,,,,,,,,,,,,,,,,,,,,,,,,,,,,0,3,3,0,1,,,,,,,,,,,,,,,,,,,,,,,
383112,001,2022-11-14_24h28.01.193,Info_measure_main_exp,2022.2.2,Win32,4.615547935,,,,,,,,,,,,,,,,,,masks/mask_005.jpg,,,,,,,,,,,,,,,,,,,,,,,,,,,,,,,,,,,,,,,,,,,0,4,4,4,1,,,,,,,,,,,,,,,,,,,,,,,
383112,001,2022-11-14_24h28.01.193,Info_measure_main_exp,2022.2.2,Win32,4.615547935,,,,,,,,,,,,,,,,,,masks/mask_005.jpg,,,,,,,,,,,,,,,,,,,,,,,,,,,,,,,,,,,,,,,,,,,,,,,,0,0,0,4,1,,,,,,,,,,,,,,,,,,
383112,001,2022-11-14_24h28.01.193,Info_measure_main_exp,2022.2.2,Win32,4.615547935,,,,,,,,,,,,,,,,,,masks/mask_003.jpg,,,,,,,,,,,,,,,,,,,,,,,,,,,,,,,,,,,,,,,,,,,,,,,,0,1,1,2,1,,,,,,,,,,,,,,,,,,
383112,001,2022-11-14_24h28.01.193,Info_measure_main_exp,2022.2.2,Win32,4.615547935,,,,,,,,,,,,,,,,,,masks/mask_001.jpg,,,,,,,,,,,,,,,,,,,,,,,,,,,,,,,,,,,,,,,,,,,,,,,,0,2,2,0,1,,,,,,,,,,,,,,,,,,
383112,001,2022-11-14_24h28.01.193,Info_measure_main_exp,2022.2.2,Win32,4.615547935,,,,,,,,,,,,,,,,,,masks/mask_004.jpg,,,,,,,,,,,,,,,,,,,,,,,,,,,,,,,,,,,,,,,,,,,,,,,,0,3,3,3,1,,,,,,,,,,,,,,,,,,
383112,001,2022-11-14_24h28.01.193,Info_measure_main_exp,2022.2.2,Win32,4.615547935,,,,,,,,,,,,,,,,,,masks/mask_002.jpg,,,,,,,,,,,,,,,,,,,,,,,,,,,,,,,,,,,,,,,,,,,,,,,,0,4,4,1,1,,,,,,,,,,,,,,,,,,
383112,001,2022-11-14_24h28.01.193,Info_measure_main_exp,2022.2.2,Win32,4.615547935,,,,,,,,,,,,,,,,,,,,,,,,,,,,,,5,0.458,1,,,,,,,,,,,,0,131,5,5,2298,2298,absent_patch/patch0002298.jpg,absent_patch/patch0002298.jpg,,,,,,,,,,,,,,,,,,,,0.011815252,-0.003759398,1,0,0,response3disk,3,0.011815252,-0.004833512,1,0,0,center_square,0,2,2,37,1
383112,001,2022-11-14_24h28.01.193,Info_measure_main_exp,2022.2.2,Win32,4.615547935,,,,,,,,,,,,,,,,,,masks/mask_001.jpg,,,,,,,,,,,,,,,,,,,,,,,,,,,,,,,,,,,,,,,,,,,0,0,0,0,1,,,,,,,,,,,,,,,,,,,,,,,
383112,001,2022-11-14_24h28.01.193,Info_measure_main_exp,2022.2.2,Win32,4.615547935,,,,,,,,,,,,,,,,,,masks/mask_004.jpg,,,,,,,,,,,,,,,,,,,,,,,,,,,,,,,,,,,,,,,,,,,0,1,1,3,1,,,,,,,,,,,,,,,,,,,,,,,
383112,001,2022-11-14_24h28.01.193,Info_measure_main_exp,2022.2.2,Win32,4.615547935,,,,,,,,,,,,,,,,,,masks/mask_005.jpg,,,,,,,,,,,,,,,,,,,,,,,,,,,,,,,,,,,,,,,,,,,0,2,2,4,1,,,,,,,,,,,,,,,,,,,,,,,
383112,001,2022-11-14_24h28.01.193,Info_measure_main_exp,2022.2.2,Win32,4.615547935,,,,,,,,,,,,,,,,,,masks/mask_002.jpg,,,,,,,,,,,,,,,,,,,,,,,,,,,,,,,,,,,,,,,,,,,0,3,3,1,1,,,,,,,,,,,,,,,,,,,,,,,
383112,001,2022-11-14_24h28.01.193,Info_measure_main_exp,2022.2.2,Win32,4.615547935,,,,,,,,,,,,,,,,,,masks/mask_003.jpg,,,,,,,,,,,,,,,,,,,,,,,,,,,,,,,,,,,,,,,,,,,0,4,4,2,1,,,,,,,,,,,,,,,,,,,,,,,
383112,001,2022-11-14_24h28.01.193,Info_measure_main_exp,2022.2.2,Win32,4.615547935,,,,,,,,,,,,,,,,,,masks/mask_004.jpg,,,,,,,,,,,,,,,,,,,,,,,,,,,,,,,,,,,,,,,,,,,,,,,,0,0,0,3,1,,,,,,,,,,,,,,,,,,
383112,001,2022-11-14_24h28.01.193,Info_measure_main_exp,2022.2.2,Win32,4.615547935,,,,,,,,,,,,,,,,,,masks/mask_003.jpg,,,,,,,,,,,,,,,,,,,,,,,,,,,,,,,,,,,,,,,,,,,,,,,,0,1,1,2,1,,,,,,,,,,,,,,,,,,
383112,001,2022-11-14_24h28.01.193,Info_measure_main_exp,2022.2.2,Win32,4.615547935,,,,,,,,,,,,,,,,,,masks/mask_001.jpg,,,,,,,,,,,,,,,,,,,,,,,,,,,,,,,,,,,,,,,,,,,,,,,,0,2,2,0,1,,,,,,,,,,,,,,,,,,
383112,001,2022-11-14_24h28.01.193,Info_measure_main_exp,2022.2.2,Win32,4.615547935,,,,,,,,,,,,,,,,,,masks/mask_005.jpg,,,,,,,,,,,,,,,,,,,,,,,,,,,,,,,,,,,,,,,,,,,,,,,,0,3,3,4,1,,,,,,,,,,,,,,,,,,
383112,001,2022-11-14_24h28.01.193,Info_measure_main_exp,2022.2.2,Win32,4.615547935,,,,,,,,,,,,,,,,,,masks/mask_002.jpg,,,,,,,,,,,,,,,,,,,,,,,,,,,,,,,,,,,,,,,,,,,,,,,,0,4,4,1,1,,,,,,,,,,,,,,,,,,
383112,001,2022-11-14_24h28.01.193,Info_measure_main_exp,2022.2.2,Win32,4.615547935,,,,,,,,,,,,,,,,,,,,,,,,,,,,,,3,4.4828,1,,,,,,,,,,,,0,131,5,5,2154,1974,absent_patch/patch0002154.jpg,absent_patch/patch0001974.jpg,,,,,,,,,,,,,,,,,,,,-0.025778733,-0.156283566,1,0,0,response5disk,4,-0.007518797,0.000537057,1,0,0,center_square,0,3,3,82,1
383112,001,2022-11-14_24h28.01.193,Info_measure_main_exp,2022.2.2,Win32,4.615547935,,,,,,,,,,,,,,,,,,masks/mask_004.jpg,,,,,,,,,,,,,,,,,,,,,,,,,,,,,,,,,,,,,,,,,,,0,0,0,3,1,,,,,,,,,,,,,,,,,,,,,,,
383112,001,2022-11-14_24h28.01.193,Info_measure_main_exp,2022.2.2,Win32,4.615547935,,,,,,,,,,,,,,,,,,masks/mask_001.jpg,,,,,,,,,,,,,,,,,,,,,,,,,,,,,,,,,,,,,,,,,,,0,1,1,0,1,,,,,,,,,,,,,,,,,,,,,,,
383112,001,2022-11-14_24h28.01.193,Info_measure_main_exp,2022.2.2,Win32,4.615547935,,,,,,,,,,,,,,,,,,masks/mask_003.jpg,,,,,,,,,,,,,,,,,,,,,,,,,,,,,,,,,,,,,,,,,,,0,2,2,2,1,,,,,,,,,,,,,,,,,,,,,,,
383112,001,2022-11-14_24h28.01.193,Info_measure_main_exp,2022.2.2,Win32,4.615547935,,,,,,,,,,,,,,,,,,masks/mask_005.jpg,,,,,,,,,,,,,,,,,,,,,,,,,,,,,,,,,,,,,,,,,,,0,3,3,4,1,,,,,,,,,,,,,,,,,,,,,,,
383112,001,2022-11-14_24h28.01.193,Info_measure_main_exp,2022.2.2,Win32,4.615547935,,,,,,,,,,,,,,,,,,masks/mask_002.jpg,,,,,,,,,,,,,,,,,,,,,,,,,,,,,,,,,,,,,,,,,,,0,4,4,1,1,,,,,,,,,,,,,,,,,,,,,,,
383112,001,2022-11-14_24h28.01.193,Info_measure_main_exp,2022.2.2,Win32,4.615547935,,,,,,,,,,,,,,,,,,masks/mask_004.jpg,,,,,,,,,,,,,,,,,,,,,,,,,,,,,,,,,,,,,,,,,,,,,,,,0,0,0,3,1,,,,,,,,,,,,,,,,,,
383112,001,2022-11-14_24h28.01.193,Info_measure_main_exp,2022.2.2,Win32,4.615547935,,,,,,,,,,,,,,,,,,masks/mask_005.jpg,,,,,,,,,,,,,,,,,,,,,,,,,,,,,,,,,,,,,,,,,,,,,,,,0,1,1,4,1,,,,,,,,,,,,,,,,,,
383112,001,2022-11-14_24h28.01.193,Info_measure_main_exp,2022.2.2,Win32,4.615547935,,,,,,,,,,,,,,,,,,masks/mask_003.jpg,,,,,,,,,,,,,,,,,,,,,,,,,,,,,,,,,,,,,,,,,,,,,,,,0,2,2,2,1,,,,,,,,,,,,,,,,,,
383112,001,2022-11-14_24h28.01.193,Info_measure_main_exp,2022.2.2,Win32,4.615547935,,,,,,,,,,,,,,,,,,masks/mask_002.jpg,,,,,,,,,,,,,,,,,,,,,,,,,,,,,,,,,,,,,,,,,,,,,,,,0,3,3,1,1,,,,,,,,,,,,,,,,,,
383112,001,2022-11-14_24h28.01.193,Info_measure_main_exp,2022.2.2,Win32,4.615547935,,,,,,,,,,,,,,,,,,masks/mask_001.jpg,,,,,,,,,,,,,,,,,,,,,,,,,,,,,,,,,,,,,,,,,,,,,,,,0,4,4,0,1,,,,,,,,,,,,,,,,,,
383112,001,2022-11-14_24h28.01.193,Info_measure_main_exp,2022.2.2,Win32,4.615547935,,,,,,,,,,,,,,,,,,,,,,,,,,,,,,5,0.9172,1,,,,,,,,,,,,0,131,5,5,2238,2214,absent_patch/patch0002238.jpg,absent_patch/patch0002214.jpg,,,,,,,,,,,,,,,,,,,,0.038668099,-0.004833512,1,0,0,response3disk,5,0.004296455,-0.00698174,1,0,0,center_square,0,4,4,81,1
383112,001,2022-11-14_24h28.01.193,Info_measure_main_exp,2022.2.2,Win32,4.615547935,,,,,,,,,,,,,,,,,,masks/mask_005.jpg,,,,,,,,,,,,,,,,,,,,,,,,,,,,,,,,,,,,,,,,,,,0,0,0,4,1,,,,,,,,,,,,,,,,,,,,,,,
383112,001,2022-11-14_24h28.01.193,Info_measure_main_exp,2022.2.2,Win32,4.615547935,,,,,,,,,,,,,,,,,,masks/mask_001.jpg,,,,,,,,,,,,,,,,,,,,,,,,,,,,,,,,,,,,,,,,,,,0,1,1,0,1,,,,,,,,,,,,,,,,,,,,,,,
383112,001,2022-11-14_24h28.01.193,Info_measure_main_exp,2022.2.2,Win32,4.615547935,,,,,,,,,,,,,,,,,,masks/mask_004.jpg,,,,,,,,,,,,,,,,,,,,,,,,,,,,,,,,,,,,,,,,,,,0,2,2,3,1,,,,,,,,,,,,,,,,,,,,,,,
383112,001,2022-11-14_24h28.01.193,Info_measure_main_exp,2022.2.2,Win32,4.615547935,,,,,,,,,,,,,,,,,,masks/mask_002.jpg,,,,,,,,,,,,,,,,,,,,,,,,,,,,,,,,,,,,,,,,,,,0,3,3,1,1,,,,,,,,,,,,,,,,,,,,,,,
383112,001,2022-11-14_24h28.01.193,Info_measure_main_exp,2022.2.2,Win32,4.615547935,,,,,,,,,,,,,,,,,,masks/mask_003.jpg,,,,,,,,,,,,,,,,,,,,,,,,,,,,,,,,,,,,,,,,,,,0,4,4,2,1,,,,,,,,,,,,,,,,,,,,,,,
383112,001,2022-11-14_24h28.01.193,Info_measure_main_exp,2022.2.2,Win32,4.615547935,,,,,,,,,,,,,,,,,,masks/mask_004.jpg,,,,,,,,,,,,,,,,,,,,,,,,,,,,,,,,,,,,,,,,,,,,,,,,0,0,0,3,1,,,,,,,,,,,,,,,,,,
383112,001,2022-11-14_24h28.01.193,Info_measure_main_exp,2022.2.2,Win32,4.615547935,,,,,,,,,,,,,,,,,,masks/mask_001.jpg,,,,,,,,,,,,,,,,,,,,,,,,,,,,,,,,,,,,,,,,,,,,,,,,0,1,1,0,1,,,,,,,,,,,,,,,,,,
383112,001,2022-11-14_24h28.01.193,Info_measure_main_exp,2022.2.2,Win32,4.615547935,,,,,,,,,,,,,,,,,,masks/mask_003.jpg,,,,,,,,,,,,,,,,,,,,,,,,,,,,,,,,,,,,,,,,,,,,,,,,0,2,2,2,1,,,,,,,,,,,,,,,,,,
383112,001,2022-11-14_24h28.01.193,Info_measure_main_exp,2022.2.2,Win32,4.615547935,,,,,,,,,,,,,,,,,,masks/mask_005.jpg,,,,,,,,,,,,,,,,,,,,,,,,,,,,,,,,,,,,,,,,,,,,,,,,0,3,3,4,1,,,,,,,,,,,,,,,,,,
383112,001,2022-11-14_24h28.01.193,Info_measure_main_exp,2022.2.2,Win32,4.615547935,,,,,,,,,,,,,,,,,,masks/mask_002.jpg,,,,,,,,,,,,,,,,,,,,,,,,,,,,,,,,,,,,,,,,,,,,,,,,0,4,4,1,1,,,,,,,,,,,,,,,,,,
383112,001,2022-11-14_24h28.01.193,Info_measure_main_exp,2022.2.2,Win32,4.615547935,,,,,,,,,,,,,,,,,,,,,,,,,,,,,,1,0.8193,1,,,,,,,,,,,,1,131,5,5,2190,1,absent_patch/patch0002190.jpg,present_patch/cong_131_5_a.jpg,,,,,,,,,,,,,,,,,,,,-0.148227712,0.056390977,1,0,0,response7disk,6,0.011815252,-0.004833512,1,0,0,center_square,0,5,5,64,1
383112,001,2022-11-14_24h28.01.193,Info_measure_main_exp,2022.2.2,Win32,4.615547935,,,,,,,,,,,,,,,,,,masks/mask_005.jpg,,,,,,,,,,,,,,,,,,,,,,,,,,,,,,,,,,,,,,,,,,,0,0,0,4,1,,,,,,,,,,,,,,,,,,,,,,,
383112,001,2022-11-14_24h28.01.193,Info_measure_main_exp,2022.2.2,Win32,4.615547935,,,,,,,,,,,,,,,,,,masks/mask_004.jpg,,,,,,,,,,,,,,,,,,,,,,,,,,,,,,,,,,,,,,,,,,,0,1,1,3,1,,,,,,,,,,,,,,,,,,,,,,,
383112,001,2022-11-14_24h28.01.193,Info_measure_main_exp,2022.2.2,Win32,4.615547935,,,,,,,,,,,,,,,,,,masks/mask_003.jpg,,,,,,,,,,,,,,,,,,,,,,,,,,,,,,,,,,,,,,,,,,,0,2,2,2,1,,,,,,,,,,,,,,,,,,,,,,,
383112,001,2022-11-14_24h28.01.193,Info_measure_main_exp,2022.2.2,Win32,4.615547935,,,,,,,,,,,,,,,,,,masks/mask_001.jpg,,,,,,,,,,,,,,,,,,,,,,,,,,,,,,,,,,,,,,,,,,,0,3,3,0,1,,,,,,,,,,,,,,,,,,,,,,,
383112,001,2022-11-14_24h28.01.193,Info_measure_main_exp,2022.2.2,Win32,4.615547935,,,,,,,,,,,,,,,,,,masks/mask_002.jpg,,,,,,,,,,,,,,,,,,,,,,,,,,,,,,,,,,,,,,,,,,,0,4,4,1,1,,,,,,,,,,,,,,,,,,,,,,,
383112,001,2022-11-14_24h28.01.193,Info_measure_main_exp,2022.2.2,Win32,4.615547935,,,,,,,,,,,,,,,,,,masks/mask_003.jpg,,,,,,,,,,,,,,,,,,,,,,,,,,,,,,,,,,,,,,,,,,,,,,,,0,0,0,2,1,,,,,,,,,,,,,,,,,,
383112,001,2022-11-14_24h28.01.193,Info_measure_main_exp,2022.2.2,Win32,4.615547935,,,,,,,,,,,,,,,,,,masks/mask_005.jpg,,,,,,,,,,,,,,,,,,,,,,,,,,,,,,,,,,,,,,,,,,,,,,,,0,1,1,4,1,,,,,,,,,,,,,,,,,,
383112,001,2022-11-14_24h28.01.193,Info_measure_main_exp,2022.2.2,Win32,4.615547935,,,,,,,,,,,,,,,,,,masks/mask_004.jpg,,,,,,,,,,,,,,,,,,,,,,,,,,,,,,,,,,,,,,,,,,,,,,,,0,2,2,3,1,,,,,,,,,,,,,,,,,,
383112,001,2022-11-14_24h28.01.193,Info_measure_main_exp,2022.2.2,Win32,4.615547935,,,,,,,,,,,,,,,,,,masks/mask_002.jpg,,,,,,,,,,,,,,,,,,,,,,,,,,,,,,,,,,,,,,,,,,,,,,,,0,3,3,1,1,,,,,,,,,,,,,,,,,,
383112,001,2022-11-14_24h28.01.193,Info_measure_main_exp,2022.2.2,Win32,4.615547935,,,,,,,,,,,,,,,,,,masks/mask_001.jpg,,,,,,,,,,,,,,,,,,,,,,,,,,,,,,,,,,,,,,,,,,,,,,,,0,4,4,0,1,,,,,,,,,,,,,,,,,,
