participant,session,date,expName,psychopyVersion,OS,frameRate,space_press_continue.keys,space_press_continue.rt,space_press_continue_2.keys,space_press_continue_2.rt,space_press_continue_3.keys,space_press_continue_3.rt,space_press_continue_4.keys,space_press_continue_4.rt,space_press_continue_5.keys,space_press_continue_5.rt,space_press_continue_6.keys,space_press_continue_6.rt,prac_mask_loop_1.thisRepN,prac_mask_loop_1.thisTrialN,prac_mask_loop_1.thisN,prac_mask_loop_1.thisIndex,prac_mask_loop_1.ran,mask_name,prac_mask_loop_2.thisRepN,prac_mask_loop_2.thisTrialN,prac_mask_loop_2.thisN,prac_mask_loop_2.thisIndex,prac_mask_loop_2.ran,mouse_2.x,mouse_2.y,mouse_2.leftButton,mouse_2.midButton,mouse_2.rightButton,mouse_2.clicked_name,similarity,response_time,Pass,mouse_12.x,mouse_12.y,mouse_12.leftButton,mouse_12.midButton,mouse_12.rightButton,mouse_12.clicked_name,prac_loop.thisRepN,prac_loop.thisTrialN,prac_loop.thisN,prac_loop.thisIndex,prac_loop.ran,Pair_type,Image_num,Patch_1_loc,Patch_2_loc,Patch_1_info,Patch_2_info,Patch_1_name,Patch_2_name,mouse_1.x,mouse_1.y,mouse_1.leftButton,mouse_1.midButton,mouse_1.rightButton,mouse_1.time,mouse_1.clicked_name,space_press_continue_7.keys,space_press_continue_7.rt,mask_loop.thisRepN,mask_loop.thisTrialN,mask_loop.thisN,mask_loop.thisIndex,mask_loop.ran,mask_loop_2.thisRepN,mask_loop_2.thisTrialN,mask_loop_2.thisN,mask_loop_2.thisIndex,mask_loop_2.ran,mouse.x,mouse.y,mouse.leftButton,mouse.midButton,mouse.rightButton,mouse.clicked_name,trialNumber,mouse_11.x,mouse_11.y,mouse_11.leftButton,mouse_11.midButton,mouse_11.rightButton,mouse_11.clicked_name,first_pass_loop.thisRepN,first_pass_loop.thisTrialN,first_pass_loop.thisN,first_pass_loop.thisIndex,first_pass_loop.ran,mask_loop_3.thisRepN,mask_loop_3.thisTrialN,mask_loop_3.thisN,mask_loop_3.thisIndex,mask_loop_3.ran,mask_loop_4.thisRepN,mask_loop_4.thisTrialN,mask_loop_4.thisN,mask_loop_4.thisIndex,mask_loop_4.ran,mouse_3.x,mouse_3.y,mouse_3.leftButton,mouse_3.midButton,mouse_3.rightButton,mouse_3.clicked_name,double_pass_loop.thisRepN,double_pass_loop.thisTrialN,double_pass_loop.thisN,double_pass_loop.thisIndex,double_pass_loop.ran,space_exit.keys,space_exit.rt
383138,001,2022-11-21_01h14.10.712,Info_measure_main_exp,2022.2.2,Win32,60.2373351,,,,,,,,,,,,,,,,,,,,,,,,,,,,,,,,,,,,,,,,,,,,,,,,,,,,,,,,,,,,,,,,,,,,,,,,,,,,,,,,,,,,,,,,,,,,,,,,,,,,,,,,,,,,,,,
383138,001,2022-11-21_01h14.10.712,Info_measure_main_exp,2022.2.2,Win32,60.2373351,,,,,,,,,,,,,,,,,,,,,,,,,,,,,,,,,,,,,,,,,,,,,,,,,,,,,,,,,,,,,,,,,,,,,,,,,,,,,,,,,,,,,,,,,,,,,,,,,,,,,,,,,,,,,,,
383138,001,2022-11-21_01h14.10.712,Info_measure_main_exp,2022.2.2,Win32,60.2373351,space,1.3437,,,,,,,,,,,,,,,,,,,,,,,,,,,,,,,,,,,,,,,,,,,,,,,,,,,,,,,,,,,,,,,,,,,,,,,,,,,,,,,,,,,,,,,,,,,,,,,,,,,,,,,,,,,,,
383138,001,2022-11-21_01h14.10.712,Info_measure_main_exp,2022.2.2,Win32,60.2373351,,,space,10.8319,,,,,,,,,,,,,,,,,,,,,,,,,,,,,,,,,,,,,,,,,,,,,,,,,,,,,,,,,,,,,,,,,,,,,,,,,,,,,,,,,,,,,,,,,,,,,,,,,,,,,,,,,,,
383138,001,2022-11-21_01h14.10.712,Info_measure_main_exp,2022.2.2,Win32,60.2373351,,,,,space,1.5655,,,,,,,,,,,,,,,,,,,,,,,,,,,,,,,,,,,,,,,,,,,,,,,,,,,,,,,,,,,,,,,,,,,,,,,,,,,,,,,,,,,,,,,,,,,,,,,,,,,,,,,,,
383138,001,2022-11-21_01h14.10.712,Info_measure_main_exp,2022.2.2,Win32,60.2373351,,,,,,,space,3.8369,,,,,,,,,,,,,,,,,,,,,,,,,,,,,,,,,,,,,,,,,,,,,,,,,,,,,,,,,,,,,,,,,,,,,,,,,,,,,,,,,,,,,,,,,,,,,,,,,,,,,,,
383138,001,2022-11-21_01h14.10.712,Info_measure_main_exp,2022.2.2,Win32,60.2373351,,,,,,,,,space,0.6612,,,,,,,,,,,,,,,,,,,,,,,,,,,,,,,,,,,,,,,,,,,,,,,,,,,,,,,,,,,,,,,,,,,,,,,,,,,,,,,,,,,,,,,,,,,,,,,,,,,,,
383138,001,2022-11-21_01h14.10.712,Info_measure_main_exp,2022.2.2,Win32,60.2373351,,,,,,,,,,,space,0.5071,,,,,,,,,,,,,,,,,,,,,,,,,,,,,,,,,,,,,,,,,,,,,,,,,,,,,,,,,,,,,,,,,,,,,,,,,,,,,,,,,,,,,,,,,,,,,,,,,,,
383138,001,2022-11-21_01h14.10.712,Info_measure_main_exp,2022.2.2,Win32,60.2373351,,,,,,,,,,,,,0,0,0,3,1,masks/mask_004.jpg,,,,,,,,,,,,,,,,,,,,,,,,,,,,,,,,,,,,,,,,,,,,,,,,,,,,,,,,,,,,,,,,,,,,,,,,,,,,,,,,,,,,,,,,,,,,,
383138,001,2022-11-21_01h14.10.712,Info_measure_main_exp,2022.2.2,Win32,60.2373351,,,,,,,,,,,,,0,1,1,0,1,masks/mask_001.jpg,,,,,,,,,,,,,,,,,,,,,,,,,,,,,,,,,,,,,,,,,,,,,,,,,,,,,,,,,,,,,,,,,,,,,,,,,,,,,,,,,,,,,,,,,,,,,
383138,001,2022-11-21_01h14.10.712,Info_measure_main_exp,2022.2.2,Win32,60.2373351,,,,,,,,,,,,,0,2,2,2,1,masks/mask_003.jpg,,,,,,,,,,,,,,,,,,,,,,,,,,,,,,,,,,,,,,,,,,,,,,,,,,,,,,,,,,,,,,,,,,,,,,,,,,,,,,,,,,,,,,,,,,,,,
383138,001,2022-11-21_01h14.10.712,Info_measure_main_exp,2022.2.2,Win32,60.2373351,,,,,,,,,,,,,0,3,3,1,1,masks/mask_002.jpg,,,,,,,,,,,,,,,,,,,,,,,,,,,,,,,,,,,,,,,,,,,,,,,,,,,,,,,,,,,,,,,,,,,,,,,,,,,,,,,,,,,,,,,,,,,,,
383138,001,2022-11-21_01h14.10.712,Info_measure_main_exp,2022.2.2,Win32,60.2373351,,,,,,,,,,,,,0,4,4,4,1,masks/mask_005.jpg,,,,,,,,,,,,,,,,,,,,,,,,,,,,,,,,,,,,,,,,,,,,,,,,,,,,,,,,,,,,,,,,,,,,,,,,,,,,,,,,,,,,,,,,,,,,,
383138,001,2022-11-21_01h14.10.712,Info_measure_main_exp,2022.2.2,Win32,60.2373351,,,,,,,,,,,,,,,,,,masks/mask_002.jpg,0,0,0,1,1,,,,,,,,,,,,,,,,,,,,,,,,,,,,,,,,,,,,,,,,,,,,,,,,,,,,,,,,,,,,,,,,,,,,,,,,,,,,,,,,,,,,,,,,
383138,001,2022-11-21_01h14.10.712,Info_measure_main_exp,2022.2.2,Win32,60.2373351,,,,,,,,,,,,,,,,,,masks/mask_005.jpg,0,1,1,4,1,,,,,,,,,,,,,,,,,,,,,,,,,,,,,,,,,,,,,,,,,,,,,,,,,,,,,,,,,,,,,,,,,,,,,,,,,,,,,,,,,,,,,,,,
383138,001,2022-11-21_01h14.10.712,Info_measure_main_exp,2022.2.2,Win32,60.2373351,,,,,,,,,,,,,,,,,,masks/mask_001.jpg,0,2,2,0,1,,,,,,,,,,,,,,,,,,,,,,,,,,,,,,,,,,,,,,,,,,,,,,,,,,,,,,,,,,,,,,,,,,,,,,,,,,,,,,,,,,,,,,,,
383138,001,2022-11-21_01h14.10.712,Info_measure_main_exp,2022.2.2,Win32,60.2373351,,,,,,,,,,,,,,,,,,masks/mask_004.jpg,0,3,3,3,1,,,,,,,,,,,,,,,,,,,,,,,,,,,,,,,,,,,,,,,,,,,,,,,,,,,,,,,,,,,,,,,,,,,,,,,,,,,,,,,,,,,,,,,,
383138,001,2022-11-21_01h14.10.712,Info_measure_main_exp,2022.2.2,Win32,60.2373351,,,,,,,,,,,,,,,,,,masks/mask_003.jpg,0,4,4,2,1,,,,,,,,,,,,,,,,,,,,,,,,,,,,,,,,,,,,,,,,,,,,,,,,,,,,,,,,,,,,,,,,,,,,,,,,,,,,,,,,,,,,,,,,
383138,001,2022-11-21_01h14.10.712,Info_measure_main_exp,2022.2.2,Win32,60.2373351,,,,,,,,,,,,,,,,,,,,,,,,-0.037760417,0.09375,1,0,0,response7disk,0,22.4928,1,0.009114583,0,1,0,0,center_square,0,0,0,2,1,0,131,5,5,2526,2526,prac_patch/patch0002526.jpg,prac_patch/patch0002526.jpg,,,,,,,,,,,,,,,,,,,,,,,,,,,,,,,,,,,,,,,,,,,,,,,,,,,,,,,,,,,,
383138,001,2022-11-21_01h14.10.712,Info_measure_main_exp,2022.2.2,Win32,60.2373351,,,,,,,,,,,,,0,0,0,1,1,masks/mask_002.jpg,,,,,,,,,,,,,,,,,,,,,,,,,,,,,,,,,,,,,,,,,,,,,,,,,,,,,,,,,,,,,,,,,,,,,,,,,,,,,,,,,,,,,,,,,,,,,
383138,001,2022-11-21_01h14.10.712,Info_measure_main_exp,2022.2.2,Win32,60.2373351,,,,,,,,,,,,,0,1,1,2,1,masks/mask_003.jpg,,,,,,,,,,,,,,,,,,,,,,,,,,,,,,,,,,,,,,,,,,,,,,,,,,,,,,,,,,,,,,,,,,,,,,,,,,,,,,,,,,,,,,,,,,,,,
383138,001,2022-11-21_01h14.10.712,Info_measure_main_exp,2022.2.2,Win32,60.2373351,,,,,,,,,,,,,0,2,2,3,1,masks/mask_004.jpg,,,,,,,,,,,,,,,,,,,,,,,,,,,,,,,,,,,,,,,,,,,,,,,,,,,,,,,,,,,,,,,,,,,,,,,,,,,,,,,,,,,,,,,,,,,,,
383138,001,2022-11-21_01h14.10.712,Info_measure_main_exp,2022.2.2,Win32,60.2373351,,,,,,,,,,,,,0,3,3,0,1,masks/mask_001.jpg,,,,,,,,,,,,,,,,,,,,,,,,,,,,,,,,,,,,,,,,,,,,,,,,,,,,,,,,,,,,,,,,,,,,,,,,,,,,,,,,,,,,,,,,,,,,,
383138,001,2022-11-21_01h14.10.712,Info_measure_main_exp,2022.2.2,Win32,60.2373351,,,,,,,,,,,,,0,4,4,4,1,masks/mask_005.jpg,,,,,,,,,,,,,,,,,,,,,,,,,,,,,,,,,,,,,,,,,,,,,,,,,,,,,,,,,,,,,,,,,,,,,,,,,,,,,,,,,,,,,,,,,,,,,
383138,001,2022-11-21_01h14.10.712,Info_measure_main_exp,2022.2.2,Win32,60.2373351,,,,,,,,,,,,,,,,,,masks/mask_001.jpg,0,0,0,0,1,,,,,,,,,,,,,,,,,,,,,,,,,,,,,,,,,,,,,,,,,,,,,,,,,,,,,,,,,,,,,,,,,,,,,,,,,,,,,,,,,,,,,,,,
383138,001,2022-11-21_01h14.10.712,Info_measure_main_exp,2022.2.2,Win32,60.2373351,,,,,,,,,,,,,,,,,,masks/mask_003.jpg,0,1,1,2,1,,,,,,,,,,,,,,,,,,,,,,,,,,,,,,,,,,,,,,,,,,,,,,,,,,,,,,,,,,,,,,,,,,,,,,,,,,,,,,,,,,,,,,,,
383138,001,2022-11-21_01h14.10.712,Info_measure_main_exp,2022.2.2,Win32,60.2373351,,,,,,,,,,,,,,,,,,masks/mask_004.jpg,0,2,2,3,1,,,,,,,,,,,,,,,,,,,,,,,,,,,,,,,,,,,,,,,,,,,,,,,,,,,,,,,,,,,,,,,,,,,,,,,,,,,,,,,,,,,,,,,,
383138,001,2022-11-21_01h14.10.712,Info_measure_main_exp,2022.2.2,Win32,60.2373351,,,,,,,,,,,,,,,,,,masks/mask_002.jpg,0,3,3,1,1,,,,,,,,,,,,,,,,,,,,,,,,,,,,,,,,,,,,,,,,,,,,,,,,,,,,,,,,,,,,,,,,,,,,,,,,,,,,,,,,,,,,,,,,
383138,001,2022-11-21_01h14.10.712,Info_measure_main_exp,2022.2.2,Win32,60.2373351,,,,,,,,,,,,,,,,,,masks/mask_005.jpg,0,4,4,4,1,,,,,,,,,,,,,,,,,,,,,,,,,,,,,,,,,,,,,,,,,,,,,,,,,,,,,,,,,,,,,,,,,,,,,,,,,,,,,,,,,,,,,,,,
383138,001,2022-11-21_01h14.10.712,Info_measure_main_exp,2022.2.2,Win32,60.2373351,,,,,,,,,,,,,,,,,,,,,,,,-0.013020833,-0.029947917,1,0,0,response5disk,3,29.7387,1,0,0.009114583,1,0,0,center_square,0,1,1,0,1,0,131,5,5,2370,2406,prac_patch/patch0002370.jpg,prac_patch/patch0002406.jpg,,,,,,,,,,,,,,,,,,,,,,,,,,,,,,,,,,,,,,,,,,,,,,,,,,,,,,,,,,,,
383138,001,2022-11-21_01h14.10.712,Info_measure_main_exp,2022.2.2,Win32,60.2373351,,,,,,,,,,,,,0,0,0,4,1,masks/mask_005.jpg,,,,,,,,,,,,,,,,,,,,,,,,,,,,,,,,,,,,,,,,,,,,,,,,,,,,,,,,,,,,,,,,,,,,,,,,,,,,,,,,,,,,,,,,,,,,,
383138,001,2022-11-21_01h14.10.712,Info_measure_main_exp,2022.2.2,Win32,60.2373351,,,,,,,,,,,,,0,1,1,3,1,masks/mask_004.jpg,,,,,,,,,,,,,,,,,,,,,,,,,,,,,,,,,,,,,,,,,,,,,,,,,,,,,,,,,,,,,,,,,,,,,,,,,,,,,,,,,,,,,,,,,,,,,
383138,001,2022-11-21_01h14.10.712,Info_measure_main_exp,2022.2.2,Win32,60.2373351,,,,,,,,,,,,,0,2,2,0,1,masks/mask_001.jpg,,,,,,,,,,,,,,,,,,,,,,,,,,,,,,,,,,,,,,,,,,,,,,,,,,,,,,,,,,,,,,,,,,,,,,,,,,,,,,,,,,,,,,,,,,,,,
383138,001,2022-11-21_01h14.10.712,Info_measure_main_exp,2022.2.2,Win32,60.2373351,,,,,,,,,,,,,0,3,3,1,1,masks/mask_002.jpg,,,,,,,,,,,,,,,,,,,,,,,,,,,,,,,,,,,,,,,,,,,,,,,,,,,,,,,,,,,,,,,,,,,,,,,,,,,,,,,,,,,,,,,,,,,,,
383138,001,2022-11-21_01h14.10.712,Info_measure_main_exp,2022.2.2,Win32,60.2373351,,,,,,,,,,,,,0,4,4,2,1,masks/mask_003.jpg,,,,,,,,,,,,,,,,,,,,,,,,,,,,,,,,,,,,,,,,,,,,,,,,,,,,,,,,,,,,,,,,,,,,,,,,,,,,,,,,,,,,,,,,,,,,,
383138,001,2022-11-21_01h14.10.712,Info_measure_main_exp,2022.2.2,Win32,60.2373351,,,,,,,,,,,,,,,,,,masks/mask_001.jpg,0,0,0,0,1,,,,,,,,,,,,,,,,,,,,,,,,,,,,,,,,,,,,,,,,,,,,,,,,,,,,,,,,,,,,,,,,,,,,,,,,,,,,,,,,,,,,,,,,
383138,001,2022-11-21_01h14.10.712,Info_measure_main_exp,2022.2.2,Win32,60.2373351,,,,,,,,,,,,,,,,,,masks/mask_002.jpg,0,1,1,1,1,,,,,,,,,,,,,,,,,,,,,,,,,,,,,,,,,,,,,,,,,,,,,,,,,,,,,,,,,,,,,,,,,,,,,,,,,,,,,,,,,,,,,,,,
383138,001,2022-11-21_01h14.10.712,Info_measure_main_exp,2022.2.2,Win32,60.2373351,,,,,,,,,,,,,,,,,,masks/mask_005.jpg,0,2,2,4,1,,,,,,,,,,,,,,,,,,,,,,,,,,,,,,,,,,,,,,,,,,,,,,,,,,,,,,,,,,,,,,,,,,,,,,,,,,,,,,,,,,,,,,,,
383138,001,2022-11-21_01h14.10.712,Info_measure_main_exp,2022.2.2,Win32,60.2373351,,,,,,,,,,,,,,,,,,masks/mask_004.jpg,0,3,3,3,1,,,,,,,,,,,,,,,,,,,,,,,,,,,,,,,,,,,,,,,,,,,,,,,,,,,,,,,,,,,,,,,,,,,,,,,,,,,,,,,,,,,,,,,,
383138,001,2022-11-21_01h14.10.712,Info_measure_main_exp,2022.2.2,Win32,60.2373351,,,,,,,,,,,,,,,,,,masks/mask_003.jpg,0,4,4,2,1,,,,,,,,,,,,,,,,,,,,,,,,,,,,,,,,,,,,,,,,,,,,,,,,,,,,,,,,,,,,,,,,,,,,,,,,,,,,,,,,,,,,,,,,
383138,001,2022-11-21_01h14.10.712,Info_measure_main_exp,2022.2.2,Win32,60.2373351,,,,,,,,,,,,,,,,,,,,,,,,-0.0078125,-0.029947917,1,0,0,response5disk,3,38.0885,1,-0.002604167,-0.01171875,1,0,0,center_square,0,2,2,1,1,0,131,5,5,2514,2490,prac_patch/patch0002514.jpg,prac_patch/patch0002490.jpg,,,,,,,,,,,,,,,,,,,,,,,,,,,,,,,,,,,,,,,,,,,,,,,,,,,,,,,,,,,,
383138,001,2022-11-21_01h14.10.712,Info_measure_main_exp,2022.2.2,Win32,60.2373351,,,,,,,,,,,,,,,,,,,,,,,,,,,,,,,,,,,,,,,,,,,,,,,,,,,,,,,,,,,space,1.3301,,,,,,,,,,,,,,,,,,,,,,,,,,,,,,,,,,,,,,,,,,,,,,,,,,,
383138,001,2022-11-21_01h14.10.712,Info_measure_main_exp,2022.2.2,Win32,60.2373351,,,,,,,,,,,,,,,,,,masks/mask_001.jpg,,,,,,,,,,,,,,,,,,,,,,,,,,,,,,,,,,,,,,,,,,,0,0,0,0,1,,,,,,,,,,,,,,,,,,,,,,,,,,,,,,,,,,,,,,,,,,,,,,
383138,001,2022-11-21_01h14.10.712,Info_measure_main_exp,2022.2.2,Win32,60.2373351,,,,,,,,,,,,,,,,,,masks/mask_002.jpg,,,,,,,,,,,,,,,,,,,,,,,,,,,,,,,,,,,,,,,,,,,0,1,1,1,1,,,,,,,,,,,,,,,,,,,,,,,,,,,,,,,,,,,,,,,,,,,,,,
383138,001,2022-11-21_01h14.10.712,Info_measure_main_exp,2022.2.2,Win32,60.2373351,,,,,,,,,,,,,,,,,,masks/mask_004.jpg,,,,,,,,,,,,,,,,,,,,,,,,,,,,,,,,,,,,,,,,,,,0,2,2,3,1,,,,,,,,,,,,,,,,,,,,,,,,,,,,,,,,,,,,,,,,,,,,,,
383138,001,2022-11-21_01h14.10.712,Info_measure_main_exp,2022.2.2,Win32,60.2373351,,,,,,,,,,,,,,,,,,masks/mask_005.jpg,,,,,,,,,,,,,,,,,,,,,,,,,,,,,,,,,,,,,,,,,,,0,3,3,4,1,,,,,,,,,,,,,,,,,,,,,,,,,,,,,,,,,,,,,,,,,,,,,,
383138,001,2022-11-21_01h14.10.712,Info_measure_main_exp,2022.2.2,Win32,60.2373351,,,,,,,,,,,,,,,,,,masks/mask_003.jpg,,,,,,,,,,,,,,,,,,,,,,,,,,,,,,,,,,,,,,,,,,,0,4,4,2,1,,,,,,,,,,,,,,,,,,,,,,,,,,,,,,,,,,,,,,,,,,,,,,
383138,001,2022-11-21_01h14.10.712,Info_measure_main_exp,2022.2.2,Win32,60.2373351,,,,,,,,,,,,,,,,,,masks/mask_005.jpg,,,,,,,,,,,,,,,,,,,,,,,,,,,,,,,,,,,,,,,,,,,,,,,,0,0,0,4,1,,,,,,,,,,,,,,,,,,,,,,,,,,,,,,,,,,,,,,,,,
383138,001,2022-11-21_01h14.10.712,Info_measure_main_exp,2022.2.2,Win32,60.2373351,,,,,,,,,,,,,,,,,,masks/mask_002.jpg,,,,,,,,,,,,,,,,,,,,,,,,,,,,,,,,,,,,,,,,,,,,,,,,0,1,1,1,1,,,,,,,,,,,,,,,,,,,,,,,,,,,,,,,,,,,,,,,,,
383138,001,2022-11-21_01h14.10.712,Info_measure_main_exp,2022.2.2,Win32,60.2373351,,,,,,,,,,,,,,,,,,masks/mask_003.jpg,,,,,,,,,,,,,,,,,,,,,,,,,,,,,,,,,,,,,,,,,,,,,,,,0,2,2,2,1,,,,,,,,,,,,,,,,,,,,,,,,,,,,,,,,,,,,,,,,,
383138,001,2022-11-21_01h14.10.712,Info_measure_main_exp,2022.2.2,Win32,60.2373351,,,,,,,,,,,,,,,,,,masks/mask_001.jpg,,,,,,,,,,,,,,,,,,,,,,,,,,,,,,,,,,,,,,,,,,,,,,,,0,3,3,0,1,,,,,,,,,,,,,,,,,,,,,,,,,,,,,,,,,,,,,,,,,
383138,001,2022-11-21_01h14.10.712,Info_measure_main_exp,2022.2.2,Win32,60.2373351,,,,,,,,,,,,,,,,,,masks/mask_004.jpg,,,,,,,,,,,,,,,,,,,,,,,,,,,,,,,,,,,,,,,,,,,,,,,,0,4,4,3,1,,,,,,,,,,,,,,,,,,,,,,,,,,,,,,,,,,,,,,,,,
383138,001,2022-11-21_01h14.10.712,Info_measure_main_exp,2022.2.2,Win32,60.2373351,,,,,,,,,,,,,,,,,,,,,,,,,,,,,,7,1.1646,1,,,,,,,,,,,,1,131,5,5,2082,1,absent_patch/patch0002082.jpg,present_patch/cong_131_5_a.jpg,,,,,,,,,,,,,,,,,,,,0.029947917,0.083333333,1,0,0,response1disk,1,0,0.005208333,1,0,0,center_square,0,0,0,65,1,,,,,,,,,,,,,,,,,,,,,,,
383138,001,2022-11-21_01h14.10.712,Info_measure_main_exp,2022.2.2,Win32,60.2373351,,,,,,,,,,,,,,,,,,masks/mask_002.jpg,,,,,,,,,,,,,,,,,,,,,,,,,,,,,,,,,,,,,,,,,,,0,0,0,1,1,,,,,,,,,,,,,,,,,,,,,,,,,,,,,,,,,,,,,,,,,,,,,,
383138,001,2022-11-21_01h14.10.712,Info_measure_main_exp,2022.2.2,Win32,60.2373351,,,,,,,,,,,,,,,,,,masks/mask_004.jpg,,,,,,,,,,,,,,,,,,,,,,,,,,,,,,,,,,,,,,,,,,,0,1,1,3,1,,,,,,,,,,,,,,,,,,,,,,,,,,,,,,,,,,,,,,,,,,,,,,
383138,001,2022-11-21_01h14.10.712,Info_measure_main_exp,2022.2.2,Win32,60.2373351,,,,,,,,,,,,,,,,,,masks/mask_003.jpg,,,,,,,,,,,,,,,,,,,,,,,,,,,,,,,,,,,,,,,,,,,0,2,2,2,1,,,,,,,,,,,,,,,,,,,,,,,,,,,,,,,,,,,,,,,,,,,,,,
383138,001,2022-11-21_01h14.10.712,Info_measure_main_exp,2022.2.2,Win32,60.2373351,,,,,,,,,,,,,,,,,,masks/mask_001.jpg,,,,,,,,,,,,,,,,,,,,,,,,,,,,,,,,,,,,,,,,,,,0,3,3,0,1,,,,,,,,,,,,,,,,,,,,,,,,,,,,,,,,,,,,,,,,,,,,,,
383138,001,2022-11-21_01h14.10.712,Info_measure_main_exp,2022.2.2,Win32,60.2373351,,,,,,,,,,,,,,,,,,masks/mask_005.jpg,,,,,,,,,,,,,,,,,,,,,,,,,,,,,,,,,,,,,,,,,,,0,4,4,4,1,,,,,,,,,,,,,,,,,,,,,,,,,,,,,,,,,,,,,,,,,,,,,,
383138,001,2022-11-21_01h14.10.712,Info_measure_main_exp,2022.2.2,Win32,60.2373351,,,,,,,,,,,,,,,,,,masks/mask_001.jpg,,,,,,,,,,,,,,,,,,,,,,,,,,,,,,,,,,,,,,,,,,,,,,,,0,0,0,0,1,,,,,,,,,,,,,,,,,,,,,,,,,,,,,,,,,,,,,,,,,
383138,001,2022-11-21_01h14.10.712,Info_measure_main_exp,2022.2.2,Win32,60.2373351,,,,,,,,,,,,,,,,,,masks/mask_003.jpg,,,,,,,,,,,,,,,,,,,,,,,,,,,,,,,,,,,,,,,,,,,,,,,,0,1,1,2,1,,,,,,,,,,,,,,,,,,,,,,,,,,,,,,,,,,,,,,,,,
383138,001,2022-11-21_01h14.10.712,Info_measure_main_exp,2022.2.2,Win32,60.2373351,,,,,,,,,,,,,,,,,,masks/mask_005.jpg,,,,,,,,,,,,,,,,,,,,,,,,,,,,,,,,,,,,,,,,,,,,,,,,0,2,2,4,1,,,,,,,,,,,,,,,,,,,,,,,,,,,,,,,,,,,,,,,,,
383138,001,2022-11-21_01h14.10.712,Info_measure_main_exp,2022.2.2,Win32,60.2373351,,,,,,,,,,,,,,,,,,masks/mask_004.jpg,,,,,,,,,,,,,,,,,,,,,,,,,,,,,,,,,,,,,,,,,,,,,,,,0,3,3,3,1,,,,,,,,,,,,,,,,,,,,,,,,,,,,,,,,,,,,,,,,,
383138,001,2022-11-21_01h14.10.712,Info_measure_main_exp,2022.2.2,Win32,60.2373351,,,,,,,,,,,,,,,,,,masks/mask_002.jpg,,,,,,,,,,,,,,,,,,,,,,,,,,,,,,,,,,,,,,,,,,,,,,,,0,4,4,1,1,,,,,,,,,,,,,,,,,,,,,,,,,,,,,,,,,,,,,,,,,
383138,001,2022-11-21_01h14.10.712,Info_measure_main_exp,2022.2.2,Win32,60.2373351,,,,,,,,,,,,,,,,,,,,,,,,,,,,,,6,0.8163,1,,,,,,,,,,,,0,131,5,5,1986,2142,absent_patch/patch0001986.jpg,absent_patch/patch0002142.jpg,,,,,,,,,,,,,,,,,,,,0.053385417,0.015625,1,0,0,response1disk,2,0,-0.015625,1,0,0,center_square,0,1,1,76,1,,,,,,,,,,,,,,,,,,,,,,,
383138,001,2022-11-21_01h14.10.712,Info_measure_main_exp,2022.2.2,Win32,60.2373351,,,,,,,,,,,,,,,,,,masks/mask_003.jpg,,,,,,,,,,,,,,,,,,,,,,,,,,,,,,,,,,,,,,,,,,,0,0,0,2,1,,,,,,,,,,,,,,,,,,,,,,,,,,,,,,,,,,,,,,,,,,,,,,
383138,001,2022-11-21_01h14.10.712,Info_measure_main_exp,2022.2.2,Win32,60.2373351,,,,,,,,,,,,,,,,,,masks/mask_004.jpg,,,,,,,,,,,,,,,,,,,,,,,,,,,,,,,,,,,,,,,,,,,0,1,1,3,1,,,,,,,,,,,,,,,,,,,,,,,,,,,,,,,,,,,,,,,,,,,,,,
383138,001,2022-11-21_01h14.10.712,Info_measure_main_exp,2022.2.2,Win32,60.2373351,,,,,,,,,,,,,,,,,,masks/mask_005.jpg,,,,,,,,,,,,,,,,,,,,,,,,,,,,,,,,,,,,,,,,,,,0,2,2,4,1,,,,,,,,,,,,,,,,,,,,,,,,,,,,,,,,,,,,,,,,,,,,,,
383138,001,2022-11-21_01h14.10.712,Info_measure_main_exp,2022.2.2,Win32,60.2373351,,,,,,,,,,,,,,,,,,masks/mask_002.jpg,,,,,,,,,,,,,,,,,,,,,,,,,,,,,,,,,,,,,,,,,,,0,3,3,1,1,,,,,,,,,,,,,,,,,,,,,,,,,,,,,,,,,,,,,,,,,,,,,,
383138,001,2022-11-21_01h14.10.712,Info_measure_main_exp,2022.2.2,Win32,60.2373351,,,,,,,,,,,,,,,,,,masks/mask_001.jpg,,,,,,,,,,,,,,,,,,,,,,,,,,,,,,,,,,,,,,,,,,,0,4,4,0,1,,,,,,,,,,,,,,,,,,,,,,,,,,,,,,,,,,,,,,,,,,,,,,
383138,001,2022-11-21_01h14.10.712,Info_measure_main_exp,2022.2.2,Win32,60.2373351,,,,,,,,,,,,,,,,,,masks/mask_002.jpg,,,,,,,,,,,,,,,,,,,,,,,,,,,,,,,,,,,,,,,,,,,,,,,,0,0,0,1,1,,,,,,,,,,,,,,,,,,,,,,,,,,,,,,,,,,,,,,,,,
383138,001,2022-11-21_01h14.10.712,Info_measure_main_exp,2022.2.2,Win32,60.2373351,,,,,,,,,,,,,,,,,,masks/mask_004.jpg,,,,,,,,,,,,,,,,,,,,,,,,,,,,,,,,,,,,,,,,,,,,,,,,0,1,1,3,1,,,,,,,,,,,,,,,,,,,,,,,,,,,,,,,,,,,,,,,,,
383138,001,2022-11-21_01h14.10.712,Info_measure_main_exp,2022.2.2,Win32,60.2373351,,,,,,,,,,,,,,,,,,masks/mask_003.jpg,,,,,,,,,,,,,,,,,,,,,,,,,,,,,,,,,,,,,,,,,,,,,,,,0,2,2,2,1,,,,,,,,,,,,,,,,,,,,,,,,,,,,,,,,,,,,,,,,,
383138,001,2022-11-21_01h14.10.712,Info_measure_main_exp,2022.2.2,Win32,60.2373351,,,,,,,,,,,,,,,,,,masks/mask_005.jpg,,,,,,,,,,,,,,,,,,,,,,,,,,,,,,,,,,,,,,,,,,,,,,,,0,3,3,4,1,,,,,,,,,,,,,,,,,,,,,,,,,,,,,,,,,,,,,,,,,
383138,001,2022-11-21_01h14.10.712,Info_measure_main_exp,2022.2.2,Win32,60.2373351,,,,,,,,,,,,,,,,,,masks/mask_001.jpg,,,,,,,,,,,,,,,,,,,,,,,,,,,,,,,,,,,,,,,,,,,,,,,,0,4,4,0,1,,,,,,,,,,,,,,,,,,,,,,,,,,,,,,,,,,,,,,,,,
383138,001,2022-11-21_01h14.10.712,Info_measure_main_exp,2022.2.2,Win32,60.2373351,,,,,,,,,,,,,,,,,,,,,,,,,,,,,,2,1.3005,1,,,,,,,,,,,,0,131,5,5,2082,1974,absent_patch/patch0002082.jpg,absent_patch/patch0001974.jpg,,,,,,,,,,,,,,,,,,,,-0.0390625,-0.013020833,1,0,0,response5disk,3,0.014322917,0.002604167,1,0,0,center_square,0,2,2,26,1,,,,,,,,,,,,,,,,,,,,,,,
383138,001,2022-11-21_01h14.10.712,Info_measure_main_exp,2022.2.2,Win32,60.2373351,,,,,,,,,,,,,,,,,,masks/mask_002.jpg,,,,,,,,,,,,,,,,,,,,,,,,,,,,,,,,,,,,,,,,,,,0,0,0,1,1,,,,,,,,,,,,,,,,,,,,,,,,,,,,,,,,,,,,,,,,,,,,,,
383138,001,2022-11-21_01h14.10.712,Info_measure_main_exp,2022.2.2,Win32,60.2373351,,,,,,,,,,,,,,,,,,masks/mask_004.jpg,,,,,,,,,,,,,,,,,,,,,,,,,,,,,,,,,,,,,,,,,,,0,1,1,3,1,,,,,,,,,,,,,,,,,,,,,,,,,,,,,,,,,,,,,,,,,,,,,,
383138,001,2022-11-21_01h14.10.712,Info_measure_main_exp,2022.2.2,Win32,60.2373351,,,,,,,,,,,,,,,,,,masks/mask_001.jpg,,,,,,,,,,,,,,,,,,,,,,,,,,,,,,,,,,,,,,,,,,,0,2,2,0,1,,,,,,,,,,,,,,,,,,,,,,,,,,,,,,,,,,,,,,,,,,,,,,
383138,001,2022-11-21_01h14.10.712,Info_measure_main_exp,2022.2.2,Win32,60.2373351,,,,,,,,,,,,,,,,,,masks/mask_005.jpg,,,,,,,,,,,,,,,,,,,,,,,,,,,,,,,,,,,,,,,,,,,0,3,3,4,1,,,,,,,,,,,,,,,,,,,,,,,,,,,,,,,,,,,,,,,,,,,,,,
383138,001,2022-11-21_01h14.10.712,Info_measure_main_exp,2022.2.2,Win32,60.2373351,,,,,,,,,,,,,,,,,,masks/mask_003.jpg,,,,,,,,,,,,,,,,,,,,,,,,,,,,,,,,,,,,,,,,,,,0,4,4,2,1,,,,,,,,,,,,,,,,,,,,,,,,,,,,,,,,,,,,,,,,,,,,,,
383138,001,2022-11-21_01h14.10.712,Info_measure_main_exp,2022.2.2,Win32,60.2373351,,,,,,,,,,,,,,,,,,masks/mask_001.jpg,,,,,,,,,,,,,,,,,,,,,,,,,,,,,,,,,,,,,,,,,,,,,,,,0,0,0,0,1,,,,,,,,,,,,,,,,,,,,,,,,,,,,,,,,,,,,,,,,,
383138,001,2022-11-21_01h14.10.712,Info_measure_main_exp,2022.2.2,Win32,60.2373351,,,,,,,,,,,,,,,,,,masks/mask_004.jpg,,,,,,,,,,,,,,,,,,,,,,,,,,,,,,,,,,,,,,,,,,,,,,,,0,1,1,3,1,,,,,,,,,,,,,,,,,,,,,,,,,,,,,,,,,,,,,,,,,
383138,001,2022-11-21_01h14.10.712,Info_measure_main_exp,2022.2.2,Win32,60.2373351,,,,,,,,,,,,,,,,,,masks/mask_003.jpg,,,,,,,,,,,,,,,,,,,,,,,,,,,,,,,,,,,,,,,,,,,,,,,,0,2,2,2,1,,,,,,,,,,,,,,,,,,,,,,,,,,,,,,,,,,,,,,,,,
383138,001,2022-11-21_01h14.10.712,Info_measure_main_exp,2022.2.2,Win32,60.2373351,,,,,,,,,,,,,,,,,,masks/mask_002.jpg,,,,,,,,,,,,,,,,,,,,,,,,,,,,,,,,,,,,,,,,,,,,,,,,0,3,3,1,1,,,,,,,,,,,,,,,,,,,,,,,,,,,,,,,,,,,,,,,,,
383138,001,2022-11-21_01h14.10.712,Info_measure_main_exp,2022.2.2,Win32,60.2373351,,,,,,,,,,,,,,,,,,masks/mask_005.jpg,,,,,,,,,,,,,,,,,,,,,,,,,,,,,,,,,,,,,,,,,,,,,,,,0,4,4,4,1,,,,,,,,,,,,,,,,,,,,,,,,,,,,,,,,,,,,,,,,,
383138,001,2022-11-21_01h14.10.712,Info_measure_main_exp,2022.2.2,Win32,60.2373351,,,,,,,,,,,,,,,,,,,,,,,,,,,,,,6,1.2997,1,,,,,,,,,,,,0,131,5,5,2250,2178,absent_patch/patch0002250.jpg,absent_patch/patch0002178.jpg,,,,,,,,,,,,,,,,,,,,0.040364583,0.016927083,1,0,0,response1disk,4,-0.010416667,0.005208333,1,0,0,center_square,0,3,3,48,1,,,,,,,,,,,,,,,,,,,,,,,
383138,001,2022-11-21_01h14.10.712,Info_measure_main_exp,2022.2.2,Win32,60.2373351,,,,,,,,,,,,,,,,,,masks/mask_004.jpg,,,,,,,,,,,,,,,,,,,,,,,,,,,,,,,,,,,,,,,,,,,0,0,0,3,1,,,,,,,,,,,,,,,,,,,,,,,,,,,,,,,,,,,,,,,,,,,,,,
383138,001,2022-11-21_01h14.10.712,Info_measure_main_exp,2022.2.2,Win32,60.2373351,,,,,,,,,,,,,,,,,,masks/mask_005.jpg,,,,,,,,,,,,,,,,,,,,,,,,,,,,,,,,,,,,,,,,,,,0,1,1,4,1,,,,,,,,,,,,,,,,,,,,,,,,,,,,,,,,,,,,,,,,,,,,,,
383138,001,2022-11-21_01h14.10.712,Info_measure_main_exp,2022.2.2,Win32,60.2373351,,,,,,,,,,,,,,,,,,masks/mask_003.jpg,,,,,,,,,,,,,,,,,,,,,,,,,,,,,,,,,,,,,,,,,,,0,2,2,2,1,,,,,,,,,,,,,,,,,,,,,,,,,,,,,,,,,,,,,,,,,,,,,,
383138,001,2022-11-21_01h14.10.712,Info_measure_main_exp,2022.2.2,Win32,60.2373351,,,,,,,,,,,,,,,,,,masks/mask_002.jpg,,,,,,,,,,,,,,,,,,,,,,,,,,,,,,,,,,,,,,,,,,,0,3,3,1,1,,,,,,,,,,,,,,,,,,,,,,,,,,,,,,,,,,,,,,,,,,,,,,
383138,001,2022-11-21_01h14.10.712,Info_measure_main_exp,2022.2.2,Win32,60.2373351,,,,,,,,,,,,,,,,,,masks/mask_001.jpg,,,,,,,,,,,,,,,,,,,,,,,,,,,,,,,,,,,,,,,,,,,0,4,4,0,1,,,,,,,,,,,,,,,,,,,,,,,,,,,,,,,,,,,,,,,,,,,,,,
383138,001,2022-11-21_01h14.10.712,Info_measure_main_exp,2022.2.2,Win32,60.2373351,,,,,,,,,,,,,,,,,,masks/mask_005.jpg,,,,,,,,,,,,,,,,,,,,,,,,,,,,,,,,,,,,,,,,,,,,,,,,0,0,0,4,1,,,,,,,,,,,,,,,,,,,,,,,,,,,,,,,,,,,,,,,,,
383138,001,2022-11-21_01h14.10.712,Info_measure_main_exp,2022.2.2,Win32,60.2373351,,,,,,,,,,,,,,,,,,masks/mask_001.jpg,,,,,,,,,,,,,,,,,,,,,,,,,,,,,,,,,,,,,,,,,,,,,,,,0,1,1,0,1,,,,,,,,,,,,,,,,,,,,,,,,,,,,,,,,,,,,,,,,,
383138,001,2022-11-21_01h14.10.712,Info_measure_main_exp,2022.2.2,Win32,60.2373351,,,,,,,,,,,,,,,,,,masks/mask_003.jpg,,,,,,,,,,,,,,,,,,,,,,,,,,,,,,,,,,,,,,,,,,,,,,,,0,2,2,2,1,,,,,,,,,,,,,,,,,,,,,,,,,,,,,,,,,,,,,,,,,
383138,001,2022-11-21_01h14.10.712,Info_measure_main_exp,2022.2.2,Win32,60.2373351,,,,,,,,,,,,,,,,,,masks/mask_002.jpg,,,,,,,,,,,,,,,,,,,,,,,,,,,,,,,,,,,,,,,,,,,,,,,,0,3,3,1,1,,,,,,,,,,,,,,,,,,,,,,,,,,,,,,,,,,,,,,,,,
383138,001,2022-11-21_01h14.10.712,Info_measure_main_exp,2022.2.2,Win32,60.2373351,,,,,,,,,,,,,,,,,,masks/mask_004.jpg,,,,,,,,,,,,,,,,,,,,,,,,,,,,,,,,,,,,,,,,,,,,,,,,0,4,4,3,1,,,,,,,,,,,,,,,,,,,,,,,,,,,,,,,,,,,,,,,,,
383138,001,2022-11-21_01h14.10.712,Info_measure_main_exp,2022.2.2,Win32,60.2373351,,,,,,,,,,,,,,,,,,,,,,,,,,,,,,0,0.5659,1,,,,,,,,,,,,0,131,5,5,2274,2274,absent_patch/patch0002274.jpg,absent_patch/patch0002274.jpg,,,,,,,,,,,,,,,,,,,,-0.033854167,0.061197917,1,0,0,response7disk,5,0.002604167,0.005208333,1,0,0,center_square,0,4,4,114,1,,,,,,,,,,,,,,,,,,,,,,,
383138,001,2022-11-21_01h14.10.712,Info_measure_main_exp,2022.2.2,Win32,60.2373351,,,,,,,,,,,,,,,,,,masks/mask_004.jpg,,,,,,,,,,,,,,,,,,,,,,,,,,,,,,,,,,,,,,,,,,,0,0,0,3,1,,,,,,,,,,,,,,,,,,,,,,,,,,,,,,,,,,,,,,,,,,,,,,
383138,001,2022-11-21_01h14.10.712,Info_measure_main_exp,2022.2.2,Win32,60.2373351,,,,,,,,,,,,,,,,,,masks/mask_001.jpg,,,,,,,,,,,,,,,,,,,,,,,,,,,,,,,,,,,,,,,,,,,0,1,1,0,1,,,,,,,,,,,,,,,,,,,,,,,,,,,,,,,,,,,,,,,,,,,,,,
383138,001,2022-11-21_01h14.10.712,Info_measure_main_exp,2022.2.2,Win32,60.2373351,,,,,,,,,,,,,,,,,,masks/mask_005.jpg,,,,,,,,,,,,,,,,,,,,,,,,,,,,,,,,,,,,,,,,,,,0,2,2,4,1,,,,,,,,,,,,,,,,,,,,,,,,,,,,,,,,,,,,,,,,,,,,,,
383138,001,2022-11-21_01h14.10.712,Info_measure_main_exp,2022.2.2,Win32,60.2373351,,,,,,,,,,,,,,,,,,masks/mask_003.jpg,,,,,,,,,,,,,,,,,,,,,,,,,,,,,,,,,,,,,,,,,,,0,3,3,2,1,,,,,,,,,,,,,,,,,,,,,,,,,,,,,,,,,,,,,,,,,,,,,,
383138,001,2022-11-21_01h14.10.712,Info_measure_main_exp,2022.2.2,Win32,60.2373351,,,,,,,,,,,,,,,,,,masks/mask_002.jpg,,,,,,,,,,,,,,,,,,,,,,,,,,,,,,,,,,,,,,,,,,,0,4,4,1,1,,,,,,,,,,,,,,,,,,,,,,,,,,,,,,,,,,,,,,,,,,,,,,
383138,001,2022-11-21_01h14.10.712,Info_measure_main_exp,2022.2.2,Win32,60.2373351,,,,,,,,,,,,,,,,,,masks/mask_004.jpg,,,,,,,,,,,,,,,,,,,,,,,,,,,,,,,,,,,,,,,,,,,,,,,,0,0,0,3,1,,,,,,,,,,,,,,,,,,,,,,,,,,,,,,,,,,,,,,,,,
383138,001,2022-11-21_01h14.10.712,Info_measure_main_exp,2022.2.2,Win32,60.2373351,,,,,,,,,,,,,,,,,,masks/mask_002.jpg,,,,,,,,,,,,,,,,,,,,,,,,,,,,,,,,,,,,,,,,,,,,,,,,0,1,1,1,1,,,,,,,,,,,,,,,,,,,,,,,,,,,,,,,,,,,,,,,,,
383138,001,2022-11-21_01h14.10.712,Info_measure_main_exp,2022.2.2,Win32,60.2373351,,,,,,,,,,,,,,,,,,masks/mask_001.jpg,,,,,,,,,,,,,,,,,,,,,,,,,,,,,,,,,,,,,,,,,,,,,,,,0,2,2,0,1,,,,,,,,,,,,,,,,,,,,,,,,,,,,,,,,,,,,,,,,,
383138,001,2022-11-21_01h14.10.712,Info_measure_main_exp,2022.2.2,Win32,60.2373351,,,,,,,,,,,,,,,,,,masks/mask_003.jpg,,,,,,,,,,,,,,,,,,,,,,,,,,,,,,,,,,,,,,,,,,,,,,,,0,3,3,2,1,,,,,,,,,,,,,,,,,,,,,,,,,,,,,,,,,,,,,,,,,
383138,001,2022-11-21_01h14.10.712,Info_measure_main_exp,2022.2.2,Win32,60.2373351,,,,,,,,,,,,,,,,,,masks/mask_005.jpg,,,,,,,,,,,,,,,,,,,,,,,,,,,,,,,,,,,,,,,,,,,,,,,,0,4,4,4,1,,,,,,,,,,,,,,,,,,,,,,,,,,,,,,,,,,,,,,,,,
383138,001,2022-11-21_01h14.10.712,Info_measure_main_exp,2022.2.2,Win32,60.2373351,,,,,,,,,,,,,,,,,,,,,,,,,,,,,,0,0.7191,1,,,,,,,,,,,,0,131,5,5,2250,2250,absent_patch/patch0002250.jpg,absent_patch/patch0002250.jpg,,,,,,,,,,,,,,,,,,,,-0.02734375,0.071614583,1,0,0,response7disk,6,0.00390625,-0.006510417,1,0,0,center_square,0,5,5,56,1,,,,,,,,,,,,,,,,,,,,,,,
383138,001,2022-11-21_01h14.10.712,Info_measure_main_exp,2022.2.2,Win32,60.2373351,,,,,,,,,,,,,,,,,,masks/mask_002.jpg,,,,,,,,,,,,,,,,,,,,,,,,,,,,,,,,,,,,,,,,,,,0,0,0,1,1,,,,,,,,,,,,,,,,,,,,,,,,,,,,,,,,,,,,,,,,,,,,,,
383138,001,2022-11-21_01h14.10.712,Info_measure_main_exp,2022.2.2,Win32,60.2373351,,,,,,,,,,,,,,,,,,masks/mask_005.jpg,,,,,,,,,,,,,,,,,,,,,,,,,,,,,,,,,,,,,,,,,,,0,1,1,4,1,,,,,,,,,,,,,,,,,,,,,,,,,,,,,,,,,,,,,,,,,,,,,,
383138,001,2022-11-21_01h14.10.712,Info_measure_main_exp,2022.2.2,Win32,60.2373351,,,,,,,,,,,,,,,,,,masks/mask_003.jpg,,,,,,,,,,,,,,,,,,,,,,,,,,,,,,,,,,,,,,,,,,,0,2,2,2,1,,,,,,,,,,,,,,,,,,,,,,,,,,,,,,,,,,,,,,,,,,,,,,
383138,001,2022-11-21_01h14.10.712,Info_measure_main_exp,2022.2.2,Win32,60.2373351,,,,,,,,,,,,,,,,,,masks/mask_001.jpg,,,,,,,,,,,,,,,,,,,,,,,,,,,,,,,,,,,,,,,,,,,0,3,3,0,1,,,,,,,,,,,,,,,,,,,,,,,,,,,,,,,,,,,,,,,,,,,,,,
383138,001,2022-11-21_01h14.10.712,Info_measure_main_exp,2022.2.2,Win32,60.2373351,,,,,,,,,,,,,,,,,,masks/mask_004.jpg,,,,,,,,,,,,,,,,,,,,,,,,,,,,,,,,,,,,,,,,,,,0,4,4,3,1,,,,,,,,,,,,,,,,,,,,,,,,,,,,,,,,,,,,,,,,,,,,,,
383138,001,2022-11-21_01h14.10.712,Info_measure_main_exp,2022.2.2,Win32,60.2373351,,,,,,,,,,,,,,,,,,masks/mask_004.jpg,,,,,,,,,,,,,,,,,,,,,,,,,,,,,,,,,,,,,,,,,,,,,,,,0,0,0,3,1,,,,,,,,,,,,,,,,,,,,,,,,,,,,,,,,,,,,,,,,,
383138,001,2022-11-21_01h14.10.712,Info_measure_main_exp,2022.2.2,Win32,60.2373351,,,,,,,,,,,,,,,,,,masks/mask_003.jpg,,,,,,,,,,,,,,,,,,,,,,,,,,,,,,,,,,,,,,,,,,,,,,,,0,1,1,2,1,,,,,,,,,,,,,,,,,,,,,,,,,,,,,,,,,,,,,,,,,
383138,001,2022-11-21_01h14.10.712,Info_measure_main_exp,2022.2.2,Win32,60.2373351,,,,,,,,,,,,,,,,,,masks/mask_001.jpg,,,,,,,,,,,,,,,,,,,,,,,,,,,,,,,,,,,,,,,,,,,,,,,,0,2,2,0,1,,,,,,,,,,,,,,,,,,,,,,,,,,,,,,,,,,,,,,,,,
383138,001,2022-11-21_01h14.10.712,Info_measure_main_exp,2022.2.2,Win32,60.2373351,,,,,,,,,,,,,,,,,,masks/mask_005.jpg,,,,,,,,,,,,,,,,,,,,,,,,,,,,,,,,,,,,,,,,,,,,,,,,0,3,3,4,1,,,,,,,,,,,,,,,,,,,,,,,,,,,,,,,,,,,,,,,,,
383138,001,2022-11-21_01h14.10.712,Info_measure_main_exp,2022.2.2,Win32,60.2373351,,,,,,,,,,,,,,,,,,masks/mask_002.jpg,,,,,,,,,,,,,,,,,,,,,,,,,,,,,,,,,,,,,,,,,,,,,,,,0,4,4,1,1,,,,,,,,,,,,,,,,,,,,,,,,,,,,,,,,,,,,,,,,,
383138,001,2022-11-21_01h14.10.712,Info_measure_main_exp,2022.2.2,Win32,60.2373351,,,,,,,,,,,,,,,,,,,,,,,,,,,,,,4,1.8835,1,,,,,,,,,,,,0,131,5,5,2298,2190,absent_patch/patch0002298.jpg,absent_patch/patch0002190.jpg,,,,,,,,,,,,,,,,,,,,0.009114583,-0.033854167,1,0,0,response3disk,7,-0.006510417,0.002604167,1,0,0,center_square,0,6,6,20,1,,,,,,,,,,,,,,,,,,,,,,,
383138,001,2022-11-21_01h14.10.712,Info_measure_main_exp,2022.2.2,Win32,60.2373351,,,,,,,,,,,,,,,,,,masks/mask_002.jpg,,,,,,,,,,,,,,,,,,,,,,,,,,,,,,,,,,,,,,,,,,,0,0,0,1,1,,,,,,,,,,,,,,,,,,,,,,,,,,,,,,,,,,,,,,,,,,,,,,
383138,001,2022-11-21_01h14.10.712,Info_measure_main_exp,2022.2.2,Win32,60.2373351,,,,,,,,,,,,,,,,,,masks/mask_004.jpg,,,,,,,,,,,,,,,,,,,,,,,,,,,,,,,,,,,,,,,,,,,0,1,1,3,1,,,,,,,,,,,,,,,,,,,,,,,,,,,,,,,,,,,,,,,,,,,,,,
383138,001,2022-11-21_01h14.10.712,Info_measure_main_exp,2022.2.2,Win32,60.2373351,,,,,,,,,,,,,,,,,,masks/mask_005.jpg,,,,,,,,,,,,,,,,,,,,,,,,,,,,,,,,,,,,,,,,,,,0,2,2,4,1,,,,,,,,,,,,,,,,,,,,,,,,,,,,,,,,,,,,,,,,,,,,,,
383138,001,2022-11-21_01h14.10.712,Info_measure_main_exp,2022.2.2,Win32,60.2373351,,,,,,,,,,,,,,,,,,masks/mask_003.jpg,,,,,,,,,,,,,,,,,,,,,,,,,,,,,,,,,,,,,,,,,,,0,3,3,2,1,,,,,,,,,,,,,,,,,,,,,,,,,,,,,,,,,,,,,,,,,,,,,,
383138,001,2022-11-21_01h14.10.712,Info_measure_main_exp,2022.2.2,Win32,60.2373351,,,,,,,,,,,,,,,,,,masks/mask_001.jpg,,,,,,,,,,,,,,,,,,,,,,,,,,,,,,,,,,,,,,,,,,,0,4,4,0,1,,,,,,,,,,,,,,,,,,,,,,,,,,,,,,,,,,,,,,,,,,,,,,
383138,001,2022-11-21_01h14.10.712,Info_measure_main_exp,2022.2.2,Win32,60.2373351,,,,,,,,,,,,,,,,,,masks/mask_003.jpg,,,,,,,,,,,,,,,,,,,,,,,,,,,,,,,,,,,,,,,,,,,,,,,,0,0,0,2,1,,,,,,,,,,,,,,,,,,,,,,,,,,,,,,,,,,,,,,,,,
383138,001,2022-11-21_01h14.10.712,Info_measure_main_exp,2022.2.2,Win32,60.2373351,,,,,,,,,,,,,,,,,,masks/mask_005.jpg,,,,,,,,,,,,,,,,,,,,,,,,,,,,,,,,,,,,,,,,,,,,,,,,0,1,1,4,1,,,,,,,,,,,,,,,,,,,,,,,,,,,,,,,,,,,,,,,,,
383138,001,2022-11-21_01h14.10.712,Info_measure_main_exp,2022.2.2,Win32,60.2373351,,,,,,,,,,,,,,,,,,masks/mask_004.jpg,,,,,,,,,,,,,,,,,,,,,,,,,,,,,,,,,,,,,,,,,,,,,,,,0,2,2,3,1,,,,,,,,,,,,,,,,,,,,,,,,,,,,,,,,,,,,,,,,,
383138,001,2022-11-21_01h14.10.712,Info_measure_main_exp,2022.2.2,Win32,60.2373351,,,,,,,,,,,,,,,,,,masks/mask_001.jpg,,,,,,,,,,,,,,,,,,,,,,,,,,,,,,,,,,,,,,,,,,,,,,,,0,3,3,0,1,,,,,,,,,,,,,,,,,,,,,,,,,,,,,,,,,,,,,,,,,
383138,001,2022-11-21_01h14.10.712,Info_measure_main_exp,2022.2.2,Win32,60.2373351,,,,,,,,,,,,,,,,,,masks/mask_002.jpg,,,,,,,,,,,,,,,,,,,,,,,,,,,,,,,,,,,,,,,,,,,,,,,,0,4,4,1,1,,,,,,,,,,,,,,,,,,,,,,,,,,,,,,,,,,,,,,,,,
383138,001,2022-11-21_01h14.10.712,Info_measure_main_exp,2022.2.2,Win32,60.2373351,,,,,,,,,,,,,,,,,,,,,,,,,,,,,,6,0.7292,1,,,,,,,,,,,,1,131,5,5,1,2214,present_patch/cong_131_5_a.jpg,absent_patch/patch0002214.jpg,,,,,,,,,,,,,,,,,,,,0.0390625,0.018229167,1,0,0,response1disk,8,-0.005208333,0.002604167,1,0,0,center_square,0,7,7,4,1,,,,,,,,,,,,,,,,,,,,,,,
383138,001,2022-11-21_01h14.10.712,Info_measure_main_exp,2022.2.2,Win32,60.2373351,,,,,,,,,,,,,,,,,,masks/mask_003.jpg,,,,,,,,,,,,,,,,,,,,,,,,,,,,,,,,,,,,,,,,,,,0,0,0,2,1,,,,,,,,,,,,,,,,,,,,,,,,,,,,,,,,,,,,,,,,,,,,,,
383138,001,2022-11-21_01h14.10.712,Info_measure_main_exp,2022.2.2,Win32,60.2373351,,,,,,,,,,,,,,,,,,masks/mask_001.jpg,,,,,,,,,,,,,,,,,,,,,,,,,,,,,,,,,,,,,,,,,,,0,1,1,0,1,,,,,,,,,,,,,,,,,,,,,,,,,,,,,,,,,,,,,,,,,,,,,,
383138,001,2022-11-21_01h14.10.712,Info_measure_main_exp,2022.2.2,Win32,60.2373351,,,,,,,,,,,,,,,,,,masks/mask_002.jpg,,,,,,,,,,,,,,,,,,,,,,,,,,,,,,,,,,,,,,,,,,,0,2,2,1,1,,,,,,,,,,,,,,,,,,,,,,,,,,,,,,,,,,,,,,,,,,,,,,
383138,001,2022-11-21_01h14.10.712,Info_measure_main_exp,2022.2.2,Win32,60.2373351,,,,,,,,,,,,,,,,,,masks/mask_004.jpg,,,,,,,,,,,,,,,,,,,,,,,,,,,,,,,,,,,,,,,,,,,0,3,3,3,1,,,,,,,,,,,,,,,,,,,,,,,,,,,,,,,,,,,,,,,,,,,,,,
383138,001,2022-11-21_01h14.10.712,Info_measure_main_exp,2022.2.2,Win32,60.2373351,,,,,,,,,,,,,,,,,,masks/mask_005.jpg,,,,,,,,,,,,,,,,,,,,,,,,,,,,,,,,,,,,,,,,,,,0,4,4,4,1,,,,,,,,,,,,,,,,,,,,,,,,,,,,,,,,,,,,,,,,,,,,,,
383138,001,2022-11-21_01h14.10.712,Info_measure_main_exp,2022.2.2,Win32,60.2373351,,,,,,,,,,,,,,,,,,masks/mask_005.jpg,,,,,,,,,,,,,,,,,,,,,,,,,,,,,,,,,,,,,,,,,,,,,,,,0,0,0,4,1,,,,,,,,,,,,,,,,,,,,,,,,,,,,,,,,,,,,,,,,,
383138,001,2022-11-21_01h14.10.712,Info_measure_main_exp,2022.2.2,Win32,60.2373351,,,,,,,,,,,,,,,,,,masks/mask_001.jpg,,,,,,,,,,,,,,,,,,,,,,,,,,,,,,,,,,,,,,,,,,,,,,,,0,1,1,0,1,,,,,,,,,,,,,,,,,,,,,,,,,,,,,,,,,,,,,,,,,
383138,001,2022-11-21_01h14.10.712,Info_measure_main_exp,2022.2.2,Win32,60.2373351,,,,,,,,,,,,,,,,,,masks/mask_004.jpg,,,,,,,,,,,,,,,,,,,,,,,,,,,,,,,,,,,,,,,,,,,,,,,,0,2,2,3,1,,,,,,,,,,,,,,,,,,,,,,,,,,,,,,,,,,,,,,,,,
383138,001,2022-11-21_01h14.10.712,Info_measure_main_exp,2022.2.2,Win32,60.2373351,,,,,,,,,,,,,,,,,,masks/mask_003.jpg,,,,,,,,,,,,,,,,,,,,,,,,,,,,,,,,,,,,,,,,,,,,,,,,0,3,3,2,1,,,,,,,,,,,,,,,,,,,,,,,,,,,,,,,,,,,,,,,,,
383138,001,2022-11-21_01h14.10.712,Info_measure_main_exp,2022.2.2,Win32,60.2373351,,,,,,,,,,,,,,,,,,masks/mask_002.jpg,,,,,,,,,,,,,,,,,,,,,,,,,,,,,,,,,,,,,,,,,,,,,,,,0,4,4,1,1,,,,,,,,,,,,,,,,,,,,,,,,,,,,,,,,,,,,,,,,,
383138,001,2022-11-21_01h14.10.712,Info_measure_main_exp,2022.2.2,Win32,60.2373351,,,,,,,,,,,,,,,,,,,,,,,,,,,,,,7,0.5667,1,,,,,,,,,,,,1,131,5,5,2250,1,absent_patch/patch0002250.jpg,present_patch/cong_131_5_a.jpg,,,,,,,,,,,,,,,,,,,,0.013020833,0.04296875,1,0,0,response1disk,9,-0.001302083,0.002604167,1,0,0,center_square,0,8,8,5,1,,,,,,,,,,,,,,,,,,,,,,,
383138,001,2022-11-21_01h14.10.712,Info_measure_main_exp,2022.2.2,Win32,60.2373351,,,,,,,,,,,,,,,,,,masks/mask_001.jpg,,,,,,,,,,,,,,,,,,,,,,,,,,,,,,,,,,,,,,,,,,,0,0,0,0,1,,,,,,,,,,,,,,,,,,,,,,,,,,,,,,,,,,,,,,,,,,,,,,
383138,001,2022-11-21_01h14.10.712,Info_measure_main_exp,2022.2.2,Win32,60.2373351,,,,,,,,,,,,,,,,,,masks/mask_005.jpg,,,,,,,,,,,,,,,,,,,,,,,,,,,,,,,,,,,,,,,,,,,0,1,1,4,1,,,,,,,,,,,,,,,,,,,,,,,,,,,,,,,,,,,,,,,,,,,,,,
383138,001,2022-11-21_01h14.10.712,Info_measure_main_exp,2022.2.2,Win32,60.2373351,,,,,,,,,,,,,,,,,,masks/mask_002.jpg,,,,,,,,,,,,,,,,,,,,,,,,,,,,,,,,,,,,,,,,,,,0,2,2,1,1,,,,,,,,,,,,,,,,,,,,,,,,,,,,,,,,,,,,,,,,,,,,,,
383138,001,2022-11-21_01h14.10.712,Info_measure_main_exp,2022.2.2,Win32,60.2373351,,,,,,,,,,,,,,,,,,masks/mask_003.jpg,,,,,,,,,,,,,,,,,,,,,,,,,,,,,,,,,,,,,,,,,,,0,3,3,2,1,,,,,,,,,,,,,,,,,,,,,,,,,,,,,,,,,,,,,,,,,,,,,,
383138,001,2022-11-21_01h14.10.712,Info_measure_main_exp,2022.2.2,Win32,60.2373351,,,,,,,,,,,,,,,,,,masks/mask_004.jpg,,,,,,,,,,,,,,,,,,,,,,,,,,,,,,,,,,,,,,,,,,,0,4,4,3,1,,,,,,,,,,,,,,,,,,,,,,,,,,,,,,,,,,,,,,,,,,,,,,
383138,001,2022-11-21_01h14.10.712,Info_measure_main_exp,2022.2.2,Win32,60.2373351,,,,,,,,,,,,,,,,,,masks/mask_003.jpg,,,,,,,,,,,,,,,,,,,,,,,,,,,,,,,,,,,,,,,,,,,,,,,,0,0,0,2,1,,,,,,,,,,,,,,,,,,,,,,,,,,,,,,,,,,,,,,,,,
383138,001,2022-11-21_01h14.10.712,Info_measure_main_exp,2022.2.2,Win32,60.2373351,,,,,,,,,,,,,,,,,,masks/mask_005.jpg,,,,,,,,,,,,,,,,,,,,,,,,,,,,,,,,,,,,,,,,,,,,,,,,0,1,1,4,1,,,,,,,,,,,,,,,,,,,,,,,,,,,,,,,,,,,,,,,,,
383138,001,2022-11-21_01h14.10.712,Info_measure_main_exp,2022.2.2,Win32,60.2373351,,,,,,,,,,,,,,,,,,masks/mask_004.jpg,,,,,,,,,,,,,,,,,,,,,,,,,,,,,,,,,,,,,,,,,,,,,,,,0,2,2,3,1,,,,,,,,,,,,,,,,,,,,,,,,,,,,,,,,,,,,,,,,,
383138,001,2022-11-21_01h14.10.712,Info_measure_main_exp,2022.2.2,Win32,60.2373351,,,,,,,,,,,,,,,,,,masks/mask_002.jpg,,,,,,,,,,,,,,,,,,,,,,,,,,,,,,,,,,,,,,,,,,,,,,,,0,3,3,1,1,,,,,,,,,,,,,,,,,,,,,,,,,,,,,,,,,,,,,,,,,
383138,001,2022-11-21_01h14.10.712,Info_measure_main_exp,2022.2.2,Win32,60.2373351,,,,,,,,,,,,,,,,,,masks/mask_001.jpg,,,,,,,,,,,,,,,,,,,,,,,,,,,,,,,,,,,,,,,,,,,,,,,,0,4,4,0,1,,,,,,,,,,,,,,,,,,,,,,,,,,,,,,,,,,,,,,,,,
383138,001,2022-11-21_01h14.10.712,Info_measure_main_exp,2022.2.2,Win32,60.2373351,,,,,,,,,,,,,,,,,,,,,,,,,,,,,,6,0.5218,1,,,,,,,,,,,,0,131,5,5,2166,2298,absent_patch/patch0002166.jpg,absent_patch/patch0002298.jpg,,,,,,,,,,,,,,,,,,,,0.03515625,0.020833333,1,0,0,response1disk,10,-0.0078125,0.0078125,1,0,0,center_square,0,9,9,52,1,,,,,,,,,,,,,,,,,,,,,,,
383138,001,2022-11-21_01h14.10.712,Info_measure_main_exp,2022.2.2,Win32,60.2373351,,,,,,,,,,,,,,,,,,masks/mask_002.jpg,,,,,,,,,,,,,,,,,,,,,,,,,,,,,,,,,,,,,,,,,,,0,0,0,1,1,,,,,,,,,,,,,,,,,,,,,,,,,,,,,,,,,,,,,,,,,,,,,,
383138,001,2022-11-21_01h14.10.712,Info_measure_main_exp,2022.2.2,Win32,60.2373351,,,,,,,,,,,,,,,,,,masks/mask_001.jpg,,,,,,,,,,,,,,,,,,,,,,,,,,,,,,,,,,,,,,,,,,,0,1,1,0,1,,,,,,,,,,,,,,,,,,,,,,,,,,,,,,,,,,,,,,,,,,,,,,
383138,001,2022-11-21_01h14.10.712,Info_measure_main_exp,2022.2.2,Win32,60.2373351,,,,,,,,,,,,,,,,,,masks/mask_004.jpg,,,,,,,,,,,,,,,,,,,,,,,,,,,,,,,,,,,,,,,,,,,0,2,2,3,1,,,,,,,,,,,,,,,,,,,,,,,,,,,,,,,,,,,,,,,,,,,,,,
383138,001,2022-11-21_01h14.10.712,Info_measure_main_exp,2022.2.2,Win32,60.2373351,,,,,,,,,,,,,,,,,,masks/mask_005.jpg,,,,,,,,,,,,,,,,,,,,,,,,,,,,,,,,,,,,,,,,,,,0,3,3,4,1,,,,,,,,,,,,,,,,,,,,,,,,,,,,,,,,,,,,,,,,,,,,,,
383138,001,2022-11-21_01h14.10.712,Info_measure_main_exp,2022.2.2,Win32,60.2373351,,,,,,,,,,,,,,,,,,masks/mask_003.jpg,,,,,,,,,,,,,,,,,,,,,,,,,,,,,,,,,,,,,,,,,,,0,4,4,2,1,,,,,,,,,,,,,,,,,,,,,,,,,,,,,,,,,,,,,,,,,,,,,,
383138,001,2022-11-21_01h14.10.712,Info_measure_main_exp,2022.2.2,Win32,60.2373351,,,,,,,,,,,,,,,,,,masks/mask_005.jpg,,,,,,,,,,,,,,,,,,,,,,,,,,,,,,,,,,,,,,,,,,,,,,,,0,0,0,4,1,,,,,,,,,,,,,,,,,,,,,,,,,,,,,,,,,,,,,,,,,
383138,001,2022-11-21_01h14.10.712,Info_measure_main_exp,2022.2.2,Win32,60.2373351,,,,,,,,,,,,,,,,,,masks/mask_002.jpg,,,,,,,,,,,,,,,,,,,,,,,,,,,,,,,,,,,,,,,,,,,,,,,,0,1,1,1,1,,,,,,,,,,,,,,,,,,,,,,,,,,,,,,,,,,,,,,,,,
383138,001,2022-11-21_01h14.10.712,Info_measure_main_exp,2022.2.2,Win32,60.2373351,,,,,,,,,,,,,,,,,,masks/mask_003.jpg,,,,,,,,,,,,,,,,,,,,,,,,,,,,,,,,,,,,,,,,,,,,,,,,0,2,2,2,1,,,,,,,,,,,,,,,,,,,,,,,,,,,,,,,,,,,,,,,,,
383138,001,2022-11-21_01h14.10.712,Info_measure_main_exp,2022.2.2,Win32,60.2373351,,,,,,,,,,,,,,,,,,masks/mask_001.jpg,,,,,,,,,,,,,,,,,,,,,,,,,,,,,,,,,,,,,,,,,,,,,,,,0,3,3,0,1,,,,,,,,,,,,,,,,,,,,,,,,,,,,,,,,,,,,,,,,,
383138,001,2022-11-21_01h14.10.712,Info_measure_main_exp,2022.2.2,Win32,60.2373351,,,,,,,,,,,,,,,,,,masks/mask_004.jpg,,,,,,,,,,,,,,,,,,,,,,,,,,,,,,,,,,,,,,,,,,,,,,,,0,4,4,3,1,,,,,,,,,,,,,,,,,,,,,,,,,,,,,,,,,,,,,,,,,
383138,001,2022-11-21_01h14.10.712,Info_measure_main_exp,2022.2.2,Win32,60.2373351,,,,,,,,,,,,,,,,,,,,,,,,,,,,,,7,1.4203,1,,,,,,,,,,,,1,131,5,5,1950,1,absent_patch/patch0001950.jpg,present_patch/cong_131_5_a.jpg,,,,,,,,,,,,,,,,,,,,0.015625,0.0546875,1,0,0,response1disk,11,0.001302083,-0.006510417,1,0,0,center_square,0,10,10,39,1,,,,,,,,,,,,,,,,,,,,,,,
383138,001,2022-11-21_01h14.10.712,Info_measure_main_exp,2022.2.2,Win32,60.2373351,,,,,,,,,,,,,,,,,,masks/mask_001.jpg,,,,,,,,,,,,,,,,,,,,,,,,,,,,,,,,,,,,,,,,,,,0,0,0,0,1,,,,,,,,,,,,,,,,,,,,,,,,,,,,,,,,,,,,,,,,,,,,,,
383138,001,2022-11-21_01h14.10.712,Info_measure_main_exp,2022.2.2,Win32,60.2373351,,,,,,,,,,,,,,,,,,masks/mask_004.jpg,,,,,,,,,,,,,,,,,,,,,,,,,,,,,,,,,,,,,,,,,,,0,1,1,3,1,,,,,,,,,,,,,,,,,,,,,,,,,,,,,,,,,,,,,,,,,,,,,,
383138,001,2022-11-21_01h14.10.712,Info_measure_main_exp,2022.2.2,Win32,60.2373351,,,,,,,,,,,,,,,,,,masks/mask_005.jpg,,,,,,,,,,,,,,,,,,,,,,,,,,,,,,,,,,,,,,,,,,,0,2,2,4,1,,,,,,,,,,,,,,,,,,,,,,,,,,,,,,,,,,,,,,,,,,,,,,
383138,001,2022-11-21_01h14.10.712,Info_measure_main_exp,2022.2.2,Win32,60.2373351,,,,,,,,,,,,,,,,,,masks/mask_002.jpg,,,,,,,,,,,,,,,,,,,,,,,,,,,,,,,,,,,,,,,,,,,0,3,3,1,1,,,,,,,,,,,,,,,,,,,,,,,,,,,,,,,,,,,,,,,,,,,,,,
383138,001,2022-11-21_01h14.10.712,Info_measure_main_exp,2022.2.2,Win32,60.2373351,,,,,,,,,,,,,,,,,,masks/mask_003.jpg,,,,,,,,,,,,,,,,,,,,,,,,,,,,,,,,,,,,,,,,,,,0,4,4,2,1,,,,,,,,,,,,,,,,,,,,,,,,,,,,,,,,,,,,,,,,,,,,,,
383138,001,2022-11-21_01h14.10.712,Info_measure_main_exp,2022.2.2,Win32,60.2373351,,,,,,,,,,,,,,,,,,masks/mask_005.jpg,,,,,,,,,,,,,,,,,,,,,,,,,,,,,,,,,,,,,,,,,,,,,,,,0,0,0,4,1,,,,,,,,,,,,,,,,,,,,,,,,,,,,,,,,,,,,,,,,,
383138,001,2022-11-21_01h14.10.712,Info_measure_main_exp,2022.2.2,Win32,60.2373351,,,,,,,,,,,,,,,,,,masks/mask_004.jpg,,,,,,,,,,,,,,,,,,,,,,,,,,,,,,,,,,,,,,,,,,,,,,,,0,1,1,3,1,,,,,,,,,,,,,,,,,,,,,,,,,,,,,,,,,,,,,,,,,
383138,001,2022-11-21_01h14.10.712,Info_measure_main_exp,2022.2.2,Win32,60.2373351,,,,,,,,,,,,,,,,,,masks/mask_001.jpg,,,,,,,,,,,,,,,,,,,,,,,,,,,,,,,,,,,,,,,,,,,,,,,,0,2,2,0,1,,,,,,,,,,,,,,,,,,,,,,,,,,,,,,,,,,,,,,,,,
383138,001,2022-11-21_01h14.10.712,Info_measure_main_exp,2022.2.2,Win32,60.2373351,,,,,,,,,,,,,,,,,,masks/mask_003.jpg,,,,,,,,,,,,,,,,,,,,,,,,,,,,,,,,,,,,,,,,,,,,,,,,0,3,3,2,1,,,,,,,,,,,,,,,,,,,,,,,,,,,,,,,,,,,,,,,,,
383138,001,2022-11-21_01h14.10.712,Info_measure_main_exp,2022.2.2,Win32,60.2373351,,,,,,,,,,,,,,,,,,masks/mask_002.jpg,,,,,,,,,,,,,,,,,,,,,,,,,,,,,,,,,,,,,,,,,,,,,,,,0,4,4,1,1,,,,,,,,,,,,,,,,,,,,,,,,,,,,,,,,,,,,,,,,,
383138,001,2022-11-21_01h14.10.712,Info_measure_main_exp,2022.2.2,Win32,60.2373351,,,,,,,,,,,,,,,,,,,,,,,,,,,,,,0,0.6212,1,,,,,,,,,,,,1,131,5,5,1,1,present_patch/cong_131_5_a.jpg,present_patch/cong_131_5_a.jpg,,,,,,,,,,,,,,,,,,,,-0.036458333,0.141927083,1,0,0,response7disk,12,0,-0.001302083,1,0,0,center_square,0,11,11,30,1,,,,,,,,,,,,,,,,,,,,,,,
383138,001,2022-11-21_01h14.10.712,Info_measure_main_exp,2022.2.2,Win32,60.2373351,,,,,,,,,,,,,,,,,,masks/mask_004.jpg,,,,,,,,,,,,,,,,,,,,,,,,,,,,,,,,,,,,,,,,,,,0,0,0,3,1,,,,,,,,,,,,,,,,,,,,,,,,,,,,,,,,,,,,,,,,,,,,,,
383138,001,2022-11-21_01h14.10.712,Info_measure_main_exp,2022.2.2,Win32,60.2373351,,,,,,,,,,,,,,,,,,masks/mask_002.jpg,,,,,,,,,,,,,,,,,,,,,,,,,,,,,,,,,,,,,,,,,,,0,1,1,1,1,,,,,,,,,,,,,,,,,,,,,,,,,,,,,,,,,,,,,,,,,,,,,,
383138,001,2022-11-21_01h14.10.712,Info_measure_main_exp,2022.2.2,Win32,60.2373351,,,,,,,,,,,,,,,,,,masks/mask_001.jpg,,,,,,,,,,,,,,,,,,,,,,,,,,,,,,,,,,,,,,,,,,,0,2,2,0,1,,,,,,,,,,,,,,,,,,,,,,,,,,,,,,,,,,,,,,,,,,,,,,
383138,001,2022-11-21_01h14.10.712,Info_measure_main_exp,2022.2.2,Win32,60.2373351,,,,,,,,,,,,,,,,,,masks/mask_003.jpg,,,,,,,,,,,,,,,,,,,,,,,,,,,,,,,,,,,,,,,,,,,0,3,3,2,1,,,,,,,,,,,,,,,,,,,,,,,,,,,,,,,,,,,,,,,,,,,,,,
383138,001,2022-11-21_01h14.10.712,Info_measure_main_exp,2022.2.2,Win32,60.2373351,,,,,,,,,,,,,,,,,,masks/mask_005.jpg,,,,,,,,,,,,,,,,,,,,,,,,,,,,,,,,,,,,,,,,,,,0,4,4,4,1,,,,,,,,,,,,,,,,,,,,,,,,,,,,,,,,,,,,,,,,,,,,,,
383138,001,2022-11-21_01h14.10.712,Info_measure_main_exp,2022.2.2,Win32,60.2373351,,,,,,,,,,,,,,,,,,masks/mask_001.jpg,,,,,,,,,,,,,,,,,,,,,,,,,,,,,,,,,,,,,,,,,,,,,,,,0,0,0,0,1,,,,,,,,,,,,,,,,,,,,,,,,,,,,,,,,,,,,,,,,,
383138,001,2022-11-21_01h14.10.712,Info_measure_main_exp,2022.2.2,Win32,60.2373351,,,,,,,,,,,,,,,,,,masks/mask_005.jpg,,,,,,,,,,,,,,,,,,,,,,,,,,,,,,,,,,,,,,,,,,,,,,,,0,1,1,4,1,,,,,,,,,,,,,,,,,,,,,,,,,,,,,,,,,,,,,,,,,
383138,001,2022-11-21_01h14.10.712,Info_measure_main_exp,2022.2.2,Win32,60.2373351,,,,,,,,,,,,,,,,,,masks/mask_004.jpg,,,,,,,,,,,,,,,,,,,,,,,,,,,,,,,,,,,,,,,,,,,,,,,,0,2,2,3,1,,,,,,,,,,,,,,,,,,,,,,,,,,,,,,,,,,,,,,,,,
383138,001,2022-11-21_01h14.10.712,Info_measure_main_exp,2022.2.2,Win32,60.2373351,,,,,,,,,,,,,,,,,,masks/mask_003.jpg,,,,,,,,,,,,,,,,,,,,,,,,,,,,,,,,,,,,,,,,,,,,,,,,0,3,3,2,1,,,,,,,,,,,,,,,,,,,,,,,,,,,,,,,,,,,,,,,,,
383138,001,2022-11-21_01h14.10.712,Info_measure_main_exp,2022.2.2,Win32,60.2373351,,,,,,,,,,,,,,,,,,masks/mask_002.jpg,,,,,,,,,,,,,,,,,,,,,,,,,,,,,,,,,,,,,,,,,,,,,,,,0,4,4,1,1,,,,,,,,,,,,,,,,,,,,,,,,,,,,,,,,,,,,,,,,,
383138,001,2022-11-21_01h14.10.712,Info_measure_main_exp,2022.2.2,Win32,60.2373351,,,,,,,,,,,,,,,,,,,,,,,,,,,,,,6,0.5668,1,,,,,,,,,,,,0,131,5,5,2142,2238,absent_patch/patch0002142.jpg,absent_patch/patch0002238.jpg,,,,,,,,,,,,,,,,,,,,0.02734375,0.009114583,1,0,0,response1disk,13,-0.01171875,-0.0078125,1,0,0,center_square,0,12,12,101,1,,,,,,,,,,,,,,,,,,,,,,,
383138,001,2022-11-21_01h14.10.712,Info_measure_main_exp,2022.2.2,Win32,60.2373351,,,,,,,,,,,,,,,,,,masks/mask_004.jpg,,,,,,,,,,,,,,,,,,,,,,,,,,,,,,,,,,,,,,,,,,,0,0,0,3,1,,,,,,,,,,,,,,,,,,,,,,,,,,,,,,,,,,,,,,,,,,,,,,
383138,001,2022-11-21_01h14.10.712,Info_measure_main_exp,2022.2.2,Win32,60.2373351,,,,,,,,,,,,,,,,,,masks/mask_005.jpg,,,,,,,,,,,,,,,,,,,,,,,,,,,,,,,,,,,,,,,,,,,0,1,1,4,1,,,,,,,,,,,,,,,,,,,,,,,,,,,,,,,,,,,,,,,,,,,,,,
383138,001,2022-11-21_01h14.10.712,Info_measure_main_exp,2022.2.2,Win32,60.2373351,,,,,,,,,,,,,,,,,,masks/mask_003.jpg,,,,,,,,,,,,,,,,,,,,,,,,,,,,,,,,,,,,,,,,,,,0,2,2,2,1,,,,,,,,,,,,,,,,,,,,,,,,,,,,,,,,,,,,,,,,,,,,,,
383138,001,2022-11-21_01h14.10.712,Info_measure_main_exp,2022.2.2,Win32,60.2373351,,,,,,,,,,,,,,,,,,masks/mask_002.jpg,,,,,,,,,,,,,,,,,,,,,,,,,,,,,,,,,,,,,,,,,,,0,3,3,1,1,,,,,,,,,,,,,,,,,,,,,,,,,,,,,,,,,,,,,,,,,,,,,,
383138,001,2022-11-21_01h14.10.712,Info_measure_main_exp,2022.2.2,Win32,60.2373351,,,,,,,,,,,,,,,,,,masks/mask_001.jpg,,,,,,,,,,,,,,,,,,,,,,,,,,,,,,,,,,,,,,,,,,,0,4,4,0,1,,,,,,,,,,,,,,,,,,,,,,,,,,,,,,,,,,,,,,,,,,,,,,
383138,001,2022-11-21_01h14.10.712,Info_measure_main_exp,2022.2.2,Win32,60.2373351,,,,,,,,,,,,,,,,,,masks/mask_003.jpg,,,,,,,,,,,,,,,,,,,,,,,,,,,,,,,,,,,,,,,,,,,,,,,,0,0,0,2,1,,,,,,,,,,,,,,,,,,,,,,,,,,,,,,,,,,,,,,,,,
383138,001,2022-11-21_01h14.10.712,Info_measure_main_exp,2022.2.2,Win32,60.2373351,,,,,,,,,,,,,,,,,,masks/mask_005.jpg,,,,,,,,,,,,,,,,,,,,,,,,,,,,,,,,,,,,,,,,,,,,,,,,0,1,1,4,1,,,,,,,,,,,,,,,,,,,,,,,,,,,,,,,,,,,,,,,,,
383138,001,2022-11-21_01h14.10.712,Info_measure_main_exp,2022.2.2,Win32,60.2373351,,,,,,,,,,,,,,,,,,masks/mask_002.jpg,,,,,,,,,,,,,,,,,,,,,,,,,,,,,,,,,,,,,,,,,,,,,,,,0,2,2,1,1,,,,,,,,,,,,,,,,,,,,,,,,,,,,,,,,,,,,,,,,,
383138,001,2022-11-21_01h14.10.712,Info_measure_main_exp,2022.2.2,Win32,60.2373351,,,,,,,,,,,,,,,,,,masks/mask_004.jpg,,,,,,,,,,,,,,,,,,,,,,,,,,,,,,,,,,,,,,,,,,,,,,,,0,3,3,3,1,,,,,,,,,,,,,,,,,,,,,,,,,,,,,,,,,,,,,,,,,
383138,001,2022-11-21_01h14.10.712,Info_measure_main_exp,2022.2.2,Win32,60.2373351,,,,,,,,,,,,,,,,,,masks/mask_001.jpg,,,,,,,,,,,,,,,,,,,,,,,,,,,,,,,,,,,,,,,,,,,,,,,,0,4,4,0,1,,,,,,,,,,,,,,,,,,,,,,,,,,,,,,,,,,,,,,,,,
383138,001,2022-11-21_01h14.10.712,Info_measure_main_exp,2022.2.2,Win32,60.2373351,,,,,,,,,,,,,,,,,,,,,,,,,,,,,,5,0.6815,1,,,,,,,,,,,,0,131,5,5,2178,2142,absent_patch/patch0002178.jpg,absent_patch/patch0002142.jpg,,,,,,,,,,,,,,,,,,,,0.028645833,-0.002604167,1,0,0,response3disk,14,0.001302083,0.013020833,1,0,0,center_square,0,13,13,41,1,,,,,,,,,,,,,,,,,,,,,,,
383138,001,2022-11-21_01h14.10.712,Info_measure_main_exp,2022.2.2,Win32,60.2373351,,,,,,,,,,,,,,,,,,masks/mask_003.jpg,,,,,,,,,,,,,,,,,,,,,,,,,,,,,,,,,,,,,,,,,,,0,0,0,2,1,,,,,,,,,,,,,,,,,,,,,,,,,,,,,,,,,,,,,,,,,,,,,,
383138,001,2022-11-21_01h14.10.712,Info_measure_main_exp,2022.2.2,Win32,60.2373351,,,,,,,,,,,,,,,,,,masks/mask_004.jpg,,,,,,,,,,,,,,,,,,,,,,,,,,,,,,,,,,,,,,,,,,,0,1,1,3,1,,,,,,,,,,,,,,,,,,,,,,,,,,,,,,,,,,,,,,,,,,,,,,
383138,001,2022-11-21_01h14.10.712,Info_measure_main_exp,2022.2.2,Win32,60.2373351,,,,,,,,,,,,,,,,,,masks/mask_005.jpg,,,,,,,,,,,,,,,,,,,,,,,,,,,,,,,,,,,,,,,,,,,0,2,2,4,1,,,,,,,,,,,,,,,,,,,,,,,,,,,,,,,,,,,,,,,,,,,,,,
383138,001,2022-11-21_01h14.10.712,Info_measure_main_exp,2022.2.2,Win32,60.2373351,,,,,,,,,,,,,,,,,,masks/mask_001.jpg,,,,,,,,,,,,,,,,,,,,,,,,,,,,,,,,,,,,,,,,,,,0,3,3,0,1,,,,,,,,,,,,,,,,,,,,,,,,,,,,,,,,,,,,,,,,,,,,,,
383138,001,2022-11-21_01h14.10.712,Info_measure_main_exp,2022.2.2,Win32,60.2373351,,,,,,,,,,,,,,,,,,masks/mask_002.jpg,,,,,,,,,,,,,,,,,,,,,,,,,,,,,,,,,,,,,,,,,,,0,4,4,1,1,,,,,,,,,,,,,,,,,,,,,,,,,,,,,,,,,,,,,,,,,,,,,,
383138,001,2022-11-21_01h14.10.712,Info_measure_main_exp,2022.2.2,Win32,60.2373351,,,,,,,,,,,,,,,,,,masks/mask_002.jpg,,,,,,,,,,,,,,,,,,,,,,,,,,,,,,,,,,,,,,,,,,,,,,,,0,0,0,1,1,,,,,,,,,,,,,,,,,,,,,,,,,,,,,,,,,,,,,,,,,
383138,001,2022-11-21_01h14.10.712,Info_measure_main_exp,2022.2.2,Win32,60.2373351,,,,,,,,,,,,,,,,,,masks/mask_004.jpg,,,,,,,,,,,,,,,,,,,,,,,,,,,,,,,,,,,,,,,,,,,,,,,,0,1,1,3,1,,,,,,,,,,,,,,,,,,,,,,,,,,,,,,,,,,,,,,,,,
383138,001,2022-11-21_01h14.10.712,Info_measure_main_exp,2022.2.2,Win32,60.2373351,,,,,,,,,,,,,,,,,,masks/mask_003.jpg,,,,,,,,,,,,,,,,,,,,,,,,,,,,,,,,,,,,,,,,,,,,,,,,0,2,2,2,1,,,,,,,,,,,,,,,,,,,,,,,,,,,,,,,,,,,,,,,,,
383138,001,2022-11-21_01h14.10.712,Info_measure_main_exp,2022.2.2,Win32,60.2373351,,,,,,,,,,,,,,,,,,masks/mask_005.jpg,,,,,,,,,,,,,,,,,,,,,,,,,,,,,,,,,,,,,,,,,,,,,,,,0,3,3,4,1,,,,,,,,,,,,,,,,,,,,,,,,,,,,,,,,,,,,,,,,,
383138,001,2022-11-21_01h14.10.712,Info_measure_main_exp,2022.2.2,Win32,60.2373351,,,,,,,,,,,,,,,,,,masks/mask_001.jpg,,,,,,,,,,,,,,,,,,,,,,,,,,,,,,,,,,,,,,,,,,,,,,,,0,4,4,0,1,,,,,,,,,,,,,,,,,,,,,,,,,,,,,,,,,,,,,,,,,
383138,001,2022-11-21_01h14.10.712,Info_measure_main_exp,2022.2.2,Win32,60.2373351,,,,,,,,,,,,,,,,,,,,,,,,,,,,,,6,0.5961,1,,,,,,,,,,,,0,131,5,5,2298,2178,absent_patch/patch0002298.jpg,absent_patch/patch0002178.jpg,,,,,,,,,,,,,,,,,,,,0.040364583,0.024739583,1,0,0,response1disk,15,0.001302083,0.001302083,1,0,0,center_square,0,14,14,84,1,,,,,,,,,,,,,,,,,,,,,,,
383138,001,2022-11-21_01h14.10.712,Info_measure_main_exp,2022.2.2,Win32,60.2373351,,,,,,,,,,,,,,,,,,masks/mask_005.jpg,,,,,,,,,,,,,,,,,,,,,,,,,,,,,,,,,,,,,,,,,,,0,0,0,4,1,,,,,,,,,,,,,,,,,,,,,,,,,,,,,,,,,,,,,,,,,,,,,,
383138,001,2022-11-21_01h14.10.712,Info_measure_main_exp,2022.2.2,Win32,60.2373351,,,,,,,,,,,,,,,,,,masks/mask_004.jpg,,,,,,,,,,,,,,,,,,,,,,,,,,,,,,,,,,,,,,,,,,,0,1,1,3,1,,,,,,,,,,,,,,,,,,,,,,,,,,,,,,,,,,,,,,,,,,,,,,
383138,001,2022-11-21_01h14.10.712,Info_measure_main_exp,2022.2.2,Win32,60.2373351,,,,,,,,,,,,,,,,,,masks/mask_003.jpg,,,,,,,,,,,,,,,,,,,,,,,,,,,,,,,,,,,,,,,,,,,0,2,2,2,1,,,,,,,,,,,,,,,,,,,,,,,,,,,,,,,,,,,,,,,,,,,,,,
383138,001,2022-11-21_01h14.10.712,Info_measure_main_exp,2022.2.2,Win32,60.2373351,,,,,,,,,,,,,,,,,,masks/mask_002.jpg,,,,,,,,,,,,,,,,,,,,,,,,,,,,,,,,,,,,,,,,,,,0,3,3,1,1,,,,,,,,,,,,,,,,,,,,,,,,,,,,,,,,,,,,,,,,,,,,,,
383138,001,2022-11-21_01h14.10.712,Info_measure_main_exp,2022.2.2,Win32,60.2373351,,,,,,,,,,,,,,,,,,masks/mask_001.jpg,,,,,,,,,,,,,,,,,,,,,,,,,,,,,,,,,,,,,,,,,,,0,4,4,0,1,,,,,,,,,,,,,,,,,,,,,,,,,,,,,,,,,,,,,,,,,,,,,,
383138,001,2022-11-21_01h14.10.712,Info_measure_main_exp,2022.2.2,Win32,60.2373351,,,,,,,,,,,,,,,,,,masks/mask_003.jpg,,,,,,,,,,,,,,,,,,,,,,,,,,,,,,,,,,,,,,,,,,,,,,,,0,0,0,2,1,,,,,,,,,,,,,,,,,,,,,,,,,,,,,,,,,,,,,,,,,
383138,001,2022-11-21_01h14.10.712,Info_measure_main_exp,2022.2.2,Win32,60.2373351,,,,,,,,,,,,,,,,,,masks/mask_002.jpg,,,,,,,,,,,,,,,,,,,,,,,,,,,,,,,,,,,,,,,,,,,,,,,,0,1,1,1,1,,,,,,,,,,,,,,,,,,,,,,,,,,,,,,,,,,,,,,,,,
383138,001,2022-11-21_01h14.10.712,Info_measure_main_exp,2022.2.2,Win32,60.2373351,,,,,,,,,,,,,,,,,,masks/mask_005.jpg,,,,,,,,,,,,,,,,,,,,,,,,,,,,,,,,,,,,,,,,,,,,,,,,0,2,2,4,1,,,,,,,,,,,,,,,,,,,,,,,,,,,,,,,,,,,,,,,,,
383138,001,2022-11-21_01h14.10.712,Info_measure_main_exp,2022.2.2,Win32,60.2373351,,,,,,,,,,,,,,,,,,masks/mask_004.jpg,,,,,,,,,,,,,,,,,,,,,,,,,,,,,,,,,,,,,,,,,,,,,,,,0,3,3,3,1,,,,,,,,,,,,,,,,,,,,,,,,,,,,,,,,,,,,,,,,,
383138,001,2022-11-21_01h14.10.712,Info_measure_main_exp,2022.2.2,Win32,60.2373351,,,,,,,,,,,,,,,,,,masks/mask_001.jpg,,,,,,,,,,,,,,,,,,,,,,,,,,,,,,,,,,,,,,,,,,,,,,,,0,4,4,0,1,,,,,,,,,,,,,,,,,,,,,,,,,,,,,,,,,,,,,,,,,
383138,001,2022-11-21_01h14.10.712,Info_measure_main_exp,2022.2.2,Win32,60.2373351,,,,,,,,,,,,,,,,,,,,,,,,,,,,,,4,3.0626,1,,,,,,,,,,,,0,131,5,5,2190,1974,absent_patch/patch0002190.jpg,absent_patch/patch0001974.jpg,,,,,,,,,,,,,,,,,,,,0.014322917,-0.028645833,1,0,0,response3disk,16,-0.002604167,0.010416667,1,0,0,center_square,0,15,15,119,1,,,,,,,,,,,,,,,,,,,,,,,
383138,001,2022-11-21_01h14.10.712,Info_measure_main_exp,2022.2.2,Win32,60.2373351,,,,,,,,,,,,,,,,,,masks/mask_005.jpg,,,,,,,,,,,,,,,,,,,,,,,,,,,,,,,,,,,,,,,,,,,0,0,0,4,1,,,,,,,,,,,,,,,,,,,,,,,,,,,,,,,,,,,,,,,,,,,,,,
383138,001,2022-11-21_01h14.10.712,Info_measure_main_exp,2022.2.2,Win32,60.2373351,,,,,,,,,,,,,,,,,,masks/mask_004.jpg,,,,,,,,,,,,,,,,,,,,,,,,,,,,,,,,,,,,,,,,,,,0,1,1,3,1,,,,,,,,,,,,,,,,,,,,,,,,,,,,,,,,,,,,,,,,,,,,,,
383138,001,2022-11-21_01h14.10.712,Info_measure_main_exp,2022.2.2,Win32,60.2373351,,,,,,,,,,,,,,,,,,masks/mask_003.jpg,,,,,,,,,,,,,,,,,,,,,,,,,,,,,,,,,,,,,,,,,,,0,2,2,2,1,,,,,,,,,,,,,,,,,,,,,,,,,,,,,,,,,,,,,,,,,,,,,,
383138,001,2022-11-21_01h14.10.712,Info_measure_main_exp,2022.2.2,Win32,60.2373351,,,,,,,,,,,,,,,,,,masks/mask_002.jpg,,,,,,,,,,,,,,,,,,,,,,,,,,,,,,,,,,,,,,,,,,,0,3,3,1,1,,,,,,,,,,,,,,,,,,,,,,,,,,,,,,,,,,,,,,,,,,,,,,
383138,001,2022-11-21_01h14.10.712,Info_measure_main_exp,2022.2.2,Win32,60.2373351,,,,,,,,,,,,,,,,,,masks/mask_001.jpg,,,,,,,,,,,,,,,,,,,,,,,,,,,,,,,,,,,,,,,,,,,0,4,4,0,1,,,,,,,,,,,,,,,,,,,,,,,,,,,,,,,,,,,,,,,,,,,,,,
383138,001,2022-11-21_01h14.10.712,Info_measure_main_exp,2022.2.2,Win32,60.2373351,,,,,,,,,,,,,,,,,,masks/mask_003.jpg,,,,,,,,,,,,,,,,,,,,,,,,,,,,,,,,,,,,,,,,,,,,,,,,0,0,0,2,1,,,,,,,,,,,,,,,,,,,,,,,,,,,,,,,,,,,,,,,,,
383138,001,2022-11-21_01h14.10.712,Info_measure_main_exp,2022.2.2,Win32,60.2373351,,,,,,,,,,,,,,,,,,masks/mask_005.jpg,,,,,,,,,,,,,,,,,,,,,,,,,,,,,,,,,,,,,,,,,,,,,,,,0,1,1,4,1,,,,,,,,,,,,,,,,,,,,,,,,,,,,,,,,,,,,,,,,,
383138,001,2022-11-21_01h14.10.712,Info_measure_main_exp,2022.2.2,Win32,60.2373351,,,,,,,,,,,,,,,,,,masks/mask_004.jpg,,,,,,,,,,,,,,,,,,,,,,,,,,,,,,,,,,,,,,,,,,,,,,,,0,2,2,3,1,,,,,,,,,,,,,,,,,,,,,,,,,,,,,,,,,,,,,,,,,
383138,001,2022-11-21_01h14.10.712,Info_measure_main_exp,2022.2.2,Win32,60.2373351,,,,,,,,,,,,,,,,,,masks/mask_002.jpg,,,,,,,,,,,,,,,,,,,,,,,,,,,,,,,,,,,,,,,,,,,,,,,,0,3,3,1,1,,,,,,,,,,,,,,,,,,,,,,,,,,,,,,,,,,,,,,,,,
383138,001,2022-11-21_01h14.10.712,Info_measure_main_exp,2022.2.2,Win32,60.2373351,,,,,,,,,,,,,,,,,,masks/mask_001.jpg,,,,,,,,,,,,,,,,,,,,,,,,,,,,,,,,,,,,,,,,,,,,,,,,0,4,4,0,1,,,,,,,,,,,,,,,,,,,,,,,,,,,,,,,,,,,,,,,,,
383138,001,2022-11-21_01h14.10.712,Info_measure_main_exp,2022.2.2,Win32,60.2373351,,,,,,,,,,,,,,,,,,,,,,,,,,,,,,6,0.9685,1,,,,,,,,,,,,0,131,5,5,2274,2082,absent_patch/patch0002274.jpg,absent_patch/patch0002082.jpg,,,,,,,,,,,,,,,,,,,,0.02734375,0.01953125,1,0,0,response1disk,17,-0.00390625,0.001302083,1,0,0,center_square,0,16,16,100,1,,,,,,,,,,,,,,,,,,,,,,,
383138,001,2022-11-21_01h14.10.712,Info_measure_main_exp,2022.2.2,Win32,60.2373351,,,,,,,,,,,,,,,,,,masks/mask_001.jpg,,,,,,,,,,,,,,,,,,,,,,,,,,,,,,,,,,,,,,,,,,,0,0,0,0,1,,,,,,,,,,,,,,,,,,,,,,,,,,,,,,,,,,,,,,,,,,,,,,
383138,001,2022-11-21_01h14.10.712,Info_measure_main_exp,2022.2.2,Win32,60.2373351,,,,,,,,,,,,,,,,,,masks/mask_002.jpg,,,,,,,,,,,,,,,,,,,,,,,,,,,,,,,,,,,,,,,,,,,0,1,1,1,1,,,,,,,,,,,,,,,,,,,,,,,,,,,,,,,,,,,,,,,,,,,,,,
383138,001,2022-11-21_01h14.10.712,Info_measure_main_exp,2022.2.2,Win32,60.2373351,,,,,,,,,,,,,,,,,,masks/mask_004.jpg,,,,,,,,,,,,,,,,,,,,,,,,,,,,,,,,,,,,,,,,,,,0,2,2,3,1,,,,,,,,,,,,,,,,,,,,,,,,,,,,,,,,,,,,,,,,,,,,,,
383138,001,2022-11-21_01h14.10.712,Info_measure_main_exp,2022.2.2,Win32,60.2373351,,,,,,,,,,,,,,,,,,masks/mask_005.jpg,,,,,,,,,,,,,,,,,,,,,,,,,,,,,,,,,,,,,,,,,,,0,3,3,4,1,,,,,,,,,,,,,,,,,,,,,,,,,,,,,,,,,,,,,,,,,,,,,,
383138,001,2022-11-21_01h14.10.712,Info_measure_main_exp,2022.2.2,Win32,60.2373351,,,,,,,,,,,,,,,,,,masks/mask_003.jpg,,,,,,,,,,,,,,,,,,,,,,,,,,,,,,,,,,,,,,,,,,,0,4,4,2,1,,,,,,,,,,,,,,,,,,,,,,,,,,,,,,,,,,,,,,,,,,,,,,
383138,001,2022-11-21_01h14.10.712,Info_measure_main_exp,2022.2.2,Win32,60.2373351,,,,,,,,,,,,,,,,,,masks/mask_004.jpg,,,,,,,,,,,,,,,,,,,,,,,,,,,,,,,,,,,,,,,,,,,,,,,,0,0,0,3,1,,,,,,,,,,,,,,,,,,,,,,,,,,,,,,,,,,,,,,,,,
383138,001,2022-11-21_01h14.10.712,Info_measure_main_exp,2022.2.2,Win32,60.2373351,,,,,,,,,,,,,,,,,,masks/mask_005.jpg,,,,,,,,,,,,,,,,,,,,,,,,,,,,,,,,,,,,,,,,,,,,,,,,0,1,1,4,1,,,,,,,,,,,,,,,,,,,,,,,,,,,,,,,,,,,,,,,,,
383138,001,2022-11-21_01h14.10.712,Info_measure_main_exp,2022.2.2,Win32,60.2373351,,,,,,,,,,,,,,,,,,masks/mask_003.jpg,,,,,,,,,,,,,,,,,,,,,,,,,,,,,,,,,,,,,,,,,,,,,,,,0,2,2,2,1,,,,,,,,,,,,,,,,,,,,,,,,,,,,,,,,,,,,,,,,,
383138,001,2022-11-21_01h14.10.712,Info_measure_main_exp,2022.2.2,Win32,60.2373351,,,,,,,,,,,,,,,,,,masks/mask_001.jpg,,,,,,,,,,,,,,,,,,,,,,,,,,,,,,,,,,,,,,,,,,,,,,,,0,3,3,0,1,,,,,,,,,,,,,,,,,,,,,,,,,,,,,,,,,,,,,,,,,
383138,001,2022-11-21_01h14.10.712,Info_measure_main_exp,2022.2.2,Win32,60.2373351,,,,,,,,,,,,,,,,,,masks/mask_002.jpg,,,,,,,,,,,,,,,,,,,,,,,,,,,,,,,,,,,,,,,,,,,,,,,,0,4,4,1,1,,,,,,,,,,,,,,,,,,,,,,,,,,,,,,,,,,,,,,,,,
383138,001,2022-11-21_01h14.10.712,Info_measure_main_exp,2022.2.2,Win32,60.2373351,,,,,,,,,,,,,,,,,,,,,,,,,,,,,,7,0.763,1,,,,,,,,,,,,0,131,5,5,1950,2298,absent_patch/patch0001950.jpg,absent_patch/patch0002298.jpg,,,,,,,,,,,,,,,,,,,,0.024739583,0.04296875,1,0,0,response1disk,18,-0.005208333,-0.005208333,1,0,0,center_square,0,17,17,18,1,,,,,,,,,,,,,,,,,,,,,,,
383138,001,2022-11-21_01h14.10.712,Info_measure_main_exp,2022.2.2,Win32,60.2373351,,,,,,,,,,,,,,,,,,masks/mask_002.jpg,,,,,,,,,,,,,,,,,,,,,,,,,,,,,,,,,,,,,,,,,,,0,0,0,1,1,,,,,,,,,,,,,,,,,,,,,,,,,,,,,,,,,,,,,,,,,,,,,,
383138,001,2022-11-21_01h14.10.712,Info_measure_main_exp,2022.2.2,Win32,60.2373351,,,,,,,,,,,,,,,,,,masks/mask_005.jpg,,,,,,,,,,,,,,,,,,,,,,,,,,,,,,,,,,,,,,,,,,,0,1,1,4,1,,,,,,,,,,,,,,,,,,,,,,,,,,,,,,,,,,,,,,,,,,,,,,
383138,001,2022-11-21_01h14.10.712,Info_measure_main_exp,2022.2.2,Win32,60.2373351,,,,,,,,,,,,,,,,,,masks/mask_001.jpg,,,,,,,,,,,,,,,,,,,,,,,,,,,,,,,,,,,,,,,,,,,0,2,2,0,1,,,,,,,,,,,,,,,,,,,,,,,,,,,,,,,,,,,,,,,,,,,,,,
383138,001,2022-11-21_01h14.10.712,Info_measure_main_exp,2022.2.2,Win32,60.2373351,,,,,,,,,,,,,,,,,,masks/mask_004.jpg,,,,,,,,,,,,,,,,,,,,,,,,,,,,,,,,,,,,,,,,,,,0,3,3,3,1,,,,,,,,,,,,,,,,,,,,,,,,,,,,,,,,,,,,,,,,,,,,,,
383138,001,2022-11-21_01h14.10.712,Info_measure_main_exp,2022.2.2,Win32,60.2373351,,,,,,,,,,,,,,,,,,masks/mask_003.jpg,,,,,,,,,,,,,,,,,,,,,,,,,,,,,,,,,,,,,,,,,,,0,4,4,2,1,,,,,,,,,,,,,,,,,,,,,,,,,,,,,,,,,,,,,,,,,,,,,,
383138,001,2022-11-21_01h14.10.712,Info_measure_main_exp,2022.2.2,Win32,60.2373351,,,,,,,,,,,,,,,,,,masks/mask_004.jpg,,,,,,,,,,,,,,,,,,,,,,,,,,,,,,,,,,,,,,,,,,,,,,,,0,0,0,3,1,,,,,,,,,,,,,,,,,,,,,,,,,,,,,,,,,,,,,,,,,
383138,001,2022-11-21_01h14.10.712,Info_measure_main_exp,2022.2.2,Win32,60.2373351,,,,,,,,,,,,,,,,,,masks/mask_005.jpg,,,,,,,,,,,,,,,,,,,,,,,,,,,,,,,,,,,,,,,,,,,,,,,,0,1,1,4,1,,,,,,,,,,,,,,,,,,,,,,,,,,,,,,,,,,,,,,,,,
383138,001,2022-11-21_01h14.10.712,Info_measure_main_exp,2022.2.2,Win32,60.2373351,,,,,,,,,,,,,,,,,,masks/mask_003.jpg,,,,,,,,,,,,,,,,,,,,,,,,,,,,,,,,,,,,,,,,,,,,,,,,0,2,2,2,1,,,,,,,,,,,,,,,,,,,,,,,,,,,,,,,,,,,,,,,,,
383138,001,2022-11-21_01h14.10.712,Info_measure_main_exp,2022.2.2,Win32,60.2373351,,,,,,,,,,,,,,,,,,masks/mask_001.jpg,,,,,,,,,,,,,,,,,,,,,,,,,,,,,,,,,,,,,,,,,,,,,,,,0,3,3,0,1,,,,,,,,,,,,,,,,,,,,,,,,,,,,,,,,,,,,,,,,,
383138,001,2022-11-21_01h14.10.712,Info_measure_main_exp,2022.2.2,Win32,60.2373351,,,,,,,,,,,,,,,,,,masks/mask_002.jpg,,,,,,,,,,,,,,,,,,,,,,,,,,,,,,,,,,,,,,,,,,,,,,,,0,4,4,1,1,,,,,,,,,,,,,,,,,,,,,,,,,,,,,,,,,,,,,,,,,
383138,001,2022-11-21_01h14.10.712,Info_measure_main_exp,2022.2.2,Win32,60.2373351,,,,,,,,,,,,,,,,,,,,,,,,,,,,,,0,0.5348,1,,,,,,,,,,,,0,131,5,5,2178,2178,absent_patch/patch0002178.jpg,absent_patch/patch0002178.jpg,,,,,,,,,,,,,,,,,,,,-0.03125,0.083333333,1,0,0,response7disk,19,-0.001302083,0.00390625,1,0,0,center_square,0,18,18,98,1,,,,,,,,,,,,,,,,,,,,,,,
383138,001,2022-11-21_01h14.10.712,Info_measure_main_exp,2022.2.2,Win32,60.2373351,,,,,,,,,,,,,,,,,,masks/mask_004.jpg,,,,,,,,,,,,,,,,,,,,,,,,,,,,,,,,,,,,,,,,,,,0,0,0,3,1,,,,,,,,,,,,,,,,,,,,,,,,,,,,,,,,,,,,,,,,,,,,,,
383138,001,2022-11-21_01h14.10.712,Info_measure_main_exp,2022.2.2,Win32,60.2373351,,,,,,,,,,,,,,,,,,masks/mask_003.jpg,,,,,,,,,,,,,,,,,,,,,,,,,,,,,,,,,,,,,,,,,,,0,1,1,2,1,,,,,,,,,,,,,,,,,,,,,,,,,,,,,,,,,,,,,,,,,,,,,,
383138,001,2022-11-21_01h14.10.712,Info_measure_main_exp,2022.2.2,Win32,60.2373351,,,,,,,,,,,,,,,,,,masks/mask_002.jpg,,,,,,,,,,,,,,,,,,,,,,,,,,,,,,,,,,,,,,,,,,,0,2,2,1,1,,,,,,,,,,,,,,,,,,,,,,,,,,,,,,,,,,,,,,,,,,,,,,
383138,001,2022-11-21_01h14.10.712,Info_measure_main_exp,2022.2.2,Win32,60.2373351,,,,,,,,,,,,,,,,,,masks/mask_001.jpg,,,,,,,,,,,,,,,,,,,,,,,,,,,,,,,,,,,,,,,,,,,0,3,3,0,1,,,,,,,,,,,,,,,,,,,,,,,,,,,,,,,,,,,,,,,,,,,,,,
383138,001,2022-11-21_01h14.10.712,Info_measure_main_exp,2022.2.2,Win32,60.2373351,,,,,,,,,,,,,,,,,,masks/mask_005.jpg,,,,,,,,,,,,,,,,,,,,,,,,,,,,,,,,,,,,,,,,,,,0,4,4,4,1,,,,,,,,,,,,,,,,,,,,,,,,,,,,,,,,,,,,,,,,,,,,,,
383138,001,2022-11-21_01h14.10.712,Info_measure_main_exp,2022.2.2,Win32,60.2373351,,,,,,,,,,,,,,,,,,masks/mask_004.jpg,,,,,,,,,,,,,,,,,,,,,,,,,,,,,,,,,,,,,,,,,,,,,,,,0,0,0,3,1,,,,,,,,,,,,,,,,,,,,,,,,,,,,,,,,,,,,,,,,,
383138,001,2022-11-21_01h14.10.712,Info_measure_main_exp,2022.2.2,Win32,60.2373351,,,,,,,,,,,,,,,,,,masks/mask_003.jpg,,,,,,,,,,,,,,,,,,,,,,,,,,,,,,,,,,,,,,,,,,,,,,,,0,1,1,2,1,,,,,,,,,,,,,,,,,,,,,,,,,,,,,,,,,,,,,,,,,
383138,001,2022-11-21_01h14.10.712,Info_measure_main_exp,2022.2.2,Win32,60.2373351,,,,,,,,,,,,,,,,,,masks/mask_002.jpg,,,,,,,,,,,,,,,,,,,,,,,,,,,,,,,,,,,,,,,,,,,,,,,,0,2,2,1,1,,,,,,,,,,,,,,,,,,,,,,,,,,,,,,,,,,,,,,,,,
383138,001,2022-11-21_01h14.10.712,Info_measure_main_exp,2022.2.2,Win32,60.2373351,,,,,,,,,,,,,,,,,,masks/mask_005.jpg,,,,,,,,,,,,,,,,,,,,,,,,,,,,,,,,,,,,,,,,,,,,,,,,0,3,3,4,1,,,,,,,,,,,,,,,,,,,,,,,,,,,,,,,,,,,,,,,,,
383138,001,2022-11-21_01h14.10.712,Info_measure_main_exp,2022.2.2,Win32,60.2373351,,,,,,,,,,,,,,,,,,masks/mask_001.jpg,,,,,,,,,,,,,,,,,,,,,,,,,,,,,,,,,,,,,,,,,,,,,,,,0,4,4,0,1,,,,,,,,,,,,,,,,,,,,,,,,,,,,,,,,,,,,,,,,,
383138,001,2022-11-21_01h14.10.712,Info_measure_main_exp,2022.2.2,Win32,60.2373351,,,,,,,,,,,,,,,,,,,,,,,,,,,,,,3,0.7037,1,,,,,,,,,,,,0,131,5,5,2154,2238,absent_patch/patch0002154.jpg,absent_patch/patch0002238.jpg,,,,,,,,,,,,,,,,,,,,-0.005208333,-0.020833333,1,0,0,response5disk,20,-0.001302083,0.001302083,1,0,0,center_square,0,19,19,21,1,,,,,,,,,,,,,,,,,,,,,,,
383138,001,2022-11-21_01h14.10.712,Info_measure_main_exp,2022.2.2,Win32,60.2373351,,,,,,,,,,,,,,,,,,masks/mask_001.jpg,,,,,,,,,,,,,,,,,,,,,,,,,,,,,,,,,,,,,,,,,,,0,0,0,0,1,,,,,,,,,,,,,,,,,,,,,,,,,,,,,,,,,,,,,,,,,,,,,,
383138,001,2022-11-21_01h14.10.712,Info_measure_main_exp,2022.2.2,Win32,60.2373351,,,,,,,,,,,,,,,,,,masks/mask_003.jpg,,,,,,,,,,,,,,,,,,,,,,,,,,,,,,,,,,,,,,,,,,,0,1,1,2,1,,,,,,,,,,,,,,,,,,,,,,,,,,,,,,,,,,,,,,,,,,,,,,
383138,001,2022-11-21_01h14.10.712,Info_measure_main_exp,2022.2.2,Win32,60.2373351,,,,,,,,,,,,,,,,,,masks/mask_002.jpg,,,,,,,,,,,,,,,,,,,,,,,,,,,,,,,,,,,,,,,,,,,0,2,2,1,1,,,,,,,,,,,,,,,,,,,,,,,,,,,,,,,,,,,,,,,,,,,,,,
383138,001,2022-11-21_01h14.10.712,Info_measure_main_exp,2022.2.2,Win32,60.2373351,,,,,,,,,,,,,,,,,,masks/mask_005.jpg,,,,,,,,,,,,,,,,,,,,,,,,,,,,,,,,,,,,,,,,,,,0,3,3,4,1,,,,,,,,,,,,,,,,,,,,,,,,,,,,,,,,,,,,,,,,,,,,,,
383138,001,2022-11-21_01h14.10.712,Info_measure_main_exp,2022.2.2,Win32,60.2373351,,,,,,,,,,,,,,,,,,masks/mask_004.jpg,,,,,,,,,,,,,,,,,,,,,,,,,,,,,,,,,,,,,,,,,,,0,4,4,3,1,,,,,,,,,,,,,,,,,,,,,,,,,,,,,,,,,,,,,,,,,,,,,,
383138,001,2022-11-21_01h14.10.712,Info_measure_main_exp,2022.2.2,Win32,60.2373351,,,,,,,,,,,,,,,,,,masks/mask_005.jpg,,,,,,,,,,,,,,,,,,,,,,,,,,,,,,,,,,,,,,,,,,,,,,,,0,0,0,4,1,,,,,,,,,,,,,,,,,,,,,,,,,,,,,,,,,,,,,,,,,
383138,001,2022-11-21_01h14.10.712,Info_measure_main_exp,2022.2.2,Win32,60.2373351,,,,,,,,,,,,,,,,,,masks/mask_002.jpg,,,,,,,,,,,,,,,,,,,,,,,,,,,,,,,,,,,,,,,,,,,,,,,,0,1,1,1,1,,,,,,,,,,,,,,,,,,,,,,,,,,,,,,,,,,,,,,,,,
383138,001,2022-11-21_01h14.10.712,Info_measure_main_exp,2022.2.2,Win32,60.2373351,,,,,,,,,,,,,,,,,,masks/mask_004.jpg,,,,,,,,,,,,,,,,,,,,,,,,,,,,,,,,,,,,,,,,,,,,,,,,0,2,2,3,1,,,,,,,,,,,,,,,,,,,,,,,,,,,,,,,,,,,,,,,,,
383138,001,2022-11-21_01h14.10.712,Info_measure_main_exp,2022.2.2,Win32,60.2373351,,,,,,,,,,,,,,,,,,masks/mask_003.jpg,,,,,,,,,,,,,,,,,,,,,,,,,,,,,,,,,,,,,,,,,,,,,,,,0,3,3,2,1,,,,,,,,,,,,,,,,,,,,,,,,,,,,,,,,,,,,,,,,,
383138,001,2022-11-21_01h14.10.712,Info_measure_main_exp,2022.2.2,Win32,60.2373351,,,,,,,,,,,,,,,,,,masks/mask_001.jpg,,,,,,,,,,,,,,,,,,,,,,,,,,,,,,,,,,,,,,,,,,,,,,,,0,4,4,0,1,,,,,,,,,,,,,,,,,,,,,,,,,,,,,,,,,,,,,,,,,
383138,001,2022-11-21_01h14.10.712,Info_measure_main_exp,2022.2.2,Win32,60.2373351,,,,,,,,,,,,,,,,,,,,,,,,,,,,,,6,0.85,1,,,,,,,,,,,,0,131,5,5,2238,2166,absent_patch/patch0002238.jpg,absent_patch/patch0002166.jpg,,,,,,,,,,,,,,,,,,,,0.033854167,0.006510417,1,0,0,response1disk,21,-0.010416667,-0.0078125,1,0,0,center_square,0,20,20,118,1,,,,,,,,,,,,,,,,,,,,,,,
383138,001,2022-11-21_01h14.10.712,Info_measure_main_exp,2022.2.2,Win32,60.2373351,,,,,,,,,,,,,,,,,,masks/mask_005.jpg,,,,,,,,,,,,,,,,,,,,,,,,,,,,,,,,,,,,,,,,,,,0,0,0,4,1,,,,,,,,,,,,,,,,,,,,,,,,,,,,,,,,,,,,,,,,,,,,,,
383138,001,2022-11-21_01h14.10.712,Info_measure_main_exp,2022.2.2,Win32,60.2373351,,,,,,,,,,,,,,,,,,masks/mask_002.jpg,,,,,,,,,,,,,,,,,,,,,,,,,,,,,,,,,,,,,,,,,,,0,1,1,1,1,,,,,,,,,,,,,,,,,,,,,,,,,,,,,,,,,,,,,,,,,,,,,,
383138,001,2022-11-21_01h14.10.712,Info_measure_main_exp,2022.2.2,Win32,60.2373351,,,,,,,,,,,,,,,,,,masks/mask_004.jpg,,,,,,,,,,,,,,,,,,,,,,,,,,,,,,,,,,,,,,,,,,,0,2,2,3,1,,,,,,,,,,,,,,,,,,,,,,,,,,,,,,,,,,,,,,,,,,,,,,
383138,001,2022-11-21_01h14.10.712,Info_measure_main_exp,2022.2.2,Win32,60.2373351,,,,,,,,,,,,,,,,,,masks/mask_001.jpg,,,,,,,,,,,,,,,,,,,,,,,,,,,,,,,,,,,,,,,,,,,0,3,3,0,1,,,,,,,,,,,,,,,,,,,,,,,,,,,,,,,,,,,,,,,,,,,,,,
383138,001,2022-11-21_01h14.10.712,Info_measure_main_exp,2022.2.2,Win32,60.2373351,,,,,,,,,,,,,,,,,,masks/mask_003.jpg,,,,,,,,,,,,,,,,,,,,,,,,,,,,,,,,,,,,,,,,,,,0,4,4,2,1,,,,,,,,,,,,,,,,,,,,,,,,,,,,,,,,,,,,,,,,,,,,,,
383138,001,2022-11-21_01h14.10.712,Info_measure_main_exp,2022.2.2,Win32,60.2373351,,,,,,,,,,,,,,,,,,masks/mask_005.jpg,,,,,,,,,,,,,,,,,,,,,,,,,,,,,,,,,,,,,,,,,,,,,,,,0,0,0,4,1,,,,,,,,,,,,,,,,,,,,,,,,,,,,,,,,,,,,,,,,,
383138,001,2022-11-21_01h14.10.712,Info_measure_main_exp,2022.2.2,Win32,60.2373351,,,,,,,,,,,,,,,,,,masks/mask_001.jpg,,,,,,,,,,,,,,,,,,,,,,,,,,,,,,,,,,,,,,,,,,,,,,,,0,1,1,0,1,,,,,,,,,,,,,,,,,,,,,,,,,,,,,,,,,,,,,,,,,
383138,001,2022-11-21_01h14.10.712,Info_measure_main_exp,2022.2.2,Win32,60.2373351,,,,,,,,,,,,,,,,,,masks/mask_002.jpg,,,,,,,,,,,,,,,,,,,,,,,,,,,,,,,,,,,,,,,,,,,,,,,,0,2,2,1,1,,,,,,,,,,,,,,,,,,,,,,,,,,,,,,,,,,,,,,,,,
383138,001,2022-11-21_01h14.10.712,Info_measure_main_exp,2022.2.2,Win32,60.2373351,,,,,,,,,,,,,,,,,,masks/mask_004.jpg,,,,,,,,,,,,,,,,,,,,,,,,,,,,,,,,,,,,,,,,,,,,,,,,0,3,3,3,1,,,,,,,,,,,,,,,,,,,,,,,,,,,,,,,,,,,,,,,,,
383138,001,2022-11-21_01h14.10.712,Info_measure_main_exp,2022.2.2,Win32,60.2373351,,,,,,,,,,,,,,,,,,masks/mask_003.jpg,,,,,,,,,,,,,,,,,,,,,,,,,,,,,,,,,,,,,,,,,,,,,,,,0,4,4,2,1,,,,,,,,,,,,,,,,,,,,,,,,,,,,,,,,,,,,,,,,,
383138,001,2022-11-21_01h14.10.712,Info_measure_main_exp,2022.2.2,Win32,60.2373351,,,,,,,,,,,,,,,,,,,,,,,,,,,,,,5,1.0326,1,,,,,,,,,,,,0,131,5,5,2250,2166,absent_patch/patch0002250.jpg,absent_patch/patch0002166.jpg,,,,,,,,,,,,,,,,,,,,0.022135417,-0.010416667,1,0,0,response3disk,22,0.006510417,-0.002604167,1,0,0,center_square,0,21,21,60,1,,,,,,,,,,,,,,,,,,,,,,,
383138,001,2022-11-21_01h14.10.712,Info_measure_main_exp,2022.2.2,Win32,60.2373351,,,,,,,,,,,,,,,,,,masks/mask_002.jpg,,,,,,,,,,,,,,,,,,,,,,,,,,,,,,,,,,,,,,,,,,,0,0,0,1,1,,,,,,,,,,,,,,,,,,,,,,,,,,,,,,,,,,,,,,,,,,,,,,
383138,001,2022-11-21_01h14.10.712,Info_measure_main_exp,2022.2.2,Win32,60.2373351,,,,,,,,,,,,,,,,,,masks/mask_003.jpg,,,,,,,,,,,,,,,,,,,,,,,,,,,,,,,,,,,,,,,,,,,0,1,1,2,1,,,,,,,,,,,,,,,,,,,,,,,,,,,,,,,,,,,,,,,,,,,,,,
383138,001,2022-11-21_01h14.10.712,Info_measure_main_exp,2022.2.2,Win32,60.2373351,,,,,,,,,,,,,,,,,,masks/mask_001.jpg,,,,,,,,,,,,,,,,,,,,,,,,,,,,,,,,,,,,,,,,,,,0,2,2,0,1,,,,,,,,,,,,,,,,,,,,,,,,,,,,,,,,,,,,,,,,,,,,,,
383138,001,2022-11-21_01h14.10.712,Info_measure_main_exp,2022.2.2,Win32,60.2373351,,,,,,,,,,,,,,,,,,masks/mask_004.jpg,,,,,,,,,,,,,,,,,,,,,,,,,,,,,,,,,,,,,,,,,,,0,3,3,3,1,,,,,,,,,,,,,,,,,,,,,,,,,,,,,,,,,,,,,,,,,,,,,,
383138,001,2022-11-21_01h14.10.712,Info_measure_main_exp,2022.2.2,Win32,60.2373351,,,,,,,,,,,,,,,,,,masks/mask_005.jpg,,,,,,,,,,,,,,,,,,,,,,,,,,,,,,,,,,,,,,,,,,,0,4,4,4,1,,,,,,,,,,,,,,,,,,,,,,,,,,,,,,,,,,,,,,,,,,,,,,
383138,001,2022-11-21_01h14.10.712,Info_measure_main_exp,2022.2.2,Win32,60.2373351,,,,,,,,,,,,,,,,,,masks/mask_004.jpg,,,,,,,,,,,,,,,,,,,,,,,,,,,,,,,,,,,,,,,,,,,,,,,,0,0,0,3,1,,,,,,,,,,,,,,,,,,,,,,,,,,,,,,,,,,,,,,,,,
383138,001,2022-11-21_01h14.10.712,Info_measure_main_exp,2022.2.2,Win32,60.2373351,,,,,,,,,,,,,,,,,,masks/mask_003.jpg,,,,,,,,,,,,,,,,,,,,,,,,,,,,,,,,,,,,,,,,,,,,,,,,0,1,1,2,1,,,,,,,,,,,,,,,,,,,,,,,,,,,,,,,,,,,,,,,,,
383138,001,2022-11-21_01h14.10.712,Info_measure_main_exp,2022.2.2,Win32,60.2373351,,,,,,,,,,,,,,,,,,masks/mask_005.jpg,,,,,,,,,,,,,,,,,,,,,,,,,,,,,,,,,,,,,,,,,,,,,,,,0,2,2,4,1,,,,,,,,,,,,,,,,,,,,,,,,,,,,,,,,,,,,,,,,,
383138,001,2022-11-21_01h14.10.712,Info_measure_main_exp,2022.2.2,Win32,60.2373351,,,,,,,,,,,,,,,,,,masks/mask_001.jpg,,,,,,,,,,,,,,,,,,,,,,,,,,,,,,,,,,,,,,,,,,,,,,,,0,3,3,0,1,,,,,,,,,,,,,,,,,,,,,,,,,,,,,,,,,,,,,,,,,
383138,001,2022-11-21_01h14.10.712,Info_measure_main_exp,2022.2.2,Win32,60.2373351,,,,,,,,,,,,,,,,,,masks/mask_002.jpg,,,,,,,,,,,,,,,,,,,,,,,,,,,,,,,,,,,,,,,,,,,,,,,,0,4,4,1,1,,,,,,,,,,,,,,,,,,,,,,,,,,,,,,,,,,,,,,,,,
383138,001,2022-11-21_01h14.10.712,Info_measure_main_exp,2022.2.2,Win32,60.2373351,,,,,,,,,,,,,,,,,,,,,,,,,,,,,,6,1.0834,1,,,,,,,,,,,,0,131,5,5,2178,2238,absent_patch/patch0002178.jpg,absent_patch/patch0002238.jpg,,,,,,,,,,,,,,,,,,,,0.049479167,0.016927083,1,0,0,response1disk,23,0.001302083,-0.00390625,1,0,0,center_square,0,22,22,57,1,,,,,,,,,,,,,,,,,,,,,,,
383138,001,2022-11-21_01h14.10.712,Info_measure_main_exp,2022.2.2,Win32,60.2373351,,,,,,,,,,,,,,,,,,masks/mask_005.jpg,,,,,,,,,,,,,,,,,,,,,,,,,,,,,,,,,,,,,,,,,,,0,0,0,4,1,,,,,,,,,,,,,,,,,,,,,,,,,,,,,,,,,,,,,,,,,,,,,,
383138,001,2022-11-21_01h14.10.712,Info_measure_main_exp,2022.2.2,Win32,60.2373351,,,,,,,,,,,,,,,,,,masks/mask_003.jpg,,,,,,,,,,,,,,,,,,,,,,,,,,,,,,,,,,,,,,,,,,,0,1,1,2,1,,,,,,,,,,,,,,,,,,,,,,,,,,,,,,,,,,,,,,,,,,,,,,
383138,001,2022-11-21_01h14.10.712,Info_measure_main_exp,2022.2.2,Win32,60.2373351,,,,,,,,,,,,,,,,,,masks/mask_002.jpg,,,,,,,,,,,,,,,,,,,,,,,,,,,,,,,,,,,,,,,,,,,0,2,2,1,1,,,,,,,,,,,,,,,,,,,,,,,,,,,,,,,,,,,,,,,,,,,,,,
383138,001,2022-11-21_01h14.10.712,Info_measure_main_exp,2022.2.2,Win32,60.2373351,,,,,,,,,,,,,,,,,,masks/mask_004.jpg,,,,,,,,,,,,,,,,,,,,,,,,,,,,,,,,,,,,,,,,,,,0,3,3,3,1,,,,,,,,,,,,,,,,,,,,,,,,,,,,,,,,,,,,,,,,,,,,,,
383138,001,2022-11-21_01h14.10.712,Info_measure_main_exp,2022.2.2,Win32,60.2373351,,,,,,,,,,,,,,,,,,masks/mask_001.jpg,,,,,,,,,,,,,,,,,,,,,,,,,,,,,,,,,,,,,,,,,,,0,4,4,0,1,,,,,,,,,,,,,,,,,,,,,,,,,,,,,,,,,,,,,,,,,,,,,,
383138,001,2022-11-21_01h14.10.712,Info_measure_main_exp,2022.2.2,Win32,60.2373351,,,,,,,,,,,,,,,,,,masks/mask_004.jpg,,,,,,,,,,,,,,,,,,,,,,,,,,,,,,,,,,,,,,,,,,,,,,,,0,0,0,3,1,,,,,,,,,,,,,,,,,,,,,,,,,,,,,,,,,,,,,,,,,
383138,001,2022-11-21_01h14.10.712,Info_measure_main_exp,2022.2.2,Win32,60.2373351,,,,,,,,,,,,,,,,,,masks/mask_005.jpg,,,,,,,,,,,,,,,,,,,,,,,,,,,,,,,,,,,,,,,,,,,,,,,,0,1,1,4,1,,,,,,,,,,,,,,,,,,,,,,,,,,,,,,,,,,,,,,,,,
383138,001,2022-11-21_01h14.10.712,Info_measure_main_exp,2022.2.2,Win32,60.2373351,,,,,,,,,,,,,,,,,,masks/mask_003.jpg,,,,,,,,,,,,,,,,,,,,,,,,,,,,,,,,,,,,,,,,,,,,,,,,0,2,2,2,1,,,,,,,,,,,,,,,,,,,,,,,,,,,,,,,,,,,,,,,,,
383138,001,2022-11-21_01h14.10.712,Info_measure_main_exp,2022.2.2,Win32,60.2373351,,,,,,,,,,,,,,,,,,masks/mask_002.jpg,,,,,,,,,,,,,,,,,,,,,,,,,,,,,,,,,,,,,,,,,,,,,,,,0,3,3,1,1,,,,,,,,,,,,,,,,,,,,,,,,,,,,,,,,,,,,,,,,,
383138,001,2022-11-21_01h14.10.712,Info_measure_main_exp,2022.2.2,Win32,60.2373351,,,,,,,,,,,,,,,,,,masks/mask_001.jpg,,,,,,,,,,,,,,,,,,,,,,,,,,,,,,,,,,,,,,,,,,,,,,,,0,4,4,0,1,,,,,,,,,,,,,,,,,,,,,,,,,,,,,,,,,,,,,,,,,
383138,001,2022-11-21_01h14.10.712,Info_measure_main_exp,2022.2.2,Win32,60.2373351,,,,,,,,,,,,,,,,,,,,,,,,,,,,,,3,1.5995,1,,,,,,,,,,,,0,131,5,5,2142,2166,absent_patch/patch0002142.jpg,absent_patch/patch0002166.jpg,,,,,,,,,,,,,,,,,,,,-0.005208333,-0.024739583,1,0,0,response5disk,24,0.001302083,-0.001302083,1,0,0,center_square,0,23,23,66,1,,,,,,,,,,,,,,,,,,,,,,,
383138,001,2022-11-21_01h14.10.712,Info_measure_main_exp,2022.2.2,Win32,60.2373351,,,,,,,,,,,,,,,,,,masks/mask_001.jpg,,,,,,,,,,,,,,,,,,,,,,,,,,,,,,,,,,,,,,,,,,,0,0,0,0,1,,,,,,,,,,,,,,,,,,,,,,,,,,,,,,,,,,,,,,,,,,,,,,
383138,001,2022-11-21_01h14.10.712,Info_measure_main_exp,2022.2.2,Win32,60.2373351,,,,,,,,,,,,,,,,,,masks/mask_005.jpg,,,,,,,,,,,,,,,,,,,,,,,,,,,,,,,,,,,,,,,,,,,0,1,1,4,1,,,,,,,,,,,,,,,,,,,,,,,,,,,,,,,,,,,,,,,,,,,,,,
383138,001,2022-11-21_01h14.10.712,Info_measure_main_exp,2022.2.2,Win32,60.2373351,,,,,,,,,,,,,,,,,,masks/mask_003.jpg,,,,,,,,,,,,,,,,,,,,,,,,,,,,,,,,,,,,,,,,,,,0,2,2,2,1,,,,,,,,,,,,,,,,,,,,,,,,,,,,,,,,,,,,,,,,,,,,,,
383138,001,2022-11-21_01h14.10.712,Info_measure_main_exp,2022.2.2,Win32,60.2373351,,,,,,,,,,,,,,,,,,masks/mask_004.jpg,,,,,,,,,,,,,,,,,,,,,,,,,,,,,,,,,,,,,,,,,,,0,3,3,3,1,,,,,,,,,,,,,,,,,,,,,,,,,,,,,,,,,,,,,,,,,,,,,,
383138,001,2022-11-21_01h14.10.712,Info_measure_main_exp,2022.2.2,Win32,60.2373351,,,,,,,,,,,,,,,,,,masks/mask_002.jpg,,,,,,,,,,,,,,,,,,,,,,,,,,,,,,,,,,,,,,,,,,,0,4,4,1,1,,,,,,,,,,,,,,,,,,,,,,,,,,,,,,,,,,,,,,,,,,,,,,
383138,001,2022-11-21_01h14.10.712,Info_measure_main_exp,2022.2.2,Win32,60.2373351,,,,,,,,,,,,,,,,,,masks/mask_004.jpg,,,,,,,,,,,,,,,,,,,,,,,,,,,,,,,,,,,,,,,,,,,,,,,,0,0,0,3,1,,,,,,,,,,,,,,,,,,,,,,,,,,,,,,,,,,,,,,,,,
383138,001,2022-11-21_01h14.10.712,Info_measure_main_exp,2022.2.2,Win32,60.2373351,,,,,,,,,,,,,,,,,,masks/mask_005.jpg,,,,,,,,,,,,,,,,,,,,,,,,,,,,,,,,,,,,,,,,,,,,,,,,0,1,1,4,1,,,,,,,,,,,,,,,,,,,,,,,,,,,,,,,,,,,,,,,,,
383138,001,2022-11-21_01h14.10.712,Info_measure_main_exp,2022.2.2,Win32,60.2373351,,,,,,,,,,,,,,,,,,masks/mask_001.jpg,,,,,,,,,,,,,,,,,,,,,,,,,,,,,,,,,,,,,,,,,,,,,,,,0,2,2,0,1,,,,,,,,,,,,,,,,,,,,,,,,,,,,,,,,,,,,,,,,,
383138,001,2022-11-21_01h14.10.712,Info_measure_main_exp,2022.2.2,Win32,60.2373351,,,,,,,,,,,,,,,,,,masks/mask_002.jpg,,,,,,,,,,,,,,,,,,,,,,,,,,,,,,,,,,,,,,,,,,,,,,,,0,3,3,1,1,,,,,,,,,,,,,,,,,,,,,,,,,,,,,,,,,,,,,,,,,
383138,001,2022-11-21_01h14.10.712,Info_measure_main_exp,2022.2.2,Win32,60.2373351,,,,,,,,,,,,,,,,,,masks/mask_003.jpg,,,,,,,,,,,,,,,,,,,,,,,,,,,,,,,,,,,,,,,,,,,,,,,,0,4,4,2,1,,,,,,,,,,,,,,,,,,,,,,,,,,,,,,,,,,,,,,,,,
383138,001,2022-11-21_01h14.10.712,Info_measure_main_exp,2022.2.2,Win32,60.2373351,,,,,,,,,,,,,,,,,,,,,,,,,,,,,,4,0.8048,1,,,,,,,,,,,,0,131,5,5,2274,2238,absent_patch/patch0002274.jpg,absent_patch/patch0002238.jpg,,,,,,,,,,,,,,,,,,,,0.016927083,-0.029947917,1,0,0,response3disk,25,0.006510417,0,1,0,0,center_square,0,24,24,91,1,,,,,,,,,,,,,,,,,,,,,,,
383138,001,2022-11-21_01h14.10.712,Info_measure_main_exp,2022.2.2,Win32,60.2373351,,,,,,,,,,,,,,,,,,masks/mask_001.jpg,,,,,,,,,,,,,,,,,,,,,,,,,,,,,,,,,,,,,,,,,,,0,0,0,0,1,,,,,,,,,,,,,,,,,,,,,,,,,,,,,,,,,,,,,,,,,,,,,,
383138,001,2022-11-21_01h14.10.712,Info_measure_main_exp,2022.2.2,Win32,60.2373351,,,,,,,,,,,,,,,,,,masks/mask_002.jpg,,,,,,,,,,,,,,,,,,,,,,,,,,,,,,,,,,,,,,,,,,,0,1,1,1,1,,,,,,,,,,,,,,,,,,,,,,,,,,,,,,,,,,,,,,,,,,,,,,
383138,001,2022-11-21_01h14.10.712,Info_measure_main_exp,2022.2.2,Win32,60.2373351,,,,,,,,,,,,,,,,,,masks/mask_004.jpg,,,,,,,,,,,,,,,,,,,,,,,,,,,,,,,,,,,,,,,,,,,0,2,2,3,1,,,,,,,,,,,,,,,,,,,,,,,,,,,,,,,,,,,,,,,,,,,,,,
383138,001,2022-11-21_01h14.10.712,Info_measure_main_exp,2022.2.2,Win32,60.2373351,,,,,,,,,,,,,,,,,,masks/mask_005.jpg,,,,,,,,,,,,,,,,,,,,,,,,,,,,,,,,,,,,,,,,,,,0,3,3,4,1,,,,,,,,,,,,,,,,,,,,,,,,,,,,,,,,,,,,,,,,,,,,,,
383138,001,2022-11-21_01h14.10.712,Info_measure_main_exp,2022.2.2,Win32,60.2373351,,,,,,,,,,,,,,,,,,masks/mask_003.jpg,,,,,,,,,,,,,,,,,,,,,,,,,,,,,,,,,,,,,,,,,,,0,4,4,2,1,,,,,,,,,,,,,,,,,,,,,,,,,,,,,,,,,,,,,,,,,,,,,,
383138,001,2022-11-21_01h14.10.712,Info_measure_main_exp,2022.2.2,Win32,60.2373351,,,,,,,,,,,,,,,,,,masks/mask_002.jpg,,,,,,,,,,,,,,,,,,,,,,,,,,,,,,,,,,,,,,,,,,,,,,,,0,0,0,1,1,,,,,,,,,,,,,,,,,,,,,,,,,,,,,,,,,,,,,,,,,
383138,001,2022-11-21_01h14.10.712,Info_measure_main_exp,2022.2.2,Win32,60.2373351,,,,,,,,,,,,,,,,,,masks/mask_001.jpg,,,,,,,,,,,,,,,,,,,,,,,,,,,,,,,,,,,,,,,,,,,,,,,,0,1,1,0,1,,,,,,,,,,,,,,,,,,,,,,,,,,,,,,,,,,,,,,,,,
383138,001,2022-11-21_01h14.10.712,Info_measure_main_exp,2022.2.2,Win32,60.2373351,,,,,,,,,,,,,,,,,,masks/mask_003.jpg,,,,,,,,,,,,,,,,,,,,,,,,,,,,,,,,,,,,,,,,,,,,,,,,0,2,2,2,1,,,,,,,,,,,,,,,,,,,,,,,,,,,,,,,,,,,,,,,,,
383138,001,2022-11-21_01h14.10.712,Info_measure_main_exp,2022.2.2,Win32,60.2373351,,,,,,,,,,,,,,,,,,masks/mask_004.jpg,,,,,,,,,,,,,,,,,,,,,,,,,,,,,,,,,,,,,,,,,,,,,,,,0,3,3,3,1,,,,,,,,,,,,,,,,,,,,,,,,,,,,,,,,,,,,,,,,,
383138,001,2022-11-21_01h14.10.712,Info_measure_main_exp,2022.2.2,Win32,60.2373351,,,,,,,,,,,,,,,,,,masks/mask_005.jpg,,,,,,,,,,,,,,,,,,,,,,,,,,,,,,,,,,,,,,,,,,,,,,,,0,4,4,4,1,,,,,,,,,,,,,,,,,,,,,,,,,,,,,,,,,,,,,,,,,
383138,001,2022-11-21_01h14.10.712,Info_measure_main_exp,2022.2.2,Win32,60.2373351,,,,,,,,,,,,,,,,,,,,,,,,,,,,,,1,0.9172,1,,,,,,,,,,,,1,131,5,5,1,2154,present_patch/cong_131_5_a.jpg,absent_patch/patch0002154.jpg,,,,,,,,,,,,,,,,,,,,-0.026041667,0.016927083,1,0,0,response7disk,26,0,0,1,0,0,center_square,0,25,25,87,1,,,,,,,,,,,,,,,,,,,,,,,
383138,001,2022-11-21_01h14.10.712,Info_measure_main_exp,2022.2.2,Win32,60.2373351,,,,,,,,,,,,,,,,,,masks/mask_001.jpg,,,,,,,,,,,,,,,,,,,,,,,,,,,,,,,,,,,,,,,,,,,0,0,0,0,1,,,,,,,,,,,,,,,,,,,,,,,,,,,,,,,,,,,,,,,,,,,,,,
383138,001,2022-11-21_01h14.10.712,Info_measure_main_exp,2022.2.2,Win32,60.2373351,,,,,,,,,,,,,,,,,,masks/mask_003.jpg,,,,,,,,,,,,,,,,,,,,,,,,,,,,,,,,,,,,,,,,,,,0,1,1,2,1,,,,,,,,,,,,,,,,,,,,,,,,,,,,,,,,,,,,,,,,,,,,,,
383138,001,2022-11-21_01h14.10.712,Info_measure_main_exp,2022.2.2,Win32,60.2373351,,,,,,,,,,,,,,,,,,masks/mask_005.jpg,,,,,,,,,,,,,,,,,,,,,,,,,,,,,,,,,,,,,,,,,,,0,2,2,4,1,,,,,,,,,,,,,,,,,,,,,,,,,,,,,,,,,,,,,,,,,,,,,,
383138,001,2022-11-21_01h14.10.712,Info_measure_main_exp,2022.2.2,Win32,60.2373351,,,,,,,,,,,,,,,,,,masks/mask_004.jpg,,,,,,,,,,,,,,,,,,,,,,,,,,,,,,,,,,,,,,,,,,,0,3,3,3,1,,,,,,,,,,,,,,,,,,,,,,,,,,,,,,,,,,,,,,,,,,,,,,
383138,001,2022-11-21_01h14.10.712,Info_measure_main_exp,2022.2.2,Win32,60.2373351,,,,,,,,,,,,,,,,,,masks/mask_002.jpg,,,,,,,,,,,,,,,,,,,,,,,,,,,,,,,,,,,,,,,,,,,0,4,4,1,1,,,,,,,,,,,,,,,,,,,,,,,,,,,,,,,,,,,,,,,,,,,,,,
383138,001,2022-11-21_01h14.10.712,Info_measure_main_exp,2022.2.2,Win32,60.2373351,,,,,,,,,,,,,,,,,,masks/mask_001.jpg,,,,,,,,,,,,,,,,,,,,,,,,,,,,,,,,,,,,,,,,,,,,,,,,0,0,0,0,1,,,,,,,,,,,,,,,,,,,,,,,,,,,,,,,,,,,,,,,,,
383138,001,2022-11-21_01h14.10.712,Info_measure_main_exp,2022.2.2,Win32,60.2373351,,,,,,,,,,,,,,,,,,masks/mask_003.jpg,,,,,,,,,,,,,,,,,,,,,,,,,,,,,,,,,,,,,,,,,,,,,,,,0,1,1,2,1,,,,,,,,,,,,,,,,,,,,,,,,,,,,,,,,,,,,,,,,,
383138,001,2022-11-21_01h14.10.712,Info_measure_main_exp,2022.2.2,Win32,60.2373351,,,,,,,,,,,,,,,,,,masks/mask_005.jpg,,,,,,,,,,,,,,,,,,,,,,,,,,,,,,,,,,,,,,,,,,,,,,,,0,2,2,4,1,,,,,,,,,,,,,,,,,,,,,,,,,,,,,,,,,,,,,,,,,
383138,001,2022-11-21_01h14.10.712,Info_measure_main_exp,2022.2.2,Win32,60.2373351,,,,,,,,,,,,,,,,,,masks/mask_002.jpg,,,,,,,,,,,,,,,,,,,,,,,,,,,,,,,,,,,,,,,,,,,,,,,,0,3,3,1,1,,,,,,,,,,,,,,,,,,,,,,,,,,,,,,,,,,,,,,,,,
383138,001,2022-11-21_01h14.10.712,Info_measure_main_exp,2022.2.2,Win32,60.2373351,,,,,,,,,,,,,,,,,,masks/mask_004.jpg,,,,,,,,,,,,,,,,,,,,,,,,,,,,,,,,,,,,,,,,,,,,,,,,0,4,4,3,1,,,,,,,,,,,,,,,,,,,,,,,,,,,,,,,,,,,,,,,,,
383138,001,2022-11-21_01h14.10.712,Info_measure_main_exp,2022.2.2,Win32,60.2373351,,,,,,,,,,,,,,,,,,,,,,,,,,,,,,6,1.251,1,,,,,,,,,,,,0,131,5,5,2298,1986,absent_patch/patch0002298.jpg,absent_patch/patch0001986.jpg,,,,,,,,,,,,,,,,,,,,0.041666667,0.024739583,1,0,0,response1disk,27,-0.006510417,-0.014322917,1,0,0,center_square,0,26,26,32,1,,,,,,,,,,,,,,,,,,,,,,,
383138,001,2022-11-21_01h14.10.712,Info_measure_main_exp,2022.2.2,Win32,60.2373351,,,,,,,,,,,,,,,,,,masks/mask_005.jpg,,,,,,,,,,,,,,,,,,,,,,,,,,,,,,,,,,,,,,,,,,,0,0,0,4,1,,,,,,,,,,,,,,,,,,,,,,,,,,,,,,,,,,,,,,,,,,,,,,
383138,001,2022-11-21_01h14.10.712,Info_measure_main_exp,2022.2.2,Win32,60.2373351,,,,,,,,,,,,,,,,,,masks/mask_003.jpg,,,,,,,,,,,,,,,,,,,,,,,,,,,,,,,,,,,,,,,,,,,0,1,1,2,1,,,,,,,,,,,,,,,,,,,,,,,,,,,,,,,,,,,,,,,,,,,,,,
383138,001,2022-11-21_01h14.10.712,Info_measure_main_exp,2022.2.2,Win32,60.2373351,,,,,,,,,,,,,,,,,,masks/mask_001.jpg,,,,,,,,,,,,,,,,,,,,,,,,,,,,,,,,,,,,,,,,,,,0,2,2,0,1,,,,,,,,,,,,,,,,,,,,,,,,,,,,,,,,,,,,,,,,,,,,,,
383138,001,2022-11-21_01h14.10.712,Info_measure_main_exp,2022.2.2,Win32,60.2373351,,,,,,,,,,,,,,,,,,masks/mask_004.jpg,,,,,,,,,,,,,,,,,,,,,,,,,,,,,,,,,,,,,,,,,,,0,3,3,3,1,,,,,,,,,,,,,,,,,,,,,,,,,,,,,,,,,,,,,,,,,,,,,,
383138,001,2022-11-21_01h14.10.712,Info_measure_main_exp,2022.2.2,Win32,60.2373351,,,,,,,,,,,,,,,,,,masks/mask_002.jpg,,,,,,,,,,,,,,,,,,,,,,,,,,,,,,,,,,,,,,,,,,,0,4,4,1,1,,,,,,,,,,,,,,,,,,,,,,,,,,,,,,,,,,,,,,,,,,,,,,
383138,001,2022-11-21_01h14.10.712,Info_measure_main_exp,2022.2.2,Win32,60.2373351,,,,,,,,,,,,,,,,,,masks/mask_001.jpg,,,,,,,,,,,,,,,,,,,,,,,,,,,,,,,,,,,,,,,,,,,,,,,,0,0,0,0,1,,,,,,,,,,,,,,,,,,,,,,,,,,,,,,,,,,,,,,,,,
383138,001,2022-11-21_01h14.10.712,Info_measure_main_exp,2022.2.2,Win32,60.2373351,,,,,,,,,,,,,,,,,,masks/mask_002.jpg,,,,,,,,,,,,,,,,,,,,,,,,,,,,,,,,,,,,,,,,,,,,,,,,0,1,1,1,1,,,,,,,,,,,,,,,,,,,,,,,,,,,,,,,,,,,,,,,,,
383138,001,2022-11-21_01h14.10.712,Info_measure_main_exp,2022.2.2,Win32,60.2373351,,,,,,,,,,,,,,,,,,masks/mask_003.jpg,,,,,,,,,,,,,,,,,,,,,,,,,,,,,,,,,,,,,,,,,,,,,,,,0,2,2,2,1,,,,,,,,,,,,,,,,,,,,,,,,,,,,,,,,,,,,,,,,,
383138,001,2022-11-21_01h14.10.712,Info_measure_main_exp,2022.2.2,Win32,60.2373351,,,,,,,,,,,,,,,,,,masks/mask_005.jpg,,,,,,,,,,,,,,,,,,,,,,,,,,,,,,,,,,,,,,,,,,,,,,,,0,3,3,4,1,,,,,,,,,,,,,,,,,,,,,,,,,,,,,,,,,,,,,,,,,
383138,001,2022-11-21_01h14.10.712,Info_measure_main_exp,2022.2.2,Win32,60.2373351,,,,,,,,,,,,,,,,,,masks/mask_004.jpg,,,,,,,,,,,,,,,,,,,,,,,,,,,,,,,,,,,,,,,,,,,,,,,,0,4,4,3,1,,,,,,,,,,,,,,,,,,,,,,,,,,,,,,,,,,,,,,,,,
383138,001,2022-11-21_01h14.10.712,Info_measure_main_exp,2022.2.2,Win32,60.2373351,,,,,,,,,,,,,,,,,,,,,,,,,,,,,,5,1.1822,1,,,,,,,,,,,,0,131,5,5,1974,2166,absent_patch/patch0001974.jpg,absent_patch/patch0002166.jpg,,,,,,,,,,,,,,,,,,,,0.024739583,-0.014322917,1,0,0,response3disk,28,-0.010416667,0.00390625,1,0,0,center_square,0,27,27,77,1,,,,,,,,,,,,,,,,,,,,,,,
383138,001,2022-11-21_01h14.10.712,Info_measure_main_exp,2022.2.2,Win32,60.2373351,,,,,,,,,,,,,,,,,,masks/mask_004.jpg,,,,,,,,,,,,,,,,,,,,,,,,,,,,,,,,,,,,,,,,,,,0,0,0,3,1,,,,,,,,,,,,,,,,,,,,,,,,,,,,,,,,,,,,,,,,,,,,,,
383138,001,2022-11-21_01h14.10.712,Info_measure_main_exp,2022.2.2,Win32,60.2373351,,,,,,,,,,,,,,,,,,masks/mask_002.jpg,,,,,,,,,,,,,,,,,,,,,,,,,,,,,,,,,,,,,,,,,,,0,1,1,1,1,,,,,,,,,,,,,,,,,,,,,,,,,,,,,,,,,,,,,,,,,,,,,,
383138,001,2022-11-21_01h14.10.712,Info_measure_main_exp,2022.2.2,Win32,60.2373351,,,,,,,,,,,,,,,,,,masks/mask_001.jpg,,,,,,,,,,,,,,,,,,,,,,,,,,,,,,,,,,,,,,,,,,,0,2,2,0,1,,,,,,,,,,,,,,,,,,,,,,,,,,,,,,,,,,,,,,,,,,,,,,
383138,001,2022-11-21_01h14.10.712,Info_measure_main_exp,2022.2.2,Win32,60.2373351,,,,,,,,,,,,,,,,,,masks/mask_005.jpg,,,,,,,,,,,,,,,,,,,,,,,,,,,,,,,,,,,,,,,,,,,0,3,3,4,1,,,,,,,,,,,,,,,,,,,,,,,,,,,,,,,,,,,,,,,,,,,,,,
383138,001,2022-11-21_01h14.10.712,Info_measure_main_exp,2022.2.2,Win32,60.2373351,,,,,,,,,,,,,,,,,,masks/mask_003.jpg,,,,,,,,,,,,,,,,,,,,,,,,,,,,,,,,,,,,,,,,,,,0,4,4,2,1,,,,,,,,,,,,,,,,,,,,,,,,,,,,,,,,,,,,,,,,,,,,,,
383138,001,2022-11-21_01h14.10.712,Info_measure_main_exp,2022.2.2,Win32,60.2373351,,,,,,,,,,,,,,,,,,masks/mask_002.jpg,,,,,,,,,,,,,,,,,,,,,,,,,,,,,,,,,,,,,,,,,,,,,,,,0,0,0,1,1,,,,,,,,,,,,,,,,,,,,,,,,,,,,,,,,,,,,,,,,,
383138,001,2022-11-21_01h14.10.712,Info_measure_main_exp,2022.2.2,Win32,60.2373351,,,,,,,,,,,,,,,,,,masks/mask_004.jpg,,,,,,,,,,,,,,,,,,,,,,,,,,,,,,,,,,,,,,,,,,,,,,,,0,1,1,3,1,,,,,,,,,,,,,,,,,,,,,,,,,,,,,,,,,,,,,,,,,
383138,001,2022-11-21_01h14.10.712,Info_measure_main_exp,2022.2.2,Win32,60.2373351,,,,,,,,,,,,,,,,,,masks/mask_005.jpg,,,,,,,,,,,,,,,,,,,,,,,,,,,,,,,,,,,,,,,,,,,,,,,,0,2,2,4,1,,,,,,,,,,,,,,,,,,,,,,,,,,,,,,,,,,,,,,,,,
383138,001,2022-11-21_01h14.10.712,Info_measure_main_exp,2022.2.2,Win32,60.2373351,,,,,,,,,,,,,,,,,,masks/mask_001.jpg,,,,,,,,,,,,,,,,,,,,,,,,,,,,,,,,,,,,,,,,,,,,,,,,0,3,3,0,1,,,,,,,,,,,,,,,,,,,,,,,,,,,,,,,,,,,,,,,,,
383138,001,2022-11-21_01h14.10.712,Info_measure_main_exp,2022.2.2,Win32,60.2373351,,,,,,,,,,,,,,,,,,masks/mask_003.jpg,,,,,,,,,,,,,,,,,,,,,,,,,,,,,,,,,,,,,,,,,,,,,,,,0,4,4,2,1,,,,,,,,,,,,,,,,,,,,,,,,,,,,,,,,,,,,,,,,,
383138,001,2022-11-21_01h14.10.712,Info_measure_main_exp,2022.2.2,Win32,60.2373351,,,,,,,,,,,,,,,,,,,,,,,,,,,,,,6,1.8209,1,,,,,,,,,,,,0,131,5,5,2274,1974,absent_patch/patch0002274.jpg,absent_patch/patch0001974.jpg,,,,,,,,,,,,,,,,,,,,0.022135417,0.010416667,1,0,0,response1disk,29,0.002604167,0.00390625,1,0,0,center_square,0,28,28,90,1,,,,,,,,,,,,,,,,,,,,,,,
383138,001,2022-11-21_01h14.10.712,Info_measure_main_exp,2022.2.2,Win32,60.2373351,,,,,,,,,,,,,,,,,,masks/mask_004.jpg,,,,,,,,,,,,,,,,,,,,,,,,,,,,,,,,,,,,,,,,,,,0,0,0,3,1,,,,,,,,,,,,,,,,,,,,,,,,,,,,,,,,,,,,,,,,,,,,,,
383138,001,2022-11-21_01h14.10.712,Info_measure_main_exp,2022.2.2,Win32,60.2373351,,,,,,,,,,,,,,,,,,masks/mask_001.jpg,,,,,,,,,,,,,,,,,,,,,,,,,,,,,,,,,,,,,,,,,,,0,1,1,0,1,,,,,,,,,,,,,,,,,,,,,,,,,,,,,,,,,,,,,,,,,,,,,,
383138,001,2022-11-21_01h14.10.712,Info_measure_main_exp,2022.2.2,Win32,60.2373351,,,,,,,,,,,,,,,,,,masks/mask_003.jpg,,,,,,,,,,,,,,,,,,,,,,,,,,,,,,,,,,,,,,,,,,,0,2,2,2,1,,,,,,,,,,,,,,,,,,,,,,,,,,,,,,,,,,,,,,,,,,,,,,
383138,001,2022-11-21_01h14.10.712,Info_measure_main_exp,2022.2.2,Win32,60.2373351,,,,,,,,,,,,,,,,,,masks/mask_002.jpg,,,,,,,,,,,,,,,,,,,,,,,,,,,,,,,,,,,,,,,,,,,0,3,3,1,1,,,,,,,,,,,,,,,,,,,,,,,,,,,,,,,,,,,,,,,,,,,,,,
383138,001,2022-11-21_01h14.10.712,Info_measure_main_exp,2022.2.2,Win32,60.2373351,,,,,,,,,,,,,,,,,,masks/mask_005.jpg,,,,,,,,,,,,,,,,,,,,,,,,,,,,,,,,,,,,,,,,,,,0,4,4,4,1,,,,,,,,,,,,,,,,,,,,,,,,,,,,,,,,,,,,,,,,,,,,,,
383138,001,2022-11-21_01h14.10.712,Info_measure_main_exp,2022.2.2,Win32,60.2373351,,,,,,,,,,,,,,,,,,masks/mask_005.jpg,,,,,,,,,,,,,,,,,,,,,,,,,,,,,,,,,,,,,,,,,,,,,,,,0,0,0,4,1,,,,,,,,,,,,,,,,,,,,,,,,,,,,,,,,,,,,,,,,,
383138,001,2022-11-21_01h14.10.712,Info_measure_main_exp,2022.2.2,Win32,60.2373351,,,,,,,,,,,,,,,,,,masks/mask_002.jpg,,,,,,,,,,,,,,,,,,,,,,,,,,,,,,,,,,,,,,,,,,,,,,,,0,1,1,1,1,,,,,,,,,,,,,,,,,,,,,,,,,,,,,,,,,,,,,,,,,
383138,001,2022-11-21_01h14.10.712,Info_measure_main_exp,2022.2.2,Win32,60.2373351,,,,,,,,,,,,,,,,,,masks/mask_001.jpg,,,,,,,,,,,,,,,,,,,,,,,,,,,,,,,,,,,,,,,,,,,,,,,,0,2,2,0,1,,,,,,,,,,,,,,,,,,,,,,,,,,,,,,,,,,,,,,,,,
383138,001,2022-11-21_01h14.10.712,Info_measure_main_exp,2022.2.2,Win32,60.2373351,,,,,,,,,,,,,,,,,,masks/mask_003.jpg,,,,,,,,,,,,,,,,,,,,,,,,,,,,,,,,,,,,,,,,,,,,,,,,0,3,3,2,1,,,,,,,,,,,,,,,,,,,,,,,,,,,,,,,,,,,,,,,,,
383138,001,2022-11-21_01h14.10.712,Info_measure_main_exp,2022.2.2,Win32,60.2373351,,,,,,,,,,,,,,,,,,masks/mask_004.jpg,,,,,,,,,,,,,,,,,,,,,,,,,,,,,,,,,,,,,,,,,,,,,,,,0,4,4,3,1,,,,,,,,,,,,,,,,,,,,,,,,,,,,,,,,,,,,,,,,,
383138,001,2022-11-21_01h14.10.712,Info_measure_main_exp,2022.2.2,Win32,60.2373351,,,,,,,,,,,,,,,,,,,,,,,,,,,,,,6,0.8498,1,,,,,,,,,,,,0,131,5,5,2274,2142,absent_patch/patch0002274.jpg,absent_patch/patch0002142.jpg,,,,,,,,,,,,,,,,,,,,0.053385417,0.026041667,1,0,0,response1disk,30,0.013020833,0.00390625,1,0,0,center_square,0,29,29,75,1,,,,,,,,,,,,,,,,,,,,,,,
383138,001,2022-11-21_01h14.10.712,Info_measure_main_exp,2022.2.2,Win32,60.2373351,,,,,,,,,,,,,,,,,,masks/mask_003.jpg,,,,,,,,,,,,,,,,,,,,,,,,,,,,,,,,,,,,,,,,,,,0,0,0,2,1,,,,,,,,,,,,,,,,,,,,,,,,,,,,,,,,,,,,,,,,,,,,,,
383138,001,2022-11-21_01h14.10.712,Info_measure_main_exp,2022.2.2,Win32,60.2373351,,,,,,,,,,,,,,,,,,masks/mask_002.jpg,,,,,,,,,,,,,,,,,,,,,,,,,,,,,,,,,,,,,,,,,,,0,1,1,1,1,,,,,,,,,,,,,,,,,,,,,,,,,,,,,,,,,,,,,,,,,,,,,,
383138,001,2022-11-21_01h14.10.712,Info_measure_main_exp,2022.2.2,Win32,60.2373351,,,,,,,,,,,,,,,,,,masks/mask_001.jpg,,,,,,,,,,,,,,,,,,,,,,,,,,,,,,,,,,,,,,,,,,,0,2,2,0,1,,,,,,,,,,,,,,,,,,,,,,,,,,,,,,,,,,,,,,,,,,,,,,
383138,001,2022-11-21_01h14.10.712,Info_measure_main_exp,2022.2.2,Win32,60.2373351,,,,,,,,,,,,,,,,,,masks/mask_005.jpg,,,,,,,,,,,,,,,,,,,,,,,,,,,,,,,,,,,,,,,,,,,0,3,3,4,1,,,,,,,,,,,,,,,,,,,,,,,,,,,,,,,,,,,,,,,,,,,,,,
383138,001,2022-11-21_01h14.10.712,Info_measure_main_exp,2022.2.2,Win32,60.2373351,,,,,,,,,,,,,,,,,,masks/mask_004.jpg,,,,,,,,,,,,,,,,,,,,,,,,,,,,,,,,,,,,,,,,,,,0,4,4,3,1,,,,,,,,,,,,,,,,,,,,,,,,,,,,,,,,,,,,,,,,,,,,,,
383138,001,2022-11-21_01h14.10.712,Info_measure_main_exp,2022.2.2,Win32,60.2373351,,,,,,,,,,,,,,,,,,masks/mask_002.jpg,,,,,,,,,,,,,,,,,,,,,,,,,,,,,,,,,,,,,,,,,,,,,,,,0,0,0,1,1,,,,,,,,,,,,,,,,,,,,,,,,,,,,,,,,,,,,,,,,,
383138,001,2022-11-21_01h14.10.712,Info_measure_main_exp,2022.2.2,Win32,60.2373351,,,,,,,,,,,,,,,,,,masks/mask_001.jpg,,,,,,,,,,,,,,,,,,,,,,,,,,,,,,,,,,,,,,,,,,,,,,,,0,1,1,0,1,,,,,,,,,,,,,,,,,,,,,,,,,,,,,,,,,,,,,,,,,
383138,001,2022-11-21_01h14.10.712,Info_measure_main_exp,2022.2.2,Win32,60.2373351,,,,,,,,,,,,,,,,,,masks/mask_003.jpg,,,,,,,,,,,,,,,,,,,,,,,,,,,,,,,,,,,,,,,,,,,,,,,,0,2,2,2,1,,,,,,,,,,,,,,,,,,,,,,,,,,,,,,,,,,,,,,,,,
383138,001,2022-11-21_01h14.10.712,Info_measure_main_exp,2022.2.2,Win32,60.2373351,,,,,,,,,,,,,,,,,,masks/mask_005.jpg,,,,,,,,,,,,,,,,,,,,,,,,,,,,,,,,,,,,,,,,,,,,,,,,0,3,3,4,1,,,,,,,,,,,,,,,,,,,,,,,,,,,,,,,,,,,,,,,,,
383138,001,2022-11-21_01h14.10.712,Info_measure_main_exp,2022.2.2,Win32,60.2373351,,,,,,,,,,,,,,,,,,masks/mask_004.jpg,,,,,,,,,,,,,,,,,,,,,,,,,,,,,,,,,,,,,,,,,,,,,,,,0,4,4,3,1,,,,,,,,,,,,,,,,,,,,,,,,,,,,,,,,,,,,,,,,,
383138,001,2022-11-21_01h14.10.712,Info_measure_main_exp,2022.2.2,Win32,60.2373351,,,,,,,,,,,,,,,,,,,,,,,,,,,,,,5,1.2303,1,,,,,,,,,,,,0,131,5,5,1986,2238,absent_patch/patch0001986.jpg,absent_patch/patch0002238.jpg,,,,,,,,,,,,,,,,,,,,0.01953125,-0.013020833,1,0,0,response3disk,31,-0.0078125,0.006510417,1,0,0,center_square,0,30,30,31,1,,,,,,,,,,,,,,,,,,,,,,,
383138,001,2022-11-21_01h14.10.712,Info_measure_main_exp,2022.2.2,Win32,60.2373351,,,,,,,,,,,,,,,,,,masks/mask_003.jpg,,,,,,,,,,,,,,,,,,,,,,,,,,,,,,,,,,,,,,,,,,,0,0,0,2,1,,,,,,,,,,,,,,,,,,,,,,,,,,,,,,,,,,,,,,,,,,,,,,
383138,001,2022-11-21_01h14.10.712,Info_measure_main_exp,2022.2.2,Win32,60.2373351,,,,,,,,,,,,,,,,,,masks/mask_004.jpg,,,,,,,,,,,,,,,,,,,,,,,,,,,,,,,,,,,,,,,,,,,0,1,1,3,1,,,,,,,,,,,,,,,,,,,,,,,,,,,,,,,,,,,,,,,,,,,,,,
383138,001,2022-11-21_01h14.10.712,Info_measure_main_exp,2022.2.2,Win32,60.2373351,,,,,,,,,,,,,,,,,,masks/mask_001.jpg,,,,,,,,,,,,,,,,,,,,,,,,,,,,,,,,,,,,,,,,,,,0,2,2,0,1,,,,,,,,,,,,,,,,,,,,,,,,,,,,,,,,,,,,,,,,,,,,,,
383138,001,2022-11-21_01h14.10.712,Info_measure_main_exp,2022.2.2,Win32,60.2373351,,,,,,,,,,,,,,,,,,masks/mask_005.jpg,,,,,,,,,,,,,,,,,,,,,,,,,,,,,,,,,,,,,,,,,,,0,3,3,4,1,,,,,,,,,,,,,,,,,,,,,,,,,,,,,,,,,,,,,,,,,,,,,,
383138,001,2022-11-21_01h14.10.712,Info_measure_main_exp,2022.2.2,Win32,60.2373351,,,,,,,,,,,,,,,,,,masks/mask_002.jpg,,,,,,,,,,,,,,,,,,,,,,,,,,,,,,,,,,,,,,,,,,,0,4,4,1,1,,,,,,,,,,,,,,,,,,,,,,,,,,,,,,,,,,,,,,,,,,,,,,
383138,001,2022-11-21_01h14.10.712,Info_measure_main_exp,2022.2.2,Win32,60.2373351,,,,,,,,,,,,,,,,,,masks/mask_002.jpg,,,,,,,,,,,,,,,,,,,,,,,,,,,,,,,,,,,,,,,,,,,,,,,,0,0,0,1,1,,,,,,,,,,,,,,,,,,,,,,,,,,,,,,,,,,,,,,,,,
383138,001,2022-11-21_01h14.10.712,Info_measure_main_exp,2022.2.2,Win32,60.2373351,,,,,,,,,,,,,,,,,,masks/mask_003.jpg,,,,,,,,,,,,,,,,,,,,,,,,,,,,,,,,,,,,,,,,,,,,,,,,0,1,1,2,1,,,,,,,,,,,,,,,,,,,,,,,,,,,,,,,,,,,,,,,,,
383138,001,2022-11-21_01h14.10.712,Info_measure_main_exp,2022.2.2,Win32,60.2373351,,,,,,,,,,,,,,,,,,masks/mask_001.jpg,,,,,,,,,,,,,,,,,,,,,,,,,,,,,,,,,,,,,,,,,,,,,,,,0,2,2,0,1,,,,,,,,,,,,,,,,,,,,,,,,,,,,,,,,,,,,,,,,,
383138,001,2022-11-21_01h14.10.712,Info_measure_main_exp,2022.2.2,Win32,60.2373351,,,,,,,,,,,,,,,,,,masks/mask_004.jpg,,,,,,,,,,,,,,,,,,,,,,,,,,,,,,,,,,,,,,,,,,,,,,,,0,3,3,3,1,,,,,,,,,,,,,,,,,,,,,,,,,,,,,,,,,,,,,,,,,
383138,001,2022-11-21_01h14.10.712,Info_measure_main_exp,2022.2.2,Win32,60.2373351,,,,,,,,,,,,,,,,,,masks/mask_005.jpg,,,,,,,,,,,,,,,,,,,,,,,,,,,,,,,,,,,,,,,,,,,,,,,,0,4,4,4,1,,,,,,,,,,,,,,,,,,,,,,,,,,,,,,,,,,,,,,,,,
383138,001,2022-11-21_01h14.10.712,Info_measure_main_exp,2022.2.2,Win32,60.2373351,,,,,,,,,,,,,,,,,,,,,,,,,,,,,,0,0.8005,1,,,,,,,,,,,,0,131,5,5,2238,2238,absent_patch/patch0002238.jpg,absent_patch/patch0002238.jpg,,,,,,,,,,,,,,,,,,,,-0.03125,0.071614583,1,0,0,response7disk,32,0.015625,-0.0078125,1,0,0,center_square,0,31,31,58,1,,,,,,,,,,,,,,,,,,,,,,,
383138,001,2022-11-21_01h14.10.712,Info_measure_main_exp,2022.2.2,Win32,60.2373351,,,,,,,,,,,,,,,,,,masks/mask_001.jpg,,,,,,,,,,,,,,,,,,,,,,,,,,,,,,,,,,,,,,,,,,,0,0,0,0,1,,,,,,,,,,,,,,,,,,,,,,,,,,,,,,,,,,,,,,,,,,,,,,
383138,001,2022-11-21_01h14.10.712,Info_measure_main_exp,2022.2.2,Win32,60.2373351,,,,,,,,,,,,,,,,,,masks/mask_003.jpg,,,,,,,,,,,,,,,,,,,,,,,,,,,,,,,,,,,,,,,,,,,0,1,1,2,1,,,,,,,,,,,,,,,,,,,,,,,,,,,,,,,,,,,,,,,,,,,,,,
383138,001,2022-11-21_01h14.10.712,Info_measure_main_exp,2022.2.2,Win32,60.2373351,,,,,,,,,,,,,,,,,,masks/mask_004.jpg,,,,,,,,,,,,,,,,,,,,,,,,,,,,,,,,,,,,,,,,,,,0,2,2,3,1,,,,,,,,,,,,,,,,,,,,,,,,,,,,,,,,,,,,,,,,,,,,,,
383138,001,2022-11-21_01h14.10.712,Info_measure_main_exp,2022.2.2,Win32,60.2373351,,,,,,,,,,,,,,,,,,masks/mask_002.jpg,,,,,,,,,,,,,,,,,,,,,,,,,,,,,,,,,,,,,,,,,,,0,3,3,1,1,,,,,,,,,,,,,,,,,,,,,,,,,,,,,,,,,,,,,,,,,,,,,,
383138,001,2022-11-21_01h14.10.712,Info_measure_main_exp,2022.2.2,Win32,60.2373351,,,,,,,,,,,,,,,,,,masks/mask_005.jpg,,,,,,,,,,,,,,,,,,,,,,,,,,,,,,,,,,,,,,,,,,,0,4,4,4,1,,,,,,,,,,,,,,,,,,,,,,,,,,,,,,,,,,,,,,,,,,,,,,
383138,001,2022-11-21_01h14.10.712,Info_measure_main_exp,2022.2.2,Win32,60.2373351,,,,,,,,,,,,,,,,,,masks/mask_002.jpg,,,,,,,,,,,,,,,,,,,,,,,,,,,,,,,,,,,,,,,,,,,,,,,,0,0,0,1,1,,,,,,,,,,,,,,,,,,,,,,,,,,,,,,,,,,,,,,,,,
383138,001,2022-11-21_01h14.10.712,Info_measure_main_exp,2022.2.2,Win32,60.2373351,,,,,,,,,,,,,,,,,,masks/mask_005.jpg,,,,,,,,,,,,,,,,,,,,,,,,,,,,,,,,,,,,,,,,,,,,,,,,0,1,1,4,1,,,,,,,,,,,,,,,,,,,,,,,,,,,,,,,,,,,,,,,,,
383138,001,2022-11-21_01h14.10.712,Info_measure_main_exp,2022.2.2,Win32,60.2373351,,,,,,,,,,,,,,,,,,masks/mask_003.jpg,,,,,,,,,,,,,,,,,,,,,,,,,,,,,,,,,,,,,,,,,,,,,,,,0,2,2,2,1,,,,,,,,,,,,,,,,,,,,,,,,,,,,,,,,,,,,,,,,,
383138,001,2022-11-21_01h14.10.712,Info_measure_main_exp,2022.2.2,Win32,60.2373351,,,,,,,,,,,,,,,,,,masks/mask_004.jpg,,,,,,,,,,,,,,,,,,,,,,,,,,,,,,,,,,,,,,,,,,,,,,,,0,3,3,3,1,,,,,,,,,,,,,,,,,,,,,,,,,,,,,,,,,,,,,,,,,
383138,001,2022-11-21_01h14.10.712,Info_measure_main_exp,2022.2.2,Win32,60.2373351,,,,,,,,,,,,,,,,,,masks/mask_001.jpg,,,,,,,,,,,,,,,,,,,,,,,,,,,,,,,,,,,,,,,,,,,,,,,,0,4,4,0,1,,,,,,,,,,,,,,,,,,,,,,,,,,,,,,,,,,,,,,,,,
383138,001,2022-11-21_01h14.10.712,Info_measure_main_exp,2022.2.2,Win32,60.2373351,,,,,,,,,,,,,,,,,,,,,,,,,,,,,,6,1.7114,1,,,,,,,,,,,,0,131,5,5,1986,1974,absent_patch/patch0001986.jpg,absent_patch/patch0001974.jpg,,,,,,,,,,,,,,,,,,,,0.036458333,0.014322917,1,0,0,response1disk,33,-0.00390625,0,1,0,0,center_square,0,32,32,25,1,,,,,,,,,,,,,,,,,,,,,,,
383138,001,2022-11-21_01h14.10.712,Info_measure_main_exp,2022.2.2,Win32,60.2373351,,,,,,,,,,,,,,,,,,masks/mask_005.jpg,,,,,,,,,,,,,,,,,,,,,,,,,,,,,,,,,,,,,,,,,,,0,0,0,4,1,,,,,,,,,,,,,,,,,,,,,,,,,,,,,,,,,,,,,,,,,,,,,,
383138,001,2022-11-21_01h14.10.712,Info_measure_main_exp,2022.2.2,Win32,60.2373351,,,,,,,,,,,,,,,,,,masks/mask_003.jpg,,,,,,,,,,,,,,,,,,,,,,,,,,,,,,,,,,,,,,,,,,,0,1,1,2,1,,,,,,,,,,,,,,,,,,,,,,,,,,,,,,,,,,,,,,,,,,,,,,
383138,001,2022-11-21_01h14.10.712,Info_measure_main_exp,2022.2.2,Win32,60.2373351,,,,,,,,,,,,,,,,,,masks/mask_001.jpg,,,,,,,,,,,,,,,,,,,,,,,,,,,,,,,,,,,,,,,,,,,0,2,2,0,1,,,,,,,,,,,,,,,,,,,,,,,,,,,,,,,,,,,,,,,,,,,,,,
383138,001,2022-11-21_01h14.10.712,Info_measure_main_exp,2022.2.2,Win32,60.2373351,,,,,,,,,,,,,,,,,,masks/mask_004.jpg,,,,,,,,,,,,,,,,,,,,,,,,,,,,,,,,,,,,,,,,,,,0,3,3,3,1,,,,,,,,,,,,,,,,,,,,,,,,,,,,,,,,,,,,,,,,,,,,,,
383138,001,2022-11-21_01h14.10.712,Info_measure_main_exp,2022.2.2,Win32,60.2373351,,,,,,,,,,,,,,,,,,masks/mask_002.jpg,,,,,,,,,,,,,,,,,,,,,,,,,,,,,,,,,,,,,,,,,,,0,4,4,1,1,,,,,,,,,,,,,,,,,,,,,,,,,,,,,,,,,,,,,,,,,,,,,,
383138,001,2022-11-21_01h14.10.712,Info_measure_main_exp,2022.2.2,Win32,60.2373351,,,,,,,,,,,,,,,,,,masks/mask_002.jpg,,,,,,,,,,,,,,,,,,,,,,,,,,,,,,,,,,,,,,,,,,,,,,,,0,0,0,1,1,,,,,,,,,,,,,,,,,,,,,,,,,,,,,,,,,,,,,,,,,
383138,001,2022-11-21_01h14.10.712,Info_measure_main_exp,2022.2.2,Win32,60.2373351,,,,,,,,,,,,,,,,,,masks/mask_004.jpg,,,,,,,,,,,,,,,,,,,,,,,,,,,,,,,,,,,,,,,,,,,,,,,,0,1,1,3,1,,,,,,,,,,,,,,,,,,,,,,,,,,,,,,,,,,,,,,,,,
383138,001,2022-11-21_01h14.10.712,Info_measure_main_exp,2022.2.2,Win32,60.2373351,,,,,,,,,,,,,,,,,,masks/mask_003.jpg,,,,,,,,,,,,,,,,,,,,,,,,,,,,,,,,,,,,,,,,,,,,,,,,0,2,2,2,1,,,,,,,,,,,,,,,,,,,,,,,,,,,,,,,,,,,,,,,,,
383138,001,2022-11-21_01h14.10.712,Info_measure_main_exp,2022.2.2,Win32,60.2373351,,,,,,,,,,,,,,,,,,masks/mask_001.jpg,,,,,,,,,,,,,,,,,,,,,,,,,,,,,,,,,,,,,,,,,,,,,,,,0,3,3,0,1,,,,,,,,,,,,,,,,,,,,,,,,,,,,,,,,,,,,,,,,,
383138,001,2022-11-21_01h14.10.712,Info_measure_main_exp,2022.2.2,Win32,60.2373351,,,,,,,,,,,,,,,,,,masks/mask_005.jpg,,,,,,,,,,,,,,,,,,,,,,,,,,,,,,,,,,,,,,,,,,,,,,,,0,4,4,4,1,,,,,,,,,,,,,,,,,,,,,,,,,,,,,,,,,,,,,,,,,
383138,001,2022-11-21_01h14.10.712,Info_measure_main_exp,2022.2.2,Win32,60.2373351,,,,,,,,,,,,,,,,,,,,,,,,,,,,,,6,1.0482,1,,,,,,,,,,,,0,131,5,5,2142,2190,absent_patch/patch0002142.jpg,absent_patch/patch0002190.jpg,,,,,,,,,,,,,,,,,,,,0.048177083,0.0078125,1,0,0,response1disk,34,0.002604167,0,1,0,0,center_square,0,33,33,70,1,,,,,,,,,,,,,,,,,,,,,,,
383138,001,2022-11-21_01h14.10.712,Info_measure_main_exp,2022.2.2,Win32,60.2373351,,,,,,,,,,,,,,,,,,masks/mask_003.jpg,,,,,,,,,,,,,,,,,,,,,,,,,,,,,,,,,,,,,,,,,,,0,0,0,2,1,,,,,,,,,,,,,,,,,,,,,,,,,,,,,,,,,,,,,,,,,,,,,,
383138,001,2022-11-21_01h14.10.712,Info_measure_main_exp,2022.2.2,Win32,60.2373351,,,,,,,,,,,,,,,,,,masks/mask_001.jpg,,,,,,,,,,,,,,,,,,,,,,,,,,,,,,,,,,,,,,,,,,,0,1,1,0,1,,,,,,,,,,,,,,,,,,,,,,,,,,,,,,,,,,,,,,,,,,,,,,
383138,001,2022-11-21_01h14.10.712,Info_measure_main_exp,2022.2.2,Win32,60.2373351,,,,,,,,,,,,,,,,,,masks/mask_002.jpg,,,,,,,,,,,,,,,,,,,,,,,,,,,,,,,,,,,,,,,,,,,0,2,2,1,1,,,,,,,,,,,,,,,,,,,,,,,,,,,,,,,,,,,,,,,,,,,,,,
383138,001,2022-11-21_01h14.10.712,Info_measure_main_exp,2022.2.2,Win32,60.2373351,,,,,,,,,,,,,,,,,,masks/mask_005.jpg,,,,,,,,,,,,,,,,,,,,,,,,,,,,,,,,,,,,,,,,,,,0,3,3,4,1,,,,,,,,,,,,,,,,,,,,,,,,,,,,,,,,,,,,,,,,,,,,,,
383138,001,2022-11-21_01h14.10.712,Info_measure_main_exp,2022.2.2,Win32,60.2373351,,,,,,,,,,,,,,,,,,masks/mask_004.jpg,,,,,,,,,,,,,,,,,,,,,,,,,,,,,,,,,,,,,,,,,,,0,4,4,3,1,,,,,,,,,,,,,,,,,,,,,,,,,,,,,,,,,,,,,,,,,,,,,,
383138,001,2022-11-21_01h14.10.712,Info_measure_main_exp,2022.2.2,Win32,60.2373351,,,,,,,,,,,,,,,,,,masks/mask_002.jpg,,,,,,,,,,,,,,,,,,,,,,,,,,,,,,,,,,,,,,,,,,,,,,,,0,0,0,1,1,,,,,,,,,,,,,,,,,,,,,,,,,,,,,,,,,,,,,,,,,
383138,001,2022-11-21_01h14.10.712,Info_measure_main_exp,2022.2.2,Win32,60.2373351,,,,,,,,,,,,,,,,,,masks/mask_004.jpg,,,,,,,,,,,,,,,,,,,,,,,,,,,,,,,,,,,,,,,,,,,,,,,,0,1,1,3,1,,,,,,,,,,,,,,,,,,,,,,,,,,,,,,,,,,,,,,,,,
383138,001,2022-11-21_01h14.10.712,Info_measure_main_exp,2022.2.2,Win32,60.2373351,,,,,,,,,,,,,,,,,,masks/mask_003.jpg,,,,,,,,,,,,,,,,,,,,,,,,,,,,,,,,,,,,,,,,,,,,,,,,0,2,2,2,1,,,,,,,,,,,,,,,,,,,,,,,,,,,,,,,,,,,,,,,,,
383138,001,2022-11-21_01h14.10.712,Info_measure_main_exp,2022.2.2,Win32,60.2373351,,,,,,,,,,,,,,,,,,masks/mask_005.jpg,,,,,,,,,,,,,,,,,,,,,,,,,,,,,,,,,,,,,,,,,,,,,,,,0,3,3,4,1,,,,,,,,,,,,,,,,,,,,,,,,,,,,,,,,,,,,,,,,,
383138,001,2022-11-21_01h14.10.712,Info_measure_main_exp,2022.2.2,Win32,60.2373351,,,,,,,,,,,,,,,,,,masks/mask_001.jpg,,,,,,,,,,,,,,,,,,,,,,,,,,,,,,,,,,,,,,,,,,,,,,,,0,4,4,0,1,,,,,,,,,,,,,,,,,,,,,,,,,,,,,,,,,,,,,,,,,
383138,001,2022-11-21_01h14.10.712,Info_measure_main_exp,2022.2.2,Win32,60.2373351,,,,,,,,,,,,,,,,,,,,,,,,,,,,,,3,0.7455,1,,,,,,,,,,,,0,131,5,5,2142,2082,absent_patch/patch0002142.jpg,absent_patch/patch0002082.jpg,,,,,,,,,,,,,,,,,,,,-0.00390625,-0.015625,1,0,0,response5disk,35,-0.001302083,0.01171875,1,0,0,center_square,0,34,34,88,1,,,,,,,,,,,,,,,,,,,,,,,
