participant,session,date,expName,psychopyVersion,OS,frameRate,space_press_continue.keys,space_press_continue.rt,space_press_continue_2.keys,space_press_continue_2.rt,space_press_continue_3.keys,space_press_continue_3.rt,space_press_continue_4.keys,space_press_continue_4.rt,space_press_continue_5.keys,space_press_continue_5.rt,space_press_continue_6.keys,space_press_continue_6.rt,prac_mask_loop_1.thisRepN,prac_mask_loop_1.thisTrialN,prac_mask_loop_1.thisN,prac_mask_loop_1.thisIndex,prac_mask_loop_1.ran,mask_name,prac_mask_loop_2.thisRepN,prac_mask_loop_2.thisTrialN,prac_mask_loop_2.thisN,prac_mask_loop_2.thisIndex,prac_mask_loop_2.ran,mouse_2.x,mouse_2.y,mouse_2.leftButton,mouse_2.midButton,mouse_2.rightButton,mouse_2.clicked_name,similarity,response_time,Pass,mouse_12.x,mouse_12.y,mouse_12.leftButton,mouse_12.midButton,mouse_12.rightButton,mouse_12.clicked_name,prac_loop.thisRepN,prac_loop.thisTrialN,prac_loop.thisN,prac_loop.thisIndex,prac_loop.ran,Pair_type,Image_num,Patch_1_loc,Patch_2_loc,Patch_1_info,Patch_2_info,Patch_1_name,Patch_2_name,mouse_1.x,mouse_1.y,mouse_1.leftButton,mouse_1.midButton,mouse_1.rightButton,mouse_1.time,mouse_1.clicked_name,space_press_continue_7.keys,space_press_continue_7.rt,mask_loop.thisRepN,mask_loop.thisTrialN,mask_loop.thisN,mask_loop.thisIndex,mask_loop.ran,mask_loop_2.thisRepN,mask_loop_2.thisTrialN,mask_loop_2.thisN,mask_loop_2.thisIndex,mask_loop_2.ran,mouse.x,mouse.y,mouse.leftButton,mouse.midButton,mouse.rightButton,mouse.clicked_name,trialNumber,mouse_11.x,mouse_11.y,mouse_11.leftButton,mouse_11.midButton,mouse_11.rightButton,mouse_11.clicked_name,first_pass_loop.thisRepN,first_pass_loop.thisTrialN,first_pass_loop.thisN,first_pass_loop.thisIndex,first_pass_loop.ran,mask_loop_3.thisRepN,mask_loop_3.thisTrialN,mask_loop_3.thisN,mask_loop_3.thisIndex,mask_loop_3.ran,mask_loop_4.thisRepN,mask_loop_4.thisTrialN,mask_loop_4.thisN,mask_loop_4.thisIndex,mask_loop_4.ran,mouse_3.x,mouse_3.y,mouse_3.leftButton,mouse_3.midButton,mouse_3.rightButton,mouse_3.clicked_name,double_pass_loop.thisRepN,double_pass_loop.thisTrialN,double_pass_loop.thisN,double_pass_loop.thisIndex,double_pass_loop.ran,space_exit.keys,space_exit.rt
387355,001,2022-11-21_00h53.00.828,Info_measure_main_exp,2022.2.2,Win32,60.0240096,,,,,,,,,,,,,,,,,,,,,,,,,,,,,,,,,,,,,,,,,,,,,,,,,,,,,,,,,,,,,,,,,,,,,,,,,,,,,,,,,,,,,,,,,,,,,,,,,,,,,,,,,,,,,,,
387355,001,2022-11-21_00h53.00.828,Info_measure_main_exp,2022.2.2,Win32,60.0240096,,,,,,,,,,,,,,,,,,,,,,,,,,,,,,,,,,,,,,,,,,,,,,,,,,,,,,,,,,,,,,,,,,,,,,,,,,,,,,,,,,,,,,,,,,,,,,,,,,,,,,,,,,,,,,,
387355,001,2022-11-21_00h53.00.828,Info_measure_main_exp,2022.2.2,Win32,60.0240096,space,15.044,,,,,,,,,,,,,,,,,,,,,,,,,,,,,,,,,,,,,,,,,,,,,,,,,,,,,,,,,,,,,,,,,,,,,,,,,,,,,,,,,,,,,,,,,,,,,,,,,,,,,,,,,,,,,
387355,001,2022-11-21_00h53.00.828,Info_measure_main_exp,2022.2.2,Win32,60.0240096,,,space,11.406,,,,,,,,,,,,,,,,,,,,,,,,,,,,,,,,,,,,,,,,,,,,,,,,,,,,,,,,,,,,,,,,,,,,,,,,,,,,,,,,,,,,,,,,,,,,,,,,,,,,,,,,,,,
387355,001,2022-11-21_00h53.00.828,Info_measure_main_exp,2022.2.2,Win32,60.0240096,,,,,space,3.402,,,,,,,,,,,,,,,,,,,,,,,,,,,,,,,,,,,,,,,,,,,,,,,,,,,,,,,,,,,,,,,,,,,,,,,,,,,,,,,,,,,,,,,,,,,,,,,,,,,,,,,,,
387355,001,2022-11-21_00h53.00.828,Info_measure_main_exp,2022.2.2,Win32,60.0240096,,,,,,,space,11.736,,,,,,,,,,,,,,,,,,,,,,,,,,,,,,,,,,,,,,,,,,,,,,,,,,,,,,,,,,,,,,,,,,,,,,,,,,,,,,,,,,,,,,,,,,,,,,,,,,,,,,,
387355,001,2022-11-21_00h53.00.828,Info_measure_main_exp,2022.2.2,Win32,60.0240096,,,,,,,,,space,10.704,,,,,,,,,,,,,,,,,,,,,,,,,,,,,,,,,,,,,,,,,,,,,,,,,,,,,,,,,,,,,,,,,,,,,,,,,,,,,,,,,,,,,,,,,,,,,,,,,,,,,
387355,001,2022-11-21_00h53.00.828,Info_measure_main_exp,2022.2.2,Win32,60.0240096,,,,,,,,,,,space,5.696,,,,,,,,,,,,,,,,,,,,,,,,,,,,,,,,,,,,,,,,,,,,,,,,,,,,,,,,,,,,,,,,,,,,,,,,,,,,,,,,,,,,,,,,,,,,,,,,,,,
387355,001,2022-11-21_00h53.00.828,Info_measure_main_exp,2022.2.2,Win32,60.0240096,,,,,,,,,,,,,0,0,0,1,1,masks/mask_002.jpg,,,,,,,,,,,,,,,,,,,,,,,,,,,,,,,,,,,,,,,,,,,,,,,,,,,,,,,,,,,,,,,,,,,,,,,,,,,,,,,,,,,,,,,,,,,,,
387355,001,2022-11-21_00h53.00.828,Info_measure_main_exp,2022.2.2,Win32,60.0240096,,,,,,,,,,,,,0,1,1,4,1,masks/mask_005.jpg,,,,,,,,,,,,,,,,,,,,,,,,,,,,,,,,,,,,,,,,,,,,,,,,,,,,,,,,,,,,,,,,,,,,,,,,,,,,,,,,,,,,,,,,,,,,,
387355,001,2022-11-21_00h53.00.828,Info_measure_main_exp,2022.2.2,Win32,60.0240096,,,,,,,,,,,,,0,2,2,0,1,masks/mask_001.jpg,,,,,,,,,,,,,,,,,,,,,,,,,,,,,,,,,,,,,,,,,,,,,,,,,,,,,,,,,,,,,,,,,,,,,,,,,,,,,,,,,,,,,,,,,,,,,
387355,001,2022-11-21_00h53.00.828,Info_measure_main_exp,2022.2.2,Win32,60.0240096,,,,,,,,,,,,,0,3,3,2,1,masks/mask_003.jpg,,,,,,,,,,,,,,,,,,,,,,,,,,,,,,,,,,,,,,,,,,,,,,,,,,,,,,,,,,,,,,,,,,,,,,,,,,,,,,,,,,,,,,,,,,,,,
387355,001,2022-11-21_00h53.00.828,Info_measure_main_exp,2022.2.2,Win32,60.0240096,,,,,,,,,,,,,0,4,4,3,1,masks/mask_004.jpg,,,,,,,,,,,,,,,,,,,,,,,,,,,,,,,,,,,,,,,,,,,,,,,,,,,,,,,,,,,,,,,,,,,,,,,,,,,,,,,,,,,,,,,,,,,,,
387355,001,2022-11-21_00h53.00.828,Info_measure_main_exp,2022.2.2,Win32,60.0240096,,,,,,,,,,,,,,,,,,masks/mask_005.jpg,0,0,0,4,1,,,,,,,,,,,,,,,,,,,,,,,,,,,,,,,,,,,,,,,,,,,,,,,,,,,,,,,,,,,,,,,,,,,,,,,,,,,,,,,,,,,,,,,,
387355,001,2022-11-21_00h53.00.828,Info_measure_main_exp,2022.2.2,Win32,60.0240096,,,,,,,,,,,,,,,,,,masks/mask_004.jpg,0,1,1,3,1,,,,,,,,,,,,,,,,,,,,,,,,,,,,,,,,,,,,,,,,,,,,,,,,,,,,,,,,,,,,,,,,,,,,,,,,,,,,,,,,,,,,,,,,
387355,001,2022-11-21_00h53.00.828,Info_measure_main_exp,2022.2.2,Win32,60.0240096,,,,,,,,,,,,,,,,,,masks/mask_001.jpg,0,2,2,0,1,,,,,,,,,,,,,,,,,,,,,,,,,,,,,,,,,,,,,,,,,,,,,,,,,,,,,,,,,,,,,,,,,,,,,,,,,,,,,,,,,,,,,,,,
387355,001,2022-11-21_00h53.00.828,Info_measure_main_exp,2022.2.2,Win32,60.0240096,,,,,,,,,,,,,,,,,,masks/mask_003.jpg,0,3,3,2,1,,,,,,,,,,,,,,,,,,,,,,,,,,,,,,,,,,,,,,,,,,,,,,,,,,,,,,,,,,,,,,,,,,,,,,,,,,,,,,,,,,,,,,,,
387355,001,2022-11-21_00h53.00.828,Info_measure_main_exp,2022.2.2,Win32,60.0240096,,,,,,,,,,,,,,,,,,masks/mask_002.jpg,0,4,4,1,1,,,,,,,,,,,,,,,,,,,,,,,,,,,,,,,,,,,,,,,,,,,,,,,,,,,,,,,,,,,,,,,,,,,,,,,,,,,,,,,,,,,,,,,,
387355,001,2022-11-21_00h53.00.828,Info_measure_main_exp,2022.2.2,Win32,60.0240096,,,,,,,,,,,,,,,,,,,,,,,,-0.130555556,0.052777778,1,0,0,response7disk,1,62.929,1,0.009722222,-0.005555556,1,0,0,center_square,0,0,0,2,1,0,131,5,5,2526,2526,prac_patch/patch0002526.jpg,prac_patch/patch0002526.jpg,,,,,,,,,,,,,,,,,,,,,,,,,,,,,,,,,,,,,,,,,,,,,,,,,,,,,,,,,,,,
387355,001,2022-11-21_00h53.00.828,Info_measure_main_exp,2022.2.2,Win32,60.0240096,,,,,,,,,,,,,0,0,0,4,1,masks/mask_005.jpg,,,,,,,,,,,,,,,,,,,,,,,,,,,,,,,,,,,,,,,,,,,,,,,,,,,,,,,,,,,,,,,,,,,,,,,,,,,,,,,,,,,,,,,,,,,,,
387355,001,2022-11-21_00h53.00.828,Info_measure_main_exp,2022.2.2,Win32,60.0240096,,,,,,,,,,,,,0,1,1,1,1,masks/mask_002.jpg,,,,,,,,,,,,,,,,,,,,,,,,,,,,,,,,,,,,,,,,,,,,,,,,,,,,,,,,,,,,,,,,,,,,,,,,,,,,,,,,,,,,,,,,,,,,,
387355,001,2022-11-21_00h53.00.828,Info_measure_main_exp,2022.2.2,Win32,60.0240096,,,,,,,,,,,,,0,2,2,2,1,masks/mask_003.jpg,,,,,,,,,,,,,,,,,,,,,,,,,,,,,,,,,,,,,,,,,,,,,,,,,,,,,,,,,,,,,,,,,,,,,,,,,,,,,,,,,,,,,,,,,,,,,
387355,001,2022-11-21_00h53.00.828,Info_measure_main_exp,2022.2.2,Win32,60.0240096,,,,,,,,,,,,,0,3,3,0,1,masks/mask_001.jpg,,,,,,,,,,,,,,,,,,,,,,,,,,,,,,,,,,,,,,,,,,,,,,,,,,,,,,,,,,,,,,,,,,,,,,,,,,,,,,,,,,,,,,,,,,,,,
387355,001,2022-11-21_00h53.00.828,Info_measure_main_exp,2022.2.2,Win32,60.0240096,,,,,,,,,,,,,0,4,4,3,1,masks/mask_004.jpg,,,,,,,,,,,,,,,,,,,,,,,,,,,,,,,,,,,,,,,,,,,,,,,,,,,,,,,,,,,,,,,,,,,,,,,,,,,,,,,,,,,,,,,,,,,,,
387355,001,2022-11-21_00h53.00.828,Info_measure_main_exp,2022.2.2,Win32,60.0240096,,,,,,,,,,,,,,,,,,masks/mask_005.jpg,0,0,0,4,1,,,,,,,,,,,,,,,,,,,,,,,,,,,,,,,,,,,,,,,,,,,,,,,,,,,,,,,,,,,,,,,,,,,,,,,,,,,,,,,,,,,,,,,,
387355,001,2022-11-21_00h53.00.828,Info_measure_main_exp,2022.2.2,Win32,60.0240096,,,,,,,,,,,,,,,,,,masks/mask_003.jpg,0,1,1,2,1,,,,,,,,,,,,,,,,,,,,,,,,,,,,,,,,,,,,,,,,,,,,,,,,,,,,,,,,,,,,,,,,,,,,,,,,,,,,,,,,,,,,,,,,
387355,001,2022-11-21_00h53.00.828,Info_measure_main_exp,2022.2.2,Win32,60.0240096,,,,,,,,,,,,,,,,,,masks/mask_002.jpg,0,2,2,1,1,,,,,,,,,,,,,,,,,,,,,,,,,,,,,,,,,,,,,,,,,,,,,,,,,,,,,,,,,,,,,,,,,,,,,,,,,,,,,,,,,,,,,,,,
387355,001,2022-11-21_00h53.00.828,Info_measure_main_exp,2022.2.2,Win32,60.0240096,,,,,,,,,,,,,,,,,,masks/mask_001.jpg,0,3,3,0,1,,,,,,,,,,,,,,,,,,,,,,,,,,,,,,,,,,,,,,,,,,,,,,,,,,,,,,,,,,,,,,,,,,,,,,,,,,,,,,,,,,,,,,,,
387355,001,2022-11-21_00h53.00.828,Info_measure_main_exp,2022.2.2,Win32,60.0240096,,,,,,,,,,,,,,,,,,masks/mask_004.jpg,0,4,4,3,1,,,,,,,,,,,,,,,,,,,,,,,,,,,,,,,,,,,,,,,,,,,,,,,,,,,,,,,,,,,,,,,,,,,,,,,,,,,,,,,,,,,,,,,,
387355,001,2022-11-21_00h53.00.828,Info_measure_main_exp,2022.2.2,Win32,60.0240096,,,,,,,,,,,,,,,,,,,,,,,,0.058333333,0.15,1,0,0,response1disk,7,75.86,1,0.004166667,0.002777778,1,0,0,center_square,0,1,1,0,1,0,131,5,5,2370,2406,prac_patch/patch0002370.jpg,prac_patch/patch0002406.jpg,,,,,,,,,,,,,,,,,,,,,,,,,,,,,,,,,,,,,,,,,,,,,,,,,,,,,,,,,,,,
387355,001,2022-11-21_00h53.00.828,Info_measure_main_exp,2022.2.2,Win32,60.0240096,,,,,,,,,,,,,0,0,0,0,1,masks/mask_001.jpg,,,,,,,,,,,,,,,,,,,,,,,,,,,,,,,,,,,,,,,,,,,,,,,,,,,,,,,,,,,,,,,,,,,,,,,,,,,,,,,,,,,,,,,,,,,,,
387355,001,2022-11-21_00h53.00.828,Info_measure_main_exp,2022.2.2,Win32,60.0240096,,,,,,,,,,,,,0,1,1,1,1,masks/mask_002.jpg,,,,,,,,,,,,,,,,,,,,,,,,,,,,,,,,,,,,,,,,,,,,,,,,,,,,,,,,,,,,,,,,,,,,,,,,,,,,,,,,,,,,,,,,,,,,,
387355,001,2022-11-21_00h53.00.828,Info_measure_main_exp,2022.2.2,Win32,60.0240096,,,,,,,,,,,,,0,2,2,3,1,masks/mask_004.jpg,,,,,,,,,,,,,,,,,,,,,,,,,,,,,,,,,,,,,,,,,,,,,,,,,,,,,,,,,,,,,,,,,,,,,,,,,,,,,,,,,,,,,,,,,,,,,
387355,001,2022-11-21_00h53.00.828,Info_measure_main_exp,2022.2.2,Win32,60.0240096,,,,,,,,,,,,,0,3,3,2,1,masks/mask_003.jpg,,,,,,,,,,,,,,,,,,,,,,,,,,,,,,,,,,,,,,,,,,,,,,,,,,,,,,,,,,,,,,,,,,,,,,,,,,,,,,,,,,,,,,,,,,,,,
387355,001,2022-11-21_00h53.00.828,Info_measure_main_exp,2022.2.2,Win32,60.0240096,,,,,,,,,,,,,0,4,4,4,1,masks/mask_005.jpg,,,,,,,,,,,,,,,,,,,,,,,,,,,,,,,,,,,,,,,,,,,,,,,,,,,,,,,,,,,,,,,,,,,,,,,,,,,,,,,,,,,,,,,,,,,,,
387355,001,2022-11-21_00h53.00.828,Info_measure_main_exp,2022.2.2,Win32,60.0240096,,,,,,,,,,,,,,,,,,masks/mask_002.jpg,0,0,0,1,1,,,,,,,,,,,,,,,,,,,,,,,,,,,,,,,,,,,,,,,,,,,,,,,,,,,,,,,,,,,,,,,,,,,,,,,,,,,,,,,,,,,,,,,,
387355,001,2022-11-21_00h53.00.828,Info_measure_main_exp,2022.2.2,Win32,60.0240096,,,,,,,,,,,,,,,,,,masks/mask_001.jpg,0,1,1,0,1,,,,,,,,,,,,,,,,,,,,,,,,,,,,,,,,,,,,,,,,,,,,,,,,,,,,,,,,,,,,,,,,,,,,,,,,,,,,,,,,,,,,,,,,
387355,001,2022-11-21_00h53.00.828,Info_measure_main_exp,2022.2.2,Win32,60.0240096,,,,,,,,,,,,,,,,,,masks/mask_005.jpg,0,2,2,4,1,,,,,,,,,,,,,,,,,,,,,,,,,,,,,,,,,,,,,,,,,,,,,,,,,,,,,,,,,,,,,,,,,,,,,,,,,,,,,,,,,,,,,,,,
387355,001,2022-11-21_00h53.00.828,Info_measure_main_exp,2022.2.2,Win32,60.0240096,,,,,,,,,,,,,,,,,,masks/mask_004.jpg,0,3,3,3,1,,,,,,,,,,,,,,,,,,,,,,,,,,,,,,,,,,,,,,,,,,,,,,,,,,,,,,,,,,,,,,,,,,,,,,,,,,,,,,,,,,,,,,,,
387355,001,2022-11-21_00h53.00.828,Info_measure_main_exp,2022.2.2,Win32,60.0240096,,,,,,,,,,,,,,,,,,masks/mask_003.jpg,0,4,4,2,1,,,,,,,,,,,,,,,,,,,,,,,,,,,,,,,,,,,,,,,,,,,,,,,,,,,,,,,,,,,,,,,,,,,,,,,,,,,,,,,,,,,,,,,,
387355,001,2022-11-21_00h53.00.828,Info_measure_main_exp,2022.2.2,Win32,60.0240096,,,,,,,,,,,,,,,,,,,,,,,,-0.040277778,-0.123611111,1,0,0,response5disk,3,84.494,1,0.001388889,0,1,0,0,center_square,0,2,2,1,1,0,131,5,5,2514,2490,prac_patch/patch0002514.jpg,prac_patch/patch0002490.jpg,,,,,,,,,,,,,,,,,,,,,,,,,,,,,,,,,,,,,,,,,,,,,,,,,,,,,,,,,,,,
387355,001,2022-11-21_00h53.00.828,Info_measure_main_exp,2022.2.2,Win32,60.0240096,,,,,,,,,,,,,,,,,,,,,,,,,,,,,,,,,,,,,,,,,,,,,,,,,,,,,,,,,,,space,4.388,,,,,,,,,,,,,,,,,,,,,,,,,,,,,,,,,,,,,,,,,,,,,,,,,,,
387355,001,2022-11-21_00h53.00.828,Info_measure_main_exp,2022.2.2,Win32,60.0240096,,,,,,,,,,,,,,,,,,masks/mask_001.jpg,,,,,,,,,,,,,,,,,,,,,,,,,,,,,,,,,,,,,,,,,,,0,0,0,0,1,,,,,,,,,,,,,,,,,,,,,,,,,,,,,,,,,,,,,,,,,,,,,,
387355,001,2022-11-21_00h53.00.828,Info_measure_main_exp,2022.2.2,Win32,60.0240096,,,,,,,,,,,,,,,,,,masks/mask_002.jpg,,,,,,,,,,,,,,,,,,,,,,,,,,,,,,,,,,,,,,,,,,,0,1,1,1,1,,,,,,,,,,,,,,,,,,,,,,,,,,,,,,,,,,,,,,,,,,,,,,
387355,001,2022-11-21_00h53.00.828,Info_measure_main_exp,2022.2.2,Win32,60.0240096,,,,,,,,,,,,,,,,,,masks/mask_004.jpg,,,,,,,,,,,,,,,,,,,,,,,,,,,,,,,,,,,,,,,,,,,0,2,2,3,1,,,,,,,,,,,,,,,,,,,,,,,,,,,,,,,,,,,,,,,,,,,,,,
387355,001,2022-11-21_00h53.00.828,Info_measure_main_exp,2022.2.2,Win32,60.0240096,,,,,,,,,,,,,,,,,,masks/mask_003.jpg,,,,,,,,,,,,,,,,,,,,,,,,,,,,,,,,,,,,,,,,,,,0,3,3,2,1,,,,,,,,,,,,,,,,,,,,,,,,,,,,,,,,,,,,,,,,,,,,,,
387355,001,2022-11-21_00h53.00.828,Info_measure_main_exp,2022.2.2,Win32,60.0240096,,,,,,,,,,,,,,,,,,masks/mask_005.jpg,,,,,,,,,,,,,,,,,,,,,,,,,,,,,,,,,,,,,,,,,,,0,4,4,4,1,,,,,,,,,,,,,,,,,,,,,,,,,,,,,,,,,,,,,,,,,,,,,,
387355,001,2022-11-21_00h53.00.828,Info_measure_main_exp,2022.2.2,Win32,60.0240096,,,,,,,,,,,,,,,,,,masks/mask_004.jpg,,,,,,,,,,,,,,,,,,,,,,,,,,,,,,,,,,,,,,,,,,,,,,,,0,0,0,3,1,,,,,,,,,,,,,,,,,,,,,,,,,,,,,,,,,,,,,,,,,
387355,001,2022-11-21_00h53.00.828,Info_measure_main_exp,2022.2.2,Win32,60.0240096,,,,,,,,,,,,,,,,,,masks/mask_001.jpg,,,,,,,,,,,,,,,,,,,,,,,,,,,,,,,,,,,,,,,,,,,,,,,,0,1,1,0,1,,,,,,,,,,,,,,,,,,,,,,,,,,,,,,,,,,,,,,,,,
387355,001,2022-11-21_00h53.00.828,Info_measure_main_exp,2022.2.2,Win32,60.0240096,,,,,,,,,,,,,,,,,,masks/mask_005.jpg,,,,,,,,,,,,,,,,,,,,,,,,,,,,,,,,,,,,,,,,,,,,,,,,0,2,2,4,1,,,,,,,,,,,,,,,,,,,,,,,,,,,,,,,,,,,,,,,,,
387355,001,2022-11-21_00h53.00.828,Info_measure_main_exp,2022.2.2,Win32,60.0240096,,,,,,,,,,,,,,,,,,masks/mask_003.jpg,,,,,,,,,,,,,,,,,,,,,,,,,,,,,,,,,,,,,,,,,,,,,,,,0,3,3,2,1,,,,,,,,,,,,,,,,,,,,,,,,,,,,,,,,,,,,,,,,,
387355,001,2022-11-21_00h53.00.828,Info_measure_main_exp,2022.2.2,Win32,60.0240096,,,,,,,,,,,,,,,,,,masks/mask_002.jpg,,,,,,,,,,,,,,,,,,,,,,,,,,,,,,,,,,,,,,,,,,,,,,,,0,4,4,1,1,,,,,,,,,,,,,,,,,,,,,,,,,,,,,,,,,,,,,,,,,
387355,001,2022-11-21_00h53.00.828,Info_measure_main_exp,2022.2.2,Win32,60.0240096,,,,,,,,,,,,,,,,,,,,,,,,,,,,,,4,1.651,1,,,,,,,,,,,,0,131,5,5,2250,1950,absent_patch/patch0002250.jpg,absent_patch/patch0001950.jpg,,,,,,,,,,,,,,,,,,,,0.073611111,-0.151388889,1,0,0,response3disk,1,-0.008333333,0.005555556,1,0,0,center_square,0,0,0,16,1,,,,,,,,,,,,,,,,,,,,,,,
387355,001,2022-11-21_00h53.00.828,Info_measure_main_exp,2022.2.2,Win32,60.0240096,,,,,,,,,,,,,,,,,,masks/mask_002.jpg,,,,,,,,,,,,,,,,,,,,,,,,,,,,,,,,,,,,,,,,,,,0,0,0,1,1,,,,,,,,,,,,,,,,,,,,,,,,,,,,,,,,,,,,,,,,,,,,,,
387355,001,2022-11-21_00h53.00.828,Info_measure_main_exp,2022.2.2,Win32,60.0240096,,,,,,,,,,,,,,,,,,masks/mask_003.jpg,,,,,,,,,,,,,,,,,,,,,,,,,,,,,,,,,,,,,,,,,,,0,1,1,2,1,,,,,,,,,,,,,,,,,,,,,,,,,,,,,,,,,,,,,,,,,,,,,,
387355,001,2022-11-21_00h53.00.828,Info_measure_main_exp,2022.2.2,Win32,60.0240096,,,,,,,,,,,,,,,,,,masks/mask_001.jpg,,,,,,,,,,,,,,,,,,,,,,,,,,,,,,,,,,,,,,,,,,,0,2,2,0,1,,,,,,,,,,,,,,,,,,,,,,,,,,,,,,,,,,,,,,,,,,,,,,
387355,001,2022-11-21_00h53.00.828,Info_measure_main_exp,2022.2.2,Win32,60.0240096,,,,,,,,,,,,,,,,,,masks/mask_004.jpg,,,,,,,,,,,,,,,,,,,,,,,,,,,,,,,,,,,,,,,,,,,0,3,3,3,1,,,,,,,,,,,,,,,,,,,,,,,,,,,,,,,,,,,,,,,,,,,,,,
387355,001,2022-11-21_00h53.00.828,Info_measure_main_exp,2022.2.2,Win32,60.0240096,,,,,,,,,,,,,,,,,,masks/mask_005.jpg,,,,,,,,,,,,,,,,,,,,,,,,,,,,,,,,,,,,,,,,,,,0,4,4,4,1,,,,,,,,,,,,,,,,,,,,,,,,,,,,,,,,,,,,,,,,,,,,,,
387355,001,2022-11-21_00h53.00.828,Info_measure_main_exp,2022.2.2,Win32,60.0240096,,,,,,,,,,,,,,,,,,masks/mask_001.jpg,,,,,,,,,,,,,,,,,,,,,,,,,,,,,,,,,,,,,,,,,,,,,,,,0,0,0,0,1,,,,,,,,,,,,,,,,,,,,,,,,,,,,,,,,,,,,,,,,,
387355,001,2022-11-21_00h53.00.828,Info_measure_main_exp,2022.2.2,Win32,60.0240096,,,,,,,,,,,,,,,,,,masks/mask_004.jpg,,,,,,,,,,,,,,,,,,,,,,,,,,,,,,,,,,,,,,,,,,,,,,,,0,1,1,3,1,,,,,,,,,,,,,,,,,,,,,,,,,,,,,,,,,,,,,,,,,
387355,001,2022-11-21_00h53.00.828,Info_measure_main_exp,2022.2.2,Win32,60.0240096,,,,,,,,,,,,,,,,,,masks/mask_003.jpg,,,,,,,,,,,,,,,,,,,,,,,,,,,,,,,,,,,,,,,,,,,,,,,,0,2,2,2,1,,,,,,,,,,,,,,,,,,,,,,,,,,,,,,,,,,,,,,,,,
387355,001,2022-11-21_00h53.00.828,Info_measure_main_exp,2022.2.2,Win32,60.0240096,,,,,,,,,,,,,,,,,,masks/mask_002.jpg,,,,,,,,,,,,,,,,,,,,,,,,,,,,,,,,,,,,,,,,,,,,,,,,0,3,3,1,1,,,,,,,,,,,,,,,,,,,,,,,,,,,,,,,,,,,,,,,,,
387355,001,2022-11-21_00h53.00.828,Info_measure_main_exp,2022.2.2,Win32,60.0240096,,,,,,,,,,,,,,,,,,masks/mask_005.jpg,,,,,,,,,,,,,,,,,,,,,,,,,,,,,,,,,,,,,,,,,,,,,,,,0,4,4,4,1,,,,,,,,,,,,,,,,,,,,,,,,,,,,,,,,,,,,,,,,,
387355,001,2022-11-21_00h53.00.828,Info_measure_main_exp,2022.2.2,Win32,60.0240096,,,,,,,,,,,,,,,,,,,,,,,,,,,,,,5,1.584,1,,,,,,,,,,,,0,131,5,5,2142,2166,absent_patch/patch0002142.jpg,absent_patch/patch0002166.jpg,,,,,,,,,,,,,,,,,,,,0.159722222,-0.0625,1,0,0,response3disk,2,-0.001388889,0.004166667,1,0,0,center_square,0,1,1,66,1,,,,,,,,,,,,,,,,,,,,,,,
387355,001,2022-11-21_00h53.00.828,Info_measure_main_exp,2022.2.2,Win32,60.0240096,,,,,,,,,,,,,,,,,,masks/mask_002.jpg,,,,,,,,,,,,,,,,,,,,,,,,,,,,,,,,,,,,,,,,,,,0,0,0,1,1,,,,,,,,,,,,,,,,,,,,,,,,,,,,,,,,,,,,,,,,,,,,,,
387355,001,2022-11-21_00h53.00.828,Info_measure_main_exp,2022.2.2,Win32,60.0240096,,,,,,,,,,,,,,,,,,masks/mask_005.jpg,,,,,,,,,,,,,,,,,,,,,,,,,,,,,,,,,,,,,,,,,,,0,1,1,4,1,,,,,,,,,,,,,,,,,,,,,,,,,,,,,,,,,,,,,,,,,,,,,,
387355,001,2022-11-21_00h53.00.828,Info_measure_main_exp,2022.2.2,Win32,60.0240096,,,,,,,,,,,,,,,,,,masks/mask_004.jpg,,,,,,,,,,,,,,,,,,,,,,,,,,,,,,,,,,,,,,,,,,,0,2,2,3,1,,,,,,,,,,,,,,,,,,,,,,,,,,,,,,,,,,,,,,,,,,,,,,
387355,001,2022-11-21_00h53.00.828,Info_measure_main_exp,2022.2.2,Win32,60.0240096,,,,,,,,,,,,,,,,,,masks/mask_003.jpg,,,,,,,,,,,,,,,,,,,,,,,,,,,,,,,,,,,,,,,,,,,0,3,3,2,1,,,,,,,,,,,,,,,,,,,,,,,,,,,,,,,,,,,,,,,,,,,,,,
387355,001,2022-11-21_00h53.00.828,Info_measure_main_exp,2022.2.2,Win32,60.0240096,,,,,,,,,,,,,,,,,,masks/mask_001.jpg,,,,,,,,,,,,,,,,,,,,,,,,,,,,,,,,,,,,,,,,,,,0,4,4,0,1,,,,,,,,,,,,,,,,,,,,,,,,,,,,,,,,,,,,,,,,,,,,,,
387355,001,2022-11-21_00h53.00.828,Info_measure_main_exp,2022.2.2,Win32,60.0240096,,,,,,,,,,,,,,,,,,masks/mask_002.jpg,,,,,,,,,,,,,,,,,,,,,,,,,,,,,,,,,,,,,,,,,,,,,,,,0,0,0,1,1,,,,,,,,,,,,,,,,,,,,,,,,,,,,,,,,,,,,,,,,,
387355,001,2022-11-21_00h53.00.828,Info_measure_main_exp,2022.2.2,Win32,60.0240096,,,,,,,,,,,,,,,,,,masks/mask_003.jpg,,,,,,,,,,,,,,,,,,,,,,,,,,,,,,,,,,,,,,,,,,,,,,,,0,1,1,2,1,,,,,,,,,,,,,,,,,,,,,,,,,,,,,,,,,,,,,,,,,
387355,001,2022-11-21_00h53.00.828,Info_measure_main_exp,2022.2.2,Win32,60.0240096,,,,,,,,,,,,,,,,,,masks/mask_004.jpg,,,,,,,,,,,,,,,,,,,,,,,,,,,,,,,,,,,,,,,,,,,,,,,,0,2,2,3,1,,,,,,,,,,,,,,,,,,,,,,,,,,,,,,,,,,,,,,,,,
387355,001,2022-11-21_00h53.00.828,Info_measure_main_exp,2022.2.2,Win32,60.0240096,,,,,,,,,,,,,,,,,,masks/mask_001.jpg,,,,,,,,,,,,,,,,,,,,,,,,,,,,,,,,,,,,,,,,,,,,,,,,0,3,3,0,1,,,,,,,,,,,,,,,,,,,,,,,,,,,,,,,,,,,,,,,,,
387355,001,2022-11-21_00h53.00.828,Info_measure_main_exp,2022.2.2,Win32,60.0240096,,,,,,,,,,,,,,,,,,masks/mask_005.jpg,,,,,,,,,,,,,,,,,,,,,,,,,,,,,,,,,,,,,,,,,,,,,,,,0,4,4,4,1,,,,,,,,,,,,,,,,,,,,,,,,,,,,,,,,,,,,,,,,,
387355,001,2022-11-21_00h53.00.828,Info_measure_main_exp,2022.2.2,Win32,60.0240096,,,,,,,,,,,,,,,,,,,,,,,,,,,,,,7,1.249,1,,,,,,,,,,,,0,131,5,5,2238,2298,absent_patch/patch0002238.jpg,absent_patch/patch0002298.jpg,,,,,,,,,,,,,,,,,,,,0.038888889,0.147222222,1,0,0,response1disk,3,0,0.013888889,1,0,0,center_square,0,2,2,51,1,,,,,,,,,,,,,,,,,,,,,,,
387355,001,2022-11-21_00h53.00.828,Info_measure_main_exp,2022.2.2,Win32,60.0240096,,,,,,,,,,,,,,,,,,masks/mask_001.jpg,,,,,,,,,,,,,,,,,,,,,,,,,,,,,,,,,,,,,,,,,,,0,0,0,0,1,,,,,,,,,,,,,,,,,,,,,,,,,,,,,,,,,,,,,,,,,,,,,,
387355,001,2022-11-21_00h53.00.828,Info_measure_main_exp,2022.2.2,Win32,60.0240096,,,,,,,,,,,,,,,,,,masks/mask_004.jpg,,,,,,,,,,,,,,,,,,,,,,,,,,,,,,,,,,,,,,,,,,,0,1,1,3,1,,,,,,,,,,,,,,,,,,,,,,,,,,,,,,,,,,,,,,,,,,,,,,
387355,001,2022-11-21_00h53.00.828,Info_measure_main_exp,2022.2.2,Win32,60.0240096,,,,,,,,,,,,,,,,,,masks/mask_002.jpg,,,,,,,,,,,,,,,,,,,,,,,,,,,,,,,,,,,,,,,,,,,0,2,2,1,1,,,,,,,,,,,,,,,,,,,,,,,,,,,,,,,,,,,,,,,,,,,,,,
387355,001,2022-11-21_00h53.00.828,Info_measure_main_exp,2022.2.2,Win32,60.0240096,,,,,,,,,,,,,,,,,,masks/mask_005.jpg,,,,,,,,,,,,,,,,,,,,,,,,,,,,,,,,,,,,,,,,,,,0,3,3,4,1,,,,,,,,,,,,,,,,,,,,,,,,,,,,,,,,,,,,,,,,,,,,,,
387355,001,2022-11-21_00h53.00.828,Info_measure_main_exp,2022.2.2,Win32,60.0240096,,,,,,,,,,,,,,,,,,masks/mask_003.jpg,,,,,,,,,,,,,,,,,,,,,,,,,,,,,,,,,,,,,,,,,,,0,4,4,2,1,,,,,,,,,,,,,,,,,,,,,,,,,,,,,,,,,,,,,,,,,,,,,,
387355,001,2022-11-21_00h53.00.828,Info_measure_main_exp,2022.2.2,Win32,60.0240096,,,,,,,,,,,,,,,,,,masks/mask_001.jpg,,,,,,,,,,,,,,,,,,,,,,,,,,,,,,,,,,,,,,,,,,,,,,,,0,0,0,0,1,,,,,,,,,,,,,,,,,,,,,,,,,,,,,,,,,,,,,,,,,
387355,001,2022-11-21_00h53.00.828,Info_measure_main_exp,2022.2.2,Win32,60.0240096,,,,,,,,,,,,,,,,,,masks/mask_002.jpg,,,,,,,,,,,,,,,,,,,,,,,,,,,,,,,,,,,,,,,,,,,,,,,,0,1,1,1,1,,,,,,,,,,,,,,,,,,,,,,,,,,,,,,,,,,,,,,,,,
387355,001,2022-11-21_00h53.00.828,Info_measure_main_exp,2022.2.2,Win32,60.0240096,,,,,,,,,,,,,,,,,,masks/mask_004.jpg,,,,,,,,,,,,,,,,,,,,,,,,,,,,,,,,,,,,,,,,,,,,,,,,0,2,2,3,1,,,,,,,,,,,,,,,,,,,,,,,,,,,,,,,,,,,,,,,,,
387355,001,2022-11-21_00h53.00.828,Info_measure_main_exp,2022.2.2,Win32,60.0240096,,,,,,,,,,,,,,,,,,masks/mask_003.jpg,,,,,,,,,,,,,,,,,,,,,,,,,,,,,,,,,,,,,,,,,,,,,,,,0,3,3,2,1,,,,,,,,,,,,,,,,,,,,,,,,,,,,,,,,,,,,,,,,,
387355,001,2022-11-21_00h53.00.828,Info_measure_main_exp,2022.2.2,Win32,60.0240096,,,,,,,,,,,,,,,,,,masks/mask_005.jpg,,,,,,,,,,,,,,,,,,,,,,,,,,,,,,,,,,,,,,,,,,,,,,,,0,4,4,4,1,,,,,,,,,,,,,,,,,,,,,,,,,,,,,,,,,,,,,,,,,
387355,001,2022-11-21_00h53.00.828,Info_measure_main_exp,2022.2.2,Win32,60.0240096,,,,,,,,,,,,,,,,,,,,,,,,,,,,,,3,2,1,,,,,,,,,,,,0,131,5,5,2274,2178,absent_patch/patch0002274.jpg,absent_patch/patch0002178.jpg,,,,,,,,,,,,,,,,,,,,-0.033333333,-0.129166667,1,0,0,response5disk,4,0.001388889,0.004166667,1,0,0,center_square,0,3,3,117,1,,,,,,,,,,,,,,,,,,,,,,,
387355,001,2022-11-21_00h53.00.828,Info_measure_main_exp,2022.2.2,Win32,60.0240096,,,,,,,,,,,,,,,,,,masks/mask_004.jpg,,,,,,,,,,,,,,,,,,,,,,,,,,,,,,,,,,,,,,,,,,,0,0,0,3,1,,,,,,,,,,,,,,,,,,,,,,,,,,,,,,,,,,,,,,,,,,,,,,
387355,001,2022-11-21_00h53.00.828,Info_measure_main_exp,2022.2.2,Win32,60.0240096,,,,,,,,,,,,,,,,,,masks/mask_005.jpg,,,,,,,,,,,,,,,,,,,,,,,,,,,,,,,,,,,,,,,,,,,0,1,1,4,1,,,,,,,,,,,,,,,,,,,,,,,,,,,,,,,,,,,,,,,,,,,,,,
387355,001,2022-11-21_00h53.00.828,Info_measure_main_exp,2022.2.2,Win32,60.0240096,,,,,,,,,,,,,,,,,,masks/mask_001.jpg,,,,,,,,,,,,,,,,,,,,,,,,,,,,,,,,,,,,,,,,,,,0,2,2,0,1,,,,,,,,,,,,,,,,,,,,,,,,,,,,,,,,,,,,,,,,,,,,,,
387355,001,2022-11-21_00h53.00.828,Info_measure_main_exp,2022.2.2,Win32,60.0240096,,,,,,,,,,,,,,,,,,masks/mask_002.jpg,,,,,,,,,,,,,,,,,,,,,,,,,,,,,,,,,,,,,,,,,,,0,3,3,1,1,,,,,,,,,,,,,,,,,,,,,,,,,,,,,,,,,,,,,,,,,,,,,,
387355,001,2022-11-21_00h53.00.828,Info_measure_main_exp,2022.2.2,Win32,60.0240096,,,,,,,,,,,,,,,,,,masks/mask_003.jpg,,,,,,,,,,,,,,,,,,,,,,,,,,,,,,,,,,,,,,,,,,,0,4,4,2,1,,,,,,,,,,,,,,,,,,,,,,,,,,,,,,,,,,,,,,,,,,,,,,
387355,001,2022-11-21_00h53.00.828,Info_measure_main_exp,2022.2.2,Win32,60.0240096,,,,,,,,,,,,,,,,,,masks/mask_001.jpg,,,,,,,,,,,,,,,,,,,,,,,,,,,,,,,,,,,,,,,,,,,,,,,,0,0,0,0,1,,,,,,,,,,,,,,,,,,,,,,,,,,,,,,,,,,,,,,,,,
387355,001,2022-11-21_00h53.00.828,Info_measure_main_exp,2022.2.2,Win32,60.0240096,,,,,,,,,,,,,,,,,,masks/mask_003.jpg,,,,,,,,,,,,,,,,,,,,,,,,,,,,,,,,,,,,,,,,,,,,,,,,0,1,1,2,1,,,,,,,,,,,,,,,,,,,,,,,,,,,,,,,,,,,,,,,,,
387355,001,2022-11-21_00h53.00.828,Info_measure_main_exp,2022.2.2,Win32,60.0240096,,,,,,,,,,,,,,,,,,masks/mask_005.jpg,,,,,,,,,,,,,,,,,,,,,,,,,,,,,,,,,,,,,,,,,,,,,,,,0,2,2,4,1,,,,,,,,,,,,,,,,,,,,,,,,,,,,,,,,,,,,,,,,,
387355,001,2022-11-21_00h53.00.828,Info_measure_main_exp,2022.2.2,Win32,60.0240096,,,,,,,,,,,,,,,,,,masks/mask_002.jpg,,,,,,,,,,,,,,,,,,,,,,,,,,,,,,,,,,,,,,,,,,,,,,,,0,3,3,1,1,,,,,,,,,,,,,,,,,,,,,,,,,,,,,,,,,,,,,,,,,
387355,001,2022-11-21_00h53.00.828,Info_measure_main_exp,2022.2.2,Win32,60.0240096,,,,,,,,,,,,,,,,,,masks/mask_004.jpg,,,,,,,,,,,,,,,,,,,,,,,,,,,,,,,,,,,,,,,,,,,,,,,,0,4,4,3,1,,,,,,,,,,,,,,,,,,,,,,,,,,,,,,,,,,,,,,,,,
387355,001,2022-11-21_00h53.00.828,Info_measure_main_exp,2022.2.2,Win32,60.0240096,,,,,,,,,,,,,,,,,,,,,,,,,,,,,,3,1.2,1,,,,,,,,,,,,0,131,5,5,2250,2142,absent_patch/patch0002250.jpg,absent_patch/patch0002142.jpg,,,,,,,,,,,,,,,,,,,,-0.036111111,-0.106944444,1,0,0,response5disk,5,0.002777778,-0.004166667,1,0,0,center_square,0,4,4,71,1,,,,,,,,,,,,,,,,,,,,,,,
387355,001,2022-11-21_00h53.00.828,Info_measure_main_exp,2022.2.2,Win32,60.0240096,,,,,,,,,,,,,,,,,,masks/mask_004.jpg,,,,,,,,,,,,,,,,,,,,,,,,,,,,,,,,,,,,,,,,,,,0,0,0,3,1,,,,,,,,,,,,,,,,,,,,,,,,,,,,,,,,,,,,,,,,,,,,,,
387355,001,2022-11-21_00h53.00.828,Info_measure_main_exp,2022.2.2,Win32,60.0240096,,,,,,,,,,,,,,,,,,masks/mask_003.jpg,,,,,,,,,,,,,,,,,,,,,,,,,,,,,,,,,,,,,,,,,,,0,1,1,2,1,,,,,,,,,,,,,,,,,,,,,,,,,,,,,,,,,,,,,,,,,,,,,,
387355,001,2022-11-21_00h53.00.828,Info_measure_main_exp,2022.2.2,Win32,60.0240096,,,,,,,,,,,,,,,,,,masks/mask_001.jpg,,,,,,,,,,,,,,,,,,,,,,,,,,,,,,,,,,,,,,,,,,,0,2,2,0,1,,,,,,,,,,,,,,,,,,,,,,,,,,,,,,,,,,,,,,,,,,,,,,
387355,001,2022-11-21_00h53.00.828,Info_measure_main_exp,2022.2.2,Win32,60.0240096,,,,,,,,,,,,,,,,,,masks/mask_002.jpg,,,,,,,,,,,,,,,,,,,,,,,,,,,,,,,,,,,,,,,,,,,0,3,3,1,1,,,,,,,,,,,,,,,,,,,,,,,,,,,,,,,,,,,,,,,,,,,,,,
387355,001,2022-11-21_00h53.00.828,Info_measure_main_exp,2022.2.2,Win32,60.0240096,,,,,,,,,,,,,,,,,,masks/mask_005.jpg,,,,,,,,,,,,,,,,,,,,,,,,,,,,,,,,,,,,,,,,,,,0,4,4,4,1,,,,,,,,,,,,,,,,,,,,,,,,,,,,,,,,,,,,,,,,,,,,,,
387355,001,2022-11-21_00h53.00.828,Info_measure_main_exp,2022.2.2,Win32,60.0240096,,,,,,,,,,,,,,,,,,masks/mask_001.jpg,,,,,,,,,,,,,,,,,,,,,,,,,,,,,,,,,,,,,,,,,,,,,,,,0,0,0,0,1,,,,,,,,,,,,,,,,,,,,,,,,,,,,,,,,,,,,,,,,,
387355,001,2022-11-21_00h53.00.828,Info_measure_main_exp,2022.2.2,Win32,60.0240096,,,,,,,,,,,,,,,,,,masks/mask_005.jpg,,,,,,,,,,,,,,,,,,,,,,,,,,,,,,,,,,,,,,,,,,,,,,,,0,1,1,4,1,,,,,,,,,,,,,,,,,,,,,,,,,,,,,,,,,,,,,,,,,
387355,001,2022-11-21_00h53.00.828,Info_measure_main_exp,2022.2.2,Win32,60.0240096,,,,,,,,,,,,,,,,,,masks/mask_002.jpg,,,,,,,,,,,,,,,,,,,,,,,,,,,,,,,,,,,,,,,,,,,,,,,,0,2,2,1,1,,,,,,,,,,,,,,,,,,,,,,,,,,,,,,,,,,,,,,,,,
387355,001,2022-11-21_00h53.00.828,Info_measure_main_exp,2022.2.2,Win32,60.0240096,,,,,,,,,,,,,,,,,,masks/mask_004.jpg,,,,,,,,,,,,,,,,,,,,,,,,,,,,,,,,,,,,,,,,,,,,,,,,0,3,3,3,1,,,,,,,,,,,,,,,,,,,,,,,,,,,,,,,,,,,,,,,,,
387355,001,2022-11-21_00h53.00.828,Info_measure_main_exp,2022.2.2,Win32,60.0240096,,,,,,,,,,,,,,,,,,masks/mask_003.jpg,,,,,,,,,,,,,,,,,,,,,,,,,,,,,,,,,,,,,,,,,,,,,,,,0,4,4,2,1,,,,,,,,,,,,,,,,,,,,,,,,,,,,,,,,,,,,,,,,,
387355,001,2022-11-21_00h53.00.828,Info_measure_main_exp,2022.2.2,Win32,60.0240096,,,,,,,,,,,,,,,,,,,,,,,,,,,,,,3,1.966,1,,,,,,,,,,,,0,131,5,5,2274,2238,absent_patch/patch0002274.jpg,absent_patch/patch0002238.jpg,,,,,,,,,,,,,,,,,,,,-0.029166667,-0.147222222,1,0,0,response5disk,6,-0.0125,0.006944444,1,0,0,center_square,0,5,5,91,1,,,,,,,,,,,,,,,,,,,,,,,
387355,001,2022-11-21_00h53.00.828,Info_measure_main_exp,2022.2.2,Win32,60.0240096,,,,,,,,,,,,,,,,,,masks/mask_002.jpg,,,,,,,,,,,,,,,,,,,,,,,,,,,,,,,,,,,,,,,,,,,0,0,0,1,1,,,,,,,,,,,,,,,,,,,,,,,,,,,,,,,,,,,,,,,,,,,,,,
387355,001,2022-11-21_00h53.00.828,Info_measure_main_exp,2022.2.2,Win32,60.0240096,,,,,,,,,,,,,,,,,,masks/mask_001.jpg,,,,,,,,,,,,,,,,,,,,,,,,,,,,,,,,,,,,,,,,,,,0,1,1,0,1,,,,,,,,,,,,,,,,,,,,,,,,,,,,,,,,,,,,,,,,,,,,,,
387355,001,2022-11-21_00h53.00.828,Info_measure_main_exp,2022.2.2,Win32,60.0240096,,,,,,,,,,,,,,,,,,masks/mask_003.jpg,,,,,,,,,,,,,,,,,,,,,,,,,,,,,,,,,,,,,,,,,,,0,2,2,2,1,,,,,,,,,,,,,,,,,,,,,,,,,,,,,,,,,,,,,,,,,,,,,,
387355,001,2022-11-21_00h53.00.828,Info_measure_main_exp,2022.2.2,Win32,60.0240096,,,,,,,,,,,,,,,,,,masks/mask_005.jpg,,,,,,,,,,,,,,,,,,,,,,,,,,,,,,,,,,,,,,,,,,,0,3,3,4,1,,,,,,,,,,,,,,,,,,,,,,,,,,,,,,,,,,,,,,,,,,,,,,
387355,001,2022-11-21_00h53.00.828,Info_measure_main_exp,2022.2.2,Win32,60.0240096,,,,,,,,,,,,,,,,,,masks/mask_004.jpg,,,,,,,,,,,,,,,,,,,,,,,,,,,,,,,,,,,,,,,,,,,0,4,4,3,1,,,,,,,,,,,,,,,,,,,,,,,,,,,,,,,,,,,,,,,,,,,,,,
387355,001,2022-11-21_00h53.00.828,Info_measure_main_exp,2022.2.2,Win32,60.0240096,,,,,,,,,,,,,,,,,,masks/mask_001.jpg,,,,,,,,,,,,,,,,,,,,,,,,,,,,,,,,,,,,,,,,,,,,,,,,0,0,0,0,1,,,,,,,,,,,,,,,,,,,,,,,,,,,,,,,,,,,,,,,,,
387355,001,2022-11-21_00h53.00.828,Info_measure_main_exp,2022.2.2,Win32,60.0240096,,,,,,,,,,,,,,,,,,masks/mask_005.jpg,,,,,,,,,,,,,,,,,,,,,,,,,,,,,,,,,,,,,,,,,,,,,,,,0,1,1,4,1,,,,,,,,,,,,,,,,,,,,,,,,,,,,,,,,,,,,,,,,,
387355,001,2022-11-21_00h53.00.828,Info_measure_main_exp,2022.2.2,Win32,60.0240096,,,,,,,,,,,,,,,,,,masks/mask_003.jpg,,,,,,,,,,,,,,,,,,,,,,,,,,,,,,,,,,,,,,,,,,,,,,,,0,2,2,2,1,,,,,,,,,,,,,,,,,,,,,,,,,,,,,,,,,,,,,,,,,
387355,001,2022-11-21_00h53.00.828,Info_measure_main_exp,2022.2.2,Win32,60.0240096,,,,,,,,,,,,,,,,,,masks/mask_004.jpg,,,,,,,,,,,,,,,,,,,,,,,,,,,,,,,,,,,,,,,,,,,,,,,,0,3,3,3,1,,,,,,,,,,,,,,,,,,,,,,,,,,,,,,,,,,,,,,,,,
387355,001,2022-11-21_00h53.00.828,Info_measure_main_exp,2022.2.2,Win32,60.0240096,,,,,,,,,,,,,,,,,,masks/mask_002.jpg,,,,,,,,,,,,,,,,,,,,,,,,,,,,,,,,,,,,,,,,,,,,,,,,0,4,4,1,1,,,,,,,,,,,,,,,,,,,,,,,,,,,,,,,,,,,,,,,,,
387355,001,2022-11-21_00h53.00.828,Info_measure_main_exp,2022.2.2,Win32,60.0240096,,,,,,,,,,,,,,,,,,,,,,,,,,,,,,4,1.933,1,,,,,,,,,,,,0,131,5,5,1950,2178,absent_patch/patch0001950.jpg,absent_patch/patch0002178.jpg,,,,,,,,,,,,,,,,,,,,0.095833333,-0.147222222,1,0,0,response3disk,7,-0.004166667,0.009722222,1,0,0,center_square,0,6,6,61,1,,,,,,,,,,,,,,,,,,,,,,,
387355,001,2022-11-21_00h53.00.828,Info_measure_main_exp,2022.2.2,Win32,60.0240096,,,,,,,,,,,,,,,,,,masks/mask_001.jpg,,,,,,,,,,,,,,,,,,,,,,,,,,,,,,,,,,,,,,,,,,,0,0,0,0,1,,,,,,,,,,,,,,,,,,,,,,,,,,,,,,,,,,,,,,,,,,,,,,
387355,001,2022-11-21_00h53.00.828,Info_measure_main_exp,2022.2.2,Win32,60.0240096,,,,,,,,,,,,,,,,,,masks/mask_003.jpg,,,,,,,,,,,,,,,,,,,,,,,,,,,,,,,,,,,,,,,,,,,0,1,1,2,1,,,,,,,,,,,,,,,,,,,,,,,,,,,,,,,,,,,,,,,,,,,,,,
387355,001,2022-11-21_00h53.00.828,Info_measure_main_exp,2022.2.2,Win32,60.0240096,,,,,,,,,,,,,,,,,,masks/mask_005.jpg,,,,,,,,,,,,,,,,,,,,,,,,,,,,,,,,,,,,,,,,,,,0,2,2,4,1,,,,,,,,,,,,,,,,,,,,,,,,,,,,,,,,,,,,,,,,,,,,,,
387355,001,2022-11-21_00h53.00.828,Info_measure_main_exp,2022.2.2,Win32,60.0240096,,,,,,,,,,,,,,,,,,masks/mask_002.jpg,,,,,,,,,,,,,,,,,,,,,,,,,,,,,,,,,,,,,,,,,,,0,3,3,1,1,,,,,,,,,,,,,,,,,,,,,,,,,,,,,,,,,,,,,,,,,,,,,,
387355,001,2022-11-21_00h53.00.828,Info_measure_main_exp,2022.2.2,Win32,60.0240096,,,,,,,,,,,,,,,,,,masks/mask_004.jpg,,,,,,,,,,,,,,,,,,,,,,,,,,,,,,,,,,,,,,,,,,,0,4,4,3,1,,,,,,,,,,,,,,,,,,,,,,,,,,,,,,,,,,,,,,,,,,,,,,
387355,001,2022-11-21_00h53.00.828,Info_measure_main_exp,2022.2.2,Win32,60.0240096,,,,,,,,,,,,,,,,,,masks/mask_004.jpg,,,,,,,,,,,,,,,,,,,,,,,,,,,,,,,,,,,,,,,,,,,,,,,,0,0,0,3,1,,,,,,,,,,,,,,,,,,,,,,,,,,,,,,,,,,,,,,,,,
387355,001,2022-11-21_00h53.00.828,Info_measure_main_exp,2022.2.2,Win32,60.0240096,,,,,,,,,,,,,,,,,,masks/mask_002.jpg,,,,,,,,,,,,,,,,,,,,,,,,,,,,,,,,,,,,,,,,,,,,,,,,0,1,1,1,1,,,,,,,,,,,,,,,,,,,,,,,,,,,,,,,,,,,,,,,,,
387355,001,2022-11-21_00h53.00.828,Info_measure_main_exp,2022.2.2,Win32,60.0240096,,,,,,,,,,,,,,,,,,masks/mask_003.jpg,,,,,,,,,,,,,,,,,,,,,,,,,,,,,,,,,,,,,,,,,,,,,,,,0,2,2,2,1,,,,,,,,,,,,,,,,,,,,,,,,,,,,,,,,,,,,,,,,,
387355,001,2022-11-21_00h53.00.828,Info_measure_main_exp,2022.2.2,Win32,60.0240096,,,,,,,,,,,,,,,,,,masks/mask_001.jpg,,,,,,,,,,,,,,,,,,,,,,,,,,,,,,,,,,,,,,,,,,,,,,,,0,3,3,0,1,,,,,,,,,,,,,,,,,,,,,,,,,,,,,,,,,,,,,,,,,
387355,001,2022-11-21_00h53.00.828,Info_measure_main_exp,2022.2.2,Win32,60.0240096,,,,,,,,,,,,,,,,,,masks/mask_005.jpg,,,,,,,,,,,,,,,,,,,,,,,,,,,,,,,,,,,,,,,,,,,,,,,,0,4,4,4,1,,,,,,,,,,,,,,,,,,,,,,,,,,,,,,,,,,,,,,,,,
387355,001,2022-11-21_00h53.00.828,Info_measure_main_exp,2022.2.2,Win32,60.0240096,,,,,,,,,,,,,,,,,,,,,,,,,,,,,,6,1.699,1,,,,,,,,,,,,0,131,5,5,2190,2178,absent_patch/patch0002190.jpg,absent_patch/patch0002178.jpg,,,,,,,,,,,,,,,,,,,,0.141666667,0.044444444,1,0,0,response1disk,8,0.001388889,-0.002777778,1,0,0,center_square,0,7,7,14,1,,,,,,,,,,,,,,,,,,,,,,,
387355,001,2022-11-21_00h53.00.828,Info_measure_main_exp,2022.2.2,Win32,60.0240096,,,,,,,,,,,,,,,,,,masks/mask_004.jpg,,,,,,,,,,,,,,,,,,,,,,,,,,,,,,,,,,,,,,,,,,,0,0,0,3,1,,,,,,,,,,,,,,,,,,,,,,,,,,,,,,,,,,,,,,,,,,,,,,
387355,001,2022-11-21_00h53.00.828,Info_measure_main_exp,2022.2.2,Win32,60.0240096,,,,,,,,,,,,,,,,,,masks/mask_001.jpg,,,,,,,,,,,,,,,,,,,,,,,,,,,,,,,,,,,,,,,,,,,0,1,1,0,1,,,,,,,,,,,,,,,,,,,,,,,,,,,,,,,,,,,,,,,,,,,,,,
387355,001,2022-11-21_00h53.00.828,Info_measure_main_exp,2022.2.2,Win32,60.0240096,,,,,,,,,,,,,,,,,,masks/mask_003.jpg,,,,,,,,,,,,,,,,,,,,,,,,,,,,,,,,,,,,,,,,,,,0,2,2,2,1,,,,,,,,,,,,,,,,,,,,,,,,,,,,,,,,,,,,,,,,,,,,,,
387355,001,2022-11-21_00h53.00.828,Info_measure_main_exp,2022.2.2,Win32,60.0240096,,,,,,,,,,,,,,,,,,masks/mask_002.jpg,,,,,,,,,,,,,,,,,,,,,,,,,,,,,,,,,,,,,,,,,,,0,3,3,1,1,,,,,,,,,,,,,,,,,,,,,,,,,,,,,,,,,,,,,,,,,,,,,,
387355,001,2022-11-21_00h53.00.828,Info_measure_main_exp,2022.2.2,Win32,60.0240096,,,,,,,,,,,,,,,,,,masks/mask_005.jpg,,,,,,,,,,,,,,,,,,,,,,,,,,,,,,,,,,,,,,,,,,,0,4,4,4,1,,,,,,,,,,,,,,,,,,,,,,,,,,,,,,,,,,,,,,,,,,,,,,
387355,001,2022-11-21_00h53.00.828,Info_measure_main_exp,2022.2.2,Win32,60.0240096,,,,,,,,,,,,,,,,,,masks/mask_001.jpg,,,,,,,,,,,,,,,,,,,,,,,,,,,,,,,,,,,,,,,,,,,,,,,,0,0,0,0,1,,,,,,,,,,,,,,,,,,,,,,,,,,,,,,,,,,,,,,,,,
387355,001,2022-11-21_00h53.00.828,Info_measure_main_exp,2022.2.2,Win32,60.0240096,,,,,,,,,,,,,,,,,,masks/mask_004.jpg,,,,,,,,,,,,,,,,,,,,,,,,,,,,,,,,,,,,,,,,,,,,,,,,0,1,1,3,1,,,,,,,,,,,,,,,,,,,,,,,,,,,,,,,,,,,,,,,,,
387355,001,2022-11-21_00h53.00.828,Info_measure_main_exp,2022.2.2,Win32,60.0240096,,,,,,,,,,,,,,,,,,masks/mask_005.jpg,,,,,,,,,,,,,,,,,,,,,,,,,,,,,,,,,,,,,,,,,,,,,,,,0,2,2,4,1,,,,,,,,,,,,,,,,,,,,,,,,,,,,,,,,,,,,,,,,,
387355,001,2022-11-21_00h53.00.828,Info_measure_main_exp,2022.2.2,Win32,60.0240096,,,,,,,,,,,,,,,,,,masks/mask_002.jpg,,,,,,,,,,,,,,,,,,,,,,,,,,,,,,,,,,,,,,,,,,,,,,,,0,3,3,1,1,,,,,,,,,,,,,,,,,,,,,,,,,,,,,,,,,,,,,,,,,
387355,001,2022-11-21_00h53.00.828,Info_measure_main_exp,2022.2.2,Win32,60.0240096,,,,,,,,,,,,,,,,,,masks/mask_003.jpg,,,,,,,,,,,,,,,,,,,,,,,,,,,,,,,,,,,,,,,,,,,,,,,,0,4,4,2,1,,,,,,,,,,,,,,,,,,,,,,,,,,,,,,,,,,,,,,,,,
387355,001,2022-11-21_00h53.00.828,Info_measure_main_exp,2022.2.2,Win32,60.0240096,,,,,,,,,,,,,,,,,,,,,,,,,,,,,,7,0.85,1,,,,,,,,,,,,1,131,5,5,2190,1,absent_patch/patch0002190.jpg,present_patch/cong_131_5_a.jpg,,,,,,,,,,,,,,,,,,,,0.080555556,0.154166667,1,0,0,response1disk,9,-0.005555556,0,1,0,0,center_square,0,8,8,64,1,,,,,,,,,,,,,,,,,,,,,,,
387355,001,2022-11-21_00h53.00.828,Info_measure_main_exp,2022.2.2,Win32,60.0240096,,,,,,,,,,,,,,,,,,masks/mask_002.jpg,,,,,,,,,,,,,,,,,,,,,,,,,,,,,,,,,,,,,,,,,,,0,0,0,1,1,,,,,,,,,,,,,,,,,,,,,,,,,,,,,,,,,,,,,,,,,,,,,,
387355,001,2022-11-21_00h53.00.828,Info_measure_main_exp,2022.2.2,Win32,60.0240096,,,,,,,,,,,,,,,,,,masks/mask_003.jpg,,,,,,,,,,,,,,,,,,,,,,,,,,,,,,,,,,,,,,,,,,,0,1,1,2,1,,,,,,,,,,,,,,,,,,,,,,,,,,,,,,,,,,,,,,,,,,,,,,
387355,001,2022-11-21_00h53.00.828,Info_measure_main_exp,2022.2.2,Win32,60.0240096,,,,,,,,,,,,,,,,,,masks/mask_005.jpg,,,,,,,,,,,,,,,,,,,,,,,,,,,,,,,,,,,,,,,,,,,0,2,2,4,1,,,,,,,,,,,,,,,,,,,,,,,,,,,,,,,,,,,,,,,,,,,,,,
387355,001,2022-11-21_00h53.00.828,Info_measure_main_exp,2022.2.2,Win32,60.0240096,,,,,,,,,,,,,,,,,,masks/mask_004.jpg,,,,,,,,,,,,,,,,,,,,,,,,,,,,,,,,,,,,,,,,,,,0,3,3,3,1,,,,,,,,,,,,,,,,,,,,,,,,,,,,,,,,,,,,,,,,,,,,,,
387355,001,2022-11-21_00h53.00.828,Info_measure_main_exp,2022.2.2,Win32,60.0240096,,,,,,,,,,,,,,,,,,masks/mask_001.jpg,,,,,,,,,,,,,,,,,,,,,,,,,,,,,,,,,,,,,,,,,,,0,4,4,0,1,,,,,,,,,,,,,,,,,,,,,,,,,,,,,,,,,,,,,,,,,,,,,,
387355,001,2022-11-21_00h53.00.828,Info_measure_main_exp,2022.2.2,Win32,60.0240096,,,,,,,,,,,,,,,,,,masks/mask_004.jpg,,,,,,,,,,,,,,,,,,,,,,,,,,,,,,,,,,,,,,,,,,,,,,,,0,0,0,3,1,,,,,,,,,,,,,,,,,,,,,,,,,,,,,,,,,,,,,,,,,
387355,001,2022-11-21_00h53.00.828,Info_measure_main_exp,2022.2.2,Win32,60.0240096,,,,,,,,,,,,,,,,,,masks/mask_003.jpg,,,,,,,,,,,,,,,,,,,,,,,,,,,,,,,,,,,,,,,,,,,,,,,,0,1,1,2,1,,,,,,,,,,,,,,,,,,,,,,,,,,,,,,,,,,,,,,,,,
387355,001,2022-11-21_00h53.00.828,Info_measure_main_exp,2022.2.2,Win32,60.0240096,,,,,,,,,,,,,,,,,,masks/mask_005.jpg,,,,,,,,,,,,,,,,,,,,,,,,,,,,,,,,,,,,,,,,,,,,,,,,0,2,2,4,1,,,,,,,,,,,,,,,,,,,,,,,,,,,,,,,,,,,,,,,,,
387355,001,2022-11-21_00h53.00.828,Info_measure_main_exp,2022.2.2,Win32,60.0240096,,,,,,,,,,,,,,,,,,masks/mask_002.jpg,,,,,,,,,,,,,,,,,,,,,,,,,,,,,,,,,,,,,,,,,,,,,,,,0,3,3,1,1,,,,,,,,,,,,,,,,,,,,,,,,,,,,,,,,,,,,,,,,,
387355,001,2022-11-21_00h53.00.828,Info_measure_main_exp,2022.2.2,Win32,60.0240096,,,,,,,,,,,,,,,,,,masks/mask_001.jpg,,,,,,,,,,,,,,,,,,,,,,,,,,,,,,,,,,,,,,,,,,,,,,,,0,4,4,0,1,,,,,,,,,,,,,,,,,,,,,,,,,,,,,,,,,,,,,,,,,
387355,001,2022-11-21_00h53.00.828,Info_measure_main_exp,2022.2.2,Win32,60.0240096,,,,,,,,,,,,,,,,,,,,,,,,,,,,,,4,2.033,1,,,,,,,,,,,,0,131,5,5,2082,1974,absent_patch/patch0002082.jpg,absent_patch/patch0001974.jpg,,,,,,,,,,,,,,,,,,,,0.088888889,-0.105555556,1,0,0,response3disk,10,0.002777778,-0.008333333,1,0,0,center_square,0,9,9,26,1,,,,,,,,,,,,,,,,,,,,,,,
387355,001,2022-11-21_00h53.00.828,Info_measure_main_exp,2022.2.2,Win32,60.0240096,,,,,,,,,,,,,,,,,,masks/mask_005.jpg,,,,,,,,,,,,,,,,,,,,,,,,,,,,,,,,,,,,,,,,,,,0,0,0,4,1,,,,,,,,,,,,,,,,,,,,,,,,,,,,,,,,,,,,,,,,,,,,,,
387355,001,2022-11-21_00h53.00.828,Info_measure_main_exp,2022.2.2,Win32,60.0240096,,,,,,,,,,,,,,,,,,masks/mask_004.jpg,,,,,,,,,,,,,,,,,,,,,,,,,,,,,,,,,,,,,,,,,,,0,1,1,3,1,,,,,,,,,,,,,,,,,,,,,,,,,,,,,,,,,,,,,,,,,,,,,,
387355,001,2022-11-21_00h53.00.828,Info_measure_main_exp,2022.2.2,Win32,60.0240096,,,,,,,,,,,,,,,,,,masks/mask_003.jpg,,,,,,,,,,,,,,,,,,,,,,,,,,,,,,,,,,,,,,,,,,,0,2,2,2,1,,,,,,,,,,,,,,,,,,,,,,,,,,,,,,,,,,,,,,,,,,,,,,
387355,001,2022-11-21_00h53.00.828,Info_measure_main_exp,2022.2.2,Win32,60.0240096,,,,,,,,,,,,,,,,,,masks/mask_001.jpg,,,,,,,,,,,,,,,,,,,,,,,,,,,,,,,,,,,,,,,,,,,0,3,3,0,1,,,,,,,,,,,,,,,,,,,,,,,,,,,,,,,,,,,,,,,,,,,,,,
387355,001,2022-11-21_00h53.00.828,Info_measure_main_exp,2022.2.2,Win32,60.0240096,,,,,,,,,,,,,,,,,,masks/mask_002.jpg,,,,,,,,,,,,,,,,,,,,,,,,,,,,,,,,,,,,,,,,,,,0,4,4,1,1,,,,,,,,,,,,,,,,,,,,,,,,,,,,,,,,,,,,,,,,,,,,,,
387355,001,2022-11-21_00h53.00.828,Info_measure_main_exp,2022.2.2,Win32,60.0240096,,,,,,,,,,,,,,,,,,masks/mask_003.jpg,,,,,,,,,,,,,,,,,,,,,,,,,,,,,,,,,,,,,,,,,,,,,,,,0,0,0,2,1,,,,,,,,,,,,,,,,,,,,,,,,,,,,,,,,,,,,,,,,,
387355,001,2022-11-21_00h53.00.828,Info_measure_main_exp,2022.2.2,Win32,60.0240096,,,,,,,,,,,,,,,,,,masks/mask_002.jpg,,,,,,,,,,,,,,,,,,,,,,,,,,,,,,,,,,,,,,,,,,,,,,,,0,1,1,1,1,,,,,,,,,,,,,,,,,,,,,,,,,,,,,,,,,,,,,,,,,
387355,001,2022-11-21_00h53.00.828,Info_measure_main_exp,2022.2.2,Win32,60.0240096,,,,,,,,,,,,,,,,,,masks/mask_005.jpg,,,,,,,,,,,,,,,,,,,,,,,,,,,,,,,,,,,,,,,,,,,,,,,,0,2,2,4,1,,,,,,,,,,,,,,,,,,,,,,,,,,,,,,,,,,,,,,,,,
387355,001,2022-11-21_00h53.00.828,Info_measure_main_exp,2022.2.2,Win32,60.0240096,,,,,,,,,,,,,,,,,,masks/mask_004.jpg,,,,,,,,,,,,,,,,,,,,,,,,,,,,,,,,,,,,,,,,,,,,,,,,0,3,3,3,1,,,,,,,,,,,,,,,,,,,,,,,,,,,,,,,,,,,,,,,,,
387355,001,2022-11-21_00h53.00.828,Info_measure_main_exp,2022.2.2,Win32,60.0240096,,,,,,,,,,,,,,,,,,masks/mask_001.jpg,,,,,,,,,,,,,,,,,,,,,,,,,,,,,,,,,,,,,,,,,,,,,,,,0,4,4,0,1,,,,,,,,,,,,,,,,,,,,,,,,,,,,,,,,,,,,,,,,,
387355,001,2022-11-21_00h53.00.828,Info_measure_main_exp,2022.2.2,Win32,60.0240096,,,,,,,,,,,,,,,,,,,,,,,,,,,,,,5,1.468,1,,,,,,,,,,,,0,131,5,5,2298,2214,absent_patch/patch0002298.jpg,absent_patch/patch0002214.jpg,,,,,,,,,,,,,,,,,,,,0.097222222,-0.038888889,1,0,0,response3disk,11,0.006944444,-0.004166667,1,0,0,center_square,0,10,10,99,1,,,,,,,,,,,,,,,,,,,,,,,
387355,001,2022-11-21_00h53.00.828,Info_measure_main_exp,2022.2.2,Win32,60.0240096,,,,,,,,,,,,,,,,,,masks/mask_002.jpg,,,,,,,,,,,,,,,,,,,,,,,,,,,,,,,,,,,,,,,,,,,0,0,0,1,1,,,,,,,,,,,,,,,,,,,,,,,,,,,,,,,,,,,,,,,,,,,,,,
387355,001,2022-11-21_00h53.00.828,Info_measure_main_exp,2022.2.2,Win32,60.0240096,,,,,,,,,,,,,,,,,,masks/mask_003.jpg,,,,,,,,,,,,,,,,,,,,,,,,,,,,,,,,,,,,,,,,,,,0,1,1,2,1,,,,,,,,,,,,,,,,,,,,,,,,,,,,,,,,,,,,,,,,,,,,,,
387355,001,2022-11-21_00h53.00.828,Info_measure_main_exp,2022.2.2,Win32,60.0240096,,,,,,,,,,,,,,,,,,masks/mask_005.jpg,,,,,,,,,,,,,,,,,,,,,,,,,,,,,,,,,,,,,,,,,,,0,2,2,4,1,,,,,,,,,,,,,,,,,,,,,,,,,,,,,,,,,,,,,,,,,,,,,,
387355,001,2022-11-21_00h53.00.828,Info_measure_main_exp,2022.2.2,Win32,60.0240096,,,,,,,,,,,,,,,,,,masks/mask_004.jpg,,,,,,,,,,,,,,,,,,,,,,,,,,,,,,,,,,,,,,,,,,,0,3,3,3,1,,,,,,,,,,,,,,,,,,,,,,,,,,,,,,,,,,,,,,,,,,,,,,
387355,001,2022-11-21_00h53.00.828,Info_measure_main_exp,2022.2.2,Win32,60.0240096,,,,,,,,,,,,,,,,,,masks/mask_001.jpg,,,,,,,,,,,,,,,,,,,,,,,,,,,,,,,,,,,,,,,,,,,0,4,4,0,1,,,,,,,,,,,,,,,,,,,,,,,,,,,,,,,,,,,,,,,,,,,,,,
387355,001,2022-11-21_00h53.00.828,Info_measure_main_exp,2022.2.2,Win32,60.0240096,,,,,,,,,,,,,,,,,,masks/mask_005.jpg,,,,,,,,,,,,,,,,,,,,,,,,,,,,,,,,,,,,,,,,,,,,,,,,0,0,0,4,1,,,,,,,,,,,,,,,,,,,,,,,,,,,,,,,,,,,,,,,,,
387355,001,2022-11-21_00h53.00.828,Info_measure_main_exp,2022.2.2,Win32,60.0240096,,,,,,,,,,,,,,,,,,masks/mask_004.jpg,,,,,,,,,,,,,,,,,,,,,,,,,,,,,,,,,,,,,,,,,,,,,,,,0,1,1,3,1,,,,,,,,,,,,,,,,,,,,,,,,,,,,,,,,,,,,,,,,,
387355,001,2022-11-21_00h53.00.828,Info_measure_main_exp,2022.2.2,Win32,60.0240096,,,,,,,,,,,,,,,,,,masks/mask_003.jpg,,,,,,,,,,,,,,,,,,,,,,,,,,,,,,,,,,,,,,,,,,,,,,,,0,2,2,2,1,,,,,,,,,,,,,,,,,,,,,,,,,,,,,,,,,,,,,,,,,
387355,001,2022-11-21_00h53.00.828,Info_measure_main_exp,2022.2.2,Win32,60.0240096,,,,,,,,,,,,,,,,,,masks/mask_002.jpg,,,,,,,,,,,,,,,,,,,,,,,,,,,,,,,,,,,,,,,,,,,,,,,,0,3,3,1,1,,,,,,,,,,,,,,,,,,,,,,,,,,,,,,,,,,,,,,,,,
387355,001,2022-11-21_00h53.00.828,Info_measure_main_exp,2022.2.2,Win32,60.0240096,,,,,,,,,,,,,,,,,,masks/mask_001.jpg,,,,,,,,,,,,,,,,,,,,,,,,,,,,,,,,,,,,,,,,,,,,,,,,0,4,4,0,1,,,,,,,,,,,,,,,,,,,,,,,,,,,,,,,,,,,,,,,,,
387355,001,2022-11-21_00h53.00.828,Info_measure_main_exp,2022.2.2,Win32,60.0240096,,,,,,,,,,,,,,,,,,,,,,,,,,,,,,7,1.65,1,,,,,,,,,,,,0,131,5,5,1950,2082,absent_patch/patch0001950.jpg,absent_patch/patch0002082.jpg,,,,,,,,,,,,,,,,,,,,0.059722222,0.111111111,1,0,0,response1disk,12,0.009722222,-0.004166667,1,0,0,center_square,0,11,11,12,1,,,,,,,,,,,,,,,,,,,,,,,
387355,001,2022-11-21_00h53.00.828,Info_measure_main_exp,2022.2.2,Win32,60.0240096,,,,,,,,,,,,,,,,,,masks/mask_001.jpg,,,,,,,,,,,,,,,,,,,,,,,,,,,,,,,,,,,,,,,,,,,0,0,0,0,1,,,,,,,,,,,,,,,,,,,,,,,,,,,,,,,,,,,,,,,,,,,,,,
387355,001,2022-11-21_00h53.00.828,Info_measure_main_exp,2022.2.2,Win32,60.0240096,,,,,,,,,,,,,,,,,,masks/mask_004.jpg,,,,,,,,,,,,,,,,,,,,,,,,,,,,,,,,,,,,,,,,,,,0,1,1,3,1,,,,,,,,,,,,,,,,,,,,,,,,,,,,,,,,,,,,,,,,,,,,,,
387355,001,2022-11-21_00h53.00.828,Info_measure_main_exp,2022.2.2,Win32,60.0240096,,,,,,,,,,,,,,,,,,masks/mask_002.jpg,,,,,,,,,,,,,,,,,,,,,,,,,,,,,,,,,,,,,,,,,,,0,2,2,1,1,,,,,,,,,,,,,,,,,,,,,,,,,,,,,,,,,,,,,,,,,,,,,,
387355,001,2022-11-21_00h53.00.828,Info_measure_main_exp,2022.2.2,Win32,60.0240096,,,,,,,,,,,,,,,,,,masks/mask_005.jpg,,,,,,,,,,,,,,,,,,,,,,,,,,,,,,,,,,,,,,,,,,,0,3,3,4,1,,,,,,,,,,,,,,,,,,,,,,,,,,,,,,,,,,,,,,,,,,,,,,
387355,001,2022-11-21_00h53.00.828,Info_measure_main_exp,2022.2.2,Win32,60.0240096,,,,,,,,,,,,,,,,,,masks/mask_003.jpg,,,,,,,,,,,,,,,,,,,,,,,,,,,,,,,,,,,,,,,,,,,0,4,4,2,1,,,,,,,,,,,,,,,,,,,,,,,,,,,,,,,,,,,,,,,,,,,,,,
387355,001,2022-11-21_00h53.00.828,Info_measure_main_exp,2022.2.2,Win32,60.0240096,,,,,,,,,,,,,,,,,,masks/mask_004.jpg,,,,,,,,,,,,,,,,,,,,,,,,,,,,,,,,,,,,,,,,,,,,,,,,0,0,0,3,1,,,,,,,,,,,,,,,,,,,,,,,,,,,,,,,,,,,,,,,,,
387355,001,2022-11-21_00h53.00.828,Info_measure_main_exp,2022.2.2,Win32,60.0240096,,,,,,,,,,,,,,,,,,masks/mask_003.jpg,,,,,,,,,,,,,,,,,,,,,,,,,,,,,,,,,,,,,,,,,,,,,,,,0,1,1,2,1,,,,,,,,,,,,,,,,,,,,,,,,,,,,,,,,,,,,,,,,,
387355,001,2022-11-21_00h53.00.828,Info_measure_main_exp,2022.2.2,Win32,60.0240096,,,,,,,,,,,,,,,,,,masks/mask_002.jpg,,,,,,,,,,,,,,,,,,,,,,,,,,,,,,,,,,,,,,,,,,,,,,,,0,2,2,1,1,,,,,,,,,,,,,,,,,,,,,,,,,,,,,,,,,,,,,,,,,
387355,001,2022-11-21_00h53.00.828,Info_measure_main_exp,2022.2.2,Win32,60.0240096,,,,,,,,,,,,,,,,,,masks/mask_005.jpg,,,,,,,,,,,,,,,,,,,,,,,,,,,,,,,,,,,,,,,,,,,,,,,,0,3,3,4,1,,,,,,,,,,,,,,,,,,,,,,,,,,,,,,,,,,,,,,,,,
387355,001,2022-11-21_00h53.00.828,Info_measure_main_exp,2022.2.2,Win32,60.0240096,,,,,,,,,,,,,,,,,,masks/mask_001.jpg,,,,,,,,,,,,,,,,,,,,,,,,,,,,,,,,,,,,,,,,,,,,,,,,0,4,4,0,1,,,,,,,,,,,,,,,,,,,,,,,,,,,,,,,,,,,,,,,,,
387355,001,2022-11-21_00h53.00.828,Info_measure_main_exp,2022.2.2,Win32,60.0240096,,,,,,,,,,,,,,,,,,,,,,,,,,,,,,5,1.167,1,,,,,,,,,,,,0,131,5,5,2142,2082,absent_patch/patch0002142.jpg,absent_patch/patch0002082.jpg,,,,,,,,,,,,,,,,,,,,0.119444444,-0.054166667,1,0,0,response3disk,13,-0.008333333,0.001388889,1,0,0,center_square,0,12,12,88,1,,,,,,,,,,,,,,,,,,,,,,,
387355,001,2022-11-21_00h53.00.828,Info_measure_main_exp,2022.2.2,Win32,60.0240096,,,,,,,,,,,,,,,,,,masks/mask_005.jpg,,,,,,,,,,,,,,,,,,,,,,,,,,,,,,,,,,,,,,,,,,,0,0,0,4,1,,,,,,,,,,,,,,,,,,,,,,,,,,,,,,,,,,,,,,,,,,,,,,
387355,001,2022-11-21_00h53.00.828,Info_measure_main_exp,2022.2.2,Win32,60.0240096,,,,,,,,,,,,,,,,,,masks/mask_003.jpg,,,,,,,,,,,,,,,,,,,,,,,,,,,,,,,,,,,,,,,,,,,0,1,1,2,1,,,,,,,,,,,,,,,,,,,,,,,,,,,,,,,,,,,,,,,,,,,,,,
387355,001,2022-11-21_00h53.00.828,Info_measure_main_exp,2022.2.2,Win32,60.0240096,,,,,,,,,,,,,,,,,,masks/mask_004.jpg,,,,,,,,,,,,,,,,,,,,,,,,,,,,,,,,,,,,,,,,,,,0,2,2,3,1,,,,,,,,,,,,,,,,,,,,,,,,,,,,,,,,,,,,,,,,,,,,,,
387355,001,2022-11-21_00h53.00.828,Info_measure_main_exp,2022.2.2,Win32,60.0240096,,,,,,,,,,,,,,,,,,masks/mask_002.jpg,,,,,,,,,,,,,,,,,,,,,,,,,,,,,,,,,,,,,,,,,,,0,3,3,1,1,,,,,,,,,,,,,,,,,,,,,,,,,,,,,,,,,,,,,,,,,,,,,,
387355,001,2022-11-21_00h53.00.828,Info_measure_main_exp,2022.2.2,Win32,60.0240096,,,,,,,,,,,,,,,,,,masks/mask_001.jpg,,,,,,,,,,,,,,,,,,,,,,,,,,,,,,,,,,,,,,,,,,,0,4,4,0,1,,,,,,,,,,,,,,,,,,,,,,,,,,,,,,,,,,,,,,,,,,,,,,
387355,001,2022-11-21_00h53.00.828,Info_measure_main_exp,2022.2.2,Win32,60.0240096,,,,,,,,,,,,,,,,,,masks/mask_001.jpg,,,,,,,,,,,,,,,,,,,,,,,,,,,,,,,,,,,,,,,,,,,,,,,,0,0,0,0,1,,,,,,,,,,,,,,,,,,,,,,,,,,,,,,,,,,,,,,,,,
387355,001,2022-11-21_00h53.00.828,Info_measure_main_exp,2022.2.2,Win32,60.0240096,,,,,,,,,,,,,,,,,,masks/mask_003.jpg,,,,,,,,,,,,,,,,,,,,,,,,,,,,,,,,,,,,,,,,,,,,,,,,0,1,1,2,1,,,,,,,,,,,,,,,,,,,,,,,,,,,,,,,,,,,,,,,,,
387355,001,2022-11-21_00h53.00.828,Info_measure_main_exp,2022.2.2,Win32,60.0240096,,,,,,,,,,,,,,,,,,masks/mask_004.jpg,,,,,,,,,,,,,,,,,,,,,,,,,,,,,,,,,,,,,,,,,,,,,,,,0,2,2,3,1,,,,,,,,,,,,,,,,,,,,,,,,,,,,,,,,,,,,,,,,,
387355,001,2022-11-21_00h53.00.828,Info_measure_main_exp,2022.2.2,Win32,60.0240096,,,,,,,,,,,,,,,,,,masks/mask_005.jpg,,,,,,,,,,,,,,,,,,,,,,,,,,,,,,,,,,,,,,,,,,,,,,,,0,3,3,4,1,,,,,,,,,,,,,,,,,,,,,,,,,,,,,,,,,,,,,,,,,
387355,001,2022-11-21_00h53.00.828,Info_measure_main_exp,2022.2.2,Win32,60.0240096,,,,,,,,,,,,,,,,,,masks/mask_002.jpg,,,,,,,,,,,,,,,,,,,,,,,,,,,,,,,,,,,,,,,,,,,,,,,,0,4,4,1,1,,,,,,,,,,,,,,,,,,,,,,,,,,,,,,,,,,,,,,,,,
387355,001,2022-11-21_00h53.00.828,Info_measure_main_exp,2022.2.2,Win32,60.0240096,,,,,,,,,,,,,,,,,,,,,,,,,,,,,,6,1.567,1,,,,,,,,,,,,1,131,5,5,1,1974,present_patch/cong_131_5_a.jpg,absent_patch/patch0001974.jpg,,,,,,,,,,,,,,,,,,,,0.106944444,0.104166667,1,0,0,response1disk,14,-0.001388889,-0.002777778,1,0,0,center_square,0,13,13,69,1,,,,,,,,,,,,,,,,,,,,,,,
387355,001,2022-11-21_00h53.00.828,Info_measure_main_exp,2022.2.2,Win32,60.0240096,,,,,,,,,,,,,,,,,,masks/mask_004.jpg,,,,,,,,,,,,,,,,,,,,,,,,,,,,,,,,,,,,,,,,,,,0,0,0,3,1,,,,,,,,,,,,,,,,,,,,,,,,,,,,,,,,,,,,,,,,,,,,,,
387355,001,2022-11-21_00h53.00.828,Info_measure_main_exp,2022.2.2,Win32,60.0240096,,,,,,,,,,,,,,,,,,masks/mask_003.jpg,,,,,,,,,,,,,,,,,,,,,,,,,,,,,,,,,,,,,,,,,,,0,1,1,2,1,,,,,,,,,,,,,,,,,,,,,,,,,,,,,,,,,,,,,,,,,,,,,,
387355,001,2022-11-21_00h53.00.828,Info_measure_main_exp,2022.2.2,Win32,60.0240096,,,,,,,,,,,,,,,,,,masks/mask_002.jpg,,,,,,,,,,,,,,,,,,,,,,,,,,,,,,,,,,,,,,,,,,,0,2,2,1,1,,,,,,,,,,,,,,,,,,,,,,,,,,,,,,,,,,,,,,,,,,,,,,
387355,001,2022-11-21_00h53.00.828,Info_measure_main_exp,2022.2.2,Win32,60.0240096,,,,,,,,,,,,,,,,,,masks/mask_001.jpg,,,,,,,,,,,,,,,,,,,,,,,,,,,,,,,,,,,,,,,,,,,0,3,3,0,1,,,,,,,,,,,,,,,,,,,,,,,,,,,,,,,,,,,,,,,,,,,,,,
387355,001,2022-11-21_00h53.00.828,Info_measure_main_exp,2022.2.2,Win32,60.0240096,,,,,,,,,,,,,,,,,,masks/mask_005.jpg,,,,,,,,,,,,,,,,,,,,,,,,,,,,,,,,,,,,,,,,,,,0,4,4,4,1,,,,,,,,,,,,,,,,,,,,,,,,,,,,,,,,,,,,,,,,,,,,,,
387355,001,2022-11-21_00h53.00.828,Info_measure_main_exp,2022.2.2,Win32,60.0240096,,,,,,,,,,,,,,,,,,masks/mask_001.jpg,,,,,,,,,,,,,,,,,,,,,,,,,,,,,,,,,,,,,,,,,,,,,,,,0,0,0,0,1,,,,,,,,,,,,,,,,,,,,,,,,,,,,,,,,,,,,,,,,,
387355,001,2022-11-21_00h53.00.828,Info_measure_main_exp,2022.2.2,Win32,60.0240096,,,,,,,,,,,,,,,,,,masks/mask_005.jpg,,,,,,,,,,,,,,,,,,,,,,,,,,,,,,,,,,,,,,,,,,,,,,,,0,1,1,4,1,,,,,,,,,,,,,,,,,,,,,,,,,,,,,,,,,,,,,,,,,
387355,001,2022-11-21_00h53.00.828,Info_measure_main_exp,2022.2.2,Win32,60.0240096,,,,,,,,,,,,,,,,,,masks/mask_003.jpg,,,,,,,,,,,,,,,,,,,,,,,,,,,,,,,,,,,,,,,,,,,,,,,,0,2,2,2,1,,,,,,,,,,,,,,,,,,,,,,,,,,,,,,,,,,,,,,,,,
387355,001,2022-11-21_00h53.00.828,Info_measure_main_exp,2022.2.2,Win32,60.0240096,,,,,,,,,,,,,,,,,,masks/mask_002.jpg,,,,,,,,,,,,,,,,,,,,,,,,,,,,,,,,,,,,,,,,,,,,,,,,0,3,3,1,1,,,,,,,,,,,,,,,,,,,,,,,,,,,,,,,,,,,,,,,,,
387355,001,2022-11-21_00h53.00.828,Info_measure_main_exp,2022.2.2,Win32,60.0240096,,,,,,,,,,,,,,,,,,masks/mask_004.jpg,,,,,,,,,,,,,,,,,,,,,,,,,,,,,,,,,,,,,,,,,,,,,,,,0,4,4,3,1,,,,,,,,,,,,,,,,,,,,,,,,,,,,,,,,,,,,,,,,,
387355,001,2022-11-21_00h53.00.828,Info_measure_main_exp,2022.2.2,Win32,60.0240096,,,,,,,,,,,,,,,,,,,,,,,,,,,,,,7,0.868,1,,,,,,,,,,,,0,131,5,5,2154,2250,absent_patch/patch0002154.jpg,absent_patch/patch0002250.jpg,,,,,,,,,,,,,,,,,,,,0.034722222,0.134722222,1,0,0,response1disk,15,0.002777778,-0.001388889,1,0,0,center_square,0,14,14,108,1,,,,,,,,,,,,,,,,,,,,,,,
387355,001,2022-11-21_00h53.00.828,Info_measure_main_exp,2022.2.2,Win32,60.0240096,,,,,,,,,,,,,,,,,,masks/mask_004.jpg,,,,,,,,,,,,,,,,,,,,,,,,,,,,,,,,,,,,,,,,,,,0,0,0,3,1,,,,,,,,,,,,,,,,,,,,,,,,,,,,,,,,,,,,,,,,,,,,,,
387355,001,2022-11-21_00h53.00.828,Info_measure_main_exp,2022.2.2,Win32,60.0240096,,,,,,,,,,,,,,,,,,masks/mask_001.jpg,,,,,,,,,,,,,,,,,,,,,,,,,,,,,,,,,,,,,,,,,,,0,1,1,0,1,,,,,,,,,,,,,,,,,,,,,,,,,,,,,,,,,,,,,,,,,,,,,,
387355,001,2022-11-21_00h53.00.828,Info_measure_main_exp,2022.2.2,Win32,60.0240096,,,,,,,,,,,,,,,,,,masks/mask_005.jpg,,,,,,,,,,,,,,,,,,,,,,,,,,,,,,,,,,,,,,,,,,,0,2,2,4,1,,,,,,,,,,,,,,,,,,,,,,,,,,,,,,,,,,,,,,,,,,,,,,
387355,001,2022-11-21_00h53.00.828,Info_measure_main_exp,2022.2.2,Win32,60.0240096,,,,,,,,,,,,,,,,,,masks/mask_002.jpg,,,,,,,,,,,,,,,,,,,,,,,,,,,,,,,,,,,,,,,,,,,0,3,3,1,1,,,,,,,,,,,,,,,,,,,,,,,,,,,,,,,,,,,,,,,,,,,,,,
387355,001,2022-11-21_00h53.00.828,Info_measure_main_exp,2022.2.2,Win32,60.0240096,,,,,,,,,,,,,,,,,,masks/mask_003.jpg,,,,,,,,,,,,,,,,,,,,,,,,,,,,,,,,,,,,,,,,,,,0,4,4,2,1,,,,,,,,,,,,,,,,,,,,,,,,,,,,,,,,,,,,,,,,,,,,,,
387355,001,2022-11-21_00h53.00.828,Info_measure_main_exp,2022.2.2,Win32,60.0240096,,,,,,,,,,,,,,,,,,masks/mask_004.jpg,,,,,,,,,,,,,,,,,,,,,,,,,,,,,,,,,,,,,,,,,,,,,,,,0,0,0,3,1,,,,,,,,,,,,,,,,,,,,,,,,,,,,,,,,,,,,,,,,,
387355,001,2022-11-21_00h53.00.828,Info_measure_main_exp,2022.2.2,Win32,60.0240096,,,,,,,,,,,,,,,,,,masks/mask_005.jpg,,,,,,,,,,,,,,,,,,,,,,,,,,,,,,,,,,,,,,,,,,,,,,,,0,1,1,4,1,,,,,,,,,,,,,,,,,,,,,,,,,,,,,,,,,,,,,,,,,
387355,001,2022-11-21_00h53.00.828,Info_measure_main_exp,2022.2.2,Win32,60.0240096,,,,,,,,,,,,,,,,,,masks/mask_001.jpg,,,,,,,,,,,,,,,,,,,,,,,,,,,,,,,,,,,,,,,,,,,,,,,,0,2,2,0,1,,,,,,,,,,,,,,,,,,,,,,,,,,,,,,,,,,,,,,,,,
387355,001,2022-11-21_00h53.00.828,Info_measure_main_exp,2022.2.2,Win32,60.0240096,,,,,,,,,,,,,,,,,,masks/mask_003.jpg,,,,,,,,,,,,,,,,,,,,,,,,,,,,,,,,,,,,,,,,,,,,,,,,0,3,3,2,1,,,,,,,,,,,,,,,,,,,,,,,,,,,,,,,,,,,,,,,,,
387355,001,2022-11-21_00h53.00.828,Info_measure_main_exp,2022.2.2,Win32,60.0240096,,,,,,,,,,,,,,,,,,masks/mask_002.jpg,,,,,,,,,,,,,,,,,,,,,,,,,,,,,,,,,,,,,,,,,,,,,,,,0,4,4,1,1,,,,,,,,,,,,,,,,,,,,,,,,,,,,,,,,,,,,,,,,,
387355,001,2022-11-21_00h53.00.828,Info_measure_main_exp,2022.2.2,Win32,60.0240096,,,,,,,,,,,,,,,,,,,,,,,,,,,,,,3,1.1,1,,,,,,,,,,,,0,131,5,5,2190,2166,absent_patch/patch0002190.jpg,absent_patch/patch0002166.jpg,,,,,,,,,,,,,,,,,,,,-0.029166667,-0.0875,1,0,0,response5disk,16,0.001388889,0.008333333,1,0,0,center_square,0,15,15,50,1,,,,,,,,,,,,,,,,,,,,,,,
387355,001,2022-11-21_00h53.00.828,Info_measure_main_exp,2022.2.2,Win32,60.0240096,,,,,,,,,,,,,,,,,,masks/mask_005.jpg,,,,,,,,,,,,,,,,,,,,,,,,,,,,,,,,,,,,,,,,,,,0,0,0,4,1,,,,,,,,,,,,,,,,,,,,,,,,,,,,,,,,,,,,,,,,,,,,,,
387355,001,2022-11-21_00h53.00.828,Info_measure_main_exp,2022.2.2,Win32,60.0240096,,,,,,,,,,,,,,,,,,masks/mask_003.jpg,,,,,,,,,,,,,,,,,,,,,,,,,,,,,,,,,,,,,,,,,,,0,1,1,2,1,,,,,,,,,,,,,,,,,,,,,,,,,,,,,,,,,,,,,,,,,,,,,,
387355,001,2022-11-21_00h53.00.828,Info_measure_main_exp,2022.2.2,Win32,60.0240096,,,,,,,,,,,,,,,,,,masks/mask_004.jpg,,,,,,,,,,,,,,,,,,,,,,,,,,,,,,,,,,,,,,,,,,,0,2,2,3,1,,,,,,,,,,,,,,,,,,,,,,,,,,,,,,,,,,,,,,,,,,,,,,
387355,001,2022-11-21_00h53.00.828,Info_measure_main_exp,2022.2.2,Win32,60.0240096,,,,,,,,,,,,,,,,,,masks/mask_001.jpg,,,,,,,,,,,,,,,,,,,,,,,,,,,,,,,,,,,,,,,,,,,0,3,3,0,1,,,,,,,,,,,,,,,,,,,,,,,,,,,,,,,,,,,,,,,,,,,,,,
387355,001,2022-11-21_00h53.00.828,Info_measure_main_exp,2022.2.2,Win32,60.0240096,,,,,,,,,,,,,,,,,,masks/mask_002.jpg,,,,,,,,,,,,,,,,,,,,,,,,,,,,,,,,,,,,,,,,,,,0,4,4,1,1,,,,,,,,,,,,,,,,,,,,,,,,,,,,,,,,,,,,,,,,,,,,,,
387355,001,2022-11-21_00h53.00.828,Info_measure_main_exp,2022.2.2,Win32,60.0240096,,,,,,,,,,,,,,,,,,masks/mask_004.jpg,,,,,,,,,,,,,,,,,,,,,,,,,,,,,,,,,,,,,,,,,,,,,,,,0,0,0,3,1,,,,,,,,,,,,,,,,,,,,,,,,,,,,,,,,,,,,,,,,,
387355,001,2022-11-21_00h53.00.828,Info_measure_main_exp,2022.2.2,Win32,60.0240096,,,,,,,,,,,,,,,,,,masks/mask_003.jpg,,,,,,,,,,,,,,,,,,,,,,,,,,,,,,,,,,,,,,,,,,,,,,,,0,1,1,2,1,,,,,,,,,,,,,,,,,,,,,,,,,,,,,,,,,,,,,,,,,
387355,001,2022-11-21_00h53.00.828,Info_measure_main_exp,2022.2.2,Win32,60.0240096,,,,,,,,,,,,,,,,,,masks/mask_001.jpg,,,,,,,,,,,,,,,,,,,,,,,,,,,,,,,,,,,,,,,,,,,,,,,,0,2,2,0,1,,,,,,,,,,,,,,,,,,,,,,,,,,,,,,,,,,,,,,,,,
387355,001,2022-11-21_00h53.00.828,Info_measure_main_exp,2022.2.2,Win32,60.0240096,,,,,,,,,,,,,,,,,,masks/mask_005.jpg,,,,,,,,,,,,,,,,,,,,,,,,,,,,,,,,,,,,,,,,,,,,,,,,0,3,3,4,1,,,,,,,,,,,,,,,,,,,,,,,,,,,,,,,,,,,,,,,,,
387355,001,2022-11-21_00h53.00.828,Info_measure_main_exp,2022.2.2,Win32,60.0240096,,,,,,,,,,,,,,,,,,masks/mask_002.jpg,,,,,,,,,,,,,,,,,,,,,,,,,,,,,,,,,,,,,,,,,,,,,,,,0,4,4,1,1,,,,,,,,,,,,,,,,,,,,,,,,,,,,,,,,,,,,,,,,,
387355,001,2022-11-21_00h53.00.828,Info_measure_main_exp,2022.2.2,Win32,60.0240096,,,,,,,,,,,,,,,,,,,,,,,,,,,,,,0,2.067,1,,,,,,,,,,,,0,131,5,5,2250,2250,absent_patch/patch0002250.jpg,absent_patch/patch0002250.jpg,,,,,,,,,,,,,,,,,,,,-0.105555556,0.144444444,1,0,0,response7disk,17,0.002777778,0.001388889,1,0,0,center_square,0,16,16,56,1,,,,,,,,,,,,,,,,,,,,,,,
387355,001,2022-11-21_00h53.00.828,Info_measure_main_exp,2022.2.2,Win32,60.0240096,,,,,,,,,,,,,,,,,,masks/mask_003.jpg,,,,,,,,,,,,,,,,,,,,,,,,,,,,,,,,,,,,,,,,,,,0,0,0,2,1,,,,,,,,,,,,,,,,,,,,,,,,,,,,,,,,,,,,,,,,,,,,,,
387355,001,2022-11-21_00h53.00.828,Info_measure_main_exp,2022.2.2,Win32,60.0240096,,,,,,,,,,,,,,,,,,masks/mask_005.jpg,,,,,,,,,,,,,,,,,,,,,,,,,,,,,,,,,,,,,,,,,,,0,1,1,4,1,,,,,,,,,,,,,,,,,,,,,,,,,,,,,,,,,,,,,,,,,,,,,,
387355,001,2022-11-21_00h53.00.828,Info_measure_main_exp,2022.2.2,Win32,60.0240096,,,,,,,,,,,,,,,,,,masks/mask_001.jpg,,,,,,,,,,,,,,,,,,,,,,,,,,,,,,,,,,,,,,,,,,,0,2,2,0,1,,,,,,,,,,,,,,,,,,,,,,,,,,,,,,,,,,,,,,,,,,,,,,
387355,001,2022-11-21_00h53.00.828,Info_measure_main_exp,2022.2.2,Win32,60.0240096,,,,,,,,,,,,,,,,,,masks/mask_004.jpg,,,,,,,,,,,,,,,,,,,,,,,,,,,,,,,,,,,,,,,,,,,0,3,3,3,1,,,,,,,,,,,,,,,,,,,,,,,,,,,,,,,,,,,,,,,,,,,,,,
387355,001,2022-11-21_00h53.00.828,Info_measure_main_exp,2022.2.2,Win32,60.0240096,,,,,,,,,,,,,,,,,,masks/mask_002.jpg,,,,,,,,,,,,,,,,,,,,,,,,,,,,,,,,,,,,,,,,,,,0,4,4,1,1,,,,,,,,,,,,,,,,,,,,,,,,,,,,,,,,,,,,,,,,,,,,,,
387355,001,2022-11-21_00h53.00.828,Info_measure_main_exp,2022.2.2,Win32,60.0240096,,,,,,,,,,,,,,,,,,masks/mask_001.jpg,,,,,,,,,,,,,,,,,,,,,,,,,,,,,,,,,,,,,,,,,,,,,,,,0,0,0,0,1,,,,,,,,,,,,,,,,,,,,,,,,,,,,,,,,,,,,,,,,,
387355,001,2022-11-21_00h53.00.828,Info_measure_main_exp,2022.2.2,Win32,60.0240096,,,,,,,,,,,,,,,,,,masks/mask_004.jpg,,,,,,,,,,,,,,,,,,,,,,,,,,,,,,,,,,,,,,,,,,,,,,,,0,1,1,3,1,,,,,,,,,,,,,,,,,,,,,,,,,,,,,,,,,,,,,,,,,
387355,001,2022-11-21_00h53.00.828,Info_measure_main_exp,2022.2.2,Win32,60.0240096,,,,,,,,,,,,,,,,,,masks/mask_002.jpg,,,,,,,,,,,,,,,,,,,,,,,,,,,,,,,,,,,,,,,,,,,,,,,,0,2,2,1,1,,,,,,,,,,,,,,,,,,,,,,,,,,,,,,,,,,,,,,,,,
387355,001,2022-11-21_00h53.00.828,Info_measure_main_exp,2022.2.2,Win32,60.0240096,,,,,,,,,,,,,,,,,,masks/mask_005.jpg,,,,,,,,,,,,,,,,,,,,,,,,,,,,,,,,,,,,,,,,,,,,,,,,0,3,3,4,1,,,,,,,,,,,,,,,,,,,,,,,,,,,,,,,,,,,,,,,,,
387355,001,2022-11-21_00h53.00.828,Info_measure_main_exp,2022.2.2,Win32,60.0240096,,,,,,,,,,,,,,,,,,masks/mask_003.jpg,,,,,,,,,,,,,,,,,,,,,,,,,,,,,,,,,,,,,,,,,,,,,,,,0,4,4,2,1,,,,,,,,,,,,,,,,,,,,,,,,,,,,,,,,,,,,,,,,,
387355,001,2022-11-21_00h53.00.828,Info_measure_main_exp,2022.2.2,Win32,60.0240096,,,,,,,,,,,,,,,,,,,,,,,,,,,,,,0,0.584,1,,,,,,,,,,,,0,131,5,5,2238,2238,absent_patch/patch0002238.jpg,absent_patch/patch0002238.jpg,,,,,,,,,,,,,,,,,,,,-0.051388889,0.15,1,0,0,response7disk,18,0.004166667,0.0125,1,0,0,center_square,0,17,17,58,1,,,,,,,,,,,,,,,,,,,,,,,
387355,001,2022-11-21_00h53.00.828,Info_measure_main_exp,2022.2.2,Win32,60.0240096,,,,,,,,,,,,,,,,,,masks/mask_004.jpg,,,,,,,,,,,,,,,,,,,,,,,,,,,,,,,,,,,,,,,,,,,0,0,0,3,1,,,,,,,,,,,,,,,,,,,,,,,,,,,,,,,,,,,,,,,,,,,,,,
387355,001,2022-11-21_00h53.00.828,Info_measure_main_exp,2022.2.2,Win32,60.0240096,,,,,,,,,,,,,,,,,,masks/mask_001.jpg,,,,,,,,,,,,,,,,,,,,,,,,,,,,,,,,,,,,,,,,,,,0,1,1,0,1,,,,,,,,,,,,,,,,,,,,,,,,,,,,,,,,,,,,,,,,,,,,,,
387355,001,2022-11-21_00h53.00.828,Info_measure_main_exp,2022.2.2,Win32,60.0240096,,,,,,,,,,,,,,,,,,masks/mask_002.jpg,,,,,,,,,,,,,,,,,,,,,,,,,,,,,,,,,,,,,,,,,,,0,2,2,1,1,,,,,,,,,,,,,,,,,,,,,,,,,,,,,,,,,,,,,,,,,,,,,,
387355,001,2022-11-21_00h53.00.828,Info_measure_main_exp,2022.2.2,Win32,60.0240096,,,,,,,,,,,,,,,,,,masks/mask_003.jpg,,,,,,,,,,,,,,,,,,,,,,,,,,,,,,,,,,,,,,,,,,,0,3,3,2,1,,,,,,,,,,,,,,,,,,,,,,,,,,,,,,,,,,,,,,,,,,,,,,
387355,001,2022-11-21_00h53.00.828,Info_measure_main_exp,2022.2.2,Win32,60.0240096,,,,,,,,,,,,,,,,,,masks/mask_005.jpg,,,,,,,,,,,,,,,,,,,,,,,,,,,,,,,,,,,,,,,,,,,0,4,4,4,1,,,,,,,,,,,,,,,,,,,,,,,,,,,,,,,,,,,,,,,,,,,,,,
387355,001,2022-11-21_00h53.00.828,Info_measure_main_exp,2022.2.2,Win32,60.0240096,,,,,,,,,,,,,,,,,,masks/mask_005.jpg,,,,,,,,,,,,,,,,,,,,,,,,,,,,,,,,,,,,,,,,,,,,,,,,0,0,0,4,1,,,,,,,,,,,,,,,,,,,,,,,,,,,,,,,,,,,,,,,,,
387355,001,2022-11-21_00h53.00.828,Info_measure_main_exp,2022.2.2,Win32,60.0240096,,,,,,,,,,,,,,,,,,masks/mask_002.jpg,,,,,,,,,,,,,,,,,,,,,,,,,,,,,,,,,,,,,,,,,,,,,,,,0,1,1,1,1,,,,,,,,,,,,,,,,,,,,,,,,,,,,,,,,,,,,,,,,,
387355,001,2022-11-21_00h53.00.828,Info_measure_main_exp,2022.2.2,Win32,60.0240096,,,,,,,,,,,,,,,,,,masks/mask_003.jpg,,,,,,,,,,,,,,,,,,,,,,,,,,,,,,,,,,,,,,,,,,,,,,,,0,2,2,2,1,,,,,,,,,,,,,,,,,,,,,,,,,,,,,,,,,,,,,,,,,
387355,001,2022-11-21_00h53.00.828,Info_measure_main_exp,2022.2.2,Win32,60.0240096,,,,,,,,,,,,,,,,,,masks/mask_001.jpg,,,,,,,,,,,,,,,,,,,,,,,,,,,,,,,,,,,,,,,,,,,,,,,,0,3,3,0,1,,,,,,,,,,,,,,,,,,,,,,,,,,,,,,,,,,,,,,,,,
387355,001,2022-11-21_00h53.00.828,Info_measure_main_exp,2022.2.2,Win32,60.0240096,,,,,,,,,,,,,,,,,,masks/mask_004.jpg,,,,,,,,,,,,,,,,,,,,,,,,,,,,,,,,,,,,,,,,,,,,,,,,0,4,4,3,1,,,,,,,,,,,,,,,,,,,,,,,,,,,,,,,,,,,,,,,,,
387355,001,2022-11-21_00h53.00.828,Info_measure_main_exp,2022.2.2,Win32,60.0240096,,,,,,,,,,,,,,,,,,,,,,,,,,,,,,0,0.934,1,,,,,,,,,,,,0,131,5,5,2178,2178,absent_patch/patch0002178.jpg,absent_patch/patch0002178.jpg,,,,,,,,,,,,,,,,,,,,-0.119444444,0.151388889,1,0,0,response7disk,19,-0.005555556,0.005555556,1,0,0,center_square,0,18,18,98,1,,,,,,,,,,,,,,,,,,,,,,,
387355,001,2022-11-21_00h53.00.828,Info_measure_main_exp,2022.2.2,Win32,60.0240096,,,,,,,,,,,,,,,,,,masks/mask_002.jpg,,,,,,,,,,,,,,,,,,,,,,,,,,,,,,,,,,,,,,,,,,,0,0,0,1,1,,,,,,,,,,,,,,,,,,,,,,,,,,,,,,,,,,,,,,,,,,,,,,
387355,001,2022-11-21_00h53.00.828,Info_measure_main_exp,2022.2.2,Win32,60.0240096,,,,,,,,,,,,,,,,,,masks/mask_004.jpg,,,,,,,,,,,,,,,,,,,,,,,,,,,,,,,,,,,,,,,,,,,0,1,1,3,1,,,,,,,,,,,,,,,,,,,,,,,,,,,,,,,,,,,,,,,,,,,,,,
387355,001,2022-11-21_00h53.00.828,Info_measure_main_exp,2022.2.2,Win32,60.0240096,,,,,,,,,,,,,,,,,,masks/mask_003.jpg,,,,,,,,,,,,,,,,,,,,,,,,,,,,,,,,,,,,,,,,,,,0,2,2,2,1,,,,,,,,,,,,,,,,,,,,,,,,,,,,,,,,,,,,,,,,,,,,,,
387355,001,2022-11-21_00h53.00.828,Info_measure_main_exp,2022.2.2,Win32,60.0240096,,,,,,,,,,,,,,,,,,masks/mask_001.jpg,,,,,,,,,,,,,,,,,,,,,,,,,,,,,,,,,,,,,,,,,,,0,3,3,0,1,,,,,,,,,,,,,,,,,,,,,,,,,,,,,,,,,,,,,,,,,,,,,,
387355,001,2022-11-21_00h53.00.828,Info_measure_main_exp,2022.2.2,Win32,60.0240096,,,,,,,,,,,,,,,,,,masks/mask_005.jpg,,,,,,,,,,,,,,,,,,,,,,,,,,,,,,,,,,,,,,,,,,,0,4,4,4,1,,,,,,,,,,,,,,,,,,,,,,,,,,,,,,,,,,,,,,,,,,,,,,
387355,001,2022-11-21_00h53.00.828,Info_measure_main_exp,2022.2.2,Win32,60.0240096,,,,,,,,,,,,,,,,,,masks/mask_004.jpg,,,,,,,,,,,,,,,,,,,,,,,,,,,,,,,,,,,,,,,,,,,,,,,,0,0,0,3,1,,,,,,,,,,,,,,,,,,,,,,,,,,,,,,,,,,,,,,,,,
387355,001,2022-11-21_00h53.00.828,Info_measure_main_exp,2022.2.2,Win32,60.0240096,,,,,,,,,,,,,,,,,,masks/mask_001.jpg,,,,,,,,,,,,,,,,,,,,,,,,,,,,,,,,,,,,,,,,,,,,,,,,0,1,1,0,1,,,,,,,,,,,,,,,,,,,,,,,,,,,,,,,,,,,,,,,,,
387355,001,2022-11-21_00h53.00.828,Info_measure_main_exp,2022.2.2,Win32,60.0240096,,,,,,,,,,,,,,,,,,masks/mask_002.jpg,,,,,,,,,,,,,,,,,,,,,,,,,,,,,,,,,,,,,,,,,,,,,,,,0,2,2,1,1,,,,,,,,,,,,,,,,,,,,,,,,,,,,,,,,,,,,,,,,,
387355,001,2022-11-21_00h53.00.828,Info_measure_main_exp,2022.2.2,Win32,60.0240096,,,,,,,,,,,,,,,,,,masks/mask_005.jpg,,,,,,,,,,,,,,,,,,,,,,,,,,,,,,,,,,,,,,,,,,,,,,,,0,3,3,4,1,,,,,,,,,,,,,,,,,,,,,,,,,,,,,,,,,,,,,,,,,
387355,001,2022-11-21_00h53.00.828,Info_measure_main_exp,2022.2.2,Win32,60.0240096,,,,,,,,,,,,,,,,,,masks/mask_003.jpg,,,,,,,,,,,,,,,,,,,,,,,,,,,,,,,,,,,,,,,,,,,,,,,,0,4,4,2,1,,,,,,,,,,,,,,,,,,,,,,,,,,,,,,,,,,,,,,,,,
387355,001,2022-11-21_00h53.00.828,Info_measure_main_exp,2022.2.2,Win32,60.0240096,,,,,,,,,,,,,,,,,,,,,,,,,,,,,,6,1.617,1,,,,,,,,,,,,0,131,5,5,1974,2250,absent_patch/patch0001974.jpg,absent_patch/patch0002250.jpg,,,,,,,,,,,,,,,,,,,,0.134722222,0.040277778,1,0,0,response1disk,20,-0.008333333,-0.004166667,1,0,0,center_square,0,19,19,55,1,,,,,,,,,,,,,,,,,,,,,,,
387355,001,2022-11-21_00h53.00.828,Info_measure_main_exp,2022.2.2,Win32,60.0240096,,,,,,,,,,,,,,,,,,masks/mask_002.jpg,,,,,,,,,,,,,,,,,,,,,,,,,,,,,,,,,,,,,,,,,,,0,0,0,1,1,,,,,,,,,,,,,,,,,,,,,,,,,,,,,,,,,,,,,,,,,,,,,,
387355,001,2022-11-21_00h53.00.828,Info_measure_main_exp,2022.2.2,Win32,60.0240096,,,,,,,,,,,,,,,,,,masks/mask_004.jpg,,,,,,,,,,,,,,,,,,,,,,,,,,,,,,,,,,,,,,,,,,,0,1,1,3,1,,,,,,,,,,,,,,,,,,,,,,,,,,,,,,,,,,,,,,,,,,,,,,
387355,001,2022-11-21_00h53.00.828,Info_measure_main_exp,2022.2.2,Win32,60.0240096,,,,,,,,,,,,,,,,,,masks/mask_005.jpg,,,,,,,,,,,,,,,,,,,,,,,,,,,,,,,,,,,,,,,,,,,0,2,2,4,1,,,,,,,,,,,,,,,,,,,,,,,,,,,,,,,,,,,,,,,,,,,,,,
387355,001,2022-11-21_00h53.00.828,Info_measure_main_exp,2022.2.2,Win32,60.0240096,,,,,,,,,,,,,,,,,,masks/mask_003.jpg,,,,,,,,,,,,,,,,,,,,,,,,,,,,,,,,,,,,,,,,,,,0,3,3,2,1,,,,,,,,,,,,,,,,,,,,,,,,,,,,,,,,,,,,,,,,,,,,,,
387355,001,2022-11-21_00h53.00.828,Info_measure_main_exp,2022.2.2,Win32,60.0240096,,,,,,,,,,,,,,,,,,masks/mask_001.jpg,,,,,,,,,,,,,,,,,,,,,,,,,,,,,,,,,,,,,,,,,,,0,4,4,0,1,,,,,,,,,,,,,,,,,,,,,,,,,,,,,,,,,,,,,,,,,,,,,,
387355,001,2022-11-21_00h53.00.828,Info_measure_main_exp,2022.2.2,Win32,60.0240096,,,,,,,,,,,,,,,,,,masks/mask_004.jpg,,,,,,,,,,,,,,,,,,,,,,,,,,,,,,,,,,,,,,,,,,,,,,,,0,0,0,3,1,,,,,,,,,,,,,,,,,,,,,,,,,,,,,,,,,,,,,,,,,
387355,001,2022-11-21_00h53.00.828,Info_measure_main_exp,2022.2.2,Win32,60.0240096,,,,,,,,,,,,,,,,,,masks/mask_002.jpg,,,,,,,,,,,,,,,,,,,,,,,,,,,,,,,,,,,,,,,,,,,,,,,,0,1,1,1,1,,,,,,,,,,,,,,,,,,,,,,,,,,,,,,,,,,,,,,,,,
387355,001,2022-11-21_00h53.00.828,Info_measure_main_exp,2022.2.2,Win32,60.0240096,,,,,,,,,,,,,,,,,,masks/mask_001.jpg,,,,,,,,,,,,,,,,,,,,,,,,,,,,,,,,,,,,,,,,,,,,,,,,0,2,2,0,1,,,,,,,,,,,,,,,,,,,,,,,,,,,,,,,,,,,,,,,,,
387355,001,2022-11-21_00h53.00.828,Info_measure_main_exp,2022.2.2,Win32,60.0240096,,,,,,,,,,,,,,,,,,masks/mask_005.jpg,,,,,,,,,,,,,,,,,,,,,,,,,,,,,,,,,,,,,,,,,,,,,,,,0,3,3,4,1,,,,,,,,,,,,,,,,,,,,,,,,,,,,,,,,,,,,,,,,,
387355,001,2022-11-21_00h53.00.828,Info_measure_main_exp,2022.2.2,Win32,60.0240096,,,,,,,,,,,,,,,,,,masks/mask_003.jpg,,,,,,,,,,,,,,,,,,,,,,,,,,,,,,,,,,,,,,,,,,,,,,,,0,4,4,2,1,,,,,,,,,,,,,,,,,,,,,,,,,,,,,,,,,,,,,,,,,
387355,001,2022-11-21_00h53.00.828,Info_measure_main_exp,2022.2.2,Win32,60.0240096,,,,,,,,,,,,,,,,,,,,,,,,,,,,,,0,0.501,1,,,,,,,,,,,,0,131,5,5,2190,2190,absent_patch/patch0002190.jpg,absent_patch/patch0002190.jpg,,,,,,,,,,,,,,,,,,,,-0.077777778,0.130555556,1,0,0,response7disk,21,0.001388889,0.001388889,1,0,0,center_square,0,20,20,86,1,,,,,,,,,,,,,,,,,,,,,,,
387355,001,2022-11-21_00h53.00.828,Info_measure_main_exp,2022.2.2,Win32,60.0240096,,,,,,,,,,,,,,,,,,masks/mask_002.jpg,,,,,,,,,,,,,,,,,,,,,,,,,,,,,,,,,,,,,,,,,,,0,0,0,1,1,,,,,,,,,,,,,,,,,,,,,,,,,,,,,,,,,,,,,,,,,,,,,,
387355,001,2022-11-21_00h53.00.828,Info_measure_main_exp,2022.2.2,Win32,60.0240096,,,,,,,,,,,,,,,,,,masks/mask_003.jpg,,,,,,,,,,,,,,,,,,,,,,,,,,,,,,,,,,,,,,,,,,,0,1,1,2,1,,,,,,,,,,,,,,,,,,,,,,,,,,,,,,,,,,,,,,,,,,,,,,
387355,001,2022-11-21_00h53.00.828,Info_measure_main_exp,2022.2.2,Win32,60.0240096,,,,,,,,,,,,,,,,,,masks/mask_005.jpg,,,,,,,,,,,,,,,,,,,,,,,,,,,,,,,,,,,,,,,,,,,0,2,2,4,1,,,,,,,,,,,,,,,,,,,,,,,,,,,,,,,,,,,,,,,,,,,,,,
387355,001,2022-11-21_00h53.00.828,Info_measure_main_exp,2022.2.2,Win32,60.0240096,,,,,,,,,,,,,,,,,,masks/mask_004.jpg,,,,,,,,,,,,,,,,,,,,,,,,,,,,,,,,,,,,,,,,,,,0,3,3,3,1,,,,,,,,,,,,,,,,,,,,,,,,,,,,,,,,,,,,,,,,,,,,,,
387355,001,2022-11-21_00h53.00.828,Info_measure_main_exp,2022.2.2,Win32,60.0240096,,,,,,,,,,,,,,,,,,masks/mask_001.jpg,,,,,,,,,,,,,,,,,,,,,,,,,,,,,,,,,,,,,,,,,,,0,4,4,0,1,,,,,,,,,,,,,,,,,,,,,,,,,,,,,,,,,,,,,,,,,,,,,,
387355,001,2022-11-21_00h53.00.828,Info_measure_main_exp,2022.2.2,Win32,60.0240096,,,,,,,,,,,,,,,,,,masks/mask_005.jpg,,,,,,,,,,,,,,,,,,,,,,,,,,,,,,,,,,,,,,,,,,,,,,,,0,0,0,4,1,,,,,,,,,,,,,,,,,,,,,,,,,,,,,,,,,,,,,,,,,
387355,001,2022-11-21_00h53.00.828,Info_measure_main_exp,2022.2.2,Win32,60.0240096,,,,,,,,,,,,,,,,,,masks/mask_002.jpg,,,,,,,,,,,,,,,,,,,,,,,,,,,,,,,,,,,,,,,,,,,,,,,,0,1,1,1,1,,,,,,,,,,,,,,,,,,,,,,,,,,,,,,,,,,,,,,,,,
387355,001,2022-11-21_00h53.00.828,Info_measure_main_exp,2022.2.2,Win32,60.0240096,,,,,,,,,,,,,,,,,,masks/mask_003.jpg,,,,,,,,,,,,,,,,,,,,,,,,,,,,,,,,,,,,,,,,,,,,,,,,0,2,2,2,1,,,,,,,,,,,,,,,,,,,,,,,,,,,,,,,,,,,,,,,,,
387355,001,2022-11-21_00h53.00.828,Info_measure_main_exp,2022.2.2,Win32,60.0240096,,,,,,,,,,,,,,,,,,masks/mask_001.jpg,,,,,,,,,,,,,,,,,,,,,,,,,,,,,,,,,,,,,,,,,,,,,,,,0,3,3,0,1,,,,,,,,,,,,,,,,,,,,,,,,,,,,,,,,,,,,,,,,,
387355,001,2022-11-21_00h53.00.828,Info_measure_main_exp,2022.2.2,Win32,60.0240096,,,,,,,,,,,,,,,,,,masks/mask_004.jpg,,,,,,,,,,,,,,,,,,,,,,,,,,,,,,,,,,,,,,,,,,,,,,,,0,4,4,3,1,,,,,,,,,,,,,,,,,,,,,,,,,,,,,,,,,,,,,,,,,
387355,001,2022-11-21_00h53.00.828,Info_measure_main_exp,2022.2.2,Win32,60.0240096,,,,,,,,,,,,,,,,,,,,,,,,,,,,,,4,1.617,1,,,,,,,,,,,,0,131,5,5,2274,2190,absent_patch/patch0002274.jpg,absent_patch/patch0002190.jpg,,,,,,,,,,,,,,,,,,,,0.0375,-0.1375,1,0,0,response3disk,22,-0.009722222,0.015277778,1,0,0,center_square,0,21,21,116,1,,,,,,,,,,,,,,,,,,,,,,,
387355,001,2022-11-21_00h53.00.828,Info_measure_main_exp,2022.2.2,Win32,60.0240096,,,,,,,,,,,,,,,,,,masks/mask_002.jpg,,,,,,,,,,,,,,,,,,,,,,,,,,,,,,,,,,,,,,,,,,,0,0,0,1,1,,,,,,,,,,,,,,,,,,,,,,,,,,,,,,,,,,,,,,,,,,,,,,
387355,001,2022-11-21_00h53.00.828,Info_measure_main_exp,2022.2.2,Win32,60.0240096,,,,,,,,,,,,,,,,,,masks/mask_005.jpg,,,,,,,,,,,,,,,,,,,,,,,,,,,,,,,,,,,,,,,,,,,0,1,1,4,1,,,,,,,,,,,,,,,,,,,,,,,,,,,,,,,,,,,,,,,,,,,,,,
387355,001,2022-11-21_00h53.00.828,Info_measure_main_exp,2022.2.2,Win32,60.0240096,,,,,,,,,,,,,,,,,,masks/mask_004.jpg,,,,,,,,,,,,,,,,,,,,,,,,,,,,,,,,,,,,,,,,,,,0,2,2,3,1,,,,,,,,,,,,,,,,,,,,,,,,,,,,,,,,,,,,,,,,,,,,,,
387355,001,2022-11-21_00h53.00.828,Info_measure_main_exp,2022.2.2,Win32,60.0240096,,,,,,,,,,,,,,,,,,masks/mask_003.jpg,,,,,,,,,,,,,,,,,,,,,,,,,,,,,,,,,,,,,,,,,,,0,3,3,2,1,,,,,,,,,,,,,,,,,,,,,,,,,,,,,,,,,,,,,,,,,,,,,,
387355,001,2022-11-21_00h53.00.828,Info_measure_main_exp,2022.2.2,Win32,60.0240096,,,,,,,,,,,,,,,,,,masks/mask_001.jpg,,,,,,,,,,,,,,,,,,,,,,,,,,,,,,,,,,,,,,,,,,,0,4,4,0,1,,,,,,,,,,,,,,,,,,,,,,,,,,,,,,,,,,,,,,,,,,,,,,
387355,001,2022-11-21_00h53.00.828,Info_measure_main_exp,2022.2.2,Win32,60.0240096,,,,,,,,,,,,,,,,,,masks/mask_001.jpg,,,,,,,,,,,,,,,,,,,,,,,,,,,,,,,,,,,,,,,,,,,,,,,,0,0,0,0,1,,,,,,,,,,,,,,,,,,,,,,,,,,,,,,,,,,,,,,,,,
387355,001,2022-11-21_00h53.00.828,Info_measure_main_exp,2022.2.2,Win32,60.0240096,,,,,,,,,,,,,,,,,,masks/mask_005.jpg,,,,,,,,,,,,,,,,,,,,,,,,,,,,,,,,,,,,,,,,,,,,,,,,0,1,1,4,1,,,,,,,,,,,,,,,,,,,,,,,,,,,,,,,,,,,,,,,,,
387355,001,2022-11-21_00h53.00.828,Info_measure_main_exp,2022.2.2,Win32,60.0240096,,,,,,,,,,,,,,,,,,masks/mask_002.jpg,,,,,,,,,,,,,,,,,,,,,,,,,,,,,,,,,,,,,,,,,,,,,,,,0,2,2,1,1,,,,,,,,,,,,,,,,,,,,,,,,,,,,,,,,,,,,,,,,,
387355,001,2022-11-21_00h53.00.828,Info_measure_main_exp,2022.2.2,Win32,60.0240096,,,,,,,,,,,,,,,,,,masks/mask_003.jpg,,,,,,,,,,,,,,,,,,,,,,,,,,,,,,,,,,,,,,,,,,,,,,,,0,3,3,2,1,,,,,,,,,,,,,,,,,,,,,,,,,,,,,,,,,,,,,,,,,
387355,001,2022-11-21_00h53.00.828,Info_measure_main_exp,2022.2.2,Win32,60.0240096,,,,,,,,,,,,,,,,,,masks/mask_004.jpg,,,,,,,,,,,,,,,,,,,,,,,,,,,,,,,,,,,,,,,,,,,,,,,,0,4,4,3,1,,,,,,,,,,,,,,,,,,,,,,,,,,,,,,,,,,,,,,,,,
387355,001,2022-11-21_00h53.00.828,Info_measure_main_exp,2022.2.2,Win32,60.0240096,,,,,,,,,,,,,,,,,,,,,,,,,,,,,,4,2.45,1,,,,,,,,,,,,1,131,5,5,1,2274,present_patch/cong_131_5_a.jpg,absent_patch/patch0002274.jpg,,,,,,,,,,,,,,,,,,,,0.043055556,-0.134722222,1,0,0,response3disk,23,-0.004166667,-0.008333333,1,0,0,center_square,0,22,22,105,1,,,,,,,,,,,,,,,,,,,,,,,
387355,001,2022-11-21_00h53.00.828,Info_measure_main_exp,2022.2.2,Win32,60.0240096,,,,,,,,,,,,,,,,,,masks/mask_001.jpg,,,,,,,,,,,,,,,,,,,,,,,,,,,,,,,,,,,,,,,,,,,0,0,0,0,1,,,,,,,,,,,,,,,,,,,,,,,,,,,,,,,,,,,,,,,,,,,,,,
387355,001,2022-11-21_00h53.00.828,Info_measure_main_exp,2022.2.2,Win32,60.0240096,,,,,,,,,,,,,,,,,,masks/mask_002.jpg,,,,,,,,,,,,,,,,,,,,,,,,,,,,,,,,,,,,,,,,,,,0,1,1,1,1,,,,,,,,,,,,,,,,,,,,,,,,,,,,,,,,,,,,,,,,,,,,,,
387355,001,2022-11-21_00h53.00.828,Info_measure_main_exp,2022.2.2,Win32,60.0240096,,,,,,,,,,,,,,,,,,masks/mask_005.jpg,,,,,,,,,,,,,,,,,,,,,,,,,,,,,,,,,,,,,,,,,,,0,2,2,4,1,,,,,,,,,,,,,,,,,,,,,,,,,,,,,,,,,,,,,,,,,,,,,,
387355,001,2022-11-21_00h53.00.828,Info_measure_main_exp,2022.2.2,Win32,60.0240096,,,,,,,,,,,,,,,,,,masks/mask_003.jpg,,,,,,,,,,,,,,,,,,,,,,,,,,,,,,,,,,,,,,,,,,,0,3,3,2,1,,,,,,,,,,,,,,,,,,,,,,,,,,,,,,,,,,,,,,,,,,,,,,
387355,001,2022-11-21_00h53.00.828,Info_measure_main_exp,2022.2.2,Win32,60.0240096,,,,,,,,,,,,,,,,,,masks/mask_004.jpg,,,,,,,,,,,,,,,,,,,,,,,,,,,,,,,,,,,,,,,,,,,0,4,4,3,1,,,,,,,,,,,,,,,,,,,,,,,,,,,,,,,,,,,,,,,,,,,,,,
387355,001,2022-11-21_00h53.00.828,Info_measure_main_exp,2022.2.2,Win32,60.0240096,,,,,,,,,,,,,,,,,,masks/mask_005.jpg,,,,,,,,,,,,,,,,,,,,,,,,,,,,,,,,,,,,,,,,,,,,,,,,0,0,0,4,1,,,,,,,,,,,,,,,,,,,,,,,,,,,,,,,,,,,,,,,,,
387355,001,2022-11-21_00h53.00.828,Info_measure_main_exp,2022.2.2,Win32,60.0240096,,,,,,,,,,,,,,,,,,masks/mask_003.jpg,,,,,,,,,,,,,,,,,,,,,,,,,,,,,,,,,,,,,,,,,,,,,,,,0,1,1,2,1,,,,,,,,,,,,,,,,,,,,,,,,,,,,,,,,,,,,,,,,,
387355,001,2022-11-21_00h53.00.828,Info_measure_main_exp,2022.2.2,Win32,60.0240096,,,,,,,,,,,,,,,,,,masks/mask_002.jpg,,,,,,,,,,,,,,,,,,,,,,,,,,,,,,,,,,,,,,,,,,,,,,,,0,2,2,1,1,,,,,,,,,,,,,,,,,,,,,,,,,,,,,,,,,,,,,,,,,
387355,001,2022-11-21_00h53.00.828,Info_measure_main_exp,2022.2.2,Win32,60.0240096,,,,,,,,,,,,,,,,,,masks/mask_001.jpg,,,,,,,,,,,,,,,,,,,,,,,,,,,,,,,,,,,,,,,,,,,,,,,,0,3,3,0,1,,,,,,,,,,,,,,,,,,,,,,,,,,,,,,,,,,,,,,,,,
387355,001,2022-11-21_00h53.00.828,Info_measure_main_exp,2022.2.2,Win32,60.0240096,,,,,,,,,,,,,,,,,,masks/mask_004.jpg,,,,,,,,,,,,,,,,,,,,,,,,,,,,,,,,,,,,,,,,,,,,,,,,0,4,4,3,1,,,,,,,,,,,,,,,,,,,,,,,,,,,,,,,,,,,,,,,,,
387355,001,2022-11-21_00h53.00.828,Info_measure_main_exp,2022.2.2,Win32,60.0240096,,,,,,,,,,,,,,,,,,,,,,,,,,,,,,5,0.901,1,,,,,,,,,,,,0,131,5,5,2142,2190,absent_patch/patch0002142.jpg,absent_patch/patch0002190.jpg,,,,,,,,,,,,,,,,,,,,0.131944444,-0.070833333,1,0,0,response3disk,24,-0.004166667,0.013888889,1,0,0,center_square,0,23,23,70,1,,,,,,,,,,,,,,,,,,,,,,,
387355,001,2022-11-21_00h53.00.828,Info_measure_main_exp,2022.2.2,Win32,60.0240096,,,,,,,,,,,,,,,,,,masks/mask_004.jpg,,,,,,,,,,,,,,,,,,,,,,,,,,,,,,,,,,,,,,,,,,,0,0,0,3,1,,,,,,,,,,,,,,,,,,,,,,,,,,,,,,,,,,,,,,,,,,,,,,
387355,001,2022-11-21_00h53.00.828,Info_measure_main_exp,2022.2.2,Win32,60.0240096,,,,,,,,,,,,,,,,,,masks/mask_001.jpg,,,,,,,,,,,,,,,,,,,,,,,,,,,,,,,,,,,,,,,,,,,0,1,1,0,1,,,,,,,,,,,,,,,,,,,,,,,,,,,,,,,,,,,,,,,,,,,,,,
387355,001,2022-11-21_00h53.00.828,Info_measure_main_exp,2022.2.2,Win32,60.0240096,,,,,,,,,,,,,,,,,,masks/mask_003.jpg,,,,,,,,,,,,,,,,,,,,,,,,,,,,,,,,,,,,,,,,,,,0,2,2,2,1,,,,,,,,,,,,,,,,,,,,,,,,,,,,,,,,,,,,,,,,,,,,,,
387355,001,2022-11-21_00h53.00.828,Info_measure_main_exp,2022.2.2,Win32,60.0240096,,,,,,,,,,,,,,,,,,masks/mask_005.jpg,,,,,,,,,,,,,,,,,,,,,,,,,,,,,,,,,,,,,,,,,,,0,3,3,4,1,,,,,,,,,,,,,,,,,,,,,,,,,,,,,,,,,,,,,,,,,,,,,,
387355,001,2022-11-21_00h53.00.828,Info_measure_main_exp,2022.2.2,Win32,60.0240096,,,,,,,,,,,,,,,,,,masks/mask_002.jpg,,,,,,,,,,,,,,,,,,,,,,,,,,,,,,,,,,,,,,,,,,,0,4,4,1,1,,,,,,,,,,,,,,,,,,,,,,,,,,,,,,,,,,,,,,,,,,,,,,
387355,001,2022-11-21_00h53.00.828,Info_measure_main_exp,2022.2.2,Win32,60.0240096,,,,,,,,,,,,,,,,,,masks/mask_003.jpg,,,,,,,,,,,,,,,,,,,,,,,,,,,,,,,,,,,,,,,,,,,,,,,,0,0,0,2,1,,,,,,,,,,,,,,,,,,,,,,,,,,,,,,,,,,,,,,,,,
387355,001,2022-11-21_00h53.00.828,Info_measure_main_exp,2022.2.2,Win32,60.0240096,,,,,,,,,,,,,,,,,,masks/mask_001.jpg,,,,,,,,,,,,,,,,,,,,,,,,,,,,,,,,,,,,,,,,,,,,,,,,0,1,1,0,1,,,,,,,,,,,,,,,,,,,,,,,,,,,,,,,,,,,,,,,,,
387355,001,2022-11-21_00h53.00.828,Info_measure_main_exp,2022.2.2,Win32,60.0240096,,,,,,,,,,,,,,,,,,masks/mask_005.jpg,,,,,,,,,,,,,,,,,,,,,,,,,,,,,,,,,,,,,,,,,,,,,,,,0,2,2,4,1,,,,,,,,,,,,,,,,,,,,,,,,,,,,,,,,,,,,,,,,,
387355,001,2022-11-21_00h53.00.828,Info_measure_main_exp,2022.2.2,Win32,60.0240096,,,,,,,,,,,,,,,,,,masks/mask_004.jpg,,,,,,,,,,,,,,,,,,,,,,,,,,,,,,,,,,,,,,,,,,,,,,,,0,3,3,3,1,,,,,,,,,,,,,,,,,,,,,,,,,,,,,,,,,,,,,,,,,
387355,001,2022-11-21_00h53.00.828,Info_measure_main_exp,2022.2.2,Win32,60.0240096,,,,,,,,,,,,,,,,,,masks/mask_002.jpg,,,,,,,,,,,,,,,,,,,,,,,,,,,,,,,,,,,,,,,,,,,,,,,,0,4,4,1,1,,,,,,,,,,,,,,,,,,,,,,,,,,,,,,,,,,,,,,,,,
387355,001,2022-11-21_00h53.00.828,Info_measure_main_exp,2022.2.2,Win32,60.0240096,,,,,,,,,,,,,,,,,,,,,,,,,,,,,,0,0.651,1,,,,,,,,,,,,0,131,5,5,1986,1986,absent_patch/patch0001986.jpg,absent_patch/patch0001986.jpg,,,,,,,,,,,,,,,,,,,,-0.079166667,0.133333333,1,0,0,response7disk,25,-0.008333333,0.009722222,1,0,0,center_square,0,24,24,19,1,,,,,,,,,,,,,,,,,,,,,,,
387355,001,2022-11-21_00h53.00.828,Info_measure_main_exp,2022.2.2,Win32,60.0240096,,,,,,,,,,,,,,,,,,masks/mask_002.jpg,,,,,,,,,,,,,,,,,,,,,,,,,,,,,,,,,,,,,,,,,,,0,0,0,1,1,,,,,,,,,,,,,,,,,,,,,,,,,,,,,,,,,,,,,,,,,,,,,,
387355,001,2022-11-21_00h53.00.828,Info_measure_main_exp,2022.2.2,Win32,60.0240096,,,,,,,,,,,,,,,,,,masks/mask_005.jpg,,,,,,,,,,,,,,,,,,,,,,,,,,,,,,,,,,,,,,,,,,,0,1,1,4,1,,,,,,,,,,,,,,,,,,,,,,,,,,,,,,,,,,,,,,,,,,,,,,
387355,001,2022-11-21_00h53.00.828,Info_measure_main_exp,2022.2.2,Win32,60.0240096,,,,,,,,,,,,,,,,,,masks/mask_001.jpg,,,,,,,,,,,,,,,,,,,,,,,,,,,,,,,,,,,,,,,,,,,0,2,2,0,1,,,,,,,,,,,,,,,,,,,,,,,,,,,,,,,,,,,,,,,,,,,,,,
387355,001,2022-11-21_00h53.00.828,Info_measure_main_exp,2022.2.2,Win32,60.0240096,,,,,,,,,,,,,,,,,,masks/mask_004.jpg,,,,,,,,,,,,,,,,,,,,,,,,,,,,,,,,,,,,,,,,,,,0,3,3,3,1,,,,,,,,,,,,,,,,,,,,,,,,,,,,,,,,,,,,,,,,,,,,,,
387355,001,2022-11-21_00h53.00.828,Info_measure_main_exp,2022.2.2,Win32,60.0240096,,,,,,,,,,,,,,,,,,masks/mask_003.jpg,,,,,,,,,,,,,,,,,,,,,,,,,,,,,,,,,,,,,,,,,,,0,4,4,2,1,,,,,,,,,,,,,,,,,,,,,,,,,,,,,,,,,,,,,,,,,,,,,,
387355,001,2022-11-21_00h53.00.828,Info_measure_main_exp,2022.2.2,Win32,60.0240096,,,,,,,,,,,,,,,,,,masks/mask_002.jpg,,,,,,,,,,,,,,,,,,,,,,,,,,,,,,,,,,,,,,,,,,,,,,,,0,0,0,1,1,,,,,,,,,,,,,,,,,,,,,,,,,,,,,,,,,,,,,,,,,
387355,001,2022-11-21_00h53.00.828,Info_measure_main_exp,2022.2.2,Win32,60.0240096,,,,,,,,,,,,,,,,,,masks/mask_005.jpg,,,,,,,,,,,,,,,,,,,,,,,,,,,,,,,,,,,,,,,,,,,,,,,,0,1,1,4,1,,,,,,,,,,,,,,,,,,,,,,,,,,,,,,,,,,,,,,,,,
387355,001,2022-11-21_00h53.00.828,Info_measure_main_exp,2022.2.2,Win32,60.0240096,,,,,,,,,,,,,,,,,,masks/mask_004.jpg,,,,,,,,,,,,,,,,,,,,,,,,,,,,,,,,,,,,,,,,,,,,,,,,0,2,2,3,1,,,,,,,,,,,,,,,,,,,,,,,,,,,,,,,,,,,,,,,,,
387355,001,2022-11-21_00h53.00.828,Info_measure_main_exp,2022.2.2,Win32,60.0240096,,,,,,,,,,,,,,,,,,masks/mask_003.jpg,,,,,,,,,,,,,,,,,,,,,,,,,,,,,,,,,,,,,,,,,,,,,,,,0,3,3,2,1,,,,,,,,,,,,,,,,,,,,,,,,,,,,,,,,,,,,,,,,,
387355,001,2022-11-21_00h53.00.828,Info_measure_main_exp,2022.2.2,Win32,60.0240096,,,,,,,,,,,,,,,,,,masks/mask_001.jpg,,,,,,,,,,,,,,,,,,,,,,,,,,,,,,,,,,,,,,,,,,,,,,,,0,4,4,0,1,,,,,,,,,,,,,,,,,,,,,,,,,,,,,,,,,,,,,,,,,
387355,001,2022-11-21_00h53.00.828,Info_measure_main_exp,2022.2.2,Win32,60.0240096,,,,,,,,,,,,,,,,,,,,,,,,,,,,,,7,0.65,1,,,,,,,,,,,,1,131,5,5,1,2214,present_patch/cong_131_5_a.jpg,absent_patch/patch0002214.jpg,,,,,,,,,,,,,,,,,,,,0.068055556,0.143055556,1,0,0,response1disk,26,-0.004166667,0.005555556,1,0,0,center_square,0,25,25,4,1,,,,,,,,,,,,,,,,,,,,,,,
387355,001,2022-11-21_00h53.00.828,Info_measure_main_exp,2022.2.2,Win32,60.0240096,,,,,,,,,,,,,,,,,,masks/mask_002.jpg,,,,,,,,,,,,,,,,,,,,,,,,,,,,,,,,,,,,,,,,,,,0,0,0,1,1,,,,,,,,,,,,,,,,,,,,,,,,,,,,,,,,,,,,,,,,,,,,,,
387355,001,2022-11-21_00h53.00.828,Info_measure_main_exp,2022.2.2,Win32,60.0240096,,,,,,,,,,,,,,,,,,masks/mask_005.jpg,,,,,,,,,,,,,,,,,,,,,,,,,,,,,,,,,,,,,,,,,,,0,1,1,4,1,,,,,,,,,,,,,,,,,,,,,,,,,,,,,,,,,,,,,,,,,,,,,,
387355,001,2022-11-21_00h53.00.828,Info_measure_main_exp,2022.2.2,Win32,60.0240096,,,,,,,,,,,,,,,,,,masks/mask_003.jpg,,,,,,,,,,,,,,,,,,,,,,,,,,,,,,,,,,,,,,,,,,,0,2,2,2,1,,,,,,,,,,,,,,,,,,,,,,,,,,,,,,,,,,,,,,,,,,,,,,
387355,001,2022-11-21_00h53.00.828,Info_measure_main_exp,2022.2.2,Win32,60.0240096,,,,,,,,,,,,,,,,,,masks/mask_004.jpg,,,,,,,,,,,,,,,,,,,,,,,,,,,,,,,,,,,,,,,,,,,0,3,3,3,1,,,,,,,,,,,,,,,,,,,,,,,,,,,,,,,,,,,,,,,,,,,,,,
387355,001,2022-11-21_00h53.00.828,Info_measure_main_exp,2022.2.2,Win32,60.0240096,,,,,,,,,,,,,,,,,,masks/mask_001.jpg,,,,,,,,,,,,,,,,,,,,,,,,,,,,,,,,,,,,,,,,,,,0,4,4,0,1,,,,,,,,,,,,,,,,,,,,,,,,,,,,,,,,,,,,,,,,,,,,,,
387355,001,2022-11-21_00h53.00.828,Info_measure_main_exp,2022.2.2,Win32,60.0240096,,,,,,,,,,,,,,,,,,masks/mask_003.jpg,,,,,,,,,,,,,,,,,,,,,,,,,,,,,,,,,,,,,,,,,,,,,,,,0,0,0,2,1,,,,,,,,,,,,,,,,,,,,,,,,,,,,,,,,,,,,,,,,,
387355,001,2022-11-21_00h53.00.828,Info_measure_main_exp,2022.2.2,Win32,60.0240096,,,,,,,,,,,,,,,,,,masks/mask_001.jpg,,,,,,,,,,,,,,,,,,,,,,,,,,,,,,,,,,,,,,,,,,,,,,,,0,1,1,0,1,,,,,,,,,,,,,,,,,,,,,,,,,,,,,,,,,,,,,,,,,
387355,001,2022-11-21_00h53.00.828,Info_measure_main_exp,2022.2.2,Win32,60.0240096,,,,,,,,,,,,,,,,,,masks/mask_005.jpg,,,,,,,,,,,,,,,,,,,,,,,,,,,,,,,,,,,,,,,,,,,,,,,,0,2,2,4,1,,,,,,,,,,,,,,,,,,,,,,,,,,,,,,,,,,,,,,,,,
387355,001,2022-11-21_00h53.00.828,Info_measure_main_exp,2022.2.2,Win32,60.0240096,,,,,,,,,,,,,,,,,,masks/mask_002.jpg,,,,,,,,,,,,,,,,,,,,,,,,,,,,,,,,,,,,,,,,,,,,,,,,0,3,3,1,1,,,,,,,,,,,,,,,,,,,,,,,,,,,,,,,,,,,,,,,,,
387355,001,2022-11-21_00h53.00.828,Info_measure_main_exp,2022.2.2,Win32,60.0240096,,,,,,,,,,,,,,,,,,masks/mask_004.jpg,,,,,,,,,,,,,,,,,,,,,,,,,,,,,,,,,,,,,,,,,,,,,,,,0,4,4,3,1,,,,,,,,,,,,,,,,,,,,,,,,,,,,,,,,,,,,,,,,,
387355,001,2022-11-21_00h53.00.828,Info_measure_main_exp,2022.2.2,Win32,60.0240096,,,,,,,,,,,,,,,,,,,,,,,,,,,,,,3,2.6,1,,,,,,,,,,,,0,131,5,5,2154,2238,absent_patch/patch0002154.jpg,absent_patch/patch0002238.jpg,,,,,,,,,,,,,,,,,,,,-0.034722222,-0.133333333,1,0,0,response5disk,27,0.005555556,0.002777778,1,0,0,center_square,0,26,26,21,1,,,,,,,,,,,,,,,,,,,,,,,
387355,001,2022-11-21_00h53.00.828,Info_measure_main_exp,2022.2.2,Win32,60.0240096,,,,,,,,,,,,,,,,,,masks/mask_004.jpg,,,,,,,,,,,,,,,,,,,,,,,,,,,,,,,,,,,,,,,,,,,0,0,0,3,1,,,,,,,,,,,,,,,,,,,,,,,,,,,,,,,,,,,,,,,,,,,,,,
387355,001,2022-11-21_00h53.00.828,Info_measure_main_exp,2022.2.2,Win32,60.0240096,,,,,,,,,,,,,,,,,,masks/mask_003.jpg,,,,,,,,,,,,,,,,,,,,,,,,,,,,,,,,,,,,,,,,,,,0,1,1,2,1,,,,,,,,,,,,,,,,,,,,,,,,,,,,,,,,,,,,,,,,,,,,,,
387355,001,2022-11-21_00h53.00.828,Info_measure_main_exp,2022.2.2,Win32,60.0240096,,,,,,,,,,,,,,,,,,masks/mask_005.jpg,,,,,,,,,,,,,,,,,,,,,,,,,,,,,,,,,,,,,,,,,,,0,2,2,4,1,,,,,,,,,,,,,,,,,,,,,,,,,,,,,,,,,,,,,,,,,,,,,,
387355,001,2022-11-21_00h53.00.828,Info_measure_main_exp,2022.2.2,Win32,60.0240096,,,,,,,,,,,,,,,,,,masks/mask_002.jpg,,,,,,,,,,,,,,,,,,,,,,,,,,,,,,,,,,,,,,,,,,,0,3,3,1,1,,,,,,,,,,,,,,,,,,,,,,,,,,,,,,,,,,,,,,,,,,,,,,
387355,001,2022-11-21_00h53.00.828,Info_measure_main_exp,2022.2.2,Win32,60.0240096,,,,,,,,,,,,,,,,,,masks/mask_001.jpg,,,,,,,,,,,,,,,,,,,,,,,,,,,,,,,,,,,,,,,,,,,0,4,4,0,1,,,,,,,,,,,,,,,,,,,,,,,,,,,,,,,,,,,,,,,,,,,,,,
387355,001,2022-11-21_00h53.00.828,Info_measure_main_exp,2022.2.2,Win32,60.0240096,,,,,,,,,,,,,,,,,,masks/mask_004.jpg,,,,,,,,,,,,,,,,,,,,,,,,,,,,,,,,,,,,,,,,,,,,,,,,0,0,0,3,1,,,,,,,,,,,,,,,,,,,,,,,,,,,,,,,,,,,,,,,,,
387355,001,2022-11-21_00h53.00.828,Info_measure_main_exp,2022.2.2,Win32,60.0240096,,,,,,,,,,,,,,,,,,masks/mask_001.jpg,,,,,,,,,,,,,,,,,,,,,,,,,,,,,,,,,,,,,,,,,,,,,,,,0,1,1,0,1,,,,,,,,,,,,,,,,,,,,,,,,,,,,,,,,,,,,,,,,,
387355,001,2022-11-21_00h53.00.828,Info_measure_main_exp,2022.2.2,Win32,60.0240096,,,,,,,,,,,,,,,,,,masks/mask_003.jpg,,,,,,,,,,,,,,,,,,,,,,,,,,,,,,,,,,,,,,,,,,,,,,,,0,2,2,2,1,,,,,,,,,,,,,,,,,,,,,,,,,,,,,,,,,,,,,,,,,
387355,001,2022-11-21_00h53.00.828,Info_measure_main_exp,2022.2.2,Win32,60.0240096,,,,,,,,,,,,,,,,,,masks/mask_002.jpg,,,,,,,,,,,,,,,,,,,,,,,,,,,,,,,,,,,,,,,,,,,,,,,,0,3,3,1,1,,,,,,,,,,,,,,,,,,,,,,,,,,,,,,,,,,,,,,,,,
387355,001,2022-11-21_00h53.00.828,Info_measure_main_exp,2022.2.2,Win32,60.0240096,,,,,,,,,,,,,,,,,,masks/mask_005.jpg,,,,,,,,,,,,,,,,,,,,,,,,,,,,,,,,,,,,,,,,,,,,,,,,0,4,4,4,1,,,,,,,,,,,,,,,,,,,,,,,,,,,,,,,,,,,,,,,,,
387355,001,2022-11-21_00h53.00.828,Info_measure_main_exp,2022.2.2,Win32,60.0240096,,,,,,,,,,,,,,,,,,,,,,,,,,,,,,7,0.701,1,,,,,,,,,,,,0,131,5,5,2178,2238,absent_patch/patch0002178.jpg,absent_patch/patch0002238.jpg,,,,,,,,,,,,,,,,,,,,0.065277778,0.148611111,1,0,0,response1disk,28,0.005555556,-0.013888889,1,0,0,center_square,0,27,27,57,1,,,,,,,,,,,,,,,,,,,,,,,
387355,001,2022-11-21_00h53.00.828,Info_measure_main_exp,2022.2.2,Win32,60.0240096,,,,,,,,,,,,,,,,,,masks/mask_003.jpg,,,,,,,,,,,,,,,,,,,,,,,,,,,,,,,,,,,,,,,,,,,0,0,0,2,1,,,,,,,,,,,,,,,,,,,,,,,,,,,,,,,,,,,,,,,,,,,,,,
387355,001,2022-11-21_00h53.00.828,Info_measure_main_exp,2022.2.2,Win32,60.0240096,,,,,,,,,,,,,,,,,,masks/mask_004.jpg,,,,,,,,,,,,,,,,,,,,,,,,,,,,,,,,,,,,,,,,,,,0,1,1,3,1,,,,,,,,,,,,,,,,,,,,,,,,,,,,,,,,,,,,,,,,,,,,,,
387355,001,2022-11-21_00h53.00.828,Info_measure_main_exp,2022.2.2,Win32,60.0240096,,,,,,,,,,,,,,,,,,masks/mask_001.jpg,,,,,,,,,,,,,,,,,,,,,,,,,,,,,,,,,,,,,,,,,,,0,2,2,0,1,,,,,,,,,,,,,,,,,,,,,,,,,,,,,,,,,,,,,,,,,,,,,,
387355,001,2022-11-21_00h53.00.828,Info_measure_main_exp,2022.2.2,Win32,60.0240096,,,,,,,,,,,,,,,,,,masks/mask_002.jpg,,,,,,,,,,,,,,,,,,,,,,,,,,,,,,,,,,,,,,,,,,,0,3,3,1,1,,,,,,,,,,,,,,,,,,,,,,,,,,,,,,,,,,,,,,,,,,,,,,
387355,001,2022-11-21_00h53.00.828,Info_measure_main_exp,2022.2.2,Win32,60.0240096,,,,,,,,,,,,,,,,,,masks/mask_005.jpg,,,,,,,,,,,,,,,,,,,,,,,,,,,,,,,,,,,,,,,,,,,0,4,4,4,1,,,,,,,,,,,,,,,,,,,,,,,,,,,,,,,,,,,,,,,,,,,,,,
387355,001,2022-11-21_00h53.00.828,Info_measure_main_exp,2022.2.2,Win32,60.0240096,,,,,,,,,,,,,,,,,,masks/mask_003.jpg,,,,,,,,,,,,,,,,,,,,,,,,,,,,,,,,,,,,,,,,,,,,,,,,0,0,0,2,1,,,,,,,,,,,,,,,,,,,,,,,,,,,,,,,,,,,,,,,,,
387355,001,2022-11-21_00h53.00.828,Info_measure_main_exp,2022.2.2,Win32,60.0240096,,,,,,,,,,,,,,,,,,masks/mask_004.jpg,,,,,,,,,,,,,,,,,,,,,,,,,,,,,,,,,,,,,,,,,,,,,,,,0,1,1,3,1,,,,,,,,,,,,,,,,,,,,,,,,,,,,,,,,,,,,,,,,,
387355,001,2022-11-21_00h53.00.828,Info_measure_main_exp,2022.2.2,Win32,60.0240096,,,,,,,,,,,,,,,,,,masks/mask_005.jpg,,,,,,,,,,,,,,,,,,,,,,,,,,,,,,,,,,,,,,,,,,,,,,,,0,2,2,4,1,,,,,,,,,,,,,,,,,,,,,,,,,,,,,,,,,,,,,,,,,
387355,001,2022-11-21_00h53.00.828,Info_measure_main_exp,2022.2.2,Win32,60.0240096,,,,,,,,,,,,,,,,,,masks/mask_002.jpg,,,,,,,,,,,,,,,,,,,,,,,,,,,,,,,,,,,,,,,,,,,,,,,,0,3,3,1,1,,,,,,,,,,,,,,,,,,,,,,,,,,,,,,,,,,,,,,,,,
387355,001,2022-11-21_00h53.00.828,Info_measure_main_exp,2022.2.2,Win32,60.0240096,,,,,,,,,,,,,,,,,,masks/mask_001.jpg,,,,,,,,,,,,,,,,,,,,,,,,,,,,,,,,,,,,,,,,,,,,,,,,0,4,4,0,1,,,,,,,,,,,,,,,,,,,,,,,,,,,,,,,,,,,,,,,,,
387355,001,2022-11-21_00h53.00.828,Info_measure_main_exp,2022.2.2,Win32,60.0240096,,,,,,,,,,,,,,,,,,,,,,,,,,,,,,7,1.534,1,,,,,,,,,,,,0,131,5,5,2274,2082,absent_patch/patch0002274.jpg,absent_patch/patch0002082.jpg,,,,,,,,,,,,,,,,,,,,0.063888889,0.106944444,1,0,0,response1disk,29,0.011111111,0.001388889,1,0,0,center_square,0,28,28,100,1,,,,,,,,,,,,,,,,,,,,,,,
387355,001,2022-11-21_00h53.00.828,Info_measure_main_exp,2022.2.2,Win32,60.0240096,,,,,,,,,,,,,,,,,,masks/mask_002.jpg,,,,,,,,,,,,,,,,,,,,,,,,,,,,,,,,,,,,,,,,,,,0,0,0,1,1,,,,,,,,,,,,,,,,,,,,,,,,,,,,,,,,,,,,,,,,,,,,,,
387355,001,2022-11-21_00h53.00.828,Info_measure_main_exp,2022.2.2,Win32,60.0240096,,,,,,,,,,,,,,,,,,masks/mask_003.jpg,,,,,,,,,,,,,,,,,,,,,,,,,,,,,,,,,,,,,,,,,,,0,1,1,2,1,,,,,,,,,,,,,,,,,,,,,,,,,,,,,,,,,,,,,,,,,,,,,,
387355,001,2022-11-21_00h53.00.828,Info_measure_main_exp,2022.2.2,Win32,60.0240096,,,,,,,,,,,,,,,,,,masks/mask_004.jpg,,,,,,,,,,,,,,,,,,,,,,,,,,,,,,,,,,,,,,,,,,,0,2,2,3,1,,,,,,,,,,,,,,,,,,,,,,,,,,,,,,,,,,,,,,,,,,,,,,
387355,001,2022-11-21_00h53.00.828,Info_measure_main_exp,2022.2.2,Win32,60.0240096,,,,,,,,,,,,,,,,,,masks/mask_001.jpg,,,,,,,,,,,,,,,,,,,,,,,,,,,,,,,,,,,,,,,,,,,0,3,3,0,1,,,,,,,,,,,,,,,,,,,,,,,,,,,,,,,,,,,,,,,,,,,,,,
387355,001,2022-11-21_00h53.00.828,Info_measure_main_exp,2022.2.2,Win32,60.0240096,,,,,,,,,,,,,,,,,,masks/mask_005.jpg,,,,,,,,,,,,,,,,,,,,,,,,,,,,,,,,,,,,,,,,,,,0,4,4,4,1,,,,,,,,,,,,,,,,,,,,,,,,,,,,,,,,,,,,,,,,,,,,,,
387355,001,2022-11-21_00h53.00.828,Info_measure_main_exp,2022.2.2,Win32,60.0240096,,,,,,,,,,,,,,,,,,masks/mask_001.jpg,,,,,,,,,,,,,,,,,,,,,,,,,,,,,,,,,,,,,,,,,,,,,,,,0,0,0,0,1,,,,,,,,,,,,,,,,,,,,,,,,,,,,,,,,,,,,,,,,,
387355,001,2022-11-21_00h53.00.828,Info_measure_main_exp,2022.2.2,Win32,60.0240096,,,,,,,,,,,,,,,,,,masks/mask_002.jpg,,,,,,,,,,,,,,,,,,,,,,,,,,,,,,,,,,,,,,,,,,,,,,,,0,1,1,1,1,,,,,,,,,,,,,,,,,,,,,,,,,,,,,,,,,,,,,,,,,
387355,001,2022-11-21_00h53.00.828,Info_measure_main_exp,2022.2.2,Win32,60.0240096,,,,,,,,,,,,,,,,,,masks/mask_003.jpg,,,,,,,,,,,,,,,,,,,,,,,,,,,,,,,,,,,,,,,,,,,,,,,,0,2,2,2,1,,,,,,,,,,,,,,,,,,,,,,,,,,,,,,,,,,,,,,,,,
387355,001,2022-11-21_00h53.00.828,Info_measure_main_exp,2022.2.2,Win32,60.0240096,,,,,,,,,,,,,,,,,,masks/mask_005.jpg,,,,,,,,,,,,,,,,,,,,,,,,,,,,,,,,,,,,,,,,,,,,,,,,0,3,3,4,1,,,,,,,,,,,,,,,,,,,,,,,,,,,,,,,,,,,,,,,,,
387355,001,2022-11-21_00h53.00.828,Info_measure_main_exp,2022.2.2,Win32,60.0240096,,,,,,,,,,,,,,,,,,masks/mask_004.jpg,,,,,,,,,,,,,,,,,,,,,,,,,,,,,,,,,,,,,,,,,,,,,,,,0,4,4,3,1,,,,,,,,,,,,,,,,,,,,,,,,,,,,,,,,,,,,,,,,,
387355,001,2022-11-21_00h53.00.828,Info_measure_main_exp,2022.2.2,Win32,60.0240096,,,,,,,,,,,,,,,,,,,,,,,,,,,,,,7,0.684,1,,,,,,,,,,,,0,131,5,5,1950,2166,absent_patch/patch0001950.jpg,absent_patch/patch0002166.jpg,,,,,,,,,,,,,,,,,,,,0.065277778,0.140277778,1,0,0,response1disk,30,0.006944444,0.004166667,1,0,0,center_square,0,29,29,0,1,,,,,,,,,,,,,,,,,,,,,,,
387355,001,2022-11-21_00h53.00.828,Info_measure_main_exp,2022.2.2,Win32,60.0240096,,,,,,,,,,,,,,,,,,masks/mask_003.jpg,,,,,,,,,,,,,,,,,,,,,,,,,,,,,,,,,,,,,,,,,,,0,0,0,2,1,,,,,,,,,,,,,,,,,,,,,,,,,,,,,,,,,,,,,,,,,,,,,,
387355,001,2022-11-21_00h53.00.828,Info_measure_main_exp,2022.2.2,Win32,60.0240096,,,,,,,,,,,,,,,,,,masks/mask_002.jpg,,,,,,,,,,,,,,,,,,,,,,,,,,,,,,,,,,,,,,,,,,,0,1,1,1,1,,,,,,,,,,,,,,,,,,,,,,,,,,,,,,,,,,,,,,,,,,,,,,
387355,001,2022-11-21_00h53.00.828,Info_measure_main_exp,2022.2.2,Win32,60.0240096,,,,,,,,,,,,,,,,,,masks/mask_005.jpg,,,,,,,,,,,,,,,,,,,,,,,,,,,,,,,,,,,,,,,,,,,0,2,2,4,1,,,,,,,,,,,,,,,,,,,,,,,,,,,,,,,,,,,,,,,,,,,,,,
387355,001,2022-11-21_00h53.00.828,Info_measure_main_exp,2022.2.2,Win32,60.0240096,,,,,,,,,,,,,,,,,,masks/mask_001.jpg,,,,,,,,,,,,,,,,,,,,,,,,,,,,,,,,,,,,,,,,,,,0,3,3,0,1,,,,,,,,,,,,,,,,,,,,,,,,,,,,,,,,,,,,,,,,,,,,,,
387355,001,2022-11-21_00h53.00.828,Info_measure_main_exp,2022.2.2,Win32,60.0240096,,,,,,,,,,,,,,,,,,masks/mask_004.jpg,,,,,,,,,,,,,,,,,,,,,,,,,,,,,,,,,,,,,,,,,,,0,4,4,3,1,,,,,,,,,,,,,,,,,,,,,,,,,,,,,,,,,,,,,,,,,,,,,,
387355,001,2022-11-21_00h53.00.828,Info_measure_main_exp,2022.2.2,Win32,60.0240096,,,,,,,,,,,,,,,,,,masks/mask_005.jpg,,,,,,,,,,,,,,,,,,,,,,,,,,,,,,,,,,,,,,,,,,,,,,,,0,0,0,4,1,,,,,,,,,,,,,,,,,,,,,,,,,,,,,,,,,,,,,,,,,
387355,001,2022-11-21_00h53.00.828,Info_measure_main_exp,2022.2.2,Win32,60.0240096,,,,,,,,,,,,,,,,,,masks/mask_002.jpg,,,,,,,,,,,,,,,,,,,,,,,,,,,,,,,,,,,,,,,,,,,,,,,,0,1,1,1,1,,,,,,,,,,,,,,,,,,,,,,,,,,,,,,,,,,,,,,,,,
387355,001,2022-11-21_00h53.00.828,Info_measure_main_exp,2022.2.2,Win32,60.0240096,,,,,,,,,,,,,,,,,,masks/mask_003.jpg,,,,,,,,,,,,,,,,,,,,,,,,,,,,,,,,,,,,,,,,,,,,,,,,0,2,2,2,1,,,,,,,,,,,,,,,,,,,,,,,,,,,,,,,,,,,,,,,,,
387355,001,2022-11-21_00h53.00.828,Info_measure_main_exp,2022.2.2,Win32,60.0240096,,,,,,,,,,,,,,,,,,masks/mask_001.jpg,,,,,,,,,,,,,,,,,,,,,,,,,,,,,,,,,,,,,,,,,,,,,,,,0,3,3,0,1,,,,,,,,,,,,,,,,,,,,,,,,,,,,,,,,,,,,,,,,,
387355,001,2022-11-21_00h53.00.828,Info_measure_main_exp,2022.2.2,Win32,60.0240096,,,,,,,,,,,,,,,,,,masks/mask_004.jpg,,,,,,,,,,,,,,,,,,,,,,,,,,,,,,,,,,,,,,,,,,,,,,,,0,4,4,3,1,,,,,,,,,,,,,,,,,,,,,,,,,,,,,,,,,,,,,,,,,
387355,001,2022-11-21_00h53.00.828,Info_measure_main_exp,2022.2.2,Win32,60.0240096,,,,,,,,,,,,,,,,,,,,,,,,,,,,,,7,0.817,1,,,,,,,,,,,,0,131,5,5,1950,2214,absent_patch/patch0001950.jpg,absent_patch/patch0002214.jpg,,,,,,,,,,,,,,,,,,,,0.047222222,0.15,1,0,0,response1disk,31,0.002777778,0.009722222,1,0,0,center_square,0,30,30,85,1,,,,,,,,,,,,,,,,,,,,,,,
387355,001,2022-11-21_00h53.00.828,Info_measure_main_exp,2022.2.2,Win32,60.0240096,,,,,,,,,,,,,,,,,,masks/mask_002.jpg,,,,,,,,,,,,,,,,,,,,,,,,,,,,,,,,,,,,,,,,,,,0,0,0,1,1,,,,,,,,,,,,,,,,,,,,,,,,,,,,,,,,,,,,,,,,,,,,,,
387355,001,2022-11-21_00h53.00.828,Info_measure_main_exp,2022.2.2,Win32,60.0240096,,,,,,,,,,,,,,,,,,masks/mask_004.jpg,,,,,,,,,,,,,,,,,,,,,,,,,,,,,,,,,,,,,,,,,,,0,1,1,3,1,,,,,,,,,,,,,,,,,,,,,,,,,,,,,,,,,,,,,,,,,,,,,,
387355,001,2022-11-21_00h53.00.828,Info_measure_main_exp,2022.2.2,Win32,60.0240096,,,,,,,,,,,,,,,,,,masks/mask_005.jpg,,,,,,,,,,,,,,,,,,,,,,,,,,,,,,,,,,,,,,,,,,,0,2,2,4,1,,,,,,,,,,,,,,,,,,,,,,,,,,,,,,,,,,,,,,,,,,,,,,
387355,001,2022-11-21_00h53.00.828,Info_measure_main_exp,2022.2.2,Win32,60.0240096,,,,,,,,,,,,,,,,,,masks/mask_001.jpg,,,,,,,,,,,,,,,,,,,,,,,,,,,,,,,,,,,,,,,,,,,0,3,3,0,1,,,,,,,,,,,,,,,,,,,,,,,,,,,,,,,,,,,,,,,,,,,,,,
387355,001,2022-11-21_00h53.00.828,Info_measure_main_exp,2022.2.2,Win32,60.0240096,,,,,,,,,,,,,,,,,,masks/mask_003.jpg,,,,,,,,,,,,,,,,,,,,,,,,,,,,,,,,,,,,,,,,,,,0,4,4,2,1,,,,,,,,,,,,,,,,,,,,,,,,,,,,,,,,,,,,,,,,,,,,,,
387355,001,2022-11-21_00h53.00.828,Info_measure_main_exp,2022.2.2,Win32,60.0240096,,,,,,,,,,,,,,,,,,masks/mask_005.jpg,,,,,,,,,,,,,,,,,,,,,,,,,,,,,,,,,,,,,,,,,,,,,,,,0,0,0,4,1,,,,,,,,,,,,,,,,,,,,,,,,,,,,,,,,,,,,,,,,,
387355,001,2022-11-21_00h53.00.828,Info_measure_main_exp,2022.2.2,Win32,60.0240096,,,,,,,,,,,,,,,,,,masks/mask_004.jpg,,,,,,,,,,,,,,,,,,,,,,,,,,,,,,,,,,,,,,,,,,,,,,,,0,1,1,3,1,,,,,,,,,,,,,,,,,,,,,,,,,,,,,,,,,,,,,,,,,
387355,001,2022-11-21_00h53.00.828,Info_measure_main_exp,2022.2.2,Win32,60.0240096,,,,,,,,,,,,,,,,,,masks/mask_001.jpg,,,,,,,,,,,,,,,,,,,,,,,,,,,,,,,,,,,,,,,,,,,,,,,,0,2,2,0,1,,,,,,,,,,,,,,,,,,,,,,,,,,,,,,,,,,,,,,,,,
387355,001,2022-11-21_00h53.00.828,Info_measure_main_exp,2022.2.2,Win32,60.0240096,,,,,,,,,,,,,,,,,,masks/mask_002.jpg,,,,,,,,,,,,,,,,,,,,,,,,,,,,,,,,,,,,,,,,,,,,,,,,0,3,3,1,1,,,,,,,,,,,,,,,,,,,,,,,,,,,,,,,,,,,,,,,,,
387355,001,2022-11-21_00h53.00.828,Info_measure_main_exp,2022.2.2,Win32,60.0240096,,,,,,,,,,,,,,,,,,masks/mask_003.jpg,,,,,,,,,,,,,,,,,,,,,,,,,,,,,,,,,,,,,,,,,,,,,,,,0,4,4,2,1,,,,,,,,,,,,,,,,,,,,,,,,,,,,,,,,,,,,,,,,,
387355,001,2022-11-21_00h53.00.828,Info_measure_main_exp,2022.2.2,Win32,60.0240096,,,,,,,,,,,,,,,,,,,,,,,,,,,,,,0,0.45,1,,,,,,,,,,,,0,131,5,5,1974,1974,absent_patch/patch0001974.jpg,absent_patch/patch0001974.jpg,,,,,,,,,,,,,,,,,,,,-0.065277778,0.163888889,1,0,0,response7disk,32,0.006944444,-0.005555556,1,0,0,center_square,0,31,31,113,1,,,,,,,,,,,,,,,,,,,,,,,
387355,001,2022-11-21_00h53.00.828,Info_measure_main_exp,2022.2.2,Win32,60.0240096,,,,,,,,,,,,,,,,,,masks/mask_003.jpg,,,,,,,,,,,,,,,,,,,,,,,,,,,,,,,,,,,,,,,,,,,0,0,0,2,1,,,,,,,,,,,,,,,,,,,,,,,,,,,,,,,,,,,,,,,,,,,,,,
387355,001,2022-11-21_00h53.00.828,Info_measure_main_exp,2022.2.2,Win32,60.0240096,,,,,,,,,,,,,,,,,,masks/mask_001.jpg,,,,,,,,,,,,,,,,,,,,,,,,,,,,,,,,,,,,,,,,,,,0,1,1,0,1,,,,,,,,,,,,,,,,,,,,,,,,,,,,,,,,,,,,,,,,,,,,,,
387355,001,2022-11-21_00h53.00.828,Info_measure_main_exp,2022.2.2,Win32,60.0240096,,,,,,,,,,,,,,,,,,masks/mask_005.jpg,,,,,,,,,,,,,,,,,,,,,,,,,,,,,,,,,,,,,,,,,,,0,2,2,4,1,,,,,,,,,,,,,,,,,,,,,,,,,,,,,,,,,,,,,,,,,,,,,,
387355,001,2022-11-21_00h53.00.828,Info_measure_main_exp,2022.2.2,Win32,60.0240096,,,,,,,,,,,,,,,,,,masks/mask_002.jpg,,,,,,,,,,,,,,,,,,,,,,,,,,,,,,,,,,,,,,,,,,,0,3,3,1,1,,,,,,,,,,,,,,,,,,,,,,,,,,,,,,,,,,,,,,,,,,,,,,
387355,001,2022-11-21_00h53.00.828,Info_measure_main_exp,2022.2.2,Win32,60.0240096,,,,,,,,,,,,,,,,,,masks/mask_004.jpg,,,,,,,,,,,,,,,,,,,,,,,,,,,,,,,,,,,,,,,,,,,0,4,4,3,1,,,,,,,,,,,,,,,,,,,,,,,,,,,,,,,,,,,,,,,,,,,,,,
387355,001,2022-11-21_00h53.00.828,Info_measure_main_exp,2022.2.2,Win32,60.0240096,,,,,,,,,,,,,,,,,,masks/mask_004.jpg,,,,,,,,,,,,,,,,,,,,,,,,,,,,,,,,,,,,,,,,,,,,,,,,0,0,0,3,1,,,,,,,,,,,,,,,,,,,,,,,,,,,,,,,,,,,,,,,,,
387355,001,2022-11-21_00h53.00.828,Info_measure_main_exp,2022.2.2,Win32,60.0240096,,,,,,,,,,,,,,,,,,masks/mask_003.jpg,,,,,,,,,,,,,,,,,,,,,,,,,,,,,,,,,,,,,,,,,,,,,,,,0,1,1,2,1,,,,,,,,,,,,,,,,,,,,,,,,,,,,,,,,,,,,,,,,,
387355,001,2022-11-21_00h53.00.828,Info_measure_main_exp,2022.2.2,Win32,60.0240096,,,,,,,,,,,,,,,,,,masks/mask_002.jpg,,,,,,,,,,,,,,,,,,,,,,,,,,,,,,,,,,,,,,,,,,,,,,,,0,2,2,1,1,,,,,,,,,,,,,,,,,,,,,,,,,,,,,,,,,,,,,,,,,
387355,001,2022-11-21_00h53.00.828,Info_measure_main_exp,2022.2.2,Win32,60.0240096,,,,,,,,,,,,,,,,,,masks/mask_005.jpg,,,,,,,,,,,,,,,,,,,,,,,,,,,,,,,,,,,,,,,,,,,,,,,,0,3,3,4,1,,,,,,,,,,,,,,,,,,,,,,,,,,,,,,,,,,,,,,,,,
387355,001,2022-11-21_00h53.00.828,Info_measure_main_exp,2022.2.2,Win32,60.0240096,,,,,,,,,,,,,,,,,,masks/mask_001.jpg,,,,,,,,,,,,,,,,,,,,,,,,,,,,,,,,,,,,,,,,,,,,,,,,0,4,4,0,1,,,,,,,,,,,,,,,,,,,,,,,,,,,,,,,,,,,,,,,,,
387355,001,2022-11-21_00h53.00.828,Info_measure_main_exp,2022.2.2,Win32,60.0240096,,,,,,,,,,,,,,,,,,,,,,,,,,,,,,3,1.217,1,,,,,,,,,,,,0,131,5,5,2298,2190,absent_patch/patch0002298.jpg,absent_patch/patch0002190.jpg,,,,,,,,,,,,,,,,,,,,-0.0625,-0.156944444,1,0,0,response5disk,33,0.009722222,-0.011111111,1,0,0,center_square,0,32,32,20,1,,,,,,,,,,,,,,,,,,,,,,,
387355,001,2022-11-21_00h53.00.828,Info_measure_main_exp,2022.2.2,Win32,60.0240096,,,,,,,,,,,,,,,,,,masks/mask_001.jpg,,,,,,,,,,,,,,,,,,,,,,,,,,,,,,,,,,,,,,,,,,,0,0,0,0,1,,,,,,,,,,,,,,,,,,,,,,,,,,,,,,,,,,,,,,,,,,,,,,
387355,001,2022-11-21_00h53.00.828,Info_measure_main_exp,2022.2.2,Win32,60.0240096,,,,,,,,,,,,,,,,,,masks/mask_002.jpg,,,,,,,,,,,,,,,,,,,,,,,,,,,,,,,,,,,,,,,,,,,0,1,1,1,1,,,,,,,,,,,,,,,,,,,,,,,,,,,,,,,,,,,,,,,,,,,,,,
387355,001,2022-11-21_00h53.00.828,Info_measure_main_exp,2022.2.2,Win32,60.0240096,,,,,,,,,,,,,,,,,,masks/mask_003.jpg,,,,,,,,,,,,,,,,,,,,,,,,,,,,,,,,,,,,,,,,,,,0,2,2,2,1,,,,,,,,,,,,,,,,,,,,,,,,,,,,,,,,,,,,,,,,,,,,,,
387355,001,2022-11-21_00h53.00.828,Info_measure_main_exp,2022.2.2,Win32,60.0240096,,,,,,,,,,,,,,,,,,masks/mask_004.jpg,,,,,,,,,,,,,,,,,,,,,,,,,,,,,,,,,,,,,,,,,,,0,3,3,3,1,,,,,,,,,,,,,,,,,,,,,,,,,,,,,,,,,,,,,,,,,,,,,,
387355,001,2022-11-21_00h53.00.828,Info_measure_main_exp,2022.2.2,Win32,60.0240096,,,,,,,,,,,,,,,,,,masks/mask_005.jpg,,,,,,,,,,,,,,,,,,,,,,,,,,,,,,,,,,,,,,,,,,,0,4,4,4,1,,,,,,,,,,,,,,,,,,,,,,,,,,,,,,,,,,,,,,,,,,,,,,
387355,001,2022-11-21_00h53.00.828,Info_measure_main_exp,2022.2.2,Win32,60.0240096,,,,,,,,,,,,,,,,,,masks/mask_005.jpg,,,,,,,,,,,,,,,,,,,,,,,,,,,,,,,,,,,,,,,,,,,,,,,,0,0,0,4,1,,,,,,,,,,,,,,,,,,,,,,,,,,,,,,,,,,,,,,,,,
387355,001,2022-11-21_00h53.00.828,Info_measure_main_exp,2022.2.2,Win32,60.0240096,,,,,,,,,,,,,,,,,,masks/mask_003.jpg,,,,,,,,,,,,,,,,,,,,,,,,,,,,,,,,,,,,,,,,,,,,,,,,0,1,1,2,1,,,,,,,,,,,,,,,,,,,,,,,,,,,,,,,,,,,,,,,,,
387355,001,2022-11-21_00h53.00.828,Info_measure_main_exp,2022.2.2,Win32,60.0240096,,,,,,,,,,,,,,,,,,masks/mask_001.jpg,,,,,,,,,,,,,,,,,,,,,,,,,,,,,,,,,,,,,,,,,,,,,,,,0,2,2,0,1,,,,,,,,,,,,,,,,,,,,,,,,,,,,,,,,,,,,,,,,,
387355,001,2022-11-21_00h53.00.828,Info_measure_main_exp,2022.2.2,Win32,60.0240096,,,,,,,,,,,,,,,,,,masks/mask_002.jpg,,,,,,,,,,,,,,,,,,,,,,,,,,,,,,,,,,,,,,,,,,,,,,,,0,3,3,1,1,,,,,,,,,,,,,,,,,,,,,,,,,,,,,,,,,,,,,,,,,
387355,001,2022-11-21_00h53.00.828,Info_measure_main_exp,2022.2.2,Win32,60.0240096,,,,,,,,,,,,,,,,,,masks/mask_004.jpg,,,,,,,,,,,,,,,,,,,,,,,,,,,,,,,,,,,,,,,,,,,,,,,,0,4,4,3,1,,,,,,,,,,,,,,,,,,,,,,,,,,,,,,,,,,,,,,,,,
387355,001,2022-11-21_00h53.00.828,Info_measure_main_exp,2022.2.2,Win32,60.0240096,,,,,,,,,,,,,,,,,,,,,,,,,,,,,,7,0.75,1,,,,,,,,,,,,0,131,5,5,2274,1974,absent_patch/patch0002274.jpg,absent_patch/patch0001974.jpg,,,,,,,,,,,,,,,,,,,,0.125,0.147222222,1,0,0,response1disk,34,-0.002777778,-0.001388889,1,0,0,center_square,0,33,33,90,1,,,,,,,,,,,,,,,,,,,,,,,
387355,001,2022-11-21_00h53.00.828,Info_measure_main_exp,2022.2.2,Win32,60.0240096,,,,,,,,,,,,,,,,,,masks/mask_001.jpg,,,,,,,,,,,,,,,,,,,,,,,,,,,,,,,,,,,,,,,,,,,0,0,0,0,1,,,,,,,,,,,,,,,,,,,,,,,,,,,,,,,,,,,,,,,,,,,,,,
387355,001,2022-11-21_00h53.00.828,Info_measure_main_exp,2022.2.2,Win32,60.0240096,,,,,,,,,,,,,,,,,,masks/mask_003.jpg,,,,,,,,,,,,,,,,,,,,,,,,,,,,,,,,,,,,,,,,,,,0,1,1,2,1,,,,,,,,,,,,,,,,,,,,,,,,,,,,,,,,,,,,,,,,,,,,,,
387355,001,2022-11-21_00h53.00.828,Info_measure_main_exp,2022.2.2,Win32,60.0240096,,,,,,,,,,,,,,,,,,masks/mask_005.jpg,,,,,,,,,,,,,,,,,,,,,,,,,,,,,,,,,,,,,,,,,,,0,2,2,4,1,,,,,,,,,,,,,,,,,,,,,,,,,,,,,,,,,,,,,,,,,,,,,,
387355,001,2022-11-21_00h53.00.828,Info_measure_main_exp,2022.2.2,Win32,60.0240096,,,,,,,,,,,,,,,,,,masks/mask_002.jpg,,,,,,,,,,,,,,,,,,,,,,,,,,,,,,,,,,,,,,,,,,,0,3,3,1,1,,,,,,,,,,,,,,,,,,,,,,,,,,,,,,,,,,,,,,,,,,,,,,
387355,001,2022-11-21_00h53.00.828,Info_measure_main_exp,2022.2.2,Win32,60.0240096,,,,,,,,,,,,,,,,,,masks/mask_004.jpg,,,,,,,,,,,,,,,,,,,,,,,,,,,,,,,,,,,,,,,,,,,0,4,4,3,1,,,,,,,,,,,,,,,,,,,,,,,,,,,,,,,,,,,,,,,,,,,,,,
387355,001,2022-11-21_00h53.00.828,Info_measure_main_exp,2022.2.2,Win32,60.0240096,,,,,,,,,,,,,,,,,,masks/mask_004.jpg,,,,,,,,,,,,,,,,,,,,,,,,,,,,,,,,,,,,,,,,,,,,,,,,0,0,0,3,1,,,,,,,,,,,,,,,,,,,,,,,,,,,,,,,,,,,,,,,,,
387355,001,2022-11-21_00h53.00.828,Info_measure_main_exp,2022.2.2,Win32,60.0240096,,,,,,,,,,,,,,,,,,masks/mask_005.jpg,,,,,,,,,,,,,,,,,,,,,,,,,,,,,,,,,,,,,,,,,,,,,,,,0,1,1,4,1,,,,,,,,,,,,,,,,,,,,,,,,,,,,,,,,,,,,,,,,,
387355,001,2022-11-21_00h53.00.828,Info_measure_main_exp,2022.2.2,Win32,60.0240096,,,,,,,,,,,,,,,,,,masks/mask_001.jpg,,,,,,,,,,,,,,,,,,,,,,,,,,,,,,,,,,,,,,,,,,,,,,,,0,2,2,0,1,,,,,,,,,,,,,,,,,,,,,,,,,,,,,,,,,,,,,,,,,
387355,001,2022-11-21_00h53.00.828,Info_measure_main_exp,2022.2.2,Win32,60.0240096,,,,,,,,,,,,,,,,,,masks/mask_002.jpg,,,,,,,,,,,,,,,,,,,,,,,,,,,,,,,,,,,,,,,,,,,,,,,,0,3,3,1,1,,,,,,,,,,,,,,,,,,,,,,,,,,,,,,,,,,,,,,,,,
387355,001,2022-11-21_00h53.00.828,Info_measure_main_exp,2022.2.2,Win32,60.0240096,,,,,,,,,,,,,,,,,,masks/mask_003.jpg,,,,,,,,,,,,,,,,,,,,,,,,,,,,,,,,,,,,,,,,,,,,,,,,0,4,4,2,1,,,,,,,,,,,,,,,,,,,,,,,,,,,,,,,,,,,,,,,,,
387355,001,2022-11-21_00h53.00.828,Info_measure_main_exp,2022.2.2,Win32,60.0240096,,,,,,,,,,,,,,,,,,,,,,,,,,,,,,7,0.484,1,,,,,,,,,,,,0,131,5,5,1950,2238,absent_patch/patch0001950.jpg,absent_patch/patch0002238.jpg,,,,,,,,,,,,,,,,,,,,0.045833333,0.1125,1,0,0,response1disk,35,0.004166667,0.004166667,1,0,0,center_square,0,34,34,8,1,,,,,,,,,,,,,,,,,,,,,,,
