participant,session,date,expName,psychopyVersion,OS,frameRate,space_press_continue.keys,space_press_continue.rt,space_press_continue_2.keys,space_press_continue_2.rt,space_press_continue_3.keys,space_press_continue_3.rt,space_press_continue_4.keys,space_press_continue_4.rt,space_press_continue_5.keys,space_press_continue_5.rt,space_press_continue_6.keys,space_press_continue_6.rt,prac_mask_loop_1.thisRepN,prac_mask_loop_1.thisTrialN,prac_mask_loop_1.thisN,prac_mask_loop_1.thisIndex,prac_mask_loop_1.ran,mask_name,prac_mask_loop_2.thisRepN,prac_mask_loop_2.thisTrialN,prac_mask_loop_2.thisN,prac_mask_loop_2.thisIndex,prac_mask_loop_2.ran,mouse_2.x,mouse_2.y,mouse_2.leftButton,mouse_2.midButton,mouse_2.rightButton,mouse_2.clicked_name,similarity,response_time,Pass,mouse_12.x,mouse_12.y,mouse_12.leftButton,mouse_12.midButton,mouse_12.rightButton,mouse_12.clicked_name,prac_loop.thisRepN,prac_loop.thisTrialN,prac_loop.thisN,prac_loop.thisIndex,prac_loop.ran,Pair_type,Image_num,Patch_1_loc,Patch_2_loc,Patch_1_info,Patch_2_info,Patch_1_name,Patch_2_name,mouse_1.x,mouse_1.y,mouse_1.leftButton,mouse_1.midButton,mouse_1.rightButton,mouse_1.time,mouse_1.clicked_name,space_press_continue_7.keys,space_press_continue_7.rt,mask_loop.thisRepN,mask_loop.thisTrialN,mask_loop.thisN,mask_loop.thisIndex,mask_loop.ran,mask_loop_2.thisRepN,mask_loop_2.thisTrialN,mask_loop_2.thisN,mask_loop_2.thisIndex,mask_loop_2.ran,mouse.x,mouse.y,mouse.leftButton,mouse.midButton,mouse.rightButton,mouse.clicked_name,trialNumber,mouse_11.x,mouse_11.y,mouse_11.leftButton,mouse_11.midButton,mouse_11.rightButton,mouse_11.clicked_name,first_pass_loop.thisRepN,first_pass_loop.thisTrialN,first_pass_loop.thisN,first_pass_loop.thisIndex,first_pass_loop.ran,mask_loop_3.thisRepN,mask_loop_3.thisTrialN,mask_loop_3.thisN,mask_loop_3.thisIndex,mask_loop_3.ran,mask_loop_4.thisRepN,mask_loop_4.thisTrialN,mask_loop_4.thisN,mask_loop_4.thisIndex,mask_loop_4.ran,mouse_3.x,mouse_3.y,mouse_3.leftButton,mouse_3.midButton,mouse_3.rightButton,mouse_3.clicked_name,double_pass_loop.thisRepN,double_pass_loop.thisTrialN,double_pass_loop.thisN,double_pass_loop.thisIndex,double_pass_loop.ran,space_exit.keys,space_exit.rt
397401,001,2022-11-20_23h54.00.310,Info_measure_main_exp,2022.2.2,Win32,60.28090904,,,,,,,,,,,,,,,,,,,,,,,,,,,,,,,,,,,,,,,,,,,,,,,,,,,,,,,,,,,,,,,,,,,,,,,,,,,,,,,,,,,,,,,,,,,,,,,,,,,,,,,,,,,,,,,
397401,001,2022-11-20_23h54.00.310,Info_measure_main_exp,2022.2.2,Win32,60.28090904,,,,,,,,,,,,,,,,,,,,,,,,,,,,,,,,,,,,,,,,,,,,,,,,,,,,,,,,,,,,,,,,,,,,,,,,,,,,,,,,,,,,,,,,,,,,,,,,,,,,,,,,,,,,,,,
397401,001,2022-11-20_23h54.00.310,Info_measure_main_exp,2022.2.2,Win32,60.28090904,space,11.4402,,,,,,,,,,,,,,,,,,,,,,,,,,,,,,,,,,,,,,,,,,,,,,,,,,,,,,,,,,,,,,,,,,,,,,,,,,,,,,,,,,,,,,,,,,,,,,,,,,,,,,,,,,,,,
397401,001,2022-11-20_23h54.00.310,Info_measure_main_exp,2022.2.2,Win32,60.28090904,,,space,18.9681,,,,,,,,,,,,,,,,,,,,,,,,,,,,,,,,,,,,,,,,,,,,,,,,,,,,,,,,,,,,,,,,,,,,,,,,,,,,,,,,,,,,,,,,,,,,,,,,,,,,,,,,,,,
397401,001,2022-11-20_23h54.00.310,Info_measure_main_exp,2022.2.2,Win32,60.28090904,,,,,space,10.1072,,,,,,,,,,,,,,,,,,,,,,,,,,,,,,,,,,,,,,,,,,,,,,,,,,,,,,,,,,,,,,,,,,,,,,,,,,,,,,,,,,,,,,,,,,,,,,,,,,,,,,,,,
397401,001,2022-11-20_23h54.00.310,Info_measure_main_exp,2022.2.2,Win32,60.28090904,,,,,,,space,22.3486,,,,,,,,,,,,,,,,,,,,,,,,,,,,,,,,,,,,,,,,,,,,,,,,,,,,,,,,,,,,,,,,,,,,,,,,,,,,,,,,,,,,,,,,,,,,,,,,,,,,,,,
397401,001,2022-11-20_23h54.00.310,Info_measure_main_exp,2022.2.2,Win32,60.28090904,,,,,,,,,space,7.3415,,,,,,,,,,,,,,,,,,,,,,,,,,,,,,,,,,,,,,,,,,,,,,,,,,,,,,,,,,,,,,,,,,,,,,,,,,,,,,,,,,,,,,,,,,,,,,,,,,,,,
397401,001,2022-11-20_23h54.00.310,Info_measure_main_exp,2022.2.2,Win32,60.28090904,,,,,,,,,,,space,6.2074,,,,,,,,,,,,,,,,,,,,,,,,,,,,,,,,,,,,,,,,,,,,,,,,,,,,,,,,,,,,,,,,,,,,,,,,,,,,,,,,,,,,,,,,,,,,,,,,,,,
397401,001,2022-11-20_23h54.00.310,Info_measure_main_exp,2022.2.2,Win32,60.28090904,,,,,,,,,,,,,0,0,0,4,1,masks/mask_005.jpg,,,,,,,,,,,,,,,,,,,,,,,,,,,,,,,,,,,,,,,,,,,,,,,,,,,,,,,,,,,,,,,,,,,,,,,,,,,,,,,,,,,,,,,,,,,,,
397401,001,2022-11-20_23h54.00.310,Info_measure_main_exp,2022.2.2,Win32,60.28090904,,,,,,,,,,,,,0,1,1,2,1,masks/mask_003.jpg,,,,,,,,,,,,,,,,,,,,,,,,,,,,,,,,,,,,,,,,,,,,,,,,,,,,,,,,,,,,,,,,,,,,,,,,,,,,,,,,,,,,,,,,,,,,,
397401,001,2022-11-20_23h54.00.310,Info_measure_main_exp,2022.2.2,Win32,60.28090904,,,,,,,,,,,,,0,2,2,1,1,masks/mask_002.jpg,,,,,,,,,,,,,,,,,,,,,,,,,,,,,,,,,,,,,,,,,,,,,,,,,,,,,,,,,,,,,,,,,,,,,,,,,,,,,,,,,,,,,,,,,,,,,
397401,001,2022-11-20_23h54.00.310,Info_measure_main_exp,2022.2.2,Win32,60.28090904,,,,,,,,,,,,,0,3,3,0,1,masks/mask_001.jpg,,,,,,,,,,,,,,,,,,,,,,,,,,,,,,,,,,,,,,,,,,,,,,,,,,,,,,,,,,,,,,,,,,,,,,,,,,,,,,,,,,,,,,,,,,,,,
397401,001,2022-11-20_23h54.00.310,Info_measure_main_exp,2022.2.2,Win32,60.28090904,,,,,,,,,,,,,0,4,4,3,1,masks/mask_004.jpg,,,,,,,,,,,,,,,,,,,,,,,,,,,,,,,,,,,,,,,,,,,,,,,,,,,,,,,,,,,,,,,,,,,,,,,,,,,,,,,,,,,,,,,,,,,,,
397401,001,2022-11-20_23h54.00.310,Info_measure_main_exp,2022.2.2,Win32,60.28090904,,,,,,,,,,,,,,,,,,masks/mask_001.jpg,0,0,0,0,1,,,,,,,,,,,,,,,,,,,,,,,,,,,,,,,,,,,,,,,,,,,,,,,,,,,,,,,,,,,,,,,,,,,,,,,,,,,,,,,,,,,,,,,,
397401,001,2022-11-20_23h54.00.310,Info_measure_main_exp,2022.2.2,Win32,60.28090904,,,,,,,,,,,,,,,,,,masks/mask_005.jpg,0,1,1,4,1,,,,,,,,,,,,,,,,,,,,,,,,,,,,,,,,,,,,,,,,,,,,,,,,,,,,,,,,,,,,,,,,,,,,,,,,,,,,,,,,,,,,,,,,
397401,001,2022-11-20_23h54.00.310,Info_measure_main_exp,2022.2.2,Win32,60.28090904,,,,,,,,,,,,,,,,,,masks/mask_002.jpg,0,2,2,1,1,,,,,,,,,,,,,,,,,,,,,,,,,,,,,,,,,,,,,,,,,,,,,,,,,,,,,,,,,,,,,,,,,,,,,,,,,,,,,,,,,,,,,,,,
397401,001,2022-11-20_23h54.00.310,Info_measure_main_exp,2022.2.2,Win32,60.28090904,,,,,,,,,,,,,,,,,,masks/mask_004.jpg,0,3,3,3,1,,,,,,,,,,,,,,,,,,,,,,,,,,,,,,,,,,,,,,,,,,,,,,,,,,,,,,,,,,,,,,,,,,,,,,,,,,,,,,,,,,,,,,,,
397401,001,2022-11-20_23h54.00.310,Info_measure_main_exp,2022.2.2,Win32,60.28090904,,,,,,,,,,,,,,,,,,masks/mask_003.jpg,0,4,4,2,1,,,,,,,,,,,,,,,,,,,,,,,,,,,,,,,,,,,,,,,,,,,,,,,,,,,,,,,,,,,,,,,,,,,,,,,,,,,,,,,,,,,,,,,,
397401,001,2022-11-20_23h54.00.310,Info_measure_main_exp,2022.2.2,Win32,60.28090904,,,,,,,,,,,,,,,,,,,,,,,,0.064814815,0.128703704,1,0,0,response1disk,7,79.9232,1,0.000925926,0,1,0,0,center_square,0,0,0,2,1,0,131,5,5,2526,2526,prac_patch/patch0002526.jpg,prac_patch/patch0002526.jpg,,,,,,,,,,,,,,,,,,,,,,,,,,,,,,,,,,,,,,,,,,,,,,,,,,,,,,,,,,,,
397401,001,2022-11-20_23h54.00.310,Info_measure_main_exp,2022.2.2,Win32,60.28090904,,,,,,,,,,,,,0,0,0,3,1,masks/mask_004.jpg,,,,,,,,,,,,,,,,,,,,,,,,,,,,,,,,,,,,,,,,,,,,,,,,,,,,,,,,,,,,,,,,,,,,,,,,,,,,,,,,,,,,,,,,,,,,,
397401,001,2022-11-20_23h54.00.310,Info_measure_main_exp,2022.2.2,Win32,60.28090904,,,,,,,,,,,,,0,1,1,4,1,masks/mask_005.jpg,,,,,,,,,,,,,,,,,,,,,,,,,,,,,,,,,,,,,,,,,,,,,,,,,,,,,,,,,,,,,,,,,,,,,,,,,,,,,,,,,,,,,,,,,,,,,
397401,001,2022-11-20_23h54.00.310,Info_measure_main_exp,2022.2.2,Win32,60.28090904,,,,,,,,,,,,,0,2,2,1,1,masks/mask_002.jpg,,,,,,,,,,,,,,,,,,,,,,,,,,,,,,,,,,,,,,,,,,,,,,,,,,,,,,,,,,,,,,,,,,,,,,,,,,,,,,,,,,,,,,,,,,,,,
397401,001,2022-11-20_23h54.00.310,Info_measure_main_exp,2022.2.2,Win32,60.28090904,,,,,,,,,,,,,0,3,3,2,1,masks/mask_003.jpg,,,,,,,,,,,,,,,,,,,,,,,,,,,,,,,,,,,,,,,,,,,,,,,,,,,,,,,,,,,,,,,,,,,,,,,,,,,,,,,,,,,,,,,,,,,,,
397401,001,2022-11-20_23h54.00.310,Info_measure_main_exp,2022.2.2,Win32,60.28090904,,,,,,,,,,,,,0,4,4,0,1,masks/mask_001.jpg,,,,,,,,,,,,,,,,,,,,,,,,,,,,,,,,,,,,,,,,,,,,,,,,,,,,,,,,,,,,,,,,,,,,,,,,,,,,,,,,,,,,,,,,,,,,,
397401,001,2022-11-20_23h54.00.310,Info_measure_main_exp,2022.2.2,Win32,60.28090904,,,,,,,,,,,,,,,,,,masks/mask_002.jpg,0,0,0,1,1,,,,,,,,,,,,,,,,,,,,,,,,,,,,,,,,,,,,,,,,,,,,,,,,,,,,,,,,,,,,,,,,,,,,,,,,,,,,,,,,,,,,,,,,
397401,001,2022-11-20_23h54.00.310,Info_measure_main_exp,2022.2.2,Win32,60.28090904,,,,,,,,,,,,,,,,,,masks/mask_003.jpg,0,1,1,2,1,,,,,,,,,,,,,,,,,,,,,,,,,,,,,,,,,,,,,,,,,,,,,,,,,,,,,,,,,,,,,,,,,,,,,,,,,,,,,,,,,,,,,,,,
397401,001,2022-11-20_23h54.00.310,Info_measure_main_exp,2022.2.2,Win32,60.28090904,,,,,,,,,,,,,,,,,,masks/mask_005.jpg,0,2,2,4,1,,,,,,,,,,,,,,,,,,,,,,,,,,,,,,,,,,,,,,,,,,,,,,,,,,,,,,,,,,,,,,,,,,,,,,,,,,,,,,,,,,,,,,,,
397401,001,2022-11-20_23h54.00.310,Info_measure_main_exp,2022.2.2,Win32,60.28090904,,,,,,,,,,,,,,,,,,masks/mask_004.jpg,0,3,3,3,1,,,,,,,,,,,,,,,,,,,,,,,,,,,,,,,,,,,,,,,,,,,,,,,,,,,,,,,,,,,,,,,,,,,,,,,,,,,,,,,,,,,,,,,,
397401,001,2022-11-20_23h54.00.310,Info_measure_main_exp,2022.2.2,Win32,60.28090904,,,,,,,,,,,,,,,,,,masks/mask_001.jpg,0,4,4,0,1,,,,,,,,,,,,,,,,,,,,,,,,,,,,,,,,,,,,,,,,,,,,,,,,,,,,,,,,,,,,,,,,,,,,,,,,,,,,,,,,,,,,,,,,
397401,001,2022-11-20_23h54.00.310,Info_measure_main_exp,2022.2.2,Win32,60.28090904,,,,,,,,,,,,,,,,,,,,,,,,0.068518519,0.156481481,1,0,0,response1disk,7,93.6057,1,0.005555556,-0.006481481,1,0,0,center_square,0,1,1,0,1,0,131,5,5,2370,2406,prac_patch/patch0002370.jpg,prac_patch/patch0002406.jpg,,,,,,,,,,,,,,,,,,,,,,,,,,,,,,,,,,,,,,,,,,,,,,,,,,,,,,,,,,,,
397401,001,2022-11-20_23h54.00.310,Info_measure_main_exp,2022.2.2,Win32,60.28090904,,,,,,,,,,,,,0,0,0,3,1,masks/mask_004.jpg,,,,,,,,,,,,,,,,,,,,,,,,,,,,,,,,,,,,,,,,,,,,,,,,,,,,,,,,,,,,,,,,,,,,,,,,,,,,,,,,,,,,,,,,,,,,,
397401,001,2022-11-20_23h54.00.310,Info_measure_main_exp,2022.2.2,Win32,60.28090904,,,,,,,,,,,,,0,1,1,1,1,masks/mask_002.jpg,,,,,,,,,,,,,,,,,,,,,,,,,,,,,,,,,,,,,,,,,,,,,,,,,,,,,,,,,,,,,,,,,,,,,,,,,,,,,,,,,,,,,,,,,,,,,
397401,001,2022-11-20_23h54.00.310,Info_measure_main_exp,2022.2.2,Win32,60.28090904,,,,,,,,,,,,,0,2,2,0,1,masks/mask_001.jpg,,,,,,,,,,,,,,,,,,,,,,,,,,,,,,,,,,,,,,,,,,,,,,,,,,,,,,,,,,,,,,,,,,,,,,,,,,,,,,,,,,,,,,,,,,,,,
397401,001,2022-11-20_23h54.00.310,Info_measure_main_exp,2022.2.2,Win32,60.28090904,,,,,,,,,,,,,0,3,3,4,1,masks/mask_005.jpg,,,,,,,,,,,,,,,,,,,,,,,,,,,,,,,,,,,,,,,,,,,,,,,,,,,,,,,,,,,,,,,,,,,,,,,,,,,,,,,,,,,,,,,,,,,,,
397401,001,2022-11-20_23h54.00.310,Info_measure_main_exp,2022.2.2,Win32,60.28090904,,,,,,,,,,,,,0,4,4,2,1,masks/mask_003.jpg,,,,,,,,,,,,,,,,,,,,,,,,,,,,,,,,,,,,,,,,,,,,,,,,,,,,,,,,,,,,,,,,,,,,,,,,,,,,,,,,,,,,,,,,,,,,,
397401,001,2022-11-20_23h54.00.310,Info_measure_main_exp,2022.2.2,Win32,60.28090904,,,,,,,,,,,,,,,,,,masks/mask_005.jpg,0,0,0,4,1,,,,,,,,,,,,,,,,,,,,,,,,,,,,,,,,,,,,,,,,,,,,,,,,,,,,,,,,,,,,,,,,,,,,,,,,,,,,,,,,,,,,,,,,
397401,001,2022-11-20_23h54.00.310,Info_measure_main_exp,2022.2.2,Win32,60.28090904,,,,,,,,,,,,,,,,,,masks/mask_001.jpg,0,1,1,0,1,,,,,,,,,,,,,,,,,,,,,,,,,,,,,,,,,,,,,,,,,,,,,,,,,,,,,,,,,,,,,,,,,,,,,,,,,,,,,,,,,,,,,,,,
397401,001,2022-11-20_23h54.00.310,Info_measure_main_exp,2022.2.2,Win32,60.28090904,,,,,,,,,,,,,,,,,,masks/mask_002.jpg,0,2,2,1,1,,,,,,,,,,,,,,,,,,,,,,,,,,,,,,,,,,,,,,,,,,,,,,,,,,,,,,,,,,,,,,,,,,,,,,,,,,,,,,,,,,,,,,,,
397401,001,2022-11-20_23h54.00.310,Info_measure_main_exp,2022.2.2,Win32,60.28090904,,,,,,,,,,,,,,,,,,masks/mask_003.jpg,0,3,3,2,1,,,,,,,,,,,,,,,,,,,,,,,,,,,,,,,,,,,,,,,,,,,,,,,,,,,,,,,,,,,,,,,,,,,,,,,,,,,,,,,,,,,,,,,,
397401,001,2022-11-20_23h54.00.310,Info_measure_main_exp,2022.2.2,Win32,60.28090904,,,,,,,,,,,,,,,,,,masks/mask_004.jpg,0,4,4,3,1,,,,,,,,,,,,,,,,,,,,,,,,,,,,,,,,,,,,,,,,,,,,,,,,,,,,,,,,,,,,,,,,,,,,,,,,,,,,,,,,,,,,,,,,
397401,001,2022-11-20_23h54.00.310,Info_measure_main_exp,2022.2.2,Win32,60.28090904,,,,,,,,,,,,,,,,,,,,,,,,-0.046296296,-0.143518519,1,0,0,response5disk,3,101.9552,1,-0.005555556,-0.009259259,1,0,0,center_square,0,2,2,1,1,0,131,5,5,2514,2490,prac_patch/patch0002514.jpg,prac_patch/patch0002490.jpg,,,,,,,,,,,,,,,,,,,,,,,,,,,,,,,,,,,,,,,,,,,,,,,,,,,,,,,,,,,,
397401,001,2022-11-20_23h54.00.310,Info_measure_main_exp,2022.2.2,Win32,60.28090904,,,,,,,,,,,,,,,,,,,,,,,,,,,,,,,,,,,,,,,,,,,,,,,,,,,,,,,,,,,space,3.9874,,,,,,,,,,,,,,,,,,,,,,,,,,,,,,,,,,,,,,,,,,,,,,,,,,,
397401,001,2022-11-20_23h54.00.310,Info_measure_main_exp,2022.2.2,Win32,60.28090904,,,,,,,,,,,,,,,,,,masks/mask_003.jpg,,,,,,,,,,,,,,,,,,,,,,,,,,,,,,,,,,,,,,,,,,,0,0,0,2,1,,,,,,,,,,,,,,,,,,,,,,,,,,,,,,,,,,,,,,,,,,,,,,
397401,001,2022-11-20_23h54.00.310,Info_measure_main_exp,2022.2.2,Win32,60.28090904,,,,,,,,,,,,,,,,,,masks/mask_001.jpg,,,,,,,,,,,,,,,,,,,,,,,,,,,,,,,,,,,,,,,,,,,0,1,1,0,1,,,,,,,,,,,,,,,,,,,,,,,,,,,,,,,,,,,,,,,,,,,,,,
397401,001,2022-11-20_23h54.00.310,Info_measure_main_exp,2022.2.2,Win32,60.28090904,,,,,,,,,,,,,,,,,,masks/mask_005.jpg,,,,,,,,,,,,,,,,,,,,,,,,,,,,,,,,,,,,,,,,,,,0,2,2,4,1,,,,,,,,,,,,,,,,,,,,,,,,,,,,,,,,,,,,,,,,,,,,,,
397401,001,2022-11-20_23h54.00.310,Info_measure_main_exp,2022.2.2,Win32,60.28090904,,,,,,,,,,,,,,,,,,masks/mask_002.jpg,,,,,,,,,,,,,,,,,,,,,,,,,,,,,,,,,,,,,,,,,,,0,3,3,1,1,,,,,,,,,,,,,,,,,,,,,,,,,,,,,,,,,,,,,,,,,,,,,,
397401,001,2022-11-20_23h54.00.310,Info_measure_main_exp,2022.2.2,Win32,60.28090904,,,,,,,,,,,,,,,,,,masks/mask_004.jpg,,,,,,,,,,,,,,,,,,,,,,,,,,,,,,,,,,,,,,,,,,,0,4,4,3,1,,,,,,,,,,,,,,,,,,,,,,,,,,,,,,,,,,,,,,,,,,,,,,
397401,001,2022-11-20_23h54.00.310,Info_measure_main_exp,2022.2.2,Win32,60.28090904,,,,,,,,,,,,,,,,,,masks/mask_001.jpg,,,,,,,,,,,,,,,,,,,,,,,,,,,,,,,,,,,,,,,,,,,,,,,,0,0,0,0,1,,,,,,,,,,,,,,,,,,,,,,,,,,,,,,,,,,,,,,,,,
397401,001,2022-11-20_23h54.00.310,Info_measure_main_exp,2022.2.2,Win32,60.28090904,,,,,,,,,,,,,,,,,,masks/mask_002.jpg,,,,,,,,,,,,,,,,,,,,,,,,,,,,,,,,,,,,,,,,,,,,,,,,0,1,1,1,1,,,,,,,,,,,,,,,,,,,,,,,,,,,,,,,,,,,,,,,,,
397401,001,2022-11-20_23h54.00.310,Info_measure_main_exp,2022.2.2,Win32,60.28090904,,,,,,,,,,,,,,,,,,masks/mask_005.jpg,,,,,,,,,,,,,,,,,,,,,,,,,,,,,,,,,,,,,,,,,,,,,,,,0,2,2,4,1,,,,,,,,,,,,,,,,,,,,,,,,,,,,,,,,,,,,,,,,,
397401,001,2022-11-20_23h54.00.310,Info_measure_main_exp,2022.2.2,Win32,60.28090904,,,,,,,,,,,,,,,,,,masks/mask_003.jpg,,,,,,,,,,,,,,,,,,,,,,,,,,,,,,,,,,,,,,,,,,,,,,,,0,3,3,2,1,,,,,,,,,,,,,,,,,,,,,,,,,,,,,,,,,,,,,,,,,
397401,001,2022-11-20_23h54.00.310,Info_measure_main_exp,2022.2.2,Win32,60.28090904,,,,,,,,,,,,,,,,,,masks/mask_004.jpg,,,,,,,,,,,,,,,,,,,,,,,,,,,,,,,,,,,,,,,,,,,,,,,,0,4,4,3,1,,,,,,,,,,,,,,,,,,,,,,,,,,,,,,,,,,,,,,,,,
397401,001,2022-11-20_23h54.00.310,Info_measure_main_exp,2022.2.2,Win32,60.28090904,,,,,,,,,,,,,,,,,,,,,,,,,,,,,,7,1.4329,1,,,,,,,,,,,,1,131,5,5,1,1974,present_patch/cong_131_5_a.jpg,absent_patch/patch0001974.jpg,,,,,,,,,,,,,,,,,,,,0.012962963,0.118518519,1,0,0,response1disk,1,0.006481481,-0.001851852,1,0,0,center_square,0,0,0,69,1,,,,,,,,,,,,,,,,,,,,,,,
397401,001,2022-11-20_23h54.00.310,Info_measure_main_exp,2022.2.2,Win32,60.28090904,,,,,,,,,,,,,,,,,,masks/mask_002.jpg,,,,,,,,,,,,,,,,,,,,,,,,,,,,,,,,,,,,,,,,,,,0,0,0,1,1,,,,,,,,,,,,,,,,,,,,,,,,,,,,,,,,,,,,,,,,,,,,,,
397401,001,2022-11-20_23h54.00.310,Info_measure_main_exp,2022.2.2,Win32,60.28090904,,,,,,,,,,,,,,,,,,masks/mask_004.jpg,,,,,,,,,,,,,,,,,,,,,,,,,,,,,,,,,,,,,,,,,,,0,1,1,3,1,,,,,,,,,,,,,,,,,,,,,,,,,,,,,,,,,,,,,,,,,,,,,,
397401,001,2022-11-20_23h54.00.310,Info_measure_main_exp,2022.2.2,Win32,60.28090904,,,,,,,,,,,,,,,,,,masks/mask_005.jpg,,,,,,,,,,,,,,,,,,,,,,,,,,,,,,,,,,,,,,,,,,,0,2,2,4,1,,,,,,,,,,,,,,,,,,,,,,,,,,,,,,,,,,,,,,,,,,,,,,
397401,001,2022-11-20_23h54.00.310,Info_measure_main_exp,2022.2.2,Win32,60.28090904,,,,,,,,,,,,,,,,,,masks/mask_003.jpg,,,,,,,,,,,,,,,,,,,,,,,,,,,,,,,,,,,,,,,,,,,0,3,3,2,1,,,,,,,,,,,,,,,,,,,,,,,,,,,,,,,,,,,,,,,,,,,,,,
397401,001,2022-11-20_23h54.00.310,Info_measure_main_exp,2022.2.2,Win32,60.28090904,,,,,,,,,,,,,,,,,,masks/mask_001.jpg,,,,,,,,,,,,,,,,,,,,,,,,,,,,,,,,,,,,,,,,,,,0,4,4,0,1,,,,,,,,,,,,,,,,,,,,,,,,,,,,,,,,,,,,,,,,,,,,,,
397401,001,2022-11-20_23h54.00.310,Info_measure_main_exp,2022.2.2,Win32,60.28090904,,,,,,,,,,,,,,,,,,masks/mask_005.jpg,,,,,,,,,,,,,,,,,,,,,,,,,,,,,,,,,,,,,,,,,,,,,,,,0,0,0,4,1,,,,,,,,,,,,,,,,,,,,,,,,,,,,,,,,,,,,,,,,,
397401,001,2022-11-20_23h54.00.310,Info_measure_main_exp,2022.2.2,Win32,60.28090904,,,,,,,,,,,,,,,,,,masks/mask_002.jpg,,,,,,,,,,,,,,,,,,,,,,,,,,,,,,,,,,,,,,,,,,,,,,,,0,1,1,1,1,,,,,,,,,,,,,,,,,,,,,,,,,,,,,,,,,,,,,,,,,
397401,001,2022-11-20_23h54.00.310,Info_measure_main_exp,2022.2.2,Win32,60.28090904,,,,,,,,,,,,,,,,,,masks/mask_004.jpg,,,,,,,,,,,,,,,,,,,,,,,,,,,,,,,,,,,,,,,,,,,,,,,,0,2,2,3,1,,,,,,,,,,,,,,,,,,,,,,,,,,,,,,,,,,,,,,,,,
397401,001,2022-11-20_23h54.00.310,Info_measure_main_exp,2022.2.2,Win32,60.28090904,,,,,,,,,,,,,,,,,,masks/mask_001.jpg,,,,,,,,,,,,,,,,,,,,,,,,,,,,,,,,,,,,,,,,,,,,,,,,0,3,3,0,1,,,,,,,,,,,,,,,,,,,,,,,,,,,,,,,,,,,,,,,,,
397401,001,2022-11-20_23h54.00.310,Info_measure_main_exp,2022.2.2,Win32,60.28090904,,,,,,,,,,,,,,,,,,masks/mask_003.jpg,,,,,,,,,,,,,,,,,,,,,,,,,,,,,,,,,,,,,,,,,,,,,,,,0,4,4,2,1,,,,,,,,,,,,,,,,,,,,,,,,,,,,,,,,,,,,,,,,,
397401,001,2022-11-20_23h54.00.310,Info_measure_main_exp,2022.2.2,Win32,60.28090904,,,,,,,,,,,,,,,,,,,,,,,,,,,,,,7,0.8329,1,,,,,,,,,,,,0,131,5,5,2190,2238,absent_patch/patch0002190.jpg,absent_patch/patch0002238.jpg,,,,,,,,,,,,,,,,,,,,0.044444444,0.088888889,1,0,0,response1disk,2,-0.001851852,0.000925926,1,0,0,center_square,0,1,1,53,1,,,,,,,,,,,,,,,,,,,,,,,
397401,001,2022-11-20_23h54.00.310,Info_measure_main_exp,2022.2.2,Win32,60.28090904,,,,,,,,,,,,,,,,,,masks/mask_005.jpg,,,,,,,,,,,,,,,,,,,,,,,,,,,,,,,,,,,,,,,,,,,0,0,0,4,1,,,,,,,,,,,,,,,,,,,,,,,,,,,,,,,,,,,,,,,,,,,,,,
397401,001,2022-11-20_23h54.00.310,Info_measure_main_exp,2022.2.2,Win32,60.28090904,,,,,,,,,,,,,,,,,,masks/mask_004.jpg,,,,,,,,,,,,,,,,,,,,,,,,,,,,,,,,,,,,,,,,,,,0,1,1,3,1,,,,,,,,,,,,,,,,,,,,,,,,,,,,,,,,,,,,,,,,,,,,,,
397401,001,2022-11-20_23h54.00.310,Info_measure_main_exp,2022.2.2,Win32,60.28090904,,,,,,,,,,,,,,,,,,masks/mask_002.jpg,,,,,,,,,,,,,,,,,,,,,,,,,,,,,,,,,,,,,,,,,,,0,2,2,1,1,,,,,,,,,,,,,,,,,,,,,,,,,,,,,,,,,,,,,,,,,,,,,,
397401,001,2022-11-20_23h54.00.310,Info_measure_main_exp,2022.2.2,Win32,60.28090904,,,,,,,,,,,,,,,,,,masks/mask_003.jpg,,,,,,,,,,,,,,,,,,,,,,,,,,,,,,,,,,,,,,,,,,,0,3,3,2,1,,,,,,,,,,,,,,,,,,,,,,,,,,,,,,,,,,,,,,,,,,,,,,
397401,001,2022-11-20_23h54.00.310,Info_measure_main_exp,2022.2.2,Win32,60.28090904,,,,,,,,,,,,,,,,,,masks/mask_001.jpg,,,,,,,,,,,,,,,,,,,,,,,,,,,,,,,,,,,,,,,,,,,0,4,4,0,1,,,,,,,,,,,,,,,,,,,,,,,,,,,,,,,,,,,,,,,,,,,,,,
397401,001,2022-11-20_23h54.00.310,Info_measure_main_exp,2022.2.2,Win32,60.28090904,,,,,,,,,,,,,,,,,,masks/mask_004.jpg,,,,,,,,,,,,,,,,,,,,,,,,,,,,,,,,,,,,,,,,,,,,,,,,0,0,0,3,1,,,,,,,,,,,,,,,,,,,,,,,,,,,,,,,,,,,,,,,,,
397401,001,2022-11-20_23h54.00.310,Info_measure_main_exp,2022.2.2,Win32,60.28090904,,,,,,,,,,,,,,,,,,masks/mask_003.jpg,,,,,,,,,,,,,,,,,,,,,,,,,,,,,,,,,,,,,,,,,,,,,,,,0,1,1,2,1,,,,,,,,,,,,,,,,,,,,,,,,,,,,,,,,,,,,,,,,,
397401,001,2022-11-20_23h54.00.310,Info_measure_main_exp,2022.2.2,Win32,60.28090904,,,,,,,,,,,,,,,,,,masks/mask_002.jpg,,,,,,,,,,,,,,,,,,,,,,,,,,,,,,,,,,,,,,,,,,,,,,,,0,2,2,1,1,,,,,,,,,,,,,,,,,,,,,,,,,,,,,,,,,,,,,,,,,
397401,001,2022-11-20_23h54.00.310,Info_measure_main_exp,2022.2.2,Win32,60.28090904,,,,,,,,,,,,,,,,,,masks/mask_005.jpg,,,,,,,,,,,,,,,,,,,,,,,,,,,,,,,,,,,,,,,,,,,,,,,,0,3,3,4,1,,,,,,,,,,,,,,,,,,,,,,,,,,,,,,,,,,,,,,,,,
397401,001,2022-11-20_23h54.00.310,Info_measure_main_exp,2022.2.2,Win32,60.28090904,,,,,,,,,,,,,,,,,,masks/mask_001.jpg,,,,,,,,,,,,,,,,,,,,,,,,,,,,,,,,,,,,,,,,,,,,,,,,0,4,4,0,1,,,,,,,,,,,,,,,,,,,,,,,,,,,,,,,,,,,,,,,,,
397401,001,2022-11-20_23h54.00.310,Info_measure_main_exp,2022.2.2,Win32,60.28090904,,,,,,,,,,,,,,,,,,,,,,,,,,,,,,0,1.4493,1,,,,,,,,,,,,0,131,5,5,2082,2082,absent_patch/patch0002082.jpg,absent_patch/patch0002082.jpg,,,,,,,,,,,,,,,,,,,,-0.069444444,0.113888889,1,0,0,response7disk,3,-0.003703704,0,1,0,0,center_square,0,2,2,74,1,,,,,,,,,,,,,,,,,,,,,,,
397401,001,2022-11-20_23h54.00.310,Info_measure_main_exp,2022.2.2,Win32,60.28090904,,,,,,,,,,,,,,,,,,masks/mask_005.jpg,,,,,,,,,,,,,,,,,,,,,,,,,,,,,,,,,,,,,,,,,,,0,0,0,4,1,,,,,,,,,,,,,,,,,,,,,,,,,,,,,,,,,,,,,,,,,,,,,,
397401,001,2022-11-20_23h54.00.310,Info_measure_main_exp,2022.2.2,Win32,60.28090904,,,,,,,,,,,,,,,,,,masks/mask_002.jpg,,,,,,,,,,,,,,,,,,,,,,,,,,,,,,,,,,,,,,,,,,,0,1,1,1,1,,,,,,,,,,,,,,,,,,,,,,,,,,,,,,,,,,,,,,,,,,,,,,
397401,001,2022-11-20_23h54.00.310,Info_measure_main_exp,2022.2.2,Win32,60.28090904,,,,,,,,,,,,,,,,,,masks/mask_003.jpg,,,,,,,,,,,,,,,,,,,,,,,,,,,,,,,,,,,,,,,,,,,0,2,2,2,1,,,,,,,,,,,,,,,,,,,,,,,,,,,,,,,,,,,,,,,,,,,,,,
397401,001,2022-11-20_23h54.00.310,Info_measure_main_exp,2022.2.2,Win32,60.28090904,,,,,,,,,,,,,,,,,,masks/mask_004.jpg,,,,,,,,,,,,,,,,,,,,,,,,,,,,,,,,,,,,,,,,,,,0,3,3,3,1,,,,,,,,,,,,,,,,,,,,,,,,,,,,,,,,,,,,,,,,,,,,,,
397401,001,2022-11-20_23h54.00.310,Info_measure_main_exp,2022.2.2,Win32,60.28090904,,,,,,,,,,,,,,,,,,masks/mask_001.jpg,,,,,,,,,,,,,,,,,,,,,,,,,,,,,,,,,,,,,,,,,,,0,4,4,0,1,,,,,,,,,,,,,,,,,,,,,,,,,,,,,,,,,,,,,,,,,,,,,,
397401,001,2022-11-20_23h54.00.310,Info_measure_main_exp,2022.2.2,Win32,60.28090904,,,,,,,,,,,,,,,,,,masks/mask_002.jpg,,,,,,,,,,,,,,,,,,,,,,,,,,,,,,,,,,,,,,,,,,,,,,,,0,0,0,1,1,,,,,,,,,,,,,,,,,,,,,,,,,,,,,,,,,,,,,,,,,
397401,001,2022-11-20_23h54.00.310,Info_measure_main_exp,2022.2.2,Win32,60.28090904,,,,,,,,,,,,,,,,,,masks/mask_004.jpg,,,,,,,,,,,,,,,,,,,,,,,,,,,,,,,,,,,,,,,,,,,,,,,,0,1,1,3,1,,,,,,,,,,,,,,,,,,,,,,,,,,,,,,,,,,,,,,,,,
397401,001,2022-11-20_23h54.00.310,Info_measure_main_exp,2022.2.2,Win32,60.28090904,,,,,,,,,,,,,,,,,,masks/mask_003.jpg,,,,,,,,,,,,,,,,,,,,,,,,,,,,,,,,,,,,,,,,,,,,,,,,0,2,2,2,1,,,,,,,,,,,,,,,,,,,,,,,,,,,,,,,,,,,,,,,,,
397401,001,2022-11-20_23h54.00.310,Info_measure_main_exp,2022.2.2,Win32,60.28090904,,,,,,,,,,,,,,,,,,masks/mask_001.jpg,,,,,,,,,,,,,,,,,,,,,,,,,,,,,,,,,,,,,,,,,,,,,,,,0,3,3,0,1,,,,,,,,,,,,,,,,,,,,,,,,,,,,,,,,,,,,,,,,,
397401,001,2022-11-20_23h54.00.310,Info_measure_main_exp,2022.2.2,Win32,60.28090904,,,,,,,,,,,,,,,,,,masks/mask_005.jpg,,,,,,,,,,,,,,,,,,,,,,,,,,,,,,,,,,,,,,,,,,,,,,,,0,4,4,4,1,,,,,,,,,,,,,,,,,,,,,,,,,,,,,,,,,,,,,,,,,
397401,001,2022-11-20_23h54.00.310,Info_measure_main_exp,2022.2.2,Win32,60.28090904,,,,,,,,,,,,,,,,,,,,,,,,,,,,,,4,1.8325,1,,,,,,,,,,,,0,131,5,5,1974,1950,absent_patch/patch0001974.jpg,absent_patch/patch0001950.jpg,,,,,,,,,,,,,,,,,,,,0.037962963,-0.15,1,0,0,response3disk,4,0.012962963,-0.010185185,1,0,0,center_square,0,3,3,17,1,,,,,,,,,,,,,,,,,,,,,,,
397401,001,2022-11-20_23h54.00.310,Info_measure_main_exp,2022.2.2,Win32,60.28090904,,,,,,,,,,,,,,,,,,masks/mask_001.jpg,,,,,,,,,,,,,,,,,,,,,,,,,,,,,,,,,,,,,,,,,,,0,0,0,0,1,,,,,,,,,,,,,,,,,,,,,,,,,,,,,,,,,,,,,,,,,,,,,,
397401,001,2022-11-20_23h54.00.310,Info_measure_main_exp,2022.2.2,Win32,60.28090904,,,,,,,,,,,,,,,,,,masks/mask_004.jpg,,,,,,,,,,,,,,,,,,,,,,,,,,,,,,,,,,,,,,,,,,,0,1,1,3,1,,,,,,,,,,,,,,,,,,,,,,,,,,,,,,,,,,,,,,,,,,,,,,
397401,001,2022-11-20_23h54.00.310,Info_measure_main_exp,2022.2.2,Win32,60.28090904,,,,,,,,,,,,,,,,,,masks/mask_002.jpg,,,,,,,,,,,,,,,,,,,,,,,,,,,,,,,,,,,,,,,,,,,0,2,2,1,1,,,,,,,,,,,,,,,,,,,,,,,,,,,,,,,,,,,,,,,,,,,,,,
397401,001,2022-11-20_23h54.00.310,Info_measure_main_exp,2022.2.2,Win32,60.28090904,,,,,,,,,,,,,,,,,,masks/mask_003.jpg,,,,,,,,,,,,,,,,,,,,,,,,,,,,,,,,,,,,,,,,,,,0,3,3,2,1,,,,,,,,,,,,,,,,,,,,,,,,,,,,,,,,,,,,,,,,,,,,,,
397401,001,2022-11-20_23h54.00.310,Info_measure_main_exp,2022.2.2,Win32,60.28090904,,,,,,,,,,,,,,,,,,masks/mask_005.jpg,,,,,,,,,,,,,,,,,,,,,,,,,,,,,,,,,,,,,,,,,,,0,4,4,4,1,,,,,,,,,,,,,,,,,,,,,,,,,,,,,,,,,,,,,,,,,,,,,,
397401,001,2022-11-20_23h54.00.310,Info_measure_main_exp,2022.2.2,Win32,60.28090904,,,,,,,,,,,,,,,,,,masks/mask_004.jpg,,,,,,,,,,,,,,,,,,,,,,,,,,,,,,,,,,,,,,,,,,,,,,,,0,0,0,3,1,,,,,,,,,,,,,,,,,,,,,,,,,,,,,,,,,,,,,,,,,
397401,001,2022-11-20_23h54.00.310,Info_measure_main_exp,2022.2.2,Win32,60.28090904,,,,,,,,,,,,,,,,,,masks/mask_001.jpg,,,,,,,,,,,,,,,,,,,,,,,,,,,,,,,,,,,,,,,,,,,,,,,,0,1,1,0,1,,,,,,,,,,,,,,,,,,,,,,,,,,,,,,,,,,,,,,,,,
397401,001,2022-11-20_23h54.00.310,Info_measure_main_exp,2022.2.2,Win32,60.28090904,,,,,,,,,,,,,,,,,,masks/mask_002.jpg,,,,,,,,,,,,,,,,,,,,,,,,,,,,,,,,,,,,,,,,,,,,,,,,0,2,2,1,1,,,,,,,,,,,,,,,,,,,,,,,,,,,,,,,,,,,,,,,,,
397401,001,2022-11-20_23h54.00.310,Info_measure_main_exp,2022.2.2,Win32,60.28090904,,,,,,,,,,,,,,,,,,masks/mask_005.jpg,,,,,,,,,,,,,,,,,,,,,,,,,,,,,,,,,,,,,,,,,,,,,,,,0,3,3,4,1,,,,,,,,,,,,,,,,,,,,,,,,,,,,,,,,,,,,,,,,,
397401,001,2022-11-20_23h54.00.310,Info_measure_main_exp,2022.2.2,Win32,60.28090904,,,,,,,,,,,,,,,,,,masks/mask_003.jpg,,,,,,,,,,,,,,,,,,,,,,,,,,,,,,,,,,,,,,,,,,,,,,,,0,4,4,2,1,,,,,,,,,,,,,,,,,,,,,,,,,,,,,,,,,,,,,,,,,
397401,001,2022-11-20_23h54.00.310,Info_measure_main_exp,2022.2.2,Win32,60.28090904,,,,,,,,,,,,,,,,,,,,,,,,,,,,,,5,2.5659,1,,,,,,,,,,,,1,131,5,5,1,2274,present_patch/cong_131_5_a.jpg,absent_patch/patch0002274.jpg,,,,,,,,,,,,,,,,,,,,0.060185185,-0.037962963,1,0,0,response3disk,5,0.000925926,0.008333333,1,0,0,center_square,0,4,4,105,1,,,,,,,,,,,,,,,,,,,,,,,
397401,001,2022-11-20_23h54.00.310,Info_measure_main_exp,2022.2.2,Win32,60.28090904,,,,,,,,,,,,,,,,,,masks/mask_002.jpg,,,,,,,,,,,,,,,,,,,,,,,,,,,,,,,,,,,,,,,,,,,0,0,0,1,1,,,,,,,,,,,,,,,,,,,,,,,,,,,,,,,,,,,,,,,,,,,,,,
397401,001,2022-11-20_23h54.00.310,Info_measure_main_exp,2022.2.2,Win32,60.28090904,,,,,,,,,,,,,,,,,,masks/mask_001.jpg,,,,,,,,,,,,,,,,,,,,,,,,,,,,,,,,,,,,,,,,,,,0,1,1,0,1,,,,,,,,,,,,,,,,,,,,,,,,,,,,,,,,,,,,,,,,,,,,,,
397401,001,2022-11-20_23h54.00.310,Info_measure_main_exp,2022.2.2,Win32,60.28090904,,,,,,,,,,,,,,,,,,masks/mask_005.jpg,,,,,,,,,,,,,,,,,,,,,,,,,,,,,,,,,,,,,,,,,,,0,2,2,4,1,,,,,,,,,,,,,,,,,,,,,,,,,,,,,,,,,,,,,,,,,,,,,,
397401,001,2022-11-20_23h54.00.310,Info_measure_main_exp,2022.2.2,Win32,60.28090904,,,,,,,,,,,,,,,,,,masks/mask_004.jpg,,,,,,,,,,,,,,,,,,,,,,,,,,,,,,,,,,,,,,,,,,,0,3,3,3,1,,,,,,,,,,,,,,,,,,,,,,,,,,,,,,,,,,,,,,,,,,,,,,
397401,001,2022-11-20_23h54.00.310,Info_measure_main_exp,2022.2.2,Win32,60.28090904,,,,,,,,,,,,,,,,,,masks/mask_003.jpg,,,,,,,,,,,,,,,,,,,,,,,,,,,,,,,,,,,,,,,,,,,0,4,4,2,1,,,,,,,,,,,,,,,,,,,,,,,,,,,,,,,,,,,,,,,,,,,,,,
397401,001,2022-11-20_23h54.00.310,Info_measure_main_exp,2022.2.2,Win32,60.28090904,,,,,,,,,,,,,,,,,,masks/mask_005.jpg,,,,,,,,,,,,,,,,,,,,,,,,,,,,,,,,,,,,,,,,,,,,,,,,0,0,0,4,1,,,,,,,,,,,,,,,,,,,,,,,,,,,,,,,,,,,,,,,,,
397401,001,2022-11-20_23h54.00.310,Info_measure_main_exp,2022.2.2,Win32,60.28090904,,,,,,,,,,,,,,,,,,masks/mask_004.jpg,,,,,,,,,,,,,,,,,,,,,,,,,,,,,,,,,,,,,,,,,,,,,,,,0,1,1,3,1,,,,,,,,,,,,,,,,,,,,,,,,,,,,,,,,,,,,,,,,,
397401,001,2022-11-20_23h54.00.310,Info_measure_main_exp,2022.2.2,Win32,60.28090904,,,,,,,,,,,,,,,,,,masks/mask_001.jpg,,,,,,,,,,,,,,,,,,,,,,,,,,,,,,,,,,,,,,,,,,,,,,,,0,2,2,0,1,,,,,,,,,,,,,,,,,,,,,,,,,,,,,,,,,,,,,,,,,
397401,001,2022-11-20_23h54.00.310,Info_measure_main_exp,2022.2.2,Win32,60.28090904,,,,,,,,,,,,,,,,,,masks/mask_003.jpg,,,,,,,,,,,,,,,,,,,,,,,,,,,,,,,,,,,,,,,,,,,,,,,,0,3,3,2,1,,,,,,,,,,,,,,,,,,,,,,,,,,,,,,,,,,,,,,,,,
397401,001,2022-11-20_23h54.00.310,Info_measure_main_exp,2022.2.2,Win32,60.28090904,,,,,,,,,,,,,,,,,,masks/mask_002.jpg,,,,,,,,,,,,,,,,,,,,,,,,,,,,,,,,,,,,,,,,,,,,,,,,0,4,4,1,1,,,,,,,,,,,,,,,,,,,,,,,,,,,,,,,,,,,,,,,,,
397401,001,2022-11-20_23h54.00.310,Info_measure_main_exp,2022.2.2,Win32,60.28090904,,,,,,,,,,,,,,,,,,,,,,,,,,,,,,0,0.7664,1,,,,,,,,,,,,0,131,5,5,2154,2154,absent_patch/patch0002154.jpg,absent_patch/patch0002154.jpg,,,,,,,,,,,,,,,,,,,,-0.052777778,0.09537037,1,0,0,response7disk,6,-0.007407407,0.007407407,1,0,0,center_square,0,5,5,89,1,,,,,,,,,,,,,,,,,,,,,,,
397401,001,2022-11-20_23h54.00.310,Info_measure_main_exp,2022.2.2,Win32,60.28090904,,,,,,,,,,,,,,,,,,masks/mask_004.jpg,,,,,,,,,,,,,,,,,,,,,,,,,,,,,,,,,,,,,,,,,,,0,0,0,3,1,,,,,,,,,,,,,,,,,,,,,,,,,,,,,,,,,,,,,,,,,,,,,,
397401,001,2022-11-20_23h54.00.310,Info_measure_main_exp,2022.2.2,Win32,60.28090904,,,,,,,,,,,,,,,,,,masks/mask_001.jpg,,,,,,,,,,,,,,,,,,,,,,,,,,,,,,,,,,,,,,,,,,,0,1,1,0,1,,,,,,,,,,,,,,,,,,,,,,,,,,,,,,,,,,,,,,,,,,,,,,
397401,001,2022-11-20_23h54.00.310,Info_measure_main_exp,2022.2.2,Win32,60.28090904,,,,,,,,,,,,,,,,,,masks/mask_003.jpg,,,,,,,,,,,,,,,,,,,,,,,,,,,,,,,,,,,,,,,,,,,0,2,2,2,1,,,,,,,,,,,,,,,,,,,,,,,,,,,,,,,,,,,,,,,,,,,,,,
397401,001,2022-11-20_23h54.00.310,Info_measure_main_exp,2022.2.2,Win32,60.28090904,,,,,,,,,,,,,,,,,,masks/mask_002.jpg,,,,,,,,,,,,,,,,,,,,,,,,,,,,,,,,,,,,,,,,,,,0,3,3,1,1,,,,,,,,,,,,,,,,,,,,,,,,,,,,,,,,,,,,,,,,,,,,,,
397401,001,2022-11-20_23h54.00.310,Info_measure_main_exp,2022.2.2,Win32,60.28090904,,,,,,,,,,,,,,,,,,masks/mask_005.jpg,,,,,,,,,,,,,,,,,,,,,,,,,,,,,,,,,,,,,,,,,,,0,4,4,4,1,,,,,,,,,,,,,,,,,,,,,,,,,,,,,,,,,,,,,,,,,,,,,,
397401,001,2022-11-20_23h54.00.310,Info_measure_main_exp,2022.2.2,Win32,60.28090904,,,,,,,,,,,,,,,,,,masks/mask_005.jpg,,,,,,,,,,,,,,,,,,,,,,,,,,,,,,,,,,,,,,,,,,,,,,,,0,0,0,4,1,,,,,,,,,,,,,,,,,,,,,,,,,,,,,,,,,,,,,,,,,
397401,001,2022-11-20_23h54.00.310,Info_measure_main_exp,2022.2.2,Win32,60.28090904,,,,,,,,,,,,,,,,,,masks/mask_004.jpg,,,,,,,,,,,,,,,,,,,,,,,,,,,,,,,,,,,,,,,,,,,,,,,,0,1,1,3,1,,,,,,,,,,,,,,,,,,,,,,,,,,,,,,,,,,,,,,,,,
397401,001,2022-11-20_23h54.00.310,Info_measure_main_exp,2022.2.2,Win32,60.28090904,,,,,,,,,,,,,,,,,,masks/mask_001.jpg,,,,,,,,,,,,,,,,,,,,,,,,,,,,,,,,,,,,,,,,,,,,,,,,0,2,2,0,1,,,,,,,,,,,,,,,,,,,,,,,,,,,,,,,,,,,,,,,,,
397401,001,2022-11-20_23h54.00.310,Info_measure_main_exp,2022.2.2,Win32,60.28090904,,,,,,,,,,,,,,,,,,masks/mask_003.jpg,,,,,,,,,,,,,,,,,,,,,,,,,,,,,,,,,,,,,,,,,,,,,,,,0,3,3,2,1,,,,,,,,,,,,,,,,,,,,,,,,,,,,,,,,,,,,,,,,,
397401,001,2022-11-20_23h54.00.310,Info_measure_main_exp,2022.2.2,Win32,60.28090904,,,,,,,,,,,,,,,,,,masks/mask_002.jpg,,,,,,,,,,,,,,,,,,,,,,,,,,,,,,,,,,,,,,,,,,,,,,,,0,4,4,1,1,,,,,,,,,,,,,,,,,,,,,,,,,,,,,,,,,,,,,,,,,
397401,001,2022-11-20_23h54.00.310,Info_measure_main_exp,2022.2.2,Win32,60.28090904,,,,,,,,,,,,,,,,,,,,,,,,,,,,,,3,0.9994,1,,,,,,,,,,,,0,131,5,5,2082,1974,absent_patch/patch0002082.jpg,absent_patch/patch0001974.jpg,,,,,,,,,,,,,,,,,,,,-0.023148148,-0.112962963,1,0,0,response5disk,7,-0.003703704,0.001851852,1,0,0,center_square,0,6,6,26,1,,,,,,,,,,,,,,,,,,,,,,,
397401,001,2022-11-20_23h54.00.310,Info_measure_main_exp,2022.2.2,Win32,60.28090904,,,,,,,,,,,,,,,,,,masks/mask_002.jpg,,,,,,,,,,,,,,,,,,,,,,,,,,,,,,,,,,,,,,,,,,,0,0,0,1,1,,,,,,,,,,,,,,,,,,,,,,,,,,,,,,,,,,,,,,,,,,,,,,
397401,001,2022-11-20_23h54.00.310,Info_measure_main_exp,2022.2.2,Win32,60.28090904,,,,,,,,,,,,,,,,,,masks/mask_003.jpg,,,,,,,,,,,,,,,,,,,,,,,,,,,,,,,,,,,,,,,,,,,0,1,1,2,1,,,,,,,,,,,,,,,,,,,,,,,,,,,,,,,,,,,,,,,,,,,,,,
397401,001,2022-11-20_23h54.00.310,Info_measure_main_exp,2022.2.2,Win32,60.28090904,,,,,,,,,,,,,,,,,,masks/mask_001.jpg,,,,,,,,,,,,,,,,,,,,,,,,,,,,,,,,,,,,,,,,,,,0,2,2,0,1,,,,,,,,,,,,,,,,,,,,,,,,,,,,,,,,,,,,,,,,,,,,,,
397401,001,2022-11-20_23h54.00.310,Info_measure_main_exp,2022.2.2,Win32,60.28090904,,,,,,,,,,,,,,,,,,masks/mask_005.jpg,,,,,,,,,,,,,,,,,,,,,,,,,,,,,,,,,,,,,,,,,,,0,3,3,4,1,,,,,,,,,,,,,,,,,,,,,,,,,,,,,,,,,,,,,,,,,,,,,,
397401,001,2022-11-20_23h54.00.310,Info_measure_main_exp,2022.2.2,Win32,60.28090904,,,,,,,,,,,,,,,,,,masks/mask_004.jpg,,,,,,,,,,,,,,,,,,,,,,,,,,,,,,,,,,,,,,,,,,,0,4,4,3,1,,,,,,,,,,,,,,,,,,,,,,,,,,,,,,,,,,,,,,,,,,,,,,
397401,001,2022-11-20_23h54.00.310,Info_measure_main_exp,2022.2.2,Win32,60.28090904,,,,,,,,,,,,,,,,,,masks/mask_004.jpg,,,,,,,,,,,,,,,,,,,,,,,,,,,,,,,,,,,,,,,,,,,,,,,,0,0,0,3,1,,,,,,,,,,,,,,,,,,,,,,,,,,,,,,,,,,,,,,,,,
397401,001,2022-11-20_23h54.00.310,Info_measure_main_exp,2022.2.2,Win32,60.28090904,,,,,,,,,,,,,,,,,,masks/mask_005.jpg,,,,,,,,,,,,,,,,,,,,,,,,,,,,,,,,,,,,,,,,,,,,,,,,0,1,1,4,1,,,,,,,,,,,,,,,,,,,,,,,,,,,,,,,,,,,,,,,,,
397401,001,2022-11-20_23h54.00.310,Info_measure_main_exp,2022.2.2,Win32,60.28090904,,,,,,,,,,,,,,,,,,masks/mask_002.jpg,,,,,,,,,,,,,,,,,,,,,,,,,,,,,,,,,,,,,,,,,,,,,,,,0,2,2,1,1,,,,,,,,,,,,,,,,,,,,,,,,,,,,,,,,,,,,,,,,,
397401,001,2022-11-20_23h54.00.310,Info_measure_main_exp,2022.2.2,Win32,60.28090904,,,,,,,,,,,,,,,,,,masks/mask_003.jpg,,,,,,,,,,,,,,,,,,,,,,,,,,,,,,,,,,,,,,,,,,,,,,,,0,3,3,2,1,,,,,,,,,,,,,,,,,,,,,,,,,,,,,,,,,,,,,,,,,
397401,001,2022-11-20_23h54.00.310,Info_measure_main_exp,2022.2.2,Win32,60.28090904,,,,,,,,,,,,,,,,,,masks/mask_001.jpg,,,,,,,,,,,,,,,,,,,,,,,,,,,,,,,,,,,,,,,,,,,,,,,,0,4,4,0,1,,,,,,,,,,,,,,,,,,,,,,,,,,,,,,,,,,,,,,,,,
397401,001,2022-11-20_23h54.00.310,Info_measure_main_exp,2022.2.2,Win32,60.28090904,,,,,,,,,,,,,,,,,,,,,,,,,,,,,,6,0.9331,1,,,,,,,,,,,,0,131,5,5,2142,2154,absent_patch/patch0002142.jpg,absent_patch/patch0002154.jpg,,,,,,,,,,,,,,,,,,,,0.062962963,0.022222222,1,0,0,response1disk,8,0.006481481,0.00462963,1,0,0,center_square,0,7,7,9,1,,,,,,,,,,,,,,,,,,,,,,,
397401,001,2022-11-20_23h54.00.310,Info_measure_main_exp,2022.2.2,Win32,60.28090904,,,,,,,,,,,,,,,,,,masks/mask_003.jpg,,,,,,,,,,,,,,,,,,,,,,,,,,,,,,,,,,,,,,,,,,,0,0,0,2,1,,,,,,,,,,,,,,,,,,,,,,,,,,,,,,,,,,,,,,,,,,,,,,
397401,001,2022-11-20_23h54.00.310,Info_measure_main_exp,2022.2.2,Win32,60.28090904,,,,,,,,,,,,,,,,,,masks/mask_004.jpg,,,,,,,,,,,,,,,,,,,,,,,,,,,,,,,,,,,,,,,,,,,0,1,1,3,1,,,,,,,,,,,,,,,,,,,,,,,,,,,,,,,,,,,,,,,,,,,,,,
397401,001,2022-11-20_23h54.00.310,Info_measure_main_exp,2022.2.2,Win32,60.28090904,,,,,,,,,,,,,,,,,,masks/mask_005.jpg,,,,,,,,,,,,,,,,,,,,,,,,,,,,,,,,,,,,,,,,,,,0,2,2,4,1,,,,,,,,,,,,,,,,,,,,,,,,,,,,,,,,,,,,,,,,,,,,,,
397401,001,2022-11-20_23h54.00.310,Info_measure_main_exp,2022.2.2,Win32,60.28090904,,,,,,,,,,,,,,,,,,masks/mask_001.jpg,,,,,,,,,,,,,,,,,,,,,,,,,,,,,,,,,,,,,,,,,,,0,3,3,0,1,,,,,,,,,,,,,,,,,,,,,,,,,,,,,,,,,,,,,,,,,,,,,,
397401,001,2022-11-20_23h54.00.310,Info_measure_main_exp,2022.2.2,Win32,60.28090904,,,,,,,,,,,,,,,,,,masks/mask_002.jpg,,,,,,,,,,,,,,,,,,,,,,,,,,,,,,,,,,,,,,,,,,,0,4,4,1,1,,,,,,,,,,,,,,,,,,,,,,,,,,,,,,,,,,,,,,,,,,,,,,
397401,001,2022-11-20_23h54.00.310,Info_measure_main_exp,2022.2.2,Win32,60.28090904,,,,,,,,,,,,,,,,,,masks/mask_004.jpg,,,,,,,,,,,,,,,,,,,,,,,,,,,,,,,,,,,,,,,,,,,,,,,,0,0,0,3,1,,,,,,,,,,,,,,,,,,,,,,,,,,,,,,,,,,,,,,,,,
397401,001,2022-11-20_23h54.00.310,Info_measure_main_exp,2022.2.2,Win32,60.28090904,,,,,,,,,,,,,,,,,,masks/mask_002.jpg,,,,,,,,,,,,,,,,,,,,,,,,,,,,,,,,,,,,,,,,,,,,,,,,0,1,1,1,1,,,,,,,,,,,,,,,,,,,,,,,,,,,,,,,,,,,,,,,,,
397401,001,2022-11-20_23h54.00.310,Info_measure_main_exp,2022.2.2,Win32,60.28090904,,,,,,,,,,,,,,,,,,masks/mask_005.jpg,,,,,,,,,,,,,,,,,,,,,,,,,,,,,,,,,,,,,,,,,,,,,,,,0,2,2,4,1,,,,,,,,,,,,,,,,,,,,,,,,,,,,,,,,,,,,,,,,,
397401,001,2022-11-20_23h54.00.310,Info_measure_main_exp,2022.2.2,Win32,60.28090904,,,,,,,,,,,,,,,,,,masks/mask_003.jpg,,,,,,,,,,,,,,,,,,,,,,,,,,,,,,,,,,,,,,,,,,,,,,,,0,3,3,2,1,,,,,,,,,,,,,,,,,,,,,,,,,,,,,,,,,,,,,,,,,
397401,001,2022-11-20_23h54.00.310,Info_measure_main_exp,2022.2.2,Win32,60.28090904,,,,,,,,,,,,,,,,,,masks/mask_001.jpg,,,,,,,,,,,,,,,,,,,,,,,,,,,,,,,,,,,,,,,,,,,,,,,,0,4,4,0,1,,,,,,,,,,,,,,,,,,,,,,,,,,,,,,,,,,,,,,,,,
397401,001,2022-11-20_23h54.00.310,Info_measure_main_exp,2022.2.2,Win32,60.28090904,,,,,,,,,,,,,,,,,,,,,,,,,,,,,,6,0.733,1,,,,,,,,,,,,1,131,5,5,2082,1,absent_patch/patch0002082.jpg,present_patch/cong_131_5_a.jpg,,,,,,,,,,,,,,,,,,,,0.089814815,0.032407407,1,0,0,response1disk,9,-0.00462963,0.000925926,1,0,0,center_square,0,8,8,65,1,,,,,,,,,,,,,,,,,,,,,,,
397401,001,2022-11-20_23h54.00.310,Info_measure_main_exp,2022.2.2,Win32,60.28090904,,,,,,,,,,,,,,,,,,masks/mask_005.jpg,,,,,,,,,,,,,,,,,,,,,,,,,,,,,,,,,,,,,,,,,,,0,0,0,4,1,,,,,,,,,,,,,,,,,,,,,,,,,,,,,,,,,,,,,,,,,,,,,,
397401,001,2022-11-20_23h54.00.310,Info_measure_main_exp,2022.2.2,Win32,60.28090904,,,,,,,,,,,,,,,,,,masks/mask_001.jpg,,,,,,,,,,,,,,,,,,,,,,,,,,,,,,,,,,,,,,,,,,,0,1,1,0,1,,,,,,,,,,,,,,,,,,,,,,,,,,,,,,,,,,,,,,,,,,,,,,
397401,001,2022-11-20_23h54.00.310,Info_measure_main_exp,2022.2.2,Win32,60.28090904,,,,,,,,,,,,,,,,,,masks/mask_004.jpg,,,,,,,,,,,,,,,,,,,,,,,,,,,,,,,,,,,,,,,,,,,0,2,2,3,1,,,,,,,,,,,,,,,,,,,,,,,,,,,,,,,,,,,,,,,,,,,,,,
397401,001,2022-11-20_23h54.00.310,Info_measure_main_exp,2022.2.2,Win32,60.28090904,,,,,,,,,,,,,,,,,,masks/mask_003.jpg,,,,,,,,,,,,,,,,,,,,,,,,,,,,,,,,,,,,,,,,,,,0,3,3,2,1,,,,,,,,,,,,,,,,,,,,,,,,,,,,,,,,,,,,,,,,,,,,,,
397401,001,2022-11-20_23h54.00.310,Info_measure_main_exp,2022.2.2,Win32,60.28090904,,,,,,,,,,,,,,,,,,masks/mask_002.jpg,,,,,,,,,,,,,,,,,,,,,,,,,,,,,,,,,,,,,,,,,,,0,4,4,1,1,,,,,,,,,,,,,,,,,,,,,,,,,,,,,,,,,,,,,,,,,,,,,,
397401,001,2022-11-20_23h54.00.310,Info_measure_main_exp,2022.2.2,Win32,60.28090904,,,,,,,,,,,,,,,,,,masks/mask_001.jpg,,,,,,,,,,,,,,,,,,,,,,,,,,,,,,,,,,,,,,,,,,,,,,,,0,0,0,0,1,,,,,,,,,,,,,,,,,,,,,,,,,,,,,,,,,,,,,,,,,
397401,001,2022-11-20_23h54.00.310,Info_measure_main_exp,2022.2.2,Win32,60.28090904,,,,,,,,,,,,,,,,,,masks/mask_005.jpg,,,,,,,,,,,,,,,,,,,,,,,,,,,,,,,,,,,,,,,,,,,,,,,,0,1,1,4,1,,,,,,,,,,,,,,,,,,,,,,,,,,,,,,,,,,,,,,,,,
397401,001,2022-11-20_23h54.00.310,Info_measure_main_exp,2022.2.2,Win32,60.28090904,,,,,,,,,,,,,,,,,,masks/mask_003.jpg,,,,,,,,,,,,,,,,,,,,,,,,,,,,,,,,,,,,,,,,,,,,,,,,0,2,2,2,1,,,,,,,,,,,,,,,,,,,,,,,,,,,,,,,,,,,,,,,,,
397401,001,2022-11-20_23h54.00.310,Info_measure_main_exp,2022.2.2,Win32,60.28090904,,,,,,,,,,,,,,,,,,masks/mask_004.jpg,,,,,,,,,,,,,,,,,,,,,,,,,,,,,,,,,,,,,,,,,,,,,,,,0,3,3,3,1,,,,,,,,,,,,,,,,,,,,,,,,,,,,,,,,,,,,,,,,,
397401,001,2022-11-20_23h54.00.310,Info_measure_main_exp,2022.2.2,Win32,60.28090904,,,,,,,,,,,,,,,,,,masks/mask_002.jpg,,,,,,,,,,,,,,,,,,,,,,,,,,,,,,,,,,,,,,,,,,,,,,,,0,4,4,1,1,,,,,,,,,,,,,,,,,,,,,,,,,,,,,,,,,,,,,,,,,
397401,001,2022-11-20_23h54.00.310,Info_measure_main_exp,2022.2.2,Win32,60.28090904,,,,,,,,,,,,,,,,,,,,,,,,,,,,,,7,0.772,1,,,,,,,,,,,,0,131,5,5,2178,2142,absent_patch/patch0002178.jpg,absent_patch/patch0002142.jpg,,,,,,,,,,,,,,,,,,,,0.036111111,0.126851852,1,0,0,response1disk,10,0.003703704,0.000925926,1,0,0,center_square,0,9,9,41,1,,,,,,,,,,,,,,,,,,,,,,,
397401,001,2022-11-20_23h54.00.310,Info_measure_main_exp,2022.2.2,Win32,60.28090904,,,,,,,,,,,,,,,,,,masks/mask_003.jpg,,,,,,,,,,,,,,,,,,,,,,,,,,,,,,,,,,,,,,,,,,,0,0,0,2,1,,,,,,,,,,,,,,,,,,,,,,,,,,,,,,,,,,,,,,,,,,,,,,
397401,001,2022-11-20_23h54.00.310,Info_measure_main_exp,2022.2.2,Win32,60.28090904,,,,,,,,,,,,,,,,,,masks/mask_001.jpg,,,,,,,,,,,,,,,,,,,,,,,,,,,,,,,,,,,,,,,,,,,0,1,1,0,1,,,,,,,,,,,,,,,,,,,,,,,,,,,,,,,,,,,,,,,,,,,,,,
397401,001,2022-11-20_23h54.00.310,Info_measure_main_exp,2022.2.2,Win32,60.28090904,,,,,,,,,,,,,,,,,,masks/mask_005.jpg,,,,,,,,,,,,,,,,,,,,,,,,,,,,,,,,,,,,,,,,,,,0,2,2,4,1,,,,,,,,,,,,,,,,,,,,,,,,,,,,,,,,,,,,,,,,,,,,,,
397401,001,2022-11-20_23h54.00.310,Info_measure_main_exp,2022.2.2,Win32,60.28090904,,,,,,,,,,,,,,,,,,masks/mask_004.jpg,,,,,,,,,,,,,,,,,,,,,,,,,,,,,,,,,,,,,,,,,,,0,3,3,3,1,,,,,,,,,,,,,,,,,,,,,,,,,,,,,,,,,,,,,,,,,,,,,,
397401,001,2022-11-20_23h54.00.310,Info_measure_main_exp,2022.2.2,Win32,60.28090904,,,,,,,,,,,,,,,,,,masks/mask_002.jpg,,,,,,,,,,,,,,,,,,,,,,,,,,,,,,,,,,,,,,,,,,,0,4,4,1,1,,,,,,,,,,,,,,,,,,,,,,,,,,,,,,,,,,,,,,,,,,,,,,
397401,001,2022-11-20_23h54.00.310,Info_measure_main_exp,2022.2.2,Win32,60.28090904,,,,,,,,,,,,,,,,,,masks/mask_004.jpg,,,,,,,,,,,,,,,,,,,,,,,,,,,,,,,,,,,,,,,,,,,,,,,,0,0,0,3,1,,,,,,,,,,,,,,,,,,,,,,,,,,,,,,,,,,,,,,,,,
397401,001,2022-11-20_23h54.00.310,Info_measure_main_exp,2022.2.2,Win32,60.28090904,,,,,,,,,,,,,,,,,,masks/mask_002.jpg,,,,,,,,,,,,,,,,,,,,,,,,,,,,,,,,,,,,,,,,,,,,,,,,0,1,1,1,1,,,,,,,,,,,,,,,,,,,,,,,,,,,,,,,,,,,,,,,,,
397401,001,2022-11-20_23h54.00.310,Info_measure_main_exp,2022.2.2,Win32,60.28090904,,,,,,,,,,,,,,,,,,masks/mask_001.jpg,,,,,,,,,,,,,,,,,,,,,,,,,,,,,,,,,,,,,,,,,,,,,,,,0,2,2,0,1,,,,,,,,,,,,,,,,,,,,,,,,,,,,,,,,,,,,,,,,,
397401,001,2022-11-20_23h54.00.310,Info_measure_main_exp,2022.2.2,Win32,60.28090904,,,,,,,,,,,,,,,,,,masks/mask_003.jpg,,,,,,,,,,,,,,,,,,,,,,,,,,,,,,,,,,,,,,,,,,,,,,,,0,3,3,2,1,,,,,,,,,,,,,,,,,,,,,,,,,,,,,,,,,,,,,,,,,
397401,001,2022-11-20_23h54.00.310,Info_measure_main_exp,2022.2.2,Win32,60.28090904,,,,,,,,,,,,,,,,,,masks/mask_005.jpg,,,,,,,,,,,,,,,,,,,,,,,,,,,,,,,,,,,,,,,,,,,,,,,,0,4,4,4,1,,,,,,,,,,,,,,,,,,,,,,,,,,,,,,,,,,,,,,,,,
397401,001,2022-11-20_23h54.00.310,Info_measure_main_exp,2022.2.2,Win32,60.28090904,,,,,,,,,,,,,,,,,,,,,,,,,,,,,,7,0.7991,1,,,,,,,,,,,,0,131,5,5,1986,1974,absent_patch/patch0001986.jpg,absent_patch/patch0001974.jpg,,,,,,,,,,,,,,,,,,,,0.033333333,0.112037037,1,0,0,response1disk,11,-0.001851852,-0.013888889,1,0,0,center_square,0,10,10,25,1,,,,,,,,,,,,,,,,,,,,,,,
397401,001,2022-11-20_23h54.00.310,Info_measure_main_exp,2022.2.2,Win32,60.28090904,,,,,,,,,,,,,,,,,,masks/mask_003.jpg,,,,,,,,,,,,,,,,,,,,,,,,,,,,,,,,,,,,,,,,,,,0,0,0,2,1,,,,,,,,,,,,,,,,,,,,,,,,,,,,,,,,,,,,,,,,,,,,,,
397401,001,2022-11-20_23h54.00.310,Info_measure_main_exp,2022.2.2,Win32,60.28090904,,,,,,,,,,,,,,,,,,masks/mask_002.jpg,,,,,,,,,,,,,,,,,,,,,,,,,,,,,,,,,,,,,,,,,,,0,1,1,1,1,,,,,,,,,,,,,,,,,,,,,,,,,,,,,,,,,,,,,,,,,,,,,,
397401,001,2022-11-20_23h54.00.310,Info_measure_main_exp,2022.2.2,Win32,60.28090904,,,,,,,,,,,,,,,,,,masks/mask_005.jpg,,,,,,,,,,,,,,,,,,,,,,,,,,,,,,,,,,,,,,,,,,,0,2,2,4,1,,,,,,,,,,,,,,,,,,,,,,,,,,,,,,,,,,,,,,,,,,,,,,
397401,001,2022-11-20_23h54.00.310,Info_measure_main_exp,2022.2.2,Win32,60.28090904,,,,,,,,,,,,,,,,,,masks/mask_001.jpg,,,,,,,,,,,,,,,,,,,,,,,,,,,,,,,,,,,,,,,,,,,0,3,3,0,1,,,,,,,,,,,,,,,,,,,,,,,,,,,,,,,,,,,,,,,,,,,,,,
397401,001,2022-11-20_23h54.00.310,Info_measure_main_exp,2022.2.2,Win32,60.28090904,,,,,,,,,,,,,,,,,,masks/mask_004.jpg,,,,,,,,,,,,,,,,,,,,,,,,,,,,,,,,,,,,,,,,,,,0,4,4,3,1,,,,,,,,,,,,,,,,,,,,,,,,,,,,,,,,,,,,,,,,,,,,,,
397401,001,2022-11-20_23h54.00.310,Info_measure_main_exp,2022.2.2,Win32,60.28090904,,,,,,,,,,,,,,,,,,masks/mask_002.jpg,,,,,,,,,,,,,,,,,,,,,,,,,,,,,,,,,,,,,,,,,,,,,,,,0,0,0,1,1,,,,,,,,,,,,,,,,,,,,,,,,,,,,,,,,,,,,,,,,,
397401,001,2022-11-20_23h54.00.310,Info_measure_main_exp,2022.2.2,Win32,60.28090904,,,,,,,,,,,,,,,,,,masks/mask_003.jpg,,,,,,,,,,,,,,,,,,,,,,,,,,,,,,,,,,,,,,,,,,,,,,,,0,1,1,2,1,,,,,,,,,,,,,,,,,,,,,,,,,,,,,,,,,,,,,,,,,
397401,001,2022-11-20_23h54.00.310,Info_measure_main_exp,2022.2.2,Win32,60.28090904,,,,,,,,,,,,,,,,,,masks/mask_005.jpg,,,,,,,,,,,,,,,,,,,,,,,,,,,,,,,,,,,,,,,,,,,,,,,,0,2,2,4,1,,,,,,,,,,,,,,,,,,,,,,,,,,,,,,,,,,,,,,,,,
397401,001,2022-11-20_23h54.00.310,Info_measure_main_exp,2022.2.2,Win32,60.28090904,,,,,,,,,,,,,,,,,,masks/mask_004.jpg,,,,,,,,,,,,,,,,,,,,,,,,,,,,,,,,,,,,,,,,,,,,,,,,0,3,3,3,1,,,,,,,,,,,,,,,,,,,,,,,,,,,,,,,,,,,,,,,,,
397401,001,2022-11-20_23h54.00.310,Info_measure_main_exp,2022.2.2,Win32,60.28090904,,,,,,,,,,,,,,,,,,masks/mask_001.jpg,,,,,,,,,,,,,,,,,,,,,,,,,,,,,,,,,,,,,,,,,,,,,,,,0,4,4,0,1,,,,,,,,,,,,,,,,,,,,,,,,,,,,,,,,,,,,,,,,,
397401,001,2022-11-20_23h54.00.310,Info_measure_main_exp,2022.2.2,Win32,60.28090904,,,,,,,,,,,,,,,,,,,,,,,,,,,,,,3,1.1001,1,,,,,,,,,,,,0,131,5,5,1986,2274,absent_patch/patch0001986.jpg,absent_patch/patch0002274.jpg,,,,,,,,,,,,,,,,,,,,-0.047222222,-0.105555556,1,0,0,response5disk,12,-0.00462963,0.008333333,1,0,0,center_square,0,11,11,7,1,,,,,,,,,,,,,,,,,,,,,,,
397401,001,2022-11-20_23h54.00.310,Info_measure_main_exp,2022.2.2,Win32,60.28090904,,,,,,,,,,,,,,,,,,masks/mask_002.jpg,,,,,,,,,,,,,,,,,,,,,,,,,,,,,,,,,,,,,,,,,,,0,0,0,1,1,,,,,,,,,,,,,,,,,,,,,,,,,,,,,,,,,,,,,,,,,,,,,,
397401,001,2022-11-20_23h54.00.310,Info_measure_main_exp,2022.2.2,Win32,60.28090904,,,,,,,,,,,,,,,,,,masks/mask_003.jpg,,,,,,,,,,,,,,,,,,,,,,,,,,,,,,,,,,,,,,,,,,,0,1,1,2,1,,,,,,,,,,,,,,,,,,,,,,,,,,,,,,,,,,,,,,,,,,,,,,
397401,001,2022-11-20_23h54.00.310,Info_measure_main_exp,2022.2.2,Win32,60.28090904,,,,,,,,,,,,,,,,,,masks/mask_001.jpg,,,,,,,,,,,,,,,,,,,,,,,,,,,,,,,,,,,,,,,,,,,0,2,2,0,1,,,,,,,,,,,,,,,,,,,,,,,,,,,,,,,,,,,,,,,,,,,,,,
397401,001,2022-11-20_23h54.00.310,Info_measure_main_exp,2022.2.2,Win32,60.28090904,,,,,,,,,,,,,,,,,,masks/mask_004.jpg,,,,,,,,,,,,,,,,,,,,,,,,,,,,,,,,,,,,,,,,,,,0,3,3,3,1,,,,,,,,,,,,,,,,,,,,,,,,,,,,,,,,,,,,,,,,,,,,,,
397401,001,2022-11-20_23h54.00.310,Info_measure_main_exp,2022.2.2,Win32,60.28090904,,,,,,,,,,,,,,,,,,masks/mask_005.jpg,,,,,,,,,,,,,,,,,,,,,,,,,,,,,,,,,,,,,,,,,,,0,4,4,4,1,,,,,,,,,,,,,,,,,,,,,,,,,,,,,,,,,,,,,,,,,,,,,,
397401,001,2022-11-20_23h54.00.310,Info_measure_main_exp,2022.2.2,Win32,60.28090904,,,,,,,,,,,,,,,,,,masks/mask_001.jpg,,,,,,,,,,,,,,,,,,,,,,,,,,,,,,,,,,,,,,,,,,,,,,,,0,0,0,0,1,,,,,,,,,,,,,,,,,,,,,,,,,,,,,,,,,,,,,,,,,
397401,001,2022-11-20_23h54.00.310,Info_measure_main_exp,2022.2.2,Win32,60.28090904,,,,,,,,,,,,,,,,,,masks/mask_005.jpg,,,,,,,,,,,,,,,,,,,,,,,,,,,,,,,,,,,,,,,,,,,,,,,,0,1,1,4,1,,,,,,,,,,,,,,,,,,,,,,,,,,,,,,,,,,,,,,,,,
397401,001,2022-11-20_23h54.00.310,Info_measure_main_exp,2022.2.2,Win32,60.28090904,,,,,,,,,,,,,,,,,,masks/mask_002.jpg,,,,,,,,,,,,,,,,,,,,,,,,,,,,,,,,,,,,,,,,,,,,,,,,0,2,2,1,1,,,,,,,,,,,,,,,,,,,,,,,,,,,,,,,,,,,,,,,,,
397401,001,2022-11-20_23h54.00.310,Info_measure_main_exp,2022.2.2,Win32,60.28090904,,,,,,,,,,,,,,,,,,masks/mask_004.jpg,,,,,,,,,,,,,,,,,,,,,,,,,,,,,,,,,,,,,,,,,,,,,,,,0,3,3,3,1,,,,,,,,,,,,,,,,,,,,,,,,,,,,,,,,,,,,,,,,,
397401,001,2022-11-20_23h54.00.310,Info_measure_main_exp,2022.2.2,Win32,60.28090904,,,,,,,,,,,,,,,,,,masks/mask_003.jpg,,,,,,,,,,,,,,,,,,,,,,,,,,,,,,,,,,,,,,,,,,,,,,,,0,4,4,2,1,,,,,,,,,,,,,,,,,,,,,,,,,,,,,,,,,,,,,,,,,
397401,001,2022-11-20_23h54.00.310,Info_measure_main_exp,2022.2.2,Win32,60.28090904,,,,,,,,,,,,,,,,,,,,,,,,,,,,,,7,1.0161,1,,,,,,,,,,,,1,131,5,5,2190,1,absent_patch/patch0002190.jpg,present_patch/cong_131_5_a.jpg,,,,,,,,,,,,,,,,,,,,0.089814815,0.121296296,1,0,0,response1disk,13,0.012962963,0.00462963,1,0,0,center_square,0,12,12,64,1,,,,,,,,,,,,,,,,,,,,,,,
397401,001,2022-11-20_23h54.00.310,Info_measure_main_exp,2022.2.2,Win32,60.28090904,,,,,,,,,,,,,,,,,,masks/mask_001.jpg,,,,,,,,,,,,,,,,,,,,,,,,,,,,,,,,,,,,,,,,,,,0,0,0,0,1,,,,,,,,,,,,,,,,,,,,,,,,,,,,,,,,,,,,,,,,,,,,,,
397401,001,2022-11-20_23h54.00.310,Info_measure_main_exp,2022.2.2,Win32,60.28090904,,,,,,,,,,,,,,,,,,masks/mask_005.jpg,,,,,,,,,,,,,,,,,,,,,,,,,,,,,,,,,,,,,,,,,,,0,1,1,4,1,,,,,,,,,,,,,,,,,,,,,,,,,,,,,,,,,,,,,,,,,,,,,,
397401,001,2022-11-20_23h54.00.310,Info_measure_main_exp,2022.2.2,Win32,60.28090904,,,,,,,,,,,,,,,,,,masks/mask_003.jpg,,,,,,,,,,,,,,,,,,,,,,,,,,,,,,,,,,,,,,,,,,,0,2,2,2,1,,,,,,,,,,,,,,,,,,,,,,,,,,,,,,,,,,,,,,,,,,,,,,
397401,001,2022-11-20_23h54.00.310,Info_measure_main_exp,2022.2.2,Win32,60.28090904,,,,,,,,,,,,,,,,,,masks/mask_004.jpg,,,,,,,,,,,,,,,,,,,,,,,,,,,,,,,,,,,,,,,,,,,0,3,3,3,1,,,,,,,,,,,,,,,,,,,,,,,,,,,,,,,,,,,,,,,,,,,,,,
397401,001,2022-11-20_23h54.00.310,Info_measure_main_exp,2022.2.2,Win32,60.28090904,,,,,,,,,,,,,,,,,,masks/mask_002.jpg,,,,,,,,,,,,,,,,,,,,,,,,,,,,,,,,,,,,,,,,,,,0,4,4,1,1,,,,,,,,,,,,,,,,,,,,,,,,,,,,,,,,,,,,,,,,,,,,,,
397401,001,2022-11-20_23h54.00.310,Info_measure_main_exp,2022.2.2,Win32,60.28090904,,,,,,,,,,,,,,,,,,masks/mask_003.jpg,,,,,,,,,,,,,,,,,,,,,,,,,,,,,,,,,,,,,,,,,,,,,,,,0,0,0,2,1,,,,,,,,,,,,,,,,,,,,,,,,,,,,,,,,,,,,,,,,,
397401,001,2022-11-20_23h54.00.310,Info_measure_main_exp,2022.2.2,Win32,60.28090904,,,,,,,,,,,,,,,,,,masks/mask_001.jpg,,,,,,,,,,,,,,,,,,,,,,,,,,,,,,,,,,,,,,,,,,,,,,,,0,1,1,0,1,,,,,,,,,,,,,,,,,,,,,,,,,,,,,,,,,,,,,,,,,
397401,001,2022-11-20_23h54.00.310,Info_measure_main_exp,2022.2.2,Win32,60.28090904,,,,,,,,,,,,,,,,,,masks/mask_005.jpg,,,,,,,,,,,,,,,,,,,,,,,,,,,,,,,,,,,,,,,,,,,,,,,,0,2,2,4,1,,,,,,,,,,,,,,,,,,,,,,,,,,,,,,,,,,,,,,,,,
397401,001,2022-11-20_23h54.00.310,Info_measure_main_exp,2022.2.2,Win32,60.28090904,,,,,,,,,,,,,,,,,,masks/mask_004.jpg,,,,,,,,,,,,,,,,,,,,,,,,,,,,,,,,,,,,,,,,,,,,,,,,0,3,3,3,1,,,,,,,,,,,,,,,,,,,,,,,,,,,,,,,,,,,,,,,,,
397401,001,2022-11-20_23h54.00.310,Info_measure_main_exp,2022.2.2,Win32,60.28090904,,,,,,,,,,,,,,,,,,masks/mask_002.jpg,,,,,,,,,,,,,,,,,,,,,,,,,,,,,,,,,,,,,,,,,,,,,,,,0,4,4,1,1,,,,,,,,,,,,,,,,,,,,,,,,,,,,,,,,,,,,,,,,,
397401,001,2022-11-20_23h54.00.310,Info_measure_main_exp,2022.2.2,Win32,60.28090904,,,,,,,,,,,,,,,,,,,,,,,,,,,,,,7,1.0496,1,,,,,,,,,,,,0,131,5,5,2154,2214,absent_patch/patch0002154.jpg,absent_patch/patch0002214.jpg,,,,,,,,,,,,,,,,,,,,0.039814815,0.108333333,1,0,0,response1disk,14,0.008333333,-0.002777778,1,0,0,center_square,0,13,13,67,1,,,,,,,,,,,,,,,,,,,,,,,
397401,001,2022-11-20_23h54.00.310,Info_measure_main_exp,2022.2.2,Win32,60.28090904,,,,,,,,,,,,,,,,,,masks/mask_005.jpg,,,,,,,,,,,,,,,,,,,,,,,,,,,,,,,,,,,,,,,,,,,0,0,0,4,1,,,,,,,,,,,,,,,,,,,,,,,,,,,,,,,,,,,,,,,,,,,,,,
397401,001,2022-11-20_23h54.00.310,Info_measure_main_exp,2022.2.2,Win32,60.28090904,,,,,,,,,,,,,,,,,,masks/mask_002.jpg,,,,,,,,,,,,,,,,,,,,,,,,,,,,,,,,,,,,,,,,,,,0,1,1,1,1,,,,,,,,,,,,,,,,,,,,,,,,,,,,,,,,,,,,,,,,,,,,,,
397401,001,2022-11-20_23h54.00.310,Info_measure_main_exp,2022.2.2,Win32,60.28090904,,,,,,,,,,,,,,,,,,masks/mask_001.jpg,,,,,,,,,,,,,,,,,,,,,,,,,,,,,,,,,,,,,,,,,,,0,2,2,0,1,,,,,,,,,,,,,,,,,,,,,,,,,,,,,,,,,,,,,,,,,,,,,,
397401,001,2022-11-20_23h54.00.310,Info_measure_main_exp,2022.2.2,Win32,60.28090904,,,,,,,,,,,,,,,,,,masks/mask_004.jpg,,,,,,,,,,,,,,,,,,,,,,,,,,,,,,,,,,,,,,,,,,,0,3,3,3,1,,,,,,,,,,,,,,,,,,,,,,,,,,,,,,,,,,,,,,,,,,,,,,
397401,001,2022-11-20_23h54.00.310,Info_measure_main_exp,2022.2.2,Win32,60.28090904,,,,,,,,,,,,,,,,,,masks/mask_003.jpg,,,,,,,,,,,,,,,,,,,,,,,,,,,,,,,,,,,,,,,,,,,0,4,4,2,1,,,,,,,,,,,,,,,,,,,,,,,,,,,,,,,,,,,,,,,,,,,,,,
397401,001,2022-11-20_23h54.00.310,Info_measure_main_exp,2022.2.2,Win32,60.28090904,,,,,,,,,,,,,,,,,,masks/mask_004.jpg,,,,,,,,,,,,,,,,,,,,,,,,,,,,,,,,,,,,,,,,,,,,,,,,0,0,0,3,1,,,,,,,,,,,,,,,,,,,,,,,,,,,,,,,,,,,,,,,,,
397401,001,2022-11-20_23h54.00.310,Info_measure_main_exp,2022.2.2,Win32,60.28090904,,,,,,,,,,,,,,,,,,masks/mask_002.jpg,,,,,,,,,,,,,,,,,,,,,,,,,,,,,,,,,,,,,,,,,,,,,,,,0,1,1,1,1,,,,,,,,,,,,,,,,,,,,,,,,,,,,,,,,,,,,,,,,,
397401,001,2022-11-20_23h54.00.310,Info_measure_main_exp,2022.2.2,Win32,60.28090904,,,,,,,,,,,,,,,,,,masks/mask_005.jpg,,,,,,,,,,,,,,,,,,,,,,,,,,,,,,,,,,,,,,,,,,,,,,,,0,2,2,4,1,,,,,,,,,,,,,,,,,,,,,,,,,,,,,,,,,,,,,,,,,
397401,001,2022-11-20_23h54.00.310,Info_measure_main_exp,2022.2.2,Win32,60.28090904,,,,,,,,,,,,,,,,,,masks/mask_001.jpg,,,,,,,,,,,,,,,,,,,,,,,,,,,,,,,,,,,,,,,,,,,,,,,,0,3,3,0,1,,,,,,,,,,,,,,,,,,,,,,,,,,,,,,,,,,,,,,,,,
397401,001,2022-11-20_23h54.00.310,Info_measure_main_exp,2022.2.2,Win32,60.28090904,,,,,,,,,,,,,,,,,,masks/mask_003.jpg,,,,,,,,,,,,,,,,,,,,,,,,,,,,,,,,,,,,,,,,,,,,,,,,0,4,4,2,1,,,,,,,,,,,,,,,,,,,,,,,,,,,,,,,,,,,,,,,,,
397401,001,2022-11-20_23h54.00.310,Info_measure_main_exp,2022.2.2,Win32,60.28090904,,,,,,,,,,,,,,,,,,,,,,,,,,,,,,7,0.6327,1,,,,,,,,,,,,0,131,5,5,2166,2154,absent_patch/patch0002166.jpg,absent_patch/patch0002154.jpg,,,,,,,,,,,,,,,,,,,,0.038888889,0.089814815,1,0,0,response1disk,15,-0.002777778,-0.003703704,1,0,0,center_square,0,14,14,79,1,,,,,,,,,,,,,,,,,,,,,,,
397401,001,2022-11-20_23h54.00.310,Info_measure_main_exp,2022.2.2,Win32,60.28090904,,,,,,,,,,,,,,,,,,masks/mask_001.jpg,,,,,,,,,,,,,,,,,,,,,,,,,,,,,,,,,,,,,,,,,,,0,0,0,0,1,,,,,,,,,,,,,,,,,,,,,,,,,,,,,,,,,,,,,,,,,,,,,,
397401,001,2022-11-20_23h54.00.310,Info_measure_main_exp,2022.2.2,Win32,60.28090904,,,,,,,,,,,,,,,,,,masks/mask_003.jpg,,,,,,,,,,,,,,,,,,,,,,,,,,,,,,,,,,,,,,,,,,,0,1,1,2,1,,,,,,,,,,,,,,,,,,,,,,,,,,,,,,,,,,,,,,,,,,,,,,
397401,001,2022-11-20_23h54.00.310,Info_measure_main_exp,2022.2.2,Win32,60.28090904,,,,,,,,,,,,,,,,,,masks/mask_004.jpg,,,,,,,,,,,,,,,,,,,,,,,,,,,,,,,,,,,,,,,,,,,0,2,2,3,1,,,,,,,,,,,,,,,,,,,,,,,,,,,,,,,,,,,,,,,,,,,,,,
397401,001,2022-11-20_23h54.00.310,Info_measure_main_exp,2022.2.2,Win32,60.28090904,,,,,,,,,,,,,,,,,,masks/mask_005.jpg,,,,,,,,,,,,,,,,,,,,,,,,,,,,,,,,,,,,,,,,,,,0,3,3,4,1,,,,,,,,,,,,,,,,,,,,,,,,,,,,,,,,,,,,,,,,,,,,,,
397401,001,2022-11-20_23h54.00.310,Info_measure_main_exp,2022.2.2,Win32,60.28090904,,,,,,,,,,,,,,,,,,masks/mask_002.jpg,,,,,,,,,,,,,,,,,,,,,,,,,,,,,,,,,,,,,,,,,,,0,4,4,1,1,,,,,,,,,,,,,,,,,,,,,,,,,,,,,,,,,,,,,,,,,,,,,,
397401,001,2022-11-20_23h54.00.310,Info_measure_main_exp,2022.2.2,Win32,60.28090904,,,,,,,,,,,,,,,,,,masks/mask_004.jpg,,,,,,,,,,,,,,,,,,,,,,,,,,,,,,,,,,,,,,,,,,,,,,,,0,0,0,3,1,,,,,,,,,,,,,,,,,,,,,,,,,,,,,,,,,,,,,,,,,
397401,001,2022-11-20_23h54.00.310,Info_measure_main_exp,2022.2.2,Win32,60.28090904,,,,,,,,,,,,,,,,,,masks/mask_003.jpg,,,,,,,,,,,,,,,,,,,,,,,,,,,,,,,,,,,,,,,,,,,,,,,,0,1,1,2,1,,,,,,,,,,,,,,,,,,,,,,,,,,,,,,,,,,,,,,,,,
397401,001,2022-11-20_23h54.00.310,Info_measure_main_exp,2022.2.2,Win32,60.28090904,,,,,,,,,,,,,,,,,,masks/mask_002.jpg,,,,,,,,,,,,,,,,,,,,,,,,,,,,,,,,,,,,,,,,,,,,,,,,0,2,2,1,1,,,,,,,,,,,,,,,,,,,,,,,,,,,,,,,,,,,,,,,,,
397401,001,2022-11-20_23h54.00.310,Info_measure_main_exp,2022.2.2,Win32,60.28090904,,,,,,,,,,,,,,,,,,masks/mask_001.jpg,,,,,,,,,,,,,,,,,,,,,,,,,,,,,,,,,,,,,,,,,,,,,,,,0,3,3,0,1,,,,,,,,,,,,,,,,,,,,,,,,,,,,,,,,,,,,,,,,,
397401,001,2022-11-20_23h54.00.310,Info_measure_main_exp,2022.2.2,Win32,60.28090904,,,,,,,,,,,,,,,,,,masks/mask_005.jpg,,,,,,,,,,,,,,,,,,,,,,,,,,,,,,,,,,,,,,,,,,,,,,,,0,4,4,4,1,,,,,,,,,,,,,,,,,,,,,,,,,,,,,,,,,,,,,,,,,
397401,001,2022-11-20_23h54.00.310,Info_measure_main_exp,2022.2.2,Win32,60.28090904,,,,,,,,,,,,,,,,,,,,,,,,,,,,,,0,1.3162,1,,,,,,,,,,,,0,131,5,5,2298,2190,absent_patch/patch0002298.jpg,absent_patch/patch0002190.jpg,,,,,,,,,,,,,,,,,,,,-0.036111111,0.092592593,1,0,0,response7disk,16,0,0,1,0,0,center_square,0,15,15,20,1,,,,,,,,,,,,,,,,,,,,,,,
397401,001,2022-11-20_23h54.00.310,Info_measure_main_exp,2022.2.2,Win32,60.28090904,,,,,,,,,,,,,,,,,,masks/mask_001.jpg,,,,,,,,,,,,,,,,,,,,,,,,,,,,,,,,,,,,,,,,,,,0,0,0,0,1,,,,,,,,,,,,,,,,,,,,,,,,,,,,,,,,,,,,,,,,,,,,,,
397401,001,2022-11-20_23h54.00.310,Info_measure_main_exp,2022.2.2,Win32,60.28090904,,,,,,,,,,,,,,,,,,masks/mask_004.jpg,,,,,,,,,,,,,,,,,,,,,,,,,,,,,,,,,,,,,,,,,,,0,1,1,3,1,,,,,,,,,,,,,,,,,,,,,,,,,,,,,,,,,,,,,,,,,,,,,,
397401,001,2022-11-20_23h54.00.310,Info_measure_main_exp,2022.2.2,Win32,60.28090904,,,,,,,,,,,,,,,,,,masks/mask_003.jpg,,,,,,,,,,,,,,,,,,,,,,,,,,,,,,,,,,,,,,,,,,,0,2,2,2,1,,,,,,,,,,,,,,,,,,,,,,,,,,,,,,,,,,,,,,,,,,,,,,
397401,001,2022-11-20_23h54.00.310,Info_measure_main_exp,2022.2.2,Win32,60.28090904,,,,,,,,,,,,,,,,,,masks/mask_005.jpg,,,,,,,,,,,,,,,,,,,,,,,,,,,,,,,,,,,,,,,,,,,0,3,3,4,1,,,,,,,,,,,,,,,,,,,,,,,,,,,,,,,,,,,,,,,,,,,,,,
397401,001,2022-11-20_23h54.00.310,Info_measure_main_exp,2022.2.2,Win32,60.28090904,,,,,,,,,,,,,,,,,,masks/mask_002.jpg,,,,,,,,,,,,,,,,,,,,,,,,,,,,,,,,,,,,,,,,,,,0,4,4,1,1,,,,,,,,,,,,,,,,,,,,,,,,,,,,,,,,,,,,,,,,,,,,,,
397401,001,2022-11-20_23h54.00.310,Info_measure_main_exp,2022.2.2,Win32,60.28090904,,,,,,,,,,,,,,,,,,masks/mask_004.jpg,,,,,,,,,,,,,,,,,,,,,,,,,,,,,,,,,,,,,,,,,,,,,,,,0,0,0,3,1,,,,,,,,,,,,,,,,,,,,,,,,,,,,,,,,,,,,,,,,,
397401,001,2022-11-20_23h54.00.310,Info_measure_main_exp,2022.2.2,Win32,60.28090904,,,,,,,,,,,,,,,,,,masks/mask_001.jpg,,,,,,,,,,,,,,,,,,,,,,,,,,,,,,,,,,,,,,,,,,,,,,,,0,1,1,0,1,,,,,,,,,,,,,,,,,,,,,,,,,,,,,,,,,,,,,,,,,
397401,001,2022-11-20_23h54.00.310,Info_measure_main_exp,2022.2.2,Win32,60.28090904,,,,,,,,,,,,,,,,,,masks/mask_002.jpg,,,,,,,,,,,,,,,,,,,,,,,,,,,,,,,,,,,,,,,,,,,,,,,,0,2,2,1,1,,,,,,,,,,,,,,,,,,,,,,,,,,,,,,,,,,,,,,,,,
397401,001,2022-11-20_23h54.00.310,Info_measure_main_exp,2022.2.2,Win32,60.28090904,,,,,,,,,,,,,,,,,,masks/mask_005.jpg,,,,,,,,,,,,,,,,,,,,,,,,,,,,,,,,,,,,,,,,,,,,,,,,0,3,3,4,1,,,,,,,,,,,,,,,,,,,,,,,,,,,,,,,,,,,,,,,,,
397401,001,2022-11-20_23h54.00.310,Info_measure_main_exp,2022.2.2,Win32,60.28090904,,,,,,,,,,,,,,,,,,masks/mask_003.jpg,,,,,,,,,,,,,,,,,,,,,,,,,,,,,,,,,,,,,,,,,,,,,,,,0,4,4,2,1,,,,,,,,,,,,,,,,,,,,,,,,,,,,,,,,,,,,,,,,,
397401,001,2022-11-20_23h54.00.310,Info_measure_main_exp,2022.2.2,Win32,60.28090904,,,,,,,,,,,,,,,,,,,,,,,,,,,,,,4,1.0162,1,,,,,,,,,,,,0,131,5,5,2178,2166,absent_patch/patch0002178.jpg,absent_patch/patch0002166.jpg,,,,,,,,,,,,,,,,,,,,0.053703704,-0.078703704,1,0,0,response3disk,17,0.008333333,-0.001851852,1,0,0,center_square,0,16,16,72,1,,,,,,,,,,,,,,,,,,,,,,,
397401,001,2022-11-20_23h54.00.310,Info_measure_main_exp,2022.2.2,Win32,60.28090904,,,,,,,,,,,,,,,,,,masks/mask_003.jpg,,,,,,,,,,,,,,,,,,,,,,,,,,,,,,,,,,,,,,,,,,,0,0,0,2,1,,,,,,,,,,,,,,,,,,,,,,,,,,,,,,,,,,,,,,,,,,,,,,
397401,001,2022-11-20_23h54.00.310,Info_measure_main_exp,2022.2.2,Win32,60.28090904,,,,,,,,,,,,,,,,,,masks/mask_002.jpg,,,,,,,,,,,,,,,,,,,,,,,,,,,,,,,,,,,,,,,,,,,0,1,1,1,1,,,,,,,,,,,,,,,,,,,,,,,,,,,,,,,,,,,,,,,,,,,,,,
397401,001,2022-11-20_23h54.00.310,Info_measure_main_exp,2022.2.2,Win32,60.28090904,,,,,,,,,,,,,,,,,,masks/mask_004.jpg,,,,,,,,,,,,,,,,,,,,,,,,,,,,,,,,,,,,,,,,,,,0,2,2,3,1,,,,,,,,,,,,,,,,,,,,,,,,,,,,,,,,,,,,,,,,,,,,,,
397401,001,2022-11-20_23h54.00.310,Info_measure_main_exp,2022.2.2,Win32,60.28090904,,,,,,,,,,,,,,,,,,masks/mask_001.jpg,,,,,,,,,,,,,,,,,,,,,,,,,,,,,,,,,,,,,,,,,,,0,3,3,0,1,,,,,,,,,,,,,,,,,,,,,,,,,,,,,,,,,,,,,,,,,,,,,,
397401,001,2022-11-20_23h54.00.310,Info_measure_main_exp,2022.2.2,Win32,60.28090904,,,,,,,,,,,,,,,,,,masks/mask_005.jpg,,,,,,,,,,,,,,,,,,,,,,,,,,,,,,,,,,,,,,,,,,,0,4,4,4,1,,,,,,,,,,,,,,,,,,,,,,,,,,,,,,,,,,,,,,,,,,,,,,
397401,001,2022-11-20_23h54.00.310,Info_measure_main_exp,2022.2.2,Win32,60.28090904,,,,,,,,,,,,,,,,,,masks/mask_003.jpg,,,,,,,,,,,,,,,,,,,,,,,,,,,,,,,,,,,,,,,,,,,,,,,,0,0,0,2,1,,,,,,,,,,,,,,,,,,,,,,,,,,,,,,,,,,,,,,,,,
397401,001,2022-11-20_23h54.00.310,Info_measure_main_exp,2022.2.2,Win32,60.28090904,,,,,,,,,,,,,,,,,,masks/mask_002.jpg,,,,,,,,,,,,,,,,,,,,,,,,,,,,,,,,,,,,,,,,,,,,,,,,0,1,1,1,1,,,,,,,,,,,,,,,,,,,,,,,,,,,,,,,,,,,,,,,,,
397401,001,2022-11-20_23h54.00.310,Info_measure_main_exp,2022.2.2,Win32,60.28090904,,,,,,,,,,,,,,,,,,masks/mask_001.jpg,,,,,,,,,,,,,,,,,,,,,,,,,,,,,,,,,,,,,,,,,,,,,,,,0,2,2,0,1,,,,,,,,,,,,,,,,,,,,,,,,,,,,,,,,,,,,,,,,,
397401,001,2022-11-20_23h54.00.310,Info_measure_main_exp,2022.2.2,Win32,60.28090904,,,,,,,,,,,,,,,,,,masks/mask_004.jpg,,,,,,,,,,,,,,,,,,,,,,,,,,,,,,,,,,,,,,,,,,,,,,,,0,3,3,3,1,,,,,,,,,,,,,,,,,,,,,,,,,,,,,,,,,,,,,,,,,
397401,001,2022-11-20_23h54.00.310,Info_measure_main_exp,2022.2.2,Win32,60.28090904,,,,,,,,,,,,,,,,,,masks/mask_005.jpg,,,,,,,,,,,,,,,,,,,,,,,,,,,,,,,,,,,,,,,,,,,,,,,,0,4,4,4,1,,,,,,,,,,,,,,,,,,,,,,,,,,,,,,,,,,,,,,,,,
397401,001,2022-11-20_23h54.00.310,Info_measure_main_exp,2022.2.2,Win32,60.28090904,,,,,,,,,,,,,,,,,,,,,,,,,,,,,,6,1.2494,1,,,,,,,,,,,,0,131,5,5,2250,2166,absent_patch/patch0002250.jpg,absent_patch/patch0002166.jpg,,,,,,,,,,,,,,,,,,,,0.038888889,0.023148148,1,0,0,response1disk,18,-0.015740741,-0.011111111,1,0,0,center_square,0,17,17,60,1,,,,,,,,,,,,,,,,,,,,,,,
397401,001,2022-11-20_23h54.00.310,Info_measure_main_exp,2022.2.2,Win32,60.28090904,,,,,,,,,,,,,,,,,,masks/mask_004.jpg,,,,,,,,,,,,,,,,,,,,,,,,,,,,,,,,,,,,,,,,,,,0,0,0,3,1,,,,,,,,,,,,,,,,,,,,,,,,,,,,,,,,,,,,,,,,,,,,,,
397401,001,2022-11-20_23h54.00.310,Info_measure_main_exp,2022.2.2,Win32,60.28090904,,,,,,,,,,,,,,,,,,masks/mask_001.jpg,,,,,,,,,,,,,,,,,,,,,,,,,,,,,,,,,,,,,,,,,,,0,1,1,0,1,,,,,,,,,,,,,,,,,,,,,,,,,,,,,,,,,,,,,,,,,,,,,,
397401,001,2022-11-20_23h54.00.310,Info_measure_main_exp,2022.2.2,Win32,60.28090904,,,,,,,,,,,,,,,,,,masks/mask_002.jpg,,,,,,,,,,,,,,,,,,,,,,,,,,,,,,,,,,,,,,,,,,,0,2,2,1,1,,,,,,,,,,,,,,,,,,,,,,,,,,,,,,,,,,,,,,,,,,,,,,
397401,001,2022-11-20_23h54.00.310,Info_measure_main_exp,2022.2.2,Win32,60.28090904,,,,,,,,,,,,,,,,,,masks/mask_005.jpg,,,,,,,,,,,,,,,,,,,,,,,,,,,,,,,,,,,,,,,,,,,0,3,3,4,1,,,,,,,,,,,,,,,,,,,,,,,,,,,,,,,,,,,,,,,,,,,,,,
397401,001,2022-11-20_23h54.00.310,Info_measure_main_exp,2022.2.2,Win32,60.28090904,,,,,,,,,,,,,,,,,,masks/mask_003.jpg,,,,,,,,,,,,,,,,,,,,,,,,,,,,,,,,,,,,,,,,,,,0,4,4,2,1,,,,,,,,,,,,,,,,,,,,,,,,,,,,,,,,,,,,,,,,,,,,,,
397401,001,2022-11-20_23h54.00.310,Info_measure_main_exp,2022.2.2,Win32,60.28090904,,,,,,,,,,,,,,,,,,masks/mask_002.jpg,,,,,,,,,,,,,,,,,,,,,,,,,,,,,,,,,,,,,,,,,,,,,,,,0,0,0,1,1,,,,,,,,,,,,,,,,,,,,,,,,,,,,,,,,,,,,,,,,,
397401,001,2022-11-20_23h54.00.310,Info_measure_main_exp,2022.2.2,Win32,60.28090904,,,,,,,,,,,,,,,,,,masks/mask_005.jpg,,,,,,,,,,,,,,,,,,,,,,,,,,,,,,,,,,,,,,,,,,,,,,,,0,1,1,4,1,,,,,,,,,,,,,,,,,,,,,,,,,,,,,,,,,,,,,,,,,
397401,001,2022-11-20_23h54.00.310,Info_measure_main_exp,2022.2.2,Win32,60.28090904,,,,,,,,,,,,,,,,,,masks/mask_003.jpg,,,,,,,,,,,,,,,,,,,,,,,,,,,,,,,,,,,,,,,,,,,,,,,,0,2,2,2,1,,,,,,,,,,,,,,,,,,,,,,,,,,,,,,,,,,,,,,,,,
397401,001,2022-11-20_23h54.00.310,Info_measure_main_exp,2022.2.2,Win32,60.28090904,,,,,,,,,,,,,,,,,,masks/mask_001.jpg,,,,,,,,,,,,,,,,,,,,,,,,,,,,,,,,,,,,,,,,,,,,,,,,0,3,3,0,1,,,,,,,,,,,,,,,,,,,,,,,,,,,,,,,,,,,,,,,,,
397401,001,2022-11-20_23h54.00.310,Info_measure_main_exp,2022.2.2,Win32,60.28090904,,,,,,,,,,,,,,,,,,masks/mask_004.jpg,,,,,,,,,,,,,,,,,,,,,,,,,,,,,,,,,,,,,,,,,,,,,,,,0,4,4,3,1,,,,,,,,,,,,,,,,,,,,,,,,,,,,,,,,,,,,,,,,,
397401,001,2022-11-20_23h54.00.310,Info_measure_main_exp,2022.2.2,Win32,60.28090904,,,,,,,,,,,,,,,,,,,,,,,,,,,,,,6,0.6993,1,,,,,,,,,,,,0,131,5,5,2190,1986,absent_patch/patch0002190.jpg,absent_patch/patch0001986.jpg,,,,,,,,,,,,,,,,,,,,0.075,0.031481481,1,0,0,response1disk,19,0.013888889,-0.001851852,1,0,0,center_square,0,18,18,111,1,,,,,,,,,,,,,,,,,,,,,,,
397401,001,2022-11-20_23h54.00.310,Info_measure_main_exp,2022.2.2,Win32,60.28090904,,,,,,,,,,,,,,,,,,masks/mask_005.jpg,,,,,,,,,,,,,,,,,,,,,,,,,,,,,,,,,,,,,,,,,,,0,0,0,4,1,,,,,,,,,,,,,,,,,,,,,,,,,,,,,,,,,,,,,,,,,,,,,,
397401,001,2022-11-20_23h54.00.310,Info_measure_main_exp,2022.2.2,Win32,60.28090904,,,,,,,,,,,,,,,,,,masks/mask_003.jpg,,,,,,,,,,,,,,,,,,,,,,,,,,,,,,,,,,,,,,,,,,,0,1,1,2,1,,,,,,,,,,,,,,,,,,,,,,,,,,,,,,,,,,,,,,,,,,,,,,
397401,001,2022-11-20_23h54.00.310,Info_measure_main_exp,2022.2.2,Win32,60.28090904,,,,,,,,,,,,,,,,,,masks/mask_001.jpg,,,,,,,,,,,,,,,,,,,,,,,,,,,,,,,,,,,,,,,,,,,0,2,2,0,1,,,,,,,,,,,,,,,,,,,,,,,,,,,,,,,,,,,,,,,,,,,,,,
397401,001,2022-11-20_23h54.00.310,Info_measure_main_exp,2022.2.2,Win32,60.28090904,,,,,,,,,,,,,,,,,,masks/mask_002.jpg,,,,,,,,,,,,,,,,,,,,,,,,,,,,,,,,,,,,,,,,,,,0,3,3,1,1,,,,,,,,,,,,,,,,,,,,,,,,,,,,,,,,,,,,,,,,,,,,,,
397401,001,2022-11-20_23h54.00.310,Info_measure_main_exp,2022.2.2,Win32,60.28090904,,,,,,,,,,,,,,,,,,masks/mask_004.jpg,,,,,,,,,,,,,,,,,,,,,,,,,,,,,,,,,,,,,,,,,,,0,4,4,3,1,,,,,,,,,,,,,,,,,,,,,,,,,,,,,,,,,,,,,,,,,,,,,,
397401,001,2022-11-20_23h54.00.310,Info_measure_main_exp,2022.2.2,Win32,60.28090904,,,,,,,,,,,,,,,,,,masks/mask_005.jpg,,,,,,,,,,,,,,,,,,,,,,,,,,,,,,,,,,,,,,,,,,,,,,,,0,0,0,4,1,,,,,,,,,,,,,,,,,,,,,,,,,,,,,,,,,,,,,,,,,
397401,001,2022-11-20_23h54.00.310,Info_measure_main_exp,2022.2.2,Win32,60.28090904,,,,,,,,,,,,,,,,,,masks/mask_003.jpg,,,,,,,,,,,,,,,,,,,,,,,,,,,,,,,,,,,,,,,,,,,,,,,,0,1,1,2,1,,,,,,,,,,,,,,,,,,,,,,,,,,,,,,,,,,,,,,,,,
397401,001,2022-11-20_23h54.00.310,Info_measure_main_exp,2022.2.2,Win32,60.28090904,,,,,,,,,,,,,,,,,,masks/mask_002.jpg,,,,,,,,,,,,,,,,,,,,,,,,,,,,,,,,,,,,,,,,,,,,,,,,0,2,2,1,1,,,,,,,,,,,,,,,,,,,,,,,,,,,,,,,,,,,,,,,,,
397401,001,2022-11-20_23h54.00.310,Info_measure_main_exp,2022.2.2,Win32,60.28090904,,,,,,,,,,,,,,,,,,masks/mask_001.jpg,,,,,,,,,,,,,,,,,,,,,,,,,,,,,,,,,,,,,,,,,,,,,,,,0,3,3,0,1,,,,,,,,,,,,,,,,,,,,,,,,,,,,,,,,,,,,,,,,,
397401,001,2022-11-20_23h54.00.310,Info_measure_main_exp,2022.2.2,Win32,60.28090904,,,,,,,,,,,,,,,,,,masks/mask_004.jpg,,,,,,,,,,,,,,,,,,,,,,,,,,,,,,,,,,,,,,,,,,,,,,,,0,4,4,3,1,,,,,,,,,,,,,,,,,,,,,,,,,,,,,,,,,,,,,,,,,
397401,001,2022-11-20_23h54.00.310,Info_measure_main_exp,2022.2.2,Win32,60.28090904,,,,,,,,,,,,,,,,,,,,,,,,,,,,,,6,0.5491,1,,,,,,,,,,,,0,131,5,5,2142,2190,absent_patch/patch0002142.jpg,absent_patch/patch0002190.jpg,,,,,,,,,,,,,,,,,,,,0.081481481,0.023148148,1,0,0,response1disk,20,-0.008333333,-0.005555556,1,0,0,center_square,0,19,19,70,1,,,,,,,,,,,,,,,,,,,,,,,
397401,001,2022-11-20_23h54.00.310,Info_measure_main_exp,2022.2.2,Win32,60.28090904,,,,,,,,,,,,,,,,,,masks/mask_004.jpg,,,,,,,,,,,,,,,,,,,,,,,,,,,,,,,,,,,,,,,,,,,0,0,0,3,1,,,,,,,,,,,,,,,,,,,,,,,,,,,,,,,,,,,,,,,,,,,,,,
397401,001,2022-11-20_23h54.00.310,Info_measure_main_exp,2022.2.2,Win32,60.28090904,,,,,,,,,,,,,,,,,,masks/mask_002.jpg,,,,,,,,,,,,,,,,,,,,,,,,,,,,,,,,,,,,,,,,,,,0,1,1,1,1,,,,,,,,,,,,,,,,,,,,,,,,,,,,,,,,,,,,,,,,,,,,,,
397401,001,2022-11-20_23h54.00.310,Info_measure_main_exp,2022.2.2,Win32,60.28090904,,,,,,,,,,,,,,,,,,masks/mask_003.jpg,,,,,,,,,,,,,,,,,,,,,,,,,,,,,,,,,,,,,,,,,,,0,2,2,2,1,,,,,,,,,,,,,,,,,,,,,,,,,,,,,,,,,,,,,,,,,,,,,,
397401,001,2022-11-20_23h54.00.310,Info_measure_main_exp,2022.2.2,Win32,60.28090904,,,,,,,,,,,,,,,,,,masks/mask_001.jpg,,,,,,,,,,,,,,,,,,,,,,,,,,,,,,,,,,,,,,,,,,,0,3,3,0,1,,,,,,,,,,,,,,,,,,,,,,,,,,,,,,,,,,,,,,,,,,,,,,
397401,001,2022-11-20_23h54.00.310,Info_measure_main_exp,2022.2.2,Win32,60.28090904,,,,,,,,,,,,,,,,,,masks/mask_005.jpg,,,,,,,,,,,,,,,,,,,,,,,,,,,,,,,,,,,,,,,,,,,0,4,4,4,1,,,,,,,,,,,,,,,,,,,,,,,,,,,,,,,,,,,,,,,,,,,,,,
397401,001,2022-11-20_23h54.00.310,Info_measure_main_exp,2022.2.2,Win32,60.28090904,,,,,,,,,,,,,,,,,,masks/mask_005.jpg,,,,,,,,,,,,,,,,,,,,,,,,,,,,,,,,,,,,,,,,,,,,,,,,0,0,0,4,1,,,,,,,,,,,,,,,,,,,,,,,,,,,,,,,,,,,,,,,,,
397401,001,2022-11-20_23h54.00.310,Info_measure_main_exp,2022.2.2,Win32,60.28090904,,,,,,,,,,,,,,,,,,masks/mask_003.jpg,,,,,,,,,,,,,,,,,,,,,,,,,,,,,,,,,,,,,,,,,,,,,,,,0,1,1,2,1,,,,,,,,,,,,,,,,,,,,,,,,,,,,,,,,,,,,,,,,,
397401,001,2022-11-20_23h54.00.310,Info_measure_main_exp,2022.2.2,Win32,60.28090904,,,,,,,,,,,,,,,,,,masks/mask_001.jpg,,,,,,,,,,,,,,,,,,,,,,,,,,,,,,,,,,,,,,,,,,,,,,,,0,2,2,0,1,,,,,,,,,,,,,,,,,,,,,,,,,,,,,,,,,,,,,,,,,
397401,001,2022-11-20_23h54.00.310,Info_measure_main_exp,2022.2.2,Win32,60.28090904,,,,,,,,,,,,,,,,,,masks/mask_004.jpg,,,,,,,,,,,,,,,,,,,,,,,,,,,,,,,,,,,,,,,,,,,,,,,,0,3,3,3,1,,,,,,,,,,,,,,,,,,,,,,,,,,,,,,,,,,,,,,,,,
397401,001,2022-11-20_23h54.00.310,Info_measure_main_exp,2022.2.2,Win32,60.28090904,,,,,,,,,,,,,,,,,,masks/mask_002.jpg,,,,,,,,,,,,,,,,,,,,,,,,,,,,,,,,,,,,,,,,,,,,,,,,0,4,4,1,1,,,,,,,,,,,,,,,,,,,,,,,,,,,,,,,,,,,,,,,,,
397401,001,2022-11-20_23h54.00.310,Info_measure_main_exp,2022.2.2,Win32,60.28090904,,,,,,,,,,,,,,,,,,,,,,,,,,,,,,3,1.4331,1,,,,,,,,,,,,0,131,5,5,2082,2298,absent_patch/patch0002082.jpg,absent_patch/patch0002298.jpg,,,,,,,,,,,,,,,,,,,,-0.044444444,-0.107407407,1,0,0,response5disk,21,0,0.003703704,1,0,0,center_square,0,20,20,107,1,,,,,,,,,,,,,,,,,,,,,,,
397401,001,2022-11-20_23h54.00.310,Info_measure_main_exp,2022.2.2,Win32,60.28090904,,,,,,,,,,,,,,,,,,masks/mask_003.jpg,,,,,,,,,,,,,,,,,,,,,,,,,,,,,,,,,,,,,,,,,,,0,0,0,2,1,,,,,,,,,,,,,,,,,,,,,,,,,,,,,,,,,,,,,,,,,,,,,,
397401,001,2022-11-20_23h54.00.310,Info_measure_main_exp,2022.2.2,Win32,60.28090904,,,,,,,,,,,,,,,,,,masks/mask_005.jpg,,,,,,,,,,,,,,,,,,,,,,,,,,,,,,,,,,,,,,,,,,,0,1,1,4,1,,,,,,,,,,,,,,,,,,,,,,,,,,,,,,,,,,,,,,,,,,,,,,
397401,001,2022-11-20_23h54.00.310,Info_measure_main_exp,2022.2.2,Win32,60.28090904,,,,,,,,,,,,,,,,,,masks/mask_002.jpg,,,,,,,,,,,,,,,,,,,,,,,,,,,,,,,,,,,,,,,,,,,0,2,2,1,1,,,,,,,,,,,,,,,,,,,,,,,,,,,,,,,,,,,,,,,,,,,,,,
397401,001,2022-11-20_23h54.00.310,Info_measure_main_exp,2022.2.2,Win32,60.28090904,,,,,,,,,,,,,,,,,,masks/mask_004.jpg,,,,,,,,,,,,,,,,,,,,,,,,,,,,,,,,,,,,,,,,,,,0,3,3,3,1,,,,,,,,,,,,,,,,,,,,,,,,,,,,,,,,,,,,,,,,,,,,,,
397401,001,2022-11-20_23h54.00.310,Info_measure_main_exp,2022.2.2,Win32,60.28090904,,,,,,,,,,,,,,,,,,masks/mask_001.jpg,,,,,,,,,,,,,,,,,,,,,,,,,,,,,,,,,,,,,,,,,,,0,4,4,0,1,,,,,,,,,,,,,,,,,,,,,,,,,,,,,,,,,,,,,,,,,,,,,,
397401,001,2022-11-20_23h54.00.310,Info_measure_main_exp,2022.2.2,Win32,60.28090904,,,,,,,,,,,,,,,,,,masks/mask_005.jpg,,,,,,,,,,,,,,,,,,,,,,,,,,,,,,,,,,,,,,,,,,,,,,,,0,0,0,4,1,,,,,,,,,,,,,,,,,,,,,,,,,,,,,,,,,,,,,,,,,
397401,001,2022-11-20_23h54.00.310,Info_measure_main_exp,2022.2.2,Win32,60.28090904,,,,,,,,,,,,,,,,,,masks/mask_001.jpg,,,,,,,,,,,,,,,,,,,,,,,,,,,,,,,,,,,,,,,,,,,,,,,,0,1,1,0,1,,,,,,,,,,,,,,,,,,,,,,,,,,,,,,,,,,,,,,,,,
397401,001,2022-11-20_23h54.00.310,Info_measure_main_exp,2022.2.2,Win32,60.28090904,,,,,,,,,,,,,,,,,,masks/mask_002.jpg,,,,,,,,,,,,,,,,,,,,,,,,,,,,,,,,,,,,,,,,,,,,,,,,0,2,2,1,1,,,,,,,,,,,,,,,,,,,,,,,,,,,,,,,,,,,,,,,,,
397401,001,2022-11-20_23h54.00.310,Info_measure_main_exp,2022.2.2,Win32,60.28090904,,,,,,,,,,,,,,,,,,masks/mask_003.jpg,,,,,,,,,,,,,,,,,,,,,,,,,,,,,,,,,,,,,,,,,,,,,,,,0,3,3,2,1,,,,,,,,,,,,,,,,,,,,,,,,,,,,,,,,,,,,,,,,,
397401,001,2022-11-20_23h54.00.310,Info_measure_main_exp,2022.2.2,Win32,60.28090904,,,,,,,,,,,,,,,,,,masks/mask_004.jpg,,,,,,,,,,,,,,,,,,,,,,,,,,,,,,,,,,,,,,,,,,,,,,,,0,4,4,3,1,,,,,,,,,,,,,,,,,,,,,,,,,,,,,,,,,,,,,,,,,
397401,001,2022-11-20_23h54.00.310,Info_measure_main_exp,2022.2.2,Win32,60.28090904,,,,,,,,,,,,,,,,,,,,,,,,,,,,,,0,0.6496,1,,,,,,,,,,,,0,131,5,5,2238,2238,absent_patch/patch0002238.jpg,absent_patch/patch0002238.jpg,,,,,,,,,,,,,,,,,,,,-0.04537037,0.068518519,1,0,0,response7disk,22,-0.000925926,-0.007407407,1,0,0,center_square,0,21,21,58,1,,,,,,,,,,,,,,,,,,,,,,,
397401,001,2022-11-20_23h54.00.310,Info_measure_main_exp,2022.2.2,Win32,60.28090904,,,,,,,,,,,,,,,,,,masks/mask_001.jpg,,,,,,,,,,,,,,,,,,,,,,,,,,,,,,,,,,,,,,,,,,,0,0,0,0,1,,,,,,,,,,,,,,,,,,,,,,,,,,,,,,,,,,,,,,,,,,,,,,
397401,001,2022-11-20_23h54.00.310,Info_measure_main_exp,2022.2.2,Win32,60.28090904,,,,,,,,,,,,,,,,,,masks/mask_003.jpg,,,,,,,,,,,,,,,,,,,,,,,,,,,,,,,,,,,,,,,,,,,0,1,1,2,1,,,,,,,,,,,,,,,,,,,,,,,,,,,,,,,,,,,,,,,,,,,,,,
397401,001,2022-11-20_23h54.00.310,Info_measure_main_exp,2022.2.2,Win32,60.28090904,,,,,,,,,,,,,,,,,,masks/mask_005.jpg,,,,,,,,,,,,,,,,,,,,,,,,,,,,,,,,,,,,,,,,,,,0,2,2,4,1,,,,,,,,,,,,,,,,,,,,,,,,,,,,,,,,,,,,,,,,,,,,,,
397401,001,2022-11-20_23h54.00.310,Info_measure_main_exp,2022.2.2,Win32,60.28090904,,,,,,,,,,,,,,,,,,masks/mask_004.jpg,,,,,,,,,,,,,,,,,,,,,,,,,,,,,,,,,,,,,,,,,,,0,3,3,3,1,,,,,,,,,,,,,,,,,,,,,,,,,,,,,,,,,,,,,,,,,,,,,,
397401,001,2022-11-20_23h54.00.310,Info_measure_main_exp,2022.2.2,Win32,60.28090904,,,,,,,,,,,,,,,,,,masks/mask_002.jpg,,,,,,,,,,,,,,,,,,,,,,,,,,,,,,,,,,,,,,,,,,,0,4,4,1,1,,,,,,,,,,,,,,,,,,,,,,,,,,,,,,,,,,,,,,,,,,,,,,
397401,001,2022-11-20_23h54.00.310,Info_measure_main_exp,2022.2.2,Win32,60.28090904,,,,,,,,,,,,,,,,,,masks/mask_003.jpg,,,,,,,,,,,,,,,,,,,,,,,,,,,,,,,,,,,,,,,,,,,,,,,,0,0,0,2,1,,,,,,,,,,,,,,,,,,,,,,,,,,,,,,,,,,,,,,,,,
397401,001,2022-11-20_23h54.00.310,Info_measure_main_exp,2022.2.2,Win32,60.28090904,,,,,,,,,,,,,,,,,,masks/mask_005.jpg,,,,,,,,,,,,,,,,,,,,,,,,,,,,,,,,,,,,,,,,,,,,,,,,0,1,1,4,1,,,,,,,,,,,,,,,,,,,,,,,,,,,,,,,,,,,,,,,,,
397401,001,2022-11-20_23h54.00.310,Info_measure_main_exp,2022.2.2,Win32,60.28090904,,,,,,,,,,,,,,,,,,masks/mask_001.jpg,,,,,,,,,,,,,,,,,,,,,,,,,,,,,,,,,,,,,,,,,,,,,,,,0,2,2,0,1,,,,,,,,,,,,,,,,,,,,,,,,,,,,,,,,,,,,,,,,,
397401,001,2022-11-20_23h54.00.310,Info_measure_main_exp,2022.2.2,Win32,60.28090904,,,,,,,,,,,,,,,,,,masks/mask_004.jpg,,,,,,,,,,,,,,,,,,,,,,,,,,,,,,,,,,,,,,,,,,,,,,,,0,3,3,3,1,,,,,,,,,,,,,,,,,,,,,,,,,,,,,,,,,,,,,,,,,
397401,001,2022-11-20_23h54.00.310,Info_measure_main_exp,2022.2.2,Win32,60.28090904,,,,,,,,,,,,,,,,,,masks/mask_002.jpg,,,,,,,,,,,,,,,,,,,,,,,,,,,,,,,,,,,,,,,,,,,,,,,,0,4,4,1,1,,,,,,,,,,,,,,,,,,,,,,,,,,,,,,,,,,,,,,,,,
397401,001,2022-11-20_23h54.00.310,Info_measure_main_exp,2022.2.2,Win32,60.28090904,,,,,,,,,,,,,,,,,,,,,,,,,,,,,,7,1.6994,1,,,,,,,,,,,,0,131,5,5,2250,2214,absent_patch/patch0002250.jpg,absent_patch/patch0002214.jpg,,,,,,,,,,,,,,,,,,,,0.022222222,0.07037037,1,0,0,response1disk,23,0.007407407,-0.000925926,1,0,0,center_square,0,22,22,97,1,,,,,,,,,,,,,,,,,,,,,,,
397401,001,2022-11-20_23h54.00.310,Info_measure_main_exp,2022.2.2,Win32,60.28090904,,,,,,,,,,,,,,,,,,masks/mask_002.jpg,,,,,,,,,,,,,,,,,,,,,,,,,,,,,,,,,,,,,,,,,,,0,0,0,1,1,,,,,,,,,,,,,,,,,,,,,,,,,,,,,,,,,,,,,,,,,,,,,,
397401,001,2022-11-20_23h54.00.310,Info_measure_main_exp,2022.2.2,Win32,60.28090904,,,,,,,,,,,,,,,,,,masks/mask_001.jpg,,,,,,,,,,,,,,,,,,,,,,,,,,,,,,,,,,,,,,,,,,,0,1,1,0,1,,,,,,,,,,,,,,,,,,,,,,,,,,,,,,,,,,,,,,,,,,,,,,
397401,001,2022-11-20_23h54.00.310,Info_measure_main_exp,2022.2.2,Win32,60.28090904,,,,,,,,,,,,,,,,,,masks/mask_005.jpg,,,,,,,,,,,,,,,,,,,,,,,,,,,,,,,,,,,,,,,,,,,0,2,2,4,1,,,,,,,,,,,,,,,,,,,,,,,,,,,,,,,,,,,,,,,,,,,,,,
397401,001,2022-11-20_23h54.00.310,Info_measure_main_exp,2022.2.2,Win32,60.28090904,,,,,,,,,,,,,,,,,,masks/mask_003.jpg,,,,,,,,,,,,,,,,,,,,,,,,,,,,,,,,,,,,,,,,,,,0,3,3,2,1,,,,,,,,,,,,,,,,,,,,,,,,,,,,,,,,,,,,,,,,,,,,,,
397401,001,2022-11-20_23h54.00.310,Info_measure_main_exp,2022.2.2,Win32,60.28090904,,,,,,,,,,,,,,,,,,masks/mask_004.jpg,,,,,,,,,,,,,,,,,,,,,,,,,,,,,,,,,,,,,,,,,,,0,4,4,3,1,,,,,,,,,,,,,,,,,,,,,,,,,,,,,,,,,,,,,,,,,,,,,,
397401,001,2022-11-20_23h54.00.310,Info_measure_main_exp,2022.2.2,Win32,60.28090904,,,,,,,,,,,,,,,,,,masks/mask_002.jpg,,,,,,,,,,,,,,,,,,,,,,,,,,,,,,,,,,,,,,,,,,,,,,,,0,0,0,1,1,,,,,,,,,,,,,,,,,,,,,,,,,,,,,,,,,,,,,,,,,
397401,001,2022-11-20_23h54.00.310,Info_measure_main_exp,2022.2.2,Win32,60.28090904,,,,,,,,,,,,,,,,,,masks/mask_005.jpg,,,,,,,,,,,,,,,,,,,,,,,,,,,,,,,,,,,,,,,,,,,,,,,,0,1,1,4,1,,,,,,,,,,,,,,,,,,,,,,,,,,,,,,,,,,,,,,,,,
397401,001,2022-11-20_23h54.00.310,Info_measure_main_exp,2022.2.2,Win32,60.28090904,,,,,,,,,,,,,,,,,,masks/mask_004.jpg,,,,,,,,,,,,,,,,,,,,,,,,,,,,,,,,,,,,,,,,,,,,,,,,0,2,2,3,1,,,,,,,,,,,,,,,,,,,,,,,,,,,,,,,,,,,,,,,,,
397401,001,2022-11-20_23h54.00.310,Info_measure_main_exp,2022.2.2,Win32,60.28090904,,,,,,,,,,,,,,,,,,masks/mask_001.jpg,,,,,,,,,,,,,,,,,,,,,,,,,,,,,,,,,,,,,,,,,,,,,,,,0,3,3,0,1,,,,,,,,,,,,,,,,,,,,,,,,,,,,,,,,,,,,,,,,,
397401,001,2022-11-20_23h54.00.310,Info_measure_main_exp,2022.2.2,Win32,60.28090904,,,,,,,,,,,,,,,,,,masks/mask_003.jpg,,,,,,,,,,,,,,,,,,,,,,,,,,,,,,,,,,,,,,,,,,,,,,,,0,4,4,2,1,,,,,,,,,,,,,,,,,,,,,,,,,,,,,,,,,,,,,,,,,
397401,001,2022-11-20_23h54.00.310,Info_measure_main_exp,2022.2.2,Win32,60.28090904,,,,,,,,,,,,,,,,,,,,,,,,,,,,,,7,0.9825,1,,,,,,,,,,,,0,131,5,5,2082,2166,absent_patch/patch0002082.jpg,absent_patch/patch0002166.jpg,,,,,,,,,,,,,,,,,,,,0.026851852,0.060185185,1,0,0,response1disk,24,-0.002777778,0.001851852,1,0,0,center_square,0,23,23,43,1,,,,,,,,,,,,,,,,,,,,,,,
397401,001,2022-11-20_23h54.00.310,Info_measure_main_exp,2022.2.2,Win32,60.28090904,,,,,,,,,,,,,,,,,,masks/mask_005.jpg,,,,,,,,,,,,,,,,,,,,,,,,,,,,,,,,,,,,,,,,,,,0,0,0,4,1,,,,,,,,,,,,,,,,,,,,,,,,,,,,,,,,,,,,,,,,,,,,,,
397401,001,2022-11-20_23h54.00.310,Info_measure_main_exp,2022.2.2,Win32,60.28090904,,,,,,,,,,,,,,,,,,masks/mask_003.jpg,,,,,,,,,,,,,,,,,,,,,,,,,,,,,,,,,,,,,,,,,,,0,1,1,2,1,,,,,,,,,,,,,,,,,,,,,,,,,,,,,,,,,,,,,,,,,,,,,,
397401,001,2022-11-20_23h54.00.310,Info_measure_main_exp,2022.2.2,Win32,60.28090904,,,,,,,,,,,,,,,,,,masks/mask_004.jpg,,,,,,,,,,,,,,,,,,,,,,,,,,,,,,,,,,,,,,,,,,,0,2,2,3,1,,,,,,,,,,,,,,,,,,,,,,,,,,,,,,,,,,,,,,,,,,,,,,
397401,001,2022-11-20_23h54.00.310,Info_measure_main_exp,2022.2.2,Win32,60.28090904,,,,,,,,,,,,,,,,,,masks/mask_001.jpg,,,,,,,,,,,,,,,,,,,,,,,,,,,,,,,,,,,,,,,,,,,0,3,3,0,1,,,,,,,,,,,,,,,,,,,,,,,,,,,,,,,,,,,,,,,,,,,,,,
397401,001,2022-11-20_23h54.00.310,Info_measure_main_exp,2022.2.2,Win32,60.28090904,,,,,,,,,,,,,,,,,,masks/mask_002.jpg,,,,,,,,,,,,,,,,,,,,,,,,,,,,,,,,,,,,,,,,,,,0,4,4,1,1,,,,,,,,,,,,,,,,,,,,,,,,,,,,,,,,,,,,,,,,,,,,,,
397401,001,2022-11-20_23h54.00.310,Info_measure_main_exp,2022.2.2,Win32,60.28090904,,,,,,,,,,,,,,,,,,masks/mask_003.jpg,,,,,,,,,,,,,,,,,,,,,,,,,,,,,,,,,,,,,,,,,,,,,,,,0,0,0,2,1,,,,,,,,,,,,,,,,,,,,,,,,,,,,,,,,,,,,,,,,,
397401,001,2022-11-20_23h54.00.310,Info_measure_main_exp,2022.2.2,Win32,60.28090904,,,,,,,,,,,,,,,,,,masks/mask_005.jpg,,,,,,,,,,,,,,,,,,,,,,,,,,,,,,,,,,,,,,,,,,,,,,,,0,1,1,4,1,,,,,,,,,,,,,,,,,,,,,,,,,,,,,,,,,,,,,,,,,
397401,001,2022-11-20_23h54.00.310,Info_measure_main_exp,2022.2.2,Win32,60.28090904,,,,,,,,,,,,,,,,,,masks/mask_001.jpg,,,,,,,,,,,,,,,,,,,,,,,,,,,,,,,,,,,,,,,,,,,,,,,,0,2,2,0,1,,,,,,,,,,,,,,,,,,,,,,,,,,,,,,,,,,,,,,,,,
397401,001,2022-11-20_23h54.00.310,Info_measure_main_exp,2022.2.2,Win32,60.28090904,,,,,,,,,,,,,,,,,,masks/mask_002.jpg,,,,,,,,,,,,,,,,,,,,,,,,,,,,,,,,,,,,,,,,,,,,,,,,0,3,3,1,1,,,,,,,,,,,,,,,,,,,,,,,,,,,,,,,,,,,,,,,,,
397401,001,2022-11-20_23h54.00.310,Info_measure_main_exp,2022.2.2,Win32,60.28090904,,,,,,,,,,,,,,,,,,masks/mask_004.jpg,,,,,,,,,,,,,,,,,,,,,,,,,,,,,,,,,,,,,,,,,,,,,,,,0,4,4,3,1,,,,,,,,,,,,,,,,,,,,,,,,,,,,,,,,,,,,,,,,,
397401,001,2022-11-20_23h54.00.310,Info_measure_main_exp,2022.2.2,Win32,60.28090904,,,,,,,,,,,,,,,,,,,,,,,,,,,,,,7,0.8169,1,,,,,,,,,,,,0,131,5,5,2154,1974,absent_patch/patch0002154.jpg,absent_patch/patch0001974.jpg,,,,,,,,,,,,,,,,,,,,0.033333333,0.071296296,1,0,0,response1disk,25,0.003703704,-0.011111111,1,0,0,center_square,0,24,24,82,1,,,,,,,,,,,,,,,,,,,,,,,
397401,001,2022-11-20_23h54.00.310,Info_measure_main_exp,2022.2.2,Win32,60.28090904,,,,,,,,,,,,,,,,,,masks/mask_003.jpg,,,,,,,,,,,,,,,,,,,,,,,,,,,,,,,,,,,,,,,,,,,0,0,0,2,1,,,,,,,,,,,,,,,,,,,,,,,,,,,,,,,,,,,,,,,,,,,,,,
397401,001,2022-11-20_23h54.00.310,Info_measure_main_exp,2022.2.2,Win32,60.28090904,,,,,,,,,,,,,,,,,,masks/mask_002.jpg,,,,,,,,,,,,,,,,,,,,,,,,,,,,,,,,,,,,,,,,,,,0,1,1,1,1,,,,,,,,,,,,,,,,,,,,,,,,,,,,,,,,,,,,,,,,,,,,,,
397401,001,2022-11-20_23h54.00.310,Info_measure_main_exp,2022.2.2,Win32,60.28090904,,,,,,,,,,,,,,,,,,masks/mask_004.jpg,,,,,,,,,,,,,,,,,,,,,,,,,,,,,,,,,,,,,,,,,,,0,2,2,3,1,,,,,,,,,,,,,,,,,,,,,,,,,,,,,,,,,,,,,,,,,,,,,,
397401,001,2022-11-20_23h54.00.310,Info_measure_main_exp,2022.2.2,Win32,60.28090904,,,,,,,,,,,,,,,,,,masks/mask_001.jpg,,,,,,,,,,,,,,,,,,,,,,,,,,,,,,,,,,,,,,,,,,,0,3,3,0,1,,,,,,,,,,,,,,,,,,,,,,,,,,,,,,,,,,,,,,,,,,,,,,
397401,001,2022-11-20_23h54.00.310,Info_measure_main_exp,2022.2.2,Win32,60.28090904,,,,,,,,,,,,,,,,,,masks/mask_005.jpg,,,,,,,,,,,,,,,,,,,,,,,,,,,,,,,,,,,,,,,,,,,0,4,4,4,1,,,,,,,,,,,,,,,,,,,,,,,,,,,,,,,,,,,,,,,,,,,,,,
397401,001,2022-11-20_23h54.00.310,Info_measure_main_exp,2022.2.2,Win32,60.28090904,,,,,,,,,,,,,,,,,,masks/mask_001.jpg,,,,,,,,,,,,,,,,,,,,,,,,,,,,,,,,,,,,,,,,,,,,,,,,0,0,0,0,1,,,,,,,,,,,,,,,,,,,,,,,,,,,,,,,,,,,,,,,,,
397401,001,2022-11-20_23h54.00.310,Info_measure_main_exp,2022.2.2,Win32,60.28090904,,,,,,,,,,,,,,,,,,masks/mask_003.jpg,,,,,,,,,,,,,,,,,,,,,,,,,,,,,,,,,,,,,,,,,,,,,,,,0,1,1,2,1,,,,,,,,,,,,,,,,,,,,,,,,,,,,,,,,,,,,,,,,,
397401,001,2022-11-20_23h54.00.310,Info_measure_main_exp,2022.2.2,Win32,60.28090904,,,,,,,,,,,,,,,,,,masks/mask_004.jpg,,,,,,,,,,,,,,,,,,,,,,,,,,,,,,,,,,,,,,,,,,,,,,,,0,2,2,3,1,,,,,,,,,,,,,,,,,,,,,,,,,,,,,,,,,,,,,,,,,
397401,001,2022-11-20_23h54.00.310,Info_measure_main_exp,2022.2.2,Win32,60.28090904,,,,,,,,,,,,,,,,,,masks/mask_005.jpg,,,,,,,,,,,,,,,,,,,,,,,,,,,,,,,,,,,,,,,,,,,,,,,,0,3,3,4,1,,,,,,,,,,,,,,,,,,,,,,,,,,,,,,,,,,,,,,,,,
397401,001,2022-11-20_23h54.00.310,Info_measure_main_exp,2022.2.2,Win32,60.28090904,,,,,,,,,,,,,,,,,,masks/mask_002.jpg,,,,,,,,,,,,,,,,,,,,,,,,,,,,,,,,,,,,,,,,,,,,,,,,0,4,4,1,1,,,,,,,,,,,,,,,,,,,,,,,,,,,,,,,,,,,,,,,,,
397401,001,2022-11-20_23h54.00.310,Info_measure_main_exp,2022.2.2,Win32,60.28090904,,,,,,,,,,,,,,,,,,,,,,,,,,,,,,7,1.1334,1,,,,,,,,,,,,0,131,5,5,2082,1986,absent_patch/patch0002082.jpg,absent_patch/patch0001986.jpg,,,,,,,,,,,,,,,,,,,,0.02037037,0.037962963,1,0,0,response1disk,26,-0.003703704,-0.006481481,1,0,0,center_square,0,25,25,94,1,,,,,,,,,,,,,,,,,,,,,,,
397401,001,2022-11-20_23h54.00.310,Info_measure_main_exp,2022.2.2,Win32,60.28090904,,,,,,,,,,,,,,,,,,masks/mask_002.jpg,,,,,,,,,,,,,,,,,,,,,,,,,,,,,,,,,,,,,,,,,,,0,0,0,1,1,,,,,,,,,,,,,,,,,,,,,,,,,,,,,,,,,,,,,,,,,,,,,,
397401,001,2022-11-20_23h54.00.310,Info_measure_main_exp,2022.2.2,Win32,60.28090904,,,,,,,,,,,,,,,,,,masks/mask_005.jpg,,,,,,,,,,,,,,,,,,,,,,,,,,,,,,,,,,,,,,,,,,,0,1,1,4,1,,,,,,,,,,,,,,,,,,,,,,,,,,,,,,,,,,,,,,,,,,,,,,
397401,001,2022-11-20_23h54.00.310,Info_measure_main_exp,2022.2.2,Win32,60.28090904,,,,,,,,,,,,,,,,,,masks/mask_001.jpg,,,,,,,,,,,,,,,,,,,,,,,,,,,,,,,,,,,,,,,,,,,0,2,2,0,1,,,,,,,,,,,,,,,,,,,,,,,,,,,,,,,,,,,,,,,,,,,,,,
397401,001,2022-11-20_23h54.00.310,Info_measure_main_exp,2022.2.2,Win32,60.28090904,,,,,,,,,,,,,,,,,,masks/mask_003.jpg,,,,,,,,,,,,,,,,,,,,,,,,,,,,,,,,,,,,,,,,,,,0,3,3,2,1,,,,,,,,,,,,,,,,,,,,,,,,,,,,,,,,,,,,,,,,,,,,,,
397401,001,2022-11-20_23h54.00.310,Info_measure_main_exp,2022.2.2,Win32,60.28090904,,,,,,,,,,,,,,,,,,masks/mask_004.jpg,,,,,,,,,,,,,,,,,,,,,,,,,,,,,,,,,,,,,,,,,,,0,4,4,3,1,,,,,,,,,,,,,,,,,,,,,,,,,,,,,,,,,,,,,,,,,,,,,,
397401,001,2022-11-20_23h54.00.310,Info_measure_main_exp,2022.2.2,Win32,60.28090904,,,,,,,,,,,,,,,,,,masks/mask_005.jpg,,,,,,,,,,,,,,,,,,,,,,,,,,,,,,,,,,,,,,,,,,,,,,,,0,0,0,4,1,,,,,,,,,,,,,,,,,,,,,,,,,,,,,,,,,,,,,,,,,
397401,001,2022-11-20_23h54.00.310,Info_measure_main_exp,2022.2.2,Win32,60.28090904,,,,,,,,,,,,,,,,,,masks/mask_002.jpg,,,,,,,,,,,,,,,,,,,,,,,,,,,,,,,,,,,,,,,,,,,,,,,,0,1,1,1,1,,,,,,,,,,,,,,,,,,,,,,,,,,,,,,,,,,,,,,,,,
397401,001,2022-11-20_23h54.00.310,Info_measure_main_exp,2022.2.2,Win32,60.28090904,,,,,,,,,,,,,,,,,,masks/mask_004.jpg,,,,,,,,,,,,,,,,,,,,,,,,,,,,,,,,,,,,,,,,,,,,,,,,0,2,2,3,1,,,,,,,,,,,,,,,,,,,,,,,,,,,,,,,,,,,,,,,,,
397401,001,2022-11-20_23h54.00.310,Info_measure_main_exp,2022.2.2,Win32,60.28090904,,,,,,,,,,,,,,,,,,masks/mask_001.jpg,,,,,,,,,,,,,,,,,,,,,,,,,,,,,,,,,,,,,,,,,,,,,,,,0,3,3,0,1,,,,,,,,,,,,,,,,,,,,,,,,,,,,,,,,,,,,,,,,,
397401,001,2022-11-20_23h54.00.310,Info_measure_main_exp,2022.2.2,Win32,60.28090904,,,,,,,,,,,,,,,,,,masks/mask_003.jpg,,,,,,,,,,,,,,,,,,,,,,,,,,,,,,,,,,,,,,,,,,,,,,,,0,4,4,2,1,,,,,,,,,,,,,,,,,,,,,,,,,,,,,,,,,,,,,,,,,
397401,001,2022-11-20_23h54.00.310,Info_measure_main_exp,2022.2.2,Win32,60.28090904,,,,,,,,,,,,,,,,,,,,,,,,,,,,,,7,0.5492,1,,,,,,,,,,,,0,131,5,5,2178,2154,absent_patch/patch0002178.jpg,absent_patch/patch0002154.jpg,,,,,,,,,,,,,,,,,,,,0.036111111,0.081481481,1,0,0,response1disk,27,0.002777778,0,1,0,0,center_square,0,26,26,63,1,,,,,,,,,,,,,,,,,,,,,,,
397401,001,2022-11-20_23h54.00.310,Info_measure_main_exp,2022.2.2,Win32,60.28090904,,,,,,,,,,,,,,,,,,masks/mask_004.jpg,,,,,,,,,,,,,,,,,,,,,,,,,,,,,,,,,,,,,,,,,,,0,0,0,3,1,,,,,,,,,,,,,,,,,,,,,,,,,,,,,,,,,,,,,,,,,,,,,,
397401,001,2022-11-20_23h54.00.310,Info_measure_main_exp,2022.2.2,Win32,60.28090904,,,,,,,,,,,,,,,,,,masks/mask_005.jpg,,,,,,,,,,,,,,,,,,,,,,,,,,,,,,,,,,,,,,,,,,,0,1,1,4,1,,,,,,,,,,,,,,,,,,,,,,,,,,,,,,,,,,,,,,,,,,,,,,
397401,001,2022-11-20_23h54.00.310,Info_measure_main_exp,2022.2.2,Win32,60.28090904,,,,,,,,,,,,,,,,,,masks/mask_001.jpg,,,,,,,,,,,,,,,,,,,,,,,,,,,,,,,,,,,,,,,,,,,0,2,2,0,1,,,,,,,,,,,,,,,,,,,,,,,,,,,,,,,,,,,,,,,,,,,,,,
397401,001,2022-11-20_23h54.00.310,Info_measure_main_exp,2022.2.2,Win32,60.28090904,,,,,,,,,,,,,,,,,,masks/mask_003.jpg,,,,,,,,,,,,,,,,,,,,,,,,,,,,,,,,,,,,,,,,,,,0,3,3,2,1,,,,,,,,,,,,,,,,,,,,,,,,,,,,,,,,,,,,,,,,,,,,,,
397401,001,2022-11-20_23h54.00.310,Info_measure_main_exp,2022.2.2,Win32,60.28090904,,,,,,,,,,,,,,,,,,masks/mask_002.jpg,,,,,,,,,,,,,,,,,,,,,,,,,,,,,,,,,,,,,,,,,,,0,4,4,1,1,,,,,,,,,,,,,,,,,,,,,,,,,,,,,,,,,,,,,,,,,,,,,,
397401,001,2022-11-20_23h54.00.310,Info_measure_main_exp,2022.2.2,Win32,60.28090904,,,,,,,,,,,,,,,,,,masks/mask_005.jpg,,,,,,,,,,,,,,,,,,,,,,,,,,,,,,,,,,,,,,,,,,,,,,,,0,0,0,4,1,,,,,,,,,,,,,,,,,,,,,,,,,,,,,,,,,,,,,,,,,
397401,001,2022-11-20_23h54.00.310,Info_measure_main_exp,2022.2.2,Win32,60.28090904,,,,,,,,,,,,,,,,,,masks/mask_001.jpg,,,,,,,,,,,,,,,,,,,,,,,,,,,,,,,,,,,,,,,,,,,,,,,,0,1,1,0,1,,,,,,,,,,,,,,,,,,,,,,,,,,,,,,,,,,,,,,,,,
397401,001,2022-11-20_23h54.00.310,Info_measure_main_exp,2022.2.2,Win32,60.28090904,,,,,,,,,,,,,,,,,,masks/mask_003.jpg,,,,,,,,,,,,,,,,,,,,,,,,,,,,,,,,,,,,,,,,,,,,,,,,0,2,2,2,1,,,,,,,,,,,,,,,,,,,,,,,,,,,,,,,,,,,,,,,,,
397401,001,2022-11-20_23h54.00.310,Info_measure_main_exp,2022.2.2,Win32,60.28090904,,,,,,,,,,,,,,,,,,masks/mask_002.jpg,,,,,,,,,,,,,,,,,,,,,,,,,,,,,,,,,,,,,,,,,,,,,,,,0,3,3,1,1,,,,,,,,,,,,,,,,,,,,,,,,,,,,,,,,,,,,,,,,,
397401,001,2022-11-20_23h54.00.310,Info_measure_main_exp,2022.2.2,Win32,60.28090904,,,,,,,,,,,,,,,,,,masks/mask_004.jpg,,,,,,,,,,,,,,,,,,,,,,,,,,,,,,,,,,,,,,,,,,,,,,,,0,4,4,3,1,,,,,,,,,,,,,,,,,,,,,,,,,,,,,,,,,,,,,,,,,
397401,001,2022-11-20_23h54.00.310,Info_measure_main_exp,2022.2.2,Win32,60.28090904,,,,,,,,,,,,,,,,,,,,,,,,,,,,,,7,0.533,1,,,,,,,,,,,,0,131,5,5,1950,2238,absent_patch/patch0001950.jpg,absent_patch/patch0002238.jpg,,,,,,,,,,,,,,,,,,,,0.035185185,0.071296296,1,0,0,response1disk,28,0.012962963,-0.000925926,1,0,0,center_square,0,27,27,8,1,,,,,,,,,,,,,,,,,,,,,,,
397401,001,2022-11-20_23h54.00.310,Info_measure_main_exp,2022.2.2,Win32,60.28090904,,,,,,,,,,,,,,,,,,masks/mask_003.jpg,,,,,,,,,,,,,,,,,,,,,,,,,,,,,,,,,,,,,,,,,,,0,0,0,2,1,,,,,,,,,,,,,,,,,,,,,,,,,,,,,,,,,,,,,,,,,,,,,,
397401,001,2022-11-20_23h54.00.310,Info_measure_main_exp,2022.2.2,Win32,60.28090904,,,,,,,,,,,,,,,,,,masks/mask_004.jpg,,,,,,,,,,,,,,,,,,,,,,,,,,,,,,,,,,,,,,,,,,,0,1,1,3,1,,,,,,,,,,,,,,,,,,,,,,,,,,,,,,,,,,,,,,,,,,,,,,
397401,001,2022-11-20_23h54.00.310,Info_measure_main_exp,2022.2.2,Win32,60.28090904,,,,,,,,,,,,,,,,,,masks/mask_001.jpg,,,,,,,,,,,,,,,,,,,,,,,,,,,,,,,,,,,,,,,,,,,0,2,2,0,1,,,,,,,,,,,,,,,,,,,,,,,,,,,,,,,,,,,,,,,,,,,,,,
397401,001,2022-11-20_23h54.00.310,Info_measure_main_exp,2022.2.2,Win32,60.28090904,,,,,,,,,,,,,,,,,,masks/mask_005.jpg,,,,,,,,,,,,,,,,,,,,,,,,,,,,,,,,,,,,,,,,,,,0,3,3,4,1,,,,,,,,,,,,,,,,,,,,,,,,,,,,,,,,,,,,,,,,,,,,,,
397401,001,2022-11-20_23h54.00.310,Info_measure_main_exp,2022.2.2,Win32,60.28090904,,,,,,,,,,,,,,,,,,masks/mask_002.jpg,,,,,,,,,,,,,,,,,,,,,,,,,,,,,,,,,,,,,,,,,,,0,4,4,1,1,,,,,,,,,,,,,,,,,,,,,,,,,,,,,,,,,,,,,,,,,,,,,,
397401,001,2022-11-20_23h54.00.310,Info_measure_main_exp,2022.2.2,Win32,60.28090904,,,,,,,,,,,,,,,,,,masks/mask_005.jpg,,,,,,,,,,,,,,,,,,,,,,,,,,,,,,,,,,,,,,,,,,,,,,,,0,0,0,4,1,,,,,,,,,,,,,,,,,,,,,,,,,,,,,,,,,,,,,,,,,
397401,001,2022-11-20_23h54.00.310,Info_measure_main_exp,2022.2.2,Win32,60.28090904,,,,,,,,,,,,,,,,,,masks/mask_003.jpg,,,,,,,,,,,,,,,,,,,,,,,,,,,,,,,,,,,,,,,,,,,,,,,,0,1,1,2,1,,,,,,,,,,,,,,,,,,,,,,,,,,,,,,,,,,,,,,,,,
397401,001,2022-11-20_23h54.00.310,Info_measure_main_exp,2022.2.2,Win32,60.28090904,,,,,,,,,,,,,,,,,,masks/mask_002.jpg,,,,,,,,,,,,,,,,,,,,,,,,,,,,,,,,,,,,,,,,,,,,,,,,0,2,2,1,1,,,,,,,,,,,,,,,,,,,,,,,,,,,,,,,,,,,,,,,,,
397401,001,2022-11-20_23h54.00.310,Info_measure_main_exp,2022.2.2,Win32,60.28090904,,,,,,,,,,,,,,,,,,masks/mask_001.jpg,,,,,,,,,,,,,,,,,,,,,,,,,,,,,,,,,,,,,,,,,,,,,,,,0,3,3,0,1,,,,,,,,,,,,,,,,,,,,,,,,,,,,,,,,,,,,,,,,,
397401,001,2022-11-20_23h54.00.310,Info_measure_main_exp,2022.2.2,Win32,60.28090904,,,,,,,,,,,,,,,,,,masks/mask_004.jpg,,,,,,,,,,,,,,,,,,,,,,,,,,,,,,,,,,,,,,,,,,,,,,,,0,4,4,3,1,,,,,,,,,,,,,,,,,,,,,,,,,,,,,,,,,,,,,,,,,
397401,001,2022-11-20_23h54.00.310,Info_measure_main_exp,2022.2.2,Win32,60.28090904,,,,,,,,,,,,,,,,,,,,,,,,,,,,,,6,0.9164,1,,,,,,,,,,,,0,131,5,5,1950,2142,absent_patch/patch0001950.jpg,absent_patch/patch0002142.jpg,,,,,,,,,,,,,,,,,,,,0.062037037,0.025,1,0,0,response1disk,29,-0.001851852,0.003703704,1,0,0,center_square,0,28,28,83,1,,,,,,,,,,,,,,,,,,,,,,,
397401,001,2022-11-20_23h54.00.310,Info_measure_main_exp,2022.2.2,Win32,60.28090904,,,,,,,,,,,,,,,,,,masks/mask_001.jpg,,,,,,,,,,,,,,,,,,,,,,,,,,,,,,,,,,,,,,,,,,,0,0,0,0,1,,,,,,,,,,,,,,,,,,,,,,,,,,,,,,,,,,,,,,,,,,,,,,
397401,001,2022-11-20_23h54.00.310,Info_measure_main_exp,2022.2.2,Win32,60.28090904,,,,,,,,,,,,,,,,,,masks/mask_004.jpg,,,,,,,,,,,,,,,,,,,,,,,,,,,,,,,,,,,,,,,,,,,0,1,1,3,1,,,,,,,,,,,,,,,,,,,,,,,,,,,,,,,,,,,,,,,,,,,,,,
397401,001,2022-11-20_23h54.00.310,Info_measure_main_exp,2022.2.2,Win32,60.28090904,,,,,,,,,,,,,,,,,,masks/mask_003.jpg,,,,,,,,,,,,,,,,,,,,,,,,,,,,,,,,,,,,,,,,,,,0,2,2,2,1,,,,,,,,,,,,,,,,,,,,,,,,,,,,,,,,,,,,,,,,,,,,,,
397401,001,2022-11-20_23h54.00.310,Info_measure_main_exp,2022.2.2,Win32,60.28090904,,,,,,,,,,,,,,,,,,masks/mask_005.jpg,,,,,,,,,,,,,,,,,,,,,,,,,,,,,,,,,,,,,,,,,,,0,3,3,4,1,,,,,,,,,,,,,,,,,,,,,,,,,,,,,,,,,,,,,,,,,,,,,,
397401,001,2022-11-20_23h54.00.310,Info_measure_main_exp,2022.2.2,Win32,60.28090904,,,,,,,,,,,,,,,,,,masks/mask_002.jpg,,,,,,,,,,,,,,,,,,,,,,,,,,,,,,,,,,,,,,,,,,,0,4,4,1,1,,,,,,,,,,,,,,,,,,,,,,,,,,,,,,,,,,,,,,,,,,,,,,
397401,001,2022-11-20_23h54.00.310,Info_measure_main_exp,2022.2.2,Win32,60.28090904,,,,,,,,,,,,,,,,,,masks/mask_003.jpg,,,,,,,,,,,,,,,,,,,,,,,,,,,,,,,,,,,,,,,,,,,,,,,,0,0,0,2,1,,,,,,,,,,,,,,,,,,,,,,,,,,,,,,,,,,,,,,,,,
397401,001,2022-11-20_23h54.00.310,Info_measure_main_exp,2022.2.2,Win32,60.28090904,,,,,,,,,,,,,,,,,,masks/mask_002.jpg,,,,,,,,,,,,,,,,,,,,,,,,,,,,,,,,,,,,,,,,,,,,,,,,0,1,1,1,1,,,,,,,,,,,,,,,,,,,,,,,,,,,,,,,,,,,,,,,,,
397401,001,2022-11-20_23h54.00.310,Info_measure_main_exp,2022.2.2,Win32,60.28090904,,,,,,,,,,,,,,,,,,masks/mask_001.jpg,,,,,,,,,,,,,,,,,,,,,,,,,,,,,,,,,,,,,,,,,,,,,,,,0,2,2,0,1,,,,,,,,,,,,,,,,,,,,,,,,,,,,,,,,,,,,,,,,,
397401,001,2022-11-20_23h54.00.310,Info_measure_main_exp,2022.2.2,Win32,60.28090904,,,,,,,,,,,,,,,,,,masks/mask_004.jpg,,,,,,,,,,,,,,,,,,,,,,,,,,,,,,,,,,,,,,,,,,,,,,,,0,3,3,3,1,,,,,,,,,,,,,,,,,,,,,,,,,,,,,,,,,,,,,,,,,
397401,001,2022-11-20_23h54.00.310,Info_measure_main_exp,2022.2.2,Win32,60.28090904,,,,,,,,,,,,,,,,,,masks/mask_005.jpg,,,,,,,,,,,,,,,,,,,,,,,,,,,,,,,,,,,,,,,,,,,,,,,,0,4,4,4,1,,,,,,,,,,,,,,,,,,,,,,,,,,,,,,,,,,,,,,,,,
397401,001,2022-11-20_23h54.00.310,Info_measure_main_exp,2022.2.2,Win32,60.28090904,,,,,,,,,,,,,,,,,,,,,,,,,,,,,,5,0.9496,1,,,,,,,,,,,,0,131,5,5,2142,2166,absent_patch/patch0002142.jpg,absent_patch/patch0002166.jpg,,,,,,,,,,,,,,,,,,,,0.072222222,-0.018518519,1,0,0,response3disk,30,0.008333333,-0.006481481,1,0,0,center_square,0,29,29,66,1,,,,,,,,,,,,,,,,,,,,,,,
397401,001,2022-11-20_23h54.00.310,Info_measure_main_exp,2022.2.2,Win32,60.28090904,,,,,,,,,,,,,,,,,,masks/mask_005.jpg,,,,,,,,,,,,,,,,,,,,,,,,,,,,,,,,,,,,,,,,,,,0,0,0,4,1,,,,,,,,,,,,,,,,,,,,,,,,,,,,,,,,,,,,,,,,,,,,,,
397401,001,2022-11-20_23h54.00.310,Info_measure_main_exp,2022.2.2,Win32,60.28090904,,,,,,,,,,,,,,,,,,masks/mask_002.jpg,,,,,,,,,,,,,,,,,,,,,,,,,,,,,,,,,,,,,,,,,,,0,1,1,1,1,,,,,,,,,,,,,,,,,,,,,,,,,,,,,,,,,,,,,,,,,,,,,,
397401,001,2022-11-20_23h54.00.310,Info_measure_main_exp,2022.2.2,Win32,60.28090904,,,,,,,,,,,,,,,,,,masks/mask_001.jpg,,,,,,,,,,,,,,,,,,,,,,,,,,,,,,,,,,,,,,,,,,,0,2,2,0,1,,,,,,,,,,,,,,,,,,,,,,,,,,,,,,,,,,,,,,,,,,,,,,
397401,001,2022-11-20_23h54.00.310,Info_measure_main_exp,2022.2.2,Win32,60.28090904,,,,,,,,,,,,,,,,,,masks/mask_004.jpg,,,,,,,,,,,,,,,,,,,,,,,,,,,,,,,,,,,,,,,,,,,0,3,3,3,1,,,,,,,,,,,,,,,,,,,,,,,,,,,,,,,,,,,,,,,,,,,,,,
397401,001,2022-11-20_23h54.00.310,Info_measure_main_exp,2022.2.2,Win32,60.28090904,,,,,,,,,,,,,,,,,,masks/mask_003.jpg,,,,,,,,,,,,,,,,,,,,,,,,,,,,,,,,,,,,,,,,,,,0,4,4,2,1,,,,,,,,,,,,,,,,,,,,,,,,,,,,,,,,,,,,,,,,,,,,,,
397401,001,2022-11-20_23h54.00.310,Info_measure_main_exp,2022.2.2,Win32,60.28090904,,,,,,,,,,,,,,,,,,masks/mask_001.jpg,,,,,,,,,,,,,,,,,,,,,,,,,,,,,,,,,,,,,,,,,,,,,,,,0,0,0,0,1,,,,,,,,,,,,,,,,,,,,,,,,,,,,,,,,,,,,,,,,,
397401,001,2022-11-20_23h54.00.310,Info_measure_main_exp,2022.2.2,Win32,60.28090904,,,,,,,,,,,,,,,,,,masks/mask_005.jpg,,,,,,,,,,,,,,,,,,,,,,,,,,,,,,,,,,,,,,,,,,,,,,,,0,1,1,4,1,,,,,,,,,,,,,,,,,,,,,,,,,,,,,,,,,,,,,,,,,
397401,001,2022-11-20_23h54.00.310,Info_measure_main_exp,2022.2.2,Win32,60.28090904,,,,,,,,,,,,,,,,,,masks/mask_003.jpg,,,,,,,,,,,,,,,,,,,,,,,,,,,,,,,,,,,,,,,,,,,,,,,,0,2,2,2,1,,,,,,,,,,,,,,,,,,,,,,,,,,,,,,,,,,,,,,,,,
397401,001,2022-11-20_23h54.00.310,Info_measure_main_exp,2022.2.2,Win32,60.28090904,,,,,,,,,,,,,,,,,,masks/mask_002.jpg,,,,,,,,,,,,,,,,,,,,,,,,,,,,,,,,,,,,,,,,,,,,,,,,0,3,3,1,1,,,,,,,,,,,,,,,,,,,,,,,,,,,,,,,,,,,,,,,,,
397401,001,2022-11-20_23h54.00.310,Info_measure_main_exp,2022.2.2,Win32,60.28090904,,,,,,,,,,,,,,,,,,masks/mask_004.jpg,,,,,,,,,,,,,,,,,,,,,,,,,,,,,,,,,,,,,,,,,,,,,,,,0,4,4,3,1,,,,,,,,,,,,,,,,,,,,,,,,,,,,,,,,,,,,,,,,,
397401,001,2022-11-20_23h54.00.310,Info_measure_main_exp,2022.2.2,Win32,60.28090904,,,,,,,,,,,,,,,,,,,,,,,,,,,,,,7,0.8835,1,,,,,,,,,,,,1,131,5,5,1,2178,present_patch/cong_131_5_a.jpg,absent_patch/patch0002178.jpg,,,,,,,,,,,,,,,,,,,,0.034259259,0.057407407,1,0,0,response1disk,31,0.002777778,-0.005555556,1,0,0,center_square,0,30,30,40,1,,,,,,,,,,,,,,,,,,,,,,,
397401,001,2022-11-20_23h54.00.310,Info_measure_main_exp,2022.2.2,Win32,60.28090904,,,,,,,,,,,,,,,,,,masks/mask_002.jpg,,,,,,,,,,,,,,,,,,,,,,,,,,,,,,,,,,,,,,,,,,,0,0,0,1,1,,,,,,,,,,,,,,,,,,,,,,,,,,,,,,,,,,,,,,,,,,,,,,
397401,001,2022-11-20_23h54.00.310,Info_measure_main_exp,2022.2.2,Win32,60.28090904,,,,,,,,,,,,,,,,,,masks/mask_004.jpg,,,,,,,,,,,,,,,,,,,,,,,,,,,,,,,,,,,,,,,,,,,0,1,1,3,1,,,,,,,,,,,,,,,,,,,,,,,,,,,,,,,,,,,,,,,,,,,,,,
397401,001,2022-11-20_23h54.00.310,Info_measure_main_exp,2022.2.2,Win32,60.28090904,,,,,,,,,,,,,,,,,,masks/mask_001.jpg,,,,,,,,,,,,,,,,,,,,,,,,,,,,,,,,,,,,,,,,,,,0,2,2,0,1,,,,,,,,,,,,,,,,,,,,,,,,,,,,,,,,,,,,,,,,,,,,,,
397401,001,2022-11-20_23h54.00.310,Info_measure_main_exp,2022.2.2,Win32,60.28090904,,,,,,,,,,,,,,,,,,masks/mask_003.jpg,,,,,,,,,,,,,,,,,,,,,,,,,,,,,,,,,,,,,,,,,,,0,3,3,2,1,,,,,,,,,,,,,,,,,,,,,,,,,,,,,,,,,,,,,,,,,,,,,,
397401,001,2022-11-20_23h54.00.310,Info_measure_main_exp,2022.2.2,Win32,60.28090904,,,,,,,,,,,,,,,,,,masks/mask_005.jpg,,,,,,,,,,,,,,,,,,,,,,,,,,,,,,,,,,,,,,,,,,,0,4,4,4,1,,,,,,,,,,,,,,,,,,,,,,,,,,,,,,,,,,,,,,,,,,,,,,
397401,001,2022-11-20_23h54.00.310,Info_measure_main_exp,2022.2.2,Win32,60.28090904,,,,,,,,,,,,,,,,,,masks/mask_005.jpg,,,,,,,,,,,,,,,,,,,,,,,,,,,,,,,,,,,,,,,,,,,,,,,,0,0,0,4,1,,,,,,,,,,,,,,,,,,,,,,,,,,,,,,,,,,,,,,,,,
397401,001,2022-11-20_23h54.00.310,Info_measure_main_exp,2022.2.2,Win32,60.28090904,,,,,,,,,,,,,,,,,,masks/mask_002.jpg,,,,,,,,,,,,,,,,,,,,,,,,,,,,,,,,,,,,,,,,,,,,,,,,0,1,1,1,1,,,,,,,,,,,,,,,,,,,,,,,,,,,,,,,,,,,,,,,,,
397401,001,2022-11-20_23h54.00.310,Info_measure_main_exp,2022.2.2,Win32,60.28090904,,,,,,,,,,,,,,,,,,masks/mask_004.jpg,,,,,,,,,,,,,,,,,,,,,,,,,,,,,,,,,,,,,,,,,,,,,,,,0,2,2,3,1,,,,,,,,,,,,,,,,,,,,,,,,,,,,,,,,,,,,,,,,,
397401,001,2022-11-20_23h54.00.310,Info_measure_main_exp,2022.2.2,Win32,60.28090904,,,,,,,,,,,,,,,,,,masks/mask_003.jpg,,,,,,,,,,,,,,,,,,,,,,,,,,,,,,,,,,,,,,,,,,,,,,,,0,3,3,2,1,,,,,,,,,,,,,,,,,,,,,,,,,,,,,,,,,,,,,,,,,
397401,001,2022-11-20_23h54.00.310,Info_measure_main_exp,2022.2.2,Win32,60.28090904,,,,,,,,,,,,,,,,,,masks/mask_001.jpg,,,,,,,,,,,,,,,,,,,,,,,,,,,,,,,,,,,,,,,,,,,,,,,,0,4,4,0,1,,,,,,,,,,,,,,,,,,,,,,,,,,,,,,,,,,,,,,,,,
397401,001,2022-11-20_23h54.00.310,Info_measure_main_exp,2022.2.2,Win32,60.28090904,,,,,,,,,,,,,,,,,,,,,,,,,,,,,,7,0.6005,1,,,,,,,,,,,,1,131,5,5,2298,1,absent_patch/patch0002298.jpg,present_patch/cong_131_5_a.jpg,,,,,,,,,,,,,,,,,,,,0.027777778,0.049074074,1,0,0,response1disk,32,0.002777778,0.000925926,1,0,0,center_square,0,31,31,45,1,,,,,,,,,,,,,,,,,,,,,,,
397401,001,2022-11-20_23h54.00.310,Info_measure_main_exp,2022.2.2,Win32,60.28090904,,,,,,,,,,,,,,,,,,masks/mask_004.jpg,,,,,,,,,,,,,,,,,,,,,,,,,,,,,,,,,,,,,,,,,,,0,0,0,3,1,,,,,,,,,,,,,,,,,,,,,,,,,,,,,,,,,,,,,,,,,,,,,,
397401,001,2022-11-20_23h54.00.310,Info_measure_main_exp,2022.2.2,Win32,60.28090904,,,,,,,,,,,,,,,,,,masks/mask_003.jpg,,,,,,,,,,,,,,,,,,,,,,,,,,,,,,,,,,,,,,,,,,,0,1,1,2,1,,,,,,,,,,,,,,,,,,,,,,,,,,,,,,,,,,,,,,,,,,,,,,
397401,001,2022-11-20_23h54.00.310,Info_measure_main_exp,2022.2.2,Win32,60.28090904,,,,,,,,,,,,,,,,,,masks/mask_005.jpg,,,,,,,,,,,,,,,,,,,,,,,,,,,,,,,,,,,,,,,,,,,0,2,2,4,1,,,,,,,,,,,,,,,,,,,,,,,,,,,,,,,,,,,,,,,,,,,,,,
397401,001,2022-11-20_23h54.00.310,Info_measure_main_exp,2022.2.2,Win32,60.28090904,,,,,,,,,,,,,,,,,,masks/mask_002.jpg,,,,,,,,,,,,,,,,,,,,,,,,,,,,,,,,,,,,,,,,,,,0,3,3,1,1,,,,,,,,,,,,,,,,,,,,,,,,,,,,,,,,,,,,,,,,,,,,,,
397401,001,2022-11-20_23h54.00.310,Info_measure_main_exp,2022.2.2,Win32,60.28090904,,,,,,,,,,,,,,,,,,masks/mask_001.jpg,,,,,,,,,,,,,,,,,,,,,,,,,,,,,,,,,,,,,,,,,,,0,4,4,0,1,,,,,,,,,,,,,,,,,,,,,,,,,,,,,,,,,,,,,,,,,,,,,,
397401,001,2022-11-20_23h54.00.310,Info_measure_main_exp,2022.2.2,Win32,60.28090904,,,,,,,,,,,,,,,,,,masks/mask_003.jpg,,,,,,,,,,,,,,,,,,,,,,,,,,,,,,,,,,,,,,,,,,,,,,,,0,0,0,2,1,,,,,,,,,,,,,,,,,,,,,,,,,,,,,,,,,,,,,,,,,
397401,001,2022-11-20_23h54.00.310,Info_measure_main_exp,2022.2.2,Win32,60.28090904,,,,,,,,,,,,,,,,,,masks/mask_005.jpg,,,,,,,,,,,,,,,,,,,,,,,,,,,,,,,,,,,,,,,,,,,,,,,,0,1,1,4,1,,,,,,,,,,,,,,,,,,,,,,,,,,,,,,,,,,,,,,,,,
397401,001,2022-11-20_23h54.00.310,Info_measure_main_exp,2022.2.2,Win32,60.28090904,,,,,,,,,,,,,,,,,,masks/mask_001.jpg,,,,,,,,,,,,,,,,,,,,,,,,,,,,,,,,,,,,,,,,,,,,,,,,0,2,2,0,1,,,,,,,,,,,,,,,,,,,,,,,,,,,,,,,,,,,,,,,,,
397401,001,2022-11-20_23h54.00.310,Info_measure_main_exp,2022.2.2,Win32,60.28090904,,,,,,,,,,,,,,,,,,masks/mask_002.jpg,,,,,,,,,,,,,,,,,,,,,,,,,,,,,,,,,,,,,,,,,,,,,,,,0,3,3,1,1,,,,,,,,,,,,,,,,,,,,,,,,,,,,,,,,,,,,,,,,,
397401,001,2022-11-20_23h54.00.310,Info_measure_main_exp,2022.2.2,Win32,60.28090904,,,,,,,,,,,,,,,,,,masks/mask_004.jpg,,,,,,,,,,,,,,,,,,,,,,,,,,,,,,,,,,,,,,,,,,,,,,,,0,4,4,3,1,,,,,,,,,,,,,,,,,,,,,,,,,,,,,,,,,,,,,,,,,
397401,001,2022-11-20_23h54.00.310,Info_measure_main_exp,2022.2.2,Win32,60.28090904,,,,,,,,,,,,,,,,,,,,,,,,,,,,,,7,0.8661,1,,,,,,,,,,,,0,131,5,5,2274,2190,absent_patch/patch0002274.jpg,absent_patch/patch0002190.jpg,,,,,,,,,,,,,,,,,,,,0.019444444,0.048148148,1,0,0,response1disk,33,0.007407407,-0.00462963,1,0,0,center_square,0,32,32,116,1,,,,,,,,,,,,,,,,,,,,,,,
397401,001,2022-11-20_23h54.00.310,Info_measure_main_exp,2022.2.2,Win32,60.28090904,,,,,,,,,,,,,,,,,,masks/mask_004.jpg,,,,,,,,,,,,,,,,,,,,,,,,,,,,,,,,,,,,,,,,,,,0,0,0,3,1,,,,,,,,,,,,,,,,,,,,,,,,,,,,,,,,,,,,,,,,,,,,,,
397401,001,2022-11-20_23h54.00.310,Info_measure_main_exp,2022.2.2,Win32,60.28090904,,,,,,,,,,,,,,,,,,masks/mask_005.jpg,,,,,,,,,,,,,,,,,,,,,,,,,,,,,,,,,,,,,,,,,,,0,1,1,4,1,,,,,,,,,,,,,,,,,,,,,,,,,,,,,,,,,,,,,,,,,,,,,,
397401,001,2022-11-20_23h54.00.310,Info_measure_main_exp,2022.2.2,Win32,60.28090904,,,,,,,,,,,,,,,,,,masks/mask_002.jpg,,,,,,,,,,,,,,,,,,,,,,,,,,,,,,,,,,,,,,,,,,,0,2,2,1,1,,,,,,,,,,,,,,,,,,,,,,,,,,,,,,,,,,,,,,,,,,,,,,
397401,001,2022-11-20_23h54.00.310,Info_measure_main_exp,2022.2.2,Win32,60.28090904,,,,,,,,,,,,,,,,,,masks/mask_001.jpg,,,,,,,,,,,,,,,,,,,,,,,,,,,,,,,,,,,,,,,,,,,0,3,3,0,1,,,,,,,,,,,,,,,,,,,,,,,,,,,,,,,,,,,,,,,,,,,,,,
397401,001,2022-11-20_23h54.00.310,Info_measure_main_exp,2022.2.2,Win32,60.28090904,,,,,,,,,,,,,,,,,,masks/mask_003.jpg,,,,,,,,,,,,,,,,,,,,,,,,,,,,,,,,,,,,,,,,,,,0,4,4,2,1,,,,,,,,,,,,,,,,,,,,,,,,,,,,,,,,,,,,,,,,,,,,,,
397401,001,2022-11-20_23h54.00.310,Info_measure_main_exp,2022.2.2,Win32,60.28090904,,,,,,,,,,,,,,,,,,masks/mask_004.jpg,,,,,,,,,,,,,,,,,,,,,,,,,,,,,,,,,,,,,,,,,,,,,,,,0,0,0,3,1,,,,,,,,,,,,,,,,,,,,,,,,,,,,,,,,,,,,,,,,,
397401,001,2022-11-20_23h54.00.310,Info_measure_main_exp,2022.2.2,Win32,60.28090904,,,,,,,,,,,,,,,,,,masks/mask_001.jpg,,,,,,,,,,,,,,,,,,,,,,,,,,,,,,,,,,,,,,,,,,,,,,,,0,1,1,0,1,,,,,,,,,,,,,,,,,,,,,,,,,,,,,,,,,,,,,,,,,
397401,001,2022-11-20_23h54.00.310,Info_measure_main_exp,2022.2.2,Win32,60.28090904,,,,,,,,,,,,,,,,,,masks/mask_002.jpg,,,,,,,,,,,,,,,,,,,,,,,,,,,,,,,,,,,,,,,,,,,,,,,,0,2,2,1,1,,,,,,,,,,,,,,,,,,,,,,,,,,,,,,,,,,,,,,,,,
397401,001,2022-11-20_23h54.00.310,Info_measure_main_exp,2022.2.2,Win32,60.28090904,,,,,,,,,,,,,,,,,,masks/mask_005.jpg,,,,,,,,,,,,,,,,,,,,,,,,,,,,,,,,,,,,,,,,,,,,,,,,0,3,3,4,1,,,,,,,,,,,,,,,,,,,,,,,,,,,,,,,,,,,,,,,,,
397401,001,2022-11-20_23h54.00.310,Info_measure_main_exp,2022.2.2,Win32,60.28090904,,,,,,,,,,,,,,,,,,masks/mask_003.jpg,,,,,,,,,,,,,,,,,,,,,,,,,,,,,,,,,,,,,,,,,,,,,,,,0,4,4,2,1,,,,,,,,,,,,,,,,,,,,,,,,,,,,,,,,,,,,,,,,,
397401,001,2022-11-20_23h54.00.310,Info_measure_main_exp,2022.2.2,Win32,60.28090904,,,,,,,,,,,,,,,,,,,,,,,,,,,,,,6,0.7993,1,,,,,,,,,,,,0,131,5,5,1974,2142,absent_patch/patch0001974.jpg,absent_patch/patch0002142.jpg,,,,,,,,,,,,,,,,,,,,0.074074074,0.025,1,0,0,response1disk,34,0.000925926,0,1,0,0,center_square,0,33,33,38,1,,,,,,,,,,,,,,,,,,,,,,,
397401,001,2022-11-20_23h54.00.310,Info_measure_main_exp,2022.2.2,Win32,60.28090904,,,,,,,,,,,,,,,,,,masks/mask_002.jpg,,,,,,,,,,,,,,,,,,,,,,,,,,,,,,,,,,,,,,,,,,,0,0,0,1,1,,,,,,,,,,,,,,,,,,,,,,,,,,,,,,,,,,,,,,,,,,,,,,
397401,001,2022-11-20_23h54.00.310,Info_measure_main_exp,2022.2.2,Win32,60.28090904,,,,,,,,,,,,,,,,,,masks/mask_005.jpg,,,,,,,,,,,,,,,,,,,,,,,,,,,,,,,,,,,,,,,,,,,0,1,1,4,1,,,,,,,,,,,,,,,,,,,,,,,,,,,,,,,,,,,,,,,,,,,,,,
397401,001,2022-11-20_23h54.00.310,Info_measure_main_exp,2022.2.2,Win32,60.28090904,,,,,,,,,,,,,,,,,,masks/mask_003.jpg,,,,,,,,,,,,,,,,,,,,,,,,,,,,,,,,,,,,,,,,,,,0,2,2,2,1,,,,,,,,,,,,,,,,,,,,,,,,,,,,,,,,,,,,,,,,,,,,,,
397401,001,2022-11-20_23h54.00.310,Info_measure_main_exp,2022.2.2,Win32,60.28090904,,,,,,,,,,,,,,,,,,masks/mask_004.jpg,,,,,,,,,,,,,,,,,,,,,,,,,,,,,,,,,,,,,,,,,,,0,3,3,3,1,,,,,,,,,,,,,,,,,,,,,,,,,,,,,,,,,,,,,,,,,,,,,,
397401,001,2022-11-20_23h54.00.310,Info_measure_main_exp,2022.2.2,Win32,60.28090904,,,,,,,,,,,,,,,,,,masks/mask_001.jpg,,,,,,,,,,,,,,,,,,,,,,,,,,,,,,,,,,,,,,,,,,,0,4,4,0,1,,,,,,,,,,,,,,,,,,,,,,,,,,,,,,,,,,,,,,,,,,,,,,
397401,001,2022-11-20_23h54.00.310,Info_measure_main_exp,2022.2.2,Win32,60.28090904,,,,,,,,,,,,,,,,,,masks/mask_002.jpg,,,,,,,,,,,,,,,,,,,,,,,,,,,,,,,,,,,,,,,,,,,,,,,,0,0,0,1,1,,,,,,,,,,,,,,,,,,,,,,,,,,,,,,,,,,,,,,,,,
397401,001,2022-11-20_23h54.00.310,Info_measure_main_exp,2022.2.2,Win32,60.28090904,,,,,,,,,,,,,,,,,,masks/mask_005.jpg,,,,,,,,,,,,,,,,,,,,,,,,,,,,,,,,,,,,,,,,,,,,,,,,0,1,1,4,1,,,,,,,,,,,,,,,,,,,,,,,,,,,,,,,,,,,,,,,,,
397401,001,2022-11-20_23h54.00.310,Info_measure_main_exp,2022.2.2,Win32,60.28090904,,,,,,,,,,,,,,,,,,masks/mask_001.jpg,,,,,,,,,,,,,,,,,,,,,,,,,,,,,,,,,,,,,,,,,,,,,,,,0,2,2,0,1,,,,,,,,,,,,,,,,,,,,,,,,,,,,,,,,,,,,,,,,,
397401,001,2022-11-20_23h54.00.310,Info_measure_main_exp,2022.2.2,Win32,60.28090904,,,,,,,,,,,,,,,,,,masks/mask_004.jpg,,,,,,,,,,,,,,,,,,,,,,,,,,,,,,,,,,,,,,,,,,,,,,,,0,3,3,3,1,,,,,,,,,,,,,,,,,,,,,,,,,,,,,,,,,,,,,,,,,
