participant,session,date,expName,psychopyVersion,OS,frameRate,space_press_continue.keys,space_press_continue.rt,space_press_continue_2.keys,space_press_continue_2.rt,space_press_continue_3.keys,space_press_continue_3.rt,space_press_continue_4.keys,space_press_continue_4.rt,space_press_continue_5.keys,space_press_continue_5.rt,space_press_continue_6.keys,space_press_continue_6.rt,prac_mask_loop_1.thisRepN,prac_mask_loop_1.thisTrialN,prac_mask_loop_1.thisN,prac_mask_loop_1.thisIndex,prac_mask_loop_1.ran,mask_name,prac_mask_loop_2.thisRepN,prac_mask_loop_2.thisTrialN,prac_mask_loop_2.thisN,prac_mask_loop_2.thisIndex,prac_mask_loop_2.ran,mouse_2.x,mouse_2.y,mouse_2.leftButton,mouse_2.midButton,mouse_2.rightButton,mouse_2.clicked_name,similarity,response_time,Pass,mouse_12.x,mouse_12.y,mouse_12.leftButton,mouse_12.midButton,mouse_12.rightButton,mouse_12.clicked_name,prac_loop.thisRepN,prac_loop.thisTrialN,prac_loop.thisN,prac_loop.thisIndex,prac_loop.ran,Pair_type,Image_num,Patch_1_loc,Patch_2_loc,Patch_1_info,Patch_2_info,Patch_1_name,Patch_2_name,mouse_1.x,mouse_1.y,mouse_1.leftButton,mouse_1.midButton,mouse_1.rightButton,mouse_1.time,mouse_1.clicked_name,space_press_continue_7.keys,mask_loop.thisRepN,mask_loop.thisTrialN,mask_loop.thisN,mask_loop.thisIndex,mask_loop.ran,mask_loop_2.thisRepN,mask_loop_2.thisTrialN,mask_loop_2.thisN,mask_loop_2.thisIndex,mask_loop_2.ran,mouse.x,mouse.y,mouse.leftButton,mouse.midButton,mouse.rightButton,mouse.clicked_name,trialNumber,mouse_11.x,mouse_11.y,mouse_11.leftButton,mouse_11.midButton,mouse_11.rightButton,mouse_11.clicked_name,first_pass_loop.thisRepN,first_pass_loop.thisTrialN,first_pass_loop.thisN,first_pass_loop.thisIndex,first_pass_loop.ran,mask_loop_3.thisRepN,mask_loop_3.thisTrialN,mask_loop_3.thisN,mask_loop_3.thisIndex,mask_loop_3.ran,mask_loop_4.thisRepN,mask_loop_4.thisTrialN,mask_loop_4.thisN,mask_loop_4.thisIndex,mask_loop_4.ran,mouse_3.x,mouse_3.y,mouse_3.leftButton,mouse_3.midButton,mouse_3.rightButton,mouse_3.clicked_name,double_pass_loop.thisRepN,double_pass_loop.thisTrialN,double_pass_loop.thisN,double_pass_loop.thisIndex,double_pass_loop.ran,space_exit.keys,space_exit.rt
398315,001,2022-11-21_01h59.35.775,Info_measure_main_exp,2022.2.2,Win32,59.99880002,,,,,,,,,,,,,,,,,,,,,,,,,,,,,,,,,,,,,,,,,,,,,,,,,,,,,,,,,,,,,,,,,,,,,,,,,,,,,,,,,,,,,,,,,,,,,,,,,,,,,,,,,,,,,,
398315,001,2022-11-21_01h59.35.775,Info_measure_main_exp,2022.2.2,Win32,59.99880002,,,,,,,,,,,,,,,,,,,,,,,,,,,,,,,,,,,,,,,,,,,,,,,,,,,,,,,,,,,,,,,,,,,,,,,,,,,,,,,,,,,,,,,,,,,,,,,,,,,,,,,,,,,,,,
398315,001,2022-11-21_01h59.35.775,Info_measure_main_exp,2022.2.2,Win32,59.99880002,space,28.0888,,,,,,,,,,,,,,,,,,,,,,,,,,,,,,,,,,,,,,,,,,,,,,,,,,,,,,,,,,,,,,,,,,,,,,,,,,,,,,,,,,,,,,,,,,,,,,,,,,,,,,,,,,,,
398315,001,2022-11-21_01h59.35.775,Info_measure_main_exp,2022.2.2,Win32,59.99880002,,,space,69.8423,,,,,,,,,,,,,,,,,,,,,,,,,,,,,,,,,,,,,,,,,,,,,,,,,,,,,,,,,,,,,,,,,,,,,,,,,,,,,,,,,,,,,,,,,,,,,,,,,,,,,,,,,,
398315,001,2022-11-21_01h59.35.775,Info_measure_main_exp,2022.2.2,Win32,59.99880002,,,,,space,17.4501,,,,,,,,,,,,,,,,,,,,,,,,,,,,,,,,,,,,,,,,,,,,,,,,,,,,,,,,,,,,,,,,,,,,,,,,,,,,,,,,,,,,,,,,,,,,,,,,,,,,,,,,
398315,001,2022-11-21_01h59.35.775,Info_measure_main_exp,2022.2.2,Win32,59.99880002,,,,,,,space,68.0868,,,,,,,,,,,,,,,,,,,,,,,,,,,,,,,,,,,,,,,,,,,,,,,,,,,,,,,,,,,,,,,,,,,,,,,,,,,,,,,,,,,,,,,,,,,,,,,,,,,,,,
398315,001,2022-11-21_01h59.35.775,Info_measure_main_exp,2022.2.2,Win32,59.99880002,,,,,,,,,space,24.7397,,,,,,,,,,,,,,,,,,,,,,,,,,,,,,,,,,,,,,,,,,,,,,,,,,,,,,,,,,,,,,,,,,,,,,,,,,,,,,,,,,,,,,,,,,,,,,,,,,,,
398315,001,2022-11-21_01h59.35.775,Info_measure_main_exp,2022.2.2,Win32,59.99880002,,,,,,,,,,,space,10.9415,,,,,,,,,,,,,,,,,,,,,,,,,,,,,,,,,,,,,,,,,,,,,,,,,,,,,,,,,,,,,,,,,,,,,,,,,,,,,,,,,,,,,,,,,,,,,,,,,,
398315,001,2022-11-21_01h59.35.775,Info_measure_main_exp,2022.2.2,Win32,59.99880002,,,,,,,,,,,,,0,0,0,4,1,masks/mask_005.jpg,,,,,,,,,,,,,,,,,,,,,,,,,,,,,,,,,,,,,,,,,,,,,,,,,,,,,,,,,,,,,,,,,,,,,,,,,,,,,,,,,,,,,,,,,,,,
398315,001,2022-11-21_01h59.35.775,Info_measure_main_exp,2022.2.2,Win32,59.99880002,,,,,,,,,,,,,0,1,1,2,1,masks/mask_003.jpg,,,,,,,,,,,,,,,,,,,,,,,,,,,,,,,,,,,,,,,,,,,,,,,,,,,,,,,,,,,,,,,,,,,,,,,,,,,,,,,,,,,,,,,,,,,,
398315,001,2022-11-21_01h59.35.775,Info_measure_main_exp,2022.2.2,Win32,59.99880002,,,,,,,,,,,,,0,2,2,0,1,masks/mask_001.jpg,,,,,,,,,,,,,,,,,,,,,,,,,,,,,,,,,,,,,,,,,,,,,,,,,,,,,,,,,,,,,,,,,,,,,,,,,,,,,,,,,,,,,,,,,,,,
398315,001,2022-11-21_01h59.35.775,Info_measure_main_exp,2022.2.2,Win32,59.99880002,,,,,,,,,,,,,0,3,3,1,1,masks/mask_002.jpg,,,,,,,,,,,,,,,,,,,,,,,,,,,,,,,,,,,,,,,,,,,,,,,,,,,,,,,,,,,,,,,,,,,,,,,,,,,,,,,,,,,,,,,,,,,,
398315,001,2022-11-21_01h59.35.775,Info_measure_main_exp,2022.2.2,Win32,59.99880002,,,,,,,,,,,,,0,4,4,3,1,masks/mask_004.jpg,,,,,,,,,,,,,,,,,,,,,,,,,,,,,,,,,,,,,,,,,,,,,,,,,,,,,,,,,,,,,,,,,,,,,,,,,,,,,,,,,,,,,,,,,,,,
398315,001,2022-11-21_01h59.35.775,Info_measure_main_exp,2022.2.2,Win32,59.99880002,,,,,,,,,,,,,,,,,,masks/mask_003.jpg,0,0,0,2,1,,,,,,,,,,,,,,,,,,,,,,,,,,,,,,,,,,,,,,,,,,,,,,,,,,,,,,,,,,,,,,,,,,,,,,,,,,,,,,,,,,,,,,,
398315,001,2022-11-21_01h59.35.775,Info_measure_main_exp,2022.2.2,Win32,59.99880002,,,,,,,,,,,,,,,,,,masks/mask_001.jpg,0,1,1,0,1,,,,,,,,,,,,,,,,,,,,,,,,,,,,,,,,,,,,,,,,,,,,,,,,,,,,,,,,,,,,,,,,,,,,,,,,,,,,,,,,,,,,,,,
398315,001,2022-11-21_01h59.35.775,Info_measure_main_exp,2022.2.2,Win32,59.99880002,,,,,,,,,,,,,,,,,,masks/mask_004.jpg,0,2,2,3,1,,,,,,,,,,,,,,,,,,,,,,,,,,,,,,,,,,,,,,,,,,,,,,,,,,,,,,,,,,,,,,,,,,,,,,,,,,,,,,,,,,,,,,,
398315,001,2022-11-21_01h59.35.775,Info_measure_main_exp,2022.2.2,Win32,59.99880002,,,,,,,,,,,,,,,,,,masks/mask_002.jpg,0,3,3,1,1,,,,,,,,,,,,,,,,,,,,,,,,,,,,,,,,,,,,,,,,,,,,,,,,,,,,,,,,,,,,,,,,,,,,,,,,,,,,,,,,,,,,,,,
398315,001,2022-11-21_01h59.35.775,Info_measure_main_exp,2022.2.2,Win32,59.99880002,,,,,,,,,,,,,,,,,,masks/mask_005.jpg,0,4,4,4,1,,,,,,,,,,,,,,,,,,,,,,,,,,,,,,,,,,,,,,,,,,,,,,,,,,,,,,,,,,,,,,,,,,,,,,,,,,,,,,,,,,,,,,,
398315,001,2022-11-21_01h59.35.775,Info_measure_main_exp,2022.2.2,Win32,59.99880002,,,,,,,,,,,,,,,,,,,,,,,,0.047222208,-0.131481524,1,0,0,response3disk,4,225.1864,1,-0.005555541,0,1,0,0,center_square,0,0,0,1,1,0,131,5,5,2514,2490,prac_patch/patch0002514.jpg,prac_patch/patch0002490.jpg,,,,,,,,,,,,,,,,,,,,,,,,,,,,,,,,,,,,,,,,,,,,,,,,,,,,,,,,,,,
398315,001,2022-11-21_01h59.35.775,Info_measure_main_exp,2022.2.2,Win32,59.99880002,,,,,,,,,,,,,0,0,0,3,1,masks/mask_004.jpg,,,,,,,,,,,,,,,,,,,,,,,,,,,,,,,,,,,,,,,,,,,,,,,,,,,,,,,,,,,,,,,,,,,,,,,,,,,,,,,,,,,,,,,,,,,,
398315,001,2022-11-21_01h59.35.775,Info_measure_main_exp,2022.2.2,Win32,59.99880002,,,,,,,,,,,,,0,1,1,4,1,masks/mask_005.jpg,,,,,,,,,,,,,,,,,,,,,,,,,,,,,,,,,,,,,,,,,,,,,,,,,,,,,,,,,,,,,,,,,,,,,,,,,,,,,,,,,,,,,,,,,,,,
398315,001,2022-11-21_01h59.35.775,Info_measure_main_exp,2022.2.2,Win32,59.99880002,,,,,,,,,,,,,0,2,2,2,1,masks/mask_003.jpg,,,,,,,,,,,,,,,,,,,,,,,,,,,,,,,,,,,,,,,,,,,,,,,,,,,,,,,,,,,,,,,,,,,,,,,,,,,,,,,,,,,,,,,,,,,,
398315,001,2022-11-21_01h59.35.775,Info_measure_main_exp,2022.2.2,Win32,59.99880002,,,,,,,,,,,,,0,3,3,1,1,masks/mask_002.jpg,,,,,,,,,,,,,,,,,,,,,,,,,,,,,,,,,,,,,,,,,,,,,,,,,,,,,,,,,,,,,,,,,,,,,,,,,,,,,,,,,,,,,,,,,,,,
398315,001,2022-11-21_01h59.35.775,Info_measure_main_exp,2022.2.2,Win32,59.99880002,,,,,,,,,,,,,0,4,4,0,1,masks/mask_001.jpg,,,,,,,,,,,,,,,,,,,,,,,,,,,,,,,,,,,,,,,,,,,,,,,,,,,,,,,,,,,,,,,,,,,,,,,,,,,,,,,,,,,,,,,,,,,,
398315,001,2022-11-21_01h59.35.775,Info_measure_main_exp,2022.2.2,Win32,59.99880002,,,,,,,,,,,,,,,,,,masks/mask_001.jpg,0,0,0,0,1,,,,,,,,,,,,,,,,,,,,,,,,,,,,,,,,,,,,,,,,,,,,,,,,,,,,,,,,,,,,,,,,,,,,,,,,,,,,,,,,,,,,,,,
398315,001,2022-11-21_01h59.35.775,Info_measure_main_exp,2022.2.2,Win32,59.99880002,,,,,,,,,,,,,,,,,,masks/mask_003.jpg,0,1,1,2,1,,,,,,,,,,,,,,,,,,,,,,,,,,,,,,,,,,,,,,,,,,,,,,,,,,,,,,,,,,,,,,,,,,,,,,,,,,,,,,,,,,,,,,,
398315,001,2022-11-21_01h59.35.775,Info_measure_main_exp,2022.2.2,Win32,59.99880002,,,,,,,,,,,,,,,,,,masks/mask_004.jpg,0,2,2,3,1,,,,,,,,,,,,,,,,,,,,,,,,,,,,,,,,,,,,,,,,,,,,,,,,,,,,,,,,,,,,,,,,,,,,,,,,,,,,,,,,,,,,,,,
398315,001,2022-11-21_01h59.35.775,Info_measure_main_exp,2022.2.2,Win32,59.99880002,,,,,,,,,,,,,,,,,,masks/mask_005.jpg,0,3,3,4,1,,,,,,,,,,,,,,,,,,,,,,,,,,,,,,,,,,,,,,,,,,,,,,,,,,,,,,,,,,,,,,,,,,,,,,,,,,,,,,,,,,,,,,,
398315,001,2022-11-21_01h59.35.775,Info_measure_main_exp,2022.2.2,Win32,59.99880002,,,,,,,,,,,,,,,,,,masks/mask_002.jpg,0,4,4,1,1,,,,,,,,,,,,,,,,,,,,,,,,,,,,,,,,,,,,,,,,,,,,,,,,,,,,,,,,,,,,,,,,,,,,,,,,,,,,,,,,,,,,,,,
398315,001,2022-11-21_01h59.35.775,Info_measure_main_exp,2022.2.2,Win32,59.99880002,,,,,,,,,,,,,,,,,,,,,,,,0.056481467,0.124074053,1,0,0,response1disk,7,237.0661,1,-0.000925912,0.00462963,1,0,0,center_square,0,1,1,0,1,0,131,5,5,2370,2406,prac_patch/patch0002370.jpg,prac_patch/patch0002406.jpg,,,,,,,,,,,,,,,,,,,,,,,,,,,,,,,,,,,,,,,,,,,,,,,,,,,,,,,,,,,
398315,001,2022-11-21_01h59.35.775,Info_measure_main_exp,2022.2.2,Win32,59.99880002,,,,,,,,,,,,,0,0,0,3,1,masks/mask_004.jpg,,,,,,,,,,,,,,,,,,,,,,,,,,,,,,,,,,,,,,,,,,,,,,,,,,,,,,,,,,,,,,,,,,,,,,,,,,,,,,,,,,,,,,,,,,,,
398315,001,2022-11-21_01h59.35.775,Info_measure_main_exp,2022.2.2,Win32,59.99880002,,,,,,,,,,,,,0,1,1,4,1,masks/mask_005.jpg,,,,,,,,,,,,,,,,,,,,,,,,,,,,,,,,,,,,,,,,,,,,,,,,,,,,,,,,,,,,,,,,,,,,,,,,,,,,,,,,,,,,,,,,,,,,
398315,001,2022-11-21_01h59.35.775,Info_measure_main_exp,2022.2.2,Win32,59.99880002,,,,,,,,,,,,,0,2,2,1,1,masks/mask_002.jpg,,,,,,,,,,,,,,,,,,,,,,,,,,,,,,,,,,,,,,,,,,,,,,,,,,,,,,,,,,,,,,,,,,,,,,,,,,,,,,,,,,,,,,,,,,,,
398315,001,2022-11-21_01h59.35.775,Info_measure_main_exp,2022.2.2,Win32,59.99880002,,,,,,,,,,,,,0,3,3,0,1,masks/mask_001.jpg,,,,,,,,,,,,,,,,,,,,,,,,,,,,,,,,,,,,,,,,,,,,,,,,,,,,,,,,,,,,,,,,,,,,,,,,,,,,,,,,,,,,,,,,,,,,
398315,001,2022-11-21_01h59.35.775,Info_measure_main_exp,2022.2.2,Win32,59.99880002,,,,,,,,,,,,,0,4,4,2,1,masks/mask_003.jpg,,,,,,,,,,,,,,,,,,,,,,,,,,,,,,,,,,,,,,,,,,,,,,,,,,,,,,,,,,,,,,,,,,,,,,,,,,,,,,,,,,,,,,,,,,,,
398315,001,2022-11-21_01h59.35.775,Info_measure_main_exp,2022.2.2,Win32,59.99880002,,,,,,,,,,,,,,,,,,masks/mask_003.jpg,0,0,0,2,1,,,,,,,,,,,,,,,,,,,,,,,,,,,,,,,,,,,,,,,,,,,,,,,,,,,,,,,,,,,,,,,,,,,,,,,,,,,,,,,,,,,,,,,
398315,001,2022-11-21_01h59.35.775,Info_measure_main_exp,2022.2.2,Win32,59.99880002,,,,,,,,,,,,,,,,,,masks/mask_002.jpg,0,1,1,1,1,,,,,,,,,,,,,,,,,,,,,,,,,,,,,,,,,,,,,,,,,,,,,,,,,,,,,,,,,,,,,,,,,,,,,,,,,,,,,,,,,,,,,,,
398315,001,2022-11-21_01h59.35.775,Info_measure_main_exp,2022.2.2,Win32,59.99880002,,,,,,,,,,,,,,,,,,masks/mask_001.jpg,0,2,2,0,1,,,,,,,,,,,,,,,,,,,,,,,,,,,,,,,,,,,,,,,,,,,,,,,,,,,,,,,,,,,,,,,,,,,,,,,,,,,,,,,,,,,,,,,
398315,001,2022-11-21_01h59.35.775,Info_measure_main_exp,2022.2.2,Win32,59.99880002,,,,,,,,,,,,,,,,,,masks/mask_005.jpg,0,3,3,4,1,,,,,,,,,,,,,,,,,,,,,,,,,,,,,,,,,,,,,,,,,,,,,,,,,,,,,,,,,,,,,,,,,,,,,,,,,,,,,,,,,,,,,,,
398315,001,2022-11-21_01h59.35.775,Info_measure_main_exp,2022.2.2,Win32,59.99880002,,,,,,,,,,,,,,,,,,masks/mask_004.jpg,0,4,4,3,1,,,,,,,,,,,,,,,,,,,,,,,,,,,,,,,,,,,,,,,,,,,,,,,,,,,,,,,,,,,,,,,,,,,,,,,,,,,,,,,,,,,,,,,
398315,001,2022-11-21_01h59.35.775,Info_measure_main_exp,2022.2.2,Win32,59.99880002,,,,,,,,,,,,,,,,,,,,,,,,-0.049074032,0.119444423,1,0,0,response7disk,0,246.5869,1,-0.006481453,0.006481489,1,0,0,center_square,0,2,2,2,1,0,131,5,5,2526,2526,prac_patch/patch0002526.jpg,prac_patch/patch0002526.jpg,,,,,,,,,,,,,,,,,,,,,,,,,,,,,,,,,,,,,,,,,,,,,,,,,,,,,,,,,,,
398315,001,2022-11-21_01h59.35.775,Info_measure_main_exp,2022.2.2,Win32,59.99880002,,,,,,,,,,,,,,,,,,,,,,,,,,,,,,,,,,,,,,,,,,,,,,,,,,,,-0.006481453,0.006481489,1,0,0,0.2138,center_square,,,,,,,,,,,,,,,,,,,,,,,,,,,,,,,,,,,,,,,,,,,,,,,,,,,,
398315,001,2022-11-21_01h59.35.775,Info_measure_main_exp,2022.2.2,Win32,59.99880002,,,,,,,,,,,,,,,,,,masks/mask_005.jpg,,,,,,,,,,,,,,,,,,,,,,,,,,,,,,,,,,,,,,,,,,0,0,0,4,1,,,,,,,,,,,,,,,,,,,,,,,,,,,,,,,,,,,,,,,,,,,,,,
398315,001,2022-11-21_01h59.35.775,Info_measure_main_exp,2022.2.2,Win32,59.99880002,,,,,,,,,,,,,,,,,,masks/mask_001.jpg,,,,,,,,,,,,,,,,,,,,,,,,,,,,,,,,,,,,,,,,,,0,1,1,0,1,,,,,,,,,,,,,,,,,,,,,,,,,,,,,,,,,,,,,,,,,,,,,,
398315,001,2022-11-21_01h59.35.775,Info_measure_main_exp,2022.2.2,Win32,59.99880002,,,,,,,,,,,,,,,,,,masks/mask_002.jpg,,,,,,,,,,,,,,,,,,,,,,,,,,,,,,,,,,,,,,,,,,0,2,2,1,1,,,,,,,,,,,,,,,,,,,,,,,,,,,,,,,,,,,,,,,,,,,,,,
398315,001,2022-11-21_01h59.35.775,Info_measure_main_exp,2022.2.2,Win32,59.99880002,,,,,,,,,,,,,,,,,,masks/mask_004.jpg,,,,,,,,,,,,,,,,,,,,,,,,,,,,,,,,,,,,,,,,,,0,3,3,3,1,,,,,,,,,,,,,,,,,,,,,,,,,,,,,,,,,,,,,,,,,,,,,,
398315,001,2022-11-21_01h59.35.775,Info_measure_main_exp,2022.2.2,Win32,59.99880002,,,,,,,,,,,,,,,,,,masks/mask_003.jpg,,,,,,,,,,,,,,,,,,,,,,,,,,,,,,,,,,,,,,,,,,0,4,4,2,1,,,,,,,,,,,,,,,,,,,,,,,,,,,,,,,,,,,,,,,,,,,,,,
398315,001,2022-11-21_01h59.35.775,Info_measure_main_exp,2022.2.2,Win32,59.99880002,,,,,,,,,,,,,,,,,,masks/mask_004.jpg,,,,,,,,,,,,,,,,,,,,,,,,,,,,,,,,,,,,,,,,,,,,,,,0,0,0,3,1,,,,,,,,,,,,,,,,,,,,,,,,,,,,,,,,,,,,,,,,,
398315,001,2022-11-21_01h59.35.775,Info_measure_main_exp,2022.2.2,Win32,59.99880002,,,,,,,,,,,,,,,,,,masks/mask_005.jpg,,,,,,,,,,,,,,,,,,,,,,,,,,,,,,,,,,,,,,,,,,,,,,,0,1,1,4,1,,,,,,,,,,,,,,,,,,,,,,,,,,,,,,,,,,,,,,,,,
398315,001,2022-11-21_01h59.35.775,Info_measure_main_exp,2022.2.2,Win32,59.99880002,,,,,,,,,,,,,,,,,,masks/mask_002.jpg,,,,,,,,,,,,,,,,,,,,,,,,,,,,,,,,,,,,,,,,,,,,,,,0,2,2,1,1,,,,,,,,,,,,,,,,,,,,,,,,,,,,,,,,,,,,,,,,,
398315,001,2022-11-21_01h59.35.775,Info_measure_main_exp,2022.2.2,Win32,59.99880002,,,,,,,,,,,,,,,,,,masks/mask_001.jpg,,,,,,,,,,,,,,,,,,,,,,,,,,,,,,,,,,,,,,,,,,,,,,,0,3,3,0,1,,,,,,,,,,,,,,,,,,,,,,,,,,,,,,,,,,,,,,,,,
398315,001,2022-11-21_01h59.35.775,Info_measure_main_exp,2022.2.2,Win32,59.99880002,,,,,,,,,,,,,,,,,,masks/mask_003.jpg,,,,,,,,,,,,,,,,,,,,,,,,,,,,,,,,,,,,,,,,,,,,,,,0,4,4,2,1,,,,,,,,,,,,,,,,,,,,,,,,,,,,,,,,,,,,,,,,,
398315,001,2022-11-21_01h59.35.775,Info_measure_main_exp,2022.2.2,Win32,59.99880002,,,,,,,,,,,,,,,,,,,,,,,,,,,,,,5,4.143,1,,,,,,,,,,,,0,131,5,5,2214,2082,absent_patch/patch0002214.jpg,absent_patch/patch0002082.jpg,,,,,,,,,,,,,,,,,,,0.107407393,-0.043518526,1,0,0,response3disk,1,0.002777806,0.000925912,1,0,0,center_square,0,0,0,103,1,,,,,,,,,,,,,,,,,,,,,,,
398315,001,2022-11-21_01h59.35.775,Info_measure_main_exp,2022.2.2,Win32,59.99880002,,,,,,,,,,,,,,,,,,masks/mask_003.jpg,,,,,,,,,,,,,,,,,,,,,,,,,,,,,,,,,,,,,,,,,,0,0,0,2,1,,,,,,,,,,,,,,,,,,,,,,,,,,,,,,,,,,,,,,,,,,,,,,
398315,001,2022-11-21_01h59.35.775,Info_measure_main_exp,2022.2.2,Win32,59.99880002,,,,,,,,,,,,,,,,,,masks/mask_001.jpg,,,,,,,,,,,,,,,,,,,,,,,,,,,,,,,,,,,,,,,,,,0,1,1,0,1,,,,,,,,,,,,,,,,,,,,,,,,,,,,,,,,,,,,,,,,,,,,,,
398315,001,2022-11-21_01h59.35.775,Info_measure_main_exp,2022.2.2,Win32,59.99880002,,,,,,,,,,,,,,,,,,masks/mask_005.jpg,,,,,,,,,,,,,,,,,,,,,,,,,,,,,,,,,,,,,,,,,,0,2,2,4,1,,,,,,,,,,,,,,,,,,,,,,,,,,,,,,,,,,,,,,,,,,,,,,
398315,001,2022-11-21_01h59.35.775,Info_measure_main_exp,2022.2.2,Win32,59.99880002,,,,,,,,,,,,,,,,,,masks/mask_002.jpg,,,,,,,,,,,,,,,,,,,,,,,,,,,,,,,,,,,,,,,,,,0,3,3,1,1,,,,,,,,,,,,,,,,,,,,,,,,,,,,,,,,,,,,,,,,,,,,,,
398315,001,2022-11-21_01h59.35.775,Info_measure_main_exp,2022.2.2,Win32,59.99880002,,,,,,,,,,,,,,,,,,masks/mask_004.jpg,,,,,,,,,,,,,,,,,,,,,,,,,,,,,,,,,,,,,,,,,,0,4,4,3,1,,,,,,,,,,,,,,,,,,,,,,,,,,,,,,,,,,,,,,,,,,,,,,
398315,001,2022-11-21_01h59.35.775,Info_measure_main_exp,2022.2.2,Win32,59.99880002,,,,,,,,,,,,,,,,,,masks/mask_002.jpg,,,,,,,,,,,,,,,,,,,,,,,,,,,,,,,,,,,,,,,,,,,,,,,0,0,0,1,1,,,,,,,,,,,,,,,,,,,,,,,,,,,,,,,,,,,,,,,,,
398315,001,2022-11-21_01h59.35.775,Info_measure_main_exp,2022.2.2,Win32,59.99880002,,,,,,,,,,,,,,,,,,masks/mask_004.jpg,,,,,,,,,,,,,,,,,,,,,,,,,,,,,,,,,,,,,,,,,,,,,,,0,1,1,3,1,,,,,,,,,,,,,,,,,,,,,,,,,,,,,,,,,,,,,,,,,
398315,001,2022-11-21_01h59.35.775,Info_measure_main_exp,2022.2.2,Win32,59.99880002,,,,,,,,,,,,,,,,,,masks/mask_001.jpg,,,,,,,,,,,,,,,,,,,,,,,,,,,,,,,,,,,,,,,,,,,,,,,0,2,2,0,1,,,,,,,,,,,,,,,,,,,,,,,,,,,,,,,,,,,,,,,,,
398315,001,2022-11-21_01h59.35.775,Info_measure_main_exp,2022.2.2,Win32,59.99880002,,,,,,,,,,,,,,,,,,masks/mask_005.jpg,,,,,,,,,,,,,,,,,,,,,,,,,,,,,,,,,,,,,,,,,,,,,,,0,3,3,4,1,,,,,,,,,,,,,,,,,,,,,,,,,,,,,,,,,,,,,,,,,
398315,001,2022-11-21_01h59.35.775,Info_measure_main_exp,2022.2.2,Win32,59.99880002,,,,,,,,,,,,,,,,,,masks/mask_003.jpg,,,,,,,,,,,,,,,,,,,,,,,,,,,,,,,,,,,,,,,,,,,,,,,0,4,4,2,1,,,,,,,,,,,,,,,,,,,,,,,,,,,,,,,,,,,,,,,,,
398315,001,2022-11-21_01h59.35.775,Info_measure_main_exp,2022.2.2,Win32,59.99880002,,,,,,,,,,,,,,,,,,,,,,,,,,,,,,4,1.7,1,,,,,,,,,,,,0,131,5,5,1950,2142,absent_patch/patch0001950.jpg,absent_patch/patch0002142.jpg,,,,,,,,,,,,,,,,,,,0.014814801,-0.066666674,1,0,0,response3disk,2,0,-0.002777771,1,0,0,center_square,0,1,1,83,1,,,,,,,,,,,,,,,,,,,,,,,
398315,001,2022-11-21_01h59.35.775,Info_measure_main_exp,2022.2.2,Win32,59.99880002,,,,,,,,,,,,,,,,,,masks/mask_004.jpg,,,,,,,,,,,,,,,,,,,,,,,,,,,,,,,,,,,,,,,,,,0,0,0,3,1,,,,,,,,,,,,,,,,,,,,,,,,,,,,,,,,,,,,,,,,,,,,,,
398315,001,2022-11-21_01h59.35.775,Info_measure_main_exp,2022.2.2,Win32,59.99880002,,,,,,,,,,,,,,,,,,masks/mask_005.jpg,,,,,,,,,,,,,,,,,,,,,,,,,,,,,,,,,,,,,,,,,,0,1,1,4,1,,,,,,,,,,,,,,,,,,,,,,,,,,,,,,,,,,,,,,,,,,,,,,
398315,001,2022-11-21_01h59.35.775,Info_measure_main_exp,2022.2.2,Win32,59.99880002,,,,,,,,,,,,,,,,,,masks/mask_003.jpg,,,,,,,,,,,,,,,,,,,,,,,,,,,,,,,,,,,,,,,,,,0,2,2,2,1,,,,,,,,,,,,,,,,,,,,,,,,,,,,,,,,,,,,,,,,,,,,,,
398315,001,2022-11-21_01h59.35.775,Info_measure_main_exp,2022.2.2,Win32,59.99880002,,,,,,,,,,,,,,,,,,masks/mask_002.jpg,,,,,,,,,,,,,,,,,,,,,,,,,,,,,,,,,,,,,,,,,,0,3,3,1,1,,,,,,,,,,,,,,,,,,,,,,,,,,,,,,,,,,,,,,,,,,,,,,
398315,001,2022-11-21_01h59.35.775,Info_measure_main_exp,2022.2.2,Win32,59.99880002,,,,,,,,,,,,,,,,,,masks/mask_001.jpg,,,,,,,,,,,,,,,,,,,,,,,,,,,,,,,,,,,,,,,,,,0,4,4,0,1,,,,,,,,,,,,,,,,,,,,,,,,,,,,,,,,,,,,,,,,,,,,,,
398315,001,2022-11-21_01h59.35.775,Info_measure_main_exp,2022.2.2,Win32,59.99880002,,,,,,,,,,,,,,,,,,masks/mask_005.jpg,,,,,,,,,,,,,,,,,,,,,,,,,,,,,,,,,,,,,,,,,,,,,,,0,0,0,4,1,,,,,,,,,,,,,,,,,,,,,,,,,,,,,,,,,,,,,,,,,
398315,001,2022-11-21_01h59.35.775,Info_measure_main_exp,2022.2.2,Win32,59.99880002,,,,,,,,,,,,,,,,,,masks/mask_003.jpg,,,,,,,,,,,,,,,,,,,,,,,,,,,,,,,,,,,,,,,,,,,,,,,0,1,1,2,1,,,,,,,,,,,,,,,,,,,,,,,,,,,,,,,,,,,,,,,,,
398315,001,2022-11-21_01h59.35.775,Info_measure_main_exp,2022.2.2,Win32,59.99880002,,,,,,,,,,,,,,,,,,masks/mask_001.jpg,,,,,,,,,,,,,,,,,,,,,,,,,,,,,,,,,,,,,,,,,,,,,,,0,2,2,0,1,,,,,,,,,,,,,,,,,,,,,,,,,,,,,,,,,,,,,,,,,
398315,001,2022-11-21_01h59.35.775,Info_measure_main_exp,2022.2.2,Win32,59.99880002,,,,,,,,,,,,,,,,,,masks/mask_004.jpg,,,,,,,,,,,,,,,,,,,,,,,,,,,,,,,,,,,,,,,,,,,,,,,0,3,3,3,1,,,,,,,,,,,,,,,,,,,,,,,,,,,,,,,,,,,,,,,,,
398315,001,2022-11-21_01h59.35.775,Info_measure_main_exp,2022.2.2,Win32,59.99880002,,,,,,,,,,,,,,,,,,masks/mask_002.jpg,,,,,,,,,,,,,,,,,,,,,,,,,,,,,,,,,,,,,,,,,,,,,,,0,4,4,1,1,,,,,,,,,,,,,,,,,,,,,,,,,,,,,,,,,,,,,,,,,
398315,001,2022-11-21_01h59.35.775,Info_measure_main_exp,2022.2.2,Win32,59.99880002,,,,,,,,,,,,,,,,,,,,,,,,,,,,,,0,1.2095,1,,,,,,,,,,,,0,131,5,5,2274,2274,absent_patch/patch0002274.jpg,absent_patch/patch0002274.jpg,,,,,,,,,,,,,,,,,,,-0.032407407,0.088888875,1,0,0,response7disk,3,-0.00462963,0.008333312,1,0,0,center_square,0,2,2,114,1,,,,,,,,,,,,,,,,,,,,,,,
398315,001,2022-11-21_01h59.35.775,Info_measure_main_exp,2022.2.2,Win32,59.99880002,,,,,,,,,,,,,,,,,,masks/mask_001.jpg,,,,,,,,,,,,,,,,,,,,,,,,,,,,,,,,,,,,,,,,,,0,0,0,0,1,,,,,,,,,,,,,,,,,,,,,,,,,,,,,,,,,,,,,,,,,,,,,,
398315,001,2022-11-21_01h59.35.775,Info_measure_main_exp,2022.2.2,Win32,59.99880002,,,,,,,,,,,,,,,,,,masks/mask_004.jpg,,,,,,,,,,,,,,,,,,,,,,,,,,,,,,,,,,,,,,,,,,0,1,1,3,1,,,,,,,,,,,,,,,,,,,,,,,,,,,,,,,,,,,,,,,,,,,,,,
398315,001,2022-11-21_01h59.35.775,Info_measure_main_exp,2022.2.2,Win32,59.99880002,,,,,,,,,,,,,,,,,,masks/mask_005.jpg,,,,,,,,,,,,,,,,,,,,,,,,,,,,,,,,,,,,,,,,,,0,2,2,4,1,,,,,,,,,,,,,,,,,,,,,,,,,,,,,,,,,,,,,,,,,,,,,,
398315,001,2022-11-21_01h59.35.775,Info_measure_main_exp,2022.2.2,Win32,59.99880002,,,,,,,,,,,,,,,,,,masks/mask_003.jpg,,,,,,,,,,,,,,,,,,,,,,,,,,,,,,,,,,,,,,,,,,0,3,3,2,1,,,,,,,,,,,,,,,,,,,,,,,,,,,,,,,,,,,,,,,,,,,,,,
398315,001,2022-11-21_01h59.35.775,Info_measure_main_exp,2022.2.2,Win32,59.99880002,,,,,,,,,,,,,,,,,,masks/mask_002.jpg,,,,,,,,,,,,,,,,,,,,,,,,,,,,,,,,,,,,,,,,,,0,4,4,1,1,,,,,,,,,,,,,,,,,,,,,,,,,,,,,,,,,,,,,,,,,,,,,,
398315,001,2022-11-21_01h59.35.775,Info_measure_main_exp,2022.2.2,Win32,59.99880002,,,,,,,,,,,,,,,,,,masks/mask_004.jpg,,,,,,,,,,,,,,,,,,,,,,,,,,,,,,,,,,,,,,,,,,,,,,,0,0,0,3,1,,,,,,,,,,,,,,,,,,,,,,,,,,,,,,,,,,,,,,,,,
398315,001,2022-11-21_01h59.35.775,Info_measure_main_exp,2022.2.2,Win32,59.99880002,,,,,,,,,,,,,,,,,,masks/mask_003.jpg,,,,,,,,,,,,,,,,,,,,,,,,,,,,,,,,,,,,,,,,,,,,,,,0,1,1,2,1,,,,,,,,,,,,,,,,,,,,,,,,,,,,,,,,,,,,,,,,,
398315,001,2022-11-21_01h59.35.775,Info_measure_main_exp,2022.2.2,Win32,59.99880002,,,,,,,,,,,,,,,,,,masks/mask_001.jpg,,,,,,,,,,,,,,,,,,,,,,,,,,,,,,,,,,,,,,,,,,,,,,,0,2,2,0,1,,,,,,,,,,,,,,,,,,,,,,,,,,,,,,,,,,,,,,,,,
398315,001,2022-11-21_01h59.35.775,Info_measure_main_exp,2022.2.2,Win32,59.99880002,,,,,,,,,,,,,,,,,,masks/mask_002.jpg,,,,,,,,,,,,,,,,,,,,,,,,,,,,,,,,,,,,,,,,,,,,,,,0,3,3,1,1,,,,,,,,,,,,,,,,,,,,,,,,,,,,,,,,,,,,,,,,,
398315,001,2022-11-21_01h59.35.775,Info_measure_main_exp,2022.2.2,Win32,59.99880002,,,,,,,,,,,,,,,,,,masks/mask_005.jpg,,,,,,,,,,,,,,,,,,,,,,,,,,,,,,,,,,,,,,,,,,,,,,,0,4,4,4,1,,,,,,,,,,,,,,,,,,,,,,,,,,,,,,,,,,,,,,,,,
398315,001,2022-11-21_01h59.35.775,Info_measure_main_exp,2022.2.2,Win32,59.99880002,,,,,,,,,,,,,,,,,,,,,,,,,,,,,,7,1.2228,1,,,,,,,,,,,,0,131,5,5,2190,2082,absent_patch/patch0002190.jpg,absent_patch/patch0002082.jpg,,,,,,,,,,,,,,,,,,,0.062037079,0.119444423,1,0,0,response1disk,4,0.007407436,0.000925912,1,0,0,center_square,0,3,3,112,1,,,,,,,,,,,,,,,,,,,,,,,
398315,001,2022-11-21_01h59.35.775,Info_measure_main_exp,2022.2.2,Win32,59.99880002,,,,,,,,,,,,,,,,,,masks/mask_004.jpg,,,,,,,,,,,,,,,,,,,,,,,,,,,,,,,,,,,,,,,,,,0,0,0,3,1,,,,,,,,,,,,,,,,,,,,,,,,,,,,,,,,,,,,,,,,,,,,,,
398315,001,2022-11-21_01h59.35.775,Info_measure_main_exp,2022.2.2,Win32,59.99880002,,,,,,,,,,,,,,,,,,masks/mask_002.jpg,,,,,,,,,,,,,,,,,,,,,,,,,,,,,,,,,,,,,,,,,,0,1,1,1,1,,,,,,,,,,,,,,,,,,,,,,,,,,,,,,,,,,,,,,,,,,,,,,
398315,001,2022-11-21_01h59.35.775,Info_measure_main_exp,2022.2.2,Win32,59.99880002,,,,,,,,,,,,,,,,,,masks/mask_003.jpg,,,,,,,,,,,,,,,,,,,,,,,,,,,,,,,,,,,,,,,,,,0,2,2,2,1,,,,,,,,,,,,,,,,,,,,,,,,,,,,,,,,,,,,,,,,,,,,,,
398315,001,2022-11-21_01h59.35.775,Info_measure_main_exp,2022.2.2,Win32,59.99880002,,,,,,,,,,,,,,,,,,masks/mask_001.jpg,,,,,,,,,,,,,,,,,,,,,,,,,,,,,,,,,,,,,,,,,,0,3,3,0,1,,,,,,,,,,,,,,,,,,,,,,,,,,,,,,,,,,,,,,,,,,,,,,
398315,001,2022-11-21_01h59.35.775,Info_measure_main_exp,2022.2.2,Win32,59.99880002,,,,,,,,,,,,,,,,,,masks/mask_005.jpg,,,,,,,,,,,,,,,,,,,,,,,,,,,,,,,,,,,,,,,,,,0,4,4,4,1,,,,,,,,,,,,,,,,,,,,,,,,,,,,,,,,,,,,,,,,,,,,,,
398315,001,2022-11-21_01h59.35.775,Info_measure_main_exp,2022.2.2,Win32,59.99880002,,,,,,,,,,,,,,,,,,masks/mask_002.jpg,,,,,,,,,,,,,,,,,,,,,,,,,,,,,,,,,,,,,,,,,,,,,,,0,0,0,1,1,,,,,,,,,,,,,,,,,,,,,,,,,,,,,,,,,,,,,,,,,
398315,001,2022-11-21_01h59.35.775,Info_measure_main_exp,2022.2.2,Win32,59.99880002,,,,,,,,,,,,,,,,,,masks/mask_003.jpg,,,,,,,,,,,,,,,,,,,,,,,,,,,,,,,,,,,,,,,,,,,,,,,0,1,1,2,1,,,,,,,,,,,,,,,,,,,,,,,,,,,,,,,,,,,,,,,,,
398315,001,2022-11-21_01h59.35.775,Info_measure_main_exp,2022.2.2,Win32,59.99880002,,,,,,,,,,,,,,,,,,masks/mask_001.jpg,,,,,,,,,,,,,,,,,,,,,,,,,,,,,,,,,,,,,,,,,,,,,,,0,2,2,0,1,,,,,,,,,,,,,,,,,,,,,,,,,,,,,,,,,,,,,,,,,
398315,001,2022-11-21_01h59.35.775,Info_measure_main_exp,2022.2.2,Win32,59.99880002,,,,,,,,,,,,,,,,,,masks/mask_005.jpg,,,,,,,,,,,,,,,,,,,,,,,,,,,,,,,,,,,,,,,,,,,,,,,0,3,3,4,1,,,,,,,,,,,,,,,,,,,,,,,,,,,,,,,,,,,,,,,,,
398315,001,2022-11-21_01h59.35.775,Info_measure_main_exp,2022.2.2,Win32,59.99880002,,,,,,,,,,,,,,,,,,masks/mask_004.jpg,,,,,,,,,,,,,,,,,,,,,,,,,,,,,,,,,,,,,,,,,,,,,,,0,4,4,3,1,,,,,,,,,,,,,,,,,,,,,,,,,,,,,,,,,,,,,,,,,
398315,001,2022-11-21_01h59.35.775,Info_measure_main_exp,2022.2.2,Win32,59.99880002,,,,,,,,,,,,,,,,,,,,,,,,,,,,,,2,1.6814,1,,,,,,,,,,,,0,131,5,5,2250,2298,absent_patch/patch0002250.jpg,absent_patch/patch0002298.jpg,,,,,,,,,,,,,,,,,,,-0.051851838,-0.023148148,1,0,0,response5disk,5,-0.008333347,0.008333312,1,0,0,center_square,0,4,4,59,1,,,,,,,,,,,,,,,,,,,,,,,
398315,001,2022-11-21_01h59.35.775,Info_measure_main_exp,2022.2.2,Win32,59.99880002,,,,,,,,,,,,,,,,,,masks/mask_004.jpg,,,,,,,,,,,,,,,,,,,,,,,,,,,,,,,,,,,,,,,,,,0,0,0,3,1,,,,,,,,,,,,,,,,,,,,,,,,,,,,,,,,,,,,,,,,,,,,,,
398315,001,2022-11-21_01h59.35.775,Info_measure_main_exp,2022.2.2,Win32,59.99880002,,,,,,,,,,,,,,,,,,masks/mask_005.jpg,,,,,,,,,,,,,,,,,,,,,,,,,,,,,,,,,,,,,,,,,,0,1,1,4,1,,,,,,,,,,,,,,,,,,,,,,,,,,,,,,,,,,,,,,,,,,,,,,
398315,001,2022-11-21_01h59.35.775,Info_measure_main_exp,2022.2.2,Win32,59.99880002,,,,,,,,,,,,,,,,,,masks/mask_002.jpg,,,,,,,,,,,,,,,,,,,,,,,,,,,,,,,,,,,,,,,,,,0,2,2,1,1,,,,,,,,,,,,,,,,,,,,,,,,,,,,,,,,,,,,,,,,,,,,,,
398315,001,2022-11-21_01h59.35.775,Info_measure_main_exp,2022.2.2,Win32,59.99880002,,,,,,,,,,,,,,,,,,masks/mask_001.jpg,,,,,,,,,,,,,,,,,,,,,,,,,,,,,,,,,,,,,,,,,,0,3,3,0,1,,,,,,,,,,,,,,,,,,,,,,,,,,,,,,,,,,,,,,,,,,,,,,
398315,001,2022-11-21_01h59.35.775,Info_measure_main_exp,2022.2.2,Win32,59.99880002,,,,,,,,,,,,,,,,,,masks/mask_003.jpg,,,,,,,,,,,,,,,,,,,,,,,,,,,,,,,,,,,,,,,,,,0,4,4,2,1,,,,,,,,,,,,,,,,,,,,,,,,,,,,,,,,,,,,,,,,,,,,,,
398315,001,2022-11-21_01h59.35.775,Info_measure_main_exp,2022.2.2,Win32,59.99880002,,,,,,,,,,,,,,,,,,masks/mask_001.jpg,,,,,,,,,,,,,,,,,,,,,,,,,,,,,,,,,,,,,,,,,,,,,,,0,0,0,0,1,,,,,,,,,,,,,,,,,,,,,,,,,,,,,,,,,,,,,,,,,
398315,001,2022-11-21_01h59.35.775,Info_measure_main_exp,2022.2.2,Win32,59.99880002,,,,,,,,,,,,,,,,,,masks/mask_002.jpg,,,,,,,,,,,,,,,,,,,,,,,,,,,,,,,,,,,,,,,,,,,,,,,0,1,1,1,1,,,,,,,,,,,,,,,,,,,,,,,,,,,,,,,,,,,,,,,,,
398315,001,2022-11-21_01h59.35.775,Info_measure_main_exp,2022.2.2,Win32,59.99880002,,,,,,,,,,,,,,,,,,masks/mask_005.jpg,,,,,,,,,,,,,,,,,,,,,,,,,,,,,,,,,,,,,,,,,,,,,,,0,2,2,4,1,,,,,,,,,,,,,,,,,,,,,,,,,,,,,,,,,,,,,,,,,
398315,001,2022-11-21_01h59.35.775,Info_measure_main_exp,2022.2.2,Win32,59.99880002,,,,,,,,,,,,,,,,,,masks/mask_004.jpg,,,,,,,,,,,,,,,,,,,,,,,,,,,,,,,,,,,,,,,,,,,,,,,0,3,3,3,1,,,,,,,,,,,,,,,,,,,,,,,,,,,,,,,,,,,,,,,,,
398315,001,2022-11-21_01h59.35.775,Info_measure_main_exp,2022.2.2,Win32,59.99880002,,,,,,,,,,,,,,,,,,masks/mask_003.jpg,,,,,,,,,,,,,,,,,,,,,,,,,,,,,,,,,,,,,,,,,,,,,,,0,4,4,2,1,,,,,,,,,,,,,,,,,,,,,,,,,,,,,,,,,,,,,,,,,
398315,001,2022-11-21_01h59.35.775,Info_measure_main_exp,2022.2.2,Win32,59.99880002,,,,,,,,,,,,,,,,,,,,,,,,,,,,,,7,2.177,1,,,,,,,,,,,,0,131,5,5,2082,2178,absent_patch/patch0002082.jpg,absent_patch/patch0002178.jpg,,,,,,,,,,,,,,,,,,,0.017592607,0.092592593,1,0,0,response1disk,6,0.00462963,0,1,0,0,center_square,0,5,5,2,1,,,,,,,,,,,,,,,,,,,,,,,
398315,001,2022-11-21_01h59.35.775,Info_measure_main_exp,2022.2.2,Win32,59.99880002,,,,,,,,,,,,,,,,,,masks/mask_002.jpg,,,,,,,,,,,,,,,,,,,,,,,,,,,,,,,,,,,,,,,,,,0,0,0,1,1,,,,,,,,,,,,,,,,,,,,,,,,,,,,,,,,,,,,,,,,,,,,,,
398315,001,2022-11-21_01h59.35.775,Info_measure_main_exp,2022.2.2,Win32,59.99880002,,,,,,,,,,,,,,,,,,masks/mask_003.jpg,,,,,,,,,,,,,,,,,,,,,,,,,,,,,,,,,,,,,,,,,,0,1,1,2,1,,,,,,,,,,,,,,,,,,,,,,,,,,,,,,,,,,,,,,,,,,,,,,
398315,001,2022-11-21_01h59.35.775,Info_measure_main_exp,2022.2.2,Win32,59.99880002,,,,,,,,,,,,,,,,,,masks/mask_001.jpg,,,,,,,,,,,,,,,,,,,,,,,,,,,,,,,,,,,,,,,,,,0,2,2,0,1,,,,,,,,,,,,,,,,,,,,,,,,,,,,,,,,,,,,,,,,,,,,,,
398315,001,2022-11-21_01h59.35.775,Info_measure_main_exp,2022.2.2,Win32,59.99880002,,,,,,,,,,,,,,,,,,masks/mask_004.jpg,,,,,,,,,,,,,,,,,,,,,,,,,,,,,,,,,,,,,,,,,,0,3,3,3,1,,,,,,,,,,,,,,,,,,,,,,,,,,,,,,,,,,,,,,,,,,,,,,
398315,001,2022-11-21_01h59.35.775,Info_measure_main_exp,2022.2.2,Win32,59.99880002,,,,,,,,,,,,,,,,,,masks/mask_005.jpg,,,,,,,,,,,,,,,,,,,,,,,,,,,,,,,,,,,,,,,,,,0,4,4,4,1,,,,,,,,,,,,,,,,,,,,,,,,,,,,,,,,,,,,,,,,,,,,,,
398315,001,2022-11-21_01h59.35.775,Info_measure_main_exp,2022.2.2,Win32,59.99880002,,,,,,,,,,,,,,,,,,masks/mask_003.jpg,,,,,,,,,,,,,,,,,,,,,,,,,,,,,,,,,,,,,,,,,,,,,,,0,0,0,2,1,,,,,,,,,,,,,,,,,,,,,,,,,,,,,,,,,,,,,,,,,
398315,001,2022-11-21_01h59.35.775,Info_measure_main_exp,2022.2.2,Win32,59.99880002,,,,,,,,,,,,,,,,,,masks/mask_002.jpg,,,,,,,,,,,,,,,,,,,,,,,,,,,,,,,,,,,,,,,,,,,,,,,0,1,1,1,1,,,,,,,,,,,,,,,,,,,,,,,,,,,,,,,,,,,,,,,,,
398315,001,2022-11-21_01h59.35.775,Info_measure_main_exp,2022.2.2,Win32,59.99880002,,,,,,,,,,,,,,,,,,masks/mask_004.jpg,,,,,,,,,,,,,,,,,,,,,,,,,,,,,,,,,,,,,,,,,,,,,,,0,2,2,3,1,,,,,,,,,,,,,,,,,,,,,,,,,,,,,,,,,,,,,,,,,
398315,001,2022-11-21_01h59.35.775,Info_measure_main_exp,2022.2.2,Win32,59.99880002,,,,,,,,,,,,,,,,,,masks/mask_001.jpg,,,,,,,,,,,,,,,,,,,,,,,,,,,,,,,,,,,,,,,,,,,,,,,0,3,3,0,1,,,,,,,,,,,,,,,,,,,,,,,,,,,,,,,,,,,,,,,,,
398315,001,2022-11-21_01h59.35.775,Info_measure_main_exp,2022.2.2,Win32,59.99880002,,,,,,,,,,,,,,,,,,masks/mask_005.jpg,,,,,,,,,,,,,,,,,,,,,,,,,,,,,,,,,,,,,,,,,,,,,,,0,4,4,4,1,,,,,,,,,,,,,,,,,,,,,,,,,,,,,,,,,,,,,,,,,
398315,001,2022-11-21_01h59.35.775,Info_measure_main_exp,2022.2.2,Win32,59.99880002,,,,,,,,,,,,,,,,,,,,,,,,,,,,,,7,1.0664,1,,,,,,,,,,,,0,131,5,5,2214,1986,absent_patch/patch0002214.jpg,absent_patch/patch0001986.jpg,,,,,,,,,,,,,,,,,,,0.011111153,0.072222215,1,0,0,response1disk,7,-0.002777735,0.01203703,1,0,0,center_square,0,6,6,34,1,,,,,,,,,,,,,,,,,,,,,,,
398315,001,2022-11-21_01h59.35.775,Info_measure_main_exp,2022.2.2,Win32,59.99880002,,,,,,,,,,,,,,,,,,masks/mask_004.jpg,,,,,,,,,,,,,,,,,,,,,,,,,,,,,,,,,,,,,,,,,,0,0,0,3,1,,,,,,,,,,,,,,,,,,,,,,,,,,,,,,,,,,,,,,,,,,,,,,
398315,001,2022-11-21_01h59.35.775,Info_measure_main_exp,2022.2.2,Win32,59.99880002,,,,,,,,,,,,,,,,,,masks/mask_002.jpg,,,,,,,,,,,,,,,,,,,,,,,,,,,,,,,,,,,,,,,,,,0,1,1,1,1,,,,,,,,,,,,,,,,,,,,,,,,,,,,,,,,,,,,,,,,,,,,,,
398315,001,2022-11-21_01h59.35.775,Info_measure_main_exp,2022.2.2,Win32,59.99880002,,,,,,,,,,,,,,,,,,masks/mask_003.jpg,,,,,,,,,,,,,,,,,,,,,,,,,,,,,,,,,,,,,,,,,,0,2,2,2,1,,,,,,,,,,,,,,,,,,,,,,,,,,,,,,,,,,,,,,,,,,,,,,
398315,001,2022-11-21_01h59.35.775,Info_measure_main_exp,2022.2.2,Win32,59.99880002,,,,,,,,,,,,,,,,,,masks/mask_001.jpg,,,,,,,,,,,,,,,,,,,,,,,,,,,,,,,,,,,,,,,,,,0,3,3,0,1,,,,,,,,,,,,,,,,,,,,,,,,,,,,,,,,,,,,,,,,,,,,,,
398315,001,2022-11-21_01h59.35.775,Info_measure_main_exp,2022.2.2,Win32,59.99880002,,,,,,,,,,,,,,,,,,masks/mask_005.jpg,,,,,,,,,,,,,,,,,,,,,,,,,,,,,,,,,,,,,,,,,,0,4,4,4,1,,,,,,,,,,,,,,,,,,,,,,,,,,,,,,,,,,,,,,,,,,,,,,
398315,001,2022-11-21_01h59.35.775,Info_measure_main_exp,2022.2.2,Win32,59.99880002,,,,,,,,,,,,,,,,,,masks/mask_002.jpg,,,,,,,,,,,,,,,,,,,,,,,,,,,,,,,,,,,,,,,,,,,,,,,0,0,0,1,1,,,,,,,,,,,,,,,,,,,,,,,,,,,,,,,,,,,,,,,,,
398315,001,2022-11-21_01h59.35.775,Info_measure_main_exp,2022.2.2,Win32,59.99880002,,,,,,,,,,,,,,,,,,masks/mask_004.jpg,,,,,,,,,,,,,,,,,,,,,,,,,,,,,,,,,,,,,,,,,,,,,,,0,1,1,3,1,,,,,,,,,,,,,,,,,,,,,,,,,,,,,,,,,,,,,,,,,
398315,001,2022-11-21_01h59.35.775,Info_measure_main_exp,2022.2.2,Win32,59.99880002,,,,,,,,,,,,,,,,,,masks/mask_001.jpg,,,,,,,,,,,,,,,,,,,,,,,,,,,,,,,,,,,,,,,,,,,,,,,0,2,2,0,1,,,,,,,,,,,,,,,,,,,,,,,,,,,,,,,,,,,,,,,,,
398315,001,2022-11-21_01h59.35.775,Info_measure_main_exp,2022.2.2,Win32,59.99880002,,,,,,,,,,,,,,,,,,masks/mask_003.jpg,,,,,,,,,,,,,,,,,,,,,,,,,,,,,,,,,,,,,,,,,,,,,,,0,3,3,2,1,,,,,,,,,,,,,,,,,,,,,,,,,,,,,,,,,,,,,,,,,
398315,001,2022-11-21_01h59.35.775,Info_measure_main_exp,2022.2.2,Win32,59.99880002,,,,,,,,,,,,,,,,,,masks/mask_005.jpg,,,,,,,,,,,,,,,,,,,,,,,,,,,,,,,,,,,,,,,,,,,,,,,0,4,4,4,1,,,,,,,,,,,,,,,,,,,,,,,,,,,,,,,,,,,,,,,,,
398315,001,2022-11-21_01h59.35.775,Info_measure_main_exp,2022.2.2,Win32,59.99880002,,,,,,,,,,,,,,,,,,,,,,,,,,,,,,5,1.5308,1,,,,,,,,,,,,0,131,5,5,2082,2154,absent_patch/patch0002082.jpg,absent_patch/patch0002154.jpg,,,,,,,,,,,,,,,,,,,0.084259245,-0.047222243,1,0,0,response3disk,8,0,0.003703683,1,0,0,center_square,0,7,7,33,1,,,,,,,,,,,,,,,,,,,,,,,
398315,001,2022-11-21_01h59.35.775,Info_measure_main_exp,2022.2.2,Win32,59.99880002,,,,,,,,,,,,,,,,,,masks/mask_001.jpg,,,,,,,,,,,,,,,,,,,,,,,,,,,,,,,,,,,,,,,,,,0,0,0,0,1,,,,,,,,,,,,,,,,,,,,,,,,,,,,,,,,,,,,,,,,,,,,,,
398315,001,2022-11-21_01h59.35.775,Info_measure_main_exp,2022.2.2,Win32,59.99880002,,,,,,,,,,,,,,,,,,masks/mask_003.jpg,,,,,,,,,,,,,,,,,,,,,,,,,,,,,,,,,,,,,,,,,,0,1,1,2,1,,,,,,,,,,,,,,,,,,,,,,,,,,,,,,,,,,,,,,,,,,,,,,
398315,001,2022-11-21_01h59.35.775,Info_measure_main_exp,2022.2.2,Win32,59.99880002,,,,,,,,,,,,,,,,,,masks/mask_005.jpg,,,,,,,,,,,,,,,,,,,,,,,,,,,,,,,,,,,,,,,,,,0,2,2,4,1,,,,,,,,,,,,,,,,,,,,,,,,,,,,,,,,,,,,,,,,,,,,,,
398315,001,2022-11-21_01h59.35.775,Info_measure_main_exp,2022.2.2,Win32,59.99880002,,,,,,,,,,,,,,,,,,masks/mask_004.jpg,,,,,,,,,,,,,,,,,,,,,,,,,,,,,,,,,,,,,,,,,,0,3,3,3,1,,,,,,,,,,,,,,,,,,,,,,,,,,,,,,,,,,,,,,,,,,,,,,
398315,001,2022-11-21_01h59.35.775,Info_measure_main_exp,2022.2.2,Win32,59.99880002,,,,,,,,,,,,,,,,,,masks/mask_002.jpg,,,,,,,,,,,,,,,,,,,,,,,,,,,,,,,,,,,,,,,,,,0,4,4,1,1,,,,,,,,,,,,,,,,,,,,,,,,,,,,,,,,,,,,,,,,,,,,,,
398315,001,2022-11-21_01h59.35.775,Info_measure_main_exp,2022.2.2,Win32,59.99880002,,,,,,,,,,,,,,,,,,masks/mask_002.jpg,,,,,,,,,,,,,,,,,,,,,,,,,,,,,,,,,,,,,,,,,,,,,,,0,0,0,1,1,,,,,,,,,,,,,,,,,,,,,,,,,,,,,,,,,,,,,,,,,
398315,001,2022-11-21_01h59.35.775,Info_measure_main_exp,2022.2.2,Win32,59.99880002,,,,,,,,,,,,,,,,,,masks/mask_001.jpg,,,,,,,,,,,,,,,,,,,,,,,,,,,,,,,,,,,,,,,,,,,,,,,0,1,1,0,1,,,,,,,,,,,,,,,,,,,,,,,,,,,,,,,,,,,,,,,,,
398315,001,2022-11-21_01h59.35.775,Info_measure_main_exp,2022.2.2,Win32,59.99880002,,,,,,,,,,,,,,,,,,masks/mask_003.jpg,,,,,,,,,,,,,,,,,,,,,,,,,,,,,,,,,,,,,,,,,,,,,,,0,2,2,2,1,,,,,,,,,,,,,,,,,,,,,,,,,,,,,,,,,,,,,,,,,
398315,001,2022-11-21_01h59.35.775,Info_measure_main_exp,2022.2.2,Win32,59.99880002,,,,,,,,,,,,,,,,,,masks/mask_005.jpg,,,,,,,,,,,,,,,,,,,,,,,,,,,,,,,,,,,,,,,,,,,,,,,0,3,3,4,1,,,,,,,,,,,,,,,,,,,,,,,,,,,,,,,,,,,,,,,,,
398315,001,2022-11-21_01h59.35.775,Info_measure_main_exp,2022.2.2,Win32,59.99880002,,,,,,,,,,,,,,,,,,masks/mask_004.jpg,,,,,,,,,,,,,,,,,,,,,,,,,,,,,,,,,,,,,,,,,,,,,,,0,4,4,3,1,,,,,,,,,,,,,,,,,,,,,,,,,,,,,,,,,,,,,,,,,
398315,001,2022-11-21_01h59.35.775,Info_measure_main_exp,2022.2.2,Win32,59.99880002,,,,,,,,,,,,,,,,,,,,,,,,,,,,,,3,2.1878,1,,,,,,,,,,,,0,131,5,5,2298,2214,absent_patch/patch0002298.jpg,absent_patch/patch0002214.jpg,,,,,,,,,,,,,,,,,,,-0.029629601,-0.117592635,1,0,0,response5disk,9,0.00462963,-0.002777771,1,0,0,center_square,0,8,8,99,1,,,,,,,,,,,,,,,,,,,,,,,
398315,001,2022-11-21_01h59.35.775,Info_measure_main_exp,2022.2.2,Win32,59.99880002,,,,,,,,,,,,,,,,,,masks/mask_005.jpg,,,,,,,,,,,,,,,,,,,,,,,,,,,,,,,,,,,,,,,,,,0,0,0,4,1,,,,,,,,,,,,,,,,,,,,,,,,,,,,,,,,,,,,,,,,,,,,,,
398315,001,2022-11-21_01h59.35.775,Info_measure_main_exp,2022.2.2,Win32,59.99880002,,,,,,,,,,,,,,,,,,masks/mask_001.jpg,,,,,,,,,,,,,,,,,,,,,,,,,,,,,,,,,,,,,,,,,,0,1,1,0,1,,,,,,,,,,,,,,,,,,,,,,,,,,,,,,,,,,,,,,,,,,,,,,
398315,001,2022-11-21_01h59.35.775,Info_measure_main_exp,2022.2.2,Win32,59.99880002,,,,,,,,,,,,,,,,,,masks/mask_002.jpg,,,,,,,,,,,,,,,,,,,,,,,,,,,,,,,,,,,,,,,,,,0,2,2,1,1,,,,,,,,,,,,,,,,,,,,,,,,,,,,,,,,,,,,,,,,,,,,,,
398315,001,2022-11-21_01h59.35.775,Info_measure_main_exp,2022.2.2,Win32,59.99880002,,,,,,,,,,,,,,,,,,masks/mask_003.jpg,,,,,,,,,,,,,,,,,,,,,,,,,,,,,,,,,,,,,,,,,,0,3,3,2,1,,,,,,,,,,,,,,,,,,,,,,,,,,,,,,,,,,,,,,,,,,,,,,
398315,001,2022-11-21_01h59.35.775,Info_measure_main_exp,2022.2.2,Win32,59.99880002,,,,,,,,,,,,,,,,,,masks/mask_004.jpg,,,,,,,,,,,,,,,,,,,,,,,,,,,,,,,,,,,,,,,,,,0,4,4,3,1,,,,,,,,,,,,,,,,,,,,,,,,,,,,,,,,,,,,,,,,,,,,,,
398315,001,2022-11-21_01h59.35.775,Info_measure_main_exp,2022.2.2,Win32,59.99880002,,,,,,,,,,,,,,,,,,masks/mask_004.jpg,,,,,,,,,,,,,,,,,,,,,,,,,,,,,,,,,,,,,,,,,,,,,,,0,0,0,3,1,,,,,,,,,,,,,,,,,,,,,,,,,,,,,,,,,,,,,,,,,
398315,001,2022-11-21_01h59.35.775,Info_measure_main_exp,2022.2.2,Win32,59.99880002,,,,,,,,,,,,,,,,,,masks/mask_003.jpg,,,,,,,,,,,,,,,,,,,,,,,,,,,,,,,,,,,,,,,,,,,,,,,0,1,1,2,1,,,,,,,,,,,,,,,,,,,,,,,,,,,,,,,,,,,,,,,,,
398315,001,2022-11-21_01h59.35.775,Info_measure_main_exp,2022.2.2,Win32,59.99880002,,,,,,,,,,,,,,,,,,masks/mask_002.jpg,,,,,,,,,,,,,,,,,,,,,,,,,,,,,,,,,,,,,,,,,,,,,,,0,2,2,1,1,,,,,,,,,,,,,,,,,,,,,,,,,,,,,,,,,,,,,,,,,
398315,001,2022-11-21_01h59.35.775,Info_measure_main_exp,2022.2.2,Win32,59.99880002,,,,,,,,,,,,,,,,,,masks/mask_005.jpg,,,,,,,,,,,,,,,,,,,,,,,,,,,,,,,,,,,,,,,,,,,,,,,0,3,3,4,1,,,,,,,,,,,,,,,,,,,,,,,,,,,,,,,,,,,,,,,,,
398315,001,2022-11-21_01h59.35.775,Info_measure_main_exp,2022.2.2,Win32,59.99880002,,,,,,,,,,,,,,,,,,masks/mask_001.jpg,,,,,,,,,,,,,,,,,,,,,,,,,,,,,,,,,,,,,,,,,,,,,,,0,4,4,0,1,,,,,,,,,,,,,,,,,,,,,,,,,,,,,,,,,,,,,,,,,
398315,001,2022-11-21_01h59.35.775,Info_measure_main_exp,2022.2.2,Win32,59.99880002,,,,,,,,,,,,,,,,,,,,,,,,,,,,,,2,1.3359,1,,,,,,,,,,,,1,131,5,5,2238,1,absent_patch/patch0002238.jpg,present_patch/cong_131_5_a.jpg,,,,,,,,,,,,,,,,,,,-0.099074046,-0.01666666,1,0,0,response5disk,10,-0.012036995,0.014814801,1,0,0,center_square,0,9,9,104,1,,,,,,,,,,,,,,,,,,,,,,,
398315,001,2022-11-21_01h59.35.775,Info_measure_main_exp,2022.2.2,Win32,59.99880002,,,,,,,,,,,,,,,,,,masks/mask_003.jpg,,,,,,,,,,,,,,,,,,,,,,,,,,,,,,,,,,,,,,,,,,0,0,0,2,1,,,,,,,,,,,,,,,,,,,,,,,,,,,,,,,,,,,,,,,,,,,,,,
398315,001,2022-11-21_01h59.35.775,Info_measure_main_exp,2022.2.2,Win32,59.99880002,,,,,,,,,,,,,,,,,,masks/mask_002.jpg,,,,,,,,,,,,,,,,,,,,,,,,,,,,,,,,,,,,,,,,,,0,1,1,1,1,,,,,,,,,,,,,,,,,,,,,,,,,,,,,,,,,,,,,,,,,,,,,,
398315,001,2022-11-21_01h59.35.775,Info_measure_main_exp,2022.2.2,Win32,59.99880002,,,,,,,,,,,,,,,,,,masks/mask_004.jpg,,,,,,,,,,,,,,,,,,,,,,,,,,,,,,,,,,,,,,,,,,0,2,2,3,1,,,,,,,,,,,,,,,,,,,,,,,,,,,,,,,,,,,,,,,,,,,,,,
398315,001,2022-11-21_01h59.35.775,Info_measure_main_exp,2022.2.2,Win32,59.99880002,,,,,,,,,,,,,,,,,,masks/mask_001.jpg,,,,,,,,,,,,,,,,,,,,,,,,,,,,,,,,,,,,,,,,,,0,3,3,0,1,,,,,,,,,,,,,,,,,,,,,,,,,,,,,,,,,,,,,,,,,,,,,,
398315,001,2022-11-21_01h59.35.775,Info_measure_main_exp,2022.2.2,Win32,59.99880002,,,,,,,,,,,,,,,,,,masks/mask_005.jpg,,,,,,,,,,,,,,,,,,,,,,,,,,,,,,,,,,,,,,,,,,0,4,4,4,1,,,,,,,,,,,,,,,,,,,,,,,,,,,,,,,,,,,,,,,,,,,,,,
398315,001,2022-11-21_01h59.35.775,Info_measure_main_exp,2022.2.2,Win32,59.99880002,,,,,,,,,,,,,,,,,,masks/mask_003.jpg,,,,,,,,,,,,,,,,,,,,,,,,,,,,,,,,,,,,,,,,,,,,,,,0,0,0,2,1,,,,,,,,,,,,,,,,,,,,,,,,,,,,,,,,,,,,,,,,,
398315,001,2022-11-21_01h59.35.775,Info_measure_main_exp,2022.2.2,Win32,59.99880002,,,,,,,,,,,,,,,,,,masks/mask_001.jpg,,,,,,,,,,,,,,,,,,,,,,,,,,,,,,,,,,,,,,,,,,,,,,,0,1,1,0,1,,,,,,,,,,,,,,,,,,,,,,,,,,,,,,,,,,,,,,,,,
398315,001,2022-11-21_01h59.35.775,Info_measure_main_exp,2022.2.2,Win32,59.99880002,,,,,,,,,,,,,,,,,,masks/mask_002.jpg,,,,,,,,,,,,,,,,,,,,,,,,,,,,,,,,,,,,,,,,,,,,,,,0,2,2,1,1,,,,,,,,,,,,,,,,,,,,,,,,,,,,,,,,,,,,,,,,,
398315,001,2022-11-21_01h59.35.775,Info_measure_main_exp,2022.2.2,Win32,59.99880002,,,,,,,,,,,,,,,,,,masks/mask_005.jpg,,,,,,,,,,,,,,,,,,,,,,,,,,,,,,,,,,,,,,,,,,,,,,,0,3,3,4,1,,,,,,,,,,,,,,,,,,,,,,,,,,,,,,,,,,,,,,,,,
398315,001,2022-11-21_01h59.35.775,Info_measure_main_exp,2022.2.2,Win32,59.99880002,,,,,,,,,,,,,,,,,,masks/mask_004.jpg,,,,,,,,,,,,,,,,,,,,,,,,,,,,,,,,,,,,,,,,,,,,,,,0,4,4,3,1,,,,,,,,,,,,,,,,,,,,,,,,,,,,,,,,,,,,,,,,,
398315,001,2022-11-21_01h59.35.775,Info_measure_main_exp,2022.2.2,Win32,59.99880002,,,,,,,,,,,,,,,,,,,,,,,,,,,,,,2,1.1941,1,,,,,,,,,,,,1,131,5,5,1,2274,present_patch/cong_131_5_a.jpg,absent_patch/patch0002274.jpg,,,,,,,,,,,,,,,,,,,-0.082407422,-0.01203703,1,0,0,response5disk,11,-0.009259259,0.006481489,1,0,0,center_square,0,10,10,105,1,,,,,,,,,,,,,,,,,,,,,,,
398315,001,2022-11-21_01h59.35.775,Info_measure_main_exp,2022.2.2,Win32,59.99880002,,,,,,,,,,,,,,,,,,masks/mask_005.jpg,,,,,,,,,,,,,,,,,,,,,,,,,,,,,,,,,,,,,,,,,,0,0,0,4,1,,,,,,,,,,,,,,,,,,,,,,,,,,,,,,,,,,,,,,,,,,,,,,
398315,001,2022-11-21_01h59.35.775,Info_measure_main_exp,2022.2.2,Win32,59.99880002,,,,,,,,,,,,,,,,,,masks/mask_001.jpg,,,,,,,,,,,,,,,,,,,,,,,,,,,,,,,,,,,,,,,,,,0,1,1,0,1,,,,,,,,,,,,,,,,,,,,,,,,,,,,,,,,,,,,,,,,,,,,,,
398315,001,2022-11-21_01h59.35.775,Info_measure_main_exp,2022.2.2,Win32,59.99880002,,,,,,,,,,,,,,,,,,masks/mask_002.jpg,,,,,,,,,,,,,,,,,,,,,,,,,,,,,,,,,,,,,,,,,,0,2,2,1,1,,,,,,,,,,,,,,,,,,,,,,,,,,,,,,,,,,,,,,,,,,,,,,
398315,001,2022-11-21_01h59.35.775,Info_measure_main_exp,2022.2.2,Win32,59.99880002,,,,,,,,,,,,,,,,,,masks/mask_003.jpg,,,,,,,,,,,,,,,,,,,,,,,,,,,,,,,,,,,,,,,,,,0,3,3,2,1,,,,,,,,,,,,,,,,,,,,,,,,,,,,,,,,,,,,,,,,,,,,,,
398315,001,2022-11-21_01h59.35.775,Info_measure_main_exp,2022.2.2,Win32,59.99880002,,,,,,,,,,,,,,,,,,masks/mask_004.jpg,,,,,,,,,,,,,,,,,,,,,,,,,,,,,,,,,,,,,,,,,,0,4,4,3,1,,,,,,,,,,,,,,,,,,,,,,,,,,,,,,,,,,,,,,,,,,,,,,
398315,001,2022-11-21_01h59.35.775,Info_measure_main_exp,2022.2.2,Win32,59.99880002,,,,,,,,,,,,,,,,,,masks/mask_003.jpg,,,,,,,,,,,,,,,,,,,,,,,,,,,,,,,,,,,,,,,,,,,,,,,0,0,0,2,1,,,,,,,,,,,,,,,,,,,,,,,,,,,,,,,,,,,,,,,,,
398315,001,2022-11-21_01h59.35.775,Info_measure_main_exp,2022.2.2,Win32,59.99880002,,,,,,,,,,,,,,,,,,masks/mask_002.jpg,,,,,,,,,,,,,,,,,,,,,,,,,,,,,,,,,,,,,,,,,,,,,,,0,1,1,1,1,,,,,,,,,,,,,,,,,,,,,,,,,,,,,,,,,,,,,,,,,
398315,001,2022-11-21_01h59.35.775,Info_measure_main_exp,2022.2.2,Win32,59.99880002,,,,,,,,,,,,,,,,,,masks/mask_005.jpg,,,,,,,,,,,,,,,,,,,,,,,,,,,,,,,,,,,,,,,,,,,,,,,0,2,2,4,1,,,,,,,,,,,,,,,,,,,,,,,,,,,,,,,,,,,,,,,,,
398315,001,2022-11-21_01h59.35.775,Info_measure_main_exp,2022.2.2,Win32,59.99880002,,,,,,,,,,,,,,,,,,masks/mask_001.jpg,,,,,,,,,,,,,,,,,,,,,,,,,,,,,,,,,,,,,,,,,,,,,,,0,3,3,0,1,,,,,,,,,,,,,,,,,,,,,,,,,,,,,,,,,,,,,,,,,
398315,001,2022-11-21_01h59.35.775,Info_measure_main_exp,2022.2.2,Win32,59.99880002,,,,,,,,,,,,,,,,,,masks/mask_004.jpg,,,,,,,,,,,,,,,,,,,,,,,,,,,,,,,,,,,,,,,,,,,,,,,0,4,4,3,1,,,,,,,,,,,,,,,,,,,,,,,,,,,,,,,,,,,,,,,,,
398315,001,2022-11-21_01h59.35.775,Info_measure_main_exp,2022.2.2,Win32,59.99880002,,,,,,,,,,,,,,,,,,,,,,,,,,,,,,7,1.5497,1,,,,,,,,,,,,0,131,5,5,1950,2238,absent_patch/patch0001950.jpg,absent_patch/patch0002238.jpg,,,,,,,,,,,,,,,,,,,0.02407406,0.080555563,1,0,0,response1disk,12,-0.000925912,0.012962942,1,0,0,center_square,0,11,11,8,1,,,,,,,,,,,,,,,,,,,,,,,
398315,001,2022-11-21_01h59.35.775,Info_measure_main_exp,2022.2.2,Win32,59.99880002,,,,,,,,,,,,,,,,,,masks/mask_003.jpg,,,,,,,,,,,,,,,,,,,,,,,,,,,,,,,,,,,,,,,,,,0,0,0,2,1,,,,,,,,,,,,,,,,,,,,,,,,,,,,,,,,,,,,,,,,,,,,,,
398315,001,2022-11-21_01h59.35.775,Info_measure_main_exp,2022.2.2,Win32,59.99880002,,,,,,,,,,,,,,,,,,masks/mask_005.jpg,,,,,,,,,,,,,,,,,,,,,,,,,,,,,,,,,,,,,,,,,,0,1,1,4,1,,,,,,,,,,,,,,,,,,,,,,,,,,,,,,,,,,,,,,,,,,,,,,
398315,001,2022-11-21_01h59.35.775,Info_measure_main_exp,2022.2.2,Win32,59.99880002,,,,,,,,,,,,,,,,,,masks/mask_004.jpg,,,,,,,,,,,,,,,,,,,,,,,,,,,,,,,,,,,,,,,,,,0,2,2,3,1,,,,,,,,,,,,,,,,,,,,,,,,,,,,,,,,,,,,,,,,,,,,,,
398315,001,2022-11-21_01h59.35.775,Info_measure_main_exp,2022.2.2,Win32,59.99880002,,,,,,,,,,,,,,,,,,masks/mask_001.jpg,,,,,,,,,,,,,,,,,,,,,,,,,,,,,,,,,,,,,,,,,,0,3,3,0,1,,,,,,,,,,,,,,,,,,,,,,,,,,,,,,,,,,,,,,,,,,,,,,
398315,001,2022-11-21_01h59.35.775,Info_measure_main_exp,2022.2.2,Win32,59.99880002,,,,,,,,,,,,,,,,,,masks/mask_002.jpg,,,,,,,,,,,,,,,,,,,,,,,,,,,,,,,,,,,,,,,,,,0,4,4,1,1,,,,,,,,,,,,,,,,,,,,,,,,,,,,,,,,,,,,,,,,,,,,,,
398315,001,2022-11-21_01h59.35.775,Info_measure_main_exp,2022.2.2,Win32,59.99880002,,,,,,,,,,,,,,,,,,masks/mask_003.jpg,,,,,,,,,,,,,,,,,,,,,,,,,,,,,,,,,,,,,,,,,,,,,,,0,0,0,2,1,,,,,,,,,,,,,,,,,,,,,,,,,,,,,,,,,,,,,,,,,
398315,001,2022-11-21_01h59.35.775,Info_measure_main_exp,2022.2.2,Win32,59.99880002,,,,,,,,,,,,,,,,,,masks/mask_001.jpg,,,,,,,,,,,,,,,,,,,,,,,,,,,,,,,,,,,,,,,,,,,,,,,0,1,1,0,1,,,,,,,,,,,,,,,,,,,,,,,,,,,,,,,,,,,,,,,,,
398315,001,2022-11-21_01h59.35.775,Info_measure_main_exp,2022.2.2,Win32,59.99880002,,,,,,,,,,,,,,,,,,masks/mask_002.jpg,,,,,,,,,,,,,,,,,,,,,,,,,,,,,,,,,,,,,,,,,,,,,,,0,2,2,1,1,,,,,,,,,,,,,,,,,,,,,,,,,,,,,,,,,,,,,,,,,
398315,001,2022-11-21_01h59.35.775,Info_measure_main_exp,2022.2.2,Win32,59.99880002,,,,,,,,,,,,,,,,,,masks/mask_005.jpg,,,,,,,,,,,,,,,,,,,,,,,,,,,,,,,,,,,,,,,,,,,,,,,0,3,3,4,1,,,,,,,,,,,,,,,,,,,,,,,,,,,,,,,,,,,,,,,,,
398315,001,2022-11-21_01h59.35.775,Info_measure_main_exp,2022.2.2,Win32,59.99880002,,,,,,,,,,,,,,,,,,masks/mask_004.jpg,,,,,,,,,,,,,,,,,,,,,,,,,,,,,,,,,,,,,,,,,,,,,,,0,4,4,3,1,,,,,,,,,,,,,,,,,,,,,,,,,,,,,,,,,,,,,,,,,
398315,001,2022-11-21_01h59.35.775,Info_measure_main_exp,2022.2.2,Win32,59.99880002,,,,,,,,,,,,,,,,,,,,,,,,,,,,,,5,1.3492,1,,,,,,,,,,,,0,131,5,5,2190,2250,absent_patch/patch0002190.jpg,absent_patch/patch0002250.jpg,,,,,,,,,,,,,,,,,,,0.107407393,-0.065740762,1,0,0,response3disk,13,0.002777806,-0.009259259,1,0,0,center_square,0,12,12,93,1,,,,,,,,,,,,,,,,,,,,,,,
398315,001,2022-11-21_01h59.35.775,Info_measure_main_exp,2022.2.2,Win32,59.99880002,,,,,,,,,,,,,,,,,,masks/mask_004.jpg,,,,,,,,,,,,,,,,,,,,,,,,,,,,,,,,,,,,,,,,,,0,0,0,3,1,,,,,,,,,,,,,,,,,,,,,,,,,,,,,,,,,,,,,,,,,,,,,,
398315,001,2022-11-21_01h59.35.775,Info_measure_main_exp,2022.2.2,Win32,59.99880002,,,,,,,,,,,,,,,,,,masks/mask_003.jpg,,,,,,,,,,,,,,,,,,,,,,,,,,,,,,,,,,,,,,,,,,0,1,1,2,1,,,,,,,,,,,,,,,,,,,,,,,,,,,,,,,,,,,,,,,,,,,,,,
398315,001,2022-11-21_01h59.35.775,Info_measure_main_exp,2022.2.2,Win32,59.99880002,,,,,,,,,,,,,,,,,,masks/mask_005.jpg,,,,,,,,,,,,,,,,,,,,,,,,,,,,,,,,,,,,,,,,,,0,2,2,4,1,,,,,,,,,,,,,,,,,,,,,,,,,,,,,,,,,,,,,,,,,,,,,,
398315,001,2022-11-21_01h59.35.775,Info_measure_main_exp,2022.2.2,Win32,59.99880002,,,,,,,,,,,,,,,,,,masks/mask_001.jpg,,,,,,,,,,,,,,,,,,,,,,,,,,,,,,,,,,,,,,,,,,0,3,3,0,1,,,,,,,,,,,,,,,,,,,,,,,,,,,,,,,,,,,,,,,,,,,,,,
398315,001,2022-11-21_01h59.35.775,Info_measure_main_exp,2022.2.2,Win32,59.99880002,,,,,,,,,,,,,,,,,,masks/mask_002.jpg,,,,,,,,,,,,,,,,,,,,,,,,,,,,,,,,,,,,,,,,,,0,4,4,1,1,,,,,,,,,,,,,,,,,,,,,,,,,,,,,,,,,,,,,,,,,,,,,,
398315,001,2022-11-21_01h59.35.775,Info_measure_main_exp,2022.2.2,Win32,59.99880002,,,,,,,,,,,,,,,,,,masks/mask_002.jpg,,,,,,,,,,,,,,,,,,,,,,,,,,,,,,,,,,,,,,,,,,,,,,,0,0,0,1,1,,,,,,,,,,,,,,,,,,,,,,,,,,,,,,,,,,,,,,,,,
398315,001,2022-11-21_01h59.35.775,Info_measure_main_exp,2022.2.2,Win32,59.99880002,,,,,,,,,,,,,,,,,,masks/mask_001.jpg,,,,,,,,,,,,,,,,,,,,,,,,,,,,,,,,,,,,,,,,,,,,,,,0,1,1,0,1,,,,,,,,,,,,,,,,,,,,,,,,,,,,,,,,,,,,,,,,,
398315,001,2022-11-21_01h59.35.775,Info_measure_main_exp,2022.2.2,Win32,59.99880002,,,,,,,,,,,,,,,,,,masks/mask_003.jpg,,,,,,,,,,,,,,,,,,,,,,,,,,,,,,,,,,,,,,,,,,,,,,,0,2,2,2,1,,,,,,,,,,,,,,,,,,,,,,,,,,,,,,,,,,,,,,,,,
398315,001,2022-11-21_01h59.35.775,Info_measure_main_exp,2022.2.2,Win32,59.99880002,,,,,,,,,,,,,,,,,,masks/mask_004.jpg,,,,,,,,,,,,,,,,,,,,,,,,,,,,,,,,,,,,,,,,,,,,,,,0,3,3,3,1,,,,,,,,,,,,,,,,,,,,,,,,,,,,,,,,,,,,,,,,,
398315,001,2022-11-21_01h59.35.775,Info_measure_main_exp,2022.2.2,Win32,59.99880002,,,,,,,,,,,,,,,,,,masks/mask_005.jpg,,,,,,,,,,,,,,,,,,,,,,,,,,,,,,,,,,,,,,,,,,,,,,,0,4,4,4,1,,,,,,,,,,,,,,,,,,,,,,,,,,,,,,,,,,,,,,,,,
398315,001,2022-11-21_01h59.35.775,Info_measure_main_exp,2022.2.2,Win32,59.99880002,,,,,,,,,,,,,,,,,,,,,,,,,,,,,,2,1.1839,1,,,,,,,,,,,,0,131,5,5,2274,2154,absent_patch/patch0002274.jpg,absent_patch/patch0002154.jpg,,,,,,,,,,,,,,,,,,,-0.07222218,-0.020370377,1,0,0,response5disk,14,-0.003703718,0.001851859,1,0,0,center_square,0,13,13,23,1,,,,,,,,,,,,,,,,,,,,,,,
398315,001,2022-11-21_01h59.35.775,Info_measure_main_exp,2022.2.2,Win32,59.99880002,,,,,,,,,,,,,,,,,,masks/mask_001.jpg,,,,,,,,,,,,,,,,,,,,,,,,,,,,,,,,,,,,,,,,,,0,0,0,0,1,,,,,,,,,,,,,,,,,,,,,,,,,,,,,,,,,,,,,,,,,,,,,,
398315,001,2022-11-21_01h59.35.775,Info_measure_main_exp,2022.2.2,Win32,59.99880002,,,,,,,,,,,,,,,,,,masks/mask_005.jpg,,,,,,,,,,,,,,,,,,,,,,,,,,,,,,,,,,,,,,,,,,0,1,1,4,1,,,,,,,,,,,,,,,,,,,,,,,,,,,,,,,,,,,,,,,,,,,,,,
398315,001,2022-11-21_01h59.35.775,Info_measure_main_exp,2022.2.2,Win32,59.99880002,,,,,,,,,,,,,,,,,,masks/mask_003.jpg,,,,,,,,,,,,,,,,,,,,,,,,,,,,,,,,,,,,,,,,,,0,2,2,2,1,,,,,,,,,,,,,,,,,,,,,,,,,,,,,,,,,,,,,,,,,,,,,,
398315,001,2022-11-21_01h59.35.775,Info_measure_main_exp,2022.2.2,Win32,59.99880002,,,,,,,,,,,,,,,,,,masks/mask_002.jpg,,,,,,,,,,,,,,,,,,,,,,,,,,,,,,,,,,,,,,,,,,0,3,3,1,1,,,,,,,,,,,,,,,,,,,,,,,,,,,,,,,,,,,,,,,,,,,,,,
398315,001,2022-11-21_01h59.35.775,Info_measure_main_exp,2022.2.2,Win32,59.99880002,,,,,,,,,,,,,,,,,,masks/mask_004.jpg,,,,,,,,,,,,,,,,,,,,,,,,,,,,,,,,,,,,,,,,,,0,4,4,3,1,,,,,,,,,,,,,,,,,,,,,,,,,,,,,,,,,,,,,,,,,,,,,,
398315,001,2022-11-21_01h59.35.775,Info_measure_main_exp,2022.2.2,Win32,59.99880002,,,,,,,,,,,,,,,,,,masks/mask_001.jpg,,,,,,,,,,,,,,,,,,,,,,,,,,,,,,,,,,,,,,,,,,,,,,,0,0,0,0,1,,,,,,,,,,,,,,,,,,,,,,,,,,,,,,,,,,,,,,,,,
398315,001,2022-11-21_01h59.35.775,Info_measure_main_exp,2022.2.2,Win32,59.99880002,,,,,,,,,,,,,,,,,,masks/mask_003.jpg,,,,,,,,,,,,,,,,,,,,,,,,,,,,,,,,,,,,,,,,,,,,,,,0,1,1,2,1,,,,,,,,,,,,,,,,,,,,,,,,,,,,,,,,,,,,,,,,,
398315,001,2022-11-21_01h59.35.775,Info_measure_main_exp,2022.2.2,Win32,59.99880002,,,,,,,,,,,,,,,,,,masks/mask_002.jpg,,,,,,,,,,,,,,,,,,,,,,,,,,,,,,,,,,,,,,,,,,,,,,,0,2,2,1,1,,,,,,,,,,,,,,,,,,,,,,,,,,,,,,,,,,,,,,,,,
398315,001,2022-11-21_01h59.35.775,Info_measure_main_exp,2022.2.2,Win32,59.99880002,,,,,,,,,,,,,,,,,,masks/mask_004.jpg,,,,,,,,,,,,,,,,,,,,,,,,,,,,,,,,,,,,,,,,,,,,,,,0,3,3,3,1,,,,,,,,,,,,,,,,,,,,,,,,,,,,,,,,,,,,,,,,,
398315,001,2022-11-21_01h59.35.775,Info_measure_main_exp,2022.2.2,Win32,59.99880002,,,,,,,,,,,,,,,,,,masks/mask_005.jpg,,,,,,,,,,,,,,,,,,,,,,,,,,,,,,,,,,,,,,,,,,,,,,,0,4,4,4,1,,,,,,,,,,,,,,,,,,,,,,,,,,,,,,,,,,,,,,,,,
398315,001,2022-11-21_01h59.35.775,Info_measure_main_exp,2022.2.2,Win32,59.99880002,,,,,,,,,,,,,,,,,,,,,,,,,,,,,,4,1.1067,1,,,,,,,,,,,,0,131,5,5,1974,2142,absent_patch/patch0001974.jpg,absent_patch/patch0002142.jpg,,,,,,,,,,,,,,,,,,,0.020370413,-0.062037044,1,0,0,response3disk,15,-0.002777735,0.006481489,1,0,0,center_square,0,14,14,38,1,,,,,,,,,,,,,,,,,,,,,,,
398315,001,2022-11-21_01h59.35.775,Info_measure_main_exp,2022.2.2,Win32,59.99880002,,,,,,,,,,,,,,,,,,masks/mask_005.jpg,,,,,,,,,,,,,,,,,,,,,,,,,,,,,,,,,,,,,,,,,,0,0,0,4,1,,,,,,,,,,,,,,,,,,,,,,,,,,,,,,,,,,,,,,,,,,,,,,
398315,001,2022-11-21_01h59.35.775,Info_measure_main_exp,2022.2.2,Win32,59.99880002,,,,,,,,,,,,,,,,,,masks/mask_001.jpg,,,,,,,,,,,,,,,,,,,,,,,,,,,,,,,,,,,,,,,,,,0,1,1,0,1,,,,,,,,,,,,,,,,,,,,,,,,,,,,,,,,,,,,,,,,,,,,,,
398315,001,2022-11-21_01h59.35.775,Info_measure_main_exp,2022.2.2,Win32,59.99880002,,,,,,,,,,,,,,,,,,masks/mask_004.jpg,,,,,,,,,,,,,,,,,,,,,,,,,,,,,,,,,,,,,,,,,,0,2,2,3,1,,,,,,,,,,,,,,,,,,,,,,,,,,,,,,,,,,,,,,,,,,,,,,
398315,001,2022-11-21_01h59.35.775,Info_measure_main_exp,2022.2.2,Win32,59.99880002,,,,,,,,,,,,,,,,,,masks/mask_002.jpg,,,,,,,,,,,,,,,,,,,,,,,,,,,,,,,,,,,,,,,,,,0,3,3,1,1,,,,,,,,,,,,,,,,,,,,,,,,,,,,,,,,,,,,,,,,,,,,,,
398315,001,2022-11-21_01h59.35.775,Info_measure_main_exp,2022.2.2,Win32,59.99880002,,,,,,,,,,,,,,,,,,masks/mask_003.jpg,,,,,,,,,,,,,,,,,,,,,,,,,,,,,,,,,,,,,,,,,,0,4,4,2,1,,,,,,,,,,,,,,,,,,,,,,,,,,,,,,,,,,,,,,,,,,,,,,
398315,001,2022-11-21_01h59.35.775,Info_measure_main_exp,2022.2.2,Win32,59.99880002,,,,,,,,,,,,,,,,,,masks/mask_003.jpg,,,,,,,,,,,,,,,,,,,,,,,,,,,,,,,,,,,,,,,,,,,,,,,0,0,0,2,1,,,,,,,,,,,,,,,,,,,,,,,,,,,,,,,,,,,,,,,,,
398315,001,2022-11-21_01h59.35.775,Info_measure_main_exp,2022.2.2,Win32,59.99880002,,,,,,,,,,,,,,,,,,masks/mask_004.jpg,,,,,,,,,,,,,,,,,,,,,,,,,,,,,,,,,,,,,,,,,,,,,,,0,1,1,3,1,,,,,,,,,,,,,,,,,,,,,,,,,,,,,,,,,,,,,,,,,
398315,001,2022-11-21_01h59.35.775,Info_measure_main_exp,2022.2.2,Win32,59.99880002,,,,,,,,,,,,,,,,,,masks/mask_001.jpg,,,,,,,,,,,,,,,,,,,,,,,,,,,,,,,,,,,,,,,,,,,,,,,0,2,2,0,1,,,,,,,,,,,,,,,,,,,,,,,,,,,,,,,,,,,,,,,,,
398315,001,2022-11-21_01h59.35.775,Info_measure_main_exp,2022.2.2,Win32,59.99880002,,,,,,,,,,,,,,,,,,masks/mask_005.jpg,,,,,,,,,,,,,,,,,,,,,,,,,,,,,,,,,,,,,,,,,,,,,,,0,3,3,4,1,,,,,,,,,,,,,,,,,,,,,,,,,,,,,,,,,,,,,,,,,
398315,001,2022-11-21_01h59.35.775,Info_measure_main_exp,2022.2.2,Win32,59.99880002,,,,,,,,,,,,,,,,,,masks/mask_002.jpg,,,,,,,,,,,,,,,,,,,,,,,,,,,,,,,,,,,,,,,,,,,,,,,0,4,4,1,1,,,,,,,,,,,,,,,,,,,,,,,,,,,,,,,,,,,,,,,,,
398315,001,2022-11-21_01h59.35.775,Info_measure_main_exp,2022.2.2,Win32,59.99880002,,,,,,,,,,,,,,,,,,,,,,,,,,,,,,7,1.3815,1,,,,,,,,,,,,0,131,5,5,1974,2214,absent_patch/patch0001974.jpg,absent_patch/patch0002214.jpg,,,,,,,,,,,,,,,,,,,0.031481496,0.099074081,1,0,0,response1disk,16,0,-0.005555577,1,0,0,center_square,0,15,15,24,1,,,,,,,,,,,,,,,,,,,,,,,
398315,001,2022-11-21_01h59.35.775,Info_measure_main_exp,2022.2.2,Win32,59.99880002,,,,,,,,,,,,,,,,,,masks/mask_003.jpg,,,,,,,,,,,,,,,,,,,,,,,,,,,,,,,,,,,,,,,,,,0,0,0,2,1,,,,,,,,,,,,,,,,,,,,,,,,,,,,,,,,,,,,,,,,,,,,,,
398315,001,2022-11-21_01h59.35.775,Info_measure_main_exp,2022.2.2,Win32,59.99880002,,,,,,,,,,,,,,,,,,masks/mask_005.jpg,,,,,,,,,,,,,,,,,,,,,,,,,,,,,,,,,,,,,,,,,,0,1,1,4,1,,,,,,,,,,,,,,,,,,,,,,,,,,,,,,,,,,,,,,,,,,,,,,
398315,001,2022-11-21_01h59.35.775,Info_measure_main_exp,2022.2.2,Win32,59.99880002,,,,,,,,,,,,,,,,,,masks/mask_001.jpg,,,,,,,,,,,,,,,,,,,,,,,,,,,,,,,,,,,,,,,,,,0,2,2,0,1,,,,,,,,,,,,,,,,,,,,,,,,,,,,,,,,,,,,,,,,,,,,,,
398315,001,2022-11-21_01h59.35.775,Info_measure_main_exp,2022.2.2,Win32,59.99880002,,,,,,,,,,,,,,,,,,masks/mask_004.jpg,,,,,,,,,,,,,,,,,,,,,,,,,,,,,,,,,,,,,,,,,,0,3,3,3,1,,,,,,,,,,,,,,,,,,,,,,,,,,,,,,,,,,,,,,,,,,,,,,
398315,001,2022-11-21_01h59.35.775,Info_measure_main_exp,2022.2.2,Win32,59.99880002,,,,,,,,,,,,,,,,,,masks/mask_002.jpg,,,,,,,,,,,,,,,,,,,,,,,,,,,,,,,,,,,,,,,,,,0,4,4,1,1,,,,,,,,,,,,,,,,,,,,,,,,,,,,,,,,,,,,,,,,,,,,,,
398315,001,2022-11-21_01h59.35.775,Info_measure_main_exp,2022.2.2,Win32,59.99880002,,,,,,,,,,,,,,,,,,masks/mask_005.jpg,,,,,,,,,,,,,,,,,,,,,,,,,,,,,,,,,,,,,,,,,,,,,,,0,0,0,4,1,,,,,,,,,,,,,,,,,,,,,,,,,,,,,,,,,,,,,,,,,
398315,001,2022-11-21_01h59.35.775,Info_measure_main_exp,2022.2.2,Win32,59.99880002,,,,,,,,,,,,,,,,,,masks/mask_003.jpg,,,,,,,,,,,,,,,,,,,,,,,,,,,,,,,,,,,,,,,,,,,,,,,0,1,1,2,1,,,,,,,,,,,,,,,,,,,,,,,,,,,,,,,,,,,,,,,,,
398315,001,2022-11-21_01h59.35.775,Info_measure_main_exp,2022.2.2,Win32,59.99880002,,,,,,,,,,,,,,,,,,masks/mask_004.jpg,,,,,,,,,,,,,,,,,,,,,,,,,,,,,,,,,,,,,,,,,,,,,,,0,2,2,3,1,,,,,,,,,,,,,,,,,,,,,,,,,,,,,,,,,,,,,,,,,
398315,001,2022-11-21_01h59.35.775,Info_measure_main_exp,2022.2.2,Win32,59.99880002,,,,,,,,,,,,,,,,,,masks/mask_002.jpg,,,,,,,,,,,,,,,,,,,,,,,,,,,,,,,,,,,,,,,,,,,,,,,0,3,3,1,1,,,,,,,,,,,,,,,,,,,,,,,,,,,,,,,,,,,,,,,,,
398315,001,2022-11-21_01h59.35.775,Info_measure_main_exp,2022.2.2,Win32,59.99880002,,,,,,,,,,,,,,,,,,masks/mask_001.jpg,,,,,,,,,,,,,,,,,,,,,,,,,,,,,,,,,,,,,,,,,,,,,,,0,4,4,0,1,,,,,,,,,,,,,,,,,,,,,,,,,,,,,,,,,,,,,,,,,
398315,001,2022-11-21_01h59.35.775,Info_measure_main_exp,2022.2.2,Win32,59.99880002,,,,,,,,,,,,,,,,,,,,,,,,,,,,,,7,1.3808,1,,,,,,,,,,,,0,131,5,5,2298,1986,absent_patch/patch0002298.jpg,absent_patch/patch0001986.jpg,,,,,,,,,,,,,,,,,,,0.008333347,0.067592586,1,0,0,response1disk,17,0.003703718,0.006481489,1,0,0,center_square,0,16,16,32,1,,,,,,,,,,,,,,,,,,,,,,,
398315,001,2022-11-21_01h59.35.775,Info_measure_main_exp,2022.2.2,Win32,59.99880002,,,,,,,,,,,,,,,,,,masks/mask_004.jpg,,,,,,,,,,,,,,,,,,,,,,,,,,,,,,,,,,,,,,,,,,0,0,0,3,1,,,,,,,,,,,,,,,,,,,,,,,,,,,,,,,,,,,,,,,,,,,,,,
398315,001,2022-11-21_01h59.35.775,Info_measure_main_exp,2022.2.2,Win32,59.99880002,,,,,,,,,,,,,,,,,,masks/mask_001.jpg,,,,,,,,,,,,,,,,,,,,,,,,,,,,,,,,,,,,,,,,,,0,1,1,0,1,,,,,,,,,,,,,,,,,,,,,,,,,,,,,,,,,,,,,,,,,,,,,,
398315,001,2022-11-21_01h59.35.775,Info_measure_main_exp,2022.2.2,Win32,59.99880002,,,,,,,,,,,,,,,,,,masks/mask_003.jpg,,,,,,,,,,,,,,,,,,,,,,,,,,,,,,,,,,,,,,,,,,0,2,2,2,1,,,,,,,,,,,,,,,,,,,,,,,,,,,,,,,,,,,,,,,,,,,,,,
398315,001,2022-11-21_01h59.35.775,Info_measure_main_exp,2022.2.2,Win32,59.99880002,,,,,,,,,,,,,,,,,,masks/mask_002.jpg,,,,,,,,,,,,,,,,,,,,,,,,,,,,,,,,,,,,,,,,,,0,3,3,1,1,,,,,,,,,,,,,,,,,,,,,,,,,,,,,,,,,,,,,,,,,,,,,,
398315,001,2022-11-21_01h59.35.775,Info_measure_main_exp,2022.2.2,Win32,59.99880002,,,,,,,,,,,,,,,,,,masks/mask_005.jpg,,,,,,,,,,,,,,,,,,,,,,,,,,,,,,,,,,,,,,,,,,0,4,4,4,1,,,,,,,,,,,,,,,,,,,,,,,,,,,,,,,,,,,,,,,,,,,,,,
398315,001,2022-11-21_01h59.35.775,Info_measure_main_exp,2022.2.2,Win32,59.99880002,,,,,,,,,,,,,,,,,,masks/mask_001.jpg,,,,,,,,,,,,,,,,,,,,,,,,,,,,,,,,,,,,,,,,,,,,,,,0,0,0,0,1,,,,,,,,,,,,,,,,,,,,,,,,,,,,,,,,,,,,,,,,,
398315,001,2022-11-21_01h59.35.775,Info_measure_main_exp,2022.2.2,Win32,59.99880002,,,,,,,,,,,,,,,,,,masks/mask_003.jpg,,,,,,,,,,,,,,,,,,,,,,,,,,,,,,,,,,,,,,,,,,,,,,,0,1,1,2,1,,,,,,,,,,,,,,,,,,,,,,,,,,,,,,,,,,,,,,,,,
398315,001,2022-11-21_01h59.35.775,Info_measure_main_exp,2022.2.2,Win32,59.99880002,,,,,,,,,,,,,,,,,,masks/mask_005.jpg,,,,,,,,,,,,,,,,,,,,,,,,,,,,,,,,,,,,,,,,,,,,,,,0,2,2,4,1,,,,,,,,,,,,,,,,,,,,,,,,,,,,,,,,,,,,,,,,,
398315,001,2022-11-21_01h59.35.775,Info_measure_main_exp,2022.2.2,Win32,59.99880002,,,,,,,,,,,,,,,,,,masks/mask_004.jpg,,,,,,,,,,,,,,,,,,,,,,,,,,,,,,,,,,,,,,,,,,,,,,,0,3,3,3,1,,,,,,,,,,,,,,,,,,,,,,,,,,,,,,,,,,,,,,,,,
398315,001,2022-11-21_01h59.35.775,Info_measure_main_exp,2022.2.2,Win32,59.99880002,,,,,,,,,,,,,,,,,,masks/mask_002.jpg,,,,,,,,,,,,,,,,,,,,,,,,,,,,,,,,,,,,,,,,,,,,,,,0,4,4,1,1,,,,,,,,,,,,,,,,,,,,,,,,,,,,,,,,,,,,,,,,,
398315,001,2022-11-21_01h59.35.775,Info_measure_main_exp,2022.2.2,Win32,59.99880002,,,,,,,,,,,,,,,,,,,,,,,,,,,,,,2,1.2647,1,,,,,,,,,,,,0,131,5,5,2190,1974,absent_patch/patch0002190.jpg,absent_patch/patch0001974.jpg,,,,,,,,,,,,,,,,,,,-0.099074046,-0.021296289,1,0,0,response5disk,18,-0.014814801,-0.001851859,1,0,0,center_square,0,17,17,119,1,,,,,,,,,,,,,,,,,,,,,,,
398315,001,2022-11-21_01h59.35.775,Info_measure_main_exp,2022.2.2,Win32,59.99880002,,,,,,,,,,,,,,,,,,masks/mask_003.jpg,,,,,,,,,,,,,,,,,,,,,,,,,,,,,,,,,,,,,,,,,,0,0,0,2,1,,,,,,,,,,,,,,,,,,,,,,,,,,,,,,,,,,,,,,,,,,,,,,
398315,001,2022-11-21_01h59.35.775,Info_measure_main_exp,2022.2.2,Win32,59.99880002,,,,,,,,,,,,,,,,,,masks/mask_004.jpg,,,,,,,,,,,,,,,,,,,,,,,,,,,,,,,,,,,,,,,,,,0,1,1,3,1,,,,,,,,,,,,,,,,,,,,,,,,,,,,,,,,,,,,,,,,,,,,,,
398315,001,2022-11-21_01h59.35.775,Info_measure_main_exp,2022.2.2,Win32,59.99880002,,,,,,,,,,,,,,,,,,masks/mask_005.jpg,,,,,,,,,,,,,,,,,,,,,,,,,,,,,,,,,,,,,,,,,,0,2,2,4,1,,,,,,,,,,,,,,,,,,,,,,,,,,,,,,,,,,,,,,,,,,,,,,
398315,001,2022-11-21_01h59.35.775,Info_measure_main_exp,2022.2.2,Win32,59.99880002,,,,,,,,,,,,,,,,,,masks/mask_002.jpg,,,,,,,,,,,,,,,,,,,,,,,,,,,,,,,,,,,,,,,,,,0,3,3,1,1,,,,,,,,,,,,,,,,,,,,,,,,,,,,,,,,,,,,,,,,,,,,,,
398315,001,2022-11-21_01h59.35.775,Info_measure_main_exp,2022.2.2,Win32,59.99880002,,,,,,,,,,,,,,,,,,masks/mask_001.jpg,,,,,,,,,,,,,,,,,,,,,,,,,,,,,,,,,,,,,,,,,,0,4,4,0,1,,,,,,,,,,,,,,,,,,,,,,,,,,,,,,,,,,,,,,,,,,,,,,
398315,001,2022-11-21_01h59.35.775,Info_measure_main_exp,2022.2.2,Win32,59.99880002,,,,,,,,,,,,,,,,,,masks/mask_004.jpg,,,,,,,,,,,,,,,,,,,,,,,,,,,,,,,,,,,,,,,,,,,,,,,0,0,0,3,1,,,,,,,,,,,,,,,,,,,,,,,,,,,,,,,,,,,,,,,,,
398315,001,2022-11-21_01h59.35.775,Info_measure_main_exp,2022.2.2,Win32,59.99880002,,,,,,,,,,,,,,,,,,masks/mask_003.jpg,,,,,,,,,,,,,,,,,,,,,,,,,,,,,,,,,,,,,,,,,,,,,,,0,1,1,2,1,,,,,,,,,,,,,,,,,,,,,,,,,,,,,,,,,,,,,,,,,
398315,001,2022-11-21_01h59.35.775,Info_measure_main_exp,2022.2.2,Win32,59.99880002,,,,,,,,,,,,,,,,,,masks/mask_002.jpg,,,,,,,,,,,,,,,,,,,,,,,,,,,,,,,,,,,,,,,,,,,,,,,0,2,2,1,1,,,,,,,,,,,,,,,,,,,,,,,,,,,,,,,,,,,,,,,,,
398315,001,2022-11-21_01h59.35.775,Info_measure_main_exp,2022.2.2,Win32,59.99880002,,,,,,,,,,,,,,,,,,masks/mask_005.jpg,,,,,,,,,,,,,,,,,,,,,,,,,,,,,,,,,,,,,,,,,,,,,,,0,3,3,4,1,,,,,,,,,,,,,,,,,,,,,,,,,,,,,,,,,,,,,,,,,
398315,001,2022-11-21_01h59.35.775,Info_measure_main_exp,2022.2.2,Win32,59.99880002,,,,,,,,,,,,,,,,,,masks/mask_001.jpg,,,,,,,,,,,,,,,,,,,,,,,,,,,,,,,,,,,,,,,,,,,,,,,0,4,4,0,1,,,,,,,,,,,,,,,,,,,,,,,,,,,,,,,,,,,,,,,,,
398315,001,2022-11-21_01h59.35.775,Info_measure_main_exp,2022.2.2,Win32,59.99880002,,,,,,,,,,,,,,,,,,,,,,,,,,,,,,6,1.132,1,,,,,,,,,,,,1,131,5,5,2298,1,absent_patch/patch0002298.jpg,present_patch/cong_131_5_a.jpg,,,,,,,,,,,,,,,,,,,0.074074074,0.03611109,1,0,0,response1disk,19,0.001851894,0.001851859,1,0,0,center_square,0,18,18,45,1,,,,,,,,,,,,,,,,,,,,,,,
398315,001,2022-11-21_01h59.35.775,Info_measure_main_exp,2022.2.2,Win32,59.99880002,,,,,,,,,,,,,,,,,,masks/mask_005.jpg,,,,,,,,,,,,,,,,,,,,,,,,,,,,,,,,,,,,,,,,,,0,0,0,4,1,,,,,,,,,,,,,,,,,,,,,,,,,,,,,,,,,,,,,,,,,,,,,,
398315,001,2022-11-21_01h59.35.775,Info_measure_main_exp,2022.2.2,Win32,59.99880002,,,,,,,,,,,,,,,,,,masks/mask_004.jpg,,,,,,,,,,,,,,,,,,,,,,,,,,,,,,,,,,,,,,,,,,0,1,1,3,1,,,,,,,,,,,,,,,,,,,,,,,,,,,,,,,,,,,,,,,,,,,,,,
398315,001,2022-11-21_01h59.35.775,Info_measure_main_exp,2022.2.2,Win32,59.99880002,,,,,,,,,,,,,,,,,,masks/mask_002.jpg,,,,,,,,,,,,,,,,,,,,,,,,,,,,,,,,,,,,,,,,,,0,2,2,1,1,,,,,,,,,,,,,,,,,,,,,,,,,,,,,,,,,,,,,,,,,,,,,,
398315,001,2022-11-21_01h59.35.775,Info_measure_main_exp,2022.2.2,Win32,59.99880002,,,,,,,,,,,,,,,,,,masks/mask_001.jpg,,,,,,,,,,,,,,,,,,,,,,,,,,,,,,,,,,,,,,,,,,0,3,3,0,1,,,,,,,,,,,,,,,,,,,,,,,,,,,,,,,,,,,,,,,,,,,,,,
398315,001,2022-11-21_01h59.35.775,Info_measure_main_exp,2022.2.2,Win32,59.99880002,,,,,,,,,,,,,,,,,,masks/mask_003.jpg,,,,,,,,,,,,,,,,,,,,,,,,,,,,,,,,,,,,,,,,,,0,4,4,2,1,,,,,,,,,,,,,,,,,,,,,,,,,,,,,,,,,,,,,,,,,,,,,,
398315,001,2022-11-21_01h59.35.775,Info_measure_main_exp,2022.2.2,Win32,59.99880002,,,,,,,,,,,,,,,,,,masks/mask_002.jpg,,,,,,,,,,,,,,,,,,,,,,,,,,,,,,,,,,,,,,,,,,,,,,,0,0,0,1,1,,,,,,,,,,,,,,,,,,,,,,,,,,,,,,,,,,,,,,,,,
398315,001,2022-11-21_01h59.35.775,Info_measure_main_exp,2022.2.2,Win32,59.99880002,,,,,,,,,,,,,,,,,,masks/mask_001.jpg,,,,,,,,,,,,,,,,,,,,,,,,,,,,,,,,,,,,,,,,,,,,,,,0,1,1,0,1,,,,,,,,,,,,,,,,,,,,,,,,,,,,,,,,,,,,,,,,,
398315,001,2022-11-21_01h59.35.775,Info_measure_main_exp,2022.2.2,Win32,59.99880002,,,,,,,,,,,,,,,,,,masks/mask_003.jpg,,,,,,,,,,,,,,,,,,,,,,,,,,,,,,,,,,,,,,,,,,,,,,,0,2,2,2,1,,,,,,,,,,,,,,,,,,,,,,,,,,,,,,,,,,,,,,,,,
398315,001,2022-11-21_01h59.35.775,Info_measure_main_exp,2022.2.2,Win32,59.99880002,,,,,,,,,,,,,,,,,,masks/mask_005.jpg,,,,,,,,,,,,,,,,,,,,,,,,,,,,,,,,,,,,,,,,,,,,,,,0,3,3,4,1,,,,,,,,,,,,,,,,,,,,,,,,,,,,,,,,,,,,,,,,,
398315,001,2022-11-21_01h59.35.775,Info_measure_main_exp,2022.2.2,Win32,59.99880002,,,,,,,,,,,,,,,,,,masks/mask_004.jpg,,,,,,,,,,,,,,,,,,,,,,,,,,,,,,,,,,,,,,,,,,,,,,,0,4,4,3,1,,,,,,,,,,,,,,,,,,,,,,,,,,,,,,,,,,,,,,,,,
398315,001,2022-11-21_01h59.35.775,Info_measure_main_exp,2022.2.2,Win32,59.99880002,,,,,,,,,,,,,,,,,,,,,,,,,,,,,,0,1.1816,1,,,,,,,,,,,,1,131,5,5,1,1,present_patch/cong_131_5_a.jpg,present_patch/cong_131_5_a.jpg,,,,,,,,,,,,,,,,,,,-0.032407407,0.069444444,1,0,0,response7disk,20,-0.008333347,0.00462963,1,0,0,center_square,0,19,19,30,1,,,,,,,,,,,,,,,,,,,,,,,
398315,001,2022-11-21_01h59.35.775,Info_measure_main_exp,2022.2.2,Win32,59.99880002,,,,,,,,,,,,,,,,,,masks/mask_003.jpg,,,,,,,,,,,,,,,,,,,,,,,,,,,,,,,,,,,,,,,,,,0,0,0,2,1,,,,,,,,,,,,,,,,,,,,,,,,,,,,,,,,,,,,,,,,,,,,,,
398315,001,2022-11-21_01h59.35.775,Info_measure_main_exp,2022.2.2,Win32,59.99880002,,,,,,,,,,,,,,,,,,masks/mask_005.jpg,,,,,,,,,,,,,,,,,,,,,,,,,,,,,,,,,,,,,,,,,,0,1,1,4,1,,,,,,,,,,,,,,,,,,,,,,,,,,,,,,,,,,,,,,,,,,,,,,
398315,001,2022-11-21_01h59.35.775,Info_measure_main_exp,2022.2.2,Win32,59.99880002,,,,,,,,,,,,,,,,,,masks/mask_004.jpg,,,,,,,,,,,,,,,,,,,,,,,,,,,,,,,,,,,,,,,,,,0,2,2,3,1,,,,,,,,,,,,,,,,,,,,,,,,,,,,,,,,,,,,,,,,,,,,,,
398315,001,2022-11-21_01h59.35.775,Info_measure_main_exp,2022.2.2,Win32,59.99880002,,,,,,,,,,,,,,,,,,masks/mask_001.jpg,,,,,,,,,,,,,,,,,,,,,,,,,,,,,,,,,,,,,,,,,,0,3,3,0,1,,,,,,,,,,,,,,,,,,,,,,,,,,,,,,,,,,,,,,,,,,,,,,
398315,001,2022-11-21_01h59.35.775,Info_measure_main_exp,2022.2.2,Win32,59.99880002,,,,,,,,,,,,,,,,,,masks/mask_002.jpg,,,,,,,,,,,,,,,,,,,,,,,,,,,,,,,,,,,,,,,,,,0,4,4,1,1,,,,,,,,,,,,,,,,,,,,,,,,,,,,,,,,,,,,,,,,,,,,,,
398315,001,2022-11-21_01h59.35.775,Info_measure_main_exp,2022.2.2,Win32,59.99880002,,,,,,,,,,,,,,,,,,masks/mask_002.jpg,,,,,,,,,,,,,,,,,,,,,,,,,,,,,,,,,,,,,,,,,,,,,,,0,0,0,1,1,,,,,,,,,,,,,,,,,,,,,,,,,,,,,,,,,,,,,,,,,
398315,001,2022-11-21_01h59.35.775,Info_measure_main_exp,2022.2.2,Win32,59.99880002,,,,,,,,,,,,,,,,,,masks/mask_003.jpg,,,,,,,,,,,,,,,,,,,,,,,,,,,,,,,,,,,,,,,,,,,,,,,0,1,1,2,1,,,,,,,,,,,,,,,,,,,,,,,,,,,,,,,,,,,,,,,,,
398315,001,2022-11-21_01h59.35.775,Info_measure_main_exp,2022.2.2,Win32,59.99880002,,,,,,,,,,,,,,,,,,masks/mask_001.jpg,,,,,,,,,,,,,,,,,,,,,,,,,,,,,,,,,,,,,,,,,,,,,,,0,2,2,0,1,,,,,,,,,,,,,,,,,,,,,,,,,,,,,,,,,,,,,,,,,
398315,001,2022-11-21_01h59.35.775,Info_measure_main_exp,2022.2.2,Win32,59.99880002,,,,,,,,,,,,,,,,,,masks/mask_004.jpg,,,,,,,,,,,,,,,,,,,,,,,,,,,,,,,,,,,,,,,,,,,,,,,0,3,3,3,1,,,,,,,,,,,,,,,,,,,,,,,,,,,,,,,,,,,,,,,,,
398315,001,2022-11-21_01h59.35.775,Info_measure_main_exp,2022.2.2,Win32,59.99880002,,,,,,,,,,,,,,,,,,masks/mask_005.jpg,,,,,,,,,,,,,,,,,,,,,,,,,,,,,,,,,,,,,,,,,,,,,,,0,4,4,4,1,,,,,,,,,,,,,,,,,,,,,,,,,,,,,,,,,,,,,,,,,
398315,001,2022-11-21_01h59.35.775,Info_measure_main_exp,2022.2.2,Win32,59.99880002,,,,,,,,,,,,,,,,,,,,,,,,,,,,,,6,1.8638,1,,,,,,,,,,,,0,131,5,5,2166,1986,absent_patch/patch0002166.jpg,absent_patch/patch0001986.jpg,,,,,,,,,,,,,,,,,,,0.050925926,0.02407406,1,0,0,response1disk,21,0.001851894,0.003703683,1,0,0,center_square,0,20,20,47,1,,,,,,,,,,,,,,,,,,,,,,,
398315,001,2022-11-21_01h59.35.775,Info_measure_main_exp,2022.2.2,Win32,59.99880002,,,,,,,,,,,,,,,,,,masks/mask_005.jpg,,,,,,,,,,,,,,,,,,,,,,,,,,,,,,,,,,,,,,,,,,0,0,0,4,1,,,,,,,,,,,,,,,,,,,,,,,,,,,,,,,,,,,,,,,,,,,,,,
398315,001,2022-11-21_01h59.35.775,Info_measure_main_exp,2022.2.2,Win32,59.99880002,,,,,,,,,,,,,,,,,,masks/mask_001.jpg,,,,,,,,,,,,,,,,,,,,,,,,,,,,,,,,,,,,,,,,,,0,1,1,0,1,,,,,,,,,,,,,,,,,,,,,,,,,,,,,,,,,,,,,,,,,,,,,,
398315,001,2022-11-21_01h59.35.775,Info_measure_main_exp,2022.2.2,Win32,59.99880002,,,,,,,,,,,,,,,,,,masks/mask_004.jpg,,,,,,,,,,,,,,,,,,,,,,,,,,,,,,,,,,,,,,,,,,0,2,2,3,1,,,,,,,,,,,,,,,,,,,,,,,,,,,,,,,,,,,,,,,,,,,,,,
398315,001,2022-11-21_01h59.35.775,Info_measure_main_exp,2022.2.2,Win32,59.99880002,,,,,,,,,,,,,,,,,,masks/mask_003.jpg,,,,,,,,,,,,,,,,,,,,,,,,,,,,,,,,,,,,,,,,,,0,3,3,2,1,,,,,,,,,,,,,,,,,,,,,,,,,,,,,,,,,,,,,,,,,,,,,,
398315,001,2022-11-21_01h59.35.775,Info_measure_main_exp,2022.2.2,Win32,59.99880002,,,,,,,,,,,,,,,,,,masks/mask_002.jpg,,,,,,,,,,,,,,,,,,,,,,,,,,,,,,,,,,,,,,,,,,0,4,4,1,1,,,,,,,,,,,,,,,,,,,,,,,,,,,,,,,,,,,,,,,,,,,,,,
398315,001,2022-11-21_01h59.35.775,Info_measure_main_exp,2022.2.2,Win32,59.99880002,,,,,,,,,,,,,,,,,,masks/mask_003.jpg,,,,,,,,,,,,,,,,,,,,,,,,,,,,,,,,,,,,,,,,,,,,,,,0,0,0,2,1,,,,,,,,,,,,,,,,,,,,,,,,,,,,,,,,,,,,,,,,,
398315,001,2022-11-21_01h59.35.775,Info_measure_main_exp,2022.2.2,Win32,59.99880002,,,,,,,,,,,,,,,,,,masks/mask_001.jpg,,,,,,,,,,,,,,,,,,,,,,,,,,,,,,,,,,,,,,,,,,,,,,,0,1,1,0,1,,,,,,,,,,,,,,,,,,,,,,,,,,,,,,,,,,,,,,,,,
398315,001,2022-11-21_01h59.35.775,Info_measure_main_exp,2022.2.2,Win32,59.99880002,,,,,,,,,,,,,,,,,,masks/mask_002.jpg,,,,,,,,,,,,,,,,,,,,,,,,,,,,,,,,,,,,,,,,,,,,,,,0,2,2,1,1,,,,,,,,,,,,,,,,,,,,,,,,,,,,,,,,,,,,,,,,,
398315,001,2022-11-21_01h59.35.775,Info_measure_main_exp,2022.2.2,Win32,59.99880002,,,,,,,,,,,,,,,,,,masks/mask_004.jpg,,,,,,,,,,,,,,,,,,,,,,,,,,,,,,,,,,,,,,,,,,,,,,,0,3,3,3,1,,,,,,,,,,,,,,,,,,,,,,,,,,,,,,,,,,,,,,,,,
398315,001,2022-11-21_01h59.35.775,Info_measure_main_exp,2022.2.2,Win32,59.99880002,,,,,,,,,,,,,,,,,,masks/mask_005.jpg,,,,,,,,,,,,,,,,,,,,,,,,,,,,,,,,,,,,,,,,,,,,,,,0,4,4,4,1,,,,,,,,,,,,,,,,,,,,,,,,,,,,,,,,,,,,,,,,,
398315,001,2022-11-21_01h59.35.775,Info_measure_main_exp,2022.2.2,Win32,59.99880002,,,,,,,,,,,,,,,,,,,,,,,,,,,,,,5,1.2164,1,,,,,,,,,,,,0,131,5,5,2274,2142,absent_patch/patch0002274.jpg,absent_patch/patch0002142.jpg,,,,,,,,,,,,,,,,,,,0.09629631,-0.049074067,1,0,0,response3disk,22,-0.003703718,0,1,0,0,center_square,0,21,21,75,1,,,,,,,,,,,,,,,,,,,,,,,
398315,001,2022-11-21_01h59.35.775,Info_measure_main_exp,2022.2.2,Win32,59.99880002,,,,,,,,,,,,,,,,,,masks/mask_005.jpg,,,,,,,,,,,,,,,,,,,,,,,,,,,,,,,,,,,,,,,,,,0,0,0,4,1,,,,,,,,,,,,,,,,,,,,,,,,,,,,,,,,,,,,,,,,,,,,,,
398315,001,2022-11-21_01h59.35.775,Info_measure_main_exp,2022.2.2,Win32,59.99880002,,,,,,,,,,,,,,,,,,masks/mask_004.jpg,,,,,,,,,,,,,,,,,,,,,,,,,,,,,,,,,,,,,,,,,,0,1,1,3,1,,,,,,,,,,,,,,,,,,,,,,,,,,,,,,,,,,,,,,,,,,,,,,
398315,001,2022-11-21_01h59.35.775,Info_measure_main_exp,2022.2.2,Win32,59.99880002,,,,,,,,,,,,,,,,,,masks/mask_002.jpg,,,,,,,,,,,,,,,,,,,,,,,,,,,,,,,,,,,,,,,,,,0,2,2,1,1,,,,,,,,,,,,,,,,,,,,,,,,,,,,,,,,,,,,,,,,,,,,,,
398315,001,2022-11-21_01h59.35.775,Info_measure_main_exp,2022.2.2,Win32,59.99880002,,,,,,,,,,,,,,,,,,masks/mask_001.jpg,,,,,,,,,,,,,,,,,,,,,,,,,,,,,,,,,,,,,,,,,,0,3,3,0,1,,,,,,,,,,,,,,,,,,,,,,,,,,,,,,,,,,,,,,,,,,,,,,
398315,001,2022-11-21_01h59.35.775,Info_measure_main_exp,2022.2.2,Win32,59.99880002,,,,,,,,,,,,,,,,,,masks/mask_003.jpg,,,,,,,,,,,,,,,,,,,,,,,,,,,,,,,,,,,,,,,,,,0,4,4,2,1,,,,,,,,,,,,,,,,,,,,,,,,,,,,,,,,,,,,,,,,,,,,,,
398315,001,2022-11-21_01h59.35.775,Info_measure_main_exp,2022.2.2,Win32,59.99880002,,,,,,,,,,,,,,,,,,masks/mask_003.jpg,,,,,,,,,,,,,,,,,,,,,,,,,,,,,,,,,,,,,,,,,,,,,,,0,0,0,2,1,,,,,,,,,,,,,,,,,,,,,,,,,,,,,,,,,,,,,,,,,
398315,001,2022-11-21_01h59.35.775,Info_measure_main_exp,2022.2.2,Win32,59.99880002,,,,,,,,,,,,,,,,,,masks/mask_002.jpg,,,,,,,,,,,,,,,,,,,,,,,,,,,,,,,,,,,,,,,,,,,,,,,0,1,1,1,1,,,,,,,,,,,,,,,,,,,,,,,,,,,,,,,,,,,,,,,,,
398315,001,2022-11-21_01h59.35.775,Info_measure_main_exp,2022.2.2,Win32,59.99880002,,,,,,,,,,,,,,,,,,masks/mask_004.jpg,,,,,,,,,,,,,,,,,,,,,,,,,,,,,,,,,,,,,,,,,,,,,,,0,2,2,3,1,,,,,,,,,,,,,,,,,,,,,,,,,,,,,,,,,,,,,,,,,
398315,001,2022-11-21_01h59.35.775,Info_measure_main_exp,2022.2.2,Win32,59.99880002,,,,,,,,,,,,,,,,,,masks/mask_005.jpg,,,,,,,,,,,,,,,,,,,,,,,,,,,,,,,,,,,,,,,,,,,,,,,0,3,3,4,1,,,,,,,,,,,,,,,,,,,,,,,,,,,,,,,,,,,,,,,,,
398315,001,2022-11-21_01h59.35.775,Info_measure_main_exp,2022.2.2,Win32,59.99880002,,,,,,,,,,,,,,,,,,masks/mask_001.jpg,,,,,,,,,,,,,,,,,,,,,,,,,,,,,,,,,,,,,,,,,,,,,,,0,4,4,0,1,,,,,,,,,,,,,,,,,,,,,,,,,,,,,,,,,,,,,,,,,
398315,001,2022-11-21_01h59.35.775,Info_measure_main_exp,2022.2.2,Win32,59.99880002,,,,,,,,,,,,,,,,,,,,,,,,,,,,,,4,1.1329,1,,,,,,,,,,,,0,131,5,5,2274,2190,absent_patch/patch0002274.jpg,absent_patch/patch0002190.jpg,,,,,,,,,,,,,,,,,,,0.025000042,-0.08888891,1,0,0,response3disk,23,0.003703718,0.0074074,1,0,0,center_square,0,22,22,116,1,,,,,,,,,,,,,,,,,,,,,,,
398315,001,2022-11-21_01h59.35.775,Info_measure_main_exp,2022.2.2,Win32,59.99880002,,,,,,,,,,,,,,,,,,masks/mask_001.jpg,,,,,,,,,,,,,,,,,,,,,,,,,,,,,,,,,,,,,,,,,,0,0,0,0,1,,,,,,,,,,,,,,,,,,,,,,,,,,,,,,,,,,,,,,,,,,,,,,
398315,001,2022-11-21_01h59.35.775,Info_measure_main_exp,2022.2.2,Win32,59.99880002,,,,,,,,,,,,,,,,,,masks/mask_004.jpg,,,,,,,,,,,,,,,,,,,,,,,,,,,,,,,,,,,,,,,,,,0,1,1,3,1,,,,,,,,,,,,,,,,,,,,,,,,,,,,,,,,,,,,,,,,,,,,,,
398315,001,2022-11-21_01h59.35.775,Info_measure_main_exp,2022.2.2,Win32,59.99880002,,,,,,,,,,,,,,,,,,masks/mask_002.jpg,,,,,,,,,,,,,,,,,,,,,,,,,,,,,,,,,,,,,,,,,,0,2,2,1,1,,,,,,,,,,,,,,,,,,,,,,,,,,,,,,,,,,,,,,,,,,,,,,
398315,001,2022-11-21_01h59.35.775,Info_measure_main_exp,2022.2.2,Win32,59.99880002,,,,,,,,,,,,,,,,,,masks/mask_003.jpg,,,,,,,,,,,,,,,,,,,,,,,,,,,,,,,,,,,,,,,,,,0,3,3,2,1,,,,,,,,,,,,,,,,,,,,,,,,,,,,,,,,,,,,,,,,,,,,,,
398315,001,2022-11-21_01h59.35.775,Info_measure_main_exp,2022.2.2,Win32,59.99880002,,,,,,,,,,,,,,,,,,masks/mask_005.jpg,,,,,,,,,,,,,,,,,,,,,,,,,,,,,,,,,,,,,,,,,,0,4,4,4,1,,,,,,,,,,,,,,,,,,,,,,,,,,,,,,,,,,,,,,,,,,,,,,
398315,001,2022-11-21_01h59.35.775,Info_measure_main_exp,2022.2.2,Win32,59.99880002,,,,,,,,,,,,,,,,,,masks/mask_005.jpg,,,,,,,,,,,,,,,,,,,,,,,,,,,,,,,,,,,,,,,,,,,,,,,0,0,0,4,1,,,,,,,,,,,,,,,,,,,,,,,,,,,,,,,,,,,,,,,,,
398315,001,2022-11-21_01h59.35.775,Info_measure_main_exp,2022.2.2,Win32,59.99880002,,,,,,,,,,,,,,,,,,masks/mask_001.jpg,,,,,,,,,,,,,,,,,,,,,,,,,,,,,,,,,,,,,,,,,,,,,,,0,1,1,0,1,,,,,,,,,,,,,,,,,,,,,,,,,,,,,,,,,,,,,,,,,
398315,001,2022-11-21_01h59.35.775,Info_measure_main_exp,2022.2.2,Win32,59.99880002,,,,,,,,,,,,,,,,,,masks/mask_002.jpg,,,,,,,,,,,,,,,,,,,,,,,,,,,,,,,,,,,,,,,,,,,,,,,0,2,2,1,1,,,,,,,,,,,,,,,,,,,,,,,,,,,,,,,,,,,,,,,,,
398315,001,2022-11-21_01h59.35.775,Info_measure_main_exp,2022.2.2,Win32,59.99880002,,,,,,,,,,,,,,,,,,masks/mask_003.jpg,,,,,,,,,,,,,,,,,,,,,,,,,,,,,,,,,,,,,,,,,,,,,,,0,3,3,2,1,,,,,,,,,,,,,,,,,,,,,,,,,,,,,,,,,,,,,,,,,
398315,001,2022-11-21_01h59.35.775,Info_measure_main_exp,2022.2.2,Win32,59.99880002,,,,,,,,,,,,,,,,,,masks/mask_004.jpg,,,,,,,,,,,,,,,,,,,,,,,,,,,,,,,,,,,,,,,,,,,,,,,0,4,4,3,1,,,,,,,,,,,,,,,,,,,,,,,,,,,,,,,,,,,,,,,,,
398315,001,2022-11-21_01h59.35.775,Info_measure_main_exp,2022.2.2,Win32,59.99880002,,,,,,,,,,,,,,,,,,,,,,,,,,,,,,6,2.0804,1,,,,,,,,,,,,0,131,5,5,2178,1986,absent_patch/patch0002178.jpg,absent_patch/patch0001986.jpg,,,,,,,,,,,,,,,,,,,0.051851838,0.009259259,1,0,0,response1disk,24,0.00462963,0.006481489,1,0,0,center_square,0,23,23,46,1,,,,,,,,,,,,,,,,,,,,,,,
398315,001,2022-11-21_01h59.35.775,Info_measure_main_exp,2022.2.2,Win32,59.99880002,,,,,,,,,,,,,,,,,,masks/mask_001.jpg,,,,,,,,,,,,,,,,,,,,,,,,,,,,,,,,,,,,,,,,,,0,0,0,0,1,,,,,,,,,,,,,,,,,,,,,,,,,,,,,,,,,,,,,,,,,,,,,,
398315,001,2022-11-21_01h59.35.775,Info_measure_main_exp,2022.2.2,Win32,59.99880002,,,,,,,,,,,,,,,,,,masks/mask_003.jpg,,,,,,,,,,,,,,,,,,,,,,,,,,,,,,,,,,,,,,,,,,0,1,1,2,1,,,,,,,,,,,,,,,,,,,,,,,,,,,,,,,,,,,,,,,,,,,,,,
398315,001,2022-11-21_01h59.35.775,Info_measure_main_exp,2022.2.2,Win32,59.99880002,,,,,,,,,,,,,,,,,,masks/mask_004.jpg,,,,,,,,,,,,,,,,,,,,,,,,,,,,,,,,,,,,,,,,,,0,2,2,3,1,,,,,,,,,,,,,,,,,,,,,,,,,,,,,,,,,,,,,,,,,,,,,,
398315,001,2022-11-21_01h59.35.775,Info_measure_main_exp,2022.2.2,Win32,59.99880002,,,,,,,,,,,,,,,,,,masks/mask_005.jpg,,,,,,,,,,,,,,,,,,,,,,,,,,,,,,,,,,,,,,,,,,0,3,3,4,1,,,,,,,,,,,,,,,,,,,,,,,,,,,,,,,,,,,,,,,,,,,,,,
398315,001,2022-11-21_01h59.35.775,Info_measure_main_exp,2022.2.2,Win32,59.99880002,,,,,,,,,,,,,,,,,,masks/mask_002.jpg,,,,,,,,,,,,,,,,,,,,,,,,,,,,,,,,,,,,,,,,,,0,4,4,1,1,,,,,,,,,,,,,,,,,,,,,,,,,,,,,,,,,,,,,,,,,,,,,,
398315,001,2022-11-21_01h59.35.775,Info_measure_main_exp,2022.2.2,Win32,59.99880002,,,,,,,,,,,,,,,,,,masks/mask_001.jpg,,,,,,,,,,,,,,,,,,,,,,,,,,,,,,,,,,,,,,,,,,,,,,,0,0,0,0,1,,,,,,,,,,,,,,,,,,,,,,,,,,,,,,,,,,,,,,,,,
398315,001,2022-11-21_01h59.35.775,Info_measure_main_exp,2022.2.2,Win32,59.99880002,,,,,,,,,,,,,,,,,,masks/mask_004.jpg,,,,,,,,,,,,,,,,,,,,,,,,,,,,,,,,,,,,,,,,,,,,,,,0,1,1,3,1,,,,,,,,,,,,,,,,,,,,,,,,,,,,,,,,,,,,,,,,,
398315,001,2022-11-21_01h59.35.775,Info_measure_main_exp,2022.2.2,Win32,59.99880002,,,,,,,,,,,,,,,,,,masks/mask_002.jpg,,,,,,,,,,,,,,,,,,,,,,,,,,,,,,,,,,,,,,,,,,,,,,,0,2,2,1,1,,,,,,,,,,,,,,,,,,,,,,,,,,,,,,,,,,,,,,,,,
398315,001,2022-11-21_01h59.35.775,Info_measure_main_exp,2022.2.2,Win32,59.99880002,,,,,,,,,,,,,,,,,,masks/mask_003.jpg,,,,,,,,,,,,,,,,,,,,,,,,,,,,,,,,,,,,,,,,,,,,,,,0,3,3,2,1,,,,,,,,,,,,,,,,,,,,,,,,,,,,,,,,,,,,,,,,,
398315,001,2022-11-21_01h59.35.775,Info_measure_main_exp,2022.2.2,Win32,59.99880002,,,,,,,,,,,,,,,,,,masks/mask_005.jpg,,,,,,,,,,,,,,,,,,,,,,,,,,,,,,,,,,,,,,,,,,,,,,,0,4,4,4,1,,,,,,,,,,,,,,,,,,,,,,,,,,,,,,,,,,,,,,,,,
398315,001,2022-11-21_01h59.35.775,Info_measure_main_exp,2022.2.2,Win32,59.99880002,,,,,,,,,,,,,,,,,,,,,,,,,,,,,,1,1.1323,1,,,,,,,,,,,,0,131,5,5,2082,1974,absent_patch/patch0002082.jpg,absent_patch/patch0001974.jpg,,,,,,,,,,,,,,,,,,,-0.063888903,0.035185178,1,0,0,response7disk,25,0.012037065,0.009259259,1,0,0,center_square,0,24,24,26,1,,,,,,,,,,,,,,,,,,,,,,,
398315,001,2022-11-21_01h59.35.775,Info_measure_main_exp,2022.2.2,Win32,59.99880002,,,,,,,,,,,,,,,,,,masks/mask_005.jpg,,,,,,,,,,,,,,,,,,,,,,,,,,,,,,,,,,,,,,,,,,0,0,0,4,1,,,,,,,,,,,,,,,,,,,,,,,,,,,,,,,,,,,,,,,,,,,,,,
398315,001,2022-11-21_01h59.35.775,Info_measure_main_exp,2022.2.2,Win32,59.99880002,,,,,,,,,,,,,,,,,,masks/mask_001.jpg,,,,,,,,,,,,,,,,,,,,,,,,,,,,,,,,,,,,,,,,,,0,1,1,0,1,,,,,,,,,,,,,,,,,,,,,,,,,,,,,,,,,,,,,,,,,,,,,,
398315,001,2022-11-21_01h59.35.775,Info_measure_main_exp,2022.2.2,Win32,59.99880002,,,,,,,,,,,,,,,,,,masks/mask_002.jpg,,,,,,,,,,,,,,,,,,,,,,,,,,,,,,,,,,,,,,,,,,0,2,2,1,1,,,,,,,,,,,,,,,,,,,,,,,,,,,,,,,,,,,,,,,,,,,,,,
398315,001,2022-11-21_01h59.35.775,Info_measure_main_exp,2022.2.2,Win32,59.99880002,,,,,,,,,,,,,,,,,,masks/mask_003.jpg,,,,,,,,,,,,,,,,,,,,,,,,,,,,,,,,,,,,,,,,,,0,3,3,2,1,,,,,,,,,,,,,,,,,,,,,,,,,,,,,,,,,,,,,,,,,,,,,,
398315,001,2022-11-21_01h59.35.775,Info_measure_main_exp,2022.2.2,Win32,59.99880002,,,,,,,,,,,,,,,,,,masks/mask_004.jpg,,,,,,,,,,,,,,,,,,,,,,,,,,,,,,,,,,,,,,,,,,0,4,4,3,1,,,,,,,,,,,,,,,,,,,,,,,,,,,,,,,,,,,,,,,,,,,,,,
398315,001,2022-11-21_01h59.35.775,Info_measure_main_exp,2022.2.2,Win32,59.99880002,,,,,,,,,,,,,,,,,,masks/mask_004.jpg,,,,,,,,,,,,,,,,,,,,,,,,,,,,,,,,,,,,,,,,,,,,,,,0,0,0,3,1,,,,,,,,,,,,,,,,,,,,,,,,,,,,,,,,,,,,,,,,,
398315,001,2022-11-21_01h59.35.775,Info_measure_main_exp,2022.2.2,Win32,59.99880002,,,,,,,,,,,,,,,,,,masks/mask_001.jpg,,,,,,,,,,,,,,,,,,,,,,,,,,,,,,,,,,,,,,,,,,,,,,,0,1,1,0,1,,,,,,,,,,,,,,,,,,,,,,,,,,,,,,,,,,,,,,,,,
398315,001,2022-11-21_01h59.35.775,Info_measure_main_exp,2022.2.2,Win32,59.99880002,,,,,,,,,,,,,,,,,,masks/mask_003.jpg,,,,,,,,,,,,,,,,,,,,,,,,,,,,,,,,,,,,,,,,,,,,,,,0,2,2,2,1,,,,,,,,,,,,,,,,,,,,,,,,,,,,,,,,,,,,,,,,,
398315,001,2022-11-21_01h59.35.775,Info_measure_main_exp,2022.2.2,Win32,59.99880002,,,,,,,,,,,,,,,,,,masks/mask_005.jpg,,,,,,,,,,,,,,,,,,,,,,,,,,,,,,,,,,,,,,,,,,,,,,,0,3,3,4,1,,,,,,,,,,,,,,,,,,,,,,,,,,,,,,,,,,,,,,,,,
398315,001,2022-11-21_01h59.35.775,Info_measure_main_exp,2022.2.2,Win32,59.99880002,,,,,,,,,,,,,,,,,,masks/mask_002.jpg,,,,,,,,,,,,,,,,,,,,,,,,,,,,,,,,,,,,,,,,,,,,,,,0,4,4,1,1,,,,,,,,,,,,,,,,,,,,,,,,,,,,,,,,,,,,,,,,,
398315,001,2022-11-21_01h59.35.775,Info_measure_main_exp,2022.2.2,Win32,59.99880002,,,,,,,,,,,,,,,,,,,,,,,,,,,,,,1,1.5496,1,,,,,,,,,,,,0,131,5,5,2154,2238,absent_patch/patch0002154.jpg,absent_patch/patch0002238.jpg,,,,,,,,,,,,,,,,,,,-0.068518533,0.042592578,1,0,0,response7disk,26,0.001851894,0.011111118,1,0,0,center_square,0,25,25,21,1,,,,,,,,,,,,,,,,,,,,,,,
398315,001,2022-11-21_01h59.35.775,Info_measure_main_exp,2022.2.2,Win32,59.99880002,,,,,,,,,,,,,,,,,,masks/mask_004.jpg,,,,,,,,,,,,,,,,,,,,,,,,,,,,,,,,,,,,,,,,,,0,0,0,3,1,,,,,,,,,,,,,,,,,,,,,,,,,,,,,,,,,,,,,,,,,,,,,,
398315,001,2022-11-21_01h59.35.775,Info_measure_main_exp,2022.2.2,Win32,59.99880002,,,,,,,,,,,,,,,,,,masks/mask_001.jpg,,,,,,,,,,,,,,,,,,,,,,,,,,,,,,,,,,,,,,,,,,0,1,1,0,1,,,,,,,,,,,,,,,,,,,,,,,,,,,,,,,,,,,,,,,,,,,,,,
398315,001,2022-11-21_01h59.35.775,Info_measure_main_exp,2022.2.2,Win32,59.99880002,,,,,,,,,,,,,,,,,,masks/mask_003.jpg,,,,,,,,,,,,,,,,,,,,,,,,,,,,,,,,,,,,,,,,,,0,2,2,2,1,,,,,,,,,,,,,,,,,,,,,,,,,,,,,,,,,,,,,,,,,,,,,,
398315,001,2022-11-21_01h59.35.775,Info_measure_main_exp,2022.2.2,Win32,59.99880002,,,,,,,,,,,,,,,,,,masks/mask_005.jpg,,,,,,,,,,,,,,,,,,,,,,,,,,,,,,,,,,,,,,,,,,0,3,3,4,1,,,,,,,,,,,,,,,,,,,,,,,,,,,,,,,,,,,,,,,,,,,,,,
398315,001,2022-11-21_01h59.35.775,Info_measure_main_exp,2022.2.2,Win32,59.99880002,,,,,,,,,,,,,,,,,,masks/mask_002.jpg,,,,,,,,,,,,,,,,,,,,,,,,,,,,,,,,,,,,,,,,,,0,4,4,1,1,,,,,,,,,,,,,,,,,,,,,,,,,,,,,,,,,,,,,,,,,,,,,,
398315,001,2022-11-21_01h59.35.775,Info_measure_main_exp,2022.2.2,Win32,59.99880002,,,,,,,,,,,,,,,,,,masks/mask_002.jpg,,,,,,,,,,,,,,,,,,,,,,,,,,,,,,,,,,,,,,,,,,,,,,,0,0,0,1,1,,,,,,,,,,,,,,,,,,,,,,,,,,,,,,,,,,,,,,,,,
398315,001,2022-11-21_01h59.35.775,Info_measure_main_exp,2022.2.2,Win32,59.99880002,,,,,,,,,,,,,,,,,,masks/mask_004.jpg,,,,,,,,,,,,,,,,,,,,,,,,,,,,,,,,,,,,,,,,,,,,,,,0,1,1,3,1,,,,,,,,,,,,,,,,,,,,,,,,,,,,,,,,,,,,,,,,,
398315,001,2022-11-21_01h59.35.775,Info_measure_main_exp,2022.2.2,Win32,59.99880002,,,,,,,,,,,,,,,,,,masks/mask_005.jpg,,,,,,,,,,,,,,,,,,,,,,,,,,,,,,,,,,,,,,,,,,,,,,,0,2,2,4,1,,,,,,,,,,,,,,,,,,,,,,,,,,,,,,,,,,,,,,,,,
398315,001,2022-11-21_01h59.35.775,Info_measure_main_exp,2022.2.2,Win32,59.99880002,,,,,,,,,,,,,,,,,,masks/mask_003.jpg,,,,,,,,,,,,,,,,,,,,,,,,,,,,,,,,,,,,,,,,,,,,,,,0,3,3,2,1,,,,,,,,,,,,,,,,,,,,,,,,,,,,,,,,,,,,,,,,,
398315,001,2022-11-21_01h59.35.775,Info_measure_main_exp,2022.2.2,Win32,59.99880002,,,,,,,,,,,,,,,,,,masks/mask_001.jpg,,,,,,,,,,,,,,,,,,,,,,,,,,,,,,,,,,,,,,,,,,,,,,,0,4,4,0,1,,,,,,,,,,,,,,,,,,,,,,,,,,,,,,,,,,,,,,,,,
398315,001,2022-11-21_01h59.35.775,Info_measure_main_exp,2022.2.2,Win32,59.99880002,,,,,,,,,,,,,,,,,,,,,,,,,,,,,,4,1.2216,1,,,,,,,,,,,,0,131,5,5,2214,2142,absent_patch/patch0002214.jpg,absent_patch/patch0002142.jpg,,,,,,,,,,,,,,,,,,,0.021296325,-0.058333326,1,0,0,response3disk,27,0.001851894,0.009259259,1,0,0,center_square,0,26,26,102,1,,,,,,,,,,,,,,,,,,,,,,,
398315,001,2022-11-21_01h59.35.775,Info_measure_main_exp,2022.2.2,Win32,59.99880002,,,,,,,,,,,,,,,,,,masks/mask_005.jpg,,,,,,,,,,,,,,,,,,,,,,,,,,,,,,,,,,,,,,,,,,0,0,0,4,1,,,,,,,,,,,,,,,,,,,,,,,,,,,,,,,,,,,,,,,,,,,,,,
398315,001,2022-11-21_01h59.35.775,Info_measure_main_exp,2022.2.2,Win32,59.99880002,,,,,,,,,,,,,,,,,,masks/mask_003.jpg,,,,,,,,,,,,,,,,,,,,,,,,,,,,,,,,,,,,,,,,,,0,1,1,2,1,,,,,,,,,,,,,,,,,,,,,,,,,,,,,,,,,,,,,,,,,,,,,,
398315,001,2022-11-21_01h59.35.775,Info_measure_main_exp,2022.2.2,Win32,59.99880002,,,,,,,,,,,,,,,,,,masks/mask_001.jpg,,,,,,,,,,,,,,,,,,,,,,,,,,,,,,,,,,,,,,,,,,0,2,2,0,1,,,,,,,,,,,,,,,,,,,,,,,,,,,,,,,,,,,,,,,,,,,,,,
398315,001,2022-11-21_01h59.35.775,Info_measure_main_exp,2022.2.2,Win32,59.99880002,,,,,,,,,,,,,,,,,,masks/mask_002.jpg,,,,,,,,,,,,,,,,,,,,,,,,,,,,,,,,,,,,,,,,,,0,3,3,1,1,,,,,,,,,,,,,,,,,,,,,,,,,,,,,,,,,,,,,,,,,,,,,,
398315,001,2022-11-21_01h59.35.775,Info_measure_main_exp,2022.2.2,Win32,59.99880002,,,,,,,,,,,,,,,,,,masks/mask_004.jpg,,,,,,,,,,,,,,,,,,,,,,,,,,,,,,,,,,,,,,,,,,0,4,4,3,1,,,,,,,,,,,,,,,,,,,,,,,,,,,,,,,,,,,,,,,,,,,,,,
398315,001,2022-11-21_01h59.35.775,Info_measure_main_exp,2022.2.2,Win32,59.99880002,,,,,,,,,,,,,,,,,,masks/mask_002.jpg,,,,,,,,,,,,,,,,,,,,,,,,,,,,,,,,,,,,,,,,,,,,,,,0,0,0,1,1,,,,,,,,,,,,,,,,,,,,,,,,,,,,,,,,,,,,,,,,,
398315,001,2022-11-21_01h59.35.775,Info_measure_main_exp,2022.2.2,Win32,59.99880002,,,,,,,,,,,,,,,,,,masks/mask_001.jpg,,,,,,,,,,,,,,,,,,,,,,,,,,,,,,,,,,,,,,,,,,,,,,,0,1,1,0,1,,,,,,,,,,,,,,,,,,,,,,,,,,,,,,,,,,,,,,,,,
398315,001,2022-11-21_01h59.35.775,Info_measure_main_exp,2022.2.2,Win32,59.99880002,,,,,,,,,,,,,,,,,,masks/mask_005.jpg,,,,,,,,,,,,,,,,,,,,,,,,,,,,,,,,,,,,,,,,,,,,,,,0,2,2,4,1,,,,,,,,,,,,,,,,,,,,,,,,,,,,,,,,,,,,,,,,,
398315,001,2022-11-21_01h59.35.775,Info_measure_main_exp,2022.2.2,Win32,59.99880002,,,,,,,,,,,,,,,,,,masks/mask_004.jpg,,,,,,,,,,,,,,,,,,,,,,,,,,,,,,,,,,,,,,,,,,,,,,,0,3,3,3,1,,,,,,,,,,,,,,,,,,,,,,,,,,,,,,,,,,,,,,,,,
398315,001,2022-11-21_01h59.35.775,Info_measure_main_exp,2022.2.2,Win32,59.99880002,,,,,,,,,,,,,,,,,,masks/mask_003.jpg,,,,,,,,,,,,,,,,,,,,,,,,,,,,,,,,,,,,,,,,,,,,,,,0,4,4,2,1,,,,,,,,,,,,,,,,,,,,,,,,,,,,,,,,,,,,,,,,,
398315,001,2022-11-21_01h59.35.775,Info_measure_main_exp,2022.2.2,Win32,59.99880002,,,,,,,,,,,,,,,,,,,,,,,,,,,,,,5,1.712,1,,,,,,,,,,,,1,131,5,5,1950,1,absent_patch/patch0001950.jpg,present_patch/cong_131_5_a.jpg,,,,,,,,,,,,,,,,,,,0.025925954,-0.001851859,1,0,0,response3disk,28,0.000925912,0.009259259,1,0,0,center_square,0,27,27,39,1,,,,,,,,,,,,,,,,,,,,,,,
398315,001,2022-11-21_01h59.35.775,Info_measure_main_exp,2022.2.2,Win32,59.99880002,,,,,,,,,,,,,,,,,,masks/mask_002.jpg,,,,,,,,,,,,,,,,,,,,,,,,,,,,,,,,,,,,,,,,,,0,0,0,1,1,,,,,,,,,,,,,,,,,,,,,,,,,,,,,,,,,,,,,,,,,,,,,,
398315,001,2022-11-21_01h59.35.775,Info_measure_main_exp,2022.2.2,Win32,59.99880002,,,,,,,,,,,,,,,,,,masks/mask_004.jpg,,,,,,,,,,,,,,,,,,,,,,,,,,,,,,,,,,,,,,,,,,0,1,1,3,1,,,,,,,,,,,,,,,,,,,,,,,,,,,,,,,,,,,,,,,,,,,,,,
398315,001,2022-11-21_01h59.35.775,Info_measure_main_exp,2022.2.2,Win32,59.99880002,,,,,,,,,,,,,,,,,,masks/mask_005.jpg,,,,,,,,,,,,,,,,,,,,,,,,,,,,,,,,,,,,,,,,,,0,2,2,4,1,,,,,,,,,,,,,,,,,,,,,,,,,,,,,,,,,,,,,,,,,,,,,,
398315,001,2022-11-21_01h59.35.775,Info_measure_main_exp,2022.2.2,Win32,59.99880002,,,,,,,,,,,,,,,,,,masks/mask_003.jpg,,,,,,,,,,,,,,,,,,,,,,,,,,,,,,,,,,,,,,,,,,0,3,3,2,1,,,,,,,,,,,,,,,,,,,,,,,,,,,,,,,,,,,,,,,,,,,,,,
398315,001,2022-11-21_01h59.35.775,Info_measure_main_exp,2022.2.2,Win32,59.99880002,,,,,,,,,,,,,,,,,,masks/mask_001.jpg,,,,,,,,,,,,,,,,,,,,,,,,,,,,,,,,,,,,,,,,,,0,4,4,0,1,,,,,,,,,,,,,,,,,,,,,,,,,,,,,,,,,,,,,,,,,,,,,,
398315,001,2022-11-21_01h59.35.775,Info_measure_main_exp,2022.2.2,Win32,59.99880002,,,,,,,,,,,,,,,,,,masks/mask_001.jpg,,,,,,,,,,,,,,,,,,,,,,,,,,,,,,,,,,,,,,,,,,,,,,,0,0,0,0,1,,,,,,,,,,,,,,,,,,,,,,,,,,,,,,,,,,,,,,,,,
398315,001,2022-11-21_01h59.35.775,Info_measure_main_exp,2022.2.2,Win32,59.99880002,,,,,,,,,,,,,,,,,,masks/mask_004.jpg,,,,,,,,,,,,,,,,,,,,,,,,,,,,,,,,,,,,,,,,,,,,,,,0,1,1,3,1,,,,,,,,,,,,,,,,,,,,,,,,,,,,,,,,,,,,,,,,,
398315,001,2022-11-21_01h59.35.775,Info_measure_main_exp,2022.2.2,Win32,59.99880002,,,,,,,,,,,,,,,,,,masks/mask_005.jpg,,,,,,,,,,,,,,,,,,,,,,,,,,,,,,,,,,,,,,,,,,,,,,,0,2,2,4,1,,,,,,,,,,,,,,,,,,,,,,,,,,,,,,,,,,,,,,,,,
398315,001,2022-11-21_01h59.35.775,Info_measure_main_exp,2022.2.2,Win32,59.99880002,,,,,,,,,,,,,,,,,,masks/mask_002.jpg,,,,,,,,,,,,,,,,,,,,,,,,,,,,,,,,,,,,,,,,,,,,,,,0,3,3,1,1,,,,,,,,,,,,,,,,,,,,,,,,,,,,,,,,,,,,,,,,,
398315,001,2022-11-21_01h59.35.775,Info_measure_main_exp,2022.2.2,Win32,59.99880002,,,,,,,,,,,,,,,,,,masks/mask_003.jpg,,,,,,,,,,,,,,,,,,,,,,,,,,,,,,,,,,,,,,,,,,,,,,,0,4,4,2,1,,,,,,,,,,,,,,,,,,,,,,,,,,,,,,,,,,,,,,,,,
398315,001,2022-11-21_01h59.35.775,Info_measure_main_exp,2022.2.2,Win32,59.99880002,,,,,,,,,,,,,,,,,,,,,,,,,,,,,,6,1.5309,1,,,,,,,,,,,,0,131,5,5,1950,2298,absent_patch/patch0001950.jpg,absent_patch/patch0002298.jpg,,,,,,,,,,,,,,,,,,,0.062962991,0.03148146,1,0,0,response1disk,29,0.002777806,-0.003703718,1,0,0,center_square,0,28,28,18,1,,,,,,,,,,,,,,,,,,,,,,,
398315,001,2022-11-21_01h59.35.775,Info_measure_main_exp,2022.2.2,Win32,59.99880002,,,,,,,,,,,,,,,,,,masks/mask_005.jpg,,,,,,,,,,,,,,,,,,,,,,,,,,,,,,,,,,,,,,,,,,0,0,0,4,1,,,,,,,,,,,,,,,,,,,,,,,,,,,,,,,,,,,,,,,,,,,,,,
398315,001,2022-11-21_01h59.35.775,Info_measure_main_exp,2022.2.2,Win32,59.99880002,,,,,,,,,,,,,,,,,,masks/mask_002.jpg,,,,,,,,,,,,,,,,,,,,,,,,,,,,,,,,,,,,,,,,,,0,1,1,1,1,,,,,,,,,,,,,,,,,,,,,,,,,,,,,,,,,,,,,,,,,,,,,,
398315,001,2022-11-21_01h59.35.775,Info_measure_main_exp,2022.2.2,Win32,59.99880002,,,,,,,,,,,,,,,,,,masks/mask_001.jpg,,,,,,,,,,,,,,,,,,,,,,,,,,,,,,,,,,,,,,,,,,0,2,2,0,1,,,,,,,,,,,,,,,,,,,,,,,,,,,,,,,,,,,,,,,,,,,,,,
398315,001,2022-11-21_01h59.35.775,Info_measure_main_exp,2022.2.2,Win32,59.99880002,,,,,,,,,,,,,,,,,,masks/mask_004.jpg,,,,,,,,,,,,,,,,,,,,,,,,,,,,,,,,,,,,,,,,,,0,3,3,3,1,,,,,,,,,,,,,,,,,,,,,,,,,,,,,,,,,,,,,,,,,,,,,,
398315,001,2022-11-21_01h59.35.775,Info_measure_main_exp,2022.2.2,Win32,59.99880002,,,,,,,,,,,,,,,,,,masks/mask_003.jpg,,,,,,,,,,,,,,,,,,,,,,,,,,,,,,,,,,,,,,,,,,0,4,4,2,1,,,,,,,,,,,,,,,,,,,,,,,,,,,,,,,,,,,,,,,,,,,,,,
398315,001,2022-11-21_01h59.35.775,Info_measure_main_exp,2022.2.2,Win32,59.99880002,,,,,,,,,,,,,,,,,,masks/mask_002.jpg,,,,,,,,,,,,,,,,,,,,,,,,,,,,,,,,,,,,,,,,,,,,,,,0,0,0,1,1,,,,,,,,,,,,,,,,,,,,,,,,,,,,,,,,,,,,,,,,,
398315,001,2022-11-21_01h59.35.775,Info_measure_main_exp,2022.2.2,Win32,59.99880002,,,,,,,,,,,,,,,,,,masks/mask_004.jpg,,,,,,,,,,,,,,,,,,,,,,,,,,,,,,,,,,,,,,,,,,,,,,,0,1,1,3,1,,,,,,,,,,,,,,,,,,,,,,,,,,,,,,,,,,,,,,,,,
398315,001,2022-11-21_01h59.35.775,Info_measure_main_exp,2022.2.2,Win32,59.99880002,,,,,,,,,,,,,,,,,,masks/mask_005.jpg,,,,,,,,,,,,,,,,,,,,,,,,,,,,,,,,,,,,,,,,,,,,,,,0,2,2,4,1,,,,,,,,,,,,,,,,,,,,,,,,,,,,,,,,,,,,,,,,,
398315,001,2022-11-21_01h59.35.775,Info_measure_main_exp,2022.2.2,Win32,59.99880002,,,,,,,,,,,,,,,,,,masks/mask_001.jpg,,,,,,,,,,,,,,,,,,,,,,,,,,,,,,,,,,,,,,,,,,,,,,,0,3,3,0,1,,,,,,,,,,,,,,,,,,,,,,,,,,,,,,,,,,,,,,,,,
398315,001,2022-11-21_01h59.35.775,Info_measure_main_exp,2022.2.2,Win32,59.99880002,,,,,,,,,,,,,,,,,,masks/mask_003.jpg,,,,,,,,,,,,,,,,,,,,,,,,,,,,,,,,,,,,,,,,,,,,,,,0,4,4,2,1,,,,,,,,,,,,,,,,,,,,,,,,,,,,,,,,,,,,,,,,,
398315,001,2022-11-21_01h59.35.775,Info_measure_main_exp,2022.2.2,Win32,59.99880002,,,,,,,,,,,,,,,,,,,,,,,,,,,,,,6,1.0256,1,,,,,,,,,,,,0,131,5,5,2298,2142,absent_patch/patch0002298.jpg,absent_patch/patch0002142.jpg,,,,,,,,,,,,,,,,,,,0.036111125,0.009259259,1,0,0,response1disk,30,0.006481524,-0.000925947,1,0,0,center_square,0,29,29,49,1,,,,,,,,,,,,,,,,,,,,,,,
398315,001,2022-11-21_01h59.35.775,Info_measure_main_exp,2022.2.2,Win32,59.99880002,,,,,,,,,,,,,,,,,,masks/mask_002.jpg,,,,,,,,,,,,,,,,,,,,,,,,,,,,,,,,,,,,,,,,,,0,0,0,1,1,,,,,,,,,,,,,,,,,,,,,,,,,,,,,,,,,,,,,,,,,,,,,,
398315,001,2022-11-21_01h59.35.775,Info_measure_main_exp,2022.2.2,Win32,59.99880002,,,,,,,,,,,,,,,,,,masks/mask_001.jpg,,,,,,,,,,,,,,,,,,,,,,,,,,,,,,,,,,,,,,,,,,0,1,1,0,1,,,,,,,,,,,,,,,,,,,,,,,,,,,,,,,,,,,,,,,,,,,,,,
398315,001,2022-11-21_01h59.35.775,Info_measure_main_exp,2022.2.2,Win32,59.99880002,,,,,,,,,,,,,,,,,,masks/mask_005.jpg,,,,,,,,,,,,,,,,,,,,,,,,,,,,,,,,,,,,,,,,,,0,2,2,4,1,,,,,,,,,,,,,,,,,,,,,,,,,,,,,,,,,,,,,,,,,,,,,,
398315,001,2022-11-21_01h59.35.775,Info_measure_main_exp,2022.2.2,Win32,59.99880002,,,,,,,,,,,,,,,,,,masks/mask_003.jpg,,,,,,,,,,,,,,,,,,,,,,,,,,,,,,,,,,,,,,,,,,0,3,3,2,1,,,,,,,,,,,,,,,,,,,,,,,,,,,,,,,,,,,,,,,,,,,,,,
398315,001,2022-11-21_01h59.35.775,Info_measure_main_exp,2022.2.2,Win32,59.99880002,,,,,,,,,,,,,,,,,,masks/mask_004.jpg,,,,,,,,,,,,,,,,,,,,,,,,,,,,,,,,,,,,,,,,,,0,4,4,3,1,,,,,,,,,,,,,,,,,,,,,,,,,,,,,,,,,,,,,,,,,,,,,,
398315,001,2022-11-21_01h59.35.775,Info_measure_main_exp,2022.2.2,Win32,59.99880002,,,,,,,,,,,,,,,,,,masks/mask_004.jpg,,,,,,,,,,,,,,,,,,,,,,,,,,,,,,,,,,,,,,,,,,,,,,,0,0,0,3,1,,,,,,,,,,,,,,,,,,,,,,,,,,,,,,,,,,,,,,,,,
398315,001,2022-11-21_01h59.35.775,Info_measure_main_exp,2022.2.2,Win32,59.99880002,,,,,,,,,,,,,,,,,,masks/mask_005.jpg,,,,,,,,,,,,,,,,,,,,,,,,,,,,,,,,,,,,,,,,,,,,,,,0,1,1,4,1,,,,,,,,,,,,,,,,,,,,,,,,,,,,,,,,,,,,,,,,,
398315,001,2022-11-21_01h59.35.775,Info_measure_main_exp,2022.2.2,Win32,59.99880002,,,,,,,,,,,,,,,,,,masks/mask_002.jpg,,,,,,,,,,,,,,,,,,,,,,,,,,,,,,,,,,,,,,,,,,,,,,,0,2,2,1,1,,,,,,,,,,,,,,,,,,,,,,,,,,,,,,,,,,,,,,,,,
398315,001,2022-11-21_01h59.35.775,Info_measure_main_exp,2022.2.2,Win32,59.99880002,,,,,,,,,,,,,,,,,,masks/mask_001.jpg,,,,,,,,,,,,,,,,,,,,,,,,,,,,,,,,,,,,,,,,,,,,,,,0,3,3,0,1,,,,,,,,,,,,,,,,,,,,,,,,,,,,,,,,,,,,,,,,,
398315,001,2022-11-21_01h59.35.775,Info_measure_main_exp,2022.2.2,Win32,59.99880002,,,,,,,,,,,,,,,,,,masks/mask_003.jpg,,,,,,,,,,,,,,,,,,,,,,,,,,,,,,,,,,,,,,,,,,,,,,,0,4,4,2,1,,,,,,,,,,,,,,,,,,,,,,,,,,,,,,,,,,,,,,,,,
398315,001,2022-11-21_01h59.35.775,Info_measure_main_exp,2022.2.2,Win32,59.99880002,,,,,,,,,,,,,,,,,,,,,,,,,,,,,,7,1.334,1,,,,,,,,,,,,0,131,5,5,1950,2178,absent_patch/patch0001950.jpg,absent_patch/patch0002178.jpg,,,,,,,,,,,,,,,,,,,0.000925912,0.025000007,1,0,0,response1disk,31,-0.001851824,0.003703683,1,0,0,center_square,0,30,30,61,1,,,,,,,,,,,,,,,,,,,,,,,
398315,001,2022-11-21_01h59.35.775,Info_measure_main_exp,2022.2.2,Win32,59.99880002,,,,,,,,,,,,,,,,,,masks/mask_003.jpg,,,,,,,,,,,,,,,,,,,,,,,,,,,,,,,,,,,,,,,,,,0,0,0,2,1,,,,,,,,,,,,,,,,,,,,,,,,,,,,,,,,,,,,,,,,,,,,,,
398315,001,2022-11-21_01h59.35.775,Info_measure_main_exp,2022.2.2,Win32,59.99880002,,,,,,,,,,,,,,,,,,masks/mask_002.jpg,,,,,,,,,,,,,,,,,,,,,,,,,,,,,,,,,,,,,,,,,,0,1,1,1,1,,,,,,,,,,,,,,,,,,,,,,,,,,,,,,,,,,,,,,,,,,,,,,
398315,001,2022-11-21_01h59.35.775,Info_measure_main_exp,2022.2.2,Win32,59.99880002,,,,,,,,,,,,,,,,,,masks/mask_001.jpg,,,,,,,,,,,,,,,,,,,,,,,,,,,,,,,,,,,,,,,,,,0,2,2,0,1,,,,,,,,,,,,,,,,,,,,,,,,,,,,,,,,,,,,,,,,,,,,,,
398315,001,2022-11-21_01h59.35.775,Info_measure_main_exp,2022.2.2,Win32,59.99880002,,,,,,,,,,,,,,,,,,masks/mask_004.jpg,,,,,,,,,,,,,,,,,,,,,,,,,,,,,,,,,,,,,,,,,,0,3,3,3,1,,,,,,,,,,,,,,,,,,,,,,,,,,,,,,,,,,,,,,,,,,,,,,
398315,001,2022-11-21_01h59.35.775,Info_measure_main_exp,2022.2.2,Win32,59.99880002,,,,,,,,,,,,,,,,,,masks/mask_005.jpg,,,,,,,,,,,,,,,,,,,,,,,,,,,,,,,,,,,,,,,,,,0,4,4,4,1,,,,,,,,,,,,,,,,,,,,,,,,,,,,,,,,,,,,,,,,,,,,,,
398315,001,2022-11-21_01h59.35.775,Info_measure_main_exp,2022.2.2,Win32,59.99880002,,,,,,,,,,,,,,,,,,masks/mask_003.jpg,,,,,,,,,,,,,,,,,,,,,,,,,,,,,,,,,,,,,,,,,,,,,,,0,0,0,2,1,,,,,,,,,,,,,,,,,,,,,,,,,,,,,,,,,,,,,,,,,
398315,001,2022-11-21_01h59.35.775,Info_measure_main_exp,2022.2.2,Win32,59.99880002,,,,,,,,,,,,,,,,,,masks/mask_005.jpg,,,,,,,,,,,,,,,,,,,,,,,,,,,,,,,,,,,,,,,,,,,,,,,0,1,1,4,1,,,,,,,,,,,,,,,,,,,,,,,,,,,,,,,,,,,,,,,,,
398315,001,2022-11-21_01h59.35.775,Info_measure_main_exp,2022.2.2,Win32,59.99880002,,,,,,,,,,,,,,,,,,masks/mask_002.jpg,,,,,,,,,,,,,,,,,,,,,,,,,,,,,,,,,,,,,,,,,,,,,,,0,2,2,1,1,,,,,,,,,,,,,,,,,,,,,,,,,,,,,,,,,,,,,,,,,
398315,001,2022-11-21_01h59.35.775,Info_measure_main_exp,2022.2.2,Win32,59.99880002,,,,,,,,,,,,,,,,,,masks/mask_004.jpg,,,,,,,,,,,,,,,,,,,,,,,,,,,,,,,,,,,,,,,,,,,,,,,0,3,3,3,1,,,,,,,,,,,,,,,,,,,,,,,,,,,,,,,,,,,,,,,,,
398315,001,2022-11-21_01h59.35.775,Info_measure_main_exp,2022.2.2,Win32,59.99880002,,,,,,,,,,,,,,,,,,masks/mask_001.jpg,,,,,,,,,,,,,,,,,,,,,,,,,,,,,,,,,,,,,,,,,,,,,,,0,4,4,0,1,,,,,,,,,,,,,,,,,,,,,,,,,,,,,,,,,,,,,,,,,
398315,001,2022-11-21_01h59.35.775,Info_measure_main_exp,2022.2.2,Win32,59.99880002,,,,,,,,,,,,,,,,,,,,,,,,,,,,,,7,1.6995,1,,,,,,,,,,,,0,131,5,5,2190,2178,absent_patch/patch0002190.jpg,absent_patch/patch0002178.jpg,,,,,,,,,,,,,,,,,,,0.020370413,0.054629608,1,0,0,response1disk,32,-0.001851824,0.010185171,1,0,0,center_square,0,31,31,14,1,,,,,,,,,,,,,,,,,,,,,,,
398315,001,2022-11-21_01h59.35.775,Info_measure_main_exp,2022.2.2,Win32,59.99880002,,,,,,,,,,,,,,,,,,masks/mask_002.jpg,,,,,,,,,,,,,,,,,,,,,,,,,,,,,,,,,,,,,,,,,,0,0,0,1,1,,,,,,,,,,,,,,,,,,,,,,,,,,,,,,,,,,,,,,,,,,,,,,
398315,001,2022-11-21_01h59.35.775,Info_measure_main_exp,2022.2.2,Win32,59.99880002,,,,,,,,,,,,,,,,,,masks/mask_003.jpg,,,,,,,,,,,,,,,,,,,,,,,,,,,,,,,,,,,,,,,,,,0,1,1,2,1,,,,,,,,,,,,,,,,,,,,,,,,,,,,,,,,,,,,,,,,,,,,,,
398315,001,2022-11-21_01h59.35.775,Info_measure_main_exp,2022.2.2,Win32,59.99880002,,,,,,,,,,,,,,,,,,masks/mask_005.jpg,,,,,,,,,,,,,,,,,,,,,,,,,,,,,,,,,,,,,,,,,,0,2,2,4,1,,,,,,,,,,,,,,,,,,,,,,,,,,,,,,,,,,,,,,,,,,,,,,
398315,001,2022-11-21_01h59.35.775,Info_measure_main_exp,2022.2.2,Win32,59.99880002,,,,,,,,,,,,,,,,,,masks/mask_004.jpg,,,,,,,,,,,,,,,,,,,,,,,,,,,,,,,,,,,,,,,,,,0,3,3,3,1,,,,,,,,,,,,,,,,,,,,,,,,,,,,,,,,,,,,,,,,,,,,,,
398315,001,2022-11-21_01h59.35.775,Info_measure_main_exp,2022.2.2,Win32,59.99880002,,,,,,,,,,,,,,,,,,masks/mask_001.jpg,,,,,,,,,,,,,,,,,,,,,,,,,,,,,,,,,,,,,,,,,,0,4,4,0,1,,,,,,,,,,,,,,,,,,,,,,,,,,,,,,,,,,,,,,,,,,,,,,
398315,001,2022-11-21_01h59.35.775,Info_measure_main_exp,2022.2.2,Win32,59.99880002,,,,,,,,,,,,,,,,,,masks/mask_005.jpg,,,,,,,,,,,,,,,,,,,,,,,,,,,,,,,,,,,,,,,,,,,,,,,0,0,0,4,1,,,,,,,,,,,,,,,,,,,,,,,,,,,,,,,,,,,,,,,,,
398315,001,2022-11-21_01h59.35.775,Info_measure_main_exp,2022.2.2,Win32,59.99880002,,,,,,,,,,,,,,,,,,masks/mask_003.jpg,,,,,,,,,,,,,,,,,,,,,,,,,,,,,,,,,,,,,,,,,,,,,,,0,1,1,2,1,,,,,,,,,,,,,,,,,,,,,,,,,,,,,,,,,,,,,,,,,
398315,001,2022-11-21_01h59.35.775,Info_measure_main_exp,2022.2.2,Win32,59.99880002,,,,,,,,,,,,,,,,,,masks/mask_004.jpg,,,,,,,,,,,,,,,,,,,,,,,,,,,,,,,,,,,,,,,,,,,,,,,0,2,2,3,1,,,,,,,,,,,,,,,,,,,,,,,,,,,,,,,,,,,,,,,,,
398315,001,2022-11-21_01h59.35.775,Info_measure_main_exp,2022.2.2,Win32,59.99880002,,,,,,,,,,,,,,,,,,masks/mask_001.jpg,,,,,,,,,,,,,,,,,,,,,,,,,,,,,,,,,,,,,,,,,,,,,,,0,3,3,0,1,,,,,,,,,,,,,,,,,,,,,,,,,,,,,,,,,,,,,,,,,
398315,001,2022-11-21_01h59.35.775,Info_measure_main_exp,2022.2.2,Win32,59.99880002,,,,,,,,,,,,,,,,,,masks/mask_002.jpg,,,,,,,,,,,,,,,,,,,,,,,,,,,,,,,,,,,,,,,,,,,,,,,0,4,4,1,1,,,,,,,,,,,,,,,,,,,,,,,,,,,,,,,,,,,,,,,,,
398315,001,2022-11-21_01h59.35.775,Info_measure_main_exp,2022.2.2,Win32,59.99880002,,,,,,,,,,,,,,,,,,,,,,,,,,,,,,1,1.2707,1,,,,,,,,,,,,0,131,5,5,2274,2238,absent_patch/patch0002274.jpg,absent_patch/patch0002238.jpg,,,,,,,,,,,,,,,,,,,-0.082407422,0.01203703,1,0,0,response7disk,33,0.012037065,0.005555541,1,0,0,center_square,0,32,32,91,1,,,,,,,,,,,,,,,,,,,,,,,
398315,001,2022-11-21_01h59.35.775,Info_measure_main_exp,2022.2.2,Win32,59.99880002,,,,,,,,,,,,,,,,,,masks/mask_002.jpg,,,,,,,,,,,,,,,,,,,,,,,,,,,,,,,,,,,,,,,,,,0,0,0,1,1,,,,,,,,,,,,,,,,,,,,,,,,,,,,,,,,,,,,,,,,,,,,,,
398315,001,2022-11-21_01h59.35.775,Info_measure_main_exp,2022.2.2,Win32,59.99880002,,,,,,,,,,,,,,,,,,masks/mask_001.jpg,,,,,,,,,,,,,,,,,,,,,,,,,,,,,,,,,,,,,,,,,,0,1,1,0,1,,,,,,,,,,,,,,,,,,,,,,,,,,,,,,,,,,,,,,,,,,,,,,
398315,001,2022-11-21_01h59.35.775,Info_measure_main_exp,2022.2.2,Win32,59.99880002,,,,,,,,,,,,,,,,,,masks/mask_004.jpg,,,,,,,,,,,,,,,,,,,,,,,,,,,,,,,,,,,,,,,,,,0,2,2,3,1,,,,,,,,,,,,,,,,,,,,,,,,,,,,,,,,,,,,,,,,,,,,,,
398315,001,2022-11-21_01h59.35.775,Info_measure_main_exp,2022.2.2,Win32,59.99880002,,,,,,,,,,,,,,,,,,masks/mask_003.jpg,,,,,,,,,,,,,,,,,,,,,,,,,,,,,,,,,,,,,,,,,,0,3,3,2,1,,,,,,,,,,,,,,,,,,,,,,,,,,,,,,,,,,,,,,,,,,,,,,
398315,001,2022-11-21_01h59.35.775,Info_measure_main_exp,2022.2.2,Win32,59.99880002,,,,,,,,,,,,,,,,,,masks/mask_005.jpg,,,,,,,,,,,,,,,,,,,,,,,,,,,,,,,,,,,,,,,,,,0,4,4,4,1,,,,,,,,,,,,,,,,,,,,,,,,,,,,,,,,,,,,,,,,,,,,,,
398315,001,2022-11-21_01h59.35.775,Info_measure_main_exp,2022.2.2,Win32,59.99880002,,,,,,,,,,,,,,,,,,masks/mask_004.jpg,,,,,,,,,,,,,,,,,,,,,,,,,,,,,,,,,,,,,,,,,,,,,,,0,0,0,3,1,,,,,,,,,,,,,,,,,,,,,,,,,,,,,,,,,,,,,,,,,
398315,001,2022-11-21_01h59.35.775,Info_measure_main_exp,2022.2.2,Win32,59.99880002,,,,,,,,,,,,,,,,,,masks/mask_001.jpg,,,,,,,,,,,,,,,,,,,,,,,,,,,,,,,,,,,,,,,,,,,,,,,0,1,1,0,1,,,,,,,,,,,,,,,,,,,,,,,,,,,,,,,,,,,,,,,,,
398315,001,2022-11-21_01h59.35.775,Info_measure_main_exp,2022.2.2,Win32,59.99880002,,,,,,,,,,,,,,,,,,masks/mask_005.jpg,,,,,,,,,,,,,,,,,,,,,,,,,,,,,,,,,,,,,,,,,,,,,,,0,2,2,4,1,,,,,,,,,,,,,,,,,,,,,,,,,,,,,,,,,,,,,,,,,
398315,001,2022-11-21_01h59.35.775,Info_measure_main_exp,2022.2.2,Win32,59.99880002,,,,,,,,,,,,,,,,,,masks/mask_003.jpg,,,,,,,,,,,,,,,,,,,,,,,,,,,,,,,,,,,,,,,,,,,,,,,0,3,3,2,1,,,,,,,,,,,,,,,,,,,,,,,,,,,,,,,,,,,,,,,,,
398315,001,2022-11-21_01h59.35.775,Info_measure_main_exp,2022.2.2,Win32,59.99880002,,,,,,,,,,,,,,,,,,masks/mask_002.jpg,,,,,,,,,,,,,,,,,,,,,,,,,,,,,,,,,,,,,,,,,,,,,,,0,4,4,1,1,,,,,,,,,,,,,,,,,,,,,,,,,,,,,,,,,,,,,,,,,
398315,001,2022-11-21_01h59.35.775,Info_measure_main_exp,2022.2.2,Win32,59.99880002,,,,,,,,,,,,,,,,,,,,,,,,,,,,,,6,1.3356,1,,,,,,,,,,,,0,131,5,5,2142,2238,absent_patch/patch0002142.jpg,absent_patch/patch0002238.jpg,,,,,,,,,,,,,,,,,,,0.032407407,0.018518519,1,0,0,response1disk,34,0.000925912,0.000925912,1,0,0,center_square,0,33,33,101,1,,,,,,,,,,,,,,,,,,,,,,,
398315,001,2022-11-21_01h59.35.775,Info_measure_main_exp,2022.2.2,Win32,59.99880002,,,,,,,,,,,,,,,,,,masks/mask_004.jpg,,,,,,,,,,,,,,,,,,,,,,,,,,,,,,,,,,,,,,,,,,0,0,0,3,1,,,,,,,,,,,,,,,,,,,,,,,,,,,,,,,,,,,,,,,,,,,,,,
398315,001,2022-11-21_01h59.35.775,Info_measure_main_exp,2022.2.2,Win32,59.99880002,,,,,,,,,,,,,,,,,,masks/mask_003.jpg,,,,,,,,,,,,,,,,,,,,,,,,,,,,,,,,,,,,,,,,,,0,1,1,2,1,,,,,,,,,,,,,,,,,,,,,,,,,,,,,,,,,,,,,,,,,,,,,,
398315,001,2022-11-21_01h59.35.775,Info_measure_main_exp,2022.2.2,Win32,59.99880002,,,,,,,,,,,,,,,,,,masks/mask_002.jpg,,,,,,,,,,,,,,,,,,,,,,,,,,,,,,,,,,,,,,,,,,0,2,2,1,1,,,,,,,,,,,,,,,,,,,,,,,,,,,,,,,,,,,,,,,,,,,,,,
398315,001,2022-11-21_01h59.35.775,Info_measure_main_exp,2022.2.2,Win32,59.99880002,,,,,,,,,,,,,,,,,,masks/mask_005.jpg,,,,,,,,,,,,,,,,,,,,,,,,,,,,,,,,,,,,,,,,,,0,3,3,4,1,,,,,,,,,,,,,,,,,,,,,,,,,,,,,,,,,,,,,,,,,,,,,,
398315,001,2022-11-21_01h59.35.775,Info_measure_main_exp,2022.2.2,Win32,59.99880002,,,,,,,,,,,,,,,,,,masks/mask_001.jpg,,,,,,,,,,,,,,,,,,,,,,,,,,,,,,,,,,,,,,,,,,0,4,4,0,1,,,,,,,,,,,,,,,,,,,,,,,,,,,,,,,,,,,,,,,,,,,,,,
398315,001,2022-11-21_01h59.35.775,Info_measure_main_exp,2022.2.2,Win32,59.99880002,,,,,,,,,,,,,,,,,,masks/mask_005.jpg,,,,,,,,,,,,,,,,,,,,,,,,,,,,,,,,,,,,,,,,,,,,,,,0,0,0,4,1,,,,,,,,,,,,,,,,,,,,,,,,,,,,,,,,,,,,,,,,,
398315,001,2022-11-21_01h59.35.775,Info_measure_main_exp,2022.2.2,Win32,59.99880002,,,,,,,,,,,,,,,,,,masks/mask_002.jpg,,,,,,,,,,,,,,,,,,,,,,,,,,,,,,,,,,,,,,,,,,,,,,,0,1,1,1,1,,,,,,,,,,,,,,,,,,,,,,,,,,,,,,,,,,,,,,,,,
398315,001,2022-11-21_01h59.35.775,Info_measure_main_exp,2022.2.2,Win32,59.99880002,,,,,,,,,,,,,,,,,,masks/mask_001.jpg,,,,,,,,,,,,,,,,,,,,,,,,,,,,,,,,,,,,,,,,,,,,,,,0,2,2,0,1,,,,,,,,,,,,,,,,,,,,,,,,,,,,,,,,,,,,,,,,,
398315,001,2022-11-21_01h59.35.775,Info_measure_main_exp,2022.2.2,Win32,59.99880002,,,,,,,,,,,,,,,,,,masks/mask_003.jpg,,,,,,,,,,,,,,,,,,,,,,,,,,,,,,,,,,,,,,,,,,,,,,,0,3,3,2,1,,,,,,,,,,,,,,,,,,,,,,,,,,,,,,,,,,,,,,,,,
398315,001,2022-11-21_01h59.35.775,Info_measure_main_exp,2022.2.2,Win32,59.99880002,,,,,,,,,,,,,,,,,,masks/mask_004.jpg,,,,,,,,,,,,,,,,,,,,,,,,,,,,,,,,,,,,,,,,,,,,,,,0,4,4,3,1,,,,,,,,,,,,,,,,,,,,,,,,,,,,,,,,,,,,,,,,,
