participant,session,date,expName,psychopyVersion,OS,frameRate,space_press_continue.keys,space_press_continue.rt,space_press_continue_2.keys,space_press_continue_2.rt,space_press_continue_3.keys,space_press_continue_3.rt,space_press_continue_4.keys,space_press_continue_4.rt,space_press_continue_5.keys,space_press_continue_5.rt,space_press_continue_6.keys,space_press_continue_6.rt,prac_mask_loop_1.thisRepN,prac_mask_loop_1.thisTrialN,prac_mask_loop_1.thisN,prac_mask_loop_1.thisIndex,prac_mask_loop_1.ran,mask_name,prac_mask_loop_2.thisRepN,prac_mask_loop_2.thisTrialN,prac_mask_loop_2.thisN,prac_mask_loop_2.thisIndex,prac_mask_loop_2.ran,mouse_2.x,mouse_2.y,mouse_2.leftButton,mouse_2.midButton,mouse_2.rightButton,mouse_2.clicked_name,similarity,response_time,Pass,mouse_12.x,mouse_12.y,mouse_12.leftButton,mouse_12.midButton,mouse_12.rightButton,mouse_12.clicked_name,prac_loop.thisRepN,prac_loop.thisTrialN,prac_loop.thisN,prac_loop.thisIndex,prac_loop.ran,Pair_type,Image_num,Patch_1_loc,Patch_2_loc,Patch_1_info,Patch_2_info,Patch_1_name,Patch_2_name,mouse_1.x,mouse_1.y,mouse_1.leftButton,mouse_1.midButton,mouse_1.rightButton,mouse_1.time,mouse_1.clicked_name,space_press_continue_7.keys,space_press_continue_7.rt,mask_loop.thisRepN,mask_loop.thisTrialN,mask_loop.thisN,mask_loop.thisIndex,mask_loop.ran,mask_loop_2.thisRepN,mask_loop_2.thisTrialN,mask_loop_2.thisN,mask_loop_2.thisIndex,mask_loop_2.ran,mouse.x,mouse.y,mouse.leftButton,mouse.midButton,mouse.rightButton,mouse.clicked_name,trialNumber,mouse_11.x,mouse_11.y,mouse_11.leftButton,mouse_11.midButton,mouse_11.rightButton,mouse_11.clicked_name,first_pass_loop.thisRepN,first_pass_loop.thisTrialN,first_pass_loop.thisN,first_pass_loop.thisIndex,first_pass_loop.ran,mask_loop_3.thisRepN,mask_loop_3.thisTrialN,mask_loop_3.thisN,mask_loop_3.thisIndex,mask_loop_3.ran,mask_loop_4.thisRepN,mask_loop_4.thisTrialN,mask_loop_4.thisN,mask_loop_4.thisIndex,mask_loop_4.ran,mouse_3.x,mouse_3.y,mouse_3.leftButton,mouse_3.midButton,mouse_3.rightButton,mouse_3.clicked_name,double_pass_loop.thisRepN,double_pass_loop.thisTrialN,double_pass_loop.thisN,double_pass_loop.thisIndex,double_pass_loop.ran,space_exit.keys,space_exit.rt
398863,001,2022-11-21_00h21.18.113,Info_measure_main_exp,2022.2.2,Linux x86_64,30.03003003,,,,,,,,,,,,,,,,,,,,,,,,,,,,,,,,,,,,,,,,,,,,,,,,,,,,,,,,,,,,,,,,,,,,,,,,,,,,,,,,,,,,,,,,,,,,,,,,,,,,,,,,,,,,,,,
398863,001,2022-11-21_00h21.18.113,Info_measure_main_exp,2022.2.2,Linux x86_64,30.03003003,,,,,,,,,,,,,,,,,,,,,,,,,,,,,,,,,,,,,,,,,,,,,,,,,,,,,,,,,,,,,,,,,,,,,,,,,,,,,,,,,,,,,,,,,,,,,,,,,,,,,,,,,,,,,,,
398863,001,2022-11-21_00h21.18.113,Info_measure_main_exp,2022.2.2,Linux x86_64,30.03003003,space,35.332,,,,,,,,,,,,,,,,,,,,,,,,,,,,,,,,,,,,,,,,,,,,,,,,,,,,,,,,,,,,,,,,,,,,,,,,,,,,,,,,,,,,,,,,,,,,,,,,,,,,,,,,,,,,,
398863,001,2022-11-21_00h21.18.113,Info_measure_main_exp,2022.2.2,Linux x86_64,30.03003003,,,space,0.674,,,,,,,,,,,,,,,,,,,,,,,,,,,,,,,,,,,,,,,,,,,,,,,,,,,,,,,,,,,,,,,,,,,,,,,,,,,,,,,,,,,,,,,,,,,,,,,,,,,,,,,,,,,
398863,001,2022-11-21_00h21.18.113,Info_measure_main_exp,2022.2.2,Linux x86_64,30.03003003,,,,,space,0.468,,,,,,,,,,,,,,,,,,,,,,,,,,,,,,,,,,,,,,,,,,,,,,,,,,,,,,,,,,,,,,,,,,,,,,,,,,,,,,,,,,,,,,,,,,,,,,,,,,,,,,,,,
398863,001,2022-11-21_00h21.18.113,Info_measure_main_exp,2022.2.2,Linux x86_64,30.03003003,,,,,,,space,0.882,,,,,,,,,,,,,,,,,,,,,,,,,,,,,,,,,,,,,,,,,,,,,,,,,,,,,,,,,,,,,,,,,,,,,,,,,,,,,,,,,,,,,,,,,,,,,,,,,,,,,,,
398863,001,2022-11-21_00h21.18.113,Info_measure_main_exp,2022.2.2,Linux x86_64,30.03003003,,,,,,,,,space,0.519,,,,,,,,,,,,,,,,,,,,,,,,,,,,,,,,,,,,,,,,,,,,,,,,,,,,,,,,,,,,,,,,,,,,,,,,,,,,,,,,,,,,,,,,,,,,,,,,,,,,,
398863,001,2022-11-21_00h21.18.113,Info_measure_main_exp,2022.2.2,Linux x86_64,30.03003003,,,,,,,,,,,space,0.59,,,,,,,,,,,,,,,,,,,,,,,,,,,,,,,,,,,,,,,,,,,,,,,,,,,,,,,,,,,,,,,,,,,,,,,,,,,,,,,,,,,,,,,,,,,,,,,,,,,
398863,001,2022-11-21_00h21.18.113,Info_measure_main_exp,2022.2.2,Linux x86_64,30.03003003,,,,,,,,,,,,,0,0,0,2,1,masks/mask_003.jpg,,,,,,,,,,,,,,,,,,,,,,,,,,,,,,,,,,,,,,,,,,,,,,,,,,,,,,,,,,,,,,,,,,,,,,,,,,,,,,,,,,,,,,,,,,,,,
398863,001,2022-11-21_00h21.18.113,Info_measure_main_exp,2022.2.2,Linux x86_64,30.03003003,,,,,,,,,,,,,0,1,1,3,1,masks/mask_004.jpg,,,,,,,,,,,,,,,,,,,,,,,,,,,,,,,,,,,,,,,,,,,,,,,,,,,,,,,,,,,,,,,,,,,,,,,,,,,,,,,,,,,,,,,,,,,,,
398863,001,2022-11-21_00h21.18.113,Info_measure_main_exp,2022.2.2,Linux x86_64,30.03003003,,,,,,,,,,,,,0,2,2,1,1,masks/mask_002.jpg,,,,,,,,,,,,,,,,,,,,,,,,,,,,,,,,,,,,,,,,,,,,,,,,,,,,,,,,,,,,,,,,,,,,,,,,,,,,,,,,,,,,,,,,,,,,,
398863,001,2022-11-21_00h21.18.113,Info_measure_main_exp,2022.2.2,Linux x86_64,30.03003003,,,,,,,,,,,,,0,3,3,4,1,masks/mask_005.jpg,,,,,,,,,,,,,,,,,,,,,,,,,,,,,,,,,,,,,,,,,,,,,,,,,,,,,,,,,,,,,,,,,,,,,,,,,,,,,,,,,,,,,,,,,,,,,
398863,001,2022-11-21_00h21.18.113,Info_measure_main_exp,2022.2.2,Linux x86_64,30.03003003,,,,,,,,,,,,,0,4,4,0,1,masks/mask_001.jpg,,,,,,,,,,,,,,,,,,,,,,,,,,,,,,,,,,,,,,,,,,,,,,,,,,,,,,,,,,,,,,,,,,,,,,,,,,,,,,,,,,,,,,,,,,,,,
398863,001,2022-11-21_00h21.18.113,Info_measure_main_exp,2022.2.2,Linux x86_64,30.03003003,,,,,,,,,,,,,,,,,,masks/mask_001.jpg,0,0,0,0,1,,,,,,,,,,,,,,,,,,,,,,,,,,,,,,,,,,,,,,,,,,,,,,,,,,,,,,,,,,,,,,,,,,,,,,,,,,,,,,,,,,,,,,,,
398863,001,2022-11-21_00h21.18.113,Info_measure_main_exp,2022.2.2,Linux x86_64,30.03003003,,,,,,,,,,,,,,,,,,masks/mask_004.jpg,0,1,1,3,1,,,,,,,,,,,,,,,,,,,,,,,,,,,,,,,,,,,,,,,,,,,,,,,,,,,,,,,,,,,,,,,,,,,,,,,,,,,,,,,,,,,,,,,,
398863,001,2022-11-21_00h21.18.113,Info_measure_main_exp,2022.2.2,Linux x86_64,30.03003003,,,,,,,,,,,,,,,,,,masks/mask_002.jpg,0,2,2,1,1,,,,,,,,,,,,,,,,,,,,,,,,,,,,,,,,,,,,,,,,,,,,,,,,,,,,,,,,,,,,,,,,,,,,,,,,,,,,,,,,,,,,,,,,
398863,001,2022-11-21_00h21.18.113,Info_measure_main_exp,2022.2.2,Linux x86_64,30.03003003,,,,,,,,,,,,,,,,,,masks/mask_005.jpg,0,3,3,4,1,,,,,,,,,,,,,,,,,,,,,,,,,,,,,,,,,,,,,,,,,,,,,,,,,,,,,,,,,,,,,,,,,,,,,,,,,,,,,,,,,,,,,,,,
398863,001,2022-11-21_00h21.18.113,Info_measure_main_exp,2022.2.2,Linux x86_64,30.03003003,,,,,,,,,,,,,,,,,,masks/mask_003.jpg,0,4,4,2,1,,,,,,,,,,,,,,,,,,,,,,,,,,,,,,,,,,,,,,,,,,,,,,,,,,,,,,,,,,,,,,,,,,,,,,,,,,,,,,,,,,,,,,,,
398863,001,2022-11-21_00h21.18.113,Info_measure_main_exp,2022.2.2,Linux x86_64,30.03003003,,,,,,,,,,,,,,,,,,,,,,,,-0.06805075,-0.141291811,1,0,0,response5disk,3,41.632,1,-0.003460208,0.008650519,1,0,0,center_square,0,0,0,0,1,0,131,5,5,2370,2406,prac_patch/patch0002370.jpg,prac_patch/patch0002406.jpg,,,,,,,,,,,,,,,,,,,,,,,,,,,,,,,,,,,,,,,,,,,,,,,,,,,,,,,,,,,,
398863,001,2022-11-21_00h21.18.113,Info_measure_main_exp,2022.2.2,Linux x86_64,30.03003003,,,,,,,,,,,,,0,0,0,3,1,masks/mask_004.jpg,,,,,,,,,,,,,,,,,,,,,,,,,,,,,,,,,,,,,,,,,,,,,,,,,,,,,,,,,,,,,,,,,,,,,,,,,,,,,,,,,,,,,,,,,,,,,
398863,001,2022-11-21_00h21.18.113,Info_measure_main_exp,2022.2.2,Linux x86_64,30.03003003,,,,,,,,,,,,,0,1,1,4,1,masks/mask_005.jpg,,,,,,,,,,,,,,,,,,,,,,,,,,,,,,,,,,,,,,,,,,,,,,,,,,,,,,,,,,,,,,,,,,,,,,,,,,,,,,,,,,,,,,,,,,,,,
398863,001,2022-11-21_00h21.18.113,Info_measure_main_exp,2022.2.2,Linux x86_64,30.03003003,,,,,,,,,,,,,0,2,2,2,1,masks/mask_003.jpg,,,,,,,,,,,,,,,,,,,,,,,,,,,,,,,,,,,,,,,,,,,,,,,,,,,,,,,,,,,,,,,,,,,,,,,,,,,,,,,,,,,,,,,,,,,,,
398863,001,2022-11-21_00h21.18.113,Info_measure_main_exp,2022.2.2,Linux x86_64,30.03003003,,,,,,,,,,,,,0,3,3,0,1,masks/mask_001.jpg,,,,,,,,,,,,,,,,,,,,,,,,,,,,,,,,,,,,,,,,,,,,,,,,,,,,,,,,,,,,,,,,,,,,,,,,,,,,,,,,,,,,,,,,,,,,,
398863,001,2022-11-21_00h21.18.113,Info_measure_main_exp,2022.2.2,Linux x86_64,30.03003003,,,,,,,,,,,,,0,4,4,1,1,masks/mask_002.jpg,,,,,,,,,,,,,,,,,,,,,,,,,,,,,,,,,,,,,,,,,,,,,,,,,,,,,,,,,,,,,,,,,,,,,,,,,,,,,,,,,,,,,,,,,,,,,
398863,001,2022-11-21_00h21.18.113,Info_measure_main_exp,2022.2.2,Linux x86_64,30.03003003,,,,,,,,,,,,,,,,,,masks/mask_003.jpg,0,0,0,2,1,,,,,,,,,,,,,,,,,,,,,,,,,,,,,,,,,,,,,,,,,,,,,,,,,,,,,,,,,,,,,,,,,,,,,,,,,,,,,,,,,,,,,,,,
398863,001,2022-11-21_00h21.18.113,Info_measure_main_exp,2022.2.2,Linux x86_64,30.03003003,,,,,,,,,,,,,,,,,,masks/mask_002.jpg,0,1,1,1,1,,,,,,,,,,,,,,,,,,,,,,,,,,,,,,,,,,,,,,,,,,,,,,,,,,,,,,,,,,,,,,,,,,,,,,,,,,,,,,,,,,,,,,,,
398863,001,2022-11-21_00h21.18.113,Info_measure_main_exp,2022.2.2,Linux x86_64,30.03003003,,,,,,,,,,,,,,,,,,masks/mask_005.jpg,0,2,2,4,1,,,,,,,,,,,,,,,,,,,,,,,,,,,,,,,,,,,,,,,,,,,,,,,,,,,,,,,,,,,,,,,,,,,,,,,,,,,,,,,,,,,,,,,,
398863,001,2022-11-21_00h21.18.113,Info_measure_main_exp,2022.2.2,Linux x86_64,30.03003003,,,,,,,,,,,,,,,,,,masks/mask_001.jpg,0,3,3,0,1,,,,,,,,,,,,,,,,,,,,,,,,,,,,,,,,,,,,,,,,,,,,,,,,,,,,,,,,,,,,,,,,,,,,,,,,,,,,,,,,,,,,,,,,
398863,001,2022-11-21_00h21.18.113,Info_measure_main_exp,2022.2.2,Linux x86_64,30.03003003,,,,,,,,,,,,,,,,,,masks/mask_004.jpg,0,4,4,3,1,,,,,,,,,,,,,,,,,,,,,,,,,,,,,,,,,,,,,,,,,,,,,,,,,,,,,,,,,,,,,,,,,,,,,,,,,,,,,,,,,,,,,,,,
398863,001,2022-11-21_00h21.18.113,Info_measure_main_exp,2022.2.2,Linux x86_64,30.03003003,,,,,,,,,,,,,,,,,,,,,,,,-0.047289504,0.100922722,1,0,0,response7disk,0,49.687,1,0.00461361,0.001730104,1,0,0,center_square,0,1,1,2,1,0,131,5,5,2526,2526,prac_patch/patch0002526.jpg,prac_patch/patch0002526.jpg,,,,,,,,,,,,,,,,,,,,,,,,,,,,,,,,,,,,,,,,,,,,,,,,,,,,,,,,,,,,
398863,001,2022-11-21_00h21.18.113,Info_measure_main_exp,2022.2.2,Linux x86_64,30.03003003,,,,,,,,,,,,,0,0,0,1,1,masks/mask_002.jpg,,,,,,,,,,,,,,,,,,,,,,,,,,,,,,,,,,,,,,,,,,,,,,,,,,,,,,,,,,,,,,,,,,,,,,,,,,,,,,,,,,,,,,,,,,,,,
398863,001,2022-11-21_00h21.18.113,Info_measure_main_exp,2022.2.2,Linux x86_64,30.03003003,,,,,,,,,,,,,0,1,1,4,1,masks/mask_005.jpg,,,,,,,,,,,,,,,,,,,,,,,,,,,,,,,,,,,,,,,,,,,,,,,,,,,,,,,,,,,,,,,,,,,,,,,,,,,,,,,,,,,,,,,,,,,,,
398863,001,2022-11-21_00h21.18.113,Info_measure_main_exp,2022.2.2,Linux x86_64,30.03003003,,,,,,,,,,,,,0,2,2,3,1,masks/mask_004.jpg,,,,,,,,,,,,,,,,,,,,,,,,,,,,,,,,,,,,,,,,,,,,,,,,,,,,,,,,,,,,,,,,,,,,,,,,,,,,,,,,,,,,,,,,,,,,,
398863,001,2022-11-21_00h21.18.113,Info_measure_main_exp,2022.2.2,Linux x86_64,30.03003003,,,,,,,,,,,,,0,3,3,0,1,masks/mask_001.jpg,,,,,,,,,,,,,,,,,,,,,,,,,,,,,,,,,,,,,,,,,,,,,,,,,,,,,,,,,,,,,,,,,,,,,,,,,,,,,,,,,,,,,,,,,,,,,
398863,001,2022-11-21_00h21.18.113,Info_measure_main_exp,2022.2.2,Linux x86_64,30.03003003,,,,,,,,,,,,,0,4,4,2,1,masks/mask_003.jpg,,,,,,,,,,,,,,,,,,,,,,,,,,,,,,,,,,,,,,,,,,,,,,,,,,,,,,,,,,,,,,,,,,,,,,,,,,,,,,,,,,,,,,,,,,,,,
398863,001,2022-11-21_00h21.18.113,Info_measure_main_exp,2022.2.2,Linux x86_64,30.03003003,,,,,,,,,,,,,,,,,,masks/mask_004.jpg,0,0,0,3,1,,,,,,,,,,,,,,,,,,,,,,,,,,,,,,,,,,,,,,,,,,,,,,,,,,,,,,,,,,,,,,,,,,,,,,,,,,,,,,,,,,,,,,,,
398863,001,2022-11-21_00h21.18.113,Info_measure_main_exp,2022.2.2,Linux x86_64,30.03003003,,,,,,,,,,,,,,,,,,masks/mask_001.jpg,0,1,1,0,1,,,,,,,,,,,,,,,,,,,,,,,,,,,,,,,,,,,,,,,,,,,,,,,,,,,,,,,,,,,,,,,,,,,,,,,,,,,,,,,,,,,,,,,,
398863,001,2022-11-21_00h21.18.113,Info_measure_main_exp,2022.2.2,Linux x86_64,30.03003003,,,,,,,,,,,,,,,,,,masks/mask_005.jpg,0,2,2,4,1,,,,,,,,,,,,,,,,,,,,,,,,,,,,,,,,,,,,,,,,,,,,,,,,,,,,,,,,,,,,,,,,,,,,,,,,,,,,,,,,,,,,,,,,
398863,001,2022-11-21_00h21.18.113,Info_measure_main_exp,2022.2.2,Linux x86_64,30.03003003,,,,,,,,,,,,,,,,,,masks/mask_003.jpg,0,3,3,2,1,,,,,,,,,,,,,,,,,,,,,,,,,,,,,,,,,,,,,,,,,,,,,,,,,,,,,,,,,,,,,,,,,,,,,,,,,,,,,,,,,,,,,,,,
398863,001,2022-11-21_00h21.18.113,Info_measure_main_exp,2022.2.2,Linux x86_64,30.03003003,,,,,,,,,,,,,,,,,,masks/mask_002.jpg,0,4,4,1,1,,,,,,,,,,,,,,,,,,,,,,,,,,,,,,,,,,,,,,,,,,,,,,,,,,,,,,,,,,,,,,,,,,,,,,,,,,,,,,,,,,,,,,,,
398863,001,2022-11-21_00h21.18.113,Info_measure_main_exp,2022.2.2,Linux x86_64,30.03003003,,,,,,,,,,,,,,,,,,,,,,,,0.048442907,0.201268743,1,0,0,response1disk,7,57.596,1,0.003460208,0.006343714,1,0,0,center_square,0,2,2,1,1,0,131,5,5,2514,2490,prac_patch/patch0002514.jpg,prac_patch/patch0002490.jpg,,,,,,,,,,,,,,,,,,,,,,,,,,,,,,,,,,,,,,,,,,,,,,,,,,,,,,,,,,,,
398863,001,2022-11-21_00h21.18.113,Info_measure_main_exp,2022.2.2,Linux x86_64,30.03003003,,,,,,,,,,,,,,,,,,,,,,,,,,,,,,,,,,,,,,,,,,,,,,,,,,,,0.213379469,-0.126297578,1,0,0,16.466,,space,16.806,,,,,,,,,,,,,,,,,,,,,,,,,,,,,,,,,,,,,,,,,,,,,,,,,,,
398863,001,2022-11-21_00h21.18.113,Info_measure_main_exp,2022.2.2,Linux x86_64,30.03003003,,,,,,,,,,,,,,,,,,masks/mask_005.jpg,,,,,,,,,,,,,,,,,,,,,,,,,,,,,,,,,,,,,,,,,,,0,0,0,4,1,,,,,,,,,,,,,,,,,,,,,,,,,,,,,,,,,,,,,,,,,,,,,,
398863,001,2022-11-21_00h21.18.113,Info_measure_main_exp,2022.2.2,Linux x86_64,30.03003003,,,,,,,,,,,,,,,,,,masks/mask_001.jpg,,,,,,,,,,,,,,,,,,,,,,,,,,,,,,,,,,,,,,,,,,,0,1,1,0,1,,,,,,,,,,,,,,,,,,,,,,,,,,,,,,,,,,,,,,,,,,,,,,
398863,001,2022-11-21_00h21.18.113,Info_measure_main_exp,2022.2.2,Linux x86_64,30.03003003,,,,,,,,,,,,,,,,,,masks/mask_002.jpg,,,,,,,,,,,,,,,,,,,,,,,,,,,,,,,,,,,,,,,,,,,0,2,2,1,1,,,,,,,,,,,,,,,,,,,,,,,,,,,,,,,,,,,,,,,,,,,,,,
398863,001,2022-11-21_00h21.18.113,Info_measure_main_exp,2022.2.2,Linux x86_64,30.03003003,,,,,,,,,,,,,,,,,,masks/mask_004.jpg,,,,,,,,,,,,,,,,,,,,,,,,,,,,,,,,,,,,,,,,,,,0,3,3,3,1,,,,,,,,,,,,,,,,,,,,,,,,,,,,,,,,,,,,,,,,,,,,,,
398863,001,2022-11-21_00h21.18.113,Info_measure_main_exp,2022.2.2,Linux x86_64,30.03003003,,,,,,,,,,,,,,,,,,masks/mask_003.jpg,,,,,,,,,,,,,,,,,,,,,,,,,,,,,,,,,,,,,,,,,,,0,4,4,2,1,,,,,,,,,,,,,,,,,,,,,,,,,,,,,,,,,,,,,,,,,,,,,,
398863,001,2022-11-21_00h21.18.113,Info_measure_main_exp,2022.2.2,Linux x86_64,30.03003003,,,,,,,,,,,,,,,,,,masks/mask_005.jpg,,,,,,,,,,,,,,,,,,,,,,,,,,,,,,,,,,,,,,,,,,,,,,,,0,0,0,4,1,,,,,,,,,,,,,,,,,,,,,,,,,,,,,,,,,,,,,,,,,
398863,001,2022-11-21_00h21.18.113,Info_measure_main_exp,2022.2.2,Linux x86_64,30.03003003,,,,,,,,,,,,,,,,,,masks/mask_003.jpg,,,,,,,,,,,,,,,,,,,,,,,,,,,,,,,,,,,,,,,,,,,,,,,,0,1,1,2,1,,,,,,,,,,,,,,,,,,,,,,,,,,,,,,,,,,,,,,,,,
398863,001,2022-11-21_00h21.18.113,Info_measure_main_exp,2022.2.2,Linux x86_64,30.03003003,,,,,,,,,,,,,,,,,,masks/mask_002.jpg,,,,,,,,,,,,,,,,,,,,,,,,,,,,,,,,,,,,,,,,,,,,,,,,0,2,2,1,1,,,,,,,,,,,,,,,,,,,,,,,,,,,,,,,,,,,,,,,,,
398863,001,2022-11-21_00h21.18.113,Info_measure_main_exp,2022.2.2,Linux x86_64,30.03003003,,,,,,,,,,,,,,,,,,masks/mask_001.jpg,,,,,,,,,,,,,,,,,,,,,,,,,,,,,,,,,,,,,,,,,,,,,,,,0,3,3,0,1,,,,,,,,,,,,,,,,,,,,,,,,,,,,,,,,,,,,,,,,,
398863,001,2022-11-21_00h21.18.113,Info_measure_main_exp,2022.2.2,Linux x86_64,30.03003003,,,,,,,,,,,,,,,,,,masks/mask_004.jpg,,,,,,,,,,,,,,,,,,,,,,,,,,,,,,,,,,,,,,,,,,,,,,,,0,4,4,3,1,,,,,,,,,,,,,,,,,,,,,,,,,,,,,,,,,,,,,,,,,
398863,001,2022-11-21_00h21.18.113,Info_measure_main_exp,2022.2.2,Linux x86_64,30.03003003,,,,,,,,,,,,,,,,,,,,,,,,,,,,,,7,0.803,1,,,,,,,,,,,,0,131,5,5,2250,2142,absent_patch/patch0002250.jpg,absent_patch/patch0002142.jpg,,,,,,,,,,,,,,,,,,,,0.038062284,0.147058824,1,0,0,response1disk,1,-0.005767013,-0.001730104,1,0,0,center_square,0,0,0,71,1,,,,,,,,,,,,,,,,,,,,,,,
398863,001,2022-11-21_00h21.18.113,Info_measure_main_exp,2022.2.2,Linux x86_64,30.03003003,,,,,,,,,,,,,,,,,,masks/mask_003.jpg,,,,,,,,,,,,,,,,,,,,,,,,,,,,,,,,,,,,,,,,,,,0,0,0,2,1,,,,,,,,,,,,,,,,,,,,,,,,,,,,,,,,,,,,,,,,,,,,,,
398863,001,2022-11-21_00h21.18.113,Info_measure_main_exp,2022.2.2,Linux x86_64,30.03003003,,,,,,,,,,,,,,,,,,masks/mask_005.jpg,,,,,,,,,,,,,,,,,,,,,,,,,,,,,,,,,,,,,,,,,,,0,1,1,4,1,,,,,,,,,,,,,,,,,,,,,,,,,,,,,,,,,,,,,,,,,,,,,,
398863,001,2022-11-21_00h21.18.113,Info_measure_main_exp,2022.2.2,Linux x86_64,30.03003003,,,,,,,,,,,,,,,,,,masks/mask_002.jpg,,,,,,,,,,,,,,,,,,,,,,,,,,,,,,,,,,,,,,,,,,,0,2,2,1,1,,,,,,,,,,,,,,,,,,,,,,,,,,,,,,,,,,,,,,,,,,,,,,
398863,001,2022-11-21_00h21.18.113,Info_measure_main_exp,2022.2.2,Linux x86_64,30.03003003,,,,,,,,,,,,,,,,,,masks/mask_001.jpg,,,,,,,,,,,,,,,,,,,,,,,,,,,,,,,,,,,,,,,,,,,0,3,3,0,1,,,,,,,,,,,,,,,,,,,,,,,,,,,,,,,,,,,,,,,,,,,,,,
398863,001,2022-11-21_00h21.18.113,Info_measure_main_exp,2022.2.2,Linux x86_64,30.03003003,,,,,,,,,,,,,,,,,,masks/mask_004.jpg,,,,,,,,,,,,,,,,,,,,,,,,,,,,,,,,,,,,,,,,,,,0,4,4,3,1,,,,,,,,,,,,,,,,,,,,,,,,,,,,,,,,,,,,,,,,,,,,,,
398863,001,2022-11-21_00h21.18.113,Info_measure_main_exp,2022.2.2,Linux x86_64,30.03003003,,,,,,,,,,,,,,,,,,masks/mask_002.jpg,,,,,,,,,,,,,,,,,,,,,,,,,,,,,,,,,,,,,,,,,,,,,,,,0,0,0,1,1,,,,,,,,,,,,,,,,,,,,,,,,,,,,,,,,,,,,,,,,,
398863,001,2022-11-21_00h21.18.113,Info_measure_main_exp,2022.2.2,Linux x86_64,30.03003003,,,,,,,,,,,,,,,,,,masks/mask_001.jpg,,,,,,,,,,,,,,,,,,,,,,,,,,,,,,,,,,,,,,,,,,,,,,,,0,1,1,0,1,,,,,,,,,,,,,,,,,,,,,,,,,,,,,,,,,,,,,,,,,
398863,001,2022-11-21_00h21.18.113,Info_measure_main_exp,2022.2.2,Linux x86_64,30.03003003,,,,,,,,,,,,,,,,,,masks/mask_005.jpg,,,,,,,,,,,,,,,,,,,,,,,,,,,,,,,,,,,,,,,,,,,,,,,,0,2,2,4,1,,,,,,,,,,,,,,,,,,,,,,,,,,,,,,,,,,,,,,,,,
398863,001,2022-11-21_00h21.18.113,Info_measure_main_exp,2022.2.2,Linux x86_64,30.03003003,,,,,,,,,,,,,,,,,,masks/mask_003.jpg,,,,,,,,,,,,,,,,,,,,,,,,,,,,,,,,,,,,,,,,,,,,,,,,0,3,3,2,1,,,,,,,,,,,,,,,,,,,,,,,,,,,,,,,,,,,,,,,,,
398863,001,2022-11-21_00h21.18.113,Info_measure_main_exp,2022.2.2,Linux x86_64,30.03003003,,,,,,,,,,,,,,,,,,masks/mask_004.jpg,,,,,,,,,,,,,,,,,,,,,,,,,,,,,,,,,,,,,,,,,,,,,,,,0,4,4,3,1,,,,,,,,,,,,,,,,,,,,,,,,,,,,,,,,,,,,,,,,,
398863,001,2022-11-21_00h21.18.113,Info_measure_main_exp,2022.2.2,Linux x86_64,30.03003003,,,,,,,,,,,,,,,,,,,,,,,,,,,,,,7,0.736,1,,,,,,,,,,,,0,131,5,5,1986,2142,absent_patch/patch0001986.jpg,absent_patch/patch0002142.jpg,,,,,,,,,,,,,,,,,,,,0.023068051,0.079008074,1,0,0,response1disk,2,0.006920415,0.005190311,1,0,0,center_square,0,1,1,76,1,,,,,,,,,,,,,,,,,,,,,,,
398863,001,2022-11-21_00h21.18.113,Info_measure_main_exp,2022.2.2,Linux x86_64,30.03003003,,,,,,,,,,,,,,,,,,masks/mask_002.jpg,,,,,,,,,,,,,,,,,,,,,,,,,,,,,,,,,,,,,,,,,,,0,0,0,1,1,,,,,,,,,,,,,,,,,,,,,,,,,,,,,,,,,,,,,,,,,,,,,,
398863,001,2022-11-21_00h21.18.113,Info_measure_main_exp,2022.2.2,Linux x86_64,30.03003003,,,,,,,,,,,,,,,,,,masks/mask_004.jpg,,,,,,,,,,,,,,,,,,,,,,,,,,,,,,,,,,,,,,,,,,,0,1,1,3,1,,,,,,,,,,,,,,,,,,,,,,,,,,,,,,,,,,,,,,,,,,,,,,
398863,001,2022-11-21_00h21.18.113,Info_measure_main_exp,2022.2.2,Linux x86_64,30.03003003,,,,,,,,,,,,,,,,,,masks/mask_003.jpg,,,,,,,,,,,,,,,,,,,,,,,,,,,,,,,,,,,,,,,,,,,0,2,2,2,1,,,,,,,,,,,,,,,,,,,,,,,,,,,,,,,,,,,,,,,,,,,,,,
398863,001,2022-11-21_00h21.18.113,Info_measure_main_exp,2022.2.2,Linux x86_64,30.03003003,,,,,,,,,,,,,,,,,,masks/mask_001.jpg,,,,,,,,,,,,,,,,,,,,,,,,,,,,,,,,,,,,,,,,,,,0,3,3,0,1,,,,,,,,,,,,,,,,,,,,,,,,,,,,,,,,,,,,,,,,,,,,,,
398863,001,2022-11-21_00h21.18.113,Info_measure_main_exp,2022.2.2,Linux x86_64,30.03003003,,,,,,,,,,,,,,,,,,masks/mask_005.jpg,,,,,,,,,,,,,,,,,,,,,,,,,,,,,,,,,,,,,,,,,,,0,4,4,4,1,,,,,,,,,,,,,,,,,,,,,,,,,,,,,,,,,,,,,,,,,,,,,,
398863,001,2022-11-21_00h21.18.113,Info_measure_main_exp,2022.2.2,Linux x86_64,30.03003003,,,,,,,,,,,,,,,,,,masks/mask_003.jpg,,,,,,,,,,,,,,,,,,,,,,,,,,,,,,,,,,,,,,,,,,,,,,,,0,0,0,2,1,,,,,,,,,,,,,,,,,,,,,,,,,,,,,,,,,,,,,,,,,
398863,001,2022-11-21_00h21.18.113,Info_measure_main_exp,2022.2.2,Linux x86_64,30.03003003,,,,,,,,,,,,,,,,,,masks/mask_001.jpg,,,,,,,,,,,,,,,,,,,,,,,,,,,,,,,,,,,,,,,,,,,,,,,,0,1,1,0,1,,,,,,,,,,,,,,,,,,,,,,,,,,,,,,,,,,,,,,,,,
398863,001,2022-11-21_00h21.18.113,Info_measure_main_exp,2022.2.2,Linux x86_64,30.03003003,,,,,,,,,,,,,,,,,,masks/mask_004.jpg,,,,,,,,,,,,,,,,,,,,,,,,,,,,,,,,,,,,,,,,,,,,,,,,0,2,2,3,1,,,,,,,,,,,,,,,,,,,,,,,,,,,,,,,,,,,,,,,,,
398863,001,2022-11-21_00h21.18.113,Info_measure_main_exp,2022.2.2,Linux x86_64,30.03003003,,,,,,,,,,,,,,,,,,masks/mask_005.jpg,,,,,,,,,,,,,,,,,,,,,,,,,,,,,,,,,,,,,,,,,,,,,,,,0,3,3,4,1,,,,,,,,,,,,,,,,,,,,,,,,,,,,,,,,,,,,,,,,,
398863,001,2022-11-21_00h21.18.113,Info_measure_main_exp,2022.2.2,Linux x86_64,30.03003003,,,,,,,,,,,,,,,,,,masks/mask_002.jpg,,,,,,,,,,,,,,,,,,,,,,,,,,,,,,,,,,,,,,,,,,,,,,,,0,4,4,1,1,,,,,,,,,,,,,,,,,,,,,,,,,,,,,,,,,,,,,,,,,
398863,001,2022-11-21_00h21.18.113,Info_measure_main_exp,2022.2.2,Linux x86_64,30.03003003,,,,,,,,,,,,,,,,,,,,,,,,,,,,,,7,0.499,1,,,,,,,,,,,,0,131,5,5,2178,2154,absent_patch/patch0002178.jpg,absent_patch/patch0002154.jpg,,,,,,,,,,,,,,,,,,,,0.036908881,0.085928489,1,0,0,response1disk,3,0.01384083,0.009803922,1,0,0,center_square,0,2,2,63,1,,,,,,,,,,,,,,,,,,,,,,,
398863,001,2022-11-21_00h21.18.113,Info_measure_main_exp,2022.2.2,Linux x86_64,30.03003003,,,,,,,,,,,,,,,,,,masks/mask_005.jpg,,,,,,,,,,,,,,,,,,,,,,,,,,,,,,,,,,,,,,,,,,,0,0,0,4,1,,,,,,,,,,,,,,,,,,,,,,,,,,,,,,,,,,,,,,,,,,,,,,
398863,001,2022-11-21_00h21.18.113,Info_measure_main_exp,2022.2.2,Linux x86_64,30.03003003,,,,,,,,,,,,,,,,,,masks/mask_002.jpg,,,,,,,,,,,,,,,,,,,,,,,,,,,,,,,,,,,,,,,,,,,0,1,1,1,1,,,,,,,,,,,,,,,,,,,,,,,,,,,,,,,,,,,,,,,,,,,,,,
398863,001,2022-11-21_00h21.18.113,Info_measure_main_exp,2022.2.2,Linux x86_64,30.03003003,,,,,,,,,,,,,,,,,,masks/mask_001.jpg,,,,,,,,,,,,,,,,,,,,,,,,,,,,,,,,,,,,,,,,,,,0,2,2,0,1,,,,,,,,,,,,,,,,,,,,,,,,,,,,,,,,,,,,,,,,,,,,,,
398863,001,2022-11-21_00h21.18.113,Info_measure_main_exp,2022.2.2,Linux x86_64,30.03003003,,,,,,,,,,,,,,,,,,masks/mask_004.jpg,,,,,,,,,,,,,,,,,,,,,,,,,,,,,,,,,,,,,,,,,,,0,3,3,3,1,,,,,,,,,,,,,,,,,,,,,,,,,,,,,,,,,,,,,,,,,,,,,,
398863,001,2022-11-21_00h21.18.113,Info_measure_main_exp,2022.2.2,Linux x86_64,30.03003003,,,,,,,,,,,,,,,,,,masks/mask_003.jpg,,,,,,,,,,,,,,,,,,,,,,,,,,,,,,,,,,,,,,,,,,,0,4,4,2,1,,,,,,,,,,,,,,,,,,,,,,,,,,,,,,,,,,,,,,,,,,,,,,
398863,001,2022-11-21_00h21.18.113,Info_measure_main_exp,2022.2.2,Linux x86_64,30.03003003,,,,,,,,,,,,,,,,,,masks/mask_005.jpg,,,,,,,,,,,,,,,,,,,,,,,,,,,,,,,,,,,,,,,,,,,,,,,,0,0,0,4,1,,,,,,,,,,,,,,,,,,,,,,,,,,,,,,,,,,,,,,,,,
398863,001,2022-11-21_00h21.18.113,Info_measure_main_exp,2022.2.2,Linux x86_64,30.03003003,,,,,,,,,,,,,,,,,,masks/mask_001.jpg,,,,,,,,,,,,,,,,,,,,,,,,,,,,,,,,,,,,,,,,,,,,,,,,0,1,1,0,1,,,,,,,,,,,,,,,,,,,,,,,,,,,,,,,,,,,,,,,,,
398863,001,2022-11-21_00h21.18.113,Info_measure_main_exp,2022.2.2,Linux x86_64,30.03003003,,,,,,,,,,,,,,,,,,masks/mask_002.jpg,,,,,,,,,,,,,,,,,,,,,,,,,,,,,,,,,,,,,,,,,,,,,,,,0,2,2,1,1,,,,,,,,,,,,,,,,,,,,,,,,,,,,,,,,,,,,,,,,,
398863,001,2022-11-21_00h21.18.113,Info_measure_main_exp,2022.2.2,Linux x86_64,30.03003003,,,,,,,,,,,,,,,,,,masks/mask_003.jpg,,,,,,,,,,,,,,,,,,,,,,,,,,,,,,,,,,,,,,,,,,,,,,,,0,3,3,2,1,,,,,,,,,,,,,,,,,,,,,,,,,,,,,,,,,,,,,,,,,
398863,001,2022-11-21_00h21.18.113,Info_measure_main_exp,2022.2.2,Linux x86_64,30.03003003,,,,,,,,,,,,,,,,,,masks/mask_004.jpg,,,,,,,,,,,,,,,,,,,,,,,,,,,,,,,,,,,,,,,,,,,,,,,,0,4,4,3,1,,,,,,,,,,,,,,,,,,,,,,,,,,,,,,,,,,,,,,,,,
398863,001,2022-11-21_00h21.18.113,Info_measure_main_exp,2022.2.2,Linux x86_64,30.03003003,,,,,,,,,,,,,,,,,,,,,,,,,,,,,,6,0.609,1,,,,,,,,,,,,0,131,5,5,2274,1950,absent_patch/patch0002274.jpg,absent_patch/patch0001950.jpg,,,,,,,,,,,,,,,,,,,,0.016147636,0.012110727,1,0,0,response1disk,4,0.01384083,0.004036909,1,0,0,center_square,0,3,3,10,1,,,,,,,,,,,,,,,,,,,,,,,
398863,001,2022-11-21_00h21.18.113,Info_measure_main_exp,2022.2.2,Linux x86_64,30.03003003,,,,,,,,,,,,,,,,,,masks/mask_001.jpg,,,,,,,,,,,,,,,,,,,,,,,,,,,,,,,,,,,,,,,,,,,0,0,0,0,1,,,,,,,,,,,,,,,,,,,,,,,,,,,,,,,,,,,,,,,,,,,,,,
398863,001,2022-11-21_00h21.18.113,Info_measure_main_exp,2022.2.2,Linux x86_64,30.03003003,,,,,,,,,,,,,,,,,,masks/mask_002.jpg,,,,,,,,,,,,,,,,,,,,,,,,,,,,,,,,,,,,,,,,,,,0,1,1,1,1,,,,,,,,,,,,,,,,,,,,,,,,,,,,,,,,,,,,,,,,,,,,,,
398863,001,2022-11-21_00h21.18.113,Info_measure_main_exp,2022.2.2,Linux x86_64,30.03003003,,,,,,,,,,,,,,,,,,masks/mask_003.jpg,,,,,,,,,,,,,,,,,,,,,,,,,,,,,,,,,,,,,,,,,,,0,2,2,2,1,,,,,,,,,,,,,,,,,,,,,,,,,,,,,,,,,,,,,,,,,,,,,,
398863,001,2022-11-21_00h21.18.113,Info_measure_main_exp,2022.2.2,Linux x86_64,30.03003003,,,,,,,,,,,,,,,,,,masks/mask_004.jpg,,,,,,,,,,,,,,,,,,,,,,,,,,,,,,,,,,,,,,,,,,,0,3,3,3,1,,,,,,,,,,,,,,,,,,,,,,,,,,,,,,,,,,,,,,,,,,,,,,
398863,001,2022-11-21_00h21.18.113,Info_measure_main_exp,2022.2.2,Linux x86_64,30.03003003,,,,,,,,,,,,,,,,,,masks/mask_005.jpg,,,,,,,,,,,,,,,,,,,,,,,,,,,,,,,,,,,,,,,,,,,0,4,4,4,1,,,,,,,,,,,,,,,,,,,,,,,,,,,,,,,,,,,,,,,,,,,,,,
398863,001,2022-11-21_00h21.18.113,Info_measure_main_exp,2022.2.2,Linux x86_64,30.03003003,,,,,,,,,,,,,,,,,,masks/mask_003.jpg,,,,,,,,,,,,,,,,,,,,,,,,,,,,,,,,,,,,,,,,,,,,,,,,0,0,0,2,1,,,,,,,,,,,,,,,,,,,,,,,,,,,,,,,,,,,,,,,,,
398863,001,2022-11-21_00h21.18.113,Info_measure_main_exp,2022.2.2,Linux x86_64,30.03003003,,,,,,,,,,,,,,,,,,masks/mask_002.jpg,,,,,,,,,,,,,,,,,,,,,,,,,,,,,,,,,,,,,,,,,,,,,,,,0,1,1,1,1,,,,,,,,,,,,,,,,,,,,,,,,,,,,,,,,,,,,,,,,,
398863,001,2022-11-21_00h21.18.113,Info_measure_main_exp,2022.2.2,Linux x86_64,30.03003003,,,,,,,,,,,,,,,,,,masks/mask_005.jpg,,,,,,,,,,,,,,,,,,,,,,,,,,,,,,,,,,,,,,,,,,,,,,,,0,2,2,4,1,,,,,,,,,,,,,,,,,,,,,,,,,,,,,,,,,,,,,,,,,
398863,001,2022-11-21_00h21.18.113,Info_measure_main_exp,2022.2.2,Linux x86_64,30.03003003,,,,,,,,,,,,,,,,,,masks/mask_004.jpg,,,,,,,,,,,,,,,,,,,,,,,,,,,,,,,,,,,,,,,,,,,,,,,,0,3,3,3,1,,,,,,,,,,,,,,,,,,,,,,,,,,,,,,,,,,,,,,,,,
398863,001,2022-11-21_00h21.18.113,Info_measure_main_exp,2022.2.2,Linux x86_64,30.03003003,,,,,,,,,,,,,,,,,,masks/mask_001.jpg,,,,,,,,,,,,,,,,,,,,,,,,,,,,,,,,,,,,,,,,,,,,,,,,0,4,4,0,1,,,,,,,,,,,,,,,,,,,,,,,,,,,,,,,,,,,,,,,,,
398863,001,2022-11-21_00h21.18.113,Info_measure_main_exp,2022.2.2,Linux x86_64,30.03003003,,,,,,,,,,,,,,,,,,,,,,,,,,,,,,7,4.346,1,,,,,,,,,,,,0,131,5,5,2238,2166,absent_patch/patch0002238.jpg,absent_patch/patch0002166.jpg,,,,,,,,,,,,,,,,,,,,0.044982699,0.125144175,1,0,0,response1disk,5,-0.001153403,0.004036909,1,0,0,center_square,0,4,4,118,1,,,,,,,,,,,,,,,,,,,,,,,
398863,001,2022-11-21_00h21.18.113,Info_measure_main_exp,2022.2.2,Linux x86_64,30.03003003,,,,,,,,,,,,,,,,,,masks/mask_004.jpg,,,,,,,,,,,,,,,,,,,,,,,,,,,,,,,,,,,,,,,,,,,0,0,0,3,1,,,,,,,,,,,,,,,,,,,,,,,,,,,,,,,,,,,,,,,,,,,,,,
398863,001,2022-11-21_00h21.18.113,Info_measure_main_exp,2022.2.2,Linux x86_64,30.03003003,,,,,,,,,,,,,,,,,,masks/mask_001.jpg,,,,,,,,,,,,,,,,,,,,,,,,,,,,,,,,,,,,,,,,,,,0,1,1,0,1,,,,,,,,,,,,,,,,,,,,,,,,,,,,,,,,,,,,,,,,,,,,,,
398863,001,2022-11-21_00h21.18.113,Info_measure_main_exp,2022.2.2,Linux x86_64,30.03003003,,,,,,,,,,,,,,,,,,masks/mask_005.jpg,,,,,,,,,,,,,,,,,,,,,,,,,,,,,,,,,,,,,,,,,,,0,2,2,4,1,,,,,,,,,,,,,,,,,,,,,,,,,,,,,,,,,,,,,,,,,,,,,,
398863,001,2022-11-21_00h21.18.113,Info_measure_main_exp,2022.2.2,Linux x86_64,30.03003003,,,,,,,,,,,,,,,,,,masks/mask_002.jpg,,,,,,,,,,,,,,,,,,,,,,,,,,,,,,,,,,,,,,,,,,,0,3,3,1,1,,,,,,,,,,,,,,,,,,,,,,,,,,,,,,,,,,,,,,,,,,,,,,
398863,001,2022-11-21_00h21.18.113,Info_measure_main_exp,2022.2.2,Linux x86_64,30.03003003,,,,,,,,,,,,,,,,,,masks/mask_003.jpg,,,,,,,,,,,,,,,,,,,,,,,,,,,,,,,,,,,,,,,,,,,0,4,4,2,1,,,,,,,,,,,,,,,,,,,,,,,,,,,,,,,,,,,,,,,,,,,,,,
398863,001,2022-11-21_00h21.18.113,Info_measure_main_exp,2022.2.2,Linux x86_64,30.03003003,,,,,,,,,,,,,,,,,,masks/mask_004.jpg,,,,,,,,,,,,,,,,,,,,,,,,,,,,,,,,,,,,,,,,,,,,,,,,0,0,0,3,1,,,,,,,,,,,,,,,,,,,,,,,,,,,,,,,,,,,,,,,,,
398863,001,2022-11-21_00h21.18.113,Info_measure_main_exp,2022.2.2,Linux x86_64,30.03003003,,,,,,,,,,,,,,,,,,masks/mask_002.jpg,,,,,,,,,,,,,,,,,,,,,,,,,,,,,,,,,,,,,,,,,,,,,,,,0,1,1,1,1,,,,,,,,,,,,,,,,,,,,,,,,,,,,,,,,,,,,,,,,,
398863,001,2022-11-21_00h21.18.113,Info_measure_main_exp,2022.2.2,Linux x86_64,30.03003003,,,,,,,,,,,,,,,,,,masks/mask_005.jpg,,,,,,,,,,,,,,,,,,,,,,,,,,,,,,,,,,,,,,,,,,,,,,,,0,2,2,4,1,,,,,,,,,,,,,,,,,,,,,,,,,,,,,,,,,,,,,,,,,
398863,001,2022-11-21_00h21.18.113,Info_measure_main_exp,2022.2.2,Linux x86_64,30.03003003,,,,,,,,,,,,,,,,,,masks/mask_003.jpg,,,,,,,,,,,,,,,,,,,,,,,,,,,,,,,,,,,,,,,,,,,,,,,,0,3,3,2,1,,,,,,,,,,,,,,,,,,,,,,,,,,,,,,,,,,,,,,,,,
398863,001,2022-11-21_00h21.18.113,Info_measure_main_exp,2022.2.2,Linux x86_64,30.03003003,,,,,,,,,,,,,,,,,,masks/mask_001.jpg,,,,,,,,,,,,,,,,,,,,,,,,,,,,,,,,,,,,,,,,,,,,,,,,0,4,4,0,1,,,,,,,,,,,,,,,,,,,,,,,,,,,,,,,,,,,,,,,,,
398863,001,2022-11-21_00h21.18.113,Info_measure_main_exp,2022.2.2,Linux x86_64,30.03003003,,,,,,,,,,,,,,,,,,,,,,,,,,,,,,7,2.115,1,,,,,,,,,,,,1,131,5,5,1,1974,present_patch/cong_131_5_a.jpg,absent_patch/patch0001974.jpg,,,,,,,,,,,,,,,,,,,,0.089965398,0.12283737,1,0,0,response1disk,6,-0.003460208,0.015570934,1,0,0,center_square,0,5,5,69,1,,,,,,,,,,,,,,,,,,,,,,,
398863,001,2022-11-21_00h21.18.113,Info_measure_main_exp,2022.2.2,Linux x86_64,30.03003003,,,,,,,,,,,,,,,,,,masks/mask_003.jpg,,,,,,,,,,,,,,,,,,,,,,,,,,,,,,,,,,,,,,,,,,,0,0,0,2,1,,,,,,,,,,,,,,,,,,,,,,,,,,,,,,,,,,,,,,,,,,,,,,
398863,001,2022-11-21_00h21.18.113,Info_measure_main_exp,2022.2.2,Linux x86_64,30.03003003,,,,,,,,,,,,,,,,,,masks/mask_002.jpg,,,,,,,,,,,,,,,,,,,,,,,,,,,,,,,,,,,,,,,,,,,0,1,1,1,1,,,,,,,,,,,,,,,,,,,,,,,,,,,,,,,,,,,,,,,,,,,,,,
398863,001,2022-11-21_00h21.18.113,Info_measure_main_exp,2022.2.2,Linux x86_64,30.03003003,,,,,,,,,,,,,,,,,,masks/mask_005.jpg,,,,,,,,,,,,,,,,,,,,,,,,,,,,,,,,,,,,,,,,,,,0,2,2,4,1,,,,,,,,,,,,,,,,,,,,,,,,,,,,,,,,,,,,,,,,,,,,,,
398863,001,2022-11-21_00h21.18.113,Info_measure_main_exp,2022.2.2,Linux x86_64,30.03003003,,,,,,,,,,,,,,,,,,masks/mask_001.jpg,,,,,,,,,,,,,,,,,,,,,,,,,,,,,,,,,,,,,,,,,,,0,3,3,0,1,,,,,,,,,,,,,,,,,,,,,,,,,,,,,,,,,,,,,,,,,,,,,,
398863,001,2022-11-21_00h21.18.113,Info_measure_main_exp,2022.2.2,Linux x86_64,30.03003003,,,,,,,,,,,,,,,,,,masks/mask_004.jpg,,,,,,,,,,,,,,,,,,,,,,,,,,,,,,,,,,,,,,,,,,,0,4,4,3,1,,,,,,,,,,,,,,,,,,,,,,,,,,,,,,,,,,,,,,,,,,,,,,
398863,001,2022-11-21_00h21.18.113,Info_measure_main_exp,2022.2.2,Linux x86_64,30.03003003,,,,,,,,,,,,,,,,,,masks/mask_004.jpg,,,,,,,,,,,,,,,,,,,,,,,,,,,,,,,,,,,,,,,,,,,,,,,,0,0,0,3,1,,,,,,,,,,,,,,,,,,,,,,,,,,,,,,,,,,,,,,,,,
398863,001,2022-11-21_00h21.18.113,Info_measure_main_exp,2022.2.2,Linux x86_64,30.03003003,,,,,,,,,,,,,,,,,,masks/mask_002.jpg,,,,,,,,,,,,,,,,,,,,,,,,,,,,,,,,,,,,,,,,,,,,,,,,0,1,1,1,1,,,,,,,,,,,,,,,,,,,,,,,,,,,,,,,,,,,,,,,,,
398863,001,2022-11-21_00h21.18.113,Info_measure_main_exp,2022.2.2,Linux x86_64,30.03003003,,,,,,,,,,,,,,,,,,masks/mask_001.jpg,,,,,,,,,,,,,,,,,,,,,,,,,,,,,,,,,,,,,,,,,,,,,,,,0,2,2,0,1,,,,,,,,,,,,,,,,,,,,,,,,,,,,,,,,,,,,,,,,,
398863,001,2022-11-21_00h21.18.113,Info_measure_main_exp,2022.2.2,Linux x86_64,30.03003003,,,,,,,,,,,,,,,,,,masks/mask_005.jpg,,,,,,,,,,,,,,,,,,,,,,,,,,,,,,,,,,,,,,,,,,,,,,,,0,3,3,4,1,,,,,,,,,,,,,,,,,,,,,,,,,,,,,,,,,,,,,,,,,
398863,001,2022-11-21_00h21.18.113,Info_measure_main_exp,2022.2.2,Linux x86_64,30.03003003,,,,,,,,,,,,,,,,,,masks/mask_003.jpg,,,,,,,,,,,,,,,,,,,,,,,,,,,,,,,,,,,,,,,,,,,,,,,,0,4,4,2,1,,,,,,,,,,,,,,,,,,,,,,,,,,,,,,,,,,,,,,,,,
398863,001,2022-11-21_00h21.18.113,Info_measure_main_exp,2022.2.2,Linux x86_64,30.03003003,,,,,,,,,,,,,,,,,,,,,,,,,,,,,,0,0.762,1,,,,,,,,,,,,0,131,5,5,2238,2238,absent_patch/patch0002238.jpg,absent_patch/patch0002238.jpg,,,,,,,,,,,,,,,,,,,,-0.035755479,0.125144175,1,0,0,response7disk,7,0.011534025,-0.007497116,1,0,0,center_square,0,6,6,58,1,,,,,,,,,,,,,,,,,,,,,,,
398863,001,2022-11-21_00h21.18.113,Info_measure_main_exp,2022.2.2,Linux x86_64,30.03003003,,,,,,,,,,,,,,,,,,masks/mask_002.jpg,,,,,,,,,,,,,,,,,,,,,,,,,,,,,,,,,,,,,,,,,,,0,0,0,1,1,,,,,,,,,,,,,,,,,,,,,,,,,,,,,,,,,,,,,,,,,,,,,,
398863,001,2022-11-21_00h21.18.113,Info_measure_main_exp,2022.2.2,Linux x86_64,30.03003003,,,,,,,,,,,,,,,,,,masks/mask_003.jpg,,,,,,,,,,,,,,,,,,,,,,,,,,,,,,,,,,,,,,,,,,,0,1,1,2,1,,,,,,,,,,,,,,,,,,,,,,,,,,,,,,,,,,,,,,,,,,,,,,
398863,001,2022-11-21_00h21.18.113,Info_measure_main_exp,2022.2.2,Linux x86_64,30.03003003,,,,,,,,,,,,,,,,,,masks/mask_004.jpg,,,,,,,,,,,,,,,,,,,,,,,,,,,,,,,,,,,,,,,,,,,0,2,2,3,1,,,,,,,,,,,,,,,,,,,,,,,,,,,,,,,,,,,,,,,,,,,,,,
398863,001,2022-11-21_00h21.18.113,Info_measure_main_exp,2022.2.2,Linux x86_64,30.03003003,,,,,,,,,,,,,,,,,,masks/mask_005.jpg,,,,,,,,,,,,,,,,,,,,,,,,,,,,,,,,,,,,,,,,,,,0,3,3,4,1,,,,,,,,,,,,,,,,,,,,,,,,,,,,,,,,,,,,,,,,,,,,,,
398863,001,2022-11-21_00h21.18.113,Info_measure_main_exp,2022.2.2,Linux x86_64,30.03003003,,,,,,,,,,,,,,,,,,masks/mask_001.jpg,,,,,,,,,,,,,,,,,,,,,,,,,,,,,,,,,,,,,,,,,,,0,4,4,0,1,,,,,,,,,,,,,,,,,,,,,,,,,,,,,,,,,,,,,,,,,,,,,,
398863,001,2022-11-21_00h21.18.113,Info_measure_main_exp,2022.2.2,Linux x86_64,30.03003003,,,,,,,,,,,,,,,,,,masks/mask_004.jpg,,,,,,,,,,,,,,,,,,,,,,,,,,,,,,,,,,,,,,,,,,,,,,,,0,0,0,3,1,,,,,,,,,,,,,,,,,,,,,,,,,,,,,,,,,,,,,,,,,
398863,001,2022-11-21_00h21.18.113,Info_measure_main_exp,2022.2.2,Linux x86_64,30.03003003,,,,,,,,,,,,,,,,,,masks/mask_001.jpg,,,,,,,,,,,,,,,,,,,,,,,,,,,,,,,,,,,,,,,,,,,,,,,,0,1,1,0,1,,,,,,,,,,,,,,,,,,,,,,,,,,,,,,,,,,,,,,,,,
398863,001,2022-11-21_00h21.18.113,Info_measure_main_exp,2022.2.2,Linux x86_64,30.03003003,,,,,,,,,,,,,,,,,,masks/mask_002.jpg,,,,,,,,,,,,,,,,,,,,,,,,,,,,,,,,,,,,,,,,,,,,,,,,0,2,2,1,1,,,,,,,,,,,,,,,,,,,,,,,,,,,,,,,,,,,,,,,,,
398863,001,2022-11-21_00h21.18.113,Info_measure_main_exp,2022.2.2,Linux x86_64,30.03003003,,,,,,,,,,,,,,,,,,masks/mask_003.jpg,,,,,,,,,,,,,,,,,,,,,,,,,,,,,,,,,,,,,,,,,,,,,,,,0,3,3,2,1,,,,,,,,,,,,,,,,,,,,,,,,,,,,,,,,,,,,,,,,,
398863,001,2022-11-21_00h21.18.113,Info_measure_main_exp,2022.2.2,Linux x86_64,30.03003003,,,,,,,,,,,,,,,,,,masks/mask_005.jpg,,,,,,,,,,,,,,,,,,,,,,,,,,,,,,,,,,,,,,,,,,,,,,,,0,4,4,4,1,,,,,,,,,,,,,,,,,,,,,,,,,,,,,,,,,,,,,,,,,
398863,001,2022-11-21_00h21.18.113,Info_measure_main_exp,2022.2.2,Linux x86_64,30.03003003,,,,,,,,,,,,,,,,,,,,,,,,,,,,,,7,0.684,1,,,,,,,,,,,,1,131,5,5,1,2154,present_patch/cong_131_5_a.jpg,absent_patch/patch0002154.jpg,,,,,,,,,,,,,,,,,,,,0.101499423,0.12745098,1,0,0,response1disk,8,-0.017301038,-0.009803922,1,0,0,center_square,0,7,7,87,1,,,,,,,,,,,,,,,,,,,,,,,
398863,001,2022-11-21_00h21.18.113,Info_measure_main_exp,2022.2.2,Linux x86_64,30.03003003,,,,,,,,,,,,,,,,,,masks/mask_004.jpg,,,,,,,,,,,,,,,,,,,,,,,,,,,,,,,,,,,,,,,,,,,0,0,0,3,1,,,,,,,,,,,,,,,,,,,,,,,,,,,,,,,,,,,,,,,,,,,,,,
398863,001,2022-11-21_00h21.18.113,Info_measure_main_exp,2022.2.2,Linux x86_64,30.03003003,,,,,,,,,,,,,,,,,,masks/mask_002.jpg,,,,,,,,,,,,,,,,,,,,,,,,,,,,,,,,,,,,,,,,,,,0,1,1,1,1,,,,,,,,,,,,,,,,,,,,,,,,,,,,,,,,,,,,,,,,,,,,,,
398863,001,2022-11-21_00h21.18.113,Info_measure_main_exp,2022.2.2,Linux x86_64,30.03003003,,,,,,,,,,,,,,,,,,masks/mask_003.jpg,,,,,,,,,,,,,,,,,,,,,,,,,,,,,,,,,,,,,,,,,,,0,2,2,2,1,,,,,,,,,,,,,,,,,,,,,,,,,,,,,,,,,,,,,,,,,,,,,,
398863,001,2022-11-21_00h21.18.113,Info_measure_main_exp,2022.2.2,Linux x86_64,30.03003003,,,,,,,,,,,,,,,,,,masks/mask_005.jpg,,,,,,,,,,,,,,,,,,,,,,,,,,,,,,,,,,,,,,,,,,,0,3,3,4,1,,,,,,,,,,,,,,,,,,,,,,,,,,,,,,,,,,,,,,,,,,,,,,
398863,001,2022-11-21_00h21.18.113,Info_measure_main_exp,2022.2.2,Linux x86_64,30.03003003,,,,,,,,,,,,,,,,,,masks/mask_001.jpg,,,,,,,,,,,,,,,,,,,,,,,,,,,,,,,,,,,,,,,,,,,0,4,4,0,1,,,,,,,,,,,,,,,,,,,,,,,,,,,,,,,,,,,,,,,,,,,,,,
398863,001,2022-11-21_00h21.18.113,Info_measure_main_exp,2022.2.2,Linux x86_64,30.03003003,,,,,,,,,,,,,,,,,,masks/mask_004.jpg,,,,,,,,,,,,,,,,,,,,,,,,,,,,,,,,,,,,,,,,,,,,,,,,0,0,0,3,1,,,,,,,,,,,,,,,,,,,,,,,,,,,,,,,,,,,,,,,,,
398863,001,2022-11-21_00h21.18.113,Info_measure_main_exp,2022.2.2,Linux x86_64,30.03003003,,,,,,,,,,,,,,,,,,masks/mask_001.jpg,,,,,,,,,,,,,,,,,,,,,,,,,,,,,,,,,,,,,,,,,,,,,,,,0,1,1,0,1,,,,,,,,,,,,,,,,,,,,,,,,,,,,,,,,,,,,,,,,,
398863,001,2022-11-21_00h21.18.113,Info_measure_main_exp,2022.2.2,Linux x86_64,30.03003003,,,,,,,,,,,,,,,,,,masks/mask_003.jpg,,,,,,,,,,,,,,,,,,,,,,,,,,,,,,,,,,,,,,,,,,,,,,,,0,2,2,2,1,,,,,,,,,,,,,,,,,,,,,,,,,,,,,,,,,,,,,,,,,
398863,001,2022-11-21_00h21.18.113,Info_measure_main_exp,2022.2.2,Linux x86_64,30.03003003,,,,,,,,,,,,,,,,,,masks/mask_005.jpg,,,,,,,,,,,,,,,,,,,,,,,,,,,,,,,,,,,,,,,,,,,,,,,,0,3,3,4,1,,,,,,,,,,,,,,,,,,,,,,,,,,,,,,,,,,,,,,,,,
398863,001,2022-11-21_00h21.18.113,Info_measure_main_exp,2022.2.2,Linux x86_64,30.03003003,,,,,,,,,,,,,,,,,,masks/mask_002.jpg,,,,,,,,,,,,,,,,,,,,,,,,,,,,,,,,,,,,,,,,,,,,,,,,0,4,4,1,1,,,,,,,,,,,,,,,,,,,,,,,,,,,,,,,,,,,,,,,,,
398863,001,2022-11-21_00h21.18.113,Info_measure_main_exp,2022.2.2,Linux x86_64,30.03003003,,,,,,,,,,,,,,,,,,,,,,,,,,,,,,7,1.959,1,,,,,,,,,,,,0,131,5,5,2298,2274,absent_patch/patch0002298.jpg,absent_patch/patch0002274.jpg,,,,,,,,,,,,,,,,,,,,0.079584775,0.140138408,1,0,0,response1disk,9,0.018454441,0.017877739,1,0,0,center_square,0,8,8,1,1,,,,,,,,,,,,,,,,,,,,,,,
398863,001,2022-11-21_00h21.18.113,Info_measure_main_exp,2022.2.2,Linux x86_64,30.03003003,,,,,,,,,,,,,,,,,,masks/mask_003.jpg,,,,,,,,,,,,,,,,,,,,,,,,,,,,,,,,,,,,,,,,,,,0,0,0,2,1,,,,,,,,,,,,,,,,,,,,,,,,,,,,,,,,,,,,,,,,,,,,,,
398863,001,2022-11-21_00h21.18.113,Info_measure_main_exp,2022.2.2,Linux x86_64,30.03003003,,,,,,,,,,,,,,,,,,masks/mask_002.jpg,,,,,,,,,,,,,,,,,,,,,,,,,,,,,,,,,,,,,,,,,,,0,1,1,1,1,,,,,,,,,,,,,,,,,,,,,,,,,,,,,,,,,,,,,,,,,,,,,,
398863,001,2022-11-21_00h21.18.113,Info_measure_main_exp,2022.2.2,Linux x86_64,30.03003003,,,,,,,,,,,,,,,,,,masks/mask_001.jpg,,,,,,,,,,,,,,,,,,,,,,,,,,,,,,,,,,,,,,,,,,,0,2,2,0,1,,,,,,,,,,,,,,,,,,,,,,,,,,,,,,,,,,,,,,,,,,,,,,
398863,001,2022-11-21_00h21.18.113,Info_measure_main_exp,2022.2.2,Linux x86_64,30.03003003,,,,,,,,,,,,,,,,,,masks/mask_004.jpg,,,,,,,,,,,,,,,,,,,,,,,,,,,,,,,,,,,,,,,,,,,0,3,3,3,1,,,,,,,,,,,,,,,,,,,,,,,,,,,,,,,,,,,,,,,,,,,,,,
398863,001,2022-11-21_00h21.18.113,Info_measure_main_exp,2022.2.2,Linux x86_64,30.03003003,,,,,,,,,,,,,,,,,,masks/mask_005.jpg,,,,,,,,,,,,,,,,,,,,,,,,,,,,,,,,,,,,,,,,,,,0,4,4,4,1,,,,,,,,,,,,,,,,,,,,,,,,,,,,,,,,,,,,,,,,,,,,,,
398863,001,2022-11-21_00h21.18.113,Info_measure_main_exp,2022.2.2,Linux x86_64,30.03003003,,,,,,,,,,,,,,,,,,masks/mask_005.jpg,,,,,,,,,,,,,,,,,,,,,,,,,,,,,,,,,,,,,,,,,,,,,,,,0,0,0,4,1,,,,,,,,,,,,,,,,,,,,,,,,,,,,,,,,,,,,,,,,,
398863,001,2022-11-21_00h21.18.113,Info_measure_main_exp,2022.2.2,Linux x86_64,30.03003003,,,,,,,,,,,,,,,,,,masks/mask_004.jpg,,,,,,,,,,,,,,,,,,,,,,,,,,,,,,,,,,,,,,,,,,,,,,,,0,1,1,3,1,,,,,,,,,,,,,,,,,,,,,,,,,,,,,,,,,,,,,,,,,
398863,001,2022-11-21_00h21.18.113,Info_measure_main_exp,2022.2.2,Linux x86_64,30.03003003,,,,,,,,,,,,,,,,,,masks/mask_001.jpg,,,,,,,,,,,,,,,,,,,,,,,,,,,,,,,,,,,,,,,,,,,,,,,,0,2,2,0,1,,,,,,,,,,,,,,,,,,,,,,,,,,,,,,,,,,,,,,,,,
398863,001,2022-11-21_00h21.18.113,Info_measure_main_exp,2022.2.2,Linux x86_64,30.03003003,,,,,,,,,,,,,,,,,,masks/mask_002.jpg,,,,,,,,,,,,,,,,,,,,,,,,,,,,,,,,,,,,,,,,,,,,,,,,0,3,3,1,1,,,,,,,,,,,,,,,,,,,,,,,,,,,,,,,,,,,,,,,,,
398863,001,2022-11-21_00h21.18.113,Info_measure_main_exp,2022.2.2,Linux x86_64,30.03003003,,,,,,,,,,,,,,,,,,masks/mask_003.jpg,,,,,,,,,,,,,,,,,,,,,,,,,,,,,,,,,,,,,,,,,,,,,,,,0,4,4,2,1,,,,,,,,,,,,,,,,,,,,,,,,,,,,,,,,,,,,,,,,,
398863,001,2022-11-21_00h21.18.113,Info_measure_main_exp,2022.2.2,Linux x86_64,30.03003003,,,,,,,,,,,,,,,,,,,,,,,,,,,,,,7,0.714,1,,,,,,,,,,,,0,131,5,5,2082,2238,absent_patch/patch0002082.jpg,absent_patch/patch0002238.jpg,,,,,,,,,,,,,,,,,,,,0.016147636,0.080161476,1,0,0,response1disk,10,0.00461361,-0.012110727,1,0,0,center_square,0,9,9,22,1,,,,,,,,,,,,,,,,,,,,,,,
398863,001,2022-11-21_00h21.18.113,Info_measure_main_exp,2022.2.2,Linux x86_64,30.03003003,,,,,,,,,,,,,,,,,,masks/mask_005.jpg,,,,,,,,,,,,,,,,,,,,,,,,,,,,,,,,,,,,,,,,,,,0,0,0,4,1,,,,,,,,,,,,,,,,,,,,,,,,,,,,,,,,,,,,,,,,,,,,,,
398863,001,2022-11-21_00h21.18.113,Info_measure_main_exp,2022.2.2,Linux x86_64,30.03003003,,,,,,,,,,,,,,,,,,masks/mask_001.jpg,,,,,,,,,,,,,,,,,,,,,,,,,,,,,,,,,,,,,,,,,,,0,1,1,0,1,,,,,,,,,,,,,,,,,,,,,,,,,,,,,,,,,,,,,,,,,,,,,,
398863,001,2022-11-21_00h21.18.113,Info_measure_main_exp,2022.2.2,Linux x86_64,30.03003003,,,,,,,,,,,,,,,,,,masks/mask_003.jpg,,,,,,,,,,,,,,,,,,,,,,,,,,,,,,,,,,,,,,,,,,,0,2,2,2,1,,,,,,,,,,,,,,,,,,,,,,,,,,,,,,,,,,,,,,,,,,,,,,
398863,001,2022-11-21_00h21.18.113,Info_measure_main_exp,2022.2.2,Linux x86_64,30.03003003,,,,,,,,,,,,,,,,,,masks/mask_004.jpg,,,,,,,,,,,,,,,,,,,,,,,,,,,,,,,,,,,,,,,,,,,0,3,3,3,1,,,,,,,,,,,,,,,,,,,,,,,,,,,,,,,,,,,,,,,,,,,,,,
398863,001,2022-11-21_00h21.18.113,Info_measure_main_exp,2022.2.2,Linux x86_64,30.03003003,,,,,,,,,,,,,,,,,,masks/mask_002.jpg,,,,,,,,,,,,,,,,,,,,,,,,,,,,,,,,,,,,,,,,,,,0,4,4,1,1,,,,,,,,,,,,,,,,,,,,,,,,,,,,,,,,,,,,,,,,,,,,,,
398863,001,2022-11-21_00h21.18.113,Info_measure_main_exp,2022.2.2,Linux x86_64,30.03003003,,,,,,,,,,,,,,,,,,masks/mask_002.jpg,,,,,,,,,,,,,,,,,,,,,,,,,,,,,,,,,,,,,,,,,,,,,,,,0,0,0,1,1,,,,,,,,,,,,,,,,,,,,,,,,,,,,,,,,,,,,,,,,,
398863,001,2022-11-21_00h21.18.113,Info_measure_main_exp,2022.2.2,Linux x86_64,30.03003003,,,,,,,,,,,,,,,,,,masks/mask_001.jpg,,,,,,,,,,,,,,,,,,,,,,,,,,,,,,,,,,,,,,,,,,,,,,,,0,1,1,0,1,,,,,,,,,,,,,,,,,,,,,,,,,,,,,,,,,,,,,,,,,
398863,001,2022-11-21_00h21.18.113,Info_measure_main_exp,2022.2.2,Linux x86_64,30.03003003,,,,,,,,,,,,,,,,,,masks/mask_003.jpg,,,,,,,,,,,,,,,,,,,,,,,,,,,,,,,,,,,,,,,,,,,,,,,,0,2,2,2,1,,,,,,,,,,,,,,,,,,,,,,,,,,,,,,,,,,,,,,,,,
398863,001,2022-11-21_00h21.18.113,Info_measure_main_exp,2022.2.2,Linux x86_64,30.03003003,,,,,,,,,,,,,,,,,,masks/mask_004.jpg,,,,,,,,,,,,,,,,,,,,,,,,,,,,,,,,,,,,,,,,,,,,,,,,0,3,3,3,1,,,,,,,,,,,,,,,,,,,,,,,,,,,,,,,,,,,,,,,,,
398863,001,2022-11-21_00h21.18.113,Info_measure_main_exp,2022.2.2,Linux x86_64,30.03003003,,,,,,,,,,,,,,,,,,masks/mask_005.jpg,,,,,,,,,,,,,,,,,,,,,,,,,,,,,,,,,,,,,,,,,,,,,,,,0,4,4,4,1,,,,,,,,,,,,,,,,,,,,,,,,,,,,,,,,,,,,,,,,,
398863,001,2022-11-21_00h21.18.113,Info_measure_main_exp,2022.2.2,Linux x86_64,30.03003003,,,,,,,,,,,,,,,,,,,,,,,,,,,,,,7,0.897,1,,,,,,,,,,,,0,131,5,5,2190,2166,absent_patch/patch0002190.jpg,absent_patch/patch0002166.jpg,,,,,,,,,,,,,,,,,,,,0.023068051,0.066320646,1,0,0,response1disk,11,-0.002306805,-0.006343714,1,0,0,center_square,0,10,10,50,1,,,,,,,,,,,,,,,,,,,,,,,
398863,001,2022-11-21_00h21.18.113,Info_measure_main_exp,2022.2.2,Linux x86_64,30.03003003,,,,,,,,,,,,,,,,,,masks/mask_005.jpg,,,,,,,,,,,,,,,,,,,,,,,,,,,,,,,,,,,,,,,,,,,0,0,0,4,1,,,,,,,,,,,,,,,,,,,,,,,,,,,,,,,,,,,,,,,,,,,,,,
398863,001,2022-11-21_00h21.18.113,Info_measure_main_exp,2022.2.2,Linux x86_64,30.03003003,,,,,,,,,,,,,,,,,,masks/mask_002.jpg,,,,,,,,,,,,,,,,,,,,,,,,,,,,,,,,,,,,,,,,,,,0,1,1,1,1,,,,,,,,,,,,,,,,,,,,,,,,,,,,,,,,,,,,,,,,,,,,,,
398863,001,2022-11-21_00h21.18.113,Info_measure_main_exp,2022.2.2,Linux x86_64,30.03003003,,,,,,,,,,,,,,,,,,masks/mask_001.jpg,,,,,,,,,,,,,,,,,,,,,,,,,,,,,,,,,,,,,,,,,,,0,2,2,0,1,,,,,,,,,,,,,,,,,,,,,,,,,,,,,,,,,,,,,,,,,,,,,,
398863,001,2022-11-21_00h21.18.113,Info_measure_main_exp,2022.2.2,Linux x86_64,30.03003003,,,,,,,,,,,,,,,,,,masks/mask_003.jpg,,,,,,,,,,,,,,,,,,,,,,,,,,,,,,,,,,,,,,,,,,,0,3,3,2,1,,,,,,,,,,,,,,,,,,,,,,,,,,,,,,,,,,,,,,,,,,,,,,
398863,001,2022-11-21_00h21.18.113,Info_measure_main_exp,2022.2.2,Linux x86_64,30.03003003,,,,,,,,,,,,,,,,,,masks/mask_004.jpg,,,,,,,,,,,,,,,,,,,,,,,,,,,,,,,,,,,,,,,,,,,0,4,4,3,1,,,,,,,,,,,,,,,,,,,,,,,,,,,,,,,,,,,,,,,,,,,,,,
398863,001,2022-11-21_00h21.18.113,Info_measure_main_exp,2022.2.2,Linux x86_64,30.03003003,,,,,,,,,,,,,,,,,,masks/mask_004.jpg,,,,,,,,,,,,,,,,,,,,,,,,,,,,,,,,,,,,,,,,,,,,,,,,0,0,0,3,1,,,,,,,,,,,,,,,,,,,,,,,,,,,,,,,,,,,,,,,,,
398863,001,2022-11-21_00h21.18.113,Info_measure_main_exp,2022.2.2,Linux x86_64,30.03003003,,,,,,,,,,,,,,,,,,masks/mask_002.jpg,,,,,,,,,,,,,,,,,,,,,,,,,,,,,,,,,,,,,,,,,,,,,,,,0,1,1,1,1,,,,,,,,,,,,,,,,,,,,,,,,,,,,,,,,,,,,,,,,,
398863,001,2022-11-21_00h21.18.113,Info_measure_main_exp,2022.2.2,Linux x86_64,30.03003003,,,,,,,,,,,,,,,,,,masks/mask_003.jpg,,,,,,,,,,,,,,,,,,,,,,,,,,,,,,,,,,,,,,,,,,,,,,,,0,2,2,2,1,,,,,,,,,,,,,,,,,,,,,,,,,,,,,,,,,,,,,,,,,
398863,001,2022-11-21_00h21.18.113,Info_measure_main_exp,2022.2.2,Linux x86_64,30.03003003,,,,,,,,,,,,,,,,,,masks/mask_001.jpg,,,,,,,,,,,,,,,,,,,,,,,,,,,,,,,,,,,,,,,,,,,,,,,,0,3,3,0,1,,,,,,,,,,,,,,,,,,,,,,,,,,,,,,,,,,,,,,,,,
398863,001,2022-11-21_00h21.18.113,Info_measure_main_exp,2022.2.2,Linux x86_64,30.03003003,,,,,,,,,,,,,,,,,,masks/mask_005.jpg,,,,,,,,,,,,,,,,,,,,,,,,,,,,,,,,,,,,,,,,,,,,,,,,0,4,4,4,1,,,,,,,,,,,,,,,,,,,,,,,,,,,,,,,,,,,,,,,,,
398863,001,2022-11-21_00h21.18.113,Info_measure_main_exp,2022.2.2,Linux x86_64,30.03003003,,,,,,,,,,,,,,,,,,,,,,,,,,,,,,7,0.644,1,,,,,,,,,,,,1,131,5,5,2298,1,absent_patch/patch0002298.jpg,present_patch/cong_131_5_a.jpg,,,,,,,,,,,,,,,,,,,,0.016147636,0.047866205,1,0,0,response1disk,12,0.016147636,-0.004036909,1,0,0,center_square,0,11,11,45,1,,,,,,,,,,,,,,,,,,,,,,,
398863,001,2022-11-21_00h21.18.113,Info_measure_main_exp,2022.2.2,Linux x86_64,30.03003003,,,,,,,,,,,,,,,,,,masks/mask_004.jpg,,,,,,,,,,,,,,,,,,,,,,,,,,,,,,,,,,,,,,,,,,,0,0,0,3,1,,,,,,,,,,,,,,,,,,,,,,,,,,,,,,,,,,,,,,,,,,,,,,
398863,001,2022-11-21_00h21.18.113,Info_measure_main_exp,2022.2.2,Linux x86_64,30.03003003,,,,,,,,,,,,,,,,,,masks/mask_002.jpg,,,,,,,,,,,,,,,,,,,,,,,,,,,,,,,,,,,,,,,,,,,0,1,1,1,1,,,,,,,,,,,,,,,,,,,,,,,,,,,,,,,,,,,,,,,,,,,,,,
398863,001,2022-11-21_00h21.18.113,Info_measure_main_exp,2022.2.2,Linux x86_64,30.03003003,,,,,,,,,,,,,,,,,,masks/mask_001.jpg,,,,,,,,,,,,,,,,,,,,,,,,,,,,,,,,,,,,,,,,,,,0,2,2,0,1,,,,,,,,,,,,,,,,,,,,,,,,,,,,,,,,,,,,,,,,,,,,,,
398863,001,2022-11-21_00h21.18.113,Info_measure_main_exp,2022.2.2,Linux x86_64,30.03003003,,,,,,,,,,,,,,,,,,masks/mask_003.jpg,,,,,,,,,,,,,,,,,,,,,,,,,,,,,,,,,,,,,,,,,,,0,3,3,2,1,,,,,,,,,,,,,,,,,,,,,,,,,,,,,,,,,,,,,,,,,,,,,,
398863,001,2022-11-21_00h21.18.113,Info_measure_main_exp,2022.2.2,Linux x86_64,30.03003003,,,,,,,,,,,,,,,,,,masks/mask_005.jpg,,,,,,,,,,,,,,,,,,,,,,,,,,,,,,,,,,,,,,,,,,,0,4,4,4,1,,,,,,,,,,,,,,,,,,,,,,,,,,,,,,,,,,,,,,,,,,,,,,
398863,001,2022-11-21_00h21.18.113,Info_measure_main_exp,2022.2.2,Linux x86_64,30.03003003,,,,,,,,,,,,,,,,,,masks/mask_003.jpg,,,,,,,,,,,,,,,,,,,,,,,,,,,,,,,,,,,,,,,,,,,,,,,,0,0,0,2,1,,,,,,,,,,,,,,,,,,,,,,,,,,,,,,,,,,,,,,,,,
398863,001,2022-11-21_00h21.18.113,Info_measure_main_exp,2022.2.2,Linux x86_64,30.03003003,,,,,,,,,,,,,,,,,,masks/mask_004.jpg,,,,,,,,,,,,,,,,,,,,,,,,,,,,,,,,,,,,,,,,,,,,,,,,0,1,1,3,1,,,,,,,,,,,,,,,,,,,,,,,,,,,,,,,,,,,,,,,,,
398863,001,2022-11-21_00h21.18.113,Info_measure_main_exp,2022.2.2,Linux x86_64,30.03003003,,,,,,,,,,,,,,,,,,masks/mask_001.jpg,,,,,,,,,,,,,,,,,,,,,,,,,,,,,,,,,,,,,,,,,,,,,,,,0,2,2,0,1,,,,,,,,,,,,,,,,,,,,,,,,,,,,,,,,,,,,,,,,,
398863,001,2022-11-21_00h21.18.113,Info_measure_main_exp,2022.2.2,Linux x86_64,30.03003003,,,,,,,,,,,,,,,,,,masks/mask_002.jpg,,,,,,,,,,,,,,,,,,,,,,,,,,,,,,,,,,,,,,,,,,,,,,,,0,3,3,1,1,,,,,,,,,,,,,,,,,,,,,,,,,,,,,,,,,,,,,,,,,
398863,001,2022-11-21_00h21.18.113,Info_measure_main_exp,2022.2.2,Linux x86_64,30.03003003,,,,,,,,,,,,,,,,,,masks/mask_005.jpg,,,,,,,,,,,,,,,,,,,,,,,,,,,,,,,,,,,,,,,,,,,,,,,,0,4,4,4,1,,,,,,,,,,,,,,,,,,,,,,,,,,,,,,,,,,,,,,,,,
398863,001,2022-11-21_00h21.18.113,Info_measure_main_exp,2022.2.2,Linux x86_64,30.03003003,,,,,,,,,,,,,,,,,,,,,,,,,,,,,,7,0.536,1,,,,,,,,,,,,0,131,5,5,2190,1986,absent_patch/patch0002190.jpg,absent_patch/patch0001986.jpg,,,,,,,,,,,,,,,,,,,,0.017301038,0.054786621,1,0,0,response1disk,13,0.003460208,0.001730104,1,0,0,center_square,0,12,12,111,1,,,,,,,,,,,,,,,,,,,,,,,
398863,001,2022-11-21_00h21.18.113,Info_measure_main_exp,2022.2.2,Linux x86_64,30.03003003,,,,,,,,,,,,,,,,,,masks/mask_004.jpg,,,,,,,,,,,,,,,,,,,,,,,,,,,,,,,,,,,,,,,,,,,0,0,0,3,1,,,,,,,,,,,,,,,,,,,,,,,,,,,,,,,,,,,,,,,,,,,,,,
398863,001,2022-11-21_00h21.18.113,Info_measure_main_exp,2022.2.2,Linux x86_64,30.03003003,,,,,,,,,,,,,,,,,,masks/mask_001.jpg,,,,,,,,,,,,,,,,,,,,,,,,,,,,,,,,,,,,,,,,,,,0,1,1,0,1,,,,,,,,,,,,,,,,,,,,,,,,,,,,,,,,,,,,,,,,,,,,,,
398863,001,2022-11-21_00h21.18.113,Info_measure_main_exp,2022.2.2,Linux x86_64,30.03003003,,,,,,,,,,,,,,,,,,masks/mask_005.jpg,,,,,,,,,,,,,,,,,,,,,,,,,,,,,,,,,,,,,,,,,,,0,2,2,4,1,,,,,,,,,,,,,,,,,,,,,,,,,,,,,,,,,,,,,,,,,,,,,,
398863,001,2022-11-21_00h21.18.113,Info_measure_main_exp,2022.2.2,Linux x86_64,30.03003003,,,,,,,,,,,,,,,,,,masks/mask_002.jpg,,,,,,,,,,,,,,,,,,,,,,,,,,,,,,,,,,,,,,,,,,,0,3,3,1,1,,,,,,,,,,,,,,,,,,,,,,,,,,,,,,,,,,,,,,,,,,,,,,
398863,001,2022-11-21_00h21.18.113,Info_measure_main_exp,2022.2.2,Linux x86_64,30.03003003,,,,,,,,,,,,,,,,,,masks/mask_003.jpg,,,,,,,,,,,,,,,,,,,,,,,,,,,,,,,,,,,,,,,,,,,0,4,4,2,1,,,,,,,,,,,,,,,,,,,,,,,,,,,,,,,,,,,,,,,,,,,,,,
398863,001,2022-11-21_00h21.18.113,Info_measure_main_exp,2022.2.2,Linux x86_64,30.03003003,,,,,,,,,,,,,,,,,,masks/mask_004.jpg,,,,,,,,,,,,,,,,,,,,,,,,,,,,,,,,,,,,,,,,,,,,,,,,0,0,0,3,1,,,,,,,,,,,,,,,,,,,,,,,,,,,,,,,,,,,,,,,,,
398863,001,2022-11-21_00h21.18.113,Info_measure_main_exp,2022.2.2,Linux x86_64,30.03003003,,,,,,,,,,,,,,,,,,masks/mask_002.jpg,,,,,,,,,,,,,,,,,,,,,,,,,,,,,,,,,,,,,,,,,,,,,,,,0,1,1,1,1,,,,,,,,,,,,,,,,,,,,,,,,,,,,,,,,,,,,,,,,,
398863,001,2022-11-21_00h21.18.113,Info_measure_main_exp,2022.2.2,Linux x86_64,30.03003003,,,,,,,,,,,,,,,,,,masks/mask_005.jpg,,,,,,,,,,,,,,,,,,,,,,,,,,,,,,,,,,,,,,,,,,,,,,,,0,2,2,4,1,,,,,,,,,,,,,,,,,,,,,,,,,,,,,,,,,,,,,,,,,
398863,001,2022-11-21_00h21.18.113,Info_measure_main_exp,2022.2.2,Linux x86_64,30.03003003,,,,,,,,,,,,,,,,,,masks/mask_003.jpg,,,,,,,,,,,,,,,,,,,,,,,,,,,,,,,,,,,,,,,,,,,,,,,,0,3,3,2,1,,,,,,,,,,,,,,,,,,,,,,,,,,,,,,,,,,,,,,,,,
398863,001,2022-11-21_00h21.18.113,Info_measure_main_exp,2022.2.2,Linux x86_64,30.03003003,,,,,,,,,,,,,,,,,,masks/mask_001.jpg,,,,,,,,,,,,,,,,,,,,,,,,,,,,,,,,,,,,,,,,,,,,,,,,0,4,4,0,1,,,,,,,,,,,,,,,,,,,,,,,,,,,,,,,,,,,,,,,,,
398863,001,2022-11-21_00h21.18.113,Info_measure_main_exp,2022.2.2,Linux x86_64,30.03003003,,,,,,,,,,,,,,,,,,,,,,,,,,,,,,7,0.424,1,,,,,,,,,,,,1,131,5,5,1,2178,present_patch/cong_131_5_a.jpg,absent_patch/patch0002178.jpg,,,,,,,,,,,,,,,,,,,,0.019607843,0.068627451,1,0,0,response1disk,14,0.00922722,0.010957324,1,0,0,center_square,0,13,13,40,1,,,,,,,,,,,,,,,,,,,,,,,
398863,001,2022-11-21_00h21.18.113,Info_measure_main_exp,2022.2.2,Linux x86_64,30.03003003,,,,,,,,,,,,,,,,,,masks/mask_003.jpg,,,,,,,,,,,,,,,,,,,,,,,,,,,,,,,,,,,,,,,,,,,0,0,0,2,1,,,,,,,,,,,,,,,,,,,,,,,,,,,,,,,,,,,,,,,,,,,,,,
398863,001,2022-11-21_00h21.18.113,Info_measure_main_exp,2022.2.2,Linux x86_64,30.03003003,,,,,,,,,,,,,,,,,,masks/mask_004.jpg,,,,,,,,,,,,,,,,,,,,,,,,,,,,,,,,,,,,,,,,,,,0,1,1,3,1,,,,,,,,,,,,,,,,,,,,,,,,,,,,,,,,,,,,,,,,,,,,,,
398863,001,2022-11-21_00h21.18.113,Info_measure_main_exp,2022.2.2,Linux x86_64,30.03003003,,,,,,,,,,,,,,,,,,masks/mask_002.jpg,,,,,,,,,,,,,,,,,,,,,,,,,,,,,,,,,,,,,,,,,,,0,2,2,1,1,,,,,,,,,,,,,,,,,,,,,,,,,,,,,,,,,,,,,,,,,,,,,,
398863,001,2022-11-21_00h21.18.113,Info_measure_main_exp,2022.2.2,Linux x86_64,30.03003003,,,,,,,,,,,,,,,,,,masks/mask_005.jpg,,,,,,,,,,,,,,,,,,,,,,,,,,,,,,,,,,,,,,,,,,,0,3,3,4,1,,,,,,,,,,,,,,,,,,,,,,,,,,,,,,,,,,,,,,,,,,,,,,
398863,001,2022-11-21_00h21.18.113,Info_measure_main_exp,2022.2.2,Linux x86_64,30.03003003,,,,,,,,,,,,,,,,,,masks/mask_001.jpg,,,,,,,,,,,,,,,,,,,,,,,,,,,,,,,,,,,,,,,,,,,0,4,4,0,1,,,,,,,,,,,,,,,,,,,,,,,,,,,,,,,,,,,,,,,,,,,,,,
398863,001,2022-11-21_00h21.18.113,Info_measure_main_exp,2022.2.2,Linux x86_64,30.03003003,,,,,,,,,,,,,,,,,,masks/mask_001.jpg,,,,,,,,,,,,,,,,,,,,,,,,,,,,,,,,,,,,,,,,,,,,,,,,0,0,0,0,1,,,,,,,,,,,,,,,,,,,,,,,,,,,,,,,,,,,,,,,,,
398863,001,2022-11-21_00h21.18.113,Info_measure_main_exp,2022.2.2,Linux x86_64,30.03003003,,,,,,,,,,,,,,,,,,masks/mask_004.jpg,,,,,,,,,,,,,,,,,,,,,,,,,,,,,,,,,,,,,,,,,,,,,,,,0,1,1,3,1,,,,,,,,,,,,,,,,,,,,,,,,,,,,,,,,,,,,,,,,,
398863,001,2022-11-21_00h21.18.113,Info_measure_main_exp,2022.2.2,Linux x86_64,30.03003003,,,,,,,,,,,,,,,,,,masks/mask_002.jpg,,,,,,,,,,,,,,,,,,,,,,,,,,,,,,,,,,,,,,,,,,,,,,,,0,2,2,1,1,,,,,,,,,,,,,,,,,,,,,,,,,,,,,,,,,,,,,,,,,
398863,001,2022-11-21_00h21.18.113,Info_measure_main_exp,2022.2.2,Linux x86_64,30.03003003,,,,,,,,,,,,,,,,,,masks/mask_005.jpg,,,,,,,,,,,,,,,,,,,,,,,,,,,,,,,,,,,,,,,,,,,,,,,,0,3,3,4,1,,,,,,,,,,,,,,,,,,,,,,,,,,,,,,,,,,,,,,,,,
398863,001,2022-11-21_00h21.18.113,Info_measure_main_exp,2022.2.2,Linux x86_64,30.03003003,,,,,,,,,,,,,,,,,,masks/mask_003.jpg,,,,,,,,,,,,,,,,,,,,,,,,,,,,,,,,,,,,,,,,,,,,,,,,0,4,4,2,1,,,,,,,,,,,,,,,,,,,,,,,,,,,,,,,,,,,,,,,,,
398863,001,2022-11-21_00h21.18.113,Info_measure_main_exp,2022.2.2,Linux x86_64,30.03003003,,,,,,,,,,,,,,,,,,,,,,,,,,,,,,7,0.552,1,,,,,,,,,,,,0,131,5,5,2154,2238,absent_patch/patch0002154.jpg,absent_patch/patch0002238.jpg,,,,,,,,,,,,,,,,,,,,0.018454441,0.088235294,1,0,0,response1disk,15,0.00922722,-0.012110727,1,0,0,center_square,0,14,14,21,1,,,,,,,,,,,,,,,,,,,,,,,
398863,001,2022-11-21_00h21.18.113,Info_measure_main_exp,2022.2.2,Linux x86_64,30.03003003,,,,,,,,,,,,,,,,,,masks/mask_001.jpg,,,,,,,,,,,,,,,,,,,,,,,,,,,,,,,,,,,,,,,,,,,0,0,0,0,1,,,,,,,,,,,,,,,,,,,,,,,,,,,,,,,,,,,,,,,,,,,,,,
398863,001,2022-11-21_00h21.18.113,Info_measure_main_exp,2022.2.2,Linux x86_64,30.03003003,,,,,,,,,,,,,,,,,,masks/mask_003.jpg,,,,,,,,,,,,,,,,,,,,,,,,,,,,,,,,,,,,,,,,,,,0,1,1,2,1,,,,,,,,,,,,,,,,,,,,,,,,,,,,,,,,,,,,,,,,,,,,,,
398863,001,2022-11-21_00h21.18.113,Info_measure_main_exp,2022.2.2,Linux x86_64,30.03003003,,,,,,,,,,,,,,,,,,masks/mask_005.jpg,,,,,,,,,,,,,,,,,,,,,,,,,,,,,,,,,,,,,,,,,,,0,2,2,4,1,,,,,,,,,,,,,,,,,,,,,,,,,,,,,,,,,,,,,,,,,,,,,,
398863,001,2022-11-21_00h21.18.113,Info_measure_main_exp,2022.2.2,Linux x86_64,30.03003003,,,,,,,,,,,,,,,,,,masks/mask_002.jpg,,,,,,,,,,,,,,,,,,,,,,,,,,,,,,,,,,,,,,,,,,,0,3,3,1,1,,,,,,,,,,,,,,,,,,,,,,,,,,,,,,,,,,,,,,,,,,,,,,
398863,001,2022-11-21_00h21.18.113,Info_measure_main_exp,2022.2.2,Linux x86_64,30.03003003,,,,,,,,,,,,,,,,,,masks/mask_004.jpg,,,,,,,,,,,,,,,,,,,,,,,,,,,,,,,,,,,,,,,,,,,0,4,4,3,1,,,,,,,,,,,,,,,,,,,,,,,,,,,,,,,,,,,,,,,,,,,,,,
398863,001,2022-11-21_00h21.18.113,Info_measure_main_exp,2022.2.2,Linux x86_64,30.03003003,,,,,,,,,,,,,,,,,,masks/mask_003.jpg,,,,,,,,,,,,,,,,,,,,,,,,,,,,,,,,,,,,,,,,,,,,,,,,0,0,0,2,1,,,,,,,,,,,,,,,,,,,,,,,,,,,,,,,,,,,,,,,,,
398863,001,2022-11-21_00h21.18.113,Info_measure_main_exp,2022.2.2,Linux x86_64,30.03003003,,,,,,,,,,,,,,,,,,masks/mask_004.jpg,,,,,,,,,,,,,,,,,,,,,,,,,,,,,,,,,,,,,,,,,,,,,,,,0,1,1,3,1,,,,,,,,,,,,,,,,,,,,,,,,,,,,,,,,,,,,,,,,,
398863,001,2022-11-21_00h21.18.113,Info_measure_main_exp,2022.2.2,Linux x86_64,30.03003003,,,,,,,,,,,,,,,,,,masks/mask_001.jpg,,,,,,,,,,,,,,,,,,,,,,,,,,,,,,,,,,,,,,,,,,,,,,,,0,2,2,0,1,,,,,,,,,,,,,,,,,,,,,,,,,,,,,,,,,,,,,,,,,
398863,001,2022-11-21_00h21.18.113,Info_measure_main_exp,2022.2.2,Linux x86_64,30.03003003,,,,,,,,,,,,,,,,,,masks/mask_002.jpg,,,,,,,,,,,,,,,,,,,,,,,,,,,,,,,,,,,,,,,,,,,,,,,,0,3,3,1,1,,,,,,,,,,,,,,,,,,,,,,,,,,,,,,,,,,,,,,,,,
398863,001,2022-11-21_00h21.18.113,Info_measure_main_exp,2022.2.2,Linux x86_64,30.03003003,,,,,,,,,,,,,,,,,,masks/mask_005.jpg,,,,,,,,,,,,,,,,,,,,,,,,,,,,,,,,,,,,,,,,,,,,,,,,0,4,4,4,1,,,,,,,,,,,,,,,,,,,,,,,,,,,,,,,,,,,,,,,,,
398863,001,2022-11-21_00h21.18.113,Info_measure_main_exp,2022.2.2,Linux x86_64,30.03003003,,,,,,,,,,,,,,,,,,,,,,,,,,,,,,7,0.413,1,,,,,,,,,,,,0,131,5,5,2142,2154,absent_patch/patch0002142.jpg,absent_patch/patch0002154.jpg,,,,,,,,,,,,,,,,,,,,0.017301038,0.100922722,1,0,0,response1disk,16,0.00922722,-0.015570934,1,0,0,center_square,0,15,15,9,1,,,,,,,,,,,,,,,,,,,,,,,
398863,001,2022-11-21_00h21.18.113,Info_measure_main_exp,2022.2.2,Linux x86_64,30.03003003,,,,,,,,,,,,,,,,,,masks/mask_004.jpg,,,,,,,,,,,,,,,,,,,,,,,,,,,,,,,,,,,,,,,,,,,0,0,0,3,1,,,,,,,,,,,,,,,,,,,,,,,,,,,,,,,,,,,,,,,,,,,,,,
398863,001,2022-11-21_00h21.18.113,Info_measure_main_exp,2022.2.2,Linux x86_64,30.03003003,,,,,,,,,,,,,,,,,,masks/mask_001.jpg,,,,,,,,,,,,,,,,,,,,,,,,,,,,,,,,,,,,,,,,,,,0,1,1,0,1,,,,,,,,,,,,,,,,,,,,,,,,,,,,,,,,,,,,,,,,,,,,,,
398863,001,2022-11-21_00h21.18.113,Info_measure_main_exp,2022.2.2,Linux x86_64,30.03003003,,,,,,,,,,,,,,,,,,masks/mask_002.jpg,,,,,,,,,,,,,,,,,,,,,,,,,,,,,,,,,,,,,,,,,,,0,2,2,1,1,,,,,,,,,,,,,,,,,,,,,,,,,,,,,,,,,,,,,,,,,,,,,,
398863,001,2022-11-21_00h21.18.113,Info_measure_main_exp,2022.2.2,Linux x86_64,30.03003003,,,,,,,,,,,,,,,,,,masks/mask_005.jpg,,,,,,,,,,,,,,,,,,,,,,,,,,,,,,,,,,,,,,,,,,,0,3,3,4,1,,,,,,,,,,,,,,,,,,,,,,,,,,,,,,,,,,,,,,,,,,,,,,
398863,001,2022-11-21_00h21.18.113,Info_measure_main_exp,2022.2.2,Linux x86_64,30.03003003,,,,,,,,,,,,,,,,,,masks/mask_003.jpg,,,,,,,,,,,,,,,,,,,,,,,,,,,,,,,,,,,,,,,,,,,0,4,4,2,1,,,,,,,,,,,,,,,,,,,,,,,,,,,,,,,,,,,,,,,,,,,,,,
398863,001,2022-11-21_00h21.18.113,Info_measure_main_exp,2022.2.2,Linux x86_64,30.03003003,,,,,,,,,,,,,,,,,,masks/mask_002.jpg,,,,,,,,,,,,,,,,,,,,,,,,,,,,,,,,,,,,,,,,,,,,,,,,0,0,0,1,1,,,,,,,,,,,,,,,,,,,,,,,,,,,,,,,,,,,,,,,,,
398863,001,2022-11-21_00h21.18.113,Info_measure_main_exp,2022.2.2,Linux x86_64,30.03003003,,,,,,,,,,,,,,,,,,masks/mask_003.jpg,,,,,,,,,,,,,,,,,,,,,,,,,,,,,,,,,,,,,,,,,,,,,,,,0,1,1,2,1,,,,,,,,,,,,,,,,,,,,,,,,,,,,,,,,,,,,,,,,,
398863,001,2022-11-21_00h21.18.113,Info_measure_main_exp,2022.2.2,Linux x86_64,30.03003003,,,,,,,,,,,,,,,,,,masks/mask_001.jpg,,,,,,,,,,,,,,,,,,,,,,,,,,,,,,,,,,,,,,,,,,,,,,,,0,2,2,0,1,,,,,,,,,,,,,,,,,,,,,,,,,,,,,,,,,,,,,,,,,
398863,001,2022-11-21_00h21.18.113,Info_measure_main_exp,2022.2.2,Linux x86_64,30.03003003,,,,,,,,,,,,,,,,,,masks/mask_004.jpg,,,,,,,,,,,,,,,,,,,,,,,,,,,,,,,,,,,,,,,,,,,,,,,,0,3,3,3,1,,,,,,,,,,,,,,,,,,,,,,,,,,,,,,,,,,,,,,,,,
398863,001,2022-11-21_00h21.18.113,Info_measure_main_exp,2022.2.2,Linux x86_64,30.03003003,,,,,,,,,,,,,,,,,,masks/mask_005.jpg,,,,,,,,,,,,,,,,,,,,,,,,,,,,,,,,,,,,,,,,,,,,,,,,0,4,4,4,1,,,,,,,,,,,,,,,,,,,,,,,,,,,,,,,,,,,,,,,,,
398863,001,2022-11-21_00h21.18.113,Info_measure_main_exp,2022.2.2,Linux x86_64,30.03003003,,,,,,,,,,,,,,,,,,,,,,,,,,,,,,7,0.383,1,,,,,,,,,,,,0,131,5,5,1950,2178,absent_patch/patch0001950.jpg,absent_patch/patch0002178.jpg,,,,,,,,,,,,,,,,,,,,0.020761246,0.077854671,1,0,0,response1disk,17,0.00922722,0.004036909,1,0,0,center_square,0,16,16,61,1,,,,,,,,,,,,,,,,,,,,,,,
398863,001,2022-11-21_00h21.18.113,Info_measure_main_exp,2022.2.2,Linux x86_64,30.03003003,,,,,,,,,,,,,,,,,,masks/mask_005.jpg,,,,,,,,,,,,,,,,,,,,,,,,,,,,,,,,,,,,,,,,,,,0,0,0,4,1,,,,,,,,,,,,,,,,,,,,,,,,,,,,,,,,,,,,,,,,,,,,,,
398863,001,2022-11-21_00h21.18.113,Info_measure_main_exp,2022.2.2,Linux x86_64,30.03003003,,,,,,,,,,,,,,,,,,masks/mask_001.jpg,,,,,,,,,,,,,,,,,,,,,,,,,,,,,,,,,,,,,,,,,,,0,1,1,0,1,,,,,,,,,,,,,,,,,,,,,,,,,,,,,,,,,,,,,,,,,,,,,,
398863,001,2022-11-21_00h21.18.113,Info_measure_main_exp,2022.2.2,Linux x86_64,30.03003003,,,,,,,,,,,,,,,,,,masks/mask_004.jpg,,,,,,,,,,,,,,,,,,,,,,,,,,,,,,,,,,,,,,,,,,,0,2,2,3,1,,,,,,,,,,,,,,,,,,,,,,,,,,,,,,,,,,,,,,,,,,,,,,
398863,001,2022-11-21_00h21.18.113,Info_measure_main_exp,2022.2.2,Linux x86_64,30.03003003,,,,,,,,,,,,,,,,,,masks/mask_003.jpg,,,,,,,,,,,,,,,,,,,,,,,,,,,,,,,,,,,,,,,,,,,0,3,3,2,1,,,,,,,,,,,,,,,,,,,,,,,,,,,,,,,,,,,,,,,,,,,,,,
398863,001,2022-11-21_00h21.18.113,Info_measure_main_exp,2022.2.2,Linux x86_64,30.03003003,,,,,,,,,,,,,,,,,,masks/mask_002.jpg,,,,,,,,,,,,,,,,,,,,,,,,,,,,,,,,,,,,,,,,,,,0,4,4,1,1,,,,,,,,,,,,,,,,,,,,,,,,,,,,,,,,,,,,,,,,,,,,,,
398863,001,2022-11-21_00h21.18.113,Info_measure_main_exp,2022.2.2,Linux x86_64,30.03003003,,,,,,,,,,,,,,,,,,masks/mask_001.jpg,,,,,,,,,,,,,,,,,,,,,,,,,,,,,,,,,,,,,,,,,,,,,,,,0,0,0,0,1,,,,,,,,,,,,,,,,,,,,,,,,,,,,,,,,,,,,,,,,,
398863,001,2022-11-21_00h21.18.113,Info_measure_main_exp,2022.2.2,Linux x86_64,30.03003003,,,,,,,,,,,,,,,,,,masks/mask_003.jpg,,,,,,,,,,,,,,,,,,,,,,,,,,,,,,,,,,,,,,,,,,,,,,,,0,1,1,2,1,,,,,,,,,,,,,,,,,,,,,,,,,,,,,,,,,,,,,,,,,
398863,001,2022-11-21_00h21.18.113,Info_measure_main_exp,2022.2.2,Linux x86_64,30.03003003,,,,,,,,,,,,,,,,,,masks/mask_005.jpg,,,,,,,,,,,,,,,,,,,,,,,,,,,,,,,,,,,,,,,,,,,,,,,,0,2,2,4,1,,,,,,,,,,,,,,,,,,,,,,,,,,,,,,,,,,,,,,,,,
398863,001,2022-11-21_00h21.18.113,Info_measure_main_exp,2022.2.2,Linux x86_64,30.03003003,,,,,,,,,,,,,,,,,,masks/mask_002.jpg,,,,,,,,,,,,,,,,,,,,,,,,,,,,,,,,,,,,,,,,,,,,,,,,0,3,3,1,1,,,,,,,,,,,,,,,,,,,,,,,,,,,,,,,,,,,,,,,,,
398863,001,2022-11-21_00h21.18.113,Info_measure_main_exp,2022.2.2,Linux x86_64,30.03003003,,,,,,,,,,,,,,,,,,masks/mask_004.jpg,,,,,,,,,,,,,,,,,,,,,,,,,,,,,,,,,,,,,,,,,,,,,,,,0,4,4,3,1,,,,,,,,,,,,,,,,,,,,,,,,,,,,,,,,,,,,,,,,,
398863,001,2022-11-21_00h21.18.113,Info_measure_main_exp,2022.2.2,Linux x86_64,30.03003003,,,,,,,,,,,,,,,,,,,,,,,,,,,,,,7,0.443,1,,,,,,,,,,,,0,131,5,5,2082,1986,absent_patch/patch0002082.jpg,absent_patch/patch0001986.jpg,,,,,,,,,,,,,,,,,,,,0.032295271,0.090542099,1,0,0,response1disk,18,-0.006920415,0.006343714,1,0,0,center_square,0,17,17,94,1,,,,,,,,,,,,,,,,,,,,,,,
398863,001,2022-11-21_00h21.18.113,Info_measure_main_exp,2022.2.2,Linux x86_64,30.03003003,,,,,,,,,,,,,,,,,,masks/mask_001.jpg,,,,,,,,,,,,,,,,,,,,,,,,,,,,,,,,,,,,,,,,,,,0,0,0,0,1,,,,,,,,,,,,,,,,,,,,,,,,,,,,,,,,,,,,,,,,,,,,,,
398863,001,2022-11-21_00h21.18.113,Info_measure_main_exp,2022.2.2,Linux x86_64,30.03003003,,,,,,,,,,,,,,,,,,masks/mask_005.jpg,,,,,,,,,,,,,,,,,,,,,,,,,,,,,,,,,,,,,,,,,,,0,1,1,4,1,,,,,,,,,,,,,,,,,,,,,,,,,,,,,,,,,,,,,,,,,,,,,,
398863,001,2022-11-21_00h21.18.113,Info_measure_main_exp,2022.2.2,Linux x86_64,30.03003003,,,,,,,,,,,,,,,,,,masks/mask_003.jpg,,,,,,,,,,,,,,,,,,,,,,,,,,,,,,,,,,,,,,,,,,,0,2,2,2,1,,,,,,,,,,,,,,,,,,,,,,,,,,,,,,,,,,,,,,,,,,,,,,
398863,001,2022-11-21_00h21.18.113,Info_measure_main_exp,2022.2.2,Linux x86_64,30.03003003,,,,,,,,,,,,,,,,,,masks/mask_004.jpg,,,,,,,,,,,,,,,,,,,,,,,,,,,,,,,,,,,,,,,,,,,0,3,3,3,1,,,,,,,,,,,,,,,,,,,,,,,,,,,,,,,,,,,,,,,,,,,,,,
398863,001,2022-11-21_00h21.18.113,Info_measure_main_exp,2022.2.2,Linux x86_64,30.03003003,,,,,,,,,,,,,,,,,,masks/mask_002.jpg,,,,,,,,,,,,,,,,,,,,,,,,,,,,,,,,,,,,,,,,,,,0,4,4,1,1,,,,,,,,,,,,,,,,,,,,,,,,,,,,,,,,,,,,,,,,,,,,,,
398863,001,2022-11-21_00h21.18.113,Info_measure_main_exp,2022.2.2,Linux x86_64,30.03003003,,,,,,,,,,,,,,,,,,masks/mask_002.jpg,,,,,,,,,,,,,,,,,,,,,,,,,,,,,,,,,,,,,,,,,,,,,,,,0,0,0,1,1,,,,,,,,,,,,,,,,,,,,,,,,,,,,,,,,,,,,,,,,,
398863,001,2022-11-21_00h21.18.113,Info_measure_main_exp,2022.2.2,Linux x86_64,30.03003003,,,,,,,,,,,,,,,,,,masks/mask_004.jpg,,,,,,,,,,,,,,,,,,,,,,,,,,,,,,,,,,,,,,,,,,,,,,,,0,1,1,3,1,,,,,,,,,,,,,,,,,,,,,,,,,,,,,,,,,,,,,,,,,
398863,001,2022-11-21_00h21.18.113,Info_measure_main_exp,2022.2.2,Linux x86_64,30.03003003,,,,,,,,,,,,,,,,,,masks/mask_005.jpg,,,,,,,,,,,,,,,,,,,,,,,,,,,,,,,,,,,,,,,,,,,,,,,,0,2,2,4,1,,,,,,,,,,,,,,,,,,,,,,,,,,,,,,,,,,,,,,,,,
398863,001,2022-11-21_00h21.18.113,Info_measure_main_exp,2022.2.2,Linux x86_64,30.03003003,,,,,,,,,,,,,,,,,,masks/mask_003.jpg,,,,,,,,,,,,,,,,,,,,,,,,,,,,,,,,,,,,,,,,,,,,,,,,0,3,3,2,1,,,,,,,,,,,,,,,,,,,,,,,,,,,,,,,,,,,,,,,,,
398863,001,2022-11-21_00h21.18.113,Info_measure_main_exp,2022.2.2,Linux x86_64,30.03003003,,,,,,,,,,,,,,,,,,masks/mask_001.jpg,,,,,,,,,,,,,,,,,,,,,,,,,,,,,,,,,,,,,,,,,,,,,,,,0,4,4,0,1,,,,,,,,,,,,,,,,,,,,,,,,,,,,,,,,,,,,,,,,,
398863,001,2022-11-21_00h21.18.113,Info_measure_main_exp,2022.2.2,Linux x86_64,30.03003003,,,,,,,,,,,,,,,,,,,,,,,,,,,,,,5,0.832,1,,,,,,,,,,,,0,131,5,5,1950,2166,absent_patch/patch0001950.jpg,absent_patch/patch0002166.jpg,,,,,,,,,,,,,,,,,,,,0.076124567,-0.037485582,1,0,0,response3disk,19,0.008073818,0.000576701,1,0,0,center_square,0,18,18,0,1,,,,,,,,,,,,,,,,,,,,,,,
398863,001,2022-11-21_00h21.18.113,Info_measure_main_exp,2022.2.2,Linux x86_64,30.03003003,,,,,,,,,,,,,,,,,,masks/mask_005.jpg,,,,,,,,,,,,,,,,,,,,,,,,,,,,,,,,,,,,,,,,,,,0,0,0,4,1,,,,,,,,,,,,,,,,,,,,,,,,,,,,,,,,,,,,,,,,,,,,,,
398863,001,2022-11-21_00h21.18.113,Info_measure_main_exp,2022.2.2,Linux x86_64,30.03003003,,,,,,,,,,,,,,,,,,masks/mask_001.jpg,,,,,,,,,,,,,,,,,,,,,,,,,,,,,,,,,,,,,,,,,,,0,1,1,0,1,,,,,,,,,,,,,,,,,,,,,,,,,,,,,,,,,,,,,,,,,,,,,,
398863,001,2022-11-21_00h21.18.113,Info_measure_main_exp,2022.2.2,Linux x86_64,30.03003003,,,,,,,,,,,,,,,,,,masks/mask_003.jpg,,,,,,,,,,,,,,,,,,,,,,,,,,,,,,,,,,,,,,,,,,,0,2,2,2,1,,,,,,,,,,,,,,,,,,,,,,,,,,,,,,,,,,,,,,,,,,,,,,
398863,001,2022-11-21_00h21.18.113,Info_measure_main_exp,2022.2.2,Linux x86_64,30.03003003,,,,,,,,,,,,,,,,,,masks/mask_004.jpg,,,,,,,,,,,,,,,,,,,,,,,,,,,,,,,,,,,,,,,,,,,0,3,3,3,1,,,,,,,,,,,,,,,,,,,,,,,,,,,,,,,,,,,,,,,,,,,,,,
398863,001,2022-11-21_00h21.18.113,Info_measure_main_exp,2022.2.2,Linux x86_64,30.03003003,,,,,,,,,,,,,,,,,,masks/mask_002.jpg,,,,,,,,,,,,,,,,,,,,,,,,,,,,,,,,,,,,,,,,,,,0,4,4,1,1,,,,,,,,,,,,,,,,,,,,,,,,,,,,,,,,,,,,,,,,,,,,,,
398863,001,2022-11-21_00h21.18.113,Info_measure_main_exp,2022.2.2,Linux x86_64,30.03003003,,,,,,,,,,,,,,,,,,masks/mask_005.jpg,,,,,,,,,,,,,,,,,,,,,,,,,,,,,,,,,,,,,,,,,,,,,,,,0,0,0,4,1,,,,,,,,,,,,,,,,,,,,,,,,,,,,,,,,,,,,,,,,,
398863,001,2022-11-21_00h21.18.113,Info_measure_main_exp,2022.2.2,Linux x86_64,30.03003003,,,,,,,,,,,,,,,,,,masks/mask_001.jpg,,,,,,,,,,,,,,,,,,,,,,,,,,,,,,,,,,,,,,,,,,,,,,,,0,1,1,0,1,,,,,,,,,,,,,,,,,,,,,,,,,,,,,,,,,,,,,,,,,
398863,001,2022-11-21_00h21.18.113,Info_measure_main_exp,2022.2.2,Linux x86_64,30.03003003,,,,,,,,,,,,,,,,,,masks/mask_003.jpg,,,,,,,,,,,,,,,,,,,,,,,,,,,,,,,,,,,,,,,,,,,,,,,,0,2,2,2,1,,,,,,,,,,,,,,,,,,,,,,,,,,,,,,,,,,,,,,,,,
398863,001,2022-11-21_00h21.18.113,Info_measure_main_exp,2022.2.2,Linux x86_64,30.03003003,,,,,,,,,,,,,,,,,,masks/mask_002.jpg,,,,,,,,,,,,,,,,,,,,,,,,,,,,,,,,,,,,,,,,,,,,,,,,0,3,3,1,1,,,,,,,,,,,,,,,,,,,,,,,,,,,,,,,,,,,,,,,,,
398863,001,2022-11-21_00h21.18.113,Info_measure_main_exp,2022.2.2,Linux x86_64,30.03003003,,,,,,,,,,,,,,,,,,masks/mask_004.jpg,,,,,,,,,,,,,,,,,,,,,,,,,,,,,,,,,,,,,,,,,,,,,,,,0,4,4,3,1,,,,,,,,,,,,,,,,,,,,,,,,,,,,,,,,,,,,,,,,,
398863,001,2022-11-21_00h21.18.113,Info_measure_main_exp,2022.2.2,Linux x86_64,30.03003003,,,,,,,,,,,,,,,,,,,,,,,,,,,,,,7,0.495,1,,,,,,,,,,,,0,131,5,5,2082,2298,absent_patch/patch0002082.jpg,absent_patch/patch0002298.jpg,,,,,,,,,,,,,,,,,,,,0.018454441,0.105536332,1,0,0,response1disk,20,0.00922722,-0.008650519,1,0,0,center_square,0,19,19,107,1,,,,,,,,,,,,,,,,,,,,,,,
398863,001,2022-11-21_00h21.18.113,Info_measure_main_exp,2022.2.2,Linux x86_64,30.03003003,,,,,,,,,,,,,,,,,,masks/mask_002.jpg,,,,,,,,,,,,,,,,,,,,,,,,,,,,,,,,,,,,,,,,,,,0,0,0,1,1,,,,,,,,,,,,,,,,,,,,,,,,,,,,,,,,,,,,,,,,,,,,,,
398863,001,2022-11-21_00h21.18.113,Info_measure_main_exp,2022.2.2,Linux x86_64,30.03003003,,,,,,,,,,,,,,,,,,masks/mask_004.jpg,,,,,,,,,,,,,,,,,,,,,,,,,,,,,,,,,,,,,,,,,,,0,1,1,3,1,,,,,,,,,,,,,,,,,,,,,,,,,,,,,,,,,,,,,,,,,,,,,,
398863,001,2022-11-21_00h21.18.113,Info_measure_main_exp,2022.2.2,Linux x86_64,30.03003003,,,,,,,,,,,,,,,,,,masks/mask_003.jpg,,,,,,,,,,,,,,,,,,,,,,,,,,,,,,,,,,,,,,,,,,,0,2,2,2,1,,,,,,,,,,,,,,,,,,,,,,,,,,,,,,,,,,,,,,,,,,,,,,
398863,001,2022-11-21_00h21.18.113,Info_measure_main_exp,2022.2.2,Linux x86_64,30.03003003,,,,,,,,,,,,,,,,,,masks/mask_005.jpg,,,,,,,,,,,,,,,,,,,,,,,,,,,,,,,,,,,,,,,,,,,0,3,3,4,1,,,,,,,,,,,,,,,,,,,,,,,,,,,,,,,,,,,,,,,,,,,,,,
398863,001,2022-11-21_00h21.18.113,Info_measure_main_exp,2022.2.2,Linux x86_64,30.03003003,,,,,,,,,,,,,,,,,,masks/mask_001.jpg,,,,,,,,,,,,,,,,,,,,,,,,,,,,,,,,,,,,,,,,,,,0,4,4,0,1,,,,,,,,,,,,,,,,,,,,,,,,,,,,,,,,,,,,,,,,,,,,,,
398863,001,2022-11-21_00h21.18.113,Info_measure_main_exp,2022.2.2,Linux x86_64,30.03003003,,,,,,,,,,,,,,,,,,masks/mask_005.jpg,,,,,,,,,,,,,,,,,,,,,,,,,,,,,,,,,,,,,,,,,,,,,,,,0,0,0,4,1,,,,,,,,,,,,,,,,,,,,,,,,,,,,,,,,,,,,,,,,,
398863,001,2022-11-21_00h21.18.113,Info_measure_main_exp,2022.2.2,Linux x86_64,30.03003003,,,,,,,,,,,,,,,,,,masks/mask_003.jpg,,,,,,,,,,,,,,,,,,,,,,,,,,,,,,,,,,,,,,,,,,,,,,,,0,1,1,2,1,,,,,,,,,,,,,,,,,,,,,,,,,,,,,,,,,,,,,,,,,
398863,001,2022-11-21_00h21.18.113,Info_measure_main_exp,2022.2.2,Linux x86_64,30.03003003,,,,,,,,,,,,,,,,,,masks/mask_004.jpg,,,,,,,,,,,,,,,,,,,,,,,,,,,,,,,,,,,,,,,,,,,,,,,,0,2,2,3,1,,,,,,,,,,,,,,,,,,,,,,,,,,,,,,,,,,,,,,,,,
398863,001,2022-11-21_00h21.18.113,Info_measure_main_exp,2022.2.2,Linux x86_64,30.03003003,,,,,,,,,,,,,,,,,,masks/mask_002.jpg,,,,,,,,,,,,,,,,,,,,,,,,,,,,,,,,,,,,,,,,,,,,,,,,0,3,3,1,1,,,,,,,,,,,,,,,,,,,,,,,,,,,,,,,,,,,,,,,,,
398863,001,2022-11-21_00h21.18.113,Info_measure_main_exp,2022.2.2,Linux x86_64,30.03003003,,,,,,,,,,,,,,,,,,masks/mask_001.jpg,,,,,,,,,,,,,,,,,,,,,,,,,,,,,,,,,,,,,,,,,,,,,,,,0,4,4,0,1,,,,,,,,,,,,,,,,,,,,,,,,,,,,,,,,,,,,,,,,,
398863,001,2022-11-21_00h21.18.113,Info_measure_main_exp,2022.2.2,Linux x86_64,30.03003003,,,,,,,,,,,,,,,,,,,,,,,,,,,,,,7,0.451,1,,,,,,,,,,,,0,131,5,5,2142,2238,absent_patch/patch0002142.jpg,absent_patch/patch0002238.jpg,,,,,,,,,,,,,,,,,,,,0.00922722,0.058246828,1,0,0,response1disk,21,0.012687428,-0.009803922,1,0,0,center_square,0,20,20,101,1,,,,,,,,,,,,,,,,,,,,,,,
398863,001,2022-11-21_00h21.18.113,Info_measure_main_exp,2022.2.2,Linux x86_64,30.03003003,,,,,,,,,,,,,,,,,,masks/mask_003.jpg,,,,,,,,,,,,,,,,,,,,,,,,,,,,,,,,,,,,,,,,,,,0,0,0,2,1,,,,,,,,,,,,,,,,,,,,,,,,,,,,,,,,,,,,,,,,,,,,,,
398863,001,2022-11-21_00h21.18.113,Info_measure_main_exp,2022.2.2,Linux x86_64,30.03003003,,,,,,,,,,,,,,,,,,masks/mask_004.jpg,,,,,,,,,,,,,,,,,,,,,,,,,,,,,,,,,,,,,,,,,,,0,1,1,3,1,,,,,,,,,,,,,,,,,,,,,,,,,,,,,,,,,,,,,,,,,,,,,,
398863,001,2022-11-21_00h21.18.113,Info_measure_main_exp,2022.2.2,Linux x86_64,30.03003003,,,,,,,,,,,,,,,,,,masks/mask_005.jpg,,,,,,,,,,,,,,,,,,,,,,,,,,,,,,,,,,,,,,,,,,,0,2,2,4,1,,,,,,,,,,,,,,,,,,,,,,,,,,,,,,,,,,,,,,,,,,,,,,
398863,001,2022-11-21_00h21.18.113,Info_measure_main_exp,2022.2.2,Linux x86_64,30.03003003,,,,,,,,,,,,,,,,,,masks/mask_001.jpg,,,,,,,,,,,,,,,,,,,,,,,,,,,,,,,,,,,,,,,,,,,0,3,3,0,1,,,,,,,,,,,,,,,,,,,,,,,,,,,,,,,,,,,,,,,,,,,,,,
398863,001,2022-11-21_00h21.18.113,Info_measure_main_exp,2022.2.2,Linux x86_64,30.03003003,,,,,,,,,,,,,,,,,,masks/mask_002.jpg,,,,,,,,,,,,,,,,,,,,,,,,,,,,,,,,,,,,,,,,,,,0,4,4,1,1,,,,,,,,,,,,,,,,,,,,,,,,,,,,,,,,,,,,,,,,,,,,,,
398863,001,2022-11-21_00h21.18.113,Info_measure_main_exp,2022.2.2,Linux x86_64,30.03003003,,,,,,,,,,,,,,,,,,masks/mask_002.jpg,,,,,,,,,,,,,,,,,,,,,,,,,,,,,,,,,,,,,,,,,,,,,,,,0,0,0,1,1,,,,,,,,,,,,,,,,,,,,,,,,,,,,,,,,,,,,,,,,,
398863,001,2022-11-21_00h21.18.113,Info_measure_main_exp,2022.2.2,Linux x86_64,30.03003003,,,,,,,,,,,,,,,,,,masks/mask_001.jpg,,,,,,,,,,,,,,,,,,,,,,,,,,,,,,,,,,,,,,,,,,,,,,,,0,1,1,0,1,,,,,,,,,,,,,,,,,,,,,,,,,,,,,,,,,,,,,,,,,
398863,001,2022-11-21_00h21.18.113,Info_measure_main_exp,2022.2.2,Linux x86_64,30.03003003,,,,,,,,,,,,,,,,,,masks/mask_003.jpg,,,,,,,,,,,,,,,,,,,,,,,,,,,,,,,,,,,,,,,,,,,,,,,,0,2,2,2,1,,,,,,,,,,,,,,,,,,,,,,,,,,,,,,,,,,,,,,,,,
398863,001,2022-11-21_00h21.18.113,Info_measure_main_exp,2022.2.2,Linux x86_64,30.03003003,,,,,,,,,,,,,,,,,,masks/mask_004.jpg,,,,,,,,,,,,,,,,,,,,,,,,,,,,,,,,,,,,,,,,,,,,,,,,0,3,3,3,1,,,,,,,,,,,,,,,,,,,,,,,,,,,,,,,,,,,,,,,,,
398863,001,2022-11-21_00h21.18.113,Info_measure_main_exp,2022.2.2,Linux x86_64,30.03003003,,,,,,,,,,,,,,,,,,masks/mask_005.jpg,,,,,,,,,,,,,,,,,,,,,,,,,,,,,,,,,,,,,,,,,,,,,,,,0,4,4,4,1,,,,,,,,,,,,,,,,,,,,,,,,,,,,,,,,,,,,,,,,,
398863,001,2022-11-21_00h21.18.113,Info_measure_main_exp,2022.2.2,Linux x86_64,30.03003003,,,,,,,,,,,,,,,,,,,,,,,,,,,,,,7,0.457,1,,,,,,,,,,,,0,131,5,5,2214,2082,absent_patch/patch0002214.jpg,absent_patch/patch0002082.jpg,,,,,,,,,,,,,,,,,,,,0.017301038,0.067474048,1,0,0,response1disk,22,0.011534025,0.001730104,1,0,0,center_square,0,21,21,103,1,,,,,,,,,,,,,,,,,,,,,,,
398863,001,2022-11-21_00h21.18.113,Info_measure_main_exp,2022.2.2,Linux x86_64,30.03003003,,,,,,,,,,,,,,,,,,masks/mask_003.jpg,,,,,,,,,,,,,,,,,,,,,,,,,,,,,,,,,,,,,,,,,,,0,0,0,2,1,,,,,,,,,,,,,,,,,,,,,,,,,,,,,,,,,,,,,,,,,,,,,,
398863,001,2022-11-21_00h21.18.113,Info_measure_main_exp,2022.2.2,Linux x86_64,30.03003003,,,,,,,,,,,,,,,,,,masks/mask_005.jpg,,,,,,,,,,,,,,,,,,,,,,,,,,,,,,,,,,,,,,,,,,,0,1,1,4,1,,,,,,,,,,,,,,,,,,,,,,,,,,,,,,,,,,,,,,,,,,,,,,
398863,001,2022-11-21_00h21.18.113,Info_measure_main_exp,2022.2.2,Linux x86_64,30.03003003,,,,,,,,,,,,,,,,,,masks/mask_004.jpg,,,,,,,,,,,,,,,,,,,,,,,,,,,,,,,,,,,,,,,,,,,0,2,2,3,1,,,,,,,,,,,,,,,,,,,,,,,,,,,,,,,,,,,,,,,,,,,,,,
398863,001,2022-11-21_00h21.18.113,Info_measure_main_exp,2022.2.2,Linux x86_64,30.03003003,,,,,,,,,,,,,,,,,,masks/mask_001.jpg,,,,,,,,,,,,,,,,,,,,,,,,,,,,,,,,,,,,,,,,,,,0,3,3,0,1,,,,,,,,,,,,,,,,,,,,,,,,,,,,,,,,,,,,,,,,,,,,,,
398863,001,2022-11-21_00h21.18.113,Info_measure_main_exp,2022.2.2,Linux x86_64,30.03003003,,,,,,,,,,,,,,,,,,masks/mask_002.jpg,,,,,,,,,,,,,,,,,,,,,,,,,,,,,,,,,,,,,,,,,,,0,4,4,1,1,,,,,,,,,,,,,,,,,,,,,,,,,,,,,,,,,,,,,,,,,,,,,,
398863,001,2022-11-21_00h21.18.113,Info_measure_main_exp,2022.2.2,Linux x86_64,30.03003003,,,,,,,,,,,,,,,,,,masks/mask_004.jpg,,,,,,,,,,,,,,,,,,,,,,,,,,,,,,,,,,,,,,,,,,,,,,,,0,0,0,3,1,,,,,,,,,,,,,,,,,,,,,,,,,,,,,,,,,,,,,,,,,
398863,001,2022-11-21_00h21.18.113,Info_measure_main_exp,2022.2.2,Linux x86_64,30.03003003,,,,,,,,,,,,,,,,,,masks/mask_005.jpg,,,,,,,,,,,,,,,,,,,,,,,,,,,,,,,,,,,,,,,,,,,,,,,,0,1,1,4,1,,,,,,,,,,,,,,,,,,,,,,,,,,,,,,,,,,,,,,,,,
398863,001,2022-11-21_00h21.18.113,Info_measure_main_exp,2022.2.2,Linux x86_64,30.03003003,,,,,,,,,,,,,,,,,,masks/mask_003.jpg,,,,,,,,,,,,,,,,,,,,,,,,,,,,,,,,,,,,,,,,,,,,,,,,0,2,2,2,1,,,,,,,,,,,,,,,,,,,,,,,,,,,,,,,,,,,,,,,,,
398863,001,2022-11-21_00h21.18.113,Info_measure_main_exp,2022.2.2,Linux x86_64,30.03003003,,,,,,,,,,,,,,,,,,masks/mask_002.jpg,,,,,,,,,,,,,,,,,,,,,,,,,,,,,,,,,,,,,,,,,,,,,,,,0,3,3,1,1,,,,,,,,,,,,,,,,,,,,,,,,,,,,,,,,,,,,,,,,,
398863,001,2022-11-21_00h21.18.113,Info_measure_main_exp,2022.2.2,Linux x86_64,30.03003003,,,,,,,,,,,,,,,,,,masks/mask_001.jpg,,,,,,,,,,,,,,,,,,,,,,,,,,,,,,,,,,,,,,,,,,,,,,,,0,4,4,0,1,,,,,,,,,,,,,,,,,,,,,,,,,,,,,,,,,,,,,,,,,
398863,001,2022-11-21_00h21.18.113,Info_measure_main_exp,2022.2.2,Linux x86_64,30.03003003,,,,,,,,,,,,,,,,,,,,,,,,,,,,,,7,0.701,1,,,,,,,,,,,,0,131,5,5,2154,2154,absent_patch/patch0002154.jpg,absent_patch/patch0002154.jpg,,,,,,,,,,,,,,,,,,,,0.020761246,0.075547866,1,0,0,response1disk,23,0.006920415,-0.017877739,1,0,0,center_square,0,22,22,89,1,,,,,,,,,,,,,,,,,,,,,,,
398863,001,2022-11-21_00h21.18.113,Info_measure_main_exp,2022.2.2,Linux x86_64,30.03003003,,,,,,,,,,,,,,,,,,masks/mask_005.jpg,,,,,,,,,,,,,,,,,,,,,,,,,,,,,,,,,,,,,,,,,,,0,0,0,4,1,,,,,,,,,,,,,,,,,,,,,,,,,,,,,,,,,,,,,,,,,,,,,,
398863,001,2022-11-21_00h21.18.113,Info_measure_main_exp,2022.2.2,Linux x86_64,30.03003003,,,,,,,,,,,,,,,,,,masks/mask_002.jpg,,,,,,,,,,,,,,,,,,,,,,,,,,,,,,,,,,,,,,,,,,,0,1,1,1,1,,,,,,,,,,,,,,,,,,,,,,,,,,,,,,,,,,,,,,,,,,,,,,
398863,001,2022-11-21_00h21.18.113,Info_measure_main_exp,2022.2.2,Linux x86_64,30.03003003,,,,,,,,,,,,,,,,,,masks/mask_001.jpg,,,,,,,,,,,,,,,,,,,,,,,,,,,,,,,,,,,,,,,,,,,0,2,2,0,1,,,,,,,,,,,,,,,,,,,,,,,,,,,,,,,,,,,,,,,,,,,,,,
398863,001,2022-11-21_00h21.18.113,Info_measure_main_exp,2022.2.2,Linux x86_64,30.03003003,,,,,,,,,,,,,,,,,,masks/mask_003.jpg,,,,,,,,,,,,,,,,,,,,,,,,,,,,,,,,,,,,,,,,,,,0,3,3,2,1,,,,,,,,,,,,,,,,,,,,,,,,,,,,,,,,,,,,,,,,,,,,,,
398863,001,2022-11-21_00h21.18.113,Info_measure_main_exp,2022.2.2,Linux x86_64,30.03003003,,,,,,,,,,,,,,,,,,masks/mask_004.jpg,,,,,,,,,,,,,,,,,,,,,,,,,,,,,,,,,,,,,,,,,,,0,4,4,3,1,,,,,,,,,,,,,,,,,,,,,,,,,,,,,,,,,,,,,,,,,,,,,,
398863,001,2022-11-21_00h21.18.113,Info_measure_main_exp,2022.2.2,Linux x86_64,30.03003003,,,,,,,,,,,,,,,,,,masks/mask_005.jpg,,,,,,,,,,,,,,,,,,,,,,,,,,,,,,,,,,,,,,,,,,,,,,,,0,0,0,4,1,,,,,,,,,,,,,,,,,,,,,,,,,,,,,,,,,,,,,,,,,
398863,001,2022-11-21_00h21.18.113,Info_measure_main_exp,2022.2.2,Linux x86_64,30.03003003,,,,,,,,,,,,,,,,,,masks/mask_003.jpg,,,,,,,,,,,,,,,,,,,,,,,,,,,,,,,,,,,,,,,,,,,,,,,,0,1,1,2,1,,,,,,,,,,,,,,,,,,,,,,,,,,,,,,,,,,,,,,,,,
398863,001,2022-11-21_00h21.18.113,Info_measure_main_exp,2022.2.2,Linux x86_64,30.03003003,,,,,,,,,,,,,,,,,,masks/mask_001.jpg,,,,,,,,,,,,,,,,,,,,,,,,,,,,,,,,,,,,,,,,,,,,,,,,0,2,2,0,1,,,,,,,,,,,,,,,,,,,,,,,,,,,,,,,,,,,,,,,,,
398863,001,2022-11-21_00h21.18.113,Info_measure_main_exp,2022.2.2,Linux x86_64,30.03003003,,,,,,,,,,,,,,,,,,masks/mask_002.jpg,,,,,,,,,,,,,,,,,,,,,,,,,,,,,,,,,,,,,,,,,,,,,,,,0,3,3,1,1,,,,,,,,,,,,,,,,,,,,,,,,,,,,,,,,,,,,,,,,,
398863,001,2022-11-21_00h21.18.113,Info_measure_main_exp,2022.2.2,Linux x86_64,30.03003003,,,,,,,,,,,,,,,,,,masks/mask_004.jpg,,,,,,,,,,,,,,,,,,,,,,,,,,,,,,,,,,,,,,,,,,,,,,,,0,4,4,3,1,,,,,,,,,,,,,,,,,,,,,,,,,,,,,,,,,,,,,,,,,
398863,001,2022-11-21_00h21.18.113,Info_measure_main_exp,2022.2.2,Linux x86_64,30.03003003,,,,,,,,,,,,,,,,,,,,,,,,,,,,,,7,0.447,1,,,,,,,,,,,,0,131,5,5,2082,2250,absent_patch/patch0002082.jpg,absent_patch/patch0002250.jpg,,,,,,,,,,,,,,,,,,,,0.019607843,0.076701269,1,0,0,response1disk,24,0.01384083,0.017877739,1,0,0,center_square,0,23,23,3,1,,,,,,,,,,,,,,,,,,,,,,,
398863,001,2022-11-21_00h21.18.113,Info_measure_main_exp,2022.2.2,Linux x86_64,30.03003003,,,,,,,,,,,,,,,,,,masks/mask_003.jpg,,,,,,,,,,,,,,,,,,,,,,,,,,,,,,,,,,,,,,,,,,,0,0,0,2,1,,,,,,,,,,,,,,,,,,,,,,,,,,,,,,,,,,,,,,,,,,,,,,
398863,001,2022-11-21_00h21.18.113,Info_measure_main_exp,2022.2.2,Linux x86_64,30.03003003,,,,,,,,,,,,,,,,,,masks/mask_001.jpg,,,,,,,,,,,,,,,,,,,,,,,,,,,,,,,,,,,,,,,,,,,0,1,1,0,1,,,,,,,,,,,,,,,,,,,,,,,,,,,,,,,,,,,,,,,,,,,,,,
398863,001,2022-11-21_00h21.18.113,Info_measure_main_exp,2022.2.2,Linux x86_64,30.03003003,,,,,,,,,,,,,,,,,,masks/mask_002.jpg,,,,,,,,,,,,,,,,,,,,,,,,,,,,,,,,,,,,,,,,,,,0,2,2,1,1,,,,,,,,,,,,,,,,,,,,,,,,,,,,,,,,,,,,,,,,,,,,,,
398863,001,2022-11-21_00h21.18.113,Info_measure_main_exp,2022.2.2,Linux x86_64,30.03003003,,,,,,,,,,,,,,,,,,masks/mask_005.jpg,,,,,,,,,,,,,,,,,,,,,,,,,,,,,,,,,,,,,,,,,,,0,3,3,4,1,,,,,,,,,,,,,,,,,,,,,,,,,,,,,,,,,,,,,,,,,,,,,,
398863,001,2022-11-21_00h21.18.113,Info_measure_main_exp,2022.2.2,Linux x86_64,30.03003003,,,,,,,,,,,,,,,,,,masks/mask_004.jpg,,,,,,,,,,,,,,,,,,,,,,,,,,,,,,,,,,,,,,,,,,,0,4,4,3,1,,,,,,,,,,,,,,,,,,,,,,,,,,,,,,,,,,,,,,,,,,,,,,
398863,001,2022-11-21_00h21.18.113,Info_measure_main_exp,2022.2.2,Linux x86_64,30.03003003,,,,,,,,,,,,,,,,,,masks/mask_003.jpg,,,,,,,,,,,,,,,,,,,,,,,,,,,,,,,,,,,,,,,,,,,,,,,,0,0,0,2,1,,,,,,,,,,,,,,,,,,,,,,,,,,,,,,,,,,,,,,,,,
398863,001,2022-11-21_00h21.18.113,Info_measure_main_exp,2022.2.2,Linux x86_64,30.03003003,,,,,,,,,,,,,,,,,,masks/mask_005.jpg,,,,,,,,,,,,,,,,,,,,,,,,,,,,,,,,,,,,,,,,,,,,,,,,0,1,1,4,1,,,,,,,,,,,,,,,,,,,,,,,,,,,,,,,,,,,,,,,,,
398863,001,2022-11-21_00h21.18.113,Info_measure_main_exp,2022.2.2,Linux x86_64,30.03003003,,,,,,,,,,,,,,,,,,masks/mask_004.jpg,,,,,,,,,,,,,,,,,,,,,,,,,,,,,,,,,,,,,,,,,,,,,,,,0,2,2,3,1,,,,,,,,,,,,,,,,,,,,,,,,,,,,,,,,,,,,,,,,,
398863,001,2022-11-21_00h21.18.113,Info_measure_main_exp,2022.2.2,Linux x86_64,30.03003003,,,,,,,,,,,,,,,,,,masks/mask_001.jpg,,,,,,,,,,,,,,,,,,,,,,,,,,,,,,,,,,,,,,,,,,,,,,,,0,3,3,0,1,,,,,,,,,,,,,,,,,,,,,,,,,,,,,,,,,,,,,,,,,
398863,001,2022-11-21_00h21.18.113,Info_measure_main_exp,2022.2.2,Linux x86_64,30.03003003,,,,,,,,,,,,,,,,,,masks/mask_002.jpg,,,,,,,,,,,,,,,,,,,,,,,,,,,,,,,,,,,,,,,,,,,,,,,,0,4,4,1,1,,,,,,,,,,,,,,,,,,,,,,,,,,,,,,,,,,,,,,,,,
398863,001,2022-11-21_00h21.18.113,Info_measure_main_exp,2022.2.2,Linux x86_64,30.03003003,,,,,,,,,,,,,,,,,,,,,,,,,,,,,,7,0.385,1,,,,,,,,,,,,0,131,5,5,2274,1974,absent_patch/patch0002274.jpg,absent_patch/patch0001974.jpg,,,,,,,,,,,,,,,,,,,,0.025374856,0.073241061,1,0,0,response1disk,25,0.002306805,-0.002883506,1,0,0,center_square,0,24,24,90,1,,,,,,,,,,,,,,,,,,,,,,,
398863,001,2022-11-21_00h21.18.113,Info_measure_main_exp,2022.2.2,Linux x86_64,30.03003003,,,,,,,,,,,,,,,,,,masks/mask_002.jpg,,,,,,,,,,,,,,,,,,,,,,,,,,,,,,,,,,,,,,,,,,,0,0,0,1,1,,,,,,,,,,,,,,,,,,,,,,,,,,,,,,,,,,,,,,,,,,,,,,
398863,001,2022-11-21_00h21.18.113,Info_measure_main_exp,2022.2.2,Linux x86_64,30.03003003,,,,,,,,,,,,,,,,,,masks/mask_001.jpg,,,,,,,,,,,,,,,,,,,,,,,,,,,,,,,,,,,,,,,,,,,0,1,1,0,1,,,,,,,,,,,,,,,,,,,,,,,,,,,,,,,,,,,,,,,,,,,,,,
398863,001,2022-11-21_00h21.18.113,Info_measure_main_exp,2022.2.2,Linux x86_64,30.03003003,,,,,,,,,,,,,,,,,,masks/mask_003.jpg,,,,,,,,,,,,,,,,,,,,,,,,,,,,,,,,,,,,,,,,,,,0,2,2,2,1,,,,,,,,,,,,,,,,,,,,,,,,,,,,,,,,,,,,,,,,,,,,,,
398863,001,2022-11-21_00h21.18.113,Info_measure_main_exp,2022.2.2,Linux x86_64,30.03003003,,,,,,,,,,,,,,,,,,masks/mask_005.jpg,,,,,,,,,,,,,,,,,,,,,,,,,,,,,,,,,,,,,,,,,,,0,3,3,4,1,,,,,,,,,,,,,,,,,,,,,,,,,,,,,,,,,,,,,,,,,,,,,,
398863,001,2022-11-21_00h21.18.113,Info_measure_main_exp,2022.2.2,Linux x86_64,30.03003003,,,,,,,,,,,,,,,,,,masks/mask_004.jpg,,,,,,,,,,,,,,,,,,,,,,,,,,,,,,,,,,,,,,,,,,,0,4,4,3,1,,,,,,,,,,,,,,,,,,,,,,,,,,,,,,,,,,,,,,,,,,,,,,
398863,001,2022-11-21_00h21.18.113,Info_measure_main_exp,2022.2.2,Linux x86_64,30.03003003,,,,,,,,,,,,,,,,,,masks/mask_005.jpg,,,,,,,,,,,,,,,,,,,,,,,,,,,,,,,,,,,,,,,,,,,,,,,,0,0,0,4,1,,,,,,,,,,,,,,,,,,,,,,,,,,,,,,,,,,,,,,,,,
398863,001,2022-11-21_00h21.18.113,Info_measure_main_exp,2022.2.2,Linux x86_64,30.03003003,,,,,,,,,,,,,,,,,,masks/mask_002.jpg,,,,,,,,,,,,,,,,,,,,,,,,,,,,,,,,,,,,,,,,,,,,,,,,0,1,1,1,1,,,,,,,,,,,,,,,,,,,,,,,,,,,,,,,,,,,,,,,,,
398863,001,2022-11-21_00h21.18.113,Info_measure_main_exp,2022.2.2,Linux x86_64,30.03003003,,,,,,,,,,,,,,,,,,masks/mask_004.jpg,,,,,,,,,,,,,,,,,,,,,,,,,,,,,,,,,,,,,,,,,,,,,,,,0,2,2,3,1,,,,,,,,,,,,,,,,,,,,,,,,,,,,,,,,,,,,,,,,,
398863,001,2022-11-21_00h21.18.113,Info_measure_main_exp,2022.2.2,Linux x86_64,30.03003003,,,,,,,,,,,,,,,,,,masks/mask_003.jpg,,,,,,,,,,,,,,,,,,,,,,,,,,,,,,,,,,,,,,,,,,,,,,,,0,3,3,2,1,,,,,,,,,,,,,,,,,,,,,,,,,,,,,,,,,,,,,,,,,
398863,001,2022-11-21_00h21.18.113,Info_measure_main_exp,2022.2.2,Linux x86_64,30.03003003,,,,,,,,,,,,,,,,,,masks/mask_001.jpg,,,,,,,,,,,,,,,,,,,,,,,,,,,,,,,,,,,,,,,,,,,,,,,,0,4,4,0,1,,,,,,,,,,,,,,,,,,,,,,,,,,,,,,,,,,,,,,,,,
398863,001,2022-11-21_00h21.18.113,Info_measure_main_exp,2022.2.2,Linux x86_64,30.03003003,,,,,,,,,,,,,,,,,,,,,,,,,,,,,,7,0.401,1,,,,,,,,,,,,1,131,5,5,1,2142,present_patch/cong_131_5_a.jpg,absent_patch/patch0002142.jpg,,,,,,,,,,,,,,,,,,,,0.016147636,0.058246828,1,0,0,response1disk,26,0.00922722,0.007497116,1,0,0,center_square,0,25,25,80,1,,,,,,,,,,,,,,,,,,,,,,,
398863,001,2022-11-21_00h21.18.113,Info_measure_main_exp,2022.2.2,Linux x86_64,30.03003003,,,,,,,,,,,,,,,,,,masks/mask_005.jpg,,,,,,,,,,,,,,,,,,,,,,,,,,,,,,,,,,,,,,,,,,,0,0,0,4,1,,,,,,,,,,,,,,,,,,,,,,,,,,,,,,,,,,,,,,,,,,,,,,
398863,001,2022-11-21_00h21.18.113,Info_measure_main_exp,2022.2.2,Linux x86_64,30.03003003,,,,,,,,,,,,,,,,,,masks/mask_003.jpg,,,,,,,,,,,,,,,,,,,,,,,,,,,,,,,,,,,,,,,,,,,0,1,1,2,1,,,,,,,,,,,,,,,,,,,,,,,,,,,,,,,,,,,,,,,,,,,,,,
398863,001,2022-11-21_00h21.18.113,Info_measure_main_exp,2022.2.2,Linux x86_64,30.03003003,,,,,,,,,,,,,,,,,,masks/mask_004.jpg,,,,,,,,,,,,,,,,,,,,,,,,,,,,,,,,,,,,,,,,,,,0,2,2,3,1,,,,,,,,,,,,,,,,,,,,,,,,,,,,,,,,,,,,,,,,,,,,,,
398863,001,2022-11-21_00h21.18.113,Info_measure_main_exp,2022.2.2,Linux x86_64,30.03003003,,,,,,,,,,,,,,,,,,masks/mask_001.jpg,,,,,,,,,,,,,,,,,,,,,,,,,,,,,,,,,,,,,,,,,,,0,3,3,0,1,,,,,,,,,,,,,,,,,,,,,,,,,,,,,,,,,,,,,,,,,,,,,,
398863,001,2022-11-21_00h21.18.113,Info_measure_main_exp,2022.2.2,Linux x86_64,30.03003003,,,,,,,,,,,,,,,,,,masks/mask_002.jpg,,,,,,,,,,,,,,,,,,,,,,,,,,,,,,,,,,,,,,,,,,,0,4,4,1,1,,,,,,,,,,,,,,,,,,,,,,,,,,,,,,,,,,,,,,,,,,,,,,
398863,001,2022-11-21_00h21.18.113,Info_measure_main_exp,2022.2.2,Linux x86_64,30.03003003,,,,,,,,,,,,,,,,,,masks/mask_001.jpg,,,,,,,,,,,,,,,,,,,,,,,,,,,,,,,,,,,,,,,,,,,,,,,,0,0,0,0,1,,,,,,,,,,,,,,,,,,,,,,,,,,,,,,,,,,,,,,,,,
398863,001,2022-11-21_00h21.18.113,Info_measure_main_exp,2022.2.2,Linux x86_64,30.03003003,,,,,,,,,,,,,,,,,,masks/mask_005.jpg,,,,,,,,,,,,,,,,,,,,,,,,,,,,,,,,,,,,,,,,,,,,,,,,0,1,1,4,1,,,,,,,,,,,,,,,,,,,,,,,,,,,,,,,,,,,,,,,,,
398863,001,2022-11-21_00h21.18.113,Info_measure_main_exp,2022.2.2,Linux x86_64,30.03003003,,,,,,,,,,,,,,,,,,masks/mask_003.jpg,,,,,,,,,,,,,,,,,,,,,,,,,,,,,,,,,,,,,,,,,,,,,,,,0,2,2,2,1,,,,,,,,,,,,,,,,,,,,,,,,,,,,,,,,,,,,,,,,,
398863,001,2022-11-21_00h21.18.113,Info_measure_main_exp,2022.2.2,Linux x86_64,30.03003003,,,,,,,,,,,,,,,,,,masks/mask_002.jpg,,,,,,,,,,,,,,,,,,,,,,,,,,,,,,,,,,,,,,,,,,,,,,,,0,3,3,1,1,,,,,,,,,,,,,,,,,,,,,,,,,,,,,,,,,,,,,,,,,
398863,001,2022-11-21_00h21.18.113,Info_measure_main_exp,2022.2.2,Linux x86_64,30.03003003,,,,,,,,,,,,,,,,,,masks/mask_004.jpg,,,,,,,,,,,,,,,,,,,,,,,,,,,,,,,,,,,,,,,,,,,,,,,,0,4,4,3,1,,,,,,,,,,,,,,,,,,,,,,,,,,,,,,,,,,,,,,,,,
398863,001,2022-11-21_00h21.18.113,Info_measure_main_exp,2022.2.2,Linux x86_64,30.03003003,,,,,,,,,,,,,,,,,,,,,,,,,,,,,,4,0.6,1,,,,,,,,,,,,0,131,5,5,2190,2082,absent_patch/patch0002190.jpg,absent_patch/patch0002082.jpg,,,,,,,,,,,,,,,,,,,,0.020761246,-0.053633218,1,0,0,response3disk,27,0.016147636,0.001730104,1,0,0,center_square,0,26,26,112,1,,,,,,,,,,,,,,,,,,,,,,,
398863,001,2022-11-21_00h21.18.113,Info_measure_main_exp,2022.2.2,Linux x86_64,30.03003003,,,,,,,,,,,,,,,,,,masks/mask_001.jpg,,,,,,,,,,,,,,,,,,,,,,,,,,,,,,,,,,,,,,,,,,,0,0,0,0,1,,,,,,,,,,,,,,,,,,,,,,,,,,,,,,,,,,,,,,,,,,,,,,
398863,001,2022-11-21_00h21.18.113,Info_measure_main_exp,2022.2.2,Linux x86_64,30.03003003,,,,,,,,,,,,,,,,,,masks/mask_002.jpg,,,,,,,,,,,,,,,,,,,,,,,,,,,,,,,,,,,,,,,,,,,0,1,1,1,1,,,,,,,,,,,,,,,,,,,,,,,,,,,,,,,,,,,,,,,,,,,,,,
398863,001,2022-11-21_00h21.18.113,Info_measure_main_exp,2022.2.2,Linux x86_64,30.03003003,,,,,,,,,,,,,,,,,,masks/mask_005.jpg,,,,,,,,,,,,,,,,,,,,,,,,,,,,,,,,,,,,,,,,,,,0,2,2,4,1,,,,,,,,,,,,,,,,,,,,,,,,,,,,,,,,,,,,,,,,,,,,,,
398863,001,2022-11-21_00h21.18.113,Info_measure_main_exp,2022.2.2,Linux x86_64,30.03003003,,,,,,,,,,,,,,,,,,masks/mask_004.jpg,,,,,,,,,,,,,,,,,,,,,,,,,,,,,,,,,,,,,,,,,,,0,3,3,3,1,,,,,,,,,,,,,,,,,,,,,,,,,,,,,,,,,,,,,,,,,,,,,,
398863,001,2022-11-21_00h21.18.113,Info_measure_main_exp,2022.2.2,Linux x86_64,30.03003003,,,,,,,,,,,,,,,,,,masks/mask_003.jpg,,,,,,,,,,,,,,,,,,,,,,,,,,,,,,,,,,,,,,,,,,,0,4,4,2,1,,,,,,,,,,,,,,,,,,,,,,,,,,,,,,,,,,,,,,,,,,,,,,
398863,001,2022-11-21_00h21.18.113,Info_measure_main_exp,2022.2.2,Linux x86_64,30.03003003,,,,,,,,,,,,,,,,,,masks/mask_003.jpg,,,,,,,,,,,,,,,,,,,,,,,,,,,,,,,,,,,,,,,,,,,,,,,,0,0,0,2,1,,,,,,,,,,,,,,,,,,,,,,,,,,,,,,,,,,,,,,,,,
398863,001,2022-11-21_00h21.18.113,Info_measure_main_exp,2022.2.2,Linux x86_64,30.03003003,,,,,,,,,,,,,,,,,,masks/mask_002.jpg,,,,,,,,,,,,,,,,,,,,,,,,,,,,,,,,,,,,,,,,,,,,,,,,0,1,1,1,1,,,,,,,,,,,,,,,,,,,,,,,,,,,,,,,,,,,,,,,,,
398863,001,2022-11-21_00h21.18.113,Info_measure_main_exp,2022.2.2,Linux x86_64,30.03003003,,,,,,,,,,,,,,,,,,masks/mask_001.jpg,,,,,,,,,,,,,,,,,,,,,,,,,,,,,,,,,,,,,,,,,,,,,,,,0,2,2,0,1,,,,,,,,,,,,,,,,,,,,,,,,,,,,,,,,,,,,,,,,,
398863,001,2022-11-21_00h21.18.113,Info_measure_main_exp,2022.2.2,Linux x86_64,30.03003003,,,,,,,,,,,,,,,,,,masks/mask_004.jpg,,,,,,,,,,,,,,,,,,,,,,,,,,,,,,,,,,,,,,,,,,,,,,,,0,3,3,3,1,,,,,,,,,,,,,,,,,,,,,,,,,,,,,,,,,,,,,,,,,
398863,001,2022-11-21_00h21.18.113,Info_measure_main_exp,2022.2.2,Linux x86_64,30.03003003,,,,,,,,,,,,,,,,,,masks/mask_005.jpg,,,,,,,,,,,,,,,,,,,,,,,,,,,,,,,,,,,,,,,,,,,,,,,,0,4,4,4,1,,,,,,,,,,,,,,,,,,,,,,,,,,,,,,,,,,,,,,,,,
398863,001,2022-11-21_00h21.18.113,Info_measure_main_exp,2022.2.2,Linux x86_64,30.03003003,,,,,,,,,,,,,,,,,,,,,,,,,,,,,,7,0.465,1,,,,,,,,,,,,0,131,5,5,2178,2238,absent_patch/patch0002178.jpg,absent_patch/patch0002238.jpg,,,,,,,,,,,,,,,,,,,,0.012687428,0.062860438,1,0,0,response1disk,28,0.003460208,0.005190311,1,0,0,center_square,0,27,27,57,1,,,,,,,,,,,,,,,,,,,,,,,
398863,001,2022-11-21_00h21.18.113,Info_measure_main_exp,2022.2.2,Linux x86_64,30.03003003,,,,,,,,,,,,,,,,,,masks/mask_005.jpg,,,,,,,,,,,,,,,,,,,,,,,,,,,,,,,,,,,,,,,,,,,0,0,0,4,1,,,,,,,,,,,,,,,,,,,,,,,,,,,,,,,,,,,,,,,,,,,,,,
398863,001,2022-11-21_00h21.18.113,Info_measure_main_exp,2022.2.2,Linux x86_64,30.03003003,,,,,,,,,,,,,,,,,,masks/mask_002.jpg,,,,,,,,,,,,,,,,,,,,,,,,,,,,,,,,,,,,,,,,,,,0,1,1,1,1,,,,,,,,,,,,,,,,,,,,,,,,,,,,,,,,,,,,,,,,,,,,,,
398863,001,2022-11-21_00h21.18.113,Info_measure_main_exp,2022.2.2,Linux x86_64,30.03003003,,,,,,,,,,,,,,,,,,masks/mask_003.jpg,,,,,,,,,,,,,,,,,,,,,,,,,,,,,,,,,,,,,,,,,,,0,2,2,2,1,,,,,,,,,,,,,,,,,,,,,,,,,,,,,,,,,,,,,,,,,,,,,,
398863,001,2022-11-21_00h21.18.113,Info_measure_main_exp,2022.2.2,Linux x86_64,30.03003003,,,,,,,,,,,,,,,,,,masks/mask_004.jpg,,,,,,,,,,,,,,,,,,,,,,,,,,,,,,,,,,,,,,,,,,,0,3,3,3,1,,,,,,,,,,,,,,,,,,,,,,,,,,,,,,,,,,,,,,,,,,,,,,
398863,001,2022-11-21_00h21.18.113,Info_measure_main_exp,2022.2.2,Linux x86_64,30.03003003,,,,,,,,,,,,,,,,,,masks/mask_001.jpg,,,,,,,,,,,,,,,,,,,,,,,,,,,,,,,,,,,,,,,,,,,0,4,4,0,1,,,,,,,,,,,,,,,,,,,,,,,,,,,,,,,,,,,,,,,,,,,,,,
398863,001,2022-11-21_00h21.18.113,Info_measure_main_exp,2022.2.2,Linux x86_64,30.03003003,,,,,,,,,,,,,,,,,,masks/mask_002.jpg,,,,,,,,,,,,,,,,,,,,,,,,,,,,,,,,,,,,,,,,,,,,,,,,0,0,0,1,1,,,,,,,,,,,,,,,,,,,,,,,,,,,,,,,,,,,,,,,,,
398863,001,2022-11-21_00h21.18.113,Info_measure_main_exp,2022.2.2,Linux x86_64,30.03003003,,,,,,,,,,,,,,,,,,masks/mask_001.jpg,,,,,,,,,,,,,,,,,,,,,,,,,,,,,,,,,,,,,,,,,,,,,,,,0,1,1,0,1,,,,,,,,,,,,,,,,,,,,,,,,,,,,,,,,,,,,,,,,,
398863,001,2022-11-21_00h21.18.113,Info_measure_main_exp,2022.2.2,Linux x86_64,30.03003003,,,,,,,,,,,,,,,,,,masks/mask_005.jpg,,,,,,,,,,,,,,,,,,,,,,,,,,,,,,,,,,,,,,,,,,,,,,,,0,2,2,4,1,,,,,,,,,,,,,,,,,,,,,,,,,,,,,,,,,,,,,,,,,
398863,001,2022-11-21_00h21.18.113,Info_measure_main_exp,2022.2.2,Linux x86_64,30.03003003,,,,,,,,,,,,,,,,,,masks/mask_003.jpg,,,,,,,,,,,,,,,,,,,,,,,,,,,,,,,,,,,,,,,,,,,,,,,,0,3,3,2,1,,,,,,,,,,,,,,,,,,,,,,,,,,,,,,,,,,,,,,,,,
398863,001,2022-11-21_00h21.18.113,Info_measure_main_exp,2022.2.2,Linux x86_64,30.03003003,,,,,,,,,,,,,,,,,,masks/mask_004.jpg,,,,,,,,,,,,,,,,,,,,,,,,,,,,,,,,,,,,,,,,,,,,,,,,0,4,4,3,1,,,,,,,,,,,,,,,,,,,,,,,,,,,,,,,,,,,,,,,,,
398863,001,2022-11-21_00h21.18.113,Info_measure_main_exp,2022.2.2,Linux x86_64,30.03003003,,,,,,,,,,,,,,,,,,,,,,,,,,,,,,0,0.583,1,,,,,,,,,,,,0,131,5,5,2178,2178,absent_patch/patch0002178.jpg,absent_patch/patch0002178.jpg,,,,,,,,,,,,,,,,,,,,-0.080738178,0.115916955,1,0,0,response7disk,29,-0.012687428,0.004036909,1,0,0,center_square,0,28,28,98,1,,,,,,,,,,,,,,,,,,,,,,,
398863,001,2022-11-21_00h21.18.113,Info_measure_main_exp,2022.2.2,Linux x86_64,30.03003003,,,,,,,,,,,,,,,,,,masks/mask_001.jpg,,,,,,,,,,,,,,,,,,,,,,,,,,,,,,,,,,,,,,,,,,,0,0,0,0,1,,,,,,,,,,,,,,,,,,,,,,,,,,,,,,,,,,,,,,,,,,,,,,
398863,001,2022-11-21_00h21.18.113,Info_measure_main_exp,2022.2.2,Linux x86_64,30.03003003,,,,,,,,,,,,,,,,,,masks/mask_004.jpg,,,,,,,,,,,,,,,,,,,,,,,,,,,,,,,,,,,,,,,,,,,0,1,1,3,1,,,,,,,,,,,,,,,,,,,,,,,,,,,,,,,,,,,,,,,,,,,,,,
398863,001,2022-11-21_00h21.18.113,Info_measure_main_exp,2022.2.2,Linux x86_64,30.03003003,,,,,,,,,,,,,,,,,,masks/mask_003.jpg,,,,,,,,,,,,,,,,,,,,,,,,,,,,,,,,,,,,,,,,,,,0,2,2,2,1,,,,,,,,,,,,,,,,,,,,,,,,,,,,,,,,,,,,,,,,,,,,,,
398863,001,2022-11-21_00h21.18.113,Info_measure_main_exp,2022.2.2,Linux x86_64,30.03003003,,,,,,,,,,,,,,,,,,masks/mask_002.jpg,,,,,,,,,,,,,,,,,,,,,,,,,,,,,,,,,,,,,,,,,,,0,3,3,1,1,,,,,,,,,,,,,,,,,,,,,,,,,,,,,,,,,,,,,,,,,,,,,,
398863,001,2022-11-21_00h21.18.113,Info_measure_main_exp,2022.2.2,Linux x86_64,30.03003003,,,,,,,,,,,,,,,,,,masks/mask_005.jpg,,,,,,,,,,,,,,,,,,,,,,,,,,,,,,,,,,,,,,,,,,,0,4,4,4,1,,,,,,,,,,,,,,,,,,,,,,,,,,,,,,,,,,,,,,,,,,,,,,
398863,001,2022-11-21_00h21.18.113,Info_measure_main_exp,2022.2.2,Linux x86_64,30.03003003,,,,,,,,,,,,,,,,,,masks/mask_002.jpg,,,,,,,,,,,,,,,,,,,,,,,,,,,,,,,,,,,,,,,,,,,,,,,,0,0,0,1,1,,,,,,,,,,,,,,,,,,,,,,,,,,,,,,,,,,,,,,,,,
398863,001,2022-11-21_00h21.18.113,Info_measure_main_exp,2022.2.2,Linux x86_64,30.03003003,,,,,,,,,,,,,,,,,,masks/mask_003.jpg,,,,,,,,,,,,,,,,,,,,,,,,,,,,,,,,,,,,,,,,,,,,,,,,0,1,1,2,1,,,,,,,,,,,,,,,,,,,,,,,,,,,,,,,,,,,,,,,,,
398863,001,2022-11-21_00h21.18.113,Info_measure_main_exp,2022.2.2,Linux x86_64,30.03003003,,,,,,,,,,,,,,,,,,masks/mask_004.jpg,,,,,,,,,,,,,,,,,,,,,,,,,,,,,,,,,,,,,,,,,,,,,,,,0,2,2,3,1,,,,,,,,,,,,,,,,,,,,,,,,,,,,,,,,,,,,,,,,,
398863,001,2022-11-21_00h21.18.113,Info_measure_main_exp,2022.2.2,Linux x86_64,30.03003003,,,,,,,,,,,,,,,,,,masks/mask_005.jpg,,,,,,,,,,,,,,,,,,,,,,,,,,,,,,,,,,,,,,,,,,,,,,,,0,3,3,4,1,,,,,,,,,,,,,,,,,,,,,,,,,,,,,,,,,,,,,,,,,
398863,001,2022-11-21_00h21.18.113,Info_measure_main_exp,2022.2.2,Linux x86_64,30.03003003,,,,,,,,,,,,,,,,,,masks/mask_001.jpg,,,,,,,,,,,,,,,,,,,,,,,,,,,,,,,,,,,,,,,,,,,,,,,,0,4,4,0,1,,,,,,,,,,,,,,,,,,,,,,,,,,,,,,,,,,,,,,,,,
398863,001,2022-11-21_00h21.18.113,Info_measure_main_exp,2022.2.2,Linux x86_64,30.03003003,,,,,,,,,,,,,,,,,,,,,,,,,,,,,,7,0.598,1,,,,,,,,,,,,0,131,5,5,2142,2166,absent_patch/patch0002142.jpg,absent_patch/patch0002166.jpg,,,,,,,,,,,,,,,,,,,,0.003460208,0.023644752,1,0,0,response1disk,30,0.001153403,-0.006343714,1,0,0,center_square,0,29,29,66,1,,,,,,,,,,,,,,,,,,,,,,,
398863,001,2022-11-21_00h21.18.113,Info_measure_main_exp,2022.2.2,Linux x86_64,30.03003003,,,,,,,,,,,,,,,,,,masks/mask_002.jpg,,,,,,,,,,,,,,,,,,,,,,,,,,,,,,,,,,,,,,,,,,,0,0,0,1,1,,,,,,,,,,,,,,,,,,,,,,,,,,,,,,,,,,,,,,,,,,,,,,
398863,001,2022-11-21_00h21.18.113,Info_measure_main_exp,2022.2.2,Linux x86_64,30.03003003,,,,,,,,,,,,,,,,,,masks/mask_004.jpg,,,,,,,,,,,,,,,,,,,,,,,,,,,,,,,,,,,,,,,,,,,0,1,1,3,1,,,,,,,,,,,,,,,,,,,,,,,,,,,,,,,,,,,,,,,,,,,,,,
398863,001,2022-11-21_00h21.18.113,Info_measure_main_exp,2022.2.2,Linux x86_64,30.03003003,,,,,,,,,,,,,,,,,,masks/mask_005.jpg,,,,,,,,,,,,,,,,,,,,,,,,,,,,,,,,,,,,,,,,,,,0,2,2,4,1,,,,,,,,,,,,,,,,,,,,,,,,,,,,,,,,,,,,,,,,,,,,,,
398863,001,2022-11-21_00h21.18.113,Info_measure_main_exp,2022.2.2,Linux x86_64,30.03003003,,,,,,,,,,,,,,,,,,masks/mask_003.jpg,,,,,,,,,,,,,,,,,,,,,,,,,,,,,,,,,,,,,,,,,,,0,3,3,2,1,,,,,,,,,,,,,,,,,,,,,,,,,,,,,,,,,,,,,,,,,,,,,,
398863,001,2022-11-21_00h21.18.113,Info_measure_main_exp,2022.2.2,Linux x86_64,30.03003003,,,,,,,,,,,,,,,,,,masks/mask_001.jpg,,,,,,,,,,,,,,,,,,,,,,,,,,,,,,,,,,,,,,,,,,,0,4,4,0,1,,,,,,,,,,,,,,,,,,,,,,,,,,,,,,,,,,,,,,,,,,,,,,
398863,001,2022-11-21_00h21.18.113,Info_measure_main_exp,2022.2.2,Linux x86_64,30.03003003,,,,,,,,,,,,,,,,,,masks/mask_004.jpg,,,,,,,,,,,,,,,,,,,,,,,,,,,,,,,,,,,,,,,,,,,,,,,,0,0,0,3,1,,,,,,,,,,,,,,,,,,,,,,,,,,,,,,,,,,,,,,,,,
398863,001,2022-11-21_00h21.18.113,Info_measure_main_exp,2022.2.2,Linux x86_64,30.03003003,,,,,,,,,,,,,,,,,,masks/mask_002.jpg,,,,,,,,,,,,,,,,,,,,,,,,,,,,,,,,,,,,,,,,,,,,,,,,0,1,1,1,1,,,,,,,,,,,,,,,,,,,,,,,,,,,,,,,,,,,,,,,,,
398863,001,2022-11-21_00h21.18.113,Info_measure_main_exp,2022.2.2,Linux x86_64,30.03003003,,,,,,,,,,,,,,,,,,masks/mask_001.jpg,,,,,,,,,,,,,,,,,,,,,,,,,,,,,,,,,,,,,,,,,,,,,,,,0,2,2,0,1,,,,,,,,,,,,,,,,,,,,,,,,,,,,,,,,,,,,,,,,,
398863,001,2022-11-21_00h21.18.113,Info_measure_main_exp,2022.2.2,Linux x86_64,30.03003003,,,,,,,,,,,,,,,,,,masks/mask_003.jpg,,,,,,,,,,,,,,,,,,,,,,,,,,,,,,,,,,,,,,,,,,,,,,,,0,3,3,2,1,,,,,,,,,,,,,,,,,,,,,,,,,,,,,,,,,,,,,,,,,
398863,001,2022-11-21_00h21.18.113,Info_measure_main_exp,2022.2.2,Linux x86_64,30.03003003,,,,,,,,,,,,,,,,,,masks/mask_005.jpg,,,,,,,,,,,,,,,,,,,,,,,,,,,,,,,,,,,,,,,,,,,,,,,,0,4,4,4,1,,,,,,,,,,,,,,,,,,,,,,,,,,,,,,,,,,,,,,,,,
398863,001,2022-11-21_00h21.18.113,Info_measure_main_exp,2022.2.2,Linux x86_64,30.03003003,,,,,,,,,,,,,,,,,,,,,,,,,,,,,,7,0.564,1,,,,,,,,,,,,0,131,5,5,2142,2082,absent_patch/patch0002142.jpg,absent_patch/patch0002082.jpg,,,,,,,,,,,,,,,,,,,,0.018454441,0.069780854,1,0,0,response1disk,31,0.008073818,-0.005190311,1,0,0,center_square,0,30,30,88,1,,,,,,,,,,,,,,,,,,,,,,,
398863,001,2022-11-21_00h21.18.113,Info_measure_main_exp,2022.2.2,Linux x86_64,30.03003003,,,,,,,,,,,,,,,,,,masks/mask_003.jpg,,,,,,,,,,,,,,,,,,,,,,,,,,,,,,,,,,,,,,,,,,,0,0,0,2,1,,,,,,,,,,,,,,,,,,,,,,,,,,,,,,,,,,,,,,,,,,,,,,
398863,001,2022-11-21_00h21.18.113,Info_measure_main_exp,2022.2.2,Linux x86_64,30.03003003,,,,,,,,,,,,,,,,,,masks/mask_005.jpg,,,,,,,,,,,,,,,,,,,,,,,,,,,,,,,,,,,,,,,,,,,0,1,1,4,1,,,,,,,,,,,,,,,,,,,,,,,,,,,,,,,,,,,,,,,,,,,,,,
398863,001,2022-11-21_00h21.18.113,Info_measure_main_exp,2022.2.2,Linux x86_64,30.03003003,,,,,,,,,,,,,,,,,,masks/mask_004.jpg,,,,,,,,,,,,,,,,,,,,,,,,,,,,,,,,,,,,,,,,,,,0,2,2,3,1,,,,,,,,,,,,,,,,,,,,,,,,,,,,,,,,,,,,,,,,,,,,,,
398863,001,2022-11-21_00h21.18.113,Info_measure_main_exp,2022.2.2,Linux x86_64,30.03003003,,,,,,,,,,,,,,,,,,masks/mask_002.jpg,,,,,,,,,,,,,,,,,,,,,,,,,,,,,,,,,,,,,,,,,,,0,3,3,1,1,,,,,,,,,,,,,,,,,,,,,,,,,,,,,,,,,,,,,,,,,,,,,,
398863,001,2022-11-21_00h21.18.113,Info_measure_main_exp,2022.2.2,Linux x86_64,30.03003003,,,,,,,,,,,,,,,,,,masks/mask_001.jpg,,,,,,,,,,,,,,,,,,,,,,,,,,,,,,,,,,,,,,,,,,,0,4,4,0,1,,,,,,,,,,,,,,,,,,,,,,,,,,,,,,,,,,,,,,,,,,,,,,
398863,001,2022-11-21_00h21.18.113,Info_measure_main_exp,2022.2.2,Linux x86_64,30.03003003,,,,,,,,,,,,,,,,,,masks/mask_002.jpg,,,,,,,,,,,,,,,,,,,,,,,,,,,,,,,,,,,,,,,,,,,,,,,,0,0,0,1,1,,,,,,,,,,,,,,,,,,,,,,,,,,,,,,,,,,,,,,,,,
398863,001,2022-11-21_00h21.18.113,Info_measure_main_exp,2022.2.2,Linux x86_64,30.03003003,,,,,,,,,,,,,,,,,,masks/mask_003.jpg,,,,,,,,,,,,,,,,,,,,,,,,,,,,,,,,,,,,,,,,,,,,,,,,0,1,1,2,1,,,,,,,,,,,,,,,,,,,,,,,,,,,,,,,,,,,,,,,,,
398863,001,2022-11-21_00h21.18.113,Info_measure_main_exp,2022.2.2,Linux x86_64,30.03003003,,,,,,,,,,,,,,,,,,masks/mask_001.jpg,,,,,,,,,,,,,,,,,,,,,,,,,,,,,,,,,,,,,,,,,,,,,,,,0,2,2,0,1,,,,,,,,,,,,,,,,,,,,,,,,,,,,,,,,,,,,,,,,,
398863,001,2022-11-21_00h21.18.113,Info_measure_main_exp,2022.2.2,Linux x86_64,30.03003003,,,,,,,,,,,,,,,,,,masks/mask_005.jpg,,,,,,,,,,,,,,,,,,,,,,,,,,,,,,,,,,,,,,,,,,,,,,,,0,3,3,4,1,,,,,,,,,,,,,,,,,,,,,,,,,,,,,,,,,,,,,,,,,
398863,001,2022-11-21_00h21.18.113,Info_measure_main_exp,2022.2.2,Linux x86_64,30.03003003,,,,,,,,,,,,,,,,,,masks/mask_004.jpg,,,,,,,,,,,,,,,,,,,,,,,,,,,,,,,,,,,,,,,,,,,,,,,,0,4,4,3,1,,,,,,,,,,,,,,,,,,,,,,,,,,,,,,,,,,,,,,,,,
398863,001,2022-11-21_00h21.18.113,Info_measure_main_exp,2022.2.2,Linux x86_64,30.03003003,,,,,,,,,,,,,,,,,,,,,,,,,,,,,,7,0.441,1,,,,,,,,,,,,0,131,5,5,1974,2142,absent_patch/patch0001974.jpg,absent_patch/patch0002142.jpg,,,,,,,,,,,,,,,,,,,,0.020761246,0.062860438,1,0,0,response1disk,32,0.00461361,-0.010957324,1,0,0,center_square,0,31,31,38,1,,,,,,,,,,,,,,,,,,,,,,,
398863,001,2022-11-21_00h21.18.113,Info_measure_main_exp,2022.2.2,Linux x86_64,30.03003003,,,,,,,,,,,,,,,,,,masks/mask_004.jpg,,,,,,,,,,,,,,,,,,,,,,,,,,,,,,,,,,,,,,,,,,,0,0,0,3,1,,,,,,,,,,,,,,,,,,,,,,,,,,,,,,,,,,,,,,,,,,,,,,
398863,001,2022-11-21_00h21.18.113,Info_measure_main_exp,2022.2.2,Linux x86_64,30.03003003,,,,,,,,,,,,,,,,,,masks/mask_003.jpg,,,,,,,,,,,,,,,,,,,,,,,,,,,,,,,,,,,,,,,,,,,0,1,1,2,1,,,,,,,,,,,,,,,,,,,,,,,,,,,,,,,,,,,,,,,,,,,,,,
398863,001,2022-11-21_00h21.18.113,Info_measure_main_exp,2022.2.2,Linux x86_64,30.03003003,,,,,,,,,,,,,,,,,,masks/mask_002.jpg,,,,,,,,,,,,,,,,,,,,,,,,,,,,,,,,,,,,,,,,,,,0,2,2,1,1,,,,,,,,,,,,,,,,,,,,,,,,,,,,,,,,,,,,,,,,,,,,,,
398863,001,2022-11-21_00h21.18.113,Info_measure_main_exp,2022.2.2,Linux x86_64,30.03003003,,,,,,,,,,,,,,,,,,masks/mask_005.jpg,,,,,,,,,,,,,,,,,,,,,,,,,,,,,,,,,,,,,,,,,,,0,3,3,4,1,,,,,,,,,,,,,,,,,,,,,,,,,,,,,,,,,,,,,,,,,,,,,,
398863,001,2022-11-21_00h21.18.113,Info_measure_main_exp,2022.2.2,Linux x86_64,30.03003003,,,,,,,,,,,,,,,,,,masks/mask_001.jpg,,,,,,,,,,,,,,,,,,,,,,,,,,,,,,,,,,,,,,,,,,,0,4,4,0,1,,,,,,,,,,,,,,,,,,,,,,,,,,,,,,,,,,,,,,,,,,,,,,
398863,001,2022-11-21_00h21.18.113,Info_measure_main_exp,2022.2.2,Linux x86_64,30.03003003,,,,,,,,,,,,,,,,,,masks/mask_001.jpg,,,,,,,,,,,,,,,,,,,,,,,,,,,,,,,,,,,,,,,,,,,,,,,,0,0,0,0,1,,,,,,,,,,,,,,,,,,,,,,,,,,,,,,,,,,,,,,,,,
398863,001,2022-11-21_00h21.18.113,Info_measure_main_exp,2022.2.2,Linux x86_64,30.03003003,,,,,,,,,,,,,,,,,,masks/mask_005.jpg,,,,,,,,,,,,,,,,,,,,,,,,,,,,,,,,,,,,,,,,,,,,,,,,0,1,1,4,1,,,,,,,,,,,,,,,,,,,,,,,,,,,,,,,,,,,,,,,,,
398863,001,2022-11-21_00h21.18.113,Info_measure_main_exp,2022.2.2,Linux x86_64,30.03003003,,,,,,,,,,,,,,,,,,masks/mask_002.jpg,,,,,,,,,,,,,,,,,,,,,,,,,,,,,,,,,,,,,,,,,,,,,,,,0,2,2,1,1,,,,,,,,,,,,,,,,,,,,,,,,,,,,,,,,,,,,,,,,,
398863,001,2022-11-21_00h21.18.113,Info_measure_main_exp,2022.2.2,Linux x86_64,30.03003003,,,,,,,,,,,,,,,,,,masks/mask_004.jpg,,,,,,,,,,,,,,,,,,,,,,,,,,,,,,,,,,,,,,,,,,,,,,,,0,3,3,3,1,,,,,,,,,,,,,,,,,,,,,,,,,,,,,,,,,,,,,,,,,
398863,001,2022-11-21_00h21.18.113,Info_measure_main_exp,2022.2.2,Linux x86_64,30.03003003,,,,,,,,,,,,,,,,,,masks/mask_003.jpg,,,,,,,,,,,,,,,,,,,,,,,,,,,,,,,,,,,,,,,,,,,,,,,,0,4,4,2,1,,,,,,,,,,,,,,,,,,,,,,,,,,,,,,,,,,,,,,,,,
398863,001,2022-11-21_00h21.18.113,Info_measure_main_exp,2022.2.2,Linux x86_64,30.03003003,,,,,,,,,,,,,,,,,,,,,,,,,,,,,,7,0.453,1,,,,,,,,,,,,0,131,5,5,2154,2298,absent_patch/patch0002154.jpg,absent_patch/patch0002298.jpg,,,,,,,,,,,,,,,,,,,,0.018454441,0.042099193,1,0,0,response1disk,33,0.01384083,-0.000576701,1,0,0,center_square,0,32,32,27,1,,,,,,,,,,,,,,,,,,,,,,,
398863,001,2022-11-21_00h21.18.113,Info_measure_main_exp,2022.2.2,Linux x86_64,30.03003003,,,,,,,,,,,,,,,,,,masks/mask_003.jpg,,,,,,,,,,,,,,,,,,,,,,,,,,,,,,,,,,,,,,,,,,,0,0,0,2,1,,,,,,,,,,,,,,,,,,,,,,,,,,,,,,,,,,,,,,,,,,,,,,
398863,001,2022-11-21_00h21.18.113,Info_measure_main_exp,2022.2.2,Linux x86_64,30.03003003,,,,,,,,,,,,,,,,,,masks/mask_002.jpg,,,,,,,,,,,,,,,,,,,,,,,,,,,,,,,,,,,,,,,,,,,0,1,1,1,1,,,,,,,,,,,,,,,,,,,,,,,,,,,,,,,,,,,,,,,,,,,,,,
398863,001,2022-11-21_00h21.18.113,Info_measure_main_exp,2022.2.2,Linux x86_64,30.03003003,,,,,,,,,,,,,,,,,,masks/mask_004.jpg,,,,,,,,,,,,,,,,,,,,,,,,,,,,,,,,,,,,,,,,,,,0,2,2,3,1,,,,,,,,,,,,,,,,,,,,,,,,,,,,,,,,,,,,,,,,,,,,,,
398863,001,2022-11-21_00h21.18.113,Info_measure_main_exp,2022.2.2,Linux x86_64,30.03003003,,,,,,,,,,,,,,,,,,masks/mask_005.jpg,,,,,,,,,,,,,,,,,,,,,,,,,,,,,,,,,,,,,,,,,,,0,3,3,4,1,,,,,,,,,,,,,,,,,,,,,,,,,,,,,,,,,,,,,,,,,,,,,,
398863,001,2022-11-21_00h21.18.113,Info_measure_main_exp,2022.2.2,Linux x86_64,30.03003003,,,,,,,,,,,,,,,,,,masks/mask_001.jpg,,,,,,,,,,,,,,,,,,,,,,,,,,,,,,,,,,,,,,,,,,,0,4,4,0,1,,,,,,,,,,,,,,,,,,,,,,,,,,,,,,,,,,,,,,,,,,,,,,
398863,001,2022-11-21_00h21.18.113,Info_measure_main_exp,2022.2.2,Linux x86_64,30.03003003,,,,,,,,,,,,,,,,,,masks/mask_005.jpg,,,,,,,,,,,,,,,,,,,,,,,,,,,,,,,,,,,,,,,,,,,,,,,,0,0,0,4,1,,,,,,,,,,,,,,,,,,,,,,,,,,,,,,,,,,,,,,,,,
398863,001,2022-11-21_00h21.18.113,Info_measure_main_exp,2022.2.2,Linux x86_64,30.03003003,,,,,,,,,,,,,,,,,,masks/mask_004.jpg,,,,,,,,,,,,,,,,,,,,,,,,,,,,,,,,,,,,,,,,,,,,,,,,0,1,1,3,1,,,,,,,,,,,,,,,,,,,,,,,,,,,,,,,,,,,,,,,,,
