participant,session,date,expName,psychopyVersion,OS,frameRate,space_press_continue.keys,space_press_continue.rt,space_press_continue_2.keys,space_press_continue_2.rt,space_press_continue_3.keys,space_press_continue_3.rt,space_press_continue_4.keys,space_press_continue_4.rt,space_press_continue_5.keys,space_press_continue_5.rt,space_press_continue_6.keys,space_press_continue_6.rt,prac_mask_loop_1.thisRepN,prac_mask_loop_1.thisTrialN,prac_mask_loop_1.thisN,prac_mask_loop_1.thisIndex,prac_mask_loop_1.ran,mask_name,prac_mask_loop_2.thisRepN,prac_mask_loop_2.thisTrialN,prac_mask_loop_2.thisN,prac_mask_loop_2.thisIndex,prac_mask_loop_2.ran,mouse_2.x,mouse_2.y,mouse_2.leftButton,mouse_2.midButton,mouse_2.rightButton,mouse_2.clicked_name,similarity,response_time,Pass,mouse_12.x,mouse_12.y,mouse_12.leftButton,mouse_12.midButton,mouse_12.rightButton,mouse_12.clicked_name,prac_loop.thisRepN,prac_loop.thisTrialN,prac_loop.thisN,prac_loop.thisIndex,prac_loop.ran,Pair_type,Image_num,Patch_1_loc,Patch_2_loc,Patch_1_info,Patch_2_info,Patch_1_name,Patch_2_name,mouse_1.x,mouse_1.y,mouse_1.leftButton,mouse_1.midButton,mouse_1.rightButton,mouse_1.time,mouse_1.clicked_name,space_press_continue_7.keys,space_press_continue_7.rt,mask_loop.thisRepN,mask_loop.thisTrialN,mask_loop.thisN,mask_loop.thisIndex,mask_loop.ran,mask_loop_2.thisRepN,mask_loop_2.thisTrialN,mask_loop_2.thisN,mask_loop_2.thisIndex,mask_loop_2.ran,mouse.x,mouse.y,mouse.leftButton,mouse.midButton,mouse.rightButton,mouse.clicked_name,trialNumber,mouse_11.x,mouse_11.y,mouse_11.leftButton,mouse_11.midButton,mouse_11.rightButton,mouse_11.clicked_name,first_pass_loop.thisRepN,first_pass_loop.thisTrialN,first_pass_loop.thisN,first_pass_loop.thisIndex,first_pass_loop.ran,mask_loop_3.thisRepN,mask_loop_3.thisTrialN,mask_loop_3.thisN,mask_loop_3.thisIndex,mask_loop_3.ran,mask_loop_4.thisRepN,mask_loop_4.thisTrialN,mask_loop_4.thisN,mask_loop_4.thisIndex,mask_loop_4.ran,mouse_3.x,mouse_3.y,mouse_3.leftButton,mouse_3.midButton,mouse_3.rightButton,mouse_3.clicked_name,double_pass_loop.thisRepN,double_pass_loop.thisTrialN,double_pass_loop.thisN,double_pass_loop.thisIndex,double_pass_loop.ran,space_exit.keys,space_exit.rt
405845,001,2022-11-21_24h49.16.872,Info_measure_main_exp,2022.2.2,Win32,59.62673663,,,,,,,,,,,,,,,,,,,,,,,,,,,,,,,,,,,,,,,,,,,,,,,,,,,,,,,,,,,,,,,,,,,,,,,,,,,,,,,,,,,,,,,,,,,,,,,,,,,,,,,,,,,,,,,
405845,001,2022-11-21_24h49.16.872,Info_measure_main_exp,2022.2.2,Win32,59.62673663,,,,,,,,,,,,,,,,,,,,,,,,,,,,,,,,,,,,,,,,,,,,,,,,,,,,,,,,,,,,,,,,,,,,,,,,,,,,,,,,,,,,,,,,,,,,,,,,,,,,,,,,,,,,,,,
405845,001,2022-11-21_24h49.16.872,Info_measure_main_exp,2022.2.2,Win32,59.62673663,space,7.6653,,,,,,,,,,,,,,,,,,,,,,,,,,,,,,,,,,,,,,,,,,,,,,,,,,,,,,,,,,,,,,,,,,,,,,,,,,,,,,,,,,,,,,,,,,,,,,,,,,,,,,,,,,,,,
405845,001,2022-11-21_24h49.16.872,Info_measure_main_exp,2022.2.2,Win32,59.62673663,,,space,31.7114,,,,,,,,,,,,,,,,,,,,,,,,,,,,,,,,,,,,,,,,,,,,,,,,,,,,,,,,,,,,,,,,,,,,,,,,,,,,,,,,,,,,,,,,,,,,,,,,,,,,,,,,,,,
405845,001,2022-11-21_24h49.16.872,Info_measure_main_exp,2022.2.2,Win32,59.62673663,,,,,space,10.2406,,,,,,,,,,,,,,,,,,,,,,,,,,,,,,,,,,,,,,,,,,,,,,,,,,,,,,,,,,,,,,,,,,,,,,,,,,,,,,,,,,,,,,,,,,,,,,,,,,,,,,,,,
405845,001,2022-11-21_24h49.16.872,Info_measure_main_exp,2022.2.2,Win32,59.62673663,,,,,,,space,17.6688,,,,,,,,,,,,,,,,,,,,,,,,,,,,,,,,,,,,,,,,,,,,,,,,,,,,,,,,,,,,,,,,,,,,,,,,,,,,,,,,,,,,,,,,,,,,,,,,,,,,,,,
405845,001,2022-11-21_24h49.16.872,Info_measure_main_exp,2022.2.2,Win32,59.62673663,,,,,,,,,space,10.2079,,,,,,,,,,,,,,,,,,,,,,,,,,,,,,,,,,,,,,,,,,,,,,,,,,,,,,,,,,,,,,,,,,,,,,,,,,,,,,,,,,,,,,,,,,,,,,,,,,,,,
405845,001,2022-11-21_24h49.16.872,Info_measure_main_exp,2022.2.2,Win32,59.62673663,,,,,,,,,,,space,4.5076,,,,,,,,,,,,,,,,,,,,,,,,,,,,,,,,,,,,,,,,,,,,,,,,,,,,,,,,,,,,,,,,,,,,,,,,,,,,,,,,,,,,,,,,,,,,,,,,,,,
405845,001,2022-11-21_24h49.16.872,Info_measure_main_exp,2022.2.2,Win32,59.62673663,,,,,,,,,,,,,0,0,0,1,1,masks/mask_002.jpg,,,,,,,,,,,,,,,,,,,,,,,,,,,,,,,,,,,,,,,,,,,,,,,,,,,,,,,,,,,,,,,,,,,,,,,,,,,,,,,,,,,,,,,,,,,,,
405845,001,2022-11-21_24h49.16.872,Info_measure_main_exp,2022.2.2,Win32,59.62673663,,,,,,,,,,,,,0,1,1,0,1,masks/mask_001.jpg,,,,,,,,,,,,,,,,,,,,,,,,,,,,,,,,,,,,,,,,,,,,,,,,,,,,,,,,,,,,,,,,,,,,,,,,,,,,,,,,,,,,,,,,,,,,,
405845,001,2022-11-21_24h49.16.872,Info_measure_main_exp,2022.2.2,Win32,59.62673663,,,,,,,,,,,,,0,2,2,4,1,masks/mask_005.jpg,,,,,,,,,,,,,,,,,,,,,,,,,,,,,,,,,,,,,,,,,,,,,,,,,,,,,,,,,,,,,,,,,,,,,,,,,,,,,,,,,,,,,,,,,,,,,
405845,001,2022-11-21_24h49.16.872,Info_measure_main_exp,2022.2.2,Win32,59.62673663,,,,,,,,,,,,,0,3,3,2,1,masks/mask_003.jpg,,,,,,,,,,,,,,,,,,,,,,,,,,,,,,,,,,,,,,,,,,,,,,,,,,,,,,,,,,,,,,,,,,,,,,,,,,,,,,,,,,,,,,,,,,,,,
405845,001,2022-11-21_24h49.16.872,Info_measure_main_exp,2022.2.2,Win32,59.62673663,,,,,,,,,,,,,0,4,4,3,1,masks/mask_004.jpg,,,,,,,,,,,,,,,,,,,,,,,,,,,,,,,,,,,,,,,,,,,,,,,,,,,,,,,,,,,,,,,,,,,,,,,,,,,,,,,,,,,,,,,,,,,,,
405845,001,2022-11-21_24h49.16.872,Info_measure_main_exp,2022.2.2,Win32,59.62673663,,,,,,,,,,,,,,,,,,masks/mask_002.jpg,0,0,0,1,1,,,,,,,,,,,,,,,,,,,,,,,,,,,,,,,,,,,,,,,,,,,,,,,,,,,,,,,,,,,,,,,,,,,,,,,,,,,,,,,,,,,,,,,,
405845,001,2022-11-21_24h49.16.872,Info_measure_main_exp,2022.2.2,Win32,59.62673663,,,,,,,,,,,,,,,,,,masks/mask_001.jpg,0,1,1,0,1,,,,,,,,,,,,,,,,,,,,,,,,,,,,,,,,,,,,,,,,,,,,,,,,,,,,,,,,,,,,,,,,,,,,,,,,,,,,,,,,,,,,,,,,
405845,001,2022-11-21_24h49.16.872,Info_measure_main_exp,2022.2.2,Win32,59.62673663,,,,,,,,,,,,,,,,,,masks/mask_005.jpg,0,2,2,4,1,,,,,,,,,,,,,,,,,,,,,,,,,,,,,,,,,,,,,,,,,,,,,,,,,,,,,,,,,,,,,,,,,,,,,,,,,,,,,,,,,,,,,,,,
405845,001,2022-11-21_24h49.16.872,Info_measure_main_exp,2022.2.2,Win32,59.62673663,,,,,,,,,,,,,,,,,,masks/mask_004.jpg,0,3,3,3,1,,,,,,,,,,,,,,,,,,,,,,,,,,,,,,,,,,,,,,,,,,,,,,,,,,,,,,,,,,,,,,,,,,,,,,,,,,,,,,,,,,,,,,,,
405845,001,2022-11-21_24h49.16.872,Info_measure_main_exp,2022.2.2,Win32,59.62673663,,,,,,,,,,,,,,,,,,masks/mask_003.jpg,0,4,4,2,1,,,,,,,,,,,,,,,,,,,,,,,,,,,,,,,,,,,,,,,,,,,,,,,,,,,,,,,,,,,,,,,,,,,,,,,,,,,,,,,,,,,,,,,,
405845,001,2022-11-21_24h49.16.872,Info_measure_main_exp,2022.2.2,Win32,59.62673663,,,,,,,,,,,,,,,,,,,,,,,,-0.023148148,-0.102777778,1,0,0,response5disk,3,87.2461,1,-0.010185185,0.005555556,1,0,0,center_square,0,0,0,1,1,0,131,5,5,2514,2490,prac_patch/patch0002514.jpg,prac_patch/patch0002490.jpg,,,,,,,,,,,,,,,,,,,,,,,,,,,,,,,,,,,,,,,,,,,,,,,,,,,,,,,,,,,,
405845,001,2022-11-21_24h49.16.872,Info_measure_main_exp,2022.2.2,Win32,59.62673663,,,,,,,,,,,,,0,0,0,4,1,masks/mask_005.jpg,,,,,,,,,,,,,,,,,,,,,,,,,,,,,,,,,,,,,,,,,,,,,,,,,,,,,,,,,,,,,,,,,,,,,,,,,,,,,,,,,,,,,,,,,,,,,
405845,001,2022-11-21_24h49.16.872,Info_measure_main_exp,2022.2.2,Win32,59.62673663,,,,,,,,,,,,,0,1,1,1,1,masks/mask_002.jpg,,,,,,,,,,,,,,,,,,,,,,,,,,,,,,,,,,,,,,,,,,,,,,,,,,,,,,,,,,,,,,,,,,,,,,,,,,,,,,,,,,,,,,,,,,,,,
405845,001,2022-11-21_24h49.16.872,Info_measure_main_exp,2022.2.2,Win32,59.62673663,,,,,,,,,,,,,0,2,2,2,1,masks/mask_003.jpg,,,,,,,,,,,,,,,,,,,,,,,,,,,,,,,,,,,,,,,,,,,,,,,,,,,,,,,,,,,,,,,,,,,,,,,,,,,,,,,,,,,,,,,,,,,,,
405845,001,2022-11-21_24h49.16.872,Info_measure_main_exp,2022.2.2,Win32,59.62673663,,,,,,,,,,,,,0,3,3,3,1,masks/mask_004.jpg,,,,,,,,,,,,,,,,,,,,,,,,,,,,,,,,,,,,,,,,,,,,,,,,,,,,,,,,,,,,,,,,,,,,,,,,,,,,,,,,,,,,,,,,,,,,,
405845,001,2022-11-21_24h49.16.872,Info_measure_main_exp,2022.2.2,Win32,59.62673663,,,,,,,,,,,,,0,4,4,0,1,masks/mask_001.jpg,,,,,,,,,,,,,,,,,,,,,,,,,,,,,,,,,,,,,,,,,,,,,,,,,,,,,,,,,,,,,,,,,,,,,,,,,,,,,,,,,,,,,,,,,,,,,
405845,001,2022-11-21_24h49.16.872,Info_measure_main_exp,2022.2.2,Win32,59.62673663,,,,,,,,,,,,,,,,,,masks/mask_001.jpg,0,0,0,0,1,,,,,,,,,,,,,,,,,,,,,,,,,,,,,,,,,,,,,,,,,,,,,,,,,,,,,,,,,,,,,,,,,,,,,,,,,,,,,,,,,,,,,,,,
405845,001,2022-11-21_24h49.16.872,Info_measure_main_exp,2022.2.2,Win32,59.62673663,,,,,,,,,,,,,,,,,,masks/mask_004.jpg,0,1,1,3,1,,,,,,,,,,,,,,,,,,,,,,,,,,,,,,,,,,,,,,,,,,,,,,,,,,,,,,,,,,,,,,,,,,,,,,,,,,,,,,,,,,,,,,,,
405845,001,2022-11-21_24h49.16.872,Info_measure_main_exp,2022.2.2,Win32,59.62673663,,,,,,,,,,,,,,,,,,masks/mask_003.jpg,0,2,2,2,1,,,,,,,,,,,,,,,,,,,,,,,,,,,,,,,,,,,,,,,,,,,,,,,,,,,,,,,,,,,,,,,,,,,,,,,,,,,,,,,,,,,,,,,,
405845,001,2022-11-21_24h49.16.872,Info_measure_main_exp,2022.2.2,Win32,59.62673663,,,,,,,,,,,,,,,,,,masks/mask_002.jpg,0,3,3,1,1,,,,,,,,,,,,,,,,,,,,,,,,,,,,,,,,,,,,,,,,,,,,,,,,,,,,,,,,,,,,,,,,,,,,,,,,,,,,,,,,,,,,,,,,
405845,001,2022-11-21_24h49.16.872,Info_measure_main_exp,2022.2.2,Win32,59.62673663,,,,,,,,,,,,,,,,,,masks/mask_005.jpg,0,4,4,4,1,,,,,,,,,,,,,,,,,,,,,,,,,,,,,,,,,,,,,,,,,,,,,,,,,,,,,,,,,,,,,,,,,,,,,,,,,,,,,,,,,,,,,,,,
405845,001,2022-11-21_24h49.16.872,Info_measure_main_exp,2022.2.2,Win32,59.62673663,,,,,,,,,,,,,,,,,,,,,,,,0.169444444,0.062962963,1,0,0,response1disk,6,99.6445,1,-0.008333333,0.000925926,1,0,0,center_square,0,1,1,0,1,0,131,5,5,2370,2406,prac_patch/patch0002370.jpg,prac_patch/patch0002406.jpg,,,,,,,,,,,,,,,,,,,,,,,,,,,,,,,,,,,,,,,,,,,,,,,,,,,,,,,,,,,,
405845,001,2022-11-21_24h49.16.872,Info_measure_main_exp,2022.2.2,Win32,59.62673663,,,,,,,,,,,,,0,0,0,3,1,masks/mask_004.jpg,,,,,,,,,,,,,,,,,,,,,,,,,,,,,,,,,,,,,,,,,,,,,,,,,,,,,,,,,,,,,,,,,,,,,,,,,,,,,,,,,,,,,,,,,,,,,
405845,001,2022-11-21_24h49.16.872,Info_measure_main_exp,2022.2.2,Win32,59.62673663,,,,,,,,,,,,,0,1,1,4,1,masks/mask_005.jpg,,,,,,,,,,,,,,,,,,,,,,,,,,,,,,,,,,,,,,,,,,,,,,,,,,,,,,,,,,,,,,,,,,,,,,,,,,,,,,,,,,,,,,,,,,,,,
405845,001,2022-11-21_24h49.16.872,Info_measure_main_exp,2022.2.2,Win32,59.62673663,,,,,,,,,,,,,0,2,2,1,1,masks/mask_002.jpg,,,,,,,,,,,,,,,,,,,,,,,,,,,,,,,,,,,,,,,,,,,,,,,,,,,,,,,,,,,,,,,,,,,,,,,,,,,,,,,,,,,,,,,,,,,,,
405845,001,2022-11-21_24h49.16.872,Info_measure_main_exp,2022.2.2,Win32,59.62673663,,,,,,,,,,,,,0,3,3,0,1,masks/mask_001.jpg,,,,,,,,,,,,,,,,,,,,,,,,,,,,,,,,,,,,,,,,,,,,,,,,,,,,,,,,,,,,,,,,,,,,,,,,,,,,,,,,,,,,,,,,,,,,,
405845,001,2022-11-21_24h49.16.872,Info_measure_main_exp,2022.2.2,Win32,59.62673663,,,,,,,,,,,,,0,4,4,2,1,masks/mask_003.jpg,,,,,,,,,,,,,,,,,,,,,,,,,,,,,,,,,,,,,,,,,,,,,,,,,,,,,,,,,,,,,,,,,,,,,,,,,,,,,,,,,,,,,,,,,,,,,
405845,001,2022-11-21_24h49.16.872,Info_measure_main_exp,2022.2.2,Win32,59.62673663,,,,,,,,,,,,,,,,,,masks/mask_002.jpg,0,0,0,1,1,,,,,,,,,,,,,,,,,,,,,,,,,,,,,,,,,,,,,,,,,,,,,,,,,,,,,,,,,,,,,,,,,,,,,,,,,,,,,,,,,,,,,,,,
405845,001,2022-11-21_24h49.16.872,Info_measure_main_exp,2022.2.2,Win32,59.62673663,,,,,,,,,,,,,,,,,,masks/mask_004.jpg,0,1,1,3,1,,,,,,,,,,,,,,,,,,,,,,,,,,,,,,,,,,,,,,,,,,,,,,,,,,,,,,,,,,,,,,,,,,,,,,,,,,,,,,,,,,,,,,,,
405845,001,2022-11-21_24h49.16.872,Info_measure_main_exp,2022.2.2,Win32,59.62673663,,,,,,,,,,,,,,,,,,masks/mask_001.jpg,0,2,2,0,1,,,,,,,,,,,,,,,,,,,,,,,,,,,,,,,,,,,,,,,,,,,,,,,,,,,,,,,,,,,,,,,,,,,,,,,,,,,,,,,,,,,,,,,,
405845,001,2022-11-21_24h49.16.872,Info_measure_main_exp,2022.2.2,Win32,59.62673663,,,,,,,,,,,,,,,,,,masks/mask_005.jpg,0,3,3,4,1,,,,,,,,,,,,,,,,,,,,,,,,,,,,,,,,,,,,,,,,,,,,,,,,,,,,,,,,,,,,,,,,,,,,,,,,,,,,,,,,,,,,,,,,
405845,001,2022-11-21_24h49.16.872,Info_measure_main_exp,2022.2.2,Win32,59.62673663,,,,,,,,,,,,,,,,,,masks/mask_003.jpg,0,4,4,2,1,,,,,,,,,,,,,,,,,,,,,,,,,,,,,,,,,,,,,,,,,,,,,,,,,,,,,,,,,,,,,,,,,,,,,,,,,,,,,,,,,,,,,,,,
405845,001,2022-11-21_24h49.16.872,Info_measure_main_exp,2022.2.2,Win32,59.62673663,,,,,,,,,,,,,,,,,,,,,,,,-0.044444444,0.137962963,1,0,0,response7disk,0,108.3946,1,-0.006481481,0.010185185,1,0,0,center_square,0,2,2,2,1,0,131,5,5,2526,2526,prac_patch/patch0002526.jpg,prac_patch/patch0002526.jpg,,,,,,,,,,,,,,,,,,,,,,,,,,,,,,,,,,,,,,,,,,,,,,,,,,,,,,,,,,,,
405845,001,2022-11-21_24h49.16.872,Info_measure_main_exp,2022.2.2,Win32,59.62673663,,,,,,,,,,,,,,,,,,,,,,,,,,,,,,,,,,,,,,,,,,,,,,,,,,,,,,,,,,,space,2.2546,,,,,,,,,,,,,,,,,,,,,,,,,,,,,,,,,,,,,,,,,,,,,,,,,,,
405845,001,2022-11-21_24h49.16.872,Info_measure_main_exp,2022.2.2,Win32,59.62673663,,,,,,,,,,,,,,,,,,masks/mask_003.jpg,,,,,,,,,,,,,,,,,,,,,,,,,,,,,,,,,,,,,,,,,,,0,0,0,2,1,,,,,,,,,,,,,,,,,,,,,,,,,,,,,,,,,,,,,,,,,,,,,,
405845,001,2022-11-21_24h49.16.872,Info_measure_main_exp,2022.2.2,Win32,59.62673663,,,,,,,,,,,,,,,,,,masks/mask_002.jpg,,,,,,,,,,,,,,,,,,,,,,,,,,,,,,,,,,,,,,,,,,,0,1,1,1,1,,,,,,,,,,,,,,,,,,,,,,,,,,,,,,,,,,,,,,,,,,,,,,
405845,001,2022-11-21_24h49.16.872,Info_measure_main_exp,2022.2.2,Win32,59.62673663,,,,,,,,,,,,,,,,,,masks/mask_001.jpg,,,,,,,,,,,,,,,,,,,,,,,,,,,,,,,,,,,,,,,,,,,0,2,2,0,1,,,,,,,,,,,,,,,,,,,,,,,,,,,,,,,,,,,,,,,,,,,,,,
405845,001,2022-11-21_24h49.16.872,Info_measure_main_exp,2022.2.2,Win32,59.62673663,,,,,,,,,,,,,,,,,,masks/mask_005.jpg,,,,,,,,,,,,,,,,,,,,,,,,,,,,,,,,,,,,,,,,,,,0,3,3,4,1,,,,,,,,,,,,,,,,,,,,,,,,,,,,,,,,,,,,,,,,,,,,,,
405845,001,2022-11-21_24h49.16.872,Info_measure_main_exp,2022.2.2,Win32,59.62673663,,,,,,,,,,,,,,,,,,masks/mask_004.jpg,,,,,,,,,,,,,,,,,,,,,,,,,,,,,,,,,,,,,,,,,,,0,4,4,3,1,,,,,,,,,,,,,,,,,,,,,,,,,,,,,,,,,,,,,,,,,,,,,,
405845,001,2022-11-21_24h49.16.872,Info_measure_main_exp,2022.2.2,Win32,59.62673663,,,,,,,,,,,,,,,,,,masks/mask_001.jpg,,,,,,,,,,,,,,,,,,,,,,,,,,,,,,,,,,,,,,,,,,,,,,,,0,0,0,0,1,,,,,,,,,,,,,,,,,,,,,,,,,,,,,,,,,,,,,,,,,
405845,001,2022-11-21_24h49.16.872,Info_measure_main_exp,2022.2.2,Win32,59.62673663,,,,,,,,,,,,,,,,,,masks/mask_002.jpg,,,,,,,,,,,,,,,,,,,,,,,,,,,,,,,,,,,,,,,,,,,,,,,,0,1,1,1,1,,,,,,,,,,,,,,,,,,,,,,,,,,,,,,,,,,,,,,,,,
405845,001,2022-11-21_24h49.16.872,Info_measure_main_exp,2022.2.2,Win32,59.62673663,,,,,,,,,,,,,,,,,,masks/mask_003.jpg,,,,,,,,,,,,,,,,,,,,,,,,,,,,,,,,,,,,,,,,,,,,,,,,0,2,2,2,1,,,,,,,,,,,,,,,,,,,,,,,,,,,,,,,,,,,,,,,,,
405845,001,2022-11-21_24h49.16.872,Info_measure_main_exp,2022.2.2,Win32,59.62673663,,,,,,,,,,,,,,,,,,masks/mask_005.jpg,,,,,,,,,,,,,,,,,,,,,,,,,,,,,,,,,,,,,,,,,,,,,,,,0,3,3,4,1,,,,,,,,,,,,,,,,,,,,,,,,,,,,,,,,,,,,,,,,,
405845,001,2022-11-21_24h49.16.872,Info_measure_main_exp,2022.2.2,Win32,59.62673663,,,,,,,,,,,,,,,,,,masks/mask_004.jpg,,,,,,,,,,,,,,,,,,,,,,,,,,,,,,,,,,,,,,,,,,,,,,,,0,4,4,3,1,,,,,,,,,,,,,,,,,,,,,,,,,,,,,,,,,,,,,,,,,
405845,001,2022-11-21_24h49.16.872,Info_measure_main_exp,2022.2.2,Win32,59.62673663,,,,,,,,,,,,,,,,,,,,,,,,,,,,,,7,1.199,1,,,,,,,,,,,,0,131,5,5,2250,2298,absent_patch/patch0002250.jpg,absent_patch/patch0002298.jpg,,,,,,,,,,,,,,,,,,,,0.063888889,0.142592593,1,0,0,response1disk,1,0.007407407,0.006481481,1,0,0,center_square,0,0,0,59,1,,,,,,,,,,,,,,,,,,,,,,,
405845,001,2022-11-21_24h49.16.872,Info_measure_main_exp,2022.2.2,Win32,59.62673663,,,,,,,,,,,,,,,,,,masks/mask_003.jpg,,,,,,,,,,,,,,,,,,,,,,,,,,,,,,,,,,,,,,,,,,,0,0,0,2,1,,,,,,,,,,,,,,,,,,,,,,,,,,,,,,,,,,,,,,,,,,,,,,
405845,001,2022-11-21_24h49.16.872,Info_measure_main_exp,2022.2.2,Win32,59.62673663,,,,,,,,,,,,,,,,,,masks/mask_002.jpg,,,,,,,,,,,,,,,,,,,,,,,,,,,,,,,,,,,,,,,,,,,0,1,1,1,1,,,,,,,,,,,,,,,,,,,,,,,,,,,,,,,,,,,,,,,,,,,,,,
405845,001,2022-11-21_24h49.16.872,Info_measure_main_exp,2022.2.2,Win32,59.62673663,,,,,,,,,,,,,,,,,,masks/mask_005.jpg,,,,,,,,,,,,,,,,,,,,,,,,,,,,,,,,,,,,,,,,,,,0,2,2,4,1,,,,,,,,,,,,,,,,,,,,,,,,,,,,,,,,,,,,,,,,,,,,,,
405845,001,2022-11-21_24h49.16.872,Info_measure_main_exp,2022.2.2,Win32,59.62673663,,,,,,,,,,,,,,,,,,masks/mask_001.jpg,,,,,,,,,,,,,,,,,,,,,,,,,,,,,,,,,,,,,,,,,,,0,3,3,0,1,,,,,,,,,,,,,,,,,,,,,,,,,,,,,,,,,,,,,,,,,,,,,,
405845,001,2022-11-21_24h49.16.872,Info_measure_main_exp,2022.2.2,Win32,59.62673663,,,,,,,,,,,,,,,,,,masks/mask_004.jpg,,,,,,,,,,,,,,,,,,,,,,,,,,,,,,,,,,,,,,,,,,,0,4,4,3,1,,,,,,,,,,,,,,,,,,,,,,,,,,,,,,,,,,,,,,,,,,,,,,
405845,001,2022-11-21_24h49.16.872,Info_measure_main_exp,2022.2.2,Win32,59.62673663,,,,,,,,,,,,,,,,,,masks/mask_005.jpg,,,,,,,,,,,,,,,,,,,,,,,,,,,,,,,,,,,,,,,,,,,,,,,,0,0,0,4,1,,,,,,,,,,,,,,,,,,,,,,,,,,,,,,,,,,,,,,,,,
405845,001,2022-11-21_24h49.16.872,Info_measure_main_exp,2022.2.2,Win32,59.62673663,,,,,,,,,,,,,,,,,,masks/mask_004.jpg,,,,,,,,,,,,,,,,,,,,,,,,,,,,,,,,,,,,,,,,,,,,,,,,0,1,1,3,1,,,,,,,,,,,,,,,,,,,,,,,,,,,,,,,,,,,,,,,,,
405845,001,2022-11-21_24h49.16.872,Info_measure_main_exp,2022.2.2,Win32,59.62673663,,,,,,,,,,,,,,,,,,masks/mask_003.jpg,,,,,,,,,,,,,,,,,,,,,,,,,,,,,,,,,,,,,,,,,,,,,,,,0,2,2,2,1,,,,,,,,,,,,,,,,,,,,,,,,,,,,,,,,,,,,,,,,,
405845,001,2022-11-21_24h49.16.872,Info_measure_main_exp,2022.2.2,Win32,59.62673663,,,,,,,,,,,,,,,,,,masks/mask_002.jpg,,,,,,,,,,,,,,,,,,,,,,,,,,,,,,,,,,,,,,,,,,,,,,,,0,3,3,1,1,,,,,,,,,,,,,,,,,,,,,,,,,,,,,,,,,,,,,,,,,
405845,001,2022-11-21_24h49.16.872,Info_measure_main_exp,2022.2.2,Win32,59.62673663,,,,,,,,,,,,,,,,,,masks/mask_001.jpg,,,,,,,,,,,,,,,,,,,,,,,,,,,,,,,,,,,,,,,,,,,,,,,,0,4,4,0,1,,,,,,,,,,,,,,,,,,,,,,,,,,,,,,,,,,,,,,,,,
405845,001,2022-11-21_24h49.16.872,Info_measure_main_exp,2022.2.2,Win32,59.62673663,,,,,,,,,,,,,,,,,,,,,,,,,,,,,,7,1.0332,1,,,,,,,,,,,,0,131,5,5,2142,2166,absent_patch/patch0002142.jpg,absent_patch/patch0002166.jpg,,,,,,,,,,,,,,,,,,,,0.074074074,0.142592593,1,0,0,response1disk,2,-0.005555556,0.001851852,1,0,0,center_square,0,1,1,66,1,,,,,,,,,,,,,,,,,,,,,,,
405845,001,2022-11-21_24h49.16.872,Info_measure_main_exp,2022.2.2,Win32,59.62673663,,,,,,,,,,,,,,,,,,masks/mask_004.jpg,,,,,,,,,,,,,,,,,,,,,,,,,,,,,,,,,,,,,,,,,,,0,0,0,3,1,,,,,,,,,,,,,,,,,,,,,,,,,,,,,,,,,,,,,,,,,,,,,,
405845,001,2022-11-21_24h49.16.872,Info_measure_main_exp,2022.2.2,Win32,59.62673663,,,,,,,,,,,,,,,,,,masks/mask_002.jpg,,,,,,,,,,,,,,,,,,,,,,,,,,,,,,,,,,,,,,,,,,,0,1,1,1,1,,,,,,,,,,,,,,,,,,,,,,,,,,,,,,,,,,,,,,,,,,,,,,
405845,001,2022-11-21_24h49.16.872,Info_measure_main_exp,2022.2.2,Win32,59.62673663,,,,,,,,,,,,,,,,,,masks/mask_001.jpg,,,,,,,,,,,,,,,,,,,,,,,,,,,,,,,,,,,,,,,,,,,0,2,2,0,1,,,,,,,,,,,,,,,,,,,,,,,,,,,,,,,,,,,,,,,,,,,,,,
405845,001,2022-11-21_24h49.16.872,Info_measure_main_exp,2022.2.2,Win32,59.62673663,,,,,,,,,,,,,,,,,,masks/mask_003.jpg,,,,,,,,,,,,,,,,,,,,,,,,,,,,,,,,,,,,,,,,,,,0,3,3,2,1,,,,,,,,,,,,,,,,,,,,,,,,,,,,,,,,,,,,,,,,,,,,,,
405845,001,2022-11-21_24h49.16.872,Info_measure_main_exp,2022.2.2,Win32,59.62673663,,,,,,,,,,,,,,,,,,masks/mask_005.jpg,,,,,,,,,,,,,,,,,,,,,,,,,,,,,,,,,,,,,,,,,,,0,4,4,4,1,,,,,,,,,,,,,,,,,,,,,,,,,,,,,,,,,,,,,,,,,,,,,,
405845,001,2022-11-21_24h49.16.872,Info_measure_main_exp,2022.2.2,Win32,59.62673663,,,,,,,,,,,,,,,,,,masks/mask_005.jpg,,,,,,,,,,,,,,,,,,,,,,,,,,,,,,,,,,,,,,,,,,,,,,,,0,0,0,4,1,,,,,,,,,,,,,,,,,,,,,,,,,,,,,,,,,,,,,,,,,
405845,001,2022-11-21_24h49.16.872,Info_measure_main_exp,2022.2.2,Win32,59.62673663,,,,,,,,,,,,,,,,,,masks/mask_004.jpg,,,,,,,,,,,,,,,,,,,,,,,,,,,,,,,,,,,,,,,,,,,,,,,,0,1,1,3,1,,,,,,,,,,,,,,,,,,,,,,,,,,,,,,,,,,,,,,,,,
405845,001,2022-11-21_24h49.16.872,Info_measure_main_exp,2022.2.2,Win32,59.62673663,,,,,,,,,,,,,,,,,,masks/mask_003.jpg,,,,,,,,,,,,,,,,,,,,,,,,,,,,,,,,,,,,,,,,,,,,,,,,0,2,2,2,1,,,,,,,,,,,,,,,,,,,,,,,,,,,,,,,,,,,,,,,,,
405845,001,2022-11-21_24h49.16.872,Info_measure_main_exp,2022.2.2,Win32,59.62673663,,,,,,,,,,,,,,,,,,masks/mask_002.jpg,,,,,,,,,,,,,,,,,,,,,,,,,,,,,,,,,,,,,,,,,,,,,,,,0,3,3,1,1,,,,,,,,,,,,,,,,,,,,,,,,,,,,,,,,,,,,,,,,,
405845,001,2022-11-21_24h49.16.872,Info_measure_main_exp,2022.2.2,Win32,59.62673663,,,,,,,,,,,,,,,,,,masks/mask_001.jpg,,,,,,,,,,,,,,,,,,,,,,,,,,,,,,,,,,,,,,,,,,,,,,,,0,4,4,0,1,,,,,,,,,,,,,,,,,,,,,,,,,,,,,,,,,,,,,,,,,
405845,001,2022-11-21_24h49.16.872,Info_measure_main_exp,2022.2.2,Win32,59.62673663,,,,,,,,,,,,,,,,,,,,,,,,,,,,,,5,0.7997,1,,,,,,,,,,,,0,131,5,5,1974,2178,absent_patch/patch0001974.jpg,absent_patch/patch0002178.jpg,,,,,,,,,,,,,,,,,,,,0.094444444,-0.058333333,1,0,0,response3disk,3,0.003703704,0.003703704,1,0,0,center_square,0,2,2,44,1,,,,,,,,,,,,,,,,,,,,,,,
405845,001,2022-11-21_24h49.16.872,Info_measure_main_exp,2022.2.2,Win32,59.62673663,,,,,,,,,,,,,,,,,,masks/mask_004.jpg,,,,,,,,,,,,,,,,,,,,,,,,,,,,,,,,,,,,,,,,,,,0,0,0,3,1,,,,,,,,,,,,,,,,,,,,,,,,,,,,,,,,,,,,,,,,,,,,,,
405845,001,2022-11-21_24h49.16.872,Info_measure_main_exp,2022.2.2,Win32,59.62673663,,,,,,,,,,,,,,,,,,masks/mask_005.jpg,,,,,,,,,,,,,,,,,,,,,,,,,,,,,,,,,,,,,,,,,,,0,1,1,4,1,,,,,,,,,,,,,,,,,,,,,,,,,,,,,,,,,,,,,,,,,,,,,,
405845,001,2022-11-21_24h49.16.872,Info_measure_main_exp,2022.2.2,Win32,59.62673663,,,,,,,,,,,,,,,,,,masks/mask_003.jpg,,,,,,,,,,,,,,,,,,,,,,,,,,,,,,,,,,,,,,,,,,,0,2,2,2,1,,,,,,,,,,,,,,,,,,,,,,,,,,,,,,,,,,,,,,,,,,,,,,
405845,001,2022-11-21_24h49.16.872,Info_measure_main_exp,2022.2.2,Win32,59.62673663,,,,,,,,,,,,,,,,,,masks/mask_001.jpg,,,,,,,,,,,,,,,,,,,,,,,,,,,,,,,,,,,,,,,,,,,0,3,3,0,1,,,,,,,,,,,,,,,,,,,,,,,,,,,,,,,,,,,,,,,,,,,,,,
405845,001,2022-11-21_24h49.16.872,Info_measure_main_exp,2022.2.2,Win32,59.62673663,,,,,,,,,,,,,,,,,,masks/mask_002.jpg,,,,,,,,,,,,,,,,,,,,,,,,,,,,,,,,,,,,,,,,,,,0,4,4,1,1,,,,,,,,,,,,,,,,,,,,,,,,,,,,,,,,,,,,,,,,,,,,,,
405845,001,2022-11-21_24h49.16.872,Info_measure_main_exp,2022.2.2,Win32,59.62673663,,,,,,,,,,,,,,,,,,masks/mask_003.jpg,,,,,,,,,,,,,,,,,,,,,,,,,,,,,,,,,,,,,,,,,,,,,,,,0,0,0,2,1,,,,,,,,,,,,,,,,,,,,,,,,,,,,,,,,,,,,,,,,,
405845,001,2022-11-21_24h49.16.872,Info_measure_main_exp,2022.2.2,Win32,59.62673663,,,,,,,,,,,,,,,,,,masks/mask_002.jpg,,,,,,,,,,,,,,,,,,,,,,,,,,,,,,,,,,,,,,,,,,,,,,,,0,1,1,1,1,,,,,,,,,,,,,,,,,,,,,,,,,,,,,,,,,,,,,,,,,
405845,001,2022-11-21_24h49.16.872,Info_measure_main_exp,2022.2.2,Win32,59.62673663,,,,,,,,,,,,,,,,,,masks/mask_005.jpg,,,,,,,,,,,,,,,,,,,,,,,,,,,,,,,,,,,,,,,,,,,,,,,,0,2,2,4,1,,,,,,,,,,,,,,,,,,,,,,,,,,,,,,,,,,,,,,,,,
405845,001,2022-11-21_24h49.16.872,Info_measure_main_exp,2022.2.2,Win32,59.62673663,,,,,,,,,,,,,,,,,,masks/mask_001.jpg,,,,,,,,,,,,,,,,,,,,,,,,,,,,,,,,,,,,,,,,,,,,,,,,0,3,3,0,1,,,,,,,,,,,,,,,,,,,,,,,,,,,,,,,,,,,,,,,,,
405845,001,2022-11-21_24h49.16.872,Info_measure_main_exp,2022.2.2,Win32,59.62673663,,,,,,,,,,,,,,,,,,masks/mask_004.jpg,,,,,,,,,,,,,,,,,,,,,,,,,,,,,,,,,,,,,,,,,,,,,,,,0,4,4,3,1,,,,,,,,,,,,,,,,,,,,,,,,,,,,,,,,,,,,,,,,,
405845,001,2022-11-21_24h49.16.872,Info_measure_main_exp,2022.2.2,Win32,59.62673663,,,,,,,,,,,,,,,,,,,,,,,,,,,,,,0,0.5499,1,,,,,,,,,,,,1,131,5,5,1,1,present_patch/cong_131_5_a.jpg,present_patch/cong_131_5_a.jpg,,,,,,,,,,,,,,,,,,,,-0.046296296,0.15462963,1,0,0,response7disk,4,0.001851852,-0.002777778,1,0,0,center_square,0,3,3,30,1,,,,,,,,,,,,,,,,,,,,,,,
405845,001,2022-11-21_24h49.16.872,Info_measure_main_exp,2022.2.2,Win32,59.62673663,,,,,,,,,,,,,,,,,,masks/mask_004.jpg,,,,,,,,,,,,,,,,,,,,,,,,,,,,,,,,,,,,,,,,,,,0,0,0,3,1,,,,,,,,,,,,,,,,,,,,,,,,,,,,,,,,,,,,,,,,,,,,,,
405845,001,2022-11-21_24h49.16.872,Info_measure_main_exp,2022.2.2,Win32,59.62673663,,,,,,,,,,,,,,,,,,masks/mask_005.jpg,,,,,,,,,,,,,,,,,,,,,,,,,,,,,,,,,,,,,,,,,,,0,1,1,4,1,,,,,,,,,,,,,,,,,,,,,,,,,,,,,,,,,,,,,,,,,,,,,,
405845,001,2022-11-21_24h49.16.872,Info_measure_main_exp,2022.2.2,Win32,59.62673663,,,,,,,,,,,,,,,,,,masks/mask_002.jpg,,,,,,,,,,,,,,,,,,,,,,,,,,,,,,,,,,,,,,,,,,,0,2,2,1,1,,,,,,,,,,,,,,,,,,,,,,,,,,,,,,,,,,,,,,,,,,,,,,
405845,001,2022-11-21_24h49.16.872,Info_measure_main_exp,2022.2.2,Win32,59.62673663,,,,,,,,,,,,,,,,,,masks/mask_001.jpg,,,,,,,,,,,,,,,,,,,,,,,,,,,,,,,,,,,,,,,,,,,0,3,3,0,1,,,,,,,,,,,,,,,,,,,,,,,,,,,,,,,,,,,,,,,,,,,,,,
405845,001,2022-11-21_24h49.16.872,Info_measure_main_exp,2022.2.2,Win32,59.62673663,,,,,,,,,,,,,,,,,,masks/mask_003.jpg,,,,,,,,,,,,,,,,,,,,,,,,,,,,,,,,,,,,,,,,,,,0,4,4,2,1,,,,,,,,,,,,,,,,,,,,,,,,,,,,,,,,,,,,,,,,,,,,,,
405845,001,2022-11-21_24h49.16.872,Info_measure_main_exp,2022.2.2,Win32,59.62673663,,,,,,,,,,,,,,,,,,masks/mask_005.jpg,,,,,,,,,,,,,,,,,,,,,,,,,,,,,,,,,,,,,,,,,,,,,,,,0,0,0,4,1,,,,,,,,,,,,,,,,,,,,,,,,,,,,,,,,,,,,,,,,,
405845,001,2022-11-21_24h49.16.872,Info_measure_main_exp,2022.2.2,Win32,59.62673663,,,,,,,,,,,,,,,,,,masks/mask_001.jpg,,,,,,,,,,,,,,,,,,,,,,,,,,,,,,,,,,,,,,,,,,,,,,,,0,1,1,0,1,,,,,,,,,,,,,,,,,,,,,,,,,,,,,,,,,,,,,,,,,
405845,001,2022-11-21_24h49.16.872,Info_measure_main_exp,2022.2.2,Win32,59.62673663,,,,,,,,,,,,,,,,,,masks/mask_003.jpg,,,,,,,,,,,,,,,,,,,,,,,,,,,,,,,,,,,,,,,,,,,,,,,,0,2,2,2,1,,,,,,,,,,,,,,,,,,,,,,,,,,,,,,,,,,,,,,,,,
405845,001,2022-11-21_24h49.16.872,Info_measure_main_exp,2022.2.2,Win32,59.62673663,,,,,,,,,,,,,,,,,,masks/mask_004.jpg,,,,,,,,,,,,,,,,,,,,,,,,,,,,,,,,,,,,,,,,,,,,,,,,0,3,3,3,1,,,,,,,,,,,,,,,,,,,,,,,,,,,,,,,,,,,,,,,,,
405845,001,2022-11-21_24h49.16.872,Info_measure_main_exp,2022.2.2,Win32,59.62673663,,,,,,,,,,,,,,,,,,masks/mask_002.jpg,,,,,,,,,,,,,,,,,,,,,,,,,,,,,,,,,,,,,,,,,,,,,,,,0,4,4,1,1,,,,,,,,,,,,,,,,,,,,,,,,,,,,,,,,,,,,,,,,,
405845,001,2022-11-21_24h49.16.872,Info_measure_main_exp,2022.2.2,Win32,59.62673663,,,,,,,,,,,,,,,,,,,,,,,,,,,,,,7,0.7353,1,,,,,,,,,,,,0,131,5,5,2250,2238,absent_patch/patch0002250.jpg,absent_patch/patch0002238.jpg,,,,,,,,,,,,,,,,,,,,0.037037037,0.114814815,1,0,0,response1disk,5,-0.00462963,0.000925926,1,0,0,center_square,0,4,4,110,1,,,,,,,,,,,,,,,,,,,,,,,
405845,001,2022-11-21_24h49.16.872,Info_measure_main_exp,2022.2.2,Win32,59.62673663,,,,,,,,,,,,,,,,,,masks/mask_003.jpg,,,,,,,,,,,,,,,,,,,,,,,,,,,,,,,,,,,,,,,,,,,0,0,0,2,1,,,,,,,,,,,,,,,,,,,,,,,,,,,,,,,,,,,,,,,,,,,,,,
405845,001,2022-11-21_24h49.16.872,Info_measure_main_exp,2022.2.2,Win32,59.62673663,,,,,,,,,,,,,,,,,,masks/mask_001.jpg,,,,,,,,,,,,,,,,,,,,,,,,,,,,,,,,,,,,,,,,,,,0,1,1,0,1,,,,,,,,,,,,,,,,,,,,,,,,,,,,,,,,,,,,,,,,,,,,,,
405845,001,2022-11-21_24h49.16.872,Info_measure_main_exp,2022.2.2,Win32,59.62673663,,,,,,,,,,,,,,,,,,masks/mask_002.jpg,,,,,,,,,,,,,,,,,,,,,,,,,,,,,,,,,,,,,,,,,,,0,2,2,1,1,,,,,,,,,,,,,,,,,,,,,,,,,,,,,,,,,,,,,,,,,,,,,,
405845,001,2022-11-21_24h49.16.872,Info_measure_main_exp,2022.2.2,Win32,59.62673663,,,,,,,,,,,,,,,,,,masks/mask_004.jpg,,,,,,,,,,,,,,,,,,,,,,,,,,,,,,,,,,,,,,,,,,,0,3,3,3,1,,,,,,,,,,,,,,,,,,,,,,,,,,,,,,,,,,,,,,,,,,,,,,
405845,001,2022-11-21_24h49.16.872,Info_measure_main_exp,2022.2.2,Win32,59.62673663,,,,,,,,,,,,,,,,,,masks/mask_005.jpg,,,,,,,,,,,,,,,,,,,,,,,,,,,,,,,,,,,,,,,,,,,0,4,4,4,1,,,,,,,,,,,,,,,,,,,,,,,,,,,,,,,,,,,,,,,,,,,,,,
405845,001,2022-11-21_24h49.16.872,Info_measure_main_exp,2022.2.2,Win32,59.62673663,,,,,,,,,,,,,,,,,,masks/mask_003.jpg,,,,,,,,,,,,,,,,,,,,,,,,,,,,,,,,,,,,,,,,,,,,,,,,0,0,0,2,1,,,,,,,,,,,,,,,,,,,,,,,,,,,,,,,,,,,,,,,,,
405845,001,2022-11-21_24h49.16.872,Info_measure_main_exp,2022.2.2,Win32,59.62673663,,,,,,,,,,,,,,,,,,masks/mask_002.jpg,,,,,,,,,,,,,,,,,,,,,,,,,,,,,,,,,,,,,,,,,,,,,,,,0,1,1,1,1,,,,,,,,,,,,,,,,,,,,,,,,,,,,,,,,,,,,,,,,,
405845,001,2022-11-21_24h49.16.872,Info_measure_main_exp,2022.2.2,Win32,59.62673663,,,,,,,,,,,,,,,,,,masks/mask_005.jpg,,,,,,,,,,,,,,,,,,,,,,,,,,,,,,,,,,,,,,,,,,,,,,,,0,2,2,4,1,,,,,,,,,,,,,,,,,,,,,,,,,,,,,,,,,,,,,,,,,
405845,001,2022-11-21_24h49.16.872,Info_measure_main_exp,2022.2.2,Win32,59.62673663,,,,,,,,,,,,,,,,,,masks/mask_001.jpg,,,,,,,,,,,,,,,,,,,,,,,,,,,,,,,,,,,,,,,,,,,,,,,,0,3,3,0,1,,,,,,,,,,,,,,,,,,,,,,,,,,,,,,,,,,,,,,,,,
405845,001,2022-11-21_24h49.16.872,Info_measure_main_exp,2022.2.2,Win32,59.62673663,,,,,,,,,,,,,,,,,,masks/mask_004.jpg,,,,,,,,,,,,,,,,,,,,,,,,,,,,,,,,,,,,,,,,,,,,,,,,0,4,4,3,1,,,,,,,,,,,,,,,,,,,,,,,,,,,,,,,,,,,,,,,,,
405845,001,2022-11-21_24h49.16.872,Info_measure_main_exp,2022.2.2,Win32,59.62673663,,,,,,,,,,,,,,,,,,,,,,,,,,,,,,7,0.6843,1,,,,,,,,,,,,1,131,5,5,2190,1,absent_patch/patch0002190.jpg,present_patch/cong_131_5_a.jpg,,,,,,,,,,,,,,,,,,,,0.052777778,0.148148148,1,0,0,response1disk,6,0.000925926,0.00462963,1,0,0,center_square,0,5,5,64,1,,,,,,,,,,,,,,,,,,,,,,,
405845,001,2022-11-21_24h49.16.872,Info_measure_main_exp,2022.2.2,Win32,59.62673663,,,,,,,,,,,,,,,,,,masks/mask_005.jpg,,,,,,,,,,,,,,,,,,,,,,,,,,,,,,,,,,,,,,,,,,,0,0,0,4,1,,,,,,,,,,,,,,,,,,,,,,,,,,,,,,,,,,,,,,,,,,,,,,
405845,001,2022-11-21_24h49.16.872,Info_measure_main_exp,2022.2.2,Win32,59.62673663,,,,,,,,,,,,,,,,,,masks/mask_004.jpg,,,,,,,,,,,,,,,,,,,,,,,,,,,,,,,,,,,,,,,,,,,0,1,1,3,1,,,,,,,,,,,,,,,,,,,,,,,,,,,,,,,,,,,,,,,,,,,,,,
405845,001,2022-11-21_24h49.16.872,Info_measure_main_exp,2022.2.2,Win32,59.62673663,,,,,,,,,,,,,,,,,,masks/mask_003.jpg,,,,,,,,,,,,,,,,,,,,,,,,,,,,,,,,,,,,,,,,,,,0,2,2,2,1,,,,,,,,,,,,,,,,,,,,,,,,,,,,,,,,,,,,,,,,,,,,,,
405845,001,2022-11-21_24h49.16.872,Info_measure_main_exp,2022.2.2,Win32,59.62673663,,,,,,,,,,,,,,,,,,masks/mask_002.jpg,,,,,,,,,,,,,,,,,,,,,,,,,,,,,,,,,,,,,,,,,,,0,3,3,1,1,,,,,,,,,,,,,,,,,,,,,,,,,,,,,,,,,,,,,,,,,,,,,,
405845,001,2022-11-21_24h49.16.872,Info_measure_main_exp,2022.2.2,Win32,59.62673663,,,,,,,,,,,,,,,,,,masks/mask_001.jpg,,,,,,,,,,,,,,,,,,,,,,,,,,,,,,,,,,,,,,,,,,,0,4,4,0,1,,,,,,,,,,,,,,,,,,,,,,,,,,,,,,,,,,,,,,,,,,,,,,
405845,001,2022-11-21_24h49.16.872,Info_measure_main_exp,2022.2.2,Win32,59.62673663,,,,,,,,,,,,,,,,,,masks/mask_002.jpg,,,,,,,,,,,,,,,,,,,,,,,,,,,,,,,,,,,,,,,,,,,,,,,,0,0,0,1,1,,,,,,,,,,,,,,,,,,,,,,,,,,,,,,,,,,,,,,,,,
405845,001,2022-11-21_24h49.16.872,Info_measure_main_exp,2022.2.2,Win32,59.62673663,,,,,,,,,,,,,,,,,,masks/mask_003.jpg,,,,,,,,,,,,,,,,,,,,,,,,,,,,,,,,,,,,,,,,,,,,,,,,0,1,1,2,1,,,,,,,,,,,,,,,,,,,,,,,,,,,,,,,,,,,,,,,,,
405845,001,2022-11-21_24h49.16.872,Info_measure_main_exp,2022.2.2,Win32,59.62673663,,,,,,,,,,,,,,,,,,masks/mask_001.jpg,,,,,,,,,,,,,,,,,,,,,,,,,,,,,,,,,,,,,,,,,,,,,,,,0,2,2,0,1,,,,,,,,,,,,,,,,,,,,,,,,,,,,,,,,,,,,,,,,,
405845,001,2022-11-21_24h49.16.872,Info_measure_main_exp,2022.2.2,Win32,59.62673663,,,,,,,,,,,,,,,,,,masks/mask_005.jpg,,,,,,,,,,,,,,,,,,,,,,,,,,,,,,,,,,,,,,,,,,,,,,,,0,3,3,4,1,,,,,,,,,,,,,,,,,,,,,,,,,,,,,,,,,,,,,,,,,
405845,001,2022-11-21_24h49.16.872,Info_measure_main_exp,2022.2.2,Win32,59.62673663,,,,,,,,,,,,,,,,,,masks/mask_004.jpg,,,,,,,,,,,,,,,,,,,,,,,,,,,,,,,,,,,,,,,,,,,,,,,,0,4,4,3,1,,,,,,,,,,,,,,,,,,,,,,,,,,,,,,,,,,,,,,,,,
405845,001,2022-11-21_24h49.16.872,Info_measure_main_exp,2022.2.2,Win32,59.62673663,,,,,,,,,,,,,,,,,,,,,,,,,,,,,,7,0.6513,1,,,,,,,,,,,,0,131,5,5,1974,2214,absent_patch/patch0001974.jpg,absent_patch/patch0002214.jpg,,,,,,,,,,,,,,,,,,,,0.055555556,0.142592593,1,0,0,response1disk,7,0.000925926,-0.001851852,1,0,0,center_square,0,6,6,24,1,,,,,,,,,,,,,,,,,,,,,,,
405845,001,2022-11-21_24h49.16.872,Info_measure_main_exp,2022.2.2,Win32,59.62673663,,,,,,,,,,,,,,,,,,masks/mask_004.jpg,,,,,,,,,,,,,,,,,,,,,,,,,,,,,,,,,,,,,,,,,,,0,0,0,3,1,,,,,,,,,,,,,,,,,,,,,,,,,,,,,,,,,,,,,,,,,,,,,,
405845,001,2022-11-21_24h49.16.872,Info_measure_main_exp,2022.2.2,Win32,59.62673663,,,,,,,,,,,,,,,,,,masks/mask_002.jpg,,,,,,,,,,,,,,,,,,,,,,,,,,,,,,,,,,,,,,,,,,,0,1,1,1,1,,,,,,,,,,,,,,,,,,,,,,,,,,,,,,,,,,,,,,,,,,,,,,
405845,001,2022-11-21_24h49.16.872,Info_measure_main_exp,2022.2.2,Win32,59.62673663,,,,,,,,,,,,,,,,,,masks/mask_003.jpg,,,,,,,,,,,,,,,,,,,,,,,,,,,,,,,,,,,,,,,,,,,0,2,2,2,1,,,,,,,,,,,,,,,,,,,,,,,,,,,,,,,,,,,,,,,,,,,,,,
405845,001,2022-11-21_24h49.16.872,Info_measure_main_exp,2022.2.2,Win32,59.62673663,,,,,,,,,,,,,,,,,,masks/mask_001.jpg,,,,,,,,,,,,,,,,,,,,,,,,,,,,,,,,,,,,,,,,,,,0,3,3,0,1,,,,,,,,,,,,,,,,,,,,,,,,,,,,,,,,,,,,,,,,,,,,,,
405845,001,2022-11-21_24h49.16.872,Info_measure_main_exp,2022.2.2,Win32,59.62673663,,,,,,,,,,,,,,,,,,masks/mask_005.jpg,,,,,,,,,,,,,,,,,,,,,,,,,,,,,,,,,,,,,,,,,,,0,4,4,4,1,,,,,,,,,,,,,,,,,,,,,,,,,,,,,,,,,,,,,,,,,,,,,,
405845,001,2022-11-21_24h49.16.872,Info_measure_main_exp,2022.2.2,Win32,59.62673663,,,,,,,,,,,,,,,,,,masks/mask_003.jpg,,,,,,,,,,,,,,,,,,,,,,,,,,,,,,,,,,,,,,,,,,,,,,,,0,0,0,2,1,,,,,,,,,,,,,,,,,,,,,,,,,,,,,,,,,,,,,,,,,
405845,001,2022-11-21_24h49.16.872,Info_measure_main_exp,2022.2.2,Win32,59.62673663,,,,,,,,,,,,,,,,,,masks/mask_004.jpg,,,,,,,,,,,,,,,,,,,,,,,,,,,,,,,,,,,,,,,,,,,,,,,,0,1,1,3,1,,,,,,,,,,,,,,,,,,,,,,,,,,,,,,,,,,,,,,,,,
405845,001,2022-11-21_24h49.16.872,Info_measure_main_exp,2022.2.2,Win32,59.62673663,,,,,,,,,,,,,,,,,,masks/mask_002.jpg,,,,,,,,,,,,,,,,,,,,,,,,,,,,,,,,,,,,,,,,,,,,,,,,0,2,2,1,1,,,,,,,,,,,,,,,,,,,,,,,,,,,,,,,,,,,,,,,,,
405845,001,2022-11-21_24h49.16.872,Info_measure_main_exp,2022.2.2,Win32,59.62673663,,,,,,,,,,,,,,,,,,masks/mask_001.jpg,,,,,,,,,,,,,,,,,,,,,,,,,,,,,,,,,,,,,,,,,,,,,,,,0,3,3,0,1,,,,,,,,,,,,,,,,,,,,,,,,,,,,,,,,,,,,,,,,,
405845,001,2022-11-21_24h49.16.872,Info_measure_main_exp,2022.2.2,Win32,59.62673663,,,,,,,,,,,,,,,,,,masks/mask_005.jpg,,,,,,,,,,,,,,,,,,,,,,,,,,,,,,,,,,,,,,,,,,,,,,,,0,4,4,4,1,,,,,,,,,,,,,,,,,,,,,,,,,,,,,,,,,,,,,,,,,
405845,001,2022-11-21_24h49.16.872,Info_measure_main_exp,2022.2.2,Win32,59.62673663,,,,,,,,,,,,,,,,,,,,,,,,,,,,,,7,0.7,1,,,,,,,,,,,,0,131,5,5,2238,2298,absent_patch/patch0002238.jpg,absent_patch/patch0002298.jpg,,,,,,,,,,,,,,,,,,,,0.062037037,0.12962963,1,0,0,response1disk,8,-0.00462963,0.005555556,1,0,0,center_square,0,7,7,51,1,,,,,,,,,,,,,,,,,,,,,,,
405845,001,2022-11-21_24h49.16.872,Info_measure_main_exp,2022.2.2,Win32,59.62673663,,,,,,,,,,,,,,,,,,masks/mask_004.jpg,,,,,,,,,,,,,,,,,,,,,,,,,,,,,,,,,,,,,,,,,,,0,0,0,3,1,,,,,,,,,,,,,,,,,,,,,,,,,,,,,,,,,,,,,,,,,,,,,,
405845,001,2022-11-21_24h49.16.872,Info_measure_main_exp,2022.2.2,Win32,59.62673663,,,,,,,,,,,,,,,,,,masks/mask_001.jpg,,,,,,,,,,,,,,,,,,,,,,,,,,,,,,,,,,,,,,,,,,,0,1,1,0,1,,,,,,,,,,,,,,,,,,,,,,,,,,,,,,,,,,,,,,,,,,,,,,
405845,001,2022-11-21_24h49.16.872,Info_measure_main_exp,2022.2.2,Win32,59.62673663,,,,,,,,,,,,,,,,,,masks/mask_005.jpg,,,,,,,,,,,,,,,,,,,,,,,,,,,,,,,,,,,,,,,,,,,0,2,2,4,1,,,,,,,,,,,,,,,,,,,,,,,,,,,,,,,,,,,,,,,,,,,,,,
405845,001,2022-11-21_24h49.16.872,Info_measure_main_exp,2022.2.2,Win32,59.62673663,,,,,,,,,,,,,,,,,,masks/mask_003.jpg,,,,,,,,,,,,,,,,,,,,,,,,,,,,,,,,,,,,,,,,,,,0,3,3,2,1,,,,,,,,,,,,,,,,,,,,,,,,,,,,,,,,,,,,,,,,,,,,,,
405845,001,2022-11-21_24h49.16.872,Info_measure_main_exp,2022.2.2,Win32,59.62673663,,,,,,,,,,,,,,,,,,masks/mask_002.jpg,,,,,,,,,,,,,,,,,,,,,,,,,,,,,,,,,,,,,,,,,,,0,4,4,1,1,,,,,,,,,,,,,,,,,,,,,,,,,,,,,,,,,,,,,,,,,,,,,,
405845,001,2022-11-21_24h49.16.872,Info_measure_main_exp,2022.2.2,Win32,59.62673663,,,,,,,,,,,,,,,,,,masks/mask_004.jpg,,,,,,,,,,,,,,,,,,,,,,,,,,,,,,,,,,,,,,,,,,,,,,,,0,0,0,3,1,,,,,,,,,,,,,,,,,,,,,,,,,,,,,,,,,,,,,,,,,
405845,001,2022-11-21_24h49.16.872,Info_measure_main_exp,2022.2.2,Win32,59.62673663,,,,,,,,,,,,,,,,,,masks/mask_003.jpg,,,,,,,,,,,,,,,,,,,,,,,,,,,,,,,,,,,,,,,,,,,,,,,,0,1,1,2,1,,,,,,,,,,,,,,,,,,,,,,,,,,,,,,,,,,,,,,,,,
405845,001,2022-11-21_24h49.16.872,Info_measure_main_exp,2022.2.2,Win32,59.62673663,,,,,,,,,,,,,,,,,,masks/mask_005.jpg,,,,,,,,,,,,,,,,,,,,,,,,,,,,,,,,,,,,,,,,,,,,,,,,0,2,2,4,1,,,,,,,,,,,,,,,,,,,,,,,,,,,,,,,,,,,,,,,,,
405845,001,2022-11-21_24h49.16.872,Info_measure_main_exp,2022.2.2,Win32,59.62673663,,,,,,,,,,,,,,,,,,masks/mask_001.jpg,,,,,,,,,,,,,,,,,,,,,,,,,,,,,,,,,,,,,,,,,,,,,,,,0,3,3,0,1,,,,,,,,,,,,,,,,,,,,,,,,,,,,,,,,,,,,,,,,,
405845,001,2022-11-21_24h49.16.872,Info_measure_main_exp,2022.2.2,Win32,59.62673663,,,,,,,,,,,,,,,,,,masks/mask_002.jpg,,,,,,,,,,,,,,,,,,,,,,,,,,,,,,,,,,,,,,,,,,,,,,,,0,4,4,1,1,,,,,,,,,,,,,,,,,,,,,,,,,,,,,,,,,,,,,,,,,
405845,001,2022-11-21_24h49.16.872,Info_measure_main_exp,2022.2.2,Win32,59.62673663,,,,,,,,,,,,,,,,,,,,,,,,,,,,,,7,0.6504,1,,,,,,,,,,,,0,131,5,5,2178,1986,absent_patch/patch0002178.jpg,absent_patch/patch0001986.jpg,,,,,,,,,,,,,,,,,,,,0.057407407,0.125925926,1,0,0,response1disk,9,0.002777778,0,1,0,0,center_square,0,8,8,46,1,,,,,,,,,,,,,,,,,,,,,,,
405845,001,2022-11-21_24h49.16.872,Info_measure_main_exp,2022.2.2,Win32,59.62673663,,,,,,,,,,,,,,,,,,masks/mask_003.jpg,,,,,,,,,,,,,,,,,,,,,,,,,,,,,,,,,,,,,,,,,,,0,0,0,2,1,,,,,,,,,,,,,,,,,,,,,,,,,,,,,,,,,,,,,,,,,,,,,,
405845,001,2022-11-21_24h49.16.872,Info_measure_main_exp,2022.2.2,Win32,59.62673663,,,,,,,,,,,,,,,,,,masks/mask_001.jpg,,,,,,,,,,,,,,,,,,,,,,,,,,,,,,,,,,,,,,,,,,,0,1,1,0,1,,,,,,,,,,,,,,,,,,,,,,,,,,,,,,,,,,,,,,,,,,,,,,
405845,001,2022-11-21_24h49.16.872,Info_measure_main_exp,2022.2.2,Win32,59.62673663,,,,,,,,,,,,,,,,,,masks/mask_004.jpg,,,,,,,,,,,,,,,,,,,,,,,,,,,,,,,,,,,,,,,,,,,0,2,2,3,1,,,,,,,,,,,,,,,,,,,,,,,,,,,,,,,,,,,,,,,,,,,,,,
405845,001,2022-11-21_24h49.16.872,Info_measure_main_exp,2022.2.2,Win32,59.62673663,,,,,,,,,,,,,,,,,,masks/mask_005.jpg,,,,,,,,,,,,,,,,,,,,,,,,,,,,,,,,,,,,,,,,,,,0,3,3,4,1,,,,,,,,,,,,,,,,,,,,,,,,,,,,,,,,,,,,,,,,,,,,,,
405845,001,2022-11-21_24h49.16.872,Info_measure_main_exp,2022.2.2,Win32,59.62673663,,,,,,,,,,,,,,,,,,masks/mask_002.jpg,,,,,,,,,,,,,,,,,,,,,,,,,,,,,,,,,,,,,,,,,,,0,4,4,1,1,,,,,,,,,,,,,,,,,,,,,,,,,,,,,,,,,,,,,,,,,,,,,,
405845,001,2022-11-21_24h49.16.872,Info_measure_main_exp,2022.2.2,Win32,59.62673663,,,,,,,,,,,,,,,,,,masks/mask_005.jpg,,,,,,,,,,,,,,,,,,,,,,,,,,,,,,,,,,,,,,,,,,,,,,,,0,0,0,4,1,,,,,,,,,,,,,,,,,,,,,,,,,,,,,,,,,,,,,,,,,
405845,001,2022-11-21_24h49.16.872,Info_measure_main_exp,2022.2.2,Win32,59.62673663,,,,,,,,,,,,,,,,,,masks/mask_004.jpg,,,,,,,,,,,,,,,,,,,,,,,,,,,,,,,,,,,,,,,,,,,,,,,,0,1,1,3,1,,,,,,,,,,,,,,,,,,,,,,,,,,,,,,,,,,,,,,,,,
405845,001,2022-11-21_24h49.16.872,Info_measure_main_exp,2022.2.2,Win32,59.62673663,,,,,,,,,,,,,,,,,,masks/mask_003.jpg,,,,,,,,,,,,,,,,,,,,,,,,,,,,,,,,,,,,,,,,,,,,,,,,0,2,2,2,1,,,,,,,,,,,,,,,,,,,,,,,,,,,,,,,,,,,,,,,,,
405845,001,2022-11-21_24h49.16.872,Info_measure_main_exp,2022.2.2,Win32,59.62673663,,,,,,,,,,,,,,,,,,masks/mask_001.jpg,,,,,,,,,,,,,,,,,,,,,,,,,,,,,,,,,,,,,,,,,,,,,,,,0,3,3,0,1,,,,,,,,,,,,,,,,,,,,,,,,,,,,,,,,,,,,,,,,,
405845,001,2022-11-21_24h49.16.872,Info_measure_main_exp,2022.2.2,Win32,59.62673663,,,,,,,,,,,,,,,,,,masks/mask_002.jpg,,,,,,,,,,,,,,,,,,,,,,,,,,,,,,,,,,,,,,,,,,,,,,,,0,4,4,1,1,,,,,,,,,,,,,,,,,,,,,,,,,,,,,,,,,,,,,,,,,
405845,001,2022-11-21_24h49.16.872,Info_measure_main_exp,2022.2.2,Win32,59.62673663,,,,,,,,,,,,,,,,,,,,,,,,,,,,,,7,0.4851,1,,,,,,,,,,,,0,131,5,5,2274,2214,absent_patch/patch0002274.jpg,absent_patch/patch0002214.jpg,,,,,,,,,,,,,,,,,,,,0.065740741,0.167592593,1,0,0,response1disk,10,-0.002777778,-0.005555556,1,0,0,center_square,0,9,9,11,1,,,,,,,,,,,,,,,,,,,,,,,
405845,001,2022-11-21_24h49.16.872,Info_measure_main_exp,2022.2.2,Win32,59.62673663,,,,,,,,,,,,,,,,,,masks/mask_005.jpg,,,,,,,,,,,,,,,,,,,,,,,,,,,,,,,,,,,,,,,,,,,0,0,0,4,1,,,,,,,,,,,,,,,,,,,,,,,,,,,,,,,,,,,,,,,,,,,,,,
405845,001,2022-11-21_24h49.16.872,Info_measure_main_exp,2022.2.2,Win32,59.62673663,,,,,,,,,,,,,,,,,,masks/mask_001.jpg,,,,,,,,,,,,,,,,,,,,,,,,,,,,,,,,,,,,,,,,,,,0,1,1,0,1,,,,,,,,,,,,,,,,,,,,,,,,,,,,,,,,,,,,,,,,,,,,,,
405845,001,2022-11-21_24h49.16.872,Info_measure_main_exp,2022.2.2,Win32,59.62673663,,,,,,,,,,,,,,,,,,masks/mask_004.jpg,,,,,,,,,,,,,,,,,,,,,,,,,,,,,,,,,,,,,,,,,,,0,2,2,3,1,,,,,,,,,,,,,,,,,,,,,,,,,,,,,,,,,,,,,,,,,,,,,,
405845,001,2022-11-21_24h49.16.872,Info_measure_main_exp,2022.2.2,Win32,59.62673663,,,,,,,,,,,,,,,,,,masks/mask_002.jpg,,,,,,,,,,,,,,,,,,,,,,,,,,,,,,,,,,,,,,,,,,,0,3,3,1,1,,,,,,,,,,,,,,,,,,,,,,,,,,,,,,,,,,,,,,,,,,,,,,
405845,001,2022-11-21_24h49.16.872,Info_measure_main_exp,2022.2.2,Win32,59.62673663,,,,,,,,,,,,,,,,,,masks/mask_003.jpg,,,,,,,,,,,,,,,,,,,,,,,,,,,,,,,,,,,,,,,,,,,0,4,4,2,1,,,,,,,,,,,,,,,,,,,,,,,,,,,,,,,,,,,,,,,,,,,,,,
405845,001,2022-11-21_24h49.16.872,Info_measure_main_exp,2022.2.2,Win32,59.62673663,,,,,,,,,,,,,,,,,,masks/mask_002.jpg,,,,,,,,,,,,,,,,,,,,,,,,,,,,,,,,,,,,,,,,,,,,,,,,0,0,0,1,1,,,,,,,,,,,,,,,,,,,,,,,,,,,,,,,,,,,,,,,,,
405845,001,2022-11-21_24h49.16.872,Info_measure_main_exp,2022.2.2,Win32,59.62673663,,,,,,,,,,,,,,,,,,masks/mask_005.jpg,,,,,,,,,,,,,,,,,,,,,,,,,,,,,,,,,,,,,,,,,,,,,,,,0,1,1,4,1,,,,,,,,,,,,,,,,,,,,,,,,,,,,,,,,,,,,,,,,,
405845,001,2022-11-21_24h49.16.872,Info_measure_main_exp,2022.2.2,Win32,59.62673663,,,,,,,,,,,,,,,,,,masks/mask_003.jpg,,,,,,,,,,,,,,,,,,,,,,,,,,,,,,,,,,,,,,,,,,,,,,,,0,2,2,2,1,,,,,,,,,,,,,,,,,,,,,,,,,,,,,,,,,,,,,,,,,
405845,001,2022-11-21_24h49.16.872,Info_measure_main_exp,2022.2.2,Win32,59.62673663,,,,,,,,,,,,,,,,,,masks/mask_001.jpg,,,,,,,,,,,,,,,,,,,,,,,,,,,,,,,,,,,,,,,,,,,,,,,,0,3,3,0,1,,,,,,,,,,,,,,,,,,,,,,,,,,,,,,,,,,,,,,,,,
405845,001,2022-11-21_24h49.16.872,Info_measure_main_exp,2022.2.2,Win32,59.62673663,,,,,,,,,,,,,,,,,,masks/mask_004.jpg,,,,,,,,,,,,,,,,,,,,,,,,,,,,,,,,,,,,,,,,,,,,,,,,0,4,4,3,1,,,,,,,,,,,,,,,,,,,,,,,,,,,,,,,,,,,,,,,,,
405845,001,2022-11-21_24h49.16.872,Info_measure_main_exp,2022.2.2,Win32,59.62673663,,,,,,,,,,,,,,,,,,,,,,,,,,,,,,7,1.2511,1,,,,,,,,,,,,0,131,5,5,2250,2142,absent_patch/patch0002250.jpg,absent_patch/patch0002142.jpg,,,,,,,,,,,,,,,,,,,,0.036111111,0.12962963,1,0,0,response1disk,11,0,0.002777778,1,0,0,center_square,0,10,10,71,1,,,,,,,,,,,,,,,,,,,,,,,
405845,001,2022-11-21_24h49.16.872,Info_measure_main_exp,2022.2.2,Win32,59.62673663,,,,,,,,,,,,,,,,,,masks/mask_004.jpg,,,,,,,,,,,,,,,,,,,,,,,,,,,,,,,,,,,,,,,,,,,0,0,0,3,1,,,,,,,,,,,,,,,,,,,,,,,,,,,,,,,,,,,,,,,,,,,,,,
405845,001,2022-11-21_24h49.16.872,Info_measure_main_exp,2022.2.2,Win32,59.62673663,,,,,,,,,,,,,,,,,,masks/mask_005.jpg,,,,,,,,,,,,,,,,,,,,,,,,,,,,,,,,,,,,,,,,,,,0,1,1,4,1,,,,,,,,,,,,,,,,,,,,,,,,,,,,,,,,,,,,,,,,,,,,,,
405845,001,2022-11-21_24h49.16.872,Info_measure_main_exp,2022.2.2,Win32,59.62673663,,,,,,,,,,,,,,,,,,masks/mask_002.jpg,,,,,,,,,,,,,,,,,,,,,,,,,,,,,,,,,,,,,,,,,,,0,2,2,1,1,,,,,,,,,,,,,,,,,,,,,,,,,,,,,,,,,,,,,,,,,,,,,,
405845,001,2022-11-21_24h49.16.872,Info_measure_main_exp,2022.2.2,Win32,59.62673663,,,,,,,,,,,,,,,,,,masks/mask_001.jpg,,,,,,,,,,,,,,,,,,,,,,,,,,,,,,,,,,,,,,,,,,,0,3,3,0,1,,,,,,,,,,,,,,,,,,,,,,,,,,,,,,,,,,,,,,,,,,,,,,
405845,001,2022-11-21_24h49.16.872,Info_measure_main_exp,2022.2.2,Win32,59.62673663,,,,,,,,,,,,,,,,,,masks/mask_003.jpg,,,,,,,,,,,,,,,,,,,,,,,,,,,,,,,,,,,,,,,,,,,0,4,4,2,1,,,,,,,,,,,,,,,,,,,,,,,,,,,,,,,,,,,,,,,,,,,,,,
405845,001,2022-11-21_24h49.16.872,Info_measure_main_exp,2022.2.2,Win32,59.62673663,,,,,,,,,,,,,,,,,,masks/mask_002.jpg,,,,,,,,,,,,,,,,,,,,,,,,,,,,,,,,,,,,,,,,,,,,,,,,0,0,0,1,1,,,,,,,,,,,,,,,,,,,,,,,,,,,,,,,,,,,,,,,,,
405845,001,2022-11-21_24h49.16.872,Info_measure_main_exp,2022.2.2,Win32,59.62673663,,,,,,,,,,,,,,,,,,masks/mask_003.jpg,,,,,,,,,,,,,,,,,,,,,,,,,,,,,,,,,,,,,,,,,,,,,,,,0,1,1,2,1,,,,,,,,,,,,,,,,,,,,,,,,,,,,,,,,,,,,,,,,,
405845,001,2022-11-21_24h49.16.872,Info_measure_main_exp,2022.2.2,Win32,59.62673663,,,,,,,,,,,,,,,,,,masks/mask_004.jpg,,,,,,,,,,,,,,,,,,,,,,,,,,,,,,,,,,,,,,,,,,,,,,,,0,2,2,3,1,,,,,,,,,,,,,,,,,,,,,,,,,,,,,,,,,,,,,,,,,
405845,001,2022-11-21_24h49.16.872,Info_measure_main_exp,2022.2.2,Win32,59.62673663,,,,,,,,,,,,,,,,,,masks/mask_001.jpg,,,,,,,,,,,,,,,,,,,,,,,,,,,,,,,,,,,,,,,,,,,,,,,,0,3,3,0,1,,,,,,,,,,,,,,,,,,,,,,,,,,,,,,,,,,,,,,,,,
405845,001,2022-11-21_24h49.16.872,Info_measure_main_exp,2022.2.2,Win32,59.62673663,,,,,,,,,,,,,,,,,,masks/mask_005.jpg,,,,,,,,,,,,,,,,,,,,,,,,,,,,,,,,,,,,,,,,,,,,,,,,0,4,4,4,1,,,,,,,,,,,,,,,,,,,,,,,,,,,,,,,,,,,,,,,,,
405845,001,2022-11-21_24h49.16.872,Info_measure_main_exp,2022.2.2,Win32,59.62673663,,,,,,,,,,,,,,,,,,,,,,,,,,,,,,7,0.4844,1,,,,,,,,,,,,0,131,5,5,2238,2214,absent_patch/patch0002238.jpg,absent_patch/patch0002214.jpg,,,,,,,,,,,,,,,,,,,,0.071296296,0.143518519,1,0,0,response1disk,12,-0.000925926,0.008333333,1,0,0,center_square,0,11,11,81,1,,,,,,,,,,,,,,,,,,,,,,,
405845,001,2022-11-21_24h49.16.872,Info_measure_main_exp,2022.2.2,Win32,59.62673663,,,,,,,,,,,,,,,,,,masks/mask_004.jpg,,,,,,,,,,,,,,,,,,,,,,,,,,,,,,,,,,,,,,,,,,,0,0,0,3,1,,,,,,,,,,,,,,,,,,,,,,,,,,,,,,,,,,,,,,,,,,,,,,
405845,001,2022-11-21_24h49.16.872,Info_measure_main_exp,2022.2.2,Win32,59.62673663,,,,,,,,,,,,,,,,,,masks/mask_005.jpg,,,,,,,,,,,,,,,,,,,,,,,,,,,,,,,,,,,,,,,,,,,0,1,1,4,1,,,,,,,,,,,,,,,,,,,,,,,,,,,,,,,,,,,,,,,,,,,,,,
405845,001,2022-11-21_24h49.16.872,Info_measure_main_exp,2022.2.2,Win32,59.62673663,,,,,,,,,,,,,,,,,,masks/mask_001.jpg,,,,,,,,,,,,,,,,,,,,,,,,,,,,,,,,,,,,,,,,,,,0,2,2,0,1,,,,,,,,,,,,,,,,,,,,,,,,,,,,,,,,,,,,,,,,,,,,,,
405845,001,2022-11-21_24h49.16.872,Info_measure_main_exp,2022.2.2,Win32,59.62673663,,,,,,,,,,,,,,,,,,masks/mask_003.jpg,,,,,,,,,,,,,,,,,,,,,,,,,,,,,,,,,,,,,,,,,,,0,3,3,2,1,,,,,,,,,,,,,,,,,,,,,,,,,,,,,,,,,,,,,,,,,,,,,,
405845,001,2022-11-21_24h49.16.872,Info_measure_main_exp,2022.2.2,Win32,59.62673663,,,,,,,,,,,,,,,,,,masks/mask_002.jpg,,,,,,,,,,,,,,,,,,,,,,,,,,,,,,,,,,,,,,,,,,,0,4,4,1,1,,,,,,,,,,,,,,,,,,,,,,,,,,,,,,,,,,,,,,,,,,,,,,
405845,001,2022-11-21_24h49.16.872,Info_measure_main_exp,2022.2.2,Win32,59.62673663,,,,,,,,,,,,,,,,,,masks/mask_002.jpg,,,,,,,,,,,,,,,,,,,,,,,,,,,,,,,,,,,,,,,,,,,,,,,,0,0,0,1,1,,,,,,,,,,,,,,,,,,,,,,,,,,,,,,,,,,,,,,,,,
405845,001,2022-11-21_24h49.16.872,Info_measure_main_exp,2022.2.2,Win32,59.62673663,,,,,,,,,,,,,,,,,,masks/mask_003.jpg,,,,,,,,,,,,,,,,,,,,,,,,,,,,,,,,,,,,,,,,,,,,,,,,0,1,1,2,1,,,,,,,,,,,,,,,,,,,,,,,,,,,,,,,,,,,,,,,,,
405845,001,2022-11-21_24h49.16.872,Info_measure_main_exp,2022.2.2,Win32,59.62673663,,,,,,,,,,,,,,,,,,masks/mask_004.jpg,,,,,,,,,,,,,,,,,,,,,,,,,,,,,,,,,,,,,,,,,,,,,,,,0,2,2,3,1,,,,,,,,,,,,,,,,,,,,,,,,,,,,,,,,,,,,,,,,,
405845,001,2022-11-21_24h49.16.872,Info_measure_main_exp,2022.2.2,Win32,59.62673663,,,,,,,,,,,,,,,,,,masks/mask_001.jpg,,,,,,,,,,,,,,,,,,,,,,,,,,,,,,,,,,,,,,,,,,,,,,,,0,3,3,0,1,,,,,,,,,,,,,,,,,,,,,,,,,,,,,,,,,,,,,,,,,
405845,001,2022-11-21_24h49.16.872,Info_measure_main_exp,2022.2.2,Win32,59.62673663,,,,,,,,,,,,,,,,,,masks/mask_005.jpg,,,,,,,,,,,,,,,,,,,,,,,,,,,,,,,,,,,,,,,,,,,,,,,,0,4,4,4,1,,,,,,,,,,,,,,,,,,,,,,,,,,,,,,,,,,,,,,,,,
405845,001,2022-11-21_24h49.16.872,Info_measure_main_exp,2022.2.2,Win32,59.62673663,,,,,,,,,,,,,,,,,,,,,,,,,,,,,,7,0.701,1,,,,,,,,,,,,0,131,5,5,1986,1974,absent_patch/patch0001986.jpg,absent_patch/patch0001974.jpg,,,,,,,,,,,,,,,,,,,,0.056481481,0.134259259,1,0,0,response1disk,13,0.00462963,0.001851852,1,0,0,center_square,0,12,12,25,1,,,,,,,,,,,,,,,,,,,,,,,
405845,001,2022-11-21_24h49.16.872,Info_measure_main_exp,2022.2.2,Win32,59.62673663,,,,,,,,,,,,,,,,,,masks/mask_003.jpg,,,,,,,,,,,,,,,,,,,,,,,,,,,,,,,,,,,,,,,,,,,0,0,0,2,1,,,,,,,,,,,,,,,,,,,,,,,,,,,,,,,,,,,,,,,,,,,,,,
405845,001,2022-11-21_24h49.16.872,Info_measure_main_exp,2022.2.2,Win32,59.62673663,,,,,,,,,,,,,,,,,,masks/mask_002.jpg,,,,,,,,,,,,,,,,,,,,,,,,,,,,,,,,,,,,,,,,,,,0,1,1,1,1,,,,,,,,,,,,,,,,,,,,,,,,,,,,,,,,,,,,,,,,,,,,,,
405845,001,2022-11-21_24h49.16.872,Info_measure_main_exp,2022.2.2,Win32,59.62673663,,,,,,,,,,,,,,,,,,masks/mask_004.jpg,,,,,,,,,,,,,,,,,,,,,,,,,,,,,,,,,,,,,,,,,,,0,2,2,3,1,,,,,,,,,,,,,,,,,,,,,,,,,,,,,,,,,,,,,,,,,,,,,,
405845,001,2022-11-21_24h49.16.872,Info_measure_main_exp,2022.2.2,Win32,59.62673663,,,,,,,,,,,,,,,,,,masks/mask_001.jpg,,,,,,,,,,,,,,,,,,,,,,,,,,,,,,,,,,,,,,,,,,,0,3,3,0,1,,,,,,,,,,,,,,,,,,,,,,,,,,,,,,,,,,,,,,,,,,,,,,
405845,001,2022-11-21_24h49.16.872,Info_measure_main_exp,2022.2.2,Win32,59.62673663,,,,,,,,,,,,,,,,,,masks/mask_005.jpg,,,,,,,,,,,,,,,,,,,,,,,,,,,,,,,,,,,,,,,,,,,0,4,4,4,1,,,,,,,,,,,,,,,,,,,,,,,,,,,,,,,,,,,,,,,,,,,,,,
405845,001,2022-11-21_24h49.16.872,Info_measure_main_exp,2022.2.2,Win32,59.62673663,,,,,,,,,,,,,,,,,,masks/mask_005.jpg,,,,,,,,,,,,,,,,,,,,,,,,,,,,,,,,,,,,,,,,,,,,,,,,0,0,0,4,1,,,,,,,,,,,,,,,,,,,,,,,,,,,,,,,,,,,,,,,,,
405845,001,2022-11-21_24h49.16.872,Info_measure_main_exp,2022.2.2,Win32,59.62673663,,,,,,,,,,,,,,,,,,masks/mask_004.jpg,,,,,,,,,,,,,,,,,,,,,,,,,,,,,,,,,,,,,,,,,,,,,,,,0,1,1,3,1,,,,,,,,,,,,,,,,,,,,,,,,,,,,,,,,,,,,,,,,,
405845,001,2022-11-21_24h49.16.872,Info_measure_main_exp,2022.2.2,Win32,59.62673663,,,,,,,,,,,,,,,,,,masks/mask_003.jpg,,,,,,,,,,,,,,,,,,,,,,,,,,,,,,,,,,,,,,,,,,,,,,,,0,2,2,2,1,,,,,,,,,,,,,,,,,,,,,,,,,,,,,,,,,,,,,,,,,
405845,001,2022-11-21_24h49.16.872,Info_measure_main_exp,2022.2.2,Win32,59.62673663,,,,,,,,,,,,,,,,,,masks/mask_001.jpg,,,,,,,,,,,,,,,,,,,,,,,,,,,,,,,,,,,,,,,,,,,,,,,,0,3,3,0,1,,,,,,,,,,,,,,,,,,,,,,,,,,,,,,,,,,,,,,,,,
405845,001,2022-11-21_24h49.16.872,Info_measure_main_exp,2022.2.2,Win32,59.62673663,,,,,,,,,,,,,,,,,,masks/mask_002.jpg,,,,,,,,,,,,,,,,,,,,,,,,,,,,,,,,,,,,,,,,,,,,,,,,0,4,4,1,1,,,,,,,,,,,,,,,,,,,,,,,,,,,,,,,,,,,,,,,,,
405845,001,2022-11-21_24h49.16.872,Info_measure_main_exp,2022.2.2,Win32,59.62673663,,,,,,,,,,,,,,,,,,,,,,,,,,,,,,7,1.0821,1,,,,,,,,,,,,0,131,5,5,1974,2166,absent_patch/patch0001974.jpg,absent_patch/patch0002166.jpg,,,,,,,,,,,,,,,,,,,,0.072222222,0.12962963,1,0,0,response1disk,14,0.013888889,0.010185185,1,0,0,center_square,0,13,13,77,1,,,,,,,,,,,,,,,,,,,,,,,
405845,001,2022-11-21_24h49.16.872,Info_measure_main_exp,2022.2.2,Win32,59.62673663,,,,,,,,,,,,,,,,,,masks/mask_001.jpg,,,,,,,,,,,,,,,,,,,,,,,,,,,,,,,,,,,,,,,,,,,0,0,0,0,1,,,,,,,,,,,,,,,,,,,,,,,,,,,,,,,,,,,,,,,,,,,,,,
405845,001,2022-11-21_24h49.16.872,Info_measure_main_exp,2022.2.2,Win32,59.62673663,,,,,,,,,,,,,,,,,,masks/mask_003.jpg,,,,,,,,,,,,,,,,,,,,,,,,,,,,,,,,,,,,,,,,,,,0,1,1,2,1,,,,,,,,,,,,,,,,,,,,,,,,,,,,,,,,,,,,,,,,,,,,,,
405845,001,2022-11-21_24h49.16.872,Info_measure_main_exp,2022.2.2,Win32,59.62673663,,,,,,,,,,,,,,,,,,masks/mask_002.jpg,,,,,,,,,,,,,,,,,,,,,,,,,,,,,,,,,,,,,,,,,,,0,2,2,1,1,,,,,,,,,,,,,,,,,,,,,,,,,,,,,,,,,,,,,,,,,,,,,,
405845,001,2022-11-21_24h49.16.872,Info_measure_main_exp,2022.2.2,Win32,59.62673663,,,,,,,,,,,,,,,,,,masks/mask_005.jpg,,,,,,,,,,,,,,,,,,,,,,,,,,,,,,,,,,,,,,,,,,,0,3,3,4,1,,,,,,,,,,,,,,,,,,,,,,,,,,,,,,,,,,,,,,,,,,,,,,
405845,001,2022-11-21_24h49.16.872,Info_measure_main_exp,2022.2.2,Win32,59.62673663,,,,,,,,,,,,,,,,,,masks/mask_004.jpg,,,,,,,,,,,,,,,,,,,,,,,,,,,,,,,,,,,,,,,,,,,0,4,4,3,1,,,,,,,,,,,,,,,,,,,,,,,,,,,,,,,,,,,,,,,,,,,,,,
405845,001,2022-11-21_24h49.16.872,Info_measure_main_exp,2022.2.2,Win32,59.62673663,,,,,,,,,,,,,,,,,,masks/mask_002.jpg,,,,,,,,,,,,,,,,,,,,,,,,,,,,,,,,,,,,,,,,,,,,,,,,0,0,0,1,1,,,,,,,,,,,,,,,,,,,,,,,,,,,,,,,,,,,,,,,,,
405845,001,2022-11-21_24h49.16.872,Info_measure_main_exp,2022.2.2,Win32,59.62673663,,,,,,,,,,,,,,,,,,masks/mask_004.jpg,,,,,,,,,,,,,,,,,,,,,,,,,,,,,,,,,,,,,,,,,,,,,,,,0,1,1,3,1,,,,,,,,,,,,,,,,,,,,,,,,,,,,,,,,,,,,,,,,,
405845,001,2022-11-21_24h49.16.872,Info_measure_main_exp,2022.2.2,Win32,59.62673663,,,,,,,,,,,,,,,,,,masks/mask_003.jpg,,,,,,,,,,,,,,,,,,,,,,,,,,,,,,,,,,,,,,,,,,,,,,,,0,2,2,2,1,,,,,,,,,,,,,,,,,,,,,,,,,,,,,,,,,,,,,,,,,
405845,001,2022-11-21_24h49.16.872,Info_measure_main_exp,2022.2.2,Win32,59.62673663,,,,,,,,,,,,,,,,,,masks/mask_005.jpg,,,,,,,,,,,,,,,,,,,,,,,,,,,,,,,,,,,,,,,,,,,,,,,,0,3,3,4,1,,,,,,,,,,,,,,,,,,,,,,,,,,,,,,,,,,,,,,,,,
405845,001,2022-11-21_24h49.16.872,Info_measure_main_exp,2022.2.2,Win32,59.62673663,,,,,,,,,,,,,,,,,,masks/mask_001.jpg,,,,,,,,,,,,,,,,,,,,,,,,,,,,,,,,,,,,,,,,,,,,,,,,0,4,4,0,1,,,,,,,,,,,,,,,,,,,,,,,,,,,,,,,,,,,,,,,,,
405845,001,2022-11-21_24h49.16.872,Info_measure_main_exp,2022.2.2,Win32,59.62673663,,,,,,,,,,,,,,,,,,,,,,,,,,,,,,0,0.7991,1,,,,,,,,,,,,0,131,5,5,2214,2214,absent_patch/patch0002214.jpg,absent_patch/patch0002214.jpg,,,,,,,,,,,,,,,,,,,,-0.059259259,0.143518519,1,0,0,response7disk,15,0.000925926,-0.002777778,1,0,0,center_square,0,14,14,115,1,,,,,,,,,,,,,,,,,,,,,,,
405845,001,2022-11-21_24h49.16.872,Info_measure_main_exp,2022.2.2,Win32,59.62673663,,,,,,,,,,,,,,,,,,masks/mask_004.jpg,,,,,,,,,,,,,,,,,,,,,,,,,,,,,,,,,,,,,,,,,,,0,0,0,3,1,,,,,,,,,,,,,,,,,,,,,,,,,,,,,,,,,,,,,,,,,,,,,,
405845,001,2022-11-21_24h49.16.872,Info_measure_main_exp,2022.2.2,Win32,59.62673663,,,,,,,,,,,,,,,,,,masks/mask_002.jpg,,,,,,,,,,,,,,,,,,,,,,,,,,,,,,,,,,,,,,,,,,,0,1,1,1,1,,,,,,,,,,,,,,,,,,,,,,,,,,,,,,,,,,,,,,,,,,,,,,
405845,001,2022-11-21_24h49.16.872,Info_measure_main_exp,2022.2.2,Win32,59.62673663,,,,,,,,,,,,,,,,,,masks/mask_005.jpg,,,,,,,,,,,,,,,,,,,,,,,,,,,,,,,,,,,,,,,,,,,0,2,2,4,1,,,,,,,,,,,,,,,,,,,,,,,,,,,,,,,,,,,,,,,,,,,,,,
405845,001,2022-11-21_24h49.16.872,Info_measure_main_exp,2022.2.2,Win32,59.62673663,,,,,,,,,,,,,,,,,,masks/mask_003.jpg,,,,,,,,,,,,,,,,,,,,,,,,,,,,,,,,,,,,,,,,,,,0,3,3,2,1,,,,,,,,,,,,,,,,,,,,,,,,,,,,,,,,,,,,,,,,,,,,,,
405845,001,2022-11-21_24h49.16.872,Info_measure_main_exp,2022.2.2,Win32,59.62673663,,,,,,,,,,,,,,,,,,masks/mask_001.jpg,,,,,,,,,,,,,,,,,,,,,,,,,,,,,,,,,,,,,,,,,,,0,4,4,0,1,,,,,,,,,,,,,,,,,,,,,,,,,,,,,,,,,,,,,,,,,,,,,,
405845,001,2022-11-21_24h49.16.872,Info_measure_main_exp,2022.2.2,Win32,59.62673663,,,,,,,,,,,,,,,,,,masks/mask_003.jpg,,,,,,,,,,,,,,,,,,,,,,,,,,,,,,,,,,,,,,,,,,,,,,,,0,0,0,2,1,,,,,,,,,,,,,,,,,,,,,,,,,,,,,,,,,,,,,,,,,
405845,001,2022-11-21_24h49.16.872,Info_measure_main_exp,2022.2.2,Win32,59.62673663,,,,,,,,,,,,,,,,,,masks/mask_004.jpg,,,,,,,,,,,,,,,,,,,,,,,,,,,,,,,,,,,,,,,,,,,,,,,,0,1,1,3,1,,,,,,,,,,,,,,,,,,,,,,,,,,,,,,,,,,,,,,,,,
405845,001,2022-11-21_24h49.16.872,Info_measure_main_exp,2022.2.2,Win32,59.62673663,,,,,,,,,,,,,,,,,,masks/mask_001.jpg,,,,,,,,,,,,,,,,,,,,,,,,,,,,,,,,,,,,,,,,,,,,,,,,0,2,2,0,1,,,,,,,,,,,,,,,,,,,,,,,,,,,,,,,,,,,,,,,,,
405845,001,2022-11-21_24h49.16.872,Info_measure_main_exp,2022.2.2,Win32,59.62673663,,,,,,,,,,,,,,,,,,masks/mask_002.jpg,,,,,,,,,,,,,,,,,,,,,,,,,,,,,,,,,,,,,,,,,,,,,,,,0,3,3,1,1,,,,,,,,,,,,,,,,,,,,,,,,,,,,,,,,,,,,,,,,,
405845,001,2022-11-21_24h49.16.872,Info_measure_main_exp,2022.2.2,Win32,59.62673663,,,,,,,,,,,,,,,,,,masks/mask_005.jpg,,,,,,,,,,,,,,,,,,,,,,,,,,,,,,,,,,,,,,,,,,,,,,,,0,4,4,4,1,,,,,,,,,,,,,,,,,,,,,,,,,,,,,,,,,,,,,,,,,
405845,001,2022-11-21_24h49.16.872,Info_measure_main_exp,2022.2.2,Win32,59.62673663,,,,,,,,,,,,,,,,,,,,,,,,,,,,,,7,1.9843,1,,,,,,,,,,,,0,131,5,5,2238,2166,absent_patch/patch0002238.jpg,absent_patch/patch0002166.jpg,,,,,,,,,,,,,,,,,,,,0.049074074,0.188888889,1,0,0,response1disk,16,0.003703704,-0.011111111,1,0,0,center_square,0,15,15,118,1,,,,,,,,,,,,,,,,,,,,,,,
405845,001,2022-11-21_24h49.16.872,Info_measure_main_exp,2022.2.2,Win32,59.62673663,,,,,,,,,,,,,,,,,,masks/mask_004.jpg,,,,,,,,,,,,,,,,,,,,,,,,,,,,,,,,,,,,,,,,,,,0,0,0,3,1,,,,,,,,,,,,,,,,,,,,,,,,,,,,,,,,,,,,,,,,,,,,,,
405845,001,2022-11-21_24h49.16.872,Info_measure_main_exp,2022.2.2,Win32,59.62673663,,,,,,,,,,,,,,,,,,masks/mask_002.jpg,,,,,,,,,,,,,,,,,,,,,,,,,,,,,,,,,,,,,,,,,,,0,1,1,1,1,,,,,,,,,,,,,,,,,,,,,,,,,,,,,,,,,,,,,,,,,,,,,,
405845,001,2022-11-21_24h49.16.872,Info_measure_main_exp,2022.2.2,Win32,59.62673663,,,,,,,,,,,,,,,,,,masks/mask_001.jpg,,,,,,,,,,,,,,,,,,,,,,,,,,,,,,,,,,,,,,,,,,,0,2,2,0,1,,,,,,,,,,,,,,,,,,,,,,,,,,,,,,,,,,,,,,,,,,,,,,
405845,001,2022-11-21_24h49.16.872,Info_measure_main_exp,2022.2.2,Win32,59.62673663,,,,,,,,,,,,,,,,,,masks/mask_005.jpg,,,,,,,,,,,,,,,,,,,,,,,,,,,,,,,,,,,,,,,,,,,0,3,3,4,1,,,,,,,,,,,,,,,,,,,,,,,,,,,,,,,,,,,,,,,,,,,,,,
405845,001,2022-11-21_24h49.16.872,Info_measure_main_exp,2022.2.2,Win32,59.62673663,,,,,,,,,,,,,,,,,,masks/mask_003.jpg,,,,,,,,,,,,,,,,,,,,,,,,,,,,,,,,,,,,,,,,,,,0,4,4,2,1,,,,,,,,,,,,,,,,,,,,,,,,,,,,,,,,,,,,,,,,,,,,,,
405845,001,2022-11-21_24h49.16.872,Info_measure_main_exp,2022.2.2,Win32,59.62673663,,,,,,,,,,,,,,,,,,masks/mask_005.jpg,,,,,,,,,,,,,,,,,,,,,,,,,,,,,,,,,,,,,,,,,,,,,,,,0,0,0,4,1,,,,,,,,,,,,,,,,,,,,,,,,,,,,,,,,,,,,,,,,,
405845,001,2022-11-21_24h49.16.872,Info_measure_main_exp,2022.2.2,Win32,59.62673663,,,,,,,,,,,,,,,,,,masks/mask_003.jpg,,,,,,,,,,,,,,,,,,,,,,,,,,,,,,,,,,,,,,,,,,,,,,,,0,1,1,2,1,,,,,,,,,,,,,,,,,,,,,,,,,,,,,,,,,,,,,,,,,
405845,001,2022-11-21_24h49.16.872,Info_measure_main_exp,2022.2.2,Win32,59.62673663,,,,,,,,,,,,,,,,,,masks/mask_002.jpg,,,,,,,,,,,,,,,,,,,,,,,,,,,,,,,,,,,,,,,,,,,,,,,,0,2,2,1,1,,,,,,,,,,,,,,,,,,,,,,,,,,,,,,,,,,,,,,,,,
405845,001,2022-11-21_24h49.16.872,Info_measure_main_exp,2022.2.2,Win32,59.62673663,,,,,,,,,,,,,,,,,,masks/mask_001.jpg,,,,,,,,,,,,,,,,,,,,,,,,,,,,,,,,,,,,,,,,,,,,,,,,0,3,3,0,1,,,,,,,,,,,,,,,,,,,,,,,,,,,,,,,,,,,,,,,,,
405845,001,2022-11-21_24h49.16.872,Info_measure_main_exp,2022.2.2,Win32,59.62673663,,,,,,,,,,,,,,,,,,masks/mask_004.jpg,,,,,,,,,,,,,,,,,,,,,,,,,,,,,,,,,,,,,,,,,,,,,,,,0,4,4,3,1,,,,,,,,,,,,,,,,,,,,,,,,,,,,,,,,,,,,,,,,,
405845,001,2022-11-21_24h49.16.872,Info_measure_main_exp,2022.2.2,Win32,59.62673663,,,,,,,,,,,,,,,,,,,,,,,,,,,,,,7,0.633,1,,,,,,,,,,,,0,131,5,5,2154,2298,absent_patch/patch0002154.jpg,absent_patch/patch0002298.jpg,,,,,,,,,,,,,,,,,,,,0.063888889,0.140740741,1,0,0,response1disk,17,0.003703704,-0.00462963,1,0,0,center_square,0,16,16,27,1,,,,,,,,,,,,,,,,,,,,,,,
405845,001,2022-11-21_24h49.16.872,Info_measure_main_exp,2022.2.2,Win32,59.62673663,,,,,,,,,,,,,,,,,,masks/mask_002.jpg,,,,,,,,,,,,,,,,,,,,,,,,,,,,,,,,,,,,,,,,,,,0,0,0,1,1,,,,,,,,,,,,,,,,,,,,,,,,,,,,,,,,,,,,,,,,,,,,,,
405845,001,2022-11-21_24h49.16.872,Info_measure_main_exp,2022.2.2,Win32,59.62673663,,,,,,,,,,,,,,,,,,masks/mask_001.jpg,,,,,,,,,,,,,,,,,,,,,,,,,,,,,,,,,,,,,,,,,,,0,1,1,0,1,,,,,,,,,,,,,,,,,,,,,,,,,,,,,,,,,,,,,,,,,,,,,,
405845,001,2022-11-21_24h49.16.872,Info_measure_main_exp,2022.2.2,Win32,59.62673663,,,,,,,,,,,,,,,,,,masks/mask_003.jpg,,,,,,,,,,,,,,,,,,,,,,,,,,,,,,,,,,,,,,,,,,,0,2,2,2,1,,,,,,,,,,,,,,,,,,,,,,,,,,,,,,,,,,,,,,,,,,,,,,
405845,001,2022-11-21_24h49.16.872,Info_measure_main_exp,2022.2.2,Win32,59.62673663,,,,,,,,,,,,,,,,,,masks/mask_005.jpg,,,,,,,,,,,,,,,,,,,,,,,,,,,,,,,,,,,,,,,,,,,0,3,3,4,1,,,,,,,,,,,,,,,,,,,,,,,,,,,,,,,,,,,,,,,,,,,,,,
405845,001,2022-11-21_24h49.16.872,Info_measure_main_exp,2022.2.2,Win32,59.62673663,,,,,,,,,,,,,,,,,,masks/mask_004.jpg,,,,,,,,,,,,,,,,,,,,,,,,,,,,,,,,,,,,,,,,,,,0,4,4,3,1,,,,,,,,,,,,,,,,,,,,,,,,,,,,,,,,,,,,,,,,,,,,,,
405845,001,2022-11-21_24h49.16.872,Info_measure_main_exp,2022.2.2,Win32,59.62673663,,,,,,,,,,,,,,,,,,masks/mask_005.jpg,,,,,,,,,,,,,,,,,,,,,,,,,,,,,,,,,,,,,,,,,,,,,,,,0,0,0,4,1,,,,,,,,,,,,,,,,,,,,,,,,,,,,,,,,,,,,,,,,,
405845,001,2022-11-21_24h49.16.872,Info_measure_main_exp,2022.2.2,Win32,59.62673663,,,,,,,,,,,,,,,,,,masks/mask_003.jpg,,,,,,,,,,,,,,,,,,,,,,,,,,,,,,,,,,,,,,,,,,,,,,,,0,1,1,2,1,,,,,,,,,,,,,,,,,,,,,,,,,,,,,,,,,,,,,,,,,
405845,001,2022-11-21_24h49.16.872,Info_measure_main_exp,2022.2.2,Win32,59.62673663,,,,,,,,,,,,,,,,,,masks/mask_002.jpg,,,,,,,,,,,,,,,,,,,,,,,,,,,,,,,,,,,,,,,,,,,,,,,,0,2,2,1,1,,,,,,,,,,,,,,,,,,,,,,,,,,,,,,,,,,,,,,,,,
405845,001,2022-11-21_24h49.16.872,Info_measure_main_exp,2022.2.2,Win32,59.62673663,,,,,,,,,,,,,,,,,,masks/mask_004.jpg,,,,,,,,,,,,,,,,,,,,,,,,,,,,,,,,,,,,,,,,,,,,,,,,0,3,3,3,1,,,,,,,,,,,,,,,,,,,,,,,,,,,,,,,,,,,,,,,,,
405845,001,2022-11-21_24h49.16.872,Info_measure_main_exp,2022.2.2,Win32,59.62673663,,,,,,,,,,,,,,,,,,masks/mask_001.jpg,,,,,,,,,,,,,,,,,,,,,,,,,,,,,,,,,,,,,,,,,,,,,,,,0,4,4,0,1,,,,,,,,,,,,,,,,,,,,,,,,,,,,,,,,,,,,,,,,,
405845,001,2022-11-21_24h49.16.872,Info_measure_main_exp,2022.2.2,Win32,59.62673663,,,,,,,,,,,,,,,,,,,,,,,,,,,,,,5,1.4499,1,,,,,,,,,,,,0,131,5,5,2142,2082,absent_patch/patch0002142.jpg,absent_patch/patch0002082.jpg,,,,,,,,,,,,,,,,,,,,0.146296296,-0.072222222,1,0,0,response3disk,18,0.003703704,0.002777778,1,0,0,center_square,0,17,17,88,1,,,,,,,,,,,,,,,,,,,,,,,
405845,001,2022-11-21_24h49.16.872,Info_measure_main_exp,2022.2.2,Win32,59.62673663,,,,,,,,,,,,,,,,,,masks/mask_001.jpg,,,,,,,,,,,,,,,,,,,,,,,,,,,,,,,,,,,,,,,,,,,0,0,0,0,1,,,,,,,,,,,,,,,,,,,,,,,,,,,,,,,,,,,,,,,,,,,,,,
405845,001,2022-11-21_24h49.16.872,Info_measure_main_exp,2022.2.2,Win32,59.62673663,,,,,,,,,,,,,,,,,,masks/mask_002.jpg,,,,,,,,,,,,,,,,,,,,,,,,,,,,,,,,,,,,,,,,,,,0,1,1,1,1,,,,,,,,,,,,,,,,,,,,,,,,,,,,,,,,,,,,,,,,,,,,,,
405845,001,2022-11-21_24h49.16.872,Info_measure_main_exp,2022.2.2,Win32,59.62673663,,,,,,,,,,,,,,,,,,masks/mask_003.jpg,,,,,,,,,,,,,,,,,,,,,,,,,,,,,,,,,,,,,,,,,,,0,2,2,2,1,,,,,,,,,,,,,,,,,,,,,,,,,,,,,,,,,,,,,,,,,,,,,,
405845,001,2022-11-21_24h49.16.872,Info_measure_main_exp,2022.2.2,Win32,59.62673663,,,,,,,,,,,,,,,,,,masks/mask_005.jpg,,,,,,,,,,,,,,,,,,,,,,,,,,,,,,,,,,,,,,,,,,,0,3,3,4,1,,,,,,,,,,,,,,,,,,,,,,,,,,,,,,,,,,,,,,,,,,,,,,
405845,001,2022-11-21_24h49.16.872,Info_measure_main_exp,2022.2.2,Win32,59.62673663,,,,,,,,,,,,,,,,,,masks/mask_004.jpg,,,,,,,,,,,,,,,,,,,,,,,,,,,,,,,,,,,,,,,,,,,0,4,4,3,1,,,,,,,,,,,,,,,,,,,,,,,,,,,,,,,,,,,,,,,,,,,,,,
405845,001,2022-11-21_24h49.16.872,Info_measure_main_exp,2022.2.2,Win32,59.62673663,,,,,,,,,,,,,,,,,,masks/mask_001.jpg,,,,,,,,,,,,,,,,,,,,,,,,,,,,,,,,,,,,,,,,,,,,,,,,0,0,0,0,1,,,,,,,,,,,,,,,,,,,,,,,,,,,,,,,,,,,,,,,,,
405845,001,2022-11-21_24h49.16.872,Info_measure_main_exp,2022.2.2,Win32,59.62673663,,,,,,,,,,,,,,,,,,masks/mask_005.jpg,,,,,,,,,,,,,,,,,,,,,,,,,,,,,,,,,,,,,,,,,,,,,,,,0,1,1,4,1,,,,,,,,,,,,,,,,,,,,,,,,,,,,,,,,,,,,,,,,,
405845,001,2022-11-21_24h49.16.872,Info_measure_main_exp,2022.2.2,Win32,59.62673663,,,,,,,,,,,,,,,,,,masks/mask_002.jpg,,,,,,,,,,,,,,,,,,,,,,,,,,,,,,,,,,,,,,,,,,,,,,,,0,2,2,1,1,,,,,,,,,,,,,,,,,,,,,,,,,,,,,,,,,,,,,,,,,
405845,001,2022-11-21_24h49.16.872,Info_measure_main_exp,2022.2.2,Win32,59.62673663,,,,,,,,,,,,,,,,,,masks/mask_004.jpg,,,,,,,,,,,,,,,,,,,,,,,,,,,,,,,,,,,,,,,,,,,,,,,,0,3,3,3,1,,,,,,,,,,,,,,,,,,,,,,,,,,,,,,,,,,,,,,,,,
405845,001,2022-11-21_24h49.16.872,Info_measure_main_exp,2022.2.2,Win32,59.62673663,,,,,,,,,,,,,,,,,,masks/mask_003.jpg,,,,,,,,,,,,,,,,,,,,,,,,,,,,,,,,,,,,,,,,,,,,,,,,0,4,4,2,1,,,,,,,,,,,,,,,,,,,,,,,,,,,,,,,,,,,,,,,,,
405845,001,2022-11-21_24h49.16.872,Info_measure_main_exp,2022.2.2,Win32,59.62673663,,,,,,,,,,,,,,,,,,,,,,,,,,,,,,5,0.8833,1,,,,,,,,,,,,0,131,5,5,2274,2166,absent_patch/patch0002274.jpg,absent_patch/patch0002166.jpg,,,,,,,,,,,,,,,,,,,,0.136111111,-0.053703704,1,0,0,response3disk,19,0.012962963,-0.000925926,1,0,0,center_square,0,18,18,78,1,,,,,,,,,,,,,,,,,,,,,,,
405845,001,2022-11-21_24h49.16.872,Info_measure_main_exp,2022.2.2,Win32,59.62673663,,,,,,,,,,,,,,,,,,masks/mask_003.jpg,,,,,,,,,,,,,,,,,,,,,,,,,,,,,,,,,,,,,,,,,,,0,0,0,2,1,,,,,,,,,,,,,,,,,,,,,,,,,,,,,,,,,,,,,,,,,,,,,,
405845,001,2022-11-21_24h49.16.872,Info_measure_main_exp,2022.2.2,Win32,59.62673663,,,,,,,,,,,,,,,,,,masks/mask_004.jpg,,,,,,,,,,,,,,,,,,,,,,,,,,,,,,,,,,,,,,,,,,,0,1,1,3,1,,,,,,,,,,,,,,,,,,,,,,,,,,,,,,,,,,,,,,,,,,,,,,
405845,001,2022-11-21_24h49.16.872,Info_measure_main_exp,2022.2.2,Win32,59.62673663,,,,,,,,,,,,,,,,,,masks/mask_001.jpg,,,,,,,,,,,,,,,,,,,,,,,,,,,,,,,,,,,,,,,,,,,0,2,2,0,1,,,,,,,,,,,,,,,,,,,,,,,,,,,,,,,,,,,,,,,,,,,,,,
405845,001,2022-11-21_24h49.16.872,Info_measure_main_exp,2022.2.2,Win32,59.62673663,,,,,,,,,,,,,,,,,,masks/mask_005.jpg,,,,,,,,,,,,,,,,,,,,,,,,,,,,,,,,,,,,,,,,,,,0,3,3,4,1,,,,,,,,,,,,,,,,,,,,,,,,,,,,,,,,,,,,,,,,,,,,,,
405845,001,2022-11-21_24h49.16.872,Info_measure_main_exp,2022.2.2,Win32,59.62673663,,,,,,,,,,,,,,,,,,masks/mask_002.jpg,,,,,,,,,,,,,,,,,,,,,,,,,,,,,,,,,,,,,,,,,,,0,4,4,1,1,,,,,,,,,,,,,,,,,,,,,,,,,,,,,,,,,,,,,,,,,,,,,,
405845,001,2022-11-21_24h49.16.872,Info_measure_main_exp,2022.2.2,Win32,59.62673663,,,,,,,,,,,,,,,,,,masks/mask_003.jpg,,,,,,,,,,,,,,,,,,,,,,,,,,,,,,,,,,,,,,,,,,,,,,,,0,0,0,2,1,,,,,,,,,,,,,,,,,,,,,,,,,,,,,,,,,,,,,,,,,
405845,001,2022-11-21_24h49.16.872,Info_measure_main_exp,2022.2.2,Win32,59.62673663,,,,,,,,,,,,,,,,,,masks/mask_002.jpg,,,,,,,,,,,,,,,,,,,,,,,,,,,,,,,,,,,,,,,,,,,,,,,,0,1,1,1,1,,,,,,,,,,,,,,,,,,,,,,,,,,,,,,,,,,,,,,,,,
405845,001,2022-11-21_24h49.16.872,Info_measure_main_exp,2022.2.2,Win32,59.62673663,,,,,,,,,,,,,,,,,,masks/mask_004.jpg,,,,,,,,,,,,,,,,,,,,,,,,,,,,,,,,,,,,,,,,,,,,,,,,0,2,2,3,1,,,,,,,,,,,,,,,,,,,,,,,,,,,,,,,,,,,,,,,,,
405845,001,2022-11-21_24h49.16.872,Info_measure_main_exp,2022.2.2,Win32,59.62673663,,,,,,,,,,,,,,,,,,masks/mask_005.jpg,,,,,,,,,,,,,,,,,,,,,,,,,,,,,,,,,,,,,,,,,,,,,,,,0,3,3,4,1,,,,,,,,,,,,,,,,,,,,,,,,,,,,,,,,,,,,,,,,,
405845,001,2022-11-21_24h49.16.872,Info_measure_main_exp,2022.2.2,Win32,59.62673663,,,,,,,,,,,,,,,,,,masks/mask_001.jpg,,,,,,,,,,,,,,,,,,,,,,,,,,,,,,,,,,,,,,,,,,,,,,,,0,4,4,0,1,,,,,,,,,,,,,,,,,,,,,,,,,,,,,,,,,,,,,,,,,
405845,001,2022-11-21_24h49.16.872,Info_measure_main_exp,2022.2.2,Win32,59.62673663,,,,,,,,,,,,,,,,,,,,,,,,,,,,,,7,0.7001,1,,,,,,,,,,,,0,131,5,5,1950,2238,absent_patch/patch0001950.jpg,absent_patch/patch0002238.jpg,,,,,,,,,,,,,,,,,,,,0.066666667,0.146296296,1,0,0,response1disk,20,0.002777778,-0.000925926,1,0,0,center_square,0,19,19,8,1,,,,,,,,,,,,,,,,,,,,,,,
405845,001,2022-11-21_24h49.16.872,Info_measure_main_exp,2022.2.2,Win32,59.62673663,,,,,,,,,,,,,,,,,,masks/mask_002.jpg,,,,,,,,,,,,,,,,,,,,,,,,,,,,,,,,,,,,,,,,,,,0,0,0,1,1,,,,,,,,,,,,,,,,,,,,,,,,,,,,,,,,,,,,,,,,,,,,,,
405845,001,2022-11-21_24h49.16.872,Info_measure_main_exp,2022.2.2,Win32,59.62673663,,,,,,,,,,,,,,,,,,masks/mask_004.jpg,,,,,,,,,,,,,,,,,,,,,,,,,,,,,,,,,,,,,,,,,,,0,1,1,3,1,,,,,,,,,,,,,,,,,,,,,,,,,,,,,,,,,,,,,,,,,,,,,,
405845,001,2022-11-21_24h49.16.872,Info_measure_main_exp,2022.2.2,Win32,59.62673663,,,,,,,,,,,,,,,,,,masks/mask_005.jpg,,,,,,,,,,,,,,,,,,,,,,,,,,,,,,,,,,,,,,,,,,,0,2,2,4,1,,,,,,,,,,,,,,,,,,,,,,,,,,,,,,,,,,,,,,,,,,,,,,
405845,001,2022-11-21_24h49.16.872,Info_measure_main_exp,2022.2.2,Win32,59.62673663,,,,,,,,,,,,,,,,,,masks/mask_003.jpg,,,,,,,,,,,,,,,,,,,,,,,,,,,,,,,,,,,,,,,,,,,0,3,3,2,1,,,,,,,,,,,,,,,,,,,,,,,,,,,,,,,,,,,,,,,,,,,,,,
405845,001,2022-11-21_24h49.16.872,Info_measure_main_exp,2022.2.2,Win32,59.62673663,,,,,,,,,,,,,,,,,,masks/mask_001.jpg,,,,,,,,,,,,,,,,,,,,,,,,,,,,,,,,,,,,,,,,,,,0,4,4,0,1,,,,,,,,,,,,,,,,,,,,,,,,,,,,,,,,,,,,,,,,,,,,,,
405845,001,2022-11-21_24h49.16.872,Info_measure_main_exp,2022.2.2,Win32,59.62673663,,,,,,,,,,,,,,,,,,masks/mask_003.jpg,,,,,,,,,,,,,,,,,,,,,,,,,,,,,,,,,,,,,,,,,,,,,,,,0,0,0,2,1,,,,,,,,,,,,,,,,,,,,,,,,,,,,,,,,,,,,,,,,,
405845,001,2022-11-21_24h49.16.872,Info_measure_main_exp,2022.2.2,Win32,59.62673663,,,,,,,,,,,,,,,,,,masks/mask_002.jpg,,,,,,,,,,,,,,,,,,,,,,,,,,,,,,,,,,,,,,,,,,,,,,,,0,1,1,1,1,,,,,,,,,,,,,,,,,,,,,,,,,,,,,,,,,,,,,,,,,
405845,001,2022-11-21_24h49.16.872,Info_measure_main_exp,2022.2.2,Win32,59.62673663,,,,,,,,,,,,,,,,,,masks/mask_005.jpg,,,,,,,,,,,,,,,,,,,,,,,,,,,,,,,,,,,,,,,,,,,,,,,,0,2,2,4,1,,,,,,,,,,,,,,,,,,,,,,,,,,,,,,,,,,,,,,,,,
405845,001,2022-11-21_24h49.16.872,Info_measure_main_exp,2022.2.2,Win32,59.62673663,,,,,,,,,,,,,,,,,,masks/mask_001.jpg,,,,,,,,,,,,,,,,,,,,,,,,,,,,,,,,,,,,,,,,,,,,,,,,0,3,3,0,1,,,,,,,,,,,,,,,,,,,,,,,,,,,,,,,,,,,,,,,,,
405845,001,2022-11-21_24h49.16.872,Info_measure_main_exp,2022.2.2,Win32,59.62673663,,,,,,,,,,,,,,,,,,masks/mask_004.jpg,,,,,,,,,,,,,,,,,,,,,,,,,,,,,,,,,,,,,,,,,,,,,,,,0,4,4,3,1,,,,,,,,,,,,,,,,,,,,,,,,,,,,,,,,,,,,,,,,,
405845,001,2022-11-21_24h49.16.872,Info_measure_main_exp,2022.2.2,Win32,59.62673663,,,,,,,,,,,,,,,,,,,,,,,,,,,,,,4,5.3,1,,,,,,,,,,,,0,131,5,5,2274,2142,absent_patch/patch0002274.jpg,absent_patch/patch0002142.jpg,,,,,,,,,,,,,,,,,,,,0.025,-0.077777778,1,0,0,response3disk,21,-0.012037037,0.006481481,1,0,0,center_square,0,20,20,75,1,,,,,,,,,,,,,,,,,,,,,,,
405845,001,2022-11-21_24h49.16.872,Info_measure_main_exp,2022.2.2,Win32,59.62673663,,,,,,,,,,,,,,,,,,masks/mask_004.jpg,,,,,,,,,,,,,,,,,,,,,,,,,,,,,,,,,,,,,,,,,,,0,0,0,3,1,,,,,,,,,,,,,,,,,,,,,,,,,,,,,,,,,,,,,,,,,,,,,,
405845,001,2022-11-21_24h49.16.872,Info_measure_main_exp,2022.2.2,Win32,59.62673663,,,,,,,,,,,,,,,,,,masks/mask_003.jpg,,,,,,,,,,,,,,,,,,,,,,,,,,,,,,,,,,,,,,,,,,,0,1,1,2,1,,,,,,,,,,,,,,,,,,,,,,,,,,,,,,,,,,,,,,,,,,,,,,
405845,001,2022-11-21_24h49.16.872,Info_measure_main_exp,2022.2.2,Win32,59.62673663,,,,,,,,,,,,,,,,,,masks/mask_005.jpg,,,,,,,,,,,,,,,,,,,,,,,,,,,,,,,,,,,,,,,,,,,0,2,2,4,1,,,,,,,,,,,,,,,,,,,,,,,,,,,,,,,,,,,,,,,,,,,,,,
405845,001,2022-11-21_24h49.16.872,Info_measure_main_exp,2022.2.2,Win32,59.62673663,,,,,,,,,,,,,,,,,,masks/mask_001.jpg,,,,,,,,,,,,,,,,,,,,,,,,,,,,,,,,,,,,,,,,,,,0,3,3,0,1,,,,,,,,,,,,,,,,,,,,,,,,,,,,,,,,,,,,,,,,,,,,,,
405845,001,2022-11-21_24h49.16.872,Info_measure_main_exp,2022.2.2,Win32,59.62673663,,,,,,,,,,,,,,,,,,masks/mask_002.jpg,,,,,,,,,,,,,,,,,,,,,,,,,,,,,,,,,,,,,,,,,,,0,4,4,1,1,,,,,,,,,,,,,,,,,,,,,,,,,,,,,,,,,,,,,,,,,,,,,,
405845,001,2022-11-21_24h49.16.872,Info_measure_main_exp,2022.2.2,Win32,59.62673663,,,,,,,,,,,,,,,,,,masks/mask_005.jpg,,,,,,,,,,,,,,,,,,,,,,,,,,,,,,,,,,,,,,,,,,,,,,,,0,0,0,4,1,,,,,,,,,,,,,,,,,,,,,,,,,,,,,,,,,,,,,,,,,
405845,001,2022-11-21_24h49.16.872,Info_measure_main_exp,2022.2.2,Win32,59.62673663,,,,,,,,,,,,,,,,,,masks/mask_002.jpg,,,,,,,,,,,,,,,,,,,,,,,,,,,,,,,,,,,,,,,,,,,,,,,,0,1,1,1,1,,,,,,,,,,,,,,,,,,,,,,,,,,,,,,,,,,,,,,,,,
405845,001,2022-11-21_24h49.16.872,Info_measure_main_exp,2022.2.2,Win32,59.62673663,,,,,,,,,,,,,,,,,,masks/mask_001.jpg,,,,,,,,,,,,,,,,,,,,,,,,,,,,,,,,,,,,,,,,,,,,,,,,0,2,2,0,1,,,,,,,,,,,,,,,,,,,,,,,,,,,,,,,,,,,,,,,,,
405845,001,2022-11-21_24h49.16.872,Info_measure_main_exp,2022.2.2,Win32,59.62673663,,,,,,,,,,,,,,,,,,masks/mask_004.jpg,,,,,,,,,,,,,,,,,,,,,,,,,,,,,,,,,,,,,,,,,,,,,,,,0,3,3,3,1,,,,,,,,,,,,,,,,,,,,,,,,,,,,,,,,,,,,,,,,,
405845,001,2022-11-21_24h49.16.872,Info_measure_main_exp,2022.2.2,Win32,59.62673663,,,,,,,,,,,,,,,,,,masks/mask_003.jpg,,,,,,,,,,,,,,,,,,,,,,,,,,,,,,,,,,,,,,,,,,,,,,,,0,4,4,2,1,,,,,,,,,,,,,,,,,,,,,,,,,,,,,,,,,,,,,,,,,
405845,001,2022-11-21_24h49.16.872,Info_measure_main_exp,2022.2.2,Win32,59.62673663,,,,,,,,,,,,,,,,,,,,,,,,,,,,,,7,0.7335,1,,,,,,,,,,,,0,131,5,5,2190,1974,absent_patch/patch0002190.jpg,absent_patch/patch0001974.jpg,,,,,,,,,,,,,,,,,,,,0.039814815,0.112037037,1,0,0,response1disk,22,0,0.00462963,1,0,0,center_square,0,21,21,119,1,,,,,,,,,,,,,,,,,,,,,,,
405845,001,2022-11-21_24h49.16.872,Info_measure_main_exp,2022.2.2,Win32,59.62673663,,,,,,,,,,,,,,,,,,masks/mask_001.jpg,,,,,,,,,,,,,,,,,,,,,,,,,,,,,,,,,,,,,,,,,,,0,0,0,0,1,,,,,,,,,,,,,,,,,,,,,,,,,,,,,,,,,,,,,,,,,,,,,,
405845,001,2022-11-21_24h49.16.872,Info_measure_main_exp,2022.2.2,Win32,59.62673663,,,,,,,,,,,,,,,,,,masks/mask_003.jpg,,,,,,,,,,,,,,,,,,,,,,,,,,,,,,,,,,,,,,,,,,,0,1,1,2,1,,,,,,,,,,,,,,,,,,,,,,,,,,,,,,,,,,,,,,,,,,,,,,
405845,001,2022-11-21_24h49.16.872,Info_measure_main_exp,2022.2.2,Win32,59.62673663,,,,,,,,,,,,,,,,,,masks/mask_002.jpg,,,,,,,,,,,,,,,,,,,,,,,,,,,,,,,,,,,,,,,,,,,0,2,2,1,1,,,,,,,,,,,,,,,,,,,,,,,,,,,,,,,,,,,,,,,,,,,,,,
405845,001,2022-11-21_24h49.16.872,Info_measure_main_exp,2022.2.2,Win32,59.62673663,,,,,,,,,,,,,,,,,,masks/mask_004.jpg,,,,,,,,,,,,,,,,,,,,,,,,,,,,,,,,,,,,,,,,,,,0,3,3,3,1,,,,,,,,,,,,,,,,,,,,,,,,,,,,,,,,,,,,,,,,,,,,,,
405845,001,2022-11-21_24h49.16.872,Info_measure_main_exp,2022.2.2,Win32,59.62673663,,,,,,,,,,,,,,,,,,masks/mask_005.jpg,,,,,,,,,,,,,,,,,,,,,,,,,,,,,,,,,,,,,,,,,,,0,4,4,4,1,,,,,,,,,,,,,,,,,,,,,,,,,,,,,,,,,,,,,,,,,,,,,,
405845,001,2022-11-21_24h49.16.872,Info_measure_main_exp,2022.2.2,Win32,59.62673663,,,,,,,,,,,,,,,,,,masks/mask_004.jpg,,,,,,,,,,,,,,,,,,,,,,,,,,,,,,,,,,,,,,,,,,,,,,,,0,0,0,3,1,,,,,,,,,,,,,,,,,,,,,,,,,,,,,,,,,,,,,,,,,
405845,001,2022-11-21_24h49.16.872,Info_measure_main_exp,2022.2.2,Win32,59.62673663,,,,,,,,,,,,,,,,,,masks/mask_001.jpg,,,,,,,,,,,,,,,,,,,,,,,,,,,,,,,,,,,,,,,,,,,,,,,,0,1,1,0,1,,,,,,,,,,,,,,,,,,,,,,,,,,,,,,,,,,,,,,,,,
405845,001,2022-11-21_24h49.16.872,Info_measure_main_exp,2022.2.2,Win32,59.62673663,,,,,,,,,,,,,,,,,,masks/mask_005.jpg,,,,,,,,,,,,,,,,,,,,,,,,,,,,,,,,,,,,,,,,,,,,,,,,0,2,2,4,1,,,,,,,,,,,,,,,,,,,,,,,,,,,,,,,,,,,,,,,,,
405845,001,2022-11-21_24h49.16.872,Info_measure_main_exp,2022.2.2,Win32,59.62673663,,,,,,,,,,,,,,,,,,masks/mask_003.jpg,,,,,,,,,,,,,,,,,,,,,,,,,,,,,,,,,,,,,,,,,,,,,,,,0,3,3,2,1,,,,,,,,,,,,,,,,,,,,,,,,,,,,,,,,,,,,,,,,,
405845,001,2022-11-21_24h49.16.872,Info_measure_main_exp,2022.2.2,Win32,59.62673663,,,,,,,,,,,,,,,,,,masks/mask_002.jpg,,,,,,,,,,,,,,,,,,,,,,,,,,,,,,,,,,,,,,,,,,,,,,,,0,4,4,1,1,,,,,,,,,,,,,,,,,,,,,,,,,,,,,,,,,,,,,,,,,
405845,001,2022-11-21_24h49.16.872,Info_measure_main_exp,2022.2.2,Win32,59.62673663,,,,,,,,,,,,,,,,,,,,,,,,,,,,,,7,0.5998,1,,,,,,,,,,,,1,131,5,5,1,2142,present_patch/cong_131_5_a.jpg,absent_patch/patch0002142.jpg,,,,,,,,,,,,,,,,,,,,0.032407407,0.075,1,0,0,response1disk,23,-0.005555556,0.000925926,1,0,0,center_square,0,22,22,80,1,,,,,,,,,,,,,,,,,,,,,,,
405845,001,2022-11-21_24h49.16.872,Info_measure_main_exp,2022.2.2,Win32,59.62673663,,,,,,,,,,,,,,,,,,masks/mask_001.jpg,,,,,,,,,,,,,,,,,,,,,,,,,,,,,,,,,,,,,,,,,,,0,0,0,0,1,,,,,,,,,,,,,,,,,,,,,,,,,,,,,,,,,,,,,,,,,,,,,,
405845,001,2022-11-21_24h49.16.872,Info_measure_main_exp,2022.2.2,Win32,59.62673663,,,,,,,,,,,,,,,,,,masks/mask_003.jpg,,,,,,,,,,,,,,,,,,,,,,,,,,,,,,,,,,,,,,,,,,,0,1,1,2,1,,,,,,,,,,,,,,,,,,,,,,,,,,,,,,,,,,,,,,,,,,,,,,
405845,001,2022-11-21_24h49.16.872,Info_measure_main_exp,2022.2.2,Win32,59.62673663,,,,,,,,,,,,,,,,,,masks/mask_004.jpg,,,,,,,,,,,,,,,,,,,,,,,,,,,,,,,,,,,,,,,,,,,0,2,2,3,1,,,,,,,,,,,,,,,,,,,,,,,,,,,,,,,,,,,,,,,,,,,,,,
405845,001,2022-11-21_24h49.16.872,Info_measure_main_exp,2022.2.2,Win32,59.62673663,,,,,,,,,,,,,,,,,,masks/mask_002.jpg,,,,,,,,,,,,,,,,,,,,,,,,,,,,,,,,,,,,,,,,,,,0,3,3,1,1,,,,,,,,,,,,,,,,,,,,,,,,,,,,,,,,,,,,,,,,,,,,,,
405845,001,2022-11-21_24h49.16.872,Info_measure_main_exp,2022.2.2,Win32,59.62673663,,,,,,,,,,,,,,,,,,masks/mask_005.jpg,,,,,,,,,,,,,,,,,,,,,,,,,,,,,,,,,,,,,,,,,,,0,4,4,4,1,,,,,,,,,,,,,,,,,,,,,,,,,,,,,,,,,,,,,,,,,,,,,,
405845,001,2022-11-21_24h49.16.872,Info_measure_main_exp,2022.2.2,Win32,59.62673663,,,,,,,,,,,,,,,,,,masks/mask_004.jpg,,,,,,,,,,,,,,,,,,,,,,,,,,,,,,,,,,,,,,,,,,,,,,,,0,0,0,3,1,,,,,,,,,,,,,,,,,,,,,,,,,,,,,,,,,,,,,,,,,
405845,001,2022-11-21_24h49.16.872,Info_measure_main_exp,2022.2.2,Win32,59.62673663,,,,,,,,,,,,,,,,,,masks/mask_005.jpg,,,,,,,,,,,,,,,,,,,,,,,,,,,,,,,,,,,,,,,,,,,,,,,,0,1,1,4,1,,,,,,,,,,,,,,,,,,,,,,,,,,,,,,,,,,,,,,,,,
405845,001,2022-11-21_24h49.16.872,Info_measure_main_exp,2022.2.2,Win32,59.62673663,,,,,,,,,,,,,,,,,,masks/mask_003.jpg,,,,,,,,,,,,,,,,,,,,,,,,,,,,,,,,,,,,,,,,,,,,,,,,0,2,2,2,1,,,,,,,,,,,,,,,,,,,,,,,,,,,,,,,,,,,,,,,,,
405845,001,2022-11-21_24h49.16.872,Info_measure_main_exp,2022.2.2,Win32,59.62673663,,,,,,,,,,,,,,,,,,masks/mask_002.jpg,,,,,,,,,,,,,,,,,,,,,,,,,,,,,,,,,,,,,,,,,,,,,,,,0,3,3,1,1,,,,,,,,,,,,,,,,,,,,,,,,,,,,,,,,,,,,,,,,,
405845,001,2022-11-21_24h49.16.872,Info_measure_main_exp,2022.2.2,Win32,59.62673663,,,,,,,,,,,,,,,,,,masks/mask_001.jpg,,,,,,,,,,,,,,,,,,,,,,,,,,,,,,,,,,,,,,,,,,,,,,,,0,4,4,0,1,,,,,,,,,,,,,,,,,,,,,,,,,,,,,,,,,,,,,,,,,
405845,001,2022-11-21_24h49.16.872,Info_measure_main_exp,2022.2.2,Win32,59.62673663,,,,,,,,,,,,,,,,,,,,,,,,,,,,,,7,0.4677,1,,,,,,,,,,,,0,131,5,5,2250,2214,absent_patch/patch0002250.jpg,absent_patch/patch0002214.jpg,,,,,,,,,,,,,,,,,,,,0.031481481,0.107407407,1,0,0,response1disk,24,-0.002777778,-0.005555556,1,0,0,center_square,0,23,23,97,1,,,,,,,,,,,,,,,,,,,,,,,
405845,001,2022-11-21_24h49.16.872,Info_measure_main_exp,2022.2.2,Win32,59.62673663,,,,,,,,,,,,,,,,,,masks/mask_004.jpg,,,,,,,,,,,,,,,,,,,,,,,,,,,,,,,,,,,,,,,,,,,0,0,0,3,1,,,,,,,,,,,,,,,,,,,,,,,,,,,,,,,,,,,,,,,,,,,,,,
405845,001,2022-11-21_24h49.16.872,Info_measure_main_exp,2022.2.2,Win32,59.62673663,,,,,,,,,,,,,,,,,,masks/mask_003.jpg,,,,,,,,,,,,,,,,,,,,,,,,,,,,,,,,,,,,,,,,,,,0,1,1,2,1,,,,,,,,,,,,,,,,,,,,,,,,,,,,,,,,,,,,,,,,,,,,,,
405845,001,2022-11-21_24h49.16.872,Info_measure_main_exp,2022.2.2,Win32,59.62673663,,,,,,,,,,,,,,,,,,masks/mask_001.jpg,,,,,,,,,,,,,,,,,,,,,,,,,,,,,,,,,,,,,,,,,,,0,2,2,0,1,,,,,,,,,,,,,,,,,,,,,,,,,,,,,,,,,,,,,,,,,,,,,,
405845,001,2022-11-21_24h49.16.872,Info_measure_main_exp,2022.2.2,Win32,59.62673663,,,,,,,,,,,,,,,,,,masks/mask_002.jpg,,,,,,,,,,,,,,,,,,,,,,,,,,,,,,,,,,,,,,,,,,,0,3,3,1,1,,,,,,,,,,,,,,,,,,,,,,,,,,,,,,,,,,,,,,,,,,,,,,
405845,001,2022-11-21_24h49.16.872,Info_measure_main_exp,2022.2.2,Win32,59.62673663,,,,,,,,,,,,,,,,,,masks/mask_005.jpg,,,,,,,,,,,,,,,,,,,,,,,,,,,,,,,,,,,,,,,,,,,0,4,4,4,1,,,,,,,,,,,,,,,,,,,,,,,,,,,,,,,,,,,,,,,,,,,,,,
405845,001,2022-11-21_24h49.16.872,Info_measure_main_exp,2022.2.2,Win32,59.62673663,,,,,,,,,,,,,,,,,,masks/mask_004.jpg,,,,,,,,,,,,,,,,,,,,,,,,,,,,,,,,,,,,,,,,,,,,,,,,0,0,0,3,1,,,,,,,,,,,,,,,,,,,,,,,,,,,,,,,,,,,,,,,,,
405845,001,2022-11-21_24h49.16.872,Info_measure_main_exp,2022.2.2,Win32,59.62673663,,,,,,,,,,,,,,,,,,masks/mask_005.jpg,,,,,,,,,,,,,,,,,,,,,,,,,,,,,,,,,,,,,,,,,,,,,,,,0,1,1,4,1,,,,,,,,,,,,,,,,,,,,,,,,,,,,,,,,,,,,,,,,,
405845,001,2022-11-21_24h49.16.872,Info_measure_main_exp,2022.2.2,Win32,59.62673663,,,,,,,,,,,,,,,,,,masks/mask_001.jpg,,,,,,,,,,,,,,,,,,,,,,,,,,,,,,,,,,,,,,,,,,,,,,,,0,2,2,0,1,,,,,,,,,,,,,,,,,,,,,,,,,,,,,,,,,,,,,,,,,
405845,001,2022-11-21_24h49.16.872,Info_measure_main_exp,2022.2.2,Win32,59.62673663,,,,,,,,,,,,,,,,,,masks/mask_003.jpg,,,,,,,,,,,,,,,,,,,,,,,,,,,,,,,,,,,,,,,,,,,,,,,,0,3,3,2,1,,,,,,,,,,,,,,,,,,,,,,,,,,,,,,,,,,,,,,,,,
405845,001,2022-11-21_24h49.16.872,Info_measure_main_exp,2022.2.2,Win32,59.62673663,,,,,,,,,,,,,,,,,,masks/mask_002.jpg,,,,,,,,,,,,,,,,,,,,,,,,,,,,,,,,,,,,,,,,,,,,,,,,0,4,4,1,1,,,,,,,,,,,,,,,,,,,,,,,,,,,,,,,,,,,,,,,,,
405845,001,2022-11-21_24h49.16.872,Info_measure_main_exp,2022.2.2,Win32,59.62673663,,,,,,,,,,,,,,,,,,,,,,,,,,,,,,7,0.3496,1,,,,,,,,,,,,0,131,5,5,1986,1950,absent_patch/patch0001986.jpg,absent_patch/patch0001950.jpg,,,,,,,,,,,,,,,,,,,,0.037037037,0.115740741,1,0,0,response1disk,25,0,0.012962963,1,0,0,center_square,0,24,24,15,1,,,,,,,,,,,,,,,,,,,,,,,
405845,001,2022-11-21_24h49.16.872,Info_measure_main_exp,2022.2.2,Win32,59.62673663,,,,,,,,,,,,,,,,,,masks/mask_003.jpg,,,,,,,,,,,,,,,,,,,,,,,,,,,,,,,,,,,,,,,,,,,0,0,0,2,1,,,,,,,,,,,,,,,,,,,,,,,,,,,,,,,,,,,,,,,,,,,,,,
405845,001,2022-11-21_24h49.16.872,Info_measure_main_exp,2022.2.2,Win32,59.62673663,,,,,,,,,,,,,,,,,,masks/mask_005.jpg,,,,,,,,,,,,,,,,,,,,,,,,,,,,,,,,,,,,,,,,,,,0,1,1,4,1,,,,,,,,,,,,,,,,,,,,,,,,,,,,,,,,,,,,,,,,,,,,,,
405845,001,2022-11-21_24h49.16.872,Info_measure_main_exp,2022.2.2,Win32,59.62673663,,,,,,,,,,,,,,,,,,masks/mask_004.jpg,,,,,,,,,,,,,,,,,,,,,,,,,,,,,,,,,,,,,,,,,,,0,2,2,3,1,,,,,,,,,,,,,,,,,,,,,,,,,,,,,,,,,,,,,,,,,,,,,,
405845,001,2022-11-21_24h49.16.872,Info_measure_main_exp,2022.2.2,Win32,59.62673663,,,,,,,,,,,,,,,,,,masks/mask_001.jpg,,,,,,,,,,,,,,,,,,,,,,,,,,,,,,,,,,,,,,,,,,,0,3,3,0,1,,,,,,,,,,,,,,,,,,,,,,,,,,,,,,,,,,,,,,,,,,,,,,
405845,001,2022-11-21_24h49.16.872,Info_measure_main_exp,2022.2.2,Win32,59.62673663,,,,,,,,,,,,,,,,,,masks/mask_002.jpg,,,,,,,,,,,,,,,,,,,,,,,,,,,,,,,,,,,,,,,,,,,0,4,4,1,1,,,,,,,,,,,,,,,,,,,,,,,,,,,,,,,,,,,,,,,,,,,,,,
405845,001,2022-11-21_24h49.16.872,Info_measure_main_exp,2022.2.2,Win32,59.62673663,,,,,,,,,,,,,,,,,,masks/mask_005.jpg,,,,,,,,,,,,,,,,,,,,,,,,,,,,,,,,,,,,,,,,,,,,,,,,0,0,0,4,1,,,,,,,,,,,,,,,,,,,,,,,,,,,,,,,,,,,,,,,,,
405845,001,2022-11-21_24h49.16.872,Info_measure_main_exp,2022.2.2,Win32,59.62673663,,,,,,,,,,,,,,,,,,masks/mask_002.jpg,,,,,,,,,,,,,,,,,,,,,,,,,,,,,,,,,,,,,,,,,,,,,,,,0,1,1,1,1,,,,,,,,,,,,,,,,,,,,,,,,,,,,,,,,,,,,,,,,,
405845,001,2022-11-21_24h49.16.872,Info_measure_main_exp,2022.2.2,Win32,59.62673663,,,,,,,,,,,,,,,,,,masks/mask_003.jpg,,,,,,,,,,,,,,,,,,,,,,,,,,,,,,,,,,,,,,,,,,,,,,,,0,2,2,2,1,,,,,,,,,,,,,,,,,,,,,,,,,,,,,,,,,,,,,,,,,
405845,001,2022-11-21_24h49.16.872,Info_measure_main_exp,2022.2.2,Win32,59.62673663,,,,,,,,,,,,,,,,,,masks/mask_004.jpg,,,,,,,,,,,,,,,,,,,,,,,,,,,,,,,,,,,,,,,,,,,,,,,,0,3,3,3,1,,,,,,,,,,,,,,,,,,,,,,,,,,,,,,,,,,,,,,,,,
405845,001,2022-11-21_24h49.16.872,Info_measure_main_exp,2022.2.2,Win32,59.62673663,,,,,,,,,,,,,,,,,,masks/mask_001.jpg,,,,,,,,,,,,,,,,,,,,,,,,,,,,,,,,,,,,,,,,,,,,,,,,0,4,4,0,1,,,,,,,,,,,,,,,,,,,,,,,,,,,,,,,,,,,,,,,,,
405845,001,2022-11-21_24h49.16.872,Info_measure_main_exp,2022.2.2,Win32,59.62673663,,,,,,,,,,,,,,,,,,,,,,,,,,,,,,7,0.3176,1,,,,,,,,,,,,0,131,5,5,1974,2298,absent_patch/patch0001974.jpg,absent_patch/patch0002298.jpg,,,,,,,,,,,,,,,,,,,,0.046296296,0.102777778,1,0,0,response1disk,26,-0.012037037,0.002777778,1,0,0,center_square,0,25,25,6,1,,,,,,,,,,,,,,,,,,,,,,,
405845,001,2022-11-21_24h49.16.872,Info_measure_main_exp,2022.2.2,Win32,59.62673663,,,,,,,,,,,,,,,,,,masks/mask_001.jpg,,,,,,,,,,,,,,,,,,,,,,,,,,,,,,,,,,,,,,,,,,,0,0,0,0,1,,,,,,,,,,,,,,,,,,,,,,,,,,,,,,,,,,,,,,,,,,,,,,
405845,001,2022-11-21_24h49.16.872,Info_measure_main_exp,2022.2.2,Win32,59.62673663,,,,,,,,,,,,,,,,,,masks/mask_005.jpg,,,,,,,,,,,,,,,,,,,,,,,,,,,,,,,,,,,,,,,,,,,0,1,1,4,1,,,,,,,,,,,,,,,,,,,,,,,,,,,,,,,,,,,,,,,,,,,,,,
405845,001,2022-11-21_24h49.16.872,Info_measure_main_exp,2022.2.2,Win32,59.62673663,,,,,,,,,,,,,,,,,,masks/mask_003.jpg,,,,,,,,,,,,,,,,,,,,,,,,,,,,,,,,,,,,,,,,,,,0,2,2,2,1,,,,,,,,,,,,,,,,,,,,,,,,,,,,,,,,,,,,,,,,,,,,,,
405845,001,2022-11-21_24h49.16.872,Info_measure_main_exp,2022.2.2,Win32,59.62673663,,,,,,,,,,,,,,,,,,masks/mask_002.jpg,,,,,,,,,,,,,,,,,,,,,,,,,,,,,,,,,,,,,,,,,,,0,3,3,1,1,,,,,,,,,,,,,,,,,,,,,,,,,,,,,,,,,,,,,,,,,,,,,,
405845,001,2022-11-21_24h49.16.872,Info_measure_main_exp,2022.2.2,Win32,59.62673663,,,,,,,,,,,,,,,,,,masks/mask_004.jpg,,,,,,,,,,,,,,,,,,,,,,,,,,,,,,,,,,,,,,,,,,,0,4,4,3,1,,,,,,,,,,,,,,,,,,,,,,,,,,,,,,,,,,,,,,,,,,,,,,
405845,001,2022-11-21_24h49.16.872,Info_measure_main_exp,2022.2.2,Win32,59.62673663,,,,,,,,,,,,,,,,,,masks/mask_001.jpg,,,,,,,,,,,,,,,,,,,,,,,,,,,,,,,,,,,,,,,,,,,,,,,,0,0,0,0,1,,,,,,,,,,,,,,,,,,,,,,,,,,,,,,,,,,,,,,,,,
405845,001,2022-11-21_24h49.16.872,Info_measure_main_exp,2022.2.2,Win32,59.62673663,,,,,,,,,,,,,,,,,,masks/mask_003.jpg,,,,,,,,,,,,,,,,,,,,,,,,,,,,,,,,,,,,,,,,,,,,,,,,0,1,1,2,1,,,,,,,,,,,,,,,,,,,,,,,,,,,,,,,,,,,,,,,,,
405845,001,2022-11-21_24h49.16.872,Info_measure_main_exp,2022.2.2,Win32,59.62673663,,,,,,,,,,,,,,,,,,masks/mask_004.jpg,,,,,,,,,,,,,,,,,,,,,,,,,,,,,,,,,,,,,,,,,,,,,,,,0,2,2,3,1,,,,,,,,,,,,,,,,,,,,,,,,,,,,,,,,,,,,,,,,,
405845,001,2022-11-21_24h49.16.872,Info_measure_main_exp,2022.2.2,Win32,59.62673663,,,,,,,,,,,,,,,,,,masks/mask_002.jpg,,,,,,,,,,,,,,,,,,,,,,,,,,,,,,,,,,,,,,,,,,,,,,,,0,3,3,1,1,,,,,,,,,,,,,,,,,,,,,,,,,,,,,,,,,,,,,,,,,
405845,001,2022-11-21_24h49.16.872,Info_measure_main_exp,2022.2.2,Win32,59.62673663,,,,,,,,,,,,,,,,,,masks/mask_005.jpg,,,,,,,,,,,,,,,,,,,,,,,,,,,,,,,,,,,,,,,,,,,,,,,,0,4,4,4,1,,,,,,,,,,,,,,,,,,,,,,,,,,,,,,,,,,,,,,,,,
405845,001,2022-11-21_24h49.16.872,Info_measure_main_exp,2022.2.2,Win32,59.62673663,,,,,,,,,,,,,,,,,,,,,,,,,,,,,,7,0.3035,1,,,,,,,,,,,,1,131,5,5,1,1974,present_patch/cong_131_5_a.jpg,absent_patch/patch0001974.jpg,,,,,,,,,,,,,,,,,,,,0.041666667,0.118518519,1,0,0,response1disk,27,-0.001851852,0.007407407,1,0,0,center_square,0,26,26,69,1,,,,,,,,,,,,,,,,,,,,,,,
405845,001,2022-11-21_24h49.16.872,Info_measure_main_exp,2022.2.2,Win32,59.62673663,,,,,,,,,,,,,,,,,,masks/mask_004.jpg,,,,,,,,,,,,,,,,,,,,,,,,,,,,,,,,,,,,,,,,,,,0,0,0,3,1,,,,,,,,,,,,,,,,,,,,,,,,,,,,,,,,,,,,,,,,,,,,,,
405845,001,2022-11-21_24h49.16.872,Info_measure_main_exp,2022.2.2,Win32,59.62673663,,,,,,,,,,,,,,,,,,masks/mask_003.jpg,,,,,,,,,,,,,,,,,,,,,,,,,,,,,,,,,,,,,,,,,,,0,1,1,2,1,,,,,,,,,,,,,,,,,,,,,,,,,,,,,,,,,,,,,,,,,,,,,,
405845,001,2022-11-21_24h49.16.872,Info_measure_main_exp,2022.2.2,Win32,59.62673663,,,,,,,,,,,,,,,,,,masks/mask_005.jpg,,,,,,,,,,,,,,,,,,,,,,,,,,,,,,,,,,,,,,,,,,,0,2,2,4,1,,,,,,,,,,,,,,,,,,,,,,,,,,,,,,,,,,,,,,,,,,,,,,
405845,001,2022-11-21_24h49.16.872,Info_measure_main_exp,2022.2.2,Win32,59.62673663,,,,,,,,,,,,,,,,,,masks/mask_002.jpg,,,,,,,,,,,,,,,,,,,,,,,,,,,,,,,,,,,,,,,,,,,0,3,3,1,1,,,,,,,,,,,,,,,,,,,,,,,,,,,,,,,,,,,,,,,,,,,,,,
405845,001,2022-11-21_24h49.16.872,Info_measure_main_exp,2022.2.2,Win32,59.62673663,,,,,,,,,,,,,,,,,,masks/mask_001.jpg,,,,,,,,,,,,,,,,,,,,,,,,,,,,,,,,,,,,,,,,,,,0,4,4,0,1,,,,,,,,,,,,,,,,,,,,,,,,,,,,,,,,,,,,,,,,,,,,,,
405845,001,2022-11-21_24h49.16.872,Info_measure_main_exp,2022.2.2,Win32,59.62673663,,,,,,,,,,,,,,,,,,masks/mask_002.jpg,,,,,,,,,,,,,,,,,,,,,,,,,,,,,,,,,,,,,,,,,,,,,,,,0,0,0,1,1,,,,,,,,,,,,,,,,,,,,,,,,,,,,,,,,,,,,,,,,,
405845,001,2022-11-21_24h49.16.872,Info_measure_main_exp,2022.2.2,Win32,59.62673663,,,,,,,,,,,,,,,,,,masks/mask_003.jpg,,,,,,,,,,,,,,,,,,,,,,,,,,,,,,,,,,,,,,,,,,,,,,,,0,1,1,2,1,,,,,,,,,,,,,,,,,,,,,,,,,,,,,,,,,,,,,,,,,
405845,001,2022-11-21_24h49.16.872,Info_measure_main_exp,2022.2.2,Win32,59.62673663,,,,,,,,,,,,,,,,,,masks/mask_001.jpg,,,,,,,,,,,,,,,,,,,,,,,,,,,,,,,,,,,,,,,,,,,,,,,,0,2,2,0,1,,,,,,,,,,,,,,,,,,,,,,,,,,,,,,,,,,,,,,,,,
405845,001,2022-11-21_24h49.16.872,Info_measure_main_exp,2022.2.2,Win32,59.62673663,,,,,,,,,,,,,,,,,,masks/mask_005.jpg,,,,,,,,,,,,,,,,,,,,,,,,,,,,,,,,,,,,,,,,,,,,,,,,0,3,3,4,1,,,,,,,,,,,,,,,,,,,,,,,,,,,,,,,,,,,,,,,,,
405845,001,2022-11-21_24h49.16.872,Info_measure_main_exp,2022.2.2,Win32,59.62673663,,,,,,,,,,,,,,,,,,masks/mask_004.jpg,,,,,,,,,,,,,,,,,,,,,,,,,,,,,,,,,,,,,,,,,,,,,,,,0,4,4,3,1,,,,,,,,,,,,,,,,,,,,,,,,,,,,,,,,,,,,,,,,,
405845,001,2022-11-21_24h49.16.872,Info_measure_main_exp,2022.2.2,Win32,59.62673663,,,,,,,,,,,,,,,,,,,,,,,,,,,,,,7,0.3345,1,,,,,,,,,,,,0,131,5,5,2154,1950,absent_patch/patch0002154.jpg,absent_patch/patch0001950.jpg,,,,,,,,,,,,,,,,,,,,0.043518519,0.094444444,1,0,0,response1disk,28,-0.006481481,-0.008333333,1,0,0,center_square,0,27,27,96,1,,,,,,,,,,,,,,,,,,,,,,,
405845,001,2022-11-21_24h49.16.872,Info_measure_main_exp,2022.2.2,Win32,59.62673663,,,,,,,,,,,,,,,,,,masks/mask_003.jpg,,,,,,,,,,,,,,,,,,,,,,,,,,,,,,,,,,,,,,,,,,,0,0,0,2,1,,,,,,,,,,,,,,,,,,,,,,,,,,,,,,,,,,,,,,,,,,,,,,
405845,001,2022-11-21_24h49.16.872,Info_measure_main_exp,2022.2.2,Win32,59.62673663,,,,,,,,,,,,,,,,,,masks/mask_001.jpg,,,,,,,,,,,,,,,,,,,,,,,,,,,,,,,,,,,,,,,,,,,0,1,1,0,1,,,,,,,,,,,,,,,,,,,,,,,,,,,,,,,,,,,,,,,,,,,,,,
405845,001,2022-11-21_24h49.16.872,Info_measure_main_exp,2022.2.2,Win32,59.62673663,,,,,,,,,,,,,,,,,,masks/mask_002.jpg,,,,,,,,,,,,,,,,,,,,,,,,,,,,,,,,,,,,,,,,,,,0,2,2,1,1,,,,,,,,,,,,,,,,,,,,,,,,,,,,,,,,,,,,,,,,,,,,,,
405845,001,2022-11-21_24h49.16.872,Info_measure_main_exp,2022.2.2,Win32,59.62673663,,,,,,,,,,,,,,,,,,masks/mask_004.jpg,,,,,,,,,,,,,,,,,,,,,,,,,,,,,,,,,,,,,,,,,,,0,3,3,3,1,,,,,,,,,,,,,,,,,,,,,,,,,,,,,,,,,,,,,,,,,,,,,,
405845,001,2022-11-21_24h49.16.872,Info_measure_main_exp,2022.2.2,Win32,59.62673663,,,,,,,,,,,,,,,,,,masks/mask_005.jpg,,,,,,,,,,,,,,,,,,,,,,,,,,,,,,,,,,,,,,,,,,,0,4,4,4,1,,,,,,,,,,,,,,,,,,,,,,,,,,,,,,,,,,,,,,,,,,,,,,
405845,001,2022-11-21_24h49.16.872,Info_measure_main_exp,2022.2.2,Win32,59.62673663,,,,,,,,,,,,,,,,,,masks/mask_001.jpg,,,,,,,,,,,,,,,,,,,,,,,,,,,,,,,,,,,,,,,,,,,,,,,,0,0,0,0,1,,,,,,,,,,,,,,,,,,,,,,,,,,,,,,,,,,,,,,,,,
405845,001,2022-11-21_24h49.16.872,Info_measure_main_exp,2022.2.2,Win32,59.62673663,,,,,,,,,,,,,,,,,,masks/mask_003.jpg,,,,,,,,,,,,,,,,,,,,,,,,,,,,,,,,,,,,,,,,,,,,,,,,0,1,1,2,1,,,,,,,,,,,,,,,,,,,,,,,,,,,,,,,,,,,,,,,,,
405845,001,2022-11-21_24h49.16.872,Info_measure_main_exp,2022.2.2,Win32,59.62673663,,,,,,,,,,,,,,,,,,masks/mask_002.jpg,,,,,,,,,,,,,,,,,,,,,,,,,,,,,,,,,,,,,,,,,,,,,,,,0,2,2,1,1,,,,,,,,,,,,,,,,,,,,,,,,,,,,,,,,,,,,,,,,,
405845,001,2022-11-21_24h49.16.872,Info_measure_main_exp,2022.2.2,Win32,59.62673663,,,,,,,,,,,,,,,,,,masks/mask_004.jpg,,,,,,,,,,,,,,,,,,,,,,,,,,,,,,,,,,,,,,,,,,,,,,,,0,3,3,3,1,,,,,,,,,,,,,,,,,,,,,,,,,,,,,,,,,,,,,,,,,
405845,001,2022-11-21_24h49.16.872,Info_measure_main_exp,2022.2.2,Win32,59.62673663,,,,,,,,,,,,,,,,,,masks/mask_005.jpg,,,,,,,,,,,,,,,,,,,,,,,,,,,,,,,,,,,,,,,,,,,,,,,,0,4,4,4,1,,,,,,,,,,,,,,,,,,,,,,,,,,,,,,,,,,,,,,,,,
405845,001,2022-11-21_24h49.16.872,Info_measure_main_exp,2022.2.2,Win32,59.62673663,,,,,,,,,,,,,,,,,,,,,,,,,,,,,,7,0.4346,1,,,,,,,,,,,,0,131,5,5,2190,2214,absent_patch/patch0002190.jpg,absent_patch/patch0002214.jpg,,,,,,,,,,,,,,,,,,,,0.052777778,0.12037037,1,0,0,response1disk,29,0,0.011111111,1,0,0,center_square,0,28,28,35,1,,,,,,,,,,,,,,,,,,,,,,,
405845,001,2022-11-21_24h49.16.872,Info_measure_main_exp,2022.2.2,Win32,59.62673663,,,,,,,,,,,,,,,,,,masks/mask_004.jpg,,,,,,,,,,,,,,,,,,,,,,,,,,,,,,,,,,,,,,,,,,,0,0,0,3,1,,,,,,,,,,,,,,,,,,,,,,,,,,,,,,,,,,,,,,,,,,,,,,
405845,001,2022-11-21_24h49.16.872,Info_measure_main_exp,2022.2.2,Win32,59.62673663,,,,,,,,,,,,,,,,,,masks/mask_005.jpg,,,,,,,,,,,,,,,,,,,,,,,,,,,,,,,,,,,,,,,,,,,0,1,1,4,1,,,,,,,,,,,,,,,,,,,,,,,,,,,,,,,,,,,,,,,,,,,,,,
405845,001,2022-11-21_24h49.16.872,Info_measure_main_exp,2022.2.2,Win32,59.62673663,,,,,,,,,,,,,,,,,,masks/mask_003.jpg,,,,,,,,,,,,,,,,,,,,,,,,,,,,,,,,,,,,,,,,,,,0,2,2,2,1,,,,,,,,,,,,,,,,,,,,,,,,,,,,,,,,,,,,,,,,,,,,,,
405845,001,2022-11-21_24h49.16.872,Info_measure_main_exp,2022.2.2,Win32,59.62673663,,,,,,,,,,,,,,,,,,masks/mask_001.jpg,,,,,,,,,,,,,,,,,,,,,,,,,,,,,,,,,,,,,,,,,,,0,3,3,0,1,,,,,,,,,,,,,,,,,,,,,,,,,,,,,,,,,,,,,,,,,,,,,,
405845,001,2022-11-21_24h49.16.872,Info_measure_main_exp,2022.2.2,Win32,59.62673663,,,,,,,,,,,,,,,,,,masks/mask_002.jpg,,,,,,,,,,,,,,,,,,,,,,,,,,,,,,,,,,,,,,,,,,,0,4,4,1,1,,,,,,,,,,,,,,,,,,,,,,,,,,,,,,,,,,,,,,,,,,,,,,
405845,001,2022-11-21_24h49.16.872,Info_measure_main_exp,2022.2.2,Win32,59.62673663,,,,,,,,,,,,,,,,,,masks/mask_001.jpg,,,,,,,,,,,,,,,,,,,,,,,,,,,,,,,,,,,,,,,,,,,,,,,,0,0,0,0,1,,,,,,,,,,,,,,,,,,,,,,,,,,,,,,,,,,,,,,,,,
405845,001,2022-11-21_24h49.16.872,Info_measure_main_exp,2022.2.2,Win32,59.62673663,,,,,,,,,,,,,,,,,,masks/mask_004.jpg,,,,,,,,,,,,,,,,,,,,,,,,,,,,,,,,,,,,,,,,,,,,,,,,0,1,1,3,1,,,,,,,,,,,,,,,,,,,,,,,,,,,,,,,,,,,,,,,,,
405845,001,2022-11-21_24h49.16.872,Info_measure_main_exp,2022.2.2,Win32,59.62673663,,,,,,,,,,,,,,,,,,masks/mask_005.jpg,,,,,,,,,,,,,,,,,,,,,,,,,,,,,,,,,,,,,,,,,,,,,,,,0,2,2,4,1,,,,,,,,,,,,,,,,,,,,,,,,,,,,,,,,,,,,,,,,,
405845,001,2022-11-21_24h49.16.872,Info_measure_main_exp,2022.2.2,Win32,59.62673663,,,,,,,,,,,,,,,,,,masks/mask_003.jpg,,,,,,,,,,,,,,,,,,,,,,,,,,,,,,,,,,,,,,,,,,,,,,,,0,3,3,2,1,,,,,,,,,,,,,,,,,,,,,,,,,,,,,,,,,,,,,,,,,
405845,001,2022-11-21_24h49.16.872,Info_measure_main_exp,2022.2.2,Win32,59.62673663,,,,,,,,,,,,,,,,,,masks/mask_002.jpg,,,,,,,,,,,,,,,,,,,,,,,,,,,,,,,,,,,,,,,,,,,,,,,,0,4,4,1,1,,,,,,,,,,,,,,,,,,,,,,,,,,,,,,,,,,,,,,,,,
405845,001,2022-11-21_24h49.16.872,Info_measure_main_exp,2022.2.2,Win32,59.62673663,,,,,,,,,,,,,,,,,,,,,,,,,,,,,,7,0.3677,1,,,,,,,,,,,,0,131,5,5,2190,2238,absent_patch/patch0002190.jpg,absent_patch/patch0002238.jpg,,,,,,,,,,,,,,,,,,,,0.046296296,0.108333333,1,0,0,response1disk,30,-0.002777778,0,1,0,0,center_square,0,29,29,53,1,,,,,,,,,,,,,,,,,,,,,,,
405845,001,2022-11-21_24h49.16.872,Info_measure_main_exp,2022.2.2,Win32,59.62673663,,,,,,,,,,,,,,,,,,masks/mask_003.jpg,,,,,,,,,,,,,,,,,,,,,,,,,,,,,,,,,,,,,,,,,,,0,0,0,2,1,,,,,,,,,,,,,,,,,,,,,,,,,,,,,,,,,,,,,,,,,,,,,,
405845,001,2022-11-21_24h49.16.872,Info_measure_main_exp,2022.2.2,Win32,59.62673663,,,,,,,,,,,,,,,,,,masks/mask_005.jpg,,,,,,,,,,,,,,,,,,,,,,,,,,,,,,,,,,,,,,,,,,,0,1,1,4,1,,,,,,,,,,,,,,,,,,,,,,,,,,,,,,,,,,,,,,,,,,,,,,
405845,001,2022-11-21_24h49.16.872,Info_measure_main_exp,2022.2.2,Win32,59.62673663,,,,,,,,,,,,,,,,,,masks/mask_002.jpg,,,,,,,,,,,,,,,,,,,,,,,,,,,,,,,,,,,,,,,,,,,0,2,2,1,1,,,,,,,,,,,,,,,,,,,,,,,,,,,,,,,,,,,,,,,,,,,,,,
405845,001,2022-11-21_24h49.16.872,Info_measure_main_exp,2022.2.2,Win32,59.62673663,,,,,,,,,,,,,,,,,,masks/mask_001.jpg,,,,,,,,,,,,,,,,,,,,,,,,,,,,,,,,,,,,,,,,,,,0,3,3,0,1,,,,,,,,,,,,,,,,,,,,,,,,,,,,,,,,,,,,,,,,,,,,,,
405845,001,2022-11-21_24h49.16.872,Info_measure_main_exp,2022.2.2,Win32,59.62673663,,,,,,,,,,,,,,,,,,masks/mask_004.jpg,,,,,,,,,,,,,,,,,,,,,,,,,,,,,,,,,,,,,,,,,,,0,4,4,3,1,,,,,,,,,,,,,,,,,,,,,,,,,,,,,,,,,,,,,,,,,,,,,,
405845,001,2022-11-21_24h49.16.872,Info_measure_main_exp,2022.2.2,Win32,59.62673663,,,,,,,,,,,,,,,,,,masks/mask_002.jpg,,,,,,,,,,,,,,,,,,,,,,,,,,,,,,,,,,,,,,,,,,,,,,,,0,0,0,1,1,,,,,,,,,,,,,,,,,,,,,,,,,,,,,,,,,,,,,,,,,
405845,001,2022-11-21_24h49.16.872,Info_measure_main_exp,2022.2.2,Win32,59.62673663,,,,,,,,,,,,,,,,,,masks/mask_003.jpg,,,,,,,,,,,,,,,,,,,,,,,,,,,,,,,,,,,,,,,,,,,,,,,,0,1,1,2,1,,,,,,,,,,,,,,,,,,,,,,,,,,,,,,,,,,,,,,,,,
405845,001,2022-11-21_24h49.16.872,Info_measure_main_exp,2022.2.2,Win32,59.62673663,,,,,,,,,,,,,,,,,,masks/mask_005.jpg,,,,,,,,,,,,,,,,,,,,,,,,,,,,,,,,,,,,,,,,,,,,,,,,0,2,2,4,1,,,,,,,,,,,,,,,,,,,,,,,,,,,,,,,,,,,,,,,,,
405845,001,2022-11-21_24h49.16.872,Info_measure_main_exp,2022.2.2,Win32,59.62673663,,,,,,,,,,,,,,,,,,masks/mask_004.jpg,,,,,,,,,,,,,,,,,,,,,,,,,,,,,,,,,,,,,,,,,,,,,,,,0,3,3,3,1,,,,,,,,,,,,,,,,,,,,,,,,,,,,,,,,,,,,,,,,,
405845,001,2022-11-21_24h49.16.872,Info_measure_main_exp,2022.2.2,Win32,59.62673663,,,,,,,,,,,,,,,,,,masks/mask_001.jpg,,,,,,,,,,,,,,,,,,,,,,,,,,,,,,,,,,,,,,,,,,,,,,,,0,4,4,0,1,,,,,,,,,,,,,,,,,,,,,,,,,,,,,,,,,,,,,,,,,
405845,001,2022-11-21_24h49.16.872,Info_measure_main_exp,2022.2.2,Win32,59.62673663,,,,,,,,,,,,,,,,,,,,,,,,,,,,,,0,0.5655,1,,,,,,,,,,,,0,131,5,5,1986,1986,absent_patch/patch0001986.jpg,absent_patch/patch0001986.jpg,,,,,,,,,,,,,,,,,,,,-0.057407407,0.123148148,1,0,0,response7disk,31,-0.009259259,0.003703704,1,0,0,center_square,0,30,30,19,1,,,,,,,,,,,,,,,,,,,,,,,
405845,001,2022-11-21_24h49.16.872,Info_measure_main_exp,2022.2.2,Win32,59.62673663,,,,,,,,,,,,,,,,,,masks/mask_004.jpg,,,,,,,,,,,,,,,,,,,,,,,,,,,,,,,,,,,,,,,,,,,0,0,0,3,1,,,,,,,,,,,,,,,,,,,,,,,,,,,,,,,,,,,,,,,,,,,,,,
405845,001,2022-11-21_24h49.16.872,Info_measure_main_exp,2022.2.2,Win32,59.62673663,,,,,,,,,,,,,,,,,,masks/mask_005.jpg,,,,,,,,,,,,,,,,,,,,,,,,,,,,,,,,,,,,,,,,,,,0,1,1,4,1,,,,,,,,,,,,,,,,,,,,,,,,,,,,,,,,,,,,,,,,,,,,,,
405845,001,2022-11-21_24h49.16.872,Info_measure_main_exp,2022.2.2,Win32,59.62673663,,,,,,,,,,,,,,,,,,masks/mask_001.jpg,,,,,,,,,,,,,,,,,,,,,,,,,,,,,,,,,,,,,,,,,,,0,2,2,0,1,,,,,,,,,,,,,,,,,,,,,,,,,,,,,,,,,,,,,,,,,,,,,,
405845,001,2022-11-21_24h49.16.872,Info_measure_main_exp,2022.2.2,Win32,59.62673663,,,,,,,,,,,,,,,,,,masks/mask_003.jpg,,,,,,,,,,,,,,,,,,,,,,,,,,,,,,,,,,,,,,,,,,,0,3,3,2,1,,,,,,,,,,,,,,,,,,,,,,,,,,,,,,,,,,,,,,,,,,,,,,
405845,001,2022-11-21_24h49.16.872,Info_measure_main_exp,2022.2.2,Win32,59.62673663,,,,,,,,,,,,,,,,,,masks/mask_002.jpg,,,,,,,,,,,,,,,,,,,,,,,,,,,,,,,,,,,,,,,,,,,0,4,4,1,1,,,,,,,,,,,,,,,,,,,,,,,,,,,,,,,,,,,,,,,,,,,,,,
405845,001,2022-11-21_24h49.16.872,Info_measure_main_exp,2022.2.2,Win32,59.62673663,,,,,,,,,,,,,,,,,,masks/mask_005.jpg,,,,,,,,,,,,,,,,,,,,,,,,,,,,,,,,,,,,,,,,,,,,,,,,0,0,0,4,1,,,,,,,,,,,,,,,,,,,,,,,,,,,,,,,,,,,,,,,,,
405845,001,2022-11-21_24h49.16.872,Info_measure_main_exp,2022.2.2,Win32,59.62673663,,,,,,,,,,,,,,,,,,masks/mask_004.jpg,,,,,,,,,,,,,,,,,,,,,,,,,,,,,,,,,,,,,,,,,,,,,,,,0,1,1,3,1,,,,,,,,,,,,,,,,,,,,,,,,,,,,,,,,,,,,,,,,,
405845,001,2022-11-21_24h49.16.872,Info_measure_main_exp,2022.2.2,Win32,59.62673663,,,,,,,,,,,,,,,,,,masks/mask_001.jpg,,,,,,,,,,,,,,,,,,,,,,,,,,,,,,,,,,,,,,,,,,,,,,,,0,2,2,0,1,,,,,,,,,,,,,,,,,,,,,,,,,,,,,,,,,,,,,,,,,
405845,001,2022-11-21_24h49.16.872,Info_measure_main_exp,2022.2.2,Win32,59.62673663,,,,,,,,,,,,,,,,,,masks/mask_002.jpg,,,,,,,,,,,,,,,,,,,,,,,,,,,,,,,,,,,,,,,,,,,,,,,,0,3,3,1,1,,,,,,,,,,,,,,,,,,,,,,,,,,,,,,,,,,,,,,,,,
405845,001,2022-11-21_24h49.16.872,Info_measure_main_exp,2022.2.2,Win32,59.62673663,,,,,,,,,,,,,,,,,,masks/mask_003.jpg,,,,,,,,,,,,,,,,,,,,,,,,,,,,,,,,,,,,,,,,,,,,,,,,0,4,4,2,1,,,,,,,,,,,,,,,,,,,,,,,,,,,,,,,,,,,,,,,,,
405845,001,2022-11-21_24h49.16.872,Info_measure_main_exp,2022.2.2,Win32,59.62673663,,,,,,,,,,,,,,,,,,,,,,,,,,,,,,5,1.7997,1,,,,,,,,,,,,0,131,5,5,1950,2142,absent_patch/patch0001950.jpg,absent_patch/patch0002142.jpg,,,,,,,,,,,,,,,,,,,,0.132407407,-0.042592593,1,0,0,response3disk,32,0.009259259,0,1,0,0,center_square,0,31,31,83,1,,,,,,,,,,,,,,,,,,,,,,,
405845,001,2022-11-21_24h49.16.872,Info_measure_main_exp,2022.2.2,Win32,59.62673663,,,,,,,,,,,,,,,,,,masks/mask_005.jpg,,,,,,,,,,,,,,,,,,,,,,,,,,,,,,,,,,,,,,,,,,,0,0,0,4,1,,,,,,,,,,,,,,,,,,,,,,,,,,,,,,,,,,,,,,,,,,,,,,
405845,001,2022-11-21_24h49.16.872,Info_measure_main_exp,2022.2.2,Win32,59.62673663,,,,,,,,,,,,,,,,,,masks/mask_002.jpg,,,,,,,,,,,,,,,,,,,,,,,,,,,,,,,,,,,,,,,,,,,0,1,1,1,1,,,,,,,,,,,,,,,,,,,,,,,,,,,,,,,,,,,,,,,,,,,,,,
405845,001,2022-11-21_24h49.16.872,Info_measure_main_exp,2022.2.2,Win32,59.62673663,,,,,,,,,,,,,,,,,,masks/mask_004.jpg,,,,,,,,,,,,,,,,,,,,,,,,,,,,,,,,,,,,,,,,,,,0,2,2,3,1,,,,,,,,,,,,,,,,,,,,,,,,,,,,,,,,,,,,,,,,,,,,,,
405845,001,2022-11-21_24h49.16.872,Info_measure_main_exp,2022.2.2,Win32,59.62673663,,,,,,,,,,,,,,,,,,masks/mask_001.jpg,,,,,,,,,,,,,,,,,,,,,,,,,,,,,,,,,,,,,,,,,,,0,3,3,0,1,,,,,,,,,,,,,,,,,,,,,,,,,,,,,,,,,,,,,,,,,,,,,,
405845,001,2022-11-21_24h49.16.872,Info_measure_main_exp,2022.2.2,Win32,59.62673663,,,,,,,,,,,,,,,,,,masks/mask_003.jpg,,,,,,,,,,,,,,,,,,,,,,,,,,,,,,,,,,,,,,,,,,,0,4,4,2,1,,,,,,,,,,,,,,,,,,,,,,,,,,,,,,,,,,,,,,,,,,,,,,
405845,001,2022-11-21_24h49.16.872,Info_measure_main_exp,2022.2.2,Win32,59.62673663,,,,,,,,,,,,,,,,,,masks/mask_004.jpg,,,,,,,,,,,,,,,,,,,,,,,,,,,,,,,,,,,,,,,,,,,,,,,,0,0,0,3,1,,,,,,,,,,,,,,,,,,,,,,,,,,,,,,,,,,,,,,,,,
405845,001,2022-11-21_24h49.16.872,Info_measure_main_exp,2022.2.2,Win32,59.62673663,,,,,,,,,,,,,,,,,,masks/mask_001.jpg,,,,,,,,,,,,,,,,,,,,,,,,,,,,,,,,,,,,,,,,,,,,,,,,0,1,1,0,1,,,,,,,,,,,,,,,,,,,,,,,,,,,,,,,,,,,,,,,,,
405845,001,2022-11-21_24h49.16.872,Info_measure_main_exp,2022.2.2,Win32,59.62673663,,,,,,,,,,,,,,,,,,masks/mask_003.jpg,,,,,,,,,,,,,,,,,,,,,,,,,,,,,,,,,,,,,,,,,,,,,,,,0,2,2,2,1,,,,,,,,,,,,,,,,,,,,,,,,,,,,,,,,,,,,,,,,,
405845,001,2022-11-21_24h49.16.872,Info_measure_main_exp,2022.2.2,Win32,59.62673663,,,,,,,,,,,,,,,,,,masks/mask_002.jpg,,,,,,,,,,,,,,,,,,,,,,,,,,,,,,,,,,,,,,,,,,,,,,,,0,3,3,1,1,,,,,,,,,,,,,,,,,,,,,,,,,,,,,,,,,,,,,,,,,
405845,001,2022-11-21_24h49.16.872,Info_measure_main_exp,2022.2.2,Win32,59.62673663,,,,,,,,,,,,,,,,,,masks/mask_005.jpg,,,,,,,,,,,,,,,,,,,,,,,,,,,,,,,,,,,,,,,,,,,,,,,,0,4,4,4,1,,,,,,,,,,,,,,,,,,,,,,,,,,,,,,,,,,,,,,,,,
405845,001,2022-11-21_24h49.16.872,Info_measure_main_exp,2022.2.2,Win32,59.62673663,,,,,,,,,,,,,,,,,,,,,,,,,,,,,,7,0.6011,1,,,,,,,,,,,,0,131,5,5,2166,2154,absent_patch/patch0002166.jpg,absent_patch/patch0002154.jpg,,,,,,,,,,,,,,,,,,,,0.038888889,0.097222222,1,0,0,response1disk,33,0.000925926,0.003703704,1,0,0,center_square,0,32,32,79,1,,,,,,,,,,,,,,,,,,,,,,,
405845,001,2022-11-21_24h49.16.872,Info_measure_main_exp,2022.2.2,Win32,59.62673663,,,,,,,,,,,,,,,,,,masks/mask_004.jpg,,,,,,,,,,,,,,,,,,,,,,,,,,,,,,,,,,,,,,,,,,,0,0,0,3,1,,,,,,,,,,,,,,,,,,,,,,,,,,,,,,,,,,,,,,,,,,,,,,
405845,001,2022-11-21_24h49.16.872,Info_measure_main_exp,2022.2.2,Win32,59.62673663,,,,,,,,,,,,,,,,,,masks/mask_005.jpg,,,,,,,,,,,,,,,,,,,,,,,,,,,,,,,,,,,,,,,,,,,0,1,1,4,1,,,,,,,,,,,,,,,,,,,,,,,,,,,,,,,,,,,,,,,,,,,,,,
405845,001,2022-11-21_24h49.16.872,Info_measure_main_exp,2022.2.2,Win32,59.62673663,,,,,,,,,,,,,,,,,,masks/mask_003.jpg,,,,,,,,,,,,,,,,,,,,,,,,,,,,,,,,,,,,,,,,,,,0,2,2,2,1,,,,,,,,,,,,,,,,,,,,,,,,,,,,,,,,,,,,,,,,,,,,,,
405845,001,2022-11-21_24h49.16.872,Info_measure_main_exp,2022.2.2,Win32,59.62673663,,,,,,,,,,,,,,,,,,masks/mask_002.jpg,,,,,,,,,,,,,,,,,,,,,,,,,,,,,,,,,,,,,,,,,,,0,3,3,1,1,,,,,,,,,,,,,,,,,,,,,,,,,,,,,,,,,,,,,,,,,,,,,,
405845,001,2022-11-21_24h49.16.872,Info_measure_main_exp,2022.2.2,Win32,59.62673663,,,,,,,,,,,,,,,,,,masks/mask_001.jpg,,,,,,,,,,,,,,,,,,,,,,,,,,,,,,,,,,,,,,,,,,,0,4,4,0,1,,,,,,,,,,,,,,,,,,,,,,,,,,,,,,,,,,,,,,,,,,,,,,
405845,001,2022-11-21_24h49.16.872,Info_measure_main_exp,2022.2.2,Win32,59.62673663,,,,,,,,,,,,,,,,,,masks/mask_005.jpg,,,,,,,,,,,,,,,,,,,,,,,,,,,,,,,,,,,,,,,,,,,,,,,,0,0,0,4,1,,,,,,,,,,,,,,,,,,,,,,,,,,,,,,,,,,,,,,,,,
405845,001,2022-11-21_24h49.16.872,Info_measure_main_exp,2022.2.2,Win32,59.62673663,,,,,,,,,,,,,,,,,,masks/mask_004.jpg,,,,,,,,,,,,,,,,,,,,,,,,,,,,,,,,,,,,,,,,,,,,,,,,0,1,1,3,1,,,,,,,,,,,,,,,,,,,,,,,,,,,,,,,,,,,,,,,,,
405845,001,2022-11-21_24h49.16.872,Info_measure_main_exp,2022.2.2,Win32,59.62673663,,,,,,,,,,,,,,,,,,masks/mask_001.jpg,,,,,,,,,,,,,,,,,,,,,,,,,,,,,,,,,,,,,,,,,,,,,,,,0,2,2,0,1,,,,,,,,,,,,,,,,,,,,,,,,,,,,,,,,,,,,,,,,,
405845,001,2022-11-21_24h49.16.872,Info_measure_main_exp,2022.2.2,Win32,59.62673663,,,,,,,,,,,,,,,,,,masks/mask_002.jpg,,,,,,,,,,,,,,,,,,,,,,,,,,,,,,,,,,,,,,,,,,,,,,,,0,3,3,1,1,,,,,,,,,,,,,,,,,,,,,,,,,,,,,,,,,,,,,,,,,
405845,001,2022-11-21_24h49.16.872,Info_measure_main_exp,2022.2.2,Win32,59.62673663,,,,,,,,,,,,,,,,,,masks/mask_003.jpg,,,,,,,,,,,,,,,,,,,,,,,,,,,,,,,,,,,,,,,,,,,,,,,,0,4,4,2,1,,,,,,,,,,,,,,,,,,,,,,,,,,,,,,,,,,,,,,,,,
405845,001,2022-11-21_24h49.16.872,Info_measure_main_exp,2022.2.2,Win32,59.62673663,,,,,,,,,,,,,,,,,,,,,,,,,,,,,,7,0.4168,1,,,,,,,,,,,,0,131,5,5,2178,2154,absent_patch/patch0002178.jpg,absent_patch/patch0002154.jpg,,,,,,,,,,,,,,,,,,,,0.036111111,0.123148148,1,0,0,response1disk,34,-0.008333333,0.001851852,1,0,0,center_square,0,33,33,63,1,,,,,,,,,,,,,,,,,,,,,,,
405845,001,2022-11-21_24h49.16.872,Info_measure_main_exp,2022.2.2,Win32,59.62673663,,,,,,,,,,,,,,,,,,masks/mask_003.jpg,,,,,,,,,,,,,,,,,,,,,,,,,,,,,,,,,,,,,,,,,,,0,0,0,2,1,,,,,,,,,,,,,,,,,,,,,,,,,,,,,,,,,,,,,,,,,,,,,,
405845,001,2022-11-21_24h49.16.872,Info_measure_main_exp,2022.2.2,Win32,59.62673663,,,,,,,,,,,,,,,,,,masks/mask_001.jpg,,,,,,,,,,,,,,,,,,,,,,,,,,,,,,,,,,,,,,,,,,,0,1,1,0,1,,,,,,,,,,,,,,,,,,,,,,,,,,,,,,,,,,,,,,,,,,,,,,
405845,001,2022-11-21_24h49.16.872,Info_measure_main_exp,2022.2.2,Win32,59.62673663,,,,,,,,,,,,,,,,,,masks/mask_004.jpg,,,,,,,,,,,,,,,,,,,,,,,,,,,,,,,,,,,,,,,,,,,0,2,2,3,1,,,,,,,,,,,,,,,,,,,,,,,,,,,,,,,,,,,,,,,,,,,,,,
405845,001,2022-11-21_24h49.16.872,Info_measure_main_exp,2022.2.2,Win32,59.62673663,,,,,,,,,,,,,,,,,,masks/mask_005.jpg,,,,,,,,,,,,,,,,,,,,,,,,,,,,,,,,,,,,,,,,,,,0,3,3,4,1,,,,,,,,,,,,,,,,,,,,,,,,,,,,,,,,,,,,,,,,,,,,,,
405845,001,2022-11-21_24h49.16.872,Info_measure_main_exp,2022.2.2,Win32,59.62673663,,,,,,,,,,,,,,,,,,masks/mask_002.jpg,,,,,,,,,,,,,,,,,,,,,,,,,,,,,,,,,,,,,,,,,,,0,4,4,1,1,,,,,,,,,,,,,,,,,,,,,,,,,,,,,,,,,,,,,,,,,,,,,,
405845,001,2022-11-21_24h49.16.872,Info_measure_main_exp,2022.2.2,Win32,59.62673663,,,,,,,,,,,,,,,,,,masks/mask_005.jpg,,,,,,,,,,,,,,,,,,,,,,,,,,,,,,,,,,,,,,,,,,,,,,,,0,0,0,4,1,,,,,,,,,,,,,,,,,,,,,,,,,,,,,,,,,,,,,,,,,
405845,001,2022-11-21_24h49.16.872,Info_measure_main_exp,2022.2.2,Win32,59.62673663,,,,,,,,,,,,,,,,,,masks/mask_004.jpg,,,,,,,,,,,,,,,,,,,,,,,,,,,,,,,,,,,,,,,,,,,,,,,,0,1,1,3,1,,,,,,,,,,,,,,,,,,,,,,,,,,,,,,,,,,,,,,,,,
405845,001,2022-11-21_24h49.16.872,Info_measure_main_exp,2022.2.2,Win32,59.62673663,,,,,,,,,,,,,,,,,,masks/mask_001.jpg,,,,,,,,,,,,,,,,,,,,,,,,,,,,,,,,,,,,,,,,,,,,,,,,0,2,2,0,1,,,,,,,,,,,,,,,,,,,,,,,,,,,,,,,,,,,,,,,,,
405845,001,2022-11-21_24h49.16.872,Info_measure_main_exp,2022.2.2,Win32,59.62673663,,,,,,,,,,,,,,,,,,masks/mask_002.jpg,,,,,,,,,,,,,,,,,,,,,,,,,,,,,,,,,,,,,,,,,,,,,,,,0,3,3,1,1,,,,,,,,,,,,,,,,,,,,,,,,,,,,,,,,,,,,,,,,,
