participant,session,date,expName,psychopyVersion,OS,frameRate,space_press_continue.keys,space_press_continue.rt,space_press_continue_2.keys,space_press_continue_2.rt,space_press_continue_3.keys,space_press_continue_3.rt,space_press_continue_4.keys,space_press_continue_4.rt,space_press_continue_5.keys,space_press_continue_5.rt,space_press_continue_6.keys,space_press_continue_6.rt,prac_mask_loop_1.thisRepN,prac_mask_loop_1.thisTrialN,prac_mask_loop_1.thisN,prac_mask_loop_1.thisIndex,prac_mask_loop_1.ran,mask_name,prac_mask_loop_2.thisRepN,prac_mask_loop_2.thisTrialN,prac_mask_loop_2.thisN,prac_mask_loop_2.thisIndex,prac_mask_loop_2.ran,mouse_2.x,mouse_2.y,mouse_2.leftButton,mouse_2.midButton,mouse_2.rightButton,mouse_2.clicked_name,similarity,response_time,Pass,mouse_12.x,mouse_12.y,mouse_12.leftButton,mouse_12.midButton,mouse_12.rightButton,mouse_12.clicked_name,prac_loop.thisRepN,prac_loop.thisTrialN,prac_loop.thisN,prac_loop.thisIndex,prac_loop.ran,Pair_type,Image_num,Patch_1_loc,Patch_2_loc,Patch_1_info,Patch_2_info,Patch_1_name,Patch_2_name,mouse_1.x,mouse_1.y,mouse_1.leftButton,mouse_1.midButton,mouse_1.rightButton,mouse_1.time,mouse_1.clicked_name,space_press_continue_7.keys,mask_loop.thisRepN,mask_loop.thisTrialN,mask_loop.thisN,mask_loop.thisIndex,mask_loop.ran,mask_loop_2.thisRepN,mask_loop_2.thisTrialN,mask_loop_2.thisN,mask_loop_2.thisIndex,mask_loop_2.ran,mouse.x,mouse.y,mouse.leftButton,mouse.midButton,mouse.rightButton,mouse.clicked_name,trialNumber,mouse_11.x,mouse_11.y,mouse_11.leftButton,mouse_11.midButton,mouse_11.rightButton,mouse_11.clicked_name,first_pass_loop.thisRepN,first_pass_loop.thisTrialN,first_pass_loop.thisN,first_pass_loop.thisIndex,first_pass_loop.ran,mask_loop_3.thisRepN,mask_loop_3.thisTrialN,mask_loop_3.thisN,mask_loop_3.thisIndex,mask_loop_3.ran,mask_loop_4.thisRepN,mask_loop_4.thisTrialN,mask_loop_4.thisN,mask_loop_4.thisIndex,mask_loop_4.ran,mouse_3.x,mouse_3.y,mouse_3.leftButton,mouse_3.midButton,mouse_3.rightButton,mouse_3.clicked_name,double_pass_loop.thisRepN,double_pass_loop.thisTrialN,double_pass_loop.thisN,double_pass_loop.thisIndex,double_pass_loop.ran,space_exit.keys,space_exit.rt
417839,001,2022-11-20_23h52.59.358,Info_measure_main_exp,2022.2.2,Win32,143.7607821,,,,,,,,,,,,,,,,,,,,,,,,,,,,,,,,,,,,,,,,,,,,,,,,,,,,,,,,,,,,,,,,,,,,,,,,,,,,,,,,,,,,,,,,,,,,,,,,,,,,,,,,,,,,,,
417839,001,2022-11-20_23h52.59.358,Info_measure_main_exp,2022.2.2,Win32,143.7607821,,,,,,,,,,,,,,,,,,,,,,,,,,,,,,,,,,,,,,,,,,,,,,,,,,,,,,,,,,,,,,,,,,,,,,,,,,,,,,,,,,,,,,,,,,,,,,,,,,,,,,,,,,,,,,
417839,001,2022-11-20_23h52.59.358,Info_measure_main_exp,2022.2.2,Win32,143.7607821,space,7.6463,,,,,,,,,,,,,,,,,,,,,,,,,,,,,,,,,,,,,,,,,,,,,,,,,,,,,,,,,,,,,,,,,,,,,,,,,,,,,,,,,,,,,,,,,,,,,,,,,,,,,,,,,,,,
417839,001,2022-11-20_23h52.59.358,Info_measure_main_exp,2022.2.2,Win32,143.7607821,,,space,12.8029,,,,,,,,,,,,,,,,,,,,,,,,,,,,,,,,,,,,,,,,,,,,,,,,,,,,,,,,,,,,,,,,,,,,,,,,,,,,,,,,,,,,,,,,,,,,,,,,,,,,,,,,,,
417839,001,2022-11-20_23h52.59.358,Info_measure_main_exp,2022.2.2,Win32,143.7607821,,,,,space,8.482,,,,,,,,,,,,,,,,,,,,,,,,,,,,,,,,,,,,,,,,,,,,,,,,,,,,,,,,,,,,,,,,,,,,,,,,,,,,,,,,,,,,,,,,,,,,,,,,,,,,,,,,
417839,001,2022-11-20_23h52.59.358,Info_measure_main_exp,2022.2.2,Win32,143.7607821,,,,,,,space,15.4402,,,,,,,,,,,,,,,,,,,,,,,,,,,,,,,,,,,,,,,,,,,,,,,,,,,,,,,,,,,,,,,,,,,,,,,,,,,,,,,,,,,,,,,,,,,,,,,,,,,,,,
417839,001,2022-11-20_23h52.59.358,Info_measure_main_exp,2022.2.2,Win32,143.7607821,,,,,,,,,space,5.5906,,,,,,,,,,,,,,,,,,,,,,,,,,,,,,,,,,,,,,,,,,,,,,,,,,,,,,,,,,,,,,,,,,,,,,,,,,,,,,,,,,,,,,,,,,,,,,,,,,,,
417839,001,2022-11-20_23h52.59.358,Info_measure_main_exp,2022.2.2,Win32,143.7607821,,,,,,,,,,,space,2.9996,,,,,,,,,,,,,,,,,,,,,,,,,,,,,,,,,,,,,,,,,,,,,,,,,,,,,,,,,,,,,,,,,,,,,,,,,,,,,,,,,,,,,,,,,,,,,,,,,,
417839,001,2022-11-20_23h52.59.358,Info_measure_main_exp,2022.2.2,Win32,143.7607821,,,,,,,,,,,,,0,0,0,4,1,masks/mask_005.jpg,,,,,,,,,,,,,,,,,,,,,,,,,,,,,,,,,,,,,,,,,,,,,,,,,,,,,,,,,,,,,,,,,,,,,,,,,,,,,,,,,,,,,,,,,,,,
417839,001,2022-11-20_23h52.59.358,Info_measure_main_exp,2022.2.2,Win32,143.7607821,,,,,,,,,,,,,0,1,1,2,1,masks/mask_003.jpg,,,,,,,,,,,,,,,,,,,,,,,,,,,,,,,,,,,,,,,,,,,,,,,,,,,,,,,,,,,,,,,,,,,,,,,,,,,,,,,,,,,,,,,,,,,,
417839,001,2022-11-20_23h52.59.358,Info_measure_main_exp,2022.2.2,Win32,143.7607821,,,,,,,,,,,,,0,2,2,1,1,masks/mask_002.jpg,,,,,,,,,,,,,,,,,,,,,,,,,,,,,,,,,,,,,,,,,,,,,,,,,,,,,,,,,,,,,,,,,,,,,,,,,,,,,,,,,,,,,,,,,,,,
417839,001,2022-11-20_23h52.59.358,Info_measure_main_exp,2022.2.2,Win32,143.7607821,,,,,,,,,,,,,0,3,3,0,1,masks/mask_001.jpg,,,,,,,,,,,,,,,,,,,,,,,,,,,,,,,,,,,,,,,,,,,,,,,,,,,,,,,,,,,,,,,,,,,,,,,,,,,,,,,,,,,,,,,,,,,,
417839,001,2022-11-20_23h52.59.358,Info_measure_main_exp,2022.2.2,Win32,143.7607821,,,,,,,,,,,,,0,4,4,3,1,masks/mask_004.jpg,,,,,,,,,,,,,,,,,,,,,,,,,,,,,,,,,,,,,,,,,,,,,,,,,,,,,,,,,,,,,,,,,,,,,,,,,,,,,,,,,,,,,,,,,,,,
417839,001,2022-11-20_23h52.59.358,Info_measure_main_exp,2022.2.2,Win32,143.7607821,,,,,,,,,,,,,,,,,,masks/mask_003.jpg,0,0,0,2,1,,,,,,,,,,,,,,,,,,,,,,,,,,,,,,,,,,,,,,,,,,,,,,,,,,,,,,,,,,,,,,,,,,,,,,,,,,,,,,,,,,,,,,,
417839,001,2022-11-20_23h52.59.358,Info_measure_main_exp,2022.2.2,Win32,143.7607821,,,,,,,,,,,,,,,,,,masks/mask_002.jpg,0,1,1,1,1,,,,,,,,,,,,,,,,,,,,,,,,,,,,,,,,,,,,,,,,,,,,,,,,,,,,,,,,,,,,,,,,,,,,,,,,,,,,,,,,,,,,,,,
417839,001,2022-11-20_23h52.59.358,Info_measure_main_exp,2022.2.2,Win32,143.7607821,,,,,,,,,,,,,,,,,,masks/mask_004.jpg,0,2,2,3,1,,,,,,,,,,,,,,,,,,,,,,,,,,,,,,,,,,,,,,,,,,,,,,,,,,,,,,,,,,,,,,,,,,,,,,,,,,,,,,,,,,,,,,,
417839,001,2022-11-20_23h52.59.358,Info_measure_main_exp,2022.2.2,Win32,143.7607821,,,,,,,,,,,,,,,,,,masks/mask_005.jpg,0,3,3,4,1,,,,,,,,,,,,,,,,,,,,,,,,,,,,,,,,,,,,,,,,,,,,,,,,,,,,,,,,,,,,,,,,,,,,,,,,,,,,,,,,,,,,,,,
417839,001,2022-11-20_23h52.59.358,Info_measure_main_exp,2022.2.2,Win32,143.7607821,,,,,,,,,,,,,,,,,,masks/mask_001.jpg,0,4,4,0,1,,,,,,,,,,,,,,,,,,,,,,,,,,,,,,,,,,,,,,,,,,,,,,,,,,,,,,,,,,,,,,,,,,,,,,,,,,,,,,,,,,,,,,,
417839,001,2022-11-20_23h52.59.358,Info_measure_main_exp,2022.2.2,Win32,143.7607821,,,,,,,,,,,,,,,,,,,,,,,,0.05462963,-0.091666667,1,0,0,response3disk,4,58.7024,1,0.005555556,0,1,0,0,center_square,0,0,0,0,1,0,131,5,5,2370,2406,prac_patch/patch0002370.jpg,prac_patch/patch0002406.jpg,,,,,,,,,,,,,,,,,,,,,,,,,,,,,,,,,,,,,,,,,,,,,,,,,,,,,,,,,,,
417839,001,2022-11-20_23h52.59.358,Info_measure_main_exp,2022.2.2,Win32,143.7607821,,,,,,,,,,,,,0,0,0,0,1,masks/mask_001.jpg,,,,,,,,,,,,,,,,,,,,,,,,,,,,,,,,,,,,,,,,,,,,,,,,,,,,,,,,,,,,,,,,,,,,,,,,,,,,,,,,,,,,,,,,,,,,
417839,001,2022-11-20_23h52.59.358,Info_measure_main_exp,2022.2.2,Win32,143.7607821,,,,,,,,,,,,,0,1,1,4,1,masks/mask_005.jpg,,,,,,,,,,,,,,,,,,,,,,,,,,,,,,,,,,,,,,,,,,,,,,,,,,,,,,,,,,,,,,,,,,,,,,,,,,,,,,,,,,,,,,,,,,,,
417839,001,2022-11-20_23h52.59.358,Info_measure_main_exp,2022.2.2,Win32,143.7607821,,,,,,,,,,,,,0,2,2,3,1,masks/mask_004.jpg,,,,,,,,,,,,,,,,,,,,,,,,,,,,,,,,,,,,,,,,,,,,,,,,,,,,,,,,,,,,,,,,,,,,,,,,,,,,,,,,,,,,,,,,,,,,
417839,001,2022-11-20_23h52.59.358,Info_measure_main_exp,2022.2.2,Win32,143.7607821,,,,,,,,,,,,,0,3,3,2,1,masks/mask_003.jpg,,,,,,,,,,,,,,,,,,,,,,,,,,,,,,,,,,,,,,,,,,,,,,,,,,,,,,,,,,,,,,,,,,,,,,,,,,,,,,,,,,,,,,,,,,,,
417839,001,2022-11-20_23h52.59.358,Info_measure_main_exp,2022.2.2,Win32,143.7607821,,,,,,,,,,,,,0,4,4,1,1,masks/mask_002.jpg,,,,,,,,,,,,,,,,,,,,,,,,,,,,,,,,,,,,,,,,,,,,,,,,,,,,,,,,,,,,,,,,,,,,,,,,,,,,,,,,,,,,,,,,,,,,
417839,001,2022-11-20_23h52.59.358,Info_measure_main_exp,2022.2.2,Win32,143.7607821,,,,,,,,,,,,,,,,,,masks/mask_002.jpg,0,0,0,1,1,,,,,,,,,,,,,,,,,,,,,,,,,,,,,,,,,,,,,,,,,,,,,,,,,,,,,,,,,,,,,,,,,,,,,,,,,,,,,,,,,,,,,,,
417839,001,2022-11-20_23h52.59.358,Info_measure_main_exp,2022.2.2,Win32,143.7607821,,,,,,,,,,,,,,,,,,masks/mask_004.jpg,0,1,1,3,1,,,,,,,,,,,,,,,,,,,,,,,,,,,,,,,,,,,,,,,,,,,,,,,,,,,,,,,,,,,,,,,,,,,,,,,,,,,,,,,,,,,,,,,
417839,001,2022-11-20_23h52.59.358,Info_measure_main_exp,2022.2.2,Win32,143.7607821,,,,,,,,,,,,,,,,,,masks/mask_005.jpg,0,2,2,4,1,,,,,,,,,,,,,,,,,,,,,,,,,,,,,,,,,,,,,,,,,,,,,,,,,,,,,,,,,,,,,,,,,,,,,,,,,,,,,,,,,,,,,,,
417839,001,2022-11-20_23h52.59.358,Info_measure_main_exp,2022.2.2,Win32,143.7607821,,,,,,,,,,,,,,,,,,masks/mask_003.jpg,0,3,3,2,1,,,,,,,,,,,,,,,,,,,,,,,,,,,,,,,,,,,,,,,,,,,,,,,,,,,,,,,,,,,,,,,,,,,,,,,,,,,,,,,,,,,,,,,
417839,001,2022-11-20_23h52.59.358,Info_measure_main_exp,2022.2.2,Win32,143.7607821,,,,,,,,,,,,,,,,,,masks/mask_001.jpg,0,4,4,0,1,,,,,,,,,,,,,,,,,,,,,,,,,,,,,,,,,,,,,,,,,,,,,,,,,,,,,,,,,,,,,,,,,,,,,,,,,,,,,,,,,,,,,,,
417839,001,2022-11-20_23h52.59.358,Info_measure_main_exp,2022.2.2,Win32,143.7607821,,,,,,,,,,,,,,,,,,,,,,,,0.15,0.035185185,1,0,0,response1disk,6,68.6078,1,0.000925926,-0.003703704,1,0,0,center_square,0,1,1,1,1,0,131,5,5,2514,2490,prac_patch/patch0002514.jpg,prac_patch/patch0002490.jpg,,,,,,,,,,,,,,,,,,,,,,,,,,,,,,,,,,,,,,,,,,,,,,,,,,,,,,,,,,,
417839,001,2022-11-20_23h52.59.358,Info_measure_main_exp,2022.2.2,Win32,143.7607821,,,,,,,,,,,,,0,0,0,4,1,masks/mask_005.jpg,,,,,,,,,,,,,,,,,,,,,,,,,,,,,,,,,,,,,,,,,,,,,,,,,,,,,,,,,,,,,,,,,,,,,,,,,,,,,,,,,,,,,,,,,,,,
417839,001,2022-11-20_23h52.59.358,Info_measure_main_exp,2022.2.2,Win32,143.7607821,,,,,,,,,,,,,0,1,1,2,1,masks/mask_003.jpg,,,,,,,,,,,,,,,,,,,,,,,,,,,,,,,,,,,,,,,,,,,,,,,,,,,,,,,,,,,,,,,,,,,,,,,,,,,,,,,,,,,,,,,,,,,,
417839,001,2022-11-20_23h52.59.358,Info_measure_main_exp,2022.2.2,Win32,143.7607821,,,,,,,,,,,,,0,2,2,0,1,masks/mask_001.jpg,,,,,,,,,,,,,,,,,,,,,,,,,,,,,,,,,,,,,,,,,,,,,,,,,,,,,,,,,,,,,,,,,,,,,,,,,,,,,,,,,,,,,,,,,,,,
417839,001,2022-11-20_23h52.59.358,Info_measure_main_exp,2022.2.2,Win32,143.7607821,,,,,,,,,,,,,0,3,3,1,1,masks/mask_002.jpg,,,,,,,,,,,,,,,,,,,,,,,,,,,,,,,,,,,,,,,,,,,,,,,,,,,,,,,,,,,,,,,,,,,,,,,,,,,,,,,,,,,,,,,,,,,,
417839,001,2022-11-20_23h52.59.358,Info_measure_main_exp,2022.2.2,Win32,143.7607821,,,,,,,,,,,,,0,4,4,3,1,masks/mask_004.jpg,,,,,,,,,,,,,,,,,,,,,,,,,,,,,,,,,,,,,,,,,,,,,,,,,,,,,,,,,,,,,,,,,,,,,,,,,,,,,,,,,,,,,,,,,,,,
417839,001,2022-11-20_23h52.59.358,Info_measure_main_exp,2022.2.2,Win32,143.7607821,,,,,,,,,,,,,,,,,,masks/mask_002.jpg,0,0,0,1,1,,,,,,,,,,,,,,,,,,,,,,,,,,,,,,,,,,,,,,,,,,,,,,,,,,,,,,,,,,,,,,,,,,,,,,,,,,,,,,,,,,,,,,,
417839,001,2022-11-20_23h52.59.358,Info_measure_main_exp,2022.2.2,Win32,143.7607821,,,,,,,,,,,,,,,,,,masks/mask_004.jpg,0,1,1,3,1,,,,,,,,,,,,,,,,,,,,,,,,,,,,,,,,,,,,,,,,,,,,,,,,,,,,,,,,,,,,,,,,,,,,,,,,,,,,,,,,,,,,,,,
417839,001,2022-11-20_23h52.59.358,Info_measure_main_exp,2022.2.2,Win32,143.7607821,,,,,,,,,,,,,,,,,,masks/mask_003.jpg,0,2,2,2,1,,,,,,,,,,,,,,,,,,,,,,,,,,,,,,,,,,,,,,,,,,,,,,,,,,,,,,,,,,,,,,,,,,,,,,,,,,,,,,,,,,,,,,,
417839,001,2022-11-20_23h52.59.358,Info_measure_main_exp,2022.2.2,Win32,143.7607821,,,,,,,,,,,,,,,,,,masks/mask_005.jpg,0,3,3,4,1,,,,,,,,,,,,,,,,,,,,,,,,,,,,,,,,,,,,,,,,,,,,,,,,,,,,,,,,,,,,,,,,,,,,,,,,,,,,,,,,,,,,,,,
417839,001,2022-11-20_23h52.59.358,Info_measure_main_exp,2022.2.2,Win32,143.7607821,,,,,,,,,,,,,,,,,,masks/mask_001.jpg,0,4,4,0,1,,,,,,,,,,,,,,,,,,,,,,,,,,,,,,,,,,,,,,,,,,,,,,,,,,,,,,,,,,,,,,,,,,,,,,,,,,,,,,,,,,,,,,,
417839,001,2022-11-20_23h52.59.358,Info_measure_main_exp,2022.2.2,Win32,143.7607821,,,,,,,,,,,,,,,,,,,,,,,,-0.035185185,0.139814815,1,0,0,response7disk,0,77.0401,1,-0.002777778,-0.002777778,1,0,0,center_square,0,2,2,2,1,0,131,5,5,2526,2526,prac_patch/patch0002526.jpg,prac_patch/patch0002526.jpg,,,,,,,,,,,,,,,,,,,,,,,,,,,,,,,,,,,,,,,,,,,,,,,,,,,,,,,,,,,
417839,001,2022-11-20_23h52.59.358,Info_measure_main_exp,2022.2.2,Win32,143.7607821,,,,,,,,,,,,,,,,,,,,,,,,,,,,,,,,,,,,,,,,,,,,,,,,,,,,-0.002777778,-0.002777778,1,0,0,0.0129,center_square,,,,,,,,,,,,,,,,,,,,,,,,,,,,,,,,,,,,,,,,,,,,,,,,,,,,
417839,001,2022-11-20_23h52.59.358,Info_measure_main_exp,2022.2.2,Win32,143.7607821,,,,,,,,,,,,,,,,,,masks/mask_003.jpg,,,,,,,,,,,,,,,,,,,,,,,,,,,,,,,,,,,,,,,,,,0,0,0,2,1,,,,,,,,,,,,,,,,,,,,,,,,,,,,,,,,,,,,,,,,,,,,,,
417839,001,2022-11-20_23h52.59.358,Info_measure_main_exp,2022.2.2,Win32,143.7607821,,,,,,,,,,,,,,,,,,masks/mask_001.jpg,,,,,,,,,,,,,,,,,,,,,,,,,,,,,,,,,,,,,,,,,,0,1,1,0,1,,,,,,,,,,,,,,,,,,,,,,,,,,,,,,,,,,,,,,,,,,,,,,
417839,001,2022-11-20_23h52.59.358,Info_measure_main_exp,2022.2.2,Win32,143.7607821,,,,,,,,,,,,,,,,,,masks/mask_002.jpg,,,,,,,,,,,,,,,,,,,,,,,,,,,,,,,,,,,,,,,,,,0,2,2,1,1,,,,,,,,,,,,,,,,,,,,,,,,,,,,,,,,,,,,,,,,,,,,,,
417839,001,2022-11-20_23h52.59.358,Info_measure_main_exp,2022.2.2,Win32,143.7607821,,,,,,,,,,,,,,,,,,masks/mask_005.jpg,,,,,,,,,,,,,,,,,,,,,,,,,,,,,,,,,,,,,,,,,,0,3,3,4,1,,,,,,,,,,,,,,,,,,,,,,,,,,,,,,,,,,,,,,,,,,,,,,
417839,001,2022-11-20_23h52.59.358,Info_measure_main_exp,2022.2.2,Win32,143.7607821,,,,,,,,,,,,,,,,,,masks/mask_004.jpg,,,,,,,,,,,,,,,,,,,,,,,,,,,,,,,,,,,,,,,,,,0,4,4,3,1,,,,,,,,,,,,,,,,,,,,,,,,,,,,,,,,,,,,,,,,,,,,,,
417839,001,2022-11-20_23h52.59.358,Info_measure_main_exp,2022.2.2,Win32,143.7607821,,,,,,,,,,,,,,,,,,masks/mask_005.jpg,,,,,,,,,,,,,,,,,,,,,,,,,,,,,,,,,,,,,,,,,,,,,,,0,0,0,4,1,,,,,,,,,,,,,,,,,,,,,,,,,,,,,,,,,,,,,,,,,
417839,001,2022-11-20_23h52.59.358,Info_measure_main_exp,2022.2.2,Win32,143.7607821,,,,,,,,,,,,,,,,,,masks/mask_001.jpg,,,,,,,,,,,,,,,,,,,,,,,,,,,,,,,,,,,,,,,,,,,,,,,0,1,1,0,1,,,,,,,,,,,,,,,,,,,,,,,,,,,,,,,,,,,,,,,,,
417839,001,2022-11-20_23h52.59.358,Info_measure_main_exp,2022.2.2,Win32,143.7607821,,,,,,,,,,,,,,,,,,masks/mask_002.jpg,,,,,,,,,,,,,,,,,,,,,,,,,,,,,,,,,,,,,,,,,,,,,,,0,2,2,1,1,,,,,,,,,,,,,,,,,,,,,,,,,,,,,,,,,,,,,,,,,
417839,001,2022-11-20_23h52.59.358,Info_measure_main_exp,2022.2.2,Win32,143.7607821,,,,,,,,,,,,,,,,,,masks/mask_003.jpg,,,,,,,,,,,,,,,,,,,,,,,,,,,,,,,,,,,,,,,,,,,,,,,0,3,3,2,1,,,,,,,,,,,,,,,,,,,,,,,,,,,,,,,,,,,,,,,,,
417839,001,2022-11-20_23h52.59.358,Info_measure_main_exp,2022.2.2,Win32,143.7607821,,,,,,,,,,,,,,,,,,masks/mask_004.jpg,,,,,,,,,,,,,,,,,,,,,,,,,,,,,,,,,,,,,,,,,,,,,,,0,4,4,3,1,,,,,,,,,,,,,,,,,,,,,,,,,,,,,,,,,,,,,,,,,
417839,001,2022-11-20_23h52.59.358,Info_measure_main_exp,2022.2.2,Win32,143.7607821,,,,,,,,,,,,,,,,,,,,,,,,,,,,,,3,1.3124,1,,,,,,,,,,,,0,131,5,5,2190,2250,absent_patch/patch0002190.jpg,absent_patch/patch0002250.jpg,,,,,,,,,,,,,,,,,,,-0.027777778,-0.072222222,1,0,0,response5disk,1,0.005555556,-0.013888889,1,0,0,center_square,0,0,0,93,1,,,,,,,,,,,,,,,,,,,,,,,
417839,001,2022-11-20_23h52.59.358,Info_measure_main_exp,2022.2.2,Win32,143.7607821,,,,,,,,,,,,,,,,,,masks/mask_003.jpg,,,,,,,,,,,,,,,,,,,,,,,,,,,,,,,,,,,,,,,,,,0,0,0,2,1,,,,,,,,,,,,,,,,,,,,,,,,,,,,,,,,,,,,,,,,,,,,,,
417839,001,2022-11-20_23h52.59.358,Info_measure_main_exp,2022.2.2,Win32,143.7607821,,,,,,,,,,,,,,,,,,masks/mask_005.jpg,,,,,,,,,,,,,,,,,,,,,,,,,,,,,,,,,,,,,,,,,,0,1,1,4,1,,,,,,,,,,,,,,,,,,,,,,,,,,,,,,,,,,,,,,,,,,,,,,
417839,001,2022-11-20_23h52.59.358,Info_measure_main_exp,2022.2.2,Win32,143.7607821,,,,,,,,,,,,,,,,,,masks/mask_004.jpg,,,,,,,,,,,,,,,,,,,,,,,,,,,,,,,,,,,,,,,,,,0,2,2,3,1,,,,,,,,,,,,,,,,,,,,,,,,,,,,,,,,,,,,,,,,,,,,,,
417839,001,2022-11-20_23h52.59.358,Info_measure_main_exp,2022.2.2,Win32,143.7607821,,,,,,,,,,,,,,,,,,masks/mask_001.jpg,,,,,,,,,,,,,,,,,,,,,,,,,,,,,,,,,,,,,,,,,,0,3,3,0,1,,,,,,,,,,,,,,,,,,,,,,,,,,,,,,,,,,,,,,,,,,,,,,
417839,001,2022-11-20_23h52.59.358,Info_measure_main_exp,2022.2.2,Win32,143.7607821,,,,,,,,,,,,,,,,,,masks/mask_002.jpg,,,,,,,,,,,,,,,,,,,,,,,,,,,,,,,,,,,,,,,,,,0,4,4,1,1,,,,,,,,,,,,,,,,,,,,,,,,,,,,,,,,,,,,,,,,,,,,,,
417839,001,2022-11-20_23h52.59.358,Info_measure_main_exp,2022.2.2,Win32,143.7607821,,,,,,,,,,,,,,,,,,masks/mask_002.jpg,,,,,,,,,,,,,,,,,,,,,,,,,,,,,,,,,,,,,,,,,,,,,,,0,0,0,1,1,,,,,,,,,,,,,,,,,,,,,,,,,,,,,,,,,,,,,,,,,
417839,001,2022-11-20_23h52.59.358,Info_measure_main_exp,2022.2.2,Win32,143.7607821,,,,,,,,,,,,,,,,,,masks/mask_004.jpg,,,,,,,,,,,,,,,,,,,,,,,,,,,,,,,,,,,,,,,,,,,,,,,0,1,1,3,1,,,,,,,,,,,,,,,,,,,,,,,,,,,,,,,,,,,,,,,,,
417839,001,2022-11-20_23h52.59.358,Info_measure_main_exp,2022.2.2,Win32,143.7607821,,,,,,,,,,,,,,,,,,masks/mask_005.jpg,,,,,,,,,,,,,,,,,,,,,,,,,,,,,,,,,,,,,,,,,,,,,,,0,2,2,4,1,,,,,,,,,,,,,,,,,,,,,,,,,,,,,,,,,,,,,,,,,
417839,001,2022-11-20_23h52.59.358,Info_measure_main_exp,2022.2.2,Win32,143.7607821,,,,,,,,,,,,,,,,,,masks/mask_001.jpg,,,,,,,,,,,,,,,,,,,,,,,,,,,,,,,,,,,,,,,,,,,,,,,0,3,3,0,1,,,,,,,,,,,,,,,,,,,,,,,,,,,,,,,,,,,,,,,,,
417839,001,2022-11-20_23h52.59.358,Info_measure_main_exp,2022.2.2,Win32,143.7607821,,,,,,,,,,,,,,,,,,masks/mask_003.jpg,,,,,,,,,,,,,,,,,,,,,,,,,,,,,,,,,,,,,,,,,,,,,,,0,4,4,2,1,,,,,,,,,,,,,,,,,,,,,,,,,,,,,,,,,,,,,,,,,
417839,001,2022-11-20_23h52.59.358,Info_measure_main_exp,2022.2.2,Win32,143.7607821,,,,,,,,,,,,,,,,,,,,,,,,,,,,,,4,1.8402,1,,,,,,,,,,,,0,131,5,5,1950,2166,absent_patch/patch0001950.jpg,absent_patch/patch0002166.jpg,,,,,,,,,,,,,,,,,,,0.062962963,-0.107407407,1,0,0,response3disk,2,0.015740741,-0.015740741,1,0,0,center_square,0,1,1,0,1,,,,,,,,,,,,,,,,,,,,,,,
417839,001,2022-11-20_23h52.59.358,Info_measure_main_exp,2022.2.2,Win32,143.7607821,,,,,,,,,,,,,,,,,,masks/mask_005.jpg,,,,,,,,,,,,,,,,,,,,,,,,,,,,,,,,,,,,,,,,,,0,0,0,4,1,,,,,,,,,,,,,,,,,,,,,,,,,,,,,,,,,,,,,,,,,,,,,,
417839,001,2022-11-20_23h52.59.358,Info_measure_main_exp,2022.2.2,Win32,143.7607821,,,,,,,,,,,,,,,,,,masks/mask_001.jpg,,,,,,,,,,,,,,,,,,,,,,,,,,,,,,,,,,,,,,,,,,0,1,1,0,1,,,,,,,,,,,,,,,,,,,,,,,,,,,,,,,,,,,,,,,,,,,,,,
417839,001,2022-11-20_23h52.59.358,Info_measure_main_exp,2022.2.2,Win32,143.7607821,,,,,,,,,,,,,,,,,,masks/mask_003.jpg,,,,,,,,,,,,,,,,,,,,,,,,,,,,,,,,,,,,,,,,,,0,2,2,2,1,,,,,,,,,,,,,,,,,,,,,,,,,,,,,,,,,,,,,,,,,,,,,,
417839,001,2022-11-20_23h52.59.358,Info_measure_main_exp,2022.2.2,Win32,143.7607821,,,,,,,,,,,,,,,,,,masks/mask_004.jpg,,,,,,,,,,,,,,,,,,,,,,,,,,,,,,,,,,,,,,,,,,0,3,3,3,1,,,,,,,,,,,,,,,,,,,,,,,,,,,,,,,,,,,,,,,,,,,,,,
417839,001,2022-11-20_23h52.59.358,Info_measure_main_exp,2022.2.2,Win32,143.7607821,,,,,,,,,,,,,,,,,,masks/mask_002.jpg,,,,,,,,,,,,,,,,,,,,,,,,,,,,,,,,,,,,,,,,,,0,4,4,1,1,,,,,,,,,,,,,,,,,,,,,,,,,,,,,,,,,,,,,,,,,,,,,,
417839,001,2022-11-20_23h52.59.358,Info_measure_main_exp,2022.2.2,Win32,143.7607821,,,,,,,,,,,,,,,,,,masks/mask_002.jpg,,,,,,,,,,,,,,,,,,,,,,,,,,,,,,,,,,,,,,,,,,,,,,,0,0,0,1,1,,,,,,,,,,,,,,,,,,,,,,,,,,,,,,,,,,,,,,,,,
417839,001,2022-11-20_23h52.59.358,Info_measure_main_exp,2022.2.2,Win32,143.7607821,,,,,,,,,,,,,,,,,,masks/mask_004.jpg,,,,,,,,,,,,,,,,,,,,,,,,,,,,,,,,,,,,,,,,,,,,,,,0,1,1,3,1,,,,,,,,,,,,,,,,,,,,,,,,,,,,,,,,,,,,,,,,,
417839,001,2022-11-20_23h52.59.358,Info_measure_main_exp,2022.2.2,Win32,143.7607821,,,,,,,,,,,,,,,,,,masks/mask_005.jpg,,,,,,,,,,,,,,,,,,,,,,,,,,,,,,,,,,,,,,,,,,,,,,,0,2,2,4,1,,,,,,,,,,,,,,,,,,,,,,,,,,,,,,,,,,,,,,,,,
417839,001,2022-11-20_23h52.59.358,Info_measure_main_exp,2022.2.2,Win32,143.7607821,,,,,,,,,,,,,,,,,,masks/mask_001.jpg,,,,,,,,,,,,,,,,,,,,,,,,,,,,,,,,,,,,,,,,,,,,,,,0,3,3,0,1,,,,,,,,,,,,,,,,,,,,,,,,,,,,,,,,,,,,,,,,,
417839,001,2022-11-20_23h52.59.358,Info_measure_main_exp,2022.2.2,Win32,143.7607821,,,,,,,,,,,,,,,,,,masks/mask_003.jpg,,,,,,,,,,,,,,,,,,,,,,,,,,,,,,,,,,,,,,,,,,,,,,,0,4,4,2,1,,,,,,,,,,,,,,,,,,,,,,,,,,,,,,,,,,,,,,,,,
417839,001,2022-11-20_23h52.59.358,Info_measure_main_exp,2022.2.2,Win32,143.7607821,,,,,,,,,,,,,,,,,,,,,,,,,,,,,,3,1.899,1,,,,,,,,,,,,0,131,5,5,2082,1986,absent_patch/patch0002082.jpg,absent_patch/patch0001986.jpg,,,,,,,,,,,,,,,,,,,-0.065740741,-0.081481481,1,0,0,response5disk,3,-0.012037037,0,1,0,0,center_square,0,2,2,94,1,,,,,,,,,,,,,,,,,,,,,,,
417839,001,2022-11-20_23h52.59.358,Info_measure_main_exp,2022.2.2,Win32,143.7607821,,,,,,,,,,,,,,,,,,masks/mask_002.jpg,,,,,,,,,,,,,,,,,,,,,,,,,,,,,,,,,,,,,,,,,,0,0,0,1,1,,,,,,,,,,,,,,,,,,,,,,,,,,,,,,,,,,,,,,,,,,,,,,
417839,001,2022-11-20_23h52.59.358,Info_measure_main_exp,2022.2.2,Win32,143.7607821,,,,,,,,,,,,,,,,,,masks/mask_004.jpg,,,,,,,,,,,,,,,,,,,,,,,,,,,,,,,,,,,,,,,,,,0,1,1,3,1,,,,,,,,,,,,,,,,,,,,,,,,,,,,,,,,,,,,,,,,,,,,,,
417839,001,2022-11-20_23h52.59.358,Info_measure_main_exp,2022.2.2,Win32,143.7607821,,,,,,,,,,,,,,,,,,masks/mask_003.jpg,,,,,,,,,,,,,,,,,,,,,,,,,,,,,,,,,,,,,,,,,,0,2,2,2,1,,,,,,,,,,,,,,,,,,,,,,,,,,,,,,,,,,,,,,,,,,,,,,
417839,001,2022-11-20_23h52.59.358,Info_measure_main_exp,2022.2.2,Win32,143.7607821,,,,,,,,,,,,,,,,,,masks/mask_005.jpg,,,,,,,,,,,,,,,,,,,,,,,,,,,,,,,,,,,,,,,,,,0,3,3,4,1,,,,,,,,,,,,,,,,,,,,,,,,,,,,,,,,,,,,,,,,,,,,,,
417839,001,2022-11-20_23h52.59.358,Info_measure_main_exp,2022.2.2,Win32,143.7607821,,,,,,,,,,,,,,,,,,masks/mask_001.jpg,,,,,,,,,,,,,,,,,,,,,,,,,,,,,,,,,,,,,,,,,,0,4,4,0,1,,,,,,,,,,,,,,,,,,,,,,,,,,,,,,,,,,,,,,,,,,,,,,
417839,001,2022-11-20_23h52.59.358,Info_measure_main_exp,2022.2.2,Win32,143.7607821,,,,,,,,,,,,,,,,,,masks/mask_003.jpg,,,,,,,,,,,,,,,,,,,,,,,,,,,,,,,,,,,,,,,,,,,,,,,0,0,0,2,1,,,,,,,,,,,,,,,,,,,,,,,,,,,,,,,,,,,,,,,,,
417839,001,2022-11-20_23h52.59.358,Info_measure_main_exp,2022.2.2,Win32,143.7607821,,,,,,,,,,,,,,,,,,masks/mask_004.jpg,,,,,,,,,,,,,,,,,,,,,,,,,,,,,,,,,,,,,,,,,,,,,,,0,1,1,3,1,,,,,,,,,,,,,,,,,,,,,,,,,,,,,,,,,,,,,,,,,
417839,001,2022-11-20_23h52.59.358,Info_measure_main_exp,2022.2.2,Win32,143.7607821,,,,,,,,,,,,,,,,,,masks/mask_002.jpg,,,,,,,,,,,,,,,,,,,,,,,,,,,,,,,,,,,,,,,,,,,,,,,0,2,2,1,1,,,,,,,,,,,,,,,,,,,,,,,,,,,,,,,,,,,,,,,,,
417839,001,2022-11-20_23h52.59.358,Info_measure_main_exp,2022.2.2,Win32,143.7607821,,,,,,,,,,,,,,,,,,masks/mask_001.jpg,,,,,,,,,,,,,,,,,,,,,,,,,,,,,,,,,,,,,,,,,,,,,,,0,3,3,0,1,,,,,,,,,,,,,,,,,,,,,,,,,,,,,,,,,,,,,,,,,
417839,001,2022-11-20_23h52.59.358,Info_measure_main_exp,2022.2.2,Win32,143.7607821,,,,,,,,,,,,,,,,,,masks/mask_005.jpg,,,,,,,,,,,,,,,,,,,,,,,,,,,,,,,,,,,,,,,,,,,,,,,0,4,4,4,1,,,,,,,,,,,,,,,,,,,,,,,,,,,,,,,,,,,,,,,,,
417839,001,2022-11-20_23h52.59.358,Info_measure_main_exp,2022.2.2,Win32,143.7607821,,,,,,,,,,,,,,,,,,,,,,,,,,,,,,0,0.622,1,,,,,,,,,,,,0,131,5,5,2142,2190,absent_patch/patch0002142.jpg,absent_patch/patch0002190.jpg,,,,,,,,,,,,,,,,,,,-0.069444444,0.107407407,1,0,0,response7disk,4,0.007407407,0.00462963,1,0,0,center_square,0,3,3,70,1,,,,,,,,,,,,,,,,,,,,,,,
417839,001,2022-11-20_23h52.59.358,Info_measure_main_exp,2022.2.2,Win32,143.7607821,,,,,,,,,,,,,,,,,,masks/mask_005.jpg,,,,,,,,,,,,,,,,,,,,,,,,,,,,,,,,,,,,,,,,,,0,0,0,4,1,,,,,,,,,,,,,,,,,,,,,,,,,,,,,,,,,,,,,,,,,,,,,,
417839,001,2022-11-20_23h52.59.358,Info_measure_main_exp,2022.2.2,Win32,143.7607821,,,,,,,,,,,,,,,,,,masks/mask_004.jpg,,,,,,,,,,,,,,,,,,,,,,,,,,,,,,,,,,,,,,,,,,0,1,1,3,1,,,,,,,,,,,,,,,,,,,,,,,,,,,,,,,,,,,,,,,,,,,,,,
417839,001,2022-11-20_23h52.59.358,Info_measure_main_exp,2022.2.2,Win32,143.7607821,,,,,,,,,,,,,,,,,,masks/mask_001.jpg,,,,,,,,,,,,,,,,,,,,,,,,,,,,,,,,,,,,,,,,,,0,2,2,0,1,,,,,,,,,,,,,,,,,,,,,,,,,,,,,,,,,,,,,,,,,,,,,,
417839,001,2022-11-20_23h52.59.358,Info_measure_main_exp,2022.2.2,Win32,143.7607821,,,,,,,,,,,,,,,,,,masks/mask_002.jpg,,,,,,,,,,,,,,,,,,,,,,,,,,,,,,,,,,,,,,,,,,0,3,3,1,1,,,,,,,,,,,,,,,,,,,,,,,,,,,,,,,,,,,,,,,,,,,,,,
417839,001,2022-11-20_23h52.59.358,Info_measure_main_exp,2022.2.2,Win32,143.7607821,,,,,,,,,,,,,,,,,,masks/mask_003.jpg,,,,,,,,,,,,,,,,,,,,,,,,,,,,,,,,,,,,,,,,,,0,4,4,2,1,,,,,,,,,,,,,,,,,,,,,,,,,,,,,,,,,,,,,,,,,,,,,,
417839,001,2022-11-20_23h52.59.358,Info_measure_main_exp,2022.2.2,Win32,143.7607821,,,,,,,,,,,,,,,,,,masks/mask_004.jpg,,,,,,,,,,,,,,,,,,,,,,,,,,,,,,,,,,,,,,,,,,,,,,,0,0,0,3,1,,,,,,,,,,,,,,,,,,,,,,,,,,,,,,,,,,,,,,,,,
417839,001,2022-11-20_23h52.59.358,Info_measure_main_exp,2022.2.2,Win32,143.7607821,,,,,,,,,,,,,,,,,,masks/mask_005.jpg,,,,,,,,,,,,,,,,,,,,,,,,,,,,,,,,,,,,,,,,,,,,,,,0,1,1,4,1,,,,,,,,,,,,,,,,,,,,,,,,,,,,,,,,,,,,,,,,,
417839,001,2022-11-20_23h52.59.358,Info_measure_main_exp,2022.2.2,Win32,143.7607821,,,,,,,,,,,,,,,,,,masks/mask_003.jpg,,,,,,,,,,,,,,,,,,,,,,,,,,,,,,,,,,,,,,,,,,,,,,,0,2,2,2,1,,,,,,,,,,,,,,,,,,,,,,,,,,,,,,,,,,,,,,,,,
417839,001,2022-11-20_23h52.59.358,Info_measure_main_exp,2022.2.2,Win32,143.7607821,,,,,,,,,,,,,,,,,,masks/mask_002.jpg,,,,,,,,,,,,,,,,,,,,,,,,,,,,,,,,,,,,,,,,,,,,,,,0,3,3,1,1,,,,,,,,,,,,,,,,,,,,,,,,,,,,,,,,,,,,,,,,,
417839,001,2022-11-20_23h52.59.358,Info_measure_main_exp,2022.2.2,Win32,143.7607821,,,,,,,,,,,,,,,,,,masks/mask_001.jpg,,,,,,,,,,,,,,,,,,,,,,,,,,,,,,,,,,,,,,,,,,,,,,,0,4,4,0,1,,,,,,,,,,,,,,,,,,,,,,,,,,,,,,,,,,,,,,,,,
417839,001,2022-11-20_23h52.59.358,Info_measure_main_exp,2022.2.2,Win32,143.7607821,,,,,,,,,,,,,,,,,,,,,,,,,,,,,,6,1.0317,1,,,,,,,,,,,,0,131,5,5,1986,2154,absent_patch/patch0001986.jpg,absent_patch/patch0002154.jpg,,,,,,,,,,,,,,,,,,,0.148148148,0.103703704,1,0,0,response1disk,5,-0.00462963,0.007407407,1,0,0,center_square,0,4,4,36,1,,,,,,,,,,,,,,,,,,,,,,,
417839,001,2022-11-20_23h52.59.358,Info_measure_main_exp,2022.2.2,Win32,143.7607821,,,,,,,,,,,,,,,,,,masks/mask_004.jpg,,,,,,,,,,,,,,,,,,,,,,,,,,,,,,,,,,,,,,,,,,0,0,0,3,1,,,,,,,,,,,,,,,,,,,,,,,,,,,,,,,,,,,,,,,,,,,,,,
417839,001,2022-11-20_23h52.59.358,Info_measure_main_exp,2022.2.2,Win32,143.7607821,,,,,,,,,,,,,,,,,,masks/mask_005.jpg,,,,,,,,,,,,,,,,,,,,,,,,,,,,,,,,,,,,,,,,,,0,1,1,4,1,,,,,,,,,,,,,,,,,,,,,,,,,,,,,,,,,,,,,,,,,,,,,,
417839,001,2022-11-20_23h52.59.358,Info_measure_main_exp,2022.2.2,Win32,143.7607821,,,,,,,,,,,,,,,,,,masks/mask_002.jpg,,,,,,,,,,,,,,,,,,,,,,,,,,,,,,,,,,,,,,,,,,0,2,2,1,1,,,,,,,,,,,,,,,,,,,,,,,,,,,,,,,,,,,,,,,,,,,,,,
417839,001,2022-11-20_23h52.59.358,Info_measure_main_exp,2022.2.2,Win32,143.7607821,,,,,,,,,,,,,,,,,,masks/mask_001.jpg,,,,,,,,,,,,,,,,,,,,,,,,,,,,,,,,,,,,,,,,,,0,3,3,0,1,,,,,,,,,,,,,,,,,,,,,,,,,,,,,,,,,,,,,,,,,,,,,,
417839,001,2022-11-20_23h52.59.358,Info_measure_main_exp,2022.2.2,Win32,143.7607821,,,,,,,,,,,,,,,,,,masks/mask_003.jpg,,,,,,,,,,,,,,,,,,,,,,,,,,,,,,,,,,,,,,,,,,0,4,4,2,1,,,,,,,,,,,,,,,,,,,,,,,,,,,,,,,,,,,,,,,,,,,,,,
417839,001,2022-11-20_23h52.59.358,Info_measure_main_exp,2022.2.2,Win32,143.7607821,,,,,,,,,,,,,,,,,,masks/mask_001.jpg,,,,,,,,,,,,,,,,,,,,,,,,,,,,,,,,,,,,,,,,,,,,,,,0,0,0,0,1,,,,,,,,,,,,,,,,,,,,,,,,,,,,,,,,,,,,,,,,,
417839,001,2022-11-20_23h52.59.358,Info_measure_main_exp,2022.2.2,Win32,143.7607821,,,,,,,,,,,,,,,,,,masks/mask_002.jpg,,,,,,,,,,,,,,,,,,,,,,,,,,,,,,,,,,,,,,,,,,,,,,,0,1,1,1,1,,,,,,,,,,,,,,,,,,,,,,,,,,,,,,,,,,,,,,,,,
417839,001,2022-11-20_23h52.59.358,Info_measure_main_exp,2022.2.2,Win32,143.7607821,,,,,,,,,,,,,,,,,,masks/mask_005.jpg,,,,,,,,,,,,,,,,,,,,,,,,,,,,,,,,,,,,,,,,,,,,,,,0,2,2,4,1,,,,,,,,,,,,,,,,,,,,,,,,,,,,,,,,,,,,,,,,,
417839,001,2022-11-20_23h52.59.358,Info_measure_main_exp,2022.2.2,Win32,143.7607821,,,,,,,,,,,,,,,,,,masks/mask_004.jpg,,,,,,,,,,,,,,,,,,,,,,,,,,,,,,,,,,,,,,,,,,,,,,,0,3,3,3,1,,,,,,,,,,,,,,,,,,,,,,,,,,,,,,,,,,,,,,,,,
417839,001,2022-11-20_23h52.59.358,Info_measure_main_exp,2022.2.2,Win32,143.7607821,,,,,,,,,,,,,,,,,,masks/mask_003.jpg,,,,,,,,,,,,,,,,,,,,,,,,,,,,,,,,,,,,,,,,,,,,,,,0,4,4,2,1,,,,,,,,,,,,,,,,,,,,,,,,,,,,,,,,,,,,,,,,,
417839,001,2022-11-20_23h52.59.358,Info_measure_main_exp,2022.2.2,Win32,143.7607821,,,,,,,,,,,,,,,,,,,,,,,,,,,,,,2,0.7048,1,,,,,,,,,,,,0,131,5,5,1950,2142,absent_patch/patch0001950.jpg,absent_patch/patch0002142.jpg,,,,,,,,,,,,,,,,,,,-0.097222222,-0.041666667,1,0,0,response5disk,6,-0.009259259,0,1,0,0,center_square,0,5,5,83,1,,,,,,,,,,,,,,,,,,,,,,,
417839,001,2022-11-20_23h52.59.358,Info_measure_main_exp,2022.2.2,Win32,143.7607821,,,,,,,,,,,,,,,,,,masks/mask_003.jpg,,,,,,,,,,,,,,,,,,,,,,,,,,,,,,,,,,,,,,,,,,0,0,0,2,1,,,,,,,,,,,,,,,,,,,,,,,,,,,,,,,,,,,,,,,,,,,,,,
417839,001,2022-11-20_23h52.59.358,Info_measure_main_exp,2022.2.2,Win32,143.7607821,,,,,,,,,,,,,,,,,,masks/mask_004.jpg,,,,,,,,,,,,,,,,,,,,,,,,,,,,,,,,,,,,,,,,,,0,1,1,3,1,,,,,,,,,,,,,,,,,,,,,,,,,,,,,,,,,,,,,,,,,,,,,,
417839,001,2022-11-20_23h52.59.358,Info_measure_main_exp,2022.2.2,Win32,143.7607821,,,,,,,,,,,,,,,,,,masks/mask_002.jpg,,,,,,,,,,,,,,,,,,,,,,,,,,,,,,,,,,,,,,,,,,0,2,2,1,1,,,,,,,,,,,,,,,,,,,,,,,,,,,,,,,,,,,,,,,,,,,,,,
417839,001,2022-11-20_23h52.59.358,Info_measure_main_exp,2022.2.2,Win32,143.7607821,,,,,,,,,,,,,,,,,,masks/mask_001.jpg,,,,,,,,,,,,,,,,,,,,,,,,,,,,,,,,,,,,,,,,,,0,3,3,0,1,,,,,,,,,,,,,,,,,,,,,,,,,,,,,,,,,,,,,,,,,,,,,,
417839,001,2022-11-20_23h52.59.358,Info_measure_main_exp,2022.2.2,Win32,143.7607821,,,,,,,,,,,,,,,,,,masks/mask_005.jpg,,,,,,,,,,,,,,,,,,,,,,,,,,,,,,,,,,,,,,,,,,0,4,4,4,1,,,,,,,,,,,,,,,,,,,,,,,,,,,,,,,,,,,,,,,,,,,,,,
417839,001,2022-11-20_23h52.59.358,Info_measure_main_exp,2022.2.2,Win32,143.7607821,,,,,,,,,,,,,,,,,,masks/mask_003.jpg,,,,,,,,,,,,,,,,,,,,,,,,,,,,,,,,,,,,,,,,,,,,,,,0,0,0,2,1,,,,,,,,,,,,,,,,,,,,,,,,,,,,,,,,,,,,,,,,,
417839,001,2022-11-20_23h52.59.358,Info_measure_main_exp,2022.2.2,Win32,143.7607821,,,,,,,,,,,,,,,,,,masks/mask_001.jpg,,,,,,,,,,,,,,,,,,,,,,,,,,,,,,,,,,,,,,,,,,,,,,,0,1,1,0,1,,,,,,,,,,,,,,,,,,,,,,,,,,,,,,,,,,,,,,,,,
417839,001,2022-11-20_23h52.59.358,Info_measure_main_exp,2022.2.2,Win32,143.7607821,,,,,,,,,,,,,,,,,,masks/mask_004.jpg,,,,,,,,,,,,,,,,,,,,,,,,,,,,,,,,,,,,,,,,,,,,,,,0,2,2,3,1,,,,,,,,,,,,,,,,,,,,,,,,,,,,,,,,,,,,,,,,,
417839,001,2022-11-20_23h52.59.358,Info_measure_main_exp,2022.2.2,Win32,143.7607821,,,,,,,,,,,,,,,,,,masks/mask_005.jpg,,,,,,,,,,,,,,,,,,,,,,,,,,,,,,,,,,,,,,,,,,,,,,,0,3,3,4,1,,,,,,,,,,,,,,,,,,,,,,,,,,,,,,,,,,,,,,,,,
417839,001,2022-11-20_23h52.59.358,Info_measure_main_exp,2022.2.2,Win32,143.7607821,,,,,,,,,,,,,,,,,,masks/mask_002.jpg,,,,,,,,,,,,,,,,,,,,,,,,,,,,,,,,,,,,,,,,,,,,,,,0,4,4,1,1,,,,,,,,,,,,,,,,,,,,,,,,,,,,,,,,,,,,,,,,,
417839,001,2022-11-20_23h52.59.358,Info_measure_main_exp,2022.2.2,Win32,143.7607821,,,,,,,,,,,,,,,,,,,,,,,,,,,,,,6,0.6793,1,,,,,,,,,,,,0,131,5,5,1974,2142,absent_patch/patch0001974.jpg,absent_patch/patch0002142.jpg,,,,,,,,,,,,,,,,,,,0.162962963,0.083333333,1,0,0,response1disk,7,0.012962963,0.002777778,1,0,0,center_square,0,6,6,38,1,,,,,,,,,,,,,,,,,,,,,,,
417839,001,2022-11-20_23h52.59.358,Info_measure_main_exp,2022.2.2,Win32,143.7607821,,,,,,,,,,,,,,,,,,masks/mask_005.jpg,,,,,,,,,,,,,,,,,,,,,,,,,,,,,,,,,,,,,,,,,,0,0,0,4,1,,,,,,,,,,,,,,,,,,,,,,,,,,,,,,,,,,,,,,,,,,,,,,
417839,001,2022-11-20_23h52.59.358,Info_measure_main_exp,2022.2.2,Win32,143.7607821,,,,,,,,,,,,,,,,,,masks/mask_001.jpg,,,,,,,,,,,,,,,,,,,,,,,,,,,,,,,,,,,,,,,,,,0,1,1,0,1,,,,,,,,,,,,,,,,,,,,,,,,,,,,,,,,,,,,,,,,,,,,,,
417839,001,2022-11-20_23h52.59.358,Info_measure_main_exp,2022.2.2,Win32,143.7607821,,,,,,,,,,,,,,,,,,masks/mask_004.jpg,,,,,,,,,,,,,,,,,,,,,,,,,,,,,,,,,,,,,,,,,,0,2,2,3,1,,,,,,,,,,,,,,,,,,,,,,,,,,,,,,,,,,,,,,,,,,,,,,
417839,001,2022-11-20_23h52.59.358,Info_measure_main_exp,2022.2.2,Win32,143.7607821,,,,,,,,,,,,,,,,,,masks/mask_002.jpg,,,,,,,,,,,,,,,,,,,,,,,,,,,,,,,,,,,,,,,,,,0,3,3,1,1,,,,,,,,,,,,,,,,,,,,,,,,,,,,,,,,,,,,,,,,,,,,,,
417839,001,2022-11-20_23h52.59.358,Info_measure_main_exp,2022.2.2,Win32,143.7607821,,,,,,,,,,,,,,,,,,masks/mask_003.jpg,,,,,,,,,,,,,,,,,,,,,,,,,,,,,,,,,,,,,,,,,,0,4,4,2,1,,,,,,,,,,,,,,,,,,,,,,,,,,,,,,,,,,,,,,,,,,,,,,
417839,001,2022-11-20_23h52.59.358,Info_measure_main_exp,2022.2.2,Win32,143.7607821,,,,,,,,,,,,,,,,,,masks/mask_003.jpg,,,,,,,,,,,,,,,,,,,,,,,,,,,,,,,,,,,,,,,,,,,,,,,0,0,0,2,1,,,,,,,,,,,,,,,,,,,,,,,,,,,,,,,,,,,,,,,,,
417839,001,2022-11-20_23h52.59.358,Info_measure_main_exp,2022.2.2,Win32,143.7607821,,,,,,,,,,,,,,,,,,masks/mask_005.jpg,,,,,,,,,,,,,,,,,,,,,,,,,,,,,,,,,,,,,,,,,,,,,,,0,1,1,4,1,,,,,,,,,,,,,,,,,,,,,,,,,,,,,,,,,,,,,,,,,
417839,001,2022-11-20_23h52.59.358,Info_measure_main_exp,2022.2.2,Win32,143.7607821,,,,,,,,,,,,,,,,,,masks/mask_001.jpg,,,,,,,,,,,,,,,,,,,,,,,,,,,,,,,,,,,,,,,,,,,,,,,0,2,2,0,1,,,,,,,,,,,,,,,,,,,,,,,,,,,,,,,,,,,,,,,,,
417839,001,2022-11-20_23h52.59.358,Info_measure_main_exp,2022.2.2,Win32,143.7607821,,,,,,,,,,,,,,,,,,masks/mask_002.jpg,,,,,,,,,,,,,,,,,,,,,,,,,,,,,,,,,,,,,,,,,,,,,,,0,3,3,1,1,,,,,,,,,,,,,,,,,,,,,,,,,,,,,,,,,,,,,,,,,
417839,001,2022-11-20_23h52.59.358,Info_measure_main_exp,2022.2.2,Win32,143.7607821,,,,,,,,,,,,,,,,,,masks/mask_004.jpg,,,,,,,,,,,,,,,,,,,,,,,,,,,,,,,,,,,,,,,,,,,,,,,0,4,4,3,1,,,,,,,,,,,,,,,,,,,,,,,,,,,,,,,,,,,,,,,,,
417839,001,2022-11-20_23h52.59.358,Info_measure_main_exp,2022.2.2,Win32,143.7607821,,,,,,,,,,,,,,,,,,,,,,,,,,,,,,5,0.8779,1,,,,,,,,,,,,0,131,5,5,1950,2238,absent_patch/patch0001950.jpg,absent_patch/patch0002238.jpg,,,,,,,,,,,,,,,,,,,0.151851852,-0.088888889,1,0,0,response3disk,8,-0.005555556,-0.005555556,1,0,0,center_square,0,7,7,8,1,,,,,,,,,,,,,,,,,,,,,,,
417839,001,2022-11-20_23h52.59.358,Info_measure_main_exp,2022.2.2,Win32,143.7607821,,,,,,,,,,,,,,,,,,masks/mask_001.jpg,,,,,,,,,,,,,,,,,,,,,,,,,,,,,,,,,,,,,,,,,,0,0,0,0,1,,,,,,,,,,,,,,,,,,,,,,,,,,,,,,,,,,,,,,,,,,,,,,
417839,001,2022-11-20_23h52.59.358,Info_measure_main_exp,2022.2.2,Win32,143.7607821,,,,,,,,,,,,,,,,,,masks/mask_004.jpg,,,,,,,,,,,,,,,,,,,,,,,,,,,,,,,,,,,,,,,,,,0,1,1,3,1,,,,,,,,,,,,,,,,,,,,,,,,,,,,,,,,,,,,,,,,,,,,,,
417839,001,2022-11-20_23h52.59.358,Info_measure_main_exp,2022.2.2,Win32,143.7607821,,,,,,,,,,,,,,,,,,masks/mask_005.jpg,,,,,,,,,,,,,,,,,,,,,,,,,,,,,,,,,,,,,,,,,,0,2,2,4,1,,,,,,,,,,,,,,,,,,,,,,,,,,,,,,,,,,,,,,,,,,,,,,
417839,001,2022-11-20_23h52.59.358,Info_measure_main_exp,2022.2.2,Win32,143.7607821,,,,,,,,,,,,,,,,,,masks/mask_003.jpg,,,,,,,,,,,,,,,,,,,,,,,,,,,,,,,,,,,,,,,,,,0,3,3,2,1,,,,,,,,,,,,,,,,,,,,,,,,,,,,,,,,,,,,,,,,,,,,,,
417839,001,2022-11-20_23h52.59.358,Info_measure_main_exp,2022.2.2,Win32,143.7607821,,,,,,,,,,,,,,,,,,masks/mask_002.jpg,,,,,,,,,,,,,,,,,,,,,,,,,,,,,,,,,,,,,,,,,,0,4,4,1,1,,,,,,,,,,,,,,,,,,,,,,,,,,,,,,,,,,,,,,,,,,,,,,
417839,001,2022-11-20_23h52.59.358,Info_measure_main_exp,2022.2.2,Win32,143.7607821,,,,,,,,,,,,,,,,,,masks/mask_004.jpg,,,,,,,,,,,,,,,,,,,,,,,,,,,,,,,,,,,,,,,,,,,,,,,0,0,0,3,1,,,,,,,,,,,,,,,,,,,,,,,,,,,,,,,,,,,,,,,,,
417839,001,2022-11-20_23h52.59.358,Info_measure_main_exp,2022.2.2,Win32,143.7607821,,,,,,,,,,,,,,,,,,masks/mask_005.jpg,,,,,,,,,,,,,,,,,,,,,,,,,,,,,,,,,,,,,,,,,,,,,,,0,1,1,4,1,,,,,,,,,,,,,,,,,,,,,,,,,,,,,,,,,,,,,,,,,
417839,001,2022-11-20_23h52.59.358,Info_measure_main_exp,2022.2.2,Win32,143.7607821,,,,,,,,,,,,,,,,,,masks/mask_001.jpg,,,,,,,,,,,,,,,,,,,,,,,,,,,,,,,,,,,,,,,,,,,,,,,0,2,2,0,1,,,,,,,,,,,,,,,,,,,,,,,,,,,,,,,,,,,,,,,,,
417839,001,2022-11-20_23h52.59.358,Info_measure_main_exp,2022.2.2,Win32,143.7607821,,,,,,,,,,,,,,,,,,masks/mask_002.jpg,,,,,,,,,,,,,,,,,,,,,,,,,,,,,,,,,,,,,,,,,,,,,,,0,3,3,1,1,,,,,,,,,,,,,,,,,,,,,,,,,,,,,,,,,,,,,,,,,
417839,001,2022-11-20_23h52.59.358,Info_measure_main_exp,2022.2.2,Win32,143.7607821,,,,,,,,,,,,,,,,,,masks/mask_003.jpg,,,,,,,,,,,,,,,,,,,,,,,,,,,,,,,,,,,,,,,,,,,,,,,0,4,4,2,1,,,,,,,,,,,,,,,,,,,,,,,,,,,,,,,,,,,,,,,,,
417839,001,2022-11-20_23h52.59.358,Info_measure_main_exp,2022.2.2,Win32,143.7607821,,,,,,,,,,,,,,,,,,,,,,,,,,,,,,2,1.3106,1,,,,,,,,,,,,0,131,5,5,2238,2298,absent_patch/patch0002238.jpg,absent_patch/patch0002298.jpg,,,,,,,,,,,,,,,,,,,-0.10462963,-0.035185185,1,0,0,response5disk,9,0.010185185,0.002777778,1,0,0,center_square,0,8,8,51,1,,,,,,,,,,,,,,,,,,,,,,,
417839,001,2022-11-20_23h52.59.358,Info_measure_main_exp,2022.2.2,Win32,143.7607821,,,,,,,,,,,,,,,,,,masks/mask_004.jpg,,,,,,,,,,,,,,,,,,,,,,,,,,,,,,,,,,,,,,,,,,0,0,0,3,1,,,,,,,,,,,,,,,,,,,,,,,,,,,,,,,,,,,,,,,,,,,,,,
417839,001,2022-11-20_23h52.59.358,Info_measure_main_exp,2022.2.2,Win32,143.7607821,,,,,,,,,,,,,,,,,,masks/mask_002.jpg,,,,,,,,,,,,,,,,,,,,,,,,,,,,,,,,,,,,,,,,,,0,1,1,1,1,,,,,,,,,,,,,,,,,,,,,,,,,,,,,,,,,,,,,,,,,,,,,,
417839,001,2022-11-20_23h52.59.358,Info_measure_main_exp,2022.2.2,Win32,143.7607821,,,,,,,,,,,,,,,,,,masks/mask_003.jpg,,,,,,,,,,,,,,,,,,,,,,,,,,,,,,,,,,,,,,,,,,0,2,2,2,1,,,,,,,,,,,,,,,,,,,,,,,,,,,,,,,,,,,,,,,,,,,,,,
417839,001,2022-11-20_23h52.59.358,Info_measure_main_exp,2022.2.2,Win32,143.7607821,,,,,,,,,,,,,,,,,,masks/mask_001.jpg,,,,,,,,,,,,,,,,,,,,,,,,,,,,,,,,,,,,,,,,,,0,3,3,0,1,,,,,,,,,,,,,,,,,,,,,,,,,,,,,,,,,,,,,,,,,,,,,,
417839,001,2022-11-20_23h52.59.358,Info_measure_main_exp,2022.2.2,Win32,143.7607821,,,,,,,,,,,,,,,,,,masks/mask_005.jpg,,,,,,,,,,,,,,,,,,,,,,,,,,,,,,,,,,,,,,,,,,0,4,4,4,1,,,,,,,,,,,,,,,,,,,,,,,,,,,,,,,,,,,,,,,,,,,,,,
417839,001,2022-11-20_23h52.59.358,Info_measure_main_exp,2022.2.2,Win32,143.7607821,,,,,,,,,,,,,,,,,,masks/mask_005.jpg,,,,,,,,,,,,,,,,,,,,,,,,,,,,,,,,,,,,,,,,,,,,,,,0,0,0,4,1,,,,,,,,,,,,,,,,,,,,,,,,,,,,,,,,,,,,,,,,,
417839,001,2022-11-20_23h52.59.358,Info_measure_main_exp,2022.2.2,Win32,143.7607821,,,,,,,,,,,,,,,,,,masks/mask_001.jpg,,,,,,,,,,,,,,,,,,,,,,,,,,,,,,,,,,,,,,,,,,,,,,,0,1,1,0,1,,,,,,,,,,,,,,,,,,,,,,,,,,,,,,,,,,,,,,,,,
417839,001,2022-11-20_23h52.59.358,Info_measure_main_exp,2022.2.2,Win32,143.7607821,,,,,,,,,,,,,,,,,,masks/mask_003.jpg,,,,,,,,,,,,,,,,,,,,,,,,,,,,,,,,,,,,,,,,,,,,,,,0,2,2,2,1,,,,,,,,,,,,,,,,,,,,,,,,,,,,,,,,,,,,,,,,,
417839,001,2022-11-20_23h52.59.358,Info_measure_main_exp,2022.2.2,Win32,143.7607821,,,,,,,,,,,,,,,,,,masks/mask_004.jpg,,,,,,,,,,,,,,,,,,,,,,,,,,,,,,,,,,,,,,,,,,,,,,,0,3,3,3,1,,,,,,,,,,,,,,,,,,,,,,,,,,,,,,,,,,,,,,,,,
417839,001,2022-11-20_23h52.59.358,Info_measure_main_exp,2022.2.2,Win32,143.7607821,,,,,,,,,,,,,,,,,,masks/mask_002.jpg,,,,,,,,,,,,,,,,,,,,,,,,,,,,,,,,,,,,,,,,,,,,,,,0,4,4,1,1,,,,,,,,,,,,,,,,,,,,,,,,,,,,,,,,,,,,,,,,,
417839,001,2022-11-20_23h52.59.358,Info_measure_main_exp,2022.2.2,Win32,143.7607821,,,,,,,,,,,,,,,,,,,,,,,,,,,,,,5,0.6388,1,,,,,,,,,,,,0,131,5,5,2082,2298,absent_patch/patch0002082.jpg,absent_patch/patch0002298.jpg,,,,,,,,,,,,,,,,,,,0.153703704,-0.074074074,1,0,0,response3disk,10,-0.014814815,0.00462963,1,0,0,center_square,0,9,9,107,1,,,,,,,,,,,,,,,,,,,,,,,
417839,001,2022-11-20_23h52.59.358,Info_measure_main_exp,2022.2.2,Win32,143.7607821,,,,,,,,,,,,,,,,,,masks/mask_004.jpg,,,,,,,,,,,,,,,,,,,,,,,,,,,,,,,,,,,,,,,,,,0,0,0,3,1,,,,,,,,,,,,,,,,,,,,,,,,,,,,,,,,,,,,,,,,,,,,,,
417839,001,2022-11-20_23h52.59.358,Info_measure_main_exp,2022.2.2,Win32,143.7607821,,,,,,,,,,,,,,,,,,masks/mask_005.jpg,,,,,,,,,,,,,,,,,,,,,,,,,,,,,,,,,,,,,,,,,,0,1,1,4,1,,,,,,,,,,,,,,,,,,,,,,,,,,,,,,,,,,,,,,,,,,,,,,
417839,001,2022-11-20_23h52.59.358,Info_measure_main_exp,2022.2.2,Win32,143.7607821,,,,,,,,,,,,,,,,,,masks/mask_002.jpg,,,,,,,,,,,,,,,,,,,,,,,,,,,,,,,,,,,,,,,,,,0,2,2,1,1,,,,,,,,,,,,,,,,,,,,,,,,,,,,,,,,,,,,,,,,,,,,,,
417839,001,2022-11-20_23h52.59.358,Info_measure_main_exp,2022.2.2,Win32,143.7607821,,,,,,,,,,,,,,,,,,masks/mask_001.jpg,,,,,,,,,,,,,,,,,,,,,,,,,,,,,,,,,,,,,,,,,,0,3,3,0,1,,,,,,,,,,,,,,,,,,,,,,,,,,,,,,,,,,,,,,,,,,,,,,
417839,001,2022-11-20_23h52.59.358,Info_measure_main_exp,2022.2.2,Win32,143.7607821,,,,,,,,,,,,,,,,,,masks/mask_003.jpg,,,,,,,,,,,,,,,,,,,,,,,,,,,,,,,,,,,,,,,,,,0,4,4,2,1,,,,,,,,,,,,,,,,,,,,,,,,,,,,,,,,,,,,,,,,,,,,,,
417839,001,2022-11-20_23h52.59.358,Info_measure_main_exp,2022.2.2,Win32,143.7607821,,,,,,,,,,,,,,,,,,masks/mask_005.jpg,,,,,,,,,,,,,,,,,,,,,,,,,,,,,,,,,,,,,,,,,,,,,,,0,0,0,4,1,,,,,,,,,,,,,,,,,,,,,,,,,,,,,,,,,,,,,,,,,
417839,001,2022-11-20_23h52.59.358,Info_measure_main_exp,2022.2.2,Win32,143.7607821,,,,,,,,,,,,,,,,,,masks/mask_001.jpg,,,,,,,,,,,,,,,,,,,,,,,,,,,,,,,,,,,,,,,,,,,,,,,0,1,1,0,1,,,,,,,,,,,,,,,,,,,,,,,,,,,,,,,,,,,,,,,,,
417839,001,2022-11-20_23h52.59.358,Info_measure_main_exp,2022.2.2,Win32,143.7607821,,,,,,,,,,,,,,,,,,masks/mask_002.jpg,,,,,,,,,,,,,,,,,,,,,,,,,,,,,,,,,,,,,,,,,,,,,,,0,2,2,1,1,,,,,,,,,,,,,,,,,,,,,,,,,,,,,,,,,,,,,,,,,
417839,001,2022-11-20_23h52.59.358,Info_measure_main_exp,2022.2.2,Win32,143.7607821,,,,,,,,,,,,,,,,,,masks/mask_003.jpg,,,,,,,,,,,,,,,,,,,,,,,,,,,,,,,,,,,,,,,,,,,,,,,0,3,3,2,1,,,,,,,,,,,,,,,,,,,,,,,,,,,,,,,,,,,,,,,,,
417839,001,2022-11-20_23h52.59.358,Info_measure_main_exp,2022.2.2,Win32,143.7607821,,,,,,,,,,,,,,,,,,masks/mask_004.jpg,,,,,,,,,,,,,,,,,,,,,,,,,,,,,,,,,,,,,,,,,,,,,,,0,4,4,3,1,,,,,,,,,,,,,,,,,,,,,,,,,,,,,,,,,,,,,,,,,
417839,001,2022-11-20_23h52.59.358,Info_measure_main_exp,2022.2.2,Win32,143.7607821,,,,,,,,,,,,,,,,,,,,,,,,,,,,,,0,1.6011,1,,,,,,,,,,,,0,131,5,5,2250,2238,absent_patch/patch0002250.jpg,absent_patch/patch0002238.jpg,,,,,,,,,,,,,,,,,,,-0.034259259,0.099074074,1,0,0,response7disk,11,0.00462963,-0.00462963,1,0,0,center_square,0,10,10,110,1,,,,,,,,,,,,,,,,,,,,,,,
417839,001,2022-11-20_23h52.59.358,Info_measure_main_exp,2022.2.2,Win32,143.7607821,,,,,,,,,,,,,,,,,,masks/mask_002.jpg,,,,,,,,,,,,,,,,,,,,,,,,,,,,,,,,,,,,,,,,,,0,0,0,1,1,,,,,,,,,,,,,,,,,,,,,,,,,,,,,,,,,,,,,,,,,,,,,,
417839,001,2022-11-20_23h52.59.358,Info_measure_main_exp,2022.2.2,Win32,143.7607821,,,,,,,,,,,,,,,,,,masks/mask_001.jpg,,,,,,,,,,,,,,,,,,,,,,,,,,,,,,,,,,,,,,,,,,0,1,1,0,1,,,,,,,,,,,,,,,,,,,,,,,,,,,,,,,,,,,,,,,,,,,,,,
417839,001,2022-11-20_23h52.59.358,Info_measure_main_exp,2022.2.2,Win32,143.7607821,,,,,,,,,,,,,,,,,,masks/mask_005.jpg,,,,,,,,,,,,,,,,,,,,,,,,,,,,,,,,,,,,,,,,,,0,2,2,4,1,,,,,,,,,,,,,,,,,,,,,,,,,,,,,,,,,,,,,,,,,,,,,,
417839,001,2022-11-20_23h52.59.358,Info_measure_main_exp,2022.2.2,Win32,143.7607821,,,,,,,,,,,,,,,,,,masks/mask_004.jpg,,,,,,,,,,,,,,,,,,,,,,,,,,,,,,,,,,,,,,,,,,0,3,3,3,1,,,,,,,,,,,,,,,,,,,,,,,,,,,,,,,,,,,,,,,,,,,,,,
417839,001,2022-11-20_23h52.59.358,Info_measure_main_exp,2022.2.2,Win32,143.7607821,,,,,,,,,,,,,,,,,,masks/mask_003.jpg,,,,,,,,,,,,,,,,,,,,,,,,,,,,,,,,,,,,,,,,,,0,4,4,2,1,,,,,,,,,,,,,,,,,,,,,,,,,,,,,,,,,,,,,,,,,,,,,,
417839,001,2022-11-20_23h52.59.358,Info_measure_main_exp,2022.2.2,Win32,143.7607821,,,,,,,,,,,,,,,,,,masks/mask_005.jpg,,,,,,,,,,,,,,,,,,,,,,,,,,,,,,,,,,,,,,,,,,,,,,,0,0,0,4,1,,,,,,,,,,,,,,,,,,,,,,,,,,,,,,,,,,,,,,,,,
417839,001,2022-11-20_23h52.59.358,Info_measure_main_exp,2022.2.2,Win32,143.7607821,,,,,,,,,,,,,,,,,,masks/mask_001.jpg,,,,,,,,,,,,,,,,,,,,,,,,,,,,,,,,,,,,,,,,,,,,,,,0,1,1,0,1,,,,,,,,,,,,,,,,,,,,,,,,,,,,,,,,,,,,,,,,,
417839,001,2022-11-20_23h52.59.358,Info_measure_main_exp,2022.2.2,Win32,143.7607821,,,,,,,,,,,,,,,,,,masks/mask_004.jpg,,,,,,,,,,,,,,,,,,,,,,,,,,,,,,,,,,,,,,,,,,,,,,,0,2,2,3,1,,,,,,,,,,,,,,,,,,,,,,,,,,,,,,,,,,,,,,,,,
417839,001,2022-11-20_23h52.59.358,Info_measure_main_exp,2022.2.2,Win32,143.7607821,,,,,,,,,,,,,,,,,,masks/mask_003.jpg,,,,,,,,,,,,,,,,,,,,,,,,,,,,,,,,,,,,,,,,,,,,,,,0,3,3,2,1,,,,,,,,,,,,,,,,,,,,,,,,,,,,,,,,,,,,,,,,,
417839,001,2022-11-20_23h52.59.358,Info_measure_main_exp,2022.2.2,Win32,143.7607821,,,,,,,,,,,,,,,,,,masks/mask_002.jpg,,,,,,,,,,,,,,,,,,,,,,,,,,,,,,,,,,,,,,,,,,,,,,,0,4,4,1,1,,,,,,,,,,,,,,,,,,,,,,,,,,,,,,,,,,,,,,,,,
417839,001,2022-11-20_23h52.59.358,Info_measure_main_exp,2022.2.2,Win32,143.7607821,,,,,,,,,,,,,,,,,,,,,,,,,,,,,,2,1.8023,1,,,,,,,,,,,,0,131,5,5,1950,2214,absent_patch/patch0001950.jpg,absent_patch/patch0002214.jpg,,,,,,,,,,,,,,,,,,,-0.101851852,-0.043518519,1,0,0,response5disk,12,0.000925926,-0.007407407,1,0,0,center_square,0,11,11,85,1,,,,,,,,,,,,,,,,,,,,,,,
417839,001,2022-11-20_23h52.59.358,Info_measure_main_exp,2022.2.2,Win32,143.7607821,,,,,,,,,,,,,,,,,,masks/mask_001.jpg,,,,,,,,,,,,,,,,,,,,,,,,,,,,,,,,,,,,,,,,,,0,0,0,0,1,,,,,,,,,,,,,,,,,,,,,,,,,,,,,,,,,,,,,,,,,,,,,,
417839,001,2022-11-20_23h52.59.358,Info_measure_main_exp,2022.2.2,Win32,143.7607821,,,,,,,,,,,,,,,,,,masks/mask_004.jpg,,,,,,,,,,,,,,,,,,,,,,,,,,,,,,,,,,,,,,,,,,0,1,1,3,1,,,,,,,,,,,,,,,,,,,,,,,,,,,,,,,,,,,,,,,,,,,,,,
417839,001,2022-11-20_23h52.59.358,Info_measure_main_exp,2022.2.2,Win32,143.7607821,,,,,,,,,,,,,,,,,,masks/mask_005.jpg,,,,,,,,,,,,,,,,,,,,,,,,,,,,,,,,,,,,,,,,,,0,2,2,4,1,,,,,,,,,,,,,,,,,,,,,,,,,,,,,,,,,,,,,,,,,,,,,,
417839,001,2022-11-20_23h52.59.358,Info_measure_main_exp,2022.2.2,Win32,143.7607821,,,,,,,,,,,,,,,,,,masks/mask_003.jpg,,,,,,,,,,,,,,,,,,,,,,,,,,,,,,,,,,,,,,,,,,0,3,3,2,1,,,,,,,,,,,,,,,,,,,,,,,,,,,,,,,,,,,,,,,,,,,,,,
417839,001,2022-11-20_23h52.59.358,Info_measure_main_exp,2022.2.2,Win32,143.7607821,,,,,,,,,,,,,,,,,,masks/mask_002.jpg,,,,,,,,,,,,,,,,,,,,,,,,,,,,,,,,,,,,,,,,,,0,4,4,1,1,,,,,,,,,,,,,,,,,,,,,,,,,,,,,,,,,,,,,,,,,,,,,,
417839,001,2022-11-20_23h52.59.358,Info_measure_main_exp,2022.2.2,Win32,143.7607821,,,,,,,,,,,,,,,,,,masks/mask_005.jpg,,,,,,,,,,,,,,,,,,,,,,,,,,,,,,,,,,,,,,,,,,,,,,,0,0,0,4,1,,,,,,,,,,,,,,,,,,,,,,,,,,,,,,,,,,,,,,,,,
417839,001,2022-11-20_23h52.59.358,Info_measure_main_exp,2022.2.2,Win32,143.7607821,,,,,,,,,,,,,,,,,,masks/mask_004.jpg,,,,,,,,,,,,,,,,,,,,,,,,,,,,,,,,,,,,,,,,,,,,,,,0,1,1,3,1,,,,,,,,,,,,,,,,,,,,,,,,,,,,,,,,,,,,,,,,,
417839,001,2022-11-20_23h52.59.358,Info_measure_main_exp,2022.2.2,Win32,143.7607821,,,,,,,,,,,,,,,,,,masks/mask_003.jpg,,,,,,,,,,,,,,,,,,,,,,,,,,,,,,,,,,,,,,,,,,,,,,,0,2,2,2,1,,,,,,,,,,,,,,,,,,,,,,,,,,,,,,,,,,,,,,,,,
417839,001,2022-11-20_23h52.59.358,Info_measure_main_exp,2022.2.2,Win32,143.7607821,,,,,,,,,,,,,,,,,,masks/mask_001.jpg,,,,,,,,,,,,,,,,,,,,,,,,,,,,,,,,,,,,,,,,,,,,,,,0,3,3,0,1,,,,,,,,,,,,,,,,,,,,,,,,,,,,,,,,,,,,,,,,,
417839,001,2022-11-20_23h52.59.358,Info_measure_main_exp,2022.2.2,Win32,143.7607821,,,,,,,,,,,,,,,,,,masks/mask_002.jpg,,,,,,,,,,,,,,,,,,,,,,,,,,,,,,,,,,,,,,,,,,,,,,,0,4,4,1,1,,,,,,,,,,,,,,,,,,,,,,,,,,,,,,,,,,,,,,,,,
417839,001,2022-11-20_23h52.59.358,Info_measure_main_exp,2022.2.2,Win32,143.7607821,,,,,,,,,,,,,,,,,,,,,,,,,,,,,,6,0.5521,1,,,,,,,,,,,,0,131,5,5,2274,2178,absent_patch/patch0002274.jpg,absent_patch/patch0002178.jpg,,,,,,,,,,,,,,,,,,,0.133333333,0.055555556,1,0,0,response1disk,13,0,-0.000925926,1,0,0,center_square,0,12,12,117,1,,,,,,,,,,,,,,,,,,,,,,,
417839,001,2022-11-20_23h52.59.358,Info_measure_main_exp,2022.2.2,Win32,143.7607821,,,,,,,,,,,,,,,,,,masks/mask_005.jpg,,,,,,,,,,,,,,,,,,,,,,,,,,,,,,,,,,,,,,,,,,0,0,0,4,1,,,,,,,,,,,,,,,,,,,,,,,,,,,,,,,,,,,,,,,,,,,,,,
417839,001,2022-11-20_23h52.59.358,Info_measure_main_exp,2022.2.2,Win32,143.7607821,,,,,,,,,,,,,,,,,,masks/mask_002.jpg,,,,,,,,,,,,,,,,,,,,,,,,,,,,,,,,,,,,,,,,,,0,1,1,1,1,,,,,,,,,,,,,,,,,,,,,,,,,,,,,,,,,,,,,,,,,,,,,,
417839,001,2022-11-20_23h52.59.358,Info_measure_main_exp,2022.2.2,Win32,143.7607821,,,,,,,,,,,,,,,,,,masks/mask_003.jpg,,,,,,,,,,,,,,,,,,,,,,,,,,,,,,,,,,,,,,,,,,0,2,2,2,1,,,,,,,,,,,,,,,,,,,,,,,,,,,,,,,,,,,,,,,,,,,,,,
417839,001,2022-11-20_23h52.59.358,Info_measure_main_exp,2022.2.2,Win32,143.7607821,,,,,,,,,,,,,,,,,,masks/mask_001.jpg,,,,,,,,,,,,,,,,,,,,,,,,,,,,,,,,,,,,,,,,,,0,3,3,0,1,,,,,,,,,,,,,,,,,,,,,,,,,,,,,,,,,,,,,,,,,,,,,,
417839,001,2022-11-20_23h52.59.358,Info_measure_main_exp,2022.2.2,Win32,143.7607821,,,,,,,,,,,,,,,,,,masks/mask_004.jpg,,,,,,,,,,,,,,,,,,,,,,,,,,,,,,,,,,,,,,,,,,0,4,4,3,1,,,,,,,,,,,,,,,,,,,,,,,,,,,,,,,,,,,,,,,,,,,,,,
417839,001,2022-11-20_23h52.59.358,Info_measure_main_exp,2022.2.2,Win32,143.7607821,,,,,,,,,,,,,,,,,,masks/mask_004.jpg,,,,,,,,,,,,,,,,,,,,,,,,,,,,,,,,,,,,,,,,,,,,,,,0,0,0,3,1,,,,,,,,,,,,,,,,,,,,,,,,,,,,,,,,,,,,,,,,,
417839,001,2022-11-20_23h52.59.358,Info_measure_main_exp,2022.2.2,Win32,143.7607821,,,,,,,,,,,,,,,,,,masks/mask_001.jpg,,,,,,,,,,,,,,,,,,,,,,,,,,,,,,,,,,,,,,,,,,,,,,,0,1,1,0,1,,,,,,,,,,,,,,,,,,,,,,,,,,,,,,,,,,,,,,,,,
417839,001,2022-11-20_23h52.59.358,Info_measure_main_exp,2022.2.2,Win32,143.7607821,,,,,,,,,,,,,,,,,,masks/mask_003.jpg,,,,,,,,,,,,,,,,,,,,,,,,,,,,,,,,,,,,,,,,,,,,,,,0,2,2,2,1,,,,,,,,,,,,,,,,,,,,,,,,,,,,,,,,,,,,,,,,,
417839,001,2022-11-20_23h52.59.358,Info_measure_main_exp,2022.2.2,Win32,143.7607821,,,,,,,,,,,,,,,,,,masks/mask_005.jpg,,,,,,,,,,,,,,,,,,,,,,,,,,,,,,,,,,,,,,,,,,,,,,,0,3,3,4,1,,,,,,,,,,,,,,,,,,,,,,,,,,,,,,,,,,,,,,,,,
417839,001,2022-11-20_23h52.59.358,Info_measure_main_exp,2022.2.2,Win32,143.7607821,,,,,,,,,,,,,,,,,,masks/mask_002.jpg,,,,,,,,,,,,,,,,,,,,,,,,,,,,,,,,,,,,,,,,,,,,,,,0,4,4,1,1,,,,,,,,,,,,,,,,,,,,,,,,,,,,,,,,,,,,,,,,,
417839,001,2022-11-20_23h52.59.358,Info_measure_main_exp,2022.2.2,Win32,143.7607821,,,,,,,,,,,,,,,,,,,,,,,,,,,,,,7,0.6945,1,,,,,,,,,,,,0,131,5,5,2274,2154,absent_patch/patch0002274.jpg,absent_patch/patch0002154.jpg,,,,,,,,,,,,,,,,,,,0.044444444,0.125925926,1,0,0,response1disk,14,0.010185185,0.013888889,1,0,0,center_square,0,13,13,23,1,,,,,,,,,,,,,,,,,,,,,,,
417839,001,2022-11-20_23h52.59.358,Info_measure_main_exp,2022.2.2,Win32,143.7607821,,,,,,,,,,,,,,,,,,masks/mask_001.jpg,,,,,,,,,,,,,,,,,,,,,,,,,,,,,,,,,,,,,,,,,,0,0,0,0,1,,,,,,,,,,,,,,,,,,,,,,,,,,,,,,,,,,,,,,,,,,,,,,
417839,001,2022-11-20_23h52.59.358,Info_measure_main_exp,2022.2.2,Win32,143.7607821,,,,,,,,,,,,,,,,,,masks/mask_004.jpg,,,,,,,,,,,,,,,,,,,,,,,,,,,,,,,,,,,,,,,,,,0,1,1,3,1,,,,,,,,,,,,,,,,,,,,,,,,,,,,,,,,,,,,,,,,,,,,,,
417839,001,2022-11-20_23h52.59.358,Info_measure_main_exp,2022.2.2,Win32,143.7607821,,,,,,,,,,,,,,,,,,masks/mask_005.jpg,,,,,,,,,,,,,,,,,,,,,,,,,,,,,,,,,,,,,,,,,,0,2,2,4,1,,,,,,,,,,,,,,,,,,,,,,,,,,,,,,,,,,,,,,,,,,,,,,
417839,001,2022-11-20_23h52.59.358,Info_measure_main_exp,2022.2.2,Win32,143.7607821,,,,,,,,,,,,,,,,,,masks/mask_002.jpg,,,,,,,,,,,,,,,,,,,,,,,,,,,,,,,,,,,,,,,,,,0,3,3,1,1,,,,,,,,,,,,,,,,,,,,,,,,,,,,,,,,,,,,,,,,,,,,,,
417839,001,2022-11-20_23h52.59.358,Info_measure_main_exp,2022.2.2,Win32,143.7607821,,,,,,,,,,,,,,,,,,masks/mask_003.jpg,,,,,,,,,,,,,,,,,,,,,,,,,,,,,,,,,,,,,,,,,,0,4,4,2,1,,,,,,,,,,,,,,,,,,,,,,,,,,,,,,,,,,,,,,,,,,,,,,
417839,001,2022-11-20_23h52.59.358,Info_measure_main_exp,2022.2.2,Win32,143.7607821,,,,,,,,,,,,,,,,,,masks/mask_004.jpg,,,,,,,,,,,,,,,,,,,,,,,,,,,,,,,,,,,,,,,,,,,,,,,0,0,0,3,1,,,,,,,,,,,,,,,,,,,,,,,,,,,,,,,,,,,,,,,,,
417839,001,2022-11-20_23h52.59.358,Info_measure_main_exp,2022.2.2,Win32,143.7607821,,,,,,,,,,,,,,,,,,masks/mask_002.jpg,,,,,,,,,,,,,,,,,,,,,,,,,,,,,,,,,,,,,,,,,,,,,,,0,1,1,1,1,,,,,,,,,,,,,,,,,,,,,,,,,,,,,,,,,,,,,,,,,
417839,001,2022-11-20_23h52.59.358,Info_measure_main_exp,2022.2.2,Win32,143.7607821,,,,,,,,,,,,,,,,,,masks/mask_005.jpg,,,,,,,,,,,,,,,,,,,,,,,,,,,,,,,,,,,,,,,,,,,,,,,0,2,2,4,1,,,,,,,,,,,,,,,,,,,,,,,,,,,,,,,,,,,,,,,,,
417839,001,2022-11-20_23h52.59.358,Info_measure_main_exp,2022.2.2,Win32,143.7607821,,,,,,,,,,,,,,,,,,masks/mask_001.jpg,,,,,,,,,,,,,,,,,,,,,,,,,,,,,,,,,,,,,,,,,,,,,,,0,3,3,0,1,,,,,,,,,,,,,,,,,,,,,,,,,,,,,,,,,,,,,,,,,
417839,001,2022-11-20_23h52.59.358,Info_measure_main_exp,2022.2.2,Win32,143.7607821,,,,,,,,,,,,,,,,,,masks/mask_003.jpg,,,,,,,,,,,,,,,,,,,,,,,,,,,,,,,,,,,,,,,,,,,,,,,0,4,4,2,1,,,,,,,,,,,,,,,,,,,,,,,,,,,,,,,,,,,,,,,,,
417839,001,2022-11-20_23h52.59.358,Info_measure_main_exp,2022.2.2,Win32,143.7607821,,,,,,,,,,,,,,,,,,,,,,,,,,,,,,7,0.6009,1,,,,,,,,,,,,0,131,5,5,2274,2082,absent_patch/patch0002274.jpg,absent_patch/patch0002082.jpg,,,,,,,,,,,,,,,,,,,0.080555556,0.112962963,1,0,0,response1disk,15,0.005555556,0.003703704,1,0,0,center_square,0,14,14,100,1,,,,,,,,,,,,,,,,,,,,,,,
417839,001,2022-11-20_23h52.59.358,Info_measure_main_exp,2022.2.2,Win32,143.7607821,,,,,,,,,,,,,,,,,,masks/mask_004.jpg,,,,,,,,,,,,,,,,,,,,,,,,,,,,,,,,,,,,,,,,,,0,0,0,3,1,,,,,,,,,,,,,,,,,,,,,,,,,,,,,,,,,,,,,,,,,,,,,,
417839,001,2022-11-20_23h52.59.358,Info_measure_main_exp,2022.2.2,Win32,143.7607821,,,,,,,,,,,,,,,,,,masks/mask_002.jpg,,,,,,,,,,,,,,,,,,,,,,,,,,,,,,,,,,,,,,,,,,0,1,1,1,1,,,,,,,,,,,,,,,,,,,,,,,,,,,,,,,,,,,,,,,,,,,,,,
417839,001,2022-11-20_23h52.59.358,Info_measure_main_exp,2022.2.2,Win32,143.7607821,,,,,,,,,,,,,,,,,,masks/mask_001.jpg,,,,,,,,,,,,,,,,,,,,,,,,,,,,,,,,,,,,,,,,,,0,2,2,0,1,,,,,,,,,,,,,,,,,,,,,,,,,,,,,,,,,,,,,,,,,,,,,,
417839,001,2022-11-20_23h52.59.358,Info_measure_main_exp,2022.2.2,Win32,143.7607821,,,,,,,,,,,,,,,,,,masks/mask_005.jpg,,,,,,,,,,,,,,,,,,,,,,,,,,,,,,,,,,,,,,,,,,0,3,3,4,1,,,,,,,,,,,,,,,,,,,,,,,,,,,,,,,,,,,,,,,,,,,,,,
417839,001,2022-11-20_23h52.59.358,Info_measure_main_exp,2022.2.2,Win32,143.7607821,,,,,,,,,,,,,,,,,,masks/mask_003.jpg,,,,,,,,,,,,,,,,,,,,,,,,,,,,,,,,,,,,,,,,,,0,4,4,2,1,,,,,,,,,,,,,,,,,,,,,,,,,,,,,,,,,,,,,,,,,,,,,,
417839,001,2022-11-20_23h52.59.358,Info_measure_main_exp,2022.2.2,Win32,143.7607821,,,,,,,,,,,,,,,,,,masks/mask_001.jpg,,,,,,,,,,,,,,,,,,,,,,,,,,,,,,,,,,,,,,,,,,,,,,,0,0,0,0,1,,,,,,,,,,,,,,,,,,,,,,,,,,,,,,,,,,,,,,,,,
417839,001,2022-11-20_23h52.59.358,Info_measure_main_exp,2022.2.2,Win32,143.7607821,,,,,,,,,,,,,,,,,,masks/mask_004.jpg,,,,,,,,,,,,,,,,,,,,,,,,,,,,,,,,,,,,,,,,,,,,,,,0,1,1,3,1,,,,,,,,,,,,,,,,,,,,,,,,,,,,,,,,,,,,,,,,,
417839,001,2022-11-20_23h52.59.358,Info_measure_main_exp,2022.2.2,Win32,143.7607821,,,,,,,,,,,,,,,,,,masks/mask_002.jpg,,,,,,,,,,,,,,,,,,,,,,,,,,,,,,,,,,,,,,,,,,,,,,,0,2,2,1,1,,,,,,,,,,,,,,,,,,,,,,,,,,,,,,,,,,,,,,,,,
417839,001,2022-11-20_23h52.59.358,Info_measure_main_exp,2022.2.2,Win32,143.7607821,,,,,,,,,,,,,,,,,,masks/mask_003.jpg,,,,,,,,,,,,,,,,,,,,,,,,,,,,,,,,,,,,,,,,,,,,,,,0,3,3,2,1,,,,,,,,,,,,,,,,,,,,,,,,,,,,,,,,,,,,,,,,,
417839,001,2022-11-20_23h52.59.358,Info_measure_main_exp,2022.2.2,Win32,143.7607821,,,,,,,,,,,,,,,,,,masks/mask_005.jpg,,,,,,,,,,,,,,,,,,,,,,,,,,,,,,,,,,,,,,,,,,,,,,,0,4,4,4,1,,,,,,,,,,,,,,,,,,,,,,,,,,,,,,,,,,,,,,,,,
417839,001,2022-11-20_23h52.59.358,Info_measure_main_exp,2022.2.2,Win32,143.7607821,,,,,,,,,,,,,,,,,,,,,,,,,,,,,,2,0.7567,1,,,,,,,,,,,,0,131,5,5,1950,2082,absent_patch/patch0001950.jpg,absent_patch/patch0002082.jpg,,,,,,,,,,,,,,,,,,,-0.106481481,-0.069444444,1,0,0,response5disk,16,-0.001851852,-0.001851852,1,0,0,center_square,0,15,15,12,1,,,,,,,,,,,,,,,,,,,,,,,
417839,001,2022-11-20_23h52.59.358,Info_measure_main_exp,2022.2.2,Win32,143.7607821,,,,,,,,,,,,,,,,,,masks/mask_004.jpg,,,,,,,,,,,,,,,,,,,,,,,,,,,,,,,,,,,,,,,,,,0,0,0,3,1,,,,,,,,,,,,,,,,,,,,,,,,,,,,,,,,,,,,,,,,,,,,,,
417839,001,2022-11-20_23h52.59.358,Info_measure_main_exp,2022.2.2,Win32,143.7607821,,,,,,,,,,,,,,,,,,masks/mask_003.jpg,,,,,,,,,,,,,,,,,,,,,,,,,,,,,,,,,,,,,,,,,,0,1,1,2,1,,,,,,,,,,,,,,,,,,,,,,,,,,,,,,,,,,,,,,,,,,,,,,
417839,001,2022-11-20_23h52.59.358,Info_measure_main_exp,2022.2.2,Win32,143.7607821,,,,,,,,,,,,,,,,,,masks/mask_001.jpg,,,,,,,,,,,,,,,,,,,,,,,,,,,,,,,,,,,,,,,,,,0,2,2,0,1,,,,,,,,,,,,,,,,,,,,,,,,,,,,,,,,,,,,,,,,,,,,,,
417839,001,2022-11-20_23h52.59.358,Info_measure_main_exp,2022.2.2,Win32,143.7607821,,,,,,,,,,,,,,,,,,masks/mask_005.jpg,,,,,,,,,,,,,,,,,,,,,,,,,,,,,,,,,,,,,,,,,,0,3,3,4,1,,,,,,,,,,,,,,,,,,,,,,,,,,,,,,,,,,,,,,,,,,,,,,
417839,001,2022-11-20_23h52.59.358,Info_measure_main_exp,2022.2.2,Win32,143.7607821,,,,,,,,,,,,,,,,,,masks/mask_002.jpg,,,,,,,,,,,,,,,,,,,,,,,,,,,,,,,,,,,,,,,,,,0,4,4,1,1,,,,,,,,,,,,,,,,,,,,,,,,,,,,,,,,,,,,,,,,,,,,,,
417839,001,2022-11-20_23h52.59.358,Info_measure_main_exp,2022.2.2,Win32,143.7607821,,,,,,,,,,,,,,,,,,masks/mask_004.jpg,,,,,,,,,,,,,,,,,,,,,,,,,,,,,,,,,,,,,,,,,,,,,,,0,0,0,3,1,,,,,,,,,,,,,,,,,,,,,,,,,,,,,,,,,,,,,,,,,
417839,001,2022-11-20_23h52.59.358,Info_measure_main_exp,2022.2.2,Win32,143.7607821,,,,,,,,,,,,,,,,,,masks/mask_002.jpg,,,,,,,,,,,,,,,,,,,,,,,,,,,,,,,,,,,,,,,,,,,,,,,0,1,1,1,1,,,,,,,,,,,,,,,,,,,,,,,,,,,,,,,,,,,,,,,,,
417839,001,2022-11-20_23h52.59.358,Info_measure_main_exp,2022.2.2,Win32,143.7607821,,,,,,,,,,,,,,,,,,masks/mask_001.jpg,,,,,,,,,,,,,,,,,,,,,,,,,,,,,,,,,,,,,,,,,,,,,,,0,2,2,0,1,,,,,,,,,,,,,,,,,,,,,,,,,,,,,,,,,,,,,,,,,
417839,001,2022-11-20_23h52.59.358,Info_measure_main_exp,2022.2.2,Win32,143.7607821,,,,,,,,,,,,,,,,,,masks/mask_003.jpg,,,,,,,,,,,,,,,,,,,,,,,,,,,,,,,,,,,,,,,,,,,,,,,0,3,3,2,1,,,,,,,,,,,,,,,,,,,,,,,,,,,,,,,,,,,,,,,,,
417839,001,2022-11-20_23h52.59.358,Info_measure_main_exp,2022.2.2,Win32,143.7607821,,,,,,,,,,,,,,,,,,masks/mask_005.jpg,,,,,,,,,,,,,,,,,,,,,,,,,,,,,,,,,,,,,,,,,,,,,,,0,4,4,4,1,,,,,,,,,,,,,,,,,,,,,,,,,,,,,,,,,,,,,,,,,
417839,001,2022-11-20_23h52.59.358,Info_measure_main_exp,2022.2.2,Win32,143.7607821,,,,,,,,,,,,,,,,,,,,,,,,,,,,,,4,0.6687,1,,,,,,,,,,,,0,131,5,5,2214,2178,absent_patch/patch0002214.jpg,absent_patch/patch0002178.jpg,,,,,,,,,,,,,,,,,,,0.059259259,-0.122222222,1,0,0,response3disk,17,0,-0.001851852,1,0,0,center_square,0,16,16,62,1,,,,,,,,,,,,,,,,,,,,,,,
417839,001,2022-11-20_23h52.59.358,Info_measure_main_exp,2022.2.2,Win32,143.7607821,,,,,,,,,,,,,,,,,,masks/mask_002.jpg,,,,,,,,,,,,,,,,,,,,,,,,,,,,,,,,,,,,,,,,,,0,0,0,1,1,,,,,,,,,,,,,,,,,,,,,,,,,,,,,,,,,,,,,,,,,,,,,,
417839,001,2022-11-20_23h52.59.358,Info_measure_main_exp,2022.2.2,Win32,143.7607821,,,,,,,,,,,,,,,,,,masks/mask_005.jpg,,,,,,,,,,,,,,,,,,,,,,,,,,,,,,,,,,,,,,,,,,0,1,1,4,1,,,,,,,,,,,,,,,,,,,,,,,,,,,,,,,,,,,,,,,,,,,,,,
417839,001,2022-11-20_23h52.59.358,Info_measure_main_exp,2022.2.2,Win32,143.7607821,,,,,,,,,,,,,,,,,,masks/mask_001.jpg,,,,,,,,,,,,,,,,,,,,,,,,,,,,,,,,,,,,,,,,,,0,2,2,0,1,,,,,,,,,,,,,,,,,,,,,,,,,,,,,,,,,,,,,,,,,,,,,,
417839,001,2022-11-20_23h52.59.358,Info_measure_main_exp,2022.2.2,Win32,143.7607821,,,,,,,,,,,,,,,,,,masks/mask_004.jpg,,,,,,,,,,,,,,,,,,,,,,,,,,,,,,,,,,,,,,,,,,0,3,3,3,1,,,,,,,,,,,,,,,,,,,,,,,,,,,,,,,,,,,,,,,,,,,,,,
417839,001,2022-11-20_23h52.59.358,Info_measure_main_exp,2022.2.2,Win32,143.7607821,,,,,,,,,,,,,,,,,,masks/mask_003.jpg,,,,,,,,,,,,,,,,,,,,,,,,,,,,,,,,,,,,,,,,,,0,4,4,2,1,,,,,,,,,,,,,,,,,,,,,,,,,,,,,,,,,,,,,,,,,,,,,,
417839,001,2022-11-20_23h52.59.358,Info_measure_main_exp,2022.2.2,Win32,143.7607821,,,,,,,,,,,,,,,,,,masks/mask_003.jpg,,,,,,,,,,,,,,,,,,,,,,,,,,,,,,,,,,,,,,,,,,,,,,,0,0,0,2,1,,,,,,,,,,,,,,,,,,,,,,,,,,,,,,,,,,,,,,,,,
417839,001,2022-11-20_23h52.59.358,Info_measure_main_exp,2022.2.2,Win32,143.7607821,,,,,,,,,,,,,,,,,,masks/mask_004.jpg,,,,,,,,,,,,,,,,,,,,,,,,,,,,,,,,,,,,,,,,,,,,,,,0,1,1,3,1,,,,,,,,,,,,,,,,,,,,,,,,,,,,,,,,,,,,,,,,,
417839,001,2022-11-20_23h52.59.358,Info_measure_main_exp,2022.2.2,Win32,143.7607821,,,,,,,,,,,,,,,,,,masks/mask_005.jpg,,,,,,,,,,,,,,,,,,,,,,,,,,,,,,,,,,,,,,,,,,,,,,,0,2,2,4,1,,,,,,,,,,,,,,,,,,,,,,,,,,,,,,,,,,,,,,,,,
417839,001,2022-11-20_23h52.59.358,Info_measure_main_exp,2022.2.2,Win32,143.7607821,,,,,,,,,,,,,,,,,,masks/mask_002.jpg,,,,,,,,,,,,,,,,,,,,,,,,,,,,,,,,,,,,,,,,,,,,,,,0,3,3,1,1,,,,,,,,,,,,,,,,,,,,,,,,,,,,,,,,,,,,,,,,,
417839,001,2022-11-20_23h52.59.358,Info_measure_main_exp,2022.2.2,Win32,143.7607821,,,,,,,,,,,,,,,,,,masks/mask_001.jpg,,,,,,,,,,,,,,,,,,,,,,,,,,,,,,,,,,,,,,,,,,,,,,,0,4,4,0,1,,,,,,,,,,,,,,,,,,,,,,,,,,,,,,,,,,,,,,,,,
417839,001,2022-11-20_23h52.59.358,Info_measure_main_exp,2022.2.2,Win32,143.7607821,,,,,,,,,,,,,,,,,,,,,,,,,,,,,,7,1.3503,1,,,,,,,,,,,,0,131,5,5,2166,1986,absent_patch/patch0002166.jpg,absent_patch/patch0001986.jpg,,,,,,,,,,,,,,,,,,,0.046296296,0.093518519,1,0,0,response1disk,18,0.008333333,0,1,0,0,center_square,0,17,17,47,1,,,,,,,,,,,,,,,,,,,,,,,
417839,001,2022-11-20_23h52.59.358,Info_measure_main_exp,2022.2.2,Win32,143.7607821,,,,,,,,,,,,,,,,,,masks/mask_002.jpg,,,,,,,,,,,,,,,,,,,,,,,,,,,,,,,,,,,,,,,,,,0,0,0,1,1,,,,,,,,,,,,,,,,,,,,,,,,,,,,,,,,,,,,,,,,,,,,,,
417839,001,2022-11-20_23h52.59.358,Info_measure_main_exp,2022.2.2,Win32,143.7607821,,,,,,,,,,,,,,,,,,masks/mask_001.jpg,,,,,,,,,,,,,,,,,,,,,,,,,,,,,,,,,,,,,,,,,,0,1,1,0,1,,,,,,,,,,,,,,,,,,,,,,,,,,,,,,,,,,,,,,,,,,,,,,
417839,001,2022-11-20_23h52.59.358,Info_measure_main_exp,2022.2.2,Win32,143.7607821,,,,,,,,,,,,,,,,,,masks/mask_003.jpg,,,,,,,,,,,,,,,,,,,,,,,,,,,,,,,,,,,,,,,,,,0,2,2,2,1,,,,,,,,,,,,,,,,,,,,,,,,,,,,,,,,,,,,,,,,,,,,,,
417839,001,2022-11-20_23h52.59.358,Info_measure_main_exp,2022.2.2,Win32,143.7607821,,,,,,,,,,,,,,,,,,masks/mask_004.jpg,,,,,,,,,,,,,,,,,,,,,,,,,,,,,,,,,,,,,,,,,,0,3,3,3,1,,,,,,,,,,,,,,,,,,,,,,,,,,,,,,,,,,,,,,,,,,,,,,
417839,001,2022-11-20_23h52.59.358,Info_measure_main_exp,2022.2.2,Win32,143.7607821,,,,,,,,,,,,,,,,,,masks/mask_005.jpg,,,,,,,,,,,,,,,,,,,,,,,,,,,,,,,,,,,,,,,,,,0,4,4,4,1,,,,,,,,,,,,,,,,,,,,,,,,,,,,,,,,,,,,,,,,,,,,,,
417839,001,2022-11-20_23h52.59.358,Info_measure_main_exp,2022.2.2,Win32,143.7607821,,,,,,,,,,,,,,,,,,masks/mask_002.jpg,,,,,,,,,,,,,,,,,,,,,,,,,,,,,,,,,,,,,,,,,,,,,,,0,0,0,1,1,,,,,,,,,,,,,,,,,,,,,,,,,,,,,,,,,,,,,,,,,
417839,001,2022-11-20_23h52.59.358,Info_measure_main_exp,2022.2.2,Win32,143.7607821,,,,,,,,,,,,,,,,,,masks/mask_003.jpg,,,,,,,,,,,,,,,,,,,,,,,,,,,,,,,,,,,,,,,,,,,,,,,0,1,1,2,1,,,,,,,,,,,,,,,,,,,,,,,,,,,,,,,,,,,,,,,,,
417839,001,2022-11-20_23h52.59.358,Info_measure_main_exp,2022.2.2,Win32,143.7607821,,,,,,,,,,,,,,,,,,masks/mask_001.jpg,,,,,,,,,,,,,,,,,,,,,,,,,,,,,,,,,,,,,,,,,,,,,,,0,2,2,0,1,,,,,,,,,,,,,,,,,,,,,,,,,,,,,,,,,,,,,,,,,
417839,001,2022-11-20_23h52.59.358,Info_measure_main_exp,2022.2.2,Win32,143.7607821,,,,,,,,,,,,,,,,,,masks/mask_005.jpg,,,,,,,,,,,,,,,,,,,,,,,,,,,,,,,,,,,,,,,,,,,,,,,0,3,3,4,1,,,,,,,,,,,,,,,,,,,,,,,,,,,,,,,,,,,,,,,,,
417839,001,2022-11-20_23h52.59.358,Info_measure_main_exp,2022.2.2,Win32,143.7607821,,,,,,,,,,,,,,,,,,masks/mask_004.jpg,,,,,,,,,,,,,,,,,,,,,,,,,,,,,,,,,,,,,,,,,,,,,,,0,4,4,3,1,,,,,,,,,,,,,,,,,,,,,,,,,,,,,,,,,,,,,,,,,
417839,001,2022-11-20_23h52.59.358,Info_measure_main_exp,2022.2.2,Win32,143.7607821,,,,,,,,,,,,,,,,,,,,,,,,,,,,,,0,0.9264,1,,,,,,,,,,,,0,131,5,5,2190,1950,absent_patch/patch0002190.jpg,absent_patch/patch0001950.jpg,,,,,,,,,,,,,,,,,,,-0.00462963,0.109259259,1,0,0,response7disk,19,-0.010185185,-0.002777778,1,0,0,center_square,0,18,18,73,1,,,,,,,,,,,,,,,,,,,,,,,
417839,001,2022-11-20_23h52.59.358,Info_measure_main_exp,2022.2.2,Win32,143.7607821,,,,,,,,,,,,,,,,,,masks/mask_004.jpg,,,,,,,,,,,,,,,,,,,,,,,,,,,,,,,,,,,,,,,,,,0,0,0,3,1,,,,,,,,,,,,,,,,,,,,,,,,,,,,,,,,,,,,,,,,,,,,,,
417839,001,2022-11-20_23h52.59.358,Info_measure_main_exp,2022.2.2,Win32,143.7607821,,,,,,,,,,,,,,,,,,masks/mask_001.jpg,,,,,,,,,,,,,,,,,,,,,,,,,,,,,,,,,,,,,,,,,,0,1,1,0,1,,,,,,,,,,,,,,,,,,,,,,,,,,,,,,,,,,,,,,,,,,,,,,
417839,001,2022-11-20_23h52.59.358,Info_measure_main_exp,2022.2.2,Win32,143.7607821,,,,,,,,,,,,,,,,,,masks/mask_005.jpg,,,,,,,,,,,,,,,,,,,,,,,,,,,,,,,,,,,,,,,,,,0,2,2,4,1,,,,,,,,,,,,,,,,,,,,,,,,,,,,,,,,,,,,,,,,,,,,,,
417839,001,2022-11-20_23h52.59.358,Info_measure_main_exp,2022.2.2,Win32,143.7607821,,,,,,,,,,,,,,,,,,masks/mask_003.jpg,,,,,,,,,,,,,,,,,,,,,,,,,,,,,,,,,,,,,,,,,,0,3,3,2,1,,,,,,,,,,,,,,,,,,,,,,,,,,,,,,,,,,,,,,,,,,,,,,
417839,001,2022-11-20_23h52.59.358,Info_measure_main_exp,2022.2.2,Win32,143.7607821,,,,,,,,,,,,,,,,,,masks/mask_002.jpg,,,,,,,,,,,,,,,,,,,,,,,,,,,,,,,,,,,,,,,,,,0,4,4,1,1,,,,,,,,,,,,,,,,,,,,,,,,,,,,,,,,,,,,,,,,,,,,,,
417839,001,2022-11-20_23h52.59.358,Info_measure_main_exp,2022.2.2,Win32,143.7607821,,,,,,,,,,,,,,,,,,masks/mask_001.jpg,,,,,,,,,,,,,,,,,,,,,,,,,,,,,,,,,,,,,,,,,,,,,,,0,0,0,0,1,,,,,,,,,,,,,,,,,,,,,,,,,,,,,,,,,,,,,,,,,
417839,001,2022-11-20_23h52.59.358,Info_measure_main_exp,2022.2.2,Win32,143.7607821,,,,,,,,,,,,,,,,,,masks/mask_004.jpg,,,,,,,,,,,,,,,,,,,,,,,,,,,,,,,,,,,,,,,,,,,,,,,0,1,1,3,1,,,,,,,,,,,,,,,,,,,,,,,,,,,,,,,,,,,,,,,,,
417839,001,2022-11-20_23h52.59.358,Info_measure_main_exp,2022.2.2,Win32,143.7607821,,,,,,,,,,,,,,,,,,masks/mask_005.jpg,,,,,,,,,,,,,,,,,,,,,,,,,,,,,,,,,,,,,,,,,,,,,,,0,2,2,4,1,,,,,,,,,,,,,,,,,,,,,,,,,,,,,,,,,,,,,,,,,
417839,001,2022-11-20_23h52.59.358,Info_measure_main_exp,2022.2.2,Win32,143.7607821,,,,,,,,,,,,,,,,,,masks/mask_003.jpg,,,,,,,,,,,,,,,,,,,,,,,,,,,,,,,,,,,,,,,,,,,,,,,0,3,3,2,1,,,,,,,,,,,,,,,,,,,,,,,,,,,,,,,,,,,,,,,,,
417839,001,2022-11-20_23h52.59.358,Info_measure_main_exp,2022.2.2,Win32,143.7607821,,,,,,,,,,,,,,,,,,masks/mask_002.jpg,,,,,,,,,,,,,,,,,,,,,,,,,,,,,,,,,,,,,,,,,,,,,,,0,4,4,1,1,,,,,,,,,,,,,,,,,,,,,,,,,,,,,,,,,,,,,,,,,
417839,001,2022-11-20_23h52.59.358,Info_measure_main_exp,2022.2.2,Win32,143.7607821,,,,,,,,,,,,,,,,,,,,,,,,,,,,,,4,1.3054,1,,,,,,,,,,,,0,131,5,5,2250,1950,absent_patch/patch0002250.jpg,absent_patch/patch0001950.jpg,,,,,,,,,,,,,,,,,,,0.051851852,-0.088888889,1,0,0,response3disk,20,-0.010185185,-0.005555556,1,0,0,center_square,0,19,19,16,1,,,,,,,,,,,,,,,,,,,,,,,
417839,001,2022-11-20_23h52.59.358,Info_measure_main_exp,2022.2.2,Win32,143.7607821,,,,,,,,,,,,,,,,,,masks/mask_002.jpg,,,,,,,,,,,,,,,,,,,,,,,,,,,,,,,,,,,,,,,,,,0,0,0,1,1,,,,,,,,,,,,,,,,,,,,,,,,,,,,,,,,,,,,,,,,,,,,,,
417839,001,2022-11-20_23h52.59.358,Info_measure_main_exp,2022.2.2,Win32,143.7607821,,,,,,,,,,,,,,,,,,masks/mask_005.jpg,,,,,,,,,,,,,,,,,,,,,,,,,,,,,,,,,,,,,,,,,,0,1,1,4,1,,,,,,,,,,,,,,,,,,,,,,,,,,,,,,,,,,,,,,,,,,,,,,
417839,001,2022-11-20_23h52.59.358,Info_measure_main_exp,2022.2.2,Win32,143.7607821,,,,,,,,,,,,,,,,,,masks/mask_003.jpg,,,,,,,,,,,,,,,,,,,,,,,,,,,,,,,,,,,,,,,,,,0,2,2,2,1,,,,,,,,,,,,,,,,,,,,,,,,,,,,,,,,,,,,,,,,,,,,,,
417839,001,2022-11-20_23h52.59.358,Info_measure_main_exp,2022.2.2,Win32,143.7607821,,,,,,,,,,,,,,,,,,masks/mask_004.jpg,,,,,,,,,,,,,,,,,,,,,,,,,,,,,,,,,,,,,,,,,,0,3,3,3,1,,,,,,,,,,,,,,,,,,,,,,,,,,,,,,,,,,,,,,,,,,,,,,
417839,001,2022-11-20_23h52.59.358,Info_measure_main_exp,2022.2.2,Win32,143.7607821,,,,,,,,,,,,,,,,,,masks/mask_001.jpg,,,,,,,,,,,,,,,,,,,,,,,,,,,,,,,,,,,,,,,,,,0,4,4,0,1,,,,,,,,,,,,,,,,,,,,,,,,,,,,,,,,,,,,,,,,,,,,,,
417839,001,2022-11-20_23h52.59.358,Info_measure_main_exp,2022.2.2,Win32,143.7607821,,,,,,,,,,,,,,,,,,masks/mask_002.jpg,,,,,,,,,,,,,,,,,,,,,,,,,,,,,,,,,,,,,,,,,,,,,,,0,0,0,1,1,,,,,,,,,,,,,,,,,,,,,,,,,,,,,,,,,,,,,,,,,
417839,001,2022-11-20_23h52.59.358,Info_measure_main_exp,2022.2.2,Win32,143.7607821,,,,,,,,,,,,,,,,,,masks/mask_003.jpg,,,,,,,,,,,,,,,,,,,,,,,,,,,,,,,,,,,,,,,,,,,,,,,0,1,1,2,1,,,,,,,,,,,,,,,,,,,,,,,,,,,,,,,,,,,,,,,,,
417839,001,2022-11-20_23h52.59.358,Info_measure_main_exp,2022.2.2,Win32,143.7607821,,,,,,,,,,,,,,,,,,masks/mask_004.jpg,,,,,,,,,,,,,,,,,,,,,,,,,,,,,,,,,,,,,,,,,,,,,,,0,2,2,3,1,,,,,,,,,,,,,,,,,,,,,,,,,,,,,,,,,,,,,,,,,
417839,001,2022-11-20_23h52.59.358,Info_measure_main_exp,2022.2.2,Win32,143.7607821,,,,,,,,,,,,,,,,,,masks/mask_005.jpg,,,,,,,,,,,,,,,,,,,,,,,,,,,,,,,,,,,,,,,,,,,,,,,0,3,3,4,1,,,,,,,,,,,,,,,,,,,,,,,,,,,,,,,,,,,,,,,,,
417839,001,2022-11-20_23h52.59.358,Info_measure_main_exp,2022.2.2,Win32,143.7607821,,,,,,,,,,,,,,,,,,masks/mask_001.jpg,,,,,,,,,,,,,,,,,,,,,,,,,,,,,,,,,,,,,,,,,,,,,,,0,4,4,0,1,,,,,,,,,,,,,,,,,,,,,,,,,,,,,,,,,,,,,,,,,
417839,001,2022-11-20_23h52.59.358,Info_measure_main_exp,2022.2.2,Win32,143.7607821,,,,,,,,,,,,,,,,,,,,,,,,,,,,,,0,0.7768,1,,,,,,,,,,,,0,131,5,5,2154,2190,absent_patch/patch0002154.jpg,absent_patch/patch0002190.jpg,,,,,,,,,,,,,,,,,,,-0.022222222,0.110185185,1,0,0,response7disk,21,0.00462963,-0.005555556,1,0,0,center_square,0,20,20,68,1,,,,,,,,,,,,,,,,,,,,,,,
417839,001,2022-11-20_23h52.59.358,Info_measure_main_exp,2022.2.2,Win32,143.7607821,,,,,,,,,,,,,,,,,,masks/mask_001.jpg,,,,,,,,,,,,,,,,,,,,,,,,,,,,,,,,,,,,,,,,,,0,0,0,0,1,,,,,,,,,,,,,,,,,,,,,,,,,,,,,,,,,,,,,,,,,,,,,,
417839,001,2022-11-20_23h52.59.358,Info_measure_main_exp,2022.2.2,Win32,143.7607821,,,,,,,,,,,,,,,,,,masks/mask_005.jpg,,,,,,,,,,,,,,,,,,,,,,,,,,,,,,,,,,,,,,,,,,0,1,1,4,1,,,,,,,,,,,,,,,,,,,,,,,,,,,,,,,,,,,,,,,,,,,,,,
417839,001,2022-11-20_23h52.59.358,Info_measure_main_exp,2022.2.2,Win32,143.7607821,,,,,,,,,,,,,,,,,,masks/mask_004.jpg,,,,,,,,,,,,,,,,,,,,,,,,,,,,,,,,,,,,,,,,,,0,2,2,3,1,,,,,,,,,,,,,,,,,,,,,,,,,,,,,,,,,,,,,,,,,,,,,,
417839,001,2022-11-20_23h52.59.358,Info_measure_main_exp,2022.2.2,Win32,143.7607821,,,,,,,,,,,,,,,,,,masks/mask_002.jpg,,,,,,,,,,,,,,,,,,,,,,,,,,,,,,,,,,,,,,,,,,0,3,3,1,1,,,,,,,,,,,,,,,,,,,,,,,,,,,,,,,,,,,,,,,,,,,,,,
417839,001,2022-11-20_23h52.59.358,Info_measure_main_exp,2022.2.2,Win32,143.7607821,,,,,,,,,,,,,,,,,,masks/mask_003.jpg,,,,,,,,,,,,,,,,,,,,,,,,,,,,,,,,,,,,,,,,,,0,4,4,2,1,,,,,,,,,,,,,,,,,,,,,,,,,,,,,,,,,,,,,,,,,,,,,,
417839,001,2022-11-20_23h52.59.358,Info_measure_main_exp,2022.2.2,Win32,143.7607821,,,,,,,,,,,,,,,,,,masks/mask_005.jpg,,,,,,,,,,,,,,,,,,,,,,,,,,,,,,,,,,,,,,,,,,,,,,,0,0,0,4,1,,,,,,,,,,,,,,,,,,,,,,,,,,,,,,,,,,,,,,,,,
417839,001,2022-11-20_23h52.59.358,Info_measure_main_exp,2022.2.2,Win32,143.7607821,,,,,,,,,,,,,,,,,,masks/mask_003.jpg,,,,,,,,,,,,,,,,,,,,,,,,,,,,,,,,,,,,,,,,,,,,,,,0,1,1,2,1,,,,,,,,,,,,,,,,,,,,,,,,,,,,,,,,,,,,,,,,,
417839,001,2022-11-20_23h52.59.358,Info_measure_main_exp,2022.2.2,Win32,143.7607821,,,,,,,,,,,,,,,,,,masks/mask_001.jpg,,,,,,,,,,,,,,,,,,,,,,,,,,,,,,,,,,,,,,,,,,,,,,,0,2,2,0,1,,,,,,,,,,,,,,,,,,,,,,,,,,,,,,,,,,,,,,,,,
417839,001,2022-11-20_23h52.59.358,Info_measure_main_exp,2022.2.2,Win32,143.7607821,,,,,,,,,,,,,,,,,,masks/mask_004.jpg,,,,,,,,,,,,,,,,,,,,,,,,,,,,,,,,,,,,,,,,,,,,,,,0,3,3,3,1,,,,,,,,,,,,,,,,,,,,,,,,,,,,,,,,,,,,,,,,,
417839,001,2022-11-20_23h52.59.358,Info_measure_main_exp,2022.2.2,Win32,143.7607821,,,,,,,,,,,,,,,,,,masks/mask_002.jpg,,,,,,,,,,,,,,,,,,,,,,,,,,,,,,,,,,,,,,,,,,,,,,,0,4,4,1,1,,,,,,,,,,,,,,,,,,,,,,,,,,,,,,,,,,,,,,,,,
417839,001,2022-11-20_23h52.59.358,Info_measure_main_exp,2022.2.2,Win32,143.7607821,,,,,,,,,,,,,,,,,,,,,,,,,,,,,,0,0.9908,1,,,,,,,,,,,,0,131,5,5,2274,2274,absent_patch/patch0002274.jpg,absent_patch/patch0002274.jpg,,,,,,,,,,,,,,,,,,,-0.032407407,0.130555556,1,0,0,response7disk,22,-0.005555556,-0.010185185,1,0,0,center_square,0,21,21,114,1,,,,,,,,,,,,,,,,,,,,,,,
417839,001,2022-11-20_23h52.59.358,Info_measure_main_exp,2022.2.2,Win32,143.7607821,,,,,,,,,,,,,,,,,,masks/mask_003.jpg,,,,,,,,,,,,,,,,,,,,,,,,,,,,,,,,,,,,,,,,,,0,0,0,2,1,,,,,,,,,,,,,,,,,,,,,,,,,,,,,,,,,,,,,,,,,,,,,,
417839,001,2022-11-20_23h52.59.358,Info_measure_main_exp,2022.2.2,Win32,143.7607821,,,,,,,,,,,,,,,,,,masks/mask_002.jpg,,,,,,,,,,,,,,,,,,,,,,,,,,,,,,,,,,,,,,,,,,0,1,1,1,1,,,,,,,,,,,,,,,,,,,,,,,,,,,,,,,,,,,,,,,,,,,,,,
417839,001,2022-11-20_23h52.59.358,Info_measure_main_exp,2022.2.2,Win32,143.7607821,,,,,,,,,,,,,,,,,,masks/mask_001.jpg,,,,,,,,,,,,,,,,,,,,,,,,,,,,,,,,,,,,,,,,,,0,2,2,0,1,,,,,,,,,,,,,,,,,,,,,,,,,,,,,,,,,,,,,,,,,,,,,,
417839,001,2022-11-20_23h52.59.358,Info_measure_main_exp,2022.2.2,Win32,143.7607821,,,,,,,,,,,,,,,,,,masks/mask_005.jpg,,,,,,,,,,,,,,,,,,,,,,,,,,,,,,,,,,,,,,,,,,0,3,3,4,1,,,,,,,,,,,,,,,,,,,,,,,,,,,,,,,,,,,,,,,,,,,,,,
417839,001,2022-11-20_23h52.59.358,Info_measure_main_exp,2022.2.2,Win32,143.7607821,,,,,,,,,,,,,,,,,,masks/mask_004.jpg,,,,,,,,,,,,,,,,,,,,,,,,,,,,,,,,,,,,,,,,,,0,4,4,3,1,,,,,,,,,,,,,,,,,,,,,,,,,,,,,,,,,,,,,,,,,,,,,,
417839,001,2022-11-20_23h52.59.358,Info_measure_main_exp,2022.2.2,Win32,143.7607821,,,,,,,,,,,,,,,,,,masks/mask_001.jpg,,,,,,,,,,,,,,,,,,,,,,,,,,,,,,,,,,,,,,,,,,,,,,,0,0,0,0,1,,,,,,,,,,,,,,,,,,,,,,,,,,,,,,,,,,,,,,,,,
417839,001,2022-11-20_23h52.59.358,Info_measure_main_exp,2022.2.2,Win32,143.7607821,,,,,,,,,,,,,,,,,,masks/mask_004.jpg,,,,,,,,,,,,,,,,,,,,,,,,,,,,,,,,,,,,,,,,,,,,,,,0,1,1,3,1,,,,,,,,,,,,,,,,,,,,,,,,,,,,,,,,,,,,,,,,,
417839,001,2022-11-20_23h52.59.358,Info_measure_main_exp,2022.2.2,Win32,143.7607821,,,,,,,,,,,,,,,,,,masks/mask_003.jpg,,,,,,,,,,,,,,,,,,,,,,,,,,,,,,,,,,,,,,,,,,,,,,,0,2,2,2,1,,,,,,,,,,,,,,,,,,,,,,,,,,,,,,,,,,,,,,,,,
417839,001,2022-11-20_23h52.59.358,Info_measure_main_exp,2022.2.2,Win32,143.7607821,,,,,,,,,,,,,,,,,,masks/mask_002.jpg,,,,,,,,,,,,,,,,,,,,,,,,,,,,,,,,,,,,,,,,,,,,,,,0,3,3,1,1,,,,,,,,,,,,,,,,,,,,,,,,,,,,,,,,,,,,,,,,,
417839,001,2022-11-20_23h52.59.358,Info_measure_main_exp,2022.2.2,Win32,143.7607821,,,,,,,,,,,,,,,,,,masks/mask_005.jpg,,,,,,,,,,,,,,,,,,,,,,,,,,,,,,,,,,,,,,,,,,,,,,,0,4,4,4,1,,,,,,,,,,,,,,,,,,,,,,,,,,,,,,,,,,,,,,,,,
417839,001,2022-11-20_23h52.59.358,Info_measure_main_exp,2022.2.2,Win32,143.7607821,,,,,,,,,,,,,,,,,,,,,,,,,,,,,,7,0.7913,1,,,,,,,,,,,,0,131,5,5,2190,2166,absent_patch/patch0002190.jpg,absent_patch/patch0002166.jpg,,,,,,,,,,,,,,,,,,,0.082407407,0.155555556,1,0,0,response1disk,23,-0.003703704,-0.005555556,1,0,0,center_square,0,22,22,50,1,,,,,,,,,,,,,,,,,,,,,,,
417839,001,2022-11-20_23h52.59.358,Info_measure_main_exp,2022.2.2,Win32,143.7607821,,,,,,,,,,,,,,,,,,masks/mask_004.jpg,,,,,,,,,,,,,,,,,,,,,,,,,,,,,,,,,,,,,,,,,,0,0,0,3,1,,,,,,,,,,,,,,,,,,,,,,,,,,,,,,,,,,,,,,,,,,,,,,
417839,001,2022-11-20_23h52.59.358,Info_measure_main_exp,2022.2.2,Win32,143.7607821,,,,,,,,,,,,,,,,,,masks/mask_005.jpg,,,,,,,,,,,,,,,,,,,,,,,,,,,,,,,,,,,,,,,,,,0,1,1,4,1,,,,,,,,,,,,,,,,,,,,,,,,,,,,,,,,,,,,,,,,,,,,,,
417839,001,2022-11-20_23h52.59.358,Info_measure_main_exp,2022.2.2,Win32,143.7607821,,,,,,,,,,,,,,,,,,masks/mask_001.jpg,,,,,,,,,,,,,,,,,,,,,,,,,,,,,,,,,,,,,,,,,,0,2,2,0,1,,,,,,,,,,,,,,,,,,,,,,,,,,,,,,,,,,,,,,,,,,,,,,
417839,001,2022-11-20_23h52.59.358,Info_measure_main_exp,2022.2.2,Win32,143.7607821,,,,,,,,,,,,,,,,,,masks/mask_003.jpg,,,,,,,,,,,,,,,,,,,,,,,,,,,,,,,,,,,,,,,,,,0,3,3,2,1,,,,,,,,,,,,,,,,,,,,,,,,,,,,,,,,,,,,,,,,,,,,,,
417839,001,2022-11-20_23h52.59.358,Info_measure_main_exp,2022.2.2,Win32,143.7607821,,,,,,,,,,,,,,,,,,masks/mask_002.jpg,,,,,,,,,,,,,,,,,,,,,,,,,,,,,,,,,,,,,,,,,,0,4,4,1,1,,,,,,,,,,,,,,,,,,,,,,,,,,,,,,,,,,,,,,,,,,,,,,
417839,001,2022-11-20_23h52.59.358,Info_measure_main_exp,2022.2.2,Win32,143.7607821,,,,,,,,,,,,,,,,,,masks/mask_001.jpg,,,,,,,,,,,,,,,,,,,,,,,,,,,,,,,,,,,,,,,,,,,,,,,0,0,0,0,1,,,,,,,,,,,,,,,,,,,,,,,,,,,,,,,,,,,,,,,,,
417839,001,2022-11-20_23h52.59.358,Info_measure_main_exp,2022.2.2,Win32,143.7607821,,,,,,,,,,,,,,,,,,masks/mask_005.jpg,,,,,,,,,,,,,,,,,,,,,,,,,,,,,,,,,,,,,,,,,,,,,,,0,1,1,4,1,,,,,,,,,,,,,,,,,,,,,,,,,,,,,,,,,,,,,,,,,
417839,001,2022-11-20_23h52.59.358,Info_measure_main_exp,2022.2.2,Win32,143.7607821,,,,,,,,,,,,,,,,,,masks/mask_002.jpg,,,,,,,,,,,,,,,,,,,,,,,,,,,,,,,,,,,,,,,,,,,,,,,0,2,2,1,1,,,,,,,,,,,,,,,,,,,,,,,,,,,,,,,,,,,,,,,,,
417839,001,2022-11-20_23h52.59.358,Info_measure_main_exp,2022.2.2,Win32,143.7607821,,,,,,,,,,,,,,,,,,masks/mask_004.jpg,,,,,,,,,,,,,,,,,,,,,,,,,,,,,,,,,,,,,,,,,,,,,,,0,3,3,3,1,,,,,,,,,,,,,,,,,,,,,,,,,,,,,,,,,,,,,,,,,
417839,001,2022-11-20_23h52.59.358,Info_measure_main_exp,2022.2.2,Win32,143.7607821,,,,,,,,,,,,,,,,,,masks/mask_003.jpg,,,,,,,,,,,,,,,,,,,,,,,,,,,,,,,,,,,,,,,,,,,,,,,0,4,4,2,1,,,,,,,,,,,,,,,,,,,,,,,,,,,,,,,,,,,,,,,,,
417839,001,2022-11-20_23h52.59.358,Info_measure_main_exp,2022.2.2,Win32,143.7607821,,,,,,,,,,,,,,,,,,,,,,,,,,,,,,0,1.604,1,,,,,,,,,,,,0,131,5,5,1950,2178,absent_patch/patch0001950.jpg,absent_patch/patch0002178.jpg,,,,,,,,,,,,,,,,,,,-0.059259259,0.116666667,1,0,0,response7disk,24,0.001851852,-0.00462963,1,0,0,center_square,0,23,23,61,1,,,,,,,,,,,,,,,,,,,,,,,
417839,001,2022-11-20_23h52.59.358,Info_measure_main_exp,2022.2.2,Win32,143.7607821,,,,,,,,,,,,,,,,,,masks/mask_004.jpg,,,,,,,,,,,,,,,,,,,,,,,,,,,,,,,,,,,,,,,,,,0,0,0,3,1,,,,,,,,,,,,,,,,,,,,,,,,,,,,,,,,,,,,,,,,,,,,,,
417839,001,2022-11-20_23h52.59.358,Info_measure_main_exp,2022.2.2,Win32,143.7607821,,,,,,,,,,,,,,,,,,masks/mask_002.jpg,,,,,,,,,,,,,,,,,,,,,,,,,,,,,,,,,,,,,,,,,,0,1,1,1,1,,,,,,,,,,,,,,,,,,,,,,,,,,,,,,,,,,,,,,,,,,,,,,
417839,001,2022-11-20_23h52.59.358,Info_measure_main_exp,2022.2.2,Win32,143.7607821,,,,,,,,,,,,,,,,,,masks/mask_001.jpg,,,,,,,,,,,,,,,,,,,,,,,,,,,,,,,,,,,,,,,,,,0,2,2,0,1,,,,,,,,,,,,,,,,,,,,,,,,,,,,,,,,,,,,,,,,,,,,,,
417839,001,2022-11-20_23h52.59.358,Info_measure_main_exp,2022.2.2,Win32,143.7607821,,,,,,,,,,,,,,,,,,masks/mask_005.jpg,,,,,,,,,,,,,,,,,,,,,,,,,,,,,,,,,,,,,,,,,,0,3,3,4,1,,,,,,,,,,,,,,,,,,,,,,,,,,,,,,,,,,,,,,,,,,,,,,
417839,001,2022-11-20_23h52.59.358,Info_measure_main_exp,2022.2.2,Win32,143.7607821,,,,,,,,,,,,,,,,,,masks/mask_003.jpg,,,,,,,,,,,,,,,,,,,,,,,,,,,,,,,,,,,,,,,,,,0,4,4,2,1,,,,,,,,,,,,,,,,,,,,,,,,,,,,,,,,,,,,,,,,,,,,,,
417839,001,2022-11-20_23h52.59.358,Info_measure_main_exp,2022.2.2,Win32,143.7607821,,,,,,,,,,,,,,,,,,masks/mask_005.jpg,,,,,,,,,,,,,,,,,,,,,,,,,,,,,,,,,,,,,,,,,,,,,,,0,0,0,4,1,,,,,,,,,,,,,,,,,,,,,,,,,,,,,,,,,,,,,,,,,
417839,001,2022-11-20_23h52.59.358,Info_measure_main_exp,2022.2.2,Win32,143.7607821,,,,,,,,,,,,,,,,,,masks/mask_003.jpg,,,,,,,,,,,,,,,,,,,,,,,,,,,,,,,,,,,,,,,,,,,,,,,0,1,1,2,1,,,,,,,,,,,,,,,,,,,,,,,,,,,,,,,,,,,,,,,,,
417839,001,2022-11-20_23h52.59.358,Info_measure_main_exp,2022.2.2,Win32,143.7607821,,,,,,,,,,,,,,,,,,masks/mask_001.jpg,,,,,,,,,,,,,,,,,,,,,,,,,,,,,,,,,,,,,,,,,,,,,,,0,2,2,0,1,,,,,,,,,,,,,,,,,,,,,,,,,,,,,,,,,,,,,,,,,
417839,001,2022-11-20_23h52.59.358,Info_measure_main_exp,2022.2.2,Win32,143.7607821,,,,,,,,,,,,,,,,,,masks/mask_004.jpg,,,,,,,,,,,,,,,,,,,,,,,,,,,,,,,,,,,,,,,,,,,,,,,0,3,3,3,1,,,,,,,,,,,,,,,,,,,,,,,,,,,,,,,,,,,,,,,,,
417839,001,2022-11-20_23h52.59.358,Info_measure_main_exp,2022.2.2,Win32,143.7607821,,,,,,,,,,,,,,,,,,masks/mask_002.jpg,,,,,,,,,,,,,,,,,,,,,,,,,,,,,,,,,,,,,,,,,,,,,,,0,4,4,1,1,,,,,,,,,,,,,,,,,,,,,,,,,,,,,,,,,,,,,,,,,
417839,001,2022-11-20_23h52.59.358,Info_measure_main_exp,2022.2.2,Win32,143.7607821,,,,,,,,,,,,,,,,,,,,,,,,,,,,,,7,1.9999,1,,,,,,,,,,,,0,131,5,5,2178,2238,absent_patch/patch0002178.jpg,absent_patch/patch0002238.jpg,,,,,,,,,,,,,,,,,,,0.106481481,0.174074074,1,0,0,response1disk,25,-0.001851852,0,1,0,0,center_square,0,24,24,57,1,,,,,,,,,,,,,,,,,,,,,,,
417839,001,2022-11-20_23h52.59.358,Info_measure_main_exp,2022.2.2,Win32,143.7607821,,,,,,,,,,,,,,,,,,masks/mask_003.jpg,,,,,,,,,,,,,,,,,,,,,,,,,,,,,,,,,,,,,,,,,,0,0,0,2,1,,,,,,,,,,,,,,,,,,,,,,,,,,,,,,,,,,,,,,,,,,,,,,
417839,001,2022-11-20_23h52.59.358,Info_measure_main_exp,2022.2.2,Win32,143.7607821,,,,,,,,,,,,,,,,,,masks/mask_001.jpg,,,,,,,,,,,,,,,,,,,,,,,,,,,,,,,,,,,,,,,,,,0,1,1,0,1,,,,,,,,,,,,,,,,,,,,,,,,,,,,,,,,,,,,,,,,,,,,,,
417839,001,2022-11-20_23h52.59.358,Info_measure_main_exp,2022.2.2,Win32,143.7607821,,,,,,,,,,,,,,,,,,masks/mask_005.jpg,,,,,,,,,,,,,,,,,,,,,,,,,,,,,,,,,,,,,,,,,,0,2,2,4,1,,,,,,,,,,,,,,,,,,,,,,,,,,,,,,,,,,,,,,,,,,,,,,
417839,001,2022-11-20_23h52.59.358,Info_measure_main_exp,2022.2.2,Win32,143.7607821,,,,,,,,,,,,,,,,,,masks/mask_002.jpg,,,,,,,,,,,,,,,,,,,,,,,,,,,,,,,,,,,,,,,,,,0,3,3,1,1,,,,,,,,,,,,,,,,,,,,,,,,,,,,,,,,,,,,,,,,,,,,,,
417839,001,2022-11-20_23h52.59.358,Info_measure_main_exp,2022.2.2,Win32,143.7607821,,,,,,,,,,,,,,,,,,masks/mask_004.jpg,,,,,,,,,,,,,,,,,,,,,,,,,,,,,,,,,,,,,,,,,,0,4,4,3,1,,,,,,,,,,,,,,,,,,,,,,,,,,,,,,,,,,,,,,,,,,,,,,
417839,001,2022-11-20_23h52.59.358,Info_measure_main_exp,2022.2.2,Win32,143.7607821,,,,,,,,,,,,,,,,,,masks/mask_005.jpg,,,,,,,,,,,,,,,,,,,,,,,,,,,,,,,,,,,,,,,,,,,,,,,0,0,0,4,1,,,,,,,,,,,,,,,,,,,,,,,,,,,,,,,,,,,,,,,,,
417839,001,2022-11-20_23h52.59.358,Info_measure_main_exp,2022.2.2,Win32,143.7607821,,,,,,,,,,,,,,,,,,masks/mask_002.jpg,,,,,,,,,,,,,,,,,,,,,,,,,,,,,,,,,,,,,,,,,,,,,,,0,1,1,1,1,,,,,,,,,,,,,,,,,,,,,,,,,,,,,,,,,,,,,,,,,
417839,001,2022-11-20_23h52.59.358,Info_measure_main_exp,2022.2.2,Win32,143.7607821,,,,,,,,,,,,,,,,,,masks/mask_001.jpg,,,,,,,,,,,,,,,,,,,,,,,,,,,,,,,,,,,,,,,,,,,,,,,0,2,2,0,1,,,,,,,,,,,,,,,,,,,,,,,,,,,,,,,,,,,,,,,,,
417839,001,2022-11-20_23h52.59.358,Info_measure_main_exp,2022.2.2,Win32,143.7607821,,,,,,,,,,,,,,,,,,masks/mask_003.jpg,,,,,,,,,,,,,,,,,,,,,,,,,,,,,,,,,,,,,,,,,,,,,,,0,3,3,2,1,,,,,,,,,,,,,,,,,,,,,,,,,,,,,,,,,,,,,,,,,
417839,001,2022-11-20_23h52.59.358,Info_measure_main_exp,2022.2.2,Win32,143.7607821,,,,,,,,,,,,,,,,,,masks/mask_004.jpg,,,,,,,,,,,,,,,,,,,,,,,,,,,,,,,,,,,,,,,,,,,,,,,0,4,4,3,1,,,,,,,,,,,,,,,,,,,,,,,,,,,,,,,,,,,,,,,,,
417839,001,2022-11-20_23h52.59.358,Info_measure_main_exp,2022.2.2,Win32,143.7607821,,,,,,,,,,,,,,,,,,,,,,,,,,,,,,0,0.5966,1,,,,,,,,,,,,0,131,5,5,1986,1986,absent_patch/patch0001986.jpg,absent_patch/patch0001986.jpg,,,,,,,,,,,,,,,,,,,-0.053703704,0.123148148,1,0,0,response7disk,26,0.012962963,0.007407407,1,0,0,center_square,0,25,25,19,1,,,,,,,,,,,,,,,,,,,,,,,
417839,001,2022-11-20_23h52.59.358,Info_measure_main_exp,2022.2.2,Win32,143.7607821,,,,,,,,,,,,,,,,,,masks/mask_001.jpg,,,,,,,,,,,,,,,,,,,,,,,,,,,,,,,,,,,,,,,,,,0,0,0,0,1,,,,,,,,,,,,,,,,,,,,,,,,,,,,,,,,,,,,,,,,,,,,,,
417839,001,2022-11-20_23h52.59.358,Info_measure_main_exp,2022.2.2,Win32,143.7607821,,,,,,,,,,,,,,,,,,masks/mask_004.jpg,,,,,,,,,,,,,,,,,,,,,,,,,,,,,,,,,,,,,,,,,,0,1,1,3,1,,,,,,,,,,,,,,,,,,,,,,,,,,,,,,,,,,,,,,,,,,,,,,
417839,001,2022-11-20_23h52.59.358,Info_measure_main_exp,2022.2.2,Win32,143.7607821,,,,,,,,,,,,,,,,,,masks/mask_003.jpg,,,,,,,,,,,,,,,,,,,,,,,,,,,,,,,,,,,,,,,,,,0,2,2,2,1,,,,,,,,,,,,,,,,,,,,,,,,,,,,,,,,,,,,,,,,,,,,,,
417839,001,2022-11-20_23h52.59.358,Info_measure_main_exp,2022.2.2,Win32,143.7607821,,,,,,,,,,,,,,,,,,masks/mask_002.jpg,,,,,,,,,,,,,,,,,,,,,,,,,,,,,,,,,,,,,,,,,,0,3,3,1,1,,,,,,,,,,,,,,,,,,,,,,,,,,,,,,,,,,,,,,,,,,,,,,
417839,001,2022-11-20_23h52.59.358,Info_measure_main_exp,2022.2.2,Win32,143.7607821,,,,,,,,,,,,,,,,,,masks/mask_005.jpg,,,,,,,,,,,,,,,,,,,,,,,,,,,,,,,,,,,,,,,,,,0,4,4,4,1,,,,,,,,,,,,,,,,,,,,,,,,,,,,,,,,,,,,,,,,,,,,,,
417839,001,2022-11-20_23h52.59.358,Info_measure_main_exp,2022.2.2,Win32,143.7607821,,,,,,,,,,,,,,,,,,masks/mask_005.jpg,,,,,,,,,,,,,,,,,,,,,,,,,,,,,,,,,,,,,,,,,,,,,,,0,0,0,4,1,,,,,,,,,,,,,,,,,,,,,,,,,,,,,,,,,,,,,,,,,
417839,001,2022-11-20_23h52.59.358,Info_measure_main_exp,2022.2.2,Win32,143.7607821,,,,,,,,,,,,,,,,,,masks/mask_004.jpg,,,,,,,,,,,,,,,,,,,,,,,,,,,,,,,,,,,,,,,,,,,,,,,0,1,1,3,1,,,,,,,,,,,,,,,,,,,,,,,,,,,,,,,,,,,,,,,,,
417839,001,2022-11-20_23h52.59.358,Info_measure_main_exp,2022.2.2,Win32,143.7607821,,,,,,,,,,,,,,,,,,masks/mask_001.jpg,,,,,,,,,,,,,,,,,,,,,,,,,,,,,,,,,,,,,,,,,,,,,,,0,2,2,0,1,,,,,,,,,,,,,,,,,,,,,,,,,,,,,,,,,,,,,,,,,
417839,001,2022-11-20_23h52.59.358,Info_measure_main_exp,2022.2.2,Win32,143.7607821,,,,,,,,,,,,,,,,,,masks/mask_003.jpg,,,,,,,,,,,,,,,,,,,,,,,,,,,,,,,,,,,,,,,,,,,,,,,0,3,3,2,1,,,,,,,,,,,,,,,,,,,,,,,,,,,,,,,,,,,,,,,,,
417839,001,2022-11-20_23h52.59.358,Info_measure_main_exp,2022.2.2,Win32,143.7607821,,,,,,,,,,,,,,,,,,masks/mask_002.jpg,,,,,,,,,,,,,,,,,,,,,,,,,,,,,,,,,,,,,,,,,,,,,,,0,4,4,1,1,,,,,,,,,,,,,,,,,,,,,,,,,,,,,,,,,,,,,,,,,
417839,001,2022-11-20_23h52.59.358,Info_measure_main_exp,2022.2.2,Win32,143.7607821,,,,,,,,,,,,,,,,,,,,,,,,,,,,,,3,1.3466,1,,,,,,,,,,,,0,131,5,5,1974,2238,absent_patch/patch0001974.jpg,absent_patch/patch0002238.jpg,,,,,,,,,,,,,,,,,,,-0.024074074,-0.100925926,1,0,0,response5disk,27,-0.002777778,0.005555556,1,0,0,center_square,0,26,26,95,1,,,,,,,,,,,,,,,,,,,,,,,
417839,001,2022-11-20_23h52.59.358,Info_measure_main_exp,2022.2.2,Win32,143.7607821,,,,,,,,,,,,,,,,,,masks/mask_005.jpg,,,,,,,,,,,,,,,,,,,,,,,,,,,,,,,,,,,,,,,,,,0,0,0,4,1,,,,,,,,,,,,,,,,,,,,,,,,,,,,,,,,,,,,,,,,,,,,,,
417839,001,2022-11-20_23h52.59.358,Info_measure_main_exp,2022.2.2,Win32,143.7607821,,,,,,,,,,,,,,,,,,masks/mask_003.jpg,,,,,,,,,,,,,,,,,,,,,,,,,,,,,,,,,,,,,,,,,,0,1,1,2,1,,,,,,,,,,,,,,,,,,,,,,,,,,,,,,,,,,,,,,,,,,,,,,
417839,001,2022-11-20_23h52.59.358,Info_measure_main_exp,2022.2.2,Win32,143.7607821,,,,,,,,,,,,,,,,,,masks/mask_002.jpg,,,,,,,,,,,,,,,,,,,,,,,,,,,,,,,,,,,,,,,,,,0,2,2,1,1,,,,,,,,,,,,,,,,,,,,,,,,,,,,,,,,,,,,,,,,,,,,,,
417839,001,2022-11-20_23h52.59.358,Info_measure_main_exp,2022.2.2,Win32,143.7607821,,,,,,,,,,,,,,,,,,masks/mask_001.jpg,,,,,,,,,,,,,,,,,,,,,,,,,,,,,,,,,,,,,,,,,,0,3,3,0,1,,,,,,,,,,,,,,,,,,,,,,,,,,,,,,,,,,,,,,,,,,,,,,
417839,001,2022-11-20_23h52.59.358,Info_measure_main_exp,2022.2.2,Win32,143.7607821,,,,,,,,,,,,,,,,,,masks/mask_004.jpg,,,,,,,,,,,,,,,,,,,,,,,,,,,,,,,,,,,,,,,,,,0,4,4,3,1,,,,,,,,,,,,,,,,,,,,,,,,,,,,,,,,,,,,,,,,,,,,,,
417839,001,2022-11-20_23h52.59.358,Info_measure_main_exp,2022.2.2,Win32,143.7607821,,,,,,,,,,,,,,,,,,masks/mask_005.jpg,,,,,,,,,,,,,,,,,,,,,,,,,,,,,,,,,,,,,,,,,,,,,,,0,0,0,4,1,,,,,,,,,,,,,,,,,,,,,,,,,,,,,,,,,,,,,,,,,
417839,001,2022-11-20_23h52.59.358,Info_measure_main_exp,2022.2.2,Win32,143.7607821,,,,,,,,,,,,,,,,,,masks/mask_001.jpg,,,,,,,,,,,,,,,,,,,,,,,,,,,,,,,,,,,,,,,,,,,,,,,0,1,1,0,1,,,,,,,,,,,,,,,,,,,,,,,,,,,,,,,,,,,,,,,,,
417839,001,2022-11-20_23h52.59.358,Info_measure_main_exp,2022.2.2,Win32,143.7607821,,,,,,,,,,,,,,,,,,masks/mask_003.jpg,,,,,,,,,,,,,,,,,,,,,,,,,,,,,,,,,,,,,,,,,,,,,,,0,2,2,2,1,,,,,,,,,,,,,,,,,,,,,,,,,,,,,,,,,,,,,,,,,
417839,001,2022-11-20_23h52.59.358,Info_measure_main_exp,2022.2.2,Win32,143.7607821,,,,,,,,,,,,,,,,,,masks/mask_002.jpg,,,,,,,,,,,,,,,,,,,,,,,,,,,,,,,,,,,,,,,,,,,,,,,0,3,3,1,1,,,,,,,,,,,,,,,,,,,,,,,,,,,,,,,,,,,,,,,,,
417839,001,2022-11-20_23h52.59.358,Info_measure_main_exp,2022.2.2,Win32,143.7607821,,,,,,,,,,,,,,,,,,masks/mask_004.jpg,,,,,,,,,,,,,,,,,,,,,,,,,,,,,,,,,,,,,,,,,,,,,,,0,4,4,3,1,,,,,,,,,,,,,,,,,,,,,,,,,,,,,,,,,,,,,,,,,
417839,001,2022-11-20_23h52.59.358,Info_measure_main_exp,2022.2.2,Win32,143.7607821,,,,,,,,,,,,,,,,,,,,,,,,,,,,,,5,2.0972,1,,,,,,,,,,,,0,131,5,5,2142,2238,absent_patch/patch0002142.jpg,absent_patch/patch0002238.jpg,,,,,,,,,,,,,,,,,,,0.075925926,-0.072222222,1,0,0,response3disk,28,0.001851852,-0.005555556,1,0,0,center_square,0,27,27,101,1,,,,,,,,,,,,,,,,,,,,,,,
417839,001,2022-11-20_23h52.59.358,Info_measure_main_exp,2022.2.2,Win32,143.7607821,,,,,,,,,,,,,,,,,,masks/mask_001.jpg,,,,,,,,,,,,,,,,,,,,,,,,,,,,,,,,,,,,,,,,,,0,0,0,0,1,,,,,,,,,,,,,,,,,,,,,,,,,,,,,,,,,,,,,,,,,,,,,,
417839,001,2022-11-20_23h52.59.358,Info_measure_main_exp,2022.2.2,Win32,143.7607821,,,,,,,,,,,,,,,,,,masks/mask_005.jpg,,,,,,,,,,,,,,,,,,,,,,,,,,,,,,,,,,,,,,,,,,0,1,1,4,1,,,,,,,,,,,,,,,,,,,,,,,,,,,,,,,,,,,,,,,,,,,,,,
417839,001,2022-11-20_23h52.59.358,Info_measure_main_exp,2022.2.2,Win32,143.7607821,,,,,,,,,,,,,,,,,,masks/mask_003.jpg,,,,,,,,,,,,,,,,,,,,,,,,,,,,,,,,,,,,,,,,,,0,2,2,2,1,,,,,,,,,,,,,,,,,,,,,,,,,,,,,,,,,,,,,,,,,,,,,,
417839,001,2022-11-20_23h52.59.358,Info_measure_main_exp,2022.2.2,Win32,143.7607821,,,,,,,,,,,,,,,,,,masks/mask_004.jpg,,,,,,,,,,,,,,,,,,,,,,,,,,,,,,,,,,,,,,,,,,0,3,3,3,1,,,,,,,,,,,,,,,,,,,,,,,,,,,,,,,,,,,,,,,,,,,,,,
417839,001,2022-11-20_23h52.59.358,Info_measure_main_exp,2022.2.2,Win32,143.7607821,,,,,,,,,,,,,,,,,,masks/mask_002.jpg,,,,,,,,,,,,,,,,,,,,,,,,,,,,,,,,,,,,,,,,,,0,4,4,1,1,,,,,,,,,,,,,,,,,,,,,,,,,,,,,,,,,,,,,,,,,,,,,,
417839,001,2022-11-20_23h52.59.358,Info_measure_main_exp,2022.2.2,Win32,143.7607821,,,,,,,,,,,,,,,,,,masks/mask_003.jpg,,,,,,,,,,,,,,,,,,,,,,,,,,,,,,,,,,,,,,,,,,,,,,,0,0,0,2,1,,,,,,,,,,,,,,,,,,,,,,,,,,,,,,,,,,,,,,,,,
417839,001,2022-11-20_23h52.59.358,Info_measure_main_exp,2022.2.2,Win32,143.7607821,,,,,,,,,,,,,,,,,,masks/mask_001.jpg,,,,,,,,,,,,,,,,,,,,,,,,,,,,,,,,,,,,,,,,,,,,,,,0,1,1,0,1,,,,,,,,,,,,,,,,,,,,,,,,,,,,,,,,,,,,,,,,,
417839,001,2022-11-20_23h52.59.358,Info_measure_main_exp,2022.2.2,Win32,143.7607821,,,,,,,,,,,,,,,,,,masks/mask_002.jpg,,,,,,,,,,,,,,,,,,,,,,,,,,,,,,,,,,,,,,,,,,,,,,,0,2,2,1,1,,,,,,,,,,,,,,,,,,,,,,,,,,,,,,,,,,,,,,,,,
417839,001,2022-11-20_23h52.59.358,Info_measure_main_exp,2022.2.2,Win32,143.7607821,,,,,,,,,,,,,,,,,,masks/mask_004.jpg,,,,,,,,,,,,,,,,,,,,,,,,,,,,,,,,,,,,,,,,,,,,,,,0,3,3,3,1,,,,,,,,,,,,,,,,,,,,,,,,,,,,,,,,,,,,,,,,,
417839,001,2022-11-20_23h52.59.358,Info_measure_main_exp,2022.2.2,Win32,143.7607821,,,,,,,,,,,,,,,,,,masks/mask_005.jpg,,,,,,,,,,,,,,,,,,,,,,,,,,,,,,,,,,,,,,,,,,,,,,,0,4,4,4,1,,,,,,,,,,,,,,,,,,,,,,,,,,,,,,,,,,,,,,,,,
417839,001,2022-11-20_23h52.59.358,Info_measure_main_exp,2022.2.2,Win32,143.7607821,,,,,,,,,,,,,,,,,,,,,,,,,,,,,,4,0.8539,1,,,,,,,,,,,,0,131,5,5,2154,2298,absent_patch/patch0002154.jpg,absent_patch/patch0002298.jpg,,,,,,,,,,,,,,,,,,,0.05,-0.097222222,1,0,0,response3disk,29,0.011111111,0.013888889,1,0,0,center_square,0,28,28,27,1,,,,,,,,,,,,,,,,,,,,,,,
417839,001,2022-11-20_23h52.59.358,Info_measure_main_exp,2022.2.2,Win32,143.7607821,,,,,,,,,,,,,,,,,,masks/mask_005.jpg,,,,,,,,,,,,,,,,,,,,,,,,,,,,,,,,,,,,,,,,,,0,0,0,4,1,,,,,,,,,,,,,,,,,,,,,,,,,,,,,,,,,,,,,,,,,,,,,,
417839,001,2022-11-20_23h52.59.358,Info_measure_main_exp,2022.2.2,Win32,143.7607821,,,,,,,,,,,,,,,,,,masks/mask_004.jpg,,,,,,,,,,,,,,,,,,,,,,,,,,,,,,,,,,,,,,,,,,0,1,1,3,1,,,,,,,,,,,,,,,,,,,,,,,,,,,,,,,,,,,,,,,,,,,,,,
417839,001,2022-11-20_23h52.59.358,Info_measure_main_exp,2022.2.2,Win32,143.7607821,,,,,,,,,,,,,,,,,,masks/mask_001.jpg,,,,,,,,,,,,,,,,,,,,,,,,,,,,,,,,,,,,,,,,,,0,2,2,0,1,,,,,,,,,,,,,,,,,,,,,,,,,,,,,,,,,,,,,,,,,,,,,,
417839,001,2022-11-20_23h52.59.358,Info_measure_main_exp,2022.2.2,Win32,143.7607821,,,,,,,,,,,,,,,,,,masks/mask_003.jpg,,,,,,,,,,,,,,,,,,,,,,,,,,,,,,,,,,,,,,,,,,0,3,3,2,1,,,,,,,,,,,,,,,,,,,,,,,,,,,,,,,,,,,,,,,,,,,,,,
417839,001,2022-11-20_23h52.59.358,Info_measure_main_exp,2022.2.2,Win32,143.7607821,,,,,,,,,,,,,,,,,,masks/mask_002.jpg,,,,,,,,,,,,,,,,,,,,,,,,,,,,,,,,,,,,,,,,,,0,4,4,1,1,,,,,,,,,,,,,,,,,,,,,,,,,,,,,,,,,,,,,,,,,,,,,,
417839,001,2022-11-20_23h52.59.358,Info_measure_main_exp,2022.2.2,Win32,143.7607821,,,,,,,,,,,,,,,,,,masks/mask_004.jpg,,,,,,,,,,,,,,,,,,,,,,,,,,,,,,,,,,,,,,,,,,,,,,,0,0,0,3,1,,,,,,,,,,,,,,,,,,,,,,,,,,,,,,,,,,,,,,,,,
417839,001,2022-11-20_23h52.59.358,Info_measure_main_exp,2022.2.2,Win32,143.7607821,,,,,,,,,,,,,,,,,,masks/mask_003.jpg,,,,,,,,,,,,,,,,,,,,,,,,,,,,,,,,,,,,,,,,,,,,,,,0,1,1,2,1,,,,,,,,,,,,,,,,,,,,,,,,,,,,,,,,,,,,,,,,,
417839,001,2022-11-20_23h52.59.358,Info_measure_main_exp,2022.2.2,Win32,143.7607821,,,,,,,,,,,,,,,,,,masks/mask_002.jpg,,,,,,,,,,,,,,,,,,,,,,,,,,,,,,,,,,,,,,,,,,,,,,,0,2,2,1,1,,,,,,,,,,,,,,,,,,,,,,,,,,,,,,,,,,,,,,,,,
417839,001,2022-11-20_23h52.59.358,Info_measure_main_exp,2022.2.2,Win32,143.7607821,,,,,,,,,,,,,,,,,,masks/mask_005.jpg,,,,,,,,,,,,,,,,,,,,,,,,,,,,,,,,,,,,,,,,,,,,,,,0,3,3,4,1,,,,,,,,,,,,,,,,,,,,,,,,,,,,,,,,,,,,,,,,,
417839,001,2022-11-20_23h52.59.358,Info_measure_main_exp,2022.2.2,Win32,143.7607821,,,,,,,,,,,,,,,,,,masks/mask_001.jpg,,,,,,,,,,,,,,,,,,,,,,,,,,,,,,,,,,,,,,,,,,,,,,,0,4,4,0,1,,,,,,,,,,,,,,,,,,,,,,,,,,,,,,,,,,,,,,,,,
417839,001,2022-11-20_23h52.59.358,Info_measure_main_exp,2022.2.2,Win32,143.7607821,,,,,,,,,,,,,,,,,,,,,,,,,,,,,,5,0.8541,1,,,,,,,,,,,,0,131,5,5,2274,1974,absent_patch/patch0002274.jpg,absent_patch/patch0001974.jpg,,,,,,,,,,,,,,,,,,,0.087037037,-0.040740741,1,0,0,response3disk,30,-0.003703704,-0.000925926,1,0,0,center_square,0,29,29,90,1,,,,,,,,,,,,,,,,,,,,,,,
417839,001,2022-11-20_23h52.59.358,Info_measure_main_exp,2022.2.2,Win32,143.7607821,,,,,,,,,,,,,,,,,,masks/mask_001.jpg,,,,,,,,,,,,,,,,,,,,,,,,,,,,,,,,,,,,,,,,,,0,0,0,0,1,,,,,,,,,,,,,,,,,,,,,,,,,,,,,,,,,,,,,,,,,,,,,,
417839,001,2022-11-20_23h52.59.358,Info_measure_main_exp,2022.2.2,Win32,143.7607821,,,,,,,,,,,,,,,,,,masks/mask_003.jpg,,,,,,,,,,,,,,,,,,,,,,,,,,,,,,,,,,,,,,,,,,0,1,1,2,1,,,,,,,,,,,,,,,,,,,,,,,,,,,,,,,,,,,,,,,,,,,,,,
417839,001,2022-11-20_23h52.59.358,Info_measure_main_exp,2022.2.2,Win32,143.7607821,,,,,,,,,,,,,,,,,,masks/mask_005.jpg,,,,,,,,,,,,,,,,,,,,,,,,,,,,,,,,,,,,,,,,,,0,2,2,4,1,,,,,,,,,,,,,,,,,,,,,,,,,,,,,,,,,,,,,,,,,,,,,,
417839,001,2022-11-20_23h52.59.358,Info_measure_main_exp,2022.2.2,Win32,143.7607821,,,,,,,,,,,,,,,,,,masks/mask_004.jpg,,,,,,,,,,,,,,,,,,,,,,,,,,,,,,,,,,,,,,,,,,0,3,3,3,1,,,,,,,,,,,,,,,,,,,,,,,,,,,,,,,,,,,,,,,,,,,,,,
417839,001,2022-11-20_23h52.59.358,Info_measure_main_exp,2022.2.2,Win32,143.7607821,,,,,,,,,,,,,,,,,,masks/mask_002.jpg,,,,,,,,,,,,,,,,,,,,,,,,,,,,,,,,,,,,,,,,,,0,4,4,1,1,,,,,,,,,,,,,,,,,,,,,,,,,,,,,,,,,,,,,,,,,,,,,,
417839,001,2022-11-20_23h52.59.358,Info_measure_main_exp,2022.2.2,Win32,143.7607821,,,,,,,,,,,,,,,,,,masks/mask_003.jpg,,,,,,,,,,,,,,,,,,,,,,,,,,,,,,,,,,,,,,,,,,,,,,,0,0,0,2,1,,,,,,,,,,,,,,,,,,,,,,,,,,,,,,,,,,,,,,,,,
417839,001,2022-11-20_23h52.59.358,Info_measure_main_exp,2022.2.2,Win32,143.7607821,,,,,,,,,,,,,,,,,,masks/mask_005.jpg,,,,,,,,,,,,,,,,,,,,,,,,,,,,,,,,,,,,,,,,,,,,,,,0,1,1,4,1,,,,,,,,,,,,,,,,,,,,,,,,,,,,,,,,,,,,,,,,,
417839,001,2022-11-20_23h52.59.358,Info_measure_main_exp,2022.2.2,Win32,143.7607821,,,,,,,,,,,,,,,,,,masks/mask_004.jpg,,,,,,,,,,,,,,,,,,,,,,,,,,,,,,,,,,,,,,,,,,,,,,,0,2,2,3,1,,,,,,,,,,,,,,,,,,,,,,,,,,,,,,,,,,,,,,,,,
417839,001,2022-11-20_23h52.59.358,Info_measure_main_exp,2022.2.2,Win32,143.7607821,,,,,,,,,,,,,,,,,,masks/mask_001.jpg,,,,,,,,,,,,,,,,,,,,,,,,,,,,,,,,,,,,,,,,,,,,,,,0,3,3,0,1,,,,,,,,,,,,,,,,,,,,,,,,,,,,,,,,,,,,,,,,,
417839,001,2022-11-20_23h52.59.358,Info_measure_main_exp,2022.2.2,Win32,143.7607821,,,,,,,,,,,,,,,,,,masks/mask_002.jpg,,,,,,,,,,,,,,,,,,,,,,,,,,,,,,,,,,,,,,,,,,,,,,,0,4,4,1,1,,,,,,,,,,,,,,,,,,,,,,,,,,,,,,,,,,,,,,,,,
417839,001,2022-11-20_23h52.59.358,Info_measure_main_exp,2022.2.2,Win32,143.7607821,,,,,,,,,,,,,,,,,,,,,,,,,,,,,,0,0.5966,1,,,,,,,,,,,,0,131,5,5,2298,2298,absent_patch/patch0002298.jpg,absent_patch/patch0002298.jpg,,,,,,,,,,,,,,,,,,,-0.053703704,0.10462963,1,0,0,response7disk,31,0.003703704,-0.001851852,1,0,0,center_square,0,30,30,37,1,,,,,,,,,,,,,,,,,,,,,,,
417839,001,2022-11-20_23h52.59.358,Info_measure_main_exp,2022.2.2,Win32,143.7607821,,,,,,,,,,,,,,,,,,masks/mask_004.jpg,,,,,,,,,,,,,,,,,,,,,,,,,,,,,,,,,,,,,,,,,,0,0,0,3,1,,,,,,,,,,,,,,,,,,,,,,,,,,,,,,,,,,,,,,,,,,,,,,
417839,001,2022-11-20_23h52.59.358,Info_measure_main_exp,2022.2.2,Win32,143.7607821,,,,,,,,,,,,,,,,,,masks/mask_002.jpg,,,,,,,,,,,,,,,,,,,,,,,,,,,,,,,,,,,,,,,,,,0,1,1,1,1,,,,,,,,,,,,,,,,,,,,,,,,,,,,,,,,,,,,,,,,,,,,,,
417839,001,2022-11-20_23h52.59.358,Info_measure_main_exp,2022.2.2,Win32,143.7607821,,,,,,,,,,,,,,,,,,masks/mask_005.jpg,,,,,,,,,,,,,,,,,,,,,,,,,,,,,,,,,,,,,,,,,,0,2,2,4,1,,,,,,,,,,,,,,,,,,,,,,,,,,,,,,,,,,,,,,,,,,,,,,
417839,001,2022-11-20_23h52.59.358,Info_measure_main_exp,2022.2.2,Win32,143.7607821,,,,,,,,,,,,,,,,,,masks/mask_001.jpg,,,,,,,,,,,,,,,,,,,,,,,,,,,,,,,,,,,,,,,,,,0,3,3,0,1,,,,,,,,,,,,,,,,,,,,,,,,,,,,,,,,,,,,,,,,,,,,,,
417839,001,2022-11-20_23h52.59.358,Info_measure_main_exp,2022.2.2,Win32,143.7607821,,,,,,,,,,,,,,,,,,masks/mask_003.jpg,,,,,,,,,,,,,,,,,,,,,,,,,,,,,,,,,,,,,,,,,,0,4,4,2,1,,,,,,,,,,,,,,,,,,,,,,,,,,,,,,,,,,,,,,,,,,,,,,
417839,001,2022-11-20_23h52.59.358,Info_measure_main_exp,2022.2.2,Win32,143.7607821,,,,,,,,,,,,,,,,,,masks/mask_002.jpg,,,,,,,,,,,,,,,,,,,,,,,,,,,,,,,,,,,,,,,,,,,,,,,0,0,0,1,1,,,,,,,,,,,,,,,,,,,,,,,,,,,,,,,,,,,,,,,,,
417839,001,2022-11-20_23h52.59.358,Info_measure_main_exp,2022.2.2,Win32,143.7607821,,,,,,,,,,,,,,,,,,masks/mask_003.jpg,,,,,,,,,,,,,,,,,,,,,,,,,,,,,,,,,,,,,,,,,,,,,,,0,1,1,2,1,,,,,,,,,,,,,,,,,,,,,,,,,,,,,,,,,,,,,,,,,
417839,001,2022-11-20_23h52.59.358,Info_measure_main_exp,2022.2.2,Win32,143.7607821,,,,,,,,,,,,,,,,,,masks/mask_005.jpg,,,,,,,,,,,,,,,,,,,,,,,,,,,,,,,,,,,,,,,,,,,,,,,0,2,2,4,1,,,,,,,,,,,,,,,,,,,,,,,,,,,,,,,,,,,,,,,,,
417839,001,2022-11-20_23h52.59.358,Info_measure_main_exp,2022.2.2,Win32,143.7607821,,,,,,,,,,,,,,,,,,masks/mask_004.jpg,,,,,,,,,,,,,,,,,,,,,,,,,,,,,,,,,,,,,,,,,,,,,,,0,3,3,3,1,,,,,,,,,,,,,,,,,,,,,,,,,,,,,,,,,,,,,,,,,
417839,001,2022-11-20_23h52.59.358,Info_measure_main_exp,2022.2.2,Win32,143.7607821,,,,,,,,,,,,,,,,,,masks/mask_001.jpg,,,,,,,,,,,,,,,,,,,,,,,,,,,,,,,,,,,,,,,,,,,,,,,0,4,4,0,1,,,,,,,,,,,,,,,,,,,,,,,,,,,,,,,,,,,,,,,,,
417839,001,2022-11-20_23h52.59.358,Info_measure_main_exp,2022.2.2,Win32,143.7607821,,,,,,,,,,,,,,,,,,,,,,,,,,,,,,7,2.9625,1,,,,,,,,,,,,0,131,5,5,2238,2166,absent_patch/patch0002238.jpg,absent_patch/patch0002166.jpg,,,,,,,,,,,,,,,,,,,0.092592593,0.126851852,1,0,0,response1disk,32,0.000925926,0.012962963,1,0,0,center_square,0,31,31,118,1,,,,,,,,,,,,,,,,,,,,,,,
417839,001,2022-11-20_23h52.59.358,Info_measure_main_exp,2022.2.2,Win32,143.7607821,,,,,,,,,,,,,,,,,,masks/mask_005.jpg,,,,,,,,,,,,,,,,,,,,,,,,,,,,,,,,,,,,,,,,,,0,0,0,4,1,,,,,,,,,,,,,,,,,,,,,,,,,,,,,,,,,,,,,,,,,,,,,,
417839,001,2022-11-20_23h52.59.358,Info_measure_main_exp,2022.2.2,Win32,143.7607821,,,,,,,,,,,,,,,,,,masks/mask_004.jpg,,,,,,,,,,,,,,,,,,,,,,,,,,,,,,,,,,,,,,,,,,0,1,1,3,1,,,,,,,,,,,,,,,,,,,,,,,,,,,,,,,,,,,,,,,,,,,,,,
417839,001,2022-11-20_23h52.59.358,Info_measure_main_exp,2022.2.2,Win32,143.7607821,,,,,,,,,,,,,,,,,,masks/mask_003.jpg,,,,,,,,,,,,,,,,,,,,,,,,,,,,,,,,,,,,,,,,,,0,2,2,2,1,,,,,,,,,,,,,,,,,,,,,,,,,,,,,,,,,,,,,,,,,,,,,,
417839,001,2022-11-20_23h52.59.358,Info_measure_main_exp,2022.2.2,Win32,143.7607821,,,,,,,,,,,,,,,,,,masks/mask_002.jpg,,,,,,,,,,,,,,,,,,,,,,,,,,,,,,,,,,,,,,,,,,0,3,3,1,1,,,,,,,,,,,,,,,,,,,,,,,,,,,,,,,,,,,,,,,,,,,,,,
417839,001,2022-11-20_23h52.59.358,Info_measure_main_exp,2022.2.2,Win32,143.7607821,,,,,,,,,,,,,,,,,,masks/mask_001.jpg,,,,,,,,,,,,,,,,,,,,,,,,,,,,,,,,,,,,,,,,,,0,4,4,0,1,,,,,,,,,,,,,,,,,,,,,,,,,,,,,,,,,,,,,,,,,,,,,,
417839,001,2022-11-20_23h52.59.358,Info_measure_main_exp,2022.2.2,Win32,143.7607821,,,,,,,,,,,,,,,,,,masks/mask_003.jpg,,,,,,,,,,,,,,,,,,,,,,,,,,,,,,,,,,,,,,,,,,,,,,,0,0,0,2,1,,,,,,,,,,,,,,,,,,,,,,,,,,,,,,,,,,,,,,,,,
417839,001,2022-11-20_23h52.59.358,Info_measure_main_exp,2022.2.2,Win32,143.7607821,,,,,,,,,,,,,,,,,,masks/mask_002.jpg,,,,,,,,,,,,,,,,,,,,,,,,,,,,,,,,,,,,,,,,,,,,,,,0,1,1,1,1,,,,,,,,,,,,,,,,,,,,,,,,,,,,,,,,,,,,,,,,,
417839,001,2022-11-20_23h52.59.358,Info_measure_main_exp,2022.2.2,Win32,143.7607821,,,,,,,,,,,,,,,,,,masks/mask_004.jpg,,,,,,,,,,,,,,,,,,,,,,,,,,,,,,,,,,,,,,,,,,,,,,,0,2,2,3,1,,,,,,,,,,,,,,,,,,,,,,,,,,,,,,,,,,,,,,,,,
417839,001,2022-11-20_23h52.59.358,Info_measure_main_exp,2022.2.2,Win32,143.7607821,,,,,,,,,,,,,,,,,,masks/mask_001.jpg,,,,,,,,,,,,,,,,,,,,,,,,,,,,,,,,,,,,,,,,,,,,,,,0,3,3,0,1,,,,,,,,,,,,,,,,,,,,,,,,,,,,,,,,,,,,,,,,,
417839,001,2022-11-20_23h52.59.358,Info_measure_main_exp,2022.2.2,Win32,143.7607821,,,,,,,,,,,,,,,,,,masks/mask_005.jpg,,,,,,,,,,,,,,,,,,,,,,,,,,,,,,,,,,,,,,,,,,,,,,,0,4,4,4,1,,,,,,,,,,,,,,,,,,,,,,,,,,,,,,,,,,,,,,,,,
417839,001,2022-11-20_23h52.59.358,Info_measure_main_exp,2022.2.2,Win32,143.7607821,,,,,,,,,,,,,,,,,,,,,,,,,,,,,,4,2.4303,1,,,,,,,,,,,,0,131,5,5,2274,1950,absent_patch/patch0002274.jpg,absent_patch/patch0001950.jpg,,,,,,,,,,,,,,,,,,,0.058333333,-0.094444444,1,0,0,response3disk,33,0.008333333,-0.002777778,1,0,0,center_square,0,32,32,10,1,,,,,,,,,,,,,,,,,,,,,,,
417839,001,2022-11-20_23h52.59.358,Info_measure_main_exp,2022.2.2,Win32,143.7607821,,,,,,,,,,,,,,,,,,masks/mask_003.jpg,,,,,,,,,,,,,,,,,,,,,,,,,,,,,,,,,,,,,,,,,,0,0,0,2,1,,,,,,,,,,,,,,,,,,,,,,,,,,,,,,,,,,,,,,,,,,,,,,
417839,001,2022-11-20_23h52.59.358,Info_measure_main_exp,2022.2.2,Win32,143.7607821,,,,,,,,,,,,,,,,,,masks/mask_002.jpg,,,,,,,,,,,,,,,,,,,,,,,,,,,,,,,,,,,,,,,,,,0,1,1,1,1,,,,,,,,,,,,,,,,,,,,,,,,,,,,,,,,,,,,,,,,,,,,,,
417839,001,2022-11-20_23h52.59.358,Info_measure_main_exp,2022.2.2,Win32,143.7607821,,,,,,,,,,,,,,,,,,masks/mask_005.jpg,,,,,,,,,,,,,,,,,,,,,,,,,,,,,,,,,,,,,,,,,,0,2,2,4,1,,,,,,,,,,,,,,,,,,,,,,,,,,,,,,,,,,,,,,,,,,,,,,
417839,001,2022-11-20_23h52.59.358,Info_measure_main_exp,2022.2.2,Win32,143.7607821,,,,,,,,,,,,,,,,,,masks/mask_004.jpg,,,,,,,,,,,,,,,,,,,,,,,,,,,,,,,,,,,,,,,,,,0,3,3,3,1,,,,,,,,,,,,,,,,,,,,,,,,,,,,,,,,,,,,,,,,,,,,,,
417839,001,2022-11-20_23h52.59.358,Info_measure_main_exp,2022.2.2,Win32,143.7607821,,,,,,,,,,,,,,,,,,masks/mask_001.jpg,,,,,,,,,,,,,,,,,,,,,,,,,,,,,,,,,,,,,,,,,,0,4,4,0,1,,,,,,,,,,,,,,,,,,,,,,,,,,,,,,,,,,,,,,,,,,,,,,
417839,001,2022-11-20_23h52.59.358,Info_measure_main_exp,2022.2.2,Win32,143.7607821,,,,,,,,,,,,,,,,,,masks/mask_005.jpg,,,,,,,,,,,,,,,,,,,,,,,,,,,,,,,,,,,,,,,,,,,,,,,0,0,0,4,1,,,,,,,,,,,,,,,,,,,,,,,,,,,,,,,,,,,,,,,,,
417839,001,2022-11-20_23h52.59.358,Info_measure_main_exp,2022.2.2,Win32,143.7607821,,,,,,,,,,,,,,,,,,masks/mask_004.jpg,,,,,,,,,,,,,,,,,,,,,,,,,,,,,,,,,,,,,,,,,,,,,,,0,1,1,3,1,,,,,,,,,,,,,,,,,,,,,,,,,,,,,,,,,,,,,,,,,
417839,001,2022-11-20_23h52.59.358,Info_measure_main_exp,2022.2.2,Win32,143.7607821,,,,,,,,,,,,,,,,,,masks/mask_001.jpg,,,,,,,,,,,,,,,,,,,,,,,,,,,,,,,,,,,,,,,,,,,,,,,0,2,2,0,1,,,,,,,,,,,,,,,,,,,,,,,,,,,,,,,,,,,,,,,,,
417839,001,2022-11-20_23h52.59.358,Info_measure_main_exp,2022.2.2,Win32,143.7607821,,,,,,,,,,,,,,,,,,masks/mask_003.jpg,,,,,,,,,,,,,,,,,,,,,,,,,,,,,,,,,,,,,,,,,,,,,,,0,3,3,2,1,,,,,,,,,,,,,,,,,,,,,,,,,,,,,,,,,,,,,,,,,
417839,001,2022-11-20_23h52.59.358,Info_measure_main_exp,2022.2.2,Win32,143.7607821,,,,,,,,,,,,,,,,,,masks/mask_002.jpg,,,,,,,,,,,,,,,,,,,,,,,,,,,,,,,,,,,,,,,,,,,,,,,0,4,4,1,1,,,,,,,,,,,,,,,,,,,,,,,,,,,,,,,,,,,,,,,,,
417839,001,2022-11-20_23h52.59.358,Info_measure_main_exp,2022.2.2,Win32,143.7607821,,,,,,,,,,,,,,,,,,,,,,,,,,,,,,5,1.2605,1,,,,,,,,,,,,0,131,5,5,2274,2142,absent_patch/patch0002274.jpg,absent_patch/patch0002142.jpg,,,,,,,,,,,,,,,,,,,0.069444444,-0.039814815,1,0,0,response3disk,34,0,0.006481481,1,0,0,center_square,0,33,33,75,1,,,,,,,,,,,,,,,,,,,,,,,
417839,001,2022-11-20_23h52.59.358,Info_measure_main_exp,2022.2.2,Win32,143.7607821,,,,,,,,,,,,,,,,,,masks/mask_003.jpg,,,,,,,,,,,,,,,,,,,,,,,,,,,,,,,,,,,,,,,,,,0,0,0,2,1,,,,,,,,,,,,,,,,,,,,,,,,,,,,,,,,,,,,,,,,,,,,,,
417839,001,2022-11-20_23h52.59.358,Info_measure_main_exp,2022.2.2,Win32,143.7607821,,,,,,,,,,,,,,,,,,masks/mask_004.jpg,,,,,,,,,,,,,,,,,,,,,,,,,,,,,,,,,,,,,,,,,,0,1,1,3,1,,,,,,,,,,,,,,,,,,,,,,,,,,,,,,,,,,,,,,,,,,,,,,
417839,001,2022-11-20_23h52.59.358,Info_measure_main_exp,2022.2.2,Win32,143.7607821,,,,,,,,,,,,,,,,,,masks/mask_002.jpg,,,,,,,,,,,,,,,,,,,,,,,,,,,,,,,,,,,,,,,,,,0,2,2,1,1,,,,,,,,,,,,,,,,,,,,,,,,,,,,,,,,,,,,,,,,,,,,,,
417839,001,2022-11-20_23h52.59.358,Info_measure_main_exp,2022.2.2,Win32,143.7607821,,,,,,,,,,,,,,,,,,masks/mask_001.jpg,,,,,,,,,,,,,,,,,,,,,,,,,,,,,,,,,,,,,,,,,,0,3,3,0,1,,,,,,,,,,,,,,,,,,,,,,,,,,,,,,,,,,,,,,,,,,,,,,
417839,001,2022-11-20_23h52.59.358,Info_measure_main_exp,2022.2.2,Win32,143.7607821,,,,,,,,,,,,,,,,,,masks/mask_005.jpg,,,,,,,,,,,,,,,,,,,,,,,,,,,,,,,,,,,,,,,,,,0,4,4,4,1,,,,,,,,,,,,,,,,,,,,,,,,,,,,,,,,,,,,,,,,,,,,,,
417839,001,2022-11-20_23h52.59.358,Info_measure_main_exp,2022.2.2,Win32,143.7607821,,,,,,,,,,,,,,,,,,masks/mask_001.jpg,,,,,,,,,,,,,,,,,,,,,,,,,,,,,,,,,,,,,,,,,,,,,,,0,0,0,0,1,,,,,,,,,,,,,,,,,,,,,,,,,,,,,,,,,,,,,,,,,
417839,001,2022-11-20_23h52.59.358,Info_measure_main_exp,2022.2.2,Win32,143.7607821,,,,,,,,,,,,,,,,,,masks/mask_005.jpg,,,,,,,,,,,,,,,,,,,,,,,,,,,,,,,,,,,,,,,,,,,,,,,0,1,1,4,1,,,,,,,,,,,,,,,,,,,,,,,,,,,,,,,,,,,,,,,,,
417839,001,2022-11-20_23h52.59.358,Info_measure_main_exp,2022.2.2,Win32,143.7607821,,,,,,,,,,,,,,,,,,masks/mask_003.jpg,,,,,,,,,,,,,,,,,,,,,,,,,,,,,,,,,,,,,,,,,,,,,,,0,2,2,2,1,,,,,,,,,,,,,,,,,,,,,,,,,,,,,,,,,,,,,,,,,
417839,001,2022-11-20_23h52.59.358,Info_measure_main_exp,2022.2.2,Win32,143.7607821,,,,,,,,,,,,,,,,,,masks/mask_002.jpg,,,,,,,,,,,,,,,,,,,,,,,,,,,,,,,,,,,,,,,,,,,,,,,0,3,3,1,1,,,,,,,,,,,,,,,,,,,,,,,,,,,,,,,,,,,,,,,,,
417839,001,2022-11-20_23h52.59.358,Info_measure_main_exp,2022.2.2,Win32,143.7607821,,,,,,,,,,,,,,,,,,masks/mask_004.jpg,,,,,,,,,,,,,,,,,,,,,,,,,,,,,,,,,,,,,,,,,,,,,,,0,4,4,3,1,,,,,,,,,,,,,,,,,,,,,,,,,,,,,,,,,,,,,,,,,
