participant,session,date,expName,psychopyVersion,OS,frameRate,space_press_continue.keys,space_press_continue.rt,space_press_continue_2.keys,space_press_continue_2.rt,space_press_continue_3.keys,space_press_continue_3.rt,space_press_continue_4.keys,space_press_continue_4.rt,space_press_continue_5.keys,space_press_continue_5.rt,space_press_continue_6.keys,space_press_continue_6.rt,prac_mask_loop_1.thisRepN,prac_mask_loop_1.thisTrialN,prac_mask_loop_1.thisN,prac_mask_loop_1.thisIndex,prac_mask_loop_1.ran,mask_name,prac_mask_loop_2.thisRepN,prac_mask_loop_2.thisTrialN,prac_mask_loop_2.thisN,prac_mask_loop_2.thisIndex,prac_mask_loop_2.ran,mouse_2.x,mouse_2.y,mouse_2.leftButton,mouse_2.midButton,mouse_2.rightButton,mouse_2.clicked_name,similarity,response_time,Pass,mouse_12.x,mouse_12.y,mouse_12.leftButton,mouse_12.midButton,mouse_12.rightButton,mouse_12.clicked_name,prac_loop.thisRepN,prac_loop.thisTrialN,prac_loop.thisN,prac_loop.thisIndex,prac_loop.ran,Pair_type,Image_num,Patch_1_loc,Patch_2_loc,Patch_1_info,Patch_2_info,Patch_1_name,Patch_2_name,mouse_1.x,mouse_1.y,mouse_1.leftButton,mouse_1.midButton,mouse_1.rightButton,mouse_1.time,mouse_1.clicked_name,space_press_continue_7.keys,space_press_continue_7.rt,mask_loop.thisRepN,mask_loop.thisTrialN,mask_loop.thisN,mask_loop.thisIndex,mask_loop.ran,mask_loop_2.thisRepN,mask_loop_2.thisTrialN,mask_loop_2.thisN,mask_loop_2.thisIndex,mask_loop_2.ran,mouse.x,mouse.y,mouse.leftButton,mouse.midButton,mouse.rightButton,mouse.clicked_name,trialNumber,mouse_11.x,mouse_11.y,mouse_11.leftButton,mouse_11.midButton,mouse_11.rightButton,mouse_11.clicked_name,first_pass_loop.thisRepN,first_pass_loop.thisTrialN,first_pass_loop.thisN,first_pass_loop.thisIndex,first_pass_loop.ran,mask_loop_3.thisRepN,mask_loop_3.thisTrialN,mask_loop_3.thisN,mask_loop_3.thisIndex,mask_loop_3.ran,mask_loop_4.thisRepN,mask_loop_4.thisTrialN,mask_loop_4.thisN,mask_loop_4.thisIndex,mask_loop_4.ran,mouse_3.x,mouse_3.y,mouse_3.leftButton,mouse_3.midButton,mouse_3.rightButton,mouse_3.clicked_name,double_pass_loop.thisRepN,double_pass_loop.thisTrialN,double_pass_loop.thisN,double_pass_loop.thisIndex,double_pass_loop.ran,space_exit.keys,space_exit.rt
424621,001,2022-11-21_01h53.17.989,Info_measure_main_exp,2022.2.2,MacIntel,60.14675809,,,,,,,,,,,,,,,,,,,,,,,,,,,,,,,,,,,,,,,,,,,,,,,,,,,,,,,,,,,,,,,,,,,,,,,,,,,,,,,,,,,,,,,,,,,,,,,,,,,,,,,,,,,,,,,
424621,001,2022-11-21_01h53.17.989,Info_measure_main_exp,2022.2.2,MacIntel,60.14675809,,,,,,,,,,,,,,,,,,,,,,,,,,,,,,,,,,,,,,,,,,,,,,,,,,,,,,,,,,,,,,,,,,,,,,,,,,,,,,,,,,,,,,,,,,,,,,,,,,,,,,,,,,,,,,,
424621,001,2022-11-21_01h53.17.989,Info_measure_main_exp,2022.2.2,MacIntel,60.14675809,space,16.0778,,,,,,,,,,,,,,,,,,,,,,,,,,,,,,,,,,,,,,,,,,,,,,,,,,,,,,,,,,,,,,,,,,,,,,,,,,,,,,,,,,,,,,,,,,,,,,,,,,,,,,,,,,,,,
424621,001,2022-11-21_01h53.17.989,Info_measure_main_exp,2022.2.2,MacIntel,60.14675809,,,space,9.064,,,,,,,,,,,,,,,,,,,,,,,,,,,,,,,,,,,,,,,,,,,,,,,,,,,,,,,,,,,,,,,,,,,,,,,,,,,,,,,,,,,,,,,,,,,,,,,,,,,,,,,,,,,
424621,001,2022-11-21_01h53.17.989,Info_measure_main_exp,2022.2.2,MacIntel,60.14675809,,,,,space,5.3947,,,,,,,,,,,,,,,,,,,,,,,,,,,,,,,,,,,,,,,,,,,,,,,,,,,,,,,,,,,,,,,,,,,,,,,,,,,,,,,,,,,,,,,,,,,,,,,,,,,,,,,,,
424621,001,2022-11-21_01h53.17.989,Info_measure_main_exp,2022.2.2,MacIntel,60.14675809,,,,,,,space,20.3492,,,,,,,,,,,,,,,,,,,,,,,,,,,,,,,,,,,,,,,,,,,,,,,,,,,,,,,,,,,,,,,,,,,,,,,,,,,,,,,,,,,,,,,,,,,,,,,,,,,,,,,
424621,001,2022-11-21_01h53.17.989,Info_measure_main_exp,2022.2.2,MacIntel,60.14675809,,,,,,,,,space,8.0973,,,,,,,,,,,,,,,,,,,,,,,,,,,,,,,,,,,,,,,,,,,,,,,,,,,,,,,,,,,,,,,,,,,,,,,,,,,,,,,,,,,,,,,,,,,,,,,,,,,,,
424621,001,2022-11-21_01h53.17.989,Info_measure_main_exp,2022.2.2,MacIntel,60.14675809,,,,,,,,,,,space,4.8642,,,,,,,,,,,,,,,,,,,,,,,,,,,,,,,,,,,,,,,,,,,,,,,,,,,,,,,,,,,,,,,,,,,,,,,,,,,,,,,,,,,,,,,,,,,,,,,,,,,
424621,001,2022-11-21_01h53.17.989,Info_measure_main_exp,2022.2.2,MacIntel,60.14675809,,,,,,,,,,,,,0,0,0,1,1,masks/mask_002.jpg,,,,,,,,,,,,,,,,,,,,,,,,,,,,,,,,,,,,,,,,,,,,,,,,,,,,,,,,,,,,,,,,,,,,,,,,,,,,,,,,,,,,,,,,,,,,,
424621,001,2022-11-21_01h53.17.989,Info_measure_main_exp,2022.2.2,MacIntel,60.14675809,,,,,,,,,,,,,0,1,1,2,1,masks/mask_003.jpg,,,,,,,,,,,,,,,,,,,,,,,,,,,,,,,,,,,,,,,,,,,,,,,,,,,,,,,,,,,,,,,,,,,,,,,,,,,,,,,,,,,,,,,,,,,,,
424621,001,2022-11-21_01h53.17.989,Info_measure_main_exp,2022.2.2,MacIntel,60.14675809,,,,,,,,,,,,,0,2,2,0,1,masks/mask_001.jpg,,,,,,,,,,,,,,,,,,,,,,,,,,,,,,,,,,,,,,,,,,,,,,,,,,,,,,,,,,,,,,,,,,,,,,,,,,,,,,,,,,,,,,,,,,,,,
424621,001,2022-11-21_01h53.17.989,Info_measure_main_exp,2022.2.2,MacIntel,60.14675809,,,,,,,,,,,,,0,3,3,3,1,masks/mask_004.jpg,,,,,,,,,,,,,,,,,,,,,,,,,,,,,,,,,,,,,,,,,,,,,,,,,,,,,,,,,,,,,,,,,,,,,,,,,,,,,,,,,,,,,,,,,,,,,
424621,001,2022-11-21_01h53.17.989,Info_measure_main_exp,2022.2.2,MacIntel,60.14675809,,,,,,,,,,,,,0,4,4,4,1,masks/mask_005.jpg,,,,,,,,,,,,,,,,,,,,,,,,,,,,,,,,,,,,,,,,,,,,,,,,,,,,,,,,,,,,,,,,,,,,,,,,,,,,,,,,,,,,,,,,,,,,,
424621,001,2022-11-21_01h53.17.989,Info_measure_main_exp,2022.2.2,MacIntel,60.14675809,,,,,,,,,,,,,,,,,,masks/mask_002.jpg,0,0,0,1,1,,,,,,,,,,,,,,,,,,,,,,,,,,,,,,,,,,,,,,,,,,,,,,,,,,,,,,,,,,,,,,,,,,,,,,,,,,,,,,,,,,,,,,,,
424621,001,2022-11-21_01h53.17.989,Info_measure_main_exp,2022.2.2,MacIntel,60.14675809,,,,,,,,,,,,,,,,,,masks/mask_003.jpg,0,1,1,2,1,,,,,,,,,,,,,,,,,,,,,,,,,,,,,,,,,,,,,,,,,,,,,,,,,,,,,,,,,,,,,,,,,,,,,,,,,,,,,,,,,,,,,,,,
424621,001,2022-11-21_01h53.17.989,Info_measure_main_exp,2022.2.2,MacIntel,60.14675809,,,,,,,,,,,,,,,,,,masks/mask_004.jpg,0,2,2,3,1,,,,,,,,,,,,,,,,,,,,,,,,,,,,,,,,,,,,,,,,,,,,,,,,,,,,,,,,,,,,,,,,,,,,,,,,,,,,,,,,,,,,,,,,
424621,001,2022-11-21_01h53.17.989,Info_measure_main_exp,2022.2.2,MacIntel,60.14675809,,,,,,,,,,,,,,,,,,masks/mask_005.jpg,0,3,3,4,1,,,,,,,,,,,,,,,,,,,,,,,,,,,,,,,,,,,,,,,,,,,,,,,,,,,,,,,,,,,,,,,,,,,,,,,,,,,,,,,,,,,,,,,,
424621,001,2022-11-21_01h53.17.989,Info_measure_main_exp,2022.2.2,MacIntel,60.14675809,,,,,,,,,,,,,,,,,,masks/mask_001.jpg,0,4,4,0,1,,,,,,,,,,,,,,,,,,,,,,,,,,,,,,,,,,,,,,,,,,,,,,,,,,,,,,,,,,,,,,,,,,,,,,,,,,,,,,,,,,,,,,,,
424621,001,2022-11-21_01h53.17.989,Info_measure_main_exp,2022.2.2,MacIntel,60.14675809,,,,,,,,,,,,,,,,,,,,,,,,0.066132812,0.122148437,1,0,0,response1disk,7,70.3913,1,-0.00675293,-0.007148438,1,0,0,center_square,0,0,0,0,1,0,131,5,5,2370,2406,prac_patch/patch0002370.jpg,prac_patch/patch0002406.jpg,,,,,,,,,,,,,,,,,,,,,,,,,,,,,,,,,,,,,,,,,,,,,,,,,,,,,,,,,,,,
424621,001,2022-11-21_01h53.17.989,Info_measure_main_exp,2022.2.2,MacIntel,60.14675809,,,,,,,,,,,,,0,0,0,2,1,masks/mask_003.jpg,,,,,,,,,,,,,,,,,,,,,,,,,,,,,,,,,,,,,,,,,,,,,,,,,,,,,,,,,,,,,,,,,,,,,,,,,,,,,,,,,,,,,,,,,,,,,
424621,001,2022-11-21_01h53.17.989,Info_measure_main_exp,2022.2.2,MacIntel,60.14675809,,,,,,,,,,,,,0,1,1,0,1,masks/mask_001.jpg,,,,,,,,,,,,,,,,,,,,,,,,,,,,,,,,,,,,,,,,,,,,,,,,,,,,,,,,,,,,,,,,,,,,,,,,,,,,,,,,,,,,,,,,,,,,,
424621,001,2022-11-21_01h53.17.989,Info_measure_main_exp,2022.2.2,MacIntel,60.14675809,,,,,,,,,,,,,0,2,2,4,1,masks/mask_005.jpg,,,,,,,,,,,,,,,,,,,,,,,,,,,,,,,,,,,,,,,,,,,,,,,,,,,,,,,,,,,,,,,,,,,,,,,,,,,,,,,,,,,,,,,,,,,,,
424621,001,2022-11-21_01h53.17.989,Info_measure_main_exp,2022.2.2,MacIntel,60.14675809,,,,,,,,,,,,,0,3,3,1,1,masks/mask_002.jpg,,,,,,,,,,,,,,,,,,,,,,,,,,,,,,,,,,,,,,,,,,,,,,,,,,,,,,,,,,,,,,,,,,,,,,,,,,,,,,,,,,,,,,,,,,,,,
424621,001,2022-11-21_01h53.17.989,Info_measure_main_exp,2022.2.2,MacIntel,60.14675809,,,,,,,,,,,,,0,4,4,3,1,masks/mask_004.jpg,,,,,,,,,,,,,,,,,,,,,,,,,,,,,,,,,,,,,,,,,,,,,,,,,,,,,,,,,,,,,,,,,,,,,,,,,,,,,,,,,,,,,,,,,,,,,
424621,001,2022-11-21_01h53.17.989,Info_measure_main_exp,2022.2.2,MacIntel,60.14675809,,,,,,,,,,,,,,,,,,masks/mask_005.jpg,0,0,0,4,1,,,,,,,,,,,,,,,,,,,,,,,,,,,,,,,,,,,,,,,,,,,,,,,,,,,,,,,,,,,,,,,,,,,,,,,,,,,,,,,,,,,,,,,,
424621,001,2022-11-21_01h53.17.989,Info_measure_main_exp,2022.2.2,MacIntel,60.14675809,,,,,,,,,,,,,,,,,,masks/mask_003.jpg,0,1,1,2,1,,,,,,,,,,,,,,,,,,,,,,,,,,,,,,,,,,,,,,,,,,,,,,,,,,,,,,,,,,,,,,,,,,,,,,,,,,,,,,,,,,,,,,,,
424621,001,2022-11-21_01h53.17.989,Info_measure_main_exp,2022.2.2,MacIntel,60.14675809,,,,,,,,,,,,,,,,,,masks/mask_004.jpg,0,2,2,3,1,,,,,,,,,,,,,,,,,,,,,,,,,,,,,,,,,,,,,,,,,,,,,,,,,,,,,,,,,,,,,,,,,,,,,,,,,,,,,,,,,,,,,,,,
424621,001,2022-11-21_01h53.17.989,Info_measure_main_exp,2022.2.2,MacIntel,60.14675809,,,,,,,,,,,,,,,,,,masks/mask_002.jpg,0,3,3,1,1,,,,,,,,,,,,,,,,,,,,,,,,,,,,,,,,,,,,,,,,,,,,,,,,,,,,,,,,,,,,,,,,,,,,,,,,,,,,,,,,,,,,,,,,
424621,001,2022-11-21_01h53.17.989,Info_measure_main_exp,2022.2.2,MacIntel,60.14675809,,,,,,,,,,,,,,,,,,masks/mask_001.jpg,0,4,4,0,1,,,,,,,,,,,,,,,,,,,,,,,,,,,,,,,,,,,,,,,,,,,,,,,,,,,,,,,,,,,,,,,,,,,,,,,,,,,,,,,,,,,,,,,,
424621,001,2022-11-21_01h53.17.989,Info_measure_main_exp,2022.2.2,MacIntel,60.14675809,,,,,,,,,,,,,,,,,,,,,,,,-0.034414063,-0.108339844,1,0,0,response5disk,3,81.7826,1,0.002329102,0.002651367,1,0,0,center_square,0,1,1,1,1,0,131,5,5,2514,2490,prac_patch/patch0002514.jpg,prac_patch/patch0002490.jpg,,,,,,,,,,,,,,,,,,,,,,,,,,,,,,,,,,,,,,,,,,,,,,,,,,,,,,,,,,,,
424621,001,2022-11-21_01h53.17.989,Info_measure_main_exp,2022.2.2,MacIntel,60.14675809,,,,,,,,,,,,,0,0,0,0,1,masks/mask_001.jpg,,,,,,,,,,,,,,,,,,,,,,,,,,,,,,,,,,,,,,,,,,,,,,,,,,,,,,,,,,,,,,,,,,,,,,,,,,,,,,,,,,,,,,,,,,,,,
424621,001,2022-11-21_01h53.17.989,Info_measure_main_exp,2022.2.2,MacIntel,60.14675809,,,,,,,,,,,,,0,1,1,1,1,masks/mask_002.jpg,,,,,,,,,,,,,,,,,,,,,,,,,,,,,,,,,,,,,,,,,,,,,,,,,,,,,,,,,,,,,,,,,,,,,,,,,,,,,,,,,,,,,,,,,,,,,
424621,001,2022-11-21_01h53.17.989,Info_measure_main_exp,2022.2.2,MacIntel,60.14675809,,,,,,,,,,,,,0,2,2,2,1,masks/mask_003.jpg,,,,,,,,,,,,,,,,,,,,,,,,,,,,,,,,,,,,,,,,,,,,,,,,,,,,,,,,,,,,,,,,,,,,,,,,,,,,,,,,,,,,,,,,,,,,,
424621,001,2022-11-21_01h53.17.989,Info_measure_main_exp,2022.2.2,MacIntel,60.14675809,,,,,,,,,,,,,0,3,3,4,1,masks/mask_005.jpg,,,,,,,,,,,,,,,,,,,,,,,,,,,,,,,,,,,,,,,,,,,,,,,,,,,,,,,,,,,,,,,,,,,,,,,,,,,,,,,,,,,,,,,,,,,,,
424621,001,2022-11-21_01h53.17.989,Info_measure_main_exp,2022.2.2,MacIntel,60.14675809,,,,,,,,,,,,,0,4,4,3,1,masks/mask_004.jpg,,,,,,,,,,,,,,,,,,,,,,,,,,,,,,,,,,,,,,,,,,,,,,,,,,,,,,,,,,,,,,,,,,,,,,,,,,,,,,,,,,,,,,,,,,,,,
424621,001,2022-11-21_01h53.17.989,Info_measure_main_exp,2022.2.2,MacIntel,60.14675809,,,,,,,,,,,,,,,,,,masks/mask_004.jpg,0,0,0,3,1,,,,,,,,,,,,,,,,,,,,,,,,,,,,,,,,,,,,,,,,,,,,,,,,,,,,,,,,,,,,,,,,,,,,,,,,,,,,,,,,,,,,,,,,
424621,001,2022-11-21_01h53.17.989,Info_measure_main_exp,2022.2.2,MacIntel,60.14675809,,,,,,,,,,,,,,,,,,masks/mask_005.jpg,0,1,1,4,1,,,,,,,,,,,,,,,,,,,,,,,,,,,,,,,,,,,,,,,,,,,,,,,,,,,,,,,,,,,,,,,,,,,,,,,,,,,,,,,,,,,,,,,,
424621,001,2022-11-21_01h53.17.989,Info_measure_main_exp,2022.2.2,MacIntel,60.14675809,,,,,,,,,,,,,,,,,,masks/mask_003.jpg,0,2,2,2,1,,,,,,,,,,,,,,,,,,,,,,,,,,,,,,,,,,,,,,,,,,,,,,,,,,,,,,,,,,,,,,,,,,,,,,,,,,,,,,,,,,,,,,,,
424621,001,2022-11-21_01h53.17.989,Info_measure_main_exp,2022.2.2,MacIntel,60.14675809,,,,,,,,,,,,,,,,,,masks/mask_001.jpg,0,3,3,0,1,,,,,,,,,,,,,,,,,,,,,,,,,,,,,,,,,,,,,,,,,,,,,,,,,,,,,,,,,,,,,,,,,,,,,,,,,,,,,,,,,,,,,,,,
424621,001,2022-11-21_01h53.17.989,Info_measure_main_exp,2022.2.2,MacIntel,60.14675809,,,,,,,,,,,,,,,,,,masks/mask_002.jpg,0,4,4,1,1,,,,,,,,,,,,,,,,,,,,,,,,,,,,,,,,,,,,,,,,,,,,,,,,,,,,,,,,,,,,,,,,,,,,,,,,,,,,,,,,,,,,,,,,
424621,001,2022-11-21_01h53.17.989,Info_measure_main_exp,2022.2.2,MacIntel,60.14675809,,,,,,,,,,,,,,,,,,,,,,,,-0.046762695,0.122084961,1,0,0,response7disk,0,90.9269,1,0.000483398,-0.005717773,1,0,0,center_square,0,2,2,2,1,0,131,5,5,2526,2526,prac_patch/patch0002526.jpg,prac_patch/patch0002526.jpg,,,,,,,,,,,,,,,,,,,,,,,,,,,,,,,,,,,,,,,,,,,,,,,,,,,,,,,,,,,,
424621,001,2022-11-21_01h53.17.989,Info_measure_main_exp,2022.2.2,MacIntel,60.14675809,,,,,,,,,,,,,,,,,,,,,,,,,,,,,,,,,,,,,,,,,,,,,,,,,,,,,,,,,,,space,63.036,,,,,,,,,,,,,,,,,,,,,,,,,,,,,,,,,,,,,,,,,,,,,,,,,,,
424621,001,2022-11-21_01h53.17.989,Info_measure_main_exp,2022.2.2,MacIntel,60.14675809,,,,,,,,,,,,,,,,,,masks/mask_004.jpg,,,,,,,,,,,,,,,,,,,,,,,,,,,,,,,,,,,,,,,,,,,0,0,0,3,1,,,,,,,,,,,,,,,,,,,,,,,,,,,,,,,,,,,,,,,,,,,,,,
424621,001,2022-11-21_01h53.17.989,Info_measure_main_exp,2022.2.2,MacIntel,60.14675809,,,,,,,,,,,,,,,,,,masks/mask_003.jpg,,,,,,,,,,,,,,,,,,,,,,,,,,,,,,,,,,,,,,,,,,,0,1,1,2,1,,,,,,,,,,,,,,,,,,,,,,,,,,,,,,,,,,,,,,,,,,,,,,
424621,001,2022-11-21_01h53.17.989,Info_measure_main_exp,2022.2.2,MacIntel,60.14675809,,,,,,,,,,,,,,,,,,masks/mask_001.jpg,,,,,,,,,,,,,,,,,,,,,,,,,,,,,,,,,,,,,,,,,,,0,2,2,0,1,,,,,,,,,,,,,,,,,,,,,,,,,,,,,,,,,,,,,,,,,,,,,,
424621,001,2022-11-21_01h53.17.989,Info_measure_main_exp,2022.2.2,MacIntel,60.14675809,,,,,,,,,,,,,,,,,,masks/mask_005.jpg,,,,,,,,,,,,,,,,,,,,,,,,,,,,,,,,,,,,,,,,,,,0,3,3,4,1,,,,,,,,,,,,,,,,,,,,,,,,,,,,,,,,,,,,,,,,,,,,,,
424621,001,2022-11-21_01h53.17.989,Info_measure_main_exp,2022.2.2,MacIntel,60.14675809,,,,,,,,,,,,,,,,,,masks/mask_002.jpg,,,,,,,,,,,,,,,,,,,,,,,,,,,,,,,,,,,,,,,,,,,0,4,4,1,1,,,,,,,,,,,,,,,,,,,,,,,,,,,,,,,,,,,,,,,,,,,,,,
424621,001,2022-11-21_01h53.17.989,Info_measure_main_exp,2022.2.2,MacIntel,60.14675809,,,,,,,,,,,,,,,,,,masks/mask_003.jpg,,,,,,,,,,,,,,,,,,,,,,,,,,,,,,,,,,,,,,,,,,,,,,,,0,0,0,2,1,,,,,,,,,,,,,,,,,,,,,,,,,,,,,,,,,,,,,,,,,
424621,001,2022-11-21_01h53.17.989,Info_measure_main_exp,2022.2.2,MacIntel,60.14675809,,,,,,,,,,,,,,,,,,masks/mask_001.jpg,,,,,,,,,,,,,,,,,,,,,,,,,,,,,,,,,,,,,,,,,,,,,,,,0,1,1,0,1,,,,,,,,,,,,,,,,,,,,,,,,,,,,,,,,,,,,,,,,,
424621,001,2022-11-21_01h53.17.989,Info_measure_main_exp,2022.2.2,MacIntel,60.14675809,,,,,,,,,,,,,,,,,,masks/mask_005.jpg,,,,,,,,,,,,,,,,,,,,,,,,,,,,,,,,,,,,,,,,,,,,,,,,0,2,2,4,1,,,,,,,,,,,,,,,,,,,,,,,,,,,,,,,,,,,,,,,,,
424621,001,2022-11-21_01h53.17.989,Info_measure_main_exp,2022.2.2,MacIntel,60.14675809,,,,,,,,,,,,,,,,,,masks/mask_002.jpg,,,,,,,,,,,,,,,,,,,,,,,,,,,,,,,,,,,,,,,,,,,,,,,,0,3,3,1,1,,,,,,,,,,,,,,,,,,,,,,,,,,,,,,,,,,,,,,,,,
424621,001,2022-11-21_01h53.17.989,Info_measure_main_exp,2022.2.2,MacIntel,60.14675809,,,,,,,,,,,,,,,,,,masks/mask_004.jpg,,,,,,,,,,,,,,,,,,,,,,,,,,,,,,,,,,,,,,,,,,,,,,,,0,4,4,3,1,,,,,,,,,,,,,,,,,,,,,,,,,,,,,,,,,,,,,,,,,
424621,001,2022-11-21_01h53.17.989,Info_measure_main_exp,2022.2.2,MacIntel,60.14675809,,,,,,,,,,,,,,,,,,,,,,,,,,,,,,7,1.4308,1,,,,,,,,,,,,0,131,5,5,1986,1950,absent_patch/patch0001986.jpg,absent_patch/patch0001950.jpg,,,,,,,,,,,,,,,,,,,,0.05769043,0.147294922,1,0,0,response1disk,1,-0.001606445,-0.000629883,1,0,0,center_square,0,0,0,15,1,,,,,,,,,,,,,,,,,,,,,,,
424621,001,2022-11-21_01h53.17.989,Info_measure_main_exp,2022.2.2,MacIntel,60.14675809,,,,,,,,,,,,,,,,,,masks/mask_001.jpg,,,,,,,,,,,,,,,,,,,,,,,,,,,,,,,,,,,,,,,,,,,0,0,0,0,1,,,,,,,,,,,,,,,,,,,,,,,,,,,,,,,,,,,,,,,,,,,,,,
424621,001,2022-11-21_01h53.17.989,Info_measure_main_exp,2022.2.2,MacIntel,60.14675809,,,,,,,,,,,,,,,,,,masks/mask_005.jpg,,,,,,,,,,,,,,,,,,,,,,,,,,,,,,,,,,,,,,,,,,,0,1,1,4,1,,,,,,,,,,,,,,,,,,,,,,,,,,,,,,,,,,,,,,,,,,,,,,
424621,001,2022-11-21_01h53.17.989,Info_measure_main_exp,2022.2.2,MacIntel,60.14675809,,,,,,,,,,,,,,,,,,masks/mask_004.jpg,,,,,,,,,,,,,,,,,,,,,,,,,,,,,,,,,,,,,,,,,,,0,2,2,3,1,,,,,,,,,,,,,,,,,,,,,,,,,,,,,,,,,,,,,,,,,,,,,,
424621,001,2022-11-21_01h53.17.989,Info_measure_main_exp,2022.2.2,MacIntel,60.14675809,,,,,,,,,,,,,,,,,,masks/mask_003.jpg,,,,,,,,,,,,,,,,,,,,,,,,,,,,,,,,,,,,,,,,,,,0,3,3,2,1,,,,,,,,,,,,,,,,,,,,,,,,,,,,,,,,,,,,,,,,,,,,,,
424621,001,2022-11-21_01h53.17.989,Info_measure_main_exp,2022.2.2,MacIntel,60.14675809,,,,,,,,,,,,,,,,,,masks/mask_002.jpg,,,,,,,,,,,,,,,,,,,,,,,,,,,,,,,,,,,,,,,,,,,0,4,4,1,1,,,,,,,,,,,,,,,,,,,,,,,,,,,,,,,,,,,,,,,,,,,,,,
424621,001,2022-11-21_01h53.17.989,Info_measure_main_exp,2022.2.2,MacIntel,60.14675809,,,,,,,,,,,,,,,,,,masks/mask_005.jpg,,,,,,,,,,,,,,,,,,,,,,,,,,,,,,,,,,,,,,,,,,,,,,,,0,0,0,4,1,,,,,,,,,,,,,,,,,,,,,,,,,,,,,,,,,,,,,,,,,
424621,001,2022-11-21_01h53.17.989,Info_measure_main_exp,2022.2.2,MacIntel,60.14675809,,,,,,,,,,,,,,,,,,masks/mask_002.jpg,,,,,,,,,,,,,,,,,,,,,,,,,,,,,,,,,,,,,,,,,,,,,,,,0,1,1,1,1,,,,,,,,,,,,,,,,,,,,,,,,,,,,,,,,,,,,,,,,,
424621,001,2022-11-21_01h53.17.989,Info_measure_main_exp,2022.2.2,MacIntel,60.14675809,,,,,,,,,,,,,,,,,,masks/mask_001.jpg,,,,,,,,,,,,,,,,,,,,,,,,,,,,,,,,,,,,,,,,,,,,,,,,0,2,2,0,1,,,,,,,,,,,,,,,,,,,,,,,,,,,,,,,,,,,,,,,,,
424621,001,2022-11-21_01h53.17.989,Info_measure_main_exp,2022.2.2,MacIntel,60.14675809,,,,,,,,,,,,,,,,,,masks/mask_003.jpg,,,,,,,,,,,,,,,,,,,,,,,,,,,,,,,,,,,,,,,,,,,,,,,,0,3,3,2,1,,,,,,,,,,,,,,,,,,,,,,,,,,,,,,,,,,,,,,,,,
424621,001,2022-11-21_01h53.17.989,Info_measure_main_exp,2022.2.2,MacIntel,60.14675809,,,,,,,,,,,,,,,,,,masks/mask_004.jpg,,,,,,,,,,,,,,,,,,,,,,,,,,,,,,,,,,,,,,,,,,,,,,,,0,4,4,3,1,,,,,,,,,,,,,,,,,,,,,,,,,,,,,,,,,,,,,,,,,
424621,001,2022-11-21_01h53.17.989,Info_measure_main_exp,2022.2.2,MacIntel,60.14675809,,,,,,,,,,,,,,,,,,,,,,,,,,,,,,0,2.1122,1,,,,,,,,,,,,0,131,5,5,2238,2238,absent_patch/patch0002238.jpg,absent_patch/patch0002238.jpg,,,,,,,,,,,,,,,,,,,,-0.0375,0.108398438,1,0,0,response7disk,2,0.000131836,0.005947266,1,0,0,center_square,0,1,1,58,1,,,,,,,,,,,,,,,,,,,,,,,
424621,001,2022-11-21_01h53.17.989,Info_measure_main_exp,2022.2.2,MacIntel,60.14675809,,,,,,,,,,,,,,,,,,masks/mask_004.jpg,,,,,,,,,,,,,,,,,,,,,,,,,,,,,,,,,,,,,,,,,,,0,0,0,3,1,,,,,,,,,,,,,,,,,,,,,,,,,,,,,,,,,,,,,,,,,,,,,,
424621,001,2022-11-21_01h53.17.989,Info_measure_main_exp,2022.2.2,MacIntel,60.14675809,,,,,,,,,,,,,,,,,,masks/mask_001.jpg,,,,,,,,,,,,,,,,,,,,,,,,,,,,,,,,,,,,,,,,,,,0,1,1,0,1,,,,,,,,,,,,,,,,,,,,,,,,,,,,,,,,,,,,,,,,,,,,,,
424621,001,2022-11-21_01h53.17.989,Info_measure_main_exp,2022.2.2,MacIntel,60.14675809,,,,,,,,,,,,,,,,,,masks/mask_003.jpg,,,,,,,,,,,,,,,,,,,,,,,,,,,,,,,,,,,,,,,,,,,0,2,2,2,1,,,,,,,,,,,,,,,,,,,,,,,,,,,,,,,,,,,,,,,,,,,,,,
424621,001,2022-11-21_01h53.17.989,Info_measure_main_exp,2022.2.2,MacIntel,60.14675809,,,,,,,,,,,,,,,,,,masks/mask_005.jpg,,,,,,,,,,,,,,,,,,,,,,,,,,,,,,,,,,,,,,,,,,,0,3,3,4,1,,,,,,,,,,,,,,,,,,,,,,,,,,,,,,,,,,,,,,,,,,,,,,
424621,001,2022-11-21_01h53.17.989,Info_measure_main_exp,2022.2.2,MacIntel,60.14675809,,,,,,,,,,,,,,,,,,masks/mask_002.jpg,,,,,,,,,,,,,,,,,,,,,,,,,,,,,,,,,,,,,,,,,,,0,4,4,1,1,,,,,,,,,,,,,,,,,,,,,,,,,,,,,,,,,,,,,,,,,,,,,,
424621,001,2022-11-21_01h53.17.989,Info_measure_main_exp,2022.2.2,MacIntel,60.14675809,,,,,,,,,,,,,,,,,,masks/mask_003.jpg,,,,,,,,,,,,,,,,,,,,,,,,,,,,,,,,,,,,,,,,,,,,,,,,0,0,0,2,1,,,,,,,,,,,,,,,,,,,,,,,,,,,,,,,,,,,,,,,,,
424621,001,2022-11-21_01h53.17.989,Info_measure_main_exp,2022.2.2,MacIntel,60.14675809,,,,,,,,,,,,,,,,,,masks/mask_004.jpg,,,,,,,,,,,,,,,,,,,,,,,,,,,,,,,,,,,,,,,,,,,,,,,,0,1,1,3,1,,,,,,,,,,,,,,,,,,,,,,,,,,,,,,,,,,,,,,,,,
424621,001,2022-11-21_01h53.17.989,Info_measure_main_exp,2022.2.2,MacIntel,60.14675809,,,,,,,,,,,,,,,,,,masks/mask_001.jpg,,,,,,,,,,,,,,,,,,,,,,,,,,,,,,,,,,,,,,,,,,,,,,,,0,2,2,0,1,,,,,,,,,,,,,,,,,,,,,,,,,,,,,,,,,,,,,,,,,
424621,001,2022-11-21_01h53.17.989,Info_measure_main_exp,2022.2.2,MacIntel,60.14675809,,,,,,,,,,,,,,,,,,masks/mask_005.jpg,,,,,,,,,,,,,,,,,,,,,,,,,,,,,,,,,,,,,,,,,,,,,,,,0,3,3,4,1,,,,,,,,,,,,,,,,,,,,,,,,,,,,,,,,,,,,,,,,,
424621,001,2022-11-21_01h53.17.989,Info_measure_main_exp,2022.2.2,MacIntel,60.14675809,,,,,,,,,,,,,,,,,,masks/mask_002.jpg,,,,,,,,,,,,,,,,,,,,,,,,,,,,,,,,,,,,,,,,,,,,,,,,0,4,4,1,1,,,,,,,,,,,,,,,,,,,,,,,,,,,,,,,,,,,,,,,,,
424621,001,2022-11-21_01h53.17.989,Info_measure_main_exp,2022.2.2,MacIntel,60.14675809,,,,,,,,,,,,,,,,,,,,,,,,,,,,,,0,1.1478,1,,,,,,,,,,,,0,131,5,5,2166,2166,absent_patch/patch0002166.jpg,absent_patch/patch0002166.jpg,,,,,,,,,,,,,,,,,,,,-0.02609375,0.156611328,1,0,0,response7disk,3,-0.003525391,0.002426758,1,0,0,center_square,0,2,2,42,1,,,,,,,,,,,,,,,,,,,,,,,
424621,001,2022-11-21_01h53.17.989,Info_measure_main_exp,2022.2.2,MacIntel,60.14675809,,,,,,,,,,,,,,,,,,masks/mask_001.jpg,,,,,,,,,,,,,,,,,,,,,,,,,,,,,,,,,,,,,,,,,,,0,0,0,0,1,,,,,,,,,,,,,,,,,,,,,,,,,,,,,,,,,,,,,,,,,,,,,,
424621,001,2022-11-21_01h53.17.989,Info_measure_main_exp,2022.2.2,MacIntel,60.14675809,,,,,,,,,,,,,,,,,,masks/mask_003.jpg,,,,,,,,,,,,,,,,,,,,,,,,,,,,,,,,,,,,,,,,,,,0,1,1,2,1,,,,,,,,,,,,,,,,,,,,,,,,,,,,,,,,,,,,,,,,,,,,,,
424621,001,2022-11-21_01h53.17.989,Info_measure_main_exp,2022.2.2,MacIntel,60.14675809,,,,,,,,,,,,,,,,,,masks/mask_005.jpg,,,,,,,,,,,,,,,,,,,,,,,,,,,,,,,,,,,,,,,,,,,0,2,2,4,1,,,,,,,,,,,,,,,,,,,,,,,,,,,,,,,,,,,,,,,,,,,,,,
424621,001,2022-11-21_01h53.17.989,Info_measure_main_exp,2022.2.2,MacIntel,60.14675809,,,,,,,,,,,,,,,,,,masks/mask_004.jpg,,,,,,,,,,,,,,,,,,,,,,,,,,,,,,,,,,,,,,,,,,,0,3,3,3,1,,,,,,,,,,,,,,,,,,,,,,,,,,,,,,,,,,,,,,,,,,,,,,
424621,001,2022-11-21_01h53.17.989,Info_measure_main_exp,2022.2.2,MacIntel,60.14675809,,,,,,,,,,,,,,,,,,masks/mask_002.jpg,,,,,,,,,,,,,,,,,,,,,,,,,,,,,,,,,,,,,,,,,,,0,4,4,1,1,,,,,,,,,,,,,,,,,,,,,,,,,,,,,,,,,,,,,,,,,,,,,,
424621,001,2022-11-21_01h53.17.989,Info_measure_main_exp,2022.2.2,MacIntel,60.14675809,,,,,,,,,,,,,,,,,,masks/mask_003.jpg,,,,,,,,,,,,,,,,,,,,,,,,,,,,,,,,,,,,,,,,,,,,,,,,0,0,0,2,1,,,,,,,,,,,,,,,,,,,,,,,,,,,,,,,,,,,,,,,,,
424621,001,2022-11-21_01h53.17.989,Info_measure_main_exp,2022.2.2,MacIntel,60.14675809,,,,,,,,,,,,,,,,,,masks/mask_005.jpg,,,,,,,,,,,,,,,,,,,,,,,,,,,,,,,,,,,,,,,,,,,,,,,,0,1,1,4,1,,,,,,,,,,,,,,,,,,,,,,,,,,,,,,,,,,,,,,,,,
424621,001,2022-11-21_01h53.17.989,Info_measure_main_exp,2022.2.2,MacIntel,60.14675809,,,,,,,,,,,,,,,,,,masks/mask_002.jpg,,,,,,,,,,,,,,,,,,,,,,,,,,,,,,,,,,,,,,,,,,,,,,,,0,2,2,1,1,,,,,,,,,,,,,,,,,,,,,,,,,,,,,,,,,,,,,,,,,
424621,001,2022-11-21_01h53.17.989,Info_measure_main_exp,2022.2.2,MacIntel,60.14675809,,,,,,,,,,,,,,,,,,masks/mask_004.jpg,,,,,,,,,,,,,,,,,,,,,,,,,,,,,,,,,,,,,,,,,,,,,,,,0,3,3,3,1,,,,,,,,,,,,,,,,,,,,,,,,,,,,,,,,,,,,,,,,,
424621,001,2022-11-21_01h53.17.989,Info_measure_main_exp,2022.2.2,MacIntel,60.14675809,,,,,,,,,,,,,,,,,,masks/mask_001.jpg,,,,,,,,,,,,,,,,,,,,,,,,,,,,,,,,,,,,,,,,,,,,,,,,0,4,4,0,1,,,,,,,,,,,,,,,,,,,,,,,,,,,,,,,,,,,,,,,,,
424621,001,2022-11-21_01h53.17.989,Info_measure_main_exp,2022.2.2,MacIntel,60.14675809,,,,,,,,,,,,,,,,,,,,,,,,,,,,,,5,2.2771,1,,,,,,,,,,,,0,131,5,5,1974,2142,absent_patch/patch0001974.jpg,absent_patch/patch0002142.jpg,,,,,,,,,,,,,,,,,,,,0.032021484,-0.019365234,1,0,0,response3disk,4,-0.004521484,-0.003745117,1,0,0,center_square,0,3,3,38,1,,,,,,,,,,,,,,,,,,,,,,,
424621,001,2022-11-21_01h53.17.989,Info_measure_main_exp,2022.2.2,MacIntel,60.14675809,,,,,,,,,,,,,,,,,,masks/mask_001.jpg,,,,,,,,,,,,,,,,,,,,,,,,,,,,,,,,,,,,,,,,,,,0,0,0,0,1,,,,,,,,,,,,,,,,,,,,,,,,,,,,,,,,,,,,,,,,,,,,,,
424621,001,2022-11-21_01h53.17.989,Info_measure_main_exp,2022.2.2,MacIntel,60.14675809,,,,,,,,,,,,,,,,,,masks/mask_002.jpg,,,,,,,,,,,,,,,,,,,,,,,,,,,,,,,,,,,,,,,,,,,0,1,1,1,1,,,,,,,,,,,,,,,,,,,,,,,,,,,,,,,,,,,,,,,,,,,,,,
424621,001,2022-11-21_01h53.17.989,Info_measure_main_exp,2022.2.2,MacIntel,60.14675809,,,,,,,,,,,,,,,,,,masks/mask_005.jpg,,,,,,,,,,,,,,,,,,,,,,,,,,,,,,,,,,,,,,,,,,,0,2,2,4,1,,,,,,,,,,,,,,,,,,,,,,,,,,,,,,,,,,,,,,,,,,,,,,
424621,001,2022-11-21_01h53.17.989,Info_measure_main_exp,2022.2.2,MacIntel,60.14675809,,,,,,,,,,,,,,,,,,masks/mask_003.jpg,,,,,,,,,,,,,,,,,,,,,,,,,,,,,,,,,,,,,,,,,,,0,3,3,2,1,,,,,,,,,,,,,,,,,,,,,,,,,,,,,,,,,,,,,,,,,,,,,,
424621,001,2022-11-21_01h53.17.989,Info_measure_main_exp,2022.2.2,MacIntel,60.14675809,,,,,,,,,,,,,,,,,,masks/mask_004.jpg,,,,,,,,,,,,,,,,,,,,,,,,,,,,,,,,,,,,,,,,,,,0,4,4,3,1,,,,,,,,,,,,,,,,,,,,,,,,,,,,,,,,,,,,,,,,,,,,,,
424621,001,2022-11-21_01h53.17.989,Info_measure_main_exp,2022.2.2,MacIntel,60.14675809,,,,,,,,,,,,,,,,,,masks/mask_005.jpg,,,,,,,,,,,,,,,,,,,,,,,,,,,,,,,,,,,,,,,,,,,,,,,,0,0,0,4,1,,,,,,,,,,,,,,,,,,,,,,,,,,,,,,,,,,,,,,,,,
424621,001,2022-11-21_01h53.17.989,Info_measure_main_exp,2022.2.2,MacIntel,60.14675809,,,,,,,,,,,,,,,,,,masks/mask_001.jpg,,,,,,,,,,,,,,,,,,,,,,,,,,,,,,,,,,,,,,,,,,,,,,,,0,1,1,0,1,,,,,,,,,,,,,,,,,,,,,,,,,,,,,,,,,,,,,,,,,
424621,001,2022-11-21_01h53.17.989,Info_measure_main_exp,2022.2.2,MacIntel,60.14675809,,,,,,,,,,,,,,,,,,masks/mask_003.jpg,,,,,,,,,,,,,,,,,,,,,,,,,,,,,,,,,,,,,,,,,,,,,,,,0,2,2,2,1,,,,,,,,,,,,,,,,,,,,,,,,,,,,,,,,,,,,,,,,,
424621,001,2022-11-21_01h53.17.989,Info_measure_main_exp,2022.2.2,MacIntel,60.14675809,,,,,,,,,,,,,,,,,,masks/mask_004.jpg,,,,,,,,,,,,,,,,,,,,,,,,,,,,,,,,,,,,,,,,,,,,,,,,0,3,3,3,1,,,,,,,,,,,,,,,,,,,,,,,,,,,,,,,,,,,,,,,,,
424621,001,2022-11-21_01h53.17.989,Info_measure_main_exp,2022.2.2,MacIntel,60.14675809,,,,,,,,,,,,,,,,,,masks/mask_002.jpg,,,,,,,,,,,,,,,,,,,,,,,,,,,,,,,,,,,,,,,,,,,,,,,,0,4,4,1,1,,,,,,,,,,,,,,,,,,,,,,,,,,,,,,,,,,,,,,,,,
424621,001,2022-11-21_01h53.17.989,Info_measure_main_exp,2022.2.2,MacIntel,60.14675809,,,,,,,,,,,,,,,,,,,,,,,,,,,,,,4,2.428,1,,,,,,,,,,,,0,131,5,5,2298,2214,absent_patch/patch0002298.jpg,absent_patch/patch0002214.jpg,,,,,,,,,,,,,,,,,,,,0.039291992,-0.072944336,1,0,0,response3disk,5,-0.003974609,0.008896484,1,0,0,center_square,0,4,4,99,1,,,,,,,,,,,,,,,,,,,,,,,
424621,001,2022-11-21_01h53.17.989,Info_measure_main_exp,2022.2.2,MacIntel,60.14675809,,,,,,,,,,,,,,,,,,masks/mask_002.jpg,,,,,,,,,,,,,,,,,,,,,,,,,,,,,,,,,,,,,,,,,,,0,0,0,1,1,,,,,,,,,,,,,,,,,,,,,,,,,,,,,,,,,,,,,,,,,,,,,,
424621,001,2022-11-21_01h53.17.989,Info_measure_main_exp,2022.2.2,MacIntel,60.14675809,,,,,,,,,,,,,,,,,,masks/mask_004.jpg,,,,,,,,,,,,,,,,,,,,,,,,,,,,,,,,,,,,,,,,,,,0,1,1,3,1,,,,,,,,,,,,,,,,,,,,,,,,,,,,,,,,,,,,,,,,,,,,,,
424621,001,2022-11-21_01h53.17.989,Info_measure_main_exp,2022.2.2,MacIntel,60.14675809,,,,,,,,,,,,,,,,,,masks/mask_003.jpg,,,,,,,,,,,,,,,,,,,,,,,,,,,,,,,,,,,,,,,,,,,0,2,2,2,1,,,,,,,,,,,,,,,,,,,,,,,,,,,,,,,,,,,,,,,,,,,,,,
424621,001,2022-11-21_01h53.17.989,Info_measure_main_exp,2022.2.2,MacIntel,60.14675809,,,,,,,,,,,,,,,,,,masks/mask_001.jpg,,,,,,,,,,,,,,,,,,,,,,,,,,,,,,,,,,,,,,,,,,,0,3,3,0,1,,,,,,,,,,,,,,,,,,,,,,,,,,,,,,,,,,,,,,,,,,,,,,
424621,001,2022-11-21_01h53.17.989,Info_measure_main_exp,2022.2.2,MacIntel,60.14675809,,,,,,,,,,,,,,,,,,masks/mask_005.jpg,,,,,,,,,,,,,,,,,,,,,,,,,,,,,,,,,,,,,,,,,,,0,4,4,4,1,,,,,,,,,,,,,,,,,,,,,,,,,,,,,,,,,,,,,,,,,,,,,,
424621,001,2022-11-21_01h53.17.989,Info_measure_main_exp,2022.2.2,MacIntel,60.14675809,,,,,,,,,,,,,,,,,,masks/mask_003.jpg,,,,,,,,,,,,,,,,,,,,,,,,,,,,,,,,,,,,,,,,,,,,,,,,0,0,0,2,1,,,,,,,,,,,,,,,,,,,,,,,,,,,,,,,,,,,,,,,,,
424621,001,2022-11-21_01h53.17.989,Info_measure_main_exp,2022.2.2,MacIntel,60.14675809,,,,,,,,,,,,,,,,,,masks/mask_004.jpg,,,,,,,,,,,,,,,,,,,,,,,,,,,,,,,,,,,,,,,,,,,,,,,,0,1,1,3,1,,,,,,,,,,,,,,,,,,,,,,,,,,,,,,,,,,,,,,,,,
424621,001,2022-11-21_01h53.17.989,Info_measure_main_exp,2022.2.2,MacIntel,60.14675809,,,,,,,,,,,,,,,,,,masks/mask_002.jpg,,,,,,,,,,,,,,,,,,,,,,,,,,,,,,,,,,,,,,,,,,,,,,,,0,2,2,1,1,,,,,,,,,,,,,,,,,,,,,,,,,,,,,,,,,,,,,,,,,
424621,001,2022-11-21_01h53.17.989,Info_measure_main_exp,2022.2.2,MacIntel,60.14675809,,,,,,,,,,,,,,,,,,masks/mask_005.jpg,,,,,,,,,,,,,,,,,,,,,,,,,,,,,,,,,,,,,,,,,,,,,,,,0,3,3,4,1,,,,,,,,,,,,,,,,,,,,,,,,,,,,,,,,,,,,,,,,,
424621,001,2022-11-21_01h53.17.989,Info_measure_main_exp,2022.2.2,MacIntel,60.14675809,,,,,,,,,,,,,,,,,,masks/mask_001.jpg,,,,,,,,,,,,,,,,,,,,,,,,,,,,,,,,,,,,,,,,,,,,,,,,0,4,4,0,1,,,,,,,,,,,,,,,,,,,,,,,,,,,,,,,,,,,,,,,,,
424621,001,2022-11-21_01h53.17.989,Info_measure_main_exp,2022.2.2,MacIntel,60.14675809,,,,,,,,,,,,,,,,,,,,,,,,,,,,,,6,1.5135,1,,,,,,,,,,,,1,131,5,5,1,2142,present_patch/cong_131_5_a.jpg,absent_patch/patch0002142.jpg,,,,,,,,,,,,,,,,,,,,0.083823242,0.008139648,1,0,0,response1disk,6,0.00402832,-0.009418945,1,0,0,center_square,0,5,5,80,1,,,,,,,,,,,,,,,,,,,,,,,
424621,001,2022-11-21_01h53.17.989,Info_measure_main_exp,2022.2.2,MacIntel,60.14675809,,,,,,,,,,,,,,,,,,masks/mask_004.jpg,,,,,,,,,,,,,,,,,,,,,,,,,,,,,,,,,,,,,,,,,,,0,0,0,3,1,,,,,,,,,,,,,,,,,,,,,,,,,,,,,,,,,,,,,,,,,,,,,,
424621,001,2022-11-21_01h53.17.989,Info_measure_main_exp,2022.2.2,MacIntel,60.14675809,,,,,,,,,,,,,,,,,,masks/mask_001.jpg,,,,,,,,,,,,,,,,,,,,,,,,,,,,,,,,,,,,,,,,,,,0,1,1,0,1,,,,,,,,,,,,,,,,,,,,,,,,,,,,,,,,,,,,,,,,,,,,,,
424621,001,2022-11-21_01h53.17.989,Info_measure_main_exp,2022.2.2,MacIntel,60.14675809,,,,,,,,,,,,,,,,,,masks/mask_005.jpg,,,,,,,,,,,,,,,,,,,,,,,,,,,,,,,,,,,,,,,,,,,0,2,2,4,1,,,,,,,,,,,,,,,,,,,,,,,,,,,,,,,,,,,,,,,,,,,,,,
424621,001,2022-11-21_01h53.17.989,Info_measure_main_exp,2022.2.2,MacIntel,60.14675809,,,,,,,,,,,,,,,,,,masks/mask_003.jpg,,,,,,,,,,,,,,,,,,,,,,,,,,,,,,,,,,,,,,,,,,,0,3,3,2,1,,,,,,,,,,,,,,,,,,,,,,,,,,,,,,,,,,,,,,,,,,,,,,
424621,001,2022-11-21_01h53.17.989,Info_measure_main_exp,2022.2.2,MacIntel,60.14675809,,,,,,,,,,,,,,,,,,masks/mask_002.jpg,,,,,,,,,,,,,,,,,,,,,,,,,,,,,,,,,,,,,,,,,,,0,4,4,1,1,,,,,,,,,,,,,,,,,,,,,,,,,,,,,,,,,,,,,,,,,,,,,,
424621,001,2022-11-21_01h53.17.989,Info_measure_main_exp,2022.2.2,MacIntel,60.14675809,,,,,,,,,,,,,,,,,,masks/mask_002.jpg,,,,,,,,,,,,,,,,,,,,,,,,,,,,,,,,,,,,,,,,,,,,,,,,0,0,0,1,1,,,,,,,,,,,,,,,,,,,,,,,,,,,,,,,,,,,,,,,,,
424621,001,2022-11-21_01h53.17.989,Info_measure_main_exp,2022.2.2,MacIntel,60.14675809,,,,,,,,,,,,,,,,,,masks/mask_001.jpg,,,,,,,,,,,,,,,,,,,,,,,,,,,,,,,,,,,,,,,,,,,,,,,,0,1,1,0,1,,,,,,,,,,,,,,,,,,,,,,,,,,,,,,,,,,,,,,,,,
424621,001,2022-11-21_01h53.17.989,Info_measure_main_exp,2022.2.2,MacIntel,60.14675809,,,,,,,,,,,,,,,,,,masks/mask_003.jpg,,,,,,,,,,,,,,,,,,,,,,,,,,,,,,,,,,,,,,,,,,,,,,,,0,2,2,2,1,,,,,,,,,,,,,,,,,,,,,,,,,,,,,,,,,,,,,,,,,
424621,001,2022-11-21_01h53.17.989,Info_measure_main_exp,2022.2.2,MacIntel,60.14675809,,,,,,,,,,,,,,,,,,masks/mask_004.jpg,,,,,,,,,,,,,,,,,,,,,,,,,,,,,,,,,,,,,,,,,,,,,,,,0,3,3,3,1,,,,,,,,,,,,,,,,,,,,,,,,,,,,,,,,,,,,,,,,,
424621,001,2022-11-21_01h53.17.989,Info_measure_main_exp,2022.2.2,MacIntel,60.14675809,,,,,,,,,,,,,,,,,,masks/mask_005.jpg,,,,,,,,,,,,,,,,,,,,,,,,,,,,,,,,,,,,,,,,,,,,,,,,0,4,4,4,1,,,,,,,,,,,,,,,,,,,,,,,,,,,,,,,,,,,,,,,,,
424621,001,2022-11-21_01h53.17.989,Info_measure_main_exp,2022.2.2,MacIntel,60.14675809,,,,,,,,,,,,,,,,,,,,,,,,,,,,,,6,2.0952,1,,,,,,,,,,,,0,131,5,5,2238,2166,absent_patch/patch0002238.jpg,absent_patch/patch0002166.jpg,,,,,,,,,,,,,,,,,,,,0.020703125,0.007568359,1,0,0,response1disk,7,0.007680664,-0.000942383,1,0,0,center_square,0,6,6,118,1,,,,,,,,,,,,,,,,,,,,,,,
424621,001,2022-11-21_01h53.17.989,Info_measure_main_exp,2022.2.2,MacIntel,60.14675809,,,,,,,,,,,,,,,,,,masks/mask_002.jpg,,,,,,,,,,,,,,,,,,,,,,,,,,,,,,,,,,,,,,,,,,,0,0,0,1,1,,,,,,,,,,,,,,,,,,,,,,,,,,,,,,,,,,,,,,,,,,,,,,
424621,001,2022-11-21_01h53.17.989,Info_measure_main_exp,2022.2.2,MacIntel,60.14675809,,,,,,,,,,,,,,,,,,masks/mask_004.jpg,,,,,,,,,,,,,,,,,,,,,,,,,,,,,,,,,,,,,,,,,,,0,1,1,3,1,,,,,,,,,,,,,,,,,,,,,,,,,,,,,,,,,,,,,,,,,,,,,,
424621,001,2022-11-21_01h53.17.989,Info_measure_main_exp,2022.2.2,MacIntel,60.14675809,,,,,,,,,,,,,,,,,,masks/mask_005.jpg,,,,,,,,,,,,,,,,,,,,,,,,,,,,,,,,,,,,,,,,,,,0,2,2,4,1,,,,,,,,,,,,,,,,,,,,,,,,,,,,,,,,,,,,,,,,,,,,,,
424621,001,2022-11-21_01h53.17.989,Info_measure_main_exp,2022.2.2,MacIntel,60.14675809,,,,,,,,,,,,,,,,,,masks/mask_001.jpg,,,,,,,,,,,,,,,,,,,,,,,,,,,,,,,,,,,,,,,,,,,0,3,3,0,1,,,,,,,,,,,,,,,,,,,,,,,,,,,,,,,,,,,,,,,,,,,,,,
424621,001,2022-11-21_01h53.17.989,Info_measure_main_exp,2022.2.2,MacIntel,60.14675809,,,,,,,,,,,,,,,,,,masks/mask_003.jpg,,,,,,,,,,,,,,,,,,,,,,,,,,,,,,,,,,,,,,,,,,,0,4,4,2,1,,,,,,,,,,,,,,,,,,,,,,,,,,,,,,,,,,,,,,,,,,,,,,
424621,001,2022-11-21_01h53.17.989,Info_measure_main_exp,2022.2.2,MacIntel,60.14675809,,,,,,,,,,,,,,,,,,masks/mask_002.jpg,,,,,,,,,,,,,,,,,,,,,,,,,,,,,,,,,,,,,,,,,,,,,,,,0,0,0,1,1,,,,,,,,,,,,,,,,,,,,,,,,,,,,,,,,,,,,,,,,,
424621,001,2022-11-21_01h53.17.989,Info_measure_main_exp,2022.2.2,MacIntel,60.14675809,,,,,,,,,,,,,,,,,,masks/mask_003.jpg,,,,,,,,,,,,,,,,,,,,,,,,,,,,,,,,,,,,,,,,,,,,,,,,0,1,1,2,1,,,,,,,,,,,,,,,,,,,,,,,,,,,,,,,,,,,,,,,,,
424621,001,2022-11-21_01h53.17.989,Info_measure_main_exp,2022.2.2,MacIntel,60.14675809,,,,,,,,,,,,,,,,,,masks/mask_005.jpg,,,,,,,,,,,,,,,,,,,,,,,,,,,,,,,,,,,,,,,,,,,,,,,,0,2,2,4,1,,,,,,,,,,,,,,,,,,,,,,,,,,,,,,,,,,,,,,,,,
424621,001,2022-11-21_01h53.17.989,Info_measure_main_exp,2022.2.2,MacIntel,60.14675809,,,,,,,,,,,,,,,,,,masks/mask_004.jpg,,,,,,,,,,,,,,,,,,,,,,,,,,,,,,,,,,,,,,,,,,,,,,,,0,3,3,3,1,,,,,,,,,,,,,,,,,,,,,,,,,,,,,,,,,,,,,,,,,
424621,001,2022-11-21_01h53.17.989,Info_measure_main_exp,2022.2.2,MacIntel,60.14675809,,,,,,,,,,,,,,,,,,masks/mask_001.jpg,,,,,,,,,,,,,,,,,,,,,,,,,,,,,,,,,,,,,,,,,,,,,,,,0,4,4,0,1,,,,,,,,,,,,,,,,,,,,,,,,,,,,,,,,,,,,,,,,,
424621,001,2022-11-21_01h53.17.989,Info_measure_main_exp,2022.2.2,MacIntel,60.14675809,,,,,,,,,,,,,,,,,,,,,,,,,,,,,,5,2.0976,1,,,,,,,,,,,,0,131,5,5,2154,2298,absent_patch/patch0002154.jpg,absent_patch/patch0002298.jpg,,,,,,,,,,,,,,,,,,,,0.016567383,-0.011147461,1,0,0,response3disk,8,-0.005180664,-0.003237305,1,0,0,center_square,0,7,7,27,1,,,,,,,,,,,,,,,,,,,,,,,
424621,001,2022-11-21_01h53.17.989,Info_measure_main_exp,2022.2.2,MacIntel,60.14675809,,,,,,,,,,,,,,,,,,masks/mask_004.jpg,,,,,,,,,,,,,,,,,,,,,,,,,,,,,,,,,,,,,,,,,,,0,0,0,3,1,,,,,,,,,,,,,,,,,,,,,,,,,,,,,,,,,,,,,,,,,,,,,,
424621,001,2022-11-21_01h53.17.989,Info_measure_main_exp,2022.2.2,MacIntel,60.14675809,,,,,,,,,,,,,,,,,,masks/mask_005.jpg,,,,,,,,,,,,,,,,,,,,,,,,,,,,,,,,,,,,,,,,,,,0,1,1,4,1,,,,,,,,,,,,,,,,,,,,,,,,,,,,,,,,,,,,,,,,,,,,,,
424621,001,2022-11-21_01h53.17.989,Info_measure_main_exp,2022.2.2,MacIntel,60.14675809,,,,,,,,,,,,,,,,,,masks/mask_002.jpg,,,,,,,,,,,,,,,,,,,,,,,,,,,,,,,,,,,,,,,,,,,0,2,2,1,1,,,,,,,,,,,,,,,,,,,,,,,,,,,,,,,,,,,,,,,,,,,,,,
424621,001,2022-11-21_01h53.17.989,Info_measure_main_exp,2022.2.2,MacIntel,60.14675809,,,,,,,,,,,,,,,,,,masks/mask_001.jpg,,,,,,,,,,,,,,,,,,,,,,,,,,,,,,,,,,,,,,,,,,,0,3,3,0,1,,,,,,,,,,,,,,,,,,,,,,,,,,,,,,,,,,,,,,,,,,,,,,
424621,001,2022-11-21_01h53.17.989,Info_measure_main_exp,2022.2.2,MacIntel,60.14675809,,,,,,,,,,,,,,,,,,masks/mask_003.jpg,,,,,,,,,,,,,,,,,,,,,,,,,,,,,,,,,,,,,,,,,,,0,4,4,2,1,,,,,,,,,,,,,,,,,,,,,,,,,,,,,,,,,,,,,,,,,,,,,,
424621,001,2022-11-21_01h53.17.989,Info_measure_main_exp,2022.2.2,MacIntel,60.14675809,,,,,,,,,,,,,,,,,,masks/mask_003.jpg,,,,,,,,,,,,,,,,,,,,,,,,,,,,,,,,,,,,,,,,,,,,,,,,0,0,0,2,1,,,,,,,,,,,,,,,,,,,,,,,,,,,,,,,,,,,,,,,,,
424621,001,2022-11-21_01h53.17.989,Info_measure_main_exp,2022.2.2,MacIntel,60.14675809,,,,,,,,,,,,,,,,,,masks/mask_002.jpg,,,,,,,,,,,,,,,,,,,,,,,,,,,,,,,,,,,,,,,,,,,,,,,,0,1,1,1,1,,,,,,,,,,,,,,,,,,,,,,,,,,,,,,,,,,,,,,,,,
424621,001,2022-11-21_01h53.17.989,Info_measure_main_exp,2022.2.2,MacIntel,60.14675809,,,,,,,,,,,,,,,,,,masks/mask_005.jpg,,,,,,,,,,,,,,,,,,,,,,,,,,,,,,,,,,,,,,,,,,,,,,,,0,2,2,4,1,,,,,,,,,,,,,,,,,,,,,,,,,,,,,,,,,,,,,,,,,
424621,001,2022-11-21_01h53.17.989,Info_measure_main_exp,2022.2.2,MacIntel,60.14675809,,,,,,,,,,,,,,,,,,masks/mask_004.jpg,,,,,,,,,,,,,,,,,,,,,,,,,,,,,,,,,,,,,,,,,,,,,,,,0,3,3,3,1,,,,,,,,,,,,,,,,,,,,,,,,,,,,,,,,,,,,,,,,,
424621,001,2022-11-21_01h53.17.989,Info_measure_main_exp,2022.2.2,MacIntel,60.14675809,,,,,,,,,,,,,,,,,,masks/mask_001.jpg,,,,,,,,,,,,,,,,,,,,,,,,,,,,,,,,,,,,,,,,,,,,,,,,0,4,4,0,1,,,,,,,,,,,,,,,,,,,,,,,,,,,,,,,,,,,,,,,,,
424621,001,2022-11-21_01h53.17.989,Info_measure_main_exp,2022.2.2,MacIntel,60.14675809,,,,,,,,,,,,,,,,,,,,,,,,,,,,,,3,2.1448,1,,,,,,,,,,,,0,131,5,5,2190,2238,absent_patch/patch0002190.jpg,absent_patch/patch0002238.jpg,,,,,,,,,,,,,,,,,,,,-0.023818359,-0.070322266,1,0,0,response5disk,9,0.00015625,-0.000693359,1,0,0,center_square,0,8,8,53,1,,,,,,,,,,,,,,,,,,,,,,,
424621,001,2022-11-21_01h53.17.989,Info_measure_main_exp,2022.2.2,MacIntel,60.14675809,,,,,,,,,,,,,,,,,,masks/mask_002.jpg,,,,,,,,,,,,,,,,,,,,,,,,,,,,,,,,,,,,,,,,,,,0,0,0,1,1,,,,,,,,,,,,,,,,,,,,,,,,,,,,,,,,,,,,,,,,,,,,,,
424621,001,2022-11-21_01h53.17.989,Info_measure_main_exp,2022.2.2,MacIntel,60.14675809,,,,,,,,,,,,,,,,,,masks/mask_005.jpg,,,,,,,,,,,,,,,,,,,,,,,,,,,,,,,,,,,,,,,,,,,0,1,1,4,1,,,,,,,,,,,,,,,,,,,,,,,,,,,,,,,,,,,,,,,,,,,,,,
424621,001,2022-11-21_01h53.17.989,Info_measure_main_exp,2022.2.2,MacIntel,60.14675809,,,,,,,,,,,,,,,,,,masks/mask_001.jpg,,,,,,,,,,,,,,,,,,,,,,,,,,,,,,,,,,,,,,,,,,,0,2,2,0,1,,,,,,,,,,,,,,,,,,,,,,,,,,,,,,,,,,,,,,,,,,,,,,
424621,001,2022-11-21_01h53.17.989,Info_measure_main_exp,2022.2.2,MacIntel,60.14675809,,,,,,,,,,,,,,,,,,masks/mask_003.jpg,,,,,,,,,,,,,,,,,,,,,,,,,,,,,,,,,,,,,,,,,,,0,3,3,2,1,,,,,,,,,,,,,,,,,,,,,,,,,,,,,,,,,,,,,,,,,,,,,,
424621,001,2022-11-21_01h53.17.989,Info_measure_main_exp,2022.2.2,MacIntel,60.14675809,,,,,,,,,,,,,,,,,,masks/mask_004.jpg,,,,,,,,,,,,,,,,,,,,,,,,,,,,,,,,,,,,,,,,,,,0,4,4,3,1,,,,,,,,,,,,,,,,,,,,,,,,,,,,,,,,,,,,,,,,,,,,,,
424621,001,2022-11-21_01h53.17.989,Info_measure_main_exp,2022.2.2,MacIntel,60.14675809,,,,,,,,,,,,,,,,,,masks/mask_002.jpg,,,,,,,,,,,,,,,,,,,,,,,,,,,,,,,,,,,,,,,,,,,,,,,,0,0,0,1,1,,,,,,,,,,,,,,,,,,,,,,,,,,,,,,,,,,,,,,,,,
424621,001,2022-11-21_01h53.17.989,Info_measure_main_exp,2022.2.2,MacIntel,60.14675809,,,,,,,,,,,,,,,,,,masks/mask_004.jpg,,,,,,,,,,,,,,,,,,,,,,,,,,,,,,,,,,,,,,,,,,,,,,,,0,1,1,3,1,,,,,,,,,,,,,,,,,,,,,,,,,,,,,,,,,,,,,,,,,
424621,001,2022-11-21_01h53.17.989,Info_measure_main_exp,2022.2.2,MacIntel,60.14675809,,,,,,,,,,,,,,,,,,masks/mask_005.jpg,,,,,,,,,,,,,,,,,,,,,,,,,,,,,,,,,,,,,,,,,,,,,,,,0,2,2,4,1,,,,,,,,,,,,,,,,,,,,,,,,,,,,,,,,,,,,,,,,,
424621,001,2022-11-21_01h53.17.989,Info_measure_main_exp,2022.2.2,MacIntel,60.14675809,,,,,,,,,,,,,,,,,,masks/mask_001.jpg,,,,,,,,,,,,,,,,,,,,,,,,,,,,,,,,,,,,,,,,,,,,,,,,0,3,3,0,1,,,,,,,,,,,,,,,,,,,,,,,,,,,,,,,,,,,,,,,,,
424621,001,2022-11-21_01h53.17.989,Info_measure_main_exp,2022.2.2,MacIntel,60.14675809,,,,,,,,,,,,,,,,,,masks/mask_003.jpg,,,,,,,,,,,,,,,,,,,,,,,,,,,,,,,,,,,,,,,,,,,,,,,,0,4,4,2,1,,,,,,,,,,,,,,,,,,,,,,,,,,,,,,,,,,,,,,,,,
424621,001,2022-11-21_01h53.17.989,Info_measure_main_exp,2022.2.2,MacIntel,60.14675809,,,,,,,,,,,,,,,,,,,,,,,,,,,,,,6,1.4958,1,,,,,,,,,,,,0,131,5,5,2082,2238,absent_patch/patch0002082.jpg,absent_patch/patch0002238.jpg,,,,,,,,,,,,,,,,,,,,0.056147461,0.020166016,1,0,0,response1disk,10,-0.001464844,-0.002705078,1,0,0,center_square,0,9,9,22,1,,,,,,,,,,,,,,,,,,,,,,,
424621,001,2022-11-21_01h53.17.989,Info_measure_main_exp,2022.2.2,MacIntel,60.14675809,,,,,,,,,,,,,,,,,,masks/mask_004.jpg,,,,,,,,,,,,,,,,,,,,,,,,,,,,,,,,,,,,,,,,,,,0,0,0,3,1,,,,,,,,,,,,,,,,,,,,,,,,,,,,,,,,,,,,,,,,,,,,,,
424621,001,2022-11-21_01h53.17.989,Info_measure_main_exp,2022.2.2,MacIntel,60.14675809,,,,,,,,,,,,,,,,,,masks/mask_002.jpg,,,,,,,,,,,,,,,,,,,,,,,,,,,,,,,,,,,,,,,,,,,0,1,1,1,1,,,,,,,,,,,,,,,,,,,,,,,,,,,,,,,,,,,,,,,,,,,,,,
424621,001,2022-11-21_01h53.17.989,Info_measure_main_exp,2022.2.2,MacIntel,60.14675809,,,,,,,,,,,,,,,,,,masks/mask_005.jpg,,,,,,,,,,,,,,,,,,,,,,,,,,,,,,,,,,,,,,,,,,,0,2,2,4,1,,,,,,,,,,,,,,,,,,,,,,,,,,,,,,,,,,,,,,,,,,,,,,
424621,001,2022-11-21_01h53.17.989,Info_measure_main_exp,2022.2.2,MacIntel,60.14675809,,,,,,,,,,,,,,,,,,masks/mask_001.jpg,,,,,,,,,,,,,,,,,,,,,,,,,,,,,,,,,,,,,,,,,,,0,3,3,0,1,,,,,,,,,,,,,,,,,,,,,,,,,,,,,,,,,,,,,,,,,,,,,,
424621,001,2022-11-21_01h53.17.989,Info_measure_main_exp,2022.2.2,MacIntel,60.14675809,,,,,,,,,,,,,,,,,,masks/mask_003.jpg,,,,,,,,,,,,,,,,,,,,,,,,,,,,,,,,,,,,,,,,,,,0,4,4,2,1,,,,,,,,,,,,,,,,,,,,,,,,,,,,,,,,,,,,,,,,,,,,,,
424621,001,2022-11-21_01h53.17.989,Info_measure_main_exp,2022.2.2,MacIntel,60.14675809,,,,,,,,,,,,,,,,,,masks/mask_001.jpg,,,,,,,,,,,,,,,,,,,,,,,,,,,,,,,,,,,,,,,,,,,,,,,,0,0,0,0,1,,,,,,,,,,,,,,,,,,,,,,,,,,,,,,,,,,,,,,,,,
424621,001,2022-11-21_01h53.17.989,Info_measure_main_exp,2022.2.2,MacIntel,60.14675809,,,,,,,,,,,,,,,,,,masks/mask_002.jpg,,,,,,,,,,,,,,,,,,,,,,,,,,,,,,,,,,,,,,,,,,,,,,,,0,1,1,1,1,,,,,,,,,,,,,,,,,,,,,,,,,,,,,,,,,,,,,,,,,
424621,001,2022-11-21_01h53.17.989,Info_measure_main_exp,2022.2.2,MacIntel,60.14675809,,,,,,,,,,,,,,,,,,masks/mask_005.jpg,,,,,,,,,,,,,,,,,,,,,,,,,,,,,,,,,,,,,,,,,,,,,,,,0,2,2,4,1,,,,,,,,,,,,,,,,,,,,,,,,,,,,,,,,,,,,,,,,,
424621,001,2022-11-21_01h53.17.989,Info_measure_main_exp,2022.2.2,MacIntel,60.14675809,,,,,,,,,,,,,,,,,,masks/mask_004.jpg,,,,,,,,,,,,,,,,,,,,,,,,,,,,,,,,,,,,,,,,,,,,,,,,0,3,3,3,1,,,,,,,,,,,,,,,,,,,,,,,,,,,,,,,,,,,,,,,,,
424621,001,2022-11-21_01h53.17.989,Info_measure_main_exp,2022.2.2,MacIntel,60.14675809,,,,,,,,,,,,,,,,,,masks/mask_003.jpg,,,,,,,,,,,,,,,,,,,,,,,,,,,,,,,,,,,,,,,,,,,,,,,,0,4,4,2,1,,,,,,,,,,,,,,,,,,,,,,,,,,,,,,,,,,,,,,,,,
424621,001,2022-11-21_01h53.17.989,Info_measure_main_exp,2022.2.2,MacIntel,60.14675809,,,,,,,,,,,,,,,,,,,,,,,,,,,,,,5,3.9239,1,,,,,,,,,,,,0,131,5,5,1974,2214,absent_patch/patch0001974.jpg,absent_patch/patch0002214.jpg,,,,,,,,,,,,,,,,,,,,0.148149414,-0.082368164,1,0,0,response3disk,11,0.004375,-0.001176758,1,0,0,center_square,0,10,10,24,1,,,,,,,,,,,,,,,,,,,,,,,
424621,001,2022-11-21_01h53.17.989,Info_measure_main_exp,2022.2.2,MacIntel,60.14675809,,,,,,,,,,,,,,,,,,masks/mask_002.jpg,,,,,,,,,,,,,,,,,,,,,,,,,,,,,,,,,,,,,,,,,,,0,0,0,1,1,,,,,,,,,,,,,,,,,,,,,,,,,,,,,,,,,,,,,,,,,,,,,,
424621,001,2022-11-21_01h53.17.989,Info_measure_main_exp,2022.2.2,MacIntel,60.14675809,,,,,,,,,,,,,,,,,,masks/mask_005.jpg,,,,,,,,,,,,,,,,,,,,,,,,,,,,,,,,,,,,,,,,,,,0,1,1,4,1,,,,,,,,,,,,,,,,,,,,,,,,,,,,,,,,,,,,,,,,,,,,,,
424621,001,2022-11-21_01h53.17.989,Info_measure_main_exp,2022.2.2,MacIntel,60.14675809,,,,,,,,,,,,,,,,,,masks/mask_003.jpg,,,,,,,,,,,,,,,,,,,,,,,,,,,,,,,,,,,,,,,,,,,0,2,2,2,1,,,,,,,,,,,,,,,,,,,,,,,,,,,,,,,,,,,,,,,,,,,,,,
424621,001,2022-11-21_01h53.17.989,Info_measure_main_exp,2022.2.2,MacIntel,60.14675809,,,,,,,,,,,,,,,,,,masks/mask_004.jpg,,,,,,,,,,,,,,,,,,,,,,,,,,,,,,,,,,,,,,,,,,,0,3,3,3,1,,,,,,,,,,,,,,,,,,,,,,,,,,,,,,,,,,,,,,,,,,,,,,
424621,001,2022-11-21_01h53.17.989,Info_measure_main_exp,2022.2.2,MacIntel,60.14675809,,,,,,,,,,,,,,,,,,masks/mask_001.jpg,,,,,,,,,,,,,,,,,,,,,,,,,,,,,,,,,,,,,,,,,,,0,4,4,0,1,,,,,,,,,,,,,,,,,,,,,,,,,,,,,,,,,,,,,,,,,,,,,,
424621,001,2022-11-21_01h53.17.989,Info_measure_main_exp,2022.2.2,MacIntel,60.14675809,,,,,,,,,,,,,,,,,,masks/mask_003.jpg,,,,,,,,,,,,,,,,,,,,,,,,,,,,,,,,,,,,,,,,,,,,,,,,0,0,0,2,1,,,,,,,,,,,,,,,,,,,,,,,,,,,,,,,,,,,,,,,,,
424621,001,2022-11-21_01h53.17.989,Info_measure_main_exp,2022.2.2,MacIntel,60.14675809,,,,,,,,,,,,,,,,,,masks/mask_002.jpg,,,,,,,,,,,,,,,,,,,,,,,,,,,,,,,,,,,,,,,,,,,,,,,,0,1,1,1,1,,,,,,,,,,,,,,,,,,,,,,,,,,,,,,,,,,,,,,,,,
424621,001,2022-11-21_01h53.17.989,Info_measure_main_exp,2022.2.2,MacIntel,60.14675809,,,,,,,,,,,,,,,,,,masks/mask_001.jpg,,,,,,,,,,,,,,,,,,,,,,,,,,,,,,,,,,,,,,,,,,,,,,,,0,2,2,0,1,,,,,,,,,,,,,,,,,,,,,,,,,,,,,,,,,,,,,,,,,
424621,001,2022-11-21_01h53.17.989,Info_measure_main_exp,2022.2.2,MacIntel,60.14675809,,,,,,,,,,,,,,,,,,masks/mask_004.jpg,,,,,,,,,,,,,,,,,,,,,,,,,,,,,,,,,,,,,,,,,,,,,,,,0,3,3,3,1,,,,,,,,,,,,,,,,,,,,,,,,,,,,,,,,,,,,,,,,,
424621,001,2022-11-21_01h53.17.989,Info_measure_main_exp,2022.2.2,MacIntel,60.14675809,,,,,,,,,,,,,,,,,,masks/mask_005.jpg,,,,,,,,,,,,,,,,,,,,,,,,,,,,,,,,,,,,,,,,,,,,,,,,0,4,4,4,1,,,,,,,,,,,,,,,,,,,,,,,,,,,,,,,,,,,,,,,,,
424621,001,2022-11-21_01h53.17.989,Info_measure_main_exp,2022.2.2,MacIntel,60.14675809,,,,,,,,,,,,,,,,,,,,,,,,,,,,,,0,0.4826,1,,,,,,,,,,,,0,131,5,5,2298,2298,absent_patch/patch0002298.jpg,absent_patch/patch0002298.jpg,,,,,,,,,,,,,,,,,,,,-0.033740234,0.101191406,1,0,0,response7disk,12,-0.004301758,0.005073242,1,0,0,center_square,0,11,11,37,1,,,,,,,,,,,,,,,,,,,,,,,
424621,001,2022-11-21_01h53.17.989,Info_measure_main_exp,2022.2.2,MacIntel,60.14675809,,,,,,,,,,,,,,,,,,masks/mask_005.jpg,,,,,,,,,,,,,,,,,,,,,,,,,,,,,,,,,,,,,,,,,,,0,0,0,4,1,,,,,,,,,,,,,,,,,,,,,,,,,,,,,,,,,,,,,,,,,,,,,,
424621,001,2022-11-21_01h53.17.989,Info_measure_main_exp,2022.2.2,MacIntel,60.14675809,,,,,,,,,,,,,,,,,,masks/mask_001.jpg,,,,,,,,,,,,,,,,,,,,,,,,,,,,,,,,,,,,,,,,,,,0,1,1,0,1,,,,,,,,,,,,,,,,,,,,,,,,,,,,,,,,,,,,,,,,,,,,,,
424621,001,2022-11-21_01h53.17.989,Info_measure_main_exp,2022.2.2,MacIntel,60.14675809,,,,,,,,,,,,,,,,,,masks/mask_002.jpg,,,,,,,,,,,,,,,,,,,,,,,,,,,,,,,,,,,,,,,,,,,0,2,2,1,1,,,,,,,,,,,,,,,,,,,,,,,,,,,,,,,,,,,,,,,,,,,,,,
424621,001,2022-11-21_01h53.17.989,Info_measure_main_exp,2022.2.2,MacIntel,60.14675809,,,,,,,,,,,,,,,,,,masks/mask_003.jpg,,,,,,,,,,,,,,,,,,,,,,,,,,,,,,,,,,,,,,,,,,,0,3,3,2,1,,,,,,,,,,,,,,,,,,,,,,,,,,,,,,,,,,,,,,,,,,,,,,
424621,001,2022-11-21_01h53.17.989,Info_measure_main_exp,2022.2.2,MacIntel,60.14675809,,,,,,,,,,,,,,,,,,masks/mask_004.jpg,,,,,,,,,,,,,,,,,,,,,,,,,,,,,,,,,,,,,,,,,,,0,4,4,3,1,,,,,,,,,,,,,,,,,,,,,,,,,,,,,,,,,,,,,,,,,,,,,,
424621,001,2022-11-21_01h53.17.989,Info_measure_main_exp,2022.2.2,MacIntel,60.14675809,,,,,,,,,,,,,,,,,,masks/mask_002.jpg,,,,,,,,,,,,,,,,,,,,,,,,,,,,,,,,,,,,,,,,,,,,,,,,0,0,0,1,1,,,,,,,,,,,,,,,,,,,,,,,,,,,,,,,,,,,,,,,,,
424621,001,2022-11-21_01h53.17.989,Info_measure_main_exp,2022.2.2,MacIntel,60.14675809,,,,,,,,,,,,,,,,,,masks/mask_004.jpg,,,,,,,,,,,,,,,,,,,,,,,,,,,,,,,,,,,,,,,,,,,,,,,,0,1,1,3,1,,,,,,,,,,,,,,,,,,,,,,,,,,,,,,,,,,,,,,,,,
424621,001,2022-11-21_01h53.17.989,Info_measure_main_exp,2022.2.2,MacIntel,60.14675809,,,,,,,,,,,,,,,,,,masks/mask_005.jpg,,,,,,,,,,,,,,,,,,,,,,,,,,,,,,,,,,,,,,,,,,,,,,,,0,2,2,4,1,,,,,,,,,,,,,,,,,,,,,,,,,,,,,,,,,,,,,,,,,
424621,001,2022-11-21_01h53.17.989,Info_measure_main_exp,2022.2.2,MacIntel,60.14675809,,,,,,,,,,,,,,,,,,masks/mask_001.jpg,,,,,,,,,,,,,,,,,,,,,,,,,,,,,,,,,,,,,,,,,,,,,,,,0,3,3,0,1,,,,,,,,,,,,,,,,,,,,,,,,,,,,,,,,,,,,,,,,,
424621,001,2022-11-21_01h53.17.989,Info_measure_main_exp,2022.2.2,MacIntel,60.14675809,,,,,,,,,,,,,,,,,,masks/mask_003.jpg,,,,,,,,,,,,,,,,,,,,,,,,,,,,,,,,,,,,,,,,,,,,,,,,0,4,4,2,1,,,,,,,,,,,,,,,,,,,,,,,,,,,,,,,,,,,,,,,,,
424621,001,2022-11-21_01h53.17.989,Info_measure_main_exp,2022.2.2,MacIntel,60.14675809,,,,,,,,,,,,,,,,,,,,,,,,,,,,,,2,1.6784,1,,,,,,,,,,,,0,131,5,5,2154,2238,absent_patch/patch0002154.jpg,absent_patch/patch0002238.jpg,,,,,,,,,,,,,,,,,,,,-0.089868164,-0.017329102,1,0,0,response5disk,13,0.009682617,-0.000429688,1,0,0,center_square,0,12,12,21,1,,,,,,,,,,,,,,,,,,,,,,,
424621,001,2022-11-21_01h53.17.989,Info_measure_main_exp,2022.2.2,MacIntel,60.14675809,,,,,,,,,,,,,,,,,,masks/mask_001.jpg,,,,,,,,,,,,,,,,,,,,,,,,,,,,,,,,,,,,,,,,,,,0,0,0,0,1,,,,,,,,,,,,,,,,,,,,,,,,,,,,,,,,,,,,,,,,,,,,,,
424621,001,2022-11-21_01h53.17.989,Info_measure_main_exp,2022.2.2,MacIntel,60.14675809,,,,,,,,,,,,,,,,,,masks/mask_003.jpg,,,,,,,,,,,,,,,,,,,,,,,,,,,,,,,,,,,,,,,,,,,0,1,1,2,1,,,,,,,,,,,,,,,,,,,,,,,,,,,,,,,,,,,,,,,,,,,,,,
424621,001,2022-11-21_01h53.17.989,Info_measure_main_exp,2022.2.2,MacIntel,60.14675809,,,,,,,,,,,,,,,,,,masks/mask_005.jpg,,,,,,,,,,,,,,,,,,,,,,,,,,,,,,,,,,,,,,,,,,,0,2,2,4,1,,,,,,,,,,,,,,,,,,,,,,,,,,,,,,,,,,,,,,,,,,,,,,
424621,001,2022-11-21_01h53.17.989,Info_measure_main_exp,2022.2.2,MacIntel,60.14675809,,,,,,,,,,,,,,,,,,masks/mask_002.jpg,,,,,,,,,,,,,,,,,,,,,,,,,,,,,,,,,,,,,,,,,,,0,3,3,1,1,,,,,,,,,,,,,,,,,,,,,,,,,,,,,,,,,,,,,,,,,,,,,,
424621,001,2022-11-21_01h53.17.989,Info_measure_main_exp,2022.2.2,MacIntel,60.14675809,,,,,,,,,,,,,,,,,,masks/mask_004.jpg,,,,,,,,,,,,,,,,,,,,,,,,,,,,,,,,,,,,,,,,,,,0,4,4,3,1,,,,,,,,,,,,,,,,,,,,,,,,,,,,,,,,,,,,,,,,,,,,,,
424621,001,2022-11-21_01h53.17.989,Info_measure_main_exp,2022.2.2,MacIntel,60.14675809,,,,,,,,,,,,,,,,,,masks/mask_002.jpg,,,,,,,,,,,,,,,,,,,,,,,,,,,,,,,,,,,,,,,,,,,,,,,,0,0,0,1,1,,,,,,,,,,,,,,,,,,,,,,,,,,,,,,,,,,,,,,,,,
424621,001,2022-11-21_01h53.17.989,Info_measure_main_exp,2022.2.2,MacIntel,60.14675809,,,,,,,,,,,,,,,,,,masks/mask_005.jpg,,,,,,,,,,,,,,,,,,,,,,,,,,,,,,,,,,,,,,,,,,,,,,,,0,1,1,4,1,,,,,,,,,,,,,,,,,,,,,,,,,,,,,,,,,,,,,,,,,
424621,001,2022-11-21_01h53.17.989,Info_measure_main_exp,2022.2.2,MacIntel,60.14675809,,,,,,,,,,,,,,,,,,masks/mask_004.jpg,,,,,,,,,,,,,,,,,,,,,,,,,,,,,,,,,,,,,,,,,,,,,,,,0,2,2,3,1,,,,,,,,,,,,,,,,,,,,,,,,,,,,,,,,,,,,,,,,,
424621,001,2022-11-21_01h53.17.989,Info_measure_main_exp,2022.2.2,MacIntel,60.14675809,,,,,,,,,,,,,,,,,,masks/mask_001.jpg,,,,,,,,,,,,,,,,,,,,,,,,,,,,,,,,,,,,,,,,,,,,,,,,0,3,3,0,1,,,,,,,,,,,,,,,,,,,,,,,,,,,,,,,,,,,,,,,,,
424621,001,2022-11-21_01h53.17.989,Info_measure_main_exp,2022.2.2,MacIntel,60.14675809,,,,,,,,,,,,,,,,,,masks/mask_003.jpg,,,,,,,,,,,,,,,,,,,,,,,,,,,,,,,,,,,,,,,,,,,,,,,,0,4,4,2,1,,,,,,,,,,,,,,,,,,,,,,,,,,,,,,,,,,,,,,,,,
424621,001,2022-11-21_01h53.17.989,Info_measure_main_exp,2022.2.2,MacIntel,60.14675809,,,,,,,,,,,,,,,,,,,,,,,,,,,,,,4,1.1141,1,,,,,,,,,,,,0,131,5,5,1986,2274,absent_patch/patch0001986.jpg,absent_patch/patch0002274.jpg,,,,,,,,,,,,,,,,,,,,0.014750977,-0.060019531,1,0,0,response3disk,14,-0.000449219,0.00925293,1,0,0,center_square,0,13,13,7,1,,,,,,,,,,,,,,,,,,,,,,,
424621,001,2022-11-21_01h53.17.989,Info_measure_main_exp,2022.2.2,MacIntel,60.14675809,,,,,,,,,,,,,,,,,,masks/mask_004.jpg,,,,,,,,,,,,,,,,,,,,,,,,,,,,,,,,,,,,,,,,,,,0,0,0,3,1,,,,,,,,,,,,,,,,,,,,,,,,,,,,,,,,,,,,,,,,,,,,,,
424621,001,2022-11-21_01h53.17.989,Info_measure_main_exp,2022.2.2,MacIntel,60.14675809,,,,,,,,,,,,,,,,,,masks/mask_001.jpg,,,,,,,,,,,,,,,,,,,,,,,,,,,,,,,,,,,,,,,,,,,0,1,1,0,1,,,,,,,,,,,,,,,,,,,,,,,,,,,,,,,,,,,,,,,,,,,,,,
424621,001,2022-11-21_01h53.17.989,Info_measure_main_exp,2022.2.2,MacIntel,60.14675809,,,,,,,,,,,,,,,,,,masks/mask_002.jpg,,,,,,,,,,,,,,,,,,,,,,,,,,,,,,,,,,,,,,,,,,,0,2,2,1,1,,,,,,,,,,,,,,,,,,,,,,,,,,,,,,,,,,,,,,,,,,,,,,
424621,001,2022-11-21_01h53.17.989,Info_measure_main_exp,2022.2.2,MacIntel,60.14675809,,,,,,,,,,,,,,,,,,masks/mask_005.jpg,,,,,,,,,,,,,,,,,,,,,,,,,,,,,,,,,,,,,,,,,,,0,3,3,4,1,,,,,,,,,,,,,,,,,,,,,,,,,,,,,,,,,,,,,,,,,,,,,,
424621,001,2022-11-21_01h53.17.989,Info_measure_main_exp,2022.2.2,MacIntel,60.14675809,,,,,,,,,,,,,,,,,,masks/mask_003.jpg,,,,,,,,,,,,,,,,,,,,,,,,,,,,,,,,,,,,,,,,,,,0,4,4,2,1,,,,,,,,,,,,,,,,,,,,,,,,,,,,,,,,,,,,,,,,,,,,,,
424621,001,2022-11-21_01h53.17.989,Info_measure_main_exp,2022.2.2,MacIntel,60.14675809,,,,,,,,,,,,,,,,,,masks/mask_001.jpg,,,,,,,,,,,,,,,,,,,,,,,,,,,,,,,,,,,,,,,,,,,,,,,,0,0,0,0,1,,,,,,,,,,,,,,,,,,,,,,,,,,,,,,,,,,,,,,,,,
424621,001,2022-11-21_01h53.17.989,Info_measure_main_exp,2022.2.2,MacIntel,60.14675809,,,,,,,,,,,,,,,,,,masks/mask_002.jpg,,,,,,,,,,,,,,,,,,,,,,,,,,,,,,,,,,,,,,,,,,,,,,,,0,1,1,1,1,,,,,,,,,,,,,,,,,,,,,,,,,,,,,,,,,,,,,,,,,
424621,001,2022-11-21_01h53.17.989,Info_measure_main_exp,2022.2.2,MacIntel,60.14675809,,,,,,,,,,,,,,,,,,masks/mask_003.jpg,,,,,,,,,,,,,,,,,,,,,,,,,,,,,,,,,,,,,,,,,,,,,,,,0,2,2,2,1,,,,,,,,,,,,,,,,,,,,,,,,,,,,,,,,,,,,,,,,,
424621,001,2022-11-21_01h53.17.989,Info_measure_main_exp,2022.2.2,MacIntel,60.14675809,,,,,,,,,,,,,,,,,,masks/mask_005.jpg,,,,,,,,,,,,,,,,,,,,,,,,,,,,,,,,,,,,,,,,,,,,,,,,0,3,3,4,1,,,,,,,,,,,,,,,,,,,,,,,,,,,,,,,,,,,,,,,,,
424621,001,2022-11-21_01h53.17.989,Info_measure_main_exp,2022.2.2,MacIntel,60.14675809,,,,,,,,,,,,,,,,,,masks/mask_004.jpg,,,,,,,,,,,,,,,,,,,,,,,,,,,,,,,,,,,,,,,,,,,,,,,,0,4,4,3,1,,,,,,,,,,,,,,,,,,,,,,,,,,,,,,,,,,,,,,,,,
424621,001,2022-11-21_01h53.17.989,Info_measure_main_exp,2022.2.2,MacIntel,60.14675809,,,,,,,,,,,,,,,,,,,,,,,,,,,,,,7,0.6323,1,,,,,,,,,,,,0,131,5,5,2154,1974,absent_patch/patch0002154.jpg,absent_patch/patch0001974.jpg,,,,,,,,,,,,,,,,,,,,0.036616211,0.100117187,1,0,0,response1disk,15,0.002436523,0.001386719,1,0,0,center_square,0,14,14,82,1,,,,,,,,,,,,,,,,,,,,,,,
424621,001,2022-11-21_01h53.17.989,Info_measure_main_exp,2022.2.2,MacIntel,60.14675809,,,,,,,,,,,,,,,,,,masks/mask_001.jpg,,,,,,,,,,,,,,,,,,,,,,,,,,,,,,,,,,,,,,,,,,,0,0,0,0,1,,,,,,,,,,,,,,,,,,,,,,,,,,,,,,,,,,,,,,,,,,,,,,
424621,001,2022-11-21_01h53.17.989,Info_measure_main_exp,2022.2.2,MacIntel,60.14675809,,,,,,,,,,,,,,,,,,masks/mask_004.jpg,,,,,,,,,,,,,,,,,,,,,,,,,,,,,,,,,,,,,,,,,,,0,1,1,3,1,,,,,,,,,,,,,,,,,,,,,,,,,,,,,,,,,,,,,,,,,,,,,,
424621,001,2022-11-21_01h53.17.989,Info_measure_main_exp,2022.2.2,MacIntel,60.14675809,,,,,,,,,,,,,,,,,,masks/mask_002.jpg,,,,,,,,,,,,,,,,,,,,,,,,,,,,,,,,,,,,,,,,,,,0,2,2,1,1,,,,,,,,,,,,,,,,,,,,,,,,,,,,,,,,,,,,,,,,,,,,,,
424621,001,2022-11-21_01h53.17.989,Info_measure_main_exp,2022.2.2,MacIntel,60.14675809,,,,,,,,,,,,,,,,,,masks/mask_005.jpg,,,,,,,,,,,,,,,,,,,,,,,,,,,,,,,,,,,,,,,,,,,0,3,3,4,1,,,,,,,,,,,,,,,,,,,,,,,,,,,,,,,,,,,,,,,,,,,,,,
424621,001,2022-11-21_01h53.17.989,Info_measure_main_exp,2022.2.2,MacIntel,60.14675809,,,,,,,,,,,,,,,,,,masks/mask_003.jpg,,,,,,,,,,,,,,,,,,,,,,,,,,,,,,,,,,,,,,,,,,,0,4,4,2,1,,,,,,,,,,,,,,,,,,,,,,,,,,,,,,,,,,,,,,,,,,,,,,
424621,001,2022-11-21_01h53.17.989,Info_measure_main_exp,2022.2.2,MacIntel,60.14675809,,,,,,,,,,,,,,,,,,masks/mask_001.jpg,,,,,,,,,,,,,,,,,,,,,,,,,,,,,,,,,,,,,,,,,,,,,,,,0,0,0,0,1,,,,,,,,,,,,,,,,,,,,,,,,,,,,,,,,,,,,,,,,,
424621,001,2022-11-21_01h53.17.989,Info_measure_main_exp,2022.2.2,MacIntel,60.14675809,,,,,,,,,,,,,,,,,,masks/mask_003.jpg,,,,,,,,,,,,,,,,,,,,,,,,,,,,,,,,,,,,,,,,,,,,,,,,0,1,1,2,1,,,,,,,,,,,,,,,,,,,,,,,,,,,,,,,,,,,,,,,,,
424621,001,2022-11-21_01h53.17.989,Info_measure_main_exp,2022.2.2,MacIntel,60.14675809,,,,,,,,,,,,,,,,,,masks/mask_002.jpg,,,,,,,,,,,,,,,,,,,,,,,,,,,,,,,,,,,,,,,,,,,,,,,,0,2,2,1,1,,,,,,,,,,,,,,,,,,,,,,,,,,,,,,,,,,,,,,,,,
424621,001,2022-11-21_01h53.17.989,Info_measure_main_exp,2022.2.2,MacIntel,60.14675809,,,,,,,,,,,,,,,,,,masks/mask_004.jpg,,,,,,,,,,,,,,,,,,,,,,,,,,,,,,,,,,,,,,,,,,,,,,,,0,3,3,3,1,,,,,,,,,,,,,,,,,,,,,,,,,,,,,,,,,,,,,,,,,
424621,001,2022-11-21_01h53.17.989,Info_measure_main_exp,2022.2.2,MacIntel,60.14675809,,,,,,,,,,,,,,,,,,masks/mask_005.jpg,,,,,,,,,,,,,,,,,,,,,,,,,,,,,,,,,,,,,,,,,,,,,,,,0,4,4,4,1,,,,,,,,,,,,,,,,,,,,,,,,,,,,,,,,,,,,,,,,,
424621,001,2022-11-21_01h53.17.989,Info_measure_main_exp,2022.2.2,MacIntel,60.14675809,,,,,,,,,,,,,,,,,,,,,,,,,,,,,,6,1.6136,1,,,,,,,,,,,,0,131,5,5,1950,2214,absent_patch/patch0001950.jpg,absent_patch/patch0002214.jpg,,,,,,,,,,,,,,,,,,,,0.044760742,0.009667969,1,0,0,response1disk,16,0.003818359,-0.003833008,1,0,0,center_square,0,15,15,85,1,,,,,,,,,,,,,,,,,,,,,,,
424621,001,2022-11-21_01h53.17.989,Info_measure_main_exp,2022.2.2,MacIntel,60.14675809,,,,,,,,,,,,,,,,,,masks/mask_002.jpg,,,,,,,,,,,,,,,,,,,,,,,,,,,,,,,,,,,,,,,,,,,0,0,0,1,1,,,,,,,,,,,,,,,,,,,,,,,,,,,,,,,,,,,,,,,,,,,,,,
424621,001,2022-11-21_01h53.17.989,Info_measure_main_exp,2022.2.2,MacIntel,60.14675809,,,,,,,,,,,,,,,,,,masks/mask_004.jpg,,,,,,,,,,,,,,,,,,,,,,,,,,,,,,,,,,,,,,,,,,,0,1,1,3,1,,,,,,,,,,,,,,,,,,,,,,,,,,,,,,,,,,,,,,,,,,,,,,
424621,001,2022-11-21_01h53.17.989,Info_measure_main_exp,2022.2.2,MacIntel,60.14675809,,,,,,,,,,,,,,,,,,masks/mask_003.jpg,,,,,,,,,,,,,,,,,,,,,,,,,,,,,,,,,,,,,,,,,,,0,2,2,2,1,,,,,,,,,,,,,,,,,,,,,,,,,,,,,,,,,,,,,,,,,,,,,,
424621,001,2022-11-21_01h53.17.989,Info_measure_main_exp,2022.2.2,MacIntel,60.14675809,,,,,,,,,,,,,,,,,,masks/mask_001.jpg,,,,,,,,,,,,,,,,,,,,,,,,,,,,,,,,,,,,,,,,,,,0,3,3,0,1,,,,,,,,,,,,,,,,,,,,,,,,,,,,,,,,,,,,,,,,,,,,,,
424621,001,2022-11-21_01h53.17.989,Info_measure_main_exp,2022.2.2,MacIntel,60.14675809,,,,,,,,,,,,,,,,,,masks/mask_005.jpg,,,,,,,,,,,,,,,,,,,,,,,,,,,,,,,,,,,,,,,,,,,0,4,4,4,1,,,,,,,,,,,,,,,,,,,,,,,,,,,,,,,,,,,,,,,,,,,,,,
424621,001,2022-11-21_01h53.17.989,Info_measure_main_exp,2022.2.2,MacIntel,60.14675809,,,,,,,,,,,,,,,,,,masks/mask_001.jpg,,,,,,,,,,,,,,,,,,,,,,,,,,,,,,,,,,,,,,,,,,,,,,,,0,0,0,0,1,,,,,,,,,,,,,,,,,,,,,,,,,,,,,,,,,,,,,,,,,
424621,001,2022-11-21_01h53.17.989,Info_measure_main_exp,2022.2.2,MacIntel,60.14675809,,,,,,,,,,,,,,,,,,masks/mask_003.jpg,,,,,,,,,,,,,,,,,,,,,,,,,,,,,,,,,,,,,,,,,,,,,,,,0,1,1,2,1,,,,,,,,,,,,,,,,,,,,,,,,,,,,,,,,,,,,,,,,,
424621,001,2022-11-21_01h53.17.989,Info_measure_main_exp,2022.2.2,MacIntel,60.14675809,,,,,,,,,,,,,,,,,,masks/mask_005.jpg,,,,,,,,,,,,,,,,,,,,,,,,,,,,,,,,,,,,,,,,,,,,,,,,0,2,2,4,1,,,,,,,,,,,,,,,,,,,,,,,,,,,,,,,,,,,,,,,,,
424621,001,2022-11-21_01h53.17.989,Info_measure_main_exp,2022.2.2,MacIntel,60.14675809,,,,,,,,,,,,,,,,,,masks/mask_002.jpg,,,,,,,,,,,,,,,,,,,,,,,,,,,,,,,,,,,,,,,,,,,,,,,,0,3,3,1,1,,,,,,,,,,,,,,,,,,,,,,,,,,,,,,,,,,,,,,,,,
424621,001,2022-11-21_01h53.17.989,Info_measure_main_exp,2022.2.2,MacIntel,60.14675809,,,,,,,,,,,,,,,,,,masks/mask_004.jpg,,,,,,,,,,,,,,,,,,,,,,,,,,,,,,,,,,,,,,,,,,,,,,,,0,4,4,3,1,,,,,,,,,,,,,,,,,,,,,,,,,,,,,,,,,,,,,,,,,
424621,001,2022-11-21_01h53.17.989,Info_measure_main_exp,2022.2.2,MacIntel,60.14675809,,,,,,,,,,,,,,,,,,,,,,,,,,,,,,4,1.3793,1,,,,,,,,,,,,0,131,5,5,2298,2190,absent_patch/patch0002298.jpg,absent_patch/patch0002190.jpg,,,,,,,,,,,,,,,,,,,,0.006479492,-0.019799805,1,0,0,response3disk,17,0.004985352,-0.008686523,1,0,0,center_square,0,16,16,20,1,,,,,,,,,,,,,,,,,,,,,,,
424621,001,2022-11-21_01h53.17.989,Info_measure_main_exp,2022.2.2,MacIntel,60.14675809,,,,,,,,,,,,,,,,,,masks/mask_002.jpg,,,,,,,,,,,,,,,,,,,,,,,,,,,,,,,,,,,,,,,,,,,0,0,0,1,1,,,,,,,,,,,,,,,,,,,,,,,,,,,,,,,,,,,,,,,,,,,,,,
424621,001,2022-11-21_01h53.17.989,Info_measure_main_exp,2022.2.2,MacIntel,60.14675809,,,,,,,,,,,,,,,,,,masks/mask_001.jpg,,,,,,,,,,,,,,,,,,,,,,,,,,,,,,,,,,,,,,,,,,,0,1,1,0,1,,,,,,,,,,,,,,,,,,,,,,,,,,,,,,,,,,,,,,,,,,,,,,
424621,001,2022-11-21_01h53.17.989,Info_measure_main_exp,2022.2.2,MacIntel,60.14675809,,,,,,,,,,,,,,,,,,masks/mask_003.jpg,,,,,,,,,,,,,,,,,,,,,,,,,,,,,,,,,,,,,,,,,,,0,2,2,2,1,,,,,,,,,,,,,,,,,,,,,,,,,,,,,,,,,,,,,,,,,,,,,,
424621,001,2022-11-21_01h53.17.989,Info_measure_main_exp,2022.2.2,MacIntel,60.14675809,,,,,,,,,,,,,,,,,,masks/mask_005.jpg,,,,,,,,,,,,,,,,,,,,,,,,,,,,,,,,,,,,,,,,,,,0,3,3,4,1,,,,,,,,,,,,,,,,,,,,,,,,,,,,,,,,,,,,,,,,,,,,,,
424621,001,2022-11-21_01h53.17.989,Info_measure_main_exp,2022.2.2,MacIntel,60.14675809,,,,,,,,,,,,,,,,,,masks/mask_004.jpg,,,,,,,,,,,,,,,,,,,,,,,,,,,,,,,,,,,,,,,,,,,0,4,4,3,1,,,,,,,,,,,,,,,,,,,,,,,,,,,,,,,,,,,,,,,,,,,,,,
424621,001,2022-11-21_01h53.17.989,Info_measure_main_exp,2022.2.2,MacIntel,60.14675809,,,,,,,,,,,,,,,,,,masks/mask_004.jpg,,,,,,,,,,,,,,,,,,,,,,,,,,,,,,,,,,,,,,,,,,,,,,,,0,0,0,3,1,,,,,,,,,,,,,,,,,,,,,,,,,,,,,,,,,,,,,,,,,
424621,001,2022-11-21_01h53.17.989,Info_measure_main_exp,2022.2.2,MacIntel,60.14675809,,,,,,,,,,,,,,,,,,masks/mask_001.jpg,,,,,,,,,,,,,,,,,,,,,,,,,,,,,,,,,,,,,,,,,,,,,,,,0,1,1,0,1,,,,,,,,,,,,,,,,,,,,,,,,,,,,,,,,,,,,,,,,,
424621,001,2022-11-21_01h53.17.989,Info_measure_main_exp,2022.2.2,MacIntel,60.14675809,,,,,,,,,,,,,,,,,,masks/mask_005.jpg,,,,,,,,,,,,,,,,,,,,,,,,,,,,,,,,,,,,,,,,,,,,,,,,0,2,2,4,1,,,,,,,,,,,,,,,,,,,,,,,,,,,,,,,,,,,,,,,,,
424621,001,2022-11-21_01h53.17.989,Info_measure_main_exp,2022.2.2,MacIntel,60.14675809,,,,,,,,,,,,,,,,,,masks/mask_003.jpg,,,,,,,,,,,,,,,,,,,,,,,,,,,,,,,,,,,,,,,,,,,,,,,,0,3,3,2,1,,,,,,,,,,,,,,,,,,,,,,,,,,,,,,,,,,,,,,,,,
424621,001,2022-11-21_01h53.17.989,Info_measure_main_exp,2022.2.2,MacIntel,60.14675809,,,,,,,,,,,,,,,,,,masks/mask_002.jpg,,,,,,,,,,,,,,,,,,,,,,,,,,,,,,,,,,,,,,,,,,,,,,,,0,4,4,1,1,,,,,,,,,,,,,,,,,,,,,,,,,,,,,,,,,,,,,,,,,
424621,001,2022-11-21_01h53.17.989,Info_measure_main_exp,2022.2.2,MacIntel,60.14675809,,,,,,,,,,,,,,,,,,,,,,,,,,,,,,3,1.3141,1,,,,,,,,,,,,0,131,5,5,2274,2214,absent_patch/patch0002274.jpg,absent_patch/patch0002214.jpg,,,,,,,,,,,,,,,,,,,,-0.023989258,-0.029912109,1,0,0,response5disk,18,0.00543457,-0.001796875,1,0,0,center_square,0,17,17,11,1,,,,,,,,,,,,,,,,,,,,,,,
424621,001,2022-11-21_01h53.17.989,Info_measure_main_exp,2022.2.2,MacIntel,60.14675809,,,,,,,,,,,,,,,,,,masks/mask_001.jpg,,,,,,,,,,,,,,,,,,,,,,,,,,,,,,,,,,,,,,,,,,,0,0,0,0,1,,,,,,,,,,,,,,,,,,,,,,,,,,,,,,,,,,,,,,,,,,,,,,
424621,001,2022-11-21_01h53.17.989,Info_measure_main_exp,2022.2.2,MacIntel,60.14675809,,,,,,,,,,,,,,,,,,masks/mask_005.jpg,,,,,,,,,,,,,,,,,,,,,,,,,,,,,,,,,,,,,,,,,,,0,1,1,4,1,,,,,,,,,,,,,,,,,,,,,,,,,,,,,,,,,,,,,,,,,,,,,,
424621,001,2022-11-21_01h53.17.989,Info_measure_main_exp,2022.2.2,MacIntel,60.14675809,,,,,,,,,,,,,,,,,,masks/mask_003.jpg,,,,,,,,,,,,,,,,,,,,,,,,,,,,,,,,,,,,,,,,,,,0,2,2,2,1,,,,,,,,,,,,,,,,,,,,,,,,,,,,,,,,,,,,,,,,,,,,,,
424621,001,2022-11-21_01h53.17.989,Info_measure_main_exp,2022.2.2,MacIntel,60.14675809,,,,,,,,,,,,,,,,,,masks/mask_002.jpg,,,,,,,,,,,,,,,,,,,,,,,,,,,,,,,,,,,,,,,,,,,0,3,3,1,1,,,,,,,,,,,,,,,,,,,,,,,,,,,,,,,,,,,,,,,,,,,,,,
424621,001,2022-11-21_01h53.17.989,Info_measure_main_exp,2022.2.2,MacIntel,60.14675809,,,,,,,,,,,,,,,,,,masks/mask_004.jpg,,,,,,,,,,,,,,,,,,,,,,,,,,,,,,,,,,,,,,,,,,,0,4,4,3,1,,,,,,,,,,,,,,,,,,,,,,,,,,,,,,,,,,,,,,,,,,,,,,
424621,001,2022-11-21_01h53.17.989,Info_measure_main_exp,2022.2.2,MacIntel,60.14675809,,,,,,,,,,,,,,,,,,masks/mask_002.jpg,,,,,,,,,,,,,,,,,,,,,,,,,,,,,,,,,,,,,,,,,,,,,,,,0,0,0,1,1,,,,,,,,,,,,,,,,,,,,,,,,,,,,,,,,,,,,,,,,,
424621,001,2022-11-21_01h53.17.989,Info_measure_main_exp,2022.2.2,MacIntel,60.14675809,,,,,,,,,,,,,,,,,,masks/mask_005.jpg,,,,,,,,,,,,,,,,,,,,,,,,,,,,,,,,,,,,,,,,,,,,,,,,0,1,1,4,1,,,,,,,,,,,,,,,,,,,,,,,,,,,,,,,,,,,,,,,,,
424621,001,2022-11-21_01h53.17.989,Info_measure_main_exp,2022.2.2,MacIntel,60.14675809,,,,,,,,,,,,,,,,,,masks/mask_004.jpg,,,,,,,,,,,,,,,,,,,,,,,,,,,,,,,,,,,,,,,,,,,,,,,,0,2,2,3,1,,,,,,,,,,,,,,,,,,,,,,,,,,,,,,,,,,,,,,,,,
424621,001,2022-11-21_01h53.17.989,Info_measure_main_exp,2022.2.2,MacIntel,60.14675809,,,,,,,,,,,,,,,,,,masks/mask_001.jpg,,,,,,,,,,,,,,,,,,,,,,,,,,,,,,,,,,,,,,,,,,,,,,,,0,3,3,0,1,,,,,,,,,,,,,,,,,,,,,,,,,,,,,,,,,,,,,,,,,
424621,001,2022-11-21_01h53.17.989,Info_measure_main_exp,2022.2.2,MacIntel,60.14675809,,,,,,,,,,,,,,,,,,masks/mask_003.jpg,,,,,,,,,,,,,,,,,,,,,,,,,,,,,,,,,,,,,,,,,,,,,,,,0,4,4,2,1,,,,,,,,,,,,,,,,,,,,,,,,,,,,,,,,,,,,,,,,,
424621,001,2022-11-21_01h53.17.989,Info_measure_main_exp,2022.2.2,MacIntel,60.14675809,,,,,,,,,,,,,,,,,,,,,,,,,,,,,,6,1.5138,1,,,,,,,,,,,,0,131,5,5,2214,2178,absent_patch/patch0002214.jpg,absent_patch/patch0002178.jpg,,,,,,,,,,,,,,,,,,,,0.071074219,0.046118164,1,0,0,response1disk,19,0.010019531,0.01012207,1,0,0,center_square,0,18,18,62,1,,,,,,,,,,,,,,,,,,,,,,,
424621,001,2022-11-21_01h53.17.989,Info_measure_main_exp,2022.2.2,MacIntel,60.14675809,,,,,,,,,,,,,,,,,,masks/mask_003.jpg,,,,,,,,,,,,,,,,,,,,,,,,,,,,,,,,,,,,,,,,,,,0,0,0,2,1,,,,,,,,,,,,,,,,,,,,,,,,,,,,,,,,,,,,,,,,,,,,,,
424621,001,2022-11-21_01h53.17.989,Info_measure_main_exp,2022.2.2,MacIntel,60.14675809,,,,,,,,,,,,,,,,,,masks/mask_001.jpg,,,,,,,,,,,,,,,,,,,,,,,,,,,,,,,,,,,,,,,,,,,0,1,1,0,1,,,,,,,,,,,,,,,,,,,,,,,,,,,,,,,,,,,,,,,,,,,,,,
424621,001,2022-11-21_01h53.17.989,Info_measure_main_exp,2022.2.2,MacIntel,60.14675809,,,,,,,,,,,,,,,,,,masks/mask_002.jpg,,,,,,,,,,,,,,,,,,,,,,,,,,,,,,,,,,,,,,,,,,,0,2,2,1,1,,,,,,,,,,,,,,,,,,,,,,,,,,,,,,,,,,,,,,,,,,,,,,
424621,001,2022-11-21_01h53.17.989,Info_measure_main_exp,2022.2.2,MacIntel,60.14675809,,,,,,,,,,,,,,,,,,masks/mask_005.jpg,,,,,,,,,,,,,,,,,,,,,,,,,,,,,,,,,,,,,,,,,,,0,3,3,4,1,,,,,,,,,,,,,,,,,,,,,,,,,,,,,,,,,,,,,,,,,,,,,,
424621,001,2022-11-21_01h53.17.989,Info_measure_main_exp,2022.2.2,MacIntel,60.14675809,,,,,,,,,,,,,,,,,,masks/mask_004.jpg,,,,,,,,,,,,,,,,,,,,,,,,,,,,,,,,,,,,,,,,,,,0,4,4,3,1,,,,,,,,,,,,,,,,,,,,,,,,,,,,,,,,,,,,,,,,,,,,,,
424621,001,2022-11-21_01h53.17.989,Info_measure_main_exp,2022.2.2,MacIntel,60.14675809,,,,,,,,,,,,,,,,,,masks/mask_004.jpg,,,,,,,,,,,,,,,,,,,,,,,,,,,,,,,,,,,,,,,,,,,,,,,,0,0,0,3,1,,,,,,,,,,,,,,,,,,,,,,,,,,,,,,,,,,,,,,,,,
424621,001,2022-11-21_01h53.17.989,Info_measure_main_exp,2022.2.2,MacIntel,60.14675809,,,,,,,,,,,,,,,,,,masks/mask_005.jpg,,,,,,,,,,,,,,,,,,,,,,,,,,,,,,,,,,,,,,,,,,,,,,,,0,1,1,4,1,,,,,,,,,,,,,,,,,,,,,,,,,,,,,,,,,,,,,,,,,
424621,001,2022-11-21_01h53.17.989,Info_measure_main_exp,2022.2.2,MacIntel,60.14675809,,,,,,,,,,,,,,,,,,masks/mask_003.jpg,,,,,,,,,,,,,,,,,,,,,,,,,,,,,,,,,,,,,,,,,,,,,,,,0,2,2,2,1,,,,,,,,,,,,,,,,,,,,,,,,,,,,,,,,,,,,,,,,,
424621,001,2022-11-21_01h53.17.989,Info_measure_main_exp,2022.2.2,MacIntel,60.14675809,,,,,,,,,,,,,,,,,,masks/mask_002.jpg,,,,,,,,,,,,,,,,,,,,,,,,,,,,,,,,,,,,,,,,,,,,,,,,0,3,3,1,1,,,,,,,,,,,,,,,,,,,,,,,,,,,,,,,,,,,,,,,,,
424621,001,2022-11-21_01h53.17.989,Info_measure_main_exp,2022.2.2,MacIntel,60.14675809,,,,,,,,,,,,,,,,,,masks/mask_001.jpg,,,,,,,,,,,,,,,,,,,,,,,,,,,,,,,,,,,,,,,,,,,,,,,,0,4,4,0,1,,,,,,,,,,,,,,,,,,,,,,,,,,,,,,,,,,,,,,,,,
424621,001,2022-11-21_01h53.17.989,Info_measure_main_exp,2022.2.2,MacIntel,60.14675809,,,,,,,,,,,,,,,,,,,,,,,,,,,,,,4,4.9376,1,,,,,,,,,,,,0,131,5,5,2178,2154,absent_patch/patch0002178.jpg,absent_patch/patch0002154.jpg,,,,,,,,,,,,,,,,,,,,0.041806641,-0.078603516,1,0,0,response3disk,20,0.003125,0.006621094,1,0,0,center_square,0,19,19,63,1,,,,,,,,,,,,,,,,,,,,,,,
424621,001,2022-11-21_01h53.17.989,Info_measure_main_exp,2022.2.2,MacIntel,60.14675809,,,,,,,,,,,,,,,,,,masks/mask_001.jpg,,,,,,,,,,,,,,,,,,,,,,,,,,,,,,,,,,,,,,,,,,,0,0,0,0,1,,,,,,,,,,,,,,,,,,,,,,,,,,,,,,,,,,,,,,,,,,,,,,
424621,001,2022-11-21_01h53.17.989,Info_measure_main_exp,2022.2.2,MacIntel,60.14675809,,,,,,,,,,,,,,,,,,masks/mask_005.jpg,,,,,,,,,,,,,,,,,,,,,,,,,,,,,,,,,,,,,,,,,,,0,1,1,4,1,,,,,,,,,,,,,,,,,,,,,,,,,,,,,,,,,,,,,,,,,,,,,,
424621,001,2022-11-21_01h53.17.989,Info_measure_main_exp,2022.2.2,MacIntel,60.14675809,,,,,,,,,,,,,,,,,,masks/mask_004.jpg,,,,,,,,,,,,,,,,,,,,,,,,,,,,,,,,,,,,,,,,,,,0,2,2,3,1,,,,,,,,,,,,,,,,,,,,,,,,,,,,,,,,,,,,,,,,,,,,,,
424621,001,2022-11-21_01h53.17.989,Info_measure_main_exp,2022.2.2,MacIntel,60.14675809,,,,,,,,,,,,,,,,,,masks/mask_003.jpg,,,,,,,,,,,,,,,,,,,,,,,,,,,,,,,,,,,,,,,,,,,0,3,3,2,1,,,,,,,,,,,,,,,,,,,,,,,,,,,,,,,,,,,,,,,,,,,,,,
424621,001,2022-11-21_01h53.17.989,Info_measure_main_exp,2022.2.2,MacIntel,60.14675809,,,,,,,,,,,,,,,,,,masks/mask_002.jpg,,,,,,,,,,,,,,,,,,,,,,,,,,,,,,,,,,,,,,,,,,,0,4,4,1,1,,,,,,,,,,,,,,,,,,,,,,,,,,,,,,,,,,,,,,,,,,,,,,
424621,001,2022-11-21_01h53.17.989,Info_measure_main_exp,2022.2.2,MacIntel,60.14675809,,,,,,,,,,,,,,,,,,masks/mask_002.jpg,,,,,,,,,,,,,,,,,,,,,,,,,,,,,,,,,,,,,,,,,,,,,,,,0,0,0,1,1,,,,,,,,,,,,,,,,,,,,,,,,,,,,,,,,,,,,,,,,,
424621,001,2022-11-21_01h53.17.989,Info_measure_main_exp,2022.2.2,MacIntel,60.14675809,,,,,,,,,,,,,,,,,,masks/mask_003.jpg,,,,,,,,,,,,,,,,,,,,,,,,,,,,,,,,,,,,,,,,,,,,,,,,0,1,1,2,1,,,,,,,,,,,,,,,,,,,,,,,,,,,,,,,,,,,,,,,,,
424621,001,2022-11-21_01h53.17.989,Info_measure_main_exp,2022.2.2,MacIntel,60.14675809,,,,,,,,,,,,,,,,,,masks/mask_001.jpg,,,,,,,,,,,,,,,,,,,,,,,,,,,,,,,,,,,,,,,,,,,,,,,,0,2,2,0,1,,,,,,,,,,,,,,,,,,,,,,,,,,,,,,,,,,,,,,,,,
424621,001,2022-11-21_01h53.17.989,Info_measure_main_exp,2022.2.2,MacIntel,60.14675809,,,,,,,,,,,,,,,,,,masks/mask_005.jpg,,,,,,,,,,,,,,,,,,,,,,,,,,,,,,,,,,,,,,,,,,,,,,,,0,3,3,4,1,,,,,,,,,,,,,,,,,,,,,,,,,,,,,,,,,,,,,,,,,
424621,001,2022-11-21_01h53.17.989,Info_measure_main_exp,2022.2.2,MacIntel,60.14675809,,,,,,,,,,,,,,,,,,masks/mask_004.jpg,,,,,,,,,,,,,,,,,,,,,,,,,,,,,,,,,,,,,,,,,,,,,,,,0,4,4,3,1,,,,,,,,,,,,,,,,,,,,,,,,,,,,,,,,,,,,,,,,,
424621,001,2022-11-21_01h53.17.989,Info_measure_main_exp,2022.2.2,MacIntel,60.14675809,,,,,,,,,,,,,,,,,,,,,,,,,,,,,,5,1.3323,1,,,,,,,,,,,,1,131,5,5,2298,1,absent_patch/patch0002298.jpg,present_patch/cong_131_5_a.jpg,,,,,,,,,,,,,,,,,,,,0.056474609,-0.025737305,1,0,0,response3disk,21,-0.009492188,0.011362305,1,0,0,center_square,0,20,20,45,1,,,,,,,,,,,,,,,,,,,,,,,
424621,001,2022-11-21_01h53.17.989,Info_measure_main_exp,2022.2.2,MacIntel,60.14675809,,,,,,,,,,,,,,,,,,masks/mask_004.jpg,,,,,,,,,,,,,,,,,,,,,,,,,,,,,,,,,,,,,,,,,,,0,0,0,3,1,,,,,,,,,,,,,,,,,,,,,,,,,,,,,,,,,,,,,,,,,,,,,,
424621,001,2022-11-21_01h53.17.989,Info_measure_main_exp,2022.2.2,MacIntel,60.14675809,,,,,,,,,,,,,,,,,,masks/mask_005.jpg,,,,,,,,,,,,,,,,,,,,,,,,,,,,,,,,,,,,,,,,,,,0,1,1,4,1,,,,,,,,,,,,,,,,,,,,,,,,,,,,,,,,,,,,,,,,,,,,,,
424621,001,2022-11-21_01h53.17.989,Info_measure_main_exp,2022.2.2,MacIntel,60.14675809,,,,,,,,,,,,,,,,,,masks/mask_002.jpg,,,,,,,,,,,,,,,,,,,,,,,,,,,,,,,,,,,,,,,,,,,0,2,2,1,1,,,,,,,,,,,,,,,,,,,,,,,,,,,,,,,,,,,,,,,,,,,,,,
424621,001,2022-11-21_01h53.17.989,Info_measure_main_exp,2022.2.2,MacIntel,60.14675809,,,,,,,,,,,,,,,,,,masks/mask_003.jpg,,,,,,,,,,,,,,,,,,,,,,,,,,,,,,,,,,,,,,,,,,,0,3,3,2,1,,,,,,,,,,,,,,,,,,,,,,,,,,,,,,,,,,,,,,,,,,,,,,
424621,001,2022-11-21_01h53.17.989,Info_measure_main_exp,2022.2.2,MacIntel,60.14675809,,,,,,,,,,,,,,,,,,masks/mask_001.jpg,,,,,,,,,,,,,,,,,,,,,,,,,,,,,,,,,,,,,,,,,,,0,4,4,0,1,,,,,,,,,,,,,,,,,,,,,,,,,,,,,,,,,,,,,,,,,,,,,,
424621,001,2022-11-21_01h53.17.989,Info_measure_main_exp,2022.2.2,MacIntel,60.14675809,,,,,,,,,,,,,,,,,,masks/mask_004.jpg,,,,,,,,,,,,,,,,,,,,,,,,,,,,,,,,,,,,,,,,,,,,,,,,0,0,0,3,1,,,,,,,,,,,,,,,,,,,,,,,,,,,,,,,,,,,,,,,,,
424621,001,2022-11-21_01h53.17.989,Info_measure_main_exp,2022.2.2,MacIntel,60.14675809,,,,,,,,,,,,,,,,,,masks/mask_005.jpg,,,,,,,,,,,,,,,,,,,,,,,,,,,,,,,,,,,,,,,,,,,,,,,,0,1,1,4,1,,,,,,,,,,,,,,,,,,,,,,,,,,,,,,,,,,,,,,,,,
424621,001,2022-11-21_01h53.17.989,Info_measure_main_exp,2022.2.2,MacIntel,60.14675809,,,,,,,,,,,,,,,,,,masks/mask_001.jpg,,,,,,,,,,,,,,,,,,,,,,,,,,,,,,,,,,,,,,,,,,,,,,,,0,2,2,0,1,,,,,,,,,,,,,,,,,,,,,,,,,,,,,,,,,,,,,,,,,
424621,001,2022-11-21_01h53.17.989,Info_measure_main_exp,2022.2.2,MacIntel,60.14675809,,,,,,,,,,,,,,,,,,masks/mask_003.jpg,,,,,,,,,,,,,,,,,,,,,,,,,,,,,,,,,,,,,,,,,,,,,,,,0,3,3,2,1,,,,,,,,,,,,,,,,,,,,,,,,,,,,,,,,,,,,,,,,,
424621,001,2022-11-21_01h53.17.989,Info_measure_main_exp,2022.2.2,MacIntel,60.14675809,,,,,,,,,,,,,,,,,,masks/mask_002.jpg,,,,,,,,,,,,,,,,,,,,,,,,,,,,,,,,,,,,,,,,,,,,,,,,0,4,4,1,1,,,,,,,,,,,,,,,,,,,,,,,,,,,,,,,,,,,,,,,,,
424621,001,2022-11-21_01h53.17.989,Info_measure_main_exp,2022.2.2,MacIntel,60.14675809,,,,,,,,,,,,,,,,,,,,,,,,,,,,,,5,4.706,1,,,,,,,,,,,,0,131,5,5,2250,2142,absent_patch/patch0002250.jpg,absent_patch/patch0002142.jpg,,,,,,,,,,,,,,,,,,,,0.097890625,-0.05465332,1,0,0,response3disk,22,-0.003779297,-0.011977539,1,0,0,center_square,0,21,21,71,1,,,,,,,,,,,,,,,,,,,,,,,
424621,001,2022-11-21_01h53.17.989,Info_measure_main_exp,2022.2.2,MacIntel,60.14675809,,,,,,,,,,,,,,,,,,masks/mask_005.jpg,,,,,,,,,,,,,,,,,,,,,,,,,,,,,,,,,,,,,,,,,,,0,0,0,4,1,,,,,,,,,,,,,,,,,,,,,,,,,,,,,,,,,,,,,,,,,,,,,,
424621,001,2022-11-21_01h53.17.989,Info_measure_main_exp,2022.2.2,MacIntel,60.14675809,,,,,,,,,,,,,,,,,,masks/mask_001.jpg,,,,,,,,,,,,,,,,,,,,,,,,,,,,,,,,,,,,,,,,,,,0,1,1,0,1,,,,,,,,,,,,,,,,,,,,,,,,,,,,,,,,,,,,,,,,,,,,,,
424621,001,2022-11-21_01h53.17.989,Info_measure_main_exp,2022.2.2,MacIntel,60.14675809,,,,,,,,,,,,,,,,,,masks/mask_003.jpg,,,,,,,,,,,,,,,,,,,,,,,,,,,,,,,,,,,,,,,,,,,0,2,2,2,1,,,,,,,,,,,,,,,,,,,,,,,,,,,,,,,,,,,,,,,,,,,,,,
424621,001,2022-11-21_01h53.17.989,Info_measure_main_exp,2022.2.2,MacIntel,60.14675809,,,,,,,,,,,,,,,,,,masks/mask_002.jpg,,,,,,,,,,,,,,,,,,,,,,,,,,,,,,,,,,,,,,,,,,,0,3,3,1,1,,,,,,,,,,,,,,,,,,,,,,,,,,,,,,,,,,,,,,,,,,,,,,
424621,001,2022-11-21_01h53.17.989,Info_measure_main_exp,2022.2.2,MacIntel,60.14675809,,,,,,,,,,,,,,,,,,masks/mask_004.jpg,,,,,,,,,,,,,,,,,,,,,,,,,,,,,,,,,,,,,,,,,,,0,4,4,3,1,,,,,,,,,,,,,,,,,,,,,,,,,,,,,,,,,,,,,,,,,,,,,,
424621,001,2022-11-21_01h53.17.989,Info_measure_main_exp,2022.2.2,MacIntel,60.14675809,,,,,,,,,,,,,,,,,,masks/mask_005.jpg,,,,,,,,,,,,,,,,,,,,,,,,,,,,,,,,,,,,,,,,,,,,,,,,0,0,0,4,1,,,,,,,,,,,,,,,,,,,,,,,,,,,,,,,,,,,,,,,,,
424621,001,2022-11-21_01h53.17.989,Info_measure_main_exp,2022.2.2,MacIntel,60.14675809,,,,,,,,,,,,,,,,,,masks/mask_003.jpg,,,,,,,,,,,,,,,,,,,,,,,,,,,,,,,,,,,,,,,,,,,,,,,,0,1,1,2,1,,,,,,,,,,,,,,,,,,,,,,,,,,,,,,,,,,,,,,,,,
424621,001,2022-11-21_01h53.17.989,Info_measure_main_exp,2022.2.2,MacIntel,60.14675809,,,,,,,,,,,,,,,,,,masks/mask_004.jpg,,,,,,,,,,,,,,,,,,,,,,,,,,,,,,,,,,,,,,,,,,,,,,,,0,2,2,3,1,,,,,,,,,,,,,,,,,,,,,,,,,,,,,,,,,,,,,,,,,
424621,001,2022-11-21_01h53.17.989,Info_measure_main_exp,2022.2.2,MacIntel,60.14675809,,,,,,,,,,,,,,,,,,masks/mask_002.jpg,,,,,,,,,,,,,,,,,,,,,,,,,,,,,,,,,,,,,,,,,,,,,,,,0,3,3,1,1,,,,,,,,,,,,,,,,,,,,,,,,,,,,,,,,,,,,,,,,,
424621,001,2022-11-21_01h53.17.989,Info_measure_main_exp,2022.2.2,MacIntel,60.14675809,,,,,,,,,,,,,,,,,,masks/mask_001.jpg,,,,,,,,,,,,,,,,,,,,,,,,,,,,,,,,,,,,,,,,,,,,,,,,0,4,4,0,1,,,,,,,,,,,,,,,,,,,,,,,,,,,,,,,,,,,,,,,,,
424621,001,2022-11-21_01h53.17.989,Info_measure_main_exp,2022.2.2,MacIntel,60.14675809,,,,,,,,,,,,,,,,,,,,,,,,,,,,,,3,0.7974,1,,,,,,,,,,,,0,131,5,5,2274,2142,absent_patch/patch0002274.jpg,absent_patch/patch0002142.jpg,,,,,,,,,,,,,,,,,,,,-0.006582031,-0.057597656,1,0,0,response5disk,23,0.005483398,0.001782227,1,0,0,center_square,0,22,22,75,1,,,,,,,,,,,,,,,,,,,,,,,
424621,001,2022-11-21_01h53.17.989,Info_measure_main_exp,2022.2.2,MacIntel,60.14675809,,,,,,,,,,,,,,,,,,masks/mask_004.jpg,,,,,,,,,,,,,,,,,,,,,,,,,,,,,,,,,,,,,,,,,,,0,0,0,3,1,,,,,,,,,,,,,,,,,,,,,,,,,,,,,,,,,,,,,,,,,,,,,,
424621,001,2022-11-21_01h53.17.989,Info_measure_main_exp,2022.2.2,MacIntel,60.14675809,,,,,,,,,,,,,,,,,,masks/mask_003.jpg,,,,,,,,,,,,,,,,,,,,,,,,,,,,,,,,,,,,,,,,,,,0,1,1,2,1,,,,,,,,,,,,,,,,,,,,,,,,,,,,,,,,,,,,,,,,,,,,,,
424621,001,2022-11-21_01h53.17.989,Info_measure_main_exp,2022.2.2,MacIntel,60.14675809,,,,,,,,,,,,,,,,,,masks/mask_005.jpg,,,,,,,,,,,,,,,,,,,,,,,,,,,,,,,,,,,,,,,,,,,0,2,2,4,1,,,,,,,,,,,,,,,,,,,,,,,,,,,,,,,,,,,,,,,,,,,,,,
424621,001,2022-11-21_01h53.17.989,Info_measure_main_exp,2022.2.2,MacIntel,60.14675809,,,,,,,,,,,,,,,,,,masks/mask_001.jpg,,,,,,,,,,,,,,,,,,,,,,,,,,,,,,,,,,,,,,,,,,,0,3,3,0,1,,,,,,,,,,,,,,,,,,,,,,,,,,,,,,,,,,,,,,,,,,,,,,
424621,001,2022-11-21_01h53.17.989,Info_measure_main_exp,2022.2.2,MacIntel,60.14675809,,,,,,,,,,,,,,,,,,masks/mask_002.jpg,,,,,,,,,,,,,,,,,,,,,,,,,,,,,,,,,,,,,,,,,,,0,4,4,1,1,,,,,,,,,,,,,,,,,,,,,,,,,,,,,,,,,,,,,,,,,,,,,,
424621,001,2022-11-21_01h53.17.989,Info_measure_main_exp,2022.2.2,MacIntel,60.14675809,,,,,,,,,,,,,,,,,,masks/mask_001.jpg,,,,,,,,,,,,,,,,,,,,,,,,,,,,,,,,,,,,,,,,,,,,,,,,0,0,0,0,1,,,,,,,,,,,,,,,,,,,,,,,,,,,,,,,,,,,,,,,,,
424621,001,2022-11-21_01h53.17.989,Info_measure_main_exp,2022.2.2,MacIntel,60.14675809,,,,,,,,,,,,,,,,,,masks/mask_005.jpg,,,,,,,,,,,,,,,,,,,,,,,,,,,,,,,,,,,,,,,,,,,,,,,,0,1,1,4,1,,,,,,,,,,,,,,,,,,,,,,,,,,,,,,,,,,,,,,,,,
424621,001,2022-11-21_01h53.17.989,Info_measure_main_exp,2022.2.2,MacIntel,60.14675809,,,,,,,,,,,,,,,,,,masks/mask_003.jpg,,,,,,,,,,,,,,,,,,,,,,,,,,,,,,,,,,,,,,,,,,,,,,,,0,2,2,2,1,,,,,,,,,,,,,,,,,,,,,,,,,,,,,,,,,,,,,,,,,
424621,001,2022-11-21_01h53.17.989,Info_measure_main_exp,2022.2.2,MacIntel,60.14675809,,,,,,,,,,,,,,,,,,masks/mask_004.jpg,,,,,,,,,,,,,,,,,,,,,,,,,,,,,,,,,,,,,,,,,,,,,,,,0,3,3,3,1,,,,,,,,,,,,,,,,,,,,,,,,,,,,,,,,,,,,,,,,,
424621,001,2022-11-21_01h53.17.989,Info_measure_main_exp,2022.2.2,MacIntel,60.14675809,,,,,,,,,,,,,,,,,,masks/mask_002.jpg,,,,,,,,,,,,,,,,,,,,,,,,,,,,,,,,,,,,,,,,,,,,,,,,0,4,4,1,1,,,,,,,,,,,,,,,,,,,,,,,,,,,,,,,,,,,,,,,,,
424621,001,2022-11-21_01h53.17.989,Info_measure_main_exp,2022.2.2,MacIntel,60.14675809,,,,,,,,,,,,,,,,,,,,,,,,,,,,,,1,0.699,1,,,,,,,,,,,,1,131,5,5,1,2154,present_patch/cong_131_5_a.jpg,absent_patch/patch0002154.jpg,,,,,,,,,,,,,,,,,,,,-0.103095703,0.029824219,1,0,0,response7disk,24,0.004995117,0.003515625,1,0,0,center_square,0,23,23,87,1,,,,,,,,,,,,,,,,,,,,,,,
424621,001,2022-11-21_01h53.17.989,Info_measure_main_exp,2022.2.2,MacIntel,60.14675809,,,,,,,,,,,,,,,,,,masks/mask_002.jpg,,,,,,,,,,,,,,,,,,,,,,,,,,,,,,,,,,,,,,,,,,,0,0,0,1,1,,,,,,,,,,,,,,,,,,,,,,,,,,,,,,,,,,,,,,,,,,,,,,
424621,001,2022-11-21_01h53.17.989,Info_measure_main_exp,2022.2.2,MacIntel,60.14675809,,,,,,,,,,,,,,,,,,masks/mask_003.jpg,,,,,,,,,,,,,,,,,,,,,,,,,,,,,,,,,,,,,,,,,,,0,1,1,2,1,,,,,,,,,,,,,,,,,,,,,,,,,,,,,,,,,,,,,,,,,,,,,,
424621,001,2022-11-21_01h53.17.989,Info_measure_main_exp,2022.2.2,MacIntel,60.14675809,,,,,,,,,,,,,,,,,,masks/mask_004.jpg,,,,,,,,,,,,,,,,,,,,,,,,,,,,,,,,,,,,,,,,,,,0,2,2,3,1,,,,,,,,,,,,,,,,,,,,,,,,,,,,,,,,,,,,,,,,,,,,,,
424621,001,2022-11-21_01h53.17.989,Info_measure_main_exp,2022.2.2,MacIntel,60.14675809,,,,,,,,,,,,,,,,,,masks/mask_001.jpg,,,,,,,,,,,,,,,,,,,,,,,,,,,,,,,,,,,,,,,,,,,0,3,3,0,1,,,,,,,,,,,,,,,,,,,,,,,,,,,,,,,,,,,,,,,,,,,,,,
424621,001,2022-11-21_01h53.17.989,Info_measure_main_exp,2022.2.2,MacIntel,60.14675809,,,,,,,,,,,,,,,,,,masks/mask_005.jpg,,,,,,,,,,,,,,,,,,,,,,,,,,,,,,,,,,,,,,,,,,,0,4,4,4,1,,,,,,,,,,,,,,,,,,,,,,,,,,,,,,,,,,,,,,,,,,,,,,
424621,001,2022-11-21_01h53.17.989,Info_measure_main_exp,2022.2.2,MacIntel,60.14675809,,,,,,,,,,,,,,,,,,masks/mask_004.jpg,,,,,,,,,,,,,,,,,,,,,,,,,,,,,,,,,,,,,,,,,,,,,,,,0,0,0,3,1,,,,,,,,,,,,,,,,,,,,,,,,,,,,,,,,,,,,,,,,,
424621,001,2022-11-21_01h53.17.989,Info_measure_main_exp,2022.2.2,MacIntel,60.14675809,,,,,,,,,,,,,,,,,,masks/mask_002.jpg,,,,,,,,,,,,,,,,,,,,,,,,,,,,,,,,,,,,,,,,,,,,,,,,0,1,1,1,1,,,,,,,,,,,,,,,,,,,,,,,,,,,,,,,,,,,,,,,,,
424621,001,2022-11-21_01h53.17.989,Info_measure_main_exp,2022.2.2,MacIntel,60.14675809,,,,,,,,,,,,,,,,,,masks/mask_001.jpg,,,,,,,,,,,,,,,,,,,,,,,,,,,,,,,,,,,,,,,,,,,,,,,,0,2,2,0,1,,,,,,,,,,,,,,,,,,,,,,,,,,,,,,,,,,,,,,,,,
424621,001,2022-11-21_01h53.17.989,Info_measure_main_exp,2022.2.2,MacIntel,60.14675809,,,,,,,,,,,,,,,,,,masks/mask_005.jpg,,,,,,,,,,,,,,,,,,,,,,,,,,,,,,,,,,,,,,,,,,,,,,,,0,3,3,4,1,,,,,,,,,,,,,,,,,,,,,,,,,,,,,,,,,,,,,,,,,
424621,001,2022-11-21_01h53.17.989,Info_measure_main_exp,2022.2.2,MacIntel,60.14675809,,,,,,,,,,,,,,,,,,masks/mask_003.jpg,,,,,,,,,,,,,,,,,,,,,,,,,,,,,,,,,,,,,,,,,,,,,,,,0,4,4,2,1,,,,,,,,,,,,,,,,,,,,,,,,,,,,,,,,,,,,,,,,,
424621,001,2022-11-21_01h53.17.989,Info_measure_main_exp,2022.2.2,MacIntel,60.14675809,,,,,,,,,,,,,,,,,,,,,,,,,,,,,,4,1.1718,1,,,,,,,,,,,,0,131,5,5,2142,2238,absent_patch/patch0002142.jpg,absent_patch/patch0002238.jpg,,,,,,,,,,,,,,,,,,,,0.018037109,-0.050634766,1,0,0,response3disk,25,0.002099609,0.001015625,1,0,0,center_square,0,24,24,101,1,,,,,,,,,,,,,,,,,,,,,,,
424621,001,2022-11-21_01h53.17.989,Info_measure_main_exp,2022.2.2,MacIntel,60.14675809,,,,,,,,,,,,,,,,,,masks/mask_001.jpg,,,,,,,,,,,,,,,,,,,,,,,,,,,,,,,,,,,,,,,,,,,0,0,0,0,1,,,,,,,,,,,,,,,,,,,,,,,,,,,,,,,,,,,,,,,,,,,,,,
424621,001,2022-11-21_01h53.17.989,Info_measure_main_exp,2022.2.2,MacIntel,60.14675809,,,,,,,,,,,,,,,,,,masks/mask_004.jpg,,,,,,,,,,,,,,,,,,,,,,,,,,,,,,,,,,,,,,,,,,,0,1,1,3,1,,,,,,,,,,,,,,,,,,,,,,,,,,,,,,,,,,,,,,,,,,,,,,
424621,001,2022-11-21_01h53.17.989,Info_measure_main_exp,2022.2.2,MacIntel,60.14675809,,,,,,,,,,,,,,,,,,masks/mask_005.jpg,,,,,,,,,,,,,,,,,,,,,,,,,,,,,,,,,,,,,,,,,,,0,2,2,4,1,,,,,,,,,,,,,,,,,,,,,,,,,,,,,,,,,,,,,,,,,,,,,,
424621,001,2022-11-21_01h53.17.989,Info_measure_main_exp,2022.2.2,MacIntel,60.14675809,,,,,,,,,,,,,,,,,,masks/mask_003.jpg,,,,,,,,,,,,,,,,,,,,,,,,,,,,,,,,,,,,,,,,,,,0,3,3,2,1,,,,,,,,,,,,,,,,,,,,,,,,,,,,,,,,,,,,,,,,,,,,,,
424621,001,2022-11-21_01h53.17.989,Info_measure_main_exp,2022.2.2,MacIntel,60.14675809,,,,,,,,,,,,,,,,,,masks/mask_002.jpg,,,,,,,,,,,,,,,,,,,,,,,,,,,,,,,,,,,,,,,,,,,0,4,4,1,1,,,,,,,,,,,,,,,,,,,,,,,,,,,,,,,,,,,,,,,,,,,,,,
424621,001,2022-11-21_01h53.17.989,Info_measure_main_exp,2022.2.2,MacIntel,60.14675809,,,,,,,,,,,,,,,,,,masks/mask_001.jpg,,,,,,,,,,,,,,,,,,,,,,,,,,,,,,,,,,,,,,,,,,,,,,,,0,0,0,0,1,,,,,,,,,,,,,,,,,,,,,,,,,,,,,,,,,,,,,,,,,
424621,001,2022-11-21_01h53.17.989,Info_measure_main_exp,2022.2.2,MacIntel,60.14675809,,,,,,,,,,,,,,,,,,masks/mask_003.jpg,,,,,,,,,,,,,,,,,,,,,,,,,,,,,,,,,,,,,,,,,,,,,,,,0,1,1,2,1,,,,,,,,,,,,,,,,,,,,,,,,,,,,,,,,,,,,,,,,,
424621,001,2022-11-21_01h53.17.989,Info_measure_main_exp,2022.2.2,MacIntel,60.14675809,,,,,,,,,,,,,,,,,,masks/mask_005.jpg,,,,,,,,,,,,,,,,,,,,,,,,,,,,,,,,,,,,,,,,,,,,,,,,0,2,2,4,1,,,,,,,,,,,,,,,,,,,,,,,,,,,,,,,,,,,,,,,,,
424621,001,2022-11-21_01h53.17.989,Info_measure_main_exp,2022.2.2,MacIntel,60.14675809,,,,,,,,,,,,,,,,,,masks/mask_002.jpg,,,,,,,,,,,,,,,,,,,,,,,,,,,,,,,,,,,,,,,,,,,,,,,,0,3,3,1,1,,,,,,,,,,,,,,,,,,,,,,,,,,,,,,,,,,,,,,,,,
424621,001,2022-11-21_01h53.17.989,Info_measure_main_exp,2022.2.2,MacIntel,60.14675809,,,,,,,,,,,,,,,,,,masks/mask_004.jpg,,,,,,,,,,,,,,,,,,,,,,,,,,,,,,,,,,,,,,,,,,,,,,,,0,4,4,3,1,,,,,,,,,,,,,,,,,,,,,,,,,,,,,,,,,,,,,,,,,
424621,001,2022-11-21_01h53.17.989,Info_measure_main_exp,2022.2.2,MacIntel,60.14675809,,,,,,,,,,,,,,,,,,,,,,,,,,,,,,5,1.9457,1,,,,,,,,,,,,0,131,5,5,2082,2154,absent_patch/patch0002082.jpg,absent_patch/patch0002154.jpg,,,,,,,,,,,,,,,,,,,,0.019418945,-0.011831055,1,0,0,response3disk,26,0.001689453,0.001235352,1,0,0,center_square,0,25,25,33,1,,,,,,,,,,,,,,,,,,,,,,,
424621,001,2022-11-21_01h53.17.989,Info_measure_main_exp,2022.2.2,MacIntel,60.14675809,,,,,,,,,,,,,,,,,,masks/mask_002.jpg,,,,,,,,,,,,,,,,,,,,,,,,,,,,,,,,,,,,,,,,,,,0,0,0,1,1,,,,,,,,,,,,,,,,,,,,,,,,,,,,,,,,,,,,,,,,,,,,,,
424621,001,2022-11-21_01h53.17.989,Info_measure_main_exp,2022.2.2,MacIntel,60.14675809,,,,,,,,,,,,,,,,,,masks/mask_004.jpg,,,,,,,,,,,,,,,,,,,,,,,,,,,,,,,,,,,,,,,,,,,0,1,1,3,1,,,,,,,,,,,,,,,,,,,,,,,,,,,,,,,,,,,,,,,,,,,,,,
424621,001,2022-11-21_01h53.17.989,Info_measure_main_exp,2022.2.2,MacIntel,60.14675809,,,,,,,,,,,,,,,,,,masks/mask_005.jpg,,,,,,,,,,,,,,,,,,,,,,,,,,,,,,,,,,,,,,,,,,,0,2,2,4,1,,,,,,,,,,,,,,,,,,,,,,,,,,,,,,,,,,,,,,,,,,,,,,
424621,001,2022-11-21_01h53.17.989,Info_measure_main_exp,2022.2.2,MacIntel,60.14675809,,,,,,,,,,,,,,,,,,masks/mask_001.jpg,,,,,,,,,,,,,,,,,,,,,,,,,,,,,,,,,,,,,,,,,,,0,3,3,0,1,,,,,,,,,,,,,,,,,,,,,,,,,,,,,,,,,,,,,,,,,,,,,,
424621,001,2022-11-21_01h53.17.989,Info_measure_main_exp,2022.2.2,MacIntel,60.14675809,,,,,,,,,,,,,,,,,,masks/mask_003.jpg,,,,,,,,,,,,,,,,,,,,,,,,,,,,,,,,,,,,,,,,,,,0,4,4,2,1,,,,,,,,,,,,,,,,,,,,,,,,,,,,,,,,,,,,,,,,,,,,,,
424621,001,2022-11-21_01h53.17.989,Info_measure_main_exp,2022.2.2,MacIntel,60.14675809,,,,,,,,,,,,,,,,,,masks/mask_003.jpg,,,,,,,,,,,,,,,,,,,,,,,,,,,,,,,,,,,,,,,,,,,,,,,,0,0,0,2,1,,,,,,,,,,,,,,,,,,,,,,,,,,,,,,,,,,,,,,,,,
424621,001,2022-11-21_01h53.17.989,Info_measure_main_exp,2022.2.2,MacIntel,60.14675809,,,,,,,,,,,,,,,,,,masks/mask_001.jpg,,,,,,,,,,,,,,,,,,,,,,,,,,,,,,,,,,,,,,,,,,,,,,,,0,1,1,0,1,,,,,,,,,,,,,,,,,,,,,,,,,,,,,,,,,,,,,,,,,
424621,001,2022-11-21_01h53.17.989,Info_measure_main_exp,2022.2.2,MacIntel,60.14675809,,,,,,,,,,,,,,,,,,masks/mask_004.jpg,,,,,,,,,,,,,,,,,,,,,,,,,,,,,,,,,,,,,,,,,,,,,,,,0,2,2,3,1,,,,,,,,,,,,,,,,,,,,,,,,,,,,,,,,,,,,,,,,,
424621,001,2022-11-21_01h53.17.989,Info_measure_main_exp,2022.2.2,MacIntel,60.14675809,,,,,,,,,,,,,,,,,,masks/mask_002.jpg,,,,,,,,,,,,,,,,,,,,,,,,,,,,,,,,,,,,,,,,,,,,,,,,0,3,3,1,1,,,,,,,,,,,,,,,,,,,,,,,,,,,,,,,,,,,,,,,,,
424621,001,2022-11-21_01h53.17.989,Info_measure_main_exp,2022.2.2,MacIntel,60.14675809,,,,,,,,,,,,,,,,,,masks/mask_005.jpg,,,,,,,,,,,,,,,,,,,,,,,,,,,,,,,,,,,,,,,,,,,,,,,,0,4,4,4,1,,,,,,,,,,,,,,,,,,,,,,,,,,,,,,,,,,,,,,,,,
424621,001,2022-11-21_01h53.17.989,Info_measure_main_exp,2022.2.2,MacIntel,60.14675809,,,,,,,,,,,,,,,,,,,,,,,,,,,,,,6,1.2818,1,,,,,,,,,,,,0,131,5,5,2178,2166,absent_patch/patch0002178.jpg,absent_patch/patch0002166.jpg,,,,,,,,,,,,,,,,,,,,0.024296875,0.009121094,1,0,0,response1disk,27,-0.000078125,0.00293457,1,0,0,center_square,0,26,26,72,1,,,,,,,,,,,,,,,,,,,,,,,
424621,001,2022-11-21_01h53.17.989,Info_measure_main_exp,2022.2.2,MacIntel,60.14675809,,,,,,,,,,,,,,,,,,masks/mask_004.jpg,,,,,,,,,,,,,,,,,,,,,,,,,,,,,,,,,,,,,,,,,,,0,0,0,3,1,,,,,,,,,,,,,,,,,,,,,,,,,,,,,,,,,,,,,,,,,,,,,,
424621,001,2022-11-21_01h53.17.989,Info_measure_main_exp,2022.2.2,MacIntel,60.14675809,,,,,,,,,,,,,,,,,,masks/mask_001.jpg,,,,,,,,,,,,,,,,,,,,,,,,,,,,,,,,,,,,,,,,,,,0,1,1,0,1,,,,,,,,,,,,,,,,,,,,,,,,,,,,,,,,,,,,,,,,,,,,,,
424621,001,2022-11-21_01h53.17.989,Info_measure_main_exp,2022.2.2,MacIntel,60.14675809,,,,,,,,,,,,,,,,,,masks/mask_003.jpg,,,,,,,,,,,,,,,,,,,,,,,,,,,,,,,,,,,,,,,,,,,0,2,2,2,1,,,,,,,,,,,,,,,,,,,,,,,,,,,,,,,,,,,,,,,,,,,,,,
424621,001,2022-11-21_01h53.17.989,Info_measure_main_exp,2022.2.2,MacIntel,60.14675809,,,,,,,,,,,,,,,,,,masks/mask_005.jpg,,,,,,,,,,,,,,,,,,,,,,,,,,,,,,,,,,,,,,,,,,,0,3,3,4,1,,,,,,,,,,,,,,,,,,,,,,,,,,,,,,,,,,,,,,,,,,,,,,
424621,001,2022-11-21_01h53.17.989,Info_measure_main_exp,2022.2.2,MacIntel,60.14675809,,,,,,,,,,,,,,,,,,masks/mask_002.jpg,,,,,,,,,,,,,,,,,,,,,,,,,,,,,,,,,,,,,,,,,,,0,4,4,1,1,,,,,,,,,,,,,,,,,,,,,,,,,,,,,,,,,,,,,,,,,,,,,,
424621,001,2022-11-21_01h53.17.989,Info_measure_main_exp,2022.2.2,MacIntel,60.14675809,,,,,,,,,,,,,,,,,,masks/mask_002.jpg,,,,,,,,,,,,,,,,,,,,,,,,,,,,,,,,,,,,,,,,,,,,,,,,0,0,0,1,1,,,,,,,,,,,,,,,,,,,,,,,,,,,,,,,,,,,,,,,,,
424621,001,2022-11-21_01h53.17.989,Info_measure_main_exp,2022.2.2,MacIntel,60.14675809,,,,,,,,,,,,,,,,,,masks/mask_005.jpg,,,,,,,,,,,,,,,,,,,,,,,,,,,,,,,,,,,,,,,,,,,,,,,,0,1,1,4,1,,,,,,,,,,,,,,,,,,,,,,,,,,,,,,,,,,,,,,,,,
424621,001,2022-11-21_01h53.17.989,Info_measure_main_exp,2022.2.2,MacIntel,60.14675809,,,,,,,,,,,,,,,,,,masks/mask_003.jpg,,,,,,,,,,,,,,,,,,,,,,,,,,,,,,,,,,,,,,,,,,,,,,,,0,2,2,2,1,,,,,,,,,,,,,,,,,,,,,,,,,,,,,,,,,,,,,,,,,
424621,001,2022-11-21_01h53.17.989,Info_measure_main_exp,2022.2.2,MacIntel,60.14675809,,,,,,,,,,,,,,,,,,masks/mask_004.jpg,,,,,,,,,,,,,,,,,,,,,,,,,,,,,,,,,,,,,,,,,,,,,,,,0,3,3,3,1,,,,,,,,,,,,,,,,,,,,,,,,,,,,,,,,,,,,,,,,,
424621,001,2022-11-21_01h53.17.989,Info_measure_main_exp,2022.2.2,MacIntel,60.14675809,,,,,,,,,,,,,,,,,,masks/mask_001.jpg,,,,,,,,,,,,,,,,,,,,,,,,,,,,,,,,,,,,,,,,,,,,,,,,0,4,4,0,1,,,,,,,,,,,,,,,,,,,,,,,,,,,,,,,,,,,,,,,,,
424621,001,2022-11-21_01h53.17.989,Info_measure_main_exp,2022.2.2,MacIntel,60.14675809,,,,,,,,,,,,,,,,,,,,,,,,,,,,,,3,1.6634,1,,,,,,,,,,,,0,131,5,5,2154,2214,absent_patch/patch0002154.jpg,absent_patch/patch0002214.jpg,,,,,,,,,,,,,,,,,,,,-0.021948242,-0.066323242,1,0,0,response5disk,28,0.004667969,-0.001567383,1,0,0,center_square,0,27,27,67,1,,,,,,,,,,,,,,,,,,,,,,,
424621,001,2022-11-21_01h53.17.989,Info_measure_main_exp,2022.2.2,MacIntel,60.14675809,,,,,,,,,,,,,,,,,,masks/mask_004.jpg,,,,,,,,,,,,,,,,,,,,,,,,,,,,,,,,,,,,,,,,,,,0,0,0,3,1,,,,,,,,,,,,,,,,,,,,,,,,,,,,,,,,,,,,,,,,,,,,,,
424621,001,2022-11-21_01h53.17.989,Info_measure_main_exp,2022.2.2,MacIntel,60.14675809,,,,,,,,,,,,,,,,,,masks/mask_002.jpg,,,,,,,,,,,,,,,,,,,,,,,,,,,,,,,,,,,,,,,,,,,0,1,1,1,1,,,,,,,,,,,,,,,,,,,,,,,,,,,,,,,,,,,,,,,,,,,,,,
424621,001,2022-11-21_01h53.17.989,Info_measure_main_exp,2022.2.2,MacIntel,60.14675809,,,,,,,,,,,,,,,,,,masks/mask_001.jpg,,,,,,,,,,,,,,,,,,,,,,,,,,,,,,,,,,,,,,,,,,,0,2,2,0,1,,,,,,,,,,,,,,,,,,,,,,,,,,,,,,,,,,,,,,,,,,,,,,
424621,001,2022-11-21_01h53.17.989,Info_measure_main_exp,2022.2.2,MacIntel,60.14675809,,,,,,,,,,,,,,,,,,masks/mask_005.jpg,,,,,,,,,,,,,,,,,,,,,,,,,,,,,,,,,,,,,,,,,,,0,3,3,4,1,,,,,,,,,,,,,,,,,,,,,,,,,,,,,,,,,,,,,,,,,,,,,,
424621,001,2022-11-21_01h53.17.989,Info_measure_main_exp,2022.2.2,MacIntel,60.14675809,,,,,,,,,,,,,,,,,,masks/mask_003.jpg,,,,,,,,,,,,,,,,,,,,,,,,,,,,,,,,,,,,,,,,,,,0,4,4,2,1,,,,,,,,,,,,,,,,,,,,,,,,,,,,,,,,,,,,,,,,,,,,,,
424621,001,2022-11-21_01h53.17.989,Info_measure_main_exp,2022.2.2,MacIntel,60.14675809,,,,,,,,,,,,,,,,,,masks/mask_003.jpg,,,,,,,,,,,,,,,,,,,,,,,,,,,,,,,,,,,,,,,,,,,,,,,,0,0,0,2,1,,,,,,,,,,,,,,,,,,,,,,,,,,,,,,,,,,,,,,,,,
424621,001,2022-11-21_01h53.17.989,Info_measure_main_exp,2022.2.2,MacIntel,60.14675809,,,,,,,,,,,,,,,,,,masks/mask_004.jpg,,,,,,,,,,,,,,,,,,,,,,,,,,,,,,,,,,,,,,,,,,,,,,,,0,1,1,3,1,,,,,,,,,,,,,,,,,,,,,,,,,,,,,,,,,,,,,,,,,
424621,001,2022-11-21_01h53.17.989,Info_measure_main_exp,2022.2.2,MacIntel,60.14675809,,,,,,,,,,,,,,,,,,masks/mask_001.jpg,,,,,,,,,,,,,,,,,,,,,,,,,,,,,,,,,,,,,,,,,,,,,,,,0,2,2,0,1,,,,,,,,,,,,,,,,,,,,,,,,,,,,,,,,,,,,,,,,,
424621,001,2022-11-21_01h53.17.989,Info_measure_main_exp,2022.2.2,MacIntel,60.14675809,,,,,,,,,,,,,,,,,,masks/mask_002.jpg,,,,,,,,,,,,,,,,,,,,,,,,,,,,,,,,,,,,,,,,,,,,,,,,0,3,3,1,1,,,,,,,,,,,,,,,,,,,,,,,,,,,,,,,,,,,,,,,,,
424621,001,2022-11-21_01h53.17.989,Info_measure_main_exp,2022.2.2,MacIntel,60.14675809,,,,,,,,,,,,,,,,,,masks/mask_005.jpg,,,,,,,,,,,,,,,,,,,,,,,,,,,,,,,,,,,,,,,,,,,,,,,,0,4,4,4,1,,,,,,,,,,,,,,,,,,,,,,,,,,,,,,,,,,,,,,,,,
424621,001,2022-11-21_01h53.17.989,Info_measure_main_exp,2022.2.2,MacIntel,60.14675809,,,,,,,,,,,,,,,,,,,,,,,,,,,,,,0,4.3439,1,,,,,,,,,,,,0,131,5,5,1986,1974,absent_patch/patch0001986.jpg,absent_patch/patch0001974.jpg,,,,,,,,,,,,,,,,,,,,-0.011689453,0.033730469,1,0,0,response7disk,29,0.002265625,-0.011445313,1,0,0,center_square,0,28,28,25,1,,,,,,,,,,,,,,,,,,,,,,,
424621,001,2022-11-21_01h53.17.989,Info_measure_main_exp,2022.2.2,MacIntel,60.14675809,,,,,,,,,,,,,,,,,,masks/mask_003.jpg,,,,,,,,,,,,,,,,,,,,,,,,,,,,,,,,,,,,,,,,,,,0,0,0,2,1,,,,,,,,,,,,,,,,,,,,,,,,,,,,,,,,,,,,,,,,,,,,,,
424621,001,2022-11-21_01h53.17.989,Info_measure_main_exp,2022.2.2,MacIntel,60.14675809,,,,,,,,,,,,,,,,,,masks/mask_002.jpg,,,,,,,,,,,,,,,,,,,,,,,,,,,,,,,,,,,,,,,,,,,0,1,1,1,1,,,,,,,,,,,,,,,,,,,,,,,,,,,,,,,,,,,,,,,,,,,,,,
424621,001,2022-11-21_01h53.17.989,Info_measure_main_exp,2022.2.2,MacIntel,60.14675809,,,,,,,,,,,,,,,,,,masks/mask_004.jpg,,,,,,,,,,,,,,,,,,,,,,,,,,,,,,,,,,,,,,,,,,,0,2,2,3,1,,,,,,,,,,,,,,,,,,,,,,,,,,,,,,,,,,,,,,,,,,,,,,
424621,001,2022-11-21_01h53.17.989,Info_measure_main_exp,2022.2.2,MacIntel,60.14675809,,,,,,,,,,,,,,,,,,masks/mask_005.jpg,,,,,,,,,,,,,,,,,,,,,,,,,,,,,,,,,,,,,,,,,,,0,3,3,4,1,,,,,,,,,,,,,,,,,,,,,,,,,,,,,,,,,,,,,,,,,,,,,,
424621,001,2022-11-21_01h53.17.989,Info_measure_main_exp,2022.2.2,MacIntel,60.14675809,,,,,,,,,,,,,,,,,,masks/mask_001.jpg,,,,,,,,,,,,,,,,,,,,,,,,,,,,,,,,,,,,,,,,,,,0,4,4,0,1,,,,,,,,,,,,,,,,,,,,,,,,,,,,,,,,,,,,,,,,,,,,,,
424621,001,2022-11-21_01h53.17.989,Info_measure_main_exp,2022.2.2,MacIntel,60.14675809,,,,,,,,,,,,,,,,,,masks/mask_004.jpg,,,,,,,,,,,,,,,,,,,,,,,,,,,,,,,,,,,,,,,,,,,,,,,,0,0,0,3,1,,,,,,,,,,,,,,,,,,,,,,,,,,,,,,,,,,,,,,,,,
424621,001,2022-11-21_01h53.17.989,Info_measure_main_exp,2022.2.2,MacIntel,60.14675809,,,,,,,,,,,,,,,,,,masks/mask_003.jpg,,,,,,,,,,,,,,,,,,,,,,,,,,,,,,,,,,,,,,,,,,,,,,,,0,1,1,2,1,,,,,,,,,,,,,,,,,,,,,,,,,,,,,,,,,,,,,,,,,
424621,001,2022-11-21_01h53.17.989,Info_measure_main_exp,2022.2.2,MacIntel,60.14675809,,,,,,,,,,,,,,,,,,masks/mask_005.jpg,,,,,,,,,,,,,,,,,,,,,,,,,,,,,,,,,,,,,,,,,,,,,,,,0,2,2,4,1,,,,,,,,,,,,,,,,,,,,,,,,,,,,,,,,,,,,,,,,,
424621,001,2022-11-21_01h53.17.989,Info_measure_main_exp,2022.2.2,MacIntel,60.14675809,,,,,,,,,,,,,,,,,,masks/mask_002.jpg,,,,,,,,,,,,,,,,,,,,,,,,,,,,,,,,,,,,,,,,,,,,,,,,0,3,3,1,1,,,,,,,,,,,,,,,,,,,,,,,,,,,,,,,,,,,,,,,,,
424621,001,2022-11-21_01h53.17.989,Info_measure_main_exp,2022.2.2,MacIntel,60.14675809,,,,,,,,,,,,,,,,,,masks/mask_001.jpg,,,,,,,,,,,,,,,,,,,,,,,,,,,,,,,,,,,,,,,,,,,,,,,,0,4,4,0,1,,,,,,,,,,,,,,,,,,,,,,,,,,,,,,,,,,,,,,,,,
424621,001,2022-11-21_01h53.17.989,Info_measure_main_exp,2022.2.2,MacIntel,60.14675809,,,,,,,,,,,,,,,,,,,,,,,,,,,,,,0,0.4158,1,,,,,,,,,,,,0,131,5,5,1974,1974,absent_patch/patch0001974.jpg,absent_patch/patch0001974.jpg,,,,,,,,,,,,,,,,,,,,-0.019897461,0.124418945,1,0,0,response7disk,30,0.000288086,-0.008432617,1,0,0,center_square,0,29,29,113,1,,,,,,,,,,,,,,,,,,,,,,,
424621,001,2022-11-21_01h53.17.989,Info_measure_main_exp,2022.2.2,MacIntel,60.14675809,,,,,,,,,,,,,,,,,,masks/mask_003.jpg,,,,,,,,,,,,,,,,,,,,,,,,,,,,,,,,,,,,,,,,,,,0,0,0,2,1,,,,,,,,,,,,,,,,,,,,,,,,,,,,,,,,,,,,,,,,,,,,,,
424621,001,2022-11-21_01h53.17.989,Info_measure_main_exp,2022.2.2,MacIntel,60.14675809,,,,,,,,,,,,,,,,,,masks/mask_005.jpg,,,,,,,,,,,,,,,,,,,,,,,,,,,,,,,,,,,,,,,,,,,0,1,1,4,1,,,,,,,,,,,,,,,,,,,,,,,,,,,,,,,,,,,,,,,,,,,,,,
424621,001,2022-11-21_01h53.17.989,Info_measure_main_exp,2022.2.2,MacIntel,60.14675809,,,,,,,,,,,,,,,,,,masks/mask_001.jpg,,,,,,,,,,,,,,,,,,,,,,,,,,,,,,,,,,,,,,,,,,,0,2,2,0,1,,,,,,,,,,,,,,,,,,,,,,,,,,,,,,,,,,,,,,,,,,,,,,
424621,001,2022-11-21_01h53.17.989,Info_measure_main_exp,2022.2.2,MacIntel,60.14675809,,,,,,,,,,,,,,,,,,masks/mask_004.jpg,,,,,,,,,,,,,,,,,,,,,,,,,,,,,,,,,,,,,,,,,,,0,3,3,3,1,,,,,,,,,,,,,,,,,,,,,,,,,,,,,,,,,,,,,,,,,,,,,,
424621,001,2022-11-21_01h53.17.989,Info_measure_main_exp,2022.2.2,MacIntel,60.14675809,,,,,,,,,,,,,,,,,,masks/mask_002.jpg,,,,,,,,,,,,,,,,,,,,,,,,,,,,,,,,,,,,,,,,,,,0,4,4,1,1,,,,,,,,,,,,,,,,,,,,,,,,,,,,,,,,,,,,,,,,,,,,,,
424621,001,2022-11-21_01h53.17.989,Info_measure_main_exp,2022.2.2,MacIntel,60.14675809,,,,,,,,,,,,,,,,,,masks/mask_004.jpg,,,,,,,,,,,,,,,,,,,,,,,,,,,,,,,,,,,,,,,,,,,,,,,,0,0,0,3,1,,,,,,,,,,,,,,,,,,,,,,,,,,,,,,,,,,,,,,,,,
424621,001,2022-11-21_01h53.17.989,Info_measure_main_exp,2022.2.2,MacIntel,60.14675809,,,,,,,,,,,,,,,,,,masks/mask_001.jpg,,,,,,,,,,,,,,,,,,,,,,,,,,,,,,,,,,,,,,,,,,,,,,,,0,1,1,0,1,,,,,,,,,,,,,,,,,,,,,,,,,,,,,,,,,,,,,,,,,
424621,001,2022-11-21_01h53.17.989,Info_measure_main_exp,2022.2.2,MacIntel,60.14675809,,,,,,,,,,,,,,,,,,masks/mask_005.jpg,,,,,,,,,,,,,,,,,,,,,,,,,,,,,,,,,,,,,,,,,,,,,,,,0,2,2,4,1,,,,,,,,,,,,,,,,,,,,,,,,,,,,,,,,,,,,,,,,,
424621,001,2022-11-21_01h53.17.989,Info_measure_main_exp,2022.2.2,MacIntel,60.14675809,,,,,,,,,,,,,,,,,,masks/mask_003.jpg,,,,,,,,,,,,,,,,,,,,,,,,,,,,,,,,,,,,,,,,,,,,,,,,0,3,3,2,1,,,,,,,,,,,,,,,,,,,,,,,,,,,,,,,,,,,,,,,,,
424621,001,2022-11-21_01h53.17.989,Info_measure_main_exp,2022.2.2,MacIntel,60.14675809,,,,,,,,,,,,,,,,,,masks/mask_002.jpg,,,,,,,,,,,,,,,,,,,,,,,,,,,,,,,,,,,,,,,,,,,,,,,,0,4,4,1,1,,,,,,,,,,,,,,,,,,,,,,,,,,,,,,,,,,,,,,,,,
424621,001,2022-11-21_01h53.17.989,Info_measure_main_exp,2022.2.2,MacIntel,60.14675809,,,,,,,,,,,,,,,,,,,,,,,,,,,,,,5,1.696,1,,,,,,,,,,,,0,131,5,5,2190,1986,absent_patch/patch0002190.jpg,absent_patch/patch0001986.jpg,,,,,,,,,,,,,,,,,,,,0.073583984,-0.055263672,1,0,0,response3disk,31,-0.000449219,-0.010424805,1,0,0,center_square,0,30,30,111,1,,,,,,,,,,,,,,,,,,,,,,,
424621,001,2022-11-21_01h53.17.989,Info_measure_main_exp,2022.2.2,MacIntel,60.14675809,,,,,,,,,,,,,,,,,,masks/mask_003.jpg,,,,,,,,,,,,,,,,,,,,,,,,,,,,,,,,,,,,,,,,,,,0,0,0,2,1,,,,,,,,,,,,,,,,,,,,,,,,,,,,,,,,,,,,,,,,,,,,,,
424621,001,2022-11-21_01h53.17.989,Info_measure_main_exp,2022.2.2,MacIntel,60.14675809,,,,,,,,,,,,,,,,,,masks/mask_001.jpg,,,,,,,,,,,,,,,,,,,,,,,,,,,,,,,,,,,,,,,,,,,0,1,1,0,1,,,,,,,,,,,,,,,,,,,,,,,,,,,,,,,,,,,,,,,,,,,,,,
424621,001,2022-11-21_01h53.17.989,Info_measure_main_exp,2022.2.2,MacIntel,60.14675809,,,,,,,,,,,,,,,,,,masks/mask_004.jpg,,,,,,,,,,,,,,,,,,,,,,,,,,,,,,,,,,,,,,,,,,,0,2,2,3,1,,,,,,,,,,,,,,,,,,,,,,,,,,,,,,,,,,,,,,,,,,,,,,
424621,001,2022-11-21_01h53.17.989,Info_measure_main_exp,2022.2.2,MacIntel,60.14675809,,,,,,,,,,,,,,,,,,masks/mask_002.jpg,,,,,,,,,,,,,,,,,,,,,,,,,,,,,,,,,,,,,,,,,,,0,3,3,1,1,,,,,,,,,,,,,,,,,,,,,,,,,,,,,,,,,,,,,,,,,,,,,,
424621,001,2022-11-21_01h53.17.989,Info_measure_main_exp,2022.2.2,MacIntel,60.14675809,,,,,,,,,,,,,,,,,,masks/mask_005.jpg,,,,,,,,,,,,,,,,,,,,,,,,,,,,,,,,,,,,,,,,,,,0,4,4,4,1,,,,,,,,,,,,,,,,,,,,,,,,,,,,,,,,,,,,,,,,,,,,,,
424621,001,2022-11-21_01h53.17.989,Info_measure_main_exp,2022.2.2,MacIntel,60.14675809,,,,,,,,,,,,,,,,,,masks/mask_002.jpg,,,,,,,,,,,,,,,,,,,,,,,,,,,,,,,,,,,,,,,,,,,,,,,,0,0,0,1,1,,,,,,,,,,,,,,,,,,,,,,,,,,,,,,,,,,,,,,,,,
424621,001,2022-11-21_01h53.17.989,Info_measure_main_exp,2022.2.2,MacIntel,60.14675809,,,,,,,,,,,,,,,,,,masks/mask_004.jpg,,,,,,,,,,,,,,,,,,,,,,,,,,,,,,,,,,,,,,,,,,,,,,,,0,1,1,3,1,,,,,,,,,,,,,,,,,,,,,,,,,,,,,,,,,,,,,,,,,
424621,001,2022-11-21_01h53.17.989,Info_measure_main_exp,2022.2.2,MacIntel,60.14675809,,,,,,,,,,,,,,,,,,masks/mask_005.jpg,,,,,,,,,,,,,,,,,,,,,,,,,,,,,,,,,,,,,,,,,,,,,,,,0,2,2,4,1,,,,,,,,,,,,,,,,,,,,,,,,,,,,,,,,,,,,,,,,,
424621,001,2022-11-21_01h53.17.989,Info_measure_main_exp,2022.2.2,MacIntel,60.14675809,,,,,,,,,,,,,,,,,,masks/mask_001.jpg,,,,,,,,,,,,,,,,,,,,,,,,,,,,,,,,,,,,,,,,,,,,,,,,0,3,3,0,1,,,,,,,,,,,,,,,,,,,,,,,,,,,,,,,,,,,,,,,,,
424621,001,2022-11-21_01h53.17.989,Info_measure_main_exp,2022.2.2,MacIntel,60.14675809,,,,,,,,,,,,,,,,,,masks/mask_003.jpg,,,,,,,,,,,,,,,,,,,,,,,,,,,,,,,,,,,,,,,,,,,,,,,,0,4,4,2,1,,,,,,,,,,,,,,,,,,,,,,,,,,,,,,,,,,,,,,,,,
424621,001,2022-11-21_01h53.17.989,Info_measure_main_exp,2022.2.2,MacIntel,60.14675809,,,,,,,,,,,,,,,,,,,,,,,,,,,,,,5,0.9325,1,,,,,,,,,,,,0,131,5,5,2082,2298,absent_patch/patch0002082.jpg,absent_patch/patch0002298.jpg,,,,,,,,,,,,,,,,,,,,0.043798828,-0.013452148,1,0,0,response3disk,32,0.000390625,-0.007172852,1,0,0,center_square,0,31,31,107,1,,,,,,,,,,,,,,,,,,,,,,,
424621,001,2022-11-21_01h53.17.989,Info_measure_main_exp,2022.2.2,MacIntel,60.14675809,,,,,,,,,,,,,,,,,,masks/mask_001.jpg,,,,,,,,,,,,,,,,,,,,,,,,,,,,,,,,,,,,,,,,,,,0,0,0,0,1,,,,,,,,,,,,,,,,,,,,,,,,,,,,,,,,,,,,,,,,,,,,,,
424621,001,2022-11-21_01h53.17.989,Info_measure_main_exp,2022.2.2,MacIntel,60.14675809,,,,,,,,,,,,,,,,,,masks/mask_002.jpg,,,,,,,,,,,,,,,,,,,,,,,,,,,,,,,,,,,,,,,,,,,0,1,1,1,1,,,,,,,,,,,,,,,,,,,,,,,,,,,,,,,,,,,,,,,,,,,,,,
424621,001,2022-11-21_01h53.17.989,Info_measure_main_exp,2022.2.2,MacIntel,60.14675809,,,,,,,,,,,,,,,,,,masks/mask_004.jpg,,,,,,,,,,,,,,,,,,,,,,,,,,,,,,,,,,,,,,,,,,,0,2,2,3,1,,,,,,,,,,,,,,,,,,,,,,,,,,,,,,,,,,,,,,,,,,,,,,
424621,001,2022-11-21_01h53.17.989,Info_measure_main_exp,2022.2.2,MacIntel,60.14675809,,,,,,,,,,,,,,,,,,masks/mask_005.jpg,,,,,,,,,,,,,,,,,,,,,,,,,,,,,,,,,,,,,,,,,,,0,3,3,4,1,,,,,,,,,,,,,,,,,,,,,,,,,,,,,,,,,,,,,,,,,,,,,,
424621,001,2022-11-21_01h53.17.989,Info_measure_main_exp,2022.2.2,MacIntel,60.14675809,,,,,,,,,,,,,,,,,,masks/mask_003.jpg,,,,,,,,,,,,,,,,,,,,,,,,,,,,,,,,,,,,,,,,,,,0,4,4,2,1,,,,,,,,,,,,,,,,,,,,,,,,,,,,,,,,,,,,,,,,,,,,,,
424621,001,2022-11-21_01h53.17.989,Info_measure_main_exp,2022.2.2,MacIntel,60.14675809,,,,,,,,,,,,,,,,,,masks/mask_004.jpg,,,,,,,,,,,,,,,,,,,,,,,,,,,,,,,,,,,,,,,,,,,,,,,,0,0,0,3,1,,,,,,,,,,,,,,,,,,,,,,,,,,,,,,,,,,,,,,,,,
424621,001,2022-11-21_01h53.17.989,Info_measure_main_exp,2022.2.2,MacIntel,60.14675809,,,,,,,,,,,,,,,,,,masks/mask_003.jpg,,,,,,,,,,,,,,,,,,,,,,,,,,,,,,,,,,,,,,,,,,,,,,,,0,1,1,2,1,,,,,,,,,,,,,,,,,,,,,,,,,,,,,,,,,,,,,,,,,
424621,001,2022-11-21_01h53.17.989,Info_measure_main_exp,2022.2.2,MacIntel,60.14675809,,,,,,,,,,,,,,,,,,masks/mask_002.jpg,,,,,,,,,,,,,,,,,,,,,,,,,,,,,,,,,,,,,,,,,,,,,,,,0,2,2,1,1,,,,,,,,,,,,,,,,,,,,,,,,,,,,,,,,,,,,,,,,,
424621,001,2022-11-21_01h53.17.989,Info_measure_main_exp,2022.2.2,MacIntel,60.14675809,,,,,,,,,,,,,,,,,,masks/mask_001.jpg,,,,,,,,,,,,,,,,,,,,,,,,,,,,,,,,,,,,,,,,,,,,,,,,0,3,3,0,1,,,,,,,,,,,,,,,,,,,,,,,,,,,,,,,,,,,,,,,,,
424621,001,2022-11-21_01h53.17.989,Info_measure_main_exp,2022.2.2,MacIntel,60.14675809,,,,,,,,,,,,,,,,,,masks/mask_005.jpg,,,,,,,,,,,,,,,,,,,,,,,,,,,,,,,,,,,,,,,,,,,,,,,,0,4,4,4,1,,,,,,,,,,,,,,,,,,,,,,,,,,,,,,,,,,,,,,,,,
424621,001,2022-11-21_01h53.17.989,Info_measure_main_exp,2022.2.2,MacIntel,60.14675809,,,,,,,,,,,,,,,,,,,,,,,,,,,,,,4,1.4799,1,,,,,,,,,,,,0,131,5,5,2214,2166,absent_patch/patch0002214.jpg,absent_patch/patch0002166.jpg,,,,,,,,,,,,,,,,,,,,0.039589844,-0.072568359,1,0,0,response3disk,33,0.001572266,0.004277344,1,0,0,center_square,0,32,32,109,1,,,,,,,,,,,,,,,,,,,,,,,
424621,001,2022-11-21_01h53.17.989,Info_measure_main_exp,2022.2.2,MacIntel,60.14675809,,,,,,,,,,,,,,,,,,masks/mask_003.jpg,,,,,,,,,,,,,,,,,,,,,,,,,,,,,,,,,,,,,,,,,,,0,0,0,2,1,,,,,,,,,,,,,,,,,,,,,,,,,,,,,,,,,,,,,,,,,,,,,,
424621,001,2022-11-21_01h53.17.989,Info_measure_main_exp,2022.2.2,MacIntel,60.14675809,,,,,,,,,,,,,,,,,,masks/mask_001.jpg,,,,,,,,,,,,,,,,,,,,,,,,,,,,,,,,,,,,,,,,,,,0,1,1,0,1,,,,,,,,,,,,,,,,,,,,,,,,,,,,,,,,,,,,,,,,,,,,,,
424621,001,2022-11-21_01h53.17.989,Info_measure_main_exp,2022.2.2,MacIntel,60.14675809,,,,,,,,,,,,,,,,,,masks/mask_004.jpg,,,,,,,,,,,,,,,,,,,,,,,,,,,,,,,,,,,,,,,,,,,0,2,2,3,1,,,,,,,,,,,,,,,,,,,,,,,,,,,,,,,,,,,,,,,,,,,,,,
424621,001,2022-11-21_01h53.17.989,Info_measure_main_exp,2022.2.2,MacIntel,60.14675809,,,,,,,,,,,,,,,,,,masks/mask_002.jpg,,,,,,,,,,,,,,,,,,,,,,,,,,,,,,,,,,,,,,,,,,,0,3,3,1,1,,,,,,,,,,,,,,,,,,,,,,,,,,,,,,,,,,,,,,,,,,,,,,
424621,001,2022-11-21_01h53.17.989,Info_measure_main_exp,2022.2.2,MacIntel,60.14675809,,,,,,,,,,,,,,,,,,masks/mask_005.jpg,,,,,,,,,,,,,,,,,,,,,,,,,,,,,,,,,,,,,,,,,,,0,4,4,4,1,,,,,,,,,,,,,,,,,,,,,,,,,,,,,,,,,,,,,,,,,,,,,,
424621,001,2022-11-21_01h53.17.989,Info_measure_main_exp,2022.2.2,MacIntel,60.14675809,,,,,,,,,,,,,,,,,,masks/mask_002.jpg,,,,,,,,,,,,,,,,,,,,,,,,,,,,,,,,,,,,,,,,,,,,,,,,0,0,0,1,1,,,,,,,,,,,,,,,,,,,,,,,,,,,,,,,,,,,,,,,,,
424621,001,2022-11-21_01h53.17.989,Info_measure_main_exp,2022.2.2,MacIntel,60.14675809,,,,,,,,,,,,,,,,,,masks/mask_003.jpg,,,,,,,,,,,,,,,,,,,,,,,,,,,,,,,,,,,,,,,,,,,,,,,,0,1,1,2,1,,,,,,,,,,,,,,,,,,,,,,,,,,,,,,,,,,,,,,,,,
424621,001,2022-11-21_01h53.17.989,Info_measure_main_exp,2022.2.2,MacIntel,60.14675809,,,,,,,,,,,,,,,,,,masks/mask_005.jpg,,,,,,,,,,,,,,,,,,,,,,,,,,,,,,,,,,,,,,,,,,,,,,,,0,2,2,4,1,,,,,,,,,,,,,,,,,,,,,,,,,,,,,,,,,,,,,,,,,
424621,001,2022-11-21_01h53.17.989,Info_measure_main_exp,2022.2.2,MacIntel,60.14675809,,,,,,,,,,,,,,,,,,masks/mask_001.jpg,,,,,,,,,,,,,,,,,,,,,,,,,,,,,,,,,,,,,,,,,,,,,,,,0,3,3,0,1,,,,,,,,,,,,,,,,,,,,,,,,,,,,,,,,,,,,,,,,,
424621,001,2022-11-21_01h53.17.989,Info_measure_main_exp,2022.2.2,MacIntel,60.14675809,,,,,,,,,,,,,,,,,,masks/mask_004.jpg,,,,,,,,,,,,,,,,,,,,,,,,,,,,,,,,,,,,,,,,,,,,,,,,0,4,4,3,1,,,,,,,,,,,,,,,,,,,,,,,,,,,,,,,,,,,,,,,,,
424621,001,2022-11-21_01h53.17.989,Info_measure_main_exp,2022.2.2,MacIntel,60.14675809,,,,,,,,,,,,,,,,,,,,,,,,,,,,,,1,1.479,1,,,,,,,,,,,,0,131,5,5,2298,2178,absent_patch/patch0002298.jpg,absent_patch/patch0002178.jpg,,,,,,,,,,,,,,,,,,,,-0.116938477,0.024296875,1,0,0,response7disk,34,-0.004838867,-0.006171875,1,0,0,center_square,0,33,33,84,1,,,,,,,,,,,,,,,,,,,,,,,
424621,001,2022-11-21_01h53.17.989,Info_measure_main_exp,2022.2.2,MacIntel,60.14675809,,,,,,,,,,,,,,,,,,masks/mask_004.jpg,,,,,,,,,,,,,,,,,,,,,,,,,,,,,,,,,,,,,,,,,,,0,0,0,3,1,,,,,,,,,,,,,,,,,,,,,,,,,,,,,,,,,,,,,,,,,,,,,,
424621,001,2022-11-21_01h53.17.989,Info_measure_main_exp,2022.2.2,MacIntel,60.14675809,,,,,,,,,,,,,,,,,,masks/mask_002.jpg,,,,,,,,,,,,,,,,,,,,,,,,,,,,,,,,,,,,,,,,,,,0,1,1,1,1,,,,,,,,,,,,,,,,,,,,,,,,,,,,,,,,,,,,,,,,,,,,,,
424621,001,2022-11-21_01h53.17.989,Info_measure_main_exp,2022.2.2,MacIntel,60.14675809,,,,,,,,,,,,,,,,,,masks/mask_003.jpg,,,,,,,,,,,,,,,,,,,,,,,,,,,,,,,,,,,,,,,,,,,0,2,2,2,1,,,,,,,,,,,,,,,,,,,,,,,,,,,,,,,,,,,,,,,,,,,,,,
