participant,session,date,expName,psychopyVersion,OS,frameRate,space_press_continue.keys,space_press_continue.rt,space_press_continue_2.keys,space_press_continue_2.rt,space_press_continue_3.keys,space_press_continue_3.rt,space_press_continue_4.keys,space_press_continue_4.rt,space_press_continue_5.keys,space_press_continue_5.rt,space_press_continue_6.keys,space_press_continue_6.rt,prac_mask_loop_1.thisRepN,prac_mask_loop_1.thisTrialN,prac_mask_loop_1.thisN,prac_mask_loop_1.thisIndex,prac_mask_loop_1.ran,mask_name,prac_mask_loop_2.thisRepN,prac_mask_loop_2.thisTrialN,prac_mask_loop_2.thisN,prac_mask_loop_2.thisIndex,prac_mask_loop_2.ran,mouse_2.x,mouse_2.y,mouse_2.leftButton,mouse_2.midButton,mouse_2.rightButton,mouse_2.clicked_name,similarity,response_time,Pass,mouse_12.x,mouse_12.y,mouse_12.leftButton,mouse_12.midButton,mouse_12.rightButton,mouse_12.clicked_name,prac_loop.thisRepN,prac_loop.thisTrialN,prac_loop.thisN,prac_loop.thisIndex,prac_loop.ran,Pair_type,Image_num,Patch_1_loc,Patch_2_loc,Patch_1_info,Patch_2_info,Patch_1_name,Patch_2_name,mouse_1.x,mouse_1.y,mouse_1.leftButton,mouse_1.midButton,mouse_1.rightButton,mouse_1.time,mouse_1.clicked_name,space_press_continue_7.keys,mask_loop.thisRepN,mask_loop.thisTrialN,mask_loop.thisN,mask_loop.thisIndex,mask_loop.ran,mask_loop_2.thisRepN,mask_loop_2.thisTrialN,mask_loop_2.thisN,mask_loop_2.thisIndex,mask_loop_2.ran,mouse.x,mouse.y,mouse.leftButton,mouse.midButton,mouse.rightButton,mouse.clicked_name,trialNumber,mouse_11.x,mouse_11.y,mouse_11.leftButton,mouse_11.midButton,mouse_11.rightButton,mouse_11.clicked_name,first_pass_loop.thisRepN,first_pass_loop.thisTrialN,first_pass_loop.thisN,first_pass_loop.thisIndex,first_pass_loop.ran,mask_loop_3.thisRepN,mask_loop_3.thisTrialN,mask_loop_3.thisN,mask_loop_3.thisIndex,mask_loop_3.ran,mask_loop_4.thisRepN,mask_loop_4.thisTrialN,mask_loop_4.thisN,mask_loop_4.thisIndex,mask_loop_4.ran,mouse_3.x,mouse_3.y,mouse_3.leftButton,mouse_3.midButton,mouse_3.rightButton,mouse_3.clicked_name,double_pass_loop.thisRepN,double_pass_loop.thisTrialN,double_pass_loop.thisN,double_pass_loop.thisIndex,double_pass_loop.ran,space_exit.keys,space_exit.rt
424894,001,2022-11-20_20h55.46.563,Info_measure_main_exp,2022.2.2,Linux x86_64,6.6693344,,,,,,,,,,,,,,,,,,,,,,,,,,,,,,,,,,,,,,,,,,,,,,,,,,,,,,,,,,,,,,,,,,,,,,,,,,,,,,,,,,,,,,,,,,,,,,,,,,,,,,,,,,,,,,
424894,001,2022-11-20_20h55.46.563,Info_measure_main_exp,2022.2.2,Linux x86_64,6.6693344,,,,,,,,,,,,,,,,,,,,,,,,,,,,,,,,,,,,,,,,,,,,,,,,,,,,,,,,,,,,,,,,,,,,,,,,,,,,,,,,,,,,,,,,,,,,,,,,,,,,,,,,,,,,,,
424894,001,2022-11-20_20h55.46.563,Info_measure_main_exp,2022.2.2,Linux x86_64,6.6693344,space,3.1896,,,,,,,,,,,,,,,,,,,,,,,,,,,,,,,,,,,,,,,,,,,,,,,,,,,,,,,,,,,,,,,,,,,,,,,,,,,,,,,,,,,,,,,,,,,,,,,,,,,,,,,,,,,,
424894,001,2022-11-20_20h55.46.563,Info_measure_main_exp,2022.2.2,Linux x86_64,6.6693344,,,space,4.3033,,,,,,,,,,,,,,,,,,,,,,,,,,,,,,,,,,,,,,,,,,,,,,,,,,,,,,,,,,,,,,,,,,,,,,,,,,,,,,,,,,,,,,,,,,,,,,,,,,,,,,,,,,
424894,001,2022-11-20_20h55.46.563,Info_measure_main_exp,2022.2.2,Linux x86_64,6.6693344,,,,,space,2.6188,,,,,,,,,,,,,,,,,,,,,,,,,,,,,,,,,,,,,,,,,,,,,,,,,,,,,,,,,,,,,,,,,,,,,,,,,,,,,,,,,,,,,,,,,,,,,,,,,,,,,,,,
424894,001,2022-11-20_20h55.46.563,Info_measure_main_exp,2022.2.2,Linux x86_64,6.6693344,,,,,,,space,1.6073,,,,,,,,,,,,,,,,,,,,,,,,,,,,,,,,,,,,,,,,,,,,,,,,,,,,,,,,,,,,,,,,,,,,,,,,,,,,,,,,,,,,,,,,,,,,,,,,,,,,,,
424894,001,2022-11-20_20h55.46.563,Info_measure_main_exp,2022.2.2,Linux x86_64,6.6693344,,,,,,,,,space,3.5521,,,,,,,,,,,,,,,,,,,,,,,,,,,,,,,,,,,,,,,,,,,,,,,,,,,,,,,,,,,,,,,,,,,,,,,,,,,,,,,,,,,,,,,,,,,,,,,,,,,,
424894,001,2022-11-20_20h55.46.563,Info_measure_main_exp,2022.2.2,Linux x86_64,6.6693344,,,,,,,,,,,space,1.3326,,,,,,,,,,,,,,,,,,,,,,,,,,,,,,,,,,,,,,,,,,,,,,,,,,,,,,,,,,,,,,,,,,,,,,,,,,,,,,,,,,,,,,,,,,,,,,,,,,
424894,001,2022-11-20_20h55.46.563,Info_measure_main_exp,2022.2.2,Linux x86_64,6.6693344,,,,,,,,,,,,,0,0,0,4,1,masks/mask_005.jpg,,,,,,,,,,,,,,,,,,,,,,,,,,,,,,,,,,,,,,,,,,,,,,,,,,,,,,,,,,,,,,,,,,,,,,,,,,,,,,,,,,,,,,,,,,,,
424894,001,2022-11-20_20h55.46.563,Info_measure_main_exp,2022.2.2,Linux x86_64,6.6693344,,,,,,,,,,,,,0,1,1,3,1,masks/mask_004.jpg,,,,,,,,,,,,,,,,,,,,,,,,,,,,,,,,,,,,,,,,,,,,,,,,,,,,,,,,,,,,,,,,,,,,,,,,,,,,,,,,,,,,,,,,,,,,
424894,001,2022-11-20_20h55.46.563,Info_measure_main_exp,2022.2.2,Linux x86_64,6.6693344,,,,,,,,,,,,,0,2,2,2,1,masks/mask_003.jpg,,,,,,,,,,,,,,,,,,,,,,,,,,,,,,,,,,,,,,,,,,,,,,,,,,,,,,,,,,,,,,,,,,,,,,,,,,,,,,,,,,,,,,,,,,,,
424894,001,2022-11-20_20h55.46.563,Info_measure_main_exp,2022.2.2,Linux x86_64,6.6693344,,,,,,,,,,,,,0,3,3,1,1,masks/mask_002.jpg,,,,,,,,,,,,,,,,,,,,,,,,,,,,,,,,,,,,,,,,,,,,,,,,,,,,,,,,,,,,,,,,,,,,,,,,,,,,,,,,,,,,,,,,,,,,
424894,001,2022-11-20_20h55.46.563,Info_measure_main_exp,2022.2.2,Linux x86_64,6.6693344,,,,,,,,,,,,,0,4,4,0,1,masks/mask_001.jpg,,,,,,,,,,,,,,,,,,,,,,,,,,,,,,,,,,,,,,,,,,,,,,,,,,,,,,,,,,,,,,,,,,,,,,,,,,,,,,,,,,,,,,,,,,,,
424894,001,2022-11-20_20h55.46.563,Info_measure_main_exp,2022.2.2,Linux x86_64,6.6693344,,,,,,,,,,,,,,,,,,masks/mask_002.jpg,0,0,0,1,1,,,,,,,,,,,,,,,,,,,,,,,,,,,,,,,,,,,,,,,,,,,,,,,,,,,,,,,,,,,,,,,,,,,,,,,,,,,,,,,,,,,,,,,
424894,001,2022-11-20_20h55.46.563,Info_measure_main_exp,2022.2.2,Linux x86_64,6.6693344,,,,,,,,,,,,,,,,,,masks/mask_004.jpg,0,1,1,3,1,,,,,,,,,,,,,,,,,,,,,,,,,,,,,,,,,,,,,,,,,,,,,,,,,,,,,,,,,,,,,,,,,,,,,,,,,,,,,,,,,,,,,,,
424894,001,2022-11-20_20h55.46.563,Info_measure_main_exp,2022.2.2,Linux x86_64,6.6693344,,,,,,,,,,,,,,,,,,masks/mask_003.jpg,0,2,2,2,1,,,,,,,,,,,,,,,,,,,,,,,,,,,,,,,,,,,,,,,,,,,,,,,,,,,,,,,,,,,,,,,,,,,,,,,,,,,,,,,,,,,,,,,
424894,001,2022-11-20_20h55.46.563,Info_measure_main_exp,2022.2.2,Linux x86_64,6.6693344,,,,,,,,,,,,,,,,,,masks/mask_005.jpg,0,3,3,4,1,,,,,,,,,,,,,,,,,,,,,,,,,,,,,,,,,,,,,,,,,,,,,,,,,,,,,,,,,,,,,,,,,,,,,,,,,,,,,,,,,,,,,,,
424894,001,2022-11-20_20h55.46.563,Info_measure_main_exp,2022.2.2,Linux x86_64,6.6693344,,,,,,,,,,,,,,,,,,masks/mask_001.jpg,0,4,4,0,1,,,,,,,,,,,,,,,,,,,,,,,,,,,,,,,,,,,,,,,,,,,,,,,,,,,,,,,,,,,,,,,,,,,,,,,,,,,,,,,,,,,,,,,
424894,001,2022-11-20_20h55.46.563,Info_measure_main_exp,2022.2.2,Linux x86_64,6.6693344,,,,,,,,,,,,,,,,,,,,,,,,-0.1,0.115740741,1,0,0,response7disk,0,20.2976,1,-0.001851852,-0.005555556,1,0,0,center_square,0,0,0,0,1,0,131,5,5,2370,2406,prac_patch/patch0002370.jpg,prac_patch/patch0002406.jpg,,,,,,,,,,,,,,,,,,,,,,,,,,,,,,,,,,,,,,,,,,,,,,,,,,,,,,,,,,,
424894,001,2022-11-20_20h55.46.563,Info_measure_main_exp,2022.2.2,Linux x86_64,6.6693344,,,,,,,,,,,,,0,0,0,2,1,masks/mask_003.jpg,,,,,,,,,,,,,,,,,,,,,,,,,,,,,,,,,,,,,,,,,,,,,,,,,,,,,,,,,,,,,,,,,,,,,,,,,,,,,,,,,,,,,,,,,,,,
424894,001,2022-11-20_20h55.46.563,Info_measure_main_exp,2022.2.2,Linux x86_64,6.6693344,,,,,,,,,,,,,0,1,1,4,1,masks/mask_005.jpg,,,,,,,,,,,,,,,,,,,,,,,,,,,,,,,,,,,,,,,,,,,,,,,,,,,,,,,,,,,,,,,,,,,,,,,,,,,,,,,,,,,,,,,,,,,,
424894,001,2022-11-20_20h55.46.563,Info_measure_main_exp,2022.2.2,Linux x86_64,6.6693344,,,,,,,,,,,,,0,2,2,3,1,masks/mask_004.jpg,,,,,,,,,,,,,,,,,,,,,,,,,,,,,,,,,,,,,,,,,,,,,,,,,,,,,,,,,,,,,,,,,,,,,,,,,,,,,,,,,,,,,,,,,,,,
424894,001,2022-11-20_20h55.46.563,Info_measure_main_exp,2022.2.2,Linux x86_64,6.6693344,,,,,,,,,,,,,0,3,3,0,1,masks/mask_001.jpg,,,,,,,,,,,,,,,,,,,,,,,,,,,,,,,,,,,,,,,,,,,,,,,,,,,,,,,,,,,,,,,,,,,,,,,,,,,,,,,,,,,,,,,,,,,,
424894,001,2022-11-20_20h55.46.563,Info_measure_main_exp,2022.2.2,Linux x86_64,6.6693344,,,,,,,,,,,,,0,4,4,1,1,masks/mask_002.jpg,,,,,,,,,,,,,,,,,,,,,,,,,,,,,,,,,,,,,,,,,,,,,,,,,,,,,,,,,,,,,,,,,,,,,,,,,,,,,,,,,,,,,,,,,,,,
424894,001,2022-11-20_20h55.46.563,Info_measure_main_exp,2022.2.2,Linux x86_64,6.6693344,,,,,,,,,,,,,,,,,,masks/mask_002.jpg,0,0,0,1,1,,,,,,,,,,,,,,,,,,,,,,,,,,,,,,,,,,,,,,,,,,,,,,,,,,,,,,,,,,,,,,,,,,,,,,,,,,,,,,,,,,,,,,,
424894,001,2022-11-20_20h55.46.563,Info_measure_main_exp,2022.2.2,Linux x86_64,6.6693344,,,,,,,,,,,,,,,,,,masks/mask_003.jpg,0,1,1,2,1,,,,,,,,,,,,,,,,,,,,,,,,,,,,,,,,,,,,,,,,,,,,,,,,,,,,,,,,,,,,,,,,,,,,,,,,,,,,,,,,,,,,,,,
424894,001,2022-11-20_20h55.46.563,Info_measure_main_exp,2022.2.2,Linux x86_64,6.6693344,,,,,,,,,,,,,,,,,,masks/mask_001.jpg,0,2,2,0,1,,,,,,,,,,,,,,,,,,,,,,,,,,,,,,,,,,,,,,,,,,,,,,,,,,,,,,,,,,,,,,,,,,,,,,,,,,,,,,,,,,,,,,,
424894,001,2022-11-20_20h55.46.563,Info_measure_main_exp,2022.2.2,Linux x86_64,6.6693344,,,,,,,,,,,,,,,,,,masks/mask_004.jpg,0,3,3,3,1,,,,,,,,,,,,,,,,,,,,,,,,,,,,,,,,,,,,,,,,,,,,,,,,,,,,,,,,,,,,,,,,,,,,,,,,,,,,,,,,,,,,,,,
424894,001,2022-11-20_20h55.46.563,Info_measure_main_exp,2022.2.2,Linux x86_64,6.6693344,,,,,,,,,,,,,,,,,,masks/mask_005.jpg,0,4,4,4,1,,,,,,,,,,,,,,,,,,,,,,,,,,,,,,,,,,,,,,,,,,,,,,,,,,,,,,,,,,,,,,,,,,,,,,,,,,,,,,,,,,,,,,,
424894,001,2022-11-20_20h55.46.563,Info_measure_main_exp,2022.2.2,Linux x86_64,6.6693344,,,,,,,,,,,,,,,,,,,,,,,,-0.040740741,0.063888889,1,0,0,response7disk,0,27.9891,1,0.000925926,-0.002777778,1,0,0,center_square,0,1,1,2,1,0,131,5,5,2526,2526,prac_patch/patch0002526.jpg,prac_patch/patch0002526.jpg,,,,,,,,,,,,,,,,,,,,,,,,,,,,,,,,,,,,,,,,,,,,,,,,,,,,,,,,,,,
424894,001,2022-11-20_20h55.46.563,Info_measure_main_exp,2022.2.2,Linux x86_64,6.6693344,,,,,,,,,,,,,0,0,0,1,1,masks/mask_002.jpg,,,,,,,,,,,,,,,,,,,,,,,,,,,,,,,,,,,,,,,,,,,,,,,,,,,,,,,,,,,,,,,,,,,,,,,,,,,,,,,,,,,,,,,,,,,,
424894,001,2022-11-20_20h55.46.563,Info_measure_main_exp,2022.2.2,Linux x86_64,6.6693344,,,,,,,,,,,,,0,1,1,4,1,masks/mask_005.jpg,,,,,,,,,,,,,,,,,,,,,,,,,,,,,,,,,,,,,,,,,,,,,,,,,,,,,,,,,,,,,,,,,,,,,,,,,,,,,,,,,,,,,,,,,,,,
424894,001,2022-11-20_20h55.46.563,Info_measure_main_exp,2022.2.2,Linux x86_64,6.6693344,,,,,,,,,,,,,0,2,2,2,1,masks/mask_003.jpg,,,,,,,,,,,,,,,,,,,,,,,,,,,,,,,,,,,,,,,,,,,,,,,,,,,,,,,,,,,,,,,,,,,,,,,,,,,,,,,,,,,,,,,,,,,,
424894,001,2022-11-20_20h55.46.563,Info_measure_main_exp,2022.2.2,Linux x86_64,6.6693344,,,,,,,,,,,,,0,3,3,0,1,masks/mask_001.jpg,,,,,,,,,,,,,,,,,,,,,,,,,,,,,,,,,,,,,,,,,,,,,,,,,,,,,,,,,,,,,,,,,,,,,,,,,,,,,,,,,,,,,,,,,,,,
424894,001,2022-11-20_20h55.46.563,Info_measure_main_exp,2022.2.2,Linux x86_64,6.6693344,,,,,,,,,,,,,0,4,4,3,1,masks/mask_004.jpg,,,,,,,,,,,,,,,,,,,,,,,,,,,,,,,,,,,,,,,,,,,,,,,,,,,,,,,,,,,,,,,,,,,,,,,,,,,,,,,,,,,,,,,,,,,,
424894,001,2022-11-20_20h55.46.563,Info_measure_main_exp,2022.2.2,Linux x86_64,6.6693344,,,,,,,,,,,,,,,,,,masks/mask_005.jpg,0,0,0,4,1,,,,,,,,,,,,,,,,,,,,,,,,,,,,,,,,,,,,,,,,,,,,,,,,,,,,,,,,,,,,,,,,,,,,,,,,,,,,,,,,,,,,,,,
424894,001,2022-11-20_20h55.46.563,Info_measure_main_exp,2022.2.2,Linux x86_64,6.6693344,,,,,,,,,,,,,,,,,,masks/mask_001.jpg,0,1,1,0,1,,,,,,,,,,,,,,,,,,,,,,,,,,,,,,,,,,,,,,,,,,,,,,,,,,,,,,,,,,,,,,,,,,,,,,,,,,,,,,,,,,,,,,,
424894,001,2022-11-20_20h55.46.563,Info_measure_main_exp,2022.2.2,Linux x86_64,6.6693344,,,,,,,,,,,,,,,,,,masks/mask_003.jpg,0,2,2,2,1,,,,,,,,,,,,,,,,,,,,,,,,,,,,,,,,,,,,,,,,,,,,,,,,,,,,,,,,,,,,,,,,,,,,,,,,,,,,,,,,,,,,,,,
424894,001,2022-11-20_20h55.46.563,Info_measure_main_exp,2022.2.2,Linux x86_64,6.6693344,,,,,,,,,,,,,,,,,,masks/mask_004.jpg,0,3,3,3,1,,,,,,,,,,,,,,,,,,,,,,,,,,,,,,,,,,,,,,,,,,,,,,,,,,,,,,,,,,,,,,,,,,,,,,,,,,,,,,,,,,,,,,,
424894,001,2022-11-20_20h55.46.563,Info_measure_main_exp,2022.2.2,Linux x86_64,6.6693344,,,,,,,,,,,,,,,,,,masks/mask_002.jpg,0,4,4,1,1,,,,,,,,,,,,,,,,,,,,,,,,,,,,,,,,,,,,,,,,,,,,,,,,,,,,,,,,,,,,,,,,,,,,,,,,,,,,,,,,,,,,,,,
424894,001,2022-11-20_20h55.46.563,Info_measure_main_exp,2022.2.2,Linux x86_64,6.6693344,,,,,,,,,,,,,,,,,,,,,,,,-0.025925926,0.039814815,1,0,0,response7disk,0,34.8577,1,0,0.00462963,1,0,0,center_square,0,2,2,1,1,0,131,5,5,2514,2490,prac_patch/patch0002514.jpg,prac_patch/patch0002490.jpg,,,,,,,,,,,,,,,,,,,,,,,,,,,,,,,,,,,,,,,,,,,,,,,,,,,,,,,,,,,
424894,001,2022-11-20_20h55.46.563,Info_measure_main_exp,2022.2.2,Linux x86_64,6.6693344,,,,,,,,,,,,,,,,,,,,,,,,,,,,,,,,,,,,,,,,,,,,,,,,,,,,0,0.00462963,1,0,0,1.5978,center_square,,,,,,,,,,,,,,,,,,,,,,,,,,,,,,,,,,,,,,,,,,,,,,,,,,,,
424894,001,2022-11-20_20h55.46.563,Info_measure_main_exp,2022.2.2,Linux x86_64,6.6693344,,,,,,,,,,,,,,,,,,masks/mask_001.jpg,,,,,,,,,,,,,,,,,,,,,,,,,,,,,,,,,,,,,,,,,,0,0,0,0,1,,,,,,,,,,,,,,,,,,,,,,,,,,,,,,,,,,,,,,,,,,,,,,
424894,001,2022-11-20_20h55.46.563,Info_measure_main_exp,2022.2.2,Linux x86_64,6.6693344,,,,,,,,,,,,,,,,,,masks/mask_002.jpg,,,,,,,,,,,,,,,,,,,,,,,,,,,,,,,,,,,,,,,,,,0,1,1,1,1,,,,,,,,,,,,,,,,,,,,,,,,,,,,,,,,,,,,,,,,,,,,,,
424894,001,2022-11-20_20h55.46.563,Info_measure_main_exp,2022.2.2,Linux x86_64,6.6693344,,,,,,,,,,,,,,,,,,masks/mask_005.jpg,,,,,,,,,,,,,,,,,,,,,,,,,,,,,,,,,,,,,,,,,,0,2,2,4,1,,,,,,,,,,,,,,,,,,,,,,,,,,,,,,,,,,,,,,,,,,,,,,
424894,001,2022-11-20_20h55.46.563,Info_measure_main_exp,2022.2.2,Linux x86_64,6.6693344,,,,,,,,,,,,,,,,,,masks/mask_004.jpg,,,,,,,,,,,,,,,,,,,,,,,,,,,,,,,,,,,,,,,,,,0,3,3,3,1,,,,,,,,,,,,,,,,,,,,,,,,,,,,,,,,,,,,,,,,,,,,,,
424894,001,2022-11-20_20h55.46.563,Info_measure_main_exp,2022.2.2,Linux x86_64,6.6693344,,,,,,,,,,,,,,,,,,masks/mask_003.jpg,,,,,,,,,,,,,,,,,,,,,,,,,,,,,,,,,,,,,,,,,,0,4,4,2,1,,,,,,,,,,,,,,,,,,,,,,,,,,,,,,,,,,,,,,,,,,,,,,
424894,001,2022-11-20_20h55.46.563,Info_measure_main_exp,2022.2.2,Linux x86_64,6.6693344,,,,,,,,,,,,,,,,,,masks/mask_003.jpg,,,,,,,,,,,,,,,,,,,,,,,,,,,,,,,,,,,,,,,,,,,,,,,0,0,0,2,1,,,,,,,,,,,,,,,,,,,,,,,,,,,,,,,,,,,,,,,,,
424894,001,2022-11-20_20h55.46.563,Info_measure_main_exp,2022.2.2,Linux x86_64,6.6693344,,,,,,,,,,,,,,,,,,masks/mask_005.jpg,,,,,,,,,,,,,,,,,,,,,,,,,,,,,,,,,,,,,,,,,,,,,,,0,1,1,4,1,,,,,,,,,,,,,,,,,,,,,,,,,,,,,,,,,,,,,,,,,
424894,001,2022-11-20_20h55.46.563,Info_measure_main_exp,2022.2.2,Linux x86_64,6.6693344,,,,,,,,,,,,,,,,,,masks/mask_001.jpg,,,,,,,,,,,,,,,,,,,,,,,,,,,,,,,,,,,,,,,,,,,,,,,0,2,2,0,1,,,,,,,,,,,,,,,,,,,,,,,,,,,,,,,,,,,,,,,,,
424894,001,2022-11-20_20h55.46.563,Info_measure_main_exp,2022.2.2,Linux x86_64,6.6693344,,,,,,,,,,,,,,,,,,masks/mask_002.jpg,,,,,,,,,,,,,,,,,,,,,,,,,,,,,,,,,,,,,,,,,,,,,,,0,3,3,1,1,,,,,,,,,,,,,,,,,,,,,,,,,,,,,,,,,,,,,,,,,
424894,001,2022-11-20_20h55.46.563,Info_measure_main_exp,2022.2.2,Linux x86_64,6.6693344,,,,,,,,,,,,,,,,,,masks/mask_004.jpg,,,,,,,,,,,,,,,,,,,,,,,,,,,,,,,,,,,,,,,,,,,,,,,0,4,4,3,1,,,,,,,,,,,,,,,,,,,,,,,,,,,,,,,,,,,,,,,,,
424894,001,2022-11-20_20h55.46.563,Info_measure_main_exp,2022.2.2,Linux x86_64,6.6693344,,,,,,,,,,,,,,,,,,,,,,,,,,,,,,0,4.4826,1,,,,,,,,,,,,0,131,5,5,2142,2238,absent_patch/patch0002142.jpg,absent_patch/patch0002238.jpg,,,,,,,,,,,,,,,,,,,-0.019444444,0.062962963,1,0,0,response7disk,1,-0.011111111,-0.001851852,1,0,0,center_square,0,0,0,101,1,,,,,,,,,,,,,,,,,,,,,,,
424894,001,2022-11-20_20h55.46.563,Info_measure_main_exp,2022.2.2,Linux x86_64,6.6693344,,,,,,,,,,,,,,,,,,masks/mask_001.jpg,,,,,,,,,,,,,,,,,,,,,,,,,,,,,,,,,,,,,,,,,,0,0,0,0,1,,,,,,,,,,,,,,,,,,,,,,,,,,,,,,,,,,,,,,,,,,,,,,
424894,001,2022-11-20_20h55.46.563,Info_measure_main_exp,2022.2.2,Linux x86_64,6.6693344,,,,,,,,,,,,,,,,,,masks/mask_003.jpg,,,,,,,,,,,,,,,,,,,,,,,,,,,,,,,,,,,,,,,,,,0,1,1,2,1,,,,,,,,,,,,,,,,,,,,,,,,,,,,,,,,,,,,,,,,,,,,,,
424894,001,2022-11-20_20h55.46.563,Info_measure_main_exp,2022.2.2,Linux x86_64,6.6693344,,,,,,,,,,,,,,,,,,masks/mask_005.jpg,,,,,,,,,,,,,,,,,,,,,,,,,,,,,,,,,,,,,,,,,,0,2,2,4,1,,,,,,,,,,,,,,,,,,,,,,,,,,,,,,,,,,,,,,,,,,,,,,
424894,001,2022-11-20_20h55.46.563,Info_measure_main_exp,2022.2.2,Linux x86_64,6.6693344,,,,,,,,,,,,,,,,,,masks/mask_004.jpg,,,,,,,,,,,,,,,,,,,,,,,,,,,,,,,,,,,,,,,,,,0,3,3,3,1,,,,,,,,,,,,,,,,,,,,,,,,,,,,,,,,,,,,,,,,,,,,,,
424894,001,2022-11-20_20h55.46.563,Info_measure_main_exp,2022.2.2,Linux x86_64,6.6693344,,,,,,,,,,,,,,,,,,masks/mask_002.jpg,,,,,,,,,,,,,,,,,,,,,,,,,,,,,,,,,,,,,,,,,,0,4,4,1,1,,,,,,,,,,,,,,,,,,,,,,,,,,,,,,,,,,,,,,,,,,,,,,
424894,001,2022-11-20_20h55.46.563,Info_measure_main_exp,2022.2.2,Linux x86_64,6.6693344,,,,,,,,,,,,,,,,,,masks/mask_001.jpg,,,,,,,,,,,,,,,,,,,,,,,,,,,,,,,,,,,,,,,,,,,,,,,0,0,0,0,1,,,,,,,,,,,,,,,,,,,,,,,,,,,,,,,,,,,,,,,,,
424894,001,2022-11-20_20h55.46.563,Info_measure_main_exp,2022.2.2,Linux x86_64,6.6693344,,,,,,,,,,,,,,,,,,masks/mask_005.jpg,,,,,,,,,,,,,,,,,,,,,,,,,,,,,,,,,,,,,,,,,,,,,,,0,1,1,4,1,,,,,,,,,,,,,,,,,,,,,,,,,,,,,,,,,,,,,,,,,
424894,001,2022-11-20_20h55.46.563,Info_measure_main_exp,2022.2.2,Linux x86_64,6.6693344,,,,,,,,,,,,,,,,,,masks/mask_004.jpg,,,,,,,,,,,,,,,,,,,,,,,,,,,,,,,,,,,,,,,,,,,,,,,0,2,2,3,1,,,,,,,,,,,,,,,,,,,,,,,,,,,,,,,,,,,,,,,,,
424894,001,2022-11-20_20h55.46.563,Info_measure_main_exp,2022.2.2,Linux x86_64,6.6693344,,,,,,,,,,,,,,,,,,masks/mask_003.jpg,,,,,,,,,,,,,,,,,,,,,,,,,,,,,,,,,,,,,,,,,,,,,,,0,3,3,2,1,,,,,,,,,,,,,,,,,,,,,,,,,,,,,,,,,,,,,,,,,
424894,001,2022-11-20_20h55.46.563,Info_measure_main_exp,2022.2.2,Linux x86_64,6.6693344,,,,,,,,,,,,,,,,,,masks/mask_002.jpg,,,,,,,,,,,,,,,,,,,,,,,,,,,,,,,,,,,,,,,,,,,,,,,0,4,4,1,1,,,,,,,,,,,,,,,,,,,,,,,,,,,,,,,,,,,,,,,,,
424894,001,2022-11-20_20h55.46.563,Info_measure_main_exp,2022.2.2,Linux x86_64,6.6693344,,,,,,,,,,,,,,,,,,,,,,,,,,,,,,0,0.8572,1,,,,,,,,,,,,0,131,5,5,2082,2250,absent_patch/patch0002082.jpg,absent_patch/patch0002250.jpg,,,,,,,,,,,,,,,,,,,-0.021296296,0.033333333,1,0,0,response7disk,2,-0.010185185,-0.008333333,1,0,0,center_square,0,1,1,3,1,,,,,,,,,,,,,,,,,,,,,,,
424894,001,2022-11-20_20h55.46.563,Info_measure_main_exp,2022.2.2,Linux x86_64,6.6693344,,,,,,,,,,,,,,,,,,masks/mask_001.jpg,,,,,,,,,,,,,,,,,,,,,,,,,,,,,,,,,,,,,,,,,,0,0,0,0,1,,,,,,,,,,,,,,,,,,,,,,,,,,,,,,,,,,,,,,,,,,,,,,
424894,001,2022-11-20_20h55.46.563,Info_measure_main_exp,2022.2.2,Linux x86_64,6.6693344,,,,,,,,,,,,,,,,,,masks/mask_004.jpg,,,,,,,,,,,,,,,,,,,,,,,,,,,,,,,,,,,,,,,,,,0,1,1,3,1,,,,,,,,,,,,,,,,,,,,,,,,,,,,,,,,,,,,,,,,,,,,,,
424894,001,2022-11-20_20h55.46.563,Info_measure_main_exp,2022.2.2,Linux x86_64,6.6693344,,,,,,,,,,,,,,,,,,masks/mask_003.jpg,,,,,,,,,,,,,,,,,,,,,,,,,,,,,,,,,,,,,,,,,,0,2,2,2,1,,,,,,,,,,,,,,,,,,,,,,,,,,,,,,,,,,,,,,,,,,,,,,
424894,001,2022-11-20_20h55.46.563,Info_measure_main_exp,2022.2.2,Linux x86_64,6.6693344,,,,,,,,,,,,,,,,,,masks/mask_002.jpg,,,,,,,,,,,,,,,,,,,,,,,,,,,,,,,,,,,,,,,,,,0,3,3,1,1,,,,,,,,,,,,,,,,,,,,,,,,,,,,,,,,,,,,,,,,,,,,,,
424894,001,2022-11-20_20h55.46.563,Info_measure_main_exp,2022.2.2,Linux x86_64,6.6693344,,,,,,,,,,,,,,,,,,masks/mask_005.jpg,,,,,,,,,,,,,,,,,,,,,,,,,,,,,,,,,,,,,,,,,,0,4,4,4,1,,,,,,,,,,,,,,,,,,,,,,,,,,,,,,,,,,,,,,,,,,,,,,
424894,001,2022-11-20_20h55.46.563,Info_measure_main_exp,2022.2.2,Linux x86_64,6.6693344,,,,,,,,,,,,,,,,,,masks/mask_004.jpg,,,,,,,,,,,,,,,,,,,,,,,,,,,,,,,,,,,,,,,,,,,,,,,0,0,0,3,1,,,,,,,,,,,,,,,,,,,,,,,,,,,,,,,,,,,,,,,,,
424894,001,2022-11-20_20h55.46.563,Info_measure_main_exp,2022.2.2,Linux x86_64,6.6693344,,,,,,,,,,,,,,,,,,masks/mask_003.jpg,,,,,,,,,,,,,,,,,,,,,,,,,,,,,,,,,,,,,,,,,,,,,,,0,1,1,2,1,,,,,,,,,,,,,,,,,,,,,,,,,,,,,,,,,,,,,,,,,
424894,001,2022-11-20_20h55.46.563,Info_measure_main_exp,2022.2.2,Linux x86_64,6.6693344,,,,,,,,,,,,,,,,,,masks/mask_005.jpg,,,,,,,,,,,,,,,,,,,,,,,,,,,,,,,,,,,,,,,,,,,,,,,0,2,2,4,1,,,,,,,,,,,,,,,,,,,,,,,,,,,,,,,,,,,,,,,,,
424894,001,2022-11-20_20h55.46.563,Info_measure_main_exp,2022.2.2,Linux x86_64,6.6693344,,,,,,,,,,,,,,,,,,masks/mask_002.jpg,,,,,,,,,,,,,,,,,,,,,,,,,,,,,,,,,,,,,,,,,,,,,,,0,3,3,1,1,,,,,,,,,,,,,,,,,,,,,,,,,,,,,,,,,,,,,,,,,
424894,001,2022-11-20_20h55.46.563,Info_measure_main_exp,2022.2.2,Linux x86_64,6.6693344,,,,,,,,,,,,,,,,,,masks/mask_001.jpg,,,,,,,,,,,,,,,,,,,,,,,,,,,,,,,,,,,,,,,,,,,,,,,0,4,4,0,1,,,,,,,,,,,,,,,,,,,,,,,,,,,,,,,,,,,,,,,,,
424894,001,2022-11-20_20h55.46.563,Info_measure_main_exp,2022.2.2,Linux x86_64,6.6693344,,,,,,,,,,,,,,,,,,,,,,,,,,,,,,0,1.027,1,,,,,,,,,,,,0,131,5,5,1986,1986,absent_patch/patch0001986.jpg,absent_patch/patch0001986.jpg,,,,,,,,,,,,,,,,,,,-0.018518519,0.037037037,1,0,0,response7disk,3,-0.000925926,-0.008333333,1,0,0,center_square,0,2,2,19,1,,,,,,,,,,,,,,,,,,,,,,,
424894,001,2022-11-20_20h55.46.563,Info_measure_main_exp,2022.2.2,Linux x86_64,6.6693344,,,,,,,,,,,,,,,,,,masks/mask_002.jpg,,,,,,,,,,,,,,,,,,,,,,,,,,,,,,,,,,,,,,,,,,0,0,0,1,1,,,,,,,,,,,,,,,,,,,,,,,,,,,,,,,,,,,,,,,,,,,,,,
424894,001,2022-11-20_20h55.46.563,Info_measure_main_exp,2022.2.2,Linux x86_64,6.6693344,,,,,,,,,,,,,,,,,,masks/mask_001.jpg,,,,,,,,,,,,,,,,,,,,,,,,,,,,,,,,,,,,,,,,,,0,1,1,0,1,,,,,,,,,,,,,,,,,,,,,,,,,,,,,,,,,,,,,,,,,,,,,,
424894,001,2022-11-20_20h55.46.563,Info_measure_main_exp,2022.2.2,Linux x86_64,6.6693344,,,,,,,,,,,,,,,,,,masks/mask_003.jpg,,,,,,,,,,,,,,,,,,,,,,,,,,,,,,,,,,,,,,,,,,0,2,2,2,1,,,,,,,,,,,,,,,,,,,,,,,,,,,,,,,,,,,,,,,,,,,,,,
424894,001,2022-11-20_20h55.46.563,Info_measure_main_exp,2022.2.2,Linux x86_64,6.6693344,,,,,,,,,,,,,,,,,,masks/mask_005.jpg,,,,,,,,,,,,,,,,,,,,,,,,,,,,,,,,,,,,,,,,,,0,3,3,4,1,,,,,,,,,,,,,,,,,,,,,,,,,,,,,,,,,,,,,,,,,,,,,,
424894,001,2022-11-20_20h55.46.563,Info_measure_main_exp,2022.2.2,Linux x86_64,6.6693344,,,,,,,,,,,,,,,,,,masks/mask_004.jpg,,,,,,,,,,,,,,,,,,,,,,,,,,,,,,,,,,,,,,,,,,0,4,4,3,1,,,,,,,,,,,,,,,,,,,,,,,,,,,,,,,,,,,,,,,,,,,,,,
424894,001,2022-11-20_20h55.46.563,Info_measure_main_exp,2022.2.2,Linux x86_64,6.6693344,,,,,,,,,,,,,,,,,,masks/mask_002.jpg,,,,,,,,,,,,,,,,,,,,,,,,,,,,,,,,,,,,,,,,,,,,,,,0,0,0,1,1,,,,,,,,,,,,,,,,,,,,,,,,,,,,,,,,,,,,,,,,,
424894,001,2022-11-20_20h55.46.563,Info_measure_main_exp,2022.2.2,Linux x86_64,6.6693344,,,,,,,,,,,,,,,,,,masks/mask_005.jpg,,,,,,,,,,,,,,,,,,,,,,,,,,,,,,,,,,,,,,,,,,,,,,,0,1,1,4,1,,,,,,,,,,,,,,,,,,,,,,,,,,,,,,,,,,,,,,,,,
424894,001,2022-11-20_20h55.46.563,Info_measure_main_exp,2022.2.2,Linux x86_64,6.6693344,,,,,,,,,,,,,,,,,,masks/mask_003.jpg,,,,,,,,,,,,,,,,,,,,,,,,,,,,,,,,,,,,,,,,,,,,,,,0,2,2,2,1,,,,,,,,,,,,,,,,,,,,,,,,,,,,,,,,,,,,,,,,,
424894,001,2022-11-20_20h55.46.563,Info_measure_main_exp,2022.2.2,Linux x86_64,6.6693344,,,,,,,,,,,,,,,,,,masks/mask_004.jpg,,,,,,,,,,,,,,,,,,,,,,,,,,,,,,,,,,,,,,,,,,,,,,,0,3,3,3,1,,,,,,,,,,,,,,,,,,,,,,,,,,,,,,,,,,,,,,,,,
424894,001,2022-11-20_20h55.46.563,Info_measure_main_exp,2022.2.2,Linux x86_64,6.6693344,,,,,,,,,,,,,,,,,,masks/mask_001.jpg,,,,,,,,,,,,,,,,,,,,,,,,,,,,,,,,,,,,,,,,,,,,,,,0,4,4,0,1,,,,,,,,,,,,,,,,,,,,,,,,,,,,,,,,,,,,,,,,,
424894,001,2022-11-20_20h55.46.563,Info_measure_main_exp,2022.2.2,Linux x86_64,6.6693344,,,,,,,,,,,,,,,,,,,,,,,,,,,,,,0,0.6883,1,,,,,,,,,,,,0,131,5,5,2166,2166,absent_patch/patch0002166.jpg,absent_patch/patch0002166.jpg,,,,,,,,,,,,,,,,,,,-0.031481481,0.064814815,1,0,0,response7disk,4,-0.001851852,-0.003703704,1,0,0,center_square,0,3,3,42,1,,,,,,,,,,,,,,,,,,,,,,,
424894,001,2022-11-20_20h55.46.563,Info_measure_main_exp,2022.2.2,Linux x86_64,6.6693344,,,,,,,,,,,,,,,,,,masks/mask_001.jpg,,,,,,,,,,,,,,,,,,,,,,,,,,,,,,,,,,,,,,,,,,0,0,0,0,1,,,,,,,,,,,,,,,,,,,,,,,,,,,,,,,,,,,,,,,,,,,,,,
424894,001,2022-11-20_20h55.46.563,Info_measure_main_exp,2022.2.2,Linux x86_64,6.6693344,,,,,,,,,,,,,,,,,,masks/mask_003.jpg,,,,,,,,,,,,,,,,,,,,,,,,,,,,,,,,,,,,,,,,,,0,1,1,2,1,,,,,,,,,,,,,,,,,,,,,,,,,,,,,,,,,,,,,,,,,,,,,,
424894,001,2022-11-20_20h55.46.563,Info_measure_main_exp,2022.2.2,Linux x86_64,6.6693344,,,,,,,,,,,,,,,,,,masks/mask_004.jpg,,,,,,,,,,,,,,,,,,,,,,,,,,,,,,,,,,,,,,,,,,0,2,2,3,1,,,,,,,,,,,,,,,,,,,,,,,,,,,,,,,,,,,,,,,,,,,,,,
424894,001,2022-11-20_20h55.46.563,Info_measure_main_exp,2022.2.2,Linux x86_64,6.6693344,,,,,,,,,,,,,,,,,,masks/mask_005.jpg,,,,,,,,,,,,,,,,,,,,,,,,,,,,,,,,,,,,,,,,,,0,3,3,4,1,,,,,,,,,,,,,,,,,,,,,,,,,,,,,,,,,,,,,,,,,,,,,,
424894,001,2022-11-20_20h55.46.563,Info_measure_main_exp,2022.2.2,Linux x86_64,6.6693344,,,,,,,,,,,,,,,,,,masks/mask_002.jpg,,,,,,,,,,,,,,,,,,,,,,,,,,,,,,,,,,,,,,,,,,0,4,4,1,1,,,,,,,,,,,,,,,,,,,,,,,,,,,,,,,,,,,,,,,,,,,,,,
424894,001,2022-11-20_20h55.46.563,Info_measure_main_exp,2022.2.2,Linux x86_64,6.6693344,,,,,,,,,,,,,,,,,,masks/mask_001.jpg,,,,,,,,,,,,,,,,,,,,,,,,,,,,,,,,,,,,,,,,,,,,,,,0,0,0,0,1,,,,,,,,,,,,,,,,,,,,,,,,,,,,,,,,,,,,,,,,,
424894,001,2022-11-20_20h55.46.563,Info_measure_main_exp,2022.2.2,Linux x86_64,6.6693344,,,,,,,,,,,,,,,,,,masks/mask_003.jpg,,,,,,,,,,,,,,,,,,,,,,,,,,,,,,,,,,,,,,,,,,,,,,,0,1,1,2,1,,,,,,,,,,,,,,,,,,,,,,,,,,,,,,,,,,,,,,,,,
424894,001,2022-11-20_20h55.46.563,Info_measure_main_exp,2022.2.2,Linux x86_64,6.6693344,,,,,,,,,,,,,,,,,,masks/mask_002.jpg,,,,,,,,,,,,,,,,,,,,,,,,,,,,,,,,,,,,,,,,,,,,,,,0,2,2,1,1,,,,,,,,,,,,,,,,,,,,,,,,,,,,,,,,,,,,,,,,,
424894,001,2022-11-20_20h55.46.563,Info_measure_main_exp,2022.2.2,Linux x86_64,6.6693344,,,,,,,,,,,,,,,,,,masks/mask_004.jpg,,,,,,,,,,,,,,,,,,,,,,,,,,,,,,,,,,,,,,,,,,,,,,,0,3,3,3,1,,,,,,,,,,,,,,,,,,,,,,,,,,,,,,,,,,,,,,,,,
424894,001,2022-11-20_20h55.46.563,Info_measure_main_exp,2022.2.2,Linux x86_64,6.6693344,,,,,,,,,,,,,,,,,,masks/mask_005.jpg,,,,,,,,,,,,,,,,,,,,,,,,,,,,,,,,,,,,,,,,,,,,,,,0,4,4,4,1,,,,,,,,,,,,,,,,,,,,,,,,,,,,,,,,,,,,,,,,,
424894,001,2022-11-20_20h55.46.563,Info_measure_main_exp,2022.2.2,Linux x86_64,6.6693344,,,,,,,,,,,,,,,,,,,,,,,,,,,,,,0,2.4277,1,,,,,,,,,,,,1,131,5,5,2250,1,absent_patch/patch0002250.jpg,present_patch/cong_131_5_a.jpg,,,,,,,,,,,,,,,,,,,-0.000925926,0.007407407,1,0,0,response7disk,5,-0.013888889,0,1,0,0,center_square,0,4,4,5,1,,,,,,,,,,,,,,,,,,,,,,,
424894,001,2022-11-20_20h55.46.563,Info_measure_main_exp,2022.2.2,Linux x86_64,6.6693344,,,,,,,,,,,,,,,,,,masks/mask_002.jpg,,,,,,,,,,,,,,,,,,,,,,,,,,,,,,,,,,,,,,,,,,0,0,0,1,1,,,,,,,,,,,,,,,,,,,,,,,,,,,,,,,,,,,,,,,,,,,,,,
424894,001,2022-11-20_20h55.46.563,Info_measure_main_exp,2022.2.2,Linux x86_64,6.6693344,,,,,,,,,,,,,,,,,,masks/mask_003.jpg,,,,,,,,,,,,,,,,,,,,,,,,,,,,,,,,,,,,,,,,,,0,1,1,2,1,,,,,,,,,,,,,,,,,,,,,,,,,,,,,,,,,,,,,,,,,,,,,,
424894,001,2022-11-20_20h55.46.563,Info_measure_main_exp,2022.2.2,Linux x86_64,6.6693344,,,,,,,,,,,,,,,,,,masks/mask_004.jpg,,,,,,,,,,,,,,,,,,,,,,,,,,,,,,,,,,,,,,,,,,0,2,2,3,1,,,,,,,,,,,,,,,,,,,,,,,,,,,,,,,,,,,,,,,,,,,,,,
424894,001,2022-11-20_20h55.46.563,Info_measure_main_exp,2022.2.2,Linux x86_64,6.6693344,,,,,,,,,,,,,,,,,,masks/mask_001.jpg,,,,,,,,,,,,,,,,,,,,,,,,,,,,,,,,,,,,,,,,,,0,3,3,0,1,,,,,,,,,,,,,,,,,,,,,,,,,,,,,,,,,,,,,,,,,,,,,,
424894,001,2022-11-20_20h55.46.563,Info_measure_main_exp,2022.2.2,Linux x86_64,6.6693344,,,,,,,,,,,,,,,,,,masks/mask_005.jpg,,,,,,,,,,,,,,,,,,,,,,,,,,,,,,,,,,,,,,,,,,0,4,4,4,1,,,,,,,,,,,,,,,,,,,,,,,,,,,,,,,,,,,,,,,,,,,,,,
424894,001,2022-11-20_20h55.46.563,Info_measure_main_exp,2022.2.2,Linux x86_64,6.6693344,,,,,,,,,,,,,,,,,,masks/mask_005.jpg,,,,,,,,,,,,,,,,,,,,,,,,,,,,,,,,,,,,,,,,,,,,,,,0,0,0,4,1,,,,,,,,,,,,,,,,,,,,,,,,,,,,,,,,,,,,,,,,,
424894,001,2022-11-20_20h55.46.563,Info_measure_main_exp,2022.2.2,Linux x86_64,6.6693344,,,,,,,,,,,,,,,,,,masks/mask_004.jpg,,,,,,,,,,,,,,,,,,,,,,,,,,,,,,,,,,,,,,,,,,,,,,,0,1,1,3,1,,,,,,,,,,,,,,,,,,,,,,,,,,,,,,,,,,,,,,,,,
424894,001,2022-11-20_20h55.46.563,Info_measure_main_exp,2022.2.2,Linux x86_64,6.6693344,,,,,,,,,,,,,,,,,,masks/mask_002.jpg,,,,,,,,,,,,,,,,,,,,,,,,,,,,,,,,,,,,,,,,,,,,,,,0,2,2,1,1,,,,,,,,,,,,,,,,,,,,,,,,,,,,,,,,,,,,,,,,,
424894,001,2022-11-20_20h55.46.563,Info_measure_main_exp,2022.2.2,Linux x86_64,6.6693344,,,,,,,,,,,,,,,,,,masks/mask_003.jpg,,,,,,,,,,,,,,,,,,,,,,,,,,,,,,,,,,,,,,,,,,,,,,,0,3,3,2,1,,,,,,,,,,,,,,,,,,,,,,,,,,,,,,,,,,,,,,,,,
424894,001,2022-11-20_20h55.46.563,Info_measure_main_exp,2022.2.2,Linux x86_64,6.6693344,,,,,,,,,,,,,,,,,,masks/mask_001.jpg,,,,,,,,,,,,,,,,,,,,,,,,,,,,,,,,,,,,,,,,,,,,,,,0,4,4,0,1,,,,,,,,,,,,,,,,,,,,,,,,,,,,,,,,,,,,,,,,,
424894,001,2022-11-20_20h55.46.563,Info_measure_main_exp,2022.2.2,Linux x86_64,6.6693344,,,,,,,,,,,,,,,,,,,,,,,,,,,,,,0,1.7305,1,,,,,,,,,,,,0,131,5,5,2298,2142,absent_patch/patch0002298.jpg,absent_patch/patch0002142.jpg,,,,,,,,,,,,,,,,,,,-0.016666667,0.07037037,1,0,0,response7disk,6,-0.002777778,0.001851852,1,0,0,center_square,0,5,5,49,1,,,,,,,,,,,,,,,,,,,,,,,
424894,001,2022-11-20_20h55.46.563,Info_measure_main_exp,2022.2.2,Linux x86_64,6.6693344,,,,,,,,,,,,,,,,,,masks/mask_003.jpg,,,,,,,,,,,,,,,,,,,,,,,,,,,,,,,,,,,,,,,,,,0,0,0,2,1,,,,,,,,,,,,,,,,,,,,,,,,,,,,,,,,,,,,,,,,,,,,,,
424894,001,2022-11-20_20h55.46.563,Info_measure_main_exp,2022.2.2,Linux x86_64,6.6693344,,,,,,,,,,,,,,,,,,masks/mask_005.jpg,,,,,,,,,,,,,,,,,,,,,,,,,,,,,,,,,,,,,,,,,,0,1,1,4,1,,,,,,,,,,,,,,,,,,,,,,,,,,,,,,,,,,,,,,,,,,,,,,
424894,001,2022-11-20_20h55.46.563,Info_measure_main_exp,2022.2.2,Linux x86_64,6.6693344,,,,,,,,,,,,,,,,,,masks/mask_004.jpg,,,,,,,,,,,,,,,,,,,,,,,,,,,,,,,,,,,,,,,,,,0,2,2,3,1,,,,,,,,,,,,,,,,,,,,,,,,,,,,,,,,,,,,,,,,,,,,,,
424894,001,2022-11-20_20h55.46.563,Info_measure_main_exp,2022.2.2,Linux x86_64,6.6693344,,,,,,,,,,,,,,,,,,masks/mask_001.jpg,,,,,,,,,,,,,,,,,,,,,,,,,,,,,,,,,,,,,,,,,,0,3,3,0,1,,,,,,,,,,,,,,,,,,,,,,,,,,,,,,,,,,,,,,,,,,,,,,
424894,001,2022-11-20_20h55.46.563,Info_measure_main_exp,2022.2.2,Linux x86_64,6.6693344,,,,,,,,,,,,,,,,,,masks/mask_002.jpg,,,,,,,,,,,,,,,,,,,,,,,,,,,,,,,,,,,,,,,,,,0,4,4,1,1,,,,,,,,,,,,,,,,,,,,,,,,,,,,,,,,,,,,,,,,,,,,,,
424894,001,2022-11-20_20h55.46.563,Info_measure_main_exp,2022.2.2,Linux x86_64,6.6693344,,,,,,,,,,,,,,,,,,masks/mask_002.jpg,,,,,,,,,,,,,,,,,,,,,,,,,,,,,,,,,,,,,,,,,,,,,,,0,0,0,1,1,,,,,,,,,,,,,,,,,,,,,,,,,,,,,,,,,,,,,,,,,
424894,001,2022-11-20_20h55.46.563,Info_measure_main_exp,2022.2.2,Linux x86_64,6.6693344,,,,,,,,,,,,,,,,,,masks/mask_003.jpg,,,,,,,,,,,,,,,,,,,,,,,,,,,,,,,,,,,,,,,,,,,,,,,0,1,1,2,1,,,,,,,,,,,,,,,,,,,,,,,,,,,,,,,,,,,,,,,,,
424894,001,2022-11-20_20h55.46.563,Info_measure_main_exp,2022.2.2,Linux x86_64,6.6693344,,,,,,,,,,,,,,,,,,masks/mask_005.jpg,,,,,,,,,,,,,,,,,,,,,,,,,,,,,,,,,,,,,,,,,,,,,,,0,2,2,4,1,,,,,,,,,,,,,,,,,,,,,,,,,,,,,,,,,,,,,,,,,
424894,001,2022-11-20_20h55.46.563,Info_measure_main_exp,2022.2.2,Linux x86_64,6.6693344,,,,,,,,,,,,,,,,,,masks/mask_004.jpg,,,,,,,,,,,,,,,,,,,,,,,,,,,,,,,,,,,,,,,,,,,,,,,0,3,3,3,1,,,,,,,,,,,,,,,,,,,,,,,,,,,,,,,,,,,,,,,,,
424894,001,2022-11-20_20h55.46.563,Info_measure_main_exp,2022.2.2,Linux x86_64,6.6693344,,,,,,,,,,,,,,,,,,masks/mask_001.jpg,,,,,,,,,,,,,,,,,,,,,,,,,,,,,,,,,,,,,,,,,,,,,,,0,4,4,0,1,,,,,,,,,,,,,,,,,,,,,,,,,,,,,,,,,,,,,,,,,
424894,001,2022-11-20_20h55.46.563,Info_measure_main_exp,2022.2.2,Linux x86_64,6.6693344,,,,,,,,,,,,,,,,,,,,,,,,,,,,,,7,2.9207,1,,,,,,,,,,,,0,131,5,5,2274,2166,absent_patch/patch0002274.jpg,absent_patch/patch0002166.jpg,,,,,,,,,,,,,,,,,,,0.033333333,0.07037037,1,0,0,response1disk,7,-0.000925926,-0.000925926,1,0,0,center_square,0,6,6,78,1,,,,,,,,,,,,,,,,,,,,,,,
424894,001,2022-11-20_20h55.46.563,Info_measure_main_exp,2022.2.2,Linux x86_64,6.6693344,,,,,,,,,,,,,,,,,,masks/mask_003.jpg,,,,,,,,,,,,,,,,,,,,,,,,,,,,,,,,,,,,,,,,,,0,0,0,2,1,,,,,,,,,,,,,,,,,,,,,,,,,,,,,,,,,,,,,,,,,,,,,,
424894,001,2022-11-20_20h55.46.563,Info_measure_main_exp,2022.2.2,Linux x86_64,6.6693344,,,,,,,,,,,,,,,,,,masks/mask_004.jpg,,,,,,,,,,,,,,,,,,,,,,,,,,,,,,,,,,,,,,,,,,0,1,1,3,1,,,,,,,,,,,,,,,,,,,,,,,,,,,,,,,,,,,,,,,,,,,,,,
424894,001,2022-11-20_20h55.46.563,Info_measure_main_exp,2022.2.2,Linux x86_64,6.6693344,,,,,,,,,,,,,,,,,,masks/mask_002.jpg,,,,,,,,,,,,,,,,,,,,,,,,,,,,,,,,,,,,,,,,,,0,2,2,1,1,,,,,,,,,,,,,,,,,,,,,,,,,,,,,,,,,,,,,,,,,,,,,,
424894,001,2022-11-20_20h55.46.563,Info_measure_main_exp,2022.2.2,Linux x86_64,6.6693344,,,,,,,,,,,,,,,,,,masks/mask_001.jpg,,,,,,,,,,,,,,,,,,,,,,,,,,,,,,,,,,,,,,,,,,0,3,3,0,1,,,,,,,,,,,,,,,,,,,,,,,,,,,,,,,,,,,,,,,,,,,,,,
424894,001,2022-11-20_20h55.46.563,Info_measure_main_exp,2022.2.2,Linux x86_64,6.6693344,,,,,,,,,,,,,,,,,,masks/mask_005.jpg,,,,,,,,,,,,,,,,,,,,,,,,,,,,,,,,,,,,,,,,,,0,4,4,4,1,,,,,,,,,,,,,,,,,,,,,,,,,,,,,,,,,,,,,,,,,,,,,,
424894,001,2022-11-20_20h55.46.563,Info_measure_main_exp,2022.2.2,Linux x86_64,6.6693344,,,,,,,,,,,,,,,,,,masks/mask_003.jpg,,,,,,,,,,,,,,,,,,,,,,,,,,,,,,,,,,,,,,,,,,,,,,,0,0,0,2,1,,,,,,,,,,,,,,,,,,,,,,,,,,,,,,,,,,,,,,,,,
424894,001,2022-11-20_20h55.46.563,Info_measure_main_exp,2022.2.2,Linux x86_64,6.6693344,,,,,,,,,,,,,,,,,,masks/mask_002.jpg,,,,,,,,,,,,,,,,,,,,,,,,,,,,,,,,,,,,,,,,,,,,,,,0,1,1,1,1,,,,,,,,,,,,,,,,,,,,,,,,,,,,,,,,,,,,,,,,,
424894,001,2022-11-20_20h55.46.563,Info_measure_main_exp,2022.2.2,Linux x86_64,6.6693344,,,,,,,,,,,,,,,,,,masks/mask_004.jpg,,,,,,,,,,,,,,,,,,,,,,,,,,,,,,,,,,,,,,,,,,,,,,,0,2,2,3,1,,,,,,,,,,,,,,,,,,,,,,,,,,,,,,,,,,,,,,,,,
424894,001,2022-11-20_20h55.46.563,Info_measure_main_exp,2022.2.2,Linux x86_64,6.6693344,,,,,,,,,,,,,,,,,,masks/mask_005.jpg,,,,,,,,,,,,,,,,,,,,,,,,,,,,,,,,,,,,,,,,,,,,,,,0,3,3,4,1,,,,,,,,,,,,,,,,,,,,,,,,,,,,,,,,,,,,,,,,,
424894,001,2022-11-20_20h55.46.563,Info_measure_main_exp,2022.2.2,Linux x86_64,6.6693344,,,,,,,,,,,,,,,,,,masks/mask_001.jpg,,,,,,,,,,,,,,,,,,,,,,,,,,,,,,,,,,,,,,,,,,,,,,,0,4,4,0,1,,,,,,,,,,,,,,,,,,,,,,,,,,,,,,,,,,,,,,,,,
424894,001,2022-11-20_20h55.46.563,Info_measure_main_exp,2022.2.2,Linux x86_64,6.6693344,,,,,,,,,,,,,,,,,,,,,,,,,,,,,,0,0.8655,1,,,,,,,,,,,,0,131,5,5,2214,2142,absent_patch/patch0002214.jpg,absent_patch/patch0002142.jpg,,,,,,,,,,,,,,,,,,,-0.008333333,0.049074074,1,0,0,response7disk,8,-0.006481481,0.001851852,1,0,0,center_square,0,7,7,102,1,,,,,,,,,,,,,,,,,,,,,,,
424894,001,2022-11-20_20h55.46.563,Info_measure_main_exp,2022.2.2,Linux x86_64,6.6693344,,,,,,,,,,,,,,,,,,masks/mask_004.jpg,,,,,,,,,,,,,,,,,,,,,,,,,,,,,,,,,,,,,,,,,,0,0,0,3,1,,,,,,,,,,,,,,,,,,,,,,,,,,,,,,,,,,,,,,,,,,,,,,
424894,001,2022-11-20_20h55.46.563,Info_measure_main_exp,2022.2.2,Linux x86_64,6.6693344,,,,,,,,,,,,,,,,,,masks/mask_005.jpg,,,,,,,,,,,,,,,,,,,,,,,,,,,,,,,,,,,,,,,,,,0,1,1,4,1,,,,,,,,,,,,,,,,,,,,,,,,,,,,,,,,,,,,,,,,,,,,,,
424894,001,2022-11-20_20h55.46.563,Info_measure_main_exp,2022.2.2,Linux x86_64,6.6693344,,,,,,,,,,,,,,,,,,masks/mask_001.jpg,,,,,,,,,,,,,,,,,,,,,,,,,,,,,,,,,,,,,,,,,,0,2,2,0,1,,,,,,,,,,,,,,,,,,,,,,,,,,,,,,,,,,,,,,,,,,,,,,
424894,001,2022-11-20_20h55.46.563,Info_measure_main_exp,2022.2.2,Linux x86_64,6.6693344,,,,,,,,,,,,,,,,,,masks/mask_002.jpg,,,,,,,,,,,,,,,,,,,,,,,,,,,,,,,,,,,,,,,,,,0,3,3,1,1,,,,,,,,,,,,,,,,,,,,,,,,,,,,,,,,,,,,,,,,,,,,,,
424894,001,2022-11-20_20h55.46.563,Info_measure_main_exp,2022.2.2,Linux x86_64,6.6693344,,,,,,,,,,,,,,,,,,masks/mask_003.jpg,,,,,,,,,,,,,,,,,,,,,,,,,,,,,,,,,,,,,,,,,,0,4,4,2,1,,,,,,,,,,,,,,,,,,,,,,,,,,,,,,,,,,,,,,,,,,,,,,
424894,001,2022-11-20_20h55.46.563,Info_measure_main_exp,2022.2.2,Linux x86_64,6.6693344,,,,,,,,,,,,,,,,,,masks/mask_005.jpg,,,,,,,,,,,,,,,,,,,,,,,,,,,,,,,,,,,,,,,,,,,,,,,0,0,0,4,1,,,,,,,,,,,,,,,,,,,,,,,,,,,,,,,,,,,,,,,,,
424894,001,2022-11-20_20h55.46.563,Info_measure_main_exp,2022.2.2,Linux x86_64,6.6693344,,,,,,,,,,,,,,,,,,masks/mask_001.jpg,,,,,,,,,,,,,,,,,,,,,,,,,,,,,,,,,,,,,,,,,,,,,,,0,1,1,0,1,,,,,,,,,,,,,,,,,,,,,,,,,,,,,,,,,,,,,,,,,
424894,001,2022-11-20_20h55.46.563,Info_measure_main_exp,2022.2.2,Linux x86_64,6.6693344,,,,,,,,,,,,,,,,,,masks/mask_002.jpg,,,,,,,,,,,,,,,,,,,,,,,,,,,,,,,,,,,,,,,,,,,,,,,0,2,2,1,1,,,,,,,,,,,,,,,,,,,,,,,,,,,,,,,,,,,,,,,,,
424894,001,2022-11-20_20h55.46.563,Info_measure_main_exp,2022.2.2,Linux x86_64,6.6693344,,,,,,,,,,,,,,,,,,masks/mask_004.jpg,,,,,,,,,,,,,,,,,,,,,,,,,,,,,,,,,,,,,,,,,,,,,,,0,3,3,3,1,,,,,,,,,,,,,,,,,,,,,,,,,,,,,,,,,,,,,,,,,
424894,001,2022-11-20_20h55.46.563,Info_measure_main_exp,2022.2.2,Linux x86_64,6.6693344,,,,,,,,,,,,,,,,,,masks/mask_003.jpg,,,,,,,,,,,,,,,,,,,,,,,,,,,,,,,,,,,,,,,,,,,,,,,0,4,4,2,1,,,,,,,,,,,,,,,,,,,,,,,,,,,,,,,,,,,,,,,,,
424894,001,2022-11-20_20h55.46.563,Info_measure_main_exp,2022.2.2,Linux x86_64,6.6693344,,,,,,,,,,,,,,,,,,,,,,,,,,,,,,0,0.8671,1,,,,,,,,,,,,0,131,5,5,2238,2166,absent_patch/patch0002238.jpg,absent_patch/patch0002166.jpg,,,,,,,,,,,,,,,,,,,-0.010185185,0.04537037,1,0,0,response7disk,9,-0.002777778,0,1,0,0,center_square,0,8,8,118,1,,,,,,,,,,,,,,,,,,,,,,,
424894,001,2022-11-20_20h55.46.563,Info_measure_main_exp,2022.2.2,Linux x86_64,6.6693344,,,,,,,,,,,,,,,,,,masks/mask_001.jpg,,,,,,,,,,,,,,,,,,,,,,,,,,,,,,,,,,,,,,,,,,0,0,0,0,1,,,,,,,,,,,,,,,,,,,,,,,,,,,,,,,,,,,,,,,,,,,,,,
424894,001,2022-11-20_20h55.46.563,Info_measure_main_exp,2022.2.2,Linux x86_64,6.6693344,,,,,,,,,,,,,,,,,,masks/mask_004.jpg,,,,,,,,,,,,,,,,,,,,,,,,,,,,,,,,,,,,,,,,,,0,1,1,3,1,,,,,,,,,,,,,,,,,,,,,,,,,,,,,,,,,,,,,,,,,,,,,,
424894,001,2022-11-20_20h55.46.563,Info_measure_main_exp,2022.2.2,Linux x86_64,6.6693344,,,,,,,,,,,,,,,,,,masks/mask_005.jpg,,,,,,,,,,,,,,,,,,,,,,,,,,,,,,,,,,,,,,,,,,0,2,2,4,1,,,,,,,,,,,,,,,,,,,,,,,,,,,,,,,,,,,,,,,,,,,,,,
424894,001,2022-11-20_20h55.46.563,Info_measure_main_exp,2022.2.2,Linux x86_64,6.6693344,,,,,,,,,,,,,,,,,,masks/mask_002.jpg,,,,,,,,,,,,,,,,,,,,,,,,,,,,,,,,,,,,,,,,,,0,3,3,1,1,,,,,,,,,,,,,,,,,,,,,,,,,,,,,,,,,,,,,,,,,,,,,,
424894,001,2022-11-20_20h55.46.563,Info_measure_main_exp,2022.2.2,Linux x86_64,6.6693344,,,,,,,,,,,,,,,,,,masks/mask_003.jpg,,,,,,,,,,,,,,,,,,,,,,,,,,,,,,,,,,,,,,,,,,0,4,4,2,1,,,,,,,,,,,,,,,,,,,,,,,,,,,,,,,,,,,,,,,,,,,,,,
424894,001,2022-11-20_20h55.46.563,Info_measure_main_exp,2022.2.2,Linux x86_64,6.6693344,,,,,,,,,,,,,,,,,,masks/mask_005.jpg,,,,,,,,,,,,,,,,,,,,,,,,,,,,,,,,,,,,,,,,,,,,,,,0,0,0,4,1,,,,,,,,,,,,,,,,,,,,,,,,,,,,,,,,,,,,,,,,,
424894,001,2022-11-20_20h55.46.563,Info_measure_main_exp,2022.2.2,Linux x86_64,6.6693344,,,,,,,,,,,,,,,,,,masks/mask_003.jpg,,,,,,,,,,,,,,,,,,,,,,,,,,,,,,,,,,,,,,,,,,,,,,,0,1,1,2,1,,,,,,,,,,,,,,,,,,,,,,,,,,,,,,,,,,,,,,,,,
424894,001,2022-11-20_20h55.46.563,Info_measure_main_exp,2022.2.2,Linux x86_64,6.6693344,,,,,,,,,,,,,,,,,,masks/mask_004.jpg,,,,,,,,,,,,,,,,,,,,,,,,,,,,,,,,,,,,,,,,,,,,,,,0,2,2,3,1,,,,,,,,,,,,,,,,,,,,,,,,,,,,,,,,,,,,,,,,,
424894,001,2022-11-20_20h55.46.563,Info_measure_main_exp,2022.2.2,Linux x86_64,6.6693344,,,,,,,,,,,,,,,,,,masks/mask_002.jpg,,,,,,,,,,,,,,,,,,,,,,,,,,,,,,,,,,,,,,,,,,,,,,,0,3,3,1,1,,,,,,,,,,,,,,,,,,,,,,,,,,,,,,,,,,,,,,,,,
424894,001,2022-11-20_20h55.46.563,Info_measure_main_exp,2022.2.2,Linux x86_64,6.6693344,,,,,,,,,,,,,,,,,,masks/mask_001.jpg,,,,,,,,,,,,,,,,,,,,,,,,,,,,,,,,,,,,,,,,,,,,,,,0,4,4,0,1,,,,,,,,,,,,,,,,,,,,,,,,,,,,,,,,,,,,,,,,,
424894,001,2022-11-20_20h55.46.563,Info_measure_main_exp,2022.2.2,Linux x86_64,6.6693344,,,,,,,,,,,,,,,,,,,,,,,,,,,,,,0,0.8684,1,,,,,,,,,,,,0,131,5,5,2214,2178,absent_patch/patch0002214.jpg,absent_patch/patch0002178.jpg,,,,,,,,,,,,,,,,,,,-0.013888889,0.041666667,1,0,0,response7disk,10,-0.005555556,-0.006481481,1,0,0,center_square,0,9,9,62,1,,,,,,,,,,,,,,,,,,,,,,,
424894,001,2022-11-20_20h55.46.563,Info_measure_main_exp,2022.2.2,Linux x86_64,6.6693344,,,,,,,,,,,,,,,,,,masks/mask_005.jpg,,,,,,,,,,,,,,,,,,,,,,,,,,,,,,,,,,,,,,,,,,0,0,0,4,1,,,,,,,,,,,,,,,,,,,,,,,,,,,,,,,,,,,,,,,,,,,,,,
424894,001,2022-11-20_20h55.46.563,Info_measure_main_exp,2022.2.2,Linux x86_64,6.6693344,,,,,,,,,,,,,,,,,,masks/mask_001.jpg,,,,,,,,,,,,,,,,,,,,,,,,,,,,,,,,,,,,,,,,,,0,1,1,0,1,,,,,,,,,,,,,,,,,,,,,,,,,,,,,,,,,,,,,,,,,,,,,,
424894,001,2022-11-20_20h55.46.563,Info_measure_main_exp,2022.2.2,Linux x86_64,6.6693344,,,,,,,,,,,,,,,,,,masks/mask_002.jpg,,,,,,,,,,,,,,,,,,,,,,,,,,,,,,,,,,,,,,,,,,0,2,2,1,1,,,,,,,,,,,,,,,,,,,,,,,,,,,,,,,,,,,,,,,,,,,,,,
424894,001,2022-11-20_20h55.46.563,Info_measure_main_exp,2022.2.2,Linux x86_64,6.6693344,,,,,,,,,,,,,,,,,,masks/mask_004.jpg,,,,,,,,,,,,,,,,,,,,,,,,,,,,,,,,,,,,,,,,,,0,3,3,3,1,,,,,,,,,,,,,,,,,,,,,,,,,,,,,,,,,,,,,,,,,,,,,,
424894,001,2022-11-20_20h55.46.563,Info_measure_main_exp,2022.2.2,Linux x86_64,6.6693344,,,,,,,,,,,,,,,,,,masks/mask_003.jpg,,,,,,,,,,,,,,,,,,,,,,,,,,,,,,,,,,,,,,,,,,0,4,4,2,1,,,,,,,,,,,,,,,,,,,,,,,,,,,,,,,,,,,,,,,,,,,,,,
424894,001,2022-11-20_20h55.46.563,Info_measure_main_exp,2022.2.2,Linux x86_64,6.6693344,,,,,,,,,,,,,,,,,,masks/mask_005.jpg,,,,,,,,,,,,,,,,,,,,,,,,,,,,,,,,,,,,,,,,,,,,,,,0,0,0,4,1,,,,,,,,,,,,,,,,,,,,,,,,,,,,,,,,,,,,,,,,,
424894,001,2022-11-20_20h55.46.563,Info_measure_main_exp,2022.2.2,Linux x86_64,6.6693344,,,,,,,,,,,,,,,,,,masks/mask_001.jpg,,,,,,,,,,,,,,,,,,,,,,,,,,,,,,,,,,,,,,,,,,,,,,,0,1,1,0,1,,,,,,,,,,,,,,,,,,,,,,,,,,,,,,,,,,,,,,,,,
424894,001,2022-11-20_20h55.46.563,Info_measure_main_exp,2022.2.2,Linux x86_64,6.6693344,,,,,,,,,,,,,,,,,,masks/mask_002.jpg,,,,,,,,,,,,,,,,,,,,,,,,,,,,,,,,,,,,,,,,,,,,,,,0,2,2,1,1,,,,,,,,,,,,,,,,,,,,,,,,,,,,,,,,,,,,,,,,,
424894,001,2022-11-20_20h55.46.563,Info_measure_main_exp,2022.2.2,Linux x86_64,6.6693344,,,,,,,,,,,,,,,,,,masks/mask_004.jpg,,,,,,,,,,,,,,,,,,,,,,,,,,,,,,,,,,,,,,,,,,,,,,,0,3,3,3,1,,,,,,,,,,,,,,,,,,,,,,,,,,,,,,,,,,,,,,,,,
424894,001,2022-11-20_20h55.46.563,Info_measure_main_exp,2022.2.2,Linux x86_64,6.6693344,,,,,,,,,,,,,,,,,,masks/mask_003.jpg,,,,,,,,,,,,,,,,,,,,,,,,,,,,,,,,,,,,,,,,,,,,,,,0,4,4,2,1,,,,,,,,,,,,,,,,,,,,,,,,,,,,,,,,,,,,,,,,,
424894,001,2022-11-20_20h55.46.563,Info_measure_main_exp,2022.2.2,Linux x86_64,6.6693344,,,,,,,,,,,,,,,,,,,,,,,,,,,,,,0,0.8615,1,,,,,,,,,,,,0,131,5,5,2190,2178,absent_patch/patch0002190.jpg,absent_patch/patch0002178.jpg,,,,,,,,,,,,,,,,,,,-0.023148148,0.044444444,1,0,0,response7disk,11,-0.006481481,-0.001851852,1,0,0,center_square,0,10,10,14,1,,,,,,,,,,,,,,,,,,,,,,,
424894,001,2022-11-20_20h55.46.563,Info_measure_main_exp,2022.2.2,Linux x86_64,6.6693344,,,,,,,,,,,,,,,,,,masks/mask_005.jpg,,,,,,,,,,,,,,,,,,,,,,,,,,,,,,,,,,,,,,,,,,0,0,0,4,1,,,,,,,,,,,,,,,,,,,,,,,,,,,,,,,,,,,,,,,,,,,,,,
424894,001,2022-11-20_20h55.46.563,Info_measure_main_exp,2022.2.2,Linux x86_64,6.6693344,,,,,,,,,,,,,,,,,,masks/mask_002.jpg,,,,,,,,,,,,,,,,,,,,,,,,,,,,,,,,,,,,,,,,,,0,1,1,1,1,,,,,,,,,,,,,,,,,,,,,,,,,,,,,,,,,,,,,,,,,,,,,,
424894,001,2022-11-20_20h55.46.563,Info_measure_main_exp,2022.2.2,Linux x86_64,6.6693344,,,,,,,,,,,,,,,,,,masks/mask_003.jpg,,,,,,,,,,,,,,,,,,,,,,,,,,,,,,,,,,,,,,,,,,0,2,2,2,1,,,,,,,,,,,,,,,,,,,,,,,,,,,,,,,,,,,,,,,,,,,,,,
424894,001,2022-11-20_20h55.46.563,Info_measure_main_exp,2022.2.2,Linux x86_64,6.6693344,,,,,,,,,,,,,,,,,,masks/mask_004.jpg,,,,,,,,,,,,,,,,,,,,,,,,,,,,,,,,,,,,,,,,,,0,3,3,3,1,,,,,,,,,,,,,,,,,,,,,,,,,,,,,,,,,,,,,,,,,,,,,,
424894,001,2022-11-20_20h55.46.563,Info_measure_main_exp,2022.2.2,Linux x86_64,6.6693344,,,,,,,,,,,,,,,,,,masks/mask_001.jpg,,,,,,,,,,,,,,,,,,,,,,,,,,,,,,,,,,,,,,,,,,0,4,4,0,1,,,,,,,,,,,,,,,,,,,,,,,,,,,,,,,,,,,,,,,,,,,,,,
424894,001,2022-11-20_20h55.46.563,Info_measure_main_exp,2022.2.2,Linux x86_64,6.6693344,,,,,,,,,,,,,,,,,,masks/mask_005.jpg,,,,,,,,,,,,,,,,,,,,,,,,,,,,,,,,,,,,,,,,,,,,,,,0,0,0,4,1,,,,,,,,,,,,,,,,,,,,,,,,,,,,,,,,,,,,,,,,,
424894,001,2022-11-20_20h55.46.563,Info_measure_main_exp,2022.2.2,Linux x86_64,6.6693344,,,,,,,,,,,,,,,,,,masks/mask_001.jpg,,,,,,,,,,,,,,,,,,,,,,,,,,,,,,,,,,,,,,,,,,,,,,,0,1,1,0,1,,,,,,,,,,,,,,,,,,,,,,,,,,,,,,,,,,,,,,,,,
424894,001,2022-11-20_20h55.46.563,Info_measure_main_exp,2022.2.2,Linux x86_64,6.6693344,,,,,,,,,,,,,,,,,,masks/mask_002.jpg,,,,,,,,,,,,,,,,,,,,,,,,,,,,,,,,,,,,,,,,,,,,,,,0,2,2,1,1,,,,,,,,,,,,,,,,,,,,,,,,,,,,,,,,,,,,,,,,,
424894,001,2022-11-20_20h55.46.563,Info_measure_main_exp,2022.2.2,Linux x86_64,6.6693344,,,,,,,,,,,,,,,,,,masks/mask_004.jpg,,,,,,,,,,,,,,,,,,,,,,,,,,,,,,,,,,,,,,,,,,,,,,,0,3,3,3,1,,,,,,,,,,,,,,,,,,,,,,,,,,,,,,,,,,,,,,,,,
424894,001,2022-11-20_20h55.46.563,Info_measure_main_exp,2022.2.2,Linux x86_64,6.6693344,,,,,,,,,,,,,,,,,,masks/mask_003.jpg,,,,,,,,,,,,,,,,,,,,,,,,,,,,,,,,,,,,,,,,,,,,,,,0,4,4,2,1,,,,,,,,,,,,,,,,,,,,,,,,,,,,,,,,,,,,,,,,,
424894,001,2022-11-20_20h55.46.563,Info_measure_main_exp,2022.2.2,Linux x86_64,6.6693344,,,,,,,,,,,,,,,,,,,,,,,,,,,,,,0,2.087,1,,,,,,,,,,,,0,131,5,5,2298,2274,absent_patch/patch0002298.jpg,absent_patch/patch0002274.jpg,,,,,,,,,,,,,,,,,,,-0.018518519,0.053703704,1,0,0,response7disk,12,0.001851852,0.006481481,1,0,0,center_square,0,11,11,1,1,,,,,,,,,,,,,,,,,,,,,,,
424894,001,2022-11-20_20h55.46.563,Info_measure_main_exp,2022.2.2,Linux x86_64,6.6693344,,,,,,,,,,,,,,,,,,masks/mask_002.jpg,,,,,,,,,,,,,,,,,,,,,,,,,,,,,,,,,,,,,,,,,,0,0,0,1,1,,,,,,,,,,,,,,,,,,,,,,,,,,,,,,,,,,,,,,,,,,,,,,
424894,001,2022-11-20_20h55.46.563,Info_measure_main_exp,2022.2.2,Linux x86_64,6.6693344,,,,,,,,,,,,,,,,,,masks/mask_001.jpg,,,,,,,,,,,,,,,,,,,,,,,,,,,,,,,,,,,,,,,,,,0,1,1,0,1,,,,,,,,,,,,,,,,,,,,,,,,,,,,,,,,,,,,,,,,,,,,,,
424894,001,2022-11-20_20h55.46.563,Info_measure_main_exp,2022.2.2,Linux x86_64,6.6693344,,,,,,,,,,,,,,,,,,masks/mask_004.jpg,,,,,,,,,,,,,,,,,,,,,,,,,,,,,,,,,,,,,,,,,,0,2,2,3,1,,,,,,,,,,,,,,,,,,,,,,,,,,,,,,,,,,,,,,,,,,,,,,
424894,001,2022-11-20_20h55.46.563,Info_measure_main_exp,2022.2.2,Linux x86_64,6.6693344,,,,,,,,,,,,,,,,,,masks/mask_005.jpg,,,,,,,,,,,,,,,,,,,,,,,,,,,,,,,,,,,,,,,,,,0,3,3,4,1,,,,,,,,,,,,,,,,,,,,,,,,,,,,,,,,,,,,,,,,,,,,,,
424894,001,2022-11-20_20h55.46.563,Info_measure_main_exp,2022.2.2,Linux x86_64,6.6693344,,,,,,,,,,,,,,,,,,masks/mask_003.jpg,,,,,,,,,,,,,,,,,,,,,,,,,,,,,,,,,,,,,,,,,,0,4,4,2,1,,,,,,,,,,,,,,,,,,,,,,,,,,,,,,,,,,,,,,,,,,,,,,
424894,001,2022-11-20_20h55.46.563,Info_measure_main_exp,2022.2.2,Linux x86_64,6.6693344,,,,,,,,,,,,,,,,,,masks/mask_005.jpg,,,,,,,,,,,,,,,,,,,,,,,,,,,,,,,,,,,,,,,,,,,,,,,0,0,0,4,1,,,,,,,,,,,,,,,,,,,,,,,,,,,,,,,,,,,,,,,,,
424894,001,2022-11-20_20h55.46.563,Info_measure_main_exp,2022.2.2,Linux x86_64,6.6693344,,,,,,,,,,,,,,,,,,masks/mask_002.jpg,,,,,,,,,,,,,,,,,,,,,,,,,,,,,,,,,,,,,,,,,,,,,,,0,1,1,1,1,,,,,,,,,,,,,,,,,,,,,,,,,,,,,,,,,,,,,,,,,
424894,001,2022-11-20_20h55.46.563,Info_measure_main_exp,2022.2.2,Linux x86_64,6.6693344,,,,,,,,,,,,,,,,,,masks/mask_004.jpg,,,,,,,,,,,,,,,,,,,,,,,,,,,,,,,,,,,,,,,,,,,,,,,0,2,2,3,1,,,,,,,,,,,,,,,,,,,,,,,,,,,,,,,,,,,,,,,,,
424894,001,2022-11-20_20h55.46.563,Info_measure_main_exp,2022.2.2,Linux x86_64,6.6693344,,,,,,,,,,,,,,,,,,masks/mask_003.jpg,,,,,,,,,,,,,,,,,,,,,,,,,,,,,,,,,,,,,,,,,,,,,,,0,3,3,2,1,,,,,,,,,,,,,,,,,,,,,,,,,,,,,,,,,,,,,,,,,
424894,001,2022-11-20_20h55.46.563,Info_measure_main_exp,2022.2.2,Linux x86_64,6.6693344,,,,,,,,,,,,,,,,,,masks/mask_001.jpg,,,,,,,,,,,,,,,,,,,,,,,,,,,,,,,,,,,,,,,,,,,,,,,0,4,4,0,1,,,,,,,,,,,,,,,,,,,,,,,,,,,,,,,,,,,,,,,,,
424894,001,2022-11-20_20h55.46.563,Info_measure_main_exp,2022.2.2,Linux x86_64,6.6693344,,,,,,,,,,,,,,,,,,,,,,,,,,,,,,0,4.2983,1,,,,,,,,,,,,0,131,5,5,2190,1950,absent_patch/patch0002190.jpg,absent_patch/patch0001950.jpg,,,,,,,,,,,,,,,,,,,-0.008333333,0.017592593,1,0,0,response7disk,13,-0.006481481,0.00462963,1,0,0,center_square,0,12,12,73,1,,,,,,,,,,,,,,,,,,,,,,,
424894,001,2022-11-20_20h55.46.563,Info_measure_main_exp,2022.2.2,Linux x86_64,6.6693344,,,,,,,,,,,,,,,,,,masks/mask_004.jpg,,,,,,,,,,,,,,,,,,,,,,,,,,,,,,,,,,,,,,,,,,0,0,0,3,1,,,,,,,,,,,,,,,,,,,,,,,,,,,,,,,,,,,,,,,,,,,,,,
424894,001,2022-11-20_20h55.46.563,Info_measure_main_exp,2022.2.2,Linux x86_64,6.6693344,,,,,,,,,,,,,,,,,,masks/mask_001.jpg,,,,,,,,,,,,,,,,,,,,,,,,,,,,,,,,,,,,,,,,,,0,1,1,0,1,,,,,,,,,,,,,,,,,,,,,,,,,,,,,,,,,,,,,,,,,,,,,,
424894,001,2022-11-20_20h55.46.563,Info_measure_main_exp,2022.2.2,Linux x86_64,6.6693344,,,,,,,,,,,,,,,,,,masks/mask_003.jpg,,,,,,,,,,,,,,,,,,,,,,,,,,,,,,,,,,,,,,,,,,0,2,2,2,1,,,,,,,,,,,,,,,,,,,,,,,,,,,,,,,,,,,,,,,,,,,,,,
424894,001,2022-11-20_20h55.46.563,Info_measure_main_exp,2022.2.2,Linux x86_64,6.6693344,,,,,,,,,,,,,,,,,,masks/mask_002.jpg,,,,,,,,,,,,,,,,,,,,,,,,,,,,,,,,,,,,,,,,,,0,3,3,1,1,,,,,,,,,,,,,,,,,,,,,,,,,,,,,,,,,,,,,,,,,,,,,,
424894,001,2022-11-20_20h55.46.563,Info_measure_main_exp,2022.2.2,Linux x86_64,6.6693344,,,,,,,,,,,,,,,,,,masks/mask_005.jpg,,,,,,,,,,,,,,,,,,,,,,,,,,,,,,,,,,,,,,,,,,0,4,4,4,1,,,,,,,,,,,,,,,,,,,,,,,,,,,,,,,,,,,,,,,,,,,,,,
424894,001,2022-11-20_20h55.46.563,Info_measure_main_exp,2022.2.2,Linux x86_64,6.6693344,,,,,,,,,,,,,,,,,,masks/mask_005.jpg,,,,,,,,,,,,,,,,,,,,,,,,,,,,,,,,,,,,,,,,,,,,,,,0,0,0,4,1,,,,,,,,,,,,,,,,,,,,,,,,,,,,,,,,,,,,,,,,,
424894,001,2022-11-20_20h55.46.563,Info_measure_main_exp,2022.2.2,Linux x86_64,6.6693344,,,,,,,,,,,,,,,,,,masks/mask_003.jpg,,,,,,,,,,,,,,,,,,,,,,,,,,,,,,,,,,,,,,,,,,,,,,,0,1,1,2,1,,,,,,,,,,,,,,,,,,,,,,,,,,,,,,,,,,,,,,,,,
424894,001,2022-11-20_20h55.46.563,Info_measure_main_exp,2022.2.2,Linux x86_64,6.6693344,,,,,,,,,,,,,,,,,,masks/mask_001.jpg,,,,,,,,,,,,,,,,,,,,,,,,,,,,,,,,,,,,,,,,,,,,,,,0,2,2,0,1,,,,,,,,,,,,,,,,,,,,,,,,,,,,,,,,,,,,,,,,,
424894,001,2022-11-20_20h55.46.563,Info_measure_main_exp,2022.2.2,Linux x86_64,6.6693344,,,,,,,,,,,,,,,,,,masks/mask_004.jpg,,,,,,,,,,,,,,,,,,,,,,,,,,,,,,,,,,,,,,,,,,,,,,,0,3,3,3,1,,,,,,,,,,,,,,,,,,,,,,,,,,,,,,,,,,,,,,,,,
424894,001,2022-11-20_20h55.46.563,Info_measure_main_exp,2022.2.2,Linux x86_64,6.6693344,,,,,,,,,,,,,,,,,,masks/mask_002.jpg,,,,,,,,,,,,,,,,,,,,,,,,,,,,,,,,,,,,,,,,,,,,,,,0,4,4,1,1,,,,,,,,,,,,,,,,,,,,,,,,,,,,,,,,,,,,,,,,,
424894,001,2022-11-20_20h55.46.563,Info_measure_main_exp,2022.2.2,Linux x86_64,6.6693344,,,,,,,,,,,,,,,,,,,,,,,,,,,,,,0,1.2578,1,,,,,,,,,,,,0,131,5,5,2214,1986,absent_patch/patch0002214.jpg,absent_patch/patch0001986.jpg,,,,,,,,,,,,,,,,,,,-0.013888889,0.042592593,1,0,0,response7disk,14,0.000925926,0.00462963,1,0,0,center_square,0,13,13,34,1,,,,,,,,,,,,,,,,,,,,,,,
424894,001,2022-11-20_20h55.46.563,Info_measure_main_exp,2022.2.2,Linux x86_64,6.6693344,,,,,,,,,,,,,,,,,,masks/mask_002.jpg,,,,,,,,,,,,,,,,,,,,,,,,,,,,,,,,,,,,,,,,,,0,0,0,1,1,,,,,,,,,,,,,,,,,,,,,,,,,,,,,,,,,,,,,,,,,,,,,,
424894,001,2022-11-20_20h55.46.563,Info_measure_main_exp,2022.2.2,Linux x86_64,6.6693344,,,,,,,,,,,,,,,,,,masks/mask_005.jpg,,,,,,,,,,,,,,,,,,,,,,,,,,,,,,,,,,,,,,,,,,0,1,1,4,1,,,,,,,,,,,,,,,,,,,,,,,,,,,,,,,,,,,,,,,,,,,,,,
424894,001,2022-11-20_20h55.46.563,Info_measure_main_exp,2022.2.2,Linux x86_64,6.6693344,,,,,,,,,,,,,,,,,,masks/mask_001.jpg,,,,,,,,,,,,,,,,,,,,,,,,,,,,,,,,,,,,,,,,,,0,2,2,0,1,,,,,,,,,,,,,,,,,,,,,,,,,,,,,,,,,,,,,,,,,,,,,,
424894,001,2022-11-20_20h55.46.563,Info_measure_main_exp,2022.2.2,Linux x86_64,6.6693344,,,,,,,,,,,,,,,,,,masks/mask_004.jpg,,,,,,,,,,,,,,,,,,,,,,,,,,,,,,,,,,,,,,,,,,0,3,3,3,1,,,,,,,,,,,,,,,,,,,,,,,,,,,,,,,,,,,,,,,,,,,,,,
424894,001,2022-11-20_20h55.46.563,Info_measure_main_exp,2022.2.2,Linux x86_64,6.6693344,,,,,,,,,,,,,,,,,,masks/mask_003.jpg,,,,,,,,,,,,,,,,,,,,,,,,,,,,,,,,,,,,,,,,,,0,4,4,2,1,,,,,,,,,,,,,,,,,,,,,,,,,,,,,,,,,,,,,,,,,,,,,,
424894,001,2022-11-20_20h55.46.563,Info_measure_main_exp,2022.2.2,Linux x86_64,6.6693344,,,,,,,,,,,,,,,,,,masks/mask_004.jpg,,,,,,,,,,,,,,,,,,,,,,,,,,,,,,,,,,,,,,,,,,,,,,,0,0,0,3,1,,,,,,,,,,,,,,,,,,,,,,,,,,,,,,,,,,,,,,,,,
424894,001,2022-11-20_20h55.46.563,Info_measure_main_exp,2022.2.2,Linux x86_64,6.6693344,,,,,,,,,,,,,,,,,,masks/mask_002.jpg,,,,,,,,,,,,,,,,,,,,,,,,,,,,,,,,,,,,,,,,,,,,,,,0,1,1,1,1,,,,,,,,,,,,,,,,,,,,,,,,,,,,,,,,,,,,,,,,,
424894,001,2022-11-20_20h55.46.563,Info_measure_main_exp,2022.2.2,Linux x86_64,6.6693344,,,,,,,,,,,,,,,,,,masks/mask_001.jpg,,,,,,,,,,,,,,,,,,,,,,,,,,,,,,,,,,,,,,,,,,,,,,,0,2,2,0,1,,,,,,,,,,,,,,,,,,,,,,,,,,,,,,,,,,,,,,,,,
424894,001,2022-11-20_20h55.46.563,Info_measure_main_exp,2022.2.2,Linux x86_64,6.6693344,,,,,,,,,,,,,,,,,,masks/mask_003.jpg,,,,,,,,,,,,,,,,,,,,,,,,,,,,,,,,,,,,,,,,,,,,,,,0,3,3,2,1,,,,,,,,,,,,,,,,,,,,,,,,,,,,,,,,,,,,,,,,,
424894,001,2022-11-20_20h55.46.563,Info_measure_main_exp,2022.2.2,Linux x86_64,6.6693344,,,,,,,,,,,,,,,,,,masks/mask_005.jpg,,,,,,,,,,,,,,,,,,,,,,,,,,,,,,,,,,,,,,,,,,,,,,,0,4,4,4,1,,,,,,,,,,,,,,,,,,,,,,,,,,,,,,,,,,,,,,,,,
424894,001,2022-11-20_20h55.46.563,Info_measure_main_exp,2022.2.2,Linux x86_64,6.6693344,,,,,,,,,,,,,,,,,,,,,,,,,,,,,,0,0.6922,1,,,,,,,,,,,,0,131,5,5,2154,2154,absent_patch/patch0002154.jpg,absent_patch/patch0002154.jpg,,,,,,,,,,,,,,,,,,,-0.024074074,0.059259259,1,0,0,response7disk,15,0,0.00462963,1,0,0,center_square,0,14,14,89,1,,,,,,,,,,,,,,,,,,,,,,,
424894,001,2022-11-20_20h55.46.563,Info_measure_main_exp,2022.2.2,Linux x86_64,6.6693344,,,,,,,,,,,,,,,,,,masks/mask_001.jpg,,,,,,,,,,,,,,,,,,,,,,,,,,,,,,,,,,,,,,,,,,0,0,0,0,1,,,,,,,,,,,,,,,,,,,,,,,,,,,,,,,,,,,,,,,,,,,,,,
424894,001,2022-11-20_20h55.46.563,Info_measure_main_exp,2022.2.2,Linux x86_64,6.6693344,,,,,,,,,,,,,,,,,,masks/mask_004.jpg,,,,,,,,,,,,,,,,,,,,,,,,,,,,,,,,,,,,,,,,,,0,1,1,3,1,,,,,,,,,,,,,,,,,,,,,,,,,,,,,,,,,,,,,,,,,,,,,,
424894,001,2022-11-20_20h55.46.563,Info_measure_main_exp,2022.2.2,Linux x86_64,6.6693344,,,,,,,,,,,,,,,,,,masks/mask_003.jpg,,,,,,,,,,,,,,,,,,,,,,,,,,,,,,,,,,,,,,,,,,0,2,2,2,1,,,,,,,,,,,,,,,,,,,,,,,,,,,,,,,,,,,,,,,,,,,,,,
424894,001,2022-11-20_20h55.46.563,Info_measure_main_exp,2022.2.2,Linux x86_64,6.6693344,,,,,,,,,,,,,,,,,,masks/mask_002.jpg,,,,,,,,,,,,,,,,,,,,,,,,,,,,,,,,,,,,,,,,,,0,3,3,1,1,,,,,,,,,,,,,,,,,,,,,,,,,,,,,,,,,,,,,,,,,,,,,,
424894,001,2022-11-20_20h55.46.563,Info_measure_main_exp,2022.2.2,Linux x86_64,6.6693344,,,,,,,,,,,,,,,,,,masks/mask_005.jpg,,,,,,,,,,,,,,,,,,,,,,,,,,,,,,,,,,,,,,,,,,0,4,4,4,1,,,,,,,,,,,,,,,,,,,,,,,,,,,,,,,,,,,,,,,,,,,,,,
424894,001,2022-11-20_20h55.46.563,Info_measure_main_exp,2022.2.2,Linux x86_64,6.6693344,,,,,,,,,,,,,,,,,,masks/mask_002.jpg,,,,,,,,,,,,,,,,,,,,,,,,,,,,,,,,,,,,,,,,,,,,,,,0,0,0,1,1,,,,,,,,,,,,,,,,,,,,,,,,,,,,,,,,,,,,,,,,,
424894,001,2022-11-20_20h55.46.563,Info_measure_main_exp,2022.2.2,Linux x86_64,6.6693344,,,,,,,,,,,,,,,,,,masks/mask_005.jpg,,,,,,,,,,,,,,,,,,,,,,,,,,,,,,,,,,,,,,,,,,,,,,,0,1,1,4,1,,,,,,,,,,,,,,,,,,,,,,,,,,,,,,,,,,,,,,,,,
424894,001,2022-11-20_20h55.46.563,Info_measure_main_exp,2022.2.2,Linux x86_64,6.6693344,,,,,,,,,,,,,,,,,,masks/mask_004.jpg,,,,,,,,,,,,,,,,,,,,,,,,,,,,,,,,,,,,,,,,,,,,,,,0,2,2,3,1,,,,,,,,,,,,,,,,,,,,,,,,,,,,,,,,,,,,,,,,,
424894,001,2022-11-20_20h55.46.563,Info_measure_main_exp,2022.2.2,Linux x86_64,6.6693344,,,,,,,,,,,,,,,,,,masks/mask_003.jpg,,,,,,,,,,,,,,,,,,,,,,,,,,,,,,,,,,,,,,,,,,,,,,,0,3,3,2,1,,,,,,,,,,,,,,,,,,,,,,,,,,,,,,,,,,,,,,,,,
424894,001,2022-11-20_20h55.46.563,Info_measure_main_exp,2022.2.2,Linux x86_64,6.6693344,,,,,,,,,,,,,,,,,,masks/mask_001.jpg,,,,,,,,,,,,,,,,,,,,,,,,,,,,,,,,,,,,,,,,,,,,,,,0,4,4,0,1,,,,,,,,,,,,,,,,,,,,,,,,,,,,,,,,,,,,,,,,,
424894,001,2022-11-20_20h55.46.563,Info_measure_main_exp,2022.2.2,Linux x86_64,6.6693344,,,,,,,,,,,,,,,,,,,,,,,,,,,,,,0,0.7054,1,,,,,,,,,,,,0,131,5,5,2250,2142,absent_patch/patch0002250.jpg,absent_patch/patch0002142.jpg,,,,,,,,,,,,,,,,,,,-0.019444444,0.059259259,1,0,0,response7disk,16,0.003703704,0.00462963,1,0,0,center_square,0,15,15,71,1,,,,,,,,,,,,,,,,,,,,,,,
424894,001,2022-11-20_20h55.46.563,Info_measure_main_exp,2022.2.2,Linux x86_64,6.6693344,,,,,,,,,,,,,,,,,,masks/mask_004.jpg,,,,,,,,,,,,,,,,,,,,,,,,,,,,,,,,,,,,,,,,,,0,0,0,3,1,,,,,,,,,,,,,,,,,,,,,,,,,,,,,,,,,,,,,,,,,,,,,,
424894,001,2022-11-20_20h55.46.563,Info_measure_main_exp,2022.2.2,Linux x86_64,6.6693344,,,,,,,,,,,,,,,,,,masks/mask_003.jpg,,,,,,,,,,,,,,,,,,,,,,,,,,,,,,,,,,,,,,,,,,0,1,1,2,1,,,,,,,,,,,,,,,,,,,,,,,,,,,,,,,,,,,,,,,,,,,,,,
424894,001,2022-11-20_20h55.46.563,Info_measure_main_exp,2022.2.2,Linux x86_64,6.6693344,,,,,,,,,,,,,,,,,,masks/mask_005.jpg,,,,,,,,,,,,,,,,,,,,,,,,,,,,,,,,,,,,,,,,,,0,2,2,4,1,,,,,,,,,,,,,,,,,,,,,,,,,,,,,,,,,,,,,,,,,,,,,,
424894,001,2022-11-20_20h55.46.563,Info_measure_main_exp,2022.2.2,Linux x86_64,6.6693344,,,,,,,,,,,,,,,,,,masks/mask_002.jpg,,,,,,,,,,,,,,,,,,,,,,,,,,,,,,,,,,,,,,,,,,0,3,3,1,1,,,,,,,,,,,,,,,,,,,,,,,,,,,,,,,,,,,,,,,,,,,,,,
424894,001,2022-11-20_20h55.46.563,Info_measure_main_exp,2022.2.2,Linux x86_64,6.6693344,,,,,,,,,,,,,,,,,,masks/mask_001.jpg,,,,,,,,,,,,,,,,,,,,,,,,,,,,,,,,,,,,,,,,,,0,4,4,0,1,,,,,,,,,,,,,,,,,,,,,,,,,,,,,,,,,,,,,,,,,,,,,,
424894,001,2022-11-20_20h55.46.563,Info_measure_main_exp,2022.2.2,Linux x86_64,6.6693344,,,,,,,,,,,,,,,,,,masks/mask_005.jpg,,,,,,,,,,,,,,,,,,,,,,,,,,,,,,,,,,,,,,,,,,,,,,,0,0,0,4,1,,,,,,,,,,,,,,,,,,,,,,,,,,,,,,,,,,,,,,,,,
424894,001,2022-11-20_20h55.46.563,Info_measure_main_exp,2022.2.2,Linux x86_64,6.6693344,,,,,,,,,,,,,,,,,,masks/mask_003.jpg,,,,,,,,,,,,,,,,,,,,,,,,,,,,,,,,,,,,,,,,,,,,,,,0,1,1,2,1,,,,,,,,,,,,,,,,,,,,,,,,,,,,,,,,,,,,,,,,,
424894,001,2022-11-20_20h55.46.563,Info_measure_main_exp,2022.2.2,Linux x86_64,6.6693344,,,,,,,,,,,,,,,,,,masks/mask_002.jpg,,,,,,,,,,,,,,,,,,,,,,,,,,,,,,,,,,,,,,,,,,,,,,,0,2,2,1,1,,,,,,,,,,,,,,,,,,,,,,,,,,,,,,,,,,,,,,,,,
424894,001,2022-11-20_20h55.46.563,Info_measure_main_exp,2022.2.2,Linux x86_64,6.6693344,,,,,,,,,,,,,,,,,,masks/mask_001.jpg,,,,,,,,,,,,,,,,,,,,,,,,,,,,,,,,,,,,,,,,,,,,,,,0,3,3,0,1,,,,,,,,,,,,,,,,,,,,,,,,,,,,,,,,,,,,,,,,,
424894,001,2022-11-20_20h55.46.563,Info_measure_main_exp,2022.2.2,Linux x86_64,6.6693344,,,,,,,,,,,,,,,,,,masks/mask_004.jpg,,,,,,,,,,,,,,,,,,,,,,,,,,,,,,,,,,,,,,,,,,,,,,,0,4,4,3,1,,,,,,,,,,,,,,,,,,,,,,,,,,,,,,,,,,,,,,,,,
424894,001,2022-11-20_20h55.46.563,Info_measure_main_exp,2022.2.2,Linux x86_64,6.6693344,,,,,,,,,,,,,,,,,,,,,,,,,,,,,,0,0.8939,1,,,,,,,,,,,,0,131,5,5,1950,2166,absent_patch/patch0001950.jpg,absent_patch/patch0002166.jpg,,,,,,,,,,,,,,,,,,,-0.047222222,0.084259259,1,0,0,response7disk,17,-0.00462963,0.003703704,1,0,0,center_square,0,16,16,0,1,,,,,,,,,,,,,,,,,,,,,,,
424894,001,2022-11-20_20h55.46.563,Info_measure_main_exp,2022.2.2,Linux x86_64,6.6693344,,,,,,,,,,,,,,,,,,masks/mask_005.jpg,,,,,,,,,,,,,,,,,,,,,,,,,,,,,,,,,,,,,,,,,,0,0,0,4,1,,,,,,,,,,,,,,,,,,,,,,,,,,,,,,,,,,,,,,,,,,,,,,
424894,001,2022-11-20_20h55.46.563,Info_measure_main_exp,2022.2.2,Linux x86_64,6.6693344,,,,,,,,,,,,,,,,,,masks/mask_003.jpg,,,,,,,,,,,,,,,,,,,,,,,,,,,,,,,,,,,,,,,,,,0,1,1,2,1,,,,,,,,,,,,,,,,,,,,,,,,,,,,,,,,,,,,,,,,,,,,,,
424894,001,2022-11-20_20h55.46.563,Info_measure_main_exp,2022.2.2,Linux x86_64,6.6693344,,,,,,,,,,,,,,,,,,masks/mask_001.jpg,,,,,,,,,,,,,,,,,,,,,,,,,,,,,,,,,,,,,,,,,,0,2,2,0,1,,,,,,,,,,,,,,,,,,,,,,,,,,,,,,,,,,,,,,,,,,,,,,
424894,001,2022-11-20_20h55.46.563,Info_measure_main_exp,2022.2.2,Linux x86_64,6.6693344,,,,,,,,,,,,,,,,,,masks/mask_004.jpg,,,,,,,,,,,,,,,,,,,,,,,,,,,,,,,,,,,,,,,,,,0,3,3,3,1,,,,,,,,,,,,,,,,,,,,,,,,,,,,,,,,,,,,,,,,,,,,,,
424894,001,2022-11-20_20h55.46.563,Info_measure_main_exp,2022.2.2,Linux x86_64,6.6693344,,,,,,,,,,,,,,,,,,masks/mask_002.jpg,,,,,,,,,,,,,,,,,,,,,,,,,,,,,,,,,,,,,,,,,,0,4,4,1,1,,,,,,,,,,,,,,,,,,,,,,,,,,,,,,,,,,,,,,,,,,,,,,
424894,001,2022-11-20_20h55.46.563,Info_measure_main_exp,2022.2.2,Linux x86_64,6.6693344,,,,,,,,,,,,,,,,,,masks/mask_003.jpg,,,,,,,,,,,,,,,,,,,,,,,,,,,,,,,,,,,,,,,,,,,,,,,0,0,0,2,1,,,,,,,,,,,,,,,,,,,,,,,,,,,,,,,,,,,,,,,,,
424894,001,2022-11-20_20h55.46.563,Info_measure_main_exp,2022.2.2,Linux x86_64,6.6693344,,,,,,,,,,,,,,,,,,masks/mask_001.jpg,,,,,,,,,,,,,,,,,,,,,,,,,,,,,,,,,,,,,,,,,,,,,,,0,1,1,0,1,,,,,,,,,,,,,,,,,,,,,,,,,,,,,,,,,,,,,,,,,
424894,001,2022-11-20_20h55.46.563,Info_measure_main_exp,2022.2.2,Linux x86_64,6.6693344,,,,,,,,,,,,,,,,,,masks/mask_005.jpg,,,,,,,,,,,,,,,,,,,,,,,,,,,,,,,,,,,,,,,,,,,,,,,0,2,2,4,1,,,,,,,,,,,,,,,,,,,,,,,,,,,,,,,,,,,,,,,,,
424894,001,2022-11-20_20h55.46.563,Info_measure_main_exp,2022.2.2,Linux x86_64,6.6693344,,,,,,,,,,,,,,,,,,masks/mask_004.jpg,,,,,,,,,,,,,,,,,,,,,,,,,,,,,,,,,,,,,,,,,,,,,,,0,3,3,3,1,,,,,,,,,,,,,,,,,,,,,,,,,,,,,,,,,,,,,,,,,
424894,001,2022-11-20_20h55.46.563,Info_measure_main_exp,2022.2.2,Linux x86_64,6.6693344,,,,,,,,,,,,,,,,,,masks/mask_002.jpg,,,,,,,,,,,,,,,,,,,,,,,,,,,,,,,,,,,,,,,,,,,,,,,0,4,4,1,1,,,,,,,,,,,,,,,,,,,,,,,,,,,,,,,,,,,,,,,,,
424894,001,2022-11-20_20h55.46.563,Info_measure_main_exp,2022.2.2,Linux x86_64,6.6693344,,,,,,,,,,,,,,,,,,,,,,,,,,,,,,0,1.0728,1,,,,,,,,,,,,0,131,5,5,2274,2238,absent_patch/patch0002274.jpg,absent_patch/patch0002238.jpg,,,,,,,,,,,,,,,,,,,-0.007407407,0.046296296,1,0,0,response7disk,18,-0.005555556,0.000925926,1,0,0,center_square,0,17,17,91,1,,,,,,,,,,,,,,,,,,,,,,,
424894,001,2022-11-20_20h55.46.563,Info_measure_main_exp,2022.2.2,Linux x86_64,6.6693344,,,,,,,,,,,,,,,,,,masks/mask_004.jpg,,,,,,,,,,,,,,,,,,,,,,,,,,,,,,,,,,,,,,,,,,0,0,0,3,1,,,,,,,,,,,,,,,,,,,,,,,,,,,,,,,,,,,,,,,,,,,,,,
424894,001,2022-11-20_20h55.46.563,Info_measure_main_exp,2022.2.2,Linux x86_64,6.6693344,,,,,,,,,,,,,,,,,,masks/mask_005.jpg,,,,,,,,,,,,,,,,,,,,,,,,,,,,,,,,,,,,,,,,,,0,1,1,4,1,,,,,,,,,,,,,,,,,,,,,,,,,,,,,,,,,,,,,,,,,,,,,,
424894,001,2022-11-20_20h55.46.563,Info_measure_main_exp,2022.2.2,Linux x86_64,6.6693344,,,,,,,,,,,,,,,,,,masks/mask_002.jpg,,,,,,,,,,,,,,,,,,,,,,,,,,,,,,,,,,,,,,,,,,0,2,2,1,1,,,,,,,,,,,,,,,,,,,,,,,,,,,,,,,,,,,,,,,,,,,,,,
424894,001,2022-11-20_20h55.46.563,Info_measure_main_exp,2022.2.2,Linux x86_64,6.6693344,,,,,,,,,,,,,,,,,,masks/mask_001.jpg,,,,,,,,,,,,,,,,,,,,,,,,,,,,,,,,,,,,,,,,,,0,3,3,0,1,,,,,,,,,,,,,,,,,,,,,,,,,,,,,,,,,,,,,,,,,,,,,,
424894,001,2022-11-20_20h55.46.563,Info_measure_main_exp,2022.2.2,Linux x86_64,6.6693344,,,,,,,,,,,,,,,,,,masks/mask_003.jpg,,,,,,,,,,,,,,,,,,,,,,,,,,,,,,,,,,,,,,,,,,0,4,4,2,1,,,,,,,,,,,,,,,,,,,,,,,,,,,,,,,,,,,,,,,,,,,,,,
424894,001,2022-11-20_20h55.46.563,Info_measure_main_exp,2022.2.2,Linux x86_64,6.6693344,,,,,,,,,,,,,,,,,,masks/mask_005.jpg,,,,,,,,,,,,,,,,,,,,,,,,,,,,,,,,,,,,,,,,,,,,,,,0,0,0,4,1,,,,,,,,,,,,,,,,,,,,,,,,,,,,,,,,,,,,,,,,,
424894,001,2022-11-20_20h55.46.563,Info_measure_main_exp,2022.2.2,Linux x86_64,6.6693344,,,,,,,,,,,,,,,,,,masks/mask_001.jpg,,,,,,,,,,,,,,,,,,,,,,,,,,,,,,,,,,,,,,,,,,,,,,,0,1,1,0,1,,,,,,,,,,,,,,,,,,,,,,,,,,,,,,,,,,,,,,,,,
424894,001,2022-11-20_20h55.46.563,Info_measure_main_exp,2022.2.2,Linux x86_64,6.6693344,,,,,,,,,,,,,,,,,,masks/mask_003.jpg,,,,,,,,,,,,,,,,,,,,,,,,,,,,,,,,,,,,,,,,,,,,,,,0,2,2,2,1,,,,,,,,,,,,,,,,,,,,,,,,,,,,,,,,,,,,,,,,,
424894,001,2022-11-20_20h55.46.563,Info_measure_main_exp,2022.2.2,Linux x86_64,6.6693344,,,,,,,,,,,,,,,,,,masks/mask_002.jpg,,,,,,,,,,,,,,,,,,,,,,,,,,,,,,,,,,,,,,,,,,,,,,,0,3,3,1,1,,,,,,,,,,,,,,,,,,,,,,,,,,,,,,,,,,,,,,,,,
424894,001,2022-11-20_20h55.46.563,Info_measure_main_exp,2022.2.2,Linux x86_64,6.6693344,,,,,,,,,,,,,,,,,,masks/mask_004.jpg,,,,,,,,,,,,,,,,,,,,,,,,,,,,,,,,,,,,,,,,,,,,,,,0,4,4,3,1,,,,,,,,,,,,,,,,,,,,,,,,,,,,,,,,,,,,,,,,,
424894,001,2022-11-20_20h55.46.563,Info_measure_main_exp,2022.2.2,Linux x86_64,6.6693344,,,,,,,,,,,,,,,,,,,,,,,,,,,,,,0,0.8746,1,,,,,,,,,,,,0,131,5,5,2142,2082,absent_patch/patch0002142.jpg,absent_patch/patch0002082.jpg,,,,,,,,,,,,,,,,,,,-0.00462963,0.028703704,1,0,0,response7disk,19,-0.000925926,-0.006481481,1,0,0,center_square,0,18,18,88,1,,,,,,,,,,,,,,,,,,,,,,,
424894,001,2022-11-20_20h55.46.563,Info_measure_main_exp,2022.2.2,Linux x86_64,6.6693344,,,,,,,,,,,,,,,,,,masks/mask_005.jpg,,,,,,,,,,,,,,,,,,,,,,,,,,,,,,,,,,,,,,,,,,0,0,0,4,1,,,,,,,,,,,,,,,,,,,,,,,,,,,,,,,,,,,,,,,,,,,,,,
424894,001,2022-11-20_20h55.46.563,Info_measure_main_exp,2022.2.2,Linux x86_64,6.6693344,,,,,,,,,,,,,,,,,,masks/mask_003.jpg,,,,,,,,,,,,,,,,,,,,,,,,,,,,,,,,,,,,,,,,,,0,1,1,2,1,,,,,,,,,,,,,,,,,,,,,,,,,,,,,,,,,,,,,,,,,,,,,,
424894,001,2022-11-20_20h55.46.563,Info_measure_main_exp,2022.2.2,Linux x86_64,6.6693344,,,,,,,,,,,,,,,,,,masks/mask_002.jpg,,,,,,,,,,,,,,,,,,,,,,,,,,,,,,,,,,,,,,,,,,0,2,2,1,1,,,,,,,,,,,,,,,,,,,,,,,,,,,,,,,,,,,,,,,,,,,,,,
424894,001,2022-11-20_20h55.46.563,Info_measure_main_exp,2022.2.2,Linux x86_64,6.6693344,,,,,,,,,,,,,,,,,,masks/mask_004.jpg,,,,,,,,,,,,,,,,,,,,,,,,,,,,,,,,,,,,,,,,,,0,3,3,3,1,,,,,,,,,,,,,,,,,,,,,,,,,,,,,,,,,,,,,,,,,,,,,,
424894,001,2022-11-20_20h55.46.563,Info_measure_main_exp,2022.2.2,Linux x86_64,6.6693344,,,,,,,,,,,,,,,,,,masks/mask_001.jpg,,,,,,,,,,,,,,,,,,,,,,,,,,,,,,,,,,,,,,,,,,0,4,4,0,1,,,,,,,,,,,,,,,,,,,,,,,,,,,,,,,,,,,,,,,,,,,,,,
424894,001,2022-11-20_20h55.46.563,Info_measure_main_exp,2022.2.2,Linux x86_64,6.6693344,,,,,,,,,,,,,,,,,,masks/mask_004.jpg,,,,,,,,,,,,,,,,,,,,,,,,,,,,,,,,,,,,,,,,,,,,,,,0,0,0,3,1,,,,,,,,,,,,,,,,,,,,,,,,,,,,,,,,,,,,,,,,,
424894,001,2022-11-20_20h55.46.563,Info_measure_main_exp,2022.2.2,Linux x86_64,6.6693344,,,,,,,,,,,,,,,,,,masks/mask_001.jpg,,,,,,,,,,,,,,,,,,,,,,,,,,,,,,,,,,,,,,,,,,,,,,,0,1,1,0,1,,,,,,,,,,,,,,,,,,,,,,,,,,,,,,,,,,,,,,,,,
424894,001,2022-11-20_20h55.46.563,Info_measure_main_exp,2022.2.2,Linux x86_64,6.6693344,,,,,,,,,,,,,,,,,,masks/mask_002.jpg,,,,,,,,,,,,,,,,,,,,,,,,,,,,,,,,,,,,,,,,,,,,,,,0,2,2,1,1,,,,,,,,,,,,,,,,,,,,,,,,,,,,,,,,,,,,,,,,,
424894,001,2022-11-20_20h55.46.563,Info_measure_main_exp,2022.2.2,Linux x86_64,6.6693344,,,,,,,,,,,,,,,,,,masks/mask_003.jpg,,,,,,,,,,,,,,,,,,,,,,,,,,,,,,,,,,,,,,,,,,,,,,,0,3,3,2,1,,,,,,,,,,,,,,,,,,,,,,,,,,,,,,,,,,,,,,,,,
424894,001,2022-11-20_20h55.46.563,Info_measure_main_exp,2022.2.2,Linux x86_64,6.6693344,,,,,,,,,,,,,,,,,,masks/mask_005.jpg,,,,,,,,,,,,,,,,,,,,,,,,,,,,,,,,,,,,,,,,,,,,,,,0,4,4,4,1,,,,,,,,,,,,,,,,,,,,,,,,,,,,,,,,,,,,,,,,,
424894,001,2022-11-20_20h55.46.563,Info_measure_main_exp,2022.2.2,Linux x86_64,6.6693344,,,,,,,,,,,,,,,,,,,,,,,,,,,,,,0,0.8655,1,,,,,,,,,,,,0,131,5,5,1974,2166,absent_patch/patch0001974.jpg,absent_patch/patch0002166.jpg,,,,,,,,,,,,,,,,,,,-0.026851852,0.057407407,1,0,0,response7disk,20,0,0.006481481,1,0,0,center_square,0,19,19,77,1,,,,,,,,,,,,,,,,,,,,,,,
424894,001,2022-11-20_20h55.46.563,Info_measure_main_exp,2022.2.2,Linux x86_64,6.6693344,,,,,,,,,,,,,,,,,,masks/mask_004.jpg,,,,,,,,,,,,,,,,,,,,,,,,,,,,,,,,,,,,,,,,,,0,0,0,3,1,,,,,,,,,,,,,,,,,,,,,,,,,,,,,,,,,,,,,,,,,,,,,,
424894,001,2022-11-20_20h55.46.563,Info_measure_main_exp,2022.2.2,Linux x86_64,6.6693344,,,,,,,,,,,,,,,,,,masks/mask_001.jpg,,,,,,,,,,,,,,,,,,,,,,,,,,,,,,,,,,,,,,,,,,0,1,1,0,1,,,,,,,,,,,,,,,,,,,,,,,,,,,,,,,,,,,,,,,,,,,,,,
424894,001,2022-11-20_20h55.46.563,Info_measure_main_exp,2022.2.2,Linux x86_64,6.6693344,,,,,,,,,,,,,,,,,,masks/mask_002.jpg,,,,,,,,,,,,,,,,,,,,,,,,,,,,,,,,,,,,,,,,,,0,2,2,1,1,,,,,,,,,,,,,,,,,,,,,,,,,,,,,,,,,,,,,,,,,,,,,,
424894,001,2022-11-20_20h55.46.563,Info_measure_main_exp,2022.2.2,Linux x86_64,6.6693344,,,,,,,,,,,,,,,,,,masks/mask_003.jpg,,,,,,,,,,,,,,,,,,,,,,,,,,,,,,,,,,,,,,,,,,0,3,3,2,1,,,,,,,,,,,,,,,,,,,,,,,,,,,,,,,,,,,,,,,,,,,,,,
424894,001,2022-11-20_20h55.46.563,Info_measure_main_exp,2022.2.2,Linux x86_64,6.6693344,,,,,,,,,,,,,,,,,,masks/mask_005.jpg,,,,,,,,,,,,,,,,,,,,,,,,,,,,,,,,,,,,,,,,,,0,4,4,4,1,,,,,,,,,,,,,,,,,,,,,,,,,,,,,,,,,,,,,,,,,,,,,,
424894,001,2022-11-20_20h55.46.563,Info_measure_main_exp,2022.2.2,Linux x86_64,6.6693344,,,,,,,,,,,,,,,,,,masks/mask_004.jpg,,,,,,,,,,,,,,,,,,,,,,,,,,,,,,,,,,,,,,,,,,,,,,,0,0,0,3,1,,,,,,,,,,,,,,,,,,,,,,,,,,,,,,,,,,,,,,,,,
424894,001,2022-11-20_20h55.46.563,Info_measure_main_exp,2022.2.2,Linux x86_64,6.6693344,,,,,,,,,,,,,,,,,,masks/mask_003.jpg,,,,,,,,,,,,,,,,,,,,,,,,,,,,,,,,,,,,,,,,,,,,,,,0,1,1,2,1,,,,,,,,,,,,,,,,,,,,,,,,,,,,,,,,,,,,,,,,,
424894,001,2022-11-20_20h55.46.563,Info_measure_main_exp,2022.2.2,Linux x86_64,6.6693344,,,,,,,,,,,,,,,,,,masks/mask_002.jpg,,,,,,,,,,,,,,,,,,,,,,,,,,,,,,,,,,,,,,,,,,,,,,,0,2,2,1,1,,,,,,,,,,,,,,,,,,,,,,,,,,,,,,,,,,,,,,,,,
424894,001,2022-11-20_20h55.46.563,Info_measure_main_exp,2022.2.2,Linux x86_64,6.6693344,,,,,,,,,,,,,,,,,,masks/mask_005.jpg,,,,,,,,,,,,,,,,,,,,,,,,,,,,,,,,,,,,,,,,,,,,,,,0,3,3,4,1,,,,,,,,,,,,,,,,,,,,,,,,,,,,,,,,,,,,,,,,,
424894,001,2022-11-20_20h55.46.563,Info_measure_main_exp,2022.2.2,Linux x86_64,6.6693344,,,,,,,,,,,,,,,,,,masks/mask_001.jpg,,,,,,,,,,,,,,,,,,,,,,,,,,,,,,,,,,,,,,,,,,,,,,,0,4,4,0,1,,,,,,,,,,,,,,,,,,,,,,,,,,,,,,,,,,,,,,,,,
424894,001,2022-11-20_20h55.46.563,Info_measure_main_exp,2022.2.2,Linux x86_64,6.6693344,,,,,,,,,,,,,,,,,,,,,,,,,,,,,,0,0.7031,1,,,,,,,,,,,,0,131,5,5,1974,1950,absent_patch/patch0001974.jpg,absent_patch/patch0001950.jpg,,,,,,,,,,,,,,,,,,,-0.018518519,0.043518519,1,0,0,response7disk,21,0.005555556,0.002777778,1,0,0,center_square,0,20,20,17,1,,,,,,,,,,,,,,,,,,,,,,,
424894,001,2022-11-20_20h55.46.563,Info_measure_main_exp,2022.2.2,Linux x86_64,6.6693344,,,,,,,,,,,,,,,,,,masks/mask_001.jpg,,,,,,,,,,,,,,,,,,,,,,,,,,,,,,,,,,,,,,,,,,0,0,0,0,1,,,,,,,,,,,,,,,,,,,,,,,,,,,,,,,,,,,,,,,,,,,,,,
424894,001,2022-11-20_20h55.46.563,Info_measure_main_exp,2022.2.2,Linux x86_64,6.6693344,,,,,,,,,,,,,,,,,,masks/mask_004.jpg,,,,,,,,,,,,,,,,,,,,,,,,,,,,,,,,,,,,,,,,,,0,1,1,3,1,,,,,,,,,,,,,,,,,,,,,,,,,,,,,,,,,,,,,,,,,,,,,,
424894,001,2022-11-20_20h55.46.563,Info_measure_main_exp,2022.2.2,Linux x86_64,6.6693344,,,,,,,,,,,,,,,,,,masks/mask_005.jpg,,,,,,,,,,,,,,,,,,,,,,,,,,,,,,,,,,,,,,,,,,0,2,2,4,1,,,,,,,,,,,,,,,,,,,,,,,,,,,,,,,,,,,,,,,,,,,,,,
424894,001,2022-11-20_20h55.46.563,Info_measure_main_exp,2022.2.2,Linux x86_64,6.6693344,,,,,,,,,,,,,,,,,,masks/mask_003.jpg,,,,,,,,,,,,,,,,,,,,,,,,,,,,,,,,,,,,,,,,,,0,3,3,2,1,,,,,,,,,,,,,,,,,,,,,,,,,,,,,,,,,,,,,,,,,,,,,,
424894,001,2022-11-20_20h55.46.563,Info_measure_main_exp,2022.2.2,Linux x86_64,6.6693344,,,,,,,,,,,,,,,,,,masks/mask_002.jpg,,,,,,,,,,,,,,,,,,,,,,,,,,,,,,,,,,,,,,,,,,0,4,4,1,1,,,,,,,,,,,,,,,,,,,,,,,,,,,,,,,,,,,,,,,,,,,,,,
424894,001,2022-11-20_20h55.46.563,Info_measure_main_exp,2022.2.2,Linux x86_64,6.6693344,,,,,,,,,,,,,,,,,,masks/mask_003.jpg,,,,,,,,,,,,,,,,,,,,,,,,,,,,,,,,,,,,,,,,,,,,,,,0,0,0,2,1,,,,,,,,,,,,,,,,,,,,,,,,,,,,,,,,,,,,,,,,,
424894,001,2022-11-20_20h55.46.563,Info_measure_main_exp,2022.2.2,Linux x86_64,6.6693344,,,,,,,,,,,,,,,,,,masks/mask_005.jpg,,,,,,,,,,,,,,,,,,,,,,,,,,,,,,,,,,,,,,,,,,,,,,,0,1,1,4,1,,,,,,,,,,,,,,,,,,,,,,,,,,,,,,,,,,,,,,,,,
424894,001,2022-11-20_20h55.46.563,Info_measure_main_exp,2022.2.2,Linux x86_64,6.6693344,,,,,,,,,,,,,,,,,,masks/mask_002.jpg,,,,,,,,,,,,,,,,,,,,,,,,,,,,,,,,,,,,,,,,,,,,,,,0,2,2,1,1,,,,,,,,,,,,,,,,,,,,,,,,,,,,,,,,,,,,,,,,,
424894,001,2022-11-20_20h55.46.563,Info_measure_main_exp,2022.2.2,Linux x86_64,6.6693344,,,,,,,,,,,,,,,,,,masks/mask_001.jpg,,,,,,,,,,,,,,,,,,,,,,,,,,,,,,,,,,,,,,,,,,,,,,,0,3,3,0,1,,,,,,,,,,,,,,,,,,,,,,,,,,,,,,,,,,,,,,,,,
424894,001,2022-11-20_20h55.46.563,Info_measure_main_exp,2022.2.2,Linux x86_64,6.6693344,,,,,,,,,,,,,,,,,,masks/mask_004.jpg,,,,,,,,,,,,,,,,,,,,,,,,,,,,,,,,,,,,,,,,,,,,,,,0,4,4,3,1,,,,,,,,,,,,,,,,,,,,,,,,,,,,,,,,,,,,,,,,,
424894,001,2022-11-20_20h55.46.563,Info_measure_main_exp,2022.2.2,Linux x86_64,6.6693344,,,,,,,,,,,,,,,,,,,,,,,,,,,,,,7,0.8584,1,,,,,,,,,,,,0,131,5,5,2274,1950,absent_patch/patch0002274.jpg,absent_patch/patch0001950.jpg,,,,,,,,,,,,,,,,,,,0.028703704,0.094444444,1,0,0,response1disk,22,0.001851852,0.00462963,1,0,0,center_square,0,21,21,10,1,,,,,,,,,,,,,,,,,,,,,,,
424894,001,2022-11-20_20h55.46.563,Info_measure_main_exp,2022.2.2,Linux x86_64,6.6693344,,,,,,,,,,,,,,,,,,masks/mask_005.jpg,,,,,,,,,,,,,,,,,,,,,,,,,,,,,,,,,,,,,,,,,,0,0,0,4,1,,,,,,,,,,,,,,,,,,,,,,,,,,,,,,,,,,,,,,,,,,,,,,
424894,001,2022-11-20_20h55.46.563,Info_measure_main_exp,2022.2.2,Linux x86_64,6.6693344,,,,,,,,,,,,,,,,,,masks/mask_002.jpg,,,,,,,,,,,,,,,,,,,,,,,,,,,,,,,,,,,,,,,,,,0,1,1,1,1,,,,,,,,,,,,,,,,,,,,,,,,,,,,,,,,,,,,,,,,,,,,,,
424894,001,2022-11-20_20h55.46.563,Info_measure_main_exp,2022.2.2,Linux x86_64,6.6693344,,,,,,,,,,,,,,,,,,masks/mask_001.jpg,,,,,,,,,,,,,,,,,,,,,,,,,,,,,,,,,,,,,,,,,,0,2,2,0,1,,,,,,,,,,,,,,,,,,,,,,,,,,,,,,,,,,,,,,,,,,,,,,
424894,001,2022-11-20_20h55.46.563,Info_measure_main_exp,2022.2.2,Linux x86_64,6.6693344,,,,,,,,,,,,,,,,,,masks/mask_004.jpg,,,,,,,,,,,,,,,,,,,,,,,,,,,,,,,,,,,,,,,,,,0,3,3,3,1,,,,,,,,,,,,,,,,,,,,,,,,,,,,,,,,,,,,,,,,,,,,,,
424894,001,2022-11-20_20h55.46.563,Info_measure_main_exp,2022.2.2,Linux x86_64,6.6693344,,,,,,,,,,,,,,,,,,masks/mask_003.jpg,,,,,,,,,,,,,,,,,,,,,,,,,,,,,,,,,,,,,,,,,,0,4,4,2,1,,,,,,,,,,,,,,,,,,,,,,,,,,,,,,,,,,,,,,,,,,,,,,
424894,001,2022-11-20_20h55.46.563,Info_measure_main_exp,2022.2.2,Linux x86_64,6.6693344,,,,,,,,,,,,,,,,,,masks/mask_004.jpg,,,,,,,,,,,,,,,,,,,,,,,,,,,,,,,,,,,,,,,,,,,,,,,0,0,0,3,1,,,,,,,,,,,,,,,,,,,,,,,,,,,,,,,,,,,,,,,,,
424894,001,2022-11-20_20h55.46.563,Info_measure_main_exp,2022.2.2,Linux x86_64,6.6693344,,,,,,,,,,,,,,,,,,masks/mask_001.jpg,,,,,,,,,,,,,,,,,,,,,,,,,,,,,,,,,,,,,,,,,,,,,,,0,1,1,0,1,,,,,,,,,,,,,,,,,,,,,,,,,,,,,,,,,,,,,,,,,
424894,001,2022-11-20_20h55.46.563,Info_measure_main_exp,2022.2.2,Linux x86_64,6.6693344,,,,,,,,,,,,,,,,,,masks/mask_005.jpg,,,,,,,,,,,,,,,,,,,,,,,,,,,,,,,,,,,,,,,,,,,,,,,0,2,2,4,1,,,,,,,,,,,,,,,,,,,,,,,,,,,,,,,,,,,,,,,,,
424894,001,2022-11-20_20h55.46.563,Info_measure_main_exp,2022.2.2,Linux x86_64,6.6693344,,,,,,,,,,,,,,,,,,masks/mask_003.jpg,,,,,,,,,,,,,,,,,,,,,,,,,,,,,,,,,,,,,,,,,,,,,,,0,3,3,2,1,,,,,,,,,,,,,,,,,,,,,,,,,,,,,,,,,,,,,,,,,
424894,001,2022-11-20_20h55.46.563,Info_measure_main_exp,2022.2.2,Linux x86_64,6.6693344,,,,,,,,,,,,,,,,,,masks/mask_002.jpg,,,,,,,,,,,,,,,,,,,,,,,,,,,,,,,,,,,,,,,,,,,,,,,0,4,4,1,1,,,,,,,,,,,,,,,,,,,,,,,,,,,,,,,,,,,,,,,,,
424894,001,2022-11-20_20h55.46.563,Info_measure_main_exp,2022.2.2,Linux x86_64,6.6693344,,,,,,,,,,,,,,,,,,,,,,,,,,,,,,0,1.9144,1,,,,,,,,,,,,0,131,5,5,2190,2238,absent_patch/patch0002190.jpg,absent_patch/patch0002238.jpg,,,,,,,,,,,,,,,,,,,-0.001851852,0.027777778,1,0,0,response7disk,23,-0.007407407,0.000925926,1,0,0,center_square,0,22,22,53,1,,,,,,,,,,,,,,,,,,,,,,,
424894,001,2022-11-20_20h55.46.563,Info_measure_main_exp,2022.2.2,Linux x86_64,6.6693344,,,,,,,,,,,,,,,,,,masks/mask_002.jpg,,,,,,,,,,,,,,,,,,,,,,,,,,,,,,,,,,,,,,,,,,0,0,0,1,1,,,,,,,,,,,,,,,,,,,,,,,,,,,,,,,,,,,,,,,,,,,,,,
424894,001,2022-11-20_20h55.46.563,Info_measure_main_exp,2022.2.2,Linux x86_64,6.6693344,,,,,,,,,,,,,,,,,,masks/mask_004.jpg,,,,,,,,,,,,,,,,,,,,,,,,,,,,,,,,,,,,,,,,,,0,1,1,3,1,,,,,,,,,,,,,,,,,,,,,,,,,,,,,,,,,,,,,,,,,,,,,,
424894,001,2022-11-20_20h55.46.563,Info_measure_main_exp,2022.2.2,Linux x86_64,6.6693344,,,,,,,,,,,,,,,,,,masks/mask_003.jpg,,,,,,,,,,,,,,,,,,,,,,,,,,,,,,,,,,,,,,,,,,0,2,2,2,1,,,,,,,,,,,,,,,,,,,,,,,,,,,,,,,,,,,,,,,,,,,,,,
424894,001,2022-11-20_20h55.46.563,Info_measure_main_exp,2022.2.2,Linux x86_64,6.6693344,,,,,,,,,,,,,,,,,,masks/mask_005.jpg,,,,,,,,,,,,,,,,,,,,,,,,,,,,,,,,,,,,,,,,,,0,3,3,4,1,,,,,,,,,,,,,,,,,,,,,,,,,,,,,,,,,,,,,,,,,,,,,,
424894,001,2022-11-20_20h55.46.563,Info_measure_main_exp,2022.2.2,Linux x86_64,6.6693344,,,,,,,,,,,,,,,,,,masks/mask_001.jpg,,,,,,,,,,,,,,,,,,,,,,,,,,,,,,,,,,,,,,,,,,0,4,4,0,1,,,,,,,,,,,,,,,,,,,,,,,,,,,,,,,,,,,,,,,,,,,,,,
424894,001,2022-11-20_20h55.46.563,Info_measure_main_exp,2022.2.2,Linux x86_64,6.6693344,,,,,,,,,,,,,,,,,,masks/mask_005.jpg,,,,,,,,,,,,,,,,,,,,,,,,,,,,,,,,,,,,,,,,,,,,,,,0,0,0,4,1,,,,,,,,,,,,,,,,,,,,,,,,,,,,,,,,,,,,,,,,,
424894,001,2022-11-20_20h55.46.563,Info_measure_main_exp,2022.2.2,Linux x86_64,6.6693344,,,,,,,,,,,,,,,,,,masks/mask_004.jpg,,,,,,,,,,,,,,,,,,,,,,,,,,,,,,,,,,,,,,,,,,,,,,,0,1,1,3,1,,,,,,,,,,,,,,,,,,,,,,,,,,,,,,,,,,,,,,,,,
424894,001,2022-11-20_20h55.46.563,Info_measure_main_exp,2022.2.2,Linux x86_64,6.6693344,,,,,,,,,,,,,,,,,,masks/mask_001.jpg,,,,,,,,,,,,,,,,,,,,,,,,,,,,,,,,,,,,,,,,,,,,,,,0,2,2,0,1,,,,,,,,,,,,,,,,,,,,,,,,,,,,,,,,,,,,,,,,,
424894,001,2022-11-20_20h55.46.563,Info_measure_main_exp,2022.2.2,Linux x86_64,6.6693344,,,,,,,,,,,,,,,,,,masks/mask_003.jpg,,,,,,,,,,,,,,,,,,,,,,,,,,,,,,,,,,,,,,,,,,,,,,,0,3,3,2,1,,,,,,,,,,,,,,,,,,,,,,,,,,,,,,,,,,,,,,,,,
424894,001,2022-11-20_20h55.46.563,Info_measure_main_exp,2022.2.2,Linux x86_64,6.6693344,,,,,,,,,,,,,,,,,,masks/mask_002.jpg,,,,,,,,,,,,,,,,,,,,,,,,,,,,,,,,,,,,,,,,,,,,,,,0,4,4,1,1,,,,,,,,,,,,,,,,,,,,,,,,,,,,,,,,,,,,,,,,,
424894,001,2022-11-20_20h55.46.563,Info_measure_main_exp,2022.2.2,Linux x86_64,6.6693344,,,,,,,,,,,,,,,,,,,,,,,,,,,,,,0,0.8751,1,,,,,,,,,,,,0,131,5,5,1950,2142,absent_patch/patch0001950.jpg,absent_patch/patch0002142.jpg,,,,,,,,,,,,,,,,,,,-0.024074074,0.097222222,1,0,0,response7disk,24,-0.000925926,0.00462963,1,0,0,center_square,0,23,23,83,1,,,,,,,,,,,,,,,,,,,,,,,
424894,001,2022-11-20_20h55.46.563,Info_measure_main_exp,2022.2.2,Linux x86_64,6.6693344,,,,,,,,,,,,,,,,,,masks/mask_003.jpg,,,,,,,,,,,,,,,,,,,,,,,,,,,,,,,,,,,,,,,,,,0,0,0,2,1,,,,,,,,,,,,,,,,,,,,,,,,,,,,,,,,,,,,,,,,,,,,,,
424894,001,2022-11-20_20h55.46.563,Info_measure_main_exp,2022.2.2,Linux x86_64,6.6693344,,,,,,,,,,,,,,,,,,masks/mask_005.jpg,,,,,,,,,,,,,,,,,,,,,,,,,,,,,,,,,,,,,,,,,,0,1,1,4,1,,,,,,,,,,,,,,,,,,,,,,,,,,,,,,,,,,,,,,,,,,,,,,
424894,001,2022-11-20_20h55.46.563,Info_measure_main_exp,2022.2.2,Linux x86_64,6.6693344,,,,,,,,,,,,,,,,,,masks/mask_001.jpg,,,,,,,,,,,,,,,,,,,,,,,,,,,,,,,,,,,,,,,,,,0,2,2,0,1,,,,,,,,,,,,,,,,,,,,,,,,,,,,,,,,,,,,,,,,,,,,,,
424894,001,2022-11-20_20h55.46.563,Info_measure_main_exp,2022.2.2,Linux x86_64,6.6693344,,,,,,,,,,,,,,,,,,masks/mask_004.jpg,,,,,,,,,,,,,,,,,,,,,,,,,,,,,,,,,,,,,,,,,,0,3,3,3,1,,,,,,,,,,,,,,,,,,,,,,,,,,,,,,,,,,,,,,,,,,,,,,
424894,001,2022-11-20_20h55.46.563,Info_measure_main_exp,2022.2.2,Linux x86_64,6.6693344,,,,,,,,,,,,,,,,,,masks/mask_002.jpg,,,,,,,,,,,,,,,,,,,,,,,,,,,,,,,,,,,,,,,,,,0,4,4,1,1,,,,,,,,,,,,,,,,,,,,,,,,,,,,,,,,,,,,,,,,,,,,,,
424894,001,2022-11-20_20h55.46.563,Info_measure_main_exp,2022.2.2,Linux x86_64,6.6693344,,,,,,,,,,,,,,,,,,masks/mask_002.jpg,,,,,,,,,,,,,,,,,,,,,,,,,,,,,,,,,,,,,,,,,,,,,,,0,0,0,1,1,,,,,,,,,,,,,,,,,,,,,,,,,,,,,,,,,,,,,,,,,
424894,001,2022-11-20_20h55.46.563,Info_measure_main_exp,2022.2.2,Linux x86_64,6.6693344,,,,,,,,,,,,,,,,,,masks/mask_001.jpg,,,,,,,,,,,,,,,,,,,,,,,,,,,,,,,,,,,,,,,,,,,,,,,0,1,1,0,1,,,,,,,,,,,,,,,,,,,,,,,,,,,,,,,,,,,,,,,,,
424894,001,2022-11-20_20h55.46.563,Info_measure_main_exp,2022.2.2,Linux x86_64,6.6693344,,,,,,,,,,,,,,,,,,masks/mask_004.jpg,,,,,,,,,,,,,,,,,,,,,,,,,,,,,,,,,,,,,,,,,,,,,,,0,2,2,3,1,,,,,,,,,,,,,,,,,,,,,,,,,,,,,,,,,,,,,,,,,
424894,001,2022-11-20_20h55.46.563,Info_measure_main_exp,2022.2.2,Linux x86_64,6.6693344,,,,,,,,,,,,,,,,,,masks/mask_003.jpg,,,,,,,,,,,,,,,,,,,,,,,,,,,,,,,,,,,,,,,,,,,,,,,0,3,3,2,1,,,,,,,,,,,,,,,,,,,,,,,,,,,,,,,,,,,,,,,,,
424894,001,2022-11-20_20h55.46.563,Info_measure_main_exp,2022.2.2,Linux x86_64,6.6693344,,,,,,,,,,,,,,,,,,masks/mask_005.jpg,,,,,,,,,,,,,,,,,,,,,,,,,,,,,,,,,,,,,,,,,,,,,,,0,4,4,4,1,,,,,,,,,,,,,,,,,,,,,,,,,,,,,,,,,,,,,,,,,
424894,001,2022-11-20_20h55.46.563,Info_measure_main_exp,2022.2.2,Linux x86_64,6.6693344,,,,,,,,,,,,,,,,,,,,,,,,,,,,,,0,1.3804,1,,,,,,,,,,,,0,131,5,5,2166,1986,absent_patch/patch0002166.jpg,absent_patch/patch0001986.jpg,,,,,,,,,,,,,,,,,,,-0.013888889,0.064814815,1,0,0,response7disk,25,-0.001851852,0.001851852,1,0,0,center_square,0,24,24,47,1,,,,,,,,,,,,,,,,,,,,,,,
424894,001,2022-11-20_20h55.46.563,Info_measure_main_exp,2022.2.2,Linux x86_64,6.6693344,,,,,,,,,,,,,,,,,,masks/mask_002.jpg,,,,,,,,,,,,,,,,,,,,,,,,,,,,,,,,,,,,,,,,,,0,0,0,1,1,,,,,,,,,,,,,,,,,,,,,,,,,,,,,,,,,,,,,,,,,,,,,,
424894,001,2022-11-20_20h55.46.563,Info_measure_main_exp,2022.2.2,Linux x86_64,6.6693344,,,,,,,,,,,,,,,,,,masks/mask_001.jpg,,,,,,,,,,,,,,,,,,,,,,,,,,,,,,,,,,,,,,,,,,0,1,1,0,1,,,,,,,,,,,,,,,,,,,,,,,,,,,,,,,,,,,,,,,,,,,,,,
424894,001,2022-11-20_20h55.46.563,Info_measure_main_exp,2022.2.2,Linux x86_64,6.6693344,,,,,,,,,,,,,,,,,,masks/mask_004.jpg,,,,,,,,,,,,,,,,,,,,,,,,,,,,,,,,,,,,,,,,,,0,2,2,3,1,,,,,,,,,,,,,,,,,,,,,,,,,,,,,,,,,,,,,,,,,,,,,,
424894,001,2022-11-20_20h55.46.563,Info_measure_main_exp,2022.2.2,Linux x86_64,6.6693344,,,,,,,,,,,,,,,,,,masks/mask_005.jpg,,,,,,,,,,,,,,,,,,,,,,,,,,,,,,,,,,,,,,,,,,0,3,3,4,1,,,,,,,,,,,,,,,,,,,,,,,,,,,,,,,,,,,,,,,,,,,,,,
424894,001,2022-11-20_20h55.46.563,Info_measure_main_exp,2022.2.2,Linux x86_64,6.6693344,,,,,,,,,,,,,,,,,,masks/mask_003.jpg,,,,,,,,,,,,,,,,,,,,,,,,,,,,,,,,,,,,,,,,,,0,4,4,2,1,,,,,,,,,,,,,,,,,,,,,,,,,,,,,,,,,,,,,,,,,,,,,,
424894,001,2022-11-20_20h55.46.563,Info_measure_main_exp,2022.2.2,Linux x86_64,6.6693344,,,,,,,,,,,,,,,,,,masks/mask_001.jpg,,,,,,,,,,,,,,,,,,,,,,,,,,,,,,,,,,,,,,,,,,,,,,,0,0,0,0,1,,,,,,,,,,,,,,,,,,,,,,,,,,,,,,,,,,,,,,,,,
424894,001,2022-11-20_20h55.46.563,Info_measure_main_exp,2022.2.2,Linux x86_64,6.6693344,,,,,,,,,,,,,,,,,,masks/mask_002.jpg,,,,,,,,,,,,,,,,,,,,,,,,,,,,,,,,,,,,,,,,,,,,,,,0,1,1,1,1,,,,,,,,,,,,,,,,,,,,,,,,,,,,,,,,,,,,,,,,,
424894,001,2022-11-20_20h55.46.563,Info_measure_main_exp,2022.2.2,Linux x86_64,6.6693344,,,,,,,,,,,,,,,,,,masks/mask_004.jpg,,,,,,,,,,,,,,,,,,,,,,,,,,,,,,,,,,,,,,,,,,,,,,,0,2,2,3,1,,,,,,,,,,,,,,,,,,,,,,,,,,,,,,,,,,,,,,,,,
424894,001,2022-11-20_20h55.46.563,Info_measure_main_exp,2022.2.2,Linux x86_64,6.6693344,,,,,,,,,,,,,,,,,,masks/mask_005.jpg,,,,,,,,,,,,,,,,,,,,,,,,,,,,,,,,,,,,,,,,,,,,,,,0,3,3,4,1,,,,,,,,,,,,,,,,,,,,,,,,,,,,,,,,,,,,,,,,,
424894,001,2022-11-20_20h55.46.563,Info_measure_main_exp,2022.2.2,Linux x86_64,6.6693344,,,,,,,,,,,,,,,,,,masks/mask_003.jpg,,,,,,,,,,,,,,,,,,,,,,,,,,,,,,,,,,,,,,,,,,,,,,,0,4,4,2,1,,,,,,,,,,,,,,,,,,,,,,,,,,,,,,,,,,,,,,,,,
424894,001,2022-11-20_20h55.46.563,Info_measure_main_exp,2022.2.2,Linux x86_64,6.6693344,,,,,,,,,,,,,,,,,,,,,,,,,,,,,,0,1.5588,1,,,,,,,,,,,,0,131,5,5,2214,2082,absent_patch/patch0002214.jpg,absent_patch/patch0002082.jpg,,,,,,,,,,,,,,,,,,,-0.00462963,0.02037037,1,0,0,response7disk,26,0.000925926,0.000925926,1,0,0,center_square,0,25,25,103,1,,,,,,,,,,,,,,,,,,,,,,,
424894,001,2022-11-20_20h55.46.563,Info_measure_main_exp,2022.2.2,Linux x86_64,6.6693344,,,,,,,,,,,,,,,,,,masks/mask_002.jpg,,,,,,,,,,,,,,,,,,,,,,,,,,,,,,,,,,,,,,,,,,0,0,0,1,1,,,,,,,,,,,,,,,,,,,,,,,,,,,,,,,,,,,,,,,,,,,,,,
424894,001,2022-11-20_20h55.46.563,Info_measure_main_exp,2022.2.2,Linux x86_64,6.6693344,,,,,,,,,,,,,,,,,,masks/mask_003.jpg,,,,,,,,,,,,,,,,,,,,,,,,,,,,,,,,,,,,,,,,,,0,1,1,2,1,,,,,,,,,,,,,,,,,,,,,,,,,,,,,,,,,,,,,,,,,,,,,,
424894,001,2022-11-20_20h55.46.563,Info_measure_main_exp,2022.2.2,Linux x86_64,6.6693344,,,,,,,,,,,,,,,,,,masks/mask_004.jpg,,,,,,,,,,,,,,,,,,,,,,,,,,,,,,,,,,,,,,,,,,0,2,2,3,1,,,,,,,,,,,,,,,,,,,,,,,,,,,,,,,,,,,,,,,,,,,,,,
424894,001,2022-11-20_20h55.46.563,Info_measure_main_exp,2022.2.2,Linux x86_64,6.6693344,,,,,,,,,,,,,,,,,,masks/mask_005.jpg,,,,,,,,,,,,,,,,,,,,,,,,,,,,,,,,,,,,,,,,,,0,3,3,4,1,,,,,,,,,,,,,,,,,,,,,,,,,,,,,,,,,,,,,,,,,,,,,,
424894,001,2022-11-20_20h55.46.563,Info_measure_main_exp,2022.2.2,Linux x86_64,6.6693344,,,,,,,,,,,,,,,,,,masks/mask_001.jpg,,,,,,,,,,,,,,,,,,,,,,,,,,,,,,,,,,,,,,,,,,0,4,4,0,1,,,,,,,,,,,,,,,,,,,,,,,,,,,,,,,,,,,,,,,,,,,,,,
424894,001,2022-11-20_20h55.46.563,Info_measure_main_exp,2022.2.2,Linux x86_64,6.6693344,,,,,,,,,,,,,,,,,,masks/mask_001.jpg,,,,,,,,,,,,,,,,,,,,,,,,,,,,,,,,,,,,,,,,,,,,,,,0,0,0,0,1,,,,,,,,,,,,,,,,,,,,,,,,,,,,,,,,,,,,,,,,,
424894,001,2022-11-20_20h55.46.563,Info_measure_main_exp,2022.2.2,Linux x86_64,6.6693344,,,,,,,,,,,,,,,,,,masks/mask_004.jpg,,,,,,,,,,,,,,,,,,,,,,,,,,,,,,,,,,,,,,,,,,,,,,,0,1,1,3,1,,,,,,,,,,,,,,,,,,,,,,,,,,,,,,,,,,,,,,,,,
424894,001,2022-11-20_20h55.46.563,Info_measure_main_exp,2022.2.2,Linux x86_64,6.6693344,,,,,,,,,,,,,,,,,,masks/mask_002.jpg,,,,,,,,,,,,,,,,,,,,,,,,,,,,,,,,,,,,,,,,,,,,,,,0,2,2,1,1,,,,,,,,,,,,,,,,,,,,,,,,,,,,,,,,,,,,,,,,,
424894,001,2022-11-20_20h55.46.563,Info_measure_main_exp,2022.2.2,Linux x86_64,6.6693344,,,,,,,,,,,,,,,,,,masks/mask_005.jpg,,,,,,,,,,,,,,,,,,,,,,,,,,,,,,,,,,,,,,,,,,,,,,,0,3,3,4,1,,,,,,,,,,,,,,,,,,,,,,,,,,,,,,,,,,,,,,,,,
424894,001,2022-11-20_20h55.46.563,Info_measure_main_exp,2022.2.2,Linux x86_64,6.6693344,,,,,,,,,,,,,,,,,,masks/mask_003.jpg,,,,,,,,,,,,,,,,,,,,,,,,,,,,,,,,,,,,,,,,,,,,,,,0,4,4,2,1,,,,,,,,,,,,,,,,,,,,,,,,,,,,,,,,,,,,,,,,,
424894,001,2022-11-20_20h55.46.563,Info_measure_main_exp,2022.2.2,Linux x86_64,6.6693344,,,,,,,,,,,,,,,,,,,,,,,,,,,,,,0,0.8741,1,,,,,,,,,,,,0,131,5,5,1986,2238,absent_patch/patch0001986.jpg,absent_patch/patch0002238.jpg,,,,,,,,,,,,,,,,,,,-0.026851852,0.072222222,1,0,0,response7disk,27,0.008333333,0.002777778,1,0,0,center_square,0,26,26,31,1,,,,,,,,,,,,,,,,,,,,,,,
424894,001,2022-11-20_20h55.46.563,Info_measure_main_exp,2022.2.2,Linux x86_64,6.6693344,,,,,,,,,,,,,,,,,,masks/mask_002.jpg,,,,,,,,,,,,,,,,,,,,,,,,,,,,,,,,,,,,,,,,,,0,0,0,1,1,,,,,,,,,,,,,,,,,,,,,,,,,,,,,,,,,,,,,,,,,,,,,,
424894,001,2022-11-20_20h55.46.563,Info_measure_main_exp,2022.2.2,Linux x86_64,6.6693344,,,,,,,,,,,,,,,,,,masks/mask_001.jpg,,,,,,,,,,,,,,,,,,,,,,,,,,,,,,,,,,,,,,,,,,0,1,1,0,1,,,,,,,,,,,,,,,,,,,,,,,,,,,,,,,,,,,,,,,,,,,,,,
424894,001,2022-11-20_20h55.46.563,Info_measure_main_exp,2022.2.2,Linux x86_64,6.6693344,,,,,,,,,,,,,,,,,,masks/mask_004.jpg,,,,,,,,,,,,,,,,,,,,,,,,,,,,,,,,,,,,,,,,,,0,2,2,3,1,,,,,,,,,,,,,,,,,,,,,,,,,,,,,,,,,,,,,,,,,,,,,,
424894,001,2022-11-20_20h55.46.563,Info_measure_main_exp,2022.2.2,Linux x86_64,6.6693344,,,,,,,,,,,,,,,,,,masks/mask_005.jpg,,,,,,,,,,,,,,,,,,,,,,,,,,,,,,,,,,,,,,,,,,0,3,3,4,1,,,,,,,,,,,,,,,,,,,,,,,,,,,,,,,,,,,,,,,,,,,,,,
424894,001,2022-11-20_20h55.46.563,Info_measure_main_exp,2022.2.2,Linux x86_64,6.6693344,,,,,,,,,,,,,,,,,,masks/mask_003.jpg,,,,,,,,,,,,,,,,,,,,,,,,,,,,,,,,,,,,,,,,,,0,4,4,2,1,,,,,,,,,,,,,,,,,,,,,,,,,,,,,,,,,,,,,,,,,,,,,,
424894,001,2022-11-20_20h55.46.563,Info_measure_main_exp,2022.2.2,Linux x86_64,6.6693344,,,,,,,,,,,,,,,,,,masks/mask_005.jpg,,,,,,,,,,,,,,,,,,,,,,,,,,,,,,,,,,,,,,,,,,,,,,,0,0,0,4,1,,,,,,,,,,,,,,,,,,,,,,,,,,,,,,,,,,,,,,,,,
424894,001,2022-11-20_20h55.46.563,Info_measure_main_exp,2022.2.2,Linux x86_64,6.6693344,,,,,,,,,,,,,,,,,,masks/mask_003.jpg,,,,,,,,,,,,,,,,,,,,,,,,,,,,,,,,,,,,,,,,,,,,,,,0,1,1,2,1,,,,,,,,,,,,,,,,,,,,,,,,,,,,,,,,,,,,,,,,,
424894,001,2022-11-20_20h55.46.563,Info_measure_main_exp,2022.2.2,Linux x86_64,6.6693344,,,,,,,,,,,,,,,,,,masks/mask_001.jpg,,,,,,,,,,,,,,,,,,,,,,,,,,,,,,,,,,,,,,,,,,,,,,,0,2,2,0,1,,,,,,,,,,,,,,,,,,,,,,,,,,,,,,,,,,,,,,,,,
424894,001,2022-11-20_20h55.46.563,Info_measure_main_exp,2022.2.2,Linux x86_64,6.6693344,,,,,,,,,,,,,,,,,,masks/mask_004.jpg,,,,,,,,,,,,,,,,,,,,,,,,,,,,,,,,,,,,,,,,,,,,,,,0,3,3,3,1,,,,,,,,,,,,,,,,,,,,,,,,,,,,,,,,,,,,,,,,,
424894,001,2022-11-20_20h55.46.563,Info_measure_main_exp,2022.2.2,Linux x86_64,6.6693344,,,,,,,,,,,,,,,,,,masks/mask_002.jpg,,,,,,,,,,,,,,,,,,,,,,,,,,,,,,,,,,,,,,,,,,,,,,,0,4,4,1,1,,,,,,,,,,,,,,,,,,,,,,,,,,,,,,,,,,,,,,,,,
424894,001,2022-11-20_20h55.46.563,Info_measure_main_exp,2022.2.2,Linux x86_64,6.6693344,,,,,,,,,,,,,,,,,,,,,,,,,,,,,,0,0.5347,1,,,,,,,,,,,,0,131,5,5,2154,2238,absent_patch/patch0002154.jpg,absent_patch/patch0002238.jpg,,,,,,,,,,,,,,,,,,,-0.034259259,0.058333333,1,0,0,response7disk,28,0.002777778,0,1,0,0,center_square,0,27,27,21,1,,,,,,,,,,,,,,,,,,,,,,,
424894,001,2022-11-20_20h55.46.563,Info_measure_main_exp,2022.2.2,Linux x86_64,6.6693344,,,,,,,,,,,,,,,,,,masks/mask_002.jpg,,,,,,,,,,,,,,,,,,,,,,,,,,,,,,,,,,,,,,,,,,0,0,0,1,1,,,,,,,,,,,,,,,,,,,,,,,,,,,,,,,,,,,,,,,,,,,,,,
424894,001,2022-11-20_20h55.46.563,Info_measure_main_exp,2022.2.2,Linux x86_64,6.6693344,,,,,,,,,,,,,,,,,,masks/mask_004.jpg,,,,,,,,,,,,,,,,,,,,,,,,,,,,,,,,,,,,,,,,,,0,1,1,3,1,,,,,,,,,,,,,,,,,,,,,,,,,,,,,,,,,,,,,,,,,,,,,,
424894,001,2022-11-20_20h55.46.563,Info_measure_main_exp,2022.2.2,Linux x86_64,6.6693344,,,,,,,,,,,,,,,,,,masks/mask_003.jpg,,,,,,,,,,,,,,,,,,,,,,,,,,,,,,,,,,,,,,,,,,0,2,2,2,1,,,,,,,,,,,,,,,,,,,,,,,,,,,,,,,,,,,,,,,,,,,,,,
424894,001,2022-11-20_20h55.46.563,Info_measure_main_exp,2022.2.2,Linux x86_64,6.6693344,,,,,,,,,,,,,,,,,,masks/mask_005.jpg,,,,,,,,,,,,,,,,,,,,,,,,,,,,,,,,,,,,,,,,,,0,3,3,4,1,,,,,,,,,,,,,,,,,,,,,,,,,,,,,,,,,,,,,,,,,,,,,,
424894,001,2022-11-20_20h55.46.563,Info_measure_main_exp,2022.2.2,Linux x86_64,6.6693344,,,,,,,,,,,,,,,,,,masks/mask_001.jpg,,,,,,,,,,,,,,,,,,,,,,,,,,,,,,,,,,,,,,,,,,0,4,4,0,1,,,,,,,,,,,,,,,,,,,,,,,,,,,,,,,,,,,,,,,,,,,,,,
424894,001,2022-11-20_20h55.46.563,Info_measure_main_exp,2022.2.2,Linux x86_64,6.6693344,,,,,,,,,,,,,,,,,,masks/mask_004.jpg,,,,,,,,,,,,,,,,,,,,,,,,,,,,,,,,,,,,,,,,,,,,,,,0,0,0,3,1,,,,,,,,,,,,,,,,,,,,,,,,,,,,,,,,,,,,,,,,,
424894,001,2022-11-20_20h55.46.563,Info_measure_main_exp,2022.2.2,Linux x86_64,6.6693344,,,,,,,,,,,,,,,,,,masks/mask_003.jpg,,,,,,,,,,,,,,,,,,,,,,,,,,,,,,,,,,,,,,,,,,,,,,,0,1,1,2,1,,,,,,,,,,,,,,,,,,,,,,,,,,,,,,,,,,,,,,,,,
424894,001,2022-11-20_20h55.46.563,Info_measure_main_exp,2022.2.2,Linux x86_64,6.6693344,,,,,,,,,,,,,,,,,,masks/mask_001.jpg,,,,,,,,,,,,,,,,,,,,,,,,,,,,,,,,,,,,,,,,,,,,,,,0,2,2,0,1,,,,,,,,,,,,,,,,,,,,,,,,,,,,,,,,,,,,,,,,,
424894,001,2022-11-20_20h55.46.563,Info_measure_main_exp,2022.2.2,Linux x86_64,6.6693344,,,,,,,,,,,,,,,,,,masks/mask_005.jpg,,,,,,,,,,,,,,,,,,,,,,,,,,,,,,,,,,,,,,,,,,,,,,,0,3,3,4,1,,,,,,,,,,,,,,,,,,,,,,,,,,,,,,,,,,,,,,,,,
424894,001,2022-11-20_20h55.46.563,Info_measure_main_exp,2022.2.2,Linux x86_64,6.6693344,,,,,,,,,,,,,,,,,,masks/mask_002.jpg,,,,,,,,,,,,,,,,,,,,,,,,,,,,,,,,,,,,,,,,,,,,,,,0,4,4,1,1,,,,,,,,,,,,,,,,,,,,,,,,,,,,,,,,,,,,,,,,,
424894,001,2022-11-20_20h55.46.563,Info_measure_main_exp,2022.2.2,Linux x86_64,6.6693344,,,,,,,,,,,,,,,,,,,,,,,,,,,,,,0,0.863,1,,,,,,,,,,,,1,131,5,5,1,2274,present_patch/cong_131_5_a.jpg,absent_patch/patch0002274.jpg,,,,,,,,,,,,,,,,,,,-0.019444444,0.053703704,1,0,0,response7disk,29,0.002777778,0.003703704,1,0,0,center_square,0,28,28,105,1,,,,,,,,,,,,,,,,,,,,,,,
424894,001,2022-11-20_20h55.46.563,Info_measure_main_exp,2022.2.2,Linux x86_64,6.6693344,,,,,,,,,,,,,,,,,,masks/mask_005.jpg,,,,,,,,,,,,,,,,,,,,,,,,,,,,,,,,,,,,,,,,,,0,0,0,4,1,,,,,,,,,,,,,,,,,,,,,,,,,,,,,,,,,,,,,,,,,,,,,,
424894,001,2022-11-20_20h55.46.563,Info_measure_main_exp,2022.2.2,Linux x86_64,6.6693344,,,,,,,,,,,,,,,,,,masks/mask_004.jpg,,,,,,,,,,,,,,,,,,,,,,,,,,,,,,,,,,,,,,,,,,0,1,1,3,1,,,,,,,,,,,,,,,,,,,,,,,,,,,,,,,,,,,,,,,,,,,,,,
424894,001,2022-11-20_20h55.46.563,Info_measure_main_exp,2022.2.2,Linux x86_64,6.6693344,,,,,,,,,,,,,,,,,,masks/mask_002.jpg,,,,,,,,,,,,,,,,,,,,,,,,,,,,,,,,,,,,,,,,,,0,2,2,1,1,,,,,,,,,,,,,,,,,,,,,,,,,,,,,,,,,,,,,,,,,,,,,,
424894,001,2022-11-20_20h55.46.563,Info_measure_main_exp,2022.2.2,Linux x86_64,6.6693344,,,,,,,,,,,,,,,,,,masks/mask_003.jpg,,,,,,,,,,,,,,,,,,,,,,,,,,,,,,,,,,,,,,,,,,0,3,3,2,1,,,,,,,,,,,,,,,,,,,,,,,,,,,,,,,,,,,,,,,,,,,,,,
424894,001,2022-11-20_20h55.46.563,Info_measure_main_exp,2022.2.2,Linux x86_64,6.6693344,,,,,,,,,,,,,,,,,,masks/mask_001.jpg,,,,,,,,,,,,,,,,,,,,,,,,,,,,,,,,,,,,,,,,,,0,4,4,0,1,,,,,,,,,,,,,,,,,,,,,,,,,,,,,,,,,,,,,,,,,,,,,,
424894,001,2022-11-20_20h55.46.563,Info_measure_main_exp,2022.2.2,Linux x86_64,6.6693344,,,,,,,,,,,,,,,,,,masks/mask_002.jpg,,,,,,,,,,,,,,,,,,,,,,,,,,,,,,,,,,,,,,,,,,,,,,,0,0,0,1,1,,,,,,,,,,,,,,,,,,,,,,,,,,,,,,,,,,,,,,,,,
424894,001,2022-11-20_20h55.46.563,Info_measure_main_exp,2022.2.2,Linux x86_64,6.6693344,,,,,,,,,,,,,,,,,,masks/mask_003.jpg,,,,,,,,,,,,,,,,,,,,,,,,,,,,,,,,,,,,,,,,,,,,,,,0,1,1,2,1,,,,,,,,,,,,,,,,,,,,,,,,,,,,,,,,,,,,,,,,,
424894,001,2022-11-20_20h55.46.563,Info_measure_main_exp,2022.2.2,Linux x86_64,6.6693344,,,,,,,,,,,,,,,,,,masks/mask_005.jpg,,,,,,,,,,,,,,,,,,,,,,,,,,,,,,,,,,,,,,,,,,,,,,,0,2,2,4,1,,,,,,,,,,,,,,,,,,,,,,,,,,,,,,,,,,,,,,,,,
424894,001,2022-11-20_20h55.46.563,Info_measure_main_exp,2022.2.2,Linux x86_64,6.6693344,,,,,,,,,,,,,,,,,,masks/mask_004.jpg,,,,,,,,,,,,,,,,,,,,,,,,,,,,,,,,,,,,,,,,,,,,,,,0,3,3,3,1,,,,,,,,,,,,,,,,,,,,,,,,,,,,,,,,,,,,,,,,,
424894,001,2022-11-20_20h55.46.563,Info_measure_main_exp,2022.2.2,Linux x86_64,6.6693344,,,,,,,,,,,,,,,,,,masks/mask_001.jpg,,,,,,,,,,,,,,,,,,,,,,,,,,,,,,,,,,,,,,,,,,,,,,,0,4,4,0,1,,,,,,,,,,,,,,,,,,,,,,,,,,,,,,,,,,,,,,,,,
424894,001,2022-11-20_20h55.46.563,Info_measure_main_exp,2022.2.2,Linux x86_64,6.6693344,,,,,,,,,,,,,,,,,,,,,,,,,,,,,,0,0.6797,1,,,,,,,,,,,,0,131,5,5,1974,2298,absent_patch/patch0001974.jpg,absent_patch/patch0002298.jpg,,,,,,,,,,,,,,,,,,,-0.028703704,0.042592593,1,0,0,response7disk,30,-0.010185185,0.009259259,1,0,0,center_square,0,29,29,6,1,,,,,,,,,,,,,,,,,,,,,,,
424894,001,2022-11-20_20h55.46.563,Info_measure_main_exp,2022.2.2,Linux x86_64,6.6693344,,,,,,,,,,,,,,,,,,masks/mask_002.jpg,,,,,,,,,,,,,,,,,,,,,,,,,,,,,,,,,,,,,,,,,,0,0,0,1,1,,,,,,,,,,,,,,,,,,,,,,,,,,,,,,,,,,,,,,,,,,,,,,
424894,001,2022-11-20_20h55.46.563,Info_measure_main_exp,2022.2.2,Linux x86_64,6.6693344,,,,,,,,,,,,,,,,,,masks/mask_003.jpg,,,,,,,,,,,,,,,,,,,,,,,,,,,,,,,,,,,,,,,,,,0,1,1,2,1,,,,,,,,,,,,,,,,,,,,,,,,,,,,,,,,,,,,,,,,,,,,,,
424894,001,2022-11-20_20h55.46.563,Info_measure_main_exp,2022.2.2,Linux x86_64,6.6693344,,,,,,,,,,,,,,,,,,masks/mask_001.jpg,,,,,,,,,,,,,,,,,,,,,,,,,,,,,,,,,,,,,,,,,,0,2,2,0,1,,,,,,,,,,,,,,,,,,,,,,,,,,,,,,,,,,,,,,,,,,,,,,
424894,001,2022-11-20_20h55.46.563,Info_measure_main_exp,2022.2.2,Linux x86_64,6.6693344,,,,,,,,,,,,,,,,,,masks/mask_005.jpg,,,,,,,,,,,,,,,,,,,,,,,,,,,,,,,,,,,,,,,,,,0,3,3,4,1,,,,,,,,,,,,,,,,,,,,,,,,,,,,,,,,,,,,,,,,,,,,,,
424894,001,2022-11-20_20h55.46.563,Info_measure_main_exp,2022.2.2,Linux x86_64,6.6693344,,,,,,,,,,,,,,,,,,masks/mask_004.jpg,,,,,,,,,,,,,,,,,,,,,,,,,,,,,,,,,,,,,,,,,,0,4,4,3,1,,,,,,,,,,,,,,,,,,,,,,,,,,,,,,,,,,,,,,,,,,,,,,
424894,001,2022-11-20_20h55.46.563,Info_measure_main_exp,2022.2.2,Linux x86_64,6.6693344,,,,,,,,,,,,,,,,,,masks/mask_003.jpg,,,,,,,,,,,,,,,,,,,,,,,,,,,,,,,,,,,,,,,,,,,,,,,0,0,0,2,1,,,,,,,,,,,,,,,,,,,,,,,,,,,,,,,,,,,,,,,,,
424894,001,2022-11-20_20h55.46.563,Info_measure_main_exp,2022.2.2,Linux x86_64,6.6693344,,,,,,,,,,,,,,,,,,masks/mask_005.jpg,,,,,,,,,,,,,,,,,,,,,,,,,,,,,,,,,,,,,,,,,,,,,,,0,1,1,4,1,,,,,,,,,,,,,,,,,,,,,,,,,,,,,,,,,,,,,,,,,
424894,001,2022-11-20_20h55.46.563,Info_measure_main_exp,2022.2.2,Linux x86_64,6.6693344,,,,,,,,,,,,,,,,,,masks/mask_002.jpg,,,,,,,,,,,,,,,,,,,,,,,,,,,,,,,,,,,,,,,,,,,,,,,0,2,2,1,1,,,,,,,,,,,,,,,,,,,,,,,,,,,,,,,,,,,,,,,,,
424894,001,2022-11-20_20h55.46.563,Info_measure_main_exp,2022.2.2,Linux x86_64,6.6693344,,,,,,,,,,,,,,,,,,masks/mask_001.jpg,,,,,,,,,,,,,,,,,,,,,,,,,,,,,,,,,,,,,,,,,,,,,,,0,3,3,0,1,,,,,,,,,,,,,,,,,,,,,,,,,,,,,,,,,,,,,,,,,
424894,001,2022-11-20_20h55.46.563,Info_measure_main_exp,2022.2.2,Linux x86_64,6.6693344,,,,,,,,,,,,,,,,,,masks/mask_004.jpg,,,,,,,,,,,,,,,,,,,,,,,,,,,,,,,,,,,,,,,,,,,,,,,0,4,4,3,1,,,,,,,,,,,,,,,,,,,,,,,,,,,,,,,,,,,,,,,,,
424894,001,2022-11-20_20h55.46.563,Info_measure_main_exp,2022.2.2,Linux x86_64,6.6693344,,,,,,,,,,,,,,,,,,,,,,,,,,,,,,0,0.6939,1,,,,,,,,,,,,1,131,5,5,2298,1,absent_patch/patch0002298.jpg,present_patch/cong_131_5_a.jpg,,,,,,,,,,,,,,,,,,,-0.011111111,0.067592593,1,0,0,response7disk,31,-0.000925926,0.008333333,1,0,0,center_square,0,30,30,45,1,,,,,,,,,,,,,,,,,,,,,,,
424894,001,2022-11-20_20h55.46.563,Info_measure_main_exp,2022.2.2,Linux x86_64,6.6693344,,,,,,,,,,,,,,,,,,masks/mask_002.jpg,,,,,,,,,,,,,,,,,,,,,,,,,,,,,,,,,,,,,,,,,,0,0,0,1,1,,,,,,,,,,,,,,,,,,,,,,,,,,,,,,,,,,,,,,,,,,,,,,
424894,001,2022-11-20_20h55.46.563,Info_measure_main_exp,2022.2.2,Linux x86_64,6.6693344,,,,,,,,,,,,,,,,,,masks/mask_001.jpg,,,,,,,,,,,,,,,,,,,,,,,,,,,,,,,,,,,,,,,,,,0,1,1,0,1,,,,,,,,,,,,,,,,,,,,,,,,,,,,,,,,,,,,,,,,,,,,,,
424894,001,2022-11-20_20h55.46.563,Info_measure_main_exp,2022.2.2,Linux x86_64,6.6693344,,,,,,,,,,,,,,,,,,masks/mask_004.jpg,,,,,,,,,,,,,,,,,,,,,,,,,,,,,,,,,,,,,,,,,,0,2,2,3,1,,,,,,,,,,,,,,,,,,,,,,,,,,,,,,,,,,,,,,,,,,,,,,
424894,001,2022-11-20_20h55.46.563,Info_measure_main_exp,2022.2.2,Linux x86_64,6.6693344,,,,,,,,,,,,,,,,,,masks/mask_003.jpg,,,,,,,,,,,,,,,,,,,,,,,,,,,,,,,,,,,,,,,,,,0,3,3,2,1,,,,,,,,,,,,,,,,,,,,,,,,,,,,,,,,,,,,,,,,,,,,,,
424894,001,2022-11-20_20h55.46.563,Info_measure_main_exp,2022.2.2,Linux x86_64,6.6693344,,,,,,,,,,,,,,,,,,masks/mask_005.jpg,,,,,,,,,,,,,,,,,,,,,,,,,,,,,,,,,,,,,,,,,,0,4,4,4,1,,,,,,,,,,,,,,,,,,,,,,,,,,,,,,,,,,,,,,,,,,,,,,
424894,001,2022-11-20_20h55.46.563,Info_measure_main_exp,2022.2.2,Linux x86_64,6.6693344,,,,,,,,,,,,,,,,,,masks/mask_004.jpg,,,,,,,,,,,,,,,,,,,,,,,,,,,,,,,,,,,,,,,,,,,,,,,0,0,0,3,1,,,,,,,,,,,,,,,,,,,,,,,,,,,,,,,,,,,,,,,,,
424894,001,2022-11-20_20h55.46.563,Info_measure_main_exp,2022.2.2,Linux x86_64,6.6693344,,,,,,,,,,,,,,,,,,masks/mask_001.jpg,,,,,,,,,,,,,,,,,,,,,,,,,,,,,,,,,,,,,,,,,,,,,,,0,1,1,0,1,,,,,,,,,,,,,,,,,,,,,,,,,,,,,,,,,,,,,,,,,
424894,001,2022-11-20_20h55.46.563,Info_measure_main_exp,2022.2.2,Linux x86_64,6.6693344,,,,,,,,,,,,,,,,,,masks/mask_003.jpg,,,,,,,,,,,,,,,,,,,,,,,,,,,,,,,,,,,,,,,,,,,,,,,0,2,2,2,1,,,,,,,,,,,,,,,,,,,,,,,,,,,,,,,,,,,,,,,,,
424894,001,2022-11-20_20h55.46.563,Info_measure_main_exp,2022.2.2,Linux x86_64,6.6693344,,,,,,,,,,,,,,,,,,masks/mask_005.jpg,,,,,,,,,,,,,,,,,,,,,,,,,,,,,,,,,,,,,,,,,,,,,,,0,3,3,4,1,,,,,,,,,,,,,,,,,,,,,,,,,,,,,,,,,,,,,,,,,
424894,001,2022-11-20_20h55.46.563,Info_measure_main_exp,2022.2.2,Linux x86_64,6.6693344,,,,,,,,,,,,,,,,,,masks/mask_002.jpg,,,,,,,,,,,,,,,,,,,,,,,,,,,,,,,,,,,,,,,,,,,,,,,0,4,4,1,1,,,,,,,,,,,,,,,,,,,,,,,,,,,,,,,,,,,,,,,,,
424894,001,2022-11-20_20h55.46.563,Info_measure_main_exp,2022.2.2,Linux x86_64,6.6693344,,,,,,,,,,,,,,,,,,,,,,,,,,,,,,0,0.6863,1,,,,,,,,,,,,0,131,5,5,2214,2214,absent_patch/patch0002214.jpg,absent_patch/patch0002214.jpg,,,,,,,,,,,,,,,,,,,-0.022222222,0.075925926,1,0,0,response7disk,32,0,0.009259259,1,0,0,center_square,0,31,31,115,1,,,,,,,,,,,,,,,,,,,,,,,
424894,001,2022-11-20_20h55.46.563,Info_measure_main_exp,2022.2.2,Linux x86_64,6.6693344,,,,,,,,,,,,,,,,,,masks/mask_001.jpg,,,,,,,,,,,,,,,,,,,,,,,,,,,,,,,,,,,,,,,,,,0,0,0,0,1,,,,,,,,,,,,,,,,,,,,,,,,,,,,,,,,,,,,,,,,,,,,,,
424894,001,2022-11-20_20h55.46.563,Info_measure_main_exp,2022.2.2,Linux x86_64,6.6693344,,,,,,,,,,,,,,,,,,masks/mask_003.jpg,,,,,,,,,,,,,,,,,,,,,,,,,,,,,,,,,,,,,,,,,,0,1,1,2,1,,,,,,,,,,,,,,,,,,,,,,,,,,,,,,,,,,,,,,,,,,,,,,
424894,001,2022-11-20_20h55.46.563,Info_measure_main_exp,2022.2.2,Linux x86_64,6.6693344,,,,,,,,,,,,,,,,,,masks/mask_002.jpg,,,,,,,,,,,,,,,,,,,,,,,,,,,,,,,,,,,,,,,,,,0,2,2,1,1,,,,,,,,,,,,,,,,,,,,,,,,,,,,,,,,,,,,,,,,,,,,,,
424894,001,2022-11-20_20h55.46.563,Info_measure_main_exp,2022.2.2,Linux x86_64,6.6693344,,,,,,,,,,,,,,,,,,masks/mask_004.jpg,,,,,,,,,,,,,,,,,,,,,,,,,,,,,,,,,,,,,,,,,,0,3,3,3,1,,,,,,,,,,,,,,,,,,,,,,,,,,,,,,,,,,,,,,,,,,,,,,
424894,001,2022-11-20_20h55.46.563,Info_measure_main_exp,2022.2.2,Linux x86_64,6.6693344,,,,,,,,,,,,,,,,,,masks/mask_005.jpg,,,,,,,,,,,,,,,,,,,,,,,,,,,,,,,,,,,,,,,,,,0,4,4,4,1,,,,,,,,,,,,,,,,,,,,,,,,,,,,,,,,,,,,,,,,,,,,,,
424894,001,2022-11-20_20h55.46.563,Info_measure_main_exp,2022.2.2,Linux x86_64,6.6693344,,,,,,,,,,,,,,,,,,masks/mask_004.jpg,,,,,,,,,,,,,,,,,,,,,,,,,,,,,,,,,,,,,,,,,,,,,,,0,0,0,3,1,,,,,,,,,,,,,,,,,,,,,,,,,,,,,,,,,,,,,,,,,
424894,001,2022-11-20_20h55.46.563,Info_measure_main_exp,2022.2.2,Linux x86_64,6.6693344,,,,,,,,,,,,,,,,,,masks/mask_005.jpg,,,,,,,,,,,,,,,,,,,,,,,,,,,,,,,,,,,,,,,,,,,,,,,0,1,1,4,1,,,,,,,,,,,,,,,,,,,,,,,,,,,,,,,,,,,,,,,,,
424894,001,2022-11-20_20h55.46.563,Info_measure_main_exp,2022.2.2,Linux x86_64,6.6693344,,,,,,,,,,,,,,,,,,masks/mask_002.jpg,,,,,,,,,,,,,,,,,,,,,,,,,,,,,,,,,,,,,,,,,,,,,,,0,2,2,1,1,,,,,,,,,,,,,,,,,,,,,,,,,,,,,,,,,,,,,,,,,
424894,001,2022-11-20_20h55.46.563,Info_measure_main_exp,2022.2.2,Linux x86_64,6.6693344,,,,,,,,,,,,,,,,,,masks/mask_003.jpg,,,,,,,,,,,,,,,,,,,,,,,,,,,,,,,,,,,,,,,,,,,,,,,0,3,3,2,1,,,,,,,,,,,,,,,,,,,,,,,,,,,,,,,,,,,,,,,,,
424894,001,2022-11-20_20h55.46.563,Info_measure_main_exp,2022.2.2,Linux x86_64,6.6693344,,,,,,,,,,,,,,,,,,masks/mask_001.jpg,,,,,,,,,,,,,,,,,,,,,,,,,,,,,,,,,,,,,,,,,,,,,,,0,4,4,0,1,,,,,,,,,,,,,,,,,,,,,,,,,,,,,,,,,,,,,,,,,
424894,001,2022-11-20_20h55.46.563,Info_measure_main_exp,2022.2.2,Linux x86_64,6.6693344,,,,,,,,,,,,,,,,,,,,,,,,,,,,,,0,0.6968,1,,,,,,,,,,,,0,131,5,5,2142,2190,absent_patch/patch0002142.jpg,absent_patch/patch0002190.jpg,,,,,,,,,,,,,,,,,,,-0.025,0.059259259,1,0,0,response7disk,33,-0.005555556,0.012962963,1,0,0,center_square,0,32,32,70,1,,,,,,,,,,,,,,,,,,,,,,,
424894,001,2022-11-20_20h55.46.563,Info_measure_main_exp,2022.2.2,Linux x86_64,6.6693344,,,,,,,,,,,,,,,,,,masks/mask_005.jpg,,,,,,,,,,,,,,,,,,,,,,,,,,,,,,,,,,,,,,,,,,0,0,0,4,1,,,,,,,,,,,,,,,,,,,,,,,,,,,,,,,,,,,,,,,,,,,,,,
424894,001,2022-11-20_20h55.46.563,Info_measure_main_exp,2022.2.2,Linux x86_64,6.6693344,,,,,,,,,,,,,,,,,,masks/mask_001.jpg,,,,,,,,,,,,,,,,,,,,,,,,,,,,,,,,,,,,,,,,,,0,1,1,0,1,,,,,,,,,,,,,,,,,,,,,,,,,,,,,,,,,,,,,,,,,,,,,,
424894,001,2022-11-20_20h55.46.563,Info_measure_main_exp,2022.2.2,Linux x86_64,6.6693344,,,,,,,,,,,,,,,,,,masks/mask_002.jpg,,,,,,,,,,,,,,,,,,,,,,,,,,,,,,,,,,,,,,,,,,0,2,2,1,1,,,,,,,,,,,,,,,,,,,,,,,,,,,,,,,,,,,,,,,,,,,,,,
424894,001,2022-11-20_20h55.46.563,Info_measure_main_exp,2022.2.2,Linux x86_64,6.6693344,,,,,,,,,,,,,,,,,,masks/mask_004.jpg,,,,,,,,,,,,,,,,,,,,,,,,,,,,,,,,,,,,,,,,,,0,3,3,3,1,,,,,,,,,,,,,,,,,,,,,,,,,,,,,,,,,,,,,,,,,,,,,,
424894,001,2022-11-20_20h55.46.563,Info_measure_main_exp,2022.2.2,Linux x86_64,6.6693344,,,,,,,,,,,,,,,,,,masks/mask_003.jpg,,,,,,,,,,,,,,,,,,,,,,,,,,,,,,,,,,,,,,,,,,0,4,4,2,1,,,,,,,,,,,,,,,,,,,,,,,,,,,,,,,,,,,,,,,,,,,,,,
424894,001,2022-11-20_20h55.46.563,Info_measure_main_exp,2022.2.2,Linux x86_64,6.6693344,,,,,,,,,,,,,,,,,,masks/mask_003.jpg,,,,,,,,,,,,,,,,,,,,,,,,,,,,,,,,,,,,,,,,,,,,,,,0,0,0,2,1,,,,,,,,,,,,,,,,,,,,,,,,,,,,,,,,,,,,,,,,,
424894,001,2022-11-20_20h55.46.563,Info_measure_main_exp,2022.2.2,Linux x86_64,6.6693344,,,,,,,,,,,,,,,,,,masks/mask_002.jpg,,,,,,,,,,,,,,,,,,,,,,,,,,,,,,,,,,,,,,,,,,,,,,,0,1,1,1,1,,,,,,,,,,,,,,,,,,,,,,,,,,,,,,,,,,,,,,,,,
424894,001,2022-11-20_20h55.46.563,Info_measure_main_exp,2022.2.2,Linux x86_64,6.6693344,,,,,,,,,,,,,,,,,,masks/mask_005.jpg,,,,,,,,,,,,,,,,,,,,,,,,,,,,,,,,,,,,,,,,,,,,,,,0,2,2,4,1,,,,,,,,,,,,,,,,,,,,,,,,,,,,,,,,,,,,,,,,,
424894,001,2022-11-20_20h55.46.563,Info_measure_main_exp,2022.2.2,Linux x86_64,6.6693344,,,,,,,,,,,,,,,,,,masks/mask_001.jpg,,,,,,,,,,,,,,,,,,,,,,,,,,,,,,,,,,,,,,,,,,,,,,,0,3,3,0,1,,,,,,,,,,,,,,,,,,,,,,,,,,,,,,,,,,,,,,,,,
424894,001,2022-11-20_20h55.46.563,Info_measure_main_exp,2022.2.2,Linux x86_64,6.6693344,,,,,,,,,,,,,,,,,,masks/mask_004.jpg,,,,,,,,,,,,,,,,,,,,,,,,,,,,,,,,,,,,,,,,,,,,,,,0,4,4,3,1,,,,,,,,,,,,,,,,,,,,,,,,,,,,,,,,,,,,,,,,,
424894,001,2022-11-20_20h55.46.563,Info_measure_main_exp,2022.2.2,Linux x86_64,6.6693344,,,,,,,,,,,,,,,,,,,,,,,,,,,,,,0,0.5524,1,,,,,,,,,,,,0,131,5,5,2274,2142,absent_patch/patch0002274.jpg,absent_patch/patch0002142.jpg,,,,,,,,,,,,,,,,,,,-0.022222222,0.062962963,1,0,0,response7disk,34,-0.001851852,0.003703704,1,0,0,center_square,0,33,33,75,1,,,,,,,,,,,,,,,,,,,,,,,
424894,001,2022-11-20_20h55.46.563,Info_measure_main_exp,2022.2.2,Linux x86_64,6.6693344,,,,,,,,,,,,,,,,,,masks/mask_004.jpg,,,,,,,,,,,,,,,,,,,,,,,,,,,,,,,,,,,,,,,,,,0,0,0,3,1,,,,,,,,,,,,,,,,,,,,,,,,,,,,,,,,,,,,,,,,,,,,,,
