participant,session,date,expName,psychopyVersion,OS,frameRate,space_press_continue.keys,space_press_continue.rt,space_press_continue_2.keys,space_press_continue_2.rt,space_press_continue_3.keys,space_press_continue_3.rt,space_press_continue_4.keys,space_press_continue_4.rt,space_press_continue_5.keys,space_press_continue_5.rt,space_press_continue_6.keys,space_press_continue_6.rt,prac_mask_loop_1.thisRepN,prac_mask_loop_1.thisTrialN,prac_mask_loop_1.thisN,prac_mask_loop_1.thisIndex,prac_mask_loop_1.ran,mask_name,prac_mask_loop_2.thisRepN,prac_mask_loop_2.thisTrialN,prac_mask_loop_2.thisN,prac_mask_loop_2.thisIndex,prac_mask_loop_2.ran,mouse_2.x,mouse_2.y,mouse_2.leftButton,mouse_2.midButton,mouse_2.rightButton,mouse_2.clicked_name,similarity,response_time,Pass,mouse_12.x,mouse_12.y,mouse_12.leftButton,mouse_12.midButton,mouse_12.rightButton,mouse_12.clicked_name,prac_loop.thisRepN,prac_loop.thisTrialN,prac_loop.thisN,prac_loop.thisIndex,prac_loop.ran,Pair_type,Image_num,Patch_1_loc,Patch_2_loc,Patch_1_info,Patch_2_info,Patch_1_name,Patch_2_name,mouse_1.x,mouse_1.y,mouse_1.leftButton,mouse_1.midButton,mouse_1.rightButton,mouse_1.time,mouse_1.clicked_name,space_press_continue_7.keys,space_press_continue_7.rt,mask_loop.thisRepN,mask_loop.thisTrialN,mask_loop.thisN,mask_loop.thisIndex,mask_loop.ran,mask_loop_2.thisRepN,mask_loop_2.thisTrialN,mask_loop_2.thisN,mask_loop_2.thisIndex,mask_loop_2.ran,mouse.x,mouse.y,mouse.leftButton,mouse.midButton,mouse.rightButton,mouse.clicked_name,trialNumber,mouse_11.x,mouse_11.y,mouse_11.leftButton,mouse_11.midButton,mouse_11.rightButton,mouse_11.clicked_name,first_pass_loop.thisRepN,first_pass_loop.thisTrialN,first_pass_loop.thisN,first_pass_loop.thisIndex,first_pass_loop.ran,mask_loop_3.thisRepN,mask_loop_3.thisTrialN,mask_loop_3.thisN,mask_loop_3.thisIndex,mask_loop_3.ran,mask_loop_4.thisRepN,mask_loop_4.thisTrialN,mask_loop_4.thisN,mask_loop_4.thisIndex,mask_loop_4.ran,mouse_3.x,mouse_3.y,mouse_3.leftButton,mouse_3.midButton,mouse_3.rightButton,mouse_3.clicked_name,double_pass_loop.thisRepN,double_pass_loop.thisTrialN,double_pass_loop.thisN,double_pass_loop.thisIndex,double_pass_loop.ran,space_exit.keys,space_exit.rt
442296,001,2022-11-21_01h52.34.070,Info_measure_main_exp,2022.2.2,Win32,60.13952369,,,,,,,,,,,,,,,,,,,,,,,,,,,,,,,,,,,,,,,,,,,,,,,,,,,,,,,,,,,,,,,,,,,,,,,,,,,,,,,,,,,,,,,,,,,,,,,,,,,,,,,,,,,,,,,
442296,001,2022-11-21_01h52.34.070,Info_measure_main_exp,2022.2.2,Win32,60.13952369,,,,,,,,,,,,,,,,,,,,,,,,,,,,,,,,,,,,,,,,,,,,,,,,,,,,,,,,,,,,,,,,,,,,,,,,,,,,,,,,,,,,,,,,,,,,,,,,,,,,,,,,,,,,,,,
442296,001,2022-11-21_01h52.34.070,Info_measure_main_exp,2022.2.2,Win32,60.13952369,space,10.938,,,,,,,,,,,,,,,,,,,,,,,,,,,,,,,,,,,,,,,,,,,,,,,,,,,,,,,,,,,,,,,,,,,,,,,,,,,,,,,,,,,,,,,,,,,,,,,,,,,,,,,,,,,,,
442296,001,2022-11-21_01h52.34.070,Info_measure_main_exp,2022.2.2,Win32,60.13952369,,,space,21.1683,,,,,,,,,,,,,,,,,,,,,,,,,,,,,,,,,,,,,,,,,,,,,,,,,,,,,,,,,,,,,,,,,,,,,,,,,,,,,,,,,,,,,,,,,,,,,,,,,,,,,,,,,,,
442296,001,2022-11-21_01h52.34.070,Info_measure_main_exp,2022.2.2,Win32,60.13952369,,,,,space,17.6146,,,,,,,,,,,,,,,,,,,,,,,,,,,,,,,,,,,,,,,,,,,,,,,,,,,,,,,,,,,,,,,,,,,,,,,,,,,,,,,,,,,,,,,,,,,,,,,,,,,,,,,,,
442296,001,2022-11-21_01h52.34.070,Info_measure_main_exp,2022.2.2,Win32,60.13952369,,,,,,,space,24.1754,,,,,,,,,,,,,,,,,,,,,,,,,,,,,,,,,,,,,,,,,,,,,,,,,,,,,,,,,,,,,,,,,,,,,,,,,,,,,,,,,,,,,,,,,,,,,,,,,,,,,,,
442296,001,2022-11-21_01h52.34.070,Info_measure_main_exp,2022.2.2,Win32,60.13952369,,,,,,,,,space,9.4072,,,,,,,,,,,,,,,,,,,,,,,,,,,,,,,,,,,,,,,,,,,,,,,,,,,,,,,,,,,,,,,,,,,,,,,,,,,,,,,,,,,,,,,,,,,,,,,,,,,,,
442296,001,2022-11-21_01h52.34.070,Info_measure_main_exp,2022.2.2,Win32,60.13952369,,,,,,,,,,,space,7.7261,,,,,,,,,,,,,,,,,,,,,,,,,,,,,,,,,,,,,,,,,,,,,,,,,,,,,,,,,,,,,,,,,,,,,,,,,,,,,,,,,,,,,,,,,,,,,,,,,,,
442296,001,2022-11-21_01h52.34.070,Info_measure_main_exp,2022.2.2,Win32,60.13952369,,,,,,,,,,,,,0,0,0,3,1,masks/mask_004.jpg,,,,,,,,,,,,,,,,,,,,,,,,,,,,,,,,,,,,,,,,,,,,,,,,,,,,,,,,,,,,,,,,,,,,,,,,,,,,,,,,,,,,,,,,,,,,,
442296,001,2022-11-21_01h52.34.070,Info_measure_main_exp,2022.2.2,Win32,60.13952369,,,,,,,,,,,,,0,1,1,0,1,masks/mask_001.jpg,,,,,,,,,,,,,,,,,,,,,,,,,,,,,,,,,,,,,,,,,,,,,,,,,,,,,,,,,,,,,,,,,,,,,,,,,,,,,,,,,,,,,,,,,,,,,
442296,001,2022-11-21_01h52.34.070,Info_measure_main_exp,2022.2.2,Win32,60.13952369,,,,,,,,,,,,,0,2,2,4,1,masks/mask_005.jpg,,,,,,,,,,,,,,,,,,,,,,,,,,,,,,,,,,,,,,,,,,,,,,,,,,,,,,,,,,,,,,,,,,,,,,,,,,,,,,,,,,,,,,,,,,,,,
442296,001,2022-11-21_01h52.34.070,Info_measure_main_exp,2022.2.2,Win32,60.13952369,,,,,,,,,,,,,0,3,3,1,1,masks/mask_002.jpg,,,,,,,,,,,,,,,,,,,,,,,,,,,,,,,,,,,,,,,,,,,,,,,,,,,,,,,,,,,,,,,,,,,,,,,,,,,,,,,,,,,,,,,,,,,,,
442296,001,2022-11-21_01h52.34.070,Info_measure_main_exp,2022.2.2,Win32,60.13952369,,,,,,,,,,,,,0,4,4,2,1,masks/mask_003.jpg,,,,,,,,,,,,,,,,,,,,,,,,,,,,,,,,,,,,,,,,,,,,,,,,,,,,,,,,,,,,,,,,,,,,,,,,,,,,,,,,,,,,,,,,,,,,,
442296,001,2022-11-21_01h52.34.070,Info_measure_main_exp,2022.2.2,Win32,60.13952369,,,,,,,,,,,,,,,,,,masks/mask_003.jpg,0,0,0,2,1,,,,,,,,,,,,,,,,,,,,,,,,,,,,,,,,,,,,,,,,,,,,,,,,,,,,,,,,,,,,,,,,,,,,,,,,,,,,,,,,,,,,,,,,
442296,001,2022-11-21_01h52.34.070,Info_measure_main_exp,2022.2.2,Win32,60.13952369,,,,,,,,,,,,,,,,,,masks/mask_005.jpg,0,1,1,4,1,,,,,,,,,,,,,,,,,,,,,,,,,,,,,,,,,,,,,,,,,,,,,,,,,,,,,,,,,,,,,,,,,,,,,,,,,,,,,,,,,,,,,,,,
442296,001,2022-11-21_01h52.34.070,Info_measure_main_exp,2022.2.2,Win32,60.13952369,,,,,,,,,,,,,,,,,,masks/mask_002.jpg,0,2,2,1,1,,,,,,,,,,,,,,,,,,,,,,,,,,,,,,,,,,,,,,,,,,,,,,,,,,,,,,,,,,,,,,,,,,,,,,,,,,,,,,,,,,,,,,,,
442296,001,2022-11-21_01h52.34.070,Info_measure_main_exp,2022.2.2,Win32,60.13952369,,,,,,,,,,,,,,,,,,masks/mask_001.jpg,0,3,3,0,1,,,,,,,,,,,,,,,,,,,,,,,,,,,,,,,,,,,,,,,,,,,,,,,,,,,,,,,,,,,,,,,,,,,,,,,,,,,,,,,,,,,,,,,,
442296,001,2022-11-21_01h52.34.070,Info_measure_main_exp,2022.2.2,Win32,60.13952369,,,,,,,,,,,,,,,,,,masks/mask_004.jpg,0,4,4,3,1,,,,,,,,,,,,,,,,,,,,,,,,,,,,,,,,,,,,,,,,,,,,,,,,,,,,,,,,,,,,,,,,,,,,,,,,,,,,,,,,,,,,,,,,
442296,001,2022-11-21_01h52.34.070,Info_measure_main_exp,2022.2.2,Win32,60.13952369,,,,,,,,,,,,,,,,,,,,,,,,-0.103703675,0.062037044,1,0,0,response7disk,1,99.0539,1,-0.006481453,0.009259259,1,0,0,center_square,0,0,0,2,1,0,131,5,5,2526,2526,prac_patch/patch0002526.jpg,prac_patch/patch0002526.jpg,,,,,,,,,,,,,,,,,,,,,,,,,,,,,,,,,,,,,,,,,,,,,,,,,,,,,,,,,,,,
442296,001,2022-11-21_01h52.34.070,Info_measure_main_exp,2022.2.2,Win32,60.13952369,,,,,,,,,,,,,0,0,0,2,1,masks/mask_003.jpg,,,,,,,,,,,,,,,,,,,,,,,,,,,,,,,,,,,,,,,,,,,,,,,,,,,,,,,,,,,,,,,,,,,,,,,,,,,,,,,,,,,,,,,,,,,,,
442296,001,2022-11-21_01h52.34.070,Info_measure_main_exp,2022.2.2,Win32,60.13952369,,,,,,,,,,,,,0,1,1,3,1,masks/mask_004.jpg,,,,,,,,,,,,,,,,,,,,,,,,,,,,,,,,,,,,,,,,,,,,,,,,,,,,,,,,,,,,,,,,,,,,,,,,,,,,,,,,,,,,,,,,,,,,,
442296,001,2022-11-21_01h52.34.070,Info_measure_main_exp,2022.2.2,Win32,60.13952369,,,,,,,,,,,,,0,2,2,4,1,masks/mask_005.jpg,,,,,,,,,,,,,,,,,,,,,,,,,,,,,,,,,,,,,,,,,,,,,,,,,,,,,,,,,,,,,,,,,,,,,,,,,,,,,,,,,,,,,,,,,,,,,
442296,001,2022-11-21_01h52.34.070,Info_measure_main_exp,2022.2.2,Win32,60.13952369,,,,,,,,,,,,,0,3,3,1,1,masks/mask_002.jpg,,,,,,,,,,,,,,,,,,,,,,,,,,,,,,,,,,,,,,,,,,,,,,,,,,,,,,,,,,,,,,,,,,,,,,,,,,,,,,,,,,,,,,,,,,,,,
442296,001,2022-11-21_01h52.34.070,Info_measure_main_exp,2022.2.2,Win32,60.13952369,,,,,,,,,,,,,0,4,4,0,1,masks/mask_001.jpg,,,,,,,,,,,,,,,,,,,,,,,,,,,,,,,,,,,,,,,,,,,,,,,,,,,,,,,,,,,,,,,,,,,,,,,,,,,,,,,,,,,,,,,,,,,,,
442296,001,2022-11-21_01h52.34.070,Info_measure_main_exp,2022.2.2,Win32,60.13952369,,,,,,,,,,,,,,,,,,masks/mask_005.jpg,0,0,0,4,1,,,,,,,,,,,,,,,,,,,,,,,,,,,,,,,,,,,,,,,,,,,,,,,,,,,,,,,,,,,,,,,,,,,,,,,,,,,,,,,,,,,,,,,,
442296,001,2022-11-21_01h52.34.070,Info_measure_main_exp,2022.2.2,Win32,60.13952369,,,,,,,,,,,,,,,,,,masks/mask_003.jpg,0,1,1,2,1,,,,,,,,,,,,,,,,,,,,,,,,,,,,,,,,,,,,,,,,,,,,,,,,,,,,,,,,,,,,,,,,,,,,,,,,,,,,,,,,,,,,,,,,
442296,001,2022-11-21_01h52.34.070,Info_measure_main_exp,2022.2.2,Win32,60.13952369,,,,,,,,,,,,,,,,,,masks/mask_001.jpg,0,2,2,0,1,,,,,,,,,,,,,,,,,,,,,,,,,,,,,,,,,,,,,,,,,,,,,,,,,,,,,,,,,,,,,,,,,,,,,,,,,,,,,,,,,,,,,,,,
442296,001,2022-11-21_01h52.34.070,Info_measure_main_exp,2022.2.2,Win32,60.13952369,,,,,,,,,,,,,,,,,,masks/mask_002.jpg,0,3,3,1,1,,,,,,,,,,,,,,,,,,,,,,,,,,,,,,,,,,,,,,,,,,,,,,,,,,,,,,,,,,,,,,,,,,,,,,,,,,,,,,,,,,,,,,,,
442296,001,2022-11-21_01h52.34.070,Info_measure_main_exp,2022.2.2,Win32,60.13952369,,,,,,,,,,,,,,,,,,masks/mask_004.jpg,0,4,4,3,1,,,,,,,,,,,,,,,,,,,,,,,,,,,,,,,,,,,,,,,,,,,,,,,,,,,,,,,,,,,,,,,,,,,,,,,,,,,,,,,,,,,,,,,,
442296,001,2022-11-21_01h52.34.070,Info_measure_main_exp,2022.2.2,Win32,60.13952369,,,,,,,,,,,,,,,,,,,,,,,,0.125,-0.050925926,1,0,0,response3disk,5,121.6333,1,-0.000925912,-0.0074074,1,0,0,center_square,0,1,1,0,1,0,131,5,5,2370,2406,prac_patch/patch0002370.jpg,prac_patch/patch0002406.jpg,,,,,,,,,,,,,,,,,,,,,,,,,,,,,,,,,,,,,,,,,,,,,,,,,,,,,,,,,,,,
442296,001,2022-11-21_01h52.34.070,Info_measure_main_exp,2022.2.2,Win32,60.13952369,,,,,,,,,,,,,0,0,0,4,1,masks/mask_005.jpg,,,,,,,,,,,,,,,,,,,,,,,,,,,,,,,,,,,,,,,,,,,,,,,,,,,,,,,,,,,,,,,,,,,,,,,,,,,,,,,,,,,,,,,,,,,,,
442296,001,2022-11-21_01h52.34.070,Info_measure_main_exp,2022.2.2,Win32,60.13952369,,,,,,,,,,,,,0,1,1,2,1,masks/mask_003.jpg,,,,,,,,,,,,,,,,,,,,,,,,,,,,,,,,,,,,,,,,,,,,,,,,,,,,,,,,,,,,,,,,,,,,,,,,,,,,,,,,,,,,,,,,,,,,,
442296,001,2022-11-21_01h52.34.070,Info_measure_main_exp,2022.2.2,Win32,60.13952369,,,,,,,,,,,,,0,2,2,0,1,masks/mask_001.jpg,,,,,,,,,,,,,,,,,,,,,,,,,,,,,,,,,,,,,,,,,,,,,,,,,,,,,,,,,,,,,,,,,,,,,,,,,,,,,,,,,,,,,,,,,,,,,
442296,001,2022-11-21_01h52.34.070,Info_measure_main_exp,2022.2.2,Win32,60.13952369,,,,,,,,,,,,,0,3,3,1,1,masks/mask_002.jpg,,,,,,,,,,,,,,,,,,,,,,,,,,,,,,,,,,,,,,,,,,,,,,,,,,,,,,,,,,,,,,,,,,,,,,,,,,,,,,,,,,,,,,,,,,,,,
442296,001,2022-11-21_01h52.34.070,Info_measure_main_exp,2022.2.2,Win32,60.13952369,,,,,,,,,,,,,0,4,4,3,1,masks/mask_004.jpg,,,,,,,,,,,,,,,,,,,,,,,,,,,,,,,,,,,,,,,,,,,,,,,,,,,,,,,,,,,,,,,,,,,,,,,,,,,,,,,,,,,,,,,,,,,,,
442296,001,2022-11-21_01h52.34.070,Info_measure_main_exp,2022.2.2,Win32,60.13952369,,,,,,,,,,,,,,,,,,masks/mask_003.jpg,0,0,0,2,1,,,,,,,,,,,,,,,,,,,,,,,,,,,,,,,,,,,,,,,,,,,,,,,,,,,,,,,,,,,,,,,,,,,,,,,,,,,,,,,,,,,,,,,,
442296,001,2022-11-21_01h52.34.070,Info_measure_main_exp,2022.2.2,Win32,60.13952369,,,,,,,,,,,,,,,,,,masks/mask_002.jpg,0,1,1,1,1,,,,,,,,,,,,,,,,,,,,,,,,,,,,,,,,,,,,,,,,,,,,,,,,,,,,,,,,,,,,,,,,,,,,,,,,,,,,,,,,,,,,,,,,
442296,001,2022-11-21_01h52.34.070,Info_measure_main_exp,2022.2.2,Win32,60.13952369,,,,,,,,,,,,,,,,,,masks/mask_001.jpg,0,2,2,0,1,,,,,,,,,,,,,,,,,,,,,,,,,,,,,,,,,,,,,,,,,,,,,,,,,,,,,,,,,,,,,,,,,,,,,,,,,,,,,,,,,,,,,,,,
442296,001,2022-11-21_01h52.34.070,Info_measure_main_exp,2022.2.2,Win32,60.13952369,,,,,,,,,,,,,,,,,,masks/mask_005.jpg,0,3,3,4,1,,,,,,,,,,,,,,,,,,,,,,,,,,,,,,,,,,,,,,,,,,,,,,,,,,,,,,,,,,,,,,,,,,,,,,,,,,,,,,,,,,,,,,,,
442296,001,2022-11-21_01h52.34.070,Info_measure_main_exp,2022.2.2,Win32,60.13952369,,,,,,,,,,,,,,,,,,masks/mask_004.jpg,0,4,4,3,1,,,,,,,,,,,,,,,,,,,,,,,,,,,,,,,,,,,,,,,,,,,,,,,,,,,,,,,,,,,,,,,,,,,,,,,,,,,,,,,,,,,,,,,,
442296,001,2022-11-21_01h52.34.070,Info_measure_main_exp,2022.2.2,Win32,60.13952369,,,,,,,,,,,,,,,,,,,,,,,,0.02407406,-0.125925912,1,0,0,response3disk,4,138.0348,1,-0.007407365,0.00462963,1,0,0,center_square,0,2,2,1,1,0,131,5,5,2514,2490,prac_patch/patch0002514.jpg,prac_patch/patch0002490.jpg,,,,,,,,,,,,,,,,,,,,,,,,,,,,,,,,,,,,,,,,,,,,,,,,,,,,,,,,,,,,
442296,001,2022-11-21_01h52.34.070,Info_measure_main_exp,2022.2.2,Win32,60.13952369,,,,,,,,,,,,,,,,,,,,,,,,,,,,,,,,,,,,,,,,,,,,,,,,,,,,,,,,,,,space,4.695,,,,,,,,,,,,,,,,,,,,,,,,,,,,,,,,,,,,,,,,,,,,,,,,,,,
442296,001,2022-11-21_01h52.34.070,Info_measure_main_exp,2022.2.2,Win32,60.13952369,,,,,,,,,,,,,,,,,,masks/mask_001.jpg,,,,,,,,,,,,,,,,,,,,,,,,,,,,,,,,,,,,,,,,,,,0,0,0,0,1,,,,,,,,,,,,,,,,,,,,,,,,,,,,,,,,,,,,,,,,,,,,,,
442296,001,2022-11-21_01h52.34.070,Info_measure_main_exp,2022.2.2,Win32,60.13952369,,,,,,,,,,,,,,,,,,masks/mask_005.jpg,,,,,,,,,,,,,,,,,,,,,,,,,,,,,,,,,,,,,,,,,,,0,1,1,4,1,,,,,,,,,,,,,,,,,,,,,,,,,,,,,,,,,,,,,,,,,,,,,,
442296,001,2022-11-21_01h52.34.070,Info_measure_main_exp,2022.2.2,Win32,60.13952369,,,,,,,,,,,,,,,,,,masks/mask_002.jpg,,,,,,,,,,,,,,,,,,,,,,,,,,,,,,,,,,,,,,,,,,,0,2,2,1,1,,,,,,,,,,,,,,,,,,,,,,,,,,,,,,,,,,,,,,,,,,,,,,
442296,001,2022-11-21_01h52.34.070,Info_measure_main_exp,2022.2.2,Win32,60.13952369,,,,,,,,,,,,,,,,,,masks/mask_004.jpg,,,,,,,,,,,,,,,,,,,,,,,,,,,,,,,,,,,,,,,,,,,0,3,3,3,1,,,,,,,,,,,,,,,,,,,,,,,,,,,,,,,,,,,,,,,,,,,,,,
442296,001,2022-11-21_01h52.34.070,Info_measure_main_exp,2022.2.2,Win32,60.13952369,,,,,,,,,,,,,,,,,,masks/mask_003.jpg,,,,,,,,,,,,,,,,,,,,,,,,,,,,,,,,,,,,,,,,,,,0,4,4,2,1,,,,,,,,,,,,,,,,,,,,,,,,,,,,,,,,,,,,,,,,,,,,,,
442296,001,2022-11-21_01h52.34.070,Info_measure_main_exp,2022.2.2,Win32,60.13952369,,,,,,,,,,,,,,,,,,masks/mask_004.jpg,,,,,,,,,,,,,,,,,,,,,,,,,,,,,,,,,,,,,,,,,,,,,,,,0,0,0,3,1,,,,,,,,,,,,,,,,,,,,,,,,,,,,,,,,,,,,,,,,,
442296,001,2022-11-21_01h52.34.070,Info_measure_main_exp,2022.2.2,Win32,60.13952369,,,,,,,,,,,,,,,,,,masks/mask_001.jpg,,,,,,,,,,,,,,,,,,,,,,,,,,,,,,,,,,,,,,,,,,,,,,,,0,1,1,0,1,,,,,,,,,,,,,,,,,,,,,,,,,,,,,,,,,,,,,,,,,
442296,001,2022-11-21_01h52.34.070,Info_measure_main_exp,2022.2.2,Win32,60.13952369,,,,,,,,,,,,,,,,,,masks/mask_005.jpg,,,,,,,,,,,,,,,,,,,,,,,,,,,,,,,,,,,,,,,,,,,,,,,,0,2,2,4,1,,,,,,,,,,,,,,,,,,,,,,,,,,,,,,,,,,,,,,,,,
442296,001,2022-11-21_01h52.34.070,Info_measure_main_exp,2022.2.2,Win32,60.13952369,,,,,,,,,,,,,,,,,,masks/mask_002.jpg,,,,,,,,,,,,,,,,,,,,,,,,,,,,,,,,,,,,,,,,,,,,,,,,0,3,3,1,1,,,,,,,,,,,,,,,,,,,,,,,,,,,,,,,,,,,,,,,,,
442296,001,2022-11-21_01h52.34.070,Info_measure_main_exp,2022.2.2,Win32,60.13952369,,,,,,,,,,,,,,,,,,masks/mask_003.jpg,,,,,,,,,,,,,,,,,,,,,,,,,,,,,,,,,,,,,,,,,,,,,,,,0,4,4,2,1,,,,,,,,,,,,,,,,,,,,,,,,,,,,,,,,,,,,,,,,,
442296,001,2022-11-21_01h52.34.070,Info_measure_main_exp,2022.2.2,Win32,60.13952369,,,,,,,,,,,,,,,,,,,,,,,,,,,,,,5,4.7141,1,,,,,,,,,,,,0,131,5,5,2142,2142,absent_patch/patch0002142.jpg,absent_patch/patch0002142.jpg,,,,,,,,,,,,,,,,,,,,0.146296325,-0.057407414,1,0,0,response3disk,1,0.000925912,-0.006481489,1,0,0,center_square,0,0,0,13,1,,,,,,,,,,,,,,,,,,,,,,,
442296,001,2022-11-21_01h52.34.070,Info_measure_main_exp,2022.2.2,Win32,60.13952369,,,,,,,,,,,,,,,,,,masks/mask_005.jpg,,,,,,,,,,,,,,,,,,,,,,,,,,,,,,,,,,,,,,,,,,,0,0,0,4,1,,,,,,,,,,,,,,,,,,,,,,,,,,,,,,,,,,,,,,,,,,,,,,
442296,001,2022-11-21_01h52.34.070,Info_measure_main_exp,2022.2.2,Win32,60.13952369,,,,,,,,,,,,,,,,,,masks/mask_004.jpg,,,,,,,,,,,,,,,,,,,,,,,,,,,,,,,,,,,,,,,,,,,0,1,1,3,1,,,,,,,,,,,,,,,,,,,,,,,,,,,,,,,,,,,,,,,,,,,,,,
442296,001,2022-11-21_01h52.34.070,Info_measure_main_exp,2022.2.2,Win32,60.13952369,,,,,,,,,,,,,,,,,,masks/mask_002.jpg,,,,,,,,,,,,,,,,,,,,,,,,,,,,,,,,,,,,,,,,,,,0,2,2,1,1,,,,,,,,,,,,,,,,,,,,,,,,,,,,,,,,,,,,,,,,,,,,,,
442296,001,2022-11-21_01h52.34.070,Info_measure_main_exp,2022.2.2,Win32,60.13952369,,,,,,,,,,,,,,,,,,masks/mask_003.jpg,,,,,,,,,,,,,,,,,,,,,,,,,,,,,,,,,,,,,,,,,,,0,3,3,2,1,,,,,,,,,,,,,,,,,,,,,,,,,,,,,,,,,,,,,,,,,,,,,,
442296,001,2022-11-21_01h52.34.070,Info_measure_main_exp,2022.2.2,Win32,60.13952369,,,,,,,,,,,,,,,,,,masks/mask_001.jpg,,,,,,,,,,,,,,,,,,,,,,,,,,,,,,,,,,,,,,,,,,,0,4,4,0,1,,,,,,,,,,,,,,,,,,,,,,,,,,,,,,,,,,,,,,,,,,,,,,
442296,001,2022-11-21_01h52.34.070,Info_measure_main_exp,2022.2.2,Win32,60.13952369,,,,,,,,,,,,,,,,,,masks/mask_005.jpg,,,,,,,,,,,,,,,,,,,,,,,,,,,,,,,,,,,,,,,,,,,,,,,,0,0,0,4,1,,,,,,,,,,,,,,,,,,,,,,,,,,,,,,,,,,,,,,,,,
442296,001,2022-11-21_01h52.34.070,Info_measure_main_exp,2022.2.2,Win32,60.13952369,,,,,,,,,,,,,,,,,,masks/mask_004.jpg,,,,,,,,,,,,,,,,,,,,,,,,,,,,,,,,,,,,,,,,,,,,,,,,0,1,1,3,1,,,,,,,,,,,,,,,,,,,,,,,,,,,,,,,,,,,,,,,,,
442296,001,2022-11-21_01h52.34.070,Info_measure_main_exp,2022.2.2,Win32,60.13952369,,,,,,,,,,,,,,,,,,masks/mask_003.jpg,,,,,,,,,,,,,,,,,,,,,,,,,,,,,,,,,,,,,,,,,,,,,,,,0,2,2,2,1,,,,,,,,,,,,,,,,,,,,,,,,,,,,,,,,,,,,,,,,,
442296,001,2022-11-21_01h52.34.070,Info_measure_main_exp,2022.2.2,Win32,60.13952369,,,,,,,,,,,,,,,,,,masks/mask_002.jpg,,,,,,,,,,,,,,,,,,,,,,,,,,,,,,,,,,,,,,,,,,,,,,,,0,3,3,1,1,,,,,,,,,,,,,,,,,,,,,,,,,,,,,,,,,,,,,,,,,
442296,001,2022-11-21_01h52.34.070,Info_measure_main_exp,2022.2.2,Win32,60.13952369,,,,,,,,,,,,,,,,,,masks/mask_001.jpg,,,,,,,,,,,,,,,,,,,,,,,,,,,,,,,,,,,,,,,,,,,,,,,,0,4,4,0,1,,,,,,,,,,,,,,,,,,,,,,,,,,,,,,,,,,,,,,,,,
442296,001,2022-11-21_01h52.34.070,Info_measure_main_exp,2022.2.2,Win32,60.13952369,,,,,,,,,,,,,,,,,,,,,,,,,,,,,,3,2.5312,1,,,,,,,,,,,,0,131,5,5,2142,2166,absent_patch/patch0002142.jpg,absent_patch/patch0002166.jpg,,,,,,,,,,,,,,,,,,,,-0.034259231,-0.161111125,1,0,0,response5disk,2,-0.003703718,-0.001851859,1,0,0,center_square,0,1,1,66,1,,,,,,,,,,,,,,,,,,,,,,,
442296,001,2022-11-21_01h52.34.070,Info_measure_main_exp,2022.2.2,Win32,60.13952369,,,,,,,,,,,,,,,,,,masks/mask_001.jpg,,,,,,,,,,,,,,,,,,,,,,,,,,,,,,,,,,,,,,,,,,,0,0,0,0,1,,,,,,,,,,,,,,,,,,,,,,,,,,,,,,,,,,,,,,,,,,,,,,
442296,001,2022-11-21_01h52.34.070,Info_measure_main_exp,2022.2.2,Win32,60.13952369,,,,,,,,,,,,,,,,,,masks/mask_005.jpg,,,,,,,,,,,,,,,,,,,,,,,,,,,,,,,,,,,,,,,,,,,0,1,1,4,1,,,,,,,,,,,,,,,,,,,,,,,,,,,,,,,,,,,,,,,,,,,,,,
442296,001,2022-11-21_01h52.34.070,Info_measure_main_exp,2022.2.2,Win32,60.13952369,,,,,,,,,,,,,,,,,,masks/mask_004.jpg,,,,,,,,,,,,,,,,,,,,,,,,,,,,,,,,,,,,,,,,,,,0,2,2,3,1,,,,,,,,,,,,,,,,,,,,,,,,,,,,,,,,,,,,,,,,,,,,,,
442296,001,2022-11-21_01h52.34.070,Info_measure_main_exp,2022.2.2,Win32,60.13952369,,,,,,,,,,,,,,,,,,masks/mask_002.jpg,,,,,,,,,,,,,,,,,,,,,,,,,,,,,,,,,,,,,,,,,,,0,3,3,1,1,,,,,,,,,,,,,,,,,,,,,,,,,,,,,,,,,,,,,,,,,,,,,,
442296,001,2022-11-21_01h52.34.070,Info_measure_main_exp,2022.2.2,Win32,60.13952369,,,,,,,,,,,,,,,,,,masks/mask_003.jpg,,,,,,,,,,,,,,,,,,,,,,,,,,,,,,,,,,,,,,,,,,,0,4,4,2,1,,,,,,,,,,,,,,,,,,,,,,,,,,,,,,,,,,,,,,,,,,,,,,
442296,001,2022-11-21_01h52.34.070,Info_measure_main_exp,2022.2.2,Win32,60.13952369,,,,,,,,,,,,,,,,,,masks/mask_005.jpg,,,,,,,,,,,,,,,,,,,,,,,,,,,,,,,,,,,,,,,,,,,,,,,,0,0,0,4,1,,,,,,,,,,,,,,,,,,,,,,,,,,,,,,,,,,,,,,,,,
442296,001,2022-11-21_01h52.34.070,Info_measure_main_exp,2022.2.2,Win32,60.13952369,,,,,,,,,,,,,,,,,,masks/mask_004.jpg,,,,,,,,,,,,,,,,,,,,,,,,,,,,,,,,,,,,,,,,,,,,,,,,0,1,1,3,1,,,,,,,,,,,,,,,,,,,,,,,,,,,,,,,,,,,,,,,,,
442296,001,2022-11-21_01h52.34.070,Info_measure_main_exp,2022.2.2,Win32,60.13952369,,,,,,,,,,,,,,,,,,masks/mask_002.jpg,,,,,,,,,,,,,,,,,,,,,,,,,,,,,,,,,,,,,,,,,,,,,,,,0,2,2,1,1,,,,,,,,,,,,,,,,,,,,,,,,,,,,,,,,,,,,,,,,,
442296,001,2022-11-21_01h52.34.070,Info_measure_main_exp,2022.2.2,Win32,60.13952369,,,,,,,,,,,,,,,,,,masks/mask_003.jpg,,,,,,,,,,,,,,,,,,,,,,,,,,,,,,,,,,,,,,,,,,,,,,,,0,3,3,2,1,,,,,,,,,,,,,,,,,,,,,,,,,,,,,,,,,,,,,,,,,
442296,001,2022-11-21_01h52.34.070,Info_measure_main_exp,2022.2.2,Win32,60.13952369,,,,,,,,,,,,,,,,,,masks/mask_001.jpg,,,,,,,,,,,,,,,,,,,,,,,,,,,,,,,,,,,,,,,,,,,,,,,,0,4,4,0,1,,,,,,,,,,,,,,,,,,,,,,,,,,,,,,,,,,,,,,,,,
442296,001,2022-11-21_01h52.34.070,Info_measure_main_exp,2022.2.2,Win32,60.13952369,,,,,,,,,,,,,,,,,,,,,,,,,,,,,,0,1.4321,1,,,,,,,,,,,,0,131,5,5,1986,1986,absent_patch/patch0001986.jpg,absent_patch/patch0001986.jpg,,,,,,,,,,,,,,,,,,,,-0.046296296,0.076851845,1,0,0,response7disk,3,-0.009259259,-0.00462963,1,0,0,center_square,0,2,2,19,1,,,,,,,,,,,,,,,,,,,,,,,
442296,001,2022-11-21_01h52.34.070,Info_measure_main_exp,2022.2.2,Win32,60.13952369,,,,,,,,,,,,,,,,,,masks/mask_002.jpg,,,,,,,,,,,,,,,,,,,,,,,,,,,,,,,,,,,,,,,,,,,0,0,0,1,1,,,,,,,,,,,,,,,,,,,,,,,,,,,,,,,,,,,,,,,,,,,,,,
442296,001,2022-11-21_01h52.34.070,Info_measure_main_exp,2022.2.2,Win32,60.13952369,,,,,,,,,,,,,,,,,,masks/mask_001.jpg,,,,,,,,,,,,,,,,,,,,,,,,,,,,,,,,,,,,,,,,,,,0,1,1,0,1,,,,,,,,,,,,,,,,,,,,,,,,,,,,,,,,,,,,,,,,,,,,,,
442296,001,2022-11-21_01h52.34.070,Info_measure_main_exp,2022.2.2,Win32,60.13952369,,,,,,,,,,,,,,,,,,masks/mask_004.jpg,,,,,,,,,,,,,,,,,,,,,,,,,,,,,,,,,,,,,,,,,,,0,2,2,3,1,,,,,,,,,,,,,,,,,,,,,,,,,,,,,,,,,,,,,,,,,,,,,,
442296,001,2022-11-21_01h52.34.070,Info_measure_main_exp,2022.2.2,Win32,60.13952369,,,,,,,,,,,,,,,,,,masks/mask_005.jpg,,,,,,,,,,,,,,,,,,,,,,,,,,,,,,,,,,,,,,,,,,,0,3,3,4,1,,,,,,,,,,,,,,,,,,,,,,,,,,,,,,,,,,,,,,,,,,,,,,
442296,001,2022-11-21_01h52.34.070,Info_measure_main_exp,2022.2.2,Win32,60.13952369,,,,,,,,,,,,,,,,,,masks/mask_003.jpg,,,,,,,,,,,,,,,,,,,,,,,,,,,,,,,,,,,,,,,,,,,0,4,4,2,1,,,,,,,,,,,,,,,,,,,,,,,,,,,,,,,,,,,,,,,,,,,,,,
442296,001,2022-11-21_01h52.34.070,Info_measure_main_exp,2022.2.2,Win32,60.13952369,,,,,,,,,,,,,,,,,,masks/mask_004.jpg,,,,,,,,,,,,,,,,,,,,,,,,,,,,,,,,,,,,,,,,,,,,,,,,0,0,0,3,1,,,,,,,,,,,,,,,,,,,,,,,,,,,,,,,,,,,,,,,,,
442296,001,2022-11-21_01h52.34.070,Info_measure_main_exp,2022.2.2,Win32,60.13952369,,,,,,,,,,,,,,,,,,masks/mask_001.jpg,,,,,,,,,,,,,,,,,,,,,,,,,,,,,,,,,,,,,,,,,,,,,,,,0,1,1,0,1,,,,,,,,,,,,,,,,,,,,,,,,,,,,,,,,,,,,,,,,,
442296,001,2022-11-21_01h52.34.070,Info_measure_main_exp,2022.2.2,Win32,60.13952369,,,,,,,,,,,,,,,,,,masks/mask_005.jpg,,,,,,,,,,,,,,,,,,,,,,,,,,,,,,,,,,,,,,,,,,,,,,,,0,2,2,4,1,,,,,,,,,,,,,,,,,,,,,,,,,,,,,,,,,,,,,,,,,
442296,001,2022-11-21_01h52.34.070,Info_measure_main_exp,2022.2.2,Win32,60.13952369,,,,,,,,,,,,,,,,,,masks/mask_002.jpg,,,,,,,,,,,,,,,,,,,,,,,,,,,,,,,,,,,,,,,,,,,,,,,,0,3,3,1,1,,,,,,,,,,,,,,,,,,,,,,,,,,,,,,,,,,,,,,,,,
442296,001,2022-11-21_01h52.34.070,Info_measure_main_exp,2022.2.2,Win32,60.13952369,,,,,,,,,,,,,,,,,,masks/mask_003.jpg,,,,,,,,,,,,,,,,,,,,,,,,,,,,,,,,,,,,,,,,,,,,,,,,0,4,4,2,1,,,,,,,,,,,,,,,,,,,,,,,,,,,,,,,,,,,,,,,,,
442296,001,2022-11-21_01h52.34.070,Info_measure_main_exp,2022.2.2,Win32,60.13952369,,,,,,,,,,,,,,,,,,,,,,,,,,,,,,6,1.6319,1,,,,,,,,,,,,0,131,5,5,1974,2166,absent_patch/patch0001974.jpg,absent_patch/patch0002166.jpg,,,,,,,,,,,,,,,,,,,,0.075925968,0.020370377,1,0,0,response1disk,4,-0.000925912,0,1,0,0,center_square,0,3,3,77,1,,,,,,,,,,,,,,,,,,,,,,,
442296,001,2022-11-21_01h52.34.070,Info_measure_main_exp,2022.2.2,Win32,60.13952369,,,,,,,,,,,,,,,,,,masks/mask_002.jpg,,,,,,,,,,,,,,,,,,,,,,,,,,,,,,,,,,,,,,,,,,,0,0,0,1,1,,,,,,,,,,,,,,,,,,,,,,,,,,,,,,,,,,,,,,,,,,,,,,
442296,001,2022-11-21_01h52.34.070,Info_measure_main_exp,2022.2.2,Win32,60.13952369,,,,,,,,,,,,,,,,,,masks/mask_004.jpg,,,,,,,,,,,,,,,,,,,,,,,,,,,,,,,,,,,,,,,,,,,0,1,1,3,1,,,,,,,,,,,,,,,,,,,,,,,,,,,,,,,,,,,,,,,,,,,,,,
442296,001,2022-11-21_01h52.34.070,Info_measure_main_exp,2022.2.2,Win32,60.13952369,,,,,,,,,,,,,,,,,,masks/mask_003.jpg,,,,,,,,,,,,,,,,,,,,,,,,,,,,,,,,,,,,,,,,,,,0,2,2,2,1,,,,,,,,,,,,,,,,,,,,,,,,,,,,,,,,,,,,,,,,,,,,,,
442296,001,2022-11-21_01h52.34.070,Info_measure_main_exp,2022.2.2,Win32,60.13952369,,,,,,,,,,,,,,,,,,masks/mask_005.jpg,,,,,,,,,,,,,,,,,,,,,,,,,,,,,,,,,,,,,,,,,,,0,3,3,4,1,,,,,,,,,,,,,,,,,,,,,,,,,,,,,,,,,,,,,,,,,,,,,,
442296,001,2022-11-21_01h52.34.070,Info_measure_main_exp,2022.2.2,Win32,60.13952369,,,,,,,,,,,,,,,,,,masks/mask_001.jpg,,,,,,,,,,,,,,,,,,,,,,,,,,,,,,,,,,,,,,,,,,,0,4,4,0,1,,,,,,,,,,,,,,,,,,,,,,,,,,,,,,,,,,,,,,,,,,,,,,
442296,001,2022-11-21_01h52.34.070,Info_measure_main_exp,2022.2.2,Win32,60.13952369,,,,,,,,,,,,,,,,,,masks/mask_005.jpg,,,,,,,,,,,,,,,,,,,,,,,,,,,,,,,,,,,,,,,,,,,,,,,,0,0,0,4,1,,,,,,,,,,,,,,,,,,,,,,,,,,,,,,,,,,,,,,,,,
442296,001,2022-11-21_01h52.34.070,Info_measure_main_exp,2022.2.2,Win32,60.13952369,,,,,,,,,,,,,,,,,,masks/mask_001.jpg,,,,,,,,,,,,,,,,,,,,,,,,,,,,,,,,,,,,,,,,,,,,,,,,0,1,1,0,1,,,,,,,,,,,,,,,,,,,,,,,,,,,,,,,,,,,,,,,,,
442296,001,2022-11-21_01h52.34.070,Info_measure_main_exp,2022.2.2,Win32,60.13952369,,,,,,,,,,,,,,,,,,masks/mask_002.jpg,,,,,,,,,,,,,,,,,,,,,,,,,,,,,,,,,,,,,,,,,,,,,,,,0,2,2,1,1,,,,,,,,,,,,,,,,,,,,,,,,,,,,,,,,,,,,,,,,,
442296,001,2022-11-21_01h52.34.070,Info_measure_main_exp,2022.2.2,Win32,60.13952369,,,,,,,,,,,,,,,,,,masks/mask_004.jpg,,,,,,,,,,,,,,,,,,,,,,,,,,,,,,,,,,,,,,,,,,,,,,,,0,3,3,3,1,,,,,,,,,,,,,,,,,,,,,,,,,,,,,,,,,,,,,,,,,
442296,001,2022-11-21_01h52.34.070,Info_measure_main_exp,2022.2.2,Win32,60.13952369,,,,,,,,,,,,,,,,,,masks/mask_003.jpg,,,,,,,,,,,,,,,,,,,,,,,,,,,,,,,,,,,,,,,,,,,,,,,,0,4,4,2,1,,,,,,,,,,,,,,,,,,,,,,,,,,,,,,,,,,,,,,,,,
442296,001,2022-11-21_01h52.34.070,Info_measure_main_exp,2022.2.2,Win32,60.13952369,,,,,,,,,,,,,,,,,,,,,,,,,,,,,,5,3.8964,1,,,,,,,,,,,,0,131,5,5,1974,2250,absent_patch/patch0001974.jpg,absent_patch/patch0002250.jpg,,,,,,,,,,,,,,,,,,,,0.075925968,-0.019444466,1,0,0,response3disk,5,0.001851894,-0.003703718,1,0,0,center_square,0,4,4,55,1,,,,,,,,,,,,,,,,,,,,,,,
442296,001,2022-11-21_01h52.34.070,Info_measure_main_exp,2022.2.2,Win32,60.13952369,,,,,,,,,,,,,,,,,,masks/mask_002.jpg,,,,,,,,,,,,,,,,,,,,,,,,,,,,,,,,,,,,,,,,,,,0,0,0,1,1,,,,,,,,,,,,,,,,,,,,,,,,,,,,,,,,,,,,,,,,,,,,,,
442296,001,2022-11-21_01h52.34.070,Info_measure_main_exp,2022.2.2,Win32,60.13952369,,,,,,,,,,,,,,,,,,masks/mask_003.jpg,,,,,,,,,,,,,,,,,,,,,,,,,,,,,,,,,,,,,,,,,,,0,1,1,2,1,,,,,,,,,,,,,,,,,,,,,,,,,,,,,,,,,,,,,,,,,,,,,,
442296,001,2022-11-21_01h52.34.070,Info_measure_main_exp,2022.2.2,Win32,60.13952369,,,,,,,,,,,,,,,,,,masks/mask_005.jpg,,,,,,,,,,,,,,,,,,,,,,,,,,,,,,,,,,,,,,,,,,,0,2,2,4,1,,,,,,,,,,,,,,,,,,,,,,,,,,,,,,,,,,,,,,,,,,,,,,
442296,001,2022-11-21_01h52.34.070,Info_measure_main_exp,2022.2.2,Win32,60.13952369,,,,,,,,,,,,,,,,,,masks/mask_004.jpg,,,,,,,,,,,,,,,,,,,,,,,,,,,,,,,,,,,,,,,,,,,0,3,3,3,1,,,,,,,,,,,,,,,,,,,,,,,,,,,,,,,,,,,,,,,,,,,,,,
442296,001,2022-11-21_01h52.34.070,Info_measure_main_exp,2022.2.2,Win32,60.13952369,,,,,,,,,,,,,,,,,,masks/mask_001.jpg,,,,,,,,,,,,,,,,,,,,,,,,,,,,,,,,,,,,,,,,,,,0,4,4,0,1,,,,,,,,,,,,,,,,,,,,,,,,,,,,,,,,,,,,,,,,,,,,,,
442296,001,2022-11-21_01h52.34.070,Info_measure_main_exp,2022.2.2,Win32,60.13952369,,,,,,,,,,,,,,,,,,masks/mask_002.jpg,,,,,,,,,,,,,,,,,,,,,,,,,,,,,,,,,,,,,,,,,,,,,,,,0,0,0,1,1,,,,,,,,,,,,,,,,,,,,,,,,,,,,,,,,,,,,,,,,,
442296,001,2022-11-21_01h52.34.070,Info_measure_main_exp,2022.2.2,Win32,60.13952369,,,,,,,,,,,,,,,,,,masks/mask_001.jpg,,,,,,,,,,,,,,,,,,,,,,,,,,,,,,,,,,,,,,,,,,,,,,,,0,1,1,0,1,,,,,,,,,,,,,,,,,,,,,,,,,,,,,,,,,,,,,,,,,
442296,001,2022-11-21_01h52.34.070,Info_measure_main_exp,2022.2.2,Win32,60.13952369,,,,,,,,,,,,,,,,,,masks/mask_005.jpg,,,,,,,,,,,,,,,,,,,,,,,,,,,,,,,,,,,,,,,,,,,,,,,,0,2,2,4,1,,,,,,,,,,,,,,,,,,,,,,,,,,,,,,,,,,,,,,,,,
442296,001,2022-11-21_01h52.34.070,Info_measure_main_exp,2022.2.2,Win32,60.13952369,,,,,,,,,,,,,,,,,,masks/mask_004.jpg,,,,,,,,,,,,,,,,,,,,,,,,,,,,,,,,,,,,,,,,,,,,,,,,0,3,3,3,1,,,,,,,,,,,,,,,,,,,,,,,,,,,,,,,,,,,,,,,,,
442296,001,2022-11-21_01h52.34.070,Info_measure_main_exp,2022.2.2,Win32,60.13952369,,,,,,,,,,,,,,,,,,masks/mask_003.jpg,,,,,,,,,,,,,,,,,,,,,,,,,,,,,,,,,,,,,,,,,,,,,,,,0,4,4,2,1,,,,,,,,,,,,,,,,,,,,,,,,,,,,,,,,,,,,,,,,,
442296,001,2022-11-21_01h52.34.070,Info_measure_main_exp,2022.2.2,Win32,60.13952369,,,,,,,,,,,,,,,,,,,,,,,,,,,,,,4,4.4625,1,,,,,,,,,,,,1,131,5,5,1950,1,absent_patch/patch0001950.jpg,present_patch/cong_131_5_a.jpg,,,,,,,,,,,,,,,,,,,,0.016666695,-0.058333326,1,0,0,response3disk,6,0,-0.000925947,1,0,0,center_square,0,5,5,39,1,,,,,,,,,,,,,,,,,,,,,,,
442296,001,2022-11-21_01h52.34.070,Info_measure_main_exp,2022.2.2,Win32,60.13952369,,,,,,,,,,,,,,,,,,masks/mask_001.jpg,,,,,,,,,,,,,,,,,,,,,,,,,,,,,,,,,,,,,,,,,,,0,0,0,0,1,,,,,,,,,,,,,,,,,,,,,,,,,,,,,,,,,,,,,,,,,,,,,,
442296,001,2022-11-21_01h52.34.070,Info_measure_main_exp,2022.2.2,Win32,60.13952369,,,,,,,,,,,,,,,,,,masks/mask_002.jpg,,,,,,,,,,,,,,,,,,,,,,,,,,,,,,,,,,,,,,,,,,,0,1,1,1,1,,,,,,,,,,,,,,,,,,,,,,,,,,,,,,,,,,,,,,,,,,,,,,
442296,001,2022-11-21_01h52.34.070,Info_measure_main_exp,2022.2.2,Win32,60.13952369,,,,,,,,,,,,,,,,,,masks/mask_003.jpg,,,,,,,,,,,,,,,,,,,,,,,,,,,,,,,,,,,,,,,,,,,0,2,2,2,1,,,,,,,,,,,,,,,,,,,,,,,,,,,,,,,,,,,,,,,,,,,,,,
442296,001,2022-11-21_01h52.34.070,Info_measure_main_exp,2022.2.2,Win32,60.13952369,,,,,,,,,,,,,,,,,,masks/mask_005.jpg,,,,,,,,,,,,,,,,,,,,,,,,,,,,,,,,,,,,,,,,,,,0,3,3,4,1,,,,,,,,,,,,,,,,,,,,,,,,,,,,,,,,,,,,,,,,,,,,,,
442296,001,2022-11-21_01h52.34.070,Info_measure_main_exp,2022.2.2,Win32,60.13952369,,,,,,,,,,,,,,,,,,masks/mask_004.jpg,,,,,,,,,,,,,,,,,,,,,,,,,,,,,,,,,,,,,,,,,,,0,4,4,3,1,,,,,,,,,,,,,,,,,,,,,,,,,,,,,,,,,,,,,,,,,,,,,,
442296,001,2022-11-21_01h52.34.070,Info_measure_main_exp,2022.2.2,Win32,60.13952369,,,,,,,,,,,,,,,,,,masks/mask_002.jpg,,,,,,,,,,,,,,,,,,,,,,,,,,,,,,,,,,,,,,,,,,,,,,,,0,0,0,1,1,,,,,,,,,,,,,,,,,,,,,,,,,,,,,,,,,,,,,,,,,
442296,001,2022-11-21_01h52.34.070,Info_measure_main_exp,2022.2.2,Win32,60.13952369,,,,,,,,,,,,,,,,,,masks/mask_001.jpg,,,,,,,,,,,,,,,,,,,,,,,,,,,,,,,,,,,,,,,,,,,,,,,,0,1,1,0,1,,,,,,,,,,,,,,,,,,,,,,,,,,,,,,,,,,,,,,,,,
442296,001,2022-11-21_01h52.34.070,Info_measure_main_exp,2022.2.2,Win32,60.13952369,,,,,,,,,,,,,,,,,,masks/mask_003.jpg,,,,,,,,,,,,,,,,,,,,,,,,,,,,,,,,,,,,,,,,,,,,,,,,0,2,2,2,1,,,,,,,,,,,,,,,,,,,,,,,,,,,,,,,,,,,,,,,,,
442296,001,2022-11-21_01h52.34.070,Info_measure_main_exp,2022.2.2,Win32,60.13952369,,,,,,,,,,,,,,,,,,masks/mask_004.jpg,,,,,,,,,,,,,,,,,,,,,,,,,,,,,,,,,,,,,,,,,,,,,,,,0,3,3,3,1,,,,,,,,,,,,,,,,,,,,,,,,,,,,,,,,,,,,,,,,,
442296,001,2022-11-21_01h52.34.070,Info_measure_main_exp,2022.2.2,Win32,60.13952369,,,,,,,,,,,,,,,,,,masks/mask_005.jpg,,,,,,,,,,,,,,,,,,,,,,,,,,,,,,,,,,,,,,,,,,,,,,,,0,4,4,4,1,,,,,,,,,,,,,,,,,,,,,,,,,,,,,,,,,,,,,,,,,
442296,001,2022-11-21_01h52.34.070,Info_measure_main_exp,2022.2.2,Win32,60.13952369,,,,,,,,,,,,,,,,,,,,,,,,,,,,,,7,1.8383,1,,,,,,,,,,,,1,131,5,5,1,1974,present_patch/cong_131_5_a.jpg,absent_patch/patch0001974.jpg,,,,,,,,,,,,,,,,,,,,0.013888889,0.042592578,1,0,0,response1disk,7,0.005555541,0.000925912,1,0,0,center_square,0,6,6,69,1,,,,,,,,,,,,,,,,,,,,,,,
442296,001,2022-11-21_01h52.34.070,Info_measure_main_exp,2022.2.2,Win32,60.13952369,,,,,,,,,,,,,,,,,,masks/mask_002.jpg,,,,,,,,,,,,,,,,,,,,,,,,,,,,,,,,,,,,,,,,,,,0,0,0,1,1,,,,,,,,,,,,,,,,,,,,,,,,,,,,,,,,,,,,,,,,,,,,,,
442296,001,2022-11-21_01h52.34.070,Info_measure_main_exp,2022.2.2,Win32,60.13952369,,,,,,,,,,,,,,,,,,masks/mask_001.jpg,,,,,,,,,,,,,,,,,,,,,,,,,,,,,,,,,,,,,,,,,,,0,1,1,0,1,,,,,,,,,,,,,,,,,,,,,,,,,,,,,,,,,,,,,,,,,,,,,,
442296,001,2022-11-21_01h52.34.070,Info_measure_main_exp,2022.2.2,Win32,60.13952369,,,,,,,,,,,,,,,,,,masks/mask_004.jpg,,,,,,,,,,,,,,,,,,,,,,,,,,,,,,,,,,,,,,,,,,,0,2,2,3,1,,,,,,,,,,,,,,,,,,,,,,,,,,,,,,,,,,,,,,,,,,,,,,
442296,001,2022-11-21_01h52.34.070,Info_measure_main_exp,2022.2.2,Win32,60.13952369,,,,,,,,,,,,,,,,,,masks/mask_005.jpg,,,,,,,,,,,,,,,,,,,,,,,,,,,,,,,,,,,,,,,,,,,0,3,3,4,1,,,,,,,,,,,,,,,,,,,,,,,,,,,,,,,,,,,,,,,,,,,,,,
442296,001,2022-11-21_01h52.34.070,Info_measure_main_exp,2022.2.2,Win32,60.13952369,,,,,,,,,,,,,,,,,,masks/mask_003.jpg,,,,,,,,,,,,,,,,,,,,,,,,,,,,,,,,,,,,,,,,,,,0,4,4,2,1,,,,,,,,,,,,,,,,,,,,,,,,,,,,,,,,,,,,,,,,,,,,,,
442296,001,2022-11-21_01h52.34.070,Info_measure_main_exp,2022.2.2,Win32,60.13952369,,,,,,,,,,,,,,,,,,masks/mask_002.jpg,,,,,,,,,,,,,,,,,,,,,,,,,,,,,,,,,,,,,,,,,,,,,,,,0,0,0,1,1,,,,,,,,,,,,,,,,,,,,,,,,,,,,,,,,,,,,,,,,,
442296,001,2022-11-21_01h52.34.070,Info_measure_main_exp,2022.2.2,Win32,60.13952369,,,,,,,,,,,,,,,,,,masks/mask_001.jpg,,,,,,,,,,,,,,,,,,,,,,,,,,,,,,,,,,,,,,,,,,,,,,,,0,1,1,0,1,,,,,,,,,,,,,,,,,,,,,,,,,,,,,,,,,,,,,,,,,
442296,001,2022-11-21_01h52.34.070,Info_measure_main_exp,2022.2.2,Win32,60.13952369,,,,,,,,,,,,,,,,,,masks/mask_005.jpg,,,,,,,,,,,,,,,,,,,,,,,,,,,,,,,,,,,,,,,,,,,,,,,,0,2,2,4,1,,,,,,,,,,,,,,,,,,,,,,,,,,,,,,,,,,,,,,,,,
442296,001,2022-11-21_01h52.34.070,Info_measure_main_exp,2022.2.2,Win32,60.13952369,,,,,,,,,,,,,,,,,,masks/mask_003.jpg,,,,,,,,,,,,,,,,,,,,,,,,,,,,,,,,,,,,,,,,,,,,,,,,0,3,3,2,1,,,,,,,,,,,,,,,,,,,,,,,,,,,,,,,,,,,,,,,,,
442296,001,2022-11-21_01h52.34.070,Info_measure_main_exp,2022.2.2,Win32,60.13952369,,,,,,,,,,,,,,,,,,masks/mask_004.jpg,,,,,,,,,,,,,,,,,,,,,,,,,,,,,,,,,,,,,,,,,,,,,,,,0,4,4,3,1,,,,,,,,,,,,,,,,,,,,,,,,,,,,,,,,,,,,,,,,,
442296,001,2022-11-21_01h52.34.070,Info_measure_main_exp,2022.2.2,Win32,60.13952369,,,,,,,,,,,,,,,,,,,,,,,,,,,,,,6,3.8631,1,,,,,,,,,,,,0,131,5,5,1950,2166,absent_patch/patch0001950.jpg,absent_patch/patch0002166.jpg,,,,,,,,,,,,,,,,,,,,0.152777778,0.063888868,1,0,0,response1disk,8,0.000925912,0.006481489,1,0,0,center_square,0,7,7,0,1,,,,,,,,,,,,,,,,,,,,,,,
442296,001,2022-11-21_01h52.34.070,Info_measure_main_exp,2022.2.2,Win32,60.13952369,,,,,,,,,,,,,,,,,,masks/mask_003.jpg,,,,,,,,,,,,,,,,,,,,,,,,,,,,,,,,,,,,,,,,,,,0,0,0,2,1,,,,,,,,,,,,,,,,,,,,,,,,,,,,,,,,,,,,,,,,,,,,,,
442296,001,2022-11-21_01h52.34.070,Info_measure_main_exp,2022.2.2,Win32,60.13952369,,,,,,,,,,,,,,,,,,masks/mask_002.jpg,,,,,,,,,,,,,,,,,,,,,,,,,,,,,,,,,,,,,,,,,,,0,1,1,1,1,,,,,,,,,,,,,,,,,,,,,,,,,,,,,,,,,,,,,,,,,,,,,,
442296,001,2022-11-21_01h52.34.070,Info_measure_main_exp,2022.2.2,Win32,60.13952369,,,,,,,,,,,,,,,,,,masks/mask_001.jpg,,,,,,,,,,,,,,,,,,,,,,,,,,,,,,,,,,,,,,,,,,,0,2,2,0,1,,,,,,,,,,,,,,,,,,,,,,,,,,,,,,,,,,,,,,,,,,,,,,
442296,001,2022-11-21_01h52.34.070,Info_measure_main_exp,2022.2.2,Win32,60.13952369,,,,,,,,,,,,,,,,,,masks/mask_004.jpg,,,,,,,,,,,,,,,,,,,,,,,,,,,,,,,,,,,,,,,,,,,0,3,3,3,1,,,,,,,,,,,,,,,,,,,,,,,,,,,,,,,,,,,,,,,,,,,,,,
442296,001,2022-11-21_01h52.34.070,Info_measure_main_exp,2022.2.2,Win32,60.13952369,,,,,,,,,,,,,,,,,,masks/mask_005.jpg,,,,,,,,,,,,,,,,,,,,,,,,,,,,,,,,,,,,,,,,,,,0,4,4,4,1,,,,,,,,,,,,,,,,,,,,,,,,,,,,,,,,,,,,,,,,,,,,,,
442296,001,2022-11-21_01h52.34.070,Info_measure_main_exp,2022.2.2,Win32,60.13952369,,,,,,,,,,,,,,,,,,masks/mask_004.jpg,,,,,,,,,,,,,,,,,,,,,,,,,,,,,,,,,,,,,,,,,,,,,,,,0,0,0,3,1,,,,,,,,,,,,,,,,,,,,,,,,,,,,,,,,,,,,,,,,,
442296,001,2022-11-21_01h52.34.070,Info_measure_main_exp,2022.2.2,Win32,60.13952369,,,,,,,,,,,,,,,,,,masks/mask_002.jpg,,,,,,,,,,,,,,,,,,,,,,,,,,,,,,,,,,,,,,,,,,,,,,,,0,1,1,1,1,,,,,,,,,,,,,,,,,,,,,,,,,,,,,,,,,,,,,,,,,
442296,001,2022-11-21_01h52.34.070,Info_measure_main_exp,2022.2.2,Win32,60.13952369,,,,,,,,,,,,,,,,,,masks/mask_005.jpg,,,,,,,,,,,,,,,,,,,,,,,,,,,,,,,,,,,,,,,,,,,,,,,,0,2,2,4,1,,,,,,,,,,,,,,,,,,,,,,,,,,,,,,,,,,,,,,,,,
442296,001,2022-11-21_01h52.34.070,Info_measure_main_exp,2022.2.2,Win32,60.13952369,,,,,,,,,,,,,,,,,,masks/mask_001.jpg,,,,,,,,,,,,,,,,,,,,,,,,,,,,,,,,,,,,,,,,,,,,,,,,0,3,3,0,1,,,,,,,,,,,,,,,,,,,,,,,,,,,,,,,,,,,,,,,,,
442296,001,2022-11-21_01h52.34.070,Info_measure_main_exp,2022.2.2,Win32,60.13952369,,,,,,,,,,,,,,,,,,masks/mask_003.jpg,,,,,,,,,,,,,,,,,,,,,,,,,,,,,,,,,,,,,,,,,,,,,,,,0,4,4,2,1,,,,,,,,,,,,,,,,,,,,,,,,,,,,,,,,,,,,,,,,,
442296,001,2022-11-21_01h52.34.070,Info_measure_main_exp,2022.2.2,Win32,60.13952369,,,,,,,,,,,,,,,,,,,,,,,,,,,,,,7,1.4489,1,,,,,,,,,,,,0,131,5,5,2166,2154,absent_patch/patch0002166.jpg,absent_patch/patch0002154.jpg,,,,,,,,,,,,,,,,,,,,0.008333347,0.048148155,1,0,0,response1disk,9,0.005555541,-0.008333347,1,0,0,center_square,0,8,8,79,1,,,,,,,,,,,,,,,,,,,,,,,
442296,001,2022-11-21_01h52.34.070,Info_measure_main_exp,2022.2.2,Win32,60.13952369,,,,,,,,,,,,,,,,,,masks/mask_003.jpg,,,,,,,,,,,,,,,,,,,,,,,,,,,,,,,,,,,,,,,,,,,0,0,0,2,1,,,,,,,,,,,,,,,,,,,,,,,,,,,,,,,,,,,,,,,,,,,,,,
442296,001,2022-11-21_01h52.34.070,Info_measure_main_exp,2022.2.2,Win32,60.13952369,,,,,,,,,,,,,,,,,,masks/mask_004.jpg,,,,,,,,,,,,,,,,,,,,,,,,,,,,,,,,,,,,,,,,,,,0,1,1,3,1,,,,,,,,,,,,,,,,,,,,,,,,,,,,,,,,,,,,,,,,,,,,,,
442296,001,2022-11-21_01h52.34.070,Info_measure_main_exp,2022.2.2,Win32,60.13952369,,,,,,,,,,,,,,,,,,masks/mask_005.jpg,,,,,,,,,,,,,,,,,,,,,,,,,,,,,,,,,,,,,,,,,,,0,2,2,4,1,,,,,,,,,,,,,,,,,,,,,,,,,,,,,,,,,,,,,,,,,,,,,,
442296,001,2022-11-21_01h52.34.070,Info_measure_main_exp,2022.2.2,Win32,60.13952369,,,,,,,,,,,,,,,,,,masks/mask_001.jpg,,,,,,,,,,,,,,,,,,,,,,,,,,,,,,,,,,,,,,,,,,,0,3,3,0,1,,,,,,,,,,,,,,,,,,,,,,,,,,,,,,,,,,,,,,,,,,,,,,
442296,001,2022-11-21_01h52.34.070,Info_measure_main_exp,2022.2.2,Win32,60.13952369,,,,,,,,,,,,,,,,,,masks/mask_002.jpg,,,,,,,,,,,,,,,,,,,,,,,,,,,,,,,,,,,,,,,,,,,0,4,4,1,1,,,,,,,,,,,,,,,,,,,,,,,,,,,,,,,,,,,,,,,,,,,,,,
442296,001,2022-11-21_01h52.34.070,Info_measure_main_exp,2022.2.2,Win32,60.13952369,,,,,,,,,,,,,,,,,,masks/mask_003.jpg,,,,,,,,,,,,,,,,,,,,,,,,,,,,,,,,,,,,,,,,,,,,,,,,0,0,0,2,1,,,,,,,,,,,,,,,,,,,,,,,,,,,,,,,,,,,,,,,,,
442296,001,2022-11-21_01h52.34.070,Info_measure_main_exp,2022.2.2,Win32,60.13952369,,,,,,,,,,,,,,,,,,masks/mask_001.jpg,,,,,,,,,,,,,,,,,,,,,,,,,,,,,,,,,,,,,,,,,,,,,,,,0,1,1,0,1,,,,,,,,,,,,,,,,,,,,,,,,,,,,,,,,,,,,,,,,,
442296,001,2022-11-21_01h52.34.070,Info_measure_main_exp,2022.2.2,Win32,60.13952369,,,,,,,,,,,,,,,,,,masks/mask_004.jpg,,,,,,,,,,,,,,,,,,,,,,,,,,,,,,,,,,,,,,,,,,,,,,,,0,2,2,3,1,,,,,,,,,,,,,,,,,,,,,,,,,,,,,,,,,,,,,,,,,
442296,001,2022-11-21_01h52.34.070,Info_measure_main_exp,2022.2.2,Win32,60.13952369,,,,,,,,,,,,,,,,,,masks/mask_005.jpg,,,,,,,,,,,,,,,,,,,,,,,,,,,,,,,,,,,,,,,,,,,,,,,,0,3,3,4,1,,,,,,,,,,,,,,,,,,,,,,,,,,,,,,,,,,,,,,,,,
442296,001,2022-11-21_01h52.34.070,Info_measure_main_exp,2022.2.2,Win32,60.13952369,,,,,,,,,,,,,,,,,,masks/mask_002.jpg,,,,,,,,,,,,,,,,,,,,,,,,,,,,,,,,,,,,,,,,,,,,,,,,0,4,4,1,1,,,,,,,,,,,,,,,,,,,,,,,,,,,,,,,,,,,,,,,,,
442296,001,2022-11-21_01h52.34.070,Info_measure_main_exp,2022.2.2,Win32,60.13952369,,,,,,,,,,,,,,,,,,,,,,,,,,,,,,6,2.9643,1,,,,,,,,,,,,0,131,5,5,1950,2082,absent_patch/patch0001950.jpg,absent_patch/patch0002082.jpg,,,,,,,,,,,,,,,,,,,,0.048148191,0.011111118,1,0,0,response1disk,10,-0.002777735,-0.003703718,1,0,0,center_square,0,9,9,12,1,,,,,,,,,,,,,,,,,,,,,,,
442296,001,2022-11-21_01h52.34.070,Info_measure_main_exp,2022.2.2,Win32,60.13952369,,,,,,,,,,,,,,,,,,masks/mask_005.jpg,,,,,,,,,,,,,,,,,,,,,,,,,,,,,,,,,,,,,,,,,,,0,0,0,4,1,,,,,,,,,,,,,,,,,,,,,,,,,,,,,,,,,,,,,,,,,,,,,,
442296,001,2022-11-21_01h52.34.070,Info_measure_main_exp,2022.2.2,Win32,60.13952369,,,,,,,,,,,,,,,,,,masks/mask_003.jpg,,,,,,,,,,,,,,,,,,,,,,,,,,,,,,,,,,,,,,,,,,,0,1,1,2,1,,,,,,,,,,,,,,,,,,,,,,,,,,,,,,,,,,,,,,,,,,,,,,
442296,001,2022-11-21_01h52.34.070,Info_measure_main_exp,2022.2.2,Win32,60.13952369,,,,,,,,,,,,,,,,,,masks/mask_002.jpg,,,,,,,,,,,,,,,,,,,,,,,,,,,,,,,,,,,,,,,,,,,0,2,2,1,1,,,,,,,,,,,,,,,,,,,,,,,,,,,,,,,,,,,,,,,,,,,,,,
442296,001,2022-11-21_01h52.34.070,Info_measure_main_exp,2022.2.2,Win32,60.13952369,,,,,,,,,,,,,,,,,,masks/mask_004.jpg,,,,,,,,,,,,,,,,,,,,,,,,,,,,,,,,,,,,,,,,,,,0,3,3,3,1,,,,,,,,,,,,,,,,,,,,,,,,,,,,,,,,,,,,,,,,,,,,,,
442296,001,2022-11-21_01h52.34.070,Info_measure_main_exp,2022.2.2,Win32,60.13952369,,,,,,,,,,,,,,,,,,masks/mask_001.jpg,,,,,,,,,,,,,,,,,,,,,,,,,,,,,,,,,,,,,,,,,,,0,4,4,0,1,,,,,,,,,,,,,,,,,,,,,,,,,,,,,,,,,,,,,,,,,,,,,,
442296,001,2022-11-21_01h52.34.070,Info_measure_main_exp,2022.2.2,Win32,60.13952369,,,,,,,,,,,,,,,,,,masks/mask_002.jpg,,,,,,,,,,,,,,,,,,,,,,,,,,,,,,,,,,,,,,,,,,,,,,,,0,0,0,1,1,,,,,,,,,,,,,,,,,,,,,,,,,,,,,,,,,,,,,,,,,
442296,001,2022-11-21_01h52.34.070,Info_measure_main_exp,2022.2.2,Win32,60.13952369,,,,,,,,,,,,,,,,,,masks/mask_005.jpg,,,,,,,,,,,,,,,,,,,,,,,,,,,,,,,,,,,,,,,,,,,,,,,,0,1,1,4,1,,,,,,,,,,,,,,,,,,,,,,,,,,,,,,,,,,,,,,,,,
442296,001,2022-11-21_01h52.34.070,Info_measure_main_exp,2022.2.2,Win32,60.13952369,,,,,,,,,,,,,,,,,,masks/mask_004.jpg,,,,,,,,,,,,,,,,,,,,,,,,,,,,,,,,,,,,,,,,,,,,,,,,0,2,2,3,1,,,,,,,,,,,,,,,,,,,,,,,,,,,,,,,,,,,,,,,,,
442296,001,2022-11-21_01h52.34.070,Info_measure_main_exp,2022.2.2,Win32,60.13952369,,,,,,,,,,,,,,,,,,masks/mask_003.jpg,,,,,,,,,,,,,,,,,,,,,,,,,,,,,,,,,,,,,,,,,,,,,,,,0,3,3,2,1,,,,,,,,,,,,,,,,,,,,,,,,,,,,,,,,,,,,,,,,,
442296,001,2022-11-21_01h52.34.070,Info_measure_main_exp,2022.2.2,Win32,60.13952369,,,,,,,,,,,,,,,,,,masks/mask_001.jpg,,,,,,,,,,,,,,,,,,,,,,,,,,,,,,,,,,,,,,,,,,,,,,,,0,4,4,0,1,,,,,,,,,,,,,,,,,,,,,,,,,,,,,,,,,,,,,,,,,
442296,001,2022-11-21_01h52.34.070,Info_measure_main_exp,2022.2.2,Win32,60.13952369,,,,,,,,,,,,,,,,,,,,,,,,,,,,,,6,3.8701,1,,,,,,,,,,,,0,131,5,5,1974,2238,absent_patch/patch0001974.jpg,absent_patch/patch0002238.jpg,,,,,,,,,,,,,,,,,,,,0.095370399,0.037037037,1,0,0,response1disk,11,-0.002777735,-0.002777771,1,0,0,center_square,0,10,10,95,1,,,,,,,,,,,,,,,,,,,,,,,
442296,001,2022-11-21_01h52.34.070,Info_measure_main_exp,2022.2.2,Win32,60.13952369,,,,,,,,,,,,,,,,,,masks/mask_005.jpg,,,,,,,,,,,,,,,,,,,,,,,,,,,,,,,,,,,,,,,,,,,0,0,0,4,1,,,,,,,,,,,,,,,,,,,,,,,,,,,,,,,,,,,,,,,,,,,,,,
442296,001,2022-11-21_01h52.34.070,Info_measure_main_exp,2022.2.2,Win32,60.13952369,,,,,,,,,,,,,,,,,,masks/mask_003.jpg,,,,,,,,,,,,,,,,,,,,,,,,,,,,,,,,,,,,,,,,,,,0,1,1,2,1,,,,,,,,,,,,,,,,,,,,,,,,,,,,,,,,,,,,,,,,,,,,,,
442296,001,2022-11-21_01h52.34.070,Info_measure_main_exp,2022.2.2,Win32,60.13952369,,,,,,,,,,,,,,,,,,masks/mask_004.jpg,,,,,,,,,,,,,,,,,,,,,,,,,,,,,,,,,,,,,,,,,,,0,2,2,3,1,,,,,,,,,,,,,,,,,,,,,,,,,,,,,,,,,,,,,,,,,,,,,,
442296,001,2022-11-21_01h52.34.070,Info_measure_main_exp,2022.2.2,Win32,60.13952369,,,,,,,,,,,,,,,,,,masks/mask_002.jpg,,,,,,,,,,,,,,,,,,,,,,,,,,,,,,,,,,,,,,,,,,,0,3,3,1,1,,,,,,,,,,,,,,,,,,,,,,,,,,,,,,,,,,,,,,,,,,,,,,
442296,001,2022-11-21_01h52.34.070,Info_measure_main_exp,2022.2.2,Win32,60.13952369,,,,,,,,,,,,,,,,,,masks/mask_001.jpg,,,,,,,,,,,,,,,,,,,,,,,,,,,,,,,,,,,,,,,,,,,0,4,4,0,1,,,,,,,,,,,,,,,,,,,,,,,,,,,,,,,,,,,,,,,,,,,,,,
442296,001,2022-11-21_01h52.34.070,Info_measure_main_exp,2022.2.2,Win32,60.13952369,,,,,,,,,,,,,,,,,,masks/mask_005.jpg,,,,,,,,,,,,,,,,,,,,,,,,,,,,,,,,,,,,,,,,,,,,,,,,0,0,0,4,1,,,,,,,,,,,,,,,,,,,,,,,,,,,,,,,,,,,,,,,,,
442296,001,2022-11-21_01h52.34.070,Info_measure_main_exp,2022.2.2,Win32,60.13952369,,,,,,,,,,,,,,,,,,masks/mask_003.jpg,,,,,,,,,,,,,,,,,,,,,,,,,,,,,,,,,,,,,,,,,,,,,,,,0,1,1,2,1,,,,,,,,,,,,,,,,,,,,,,,,,,,,,,,,,,,,,,,,,
442296,001,2022-11-21_01h52.34.070,Info_measure_main_exp,2022.2.2,Win32,60.13952369,,,,,,,,,,,,,,,,,,masks/mask_004.jpg,,,,,,,,,,,,,,,,,,,,,,,,,,,,,,,,,,,,,,,,,,,,,,,,0,2,2,3,1,,,,,,,,,,,,,,,,,,,,,,,,,,,,,,,,,,,,,,,,,
442296,001,2022-11-21_01h52.34.070,Info_measure_main_exp,2022.2.2,Win32,60.13952369,,,,,,,,,,,,,,,,,,masks/mask_001.jpg,,,,,,,,,,,,,,,,,,,,,,,,,,,,,,,,,,,,,,,,,,,,,,,,0,3,3,0,1,,,,,,,,,,,,,,,,,,,,,,,,,,,,,,,,,,,,,,,,,
442296,001,2022-11-21_01h52.34.070,Info_measure_main_exp,2022.2.2,Win32,60.13952369,,,,,,,,,,,,,,,,,,masks/mask_002.jpg,,,,,,,,,,,,,,,,,,,,,,,,,,,,,,,,,,,,,,,,,,,,,,,,0,4,4,1,1,,,,,,,,,,,,,,,,,,,,,,,,,,,,,,,,,,,,,,,,,
442296,001,2022-11-21_01h52.34.070,Info_measure_main_exp,2022.2.2,Win32,60.13952369,,,,,,,,,,,,,,,,,,,,,,,,,,,,,,7,1.7151,1,,,,,,,,,,,,0,131,5,5,2154,2250,absent_patch/patch0002154.jpg,absent_patch/patch0002250.jpg,,,,,,,,,,,,,,,,,,,,0.010185171,0.062037044,1,0,0,response1disk,12,-0.000925912,0.002777771,1,0,0,center_square,0,11,11,108,1,,,,,,,,,,,,,,,,,,,,,,,
442296,001,2022-11-21_01h52.34.070,Info_measure_main_exp,2022.2.2,Win32,60.13952369,,,,,,,,,,,,,,,,,,masks/mask_002.jpg,,,,,,,,,,,,,,,,,,,,,,,,,,,,,,,,,,,,,,,,,,,0,0,0,1,1,,,,,,,,,,,,,,,,,,,,,,,,,,,,,,,,,,,,,,,,,,,,,,
442296,001,2022-11-21_01h52.34.070,Info_measure_main_exp,2022.2.2,Win32,60.13952369,,,,,,,,,,,,,,,,,,masks/mask_004.jpg,,,,,,,,,,,,,,,,,,,,,,,,,,,,,,,,,,,,,,,,,,,0,1,1,3,1,,,,,,,,,,,,,,,,,,,,,,,,,,,,,,,,,,,,,,,,,,,,,,
442296,001,2022-11-21_01h52.34.070,Info_measure_main_exp,2022.2.2,Win32,60.13952369,,,,,,,,,,,,,,,,,,masks/mask_005.jpg,,,,,,,,,,,,,,,,,,,,,,,,,,,,,,,,,,,,,,,,,,,0,2,2,4,1,,,,,,,,,,,,,,,,,,,,,,,,,,,,,,,,,,,,,,,,,,,,,,
442296,001,2022-11-21_01h52.34.070,Info_measure_main_exp,2022.2.2,Win32,60.13952369,,,,,,,,,,,,,,,,,,masks/mask_003.jpg,,,,,,,,,,,,,,,,,,,,,,,,,,,,,,,,,,,,,,,,,,,0,3,3,2,1,,,,,,,,,,,,,,,,,,,,,,,,,,,,,,,,,,,,,,,,,,,,,,
442296,001,2022-11-21_01h52.34.070,Info_measure_main_exp,2022.2.2,Win32,60.13952369,,,,,,,,,,,,,,,,,,masks/mask_001.jpg,,,,,,,,,,,,,,,,,,,,,,,,,,,,,,,,,,,,,,,,,,,0,4,4,0,1,,,,,,,,,,,,,,,,,,,,,,,,,,,,,,,,,,,,,,,,,,,,,,
442296,001,2022-11-21_01h52.34.070,Info_measure_main_exp,2022.2.2,Win32,60.13952369,,,,,,,,,,,,,,,,,,masks/mask_005.jpg,,,,,,,,,,,,,,,,,,,,,,,,,,,,,,,,,,,,,,,,,,,,,,,,0,0,0,4,1,,,,,,,,,,,,,,,,,,,,,,,,,,,,,,,,,,,,,,,,,
442296,001,2022-11-21_01h52.34.070,Info_measure_main_exp,2022.2.2,Win32,60.13952369,,,,,,,,,,,,,,,,,,masks/mask_004.jpg,,,,,,,,,,,,,,,,,,,,,,,,,,,,,,,,,,,,,,,,,,,,,,,,0,1,1,3,1,,,,,,,,,,,,,,,,,,,,,,,,,,,,,,,,,,,,,,,,,
442296,001,2022-11-21_01h52.34.070,Info_measure_main_exp,2022.2.2,Win32,60.13952369,,,,,,,,,,,,,,,,,,masks/mask_002.jpg,,,,,,,,,,,,,,,,,,,,,,,,,,,,,,,,,,,,,,,,,,,,,,,,0,2,2,1,1,,,,,,,,,,,,,,,,,,,,,,,,,,,,,,,,,,,,,,,,,
442296,001,2022-11-21_01h52.34.070,Info_measure_main_exp,2022.2.2,Win32,60.13952369,,,,,,,,,,,,,,,,,,masks/mask_001.jpg,,,,,,,,,,,,,,,,,,,,,,,,,,,,,,,,,,,,,,,,,,,,,,,,0,3,3,0,1,,,,,,,,,,,,,,,,,,,,,,,,,,,,,,,,,,,,,,,,,
442296,001,2022-11-21_01h52.34.070,Info_measure_main_exp,2022.2.2,Win32,60.13952369,,,,,,,,,,,,,,,,,,masks/mask_003.jpg,,,,,,,,,,,,,,,,,,,,,,,,,,,,,,,,,,,,,,,,,,,,,,,,0,4,4,2,1,,,,,,,,,,,,,,,,,,,,,,,,,,,,,,,,,,,,,,,,,
442296,001,2022-11-21_01h52.34.070,Info_measure_main_exp,2022.2.2,Win32,60.13952369,,,,,,,,,,,,,,,,,,,,,,,,,,,,,,3,2.0317,1,,,,,,,,,,,,0,131,5,5,2190,2238,absent_patch/patch0002190.jpg,absent_patch/patch0002238.jpg,,,,,,,,,,,,,,,,,,,,-0.042592578,-0.066666674,1,0,0,response5disk,13,-0.001851824,0.00462963,1,0,0,center_square,0,12,12,53,1,,,,,,,,,,,,,,,,,,,,,,,
442296,001,2022-11-21_01h52.34.070,Info_measure_main_exp,2022.2.2,Win32,60.13952369,,,,,,,,,,,,,,,,,,masks/mask_003.jpg,,,,,,,,,,,,,,,,,,,,,,,,,,,,,,,,,,,,,,,,,,,0,0,0,2,1,,,,,,,,,,,,,,,,,,,,,,,,,,,,,,,,,,,,,,,,,,,,,,
442296,001,2022-11-21_01h52.34.070,Info_measure_main_exp,2022.2.2,Win32,60.13952369,,,,,,,,,,,,,,,,,,masks/mask_004.jpg,,,,,,,,,,,,,,,,,,,,,,,,,,,,,,,,,,,,,,,,,,,0,1,1,3,1,,,,,,,,,,,,,,,,,,,,,,,,,,,,,,,,,,,,,,,,,,,,,,
442296,001,2022-11-21_01h52.34.070,Info_measure_main_exp,2022.2.2,Win32,60.13952369,,,,,,,,,,,,,,,,,,masks/mask_001.jpg,,,,,,,,,,,,,,,,,,,,,,,,,,,,,,,,,,,,,,,,,,,0,2,2,0,1,,,,,,,,,,,,,,,,,,,,,,,,,,,,,,,,,,,,,,,,,,,,,,
442296,001,2022-11-21_01h52.34.070,Info_measure_main_exp,2022.2.2,Win32,60.13952369,,,,,,,,,,,,,,,,,,masks/mask_005.jpg,,,,,,,,,,,,,,,,,,,,,,,,,,,,,,,,,,,,,,,,,,,0,3,3,4,1,,,,,,,,,,,,,,,,,,,,,,,,,,,,,,,,,,,,,,,,,,,,,,
442296,001,2022-11-21_01h52.34.070,Info_measure_main_exp,2022.2.2,Win32,60.13952369,,,,,,,,,,,,,,,,,,masks/mask_002.jpg,,,,,,,,,,,,,,,,,,,,,,,,,,,,,,,,,,,,,,,,,,,0,4,4,1,1,,,,,,,,,,,,,,,,,,,,,,,,,,,,,,,,,,,,,,,,,,,,,,
442296,001,2022-11-21_01h52.34.070,Info_measure_main_exp,2022.2.2,Win32,60.13952369,,,,,,,,,,,,,,,,,,masks/mask_005.jpg,,,,,,,,,,,,,,,,,,,,,,,,,,,,,,,,,,,,,,,,,,,,,,,,0,0,0,4,1,,,,,,,,,,,,,,,,,,,,,,,,,,,,,,,,,,,,,,,,,
442296,001,2022-11-21_01h52.34.070,Info_measure_main_exp,2022.2.2,Win32,60.13952369,,,,,,,,,,,,,,,,,,masks/mask_001.jpg,,,,,,,,,,,,,,,,,,,,,,,,,,,,,,,,,,,,,,,,,,,,,,,,0,1,1,0,1,,,,,,,,,,,,,,,,,,,,,,,,,,,,,,,,,,,,,,,,,
442296,001,2022-11-21_01h52.34.070,Info_measure_main_exp,2022.2.2,Win32,60.13952369,,,,,,,,,,,,,,,,,,masks/mask_003.jpg,,,,,,,,,,,,,,,,,,,,,,,,,,,,,,,,,,,,,,,,,,,,,,,,0,2,2,2,1,,,,,,,,,,,,,,,,,,,,,,,,,,,,,,,,,,,,,,,,,
442296,001,2022-11-21_01h52.34.070,Info_measure_main_exp,2022.2.2,Win32,60.13952369,,,,,,,,,,,,,,,,,,masks/mask_002.jpg,,,,,,,,,,,,,,,,,,,,,,,,,,,,,,,,,,,,,,,,,,,,,,,,0,3,3,1,1,,,,,,,,,,,,,,,,,,,,,,,,,,,,,,,,,,,,,,,,,
442296,001,2022-11-21_01h52.34.070,Info_measure_main_exp,2022.2.2,Win32,60.13952369,,,,,,,,,,,,,,,,,,masks/mask_004.jpg,,,,,,,,,,,,,,,,,,,,,,,,,,,,,,,,,,,,,,,,,,,,,,,,0,4,4,3,1,,,,,,,,,,,,,,,,,,,,,,,,,,,,,,,,,,,,,,,,,
442296,001,2022-11-21_01h52.34.070,Info_measure_main_exp,2022.2.2,Win32,60.13952369,,,,,,,,,,,,,,,,,,,,,,,,,,,,,,4,4.962,1,,,,,,,,,,,,0,131,5,5,2274,1974,absent_patch/patch0002274.jpg,absent_patch/patch0001974.jpg,,,,,,,,,,,,,,,,,,,,0.013888889,-0.060185185,1,0,0,response3disk,14,-0.000925912,-0.002777771,1,0,0,center_square,0,13,13,90,1,,,,,,,,,,,,,,,,,,,,,,,
442296,001,2022-11-21_01h52.34.070,Info_measure_main_exp,2022.2.2,Win32,60.13952369,,,,,,,,,,,,,,,,,,masks/mask_003.jpg,,,,,,,,,,,,,,,,,,,,,,,,,,,,,,,,,,,,,,,,,,,0,0,0,2,1,,,,,,,,,,,,,,,,,,,,,,,,,,,,,,,,,,,,,,,,,,,,,,
442296,001,2022-11-21_01h52.34.070,Info_measure_main_exp,2022.2.2,Win32,60.13952369,,,,,,,,,,,,,,,,,,masks/mask_005.jpg,,,,,,,,,,,,,,,,,,,,,,,,,,,,,,,,,,,,,,,,,,,0,1,1,4,1,,,,,,,,,,,,,,,,,,,,,,,,,,,,,,,,,,,,,,,,,,,,,,
442296,001,2022-11-21_01h52.34.070,Info_measure_main_exp,2022.2.2,Win32,60.13952369,,,,,,,,,,,,,,,,,,masks/mask_001.jpg,,,,,,,,,,,,,,,,,,,,,,,,,,,,,,,,,,,,,,,,,,,0,2,2,0,1,,,,,,,,,,,,,,,,,,,,,,,,,,,,,,,,,,,,,,,,,,,,,,
442296,001,2022-11-21_01h52.34.070,Info_measure_main_exp,2022.2.2,Win32,60.13952369,,,,,,,,,,,,,,,,,,masks/mask_004.jpg,,,,,,,,,,,,,,,,,,,,,,,,,,,,,,,,,,,,,,,,,,,0,3,3,3,1,,,,,,,,,,,,,,,,,,,,,,,,,,,,,,,,,,,,,,,,,,,,,,
442296,001,2022-11-21_01h52.34.070,Info_measure_main_exp,2022.2.2,Win32,60.13952369,,,,,,,,,,,,,,,,,,masks/mask_002.jpg,,,,,,,,,,,,,,,,,,,,,,,,,,,,,,,,,,,,,,,,,,,0,4,4,1,1,,,,,,,,,,,,,,,,,,,,,,,,,,,,,,,,,,,,,,,,,,,,,,
442296,001,2022-11-21_01h52.34.070,Info_measure_main_exp,2022.2.2,Win32,60.13952369,,,,,,,,,,,,,,,,,,masks/mask_003.jpg,,,,,,,,,,,,,,,,,,,,,,,,,,,,,,,,,,,,,,,,,,,,,,,,0,0,0,2,1,,,,,,,,,,,,,,,,,,,,,,,,,,,,,,,,,,,,,,,,,
442296,001,2022-11-21_01h52.34.070,Info_measure_main_exp,2022.2.2,Win32,60.13952369,,,,,,,,,,,,,,,,,,masks/mask_004.jpg,,,,,,,,,,,,,,,,,,,,,,,,,,,,,,,,,,,,,,,,,,,,,,,,0,1,1,3,1,,,,,,,,,,,,,,,,,,,,,,,,,,,,,,,,,,,,,,,,,
442296,001,2022-11-21_01h52.34.070,Info_measure_main_exp,2022.2.2,Win32,60.13952369,,,,,,,,,,,,,,,,,,masks/mask_002.jpg,,,,,,,,,,,,,,,,,,,,,,,,,,,,,,,,,,,,,,,,,,,,,,,,0,2,2,1,1,,,,,,,,,,,,,,,,,,,,,,,,,,,,,,,,,,,,,,,,,
442296,001,2022-11-21_01h52.34.070,Info_measure_main_exp,2022.2.2,Win32,60.13952369,,,,,,,,,,,,,,,,,,masks/mask_005.jpg,,,,,,,,,,,,,,,,,,,,,,,,,,,,,,,,,,,,,,,,,,,,,,,,0,3,3,4,1,,,,,,,,,,,,,,,,,,,,,,,,,,,,,,,,,,,,,,,,,
442296,001,2022-11-21_01h52.34.070,Info_measure_main_exp,2022.2.2,Win32,60.13952369,,,,,,,,,,,,,,,,,,masks/mask_001.jpg,,,,,,,,,,,,,,,,,,,,,,,,,,,,,,,,,,,,,,,,,,,,,,,,0,4,4,0,1,,,,,,,,,,,,,,,,,,,,,,,,,,,,,,,,,,,,,,,,,
442296,001,2022-11-21_01h52.34.070,Info_measure_main_exp,2022.2.2,Win32,60.13952369,,,,,,,,,,,,,,,,,,,,,,,,,,,,,,7,1.7651,1,,,,,,,,,,,,0,131,5,5,2238,2298,absent_patch/patch0002238.jpg,absent_patch/patch0002298.jpg,,,,,,,,,,,,,,,,,,,,0.003703718,0.046296296,1,0,0,response1disk,15,-0.001851824,-0.002777771,1,0,0,center_square,0,14,14,51,1,,,,,,,,,,,,,,,,,,,,,,,
442296,001,2022-11-21_01h52.34.070,Info_measure_main_exp,2022.2.2,Win32,60.13952369,,,,,,,,,,,,,,,,,,masks/mask_001.jpg,,,,,,,,,,,,,,,,,,,,,,,,,,,,,,,,,,,,,,,,,,,0,0,0,0,1,,,,,,,,,,,,,,,,,,,,,,,,,,,,,,,,,,,,,,,,,,,,,,
442296,001,2022-11-21_01h52.34.070,Info_measure_main_exp,2022.2.2,Win32,60.13952369,,,,,,,,,,,,,,,,,,masks/mask_004.jpg,,,,,,,,,,,,,,,,,,,,,,,,,,,,,,,,,,,,,,,,,,,0,1,1,3,1,,,,,,,,,,,,,,,,,,,,,,,,,,,,,,,,,,,,,,,,,,,,,,
442296,001,2022-11-21_01h52.34.070,Info_measure_main_exp,2022.2.2,Win32,60.13952369,,,,,,,,,,,,,,,,,,masks/mask_005.jpg,,,,,,,,,,,,,,,,,,,,,,,,,,,,,,,,,,,,,,,,,,,0,2,2,4,1,,,,,,,,,,,,,,,,,,,,,,,,,,,,,,,,,,,,,,,,,,,,,,
442296,001,2022-11-21_01h52.34.070,Info_measure_main_exp,2022.2.2,Win32,60.13952369,,,,,,,,,,,,,,,,,,masks/mask_002.jpg,,,,,,,,,,,,,,,,,,,,,,,,,,,,,,,,,,,,,,,,,,,0,3,3,1,1,,,,,,,,,,,,,,,,,,,,,,,,,,,,,,,,,,,,,,,,,,,,,,
442296,001,2022-11-21_01h52.34.070,Info_measure_main_exp,2022.2.2,Win32,60.13952369,,,,,,,,,,,,,,,,,,masks/mask_003.jpg,,,,,,,,,,,,,,,,,,,,,,,,,,,,,,,,,,,,,,,,,,,0,4,4,2,1,,,,,,,,,,,,,,,,,,,,,,,,,,,,,,,,,,,,,,,,,,,,,,
442296,001,2022-11-21_01h52.34.070,Info_measure_main_exp,2022.2.2,Win32,60.13952369,,,,,,,,,,,,,,,,,,masks/mask_002.jpg,,,,,,,,,,,,,,,,,,,,,,,,,,,,,,,,,,,,,,,,,,,,,,,,0,0,0,1,1,,,,,,,,,,,,,,,,,,,,,,,,,,,,,,,,,,,,,,,,,
442296,001,2022-11-21_01h52.34.070,Info_measure_main_exp,2022.2.2,Win32,60.13952369,,,,,,,,,,,,,,,,,,masks/mask_005.jpg,,,,,,,,,,,,,,,,,,,,,,,,,,,,,,,,,,,,,,,,,,,,,,,,0,1,1,4,1,,,,,,,,,,,,,,,,,,,,,,,,,,,,,,,,,,,,,,,,,
442296,001,2022-11-21_01h52.34.070,Info_measure_main_exp,2022.2.2,Win32,60.13952369,,,,,,,,,,,,,,,,,,masks/mask_004.jpg,,,,,,,,,,,,,,,,,,,,,,,,,,,,,,,,,,,,,,,,,,,,,,,,0,2,2,3,1,,,,,,,,,,,,,,,,,,,,,,,,,,,,,,,,,,,,,,,,,
442296,001,2022-11-21_01h52.34.070,Info_measure_main_exp,2022.2.2,Win32,60.13952369,,,,,,,,,,,,,,,,,,masks/mask_001.jpg,,,,,,,,,,,,,,,,,,,,,,,,,,,,,,,,,,,,,,,,,,,,,,,,0,3,3,0,1,,,,,,,,,,,,,,,,,,,,,,,,,,,,,,,,,,,,,,,,,
442296,001,2022-11-21_01h52.34.070,Info_measure_main_exp,2022.2.2,Win32,60.13952369,,,,,,,,,,,,,,,,,,masks/mask_003.jpg,,,,,,,,,,,,,,,,,,,,,,,,,,,,,,,,,,,,,,,,,,,,,,,,0,4,4,2,1,,,,,,,,,,,,,,,,,,,,,,,,,,,,,,,,,,,,,,,,,
442296,001,2022-11-21_01h52.34.070,Info_measure_main_exp,2022.2.2,Win32,60.13952369,,,,,,,,,,,,,,,,,,,,,,,,,,,,,,7,2.6646,1,,,,,,,,,,,,0,131,5,5,2190,1950,absent_patch/patch0002190.jpg,absent_patch/patch0001950.jpg,,,,,,,,,,,,,,,,,,,,0.050925926,0.100925905,1,0,0,response1disk,16,-0.000925912,-0.000925947,1,0,0,center_square,0,15,15,73,1,,,,,,,,,,,,,,,,,,,,,,,
442296,001,2022-11-21_01h52.34.070,Info_measure_main_exp,2022.2.2,Win32,60.13952369,,,,,,,,,,,,,,,,,,masks/mask_003.jpg,,,,,,,,,,,,,,,,,,,,,,,,,,,,,,,,,,,,,,,,,,,0,0,0,2,1,,,,,,,,,,,,,,,,,,,,,,,,,,,,,,,,,,,,,,,,,,,,,,
442296,001,2022-11-21_01h52.34.070,Info_measure_main_exp,2022.2.2,Win32,60.13952369,,,,,,,,,,,,,,,,,,masks/mask_001.jpg,,,,,,,,,,,,,,,,,,,,,,,,,,,,,,,,,,,,,,,,,,,0,1,1,0,1,,,,,,,,,,,,,,,,,,,,,,,,,,,,,,,,,,,,,,,,,,,,,,
442296,001,2022-11-21_01h52.34.070,Info_measure_main_exp,2022.2.2,Win32,60.13952369,,,,,,,,,,,,,,,,,,masks/mask_004.jpg,,,,,,,,,,,,,,,,,,,,,,,,,,,,,,,,,,,,,,,,,,,0,2,2,3,1,,,,,,,,,,,,,,,,,,,,,,,,,,,,,,,,,,,,,,,,,,,,,,
442296,001,2022-11-21_01h52.34.070,Info_measure_main_exp,2022.2.2,Win32,60.13952369,,,,,,,,,,,,,,,,,,masks/mask_002.jpg,,,,,,,,,,,,,,,,,,,,,,,,,,,,,,,,,,,,,,,,,,,0,3,3,1,1,,,,,,,,,,,,,,,,,,,,,,,,,,,,,,,,,,,,,,,,,,,,,,
442296,001,2022-11-21_01h52.34.070,Info_measure_main_exp,2022.2.2,Win32,60.13952369,,,,,,,,,,,,,,,,,,masks/mask_005.jpg,,,,,,,,,,,,,,,,,,,,,,,,,,,,,,,,,,,,,,,,,,,0,4,4,4,1,,,,,,,,,,,,,,,,,,,,,,,,,,,,,,,,,,,,,,,,,,,,,,
442296,001,2022-11-21_01h52.34.070,Info_measure_main_exp,2022.2.2,Win32,60.13952369,,,,,,,,,,,,,,,,,,masks/mask_003.jpg,,,,,,,,,,,,,,,,,,,,,,,,,,,,,,,,,,,,,,,,,,,,,,,,0,0,0,2,1,,,,,,,,,,,,,,,,,,,,,,,,,,,,,,,,,,,,,,,,,
442296,001,2022-11-21_01h52.34.070,Info_measure_main_exp,2022.2.2,Win32,60.13952369,,,,,,,,,,,,,,,,,,masks/mask_002.jpg,,,,,,,,,,,,,,,,,,,,,,,,,,,,,,,,,,,,,,,,,,,,,,,,0,1,1,1,1,,,,,,,,,,,,,,,,,,,,,,,,,,,,,,,,,,,,,,,,,
442296,001,2022-11-21_01h52.34.070,Info_measure_main_exp,2022.2.2,Win32,60.13952369,,,,,,,,,,,,,,,,,,masks/mask_005.jpg,,,,,,,,,,,,,,,,,,,,,,,,,,,,,,,,,,,,,,,,,,,,,,,,0,2,2,4,1,,,,,,,,,,,,,,,,,,,,,,,,,,,,,,,,,,,,,,,,,
442296,001,2022-11-21_01h52.34.070,Info_measure_main_exp,2022.2.2,Win32,60.13952369,,,,,,,,,,,,,,,,,,masks/mask_004.jpg,,,,,,,,,,,,,,,,,,,,,,,,,,,,,,,,,,,,,,,,,,,,,,,,0,3,3,3,1,,,,,,,,,,,,,,,,,,,,,,,,,,,,,,,,,,,,,,,,,
442296,001,2022-11-21_01h52.34.070,Info_measure_main_exp,2022.2.2,Win32,60.13952369,,,,,,,,,,,,,,,,,,masks/mask_001.jpg,,,,,,,,,,,,,,,,,,,,,,,,,,,,,,,,,,,,,,,,,,,,,,,,0,4,4,0,1,,,,,,,,,,,,,,,,,,,,,,,,,,,,,,,,,,,,,,,,,
442296,001,2022-11-21_01h52.34.070,Info_measure_main_exp,2022.2.2,Win32,60.13952369,,,,,,,,,,,,,,,,,,,,,,,,,,,,,,5,2.1646,1,,,,,,,,,,,,1,131,5,5,2190,1,absent_patch/patch0002190.jpg,present_patch/cong_131_5_a.jpg,,,,,,,,,,,,,,,,,,,,0.029629672,-0.0074074,1,0,0,response3disk,17,0.001851894,-0.000925947,1,0,0,center_square,0,16,16,64,1,,,,,,,,,,,,,,,,,,,,,,,
442296,001,2022-11-21_01h52.34.070,Info_measure_main_exp,2022.2.2,Win32,60.13952369,,,,,,,,,,,,,,,,,,masks/mask_002.jpg,,,,,,,,,,,,,,,,,,,,,,,,,,,,,,,,,,,,,,,,,,,0,0,0,1,1,,,,,,,,,,,,,,,,,,,,,,,,,,,,,,,,,,,,,,,,,,,,,,
442296,001,2022-11-21_01h52.34.070,Info_measure_main_exp,2022.2.2,Win32,60.13952369,,,,,,,,,,,,,,,,,,masks/mask_001.jpg,,,,,,,,,,,,,,,,,,,,,,,,,,,,,,,,,,,,,,,,,,,0,1,1,0,1,,,,,,,,,,,,,,,,,,,,,,,,,,,,,,,,,,,,,,,,,,,,,,
442296,001,2022-11-21_01h52.34.070,Info_measure_main_exp,2022.2.2,Win32,60.13952369,,,,,,,,,,,,,,,,,,masks/mask_005.jpg,,,,,,,,,,,,,,,,,,,,,,,,,,,,,,,,,,,,,,,,,,,0,2,2,4,1,,,,,,,,,,,,,,,,,,,,,,,,,,,,,,,,,,,,,,,,,,,,,,
442296,001,2022-11-21_01h52.34.070,Info_measure_main_exp,2022.2.2,Win32,60.13952369,,,,,,,,,,,,,,,,,,masks/mask_003.jpg,,,,,,,,,,,,,,,,,,,,,,,,,,,,,,,,,,,,,,,,,,,0,3,3,2,1,,,,,,,,,,,,,,,,,,,,,,,,,,,,,,,,,,,,,,,,,,,,,,
442296,001,2022-11-21_01h52.34.070,Info_measure_main_exp,2022.2.2,Win32,60.13952369,,,,,,,,,,,,,,,,,,masks/mask_004.jpg,,,,,,,,,,,,,,,,,,,,,,,,,,,,,,,,,,,,,,,,,,,0,4,4,3,1,,,,,,,,,,,,,,,,,,,,,,,,,,,,,,,,,,,,,,,,,,,,,,
442296,001,2022-11-21_01h52.34.070,Info_measure_main_exp,2022.2.2,Win32,60.13952369,,,,,,,,,,,,,,,,,,masks/mask_001.jpg,,,,,,,,,,,,,,,,,,,,,,,,,,,,,,,,,,,,,,,,,,,,,,,,0,0,0,0,1,,,,,,,,,,,,,,,,,,,,,,,,,,,,,,,,,,,,,,,,,
442296,001,2022-11-21_01h52.34.070,Info_measure_main_exp,2022.2.2,Win32,60.13952369,,,,,,,,,,,,,,,,,,masks/mask_004.jpg,,,,,,,,,,,,,,,,,,,,,,,,,,,,,,,,,,,,,,,,,,,,,,,,0,1,1,3,1,,,,,,,,,,,,,,,,,,,,,,,,,,,,,,,,,,,,,,,,,
442296,001,2022-11-21_01h52.34.070,Info_measure_main_exp,2022.2.2,Win32,60.13952369,,,,,,,,,,,,,,,,,,masks/mask_005.jpg,,,,,,,,,,,,,,,,,,,,,,,,,,,,,,,,,,,,,,,,,,,,,,,,0,2,2,4,1,,,,,,,,,,,,,,,,,,,,,,,,,,,,,,,,,,,,,,,,,
442296,001,2022-11-21_01h52.34.070,Info_measure_main_exp,2022.2.2,Win32,60.13952369,,,,,,,,,,,,,,,,,,masks/mask_003.jpg,,,,,,,,,,,,,,,,,,,,,,,,,,,,,,,,,,,,,,,,,,,,,,,,0,3,3,2,1,,,,,,,,,,,,,,,,,,,,,,,,,,,,,,,,,,,,,,,,,
442296,001,2022-11-21_01h52.34.070,Info_measure_main_exp,2022.2.2,Win32,60.13952369,,,,,,,,,,,,,,,,,,masks/mask_002.jpg,,,,,,,,,,,,,,,,,,,,,,,,,,,,,,,,,,,,,,,,,,,,,,,,0,4,4,1,1,,,,,,,,,,,,,,,,,,,,,,,,,,,,,,,,,,,,,,,,,
442296,001,2022-11-21_01h52.34.070,Info_measure_main_exp,2022.2.2,Win32,60.13952369,,,,,,,,,,,,,,,,,,,,,,,,,,,,,,0,1.1324,1,,,,,,,,,,,,0,131,5,5,1974,1974,absent_patch/patch0001974.jpg,absent_patch/patch0001974.jpg,,,,,,,,,,,,,,,,,,,,-0.033333319,0.075925933,1,0,0,response7disk,18,0.003703718,0.003703683,1,0,0,center_square,0,17,17,113,1,,,,,,,,,,,,,,,,,,,,,,,
442296,001,2022-11-21_01h52.34.070,Info_measure_main_exp,2022.2.2,Win32,60.13952369,,,,,,,,,,,,,,,,,,masks/mask_005.jpg,,,,,,,,,,,,,,,,,,,,,,,,,,,,,,,,,,,,,,,,,,,0,0,0,4,1,,,,,,,,,,,,,,,,,,,,,,,,,,,,,,,,,,,,,,,,,,,,,,
442296,001,2022-11-21_01h52.34.070,Info_measure_main_exp,2022.2.2,Win32,60.13952369,,,,,,,,,,,,,,,,,,masks/mask_002.jpg,,,,,,,,,,,,,,,,,,,,,,,,,,,,,,,,,,,,,,,,,,,0,1,1,1,1,,,,,,,,,,,,,,,,,,,,,,,,,,,,,,,,,,,,,,,,,,,,,,
442296,001,2022-11-21_01h52.34.070,Info_measure_main_exp,2022.2.2,Win32,60.13952369,,,,,,,,,,,,,,,,,,masks/mask_001.jpg,,,,,,,,,,,,,,,,,,,,,,,,,,,,,,,,,,,,,,,,,,,0,2,2,0,1,,,,,,,,,,,,,,,,,,,,,,,,,,,,,,,,,,,,,,,,,,,,,,
442296,001,2022-11-21_01h52.34.070,Info_measure_main_exp,2022.2.2,Win32,60.13952369,,,,,,,,,,,,,,,,,,masks/mask_004.jpg,,,,,,,,,,,,,,,,,,,,,,,,,,,,,,,,,,,,,,,,,,,0,3,3,3,1,,,,,,,,,,,,,,,,,,,,,,,,,,,,,,,,,,,,,,,,,,,,,,
442296,001,2022-11-21_01h52.34.070,Info_measure_main_exp,2022.2.2,Win32,60.13952369,,,,,,,,,,,,,,,,,,masks/mask_003.jpg,,,,,,,,,,,,,,,,,,,,,,,,,,,,,,,,,,,,,,,,,,,0,4,4,2,1,,,,,,,,,,,,,,,,,,,,,,,,,,,,,,,,,,,,,,,,,,,,,,
442296,001,2022-11-21_01h52.34.070,Info_measure_main_exp,2022.2.2,Win32,60.13952369,,,,,,,,,,,,,,,,,,masks/mask_005.jpg,,,,,,,,,,,,,,,,,,,,,,,,,,,,,,,,,,,,,,,,,,,,,,,,0,0,0,4,1,,,,,,,,,,,,,,,,,,,,,,,,,,,,,,,,,,,,,,,,,
442296,001,2022-11-21_01h52.34.070,Info_measure_main_exp,2022.2.2,Win32,60.13952369,,,,,,,,,,,,,,,,,,masks/mask_001.jpg,,,,,,,,,,,,,,,,,,,,,,,,,,,,,,,,,,,,,,,,,,,,,,,,0,1,1,0,1,,,,,,,,,,,,,,,,,,,,,,,,,,,,,,,,,,,,,,,,,
442296,001,2022-11-21_01h52.34.070,Info_measure_main_exp,2022.2.2,Win32,60.13952369,,,,,,,,,,,,,,,,,,masks/mask_003.jpg,,,,,,,,,,,,,,,,,,,,,,,,,,,,,,,,,,,,,,,,,,,,,,,,0,2,2,2,1,,,,,,,,,,,,,,,,,,,,,,,,,,,,,,,,,,,,,,,,,
442296,001,2022-11-21_01h52.34.070,Info_measure_main_exp,2022.2.2,Win32,60.13952369,,,,,,,,,,,,,,,,,,masks/mask_004.jpg,,,,,,,,,,,,,,,,,,,,,,,,,,,,,,,,,,,,,,,,,,,,,,,,0,3,3,3,1,,,,,,,,,,,,,,,,,,,,,,,,,,,,,,,,,,,,,,,,,
442296,001,2022-11-21_01h52.34.070,Info_measure_main_exp,2022.2.2,Win32,60.13952369,,,,,,,,,,,,,,,,,,masks/mask_002.jpg,,,,,,,,,,,,,,,,,,,,,,,,,,,,,,,,,,,,,,,,,,,,,,,,0,4,4,1,1,,,,,,,,,,,,,,,,,,,,,,,,,,,,,,,,,,,,,,,,,
442296,001,2022-11-21_01h52.34.070,Info_measure_main_exp,2022.2.2,Win32,60.13952369,,,,,,,,,,,,,,,,,,,,,,,,,,,,,,6,3.3137,1,,,,,,,,,,,,0,131,5,5,1974,2298,absent_patch/patch0001974.jpg,absent_patch/patch0002298.jpg,,,,,,,,,,,,,,,,,,,,0.055555556,0.027777778,1,0,0,response1disk,19,-0.007407365,0.002777771,1,0,0,center_square,0,18,18,6,1,,,,,,,,,,,,,,,,,,,,,,,
442296,001,2022-11-21_01h52.34.070,Info_measure_main_exp,2022.2.2,Win32,60.13952369,,,,,,,,,,,,,,,,,,masks/mask_001.jpg,,,,,,,,,,,,,,,,,,,,,,,,,,,,,,,,,,,,,,,,,,,0,0,0,0,1,,,,,,,,,,,,,,,,,,,,,,,,,,,,,,,,,,,,,,,,,,,,,,
442296,001,2022-11-21_01h52.34.070,Info_measure_main_exp,2022.2.2,Win32,60.13952369,,,,,,,,,,,,,,,,,,masks/mask_005.jpg,,,,,,,,,,,,,,,,,,,,,,,,,,,,,,,,,,,,,,,,,,,0,1,1,4,1,,,,,,,,,,,,,,,,,,,,,,,,,,,,,,,,,,,,,,,,,,,,,,
442296,001,2022-11-21_01h52.34.070,Info_measure_main_exp,2022.2.2,Win32,60.13952369,,,,,,,,,,,,,,,,,,masks/mask_003.jpg,,,,,,,,,,,,,,,,,,,,,,,,,,,,,,,,,,,,,,,,,,,0,2,2,2,1,,,,,,,,,,,,,,,,,,,,,,,,,,,,,,,,,,,,,,,,,,,,,,
442296,001,2022-11-21_01h52.34.070,Info_measure_main_exp,2022.2.2,Win32,60.13952369,,,,,,,,,,,,,,,,,,masks/mask_002.jpg,,,,,,,,,,,,,,,,,,,,,,,,,,,,,,,,,,,,,,,,,,,0,3,3,1,1,,,,,,,,,,,,,,,,,,,,,,,,,,,,,,,,,,,,,,,,,,,,,,
442296,001,2022-11-21_01h52.34.070,Info_measure_main_exp,2022.2.2,Win32,60.13952369,,,,,,,,,,,,,,,,,,masks/mask_004.jpg,,,,,,,,,,,,,,,,,,,,,,,,,,,,,,,,,,,,,,,,,,,0,4,4,3,1,,,,,,,,,,,,,,,,,,,,,,,,,,,,,,,,,,,,,,,,,,,,,,
442296,001,2022-11-21_01h52.34.070,Info_measure_main_exp,2022.2.2,Win32,60.13952369,,,,,,,,,,,,,,,,,,masks/mask_004.jpg,,,,,,,,,,,,,,,,,,,,,,,,,,,,,,,,,,,,,,,,,,,,,,,,0,0,0,3,1,,,,,,,,,,,,,,,,,,,,,,,,,,,,,,,,,,,,,,,,,
442296,001,2022-11-21_01h52.34.070,Info_measure_main_exp,2022.2.2,Win32,60.13952369,,,,,,,,,,,,,,,,,,masks/mask_003.jpg,,,,,,,,,,,,,,,,,,,,,,,,,,,,,,,,,,,,,,,,,,,,,,,,0,1,1,2,1,,,,,,,,,,,,,,,,,,,,,,,,,,,,,,,,,,,,,,,,,
442296,001,2022-11-21_01h52.34.070,Info_measure_main_exp,2022.2.2,Win32,60.13952369,,,,,,,,,,,,,,,,,,masks/mask_005.jpg,,,,,,,,,,,,,,,,,,,,,,,,,,,,,,,,,,,,,,,,,,,,,,,,0,2,2,4,1,,,,,,,,,,,,,,,,,,,,,,,,,,,,,,,,,,,,,,,,,
442296,001,2022-11-21_01h52.34.070,Info_measure_main_exp,2022.2.2,Win32,60.13952369,,,,,,,,,,,,,,,,,,masks/mask_002.jpg,,,,,,,,,,,,,,,,,,,,,,,,,,,,,,,,,,,,,,,,,,,,,,,,0,3,3,1,1,,,,,,,,,,,,,,,,,,,,,,,,,,,,,,,,,,,,,,,,,
442296,001,2022-11-21_01h52.34.070,Info_measure_main_exp,2022.2.2,Win32,60.13952369,,,,,,,,,,,,,,,,,,masks/mask_001.jpg,,,,,,,,,,,,,,,,,,,,,,,,,,,,,,,,,,,,,,,,,,,,,,,,0,4,4,0,1,,,,,,,,,,,,,,,,,,,,,,,,,,,,,,,,,,,,,,,,,
442296,001,2022-11-21_01h52.34.070,Info_measure_main_exp,2022.2.2,Win32,60.13952369,,,,,,,,,,,,,,,,,,,,,,,,,,,,,,2,1.2654,1,,,,,,,,,,,,0,131,5,5,2298,2142,absent_patch/patch0002298.jpg,absent_patch/patch0002142.jpg,,,,,,,,,,,,,,,,,,,,-0.050000014,-0.019444466,1,0,0,response5disk,20,-0.002777735,-0.005555577,1,0,0,center_square,0,19,19,49,1,,,,,,,,,,,,,,,,,,,,,,,
442296,001,2022-11-21_01h52.34.070,Info_measure_main_exp,2022.2.2,Win32,60.13952369,,,,,,,,,,,,,,,,,,masks/mask_003.jpg,,,,,,,,,,,,,,,,,,,,,,,,,,,,,,,,,,,,,,,,,,,0,0,0,2,1,,,,,,,,,,,,,,,,,,,,,,,,,,,,,,,,,,,,,,,,,,,,,,
442296,001,2022-11-21_01h52.34.070,Info_measure_main_exp,2022.2.2,Win32,60.13952369,,,,,,,,,,,,,,,,,,masks/mask_005.jpg,,,,,,,,,,,,,,,,,,,,,,,,,,,,,,,,,,,,,,,,,,,0,1,1,4,1,,,,,,,,,,,,,,,,,,,,,,,,,,,,,,,,,,,,,,,,,,,,,,
442296,001,2022-11-21_01h52.34.070,Info_measure_main_exp,2022.2.2,Win32,60.13952369,,,,,,,,,,,,,,,,,,masks/mask_002.jpg,,,,,,,,,,,,,,,,,,,,,,,,,,,,,,,,,,,,,,,,,,,0,2,2,1,1,,,,,,,,,,,,,,,,,,,,,,,,,,,,,,,,,,,,,,,,,,,,,,
442296,001,2022-11-21_01h52.34.070,Info_measure_main_exp,2022.2.2,Win32,60.13952369,,,,,,,,,,,,,,,,,,masks/mask_001.jpg,,,,,,,,,,,,,,,,,,,,,,,,,,,,,,,,,,,,,,,,,,,0,3,3,0,1,,,,,,,,,,,,,,,,,,,,,,,,,,,,,,,,,,,,,,,,,,,,,,
442296,001,2022-11-21_01h52.34.070,Info_measure_main_exp,2022.2.2,Win32,60.13952369,,,,,,,,,,,,,,,,,,masks/mask_004.jpg,,,,,,,,,,,,,,,,,,,,,,,,,,,,,,,,,,,,,,,,,,,0,4,4,3,1,,,,,,,,,,,,,,,,,,,,,,,,,,,,,,,,,,,,,,,,,,,,,,
442296,001,2022-11-21_01h52.34.070,Info_measure_main_exp,2022.2.2,Win32,60.13952369,,,,,,,,,,,,,,,,,,masks/mask_001.jpg,,,,,,,,,,,,,,,,,,,,,,,,,,,,,,,,,,,,,,,,,,,,,,,,0,0,0,0,1,,,,,,,,,,,,,,,,,,,,,,,,,,,,,,,,,,,,,,,,,
442296,001,2022-11-21_01h52.34.070,Info_measure_main_exp,2022.2.2,Win32,60.13952369,,,,,,,,,,,,,,,,,,masks/mask_004.jpg,,,,,,,,,,,,,,,,,,,,,,,,,,,,,,,,,,,,,,,,,,,,,,,,0,1,1,3,1,,,,,,,,,,,,,,,,,,,,,,,,,,,,,,,,,,,,,,,,,
442296,001,2022-11-21_01h52.34.070,Info_measure_main_exp,2022.2.2,Win32,60.13952369,,,,,,,,,,,,,,,,,,masks/mask_003.jpg,,,,,,,,,,,,,,,,,,,,,,,,,,,,,,,,,,,,,,,,,,,,,,,,0,2,2,2,1,,,,,,,,,,,,,,,,,,,,,,,,,,,,,,,,,,,,,,,,,
442296,001,2022-11-21_01h52.34.070,Info_measure_main_exp,2022.2.2,Win32,60.13952369,,,,,,,,,,,,,,,,,,masks/mask_002.jpg,,,,,,,,,,,,,,,,,,,,,,,,,,,,,,,,,,,,,,,,,,,,,,,,0,3,3,1,1,,,,,,,,,,,,,,,,,,,,,,,,,,,,,,,,,,,,,,,,,
442296,001,2022-11-21_01h52.34.070,Info_measure_main_exp,2022.2.2,Win32,60.13952369,,,,,,,,,,,,,,,,,,masks/mask_005.jpg,,,,,,,,,,,,,,,,,,,,,,,,,,,,,,,,,,,,,,,,,,,,,,,,0,4,4,4,1,,,,,,,,,,,,,,,,,,,,,,,,,,,,,,,,,,,,,,,,,
442296,001,2022-11-21_01h52.34.070,Info_measure_main_exp,2022.2.2,Win32,60.13952369,,,,,,,,,,,,,,,,,,,,,,,,,,,,,,3,2.814,1,,,,,,,,,,,,0,131,5,5,1974,1950,absent_patch/patch0001974.jpg,absent_patch/patch0001950.jpg,,,,,,,,,,,,,,,,,,,,-0.027777778,-0.048148155,1,0,0,response5disk,21,0.003703718,0.005555541,1,0,0,center_square,0,20,20,17,1,,,,,,,,,,,,,,,,,,,,,,,
442296,001,2022-11-21_01h52.34.070,Info_measure_main_exp,2022.2.2,Win32,60.13952369,,,,,,,,,,,,,,,,,,masks/mask_003.jpg,,,,,,,,,,,,,,,,,,,,,,,,,,,,,,,,,,,,,,,,,,,0,0,0,2,1,,,,,,,,,,,,,,,,,,,,,,,,,,,,,,,,,,,,,,,,,,,,,,
442296,001,2022-11-21_01h52.34.070,Info_measure_main_exp,2022.2.2,Win32,60.13952369,,,,,,,,,,,,,,,,,,masks/mask_001.jpg,,,,,,,,,,,,,,,,,,,,,,,,,,,,,,,,,,,,,,,,,,,0,1,1,0,1,,,,,,,,,,,,,,,,,,,,,,,,,,,,,,,,,,,,,,,,,,,,,,
442296,001,2022-11-21_01h52.34.070,Info_measure_main_exp,2022.2.2,Win32,60.13952369,,,,,,,,,,,,,,,,,,masks/mask_002.jpg,,,,,,,,,,,,,,,,,,,,,,,,,,,,,,,,,,,,,,,,,,,0,2,2,1,1,,,,,,,,,,,,,,,,,,,,,,,,,,,,,,,,,,,,,,,,,,,,,,
442296,001,2022-11-21_01h52.34.070,Info_measure_main_exp,2022.2.2,Win32,60.13952369,,,,,,,,,,,,,,,,,,masks/mask_004.jpg,,,,,,,,,,,,,,,,,,,,,,,,,,,,,,,,,,,,,,,,,,,0,3,3,3,1,,,,,,,,,,,,,,,,,,,,,,,,,,,,,,,,,,,,,,,,,,,,,,
442296,001,2022-11-21_01h52.34.070,Info_measure_main_exp,2022.2.2,Win32,60.13952369,,,,,,,,,,,,,,,,,,masks/mask_005.jpg,,,,,,,,,,,,,,,,,,,,,,,,,,,,,,,,,,,,,,,,,,,0,4,4,4,1,,,,,,,,,,,,,,,,,,,,,,,,,,,,,,,,,,,,,,,,,,,,,,
442296,001,2022-11-21_01h52.34.070,Info_measure_main_exp,2022.2.2,Win32,60.13952369,,,,,,,,,,,,,,,,,,masks/mask_004.jpg,,,,,,,,,,,,,,,,,,,,,,,,,,,,,,,,,,,,,,,,,,,,,,,,0,0,0,3,1,,,,,,,,,,,,,,,,,,,,,,,,,,,,,,,,,,,,,,,,,
442296,001,2022-11-21_01h52.34.070,Info_measure_main_exp,2022.2.2,Win32,60.13952369,,,,,,,,,,,,,,,,,,masks/mask_003.jpg,,,,,,,,,,,,,,,,,,,,,,,,,,,,,,,,,,,,,,,,,,,,,,,,0,1,1,2,1,,,,,,,,,,,,,,,,,,,,,,,,,,,,,,,,,,,,,,,,,
442296,001,2022-11-21_01h52.34.070,Info_measure_main_exp,2022.2.2,Win32,60.13952369,,,,,,,,,,,,,,,,,,masks/mask_005.jpg,,,,,,,,,,,,,,,,,,,,,,,,,,,,,,,,,,,,,,,,,,,,,,,,0,2,2,4,1,,,,,,,,,,,,,,,,,,,,,,,,,,,,,,,,,,,,,,,,,
442296,001,2022-11-21_01h52.34.070,Info_measure_main_exp,2022.2.2,Win32,60.13952369,,,,,,,,,,,,,,,,,,masks/mask_002.jpg,,,,,,,,,,,,,,,,,,,,,,,,,,,,,,,,,,,,,,,,,,,,,,,,0,3,3,1,1,,,,,,,,,,,,,,,,,,,,,,,,,,,,,,,,,,,,,,,,,
442296,001,2022-11-21_01h52.34.070,Info_measure_main_exp,2022.2.2,Win32,60.13952369,,,,,,,,,,,,,,,,,,masks/mask_001.jpg,,,,,,,,,,,,,,,,,,,,,,,,,,,,,,,,,,,,,,,,,,,,,,,,0,4,4,0,1,,,,,,,,,,,,,,,,,,,,,,,,,,,,,,,,,,,,,,,,,
442296,001,2022-11-21_01h52.34.070,Info_measure_main_exp,2022.2.2,Win32,60.13952369,,,,,,,,,,,,,,,,,,,,,,,,,,,,,,2,3.2802,1,,,,,,,,,,,,0,131,5,5,2298,2214,absent_patch/patch0002298.jpg,absent_patch/patch0002214.jpg,,,,,,,,,,,,,,,,,,,,-0.065740727,-0.020370377,1,0,0,response5disk,22,0.011111153,-0.001851859,1,0,0,center_square,0,21,21,99,1,,,,,,,,,,,,,,,,,,,,,,,
442296,001,2022-11-21_01h52.34.070,Info_measure_main_exp,2022.2.2,Win32,60.13952369,,,,,,,,,,,,,,,,,,masks/mask_004.jpg,,,,,,,,,,,,,,,,,,,,,,,,,,,,,,,,,,,,,,,,,,,0,0,0,3,1,,,,,,,,,,,,,,,,,,,,,,,,,,,,,,,,,,,,,,,,,,,,,,
442296,001,2022-11-21_01h52.34.070,Info_measure_main_exp,2022.2.2,Win32,60.13952369,,,,,,,,,,,,,,,,,,masks/mask_001.jpg,,,,,,,,,,,,,,,,,,,,,,,,,,,,,,,,,,,,,,,,,,,0,1,1,0,1,,,,,,,,,,,,,,,,,,,,,,,,,,,,,,,,,,,,,,,,,,,,,,
442296,001,2022-11-21_01h52.34.070,Info_measure_main_exp,2022.2.2,Win32,60.13952369,,,,,,,,,,,,,,,,,,masks/mask_003.jpg,,,,,,,,,,,,,,,,,,,,,,,,,,,,,,,,,,,,,,,,,,,0,2,2,2,1,,,,,,,,,,,,,,,,,,,,,,,,,,,,,,,,,,,,,,,,,,,,,,
442296,001,2022-11-21_01h52.34.070,Info_measure_main_exp,2022.2.2,Win32,60.13952369,,,,,,,,,,,,,,,,,,masks/mask_002.jpg,,,,,,,,,,,,,,,,,,,,,,,,,,,,,,,,,,,,,,,,,,,0,3,3,1,1,,,,,,,,,,,,,,,,,,,,,,,,,,,,,,,,,,,,,,,,,,,,,,
442296,001,2022-11-21_01h52.34.070,Info_measure_main_exp,2022.2.2,Win32,60.13952369,,,,,,,,,,,,,,,,,,masks/mask_005.jpg,,,,,,,,,,,,,,,,,,,,,,,,,,,,,,,,,,,,,,,,,,,0,4,4,4,1,,,,,,,,,,,,,,,,,,,,,,,,,,,,,,,,,,,,,,,,,,,,,,
442296,001,2022-11-21_01h52.34.070,Info_measure_main_exp,2022.2.2,Win32,60.13952369,,,,,,,,,,,,,,,,,,masks/mask_005.jpg,,,,,,,,,,,,,,,,,,,,,,,,,,,,,,,,,,,,,,,,,,,,,,,,0,0,0,4,1,,,,,,,,,,,,,,,,,,,,,,,,,,,,,,,,,,,,,,,,,
442296,001,2022-11-21_01h52.34.070,Info_measure_main_exp,2022.2.2,Win32,60.13952369,,,,,,,,,,,,,,,,,,masks/mask_004.jpg,,,,,,,,,,,,,,,,,,,,,,,,,,,,,,,,,,,,,,,,,,,,,,,,0,1,1,3,1,,,,,,,,,,,,,,,,,,,,,,,,,,,,,,,,,,,,,,,,,
442296,001,2022-11-21_01h52.34.070,Info_measure_main_exp,2022.2.2,Win32,60.13952369,,,,,,,,,,,,,,,,,,masks/mask_001.jpg,,,,,,,,,,,,,,,,,,,,,,,,,,,,,,,,,,,,,,,,,,,,,,,,0,2,2,0,1,,,,,,,,,,,,,,,,,,,,,,,,,,,,,,,,,,,,,,,,,
442296,001,2022-11-21_01h52.34.070,Info_measure_main_exp,2022.2.2,Win32,60.13952369,,,,,,,,,,,,,,,,,,masks/mask_002.jpg,,,,,,,,,,,,,,,,,,,,,,,,,,,,,,,,,,,,,,,,,,,,,,,,0,3,3,1,1,,,,,,,,,,,,,,,,,,,,,,,,,,,,,,,,,,,,,,,,,
442296,001,2022-11-21_01h52.34.070,Info_measure_main_exp,2022.2.2,Win32,60.13952369,,,,,,,,,,,,,,,,,,masks/mask_003.jpg,,,,,,,,,,,,,,,,,,,,,,,,,,,,,,,,,,,,,,,,,,,,,,,,0,4,4,2,1,,,,,,,,,,,,,,,,,,,,,,,,,,,,,,,,,,,,,,,,,
442296,001,2022-11-21_01h52.34.070,Info_measure_main_exp,2022.2.2,Win32,60.13952369,,,,,,,,,,,,,,,,,,,,,,,,,,,,,,5,1.815,1,,,,,,,,,,,,0,131,5,5,2214,2166,absent_patch/patch0002214.jpg,absent_patch/patch0002166.jpg,,,,,,,,,,,,,,,,,,,,0.044444473,-0.018518519,1,0,0,response3disk,23,-0.001851824,-0.001851859,1,0,0,center_square,0,22,22,109,1,,,,,,,,,,,,,,,,,,,,,,,
442296,001,2022-11-21_01h52.34.070,Info_measure_main_exp,2022.2.2,Win32,60.13952369,,,,,,,,,,,,,,,,,,masks/mask_001.jpg,,,,,,,,,,,,,,,,,,,,,,,,,,,,,,,,,,,,,,,,,,,0,0,0,0,1,,,,,,,,,,,,,,,,,,,,,,,,,,,,,,,,,,,,,,,,,,,,,,
442296,001,2022-11-21_01h52.34.070,Info_measure_main_exp,2022.2.2,Win32,60.13952369,,,,,,,,,,,,,,,,,,masks/mask_005.jpg,,,,,,,,,,,,,,,,,,,,,,,,,,,,,,,,,,,,,,,,,,,0,1,1,4,1,,,,,,,,,,,,,,,,,,,,,,,,,,,,,,,,,,,,,,,,,,,,,,
442296,001,2022-11-21_01h52.34.070,Info_measure_main_exp,2022.2.2,Win32,60.13952369,,,,,,,,,,,,,,,,,,masks/mask_002.jpg,,,,,,,,,,,,,,,,,,,,,,,,,,,,,,,,,,,,,,,,,,,0,2,2,1,1,,,,,,,,,,,,,,,,,,,,,,,,,,,,,,,,,,,,,,,,,,,,,,
442296,001,2022-11-21_01h52.34.070,Info_measure_main_exp,2022.2.2,Win32,60.13952369,,,,,,,,,,,,,,,,,,masks/mask_003.jpg,,,,,,,,,,,,,,,,,,,,,,,,,,,,,,,,,,,,,,,,,,,0,3,3,2,1,,,,,,,,,,,,,,,,,,,,,,,,,,,,,,,,,,,,,,,,,,,,,,
442296,001,2022-11-21_01h52.34.070,Info_measure_main_exp,2022.2.2,Win32,60.13952369,,,,,,,,,,,,,,,,,,masks/mask_004.jpg,,,,,,,,,,,,,,,,,,,,,,,,,,,,,,,,,,,,,,,,,,,0,4,4,3,1,,,,,,,,,,,,,,,,,,,,,,,,,,,,,,,,,,,,,,,,,,,,,,
442296,001,2022-11-21_01h52.34.070,Info_measure_main_exp,2022.2.2,Win32,60.13952369,,,,,,,,,,,,,,,,,,masks/mask_005.jpg,,,,,,,,,,,,,,,,,,,,,,,,,,,,,,,,,,,,,,,,,,,,,,,,0,0,0,4,1,,,,,,,,,,,,,,,,,,,,,,,,,,,,,,,,,,,,,,,,,
442296,001,2022-11-21_01h52.34.070,Info_measure_main_exp,2022.2.2,Win32,60.13952369,,,,,,,,,,,,,,,,,,masks/mask_001.jpg,,,,,,,,,,,,,,,,,,,,,,,,,,,,,,,,,,,,,,,,,,,,,,,,0,1,1,0,1,,,,,,,,,,,,,,,,,,,,,,,,,,,,,,,,,,,,,,,,,
442296,001,2022-11-21_01h52.34.070,Info_measure_main_exp,2022.2.2,Win32,60.13952369,,,,,,,,,,,,,,,,,,masks/mask_004.jpg,,,,,,,,,,,,,,,,,,,,,,,,,,,,,,,,,,,,,,,,,,,,,,,,0,2,2,3,1,,,,,,,,,,,,,,,,,,,,,,,,,,,,,,,,,,,,,,,,,
442296,001,2022-11-21_01h52.34.070,Info_measure_main_exp,2022.2.2,Win32,60.13952369,,,,,,,,,,,,,,,,,,masks/mask_003.jpg,,,,,,,,,,,,,,,,,,,,,,,,,,,,,,,,,,,,,,,,,,,,,,,,0,3,3,2,1,,,,,,,,,,,,,,,,,,,,,,,,,,,,,,,,,,,,,,,,,
442296,001,2022-11-21_01h52.34.070,Info_measure_main_exp,2022.2.2,Win32,60.13952369,,,,,,,,,,,,,,,,,,masks/mask_002.jpg,,,,,,,,,,,,,,,,,,,,,,,,,,,,,,,,,,,,,,,,,,,,,,,,0,4,4,1,1,,,,,,,,,,,,,,,,,,,,,,,,,,,,,,,,,,,,,,,,,
442296,001,2022-11-21_01h52.34.070,Info_measure_main_exp,2022.2.2,Win32,60.13952369,,,,,,,,,,,,,,,,,,,,,,,,,,,,,,7,2.4311,1,,,,,,,,,,,,0,131,5,5,2082,2238,absent_patch/patch0002082.jpg,absent_patch/patch0002238.jpg,,,,,,,,,,,,,,,,,,,,0.009259259,0.03148146,1,0,0,response1disk,24,-0.003703718,-0.008333347,1,0,0,center_square,0,23,23,22,1,,,,,,,,,,,,,,,,,,,,,,,
442296,001,2022-11-21_01h52.34.070,Info_measure_main_exp,2022.2.2,Win32,60.13952369,,,,,,,,,,,,,,,,,,masks/mask_002.jpg,,,,,,,,,,,,,,,,,,,,,,,,,,,,,,,,,,,,,,,,,,,0,0,0,1,1,,,,,,,,,,,,,,,,,,,,,,,,,,,,,,,,,,,,,,,,,,,,,,
442296,001,2022-11-21_01h52.34.070,Info_measure_main_exp,2022.2.2,Win32,60.13952369,,,,,,,,,,,,,,,,,,masks/mask_003.jpg,,,,,,,,,,,,,,,,,,,,,,,,,,,,,,,,,,,,,,,,,,,0,1,1,2,1,,,,,,,,,,,,,,,,,,,,,,,,,,,,,,,,,,,,,,,,,,,,,,
442296,001,2022-11-21_01h52.34.070,Info_measure_main_exp,2022.2.2,Win32,60.13952369,,,,,,,,,,,,,,,,,,masks/mask_001.jpg,,,,,,,,,,,,,,,,,,,,,,,,,,,,,,,,,,,,,,,,,,,0,2,2,0,1,,,,,,,,,,,,,,,,,,,,,,,,,,,,,,,,,,,,,,,,,,,,,,
442296,001,2022-11-21_01h52.34.070,Info_measure_main_exp,2022.2.2,Win32,60.13952369,,,,,,,,,,,,,,,,,,masks/mask_005.jpg,,,,,,,,,,,,,,,,,,,,,,,,,,,,,,,,,,,,,,,,,,,0,3,3,4,1,,,,,,,,,,,,,,,,,,,,,,,,,,,,,,,,,,,,,,,,,,,,,,
442296,001,2022-11-21_01h52.34.070,Info_measure_main_exp,2022.2.2,Win32,60.13952369,,,,,,,,,,,,,,,,,,masks/mask_004.jpg,,,,,,,,,,,,,,,,,,,,,,,,,,,,,,,,,,,,,,,,,,,0,4,4,3,1,,,,,,,,,,,,,,,,,,,,,,,,,,,,,,,,,,,,,,,,,,,,,,
442296,001,2022-11-21_01h52.34.070,Info_measure_main_exp,2022.2.2,Win32,60.13952369,,,,,,,,,,,,,,,,,,masks/mask_003.jpg,,,,,,,,,,,,,,,,,,,,,,,,,,,,,,,,,,,,,,,,,,,,,,,,0,0,0,2,1,,,,,,,,,,,,,,,,,,,,,,,,,,,,,,,,,,,,,,,,,
442296,001,2022-11-21_01h52.34.070,Info_measure_main_exp,2022.2.2,Win32,60.13952369,,,,,,,,,,,,,,,,,,masks/mask_001.jpg,,,,,,,,,,,,,,,,,,,,,,,,,,,,,,,,,,,,,,,,,,,,,,,,0,1,1,0,1,,,,,,,,,,,,,,,,,,,,,,,,,,,,,,,,,,,,,,,,,
442296,001,2022-11-21_01h52.34.070,Info_measure_main_exp,2022.2.2,Win32,60.13952369,,,,,,,,,,,,,,,,,,masks/mask_002.jpg,,,,,,,,,,,,,,,,,,,,,,,,,,,,,,,,,,,,,,,,,,,,,,,,0,2,2,1,1,,,,,,,,,,,,,,,,,,,,,,,,,,,,,,,,,,,,,,,,,
442296,001,2022-11-21_01h52.34.070,Info_measure_main_exp,2022.2.2,Win32,60.13952369,,,,,,,,,,,,,,,,,,masks/mask_005.jpg,,,,,,,,,,,,,,,,,,,,,,,,,,,,,,,,,,,,,,,,,,,,,,,,0,3,3,4,1,,,,,,,,,,,,,,,,,,,,,,,,,,,,,,,,,,,,,,,,,
442296,001,2022-11-21_01h52.34.070,Info_measure_main_exp,2022.2.2,Win32,60.13952369,,,,,,,,,,,,,,,,,,masks/mask_004.jpg,,,,,,,,,,,,,,,,,,,,,,,,,,,,,,,,,,,,,,,,,,,,,,,,0,4,4,3,1,,,,,,,,,,,,,,,,,,,,,,,,,,,,,,,,,,,,,,,,,
442296,001,2022-11-21_01h52.34.070,Info_measure_main_exp,2022.2.2,Win32,60.13952369,,,,,,,,,,,,,,,,,,,,,,,,,,,,,,3,4.0795,1,,,,,,,,,,,,0,131,5,5,2214,2082,absent_patch/patch0002214.jpg,absent_patch/patch0002082.jpg,,,,,,,,,,,,,,,,,,,,-0.045370384,-0.073148162,1,0,0,response5disk,25,-0.006481453,0,1,0,0,center_square,0,24,24,103,1,,,,,,,,,,,,,,,,,,,,,,,
442296,001,2022-11-21_01h52.34.070,Info_measure_main_exp,2022.2.2,Win32,60.13952369,,,,,,,,,,,,,,,,,,masks/mask_003.jpg,,,,,,,,,,,,,,,,,,,,,,,,,,,,,,,,,,,,,,,,,,,0,0,0,2,1,,,,,,,,,,,,,,,,,,,,,,,,,,,,,,,,,,,,,,,,,,,,,,
442296,001,2022-11-21_01h52.34.070,Info_measure_main_exp,2022.2.2,Win32,60.13952369,,,,,,,,,,,,,,,,,,masks/mask_002.jpg,,,,,,,,,,,,,,,,,,,,,,,,,,,,,,,,,,,,,,,,,,,0,1,1,1,1,,,,,,,,,,,,,,,,,,,,,,,,,,,,,,,,,,,,,,,,,,,,,,
442296,001,2022-11-21_01h52.34.070,Info_measure_main_exp,2022.2.2,Win32,60.13952369,,,,,,,,,,,,,,,,,,masks/mask_001.jpg,,,,,,,,,,,,,,,,,,,,,,,,,,,,,,,,,,,,,,,,,,,0,2,2,0,1,,,,,,,,,,,,,,,,,,,,,,,,,,,,,,,,,,,,,,,,,,,,,,
442296,001,2022-11-21_01h52.34.070,Info_measure_main_exp,2022.2.2,Win32,60.13952369,,,,,,,,,,,,,,,,,,masks/mask_004.jpg,,,,,,,,,,,,,,,,,,,,,,,,,,,,,,,,,,,,,,,,,,,0,3,3,3,1,,,,,,,,,,,,,,,,,,,,,,,,,,,,,,,,,,,,,,,,,,,,,,
442296,001,2022-11-21_01h52.34.070,Info_measure_main_exp,2022.2.2,Win32,60.13952369,,,,,,,,,,,,,,,,,,masks/mask_005.jpg,,,,,,,,,,,,,,,,,,,,,,,,,,,,,,,,,,,,,,,,,,,0,4,4,4,1,,,,,,,,,,,,,,,,,,,,,,,,,,,,,,,,,,,,,,,,,,,,,,
442296,001,2022-11-21_01h52.34.070,Info_measure_main_exp,2022.2.2,Win32,60.13952369,,,,,,,,,,,,,,,,,,masks/mask_005.jpg,,,,,,,,,,,,,,,,,,,,,,,,,,,,,,,,,,,,,,,,,,,,,,,,0,0,0,4,1,,,,,,,,,,,,,,,,,,,,,,,,,,,,,,,,,,,,,,,,,
442296,001,2022-11-21_01h52.34.070,Info_measure_main_exp,2022.2.2,Win32,60.13952369,,,,,,,,,,,,,,,,,,masks/mask_002.jpg,,,,,,,,,,,,,,,,,,,,,,,,,,,,,,,,,,,,,,,,,,,,,,,,0,1,1,1,1,,,,,,,,,,,,,,,,,,,,,,,,,,,,,,,,,,,,,,,,,
442296,001,2022-11-21_01h52.34.070,Info_measure_main_exp,2022.2.2,Win32,60.13952369,,,,,,,,,,,,,,,,,,masks/mask_001.jpg,,,,,,,,,,,,,,,,,,,,,,,,,,,,,,,,,,,,,,,,,,,,,,,,0,2,2,0,1,,,,,,,,,,,,,,,,,,,,,,,,,,,,,,,,,,,,,,,,,
442296,001,2022-11-21_01h52.34.070,Info_measure_main_exp,2022.2.2,Win32,60.13952369,,,,,,,,,,,,,,,,,,masks/mask_004.jpg,,,,,,,,,,,,,,,,,,,,,,,,,,,,,,,,,,,,,,,,,,,,,,,,0,3,3,3,1,,,,,,,,,,,,,,,,,,,,,,,,,,,,,,,,,,,,,,,,,
442296,001,2022-11-21_01h52.34.070,Info_measure_main_exp,2022.2.2,Win32,60.13952369,,,,,,,,,,,,,,,,,,masks/mask_003.jpg,,,,,,,,,,,,,,,,,,,,,,,,,,,,,,,,,,,,,,,,,,,,,,,,0,4,4,2,1,,,,,,,,,,,,,,,,,,,,,,,,,,,,,,,,,,,,,,,,,
442296,001,2022-11-21_01h52.34.070,Info_measure_main_exp,2022.2.2,Win32,60.13952369,,,,,,,,,,,,,,,,,,,,,,,,,,,,,,7,1.8148,1,,,,,,,,,,,,0,131,5,5,2154,2298,absent_patch/patch0002154.jpg,absent_patch/patch0002298.jpg,,,,,,,,,,,,,,,,,,,,0.016666695,0.029629637,1,0,0,response1disk,26,0.002777806,-0.008333347,1,0,0,center_square,0,25,25,27,1,,,,,,,,,,,,,,,,,,,,,,,
442296,001,2022-11-21_01h52.34.070,Info_measure_main_exp,2022.2.2,Win32,60.13952369,,,,,,,,,,,,,,,,,,masks/mask_003.jpg,,,,,,,,,,,,,,,,,,,,,,,,,,,,,,,,,,,,,,,,,,,0,0,0,2,1,,,,,,,,,,,,,,,,,,,,,,,,,,,,,,,,,,,,,,,,,,,,,,
442296,001,2022-11-21_01h52.34.070,Info_measure_main_exp,2022.2.2,Win32,60.13952369,,,,,,,,,,,,,,,,,,masks/mask_001.jpg,,,,,,,,,,,,,,,,,,,,,,,,,,,,,,,,,,,,,,,,,,,0,1,1,0,1,,,,,,,,,,,,,,,,,,,,,,,,,,,,,,,,,,,,,,,,,,,,,,
442296,001,2022-11-21_01h52.34.070,Info_measure_main_exp,2022.2.2,Win32,60.13952369,,,,,,,,,,,,,,,,,,masks/mask_002.jpg,,,,,,,,,,,,,,,,,,,,,,,,,,,,,,,,,,,,,,,,,,,0,2,2,1,1,,,,,,,,,,,,,,,,,,,,,,,,,,,,,,,,,,,,,,,,,,,,,,
442296,001,2022-11-21_01h52.34.070,Info_measure_main_exp,2022.2.2,Win32,60.13952369,,,,,,,,,,,,,,,,,,masks/mask_005.jpg,,,,,,,,,,,,,,,,,,,,,,,,,,,,,,,,,,,,,,,,,,,0,3,3,4,1,,,,,,,,,,,,,,,,,,,,,,,,,,,,,,,,,,,,,,,,,,,,,,
442296,001,2022-11-21_01h52.34.070,Info_measure_main_exp,2022.2.2,Win32,60.13952369,,,,,,,,,,,,,,,,,,masks/mask_004.jpg,,,,,,,,,,,,,,,,,,,,,,,,,,,,,,,,,,,,,,,,,,,0,4,4,3,1,,,,,,,,,,,,,,,,,,,,,,,,,,,,,,,,,,,,,,,,,,,,,,
442296,001,2022-11-21_01h52.34.070,Info_measure_main_exp,2022.2.2,Win32,60.13952369,,,,,,,,,,,,,,,,,,masks/mask_003.jpg,,,,,,,,,,,,,,,,,,,,,,,,,,,,,,,,,,,,,,,,,,,,,,,,0,0,0,2,1,,,,,,,,,,,,,,,,,,,,,,,,,,,,,,,,,,,,,,,,,
442296,001,2022-11-21_01h52.34.070,Info_measure_main_exp,2022.2.2,Win32,60.13952369,,,,,,,,,,,,,,,,,,masks/mask_005.jpg,,,,,,,,,,,,,,,,,,,,,,,,,,,,,,,,,,,,,,,,,,,,,,,,0,1,1,4,1,,,,,,,,,,,,,,,,,,,,,,,,,,,,,,,,,,,,,,,,,
442296,001,2022-11-21_01h52.34.070,Info_measure_main_exp,2022.2.2,Win32,60.13952369,,,,,,,,,,,,,,,,,,masks/mask_002.jpg,,,,,,,,,,,,,,,,,,,,,,,,,,,,,,,,,,,,,,,,,,,,,,,,0,2,2,1,1,,,,,,,,,,,,,,,,,,,,,,,,,,,,,,,,,,,,,,,,,
442296,001,2022-11-21_01h52.34.070,Info_measure_main_exp,2022.2.2,Win32,60.13952369,,,,,,,,,,,,,,,,,,masks/mask_001.jpg,,,,,,,,,,,,,,,,,,,,,,,,,,,,,,,,,,,,,,,,,,,,,,,,0,3,3,0,1,,,,,,,,,,,,,,,,,,,,,,,,,,,,,,,,,,,,,,,,,
442296,001,2022-11-21_01h52.34.070,Info_measure_main_exp,2022.2.2,Win32,60.13952369,,,,,,,,,,,,,,,,,,masks/mask_004.jpg,,,,,,,,,,,,,,,,,,,,,,,,,,,,,,,,,,,,,,,,,,,,,,,,0,4,4,3,1,,,,,,,,,,,,,,,,,,,,,,,,,,,,,,,,,,,,,,,,,
442296,001,2022-11-21_01h52.34.070,Info_measure_main_exp,2022.2.2,Win32,60.13952369,,,,,,,,,,,,,,,,,,,,,,,,,,,,,,7,1.6218,1,,,,,,,,,,,,0,131,5,5,2082,1986,absent_patch/patch0002082.jpg,absent_patch/patch0001986.jpg,,,,,,,,,,,,,,,,,,,,0.008333347,0.025925919,1,0,0,response1disk,27,0.001851894,0,1,0,0,center_square,0,26,26,94,1,,,,,,,,,,,,,,,,,,,,,,,
442296,001,2022-11-21_01h52.34.070,Info_measure_main_exp,2022.2.2,Win32,60.13952369,,,,,,,,,,,,,,,,,,masks/mask_003.jpg,,,,,,,,,,,,,,,,,,,,,,,,,,,,,,,,,,,,,,,,,,,0,0,0,2,1,,,,,,,,,,,,,,,,,,,,,,,,,,,,,,,,,,,,,,,,,,,,,,
442296,001,2022-11-21_01h52.34.070,Info_measure_main_exp,2022.2.2,Win32,60.13952369,,,,,,,,,,,,,,,,,,masks/mask_001.jpg,,,,,,,,,,,,,,,,,,,,,,,,,,,,,,,,,,,,,,,,,,,0,1,1,0,1,,,,,,,,,,,,,,,,,,,,,,,,,,,,,,,,,,,,,,,,,,,,,,
442296,001,2022-11-21_01h52.34.070,Info_measure_main_exp,2022.2.2,Win32,60.13952369,,,,,,,,,,,,,,,,,,masks/mask_004.jpg,,,,,,,,,,,,,,,,,,,,,,,,,,,,,,,,,,,,,,,,,,,0,2,2,3,1,,,,,,,,,,,,,,,,,,,,,,,,,,,,,,,,,,,,,,,,,,,,,,
442296,001,2022-11-21_01h52.34.070,Info_measure_main_exp,2022.2.2,Win32,60.13952369,,,,,,,,,,,,,,,,,,masks/mask_002.jpg,,,,,,,,,,,,,,,,,,,,,,,,,,,,,,,,,,,,,,,,,,,0,3,3,1,1,,,,,,,,,,,,,,,,,,,,,,,,,,,,,,,,,,,,,,,,,,,,,,
442296,001,2022-11-21_01h52.34.070,Info_measure_main_exp,2022.2.2,Win32,60.13952369,,,,,,,,,,,,,,,,,,masks/mask_005.jpg,,,,,,,,,,,,,,,,,,,,,,,,,,,,,,,,,,,,,,,,,,,0,4,4,4,1,,,,,,,,,,,,,,,,,,,,,,,,,,,,,,,,,,,,,,,,,,,,,,
442296,001,2022-11-21_01h52.34.070,Info_measure_main_exp,2022.2.2,Win32,60.13952369,,,,,,,,,,,,,,,,,,masks/mask_004.jpg,,,,,,,,,,,,,,,,,,,,,,,,,,,,,,,,,,,,,,,,,,,,,,,,0,0,0,3,1,,,,,,,,,,,,,,,,,,,,,,,,,,,,,,,,,,,,,,,,,
442296,001,2022-11-21_01h52.34.070,Info_measure_main_exp,2022.2.2,Win32,60.13952369,,,,,,,,,,,,,,,,,,masks/mask_005.jpg,,,,,,,,,,,,,,,,,,,,,,,,,,,,,,,,,,,,,,,,,,,,,,,,0,1,1,4,1,,,,,,,,,,,,,,,,,,,,,,,,,,,,,,,,,,,,,,,,,
442296,001,2022-11-21_01h52.34.070,Info_measure_main_exp,2022.2.2,Win32,60.13952369,,,,,,,,,,,,,,,,,,masks/mask_002.jpg,,,,,,,,,,,,,,,,,,,,,,,,,,,,,,,,,,,,,,,,,,,,,,,,0,2,2,1,1,,,,,,,,,,,,,,,,,,,,,,,,,,,,,,,,,,,,,,,,,
442296,001,2022-11-21_01h52.34.070,Info_measure_main_exp,2022.2.2,Win32,60.13952369,,,,,,,,,,,,,,,,,,masks/mask_003.jpg,,,,,,,,,,,,,,,,,,,,,,,,,,,,,,,,,,,,,,,,,,,,,,,,0,3,3,2,1,,,,,,,,,,,,,,,,,,,,,,,,,,,,,,,,,,,,,,,,,
442296,001,2022-11-21_01h52.34.070,Info_measure_main_exp,2022.2.2,Win32,60.13952369,,,,,,,,,,,,,,,,,,masks/mask_001.jpg,,,,,,,,,,,,,,,,,,,,,,,,,,,,,,,,,,,,,,,,,,,,,,,,0,4,4,0,1,,,,,,,,,,,,,,,,,,,,,,,,,,,,,,,,,,,,,,,,,
442296,001,2022-11-21_01h52.34.070,Info_measure_main_exp,2022.2.2,Win32,60.13952369,,,,,,,,,,,,,,,,,,,,,,,,,,,,,,6,1.6491,1,,,,,,,,,,,,1,131,5,5,2298,1,absent_patch/patch0002298.jpg,present_patch/cong_131_5_a.jpg,,,,,,,,,,,,,,,,,,,,0.02407406,0.01203703,1,0,0,response1disk,28,0.005555541,0.009259259,1,0,0,center_square,0,27,27,45,1,,,,,,,,,,,,,,,,,,,,,,,
442296,001,2022-11-21_01h52.34.070,Info_measure_main_exp,2022.2.2,Win32,60.13952369,,,,,,,,,,,,,,,,,,masks/mask_005.jpg,,,,,,,,,,,,,,,,,,,,,,,,,,,,,,,,,,,,,,,,,,,0,0,0,4,1,,,,,,,,,,,,,,,,,,,,,,,,,,,,,,,,,,,,,,,,,,,,,,
442296,001,2022-11-21_01h52.34.070,Info_measure_main_exp,2022.2.2,Win32,60.13952369,,,,,,,,,,,,,,,,,,masks/mask_003.jpg,,,,,,,,,,,,,,,,,,,,,,,,,,,,,,,,,,,,,,,,,,,0,1,1,2,1,,,,,,,,,,,,,,,,,,,,,,,,,,,,,,,,,,,,,,,,,,,,,,
442296,001,2022-11-21_01h52.34.070,Info_measure_main_exp,2022.2.2,Win32,60.13952369,,,,,,,,,,,,,,,,,,masks/mask_001.jpg,,,,,,,,,,,,,,,,,,,,,,,,,,,,,,,,,,,,,,,,,,,0,2,2,0,1,,,,,,,,,,,,,,,,,,,,,,,,,,,,,,,,,,,,,,,,,,,,,,
442296,001,2022-11-21_01h52.34.070,Info_measure_main_exp,2022.2.2,Win32,60.13952369,,,,,,,,,,,,,,,,,,masks/mask_004.jpg,,,,,,,,,,,,,,,,,,,,,,,,,,,,,,,,,,,,,,,,,,,0,3,3,3,1,,,,,,,,,,,,,,,,,,,,,,,,,,,,,,,,,,,,,,,,,,,,,,
442296,001,2022-11-21_01h52.34.070,Info_measure_main_exp,2022.2.2,Win32,60.13952369,,,,,,,,,,,,,,,,,,masks/mask_002.jpg,,,,,,,,,,,,,,,,,,,,,,,,,,,,,,,,,,,,,,,,,,,0,4,4,1,1,,,,,,,,,,,,,,,,,,,,,,,,,,,,,,,,,,,,,,,,,,,,,,
442296,001,2022-11-21_01h52.34.070,Info_measure_main_exp,2022.2.2,Win32,60.13952369,,,,,,,,,,,,,,,,,,masks/mask_004.jpg,,,,,,,,,,,,,,,,,,,,,,,,,,,,,,,,,,,,,,,,,,,,,,,,0,0,0,3,1,,,,,,,,,,,,,,,,,,,,,,,,,,,,,,,,,,,,,,,,,
442296,001,2022-11-21_01h52.34.070,Info_measure_main_exp,2022.2.2,Win32,60.13952369,,,,,,,,,,,,,,,,,,masks/mask_003.jpg,,,,,,,,,,,,,,,,,,,,,,,,,,,,,,,,,,,,,,,,,,,,,,,,0,1,1,2,1,,,,,,,,,,,,,,,,,,,,,,,,,,,,,,,,,,,,,,,,,
442296,001,2022-11-21_01h52.34.070,Info_measure_main_exp,2022.2.2,Win32,60.13952369,,,,,,,,,,,,,,,,,,masks/mask_005.jpg,,,,,,,,,,,,,,,,,,,,,,,,,,,,,,,,,,,,,,,,,,,,,,,,0,2,2,4,1,,,,,,,,,,,,,,,,,,,,,,,,,,,,,,,,,,,,,,,,,
442296,001,2022-11-21_01h52.34.070,Info_measure_main_exp,2022.2.2,Win32,60.13952369,,,,,,,,,,,,,,,,,,masks/mask_002.jpg,,,,,,,,,,,,,,,,,,,,,,,,,,,,,,,,,,,,,,,,,,,,,,,,0,3,3,1,1,,,,,,,,,,,,,,,,,,,,,,,,,,,,,,,,,,,,,,,,,
442296,001,2022-11-21_01h52.34.070,Info_measure_main_exp,2022.2.2,Win32,60.13952369,,,,,,,,,,,,,,,,,,masks/mask_001.jpg,,,,,,,,,,,,,,,,,,,,,,,,,,,,,,,,,,,,,,,,,,,,,,,,0,4,4,0,1,,,,,,,,,,,,,,,,,,,,,,,,,,,,,,,,,,,,,,,,,
442296,001,2022-11-21_01h52.34.070,Info_measure_main_exp,2022.2.2,Win32,60.13952369,,,,,,,,,,,,,,,,,,,,,,,,,,,,,,7,2.8646,1,,,,,,,,,,,,0,131,5,5,2178,2238,absent_patch/patch0002178.jpg,absent_patch/patch0002238.jpg,,,,,,,,,,,,,,,,,,,,0.006481524,0.01944443,1,0,0,response1disk,29,0.002777806,0.000925912,1,0,0,center_square,0,28,28,57,1,,,,,,,,,,,,,,,,,,,,,,,
442296,001,2022-11-21_01h52.34.070,Info_measure_main_exp,2022.2.2,Win32,60.13952369,,,,,,,,,,,,,,,,,,masks/mask_002.jpg,,,,,,,,,,,,,,,,,,,,,,,,,,,,,,,,,,,,,,,,,,,0,0,0,1,1,,,,,,,,,,,,,,,,,,,,,,,,,,,,,,,,,,,,,,,,,,,,,,
442296,001,2022-11-21_01h52.34.070,Info_measure_main_exp,2022.2.2,Win32,60.13952369,,,,,,,,,,,,,,,,,,masks/mask_001.jpg,,,,,,,,,,,,,,,,,,,,,,,,,,,,,,,,,,,,,,,,,,,0,1,1,0,1,,,,,,,,,,,,,,,,,,,,,,,,,,,,,,,,,,,,,,,,,,,,,,
442296,001,2022-11-21_01h52.34.070,Info_measure_main_exp,2022.2.2,Win32,60.13952369,,,,,,,,,,,,,,,,,,masks/mask_004.jpg,,,,,,,,,,,,,,,,,,,,,,,,,,,,,,,,,,,,,,,,,,,0,2,2,3,1,,,,,,,,,,,,,,,,,,,,,,,,,,,,,,,,,,,,,,,,,,,,,,
442296,001,2022-11-21_01h52.34.070,Info_measure_main_exp,2022.2.2,Win32,60.13952369,,,,,,,,,,,,,,,,,,masks/mask_003.jpg,,,,,,,,,,,,,,,,,,,,,,,,,,,,,,,,,,,,,,,,,,,0,3,3,2,1,,,,,,,,,,,,,,,,,,,,,,,,,,,,,,,,,,,,,,,,,,,,,,
442296,001,2022-11-21_01h52.34.070,Info_measure_main_exp,2022.2.2,Win32,60.13952369,,,,,,,,,,,,,,,,,,masks/mask_005.jpg,,,,,,,,,,,,,,,,,,,,,,,,,,,,,,,,,,,,,,,,,,,0,4,4,4,1,,,,,,,,,,,,,,,,,,,,,,,,,,,,,,,,,,,,,,,,,,,,,,
442296,001,2022-11-21_01h52.34.070,Info_measure_main_exp,2022.2.2,Win32,60.13952369,,,,,,,,,,,,,,,,,,masks/mask_005.jpg,,,,,,,,,,,,,,,,,,,,,,,,,,,,,,,,,,,,,,,,,,,,,,,,0,0,0,4,1,,,,,,,,,,,,,,,,,,,,,,,,,,,,,,,,,,,,,,,,,
442296,001,2022-11-21_01h52.34.070,Info_measure_main_exp,2022.2.2,Win32,60.13952369,,,,,,,,,,,,,,,,,,masks/mask_002.jpg,,,,,,,,,,,,,,,,,,,,,,,,,,,,,,,,,,,,,,,,,,,,,,,,0,1,1,1,1,,,,,,,,,,,,,,,,,,,,,,,,,,,,,,,,,,,,,,,,,
442296,001,2022-11-21_01h52.34.070,Info_measure_main_exp,2022.2.2,Win32,60.13952369,,,,,,,,,,,,,,,,,,masks/mask_004.jpg,,,,,,,,,,,,,,,,,,,,,,,,,,,,,,,,,,,,,,,,,,,,,,,,0,2,2,3,1,,,,,,,,,,,,,,,,,,,,,,,,,,,,,,,,,,,,,,,,,
442296,001,2022-11-21_01h52.34.070,Info_measure_main_exp,2022.2.2,Win32,60.13952369,,,,,,,,,,,,,,,,,,masks/mask_001.jpg,,,,,,,,,,,,,,,,,,,,,,,,,,,,,,,,,,,,,,,,,,,,,,,,0,3,3,0,1,,,,,,,,,,,,,,,,,,,,,,,,,,,,,,,,,,,,,,,,,
442296,001,2022-11-21_01h52.34.070,Info_measure_main_exp,2022.2.2,Win32,60.13952369,,,,,,,,,,,,,,,,,,masks/mask_003.jpg,,,,,,,,,,,,,,,,,,,,,,,,,,,,,,,,,,,,,,,,,,,,,,,,0,4,4,2,1,,,,,,,,,,,,,,,,,,,,,,,,,,,,,,,,,,,,,,,,,
442296,001,2022-11-21_01h52.34.070,Info_measure_main_exp,2022.2.2,Win32,60.13952369,,,,,,,,,,,,,,,,,,,,,,,,,,,,,,6,1.432,1,,,,,,,,,,,,1,131,5,5,1,2142,present_patch/cong_131_5_a.jpg,absent_patch/patch0002142.jpg,,,,,,,,,,,,,,,,,,,,0.032407407,0.013888889,1,0,0,response1disk,30,-0.007407365,-0.001851859,1,0,0,center_square,0,29,29,80,1,,,,,,,,,,,,,,,,,,,,,,,
442296,001,2022-11-21_01h52.34.070,Info_measure_main_exp,2022.2.2,Win32,60.13952369,,,,,,,,,,,,,,,,,,masks/mask_002.jpg,,,,,,,,,,,,,,,,,,,,,,,,,,,,,,,,,,,,,,,,,,,0,0,0,1,1,,,,,,,,,,,,,,,,,,,,,,,,,,,,,,,,,,,,,,,,,,,,,,
442296,001,2022-11-21_01h52.34.070,Info_measure_main_exp,2022.2.2,Win32,60.13952369,,,,,,,,,,,,,,,,,,masks/mask_001.jpg,,,,,,,,,,,,,,,,,,,,,,,,,,,,,,,,,,,,,,,,,,,0,1,1,0,1,,,,,,,,,,,,,,,,,,,,,,,,,,,,,,,,,,,,,,,,,,,,,,
442296,001,2022-11-21_01h52.34.070,Info_measure_main_exp,2022.2.2,Win32,60.13952369,,,,,,,,,,,,,,,,,,masks/mask_003.jpg,,,,,,,,,,,,,,,,,,,,,,,,,,,,,,,,,,,,,,,,,,,0,2,2,2,1,,,,,,,,,,,,,,,,,,,,,,,,,,,,,,,,,,,,,,,,,,,,,,
442296,001,2022-11-21_01h52.34.070,Info_measure_main_exp,2022.2.2,Win32,60.13952369,,,,,,,,,,,,,,,,,,masks/mask_004.jpg,,,,,,,,,,,,,,,,,,,,,,,,,,,,,,,,,,,,,,,,,,,0,3,3,3,1,,,,,,,,,,,,,,,,,,,,,,,,,,,,,,,,,,,,,,,,,,,,,,
442296,001,2022-11-21_01h52.34.070,Info_measure_main_exp,2022.2.2,Win32,60.13952369,,,,,,,,,,,,,,,,,,masks/mask_005.jpg,,,,,,,,,,,,,,,,,,,,,,,,,,,,,,,,,,,,,,,,,,,0,4,4,4,1,,,,,,,,,,,,,,,,,,,,,,,,,,,,,,,,,,,,,,,,,,,,,,
442296,001,2022-11-21_01h52.34.070,Info_measure_main_exp,2022.2.2,Win32,60.13952369,,,,,,,,,,,,,,,,,,masks/mask_002.jpg,,,,,,,,,,,,,,,,,,,,,,,,,,,,,,,,,,,,,,,,,,,,,,,,0,0,0,1,1,,,,,,,,,,,,,,,,,,,,,,,,,,,,,,,,,,,,,,,,,
442296,001,2022-11-21_01h52.34.070,Info_measure_main_exp,2022.2.2,Win32,60.13952369,,,,,,,,,,,,,,,,,,masks/mask_001.jpg,,,,,,,,,,,,,,,,,,,,,,,,,,,,,,,,,,,,,,,,,,,,,,,,0,1,1,0,1,,,,,,,,,,,,,,,,,,,,,,,,,,,,,,,,,,,,,,,,,
442296,001,2022-11-21_01h52.34.070,Info_measure_main_exp,2022.2.2,Win32,60.13952369,,,,,,,,,,,,,,,,,,masks/mask_003.jpg,,,,,,,,,,,,,,,,,,,,,,,,,,,,,,,,,,,,,,,,,,,,,,,,0,2,2,2,1,,,,,,,,,,,,,,,,,,,,,,,,,,,,,,,,,,,,,,,,,
442296,001,2022-11-21_01h52.34.070,Info_measure_main_exp,2022.2.2,Win32,60.13952369,,,,,,,,,,,,,,,,,,masks/mask_005.jpg,,,,,,,,,,,,,,,,,,,,,,,,,,,,,,,,,,,,,,,,,,,,,,,,0,3,3,4,1,,,,,,,,,,,,,,,,,,,,,,,,,,,,,,,,,,,,,,,,,
442296,001,2022-11-21_01h52.34.070,Info_measure_main_exp,2022.2.2,Win32,60.13952369,,,,,,,,,,,,,,,,,,masks/mask_004.jpg,,,,,,,,,,,,,,,,,,,,,,,,,,,,,,,,,,,,,,,,,,,,,,,,0,4,4,3,1,,,,,,,,,,,,,,,,,,,,,,,,,,,,,,,,,,,,,,,,,
442296,001,2022-11-21_01h52.34.070,Info_measure_main_exp,2022.2.2,Win32,60.13952369,,,,,,,,,,,,,,,,,,,,,,,,,,,,,,3,2.7643,1,,,,,,,,,,,,1,131,5,5,1,2154,present_patch/cong_131_5_a.jpg,absent_patch/patch0002154.jpg,,,,,,,,,,,,,,,,,,,,-0.037037037,-0.060185185,1,0,0,response5disk,31,0.00462963,0,1,0,0,center_square,0,30,30,87,1,,,,,,,,,,,,,,,,,,,,,,,
442296,001,2022-11-21_01h52.34.070,Info_measure_main_exp,2022.2.2,Win32,60.13952369,,,,,,,,,,,,,,,,,,masks/mask_004.jpg,,,,,,,,,,,,,,,,,,,,,,,,,,,,,,,,,,,,,,,,,,,0,0,0,3,1,,,,,,,,,,,,,,,,,,,,,,,,,,,,,,,,,,,,,,,,,,,,,,
442296,001,2022-11-21_01h52.34.070,Info_measure_main_exp,2022.2.2,Win32,60.13952369,,,,,,,,,,,,,,,,,,masks/mask_003.jpg,,,,,,,,,,,,,,,,,,,,,,,,,,,,,,,,,,,,,,,,,,,0,1,1,2,1,,,,,,,,,,,,,,,,,,,,,,,,,,,,,,,,,,,,,,,,,,,,,,
442296,001,2022-11-21_01h52.34.070,Info_measure_main_exp,2022.2.2,Win32,60.13952369,,,,,,,,,,,,,,,,,,masks/mask_002.jpg,,,,,,,,,,,,,,,,,,,,,,,,,,,,,,,,,,,,,,,,,,,0,2,2,1,1,,,,,,,,,,,,,,,,,,,,,,,,,,,,,,,,,,,,,,,,,,,,,,
442296,001,2022-11-21_01h52.34.070,Info_measure_main_exp,2022.2.2,Win32,60.13952369,,,,,,,,,,,,,,,,,,masks/mask_001.jpg,,,,,,,,,,,,,,,,,,,,,,,,,,,,,,,,,,,,,,,,,,,0,3,3,0,1,,,,,,,,,,,,,,,,,,,,,,,,,,,,,,,,,,,,,,,,,,,,,,
442296,001,2022-11-21_01h52.34.070,Info_measure_main_exp,2022.2.2,Win32,60.13952369,,,,,,,,,,,,,,,,,,masks/mask_005.jpg,,,,,,,,,,,,,,,,,,,,,,,,,,,,,,,,,,,,,,,,,,,0,4,4,4,1,,,,,,,,,,,,,,,,,,,,,,,,,,,,,,,,,,,,,,,,,,,,,,
442296,001,2022-11-21_01h52.34.070,Info_measure_main_exp,2022.2.2,Win32,60.13952369,,,,,,,,,,,,,,,,,,masks/mask_002.jpg,,,,,,,,,,,,,,,,,,,,,,,,,,,,,,,,,,,,,,,,,,,,,,,,0,0,0,1,1,,,,,,,,,,,,,,,,,,,,,,,,,,,,,,,,,,,,,,,,,
442296,001,2022-11-21_01h52.34.070,Info_measure_main_exp,2022.2.2,Win32,60.13952369,,,,,,,,,,,,,,,,,,masks/mask_005.jpg,,,,,,,,,,,,,,,,,,,,,,,,,,,,,,,,,,,,,,,,,,,,,,,,0,1,1,4,1,,,,,,,,,,,,,,,,,,,,,,,,,,,,,,,,,,,,,,,,,
442296,001,2022-11-21_01h52.34.070,Info_measure_main_exp,2022.2.2,Win32,60.13952369,,,,,,,,,,,,,,,,,,masks/mask_004.jpg,,,,,,,,,,,,,,,,,,,,,,,,,,,,,,,,,,,,,,,,,,,,,,,,0,2,2,3,1,,,,,,,,,,,,,,,,,,,,,,,,,,,,,,,,,,,,,,,,,
442296,001,2022-11-21_01h52.34.070,Info_measure_main_exp,2022.2.2,Win32,60.13952369,,,,,,,,,,,,,,,,,,masks/mask_001.jpg,,,,,,,,,,,,,,,,,,,,,,,,,,,,,,,,,,,,,,,,,,,,,,,,0,3,3,0,1,,,,,,,,,,,,,,,,,,,,,,,,,,,,,,,,,,,,,,,,,
442296,001,2022-11-21_01h52.34.070,Info_measure_main_exp,2022.2.2,Win32,60.13952369,,,,,,,,,,,,,,,,,,masks/mask_003.jpg,,,,,,,,,,,,,,,,,,,,,,,,,,,,,,,,,,,,,,,,,,,,,,,,0,4,4,2,1,,,,,,,,,,,,,,,,,,,,,,,,,,,,,,,,,,,,,,,,,
442296,001,2022-11-21_01h52.34.070,Info_measure_main_exp,2022.2.2,Win32,60.13952369,,,,,,,,,,,,,,,,,,,,,,,,,,,,,,7,2.0484,1,,,,,,,,,,,,0,131,5,5,1950,2238,absent_patch/patch0001950.jpg,absent_patch/patch0002238.jpg,,,,,,,,,,,,,,,,,,,,0.014814801,0.042592578,1,0,0,response1disk,32,0.009259259,0.008333312,1,0,0,center_square,0,31,31,8,1,,,,,,,,,,,,,,,,,,,,,,,
442296,001,2022-11-21_01h52.34.070,Info_measure_main_exp,2022.2.2,Win32,60.13952369,,,,,,,,,,,,,,,,,,masks/mask_001.jpg,,,,,,,,,,,,,,,,,,,,,,,,,,,,,,,,,,,,,,,,,,,0,0,0,0,1,,,,,,,,,,,,,,,,,,,,,,,,,,,,,,,,,,,,,,,,,,,,,,
442296,001,2022-11-21_01h52.34.070,Info_measure_main_exp,2022.2.2,Win32,60.13952369,,,,,,,,,,,,,,,,,,masks/mask_004.jpg,,,,,,,,,,,,,,,,,,,,,,,,,,,,,,,,,,,,,,,,,,,0,1,1,3,1,,,,,,,,,,,,,,,,,,,,,,,,,,,,,,,,,,,,,,,,,,,,,,
442296,001,2022-11-21_01h52.34.070,Info_measure_main_exp,2022.2.2,Win32,60.13952369,,,,,,,,,,,,,,,,,,masks/mask_005.jpg,,,,,,,,,,,,,,,,,,,,,,,,,,,,,,,,,,,,,,,,,,,0,2,2,4,1,,,,,,,,,,,,,,,,,,,,,,,,,,,,,,,,,,,,,,,,,,,,,,
442296,001,2022-11-21_01h52.34.070,Info_measure_main_exp,2022.2.2,Win32,60.13952369,,,,,,,,,,,,,,,,,,masks/mask_003.jpg,,,,,,,,,,,,,,,,,,,,,,,,,,,,,,,,,,,,,,,,,,,0,3,3,2,1,,,,,,,,,,,,,,,,,,,,,,,,,,,,,,,,,,,,,,,,,,,,,,
442296,001,2022-11-21_01h52.34.070,Info_measure_main_exp,2022.2.2,Win32,60.13952369,,,,,,,,,,,,,,,,,,masks/mask_002.jpg,,,,,,,,,,,,,,,,,,,,,,,,,,,,,,,,,,,,,,,,,,,0,4,4,1,1,,,,,,,,,,,,,,,,,,,,,,,,,,,,,,,,,,,,,,,,,,,,,,
442296,001,2022-11-21_01h52.34.070,Info_measure_main_exp,2022.2.2,Win32,60.13952369,,,,,,,,,,,,,,,,,,masks/mask_002.jpg,,,,,,,,,,,,,,,,,,,,,,,,,,,,,,,,,,,,,,,,,,,,,,,,0,0,0,1,1,,,,,,,,,,,,,,,,,,,,,,,,,,,,,,,,,,,,,,,,,
442296,001,2022-11-21_01h52.34.070,Info_measure_main_exp,2022.2.2,Win32,60.13952369,,,,,,,,,,,,,,,,,,masks/mask_003.jpg,,,,,,,,,,,,,,,,,,,,,,,,,,,,,,,,,,,,,,,,,,,,,,,,0,1,1,2,1,,,,,,,,,,,,,,,,,,,,,,,,,,,,,,,,,,,,,,,,,
442296,001,2022-11-21_01h52.34.070,Info_measure_main_exp,2022.2.2,Win32,60.13952369,,,,,,,,,,,,,,,,,,masks/mask_004.jpg,,,,,,,,,,,,,,,,,,,,,,,,,,,,,,,,,,,,,,,,,,,,,,,,0,2,2,3,1,,,,,,,,,,,,,,,,,,,,,,,,,,,,,,,,,,,,,,,,,
442296,001,2022-11-21_01h52.34.070,Info_measure_main_exp,2022.2.2,Win32,60.13952369,,,,,,,,,,,,,,,,,,masks/mask_005.jpg,,,,,,,,,,,,,,,,,,,,,,,,,,,,,,,,,,,,,,,,,,,,,,,,0,3,3,4,1,,,,,,,,,,,,,,,,,,,,,,,,,,,,,,,,,,,,,,,,,
442296,001,2022-11-21_01h52.34.070,Info_measure_main_exp,2022.2.2,Win32,60.13952369,,,,,,,,,,,,,,,,,,masks/mask_001.jpg,,,,,,,,,,,,,,,,,,,,,,,,,,,,,,,,,,,,,,,,,,,,,,,,0,4,4,0,1,,,,,,,,,,,,,,,,,,,,,,,,,,,,,,,,,,,,,,,,,
442296,001,2022-11-21_01h52.34.070,Info_measure_main_exp,2022.2.2,Win32,60.13952369,,,,,,,,,,,,,,,,,,,,,,,,,,,,,,3,1.5319,1,,,,,,,,,,,,0,131,5,5,1986,2238,absent_patch/patch0001986.jpg,absent_patch/patch0002238.jpg,,,,,,,,,,,,,,,,,,,,-0.011111083,-0.037037037,1,0,0,response5disk,33,-0.002777735,0.002777771,1,0,0,center_square,0,32,32,31,1,,,,,,,,,,,,,,,,,,,,,,,
442296,001,2022-11-21_01h52.34.070,Info_measure_main_exp,2022.2.2,Win32,60.13952369,,,,,,,,,,,,,,,,,,masks/mask_005.jpg,,,,,,,,,,,,,,,,,,,,,,,,,,,,,,,,,,,,,,,,,,,0,0,0,4,1,,,,,,,,,,,,,,,,,,,,,,,,,,,,,,,,,,,,,,,,,,,,,,
442296,001,2022-11-21_01h52.34.070,Info_measure_main_exp,2022.2.2,Win32,60.13952369,,,,,,,,,,,,,,,,,,masks/mask_003.jpg,,,,,,,,,,,,,,,,,,,,,,,,,,,,,,,,,,,,,,,,,,,0,1,1,2,1,,,,,,,,,,,,,,,,,,,,,,,,,,,,,,,,,,,,,,,,,,,,,,
442296,001,2022-11-21_01h52.34.070,Info_measure_main_exp,2022.2.2,Win32,60.13952369,,,,,,,,,,,,,,,,,,masks/mask_001.jpg,,,,,,,,,,,,,,,,,,,,,,,,,,,,,,,,,,,,,,,,,,,0,2,2,0,1,,,,,,,,,,,,,,,,,,,,,,,,,,,,,,,,,,,,,,,,,,,,,,
442296,001,2022-11-21_01h52.34.070,Info_measure_main_exp,2022.2.2,Win32,60.13952369,,,,,,,,,,,,,,,,,,masks/mask_002.jpg,,,,,,,,,,,,,,,,,,,,,,,,,,,,,,,,,,,,,,,,,,,0,3,3,1,1,,,,,,,,,,,,,,,,,,,,,,,,,,,,,,,,,,,,,,,,,,,,,,
442296,001,2022-11-21_01h52.34.070,Info_measure_main_exp,2022.2.2,Win32,60.13952369,,,,,,,,,,,,,,,,,,masks/mask_004.jpg,,,,,,,,,,,,,,,,,,,,,,,,,,,,,,,,,,,,,,,,,,,0,4,4,3,1,,,,,,,,,,,,,,,,,,,,,,,,,,,,,,,,,,,,,,,,,,,,,,
442296,001,2022-11-21_01h52.34.070,Info_measure_main_exp,2022.2.2,Win32,60.13952369,,,,,,,,,,,,,,,,,,masks/mask_001.jpg,,,,,,,,,,,,,,,,,,,,,,,,,,,,,,,,,,,,,,,,,,,,,,,,0,0,0,0,1,,,,,,,,,,,,,,,,,,,,,,,,,,,,,,,,,,,,,,,,,
442296,001,2022-11-21_01h52.34.070,Info_measure_main_exp,2022.2.2,Win32,60.13952369,,,,,,,,,,,,,,,,,,masks/mask_003.jpg,,,,,,,,,,,,,,,,,,,,,,,,,,,,,,,,,,,,,,,,,,,,,,,,0,1,1,2,1,,,,,,,,,,,,,,,,,,,,,,,,,,,,,,,,,,,,,,,,,
442296,001,2022-11-21_01h52.34.070,Info_measure_main_exp,2022.2.2,Win32,60.13952369,,,,,,,,,,,,,,,,,,masks/mask_002.jpg,,,,,,,,,,,,,,,,,,,,,,,,,,,,,,,,,,,,,,,,,,,,,,,,0,2,2,1,1,,,,,,,,,,,,,,,,,,,,,,,,,,,,,,,,,,,,,,,,,
442296,001,2022-11-21_01h52.34.070,Info_measure_main_exp,2022.2.2,Win32,60.13952369,,,,,,,,,,,,,,,,,,masks/mask_005.jpg,,,,,,,,,,,,,,,,,,,,,,,,,,,,,,,,,,,,,,,,,,,,,,,,0,3,3,4,1,,,,,,,,,,,,,,,,,,,,,,,,,,,,,,,,,,,,,,,,,
442296,001,2022-11-21_01h52.34.070,Info_measure_main_exp,2022.2.2,Win32,60.13952369,,,,,,,,,,,,,,,,,,masks/mask_004.jpg,,,,,,,,,,,,,,,,,,,,,,,,,,,,,,,,,,,,,,,,,,,,,,,,0,4,4,3,1,,,,,,,,,,,,,,,,,,,,,,,,,,,,,,,,,,,,,,,,,
442296,001,2022-11-21_01h52.34.070,Info_measure_main_exp,2022.2.2,Win32,60.13952369,,,,,,,,,,,,,,,,,,,,,,,,,,,,,,7,1.8317,1,,,,,,,,,,,,0,131,5,5,2298,1986,absent_patch/patch0002298.jpg,absent_patch/patch0001986.jpg,,,,,,,,,,,,,,,,,,,,0.02870369,0.049999979,1,0,0,response1disk,34,0,0.001851859,1,0,0,center_square,0,33,33,32,1,,,,,,,,,,,,,,,,,,,,,,,
442296,001,2022-11-21_01h52.34.070,Info_measure_main_exp,2022.2.2,Win32,60.13952369,,,,,,,,,,,,,,,,,,masks/mask_004.jpg,,,,,,,,,,,,,,,,,,,,,,,,,,,,,,,,,,,,,,,,,,,0,0,0,3,1,,,,,,,,,,,,,,,,,,,,,,,,,,,,,,,,,,,,,,,,,,,,,,
442296,001,2022-11-21_01h52.34.070,Info_measure_main_exp,2022.2.2,Win32,60.13952369,,,,,,,,,,,,,,,,,,masks/mask_005.jpg,,,,,,,,,,,,,,,,,,,,,,,,,,,,,,,,,,,,,,,,,,,0,1,1,4,1,,,,,,,,,,,,,,,,,,,,,,,,,,,,,,,,,,,,,,,,,,,,,,
442296,001,2022-11-21_01h52.34.070,Info_measure_main_exp,2022.2.2,Win32,60.13952369,,,,,,,,,,,,,,,,,,masks/mask_003.jpg,,,,,,,,,,,,,,,,,,,,,,,,,,,,,,,,,,,,,,,,,,,0,2,2,2,1,,,,,,,,,,,,,,,,,,,,,,,,,,,,,,,,,,,,,,,,,,,,,,
442296,001,2022-11-21_01h52.34.070,Info_measure_main_exp,2022.2.2,Win32,60.13952369,,,,,,,,,,,,,,,,,,masks/mask_001.jpg,,,,,,,,,,,,,,,,,,,,,,,,,,,,,,,,,,,,,,,,,,,0,3,3,0,1,,,,,,,,,,,,,,,,,,,,,,,,,,,,,,,,,,,,,,,,,,,,,,
442296,001,2022-11-21_01h52.34.070,Info_measure_main_exp,2022.2.2,Win32,60.13952369,,,,,,,,,,,,,,,,,,masks/mask_002.jpg,,,,,,,,,,,,,,,,,,,,,,,,,,,,,,,,,,,,,,,,,,,0,4,4,1,1,,,,,,,,,,,,,,,,,,,,,,,,,,,,,,,,,,,,,,,,,,,,,,
442296,001,2022-11-21_01h52.34.070,Info_measure_main_exp,2022.2.2,Win32,60.13952369,,,,,,,,,,,,,,,,,,masks/mask_003.jpg,,,,,,,,,,,,,,,,,,,,,,,,,,,,,,,,,,,,,,,,,,,,,,,,0,0,0,2,1,,,,,,,,,,,,,,,,,,,,,,,,,,,,,,,,,,,,,,,,,
442296,001,2022-11-21_01h52.34.070,Info_measure_main_exp,2022.2.2,Win32,60.13952369,,,,,,,,,,,,,,,,,,masks/mask_001.jpg,,,,,,,,,,,,,,,,,,,,,,,,,,,,,,,,,,,,,,,,,,,,,,,,0,1,1,0,1,,,,,,,,,,,,,,,,,,,,,,,,,,,,,,,,,,,,,,,,,
442296,001,2022-11-21_01h52.34.070,Info_measure_main_exp,2022.2.2,Win32,60.13952369,,,,,,,,,,,,,,,,,,masks/mask_005.jpg,,,,,,,,,,,,,,,,,,,,,,,,,,,,,,,,,,,,,,,,,,,,,,,,0,2,2,4,1,,,,,,,,,,,,,,,,,,,,,,,,,,,,,,,,,,,,,,,,,
442296,001,2022-11-21_01h52.34.070,Info_measure_main_exp,2022.2.2,Win32,60.13952369,,,,,,,,,,,,,,,,,,masks/mask_002.jpg,,,,,,,,,,,,,,,,,,,,,,,,,,,,,,,,,,,,,,,,,,,,,,,,0,3,3,1,1,,,,,,,,,,,,,,,,,,,,,,,,,,,,,,,,,,,,,,,,,
