participant,session,date,expName,psychopyVersion,OS,frameRate,space_press_continue.keys,space_press_continue.rt,space_press_continue_2.keys,space_press_continue_2.rt,space_press_continue_3.keys,space_press_continue_3.rt,space_press_continue_4.keys,space_press_continue_4.rt,space_press_continue_5.keys,space_press_continue_5.rt,space_press_continue_6.keys,space_press_continue_6.rt,prac_mask_loop_1.thisRepN,prac_mask_loop_1.thisTrialN,prac_mask_loop_1.thisN,prac_mask_loop_1.thisIndex,prac_mask_loop_1.ran,mask_name,prac_mask_loop_2.thisRepN,prac_mask_loop_2.thisTrialN,prac_mask_loop_2.thisN,prac_mask_loop_2.thisIndex,prac_mask_loop_2.ran,mouse_2.x,mouse_2.y,mouse_2.leftButton,mouse_2.midButton,mouse_2.rightButton,mouse_2.clicked_name,similarity,response_time,Pass,mouse_12.x,mouse_12.y,mouse_12.leftButton,mouse_12.midButton,mouse_12.rightButton,mouse_12.clicked_name,prac_loop.thisRepN,prac_loop.thisTrialN,prac_loop.thisN,prac_loop.thisIndex,prac_loop.ran,Pair_type,Image_num,Patch_1_loc,Patch_2_loc,Patch_1_info,Patch_2_info,Patch_1_name,Patch_2_name,mouse_1.x,mouse_1.y,mouse_1.leftButton,mouse_1.midButton,mouse_1.rightButton,mouse_1.time,mouse_1.clicked_name,space_press_continue_7.keys,space_press_continue_7.rt,mask_loop.thisRepN,mask_loop.thisTrialN,mask_loop.thisN,mask_loop.thisIndex,mask_loop.ran,mask_loop_2.thisRepN,mask_loop_2.thisTrialN,mask_loop_2.thisN,mask_loop_2.thisIndex,mask_loop_2.ran,mouse.x,mouse.y,mouse.leftButton,mouse.midButton,mouse.rightButton,mouse.clicked_name,trialNumber,mouse_11.x,mouse_11.y,mouse_11.leftButton,mouse_11.midButton,mouse_11.rightButton,mouse_11.clicked_name,first_pass_loop.thisRepN,first_pass_loop.thisTrialN,first_pass_loop.thisN,first_pass_loop.thisIndex,first_pass_loop.ran,mask_loop_3.thisRepN,mask_loop_3.thisTrialN,mask_loop_3.thisN,mask_loop_3.thisIndex,mask_loop_3.ran,mask_loop_4.thisRepN,mask_loop_4.thisTrialN,mask_loop_4.thisN,mask_loop_4.thisIndex,mask_loop_4.ran,mouse_3.x,mouse_3.y,mouse_3.leftButton,mouse_3.midButton,mouse_3.rightButton,mouse_3.clicked_name,double_pass_loop.thisRepN,double_pass_loop.thisTrialN,double_pass_loop.thisN,double_pass_loop.thisIndex,double_pass_loop.ran,space_exit.keys,space_exit.rt
446892,001,2022-11-20_17h50.02.711,Info_measure_main_exp,2022.2.2,MacIntel,60.0024001,,,,,,,,,,,,,,,,,,,,,,,,,,,,,,,,,,,,,,,,,,,,,,,,,,,,,,,,,,,,,,,,,,,,,,,,,,,,,,,,,,,,,,,,,,,,,,,,,,,,,,,,,,,,,,,
446892,001,2022-11-20_17h50.02.711,Info_measure_main_exp,2022.2.2,MacIntel,60.0024001,,,,,,,,,,,,,,,,,,,,,,,,,,,,,,,,,,,,,,,,,,,,,,,,,,,,,,,,,,,,,,,,,,,,,,,,,,,,,,,,,,,,,,,,,,,,,,,,,,,,,,,,,,,,,,,
446892,001,2022-11-20_17h50.02.711,Info_measure_main_exp,2022.2.2,MacIntel,60.0024001,space,8.1414,,,,,,,,,,,,,,,,,,,,,,,,,,,,,,,,,,,,,,,,,,,,,,,,,,,,,,,,,,,,,,,,,,,,,,,,,,,,,,,,,,,,,,,,,,,,,,,,,,,,,,,,,,,,,
446892,001,2022-11-20_17h50.02.711,Info_measure_main_exp,2022.2.2,MacIntel,60.0024001,,,space,15.4225,,,,,,,,,,,,,,,,,,,,,,,,,,,,,,,,,,,,,,,,,,,,,,,,,,,,,,,,,,,,,,,,,,,,,,,,,,,,,,,,,,,,,,,,,,,,,,,,,,,,,,,,,,,
446892,001,2022-11-20_17h50.02.711,Info_measure_main_exp,2022.2.2,MacIntel,60.0024001,,,,,space,13.0824,,,,,,,,,,,,,,,,,,,,,,,,,,,,,,,,,,,,,,,,,,,,,,,,,,,,,,,,,,,,,,,,,,,,,,,,,,,,,,,,,,,,,,,,,,,,,,,,,,,,,,,,,
446892,001,2022-11-20_17h50.02.711,Info_measure_main_exp,2022.2.2,MacIntel,60.0024001,,,,,,,space,28.3906,,,,,,,,,,,,,,,,,,,,,,,,,,,,,,,,,,,,,,,,,,,,,,,,,,,,,,,,,,,,,,,,,,,,,,,,,,,,,,,,,,,,,,,,,,,,,,,,,,,,,,,
446892,001,2022-11-20_17h50.02.711,Info_measure_main_exp,2022.2.2,MacIntel,60.0024001,,,,,,,,,space,8.6941,,,,,,,,,,,,,,,,,,,,,,,,,,,,,,,,,,,,,,,,,,,,,,,,,,,,,,,,,,,,,,,,,,,,,,,,,,,,,,,,,,,,,,,,,,,,,,,,,,,,,
446892,001,2022-11-20_17h50.02.711,Info_measure_main_exp,2022.2.2,MacIntel,60.0024001,,,,,,,,,,,space,5.4987,,,,,,,,,,,,,,,,,,,,,,,,,,,,,,,,,,,,,,,,,,,,,,,,,,,,,,,,,,,,,,,,,,,,,,,,,,,,,,,,,,,,,,,,,,,,,,,,,,,
446892,001,2022-11-20_17h50.02.711,Info_measure_main_exp,2022.2.2,MacIntel,60.0024001,,,,,,,,,,,,,0,0,0,2,1,masks/mask_003.jpg,,,,,,,,,,,,,,,,,,,,,,,,,,,,,,,,,,,,,,,,,,,,,,,,,,,,,,,,,,,,,,,,,,,,,,,,,,,,,,,,,,,,,,,,,,,,,
446892,001,2022-11-20_17h50.02.711,Info_measure_main_exp,2022.2.2,MacIntel,60.0024001,,,,,,,,,,,,,0,1,1,1,1,masks/mask_002.jpg,,,,,,,,,,,,,,,,,,,,,,,,,,,,,,,,,,,,,,,,,,,,,,,,,,,,,,,,,,,,,,,,,,,,,,,,,,,,,,,,,,,,,,,,,,,,,
446892,001,2022-11-20_17h50.02.711,Info_measure_main_exp,2022.2.2,MacIntel,60.0024001,,,,,,,,,,,,,0,2,2,3,1,masks/mask_004.jpg,,,,,,,,,,,,,,,,,,,,,,,,,,,,,,,,,,,,,,,,,,,,,,,,,,,,,,,,,,,,,,,,,,,,,,,,,,,,,,,,,,,,,,,,,,,,,
446892,001,2022-11-20_17h50.02.711,Info_measure_main_exp,2022.2.2,MacIntel,60.0024001,,,,,,,,,,,,,0,3,3,4,1,masks/mask_005.jpg,,,,,,,,,,,,,,,,,,,,,,,,,,,,,,,,,,,,,,,,,,,,,,,,,,,,,,,,,,,,,,,,,,,,,,,,,,,,,,,,,,,,,,,,,,,,,
446892,001,2022-11-20_17h50.02.711,Info_measure_main_exp,2022.2.2,MacIntel,60.0024001,,,,,,,,,,,,,0,4,4,0,1,masks/mask_001.jpg,,,,,,,,,,,,,,,,,,,,,,,,,,,,,,,,,,,,,,,,,,,,,,,,,,,,,,,,,,,,,,,,,,,,,,,,,,,,,,,,,,,,,,,,,,,,,
446892,001,2022-11-20_17h50.02.711,Info_measure_main_exp,2022.2.2,MacIntel,60.0024001,,,,,,,,,,,,,,,,,,masks/mask_001.jpg,0,0,0,0,1,,,,,,,,,,,,,,,,,,,,,,,,,,,,,,,,,,,,,,,,,,,,,,,,,,,,,,,,,,,,,,,,,,,,,,,,,,,,,,,,,,,,,,,,
446892,001,2022-11-20_17h50.02.711,Info_measure_main_exp,2022.2.2,MacIntel,60.0024001,,,,,,,,,,,,,,,,,,masks/mask_002.jpg,0,1,1,1,1,,,,,,,,,,,,,,,,,,,,,,,,,,,,,,,,,,,,,,,,,,,,,,,,,,,,,,,,,,,,,,,,,,,,,,,,,,,,,,,,,,,,,,,,
446892,001,2022-11-20_17h50.02.711,Info_measure_main_exp,2022.2.2,MacIntel,60.0024001,,,,,,,,,,,,,,,,,,masks/mask_005.jpg,0,2,2,4,1,,,,,,,,,,,,,,,,,,,,,,,,,,,,,,,,,,,,,,,,,,,,,,,,,,,,,,,,,,,,,,,,,,,,,,,,,,,,,,,,,,,,,,,,
446892,001,2022-11-20_17h50.02.711,Info_measure_main_exp,2022.2.2,MacIntel,60.0024001,,,,,,,,,,,,,,,,,,masks/mask_004.jpg,0,3,3,3,1,,,,,,,,,,,,,,,,,,,,,,,,,,,,,,,,,,,,,,,,,,,,,,,,,,,,,,,,,,,,,,,,,,,,,,,,,,,,,,,,,,,,,,,,
446892,001,2022-11-20_17h50.02.711,Info_measure_main_exp,2022.2.2,MacIntel,60.0024001,,,,,,,,,,,,,,,,,,masks/mask_003.jpg,0,4,4,2,1,,,,,,,,,,,,,,,,,,,,,,,,,,,,,,,,,,,,,,,,,,,,,,,,,,,,,,,,,,,,,,,,,,,,,,,,,,,,,,,,,,,,,,,,
446892,001,2022-11-20_17h50.02.711,Info_measure_main_exp,2022.2.2,MacIntel,60.0024001,,,,,,,,,,,,,,,,,,,,,,,,-0.041306424,0.0759375,1,0,0,response7disk,0,84.5802,1,0.006684028,-0.001263021,1,0,0,center_square,0,0,0,2,1,0,131,5,5,2526,2526,prac_patch/patch0002526.jpg,prac_patch/patch0002526.jpg,,,,,,,,,,,,,,,,,,,,,,,,,,,,,,,,,,,,,,,,,,,,,,,,,,,,,,,,,,,,
446892,001,2022-11-20_17h50.02.711,Info_measure_main_exp,2022.2.2,MacIntel,60.0024001,,,,,,,,,,,,,0,0,0,0,1,masks/mask_001.jpg,,,,,,,,,,,,,,,,,,,,,,,,,,,,,,,,,,,,,,,,,,,,,,,,,,,,,,,,,,,,,,,,,,,,,,,,,,,,,,,,,,,,,,,,,,,,,
446892,001,2022-11-20_17h50.02.711,Info_measure_main_exp,2022.2.2,MacIntel,60.0024001,,,,,,,,,,,,,0,1,1,2,1,masks/mask_003.jpg,,,,,,,,,,,,,,,,,,,,,,,,,,,,,,,,,,,,,,,,,,,,,,,,,,,,,,,,,,,,,,,,,,,,,,,,,,,,,,,,,,,,,,,,,,,,,
446892,001,2022-11-20_17h50.02.711,Info_measure_main_exp,2022.2.2,MacIntel,60.0024001,,,,,,,,,,,,,0,2,2,3,1,masks/mask_004.jpg,,,,,,,,,,,,,,,,,,,,,,,,,,,,,,,,,,,,,,,,,,,,,,,,,,,,,,,,,,,,,,,,,,,,,,,,,,,,,,,,,,,,,,,,,,,,,
446892,001,2022-11-20_17h50.02.711,Info_measure_main_exp,2022.2.2,MacIntel,60.0024001,,,,,,,,,,,,,0,3,3,4,1,masks/mask_005.jpg,,,,,,,,,,,,,,,,,,,,,,,,,,,,,,,,,,,,,,,,,,,,,,,,,,,,,,,,,,,,,,,,,,,,,,,,,,,,,,,,,,,,,,,,,,,,,
446892,001,2022-11-20_17h50.02.711,Info_measure_main_exp,2022.2.2,MacIntel,60.0024001,,,,,,,,,,,,,0,4,4,1,1,masks/mask_002.jpg,,,,,,,,,,,,,,,,,,,,,,,,,,,,,,,,,,,,,,,,,,,,,,,,,,,,,,,,,,,,,,,,,,,,,,,,,,,,,,,,,,,,,,,,,,,,,
446892,001,2022-11-20_17h50.02.711,Info_measure_main_exp,2022.2.2,MacIntel,60.0024001,,,,,,,,,,,,,,,,,,masks/mask_001.jpg,0,0,0,0,1,,,,,,,,,,,,,,,,,,,,,,,,,,,,,,,,,,,,,,,,,,,,,,,,,,,,,,,,,,,,,,,,,,,,,,,,,,,,,,,,,,,,,,,,
446892,001,2022-11-20_17h50.02.711,Info_measure_main_exp,2022.2.2,MacIntel,60.0024001,,,,,,,,,,,,,,,,,,masks/mask_004.jpg,0,1,1,3,1,,,,,,,,,,,,,,,,,,,,,,,,,,,,,,,,,,,,,,,,,,,,,,,,,,,,,,,,,,,,,,,,,,,,,,,,,,,,,,,,,,,,,,,,
446892,001,2022-11-20_17h50.02.711,Info_measure_main_exp,2022.2.2,MacIntel,60.0024001,,,,,,,,,,,,,,,,,,masks/mask_002.jpg,0,2,2,1,1,,,,,,,,,,,,,,,,,,,,,,,,,,,,,,,,,,,,,,,,,,,,,,,,,,,,,,,,,,,,,,,,,,,,,,,,,,,,,,,,,,,,,,,,
446892,001,2022-11-20_17h50.02.711,Info_measure_main_exp,2022.2.2,MacIntel,60.0024001,,,,,,,,,,,,,,,,,,masks/mask_005.jpg,0,3,3,4,1,,,,,,,,,,,,,,,,,,,,,,,,,,,,,,,,,,,,,,,,,,,,,,,,,,,,,,,,,,,,,,,,,,,,,,,,,,,,,,,,,,,,,,,,
446892,001,2022-11-20_17h50.02.711,Info_measure_main_exp,2022.2.2,MacIntel,60.0024001,,,,,,,,,,,,,,,,,,masks/mask_003.jpg,0,4,4,2,1,,,,,,,,,,,,,,,,,,,,,,,,,,,,,,,,,,,,,,,,,,,,,,,,,,,,,,,,,,,,,,,,,,,,,,,,,,,,,,,,,,,,,,,,
446892,001,2022-11-20_17h50.02.711,Info_measure_main_exp,2022.2.2,MacIntel,60.0024001,,,,,,,,,,,,,,,,,,,,,,,,0.078246528,0.156488715,1,0,0,response1disk,7,94.0456,1,0.001289063,0.004249132,1,0,0,center_square,0,1,1,0,1,0,131,5,5,2370,2406,prac_patch/patch0002370.jpg,prac_patch/patch0002406.jpg,,,,,,,,,,,,,,,,,,,,,,,,,,,,,,,,,,,,,,,,,,,,,,,,,,,,,,,,,,,,
446892,001,2022-11-20_17h50.02.711,Info_measure_main_exp,2022.2.2,MacIntel,60.0024001,,,,,,,,,,,,,0,0,0,3,1,masks/mask_004.jpg,,,,,,,,,,,,,,,,,,,,,,,,,,,,,,,,,,,,,,,,,,,,,,,,,,,,,,,,,,,,,,,,,,,,,,,,,,,,,,,,,,,,,,,,,,,,,
446892,001,2022-11-20_17h50.02.711,Info_measure_main_exp,2022.2.2,MacIntel,60.0024001,,,,,,,,,,,,,0,1,1,1,1,masks/mask_002.jpg,,,,,,,,,,,,,,,,,,,,,,,,,,,,,,,,,,,,,,,,,,,,,,,,,,,,,,,,,,,,,,,,,,,,,,,,,,,,,,,,,,,,,,,,,,,,,
446892,001,2022-11-20_17h50.02.711,Info_measure_main_exp,2022.2.2,MacIntel,60.0024001,,,,,,,,,,,,,0,2,2,4,1,masks/mask_005.jpg,,,,,,,,,,,,,,,,,,,,,,,,,,,,,,,,,,,,,,,,,,,,,,,,,,,,,,,,,,,,,,,,,,,,,,,,,,,,,,,,,,,,,,,,,,,,,
446892,001,2022-11-20_17h50.02.711,Info_measure_main_exp,2022.2.2,MacIntel,60.0024001,,,,,,,,,,,,,0,3,3,0,1,masks/mask_001.jpg,,,,,,,,,,,,,,,,,,,,,,,,,,,,,,,,,,,,,,,,,,,,,,,,,,,,,,,,,,,,,,,,,,,,,,,,,,,,,,,,,,,,,,,,,,,,,
446892,001,2022-11-20_17h50.02.711,Info_measure_main_exp,2022.2.2,MacIntel,60.0024001,,,,,,,,,,,,,0,4,4,2,1,masks/mask_003.jpg,,,,,,,,,,,,,,,,,,,,,,,,,,,,,,,,,,,,,,,,,,,,,,,,,,,,,,,,,,,,,,,,,,,,,,,,,,,,,,,,,,,,,,,,,,,,,
446892,001,2022-11-20_17h50.02.711,Info_measure_main_exp,2022.2.2,MacIntel,60.0024001,,,,,,,,,,,,,,,,,,masks/mask_002.jpg,0,0,0,1,1,,,,,,,,,,,,,,,,,,,,,,,,,,,,,,,,,,,,,,,,,,,,,,,,,,,,,,,,,,,,,,,,,,,,,,,,,,,,,,,,,,,,,,,,
446892,001,2022-11-20_17h50.02.711,Info_measure_main_exp,2022.2.2,MacIntel,60.0024001,,,,,,,,,,,,,,,,,,masks/mask_005.jpg,0,1,1,4,1,,,,,,,,,,,,,,,,,,,,,,,,,,,,,,,,,,,,,,,,,,,,,,,,,,,,,,,,,,,,,,,,,,,,,,,,,,,,,,,,,,,,,,,,
446892,001,2022-11-20_17h50.02.711,Info_measure_main_exp,2022.2.2,MacIntel,60.0024001,,,,,,,,,,,,,,,,,,masks/mask_003.jpg,0,2,2,2,1,,,,,,,,,,,,,,,,,,,,,,,,,,,,,,,,,,,,,,,,,,,,,,,,,,,,,,,,,,,,,,,,,,,,,,,,,,,,,,,,,,,,,,,,
446892,001,2022-11-20_17h50.02.711,Info_measure_main_exp,2022.2.2,MacIntel,60.0024001,,,,,,,,,,,,,,,,,,masks/mask_001.jpg,0,3,3,0,1,,,,,,,,,,,,,,,,,,,,,,,,,,,,,,,,,,,,,,,,,,,,,,,,,,,,,,,,,,,,,,,,,,,,,,,,,,,,,,,,,,,,,,,,
446892,001,2022-11-20_17h50.02.711,Info_measure_main_exp,2022.2.2,MacIntel,60.0024001,,,,,,,,,,,,,,,,,,masks/mask_004.jpg,0,4,4,3,1,,,,,,,,,,,,,,,,,,,,,,,,,,,,,,,,,,,,,,,,,,,,,,,,,,,,,,,,,,,,,,,,,,,,,,,,,,,,,,,,,,,,,,,,
446892,001,2022-11-20_17h50.02.711,Info_measure_main_exp,2022.2.2,MacIntel,60.0024001,,,,,,,,,,,,,,,,,,,,,,,,-0.146154514,0.039882813,1,0,0,response7disk,1,102.9473,1,0.005169271,0.002899306,1,0,0,center_square,0,2,2,1,1,0,131,5,5,2514,2490,prac_patch/patch0002514.jpg,prac_patch/patch0002490.jpg,,,,,,,,,,,,,,,,,,,,,,,,,,,,,,,,,,,,,,,,,,,,,,,,,,,,,,,,,,,,
446892,001,2022-11-20_17h50.02.711,Info_measure_main_exp,2022.2.2,MacIntel,60.0024001,,,,,,,,,,,,,,,,,,,,,,,,,,,,,,,,,,,,,,,,,,,,,,,,,,,,,,,,,,,space,2.118,,,,,,,,,,,,,,,,,,,,,,,,,,,,,,,,,,,,,,,,,,,,,,,,,,,
446892,001,2022-11-20_17h50.02.711,Info_measure_main_exp,2022.2.2,MacIntel,60.0024001,,,,,,,,,,,,,,,,,,masks/mask_002.jpg,,,,,,,,,,,,,,,,,,,,,,,,,,,,,,,,,,,,,,,,,,,0,0,0,1,1,,,,,,,,,,,,,,,,,,,,,,,,,,,,,,,,,,,,,,,,,,,,,,
446892,001,2022-11-20_17h50.02.711,Info_measure_main_exp,2022.2.2,MacIntel,60.0024001,,,,,,,,,,,,,,,,,,masks/mask_005.jpg,,,,,,,,,,,,,,,,,,,,,,,,,,,,,,,,,,,,,,,,,,,0,1,1,4,1,,,,,,,,,,,,,,,,,,,,,,,,,,,,,,,,,,,,,,,,,,,,,,
446892,001,2022-11-20_17h50.02.711,Info_measure_main_exp,2022.2.2,MacIntel,60.0024001,,,,,,,,,,,,,,,,,,masks/mask_003.jpg,,,,,,,,,,,,,,,,,,,,,,,,,,,,,,,,,,,,,,,,,,,0,2,2,2,1,,,,,,,,,,,,,,,,,,,,,,,,,,,,,,,,,,,,,,,,,,,,,,
446892,001,2022-11-20_17h50.02.711,Info_measure_main_exp,2022.2.2,MacIntel,60.0024001,,,,,,,,,,,,,,,,,,masks/mask_004.jpg,,,,,,,,,,,,,,,,,,,,,,,,,,,,,,,,,,,,,,,,,,,0,3,3,3,1,,,,,,,,,,,,,,,,,,,,,,,,,,,,,,,,,,,,,,,,,,,,,,
446892,001,2022-11-20_17h50.02.711,Info_measure_main_exp,2022.2.2,MacIntel,60.0024001,,,,,,,,,,,,,,,,,,masks/mask_001.jpg,,,,,,,,,,,,,,,,,,,,,,,,,,,,,,,,,,,,,,,,,,,0,4,4,0,1,,,,,,,,,,,,,,,,,,,,,,,,,,,,,,,,,,,,,,,,,,,,,,
446892,001,2022-11-20_17h50.02.711,Info_measure_main_exp,2022.2.2,MacIntel,60.0024001,,,,,,,,,,,,,,,,,,masks/mask_002.jpg,,,,,,,,,,,,,,,,,,,,,,,,,,,,,,,,,,,,,,,,,,,,,,,,0,0,0,1,1,,,,,,,,,,,,,,,,,,,,,,,,,,,,,,,,,,,,,,,,,
446892,001,2022-11-20_17h50.02.711,Info_measure_main_exp,2022.2.2,MacIntel,60.0024001,,,,,,,,,,,,,,,,,,masks/mask_005.jpg,,,,,,,,,,,,,,,,,,,,,,,,,,,,,,,,,,,,,,,,,,,,,,,,0,1,1,4,1,,,,,,,,,,,,,,,,,,,,,,,,,,,,,,,,,,,,,,,,,
446892,001,2022-11-20_17h50.02.711,Info_measure_main_exp,2022.2.2,MacIntel,60.0024001,,,,,,,,,,,,,,,,,,masks/mask_003.jpg,,,,,,,,,,,,,,,,,,,,,,,,,,,,,,,,,,,,,,,,,,,,,,,,0,2,2,2,1,,,,,,,,,,,,,,,,,,,,,,,,,,,,,,,,,,,,,,,,,
446892,001,2022-11-20_17h50.02.711,Info_measure_main_exp,2022.2.2,MacIntel,60.0024001,,,,,,,,,,,,,,,,,,masks/mask_001.jpg,,,,,,,,,,,,,,,,,,,,,,,,,,,,,,,,,,,,,,,,,,,,,,,,0,3,3,0,1,,,,,,,,,,,,,,,,,,,,,,,,,,,,,,,,,,,,,,,,,
446892,001,2022-11-20_17h50.02.711,Info_measure_main_exp,2022.2.2,MacIntel,60.0024001,,,,,,,,,,,,,,,,,,masks/mask_004.jpg,,,,,,,,,,,,,,,,,,,,,,,,,,,,,,,,,,,,,,,,,,,,,,,,0,4,4,3,1,,,,,,,,,,,,,,,,,,,,,,,,,,,,,,,,,,,,,,,,,
446892,001,2022-11-20_17h50.02.711,Info_measure_main_exp,2022.2.2,MacIntel,60.0024001,,,,,,,,,,,,,,,,,,,,,,,,,,,,,,1,1.9328,1,,,,,,,,,,,,0,131,5,5,1974,1950,absent_patch/patch0001974.jpg,absent_patch/patch0001950.jpg,,,,,,,,,,,,,,,,,,,,-0.097760417,0.049592014,1,0,0,response7disk,1,-0.000768229,-0.000889757,1,0,0,center_square,0,0,0,17,1,,,,,,,,,,,,,,,,,,,,,,,
446892,001,2022-11-20_17h50.02.711,Info_measure_main_exp,2022.2.2,MacIntel,60.0024001,,,,,,,,,,,,,,,,,,masks/mask_001.jpg,,,,,,,,,,,,,,,,,,,,,,,,,,,,,,,,,,,,,,,,,,,0,0,0,0,1,,,,,,,,,,,,,,,,,,,,,,,,,,,,,,,,,,,,,,,,,,,,,,
446892,001,2022-11-20_17h50.02.711,Info_measure_main_exp,2022.2.2,MacIntel,60.0024001,,,,,,,,,,,,,,,,,,masks/mask_002.jpg,,,,,,,,,,,,,,,,,,,,,,,,,,,,,,,,,,,,,,,,,,,0,1,1,1,1,,,,,,,,,,,,,,,,,,,,,,,,,,,,,,,,,,,,,,,,,,,,,,
446892,001,2022-11-20_17h50.02.711,Info_measure_main_exp,2022.2.2,MacIntel,60.0024001,,,,,,,,,,,,,,,,,,masks/mask_004.jpg,,,,,,,,,,,,,,,,,,,,,,,,,,,,,,,,,,,,,,,,,,,0,2,2,3,1,,,,,,,,,,,,,,,,,,,,,,,,,,,,,,,,,,,,,,,,,,,,,,
446892,001,2022-11-20_17h50.02.711,Info_measure_main_exp,2022.2.2,MacIntel,60.0024001,,,,,,,,,,,,,,,,,,masks/mask_005.jpg,,,,,,,,,,,,,,,,,,,,,,,,,,,,,,,,,,,,,,,,,,,0,3,3,4,1,,,,,,,,,,,,,,,,,,,,,,,,,,,,,,,,,,,,,,,,,,,,,,
446892,001,2022-11-20_17h50.02.711,Info_measure_main_exp,2022.2.2,MacIntel,60.0024001,,,,,,,,,,,,,,,,,,masks/mask_003.jpg,,,,,,,,,,,,,,,,,,,,,,,,,,,,,,,,,,,,,,,,,,,0,4,4,2,1,,,,,,,,,,,,,,,,,,,,,,,,,,,,,,,,,,,,,,,,,,,,,,
446892,001,2022-11-20_17h50.02.711,Info_measure_main_exp,2022.2.2,MacIntel,60.0024001,,,,,,,,,,,,,,,,,,masks/mask_002.jpg,,,,,,,,,,,,,,,,,,,,,,,,,,,,,,,,,,,,,,,,,,,,,,,,0,0,0,1,1,,,,,,,,,,,,,,,,,,,,,,,,,,,,,,,,,,,,,,,,,
446892,001,2022-11-20_17h50.02.711,Info_measure_main_exp,2022.2.2,MacIntel,60.0024001,,,,,,,,,,,,,,,,,,masks/mask_003.jpg,,,,,,,,,,,,,,,,,,,,,,,,,,,,,,,,,,,,,,,,,,,,,,,,0,1,1,2,1,,,,,,,,,,,,,,,,,,,,,,,,,,,,,,,,,,,,,,,,,
446892,001,2022-11-20_17h50.02.711,Info_measure_main_exp,2022.2.2,MacIntel,60.0024001,,,,,,,,,,,,,,,,,,masks/mask_005.jpg,,,,,,,,,,,,,,,,,,,,,,,,,,,,,,,,,,,,,,,,,,,,,,,,0,2,2,4,1,,,,,,,,,,,,,,,,,,,,,,,,,,,,,,,,,,,,,,,,,
446892,001,2022-11-20_17h50.02.711,Info_measure_main_exp,2022.2.2,MacIntel,60.0024001,,,,,,,,,,,,,,,,,,masks/mask_001.jpg,,,,,,,,,,,,,,,,,,,,,,,,,,,,,,,,,,,,,,,,,,,,,,,,0,3,3,0,1,,,,,,,,,,,,,,,,,,,,,,,,,,,,,,,,,,,,,,,,,
446892,001,2022-11-20_17h50.02.711,Info_measure_main_exp,2022.2.2,MacIntel,60.0024001,,,,,,,,,,,,,,,,,,masks/mask_004.jpg,,,,,,,,,,,,,,,,,,,,,,,,,,,,,,,,,,,,,,,,,,,,,,,,0,4,4,3,1,,,,,,,,,,,,,,,,,,,,,,,,,,,,,,,,,,,,,,,,,
446892,001,2022-11-20_17h50.02.711,Info_measure_main_exp,2022.2.2,MacIntel,60.0024001,,,,,,,,,,,,,,,,,,,,,,,,,,,,,,5,1.4672,1,,,,,,,,,,,,1,131,5,5,2190,1,absent_patch/patch0002190.jpg,present_patch/cong_131_5_a.jpg,,,,,,,,,,,,,,,,,,,,0.126241319,-0.065355903,1,0,0,response3disk,2,0.000182292,-0.003806424,1,0,0,center_square,0,1,1,64,1,,,,,,,,,,,,,,,,,,,,,,,
446892,001,2022-11-20_17h50.02.711,Info_measure_main_exp,2022.2.2,MacIntel,60.0024001,,,,,,,,,,,,,,,,,,masks/mask_005.jpg,,,,,,,,,,,,,,,,,,,,,,,,,,,,,,,,,,,,,,,,,,,0,0,0,4,1,,,,,,,,,,,,,,,,,,,,,,,,,,,,,,,,,,,,,,,,,,,,,,
446892,001,2022-11-20_17h50.02.711,Info_measure_main_exp,2022.2.2,MacIntel,60.0024001,,,,,,,,,,,,,,,,,,masks/mask_004.jpg,,,,,,,,,,,,,,,,,,,,,,,,,,,,,,,,,,,,,,,,,,,0,1,1,3,1,,,,,,,,,,,,,,,,,,,,,,,,,,,,,,,,,,,,,,,,,,,,,,
446892,001,2022-11-20_17h50.02.711,Info_measure_main_exp,2022.2.2,MacIntel,60.0024001,,,,,,,,,,,,,,,,,,masks/mask_003.jpg,,,,,,,,,,,,,,,,,,,,,,,,,,,,,,,,,,,,,,,,,,,0,2,2,2,1,,,,,,,,,,,,,,,,,,,,,,,,,,,,,,,,,,,,,,,,,,,,,,
446892,001,2022-11-20_17h50.02.711,Info_measure_main_exp,2022.2.2,MacIntel,60.0024001,,,,,,,,,,,,,,,,,,masks/mask_002.jpg,,,,,,,,,,,,,,,,,,,,,,,,,,,,,,,,,,,,,,,,,,,0,3,3,1,1,,,,,,,,,,,,,,,,,,,,,,,,,,,,,,,,,,,,,,,,,,,,,,
446892,001,2022-11-20_17h50.02.711,Info_measure_main_exp,2022.2.2,MacIntel,60.0024001,,,,,,,,,,,,,,,,,,masks/mask_001.jpg,,,,,,,,,,,,,,,,,,,,,,,,,,,,,,,,,,,,,,,,,,,0,4,4,0,1,,,,,,,,,,,,,,,,,,,,,,,,,,,,,,,,,,,,,,,,,,,,,,
446892,001,2022-11-20_17h50.02.711,Info_measure_main_exp,2022.2.2,MacIntel,60.0024001,,,,,,,,,,,,,,,,,,masks/mask_003.jpg,,,,,,,,,,,,,,,,,,,,,,,,,,,,,,,,,,,,,,,,,,,,,,,,0,0,0,2,1,,,,,,,,,,,,,,,,,,,,,,,,,,,,,,,,,,,,,,,,,
446892,001,2022-11-20_17h50.02.711,Info_measure_main_exp,2022.2.2,MacIntel,60.0024001,,,,,,,,,,,,,,,,,,masks/mask_004.jpg,,,,,,,,,,,,,,,,,,,,,,,,,,,,,,,,,,,,,,,,,,,,,,,,0,1,1,3,1,,,,,,,,,,,,,,,,,,,,,,,,,,,,,,,,,,,,,,,,,
446892,001,2022-11-20_17h50.02.711,Info_measure_main_exp,2022.2.2,MacIntel,60.0024001,,,,,,,,,,,,,,,,,,masks/mask_002.jpg,,,,,,,,,,,,,,,,,,,,,,,,,,,,,,,,,,,,,,,,,,,,,,,,0,2,2,1,1,,,,,,,,,,,,,,,,,,,,,,,,,,,,,,,,,,,,,,,,,
446892,001,2022-11-20_17h50.02.711,Info_measure_main_exp,2022.2.2,MacIntel,60.0024001,,,,,,,,,,,,,,,,,,masks/mask_005.jpg,,,,,,,,,,,,,,,,,,,,,,,,,,,,,,,,,,,,,,,,,,,,,,,,0,3,3,4,1,,,,,,,,,,,,,,,,,,,,,,,,,,,,,,,,,,,,,,,,,
446892,001,2022-11-20_17h50.02.711,Info_measure_main_exp,2022.2.2,MacIntel,60.0024001,,,,,,,,,,,,,,,,,,masks/mask_001.jpg,,,,,,,,,,,,,,,,,,,,,,,,,,,,,,,,,,,,,,,,,,,,,,,,0,4,4,0,1,,,,,,,,,,,,,,,,,,,,,,,,,,,,,,,,,,,,,,,,,
446892,001,2022-11-20_17h50.02.711,Info_measure_main_exp,2022.2.2,MacIntel,60.0024001,,,,,,,,,,,,,,,,,,,,,,,,,,,,,,6,27.535,1,,,,,,,,,,,,0,131,5,5,1974,2238,absent_patch/patch0001974.jpg,absent_patch/patch0002238.jpg,,,,,,,,,,,,,,,,,,,,0.154205284,0.020249129,1,0,1,response1disk,3,0.00234177,-0.004827115,1,0,1,center_square,0,2,2,95,1,,,,,,,,,,,,,,,,,,,,,,,
446892,001,2022-11-20_17h50.02.711,Info_measure_main_exp,2022.2.2,MacIntel,60.0024001,,,,,,,,,,,,,,,,,,masks/mask_003.jpg,,,,,,,,,,,,,,,,,,,,,,,,,,,,,,,,,,,,,,,,,,,0,0,0,2,1,,,,,,,,,,,,,,,,,,,,,,,,,,,,,,,,,,,,,,,,,,,,,,
446892,001,2022-11-20_17h50.02.711,Info_measure_main_exp,2022.2.2,MacIntel,60.0024001,,,,,,,,,,,,,,,,,,masks/mask_005.jpg,,,,,,,,,,,,,,,,,,,,,,,,,,,,,,,,,,,,,,,,,,,0,1,1,4,1,,,,,,,,,,,,,,,,,,,,,,,,,,,,,,,,,,,,,,,,,,,,,,
446892,001,2022-11-20_17h50.02.711,Info_measure_main_exp,2022.2.2,MacIntel,60.0024001,,,,,,,,,,,,,,,,,,masks/mask_004.jpg,,,,,,,,,,,,,,,,,,,,,,,,,,,,,,,,,,,,,,,,,,,0,2,2,3,1,,,,,,,,,,,,,,,,,,,,,,,,,,,,,,,,,,,,,,,,,,,,,,
446892,001,2022-11-20_17h50.02.711,Info_measure_main_exp,2022.2.2,MacIntel,60.0024001,,,,,,,,,,,,,,,,,,masks/mask_002.jpg,,,,,,,,,,,,,,,,,,,,,,,,,,,,,,,,,,,,,,,,,,,0,3,3,1,1,,,,,,,,,,,,,,,,,,,,,,,,,,,,,,,,,,,,,,,,,,,,,,
446892,001,2022-11-20_17h50.02.711,Info_measure_main_exp,2022.2.2,MacIntel,60.0024001,,,,,,,,,,,,,,,,,,masks/mask_001.jpg,,,,,,,,,,,,,,,,,,,,,,,,,,,,,,,,,,,,,,,,,,,0,4,4,0,1,,,,,,,,,,,,,,,,,,,,,,,,,,,,,,,,,,,,,,,,,,,,,,
446892,001,2022-11-20_17h50.02.711,Info_measure_main_exp,2022.2.2,MacIntel,60.0024001,,,,,,,,,,,,,,,,,,masks/mask_003.jpg,,,,,,,,,,,,,,,,,,,,,,,,,,,,,,,,,,,,,,,,,,,,,,,,0,0,0,2,1,,,,,,,,,,,,,,,,,,,,,,,,,,,,,,,,,,,,,,,,,
446892,001,2022-11-20_17h50.02.711,Info_measure_main_exp,2022.2.2,MacIntel,60.0024001,,,,,,,,,,,,,,,,,,masks/mask_001.jpg,,,,,,,,,,,,,,,,,,,,,,,,,,,,,,,,,,,,,,,,,,,,,,,,0,1,1,0,1,,,,,,,,,,,,,,,,,,,,,,,,,,,,,,,,,,,,,,,,,
446892,001,2022-11-20_17h50.02.711,Info_measure_main_exp,2022.2.2,MacIntel,60.0024001,,,,,,,,,,,,,,,,,,masks/mask_004.jpg,,,,,,,,,,,,,,,,,,,,,,,,,,,,,,,,,,,,,,,,,,,,,,,,0,2,2,3,1,,,,,,,,,,,,,,,,,,,,,,,,,,,,,,,,,,,,,,,,,
446892,001,2022-11-20_17h50.02.711,Info_measure_main_exp,2022.2.2,MacIntel,60.0024001,,,,,,,,,,,,,,,,,,masks/mask_005.jpg,,,,,,,,,,,,,,,,,,,,,,,,,,,,,,,,,,,,,,,,,,,,,,,,0,3,3,4,1,,,,,,,,,,,,,,,,,,,,,,,,,,,,,,,,,,,,,,,,,
446892,001,2022-11-20_17h50.02.711,Info_measure_main_exp,2022.2.2,MacIntel,60.0024001,,,,,,,,,,,,,,,,,,masks/mask_002.jpg,,,,,,,,,,,,,,,,,,,,,,,,,,,,,,,,,,,,,,,,,,,,,,,,0,4,4,1,1,,,,,,,,,,,,,,,,,,,,,,,,,,,,,,,,,,,,,,,,,
446892,001,2022-11-20_17h50.02.711,Info_measure_main_exp,2022.2.2,MacIntel,60.0024001,,,,,,,,,,,,,,,,,,,,,,,,,,,,,,0,0.6663,1,,,,,,,,,,,,0,131,5,5,2082,2082,absent_patch/patch0002082.jpg,absent_patch/patch0002082.jpg,,,,,,,,,,,,,,,,,,,,-0.065218037,0.135906804,1,0,1,response7disk,4,-0.000143576,0.00133674,1,0,1,center_square,0,3,3,74,1,,,,,,,,,,,,,,,,,,,,,,,
446892,001,2022-11-20_17h50.02.711,Info_measure_main_exp,2022.2.2,MacIntel,60.0024001,,,,,,,,,,,,,,,,,,masks/mask_003.jpg,,,,,,,,,,,,,,,,,,,,,,,,,,,,,,,,,,,,,,,,,,,0,0,0,2,1,,,,,,,,,,,,,,,,,,,,,,,,,,,,,,,,,,,,,,,,,,,,,,
446892,001,2022-11-20_17h50.02.711,Info_measure_main_exp,2022.2.2,MacIntel,60.0024001,,,,,,,,,,,,,,,,,,masks/mask_001.jpg,,,,,,,,,,,,,,,,,,,,,,,,,,,,,,,,,,,,,,,,,,,0,1,1,0,1,,,,,,,,,,,,,,,,,,,,,,,,,,,,,,,,,,,,,,,,,,,,,,
446892,001,2022-11-20_17h50.02.711,Info_measure_main_exp,2022.2.2,MacIntel,60.0024001,,,,,,,,,,,,,,,,,,masks/mask_004.jpg,,,,,,,,,,,,,,,,,,,,,,,,,,,,,,,,,,,,,,,,,,,0,2,2,3,1,,,,,,,,,,,,,,,,,,,,,,,,,,,,,,,,,,,,,,,,,,,,,,
446892,001,2022-11-20_17h50.02.711,Info_measure_main_exp,2022.2.2,MacIntel,60.0024001,,,,,,,,,,,,,,,,,,masks/mask_005.jpg,,,,,,,,,,,,,,,,,,,,,,,,,,,,,,,,,,,,,,,,,,,0,3,3,4,1,,,,,,,,,,,,,,,,,,,,,,,,,,,,,,,,,,,,,,,,,,,,,,
446892,001,2022-11-20_17h50.02.711,Info_measure_main_exp,2022.2.2,MacIntel,60.0024001,,,,,,,,,,,,,,,,,,masks/mask_002.jpg,,,,,,,,,,,,,,,,,,,,,,,,,,,,,,,,,,,,,,,,,,,0,4,4,1,1,,,,,,,,,,,,,,,,,,,,,,,,,,,,,,,,,,,,,,,,,,,,,,
446892,001,2022-11-20_17h50.02.711,Info_measure_main_exp,2022.2.2,MacIntel,60.0024001,,,,,,,,,,,,,,,,,,masks/mask_004.jpg,,,,,,,,,,,,,,,,,,,,,,,,,,,,,,,,,,,,,,,,,,,,,,,,0,0,0,3,1,,,,,,,,,,,,,,,,,,,,,,,,,,,,,,,,,,,,,,,,,
446892,001,2022-11-20_17h50.02.711,Info_measure_main_exp,2022.2.2,MacIntel,60.0024001,,,,,,,,,,,,,,,,,,masks/mask_003.jpg,,,,,,,,,,,,,,,,,,,,,,,,,,,,,,,,,,,,,,,,,,,,,,,,0,1,1,2,1,,,,,,,,,,,,,,,,,,,,,,,,,,,,,,,,,,,,,,,,,
446892,001,2022-11-20_17h50.02.711,Info_measure_main_exp,2022.2.2,MacIntel,60.0024001,,,,,,,,,,,,,,,,,,masks/mask_001.jpg,,,,,,,,,,,,,,,,,,,,,,,,,,,,,,,,,,,,,,,,,,,,,,,,0,2,2,0,1,,,,,,,,,,,,,,,,,,,,,,,,,,,,,,,,,,,,,,,,,
446892,001,2022-11-20_17h50.02.711,Info_measure_main_exp,2022.2.2,MacIntel,60.0024001,,,,,,,,,,,,,,,,,,masks/mask_002.jpg,,,,,,,,,,,,,,,,,,,,,,,,,,,,,,,,,,,,,,,,,,,,,,,,0,3,3,1,1,,,,,,,,,,,,,,,,,,,,,,,,,,,,,,,,,,,,,,,,,
446892,001,2022-11-20_17h50.02.711,Info_measure_main_exp,2022.2.2,MacIntel,60.0024001,,,,,,,,,,,,,,,,,,masks/mask_005.jpg,,,,,,,,,,,,,,,,,,,,,,,,,,,,,,,,,,,,,,,,,,,,,,,,0,4,4,4,1,,,,,,,,,,,,,,,,,,,,,,,,,,,,,,,,,,,,,,,,,
446892,001,2022-11-20_17h50.02.711,Info_measure_main_exp,2022.2.2,MacIntel,60.0024001,,,,,,,,,,,,,,,,,,,,,,,,,,,,,,7,1.0659,1,,,,,,,,,,,,1,131,5,5,1,1974,present_patch/cong_131_5_a.jpg,absent_patch/patch0001974.jpg,,,,,,,,,,,,,,,,,,,,0.108374921,0.140832937,1,0,1,response1disk,5,0.006228216,-0.006599533,1,0,1,center_square,0,4,4,69,1,,,,,,,,,,,,,,,,,,,,,,,
446892,001,2022-11-20_17h50.02.711,Info_measure_main_exp,2022.2.2,MacIntel,60.0024001,,,,,,,,,,,,,,,,,,masks/mask_002.jpg,,,,,,,,,,,,,,,,,,,,,,,,,,,,,,,,,,,,,,,,,,,0,0,0,1,1,,,,,,,,,,,,,,,,,,,,,,,,,,,,,,,,,,,,,,,,,,,,,,
446892,001,2022-11-20_17h50.02.711,Info_measure_main_exp,2022.2.2,MacIntel,60.0024001,,,,,,,,,,,,,,,,,,masks/mask_004.jpg,,,,,,,,,,,,,,,,,,,,,,,,,,,,,,,,,,,,,,,,,,,0,1,1,3,1,,,,,,,,,,,,,,,,,,,,,,,,,,,,,,,,,,,,,,,,,,,,,,
446892,001,2022-11-20_17h50.02.711,Info_measure_main_exp,2022.2.2,MacIntel,60.0024001,,,,,,,,,,,,,,,,,,masks/mask_001.jpg,,,,,,,,,,,,,,,,,,,,,,,,,,,,,,,,,,,,,,,,,,,0,2,2,0,1,,,,,,,,,,,,,,,,,,,,,,,,,,,,,,,,,,,,,,,,,,,,,,
446892,001,2022-11-20_17h50.02.711,Info_measure_main_exp,2022.2.2,MacIntel,60.0024001,,,,,,,,,,,,,,,,,,masks/mask_003.jpg,,,,,,,,,,,,,,,,,,,,,,,,,,,,,,,,,,,,,,,,,,,0,3,3,2,1,,,,,,,,,,,,,,,,,,,,,,,,,,,,,,,,,,,,,,,,,,,,,,
446892,001,2022-11-20_17h50.02.711,Info_measure_main_exp,2022.2.2,MacIntel,60.0024001,,,,,,,,,,,,,,,,,,masks/mask_005.jpg,,,,,,,,,,,,,,,,,,,,,,,,,,,,,,,,,,,,,,,,,,,0,4,4,4,1,,,,,,,,,,,,,,,,,,,,,,,,,,,,,,,,,,,,,,,,,,,,,,
446892,001,2022-11-20_17h50.02.711,Info_measure_main_exp,2022.2.2,MacIntel,60.0024001,,,,,,,,,,,,,,,,,,masks/mask_002.jpg,,,,,,,,,,,,,,,,,,,,,,,,,,,,,,,,,,,,,,,,,,,,,,,,0,0,0,1,1,,,,,,,,,,,,,,,,,,,,,,,,,,,,,,,,,,,,,,,,,
446892,001,2022-11-20_17h50.02.711,Info_measure_main_exp,2022.2.2,MacIntel,60.0024001,,,,,,,,,,,,,,,,,,masks/mask_004.jpg,,,,,,,,,,,,,,,,,,,,,,,,,,,,,,,,,,,,,,,,,,,,,,,,0,1,1,3,1,,,,,,,,,,,,,,,,,,,,,,,,,,,,,,,,,,,,,,,,,
446892,001,2022-11-20_17h50.02.711,Info_measure_main_exp,2022.2.2,MacIntel,60.0024001,,,,,,,,,,,,,,,,,,masks/mask_005.jpg,,,,,,,,,,,,,,,,,,,,,,,,,,,,,,,,,,,,,,,,,,,,,,,,0,2,2,4,1,,,,,,,,,,,,,,,,,,,,,,,,,,,,,,,,,,,,,,,,,
446892,001,2022-11-20_17h50.02.711,Info_measure_main_exp,2022.2.2,MacIntel,60.0024001,,,,,,,,,,,,,,,,,,masks/mask_001.jpg,,,,,,,,,,,,,,,,,,,,,,,,,,,,,,,,,,,,,,,,,,,,,,,,0,3,3,0,1,,,,,,,,,,,,,,,,,,,,,,,,,,,,,,,,,,,,,,,,,
446892,001,2022-11-20_17h50.02.711,Info_measure_main_exp,2022.2.2,MacIntel,60.0024001,,,,,,,,,,,,,,,,,,masks/mask_003.jpg,,,,,,,,,,,,,,,,,,,,,,,,,,,,,,,,,,,,,,,,,,,,,,,,0,4,4,2,1,,,,,,,,,,,,,,,,,,,,,,,,,,,,,,,,,,,,,,,,,
446892,001,2022-11-20_17h50.02.711,Info_measure_main_exp,2022.2.2,MacIntel,60.0024001,,,,,,,,,,,,,,,,,,,,,,,,,,,,,,6,1.1666,1,,,,,,,,,,,,0,131,5,5,1974,2166,absent_patch/patch0001974.jpg,absent_patch/patch0002166.jpg,,,,,,,,,,,,,,,,,,,,0.079436985,0.037572283,1,0,1,response1disk,6,0.005015249,0.01484276,1,0,1,center_square,0,5,5,77,1,,,,,,,,,,,,,,,,,,,,,,,
446892,001,2022-11-20_17h50.02.711,Info_measure_main_exp,2022.2.2,MacIntel,60.0024001,,,,,,,,,,,,,,,,,,masks/mask_002.jpg,,,,,,,,,,,,,,,,,,,,,,,,,,,,,,,,,,,,,,,,,,,0,0,0,1,1,,,,,,,,,,,,,,,,,,,,,,,,,,,,,,,,,,,,,,,,,,,,,,
446892,001,2022-11-20_17h50.02.711,Info_measure_main_exp,2022.2.2,MacIntel,60.0024001,,,,,,,,,,,,,,,,,,masks/mask_004.jpg,,,,,,,,,,,,,,,,,,,,,,,,,,,,,,,,,,,,,,,,,,,0,1,1,3,1,,,,,,,,,,,,,,,,,,,,,,,,,,,,,,,,,,,,,,,,,,,,,,
446892,001,2022-11-20_17h50.02.711,Info_measure_main_exp,2022.2.2,MacIntel,60.0024001,,,,,,,,,,,,,,,,,,masks/mask_005.jpg,,,,,,,,,,,,,,,,,,,,,,,,,,,,,,,,,,,,,,,,,,,0,2,2,4,1,,,,,,,,,,,,,,,,,,,,,,,,,,,,,,,,,,,,,,,,,,,,,,
446892,001,2022-11-20_17h50.02.711,Info_measure_main_exp,2022.2.2,MacIntel,60.0024001,,,,,,,,,,,,,,,,,,masks/mask_003.jpg,,,,,,,,,,,,,,,,,,,,,,,,,,,,,,,,,,,,,,,,,,,0,3,3,2,1,,,,,,,,,,,,,,,,,,,,,,,,,,,,,,,,,,,,,,,,,,,,,,
446892,001,2022-11-20_17h50.02.711,Info_measure_main_exp,2022.2.2,MacIntel,60.0024001,,,,,,,,,,,,,,,,,,masks/mask_001.jpg,,,,,,,,,,,,,,,,,,,,,,,,,,,,,,,,,,,,,,,,,,,0,4,4,0,1,,,,,,,,,,,,,,,,,,,,,,,,,,,,,,,,,,,,,,,,,,,,,,
446892,001,2022-11-20_17h50.02.711,Info_measure_main_exp,2022.2.2,MacIntel,60.0024001,,,,,,,,,,,,,,,,,,masks/mask_005.jpg,,,,,,,,,,,,,,,,,,,,,,,,,,,,,,,,,,,,,,,,,,,,,,,,0,0,0,4,1,,,,,,,,,,,,,,,,,,,,,,,,,,,,,,,,,,,,,,,,,
446892,001,2022-11-20_17h50.02.711,Info_measure_main_exp,2022.2.2,MacIntel,60.0024001,,,,,,,,,,,,,,,,,,masks/mask_001.jpg,,,,,,,,,,,,,,,,,,,,,,,,,,,,,,,,,,,,,,,,,,,,,,,,0,1,1,0,1,,,,,,,,,,,,,,,,,,,,,,,,,,,,,,,,,,,,,,,,,
446892,001,2022-11-20_17h50.02.711,Info_measure_main_exp,2022.2.2,MacIntel,60.0024001,,,,,,,,,,,,,,,,,,masks/mask_003.jpg,,,,,,,,,,,,,,,,,,,,,,,,,,,,,,,,,,,,,,,,,,,,,,,,0,2,2,2,1,,,,,,,,,,,,,,,,,,,,,,,,,,,,,,,,,,,,,,,,,
446892,001,2022-11-20_17h50.02.711,Info_measure_main_exp,2022.2.2,MacIntel,60.0024001,,,,,,,,,,,,,,,,,,masks/mask_004.jpg,,,,,,,,,,,,,,,,,,,,,,,,,,,,,,,,,,,,,,,,,,,,,,,,0,3,3,3,1,,,,,,,,,,,,,,,,,,,,,,,,,,,,,,,,,,,,,,,,,
446892,001,2022-11-20_17h50.02.711,Info_measure_main_exp,2022.2.2,MacIntel,60.0024001,,,,,,,,,,,,,,,,,,masks/mask_002.jpg,,,,,,,,,,,,,,,,,,,,,,,,,,,,,,,,,,,,,,,,,,,,,,,,0,4,4,1,1,,,,,,,,,,,,,,,,,,,,,,,,,,,,,,,,,,,,,,,,,
446892,001,2022-11-20_17h50.02.711,Info_measure_main_exp,2022.2.2,MacIntel,60.0024001,,,,,,,,,,,,,,,,,,,,,,,,,,,,,,0,0.7332,1,,,,,,,,,,,,0,131,5,5,2142,2142,absent_patch/patch0002142.jpg,absent_patch/patch0002142.jpg,,,,,,,,,,,,,,,,,,,,-0.081149992,0.160913736,1,0,1,response7disk,7,-0.007055014,0.004936035,1,0,1,center_square,0,6,6,13,1,,,,,,,,,,,,,,,,,,,,,,,
446892,001,2022-11-20_17h50.02.711,Info_measure_main_exp,2022.2.2,MacIntel,60.0024001,,,,,,,,,,,,,,,,,,masks/mask_001.jpg,,,,,,,,,,,,,,,,,,,,,,,,,,,,,,,,,,,,,,,,,,,0,0,0,0,1,,,,,,,,,,,,,,,,,,,,,,,,,,,,,,,,,,,,,,,,,,,,,,
446892,001,2022-11-20_17h50.02.711,Info_measure_main_exp,2022.2.2,MacIntel,60.0024001,,,,,,,,,,,,,,,,,,masks/mask_002.jpg,,,,,,,,,,,,,,,,,,,,,,,,,,,,,,,,,,,,,,,,,,,0,1,1,1,1,,,,,,,,,,,,,,,,,,,,,,,,,,,,,,,,,,,,,,,,,,,,,,
446892,001,2022-11-20_17h50.02.711,Info_measure_main_exp,2022.2.2,MacIntel,60.0024001,,,,,,,,,,,,,,,,,,masks/mask_004.jpg,,,,,,,,,,,,,,,,,,,,,,,,,,,,,,,,,,,,,,,,,,,0,2,2,3,1,,,,,,,,,,,,,,,,,,,,,,,,,,,,,,,,,,,,,,,,,,,,,,
446892,001,2022-11-20_17h50.02.711,Info_measure_main_exp,2022.2.2,MacIntel,60.0024001,,,,,,,,,,,,,,,,,,masks/mask_005.jpg,,,,,,,,,,,,,,,,,,,,,,,,,,,,,,,,,,,,,,,,,,,0,3,3,4,1,,,,,,,,,,,,,,,,,,,,,,,,,,,,,,,,,,,,,,,,,,,,,,
446892,001,2022-11-20_17h50.02.711,Info_measure_main_exp,2022.2.2,MacIntel,60.0024001,,,,,,,,,,,,,,,,,,masks/mask_003.jpg,,,,,,,,,,,,,,,,,,,,,,,,,,,,,,,,,,,,,,,,,,,0,4,4,2,1,,,,,,,,,,,,,,,,,,,,,,,,,,,,,,,,,,,,,,,,,,,,,,
446892,001,2022-11-20_17h50.02.711,Info_measure_main_exp,2022.2.2,MacIntel,60.0024001,,,,,,,,,,,,,,,,,,masks/mask_004.jpg,,,,,,,,,,,,,,,,,,,,,,,,,,,,,,,,,,,,,,,,,,,,,,,,0,0,0,3,1,,,,,,,,,,,,,,,,,,,,,,,,,,,,,,,,,,,,,,,,,
446892,001,2022-11-20_17h50.02.711,Info_measure_main_exp,2022.2.2,MacIntel,60.0024001,,,,,,,,,,,,,,,,,,masks/mask_001.jpg,,,,,,,,,,,,,,,,,,,,,,,,,,,,,,,,,,,,,,,,,,,,,,,,0,1,1,0,1,,,,,,,,,,,,,,,,,,,,,,,,,,,,,,,,,,,,,,,,,
446892,001,2022-11-20_17h50.02.711,Info_measure_main_exp,2022.2.2,MacIntel,60.0024001,,,,,,,,,,,,,,,,,,masks/mask_005.jpg,,,,,,,,,,,,,,,,,,,,,,,,,,,,,,,,,,,,,,,,,,,,,,,,0,2,2,4,1,,,,,,,,,,,,,,,,,,,,,,,,,,,,,,,,,,,,,,,,,
446892,001,2022-11-20_17h50.02.711,Info_measure_main_exp,2022.2.2,MacIntel,60.0024001,,,,,,,,,,,,,,,,,,masks/mask_002.jpg,,,,,,,,,,,,,,,,,,,,,,,,,,,,,,,,,,,,,,,,,,,,,,,,0,3,3,1,1,,,,,,,,,,,,,,,,,,,,,,,,,,,,,,,,,,,,,,,,,
446892,001,2022-11-20_17h50.02.711,Info_measure_main_exp,2022.2.2,MacIntel,60.0024001,,,,,,,,,,,,,,,,,,masks/mask_003.jpg,,,,,,,,,,,,,,,,,,,,,,,,,,,,,,,,,,,,,,,,,,,,,,,,0,4,4,2,1,,,,,,,,,,,,,,,,,,,,,,,,,,,,,,,,,,,,,,,,,
446892,001,2022-11-20_17h50.02.711,Info_measure_main_exp,2022.2.2,MacIntel,60.0024001,,,,,,,,,,,,,,,,,,,,,,,,,,,,,,2,3.0167,1,,,,,,,,,,,,0,131,5,5,2274,2238,absent_patch/patch0002274.jpg,absent_patch/patch0002238.jpg,,,,,,,,,,,,,,,,,,,,-0.099522734,-0.052726949,1,0,1,response5disk,8,-0.000628763,-0.006852028,1,0,1,center_square,0,7,7,91,1,,,,,,,,,,,,,,,,,,,,,,,
446892,001,2022-11-20_17h50.02.711,Info_measure_main_exp,2022.2.2,MacIntel,60.0024001,,,,,,,,,,,,,,,,,,masks/mask_004.jpg,,,,,,,,,,,,,,,,,,,,,,,,,,,,,,,,,,,,,,,,,,,0,0,0,3,1,,,,,,,,,,,,,,,,,,,,,,,,,,,,,,,,,,,,,,,,,,,,,,
446892,001,2022-11-20_17h50.02.711,Info_measure_main_exp,2022.2.2,MacIntel,60.0024001,,,,,,,,,,,,,,,,,,masks/mask_003.jpg,,,,,,,,,,,,,,,,,,,,,,,,,,,,,,,,,,,,,,,,,,,0,1,1,2,1,,,,,,,,,,,,,,,,,,,,,,,,,,,,,,,,,,,,,,,,,,,,,,
446892,001,2022-11-20_17h50.02.711,Info_measure_main_exp,2022.2.2,MacIntel,60.0024001,,,,,,,,,,,,,,,,,,masks/mask_001.jpg,,,,,,,,,,,,,,,,,,,,,,,,,,,,,,,,,,,,,,,,,,,0,2,2,0,1,,,,,,,,,,,,,,,,,,,,,,,,,,,,,,,,,,,,,,,,,,,,,,
446892,001,2022-11-20_17h50.02.711,Info_measure_main_exp,2022.2.2,MacIntel,60.0024001,,,,,,,,,,,,,,,,,,masks/mask_005.jpg,,,,,,,,,,,,,,,,,,,,,,,,,,,,,,,,,,,,,,,,,,,0,3,3,4,1,,,,,,,,,,,,,,,,,,,,,,,,,,,,,,,,,,,,,,,,,,,,,,
446892,001,2022-11-20_17h50.02.711,Info_measure_main_exp,2022.2.2,MacIntel,60.0024001,,,,,,,,,,,,,,,,,,masks/mask_002.jpg,,,,,,,,,,,,,,,,,,,,,,,,,,,,,,,,,,,,,,,,,,,0,4,4,1,1,,,,,,,,,,,,,,,,,,,,,,,,,,,,,,,,,,,,,,,,,,,,,,
446892,001,2022-11-20_17h50.02.711,Info_measure_main_exp,2022.2.2,MacIntel,60.0024001,,,,,,,,,,,,,,,,,,masks/mask_001.jpg,,,,,,,,,,,,,,,,,,,,,,,,,,,,,,,,,,,,,,,,,,,,,,,,0,0,0,0,1,,,,,,,,,,,,,,,,,,,,,,,,,,,,,,,,,,,,,,,,,
446892,001,2022-11-20_17h50.02.711,Info_measure_main_exp,2022.2.2,MacIntel,60.0024001,,,,,,,,,,,,,,,,,,masks/mask_005.jpg,,,,,,,,,,,,,,,,,,,,,,,,,,,,,,,,,,,,,,,,,,,,,,,,0,1,1,4,1,,,,,,,,,,,,,,,,,,,,,,,,,,,,,,,,,,,,,,,,,
446892,001,2022-11-20_17h50.02.711,Info_measure_main_exp,2022.2.2,MacIntel,60.0024001,,,,,,,,,,,,,,,,,,masks/mask_004.jpg,,,,,,,,,,,,,,,,,,,,,,,,,,,,,,,,,,,,,,,,,,,,,,,,0,2,2,3,1,,,,,,,,,,,,,,,,,,,,,,,,,,,,,,,,,,,,,,,,,
446892,001,2022-11-20_17h50.02.711,Info_measure_main_exp,2022.2.2,MacIntel,60.0024001,,,,,,,,,,,,,,,,,,masks/mask_002.jpg,,,,,,,,,,,,,,,,,,,,,,,,,,,,,,,,,,,,,,,,,,,,,,,,0,3,3,1,1,,,,,,,,,,,,,,,,,,,,,,,,,,,,,,,,,,,,,,,,,
446892,001,2022-11-20_17h50.02.711,Info_measure_main_exp,2022.2.2,MacIntel,60.0024001,,,,,,,,,,,,,,,,,,masks/mask_003.jpg,,,,,,,,,,,,,,,,,,,,,,,,,,,,,,,,,,,,,,,,,,,,,,,,0,4,4,2,1,,,,,,,,,,,,,,,,,,,,,,,,,,,,,,,,,,,,,,,,,
446892,001,2022-11-20_17h50.02.711,Info_measure_main_exp,2022.2.2,MacIntel,60.0024001,,,,,,,,,,,,,,,,,,,,,,,,,,,,,,7,0.9499,1,,,,,,,,,,,,0,131,5,5,2082,1986,absent_patch/patch0002082.jpg,absent_patch/patch0001986.jpg,,,,,,,,,,,,,,,,,,,,0.092071649,0.13219859,1,0,1,response1disk,9,0.014337769,0.000732731,1,0,1,center_square,0,8,8,94,1,,,,,,,,,,,,,,,,,,,,,,,
446892,001,2022-11-20_17h50.02.711,Info_measure_main_exp,2022.2.2,MacIntel,60.0024001,,,,,,,,,,,,,,,,,,masks/mask_004.jpg,,,,,,,,,,,,,,,,,,,,,,,,,,,,,,,,,,,,,,,,,,,0,0,0,3,1,,,,,,,,,,,,,,,,,,,,,,,,,,,,,,,,,,,,,,,,,,,,,,
446892,001,2022-11-20_17h50.02.711,Info_measure_main_exp,2022.2.2,MacIntel,60.0024001,,,,,,,,,,,,,,,,,,masks/mask_001.jpg,,,,,,,,,,,,,,,,,,,,,,,,,,,,,,,,,,,,,,,,,,,0,1,1,0,1,,,,,,,,,,,,,,,,,,,,,,,,,,,,,,,,,,,,,,,,,,,,,,
446892,001,2022-11-20_17h50.02.711,Info_measure_main_exp,2022.2.2,MacIntel,60.0024001,,,,,,,,,,,,,,,,,,masks/mask_005.jpg,,,,,,,,,,,,,,,,,,,,,,,,,,,,,,,,,,,,,,,,,,,0,2,2,4,1,,,,,,,,,,,,,,,,,,,,,,,,,,,,,,,,,,,,,,,,,,,,,,
446892,001,2022-11-20_17h50.02.711,Info_measure_main_exp,2022.2.2,MacIntel,60.0024001,,,,,,,,,,,,,,,,,,masks/mask_002.jpg,,,,,,,,,,,,,,,,,,,,,,,,,,,,,,,,,,,,,,,,,,,0,3,3,1,1,,,,,,,,,,,,,,,,,,,,,,,,,,,,,,,,,,,,,,,,,,,,,,
446892,001,2022-11-20_17h50.02.711,Info_measure_main_exp,2022.2.2,MacIntel,60.0024001,,,,,,,,,,,,,,,,,,masks/mask_003.jpg,,,,,,,,,,,,,,,,,,,,,,,,,,,,,,,,,,,,,,,,,,,0,4,4,2,1,,,,,,,,,,,,,,,,,,,,,,,,,,,,,,,,,,,,,,,,,,,,,,
446892,001,2022-11-20_17h50.02.711,Info_measure_main_exp,2022.2.2,MacIntel,60.0024001,,,,,,,,,,,,,,,,,,masks/mask_004.jpg,,,,,,,,,,,,,,,,,,,,,,,,,,,,,,,,,,,,,,,,,,,,,,,,0,0,0,3,1,,,,,,,,,,,,,,,,,,,,,,,,,,,,,,,,,,,,,,,,,
446892,001,2022-11-20_17h50.02.711,Info_measure_main_exp,2022.2.2,MacIntel,60.0024001,,,,,,,,,,,,,,,,,,masks/mask_001.jpg,,,,,,,,,,,,,,,,,,,,,,,,,,,,,,,,,,,,,,,,,,,,,,,,0,1,1,0,1,,,,,,,,,,,,,,,,,,,,,,,,,,,,,,,,,,,,,,,,,
446892,001,2022-11-20_17h50.02.711,Info_measure_main_exp,2022.2.2,MacIntel,60.0024001,,,,,,,,,,,,,,,,,,masks/mask_003.jpg,,,,,,,,,,,,,,,,,,,,,,,,,,,,,,,,,,,,,,,,,,,,,,,,0,2,2,2,1,,,,,,,,,,,,,,,,,,,,,,,,,,,,,,,,,,,,,,,,,
446892,001,2022-11-20_17h50.02.711,Info_measure_main_exp,2022.2.2,MacIntel,60.0024001,,,,,,,,,,,,,,,,,,masks/mask_002.jpg,,,,,,,,,,,,,,,,,,,,,,,,,,,,,,,,,,,,,,,,,,,,,,,,0,3,3,1,1,,,,,,,,,,,,,,,,,,,,,,,,,,,,,,,,,,,,,,,,,
446892,001,2022-11-20_17h50.02.711,Info_measure_main_exp,2022.2.2,MacIntel,60.0024001,,,,,,,,,,,,,,,,,,masks/mask_005.jpg,,,,,,,,,,,,,,,,,,,,,,,,,,,,,,,,,,,,,,,,,,,,,,,,0,4,4,4,1,,,,,,,,,,,,,,,,,,,,,,,,,,,,,,,,,,,,,,,,,
446892,001,2022-11-20_17h50.02.711,Info_measure_main_exp,2022.2.2,MacIntel,60.0024001,,,,,,,,,,,,,,,,,,,,,,,,,,,,,,7,0.818,1,,,,,,,,,,,,0,131,5,5,2190,2238,absent_patch/patch0002190.jpg,absent_patch/patch0002238.jpg,,,,,,,,,,,,,,,,,,,,0.035329531,0.087764377,1,0,1,response1disk,10,0.012431678,-0.007411478,1,0,1,center_square,0,9,9,53,1,,,,,,,,,,,,,,,,,,,,,,,
446892,001,2022-11-20_17h50.02.711,Info_measure_main_exp,2022.2.2,MacIntel,60.0024001,,,,,,,,,,,,,,,,,,masks/mask_002.jpg,,,,,,,,,,,,,,,,,,,,,,,,,,,,,,,,,,,,,,,,,,,0,0,0,1,1,,,,,,,,,,,,,,,,,,,,,,,,,,,,,,,,,,,,,,,,,,,,,,
446892,001,2022-11-20_17h50.02.711,Info_measure_main_exp,2022.2.2,MacIntel,60.0024001,,,,,,,,,,,,,,,,,,masks/mask_003.jpg,,,,,,,,,,,,,,,,,,,,,,,,,,,,,,,,,,,,,,,,,,,0,1,1,2,1,,,,,,,,,,,,,,,,,,,,,,,,,,,,,,,,,,,,,,,,,,,,,,
446892,001,2022-11-20_17h50.02.711,Info_measure_main_exp,2022.2.2,MacIntel,60.0024001,,,,,,,,,,,,,,,,,,masks/mask_005.jpg,,,,,,,,,,,,,,,,,,,,,,,,,,,,,,,,,,,,,,,,,,,0,2,2,4,1,,,,,,,,,,,,,,,,,,,,,,,,,,,,,,,,,,,,,,,,,,,,,,
446892,001,2022-11-20_17h50.02.711,Info_measure_main_exp,2022.2.2,MacIntel,60.0024001,,,,,,,,,,,,,,,,,,masks/mask_004.jpg,,,,,,,,,,,,,,,,,,,,,,,,,,,,,,,,,,,,,,,,,,,0,3,3,3,1,,,,,,,,,,,,,,,,,,,,,,,,,,,,,,,,,,,,,,,,,,,,,,
446892,001,2022-11-20_17h50.02.711,Info_measure_main_exp,2022.2.2,MacIntel,60.0024001,,,,,,,,,,,,,,,,,,masks/mask_001.jpg,,,,,,,,,,,,,,,,,,,,,,,,,,,,,,,,,,,,,,,,,,,0,4,4,0,1,,,,,,,,,,,,,,,,,,,,,,,,,,,,,,,,,,,,,,,,,,,,,,
446892,001,2022-11-20_17h50.02.711,Info_measure_main_exp,2022.2.2,MacIntel,60.0024001,,,,,,,,,,,,,,,,,,masks/mask_004.jpg,,,,,,,,,,,,,,,,,,,,,,,,,,,,,,,,,,,,,,,,,,,,,,,,0,0,0,3,1,,,,,,,,,,,,,,,,,,,,,,,,,,,,,,,,,,,,,,,,,
446892,001,2022-11-20_17h50.02.711,Info_measure_main_exp,2022.2.2,MacIntel,60.0024001,,,,,,,,,,,,,,,,,,masks/mask_003.jpg,,,,,,,,,,,,,,,,,,,,,,,,,,,,,,,,,,,,,,,,,,,,,,,,0,1,1,2,1,,,,,,,,,,,,,,,,,,,,,,,,,,,,,,,,,,,,,,,,,
446892,001,2022-11-20_17h50.02.711,Info_measure_main_exp,2022.2.2,MacIntel,60.0024001,,,,,,,,,,,,,,,,,,masks/mask_002.jpg,,,,,,,,,,,,,,,,,,,,,,,,,,,,,,,,,,,,,,,,,,,,,,,,0,2,2,1,1,,,,,,,,,,,,,,,,,,,,,,,,,,,,,,,,,,,,,,,,,
446892,001,2022-11-20_17h50.02.711,Info_measure_main_exp,2022.2.2,MacIntel,60.0024001,,,,,,,,,,,,,,,,,,masks/mask_005.jpg,,,,,,,,,,,,,,,,,,,,,,,,,,,,,,,,,,,,,,,,,,,,,,,,0,3,3,4,1,,,,,,,,,,,,,,,,,,,,,,,,,,,,,,,,,,,,,,,,,
446892,001,2022-11-20_17h50.02.711,Info_measure_main_exp,2022.2.2,MacIntel,60.0024001,,,,,,,,,,,,,,,,,,masks/mask_001.jpg,,,,,,,,,,,,,,,,,,,,,,,,,,,,,,,,,,,,,,,,,,,,,,,,0,4,4,0,1,,,,,,,,,,,,,,,,,,,,,,,,,,,,,,,,,,,,,,,,,
446892,001,2022-11-20_17h50.02.711,Info_measure_main_exp,2022.2.2,MacIntel,60.0024001,,,,,,,,,,,,,,,,,,,,,,,,,,,,,,0,0.6164,1,,,,,,,,,,,,0,131,5,5,2238,2238,absent_patch/patch0002238.jpg,absent_patch/patch0002238.jpg,,,,,,,,,,,,,,,,,,,,-0.05441025,0.145293687,1,0,1,response7disk,11,-0.004881575,-0.004945936,1,0,1,center_square,0,10,10,58,1,,,,,,,,,,,,,,,,,,,,,,,
446892,001,2022-11-20_17h50.02.711,Info_measure_main_exp,2022.2.2,MacIntel,60.0024001,,,,,,,,,,,,,,,,,,masks/mask_005.jpg,,,,,,,,,,,,,,,,,,,,,,,,,,,,,,,,,,,,,,,,,,,0,0,0,4,1,,,,,,,,,,,,,,,,,,,,,,,,,,,,,,,,,,,,,,,,,,,,,,
446892,001,2022-11-20_17h50.02.711,Info_measure_main_exp,2022.2.2,MacIntel,60.0024001,,,,,,,,,,,,,,,,,,masks/mask_004.jpg,,,,,,,,,,,,,,,,,,,,,,,,,,,,,,,,,,,,,,,,,,,0,1,1,3,1,,,,,,,,,,,,,,,,,,,,,,,,,,,,,,,,,,,,,,,,,,,,,,
446892,001,2022-11-20_17h50.02.711,Info_measure_main_exp,2022.2.2,MacIntel,60.0024001,,,,,,,,,,,,,,,,,,masks/mask_003.jpg,,,,,,,,,,,,,,,,,,,,,,,,,,,,,,,,,,,,,,,,,,,0,2,2,2,1,,,,,,,,,,,,,,,,,,,,,,,,,,,,,,,,,,,,,,,,,,,,,,
446892,001,2022-11-20_17h50.02.711,Info_measure_main_exp,2022.2.2,MacIntel,60.0024001,,,,,,,,,,,,,,,,,,masks/mask_001.jpg,,,,,,,,,,,,,,,,,,,,,,,,,,,,,,,,,,,,,,,,,,,0,3,3,0,1,,,,,,,,,,,,,,,,,,,,,,,,,,,,,,,,,,,,,,,,,,,,,,
446892,001,2022-11-20_17h50.02.711,Info_measure_main_exp,2022.2.2,MacIntel,60.0024001,,,,,,,,,,,,,,,,,,masks/mask_002.jpg,,,,,,,,,,,,,,,,,,,,,,,,,,,,,,,,,,,,,,,,,,,0,4,4,1,1,,,,,,,,,,,,,,,,,,,,,,,,,,,,,,,,,,,,,,,,,,,,,,
446892,001,2022-11-20_17h50.02.711,Info_measure_main_exp,2022.2.2,MacIntel,60.0024001,,,,,,,,,,,,,,,,,,masks/mask_001.jpg,,,,,,,,,,,,,,,,,,,,,,,,,,,,,,,,,,,,,,,,,,,,,,,,0,0,0,0,1,,,,,,,,,,,,,,,,,,,,,,,,,,,,,,,,,,,,,,,,,
446892,001,2022-11-20_17h50.02.711,Info_measure_main_exp,2022.2.2,MacIntel,60.0024001,,,,,,,,,,,,,,,,,,masks/mask_004.jpg,,,,,,,,,,,,,,,,,,,,,,,,,,,,,,,,,,,,,,,,,,,,,,,,0,1,1,3,1,,,,,,,,,,,,,,,,,,,,,,,,,,,,,,,,,,,,,,,,,
446892,001,2022-11-20_17h50.02.711,Info_measure_main_exp,2022.2.2,MacIntel,60.0024001,,,,,,,,,,,,,,,,,,masks/mask_003.jpg,,,,,,,,,,,,,,,,,,,,,,,,,,,,,,,,,,,,,,,,,,,,,,,,0,2,2,2,1,,,,,,,,,,,,,,,,,,,,,,,,,,,,,,,,,,,,,,,,,
446892,001,2022-11-20_17h50.02.711,Info_measure_main_exp,2022.2.2,MacIntel,60.0024001,,,,,,,,,,,,,,,,,,masks/mask_002.jpg,,,,,,,,,,,,,,,,,,,,,,,,,,,,,,,,,,,,,,,,,,,,,,,,0,3,3,1,1,,,,,,,,,,,,,,,,,,,,,,,,,,,,,,,,,,,,,,,,,
446892,001,2022-11-20_17h50.02.711,Info_measure_main_exp,2022.2.2,MacIntel,60.0024001,,,,,,,,,,,,,,,,,,masks/mask_005.jpg,,,,,,,,,,,,,,,,,,,,,,,,,,,,,,,,,,,,,,,,,,,,,,,,0,4,4,4,1,,,,,,,,,,,,,,,,,,,,,,,,,,,,,,,,,,,,,,,,,
446892,001,2022-11-20_17h50.02.711,Info_measure_main_exp,2022.2.2,MacIntel,60.0024001,,,,,,,,,,,,,,,,,,,,,,,,,,,,,,5,2.2656,1,,,,,,,,,,,,0,131,5,5,1986,2238,absent_patch/patch0001986.jpg,absent_patch/patch0002238.jpg,,,,,,,,,,,,,,,,,,,,0.088353533,-0.038602067,1,0,1,response3disk,12,-2.47544E-05,0.004737999,1,0,1,center_square,0,11,11,31,1,,,,,,,,,,,,,,,,,,,,,,,
446892,001,2022-11-20_17h50.02.711,Info_measure_main_exp,2022.2.2,MacIntel,60.0024001,,,,,,,,,,,,,,,,,,masks/mask_002.jpg,,,,,,,,,,,,,,,,,,,,,,,,,,,,,,,,,,,,,,,,,,,0,0,0,1,1,,,,,,,,,,,,,,,,,,,,,,,,,,,,,,,,,,,,,,,,,,,,,,
446892,001,2022-11-20_17h50.02.711,Info_measure_main_exp,2022.2.2,MacIntel,60.0024001,,,,,,,,,,,,,,,,,,masks/mask_004.jpg,,,,,,,,,,,,,,,,,,,,,,,,,,,,,,,,,,,,,,,,,,,0,1,1,3,1,,,,,,,,,,,,,,,,,,,,,,,,,,,,,,,,,,,,,,,,,,,,,,
446892,001,2022-11-20_17h50.02.711,Info_measure_main_exp,2022.2.2,MacIntel,60.0024001,,,,,,,,,,,,,,,,,,masks/mask_005.jpg,,,,,,,,,,,,,,,,,,,,,,,,,,,,,,,,,,,,,,,,,,,0,2,2,4,1,,,,,,,,,,,,,,,,,,,,,,,,,,,,,,,,,,,,,,,,,,,,,,
446892,001,2022-11-20_17h50.02.711,Info_measure_main_exp,2022.2.2,MacIntel,60.0024001,,,,,,,,,,,,,,,,,,masks/mask_001.jpg,,,,,,,,,,,,,,,,,,,,,,,,,,,,,,,,,,,,,,,,,,,0,3,3,0,1,,,,,,,,,,,,,,,,,,,,,,,,,,,,,,,,,,,,,,,,,,,,,,
446892,001,2022-11-20_17h50.02.711,Info_measure_main_exp,2022.2.2,MacIntel,60.0024001,,,,,,,,,,,,,,,,,,masks/mask_003.jpg,,,,,,,,,,,,,,,,,,,,,,,,,,,,,,,,,,,,,,,,,,,0,4,4,2,1,,,,,,,,,,,,,,,,,,,,,,,,,,,,,,,,,,,,,,,,,,,,,,
446892,001,2022-11-20_17h50.02.711,Info_measure_main_exp,2022.2.2,MacIntel,60.0024001,,,,,,,,,,,,,,,,,,masks/mask_003.jpg,,,,,,,,,,,,,,,,,,,,,,,,,,,,,,,,,,,,,,,,,,,,,,,,0,0,0,2,1,,,,,,,,,,,,,,,,,,,,,,,,,,,,,,,,,,,,,,,,,
446892,001,2022-11-20_17h50.02.711,Info_measure_main_exp,2022.2.2,MacIntel,60.0024001,,,,,,,,,,,,,,,,,,masks/mask_005.jpg,,,,,,,,,,,,,,,,,,,,,,,,,,,,,,,,,,,,,,,,,,,,,,,,0,1,1,4,1,,,,,,,,,,,,,,,,,,,,,,,,,,,,,,,,,,,,,,,,,
446892,001,2022-11-20_17h50.02.711,Info_measure_main_exp,2022.2.2,MacIntel,60.0024001,,,,,,,,,,,,,,,,,,masks/mask_001.jpg,,,,,,,,,,,,,,,,,,,,,,,,,,,,,,,,,,,,,,,,,,,,,,,,0,2,2,0,1,,,,,,,,,,,,,,,,,,,,,,,,,,,,,,,,,,,,,,,,,
446892,001,2022-11-20_17h50.02.711,Info_measure_main_exp,2022.2.2,MacIntel,60.0024001,,,,,,,,,,,,,,,,,,masks/mask_004.jpg,,,,,,,,,,,,,,,,,,,,,,,,,,,,,,,,,,,,,,,,,,,,,,,,0,3,3,3,1,,,,,,,,,,,,,,,,,,,,,,,,,,,,,,,,,,,,,,,,,
446892,001,2022-11-20_17h50.02.711,Info_measure_main_exp,2022.2.2,MacIntel,60.0024001,,,,,,,,,,,,,,,,,,masks/mask_002.jpg,,,,,,,,,,,,,,,,,,,,,,,,,,,,,,,,,,,,,,,,,,,,,,,,0,4,4,1,1,,,,,,,,,,,,,,,,,,,,,,,,,,,,,,,,,,,,,,,,,
446892,001,2022-11-20_17h50.02.711,Info_measure_main_exp,2022.2.2,MacIntel,60.0024001,,,,,,,,,,,,,,,,,,,,,,,,,,,,,,0,0.6502,1,,,,,,,,,,,,0,131,5,5,2154,2214,absent_patch/patch0002154.jpg,absent_patch/patch0002214.jpg,,,,,,,,,,,,,,,,,,,,-0.060242395,0.145204571,1,0,1,response7disk,13,-0.000143576,-0.001034735,1,0,1,center_square,0,12,12,67,1,,,,,,,,,,,,,,,,,,,,,,,
446892,001,2022-11-20_17h50.02.711,Info_measure_main_exp,2022.2.2,MacIntel,60.0024001,,,,,,,,,,,,,,,,,,masks/mask_002.jpg,,,,,,,,,,,,,,,,,,,,,,,,,,,,,,,,,,,,,,,,,,,0,0,0,1,1,,,,,,,,,,,,,,,,,,,,,,,,,,,,,,,,,,,,,,,,,,,,,,
446892,001,2022-11-20_17h50.02.711,Info_measure_main_exp,2022.2.2,MacIntel,60.0024001,,,,,,,,,,,,,,,,,,masks/mask_004.jpg,,,,,,,,,,,,,,,,,,,,,,,,,,,,,,,,,,,,,,,,,,,0,1,1,3,1,,,,,,,,,,,,,,,,,,,,,,,,,,,,,,,,,,,,,,,,,,,,,,
446892,001,2022-11-20_17h50.02.711,Info_measure_main_exp,2022.2.2,MacIntel,60.0024001,,,,,,,,,,,,,,,,,,masks/mask_001.jpg,,,,,,,,,,,,,,,,,,,,,,,,,,,,,,,,,,,,,,,,,,,0,2,2,0,1,,,,,,,,,,,,,,,,,,,,,,,,,,,,,,,,,,,,,,,,,,,,,,
446892,001,2022-11-20_17h50.02.711,Info_measure_main_exp,2022.2.2,MacIntel,60.0024001,,,,,,,,,,,,,,,,,,masks/mask_003.jpg,,,,,,,,,,,,,,,,,,,,,,,,,,,,,,,,,,,,,,,,,,,0,3,3,2,1,,,,,,,,,,,,,,,,,,,,,,,,,,,,,,,,,,,,,,,,,,,,,,
446892,001,2022-11-20_17h50.02.711,Info_measure_main_exp,2022.2.2,MacIntel,60.0024001,,,,,,,,,,,,,,,,,,masks/mask_005.jpg,,,,,,,,,,,,,,,,,,,,,,,,,,,,,,,,,,,,,,,,,,,0,4,4,4,1,,,,,,,,,,,,,,,,,,,,,,,,,,,,,,,,,,,,,,,,,,,,,,
446892,001,2022-11-20_17h50.02.711,Info_measure_main_exp,2022.2.2,MacIntel,60.0024001,,,,,,,,,,,,,,,,,,masks/mask_001.jpg,,,,,,,,,,,,,,,,,,,,,,,,,,,,,,,,,,,,,,,,,,,,,,,,0,0,0,0,1,,,,,,,,,,,,,,,,,,,,,,,,,,,,,,,,,,,,,,,,,
446892,001,2022-11-20_17h50.02.711,Info_measure_main_exp,2022.2.2,MacIntel,60.0024001,,,,,,,,,,,,,,,,,,masks/mask_005.jpg,,,,,,,,,,,,,,,,,,,,,,,,,,,,,,,,,,,,,,,,,,,,,,,,0,1,1,4,1,,,,,,,,,,,,,,,,,,,,,,,,,,,,,,,,,,,,,,,,,
446892,001,2022-11-20_17h50.02.711,Info_measure_main_exp,2022.2.2,MacIntel,60.0024001,,,,,,,,,,,,,,,,,,masks/mask_003.jpg,,,,,,,,,,,,,,,,,,,,,,,,,,,,,,,,,,,,,,,,,,,,,,,,0,2,2,2,1,,,,,,,,,,,,,,,,,,,,,,,,,,,,,,,,,,,,,,,,,
446892,001,2022-11-20_17h50.02.711,Info_measure_main_exp,2022.2.2,MacIntel,60.0024001,,,,,,,,,,,,,,,,,,masks/mask_004.jpg,,,,,,,,,,,,,,,,,,,,,,,,,,,,,,,,,,,,,,,,,,,,,,,,0,3,3,3,1,,,,,,,,,,,,,,,,,,,,,,,,,,,,,,,,,,,,,,,,,
446892,001,2022-11-20_17h50.02.711,Info_measure_main_exp,2022.2.2,MacIntel,60.0024001,,,,,,,,,,,,,,,,,,masks/mask_002.jpg,,,,,,,,,,,,,,,,,,,,,,,,,,,,,,,,,,,,,,,,,,,,,,,,0,4,4,1,1,,,,,,,,,,,,,,,,,,,,,,,,,,,,,,,,,,,,,,,,,
446892,001,2022-11-20_17h50.02.711,Info_measure_main_exp,2022.2.2,MacIntel,60.0024001,,,,,,,,,,,,,,,,,,,,,,,,,,,,,,4,2.2998,1,,,,,,,,,,,,0,131,5,5,2082,2298,absent_patch/patch0002082.jpg,absent_patch/patch0002298.jpg,,,,,,,,,,,,,,,,,,,,0.021174945,-0.170053074,1,0,1,response3disk,14,6.43615E-05,0.000450531,1,0,1,center_square,0,13,13,107,1,,,,,,,,,,,,,,,,,,,,,,,
446892,001,2022-11-20_17h50.02.711,Info_measure_main_exp,2022.2.2,MacIntel,60.0024001,,,,,,,,,,,,,,,,,,masks/mask_002.jpg,,,,,,,,,,,,,,,,,,,,,,,,,,,,,,,,,,,,,,,,,,,0,0,0,1,1,,,,,,,,,,,,,,,,,,,,,,,,,,,,,,,,,,,,,,,,,,,,,,
446892,001,2022-11-20_17h50.02.711,Info_measure_main_exp,2022.2.2,MacIntel,60.0024001,,,,,,,,,,,,,,,,,,masks/mask_005.jpg,,,,,,,,,,,,,,,,,,,,,,,,,,,,,,,,,,,,,,,,,,,0,1,1,4,1,,,,,,,,,,,,,,,,,,,,,,,,,,,,,,,,,,,,,,,,,,,,,,
446892,001,2022-11-20_17h50.02.711,Info_measure_main_exp,2022.2.2,MacIntel,60.0024001,,,,,,,,,,,,,,,,,,masks/mask_003.jpg,,,,,,,,,,,,,,,,,,,,,,,,,,,,,,,,,,,,,,,,,,,0,2,2,2,1,,,,,,,,,,,,,,,,,,,,,,,,,,,,,,,,,,,,,,,,,,,,,,
446892,001,2022-11-20_17h50.02.711,Info_measure_main_exp,2022.2.2,MacIntel,60.0024001,,,,,,,,,,,,,,,,,,masks/mask_004.jpg,,,,,,,,,,,,,,,,,,,,,,,,,,,,,,,,,,,,,,,,,,,0,3,3,3,1,,,,,,,,,,,,,,,,,,,,,,,,,,,,,,,,,,,,,,,,,,,,,,
446892,001,2022-11-20_17h50.02.711,Info_measure_main_exp,2022.2.2,MacIntel,60.0024001,,,,,,,,,,,,,,,,,,masks/mask_001.jpg,,,,,,,,,,,,,,,,,,,,,,,,,,,,,,,,,,,,,,,,,,,0,4,4,0,1,,,,,,,,,,,,,,,,,,,,,,,,,,,,,,,,,,,,,,,,,,,,,,
446892,001,2022-11-20_17h50.02.711,Info_measure_main_exp,2022.2.2,MacIntel,60.0024001,,,,,,,,,,,,,,,,,,masks/mask_003.jpg,,,,,,,,,,,,,,,,,,,,,,,,,,,,,,,,,,,,,,,,,,,,,,,,0,0,0,2,1,,,,,,,,,,,,,,,,,,,,,,,,,,,,,,,,,,,,,,,,,
446892,001,2022-11-20_17h50.02.711,Info_measure_main_exp,2022.2.2,MacIntel,60.0024001,,,,,,,,,,,,,,,,,,masks/mask_002.jpg,,,,,,,,,,,,,,,,,,,,,,,,,,,,,,,,,,,,,,,,,,,,,,,,0,1,1,1,1,,,,,,,,,,,,,,,,,,,,,,,,,,,,,,,,,,,,,,,,,
446892,001,2022-11-20_17h50.02.711,Info_measure_main_exp,2022.2.2,MacIntel,60.0024001,,,,,,,,,,,,,,,,,,masks/mask_004.jpg,,,,,,,,,,,,,,,,,,,,,,,,,,,,,,,,,,,,,,,,,,,,,,,,0,2,2,3,1,,,,,,,,,,,,,,,,,,,,,,,,,,,,,,,,,,,,,,,,,
446892,001,2022-11-20_17h50.02.711,Info_measure_main_exp,2022.2.2,MacIntel,60.0024001,,,,,,,,,,,,,,,,,,masks/mask_001.jpg,,,,,,,,,,,,,,,,,,,,,,,,,,,,,,,,,,,,,,,,,,,,,,,,0,3,3,0,1,,,,,,,,,,,,,,,,,,,,,,,,,,,,,,,,,,,,,,,,,
446892,001,2022-11-20_17h50.02.711,Info_measure_main_exp,2022.2.2,MacIntel,60.0024001,,,,,,,,,,,,,,,,,,masks/mask_005.jpg,,,,,,,,,,,,,,,,,,,,,,,,,,,,,,,,,,,,,,,,,,,,,,,,0,4,4,4,1,,,,,,,,,,,,,,,,,,,,,,,,,,,,,,,,,,,,,,,,,
446892,001,2022-11-20_17h50.02.711,Info_measure_main_exp,2022.2.2,MacIntel,60.0024001,,,,,,,,,,,,,,,,,,,,,,,,,,,,,,7,0.9342,1,,,,,,,,,,,,0,131,5,5,2190,2166,absent_patch/patch0002190.jpg,absent_patch/patch0002166.jpg,,,,,,,,,,,,,,,,,,,,0.062074224,0.107221364,1,0,1,response1disk,15,0.000292102,0.002965581,1,0,1,center_square,0,14,14,50,1,,,,,,,,,,,,,,,,,,,,,,,
446892,001,2022-11-20_17h50.02.711,Info_measure_main_exp,2022.2.2,MacIntel,60.0024001,,,,,,,,,,,,,,,,,,masks/mask_002.jpg,,,,,,,,,,,,,,,,,,,,,,,,,,,,,,,,,,,,,,,,,,,0,0,0,1,1,,,,,,,,,,,,,,,,,,,,,,,,,,,,,,,,,,,,,,,,,,,,,,
446892,001,2022-11-20_17h50.02.711,Info_measure_main_exp,2022.2.2,MacIntel,60.0024001,,,,,,,,,,,,,,,,,,masks/mask_003.jpg,,,,,,,,,,,,,,,,,,,,,,,,,,,,,,,,,,,,,,,,,,,0,1,1,2,1,,,,,,,,,,,,,,,,,,,,,,,,,,,,,,,,,,,,,,,,,,,,,,
446892,001,2022-11-20_17h50.02.711,Info_measure_main_exp,2022.2.2,MacIntel,60.0024001,,,,,,,,,,,,,,,,,,masks/mask_001.jpg,,,,,,,,,,,,,,,,,,,,,,,,,,,,,,,,,,,,,,,,,,,0,2,2,0,1,,,,,,,,,,,,,,,,,,,,,,,,,,,,,,,,,,,,,,,,,,,,,,
446892,001,2022-11-20_17h50.02.711,Info_measure_main_exp,2022.2.2,MacIntel,60.0024001,,,,,,,,,,,,,,,,,,masks/mask_005.jpg,,,,,,,,,,,,,,,,,,,,,,,,,,,,,,,,,,,,,,,,,,,0,3,3,4,1,,,,,,,,,,,,,,,,,,,,,,,,,,,,,,,,,,,,,,,,,,,,,,
446892,001,2022-11-20_17h50.02.711,Info_measure_main_exp,2022.2.2,MacIntel,60.0024001,,,,,,,,,,,,,,,,,,masks/mask_004.jpg,,,,,,,,,,,,,,,,,,,,,,,,,,,,,,,,,,,,,,,,,,,0,4,4,3,1,,,,,,,,,,,,,,,,,,,,,,,,,,,,,,,,,,,,,,,,,,,,,,
446892,001,2022-11-20_17h50.02.711,Info_measure_main_exp,2022.2.2,MacIntel,60.0024001,,,,,,,,,,,,,,,,,,masks/mask_002.jpg,,,,,,,,,,,,,,,,,,,,,,,,,,,,,,,,,,,,,,,,,,,,,,,,0,0,0,1,1,,,,,,,,,,,,,,,,,,,,,,,,,,,,,,,,,,,,,,,,,
446892,001,2022-11-20_17h50.02.711,Info_measure_main_exp,2022.2.2,MacIntel,60.0024001,,,,,,,,,,,,,,,,,,masks/mask_003.jpg,,,,,,,,,,,,,,,,,,,,,,,,,,,,,,,,,,,,,,,,,,,,,,,,0,1,1,2,1,,,,,,,,,,,,,,,,,,,,,,,,,,,,,,,,,,,,,,,,,
446892,001,2022-11-20_17h50.02.711,Info_measure_main_exp,2022.2.2,MacIntel,60.0024001,,,,,,,,,,,,,,,,,,masks/mask_004.jpg,,,,,,,,,,,,,,,,,,,,,,,,,,,,,,,,,,,,,,,,,,,,,,,,0,2,2,3,1,,,,,,,,,,,,,,,,,,,,,,,,,,,,,,,,,,,,,,,,,
446892,001,2022-11-20_17h50.02.711,Info_measure_main_exp,2022.2.2,MacIntel,60.0024001,,,,,,,,,,,,,,,,,,masks/mask_005.jpg,,,,,,,,,,,,,,,,,,,,,,,,,,,,,,,,,,,,,,,,,,,,,,,,0,3,3,4,1,,,,,,,,,,,,,,,,,,,,,,,,,,,,,,,,,,,,,,,,,
446892,001,2022-11-20_17h50.02.711,Info_measure_main_exp,2022.2.2,MacIntel,60.0024001,,,,,,,,,,,,,,,,,,masks/mask_001.jpg,,,,,,,,,,,,,,,,,,,,,,,,,,,,,,,,,,,,,,,,,,,,,,,,0,4,4,0,1,,,,,,,,,,,,,,,,,,,,,,,,,,,,,,,,,,,,,,,,,
446892,001,2022-11-20_17h50.02.711,Info_measure_main_exp,2022.2.2,MacIntel,60.0024001,,,,,,,,,,,,,,,,,,,,,,,,,,,,,,3,2.8006,1,,,,,,,,,,,,0,131,5,5,1974,2178,absent_patch/patch0001974.jpg,absent_patch/patch0002178.jpg,,,,,,,,,,,,,,,,,,,,-0.035275071,-0.130530141,1,0,1,response5disk,16,-0.006554975,-1.48527E-05,1,0,1,center_square,0,15,15,44,1,,,,,,,,,,,,,,,,,,,,,,,
446892,001,2022-11-20_17h50.02.711,Info_measure_main_exp,2022.2.2,MacIntel,60.0024001,,,,,,,,,,,,,,,,,,masks/mask_005.jpg,,,,,,,,,,,,,,,,,,,,,,,,,,,,,,,,,,,,,,,,,,,0,0,0,4,1,,,,,,,,,,,,,,,,,,,,,,,,,,,,,,,,,,,,,,,,,,,,,,
446892,001,2022-11-20_17h50.02.711,Info_measure_main_exp,2022.2.2,MacIntel,60.0024001,,,,,,,,,,,,,,,,,,masks/mask_003.jpg,,,,,,,,,,,,,,,,,,,,,,,,,,,,,,,,,,,,,,,,,,,0,1,1,2,1,,,,,,,,,,,,,,,,,,,,,,,,,,,,,,,,,,,,,,,,,,,,,,
446892,001,2022-11-20_17h50.02.711,Info_measure_main_exp,2022.2.2,MacIntel,60.0024001,,,,,,,,,,,,,,,,,,masks/mask_004.jpg,,,,,,,,,,,,,,,,,,,,,,,,,,,,,,,,,,,,,,,,,,,0,2,2,3,1,,,,,,,,,,,,,,,,,,,,,,,,,,,,,,,,,,,,,,,,,,,,,,
446892,001,2022-11-20_17h50.02.711,Info_measure_main_exp,2022.2.2,MacIntel,60.0024001,,,,,,,,,,,,,,,,,,masks/mask_002.jpg,,,,,,,,,,,,,,,,,,,,,,,,,,,,,,,,,,,,,,,,,,,0,3,3,1,1,,,,,,,,,,,,,,,,,,,,,,,,,,,,,,,,,,,,,,,,,,,,,,
446892,001,2022-11-20_17h50.02.711,Info_measure_main_exp,2022.2.2,MacIntel,60.0024001,,,,,,,,,,,,,,,,,,masks/mask_001.jpg,,,,,,,,,,,,,,,,,,,,,,,,,,,,,,,,,,,,,,,,,,,0,4,4,0,1,,,,,,,,,,,,,,,,,,,,,,,,,,,,,,,,,,,,,,,,,,,,,,
446892,001,2022-11-20_17h50.02.711,Info_measure_main_exp,2022.2.2,MacIntel,60.0024001,,,,,,,,,,,,,,,,,,masks/mask_002.jpg,,,,,,,,,,,,,,,,,,,,,,,,,,,,,,,,,,,,,,,,,,,,,,,,0,0,0,1,1,,,,,,,,,,,,,,,,,,,,,,,,,,,,,,,,,,,,,,,,,
446892,001,2022-11-20_17h50.02.711,Info_measure_main_exp,2022.2.2,MacIntel,60.0024001,,,,,,,,,,,,,,,,,,masks/mask_003.jpg,,,,,,,,,,,,,,,,,,,,,,,,,,,,,,,,,,,,,,,,,,,,,,,,0,1,1,2,1,,,,,,,,,,,,,,,,,,,,,,,,,,,,,,,,,,,,,,,,,
446892,001,2022-11-20_17h50.02.711,Info_measure_main_exp,2022.2.2,MacIntel,60.0024001,,,,,,,,,,,,,,,,,,masks/mask_001.jpg,,,,,,,,,,,,,,,,,,,,,,,,,,,,,,,,,,,,,,,,,,,,,,,,0,2,2,0,1,,,,,,,,,,,,,,,,,,,,,,,,,,,,,,,,,,,,,,,,,
446892,001,2022-11-20_17h50.02.711,Info_measure_main_exp,2022.2.2,MacIntel,60.0024001,,,,,,,,,,,,,,,,,,masks/mask_004.jpg,,,,,,,,,,,,,,,,,,,,,,,,,,,,,,,,,,,,,,,,,,,,,,,,0,3,3,3,1,,,,,,,,,,,,,,,,,,,,,,,,,,,,,,,,,,,,,,,,,
446892,001,2022-11-20_17h50.02.711,Info_measure_main_exp,2022.2.2,MacIntel,60.0024001,,,,,,,,,,,,,,,,,,masks/mask_005.jpg,,,,,,,,,,,,,,,,,,,,,,,,,,,,,,,,,,,,,,,,,,,,,,,,0,4,4,4,1,,,,,,,,,,,,,,,,,,,,,,,,,,,,,,,,,,,,,,,,,
446892,001,2022-11-20_17h50.02.711,Info_measure_main_exp,2022.2.2,MacIntel,60.0024001,,,,,,,,,,,,,,,,,,,,,,,,,,,,,,6,2.2825,1,,,,,,,,,,,,0,131,5,5,2190,1974,absent_patch/patch0002190.jpg,absent_patch/patch0001974.jpg,,,,,,,,,,,,,,,,,,,,0.097111652,0.016867673,1,0,1,response1disk,17,0.007267902,-0.002272457,1,0,1,center_square,0,16,16,119,1,,,,,,,,,,,,,,,,,,,,,,,
446892,001,2022-11-20_17h50.02.711,Info_measure_main_exp,2022.2.2,MacIntel,60.0024001,,,,,,,,,,,,,,,,,,masks/mask_001.jpg,,,,,,,,,,,,,,,,,,,,,,,,,,,,,,,,,,,,,,,,,,,0,0,0,0,1,,,,,,,,,,,,,,,,,,,,,,,,,,,,,,,,,,,,,,,,,,,,,,
446892,001,2022-11-20_17h50.02.711,Info_measure_main_exp,2022.2.2,MacIntel,60.0024001,,,,,,,,,,,,,,,,,,masks/mask_004.jpg,,,,,,,,,,,,,,,,,,,,,,,,,,,,,,,,,,,,,,,,,,,0,1,1,3,1,,,,,,,,,,,,,,,,,,,,,,,,,,,,,,,,,,,,,,,,,,,,,,
446892,001,2022-11-20_17h50.02.711,Info_measure_main_exp,2022.2.2,MacIntel,60.0024001,,,,,,,,,,,,,,,,,,masks/mask_005.jpg,,,,,,,,,,,,,,,,,,,,,,,,,,,,,,,,,,,,,,,,,,,0,2,2,4,1,,,,,,,,,,,,,,,,,,,,,,,,,,,,,,,,,,,,,,,,,,,,,,
446892,001,2022-11-20_17h50.02.711,Info_measure_main_exp,2022.2.2,MacIntel,60.0024001,,,,,,,,,,,,,,,,,,masks/mask_003.jpg,,,,,,,,,,,,,,,,,,,,,,,,,,,,,,,,,,,,,,,,,,,0,3,3,2,1,,,,,,,,,,,,,,,,,,,,,,,,,,,,,,,,,,,,,,,,,,,,,,
446892,001,2022-11-20_17h50.02.711,Info_measure_main_exp,2022.2.2,MacIntel,60.0024001,,,,,,,,,,,,,,,,,,masks/mask_002.jpg,,,,,,,,,,,,,,,,,,,,,,,,,,,,,,,,,,,,,,,,,,,0,4,4,1,1,,,,,,,,,,,,,,,,,,,,,,,,,,,,,,,,,,,,,,,,,,,,,,
446892,001,2022-11-20_17h50.02.711,Info_measure_main_exp,2022.2.2,MacIntel,60.0024001,,,,,,,,,,,,,,,,,,masks/mask_004.jpg,,,,,,,,,,,,,,,,,,,,,,,,,,,,,,,,,,,,,,,,,,,,,,,,0,0,0,3,1,,,,,,,,,,,,,,,,,,,,,,,,,,,,,,,,,,,,,,,,,
446892,001,2022-11-20_17h50.02.711,Info_measure_main_exp,2022.2.2,MacIntel,60.0024001,,,,,,,,,,,,,,,,,,masks/mask_005.jpg,,,,,,,,,,,,,,,,,,,,,,,,,,,,,,,,,,,,,,,,,,,,,,,,0,1,1,4,1,,,,,,,,,,,,,,,,,,,,,,,,,,,,,,,,,,,,,,,,,
446892,001,2022-11-20_17h50.02.711,Info_measure_main_exp,2022.2.2,MacIntel,60.0024001,,,,,,,,,,,,,,,,,,masks/mask_002.jpg,,,,,,,,,,,,,,,,,,,,,,,,,,,,,,,,,,,,,,,,,,,,,,,,0,2,2,1,1,,,,,,,,,,,,,,,,,,,,,,,,,,,,,,,,,,,,,,,,,
446892,001,2022-11-20_17h50.02.711,Info_measure_main_exp,2022.2.2,MacIntel,60.0024001,,,,,,,,,,,,,,,,,,masks/mask_001.jpg,,,,,,,,,,,,,,,,,,,,,,,,,,,,,,,,,,,,,,,,,,,,,,,,0,3,3,0,1,,,,,,,,,,,,,,,,,,,,,,,,,,,,,,,,,,,,,,,,,
446892,001,2022-11-20_17h50.02.711,Info_measure_main_exp,2022.2.2,MacIntel,60.0024001,,,,,,,,,,,,,,,,,,masks/mask_003.jpg,,,,,,,,,,,,,,,,,,,,,,,,,,,,,,,,,,,,,,,,,,,,,,,,0,4,4,2,1,,,,,,,,,,,,,,,,,,,,,,,,,,,,,,,,,,,,,,,,,
446892,001,2022-11-20_17h50.02.711,Info_measure_main_exp,2022.2.2,MacIntel,60.0024001,,,,,,,,,,,,,,,,,,,,,,,,,,,,,,5,1.0161,1,,,,,,,,,,,,0,131,5,5,1950,2298,absent_patch/patch0001950.jpg,absent_patch/patch0002298.jpg,,,,,,,,,,,,,,,,,,,,0.07884783,-0.033878921,1,0,1,response3disk,18,0.007753089,-0.006951046,1,0,1,center_square,0,17,17,18,1,,,,,,,,,,,,,,,,,,,,,,,
446892,001,2022-11-20_17h50.02.711,Info_measure_main_exp,2022.2.2,MacIntel,60.0024001,,,,,,,,,,,,,,,,,,masks/mask_001.jpg,,,,,,,,,,,,,,,,,,,,,,,,,,,,,,,,,,,,,,,,,,,0,0,0,0,1,,,,,,,,,,,,,,,,,,,,,,,,,,,,,,,,,,,,,,,,,,,,,,
446892,001,2022-11-20_17h50.02.711,Info_measure_main_exp,2022.2.2,MacIntel,60.0024001,,,,,,,,,,,,,,,,,,masks/mask_002.jpg,,,,,,,,,,,,,,,,,,,,,,,,,,,,,,,,,,,,,,,,,,,0,1,1,1,1,,,,,,,,,,,,,,,,,,,,,,,,,,,,,,,,,,,,,,,,,,,,,,
446892,001,2022-11-20_17h50.02.711,Info_measure_main_exp,2022.2.2,MacIntel,60.0024001,,,,,,,,,,,,,,,,,,masks/mask_005.jpg,,,,,,,,,,,,,,,,,,,,,,,,,,,,,,,,,,,,,,,,,,,0,2,2,4,1,,,,,,,,,,,,,,,,,,,,,,,,,,,,,,,,,,,,,,,,,,,,,,
446892,001,2022-11-20_17h50.02.711,Info_measure_main_exp,2022.2.2,MacIntel,60.0024001,,,,,,,,,,,,,,,,,,masks/mask_003.jpg,,,,,,,,,,,,,,,,,,,,,,,,,,,,,,,,,,,,,,,,,,,0,3,3,2,1,,,,,,,,,,,,,,,,,,,,,,,,,,,,,,,,,,,,,,,,,,,,,,
446892,001,2022-11-20_17h50.02.711,Info_measure_main_exp,2022.2.2,MacIntel,60.0024001,,,,,,,,,,,,,,,,,,masks/mask_004.jpg,,,,,,,,,,,,,,,,,,,,,,,,,,,,,,,,,,,,,,,,,,,0,4,4,3,1,,,,,,,,,,,,,,,,,,,,,,,,,,,,,,,,,,,,,,,,,,,,,,
446892,001,2022-11-20_17h50.02.711,Info_measure_main_exp,2022.2.2,MacIntel,60.0024001,,,,,,,,,,,,,,,,,,masks/mask_001.jpg,,,,,,,,,,,,,,,,,,,,,,,,,,,,,,,,,,,,,,,,,,,,,,,,0,0,0,0,1,,,,,,,,,,,,,,,,,,,,,,,,,,,,,,,,,,,,,,,,,
446892,001,2022-11-20_17h50.02.711,Info_measure_main_exp,2022.2.2,MacIntel,60.0024001,,,,,,,,,,,,,,,,,,masks/mask_005.jpg,,,,,,,,,,,,,,,,,,,,,,,,,,,,,,,,,,,,,,,,,,,,,,,,0,1,1,4,1,,,,,,,,,,,,,,,,,,,,,,,,,,,,,,,,,,,,,,,,,
446892,001,2022-11-20_17h50.02.711,Info_measure_main_exp,2022.2.2,MacIntel,60.0024001,,,,,,,,,,,,,,,,,,masks/mask_004.jpg,,,,,,,,,,,,,,,,,,,,,,,,,,,,,,,,,,,,,,,,,,,,,,,,0,2,2,3,1,,,,,,,,,,,,,,,,,,,,,,,,,,,,,,,,,,,,,,,,,
446892,001,2022-11-20_17h50.02.711,Info_measure_main_exp,2022.2.2,MacIntel,60.0024001,,,,,,,,,,,,,,,,,,masks/mask_002.jpg,,,,,,,,,,,,,,,,,,,,,,,,,,,,,,,,,,,,,,,,,,,,,,,,0,3,3,1,1,,,,,,,,,,,,,,,,,,,,,,,,,,,,,,,,,,,,,,,,,
446892,001,2022-11-20_17h50.02.711,Info_measure_main_exp,2022.2.2,MacIntel,60.0024001,,,,,,,,,,,,,,,,,,masks/mask_003.jpg,,,,,,,,,,,,,,,,,,,,,,,,,,,,,,,,,,,,,,,,,,,,,,,,0,4,4,2,1,,,,,,,,,,,,,,,,,,,,,,,,,,,,,,,,,,,,,,,,,
446892,001,2022-11-20_17h50.02.711,Info_measure_main_exp,2022.2.2,MacIntel,60.0024001,,,,,,,,,,,,,,,,,,,,,,,,,,,,,,7,1.1665,1,,,,,,,,,,,,0,131,5,5,2274,2214,absent_patch/patch0002274.jpg,absent_patch/patch0002214.jpg,,,,,,,,,,,,,,,,,,,,0.038696134,0.063777329,1,0,1,response1disk,19,0.011312777,-0.007733286,1,0,1,center_square,0,18,18,11,1,,,,,,,,,,,,,,,,,,,,,,,
446892,001,2022-11-20_17h50.02.711,Info_measure_main_exp,2022.2.2,MacIntel,60.0024001,,,,,,,,,,,,,,,,,,masks/mask_001.jpg,,,,,,,,,,,,,,,,,,,,,,,,,,,,,,,,,,,,,,,,,,,0,0,0,0,1,,,,,,,,,,,,,,,,,,,,,,,,,,,,,,,,,,,,,,,,,,,,,,
446892,001,2022-11-20_17h50.02.711,Info_measure_main_exp,2022.2.2,MacIntel,60.0024001,,,,,,,,,,,,,,,,,,masks/mask_005.jpg,,,,,,,,,,,,,,,,,,,,,,,,,,,,,,,,,,,,,,,,,,,0,1,1,4,1,,,,,,,,,,,,,,,,,,,,,,,,,,,,,,,,,,,,,,,,,,,,,,
446892,001,2022-11-20_17h50.02.711,Info_measure_main_exp,2022.2.2,MacIntel,60.0024001,,,,,,,,,,,,,,,,,,masks/mask_004.jpg,,,,,,,,,,,,,,,,,,,,,,,,,,,,,,,,,,,,,,,,,,,0,2,2,3,1,,,,,,,,,,,,,,,,,,,,,,,,,,,,,,,,,,,,,,,,,,,,,,
446892,001,2022-11-20_17h50.02.711,Info_measure_main_exp,2022.2.2,MacIntel,60.0024001,,,,,,,,,,,,,,,,,,masks/mask_003.jpg,,,,,,,,,,,,,,,,,,,,,,,,,,,,,,,,,,,,,,,,,,,0,3,3,2,1,,,,,,,,,,,,,,,,,,,,,,,,,,,,,,,,,,,,,,,,,,,,,,
446892,001,2022-11-20_17h50.02.711,Info_measure_main_exp,2022.2.2,MacIntel,60.0024001,,,,,,,,,,,,,,,,,,masks/mask_002.jpg,,,,,,,,,,,,,,,,,,,,,,,,,,,,,,,,,,,,,,,,,,,0,4,4,1,1,,,,,,,,,,,,,,,,,,,,,,,,,,,,,,,,,,,,,,,,,,,,,,
446892,001,2022-11-20_17h50.02.711,Info_measure_main_exp,2022.2.2,MacIntel,60.0024001,,,,,,,,,,,,,,,,,,masks/mask_003.jpg,,,,,,,,,,,,,,,,,,,,,,,,,,,,,,,,,,,,,,,,,,,,,,,,0,0,0,2,1,,,,,,,,,,,,,,,,,,,,,,,,,,,,,,,,,,,,,,,,,
446892,001,2022-11-20_17h50.02.711,Info_measure_main_exp,2022.2.2,MacIntel,60.0024001,,,,,,,,,,,,,,,,,,masks/mask_001.jpg,,,,,,,,,,,,,,,,,,,,,,,,,,,,,,,,,,,,,,,,,,,,,,,,0,1,1,0,1,,,,,,,,,,,,,,,,,,,,,,,,,,,,,,,,,,,,,,,,,
446892,001,2022-11-20_17h50.02.711,Info_measure_main_exp,2022.2.2,MacIntel,60.0024001,,,,,,,,,,,,,,,,,,masks/mask_002.jpg,,,,,,,,,,,,,,,,,,,,,,,,,,,,,,,,,,,,,,,,,,,,,,,,0,2,2,1,1,,,,,,,,,,,,,,,,,,,,,,,,,,,,,,,,,,,,,,,,,
446892,001,2022-11-20_17h50.02.711,Info_measure_main_exp,2022.2.2,MacIntel,60.0024001,,,,,,,,,,,,,,,,,,masks/mask_005.jpg,,,,,,,,,,,,,,,,,,,,,,,,,,,,,,,,,,,,,,,,,,,,,,,,0,3,3,4,1,,,,,,,,,,,,,,,,,,,,,,,,,,,,,,,,,,,,,,,,,
446892,001,2022-11-20_17h50.02.711,Info_measure_main_exp,2022.2.2,MacIntel,60.0024001,,,,,,,,,,,,,,,,,,masks/mask_004.jpg,,,,,,,,,,,,,,,,,,,,,,,,,,,,,,,,,,,,,,,,,,,,,,,,0,4,4,3,1,,,,,,,,,,,,,,,,,,,,,,,,,,,,,,,,,,,,,,,,,
446892,001,2022-11-20_17h50.02.711,Info_measure_main_exp,2022.2.2,MacIntel,60.0024001,,,,,,,,,,,,,,,,,,,,,,,,,,,,,,4,2.5492,1,,,,,,,,,,,,0,131,5,5,2190,2178,absent_patch/patch0002190.jpg,absent_patch/patch0002178.jpg,,,,,,,,,,,,,,,,,,,,0.007901616,-0.11791033,1,0,1,response3disk,20,0.009426489,0.001529824,1,0,1,center_square,0,19,19,14,1,,,,,,,,,,,,,,,,,,,,,,,
446892,001,2022-11-20_17h50.02.711,Info_measure_main_exp,2022.2.2,MacIntel,60.0024001,,,,,,,,,,,,,,,,,,masks/mask_001.jpg,,,,,,,,,,,,,,,,,,,,,,,,,,,,,,,,,,,,,,,,,,,0,0,0,0,1,,,,,,,,,,,,,,,,,,,,,,,,,,,,,,,,,,,,,,,,,,,,,,
446892,001,2022-11-20_17h50.02.711,Info_measure_main_exp,2022.2.2,MacIntel,60.0024001,,,,,,,,,,,,,,,,,,masks/mask_004.jpg,,,,,,,,,,,,,,,,,,,,,,,,,,,,,,,,,,,,,,,,,,,0,1,1,3,1,,,,,,,,,,,,,,,,,,,,,,,,,,,,,,,,,,,,,,,,,,,,,,
446892,001,2022-11-20_17h50.02.711,Info_measure_main_exp,2022.2.2,MacIntel,60.0024001,,,,,,,,,,,,,,,,,,masks/mask_002.jpg,,,,,,,,,,,,,,,,,,,,,,,,,,,,,,,,,,,,,,,,,,,0,2,2,1,1,,,,,,,,,,,,,,,,,,,,,,,,,,,,,,,,,,,,,,,,,,,,,,
446892,001,2022-11-20_17h50.02.711,Info_measure_main_exp,2022.2.2,MacIntel,60.0024001,,,,,,,,,,,,,,,,,,masks/mask_005.jpg,,,,,,,,,,,,,,,,,,,,,,,,,,,,,,,,,,,,,,,,,,,0,3,3,4,1,,,,,,,,,,,,,,,,,,,,,,,,,,,,,,,,,,,,,,,,,,,,,,
446892,001,2022-11-20_17h50.02.711,Info_measure_main_exp,2022.2.2,MacIntel,60.0024001,,,,,,,,,,,,,,,,,,masks/mask_003.jpg,,,,,,,,,,,,,,,,,,,,,,,,,,,,,,,,,,,,,,,,,,,0,4,4,2,1,,,,,,,,,,,,,,,,,,,,,,,,,,,,,,,,,,,,,,,,,,,,,,
446892,001,2022-11-20_17h50.02.711,Info_measure_main_exp,2022.2.2,MacIntel,60.0024001,,,,,,,,,,,,,,,,,,masks/mask_005.jpg,,,,,,,,,,,,,,,,,,,,,,,,,,,,,,,,,,,,,,,,,,,,,,,,0,0,0,4,1,,,,,,,,,,,,,,,,,,,,,,,,,,,,,,,,,,,,,,,,,
446892,001,2022-11-20_17h50.02.711,Info_measure_main_exp,2022.2.2,MacIntel,60.0024001,,,,,,,,,,,,,,,,,,masks/mask_001.jpg,,,,,,,,,,,,,,,,,,,,,,,,,,,,,,,,,,,,,,,,,,,,,,,,0,1,1,0,1,,,,,,,,,,,,,,,,,,,,,,,,,,,,,,,,,,,,,,,,,
446892,001,2022-11-20_17h50.02.711,Info_measure_main_exp,2022.2.2,MacIntel,60.0024001,,,,,,,,,,,,,,,,,,masks/mask_003.jpg,,,,,,,,,,,,,,,,,,,,,,,,,,,,,,,,,,,,,,,,,,,,,,,,0,2,2,2,1,,,,,,,,,,,,,,,,,,,,,,,,,,,,,,,,,,,,,,,,,
446892,001,2022-11-20_17h50.02.711,Info_measure_main_exp,2022.2.2,MacIntel,60.0024001,,,,,,,,,,,,,,,,,,masks/mask_004.jpg,,,,,,,,,,,,,,,,,,,,,,,,,,,,,,,,,,,,,,,,,,,,,,,,0,3,3,3,1,,,,,,,,,,,,,,,,,,,,,,,,,,,,,,,,,,,,,,,,,
446892,001,2022-11-20_17h50.02.711,Info_measure_main_exp,2022.2.2,MacIntel,60.0024001,,,,,,,,,,,,,,,,,,masks/mask_002.jpg,,,,,,,,,,,,,,,,,,,,,,,,,,,,,,,,,,,,,,,,,,,,,,,,0,4,4,1,1,,,,,,,,,,,,,,,,,,,,,,,,,,,,,,,,,,,,,,,,,
446892,001,2022-11-20_17h50.02.711,Info_measure_main_exp,2022.2.2,MacIntel,60.0024001,,,,,,,,,,,,,,,,,,,,,,,,,,,,,,4,0.6997,1,,,,,,,,,,,,0,131,5,5,2190,2190,absent_patch/patch0002190.jpg,absent_patch/patch0002190.jpg,,,,,,,,,,,,,,,,,,,,0.072664171,-0.116999366,1,0,1,response3disk,21,-0.002693283,-0.004450848,1,0,1,center_square,0,20,20,86,1,,,,,,,,,,,,,,,,,,,,,,,
446892,001,2022-11-20_17h50.02.711,Info_measure_main_exp,2022.2.2,MacIntel,60.0024001,,,,,,,,,,,,,,,,,,masks/mask_004.jpg,,,,,,,,,,,,,,,,,,,,,,,,,,,,,,,,,,,,,,,,,,,0,0,0,3,1,,,,,,,,,,,,,,,,,,,,,,,,,,,,,,,,,,,,,,,,,,,,,,
446892,001,2022-11-20_17h50.02.711,Info_measure_main_exp,2022.2.2,MacIntel,60.0024001,,,,,,,,,,,,,,,,,,masks/mask_002.jpg,,,,,,,,,,,,,,,,,,,,,,,,,,,,,,,,,,,,,,,,,,,0,1,1,1,1,,,,,,,,,,,,,,,,,,,,,,,,,,,,,,,,,,,,,,,,,,,,,,
446892,001,2022-11-20_17h50.02.711,Info_measure_main_exp,2022.2.2,MacIntel,60.0024001,,,,,,,,,,,,,,,,,,masks/mask_003.jpg,,,,,,,,,,,,,,,,,,,,,,,,,,,,,,,,,,,,,,,,,,,0,2,2,2,1,,,,,,,,,,,,,,,,,,,,,,,,,,,,,,,,,,,,,,,,,,,,,,
446892,001,2022-11-20_17h50.02.711,Info_measure_main_exp,2022.2.2,MacIntel,60.0024001,,,,,,,,,,,,,,,,,,masks/mask_005.jpg,,,,,,,,,,,,,,,,,,,,,,,,,,,,,,,,,,,,,,,,,,,0,3,3,4,1,,,,,,,,,,,,,,,,,,,,,,,,,,,,,,,,,,,,,,,,,,,,,,
446892,001,2022-11-20_17h50.02.711,Info_measure_main_exp,2022.2.2,MacIntel,60.0024001,,,,,,,,,,,,,,,,,,masks/mask_001.jpg,,,,,,,,,,,,,,,,,,,,,,,,,,,,,,,,,,,,,,,,,,,0,4,4,0,1,,,,,,,,,,,,,,,,,,,,,,,,,,,,,,,,,,,,,,,,,,,,,,
446892,001,2022-11-20_17h50.02.711,Info_measure_main_exp,2022.2.2,MacIntel,60.0024001,,,,,,,,,,,,,,,,,,masks/mask_005.jpg,,,,,,,,,,,,,,,,,,,,,,,,,,,,,,,,,,,,,,,,,,,,,,,,0,0,0,4,1,,,,,,,,,,,,,,,,,,,,,,,,,,,,,,,,,,,,,,,,,
446892,001,2022-11-20_17h50.02.711,Info_measure_main_exp,2022.2.2,MacIntel,60.0024001,,,,,,,,,,,,,,,,,,masks/mask_003.jpg,,,,,,,,,,,,,,,,,,,,,,,,,,,,,,,,,,,,,,,,,,,,,,,,0,1,1,2,1,,,,,,,,,,,,,,,,,,,,,,,,,,,,,,,,,,,,,,,,,
446892,001,2022-11-20_17h50.02.711,Info_measure_main_exp,2022.2.2,MacIntel,60.0024001,,,,,,,,,,,,,,,,,,masks/mask_004.jpg,,,,,,,,,,,,,,,,,,,,,,,,,,,,,,,,,,,,,,,,,,,,,,,,0,2,2,3,1,,,,,,,,,,,,,,,,,,,,,,,,,,,,,,,,,,,,,,,,,
446892,001,2022-11-20_17h50.02.711,Info_measure_main_exp,2022.2.2,MacIntel,60.0024001,,,,,,,,,,,,,,,,,,masks/mask_001.jpg,,,,,,,,,,,,,,,,,,,,,,,,,,,,,,,,,,,,,,,,,,,,,,,,0,3,3,0,1,,,,,,,,,,,,,,,,,,,,,,,,,,,,,,,,,,,,,,,,,
446892,001,2022-11-20_17h50.02.711,Info_measure_main_exp,2022.2.2,MacIntel,60.0024001,,,,,,,,,,,,,,,,,,masks/mask_002.jpg,,,,,,,,,,,,,,,,,,,,,,,,,,,,,,,,,,,,,,,,,,,,,,,,0,4,4,1,1,,,,,,,,,,,,,,,,,,,,,,,,,,,,,,,,,,,,,,,,,
446892,001,2022-11-20_17h50.02.711,Info_measure_main_exp,2022.2.2,MacIntel,60.0024001,,,,,,,,,,,,,,,,,,,,,,,,,,,,,,1,1.5485,1,,,,,,,,,,,,0,131,5,5,1950,2178,absent_patch/patch0001950.jpg,absent_patch/patch0002178.jpg,,,,,,,,,,,,,,,,,,,,-0.117093433,0.015649754,1,0,1,response7disk,22,0.011302875,0.000792142,1,0,1,center_square,0,21,21,61,1,,,,,,,,,,,,,,,,,,,,,,,
446892,001,2022-11-20_17h50.02.711,Info_measure_main_exp,2022.2.2,MacIntel,60.0024001,,,,,,,,,,,,,,,,,,masks/mask_001.jpg,,,,,,,,,,,,,,,,,,,,,,,,,,,,,,,,,,,,,,,,,,,0,0,0,0,1,,,,,,,,,,,,,,,,,,,,,,,,,,,,,,,,,,,,,,,,,,,,,,
446892,001,2022-11-20_17h50.02.711,Info_measure_main_exp,2022.2.2,MacIntel,60.0024001,,,,,,,,,,,,,,,,,,masks/mask_002.jpg,,,,,,,,,,,,,,,,,,,,,,,,,,,,,,,,,,,,,,,,,,,0,1,1,1,1,,,,,,,,,,,,,,,,,,,,,,,,,,,,,,,,,,,,,,,,,,,,,,
446892,001,2022-11-20_17h50.02.711,Info_measure_main_exp,2022.2.2,MacIntel,60.0024001,,,,,,,,,,,,,,,,,,masks/mask_005.jpg,,,,,,,,,,,,,,,,,,,,,,,,,,,,,,,,,,,,,,,,,,,0,2,2,4,1,,,,,,,,,,,,,,,,,,,,,,,,,,,,,,,,,,,,,,,,,,,,,,
446892,001,2022-11-20_17h50.02.711,Info_measure_main_exp,2022.2.2,MacIntel,60.0024001,,,,,,,,,,,,,,,,,,masks/mask_004.jpg,,,,,,,,,,,,,,,,,,,,,,,,,,,,,,,,,,,,,,,,,,,0,3,3,3,1,,,,,,,,,,,,,,,,,,,,,,,,,,,,,,,,,,,,,,,,,,,,,,
446892,001,2022-11-20_17h50.02.711,Info_measure_main_exp,2022.2.2,MacIntel,60.0024001,,,,,,,,,,,,,,,,,,masks/mask_003.jpg,,,,,,,,,,,,,,,,,,,,,,,,,,,,,,,,,,,,,,,,,,,0,4,4,2,1,,,,,,,,,,,,,,,,,,,,,,,,,,,,,,,,,,,,,,,,,,,,,,
446892,001,2022-11-20_17h50.02.711,Info_measure_main_exp,2022.2.2,MacIntel,60.0024001,,,,,,,,,,,,,,,,,,masks/mask_004.jpg,,,,,,,,,,,,,,,,,,,,,,,,,,,,,,,,,,,,,,,,,,,,,,,,0,0,0,3,1,,,,,,,,,,,,,,,,,,,,,,,,,,,,,,,,,,,,,,,,,
446892,001,2022-11-20_17h50.02.711,Info_measure_main_exp,2022.2.2,MacIntel,60.0024001,,,,,,,,,,,,,,,,,,masks/mask_001.jpg,,,,,,,,,,,,,,,,,,,,,,,,,,,,,,,,,,,,,,,,,,,,,,,,0,1,1,0,1,,,,,,,,,,,,,,,,,,,,,,,,,,,,,,,,,,,,,,,,,
446892,001,2022-11-20_17h50.02.711,Info_measure_main_exp,2022.2.2,MacIntel,60.0024001,,,,,,,,,,,,,,,,,,masks/mask_005.jpg,,,,,,,,,,,,,,,,,,,,,,,,,,,,,,,,,,,,,,,,,,,,,,,,0,2,2,4,1,,,,,,,,,,,,,,,,,,,,,,,,,,,,,,,,,,,,,,,,,
446892,001,2022-11-20_17h50.02.711,Info_measure_main_exp,2022.2.2,MacIntel,60.0024001,,,,,,,,,,,,,,,,,,masks/mask_002.jpg,,,,,,,,,,,,,,,,,,,,,,,,,,,,,,,,,,,,,,,,,,,,,,,,0,3,3,1,1,,,,,,,,,,,,,,,,,,,,,,,,,,,,,,,,,,,,,,,,,
446892,001,2022-11-20_17h50.02.711,Info_measure_main_exp,2022.2.2,MacIntel,60.0024001,,,,,,,,,,,,,,,,,,masks/mask_003.jpg,,,,,,,,,,,,,,,,,,,,,,,,,,,,,,,,,,,,,,,,,,,,,,,,0,4,4,2,1,,,,,,,,,,,,,,,,,,,,,,,,,,,,,,,,,,,,,,,,,
446892,001,2022-11-20_17h50.02.711,Info_measure_main_exp,2022.2.2,MacIntel,60.0024001,,,,,,,,,,,,,,,,,,,,,,,,,,,,,,6,1.2832,1,,,,,,,,,,,,1,131,5,5,1,1,present_patch/cong_131_5_a.jpg,present_patch/cong_131_5_a.jpg,,,,,,,,,,,,,,,,,,,,0.14414013,0.009203699,1,0,1,response1disk,23,-0.010961264,-0.004485504,1,0,1,center_square,0,22,22,30,1,,,,,,,,,,,,,,,,,,,,,,,
446892,001,2022-11-20_17h50.02.711,Info_measure_main_exp,2022.2.2,MacIntel,60.0024001,,,,,,,,,,,,,,,,,,masks/mask_004.jpg,,,,,,,,,,,,,,,,,,,,,,,,,,,,,,,,,,,,,,,,,,,0,0,0,3,1,,,,,,,,,,,,,,,,,,,,,,,,,,,,,,,,,,,,,,,,,,,,,,
446892,001,2022-11-20_17h50.02.711,Info_measure_main_exp,2022.2.2,MacIntel,60.0024001,,,,,,,,,,,,,,,,,,masks/mask_002.jpg,,,,,,,,,,,,,,,,,,,,,,,,,,,,,,,,,,,,,,,,,,,0,1,1,1,1,,,,,,,,,,,,,,,,,,,,,,,,,,,,,,,,,,,,,,,,,,,,,,
446892,001,2022-11-20_17h50.02.711,Info_measure_main_exp,2022.2.2,MacIntel,60.0024001,,,,,,,,,,,,,,,,,,masks/mask_003.jpg,,,,,,,,,,,,,,,,,,,,,,,,,,,,,,,,,,,,,,,,,,,0,2,2,2,1,,,,,,,,,,,,,,,,,,,,,,,,,,,,,,,,,,,,,,,,,,,,,,
446892,001,2022-11-20_17h50.02.711,Info_measure_main_exp,2022.2.2,MacIntel,60.0024001,,,,,,,,,,,,,,,,,,masks/mask_005.jpg,,,,,,,,,,,,,,,,,,,,,,,,,,,,,,,,,,,,,,,,,,,0,3,3,4,1,,,,,,,,,,,,,,,,,,,,,,,,,,,,,,,,,,,,,,,,,,,,,,
446892,001,2022-11-20_17h50.02.711,Info_measure_main_exp,2022.2.2,MacIntel,60.0024001,,,,,,,,,,,,,,,,,,masks/mask_001.jpg,,,,,,,,,,,,,,,,,,,,,,,,,,,,,,,,,,,,,,,,,,,0,4,4,0,1,,,,,,,,,,,,,,,,,,,,,,,,,,,,,,,,,,,,,,,,,,,,,,
446892,001,2022-11-20_17h50.02.711,Info_measure_main_exp,2022.2.2,MacIntel,60.0024001,,,,,,,,,,,,,,,,,,masks/mask_002.jpg,,,,,,,,,,,,,,,,,,,,,,,,,,,,,,,,,,,,,,,,,,,,,,,,0,0,0,1,1,,,,,,,,,,,,,,,,,,,,,,,,,,,,,,,,,,,,,,,,,
446892,001,2022-11-20_17h50.02.711,Info_measure_main_exp,2022.2.2,MacIntel,60.0024001,,,,,,,,,,,,,,,,,,masks/mask_003.jpg,,,,,,,,,,,,,,,,,,,,,,,,,,,,,,,,,,,,,,,,,,,,,,,,0,1,1,2,1,,,,,,,,,,,,,,,,,,,,,,,,,,,,,,,,,,,,,,,,,
446892,001,2022-11-20_17h50.02.711,Info_measure_main_exp,2022.2.2,MacIntel,60.0024001,,,,,,,,,,,,,,,,,,masks/mask_001.jpg,,,,,,,,,,,,,,,,,,,,,,,,,,,,,,,,,,,,,,,,,,,,,,,,0,2,2,0,1,,,,,,,,,,,,,,,,,,,,,,,,,,,,,,,,,,,,,,,,,
446892,001,2022-11-20_17h50.02.711,Info_measure_main_exp,2022.2.2,MacIntel,60.0024001,,,,,,,,,,,,,,,,,,masks/mask_005.jpg,,,,,,,,,,,,,,,,,,,,,,,,,,,,,,,,,,,,,,,,,,,,,,,,0,3,3,4,1,,,,,,,,,,,,,,,,,,,,,,,,,,,,,,,,,,,,,,,,,
446892,001,2022-11-20_17h50.02.711,Info_measure_main_exp,2022.2.2,MacIntel,60.0024001,,,,,,,,,,,,,,,,,,masks/mask_004.jpg,,,,,,,,,,,,,,,,,,,,,,,,,,,,,,,,,,,,,,,,,,,,,,,,0,4,4,3,1,,,,,,,,,,,,,,,,,,,,,,,,,,,,,,,,,,,,,,,,,
446892,001,2022-11-20_17h50.02.711,Info_measure_main_exp,2022.2.2,MacIntel,60.0024001,,,,,,,,,,,,,,,,,,,,,,,,,,,,,,5,1.5836,1,,,,,,,,,,,,0,131,5,5,2250,1950,absent_patch/patch0002250.jpg,absent_patch/patch0001950.jpg,,,,,,,,,,,,,,,,,,,,0.129837017,-0.101661518,1,0,1,response3disk,24,-0.003614148,-0.010139417,1,0,1,center_square,0,23,23,16,1,,,,,,,,,,,,,,,,,,,,,,,
446892,001,2022-11-20_17h50.02.711,Info_measure_main_exp,2022.2.2,MacIntel,60.0024001,,,,,,,,,,,,,,,,,,masks/mask_003.jpg,,,,,,,,,,,,,,,,,,,,,,,,,,,,,,,,,,,,,,,,,,,0,0,0,2,1,,,,,,,,,,,,,,,,,,,,,,,,,,,,,,,,,,,,,,,,,,,,,,
446892,001,2022-11-20_17h50.02.711,Info_measure_main_exp,2022.2.2,MacIntel,60.0024001,,,,,,,,,,,,,,,,,,masks/mask_001.jpg,,,,,,,,,,,,,,,,,,,,,,,,,,,,,,,,,,,,,,,,,,,0,1,1,0,1,,,,,,,,,,,,,,,,,,,,,,,,,,,,,,,,,,,,,,,,,,,,,,
446892,001,2022-11-20_17h50.02.711,Info_measure_main_exp,2022.2.2,MacIntel,60.0024001,,,,,,,,,,,,,,,,,,masks/mask_005.jpg,,,,,,,,,,,,,,,,,,,,,,,,,,,,,,,,,,,,,,,,,,,0,2,2,4,1,,,,,,,,,,,,,,,,,,,,,,,,,,,,,,,,,,,,,,,,,,,,,,
446892,001,2022-11-20_17h50.02.711,Info_measure_main_exp,2022.2.2,MacIntel,60.0024001,,,,,,,,,,,,,,,,,,masks/mask_002.jpg,,,,,,,,,,,,,,,,,,,,,,,,,,,,,,,,,,,,,,,,,,,0,3,3,1,1,,,,,,,,,,,,,,,,,,,,,,,,,,,,,,,,,,,,,,,,,,,,,,
446892,001,2022-11-20_17h50.02.711,Info_measure_main_exp,2022.2.2,MacIntel,60.0024001,,,,,,,,,,,,,,,,,,masks/mask_004.jpg,,,,,,,,,,,,,,,,,,,,,,,,,,,,,,,,,,,,,,,,,,,0,4,4,3,1,,,,,,,,,,,,,,,,,,,,,,,,,,,,,,,,,,,,,,,,,,,,,,
446892,001,2022-11-20_17h50.02.711,Info_measure_main_exp,2022.2.2,MacIntel,60.0024001,,,,,,,,,,,,,,,,,,masks/mask_005.jpg,,,,,,,,,,,,,,,,,,,,,,,,,,,,,,,,,,,,,,,,,,,,,,,,0,0,0,4,1,,,,,,,,,,,,,,,,,,,,,,,,,,,,,,,,,,,,,,,,,
446892,001,2022-11-20_17h50.02.711,Info_measure_main_exp,2022.2.2,MacIntel,60.0024001,,,,,,,,,,,,,,,,,,masks/mask_001.jpg,,,,,,,,,,,,,,,,,,,,,,,,,,,,,,,,,,,,,,,,,,,,,,,,0,1,1,0,1,,,,,,,,,,,,,,,,,,,,,,,,,,,,,,,,,,,,,,,,,
446892,001,2022-11-20_17h50.02.711,Info_measure_main_exp,2022.2.2,MacIntel,60.0024001,,,,,,,,,,,,,,,,,,masks/mask_004.jpg,,,,,,,,,,,,,,,,,,,,,,,,,,,,,,,,,,,,,,,,,,,,,,,,0,2,2,3,1,,,,,,,,,,,,,,,,,,,,,,,,,,,,,,,,,,,,,,,,,
446892,001,2022-11-20_17h50.02.711,Info_measure_main_exp,2022.2.2,MacIntel,60.0024001,,,,,,,,,,,,,,,,,,masks/mask_003.jpg,,,,,,,,,,,,,,,,,,,,,,,,,,,,,,,,,,,,,,,,,,,,,,,,0,3,3,2,1,,,,,,,,,,,,,,,,,,,,,,,,,,,,,,,,,,,,,,,,,
446892,001,2022-11-20_17h50.02.711,Info_measure_main_exp,2022.2.2,MacIntel,60.0024001,,,,,,,,,,,,,,,,,,masks/mask_002.jpg,,,,,,,,,,,,,,,,,,,,,,,,,,,,,,,,,,,,,,,,,,,,,,,,0,4,4,1,1,,,,,,,,,,,,,,,,,,,,,,,,,,,,,,,,,,,,,,,,,
446892,001,2022-11-20_17h50.02.711,Info_measure_main_exp,2022.2.2,MacIntel,60.0024001,,,,,,,,,,,,,,,,,,,,,,,,,,,,,,4,1.4495,1,,,,,,,,,,,,0,131,5,5,2298,2178,absent_patch/patch0002298.jpg,absent_patch/patch0002178.jpg,,,,,,,,,,,,,,,,,,,,0.071664092,-0.143758912,1,0,1,response3disk,25,-0.007436233,0.001430806,1,0,1,center_square,0,24,24,84,1,,,,,,,,,,,,,,,,,,,,,,,
446892,001,2022-11-20_17h50.02.711,Info_measure_main_exp,2022.2.2,MacIntel,60.0024001,,,,,,,,,,,,,,,,,,masks/mask_004.jpg,,,,,,,,,,,,,,,,,,,,,,,,,,,,,,,,,,,,,,,,,,,0,0,0,3,1,,,,,,,,,,,,,,,,,,,,,,,,,,,,,,,,,,,,,,,,,,,,,,
446892,001,2022-11-20_17h50.02.711,Info_measure_main_exp,2022.2.2,MacIntel,60.0024001,,,,,,,,,,,,,,,,,,masks/mask_001.jpg,,,,,,,,,,,,,,,,,,,,,,,,,,,,,,,,,,,,,,,,,,,0,1,1,0,1,,,,,,,,,,,,,,,,,,,,,,,,,,,,,,,,,,,,,,,,,,,,,,
446892,001,2022-11-20_17h50.02.711,Info_measure_main_exp,2022.2.2,MacIntel,60.0024001,,,,,,,,,,,,,,,,,,masks/mask_005.jpg,,,,,,,,,,,,,,,,,,,,,,,,,,,,,,,,,,,,,,,,,,,0,2,2,4,1,,,,,,,,,,,,,,,,,,,,,,,,,,,,,,,,,,,,,,,,,,,,,,
446892,001,2022-11-20_17h50.02.711,Info_measure_main_exp,2022.2.2,MacIntel,60.0024001,,,,,,,,,,,,,,,,,,masks/mask_003.jpg,,,,,,,,,,,,,,,,,,,,,,,,,,,,,,,,,,,,,,,,,,,0,3,3,2,1,,,,,,,,,,,,,,,,,,,,,,,,,,,,,,,,,,,,,,,,,,,,,,
446892,001,2022-11-20_17h50.02.711,Info_measure_main_exp,2022.2.2,MacIntel,60.0024001,,,,,,,,,,,,,,,,,,masks/mask_002.jpg,,,,,,,,,,,,,,,,,,,,,,,,,,,,,,,,,,,,,,,,,,,0,4,4,1,1,,,,,,,,,,,,,,,,,,,,,,,,,,,,,,,,,,,,,,,,,,,,,,
446892,001,2022-11-20_17h50.02.711,Info_measure_main_exp,2022.2.2,MacIntel,60.0024001,,,,,,,,,,,,,,,,,,masks/mask_005.jpg,,,,,,,,,,,,,,,,,,,,,,,,,,,,,,,,,,,,,,,,,,,,,,,,0,0,0,4,1,,,,,,,,,,,,,,,,,,,,,,,,,,,,,,,,,,,,,,,,,
446892,001,2022-11-20_17h50.02.711,Info_measure_main_exp,2022.2.2,MacIntel,60.0024001,,,,,,,,,,,,,,,,,,masks/mask_002.jpg,,,,,,,,,,,,,,,,,,,,,,,,,,,,,,,,,,,,,,,,,,,,,,,,0,1,1,1,1,,,,,,,,,,,,,,,,,,,,,,,,,,,,,,,,,,,,,,,,,
446892,001,2022-11-20_17h50.02.711,Info_measure_main_exp,2022.2.2,MacIntel,60.0024001,,,,,,,,,,,,,,,,,,masks/mask_004.jpg,,,,,,,,,,,,,,,,,,,,,,,,,,,,,,,,,,,,,,,,,,,,,,,,0,2,2,3,1,,,,,,,,,,,,,,,,,,,,,,,,,,,,,,,,,,,,,,,,,
446892,001,2022-11-20_17h50.02.711,Info_measure_main_exp,2022.2.2,MacIntel,60.0024001,,,,,,,,,,,,,,,,,,masks/mask_003.jpg,,,,,,,,,,,,,,,,,,,,,,,,,,,,,,,,,,,,,,,,,,,,,,,,0,3,3,2,1,,,,,,,,,,,,,,,,,,,,,,,,,,,,,,,,,,,,,,,,,
446892,001,2022-11-20_17h50.02.711,Info_measure_main_exp,2022.2.2,MacIntel,60.0024001,,,,,,,,,,,,,,,,,,masks/mask_001.jpg,,,,,,,,,,,,,,,,,,,,,,,,,,,,,,,,,,,,,,,,,,,,,,,,0,4,4,0,1,,,,,,,,,,,,,,,,,,,,,,,,,,,,,,,,,,,,,,,,,
446892,001,2022-11-20_17h50.02.711,Info_measure_main_exp,2022.2.2,MacIntel,60.0024001,,,,,,,,,,,,,,,,,,,,,,,,,,,,,,7,1.2179,1,,,,,,,,,,,,0,131,5,5,2142,2154,absent_patch/patch0002142.jpg,absent_patch/patch0002154.jpg,,,,,,,,,,,,,,,,,,,,0.041310203,0.068554935,1,0,1,response1disk,26,0.013921895,0.005822243,1,0,1,center_square,0,25,25,9,1,,,,,,,,,,,,,,,,,,,,,,,
446892,001,2022-11-20_17h50.02.711,Info_measure_main_exp,2022.2.2,MacIntel,60.0024001,,,,,,,,,,,,,,,,,,masks/mask_002.jpg,,,,,,,,,,,,,,,,,,,,,,,,,,,,,,,,,,,,,,,,,,,0,0,0,1,1,,,,,,,,,,,,,,,,,,,,,,,,,,,,,,,,,,,,,,,,,,,,,,
446892,001,2022-11-20_17h50.02.711,Info_measure_main_exp,2022.2.2,MacIntel,60.0024001,,,,,,,,,,,,,,,,,,masks/mask_003.jpg,,,,,,,,,,,,,,,,,,,,,,,,,,,,,,,,,,,,,,,,,,,0,1,1,2,1,,,,,,,,,,,,,,,,,,,,,,,,,,,,,,,,,,,,,,,,,,,,,,
446892,001,2022-11-20_17h50.02.711,Info_measure_main_exp,2022.2.2,MacIntel,60.0024001,,,,,,,,,,,,,,,,,,masks/mask_005.jpg,,,,,,,,,,,,,,,,,,,,,,,,,,,,,,,,,,,,,,,,,,,0,2,2,4,1,,,,,,,,,,,,,,,,,,,,,,,,,,,,,,,,,,,,,,,,,,,,,,
446892,001,2022-11-20_17h50.02.711,Info_measure_main_exp,2022.2.2,MacIntel,60.0024001,,,,,,,,,,,,,,,,,,masks/mask_001.jpg,,,,,,,,,,,,,,,,,,,,,,,,,,,,,,,,,,,,,,,,,,,0,3,3,0,1,,,,,,,,,,,,,,,,,,,,,,,,,,,,,,,,,,,,,,,,,,,,,,
446892,001,2022-11-20_17h50.02.711,Info_measure_main_exp,2022.2.2,MacIntel,60.0024001,,,,,,,,,,,,,,,,,,masks/mask_004.jpg,,,,,,,,,,,,,,,,,,,,,,,,,,,,,,,,,,,,,,,,,,,0,4,4,3,1,,,,,,,,,,,,,,,,,,,,,,,,,,,,,,,,,,,,,,,,,,,,,,
446892,001,2022-11-20_17h50.02.711,Info_measure_main_exp,2022.2.2,MacIntel,60.0024001,,,,,,,,,,,,,,,,,,masks/mask_002.jpg,,,,,,,,,,,,,,,,,,,,,,,,,,,,,,,,,,,,,,,,,,,,,,,,0,0,0,1,1,,,,,,,,,,,,,,,,,,,,,,,,,,,,,,,,,,,,,,,,,
446892,001,2022-11-20_17h50.02.711,Info_measure_main_exp,2022.2.2,MacIntel,60.0024001,,,,,,,,,,,,,,,,,,masks/mask_003.jpg,,,,,,,,,,,,,,,,,,,,,,,,,,,,,,,,,,,,,,,,,,,,,,,,0,1,1,2,1,,,,,,,,,,,,,,,,,,,,,,,,,,,,,,,,,,,,,,,,,
446892,001,2022-11-20_17h50.02.711,Info_measure_main_exp,2022.2.2,MacIntel,60.0024001,,,,,,,,,,,,,,,,,,masks/mask_001.jpg,,,,,,,,,,,,,,,,,,,,,,,,,,,,,,,,,,,,,,,,,,,,,,,,0,2,2,0,1,,,,,,,,,,,,,,,,,,,,,,,,,,,,,,,,,,,,,,,,,
446892,001,2022-11-20_17h50.02.711,Info_measure_main_exp,2022.2.2,MacIntel,60.0024001,,,,,,,,,,,,,,,,,,masks/mask_004.jpg,,,,,,,,,,,,,,,,,,,,,,,,,,,,,,,,,,,,,,,,,,,,,,,,0,3,3,3,1,,,,,,,,,,,,,,,,,,,,,,,,,,,,,,,,,,,,,,,,,
446892,001,2022-11-20_17h50.02.711,Info_measure_main_exp,2022.2.2,MacIntel,60.0024001,,,,,,,,,,,,,,,,,,masks/mask_005.jpg,,,,,,,,,,,,,,,,,,,,,,,,,,,,,,,,,,,,,,,,,,,,,,,,0,4,4,4,1,,,,,,,,,,,,,,,,,,,,,,,,,,,,,,,,,,,,,,,,,
446892,001,2022-11-20_17h50.02.711,Info_measure_main_exp,2022.2.2,MacIntel,60.0024001,,,,,,,,,,,,,,,,,,,,,,,,,,,,,,7,0.5665,1,,,,,,,,,,,,1,131,5,5,1950,1,absent_patch/patch0001950.jpg,present_patch/cong_131_5_a.jpg,,,,,,,,,,,,,,,,,,,,0.009065074,0.058712571,1,0,1,response1disk,27,0.006342087,-0.002024913,1,0,1,center_square,0,26,26,39,1,,,,,,,,,,,,,,,,,,,,,,,
446892,001,2022-11-20_17h50.02.711,Info_measure_main_exp,2022.2.2,MacIntel,60.0024001,,,,,,,,,,,,,,,,,,masks/mask_004.jpg,,,,,,,,,,,,,,,,,,,,,,,,,,,,,,,,,,,,,,,,,,,0,0,0,3,1,,,,,,,,,,,,,,,,,,,,,,,,,,,,,,,,,,,,,,,,,,,,,,
446892,001,2022-11-20_17h50.02.711,Info_measure_main_exp,2022.2.2,MacIntel,60.0024001,,,,,,,,,,,,,,,,,,masks/mask_001.jpg,,,,,,,,,,,,,,,,,,,,,,,,,,,,,,,,,,,,,,,,,,,0,1,1,0,1,,,,,,,,,,,,,,,,,,,,,,,,,,,,,,,,,,,,,,,,,,,,,,
446892,001,2022-11-20_17h50.02.711,Info_measure_main_exp,2022.2.2,MacIntel,60.0024001,,,,,,,,,,,,,,,,,,masks/mask_005.jpg,,,,,,,,,,,,,,,,,,,,,,,,,,,,,,,,,,,,,,,,,,,0,2,2,4,1,,,,,,,,,,,,,,,,,,,,,,,,,,,,,,,,,,,,,,,,,,,,,,
446892,001,2022-11-20_17h50.02.711,Info_measure_main_exp,2022.2.2,MacIntel,60.0024001,,,,,,,,,,,,,,,,,,masks/mask_002.jpg,,,,,,,,,,,,,,,,,,,,,,,,,,,,,,,,,,,,,,,,,,,0,3,3,1,1,,,,,,,,,,,,,,,,,,,,,,,,,,,,,,,,,,,,,,,,,,,,,,
446892,001,2022-11-20_17h50.02.711,Info_measure_main_exp,2022.2.2,MacIntel,60.0024001,,,,,,,,,,,,,,,,,,masks/mask_003.jpg,,,,,,,,,,,,,,,,,,,,,,,,,,,,,,,,,,,,,,,,,,,0,4,4,2,1,,,,,,,,,,,,,,,,,,,,,,,,,,,,,,,,,,,,,,,,,,,,,,
446892,001,2022-11-20_17h50.02.711,Info_measure_main_exp,2022.2.2,MacIntel,60.0024001,,,,,,,,,,,,,,,,,,masks/mask_001.jpg,,,,,,,,,,,,,,,,,,,,,,,,,,,,,,,,,,,,,,,,,,,,,,,,0,0,0,0,1,,,,,,,,,,,,,,,,,,,,,,,,,,,,,,,,,,,,,,,,,
446892,001,2022-11-20_17h50.02.711,Info_measure_main_exp,2022.2.2,MacIntel,60.0024001,,,,,,,,,,,,,,,,,,masks/mask_004.jpg,,,,,,,,,,,,,,,,,,,,,,,,,,,,,,,,,,,,,,,,,,,,,,,,0,1,1,3,1,,,,,,,,,,,,,,,,,,,,,,,,,,,,,,,,,,,,,,,,,
446892,001,2022-11-20_17h50.02.711,Info_measure_main_exp,2022.2.2,MacIntel,60.0024001,,,,,,,,,,,,,,,,,,masks/mask_002.jpg,,,,,,,,,,,,,,,,,,,,,,,,,,,,,,,,,,,,,,,,,,,,,,,,0,2,2,1,1,,,,,,,,,,,,,,,,,,,,,,,,,,,,,,,,,,,,,,,,,
446892,001,2022-11-20_17h50.02.711,Info_measure_main_exp,2022.2.2,MacIntel,60.0024001,,,,,,,,,,,,,,,,,,masks/mask_005.jpg,,,,,,,,,,,,,,,,,,,,,,,,,,,,,,,,,,,,,,,,,,,,,,,,0,3,3,4,1,,,,,,,,,,,,,,,,,,,,,,,,,,,,,,,,,,,,,,,,,
446892,001,2022-11-20_17h50.02.711,Info_measure_main_exp,2022.2.2,MacIntel,60.0024001,,,,,,,,,,,,,,,,,,masks/mask_003.jpg,,,,,,,,,,,,,,,,,,,,,,,,,,,,,,,,,,,,,,,,,,,,,,,,0,4,4,2,1,,,,,,,,,,,,,,,,,,,,,,,,,,,,,,,,,,,,,,,,,
446892,001,2022-11-20_17h50.02.711,Info_measure_main_exp,2022.2.2,MacIntel,60.0024001,,,,,,,,,,,,,,,,,,,,,,,,,,,,,,4,2.2832,1,,,,,,,,,,,,1,131,5,5,1,2166,present_patch/cong_131_5_a.jpg,absent_patch/patch0002166.jpg,,,,,,,,,,,,,,,,,,,,0.028541865,-0.10697382,1,0,1,response3disk,28,-0.008832383,0.003351751,1,0,1,center_square,0,27,27,54,1,,,,,,,,,,,,,,,,,,,,,,,
446892,001,2022-11-20_17h50.02.711,Info_measure_main_exp,2022.2.2,MacIntel,60.0024001,,,,,,,,,,,,,,,,,,masks/mask_004.jpg,,,,,,,,,,,,,,,,,,,,,,,,,,,,,,,,,,,,,,,,,,,0,0,0,3,1,,,,,,,,,,,,,,,,,,,,,,,,,,,,,,,,,,,,,,,,,,,,,,
446892,001,2022-11-20_17h50.02.711,Info_measure_main_exp,2022.2.2,MacIntel,60.0024001,,,,,,,,,,,,,,,,,,masks/mask_002.jpg,,,,,,,,,,,,,,,,,,,,,,,,,,,,,,,,,,,,,,,,,,,0,1,1,1,1,,,,,,,,,,,,,,,,,,,,,,,,,,,,,,,,,,,,,,,,,,,,,,
446892,001,2022-11-20_17h50.02.711,Info_measure_main_exp,2022.2.2,MacIntel,60.0024001,,,,,,,,,,,,,,,,,,masks/mask_003.jpg,,,,,,,,,,,,,,,,,,,,,,,,,,,,,,,,,,,,,,,,,,,0,2,2,2,1,,,,,,,,,,,,,,,,,,,,,,,,,,,,,,,,,,,,,,,,,,,,,,
446892,001,2022-11-20_17h50.02.711,Info_measure_main_exp,2022.2.2,MacIntel,60.0024001,,,,,,,,,,,,,,,,,,masks/mask_005.jpg,,,,,,,,,,,,,,,,,,,,,,,,,,,,,,,,,,,,,,,,,,,0,3,3,4,1,,,,,,,,,,,,,,,,,,,,,,,,,,,,,,,,,,,,,,,,,,,,,,
446892,001,2022-11-20_17h50.02.711,Info_measure_main_exp,2022.2.2,MacIntel,60.0024001,,,,,,,,,,,,,,,,,,masks/mask_001.jpg,,,,,,,,,,,,,,,,,,,,,,,,,,,,,,,,,,,,,,,,,,,0,4,4,0,1,,,,,,,,,,,,,,,,,,,,,,,,,,,,,,,,,,,,,,,,,,,,,,
446892,001,2022-11-20_17h50.02.711,Info_measure_main_exp,2022.2.2,MacIntel,60.0024001,,,,,,,,,,,,,,,,,,masks/mask_004.jpg,,,,,,,,,,,,,,,,,,,,,,,,,,,,,,,,,,,,,,,,,,,,,,,,0,0,0,3,1,,,,,,,,,,,,,,,,,,,,,,,,,,,,,,,,,,,,,,,,,
446892,001,2022-11-20_17h50.02.711,Info_measure_main_exp,2022.2.2,MacIntel,60.0024001,,,,,,,,,,,,,,,,,,masks/mask_001.jpg,,,,,,,,,,,,,,,,,,,,,,,,,,,,,,,,,,,,,,,,,,,,,,,,0,1,1,0,1,,,,,,,,,,,,,,,,,,,,,,,,,,,,,,,,,,,,,,,,,
446892,001,2022-11-20_17h50.02.711,Info_measure_main_exp,2022.2.2,MacIntel,60.0024001,,,,,,,,,,,,,,,,,,masks/mask_005.jpg,,,,,,,,,,,,,,,,,,,,,,,,,,,,,,,,,,,,,,,,,,,,,,,,0,2,2,4,1,,,,,,,,,,,,,,,,,,,,,,,,,,,,,,,,,,,,,,,,,
446892,001,2022-11-20_17h50.02.711,Info_measure_main_exp,2022.2.2,MacIntel,60.0024001,,,,,,,,,,,,,,,,,,masks/mask_002.jpg,,,,,,,,,,,,,,,,,,,,,,,,,,,,,,,,,,,,,,,,,,,,,,,,0,3,3,1,1,,,,,,,,,,,,,,,,,,,,,,,,,,,,,,,,,,,,,,,,,
446892,001,2022-11-20_17h50.02.711,Info_measure_main_exp,2022.2.2,MacIntel,60.0024001,,,,,,,,,,,,,,,,,,masks/mask_003.jpg,,,,,,,,,,,,,,,,,,,,,,,,,,,,,,,,,,,,,,,,,,,,,,,,0,4,4,2,1,,,,,,,,,,,,,,,,,,,,,,,,,,,,,,,,,,,,,,,,,
446892,001,2022-11-20_17h50.02.711,Info_measure_main_exp,2022.2.2,MacIntel,60.0024001,,,,,,,,,,,,,,,,,,,,,,,,,,,,,,6,1.267,1,,,,,,,,,,,,0,131,5,5,2082,2166,absent_patch/patch0002082.jpg,absent_patch/patch0002166.jpg,,,,,,,,,,,,,,,,,,,,0.105236058,0.042924192,1,0,1,response1disk,29,0.003926054,-0.011684094,1,0,1,center_square,0,28,28,43,1,,,,,,,,,,,,,,,,,,,,,,,
446892,001,2022-11-20_17h50.02.711,Info_measure_main_exp,2022.2.2,MacIntel,60.0024001,,,,,,,,,,,,,,,,,,masks/mask_003.jpg,,,,,,,,,,,,,,,,,,,,,,,,,,,,,,,,,,,,,,,,,,,0,0,0,2,1,,,,,,,,,,,,,,,,,,,,,,,,,,,,,,,,,,,,,,,,,,,,,,
446892,001,2022-11-20_17h50.02.711,Info_measure_main_exp,2022.2.2,MacIntel,60.0024001,,,,,,,,,,,,,,,,,,masks/mask_005.jpg,,,,,,,,,,,,,,,,,,,,,,,,,,,,,,,,,,,,,,,,,,,0,1,1,4,1,,,,,,,,,,,,,,,,,,,,,,,,,,,,,,,,,,,,,,,,,,,,,,
446892,001,2022-11-20_17h50.02.711,Info_measure_main_exp,2022.2.2,MacIntel,60.0024001,,,,,,,,,,,,,,,,,,masks/mask_002.jpg,,,,,,,,,,,,,,,,,,,,,,,,,,,,,,,,,,,,,,,,,,,0,2,2,1,1,,,,,,,,,,,,,,,,,,,,,,,,,,,,,,,,,,,,,,,,,,,,,,
446892,001,2022-11-20_17h50.02.711,Info_measure_main_exp,2022.2.2,MacIntel,60.0024001,,,,,,,,,,,,,,,,,,masks/mask_001.jpg,,,,,,,,,,,,,,,,,,,,,,,,,,,,,,,,,,,,,,,,,,,0,3,3,0,1,,,,,,,,,,,,,,,,,,,,,,,,,,,,,,,,,,,,,,,,,,,,,,
446892,001,2022-11-20_17h50.02.711,Info_measure_main_exp,2022.2.2,MacIntel,60.0024001,,,,,,,,,,,,,,,,,,masks/mask_004.jpg,,,,,,,,,,,,,,,,,,,,,,,,,,,,,,,,,,,,,,,,,,,0,4,4,3,1,,,,,,,,,,,,,,,,,,,,,,,,,,,,,,,,,,,,,,,,,,,,,,
446892,001,2022-11-20_17h50.02.711,Info_measure_main_exp,2022.2.2,MacIntel,60.0024001,,,,,,,,,,,,,,,,,,masks/mask_002.jpg,,,,,,,,,,,,,,,,,,,,,,,,,,,,,,,,,,,,,,,,,,,,,,,,0,0,0,1,1,,,,,,,,,,,,,,,,,,,,,,,,,,,,,,,,,,,,,,,,,
446892,001,2022-11-20_17h50.02.711,Info_measure_main_exp,2022.2.2,MacIntel,60.0024001,,,,,,,,,,,,,,,,,,masks/mask_001.jpg,,,,,,,,,,,,,,,,,,,,,,,,,,,,,,,,,,,,,,,,,,,,,,,,0,1,1,0,1,,,,,,,,,,,,,,,,,,,,,,,,,,,,,,,,,,,,,,,,,
446892,001,2022-11-20_17h50.02.711,Info_measure_main_exp,2022.2.2,MacIntel,60.0024001,,,,,,,,,,,,,,,,,,masks/mask_004.jpg,,,,,,,,,,,,,,,,,,,,,,,,,,,,,,,,,,,,,,,,,,,,,,,,0,2,2,3,1,,,,,,,,,,,,,,,,,,,,,,,,,,,,,,,,,,,,,,,,,
446892,001,2022-11-20_17h50.02.711,Info_measure_main_exp,2022.2.2,MacIntel,60.0024001,,,,,,,,,,,,,,,,,,masks/mask_005.jpg,,,,,,,,,,,,,,,,,,,,,,,,,,,,,,,,,,,,,,,,,,,,,,,,0,3,3,4,1,,,,,,,,,,,,,,,,,,,,,,,,,,,,,,,,,,,,,,,,,
446892,001,2022-11-20_17h50.02.711,Info_measure_main_exp,2022.2.2,MacIntel,60.0024001,,,,,,,,,,,,,,,,,,masks/mask_003.jpg,,,,,,,,,,,,,,,,,,,,,,,,,,,,,,,,,,,,,,,,,,,,,,,,0,4,4,2,1,,,,,,,,,,,,,,,,,,,,,,,,,,,,,,,,,,,,,,,,,
446892,001,2022-11-20_17h50.02.711,Info_measure_main_exp,2022.2.2,MacIntel,60.0024001,,,,,,,,,,,,,,,,,,,,,,,,,,,,,,6,3.9986,1,,,,,,,,,,,,0,131,5,5,2178,2166,absent_patch/patch0002178.jpg,absent_patch/patch0002166.jpg,,,,,,,,,,,,,,,,,,,,0.059826521,0.03515625,1,0,1,response1disk,30,0.012847552,0.001277329,1,0,1,center_square,0,29,29,72,1,,,,,,,,,,,,,,,,,,,,,,,
446892,001,2022-11-20_17h50.02.711,Info_measure_main_exp,2022.2.2,MacIntel,60.0024001,,,,,,,,,,,,,,,,,,masks/mask_005.jpg,,,,,,,,,,,,,,,,,,,,,,,,,,,,,,,,,,,,,,,,,,,0,0,0,4,1,,,,,,,,,,,,,,,,,,,,,,,,,,,,,,,,,,,,,,,,,,,,,,
446892,001,2022-11-20_17h50.02.711,Info_measure_main_exp,2022.2.2,MacIntel,60.0024001,,,,,,,,,,,,,,,,,,masks/mask_002.jpg,,,,,,,,,,,,,,,,,,,,,,,,,,,,,,,,,,,,,,,,,,,0,1,1,1,1,,,,,,,,,,,,,,,,,,,,,,,,,,,,,,,,,,,,,,,,,,,,,,
446892,001,2022-11-20_17h50.02.711,Info_measure_main_exp,2022.2.2,MacIntel,60.0024001,,,,,,,,,,,,,,,,,,masks/mask_004.jpg,,,,,,,,,,,,,,,,,,,,,,,,,,,,,,,,,,,,,,,,,,,0,2,2,3,1,,,,,,,,,,,,,,,,,,,,,,,,,,,,,,,,,,,,,,,,,,,,,,
446892,001,2022-11-20_17h50.02.711,Info_measure_main_exp,2022.2.2,MacIntel,60.0024001,,,,,,,,,,,,,,,,,,masks/mask_001.jpg,,,,,,,,,,,,,,,,,,,,,,,,,,,,,,,,,,,,,,,,,,,0,3,3,0,1,,,,,,,,,,,,,,,,,,,,,,,,,,,,,,,,,,,,,,,,,,,,,,
446892,001,2022-11-20_17h50.02.711,Info_measure_main_exp,2022.2.2,MacIntel,60.0024001,,,,,,,,,,,,,,,,,,masks/mask_003.jpg,,,,,,,,,,,,,,,,,,,,,,,,,,,,,,,,,,,,,,,,,,,0,4,4,2,1,,,,,,,,,,,,,,,,,,,,,,,,,,,,,,,,,,,,,,,,,,,,,,
446892,001,2022-11-20_17h50.02.711,Info_measure_main_exp,2022.2.2,MacIntel,60.0024001,,,,,,,,,,,,,,,,,,masks/mask_003.jpg,,,,,,,,,,,,,,,,,,,,,,,,,,,,,,,,,,,,,,,,,,,,,,,,0,0,0,2,1,,,,,,,,,,,,,,,,,,,,,,,,,,,,,,,,,,,,,,,,,
446892,001,2022-11-20_17h50.02.711,Info_measure_main_exp,2022.2.2,MacIntel,60.0024001,,,,,,,,,,,,,,,,,,masks/mask_002.jpg,,,,,,,,,,,,,,,,,,,,,,,,,,,,,,,,,,,,,,,,,,,,,,,,0,1,1,1,1,,,,,,,,,,,,,,,,,,,,,,,,,,,,,,,,,,,,,,,,,
446892,001,2022-11-20_17h50.02.711,Info_measure_main_exp,2022.2.2,MacIntel,60.0024001,,,,,,,,,,,,,,,,,,masks/mask_005.jpg,,,,,,,,,,,,,,,,,,,,,,,,,,,,,,,,,,,,,,,,,,,,,,,,0,2,2,4,1,,,,,,,,,,,,,,,,,,,,,,,,,,,,,,,,,,,,,,,,,
446892,001,2022-11-20_17h50.02.711,Info_measure_main_exp,2022.2.2,MacIntel,60.0024001,,,,,,,,,,,,,,,,,,masks/mask_004.jpg,,,,,,,,,,,,,,,,,,,,,,,,,,,,,,,,,,,,,,,,,,,,,,,,0,3,3,3,1,,,,,,,,,,,,,,,,,,,,,,,,,,,,,,,,,,,,,,,,,
446892,001,2022-11-20_17h50.02.711,Info_measure_main_exp,2022.2.2,MacIntel,60.0024001,,,,,,,,,,,,,,,,,,masks/mask_001.jpg,,,,,,,,,,,,,,,,,,,,,,,,,,,,,,,,,,,,,,,,,,,,,,,,0,4,4,0,1,,,,,,,,,,,,,,,,,,,,,,,,,,,,,,,,,,,,,,,,,
446892,001,2022-11-20_17h50.02.711,Info_measure_main_exp,2022.2.2,MacIntel,60.0024001,,,,,,,,,,,,,,,,,,,,,,,,,,,,,,6,0.6664,1,,,,,,,,,,,,0,131,5,5,1950,2238,absent_patch/patch0001950.jpg,absent_patch/patch0002238.jpg,,,,,,,,,,,,,,,,,,,,0.075253485,0.035695897,1,0,1,response1disk,31,0.013832779,0.011129594,1,0,1,center_square,0,30,30,8,1,,,,,,,,,,,,,,,,,,,,,,,
446892,001,2022-11-20_17h50.02.711,Info_measure_main_exp,2022.2.2,MacIntel,60.0024001,,,,,,,,,,,,,,,,,,masks/mask_003.jpg,,,,,,,,,,,,,,,,,,,,,,,,,,,,,,,,,,,,,,,,,,,0,0,0,2,1,,,,,,,,,,,,,,,,,,,,,,,,,,,,,,,,,,,,,,,,,,,,,,
446892,001,2022-11-20_17h50.02.711,Info_measure_main_exp,2022.2.2,MacIntel,60.0024001,,,,,,,,,,,,,,,,,,masks/mask_002.jpg,,,,,,,,,,,,,,,,,,,,,,,,,,,,,,,,,,,,,,,,,,,0,1,1,1,1,,,,,,,,,,,,,,,,,,,,,,,,,,,,,,,,,,,,,,,,,,,,,,
446892,001,2022-11-20_17h50.02.711,Info_measure_main_exp,2022.2.2,MacIntel,60.0024001,,,,,,,,,,,,,,,,,,masks/mask_004.jpg,,,,,,,,,,,,,,,,,,,,,,,,,,,,,,,,,,,,,,,,,,,0,2,2,3,1,,,,,,,,,,,,,,,,,,,,,,,,,,,,,,,,,,,,,,,,,,,,,,
446892,001,2022-11-20_17h50.02.711,Info_measure_main_exp,2022.2.2,MacIntel,60.0024001,,,,,,,,,,,,,,,,,,masks/mask_001.jpg,,,,,,,,,,,,,,,,,,,,,,,,,,,,,,,,,,,,,,,,,,,0,3,3,0,1,,,,,,,,,,,,,,,,,,,,,,,,,,,,,,,,,,,,,,,,,,,,,,
446892,001,2022-11-20_17h50.02.711,Info_measure_main_exp,2022.2.2,MacIntel,60.0024001,,,,,,,,,,,,,,,,,,masks/mask_005.jpg,,,,,,,,,,,,,,,,,,,,,,,,,,,,,,,,,,,,,,,,,,,0,4,4,4,1,,,,,,,,,,,,,,,,,,,,,,,,,,,,,,,,,,,,,,,,,,,,,,
446892,001,2022-11-20_17h50.02.711,Info_measure_main_exp,2022.2.2,MacIntel,60.0024001,,,,,,,,,,,,,,,,,,masks/mask_002.jpg,,,,,,,,,,,,,,,,,,,,,,,,,,,,,,,,,,,,,,,,,,,,,,,,0,0,0,1,1,,,,,,,,,,,,,,,,,,,,,,,,,,,,,,,,,,,,,,,,,
446892,001,2022-11-20_17h50.02.711,Info_measure_main_exp,2022.2.2,MacIntel,60.0024001,,,,,,,,,,,,,,,,,,masks/mask_005.jpg,,,,,,,,,,,,,,,,,,,,,,,,,,,,,,,,,,,,,,,,,,,,,,,,0,1,1,4,1,,,,,,,,,,,,,,,,,,,,,,,,,,,,,,,,,,,,,,,,,
446892,001,2022-11-20_17h50.02.711,Info_measure_main_exp,2022.2.2,MacIntel,60.0024001,,,,,,,,,,,,,,,,,,masks/mask_003.jpg,,,,,,,,,,,,,,,,,,,,,,,,,,,,,,,,,,,,,,,,,,,,,,,,0,2,2,2,1,,,,,,,,,,,,,,,,,,,,,,,,,,,,,,,,,,,,,,,,,
446892,001,2022-11-20_17h50.02.711,Info_measure_main_exp,2022.2.2,MacIntel,60.0024001,,,,,,,,,,,,,,,,,,masks/mask_001.jpg,,,,,,,,,,,,,,,,,,,,,,,,,,,,,,,,,,,,,,,,,,,,,,,,0,3,3,0,1,,,,,,,,,,,,,,,,,,,,,,,,,,,,,,,,,,,,,,,,,
446892,001,2022-11-20_17h50.02.711,Info_measure_main_exp,2022.2.2,MacIntel,60.0024001,,,,,,,,,,,,,,,,,,masks/mask_004.jpg,,,,,,,,,,,,,,,,,,,,,,,,,,,,,,,,,,,,,,,,,,,,,,,,0,4,4,3,1,,,,,,,,,,,,,,,,,,,,,,,,,,,,,,,,,,,,,,,,,
446892,001,2022-11-20_17h50.02.711,Info_measure_main_exp,2022.2.2,MacIntel,60.0024001,,,,,,,,,,,,,,,,,,,,,,,,,,,,,,7,1.0665,1,,,,,,,,,,,,0,131,5,5,2250,2298,absent_patch/patch0002250.jpg,absent_patch/patch0002298.jpg,,,,,,,,,,,,,,,,,,,,0.029700372,0.049177163,1,0,1,response1disk,32,0.007837254,-0.005822243,1,0,1,center_square,0,31,31,59,1,,,,,,,,,,,,,,,,,,,,,,,
446892,001,2022-11-20_17h50.02.711,Info_measure_main_exp,2022.2.2,MacIntel,60.0024001,,,,,,,,,,,,,,,,,,masks/mask_004.jpg,,,,,,,,,,,,,,,,,,,,,,,,,,,,,,,,,,,,,,,,,,,0,0,0,3,1,,,,,,,,,,,,,,,,,,,,,,,,,,,,,,,,,,,,,,,,,,,,,,
446892,001,2022-11-20_17h50.02.711,Info_measure_main_exp,2022.2.2,MacIntel,60.0024001,,,,,,,,,,,,,,,,,,masks/mask_002.jpg,,,,,,,,,,,,,,,,,,,,,,,,,,,,,,,,,,,,,,,,,,,0,1,1,1,1,,,,,,,,,,,,,,,,,,,,,,,,,,,,,,,,,,,,,,,,,,,,,,
446892,001,2022-11-20_17h50.02.711,Info_measure_main_exp,2022.2.2,MacIntel,60.0024001,,,,,,,,,,,,,,,,,,masks/mask_001.jpg,,,,,,,,,,,,,,,,,,,,,,,,,,,,,,,,,,,,,,,,,,,0,2,2,0,1,,,,,,,,,,,,,,,,,,,,,,,,,,,,,,,,,,,,,,,,,,,,,,
446892,001,2022-11-20_17h50.02.711,Info_measure_main_exp,2022.2.2,MacIntel,60.0024001,,,,,,,,,,,,,,,,,,masks/mask_005.jpg,,,,,,,,,,,,,,,,,,,,,,,,,,,,,,,,,,,,,,,,,,,0,3,3,4,1,,,,,,,,,,,,,,,,,,,,,,,,,,,,,,,,,,,,,,,,,,,,,,
446892,001,2022-11-20_17h50.02.711,Info_measure_main_exp,2022.2.2,MacIntel,60.0024001,,,,,,,,,,,,,,,,,,masks/mask_003.jpg,,,,,,,,,,,,,,,,,,,,,,,,,,,,,,,,,,,,,,,,,,,0,4,4,2,1,,,,,,,,,,,,,,,,,,,,,,,,,,,,,,,,,,,,,,,,,,,,,,
446892,001,2022-11-20_17h50.02.711,Info_measure_main_exp,2022.2.2,MacIntel,60.0024001,,,,,,,,,,,,,,,,,,masks/mask_005.jpg,,,,,,,,,,,,,,,,,,,,,,,,,,,,,,,,,,,,,,,,,,,,,,,,0,0,0,4,1,,,,,,,,,,,,,,,,,,,,,,,,,,,,,,,,,,,,,,,,,
446892,001,2022-11-20_17h50.02.711,Info_measure_main_exp,2022.2.2,MacIntel,60.0024001,,,,,,,,,,,,,,,,,,masks/mask_002.jpg,,,,,,,,,,,,,,,,,,,,,,,,,,,,,,,,,,,,,,,,,,,,,,,,0,1,1,1,1,,,,,,,,,,,,,,,,,,,,,,,,,,,,,,,,,,,,,,,,,
446892,001,2022-11-20_17h50.02.711,Info_measure_main_exp,2022.2.2,MacIntel,60.0024001,,,,,,,,,,,,,,,,,,masks/mask_003.jpg,,,,,,,,,,,,,,,,,,,,,,,,,,,,,,,,,,,,,,,,,,,,,,,,0,2,2,2,1,,,,,,,,,,,,,,,,,,,,,,,,,,,,,,,,,,,,,,,,,
446892,001,2022-11-20_17h50.02.711,Info_measure_main_exp,2022.2.2,MacIntel,60.0024001,,,,,,,,,,,,,,,,,,masks/mask_001.jpg,,,,,,,,,,,,,,,,,,,,,,,,,,,,,,,,,,,,,,,,,,,,,,,,0,3,3,0,1,,,,,,,,,,,,,,,,,,,,,,,,,,,,,,,,,,,,,,,,,
446892,001,2022-11-20_17h50.02.711,Info_measure_main_exp,2022.2.2,MacIntel,60.0024001,,,,,,,,,,,,,,,,,,masks/mask_004.jpg,,,,,,,,,,,,,,,,,,,,,,,,,,,,,,,,,,,,,,,,,,,,,,,,0,4,4,3,1,,,,,,,,,,,,,,,,,,,,,,,,,,,,,,,,,,,,,,,,,
446892,001,2022-11-20_17h50.02.711,Info_measure_main_exp,2022.2.2,MacIntel,60.0024001,,,,,,,,,,,,,,,,,,,,,,,,,,,,,,7,0.5988,1,,,,,,,,,,,,0,131,5,5,2274,2178,absent_patch/patch0002274.jpg,absent_patch/patch0002178.jpg,,,,,,,,,,,,,,,,,,,,0.01155042,0.06713403,1,0,1,response1disk,33,0.010679064,0.009792855,1,0,1,center_square,0,32,32,117,1,,,,,,,,,,,,,,,,,,,,,,,
446892,001,2022-11-20_17h50.02.711,Info_measure_main_exp,2022.2.2,MacIntel,60.0024001,,,,,,,,,,,,,,,,,,masks/mask_001.jpg,,,,,,,,,,,,,,,,,,,,,,,,,,,,,,,,,,,,,,,,,,,0,0,0,0,1,,,,,,,,,,,,,,,,,,,,,,,,,,,,,,,,,,,,,,,,,,,,,,
446892,001,2022-11-20_17h50.02.711,Info_measure_main_exp,2022.2.2,MacIntel,60.0024001,,,,,,,,,,,,,,,,,,masks/mask_002.jpg,,,,,,,,,,,,,,,,,,,,,,,,,,,,,,,,,,,,,,,,,,,0,1,1,1,1,,,,,,,,,,,,,,,,,,,,,,,,,,,,,,,,,,,,,,,,,,,,,,
446892,001,2022-11-20_17h50.02.711,Info_measure_main_exp,2022.2.2,MacIntel,60.0024001,,,,,,,,,,,,,,,,,,masks/mask_005.jpg,,,,,,,,,,,,,,,,,,,,,,,,,,,,,,,,,,,,,,,,,,,0,2,2,4,1,,,,,,,,,,,,,,,,,,,,,,,,,,,,,,,,,,,,,,,,,,,,,,
446892,001,2022-11-20_17h50.02.711,Info_measure_main_exp,2022.2.2,MacIntel,60.0024001,,,,,,,,,,,,,,,,,,masks/mask_003.jpg,,,,,,,,,,,,,,,,,,,,,,,,,,,,,,,,,,,,,,,,,,,0,3,3,2,1,,,,,,,,,,,,,,,,,,,,,,,,,,,,,,,,,,,,,,,,,,,,,,
446892,001,2022-11-20_17h50.02.711,Info_measure_main_exp,2022.2.2,MacIntel,60.0024001,,,,,,,,,,,,,,,,,,masks/mask_004.jpg,,,,,,,,,,,,,,,,,,,,,,,,,,,,,,,,,,,,,,,,,,,0,4,4,3,1,,,,,,,,,,,,,,,,,,,,,,,,,,,,,,,,,,,,,,,,,,,,,,
446892,001,2022-11-20_17h50.02.711,Info_measure_main_exp,2022.2.2,MacIntel,60.0024001,,,,,,,,,,,,,,,,,,masks/mask_002.jpg,,,,,,,,,,,,,,,,,,,,,,,,,,,,,,,,,,,,,,,,,,,,,,,,0,0,0,1,1,,,,,,,,,,,,,,,,,,,,,,,,,,,,,,,,,,,,,,,,,
446892,001,2022-11-20_17h50.02.711,Info_measure_main_exp,2022.2.2,MacIntel,60.0024001,,,,,,,,,,,,,,,,,,masks/mask_004.jpg,,,,,,,,,,,,,,,,,,,,,,,,,,,,,,,,,,,,,,,,,,,,,,,,0,1,1,3,1,,,,,,,,,,,,,,,,,,,,,,,,,,,,,,,,,,,,,,,,,
446892,001,2022-11-20_17h50.02.711,Info_measure_main_exp,2022.2.2,MacIntel,60.0024001,,,,,,,,,,,,,,,,,,masks/mask_001.jpg,,,,,,,,,,,,,,,,,,,,,,,,,,,,,,,,,,,,,,,,,,,,,,,,0,2,2,0,1,,,,,,,,,,,,,,,,,,,,,,,,,,,,,,,,,,,,,,,,,
446892,001,2022-11-20_17h50.02.711,Info_measure_main_exp,2022.2.2,MacIntel,60.0024001,,,,,,,,,,,,,,,,,,masks/mask_005.jpg,,,,,,,,,,,,,,,,,,,,,,,,,,,,,,,,,,,,,,,,,,,,,,,,0,3,3,4,1,,,,,,,,,,,,,,,,,,,,,,,,,,,,,,,,,,,,,,,,,
446892,001,2022-11-20_17h50.02.711,Info_measure_main_exp,2022.2.2,MacIntel,60.0024001,,,,,,,,,,,,,,,,,,masks/mask_003.jpg,,,,,,,,,,,,,,,,,,,,,,,,,,,,,,,,,,,,,,,,,,,,,,,,0,4,4,2,1,,,,,,,,,,,,,,,,,,,,,,,,,,,,,,,,,,,,,,,,,
446892,001,2022-11-20_17h50.02.711,Info_measure_main_exp,2022.2.2,MacIntel,60.0024001,,,,,,,,,,,,,,,,,,,,,,,,,,,,,,7,0.6841,1,,,,,,,,,,,,0,131,5,5,2250,2166,absent_patch/patch0002250.jpg,absent_patch/patch0002166.jpg,,,,,,,,,,,,,,,,,,,,0.024922766,0.069322323,1,0,1,response1disk,34,0.009490851,0.010961264,1,0,1,center_square,0,33,33,60,1,,,,,,,,,,,,,,,,,,,,,,,
446892,001,2022-11-20_17h50.02.711,Info_measure_main_exp,2022.2.2,MacIntel,60.0024001,,,,,,,,,,,,,,,,,,masks/mask_005.jpg,,,,,,,,,,,,,,,,,,,,,,,,,,,,,,,,,,,,,,,,,,,0,0,0,4,1,,,,,,,,,,,,,,,,,,,,,,,,,,,,,,,,,,,,,,,,,,,,,,
446892,001,2022-11-20_17h50.02.711,Info_measure_main_exp,2022.2.2,MacIntel,60.0024001,,,,,,,,,,,,,,,,,,masks/mask_002.jpg,,,,,,,,,,,,,,,,,,,,,,,,,,,,,,,,,,,,,,,,,,,0,1,1,1,1,,,,,,,,,,,,,,,,,,,,,,,,,,,,,,,,,,,,,,,,,,,,,,
446892,001,2022-11-20_17h50.02.711,Info_measure_main_exp,2022.2.2,MacIntel,60.0024001,,,,,,,,,,,,,,,,,,masks/mask_001.jpg,,,,,,,,,,,,,,,,,,,,,,,,,,,,,,,,,,,,,,,,,,,0,2,2,0,1,,,,,,,,,,,,,,,,,,,,,,,,,,,,,,,,,,,,,,,,,,,,,,
446892,001,2022-11-20_17h50.02.711,Info_measure_main_exp,2022.2.2,MacIntel,60.0024001,,,,,,,,,,,,,,,,,,masks/mask_004.jpg,,,,,,,,,,,,,,,,,,,,,,,,,,,,,,,,,,,,,,,,,,,0,3,3,3,1,,,,,,,,,,,,,,,,,,,,,,,,,,,,,,,,,,,,,,,,,,,,,,
446892,001,2022-11-20_17h50.02.711,Info_measure_main_exp,2022.2.2,MacIntel,60.0024001,,,,,,,,,,,,,,,,,,masks/mask_003.jpg,,,,,,,,,,,,,,,,,,,,,,,,,,,,,,,,,,,,,,,,,,,0,4,4,2,1,,,,,,,,,,,,,,,,,,,,,,,,,,,,,,,,,,,,,,,,,,,,,,
