participant,session,date,expName,psychopyVersion,OS,frameRate,space_press_continue.keys,space_press_continue.rt,space_press_continue_2.keys,space_press_continue_2.rt,space_press_continue_3.keys,space_press_continue_3.rt,space_press_continue_4.keys,space_press_continue_4.rt,space_press_continue_5.keys,space_press_continue_5.rt,space_press_continue_6.keys,space_press_continue_6.rt,prac_mask_loop_1.thisRepN,prac_mask_loop_1.thisTrialN,prac_mask_loop_1.thisN,prac_mask_loop_1.thisIndex,prac_mask_loop_1.ran,mask_name,prac_mask_loop_2.thisRepN,prac_mask_loop_2.thisTrialN,prac_mask_loop_2.thisN,prac_mask_loop_2.thisIndex,prac_mask_loop_2.ran,mouse_2.x,mouse_2.y,mouse_2.leftButton,mouse_2.midButton,mouse_2.rightButton,mouse_2.clicked_name,similarity,response_time,Pass,mouse_12.x,mouse_12.y,mouse_12.leftButton,mouse_12.midButton,mouse_12.rightButton,mouse_12.clicked_name,prac_loop.thisRepN,prac_loop.thisTrialN,prac_loop.thisN,prac_loop.thisIndex,prac_loop.ran,Pair_type,Image_num,Patch_1_loc,Patch_2_loc,Patch_1_info,Patch_2_info,Patch_1_name,Patch_2_name,mouse_1.x,mouse_1.y,mouse_1.leftButton,mouse_1.midButton,mouse_1.rightButton,mouse_1.time,mouse_1.clicked_name,space_press_continue_7.keys,space_press_continue_7.rt,mask_loop.thisRepN,mask_loop.thisTrialN,mask_loop.thisN,mask_loop.thisIndex,mask_loop.ran,mask_loop_2.thisRepN,mask_loop_2.thisTrialN,mask_loop_2.thisN,mask_loop_2.thisIndex,mask_loop_2.ran,mouse.x,mouse.y,mouse.leftButton,mouse.midButton,mouse.rightButton,mouse.clicked_name,trialNumber,mouse_11.x,mouse_11.y,mouse_11.leftButton,mouse_11.midButton,mouse_11.rightButton,mouse_11.clicked_name,first_pass_loop.thisRepN,first_pass_loop.thisTrialN,first_pass_loop.thisN,first_pass_loop.thisIndex,first_pass_loop.ran,mask_loop_3.thisRepN,mask_loop_3.thisTrialN,mask_loop_3.thisN,mask_loop_3.thisIndex,mask_loop_3.ran,mask_loop_4.thisRepN,mask_loop_4.thisTrialN,mask_loop_4.thisN,mask_loop_4.thisIndex,mask_loop_4.ran,mouse_3.x,mouse_3.y,mouse_3.leftButton,mouse_3.midButton,mouse_3.rightButton,mouse_3.clicked_name,double_pass_loop.thisRepN,double_pass_loop.thisTrialN,double_pass_loop.thisN,double_pass_loop.thisIndex,double_pass_loop.ran,space_exit.keys,space_exit.rt
451281,001,2022-11-21_01h03.22.728,Info_measure_main_exp,2022.2.2,Win32,59.88023952,,,,,,,,,,,,,,,,,,,,,,,,,,,,,,,,,,,,,,,,,,,,,,,,,,,,,,,,,,,,,,,,,,,,,,,,,,,,,,,,,,,,,,,,,,,,,,,,,,,,,,,,,,,,,,,
451281,001,2022-11-21_01h03.22.728,Info_measure_main_exp,2022.2.2,Win32,59.88023952,,,,,,,,,,,,,,,,,,,,,,,,,,,,,,,,,,,,,,,,,,,,,,,,,,,,,,,,,,,,,,,,,,,,,,,,,,,,,,,,,,,,,,,,,,,,,,,,,,,,,,,,,,,,,,,
451281,001,2022-11-21_01h03.22.728,Info_measure_main_exp,2022.2.2,Win32,59.88023952,space,7.459,,,,,,,,,,,,,,,,,,,,,,,,,,,,,,,,,,,,,,,,,,,,,,,,,,,,,,,,,,,,,,,,,,,,,,,,,,,,,,,,,,,,,,,,,,,,,,,,,,,,,,,,,,,,,
451281,001,2022-11-21_01h03.22.728,Info_measure_main_exp,2022.2.2,Win32,59.88023952,,,space,19.481,,,,,,,,,,,,,,,,,,,,,,,,,,,,,,,,,,,,,,,,,,,,,,,,,,,,,,,,,,,,,,,,,,,,,,,,,,,,,,,,,,,,,,,,,,,,,,,,,,,,,,,,,,,
451281,001,2022-11-21_01h03.22.728,Info_measure_main_exp,2022.2.2,Win32,59.88023952,,,,,space,7.557,,,,,,,,,,,,,,,,,,,,,,,,,,,,,,,,,,,,,,,,,,,,,,,,,,,,,,,,,,,,,,,,,,,,,,,,,,,,,,,,,,,,,,,,,,,,,,,,,,,,,,,,,
451281,001,2022-11-21_01h03.22.728,Info_measure_main_exp,2022.2.2,Win32,59.88023952,,,,,,,space,24.701,,,,,,,,,,,,,,,,,,,,,,,,,,,,,,,,,,,,,,,,,,,,,,,,,,,,,,,,,,,,,,,,,,,,,,,,,,,,,,,,,,,,,,,,,,,,,,,,,,,,,,,
451281,001,2022-11-21_01h03.22.728,Info_measure_main_exp,2022.2.2,Win32,59.88023952,,,,,,,,,space,6.339,,,,,,,,,,,,,,,,,,,,,,,,,,,,,,,,,,,,,,,,,,,,,,,,,,,,,,,,,,,,,,,,,,,,,,,,,,,,,,,,,,,,,,,,,,,,,,,,,,,,,
451281,001,2022-11-21_01h03.22.728,Info_measure_main_exp,2022.2.2,Win32,59.88023952,,,,,,,,,,,space,4.848,,,,,,,,,,,,,,,,,,,,,,,,,,,,,,,,,,,,,,,,,,,,,,,,,,,,,,,,,,,,,,,,,,,,,,,,,,,,,,,,,,,,,,,,,,,,,,,,,,,
451281,001,2022-11-21_01h03.22.728,Info_measure_main_exp,2022.2.2,Win32,59.88023952,,,,,,,,,,,,,0,0,0,2,1,masks/mask_003.jpg,,,,,,,,,,,,,,,,,,,,,,,,,,,,,,,,,,,,,,,,,,,,,,,,,,,,,,,,,,,,,,,,,,,,,,,,,,,,,,,,,,,,,,,,,,,,,
451281,001,2022-11-21_01h03.22.728,Info_measure_main_exp,2022.2.2,Win32,59.88023952,,,,,,,,,,,,,0,1,1,4,1,masks/mask_005.jpg,,,,,,,,,,,,,,,,,,,,,,,,,,,,,,,,,,,,,,,,,,,,,,,,,,,,,,,,,,,,,,,,,,,,,,,,,,,,,,,,,,,,,,,,,,,,,
451281,001,2022-11-21_01h03.22.728,Info_measure_main_exp,2022.2.2,Win32,59.88023952,,,,,,,,,,,,,0,2,2,0,1,masks/mask_001.jpg,,,,,,,,,,,,,,,,,,,,,,,,,,,,,,,,,,,,,,,,,,,,,,,,,,,,,,,,,,,,,,,,,,,,,,,,,,,,,,,,,,,,,,,,,,,,,
451281,001,2022-11-21_01h03.22.728,Info_measure_main_exp,2022.2.2,Win32,59.88023952,,,,,,,,,,,,,0,3,3,3,1,masks/mask_004.jpg,,,,,,,,,,,,,,,,,,,,,,,,,,,,,,,,,,,,,,,,,,,,,,,,,,,,,,,,,,,,,,,,,,,,,,,,,,,,,,,,,,,,,,,,,,,,,
451281,001,2022-11-21_01h03.22.728,Info_measure_main_exp,2022.2.2,Win32,59.88023952,,,,,,,,,,,,,0,4,4,1,1,masks/mask_002.jpg,,,,,,,,,,,,,,,,,,,,,,,,,,,,,,,,,,,,,,,,,,,,,,,,,,,,,,,,,,,,,,,,,,,,,,,,,,,,,,,,,,,,,,,,,,,,,
451281,001,2022-11-21_01h03.22.728,Info_measure_main_exp,2022.2.2,Win32,59.88023952,,,,,,,,,,,,,,,,,,masks/mask_005.jpg,0,0,0,4,1,,,,,,,,,,,,,,,,,,,,,,,,,,,,,,,,,,,,,,,,,,,,,,,,,,,,,,,,,,,,,,,,,,,,,,,,,,,,,,,,,,,,,,,,
451281,001,2022-11-21_01h03.22.728,Info_measure_main_exp,2022.2.2,Win32,59.88023952,,,,,,,,,,,,,,,,,,masks/mask_003.jpg,0,1,1,2,1,,,,,,,,,,,,,,,,,,,,,,,,,,,,,,,,,,,,,,,,,,,,,,,,,,,,,,,,,,,,,,,,,,,,,,,,,,,,,,,,,,,,,,,,
451281,001,2022-11-21_01h03.22.728,Info_measure_main_exp,2022.2.2,Win32,59.88023952,,,,,,,,,,,,,,,,,,masks/mask_004.jpg,0,2,2,3,1,,,,,,,,,,,,,,,,,,,,,,,,,,,,,,,,,,,,,,,,,,,,,,,,,,,,,,,,,,,,,,,,,,,,,,,,,,,,,,,,,,,,,,,,
451281,001,2022-11-21_01h03.22.728,Info_measure_main_exp,2022.2.2,Win32,59.88023952,,,,,,,,,,,,,,,,,,masks/mask_001.jpg,0,3,3,0,1,,,,,,,,,,,,,,,,,,,,,,,,,,,,,,,,,,,,,,,,,,,,,,,,,,,,,,,,,,,,,,,,,,,,,,,,,,,,,,,,,,,,,,,,
451281,001,2022-11-21_01h03.22.728,Info_measure_main_exp,2022.2.2,Win32,59.88023952,,,,,,,,,,,,,,,,,,masks/mask_002.jpg,0,4,4,1,1,,,,,,,,,,,,,,,,,,,,,,,,,,,,,,,,,,,,,,,,,,,,,,,,,,,,,,,,,,,,,,,,,,,,,,,,,,,,,,,,,,,,,,,,
451281,001,2022-11-21_01h03.22.728,Info_measure_main_exp,2022.2.2,Win32,59.88023952,,,,,,,,,,,,,,,,,,,,,,,,-0.039047619,0.078095238,1,0,0,response7disk,0,73.973,1,0.004761905,-0.006666667,1,0,0,center_square,0,0,0,2,1,0,131,5,5,2526,2526,prac_patch/patch0002526.jpg,prac_patch/patch0002526.jpg,,,,,,,,,,,,,,,,,,,,,,,,,,,,,,,,,,,,,,,,,,,,,,,,,,,,,,,,,,,,
451281,001,2022-11-21_01h03.22.728,Info_measure_main_exp,2022.2.2,Win32,59.88023952,,,,,,,,,,,,,0,0,0,3,1,masks/mask_004.jpg,,,,,,,,,,,,,,,,,,,,,,,,,,,,,,,,,,,,,,,,,,,,,,,,,,,,,,,,,,,,,,,,,,,,,,,,,,,,,,,,,,,,,,,,,,,,,
451281,001,2022-11-21_01h03.22.728,Info_measure_main_exp,2022.2.2,Win32,59.88023952,,,,,,,,,,,,,0,1,1,2,1,masks/mask_003.jpg,,,,,,,,,,,,,,,,,,,,,,,,,,,,,,,,,,,,,,,,,,,,,,,,,,,,,,,,,,,,,,,,,,,,,,,,,,,,,,,,,,,,,,,,,,,,,
451281,001,2022-11-21_01h03.22.728,Info_measure_main_exp,2022.2.2,Win32,59.88023952,,,,,,,,,,,,,0,2,2,1,1,masks/mask_002.jpg,,,,,,,,,,,,,,,,,,,,,,,,,,,,,,,,,,,,,,,,,,,,,,,,,,,,,,,,,,,,,,,,,,,,,,,,,,,,,,,,,,,,,,,,,,,,,
451281,001,2022-11-21_01h03.22.728,Info_measure_main_exp,2022.2.2,Win32,59.88023952,,,,,,,,,,,,,0,3,3,4,1,masks/mask_005.jpg,,,,,,,,,,,,,,,,,,,,,,,,,,,,,,,,,,,,,,,,,,,,,,,,,,,,,,,,,,,,,,,,,,,,,,,,,,,,,,,,,,,,,,,,,,,,,
451281,001,2022-11-21_01h03.22.728,Info_measure_main_exp,2022.2.2,Win32,59.88023952,,,,,,,,,,,,,0,4,4,0,1,masks/mask_001.jpg,,,,,,,,,,,,,,,,,,,,,,,,,,,,,,,,,,,,,,,,,,,,,,,,,,,,,,,,,,,,,,,,,,,,,,,,,,,,,,,,,,,,,,,,,,,,,
451281,001,2022-11-21_01h03.22.728,Info_measure_main_exp,2022.2.2,Win32,59.88023952,,,,,,,,,,,,,,,,,,masks/mask_003.jpg,0,0,0,2,1,,,,,,,,,,,,,,,,,,,,,,,,,,,,,,,,,,,,,,,,,,,,,,,,,,,,,,,,,,,,,,,,,,,,,,,,,,,,,,,,,,,,,,,,
451281,001,2022-11-21_01h03.22.728,Info_measure_main_exp,2022.2.2,Win32,59.88023952,,,,,,,,,,,,,,,,,,masks/mask_004.jpg,0,1,1,3,1,,,,,,,,,,,,,,,,,,,,,,,,,,,,,,,,,,,,,,,,,,,,,,,,,,,,,,,,,,,,,,,,,,,,,,,,,,,,,,,,,,,,,,,,
451281,001,2022-11-21_01h03.22.728,Info_measure_main_exp,2022.2.2,Win32,59.88023952,,,,,,,,,,,,,,,,,,masks/mask_005.jpg,0,2,2,4,1,,,,,,,,,,,,,,,,,,,,,,,,,,,,,,,,,,,,,,,,,,,,,,,,,,,,,,,,,,,,,,,,,,,,,,,,,,,,,,,,,,,,,,,,
451281,001,2022-11-21_01h03.22.728,Info_measure_main_exp,2022.2.2,Win32,59.88023952,,,,,,,,,,,,,,,,,,masks/mask_001.jpg,0,3,3,0,1,,,,,,,,,,,,,,,,,,,,,,,,,,,,,,,,,,,,,,,,,,,,,,,,,,,,,,,,,,,,,,,,,,,,,,,,,,,,,,,,,,,,,,,,
451281,001,2022-11-21_01h03.22.728,Info_measure_main_exp,2022.2.2,Win32,59.88023952,,,,,,,,,,,,,,,,,,masks/mask_002.jpg,0,4,4,1,1,,,,,,,,,,,,,,,,,,,,,,,,,,,,,,,,,,,,,,,,,,,,,,,,,,,,,,,,,,,,,,,,,,,,,,,,,,,,,,,,,,,,,,,,
451281,001,2022-11-21_01h03.22.728,Info_measure_main_exp,2022.2.2,Win32,59.88023952,,,,,,,,,,,,,,,,,,,,,,,,0.125714286,0.033333333,1,0,0,response1disk,6,83.873,1,0.008571429,0.004761905,1,0,0,center_square,0,1,1,1,1,0,131,5,5,2514,2490,prac_patch/patch0002514.jpg,prac_patch/patch0002490.jpg,,,,,,,,,,,,,,,,,,,,,,,,,,,,,,,,,,,,,,,,,,,,,,,,,,,,,,,,,,,,
451281,001,2022-11-21_01h03.22.728,Info_measure_main_exp,2022.2.2,Win32,59.88023952,,,,,,,,,,,,,0,0,0,1,1,masks/mask_002.jpg,,,,,,,,,,,,,,,,,,,,,,,,,,,,,,,,,,,,,,,,,,,,,,,,,,,,,,,,,,,,,,,,,,,,,,,,,,,,,,,,,,,,,,,,,,,,,
451281,001,2022-11-21_01h03.22.728,Info_measure_main_exp,2022.2.2,Win32,59.88023952,,,,,,,,,,,,,0,1,1,0,1,masks/mask_001.jpg,,,,,,,,,,,,,,,,,,,,,,,,,,,,,,,,,,,,,,,,,,,,,,,,,,,,,,,,,,,,,,,,,,,,,,,,,,,,,,,,,,,,,,,,,,,,,
451281,001,2022-11-21_01h03.22.728,Info_measure_main_exp,2022.2.2,Win32,59.88023952,,,,,,,,,,,,,0,2,2,4,1,masks/mask_005.jpg,,,,,,,,,,,,,,,,,,,,,,,,,,,,,,,,,,,,,,,,,,,,,,,,,,,,,,,,,,,,,,,,,,,,,,,,,,,,,,,,,,,,,,,,,,,,,
451281,001,2022-11-21_01h03.22.728,Info_measure_main_exp,2022.2.2,Win32,59.88023952,,,,,,,,,,,,,0,3,3,2,1,masks/mask_003.jpg,,,,,,,,,,,,,,,,,,,,,,,,,,,,,,,,,,,,,,,,,,,,,,,,,,,,,,,,,,,,,,,,,,,,,,,,,,,,,,,,,,,,,,,,,,,,,
451281,001,2022-11-21_01h03.22.728,Info_measure_main_exp,2022.2.2,Win32,59.88023952,,,,,,,,,,,,,0,4,4,3,1,masks/mask_004.jpg,,,,,,,,,,,,,,,,,,,,,,,,,,,,,,,,,,,,,,,,,,,,,,,,,,,,,,,,,,,,,,,,,,,,,,,,,,,,,,,,,,,,,,,,,,,,,
451281,001,2022-11-21_01h03.22.728,Info_measure_main_exp,2022.2.2,Win32,59.88023952,,,,,,,,,,,,,,,,,,masks/mask_002.jpg,0,0,0,1,1,,,,,,,,,,,,,,,,,,,,,,,,,,,,,,,,,,,,,,,,,,,,,,,,,,,,,,,,,,,,,,,,,,,,,,,,,,,,,,,,,,,,,,,,
451281,001,2022-11-21_01h03.22.728,Info_measure_main_exp,2022.2.2,Win32,59.88023952,,,,,,,,,,,,,,,,,,masks/mask_004.jpg,0,1,1,3,1,,,,,,,,,,,,,,,,,,,,,,,,,,,,,,,,,,,,,,,,,,,,,,,,,,,,,,,,,,,,,,,,,,,,,,,,,,,,,,,,,,,,,,,,
451281,001,2022-11-21_01h03.22.728,Info_measure_main_exp,2022.2.2,Win32,59.88023952,,,,,,,,,,,,,,,,,,masks/mask_005.jpg,0,2,2,4,1,,,,,,,,,,,,,,,,,,,,,,,,,,,,,,,,,,,,,,,,,,,,,,,,,,,,,,,,,,,,,,,,,,,,,,,,,,,,,,,,,,,,,,,,
451281,001,2022-11-21_01h03.22.728,Info_measure_main_exp,2022.2.2,Win32,59.88023952,,,,,,,,,,,,,,,,,,masks/mask_001.jpg,0,3,3,0,1,,,,,,,,,,,,,,,,,,,,,,,,,,,,,,,,,,,,,,,,,,,,,,,,,,,,,,,,,,,,,,,,,,,,,,,,,,,,,,,,,,,,,,,,
451281,001,2022-11-21_01h03.22.728,Info_measure_main_exp,2022.2.2,Win32,59.88023952,,,,,,,,,,,,,,,,,,masks/mask_003.jpg,0,4,4,2,1,,,,,,,,,,,,,,,,,,,,,,,,,,,,,,,,,,,,,,,,,,,,,,,,,,,,,,,,,,,,,,,,,,,,,,,,,,,,,,,,,,,,,,,,
451281,001,2022-11-21_01h03.22.728,Info_measure_main_exp,2022.2.2,Win32,59.88023952,,,,,,,,,,,,,,,,,,,,,,,,0.065714286,0.115238095,1,0,0,response1disk,7,93.202,1,0.001904762,0,1,0,0,center_square,0,2,2,0,1,0,131,5,5,2370,2406,prac_patch/patch0002370.jpg,prac_patch/patch0002406.jpg,,,,,,,,,,,,,,,,,,,,,,,,,,,,,,,,,,,,,,,,,,,,,,,,,,,,,,,,,,,,
451281,001,2022-11-21_01h03.22.728,Info_measure_main_exp,2022.2.2,Win32,59.88023952,,,,,,,,,,,,,,,,,,,,,,,,,,,,,,,,,,,,,,,,,,,,,,,,,,,,,,,,,,,space,1.345,,,,,,,,,,,,,,,,,,,,,,,,,,,,,,,,,,,,,,,,,,,,,,,,,,,
451281,001,2022-11-21_01h03.22.728,Info_measure_main_exp,2022.2.2,Win32,59.88023952,,,,,,,,,,,,,,,,,,masks/mask_002.jpg,,,,,,,,,,,,,,,,,,,,,,,,,,,,,,,,,,,,,,,,,,,0,0,0,1,1,,,,,,,,,,,,,,,,,,,,,,,,,,,,,,,,,,,,,,,,,,,,,,
451281,001,2022-11-21_01h03.22.728,Info_measure_main_exp,2022.2.2,Win32,59.88023952,,,,,,,,,,,,,,,,,,masks/mask_001.jpg,,,,,,,,,,,,,,,,,,,,,,,,,,,,,,,,,,,,,,,,,,,0,1,1,0,1,,,,,,,,,,,,,,,,,,,,,,,,,,,,,,,,,,,,,,,,,,,,,,
451281,001,2022-11-21_01h03.22.728,Info_measure_main_exp,2022.2.2,Win32,59.88023952,,,,,,,,,,,,,,,,,,masks/mask_005.jpg,,,,,,,,,,,,,,,,,,,,,,,,,,,,,,,,,,,,,,,,,,,0,2,2,4,1,,,,,,,,,,,,,,,,,,,,,,,,,,,,,,,,,,,,,,,,,,,,,,
451281,001,2022-11-21_01h03.22.728,Info_measure_main_exp,2022.2.2,Win32,59.88023952,,,,,,,,,,,,,,,,,,masks/mask_003.jpg,,,,,,,,,,,,,,,,,,,,,,,,,,,,,,,,,,,,,,,,,,,0,3,3,2,1,,,,,,,,,,,,,,,,,,,,,,,,,,,,,,,,,,,,,,,,,,,,,,
451281,001,2022-11-21_01h03.22.728,Info_measure_main_exp,2022.2.2,Win32,59.88023952,,,,,,,,,,,,,,,,,,masks/mask_004.jpg,,,,,,,,,,,,,,,,,,,,,,,,,,,,,,,,,,,,,,,,,,,0,4,4,3,1,,,,,,,,,,,,,,,,,,,,,,,,,,,,,,,,,,,,,,,,,,,,,,
451281,001,2022-11-21_01h03.22.728,Info_measure_main_exp,2022.2.2,Win32,59.88023952,,,,,,,,,,,,,,,,,,masks/mask_003.jpg,,,,,,,,,,,,,,,,,,,,,,,,,,,,,,,,,,,,,,,,,,,,,,,,0,0,0,2,1,,,,,,,,,,,,,,,,,,,,,,,,,,,,,,,,,,,,,,,,,
451281,001,2022-11-21_01h03.22.728,Info_measure_main_exp,2022.2.2,Win32,59.88023952,,,,,,,,,,,,,,,,,,masks/mask_005.jpg,,,,,,,,,,,,,,,,,,,,,,,,,,,,,,,,,,,,,,,,,,,,,,,,0,1,1,4,1,,,,,,,,,,,,,,,,,,,,,,,,,,,,,,,,,,,,,,,,,
451281,001,2022-11-21_01h03.22.728,Info_measure_main_exp,2022.2.2,Win32,59.88023952,,,,,,,,,,,,,,,,,,masks/mask_002.jpg,,,,,,,,,,,,,,,,,,,,,,,,,,,,,,,,,,,,,,,,,,,,,,,,0,2,2,1,1,,,,,,,,,,,,,,,,,,,,,,,,,,,,,,,,,,,,,,,,,
451281,001,2022-11-21_01h03.22.728,Info_measure_main_exp,2022.2.2,Win32,59.88023952,,,,,,,,,,,,,,,,,,masks/mask_001.jpg,,,,,,,,,,,,,,,,,,,,,,,,,,,,,,,,,,,,,,,,,,,,,,,,0,3,3,0,1,,,,,,,,,,,,,,,,,,,,,,,,,,,,,,,,,,,,,,,,,
451281,001,2022-11-21_01h03.22.728,Info_measure_main_exp,2022.2.2,Win32,59.88023952,,,,,,,,,,,,,,,,,,masks/mask_004.jpg,,,,,,,,,,,,,,,,,,,,,,,,,,,,,,,,,,,,,,,,,,,,,,,,0,4,4,3,1,,,,,,,,,,,,,,,,,,,,,,,,,,,,,,,,,,,,,,,,,
451281,001,2022-11-21_01h03.22.728,Info_measure_main_exp,2022.2.2,Win32,59.88023952,,,,,,,,,,,,,,,,,,,,,,,,,,,,,,7,0.768,1,,,,,,,,,,,,1,131,5,5,2082,1,absent_patch/patch0002082.jpg,present_patch/cong_131_5_a.jpg,,,,,,,,,,,,,,,,,,,,0.037142857,0.105714286,1,0,0,response1disk,1,-0.000952381,0.005714286,1,0,0,center_square,0,0,0,65,1,,,,,,,,,,,,,,,,,,,,,,,
451281,001,2022-11-21_01h03.22.728,Info_measure_main_exp,2022.2.2,Win32,59.88023952,,,,,,,,,,,,,,,,,,masks/mask_005.jpg,,,,,,,,,,,,,,,,,,,,,,,,,,,,,,,,,,,,,,,,,,,0,0,0,4,1,,,,,,,,,,,,,,,,,,,,,,,,,,,,,,,,,,,,,,,,,,,,,,
451281,001,2022-11-21_01h03.22.728,Info_measure_main_exp,2022.2.2,Win32,59.88023952,,,,,,,,,,,,,,,,,,masks/mask_001.jpg,,,,,,,,,,,,,,,,,,,,,,,,,,,,,,,,,,,,,,,,,,,0,1,1,0,1,,,,,,,,,,,,,,,,,,,,,,,,,,,,,,,,,,,,,,,,,,,,,,
451281,001,2022-11-21_01h03.22.728,Info_measure_main_exp,2022.2.2,Win32,59.88023952,,,,,,,,,,,,,,,,,,masks/mask_002.jpg,,,,,,,,,,,,,,,,,,,,,,,,,,,,,,,,,,,,,,,,,,,0,2,2,1,1,,,,,,,,,,,,,,,,,,,,,,,,,,,,,,,,,,,,,,,,,,,,,,
451281,001,2022-11-21_01h03.22.728,Info_measure_main_exp,2022.2.2,Win32,59.88023952,,,,,,,,,,,,,,,,,,masks/mask_003.jpg,,,,,,,,,,,,,,,,,,,,,,,,,,,,,,,,,,,,,,,,,,,0,3,3,2,1,,,,,,,,,,,,,,,,,,,,,,,,,,,,,,,,,,,,,,,,,,,,,,
451281,001,2022-11-21_01h03.22.728,Info_measure_main_exp,2022.2.2,Win32,59.88023952,,,,,,,,,,,,,,,,,,masks/mask_004.jpg,,,,,,,,,,,,,,,,,,,,,,,,,,,,,,,,,,,,,,,,,,,0,4,4,3,1,,,,,,,,,,,,,,,,,,,,,,,,,,,,,,,,,,,,,,,,,,,,,,
451281,001,2022-11-21_01h03.22.728,Info_measure_main_exp,2022.2.2,Win32,59.88023952,,,,,,,,,,,,,,,,,,masks/mask_005.jpg,,,,,,,,,,,,,,,,,,,,,,,,,,,,,,,,,,,,,,,,,,,,,,,,0,0,0,4,1,,,,,,,,,,,,,,,,,,,,,,,,,,,,,,,,,,,,,,,,,
451281,001,2022-11-21_01h03.22.728,Info_measure_main_exp,2022.2.2,Win32,59.88023952,,,,,,,,,,,,,,,,,,masks/mask_004.jpg,,,,,,,,,,,,,,,,,,,,,,,,,,,,,,,,,,,,,,,,,,,,,,,,0,1,1,3,1,,,,,,,,,,,,,,,,,,,,,,,,,,,,,,,,,,,,,,,,,
451281,001,2022-11-21_01h03.22.728,Info_measure_main_exp,2022.2.2,Win32,59.88023952,,,,,,,,,,,,,,,,,,masks/mask_003.jpg,,,,,,,,,,,,,,,,,,,,,,,,,,,,,,,,,,,,,,,,,,,,,,,,0,2,2,2,1,,,,,,,,,,,,,,,,,,,,,,,,,,,,,,,,,,,,,,,,,
451281,001,2022-11-21_01h03.22.728,Info_measure_main_exp,2022.2.2,Win32,59.88023952,,,,,,,,,,,,,,,,,,masks/mask_001.jpg,,,,,,,,,,,,,,,,,,,,,,,,,,,,,,,,,,,,,,,,,,,,,,,,0,3,3,0,1,,,,,,,,,,,,,,,,,,,,,,,,,,,,,,,,,,,,,,,,,
451281,001,2022-11-21_01h03.22.728,Info_measure_main_exp,2022.2.2,Win32,59.88023952,,,,,,,,,,,,,,,,,,masks/mask_002.jpg,,,,,,,,,,,,,,,,,,,,,,,,,,,,,,,,,,,,,,,,,,,,,,,,0,4,4,1,1,,,,,,,,,,,,,,,,,,,,,,,,,,,,,,,,,,,,,,,,,
451281,001,2022-11-21_01h03.22.728,Info_measure_main_exp,2022.2.2,Win32,59.88023952,,,,,,,,,,,,,,,,,,,,,,,,,,,,,,0,0.601,1,,,,,,,,,,,,0,131,5,5,2154,2154,absent_patch/patch0002154.jpg,absent_patch/patch0002154.jpg,,,,,,,,,,,,,,,,,,,,-0.06,0.126666667,1,0,0,response7disk,2,-0.003809524,-0.001904762,1,0,0,center_square,0,1,1,89,1,,,,,,,,,,,,,,,,,,,,,,,
451281,001,2022-11-21_01h03.22.728,Info_measure_main_exp,2022.2.2,Win32,59.88023952,,,,,,,,,,,,,,,,,,masks/mask_005.jpg,,,,,,,,,,,,,,,,,,,,,,,,,,,,,,,,,,,,,,,,,,,0,0,0,4,1,,,,,,,,,,,,,,,,,,,,,,,,,,,,,,,,,,,,,,,,,,,,,,
451281,001,2022-11-21_01h03.22.728,Info_measure_main_exp,2022.2.2,Win32,59.88023952,,,,,,,,,,,,,,,,,,masks/mask_002.jpg,,,,,,,,,,,,,,,,,,,,,,,,,,,,,,,,,,,,,,,,,,,0,1,1,1,1,,,,,,,,,,,,,,,,,,,,,,,,,,,,,,,,,,,,,,,,,,,,,,
451281,001,2022-11-21_01h03.22.728,Info_measure_main_exp,2022.2.2,Win32,59.88023952,,,,,,,,,,,,,,,,,,masks/mask_003.jpg,,,,,,,,,,,,,,,,,,,,,,,,,,,,,,,,,,,,,,,,,,,0,2,2,2,1,,,,,,,,,,,,,,,,,,,,,,,,,,,,,,,,,,,,,,,,,,,,,,
451281,001,2022-11-21_01h03.22.728,Info_measure_main_exp,2022.2.2,Win32,59.88023952,,,,,,,,,,,,,,,,,,masks/mask_004.jpg,,,,,,,,,,,,,,,,,,,,,,,,,,,,,,,,,,,,,,,,,,,0,3,3,3,1,,,,,,,,,,,,,,,,,,,,,,,,,,,,,,,,,,,,,,,,,,,,,,
451281,001,2022-11-21_01h03.22.728,Info_measure_main_exp,2022.2.2,Win32,59.88023952,,,,,,,,,,,,,,,,,,masks/mask_001.jpg,,,,,,,,,,,,,,,,,,,,,,,,,,,,,,,,,,,,,,,,,,,0,4,4,0,1,,,,,,,,,,,,,,,,,,,,,,,,,,,,,,,,,,,,,,,,,,,,,,
451281,001,2022-11-21_01h03.22.728,Info_measure_main_exp,2022.2.2,Win32,59.88023952,,,,,,,,,,,,,,,,,,masks/mask_003.jpg,,,,,,,,,,,,,,,,,,,,,,,,,,,,,,,,,,,,,,,,,,,,,,,,0,0,0,2,1,,,,,,,,,,,,,,,,,,,,,,,,,,,,,,,,,,,,,,,,,
451281,001,2022-11-21_01h03.22.728,Info_measure_main_exp,2022.2.2,Win32,59.88023952,,,,,,,,,,,,,,,,,,masks/mask_001.jpg,,,,,,,,,,,,,,,,,,,,,,,,,,,,,,,,,,,,,,,,,,,,,,,,0,1,1,0,1,,,,,,,,,,,,,,,,,,,,,,,,,,,,,,,,,,,,,,,,,
451281,001,2022-11-21_01h03.22.728,Info_measure_main_exp,2022.2.2,Win32,59.88023952,,,,,,,,,,,,,,,,,,masks/mask_004.jpg,,,,,,,,,,,,,,,,,,,,,,,,,,,,,,,,,,,,,,,,,,,,,,,,0,2,2,3,1,,,,,,,,,,,,,,,,,,,,,,,,,,,,,,,,,,,,,,,,,
451281,001,2022-11-21_01h03.22.728,Info_measure_main_exp,2022.2.2,Win32,59.88023952,,,,,,,,,,,,,,,,,,masks/mask_002.jpg,,,,,,,,,,,,,,,,,,,,,,,,,,,,,,,,,,,,,,,,,,,,,,,,0,3,3,1,1,,,,,,,,,,,,,,,,,,,,,,,,,,,,,,,,,,,,,,,,,
451281,001,2022-11-21_01h03.22.728,Info_measure_main_exp,2022.2.2,Win32,59.88023952,,,,,,,,,,,,,,,,,,masks/mask_005.jpg,,,,,,,,,,,,,,,,,,,,,,,,,,,,,,,,,,,,,,,,,,,,,,,,0,4,4,4,1,,,,,,,,,,,,,,,,,,,,,,,,,,,,,,,,,,,,,,,,,
451281,001,2022-11-21_01h03.22.728,Info_measure_main_exp,2022.2.2,Win32,59.88023952,,,,,,,,,,,,,,,,,,,,,,,,,,,,,,7,2.25,1,,,,,,,,,,,,0,131,5,5,2190,2238,absent_patch/patch0002190.jpg,absent_patch/patch0002238.jpg,,,,,,,,,,,,,,,,,,,,0.099047619,0.117142857,1,0,0,response1disk,3,0.00952381,0.013333333,1,0,0,center_square,0,2,2,53,1,,,,,,,,,,,,,,,,,,,,,,,
451281,001,2022-11-21_01h03.22.728,Info_measure_main_exp,2022.2.2,Win32,59.88023952,,,,,,,,,,,,,,,,,,masks/mask_003.jpg,,,,,,,,,,,,,,,,,,,,,,,,,,,,,,,,,,,,,,,,,,,0,0,0,2,1,,,,,,,,,,,,,,,,,,,,,,,,,,,,,,,,,,,,,,,,,,,,,,
451281,001,2022-11-21_01h03.22.728,Info_measure_main_exp,2022.2.2,Win32,59.88023952,,,,,,,,,,,,,,,,,,masks/mask_004.jpg,,,,,,,,,,,,,,,,,,,,,,,,,,,,,,,,,,,,,,,,,,,0,1,1,3,1,,,,,,,,,,,,,,,,,,,,,,,,,,,,,,,,,,,,,,,,,,,,,,
451281,001,2022-11-21_01h03.22.728,Info_measure_main_exp,2022.2.2,Win32,59.88023952,,,,,,,,,,,,,,,,,,masks/mask_002.jpg,,,,,,,,,,,,,,,,,,,,,,,,,,,,,,,,,,,,,,,,,,,0,2,2,1,1,,,,,,,,,,,,,,,,,,,,,,,,,,,,,,,,,,,,,,,,,,,,,,
451281,001,2022-11-21_01h03.22.728,Info_measure_main_exp,2022.2.2,Win32,59.88023952,,,,,,,,,,,,,,,,,,masks/mask_001.jpg,,,,,,,,,,,,,,,,,,,,,,,,,,,,,,,,,,,,,,,,,,,0,3,3,0,1,,,,,,,,,,,,,,,,,,,,,,,,,,,,,,,,,,,,,,,,,,,,,,
451281,001,2022-11-21_01h03.22.728,Info_measure_main_exp,2022.2.2,Win32,59.88023952,,,,,,,,,,,,,,,,,,masks/mask_005.jpg,,,,,,,,,,,,,,,,,,,,,,,,,,,,,,,,,,,,,,,,,,,0,4,4,4,1,,,,,,,,,,,,,,,,,,,,,,,,,,,,,,,,,,,,,,,,,,,,,,
451281,001,2022-11-21_01h03.22.728,Info_measure_main_exp,2022.2.2,Win32,59.88023952,,,,,,,,,,,,,,,,,,masks/mask_005.jpg,,,,,,,,,,,,,,,,,,,,,,,,,,,,,,,,,,,,,,,,,,,,,,,,0,0,0,4,1,,,,,,,,,,,,,,,,,,,,,,,,,,,,,,,,,,,,,,,,,
451281,001,2022-11-21_01h03.22.728,Info_measure_main_exp,2022.2.2,Win32,59.88023952,,,,,,,,,,,,,,,,,,masks/mask_001.jpg,,,,,,,,,,,,,,,,,,,,,,,,,,,,,,,,,,,,,,,,,,,,,,,,0,1,1,0,1,,,,,,,,,,,,,,,,,,,,,,,,,,,,,,,,,,,,,,,,,
451281,001,2022-11-21_01h03.22.728,Info_measure_main_exp,2022.2.2,Win32,59.88023952,,,,,,,,,,,,,,,,,,masks/mask_003.jpg,,,,,,,,,,,,,,,,,,,,,,,,,,,,,,,,,,,,,,,,,,,,,,,,0,2,2,2,1,,,,,,,,,,,,,,,,,,,,,,,,,,,,,,,,,,,,,,,,,
451281,001,2022-11-21_01h03.22.728,Info_measure_main_exp,2022.2.2,Win32,59.88023952,,,,,,,,,,,,,,,,,,masks/mask_002.jpg,,,,,,,,,,,,,,,,,,,,,,,,,,,,,,,,,,,,,,,,,,,,,,,,0,3,3,1,1,,,,,,,,,,,,,,,,,,,,,,,,,,,,,,,,,,,,,,,,,
451281,001,2022-11-21_01h03.22.728,Info_measure_main_exp,2022.2.2,Win32,59.88023952,,,,,,,,,,,,,,,,,,masks/mask_004.jpg,,,,,,,,,,,,,,,,,,,,,,,,,,,,,,,,,,,,,,,,,,,,,,,,0,4,4,3,1,,,,,,,,,,,,,,,,,,,,,,,,,,,,,,,,,,,,,,,,,
451281,001,2022-11-21_01h03.22.728,Info_measure_main_exp,2022.2.2,Win32,59.88023952,,,,,,,,,,,,,,,,,,,,,,,,,,,,,,4,1.865,1,,,,,,,,,,,,0,131,5,5,2190,2178,absent_patch/patch0002190.jpg,absent_patch/patch0002178.jpg,,,,,,,,,,,,,,,,,,,,0.037142857,-0.080952381,1,0,0,response3disk,4,0.000952381,0.005714286,1,0,0,center_square,0,3,3,14,1,,,,,,,,,,,,,,,,,,,,,,,
451281,001,2022-11-21_01h03.22.728,Info_measure_main_exp,2022.2.2,Win32,59.88023952,,,,,,,,,,,,,,,,,,masks/mask_001.jpg,,,,,,,,,,,,,,,,,,,,,,,,,,,,,,,,,,,,,,,,,,,0,0,0,0,1,,,,,,,,,,,,,,,,,,,,,,,,,,,,,,,,,,,,,,,,,,,,,,
451281,001,2022-11-21_01h03.22.728,Info_measure_main_exp,2022.2.2,Win32,59.88023952,,,,,,,,,,,,,,,,,,masks/mask_005.jpg,,,,,,,,,,,,,,,,,,,,,,,,,,,,,,,,,,,,,,,,,,,0,1,1,4,1,,,,,,,,,,,,,,,,,,,,,,,,,,,,,,,,,,,,,,,,,,,,,,
451281,001,2022-11-21_01h03.22.728,Info_measure_main_exp,2022.2.2,Win32,59.88023952,,,,,,,,,,,,,,,,,,masks/mask_002.jpg,,,,,,,,,,,,,,,,,,,,,,,,,,,,,,,,,,,,,,,,,,,0,2,2,1,1,,,,,,,,,,,,,,,,,,,,,,,,,,,,,,,,,,,,,,,,,,,,,,
451281,001,2022-11-21_01h03.22.728,Info_measure_main_exp,2022.2.2,Win32,59.88023952,,,,,,,,,,,,,,,,,,masks/mask_004.jpg,,,,,,,,,,,,,,,,,,,,,,,,,,,,,,,,,,,,,,,,,,,0,3,3,3,1,,,,,,,,,,,,,,,,,,,,,,,,,,,,,,,,,,,,,,,,,,,,,,
451281,001,2022-11-21_01h03.22.728,Info_measure_main_exp,2022.2.2,Win32,59.88023952,,,,,,,,,,,,,,,,,,masks/mask_003.jpg,,,,,,,,,,,,,,,,,,,,,,,,,,,,,,,,,,,,,,,,,,,0,4,4,2,1,,,,,,,,,,,,,,,,,,,,,,,,,,,,,,,,,,,,,,,,,,,,,,
451281,001,2022-11-21_01h03.22.728,Info_measure_main_exp,2022.2.2,Win32,59.88023952,,,,,,,,,,,,,,,,,,masks/mask_001.jpg,,,,,,,,,,,,,,,,,,,,,,,,,,,,,,,,,,,,,,,,,,,,,,,,0,0,0,0,1,,,,,,,,,,,,,,,,,,,,,,,,,,,,,,,,,,,,,,,,,
451281,001,2022-11-21_01h03.22.728,Info_measure_main_exp,2022.2.2,Win32,59.88023952,,,,,,,,,,,,,,,,,,masks/mask_004.jpg,,,,,,,,,,,,,,,,,,,,,,,,,,,,,,,,,,,,,,,,,,,,,,,,0,1,1,3,1,,,,,,,,,,,,,,,,,,,,,,,,,,,,,,,,,,,,,,,,,
451281,001,2022-11-21_01h03.22.728,Info_measure_main_exp,2022.2.2,Win32,59.88023952,,,,,,,,,,,,,,,,,,masks/mask_002.jpg,,,,,,,,,,,,,,,,,,,,,,,,,,,,,,,,,,,,,,,,,,,,,,,,0,2,2,1,1,,,,,,,,,,,,,,,,,,,,,,,,,,,,,,,,,,,,,,,,,
451281,001,2022-11-21_01h03.22.728,Info_measure_main_exp,2022.2.2,Win32,59.88023952,,,,,,,,,,,,,,,,,,masks/mask_005.jpg,,,,,,,,,,,,,,,,,,,,,,,,,,,,,,,,,,,,,,,,,,,,,,,,0,3,3,4,1,,,,,,,,,,,,,,,,,,,,,,,,,,,,,,,,,,,,,,,,,
451281,001,2022-11-21_01h03.22.728,Info_measure_main_exp,2022.2.2,Win32,59.88023952,,,,,,,,,,,,,,,,,,masks/mask_003.jpg,,,,,,,,,,,,,,,,,,,,,,,,,,,,,,,,,,,,,,,,,,,,,,,,0,4,4,2,1,,,,,,,,,,,,,,,,,,,,,,,,,,,,,,,,,,,,,,,,,
451281,001,2022-11-21_01h03.22.728,Info_measure_main_exp,2022.2.2,Win32,59.88023952,,,,,,,,,,,,,,,,,,,,,,,,,,,,,,6,1.256,1,,,,,,,,,,,,0,131,5,5,2082,2178,absent_patch/patch0002082.jpg,absent_patch/patch0002178.jpg,,,,,,,,,,,,,,,,,,,,0.058095238,0.025714286,1,0,0,response1disk,5,0.003809524,0.012380952,1,0,0,center_square,0,4,4,2,1,,,,,,,,,,,,,,,,,,,,,,,
451281,001,2022-11-21_01h03.22.728,Info_measure_main_exp,2022.2.2,Win32,59.88023952,,,,,,,,,,,,,,,,,,masks/mask_004.jpg,,,,,,,,,,,,,,,,,,,,,,,,,,,,,,,,,,,,,,,,,,,0,0,0,3,1,,,,,,,,,,,,,,,,,,,,,,,,,,,,,,,,,,,,,,,,,,,,,,
451281,001,2022-11-21_01h03.22.728,Info_measure_main_exp,2022.2.2,Win32,59.88023952,,,,,,,,,,,,,,,,,,masks/mask_003.jpg,,,,,,,,,,,,,,,,,,,,,,,,,,,,,,,,,,,,,,,,,,,0,1,1,2,1,,,,,,,,,,,,,,,,,,,,,,,,,,,,,,,,,,,,,,,,,,,,,,
451281,001,2022-11-21_01h03.22.728,Info_measure_main_exp,2022.2.2,Win32,59.88023952,,,,,,,,,,,,,,,,,,masks/mask_001.jpg,,,,,,,,,,,,,,,,,,,,,,,,,,,,,,,,,,,,,,,,,,,0,2,2,0,1,,,,,,,,,,,,,,,,,,,,,,,,,,,,,,,,,,,,,,,,,,,,,,
451281,001,2022-11-21_01h03.22.728,Info_measure_main_exp,2022.2.2,Win32,59.88023952,,,,,,,,,,,,,,,,,,masks/mask_002.jpg,,,,,,,,,,,,,,,,,,,,,,,,,,,,,,,,,,,,,,,,,,,0,3,3,1,1,,,,,,,,,,,,,,,,,,,,,,,,,,,,,,,,,,,,,,,,,,,,,,
451281,001,2022-11-21_01h03.22.728,Info_measure_main_exp,2022.2.2,Win32,59.88023952,,,,,,,,,,,,,,,,,,masks/mask_005.jpg,,,,,,,,,,,,,,,,,,,,,,,,,,,,,,,,,,,,,,,,,,,0,4,4,4,1,,,,,,,,,,,,,,,,,,,,,,,,,,,,,,,,,,,,,,,,,,,,,,
451281,001,2022-11-21_01h03.22.728,Info_measure_main_exp,2022.2.2,Win32,59.88023952,,,,,,,,,,,,,,,,,,masks/mask_003.jpg,,,,,,,,,,,,,,,,,,,,,,,,,,,,,,,,,,,,,,,,,,,,,,,,0,0,0,2,1,,,,,,,,,,,,,,,,,,,,,,,,,,,,,,,,,,,,,,,,,
451281,001,2022-11-21_01h03.22.728,Info_measure_main_exp,2022.2.2,Win32,59.88023952,,,,,,,,,,,,,,,,,,masks/mask_005.jpg,,,,,,,,,,,,,,,,,,,,,,,,,,,,,,,,,,,,,,,,,,,,,,,,0,1,1,4,1,,,,,,,,,,,,,,,,,,,,,,,,,,,,,,,,,,,,,,,,,
451281,001,2022-11-21_01h03.22.728,Info_measure_main_exp,2022.2.2,Win32,59.88023952,,,,,,,,,,,,,,,,,,masks/mask_002.jpg,,,,,,,,,,,,,,,,,,,,,,,,,,,,,,,,,,,,,,,,,,,,,,,,0,2,2,1,1,,,,,,,,,,,,,,,,,,,,,,,,,,,,,,,,,,,,,,,,,
451281,001,2022-11-21_01h03.22.728,Info_measure_main_exp,2022.2.2,Win32,59.88023952,,,,,,,,,,,,,,,,,,masks/mask_001.jpg,,,,,,,,,,,,,,,,,,,,,,,,,,,,,,,,,,,,,,,,,,,,,,,,0,3,3,0,1,,,,,,,,,,,,,,,,,,,,,,,,,,,,,,,,,,,,,,,,,
451281,001,2022-11-21_01h03.22.728,Info_measure_main_exp,2022.2.2,Win32,59.88023952,,,,,,,,,,,,,,,,,,masks/mask_004.jpg,,,,,,,,,,,,,,,,,,,,,,,,,,,,,,,,,,,,,,,,,,,,,,,,0,4,4,3,1,,,,,,,,,,,,,,,,,,,,,,,,,,,,,,,,,,,,,,,,,
451281,001,2022-11-21_01h03.22.728,Info_measure_main_exp,2022.2.2,Win32,59.88023952,,,,,,,,,,,,,,,,,,,,,,,,,,,,,,7,0.517,1,,,,,,,,,,,,0,131,5,5,2166,2154,absent_patch/patch0002166.jpg,absent_patch/patch0002154.jpg,,,,,,,,,,,,,,,,,,,,0.059047619,0.151428571,1,0,0,response1disk,6,0.004761905,-0.003809524,1,0,0,center_square,0,5,5,79,1,,,,,,,,,,,,,,,,,,,,,,,
451281,001,2022-11-21_01h03.22.728,Info_measure_main_exp,2022.2.2,Win32,59.88023952,,,,,,,,,,,,,,,,,,masks/mask_005.jpg,,,,,,,,,,,,,,,,,,,,,,,,,,,,,,,,,,,,,,,,,,,0,0,0,4,1,,,,,,,,,,,,,,,,,,,,,,,,,,,,,,,,,,,,,,,,,,,,,,
451281,001,2022-11-21_01h03.22.728,Info_measure_main_exp,2022.2.2,Win32,59.88023952,,,,,,,,,,,,,,,,,,masks/mask_002.jpg,,,,,,,,,,,,,,,,,,,,,,,,,,,,,,,,,,,,,,,,,,,0,1,1,1,1,,,,,,,,,,,,,,,,,,,,,,,,,,,,,,,,,,,,,,,,,,,,,,
451281,001,2022-11-21_01h03.22.728,Info_measure_main_exp,2022.2.2,Win32,59.88023952,,,,,,,,,,,,,,,,,,masks/mask_001.jpg,,,,,,,,,,,,,,,,,,,,,,,,,,,,,,,,,,,,,,,,,,,0,2,2,0,1,,,,,,,,,,,,,,,,,,,,,,,,,,,,,,,,,,,,,,,,,,,,,,
451281,001,2022-11-21_01h03.22.728,Info_measure_main_exp,2022.2.2,Win32,59.88023952,,,,,,,,,,,,,,,,,,masks/mask_004.jpg,,,,,,,,,,,,,,,,,,,,,,,,,,,,,,,,,,,,,,,,,,,0,3,3,3,1,,,,,,,,,,,,,,,,,,,,,,,,,,,,,,,,,,,,,,,,,,,,,,
451281,001,2022-11-21_01h03.22.728,Info_measure_main_exp,2022.2.2,Win32,59.88023952,,,,,,,,,,,,,,,,,,masks/mask_003.jpg,,,,,,,,,,,,,,,,,,,,,,,,,,,,,,,,,,,,,,,,,,,0,4,4,2,1,,,,,,,,,,,,,,,,,,,,,,,,,,,,,,,,,,,,,,,,,,,,,,
451281,001,2022-11-21_01h03.22.728,Info_measure_main_exp,2022.2.2,Win32,59.88023952,,,,,,,,,,,,,,,,,,masks/mask_005.jpg,,,,,,,,,,,,,,,,,,,,,,,,,,,,,,,,,,,,,,,,,,,,,,,,0,0,0,4,1,,,,,,,,,,,,,,,,,,,,,,,,,,,,,,,,,,,,,,,,,
451281,001,2022-11-21_01h03.22.728,Info_measure_main_exp,2022.2.2,Win32,59.88023952,,,,,,,,,,,,,,,,,,masks/mask_003.jpg,,,,,,,,,,,,,,,,,,,,,,,,,,,,,,,,,,,,,,,,,,,,,,,,0,1,1,2,1,,,,,,,,,,,,,,,,,,,,,,,,,,,,,,,,,,,,,,,,,
451281,001,2022-11-21_01h03.22.728,Info_measure_main_exp,2022.2.2,Win32,59.88023952,,,,,,,,,,,,,,,,,,masks/mask_004.jpg,,,,,,,,,,,,,,,,,,,,,,,,,,,,,,,,,,,,,,,,,,,,,,,,0,2,2,3,1,,,,,,,,,,,,,,,,,,,,,,,,,,,,,,,,,,,,,,,,,
451281,001,2022-11-21_01h03.22.728,Info_measure_main_exp,2022.2.2,Win32,59.88023952,,,,,,,,,,,,,,,,,,masks/mask_002.jpg,,,,,,,,,,,,,,,,,,,,,,,,,,,,,,,,,,,,,,,,,,,,,,,,0,3,3,1,1,,,,,,,,,,,,,,,,,,,,,,,,,,,,,,,,,,,,,,,,,
451281,001,2022-11-21_01h03.22.728,Info_measure_main_exp,2022.2.2,Win32,59.88023952,,,,,,,,,,,,,,,,,,masks/mask_001.jpg,,,,,,,,,,,,,,,,,,,,,,,,,,,,,,,,,,,,,,,,,,,,,,,,0,4,4,0,1,,,,,,,,,,,,,,,,,,,,,,,,,,,,,,,,,,,,,,,,,
451281,001,2022-11-21_01h03.22.728,Info_measure_main_exp,2022.2.2,Win32,59.88023952,,,,,,,,,,,,,,,,,,,,,,,,,,,,,,7,0.626,1,,,,,,,,,,,,0,131,5,5,2154,1950,absent_patch/patch0002154.jpg,absent_patch/patch0001950.jpg,,,,,,,,,,,,,,,,,,,,0.022857143,0.052380952,1,0,0,response1disk,7,-0.002857143,-0.003809524,1,0,0,center_square,0,6,6,96,1,,,,,,,,,,,,,,,,,,,,,,,
451281,001,2022-11-21_01h03.22.728,Info_measure_main_exp,2022.2.2,Win32,59.88023952,,,,,,,,,,,,,,,,,,masks/mask_001.jpg,,,,,,,,,,,,,,,,,,,,,,,,,,,,,,,,,,,,,,,,,,,0,0,0,0,1,,,,,,,,,,,,,,,,,,,,,,,,,,,,,,,,,,,,,,,,,,,,,,
451281,001,2022-11-21_01h03.22.728,Info_measure_main_exp,2022.2.2,Win32,59.88023952,,,,,,,,,,,,,,,,,,masks/mask_005.jpg,,,,,,,,,,,,,,,,,,,,,,,,,,,,,,,,,,,,,,,,,,,0,1,1,4,1,,,,,,,,,,,,,,,,,,,,,,,,,,,,,,,,,,,,,,,,,,,,,,
451281,001,2022-11-21_01h03.22.728,Info_measure_main_exp,2022.2.2,Win32,59.88023952,,,,,,,,,,,,,,,,,,masks/mask_004.jpg,,,,,,,,,,,,,,,,,,,,,,,,,,,,,,,,,,,,,,,,,,,0,2,2,3,1,,,,,,,,,,,,,,,,,,,,,,,,,,,,,,,,,,,,,,,,,,,,,,
451281,001,2022-11-21_01h03.22.728,Info_measure_main_exp,2022.2.2,Win32,59.88023952,,,,,,,,,,,,,,,,,,masks/mask_002.jpg,,,,,,,,,,,,,,,,,,,,,,,,,,,,,,,,,,,,,,,,,,,0,3,3,1,1,,,,,,,,,,,,,,,,,,,,,,,,,,,,,,,,,,,,,,,,,,,,,,
451281,001,2022-11-21_01h03.22.728,Info_measure_main_exp,2022.2.2,Win32,59.88023952,,,,,,,,,,,,,,,,,,masks/mask_003.jpg,,,,,,,,,,,,,,,,,,,,,,,,,,,,,,,,,,,,,,,,,,,0,4,4,2,1,,,,,,,,,,,,,,,,,,,,,,,,,,,,,,,,,,,,,,,,,,,,,,
451281,001,2022-11-21_01h03.22.728,Info_measure_main_exp,2022.2.2,Win32,59.88023952,,,,,,,,,,,,,,,,,,masks/mask_002.jpg,,,,,,,,,,,,,,,,,,,,,,,,,,,,,,,,,,,,,,,,,,,,,,,,0,0,0,1,1,,,,,,,,,,,,,,,,,,,,,,,,,,,,,,,,,,,,,,,,,
451281,001,2022-11-21_01h03.22.728,Info_measure_main_exp,2022.2.2,Win32,59.88023952,,,,,,,,,,,,,,,,,,masks/mask_005.jpg,,,,,,,,,,,,,,,,,,,,,,,,,,,,,,,,,,,,,,,,,,,,,,,,0,1,1,4,1,,,,,,,,,,,,,,,,,,,,,,,,,,,,,,,,,,,,,,,,,
451281,001,2022-11-21_01h03.22.728,Info_measure_main_exp,2022.2.2,Win32,59.88023952,,,,,,,,,,,,,,,,,,masks/mask_003.jpg,,,,,,,,,,,,,,,,,,,,,,,,,,,,,,,,,,,,,,,,,,,,,,,,0,2,2,2,1,,,,,,,,,,,,,,,,,,,,,,,,,,,,,,,,,,,,,,,,,
451281,001,2022-11-21_01h03.22.728,Info_measure_main_exp,2022.2.2,Win32,59.88023952,,,,,,,,,,,,,,,,,,masks/mask_004.jpg,,,,,,,,,,,,,,,,,,,,,,,,,,,,,,,,,,,,,,,,,,,,,,,,0,3,3,3,1,,,,,,,,,,,,,,,,,,,,,,,,,,,,,,,,,,,,,,,,,
451281,001,2022-11-21_01h03.22.728,Info_measure_main_exp,2022.2.2,Win32,59.88023952,,,,,,,,,,,,,,,,,,masks/mask_001.jpg,,,,,,,,,,,,,,,,,,,,,,,,,,,,,,,,,,,,,,,,,,,,,,,,0,4,4,0,1,,,,,,,,,,,,,,,,,,,,,,,,,,,,,,,,,,,,,,,,,
451281,001,2022-11-21_01h03.22.728,Info_measure_main_exp,2022.2.2,Win32,59.88023952,,,,,,,,,,,,,,,,,,,,,,,,,,,,,,7,0.667,1,,,,,,,,,,,,0,131,5,5,1950,2238,absent_patch/patch0001950.jpg,absent_patch/patch0002238.jpg,,,,,,,,,,,,,,,,,,,,0.026666667,0.043809524,1,0,0,response1disk,8,0.006666667,0.008571429,1,0,0,center_square,0,7,7,8,1,,,,,,,,,,,,,,,,,,,,,,,
451281,001,2022-11-21_01h03.22.728,Info_measure_main_exp,2022.2.2,Win32,59.88023952,,,,,,,,,,,,,,,,,,masks/mask_002.jpg,,,,,,,,,,,,,,,,,,,,,,,,,,,,,,,,,,,,,,,,,,,0,0,0,1,1,,,,,,,,,,,,,,,,,,,,,,,,,,,,,,,,,,,,,,,,,,,,,,
451281,001,2022-11-21_01h03.22.728,Info_measure_main_exp,2022.2.2,Win32,59.88023952,,,,,,,,,,,,,,,,,,masks/mask_005.jpg,,,,,,,,,,,,,,,,,,,,,,,,,,,,,,,,,,,,,,,,,,,0,1,1,4,1,,,,,,,,,,,,,,,,,,,,,,,,,,,,,,,,,,,,,,,,,,,,,,
451281,001,2022-11-21_01h03.22.728,Info_measure_main_exp,2022.2.2,Win32,59.88023952,,,,,,,,,,,,,,,,,,masks/mask_004.jpg,,,,,,,,,,,,,,,,,,,,,,,,,,,,,,,,,,,,,,,,,,,0,2,2,3,1,,,,,,,,,,,,,,,,,,,,,,,,,,,,,,,,,,,,,,,,,,,,,,
451281,001,2022-11-21_01h03.22.728,Info_measure_main_exp,2022.2.2,Win32,59.88023952,,,,,,,,,,,,,,,,,,masks/mask_003.jpg,,,,,,,,,,,,,,,,,,,,,,,,,,,,,,,,,,,,,,,,,,,0,3,3,2,1,,,,,,,,,,,,,,,,,,,,,,,,,,,,,,,,,,,,,,,,,,,,,,
451281,001,2022-11-21_01h03.22.728,Info_measure_main_exp,2022.2.2,Win32,59.88023952,,,,,,,,,,,,,,,,,,masks/mask_001.jpg,,,,,,,,,,,,,,,,,,,,,,,,,,,,,,,,,,,,,,,,,,,0,4,4,0,1,,,,,,,,,,,,,,,,,,,,,,,,,,,,,,,,,,,,,,,,,,,,,,
451281,001,2022-11-21_01h03.22.728,Info_measure_main_exp,2022.2.2,Win32,59.88023952,,,,,,,,,,,,,,,,,,masks/mask_001.jpg,,,,,,,,,,,,,,,,,,,,,,,,,,,,,,,,,,,,,,,,,,,,,,,,0,0,0,0,1,,,,,,,,,,,,,,,,,,,,,,,,,,,,,,,,,,,,,,,,,
451281,001,2022-11-21_01h03.22.728,Info_measure_main_exp,2022.2.2,Win32,59.88023952,,,,,,,,,,,,,,,,,,masks/mask_003.jpg,,,,,,,,,,,,,,,,,,,,,,,,,,,,,,,,,,,,,,,,,,,,,,,,0,1,1,2,1,,,,,,,,,,,,,,,,,,,,,,,,,,,,,,,,,,,,,,,,,
451281,001,2022-11-21_01h03.22.728,Info_measure_main_exp,2022.2.2,Win32,59.88023952,,,,,,,,,,,,,,,,,,masks/mask_002.jpg,,,,,,,,,,,,,,,,,,,,,,,,,,,,,,,,,,,,,,,,,,,,,,,,0,2,2,1,1,,,,,,,,,,,,,,,,,,,,,,,,,,,,,,,,,,,,,,,,,
451281,001,2022-11-21_01h03.22.728,Info_measure_main_exp,2022.2.2,Win32,59.88023952,,,,,,,,,,,,,,,,,,masks/mask_005.jpg,,,,,,,,,,,,,,,,,,,,,,,,,,,,,,,,,,,,,,,,,,,,,,,,0,3,3,4,1,,,,,,,,,,,,,,,,,,,,,,,,,,,,,,,,,,,,,,,,,
451281,001,2022-11-21_01h03.22.728,Info_measure_main_exp,2022.2.2,Win32,59.88023952,,,,,,,,,,,,,,,,,,masks/mask_004.jpg,,,,,,,,,,,,,,,,,,,,,,,,,,,,,,,,,,,,,,,,,,,,,,,,0,4,4,3,1,,,,,,,,,,,,,,,,,,,,,,,,,,,,,,,,,,,,,,,,,
451281,001,2022-11-21_01h03.22.728,Info_measure_main_exp,2022.2.2,Win32,59.88023952,,,,,,,,,,,,,,,,,,,,,,,,,,,,,,7,0.701,1,,,,,,,,,,,,1,131,5,5,1,2178,present_patch/cong_131_5_a.jpg,absent_patch/patch0002178.jpg,,,,,,,,,,,,,,,,,,,,0.019047619,0.043809524,1,0,0,response1disk,9,0.006666667,-0.000952381,1,0,0,center_square,0,8,8,40,1,,,,,,,,,,,,,,,,,,,,,,,
451281,001,2022-11-21_01h03.22.728,Info_measure_main_exp,2022.2.2,Win32,59.88023952,,,,,,,,,,,,,,,,,,masks/mask_002.jpg,,,,,,,,,,,,,,,,,,,,,,,,,,,,,,,,,,,,,,,,,,,0,0,0,1,1,,,,,,,,,,,,,,,,,,,,,,,,,,,,,,,,,,,,,,,,,,,,,,
451281,001,2022-11-21_01h03.22.728,Info_measure_main_exp,2022.2.2,Win32,59.88023952,,,,,,,,,,,,,,,,,,masks/mask_001.jpg,,,,,,,,,,,,,,,,,,,,,,,,,,,,,,,,,,,,,,,,,,,0,1,1,0,1,,,,,,,,,,,,,,,,,,,,,,,,,,,,,,,,,,,,,,,,,,,,,,
451281,001,2022-11-21_01h03.22.728,Info_measure_main_exp,2022.2.2,Win32,59.88023952,,,,,,,,,,,,,,,,,,masks/mask_003.jpg,,,,,,,,,,,,,,,,,,,,,,,,,,,,,,,,,,,,,,,,,,,0,2,2,2,1,,,,,,,,,,,,,,,,,,,,,,,,,,,,,,,,,,,,,,,,,,,,,,
451281,001,2022-11-21_01h03.22.728,Info_measure_main_exp,2022.2.2,Win32,59.88023952,,,,,,,,,,,,,,,,,,masks/mask_005.jpg,,,,,,,,,,,,,,,,,,,,,,,,,,,,,,,,,,,,,,,,,,,0,3,3,4,1,,,,,,,,,,,,,,,,,,,,,,,,,,,,,,,,,,,,,,,,,,,,,,
451281,001,2022-11-21_01h03.22.728,Info_measure_main_exp,2022.2.2,Win32,59.88023952,,,,,,,,,,,,,,,,,,masks/mask_004.jpg,,,,,,,,,,,,,,,,,,,,,,,,,,,,,,,,,,,,,,,,,,,0,4,4,3,1,,,,,,,,,,,,,,,,,,,,,,,,,,,,,,,,,,,,,,,,,,,,,,
451281,001,2022-11-21_01h03.22.728,Info_measure_main_exp,2022.2.2,Win32,59.88023952,,,,,,,,,,,,,,,,,,masks/mask_001.jpg,,,,,,,,,,,,,,,,,,,,,,,,,,,,,,,,,,,,,,,,,,,,,,,,0,0,0,0,1,,,,,,,,,,,,,,,,,,,,,,,,,,,,,,,,,,,,,,,,,
451281,001,2022-11-21_01h03.22.728,Info_measure_main_exp,2022.2.2,Win32,59.88023952,,,,,,,,,,,,,,,,,,masks/mask_005.jpg,,,,,,,,,,,,,,,,,,,,,,,,,,,,,,,,,,,,,,,,,,,,,,,,0,1,1,4,1,,,,,,,,,,,,,,,,,,,,,,,,,,,,,,,,,,,,,,,,,
451281,001,2022-11-21_01h03.22.728,Info_measure_main_exp,2022.2.2,Win32,59.88023952,,,,,,,,,,,,,,,,,,masks/mask_003.jpg,,,,,,,,,,,,,,,,,,,,,,,,,,,,,,,,,,,,,,,,,,,,,,,,0,2,2,2,1,,,,,,,,,,,,,,,,,,,,,,,,,,,,,,,,,,,,,,,,,
451281,001,2022-11-21_01h03.22.728,Info_measure_main_exp,2022.2.2,Win32,59.88023952,,,,,,,,,,,,,,,,,,masks/mask_002.jpg,,,,,,,,,,,,,,,,,,,,,,,,,,,,,,,,,,,,,,,,,,,,,,,,0,3,3,1,1,,,,,,,,,,,,,,,,,,,,,,,,,,,,,,,,,,,,,,,,,
451281,001,2022-11-21_01h03.22.728,Info_measure_main_exp,2022.2.2,Win32,59.88023952,,,,,,,,,,,,,,,,,,masks/mask_004.jpg,,,,,,,,,,,,,,,,,,,,,,,,,,,,,,,,,,,,,,,,,,,,,,,,0,4,4,3,1,,,,,,,,,,,,,,,,,,,,,,,,,,,,,,,,,,,,,,,,,
451281,001,2022-11-21_01h03.22.728,Info_measure_main_exp,2022.2.2,Win32,59.88023952,,,,,,,,,,,,,,,,,,,,,,,,,,,,,,0,0.472,1,,,,,,,,,,,,0,131,5,5,2190,2190,absent_patch/patch0002190.jpg,absent_patch/patch0002190.jpg,,,,,,,,,,,,,,,,,,,,-0.032380952,0.07047619,1,0,0,response7disk,10,-0.01047619,0.000952381,1,0,0,center_square,0,9,9,86,1,,,,,,,,,,,,,,,,,,,,,,,
451281,001,2022-11-21_01h03.22.728,Info_measure_main_exp,2022.2.2,Win32,59.88023952,,,,,,,,,,,,,,,,,,masks/mask_001.jpg,,,,,,,,,,,,,,,,,,,,,,,,,,,,,,,,,,,,,,,,,,,0,0,0,0,1,,,,,,,,,,,,,,,,,,,,,,,,,,,,,,,,,,,,,,,,,,,,,,
451281,001,2022-11-21_01h03.22.728,Info_measure_main_exp,2022.2.2,Win32,59.88023952,,,,,,,,,,,,,,,,,,masks/mask_003.jpg,,,,,,,,,,,,,,,,,,,,,,,,,,,,,,,,,,,,,,,,,,,0,1,1,2,1,,,,,,,,,,,,,,,,,,,,,,,,,,,,,,,,,,,,,,,,,,,,,,
451281,001,2022-11-21_01h03.22.728,Info_measure_main_exp,2022.2.2,Win32,59.88023952,,,,,,,,,,,,,,,,,,masks/mask_005.jpg,,,,,,,,,,,,,,,,,,,,,,,,,,,,,,,,,,,,,,,,,,,0,2,2,4,1,,,,,,,,,,,,,,,,,,,,,,,,,,,,,,,,,,,,,,,,,,,,,,
451281,001,2022-11-21_01h03.22.728,Info_measure_main_exp,2022.2.2,Win32,59.88023952,,,,,,,,,,,,,,,,,,masks/mask_002.jpg,,,,,,,,,,,,,,,,,,,,,,,,,,,,,,,,,,,,,,,,,,,0,3,3,1,1,,,,,,,,,,,,,,,,,,,,,,,,,,,,,,,,,,,,,,,,,,,,,,
451281,001,2022-11-21_01h03.22.728,Info_measure_main_exp,2022.2.2,Win32,59.88023952,,,,,,,,,,,,,,,,,,masks/mask_004.jpg,,,,,,,,,,,,,,,,,,,,,,,,,,,,,,,,,,,,,,,,,,,0,4,4,3,1,,,,,,,,,,,,,,,,,,,,,,,,,,,,,,,,,,,,,,,,,,,,,,
451281,001,2022-11-21_01h03.22.728,Info_measure_main_exp,2022.2.2,Win32,59.88023952,,,,,,,,,,,,,,,,,,masks/mask_005.jpg,,,,,,,,,,,,,,,,,,,,,,,,,,,,,,,,,,,,,,,,,,,,,,,,0,0,0,4,1,,,,,,,,,,,,,,,,,,,,,,,,,,,,,,,,,,,,,,,,,
451281,001,2022-11-21_01h03.22.728,Info_measure_main_exp,2022.2.2,Win32,59.88023952,,,,,,,,,,,,,,,,,,masks/mask_001.jpg,,,,,,,,,,,,,,,,,,,,,,,,,,,,,,,,,,,,,,,,,,,,,,,,0,1,1,0,1,,,,,,,,,,,,,,,,,,,,,,,,,,,,,,,,,,,,,,,,,
451281,001,2022-11-21_01h03.22.728,Info_measure_main_exp,2022.2.2,Win32,59.88023952,,,,,,,,,,,,,,,,,,masks/mask_004.jpg,,,,,,,,,,,,,,,,,,,,,,,,,,,,,,,,,,,,,,,,,,,,,,,,0,2,2,3,1,,,,,,,,,,,,,,,,,,,,,,,,,,,,,,,,,,,,,,,,,
451281,001,2022-11-21_01h03.22.728,Info_measure_main_exp,2022.2.2,Win32,59.88023952,,,,,,,,,,,,,,,,,,masks/mask_003.jpg,,,,,,,,,,,,,,,,,,,,,,,,,,,,,,,,,,,,,,,,,,,,,,,,0,3,3,2,1,,,,,,,,,,,,,,,,,,,,,,,,,,,,,,,,,,,,,,,,,
451281,001,2022-11-21_01h03.22.728,Info_measure_main_exp,2022.2.2,Win32,59.88023952,,,,,,,,,,,,,,,,,,masks/mask_002.jpg,,,,,,,,,,,,,,,,,,,,,,,,,,,,,,,,,,,,,,,,,,,,,,,,0,4,4,1,1,,,,,,,,,,,,,,,,,,,,,,,,,,,,,,,,,,,,,,,,,
451281,001,2022-11-21_01h03.22.728,Info_measure_main_exp,2022.2.2,Win32,59.88023952,,,,,,,,,,,,,,,,,,,,,,,,,,,,,,5,1.783,1,,,,,,,,,,,,0,131,5,5,2214,2166,absent_patch/patch0002214.jpg,absent_patch/patch0002166.jpg,,,,,,,,,,,,,,,,,,,,0.1,-0.062857143,1,0,0,response3disk,11,-0.001904762,-0.006666667,1,0,0,center_square,0,10,10,109,1,,,,,,,,,,,,,,,,,,,,,,,
451281,001,2022-11-21_01h03.22.728,Info_measure_main_exp,2022.2.2,Win32,59.88023952,,,,,,,,,,,,,,,,,,masks/mask_005.jpg,,,,,,,,,,,,,,,,,,,,,,,,,,,,,,,,,,,,,,,,,,,0,0,0,4,1,,,,,,,,,,,,,,,,,,,,,,,,,,,,,,,,,,,,,,,,,,,,,,
451281,001,2022-11-21_01h03.22.728,Info_measure_main_exp,2022.2.2,Win32,59.88023952,,,,,,,,,,,,,,,,,,masks/mask_001.jpg,,,,,,,,,,,,,,,,,,,,,,,,,,,,,,,,,,,,,,,,,,,0,1,1,0,1,,,,,,,,,,,,,,,,,,,,,,,,,,,,,,,,,,,,,,,,,,,,,,
451281,001,2022-11-21_01h03.22.728,Info_measure_main_exp,2022.2.2,Win32,59.88023952,,,,,,,,,,,,,,,,,,masks/mask_004.jpg,,,,,,,,,,,,,,,,,,,,,,,,,,,,,,,,,,,,,,,,,,,0,2,2,3,1,,,,,,,,,,,,,,,,,,,,,,,,,,,,,,,,,,,,,,,,,,,,,,
451281,001,2022-11-21_01h03.22.728,Info_measure_main_exp,2022.2.2,Win32,59.88023952,,,,,,,,,,,,,,,,,,masks/mask_002.jpg,,,,,,,,,,,,,,,,,,,,,,,,,,,,,,,,,,,,,,,,,,,0,3,3,1,1,,,,,,,,,,,,,,,,,,,,,,,,,,,,,,,,,,,,,,,,,,,,,,
451281,001,2022-11-21_01h03.22.728,Info_measure_main_exp,2022.2.2,Win32,59.88023952,,,,,,,,,,,,,,,,,,masks/mask_003.jpg,,,,,,,,,,,,,,,,,,,,,,,,,,,,,,,,,,,,,,,,,,,0,4,4,2,1,,,,,,,,,,,,,,,,,,,,,,,,,,,,,,,,,,,,,,,,,,,,,,
451281,001,2022-11-21_01h03.22.728,Info_measure_main_exp,2022.2.2,Win32,59.88023952,,,,,,,,,,,,,,,,,,masks/mask_001.jpg,,,,,,,,,,,,,,,,,,,,,,,,,,,,,,,,,,,,,,,,,,,,,,,,0,0,0,0,1,,,,,,,,,,,,,,,,,,,,,,,,,,,,,,,,,,,,,,,,,
451281,001,2022-11-21_01h03.22.728,Info_measure_main_exp,2022.2.2,Win32,59.88023952,,,,,,,,,,,,,,,,,,masks/mask_003.jpg,,,,,,,,,,,,,,,,,,,,,,,,,,,,,,,,,,,,,,,,,,,,,,,,0,1,1,2,1,,,,,,,,,,,,,,,,,,,,,,,,,,,,,,,,,,,,,,,,,
451281,001,2022-11-21_01h03.22.728,Info_measure_main_exp,2022.2.2,Win32,59.88023952,,,,,,,,,,,,,,,,,,masks/mask_005.jpg,,,,,,,,,,,,,,,,,,,,,,,,,,,,,,,,,,,,,,,,,,,,,,,,0,2,2,4,1,,,,,,,,,,,,,,,,,,,,,,,,,,,,,,,,,,,,,,,,,
451281,001,2022-11-21_01h03.22.728,Info_measure_main_exp,2022.2.2,Win32,59.88023952,,,,,,,,,,,,,,,,,,masks/mask_004.jpg,,,,,,,,,,,,,,,,,,,,,,,,,,,,,,,,,,,,,,,,,,,,,,,,0,3,3,3,1,,,,,,,,,,,,,,,,,,,,,,,,,,,,,,,,,,,,,,,,,
451281,001,2022-11-21_01h03.22.728,Info_measure_main_exp,2022.2.2,Win32,59.88023952,,,,,,,,,,,,,,,,,,masks/mask_002.jpg,,,,,,,,,,,,,,,,,,,,,,,,,,,,,,,,,,,,,,,,,,,,,,,,0,4,4,1,1,,,,,,,,,,,,,,,,,,,,,,,,,,,,,,,,,,,,,,,,,
451281,001,2022-11-21_01h03.22.728,Info_measure_main_exp,2022.2.2,Win32,59.88023952,,,,,,,,,,,,,,,,,,,,,,,,,,,,,,0,0.582,1,,,,,,,,,,,,0,131,5,5,2274,2274,absent_patch/patch0002274.jpg,absent_patch/patch0002274.jpg,,,,,,,,,,,,,,,,,,,,-0.054285714,0.091428571,1,0,0,response7disk,12,-0.003809524,0.005714286,1,0,0,center_square,0,11,11,114,1,,,,,,,,,,,,,,,,,,,,,,,
451281,001,2022-11-21_01h03.22.728,Info_measure_main_exp,2022.2.2,Win32,59.88023952,,,,,,,,,,,,,,,,,,masks/mask_005.jpg,,,,,,,,,,,,,,,,,,,,,,,,,,,,,,,,,,,,,,,,,,,0,0,0,4,1,,,,,,,,,,,,,,,,,,,,,,,,,,,,,,,,,,,,,,,,,,,,,,
451281,001,2022-11-21_01h03.22.728,Info_measure_main_exp,2022.2.2,Win32,59.88023952,,,,,,,,,,,,,,,,,,masks/mask_002.jpg,,,,,,,,,,,,,,,,,,,,,,,,,,,,,,,,,,,,,,,,,,,0,1,1,1,1,,,,,,,,,,,,,,,,,,,,,,,,,,,,,,,,,,,,,,,,,,,,,,
451281,001,2022-11-21_01h03.22.728,Info_measure_main_exp,2022.2.2,Win32,59.88023952,,,,,,,,,,,,,,,,,,masks/mask_004.jpg,,,,,,,,,,,,,,,,,,,,,,,,,,,,,,,,,,,,,,,,,,,0,2,2,3,1,,,,,,,,,,,,,,,,,,,,,,,,,,,,,,,,,,,,,,,,,,,,,,
451281,001,2022-11-21_01h03.22.728,Info_measure_main_exp,2022.2.2,Win32,59.88023952,,,,,,,,,,,,,,,,,,masks/mask_001.jpg,,,,,,,,,,,,,,,,,,,,,,,,,,,,,,,,,,,,,,,,,,,0,3,3,0,1,,,,,,,,,,,,,,,,,,,,,,,,,,,,,,,,,,,,,,,,,,,,,,
451281,001,2022-11-21_01h03.22.728,Info_measure_main_exp,2022.2.2,Win32,59.88023952,,,,,,,,,,,,,,,,,,masks/mask_003.jpg,,,,,,,,,,,,,,,,,,,,,,,,,,,,,,,,,,,,,,,,,,,0,4,4,2,1,,,,,,,,,,,,,,,,,,,,,,,,,,,,,,,,,,,,,,,,,,,,,,
451281,001,2022-11-21_01h03.22.728,Info_measure_main_exp,2022.2.2,Win32,59.88023952,,,,,,,,,,,,,,,,,,masks/mask_001.jpg,,,,,,,,,,,,,,,,,,,,,,,,,,,,,,,,,,,,,,,,,,,,,,,,0,0,0,0,1,,,,,,,,,,,,,,,,,,,,,,,,,,,,,,,,,,,,,,,,,
451281,001,2022-11-21_01h03.22.728,Info_measure_main_exp,2022.2.2,Win32,59.88023952,,,,,,,,,,,,,,,,,,masks/mask_002.jpg,,,,,,,,,,,,,,,,,,,,,,,,,,,,,,,,,,,,,,,,,,,,,,,,0,1,1,1,1,,,,,,,,,,,,,,,,,,,,,,,,,,,,,,,,,,,,,,,,,
451281,001,2022-11-21_01h03.22.728,Info_measure_main_exp,2022.2.2,Win32,59.88023952,,,,,,,,,,,,,,,,,,masks/mask_005.jpg,,,,,,,,,,,,,,,,,,,,,,,,,,,,,,,,,,,,,,,,,,,,,,,,0,2,2,4,1,,,,,,,,,,,,,,,,,,,,,,,,,,,,,,,,,,,,,,,,,
451281,001,2022-11-21_01h03.22.728,Info_measure_main_exp,2022.2.2,Win32,59.88023952,,,,,,,,,,,,,,,,,,masks/mask_004.jpg,,,,,,,,,,,,,,,,,,,,,,,,,,,,,,,,,,,,,,,,,,,,,,,,0,3,3,3,1,,,,,,,,,,,,,,,,,,,,,,,,,,,,,,,,,,,,,,,,,
451281,001,2022-11-21_01h03.22.728,Info_measure_main_exp,2022.2.2,Win32,59.88023952,,,,,,,,,,,,,,,,,,masks/mask_003.jpg,,,,,,,,,,,,,,,,,,,,,,,,,,,,,,,,,,,,,,,,,,,,,,,,0,4,4,2,1,,,,,,,,,,,,,,,,,,,,,,,,,,,,,,,,,,,,,,,,,
451281,001,2022-11-21_01h03.22.728,Info_measure_main_exp,2022.2.2,Win32,59.88023952,,,,,,,,,,,,,,,,,,,,,,,,,,,,,,5,2.234,1,,,,,,,,,,,,0,131,5,5,2274,2214,absent_patch/patch0002274.jpg,absent_patch/patch0002214.jpg,,,,,,,,,,,,,,,,,,,,0.112380952,-0.037142857,1,0,0,response3disk,13,-0.007619048,0.004761905,1,0,0,center_square,0,12,12,11,1,,,,,,,,,,,,,,,,,,,,,,,
451281,001,2022-11-21_01h03.22.728,Info_measure_main_exp,2022.2.2,Win32,59.88023952,,,,,,,,,,,,,,,,,,masks/mask_005.jpg,,,,,,,,,,,,,,,,,,,,,,,,,,,,,,,,,,,,,,,,,,,0,0,0,4,1,,,,,,,,,,,,,,,,,,,,,,,,,,,,,,,,,,,,,,,,,,,,,,
451281,001,2022-11-21_01h03.22.728,Info_measure_main_exp,2022.2.2,Win32,59.88023952,,,,,,,,,,,,,,,,,,masks/mask_003.jpg,,,,,,,,,,,,,,,,,,,,,,,,,,,,,,,,,,,,,,,,,,,0,1,1,2,1,,,,,,,,,,,,,,,,,,,,,,,,,,,,,,,,,,,,,,,,,,,,,,
451281,001,2022-11-21_01h03.22.728,Info_measure_main_exp,2022.2.2,Win32,59.88023952,,,,,,,,,,,,,,,,,,masks/mask_001.jpg,,,,,,,,,,,,,,,,,,,,,,,,,,,,,,,,,,,,,,,,,,,0,2,2,0,1,,,,,,,,,,,,,,,,,,,,,,,,,,,,,,,,,,,,,,,,,,,,,,
451281,001,2022-11-21_01h03.22.728,Info_measure_main_exp,2022.2.2,Win32,59.88023952,,,,,,,,,,,,,,,,,,masks/mask_002.jpg,,,,,,,,,,,,,,,,,,,,,,,,,,,,,,,,,,,,,,,,,,,0,3,3,1,1,,,,,,,,,,,,,,,,,,,,,,,,,,,,,,,,,,,,,,,,,,,,,,
451281,001,2022-11-21_01h03.22.728,Info_measure_main_exp,2022.2.2,Win32,59.88023952,,,,,,,,,,,,,,,,,,masks/mask_004.jpg,,,,,,,,,,,,,,,,,,,,,,,,,,,,,,,,,,,,,,,,,,,0,4,4,3,1,,,,,,,,,,,,,,,,,,,,,,,,,,,,,,,,,,,,,,,,,,,,,,
451281,001,2022-11-21_01h03.22.728,Info_measure_main_exp,2022.2.2,Win32,59.88023952,,,,,,,,,,,,,,,,,,masks/mask_002.jpg,,,,,,,,,,,,,,,,,,,,,,,,,,,,,,,,,,,,,,,,,,,,,,,,0,0,0,1,1,,,,,,,,,,,,,,,,,,,,,,,,,,,,,,,,,,,,,,,,,
451281,001,2022-11-21_01h03.22.728,Info_measure_main_exp,2022.2.2,Win32,59.88023952,,,,,,,,,,,,,,,,,,masks/mask_003.jpg,,,,,,,,,,,,,,,,,,,,,,,,,,,,,,,,,,,,,,,,,,,,,,,,0,1,1,2,1,,,,,,,,,,,,,,,,,,,,,,,,,,,,,,,,,,,,,,,,,
451281,001,2022-11-21_01h03.22.728,Info_measure_main_exp,2022.2.2,Win32,59.88023952,,,,,,,,,,,,,,,,,,masks/mask_004.jpg,,,,,,,,,,,,,,,,,,,,,,,,,,,,,,,,,,,,,,,,,,,,,,,,0,2,2,3,1,,,,,,,,,,,,,,,,,,,,,,,,,,,,,,,,,,,,,,,,,
451281,001,2022-11-21_01h03.22.728,Info_measure_main_exp,2022.2.2,Win32,59.88023952,,,,,,,,,,,,,,,,,,masks/mask_001.jpg,,,,,,,,,,,,,,,,,,,,,,,,,,,,,,,,,,,,,,,,,,,,,,,,0,3,3,0,1,,,,,,,,,,,,,,,,,,,,,,,,,,,,,,,,,,,,,,,,,
451281,001,2022-11-21_01h03.22.728,Info_measure_main_exp,2022.2.2,Win32,59.88023952,,,,,,,,,,,,,,,,,,masks/mask_005.jpg,,,,,,,,,,,,,,,,,,,,,,,,,,,,,,,,,,,,,,,,,,,,,,,,0,4,4,4,1,,,,,,,,,,,,,,,,,,,,,,,,,,,,,,,,,,,,,,,,,
451281,001,2022-11-21_01h03.22.728,Info_measure_main_exp,2022.2.2,Win32,59.88023952,,,,,,,,,,,,,,,,,,,,,,,,,,,,,,3,1.252,1,,,,,,,,,,,,0,131,5,5,2142,2082,absent_patch/patch0002142.jpg,absent_patch/patch0002082.jpg,,,,,,,,,,,,,,,,,,,,-0.026666667,-0.060952381,1,0,0,response5disk,14,-0.002857143,0.001904762,1,0,0,center_square,0,13,13,88,1,,,,,,,,,,,,,,,,,,,,,,,
451281,001,2022-11-21_01h03.22.728,Info_measure_main_exp,2022.2.2,Win32,59.88023952,,,,,,,,,,,,,,,,,,masks/mask_003.jpg,,,,,,,,,,,,,,,,,,,,,,,,,,,,,,,,,,,,,,,,,,,0,0,0,2,1,,,,,,,,,,,,,,,,,,,,,,,,,,,,,,,,,,,,,,,,,,,,,,
451281,001,2022-11-21_01h03.22.728,Info_measure_main_exp,2022.2.2,Win32,59.88023952,,,,,,,,,,,,,,,,,,masks/mask_002.jpg,,,,,,,,,,,,,,,,,,,,,,,,,,,,,,,,,,,,,,,,,,,0,1,1,1,1,,,,,,,,,,,,,,,,,,,,,,,,,,,,,,,,,,,,,,,,,,,,,,
451281,001,2022-11-21_01h03.22.728,Info_measure_main_exp,2022.2.2,Win32,59.88023952,,,,,,,,,,,,,,,,,,masks/mask_004.jpg,,,,,,,,,,,,,,,,,,,,,,,,,,,,,,,,,,,,,,,,,,,0,2,2,3,1,,,,,,,,,,,,,,,,,,,,,,,,,,,,,,,,,,,,,,,,,,,,,,
451281,001,2022-11-21_01h03.22.728,Info_measure_main_exp,2022.2.2,Win32,59.88023952,,,,,,,,,,,,,,,,,,masks/mask_005.jpg,,,,,,,,,,,,,,,,,,,,,,,,,,,,,,,,,,,,,,,,,,,0,3,3,4,1,,,,,,,,,,,,,,,,,,,,,,,,,,,,,,,,,,,,,,,,,,,,,,
451281,001,2022-11-21_01h03.22.728,Info_measure_main_exp,2022.2.2,Win32,59.88023952,,,,,,,,,,,,,,,,,,masks/mask_001.jpg,,,,,,,,,,,,,,,,,,,,,,,,,,,,,,,,,,,,,,,,,,,0,4,4,0,1,,,,,,,,,,,,,,,,,,,,,,,,,,,,,,,,,,,,,,,,,,,,,,
451281,001,2022-11-21_01h03.22.728,Info_measure_main_exp,2022.2.2,Win32,59.88023952,,,,,,,,,,,,,,,,,,masks/mask_002.jpg,,,,,,,,,,,,,,,,,,,,,,,,,,,,,,,,,,,,,,,,,,,,,,,,0,0,0,1,1,,,,,,,,,,,,,,,,,,,,,,,,,,,,,,,,,,,,,,,,,
451281,001,2022-11-21_01h03.22.728,Info_measure_main_exp,2022.2.2,Win32,59.88023952,,,,,,,,,,,,,,,,,,masks/mask_001.jpg,,,,,,,,,,,,,,,,,,,,,,,,,,,,,,,,,,,,,,,,,,,,,,,,0,1,1,0,1,,,,,,,,,,,,,,,,,,,,,,,,,,,,,,,,,,,,,,,,,
451281,001,2022-11-21_01h03.22.728,Info_measure_main_exp,2022.2.2,Win32,59.88023952,,,,,,,,,,,,,,,,,,masks/mask_005.jpg,,,,,,,,,,,,,,,,,,,,,,,,,,,,,,,,,,,,,,,,,,,,,,,,0,2,2,4,1,,,,,,,,,,,,,,,,,,,,,,,,,,,,,,,,,,,,,,,,,
451281,001,2022-11-21_01h03.22.728,Info_measure_main_exp,2022.2.2,Win32,59.88023952,,,,,,,,,,,,,,,,,,masks/mask_004.jpg,,,,,,,,,,,,,,,,,,,,,,,,,,,,,,,,,,,,,,,,,,,,,,,,0,3,3,3,1,,,,,,,,,,,,,,,,,,,,,,,,,,,,,,,,,,,,,,,,,
451281,001,2022-11-21_01h03.22.728,Info_measure_main_exp,2022.2.2,Win32,59.88023952,,,,,,,,,,,,,,,,,,masks/mask_003.jpg,,,,,,,,,,,,,,,,,,,,,,,,,,,,,,,,,,,,,,,,,,,,,,,,0,4,4,2,1,,,,,,,,,,,,,,,,,,,,,,,,,,,,,,,,,,,,,,,,,
451281,001,2022-11-21_01h03.22.728,Info_measure_main_exp,2022.2.2,Win32,59.88023952,,,,,,,,,,,,,,,,,,,,,,,,,,,,,,7,0.767,1,,,,,,,,,,,,1,131,5,5,2298,1,absent_patch/patch0002298.jpg,present_patch/cong_131_5_a.jpg,,,,,,,,,,,,,,,,,,,,0.023809524,0.075238095,1,0,0,response1disk,15,0.002857143,0.001904762,1,0,0,center_square,0,14,14,45,1,,,,,,,,,,,,,,,,,,,,,,,
451281,001,2022-11-21_01h03.22.728,Info_measure_main_exp,2022.2.2,Win32,59.88023952,,,,,,,,,,,,,,,,,,masks/mask_002.jpg,,,,,,,,,,,,,,,,,,,,,,,,,,,,,,,,,,,,,,,,,,,0,0,0,1,1,,,,,,,,,,,,,,,,,,,,,,,,,,,,,,,,,,,,,,,,,,,,,,
451281,001,2022-11-21_01h03.22.728,Info_measure_main_exp,2022.2.2,Win32,59.88023952,,,,,,,,,,,,,,,,,,masks/mask_005.jpg,,,,,,,,,,,,,,,,,,,,,,,,,,,,,,,,,,,,,,,,,,,0,1,1,4,1,,,,,,,,,,,,,,,,,,,,,,,,,,,,,,,,,,,,,,,,,,,,,,
451281,001,2022-11-21_01h03.22.728,Info_measure_main_exp,2022.2.2,Win32,59.88023952,,,,,,,,,,,,,,,,,,masks/mask_004.jpg,,,,,,,,,,,,,,,,,,,,,,,,,,,,,,,,,,,,,,,,,,,0,2,2,3,1,,,,,,,,,,,,,,,,,,,,,,,,,,,,,,,,,,,,,,,,,,,,,,
451281,001,2022-11-21_01h03.22.728,Info_measure_main_exp,2022.2.2,Win32,59.88023952,,,,,,,,,,,,,,,,,,masks/mask_001.jpg,,,,,,,,,,,,,,,,,,,,,,,,,,,,,,,,,,,,,,,,,,,0,3,3,0,1,,,,,,,,,,,,,,,,,,,,,,,,,,,,,,,,,,,,,,,,,,,,,,
451281,001,2022-11-21_01h03.22.728,Info_measure_main_exp,2022.2.2,Win32,59.88023952,,,,,,,,,,,,,,,,,,masks/mask_003.jpg,,,,,,,,,,,,,,,,,,,,,,,,,,,,,,,,,,,,,,,,,,,0,4,4,2,1,,,,,,,,,,,,,,,,,,,,,,,,,,,,,,,,,,,,,,,,,,,,,,
451281,001,2022-11-21_01h03.22.728,Info_measure_main_exp,2022.2.2,Win32,59.88023952,,,,,,,,,,,,,,,,,,masks/mask_001.jpg,,,,,,,,,,,,,,,,,,,,,,,,,,,,,,,,,,,,,,,,,,,,,,,,0,0,0,0,1,,,,,,,,,,,,,,,,,,,,,,,,,,,,,,,,,,,,,,,,,
451281,001,2022-11-21_01h03.22.728,Info_measure_main_exp,2022.2.2,Win32,59.88023952,,,,,,,,,,,,,,,,,,masks/mask_002.jpg,,,,,,,,,,,,,,,,,,,,,,,,,,,,,,,,,,,,,,,,,,,,,,,,0,1,1,1,1,,,,,,,,,,,,,,,,,,,,,,,,,,,,,,,,,,,,,,,,,
451281,001,2022-11-21_01h03.22.728,Info_measure_main_exp,2022.2.2,Win32,59.88023952,,,,,,,,,,,,,,,,,,masks/mask_005.jpg,,,,,,,,,,,,,,,,,,,,,,,,,,,,,,,,,,,,,,,,,,,,,,,,0,2,2,4,1,,,,,,,,,,,,,,,,,,,,,,,,,,,,,,,,,,,,,,,,,
451281,001,2022-11-21_01h03.22.728,Info_measure_main_exp,2022.2.2,Win32,59.88023952,,,,,,,,,,,,,,,,,,masks/mask_004.jpg,,,,,,,,,,,,,,,,,,,,,,,,,,,,,,,,,,,,,,,,,,,,,,,,0,3,3,3,1,,,,,,,,,,,,,,,,,,,,,,,,,,,,,,,,,,,,,,,,,
451281,001,2022-11-21_01h03.22.728,Info_measure_main_exp,2022.2.2,Win32,59.88023952,,,,,,,,,,,,,,,,,,masks/mask_003.jpg,,,,,,,,,,,,,,,,,,,,,,,,,,,,,,,,,,,,,,,,,,,,,,,,0,4,4,2,1,,,,,,,,,,,,,,,,,,,,,,,,,,,,,,,,,,,,,,,,,
451281,001,2022-11-21_01h03.22.728,Info_measure_main_exp,2022.2.2,Win32,59.88023952,,,,,,,,,,,,,,,,,,,,,,,,,,,,,,3,1.999,1,,,,,,,,,,,,0,131,5,5,2082,2250,absent_patch/patch0002082.jpg,absent_patch/patch0002250.jpg,,,,,,,,,,,,,,,,,,,,-0.022857143,-0.053333333,1,0,0,response5disk,16,0.000952381,-0.01047619,1,0,0,center_square,0,15,15,3,1,,,,,,,,,,,,,,,,,,,,,,,
451281,001,2022-11-21_01h03.22.728,Info_measure_main_exp,2022.2.2,Win32,59.88023952,,,,,,,,,,,,,,,,,,masks/mask_005.jpg,,,,,,,,,,,,,,,,,,,,,,,,,,,,,,,,,,,,,,,,,,,0,0,0,4,1,,,,,,,,,,,,,,,,,,,,,,,,,,,,,,,,,,,,,,,,,,,,,,
451281,001,2022-11-21_01h03.22.728,Info_measure_main_exp,2022.2.2,Win32,59.88023952,,,,,,,,,,,,,,,,,,masks/mask_004.jpg,,,,,,,,,,,,,,,,,,,,,,,,,,,,,,,,,,,,,,,,,,,0,1,1,3,1,,,,,,,,,,,,,,,,,,,,,,,,,,,,,,,,,,,,,,,,,,,,,,
451281,001,2022-11-21_01h03.22.728,Info_measure_main_exp,2022.2.2,Win32,59.88023952,,,,,,,,,,,,,,,,,,masks/mask_002.jpg,,,,,,,,,,,,,,,,,,,,,,,,,,,,,,,,,,,,,,,,,,,0,2,2,1,1,,,,,,,,,,,,,,,,,,,,,,,,,,,,,,,,,,,,,,,,,,,,,,
451281,001,2022-11-21_01h03.22.728,Info_measure_main_exp,2022.2.2,Win32,59.88023952,,,,,,,,,,,,,,,,,,masks/mask_001.jpg,,,,,,,,,,,,,,,,,,,,,,,,,,,,,,,,,,,,,,,,,,,0,3,3,0,1,,,,,,,,,,,,,,,,,,,,,,,,,,,,,,,,,,,,,,,,,,,,,,
451281,001,2022-11-21_01h03.22.728,Info_measure_main_exp,2022.2.2,Win32,59.88023952,,,,,,,,,,,,,,,,,,masks/mask_003.jpg,,,,,,,,,,,,,,,,,,,,,,,,,,,,,,,,,,,,,,,,,,,0,4,4,2,1,,,,,,,,,,,,,,,,,,,,,,,,,,,,,,,,,,,,,,,,,,,,,,
451281,001,2022-11-21_01h03.22.728,Info_measure_main_exp,2022.2.2,Win32,59.88023952,,,,,,,,,,,,,,,,,,masks/mask_004.jpg,,,,,,,,,,,,,,,,,,,,,,,,,,,,,,,,,,,,,,,,,,,,,,,,0,0,0,3,1,,,,,,,,,,,,,,,,,,,,,,,,,,,,,,,,,,,,,,,,,
451281,001,2022-11-21_01h03.22.728,Info_measure_main_exp,2022.2.2,Win32,59.88023952,,,,,,,,,,,,,,,,,,masks/mask_003.jpg,,,,,,,,,,,,,,,,,,,,,,,,,,,,,,,,,,,,,,,,,,,,,,,,0,1,1,2,1,,,,,,,,,,,,,,,,,,,,,,,,,,,,,,,,,,,,,,,,,
451281,001,2022-11-21_01h03.22.728,Info_measure_main_exp,2022.2.2,Win32,59.88023952,,,,,,,,,,,,,,,,,,masks/mask_001.jpg,,,,,,,,,,,,,,,,,,,,,,,,,,,,,,,,,,,,,,,,,,,,,,,,0,2,2,0,1,,,,,,,,,,,,,,,,,,,,,,,,,,,,,,,,,,,,,,,,,
451281,001,2022-11-21_01h03.22.728,Info_measure_main_exp,2022.2.2,Win32,59.88023952,,,,,,,,,,,,,,,,,,masks/mask_002.jpg,,,,,,,,,,,,,,,,,,,,,,,,,,,,,,,,,,,,,,,,,,,,,,,,0,3,3,1,1,,,,,,,,,,,,,,,,,,,,,,,,,,,,,,,,,,,,,,,,,
451281,001,2022-11-21_01h03.22.728,Info_measure_main_exp,2022.2.2,Win32,59.88023952,,,,,,,,,,,,,,,,,,masks/mask_005.jpg,,,,,,,,,,,,,,,,,,,,,,,,,,,,,,,,,,,,,,,,,,,,,,,,0,4,4,4,1,,,,,,,,,,,,,,,,,,,,,,,,,,,,,,,,,,,,,,,,,
451281,001,2022-11-21_01h03.22.728,Info_measure_main_exp,2022.2.2,Win32,59.88023952,,,,,,,,,,,,,,,,,,,,,,,,,,,,,,4,1.249,1,,,,,,,,,,,,0,131,5,5,2190,1974,absent_patch/patch0002190.jpg,absent_patch/patch0001974.jpg,,,,,,,,,,,,,,,,,,,,0.016190476,-0.043809524,1,0,0,response3disk,17,-0.000952381,0.001904762,1,0,0,center_square,0,16,16,119,1,,,,,,,,,,,,,,,,,,,,,,,
451281,001,2022-11-21_01h03.22.728,Info_measure_main_exp,2022.2.2,Win32,59.88023952,,,,,,,,,,,,,,,,,,masks/mask_005.jpg,,,,,,,,,,,,,,,,,,,,,,,,,,,,,,,,,,,,,,,,,,,0,0,0,4,1,,,,,,,,,,,,,,,,,,,,,,,,,,,,,,,,,,,,,,,,,,,,,,
451281,001,2022-11-21_01h03.22.728,Info_measure_main_exp,2022.2.2,Win32,59.88023952,,,,,,,,,,,,,,,,,,masks/mask_003.jpg,,,,,,,,,,,,,,,,,,,,,,,,,,,,,,,,,,,,,,,,,,,0,1,1,2,1,,,,,,,,,,,,,,,,,,,,,,,,,,,,,,,,,,,,,,,,,,,,,,
451281,001,2022-11-21_01h03.22.728,Info_measure_main_exp,2022.2.2,Win32,59.88023952,,,,,,,,,,,,,,,,,,masks/mask_002.jpg,,,,,,,,,,,,,,,,,,,,,,,,,,,,,,,,,,,,,,,,,,,0,2,2,1,1,,,,,,,,,,,,,,,,,,,,,,,,,,,,,,,,,,,,,,,,,,,,,,
451281,001,2022-11-21_01h03.22.728,Info_measure_main_exp,2022.2.2,Win32,59.88023952,,,,,,,,,,,,,,,,,,masks/mask_001.jpg,,,,,,,,,,,,,,,,,,,,,,,,,,,,,,,,,,,,,,,,,,,0,3,3,0,1,,,,,,,,,,,,,,,,,,,,,,,,,,,,,,,,,,,,,,,,,,,,,,
451281,001,2022-11-21_01h03.22.728,Info_measure_main_exp,2022.2.2,Win32,59.88023952,,,,,,,,,,,,,,,,,,masks/mask_004.jpg,,,,,,,,,,,,,,,,,,,,,,,,,,,,,,,,,,,,,,,,,,,0,4,4,3,1,,,,,,,,,,,,,,,,,,,,,,,,,,,,,,,,,,,,,,,,,,,,,,
451281,001,2022-11-21_01h03.22.728,Info_measure_main_exp,2022.2.2,Win32,59.88023952,,,,,,,,,,,,,,,,,,masks/mask_004.jpg,,,,,,,,,,,,,,,,,,,,,,,,,,,,,,,,,,,,,,,,,,,,,,,,0,0,0,3,1,,,,,,,,,,,,,,,,,,,,,,,,,,,,,,,,,,,,,,,,,
451281,001,2022-11-21_01h03.22.728,Info_measure_main_exp,2022.2.2,Win32,59.88023952,,,,,,,,,,,,,,,,,,masks/mask_003.jpg,,,,,,,,,,,,,,,,,,,,,,,,,,,,,,,,,,,,,,,,,,,,,,,,0,1,1,2,1,,,,,,,,,,,,,,,,,,,,,,,,,,,,,,,,,,,,,,,,,
451281,001,2022-11-21_01h03.22.728,Info_measure_main_exp,2022.2.2,Win32,59.88023952,,,,,,,,,,,,,,,,,,masks/mask_005.jpg,,,,,,,,,,,,,,,,,,,,,,,,,,,,,,,,,,,,,,,,,,,,,,,,0,2,2,4,1,,,,,,,,,,,,,,,,,,,,,,,,,,,,,,,,,,,,,,,,,
451281,001,2022-11-21_01h03.22.728,Info_measure_main_exp,2022.2.2,Win32,59.88023952,,,,,,,,,,,,,,,,,,masks/mask_001.jpg,,,,,,,,,,,,,,,,,,,,,,,,,,,,,,,,,,,,,,,,,,,,,,,,0,3,3,0,1,,,,,,,,,,,,,,,,,,,,,,,,,,,,,,,,,,,,,,,,,
451281,001,2022-11-21_01h03.22.728,Info_measure_main_exp,2022.2.2,Win32,59.88023952,,,,,,,,,,,,,,,,,,masks/mask_002.jpg,,,,,,,,,,,,,,,,,,,,,,,,,,,,,,,,,,,,,,,,,,,,,,,,0,4,4,1,1,,,,,,,,,,,,,,,,,,,,,,,,,,,,,,,,,,,,,,,,,
451281,001,2022-11-21_01h03.22.728,Info_measure_main_exp,2022.2.2,Win32,59.88023952,,,,,,,,,,,,,,,,,,,,,,,,,,,,,,3,1.783,1,,,,,,,,,,,,0,131,5,5,2082,2298,absent_patch/patch0002082.jpg,absent_patch/patch0002298.jpg,,,,,,,,,,,,,,,,,,,,-0.008571429,-0.018095238,1,0,0,response5disk,18,0.002857143,0.006666667,1,0,0,center_square,0,17,17,107,1,,,,,,,,,,,,,,,,,,,,,,,
451281,001,2022-11-21_01h03.22.728,Info_measure_main_exp,2022.2.2,Win32,59.88023952,,,,,,,,,,,,,,,,,,masks/mask_004.jpg,,,,,,,,,,,,,,,,,,,,,,,,,,,,,,,,,,,,,,,,,,,0,0,0,3,1,,,,,,,,,,,,,,,,,,,,,,,,,,,,,,,,,,,,,,,,,,,,,,
451281,001,2022-11-21_01h03.22.728,Info_measure_main_exp,2022.2.2,Win32,59.88023952,,,,,,,,,,,,,,,,,,masks/mask_005.jpg,,,,,,,,,,,,,,,,,,,,,,,,,,,,,,,,,,,,,,,,,,,0,1,1,4,1,,,,,,,,,,,,,,,,,,,,,,,,,,,,,,,,,,,,,,,,,,,,,,
451281,001,2022-11-21_01h03.22.728,Info_measure_main_exp,2022.2.2,Win32,59.88023952,,,,,,,,,,,,,,,,,,masks/mask_002.jpg,,,,,,,,,,,,,,,,,,,,,,,,,,,,,,,,,,,,,,,,,,,0,2,2,1,1,,,,,,,,,,,,,,,,,,,,,,,,,,,,,,,,,,,,,,,,,,,,,,
451281,001,2022-11-21_01h03.22.728,Info_measure_main_exp,2022.2.2,Win32,59.88023952,,,,,,,,,,,,,,,,,,masks/mask_003.jpg,,,,,,,,,,,,,,,,,,,,,,,,,,,,,,,,,,,,,,,,,,,0,3,3,2,1,,,,,,,,,,,,,,,,,,,,,,,,,,,,,,,,,,,,,,,,,,,,,,
451281,001,2022-11-21_01h03.22.728,Info_measure_main_exp,2022.2.2,Win32,59.88023952,,,,,,,,,,,,,,,,,,masks/mask_001.jpg,,,,,,,,,,,,,,,,,,,,,,,,,,,,,,,,,,,,,,,,,,,0,4,4,0,1,,,,,,,,,,,,,,,,,,,,,,,,,,,,,,,,,,,,,,,,,,,,,,
451281,001,2022-11-21_01h03.22.728,Info_measure_main_exp,2022.2.2,Win32,59.88023952,,,,,,,,,,,,,,,,,,masks/mask_004.jpg,,,,,,,,,,,,,,,,,,,,,,,,,,,,,,,,,,,,,,,,,,,,,,,,0,0,0,3,1,,,,,,,,,,,,,,,,,,,,,,,,,,,,,,,,,,,,,,,,,
451281,001,2022-11-21_01h03.22.728,Info_measure_main_exp,2022.2.2,Win32,59.88023952,,,,,,,,,,,,,,,,,,masks/mask_005.jpg,,,,,,,,,,,,,,,,,,,,,,,,,,,,,,,,,,,,,,,,,,,,,,,,0,1,1,4,1,,,,,,,,,,,,,,,,,,,,,,,,,,,,,,,,,,,,,,,,,
451281,001,2022-11-21_01h03.22.728,Info_measure_main_exp,2022.2.2,Win32,59.88023952,,,,,,,,,,,,,,,,,,masks/mask_002.jpg,,,,,,,,,,,,,,,,,,,,,,,,,,,,,,,,,,,,,,,,,,,,,,,,0,2,2,1,1,,,,,,,,,,,,,,,,,,,,,,,,,,,,,,,,,,,,,,,,,
451281,001,2022-11-21_01h03.22.728,Info_measure_main_exp,2022.2.2,Win32,59.88023952,,,,,,,,,,,,,,,,,,masks/mask_003.jpg,,,,,,,,,,,,,,,,,,,,,,,,,,,,,,,,,,,,,,,,,,,,,,,,0,3,3,2,1,,,,,,,,,,,,,,,,,,,,,,,,,,,,,,,,,,,,,,,,,
451281,001,2022-11-21_01h03.22.728,Info_measure_main_exp,2022.2.2,Win32,59.88023952,,,,,,,,,,,,,,,,,,masks/mask_001.jpg,,,,,,,,,,,,,,,,,,,,,,,,,,,,,,,,,,,,,,,,,,,,,,,,0,4,4,0,1,,,,,,,,,,,,,,,,,,,,,,,,,,,,,,,,,,,,,,,,,
451281,001,2022-11-21_01h03.22.728,Info_measure_main_exp,2022.2.2,Win32,59.88023952,,,,,,,,,,,,,,,,,,,,,,,,,,,,,,3,1.416,1,,,,,,,,,,,,0,131,5,5,2250,2142,absent_patch/patch0002250.jpg,absent_patch/patch0002142.jpg,,,,,,,,,,,,,,,,,,,,-0.012380952,-0.024761905,1,0,0,response5disk,19,0,0.006666667,1,0,0,center_square,0,18,18,71,1,,,,,,,,,,,,,,,,,,,,,,,
451281,001,2022-11-21_01h03.22.728,Info_measure_main_exp,2022.2.2,Win32,59.88023952,,,,,,,,,,,,,,,,,,masks/mask_003.jpg,,,,,,,,,,,,,,,,,,,,,,,,,,,,,,,,,,,,,,,,,,,0,0,0,2,1,,,,,,,,,,,,,,,,,,,,,,,,,,,,,,,,,,,,,,,,,,,,,,
451281,001,2022-11-21_01h03.22.728,Info_measure_main_exp,2022.2.2,Win32,59.88023952,,,,,,,,,,,,,,,,,,masks/mask_001.jpg,,,,,,,,,,,,,,,,,,,,,,,,,,,,,,,,,,,,,,,,,,,0,1,1,0,1,,,,,,,,,,,,,,,,,,,,,,,,,,,,,,,,,,,,,,,,,,,,,,
451281,001,2022-11-21_01h03.22.728,Info_measure_main_exp,2022.2.2,Win32,59.88023952,,,,,,,,,,,,,,,,,,masks/mask_002.jpg,,,,,,,,,,,,,,,,,,,,,,,,,,,,,,,,,,,,,,,,,,,0,2,2,1,1,,,,,,,,,,,,,,,,,,,,,,,,,,,,,,,,,,,,,,,,,,,,,,
451281,001,2022-11-21_01h03.22.728,Info_measure_main_exp,2022.2.2,Win32,59.88023952,,,,,,,,,,,,,,,,,,masks/mask_004.jpg,,,,,,,,,,,,,,,,,,,,,,,,,,,,,,,,,,,,,,,,,,,0,3,3,3,1,,,,,,,,,,,,,,,,,,,,,,,,,,,,,,,,,,,,,,,,,,,,,,
451281,001,2022-11-21_01h03.22.728,Info_measure_main_exp,2022.2.2,Win32,59.88023952,,,,,,,,,,,,,,,,,,masks/mask_005.jpg,,,,,,,,,,,,,,,,,,,,,,,,,,,,,,,,,,,,,,,,,,,0,4,4,4,1,,,,,,,,,,,,,,,,,,,,,,,,,,,,,,,,,,,,,,,,,,,,,,
451281,001,2022-11-21_01h03.22.728,Info_measure_main_exp,2022.2.2,Win32,59.88023952,,,,,,,,,,,,,,,,,,masks/mask_003.jpg,,,,,,,,,,,,,,,,,,,,,,,,,,,,,,,,,,,,,,,,,,,,,,,,0,0,0,2,1,,,,,,,,,,,,,,,,,,,,,,,,,,,,,,,,,,,,,,,,,
451281,001,2022-11-21_01h03.22.728,Info_measure_main_exp,2022.2.2,Win32,59.88023952,,,,,,,,,,,,,,,,,,masks/mask_002.jpg,,,,,,,,,,,,,,,,,,,,,,,,,,,,,,,,,,,,,,,,,,,,,,,,0,1,1,1,1,,,,,,,,,,,,,,,,,,,,,,,,,,,,,,,,,,,,,,,,,
451281,001,2022-11-21_01h03.22.728,Info_measure_main_exp,2022.2.2,Win32,59.88023952,,,,,,,,,,,,,,,,,,masks/mask_001.jpg,,,,,,,,,,,,,,,,,,,,,,,,,,,,,,,,,,,,,,,,,,,,,,,,0,2,2,0,1,,,,,,,,,,,,,,,,,,,,,,,,,,,,,,,,,,,,,,,,,
451281,001,2022-11-21_01h03.22.728,Info_measure_main_exp,2022.2.2,Win32,59.88023952,,,,,,,,,,,,,,,,,,masks/mask_005.jpg,,,,,,,,,,,,,,,,,,,,,,,,,,,,,,,,,,,,,,,,,,,,,,,,0,3,3,4,1,,,,,,,,,,,,,,,,,,,,,,,,,,,,,,,,,,,,,,,,,
451281,001,2022-11-21_01h03.22.728,Info_measure_main_exp,2022.2.2,Win32,59.88023952,,,,,,,,,,,,,,,,,,masks/mask_004.jpg,,,,,,,,,,,,,,,,,,,,,,,,,,,,,,,,,,,,,,,,,,,,,,,,0,4,4,3,1,,,,,,,,,,,,,,,,,,,,,,,,,,,,,,,,,,,,,,,,,
451281,001,2022-11-21_01h03.22.728,Info_measure_main_exp,2022.2.2,Win32,59.88023952,,,,,,,,,,,,,,,,,,,,,,,,,,,,,,7,1.3,1,,,,,,,,,,,,0,131,5,5,2274,2250,absent_patch/patch0002274.jpg,absent_patch/patch0002250.jpg,,,,,,,,,,,,,,,,,,,,0.056190476,0.093333333,1,0,0,response1disk,20,0.011428571,0.00952381,1,0,0,center_square,0,19,19,28,1,,,,,,,,,,,,,,,,,,,,,,,
451281,001,2022-11-21_01h03.22.728,Info_measure_main_exp,2022.2.2,Win32,59.88023952,,,,,,,,,,,,,,,,,,masks/mask_002.jpg,,,,,,,,,,,,,,,,,,,,,,,,,,,,,,,,,,,,,,,,,,,0,0,0,1,1,,,,,,,,,,,,,,,,,,,,,,,,,,,,,,,,,,,,,,,,,,,,,,
451281,001,2022-11-21_01h03.22.728,Info_measure_main_exp,2022.2.2,Win32,59.88023952,,,,,,,,,,,,,,,,,,masks/mask_005.jpg,,,,,,,,,,,,,,,,,,,,,,,,,,,,,,,,,,,,,,,,,,,0,1,1,4,1,,,,,,,,,,,,,,,,,,,,,,,,,,,,,,,,,,,,,,,,,,,,,,
451281,001,2022-11-21_01h03.22.728,Info_measure_main_exp,2022.2.2,Win32,59.88023952,,,,,,,,,,,,,,,,,,masks/mask_001.jpg,,,,,,,,,,,,,,,,,,,,,,,,,,,,,,,,,,,,,,,,,,,0,2,2,0,1,,,,,,,,,,,,,,,,,,,,,,,,,,,,,,,,,,,,,,,,,,,,,,
451281,001,2022-11-21_01h03.22.728,Info_measure_main_exp,2022.2.2,Win32,59.88023952,,,,,,,,,,,,,,,,,,masks/mask_004.jpg,,,,,,,,,,,,,,,,,,,,,,,,,,,,,,,,,,,,,,,,,,,0,3,3,3,1,,,,,,,,,,,,,,,,,,,,,,,,,,,,,,,,,,,,,,,,,,,,,,
451281,001,2022-11-21_01h03.22.728,Info_measure_main_exp,2022.2.2,Win32,59.88023952,,,,,,,,,,,,,,,,,,masks/mask_003.jpg,,,,,,,,,,,,,,,,,,,,,,,,,,,,,,,,,,,,,,,,,,,0,4,4,2,1,,,,,,,,,,,,,,,,,,,,,,,,,,,,,,,,,,,,,,,,,,,,,,
451281,001,2022-11-21_01h03.22.728,Info_measure_main_exp,2022.2.2,Win32,59.88023952,,,,,,,,,,,,,,,,,,masks/mask_005.jpg,,,,,,,,,,,,,,,,,,,,,,,,,,,,,,,,,,,,,,,,,,,,,,,,0,0,0,4,1,,,,,,,,,,,,,,,,,,,,,,,,,,,,,,,,,,,,,,,,,
451281,001,2022-11-21_01h03.22.728,Info_measure_main_exp,2022.2.2,Win32,59.88023952,,,,,,,,,,,,,,,,,,masks/mask_003.jpg,,,,,,,,,,,,,,,,,,,,,,,,,,,,,,,,,,,,,,,,,,,,,,,,0,1,1,2,1,,,,,,,,,,,,,,,,,,,,,,,,,,,,,,,,,,,,,,,,,
451281,001,2022-11-21_01h03.22.728,Info_measure_main_exp,2022.2.2,Win32,59.88023952,,,,,,,,,,,,,,,,,,masks/mask_004.jpg,,,,,,,,,,,,,,,,,,,,,,,,,,,,,,,,,,,,,,,,,,,,,,,,0,2,2,3,1,,,,,,,,,,,,,,,,,,,,,,,,,,,,,,,,,,,,,,,,,
451281,001,2022-11-21_01h03.22.728,Info_measure_main_exp,2022.2.2,Win32,59.88023952,,,,,,,,,,,,,,,,,,masks/mask_001.jpg,,,,,,,,,,,,,,,,,,,,,,,,,,,,,,,,,,,,,,,,,,,,,,,,0,3,3,0,1,,,,,,,,,,,,,,,,,,,,,,,,,,,,,,,,,,,,,,,,,
451281,001,2022-11-21_01h03.22.728,Info_measure_main_exp,2022.2.2,Win32,59.88023952,,,,,,,,,,,,,,,,,,masks/mask_002.jpg,,,,,,,,,,,,,,,,,,,,,,,,,,,,,,,,,,,,,,,,,,,,,,,,0,4,4,1,1,,,,,,,,,,,,,,,,,,,,,,,,,,,,,,,,,,,,,,,,,
451281,001,2022-11-21_01h03.22.728,Info_measure_main_exp,2022.2.2,Win32,59.88023952,,,,,,,,,,,,,,,,,,,,,,,,,,,,,,2,2.202,1,,,,,,,,,,,,0,131,5,5,1974,1950,absent_patch/patch0001974.jpg,absent_patch/patch0001950.jpg,,,,,,,,,,,,,,,,,,,,-0.091428571,-0.016190476,1,0,0,response5disk,21,-0.012380952,0.005714286,1,0,0,center_square,0,20,20,17,1,,,,,,,,,,,,,,,,,,,,,,,
451281,001,2022-11-21_01h03.22.728,Info_measure_main_exp,2022.2.2,Win32,59.88023952,,,,,,,,,,,,,,,,,,masks/mask_003.jpg,,,,,,,,,,,,,,,,,,,,,,,,,,,,,,,,,,,,,,,,,,,0,0,0,2,1,,,,,,,,,,,,,,,,,,,,,,,,,,,,,,,,,,,,,,,,,,,,,,
451281,001,2022-11-21_01h03.22.728,Info_measure_main_exp,2022.2.2,Win32,59.88023952,,,,,,,,,,,,,,,,,,masks/mask_004.jpg,,,,,,,,,,,,,,,,,,,,,,,,,,,,,,,,,,,,,,,,,,,0,1,1,3,1,,,,,,,,,,,,,,,,,,,,,,,,,,,,,,,,,,,,,,,,,,,,,,
451281,001,2022-11-21_01h03.22.728,Info_measure_main_exp,2022.2.2,Win32,59.88023952,,,,,,,,,,,,,,,,,,masks/mask_001.jpg,,,,,,,,,,,,,,,,,,,,,,,,,,,,,,,,,,,,,,,,,,,0,2,2,0,1,,,,,,,,,,,,,,,,,,,,,,,,,,,,,,,,,,,,,,,,,,,,,,
451281,001,2022-11-21_01h03.22.728,Info_measure_main_exp,2022.2.2,Win32,59.88023952,,,,,,,,,,,,,,,,,,masks/mask_005.jpg,,,,,,,,,,,,,,,,,,,,,,,,,,,,,,,,,,,,,,,,,,,0,3,3,4,1,,,,,,,,,,,,,,,,,,,,,,,,,,,,,,,,,,,,,,,,,,,,,,
451281,001,2022-11-21_01h03.22.728,Info_measure_main_exp,2022.2.2,Win32,59.88023952,,,,,,,,,,,,,,,,,,masks/mask_002.jpg,,,,,,,,,,,,,,,,,,,,,,,,,,,,,,,,,,,,,,,,,,,0,4,4,1,1,,,,,,,,,,,,,,,,,,,,,,,,,,,,,,,,,,,,,,,,,,,,,,
451281,001,2022-11-21_01h03.22.728,Info_measure_main_exp,2022.2.2,Win32,59.88023952,,,,,,,,,,,,,,,,,,masks/mask_003.jpg,,,,,,,,,,,,,,,,,,,,,,,,,,,,,,,,,,,,,,,,,,,,,,,,0,0,0,2,1,,,,,,,,,,,,,,,,,,,,,,,,,,,,,,,,,,,,,,,,,
451281,001,2022-11-21_01h03.22.728,Info_measure_main_exp,2022.2.2,Win32,59.88023952,,,,,,,,,,,,,,,,,,masks/mask_002.jpg,,,,,,,,,,,,,,,,,,,,,,,,,,,,,,,,,,,,,,,,,,,,,,,,0,1,1,1,1,,,,,,,,,,,,,,,,,,,,,,,,,,,,,,,,,,,,,,,,,
451281,001,2022-11-21_01h03.22.728,Info_measure_main_exp,2022.2.2,Win32,59.88023952,,,,,,,,,,,,,,,,,,masks/mask_001.jpg,,,,,,,,,,,,,,,,,,,,,,,,,,,,,,,,,,,,,,,,,,,,,,,,0,2,2,0,1,,,,,,,,,,,,,,,,,,,,,,,,,,,,,,,,,,,,,,,,,
451281,001,2022-11-21_01h03.22.728,Info_measure_main_exp,2022.2.2,Win32,59.88023952,,,,,,,,,,,,,,,,,,masks/mask_005.jpg,,,,,,,,,,,,,,,,,,,,,,,,,,,,,,,,,,,,,,,,,,,,,,,,0,3,3,4,1,,,,,,,,,,,,,,,,,,,,,,,,,,,,,,,,,,,,,,,,,
451281,001,2022-11-21_01h03.22.728,Info_measure_main_exp,2022.2.2,Win32,59.88023952,,,,,,,,,,,,,,,,,,masks/mask_004.jpg,,,,,,,,,,,,,,,,,,,,,,,,,,,,,,,,,,,,,,,,,,,,,,,,0,4,4,3,1,,,,,,,,,,,,,,,,,,,,,,,,,,,,,,,,,,,,,,,,,
451281,001,2022-11-21_01h03.22.728,Info_measure_main_exp,2022.2.2,Win32,59.88023952,,,,,,,,,,,,,,,,,,,,,,,,,,,,,,5,1.466,1,,,,,,,,,,,,0,131,5,5,2166,2298,absent_patch/patch0002166.jpg,absent_patch/patch0002298.jpg,,,,,,,,,,,,,,,,,,,,0.093333333,-0.018095238,1,0,0,response3disk,22,0.00952381,0.001904762,1,0,0,center_square,0,21,21,52,1,,,,,,,,,,,,,,,,,,,,,,,
451281,001,2022-11-21_01h03.22.728,Info_measure_main_exp,2022.2.2,Win32,59.88023952,,,,,,,,,,,,,,,,,,masks/mask_001.jpg,,,,,,,,,,,,,,,,,,,,,,,,,,,,,,,,,,,,,,,,,,,0,0,0,0,1,,,,,,,,,,,,,,,,,,,,,,,,,,,,,,,,,,,,,,,,,,,,,,
451281,001,2022-11-21_01h03.22.728,Info_measure_main_exp,2022.2.2,Win32,59.88023952,,,,,,,,,,,,,,,,,,masks/mask_003.jpg,,,,,,,,,,,,,,,,,,,,,,,,,,,,,,,,,,,,,,,,,,,0,1,1,2,1,,,,,,,,,,,,,,,,,,,,,,,,,,,,,,,,,,,,,,,,,,,,,,
451281,001,2022-11-21_01h03.22.728,Info_measure_main_exp,2022.2.2,Win32,59.88023952,,,,,,,,,,,,,,,,,,masks/mask_002.jpg,,,,,,,,,,,,,,,,,,,,,,,,,,,,,,,,,,,,,,,,,,,0,2,2,1,1,,,,,,,,,,,,,,,,,,,,,,,,,,,,,,,,,,,,,,,,,,,,,,
451281,001,2022-11-21_01h03.22.728,Info_measure_main_exp,2022.2.2,Win32,59.88023952,,,,,,,,,,,,,,,,,,masks/mask_004.jpg,,,,,,,,,,,,,,,,,,,,,,,,,,,,,,,,,,,,,,,,,,,0,3,3,3,1,,,,,,,,,,,,,,,,,,,,,,,,,,,,,,,,,,,,,,,,,,,,,,
451281,001,2022-11-21_01h03.22.728,Info_measure_main_exp,2022.2.2,Win32,59.88023952,,,,,,,,,,,,,,,,,,masks/mask_005.jpg,,,,,,,,,,,,,,,,,,,,,,,,,,,,,,,,,,,,,,,,,,,0,4,4,4,1,,,,,,,,,,,,,,,,,,,,,,,,,,,,,,,,,,,,,,,,,,,,,,
451281,001,2022-11-21_01h03.22.728,Info_measure_main_exp,2022.2.2,Win32,59.88023952,,,,,,,,,,,,,,,,,,masks/mask_001.jpg,,,,,,,,,,,,,,,,,,,,,,,,,,,,,,,,,,,,,,,,,,,,,,,,0,0,0,0,1,,,,,,,,,,,,,,,,,,,,,,,,,,,,,,,,,,,,,,,,,
451281,001,2022-11-21_01h03.22.728,Info_measure_main_exp,2022.2.2,Win32,59.88023952,,,,,,,,,,,,,,,,,,masks/mask_005.jpg,,,,,,,,,,,,,,,,,,,,,,,,,,,,,,,,,,,,,,,,,,,,,,,,0,1,1,4,1,,,,,,,,,,,,,,,,,,,,,,,,,,,,,,,,,,,,,,,,,
451281,001,2022-11-21_01h03.22.728,Info_measure_main_exp,2022.2.2,Win32,59.88023952,,,,,,,,,,,,,,,,,,masks/mask_004.jpg,,,,,,,,,,,,,,,,,,,,,,,,,,,,,,,,,,,,,,,,,,,,,,,,0,2,2,3,1,,,,,,,,,,,,,,,,,,,,,,,,,,,,,,,,,,,,,,,,,
451281,001,2022-11-21_01h03.22.728,Info_measure_main_exp,2022.2.2,Win32,59.88023952,,,,,,,,,,,,,,,,,,masks/mask_003.jpg,,,,,,,,,,,,,,,,,,,,,,,,,,,,,,,,,,,,,,,,,,,,,,,,0,3,3,2,1,,,,,,,,,,,,,,,,,,,,,,,,,,,,,,,,,,,,,,,,,
451281,001,2022-11-21_01h03.22.728,Info_measure_main_exp,2022.2.2,Win32,59.88023952,,,,,,,,,,,,,,,,,,masks/mask_002.jpg,,,,,,,,,,,,,,,,,,,,,,,,,,,,,,,,,,,,,,,,,,,,,,,,0,4,4,1,1,,,,,,,,,,,,,,,,,,,,,,,,,,,,,,,,,,,,,,,,,
451281,001,2022-11-21_01h03.22.728,Info_measure_main_exp,2022.2.2,Win32,59.88023952,,,,,,,,,,,,,,,,,,,,,,,,,,,,,,3,2.132,1,,,,,,,,,,,,0,131,5,5,2274,2154,absent_patch/patch0002274.jpg,absent_patch/patch0002154.jpg,,,,,,,,,,,,,,,,,,,,-0.008571429,-0.031428571,1,0,0,response5disk,23,0.000952381,-0.008571429,1,0,0,center_square,0,22,22,23,1,,,,,,,,,,,,,,,,,,,,,,,
451281,001,2022-11-21_01h03.22.728,Info_measure_main_exp,2022.2.2,Win32,59.88023952,,,,,,,,,,,,,,,,,,masks/mask_001.jpg,,,,,,,,,,,,,,,,,,,,,,,,,,,,,,,,,,,,,,,,,,,0,0,0,0,1,,,,,,,,,,,,,,,,,,,,,,,,,,,,,,,,,,,,,,,,,,,,,,
451281,001,2022-11-21_01h03.22.728,Info_measure_main_exp,2022.2.2,Win32,59.88023952,,,,,,,,,,,,,,,,,,masks/mask_004.jpg,,,,,,,,,,,,,,,,,,,,,,,,,,,,,,,,,,,,,,,,,,,0,1,1,3,1,,,,,,,,,,,,,,,,,,,,,,,,,,,,,,,,,,,,,,,,,,,,,,
451281,001,2022-11-21_01h03.22.728,Info_measure_main_exp,2022.2.2,Win32,59.88023952,,,,,,,,,,,,,,,,,,masks/mask_005.jpg,,,,,,,,,,,,,,,,,,,,,,,,,,,,,,,,,,,,,,,,,,,0,2,2,4,1,,,,,,,,,,,,,,,,,,,,,,,,,,,,,,,,,,,,,,,,,,,,,,
451281,001,2022-11-21_01h03.22.728,Info_measure_main_exp,2022.2.2,Win32,59.88023952,,,,,,,,,,,,,,,,,,masks/mask_003.jpg,,,,,,,,,,,,,,,,,,,,,,,,,,,,,,,,,,,,,,,,,,,0,3,3,2,1,,,,,,,,,,,,,,,,,,,,,,,,,,,,,,,,,,,,,,,,,,,,,,
451281,001,2022-11-21_01h03.22.728,Info_measure_main_exp,2022.2.2,Win32,59.88023952,,,,,,,,,,,,,,,,,,masks/mask_002.jpg,,,,,,,,,,,,,,,,,,,,,,,,,,,,,,,,,,,,,,,,,,,0,4,4,1,1,,,,,,,,,,,,,,,,,,,,,,,,,,,,,,,,,,,,,,,,,,,,,,
451281,001,2022-11-21_01h03.22.728,Info_measure_main_exp,2022.2.2,Win32,59.88023952,,,,,,,,,,,,,,,,,,masks/mask_005.jpg,,,,,,,,,,,,,,,,,,,,,,,,,,,,,,,,,,,,,,,,,,,,,,,,0,0,0,4,1,,,,,,,,,,,,,,,,,,,,,,,,,,,,,,,,,,,,,,,,,
451281,001,2022-11-21_01h03.22.728,Info_measure_main_exp,2022.2.2,Win32,59.88023952,,,,,,,,,,,,,,,,,,masks/mask_004.jpg,,,,,,,,,,,,,,,,,,,,,,,,,,,,,,,,,,,,,,,,,,,,,,,,0,1,1,3,1,,,,,,,,,,,,,,,,,,,,,,,,,,,,,,,,,,,,,,,,,
451281,001,2022-11-21_01h03.22.728,Info_measure_main_exp,2022.2.2,Win32,59.88023952,,,,,,,,,,,,,,,,,,masks/mask_001.jpg,,,,,,,,,,,,,,,,,,,,,,,,,,,,,,,,,,,,,,,,,,,,,,,,0,2,2,0,1,,,,,,,,,,,,,,,,,,,,,,,,,,,,,,,,,,,,,,,,,
451281,001,2022-11-21_01h03.22.728,Info_measure_main_exp,2022.2.2,Win32,59.88023952,,,,,,,,,,,,,,,,,,masks/mask_003.jpg,,,,,,,,,,,,,,,,,,,,,,,,,,,,,,,,,,,,,,,,,,,,,,,,0,3,3,2,1,,,,,,,,,,,,,,,,,,,,,,,,,,,,,,,,,,,,,,,,,
451281,001,2022-11-21_01h03.22.728,Info_measure_main_exp,2022.2.2,Win32,59.88023952,,,,,,,,,,,,,,,,,,masks/mask_002.jpg,,,,,,,,,,,,,,,,,,,,,,,,,,,,,,,,,,,,,,,,,,,,,,,,0,4,4,1,1,,,,,,,,,,,,,,,,,,,,,,,,,,,,,,,,,,,,,,,,,
451281,001,2022-11-21_01h03.22.728,Info_measure_main_exp,2022.2.2,Win32,59.88023952,,,,,,,,,,,,,,,,,,,,,,,,,,,,,,0,0.484,1,,,,,,,,,,,,0,131,5,5,2298,2298,absent_patch/patch0002298.jpg,absent_patch/patch0002298.jpg,,,,,,,,,,,,,,,,,,,,-0.02952381,0.125714286,1,0,0,response7disk,24,-0.01047619,0,1,0,0,center_square,0,23,23,37,1,,,,,,,,,,,,,,,,,,,,,,,
451281,001,2022-11-21_01h03.22.728,Info_measure_main_exp,2022.2.2,Win32,59.88023952,,,,,,,,,,,,,,,,,,masks/mask_003.jpg,,,,,,,,,,,,,,,,,,,,,,,,,,,,,,,,,,,,,,,,,,,0,0,0,2,1,,,,,,,,,,,,,,,,,,,,,,,,,,,,,,,,,,,,,,,,,,,,,,
451281,001,2022-11-21_01h03.22.728,Info_measure_main_exp,2022.2.2,Win32,59.88023952,,,,,,,,,,,,,,,,,,masks/mask_005.jpg,,,,,,,,,,,,,,,,,,,,,,,,,,,,,,,,,,,,,,,,,,,0,1,1,4,1,,,,,,,,,,,,,,,,,,,,,,,,,,,,,,,,,,,,,,,,,,,,,,
451281,001,2022-11-21_01h03.22.728,Info_measure_main_exp,2022.2.2,Win32,59.88023952,,,,,,,,,,,,,,,,,,masks/mask_002.jpg,,,,,,,,,,,,,,,,,,,,,,,,,,,,,,,,,,,,,,,,,,,0,2,2,1,1,,,,,,,,,,,,,,,,,,,,,,,,,,,,,,,,,,,,,,,,,,,,,,
451281,001,2022-11-21_01h03.22.728,Info_measure_main_exp,2022.2.2,Win32,59.88023952,,,,,,,,,,,,,,,,,,masks/mask_004.jpg,,,,,,,,,,,,,,,,,,,,,,,,,,,,,,,,,,,,,,,,,,,0,3,3,3,1,,,,,,,,,,,,,,,,,,,,,,,,,,,,,,,,,,,,,,,,,,,,,,
451281,001,2022-11-21_01h03.22.728,Info_measure_main_exp,2022.2.2,Win32,59.88023952,,,,,,,,,,,,,,,,,,masks/mask_001.jpg,,,,,,,,,,,,,,,,,,,,,,,,,,,,,,,,,,,,,,,,,,,0,4,4,0,1,,,,,,,,,,,,,,,,,,,,,,,,,,,,,,,,,,,,,,,,,,,,,,
451281,001,2022-11-21_01h03.22.728,Info_measure_main_exp,2022.2.2,Win32,59.88023952,,,,,,,,,,,,,,,,,,masks/mask_001.jpg,,,,,,,,,,,,,,,,,,,,,,,,,,,,,,,,,,,,,,,,,,,,,,,,0,0,0,0,1,,,,,,,,,,,,,,,,,,,,,,,,,,,,,,,,,,,,,,,,,
451281,001,2022-11-21_01h03.22.728,Info_measure_main_exp,2022.2.2,Win32,59.88023952,,,,,,,,,,,,,,,,,,masks/mask_002.jpg,,,,,,,,,,,,,,,,,,,,,,,,,,,,,,,,,,,,,,,,,,,,,,,,0,1,1,1,1,,,,,,,,,,,,,,,,,,,,,,,,,,,,,,,,,,,,,,,,,
451281,001,2022-11-21_01h03.22.728,Info_measure_main_exp,2022.2.2,Win32,59.88023952,,,,,,,,,,,,,,,,,,masks/mask_003.jpg,,,,,,,,,,,,,,,,,,,,,,,,,,,,,,,,,,,,,,,,,,,,,,,,0,2,2,2,1,,,,,,,,,,,,,,,,,,,,,,,,,,,,,,,,,,,,,,,,,
451281,001,2022-11-21_01h03.22.728,Info_measure_main_exp,2022.2.2,Win32,59.88023952,,,,,,,,,,,,,,,,,,masks/mask_005.jpg,,,,,,,,,,,,,,,,,,,,,,,,,,,,,,,,,,,,,,,,,,,,,,,,0,3,3,4,1,,,,,,,,,,,,,,,,,,,,,,,,,,,,,,,,,,,,,,,,,
451281,001,2022-11-21_01h03.22.728,Info_measure_main_exp,2022.2.2,Win32,59.88023952,,,,,,,,,,,,,,,,,,masks/mask_004.jpg,,,,,,,,,,,,,,,,,,,,,,,,,,,,,,,,,,,,,,,,,,,,,,,,0,4,4,3,1,,,,,,,,,,,,,,,,,,,,,,,,,,,,,,,,,,,,,,,,,
451281,001,2022-11-21_01h03.22.728,Info_measure_main_exp,2022.2.2,Win32,59.88023952,,,,,,,,,,,,,,,,,,,,,,,,,,,,,,4,2.419,1,,,,,,,,,,,,0,131,5,5,2274,2166,absent_patch/patch0002274.jpg,absent_patch/patch0002166.jpg,,,,,,,,,,,,,,,,,,,,0.044761905,-0.076190476,1,0,0,response3disk,25,-0.008571429,-0.006666667,1,0,0,center_square,0,24,24,78,1,,,,,,,,,,,,,,,,,,,,,,,
451281,001,2022-11-21_01h03.22.728,Info_measure_main_exp,2022.2.2,Win32,59.88023952,,,,,,,,,,,,,,,,,,masks/mask_004.jpg,,,,,,,,,,,,,,,,,,,,,,,,,,,,,,,,,,,,,,,,,,,0,0,0,3,1,,,,,,,,,,,,,,,,,,,,,,,,,,,,,,,,,,,,,,,,,,,,,,
451281,001,2022-11-21_01h03.22.728,Info_measure_main_exp,2022.2.2,Win32,59.88023952,,,,,,,,,,,,,,,,,,masks/mask_002.jpg,,,,,,,,,,,,,,,,,,,,,,,,,,,,,,,,,,,,,,,,,,,0,1,1,1,1,,,,,,,,,,,,,,,,,,,,,,,,,,,,,,,,,,,,,,,,,,,,,,
451281,001,2022-11-21_01h03.22.728,Info_measure_main_exp,2022.2.2,Win32,59.88023952,,,,,,,,,,,,,,,,,,masks/mask_003.jpg,,,,,,,,,,,,,,,,,,,,,,,,,,,,,,,,,,,,,,,,,,,0,2,2,2,1,,,,,,,,,,,,,,,,,,,,,,,,,,,,,,,,,,,,,,,,,,,,,,
451281,001,2022-11-21_01h03.22.728,Info_measure_main_exp,2022.2.2,Win32,59.88023952,,,,,,,,,,,,,,,,,,masks/mask_005.jpg,,,,,,,,,,,,,,,,,,,,,,,,,,,,,,,,,,,,,,,,,,,0,3,3,4,1,,,,,,,,,,,,,,,,,,,,,,,,,,,,,,,,,,,,,,,,,,,,,,
451281,001,2022-11-21_01h03.22.728,Info_measure_main_exp,2022.2.2,Win32,59.88023952,,,,,,,,,,,,,,,,,,masks/mask_001.jpg,,,,,,,,,,,,,,,,,,,,,,,,,,,,,,,,,,,,,,,,,,,0,4,4,0,1,,,,,,,,,,,,,,,,,,,,,,,,,,,,,,,,,,,,,,,,,,,,,,
451281,001,2022-11-21_01h03.22.728,Info_measure_main_exp,2022.2.2,Win32,59.88023952,,,,,,,,,,,,,,,,,,masks/mask_004.jpg,,,,,,,,,,,,,,,,,,,,,,,,,,,,,,,,,,,,,,,,,,,,,,,,0,0,0,3,1,,,,,,,,,,,,,,,,,,,,,,,,,,,,,,,,,,,,,,,,,
451281,001,2022-11-21_01h03.22.728,Info_measure_main_exp,2022.2.2,Win32,59.88023952,,,,,,,,,,,,,,,,,,masks/mask_005.jpg,,,,,,,,,,,,,,,,,,,,,,,,,,,,,,,,,,,,,,,,,,,,,,,,0,1,1,4,1,,,,,,,,,,,,,,,,,,,,,,,,,,,,,,,,,,,,,,,,,
451281,001,2022-11-21_01h03.22.728,Info_measure_main_exp,2022.2.2,Win32,59.88023952,,,,,,,,,,,,,,,,,,masks/mask_003.jpg,,,,,,,,,,,,,,,,,,,,,,,,,,,,,,,,,,,,,,,,,,,,,,,,0,2,2,2,1,,,,,,,,,,,,,,,,,,,,,,,,,,,,,,,,,,,,,,,,,
451281,001,2022-11-21_01h03.22.728,Info_measure_main_exp,2022.2.2,Win32,59.88023952,,,,,,,,,,,,,,,,,,masks/mask_001.jpg,,,,,,,,,,,,,,,,,,,,,,,,,,,,,,,,,,,,,,,,,,,,,,,,0,3,3,0,1,,,,,,,,,,,,,,,,,,,,,,,,,,,,,,,,,,,,,,,,,
451281,001,2022-11-21_01h03.22.728,Info_measure_main_exp,2022.2.2,Win32,59.88023952,,,,,,,,,,,,,,,,,,masks/mask_002.jpg,,,,,,,,,,,,,,,,,,,,,,,,,,,,,,,,,,,,,,,,,,,,,,,,0,4,4,1,1,,,,,,,,,,,,,,,,,,,,,,,,,,,,,,,,,,,,,,,,,
451281,001,2022-11-21_01h03.22.728,Info_measure_main_exp,2022.2.2,Win32,59.88023952,,,,,,,,,,,,,,,,,,,,,,,,,,,,,,7,1.15,1,,,,,,,,,,,,0,131,5,5,1986,2142,absent_patch/patch0001986.jpg,absent_patch/patch0002142.jpg,,,,,,,,,,,,,,,,,,,,0.03047619,0.081904762,1,0,0,response1disk,26,0.013333333,0.000952381,1,0,0,center_square,0,25,25,76,1,,,,,,,,,,,,,,,,,,,,,,,
451281,001,2022-11-21_01h03.22.728,Info_measure_main_exp,2022.2.2,Win32,59.88023952,,,,,,,,,,,,,,,,,,masks/mask_005.jpg,,,,,,,,,,,,,,,,,,,,,,,,,,,,,,,,,,,,,,,,,,,0,0,0,4,1,,,,,,,,,,,,,,,,,,,,,,,,,,,,,,,,,,,,,,,,,,,,,,
451281,001,2022-11-21_01h03.22.728,Info_measure_main_exp,2022.2.2,Win32,59.88023952,,,,,,,,,,,,,,,,,,masks/mask_004.jpg,,,,,,,,,,,,,,,,,,,,,,,,,,,,,,,,,,,,,,,,,,,0,1,1,3,1,,,,,,,,,,,,,,,,,,,,,,,,,,,,,,,,,,,,,,,,,,,,,,
451281,001,2022-11-21_01h03.22.728,Info_measure_main_exp,2022.2.2,Win32,59.88023952,,,,,,,,,,,,,,,,,,masks/mask_001.jpg,,,,,,,,,,,,,,,,,,,,,,,,,,,,,,,,,,,,,,,,,,,0,2,2,0,1,,,,,,,,,,,,,,,,,,,,,,,,,,,,,,,,,,,,,,,,,,,,,,
451281,001,2022-11-21_01h03.22.728,Info_measure_main_exp,2022.2.2,Win32,59.88023952,,,,,,,,,,,,,,,,,,masks/mask_003.jpg,,,,,,,,,,,,,,,,,,,,,,,,,,,,,,,,,,,,,,,,,,,0,3,3,2,1,,,,,,,,,,,,,,,,,,,,,,,,,,,,,,,,,,,,,,,,,,,,,,
451281,001,2022-11-21_01h03.22.728,Info_measure_main_exp,2022.2.2,Win32,59.88023952,,,,,,,,,,,,,,,,,,masks/mask_002.jpg,,,,,,,,,,,,,,,,,,,,,,,,,,,,,,,,,,,,,,,,,,,0,4,4,1,1,,,,,,,,,,,,,,,,,,,,,,,,,,,,,,,,,,,,,,,,,,,,,,
451281,001,2022-11-21_01h03.22.728,Info_measure_main_exp,2022.2.2,Win32,59.88023952,,,,,,,,,,,,,,,,,,masks/mask_003.jpg,,,,,,,,,,,,,,,,,,,,,,,,,,,,,,,,,,,,,,,,,,,,,,,,0,0,0,2,1,,,,,,,,,,,,,,,,,,,,,,,,,,,,,,,,,,,,,,,,,
451281,001,2022-11-21_01h03.22.728,Info_measure_main_exp,2022.2.2,Win32,59.88023952,,,,,,,,,,,,,,,,,,masks/mask_004.jpg,,,,,,,,,,,,,,,,,,,,,,,,,,,,,,,,,,,,,,,,,,,,,,,,0,1,1,3,1,,,,,,,,,,,,,,,,,,,,,,,,,,,,,,,,,,,,,,,,,
451281,001,2022-11-21_01h03.22.728,Info_measure_main_exp,2022.2.2,Win32,59.88023952,,,,,,,,,,,,,,,,,,masks/mask_001.jpg,,,,,,,,,,,,,,,,,,,,,,,,,,,,,,,,,,,,,,,,,,,,,,,,0,2,2,0,1,,,,,,,,,,,,,,,,,,,,,,,,,,,,,,,,,,,,,,,,,
451281,001,2022-11-21_01h03.22.728,Info_measure_main_exp,2022.2.2,Win32,59.88023952,,,,,,,,,,,,,,,,,,masks/mask_002.jpg,,,,,,,,,,,,,,,,,,,,,,,,,,,,,,,,,,,,,,,,,,,,,,,,0,3,3,1,1,,,,,,,,,,,,,,,,,,,,,,,,,,,,,,,,,,,,,,,,,
451281,001,2022-11-21_01h03.22.728,Info_measure_main_exp,2022.2.2,Win32,59.88023952,,,,,,,,,,,,,,,,,,masks/mask_005.jpg,,,,,,,,,,,,,,,,,,,,,,,,,,,,,,,,,,,,,,,,,,,,,,,,0,4,4,4,1,,,,,,,,,,,,,,,,,,,,,,,,,,,,,,,,,,,,,,,,,
451281,001,2022-11-21_01h03.22.728,Info_measure_main_exp,2022.2.2,Win32,59.88023952,,,,,,,,,,,,,,,,,,,,,,,,,,,,,,7,0.916,1,,,,,,,,,,,,1,131,5,5,2190,1,absent_patch/patch0002190.jpg,present_patch/cong_131_5_a.jpg,,,,,,,,,,,,,,,,,,,,0.027619048,0.052380952,1,0,0,response1disk,27,0.001904762,-0.004761905,1,0,0,center_square,0,26,26,64,1,,,,,,,,,,,,,,,,,,,,,,,
451281,001,2022-11-21_01h03.22.728,Info_measure_main_exp,2022.2.2,Win32,59.88023952,,,,,,,,,,,,,,,,,,masks/mask_005.jpg,,,,,,,,,,,,,,,,,,,,,,,,,,,,,,,,,,,,,,,,,,,0,0,0,4,1,,,,,,,,,,,,,,,,,,,,,,,,,,,,,,,,,,,,,,,,,,,,,,
451281,001,2022-11-21_01h03.22.728,Info_measure_main_exp,2022.2.2,Win32,59.88023952,,,,,,,,,,,,,,,,,,masks/mask_002.jpg,,,,,,,,,,,,,,,,,,,,,,,,,,,,,,,,,,,,,,,,,,,0,1,1,1,1,,,,,,,,,,,,,,,,,,,,,,,,,,,,,,,,,,,,,,,,,,,,,,
451281,001,2022-11-21_01h03.22.728,Info_measure_main_exp,2022.2.2,Win32,59.88023952,,,,,,,,,,,,,,,,,,masks/mask_003.jpg,,,,,,,,,,,,,,,,,,,,,,,,,,,,,,,,,,,,,,,,,,,0,2,2,2,1,,,,,,,,,,,,,,,,,,,,,,,,,,,,,,,,,,,,,,,,,,,,,,
451281,001,2022-11-21_01h03.22.728,Info_measure_main_exp,2022.2.2,Win32,59.88023952,,,,,,,,,,,,,,,,,,masks/mask_001.jpg,,,,,,,,,,,,,,,,,,,,,,,,,,,,,,,,,,,,,,,,,,,0,3,3,0,1,,,,,,,,,,,,,,,,,,,,,,,,,,,,,,,,,,,,,,,,,,,,,,
451281,001,2022-11-21_01h03.22.728,Info_measure_main_exp,2022.2.2,Win32,59.88023952,,,,,,,,,,,,,,,,,,masks/mask_004.jpg,,,,,,,,,,,,,,,,,,,,,,,,,,,,,,,,,,,,,,,,,,,0,4,4,3,1,,,,,,,,,,,,,,,,,,,,,,,,,,,,,,,,,,,,,,,,,,,,,,
451281,001,2022-11-21_01h03.22.728,Info_measure_main_exp,2022.2.2,Win32,59.88023952,,,,,,,,,,,,,,,,,,masks/mask_003.jpg,,,,,,,,,,,,,,,,,,,,,,,,,,,,,,,,,,,,,,,,,,,,,,,,0,0,0,2,1,,,,,,,,,,,,,,,,,,,,,,,,,,,,,,,,,,,,,,,,,
451281,001,2022-11-21_01h03.22.728,Info_measure_main_exp,2022.2.2,Win32,59.88023952,,,,,,,,,,,,,,,,,,masks/mask_002.jpg,,,,,,,,,,,,,,,,,,,,,,,,,,,,,,,,,,,,,,,,,,,,,,,,0,1,1,1,1,,,,,,,,,,,,,,,,,,,,,,,,,,,,,,,,,,,,,,,,,
451281,001,2022-11-21_01h03.22.728,Info_measure_main_exp,2022.2.2,Win32,59.88023952,,,,,,,,,,,,,,,,,,masks/mask_001.jpg,,,,,,,,,,,,,,,,,,,,,,,,,,,,,,,,,,,,,,,,,,,,,,,,0,2,2,0,1,,,,,,,,,,,,,,,,,,,,,,,,,,,,,,,,,,,,,,,,,
451281,001,2022-11-21_01h03.22.728,Info_measure_main_exp,2022.2.2,Win32,59.88023952,,,,,,,,,,,,,,,,,,masks/mask_004.jpg,,,,,,,,,,,,,,,,,,,,,,,,,,,,,,,,,,,,,,,,,,,,,,,,0,3,3,3,1,,,,,,,,,,,,,,,,,,,,,,,,,,,,,,,,,,,,,,,,,
451281,001,2022-11-21_01h03.22.728,Info_measure_main_exp,2022.2.2,Win32,59.88023952,,,,,,,,,,,,,,,,,,masks/mask_005.jpg,,,,,,,,,,,,,,,,,,,,,,,,,,,,,,,,,,,,,,,,,,,,,,,,0,4,4,4,1,,,,,,,,,,,,,,,,,,,,,,,,,,,,,,,,,,,,,,,,,
451281,001,2022-11-21_01h03.22.728,Info_measure_main_exp,2022.2.2,Win32,59.88023952,,,,,,,,,,,,,,,,,,,,,,,,,,,,,,4,1.382,1,,,,,,,,,,,,0,131,5,5,2178,2142,absent_patch/patch0002178.jpg,absent_patch/patch0002142.jpg,,,,,,,,,,,,,,,,,,,,0.011428571,-0.036190476,1,0,0,response3disk,28,-0.007619048,-0.000952381,1,0,0,center_square,0,27,27,41,1,,,,,,,,,,,,,,,,,,,,,,,
451281,001,2022-11-21_01h03.22.728,Info_measure_main_exp,2022.2.2,Win32,59.88023952,,,,,,,,,,,,,,,,,,masks/mask_004.jpg,,,,,,,,,,,,,,,,,,,,,,,,,,,,,,,,,,,,,,,,,,,0,0,0,3,1,,,,,,,,,,,,,,,,,,,,,,,,,,,,,,,,,,,,,,,,,,,,,,
451281,001,2022-11-21_01h03.22.728,Info_measure_main_exp,2022.2.2,Win32,59.88023952,,,,,,,,,,,,,,,,,,masks/mask_003.jpg,,,,,,,,,,,,,,,,,,,,,,,,,,,,,,,,,,,,,,,,,,,0,1,1,2,1,,,,,,,,,,,,,,,,,,,,,,,,,,,,,,,,,,,,,,,,,,,,,,
451281,001,2022-11-21_01h03.22.728,Info_measure_main_exp,2022.2.2,Win32,59.88023952,,,,,,,,,,,,,,,,,,masks/mask_005.jpg,,,,,,,,,,,,,,,,,,,,,,,,,,,,,,,,,,,,,,,,,,,0,2,2,4,1,,,,,,,,,,,,,,,,,,,,,,,,,,,,,,,,,,,,,,,,,,,,,,
451281,001,2022-11-21_01h03.22.728,Info_measure_main_exp,2022.2.2,Win32,59.88023952,,,,,,,,,,,,,,,,,,masks/mask_002.jpg,,,,,,,,,,,,,,,,,,,,,,,,,,,,,,,,,,,,,,,,,,,0,3,3,1,1,,,,,,,,,,,,,,,,,,,,,,,,,,,,,,,,,,,,,,,,,,,,,,
451281,001,2022-11-21_01h03.22.728,Info_measure_main_exp,2022.2.2,Win32,59.88023952,,,,,,,,,,,,,,,,,,masks/mask_001.jpg,,,,,,,,,,,,,,,,,,,,,,,,,,,,,,,,,,,,,,,,,,,0,4,4,0,1,,,,,,,,,,,,,,,,,,,,,,,,,,,,,,,,,,,,,,,,,,,,,,
451281,001,2022-11-21_01h03.22.728,Info_measure_main_exp,2022.2.2,Win32,59.88023952,,,,,,,,,,,,,,,,,,masks/mask_003.jpg,,,,,,,,,,,,,,,,,,,,,,,,,,,,,,,,,,,,,,,,,,,,,,,,0,0,0,2,1,,,,,,,,,,,,,,,,,,,,,,,,,,,,,,,,,,,,,,,,,
451281,001,2022-11-21_01h03.22.728,Info_measure_main_exp,2022.2.2,Win32,59.88023952,,,,,,,,,,,,,,,,,,masks/mask_005.jpg,,,,,,,,,,,,,,,,,,,,,,,,,,,,,,,,,,,,,,,,,,,,,,,,0,1,1,4,1,,,,,,,,,,,,,,,,,,,,,,,,,,,,,,,,,,,,,,,,,
451281,001,2022-11-21_01h03.22.728,Info_measure_main_exp,2022.2.2,Win32,59.88023952,,,,,,,,,,,,,,,,,,masks/mask_001.jpg,,,,,,,,,,,,,,,,,,,,,,,,,,,,,,,,,,,,,,,,,,,,,,,,0,2,2,0,1,,,,,,,,,,,,,,,,,,,,,,,,,,,,,,,,,,,,,,,,,
451281,001,2022-11-21_01h03.22.728,Info_measure_main_exp,2022.2.2,Win32,59.88023952,,,,,,,,,,,,,,,,,,masks/mask_002.jpg,,,,,,,,,,,,,,,,,,,,,,,,,,,,,,,,,,,,,,,,,,,,,,,,0,3,3,1,1,,,,,,,,,,,,,,,,,,,,,,,,,,,,,,,,,,,,,,,,,
451281,001,2022-11-21_01h03.22.728,Info_measure_main_exp,2022.2.2,Win32,59.88023952,,,,,,,,,,,,,,,,,,masks/mask_004.jpg,,,,,,,,,,,,,,,,,,,,,,,,,,,,,,,,,,,,,,,,,,,,,,,,0,4,4,3,1,,,,,,,,,,,,,,,,,,,,,,,,,,,,,,,,,,,,,,,,,
451281,001,2022-11-21_01h03.22.728,Info_measure_main_exp,2022.2.2,Win32,59.88023952,,,,,,,,,,,,,,,,,,,,,,,,,,,,,,6,1.133,1,,,,,,,,,,,,0,131,5,5,1950,2166,absent_patch/patch0001950.jpg,absent_patch/patch0002166.jpg,,,,,,,,,,,,,,,,,,,,0.068571429,0.054285714,1,0,0,response1disk,29,-0.015238095,0.008571429,1,0,0,center_square,0,28,28,0,1,,,,,,,,,,,,,,,,,,,,,,,
451281,001,2022-11-21_01h03.22.728,Info_measure_main_exp,2022.2.2,Win32,59.88023952,,,,,,,,,,,,,,,,,,masks/mask_004.jpg,,,,,,,,,,,,,,,,,,,,,,,,,,,,,,,,,,,,,,,,,,,0,0,0,3,1,,,,,,,,,,,,,,,,,,,,,,,,,,,,,,,,,,,,,,,,,,,,,,
451281,001,2022-11-21_01h03.22.728,Info_measure_main_exp,2022.2.2,Win32,59.88023952,,,,,,,,,,,,,,,,,,masks/mask_002.jpg,,,,,,,,,,,,,,,,,,,,,,,,,,,,,,,,,,,,,,,,,,,0,1,1,1,1,,,,,,,,,,,,,,,,,,,,,,,,,,,,,,,,,,,,,,,,,,,,,,
451281,001,2022-11-21_01h03.22.728,Info_measure_main_exp,2022.2.2,Win32,59.88023952,,,,,,,,,,,,,,,,,,masks/mask_003.jpg,,,,,,,,,,,,,,,,,,,,,,,,,,,,,,,,,,,,,,,,,,,0,2,2,2,1,,,,,,,,,,,,,,,,,,,,,,,,,,,,,,,,,,,,,,,,,,,,,,
451281,001,2022-11-21_01h03.22.728,Info_measure_main_exp,2022.2.2,Win32,59.88023952,,,,,,,,,,,,,,,,,,masks/mask_005.jpg,,,,,,,,,,,,,,,,,,,,,,,,,,,,,,,,,,,,,,,,,,,0,3,3,4,1,,,,,,,,,,,,,,,,,,,,,,,,,,,,,,,,,,,,,,,,,,,,,,
451281,001,2022-11-21_01h03.22.728,Info_measure_main_exp,2022.2.2,Win32,59.88023952,,,,,,,,,,,,,,,,,,masks/mask_001.jpg,,,,,,,,,,,,,,,,,,,,,,,,,,,,,,,,,,,,,,,,,,,0,4,4,0,1,,,,,,,,,,,,,,,,,,,,,,,,,,,,,,,,,,,,,,,,,,,,,,
451281,001,2022-11-21_01h03.22.728,Info_measure_main_exp,2022.2.2,Win32,59.88023952,,,,,,,,,,,,,,,,,,masks/mask_003.jpg,,,,,,,,,,,,,,,,,,,,,,,,,,,,,,,,,,,,,,,,,,,,,,,,0,0,0,2,1,,,,,,,,,,,,,,,,,,,,,,,,,,,,,,,,,,,,,,,,,
451281,001,2022-11-21_01h03.22.728,Info_measure_main_exp,2022.2.2,Win32,59.88023952,,,,,,,,,,,,,,,,,,masks/mask_001.jpg,,,,,,,,,,,,,,,,,,,,,,,,,,,,,,,,,,,,,,,,,,,,,,,,0,1,1,0,1,,,,,,,,,,,,,,,,,,,,,,,,,,,,,,,,,,,,,,,,,
451281,001,2022-11-21_01h03.22.728,Info_measure_main_exp,2022.2.2,Win32,59.88023952,,,,,,,,,,,,,,,,,,masks/mask_002.jpg,,,,,,,,,,,,,,,,,,,,,,,,,,,,,,,,,,,,,,,,,,,,,,,,0,2,2,1,1,,,,,,,,,,,,,,,,,,,,,,,,,,,,,,,,,,,,,,,,,
451281,001,2022-11-21_01h03.22.728,Info_measure_main_exp,2022.2.2,Win32,59.88023952,,,,,,,,,,,,,,,,,,masks/mask_004.jpg,,,,,,,,,,,,,,,,,,,,,,,,,,,,,,,,,,,,,,,,,,,,,,,,0,3,3,3,1,,,,,,,,,,,,,,,,,,,,,,,,,,,,,,,,,,,,,,,,,
451281,001,2022-11-21_01h03.22.728,Info_measure_main_exp,2022.2.2,Win32,59.88023952,,,,,,,,,,,,,,,,,,masks/mask_005.jpg,,,,,,,,,,,,,,,,,,,,,,,,,,,,,,,,,,,,,,,,,,,,,,,,0,4,4,4,1,,,,,,,,,,,,,,,,,,,,,,,,,,,,,,,,,,,,,,,,,
451281,001,2022-11-21_01h03.22.728,Info_measure_main_exp,2022.2.2,Win32,59.88023952,,,,,,,,,,,,,,,,,,,,,,,,,,,,,,0,0.467,1,,,,,,,,,,,,0,131,5,5,2250,2250,absent_patch/patch0002250.jpg,absent_patch/patch0002250.jpg,,,,,,,,,,,,,,,,,,,,-0.034285714,0.095238095,1,0,0,response7disk,30,0.001904762,0.005714286,1,0,0,center_square,0,29,29,56,1,,,,,,,,,,,,,,,,,,,,,,,
451281,001,2022-11-21_01h03.22.728,Info_measure_main_exp,2022.2.2,Win32,59.88023952,,,,,,,,,,,,,,,,,,masks/mask_005.jpg,,,,,,,,,,,,,,,,,,,,,,,,,,,,,,,,,,,,,,,,,,,0,0,0,4,1,,,,,,,,,,,,,,,,,,,,,,,,,,,,,,,,,,,,,,,,,,,,,,
451281,001,2022-11-21_01h03.22.728,Info_measure_main_exp,2022.2.2,Win32,59.88023952,,,,,,,,,,,,,,,,,,masks/mask_001.jpg,,,,,,,,,,,,,,,,,,,,,,,,,,,,,,,,,,,,,,,,,,,0,1,1,0,1,,,,,,,,,,,,,,,,,,,,,,,,,,,,,,,,,,,,,,,,,,,,,,
451281,001,2022-11-21_01h03.22.728,Info_measure_main_exp,2022.2.2,Win32,59.88023952,,,,,,,,,,,,,,,,,,masks/mask_002.jpg,,,,,,,,,,,,,,,,,,,,,,,,,,,,,,,,,,,,,,,,,,,0,2,2,1,1,,,,,,,,,,,,,,,,,,,,,,,,,,,,,,,,,,,,,,,,,,,,,,
451281,001,2022-11-21_01h03.22.728,Info_measure_main_exp,2022.2.2,Win32,59.88023952,,,,,,,,,,,,,,,,,,masks/mask_004.jpg,,,,,,,,,,,,,,,,,,,,,,,,,,,,,,,,,,,,,,,,,,,0,3,3,3,1,,,,,,,,,,,,,,,,,,,,,,,,,,,,,,,,,,,,,,,,,,,,,,
451281,001,2022-11-21_01h03.22.728,Info_measure_main_exp,2022.2.2,Win32,59.88023952,,,,,,,,,,,,,,,,,,masks/mask_003.jpg,,,,,,,,,,,,,,,,,,,,,,,,,,,,,,,,,,,,,,,,,,,0,4,4,2,1,,,,,,,,,,,,,,,,,,,,,,,,,,,,,,,,,,,,,,,,,,,,,,
451281,001,2022-11-21_01h03.22.728,Info_measure_main_exp,2022.2.2,Win32,59.88023952,,,,,,,,,,,,,,,,,,masks/mask_005.jpg,,,,,,,,,,,,,,,,,,,,,,,,,,,,,,,,,,,,,,,,,,,,,,,,0,0,0,4,1,,,,,,,,,,,,,,,,,,,,,,,,,,,,,,,,,,,,,,,,,
451281,001,2022-11-21_01h03.22.728,Info_measure_main_exp,2022.2.2,Win32,59.88023952,,,,,,,,,,,,,,,,,,masks/mask_003.jpg,,,,,,,,,,,,,,,,,,,,,,,,,,,,,,,,,,,,,,,,,,,,,,,,0,1,1,2,1,,,,,,,,,,,,,,,,,,,,,,,,,,,,,,,,,,,,,,,,,
451281,001,2022-11-21_01h03.22.728,Info_measure_main_exp,2022.2.2,Win32,59.88023952,,,,,,,,,,,,,,,,,,masks/mask_002.jpg,,,,,,,,,,,,,,,,,,,,,,,,,,,,,,,,,,,,,,,,,,,,,,,,0,2,2,1,1,,,,,,,,,,,,,,,,,,,,,,,,,,,,,,,,,,,,,,,,,
451281,001,2022-11-21_01h03.22.728,Info_measure_main_exp,2022.2.2,Win32,59.88023952,,,,,,,,,,,,,,,,,,masks/mask_001.jpg,,,,,,,,,,,,,,,,,,,,,,,,,,,,,,,,,,,,,,,,,,,,,,,,0,3,3,0,1,,,,,,,,,,,,,,,,,,,,,,,,,,,,,,,,,,,,,,,,,
451281,001,2022-11-21_01h03.22.728,Info_measure_main_exp,2022.2.2,Win32,59.88023952,,,,,,,,,,,,,,,,,,masks/mask_004.jpg,,,,,,,,,,,,,,,,,,,,,,,,,,,,,,,,,,,,,,,,,,,,,,,,0,4,4,3,1,,,,,,,,,,,,,,,,,,,,,,,,,,,,,,,,,,,,,,,,,
451281,001,2022-11-21_01h03.22.728,Info_measure_main_exp,2022.2.2,Win32,59.88023952,,,,,,,,,,,,,,,,,,,,,,,,,,,,,,5,1.55,1,,,,,,,,,,,,0,131,5,5,2166,1986,absent_patch/patch0002166.jpg,absent_patch/patch0001986.jpg,,,,,,,,,,,,,,,,,,,,0.099047619,-0.019047619,1,0,0,response3disk,31,0.001904762,-0.002857143,1,0,0,center_square,0,30,30,47,1,,,,,,,,,,,,,,,,,,,,,,,
451281,001,2022-11-21_01h03.22.728,Info_measure_main_exp,2022.2.2,Win32,59.88023952,,,,,,,,,,,,,,,,,,masks/mask_002.jpg,,,,,,,,,,,,,,,,,,,,,,,,,,,,,,,,,,,,,,,,,,,0,0,0,1,1,,,,,,,,,,,,,,,,,,,,,,,,,,,,,,,,,,,,,,,,,,,,,,
451281,001,2022-11-21_01h03.22.728,Info_measure_main_exp,2022.2.2,Win32,59.88023952,,,,,,,,,,,,,,,,,,masks/mask_004.jpg,,,,,,,,,,,,,,,,,,,,,,,,,,,,,,,,,,,,,,,,,,,0,1,1,3,1,,,,,,,,,,,,,,,,,,,,,,,,,,,,,,,,,,,,,,,,,,,,,,
451281,001,2022-11-21_01h03.22.728,Info_measure_main_exp,2022.2.2,Win32,59.88023952,,,,,,,,,,,,,,,,,,masks/mask_003.jpg,,,,,,,,,,,,,,,,,,,,,,,,,,,,,,,,,,,,,,,,,,,0,2,2,2,1,,,,,,,,,,,,,,,,,,,,,,,,,,,,,,,,,,,,,,,,,,,,,,
451281,001,2022-11-21_01h03.22.728,Info_measure_main_exp,2022.2.2,Win32,59.88023952,,,,,,,,,,,,,,,,,,masks/mask_005.jpg,,,,,,,,,,,,,,,,,,,,,,,,,,,,,,,,,,,,,,,,,,,0,3,3,4,1,,,,,,,,,,,,,,,,,,,,,,,,,,,,,,,,,,,,,,,,,,,,,,
451281,001,2022-11-21_01h03.22.728,Info_measure_main_exp,2022.2.2,Win32,59.88023952,,,,,,,,,,,,,,,,,,masks/mask_001.jpg,,,,,,,,,,,,,,,,,,,,,,,,,,,,,,,,,,,,,,,,,,,0,4,4,0,1,,,,,,,,,,,,,,,,,,,,,,,,,,,,,,,,,,,,,,,,,,,,,,
451281,001,2022-11-21_01h03.22.728,Info_measure_main_exp,2022.2.2,Win32,59.88023952,,,,,,,,,,,,,,,,,,masks/mask_004.jpg,,,,,,,,,,,,,,,,,,,,,,,,,,,,,,,,,,,,,,,,,,,,,,,,0,0,0,3,1,,,,,,,,,,,,,,,,,,,,,,,,,,,,,,,,,,,,,,,,,
451281,001,2022-11-21_01h03.22.728,Info_measure_main_exp,2022.2.2,Win32,59.88023952,,,,,,,,,,,,,,,,,,masks/mask_005.jpg,,,,,,,,,,,,,,,,,,,,,,,,,,,,,,,,,,,,,,,,,,,,,,,,0,1,1,4,1,,,,,,,,,,,,,,,,,,,,,,,,,,,,,,,,,,,,,,,,,
451281,001,2022-11-21_01h03.22.728,Info_measure_main_exp,2022.2.2,Win32,59.88023952,,,,,,,,,,,,,,,,,,masks/mask_002.jpg,,,,,,,,,,,,,,,,,,,,,,,,,,,,,,,,,,,,,,,,,,,,,,,,0,2,2,1,1,,,,,,,,,,,,,,,,,,,,,,,,,,,,,,,,,,,,,,,,,
451281,001,2022-11-21_01h03.22.728,Info_measure_main_exp,2022.2.2,Win32,59.88023952,,,,,,,,,,,,,,,,,,masks/mask_001.jpg,,,,,,,,,,,,,,,,,,,,,,,,,,,,,,,,,,,,,,,,,,,,,,,,0,3,3,0,1,,,,,,,,,,,,,,,,,,,,,,,,,,,,,,,,,,,,,,,,,
451281,001,2022-11-21_01h03.22.728,Info_measure_main_exp,2022.2.2,Win32,59.88023952,,,,,,,,,,,,,,,,,,masks/mask_003.jpg,,,,,,,,,,,,,,,,,,,,,,,,,,,,,,,,,,,,,,,,,,,,,,,,0,4,4,2,1,,,,,,,,,,,,,,,,,,,,,,,,,,,,,,,,,,,,,,,,,
451281,001,2022-11-21_01h03.22.728,Info_measure_main_exp,2022.2.2,Win32,59.88023952,,,,,,,,,,,,,,,,,,,,,,,,,,,,,,6,1.85,1,,,,,,,,,,,,0,131,5,5,2298,2142,absent_patch/patch0002298.jpg,absent_patch/patch0002142.jpg,,,,,,,,,,,,,,,,,,,,0.040952381,0.019047619,1,0,0,response1disk,32,0.001904762,-0.000952381,1,0,0,center_square,0,31,31,49,1,,,,,,,,,,,,,,,,,,,,,,,
451281,001,2022-11-21_01h03.22.728,Info_measure_main_exp,2022.2.2,Win32,59.88023952,,,,,,,,,,,,,,,,,,masks/mask_005.jpg,,,,,,,,,,,,,,,,,,,,,,,,,,,,,,,,,,,,,,,,,,,0,0,0,4,1,,,,,,,,,,,,,,,,,,,,,,,,,,,,,,,,,,,,,,,,,,,,,,
451281,001,2022-11-21_01h03.22.728,Info_measure_main_exp,2022.2.2,Win32,59.88023952,,,,,,,,,,,,,,,,,,masks/mask_003.jpg,,,,,,,,,,,,,,,,,,,,,,,,,,,,,,,,,,,,,,,,,,,0,1,1,2,1,,,,,,,,,,,,,,,,,,,,,,,,,,,,,,,,,,,,,,,,,,,,,,
451281,001,2022-11-21_01h03.22.728,Info_measure_main_exp,2022.2.2,Win32,59.88023952,,,,,,,,,,,,,,,,,,masks/mask_001.jpg,,,,,,,,,,,,,,,,,,,,,,,,,,,,,,,,,,,,,,,,,,,0,2,2,0,1,,,,,,,,,,,,,,,,,,,,,,,,,,,,,,,,,,,,,,,,,,,,,,
451281,001,2022-11-21_01h03.22.728,Info_measure_main_exp,2022.2.2,Win32,59.88023952,,,,,,,,,,,,,,,,,,masks/mask_004.jpg,,,,,,,,,,,,,,,,,,,,,,,,,,,,,,,,,,,,,,,,,,,0,3,3,3,1,,,,,,,,,,,,,,,,,,,,,,,,,,,,,,,,,,,,,,,,,,,,,,
451281,001,2022-11-21_01h03.22.728,Info_measure_main_exp,2022.2.2,Win32,59.88023952,,,,,,,,,,,,,,,,,,masks/mask_002.jpg,,,,,,,,,,,,,,,,,,,,,,,,,,,,,,,,,,,,,,,,,,,0,4,4,1,1,,,,,,,,,,,,,,,,,,,,,,,,,,,,,,,,,,,,,,,,,,,,,,
451281,001,2022-11-21_01h03.22.728,Info_measure_main_exp,2022.2.2,Win32,59.88023952,,,,,,,,,,,,,,,,,,masks/mask_003.jpg,,,,,,,,,,,,,,,,,,,,,,,,,,,,,,,,,,,,,,,,,,,,,,,,0,0,0,2,1,,,,,,,,,,,,,,,,,,,,,,,,,,,,,,,,,,,,,,,,,
451281,001,2022-11-21_01h03.22.728,Info_measure_main_exp,2022.2.2,Win32,59.88023952,,,,,,,,,,,,,,,,,,masks/mask_005.jpg,,,,,,,,,,,,,,,,,,,,,,,,,,,,,,,,,,,,,,,,,,,,,,,,0,1,1,4,1,,,,,,,,,,,,,,,,,,,,,,,,,,,,,,,,,,,,,,,,,
451281,001,2022-11-21_01h03.22.728,Info_measure_main_exp,2022.2.2,Win32,59.88023952,,,,,,,,,,,,,,,,,,masks/mask_002.jpg,,,,,,,,,,,,,,,,,,,,,,,,,,,,,,,,,,,,,,,,,,,,,,,,0,2,2,1,1,,,,,,,,,,,,,,,,,,,,,,,,,,,,,,,,,,,,,,,,,
451281,001,2022-11-21_01h03.22.728,Info_measure_main_exp,2022.2.2,Win32,59.88023952,,,,,,,,,,,,,,,,,,masks/mask_001.jpg,,,,,,,,,,,,,,,,,,,,,,,,,,,,,,,,,,,,,,,,,,,,,,,,0,3,3,0,1,,,,,,,,,,,,,,,,,,,,,,,,,,,,,,,,,,,,,,,,,
451281,001,2022-11-21_01h03.22.728,Info_measure_main_exp,2022.2.2,Win32,59.88023952,,,,,,,,,,,,,,,,,,masks/mask_004.jpg,,,,,,,,,,,,,,,,,,,,,,,,,,,,,,,,,,,,,,,,,,,,,,,,0,4,4,3,1,,,,,,,,,,,,,,,,,,,,,,,,,,,,,,,,,,,,,,,,,
451281,001,2022-11-21_01h03.22.728,Info_measure_main_exp,2022.2.2,Win32,59.88023952,,,,,,,,,,,,,,,,,,,,,,,,,,,,,,7,1.682,1,,,,,,,,,,,,0,131,5,5,2082,1986,absent_patch/patch0002082.jpg,absent_patch/patch0001986.jpg,,,,,,,,,,,,,,,,,,,,0.025714286,0.076190476,1,0,0,response1disk,33,0,0.008571429,1,0,0,center_square,0,32,32,94,1,,,,,,,,,,,,,,,,,,,,,,,
451281,001,2022-11-21_01h03.22.728,Info_measure_main_exp,2022.2.2,Win32,59.88023952,,,,,,,,,,,,,,,,,,masks/mask_005.jpg,,,,,,,,,,,,,,,,,,,,,,,,,,,,,,,,,,,,,,,,,,,0,0,0,4,1,,,,,,,,,,,,,,,,,,,,,,,,,,,,,,,,,,,,,,,,,,,,,,
451281,001,2022-11-21_01h03.22.728,Info_measure_main_exp,2022.2.2,Win32,59.88023952,,,,,,,,,,,,,,,,,,masks/mask_003.jpg,,,,,,,,,,,,,,,,,,,,,,,,,,,,,,,,,,,,,,,,,,,0,1,1,2,1,,,,,,,,,,,,,,,,,,,,,,,,,,,,,,,,,,,,,,,,,,,,,,
451281,001,2022-11-21_01h03.22.728,Info_measure_main_exp,2022.2.2,Win32,59.88023952,,,,,,,,,,,,,,,,,,masks/mask_002.jpg,,,,,,,,,,,,,,,,,,,,,,,,,,,,,,,,,,,,,,,,,,,0,2,2,1,1,,,,,,,,,,,,,,,,,,,,,,,,,,,,,,,,,,,,,,,,,,,,,,
451281,001,2022-11-21_01h03.22.728,Info_measure_main_exp,2022.2.2,Win32,59.88023952,,,,,,,,,,,,,,,,,,masks/mask_001.jpg,,,,,,,,,,,,,,,,,,,,,,,,,,,,,,,,,,,,,,,,,,,0,3,3,0,1,,,,,,,,,,,,,,,,,,,,,,,,,,,,,,,,,,,,,,,,,,,,,,
451281,001,2022-11-21_01h03.22.728,Info_measure_main_exp,2022.2.2,Win32,59.88023952,,,,,,,,,,,,,,,,,,masks/mask_004.jpg,,,,,,,,,,,,,,,,,,,,,,,,,,,,,,,,,,,,,,,,,,,0,4,4,3,1,,,,,,,,,,,,,,,,,,,,,,,,,,,,,,,,,,,,,,,,,,,,,,
451281,001,2022-11-21_01h03.22.728,Info_measure_main_exp,2022.2.2,Win32,59.88023952,,,,,,,,,,,,,,,,,,masks/mask_005.jpg,,,,,,,,,,,,,,,,,,,,,,,,,,,,,,,,,,,,,,,,,,,,,,,,0,0,0,4,1,,,,,,,,,,,,,,,,,,,,,,,,,,,,,,,,,,,,,,,,,
451281,001,2022-11-21_01h03.22.728,Info_measure_main_exp,2022.2.2,Win32,59.88023952,,,,,,,,,,,,,,,,,,masks/mask_002.jpg,,,,,,,,,,,,,,,,,,,,,,,,,,,,,,,,,,,,,,,,,,,,,,,,0,1,1,1,1,,,,,,,,,,,,,,,,,,,,,,,,,,,,,,,,,,,,,,,,,
451281,001,2022-11-21_01h03.22.728,Info_measure_main_exp,2022.2.2,Win32,59.88023952,,,,,,,,,,,,,,,,,,masks/mask_004.jpg,,,,,,,,,,,,,,,,,,,,,,,,,,,,,,,,,,,,,,,,,,,,,,,,0,2,2,3,1,,,,,,,,,,,,,,,,,,,,,,,,,,,,,,,,,,,,,,,,,
451281,001,2022-11-21_01h03.22.728,Info_measure_main_exp,2022.2.2,Win32,59.88023952,,,,,,,,,,,,,,,,,,masks/mask_003.jpg,,,,,,,,,,,,,,,,,,,,,,,,,,,,,,,,,,,,,,,,,,,,,,,,0,3,3,2,1,,,,,,,,,,,,,,,,,,,,,,,,,,,,,,,,,,,,,,,,,
451281,001,2022-11-21_01h03.22.728,Info_measure_main_exp,2022.2.2,Win32,59.88023952,,,,,,,,,,,,,,,,,,masks/mask_001.jpg,,,,,,,,,,,,,,,,,,,,,,,,,,,,,,,,,,,,,,,,,,,,,,,,0,4,4,0,1,,,,,,,,,,,,,,,,,,,,,,,,,,,,,,,,,,,,,,,,,
451281,001,2022-11-21_01h03.22.728,Info_measure_main_exp,2022.2.2,Win32,59.88023952,,,,,,,,,,,,,,,,,,,,,,,,,,,,,,7,0.6,1,,,,,,,,,,,,0,131,5,5,1986,1950,absent_patch/patch0001986.jpg,absent_patch/patch0001950.jpg,,,,,,,,,,,,,,,,,,,,0.035238095,0.064761905,1,0,0,response1disk,34,0.005714286,0.00952381,1,0,0,center_square,0,33,33,15,1,,,,,,,,,,,,,,,,,,,,,,,
451281,001,2022-11-21_01h03.22.728,Info_measure_main_exp,2022.2.2,Win32,59.88023952,,,,,,,,,,,,,,,,,,masks/mask_004.jpg,,,,,,,,,,,,,,,,,,,,,,,,,,,,,,,,,,,,,,,,,,,0,0,0,3,1,,,,,,,,,,,,,,,,,,,,,,,,,,,,,,,,,,,,,,,,,,,,,,
451281,001,2022-11-21_01h03.22.728,Info_measure_main_exp,2022.2.2,Win32,59.88023952,,,,,,,,,,,,,,,,,,masks/mask_001.jpg,,,,,,,,,,,,,,,,,,,,,,,,,,,,,,,,,,,,,,,,,,,0,1,1,0,1,,,,,,,,,,,,,,,,,,,,,,,,,,,,,,,,,,,,,,,,,,,,,,
451281,001,2022-11-21_01h03.22.728,Info_measure_main_exp,2022.2.2,Win32,59.88023952,,,,,,,,,,,,,,,,,,masks/mask_005.jpg,,,,,,,,,,,,,,,,,,,,,,,,,,,,,,,,,,,,,,,,,,,0,2,2,4,1,,,,,,,,,,,,,,,,,,,,,,,,,,,,,,,,,,,,,,,,,,,,,,
451281,001,2022-11-21_01h03.22.728,Info_measure_main_exp,2022.2.2,Win32,59.88023952,,,,,,,,,,,,,,,,,,masks/mask_003.jpg,,,,,,,,,,,,,,,,,,,,,,,,,,,,,,,,,,,,,,,,,,,0,3,3,2,1,,,,,,,,,,,,,,,,,,,,,,,,,,,,,,,,,,,,,,,,,,,,,,
451281,001,2022-11-21_01h03.22.728,Info_measure_main_exp,2022.2.2,Win32,59.88023952,,,,,,,,,,,,,,,,,,masks/mask_002.jpg,,,,,,,,,,,,,,,,,,,,,,,,,,,,,,,,,,,,,,,,,,,0,4,4,1,1,,,,,,,,,,,,,,,,,,,,,,,,,,,,,,,,,,,,,,,,,,,,,,
451281,001,2022-11-21_01h03.22.728,Info_measure_main_exp,2022.2.2,Win32,59.88023952,,,,,,,,,,,,,,,,,,masks/mask_004.jpg,,,,,,,,,,,,,,,,,,,,,,,,,,,,,,,,,,,,,,,,,,,,,,,,0,0,0,3,1,,,,,,,,,,,,,,,,,,,,,,,,,,,,,,,,,,,,,,,,,
451281,001,2022-11-21_01h03.22.728,Info_measure_main_exp,2022.2.2,Win32,59.88023952,,,,,,,,,,,,,,,,,,masks/mask_001.jpg,,,,,,,,,,,,,,,,,,,,,,,,,,,,,,,,,,,,,,,,,,,,,,,,0,1,1,0,1,,,,,,,,,,,,,,,,,,,,,,,,,,,,,,,,,,,,,,,,,
451281,001,2022-11-21_01h03.22.728,Info_measure_main_exp,2022.2.2,Win32,59.88023952,,,,,,,,,,,,,,,,,,masks/mask_002.jpg,,,,,,,,,,,,,,,,,,,,,,,,,,,,,,,,,,,,,,,,,,,,,,,,0,2,2,1,1,,,,,,,,,,,,,,,,,,,,,,,,,,,,,,,,,,,,,,,,,
451281,001,2022-11-21_01h03.22.728,Info_measure_main_exp,2022.2.2,Win32,59.88023952,,,,,,,,,,,,,,,,,,masks/mask_003.jpg,,,,,,,,,,,,,,,,,,,,,,,,,,,,,,,,,,,,,,,,,,,,,,,,0,3,3,2,1,,,,,,,,,,,,,,,,,,,,,,,,,,,,,,,,,,,,,,,,,
