participant,session,date,expName,psychopyVersion,OS,frameRate,space_press_continue.keys,space_press_continue.rt,space_press_continue_2.keys,space_press_continue_2.rt,space_press_continue_3.keys,space_press_continue_3.rt,space_press_continue_4.keys,space_press_continue_4.rt,space_press_continue_5.keys,space_press_continue_5.rt,space_press_continue_6.keys,space_press_continue_6.rt,prac_mask_loop_1.thisRepN,prac_mask_loop_1.thisTrialN,prac_mask_loop_1.thisN,prac_mask_loop_1.thisIndex,prac_mask_loop_1.ran,mask_name,prac_mask_loop_2.thisRepN,prac_mask_loop_2.thisTrialN,prac_mask_loop_2.thisN,prac_mask_loop_2.thisIndex,prac_mask_loop_2.ran,mouse_2.x,mouse_2.y,mouse_2.leftButton,mouse_2.midButton,mouse_2.rightButton,mouse_2.clicked_name,similarity,response_time,Pass,mouse_12.x,mouse_12.y,mouse_12.leftButton,mouse_12.midButton,mouse_12.rightButton,mouse_12.clicked_name,prac_loop.thisRepN,prac_loop.thisTrialN,prac_loop.thisN,prac_loop.thisIndex,prac_loop.ran,Pair_type,Image_num,Patch_1_loc,Patch_2_loc,Patch_1_info,Patch_2_info,Patch_1_name,Patch_2_name,mouse_1.x,mouse_1.y,mouse_1.leftButton,mouse_1.midButton,mouse_1.rightButton,mouse_1.time,mouse_1.clicked_name,space_press_continue_7.keys,space_press_continue_7.rt,mask_loop.thisRepN,mask_loop.thisTrialN,mask_loop.thisN,mask_loop.thisIndex,mask_loop.ran,mask_loop_2.thisRepN,mask_loop_2.thisTrialN,mask_loop_2.thisN,mask_loop_2.thisIndex,mask_loop_2.ran,mouse.x,mouse.y,mouse.leftButton,mouse.midButton,mouse.rightButton,mouse.clicked_name,trialNumber,mouse_11.x,mouse_11.y,mouse_11.leftButton,mouse_11.midButton,mouse_11.rightButton,mouse_11.clicked_name,first_pass_loop.thisRepN,first_pass_loop.thisTrialN,first_pass_loop.thisN,first_pass_loop.thisIndex,first_pass_loop.ran,mask_loop_3.thisRepN,mask_loop_3.thisTrialN,mask_loop_3.thisN,mask_loop_3.thisIndex,mask_loop_3.ran,mask_loop_4.thisRepN,mask_loop_4.thisTrialN,mask_loop_4.thisN,mask_loop_4.thisIndex,mask_loop_4.ran,mouse_3.x,mouse_3.y,mouse_3.leftButton,mouse_3.midButton,mouse_3.rightButton,mouse_3.clicked_name,double_pass_loop.thisRepN,double_pass_loop.thisTrialN,double_pass_loop.thisN,double_pass_loop.thisIndex,double_pass_loop.ran,space_exit.keys,space_exit.rt
451889,001,2022-11-20_23h59.58.134,Info_measure_main_exp,2022.2.2,Win32,61.94251734,,,,,,,,,,,,,,,,,,,,,,,,,,,,,,,,,,,,,,,,,,,,,,,,,,,,,,,,,,,,,,,,,,,,,,,,,,,,,,,,,,,,,,,,,,,,,,,,,,,,,,,,,,,,,,,
451889,001,2022-11-20_23h59.58.134,Info_measure_main_exp,2022.2.2,Win32,61.94251734,,,,,,,,,,,,,,,,,,,,,,,,,,,,,,,,,,,,,,,,,,,,,,,,,,,,,,,,,,,,,,,,,,,,,,,,,,,,,,,,,,,,,,,,,,,,,,,,,,,,,,,,,,,,,,,
451889,001,2022-11-20_23h59.58.134,Info_measure_main_exp,2022.2.2,Win32,61.94251734,space,6.2854,,,,,,,,,,,,,,,,,,,,,,,,,,,,,,,,,,,,,,,,,,,,,,,,,,,,,,,,,,,,,,,,,,,,,,,,,,,,,,,,,,,,,,,,,,,,,,,,,,,,,,,,,,,,,
451889,001,2022-11-20_23h59.58.134,Info_measure_main_exp,2022.2.2,Win32,61.94251734,,,space,12.7921,,,,,,,,,,,,,,,,,,,,,,,,,,,,,,,,,,,,,,,,,,,,,,,,,,,,,,,,,,,,,,,,,,,,,,,,,,,,,,,,,,,,,,,,,,,,,,,,,,,,,,,,,,,
451889,001,2022-11-20_23h59.58.134,Info_measure_main_exp,2022.2.2,Win32,61.94251734,,,,,space,7.5853,,,,,,,,,,,,,,,,,,,,,,,,,,,,,,,,,,,,,,,,,,,,,,,,,,,,,,,,,,,,,,,,,,,,,,,,,,,,,,,,,,,,,,,,,,,,,,,,,,,,,,,,,
451889,001,2022-11-20_23h59.58.134,Info_measure_main_exp,2022.2.2,Win32,61.94251734,,,,,,,space,22.1867,,,,,,,,,,,,,,,,,,,,,,,,,,,,,,,,,,,,,,,,,,,,,,,,,,,,,,,,,,,,,,,,,,,,,,,,,,,,,,,,,,,,,,,,,,,,,,,,,,,,,,,
451889,001,2022-11-20_23h59.58.134,Info_measure_main_exp,2022.2.2,Win32,61.94251734,,,,,,,,,space,6.0831,,,,,,,,,,,,,,,,,,,,,,,,,,,,,,,,,,,,,,,,,,,,,,,,,,,,,,,,,,,,,,,,,,,,,,,,,,,,,,,,,,,,,,,,,,,,,,,,,,,,,
451889,001,2022-11-20_23h59.58.134,Info_measure_main_exp,2022.2.2,Win32,61.94251734,,,,,,,,,,,space,5.1182,,,,,,,,,,,,,,,,,,,,,,,,,,,,,,,,,,,,,,,,,,,,,,,,,,,,,,,,,,,,,,,,,,,,,,,,,,,,,,,,,,,,,,,,,,,,,,,,,,,
451889,001,2022-11-20_23h59.58.134,Info_measure_main_exp,2022.2.2,Win32,61.94251734,,,,,,,,,,,,,0,0,0,3,1,masks/mask_004.jpg,,,,,,,,,,,,,,,,,,,,,,,,,,,,,,,,,,,,,,,,,,,,,,,,,,,,,,,,,,,,,,,,,,,,,,,,,,,,,,,,,,,,,,,,,,,,,
451889,001,2022-11-20_23h59.58.134,Info_measure_main_exp,2022.2.2,Win32,61.94251734,,,,,,,,,,,,,0,1,1,1,1,masks/mask_002.jpg,,,,,,,,,,,,,,,,,,,,,,,,,,,,,,,,,,,,,,,,,,,,,,,,,,,,,,,,,,,,,,,,,,,,,,,,,,,,,,,,,,,,,,,,,,,,,
451889,001,2022-11-20_23h59.58.134,Info_measure_main_exp,2022.2.2,Win32,61.94251734,,,,,,,,,,,,,0,2,2,0,1,masks/mask_001.jpg,,,,,,,,,,,,,,,,,,,,,,,,,,,,,,,,,,,,,,,,,,,,,,,,,,,,,,,,,,,,,,,,,,,,,,,,,,,,,,,,,,,,,,,,,,,,,
451889,001,2022-11-20_23h59.58.134,Info_measure_main_exp,2022.2.2,Win32,61.94251734,,,,,,,,,,,,,0,3,3,2,1,masks/mask_003.jpg,,,,,,,,,,,,,,,,,,,,,,,,,,,,,,,,,,,,,,,,,,,,,,,,,,,,,,,,,,,,,,,,,,,,,,,,,,,,,,,,,,,,,,,,,,,,,
451889,001,2022-11-20_23h59.58.134,Info_measure_main_exp,2022.2.2,Win32,61.94251734,,,,,,,,,,,,,0,4,4,4,1,masks/mask_005.jpg,,,,,,,,,,,,,,,,,,,,,,,,,,,,,,,,,,,,,,,,,,,,,,,,,,,,,,,,,,,,,,,,,,,,,,,,,,,,,,,,,,,,,,,,,,,,,
451889,001,2022-11-20_23h59.58.134,Info_measure_main_exp,2022.2.2,Win32,61.94251734,,,,,,,,,,,,,,,,,,masks/mask_002.jpg,0,0,0,1,1,,,,,,,,,,,,,,,,,,,,,,,,,,,,,,,,,,,,,,,,,,,,,,,,,,,,,,,,,,,,,,,,,,,,,,,,,,,,,,,,,,,,,,,,
451889,001,2022-11-20_23h59.58.134,Info_measure_main_exp,2022.2.2,Win32,61.94251734,,,,,,,,,,,,,,,,,,masks/mask_001.jpg,0,1,1,0,1,,,,,,,,,,,,,,,,,,,,,,,,,,,,,,,,,,,,,,,,,,,,,,,,,,,,,,,,,,,,,,,,,,,,,,,,,,,,,,,,,,,,,,,,
451889,001,2022-11-20_23h59.58.134,Info_measure_main_exp,2022.2.2,Win32,61.94251734,,,,,,,,,,,,,,,,,,masks/mask_005.jpg,0,2,2,4,1,,,,,,,,,,,,,,,,,,,,,,,,,,,,,,,,,,,,,,,,,,,,,,,,,,,,,,,,,,,,,,,,,,,,,,,,,,,,,,,,,,,,,,,,
451889,001,2022-11-20_23h59.58.134,Info_measure_main_exp,2022.2.2,Win32,61.94251734,,,,,,,,,,,,,,,,,,masks/mask_003.jpg,0,3,3,2,1,,,,,,,,,,,,,,,,,,,,,,,,,,,,,,,,,,,,,,,,,,,,,,,,,,,,,,,,,,,,,,,,,,,,,,,,,,,,,,,,,,,,,,,,
451889,001,2022-11-20_23h59.58.134,Info_measure_main_exp,2022.2.2,Win32,61.94251734,,,,,,,,,,,,,,,,,,masks/mask_004.jpg,0,4,4,3,1,,,,,,,,,,,,,,,,,,,,,,,,,,,,,,,,,,,,,,,,,,,,,,,,,,,,,,,,,,,,,,,,,,,,,,,,,,,,,,,,,,,,,,,,
451889,001,2022-11-20_23h59.58.134,Info_measure_main_exp,2022.2.2,Win32,61.94251734,,,,,,,,,,,,,,,,,,,,,,,,0.119444444,0.054629601,1,0,0,response1disk,6,65.3987,1,0.009259288,-0.009259288,1,0,0,center_square,0,0,0,0,1,0,131,5,5,2370,2406,prac_patch/patch0002370.jpg,prac_patch/patch0002406.jpg,,,,,,,,,,,,,,,,,,,,,,,,,,,,,,,,,,,,,,,,,,,,,,,,,,,,,,,,,,,,
451889,001,2022-11-20_23h59.58.134,Info_measure_main_exp,2022.2.2,Win32,61.94251734,,,,,,,,,,,,,0,0,0,3,1,masks/mask_004.jpg,,,,,,,,,,,,,,,,,,,,,,,,,,,,,,,,,,,,,,,,,,,,,,,,,,,,,,,,,,,,,,,,,,,,,,,,,,,,,,,,,,,,,,,,,,,,,
451889,001,2022-11-20_23h59.58.134,Info_measure_main_exp,2022.2.2,Win32,61.94251734,,,,,,,,,,,,,0,1,1,1,1,masks/mask_002.jpg,,,,,,,,,,,,,,,,,,,,,,,,,,,,,,,,,,,,,,,,,,,,,,,,,,,,,,,,,,,,,,,,,,,,,,,,,,,,,,,,,,,,,,,,,,,,,
451889,001,2022-11-20_23h59.58.134,Info_measure_main_exp,2022.2.2,Win32,61.94251734,,,,,,,,,,,,,0,2,2,2,1,masks/mask_003.jpg,,,,,,,,,,,,,,,,,,,,,,,,,,,,,,,,,,,,,,,,,,,,,,,,,,,,,,,,,,,,,,,,,,,,,,,,,,,,,,,,,,,,,,,,,,,,,
451889,001,2022-11-20_23h59.58.134,Info_measure_main_exp,2022.2.2,Win32,61.94251734,,,,,,,,,,,,,0,3,3,4,1,masks/mask_005.jpg,,,,,,,,,,,,,,,,,,,,,,,,,,,,,,,,,,,,,,,,,,,,,,,,,,,,,,,,,,,,,,,,,,,,,,,,,,,,,,,,,,,,,,,,,,,,,
451889,001,2022-11-20_23h59.58.134,Info_measure_main_exp,2022.2.2,Win32,61.94251734,,,,,,,,,,,,,0,4,4,0,1,masks/mask_001.jpg,,,,,,,,,,,,,,,,,,,,,,,,,,,,,,,,,,,,,,,,,,,,,,,,,,,,,,,,,,,,,,,,,,,,,,,,,,,,,,,,,,,,,,,,,,,,,
451889,001,2022-11-20_23h59.58.134,Info_measure_main_exp,2022.2.2,Win32,61.94251734,,,,,,,,,,,,,,,,,,masks/mask_001.jpg,0,0,0,0,1,,,,,,,,,,,,,,,,,,,,,,,,,,,,,,,,,,,,,,,,,,,,,,,,,,,,,,,,,,,,,,,,,,,,,,,,,,,,,,,,,,,,,,,,
451889,001,2022-11-20_23h59.58.134,Info_measure_main_exp,2022.2.2,Win32,61.94251734,,,,,,,,,,,,,,,,,,masks/mask_004.jpg,0,1,1,3,1,,,,,,,,,,,,,,,,,,,,,,,,,,,,,,,,,,,,,,,,,,,,,,,,,,,,,,,,,,,,,,,,,,,,,,,,,,,,,,,,,,,,,,,,
451889,001,2022-11-20_23h59.58.134,Info_measure_main_exp,2022.2.2,Win32,61.94251734,,,,,,,,,,,,,,,,,,masks/mask_003.jpg,0,2,2,2,1,,,,,,,,,,,,,,,,,,,,,,,,,,,,,,,,,,,,,,,,,,,,,,,,,,,,,,,,,,,,,,,,,,,,,,,,,,,,,,,,,,,,,,,,
451889,001,2022-11-20_23h59.58.134,Info_measure_main_exp,2022.2.2,Win32,61.94251734,,,,,,,,,,,,,,,,,,masks/mask_005.jpg,0,3,3,4,1,,,,,,,,,,,,,,,,,,,,,,,,,,,,,,,,,,,,,,,,,,,,,,,,,,,,,,,,,,,,,,,,,,,,,,,,,,,,,,,,,,,,,,,,
451889,001,2022-11-20_23h59.58.134,Info_measure_main_exp,2022.2.2,Win32,61.94251734,,,,,,,,,,,,,,,,,,masks/mask_002.jpg,0,4,4,1,1,,,,,,,,,,,,,,,,,,,,,,,,,,,,,,,,,,,,,,,,,,,,,,,,,,,,,,,,,,,,,,,,,,,,,,,,,,,,,,,,,,,,,,,,
451889,001,2022-11-20_23h59.58.134,Info_measure_main_exp,2022.2.2,Win32,61.94251734,,,,,,,,,,,,,,,,,,,,,,,,-0.037036981,0.095370356,1,0,0,response7disk,0,74.5332,1,-0.014814758,0.005555556,1,0,0,center_square,0,1,1,2,1,0,131,5,5,2526,2526,prac_patch/patch0002526.jpg,prac_patch/patch0002526.jpg,,,,,,,,,,,,,,,,,,,,,,,,,,,,,,,,,,,,,,,,,,,,,,,,,,,,,,,,,,,,
451889,001,2022-11-20_23h59.58.134,Info_measure_main_exp,2022.2.2,Win32,61.94251734,,,,,,,,,,,,,0,0,0,1,1,masks/mask_002.jpg,,,,,,,,,,,,,,,,,,,,,,,,,,,,,,,,,,,,,,,,,,,,,,,,,,,,,,,,,,,,,,,,,,,,,,,,,,,,,,,,,,,,,,,,,,,,,
451889,001,2022-11-20_23h59.58.134,Info_measure_main_exp,2022.2.2,Win32,61.94251734,,,,,,,,,,,,,0,1,1,4,1,masks/mask_005.jpg,,,,,,,,,,,,,,,,,,,,,,,,,,,,,,,,,,,,,,,,,,,,,,,,,,,,,,,,,,,,,,,,,,,,,,,,,,,,,,,,,,,,,,,,,,,,,
451889,001,2022-11-20_23h59.58.134,Info_measure_main_exp,2022.2.2,Win32,61.94251734,,,,,,,,,,,,,0,2,2,3,1,masks/mask_004.jpg,,,,,,,,,,,,,,,,,,,,,,,,,,,,,,,,,,,,,,,,,,,,,,,,,,,,,,,,,,,,,,,,,,,,,,,,,,,,,,,,,,,,,,,,,,,,,
451889,001,2022-11-20_23h59.58.134,Info_measure_main_exp,2022.2.2,Win32,61.94251734,,,,,,,,,,,,,0,3,3,2,1,masks/mask_003.jpg,,,,,,,,,,,,,,,,,,,,,,,,,,,,,,,,,,,,,,,,,,,,,,,,,,,,,,,,,,,,,,,,,,,,,,,,,,,,,,,,,,,,,,,,,,,,,
451889,001,2022-11-20_23h59.58.134,Info_measure_main_exp,2022.2.2,Win32,61.94251734,,,,,,,,,,,,,0,4,4,0,1,masks/mask_001.jpg,,,,,,,,,,,,,,,,,,,,,,,,,,,,,,,,,,,,,,,,,,,,,,,,,,,,,,,,,,,,,,,,,,,,,,,,,,,,,,,,,,,,,,,,,,,,,
451889,001,2022-11-20_23h59.58.134,Info_measure_main_exp,2022.2.2,Win32,61.94251734,,,,,,,,,,,,,,,,,,masks/mask_005.jpg,0,0,0,4,1,,,,,,,,,,,,,,,,,,,,,,,,,,,,,,,,,,,,,,,,,,,,,,,,,,,,,,,,,,,,,,,,,,,,,,,,,,,,,,,,,,,,,,,,
451889,001,2022-11-20_23h59.58.134,Info_measure_main_exp,2022.2.2,Win32,61.94251734,,,,,,,,,,,,,,,,,,masks/mask_001.jpg,0,1,1,0,1,,,,,,,,,,,,,,,,,,,,,,,,,,,,,,,,,,,,,,,,,,,,,,,,,,,,,,,,,,,,,,,,,,,,,,,,,,,,,,,,,,,,,,,,
451889,001,2022-11-20_23h59.58.134,Info_measure_main_exp,2022.2.2,Win32,61.94251734,,,,,,,,,,,,,,,,,,masks/mask_004.jpg,0,2,2,3,1,,,,,,,,,,,,,,,,,,,,,,,,,,,,,,,,,,,,,,,,,,,,,,,,,,,,,,,,,,,,,,,,,,,,,,,,,,,,,,,,,,,,,,,,
451889,001,2022-11-20_23h59.58.134,Info_measure_main_exp,2022.2.2,Win32,61.94251734,,,,,,,,,,,,,,,,,,masks/mask_002.jpg,0,3,3,1,1,,,,,,,,,,,,,,,,,,,,,,,,,,,,,,,,,,,,,,,,,,,,,,,,,,,,,,,,,,,,,,,,,,,,,,,,,,,,,,,,,,,,,,,,
451889,001,2022-11-20_23h59.58.134,Info_measure_main_exp,2022.2.2,Win32,61.94251734,,,,,,,,,,,,,,,,,,masks/mask_003.jpg,0,4,4,2,1,,,,,,,,,,,,,,,,,,,,,,,,,,,,,,,,,,,,,,,,,,,,,,,,,,,,,,,,,,,,,,,,,,,,,,,,,,,,,,,,,,,,,,,,
451889,001,2022-11-20_23h59.58.134,Info_measure_main_exp,2022.2.2,Win32,61.94251734,,,,,,,,,,,,,,,,,,,,,,,,0.03148151,-0.115740755,1,0,0,response3disk,4,83.9068,1,0.004629686,0.010185157,1,0,0,center_square,0,2,2,1,1,0,131,5,5,2514,2490,prac_patch/patch0002514.jpg,prac_patch/patch0002490.jpg,,,,,,,,,,,,,,,,,,,,,,,,,,,,,,,,,,,,,,,,,,,,,,,,,,,,,,,,,,,,
451889,001,2022-11-20_23h59.58.134,Info_measure_main_exp,2022.2.2,Win32,61.94251734,,,,,,,,,,,,,,,,,,,,,,,,,,,,,,,,,,,,,,,,,,,,,,,,,,,,,,,,,,,space,2.3342,,,,,,,,,,,,,,,,,,,,,,,,,,,,,,,,,,,,,,,,,,,,,,,,,,,
451889,001,2022-11-20_23h59.58.134,Info_measure_main_exp,2022.2.2,Win32,61.94251734,,,,,,,,,,,,,,,,,,masks/mask_005.jpg,,,,,,,,,,,,,,,,,,,,,,,,,,,,,,,,,,,,,,,,,,,0,0,0,4,1,,,,,,,,,,,,,,,,,,,,,,,,,,,,,,,,,,,,,,,,,,,,,,
451889,001,2022-11-20_23h59.58.134,Info_measure_main_exp,2022.2.2,Win32,61.94251734,,,,,,,,,,,,,,,,,,masks/mask_002.jpg,,,,,,,,,,,,,,,,,,,,,,,,,,,,,,,,,,,,,,,,,,,0,1,1,1,1,,,,,,,,,,,,,,,,,,,,,,,,,,,,,,,,,,,,,,,,,,,,,,
451889,001,2022-11-20_23h59.58.134,Info_measure_main_exp,2022.2.2,Win32,61.94251734,,,,,,,,,,,,,,,,,,masks/mask_001.jpg,,,,,,,,,,,,,,,,,,,,,,,,,,,,,,,,,,,,,,,,,,,0,2,2,0,1,,,,,,,,,,,,,,,,,,,,,,,,,,,,,,,,,,,,,,,,,,,,,,
451889,001,2022-11-20_23h59.58.134,Info_measure_main_exp,2022.2.2,Win32,61.94251734,,,,,,,,,,,,,,,,,,masks/mask_004.jpg,,,,,,,,,,,,,,,,,,,,,,,,,,,,,,,,,,,,,,,,,,,0,3,3,3,1,,,,,,,,,,,,,,,,,,,,,,,,,,,,,,,,,,,,,,,,,,,,,,
451889,001,2022-11-20_23h59.58.134,Info_measure_main_exp,2022.2.2,Win32,61.94251734,,,,,,,,,,,,,,,,,,masks/mask_003.jpg,,,,,,,,,,,,,,,,,,,,,,,,,,,,,,,,,,,,,,,,,,,0,4,4,2,1,,,,,,,,,,,,,,,,,,,,,,,,,,,,,,,,,,,,,,,,,,,,,,
451889,001,2022-11-20_23h59.58.134,Info_measure_main_exp,2022.2.2,Win32,61.94251734,,,,,,,,,,,,,,,,,,masks/mask_003.jpg,,,,,,,,,,,,,,,,,,,,,,,,,,,,,,,,,,,,,,,,,,,,,,,,0,0,0,2,1,,,,,,,,,,,,,,,,,,,,,,,,,,,,,,,,,,,,,,,,,
451889,001,2022-11-20_23h59.58.134,Info_measure_main_exp,2022.2.2,Win32,61.94251734,,,,,,,,,,,,,,,,,,masks/mask_005.jpg,,,,,,,,,,,,,,,,,,,,,,,,,,,,,,,,,,,,,,,,,,,,,,,,0,1,1,4,1,,,,,,,,,,,,,,,,,,,,,,,,,,,,,,,,,,,,,,,,,
451889,001,2022-11-20_23h59.58.134,Info_measure_main_exp,2022.2.2,Win32,61.94251734,,,,,,,,,,,,,,,,,,masks/mask_001.jpg,,,,,,,,,,,,,,,,,,,,,,,,,,,,,,,,,,,,,,,,,,,,,,,,0,2,2,0,1,,,,,,,,,,,,,,,,,,,,,,,,,,,,,,,,,,,,,,,,,
451889,001,2022-11-20_23h59.58.134,Info_measure_main_exp,2022.2.2,Win32,61.94251734,,,,,,,,,,,,,,,,,,masks/mask_004.jpg,,,,,,,,,,,,,,,,,,,,,,,,,,,,,,,,,,,,,,,,,,,,,,,,0,3,3,3,1,,,,,,,,,,,,,,,,,,,,,,,,,,,,,,,,,,,,,,,,,
451889,001,2022-11-20_23h59.58.134,Info_measure_main_exp,2022.2.2,Win32,61.94251734,,,,,,,,,,,,,,,,,,masks/mask_002.jpg,,,,,,,,,,,,,,,,,,,,,,,,,,,,,,,,,,,,,,,,,,,,,,,,0,4,4,1,1,,,,,,,,,,,,,,,,,,,,,,,,,,,,,,,,,,,,,,,,,
451889,001,2022-11-20_23h59.58.134,Info_measure_main_exp,2022.2.2,Win32,61.94251734,,,,,,,,,,,,,,,,,,,,,,,,,,,,,,4,4.6996,1,,,,,,,,,,,,1,131,5,5,1,1986,present_patch/cong_131_5_a.jpg,absent_patch/patch0001986.jpg,,,,,,,,,,,,,,,,,,,,0.078703732,-0.086111111,1,0,0,response3disk,1,0.010185242,0.004629601,1,0,0,center_square,0,0,0,106,1,,,,,,,,,,,,,,,,,,,,,,,
451889,001,2022-11-20_23h59.58.134,Info_measure_main_exp,2022.2.2,Win32,61.94251734,,,,,,,,,,,,,,,,,,masks/mask_003.jpg,,,,,,,,,,,,,,,,,,,,,,,,,,,,,,,,,,,,,,,,,,,0,0,0,2,1,,,,,,,,,,,,,,,,,,,,,,,,,,,,,,,,,,,,,,,,,,,,,,
451889,001,2022-11-20_23h59.58.134,Info_measure_main_exp,2022.2.2,Win32,61.94251734,,,,,,,,,,,,,,,,,,masks/mask_004.jpg,,,,,,,,,,,,,,,,,,,,,,,,,,,,,,,,,,,,,,,,,,,0,1,1,3,1,,,,,,,,,,,,,,,,,,,,,,,,,,,,,,,,,,,,,,,,,,,,,,
451889,001,2022-11-20_23h59.58.134,Info_measure_main_exp,2022.2.2,Win32,61.94251734,,,,,,,,,,,,,,,,,,masks/mask_002.jpg,,,,,,,,,,,,,,,,,,,,,,,,,,,,,,,,,,,,,,,,,,,0,2,2,1,1,,,,,,,,,,,,,,,,,,,,,,,,,,,,,,,,,,,,,,,,,,,,,,
451889,001,2022-11-20_23h59.58.134,Info_measure_main_exp,2022.2.2,Win32,61.94251734,,,,,,,,,,,,,,,,,,masks/mask_001.jpg,,,,,,,,,,,,,,,,,,,,,,,,,,,,,,,,,,,,,,,,,,,0,3,3,0,1,,,,,,,,,,,,,,,,,,,,,,,,,,,,,,,,,,,,,,,,,,,,,,
451889,001,2022-11-20_23h59.58.134,Info_measure_main_exp,2022.2.2,Win32,61.94251734,,,,,,,,,,,,,,,,,,masks/mask_005.jpg,,,,,,,,,,,,,,,,,,,,,,,,,,,,,,,,,,,,,,,,,,,0,4,4,4,1,,,,,,,,,,,,,,,,,,,,,,,,,,,,,,,,,,,,,,,,,,,,,,
451889,001,2022-11-20_23h59.58.134,Info_measure_main_exp,2022.2.2,Win32,61.94251734,,,,,,,,,,,,,,,,,,masks/mask_001.jpg,,,,,,,,,,,,,,,,,,,,,,,,,,,,,,,,,,,,,,,,,,,,,,,,0,0,0,0,1,,,,,,,,,,,,,,,,,,,,,,,,,,,,,,,,,,,,,,,,,
451889,001,2022-11-20_23h59.58.134,Info_measure_main_exp,2022.2.2,Win32,61.94251734,,,,,,,,,,,,,,,,,,masks/mask_003.jpg,,,,,,,,,,,,,,,,,,,,,,,,,,,,,,,,,,,,,,,,,,,,,,,,0,1,1,2,1,,,,,,,,,,,,,,,,,,,,,,,,,,,,,,,,,,,,,,,,,
451889,001,2022-11-20_23h59.58.134,Info_measure_main_exp,2022.2.2,Win32,61.94251734,,,,,,,,,,,,,,,,,,masks/mask_005.jpg,,,,,,,,,,,,,,,,,,,,,,,,,,,,,,,,,,,,,,,,,,,,,,,,0,2,2,4,1,,,,,,,,,,,,,,,,,,,,,,,,,,,,,,,,,,,,,,,,,
451889,001,2022-11-20_23h59.58.134,Info_measure_main_exp,2022.2.2,Win32,61.94251734,,,,,,,,,,,,,,,,,,masks/mask_002.jpg,,,,,,,,,,,,,,,,,,,,,,,,,,,,,,,,,,,,,,,,,,,,,,,,0,3,3,1,1,,,,,,,,,,,,,,,,,,,,,,,,,,,,,,,,,,,,,,,,,
451889,001,2022-11-20_23h59.58.134,Info_measure_main_exp,2022.2.2,Win32,61.94251734,,,,,,,,,,,,,,,,,,masks/mask_004.jpg,,,,,,,,,,,,,,,,,,,,,,,,,,,,,,,,,,,,,,,,,,,,,,,,0,4,4,3,1,,,,,,,,,,,,,,,,,,,,,,,,,,,,,,,,,,,,,,,,,
451889,001,2022-11-20_23h59.58.134,Info_measure_main_exp,2022.2.2,Win32,61.94251734,,,,,,,,,,,,,,,,,,,,,,,,,,,,,,0,0.7825,1,,,,,,,,,,,,0,131,5,5,2178,2178,absent_patch/patch0002178.jpg,absent_patch/patch0002178.jpg,,,,,,,,,,,,,,,,,,,,-0.078703647,0.141666667,1,0,0,response7disk,2,0.000925954,0,1,0,0,center_square,0,1,1,98,1,,,,,,,,,,,,,,,,,,,,,,,
451889,001,2022-11-20_23h59.58.134,Info_measure_main_exp,2022.2.2,Win32,61.94251734,,,,,,,,,,,,,,,,,,masks/mask_001.jpg,,,,,,,,,,,,,,,,,,,,,,,,,,,,,,,,,,,,,,,,,,,0,0,0,0,1,,,,,,,,,,,,,,,,,,,,,,,,,,,,,,,,,,,,,,,,,,,,,,
451889,001,2022-11-20_23h59.58.134,Info_measure_main_exp,2022.2.2,Win32,61.94251734,,,,,,,,,,,,,,,,,,masks/mask_003.jpg,,,,,,,,,,,,,,,,,,,,,,,,,,,,,,,,,,,,,,,,,,,0,1,1,2,1,,,,,,,,,,,,,,,,,,,,,,,,,,,,,,,,,,,,,,,,,,,,,,
451889,001,2022-11-20_23h59.58.134,Info_measure_main_exp,2022.2.2,Win32,61.94251734,,,,,,,,,,,,,,,,,,masks/mask_002.jpg,,,,,,,,,,,,,,,,,,,,,,,,,,,,,,,,,,,,,,,,,,,0,2,2,1,1,,,,,,,,,,,,,,,,,,,,,,,,,,,,,,,,,,,,,,,,,,,,,,
451889,001,2022-11-20_23h59.58.134,Info_measure_main_exp,2022.2.2,Win32,61.94251734,,,,,,,,,,,,,,,,,,masks/mask_005.jpg,,,,,,,,,,,,,,,,,,,,,,,,,,,,,,,,,,,,,,,,,,,0,3,3,4,1,,,,,,,,,,,,,,,,,,,,,,,,,,,,,,,,,,,,,,,,,,,,,,
451889,001,2022-11-20_23h59.58.134,Info_measure_main_exp,2022.2.2,Win32,61.94251734,,,,,,,,,,,,,,,,,,masks/mask_004.jpg,,,,,,,,,,,,,,,,,,,,,,,,,,,,,,,,,,,,,,,,,,,0,4,4,3,1,,,,,,,,,,,,,,,,,,,,,,,,,,,,,,,,,,,,,,,,,,,,,,
451889,001,2022-11-20_23h59.58.134,Info_measure_main_exp,2022.2.2,Win32,61.94251734,,,,,,,,,,,,,,,,,,masks/mask_001.jpg,,,,,,,,,,,,,,,,,,,,,,,,,,,,,,,,,,,,,,,,,,,,,,,,0,0,0,0,1,,,,,,,,,,,,,,,,,,,,,,,,,,,,,,,,,,,,,,,,,
451889,001,2022-11-20_23h59.58.134,Info_measure_main_exp,2022.2.2,Win32,61.94251734,,,,,,,,,,,,,,,,,,masks/mask_005.jpg,,,,,,,,,,,,,,,,,,,,,,,,,,,,,,,,,,,,,,,,,,,,,,,,0,1,1,4,1,,,,,,,,,,,,,,,,,,,,,,,,,,,,,,,,,,,,,,,,,
451889,001,2022-11-20_23h59.58.134,Info_measure_main_exp,2022.2.2,Win32,61.94251734,,,,,,,,,,,,,,,,,,masks/mask_004.jpg,,,,,,,,,,,,,,,,,,,,,,,,,,,,,,,,,,,,,,,,,,,,,,,,0,2,2,3,1,,,,,,,,,,,,,,,,,,,,,,,,,,,,,,,,,,,,,,,,,
451889,001,2022-11-20_23h59.58.134,Info_measure_main_exp,2022.2.2,Win32,61.94251734,,,,,,,,,,,,,,,,,,masks/mask_002.jpg,,,,,,,,,,,,,,,,,,,,,,,,,,,,,,,,,,,,,,,,,,,,,,,,0,3,3,1,1,,,,,,,,,,,,,,,,,,,,,,,,,,,,,,,,,,,,,,,,,
451889,001,2022-11-20_23h59.58.134,Info_measure_main_exp,2022.2.2,Win32,61.94251734,,,,,,,,,,,,,,,,,,masks/mask_003.jpg,,,,,,,,,,,,,,,,,,,,,,,,,,,,,,,,,,,,,,,,,,,,,,,,0,4,4,2,1,,,,,,,,,,,,,,,,,,,,,,,,,,,,,,,,,,,,,,,,,
451889,001,2022-11-20_23h59.58.134,Info_measure_main_exp,2022.2.2,Win32,61.94251734,,,,,,,,,,,,,,,,,,,,,,,,,,,,,,3,1.7496,1,,,,,,,,,,,,0,131,5,5,1974,2142,absent_patch/patch0001974.jpg,absent_patch/patch0002142.jpg,,,,,,,,,,,,,,,,,,,,-0.05,-0.109259288,1,0,0,response5disk,3,0.004629686,0.006481467,1,0,0,center_square,0,2,2,38,1,,,,,,,,,,,,,,,,,,,,,,,
451889,001,2022-11-20_23h59.58.134,Info_measure_main_exp,2022.2.2,Win32,61.94251734,,,,,,,,,,,,,,,,,,masks/mask_003.jpg,,,,,,,,,,,,,,,,,,,,,,,,,,,,,,,,,,,,,,,,,,,0,0,0,2,1,,,,,,,,,,,,,,,,,,,,,,,,,,,,,,,,,,,,,,,,,,,,,,
451889,001,2022-11-20_23h59.58.134,Info_measure_main_exp,2022.2.2,Win32,61.94251734,,,,,,,,,,,,,,,,,,masks/mask_002.jpg,,,,,,,,,,,,,,,,,,,,,,,,,,,,,,,,,,,,,,,,,,,0,1,1,1,1,,,,,,,,,,,,,,,,,,,,,,,,,,,,,,,,,,,,,,,,,,,,,,
451889,001,2022-11-20_23h59.58.134,Info_measure_main_exp,2022.2.2,Win32,61.94251734,,,,,,,,,,,,,,,,,,masks/mask_001.jpg,,,,,,,,,,,,,,,,,,,,,,,,,,,,,,,,,,,,,,,,,,,0,2,2,0,1,,,,,,,,,,,,,,,,,,,,,,,,,,,,,,,,,,,,,,,,,,,,,,
451889,001,2022-11-20_23h59.58.134,Info_measure_main_exp,2022.2.2,Win32,61.94251734,,,,,,,,,,,,,,,,,,masks/mask_004.jpg,,,,,,,,,,,,,,,,,,,,,,,,,,,,,,,,,,,,,,,,,,,0,3,3,3,1,,,,,,,,,,,,,,,,,,,,,,,,,,,,,,,,,,,,,,,,,,,,,,
451889,001,2022-11-20_23h59.58.134,Info_measure_main_exp,2022.2.2,Win32,61.94251734,,,,,,,,,,,,,,,,,,masks/mask_005.jpg,,,,,,,,,,,,,,,,,,,,,,,,,,,,,,,,,,,,,,,,,,,0,4,4,4,1,,,,,,,,,,,,,,,,,,,,,,,,,,,,,,,,,,,,,,,,,,,,,,
451889,001,2022-11-20_23h59.58.134,Info_measure_main_exp,2022.2.2,Win32,61.94251734,,,,,,,,,,,,,,,,,,masks/mask_001.jpg,,,,,,,,,,,,,,,,,,,,,,,,,,,,,,,,,,,,,,,,,,,,,,,,0,0,0,0,1,,,,,,,,,,,,,,,,,,,,,,,,,,,,,,,,,,,,,,,,,
451889,001,2022-11-20_23h59.58.134,Info_measure_main_exp,2022.2.2,Win32,61.94251734,,,,,,,,,,,,,,,,,,masks/mask_002.jpg,,,,,,,,,,,,,,,,,,,,,,,,,,,,,,,,,,,,,,,,,,,,,,,,0,1,1,1,1,,,,,,,,,,,,,,,,,,,,,,,,,,,,,,,,,,,,,,,,,
451889,001,2022-11-20_23h59.58.134,Info_measure_main_exp,2022.2.2,Win32,61.94251734,,,,,,,,,,,,,,,,,,masks/mask_003.jpg,,,,,,,,,,,,,,,,,,,,,,,,,,,,,,,,,,,,,,,,,,,,,,,,0,2,2,2,1,,,,,,,,,,,,,,,,,,,,,,,,,,,,,,,,,,,,,,,,,
451889,001,2022-11-20_23h59.58.134,Info_measure_main_exp,2022.2.2,Win32,61.94251734,,,,,,,,,,,,,,,,,,masks/mask_004.jpg,,,,,,,,,,,,,,,,,,,,,,,,,,,,,,,,,,,,,,,,,,,,,,,,0,3,3,3,1,,,,,,,,,,,,,,,,,,,,,,,,,,,,,,,,,,,,,,,,,
451889,001,2022-11-20_23h59.58.134,Info_measure_main_exp,2022.2.2,Win32,61.94251734,,,,,,,,,,,,,,,,,,masks/mask_005.jpg,,,,,,,,,,,,,,,,,,,,,,,,,,,,,,,,,,,,,,,,,,,,,,,,0,4,4,4,1,,,,,,,,,,,,,,,,,,,,,,,,,,,,,,,,,,,,,,,,,
451889,001,2022-11-20_23h59.58.134,Info_measure_main_exp,2022.2.2,Win32,61.94251734,,,,,,,,,,,,,,,,,,,,,,,,,,,,,,6,0.806,1,,,,,,,,,,,,0,131,5,5,2166,2298,absent_patch/patch0002166.jpg,absent_patch/patch0002298.jpg,,,,,,,,,,,,,,,,,,,,0.08148151,0.049074046,1,0,0,response1disk,4,-0.007407379,0.007407379,1,0,0,center_square,0,3,3,52,1,,,,,,,,,,,,,,,,,,,,,,,
451889,001,2022-11-20_23h59.58.134,Info_measure_main_exp,2022.2.2,Win32,61.94251734,,,,,,,,,,,,,,,,,,masks/mask_004.jpg,,,,,,,,,,,,,,,,,,,,,,,,,,,,,,,,,,,,,,,,,,,0,0,0,3,1,,,,,,,,,,,,,,,,,,,,,,,,,,,,,,,,,,,,,,,,,,,,,,
451889,001,2022-11-20_23h59.58.134,Info_measure_main_exp,2022.2.2,Win32,61.94251734,,,,,,,,,,,,,,,,,,masks/mask_003.jpg,,,,,,,,,,,,,,,,,,,,,,,,,,,,,,,,,,,,,,,,,,,0,1,1,2,1,,,,,,,,,,,,,,,,,,,,,,,,,,,,,,,,,,,,,,,,,,,,,,
451889,001,2022-11-20_23h59.58.134,Info_measure_main_exp,2022.2.2,Win32,61.94251734,,,,,,,,,,,,,,,,,,masks/mask_002.jpg,,,,,,,,,,,,,,,,,,,,,,,,,,,,,,,,,,,,,,,,,,,0,2,2,1,1,,,,,,,,,,,,,,,,,,,,,,,,,,,,,,,,,,,,,,,,,,,,,,
451889,001,2022-11-20_23h59.58.134,Info_measure_main_exp,2022.2.2,Win32,61.94251734,,,,,,,,,,,,,,,,,,masks/mask_005.jpg,,,,,,,,,,,,,,,,,,,,,,,,,,,,,,,,,,,,,,,,,,,0,3,3,4,1,,,,,,,,,,,,,,,,,,,,,,,,,,,,,,,,,,,,,,,,,,,,,,
451889,001,2022-11-20_23h59.58.134,Info_measure_main_exp,2022.2.2,Win32,61.94251734,,,,,,,,,,,,,,,,,,masks/mask_001.jpg,,,,,,,,,,,,,,,,,,,,,,,,,,,,,,,,,,,,,,,,,,,0,4,4,0,1,,,,,,,,,,,,,,,,,,,,,,,,,,,,,,,,,,,,,,,,,,,,,,
451889,001,2022-11-20_23h59.58.134,Info_measure_main_exp,2022.2.2,Win32,61.94251734,,,,,,,,,,,,,,,,,,masks/mask_003.jpg,,,,,,,,,,,,,,,,,,,,,,,,,,,,,,,,,,,,,,,,,,,,,,,,0,0,0,2,1,,,,,,,,,,,,,,,,,,,,,,,,,,,,,,,,,,,,,,,,,
451889,001,2022-11-20_23h59.58.134,Info_measure_main_exp,2022.2.2,Win32,61.94251734,,,,,,,,,,,,,,,,,,masks/mask_001.jpg,,,,,,,,,,,,,,,,,,,,,,,,,,,,,,,,,,,,,,,,,,,,,,,,0,1,1,0,1,,,,,,,,,,,,,,,,,,,,,,,,,,,,,,,,,,,,,,,,,
451889,001,2022-11-20_23h59.58.134,Info_measure_main_exp,2022.2.2,Win32,61.94251734,,,,,,,,,,,,,,,,,,masks/mask_005.jpg,,,,,,,,,,,,,,,,,,,,,,,,,,,,,,,,,,,,,,,,,,,,,,,,0,2,2,4,1,,,,,,,,,,,,,,,,,,,,,,,,,,,,,,,,,,,,,,,,,
451889,001,2022-11-20_23h59.58.134,Info_measure_main_exp,2022.2.2,Win32,61.94251734,,,,,,,,,,,,,,,,,,masks/mask_002.jpg,,,,,,,,,,,,,,,,,,,,,,,,,,,,,,,,,,,,,,,,,,,,,,,,0,3,3,1,1,,,,,,,,,,,,,,,,,,,,,,,,,,,,,,,,,,,,,,,,,
451889,001,2022-11-20_23h59.58.134,Info_measure_main_exp,2022.2.2,Win32,61.94251734,,,,,,,,,,,,,,,,,,masks/mask_004.jpg,,,,,,,,,,,,,,,,,,,,,,,,,,,,,,,,,,,,,,,,,,,,,,,,0,4,4,3,1,,,,,,,,,,,,,,,,,,,,,,,,,,,,,,,,,,,,,,,,,
451889,001,2022-11-20_23h59.58.134,Info_measure_main_exp,2022.2.2,Win32,61.94251734,,,,,,,,,,,,,,,,,,,,,,,,,,,,,,0,0.6731,1,,,,,,,,,,,,0,131,5,5,2154,2154,absent_patch/patch0002154.jpg,absent_patch/patch0002154.jpg,,,,,,,,,,,,,,,,,,,,-0.051851824,0.107407379,1,0,0,response7disk,5,-0.006481425,0.007407379,1,0,0,center_square,0,4,4,89,1,,,,,,,,,,,,,,,,,,,,,,,
451889,001,2022-11-20_23h59.58.134,Info_measure_main_exp,2022.2.2,Win32,61.94251734,,,,,,,,,,,,,,,,,,masks/mask_003.jpg,,,,,,,,,,,,,,,,,,,,,,,,,,,,,,,,,,,,,,,,,,,0,0,0,2,1,,,,,,,,,,,,,,,,,,,,,,,,,,,,,,,,,,,,,,,,,,,,,,
451889,001,2022-11-20_23h59.58.134,Info_measure_main_exp,2022.2.2,Win32,61.94251734,,,,,,,,,,,,,,,,,,masks/mask_005.jpg,,,,,,,,,,,,,,,,,,,,,,,,,,,,,,,,,,,,,,,,,,,0,1,1,4,1,,,,,,,,,,,,,,,,,,,,,,,,,,,,,,,,,,,,,,,,,,,,,,
451889,001,2022-11-20_23h59.58.134,Info_measure_main_exp,2022.2.2,Win32,61.94251734,,,,,,,,,,,,,,,,,,masks/mask_001.jpg,,,,,,,,,,,,,,,,,,,,,,,,,,,,,,,,,,,,,,,,,,,0,2,2,0,1,,,,,,,,,,,,,,,,,,,,,,,,,,,,,,,,,,,,,,,,,,,,,,
451889,001,2022-11-20_23h59.58.134,Info_measure_main_exp,2022.2.2,Win32,61.94251734,,,,,,,,,,,,,,,,,,masks/mask_004.jpg,,,,,,,,,,,,,,,,,,,,,,,,,,,,,,,,,,,,,,,,,,,0,3,3,3,1,,,,,,,,,,,,,,,,,,,,,,,,,,,,,,,,,,,,,,,,,,,,,,
451889,001,2022-11-20_23h59.58.134,Info_measure_main_exp,2022.2.2,Win32,61.94251734,,,,,,,,,,,,,,,,,,masks/mask_002.jpg,,,,,,,,,,,,,,,,,,,,,,,,,,,,,,,,,,,,,,,,,,,0,4,4,1,1,,,,,,,,,,,,,,,,,,,,,,,,,,,,,,,,,,,,,,,,,,,,,,
451889,001,2022-11-20_23h59.58.134,Info_measure_main_exp,2022.2.2,Win32,61.94251734,,,,,,,,,,,,,,,,,,masks/mask_003.jpg,,,,,,,,,,,,,,,,,,,,,,,,,,,,,,,,,,,,,,,,,,,,,,,,0,0,0,2,1,,,,,,,,,,,,,,,,,,,,,,,,,,,,,,,,,,,,,,,,,
451889,001,2022-11-20_23h59.58.134,Info_measure_main_exp,2022.2.2,Win32,61.94251734,,,,,,,,,,,,,,,,,,masks/mask_001.jpg,,,,,,,,,,,,,,,,,,,,,,,,,,,,,,,,,,,,,,,,,,,,,,,,0,1,1,0,1,,,,,,,,,,,,,,,,,,,,,,,,,,,,,,,,,,,,,,,,,
451889,001,2022-11-20_23h59.58.134,Info_measure_main_exp,2022.2.2,Win32,61.94251734,,,,,,,,,,,,,,,,,,masks/mask_005.jpg,,,,,,,,,,,,,,,,,,,,,,,,,,,,,,,,,,,,,,,,,,,,,,,,0,2,2,4,1,,,,,,,,,,,,,,,,,,,,,,,,,,,,,,,,,,,,,,,,,
451889,001,2022-11-20_23h59.58.134,Info_measure_main_exp,2022.2.2,Win32,61.94251734,,,,,,,,,,,,,,,,,,masks/mask_004.jpg,,,,,,,,,,,,,,,,,,,,,,,,,,,,,,,,,,,,,,,,,,,,,,,,0,3,3,3,1,,,,,,,,,,,,,,,,,,,,,,,,,,,,,,,,,,,,,,,,,
451889,001,2022-11-20_23h59.58.134,Info_measure_main_exp,2022.2.2,Win32,61.94251734,,,,,,,,,,,,,,,,,,masks/mask_002.jpg,,,,,,,,,,,,,,,,,,,,,,,,,,,,,,,,,,,,,,,,,,,,,,,,0,4,4,1,1,,,,,,,,,,,,,,,,,,,,,,,,,,,,,,,,,,,,,,,,,
451889,001,2022-11-20_23h59.58.134,Info_measure_main_exp,2022.2.2,Win32,61.94251734,,,,,,,,,,,,,,,,,,,,,,,,,,,,,,5,2.0828,1,,,,,,,,,,,,0,131,5,5,2178,2166,absent_patch/patch0002178.jpg,absent_patch/patch0002166.jpg,,,,,,,,,,,,,,,,,,,,0.120370399,-0.058333333,1,0,0,response3disk,6,0.010185242,0.002777778,1,0,0,center_square,0,5,5,72,1,,,,,,,,,,,,,,,,,,,,,,,
451889,001,2022-11-20_23h59.58.134,Info_measure_main_exp,2022.2.2,Win32,61.94251734,,,,,,,,,,,,,,,,,,masks/mask_005.jpg,,,,,,,,,,,,,,,,,,,,,,,,,,,,,,,,,,,,,,,,,,,0,0,0,4,1,,,,,,,,,,,,,,,,,,,,,,,,,,,,,,,,,,,,,,,,,,,,,,
451889,001,2022-11-20_23h59.58.134,Info_measure_main_exp,2022.2.2,Win32,61.94251734,,,,,,,,,,,,,,,,,,masks/mask_003.jpg,,,,,,,,,,,,,,,,,,,,,,,,,,,,,,,,,,,,,,,,,,,0,1,1,2,1,,,,,,,,,,,,,,,,,,,,,,,,,,,,,,,,,,,,,,,,,,,,,,
451889,001,2022-11-20_23h59.58.134,Info_measure_main_exp,2022.2.2,Win32,61.94251734,,,,,,,,,,,,,,,,,,masks/mask_002.jpg,,,,,,,,,,,,,,,,,,,,,,,,,,,,,,,,,,,,,,,,,,,0,2,2,1,1,,,,,,,,,,,,,,,,,,,,,,,,,,,,,,,,,,,,,,,,,,,,,,
451889,001,2022-11-20_23h59.58.134,Info_measure_main_exp,2022.2.2,Win32,61.94251734,,,,,,,,,,,,,,,,,,masks/mask_001.jpg,,,,,,,,,,,,,,,,,,,,,,,,,,,,,,,,,,,,,,,,,,,0,3,3,0,1,,,,,,,,,,,,,,,,,,,,,,,,,,,,,,,,,,,,,,,,,,,,,,
451889,001,2022-11-20_23h59.58.134,Info_measure_main_exp,2022.2.2,Win32,61.94251734,,,,,,,,,,,,,,,,,,masks/mask_004.jpg,,,,,,,,,,,,,,,,,,,,,,,,,,,,,,,,,,,,,,,,,,,0,4,4,3,1,,,,,,,,,,,,,,,,,,,,,,,,,,,,,,,,,,,,,,,,,,,,,,
451889,001,2022-11-20_23h59.58.134,Info_measure_main_exp,2022.2.2,Win32,61.94251734,,,,,,,,,,,,,,,,,,masks/mask_001.jpg,,,,,,,,,,,,,,,,,,,,,,,,,,,,,,,,,,,,,,,,,,,,,,,,0,0,0,0,1,,,,,,,,,,,,,,,,,,,,,,,,,,,,,,,,,,,,,,,,,
451889,001,2022-11-20_23h59.58.134,Info_measure_main_exp,2022.2.2,Win32,61.94251734,,,,,,,,,,,,,,,,,,masks/mask_005.jpg,,,,,,,,,,,,,,,,,,,,,,,,,,,,,,,,,,,,,,,,,,,,,,,,0,1,1,4,1,,,,,,,,,,,,,,,,,,,,,,,,,,,,,,,,,,,,,,,,,
451889,001,2022-11-20_23h59.58.134,Info_measure_main_exp,2022.2.2,Win32,61.94251734,,,,,,,,,,,,,,,,,,masks/mask_002.jpg,,,,,,,,,,,,,,,,,,,,,,,,,,,,,,,,,,,,,,,,,,,,,,,,0,2,2,1,1,,,,,,,,,,,,,,,,,,,,,,,,,,,,,,,,,,,,,,,,,
451889,001,2022-11-20_23h59.58.134,Info_measure_main_exp,2022.2.2,Win32,61.94251734,,,,,,,,,,,,,,,,,,masks/mask_004.jpg,,,,,,,,,,,,,,,,,,,,,,,,,,,,,,,,,,,,,,,,,,,,,,,,0,3,3,3,1,,,,,,,,,,,,,,,,,,,,,,,,,,,,,,,,,,,,,,,,,
451889,001,2022-11-20_23h59.58.134,Info_measure_main_exp,2022.2.2,Win32,61.94251734,,,,,,,,,,,,,,,,,,masks/mask_003.jpg,,,,,,,,,,,,,,,,,,,,,,,,,,,,,,,,,,,,,,,,,,,,,,,,0,4,4,2,1,,,,,,,,,,,,,,,,,,,,,,,,,,,,,,,,,,,,,,,,,
451889,001,2022-11-20_23h59.58.134,Info_measure_main_exp,2022.2.2,Win32,61.94251734,,,,,,,,,,,,,,,,,,,,,,,,,,,,,,7,0.8499,1,,,,,,,,,,,,0,131,5,5,1950,2214,absent_patch/patch0001950.jpg,absent_patch/patch0002214.jpg,,,,,,,,,,,,,,,,,,,,0.051851908,0.084259245,1,0,0,response1disk,7,-0.002777778,0.012962935,1,0,0,center_square,0,6,6,85,1,,,,,,,,,,,,,,,,,,,,,,,
451889,001,2022-11-20_23h59.58.134,Info_measure_main_exp,2022.2.2,Win32,61.94251734,,,,,,,,,,,,,,,,,,masks/mask_001.jpg,,,,,,,,,,,,,,,,,,,,,,,,,,,,,,,,,,,,,,,,,,,0,0,0,0,1,,,,,,,,,,,,,,,,,,,,,,,,,,,,,,,,,,,,,,,,,,,,,,
451889,001,2022-11-20_23h59.58.134,Info_measure_main_exp,2022.2.2,Win32,61.94251734,,,,,,,,,,,,,,,,,,masks/mask_005.jpg,,,,,,,,,,,,,,,,,,,,,,,,,,,,,,,,,,,,,,,,,,,0,1,1,4,1,,,,,,,,,,,,,,,,,,,,,,,,,,,,,,,,,,,,,,,,,,,,,,
451889,001,2022-11-20_23h59.58.134,Info_measure_main_exp,2022.2.2,Win32,61.94251734,,,,,,,,,,,,,,,,,,masks/mask_004.jpg,,,,,,,,,,,,,,,,,,,,,,,,,,,,,,,,,,,,,,,,,,,0,2,2,3,1,,,,,,,,,,,,,,,,,,,,,,,,,,,,,,,,,,,,,,,,,,,,,,
451889,001,2022-11-20_23h59.58.134,Info_measure_main_exp,2022.2.2,Win32,61.94251734,,,,,,,,,,,,,,,,,,masks/mask_003.jpg,,,,,,,,,,,,,,,,,,,,,,,,,,,,,,,,,,,,,,,,,,,0,3,3,2,1,,,,,,,,,,,,,,,,,,,,,,,,,,,,,,,,,,,,,,,,,,,,,,
451889,001,2022-11-20_23h59.58.134,Info_measure_main_exp,2022.2.2,Win32,61.94251734,,,,,,,,,,,,,,,,,,masks/mask_002.jpg,,,,,,,,,,,,,,,,,,,,,,,,,,,,,,,,,,,,,,,,,,,0,4,4,1,1,,,,,,,,,,,,,,,,,,,,,,,,,,,,,,,,,,,,,,,,,,,,,,
451889,001,2022-11-20_23h59.58.134,Info_measure_main_exp,2022.2.2,Win32,61.94251734,,,,,,,,,,,,,,,,,,masks/mask_004.jpg,,,,,,,,,,,,,,,,,,,,,,,,,,,,,,,,,,,,,,,,,,,,,,,,0,0,0,3,1,,,,,,,,,,,,,,,,,,,,,,,,,,,,,,,,,,,,,,,,,
451889,001,2022-11-20_23h59.58.134,Info_measure_main_exp,2022.2.2,Win32,61.94251734,,,,,,,,,,,,,,,,,,masks/mask_001.jpg,,,,,,,,,,,,,,,,,,,,,,,,,,,,,,,,,,,,,,,,,,,,,,,,0,1,1,0,1,,,,,,,,,,,,,,,,,,,,,,,,,,,,,,,,,,,,,,,,,
451889,001,2022-11-20_23h59.58.134,Info_measure_main_exp,2022.2.2,Win32,61.94251734,,,,,,,,,,,,,,,,,,masks/mask_002.jpg,,,,,,,,,,,,,,,,,,,,,,,,,,,,,,,,,,,,,,,,,,,,,,,,0,2,2,1,1,,,,,,,,,,,,,,,,,,,,,,,,,,,,,,,,,,,,,,,,,
451889,001,2022-11-20_23h59.58.134,Info_measure_main_exp,2022.2.2,Win32,61.94251734,,,,,,,,,,,,,,,,,,masks/mask_003.jpg,,,,,,,,,,,,,,,,,,,,,,,,,,,,,,,,,,,,,,,,,,,,,,,,0,3,3,2,1,,,,,,,,,,,,,,,,,,,,,,,,,,,,,,,,,,,,,,,,,
451889,001,2022-11-20_23h59.58.134,Info_measure_main_exp,2022.2.2,Win32,61.94251734,,,,,,,,,,,,,,,,,,masks/mask_005.jpg,,,,,,,,,,,,,,,,,,,,,,,,,,,,,,,,,,,,,,,,,,,,,,,,0,4,4,4,1,,,,,,,,,,,,,,,,,,,,,,,,,,,,,,,,,,,,,,,,,
451889,001,2022-11-20_23h59.58.134,Info_measure_main_exp,2022.2.2,Win32,61.94251734,,,,,,,,,,,,,,,,,,,,,,,,,,,,,,3,1.0997,1,,,,,,,,,,,,0,131,5,5,2082,1986,absent_patch/patch0002082.jpg,absent_patch/patch0001986.jpg,,,,,,,,,,,,,,,,,,,,-0.064814758,-0.125,1,0,0,response5disk,8,0.003703732,-0.009259288,1,0,0,center_square,0,7,7,94,1,,,,,,,,,,,,,,,,,,,,,,,
451889,001,2022-11-20_23h59.58.134,Info_measure_main_exp,2022.2.2,Win32,61.94251734,,,,,,,,,,,,,,,,,,masks/mask_005.jpg,,,,,,,,,,,,,,,,,,,,,,,,,,,,,,,,,,,,,,,,,,,0,0,0,4,1,,,,,,,,,,,,,,,,,,,,,,,,,,,,,,,,,,,,,,,,,,,,,,
451889,001,2022-11-20_23h59.58.134,Info_measure_main_exp,2022.2.2,Win32,61.94251734,,,,,,,,,,,,,,,,,,masks/mask_001.jpg,,,,,,,,,,,,,,,,,,,,,,,,,,,,,,,,,,,,,,,,,,,0,1,1,0,1,,,,,,,,,,,,,,,,,,,,,,,,,,,,,,,,,,,,,,,,,,,,,,
451889,001,2022-11-20_23h59.58.134,Info_measure_main_exp,2022.2.2,Win32,61.94251734,,,,,,,,,,,,,,,,,,masks/mask_002.jpg,,,,,,,,,,,,,,,,,,,,,,,,,,,,,,,,,,,,,,,,,,,0,2,2,1,1,,,,,,,,,,,,,,,,,,,,,,,,,,,,,,,,,,,,,,,,,,,,,,
451889,001,2022-11-20_23h59.58.134,Info_measure_main_exp,2022.2.2,Win32,61.94251734,,,,,,,,,,,,,,,,,,masks/mask_004.jpg,,,,,,,,,,,,,,,,,,,,,,,,,,,,,,,,,,,,,,,,,,,0,3,3,3,1,,,,,,,,,,,,,,,,,,,,,,,,,,,,,,,,,,,,,,,,,,,,,,
451889,001,2022-11-20_23h59.58.134,Info_measure_main_exp,2022.2.2,Win32,61.94251734,,,,,,,,,,,,,,,,,,masks/mask_003.jpg,,,,,,,,,,,,,,,,,,,,,,,,,,,,,,,,,,,,,,,,,,,0,4,4,2,1,,,,,,,,,,,,,,,,,,,,,,,,,,,,,,,,,,,,,,,,,,,,,,
451889,001,2022-11-20_23h59.58.134,Info_measure_main_exp,2022.2.2,Win32,61.94251734,,,,,,,,,,,,,,,,,,masks/mask_002.jpg,,,,,,,,,,,,,,,,,,,,,,,,,,,,,,,,,,,,,,,,,,,,,,,,0,0,0,1,1,,,,,,,,,,,,,,,,,,,,,,,,,,,,,,,,,,,,,,,,,
451889,001,2022-11-20_23h59.58.134,Info_measure_main_exp,2022.2.2,Win32,61.94251734,,,,,,,,,,,,,,,,,,masks/mask_004.jpg,,,,,,,,,,,,,,,,,,,,,,,,,,,,,,,,,,,,,,,,,,,,,,,,0,1,1,3,1,,,,,,,,,,,,,,,,,,,,,,,,,,,,,,,,,,,,,,,,,
451889,001,2022-11-20_23h59.58.134,Info_measure_main_exp,2022.2.2,Win32,61.94251734,,,,,,,,,,,,,,,,,,masks/mask_003.jpg,,,,,,,,,,,,,,,,,,,,,,,,,,,,,,,,,,,,,,,,,,,,,,,,0,2,2,2,1,,,,,,,,,,,,,,,,,,,,,,,,,,,,,,,,,,,,,,,,,
451889,001,2022-11-20_23h59.58.134,Info_measure_main_exp,2022.2.2,Win32,61.94251734,,,,,,,,,,,,,,,,,,masks/mask_001.jpg,,,,,,,,,,,,,,,,,,,,,,,,,,,,,,,,,,,,,,,,,,,,,,,,0,3,3,0,1,,,,,,,,,,,,,,,,,,,,,,,,,,,,,,,,,,,,,,,,,
451889,001,2022-11-20_23h59.58.134,Info_measure_main_exp,2022.2.2,Win32,61.94251734,,,,,,,,,,,,,,,,,,masks/mask_005.jpg,,,,,,,,,,,,,,,,,,,,,,,,,,,,,,,,,,,,,,,,,,,,,,,,0,4,4,4,1,,,,,,,,,,,,,,,,,,,,,,,,,,,,,,,,,,,,,,,,,
451889,001,2022-11-20_23h59.58.134,Info_measure_main_exp,2022.2.2,Win32,61.94251734,,,,,,,,,,,,,,,,,,,,,,,,,,,,,,7,0.8247,1,,,,,,,,,,,,1,131,5,5,1,1974,present_patch/cong_131_5_a.jpg,absent_patch/patch0001974.jpg,,,,,,,,,,,,,,,,,,,,0.062963019,0.135185157,1,0,0,response1disk,9,-0.001851824,-0.000925954,1,0,0,center_square,0,8,8,69,1,,,,,,,,,,,,,,,,,,,,,,,
451889,001,2022-11-20_23h59.58.134,Info_measure_main_exp,2022.2.2,Win32,61.94251734,,,,,,,,,,,,,,,,,,masks/mask_004.jpg,,,,,,,,,,,,,,,,,,,,,,,,,,,,,,,,,,,,,,,,,,,0,0,0,3,1,,,,,,,,,,,,,,,,,,,,,,,,,,,,,,,,,,,,,,,,,,,,,,
451889,001,2022-11-20_23h59.58.134,Info_measure_main_exp,2022.2.2,Win32,61.94251734,,,,,,,,,,,,,,,,,,masks/mask_005.jpg,,,,,,,,,,,,,,,,,,,,,,,,,,,,,,,,,,,,,,,,,,,0,1,1,4,1,,,,,,,,,,,,,,,,,,,,,,,,,,,,,,,,,,,,,,,,,,,,,,
451889,001,2022-11-20_23h59.58.134,Info_measure_main_exp,2022.2.2,Win32,61.94251734,,,,,,,,,,,,,,,,,,masks/mask_002.jpg,,,,,,,,,,,,,,,,,,,,,,,,,,,,,,,,,,,,,,,,,,,0,2,2,1,1,,,,,,,,,,,,,,,,,,,,,,,,,,,,,,,,,,,,,,,,,,,,,,
451889,001,2022-11-20_23h59.58.134,Info_measure_main_exp,2022.2.2,Win32,61.94251734,,,,,,,,,,,,,,,,,,masks/mask_003.jpg,,,,,,,,,,,,,,,,,,,,,,,,,,,,,,,,,,,,,,,,,,,0,3,3,2,1,,,,,,,,,,,,,,,,,,,,,,,,,,,,,,,,,,,,,,,,,,,,,,
451889,001,2022-11-20_23h59.58.134,Info_measure_main_exp,2022.2.2,Win32,61.94251734,,,,,,,,,,,,,,,,,,masks/mask_001.jpg,,,,,,,,,,,,,,,,,,,,,,,,,,,,,,,,,,,,,,,,,,,0,4,4,0,1,,,,,,,,,,,,,,,,,,,,,,,,,,,,,,,,,,,,,,,,,,,,,,
451889,001,2022-11-20_23h59.58.134,Info_measure_main_exp,2022.2.2,Win32,61.94251734,,,,,,,,,,,,,,,,,,masks/mask_003.jpg,,,,,,,,,,,,,,,,,,,,,,,,,,,,,,,,,,,,,,,,,,,,,,,,0,0,0,2,1,,,,,,,,,,,,,,,,,,,,,,,,,,,,,,,,,,,,,,,,,
451889,001,2022-11-20_23h59.58.134,Info_measure_main_exp,2022.2.2,Win32,61.94251734,,,,,,,,,,,,,,,,,,masks/mask_002.jpg,,,,,,,,,,,,,,,,,,,,,,,,,,,,,,,,,,,,,,,,,,,,,,,,0,1,1,1,1,,,,,,,,,,,,,,,,,,,,,,,,,,,,,,,,,,,,,,,,,
451889,001,2022-11-20_23h59.58.134,Info_measure_main_exp,2022.2.2,Win32,61.94251734,,,,,,,,,,,,,,,,,,masks/mask_005.jpg,,,,,,,,,,,,,,,,,,,,,,,,,,,,,,,,,,,,,,,,,,,,,,,,0,2,2,4,1,,,,,,,,,,,,,,,,,,,,,,,,,,,,,,,,,,,,,,,,,
451889,001,2022-11-20_23h59.58.134,Info_measure_main_exp,2022.2.2,Win32,61.94251734,,,,,,,,,,,,,,,,,,masks/mask_001.jpg,,,,,,,,,,,,,,,,,,,,,,,,,,,,,,,,,,,,,,,,,,,,,,,,0,3,3,0,1,,,,,,,,,,,,,,,,,,,,,,,,,,,,,,,,,,,,,,,,,
451889,001,2022-11-20_23h59.58.134,Info_measure_main_exp,2022.2.2,Win32,61.94251734,,,,,,,,,,,,,,,,,,masks/mask_004.jpg,,,,,,,,,,,,,,,,,,,,,,,,,,,,,,,,,,,,,,,,,,,,,,,,0,4,4,3,1,,,,,,,,,,,,,,,,,,,,,,,,,,,,,,,,,,,,,,,,,
451889,001,2022-11-20_23h59.58.134,Info_measure_main_exp,2022.2.2,Win32,61.94251734,,,,,,,,,,,,,,,,,,,,,,,,,,,,,,5,3.5327,1,,,,,,,,,,,,0,131,5,5,2238,2298,absent_patch/patch0002238.jpg,absent_patch/patch0002298.jpg,,,,,,,,,,,,,,,,,,,,0.100925954,-0.064814843,1,0,0,response3disk,10,0.013888889,-0.008333333,1,0,0,center_square,0,9,9,51,1,,,,,,,,,,,,,,,,,,,,,,,
451889,001,2022-11-20_23h59.58.134,Info_measure_main_exp,2022.2.2,Win32,61.94251734,,,,,,,,,,,,,,,,,,masks/mask_002.jpg,,,,,,,,,,,,,,,,,,,,,,,,,,,,,,,,,,,,,,,,,,,0,0,0,1,1,,,,,,,,,,,,,,,,,,,,,,,,,,,,,,,,,,,,,,,,,,,,,,
451889,001,2022-11-20_23h59.58.134,Info_measure_main_exp,2022.2.2,Win32,61.94251734,,,,,,,,,,,,,,,,,,masks/mask_003.jpg,,,,,,,,,,,,,,,,,,,,,,,,,,,,,,,,,,,,,,,,,,,0,1,1,2,1,,,,,,,,,,,,,,,,,,,,,,,,,,,,,,,,,,,,,,,,,,,,,,
451889,001,2022-11-20_23h59.58.134,Info_measure_main_exp,2022.2.2,Win32,61.94251734,,,,,,,,,,,,,,,,,,masks/mask_004.jpg,,,,,,,,,,,,,,,,,,,,,,,,,,,,,,,,,,,,,,,,,,,0,2,2,3,1,,,,,,,,,,,,,,,,,,,,,,,,,,,,,,,,,,,,,,,,,,,,,,
451889,001,2022-11-20_23h59.58.134,Info_measure_main_exp,2022.2.2,Win32,61.94251734,,,,,,,,,,,,,,,,,,masks/mask_005.jpg,,,,,,,,,,,,,,,,,,,,,,,,,,,,,,,,,,,,,,,,,,,0,3,3,4,1,,,,,,,,,,,,,,,,,,,,,,,,,,,,,,,,,,,,,,,,,,,,,,
451889,001,2022-11-20_23h59.58.134,Info_measure_main_exp,2022.2.2,Win32,61.94251734,,,,,,,,,,,,,,,,,,masks/mask_001.jpg,,,,,,,,,,,,,,,,,,,,,,,,,,,,,,,,,,,,,,,,,,,0,4,4,0,1,,,,,,,,,,,,,,,,,,,,,,,,,,,,,,,,,,,,,,,,,,,,,,
451889,001,2022-11-20_23h59.58.134,Info_measure_main_exp,2022.2.2,Win32,61.94251734,,,,,,,,,,,,,,,,,,masks/mask_005.jpg,,,,,,,,,,,,,,,,,,,,,,,,,,,,,,,,,,,,,,,,,,,,,,,,0,0,0,4,1,,,,,,,,,,,,,,,,,,,,,,,,,,,,,,,,,,,,,,,,,
451889,001,2022-11-20_23h59.58.134,Info_measure_main_exp,2022.2.2,Win32,61.94251734,,,,,,,,,,,,,,,,,,masks/mask_001.jpg,,,,,,,,,,,,,,,,,,,,,,,,,,,,,,,,,,,,,,,,,,,,,,,,0,1,1,0,1,,,,,,,,,,,,,,,,,,,,,,,,,,,,,,,,,,,,,,,,,
451889,001,2022-11-20_23h59.58.134,Info_measure_main_exp,2022.2.2,Win32,61.94251734,,,,,,,,,,,,,,,,,,masks/mask_003.jpg,,,,,,,,,,,,,,,,,,,,,,,,,,,,,,,,,,,,,,,,,,,,,,,,0,2,2,2,1,,,,,,,,,,,,,,,,,,,,,,,,,,,,,,,,,,,,,,,,,
451889,001,2022-11-20_23h59.58.134,Info_measure_main_exp,2022.2.2,Win32,61.94251734,,,,,,,,,,,,,,,,,,masks/mask_004.jpg,,,,,,,,,,,,,,,,,,,,,,,,,,,,,,,,,,,,,,,,,,,,,,,,0,3,3,3,1,,,,,,,,,,,,,,,,,,,,,,,,,,,,,,,,,,,,,,,,,
451889,001,2022-11-20_23h59.58.134,Info_measure_main_exp,2022.2.2,Win32,61.94251734,,,,,,,,,,,,,,,,,,masks/mask_002.jpg,,,,,,,,,,,,,,,,,,,,,,,,,,,,,,,,,,,,,,,,,,,,,,,,0,4,4,1,1,,,,,,,,,,,,,,,,,,,,,,,,,,,,,,,,,,,,,,,,,
451889,001,2022-11-20_23h59.58.134,Info_measure_main_exp,2022.2.2,Win32,61.94251734,,,,,,,,,,,,,,,,,,,,,,,,,,,,,,4,1.1165,1,,,,,,,,,,,,0,131,5,5,2274,2214,absent_patch/patch0002274.jpg,absent_patch/patch0002214.jpg,,,,,,,,,,,,,,,,,,,,0.009259288,-0.07129631,1,0,0,response3disk,11,0.001851908,-0.005555556,1,0,0,center_square,0,10,10,11,1,,,,,,,,,,,,,,,,,,,,,,,
451889,001,2022-11-20_23h59.58.134,Info_measure_main_exp,2022.2.2,Win32,61.94251734,,,,,,,,,,,,,,,,,,masks/mask_002.jpg,,,,,,,,,,,,,,,,,,,,,,,,,,,,,,,,,,,,,,,,,,,0,0,0,1,1,,,,,,,,,,,,,,,,,,,,,,,,,,,,,,,,,,,,,,,,,,,,,,
451889,001,2022-11-20_23h59.58.134,Info_measure_main_exp,2022.2.2,Win32,61.94251734,,,,,,,,,,,,,,,,,,masks/mask_004.jpg,,,,,,,,,,,,,,,,,,,,,,,,,,,,,,,,,,,,,,,,,,,0,1,1,3,1,,,,,,,,,,,,,,,,,,,,,,,,,,,,,,,,,,,,,,,,,,,,,,
451889,001,2022-11-20_23h59.58.134,Info_measure_main_exp,2022.2.2,Win32,61.94251734,,,,,,,,,,,,,,,,,,masks/mask_001.jpg,,,,,,,,,,,,,,,,,,,,,,,,,,,,,,,,,,,,,,,,,,,0,2,2,0,1,,,,,,,,,,,,,,,,,,,,,,,,,,,,,,,,,,,,,,,,,,,,,,
451889,001,2022-11-20_23h59.58.134,Info_measure_main_exp,2022.2.2,Win32,61.94251734,,,,,,,,,,,,,,,,,,masks/mask_005.jpg,,,,,,,,,,,,,,,,,,,,,,,,,,,,,,,,,,,,,,,,,,,0,3,3,4,1,,,,,,,,,,,,,,,,,,,,,,,,,,,,,,,,,,,,,,,,,,,,,,
451889,001,2022-11-20_23h59.58.134,Info_measure_main_exp,2022.2.2,Win32,61.94251734,,,,,,,,,,,,,,,,,,masks/mask_003.jpg,,,,,,,,,,,,,,,,,,,,,,,,,,,,,,,,,,,,,,,,,,,0,4,4,2,1,,,,,,,,,,,,,,,,,,,,,,,,,,,,,,,,,,,,,,,,,,,,,,
451889,001,2022-11-20_23h59.58.134,Info_measure_main_exp,2022.2.2,Win32,61.94251734,,,,,,,,,,,,,,,,,,masks/mask_004.jpg,,,,,,,,,,,,,,,,,,,,,,,,,,,,,,,,,,,,,,,,,,,,,,,,0,0,0,3,1,,,,,,,,,,,,,,,,,,,,,,,,,,,,,,,,,,,,,,,,,
451889,001,2022-11-20_23h59.58.134,Info_measure_main_exp,2022.2.2,Win32,61.94251734,,,,,,,,,,,,,,,,,,masks/mask_002.jpg,,,,,,,,,,,,,,,,,,,,,,,,,,,,,,,,,,,,,,,,,,,,,,,,0,1,1,1,1,,,,,,,,,,,,,,,,,,,,,,,,,,,,,,,,,,,,,,,,,
451889,001,2022-11-20_23h59.58.134,Info_measure_main_exp,2022.2.2,Win32,61.94251734,,,,,,,,,,,,,,,,,,masks/mask_001.jpg,,,,,,,,,,,,,,,,,,,,,,,,,,,,,,,,,,,,,,,,,,,,,,,,0,2,2,0,1,,,,,,,,,,,,,,,,,,,,,,,,,,,,,,,,,,,,,,,,,
451889,001,2022-11-20_23h59.58.134,Info_measure_main_exp,2022.2.2,Win32,61.94251734,,,,,,,,,,,,,,,,,,masks/mask_005.jpg,,,,,,,,,,,,,,,,,,,,,,,,,,,,,,,,,,,,,,,,,,,,,,,,0,3,3,4,1,,,,,,,,,,,,,,,,,,,,,,,,,,,,,,,,,,,,,,,,,
451889,001,2022-11-20_23h59.58.134,Info_measure_main_exp,2022.2.2,Win32,61.94251734,,,,,,,,,,,,,,,,,,masks/mask_003.jpg,,,,,,,,,,,,,,,,,,,,,,,,,,,,,,,,,,,,,,,,,,,,,,,,0,4,4,2,1,,,,,,,,,,,,,,,,,,,,,,,,,,,,,,,,,,,,,,,,,
451889,001,2022-11-20_23h59.58.134,Info_measure_main_exp,2022.2.2,Win32,61.94251734,,,,,,,,,,,,,,,,,,,,,,,,,,,,,,7,0.9988,1,,,,,,,,,,,,0,131,5,5,1950,2238,absent_patch/patch0001950.jpg,absent_patch/patch0002238.jpg,,,,,,,,,,,,,,,,,,,,0.062963019,0.079629601,1,0,0,response1disk,12,-0.011111111,0.000925912,1,0,0,center_square,0,11,11,8,1,,,,,,,,,,,,,,,,,,,,,,,
451889,001,2022-11-20_23h59.58.134,Info_measure_main_exp,2022.2.2,Win32,61.94251734,,,,,,,,,,,,,,,,,,masks/mask_004.jpg,,,,,,,,,,,,,,,,,,,,,,,,,,,,,,,,,,,,,,,,,,,0,0,0,3,1,,,,,,,,,,,,,,,,,,,,,,,,,,,,,,,,,,,,,,,,,,,,,,
451889,001,2022-11-20_23h59.58.134,Info_measure_main_exp,2022.2.2,Win32,61.94251734,,,,,,,,,,,,,,,,,,masks/mask_002.jpg,,,,,,,,,,,,,,,,,,,,,,,,,,,,,,,,,,,,,,,,,,,0,1,1,1,1,,,,,,,,,,,,,,,,,,,,,,,,,,,,,,,,,,,,,,,,,,,,,,
451889,001,2022-11-20_23h59.58.134,Info_measure_main_exp,2022.2.2,Win32,61.94251734,,,,,,,,,,,,,,,,,,masks/mask_005.jpg,,,,,,,,,,,,,,,,,,,,,,,,,,,,,,,,,,,,,,,,,,,0,2,2,4,1,,,,,,,,,,,,,,,,,,,,,,,,,,,,,,,,,,,,,,,,,,,,,,
451889,001,2022-11-20_23h59.58.134,Info_measure_main_exp,2022.2.2,Win32,61.94251734,,,,,,,,,,,,,,,,,,masks/mask_003.jpg,,,,,,,,,,,,,,,,,,,,,,,,,,,,,,,,,,,,,,,,,,,0,3,3,2,1,,,,,,,,,,,,,,,,,,,,,,,,,,,,,,,,,,,,,,,,,,,,,,
451889,001,2022-11-20_23h59.58.134,Info_measure_main_exp,2022.2.2,Win32,61.94251734,,,,,,,,,,,,,,,,,,masks/mask_001.jpg,,,,,,,,,,,,,,,,,,,,,,,,,,,,,,,,,,,,,,,,,,,0,4,4,0,1,,,,,,,,,,,,,,,,,,,,,,,,,,,,,,,,,,,,,,,,,,,,,,
451889,001,2022-11-20_23h59.58.134,Info_measure_main_exp,2022.2.2,Win32,61.94251734,,,,,,,,,,,,,,,,,,masks/mask_005.jpg,,,,,,,,,,,,,,,,,,,,,,,,,,,,,,,,,,,,,,,,,,,,,,,,0,0,0,4,1,,,,,,,,,,,,,,,,,,,,,,,,,,,,,,,,,,,,,,,,,
451889,001,2022-11-20_23h59.58.134,Info_measure_main_exp,2022.2.2,Win32,61.94251734,,,,,,,,,,,,,,,,,,masks/mask_001.jpg,,,,,,,,,,,,,,,,,,,,,,,,,,,,,,,,,,,,,,,,,,,,,,,,0,1,1,0,1,,,,,,,,,,,,,,,,,,,,,,,,,,,,,,,,,,,,,,,,,
451889,001,2022-11-20_23h59.58.134,Info_measure_main_exp,2022.2.2,Win32,61.94251734,,,,,,,,,,,,,,,,,,masks/mask_004.jpg,,,,,,,,,,,,,,,,,,,,,,,,,,,,,,,,,,,,,,,,,,,,,,,,0,2,2,3,1,,,,,,,,,,,,,,,,,,,,,,,,,,,,,,,,,,,,,,,,,
451889,001,2022-11-20_23h59.58.134,Info_measure_main_exp,2022.2.2,Win32,61.94251734,,,,,,,,,,,,,,,,,,masks/mask_003.jpg,,,,,,,,,,,,,,,,,,,,,,,,,,,,,,,,,,,,,,,,,,,,,,,,0,3,3,2,1,,,,,,,,,,,,,,,,,,,,,,,,,,,,,,,,,,,,,,,,,
451889,001,2022-11-20_23h59.58.134,Info_measure_main_exp,2022.2.2,Win32,61.94251734,,,,,,,,,,,,,,,,,,masks/mask_002.jpg,,,,,,,,,,,,,,,,,,,,,,,,,,,,,,,,,,,,,,,,,,,,,,,,0,4,4,1,1,,,,,,,,,,,,,,,,,,,,,,,,,,,,,,,,,,,,,,,,,
451889,001,2022-11-20_23h59.58.134,Info_measure_main_exp,2022.2.2,Win32,61.94251734,,,,,,,,,,,,,,,,,,,,,,,,,,,,,,0,0.7331,1,,,,,,,,,,,,0,131,5,5,2238,2238,absent_patch/patch0002238.jpg,absent_patch/patch0002238.jpg,,,,,,,,,,,,,,,,,,,,-0.033333333,0.114814801,1,0,0,response7disk,13,-0.001851824,0.012037023,1,0,0,center_square,0,12,12,58,1,,,,,,,,,,,,,,,,,,,,,,,
451889,001,2022-11-20_23h59.58.134,Info_measure_main_exp,2022.2.2,Win32,61.94251734,,,,,,,,,,,,,,,,,,masks/mask_001.jpg,,,,,,,,,,,,,,,,,,,,,,,,,,,,,,,,,,,,,,,,,,,0,0,0,0,1,,,,,,,,,,,,,,,,,,,,,,,,,,,,,,,,,,,,,,,,,,,,,,
451889,001,2022-11-20_23h59.58.134,Info_measure_main_exp,2022.2.2,Win32,61.94251734,,,,,,,,,,,,,,,,,,masks/mask_003.jpg,,,,,,,,,,,,,,,,,,,,,,,,,,,,,,,,,,,,,,,,,,,0,1,1,2,1,,,,,,,,,,,,,,,,,,,,,,,,,,,,,,,,,,,,,,,,,,,,,,
451889,001,2022-11-20_23h59.58.134,Info_measure_main_exp,2022.2.2,Win32,61.94251734,,,,,,,,,,,,,,,,,,masks/mask_005.jpg,,,,,,,,,,,,,,,,,,,,,,,,,,,,,,,,,,,,,,,,,,,0,2,2,4,1,,,,,,,,,,,,,,,,,,,,,,,,,,,,,,,,,,,,,,,,,,,,,,
451889,001,2022-11-20_23h59.58.134,Info_measure_main_exp,2022.2.2,Win32,61.94251734,,,,,,,,,,,,,,,,,,masks/mask_002.jpg,,,,,,,,,,,,,,,,,,,,,,,,,,,,,,,,,,,,,,,,,,,0,3,3,1,1,,,,,,,,,,,,,,,,,,,,,,,,,,,,,,,,,,,,,,,,,,,,,,
451889,001,2022-11-20_23h59.58.134,Info_measure_main_exp,2022.2.2,Win32,61.94251734,,,,,,,,,,,,,,,,,,masks/mask_004.jpg,,,,,,,,,,,,,,,,,,,,,,,,,,,,,,,,,,,,,,,,,,,0,4,4,3,1,,,,,,,,,,,,,,,,,,,,,,,,,,,,,,,,,,,,,,,,,,,,,,
451889,001,2022-11-20_23h59.58.134,Info_measure_main_exp,2022.2.2,Win32,61.94251734,,,,,,,,,,,,,,,,,,masks/mask_004.jpg,,,,,,,,,,,,,,,,,,,,,,,,,,,,,,,,,,,,,,,,,,,,,,,,0,0,0,3,1,,,,,,,,,,,,,,,,,,,,,,,,,,,,,,,,,,,,,,,,,
451889,001,2022-11-20_23h59.58.134,Info_measure_main_exp,2022.2.2,Win32,61.94251734,,,,,,,,,,,,,,,,,,masks/mask_003.jpg,,,,,,,,,,,,,,,,,,,,,,,,,,,,,,,,,,,,,,,,,,,,,,,,0,1,1,2,1,,,,,,,,,,,,,,,,,,,,,,,,,,,,,,,,,,,,,,,,,
451889,001,2022-11-20_23h59.58.134,Info_measure_main_exp,2022.2.2,Win32,61.94251734,,,,,,,,,,,,,,,,,,masks/mask_001.jpg,,,,,,,,,,,,,,,,,,,,,,,,,,,,,,,,,,,,,,,,,,,,,,,,0,2,2,0,1,,,,,,,,,,,,,,,,,,,,,,,,,,,,,,,,,,,,,,,,,
451889,001,2022-11-20_23h59.58.134,Info_measure_main_exp,2022.2.2,Win32,61.94251734,,,,,,,,,,,,,,,,,,masks/mask_002.jpg,,,,,,,,,,,,,,,,,,,,,,,,,,,,,,,,,,,,,,,,,,,,,,,,0,3,3,1,1,,,,,,,,,,,,,,,,,,,,,,,,,,,,,,,,,,,,,,,,,
451889,001,2022-11-20_23h59.58.134,Info_measure_main_exp,2022.2.2,Win32,61.94251734,,,,,,,,,,,,,,,,,,masks/mask_005.jpg,,,,,,,,,,,,,,,,,,,,,,,,,,,,,,,,,,,,,,,,,,,,,,,,0,4,4,4,1,,,,,,,,,,,,,,,,,,,,,,,,,,,,,,,,,,,,,,,,,
451889,001,2022-11-20_23h59.58.134,Info_measure_main_exp,2022.2.2,Win32,61.94251734,,,,,,,,,,,,,,,,,,,,,,,,,,,,,,7,0.6996,1,,,,,,,,,,,,1,131,5,5,1,2214,present_patch/cong_131_5_a.jpg,absent_patch/patch0002214.jpg,,,,,,,,,,,,,,,,,,,,0.044444444,0.111111111,1,0,0,response1disk,14,-0.001851824,-0.004629644,1,0,0,center_square,0,13,13,4,1,,,,,,,,,,,,,,,,,,,,,,,
451889,001,2022-11-20_23h59.58.134,Info_measure_main_exp,2022.2.2,Win32,61.94251734,,,,,,,,,,,,,,,,,,masks/mask_002.jpg,,,,,,,,,,,,,,,,,,,,,,,,,,,,,,,,,,,,,,,,,,,0,0,0,1,1,,,,,,,,,,,,,,,,,,,,,,,,,,,,,,,,,,,,,,,,,,,,,,
451889,001,2022-11-20_23h59.58.134,Info_measure_main_exp,2022.2.2,Win32,61.94251734,,,,,,,,,,,,,,,,,,masks/mask_003.jpg,,,,,,,,,,,,,,,,,,,,,,,,,,,,,,,,,,,,,,,,,,,0,1,1,2,1,,,,,,,,,,,,,,,,,,,,,,,,,,,,,,,,,,,,,,,,,,,,,,
451889,001,2022-11-20_23h59.58.134,Info_measure_main_exp,2022.2.2,Win32,61.94251734,,,,,,,,,,,,,,,,,,masks/mask_005.jpg,,,,,,,,,,,,,,,,,,,,,,,,,,,,,,,,,,,,,,,,,,,0,2,2,4,1,,,,,,,,,,,,,,,,,,,,,,,,,,,,,,,,,,,,,,,,,,,,,,
451889,001,2022-11-20_23h59.58.134,Info_measure_main_exp,2022.2.2,Win32,61.94251734,,,,,,,,,,,,,,,,,,masks/mask_004.jpg,,,,,,,,,,,,,,,,,,,,,,,,,,,,,,,,,,,,,,,,,,,0,3,3,3,1,,,,,,,,,,,,,,,,,,,,,,,,,,,,,,,,,,,,,,,,,,,,,,
451889,001,2022-11-20_23h59.58.134,Info_measure_main_exp,2022.2.2,Win32,61.94251734,,,,,,,,,,,,,,,,,,masks/mask_001.jpg,,,,,,,,,,,,,,,,,,,,,,,,,,,,,,,,,,,,,,,,,,,0,4,4,0,1,,,,,,,,,,,,,,,,,,,,,,,,,,,,,,,,,,,,,,,,,,,,,,
451889,001,2022-11-20_23h59.58.134,Info_measure_main_exp,2022.2.2,Win32,61.94251734,,,,,,,,,,,,,,,,,,masks/mask_003.jpg,,,,,,,,,,,,,,,,,,,,,,,,,,,,,,,,,,,,,,,,,,,,,,,,0,0,0,2,1,,,,,,,,,,,,,,,,,,,,,,,,,,,,,,,,,,,,,,,,,
451889,001,2022-11-20_23h59.58.134,Info_measure_main_exp,2022.2.2,Win32,61.94251734,,,,,,,,,,,,,,,,,,masks/mask_002.jpg,,,,,,,,,,,,,,,,,,,,,,,,,,,,,,,,,,,,,,,,,,,,,,,,0,1,1,1,1,,,,,,,,,,,,,,,,,,,,,,,,,,,,,,,,,,,,,,,,,
451889,001,2022-11-20_23h59.58.134,Info_measure_main_exp,2022.2.2,Win32,61.94251734,,,,,,,,,,,,,,,,,,masks/mask_005.jpg,,,,,,,,,,,,,,,,,,,,,,,,,,,,,,,,,,,,,,,,,,,,,,,,0,2,2,4,1,,,,,,,,,,,,,,,,,,,,,,,,,,,,,,,,,,,,,,,,,
451889,001,2022-11-20_23h59.58.134,Info_measure_main_exp,2022.2.2,Win32,61.94251734,,,,,,,,,,,,,,,,,,masks/mask_004.jpg,,,,,,,,,,,,,,,,,,,,,,,,,,,,,,,,,,,,,,,,,,,,,,,,0,3,3,3,1,,,,,,,,,,,,,,,,,,,,,,,,,,,,,,,,,,,,,,,,,
451889,001,2022-11-20_23h59.58.134,Info_measure_main_exp,2022.2.2,Win32,61.94251734,,,,,,,,,,,,,,,,,,masks/mask_001.jpg,,,,,,,,,,,,,,,,,,,,,,,,,,,,,,,,,,,,,,,,,,,,,,,,0,4,4,0,1,,,,,,,,,,,,,,,,,,,,,,,,,,,,,,,,,,,,,,,,,
451889,001,2022-11-20_23h59.58.134,Info_measure_main_exp,2022.2.2,Win32,61.94251734,,,,,,,,,,,,,,,,,,,,,,,,,,,,,,7,1.2227,1,,,,,,,,,,,,0,131,5,5,2238,2166,absent_patch/patch0002238.jpg,absent_patch/patch0002166.jpg,,,,,,,,,,,,,,,,,,,,0.1,0.162037023,1,0,0,response1disk,15,0.008333333,0.012037023,1,0,0,center_square,0,14,14,118,1,,,,,,,,,,,,,,,,,,,,,,,
451889,001,2022-11-20_23h59.58.134,Info_measure_main_exp,2022.2.2,Win32,61.94251734,,,,,,,,,,,,,,,,,,masks/mask_005.jpg,,,,,,,,,,,,,,,,,,,,,,,,,,,,,,,,,,,,,,,,,,,0,0,0,4,1,,,,,,,,,,,,,,,,,,,,,,,,,,,,,,,,,,,,,,,,,,,,,,
451889,001,2022-11-20_23h59.58.134,Info_measure_main_exp,2022.2.2,Win32,61.94251734,,,,,,,,,,,,,,,,,,masks/mask_004.jpg,,,,,,,,,,,,,,,,,,,,,,,,,,,,,,,,,,,,,,,,,,,0,1,1,3,1,,,,,,,,,,,,,,,,,,,,,,,,,,,,,,,,,,,,,,,,,,,,,,
451889,001,2022-11-20_23h59.58.134,Info_measure_main_exp,2022.2.2,Win32,61.94251734,,,,,,,,,,,,,,,,,,masks/mask_003.jpg,,,,,,,,,,,,,,,,,,,,,,,,,,,,,,,,,,,,,,,,,,,0,2,2,2,1,,,,,,,,,,,,,,,,,,,,,,,,,,,,,,,,,,,,,,,,,,,,,,
451889,001,2022-11-20_23h59.58.134,Info_measure_main_exp,2022.2.2,Win32,61.94251734,,,,,,,,,,,,,,,,,,masks/mask_002.jpg,,,,,,,,,,,,,,,,,,,,,,,,,,,,,,,,,,,,,,,,,,,0,3,3,1,1,,,,,,,,,,,,,,,,,,,,,,,,,,,,,,,,,,,,,,,,,,,,,,
451889,001,2022-11-20_23h59.58.134,Info_measure_main_exp,2022.2.2,Win32,61.94251734,,,,,,,,,,,,,,,,,,masks/mask_001.jpg,,,,,,,,,,,,,,,,,,,,,,,,,,,,,,,,,,,,,,,,,,,0,4,4,0,1,,,,,,,,,,,,,,,,,,,,,,,,,,,,,,,,,,,,,,,,,,,,,,
451889,001,2022-11-20_23h59.58.134,Info_measure_main_exp,2022.2.2,Win32,61.94251734,,,,,,,,,,,,,,,,,,masks/mask_004.jpg,,,,,,,,,,,,,,,,,,,,,,,,,,,,,,,,,,,,,,,,,,,,,,,,0,0,0,3,1,,,,,,,,,,,,,,,,,,,,,,,,,,,,,,,,,,,,,,,,,
451889,001,2022-11-20_23h59.58.134,Info_measure_main_exp,2022.2.2,Win32,61.94251734,,,,,,,,,,,,,,,,,,masks/mask_002.jpg,,,,,,,,,,,,,,,,,,,,,,,,,,,,,,,,,,,,,,,,,,,,,,,,0,1,1,1,1,,,,,,,,,,,,,,,,,,,,,,,,,,,,,,,,,,,,,,,,,
451889,001,2022-11-20_23h59.58.134,Info_measure_main_exp,2022.2.2,Win32,61.94251734,,,,,,,,,,,,,,,,,,masks/mask_003.jpg,,,,,,,,,,,,,,,,,,,,,,,,,,,,,,,,,,,,,,,,,,,,,,,,0,2,2,2,1,,,,,,,,,,,,,,,,,,,,,,,,,,,,,,,,,,,,,,,,,
451889,001,2022-11-20_23h59.58.134,Info_measure_main_exp,2022.2.2,Win32,61.94251734,,,,,,,,,,,,,,,,,,masks/mask_005.jpg,,,,,,,,,,,,,,,,,,,,,,,,,,,,,,,,,,,,,,,,,,,,,,,,0,3,3,4,1,,,,,,,,,,,,,,,,,,,,,,,,,,,,,,,,,,,,,,,,,
451889,001,2022-11-20_23h59.58.134,Info_measure_main_exp,2022.2.2,Win32,61.94251734,,,,,,,,,,,,,,,,,,masks/mask_001.jpg,,,,,,,,,,,,,,,,,,,,,,,,,,,,,,,,,,,,,,,,,,,,,,,,0,4,4,0,1,,,,,,,,,,,,,,,,,,,,,,,,,,,,,,,,,,,,,,,,,
451889,001,2022-11-20_23h59.58.134,Info_measure_main_exp,2022.2.2,Win32,61.94251734,,,,,,,,,,,,,,,,,,,,,,,,,,,,,,7,0.6162,1,,,,,,,,,,,,0,131,5,5,2178,1986,absent_patch/patch0002178.jpg,absent_patch/patch0001986.jpg,,,,,,,,,,,,,,,,,,,,0.040740797,0.101851824,1,0,0,response1disk,16,-0.000925869,-0.001851866,1,0,0,center_square,0,15,15,46,1,,,,,,,,,,,,,,,,,,,,,,,
451889,001,2022-11-20_23h59.58.134,Info_measure_main_exp,2022.2.2,Win32,61.94251734,,,,,,,,,,,,,,,,,,masks/mask_005.jpg,,,,,,,,,,,,,,,,,,,,,,,,,,,,,,,,,,,,,,,,,,,0,0,0,4,1,,,,,,,,,,,,,,,,,,,,,,,,,,,,,,,,,,,,,,,,,,,,,,
451889,001,2022-11-20_23h59.58.134,Info_measure_main_exp,2022.2.2,Win32,61.94251734,,,,,,,,,,,,,,,,,,masks/mask_003.jpg,,,,,,,,,,,,,,,,,,,,,,,,,,,,,,,,,,,,,,,,,,,0,1,1,2,1,,,,,,,,,,,,,,,,,,,,,,,,,,,,,,,,,,,,,,,,,,,,,,
451889,001,2022-11-20_23h59.58.134,Info_measure_main_exp,2022.2.2,Win32,61.94251734,,,,,,,,,,,,,,,,,,masks/mask_001.jpg,,,,,,,,,,,,,,,,,,,,,,,,,,,,,,,,,,,,,,,,,,,0,2,2,0,1,,,,,,,,,,,,,,,,,,,,,,,,,,,,,,,,,,,,,,,,,,,,,,
451889,001,2022-11-20_23h59.58.134,Info_measure_main_exp,2022.2.2,Win32,61.94251734,,,,,,,,,,,,,,,,,,masks/mask_004.jpg,,,,,,,,,,,,,,,,,,,,,,,,,,,,,,,,,,,,,,,,,,,0,3,3,3,1,,,,,,,,,,,,,,,,,,,,,,,,,,,,,,,,,,,,,,,,,,,,,,
451889,001,2022-11-20_23h59.58.134,Info_measure_main_exp,2022.2.2,Win32,61.94251734,,,,,,,,,,,,,,,,,,masks/mask_002.jpg,,,,,,,,,,,,,,,,,,,,,,,,,,,,,,,,,,,,,,,,,,,0,4,4,1,1,,,,,,,,,,,,,,,,,,,,,,,,,,,,,,,,,,,,,,,,,,,,,,
451889,001,2022-11-20_23h59.58.134,Info_measure_main_exp,2022.2.2,Win32,61.94251734,,,,,,,,,,,,,,,,,,masks/mask_002.jpg,,,,,,,,,,,,,,,,,,,,,,,,,,,,,,,,,,,,,,,,,,,,,,,,0,0,0,1,1,,,,,,,,,,,,,,,,,,,,,,,,,,,,,,,,,,,,,,,,,
451889,001,2022-11-20_23h59.58.134,Info_measure_main_exp,2022.2.2,Win32,61.94251734,,,,,,,,,,,,,,,,,,masks/mask_005.jpg,,,,,,,,,,,,,,,,,,,,,,,,,,,,,,,,,,,,,,,,,,,,,,,,0,1,1,4,1,,,,,,,,,,,,,,,,,,,,,,,,,,,,,,,,,,,,,,,,,
451889,001,2022-11-20_23h59.58.134,Info_measure_main_exp,2022.2.2,Win32,61.94251734,,,,,,,,,,,,,,,,,,masks/mask_003.jpg,,,,,,,,,,,,,,,,,,,,,,,,,,,,,,,,,,,,,,,,,,,,,,,,0,2,2,2,1,,,,,,,,,,,,,,,,,,,,,,,,,,,,,,,,,,,,,,,,,
451889,001,2022-11-20_23h59.58.134,Info_measure_main_exp,2022.2.2,Win32,61.94251734,,,,,,,,,,,,,,,,,,masks/mask_004.jpg,,,,,,,,,,,,,,,,,,,,,,,,,,,,,,,,,,,,,,,,,,,,,,,,0,3,3,3,1,,,,,,,,,,,,,,,,,,,,,,,,,,,,,,,,,,,,,,,,,
451889,001,2022-11-20_23h59.58.134,Info_measure_main_exp,2022.2.2,Win32,61.94251734,,,,,,,,,,,,,,,,,,masks/mask_001.jpg,,,,,,,,,,,,,,,,,,,,,,,,,,,,,,,,,,,,,,,,,,,,,,,,0,4,4,0,1,,,,,,,,,,,,,,,,,,,,,,,,,,,,,,,,,,,,,,,,,
451889,001,2022-11-20_23h59.58.134,Info_measure_main_exp,2022.2.2,Win32,61.94251734,,,,,,,,,,,,,,,,,,,,,,,,,,,,,,5,0.8913,1,,,,,,,,,,,,0,131,5,5,2274,2154,absent_patch/patch0002274.jpg,absent_patch/patch0002154.jpg,,,,,,,,,,,,,,,,,,,,0.064814843,-0.017592621,1,0,0,response3disk,17,0,-0.002777778,1,0,0,center_square,0,16,16,23,1,,,,,,,,,,,,,,,,,,,,,,,
451889,001,2022-11-20_23h59.58.134,Info_measure_main_exp,2022.2.2,Win32,61.94251734,,,,,,,,,,,,,,,,,,masks/mask_003.jpg,,,,,,,,,,,,,,,,,,,,,,,,,,,,,,,,,,,,,,,,,,,0,0,0,2,1,,,,,,,,,,,,,,,,,,,,,,,,,,,,,,,,,,,,,,,,,,,,,,
451889,001,2022-11-20_23h59.58.134,Info_measure_main_exp,2022.2.2,Win32,61.94251734,,,,,,,,,,,,,,,,,,masks/mask_004.jpg,,,,,,,,,,,,,,,,,,,,,,,,,,,,,,,,,,,,,,,,,,,0,1,1,3,1,,,,,,,,,,,,,,,,,,,,,,,,,,,,,,,,,,,,,,,,,,,,,,
451889,001,2022-11-20_23h59.58.134,Info_measure_main_exp,2022.2.2,Win32,61.94251734,,,,,,,,,,,,,,,,,,masks/mask_002.jpg,,,,,,,,,,,,,,,,,,,,,,,,,,,,,,,,,,,,,,,,,,,0,2,2,1,1,,,,,,,,,,,,,,,,,,,,,,,,,,,,,,,,,,,,,,,,,,,,,,
451889,001,2022-11-20_23h59.58.134,Info_measure_main_exp,2022.2.2,Win32,61.94251734,,,,,,,,,,,,,,,,,,masks/mask_001.jpg,,,,,,,,,,,,,,,,,,,,,,,,,,,,,,,,,,,,,,,,,,,0,3,3,0,1,,,,,,,,,,,,,,,,,,,,,,,,,,,,,,,,,,,,,,,,,,,,,,
451889,001,2022-11-20_23h59.58.134,Info_measure_main_exp,2022.2.2,Win32,61.94251734,,,,,,,,,,,,,,,,,,masks/mask_005.jpg,,,,,,,,,,,,,,,,,,,,,,,,,,,,,,,,,,,,,,,,,,,0,4,4,4,1,,,,,,,,,,,,,,,,,,,,,,,,,,,,,,,,,,,,,,,,,,,,,,
451889,001,2022-11-20_23h59.58.134,Info_measure_main_exp,2022.2.2,Win32,61.94251734,,,,,,,,,,,,,,,,,,masks/mask_002.jpg,,,,,,,,,,,,,,,,,,,,,,,,,,,,,,,,,,,,,,,,,,,,,,,,0,0,0,1,1,,,,,,,,,,,,,,,,,,,,,,,,,,,,,,,,,,,,,,,,,
451889,001,2022-11-20_23h59.58.134,Info_measure_main_exp,2022.2.2,Win32,61.94251734,,,,,,,,,,,,,,,,,,masks/mask_005.jpg,,,,,,,,,,,,,,,,,,,,,,,,,,,,,,,,,,,,,,,,,,,,,,,,0,1,1,4,1,,,,,,,,,,,,,,,,,,,,,,,,,,,,,,,,,,,,,,,,,
451889,001,2022-11-20_23h59.58.134,Info_measure_main_exp,2022.2.2,Win32,61.94251734,,,,,,,,,,,,,,,,,,masks/mask_003.jpg,,,,,,,,,,,,,,,,,,,,,,,,,,,,,,,,,,,,,,,,,,,,,,,,0,2,2,2,1,,,,,,,,,,,,,,,,,,,,,,,,,,,,,,,,,,,,,,,,,
451889,001,2022-11-20_23h59.58.134,Info_measure_main_exp,2022.2.2,Win32,61.94251734,,,,,,,,,,,,,,,,,,masks/mask_001.jpg,,,,,,,,,,,,,,,,,,,,,,,,,,,,,,,,,,,,,,,,,,,,,,,,0,3,3,0,1,,,,,,,,,,,,,,,,,,,,,,,,,,,,,,,,,,,,,,,,,
451889,001,2022-11-20_23h59.58.134,Info_measure_main_exp,2022.2.2,Win32,61.94251734,,,,,,,,,,,,,,,,,,masks/mask_004.jpg,,,,,,,,,,,,,,,,,,,,,,,,,,,,,,,,,,,,,,,,,,,,,,,,0,4,4,3,1,,,,,,,,,,,,,,,,,,,,,,,,,,,,,,,,,,,,,,,,,
451889,001,2022-11-20_23h59.58.134,Info_measure_main_exp,2022.2.2,Win32,61.94251734,,,,,,,,,,,,,,,,,,,,,,,,,,,,,,3,0.8237,1,,,,,,,,,,,,0,131,5,5,2298,2142,absent_patch/patch0002298.jpg,absent_patch/patch0002142.jpg,,,,,,,,,,,,,,,,,,,,-0.046296268,-0.067592621,1,0,0,response5disk,18,0.001851908,-0.014814843,1,0,0,center_square,0,17,17,49,1,,,,,,,,,,,,,,,,,,,,,,,
451889,001,2022-11-20_23h59.58.134,Info_measure_main_exp,2022.2.2,Win32,61.94251734,,,,,,,,,,,,,,,,,,masks/mask_002.jpg,,,,,,,,,,,,,,,,,,,,,,,,,,,,,,,,,,,,,,,,,,,0,0,0,1,1,,,,,,,,,,,,,,,,,,,,,,,,,,,,,,,,,,,,,,,,,,,,,,
451889,001,2022-11-20_23h59.58.134,Info_measure_main_exp,2022.2.2,Win32,61.94251734,,,,,,,,,,,,,,,,,,masks/mask_004.jpg,,,,,,,,,,,,,,,,,,,,,,,,,,,,,,,,,,,,,,,,,,,0,1,1,3,1,,,,,,,,,,,,,,,,,,,,,,,,,,,,,,,,,,,,,,,,,,,,,,
451889,001,2022-11-20_23h59.58.134,Info_measure_main_exp,2022.2.2,Win32,61.94251734,,,,,,,,,,,,,,,,,,masks/mask_001.jpg,,,,,,,,,,,,,,,,,,,,,,,,,,,,,,,,,,,,,,,,,,,0,2,2,0,1,,,,,,,,,,,,,,,,,,,,,,,,,,,,,,,,,,,,,,,,,,,,,,
451889,001,2022-11-20_23h59.58.134,Info_measure_main_exp,2022.2.2,Win32,61.94251734,,,,,,,,,,,,,,,,,,masks/mask_003.jpg,,,,,,,,,,,,,,,,,,,,,,,,,,,,,,,,,,,,,,,,,,,0,3,3,2,1,,,,,,,,,,,,,,,,,,,,,,,,,,,,,,,,,,,,,,,,,,,,,,
451889,001,2022-11-20_23h59.58.134,Info_measure_main_exp,2022.2.2,Win32,61.94251734,,,,,,,,,,,,,,,,,,masks/mask_005.jpg,,,,,,,,,,,,,,,,,,,,,,,,,,,,,,,,,,,,,,,,,,,0,4,4,4,1,,,,,,,,,,,,,,,,,,,,,,,,,,,,,,,,,,,,,,,,,,,,,,
451889,001,2022-11-20_23h59.58.134,Info_measure_main_exp,2022.2.2,Win32,61.94251734,,,,,,,,,,,,,,,,,,masks/mask_003.jpg,,,,,,,,,,,,,,,,,,,,,,,,,,,,,,,,,,,,,,,,,,,,,,,,0,0,0,2,1,,,,,,,,,,,,,,,,,,,,,,,,,,,,,,,,,,,,,,,,,
451889,001,2022-11-20_23h59.58.134,Info_measure_main_exp,2022.2.2,Win32,61.94251734,,,,,,,,,,,,,,,,,,masks/mask_001.jpg,,,,,,,,,,,,,,,,,,,,,,,,,,,,,,,,,,,,,,,,,,,,,,,,0,1,1,0,1,,,,,,,,,,,,,,,,,,,,,,,,,,,,,,,,,,,,,,,,,
451889,001,2022-11-20_23h59.58.134,Info_measure_main_exp,2022.2.2,Win32,61.94251734,,,,,,,,,,,,,,,,,,masks/mask_002.jpg,,,,,,,,,,,,,,,,,,,,,,,,,,,,,,,,,,,,,,,,,,,,,,,,0,2,2,1,1,,,,,,,,,,,,,,,,,,,,,,,,,,,,,,,,,,,,,,,,,
451889,001,2022-11-20_23h59.58.134,Info_measure_main_exp,2022.2.2,Win32,61.94251734,,,,,,,,,,,,,,,,,,masks/mask_005.jpg,,,,,,,,,,,,,,,,,,,,,,,,,,,,,,,,,,,,,,,,,,,,,,,,0,3,3,4,1,,,,,,,,,,,,,,,,,,,,,,,,,,,,,,,,,,,,,,,,,
451889,001,2022-11-20_23h59.58.134,Info_measure_main_exp,2022.2.2,Win32,61.94251734,,,,,,,,,,,,,,,,,,masks/mask_004.jpg,,,,,,,,,,,,,,,,,,,,,,,,,,,,,,,,,,,,,,,,,,,,,,,,0,4,4,3,1,,,,,,,,,,,,,,,,,,,,,,,,,,,,,,,,,,,,,,,,,
451889,001,2022-11-20_23h59.58.134,Info_measure_main_exp,2022.2.2,Win32,61.94251734,,,,,,,,,,,,,,,,,,,,,,,,,,,,,,3,1.5665,1,,,,,,,,,,,,0,131,5,5,2274,2178,absent_patch/patch0002274.jpg,absent_patch/patch0002178.jpg,,,,,,,,,,,,,,,,,,,,-0.041666667,-0.082407422,1,0,0,response5disk,19,0.012037065,0.00370369,1,0,0,center_square,0,18,18,117,1,,,,,,,,,,,,,,,,,,,,,,,
451889,001,2022-11-20_23h59.58.134,Info_measure_main_exp,2022.2.2,Win32,61.94251734,,,,,,,,,,,,,,,,,,masks/mask_003.jpg,,,,,,,,,,,,,,,,,,,,,,,,,,,,,,,,,,,,,,,,,,,0,0,0,2,1,,,,,,,,,,,,,,,,,,,,,,,,,,,,,,,,,,,,,,,,,,,,,,
451889,001,2022-11-20_23h59.58.134,Info_measure_main_exp,2022.2.2,Win32,61.94251734,,,,,,,,,,,,,,,,,,masks/mask_002.jpg,,,,,,,,,,,,,,,,,,,,,,,,,,,,,,,,,,,,,,,,,,,0,1,1,1,1,,,,,,,,,,,,,,,,,,,,,,,,,,,,,,,,,,,,,,,,,,,,,,
451889,001,2022-11-20_23h59.58.134,Info_measure_main_exp,2022.2.2,Win32,61.94251734,,,,,,,,,,,,,,,,,,masks/mask_001.jpg,,,,,,,,,,,,,,,,,,,,,,,,,,,,,,,,,,,,,,,,,,,0,2,2,0,1,,,,,,,,,,,,,,,,,,,,,,,,,,,,,,,,,,,,,,,,,,,,,,
451889,001,2022-11-20_23h59.58.134,Info_measure_main_exp,2022.2.2,Win32,61.94251734,,,,,,,,,,,,,,,,,,masks/mask_005.jpg,,,,,,,,,,,,,,,,,,,,,,,,,,,,,,,,,,,,,,,,,,,0,3,3,4,1,,,,,,,,,,,,,,,,,,,,,,,,,,,,,,,,,,,,,,,,,,,,,,
451889,001,2022-11-20_23h59.58.134,Info_measure_main_exp,2022.2.2,Win32,61.94251734,,,,,,,,,,,,,,,,,,masks/mask_004.jpg,,,,,,,,,,,,,,,,,,,,,,,,,,,,,,,,,,,,,,,,,,,0,4,4,3,1,,,,,,,,,,,,,,,,,,,,,,,,,,,,,,,,,,,,,,,,,,,,,,
451889,001,2022-11-20_23h59.58.134,Info_measure_main_exp,2022.2.2,Win32,61.94251734,,,,,,,,,,,,,,,,,,masks/mask_001.jpg,,,,,,,,,,,,,,,,,,,,,,,,,,,,,,,,,,,,,,,,,,,,,,,,0,0,0,0,1,,,,,,,,,,,,,,,,,,,,,,,,,,,,,,,,,,,,,,,,,
451889,001,2022-11-20_23h59.58.134,Info_measure_main_exp,2022.2.2,Win32,61.94251734,,,,,,,,,,,,,,,,,,masks/mask_003.jpg,,,,,,,,,,,,,,,,,,,,,,,,,,,,,,,,,,,,,,,,,,,,,,,,0,1,1,2,1,,,,,,,,,,,,,,,,,,,,,,,,,,,,,,,,,,,,,,,,,
451889,001,2022-11-20_23h59.58.134,Info_measure_main_exp,2022.2.2,Win32,61.94251734,,,,,,,,,,,,,,,,,,masks/mask_002.jpg,,,,,,,,,,,,,,,,,,,,,,,,,,,,,,,,,,,,,,,,,,,,,,,,0,2,2,1,1,,,,,,,,,,,,,,,,,,,,,,,,,,,,,,,,,,,,,,,,,
451889,001,2022-11-20_23h59.58.134,Info_measure_main_exp,2022.2.2,Win32,61.94251734,,,,,,,,,,,,,,,,,,masks/mask_005.jpg,,,,,,,,,,,,,,,,,,,,,,,,,,,,,,,,,,,,,,,,,,,,,,,,0,3,3,4,1,,,,,,,,,,,,,,,,,,,,,,,,,,,,,,,,,,,,,,,,,
451889,001,2022-11-20_23h59.58.134,Info_measure_main_exp,2022.2.2,Win32,61.94251734,,,,,,,,,,,,,,,,,,masks/mask_004.jpg,,,,,,,,,,,,,,,,,,,,,,,,,,,,,,,,,,,,,,,,,,,,,,,,0,4,4,3,1,,,,,,,,,,,,,,,,,,,,,,,,,,,,,,,,,,,,,,,,,
451889,001,2022-11-20_23h59.58.134,Info_measure_main_exp,2022.2.2,Win32,61.94251734,,,,,,,,,,,,,,,,,,,,,,,,,,,,,,0,0.6335,1,,,,,,,,,,,,0,131,5,5,2190,2190,absent_patch/patch0002190.jpg,absent_patch/patch0002190.jpg,,,,,,,,,,,,,,,,,,,,-0.050925869,0.11851849,1,0,0,response7disk,20,-0.009259203,0.014814801,1,0,0,center_square,0,19,19,86,1,,,,,,,,,,,,,,,,,,,,,,,
451889,001,2022-11-20_23h59.58.134,Info_measure_main_exp,2022.2.2,Win32,61.94251734,,,,,,,,,,,,,,,,,,masks/mask_003.jpg,,,,,,,,,,,,,,,,,,,,,,,,,,,,,,,,,,,,,,,,,,,0,0,0,2,1,,,,,,,,,,,,,,,,,,,,,,,,,,,,,,,,,,,,,,,,,,,,,,
451889,001,2022-11-20_23h59.58.134,Info_measure_main_exp,2022.2.2,Win32,61.94251734,,,,,,,,,,,,,,,,,,masks/mask_005.jpg,,,,,,,,,,,,,,,,,,,,,,,,,,,,,,,,,,,,,,,,,,,0,1,1,4,1,,,,,,,,,,,,,,,,,,,,,,,,,,,,,,,,,,,,,,,,,,,,,,
451889,001,2022-11-20_23h59.58.134,Info_measure_main_exp,2022.2.2,Win32,61.94251734,,,,,,,,,,,,,,,,,,masks/mask_004.jpg,,,,,,,,,,,,,,,,,,,,,,,,,,,,,,,,,,,,,,,,,,,0,2,2,3,1,,,,,,,,,,,,,,,,,,,,,,,,,,,,,,,,,,,,,,,,,,,,,,
451889,001,2022-11-20_23h59.58.134,Info_measure_main_exp,2022.2.2,Win32,61.94251734,,,,,,,,,,,,,,,,,,masks/mask_001.jpg,,,,,,,,,,,,,,,,,,,,,,,,,,,,,,,,,,,,,,,,,,,0,3,3,0,1,,,,,,,,,,,,,,,,,,,,,,,,,,,,,,,,,,,,,,,,,,,,,,
451889,001,2022-11-20_23h59.58.134,Info_measure_main_exp,2022.2.2,Win32,61.94251734,,,,,,,,,,,,,,,,,,masks/mask_002.jpg,,,,,,,,,,,,,,,,,,,,,,,,,,,,,,,,,,,,,,,,,,,0,4,4,1,1,,,,,,,,,,,,,,,,,,,,,,,,,,,,,,,,,,,,,,,,,,,,,,
451889,001,2022-11-20_23h59.58.134,Info_measure_main_exp,2022.2.2,Win32,61.94251734,,,,,,,,,,,,,,,,,,masks/mask_003.jpg,,,,,,,,,,,,,,,,,,,,,,,,,,,,,,,,,,,,,,,,,,,,,,,,0,0,0,2,1,,,,,,,,,,,,,,,,,,,,,,,,,,,,,,,,,,,,,,,,,
451889,001,2022-11-20_23h59.58.134,Info_measure_main_exp,2022.2.2,Win32,61.94251734,,,,,,,,,,,,,,,,,,masks/mask_001.jpg,,,,,,,,,,,,,,,,,,,,,,,,,,,,,,,,,,,,,,,,,,,,,,,,0,1,1,0,1,,,,,,,,,,,,,,,,,,,,,,,,,,,,,,,,,,,,,,,,,
451889,001,2022-11-20_23h59.58.134,Info_measure_main_exp,2022.2.2,Win32,61.94251734,,,,,,,,,,,,,,,,,,masks/mask_004.jpg,,,,,,,,,,,,,,,,,,,,,,,,,,,,,,,,,,,,,,,,,,,,,,,,0,2,2,3,1,,,,,,,,,,,,,,,,,,,,,,,,,,,,,,,,,,,,,,,,,
451889,001,2022-11-20_23h59.58.134,Info_measure_main_exp,2022.2.2,Win32,61.94251734,,,,,,,,,,,,,,,,,,masks/mask_005.jpg,,,,,,,,,,,,,,,,,,,,,,,,,,,,,,,,,,,,,,,,,,,,,,,,0,3,3,4,1,,,,,,,,,,,,,,,,,,,,,,,,,,,,,,,,,,,,,,,,,
451889,001,2022-11-20_23h59.58.134,Info_measure_main_exp,2022.2.2,Win32,61.94251734,,,,,,,,,,,,,,,,,,masks/mask_002.jpg,,,,,,,,,,,,,,,,,,,,,,,,,,,,,,,,,,,,,,,,,,,,,,,,0,4,4,1,1,,,,,,,,,,,,,,,,,,,,,,,,,,,,,,,,,,,,,,,,,
451889,001,2022-11-20_23h59.58.134,Info_measure_main_exp,2022.2.2,Win32,61.94251734,,,,,,,,,,,,,,,,,,,,,,,,,,,,,,6,1.1826,1,,,,,,,,,,,,0,131,5,5,2178,2154,absent_patch/patch0002178.jpg,absent_patch/patch0002154.jpg,,,,,,,,,,,,,,,,,,,,0.13148151,0.083333333,1,0,0,response1disk,21,-0.005555556,0.002777778,1,0,0,center_square,0,20,20,63,1,,,,,,,,,,,,,,,,,,,,,,,
451889,001,2022-11-20_23h59.58.134,Info_measure_main_exp,2022.2.2,Win32,61.94251734,,,,,,,,,,,,,,,,,,masks/mask_002.jpg,,,,,,,,,,,,,,,,,,,,,,,,,,,,,,,,,,,,,,,,,,,0,0,0,1,1,,,,,,,,,,,,,,,,,,,,,,,,,,,,,,,,,,,,,,,,,,,,,,
451889,001,2022-11-20_23h59.58.134,Info_measure_main_exp,2022.2.2,Win32,61.94251734,,,,,,,,,,,,,,,,,,masks/mask_001.jpg,,,,,,,,,,,,,,,,,,,,,,,,,,,,,,,,,,,,,,,,,,,0,1,1,0,1,,,,,,,,,,,,,,,,,,,,,,,,,,,,,,,,,,,,,,,,,,,,,,
451889,001,2022-11-20_23h59.58.134,Info_measure_main_exp,2022.2.2,Win32,61.94251734,,,,,,,,,,,,,,,,,,masks/mask_005.jpg,,,,,,,,,,,,,,,,,,,,,,,,,,,,,,,,,,,,,,,,,,,0,2,2,4,1,,,,,,,,,,,,,,,,,,,,,,,,,,,,,,,,,,,,,,,,,,,,,,
451889,001,2022-11-20_23h59.58.134,Info_measure_main_exp,2022.2.2,Win32,61.94251734,,,,,,,,,,,,,,,,,,masks/mask_003.jpg,,,,,,,,,,,,,,,,,,,,,,,,,,,,,,,,,,,,,,,,,,,0,3,3,2,1,,,,,,,,,,,,,,,,,,,,,,,,,,,,,,,,,,,,,,,,,,,,,,
451889,001,2022-11-20_23h59.58.134,Info_measure_main_exp,2022.2.2,Win32,61.94251734,,,,,,,,,,,,,,,,,,masks/mask_004.jpg,,,,,,,,,,,,,,,,,,,,,,,,,,,,,,,,,,,,,,,,,,,0,4,4,3,1,,,,,,,,,,,,,,,,,,,,,,,,,,,,,,,,,,,,,,,,,,,,,,
451889,001,2022-11-20_23h59.58.134,Info_measure_main_exp,2022.2.2,Win32,61.94251734,,,,,,,,,,,,,,,,,,masks/mask_004.jpg,,,,,,,,,,,,,,,,,,,,,,,,,,,,,,,,,,,,,,,,,,,,,,,,0,0,0,3,1,,,,,,,,,,,,,,,,,,,,,,,,,,,,,,,,,,,,,,,,,
451889,001,2022-11-20_23h59.58.134,Info_measure_main_exp,2022.2.2,Win32,61.94251734,,,,,,,,,,,,,,,,,,masks/mask_003.jpg,,,,,,,,,,,,,,,,,,,,,,,,,,,,,,,,,,,,,,,,,,,,,,,,0,1,1,2,1,,,,,,,,,,,,,,,,,,,,,,,,,,,,,,,,,,,,,,,,,
451889,001,2022-11-20_23h59.58.134,Info_measure_main_exp,2022.2.2,Win32,61.94251734,,,,,,,,,,,,,,,,,,masks/mask_001.jpg,,,,,,,,,,,,,,,,,,,,,,,,,,,,,,,,,,,,,,,,,,,,,,,,0,2,2,0,1,,,,,,,,,,,,,,,,,,,,,,,,,,,,,,,,,,,,,,,,,
451889,001,2022-11-20_23h59.58.134,Info_measure_main_exp,2022.2.2,Win32,61.94251734,,,,,,,,,,,,,,,,,,masks/mask_005.jpg,,,,,,,,,,,,,,,,,,,,,,,,,,,,,,,,,,,,,,,,,,,,,,,,0,3,3,4,1,,,,,,,,,,,,,,,,,,,,,,,,,,,,,,,,,,,,,,,,,
451889,001,2022-11-20_23h59.58.134,Info_measure_main_exp,2022.2.2,Win32,61.94251734,,,,,,,,,,,,,,,,,,masks/mask_002.jpg,,,,,,,,,,,,,,,,,,,,,,,,,,,,,,,,,,,,,,,,,,,,,,,,0,4,4,1,1,,,,,,,,,,,,,,,,,,,,,,,,,,,,,,,,,,,,,,,,,
451889,001,2022-11-20_23h59.58.134,Info_measure_main_exp,2022.2.2,Win32,61.94251734,,,,,,,,,,,,,,,,,,,,,,,,,,,,,,4,1.6583,1,,,,,,,,,,,,0,131,5,5,1974,2166,absent_patch/patch0001974.jpg,absent_patch/patch0002166.jpg,,,,,,,,,,,,,,,,,,,,0.053703732,-0.103703732,1,0,0,response3disk,22,0.012037065,-0.001851866,1,0,0,center_square,0,21,21,77,1,,,,,,,,,,,,,,,,,,,,,,,
451889,001,2022-11-20_23h59.58.134,Info_measure_main_exp,2022.2.2,Win32,61.94251734,,,,,,,,,,,,,,,,,,masks/mask_004.jpg,,,,,,,,,,,,,,,,,,,,,,,,,,,,,,,,,,,,,,,,,,,0,0,0,3,1,,,,,,,,,,,,,,,,,,,,,,,,,,,,,,,,,,,,,,,,,,,,,,
451889,001,2022-11-20_23h59.58.134,Info_measure_main_exp,2022.2.2,Win32,61.94251734,,,,,,,,,,,,,,,,,,masks/mask_001.jpg,,,,,,,,,,,,,,,,,,,,,,,,,,,,,,,,,,,,,,,,,,,0,1,1,0,1,,,,,,,,,,,,,,,,,,,,,,,,,,,,,,,,,,,,,,,,,,,,,,
451889,001,2022-11-20_23h59.58.134,Info_measure_main_exp,2022.2.2,Win32,61.94251734,,,,,,,,,,,,,,,,,,masks/mask_002.jpg,,,,,,,,,,,,,,,,,,,,,,,,,,,,,,,,,,,,,,,,,,,0,2,2,1,1,,,,,,,,,,,,,,,,,,,,,,,,,,,,,,,,,,,,,,,,,,,,,,
451889,001,2022-11-20_23h59.58.134,Info_measure_main_exp,2022.2.2,Win32,61.94251734,,,,,,,,,,,,,,,,,,masks/mask_005.jpg,,,,,,,,,,,,,,,,,,,,,,,,,,,,,,,,,,,,,,,,,,,0,3,3,4,1,,,,,,,,,,,,,,,,,,,,,,,,,,,,,,,,,,,,,,,,,,,,,,
451889,001,2022-11-20_23h59.58.134,Info_measure_main_exp,2022.2.2,Win32,61.94251734,,,,,,,,,,,,,,,,,,masks/mask_003.jpg,,,,,,,,,,,,,,,,,,,,,,,,,,,,,,,,,,,,,,,,,,,0,4,4,2,1,,,,,,,,,,,,,,,,,,,,,,,,,,,,,,,,,,,,,,,,,,,,,,
451889,001,2022-11-20_23h59.58.134,Info_measure_main_exp,2022.2.2,Win32,61.94251734,,,,,,,,,,,,,,,,,,masks/mask_002.jpg,,,,,,,,,,,,,,,,,,,,,,,,,,,,,,,,,,,,,,,,,,,,,,,,0,0,0,1,1,,,,,,,,,,,,,,,,,,,,,,,,,,,,,,,,,,,,,,,,,
451889,001,2022-11-20_23h59.58.134,Info_measure_main_exp,2022.2.2,Win32,61.94251734,,,,,,,,,,,,,,,,,,masks/mask_001.jpg,,,,,,,,,,,,,,,,,,,,,,,,,,,,,,,,,,,,,,,,,,,,,,,,0,1,1,0,1,,,,,,,,,,,,,,,,,,,,,,,,,,,,,,,,,,,,,,,,,
451889,001,2022-11-20_23h59.58.134,Info_measure_main_exp,2022.2.2,Win32,61.94251734,,,,,,,,,,,,,,,,,,masks/mask_005.jpg,,,,,,,,,,,,,,,,,,,,,,,,,,,,,,,,,,,,,,,,,,,,,,,,0,2,2,4,1,,,,,,,,,,,,,,,,,,,,,,,,,,,,,,,,,,,,,,,,,
451889,001,2022-11-20_23h59.58.134,Info_measure_main_exp,2022.2.2,Win32,61.94251734,,,,,,,,,,,,,,,,,,masks/mask_004.jpg,,,,,,,,,,,,,,,,,,,,,,,,,,,,,,,,,,,,,,,,,,,,,,,,0,3,3,3,1,,,,,,,,,,,,,,,,,,,,,,,,,,,,,,,,,,,,,,,,,
451889,001,2022-11-20_23h59.58.134,Info_measure_main_exp,2022.2.2,Win32,61.94251734,,,,,,,,,,,,,,,,,,masks/mask_003.jpg,,,,,,,,,,,,,,,,,,,,,,,,,,,,,,,,,,,,,,,,,,,,,,,,0,4,4,2,1,,,,,,,,,,,,,,,,,,,,,,,,,,,,,,,,,,,,,,,,,
451889,001,2022-11-20_23h59.58.134,Info_measure_main_exp,2022.2.2,Win32,61.94251734,,,,,,,,,,,,,,,,,,,,,,,,,,,,,,4,1.033,1,,,,,,,,,,,,0,131,5,5,2190,2178,absent_patch/patch0002190.jpg,absent_patch/patch0002178.jpg,,,,,,,,,,,,,,,,,,,,0.024074131,-0.058333333,1,0,0,response3disk,23,0.000925954,-0.008333333,1,0,0,center_square,0,22,22,14,1,,,,,,,,,,,,,,,,,,,,,,,
451889,001,2022-11-20_23h59.58.134,Info_measure_main_exp,2022.2.2,Win32,61.94251734,,,,,,,,,,,,,,,,,,masks/mask_004.jpg,,,,,,,,,,,,,,,,,,,,,,,,,,,,,,,,,,,,,,,,,,,0,0,0,3,1,,,,,,,,,,,,,,,,,,,,,,,,,,,,,,,,,,,,,,,,,,,,,,
451889,001,2022-11-20_23h59.58.134,Info_measure_main_exp,2022.2.2,Win32,61.94251734,,,,,,,,,,,,,,,,,,masks/mask_003.jpg,,,,,,,,,,,,,,,,,,,,,,,,,,,,,,,,,,,,,,,,,,,0,1,1,2,1,,,,,,,,,,,,,,,,,,,,,,,,,,,,,,,,,,,,,,,,,,,,,,
451889,001,2022-11-20_23h59.58.134,Info_measure_main_exp,2022.2.2,Win32,61.94251734,,,,,,,,,,,,,,,,,,masks/mask_001.jpg,,,,,,,,,,,,,,,,,,,,,,,,,,,,,,,,,,,,,,,,,,,0,2,2,0,1,,,,,,,,,,,,,,,,,,,,,,,,,,,,,,,,,,,,,,,,,,,,,,
451889,001,2022-11-20_23h59.58.134,Info_measure_main_exp,2022.2.2,Win32,61.94251734,,,,,,,,,,,,,,,,,,masks/mask_002.jpg,,,,,,,,,,,,,,,,,,,,,,,,,,,,,,,,,,,,,,,,,,,0,3,3,1,1,,,,,,,,,,,,,,,,,,,,,,,,,,,,,,,,,,,,,,,,,,,,,,
451889,001,2022-11-20_23h59.58.134,Info_measure_main_exp,2022.2.2,Win32,61.94251734,,,,,,,,,,,,,,,,,,masks/mask_005.jpg,,,,,,,,,,,,,,,,,,,,,,,,,,,,,,,,,,,,,,,,,,,0,4,4,4,1,,,,,,,,,,,,,,,,,,,,,,,,,,,,,,,,,,,,,,,,,,,,,,
451889,001,2022-11-20_23h59.58.134,Info_measure_main_exp,2022.2.2,Win32,61.94251734,,,,,,,,,,,,,,,,,,masks/mask_004.jpg,,,,,,,,,,,,,,,,,,,,,,,,,,,,,,,,,,,,,,,,,,,,,,,,0,0,0,3,1,,,,,,,,,,,,,,,,,,,,,,,,,,,,,,,,,,,,,,,,,
451889,001,2022-11-20_23h59.58.134,Info_measure_main_exp,2022.2.2,Win32,61.94251734,,,,,,,,,,,,,,,,,,masks/mask_003.jpg,,,,,,,,,,,,,,,,,,,,,,,,,,,,,,,,,,,,,,,,,,,,,,,,0,1,1,2,1,,,,,,,,,,,,,,,,,,,,,,,,,,,,,,,,,,,,,,,,,
451889,001,2022-11-20_23h59.58.134,Info_measure_main_exp,2022.2.2,Win32,61.94251734,,,,,,,,,,,,,,,,,,masks/mask_001.jpg,,,,,,,,,,,,,,,,,,,,,,,,,,,,,,,,,,,,,,,,,,,,,,,,0,2,2,0,1,,,,,,,,,,,,,,,,,,,,,,,,,,,,,,,,,,,,,,,,,
451889,001,2022-11-20_23h59.58.134,Info_measure_main_exp,2022.2.2,Win32,61.94251734,,,,,,,,,,,,,,,,,,masks/mask_005.jpg,,,,,,,,,,,,,,,,,,,,,,,,,,,,,,,,,,,,,,,,,,,,,,,,0,3,3,4,1,,,,,,,,,,,,,,,,,,,,,,,,,,,,,,,,,,,,,,,,,
451889,001,2022-11-20_23h59.58.134,Info_measure_main_exp,2022.2.2,Win32,61.94251734,,,,,,,,,,,,,,,,,,masks/mask_002.jpg,,,,,,,,,,,,,,,,,,,,,,,,,,,,,,,,,,,,,,,,,,,,,,,,0,4,4,1,1,,,,,,,,,,,,,,,,,,,,,,,,,,,,,,,,,,,,,,,,,
451889,001,2022-11-20_23h59.58.134,Info_measure_main_exp,2022.2.2,Win32,61.94251734,,,,,,,,,,,,,,,,,,,,,,,,,,,,,,5,0.9669,1,,,,,,,,,,,,1,131,5,5,1,2274,present_patch/cong_131_5_a.jpg,absent_patch/patch0002274.jpg,,,,,,,,,,,,,,,,,,,,0.085185242,-0.043518533,1,0,0,response3disk,24,0.001851908,-0.00648151,1,0,0,center_square,0,23,23,105,1,,,,,,,,,,,,,,,,,,,,,,,
451889,001,2022-11-20_23h59.58.134,Info_measure_main_exp,2022.2.2,Win32,61.94251734,,,,,,,,,,,,,,,,,,masks/mask_004.jpg,,,,,,,,,,,,,,,,,,,,,,,,,,,,,,,,,,,,,,,,,,,0,0,0,3,1,,,,,,,,,,,,,,,,,,,,,,,,,,,,,,,,,,,,,,,,,,,,,,
451889,001,2022-11-20_23h59.58.134,Info_measure_main_exp,2022.2.2,Win32,61.94251734,,,,,,,,,,,,,,,,,,masks/mask_001.jpg,,,,,,,,,,,,,,,,,,,,,,,,,,,,,,,,,,,,,,,,,,,0,1,1,0,1,,,,,,,,,,,,,,,,,,,,,,,,,,,,,,,,,,,,,,,,,,,,,,
451889,001,2022-11-20_23h59.58.134,Info_measure_main_exp,2022.2.2,Win32,61.94251734,,,,,,,,,,,,,,,,,,masks/mask_005.jpg,,,,,,,,,,,,,,,,,,,,,,,,,,,,,,,,,,,,,,,,,,,0,2,2,4,1,,,,,,,,,,,,,,,,,,,,,,,,,,,,,,,,,,,,,,,,,,,,,,
451889,001,2022-11-20_23h59.58.134,Info_measure_main_exp,2022.2.2,Win32,61.94251734,,,,,,,,,,,,,,,,,,masks/mask_002.jpg,,,,,,,,,,,,,,,,,,,,,,,,,,,,,,,,,,,,,,,,,,,0,3,3,1,1,,,,,,,,,,,,,,,,,,,,,,,,,,,,,,,,,,,,,,,,,,,,,,
451889,001,2022-11-20_23h59.58.134,Info_measure_main_exp,2022.2.2,Win32,61.94251734,,,,,,,,,,,,,,,,,,masks/mask_003.jpg,,,,,,,,,,,,,,,,,,,,,,,,,,,,,,,,,,,,,,,,,,,0,4,4,2,1,,,,,,,,,,,,,,,,,,,,,,,,,,,,,,,,,,,,,,,,,,,,,,
451889,001,2022-11-20_23h59.58.134,Info_measure_main_exp,2022.2.2,Win32,61.94251734,,,,,,,,,,,,,,,,,,masks/mask_004.jpg,,,,,,,,,,,,,,,,,,,,,,,,,,,,,,,,,,,,,,,,,,,,,,,,0,0,0,3,1,,,,,,,,,,,,,,,,,,,,,,,,,,,,,,,,,,,,,,,,,
451889,001,2022-11-20_23h59.58.134,Info_measure_main_exp,2022.2.2,Win32,61.94251734,,,,,,,,,,,,,,,,,,masks/mask_005.jpg,,,,,,,,,,,,,,,,,,,,,,,,,,,,,,,,,,,,,,,,,,,,,,,,0,1,1,4,1,,,,,,,,,,,,,,,,,,,,,,,,,,,,,,,,,,,,,,,,,
451889,001,2022-11-20_23h59.58.134,Info_measure_main_exp,2022.2.2,Win32,61.94251734,,,,,,,,,,,,,,,,,,masks/mask_002.jpg,,,,,,,,,,,,,,,,,,,,,,,,,,,,,,,,,,,,,,,,,,,,,,,,0,2,2,1,1,,,,,,,,,,,,,,,,,,,,,,,,,,,,,,,,,,,,,,,,,
451889,001,2022-11-20_23h59.58.134,Info_measure_main_exp,2022.2.2,Win32,61.94251734,,,,,,,,,,,,,,,,,,masks/mask_003.jpg,,,,,,,,,,,,,,,,,,,,,,,,,,,,,,,,,,,,,,,,,,,,,,,,0,3,3,2,1,,,,,,,,,,,,,,,,,,,,,,,,,,,,,,,,,,,,,,,,,
451889,001,2022-11-20_23h59.58.134,Info_measure_main_exp,2022.2.2,Win32,61.94251734,,,,,,,,,,,,,,,,,,masks/mask_001.jpg,,,,,,,,,,,,,,,,,,,,,,,,,,,,,,,,,,,,,,,,,,,,,,,,0,4,4,0,1,,,,,,,,,,,,,,,,,,,,,,,,,,,,,,,,,,,,,,,,,
451889,001,2022-11-20_23h59.58.134,Info_measure_main_exp,2022.2.2,Win32,61.94251734,,,,,,,,,,,,,,,,,,,,,,,,,,,,,,2,2.0333,1,,,,,,,,,,,,0,131,5,5,1974,2250,absent_patch/patch0001974.jpg,absent_patch/patch0002250.jpg,,,,,,,,,,,,,,,,,,,,-0.082407379,-0.039814843,1,0,0,response5disk,25,0.00648151,-0.009259288,1,0,0,center_square,0,24,24,55,1,,,,,,,,,,,,,,,,,,,,,,,
451889,001,2022-11-20_23h59.58.134,Info_measure_main_exp,2022.2.2,Win32,61.94251734,,,,,,,,,,,,,,,,,,masks/mask_002.jpg,,,,,,,,,,,,,,,,,,,,,,,,,,,,,,,,,,,,,,,,,,,0,0,0,1,1,,,,,,,,,,,,,,,,,,,,,,,,,,,,,,,,,,,,,,,,,,,,,,
451889,001,2022-11-20_23h59.58.134,Info_measure_main_exp,2022.2.2,Win32,61.94251734,,,,,,,,,,,,,,,,,,masks/mask_001.jpg,,,,,,,,,,,,,,,,,,,,,,,,,,,,,,,,,,,,,,,,,,,0,1,1,0,1,,,,,,,,,,,,,,,,,,,,,,,,,,,,,,,,,,,,,,,,,,,,,,
451889,001,2022-11-20_23h59.58.134,Info_measure_main_exp,2022.2.2,Win32,61.94251734,,,,,,,,,,,,,,,,,,masks/mask_004.jpg,,,,,,,,,,,,,,,,,,,,,,,,,,,,,,,,,,,,,,,,,,,0,2,2,3,1,,,,,,,,,,,,,,,,,,,,,,,,,,,,,,,,,,,,,,,,,,,,,,
451889,001,2022-11-20_23h59.58.134,Info_measure_main_exp,2022.2.2,Win32,61.94251734,,,,,,,,,,,,,,,,,,masks/mask_005.jpg,,,,,,,,,,,,,,,,,,,,,,,,,,,,,,,,,,,,,,,,,,,0,3,3,4,1,,,,,,,,,,,,,,,,,,,,,,,,,,,,,,,,,,,,,,,,,,,,,,
451889,001,2022-11-20_23h59.58.134,Info_measure_main_exp,2022.2.2,Win32,61.94251734,,,,,,,,,,,,,,,,,,masks/mask_003.jpg,,,,,,,,,,,,,,,,,,,,,,,,,,,,,,,,,,,,,,,,,,,0,4,4,2,1,,,,,,,,,,,,,,,,,,,,,,,,,,,,,,,,,,,,,,,,,,,,,,
451889,001,2022-11-20_23h59.58.134,Info_measure_main_exp,2022.2.2,Win32,61.94251734,,,,,,,,,,,,,,,,,,masks/mask_004.jpg,,,,,,,,,,,,,,,,,,,,,,,,,,,,,,,,,,,,,,,,,,,,,,,,0,0,0,3,1,,,,,,,,,,,,,,,,,,,,,,,,,,,,,,,,,,,,,,,,,
451889,001,2022-11-20_23h59.58.134,Info_measure_main_exp,2022.2.2,Win32,61.94251734,,,,,,,,,,,,,,,,,,masks/mask_003.jpg,,,,,,,,,,,,,,,,,,,,,,,,,,,,,,,,,,,,,,,,,,,,,,,,0,1,1,2,1,,,,,,,,,,,,,,,,,,,,,,,,,,,,,,,,,,,,,,,,,
451889,001,2022-11-20_23h59.58.134,Info_measure_main_exp,2022.2.2,Win32,61.94251734,,,,,,,,,,,,,,,,,,masks/mask_001.jpg,,,,,,,,,,,,,,,,,,,,,,,,,,,,,,,,,,,,,,,,,,,,,,,,0,2,2,0,1,,,,,,,,,,,,,,,,,,,,,,,,,,,,,,,,,,,,,,,,,
451889,001,2022-11-20_23h59.58.134,Info_measure_main_exp,2022.2.2,Win32,61.94251734,,,,,,,,,,,,,,,,,,masks/mask_002.jpg,,,,,,,,,,,,,,,,,,,,,,,,,,,,,,,,,,,,,,,,,,,,,,,,0,3,3,1,1,,,,,,,,,,,,,,,,,,,,,,,,,,,,,,,,,,,,,,,,,
451889,001,2022-11-20_23h59.58.134,Info_measure_main_exp,2022.2.2,Win32,61.94251734,,,,,,,,,,,,,,,,,,masks/mask_005.jpg,,,,,,,,,,,,,,,,,,,,,,,,,,,,,,,,,,,,,,,,,,,,,,,,0,4,4,4,1,,,,,,,,,,,,,,,,,,,,,,,,,,,,,,,,,,,,,,,,,
451889,001,2022-11-20_23h59.58.134,Info_measure_main_exp,2022.2.2,Win32,61.94251734,,,,,,,,,,,,,,,,,,,,,,,,,,,,,,4,1.2893,1,,,,,,,,,,,,0,131,5,5,2238,2214,absent_patch/patch0002238.jpg,absent_patch/patch0002214.jpg,,,,,,,,,,,,,,,,,,,,0.025925954,-0.099074088,1,0,0,response3disk,26,-0.002777778,-0.010185199,1,0,0,center_square,0,25,25,81,1,,,,,,,,,,,,,,,,,,,,,,,
451889,001,2022-11-20_23h59.58.134,Info_measure_main_exp,2022.2.2,Win32,61.94251734,,,,,,,,,,,,,,,,,,masks/mask_002.jpg,,,,,,,,,,,,,,,,,,,,,,,,,,,,,,,,,,,,,,,,,,,0,0,0,1,1,,,,,,,,,,,,,,,,,,,,,,,,,,,,,,,,,,,,,,,,,,,,,,
451889,001,2022-11-20_23h59.58.134,Info_measure_main_exp,2022.2.2,Win32,61.94251734,,,,,,,,,,,,,,,,,,masks/mask_001.jpg,,,,,,,,,,,,,,,,,,,,,,,,,,,,,,,,,,,,,,,,,,,0,1,1,0,1,,,,,,,,,,,,,,,,,,,,,,,,,,,,,,,,,,,,,,,,,,,,,,
451889,001,2022-11-20_23h59.58.134,Info_measure_main_exp,2022.2.2,Win32,61.94251734,,,,,,,,,,,,,,,,,,masks/mask_003.jpg,,,,,,,,,,,,,,,,,,,,,,,,,,,,,,,,,,,,,,,,,,,0,2,2,2,1,,,,,,,,,,,,,,,,,,,,,,,,,,,,,,,,,,,,,,,,,,,,,,
451889,001,2022-11-20_23h59.58.134,Info_measure_main_exp,2022.2.2,Win32,61.94251734,,,,,,,,,,,,,,,,,,masks/mask_005.jpg,,,,,,,,,,,,,,,,,,,,,,,,,,,,,,,,,,,,,,,,,,,0,3,3,4,1,,,,,,,,,,,,,,,,,,,,,,,,,,,,,,,,,,,,,,,,,,,,,,
451889,001,2022-11-20_23h59.58.134,Info_measure_main_exp,2022.2.2,Win32,61.94251734,,,,,,,,,,,,,,,,,,masks/mask_004.jpg,,,,,,,,,,,,,,,,,,,,,,,,,,,,,,,,,,,,,,,,,,,0,4,4,3,1,,,,,,,,,,,,,,,,,,,,,,,,,,,,,,,,,,,,,,,,,,,,,,
451889,001,2022-11-20_23h59.58.134,Info_measure_main_exp,2022.2.2,Win32,61.94251734,,,,,,,,,,,,,,,,,,masks/mask_003.jpg,,,,,,,,,,,,,,,,,,,,,,,,,,,,,,,,,,,,,,,,,,,,,,,,0,0,0,2,1,,,,,,,,,,,,,,,,,,,,,,,,,,,,,,,,,,,,,,,,,
451889,001,2022-11-20_23h59.58.134,Info_measure_main_exp,2022.2.2,Win32,61.94251734,,,,,,,,,,,,,,,,,,masks/mask_004.jpg,,,,,,,,,,,,,,,,,,,,,,,,,,,,,,,,,,,,,,,,,,,,,,,,0,1,1,3,1,,,,,,,,,,,,,,,,,,,,,,,,,,,,,,,,,,,,,,,,,
451889,001,2022-11-20_23h59.58.134,Info_measure_main_exp,2022.2.2,Win32,61.94251734,,,,,,,,,,,,,,,,,,masks/mask_001.jpg,,,,,,,,,,,,,,,,,,,,,,,,,,,,,,,,,,,,,,,,,,,,,,,,0,2,2,0,1,,,,,,,,,,,,,,,,,,,,,,,,,,,,,,,,,,,,,,,,,
451889,001,2022-11-20_23h59.58.134,Info_measure_main_exp,2022.2.2,Win32,61.94251734,,,,,,,,,,,,,,,,,,masks/mask_005.jpg,,,,,,,,,,,,,,,,,,,,,,,,,,,,,,,,,,,,,,,,,,,,,,,,0,3,3,4,1,,,,,,,,,,,,,,,,,,,,,,,,,,,,,,,,,,,,,,,,,
451889,001,2022-11-20_23h59.58.134,Info_measure_main_exp,2022.2.2,Win32,61.94251734,,,,,,,,,,,,,,,,,,masks/mask_002.jpg,,,,,,,,,,,,,,,,,,,,,,,,,,,,,,,,,,,,,,,,,,,,,,,,0,4,4,1,1,,,,,,,,,,,,,,,,,,,,,,,,,,,,,,,,,,,,,,,,,
451889,001,2022-11-20_23h59.58.134,Info_measure_main_exp,2022.2.2,Win32,61.94251734,,,,,,,,,,,,,,,,,,,,,,,,,,,,,,2,0.8329,1,,,,,,,,,,,,0,131,5,5,2250,2166,absent_patch/patch0002250.jpg,absent_patch/patch0002166.jpg,,,,,,,,,,,,,,,,,,,,-0.085185157,-0.025,1,0,0,response5disk,27,0.011111111,0.008333333,1,0,0,center_square,0,26,26,60,1,,,,,,,,,,,,,,,,,,,,,,,
451889,001,2022-11-20_23h59.58.134,Info_measure_main_exp,2022.2.2,Win32,61.94251734,,,,,,,,,,,,,,,,,,masks/mask_003.jpg,,,,,,,,,,,,,,,,,,,,,,,,,,,,,,,,,,,,,,,,,,,0,0,0,2,1,,,,,,,,,,,,,,,,,,,,,,,,,,,,,,,,,,,,,,,,,,,,,,
451889,001,2022-11-20_23h59.58.134,Info_measure_main_exp,2022.2.2,Win32,61.94251734,,,,,,,,,,,,,,,,,,masks/mask_004.jpg,,,,,,,,,,,,,,,,,,,,,,,,,,,,,,,,,,,,,,,,,,,0,1,1,3,1,,,,,,,,,,,,,,,,,,,,,,,,,,,,,,,,,,,,,,,,,,,,,,
451889,001,2022-11-20_23h59.58.134,Info_measure_main_exp,2022.2.2,Win32,61.94251734,,,,,,,,,,,,,,,,,,masks/mask_002.jpg,,,,,,,,,,,,,,,,,,,,,,,,,,,,,,,,,,,,,,,,,,,0,2,2,1,1,,,,,,,,,,,,,,,,,,,,,,,,,,,,,,,,,,,,,,,,,,,,,,
451889,001,2022-11-20_23h59.58.134,Info_measure_main_exp,2022.2.2,Win32,61.94251734,,,,,,,,,,,,,,,,,,masks/mask_001.jpg,,,,,,,,,,,,,,,,,,,,,,,,,,,,,,,,,,,,,,,,,,,0,3,3,0,1,,,,,,,,,,,,,,,,,,,,,,,,,,,,,,,,,,,,,,,,,,,,,,
451889,001,2022-11-20_23h59.58.134,Info_measure_main_exp,2022.2.2,Win32,61.94251734,,,,,,,,,,,,,,,,,,masks/mask_005.jpg,,,,,,,,,,,,,,,,,,,,,,,,,,,,,,,,,,,,,,,,,,,0,4,4,4,1,,,,,,,,,,,,,,,,,,,,,,,,,,,,,,,,,,,,,,,,,,,,,,
451889,001,2022-11-20_23h59.58.134,Info_measure_main_exp,2022.2.2,Win32,61.94251734,,,,,,,,,,,,,,,,,,masks/mask_004.jpg,,,,,,,,,,,,,,,,,,,,,,,,,,,,,,,,,,,,,,,,,,,,,,,,0,0,0,3,1,,,,,,,,,,,,,,,,,,,,,,,,,,,,,,,,,,,,,,,,,
451889,001,2022-11-20_23h59.58.134,Info_measure_main_exp,2022.2.2,Win32,61.94251734,,,,,,,,,,,,,,,,,,masks/mask_003.jpg,,,,,,,,,,,,,,,,,,,,,,,,,,,,,,,,,,,,,,,,,,,,,,,,0,1,1,2,1,,,,,,,,,,,,,,,,,,,,,,,,,,,,,,,,,,,,,,,,,
451889,001,2022-11-20_23h59.58.134,Info_measure_main_exp,2022.2.2,Win32,61.94251734,,,,,,,,,,,,,,,,,,masks/mask_001.jpg,,,,,,,,,,,,,,,,,,,,,,,,,,,,,,,,,,,,,,,,,,,,,,,,0,2,2,0,1,,,,,,,,,,,,,,,,,,,,,,,,,,,,,,,,,,,,,,,,,
451889,001,2022-11-20_23h59.58.134,Info_measure_main_exp,2022.2.2,Win32,61.94251734,,,,,,,,,,,,,,,,,,masks/mask_005.jpg,,,,,,,,,,,,,,,,,,,,,,,,,,,,,,,,,,,,,,,,,,,,,,,,0,3,3,4,1,,,,,,,,,,,,,,,,,,,,,,,,,,,,,,,,,,,,,,,,,
451889,001,2022-11-20_23h59.58.134,Info_measure_main_exp,2022.2.2,Win32,61.94251734,,,,,,,,,,,,,,,,,,masks/mask_002.jpg,,,,,,,,,,,,,,,,,,,,,,,,,,,,,,,,,,,,,,,,,,,,,,,,0,4,4,1,1,,,,,,,,,,,,,,,,,,,,,,,,,,,,,,,,,,,,,,,,,
451889,001,2022-11-20_23h59.58.134,Info_measure_main_exp,2022.2.2,Win32,61.94251734,,,,,,,,,,,,,,,,,,,,,,,,,,,,,,2,0.7333,1,,,,,,,,,,,,0,131,5,5,2142,2082,absent_patch/patch0002142.jpg,absent_patch/patch0002082.jpg,,,,,,,,,,,,,,,,,,,,-0.124074046,-0.034259288,1,0,0,response5disk,28,-0.009259203,-0.000925954,1,0,0,center_square,0,27,27,88,1,,,,,,,,,,,,,,,,,,,,,,,
451889,001,2022-11-20_23h59.58.134,Info_measure_main_exp,2022.2.2,Win32,61.94251734,,,,,,,,,,,,,,,,,,masks/mask_004.jpg,,,,,,,,,,,,,,,,,,,,,,,,,,,,,,,,,,,,,,,,,,,0,0,0,3,1,,,,,,,,,,,,,,,,,,,,,,,,,,,,,,,,,,,,,,,,,,,,,,
451889,001,2022-11-20_23h59.58.134,Info_measure_main_exp,2022.2.2,Win32,61.94251734,,,,,,,,,,,,,,,,,,masks/mask_003.jpg,,,,,,,,,,,,,,,,,,,,,,,,,,,,,,,,,,,,,,,,,,,0,1,1,2,1,,,,,,,,,,,,,,,,,,,,,,,,,,,,,,,,,,,,,,,,,,,,,,
451889,001,2022-11-20_23h59.58.134,Info_measure_main_exp,2022.2.2,Win32,61.94251734,,,,,,,,,,,,,,,,,,masks/mask_002.jpg,,,,,,,,,,,,,,,,,,,,,,,,,,,,,,,,,,,,,,,,,,,0,2,2,1,1,,,,,,,,,,,,,,,,,,,,,,,,,,,,,,,,,,,,,,,,,,,,,,
451889,001,2022-11-20_23h59.58.134,Info_measure_main_exp,2022.2.2,Win32,61.94251734,,,,,,,,,,,,,,,,,,masks/mask_005.jpg,,,,,,,,,,,,,,,,,,,,,,,,,,,,,,,,,,,,,,,,,,,0,3,3,4,1,,,,,,,,,,,,,,,,,,,,,,,,,,,,,,,,,,,,,,,,,,,,,,
451889,001,2022-11-20_23h59.58.134,Info_measure_main_exp,2022.2.2,Win32,61.94251734,,,,,,,,,,,,,,,,,,masks/mask_001.jpg,,,,,,,,,,,,,,,,,,,,,,,,,,,,,,,,,,,,,,,,,,,0,4,4,0,1,,,,,,,,,,,,,,,,,,,,,,,,,,,,,,,,,,,,,,,,,,,,,,
451889,001,2022-11-20_23h59.58.134,Info_measure_main_exp,2022.2.2,Win32,61.94251734,,,,,,,,,,,,,,,,,,masks/mask_003.jpg,,,,,,,,,,,,,,,,,,,,,,,,,,,,,,,,,,,,,,,,,,,,,,,,0,0,0,2,1,,,,,,,,,,,,,,,,,,,,,,,,,,,,,,,,,,,,,,,,,
451889,001,2022-11-20_23h59.58.134,Info_measure_main_exp,2022.2.2,Win32,61.94251734,,,,,,,,,,,,,,,,,,masks/mask_004.jpg,,,,,,,,,,,,,,,,,,,,,,,,,,,,,,,,,,,,,,,,,,,,,,,,0,1,1,3,1,,,,,,,,,,,,,,,,,,,,,,,,,,,,,,,,,,,,,,,,,
451889,001,2022-11-20_23h59.58.134,Info_measure_main_exp,2022.2.2,Win32,61.94251734,,,,,,,,,,,,,,,,,,masks/mask_001.jpg,,,,,,,,,,,,,,,,,,,,,,,,,,,,,,,,,,,,,,,,,,,,,,,,0,2,2,0,1,,,,,,,,,,,,,,,,,,,,,,,,,,,,,,,,,,,,,,,,,
451889,001,2022-11-20_23h59.58.134,Info_measure_main_exp,2022.2.2,Win32,61.94251734,,,,,,,,,,,,,,,,,,masks/mask_002.jpg,,,,,,,,,,,,,,,,,,,,,,,,,,,,,,,,,,,,,,,,,,,,,,,,0,3,3,1,1,,,,,,,,,,,,,,,,,,,,,,,,,,,,,,,,,,,,,,,,,
451889,001,2022-11-20_23h59.58.134,Info_measure_main_exp,2022.2.2,Win32,61.94251734,,,,,,,,,,,,,,,,,,masks/mask_005.jpg,,,,,,,,,,,,,,,,,,,,,,,,,,,,,,,,,,,,,,,,,,,,,,,,0,4,4,4,1,,,,,,,,,,,,,,,,,,,,,,,,,,,,,,,,,,,,,,,,,
451889,001,2022-11-20_23h59.58.134,Info_measure_main_exp,2022.2.2,Win32,61.94251734,,,,,,,,,,,,,,,,,,,,,,,,,,,,,,4,1.4153,1,,,,,,,,,,,,0,131,5,5,1986,2274,absent_patch/patch0001986.jpg,absent_patch/patch0002274.jpg,,,,,,,,,,,,,,,,,,,,0.034259288,-0.073148176,1,0,0,response3disk,29,-0.001851824,0.002777778,1,0,0,center_square,0,28,28,7,1,,,,,,,,,,,,,,,,,,,,,,,
451889,001,2022-11-20_23h59.58.134,Info_measure_main_exp,2022.2.2,Win32,61.94251734,,,,,,,,,,,,,,,,,,masks/mask_005.jpg,,,,,,,,,,,,,,,,,,,,,,,,,,,,,,,,,,,,,,,,,,,0,0,0,4,1,,,,,,,,,,,,,,,,,,,,,,,,,,,,,,,,,,,,,,,,,,,,,,
451889,001,2022-11-20_23h59.58.134,Info_measure_main_exp,2022.2.2,Win32,61.94251734,,,,,,,,,,,,,,,,,,masks/mask_004.jpg,,,,,,,,,,,,,,,,,,,,,,,,,,,,,,,,,,,,,,,,,,,0,1,1,3,1,,,,,,,,,,,,,,,,,,,,,,,,,,,,,,,,,,,,,,,,,,,,,,
451889,001,2022-11-20_23h59.58.134,Info_measure_main_exp,2022.2.2,Win32,61.94251734,,,,,,,,,,,,,,,,,,masks/mask_003.jpg,,,,,,,,,,,,,,,,,,,,,,,,,,,,,,,,,,,,,,,,,,,0,2,2,2,1,,,,,,,,,,,,,,,,,,,,,,,,,,,,,,,,,,,,,,,,,,,,,,
451889,001,2022-11-20_23h59.58.134,Info_measure_main_exp,2022.2.2,Win32,61.94251734,,,,,,,,,,,,,,,,,,masks/mask_001.jpg,,,,,,,,,,,,,,,,,,,,,,,,,,,,,,,,,,,,,,,,,,,0,3,3,0,1,,,,,,,,,,,,,,,,,,,,,,,,,,,,,,,,,,,,,,,,,,,,,,
451889,001,2022-11-20_23h59.58.134,Info_measure_main_exp,2022.2.2,Win32,61.94251734,,,,,,,,,,,,,,,,,,masks/mask_002.jpg,,,,,,,,,,,,,,,,,,,,,,,,,,,,,,,,,,,,,,,,,,,0,4,4,1,1,,,,,,,,,,,,,,,,,,,,,,,,,,,,,,,,,,,,,,,,,,,,,,
451889,001,2022-11-20_23h59.58.134,Info_measure_main_exp,2022.2.2,Win32,61.94251734,,,,,,,,,,,,,,,,,,masks/mask_002.jpg,,,,,,,,,,,,,,,,,,,,,,,,,,,,,,,,,,,,,,,,,,,,,,,,0,0,0,1,1,,,,,,,,,,,,,,,,,,,,,,,,,,,,,,,,,,,,,,,,,
451889,001,2022-11-20_23h59.58.134,Info_measure_main_exp,2022.2.2,Win32,61.94251734,,,,,,,,,,,,,,,,,,masks/mask_005.jpg,,,,,,,,,,,,,,,,,,,,,,,,,,,,,,,,,,,,,,,,,,,,,,,,0,1,1,4,1,,,,,,,,,,,,,,,,,,,,,,,,,,,,,,,,,,,,,,,,,
451889,001,2022-11-20_23h59.58.134,Info_measure_main_exp,2022.2.2,Win32,61.94251734,,,,,,,,,,,,,,,,,,masks/mask_001.jpg,,,,,,,,,,,,,,,,,,,,,,,,,,,,,,,,,,,,,,,,,,,,,,,,0,2,2,0,1,,,,,,,,,,,,,,,,,,,,,,,,,,,,,,,,,,,,,,,,,
451889,001,2022-11-20_23h59.58.134,Info_measure_main_exp,2022.2.2,Win32,61.94251734,,,,,,,,,,,,,,,,,,masks/mask_003.jpg,,,,,,,,,,,,,,,,,,,,,,,,,,,,,,,,,,,,,,,,,,,,,,,,0,3,3,2,1,,,,,,,,,,,,,,,,,,,,,,,,,,,,,,,,,,,,,,,,,
451889,001,2022-11-20_23h59.58.134,Info_measure_main_exp,2022.2.2,Win32,61.94251734,,,,,,,,,,,,,,,,,,masks/mask_004.jpg,,,,,,,,,,,,,,,,,,,,,,,,,,,,,,,,,,,,,,,,,,,,,,,,0,4,4,3,1,,,,,,,,,,,,,,,,,,,,,,,,,,,,,,,,,,,,,,,,,
451889,001,2022-11-20_23h59.58.134,Info_measure_main_exp,2022.2.2,Win32,61.94251734,,,,,,,,,,,,,,,,,,,,,,,,,,,,,,6,1.2386,1,,,,,,,,,,,,0,131,5,5,2142,2238,absent_patch/patch0002142.jpg,absent_patch/patch0002238.jpg,,,,,,,,,,,,,,,,,,,,0.084259288,0.052777778,1,0,0,response1disk,30,-0.010185157,0.009259245,1,0,0,center_square,0,29,29,101,1,,,,,,,,,,,,,,,,,,,,,,,
451889,001,2022-11-20_23h59.58.134,Info_measure_main_exp,2022.2.2,Win32,61.94251734,,,,,,,,,,,,,,,,,,masks/mask_004.jpg,,,,,,,,,,,,,,,,,,,,,,,,,,,,,,,,,,,,,,,,,,,0,0,0,3,1,,,,,,,,,,,,,,,,,,,,,,,,,,,,,,,,,,,,,,,,,,,,,,
451889,001,2022-11-20_23h59.58.134,Info_measure_main_exp,2022.2.2,Win32,61.94251734,,,,,,,,,,,,,,,,,,masks/mask_001.jpg,,,,,,,,,,,,,,,,,,,,,,,,,,,,,,,,,,,,,,,,,,,0,1,1,0,1,,,,,,,,,,,,,,,,,,,,,,,,,,,,,,,,,,,,,,,,,,,,,,
451889,001,2022-11-20_23h59.58.134,Info_measure_main_exp,2022.2.2,Win32,61.94251734,,,,,,,,,,,,,,,,,,masks/mask_005.jpg,,,,,,,,,,,,,,,,,,,,,,,,,,,,,,,,,,,,,,,,,,,0,2,2,4,1,,,,,,,,,,,,,,,,,,,,,,,,,,,,,,,,,,,,,,,,,,,,,,
451889,001,2022-11-20_23h59.58.134,Info_measure_main_exp,2022.2.2,Win32,61.94251734,,,,,,,,,,,,,,,,,,masks/mask_002.jpg,,,,,,,,,,,,,,,,,,,,,,,,,,,,,,,,,,,,,,,,,,,0,3,3,1,1,,,,,,,,,,,,,,,,,,,,,,,,,,,,,,,,,,,,,,,,,,,,,,
451889,001,2022-11-20_23h59.58.134,Info_measure_main_exp,2022.2.2,Win32,61.94251734,,,,,,,,,,,,,,,,,,masks/mask_003.jpg,,,,,,,,,,,,,,,,,,,,,,,,,,,,,,,,,,,,,,,,,,,0,4,4,2,1,,,,,,,,,,,,,,,,,,,,,,,,,,,,,,,,,,,,,,,,,,,,,,
451889,001,2022-11-20_23h59.58.134,Info_measure_main_exp,2022.2.2,Win32,61.94251734,,,,,,,,,,,,,,,,,,masks/mask_002.jpg,,,,,,,,,,,,,,,,,,,,,,,,,,,,,,,,,,,,,,,,,,,,,,,,0,0,0,1,1,,,,,,,,,,,,,,,,,,,,,,,,,,,,,,,,,,,,,,,,,
451889,001,2022-11-20_23h59.58.134,Info_measure_main_exp,2022.2.2,Win32,61.94251734,,,,,,,,,,,,,,,,,,masks/mask_004.jpg,,,,,,,,,,,,,,,,,,,,,,,,,,,,,,,,,,,,,,,,,,,,,,,,0,1,1,3,1,,,,,,,,,,,,,,,,,,,,,,,,,,,,,,,,,,,,,,,,,
451889,001,2022-11-20_23h59.58.134,Info_measure_main_exp,2022.2.2,Win32,61.94251734,,,,,,,,,,,,,,,,,,masks/mask_001.jpg,,,,,,,,,,,,,,,,,,,,,,,,,,,,,,,,,,,,,,,,,,,,,,,,0,2,2,0,1,,,,,,,,,,,,,,,,,,,,,,,,,,,,,,,,,,,,,,,,,
451889,001,2022-11-20_23h59.58.134,Info_measure_main_exp,2022.2.2,Win32,61.94251734,,,,,,,,,,,,,,,,,,masks/mask_005.jpg,,,,,,,,,,,,,,,,,,,,,,,,,,,,,,,,,,,,,,,,,,,,,,,,0,3,3,4,1,,,,,,,,,,,,,,,,,,,,,,,,,,,,,,,,,,,,,,,,,
451889,001,2022-11-20_23h59.58.134,Info_measure_main_exp,2022.2.2,Win32,61.94251734,,,,,,,,,,,,,,,,,,masks/mask_003.jpg,,,,,,,,,,,,,,,,,,,,,,,,,,,,,,,,,,,,,,,,,,,,,,,,0,4,4,2,1,,,,,,,,,,,,,,,,,,,,,,,,,,,,,,,,,,,,,,,,,
451889,001,2022-11-20_23h59.58.134,Info_measure_main_exp,2022.2.2,Win32,61.94251734,,,,,,,,,,,,,,,,,,,,,,,,,,,,,,5,1.0162,1,,,,,,,,,,,,0,131,5,5,1986,1974,absent_patch/patch0001986.jpg,absent_patch/patch0001974.jpg,,,,,,,,,,,,,,,,,,,,0.065740797,-0.023148176,1,0,0,response3disk,31,-0.002777778,0.002777778,1,0,0,center_square,0,30,30,25,1,,,,,,,,,,,,,,,,,,,,,,,
451889,001,2022-11-20_23h59.58.134,Info_measure_main_exp,2022.2.2,Win32,61.94251734,,,,,,,,,,,,,,,,,,masks/mask_004.jpg,,,,,,,,,,,,,,,,,,,,,,,,,,,,,,,,,,,,,,,,,,,0,0,0,3,1,,,,,,,,,,,,,,,,,,,,,,,,,,,,,,,,,,,,,,,,,,,,,,
451889,001,2022-11-20_23h59.58.134,Info_measure_main_exp,2022.2.2,Win32,61.94251734,,,,,,,,,,,,,,,,,,masks/mask_005.jpg,,,,,,,,,,,,,,,,,,,,,,,,,,,,,,,,,,,,,,,,,,,0,1,1,4,1,,,,,,,,,,,,,,,,,,,,,,,,,,,,,,,,,,,,,,,,,,,,,,
451889,001,2022-11-20_23h59.58.134,Info_measure_main_exp,2022.2.2,Win32,61.94251734,,,,,,,,,,,,,,,,,,masks/mask_002.jpg,,,,,,,,,,,,,,,,,,,,,,,,,,,,,,,,,,,,,,,,,,,0,2,2,1,1,,,,,,,,,,,,,,,,,,,,,,,,,,,,,,,,,,,,,,,,,,,,,,
451889,001,2022-11-20_23h59.58.134,Info_measure_main_exp,2022.2.2,Win32,61.94251734,,,,,,,,,,,,,,,,,,masks/mask_001.jpg,,,,,,,,,,,,,,,,,,,,,,,,,,,,,,,,,,,,,,,,,,,0,3,3,0,1,,,,,,,,,,,,,,,,,,,,,,,,,,,,,,,,,,,,,,,,,,,,,,
451889,001,2022-11-20_23h59.58.134,Info_measure_main_exp,2022.2.2,Win32,61.94251734,,,,,,,,,,,,,,,,,,masks/mask_003.jpg,,,,,,,,,,,,,,,,,,,,,,,,,,,,,,,,,,,,,,,,,,,0,4,4,2,1,,,,,,,,,,,,,,,,,,,,,,,,,,,,,,,,,,,,,,,,,,,,,,
451889,001,2022-11-20_23h59.58.134,Info_measure_main_exp,2022.2.2,Win32,61.94251734,,,,,,,,,,,,,,,,,,masks/mask_004.jpg,,,,,,,,,,,,,,,,,,,,,,,,,,,,,,,,,,,,,,,,,,,,,,,,0,0,0,3,1,,,,,,,,,,,,,,,,,,,,,,,,,,,,,,,,,,,,,,,,,
451889,001,2022-11-20_23h59.58.134,Info_measure_main_exp,2022.2.2,Win32,61.94251734,,,,,,,,,,,,,,,,,,masks/mask_005.jpg,,,,,,,,,,,,,,,,,,,,,,,,,,,,,,,,,,,,,,,,,,,,,,,,0,1,1,4,1,,,,,,,,,,,,,,,,,,,,,,,,,,,,,,,,,,,,,,,,,
451889,001,2022-11-20_23h59.58.134,Info_measure_main_exp,2022.2.2,Win32,61.94251734,,,,,,,,,,,,,,,,,,masks/mask_001.jpg,,,,,,,,,,,,,,,,,,,,,,,,,,,,,,,,,,,,,,,,,,,,,,,,0,2,2,0,1,,,,,,,,,,,,,,,,,,,,,,,,,,,,,,,,,,,,,,,,,
451889,001,2022-11-20_23h59.58.134,Info_measure_main_exp,2022.2.2,Win32,61.94251734,,,,,,,,,,,,,,,,,,masks/mask_002.jpg,,,,,,,,,,,,,,,,,,,,,,,,,,,,,,,,,,,,,,,,,,,,,,,,0,3,3,1,1,,,,,,,,,,,,,,,,,,,,,,,,,,,,,,,,,,,,,,,,,
451889,001,2022-11-20_23h59.58.134,Info_measure_main_exp,2022.2.2,Win32,61.94251734,,,,,,,,,,,,,,,,,,masks/mask_003.jpg,,,,,,,,,,,,,,,,,,,,,,,,,,,,,,,,,,,,,,,,,,,,,,,,0,4,4,2,1,,,,,,,,,,,,,,,,,,,,,,,,,,,,,,,,,,,,,,,,,
451889,001,2022-11-20_23h59.58.134,Info_measure_main_exp,2022.2.2,Win32,61.94251734,,,,,,,,,,,,,,,,,,,,,,,,,,,,,,0,0.6161,1,,,,,,,,,,,,0,131,5,5,2298,2298,absent_patch/patch0002298.jpg,absent_patch/patch0002298.jpg,,,,,,,,,,,,,,,,,,,,-0.022222222,0.085185157,1,0,0,response7disk,32,0.000925954,0.011111111,1,0,0,center_square,0,31,31,37,1,,,,,,,,,,,,,,,,,,,,,,,
451889,001,2022-11-20_23h59.58.134,Info_measure_main_exp,2022.2.2,Win32,61.94251734,,,,,,,,,,,,,,,,,,masks/mask_004.jpg,,,,,,,,,,,,,,,,,,,,,,,,,,,,,,,,,,,,,,,,,,,0,0,0,3,1,,,,,,,,,,,,,,,,,,,,,,,,,,,,,,,,,,,,,,,,,,,,,,
451889,001,2022-11-20_23h59.58.134,Info_measure_main_exp,2022.2.2,Win32,61.94251734,,,,,,,,,,,,,,,,,,masks/mask_003.jpg,,,,,,,,,,,,,,,,,,,,,,,,,,,,,,,,,,,,,,,,,,,0,1,1,2,1,,,,,,,,,,,,,,,,,,,,,,,,,,,,,,,,,,,,,,,,,,,,,,
451889,001,2022-11-20_23h59.58.134,Info_measure_main_exp,2022.2.2,Win32,61.94251734,,,,,,,,,,,,,,,,,,masks/mask_001.jpg,,,,,,,,,,,,,,,,,,,,,,,,,,,,,,,,,,,,,,,,,,,0,2,2,0,1,,,,,,,,,,,,,,,,,,,,,,,,,,,,,,,,,,,,,,,,,,,,,,
451889,001,2022-11-20_23h59.58.134,Info_measure_main_exp,2022.2.2,Win32,61.94251734,,,,,,,,,,,,,,,,,,masks/mask_002.jpg,,,,,,,,,,,,,,,,,,,,,,,,,,,,,,,,,,,,,,,,,,,0,3,3,1,1,,,,,,,,,,,,,,,,,,,,,,,,,,,,,,,,,,,,,,,,,,,,,,
451889,001,2022-11-20_23h59.58.134,Info_measure_main_exp,2022.2.2,Win32,61.94251734,,,,,,,,,,,,,,,,,,masks/mask_005.jpg,,,,,,,,,,,,,,,,,,,,,,,,,,,,,,,,,,,,,,,,,,,0,4,4,4,1,,,,,,,,,,,,,,,,,,,,,,,,,,,,,,,,,,,,,,,,,,,,,,
451889,001,2022-11-20_23h59.58.134,Info_measure_main_exp,2022.2.2,Win32,61.94251734,,,,,,,,,,,,,,,,,,masks/mask_005.jpg,,,,,,,,,,,,,,,,,,,,,,,,,,,,,,,,,,,,,,,,,,,,,,,,0,0,0,4,1,,,,,,,,,,,,,,,,,,,,,,,,,,,,,,,,,,,,,,,,,
451889,001,2022-11-20_23h59.58.134,Info_measure_main_exp,2022.2.2,Win32,61.94251734,,,,,,,,,,,,,,,,,,masks/mask_002.jpg,,,,,,,,,,,,,,,,,,,,,,,,,,,,,,,,,,,,,,,,,,,,,,,,0,1,1,1,1,,,,,,,,,,,,,,,,,,,,,,,,,,,,,,,,,,,,,,,,,
451889,001,2022-11-20_23h59.58.134,Info_measure_main_exp,2022.2.2,Win32,61.94251734,,,,,,,,,,,,,,,,,,masks/mask_003.jpg,,,,,,,,,,,,,,,,,,,,,,,,,,,,,,,,,,,,,,,,,,,,,,,,0,2,2,2,1,,,,,,,,,,,,,,,,,,,,,,,,,,,,,,,,,,,,,,,,,
451889,001,2022-11-20_23h59.58.134,Info_measure_main_exp,2022.2.2,Win32,61.94251734,,,,,,,,,,,,,,,,,,masks/mask_004.jpg,,,,,,,,,,,,,,,,,,,,,,,,,,,,,,,,,,,,,,,,,,,,,,,,0,3,3,3,1,,,,,,,,,,,,,,,,,,,,,,,,,,,,,,,,,,,,,,,,,
451889,001,2022-11-20_23h59.58.134,Info_measure_main_exp,2022.2.2,Win32,61.94251734,,,,,,,,,,,,,,,,,,masks/mask_001.jpg,,,,,,,,,,,,,,,,,,,,,,,,,,,,,,,,,,,,,,,,,,,,,,,,0,4,4,0,1,,,,,,,,,,,,,,,,,,,,,,,,,,,,,,,,,,,,,,,,,
451889,001,2022-11-20_23h59.58.134,Info_measure_main_exp,2022.2.2,Win32,61.94251734,,,,,,,,,,,,,,,,,,,,,,,,,,,,,,7,0.8997,1,,,,,,,,,,,,0,131,5,5,2154,1974,absent_patch/patch0002154.jpg,absent_patch/patch0001974.jpg,,,,,,,,,,,,,,,,,,,,0.066666667,0.091666667,1,0,0,response1disk,33,0.002777778,0.011111111,1,0,0,center_square,0,32,32,82,1,,,,,,,,,,,,,,,,,,,,,,,
451889,001,2022-11-20_23h59.58.134,Info_measure_main_exp,2022.2.2,Win32,61.94251734,,,,,,,,,,,,,,,,,,masks/mask_003.jpg,,,,,,,,,,,,,,,,,,,,,,,,,,,,,,,,,,,,,,,,,,,0,0,0,2,1,,,,,,,,,,,,,,,,,,,,,,,,,,,,,,,,,,,,,,,,,,,,,,
451889,001,2022-11-20_23h59.58.134,Info_measure_main_exp,2022.2.2,Win32,61.94251734,,,,,,,,,,,,,,,,,,masks/mask_002.jpg,,,,,,,,,,,,,,,,,,,,,,,,,,,,,,,,,,,,,,,,,,,0,1,1,1,1,,,,,,,,,,,,,,,,,,,,,,,,,,,,,,,,,,,,,,,,,,,,,,
451889,001,2022-11-20_23h59.58.134,Info_measure_main_exp,2022.2.2,Win32,61.94251734,,,,,,,,,,,,,,,,,,masks/mask_005.jpg,,,,,,,,,,,,,,,,,,,,,,,,,,,,,,,,,,,,,,,,,,,0,2,2,4,1,,,,,,,,,,,,,,,,,,,,,,,,,,,,,,,,,,,,,,,,,,,,,,
451889,001,2022-11-20_23h59.58.134,Info_measure_main_exp,2022.2.2,Win32,61.94251734,,,,,,,,,,,,,,,,,,masks/mask_001.jpg,,,,,,,,,,,,,,,,,,,,,,,,,,,,,,,,,,,,,,,,,,,0,3,3,0,1,,,,,,,,,,,,,,,,,,,,,,,,,,,,,,,,,,,,,,,,,,,,,,
451889,001,2022-11-20_23h59.58.134,Info_measure_main_exp,2022.2.2,Win32,61.94251734,,,,,,,,,,,,,,,,,,masks/mask_004.jpg,,,,,,,,,,,,,,,,,,,,,,,,,,,,,,,,,,,,,,,,,,,0,4,4,3,1,,,,,,,,,,,,,,,,,,,,,,,,,,,,,,,,,,,,,,,,,,,,,,
451889,001,2022-11-20_23h59.58.134,Info_measure_main_exp,2022.2.2,Win32,61.94251734,,,,,,,,,,,,,,,,,,masks/mask_001.jpg,,,,,,,,,,,,,,,,,,,,,,,,,,,,,,,,,,,,,,,,,,,,,,,,0,0,0,0,1,,,,,,,,,,,,,,,,,,,,,,,,,,,,,,,,,,,,,,,,,
451889,001,2022-11-20_23h59.58.134,Info_measure_main_exp,2022.2.2,Win32,61.94251734,,,,,,,,,,,,,,,,,,masks/mask_004.jpg,,,,,,,,,,,,,,,,,,,,,,,,,,,,,,,,,,,,,,,,,,,,,,,,0,1,1,3,1,,,,,,,,,,,,,,,,,,,,,,,,,,,,,,,,,,,,,,,,,
451889,001,2022-11-20_23h59.58.134,Info_measure_main_exp,2022.2.2,Win32,61.94251734,,,,,,,,,,,,,,,,,,masks/mask_003.jpg,,,,,,,,,,,,,,,,,,,,,,,,,,,,,,,,,,,,,,,,,,,,,,,,0,2,2,2,1,,,,,,,,,,,,,,,,,,,,,,,,,,,,,,,,,,,,,,,,,
451889,001,2022-11-20_23h59.58.134,Info_measure_main_exp,2022.2.2,Win32,61.94251734,,,,,,,,,,,,,,,,,,masks/mask_002.jpg,,,,,,,,,,,,,,,,,,,,,,,,,,,,,,,,,,,,,,,,,,,,,,,,0,3,3,1,1,,,,,,,,,,,,,,,,,,,,,,,,,,,,,,,,,,,,,,,,,
451889,001,2022-11-20_23h59.58.134,Info_measure_main_exp,2022.2.2,Win32,61.94251734,,,,,,,,,,,,,,,,,,masks/mask_005.jpg,,,,,,,,,,,,,,,,,,,,,,,,,,,,,,,,,,,,,,,,,,,,,,,,0,4,4,4,1,,,,,,,,,,,,,,,,,,,,,,,,,,,,,,,,,,,,,,,,,
451889,001,2022-11-20_23h59.58.134,Info_measure_main_exp,2022.2.2,Win32,61.94251734,,,,,,,,,,,,,,,,,,,,,,,,,,,,,,6,0.7668,1,,,,,,,,,,,,0,131,5,5,2298,2190,absent_patch/patch0002298.jpg,absent_patch/patch0002190.jpg,,,,,,,,,,,,,,,,,,,,0.089814843,0.017592578,1,0,0,response1disk,34,-0.009259203,0.002777778,1,0,0,center_square,0,33,33,20,1,,,,,,,,,,,,,,,,,,,,,,,
451889,001,2022-11-20_23h59.58.134,Info_measure_main_exp,2022.2.2,Win32,61.94251734,,,,,,,,,,,,,,,,,,masks/mask_005.jpg,,,,,,,,,,,,,,,,,,,,,,,,,,,,,,,,,,,,,,,,,,,0,0,0,4,1,,,,,,,,,,,,,,,,,,,,,,,,,,,,,,,,,,,,,,,,,,,,,,
451889,001,2022-11-20_23h59.58.134,Info_measure_main_exp,2022.2.2,Win32,61.94251734,,,,,,,,,,,,,,,,,,masks/mask_003.jpg,,,,,,,,,,,,,,,,,,,,,,,,,,,,,,,,,,,,,,,,,,,0,1,1,2,1,,,,,,,,,,,,,,,,,,,,,,,,,,,,,,,,,,,,,,,,,,,,,,
451889,001,2022-11-20_23h59.58.134,Info_measure_main_exp,2022.2.2,Win32,61.94251734,,,,,,,,,,,,,,,,,,masks/mask_004.jpg,,,,,,,,,,,,,,,,,,,,,,,,,,,,,,,,,,,,,,,,,,,0,2,2,3,1,,,,,,,,,,,,,,,,,,,,,,,,,,,,,,,,,,,,,,,,,,,,,,
451889,001,2022-11-20_23h59.58.134,Info_measure_main_exp,2022.2.2,Win32,61.94251734,,,,,,,,,,,,,,,,,,masks/mask_002.jpg,,,,,,,,,,,,,,,,,,,,,,,,,,,,,,,,,,,,,,,,,,,0,3,3,1,1,,,,,,,,,,,,,,,,,,,,,,,,,,,,,,,,,,,,,,,,,,,,,,
451889,001,2022-11-20_23h59.58.134,Info_measure_main_exp,2022.2.2,Win32,61.94251734,,,,,,,,,,,,,,,,,,masks/mask_001.jpg,,,,,,,,,,,,,,,,,,,,,,,,,,,,,,,,,,,,,,,,,,,0,4,4,0,1,,,,,,,,,,,,,,,,,,,,,,,,,,,,,,,,,,,,,,,,,,,,,,
451889,001,2022-11-20_23h59.58.134,Info_measure_main_exp,2022.2.2,Win32,61.94251734,,,,,,,,,,,,,,,,,,masks/mask_004.jpg,,,,,,,,,,,,,,,,,,,,,,,,,,,,,,,,,,,,,,,,,,,,,,,,0,0,0,3,1,,,,,,,,,,,,,,,,,,,,,,,,,,,,,,,,,,,,,,,,,
451889,001,2022-11-20_23h59.58.134,Info_measure_main_exp,2022.2.2,Win32,61.94251734,,,,,,,,,,,,,,,,,,masks/mask_003.jpg,,,,,,,,,,,,,,,,,,,,,,,,,,,,,,,,,,,,,,,,,,,,,,,,0,1,1,2,1,,,,,,,,,,,,,,,,,,,,,,,,,,,,,,,,,,,,,,,,,
451889,001,2022-11-20_23h59.58.134,Info_measure_main_exp,2022.2.2,Win32,61.94251734,,,,,,,,,,,,,,,,,,masks/mask_005.jpg,,,,,,,,,,,,,,,,,,,,,,,,,,,,,,,,,,,,,,,,,,,,,,,,0,2,2,4,1,,,,,,,,,,,,,,,,,,,,,,,,,,,,,,,,,,,,,,,,,
451889,001,2022-11-20_23h59.58.134,Info_measure_main_exp,2022.2.2,Win32,61.94251734,,,,,,,,,,,,,,,,,,masks/mask_002.jpg,,,,,,,,,,,,,,,,,,,,,,,,,,,,,,,,,,,,,,,,,,,,,,,,0,3,3,1,1,,,,,,,,,,,,,,,,,,,,,,,,,,,,,,,,,,,,,,,,,
