participant,session,date,expName,psychopyVersion,OS,frameRate,space_press_continue.keys,space_press_continue.rt,space_press_continue_2.keys,space_press_continue_2.rt,space_press_continue_3.keys,space_press_continue_3.rt,space_press_continue_4.keys,space_press_continue_4.rt,space_press_continue_5.keys,space_press_continue_5.rt,space_press_continue_6.keys,space_press_continue_6.rt,prac_mask_loop_1.thisRepN,prac_mask_loop_1.thisTrialN,prac_mask_loop_1.thisN,prac_mask_loop_1.thisIndex,prac_mask_loop_1.ran,mask_name,prac_mask_loop_2.thisRepN,prac_mask_loop_2.thisTrialN,prac_mask_loop_2.thisN,prac_mask_loop_2.thisIndex,prac_mask_loop_2.ran,mouse_2.x,mouse_2.y,mouse_2.leftButton,mouse_2.midButton,mouse_2.rightButton,mouse_2.clicked_name,similarity,response_time,Pass,mouse_12.x,mouse_12.y,mouse_12.leftButton,mouse_12.midButton,mouse_12.rightButton,mouse_12.clicked_name,prac_loop.thisRepN,prac_loop.thisTrialN,prac_loop.thisN,prac_loop.thisIndex,prac_loop.ran,Pair_type,Image_num,Patch_1_loc,Patch_2_loc,Patch_1_info,Patch_2_info,Patch_1_name,Patch_2_name,mouse_1.x,mouse_1.y,mouse_1.leftButton,mouse_1.midButton,mouse_1.rightButton,mouse_1.time,mouse_1.clicked_name,space_press_continue_7.keys,space_press_continue_7.rt,mask_loop.thisRepN,mask_loop.thisTrialN,mask_loop.thisN,mask_loop.thisIndex,mask_loop.ran,mask_loop_2.thisRepN,mask_loop_2.thisTrialN,mask_loop_2.thisN,mask_loop_2.thisIndex,mask_loop_2.ran,mouse.x,mouse.y,mouse.leftButton,mouse.midButton,mouse.rightButton,mouse.clicked_name,trialNumber,mouse_11.x,mouse_11.y,mouse_11.leftButton,mouse_11.midButton,mouse_11.rightButton,mouse_11.clicked_name,first_pass_loop.thisRepN,first_pass_loop.thisTrialN,first_pass_loop.thisN,first_pass_loop.thisIndex,first_pass_loop.ran,mask_loop_3.thisRepN,mask_loop_3.thisTrialN,mask_loop_3.thisN,mask_loop_3.thisIndex,mask_loop_3.ran,mask_loop_4.thisRepN,mask_loop_4.thisTrialN,mask_loop_4.thisN,mask_loop_4.thisIndex,mask_loop_4.ran,mouse_3.x,mouse_3.y,mouse_3.leftButton,mouse_3.midButton,mouse_3.rightButton,mouse_3.clicked_name,double_pass_loop.thisRepN,double_pass_loop.thisTrialN,double_pass_loop.thisN,double_pass_loop.thisIndex,double_pass_loop.ran,space_exit.keys,space_exit.rt
454008,001,2022-11-20_17h53.23.364,Info_measure_main_exp,2022.2.2,Win32,59.9268892,,,,,,,,,,,,,,,,,,,,,,,,,,,,,,,,,,,,,,,,,,,,,,,,,,,,,,,,,,,,,,,,,,,,,,,,,,,,,,,,,,,,,,,,,,,,,,,,,,,,,,,,,,,,,,,
454008,001,2022-11-20_17h53.23.364,Info_measure_main_exp,2022.2.2,Win32,59.9268892,,,,,,,,,,,,,,,,,,,,,,,,,,,,,,,,,,,,,,,,,,,,,,,,,,,,,,,,,,,,,,,,,,,,,,,,,,,,,,,,,,,,,,,,,,,,,,,,,,,,,,,,,,,,,,,
454008,001,2022-11-20_17h53.23.364,Info_measure_main_exp,2022.2.2,Win32,59.9268892,space,16.7574,,,,,,,,,,,,,,,,,,,,,,,,,,,,,,,,,,,,,,,,,,,,,,,,,,,,,,,,,,,,,,,,,,,,,,,,,,,,,,,,,,,,,,,,,,,,,,,,,,,,,,,,,,,,,
454008,001,2022-11-20_17h53.23.364,Info_measure_main_exp,2022.2.2,Win32,59.9268892,,,space,19.8803,,,,,,,,,,,,,,,,,,,,,,,,,,,,,,,,,,,,,,,,,,,,,,,,,,,,,,,,,,,,,,,,,,,,,,,,,,,,,,,,,,,,,,,,,,,,,,,,,,,,,,,,,,,
454008,001,2022-11-20_17h53.23.364,Info_measure_main_exp,2022.2.2,Win32,59.9268892,,,,,space,10.1834,,,,,,,,,,,,,,,,,,,,,,,,,,,,,,,,,,,,,,,,,,,,,,,,,,,,,,,,,,,,,,,,,,,,,,,,,,,,,,,,,,,,,,,,,,,,,,,,,,,,,,,,,
454008,001,2022-11-20_17h53.23.364,Info_measure_main_exp,2022.2.2,Win32,59.9268892,,,,,,,space,27.6963,,,,,,,,,,,,,,,,,,,,,,,,,,,,,,,,,,,,,,,,,,,,,,,,,,,,,,,,,,,,,,,,,,,,,,,,,,,,,,,,,,,,,,,,,,,,,,,,,,,,,,,
454008,001,2022-11-20_17h53.23.364,Info_measure_main_exp,2022.2.2,Win32,59.9268892,,,,,,,,,space,11.528,,,,,,,,,,,,,,,,,,,,,,,,,,,,,,,,,,,,,,,,,,,,,,,,,,,,,,,,,,,,,,,,,,,,,,,,,,,,,,,,,,,,,,,,,,,,,,,,,,,,,
454008,001,2022-11-20_17h53.23.364,Info_measure_main_exp,2022.2.2,Win32,59.9268892,,,,,,,,,,,space,12.702,,,,,,,,,,,,,,,,,,,,,,,,,,,,,,,,,,,,,,,,,,,,,,,,,,,,,,,,,,,,,,,,,,,,,,,,,,,,,,,,,,,,,,,,,,,,,,,,,,,
454008,001,2022-11-20_17h53.23.364,Info_measure_main_exp,2022.2.2,Win32,59.9268892,,,,,,,,,,,,,0,0,0,4,1,masks/mask_005.jpg,,,,,,,,,,,,,,,,,,,,,,,,,,,,,,,,,,,,,,,,,,,,,,,,,,,,,,,,,,,,,,,,,,,,,,,,,,,,,,,,,,,,,,,,,,,,,
454008,001,2022-11-20_17h53.23.364,Info_measure_main_exp,2022.2.2,Win32,59.9268892,,,,,,,,,,,,,0,1,1,1,1,masks/mask_002.jpg,,,,,,,,,,,,,,,,,,,,,,,,,,,,,,,,,,,,,,,,,,,,,,,,,,,,,,,,,,,,,,,,,,,,,,,,,,,,,,,,,,,,,,,,,,,,,
454008,001,2022-11-20_17h53.23.364,Info_measure_main_exp,2022.2.2,Win32,59.9268892,,,,,,,,,,,,,0,2,2,2,1,masks/mask_003.jpg,,,,,,,,,,,,,,,,,,,,,,,,,,,,,,,,,,,,,,,,,,,,,,,,,,,,,,,,,,,,,,,,,,,,,,,,,,,,,,,,,,,,,,,,,,,,,
454008,001,2022-11-20_17h53.23.364,Info_measure_main_exp,2022.2.2,Win32,59.9268892,,,,,,,,,,,,,0,3,3,0,1,masks/mask_001.jpg,,,,,,,,,,,,,,,,,,,,,,,,,,,,,,,,,,,,,,,,,,,,,,,,,,,,,,,,,,,,,,,,,,,,,,,,,,,,,,,,,,,,,,,,,,,,,
454008,001,2022-11-20_17h53.23.364,Info_measure_main_exp,2022.2.2,Win32,59.9268892,,,,,,,,,,,,,0,4,4,3,1,masks/mask_004.jpg,,,,,,,,,,,,,,,,,,,,,,,,,,,,,,,,,,,,,,,,,,,,,,,,,,,,,,,,,,,,,,,,,,,,,,,,,,,,,,,,,,,,,,,,,,,,,
454008,001,2022-11-20_17h53.23.364,Info_measure_main_exp,2022.2.2,Win32,59.9268892,,,,,,,,,,,,,,,,,,masks/mask_004.jpg,0,0,0,3,1,,,,,,,,,,,,,,,,,,,,,,,,,,,,,,,,,,,,,,,,,,,,,,,,,,,,,,,,,,,,,,,,,,,,,,,,,,,,,,,,,,,,,,,,
454008,001,2022-11-20_17h53.23.364,Info_measure_main_exp,2022.2.2,Win32,59.9268892,,,,,,,,,,,,,,,,,,masks/mask_002.jpg,0,1,1,1,1,,,,,,,,,,,,,,,,,,,,,,,,,,,,,,,,,,,,,,,,,,,,,,,,,,,,,,,,,,,,,,,,,,,,,,,,,,,,,,,,,,,,,,,,
454008,001,2022-11-20_17h53.23.364,Info_measure_main_exp,2022.2.2,Win32,59.9268892,,,,,,,,,,,,,,,,,,masks/mask_003.jpg,0,2,2,2,1,,,,,,,,,,,,,,,,,,,,,,,,,,,,,,,,,,,,,,,,,,,,,,,,,,,,,,,,,,,,,,,,,,,,,,,,,,,,,,,,,,,,,,,,
454008,001,2022-11-20_17h53.23.364,Info_measure_main_exp,2022.2.2,Win32,59.9268892,,,,,,,,,,,,,,,,,,masks/mask_005.jpg,0,3,3,4,1,,,,,,,,,,,,,,,,,,,,,,,,,,,,,,,,,,,,,,,,,,,,,,,,,,,,,,,,,,,,,,,,,,,,,,,,,,,,,,,,,,,,,,,,
454008,001,2022-11-20_17h53.23.364,Info_measure_main_exp,2022.2.2,Win32,59.9268892,,,,,,,,,,,,,,,,,,masks/mask_001.jpg,0,4,4,0,1,,,,,,,,,,,,,,,,,,,,,,,,,,,,,,,,,,,,,,,,,,,,,,,,,,,,,,,,,,,,,,,,,,,,,,,,,,,,,,,,,,,,,,,,
454008,001,2022-11-20_17h53.23.364,Info_measure_main_exp,2022.2.2,Win32,59.9268892,,,,,,,,,,,,,,,,,,,,,,,,0.02734375,0.0546875,1,0,0,response1disk,7,137.6128,1,-0.002604167,0.002604167,1,0,0,center_square,0,0,0,0,1,0,131,5,5,2370,2406,prac_patch/patch0002370.jpg,prac_patch/patch0002406.jpg,,,,,,,,,,,,,,,,,,,,,,,,,,,,,,,,,,,,,,,,,,,,,,,,,,,,,,,,,,,,
454008,001,2022-11-20_17h53.23.364,Info_measure_main_exp,2022.2.2,Win32,59.9268892,,,,,,,,,,,,,0,0,0,1,1,masks/mask_002.jpg,,,,,,,,,,,,,,,,,,,,,,,,,,,,,,,,,,,,,,,,,,,,,,,,,,,,,,,,,,,,,,,,,,,,,,,,,,,,,,,,,,,,,,,,,,,,,
454008,001,2022-11-20_17h53.23.364,Info_measure_main_exp,2022.2.2,Win32,59.9268892,,,,,,,,,,,,,0,1,1,4,1,masks/mask_005.jpg,,,,,,,,,,,,,,,,,,,,,,,,,,,,,,,,,,,,,,,,,,,,,,,,,,,,,,,,,,,,,,,,,,,,,,,,,,,,,,,,,,,,,,,,,,,,,
454008,001,2022-11-20_17h53.23.364,Info_measure_main_exp,2022.2.2,Win32,59.9268892,,,,,,,,,,,,,0,2,2,2,1,masks/mask_003.jpg,,,,,,,,,,,,,,,,,,,,,,,,,,,,,,,,,,,,,,,,,,,,,,,,,,,,,,,,,,,,,,,,,,,,,,,,,,,,,,,,,,,,,,,,,,,,,
454008,001,2022-11-20_17h53.23.364,Info_measure_main_exp,2022.2.2,Win32,59.9268892,,,,,,,,,,,,,0,3,3,3,1,masks/mask_004.jpg,,,,,,,,,,,,,,,,,,,,,,,,,,,,,,,,,,,,,,,,,,,,,,,,,,,,,,,,,,,,,,,,,,,,,,,,,,,,,,,,,,,,,,,,,,,,,
454008,001,2022-11-20_17h53.23.364,Info_measure_main_exp,2022.2.2,Win32,59.9268892,,,,,,,,,,,,,0,4,4,0,1,masks/mask_001.jpg,,,,,,,,,,,,,,,,,,,,,,,,,,,,,,,,,,,,,,,,,,,,,,,,,,,,,,,,,,,,,,,,,,,,,,,,,,,,,,,,,,,,,,,,,,,,,
454008,001,2022-11-20_17h53.23.364,Info_measure_main_exp,2022.2.2,Win32,59.9268892,,,,,,,,,,,,,,,,,,masks/mask_003.jpg,0,0,0,2,1,,,,,,,,,,,,,,,,,,,,,,,,,,,,,,,,,,,,,,,,,,,,,,,,,,,,,,,,,,,,,,,,,,,,,,,,,,,,,,,,,,,,,,,,
454008,001,2022-11-20_17h53.23.364,Info_measure_main_exp,2022.2.2,Win32,59.9268892,,,,,,,,,,,,,,,,,,masks/mask_001.jpg,0,1,1,0,1,,,,,,,,,,,,,,,,,,,,,,,,,,,,,,,,,,,,,,,,,,,,,,,,,,,,,,,,,,,,,,,,,,,,,,,,,,,,,,,,,,,,,,,,
454008,001,2022-11-20_17h53.23.364,Info_measure_main_exp,2022.2.2,Win32,59.9268892,,,,,,,,,,,,,,,,,,masks/mask_002.jpg,0,2,2,1,1,,,,,,,,,,,,,,,,,,,,,,,,,,,,,,,,,,,,,,,,,,,,,,,,,,,,,,,,,,,,,,,,,,,,,,,,,,,,,,,,,,,,,,,,
454008,001,2022-11-20_17h53.23.364,Info_measure_main_exp,2022.2.2,Win32,59.9268892,,,,,,,,,,,,,,,,,,masks/mask_004.jpg,0,3,3,3,1,,,,,,,,,,,,,,,,,,,,,,,,,,,,,,,,,,,,,,,,,,,,,,,,,,,,,,,,,,,,,,,,,,,,,,,,,,,,,,,,,,,,,,,,
454008,001,2022-11-20_17h53.23.364,Info_measure_main_exp,2022.2.2,Win32,59.9268892,,,,,,,,,,,,,,,,,,masks/mask_005.jpg,0,4,4,4,1,,,,,,,,,,,,,,,,,,,,,,,,,,,,,,,,,,,,,,,,,,,,,,,,,,,,,,,,,,,,,,,,,,,,,,,,,,,,,,,,,,,,,,,,
454008,001,2022-11-20_17h53.23.364,Info_measure_main_exp,2022.2.2,Win32,59.9268892,,,,,,,,,,,,,,,,,,,,,,,,-0.020833333,0.078125,1,0,0,response7disk,0,146.7919,1,0.005208333,0,1,0,0,center_square,0,1,1,2,1,0,131,5,5,2526,2526,prac_patch/patch0002526.jpg,prac_patch/patch0002526.jpg,,,,,,,,,,,,,,,,,,,,,,,,,,,,,,,,,,,,,,,,,,,,,,,,,,,,,,,,,,,,
454008,001,2022-11-20_17h53.23.364,Info_measure_main_exp,2022.2.2,Win32,59.9268892,,,,,,,,,,,,,0,0,0,2,1,masks/mask_003.jpg,,,,,,,,,,,,,,,,,,,,,,,,,,,,,,,,,,,,,,,,,,,,,,,,,,,,,,,,,,,,,,,,,,,,,,,,,,,,,,,,,,,,,,,,,,,,,
454008,001,2022-11-20_17h53.23.364,Info_measure_main_exp,2022.2.2,Win32,59.9268892,,,,,,,,,,,,,0,1,1,1,1,masks/mask_002.jpg,,,,,,,,,,,,,,,,,,,,,,,,,,,,,,,,,,,,,,,,,,,,,,,,,,,,,,,,,,,,,,,,,,,,,,,,,,,,,,,,,,,,,,,,,,,,,
454008,001,2022-11-20_17h53.23.364,Info_measure_main_exp,2022.2.2,Win32,59.9268892,,,,,,,,,,,,,0,2,2,4,1,masks/mask_005.jpg,,,,,,,,,,,,,,,,,,,,,,,,,,,,,,,,,,,,,,,,,,,,,,,,,,,,,,,,,,,,,,,,,,,,,,,,,,,,,,,,,,,,,,,,,,,,,
454008,001,2022-11-20_17h53.23.364,Info_measure_main_exp,2022.2.2,Win32,59.9268892,,,,,,,,,,,,,0,3,3,0,1,masks/mask_001.jpg,,,,,,,,,,,,,,,,,,,,,,,,,,,,,,,,,,,,,,,,,,,,,,,,,,,,,,,,,,,,,,,,,,,,,,,,,,,,,,,,,,,,,,,,,,,,,
454008,001,2022-11-20_17h53.23.364,Info_measure_main_exp,2022.2.2,Win32,59.9268892,,,,,,,,,,,,,0,4,4,3,1,masks/mask_004.jpg,,,,,,,,,,,,,,,,,,,,,,,,,,,,,,,,,,,,,,,,,,,,,,,,,,,,,,,,,,,,,,,,,,,,,,,,,,,,,,,,,,,,,,,,,,,,,
454008,001,2022-11-20_17h53.23.364,Info_measure_main_exp,2022.2.2,Win32,59.9268892,,,,,,,,,,,,,,,,,,masks/mask_002.jpg,0,0,0,1,1,,,,,,,,,,,,,,,,,,,,,,,,,,,,,,,,,,,,,,,,,,,,,,,,,,,,,,,,,,,,,,,,,,,,,,,,,,,,,,,,,,,,,,,,
454008,001,2022-11-20_17h53.23.364,Info_measure_main_exp,2022.2.2,Win32,59.9268892,,,,,,,,,,,,,,,,,,masks/mask_005.jpg,0,1,1,4,1,,,,,,,,,,,,,,,,,,,,,,,,,,,,,,,,,,,,,,,,,,,,,,,,,,,,,,,,,,,,,,,,,,,,,,,,,,,,,,,,,,,,,,,,
454008,001,2022-11-20_17h53.23.364,Info_measure_main_exp,2022.2.2,Win32,59.9268892,,,,,,,,,,,,,,,,,,masks/mask_001.jpg,0,2,2,0,1,,,,,,,,,,,,,,,,,,,,,,,,,,,,,,,,,,,,,,,,,,,,,,,,,,,,,,,,,,,,,,,,,,,,,,,,,,,,,,,,,,,,,,,,
454008,001,2022-11-20_17h53.23.364,Info_measure_main_exp,2022.2.2,Win32,59.9268892,,,,,,,,,,,,,,,,,,masks/mask_003.jpg,0,3,3,2,1,,,,,,,,,,,,,,,,,,,,,,,,,,,,,,,,,,,,,,,,,,,,,,,,,,,,,,,,,,,,,,,,,,,,,,,,,,,,,,,,,,,,,,,,
454008,001,2022-11-20_17h53.23.364,Info_measure_main_exp,2022.2.2,Win32,59.9268892,,,,,,,,,,,,,,,,,,masks/mask_004.jpg,0,4,4,3,1,,,,,,,,,,,,,,,,,,,,,,,,,,,,,,,,,,,,,,,,,,,,,,,,,,,,,,,,,,,,,,,,,,,,,,,,,,,,,,,,,,,,,,,,
454008,001,2022-11-20_17h53.23.364,Info_measure_main_exp,2022.2.2,Win32,59.9268892,,,,,,,,,,,,,,,,,,,,,,,,0.059895833,0.04296875,1,0,0,response1disk,6,156.2043,1,-0.009114583,0.00390625,1,0,0,center_square,0,2,2,1,1,0,131,5,5,2514,2490,prac_patch/patch0002514.jpg,prac_patch/patch0002490.jpg,,,,,,,,,,,,,,,,,,,,,,,,,,,,,,,,,,,,,,,,,,,,,,,,,,,,,,,,,,,,
454008,001,2022-11-20_17h53.23.364,Info_measure_main_exp,2022.2.2,Win32,59.9268892,,,,,,,,,,,,,,,,,,,,,,,,,,,,,,,,,,,,,,,,,,,,,,,,,,,,,,,,,,,space,8.8332,,,,,,,,,,,,,,,,,,,,,,,,,,,,,,,,,,,,,,,,,,,,,,,,,,,
454008,001,2022-11-20_17h53.23.364,Info_measure_main_exp,2022.2.2,Win32,59.9268892,,,,,,,,,,,,,,,,,,masks/mask_003.jpg,,,,,,,,,,,,,,,,,,,,,,,,,,,,,,,,,,,,,,,,,,,0,0,0,2,1,,,,,,,,,,,,,,,,,,,,,,,,,,,,,,,,,,,,,,,,,,,,,,
454008,001,2022-11-20_17h53.23.364,Info_measure_main_exp,2022.2.2,Win32,59.9268892,,,,,,,,,,,,,,,,,,masks/mask_002.jpg,,,,,,,,,,,,,,,,,,,,,,,,,,,,,,,,,,,,,,,,,,,0,1,1,1,1,,,,,,,,,,,,,,,,,,,,,,,,,,,,,,,,,,,,,,,,,,,,,,
454008,001,2022-11-20_17h53.23.364,Info_measure_main_exp,2022.2.2,Win32,59.9268892,,,,,,,,,,,,,,,,,,masks/mask_005.jpg,,,,,,,,,,,,,,,,,,,,,,,,,,,,,,,,,,,,,,,,,,,0,2,2,4,1,,,,,,,,,,,,,,,,,,,,,,,,,,,,,,,,,,,,,,,,,,,,,,
454008,001,2022-11-20_17h53.23.364,Info_measure_main_exp,2022.2.2,Win32,59.9268892,,,,,,,,,,,,,,,,,,masks/mask_001.jpg,,,,,,,,,,,,,,,,,,,,,,,,,,,,,,,,,,,,,,,,,,,0,3,3,0,1,,,,,,,,,,,,,,,,,,,,,,,,,,,,,,,,,,,,,,,,,,,,,,
454008,001,2022-11-20_17h53.23.364,Info_measure_main_exp,2022.2.2,Win32,59.9268892,,,,,,,,,,,,,,,,,,masks/mask_004.jpg,,,,,,,,,,,,,,,,,,,,,,,,,,,,,,,,,,,,,,,,,,,0,4,4,3,1,,,,,,,,,,,,,,,,,,,,,,,,,,,,,,,,,,,,,,,,,,,,,,
454008,001,2022-11-20_17h53.23.364,Info_measure_main_exp,2022.2.2,Win32,59.9268892,,,,,,,,,,,,,,,,,,masks/mask_001.jpg,,,,,,,,,,,,,,,,,,,,,,,,,,,,,,,,,,,,,,,,,,,,,,,,0,0,0,0,1,,,,,,,,,,,,,,,,,,,,,,,,,,,,,,,,,,,,,,,,,
454008,001,2022-11-20_17h53.23.364,Info_measure_main_exp,2022.2.2,Win32,59.9268892,,,,,,,,,,,,,,,,,,masks/mask_003.jpg,,,,,,,,,,,,,,,,,,,,,,,,,,,,,,,,,,,,,,,,,,,,,,,,0,1,1,2,1,,,,,,,,,,,,,,,,,,,,,,,,,,,,,,,,,,,,,,,,,
454008,001,2022-11-20_17h53.23.364,Info_measure_main_exp,2022.2.2,Win32,59.9268892,,,,,,,,,,,,,,,,,,masks/mask_002.jpg,,,,,,,,,,,,,,,,,,,,,,,,,,,,,,,,,,,,,,,,,,,,,,,,0,2,2,1,1,,,,,,,,,,,,,,,,,,,,,,,,,,,,,,,,,,,,,,,,,
454008,001,2022-11-20_17h53.23.364,Info_measure_main_exp,2022.2.2,Win32,59.9268892,,,,,,,,,,,,,,,,,,masks/mask_005.jpg,,,,,,,,,,,,,,,,,,,,,,,,,,,,,,,,,,,,,,,,,,,,,,,,0,3,3,4,1,,,,,,,,,,,,,,,,,,,,,,,,,,,,,,,,,,,,,,,,,
454008,001,2022-11-20_17h53.23.364,Info_measure_main_exp,2022.2.2,Win32,59.9268892,,,,,,,,,,,,,,,,,,masks/mask_004.jpg,,,,,,,,,,,,,,,,,,,,,,,,,,,,,,,,,,,,,,,,,,,,,,,,0,4,4,3,1,,,,,,,,,,,,,,,,,,,,,,,,,,,,,,,,,,,,,,,,,
454008,001,2022-11-20_17h53.23.364,Info_measure_main_exp,2022.2.2,Win32,59.9268892,,,,,,,,,,,,,,,,,,,,,,,,,,,,,,0,1.0851,1,,,,,,,,,,,,0,131,5,5,2250,2250,absent_patch/patch0002250.jpg,absent_patch/patch0002250.jpg,,,,,,,,,,,,,,,,,,,,-0.036458333,0.098958333,1,0,0,response7disk,1,0.01171875,0.010416667,1,0,0,center_square,0,0,0,56,1,,,,,,,,,,,,,,,,,,,,,,,
454008,001,2022-11-20_17h53.23.364,Info_measure_main_exp,2022.2.2,Win32,59.9268892,,,,,,,,,,,,,,,,,,masks/mask_001.jpg,,,,,,,,,,,,,,,,,,,,,,,,,,,,,,,,,,,,,,,,,,,0,0,0,0,1,,,,,,,,,,,,,,,,,,,,,,,,,,,,,,,,,,,,,,,,,,,,,,
454008,001,2022-11-20_17h53.23.364,Info_measure_main_exp,2022.2.2,Win32,59.9268892,,,,,,,,,,,,,,,,,,masks/mask_004.jpg,,,,,,,,,,,,,,,,,,,,,,,,,,,,,,,,,,,,,,,,,,,0,1,1,3,1,,,,,,,,,,,,,,,,,,,,,,,,,,,,,,,,,,,,,,,,,,,,,,
454008,001,2022-11-20_17h53.23.364,Info_measure_main_exp,2022.2.2,Win32,59.9268892,,,,,,,,,,,,,,,,,,masks/mask_005.jpg,,,,,,,,,,,,,,,,,,,,,,,,,,,,,,,,,,,,,,,,,,,0,2,2,4,1,,,,,,,,,,,,,,,,,,,,,,,,,,,,,,,,,,,,,,,,,,,,,,
454008,001,2022-11-20_17h53.23.364,Info_measure_main_exp,2022.2.2,Win32,59.9268892,,,,,,,,,,,,,,,,,,masks/mask_002.jpg,,,,,,,,,,,,,,,,,,,,,,,,,,,,,,,,,,,,,,,,,,,0,3,3,1,1,,,,,,,,,,,,,,,,,,,,,,,,,,,,,,,,,,,,,,,,,,,,,,
454008,001,2022-11-20_17h53.23.364,Info_measure_main_exp,2022.2.2,Win32,59.9268892,,,,,,,,,,,,,,,,,,masks/mask_003.jpg,,,,,,,,,,,,,,,,,,,,,,,,,,,,,,,,,,,,,,,,,,,0,4,4,2,1,,,,,,,,,,,,,,,,,,,,,,,,,,,,,,,,,,,,,,,,,,,,,,
454008,001,2022-11-20_17h53.23.364,Info_measure_main_exp,2022.2.2,Win32,59.9268892,,,,,,,,,,,,,,,,,,masks/mask_002.jpg,,,,,,,,,,,,,,,,,,,,,,,,,,,,,,,,,,,,,,,,,,,,,,,,0,0,0,1,1,,,,,,,,,,,,,,,,,,,,,,,,,,,,,,,,,,,,,,,,,
454008,001,2022-11-20_17h53.23.364,Info_measure_main_exp,2022.2.2,Win32,59.9268892,,,,,,,,,,,,,,,,,,masks/mask_001.jpg,,,,,,,,,,,,,,,,,,,,,,,,,,,,,,,,,,,,,,,,,,,,,,,,0,1,1,0,1,,,,,,,,,,,,,,,,,,,,,,,,,,,,,,,,,,,,,,,,,
454008,001,2022-11-20_17h53.23.364,Info_measure_main_exp,2022.2.2,Win32,59.9268892,,,,,,,,,,,,,,,,,,masks/mask_005.jpg,,,,,,,,,,,,,,,,,,,,,,,,,,,,,,,,,,,,,,,,,,,,,,,,0,2,2,4,1,,,,,,,,,,,,,,,,,,,,,,,,,,,,,,,,,,,,,,,,,
454008,001,2022-11-20_17h53.23.364,Info_measure_main_exp,2022.2.2,Win32,59.9268892,,,,,,,,,,,,,,,,,,masks/mask_004.jpg,,,,,,,,,,,,,,,,,,,,,,,,,,,,,,,,,,,,,,,,,,,,,,,,0,3,3,3,1,,,,,,,,,,,,,,,,,,,,,,,,,,,,,,,,,,,,,,,,,
454008,001,2022-11-20_17h53.23.364,Info_measure_main_exp,2022.2.2,Win32,59.9268892,,,,,,,,,,,,,,,,,,masks/mask_003.jpg,,,,,,,,,,,,,,,,,,,,,,,,,,,,,,,,,,,,,,,,,,,,,,,,0,4,4,2,1,,,,,,,,,,,,,,,,,,,,,,,,,,,,,,,,,,,,,,,,,
454008,001,2022-11-20_17h53.23.364,Info_measure_main_exp,2022.2.2,Win32,59.9268892,,,,,,,,,,,,,,,,,,,,,,,,,,,,,,0,0.8709,1,,,,,,,,,,,,0,131,5,5,2142,2142,absent_patch/patch0002142.jpg,absent_patch/patch0002142.jpg,,,,,,,,,,,,,,,,,,,,-0.033854167,0.106770833,1,0,0,response7disk,2,0.006510417,0.009114583,1,0,0,center_square,0,1,1,13,1,,,,,,,,,,,,,,,,,,,,,,,
454008,001,2022-11-20_17h53.23.364,Info_measure_main_exp,2022.2.2,Win32,59.9268892,,,,,,,,,,,,,,,,,,masks/mask_003.jpg,,,,,,,,,,,,,,,,,,,,,,,,,,,,,,,,,,,,,,,,,,,0,0,0,2,1,,,,,,,,,,,,,,,,,,,,,,,,,,,,,,,,,,,,,,,,,,,,,,
454008,001,2022-11-20_17h53.23.364,Info_measure_main_exp,2022.2.2,Win32,59.9268892,,,,,,,,,,,,,,,,,,masks/mask_004.jpg,,,,,,,,,,,,,,,,,,,,,,,,,,,,,,,,,,,,,,,,,,,0,1,1,3,1,,,,,,,,,,,,,,,,,,,,,,,,,,,,,,,,,,,,,,,,,,,,,,
454008,001,2022-11-20_17h53.23.364,Info_measure_main_exp,2022.2.2,Win32,59.9268892,,,,,,,,,,,,,,,,,,masks/mask_001.jpg,,,,,,,,,,,,,,,,,,,,,,,,,,,,,,,,,,,,,,,,,,,0,2,2,0,1,,,,,,,,,,,,,,,,,,,,,,,,,,,,,,,,,,,,,,,,,,,,,,
454008,001,2022-11-20_17h53.23.364,Info_measure_main_exp,2022.2.2,Win32,59.9268892,,,,,,,,,,,,,,,,,,masks/mask_005.jpg,,,,,,,,,,,,,,,,,,,,,,,,,,,,,,,,,,,,,,,,,,,0,3,3,4,1,,,,,,,,,,,,,,,,,,,,,,,,,,,,,,,,,,,,,,,,,,,,,,
454008,001,2022-11-20_17h53.23.364,Info_measure_main_exp,2022.2.2,Win32,59.9268892,,,,,,,,,,,,,,,,,,masks/mask_002.jpg,,,,,,,,,,,,,,,,,,,,,,,,,,,,,,,,,,,,,,,,,,,0,4,4,1,1,,,,,,,,,,,,,,,,,,,,,,,,,,,,,,,,,,,,,,,,,,,,,,
454008,001,2022-11-20_17h53.23.364,Info_measure_main_exp,2022.2.2,Win32,59.9268892,,,,,,,,,,,,,,,,,,masks/mask_002.jpg,,,,,,,,,,,,,,,,,,,,,,,,,,,,,,,,,,,,,,,,,,,,,,,,0,0,0,1,1,,,,,,,,,,,,,,,,,,,,,,,,,,,,,,,,,,,,,,,,,
454008,001,2022-11-20_17h53.23.364,Info_measure_main_exp,2022.2.2,Win32,59.9268892,,,,,,,,,,,,,,,,,,masks/mask_001.jpg,,,,,,,,,,,,,,,,,,,,,,,,,,,,,,,,,,,,,,,,,,,,,,,,0,1,1,0,1,,,,,,,,,,,,,,,,,,,,,,,,,,,,,,,,,,,,,,,,,
454008,001,2022-11-20_17h53.23.364,Info_measure_main_exp,2022.2.2,Win32,59.9268892,,,,,,,,,,,,,,,,,,masks/mask_003.jpg,,,,,,,,,,,,,,,,,,,,,,,,,,,,,,,,,,,,,,,,,,,,,,,,0,2,2,2,1,,,,,,,,,,,,,,,,,,,,,,,,,,,,,,,,,,,,,,,,,
454008,001,2022-11-20_17h53.23.364,Info_measure_main_exp,2022.2.2,Win32,59.9268892,,,,,,,,,,,,,,,,,,masks/mask_005.jpg,,,,,,,,,,,,,,,,,,,,,,,,,,,,,,,,,,,,,,,,,,,,,,,,0,3,3,4,1,,,,,,,,,,,,,,,,,,,,,,,,,,,,,,,,,,,,,,,,,
454008,001,2022-11-20_17h53.23.364,Info_measure_main_exp,2022.2.2,Win32,59.9268892,,,,,,,,,,,,,,,,,,masks/mask_004.jpg,,,,,,,,,,,,,,,,,,,,,,,,,,,,,,,,,,,,,,,,,,,,,,,,0,4,4,3,1,,,,,,,,,,,,,,,,,,,,,,,,,,,,,,,,,,,,,,,,,
454008,001,2022-11-20_17h53.23.364,Info_measure_main_exp,2022.2.2,Win32,59.9268892,,,,,,,,,,,,,,,,,,,,,,,,,,,,,,7,1.1058,1,,,,,,,,,,,,0,131,5,5,1986,1974,absent_patch/patch0001986.jpg,absent_patch/patch0001974.jpg,,,,,,,,,,,,,,,,,,,,0.067708333,0.145833333,1,0,0,response1disk,3,-0.002604167,0.00390625,1,0,0,center_square,0,2,2,25,1,,,,,,,,,,,,,,,,,,,,,,,
454008,001,2022-11-20_17h53.23.364,Info_measure_main_exp,2022.2.2,Win32,59.9268892,,,,,,,,,,,,,,,,,,masks/mask_004.jpg,,,,,,,,,,,,,,,,,,,,,,,,,,,,,,,,,,,,,,,,,,,0,0,0,3,1,,,,,,,,,,,,,,,,,,,,,,,,,,,,,,,,,,,,,,,,,,,,,,
454008,001,2022-11-20_17h53.23.364,Info_measure_main_exp,2022.2.2,Win32,59.9268892,,,,,,,,,,,,,,,,,,masks/mask_002.jpg,,,,,,,,,,,,,,,,,,,,,,,,,,,,,,,,,,,,,,,,,,,0,1,1,1,1,,,,,,,,,,,,,,,,,,,,,,,,,,,,,,,,,,,,,,,,,,,,,,
454008,001,2022-11-20_17h53.23.364,Info_measure_main_exp,2022.2.2,Win32,59.9268892,,,,,,,,,,,,,,,,,,masks/mask_005.jpg,,,,,,,,,,,,,,,,,,,,,,,,,,,,,,,,,,,,,,,,,,,0,2,2,4,1,,,,,,,,,,,,,,,,,,,,,,,,,,,,,,,,,,,,,,,,,,,,,,
454008,001,2022-11-20_17h53.23.364,Info_measure_main_exp,2022.2.2,Win32,59.9268892,,,,,,,,,,,,,,,,,,masks/mask_001.jpg,,,,,,,,,,,,,,,,,,,,,,,,,,,,,,,,,,,,,,,,,,,0,3,3,0,1,,,,,,,,,,,,,,,,,,,,,,,,,,,,,,,,,,,,,,,,,,,,,,
454008,001,2022-11-20_17h53.23.364,Info_measure_main_exp,2022.2.2,Win32,59.9268892,,,,,,,,,,,,,,,,,,masks/mask_003.jpg,,,,,,,,,,,,,,,,,,,,,,,,,,,,,,,,,,,,,,,,,,,0,4,4,2,1,,,,,,,,,,,,,,,,,,,,,,,,,,,,,,,,,,,,,,,,,,,,,,
454008,001,2022-11-20_17h53.23.364,Info_measure_main_exp,2022.2.2,Win32,59.9268892,,,,,,,,,,,,,,,,,,masks/mask_004.jpg,,,,,,,,,,,,,,,,,,,,,,,,,,,,,,,,,,,,,,,,,,,,,,,,0,0,0,3,1,,,,,,,,,,,,,,,,,,,,,,,,,,,,,,,,,,,,,,,,,
454008,001,2022-11-20_17h53.23.364,Info_measure_main_exp,2022.2.2,Win32,59.9268892,,,,,,,,,,,,,,,,,,masks/mask_003.jpg,,,,,,,,,,,,,,,,,,,,,,,,,,,,,,,,,,,,,,,,,,,,,,,,0,1,1,2,1,,,,,,,,,,,,,,,,,,,,,,,,,,,,,,,,,,,,,,,,,
454008,001,2022-11-20_17h53.23.364,Info_measure_main_exp,2022.2.2,Win32,59.9268892,,,,,,,,,,,,,,,,,,masks/mask_002.jpg,,,,,,,,,,,,,,,,,,,,,,,,,,,,,,,,,,,,,,,,,,,,,,,,0,2,2,1,1,,,,,,,,,,,,,,,,,,,,,,,,,,,,,,,,,,,,,,,,,
454008,001,2022-11-20_17h53.23.364,Info_measure_main_exp,2022.2.2,Win32,59.9268892,,,,,,,,,,,,,,,,,,masks/mask_005.jpg,,,,,,,,,,,,,,,,,,,,,,,,,,,,,,,,,,,,,,,,,,,,,,,,0,3,3,4,1,,,,,,,,,,,,,,,,,,,,,,,,,,,,,,,,,,,,,,,,,
454008,001,2022-11-20_17h53.23.364,Info_measure_main_exp,2022.2.2,Win32,59.9268892,,,,,,,,,,,,,,,,,,masks/mask_001.jpg,,,,,,,,,,,,,,,,,,,,,,,,,,,,,,,,,,,,,,,,,,,,,,,,0,4,4,0,1,,,,,,,,,,,,,,,,,,,,,,,,,,,,,,,,,,,,,,,,,
454008,001,2022-11-20_17h53.23.364,Info_measure_main_exp,2022.2.2,Win32,59.9268892,,,,,,,,,,,,,,,,,,,,,,,,,,,,,,7,2.831,1,,,,,,,,,,,,0,131,5,5,2178,2154,absent_patch/patch0002178.jpg,absent_patch/patch0002154.jpg,,,,,,,,,,,,,,,,,,,,0.05078125,0.114583333,1,0,0,response1disk,4,0,-0.0078125,1,0,0,center_square,0,3,3,63,1,,,,,,,,,,,,,,,,,,,,,,,
454008,001,2022-11-20_17h53.23.364,Info_measure_main_exp,2022.2.2,Win32,59.9268892,,,,,,,,,,,,,,,,,,masks/mask_003.jpg,,,,,,,,,,,,,,,,,,,,,,,,,,,,,,,,,,,,,,,,,,,0,0,0,2,1,,,,,,,,,,,,,,,,,,,,,,,,,,,,,,,,,,,,,,,,,,,,,,
454008,001,2022-11-20_17h53.23.364,Info_measure_main_exp,2022.2.2,Win32,59.9268892,,,,,,,,,,,,,,,,,,masks/mask_002.jpg,,,,,,,,,,,,,,,,,,,,,,,,,,,,,,,,,,,,,,,,,,,0,1,1,1,1,,,,,,,,,,,,,,,,,,,,,,,,,,,,,,,,,,,,,,,,,,,,,,
454008,001,2022-11-20_17h53.23.364,Info_measure_main_exp,2022.2.2,Win32,59.9268892,,,,,,,,,,,,,,,,,,masks/mask_004.jpg,,,,,,,,,,,,,,,,,,,,,,,,,,,,,,,,,,,,,,,,,,,0,2,2,3,1,,,,,,,,,,,,,,,,,,,,,,,,,,,,,,,,,,,,,,,,,,,,,,
454008,001,2022-11-20_17h53.23.364,Info_measure_main_exp,2022.2.2,Win32,59.9268892,,,,,,,,,,,,,,,,,,masks/mask_001.jpg,,,,,,,,,,,,,,,,,,,,,,,,,,,,,,,,,,,,,,,,,,,0,3,3,0,1,,,,,,,,,,,,,,,,,,,,,,,,,,,,,,,,,,,,,,,,,,,,,,
454008,001,2022-11-20_17h53.23.364,Info_measure_main_exp,2022.2.2,Win32,59.9268892,,,,,,,,,,,,,,,,,,masks/mask_005.jpg,,,,,,,,,,,,,,,,,,,,,,,,,,,,,,,,,,,,,,,,,,,0,4,4,4,1,,,,,,,,,,,,,,,,,,,,,,,,,,,,,,,,,,,,,,,,,,,,,,
454008,001,2022-11-20_17h53.23.364,Info_measure_main_exp,2022.2.2,Win32,59.9268892,,,,,,,,,,,,,,,,,,masks/mask_003.jpg,,,,,,,,,,,,,,,,,,,,,,,,,,,,,,,,,,,,,,,,,,,,,,,,0,0,0,2,1,,,,,,,,,,,,,,,,,,,,,,,,,,,,,,,,,,,,,,,,,
454008,001,2022-11-20_17h53.23.364,Info_measure_main_exp,2022.2.2,Win32,59.9268892,,,,,,,,,,,,,,,,,,masks/mask_004.jpg,,,,,,,,,,,,,,,,,,,,,,,,,,,,,,,,,,,,,,,,,,,,,,,,0,1,1,3,1,,,,,,,,,,,,,,,,,,,,,,,,,,,,,,,,,,,,,,,,,
454008,001,2022-11-20_17h53.23.364,Info_measure_main_exp,2022.2.2,Win32,59.9268892,,,,,,,,,,,,,,,,,,masks/mask_005.jpg,,,,,,,,,,,,,,,,,,,,,,,,,,,,,,,,,,,,,,,,,,,,,,,,0,2,2,4,1,,,,,,,,,,,,,,,,,,,,,,,,,,,,,,,,,,,,,,,,,
454008,001,2022-11-20_17h53.23.364,Info_measure_main_exp,2022.2.2,Win32,59.9268892,,,,,,,,,,,,,,,,,,masks/mask_002.jpg,,,,,,,,,,,,,,,,,,,,,,,,,,,,,,,,,,,,,,,,,,,,,,,,0,3,3,1,1,,,,,,,,,,,,,,,,,,,,,,,,,,,,,,,,,,,,,,,,,
454008,001,2022-11-20_17h53.23.364,Info_measure_main_exp,2022.2.2,Win32,59.9268892,,,,,,,,,,,,,,,,,,masks/mask_001.jpg,,,,,,,,,,,,,,,,,,,,,,,,,,,,,,,,,,,,,,,,,,,,,,,,0,4,4,0,1,,,,,,,,,,,,,,,,,,,,,,,,,,,,,,,,,,,,,,,,,
454008,001,2022-11-20_17h53.23.364,Info_measure_main_exp,2022.2.2,Win32,59.9268892,,,,,,,,,,,,,,,,,,,,,,,,,,,,,,7,1.3066,1,,,,,,,,,,,,0,131,5,5,2274,2166,absent_patch/patch0002274.jpg,absent_patch/patch0002166.jpg,,,,,,,,,,,,,,,,,,,,0.040364583,0.127604167,1,0,0,response1disk,5,-0.010416667,-0.006510417,1,0,0,center_square,0,4,4,78,1,,,,,,,,,,,,,,,,,,,,,,,
454008,001,2022-11-20_17h53.23.364,Info_measure_main_exp,2022.2.2,Win32,59.9268892,,,,,,,,,,,,,,,,,,masks/mask_001.jpg,,,,,,,,,,,,,,,,,,,,,,,,,,,,,,,,,,,,,,,,,,,0,0,0,0,1,,,,,,,,,,,,,,,,,,,,,,,,,,,,,,,,,,,,,,,,,,,,,,
454008,001,2022-11-20_17h53.23.364,Info_measure_main_exp,2022.2.2,Win32,59.9268892,,,,,,,,,,,,,,,,,,masks/mask_004.jpg,,,,,,,,,,,,,,,,,,,,,,,,,,,,,,,,,,,,,,,,,,,0,1,1,3,1,,,,,,,,,,,,,,,,,,,,,,,,,,,,,,,,,,,,,,,,,,,,,,
454008,001,2022-11-20_17h53.23.364,Info_measure_main_exp,2022.2.2,Win32,59.9268892,,,,,,,,,,,,,,,,,,masks/mask_005.jpg,,,,,,,,,,,,,,,,,,,,,,,,,,,,,,,,,,,,,,,,,,,0,2,2,4,1,,,,,,,,,,,,,,,,,,,,,,,,,,,,,,,,,,,,,,,,,,,,,,
454008,001,2022-11-20_17h53.23.364,Info_measure_main_exp,2022.2.2,Win32,59.9268892,,,,,,,,,,,,,,,,,,masks/mask_002.jpg,,,,,,,,,,,,,,,,,,,,,,,,,,,,,,,,,,,,,,,,,,,0,3,3,1,1,,,,,,,,,,,,,,,,,,,,,,,,,,,,,,,,,,,,,,,,,,,,,,
454008,001,2022-11-20_17h53.23.364,Info_measure_main_exp,2022.2.2,Win32,59.9268892,,,,,,,,,,,,,,,,,,masks/mask_003.jpg,,,,,,,,,,,,,,,,,,,,,,,,,,,,,,,,,,,,,,,,,,,0,4,4,2,1,,,,,,,,,,,,,,,,,,,,,,,,,,,,,,,,,,,,,,,,,,,,,,
454008,001,2022-11-20_17h53.23.364,Info_measure_main_exp,2022.2.2,Win32,59.9268892,,,,,,,,,,,,,,,,,,masks/mask_005.jpg,,,,,,,,,,,,,,,,,,,,,,,,,,,,,,,,,,,,,,,,,,,,,,,,0,0,0,4,1,,,,,,,,,,,,,,,,,,,,,,,,,,,,,,,,,,,,,,,,,
454008,001,2022-11-20_17h53.23.364,Info_measure_main_exp,2022.2.2,Win32,59.9268892,,,,,,,,,,,,,,,,,,masks/mask_002.jpg,,,,,,,,,,,,,,,,,,,,,,,,,,,,,,,,,,,,,,,,,,,,,,,,0,1,1,1,1,,,,,,,,,,,,,,,,,,,,,,,,,,,,,,,,,,,,,,,,,
454008,001,2022-11-20_17h53.23.364,Info_measure_main_exp,2022.2.2,Win32,59.9268892,,,,,,,,,,,,,,,,,,masks/mask_004.jpg,,,,,,,,,,,,,,,,,,,,,,,,,,,,,,,,,,,,,,,,,,,,,,,,0,2,2,3,1,,,,,,,,,,,,,,,,,,,,,,,,,,,,,,,,,,,,,,,,,
454008,001,2022-11-20_17h53.23.364,Info_measure_main_exp,2022.2.2,Win32,59.9268892,,,,,,,,,,,,,,,,,,masks/mask_003.jpg,,,,,,,,,,,,,,,,,,,,,,,,,,,,,,,,,,,,,,,,,,,,,,,,0,3,3,2,1,,,,,,,,,,,,,,,,,,,,,,,,,,,,,,,,,,,,,,,,,
454008,001,2022-11-20_17h53.23.364,Info_measure_main_exp,2022.2.2,Win32,59.9268892,,,,,,,,,,,,,,,,,,masks/mask_001.jpg,,,,,,,,,,,,,,,,,,,,,,,,,,,,,,,,,,,,,,,,,,,,,,,,0,4,4,0,1,,,,,,,,,,,,,,,,,,,,,,,,,,,,,,,,,,,,,,,,,
454008,001,2022-11-20_17h53.23.364,Info_measure_main_exp,2022.2.2,Win32,59.9268892,,,,,,,,,,,,,,,,,,,,,,,,,,,,,,7,0.8718,1,,,,,,,,,,,,0,131,5,5,1986,1950,absent_patch/patch0001986.jpg,absent_patch/patch0001950.jpg,,,,,,,,,,,,,,,,,,,,0.049479167,0.141927083,1,0,0,response1disk,6,0.005208333,0.0078125,1,0,0,center_square,0,5,5,15,1,,,,,,,,,,,,,,,,,,,,,,,
454008,001,2022-11-20_17h53.23.364,Info_measure_main_exp,2022.2.2,Win32,59.9268892,,,,,,,,,,,,,,,,,,masks/mask_003.jpg,,,,,,,,,,,,,,,,,,,,,,,,,,,,,,,,,,,,,,,,,,,0,0,0,2,1,,,,,,,,,,,,,,,,,,,,,,,,,,,,,,,,,,,,,,,,,,,,,,
454008,001,2022-11-20_17h53.23.364,Info_measure_main_exp,2022.2.2,Win32,59.9268892,,,,,,,,,,,,,,,,,,masks/mask_004.jpg,,,,,,,,,,,,,,,,,,,,,,,,,,,,,,,,,,,,,,,,,,,0,1,1,3,1,,,,,,,,,,,,,,,,,,,,,,,,,,,,,,,,,,,,,,,,,,,,,,
454008,001,2022-11-20_17h53.23.364,Info_measure_main_exp,2022.2.2,Win32,59.9268892,,,,,,,,,,,,,,,,,,masks/mask_005.jpg,,,,,,,,,,,,,,,,,,,,,,,,,,,,,,,,,,,,,,,,,,,0,2,2,4,1,,,,,,,,,,,,,,,,,,,,,,,,,,,,,,,,,,,,,,,,,,,,,,
454008,001,2022-11-20_17h53.23.364,Info_measure_main_exp,2022.2.2,Win32,59.9268892,,,,,,,,,,,,,,,,,,masks/mask_002.jpg,,,,,,,,,,,,,,,,,,,,,,,,,,,,,,,,,,,,,,,,,,,0,3,3,1,1,,,,,,,,,,,,,,,,,,,,,,,,,,,,,,,,,,,,,,,,,,,,,,
454008,001,2022-11-20_17h53.23.364,Info_measure_main_exp,2022.2.2,Win32,59.9268892,,,,,,,,,,,,,,,,,,masks/mask_001.jpg,,,,,,,,,,,,,,,,,,,,,,,,,,,,,,,,,,,,,,,,,,,0,4,4,0,1,,,,,,,,,,,,,,,,,,,,,,,,,,,,,,,,,,,,,,,,,,,,,,
454008,001,2022-11-20_17h53.23.364,Info_measure_main_exp,2022.2.2,Win32,59.9268892,,,,,,,,,,,,,,,,,,masks/mask_001.jpg,,,,,,,,,,,,,,,,,,,,,,,,,,,,,,,,,,,,,,,,,,,,,,,,0,0,0,0,1,,,,,,,,,,,,,,,,,,,,,,,,,,,,,,,,,,,,,,,,,
454008,001,2022-11-20_17h53.23.364,Info_measure_main_exp,2022.2.2,Win32,59.9268892,,,,,,,,,,,,,,,,,,masks/mask_002.jpg,,,,,,,,,,,,,,,,,,,,,,,,,,,,,,,,,,,,,,,,,,,,,,,,0,1,1,1,1,,,,,,,,,,,,,,,,,,,,,,,,,,,,,,,,,,,,,,,,,
454008,001,2022-11-20_17h53.23.364,Info_measure_main_exp,2022.2.2,Win32,59.9268892,,,,,,,,,,,,,,,,,,masks/mask_003.jpg,,,,,,,,,,,,,,,,,,,,,,,,,,,,,,,,,,,,,,,,,,,,,,,,0,2,2,2,1,,,,,,,,,,,,,,,,,,,,,,,,,,,,,,,,,,,,,,,,,
454008,001,2022-11-20_17h53.23.364,Info_measure_main_exp,2022.2.2,Win32,59.9268892,,,,,,,,,,,,,,,,,,masks/mask_004.jpg,,,,,,,,,,,,,,,,,,,,,,,,,,,,,,,,,,,,,,,,,,,,,,,,0,3,3,3,1,,,,,,,,,,,,,,,,,,,,,,,,,,,,,,,,,,,,,,,,,
454008,001,2022-11-20_17h53.23.364,Info_measure_main_exp,2022.2.2,Win32,59.9268892,,,,,,,,,,,,,,,,,,masks/mask_005.jpg,,,,,,,,,,,,,,,,,,,,,,,,,,,,,,,,,,,,,,,,,,,,,,,,0,4,4,4,1,,,,,,,,,,,,,,,,,,,,,,,,,,,,,,,,,,,,,,,,,
454008,001,2022-11-20_17h53.23.364,Info_measure_main_exp,2022.2.2,Win32,59.9268892,,,,,,,,,,,,,,,,,,,,,,,,,,,,,,7,0.8047,1,,,,,,,,,,,,0,131,5,5,2214,2082,absent_patch/patch0002214.jpg,absent_patch/patch0002082.jpg,,,,,,,,,,,,,,,,,,,,0.044270833,0.122395833,1,0,0,response1disk,7,-0.00390625,0.005208333,1,0,0,center_square,0,6,6,103,1,,,,,,,,,,,,,,,,,,,,,,,
454008,001,2022-11-20_17h53.23.364,Info_measure_main_exp,2022.2.2,Win32,59.9268892,,,,,,,,,,,,,,,,,,masks/mask_001.jpg,,,,,,,,,,,,,,,,,,,,,,,,,,,,,,,,,,,,,,,,,,,0,0,0,0,1,,,,,,,,,,,,,,,,,,,,,,,,,,,,,,,,,,,,,,,,,,,,,,
454008,001,2022-11-20_17h53.23.364,Info_measure_main_exp,2022.2.2,Win32,59.9268892,,,,,,,,,,,,,,,,,,masks/mask_004.jpg,,,,,,,,,,,,,,,,,,,,,,,,,,,,,,,,,,,,,,,,,,,0,1,1,3,1,,,,,,,,,,,,,,,,,,,,,,,,,,,,,,,,,,,,,,,,,,,,,,
454008,001,2022-11-20_17h53.23.364,Info_measure_main_exp,2022.2.2,Win32,59.9268892,,,,,,,,,,,,,,,,,,masks/mask_003.jpg,,,,,,,,,,,,,,,,,,,,,,,,,,,,,,,,,,,,,,,,,,,0,2,2,2,1,,,,,,,,,,,,,,,,,,,,,,,,,,,,,,,,,,,,,,,,,,,,,,
454008,001,2022-11-20_17h53.23.364,Info_measure_main_exp,2022.2.2,Win32,59.9268892,,,,,,,,,,,,,,,,,,masks/mask_005.jpg,,,,,,,,,,,,,,,,,,,,,,,,,,,,,,,,,,,,,,,,,,,0,3,3,4,1,,,,,,,,,,,,,,,,,,,,,,,,,,,,,,,,,,,,,,,,,,,,,,
454008,001,2022-11-20_17h53.23.364,Info_measure_main_exp,2022.2.2,Win32,59.9268892,,,,,,,,,,,,,,,,,,masks/mask_002.jpg,,,,,,,,,,,,,,,,,,,,,,,,,,,,,,,,,,,,,,,,,,,0,4,4,1,1,,,,,,,,,,,,,,,,,,,,,,,,,,,,,,,,,,,,,,,,,,,,,,
454008,001,2022-11-20_17h53.23.364,Info_measure_main_exp,2022.2.2,Win32,59.9268892,,,,,,,,,,,,,,,,,,masks/mask_005.jpg,,,,,,,,,,,,,,,,,,,,,,,,,,,,,,,,,,,,,,,,,,,,,,,,0,0,0,4,1,,,,,,,,,,,,,,,,,,,,,,,,,,,,,,,,,,,,,,,,,
454008,001,2022-11-20_17h53.23.364,Info_measure_main_exp,2022.2.2,Win32,59.9268892,,,,,,,,,,,,,,,,,,masks/mask_003.jpg,,,,,,,,,,,,,,,,,,,,,,,,,,,,,,,,,,,,,,,,,,,,,,,,0,1,1,2,1,,,,,,,,,,,,,,,,,,,,,,,,,,,,,,,,,,,,,,,,,
454008,001,2022-11-20_17h53.23.364,Info_measure_main_exp,2022.2.2,Win32,59.9268892,,,,,,,,,,,,,,,,,,masks/mask_001.jpg,,,,,,,,,,,,,,,,,,,,,,,,,,,,,,,,,,,,,,,,,,,,,,,,0,2,2,0,1,,,,,,,,,,,,,,,,,,,,,,,,,,,,,,,,,,,,,,,,,
454008,001,2022-11-20_17h53.23.364,Info_measure_main_exp,2022.2.2,Win32,59.9268892,,,,,,,,,,,,,,,,,,masks/mask_002.jpg,,,,,,,,,,,,,,,,,,,,,,,,,,,,,,,,,,,,,,,,,,,,,,,,0,3,3,1,1,,,,,,,,,,,,,,,,,,,,,,,,,,,,,,,,,,,,,,,,,
454008,001,2022-11-20_17h53.23.364,Info_measure_main_exp,2022.2.2,Win32,59.9268892,,,,,,,,,,,,,,,,,,masks/mask_004.jpg,,,,,,,,,,,,,,,,,,,,,,,,,,,,,,,,,,,,,,,,,,,,,,,,0,4,4,3,1,,,,,,,,,,,,,,,,,,,,,,,,,,,,,,,,,,,,,,,,,
454008,001,2022-11-20_17h53.23.364,Info_measure_main_exp,2022.2.2,Win32,59.9268892,,,,,,,,,,,,,,,,,,,,,,,,,,,,,,7,0.9048,1,,,,,,,,,,,,0,131,5,5,2298,2190,absent_patch/patch0002298.jpg,absent_patch/patch0002190.jpg,,,,,,,,,,,,,,,,,,,,0.046875,0.1171875,1,0,0,response1disk,8,0.002604167,0.01171875,1,0,0,center_square,0,7,7,20,1,,,,,,,,,,,,,,,,,,,,,,,
454008,001,2022-11-20_17h53.23.364,Info_measure_main_exp,2022.2.2,Win32,59.9268892,,,,,,,,,,,,,,,,,,masks/mask_003.jpg,,,,,,,,,,,,,,,,,,,,,,,,,,,,,,,,,,,,,,,,,,,0,0,0,2,1,,,,,,,,,,,,,,,,,,,,,,,,,,,,,,,,,,,,,,,,,,,,,,
454008,001,2022-11-20_17h53.23.364,Info_measure_main_exp,2022.2.2,Win32,59.9268892,,,,,,,,,,,,,,,,,,masks/mask_001.jpg,,,,,,,,,,,,,,,,,,,,,,,,,,,,,,,,,,,,,,,,,,,0,1,1,0,1,,,,,,,,,,,,,,,,,,,,,,,,,,,,,,,,,,,,,,,,,,,,,,
454008,001,2022-11-20_17h53.23.364,Info_measure_main_exp,2022.2.2,Win32,59.9268892,,,,,,,,,,,,,,,,,,masks/mask_002.jpg,,,,,,,,,,,,,,,,,,,,,,,,,,,,,,,,,,,,,,,,,,,0,2,2,1,1,,,,,,,,,,,,,,,,,,,,,,,,,,,,,,,,,,,,,,,,,,,,,,
454008,001,2022-11-20_17h53.23.364,Info_measure_main_exp,2022.2.2,Win32,59.9268892,,,,,,,,,,,,,,,,,,masks/mask_005.jpg,,,,,,,,,,,,,,,,,,,,,,,,,,,,,,,,,,,,,,,,,,,0,3,3,4,1,,,,,,,,,,,,,,,,,,,,,,,,,,,,,,,,,,,,,,,,,,,,,,
454008,001,2022-11-20_17h53.23.364,Info_measure_main_exp,2022.2.2,Win32,59.9268892,,,,,,,,,,,,,,,,,,masks/mask_004.jpg,,,,,,,,,,,,,,,,,,,,,,,,,,,,,,,,,,,,,,,,,,,0,4,4,3,1,,,,,,,,,,,,,,,,,,,,,,,,,,,,,,,,,,,,,,,,,,,,,,
454008,001,2022-11-20_17h53.23.364,Info_measure_main_exp,2022.2.2,Win32,59.9268892,,,,,,,,,,,,,,,,,,masks/mask_002.jpg,,,,,,,,,,,,,,,,,,,,,,,,,,,,,,,,,,,,,,,,,,,,,,,,0,0,0,1,1,,,,,,,,,,,,,,,,,,,,,,,,,,,,,,,,,,,,,,,,,
454008,001,2022-11-20_17h53.23.364,Info_measure_main_exp,2022.2.2,Win32,59.9268892,,,,,,,,,,,,,,,,,,masks/mask_004.jpg,,,,,,,,,,,,,,,,,,,,,,,,,,,,,,,,,,,,,,,,,,,,,,,,0,1,1,3,1,,,,,,,,,,,,,,,,,,,,,,,,,,,,,,,,,,,,,,,,,
454008,001,2022-11-20_17h53.23.364,Info_measure_main_exp,2022.2.2,Win32,59.9268892,,,,,,,,,,,,,,,,,,masks/mask_005.jpg,,,,,,,,,,,,,,,,,,,,,,,,,,,,,,,,,,,,,,,,,,,,,,,,0,2,2,4,1,,,,,,,,,,,,,,,,,,,,,,,,,,,,,,,,,,,,,,,,,
454008,001,2022-11-20_17h53.23.364,Info_measure_main_exp,2022.2.2,Win32,59.9268892,,,,,,,,,,,,,,,,,,masks/mask_001.jpg,,,,,,,,,,,,,,,,,,,,,,,,,,,,,,,,,,,,,,,,,,,,,,,,0,3,3,0,1,,,,,,,,,,,,,,,,,,,,,,,,,,,,,,,,,,,,,,,,,
454008,001,2022-11-20_17h53.23.364,Info_measure_main_exp,2022.2.2,Win32,59.9268892,,,,,,,,,,,,,,,,,,masks/mask_003.jpg,,,,,,,,,,,,,,,,,,,,,,,,,,,,,,,,,,,,,,,,,,,,,,,,0,4,4,2,1,,,,,,,,,,,,,,,,,,,,,,,,,,,,,,,,,,,,,,,,,
454008,001,2022-11-20_17h53.23.364,Info_measure_main_exp,2022.2.2,Win32,59.9268892,,,,,,,,,,,,,,,,,,,,,,,,,,,,,,7,0.7397,1,,,,,,,,,,,,0,131,5,5,2250,2298,absent_patch/patch0002250.jpg,absent_patch/patch0002298.jpg,,,,,,,,,,,,,,,,,,,,0.040364583,0.095052083,1,0,0,response1disk,9,-0.005208333,0,1,0,0,center_square,0,8,8,59,1,,,,,,,,,,,,,,,,,,,,,,,
454008,001,2022-11-20_17h53.23.364,Info_measure_main_exp,2022.2.2,Win32,59.9268892,,,,,,,,,,,,,,,,,,masks/mask_004.jpg,,,,,,,,,,,,,,,,,,,,,,,,,,,,,,,,,,,,,,,,,,,0,0,0,3,1,,,,,,,,,,,,,,,,,,,,,,,,,,,,,,,,,,,,,,,,,,,,,,
454008,001,2022-11-20_17h53.23.364,Info_measure_main_exp,2022.2.2,Win32,59.9268892,,,,,,,,,,,,,,,,,,masks/mask_002.jpg,,,,,,,,,,,,,,,,,,,,,,,,,,,,,,,,,,,,,,,,,,,0,1,1,1,1,,,,,,,,,,,,,,,,,,,,,,,,,,,,,,,,,,,,,,,,,,,,,,
454008,001,2022-11-20_17h53.23.364,Info_measure_main_exp,2022.2.2,Win32,59.9268892,,,,,,,,,,,,,,,,,,masks/mask_001.jpg,,,,,,,,,,,,,,,,,,,,,,,,,,,,,,,,,,,,,,,,,,,0,2,2,0,1,,,,,,,,,,,,,,,,,,,,,,,,,,,,,,,,,,,,,,,,,,,,,,
454008,001,2022-11-20_17h53.23.364,Info_measure_main_exp,2022.2.2,Win32,59.9268892,,,,,,,,,,,,,,,,,,masks/mask_005.jpg,,,,,,,,,,,,,,,,,,,,,,,,,,,,,,,,,,,,,,,,,,,0,3,3,4,1,,,,,,,,,,,,,,,,,,,,,,,,,,,,,,,,,,,,,,,,,,,,,,
454008,001,2022-11-20_17h53.23.364,Info_measure_main_exp,2022.2.2,Win32,59.9268892,,,,,,,,,,,,,,,,,,masks/mask_003.jpg,,,,,,,,,,,,,,,,,,,,,,,,,,,,,,,,,,,,,,,,,,,0,4,4,2,1,,,,,,,,,,,,,,,,,,,,,,,,,,,,,,,,,,,,,,,,,,,,,,
454008,001,2022-11-20_17h53.23.364,Info_measure_main_exp,2022.2.2,Win32,59.9268892,,,,,,,,,,,,,,,,,,masks/mask_001.jpg,,,,,,,,,,,,,,,,,,,,,,,,,,,,,,,,,,,,,,,,,,,,,,,,0,0,0,0,1,,,,,,,,,,,,,,,,,,,,,,,,,,,,,,,,,,,,,,,,,
454008,001,2022-11-20_17h53.23.364,Info_measure_main_exp,2022.2.2,Win32,59.9268892,,,,,,,,,,,,,,,,,,masks/mask_005.jpg,,,,,,,,,,,,,,,,,,,,,,,,,,,,,,,,,,,,,,,,,,,,,,,,0,1,1,4,1,,,,,,,,,,,,,,,,,,,,,,,,,,,,,,,,,,,,,,,,,
454008,001,2022-11-20_17h53.23.364,Info_measure_main_exp,2022.2.2,Win32,59.9268892,,,,,,,,,,,,,,,,,,masks/mask_004.jpg,,,,,,,,,,,,,,,,,,,,,,,,,,,,,,,,,,,,,,,,,,,,,,,,0,2,2,3,1,,,,,,,,,,,,,,,,,,,,,,,,,,,,,,,,,,,,,,,,,
454008,001,2022-11-20_17h53.23.364,Info_measure_main_exp,2022.2.2,Win32,59.9268892,,,,,,,,,,,,,,,,,,masks/mask_002.jpg,,,,,,,,,,,,,,,,,,,,,,,,,,,,,,,,,,,,,,,,,,,,,,,,0,3,3,1,1,,,,,,,,,,,,,,,,,,,,,,,,,,,,,,,,,,,,,,,,,
454008,001,2022-11-20_17h53.23.364,Info_measure_main_exp,2022.2.2,Win32,59.9268892,,,,,,,,,,,,,,,,,,masks/mask_003.jpg,,,,,,,,,,,,,,,,,,,,,,,,,,,,,,,,,,,,,,,,,,,,,,,,0,4,4,2,1,,,,,,,,,,,,,,,,,,,,,,,,,,,,,,,,,,,,,,,,,
454008,001,2022-11-20_17h53.23.364,Info_measure_main_exp,2022.2.2,Win32,59.9268892,,,,,,,,,,,,,,,,,,,,,,,,,,,,,,7,2.6305,1,,,,,,,,,,,,0,131,5,5,2250,1950,absent_patch/patch0002250.jpg,absent_patch/patch0001950.jpg,,,,,,,,,,,,,,,,,,,,0.0390625,0.100260417,1,0,0,response1disk,10,0.0078125,0.002604167,1,0,0,center_square,0,9,9,16,1,,,,,,,,,,,,,,,,,,,,,,,
454008,001,2022-11-20_17h53.23.364,Info_measure_main_exp,2022.2.2,Win32,59.9268892,,,,,,,,,,,,,,,,,,masks/mask_003.jpg,,,,,,,,,,,,,,,,,,,,,,,,,,,,,,,,,,,,,,,,,,,0,0,0,2,1,,,,,,,,,,,,,,,,,,,,,,,,,,,,,,,,,,,,,,,,,,,,,,
454008,001,2022-11-20_17h53.23.364,Info_measure_main_exp,2022.2.2,Win32,59.9268892,,,,,,,,,,,,,,,,,,masks/mask_001.jpg,,,,,,,,,,,,,,,,,,,,,,,,,,,,,,,,,,,,,,,,,,,0,1,1,0,1,,,,,,,,,,,,,,,,,,,,,,,,,,,,,,,,,,,,,,,,,,,,,,
454008,001,2022-11-20_17h53.23.364,Info_measure_main_exp,2022.2.2,Win32,59.9268892,,,,,,,,,,,,,,,,,,masks/mask_004.jpg,,,,,,,,,,,,,,,,,,,,,,,,,,,,,,,,,,,,,,,,,,,0,2,2,3,1,,,,,,,,,,,,,,,,,,,,,,,,,,,,,,,,,,,,,,,,,,,,,,
454008,001,2022-11-20_17h53.23.364,Info_measure_main_exp,2022.2.2,Win32,59.9268892,,,,,,,,,,,,,,,,,,masks/mask_002.jpg,,,,,,,,,,,,,,,,,,,,,,,,,,,,,,,,,,,,,,,,,,,0,3,3,1,1,,,,,,,,,,,,,,,,,,,,,,,,,,,,,,,,,,,,,,,,,,,,,,
454008,001,2022-11-20_17h53.23.364,Info_measure_main_exp,2022.2.2,Win32,59.9268892,,,,,,,,,,,,,,,,,,masks/mask_005.jpg,,,,,,,,,,,,,,,,,,,,,,,,,,,,,,,,,,,,,,,,,,,0,4,4,4,1,,,,,,,,,,,,,,,,,,,,,,,,,,,,,,,,,,,,,,,,,,,,,,
454008,001,2022-11-20_17h53.23.364,Info_measure_main_exp,2022.2.2,Win32,59.9268892,,,,,,,,,,,,,,,,,,masks/mask_004.jpg,,,,,,,,,,,,,,,,,,,,,,,,,,,,,,,,,,,,,,,,,,,,,,,,0,0,0,3,1,,,,,,,,,,,,,,,,,,,,,,,,,,,,,,,,,,,,,,,,,
454008,001,2022-11-20_17h53.23.364,Info_measure_main_exp,2022.2.2,Win32,59.9268892,,,,,,,,,,,,,,,,,,masks/mask_005.jpg,,,,,,,,,,,,,,,,,,,,,,,,,,,,,,,,,,,,,,,,,,,,,,,,0,1,1,4,1,,,,,,,,,,,,,,,,,,,,,,,,,,,,,,,,,,,,,,,,,
454008,001,2022-11-20_17h53.23.364,Info_measure_main_exp,2022.2.2,Win32,59.9268892,,,,,,,,,,,,,,,,,,masks/mask_003.jpg,,,,,,,,,,,,,,,,,,,,,,,,,,,,,,,,,,,,,,,,,,,,,,,,0,2,2,2,1,,,,,,,,,,,,,,,,,,,,,,,,,,,,,,,,,,,,,,,,,
454008,001,2022-11-20_17h53.23.364,Info_measure_main_exp,2022.2.2,Win32,59.9268892,,,,,,,,,,,,,,,,,,masks/mask_001.jpg,,,,,,,,,,,,,,,,,,,,,,,,,,,,,,,,,,,,,,,,,,,,,,,,0,3,3,0,1,,,,,,,,,,,,,,,,,,,,,,,,,,,,,,,,,,,,,,,,,
454008,001,2022-11-20_17h53.23.364,Info_measure_main_exp,2022.2.2,Win32,59.9268892,,,,,,,,,,,,,,,,,,masks/mask_002.jpg,,,,,,,,,,,,,,,,,,,,,,,,,,,,,,,,,,,,,,,,,,,,,,,,0,4,4,1,1,,,,,,,,,,,,,,,,,,,,,,,,,,,,,,,,,,,,,,,,,
454008,001,2022-11-20_17h53.23.364,Info_measure_main_exp,2022.2.2,Win32,59.9268892,,,,,,,,,,,,,,,,,,,,,,,,,,,,,,7,0.9689,1,,,,,,,,,,,,1,131,5,5,1,2214,present_patch/cong_131_5_a.jpg,absent_patch/patch0002214.jpg,,,,,,,,,,,,,,,,,,,,0.048177083,0.110677083,1,0,0,response1disk,11,-0.002604167,-0.001302083,1,0,0,center_square,0,10,10,4,1,,,,,,,,,,,,,,,,,,,,,,,
454008,001,2022-11-20_17h53.23.364,Info_measure_main_exp,2022.2.2,Win32,59.9268892,,,,,,,,,,,,,,,,,,masks/mask_001.jpg,,,,,,,,,,,,,,,,,,,,,,,,,,,,,,,,,,,,,,,,,,,0,0,0,0,1,,,,,,,,,,,,,,,,,,,,,,,,,,,,,,,,,,,,,,,,,,,,,,
454008,001,2022-11-20_17h53.23.364,Info_measure_main_exp,2022.2.2,Win32,59.9268892,,,,,,,,,,,,,,,,,,masks/mask_004.jpg,,,,,,,,,,,,,,,,,,,,,,,,,,,,,,,,,,,,,,,,,,,0,1,1,3,1,,,,,,,,,,,,,,,,,,,,,,,,,,,,,,,,,,,,,,,,,,,,,,
454008,001,2022-11-20_17h53.23.364,Info_measure_main_exp,2022.2.2,Win32,59.9268892,,,,,,,,,,,,,,,,,,masks/mask_002.jpg,,,,,,,,,,,,,,,,,,,,,,,,,,,,,,,,,,,,,,,,,,,0,2,2,1,1,,,,,,,,,,,,,,,,,,,,,,,,,,,,,,,,,,,,,,,,,,,,,,
454008,001,2022-11-20_17h53.23.364,Info_measure_main_exp,2022.2.2,Win32,59.9268892,,,,,,,,,,,,,,,,,,masks/mask_003.jpg,,,,,,,,,,,,,,,,,,,,,,,,,,,,,,,,,,,,,,,,,,,0,3,3,2,1,,,,,,,,,,,,,,,,,,,,,,,,,,,,,,,,,,,,,,,,,,,,,,
454008,001,2022-11-20_17h53.23.364,Info_measure_main_exp,2022.2.2,Win32,59.9268892,,,,,,,,,,,,,,,,,,masks/mask_005.jpg,,,,,,,,,,,,,,,,,,,,,,,,,,,,,,,,,,,,,,,,,,,0,4,4,4,1,,,,,,,,,,,,,,,,,,,,,,,,,,,,,,,,,,,,,,,,,,,,,,
454008,001,2022-11-20_17h53.23.364,Info_measure_main_exp,2022.2.2,Win32,59.9268892,,,,,,,,,,,,,,,,,,masks/mask_005.jpg,,,,,,,,,,,,,,,,,,,,,,,,,,,,,,,,,,,,,,,,,,,,,,,,0,0,0,4,1,,,,,,,,,,,,,,,,,,,,,,,,,,,,,,,,,,,,,,,,,
454008,001,2022-11-20_17h53.23.364,Info_measure_main_exp,2022.2.2,Win32,59.9268892,,,,,,,,,,,,,,,,,,masks/mask_003.jpg,,,,,,,,,,,,,,,,,,,,,,,,,,,,,,,,,,,,,,,,,,,,,,,,0,1,1,2,1,,,,,,,,,,,,,,,,,,,,,,,,,,,,,,,,,,,,,,,,,
454008,001,2022-11-20_17h53.23.364,Info_measure_main_exp,2022.2.2,Win32,59.9268892,,,,,,,,,,,,,,,,,,masks/mask_004.jpg,,,,,,,,,,,,,,,,,,,,,,,,,,,,,,,,,,,,,,,,,,,,,,,,0,2,2,3,1,,,,,,,,,,,,,,,,,,,,,,,,,,,,,,,,,,,,,,,,,
454008,001,2022-11-20_17h53.23.364,Info_measure_main_exp,2022.2.2,Win32,59.9268892,,,,,,,,,,,,,,,,,,masks/mask_001.jpg,,,,,,,,,,,,,,,,,,,,,,,,,,,,,,,,,,,,,,,,,,,,,,,,0,3,3,0,1,,,,,,,,,,,,,,,,,,,,,,,,,,,,,,,,,,,,,,,,,
454008,001,2022-11-20_17h53.23.364,Info_measure_main_exp,2022.2.2,Win32,59.9268892,,,,,,,,,,,,,,,,,,masks/mask_002.jpg,,,,,,,,,,,,,,,,,,,,,,,,,,,,,,,,,,,,,,,,,,,,,,,,0,4,4,1,1,,,,,,,,,,,,,,,,,,,,,,,,,,,,,,,,,,,,,,,,,
454008,001,2022-11-20_17h53.23.364,Info_measure_main_exp,2022.2.2,Win32,59.9268892,,,,,,,,,,,,,,,,,,,,,,,,,,,,,,7,0.5709,1,,,,,,,,,,,,0,131,5,5,2250,2142,absent_patch/patch0002250.jpg,absent_patch/patch0002142.jpg,,,,,,,,,,,,,,,,,,,,0.05859375,0.1328125,1,0,0,response1disk,12,0,0.0078125,1,0,0,center_square,0,11,11,71,1,,,,,,,,,,,,,,,,,,,,,,,
454008,001,2022-11-20_17h53.23.364,Info_measure_main_exp,2022.2.2,Win32,59.9268892,,,,,,,,,,,,,,,,,,masks/mask_004.jpg,,,,,,,,,,,,,,,,,,,,,,,,,,,,,,,,,,,,,,,,,,,0,0,0,3,1,,,,,,,,,,,,,,,,,,,,,,,,,,,,,,,,,,,,,,,,,,,,,,
454008,001,2022-11-20_17h53.23.364,Info_measure_main_exp,2022.2.2,Win32,59.9268892,,,,,,,,,,,,,,,,,,masks/mask_001.jpg,,,,,,,,,,,,,,,,,,,,,,,,,,,,,,,,,,,,,,,,,,,0,1,1,0,1,,,,,,,,,,,,,,,,,,,,,,,,,,,,,,,,,,,,,,,,,,,,,,
454008,001,2022-11-20_17h53.23.364,Info_measure_main_exp,2022.2.2,Win32,59.9268892,,,,,,,,,,,,,,,,,,masks/mask_003.jpg,,,,,,,,,,,,,,,,,,,,,,,,,,,,,,,,,,,,,,,,,,,0,2,2,2,1,,,,,,,,,,,,,,,,,,,,,,,,,,,,,,,,,,,,,,,,,,,,,,
454008,001,2022-11-20_17h53.23.364,Info_measure_main_exp,2022.2.2,Win32,59.9268892,,,,,,,,,,,,,,,,,,masks/mask_005.jpg,,,,,,,,,,,,,,,,,,,,,,,,,,,,,,,,,,,,,,,,,,,0,3,3,4,1,,,,,,,,,,,,,,,,,,,,,,,,,,,,,,,,,,,,,,,,,,,,,,
454008,001,2022-11-20_17h53.23.364,Info_measure_main_exp,2022.2.2,Win32,59.9268892,,,,,,,,,,,,,,,,,,masks/mask_002.jpg,,,,,,,,,,,,,,,,,,,,,,,,,,,,,,,,,,,,,,,,,,,0,4,4,1,1,,,,,,,,,,,,,,,,,,,,,,,,,,,,,,,,,,,,,,,,,,,,,,
454008,001,2022-11-20_17h53.23.364,Info_measure_main_exp,2022.2.2,Win32,59.9268892,,,,,,,,,,,,,,,,,,masks/mask_001.jpg,,,,,,,,,,,,,,,,,,,,,,,,,,,,,,,,,,,,,,,,,,,,,,,,0,0,0,0,1,,,,,,,,,,,,,,,,,,,,,,,,,,,,,,,,,,,,,,,,,
454008,001,2022-11-20_17h53.23.364,Info_measure_main_exp,2022.2.2,Win32,59.9268892,,,,,,,,,,,,,,,,,,masks/mask_005.jpg,,,,,,,,,,,,,,,,,,,,,,,,,,,,,,,,,,,,,,,,,,,,,,,,0,1,1,4,1,,,,,,,,,,,,,,,,,,,,,,,,,,,,,,,,,,,,,,,,,
454008,001,2022-11-20_17h53.23.364,Info_measure_main_exp,2022.2.2,Win32,59.9268892,,,,,,,,,,,,,,,,,,masks/mask_004.jpg,,,,,,,,,,,,,,,,,,,,,,,,,,,,,,,,,,,,,,,,,,,,,,,,0,2,2,3,1,,,,,,,,,,,,,,,,,,,,,,,,,,,,,,,,,,,,,,,,,
454008,001,2022-11-20_17h53.23.364,Info_measure_main_exp,2022.2.2,Win32,59.9268892,,,,,,,,,,,,,,,,,,masks/mask_003.jpg,,,,,,,,,,,,,,,,,,,,,,,,,,,,,,,,,,,,,,,,,,,,,,,,0,3,3,2,1,,,,,,,,,,,,,,,,,,,,,,,,,,,,,,,,,,,,,,,,,
454008,001,2022-11-20_17h53.23.364,Info_measure_main_exp,2022.2.2,Win32,59.9268892,,,,,,,,,,,,,,,,,,masks/mask_002.jpg,,,,,,,,,,,,,,,,,,,,,,,,,,,,,,,,,,,,,,,,,,,,,,,,0,4,4,1,1,,,,,,,,,,,,,,,,,,,,,,,,,,,,,,,,,,,,,,,,,
454008,001,2022-11-20_17h53.23.364,Info_measure_main_exp,2022.2.2,Win32,59.9268892,,,,,,,,,,,,,,,,,,,,,,,,,,,,,,7,0.7048,1,,,,,,,,,,,,0,131,5,5,2250,2178,absent_patch/patch0002250.jpg,absent_patch/patch0002178.jpg,,,,,,,,,,,,,,,,,,,,0.061197917,0.157552083,1,0,0,response1disk,13,0.001302083,0.002604167,1,0,0,center_square,0,12,12,48,1,,,,,,,,,,,,,,,,,,,,,,,
454008,001,2022-11-20_17h53.23.364,Info_measure_main_exp,2022.2.2,Win32,59.9268892,,,,,,,,,,,,,,,,,,masks/mask_003.jpg,,,,,,,,,,,,,,,,,,,,,,,,,,,,,,,,,,,,,,,,,,,0,0,0,2,1,,,,,,,,,,,,,,,,,,,,,,,,,,,,,,,,,,,,,,,,,,,,,,
454008,001,2022-11-20_17h53.23.364,Info_measure_main_exp,2022.2.2,Win32,59.9268892,,,,,,,,,,,,,,,,,,masks/mask_005.jpg,,,,,,,,,,,,,,,,,,,,,,,,,,,,,,,,,,,,,,,,,,,0,1,1,4,1,,,,,,,,,,,,,,,,,,,,,,,,,,,,,,,,,,,,,,,,,,,,,,
454008,001,2022-11-20_17h53.23.364,Info_measure_main_exp,2022.2.2,Win32,59.9268892,,,,,,,,,,,,,,,,,,masks/mask_002.jpg,,,,,,,,,,,,,,,,,,,,,,,,,,,,,,,,,,,,,,,,,,,0,2,2,1,1,,,,,,,,,,,,,,,,,,,,,,,,,,,,,,,,,,,,,,,,,,,,,,
454008,001,2022-11-20_17h53.23.364,Info_measure_main_exp,2022.2.2,Win32,59.9268892,,,,,,,,,,,,,,,,,,masks/mask_004.jpg,,,,,,,,,,,,,,,,,,,,,,,,,,,,,,,,,,,,,,,,,,,0,3,3,3,1,,,,,,,,,,,,,,,,,,,,,,,,,,,,,,,,,,,,,,,,,,,,,,
454008,001,2022-11-20_17h53.23.364,Info_measure_main_exp,2022.2.2,Win32,59.9268892,,,,,,,,,,,,,,,,,,masks/mask_001.jpg,,,,,,,,,,,,,,,,,,,,,,,,,,,,,,,,,,,,,,,,,,,0,4,4,0,1,,,,,,,,,,,,,,,,,,,,,,,,,,,,,,,,,,,,,,,,,,,,,,
454008,001,2022-11-20_17h53.23.364,Info_measure_main_exp,2022.2.2,Win32,59.9268892,,,,,,,,,,,,,,,,,,masks/mask_003.jpg,,,,,,,,,,,,,,,,,,,,,,,,,,,,,,,,,,,,,,,,,,,,,,,,0,0,0,2,1,,,,,,,,,,,,,,,,,,,,,,,,,,,,,,,,,,,,,,,,,
454008,001,2022-11-20_17h53.23.364,Info_measure_main_exp,2022.2.2,Win32,59.9268892,,,,,,,,,,,,,,,,,,masks/mask_001.jpg,,,,,,,,,,,,,,,,,,,,,,,,,,,,,,,,,,,,,,,,,,,,,,,,0,1,1,0,1,,,,,,,,,,,,,,,,,,,,,,,,,,,,,,,,,,,,,,,,,
454008,001,2022-11-20_17h53.23.364,Info_measure_main_exp,2022.2.2,Win32,59.9268892,,,,,,,,,,,,,,,,,,masks/mask_005.jpg,,,,,,,,,,,,,,,,,,,,,,,,,,,,,,,,,,,,,,,,,,,,,,,,0,2,2,4,1,,,,,,,,,,,,,,,,,,,,,,,,,,,,,,,,,,,,,,,,,
454008,001,2022-11-20_17h53.23.364,Info_measure_main_exp,2022.2.2,Win32,59.9268892,,,,,,,,,,,,,,,,,,masks/mask_002.jpg,,,,,,,,,,,,,,,,,,,,,,,,,,,,,,,,,,,,,,,,,,,,,,,,0,3,3,1,1,,,,,,,,,,,,,,,,,,,,,,,,,,,,,,,,,,,,,,,,,
454008,001,2022-11-20_17h53.23.364,Info_measure_main_exp,2022.2.2,Win32,59.9268892,,,,,,,,,,,,,,,,,,masks/mask_004.jpg,,,,,,,,,,,,,,,,,,,,,,,,,,,,,,,,,,,,,,,,,,,,,,,,0,4,4,3,1,,,,,,,,,,,,,,,,,,,,,,,,,,,,,,,,,,,,,,,,,
454008,001,2022-11-20_17h53.23.364,Info_measure_main_exp,2022.2.2,Win32,59.9268892,,,,,,,,,,,,,,,,,,,,,,,,,,,,,,7,1.0693,1,,,,,,,,,,,,0,131,5,5,2274,2154,absent_patch/patch0002274.jpg,absent_patch/patch0002154.jpg,,,,,,,,,,,,,,,,,,,,0.0703125,0.162760417,1,0,0,response1disk,14,0,0,1,0,0,center_square,0,13,13,23,1,,,,,,,,,,,,,,,,,,,,,,,
454008,001,2022-11-20_17h53.23.364,Info_measure_main_exp,2022.2.2,Win32,59.9268892,,,,,,,,,,,,,,,,,,masks/mask_005.jpg,,,,,,,,,,,,,,,,,,,,,,,,,,,,,,,,,,,,,,,,,,,0,0,0,4,1,,,,,,,,,,,,,,,,,,,,,,,,,,,,,,,,,,,,,,,,,,,,,,
454008,001,2022-11-20_17h53.23.364,Info_measure_main_exp,2022.2.2,Win32,59.9268892,,,,,,,,,,,,,,,,,,masks/mask_003.jpg,,,,,,,,,,,,,,,,,,,,,,,,,,,,,,,,,,,,,,,,,,,0,1,1,2,1,,,,,,,,,,,,,,,,,,,,,,,,,,,,,,,,,,,,,,,,,,,,,,
454008,001,2022-11-20_17h53.23.364,Info_measure_main_exp,2022.2.2,Win32,59.9268892,,,,,,,,,,,,,,,,,,masks/mask_002.jpg,,,,,,,,,,,,,,,,,,,,,,,,,,,,,,,,,,,,,,,,,,,0,2,2,1,1,,,,,,,,,,,,,,,,,,,,,,,,,,,,,,,,,,,,,,,,,,,,,,
454008,001,2022-11-20_17h53.23.364,Info_measure_main_exp,2022.2.2,Win32,59.9268892,,,,,,,,,,,,,,,,,,masks/mask_004.jpg,,,,,,,,,,,,,,,,,,,,,,,,,,,,,,,,,,,,,,,,,,,0,3,3,3,1,,,,,,,,,,,,,,,,,,,,,,,,,,,,,,,,,,,,,,,,,,,,,,
454008,001,2022-11-20_17h53.23.364,Info_measure_main_exp,2022.2.2,Win32,59.9268892,,,,,,,,,,,,,,,,,,masks/mask_001.jpg,,,,,,,,,,,,,,,,,,,,,,,,,,,,,,,,,,,,,,,,,,,0,4,4,0,1,,,,,,,,,,,,,,,,,,,,,,,,,,,,,,,,,,,,,,,,,,,,,,
454008,001,2022-11-20_17h53.23.364,Info_measure_main_exp,2022.2.2,Win32,59.9268892,,,,,,,,,,,,,,,,,,masks/mask_003.jpg,,,,,,,,,,,,,,,,,,,,,,,,,,,,,,,,,,,,,,,,,,,,,,,,0,0,0,2,1,,,,,,,,,,,,,,,,,,,,,,,,,,,,,,,,,,,,,,,,,
454008,001,2022-11-20_17h53.23.364,Info_measure_main_exp,2022.2.2,Win32,59.9268892,,,,,,,,,,,,,,,,,,masks/mask_002.jpg,,,,,,,,,,,,,,,,,,,,,,,,,,,,,,,,,,,,,,,,,,,,,,,,0,1,1,1,1,,,,,,,,,,,,,,,,,,,,,,,,,,,,,,,,,,,,,,,,,
454008,001,2022-11-20_17h53.23.364,Info_measure_main_exp,2022.2.2,Win32,59.9268892,,,,,,,,,,,,,,,,,,masks/mask_001.jpg,,,,,,,,,,,,,,,,,,,,,,,,,,,,,,,,,,,,,,,,,,,,,,,,0,2,2,0,1,,,,,,,,,,,,,,,,,,,,,,,,,,,,,,,,,,,,,,,,,
454008,001,2022-11-20_17h53.23.364,Info_measure_main_exp,2022.2.2,Win32,59.9268892,,,,,,,,,,,,,,,,,,masks/mask_005.jpg,,,,,,,,,,,,,,,,,,,,,,,,,,,,,,,,,,,,,,,,,,,,,,,,0,3,3,4,1,,,,,,,,,,,,,,,,,,,,,,,,,,,,,,,,,,,,,,,,,
454008,001,2022-11-20_17h53.23.364,Info_measure_main_exp,2022.2.2,Win32,59.9268892,,,,,,,,,,,,,,,,,,masks/mask_004.jpg,,,,,,,,,,,,,,,,,,,,,,,,,,,,,,,,,,,,,,,,,,,,,,,,0,4,4,3,1,,,,,,,,,,,,,,,,,,,,,,,,,,,,,,,,,,,,,,,,,
454008,001,2022-11-20_17h53.23.364,Info_measure_main_exp,2022.2.2,Win32,59.9268892,,,,,,,,,,,,,,,,,,,,,,,,,,,,,,7,1.1885,1,,,,,,,,,,,,0,131,5,5,2274,2238,absent_patch/patch0002274.jpg,absent_patch/patch0002238.jpg,,,,,,,,,,,,,,,,,,,,0.04296875,0.083333333,1,0,0,response1disk,15,0.0078125,0.005208333,1,0,0,center_square,0,14,14,91,1,,,,,,,,,,,,,,,,,,,,,,,
454008,001,2022-11-20_17h53.23.364,Info_measure_main_exp,2022.2.2,Win32,59.9268892,,,,,,,,,,,,,,,,,,masks/mask_005.jpg,,,,,,,,,,,,,,,,,,,,,,,,,,,,,,,,,,,,,,,,,,,0,0,0,4,1,,,,,,,,,,,,,,,,,,,,,,,,,,,,,,,,,,,,,,,,,,,,,,
454008,001,2022-11-20_17h53.23.364,Info_measure_main_exp,2022.2.2,Win32,59.9268892,,,,,,,,,,,,,,,,,,masks/mask_003.jpg,,,,,,,,,,,,,,,,,,,,,,,,,,,,,,,,,,,,,,,,,,,0,1,1,2,1,,,,,,,,,,,,,,,,,,,,,,,,,,,,,,,,,,,,,,,,,,,,,,
454008,001,2022-11-20_17h53.23.364,Info_measure_main_exp,2022.2.2,Win32,59.9268892,,,,,,,,,,,,,,,,,,masks/mask_002.jpg,,,,,,,,,,,,,,,,,,,,,,,,,,,,,,,,,,,,,,,,,,,0,2,2,1,1,,,,,,,,,,,,,,,,,,,,,,,,,,,,,,,,,,,,,,,,,,,,,,
454008,001,2022-11-20_17h53.23.364,Info_measure_main_exp,2022.2.2,Win32,59.9268892,,,,,,,,,,,,,,,,,,masks/mask_001.jpg,,,,,,,,,,,,,,,,,,,,,,,,,,,,,,,,,,,,,,,,,,,0,3,3,0,1,,,,,,,,,,,,,,,,,,,,,,,,,,,,,,,,,,,,,,,,,,,,,,
454008,001,2022-11-20_17h53.23.364,Info_measure_main_exp,2022.2.2,Win32,59.9268892,,,,,,,,,,,,,,,,,,masks/mask_004.jpg,,,,,,,,,,,,,,,,,,,,,,,,,,,,,,,,,,,,,,,,,,,0,4,4,3,1,,,,,,,,,,,,,,,,,,,,,,,,,,,,,,,,,,,,,,,,,,,,,,
454008,001,2022-11-20_17h53.23.364,Info_measure_main_exp,2022.2.2,Win32,59.9268892,,,,,,,,,,,,,,,,,,masks/mask_005.jpg,,,,,,,,,,,,,,,,,,,,,,,,,,,,,,,,,,,,,,,,,,,,,,,,0,0,0,4,1,,,,,,,,,,,,,,,,,,,,,,,,,,,,,,,,,,,,,,,,,
454008,001,2022-11-20_17h53.23.364,Info_measure_main_exp,2022.2.2,Win32,59.9268892,,,,,,,,,,,,,,,,,,masks/mask_003.jpg,,,,,,,,,,,,,,,,,,,,,,,,,,,,,,,,,,,,,,,,,,,,,,,,0,1,1,2,1,,,,,,,,,,,,,,,,,,,,,,,,,,,,,,,,,,,,,,,,,
454008,001,2022-11-20_17h53.23.364,Info_measure_main_exp,2022.2.2,Win32,59.9268892,,,,,,,,,,,,,,,,,,masks/mask_004.jpg,,,,,,,,,,,,,,,,,,,,,,,,,,,,,,,,,,,,,,,,,,,,,,,,0,2,2,3,1,,,,,,,,,,,,,,,,,,,,,,,,,,,,,,,,,,,,,,,,,
454008,001,2022-11-20_17h53.23.364,Info_measure_main_exp,2022.2.2,Win32,59.9268892,,,,,,,,,,,,,,,,,,masks/mask_002.jpg,,,,,,,,,,,,,,,,,,,,,,,,,,,,,,,,,,,,,,,,,,,,,,,,0,3,3,1,1,,,,,,,,,,,,,,,,,,,,,,,,,,,,,,,,,,,,,,,,,
454008,001,2022-11-20_17h53.23.364,Info_measure_main_exp,2022.2.2,Win32,59.9268892,,,,,,,,,,,,,,,,,,masks/mask_001.jpg,,,,,,,,,,,,,,,,,,,,,,,,,,,,,,,,,,,,,,,,,,,,,,,,0,4,4,0,1,,,,,,,,,,,,,,,,,,,,,,,,,,,,,,,,,,,,,,,,,
454008,001,2022-11-20_17h53.23.364,Info_measure_main_exp,2022.2.2,Win32,59.9268892,,,,,,,,,,,,,,,,,,,,,,,,,,,,,,7,0.973,1,,,,,,,,,,,,0,131,5,5,2274,2250,absent_patch/patch0002274.jpg,absent_patch/patch0002250.jpg,,,,,,,,,,,,,,,,,,,,0.049479167,0.14453125,1,0,0,response1disk,16,-0.002604167,-0.006510417,1,0,0,center_square,0,15,15,28,1,,,,,,,,,,,,,,,,,,,,,,,
454008,001,2022-11-20_17h53.23.364,Info_measure_main_exp,2022.2.2,Win32,59.9268892,,,,,,,,,,,,,,,,,,masks/mask_005.jpg,,,,,,,,,,,,,,,,,,,,,,,,,,,,,,,,,,,,,,,,,,,0,0,0,4,1,,,,,,,,,,,,,,,,,,,,,,,,,,,,,,,,,,,,,,,,,,,,,,
454008,001,2022-11-20_17h53.23.364,Info_measure_main_exp,2022.2.2,Win32,59.9268892,,,,,,,,,,,,,,,,,,masks/mask_004.jpg,,,,,,,,,,,,,,,,,,,,,,,,,,,,,,,,,,,,,,,,,,,0,1,1,3,1,,,,,,,,,,,,,,,,,,,,,,,,,,,,,,,,,,,,,,,,,,,,,,
454008,001,2022-11-20_17h53.23.364,Info_measure_main_exp,2022.2.2,Win32,59.9268892,,,,,,,,,,,,,,,,,,masks/mask_003.jpg,,,,,,,,,,,,,,,,,,,,,,,,,,,,,,,,,,,,,,,,,,,0,2,2,2,1,,,,,,,,,,,,,,,,,,,,,,,,,,,,,,,,,,,,,,,,,,,,,,
454008,001,2022-11-20_17h53.23.364,Info_measure_main_exp,2022.2.2,Win32,59.9268892,,,,,,,,,,,,,,,,,,masks/mask_002.jpg,,,,,,,,,,,,,,,,,,,,,,,,,,,,,,,,,,,,,,,,,,,0,3,3,1,1,,,,,,,,,,,,,,,,,,,,,,,,,,,,,,,,,,,,,,,,,,,,,,
454008,001,2022-11-20_17h53.23.364,Info_measure_main_exp,2022.2.2,Win32,59.9268892,,,,,,,,,,,,,,,,,,masks/mask_001.jpg,,,,,,,,,,,,,,,,,,,,,,,,,,,,,,,,,,,,,,,,,,,0,4,4,0,1,,,,,,,,,,,,,,,,,,,,,,,,,,,,,,,,,,,,,,,,,,,,,,
454008,001,2022-11-20_17h53.23.364,Info_measure_main_exp,2022.2.2,Win32,59.9268892,,,,,,,,,,,,,,,,,,masks/mask_003.jpg,,,,,,,,,,,,,,,,,,,,,,,,,,,,,,,,,,,,,,,,,,,,,,,,0,0,0,2,1,,,,,,,,,,,,,,,,,,,,,,,,,,,,,,,,,,,,,,,,,
454008,001,2022-11-20_17h53.23.364,Info_measure_main_exp,2022.2.2,Win32,59.9268892,,,,,,,,,,,,,,,,,,masks/mask_001.jpg,,,,,,,,,,,,,,,,,,,,,,,,,,,,,,,,,,,,,,,,,,,,,,,,0,1,1,0,1,,,,,,,,,,,,,,,,,,,,,,,,,,,,,,,,,,,,,,,,,
454008,001,2022-11-20_17h53.23.364,Info_measure_main_exp,2022.2.2,Win32,59.9268892,,,,,,,,,,,,,,,,,,masks/mask_005.jpg,,,,,,,,,,,,,,,,,,,,,,,,,,,,,,,,,,,,,,,,,,,,,,,,0,2,2,4,1,,,,,,,,,,,,,,,,,,,,,,,,,,,,,,,,,,,,,,,,,
454008,001,2022-11-20_17h53.23.364,Info_measure_main_exp,2022.2.2,Win32,59.9268892,,,,,,,,,,,,,,,,,,masks/mask_004.jpg,,,,,,,,,,,,,,,,,,,,,,,,,,,,,,,,,,,,,,,,,,,,,,,,0,3,3,3,1,,,,,,,,,,,,,,,,,,,,,,,,,,,,,,,,,,,,,,,,,
454008,001,2022-11-20_17h53.23.364,Info_measure_main_exp,2022.2.2,Win32,59.9268892,,,,,,,,,,,,,,,,,,masks/mask_002.jpg,,,,,,,,,,,,,,,,,,,,,,,,,,,,,,,,,,,,,,,,,,,,,,,,0,4,4,1,1,,,,,,,,,,,,,,,,,,,,,,,,,,,,,,,,,,,,,,,,,
454008,001,2022-11-20_17h53.23.364,Info_measure_main_exp,2022.2.2,Win32,59.9268892,,,,,,,,,,,,,,,,,,,,,,,,,,,,,,7,0.7115,1,,,,,,,,,,,,0,131,5,5,2274,2214,absent_patch/patch0002274.jpg,absent_patch/patch0002214.jpg,,,,,,,,,,,,,,,,,,,,0.057291667,0.130208333,1,0,0,response1disk,17,0.009114583,0.002604167,1,0,0,center_square,0,16,16,11,1,,,,,,,,,,,,,,,,,,,,,,,
454008,001,2022-11-20_17h53.23.364,Info_measure_main_exp,2022.2.2,Win32,59.9268892,,,,,,,,,,,,,,,,,,masks/mask_002.jpg,,,,,,,,,,,,,,,,,,,,,,,,,,,,,,,,,,,,,,,,,,,0,0,0,1,1,,,,,,,,,,,,,,,,,,,,,,,,,,,,,,,,,,,,,,,,,,,,,,
454008,001,2022-11-20_17h53.23.364,Info_measure_main_exp,2022.2.2,Win32,59.9268892,,,,,,,,,,,,,,,,,,masks/mask_005.jpg,,,,,,,,,,,,,,,,,,,,,,,,,,,,,,,,,,,,,,,,,,,0,1,1,4,1,,,,,,,,,,,,,,,,,,,,,,,,,,,,,,,,,,,,,,,,,,,,,,
454008,001,2022-11-20_17h53.23.364,Info_measure_main_exp,2022.2.2,Win32,59.9268892,,,,,,,,,,,,,,,,,,masks/mask_001.jpg,,,,,,,,,,,,,,,,,,,,,,,,,,,,,,,,,,,,,,,,,,,0,2,2,0,1,,,,,,,,,,,,,,,,,,,,,,,,,,,,,,,,,,,,,,,,,,,,,,
454008,001,2022-11-20_17h53.23.364,Info_measure_main_exp,2022.2.2,Win32,59.9268892,,,,,,,,,,,,,,,,,,masks/mask_003.jpg,,,,,,,,,,,,,,,,,,,,,,,,,,,,,,,,,,,,,,,,,,,0,3,3,2,1,,,,,,,,,,,,,,,,,,,,,,,,,,,,,,,,,,,,,,,,,,,,,,
454008,001,2022-11-20_17h53.23.364,Info_measure_main_exp,2022.2.2,Win32,59.9268892,,,,,,,,,,,,,,,,,,masks/mask_004.jpg,,,,,,,,,,,,,,,,,,,,,,,,,,,,,,,,,,,,,,,,,,,0,4,4,3,1,,,,,,,,,,,,,,,,,,,,,,,,,,,,,,,,,,,,,,,,,,,,,,
454008,001,2022-11-20_17h53.23.364,Info_measure_main_exp,2022.2.2,Win32,59.9268892,,,,,,,,,,,,,,,,,,masks/mask_004.jpg,,,,,,,,,,,,,,,,,,,,,,,,,,,,,,,,,,,,,,,,,,,,,,,,0,0,0,3,1,,,,,,,,,,,,,,,,,,,,,,,,,,,,,,,,,,,,,,,,,
454008,001,2022-11-20_17h53.23.364,Info_measure_main_exp,2022.2.2,Win32,59.9268892,,,,,,,,,,,,,,,,,,masks/mask_005.jpg,,,,,,,,,,,,,,,,,,,,,,,,,,,,,,,,,,,,,,,,,,,,,,,,0,1,1,4,1,,,,,,,,,,,,,,,,,,,,,,,,,,,,,,,,,,,,,,,,,
454008,001,2022-11-20_17h53.23.364,Info_measure_main_exp,2022.2.2,Win32,59.9268892,,,,,,,,,,,,,,,,,,masks/mask_002.jpg,,,,,,,,,,,,,,,,,,,,,,,,,,,,,,,,,,,,,,,,,,,,,,,,0,2,2,1,1,,,,,,,,,,,,,,,,,,,,,,,,,,,,,,,,,,,,,,,,,
454008,001,2022-11-20_17h53.23.364,Info_measure_main_exp,2022.2.2,Win32,59.9268892,,,,,,,,,,,,,,,,,,masks/mask_001.jpg,,,,,,,,,,,,,,,,,,,,,,,,,,,,,,,,,,,,,,,,,,,,,,,,0,3,3,0,1,,,,,,,,,,,,,,,,,,,,,,,,,,,,,,,,,,,,,,,,,
454008,001,2022-11-20_17h53.23.364,Info_measure_main_exp,2022.2.2,Win32,59.9268892,,,,,,,,,,,,,,,,,,masks/mask_003.jpg,,,,,,,,,,,,,,,,,,,,,,,,,,,,,,,,,,,,,,,,,,,,,,,,0,4,4,2,1,,,,,,,,,,,,,,,,,,,,,,,,,,,,,,,,,,,,,,,,,
454008,001,2022-11-20_17h53.23.364,Info_measure_main_exp,2022.2.2,Win32,59.9268892,,,,,,,,,,,,,,,,,,,,,,,,,,,,,,7,0.7057,1,,,,,,,,,,,,0,131,5,5,2142,2166,absent_patch/patch0002142.jpg,absent_patch/patch0002166.jpg,,,,,,,,,,,,,,,,,,,,0.057291667,0.127604167,1,0,0,response1disk,18,-0.010416667,-0.002604167,1,0,0,center_square,0,17,17,66,1,,,,,,,,,,,,,,,,,,,,,,,
454008,001,2022-11-20_17h53.23.364,Info_measure_main_exp,2022.2.2,Win32,59.9268892,,,,,,,,,,,,,,,,,,masks/mask_003.jpg,,,,,,,,,,,,,,,,,,,,,,,,,,,,,,,,,,,,,,,,,,,0,0,0,2,1,,,,,,,,,,,,,,,,,,,,,,,,,,,,,,,,,,,,,,,,,,,,,,
454008,001,2022-11-20_17h53.23.364,Info_measure_main_exp,2022.2.2,Win32,59.9268892,,,,,,,,,,,,,,,,,,masks/mask_001.jpg,,,,,,,,,,,,,,,,,,,,,,,,,,,,,,,,,,,,,,,,,,,0,1,1,0,1,,,,,,,,,,,,,,,,,,,,,,,,,,,,,,,,,,,,,,,,,,,,,,
454008,001,2022-11-20_17h53.23.364,Info_measure_main_exp,2022.2.2,Win32,59.9268892,,,,,,,,,,,,,,,,,,masks/mask_004.jpg,,,,,,,,,,,,,,,,,,,,,,,,,,,,,,,,,,,,,,,,,,,0,2,2,3,1,,,,,,,,,,,,,,,,,,,,,,,,,,,,,,,,,,,,,,,,,,,,,,
454008,001,2022-11-20_17h53.23.364,Info_measure_main_exp,2022.2.2,Win32,59.9268892,,,,,,,,,,,,,,,,,,masks/mask_005.jpg,,,,,,,,,,,,,,,,,,,,,,,,,,,,,,,,,,,,,,,,,,,0,3,3,4,1,,,,,,,,,,,,,,,,,,,,,,,,,,,,,,,,,,,,,,,,,,,,,,
454008,001,2022-11-20_17h53.23.364,Info_measure_main_exp,2022.2.2,Win32,59.9268892,,,,,,,,,,,,,,,,,,masks/mask_002.jpg,,,,,,,,,,,,,,,,,,,,,,,,,,,,,,,,,,,,,,,,,,,0,4,4,1,1,,,,,,,,,,,,,,,,,,,,,,,,,,,,,,,,,,,,,,,,,,,,,,
454008,001,2022-11-20_17h53.23.364,Info_measure_main_exp,2022.2.2,Win32,59.9268892,,,,,,,,,,,,,,,,,,masks/mask_004.jpg,,,,,,,,,,,,,,,,,,,,,,,,,,,,,,,,,,,,,,,,,,,,,,,,0,0,0,3,1,,,,,,,,,,,,,,,,,,,,,,,,,,,,,,,,,,,,,,,,,
454008,001,2022-11-20_17h53.23.364,Info_measure_main_exp,2022.2.2,Win32,59.9268892,,,,,,,,,,,,,,,,,,masks/mask_003.jpg,,,,,,,,,,,,,,,,,,,,,,,,,,,,,,,,,,,,,,,,,,,,,,,,0,1,1,2,1,,,,,,,,,,,,,,,,,,,,,,,,,,,,,,,,,,,,,,,,,
454008,001,2022-11-20_17h53.23.364,Info_measure_main_exp,2022.2.2,Win32,59.9268892,,,,,,,,,,,,,,,,,,masks/mask_005.jpg,,,,,,,,,,,,,,,,,,,,,,,,,,,,,,,,,,,,,,,,,,,,,,,,0,2,2,4,1,,,,,,,,,,,,,,,,,,,,,,,,,,,,,,,,,,,,,,,,,
454008,001,2022-11-20_17h53.23.364,Info_measure_main_exp,2022.2.2,Win32,59.9268892,,,,,,,,,,,,,,,,,,masks/mask_002.jpg,,,,,,,,,,,,,,,,,,,,,,,,,,,,,,,,,,,,,,,,,,,,,,,,0,3,3,1,1,,,,,,,,,,,,,,,,,,,,,,,,,,,,,,,,,,,,,,,,,
454008,001,2022-11-20_17h53.23.364,Info_measure_main_exp,2022.2.2,Win32,59.9268892,,,,,,,,,,,,,,,,,,masks/mask_001.jpg,,,,,,,,,,,,,,,,,,,,,,,,,,,,,,,,,,,,,,,,,,,,,,,,0,4,4,0,1,,,,,,,,,,,,,,,,,,,,,,,,,,,,,,,,,,,,,,,,,
454008,001,2022-11-20_17h53.23.364,Info_measure_main_exp,2022.2.2,Win32,59.9268892,,,,,,,,,,,,,,,,,,,,,,,,,,,,,,7,0.7133,1,,,,,,,,,,,,0,131,5,5,2166,1986,absent_patch/patch0002166.jpg,absent_patch/patch0001986.jpg,,,,,,,,,,,,,,,,,,,,0.05078125,0.104166667,1,0,0,response1disk,19,-0.00390625,0.014322917,1,0,0,center_square,0,18,18,47,1,,,,,,,,,,,,,,,,,,,,,,,
454008,001,2022-11-20_17h53.23.364,Info_measure_main_exp,2022.2.2,Win32,59.9268892,,,,,,,,,,,,,,,,,,masks/mask_003.jpg,,,,,,,,,,,,,,,,,,,,,,,,,,,,,,,,,,,,,,,,,,,0,0,0,2,1,,,,,,,,,,,,,,,,,,,,,,,,,,,,,,,,,,,,,,,,,,,,,,
454008,001,2022-11-20_17h53.23.364,Info_measure_main_exp,2022.2.2,Win32,59.9268892,,,,,,,,,,,,,,,,,,masks/mask_005.jpg,,,,,,,,,,,,,,,,,,,,,,,,,,,,,,,,,,,,,,,,,,,0,1,1,4,1,,,,,,,,,,,,,,,,,,,,,,,,,,,,,,,,,,,,,,,,,,,,,,
454008,001,2022-11-20_17h53.23.364,Info_measure_main_exp,2022.2.2,Win32,59.9268892,,,,,,,,,,,,,,,,,,masks/mask_002.jpg,,,,,,,,,,,,,,,,,,,,,,,,,,,,,,,,,,,,,,,,,,,0,2,2,1,1,,,,,,,,,,,,,,,,,,,,,,,,,,,,,,,,,,,,,,,,,,,,,,
454008,001,2022-11-20_17h53.23.364,Info_measure_main_exp,2022.2.2,Win32,59.9268892,,,,,,,,,,,,,,,,,,masks/mask_001.jpg,,,,,,,,,,,,,,,,,,,,,,,,,,,,,,,,,,,,,,,,,,,0,3,3,0,1,,,,,,,,,,,,,,,,,,,,,,,,,,,,,,,,,,,,,,,,,,,,,,
454008,001,2022-11-20_17h53.23.364,Info_measure_main_exp,2022.2.2,Win32,59.9268892,,,,,,,,,,,,,,,,,,masks/mask_004.jpg,,,,,,,,,,,,,,,,,,,,,,,,,,,,,,,,,,,,,,,,,,,0,4,4,3,1,,,,,,,,,,,,,,,,,,,,,,,,,,,,,,,,,,,,,,,,,,,,,,
454008,001,2022-11-20_17h53.23.364,Info_measure_main_exp,2022.2.2,Win32,59.9268892,,,,,,,,,,,,,,,,,,masks/mask_004.jpg,,,,,,,,,,,,,,,,,,,,,,,,,,,,,,,,,,,,,,,,,,,,,,,,0,0,0,3,1,,,,,,,,,,,,,,,,,,,,,,,,,,,,,,,,,,,,,,,,,
454008,001,2022-11-20_17h53.23.364,Info_measure_main_exp,2022.2.2,Win32,59.9268892,,,,,,,,,,,,,,,,,,masks/mask_002.jpg,,,,,,,,,,,,,,,,,,,,,,,,,,,,,,,,,,,,,,,,,,,,,,,,0,1,1,1,1,,,,,,,,,,,,,,,,,,,,,,,,,,,,,,,,,,,,,,,,,
454008,001,2022-11-20_17h53.23.364,Info_measure_main_exp,2022.2.2,Win32,59.9268892,,,,,,,,,,,,,,,,,,masks/mask_003.jpg,,,,,,,,,,,,,,,,,,,,,,,,,,,,,,,,,,,,,,,,,,,,,,,,0,2,2,2,1,,,,,,,,,,,,,,,,,,,,,,,,,,,,,,,,,,,,,,,,,
454008,001,2022-11-20_17h53.23.364,Info_measure_main_exp,2022.2.2,Win32,59.9268892,,,,,,,,,,,,,,,,,,masks/mask_005.jpg,,,,,,,,,,,,,,,,,,,,,,,,,,,,,,,,,,,,,,,,,,,,,,,,0,3,3,4,1,,,,,,,,,,,,,,,,,,,,,,,,,,,,,,,,,,,,,,,,,
454008,001,2022-11-20_17h53.23.364,Info_measure_main_exp,2022.2.2,Win32,59.9268892,,,,,,,,,,,,,,,,,,masks/mask_001.jpg,,,,,,,,,,,,,,,,,,,,,,,,,,,,,,,,,,,,,,,,,,,,,,,,0,4,4,0,1,,,,,,,,,,,,,,,,,,,,,,,,,,,,,,,,,,,,,,,,,
454008,001,2022-11-20_17h53.23.364,Info_measure_main_exp,2022.2.2,Win32,59.9268892,,,,,,,,,,,,,,,,,,,,,,,,,,,,,,7,0.6377,1,,,,,,,,,,,,0,131,5,5,2178,2142,absent_patch/patch0002178.jpg,absent_patch/patch0002142.jpg,,,,,,,,,,,,,,,,,,,,0.046875,0.09765625,1,0,0,response1disk,20,0.002604167,0.00390625,1,0,0,center_square,0,19,19,41,1,,,,,,,,,,,,,,,,,,,,,,,
454008,001,2022-11-20_17h53.23.364,Info_measure_main_exp,2022.2.2,Win32,59.9268892,,,,,,,,,,,,,,,,,,masks/mask_005.jpg,,,,,,,,,,,,,,,,,,,,,,,,,,,,,,,,,,,,,,,,,,,0,0,0,4,1,,,,,,,,,,,,,,,,,,,,,,,,,,,,,,,,,,,,,,,,,,,,,,
454008,001,2022-11-20_17h53.23.364,Info_measure_main_exp,2022.2.2,Win32,59.9268892,,,,,,,,,,,,,,,,,,masks/mask_002.jpg,,,,,,,,,,,,,,,,,,,,,,,,,,,,,,,,,,,,,,,,,,,0,1,1,1,1,,,,,,,,,,,,,,,,,,,,,,,,,,,,,,,,,,,,,,,,,,,,,,
454008,001,2022-11-20_17h53.23.364,Info_measure_main_exp,2022.2.2,Win32,59.9268892,,,,,,,,,,,,,,,,,,masks/mask_003.jpg,,,,,,,,,,,,,,,,,,,,,,,,,,,,,,,,,,,,,,,,,,,0,2,2,2,1,,,,,,,,,,,,,,,,,,,,,,,,,,,,,,,,,,,,,,,,,,,,,,
454008,001,2022-11-20_17h53.23.364,Info_measure_main_exp,2022.2.2,Win32,59.9268892,,,,,,,,,,,,,,,,,,masks/mask_004.jpg,,,,,,,,,,,,,,,,,,,,,,,,,,,,,,,,,,,,,,,,,,,0,3,3,3,1,,,,,,,,,,,,,,,,,,,,,,,,,,,,,,,,,,,,,,,,,,,,,,
454008,001,2022-11-20_17h53.23.364,Info_measure_main_exp,2022.2.2,Win32,59.9268892,,,,,,,,,,,,,,,,,,masks/mask_001.jpg,,,,,,,,,,,,,,,,,,,,,,,,,,,,,,,,,,,,,,,,,,,0,4,4,0,1,,,,,,,,,,,,,,,,,,,,,,,,,,,,,,,,,,,,,,,,,,,,,,
454008,001,2022-11-20_17h53.23.364,Info_measure_main_exp,2022.2.2,Win32,59.9268892,,,,,,,,,,,,,,,,,,masks/mask_001.jpg,,,,,,,,,,,,,,,,,,,,,,,,,,,,,,,,,,,,,,,,,,,,,,,,0,0,0,0,1,,,,,,,,,,,,,,,,,,,,,,,,,,,,,,,,,,,,,,,,,
454008,001,2022-11-20_17h53.23.364,Info_measure_main_exp,2022.2.2,Win32,59.9268892,,,,,,,,,,,,,,,,,,masks/mask_005.jpg,,,,,,,,,,,,,,,,,,,,,,,,,,,,,,,,,,,,,,,,,,,,,,,,0,1,1,4,1,,,,,,,,,,,,,,,,,,,,,,,,,,,,,,,,,,,,,,,,,
454008,001,2022-11-20_17h53.23.364,Info_measure_main_exp,2022.2.2,Win32,59.9268892,,,,,,,,,,,,,,,,,,masks/mask_004.jpg,,,,,,,,,,,,,,,,,,,,,,,,,,,,,,,,,,,,,,,,,,,,,,,,0,2,2,3,1,,,,,,,,,,,,,,,,,,,,,,,,,,,,,,,,,,,,,,,,,
454008,001,2022-11-20_17h53.23.364,Info_measure_main_exp,2022.2.2,Win32,59.9268892,,,,,,,,,,,,,,,,,,masks/mask_003.jpg,,,,,,,,,,,,,,,,,,,,,,,,,,,,,,,,,,,,,,,,,,,,,,,,0,3,3,2,1,,,,,,,,,,,,,,,,,,,,,,,,,,,,,,,,,,,,,,,,,
454008,001,2022-11-20_17h53.23.364,Info_measure_main_exp,2022.2.2,Win32,59.9268892,,,,,,,,,,,,,,,,,,masks/mask_002.jpg,,,,,,,,,,,,,,,,,,,,,,,,,,,,,,,,,,,,,,,,,,,,,,,,0,4,4,1,1,,,,,,,,,,,,,,,,,,,,,,,,,,,,,,,,,,,,,,,,,
454008,001,2022-11-20_17h53.23.364,Info_measure_main_exp,2022.2.2,Win32,59.9268892,,,,,,,,,,,,,,,,,,,,,,,,,,,,,,0,0.6778,1,,,,,,,,,,,,0,131,5,5,2190,2190,absent_patch/patch0002190.jpg,absent_patch/patch0002190.jpg,,,,,,,,,,,,,,,,,,,,-0.03125,0.131510417,1,0,0,response7disk,21,0.009114583,-0.002604167,1,0,0,center_square,0,20,20,86,1,,,,,,,,,,,,,,,,,,,,,,,
454008,001,2022-11-20_17h53.23.364,Info_measure_main_exp,2022.2.2,Win32,59.9268892,,,,,,,,,,,,,,,,,,masks/mask_003.jpg,,,,,,,,,,,,,,,,,,,,,,,,,,,,,,,,,,,,,,,,,,,0,0,0,2,1,,,,,,,,,,,,,,,,,,,,,,,,,,,,,,,,,,,,,,,,,,,,,,
454008,001,2022-11-20_17h53.23.364,Info_measure_main_exp,2022.2.2,Win32,59.9268892,,,,,,,,,,,,,,,,,,masks/mask_002.jpg,,,,,,,,,,,,,,,,,,,,,,,,,,,,,,,,,,,,,,,,,,,0,1,1,1,1,,,,,,,,,,,,,,,,,,,,,,,,,,,,,,,,,,,,,,,,,,,,,,
454008,001,2022-11-20_17h53.23.364,Info_measure_main_exp,2022.2.2,Win32,59.9268892,,,,,,,,,,,,,,,,,,masks/mask_005.jpg,,,,,,,,,,,,,,,,,,,,,,,,,,,,,,,,,,,,,,,,,,,0,2,2,4,1,,,,,,,,,,,,,,,,,,,,,,,,,,,,,,,,,,,,,,,,,,,,,,
454008,001,2022-11-20_17h53.23.364,Info_measure_main_exp,2022.2.2,Win32,59.9268892,,,,,,,,,,,,,,,,,,masks/mask_004.jpg,,,,,,,,,,,,,,,,,,,,,,,,,,,,,,,,,,,,,,,,,,,0,3,3,3,1,,,,,,,,,,,,,,,,,,,,,,,,,,,,,,,,,,,,,,,,,,,,,,
454008,001,2022-11-20_17h53.23.364,Info_measure_main_exp,2022.2.2,Win32,59.9268892,,,,,,,,,,,,,,,,,,masks/mask_001.jpg,,,,,,,,,,,,,,,,,,,,,,,,,,,,,,,,,,,,,,,,,,,0,4,4,0,1,,,,,,,,,,,,,,,,,,,,,,,,,,,,,,,,,,,,,,,,,,,,,,
454008,001,2022-11-20_17h53.23.364,Info_measure_main_exp,2022.2.2,Win32,59.9268892,,,,,,,,,,,,,,,,,,masks/mask_001.jpg,,,,,,,,,,,,,,,,,,,,,,,,,,,,,,,,,,,,,,,,,,,,,,,,0,0,0,0,1,,,,,,,,,,,,,,,,,,,,,,,,,,,,,,,,,,,,,,,,,
454008,001,2022-11-20_17h53.23.364,Info_measure_main_exp,2022.2.2,Win32,59.9268892,,,,,,,,,,,,,,,,,,masks/mask_003.jpg,,,,,,,,,,,,,,,,,,,,,,,,,,,,,,,,,,,,,,,,,,,,,,,,0,1,1,2,1,,,,,,,,,,,,,,,,,,,,,,,,,,,,,,,,,,,,,,,,,
454008,001,2022-11-20_17h53.23.364,Info_measure_main_exp,2022.2.2,Win32,59.9268892,,,,,,,,,,,,,,,,,,masks/mask_005.jpg,,,,,,,,,,,,,,,,,,,,,,,,,,,,,,,,,,,,,,,,,,,,,,,,0,2,2,4,1,,,,,,,,,,,,,,,,,,,,,,,,,,,,,,,,,,,,,,,,,
454008,001,2022-11-20_17h53.23.364,Info_measure_main_exp,2022.2.2,Win32,59.9268892,,,,,,,,,,,,,,,,,,masks/mask_002.jpg,,,,,,,,,,,,,,,,,,,,,,,,,,,,,,,,,,,,,,,,,,,,,,,,0,3,3,1,1,,,,,,,,,,,,,,,,,,,,,,,,,,,,,,,,,,,,,,,,,
454008,001,2022-11-20_17h53.23.364,Info_measure_main_exp,2022.2.2,Win32,59.9268892,,,,,,,,,,,,,,,,,,masks/mask_004.jpg,,,,,,,,,,,,,,,,,,,,,,,,,,,,,,,,,,,,,,,,,,,,,,,,0,4,4,3,1,,,,,,,,,,,,,,,,,,,,,,,,,,,,,,,,,,,,,,,,,
454008,001,2022-11-20_17h53.23.364,Info_measure_main_exp,2022.2.2,Win32,59.9268892,,,,,,,,,,,,,,,,,,,,,,,,,,,,,,7,0.8119,1,,,,,,,,,,,,0,131,5,5,2154,1974,absent_patch/patch0002154.jpg,absent_patch/patch0001974.jpg,,,,,,,,,,,,,,,,,,,,0.044270833,0.134114583,1,0,0,response1disk,22,0.001302083,0.001302083,1,0,0,center_square,0,21,21,82,1,,,,,,,,,,,,,,,,,,,,,,,
454008,001,2022-11-20_17h53.23.364,Info_measure_main_exp,2022.2.2,Win32,59.9268892,,,,,,,,,,,,,,,,,,masks/mask_004.jpg,,,,,,,,,,,,,,,,,,,,,,,,,,,,,,,,,,,,,,,,,,,0,0,0,3,1,,,,,,,,,,,,,,,,,,,,,,,,,,,,,,,,,,,,,,,,,,,,,,
454008,001,2022-11-20_17h53.23.364,Info_measure_main_exp,2022.2.2,Win32,59.9268892,,,,,,,,,,,,,,,,,,masks/mask_002.jpg,,,,,,,,,,,,,,,,,,,,,,,,,,,,,,,,,,,,,,,,,,,0,1,1,1,1,,,,,,,,,,,,,,,,,,,,,,,,,,,,,,,,,,,,,,,,,,,,,,
454008,001,2022-11-20_17h53.23.364,Info_measure_main_exp,2022.2.2,Win32,59.9268892,,,,,,,,,,,,,,,,,,masks/mask_001.jpg,,,,,,,,,,,,,,,,,,,,,,,,,,,,,,,,,,,,,,,,,,,0,2,2,0,1,,,,,,,,,,,,,,,,,,,,,,,,,,,,,,,,,,,,,,,,,,,,,,
454008,001,2022-11-20_17h53.23.364,Info_measure_main_exp,2022.2.2,Win32,59.9268892,,,,,,,,,,,,,,,,,,masks/mask_003.jpg,,,,,,,,,,,,,,,,,,,,,,,,,,,,,,,,,,,,,,,,,,,0,3,3,2,1,,,,,,,,,,,,,,,,,,,,,,,,,,,,,,,,,,,,,,,,,,,,,,
454008,001,2022-11-20_17h53.23.364,Info_measure_main_exp,2022.2.2,Win32,59.9268892,,,,,,,,,,,,,,,,,,masks/mask_005.jpg,,,,,,,,,,,,,,,,,,,,,,,,,,,,,,,,,,,,,,,,,,,0,4,4,4,1,,,,,,,,,,,,,,,,,,,,,,,,,,,,,,,,,,,,,,,,,,,,,,
454008,001,2022-11-20_17h53.23.364,Info_measure_main_exp,2022.2.2,Win32,59.9268892,,,,,,,,,,,,,,,,,,masks/mask_001.jpg,,,,,,,,,,,,,,,,,,,,,,,,,,,,,,,,,,,,,,,,,,,,,,,,0,0,0,0,1,,,,,,,,,,,,,,,,,,,,,,,,,,,,,,,,,,,,,,,,,
454008,001,2022-11-20_17h53.23.364,Info_measure_main_exp,2022.2.2,Win32,59.9268892,,,,,,,,,,,,,,,,,,masks/mask_002.jpg,,,,,,,,,,,,,,,,,,,,,,,,,,,,,,,,,,,,,,,,,,,,,,,,0,1,1,1,1,,,,,,,,,,,,,,,,,,,,,,,,,,,,,,,,,,,,,,,,,
454008,001,2022-11-20_17h53.23.364,Info_measure_main_exp,2022.2.2,Win32,59.9268892,,,,,,,,,,,,,,,,,,masks/mask_005.jpg,,,,,,,,,,,,,,,,,,,,,,,,,,,,,,,,,,,,,,,,,,,,,,,,0,2,2,4,1,,,,,,,,,,,,,,,,,,,,,,,,,,,,,,,,,,,,,,,,,
454008,001,2022-11-20_17h53.23.364,Info_measure_main_exp,2022.2.2,Win32,59.9268892,,,,,,,,,,,,,,,,,,masks/mask_004.jpg,,,,,,,,,,,,,,,,,,,,,,,,,,,,,,,,,,,,,,,,,,,,,,,,0,3,3,3,1,,,,,,,,,,,,,,,,,,,,,,,,,,,,,,,,,,,,,,,,,
454008,001,2022-11-20_17h53.23.364,Info_measure_main_exp,2022.2.2,Win32,59.9268892,,,,,,,,,,,,,,,,,,masks/mask_003.jpg,,,,,,,,,,,,,,,,,,,,,,,,,,,,,,,,,,,,,,,,,,,,,,,,0,4,4,2,1,,,,,,,,,,,,,,,,,,,,,,,,,,,,,,,,,,,,,,,,,
454008,001,2022-11-20_17h53.23.364,Info_measure_main_exp,2022.2.2,Win32,59.9268892,,,,,,,,,,,,,,,,,,,,,,,,,,,,,,0,0.7381,1,,,,,,,,,,,,0,131,5,5,2154,2154,absent_patch/patch0002154.jpg,absent_patch/patch0002154.jpg,,,,,,,,,,,,,,,,,,,,-0.041666667,0.134114583,1,0,0,response7disk,23,-0.001302083,0.01171875,1,0,0,center_square,0,22,22,89,1,,,,,,,,,,,,,,,,,,,,,,,
454008,001,2022-11-20_17h53.23.364,Info_measure_main_exp,2022.2.2,Win32,59.9268892,,,,,,,,,,,,,,,,,,masks/mask_005.jpg,,,,,,,,,,,,,,,,,,,,,,,,,,,,,,,,,,,,,,,,,,,0,0,0,4,1,,,,,,,,,,,,,,,,,,,,,,,,,,,,,,,,,,,,,,,,,,,,,,
454008,001,2022-11-20_17h53.23.364,Info_measure_main_exp,2022.2.2,Win32,59.9268892,,,,,,,,,,,,,,,,,,masks/mask_002.jpg,,,,,,,,,,,,,,,,,,,,,,,,,,,,,,,,,,,,,,,,,,,0,1,1,1,1,,,,,,,,,,,,,,,,,,,,,,,,,,,,,,,,,,,,,,,,,,,,,,
454008,001,2022-11-20_17h53.23.364,Info_measure_main_exp,2022.2.2,Win32,59.9268892,,,,,,,,,,,,,,,,,,masks/mask_004.jpg,,,,,,,,,,,,,,,,,,,,,,,,,,,,,,,,,,,,,,,,,,,0,2,2,3,1,,,,,,,,,,,,,,,,,,,,,,,,,,,,,,,,,,,,,,,,,,,,,,
454008,001,2022-11-20_17h53.23.364,Info_measure_main_exp,2022.2.2,Win32,59.9268892,,,,,,,,,,,,,,,,,,masks/mask_003.jpg,,,,,,,,,,,,,,,,,,,,,,,,,,,,,,,,,,,,,,,,,,,0,3,3,2,1,,,,,,,,,,,,,,,,,,,,,,,,,,,,,,,,,,,,,,,,,,,,,,
454008,001,2022-11-20_17h53.23.364,Info_measure_main_exp,2022.2.2,Win32,59.9268892,,,,,,,,,,,,,,,,,,masks/mask_001.jpg,,,,,,,,,,,,,,,,,,,,,,,,,,,,,,,,,,,,,,,,,,,0,4,4,0,1,,,,,,,,,,,,,,,,,,,,,,,,,,,,,,,,,,,,,,,,,,,,,,
454008,001,2022-11-20_17h53.23.364,Info_measure_main_exp,2022.2.2,Win32,59.9268892,,,,,,,,,,,,,,,,,,masks/mask_003.jpg,,,,,,,,,,,,,,,,,,,,,,,,,,,,,,,,,,,,,,,,,,,,,,,,0,0,0,2,1,,,,,,,,,,,,,,,,,,,,,,,,,,,,,,,,,,,,,,,,,
454008,001,2022-11-20_17h53.23.364,Info_measure_main_exp,2022.2.2,Win32,59.9268892,,,,,,,,,,,,,,,,,,masks/mask_002.jpg,,,,,,,,,,,,,,,,,,,,,,,,,,,,,,,,,,,,,,,,,,,,,,,,0,1,1,1,1,,,,,,,,,,,,,,,,,,,,,,,,,,,,,,,,,,,,,,,,,
454008,001,2022-11-20_17h53.23.364,Info_measure_main_exp,2022.2.2,Win32,59.9268892,,,,,,,,,,,,,,,,,,masks/mask_004.jpg,,,,,,,,,,,,,,,,,,,,,,,,,,,,,,,,,,,,,,,,,,,,,,,,0,2,2,3,1,,,,,,,,,,,,,,,,,,,,,,,,,,,,,,,,,,,,,,,,,
454008,001,2022-11-20_17h53.23.364,Info_measure_main_exp,2022.2.2,Win32,59.9268892,,,,,,,,,,,,,,,,,,masks/mask_001.jpg,,,,,,,,,,,,,,,,,,,,,,,,,,,,,,,,,,,,,,,,,,,,,,,,0,3,3,0,1,,,,,,,,,,,,,,,,,,,,,,,,,,,,,,,,,,,,,,,,,
454008,001,2022-11-20_17h53.23.364,Info_measure_main_exp,2022.2.2,Win32,59.9268892,,,,,,,,,,,,,,,,,,masks/mask_005.jpg,,,,,,,,,,,,,,,,,,,,,,,,,,,,,,,,,,,,,,,,,,,,,,,,0,4,4,4,1,,,,,,,,,,,,,,,,,,,,,,,,,,,,,,,,,,,,,,,,,
454008,001,2022-11-20_17h53.23.364,Info_measure_main_exp,2022.2.2,Win32,59.9268892,,,,,,,,,,,,,,,,,,,,,,,,,,,,,,7,0.6029,1,,,,,,,,,,,,0,131,5,5,1950,2178,absent_patch/patch0001950.jpg,absent_patch/patch0002178.jpg,,,,,,,,,,,,,,,,,,,,0.061197917,0.139322917,1,0,0,response1disk,24,-0.001302083,0.014322917,1,0,0,center_square,0,23,23,61,1,,,,,,,,,,,,,,,,,,,,,,,
454008,001,2022-11-20_17h53.23.364,Info_measure_main_exp,2022.2.2,Win32,59.9268892,,,,,,,,,,,,,,,,,,masks/mask_001.jpg,,,,,,,,,,,,,,,,,,,,,,,,,,,,,,,,,,,,,,,,,,,0,0,0,0,1,,,,,,,,,,,,,,,,,,,,,,,,,,,,,,,,,,,,,,,,,,,,,,
454008,001,2022-11-20_17h53.23.364,Info_measure_main_exp,2022.2.2,Win32,59.9268892,,,,,,,,,,,,,,,,,,masks/mask_004.jpg,,,,,,,,,,,,,,,,,,,,,,,,,,,,,,,,,,,,,,,,,,,0,1,1,3,1,,,,,,,,,,,,,,,,,,,,,,,,,,,,,,,,,,,,,,,,,,,,,,
454008,001,2022-11-20_17h53.23.364,Info_measure_main_exp,2022.2.2,Win32,59.9268892,,,,,,,,,,,,,,,,,,masks/mask_002.jpg,,,,,,,,,,,,,,,,,,,,,,,,,,,,,,,,,,,,,,,,,,,0,2,2,1,1,,,,,,,,,,,,,,,,,,,,,,,,,,,,,,,,,,,,,,,,,,,,,,
454008,001,2022-11-20_17h53.23.364,Info_measure_main_exp,2022.2.2,Win32,59.9268892,,,,,,,,,,,,,,,,,,masks/mask_003.jpg,,,,,,,,,,,,,,,,,,,,,,,,,,,,,,,,,,,,,,,,,,,0,3,3,2,1,,,,,,,,,,,,,,,,,,,,,,,,,,,,,,,,,,,,,,,,,,,,,,
454008,001,2022-11-20_17h53.23.364,Info_measure_main_exp,2022.2.2,Win32,59.9268892,,,,,,,,,,,,,,,,,,masks/mask_005.jpg,,,,,,,,,,,,,,,,,,,,,,,,,,,,,,,,,,,,,,,,,,,0,4,4,4,1,,,,,,,,,,,,,,,,,,,,,,,,,,,,,,,,,,,,,,,,,,,,,,
454008,001,2022-11-20_17h53.23.364,Info_measure_main_exp,2022.2.2,Win32,59.9268892,,,,,,,,,,,,,,,,,,masks/mask_002.jpg,,,,,,,,,,,,,,,,,,,,,,,,,,,,,,,,,,,,,,,,,,,,,,,,0,0,0,1,1,,,,,,,,,,,,,,,,,,,,,,,,,,,,,,,,,,,,,,,,,
454008,001,2022-11-20_17h53.23.364,Info_measure_main_exp,2022.2.2,Win32,59.9268892,,,,,,,,,,,,,,,,,,masks/mask_005.jpg,,,,,,,,,,,,,,,,,,,,,,,,,,,,,,,,,,,,,,,,,,,,,,,,0,1,1,4,1,,,,,,,,,,,,,,,,,,,,,,,,,,,,,,,,,,,,,,,,,
454008,001,2022-11-20_17h53.23.364,Info_measure_main_exp,2022.2.2,Win32,59.9268892,,,,,,,,,,,,,,,,,,masks/mask_004.jpg,,,,,,,,,,,,,,,,,,,,,,,,,,,,,,,,,,,,,,,,,,,,,,,,0,2,2,3,1,,,,,,,,,,,,,,,,,,,,,,,,,,,,,,,,,,,,,,,,,
454008,001,2022-11-20_17h53.23.364,Info_measure_main_exp,2022.2.2,Win32,59.9268892,,,,,,,,,,,,,,,,,,masks/mask_003.jpg,,,,,,,,,,,,,,,,,,,,,,,,,,,,,,,,,,,,,,,,,,,,,,,,0,3,3,2,1,,,,,,,,,,,,,,,,,,,,,,,,,,,,,,,,,,,,,,,,,
454008,001,2022-11-20_17h53.23.364,Info_measure_main_exp,2022.2.2,Win32,59.9268892,,,,,,,,,,,,,,,,,,masks/mask_001.jpg,,,,,,,,,,,,,,,,,,,,,,,,,,,,,,,,,,,,,,,,,,,,,,,,0,4,4,0,1,,,,,,,,,,,,,,,,,,,,,,,,,,,,,,,,,,,,,,,,,
454008,001,2022-11-20_17h53.23.364,Info_measure_main_exp,2022.2.2,Win32,59.9268892,,,,,,,,,,,,,,,,,,,,,,,,,,,,,,7,0.7156,1,,,,,,,,,,,,0,131,5,5,2082,2154,absent_patch/patch0002082.jpg,absent_patch/patch0002154.jpg,,,,,,,,,,,,,,,,,,,,0.063802083,0.182291667,1,0,0,response1disk,25,0.005208333,0.014322917,1,0,0,center_square,0,24,24,33,1,,,,,,,,,,,,,,,,,,,,,,,
454008,001,2022-11-20_17h53.23.364,Info_measure_main_exp,2022.2.2,Win32,59.9268892,,,,,,,,,,,,,,,,,,masks/mask_004.jpg,,,,,,,,,,,,,,,,,,,,,,,,,,,,,,,,,,,,,,,,,,,0,0,0,3,1,,,,,,,,,,,,,,,,,,,,,,,,,,,,,,,,,,,,,,,,,,,,,,
454008,001,2022-11-20_17h53.23.364,Info_measure_main_exp,2022.2.2,Win32,59.9268892,,,,,,,,,,,,,,,,,,masks/mask_003.jpg,,,,,,,,,,,,,,,,,,,,,,,,,,,,,,,,,,,,,,,,,,,0,1,1,2,1,,,,,,,,,,,,,,,,,,,,,,,,,,,,,,,,,,,,,,,,,,,,,,
454008,001,2022-11-20_17h53.23.364,Info_measure_main_exp,2022.2.2,Win32,59.9268892,,,,,,,,,,,,,,,,,,masks/mask_001.jpg,,,,,,,,,,,,,,,,,,,,,,,,,,,,,,,,,,,,,,,,,,,0,2,2,0,1,,,,,,,,,,,,,,,,,,,,,,,,,,,,,,,,,,,,,,,,,,,,,,
454008,001,2022-11-20_17h53.23.364,Info_measure_main_exp,2022.2.2,Win32,59.9268892,,,,,,,,,,,,,,,,,,masks/mask_002.jpg,,,,,,,,,,,,,,,,,,,,,,,,,,,,,,,,,,,,,,,,,,,0,3,3,1,1,,,,,,,,,,,,,,,,,,,,,,,,,,,,,,,,,,,,,,,,,,,,,,
454008,001,2022-11-20_17h53.23.364,Info_measure_main_exp,2022.2.2,Win32,59.9268892,,,,,,,,,,,,,,,,,,masks/mask_005.jpg,,,,,,,,,,,,,,,,,,,,,,,,,,,,,,,,,,,,,,,,,,,0,4,4,4,1,,,,,,,,,,,,,,,,,,,,,,,,,,,,,,,,,,,,,,,,,,,,,,
454008,001,2022-11-20_17h53.23.364,Info_measure_main_exp,2022.2.2,Win32,59.9268892,,,,,,,,,,,,,,,,,,masks/mask_005.jpg,,,,,,,,,,,,,,,,,,,,,,,,,,,,,,,,,,,,,,,,,,,,,,,,0,0,0,4,1,,,,,,,,,,,,,,,,,,,,,,,,,,,,,,,,,,,,,,,,,
454008,001,2022-11-20_17h53.23.364,Info_measure_main_exp,2022.2.2,Win32,59.9268892,,,,,,,,,,,,,,,,,,masks/mask_001.jpg,,,,,,,,,,,,,,,,,,,,,,,,,,,,,,,,,,,,,,,,,,,,,,,,0,1,1,0,1,,,,,,,,,,,,,,,,,,,,,,,,,,,,,,,,,,,,,,,,,
454008,001,2022-11-20_17h53.23.364,Info_measure_main_exp,2022.2.2,Win32,59.9268892,,,,,,,,,,,,,,,,,,masks/mask_002.jpg,,,,,,,,,,,,,,,,,,,,,,,,,,,,,,,,,,,,,,,,,,,,,,,,0,2,2,1,1,,,,,,,,,,,,,,,,,,,,,,,,,,,,,,,,,,,,,,,,,
454008,001,2022-11-20_17h53.23.364,Info_measure_main_exp,2022.2.2,Win32,59.9268892,,,,,,,,,,,,,,,,,,masks/mask_004.jpg,,,,,,,,,,,,,,,,,,,,,,,,,,,,,,,,,,,,,,,,,,,,,,,,0,3,3,3,1,,,,,,,,,,,,,,,,,,,,,,,,,,,,,,,,,,,,,,,,,
454008,001,2022-11-20_17h53.23.364,Info_measure_main_exp,2022.2.2,Win32,59.9268892,,,,,,,,,,,,,,,,,,masks/mask_003.jpg,,,,,,,,,,,,,,,,,,,,,,,,,,,,,,,,,,,,,,,,,,,,,,,,0,4,4,2,1,,,,,,,,,,,,,,,,,,,,,,,,,,,,,,,,,,,,,,,,,
454008,001,2022-11-20_17h53.23.364,Info_measure_main_exp,2022.2.2,Win32,59.9268892,,,,,,,,,,,,,,,,,,,,,,,,,,,,,,7,1.3591,1,,,,,,,,,,,,1,131,5,5,1950,1,absent_patch/patch0001950.jpg,present_patch/cong_131_5_a.jpg,,,,,,,,,,,,,,,,,,,,0.046875,0.115885417,1,0,0,response1disk,26,-0.002604167,0,1,0,0,center_square,0,25,25,39,1,,,,,,,,,,,,,,,,,,,,,,,
454008,001,2022-11-20_17h53.23.364,Info_measure_main_exp,2022.2.2,Win32,59.9268892,,,,,,,,,,,,,,,,,,masks/mask_004.jpg,,,,,,,,,,,,,,,,,,,,,,,,,,,,,,,,,,,,,,,,,,,0,0,0,3,1,,,,,,,,,,,,,,,,,,,,,,,,,,,,,,,,,,,,,,,,,,,,,,
454008,001,2022-11-20_17h53.23.364,Info_measure_main_exp,2022.2.2,Win32,59.9268892,,,,,,,,,,,,,,,,,,masks/mask_001.jpg,,,,,,,,,,,,,,,,,,,,,,,,,,,,,,,,,,,,,,,,,,,0,1,1,0,1,,,,,,,,,,,,,,,,,,,,,,,,,,,,,,,,,,,,,,,,,,,,,,
454008,001,2022-11-20_17h53.23.364,Info_measure_main_exp,2022.2.2,Win32,59.9268892,,,,,,,,,,,,,,,,,,masks/mask_005.jpg,,,,,,,,,,,,,,,,,,,,,,,,,,,,,,,,,,,,,,,,,,,0,2,2,4,1,,,,,,,,,,,,,,,,,,,,,,,,,,,,,,,,,,,,,,,,,,,,,,
454008,001,2022-11-20_17h53.23.364,Info_measure_main_exp,2022.2.2,Win32,59.9268892,,,,,,,,,,,,,,,,,,masks/mask_002.jpg,,,,,,,,,,,,,,,,,,,,,,,,,,,,,,,,,,,,,,,,,,,0,3,3,1,1,,,,,,,,,,,,,,,,,,,,,,,,,,,,,,,,,,,,,,,,,,,,,,
454008,001,2022-11-20_17h53.23.364,Info_measure_main_exp,2022.2.2,Win32,59.9268892,,,,,,,,,,,,,,,,,,masks/mask_003.jpg,,,,,,,,,,,,,,,,,,,,,,,,,,,,,,,,,,,,,,,,,,,0,4,4,2,1,,,,,,,,,,,,,,,,,,,,,,,,,,,,,,,,,,,,,,,,,,,,,,
454008,001,2022-11-20_17h53.23.364,Info_measure_main_exp,2022.2.2,Win32,59.9268892,,,,,,,,,,,,,,,,,,masks/mask_003.jpg,,,,,,,,,,,,,,,,,,,,,,,,,,,,,,,,,,,,,,,,,,,,,,,,0,0,0,2,1,,,,,,,,,,,,,,,,,,,,,,,,,,,,,,,,,,,,,,,,,
454008,001,2022-11-20_17h53.23.364,Info_measure_main_exp,2022.2.2,Win32,59.9268892,,,,,,,,,,,,,,,,,,masks/mask_002.jpg,,,,,,,,,,,,,,,,,,,,,,,,,,,,,,,,,,,,,,,,,,,,,,,,0,1,1,1,1,,,,,,,,,,,,,,,,,,,,,,,,,,,,,,,,,,,,,,,,,
454008,001,2022-11-20_17h53.23.364,Info_measure_main_exp,2022.2.2,Win32,59.9268892,,,,,,,,,,,,,,,,,,masks/mask_001.jpg,,,,,,,,,,,,,,,,,,,,,,,,,,,,,,,,,,,,,,,,,,,,,,,,0,2,2,0,1,,,,,,,,,,,,,,,,,,,,,,,,,,,,,,,,,,,,,,,,,
454008,001,2022-11-20_17h53.23.364,Info_measure_main_exp,2022.2.2,Win32,59.9268892,,,,,,,,,,,,,,,,,,masks/mask_004.jpg,,,,,,,,,,,,,,,,,,,,,,,,,,,,,,,,,,,,,,,,,,,,,,,,0,3,3,3,1,,,,,,,,,,,,,,,,,,,,,,,,,,,,,,,,,,,,,,,,,
454008,001,2022-11-20_17h53.23.364,Info_measure_main_exp,2022.2.2,Win32,59.9268892,,,,,,,,,,,,,,,,,,masks/mask_005.jpg,,,,,,,,,,,,,,,,,,,,,,,,,,,,,,,,,,,,,,,,,,,,,,,,0,4,4,4,1,,,,,,,,,,,,,,,,,,,,,,,,,,,,,,,,,,,,,,,,,
454008,001,2022-11-20_17h53.23.364,Info_measure_main_exp,2022.2.2,Win32,59.9268892,,,,,,,,,,,,,,,,,,,,,,,,,,,,,,7,0.9027,1,,,,,,,,,,,,1,131,5,5,1,1974,present_patch/cong_131_5_a.jpg,absent_patch/patch0001974.jpg,,,,,,,,,,,,,,,,,,,,0.041666667,0.102864583,1,0,0,response1disk,27,-0.001302083,0,1,0,0,center_square,0,26,26,69,1,,,,,,,,,,,,,,,,,,,,,,,
454008,001,2022-11-20_17h53.23.364,Info_measure_main_exp,2022.2.2,Win32,59.9268892,,,,,,,,,,,,,,,,,,masks/mask_003.jpg,,,,,,,,,,,,,,,,,,,,,,,,,,,,,,,,,,,,,,,,,,,0,0,0,2,1,,,,,,,,,,,,,,,,,,,,,,,,,,,,,,,,,,,,,,,,,,,,,,
454008,001,2022-11-20_17h53.23.364,Info_measure_main_exp,2022.2.2,Win32,59.9268892,,,,,,,,,,,,,,,,,,masks/mask_002.jpg,,,,,,,,,,,,,,,,,,,,,,,,,,,,,,,,,,,,,,,,,,,0,1,1,1,1,,,,,,,,,,,,,,,,,,,,,,,,,,,,,,,,,,,,,,,,,,,,,,
454008,001,2022-11-20_17h53.23.364,Info_measure_main_exp,2022.2.2,Win32,59.9268892,,,,,,,,,,,,,,,,,,masks/mask_005.jpg,,,,,,,,,,,,,,,,,,,,,,,,,,,,,,,,,,,,,,,,,,,0,2,2,4,1,,,,,,,,,,,,,,,,,,,,,,,,,,,,,,,,,,,,,,,,,,,,,,
454008,001,2022-11-20_17h53.23.364,Info_measure_main_exp,2022.2.2,Win32,59.9268892,,,,,,,,,,,,,,,,,,masks/mask_001.jpg,,,,,,,,,,,,,,,,,,,,,,,,,,,,,,,,,,,,,,,,,,,0,3,3,0,1,,,,,,,,,,,,,,,,,,,,,,,,,,,,,,,,,,,,,,,,,,,,,,
454008,001,2022-11-20_17h53.23.364,Info_measure_main_exp,2022.2.2,Win32,59.9268892,,,,,,,,,,,,,,,,,,masks/mask_004.jpg,,,,,,,,,,,,,,,,,,,,,,,,,,,,,,,,,,,,,,,,,,,0,4,4,3,1,,,,,,,,,,,,,,,,,,,,,,,,,,,,,,,,,,,,,,,,,,,,,,
454008,001,2022-11-20_17h53.23.364,Info_measure_main_exp,2022.2.2,Win32,59.9268892,,,,,,,,,,,,,,,,,,masks/mask_001.jpg,,,,,,,,,,,,,,,,,,,,,,,,,,,,,,,,,,,,,,,,,,,,,,,,0,0,0,0,1,,,,,,,,,,,,,,,,,,,,,,,,,,,,,,,,,,,,,,,,,
454008,001,2022-11-20_17h53.23.364,Info_measure_main_exp,2022.2.2,Win32,59.9268892,,,,,,,,,,,,,,,,,,masks/mask_005.jpg,,,,,,,,,,,,,,,,,,,,,,,,,,,,,,,,,,,,,,,,,,,,,,,,0,1,1,4,1,,,,,,,,,,,,,,,,,,,,,,,,,,,,,,,,,,,,,,,,,
454008,001,2022-11-20_17h53.23.364,Info_measure_main_exp,2022.2.2,Win32,59.9268892,,,,,,,,,,,,,,,,,,masks/mask_002.jpg,,,,,,,,,,,,,,,,,,,,,,,,,,,,,,,,,,,,,,,,,,,,,,,,0,2,2,1,1,,,,,,,,,,,,,,,,,,,,,,,,,,,,,,,,,,,,,,,,,
454008,001,2022-11-20_17h53.23.364,Info_measure_main_exp,2022.2.2,Win32,59.9268892,,,,,,,,,,,,,,,,,,masks/mask_004.jpg,,,,,,,,,,,,,,,,,,,,,,,,,,,,,,,,,,,,,,,,,,,,,,,,0,3,3,3,1,,,,,,,,,,,,,,,,,,,,,,,,,,,,,,,,,,,,,,,,,
454008,001,2022-11-20_17h53.23.364,Info_measure_main_exp,2022.2.2,Win32,59.9268892,,,,,,,,,,,,,,,,,,masks/mask_003.jpg,,,,,,,,,,,,,,,,,,,,,,,,,,,,,,,,,,,,,,,,,,,,,,,,0,4,4,2,1,,,,,,,,,,,,,,,,,,,,,,,,,,,,,,,,,,,,,,,,,
454008,001,2022-11-20_17h53.23.364,Info_measure_main_exp,2022.2.2,Win32,59.9268892,,,,,,,,,,,,,,,,,,,,,,,,,,,,,,7,0.704,1,,,,,,,,,,,,0,131,5,5,2214,1986,absent_patch/patch0002214.jpg,absent_patch/patch0001986.jpg,,,,,,,,,,,,,,,,,,,,0.041666667,0.095052083,1,0,0,response1disk,28,0.00390625,0.0078125,1,0,0,center_square,0,27,27,34,1,,,,,,,,,,,,,,,,,,,,,,,
454008,001,2022-11-20_17h53.23.364,Info_measure_main_exp,2022.2.2,Win32,59.9268892,,,,,,,,,,,,,,,,,,masks/mask_005.jpg,,,,,,,,,,,,,,,,,,,,,,,,,,,,,,,,,,,,,,,,,,,0,0,0,4,1,,,,,,,,,,,,,,,,,,,,,,,,,,,,,,,,,,,,,,,,,,,,,,
454008,001,2022-11-20_17h53.23.364,Info_measure_main_exp,2022.2.2,Win32,59.9268892,,,,,,,,,,,,,,,,,,masks/mask_001.jpg,,,,,,,,,,,,,,,,,,,,,,,,,,,,,,,,,,,,,,,,,,,0,1,1,0,1,,,,,,,,,,,,,,,,,,,,,,,,,,,,,,,,,,,,,,,,,,,,,,
454008,001,2022-11-20_17h53.23.364,Info_measure_main_exp,2022.2.2,Win32,59.9268892,,,,,,,,,,,,,,,,,,masks/mask_004.jpg,,,,,,,,,,,,,,,,,,,,,,,,,,,,,,,,,,,,,,,,,,,0,2,2,3,1,,,,,,,,,,,,,,,,,,,,,,,,,,,,,,,,,,,,,,,,,,,,,,
454008,001,2022-11-20_17h53.23.364,Info_measure_main_exp,2022.2.2,Win32,59.9268892,,,,,,,,,,,,,,,,,,masks/mask_002.jpg,,,,,,,,,,,,,,,,,,,,,,,,,,,,,,,,,,,,,,,,,,,0,3,3,1,1,,,,,,,,,,,,,,,,,,,,,,,,,,,,,,,,,,,,,,,,,,,,,,
454008,001,2022-11-20_17h53.23.364,Info_measure_main_exp,2022.2.2,Win32,59.9268892,,,,,,,,,,,,,,,,,,masks/mask_003.jpg,,,,,,,,,,,,,,,,,,,,,,,,,,,,,,,,,,,,,,,,,,,0,4,4,2,1,,,,,,,,,,,,,,,,,,,,,,,,,,,,,,,,,,,,,,,,,,,,,,
454008,001,2022-11-20_17h53.23.364,Info_measure_main_exp,2022.2.2,Win32,59.9268892,,,,,,,,,,,,,,,,,,masks/mask_004.jpg,,,,,,,,,,,,,,,,,,,,,,,,,,,,,,,,,,,,,,,,,,,,,,,,0,0,0,3,1,,,,,,,,,,,,,,,,,,,,,,,,,,,,,,,,,,,,,,,,,
454008,001,2022-11-20_17h53.23.364,Info_measure_main_exp,2022.2.2,Win32,59.9268892,,,,,,,,,,,,,,,,,,masks/mask_001.jpg,,,,,,,,,,,,,,,,,,,,,,,,,,,,,,,,,,,,,,,,,,,,,,,,0,1,1,0,1,,,,,,,,,,,,,,,,,,,,,,,,,,,,,,,,,,,,,,,,,
454008,001,2022-11-20_17h53.23.364,Info_measure_main_exp,2022.2.2,Win32,59.9268892,,,,,,,,,,,,,,,,,,masks/mask_005.jpg,,,,,,,,,,,,,,,,,,,,,,,,,,,,,,,,,,,,,,,,,,,,,,,,0,2,2,4,1,,,,,,,,,,,,,,,,,,,,,,,,,,,,,,,,,,,,,,,,,
454008,001,2022-11-20_17h53.23.364,Info_measure_main_exp,2022.2.2,Win32,59.9268892,,,,,,,,,,,,,,,,,,masks/mask_002.jpg,,,,,,,,,,,,,,,,,,,,,,,,,,,,,,,,,,,,,,,,,,,,,,,,0,3,3,1,1,,,,,,,,,,,,,,,,,,,,,,,,,,,,,,,,,,,,,,,,,
454008,001,2022-11-20_17h53.23.364,Info_measure_main_exp,2022.2.2,Win32,59.9268892,,,,,,,,,,,,,,,,,,masks/mask_003.jpg,,,,,,,,,,,,,,,,,,,,,,,,,,,,,,,,,,,,,,,,,,,,,,,,0,4,4,2,1,,,,,,,,,,,,,,,,,,,,,,,,,,,,,,,,,,,,,,,,,
454008,001,2022-11-20_17h53.23.364,Info_measure_main_exp,2022.2.2,Win32,59.9268892,,,,,,,,,,,,,,,,,,,,,,,,,,,,,,7,0.9392,1,,,,,,,,,,,,0,131,5,5,2142,2154,absent_patch/patch0002142.jpg,absent_patch/patch0002154.jpg,,,,,,,,,,,,,,,,,,,,0.03125,0.1015625,1,0,0,response1disk,29,0.001302083,0.014322917,1,0,0,center_square,0,28,28,9,1,,,,,,,,,,,,,,,,,,,,,,,
454008,001,2022-11-20_17h53.23.364,Info_measure_main_exp,2022.2.2,Win32,59.9268892,,,,,,,,,,,,,,,,,,masks/mask_002.jpg,,,,,,,,,,,,,,,,,,,,,,,,,,,,,,,,,,,,,,,,,,,0,0,0,1,1,,,,,,,,,,,,,,,,,,,,,,,,,,,,,,,,,,,,,,,,,,,,,,
454008,001,2022-11-20_17h53.23.364,Info_measure_main_exp,2022.2.2,Win32,59.9268892,,,,,,,,,,,,,,,,,,masks/mask_004.jpg,,,,,,,,,,,,,,,,,,,,,,,,,,,,,,,,,,,,,,,,,,,0,1,1,3,1,,,,,,,,,,,,,,,,,,,,,,,,,,,,,,,,,,,,,,,,,,,,,,
454008,001,2022-11-20_17h53.23.364,Info_measure_main_exp,2022.2.2,Win32,59.9268892,,,,,,,,,,,,,,,,,,masks/mask_003.jpg,,,,,,,,,,,,,,,,,,,,,,,,,,,,,,,,,,,,,,,,,,,0,2,2,2,1,,,,,,,,,,,,,,,,,,,,,,,,,,,,,,,,,,,,,,,,,,,,,,
454008,001,2022-11-20_17h53.23.364,Info_measure_main_exp,2022.2.2,Win32,59.9268892,,,,,,,,,,,,,,,,,,masks/mask_001.jpg,,,,,,,,,,,,,,,,,,,,,,,,,,,,,,,,,,,,,,,,,,,0,3,3,0,1,,,,,,,,,,,,,,,,,,,,,,,,,,,,,,,,,,,,,,,,,,,,,,
454008,001,2022-11-20_17h53.23.364,Info_measure_main_exp,2022.2.2,Win32,59.9268892,,,,,,,,,,,,,,,,,,masks/mask_005.jpg,,,,,,,,,,,,,,,,,,,,,,,,,,,,,,,,,,,,,,,,,,,0,4,4,4,1,,,,,,,,,,,,,,,,,,,,,,,,,,,,,,,,,,,,,,,,,,,,,,
454008,001,2022-11-20_17h53.23.364,Info_measure_main_exp,2022.2.2,Win32,59.9268892,,,,,,,,,,,,,,,,,,masks/mask_005.jpg,,,,,,,,,,,,,,,,,,,,,,,,,,,,,,,,,,,,,,,,,,,,,,,,0,0,0,4,1,,,,,,,,,,,,,,,,,,,,,,,,,,,,,,,,,,,,,,,,,
454008,001,2022-11-20_17h53.23.364,Info_measure_main_exp,2022.2.2,Win32,59.9268892,,,,,,,,,,,,,,,,,,masks/mask_002.jpg,,,,,,,,,,,,,,,,,,,,,,,,,,,,,,,,,,,,,,,,,,,,,,,,0,1,1,1,1,,,,,,,,,,,,,,,,,,,,,,,,,,,,,,,,,,,,,,,,,
454008,001,2022-11-20_17h53.23.364,Info_measure_main_exp,2022.2.2,Win32,59.9268892,,,,,,,,,,,,,,,,,,masks/mask_004.jpg,,,,,,,,,,,,,,,,,,,,,,,,,,,,,,,,,,,,,,,,,,,,,,,,0,2,2,3,1,,,,,,,,,,,,,,,,,,,,,,,,,,,,,,,,,,,,,,,,,
454008,001,2022-11-20_17h53.23.364,Info_measure_main_exp,2022.2.2,Win32,59.9268892,,,,,,,,,,,,,,,,,,masks/mask_001.jpg,,,,,,,,,,,,,,,,,,,,,,,,,,,,,,,,,,,,,,,,,,,,,,,,0,3,3,0,1,,,,,,,,,,,,,,,,,,,,,,,,,,,,,,,,,,,,,,,,,
454008,001,2022-11-20_17h53.23.364,Info_measure_main_exp,2022.2.2,Win32,59.9268892,,,,,,,,,,,,,,,,,,masks/mask_003.jpg,,,,,,,,,,,,,,,,,,,,,,,,,,,,,,,,,,,,,,,,,,,,,,,,0,4,4,2,1,,,,,,,,,,,,,,,,,,,,,,,,,,,,,,,,,,,,,,,,,
454008,001,2022-11-20_17h53.23.364,Info_measure_main_exp,2022.2.2,Win32,59.9268892,,,,,,,,,,,,,,,,,,,,,,,,,,,,,,7,0.5697,1,,,,,,,,,,,,0,131,5,5,2274,1974,absent_patch/patch0002274.jpg,absent_patch/patch0001974.jpg,,,,,,,,,,,,,,,,,,,,0.0390625,0.088541667,1,0,0,response1disk,30,0.00390625,-0.00390625,1,0,0,center_square,0,29,29,90,1,,,,,,,,,,,,,,,,,,,,,,,
454008,001,2022-11-20_17h53.23.364,Info_measure_main_exp,2022.2.2,Win32,59.9268892,,,,,,,,,,,,,,,,,,masks/mask_004.jpg,,,,,,,,,,,,,,,,,,,,,,,,,,,,,,,,,,,,,,,,,,,0,0,0,3,1,,,,,,,,,,,,,,,,,,,,,,,,,,,,,,,,,,,,,,,,,,,,,,
454008,001,2022-11-20_17h53.23.364,Info_measure_main_exp,2022.2.2,Win32,59.9268892,,,,,,,,,,,,,,,,,,masks/mask_001.jpg,,,,,,,,,,,,,,,,,,,,,,,,,,,,,,,,,,,,,,,,,,,0,1,1,0,1,,,,,,,,,,,,,,,,,,,,,,,,,,,,,,,,,,,,,,,,,,,,,,
454008,001,2022-11-20_17h53.23.364,Info_measure_main_exp,2022.2.2,Win32,59.9268892,,,,,,,,,,,,,,,,,,masks/mask_002.jpg,,,,,,,,,,,,,,,,,,,,,,,,,,,,,,,,,,,,,,,,,,,0,2,2,1,1,,,,,,,,,,,,,,,,,,,,,,,,,,,,,,,,,,,,,,,,,,,,,,
454008,001,2022-11-20_17h53.23.364,Info_measure_main_exp,2022.2.2,Win32,59.9268892,,,,,,,,,,,,,,,,,,masks/mask_003.jpg,,,,,,,,,,,,,,,,,,,,,,,,,,,,,,,,,,,,,,,,,,,0,3,3,2,1,,,,,,,,,,,,,,,,,,,,,,,,,,,,,,,,,,,,,,,,,,,,,,
454008,001,2022-11-20_17h53.23.364,Info_measure_main_exp,2022.2.2,Win32,59.9268892,,,,,,,,,,,,,,,,,,masks/mask_005.jpg,,,,,,,,,,,,,,,,,,,,,,,,,,,,,,,,,,,,,,,,,,,0,4,4,4,1,,,,,,,,,,,,,,,,,,,,,,,,,,,,,,,,,,,,,,,,,,,,,,
454008,001,2022-11-20_17h53.23.364,Info_measure_main_exp,2022.2.2,Win32,59.9268892,,,,,,,,,,,,,,,,,,masks/mask_005.jpg,,,,,,,,,,,,,,,,,,,,,,,,,,,,,,,,,,,,,,,,,,,,,,,,0,0,0,4,1,,,,,,,,,,,,,,,,,,,,,,,,,,,,,,,,,,,,,,,,,
454008,001,2022-11-20_17h53.23.364,Info_measure_main_exp,2022.2.2,Win32,59.9268892,,,,,,,,,,,,,,,,,,masks/mask_004.jpg,,,,,,,,,,,,,,,,,,,,,,,,,,,,,,,,,,,,,,,,,,,,,,,,0,1,1,3,1,,,,,,,,,,,,,,,,,,,,,,,,,,,,,,,,,,,,,,,,,
454008,001,2022-11-20_17h53.23.364,Info_measure_main_exp,2022.2.2,Win32,59.9268892,,,,,,,,,,,,,,,,,,masks/mask_003.jpg,,,,,,,,,,,,,,,,,,,,,,,,,,,,,,,,,,,,,,,,,,,,,,,,0,2,2,2,1,,,,,,,,,,,,,,,,,,,,,,,,,,,,,,,,,,,,,,,,,
454008,001,2022-11-20_17h53.23.364,Info_measure_main_exp,2022.2.2,Win32,59.9268892,,,,,,,,,,,,,,,,,,masks/mask_001.jpg,,,,,,,,,,,,,,,,,,,,,,,,,,,,,,,,,,,,,,,,,,,,,,,,0,3,3,0,1,,,,,,,,,,,,,,,,,,,,,,,,,,,,,,,,,,,,,,,,,
454008,001,2022-11-20_17h53.23.364,Info_measure_main_exp,2022.2.2,Win32,59.9268892,,,,,,,,,,,,,,,,,,masks/mask_002.jpg,,,,,,,,,,,,,,,,,,,,,,,,,,,,,,,,,,,,,,,,,,,,,,,,0,4,4,1,1,,,,,,,,,,,,,,,,,,,,,,,,,,,,,,,,,,,,,,,,,
454008,001,2022-11-20_17h53.23.364,Info_measure_main_exp,2022.2.2,Win32,59.9268892,,,,,,,,,,,,,,,,,,,,,,,,,,,,,,7,0.7644,1,,,,,,,,,,,,0,131,5,5,2238,2298,absent_patch/patch0002238.jpg,absent_patch/patch0002298.jpg,,,,,,,,,,,,,,,,,,,,0.055989583,0.131510417,1,0,0,response1disk,31,0.006510417,0.014322917,1,0,0,center_square,0,30,30,51,1,,,,,,,,,,,,,,,,,,,,,,,
454008,001,2022-11-20_17h53.23.364,Info_measure_main_exp,2022.2.2,Win32,59.9268892,,,,,,,,,,,,,,,,,,masks/mask_005.jpg,,,,,,,,,,,,,,,,,,,,,,,,,,,,,,,,,,,,,,,,,,,0,0,0,4,1,,,,,,,,,,,,,,,,,,,,,,,,,,,,,,,,,,,,,,,,,,,,,,
454008,001,2022-11-20_17h53.23.364,Info_measure_main_exp,2022.2.2,Win32,59.9268892,,,,,,,,,,,,,,,,,,masks/mask_004.jpg,,,,,,,,,,,,,,,,,,,,,,,,,,,,,,,,,,,,,,,,,,,0,1,1,3,1,,,,,,,,,,,,,,,,,,,,,,,,,,,,,,,,,,,,,,,,,,,,,,
454008,001,2022-11-20_17h53.23.364,Info_measure_main_exp,2022.2.2,Win32,59.9268892,,,,,,,,,,,,,,,,,,masks/mask_002.jpg,,,,,,,,,,,,,,,,,,,,,,,,,,,,,,,,,,,,,,,,,,,0,2,2,1,1,,,,,,,,,,,,,,,,,,,,,,,,,,,,,,,,,,,,,,,,,,,,,,
454008,001,2022-11-20_17h53.23.364,Info_measure_main_exp,2022.2.2,Win32,59.9268892,,,,,,,,,,,,,,,,,,masks/mask_003.jpg,,,,,,,,,,,,,,,,,,,,,,,,,,,,,,,,,,,,,,,,,,,0,3,3,2,1,,,,,,,,,,,,,,,,,,,,,,,,,,,,,,,,,,,,,,,,,,,,,,
454008,001,2022-11-20_17h53.23.364,Info_measure_main_exp,2022.2.2,Win32,59.9268892,,,,,,,,,,,,,,,,,,masks/mask_001.jpg,,,,,,,,,,,,,,,,,,,,,,,,,,,,,,,,,,,,,,,,,,,0,4,4,0,1,,,,,,,,,,,,,,,,,,,,,,,,,,,,,,,,,,,,,,,,,,,,,,
454008,001,2022-11-20_17h53.23.364,Info_measure_main_exp,2022.2.2,Win32,59.9268892,,,,,,,,,,,,,,,,,,masks/mask_005.jpg,,,,,,,,,,,,,,,,,,,,,,,,,,,,,,,,,,,,,,,,,,,,,,,,0,0,0,4,1,,,,,,,,,,,,,,,,,,,,,,,,,,,,,,,,,,,,,,,,,
454008,001,2022-11-20_17h53.23.364,Info_measure_main_exp,2022.2.2,Win32,59.9268892,,,,,,,,,,,,,,,,,,masks/mask_003.jpg,,,,,,,,,,,,,,,,,,,,,,,,,,,,,,,,,,,,,,,,,,,,,,,,0,1,1,2,1,,,,,,,,,,,,,,,,,,,,,,,,,,,,,,,,,,,,,,,,,
454008,001,2022-11-20_17h53.23.364,Info_measure_main_exp,2022.2.2,Win32,59.9268892,,,,,,,,,,,,,,,,,,masks/mask_002.jpg,,,,,,,,,,,,,,,,,,,,,,,,,,,,,,,,,,,,,,,,,,,,,,,,0,2,2,1,1,,,,,,,,,,,,,,,,,,,,,,,,,,,,,,,,,,,,,,,,,
454008,001,2022-11-20_17h53.23.364,Info_measure_main_exp,2022.2.2,Win32,59.9268892,,,,,,,,,,,,,,,,,,masks/mask_004.jpg,,,,,,,,,,,,,,,,,,,,,,,,,,,,,,,,,,,,,,,,,,,,,,,,0,3,3,3,1,,,,,,,,,,,,,,,,,,,,,,,,,,,,,,,,,,,,,,,,,
454008,001,2022-11-20_17h53.23.364,Info_measure_main_exp,2022.2.2,Win32,59.9268892,,,,,,,,,,,,,,,,,,masks/mask_001.jpg,,,,,,,,,,,,,,,,,,,,,,,,,,,,,,,,,,,,,,,,,,,,,,,,0,4,4,0,1,,,,,,,,,,,,,,,,,,,,,,,,,,,,,,,,,,,,,,,,,
454008,001,2022-11-20_17h53.23.364,Info_measure_main_exp,2022.2.2,Win32,59.9268892,,,,,,,,,,,,,,,,,,,,,,,,,,,,,,7,0.8408,1,,,,,,,,,,,,1,131,5,5,1,2178,present_patch/cong_131_5_a.jpg,absent_patch/patch0002178.jpg,,,,,,,,,,,,,,,,,,,,0.067708333,0.110677083,1,0,0,response1disk,32,0.001302083,-0.001302083,1,0,0,center_square,0,31,31,40,1,,,,,,,,,,,,,,,,,,,,,,,
454008,001,2022-11-20_17h53.23.364,Info_measure_main_exp,2022.2.2,Win32,59.9268892,,,,,,,,,,,,,,,,,,masks/mask_005.jpg,,,,,,,,,,,,,,,,,,,,,,,,,,,,,,,,,,,,,,,,,,,0,0,0,4,1,,,,,,,,,,,,,,,,,,,,,,,,,,,,,,,,,,,,,,,,,,,,,,
454008,001,2022-11-20_17h53.23.364,Info_measure_main_exp,2022.2.2,Win32,59.9268892,,,,,,,,,,,,,,,,,,masks/mask_003.jpg,,,,,,,,,,,,,,,,,,,,,,,,,,,,,,,,,,,,,,,,,,,0,1,1,2,1,,,,,,,,,,,,,,,,,,,,,,,,,,,,,,,,,,,,,,,,,,,,,,
454008,001,2022-11-20_17h53.23.364,Info_measure_main_exp,2022.2.2,Win32,59.9268892,,,,,,,,,,,,,,,,,,masks/mask_004.jpg,,,,,,,,,,,,,,,,,,,,,,,,,,,,,,,,,,,,,,,,,,,0,2,2,3,1,,,,,,,,,,,,,,,,,,,,,,,,,,,,,,,,,,,,,,,,,,,,,,
454008,001,2022-11-20_17h53.23.364,Info_measure_main_exp,2022.2.2,Win32,59.9268892,,,,,,,,,,,,,,,,,,masks/mask_002.jpg,,,,,,,,,,,,,,,,,,,,,,,,,,,,,,,,,,,,,,,,,,,0,3,3,1,1,,,,,,,,,,,,,,,,,,,,,,,,,,,,,,,,,,,,,,,,,,,,,,
454008,001,2022-11-20_17h53.23.364,Info_measure_main_exp,2022.2.2,Win32,59.9268892,,,,,,,,,,,,,,,,,,masks/mask_001.jpg,,,,,,,,,,,,,,,,,,,,,,,,,,,,,,,,,,,,,,,,,,,0,4,4,0,1,,,,,,,,,,,,,,,,,,,,,,,,,,,,,,,,,,,,,,,,,,,,,,
454008,001,2022-11-20_17h53.23.364,Info_measure_main_exp,2022.2.2,Win32,59.9268892,,,,,,,,,,,,,,,,,,masks/mask_003.jpg,,,,,,,,,,,,,,,,,,,,,,,,,,,,,,,,,,,,,,,,,,,,,,,,0,0,0,2,1,,,,,,,,,,,,,,,,,,,,,,,,,,,,,,,,,,,,,,,,,
454008,001,2022-11-20_17h53.23.364,Info_measure_main_exp,2022.2.2,Win32,59.9268892,,,,,,,,,,,,,,,,,,masks/mask_005.jpg,,,,,,,,,,,,,,,,,,,,,,,,,,,,,,,,,,,,,,,,,,,,,,,,0,1,1,4,1,,,,,,,,,,,,,,,,,,,,,,,,,,,,,,,,,,,,,,,,,
454008,001,2022-11-20_17h53.23.364,Info_measure_main_exp,2022.2.2,Win32,59.9268892,,,,,,,,,,,,,,,,,,masks/mask_004.jpg,,,,,,,,,,,,,,,,,,,,,,,,,,,,,,,,,,,,,,,,,,,,,,,,0,2,2,3,1,,,,,,,,,,,,,,,,,,,,,,,,,,,,,,,,,,,,,,,,,
454008,001,2022-11-20_17h53.23.364,Info_measure_main_exp,2022.2.2,Win32,59.9268892,,,,,,,,,,,,,,,,,,masks/mask_001.jpg,,,,,,,,,,,,,,,,,,,,,,,,,,,,,,,,,,,,,,,,,,,,,,,,0,3,3,0,1,,,,,,,,,,,,,,,,,,,,,,,,,,,,,,,,,,,,,,,,,
454008,001,2022-11-20_17h53.23.364,Info_measure_main_exp,2022.2.2,Win32,59.9268892,,,,,,,,,,,,,,,,,,masks/mask_002.jpg,,,,,,,,,,,,,,,,,,,,,,,,,,,,,,,,,,,,,,,,,,,,,,,,0,4,4,1,1,,,,,,,,,,,,,,,,,,,,,,,,,,,,,,,,,,,,,,,,,
454008,001,2022-11-20_17h53.23.364,Info_measure_main_exp,2022.2.2,Win32,59.9268892,,,,,,,,,,,,,,,,,,,,,,,,,,,,,,7,1.3572,1,,,,,,,,,,,,0,131,5,5,1974,2250,absent_patch/patch0001974.jpg,absent_patch/patch0002250.jpg,,,,,,,,,,,,,,,,,,,,0.06640625,0.140625,1,0,0,response1disk,33,-0.006510417,-0.01171875,1,0,0,center_square,0,32,32,55,1,,,,,,,,,,,,,,,,,,,,,,,
454008,001,2022-11-20_17h53.23.364,Info_measure_main_exp,2022.2.2,Win32,59.9268892,,,,,,,,,,,,,,,,,,masks/mask_005.jpg,,,,,,,,,,,,,,,,,,,,,,,,,,,,,,,,,,,,,,,,,,,0,0,0,4,1,,,,,,,,,,,,,,,,,,,,,,,,,,,,,,,,,,,,,,,,,,,,,,
454008,001,2022-11-20_17h53.23.364,Info_measure_main_exp,2022.2.2,Win32,59.9268892,,,,,,,,,,,,,,,,,,masks/mask_003.jpg,,,,,,,,,,,,,,,,,,,,,,,,,,,,,,,,,,,,,,,,,,,0,1,1,2,1,,,,,,,,,,,,,,,,,,,,,,,,,,,,,,,,,,,,,,,,,,,,,,
454008,001,2022-11-20_17h53.23.364,Info_measure_main_exp,2022.2.2,Win32,59.9268892,,,,,,,,,,,,,,,,,,masks/mask_002.jpg,,,,,,,,,,,,,,,,,,,,,,,,,,,,,,,,,,,,,,,,,,,0,2,2,1,1,,,,,,,,,,,,,,,,,,,,,,,,,,,,,,,,,,,,,,,,,,,,,,
454008,001,2022-11-20_17h53.23.364,Info_measure_main_exp,2022.2.2,Win32,59.9268892,,,,,,,,,,,,,,,,,,masks/mask_004.jpg,,,,,,,,,,,,,,,,,,,,,,,,,,,,,,,,,,,,,,,,,,,0,3,3,3,1,,,,,,,,,,,,,,,,,,,,,,,,,,,,,,,,,,,,,,,,,,,,,,
454008,001,2022-11-20_17h53.23.364,Info_measure_main_exp,2022.2.2,Win32,59.9268892,,,,,,,,,,,,,,,,,,masks/mask_001.jpg,,,,,,,,,,,,,,,,,,,,,,,,,,,,,,,,,,,,,,,,,,,0,4,4,0,1,,,,,,,,,,,,,,,,,,,,,,,,,,,,,,,,,,,,,,,,,,,,,,
454008,001,2022-11-20_17h53.23.364,Info_measure_main_exp,2022.2.2,Win32,59.9268892,,,,,,,,,,,,,,,,,,masks/mask_002.jpg,,,,,,,,,,,,,,,,,,,,,,,,,,,,,,,,,,,,,,,,,,,,,,,,0,0,0,1,1,,,,,,,,,,,,,,,,,,,,,,,,,,,,,,,,,,,,,,,,,
454008,001,2022-11-20_17h53.23.364,Info_measure_main_exp,2022.2.2,Win32,59.9268892,,,,,,,,,,,,,,,,,,masks/mask_001.jpg,,,,,,,,,,,,,,,,,,,,,,,,,,,,,,,,,,,,,,,,,,,,,,,,0,1,1,0,1,,,,,,,,,,,,,,,,,,,,,,,,,,,,,,,,,,,,,,,,,
454008,001,2022-11-20_17h53.23.364,Info_measure_main_exp,2022.2.2,Win32,59.9268892,,,,,,,,,,,,,,,,,,masks/mask_005.jpg,,,,,,,,,,,,,,,,,,,,,,,,,,,,,,,,,,,,,,,,,,,,,,,,0,2,2,4,1,,,,,,,,,,,,,,,,,,,,,,,,,,,,,,,,,,,,,,,,,
454008,001,2022-11-20_17h53.23.364,Info_measure_main_exp,2022.2.2,Win32,59.9268892,,,,,,,,,,,,,,,,,,masks/mask_004.jpg,,,,,,,,,,,,,,,,,,,,,,,,,,,,,,,,,,,,,,,,,,,,,,,,0,3,3,3,1,,,,,,,,,,,,,,,,,,,,,,,,,,,,,,,,,,,,,,,,,
454008,001,2022-11-20_17h53.23.364,Info_measure_main_exp,2022.2.2,Win32,59.9268892,,,,,,,,,,,,,,,,,,masks/mask_003.jpg,,,,,,,,,,,,,,,,,,,,,,,,,,,,,,,,,,,,,,,,,,,,,,,,0,4,4,2,1,,,,,,,,,,,,,,,,,,,,,,,,,,,,,,,,,,,,,,,,,
454008,001,2022-11-20_17h53.23.364,Info_measure_main_exp,2022.2.2,Win32,59.9268892,,,,,,,,,,,,,,,,,,,,,,,,,,,,,,7,0.7049,1,,,,,,,,,,,,0,131,5,5,2250,2166,absent_patch/patch0002250.jpg,absent_patch/patch0002166.jpg,,,,,,,,,,,,,,,,,,,,0.069010417,0.135416667,1,0,0,response1disk,34,0.0078125,0.009114583,1,0,0,center_square,0,33,33,60,1,,,,,,,,,,,,,,,,,,,,,,,
454008,001,2022-11-20_17h53.23.364,Info_measure_main_exp,2022.2.2,Win32,59.9268892,,,,,,,,,,,,,,,,,,masks/mask_001.jpg,,,,,,,,,,,,,,,,,,,,,,,,,,,,,,,,,,,,,,,,,,,0,0,0,0,1,,,,,,,,,,,,,,,,,,,,,,,,,,,,,,,,,,,,,,,,,,,,,,
454008,001,2022-11-20_17h53.23.364,Info_measure_main_exp,2022.2.2,Win32,59.9268892,,,,,,,,,,,,,,,,,,masks/mask_005.jpg,,,,,,,,,,,,,,,,,,,,,,,,,,,,,,,,,,,,,,,,,,,0,1,1,4,1,,,,,,,,,,,,,,,,,,,,,,,,,,,,,,,,,,,,,,,,,,,,,,
454008,001,2022-11-20_17h53.23.364,Info_measure_main_exp,2022.2.2,Win32,59.9268892,,,,,,,,,,,,,,,,,,masks/mask_004.jpg,,,,,,,,,,,,,,,,,,,,,,,,,,,,,,,,,,,,,,,,,,,0,2,2,3,1,,,,,,,,,,,,,,,,,,,,,,,,,,,,,,,,,,,,,,,,,,,,,,
454008,001,2022-11-20_17h53.23.364,Info_measure_main_exp,2022.2.2,Win32,59.9268892,,,,,,,,,,,,,,,,,,masks/mask_002.jpg,,,,,,,,,,,,,,,,,,,,,,,,,,,,,,,,,,,,,,,,,,,0,3,3,1,1,,,,,,,,,,,,,,,,,,,,,,,,,,,,,,,,,,,,,,,,,,,,,,
454008,001,2022-11-20_17h53.23.364,Info_measure_main_exp,2022.2.2,Win32,59.9268892,,,,,,,,,,,,,,,,,,masks/mask_003.jpg,,,,,,,,,,,,,,,,,,,,,,,,,,,,,,,,,,,,,,,,,,,0,4,4,2,1,,,,,,,,,,,,,,,,,,,,,,,,,,,,,,,,,,,,,,,,,,,,,,
454008,001,2022-11-20_17h53.23.364,Info_measure_main_exp,2022.2.2,Win32,59.9268892,,,,,,,,,,,,,,,,,,masks/mask_004.jpg,,,,,,,,,,,,,,,,,,,,,,,,,,,,,,,,,,,,,,,,,,,,,,,,0,0,0,3,1,,,,,,,,,,,,,,,,,,,,,,,,,,,,,,,,,,,,,,,,,
454008,001,2022-11-20_17h53.23.364,Info_measure_main_exp,2022.2.2,Win32,59.9268892,,,,,,,,,,,,,,,,,,masks/mask_002.jpg,,,,,,,,,,,,,,,,,,,,,,,,,,,,,,,,,,,,,,,,,,,,,,,,0,1,1,1,1,,,,,,,,,,,,,,,,,,,,,,,,,,,,,,,,,,,,,,,,,
454008,001,2022-11-20_17h53.23.364,Info_measure_main_exp,2022.2.2,Win32,59.9268892,,,,,,,,,,,,,,,,,,masks/mask_001.jpg,,,,,,,,,,,,,,,,,,,,,,,,,,,,,,,,,,,,,,,,,,,,,,,,0,2,2,0,1,,,,,,,,,,,,,,,,,,,,,,,,,,,,,,,,,,,,,,,,,
454008,001,2022-11-20_17h53.23.364,Info_measure_main_exp,2022.2.2,Win32,59.9268892,,,,,,,,,,,,,,,,,,masks/mask_005.jpg,,,,,,,,,,,,,,,,,,,,,,,,,,,,,,,,,,,,,,,,,,,,,,,,0,3,3,4,1,,,,,,,,,,,,,,,,,,,,,,,,,,,,,,,,,,,,,,,,,
454008,001,2022-11-20_17h53.23.364,Info_measure_main_exp,2022.2.2,Win32,59.9268892,,,,,,,,,,,,,,,,,,masks/mask_003.jpg,,,,,,,,,,,,,,,,,,,,,,,,,,,,,,,,,,,,,,,,,,,,,,,,0,4,4,2,1,,,,,,,,,,,,,,,,,,,,,,,,,,,,,,,,,,,,,,,,,
454008,001,2022-11-20_17h53.23.364,Info_measure_main_exp,2022.2.2,Win32,59.9268892,,,,,,,,,,,,,,,,,,,,,,,,,,,,,,7,1.0141,1,,,,,,,,,,,,0,131,5,5,1950,2082,absent_patch/patch0001950.jpg,absent_patch/patch0002082.jpg,,,,,,,,,,,,,,,,,,,,0.044270833,0.169270833,1,0,0,response1disk,35,-0.001302083,0,1,0,0,center_square,0,34,34,12,1,,,,,,,,,,,,,,,,,,,,,,,
