participant,session,date,expName,psychopyVersion,OS,frameRate,space_press_continue.keys,space_press_continue.rt,space_press_continue_2.keys,space_press_continue_2.rt,space_press_continue_3.keys,space_press_continue_3.rt,space_press_continue_4.keys,space_press_continue_4.rt,space_press_continue_5.keys,space_press_continue_5.rt,space_press_continue_6.keys,space_press_continue_6.rt,prac_mask_loop_1.thisRepN,prac_mask_loop_1.thisTrialN,prac_mask_loop_1.thisN,prac_mask_loop_1.thisIndex,prac_mask_loop_1.ran,mask_name,prac_mask_loop_2.thisRepN,prac_mask_loop_2.thisTrialN,prac_mask_loop_2.thisN,prac_mask_loop_2.thisIndex,prac_mask_loop_2.ran,mouse_2.x,mouse_2.y,mouse_2.leftButton,mouse_2.midButton,mouse_2.rightButton,mouse_2.clicked_name,similarity,response_time,Pass,mouse_12.x,mouse_12.y,mouse_12.leftButton,mouse_12.midButton,mouse_12.rightButton,mouse_12.clicked_name,prac_loop.thisRepN,prac_loop.thisTrialN,prac_loop.thisN,prac_loop.thisIndex,prac_loop.ran,Pair_type,Image_num,Patch_1_loc,Patch_2_loc,Patch_1_info,Patch_2_info,Patch_1_name,Patch_2_name,mouse_1.x,mouse_1.y,mouse_1.leftButton,mouse_1.midButton,mouse_1.rightButton,mouse_1.time,mouse_1.clicked_name,space_press_continue_7.keys,space_press_continue_7.rt,mask_loop.thisRepN,mask_loop.thisTrialN,mask_loop.thisN,mask_loop.thisIndex,mask_loop.ran,mask_loop_2.thisRepN,mask_loop_2.thisTrialN,mask_loop_2.thisN,mask_loop_2.thisIndex,mask_loop_2.ran,mouse.x,mouse.y,mouse.leftButton,mouse.midButton,mouse.rightButton,mouse.clicked_name,trialNumber,mouse_11.x,mouse_11.y,mouse_11.leftButton,mouse_11.midButton,mouse_11.rightButton,mouse_11.clicked_name,first_pass_loop.thisRepN,first_pass_loop.thisTrialN,first_pass_loop.thisN,first_pass_loop.thisIndex,first_pass_loop.ran,mask_loop_3.thisRepN,mask_loop_3.thisTrialN,mask_loop_3.thisN,mask_loop_3.thisIndex,mask_loop_3.ran,mask_loop_4.thisRepN,mask_loop_4.thisTrialN,mask_loop_4.thisN,mask_loop_4.thisIndex,mask_loop_4.ran,mouse_3.x,mouse_3.y,mouse_3.leftButton,mouse_3.midButton,mouse_3.rightButton,mouse_3.clicked_name,double_pass_loop.thisRepN,double_pass_loop.thisTrialN,double_pass_loop.thisN,double_pass_loop.thisIndex,double_pass_loop.ran,space_exit.keys,space_exit.rt
456510,001,2022-11-21_01h11.56.817,Info_measure_main_exp,2022.2.2,Win32,144.092219,,,,,,,,,,,,,,,,,,,,,,,,,,,,,,,,,,,,,,,,,,,,,,,,,,,,,,,,,,,,,,,,,,,,,,,,,,,,,,,,,,,,,,,,,,,,,,,,,,,,,,,,,,,,,,,
456510,001,2022-11-21_01h11.56.817,Info_measure_main_exp,2022.2.2,Win32,144.092219,,,,,,,,,,,,,,,,,,,,,,,,,,,,,,,,,,,,,,,,,,,,,,,,,,,,,,,,,,,,,,,,,,,,,,,,,,,,,,,,,,,,,,,,,,,,,,,,,,,,,,,,,,,,,,,
456510,001,2022-11-21_01h11.56.817,Info_measure_main_exp,2022.2.2,Win32,144.092219,space,8.64,,,,,,,,,,,,,,,,,,,,,,,,,,,,,,,,,,,,,,,,,,,,,,,,,,,,,,,,,,,,,,,,,,,,,,,,,,,,,,,,,,,,,,,,,,,,,,,,,,,,,,,,,,,,,
456510,001,2022-11-21_01h11.56.817,Info_measure_main_exp,2022.2.2,Win32,144.092219,,,space,0.97,,,,,,,,,,,,,,,,,,,,,,,,,,,,,,,,,,,,,,,,,,,,,,,,,,,,,,,,,,,,,,,,,,,,,,,,,,,,,,,,,,,,,,,,,,,,,,,,,,,,,,,,,,,
456510,001,2022-11-21_01h11.56.817,Info_measure_main_exp,2022.2.2,Win32,144.092219,,,,,space,0.381,,,,,,,,,,,,,,,,,,,,,,,,,,,,,,,,,,,,,,,,,,,,,,,,,,,,,,,,,,,,,,,,,,,,,,,,,,,,,,,,,,,,,,,,,,,,,,,,,,,,,,,,,
456510,001,2022-11-21_01h11.56.817,Info_measure_main_exp,2022.2.2,Win32,144.092219,,,,,,,space,0.467,,,,,,,,,,,,,,,,,,,,,,,,,,,,,,,,,,,,,,,,,,,,,,,,,,,,,,,,,,,,,,,,,,,,,,,,,,,,,,,,,,,,,,,,,,,,,,,,,,,,,,,
456510,001,2022-11-21_01h11.56.817,Info_measure_main_exp,2022.2.2,Win32,144.092219,,,,,,,,,space,0.648,,,,,,,,,,,,,,,,,,,,,,,,,,,,,,,,,,,,,,,,,,,,,,,,,,,,,,,,,,,,,,,,,,,,,,,,,,,,,,,,,,,,,,,,,,,,,,,,,,,,,
456510,001,2022-11-21_01h11.56.817,Info_measure_main_exp,2022.2.2,Win32,144.092219,,,,,,,,,,,space,0.507,,,,,,,,,,,,,,,,,,,,,,,,,,,,,,,,,,,,,,,,,,,,,,,,,,,,,,,,,,,,,,,,,,,,,,,,,,,,,,,,,,,,,,,,,,,,,,,,,,,
456510,001,2022-11-21_01h11.56.817,Info_measure_main_exp,2022.2.2,Win32,144.092219,,,,,,,,,,,,,0,0,0,0,1,masks/mask_001.jpg,,,,,,,,,,,,,,,,,,,,,,,,,,,,,,,,,,,,,,,,,,,,,,,,,,,,,,,,,,,,,,,,,,,,,,,,,,,,,,,,,,,,,,,,,,,,,
456510,001,2022-11-21_01h11.56.817,Info_measure_main_exp,2022.2.2,Win32,144.092219,,,,,,,,,,,,,0,1,1,3,1,masks/mask_004.jpg,,,,,,,,,,,,,,,,,,,,,,,,,,,,,,,,,,,,,,,,,,,,,,,,,,,,,,,,,,,,,,,,,,,,,,,,,,,,,,,,,,,,,,,,,,,,,
456510,001,2022-11-21_01h11.56.817,Info_measure_main_exp,2022.2.2,Win32,144.092219,,,,,,,,,,,,,0,2,2,2,1,masks/mask_003.jpg,,,,,,,,,,,,,,,,,,,,,,,,,,,,,,,,,,,,,,,,,,,,,,,,,,,,,,,,,,,,,,,,,,,,,,,,,,,,,,,,,,,,,,,,,,,,,
456510,001,2022-11-21_01h11.56.817,Info_measure_main_exp,2022.2.2,Win32,144.092219,,,,,,,,,,,,,0,3,3,1,1,masks/mask_002.jpg,,,,,,,,,,,,,,,,,,,,,,,,,,,,,,,,,,,,,,,,,,,,,,,,,,,,,,,,,,,,,,,,,,,,,,,,,,,,,,,,,,,,,,,,,,,,,
456510,001,2022-11-21_01h11.56.817,Info_measure_main_exp,2022.2.2,Win32,144.092219,,,,,,,,,,,,,0,4,4,4,1,masks/mask_005.jpg,,,,,,,,,,,,,,,,,,,,,,,,,,,,,,,,,,,,,,,,,,,,,,,,,,,,,,,,,,,,,,,,,,,,,,,,,,,,,,,,,,,,,,,,,,,,,
456510,001,2022-11-21_01h11.56.817,Info_measure_main_exp,2022.2.2,Win32,144.092219,,,,,,,,,,,,,,,,,,masks/mask_002.jpg,0,0,0,1,1,,,,,,,,,,,,,,,,,,,,,,,,,,,,,,,,,,,,,,,,,,,,,,,,,,,,,,,,,,,,,,,,,,,,,,,,,,,,,,,,,,,,,,,,
456510,001,2022-11-21_01h11.56.817,Info_measure_main_exp,2022.2.2,Win32,144.092219,,,,,,,,,,,,,,,,,,masks/mask_004.jpg,0,1,1,3,1,,,,,,,,,,,,,,,,,,,,,,,,,,,,,,,,,,,,,,,,,,,,,,,,,,,,,,,,,,,,,,,,,,,,,,,,,,,,,,,,,,,,,,,,
456510,001,2022-11-21_01h11.56.817,Info_measure_main_exp,2022.2.2,Win32,144.092219,,,,,,,,,,,,,,,,,,masks/mask_003.jpg,0,2,2,2,1,,,,,,,,,,,,,,,,,,,,,,,,,,,,,,,,,,,,,,,,,,,,,,,,,,,,,,,,,,,,,,,,,,,,,,,,,,,,,,,,,,,,,,,,
456510,001,2022-11-21_01h11.56.817,Info_measure_main_exp,2022.2.2,Win32,144.092219,,,,,,,,,,,,,,,,,,masks/mask_005.jpg,0,3,3,4,1,,,,,,,,,,,,,,,,,,,,,,,,,,,,,,,,,,,,,,,,,,,,,,,,,,,,,,,,,,,,,,,,,,,,,,,,,,,,,,,,,,,,,,,,
456510,001,2022-11-21_01h11.56.817,Info_measure_main_exp,2022.2.2,Win32,144.092219,,,,,,,,,,,,,,,,,,masks/mask_001.jpg,0,4,4,0,1,,,,,,,,,,,,,,,,,,,,,,,,,,,,,,,,,,,,,,,,,,,,,,,,,,,,,,,,,,,,,,,,,,,,,,,,,,,,,,,,,,,,,,,,
456510,001,2022-11-21_01h11.56.817,Info_measure_main_exp,2022.2.2,Win32,144.092219,,,,,,,,,,,,,,,,,,,,,,,,0.065740741,0.190740741,1,0,0,response1disk,7,15.498,1,0.006481481,-0.001851852,1,0,0,center_square,0,0,0,1,1,0,131,5,5,2514,2490,prac_patch/patch0002514.jpg,prac_patch/patch0002490.jpg,,,,,,,,,,,,,,,,,,,,,,,,,,,,,,,,,,,,,,,,,,,,,,,,,,,,,,,,,,,,
456510,001,2022-11-21_01h11.56.817,Info_measure_main_exp,2022.2.2,Win32,144.092219,,,,,,,,,,,,,0,0,0,0,1,masks/mask_001.jpg,,,,,,,,,,,,,,,,,,,,,,,,,,,,,,,,,,,,,,,,,,,,,,,,,,,,,,,,,,,,,,,,,,,,,,,,,,,,,,,,,,,,,,,,,,,,,
456510,001,2022-11-21_01h11.56.817,Info_measure_main_exp,2022.2.2,Win32,144.092219,,,,,,,,,,,,,0,1,1,3,1,masks/mask_004.jpg,,,,,,,,,,,,,,,,,,,,,,,,,,,,,,,,,,,,,,,,,,,,,,,,,,,,,,,,,,,,,,,,,,,,,,,,,,,,,,,,,,,,,,,,,,,,,
456510,001,2022-11-21_01h11.56.817,Info_measure_main_exp,2022.2.2,Win32,144.092219,,,,,,,,,,,,,0,2,2,2,1,masks/mask_003.jpg,,,,,,,,,,,,,,,,,,,,,,,,,,,,,,,,,,,,,,,,,,,,,,,,,,,,,,,,,,,,,,,,,,,,,,,,,,,,,,,,,,,,,,,,,,,,,
456510,001,2022-11-21_01h11.56.817,Info_measure_main_exp,2022.2.2,Win32,144.092219,,,,,,,,,,,,,0,3,3,4,1,masks/mask_005.jpg,,,,,,,,,,,,,,,,,,,,,,,,,,,,,,,,,,,,,,,,,,,,,,,,,,,,,,,,,,,,,,,,,,,,,,,,,,,,,,,,,,,,,,,,,,,,,
456510,001,2022-11-21_01h11.56.817,Info_measure_main_exp,2022.2.2,Win32,144.092219,,,,,,,,,,,,,0,4,4,1,1,masks/mask_002.jpg,,,,,,,,,,,,,,,,,,,,,,,,,,,,,,,,,,,,,,,,,,,,,,,,,,,,,,,,,,,,,,,,,,,,,,,,,,,,,,,,,,,,,,,,,,,,,
456510,001,2022-11-21_01h11.56.817,Info_measure_main_exp,2022.2.2,Win32,144.092219,,,,,,,,,,,,,,,,,,masks/mask_002.jpg,0,0,0,1,1,,,,,,,,,,,,,,,,,,,,,,,,,,,,,,,,,,,,,,,,,,,,,,,,,,,,,,,,,,,,,,,,,,,,,,,,,,,,,,,,,,,,,,,,
456510,001,2022-11-21_01h11.56.817,Info_measure_main_exp,2022.2.2,Win32,144.092219,,,,,,,,,,,,,,,,,,masks/mask_005.jpg,0,1,1,4,1,,,,,,,,,,,,,,,,,,,,,,,,,,,,,,,,,,,,,,,,,,,,,,,,,,,,,,,,,,,,,,,,,,,,,,,,,,,,,,,,,,,,,,,,
456510,001,2022-11-21_01h11.56.817,Info_measure_main_exp,2022.2.2,Win32,144.092219,,,,,,,,,,,,,,,,,,masks/mask_001.jpg,0,2,2,0,1,,,,,,,,,,,,,,,,,,,,,,,,,,,,,,,,,,,,,,,,,,,,,,,,,,,,,,,,,,,,,,,,,,,,,,,,,,,,,,,,,,,,,,,,
456510,001,2022-11-21_01h11.56.817,Info_measure_main_exp,2022.2.2,Win32,144.092219,,,,,,,,,,,,,,,,,,masks/mask_003.jpg,0,3,3,2,1,,,,,,,,,,,,,,,,,,,,,,,,,,,,,,,,,,,,,,,,,,,,,,,,,,,,,,,,,,,,,,,,,,,,,,,,,,,,,,,,,,,,,,,,
456510,001,2022-11-21_01h11.56.817,Info_measure_main_exp,2022.2.2,Win32,144.092219,,,,,,,,,,,,,,,,,,masks/mask_004.jpg,0,4,4,3,1,,,,,,,,,,,,,,,,,,,,,,,,,,,,,,,,,,,,,,,,,,,,,,,,,,,,,,,,,,,,,,,,,,,,,,,,,,,,,,,,,,,,,,,,
456510,001,2022-11-21_01h11.56.817,Info_measure_main_exp,2022.2.2,Win32,144.092219,,,,,,,,,,,,,,,,,,,,,,,,0.07962963,0.178703704,1,0,0,response1disk,7,23.968,1,-0.000925926,0.010185185,1,0,0,center_square,0,1,1,0,1,0,131,5,5,2370,2406,prac_patch/patch0002370.jpg,prac_patch/patch0002406.jpg,,,,,,,,,,,,,,,,,,,,,,,,,,,,,,,,,,,,,,,,,,,,,,,,,,,,,,,,,,,,
456510,001,2022-11-21_01h11.56.817,Info_measure_main_exp,2022.2.2,Win32,144.092219,,,,,,,,,,,,,0,0,0,2,1,masks/mask_003.jpg,,,,,,,,,,,,,,,,,,,,,,,,,,,,,,,,,,,,,,,,,,,,,,,,,,,,,,,,,,,,,,,,,,,,,,,,,,,,,,,,,,,,,,,,,,,,,
456510,001,2022-11-21_01h11.56.817,Info_measure_main_exp,2022.2.2,Win32,144.092219,,,,,,,,,,,,,0,1,1,0,1,masks/mask_001.jpg,,,,,,,,,,,,,,,,,,,,,,,,,,,,,,,,,,,,,,,,,,,,,,,,,,,,,,,,,,,,,,,,,,,,,,,,,,,,,,,,,,,,,,,,,,,,,
456510,001,2022-11-21_01h11.56.817,Info_measure_main_exp,2022.2.2,Win32,144.092219,,,,,,,,,,,,,0,2,2,4,1,masks/mask_005.jpg,,,,,,,,,,,,,,,,,,,,,,,,,,,,,,,,,,,,,,,,,,,,,,,,,,,,,,,,,,,,,,,,,,,,,,,,,,,,,,,,,,,,,,,,,,,,,
456510,001,2022-11-21_01h11.56.817,Info_measure_main_exp,2022.2.2,Win32,144.092219,,,,,,,,,,,,,0,3,3,3,1,masks/mask_004.jpg,,,,,,,,,,,,,,,,,,,,,,,,,,,,,,,,,,,,,,,,,,,,,,,,,,,,,,,,,,,,,,,,,,,,,,,,,,,,,,,,,,,,,,,,,,,,,
456510,001,2022-11-21_01h11.56.817,Info_measure_main_exp,2022.2.2,Win32,144.092219,,,,,,,,,,,,,0,4,4,1,1,masks/mask_002.jpg,,,,,,,,,,,,,,,,,,,,,,,,,,,,,,,,,,,,,,,,,,,,,,,,,,,,,,,,,,,,,,,,,,,,,,,,,,,,,,,,,,,,,,,,,,,,,
456510,001,2022-11-21_01h11.56.817,Info_measure_main_exp,2022.2.2,Win32,144.092219,,,,,,,,,,,,,,,,,,masks/mask_005.jpg,0,0,0,4,1,,,,,,,,,,,,,,,,,,,,,,,,,,,,,,,,,,,,,,,,,,,,,,,,,,,,,,,,,,,,,,,,,,,,,,,,,,,,,,,,,,,,,,,,
456510,001,2022-11-21_01h11.56.817,Info_measure_main_exp,2022.2.2,Win32,144.092219,,,,,,,,,,,,,,,,,,masks/mask_001.jpg,0,1,1,0,1,,,,,,,,,,,,,,,,,,,,,,,,,,,,,,,,,,,,,,,,,,,,,,,,,,,,,,,,,,,,,,,,,,,,,,,,,,,,,,,,,,,,,,,,
456510,001,2022-11-21_01h11.56.817,Info_measure_main_exp,2022.2.2,Win32,144.092219,,,,,,,,,,,,,,,,,,masks/mask_004.jpg,0,2,2,3,1,,,,,,,,,,,,,,,,,,,,,,,,,,,,,,,,,,,,,,,,,,,,,,,,,,,,,,,,,,,,,,,,,,,,,,,,,,,,,,,,,,,,,,,,
456510,001,2022-11-21_01h11.56.817,Info_measure_main_exp,2022.2.2,Win32,144.092219,,,,,,,,,,,,,,,,,,masks/mask_003.jpg,0,3,3,2,1,,,,,,,,,,,,,,,,,,,,,,,,,,,,,,,,,,,,,,,,,,,,,,,,,,,,,,,,,,,,,,,,,,,,,,,,,,,,,,,,,,,,,,,,
456510,001,2022-11-21_01h11.56.817,Info_measure_main_exp,2022.2.2,Win32,144.092219,,,,,,,,,,,,,,,,,,masks/mask_002.jpg,0,4,4,1,1,,,,,,,,,,,,,,,,,,,,,,,,,,,,,,,,,,,,,,,,,,,,,,,,,,,,,,,,,,,,,,,,,,,,,,,,,,,,,,,,,,,,,,,,
456510,001,2022-11-21_01h11.56.817,Info_measure_main_exp,2022.2.2,Win32,144.092219,,,,,,,,,,,,,,,,,,,,,,,,-0.07962963,0.157407407,1,0,0,response7disk,0,30.319,1,0.00462963,0.010185185,1,0,0,center_square,0,2,2,2,1,0,131,5,5,2526,2526,prac_patch/patch0002526.jpg,prac_patch/patch0002526.jpg,,,,,,,,,,,,,,,,,,,,,,,,,,,,,,,,,,,,,,,,,,,,,,,,,,,,,,,,,,,,
456510,001,2022-11-21_01h11.56.817,Info_measure_main_exp,2022.2.2,Win32,144.092219,,,,,,,,,,,,,,,,,,,,,,,,,,,,,,,,,,,,,,,,,,,,,,,,,,,,,,,,,,,space,1.124,,,,,,,,,,,,,,,,,,,,,,,,,,,,,,,,,,,,,,,,,,,,,,,,,,,
456510,001,2022-11-21_01h11.56.817,Info_measure_main_exp,2022.2.2,Win32,144.092219,,,,,,,,,,,,,,,,,,masks/mask_003.jpg,,,,,,,,,,,,,,,,,,,,,,,,,,,,,,,,,,,,,,,,,,,0,0,0,2,1,,,,,,,,,,,,,,,,,,,,,,,,,,,,,,,,,,,,,,,,,,,,,,
456510,001,2022-11-21_01h11.56.817,Info_measure_main_exp,2022.2.2,Win32,144.092219,,,,,,,,,,,,,,,,,,masks/mask_004.jpg,,,,,,,,,,,,,,,,,,,,,,,,,,,,,,,,,,,,,,,,,,,0,1,1,3,1,,,,,,,,,,,,,,,,,,,,,,,,,,,,,,,,,,,,,,,,,,,,,,
456510,001,2022-11-21_01h11.56.817,Info_measure_main_exp,2022.2.2,Win32,144.092219,,,,,,,,,,,,,,,,,,masks/mask_005.jpg,,,,,,,,,,,,,,,,,,,,,,,,,,,,,,,,,,,,,,,,,,,0,2,2,4,1,,,,,,,,,,,,,,,,,,,,,,,,,,,,,,,,,,,,,,,,,,,,,,
456510,001,2022-11-21_01h11.56.817,Info_measure_main_exp,2022.2.2,Win32,144.092219,,,,,,,,,,,,,,,,,,masks/mask_002.jpg,,,,,,,,,,,,,,,,,,,,,,,,,,,,,,,,,,,,,,,,,,,0,3,3,1,1,,,,,,,,,,,,,,,,,,,,,,,,,,,,,,,,,,,,,,,,,,,,,,
456510,001,2022-11-21_01h11.56.817,Info_measure_main_exp,2022.2.2,Win32,144.092219,,,,,,,,,,,,,,,,,,masks/mask_001.jpg,,,,,,,,,,,,,,,,,,,,,,,,,,,,,,,,,,,,,,,,,,,0,4,4,0,1,,,,,,,,,,,,,,,,,,,,,,,,,,,,,,,,,,,,,,,,,,,,,,
456510,001,2022-11-21_01h11.56.817,Info_measure_main_exp,2022.2.2,Win32,144.092219,,,,,,,,,,,,,,,,,,masks/mask_004.jpg,,,,,,,,,,,,,,,,,,,,,,,,,,,,,,,,,,,,,,,,,,,,,,,,0,0,0,3,1,,,,,,,,,,,,,,,,,,,,,,,,,,,,,,,,,,,,,,,,,
456510,001,2022-11-21_01h11.56.817,Info_measure_main_exp,2022.2.2,Win32,144.092219,,,,,,,,,,,,,,,,,,masks/mask_002.jpg,,,,,,,,,,,,,,,,,,,,,,,,,,,,,,,,,,,,,,,,,,,,,,,,0,1,1,1,1,,,,,,,,,,,,,,,,,,,,,,,,,,,,,,,,,,,,,,,,,
456510,001,2022-11-21_01h11.56.817,Info_measure_main_exp,2022.2.2,Win32,144.092219,,,,,,,,,,,,,,,,,,masks/mask_003.jpg,,,,,,,,,,,,,,,,,,,,,,,,,,,,,,,,,,,,,,,,,,,,,,,,0,2,2,2,1,,,,,,,,,,,,,,,,,,,,,,,,,,,,,,,,,,,,,,,,,
456510,001,2022-11-21_01h11.56.817,Info_measure_main_exp,2022.2.2,Win32,144.092219,,,,,,,,,,,,,,,,,,masks/mask_005.jpg,,,,,,,,,,,,,,,,,,,,,,,,,,,,,,,,,,,,,,,,,,,,,,,,0,3,3,4,1,,,,,,,,,,,,,,,,,,,,,,,,,,,,,,,,,,,,,,,,,
456510,001,2022-11-21_01h11.56.817,Info_measure_main_exp,2022.2.2,Win32,144.092219,,,,,,,,,,,,,,,,,,masks/mask_001.jpg,,,,,,,,,,,,,,,,,,,,,,,,,,,,,,,,,,,,,,,,,,,,,,,,0,4,4,0,1,,,,,,,,,,,,,,,,,,,,,,,,,,,,,,,,,,,,,,,,,
456510,001,2022-11-21_01h11.56.817,Info_measure_main_exp,2022.2.2,Win32,144.092219,,,,,,,,,,,,,,,,,,,,,,,,,,,,,,2,0.98,1,,,,,,,,,,,,1,131,5,5,1,1986,present_patch/cong_131_5_a.jpg,absent_patch/patch0001986.jpg,,,,,,,,,,,,,,,,,,,,-0.128703704,-0.047222222,1,0,0,response5disk,1,-0.006481481,0.000925926,1,0,0,center_square,0,0,0,106,1,,,,,,,,,,,,,,,,,,,,,,,
456510,001,2022-11-21_01h11.56.817,Info_measure_main_exp,2022.2.2,Win32,144.092219,,,,,,,,,,,,,,,,,,masks/mask_002.jpg,,,,,,,,,,,,,,,,,,,,,,,,,,,,,,,,,,,,,,,,,,,0,0,0,1,1,,,,,,,,,,,,,,,,,,,,,,,,,,,,,,,,,,,,,,,,,,,,,,
456510,001,2022-11-21_01h11.56.817,Info_measure_main_exp,2022.2.2,Win32,144.092219,,,,,,,,,,,,,,,,,,masks/mask_003.jpg,,,,,,,,,,,,,,,,,,,,,,,,,,,,,,,,,,,,,,,,,,,0,1,1,2,1,,,,,,,,,,,,,,,,,,,,,,,,,,,,,,,,,,,,,,,,,,,,,,
456510,001,2022-11-21_01h11.56.817,Info_measure_main_exp,2022.2.2,Win32,144.092219,,,,,,,,,,,,,,,,,,masks/mask_001.jpg,,,,,,,,,,,,,,,,,,,,,,,,,,,,,,,,,,,,,,,,,,,0,2,2,0,1,,,,,,,,,,,,,,,,,,,,,,,,,,,,,,,,,,,,,,,,,,,,,,
456510,001,2022-11-21_01h11.56.817,Info_measure_main_exp,2022.2.2,Win32,144.092219,,,,,,,,,,,,,,,,,,masks/mask_004.jpg,,,,,,,,,,,,,,,,,,,,,,,,,,,,,,,,,,,,,,,,,,,0,3,3,3,1,,,,,,,,,,,,,,,,,,,,,,,,,,,,,,,,,,,,,,,,,,,,,,
456510,001,2022-11-21_01h11.56.817,Info_measure_main_exp,2022.2.2,Win32,144.092219,,,,,,,,,,,,,,,,,,masks/mask_005.jpg,,,,,,,,,,,,,,,,,,,,,,,,,,,,,,,,,,,,,,,,,,,0,4,4,4,1,,,,,,,,,,,,,,,,,,,,,,,,,,,,,,,,,,,,,,,,,,,,,,
456510,001,2022-11-21_01h11.56.817,Info_measure_main_exp,2022.2.2,Win32,144.092219,,,,,,,,,,,,,,,,,,masks/mask_005.jpg,,,,,,,,,,,,,,,,,,,,,,,,,,,,,,,,,,,,,,,,,,,,,,,,0,0,0,4,1,,,,,,,,,,,,,,,,,,,,,,,,,,,,,,,,,,,,,,,,,
456510,001,2022-11-21_01h11.56.817,Info_measure_main_exp,2022.2.2,Win32,144.092219,,,,,,,,,,,,,,,,,,masks/mask_001.jpg,,,,,,,,,,,,,,,,,,,,,,,,,,,,,,,,,,,,,,,,,,,,,,,,0,1,1,0,1,,,,,,,,,,,,,,,,,,,,,,,,,,,,,,,,,,,,,,,,,
456510,001,2022-11-21_01h11.56.817,Info_measure_main_exp,2022.2.2,Win32,144.092219,,,,,,,,,,,,,,,,,,masks/mask_002.jpg,,,,,,,,,,,,,,,,,,,,,,,,,,,,,,,,,,,,,,,,,,,,,,,,0,2,2,1,1,,,,,,,,,,,,,,,,,,,,,,,,,,,,,,,,,,,,,,,,,
456510,001,2022-11-21_01h11.56.817,Info_measure_main_exp,2022.2.2,Win32,144.092219,,,,,,,,,,,,,,,,,,masks/mask_003.jpg,,,,,,,,,,,,,,,,,,,,,,,,,,,,,,,,,,,,,,,,,,,,,,,,0,3,3,2,1,,,,,,,,,,,,,,,,,,,,,,,,,,,,,,,,,,,,,,,,,
456510,001,2022-11-21_01h11.56.817,Info_measure_main_exp,2022.2.2,Win32,144.092219,,,,,,,,,,,,,,,,,,masks/mask_004.jpg,,,,,,,,,,,,,,,,,,,,,,,,,,,,,,,,,,,,,,,,,,,,,,,,0,4,4,3,1,,,,,,,,,,,,,,,,,,,,,,,,,,,,,,,,,,,,,,,,,
456510,001,2022-11-21_01h11.56.817,Info_measure_main_exp,2022.2.2,Win32,144.092219,,,,,,,,,,,,,,,,,,,,,,,,,,,,,,7,0.361,1,,,,,,,,,,,,0,131,5,5,1974,2250,absent_patch/patch0001974.jpg,absent_patch/patch0002250.jpg,,,,,,,,,,,,,,,,,,,,0.043518519,0.132407407,1,0,0,response1disk,2,0.002777778,0.00462963,1,0,0,center_square,0,1,1,55,1,,,,,,,,,,,,,,,,,,,,,,,
456510,001,2022-11-21_01h11.56.817,Info_measure_main_exp,2022.2.2,Win32,144.092219,,,,,,,,,,,,,,,,,,masks/mask_004.jpg,,,,,,,,,,,,,,,,,,,,,,,,,,,,,,,,,,,,,,,,,,,0,0,0,3,1,,,,,,,,,,,,,,,,,,,,,,,,,,,,,,,,,,,,,,,,,,,,,,
456510,001,2022-11-21_01h11.56.817,Info_measure_main_exp,2022.2.2,Win32,144.092219,,,,,,,,,,,,,,,,,,masks/mask_003.jpg,,,,,,,,,,,,,,,,,,,,,,,,,,,,,,,,,,,,,,,,,,,0,1,1,2,1,,,,,,,,,,,,,,,,,,,,,,,,,,,,,,,,,,,,,,,,,,,,,,
456510,001,2022-11-21_01h11.56.817,Info_measure_main_exp,2022.2.2,Win32,144.092219,,,,,,,,,,,,,,,,,,masks/mask_002.jpg,,,,,,,,,,,,,,,,,,,,,,,,,,,,,,,,,,,,,,,,,,,0,2,2,1,1,,,,,,,,,,,,,,,,,,,,,,,,,,,,,,,,,,,,,,,,,,,,,,
456510,001,2022-11-21_01h11.56.817,Info_measure_main_exp,2022.2.2,Win32,144.092219,,,,,,,,,,,,,,,,,,masks/mask_001.jpg,,,,,,,,,,,,,,,,,,,,,,,,,,,,,,,,,,,,,,,,,,,0,3,3,0,1,,,,,,,,,,,,,,,,,,,,,,,,,,,,,,,,,,,,,,,,,,,,,,
456510,001,2022-11-21_01h11.56.817,Info_measure_main_exp,2022.2.2,Win32,144.092219,,,,,,,,,,,,,,,,,,masks/mask_005.jpg,,,,,,,,,,,,,,,,,,,,,,,,,,,,,,,,,,,,,,,,,,,0,4,4,4,1,,,,,,,,,,,,,,,,,,,,,,,,,,,,,,,,,,,,,,,,,,,,,,
456510,001,2022-11-21_01h11.56.817,Info_measure_main_exp,2022.2.2,Win32,144.092219,,,,,,,,,,,,,,,,,,masks/mask_005.jpg,,,,,,,,,,,,,,,,,,,,,,,,,,,,,,,,,,,,,,,,,,,,,,,,0,0,0,4,1,,,,,,,,,,,,,,,,,,,,,,,,,,,,,,,,,,,,,,,,,
456510,001,2022-11-21_01h11.56.817,Info_measure_main_exp,2022.2.2,Win32,144.092219,,,,,,,,,,,,,,,,,,masks/mask_003.jpg,,,,,,,,,,,,,,,,,,,,,,,,,,,,,,,,,,,,,,,,,,,,,,,,0,1,1,2,1,,,,,,,,,,,,,,,,,,,,,,,,,,,,,,,,,,,,,,,,,
456510,001,2022-11-21_01h11.56.817,Info_measure_main_exp,2022.2.2,Win32,144.092219,,,,,,,,,,,,,,,,,,masks/mask_002.jpg,,,,,,,,,,,,,,,,,,,,,,,,,,,,,,,,,,,,,,,,,,,,,,,,0,2,2,1,1,,,,,,,,,,,,,,,,,,,,,,,,,,,,,,,,,,,,,,,,,
456510,001,2022-11-21_01h11.56.817,Info_measure_main_exp,2022.2.2,Win32,144.092219,,,,,,,,,,,,,,,,,,masks/mask_004.jpg,,,,,,,,,,,,,,,,,,,,,,,,,,,,,,,,,,,,,,,,,,,,,,,,0,3,3,3,1,,,,,,,,,,,,,,,,,,,,,,,,,,,,,,,,,,,,,,,,,
456510,001,2022-11-21_01h11.56.817,Info_measure_main_exp,2022.2.2,Win32,144.092219,,,,,,,,,,,,,,,,,,masks/mask_001.jpg,,,,,,,,,,,,,,,,,,,,,,,,,,,,,,,,,,,,,,,,,,,,,,,,0,4,4,0,1,,,,,,,,,,,,,,,,,,,,,,,,,,,,,,,,,,,,,,,,,
456510,001,2022-11-21_01h11.56.817,Info_measure_main_exp,2022.2.2,Win32,144.092219,,,,,,,,,,,,,,,,,,,,,,,,,,,,,,7,0.965,1,,,,,,,,,,,,0,131,5,5,2274,2154,absent_patch/patch0002274.jpg,absent_patch/patch0002154.jpg,,,,,,,,,,,,,,,,,,,,0.055555556,0.110185185,1,0,0,response1disk,3,-0.002777778,-0.003703704,1,0,0,center_square,0,2,2,23,1,,,,,,,,,,,,,,,,,,,,,,,
456510,001,2022-11-21_01h11.56.817,Info_measure_main_exp,2022.2.2,Win32,144.092219,,,,,,,,,,,,,,,,,,masks/mask_004.jpg,,,,,,,,,,,,,,,,,,,,,,,,,,,,,,,,,,,,,,,,,,,0,0,0,3,1,,,,,,,,,,,,,,,,,,,,,,,,,,,,,,,,,,,,,,,,,,,,,,
456510,001,2022-11-21_01h11.56.817,Info_measure_main_exp,2022.2.2,Win32,144.092219,,,,,,,,,,,,,,,,,,masks/mask_005.jpg,,,,,,,,,,,,,,,,,,,,,,,,,,,,,,,,,,,,,,,,,,,0,1,1,4,1,,,,,,,,,,,,,,,,,,,,,,,,,,,,,,,,,,,,,,,,,,,,,,
456510,001,2022-11-21_01h11.56.817,Info_measure_main_exp,2022.2.2,Win32,144.092219,,,,,,,,,,,,,,,,,,masks/mask_003.jpg,,,,,,,,,,,,,,,,,,,,,,,,,,,,,,,,,,,,,,,,,,,0,2,2,2,1,,,,,,,,,,,,,,,,,,,,,,,,,,,,,,,,,,,,,,,,,,,,,,
456510,001,2022-11-21_01h11.56.817,Info_measure_main_exp,2022.2.2,Win32,144.092219,,,,,,,,,,,,,,,,,,masks/mask_001.jpg,,,,,,,,,,,,,,,,,,,,,,,,,,,,,,,,,,,,,,,,,,,0,3,3,0,1,,,,,,,,,,,,,,,,,,,,,,,,,,,,,,,,,,,,,,,,,,,,,,
456510,001,2022-11-21_01h11.56.817,Info_measure_main_exp,2022.2.2,Win32,144.092219,,,,,,,,,,,,,,,,,,masks/mask_002.jpg,,,,,,,,,,,,,,,,,,,,,,,,,,,,,,,,,,,,,,,,,,,0,4,4,1,1,,,,,,,,,,,,,,,,,,,,,,,,,,,,,,,,,,,,,,,,,,,,,,
456510,001,2022-11-21_01h11.56.817,Info_measure_main_exp,2022.2.2,Win32,144.092219,,,,,,,,,,,,,,,,,,masks/mask_004.jpg,,,,,,,,,,,,,,,,,,,,,,,,,,,,,,,,,,,,,,,,,,,,,,,,0,0,0,3,1,,,,,,,,,,,,,,,,,,,,,,,,,,,,,,,,,,,,,,,,,
456510,001,2022-11-21_01h11.56.817,Info_measure_main_exp,2022.2.2,Win32,144.092219,,,,,,,,,,,,,,,,,,masks/mask_002.jpg,,,,,,,,,,,,,,,,,,,,,,,,,,,,,,,,,,,,,,,,,,,,,,,,0,1,1,1,1,,,,,,,,,,,,,,,,,,,,,,,,,,,,,,,,,,,,,,,,,
456510,001,2022-11-21_01h11.56.817,Info_measure_main_exp,2022.2.2,Win32,144.092219,,,,,,,,,,,,,,,,,,masks/mask_003.jpg,,,,,,,,,,,,,,,,,,,,,,,,,,,,,,,,,,,,,,,,,,,,,,,,0,2,2,2,1,,,,,,,,,,,,,,,,,,,,,,,,,,,,,,,,,,,,,,,,,
456510,001,2022-11-21_01h11.56.817,Info_measure_main_exp,2022.2.2,Win32,144.092219,,,,,,,,,,,,,,,,,,masks/mask_005.jpg,,,,,,,,,,,,,,,,,,,,,,,,,,,,,,,,,,,,,,,,,,,,,,,,0,3,3,4,1,,,,,,,,,,,,,,,,,,,,,,,,,,,,,,,,,,,,,,,,,
456510,001,2022-11-21_01h11.56.817,Info_measure_main_exp,2022.2.2,Win32,144.092219,,,,,,,,,,,,,,,,,,masks/mask_001.jpg,,,,,,,,,,,,,,,,,,,,,,,,,,,,,,,,,,,,,,,,,,,,,,,,0,4,4,0,1,,,,,,,,,,,,,,,,,,,,,,,,,,,,,,,,,,,,,,,,,
456510,001,2022-11-21_01h11.56.817,Info_measure_main_exp,2022.2.2,Win32,144.092219,,,,,,,,,,,,,,,,,,,,,,,,,,,,,,4,0.639,1,,,,,,,,,,,,0,131,5,5,1986,2238,absent_patch/patch0001986.jpg,absent_patch/patch0002238.jpg,,,,,,,,,,,,,,,,,,,,0.043518519,-0.096296296,1,0,0,response3disk,4,0.002777778,0.001851852,1,0,0,center_square,0,3,3,31,1,,,,,,,,,,,,,,,,,,,,,,,
456510,001,2022-11-21_01h11.56.817,Info_measure_main_exp,2022.2.2,Win32,144.092219,,,,,,,,,,,,,,,,,,masks/mask_005.jpg,,,,,,,,,,,,,,,,,,,,,,,,,,,,,,,,,,,,,,,,,,,0,0,0,4,1,,,,,,,,,,,,,,,,,,,,,,,,,,,,,,,,,,,,,,,,,,,,,,
456510,001,2022-11-21_01h11.56.817,Info_measure_main_exp,2022.2.2,Win32,144.092219,,,,,,,,,,,,,,,,,,masks/mask_003.jpg,,,,,,,,,,,,,,,,,,,,,,,,,,,,,,,,,,,,,,,,,,,0,1,1,2,1,,,,,,,,,,,,,,,,,,,,,,,,,,,,,,,,,,,,,,,,,,,,,,
456510,001,2022-11-21_01h11.56.817,Info_measure_main_exp,2022.2.2,Win32,144.092219,,,,,,,,,,,,,,,,,,masks/mask_004.jpg,,,,,,,,,,,,,,,,,,,,,,,,,,,,,,,,,,,,,,,,,,,0,2,2,3,1,,,,,,,,,,,,,,,,,,,,,,,,,,,,,,,,,,,,,,,,,,,,,,
456510,001,2022-11-21_01h11.56.817,Info_measure_main_exp,2022.2.2,Win32,144.092219,,,,,,,,,,,,,,,,,,masks/mask_001.jpg,,,,,,,,,,,,,,,,,,,,,,,,,,,,,,,,,,,,,,,,,,,0,3,3,0,1,,,,,,,,,,,,,,,,,,,,,,,,,,,,,,,,,,,,,,,,,,,,,,
456510,001,2022-11-21_01h11.56.817,Info_measure_main_exp,2022.2.2,Win32,144.092219,,,,,,,,,,,,,,,,,,masks/mask_002.jpg,,,,,,,,,,,,,,,,,,,,,,,,,,,,,,,,,,,,,,,,,,,0,4,4,1,1,,,,,,,,,,,,,,,,,,,,,,,,,,,,,,,,,,,,,,,,,,,,,,
456510,001,2022-11-21_01h11.56.817,Info_measure_main_exp,2022.2.2,Win32,144.092219,,,,,,,,,,,,,,,,,,masks/mask_004.jpg,,,,,,,,,,,,,,,,,,,,,,,,,,,,,,,,,,,,,,,,,,,,,,,,0,0,0,3,1,,,,,,,,,,,,,,,,,,,,,,,,,,,,,,,,,,,,,,,,,
456510,001,2022-11-21_01h11.56.817,Info_measure_main_exp,2022.2.2,Win32,144.092219,,,,,,,,,,,,,,,,,,masks/mask_003.jpg,,,,,,,,,,,,,,,,,,,,,,,,,,,,,,,,,,,,,,,,,,,,,,,,0,1,1,2,1,,,,,,,,,,,,,,,,,,,,,,,,,,,,,,,,,,,,,,,,,
456510,001,2022-11-21_01h11.56.817,Info_measure_main_exp,2022.2.2,Win32,144.092219,,,,,,,,,,,,,,,,,,masks/mask_001.jpg,,,,,,,,,,,,,,,,,,,,,,,,,,,,,,,,,,,,,,,,,,,,,,,,0,2,2,0,1,,,,,,,,,,,,,,,,,,,,,,,,,,,,,,,,,,,,,,,,,
456510,001,2022-11-21_01h11.56.817,Info_measure_main_exp,2022.2.2,Win32,144.092219,,,,,,,,,,,,,,,,,,masks/mask_005.jpg,,,,,,,,,,,,,,,,,,,,,,,,,,,,,,,,,,,,,,,,,,,,,,,,0,3,3,4,1,,,,,,,,,,,,,,,,,,,,,,,,,,,,,,,,,,,,,,,,,
456510,001,2022-11-21_01h11.56.817,Info_measure_main_exp,2022.2.2,Win32,144.092219,,,,,,,,,,,,,,,,,,masks/mask_002.jpg,,,,,,,,,,,,,,,,,,,,,,,,,,,,,,,,,,,,,,,,,,,,,,,,0,4,4,1,1,,,,,,,,,,,,,,,,,,,,,,,,,,,,,,,,,,,,,,,,,
456510,001,2022-11-21_01h11.56.817,Info_measure_main_exp,2022.2.2,Win32,144.092219,,,,,,,,,,,,,,,,,,,,,,,,,,,,,,7,0.577,1,,,,,,,,,,,,0,131,5,5,2178,2166,absent_patch/patch0002178.jpg,absent_patch/patch0002166.jpg,,,,,,,,,,,,,,,,,,,,0.052777778,0.117592593,1,0,0,response1disk,5,-0.009259259,0.007407407,1,0,0,center_square,0,4,4,72,1,,,,,,,,,,,,,,,,,,,,,,,
456510,001,2022-11-21_01h11.56.817,Info_measure_main_exp,2022.2.2,Win32,144.092219,,,,,,,,,,,,,,,,,,masks/mask_004.jpg,,,,,,,,,,,,,,,,,,,,,,,,,,,,,,,,,,,,,,,,,,,0,0,0,3,1,,,,,,,,,,,,,,,,,,,,,,,,,,,,,,,,,,,,,,,,,,,,,,
456510,001,2022-11-21_01h11.56.817,Info_measure_main_exp,2022.2.2,Win32,144.092219,,,,,,,,,,,,,,,,,,masks/mask_001.jpg,,,,,,,,,,,,,,,,,,,,,,,,,,,,,,,,,,,,,,,,,,,0,1,1,0,1,,,,,,,,,,,,,,,,,,,,,,,,,,,,,,,,,,,,,,,,,,,,,,
456510,001,2022-11-21_01h11.56.817,Info_measure_main_exp,2022.2.2,Win32,144.092219,,,,,,,,,,,,,,,,,,masks/mask_003.jpg,,,,,,,,,,,,,,,,,,,,,,,,,,,,,,,,,,,,,,,,,,,0,2,2,2,1,,,,,,,,,,,,,,,,,,,,,,,,,,,,,,,,,,,,,,,,,,,,,,
456510,001,2022-11-21_01h11.56.817,Info_measure_main_exp,2022.2.2,Win32,144.092219,,,,,,,,,,,,,,,,,,masks/mask_005.jpg,,,,,,,,,,,,,,,,,,,,,,,,,,,,,,,,,,,,,,,,,,,0,3,3,4,1,,,,,,,,,,,,,,,,,,,,,,,,,,,,,,,,,,,,,,,,,,,,,,
456510,001,2022-11-21_01h11.56.817,Info_measure_main_exp,2022.2.2,Win32,144.092219,,,,,,,,,,,,,,,,,,masks/mask_002.jpg,,,,,,,,,,,,,,,,,,,,,,,,,,,,,,,,,,,,,,,,,,,0,4,4,1,1,,,,,,,,,,,,,,,,,,,,,,,,,,,,,,,,,,,,,,,,,,,,,,
456510,001,2022-11-21_01h11.56.817,Info_measure_main_exp,2022.2.2,Win32,144.092219,,,,,,,,,,,,,,,,,,masks/mask_002.jpg,,,,,,,,,,,,,,,,,,,,,,,,,,,,,,,,,,,,,,,,,,,,,,,,0,0,0,1,1,,,,,,,,,,,,,,,,,,,,,,,,,,,,,,,,,,,,,,,,,
456510,001,2022-11-21_01h11.56.817,Info_measure_main_exp,2022.2.2,Win32,144.092219,,,,,,,,,,,,,,,,,,masks/mask_005.jpg,,,,,,,,,,,,,,,,,,,,,,,,,,,,,,,,,,,,,,,,,,,,,,,,0,1,1,4,1,,,,,,,,,,,,,,,,,,,,,,,,,,,,,,,,,,,,,,,,,
456510,001,2022-11-21_01h11.56.817,Info_measure_main_exp,2022.2.2,Win32,144.092219,,,,,,,,,,,,,,,,,,masks/mask_003.jpg,,,,,,,,,,,,,,,,,,,,,,,,,,,,,,,,,,,,,,,,,,,,,,,,0,2,2,2,1,,,,,,,,,,,,,,,,,,,,,,,,,,,,,,,,,,,,,,,,,
456510,001,2022-11-21_01h11.56.817,Info_measure_main_exp,2022.2.2,Win32,144.092219,,,,,,,,,,,,,,,,,,masks/mask_004.jpg,,,,,,,,,,,,,,,,,,,,,,,,,,,,,,,,,,,,,,,,,,,,,,,,0,3,3,3,1,,,,,,,,,,,,,,,,,,,,,,,,,,,,,,,,,,,,,,,,,
456510,001,2022-11-21_01h11.56.817,Info_measure_main_exp,2022.2.2,Win32,144.092219,,,,,,,,,,,,,,,,,,masks/mask_001.jpg,,,,,,,,,,,,,,,,,,,,,,,,,,,,,,,,,,,,,,,,,,,,,,,,0,4,4,0,1,,,,,,,,,,,,,,,,,,,,,,,,,,,,,,,,,,,,,,,,,
456510,001,2022-11-21_01h11.56.817,Info_measure_main_exp,2022.2.2,Win32,144.092219,,,,,,,,,,,,,,,,,,,,,,,,,,,,,,7,0.421,1,,,,,,,,,,,,0,131,5,5,2142,2166,absent_patch/patch0002142.jpg,absent_patch/patch0002166.jpg,,,,,,,,,,,,,,,,,,,,0.057407407,0.112037037,1,0,0,response1disk,6,0.001851852,0.003703704,1,0,0,center_square,0,5,5,66,1,,,,,,,,,,,,,,,,,,,,,,,
456510,001,2022-11-21_01h11.56.817,Info_measure_main_exp,2022.2.2,Win32,144.092219,,,,,,,,,,,,,,,,,,masks/mask_004.jpg,,,,,,,,,,,,,,,,,,,,,,,,,,,,,,,,,,,,,,,,,,,0,0,0,3,1,,,,,,,,,,,,,,,,,,,,,,,,,,,,,,,,,,,,,,,,,,,,,,
456510,001,2022-11-21_01h11.56.817,Info_measure_main_exp,2022.2.2,Win32,144.092219,,,,,,,,,,,,,,,,,,masks/mask_001.jpg,,,,,,,,,,,,,,,,,,,,,,,,,,,,,,,,,,,,,,,,,,,0,1,1,0,1,,,,,,,,,,,,,,,,,,,,,,,,,,,,,,,,,,,,,,,,,,,,,,
456510,001,2022-11-21_01h11.56.817,Info_measure_main_exp,2022.2.2,Win32,144.092219,,,,,,,,,,,,,,,,,,masks/mask_005.jpg,,,,,,,,,,,,,,,,,,,,,,,,,,,,,,,,,,,,,,,,,,,0,2,2,4,1,,,,,,,,,,,,,,,,,,,,,,,,,,,,,,,,,,,,,,,,,,,,,,
456510,001,2022-11-21_01h11.56.817,Info_measure_main_exp,2022.2.2,Win32,144.092219,,,,,,,,,,,,,,,,,,masks/mask_003.jpg,,,,,,,,,,,,,,,,,,,,,,,,,,,,,,,,,,,,,,,,,,,0,3,3,2,1,,,,,,,,,,,,,,,,,,,,,,,,,,,,,,,,,,,,,,,,,,,,,,
456510,001,2022-11-21_01h11.56.817,Info_measure_main_exp,2022.2.2,Win32,144.092219,,,,,,,,,,,,,,,,,,masks/mask_002.jpg,,,,,,,,,,,,,,,,,,,,,,,,,,,,,,,,,,,,,,,,,,,0,4,4,1,1,,,,,,,,,,,,,,,,,,,,,,,,,,,,,,,,,,,,,,,,,,,,,,
456510,001,2022-11-21_01h11.56.817,Info_measure_main_exp,2022.2.2,Win32,144.092219,,,,,,,,,,,,,,,,,,masks/mask_002.jpg,,,,,,,,,,,,,,,,,,,,,,,,,,,,,,,,,,,,,,,,,,,,,,,,0,0,0,1,1,,,,,,,,,,,,,,,,,,,,,,,,,,,,,,,,,,,,,,,,,
456510,001,2022-11-21_01h11.56.817,Info_measure_main_exp,2022.2.2,Win32,144.092219,,,,,,,,,,,,,,,,,,masks/mask_005.jpg,,,,,,,,,,,,,,,,,,,,,,,,,,,,,,,,,,,,,,,,,,,,,,,,0,1,1,4,1,,,,,,,,,,,,,,,,,,,,,,,,,,,,,,,,,,,,,,,,,
456510,001,2022-11-21_01h11.56.817,Info_measure_main_exp,2022.2.2,Win32,144.092219,,,,,,,,,,,,,,,,,,masks/mask_003.jpg,,,,,,,,,,,,,,,,,,,,,,,,,,,,,,,,,,,,,,,,,,,,,,,,0,2,2,2,1,,,,,,,,,,,,,,,,,,,,,,,,,,,,,,,,,,,,,,,,,
456510,001,2022-11-21_01h11.56.817,Info_measure_main_exp,2022.2.2,Win32,144.092219,,,,,,,,,,,,,,,,,,masks/mask_004.jpg,,,,,,,,,,,,,,,,,,,,,,,,,,,,,,,,,,,,,,,,,,,,,,,,0,3,3,3,1,,,,,,,,,,,,,,,,,,,,,,,,,,,,,,,,,,,,,,,,,
456510,001,2022-11-21_01h11.56.817,Info_measure_main_exp,2022.2.2,Win32,144.092219,,,,,,,,,,,,,,,,,,masks/mask_001.jpg,,,,,,,,,,,,,,,,,,,,,,,,,,,,,,,,,,,,,,,,,,,,,,,,0,4,4,0,1,,,,,,,,,,,,,,,,,,,,,,,,,,,,,,,,,,,,,,,,,
456510,001,2022-11-21_01h11.56.817,Info_measure_main_exp,2022.2.2,Win32,144.092219,,,,,,,,,,,,,,,,,,,,,,,,,,,,,,1,0.486,1,,,,,,,,,,,,1,131,5,5,1,2154,present_patch/cong_131_5_a.jpg,absent_patch/patch0002154.jpg,,,,,,,,,,,,,,,,,,,,-0.111111111,0.047222222,1,0,0,response7disk,7,0.015740741,-0.013888889,1,0,0,center_square,0,6,6,87,1,,,,,,,,,,,,,,,,,,,,,,,
456510,001,2022-11-21_01h11.56.817,Info_measure_main_exp,2022.2.2,Win32,144.092219,,,,,,,,,,,,,,,,,,masks/mask_005.jpg,,,,,,,,,,,,,,,,,,,,,,,,,,,,,,,,,,,,,,,,,,,0,0,0,4,1,,,,,,,,,,,,,,,,,,,,,,,,,,,,,,,,,,,,,,,,,,,,,,
456510,001,2022-11-21_01h11.56.817,Info_measure_main_exp,2022.2.2,Win32,144.092219,,,,,,,,,,,,,,,,,,masks/mask_001.jpg,,,,,,,,,,,,,,,,,,,,,,,,,,,,,,,,,,,,,,,,,,,0,1,1,0,1,,,,,,,,,,,,,,,,,,,,,,,,,,,,,,,,,,,,,,,,,,,,,,
456510,001,2022-11-21_01h11.56.817,Info_measure_main_exp,2022.2.2,Win32,144.092219,,,,,,,,,,,,,,,,,,masks/mask_004.jpg,,,,,,,,,,,,,,,,,,,,,,,,,,,,,,,,,,,,,,,,,,,0,2,2,3,1,,,,,,,,,,,,,,,,,,,,,,,,,,,,,,,,,,,,,,,,,,,,,,
456510,001,2022-11-21_01h11.56.817,Info_measure_main_exp,2022.2.2,Win32,144.092219,,,,,,,,,,,,,,,,,,masks/mask_003.jpg,,,,,,,,,,,,,,,,,,,,,,,,,,,,,,,,,,,,,,,,,,,0,3,3,2,1,,,,,,,,,,,,,,,,,,,,,,,,,,,,,,,,,,,,,,,,,,,,,,
456510,001,2022-11-21_01h11.56.817,Info_measure_main_exp,2022.2.2,Win32,144.092219,,,,,,,,,,,,,,,,,,masks/mask_002.jpg,,,,,,,,,,,,,,,,,,,,,,,,,,,,,,,,,,,,,,,,,,,0,4,4,1,1,,,,,,,,,,,,,,,,,,,,,,,,,,,,,,,,,,,,,,,,,,,,,,
456510,001,2022-11-21_01h11.56.817,Info_measure_main_exp,2022.2.2,Win32,144.092219,,,,,,,,,,,,,,,,,,masks/mask_004.jpg,,,,,,,,,,,,,,,,,,,,,,,,,,,,,,,,,,,,,,,,,,,,,,,,0,0,0,3,1,,,,,,,,,,,,,,,,,,,,,,,,,,,,,,,,,,,,,,,,,
456510,001,2022-11-21_01h11.56.817,Info_measure_main_exp,2022.2.2,Win32,144.092219,,,,,,,,,,,,,,,,,,masks/mask_003.jpg,,,,,,,,,,,,,,,,,,,,,,,,,,,,,,,,,,,,,,,,,,,,,,,,0,1,1,2,1,,,,,,,,,,,,,,,,,,,,,,,,,,,,,,,,,,,,,,,,,
456510,001,2022-11-21_01h11.56.817,Info_measure_main_exp,2022.2.2,Win32,144.092219,,,,,,,,,,,,,,,,,,masks/mask_002.jpg,,,,,,,,,,,,,,,,,,,,,,,,,,,,,,,,,,,,,,,,,,,,,,,,0,2,2,1,1,,,,,,,,,,,,,,,,,,,,,,,,,,,,,,,,,,,,,,,,,
456510,001,2022-11-21_01h11.56.817,Info_measure_main_exp,2022.2.2,Win32,144.092219,,,,,,,,,,,,,,,,,,masks/mask_005.jpg,,,,,,,,,,,,,,,,,,,,,,,,,,,,,,,,,,,,,,,,,,,,,,,,0,3,3,4,1,,,,,,,,,,,,,,,,,,,,,,,,,,,,,,,,,,,,,,,,,
456510,001,2022-11-21_01h11.56.817,Info_measure_main_exp,2022.2.2,Win32,144.092219,,,,,,,,,,,,,,,,,,masks/mask_001.jpg,,,,,,,,,,,,,,,,,,,,,,,,,,,,,,,,,,,,,,,,,,,,,,,,0,4,4,0,1,,,,,,,,,,,,,,,,,,,,,,,,,,,,,,,,,,,,,,,,,
456510,001,2022-11-21_01h11.56.817,Info_measure_main_exp,2022.2.2,Win32,144.092219,,,,,,,,,,,,,,,,,,,,,,,,,,,,,,7,0.374,1,,,,,,,,,,,,0,131,5,5,1974,2142,absent_patch/patch0001974.jpg,absent_patch/patch0002142.jpg,,,,,,,,,,,,,,,,,,,,0.023148148,0.099074074,1,0,0,response1disk,8,-0.007407407,0.007407407,1,0,0,center_square,0,7,7,38,1,,,,,,,,,,,,,,,,,,,,,,,
456510,001,2022-11-21_01h11.56.817,Info_measure_main_exp,2022.2.2,Win32,144.092219,,,,,,,,,,,,,,,,,,masks/mask_004.jpg,,,,,,,,,,,,,,,,,,,,,,,,,,,,,,,,,,,,,,,,,,,0,0,0,3,1,,,,,,,,,,,,,,,,,,,,,,,,,,,,,,,,,,,,,,,,,,,,,,
456510,001,2022-11-21_01h11.56.817,Info_measure_main_exp,2022.2.2,Win32,144.092219,,,,,,,,,,,,,,,,,,masks/mask_002.jpg,,,,,,,,,,,,,,,,,,,,,,,,,,,,,,,,,,,,,,,,,,,0,1,1,1,1,,,,,,,,,,,,,,,,,,,,,,,,,,,,,,,,,,,,,,,,,,,,,,
456510,001,2022-11-21_01h11.56.817,Info_measure_main_exp,2022.2.2,Win32,144.092219,,,,,,,,,,,,,,,,,,masks/mask_003.jpg,,,,,,,,,,,,,,,,,,,,,,,,,,,,,,,,,,,,,,,,,,,0,2,2,2,1,,,,,,,,,,,,,,,,,,,,,,,,,,,,,,,,,,,,,,,,,,,,,,
456510,001,2022-11-21_01h11.56.817,Info_measure_main_exp,2022.2.2,Win32,144.092219,,,,,,,,,,,,,,,,,,masks/mask_005.jpg,,,,,,,,,,,,,,,,,,,,,,,,,,,,,,,,,,,,,,,,,,,0,3,3,4,1,,,,,,,,,,,,,,,,,,,,,,,,,,,,,,,,,,,,,,,,,,,,,,
456510,001,2022-11-21_01h11.56.817,Info_measure_main_exp,2022.2.2,Win32,144.092219,,,,,,,,,,,,,,,,,,masks/mask_001.jpg,,,,,,,,,,,,,,,,,,,,,,,,,,,,,,,,,,,,,,,,,,,0,4,4,0,1,,,,,,,,,,,,,,,,,,,,,,,,,,,,,,,,,,,,,,,,,,,,,,
456510,001,2022-11-21_01h11.56.817,Info_measure_main_exp,2022.2.2,Win32,144.092219,,,,,,,,,,,,,,,,,,masks/mask_002.jpg,,,,,,,,,,,,,,,,,,,,,,,,,,,,,,,,,,,,,,,,,,,,,,,,0,0,0,1,1,,,,,,,,,,,,,,,,,,,,,,,,,,,,,,,,,,,,,,,,,
456510,001,2022-11-21_01h11.56.817,Info_measure_main_exp,2022.2.2,Win32,144.092219,,,,,,,,,,,,,,,,,,masks/mask_001.jpg,,,,,,,,,,,,,,,,,,,,,,,,,,,,,,,,,,,,,,,,,,,,,,,,0,1,1,0,1,,,,,,,,,,,,,,,,,,,,,,,,,,,,,,,,,,,,,,,,,
456510,001,2022-11-21_01h11.56.817,Info_measure_main_exp,2022.2.2,Win32,144.092219,,,,,,,,,,,,,,,,,,masks/mask_004.jpg,,,,,,,,,,,,,,,,,,,,,,,,,,,,,,,,,,,,,,,,,,,,,,,,0,2,2,3,1,,,,,,,,,,,,,,,,,,,,,,,,,,,,,,,,,,,,,,,,,
456510,001,2022-11-21_01h11.56.817,Info_measure_main_exp,2022.2.2,Win32,144.092219,,,,,,,,,,,,,,,,,,masks/mask_003.jpg,,,,,,,,,,,,,,,,,,,,,,,,,,,,,,,,,,,,,,,,,,,,,,,,0,3,3,2,1,,,,,,,,,,,,,,,,,,,,,,,,,,,,,,,,,,,,,,,,,
456510,001,2022-11-21_01h11.56.817,Info_measure_main_exp,2022.2.2,Win32,144.092219,,,,,,,,,,,,,,,,,,masks/mask_005.jpg,,,,,,,,,,,,,,,,,,,,,,,,,,,,,,,,,,,,,,,,,,,,,,,,0,4,4,4,1,,,,,,,,,,,,,,,,,,,,,,,,,,,,,,,,,,,,,,,,,
456510,001,2022-11-21_01h11.56.817,Info_measure_main_exp,2022.2.2,Win32,144.092219,,,,,,,,,,,,,,,,,,,,,,,,,,,,,,3,1.257,1,,,,,,,,,,,,0,131,5,5,2082,1974,absent_patch/patch0002082.jpg,absent_patch/patch0001974.jpg,,,,,,,,,,,,,,,,,,,,-0.034259259,-0.125,1,0,0,response5disk,9,-0.00462963,0.013888889,1,0,0,center_square,0,8,8,26,1,,,,,,,,,,,,,,,,,,,,,,,
456510,001,2022-11-21_01h11.56.817,Info_measure_main_exp,2022.2.2,Win32,144.092219,,,,,,,,,,,,,,,,,,masks/mask_003.jpg,,,,,,,,,,,,,,,,,,,,,,,,,,,,,,,,,,,,,,,,,,,0,0,0,2,1,,,,,,,,,,,,,,,,,,,,,,,,,,,,,,,,,,,,,,,,,,,,,,
456510,001,2022-11-21_01h11.56.817,Info_measure_main_exp,2022.2.2,Win32,144.092219,,,,,,,,,,,,,,,,,,masks/mask_004.jpg,,,,,,,,,,,,,,,,,,,,,,,,,,,,,,,,,,,,,,,,,,,0,1,1,3,1,,,,,,,,,,,,,,,,,,,,,,,,,,,,,,,,,,,,,,,,,,,,,,
456510,001,2022-11-21_01h11.56.817,Info_measure_main_exp,2022.2.2,Win32,144.092219,,,,,,,,,,,,,,,,,,masks/mask_002.jpg,,,,,,,,,,,,,,,,,,,,,,,,,,,,,,,,,,,,,,,,,,,0,2,2,1,1,,,,,,,,,,,,,,,,,,,,,,,,,,,,,,,,,,,,,,,,,,,,,,
456510,001,2022-11-21_01h11.56.817,Info_measure_main_exp,2022.2.2,Win32,144.092219,,,,,,,,,,,,,,,,,,masks/mask_005.jpg,,,,,,,,,,,,,,,,,,,,,,,,,,,,,,,,,,,,,,,,,,,0,3,3,4,1,,,,,,,,,,,,,,,,,,,,,,,,,,,,,,,,,,,,,,,,,,,,,,
456510,001,2022-11-21_01h11.56.817,Info_measure_main_exp,2022.2.2,Win32,144.092219,,,,,,,,,,,,,,,,,,masks/mask_001.jpg,,,,,,,,,,,,,,,,,,,,,,,,,,,,,,,,,,,,,,,,,,,0,4,4,0,1,,,,,,,,,,,,,,,,,,,,,,,,,,,,,,,,,,,,,,,,,,,,,,
456510,001,2022-11-21_01h11.56.817,Info_measure_main_exp,2022.2.2,Win32,144.092219,,,,,,,,,,,,,,,,,,masks/mask_004.jpg,,,,,,,,,,,,,,,,,,,,,,,,,,,,,,,,,,,,,,,,,,,,,,,,0,0,0,3,1,,,,,,,,,,,,,,,,,,,,,,,,,,,,,,,,,,,,,,,,,
456510,001,2022-11-21_01h11.56.817,Info_measure_main_exp,2022.2.2,Win32,144.092219,,,,,,,,,,,,,,,,,,masks/mask_005.jpg,,,,,,,,,,,,,,,,,,,,,,,,,,,,,,,,,,,,,,,,,,,,,,,,0,1,1,4,1,,,,,,,,,,,,,,,,,,,,,,,,,,,,,,,,,,,,,,,,,
456510,001,2022-11-21_01h11.56.817,Info_measure_main_exp,2022.2.2,Win32,144.092219,,,,,,,,,,,,,,,,,,masks/mask_002.jpg,,,,,,,,,,,,,,,,,,,,,,,,,,,,,,,,,,,,,,,,,,,,,,,,0,2,2,1,1,,,,,,,,,,,,,,,,,,,,,,,,,,,,,,,,,,,,,,,,,
456510,001,2022-11-21_01h11.56.817,Info_measure_main_exp,2022.2.2,Win32,144.092219,,,,,,,,,,,,,,,,,,masks/mask_001.jpg,,,,,,,,,,,,,,,,,,,,,,,,,,,,,,,,,,,,,,,,,,,,,,,,0,3,3,0,1,,,,,,,,,,,,,,,,,,,,,,,,,,,,,,,,,,,,,,,,,
456510,001,2022-11-21_01h11.56.817,Info_measure_main_exp,2022.2.2,Win32,144.092219,,,,,,,,,,,,,,,,,,masks/mask_003.jpg,,,,,,,,,,,,,,,,,,,,,,,,,,,,,,,,,,,,,,,,,,,,,,,,0,4,4,2,1,,,,,,,,,,,,,,,,,,,,,,,,,,,,,,,,,,,,,,,,,
456510,001,2022-11-21_01h11.56.817,Info_measure_main_exp,2022.2.2,Win32,144.092219,,,,,,,,,,,,,,,,,,,,,,,,,,,,,,7,0.43,1,,,,,,,,,,,,0,131,5,5,2250,2178,absent_patch/patch0002250.jpg,absent_patch/patch0002178.jpg,,,,,,,,,,,,,,,,,,,,0.037962963,0.084259259,1,0,0,response1disk,10,0.00462963,-0.002777778,1,0,0,center_square,0,9,9,48,1,,,,,,,,,,,,,,,,,,,,,,,
456510,001,2022-11-21_01h11.56.817,Info_measure_main_exp,2022.2.2,Win32,144.092219,,,,,,,,,,,,,,,,,,masks/mask_001.jpg,,,,,,,,,,,,,,,,,,,,,,,,,,,,,,,,,,,,,,,,,,,0,0,0,0,1,,,,,,,,,,,,,,,,,,,,,,,,,,,,,,,,,,,,,,,,,,,,,,
456510,001,2022-11-21_01h11.56.817,Info_measure_main_exp,2022.2.2,Win32,144.092219,,,,,,,,,,,,,,,,,,masks/mask_004.jpg,,,,,,,,,,,,,,,,,,,,,,,,,,,,,,,,,,,,,,,,,,,0,1,1,3,1,,,,,,,,,,,,,,,,,,,,,,,,,,,,,,,,,,,,,,,,,,,,,,
456510,001,2022-11-21_01h11.56.817,Info_measure_main_exp,2022.2.2,Win32,144.092219,,,,,,,,,,,,,,,,,,masks/mask_003.jpg,,,,,,,,,,,,,,,,,,,,,,,,,,,,,,,,,,,,,,,,,,,0,2,2,2,1,,,,,,,,,,,,,,,,,,,,,,,,,,,,,,,,,,,,,,,,,,,,,,
456510,001,2022-11-21_01h11.56.817,Info_measure_main_exp,2022.2.2,Win32,144.092219,,,,,,,,,,,,,,,,,,masks/mask_002.jpg,,,,,,,,,,,,,,,,,,,,,,,,,,,,,,,,,,,,,,,,,,,0,3,3,1,1,,,,,,,,,,,,,,,,,,,,,,,,,,,,,,,,,,,,,,,,,,,,,,
456510,001,2022-11-21_01h11.56.817,Info_measure_main_exp,2022.2.2,Win32,144.092219,,,,,,,,,,,,,,,,,,masks/mask_005.jpg,,,,,,,,,,,,,,,,,,,,,,,,,,,,,,,,,,,,,,,,,,,0,4,4,4,1,,,,,,,,,,,,,,,,,,,,,,,,,,,,,,,,,,,,,,,,,,,,,,
456510,001,2022-11-21_01h11.56.817,Info_measure_main_exp,2022.2.2,Win32,144.092219,,,,,,,,,,,,,,,,,,masks/mask_002.jpg,,,,,,,,,,,,,,,,,,,,,,,,,,,,,,,,,,,,,,,,,,,,,,,,0,0,0,1,1,,,,,,,,,,,,,,,,,,,,,,,,,,,,,,,,,,,,,,,,,
456510,001,2022-11-21_01h11.56.817,Info_measure_main_exp,2022.2.2,Win32,144.092219,,,,,,,,,,,,,,,,,,masks/mask_005.jpg,,,,,,,,,,,,,,,,,,,,,,,,,,,,,,,,,,,,,,,,,,,,,,,,0,1,1,4,1,,,,,,,,,,,,,,,,,,,,,,,,,,,,,,,,,,,,,,,,,
456510,001,2022-11-21_01h11.56.817,Info_measure_main_exp,2022.2.2,Win32,144.092219,,,,,,,,,,,,,,,,,,masks/mask_001.jpg,,,,,,,,,,,,,,,,,,,,,,,,,,,,,,,,,,,,,,,,,,,,,,,,0,2,2,0,1,,,,,,,,,,,,,,,,,,,,,,,,,,,,,,,,,,,,,,,,,
456510,001,2022-11-21_01h11.56.817,Info_measure_main_exp,2022.2.2,Win32,144.092219,,,,,,,,,,,,,,,,,,masks/mask_004.jpg,,,,,,,,,,,,,,,,,,,,,,,,,,,,,,,,,,,,,,,,,,,,,,,,0,3,3,3,1,,,,,,,,,,,,,,,,,,,,,,,,,,,,,,,,,,,,,,,,,
456510,001,2022-11-21_01h11.56.817,Info_measure_main_exp,2022.2.2,Win32,144.092219,,,,,,,,,,,,,,,,,,masks/mask_003.jpg,,,,,,,,,,,,,,,,,,,,,,,,,,,,,,,,,,,,,,,,,,,,,,,,0,4,4,2,1,,,,,,,,,,,,,,,,,,,,,,,,,,,,,,,,,,,,,,,,,
456510,001,2022-11-21_01h11.56.817,Info_measure_main_exp,2022.2.2,Win32,144.092219,,,,,,,,,,,,,,,,,,,,,,,,,,,,,,7,0.292,1,,,,,,,,,,,,0,131,5,5,1950,2082,absent_patch/patch0001950.jpg,absent_patch/patch0002082.jpg,,,,,,,,,,,,,,,,,,,,0.025,0.106481481,1,0,0,response1disk,11,-0.000925926,0.009259259,1,0,0,center_square,0,10,10,12,1,,,,,,,,,,,,,,,,,,,,,,,
456510,001,2022-11-21_01h11.56.817,Info_measure_main_exp,2022.2.2,Win32,144.092219,,,,,,,,,,,,,,,,,,masks/mask_005.jpg,,,,,,,,,,,,,,,,,,,,,,,,,,,,,,,,,,,,,,,,,,,0,0,0,4,1,,,,,,,,,,,,,,,,,,,,,,,,,,,,,,,,,,,,,,,,,,,,,,
456510,001,2022-11-21_01h11.56.817,Info_measure_main_exp,2022.2.2,Win32,144.092219,,,,,,,,,,,,,,,,,,masks/mask_002.jpg,,,,,,,,,,,,,,,,,,,,,,,,,,,,,,,,,,,,,,,,,,,0,1,1,1,1,,,,,,,,,,,,,,,,,,,,,,,,,,,,,,,,,,,,,,,,,,,,,,
456510,001,2022-11-21_01h11.56.817,Info_measure_main_exp,2022.2.2,Win32,144.092219,,,,,,,,,,,,,,,,,,masks/mask_003.jpg,,,,,,,,,,,,,,,,,,,,,,,,,,,,,,,,,,,,,,,,,,,0,2,2,2,1,,,,,,,,,,,,,,,,,,,,,,,,,,,,,,,,,,,,,,,,,,,,,,
456510,001,2022-11-21_01h11.56.817,Info_measure_main_exp,2022.2.2,Win32,144.092219,,,,,,,,,,,,,,,,,,masks/mask_004.jpg,,,,,,,,,,,,,,,,,,,,,,,,,,,,,,,,,,,,,,,,,,,0,3,3,3,1,,,,,,,,,,,,,,,,,,,,,,,,,,,,,,,,,,,,,,,,,,,,,,
456510,001,2022-11-21_01h11.56.817,Info_measure_main_exp,2022.2.2,Win32,144.092219,,,,,,,,,,,,,,,,,,masks/mask_001.jpg,,,,,,,,,,,,,,,,,,,,,,,,,,,,,,,,,,,,,,,,,,,0,4,4,0,1,,,,,,,,,,,,,,,,,,,,,,,,,,,,,,,,,,,,,,,,,,,,,,
456510,001,2022-11-21_01h11.56.817,Info_measure_main_exp,2022.2.2,Win32,144.092219,,,,,,,,,,,,,,,,,,masks/mask_005.jpg,,,,,,,,,,,,,,,,,,,,,,,,,,,,,,,,,,,,,,,,,,,,,,,,0,0,0,4,1,,,,,,,,,,,,,,,,,,,,,,,,,,,,,,,,,,,,,,,,,
456510,001,2022-11-21_01h11.56.817,Info_measure_main_exp,2022.2.2,Win32,144.092219,,,,,,,,,,,,,,,,,,masks/mask_004.jpg,,,,,,,,,,,,,,,,,,,,,,,,,,,,,,,,,,,,,,,,,,,,,,,,0,1,1,3,1,,,,,,,,,,,,,,,,,,,,,,,,,,,,,,,,,,,,,,,,,
456510,001,2022-11-21_01h11.56.817,Info_measure_main_exp,2022.2.2,Win32,144.092219,,,,,,,,,,,,,,,,,,masks/mask_001.jpg,,,,,,,,,,,,,,,,,,,,,,,,,,,,,,,,,,,,,,,,,,,,,,,,0,2,2,0,1,,,,,,,,,,,,,,,,,,,,,,,,,,,,,,,,,,,,,,,,,
456510,001,2022-11-21_01h11.56.817,Info_measure_main_exp,2022.2.2,Win32,144.092219,,,,,,,,,,,,,,,,,,masks/mask_002.jpg,,,,,,,,,,,,,,,,,,,,,,,,,,,,,,,,,,,,,,,,,,,,,,,,0,3,3,1,1,,,,,,,,,,,,,,,,,,,,,,,,,,,,,,,,,,,,,,,,,
456510,001,2022-11-21_01h11.56.817,Info_measure_main_exp,2022.2.2,Win32,144.092219,,,,,,,,,,,,,,,,,,masks/mask_003.jpg,,,,,,,,,,,,,,,,,,,,,,,,,,,,,,,,,,,,,,,,,,,,,,,,0,4,4,2,1,,,,,,,,,,,,,,,,,,,,,,,,,,,,,,,,,,,,,,,,,
456510,001,2022-11-21_01h11.56.817,Info_measure_main_exp,2022.2.2,Win32,144.092219,,,,,,,,,,,,,,,,,,,,,,,,,,,,,,7,0.354,1,,,,,,,,,,,,0,131,5,5,2190,2238,absent_patch/patch0002190.jpg,absent_patch/patch0002238.jpg,,,,,,,,,,,,,,,,,,,,0.060185185,0.135185185,1,0,0,response1disk,12,0.012962963,0.006481481,1,0,0,center_square,0,11,11,53,1,,,,,,,,,,,,,,,,,,,,,,,
456510,001,2022-11-21_01h11.56.817,Info_measure_main_exp,2022.2.2,Win32,144.092219,,,,,,,,,,,,,,,,,,masks/mask_005.jpg,,,,,,,,,,,,,,,,,,,,,,,,,,,,,,,,,,,,,,,,,,,0,0,0,4,1,,,,,,,,,,,,,,,,,,,,,,,,,,,,,,,,,,,,,,,,,,,,,,
456510,001,2022-11-21_01h11.56.817,Info_measure_main_exp,2022.2.2,Win32,144.092219,,,,,,,,,,,,,,,,,,masks/mask_002.jpg,,,,,,,,,,,,,,,,,,,,,,,,,,,,,,,,,,,,,,,,,,,0,1,1,1,1,,,,,,,,,,,,,,,,,,,,,,,,,,,,,,,,,,,,,,,,,,,,,,
456510,001,2022-11-21_01h11.56.817,Info_measure_main_exp,2022.2.2,Win32,144.092219,,,,,,,,,,,,,,,,,,masks/mask_001.jpg,,,,,,,,,,,,,,,,,,,,,,,,,,,,,,,,,,,,,,,,,,,0,2,2,0,1,,,,,,,,,,,,,,,,,,,,,,,,,,,,,,,,,,,,,,,,,,,,,,
456510,001,2022-11-21_01h11.56.817,Info_measure_main_exp,2022.2.2,Win32,144.092219,,,,,,,,,,,,,,,,,,masks/mask_004.jpg,,,,,,,,,,,,,,,,,,,,,,,,,,,,,,,,,,,,,,,,,,,0,3,3,3,1,,,,,,,,,,,,,,,,,,,,,,,,,,,,,,,,,,,,,,,,,,,,,,
456510,001,2022-11-21_01h11.56.817,Info_measure_main_exp,2022.2.2,Win32,144.092219,,,,,,,,,,,,,,,,,,masks/mask_003.jpg,,,,,,,,,,,,,,,,,,,,,,,,,,,,,,,,,,,,,,,,,,,0,4,4,2,1,,,,,,,,,,,,,,,,,,,,,,,,,,,,,,,,,,,,,,,,,,,,,,
456510,001,2022-11-21_01h11.56.817,Info_measure_main_exp,2022.2.2,Win32,144.092219,,,,,,,,,,,,,,,,,,masks/mask_005.jpg,,,,,,,,,,,,,,,,,,,,,,,,,,,,,,,,,,,,,,,,,,,,,,,,0,0,0,4,1,,,,,,,,,,,,,,,,,,,,,,,,,,,,,,,,,,,,,,,,,
456510,001,2022-11-21_01h11.56.817,Info_measure_main_exp,2022.2.2,Win32,144.092219,,,,,,,,,,,,,,,,,,masks/mask_003.jpg,,,,,,,,,,,,,,,,,,,,,,,,,,,,,,,,,,,,,,,,,,,,,,,,0,1,1,2,1,,,,,,,,,,,,,,,,,,,,,,,,,,,,,,,,,,,,,,,,,
456510,001,2022-11-21_01h11.56.817,Info_measure_main_exp,2022.2.2,Win32,144.092219,,,,,,,,,,,,,,,,,,masks/mask_001.jpg,,,,,,,,,,,,,,,,,,,,,,,,,,,,,,,,,,,,,,,,,,,,,,,,0,2,2,0,1,,,,,,,,,,,,,,,,,,,,,,,,,,,,,,,,,,,,,,,,,
456510,001,2022-11-21_01h11.56.817,Info_measure_main_exp,2022.2.2,Win32,144.092219,,,,,,,,,,,,,,,,,,masks/mask_004.jpg,,,,,,,,,,,,,,,,,,,,,,,,,,,,,,,,,,,,,,,,,,,,,,,,0,3,3,3,1,,,,,,,,,,,,,,,,,,,,,,,,,,,,,,,,,,,,,,,,,
456510,001,2022-11-21_01h11.56.817,Info_measure_main_exp,2022.2.2,Win32,144.092219,,,,,,,,,,,,,,,,,,masks/mask_002.jpg,,,,,,,,,,,,,,,,,,,,,,,,,,,,,,,,,,,,,,,,,,,,,,,,0,4,4,1,1,,,,,,,,,,,,,,,,,,,,,,,,,,,,,,,,,,,,,,,,,
456510,001,2022-11-21_01h11.56.817,Info_measure_main_exp,2022.2.2,Win32,144.092219,,,,,,,,,,,,,,,,,,,,,,,,,,,,,,7,0.278,1,,,,,,,,,,,,0,131,5,5,2082,2154,absent_patch/patch0002082.jpg,absent_patch/patch0002154.jpg,,,,,,,,,,,,,,,,,,,,0.043518519,0.098148148,1,0,0,response1disk,13,-0.007407407,0.000925926,1,0,0,center_square,0,12,12,33,1,,,,,,,,,,,,,,,,,,,,,,,
456510,001,2022-11-21_01h11.56.817,Info_measure_main_exp,2022.2.2,Win32,144.092219,,,,,,,,,,,,,,,,,,masks/mask_005.jpg,,,,,,,,,,,,,,,,,,,,,,,,,,,,,,,,,,,,,,,,,,,0,0,0,4,1,,,,,,,,,,,,,,,,,,,,,,,,,,,,,,,,,,,,,,,,,,,,,,
456510,001,2022-11-21_01h11.56.817,Info_measure_main_exp,2022.2.2,Win32,144.092219,,,,,,,,,,,,,,,,,,masks/mask_002.jpg,,,,,,,,,,,,,,,,,,,,,,,,,,,,,,,,,,,,,,,,,,,0,1,1,1,1,,,,,,,,,,,,,,,,,,,,,,,,,,,,,,,,,,,,,,,,,,,,,,
456510,001,2022-11-21_01h11.56.817,Info_measure_main_exp,2022.2.2,Win32,144.092219,,,,,,,,,,,,,,,,,,masks/mask_004.jpg,,,,,,,,,,,,,,,,,,,,,,,,,,,,,,,,,,,,,,,,,,,0,2,2,3,1,,,,,,,,,,,,,,,,,,,,,,,,,,,,,,,,,,,,,,,,,,,,,,
456510,001,2022-11-21_01h11.56.817,Info_measure_main_exp,2022.2.2,Win32,144.092219,,,,,,,,,,,,,,,,,,masks/mask_003.jpg,,,,,,,,,,,,,,,,,,,,,,,,,,,,,,,,,,,,,,,,,,,0,3,3,2,1,,,,,,,,,,,,,,,,,,,,,,,,,,,,,,,,,,,,,,,,,,,,,,
456510,001,2022-11-21_01h11.56.817,Info_measure_main_exp,2022.2.2,Win32,144.092219,,,,,,,,,,,,,,,,,,masks/mask_001.jpg,,,,,,,,,,,,,,,,,,,,,,,,,,,,,,,,,,,,,,,,,,,0,4,4,0,1,,,,,,,,,,,,,,,,,,,,,,,,,,,,,,,,,,,,,,,,,,,,,,
456510,001,2022-11-21_01h11.56.817,Info_measure_main_exp,2022.2.2,Win32,144.092219,,,,,,,,,,,,,,,,,,masks/mask_003.jpg,,,,,,,,,,,,,,,,,,,,,,,,,,,,,,,,,,,,,,,,,,,,,,,,0,0,0,2,1,,,,,,,,,,,,,,,,,,,,,,,,,,,,,,,,,,,,,,,,,
456510,001,2022-11-21_01h11.56.817,Info_measure_main_exp,2022.2.2,Win32,144.092219,,,,,,,,,,,,,,,,,,masks/mask_004.jpg,,,,,,,,,,,,,,,,,,,,,,,,,,,,,,,,,,,,,,,,,,,,,,,,0,1,1,3,1,,,,,,,,,,,,,,,,,,,,,,,,,,,,,,,,,,,,,,,,,
456510,001,2022-11-21_01h11.56.817,Info_measure_main_exp,2022.2.2,Win32,144.092219,,,,,,,,,,,,,,,,,,masks/mask_002.jpg,,,,,,,,,,,,,,,,,,,,,,,,,,,,,,,,,,,,,,,,,,,,,,,,0,2,2,1,1,,,,,,,,,,,,,,,,,,,,,,,,,,,,,,,,,,,,,,,,,
456510,001,2022-11-21_01h11.56.817,Info_measure_main_exp,2022.2.2,Win32,144.092219,,,,,,,,,,,,,,,,,,masks/mask_001.jpg,,,,,,,,,,,,,,,,,,,,,,,,,,,,,,,,,,,,,,,,,,,,,,,,0,3,3,0,1,,,,,,,,,,,,,,,,,,,,,,,,,,,,,,,,,,,,,,,,,
456510,001,2022-11-21_01h11.56.817,Info_measure_main_exp,2022.2.2,Win32,144.092219,,,,,,,,,,,,,,,,,,masks/mask_005.jpg,,,,,,,,,,,,,,,,,,,,,,,,,,,,,,,,,,,,,,,,,,,,,,,,0,4,4,4,1,,,,,,,,,,,,,,,,,,,,,,,,,,,,,,,,,,,,,,,,,
456510,001,2022-11-21_01h11.56.817,Info_measure_main_exp,2022.2.2,Win32,144.092219,,,,,,,,,,,,,,,,,,,,,,,,,,,,,,7,0.23,1,,,,,,,,,,,,0,131,5,5,2154,2298,absent_patch/patch0002154.jpg,absent_patch/patch0002298.jpg,,,,,,,,,,,,,,,,,,,,0.051851852,0.102777778,1,0,0,response1disk,14,-0.002777778,0.001851852,1,0,0,center_square,0,13,13,27,1,,,,,,,,,,,,,,,,,,,,,,,
456510,001,2022-11-21_01h11.56.817,Info_measure_main_exp,2022.2.2,Win32,144.092219,,,,,,,,,,,,,,,,,,masks/mask_001.jpg,,,,,,,,,,,,,,,,,,,,,,,,,,,,,,,,,,,,,,,,,,,0,0,0,0,1,,,,,,,,,,,,,,,,,,,,,,,,,,,,,,,,,,,,,,,,,,,,,,
456510,001,2022-11-21_01h11.56.817,Info_measure_main_exp,2022.2.2,Win32,144.092219,,,,,,,,,,,,,,,,,,masks/mask_002.jpg,,,,,,,,,,,,,,,,,,,,,,,,,,,,,,,,,,,,,,,,,,,0,1,1,1,1,,,,,,,,,,,,,,,,,,,,,,,,,,,,,,,,,,,,,,,,,,,,,,
456510,001,2022-11-21_01h11.56.817,Info_measure_main_exp,2022.2.2,Win32,144.092219,,,,,,,,,,,,,,,,,,masks/mask_003.jpg,,,,,,,,,,,,,,,,,,,,,,,,,,,,,,,,,,,,,,,,,,,0,2,2,2,1,,,,,,,,,,,,,,,,,,,,,,,,,,,,,,,,,,,,,,,,,,,,,,
456510,001,2022-11-21_01h11.56.817,Info_measure_main_exp,2022.2.2,Win32,144.092219,,,,,,,,,,,,,,,,,,masks/mask_005.jpg,,,,,,,,,,,,,,,,,,,,,,,,,,,,,,,,,,,,,,,,,,,0,3,3,4,1,,,,,,,,,,,,,,,,,,,,,,,,,,,,,,,,,,,,,,,,,,,,,,
456510,001,2022-11-21_01h11.56.817,Info_measure_main_exp,2022.2.2,Win32,144.092219,,,,,,,,,,,,,,,,,,masks/mask_004.jpg,,,,,,,,,,,,,,,,,,,,,,,,,,,,,,,,,,,,,,,,,,,0,4,4,3,1,,,,,,,,,,,,,,,,,,,,,,,,,,,,,,,,,,,,,,,,,,,,,,
456510,001,2022-11-21_01h11.56.817,Info_measure_main_exp,2022.2.2,Win32,144.092219,,,,,,,,,,,,,,,,,,masks/mask_001.jpg,,,,,,,,,,,,,,,,,,,,,,,,,,,,,,,,,,,,,,,,,,,,,,,,0,0,0,0,1,,,,,,,,,,,,,,,,,,,,,,,,,,,,,,,,,,,,,,,,,
456510,001,2022-11-21_01h11.56.817,Info_measure_main_exp,2022.2.2,Win32,144.092219,,,,,,,,,,,,,,,,,,masks/mask_005.jpg,,,,,,,,,,,,,,,,,,,,,,,,,,,,,,,,,,,,,,,,,,,,,,,,0,1,1,4,1,,,,,,,,,,,,,,,,,,,,,,,,,,,,,,,,,,,,,,,,,
456510,001,2022-11-21_01h11.56.817,Info_measure_main_exp,2022.2.2,Win32,144.092219,,,,,,,,,,,,,,,,,,masks/mask_002.jpg,,,,,,,,,,,,,,,,,,,,,,,,,,,,,,,,,,,,,,,,,,,,,,,,0,2,2,1,1,,,,,,,,,,,,,,,,,,,,,,,,,,,,,,,,,,,,,,,,,
456510,001,2022-11-21_01h11.56.817,Info_measure_main_exp,2022.2.2,Win32,144.092219,,,,,,,,,,,,,,,,,,masks/mask_004.jpg,,,,,,,,,,,,,,,,,,,,,,,,,,,,,,,,,,,,,,,,,,,,,,,,0,3,3,3,1,,,,,,,,,,,,,,,,,,,,,,,,,,,,,,,,,,,,,,,,,
456510,001,2022-11-21_01h11.56.817,Info_measure_main_exp,2022.2.2,Win32,144.092219,,,,,,,,,,,,,,,,,,masks/mask_003.jpg,,,,,,,,,,,,,,,,,,,,,,,,,,,,,,,,,,,,,,,,,,,,,,,,0,4,4,2,1,,,,,,,,,,,,,,,,,,,,,,,,,,,,,,,,,,,,,,,,,
456510,001,2022-11-21_01h11.56.817,Info_measure_main_exp,2022.2.2,Win32,144.092219,,,,,,,,,,,,,,,,,,,,,,,,,,,,,,7,0.438,1,,,,,,,,,,,,1,131,5,5,2238,1,absent_patch/patch0002238.jpg,present_patch/cong_131_5_a.jpg,,,,,,,,,,,,,,,,,,,,0.043518519,0.142592593,1,0,0,response1disk,15,-0.007407407,0.013888889,1,0,0,center_square,0,14,14,104,1,,,,,,,,,,,,,,,,,,,,,,,
456510,001,2022-11-21_01h11.56.817,Info_measure_main_exp,2022.2.2,Win32,144.092219,,,,,,,,,,,,,,,,,,masks/mask_001.jpg,,,,,,,,,,,,,,,,,,,,,,,,,,,,,,,,,,,,,,,,,,,0,0,0,0,1,,,,,,,,,,,,,,,,,,,,,,,,,,,,,,,,,,,,,,,,,,,,,,
456510,001,2022-11-21_01h11.56.817,Info_measure_main_exp,2022.2.2,Win32,144.092219,,,,,,,,,,,,,,,,,,masks/mask_002.jpg,,,,,,,,,,,,,,,,,,,,,,,,,,,,,,,,,,,,,,,,,,,0,1,1,1,1,,,,,,,,,,,,,,,,,,,,,,,,,,,,,,,,,,,,,,,,,,,,,,
456510,001,2022-11-21_01h11.56.817,Info_measure_main_exp,2022.2.2,Win32,144.092219,,,,,,,,,,,,,,,,,,masks/mask_005.jpg,,,,,,,,,,,,,,,,,,,,,,,,,,,,,,,,,,,,,,,,,,,0,2,2,4,1,,,,,,,,,,,,,,,,,,,,,,,,,,,,,,,,,,,,,,,,,,,,,,
456510,001,2022-11-21_01h11.56.817,Info_measure_main_exp,2022.2.2,Win32,144.092219,,,,,,,,,,,,,,,,,,masks/mask_003.jpg,,,,,,,,,,,,,,,,,,,,,,,,,,,,,,,,,,,,,,,,,,,0,3,3,2,1,,,,,,,,,,,,,,,,,,,,,,,,,,,,,,,,,,,,,,,,,,,,,,
456510,001,2022-11-21_01h11.56.817,Info_measure_main_exp,2022.2.2,Win32,144.092219,,,,,,,,,,,,,,,,,,masks/mask_004.jpg,,,,,,,,,,,,,,,,,,,,,,,,,,,,,,,,,,,,,,,,,,,0,4,4,3,1,,,,,,,,,,,,,,,,,,,,,,,,,,,,,,,,,,,,,,,,,,,,,,
456510,001,2022-11-21_01h11.56.817,Info_measure_main_exp,2022.2.2,Win32,144.092219,,,,,,,,,,,,,,,,,,masks/mask_002.jpg,,,,,,,,,,,,,,,,,,,,,,,,,,,,,,,,,,,,,,,,,,,,,,,,0,0,0,1,1,,,,,,,,,,,,,,,,,,,,,,,,,,,,,,,,,,,,,,,,,
456510,001,2022-11-21_01h11.56.817,Info_measure_main_exp,2022.2.2,Win32,144.092219,,,,,,,,,,,,,,,,,,masks/mask_003.jpg,,,,,,,,,,,,,,,,,,,,,,,,,,,,,,,,,,,,,,,,,,,,,,,,0,1,1,2,1,,,,,,,,,,,,,,,,,,,,,,,,,,,,,,,,,,,,,,,,,
456510,001,2022-11-21_01h11.56.817,Info_measure_main_exp,2022.2.2,Win32,144.092219,,,,,,,,,,,,,,,,,,masks/mask_001.jpg,,,,,,,,,,,,,,,,,,,,,,,,,,,,,,,,,,,,,,,,,,,,,,,,0,2,2,0,1,,,,,,,,,,,,,,,,,,,,,,,,,,,,,,,,,,,,,,,,,
456510,001,2022-11-21_01h11.56.817,Info_measure_main_exp,2022.2.2,Win32,144.092219,,,,,,,,,,,,,,,,,,masks/mask_004.jpg,,,,,,,,,,,,,,,,,,,,,,,,,,,,,,,,,,,,,,,,,,,,,,,,0,3,3,3,1,,,,,,,,,,,,,,,,,,,,,,,,,,,,,,,,,,,,,,,,,
456510,001,2022-11-21_01h11.56.817,Info_measure_main_exp,2022.2.2,Win32,144.092219,,,,,,,,,,,,,,,,,,masks/mask_005.jpg,,,,,,,,,,,,,,,,,,,,,,,,,,,,,,,,,,,,,,,,,,,,,,,,0,4,4,4,1,,,,,,,,,,,,,,,,,,,,,,,,,,,,,,,,,,,,,,,,,
456510,001,2022-11-21_01h11.56.817,Info_measure_main_exp,2022.2.2,Win32,144.092219,,,,,,,,,,,,,,,,,,,,,,,,,,,,,,4,0.382,1,,,,,,,,,,,,1,131,5,5,1,2274,present_patch/cong_131_5_a.jpg,absent_patch/patch0002274.jpg,,,,,,,,,,,,,,,,,,,,0.034259259,-0.103703704,1,0,0,response3disk,16,0.003703704,-0.002777778,1,0,0,center_square,0,15,15,105,1,,,,,,,,,,,,,,,,,,,,,,,
456510,001,2022-11-21_01h11.56.817,Info_measure_main_exp,2022.2.2,Win32,144.092219,,,,,,,,,,,,,,,,,,masks/mask_003.jpg,,,,,,,,,,,,,,,,,,,,,,,,,,,,,,,,,,,,,,,,,,,0,0,0,2,1,,,,,,,,,,,,,,,,,,,,,,,,,,,,,,,,,,,,,,,,,,,,,,
456510,001,2022-11-21_01h11.56.817,Info_measure_main_exp,2022.2.2,Win32,144.092219,,,,,,,,,,,,,,,,,,masks/mask_005.jpg,,,,,,,,,,,,,,,,,,,,,,,,,,,,,,,,,,,,,,,,,,,0,1,1,4,1,,,,,,,,,,,,,,,,,,,,,,,,,,,,,,,,,,,,,,,,,,,,,,
456510,001,2022-11-21_01h11.56.817,Info_measure_main_exp,2022.2.2,Win32,144.092219,,,,,,,,,,,,,,,,,,masks/mask_002.jpg,,,,,,,,,,,,,,,,,,,,,,,,,,,,,,,,,,,,,,,,,,,0,2,2,1,1,,,,,,,,,,,,,,,,,,,,,,,,,,,,,,,,,,,,,,,,,,,,,,
456510,001,2022-11-21_01h11.56.817,Info_measure_main_exp,2022.2.2,Win32,144.092219,,,,,,,,,,,,,,,,,,masks/mask_001.jpg,,,,,,,,,,,,,,,,,,,,,,,,,,,,,,,,,,,,,,,,,,,0,3,3,0,1,,,,,,,,,,,,,,,,,,,,,,,,,,,,,,,,,,,,,,,,,,,,,,
456510,001,2022-11-21_01h11.56.817,Info_measure_main_exp,2022.2.2,Win32,144.092219,,,,,,,,,,,,,,,,,,masks/mask_004.jpg,,,,,,,,,,,,,,,,,,,,,,,,,,,,,,,,,,,,,,,,,,,0,4,4,3,1,,,,,,,,,,,,,,,,,,,,,,,,,,,,,,,,,,,,,,,,,,,,,,
456510,001,2022-11-21_01h11.56.817,Info_measure_main_exp,2022.2.2,Win32,144.092219,,,,,,,,,,,,,,,,,,masks/mask_002.jpg,,,,,,,,,,,,,,,,,,,,,,,,,,,,,,,,,,,,,,,,,,,,,,,,0,0,0,1,1,,,,,,,,,,,,,,,,,,,,,,,,,,,,,,,,,,,,,,,,,
456510,001,2022-11-21_01h11.56.817,Info_measure_main_exp,2022.2.2,Win32,144.092219,,,,,,,,,,,,,,,,,,masks/mask_005.jpg,,,,,,,,,,,,,,,,,,,,,,,,,,,,,,,,,,,,,,,,,,,,,,,,0,1,1,4,1,,,,,,,,,,,,,,,,,,,,,,,,,,,,,,,,,,,,,,,,,
456510,001,2022-11-21_01h11.56.817,Info_measure_main_exp,2022.2.2,Win32,144.092219,,,,,,,,,,,,,,,,,,masks/mask_001.jpg,,,,,,,,,,,,,,,,,,,,,,,,,,,,,,,,,,,,,,,,,,,,,,,,0,2,2,0,1,,,,,,,,,,,,,,,,,,,,,,,,,,,,,,,,,,,,,,,,,
456510,001,2022-11-21_01h11.56.817,Info_measure_main_exp,2022.2.2,Win32,144.092219,,,,,,,,,,,,,,,,,,masks/mask_004.jpg,,,,,,,,,,,,,,,,,,,,,,,,,,,,,,,,,,,,,,,,,,,,,,,,0,3,3,3,1,,,,,,,,,,,,,,,,,,,,,,,,,,,,,,,,,,,,,,,,,
456510,001,2022-11-21_01h11.56.817,Info_measure_main_exp,2022.2.2,Win32,144.092219,,,,,,,,,,,,,,,,,,masks/mask_003.jpg,,,,,,,,,,,,,,,,,,,,,,,,,,,,,,,,,,,,,,,,,,,,,,,,0,4,4,2,1,,,,,,,,,,,,,,,,,,,,,,,,,,,,,,,,,,,,,,,,,
456510,001,2022-11-21_01h11.56.817,Info_measure_main_exp,2022.2.2,Win32,144.092219,,,,,,,,,,,,,,,,,,,,,,,,,,,,,,7,0.39,1,,,,,,,,,,,,0,131,5,5,2274,2190,absent_patch/patch0002274.jpg,absent_patch/patch0002190.jpg,,,,,,,,,,,,,,,,,,,,0.04537037,0.087037037,1,0,0,response1disk,17,0.011111111,-0.007407407,1,0,0,center_square,0,16,16,116,1,,,,,,,,,,,,,,,,,,,,,,,
456510,001,2022-11-21_01h11.56.817,Info_measure_main_exp,2022.2.2,Win32,144.092219,,,,,,,,,,,,,,,,,,masks/mask_003.jpg,,,,,,,,,,,,,,,,,,,,,,,,,,,,,,,,,,,,,,,,,,,0,0,0,2,1,,,,,,,,,,,,,,,,,,,,,,,,,,,,,,,,,,,,,,,,,,,,,,
456510,001,2022-11-21_01h11.56.817,Info_measure_main_exp,2022.2.2,Win32,144.092219,,,,,,,,,,,,,,,,,,masks/mask_001.jpg,,,,,,,,,,,,,,,,,,,,,,,,,,,,,,,,,,,,,,,,,,,0,1,1,0,1,,,,,,,,,,,,,,,,,,,,,,,,,,,,,,,,,,,,,,,,,,,,,,
456510,001,2022-11-21_01h11.56.817,Info_measure_main_exp,2022.2.2,Win32,144.092219,,,,,,,,,,,,,,,,,,masks/mask_004.jpg,,,,,,,,,,,,,,,,,,,,,,,,,,,,,,,,,,,,,,,,,,,0,2,2,3,1,,,,,,,,,,,,,,,,,,,,,,,,,,,,,,,,,,,,,,,,,,,,,,
456510,001,2022-11-21_01h11.56.817,Info_measure_main_exp,2022.2.2,Win32,144.092219,,,,,,,,,,,,,,,,,,masks/mask_005.jpg,,,,,,,,,,,,,,,,,,,,,,,,,,,,,,,,,,,,,,,,,,,0,3,3,4,1,,,,,,,,,,,,,,,,,,,,,,,,,,,,,,,,,,,,,,,,,,,,,,
456510,001,2022-11-21_01h11.56.817,Info_measure_main_exp,2022.2.2,Win32,144.092219,,,,,,,,,,,,,,,,,,masks/mask_002.jpg,,,,,,,,,,,,,,,,,,,,,,,,,,,,,,,,,,,,,,,,,,,0,4,4,1,1,,,,,,,,,,,,,,,,,,,,,,,,,,,,,,,,,,,,,,,,,,,,,,
456510,001,2022-11-21_01h11.56.817,Info_measure_main_exp,2022.2.2,Win32,144.092219,,,,,,,,,,,,,,,,,,masks/mask_002.jpg,,,,,,,,,,,,,,,,,,,,,,,,,,,,,,,,,,,,,,,,,,,,,,,,0,0,0,1,1,,,,,,,,,,,,,,,,,,,,,,,,,,,,,,,,,,,,,,,,,
456510,001,2022-11-21_01h11.56.817,Info_measure_main_exp,2022.2.2,Win32,144.092219,,,,,,,,,,,,,,,,,,masks/mask_004.jpg,,,,,,,,,,,,,,,,,,,,,,,,,,,,,,,,,,,,,,,,,,,,,,,,0,1,1,3,1,,,,,,,,,,,,,,,,,,,,,,,,,,,,,,,,,,,,,,,,,
456510,001,2022-11-21_01h11.56.817,Info_measure_main_exp,2022.2.2,Win32,144.092219,,,,,,,,,,,,,,,,,,masks/mask_001.jpg,,,,,,,,,,,,,,,,,,,,,,,,,,,,,,,,,,,,,,,,,,,,,,,,0,2,2,0,1,,,,,,,,,,,,,,,,,,,,,,,,,,,,,,,,,,,,,,,,,
456510,001,2022-11-21_01h11.56.817,Info_measure_main_exp,2022.2.2,Win32,144.092219,,,,,,,,,,,,,,,,,,masks/mask_005.jpg,,,,,,,,,,,,,,,,,,,,,,,,,,,,,,,,,,,,,,,,,,,,,,,,0,3,3,4,1,,,,,,,,,,,,,,,,,,,,,,,,,,,,,,,,,,,,,,,,,
456510,001,2022-11-21_01h11.56.817,Info_measure_main_exp,2022.2.2,Win32,144.092219,,,,,,,,,,,,,,,,,,masks/mask_003.jpg,,,,,,,,,,,,,,,,,,,,,,,,,,,,,,,,,,,,,,,,,,,,,,,,0,4,4,2,1,,,,,,,,,,,,,,,,,,,,,,,,,,,,,,,,,,,,,,,,,
456510,001,2022-11-21_01h11.56.817,Info_measure_main_exp,2022.2.2,Win32,144.092219,,,,,,,,,,,,,,,,,,,,,,,,,,,,,,7,0.25,1,,,,,,,,,,,,0,131,5,5,2298,2178,absent_patch/patch0002298.jpg,absent_patch/patch0002178.jpg,,,,,,,,,,,,,,,,,,,,0.023148148,0.087962963,1,0,0,response1disk,18,0.00462963,0.003703704,1,0,0,center_square,0,17,17,84,1,,,,,,,,,,,,,,,,,,,,,,,
456510,001,2022-11-21_01h11.56.817,Info_measure_main_exp,2022.2.2,Win32,144.092219,,,,,,,,,,,,,,,,,,masks/mask_005.jpg,,,,,,,,,,,,,,,,,,,,,,,,,,,,,,,,,,,,,,,,,,,0,0,0,4,1,,,,,,,,,,,,,,,,,,,,,,,,,,,,,,,,,,,,,,,,,,,,,,
456510,001,2022-11-21_01h11.56.817,Info_measure_main_exp,2022.2.2,Win32,144.092219,,,,,,,,,,,,,,,,,,masks/mask_002.jpg,,,,,,,,,,,,,,,,,,,,,,,,,,,,,,,,,,,,,,,,,,,0,1,1,1,1,,,,,,,,,,,,,,,,,,,,,,,,,,,,,,,,,,,,,,,,,,,,,,
456510,001,2022-11-21_01h11.56.817,Info_measure_main_exp,2022.2.2,Win32,144.092219,,,,,,,,,,,,,,,,,,masks/mask_001.jpg,,,,,,,,,,,,,,,,,,,,,,,,,,,,,,,,,,,,,,,,,,,0,2,2,0,1,,,,,,,,,,,,,,,,,,,,,,,,,,,,,,,,,,,,,,,,,,,,,,
456510,001,2022-11-21_01h11.56.817,Info_measure_main_exp,2022.2.2,Win32,144.092219,,,,,,,,,,,,,,,,,,masks/mask_003.jpg,,,,,,,,,,,,,,,,,,,,,,,,,,,,,,,,,,,,,,,,,,,0,3,3,2,1,,,,,,,,,,,,,,,,,,,,,,,,,,,,,,,,,,,,,,,,,,,,,,
456510,001,2022-11-21_01h11.56.817,Info_measure_main_exp,2022.2.2,Win32,144.092219,,,,,,,,,,,,,,,,,,masks/mask_004.jpg,,,,,,,,,,,,,,,,,,,,,,,,,,,,,,,,,,,,,,,,,,,0,4,4,3,1,,,,,,,,,,,,,,,,,,,,,,,,,,,,,,,,,,,,,,,,,,,,,,
456510,001,2022-11-21_01h11.56.817,Info_measure_main_exp,2022.2.2,Win32,144.092219,,,,,,,,,,,,,,,,,,masks/mask_002.jpg,,,,,,,,,,,,,,,,,,,,,,,,,,,,,,,,,,,,,,,,,,,,,,,,0,0,0,1,1,,,,,,,,,,,,,,,,,,,,,,,,,,,,,,,,,,,,,,,,,
456510,001,2022-11-21_01h11.56.817,Info_measure_main_exp,2022.2.2,Win32,144.092219,,,,,,,,,,,,,,,,,,masks/mask_001.jpg,,,,,,,,,,,,,,,,,,,,,,,,,,,,,,,,,,,,,,,,,,,,,,,,0,1,1,0,1,,,,,,,,,,,,,,,,,,,,,,,,,,,,,,,,,,,,,,,,,
456510,001,2022-11-21_01h11.56.817,Info_measure_main_exp,2022.2.2,Win32,144.092219,,,,,,,,,,,,,,,,,,masks/mask_003.jpg,,,,,,,,,,,,,,,,,,,,,,,,,,,,,,,,,,,,,,,,,,,,,,,,0,2,2,2,1,,,,,,,,,,,,,,,,,,,,,,,,,,,,,,,,,,,,,,,,,
456510,001,2022-11-21_01h11.56.817,Info_measure_main_exp,2022.2.2,Win32,144.092219,,,,,,,,,,,,,,,,,,masks/mask_004.jpg,,,,,,,,,,,,,,,,,,,,,,,,,,,,,,,,,,,,,,,,,,,,,,,,0,3,3,3,1,,,,,,,,,,,,,,,,,,,,,,,,,,,,,,,,,,,,,,,,,
456510,001,2022-11-21_01h11.56.817,Info_measure_main_exp,2022.2.2,Win32,144.092219,,,,,,,,,,,,,,,,,,masks/mask_005.jpg,,,,,,,,,,,,,,,,,,,,,,,,,,,,,,,,,,,,,,,,,,,,,,,,0,4,4,4,1,,,,,,,,,,,,,,,,,,,,,,,,,,,,,,,,,,,,,,,,,
456510,001,2022-11-21_01h11.56.817,Info_measure_main_exp,2022.2.2,Win32,144.092219,,,,,,,,,,,,,,,,,,,,,,,,,,,,,,0,0.687,1,,,,,,,,,,,,0,131,5,5,2190,2190,absent_patch/patch0002190.jpg,absent_patch/patch0002190.jpg,,,,,,,,,,,,,,,,,,,,-0.063888889,0.140740741,1,0,0,response7disk,19,0.012962963,0.00462963,1,0,0,center_square,0,18,18,86,1,,,,,,,,,,,,,,,,,,,,,,,
456510,001,2022-11-21_01h11.56.817,Info_measure_main_exp,2022.2.2,Win32,144.092219,,,,,,,,,,,,,,,,,,masks/mask_005.jpg,,,,,,,,,,,,,,,,,,,,,,,,,,,,,,,,,,,,,,,,,,,0,0,0,4,1,,,,,,,,,,,,,,,,,,,,,,,,,,,,,,,,,,,,,,,,,,,,,,
456510,001,2022-11-21_01h11.56.817,Info_measure_main_exp,2022.2.2,Win32,144.092219,,,,,,,,,,,,,,,,,,masks/mask_003.jpg,,,,,,,,,,,,,,,,,,,,,,,,,,,,,,,,,,,,,,,,,,,0,1,1,2,1,,,,,,,,,,,,,,,,,,,,,,,,,,,,,,,,,,,,,,,,,,,,,,
456510,001,2022-11-21_01h11.56.817,Info_measure_main_exp,2022.2.2,Win32,144.092219,,,,,,,,,,,,,,,,,,masks/mask_002.jpg,,,,,,,,,,,,,,,,,,,,,,,,,,,,,,,,,,,,,,,,,,,0,2,2,1,1,,,,,,,,,,,,,,,,,,,,,,,,,,,,,,,,,,,,,,,,,,,,,,
456510,001,2022-11-21_01h11.56.817,Info_measure_main_exp,2022.2.2,Win32,144.092219,,,,,,,,,,,,,,,,,,masks/mask_004.jpg,,,,,,,,,,,,,,,,,,,,,,,,,,,,,,,,,,,,,,,,,,,0,3,3,3,1,,,,,,,,,,,,,,,,,,,,,,,,,,,,,,,,,,,,,,,,,,,,,,
456510,001,2022-11-21_01h11.56.817,Info_measure_main_exp,2022.2.2,Win32,144.092219,,,,,,,,,,,,,,,,,,masks/mask_001.jpg,,,,,,,,,,,,,,,,,,,,,,,,,,,,,,,,,,,,,,,,,,,0,4,4,0,1,,,,,,,,,,,,,,,,,,,,,,,,,,,,,,,,,,,,,,,,,,,,,,
456510,001,2022-11-21_01h11.56.817,Info_measure_main_exp,2022.2.2,Win32,144.092219,,,,,,,,,,,,,,,,,,masks/mask_002.jpg,,,,,,,,,,,,,,,,,,,,,,,,,,,,,,,,,,,,,,,,,,,,,,,,0,0,0,1,1,,,,,,,,,,,,,,,,,,,,,,,,,,,,,,,,,,,,,,,,,
456510,001,2022-11-21_01h11.56.817,Info_measure_main_exp,2022.2.2,Win32,144.092219,,,,,,,,,,,,,,,,,,masks/mask_001.jpg,,,,,,,,,,,,,,,,,,,,,,,,,,,,,,,,,,,,,,,,,,,,,,,,0,1,1,0,1,,,,,,,,,,,,,,,,,,,,,,,,,,,,,,,,,,,,,,,,,
456510,001,2022-11-21_01h11.56.817,Info_measure_main_exp,2022.2.2,Win32,144.092219,,,,,,,,,,,,,,,,,,masks/mask_005.jpg,,,,,,,,,,,,,,,,,,,,,,,,,,,,,,,,,,,,,,,,,,,,,,,,0,2,2,4,1,,,,,,,,,,,,,,,,,,,,,,,,,,,,,,,,,,,,,,,,,
456510,001,2022-11-21_01h11.56.817,Info_measure_main_exp,2022.2.2,Win32,144.092219,,,,,,,,,,,,,,,,,,masks/mask_003.jpg,,,,,,,,,,,,,,,,,,,,,,,,,,,,,,,,,,,,,,,,,,,,,,,,0,3,3,2,1,,,,,,,,,,,,,,,,,,,,,,,,,,,,,,,,,,,,,,,,,
456510,001,2022-11-21_01h11.56.817,Info_measure_main_exp,2022.2.2,Win32,144.092219,,,,,,,,,,,,,,,,,,masks/mask_004.jpg,,,,,,,,,,,,,,,,,,,,,,,,,,,,,,,,,,,,,,,,,,,,,,,,0,4,4,3,1,,,,,,,,,,,,,,,,,,,,,,,,,,,,,,,,,,,,,,,,,
456510,001,2022-11-21_01h11.56.817,Info_measure_main_exp,2022.2.2,Win32,144.092219,,,,,,,,,,,,,,,,,,,,,,,,,,,,,,0,0.439,1,,,,,,,,,,,,0,131,5,5,2154,2154,absent_patch/patch0002154.jpg,absent_patch/patch0002154.jpg,,,,,,,,,,,,,,,,,,,,-0.080555556,0.135185185,1,0,0,response7disk,20,-0.006481481,0.00462963,1,0,0,center_square,0,19,19,89,1,,,,,,,,,,,,,,,,,,,,,,,
456510,001,2022-11-21_01h11.56.817,Info_measure_main_exp,2022.2.2,Win32,144.092219,,,,,,,,,,,,,,,,,,masks/mask_001.jpg,,,,,,,,,,,,,,,,,,,,,,,,,,,,,,,,,,,,,,,,,,,0,0,0,0,1,,,,,,,,,,,,,,,,,,,,,,,,,,,,,,,,,,,,,,,,,,,,,,
456510,001,2022-11-21_01h11.56.817,Info_measure_main_exp,2022.2.2,Win32,144.092219,,,,,,,,,,,,,,,,,,masks/mask_005.jpg,,,,,,,,,,,,,,,,,,,,,,,,,,,,,,,,,,,,,,,,,,,0,1,1,4,1,,,,,,,,,,,,,,,,,,,,,,,,,,,,,,,,,,,,,,,,,,,,,,
456510,001,2022-11-21_01h11.56.817,Info_measure_main_exp,2022.2.2,Win32,144.092219,,,,,,,,,,,,,,,,,,masks/mask_002.jpg,,,,,,,,,,,,,,,,,,,,,,,,,,,,,,,,,,,,,,,,,,,0,2,2,1,1,,,,,,,,,,,,,,,,,,,,,,,,,,,,,,,,,,,,,,,,,,,,,,
456510,001,2022-11-21_01h11.56.817,Info_measure_main_exp,2022.2.2,Win32,144.092219,,,,,,,,,,,,,,,,,,masks/mask_004.jpg,,,,,,,,,,,,,,,,,,,,,,,,,,,,,,,,,,,,,,,,,,,0,3,3,3,1,,,,,,,,,,,,,,,,,,,,,,,,,,,,,,,,,,,,,,,,,,,,,,
456510,001,2022-11-21_01h11.56.817,Info_measure_main_exp,2022.2.2,Win32,144.092219,,,,,,,,,,,,,,,,,,masks/mask_003.jpg,,,,,,,,,,,,,,,,,,,,,,,,,,,,,,,,,,,,,,,,,,,0,4,4,2,1,,,,,,,,,,,,,,,,,,,,,,,,,,,,,,,,,,,,,,,,,,,,,,
456510,001,2022-11-21_01h11.56.817,Info_measure_main_exp,2022.2.2,Win32,144.092219,,,,,,,,,,,,,,,,,,masks/mask_005.jpg,,,,,,,,,,,,,,,,,,,,,,,,,,,,,,,,,,,,,,,,,,,,,,,,0,0,0,4,1,,,,,,,,,,,,,,,,,,,,,,,,,,,,,,,,,,,,,,,,,
456510,001,2022-11-21_01h11.56.817,Info_measure_main_exp,2022.2.2,Win32,144.092219,,,,,,,,,,,,,,,,,,masks/mask_001.jpg,,,,,,,,,,,,,,,,,,,,,,,,,,,,,,,,,,,,,,,,,,,,,,,,0,1,1,0,1,,,,,,,,,,,,,,,,,,,,,,,,,,,,,,,,,,,,,,,,,
456510,001,2022-11-21_01h11.56.817,Info_measure_main_exp,2022.2.2,Win32,144.092219,,,,,,,,,,,,,,,,,,masks/mask_004.jpg,,,,,,,,,,,,,,,,,,,,,,,,,,,,,,,,,,,,,,,,,,,,,,,,0,2,2,3,1,,,,,,,,,,,,,,,,,,,,,,,,,,,,,,,,,,,,,,,,,
456510,001,2022-11-21_01h11.56.817,Info_measure_main_exp,2022.2.2,Win32,144.092219,,,,,,,,,,,,,,,,,,masks/mask_002.jpg,,,,,,,,,,,,,,,,,,,,,,,,,,,,,,,,,,,,,,,,,,,,,,,,0,3,3,1,1,,,,,,,,,,,,,,,,,,,,,,,,,,,,,,,,,,,,,,,,,
456510,001,2022-11-21_01h11.56.817,Info_measure_main_exp,2022.2.2,Win32,144.092219,,,,,,,,,,,,,,,,,,masks/mask_003.jpg,,,,,,,,,,,,,,,,,,,,,,,,,,,,,,,,,,,,,,,,,,,,,,,,0,4,4,2,1,,,,,,,,,,,,,,,,,,,,,,,,,,,,,,,,,,,,,,,,,
456510,001,2022-11-21_01h11.56.817,Info_measure_main_exp,2022.2.2,Win32,144.092219,,,,,,,,,,,,,,,,,,,,,,,,,,,,,,0,0.396,1,,,,,,,,,,,,0,131,5,5,2178,2178,absent_patch/patch0002178.jpg,absent_patch/patch0002178.jpg,,,,,,,,,,,,,,,,,,,,-0.071296296,0.150925926,1,0,0,response7disk,21,0.002777778,0.001851852,1,0,0,center_square,0,20,20,98,1,,,,,,,,,,,,,,,,,,,,,,,
456510,001,2022-11-21_01h11.56.817,Info_measure_main_exp,2022.2.2,Win32,144.092219,,,,,,,,,,,,,,,,,,masks/mask_005.jpg,,,,,,,,,,,,,,,,,,,,,,,,,,,,,,,,,,,,,,,,,,,0,0,0,4,1,,,,,,,,,,,,,,,,,,,,,,,,,,,,,,,,,,,,,,,,,,,,,,
456510,001,2022-11-21_01h11.56.817,Info_measure_main_exp,2022.2.2,Win32,144.092219,,,,,,,,,,,,,,,,,,masks/mask_002.jpg,,,,,,,,,,,,,,,,,,,,,,,,,,,,,,,,,,,,,,,,,,,0,1,1,1,1,,,,,,,,,,,,,,,,,,,,,,,,,,,,,,,,,,,,,,,,,,,,,,
456510,001,2022-11-21_01h11.56.817,Info_measure_main_exp,2022.2.2,Win32,144.092219,,,,,,,,,,,,,,,,,,masks/mask_003.jpg,,,,,,,,,,,,,,,,,,,,,,,,,,,,,,,,,,,,,,,,,,,0,2,2,2,1,,,,,,,,,,,,,,,,,,,,,,,,,,,,,,,,,,,,,,,,,,,,,,
456510,001,2022-11-21_01h11.56.817,Info_measure_main_exp,2022.2.2,Win32,144.092219,,,,,,,,,,,,,,,,,,masks/mask_001.jpg,,,,,,,,,,,,,,,,,,,,,,,,,,,,,,,,,,,,,,,,,,,0,3,3,0,1,,,,,,,,,,,,,,,,,,,,,,,,,,,,,,,,,,,,,,,,,,,,,,
456510,001,2022-11-21_01h11.56.817,Info_measure_main_exp,2022.2.2,Win32,144.092219,,,,,,,,,,,,,,,,,,masks/mask_004.jpg,,,,,,,,,,,,,,,,,,,,,,,,,,,,,,,,,,,,,,,,,,,0,4,4,3,1,,,,,,,,,,,,,,,,,,,,,,,,,,,,,,,,,,,,,,,,,,,,,,
456510,001,2022-11-21_01h11.56.817,Info_measure_main_exp,2022.2.2,Win32,144.092219,,,,,,,,,,,,,,,,,,masks/mask_001.jpg,,,,,,,,,,,,,,,,,,,,,,,,,,,,,,,,,,,,,,,,,,,,,,,,0,0,0,0,1,,,,,,,,,,,,,,,,,,,,,,,,,,,,,,,,,,,,,,,,,
456510,001,2022-11-21_01h11.56.817,Info_measure_main_exp,2022.2.2,Win32,144.092219,,,,,,,,,,,,,,,,,,masks/mask_002.jpg,,,,,,,,,,,,,,,,,,,,,,,,,,,,,,,,,,,,,,,,,,,,,,,,0,1,1,1,1,,,,,,,,,,,,,,,,,,,,,,,,,,,,,,,,,,,,,,,,,
456510,001,2022-11-21_01h11.56.817,Info_measure_main_exp,2022.2.2,Win32,144.092219,,,,,,,,,,,,,,,,,,masks/mask_005.jpg,,,,,,,,,,,,,,,,,,,,,,,,,,,,,,,,,,,,,,,,,,,,,,,,0,2,2,4,1,,,,,,,,,,,,,,,,,,,,,,,,,,,,,,,,,,,,,,,,,
456510,001,2022-11-21_01h11.56.817,Info_measure_main_exp,2022.2.2,Win32,144.092219,,,,,,,,,,,,,,,,,,masks/mask_004.jpg,,,,,,,,,,,,,,,,,,,,,,,,,,,,,,,,,,,,,,,,,,,,,,,,0,3,3,3,1,,,,,,,,,,,,,,,,,,,,,,,,,,,,,,,,,,,,,,,,,
456510,001,2022-11-21_01h11.56.817,Info_measure_main_exp,2022.2.2,Win32,144.092219,,,,,,,,,,,,,,,,,,masks/mask_003.jpg,,,,,,,,,,,,,,,,,,,,,,,,,,,,,,,,,,,,,,,,,,,,,,,,0,4,4,2,1,,,,,,,,,,,,,,,,,,,,,,,,,,,,,,,,,,,,,,,,,
456510,001,2022-11-21_01h11.56.817,Info_measure_main_exp,2022.2.2,Win32,144.092219,,,,,,,,,,,,,,,,,,,,,,,,,,,,,,7,0.396,1,,,,,,,,,,,,0,131,5,5,1986,1974,absent_patch/patch0001986.jpg,absent_patch/patch0001974.jpg,,,,,,,,,,,,,,,,,,,,0.037037037,0.147222222,1,0,0,response1disk,22,-0.000925926,0.000925926,1,0,0,center_square,0,21,21,25,1,,,,,,,,,,,,,,,,,,,,,,,
456510,001,2022-11-21_01h11.56.817,Info_measure_main_exp,2022.2.2,Win32,144.092219,,,,,,,,,,,,,,,,,,masks/mask_001.jpg,,,,,,,,,,,,,,,,,,,,,,,,,,,,,,,,,,,,,,,,,,,0,0,0,0,1,,,,,,,,,,,,,,,,,,,,,,,,,,,,,,,,,,,,,,,,,,,,,,
456510,001,2022-11-21_01h11.56.817,Info_measure_main_exp,2022.2.2,Win32,144.092219,,,,,,,,,,,,,,,,,,masks/mask_003.jpg,,,,,,,,,,,,,,,,,,,,,,,,,,,,,,,,,,,,,,,,,,,0,1,1,2,1,,,,,,,,,,,,,,,,,,,,,,,,,,,,,,,,,,,,,,,,,,,,,,
456510,001,2022-11-21_01h11.56.817,Info_measure_main_exp,2022.2.2,Win32,144.092219,,,,,,,,,,,,,,,,,,masks/mask_004.jpg,,,,,,,,,,,,,,,,,,,,,,,,,,,,,,,,,,,,,,,,,,,0,2,2,3,1,,,,,,,,,,,,,,,,,,,,,,,,,,,,,,,,,,,,,,,,,,,,,,
456510,001,2022-11-21_01h11.56.817,Info_measure_main_exp,2022.2.2,Win32,144.092219,,,,,,,,,,,,,,,,,,masks/mask_002.jpg,,,,,,,,,,,,,,,,,,,,,,,,,,,,,,,,,,,,,,,,,,,0,3,3,1,1,,,,,,,,,,,,,,,,,,,,,,,,,,,,,,,,,,,,,,,,,,,,,,
456510,001,2022-11-21_01h11.56.817,Info_measure_main_exp,2022.2.2,Win32,144.092219,,,,,,,,,,,,,,,,,,masks/mask_005.jpg,,,,,,,,,,,,,,,,,,,,,,,,,,,,,,,,,,,,,,,,,,,0,4,4,4,1,,,,,,,,,,,,,,,,,,,,,,,,,,,,,,,,,,,,,,,,,,,,,,
456510,001,2022-11-21_01h11.56.817,Info_measure_main_exp,2022.2.2,Win32,144.092219,,,,,,,,,,,,,,,,,,masks/mask_003.jpg,,,,,,,,,,,,,,,,,,,,,,,,,,,,,,,,,,,,,,,,,,,,,,,,0,0,0,2,1,,,,,,,,,,,,,,,,,,,,,,,,,,,,,,,,,,,,,,,,,
456510,001,2022-11-21_01h11.56.817,Info_measure_main_exp,2022.2.2,Win32,144.092219,,,,,,,,,,,,,,,,,,masks/mask_001.jpg,,,,,,,,,,,,,,,,,,,,,,,,,,,,,,,,,,,,,,,,,,,,,,,,0,1,1,0,1,,,,,,,,,,,,,,,,,,,,,,,,,,,,,,,,,,,,,,,,,
456510,001,2022-11-21_01h11.56.817,Info_measure_main_exp,2022.2.2,Win32,144.092219,,,,,,,,,,,,,,,,,,masks/mask_002.jpg,,,,,,,,,,,,,,,,,,,,,,,,,,,,,,,,,,,,,,,,,,,,,,,,0,2,2,1,1,,,,,,,,,,,,,,,,,,,,,,,,,,,,,,,,,,,,,,,,,
456510,001,2022-11-21_01h11.56.817,Info_measure_main_exp,2022.2.2,Win32,144.092219,,,,,,,,,,,,,,,,,,masks/mask_004.jpg,,,,,,,,,,,,,,,,,,,,,,,,,,,,,,,,,,,,,,,,,,,,,,,,0,3,3,3,1,,,,,,,,,,,,,,,,,,,,,,,,,,,,,,,,,,,,,,,,,
456510,001,2022-11-21_01h11.56.817,Info_measure_main_exp,2022.2.2,Win32,144.092219,,,,,,,,,,,,,,,,,,masks/mask_005.jpg,,,,,,,,,,,,,,,,,,,,,,,,,,,,,,,,,,,,,,,,,,,,,,,,0,4,4,4,1,,,,,,,,,,,,,,,,,,,,,,,,,,,,,,,,,,,,,,,,,
456510,001,2022-11-21_01h11.56.817,Info_measure_main_exp,2022.2.2,Win32,144.092219,,,,,,,,,,,,,,,,,,,,,,,,,,,,,,7,0.368,1,,,,,,,,,,,,0,131,5,5,2238,2214,absent_patch/patch0002238.jpg,absent_patch/patch0002214.jpg,,,,,,,,,,,,,,,,,,,,0.05462963,0.160185185,1,0,0,response1disk,23,0.000925926,0.010185185,1,0,0,center_square,0,22,22,81,1,,,,,,,,,,,,,,,,,,,,,,,
456510,001,2022-11-21_01h11.56.817,Info_measure_main_exp,2022.2.2,Win32,144.092219,,,,,,,,,,,,,,,,,,masks/mask_001.jpg,,,,,,,,,,,,,,,,,,,,,,,,,,,,,,,,,,,,,,,,,,,0,0,0,0,1,,,,,,,,,,,,,,,,,,,,,,,,,,,,,,,,,,,,,,,,,,,,,,
456510,001,2022-11-21_01h11.56.817,Info_measure_main_exp,2022.2.2,Win32,144.092219,,,,,,,,,,,,,,,,,,masks/mask_003.jpg,,,,,,,,,,,,,,,,,,,,,,,,,,,,,,,,,,,,,,,,,,,0,1,1,2,1,,,,,,,,,,,,,,,,,,,,,,,,,,,,,,,,,,,,,,,,,,,,,,
456510,001,2022-11-21_01h11.56.817,Info_measure_main_exp,2022.2.2,Win32,144.092219,,,,,,,,,,,,,,,,,,masks/mask_004.jpg,,,,,,,,,,,,,,,,,,,,,,,,,,,,,,,,,,,,,,,,,,,0,2,2,3,1,,,,,,,,,,,,,,,,,,,,,,,,,,,,,,,,,,,,,,,,,,,,,,
456510,001,2022-11-21_01h11.56.817,Info_measure_main_exp,2022.2.2,Win32,144.092219,,,,,,,,,,,,,,,,,,masks/mask_002.jpg,,,,,,,,,,,,,,,,,,,,,,,,,,,,,,,,,,,,,,,,,,,0,3,3,1,1,,,,,,,,,,,,,,,,,,,,,,,,,,,,,,,,,,,,,,,,,,,,,,
456510,001,2022-11-21_01h11.56.817,Info_measure_main_exp,2022.2.2,Win32,144.092219,,,,,,,,,,,,,,,,,,masks/mask_005.jpg,,,,,,,,,,,,,,,,,,,,,,,,,,,,,,,,,,,,,,,,,,,0,4,4,4,1,,,,,,,,,,,,,,,,,,,,,,,,,,,,,,,,,,,,,,,,,,,,,,
456510,001,2022-11-21_01h11.56.817,Info_measure_main_exp,2022.2.2,Win32,144.092219,,,,,,,,,,,,,,,,,,masks/mask_005.jpg,,,,,,,,,,,,,,,,,,,,,,,,,,,,,,,,,,,,,,,,,,,,,,,,0,0,0,4,1,,,,,,,,,,,,,,,,,,,,,,,,,,,,,,,,,,,,,,,,,
456510,001,2022-11-21_01h11.56.817,Info_measure_main_exp,2022.2.2,Win32,144.092219,,,,,,,,,,,,,,,,,,masks/mask_002.jpg,,,,,,,,,,,,,,,,,,,,,,,,,,,,,,,,,,,,,,,,,,,,,,,,0,1,1,1,1,,,,,,,,,,,,,,,,,,,,,,,,,,,,,,,,,,,,,,,,,
456510,001,2022-11-21_01h11.56.817,Info_measure_main_exp,2022.2.2,Win32,144.092219,,,,,,,,,,,,,,,,,,masks/mask_004.jpg,,,,,,,,,,,,,,,,,,,,,,,,,,,,,,,,,,,,,,,,,,,,,,,,0,2,2,3,1,,,,,,,,,,,,,,,,,,,,,,,,,,,,,,,,,,,,,,,,,
456510,001,2022-11-21_01h11.56.817,Info_measure_main_exp,2022.2.2,Win32,144.092219,,,,,,,,,,,,,,,,,,masks/mask_003.jpg,,,,,,,,,,,,,,,,,,,,,,,,,,,,,,,,,,,,,,,,,,,,,,,,0,3,3,2,1,,,,,,,,,,,,,,,,,,,,,,,,,,,,,,,,,,,,,,,,,
456510,001,2022-11-21_01h11.56.817,Info_measure_main_exp,2022.2.2,Win32,144.092219,,,,,,,,,,,,,,,,,,masks/mask_001.jpg,,,,,,,,,,,,,,,,,,,,,,,,,,,,,,,,,,,,,,,,,,,,,,,,0,4,4,0,1,,,,,,,,,,,,,,,,,,,,,,,,,,,,,,,,,,,,,,,,,
456510,001,2022-11-21_01h11.56.817,Info_measure_main_exp,2022.2.2,Win32,144.092219,,,,,,,,,,,,,,,,,,,,,,,,,,,,,,7,0.472,1,,,,,,,,,,,,1,131,5,5,2298,1,absent_patch/patch0002298.jpg,present_patch/cong_131_5_a.jpg,,,,,,,,,,,,,,,,,,,,0.051851852,0.118518519,1,0,0,response1disk,24,0.003703704,-0.006481481,1,0,0,center_square,0,23,23,45,1,,,,,,,,,,,,,,,,,,,,,,,
456510,001,2022-11-21_01h11.56.817,Info_measure_main_exp,2022.2.2,Win32,144.092219,,,,,,,,,,,,,,,,,,masks/mask_005.jpg,,,,,,,,,,,,,,,,,,,,,,,,,,,,,,,,,,,,,,,,,,,0,0,0,4,1,,,,,,,,,,,,,,,,,,,,,,,,,,,,,,,,,,,,,,,,,,,,,,
456510,001,2022-11-21_01h11.56.817,Info_measure_main_exp,2022.2.2,Win32,144.092219,,,,,,,,,,,,,,,,,,masks/mask_002.jpg,,,,,,,,,,,,,,,,,,,,,,,,,,,,,,,,,,,,,,,,,,,0,1,1,1,1,,,,,,,,,,,,,,,,,,,,,,,,,,,,,,,,,,,,,,,,,,,,,,
456510,001,2022-11-21_01h11.56.817,Info_measure_main_exp,2022.2.2,Win32,144.092219,,,,,,,,,,,,,,,,,,masks/mask_004.jpg,,,,,,,,,,,,,,,,,,,,,,,,,,,,,,,,,,,,,,,,,,,0,2,2,3,1,,,,,,,,,,,,,,,,,,,,,,,,,,,,,,,,,,,,,,,,,,,,,,
456510,001,2022-11-21_01h11.56.817,Info_measure_main_exp,2022.2.2,Win32,144.092219,,,,,,,,,,,,,,,,,,masks/mask_003.jpg,,,,,,,,,,,,,,,,,,,,,,,,,,,,,,,,,,,,,,,,,,,0,3,3,2,1,,,,,,,,,,,,,,,,,,,,,,,,,,,,,,,,,,,,,,,,,,,,,,
456510,001,2022-11-21_01h11.56.817,Info_measure_main_exp,2022.2.2,Win32,144.092219,,,,,,,,,,,,,,,,,,masks/mask_001.jpg,,,,,,,,,,,,,,,,,,,,,,,,,,,,,,,,,,,,,,,,,,,0,4,4,0,1,,,,,,,,,,,,,,,,,,,,,,,,,,,,,,,,,,,,,,,,,,,,,,
456510,001,2022-11-21_01h11.56.817,Info_measure_main_exp,2022.2.2,Win32,144.092219,,,,,,,,,,,,,,,,,,masks/mask_003.jpg,,,,,,,,,,,,,,,,,,,,,,,,,,,,,,,,,,,,,,,,,,,,,,,,0,0,0,2,1,,,,,,,,,,,,,,,,,,,,,,,,,,,,,,,,,,,,,,,,,
456510,001,2022-11-21_01h11.56.817,Info_measure_main_exp,2022.2.2,Win32,144.092219,,,,,,,,,,,,,,,,,,masks/mask_001.jpg,,,,,,,,,,,,,,,,,,,,,,,,,,,,,,,,,,,,,,,,,,,,,,,,0,1,1,0,1,,,,,,,,,,,,,,,,,,,,,,,,,,,,,,,,,,,,,,,,,
456510,001,2022-11-21_01h11.56.817,Info_measure_main_exp,2022.2.2,Win32,144.092219,,,,,,,,,,,,,,,,,,masks/mask_004.jpg,,,,,,,,,,,,,,,,,,,,,,,,,,,,,,,,,,,,,,,,,,,,,,,,0,2,2,3,1,,,,,,,,,,,,,,,,,,,,,,,,,,,,,,,,,,,,,,,,,
456510,001,2022-11-21_01h11.56.817,Info_measure_main_exp,2022.2.2,Win32,144.092219,,,,,,,,,,,,,,,,,,masks/mask_002.jpg,,,,,,,,,,,,,,,,,,,,,,,,,,,,,,,,,,,,,,,,,,,,,,,,0,3,3,1,1,,,,,,,,,,,,,,,,,,,,,,,,,,,,,,,,,,,,,,,,,
456510,001,2022-11-21_01h11.56.817,Info_measure_main_exp,2022.2.2,Win32,144.092219,,,,,,,,,,,,,,,,,,masks/mask_005.jpg,,,,,,,,,,,,,,,,,,,,,,,,,,,,,,,,,,,,,,,,,,,,,,,,0,4,4,4,1,,,,,,,,,,,,,,,,,,,,,,,,,,,,,,,,,,,,,,,,,
456510,001,2022-11-21_01h11.56.817,Info_measure_main_exp,2022.2.2,Win32,144.092219,,,,,,,,,,,,,,,,,,,,,,,,,,,,,,7,0.515,1,,,,,,,,,,,,0,131,5,5,2142,2142,absent_patch/patch0002142.jpg,absent_patch/patch0002142.jpg,,,,,,,,,,,,,,,,,,,,0.044444444,0.121296296,1,0,0,response1disk,25,0.010185185,0.005555556,1,0,0,center_square,0,24,24,13,1,,,,,,,,,,,,,,,,,,,,,,,
456510,001,2022-11-21_01h11.56.817,Info_measure_main_exp,2022.2.2,Win32,144.092219,,,,,,,,,,,,,,,,,,masks/mask_005.jpg,,,,,,,,,,,,,,,,,,,,,,,,,,,,,,,,,,,,,,,,,,,0,0,0,4,1,,,,,,,,,,,,,,,,,,,,,,,,,,,,,,,,,,,,,,,,,,,,,,
456510,001,2022-11-21_01h11.56.817,Info_measure_main_exp,2022.2.2,Win32,144.092219,,,,,,,,,,,,,,,,,,masks/mask_004.jpg,,,,,,,,,,,,,,,,,,,,,,,,,,,,,,,,,,,,,,,,,,,0,1,1,3,1,,,,,,,,,,,,,,,,,,,,,,,,,,,,,,,,,,,,,,,,,,,,,,
456510,001,2022-11-21_01h11.56.817,Info_measure_main_exp,2022.2.2,Win32,144.092219,,,,,,,,,,,,,,,,,,masks/mask_003.jpg,,,,,,,,,,,,,,,,,,,,,,,,,,,,,,,,,,,,,,,,,,,0,2,2,2,1,,,,,,,,,,,,,,,,,,,,,,,,,,,,,,,,,,,,,,,,,,,,,,
456510,001,2022-11-21_01h11.56.817,Info_measure_main_exp,2022.2.2,Win32,144.092219,,,,,,,,,,,,,,,,,,masks/mask_001.jpg,,,,,,,,,,,,,,,,,,,,,,,,,,,,,,,,,,,,,,,,,,,0,3,3,0,1,,,,,,,,,,,,,,,,,,,,,,,,,,,,,,,,,,,,,,,,,,,,,,
456510,001,2022-11-21_01h11.56.817,Info_measure_main_exp,2022.2.2,Win32,144.092219,,,,,,,,,,,,,,,,,,masks/mask_002.jpg,,,,,,,,,,,,,,,,,,,,,,,,,,,,,,,,,,,,,,,,,,,0,4,4,1,1,,,,,,,,,,,,,,,,,,,,,,,,,,,,,,,,,,,,,,,,,,,,,,
456510,001,2022-11-21_01h11.56.817,Info_measure_main_exp,2022.2.2,Win32,144.092219,,,,,,,,,,,,,,,,,,masks/mask_002.jpg,,,,,,,,,,,,,,,,,,,,,,,,,,,,,,,,,,,,,,,,,,,,,,,,0,0,0,1,1,,,,,,,,,,,,,,,,,,,,,,,,,,,,,,,,,,,,,,,,,
456510,001,2022-11-21_01h11.56.817,Info_measure_main_exp,2022.2.2,Win32,144.092219,,,,,,,,,,,,,,,,,,masks/mask_004.jpg,,,,,,,,,,,,,,,,,,,,,,,,,,,,,,,,,,,,,,,,,,,,,,,,0,1,1,3,1,,,,,,,,,,,,,,,,,,,,,,,,,,,,,,,,,,,,,,,,,
456510,001,2022-11-21_01h11.56.817,Info_measure_main_exp,2022.2.2,Win32,144.092219,,,,,,,,,,,,,,,,,,masks/mask_001.jpg,,,,,,,,,,,,,,,,,,,,,,,,,,,,,,,,,,,,,,,,,,,,,,,,0,2,2,0,1,,,,,,,,,,,,,,,,,,,,,,,,,,,,,,,,,,,,,,,,,
456510,001,2022-11-21_01h11.56.817,Info_measure_main_exp,2022.2.2,Win32,144.092219,,,,,,,,,,,,,,,,,,masks/mask_005.jpg,,,,,,,,,,,,,,,,,,,,,,,,,,,,,,,,,,,,,,,,,,,,,,,,0,3,3,4,1,,,,,,,,,,,,,,,,,,,,,,,,,,,,,,,,,,,,,,,,,
456510,001,2022-11-21_01h11.56.817,Info_measure_main_exp,2022.2.2,Win32,144.092219,,,,,,,,,,,,,,,,,,masks/mask_003.jpg,,,,,,,,,,,,,,,,,,,,,,,,,,,,,,,,,,,,,,,,,,,,,,,,0,4,4,2,1,,,,,,,,,,,,,,,,,,,,,,,,,,,,,,,,,,,,,,,,,
456510,001,2022-11-21_01h11.56.817,Info_measure_main_exp,2022.2.2,Win32,144.092219,,,,,,,,,,,,,,,,,,,,,,,,,,,,,,7,0.356,1,,,,,,,,,,,,0,131,5,5,2166,2154,absent_patch/patch0002166.jpg,absent_patch/patch0002154.jpg,,,,,,,,,,,,,,,,,,,,0.048148148,0.137037037,1,0,0,response1disk,26,-0.003703704,0.003703704,1,0,0,center_square,0,25,25,79,1,,,,,,,,,,,,,,,,,,,,,,,
456510,001,2022-11-21_01h11.56.817,Info_measure_main_exp,2022.2.2,Win32,144.092219,,,,,,,,,,,,,,,,,,masks/mask_003.jpg,,,,,,,,,,,,,,,,,,,,,,,,,,,,,,,,,,,,,,,,,,,0,0,0,2,1,,,,,,,,,,,,,,,,,,,,,,,,,,,,,,,,,,,,,,,,,,,,,,
456510,001,2022-11-21_01h11.56.817,Info_measure_main_exp,2022.2.2,Win32,144.092219,,,,,,,,,,,,,,,,,,masks/mask_001.jpg,,,,,,,,,,,,,,,,,,,,,,,,,,,,,,,,,,,,,,,,,,,0,1,1,0,1,,,,,,,,,,,,,,,,,,,,,,,,,,,,,,,,,,,,,,,,,,,,,,
456510,001,2022-11-21_01h11.56.817,Info_measure_main_exp,2022.2.2,Win32,144.092219,,,,,,,,,,,,,,,,,,masks/mask_004.jpg,,,,,,,,,,,,,,,,,,,,,,,,,,,,,,,,,,,,,,,,,,,0,2,2,3,1,,,,,,,,,,,,,,,,,,,,,,,,,,,,,,,,,,,,,,,,,,,,,,
456510,001,2022-11-21_01h11.56.817,Info_measure_main_exp,2022.2.2,Win32,144.092219,,,,,,,,,,,,,,,,,,masks/mask_002.jpg,,,,,,,,,,,,,,,,,,,,,,,,,,,,,,,,,,,,,,,,,,,0,3,3,1,1,,,,,,,,,,,,,,,,,,,,,,,,,,,,,,,,,,,,,,,,,,,,,,
456510,001,2022-11-21_01h11.56.817,Info_measure_main_exp,2022.2.2,Win32,144.092219,,,,,,,,,,,,,,,,,,masks/mask_005.jpg,,,,,,,,,,,,,,,,,,,,,,,,,,,,,,,,,,,,,,,,,,,0,4,4,4,1,,,,,,,,,,,,,,,,,,,,,,,,,,,,,,,,,,,,,,,,,,,,,,
456510,001,2022-11-21_01h11.56.817,Info_measure_main_exp,2022.2.2,Win32,144.092219,,,,,,,,,,,,,,,,,,masks/mask_001.jpg,,,,,,,,,,,,,,,,,,,,,,,,,,,,,,,,,,,,,,,,,,,,,,,,0,0,0,0,1,,,,,,,,,,,,,,,,,,,,,,,,,,,,,,,,,,,,,,,,,
456510,001,2022-11-21_01h11.56.817,Info_measure_main_exp,2022.2.2,Win32,144.092219,,,,,,,,,,,,,,,,,,masks/mask_002.jpg,,,,,,,,,,,,,,,,,,,,,,,,,,,,,,,,,,,,,,,,,,,,,,,,0,1,1,1,1,,,,,,,,,,,,,,,,,,,,,,,,,,,,,,,,,,,,,,,,,
456510,001,2022-11-21_01h11.56.817,Info_measure_main_exp,2022.2.2,Win32,144.092219,,,,,,,,,,,,,,,,,,masks/mask_003.jpg,,,,,,,,,,,,,,,,,,,,,,,,,,,,,,,,,,,,,,,,,,,,,,,,0,2,2,2,1,,,,,,,,,,,,,,,,,,,,,,,,,,,,,,,,,,,,,,,,,
456510,001,2022-11-21_01h11.56.817,Info_measure_main_exp,2022.2.2,Win32,144.092219,,,,,,,,,,,,,,,,,,masks/mask_005.jpg,,,,,,,,,,,,,,,,,,,,,,,,,,,,,,,,,,,,,,,,,,,,,,,,0,3,3,4,1,,,,,,,,,,,,,,,,,,,,,,,,,,,,,,,,,,,,,,,,,
456510,001,2022-11-21_01h11.56.817,Info_measure_main_exp,2022.2.2,Win32,144.092219,,,,,,,,,,,,,,,,,,masks/mask_004.jpg,,,,,,,,,,,,,,,,,,,,,,,,,,,,,,,,,,,,,,,,,,,,,,,,0,4,4,3,1,,,,,,,,,,,,,,,,,,,,,,,,,,,,,,,,,,,,,,,,,
456510,001,2022-11-21_01h11.56.817,Info_measure_main_exp,2022.2.2,Win32,144.092219,,,,,,,,,,,,,,,,,,,,,,,,,,,,,,7,0.292,1,,,,,,,,,,,,0,131,5,5,1986,1950,absent_patch/patch0001986.jpg,absent_patch/patch0001950.jpg,,,,,,,,,,,,,,,,,,,,0.057407407,0.142592593,1,0,0,response1disk,27,0.000925926,0.00462963,1,0,0,center_square,0,26,26,15,1,,,,,,,,,,,,,,,,,,,,,,,
456510,001,2022-11-21_01h11.56.817,Info_measure_main_exp,2022.2.2,Win32,144.092219,,,,,,,,,,,,,,,,,,masks/mask_004.jpg,,,,,,,,,,,,,,,,,,,,,,,,,,,,,,,,,,,,,,,,,,,0,0,0,3,1,,,,,,,,,,,,,,,,,,,,,,,,,,,,,,,,,,,,,,,,,,,,,,
456510,001,2022-11-21_01h11.56.817,Info_measure_main_exp,2022.2.2,Win32,144.092219,,,,,,,,,,,,,,,,,,masks/mask_003.jpg,,,,,,,,,,,,,,,,,,,,,,,,,,,,,,,,,,,,,,,,,,,0,1,1,2,1,,,,,,,,,,,,,,,,,,,,,,,,,,,,,,,,,,,,,,,,,,,,,,
456510,001,2022-11-21_01h11.56.817,Info_measure_main_exp,2022.2.2,Win32,144.092219,,,,,,,,,,,,,,,,,,masks/mask_001.jpg,,,,,,,,,,,,,,,,,,,,,,,,,,,,,,,,,,,,,,,,,,,0,2,2,0,1,,,,,,,,,,,,,,,,,,,,,,,,,,,,,,,,,,,,,,,,,,,,,,
456510,001,2022-11-21_01h11.56.817,Info_measure_main_exp,2022.2.2,Win32,144.092219,,,,,,,,,,,,,,,,,,masks/mask_002.jpg,,,,,,,,,,,,,,,,,,,,,,,,,,,,,,,,,,,,,,,,,,,0,3,3,1,1,,,,,,,,,,,,,,,,,,,,,,,,,,,,,,,,,,,,,,,,,,,,,,
456510,001,2022-11-21_01h11.56.817,Info_measure_main_exp,2022.2.2,Win32,144.092219,,,,,,,,,,,,,,,,,,masks/mask_005.jpg,,,,,,,,,,,,,,,,,,,,,,,,,,,,,,,,,,,,,,,,,,,0,4,4,4,1,,,,,,,,,,,,,,,,,,,,,,,,,,,,,,,,,,,,,,,,,,,,,,
456510,001,2022-11-21_01h11.56.817,Info_measure_main_exp,2022.2.2,Win32,144.092219,,,,,,,,,,,,,,,,,,masks/mask_005.jpg,,,,,,,,,,,,,,,,,,,,,,,,,,,,,,,,,,,,,,,,,,,,,,,,0,0,0,4,1,,,,,,,,,,,,,,,,,,,,,,,,,,,,,,,,,,,,,,,,,
456510,001,2022-11-21_01h11.56.817,Info_measure_main_exp,2022.2.2,Win32,144.092219,,,,,,,,,,,,,,,,,,masks/mask_002.jpg,,,,,,,,,,,,,,,,,,,,,,,,,,,,,,,,,,,,,,,,,,,,,,,,0,1,1,1,1,,,,,,,,,,,,,,,,,,,,,,,,,,,,,,,,,,,,,,,,,
456510,001,2022-11-21_01h11.56.817,Info_measure_main_exp,2022.2.2,Win32,144.092219,,,,,,,,,,,,,,,,,,masks/mask_004.jpg,,,,,,,,,,,,,,,,,,,,,,,,,,,,,,,,,,,,,,,,,,,,,,,,0,2,2,3,1,,,,,,,,,,,,,,,,,,,,,,,,,,,,,,,,,,,,,,,,,
456510,001,2022-11-21_01h11.56.817,Info_measure_main_exp,2022.2.2,Win32,144.092219,,,,,,,,,,,,,,,,,,masks/mask_003.jpg,,,,,,,,,,,,,,,,,,,,,,,,,,,,,,,,,,,,,,,,,,,,,,,,0,3,3,2,1,,,,,,,,,,,,,,,,,,,,,,,,,,,,,,,,,,,,,,,,,
456510,001,2022-11-21_01h11.56.817,Info_measure_main_exp,2022.2.2,Win32,144.092219,,,,,,,,,,,,,,,,,,masks/mask_001.jpg,,,,,,,,,,,,,,,,,,,,,,,,,,,,,,,,,,,,,,,,,,,,,,,,0,4,4,0,1,,,,,,,,,,,,,,,,,,,,,,,,,,,,,,,,,,,,,,,,,
456510,001,2022-11-21_01h11.56.817,Info_measure_main_exp,2022.2.2,Win32,144.092219,,,,,,,,,,,,,,,,,,,,,,,,,,,,,,6,1.243,1,,,,,,,,,,,,0,131,5,5,2154,2238,absent_patch/patch0002154.jpg,absent_patch/patch0002238.jpg,,,,,,,,,,,,,,,,,,,,0.127777778,0.049074074,1,0,0,response1disk,28,0.00462963,0.007407407,1,0,0,center_square,0,27,27,21,1,,,,,,,,,,,,,,,,,,,,,,,
456510,001,2022-11-21_01h11.56.817,Info_measure_main_exp,2022.2.2,Win32,144.092219,,,,,,,,,,,,,,,,,,masks/mask_004.jpg,,,,,,,,,,,,,,,,,,,,,,,,,,,,,,,,,,,,,,,,,,,0,0,0,3,1,,,,,,,,,,,,,,,,,,,,,,,,,,,,,,,,,,,,,,,,,,,,,,
456510,001,2022-11-21_01h11.56.817,Info_measure_main_exp,2022.2.2,Win32,144.092219,,,,,,,,,,,,,,,,,,masks/mask_005.jpg,,,,,,,,,,,,,,,,,,,,,,,,,,,,,,,,,,,,,,,,,,,0,1,1,4,1,,,,,,,,,,,,,,,,,,,,,,,,,,,,,,,,,,,,,,,,,,,,,,
456510,001,2022-11-21_01h11.56.817,Info_measure_main_exp,2022.2.2,Win32,144.092219,,,,,,,,,,,,,,,,,,masks/mask_002.jpg,,,,,,,,,,,,,,,,,,,,,,,,,,,,,,,,,,,,,,,,,,,0,2,2,1,1,,,,,,,,,,,,,,,,,,,,,,,,,,,,,,,,,,,,,,,,,,,,,,
456510,001,2022-11-21_01h11.56.817,Info_measure_main_exp,2022.2.2,Win32,144.092219,,,,,,,,,,,,,,,,,,masks/mask_001.jpg,,,,,,,,,,,,,,,,,,,,,,,,,,,,,,,,,,,,,,,,,,,0,3,3,0,1,,,,,,,,,,,,,,,,,,,,,,,,,,,,,,,,,,,,,,,,,,,,,,
456510,001,2022-11-21_01h11.56.817,Info_measure_main_exp,2022.2.2,Win32,144.092219,,,,,,,,,,,,,,,,,,masks/mask_003.jpg,,,,,,,,,,,,,,,,,,,,,,,,,,,,,,,,,,,,,,,,,,,0,4,4,2,1,,,,,,,,,,,,,,,,,,,,,,,,,,,,,,,,,,,,,,,,,,,,,,
456510,001,2022-11-21_01h11.56.817,Info_measure_main_exp,2022.2.2,Win32,144.092219,,,,,,,,,,,,,,,,,,masks/mask_004.jpg,,,,,,,,,,,,,,,,,,,,,,,,,,,,,,,,,,,,,,,,,,,,,,,,0,0,0,3,1,,,,,,,,,,,,,,,,,,,,,,,,,,,,,,,,,,,,,,,,,
456510,001,2022-11-21_01h11.56.817,Info_measure_main_exp,2022.2.2,Win32,144.092219,,,,,,,,,,,,,,,,,,masks/mask_003.jpg,,,,,,,,,,,,,,,,,,,,,,,,,,,,,,,,,,,,,,,,,,,,,,,,0,1,1,2,1,,,,,,,,,,,,,,,,,,,,,,,,,,,,,,,,,,,,,,,,,
456510,001,2022-11-21_01h11.56.817,Info_measure_main_exp,2022.2.2,Win32,144.092219,,,,,,,,,,,,,,,,,,masks/mask_005.jpg,,,,,,,,,,,,,,,,,,,,,,,,,,,,,,,,,,,,,,,,,,,,,,,,0,2,2,4,1,,,,,,,,,,,,,,,,,,,,,,,,,,,,,,,,,,,,,,,,,
456510,001,2022-11-21_01h11.56.817,Info_measure_main_exp,2022.2.2,Win32,144.092219,,,,,,,,,,,,,,,,,,masks/mask_002.jpg,,,,,,,,,,,,,,,,,,,,,,,,,,,,,,,,,,,,,,,,,,,,,,,,0,3,3,1,1,,,,,,,,,,,,,,,,,,,,,,,,,,,,,,,,,,,,,,,,,
456510,001,2022-11-21_01h11.56.817,Info_measure_main_exp,2022.2.2,Win32,144.092219,,,,,,,,,,,,,,,,,,masks/mask_001.jpg,,,,,,,,,,,,,,,,,,,,,,,,,,,,,,,,,,,,,,,,,,,,,,,,0,4,4,0,1,,,,,,,,,,,,,,,,,,,,,,,,,,,,,,,,,,,,,,,,,
456510,001,2022-11-21_01h11.56.817,Info_measure_main_exp,2022.2.2,Win32,144.092219,,,,,,,,,,,,,,,,,,,,,,,,,,,,,,4,0.524,1,,,,,,,,,,,,0,131,5,5,1986,2274,absent_patch/patch0001986.jpg,absent_patch/patch0002274.jpg,,,,,,,,,,,,,,,,,,,,0.021296296,-0.067592593,1,0,0,response3disk,29,-0.009259259,0.007407407,1,0,0,center_square,0,28,28,7,1,,,,,,,,,,,,,,,,,,,,,,,
456510,001,2022-11-21_01h11.56.817,Info_measure_main_exp,2022.2.2,Win32,144.092219,,,,,,,,,,,,,,,,,,masks/mask_002.jpg,,,,,,,,,,,,,,,,,,,,,,,,,,,,,,,,,,,,,,,,,,,0,0,0,1,1,,,,,,,,,,,,,,,,,,,,,,,,,,,,,,,,,,,,,,,,,,,,,,
456510,001,2022-11-21_01h11.56.817,Info_measure_main_exp,2022.2.2,Win32,144.092219,,,,,,,,,,,,,,,,,,masks/mask_003.jpg,,,,,,,,,,,,,,,,,,,,,,,,,,,,,,,,,,,,,,,,,,,0,1,1,2,1,,,,,,,,,,,,,,,,,,,,,,,,,,,,,,,,,,,,,,,,,,,,,,
456510,001,2022-11-21_01h11.56.817,Info_measure_main_exp,2022.2.2,Win32,144.092219,,,,,,,,,,,,,,,,,,masks/mask_005.jpg,,,,,,,,,,,,,,,,,,,,,,,,,,,,,,,,,,,,,,,,,,,0,2,2,4,1,,,,,,,,,,,,,,,,,,,,,,,,,,,,,,,,,,,,,,,,,,,,,,
456510,001,2022-11-21_01h11.56.817,Info_measure_main_exp,2022.2.2,Win32,144.092219,,,,,,,,,,,,,,,,,,masks/mask_004.jpg,,,,,,,,,,,,,,,,,,,,,,,,,,,,,,,,,,,,,,,,,,,0,3,3,3,1,,,,,,,,,,,,,,,,,,,,,,,,,,,,,,,,,,,,,,,,,,,,,,
456510,001,2022-11-21_01h11.56.817,Info_measure_main_exp,2022.2.2,Win32,144.092219,,,,,,,,,,,,,,,,,,masks/mask_001.jpg,,,,,,,,,,,,,,,,,,,,,,,,,,,,,,,,,,,,,,,,,,,0,4,4,0,1,,,,,,,,,,,,,,,,,,,,,,,,,,,,,,,,,,,,,,,,,,,,,,
456510,001,2022-11-21_01h11.56.817,Info_measure_main_exp,2022.2.2,Win32,144.092219,,,,,,,,,,,,,,,,,,masks/mask_004.jpg,,,,,,,,,,,,,,,,,,,,,,,,,,,,,,,,,,,,,,,,,,,,,,,,0,0,0,3,1,,,,,,,,,,,,,,,,,,,,,,,,,,,,,,,,,,,,,,,,,
456510,001,2022-11-21_01h11.56.817,Info_measure_main_exp,2022.2.2,Win32,144.092219,,,,,,,,,,,,,,,,,,masks/mask_002.jpg,,,,,,,,,,,,,,,,,,,,,,,,,,,,,,,,,,,,,,,,,,,,,,,,0,1,1,1,1,,,,,,,,,,,,,,,,,,,,,,,,,,,,,,,,,,,,,,,,,
456510,001,2022-11-21_01h11.56.817,Info_measure_main_exp,2022.2.2,Win32,144.092219,,,,,,,,,,,,,,,,,,masks/mask_005.jpg,,,,,,,,,,,,,,,,,,,,,,,,,,,,,,,,,,,,,,,,,,,,,,,,0,2,2,4,1,,,,,,,,,,,,,,,,,,,,,,,,,,,,,,,,,,,,,,,,,
456510,001,2022-11-21_01h11.56.817,Info_measure_main_exp,2022.2.2,Win32,144.092219,,,,,,,,,,,,,,,,,,masks/mask_001.jpg,,,,,,,,,,,,,,,,,,,,,,,,,,,,,,,,,,,,,,,,,,,,,,,,0,3,3,0,1,,,,,,,,,,,,,,,,,,,,,,,,,,,,,,,,,,,,,,,,,
456510,001,2022-11-21_01h11.56.817,Info_measure_main_exp,2022.2.2,Win32,144.092219,,,,,,,,,,,,,,,,,,masks/mask_003.jpg,,,,,,,,,,,,,,,,,,,,,,,,,,,,,,,,,,,,,,,,,,,,,,,,0,4,4,2,1,,,,,,,,,,,,,,,,,,,,,,,,,,,,,,,,,,,,,,,,,
456510,001,2022-11-21_01h11.56.817,Info_measure_main_exp,2022.2.2,Win32,144.092219,,,,,,,,,,,,,,,,,,,,,,,,,,,,,,7,0.222,1,,,,,,,,,,,,0,131,5,5,2274,2082,absent_patch/patch0002274.jpg,absent_patch/patch0002082.jpg,,,,,,,,,,,,,,,,,,,,0.031481481,0.075,1,0,0,response1disk,30,-0.003703704,0.000925926,1,0,0,center_square,0,29,29,100,1,,,,,,,,,,,,,,,,,,,,,,,
456510,001,2022-11-21_01h11.56.817,Info_measure_main_exp,2022.2.2,Win32,144.092219,,,,,,,,,,,,,,,,,,masks/mask_001.jpg,,,,,,,,,,,,,,,,,,,,,,,,,,,,,,,,,,,,,,,,,,,0,0,0,0,1,,,,,,,,,,,,,,,,,,,,,,,,,,,,,,,,,,,,,,,,,,,,,,
456510,001,2022-11-21_01h11.56.817,Info_measure_main_exp,2022.2.2,Win32,144.092219,,,,,,,,,,,,,,,,,,masks/mask_004.jpg,,,,,,,,,,,,,,,,,,,,,,,,,,,,,,,,,,,,,,,,,,,0,1,1,3,1,,,,,,,,,,,,,,,,,,,,,,,,,,,,,,,,,,,,,,,,,,,,,,
456510,001,2022-11-21_01h11.56.817,Info_measure_main_exp,2022.2.2,Win32,144.092219,,,,,,,,,,,,,,,,,,masks/mask_005.jpg,,,,,,,,,,,,,,,,,,,,,,,,,,,,,,,,,,,,,,,,,,,0,2,2,4,1,,,,,,,,,,,,,,,,,,,,,,,,,,,,,,,,,,,,,,,,,,,,,,
456510,001,2022-11-21_01h11.56.817,Info_measure_main_exp,2022.2.2,Win32,144.092219,,,,,,,,,,,,,,,,,,masks/mask_003.jpg,,,,,,,,,,,,,,,,,,,,,,,,,,,,,,,,,,,,,,,,,,,0,3,3,2,1,,,,,,,,,,,,,,,,,,,,,,,,,,,,,,,,,,,,,,,,,,,,,,
456510,001,2022-11-21_01h11.56.817,Info_measure_main_exp,2022.2.2,Win32,144.092219,,,,,,,,,,,,,,,,,,masks/mask_002.jpg,,,,,,,,,,,,,,,,,,,,,,,,,,,,,,,,,,,,,,,,,,,0,4,4,1,1,,,,,,,,,,,,,,,,,,,,,,,,,,,,,,,,,,,,,,,,,,,,,,
456510,001,2022-11-21_01h11.56.817,Info_measure_main_exp,2022.2.2,Win32,144.092219,,,,,,,,,,,,,,,,,,masks/mask_004.jpg,,,,,,,,,,,,,,,,,,,,,,,,,,,,,,,,,,,,,,,,,,,,,,,,0,0,0,3,1,,,,,,,,,,,,,,,,,,,,,,,,,,,,,,,,,,,,,,,,,
456510,001,2022-11-21_01h11.56.817,Info_measure_main_exp,2022.2.2,Win32,144.092219,,,,,,,,,,,,,,,,,,masks/mask_005.jpg,,,,,,,,,,,,,,,,,,,,,,,,,,,,,,,,,,,,,,,,,,,,,,,,0,1,1,4,1,,,,,,,,,,,,,,,,,,,,,,,,,,,,,,,,,,,,,,,,,
456510,001,2022-11-21_01h11.56.817,Info_measure_main_exp,2022.2.2,Win32,144.092219,,,,,,,,,,,,,,,,,,masks/mask_002.jpg,,,,,,,,,,,,,,,,,,,,,,,,,,,,,,,,,,,,,,,,,,,,,,,,0,2,2,1,1,,,,,,,,,,,,,,,,,,,,,,,,,,,,,,,,,,,,,,,,,
456510,001,2022-11-21_01h11.56.817,Info_measure_main_exp,2022.2.2,Win32,144.092219,,,,,,,,,,,,,,,,,,masks/mask_003.jpg,,,,,,,,,,,,,,,,,,,,,,,,,,,,,,,,,,,,,,,,,,,,,,,,0,3,3,2,1,,,,,,,,,,,,,,,,,,,,,,,,,,,,,,,,,,,,,,,,,
456510,001,2022-11-21_01h11.56.817,Info_measure_main_exp,2022.2.2,Win32,144.092219,,,,,,,,,,,,,,,,,,masks/mask_001.jpg,,,,,,,,,,,,,,,,,,,,,,,,,,,,,,,,,,,,,,,,,,,,,,,,0,4,4,0,1,,,,,,,,,,,,,,,,,,,,,,,,,,,,,,,,,,,,,,,,,
456510,001,2022-11-21_01h11.56.817,Info_measure_main_exp,2022.2.2,Win32,144.092219,,,,,,,,,,,,,,,,,,,,,,,,,,,,,,0,0.333,1,,,,,,,,,,,,0,131,5,5,2082,2082,absent_patch/patch0002082.jpg,absent_patch/patch0002082.jpg,,,,,,,,,,,,,,,,,,,,-0.040740741,0.128703704,1,0,0,response7disk,31,0.006481481,0.003703704,1,0,0,center_square,0,30,30,74,1,,,,,,,,,,,,,,,,,,,,,,,
456510,001,2022-11-21_01h11.56.817,Info_measure_main_exp,2022.2.2,Win32,144.092219,,,,,,,,,,,,,,,,,,masks/mask_001.jpg,,,,,,,,,,,,,,,,,,,,,,,,,,,,,,,,,,,,,,,,,,,0,0,0,0,1,,,,,,,,,,,,,,,,,,,,,,,,,,,,,,,,,,,,,,,,,,,,,,
456510,001,2022-11-21_01h11.56.817,Info_measure_main_exp,2022.2.2,Win32,144.092219,,,,,,,,,,,,,,,,,,masks/mask_005.jpg,,,,,,,,,,,,,,,,,,,,,,,,,,,,,,,,,,,,,,,,,,,0,1,1,4,1,,,,,,,,,,,,,,,,,,,,,,,,,,,,,,,,,,,,,,,,,,,,,,
456510,001,2022-11-21_01h11.56.817,Info_measure_main_exp,2022.2.2,Win32,144.092219,,,,,,,,,,,,,,,,,,masks/mask_003.jpg,,,,,,,,,,,,,,,,,,,,,,,,,,,,,,,,,,,,,,,,,,,0,2,2,2,1,,,,,,,,,,,,,,,,,,,,,,,,,,,,,,,,,,,,,,,,,,,,,,
456510,001,2022-11-21_01h11.56.817,Info_measure_main_exp,2022.2.2,Win32,144.092219,,,,,,,,,,,,,,,,,,masks/mask_004.jpg,,,,,,,,,,,,,,,,,,,,,,,,,,,,,,,,,,,,,,,,,,,0,3,3,3,1,,,,,,,,,,,,,,,,,,,,,,,,,,,,,,,,,,,,,,,,,,,,,,
456510,001,2022-11-21_01h11.56.817,Info_measure_main_exp,2022.2.2,Win32,144.092219,,,,,,,,,,,,,,,,,,masks/mask_002.jpg,,,,,,,,,,,,,,,,,,,,,,,,,,,,,,,,,,,,,,,,,,,0,4,4,1,1,,,,,,,,,,,,,,,,,,,,,,,,,,,,,,,,,,,,,,,,,,,,,,
456510,001,2022-11-21_01h11.56.817,Info_measure_main_exp,2022.2.2,Win32,144.092219,,,,,,,,,,,,,,,,,,masks/mask_001.jpg,,,,,,,,,,,,,,,,,,,,,,,,,,,,,,,,,,,,,,,,,,,,,,,,0,0,0,0,1,,,,,,,,,,,,,,,,,,,,,,,,,,,,,,,,,,,,,,,,,
456510,001,2022-11-21_01h11.56.817,Info_measure_main_exp,2022.2.2,Win32,144.092219,,,,,,,,,,,,,,,,,,masks/mask_003.jpg,,,,,,,,,,,,,,,,,,,,,,,,,,,,,,,,,,,,,,,,,,,,,,,,0,1,1,2,1,,,,,,,,,,,,,,,,,,,,,,,,,,,,,,,,,,,,,,,,,
456510,001,2022-11-21_01h11.56.817,Info_measure_main_exp,2022.2.2,Win32,144.092219,,,,,,,,,,,,,,,,,,masks/mask_002.jpg,,,,,,,,,,,,,,,,,,,,,,,,,,,,,,,,,,,,,,,,,,,,,,,,0,2,2,1,1,,,,,,,,,,,,,,,,,,,,,,,,,,,,,,,,,,,,,,,,,
456510,001,2022-11-21_01h11.56.817,Info_measure_main_exp,2022.2.2,Win32,144.092219,,,,,,,,,,,,,,,,,,masks/mask_004.jpg,,,,,,,,,,,,,,,,,,,,,,,,,,,,,,,,,,,,,,,,,,,,,,,,0,3,3,3,1,,,,,,,,,,,,,,,,,,,,,,,,,,,,,,,,,,,,,,,,,
456510,001,2022-11-21_01h11.56.817,Info_measure_main_exp,2022.2.2,Win32,144.092219,,,,,,,,,,,,,,,,,,masks/mask_005.jpg,,,,,,,,,,,,,,,,,,,,,,,,,,,,,,,,,,,,,,,,,,,,,,,,0,4,4,4,1,,,,,,,,,,,,,,,,,,,,,,,,,,,,,,,,,,,,,,,,,
456510,001,2022-11-21_01h11.56.817,Info_measure_main_exp,2022.2.2,Win32,144.092219,,,,,,,,,,,,,,,,,,,,,,,,,,,,,,7,1.014,1,,,,,,,,,,,,0,131,5,5,2178,1986,absent_patch/patch0002178.jpg,absent_patch/patch0001986.jpg,,,,,,,,,,,,,,,,,,,,0.049074074,0.166666667,1,0,0,response1disk,32,0.009259259,0.008333333,1,0,0,center_square,0,31,31,46,1,,,,,,,,,,,,,,,,,,,,,,,
456510,001,2022-11-21_01h11.56.817,Info_measure_main_exp,2022.2.2,Win32,144.092219,,,,,,,,,,,,,,,,,,masks/mask_005.jpg,,,,,,,,,,,,,,,,,,,,,,,,,,,,,,,,,,,,,,,,,,,0,0,0,4,1,,,,,,,,,,,,,,,,,,,,,,,,,,,,,,,,,,,,,,,,,,,,,,
456510,001,2022-11-21_01h11.56.817,Info_measure_main_exp,2022.2.2,Win32,144.092219,,,,,,,,,,,,,,,,,,masks/mask_003.jpg,,,,,,,,,,,,,,,,,,,,,,,,,,,,,,,,,,,,,,,,,,,0,1,1,2,1,,,,,,,,,,,,,,,,,,,,,,,,,,,,,,,,,,,,,,,,,,,,,,
456510,001,2022-11-21_01h11.56.817,Info_measure_main_exp,2022.2.2,Win32,144.092219,,,,,,,,,,,,,,,,,,masks/mask_002.jpg,,,,,,,,,,,,,,,,,,,,,,,,,,,,,,,,,,,,,,,,,,,0,2,2,1,1,,,,,,,,,,,,,,,,,,,,,,,,,,,,,,,,,,,,,,,,,,,,,,
456510,001,2022-11-21_01h11.56.817,Info_measure_main_exp,2022.2.2,Win32,144.092219,,,,,,,,,,,,,,,,,,masks/mask_001.jpg,,,,,,,,,,,,,,,,,,,,,,,,,,,,,,,,,,,,,,,,,,,0,3,3,0,1,,,,,,,,,,,,,,,,,,,,,,,,,,,,,,,,,,,,,,,,,,,,,,
456510,001,2022-11-21_01h11.56.817,Info_measure_main_exp,2022.2.2,Win32,144.092219,,,,,,,,,,,,,,,,,,masks/mask_004.jpg,,,,,,,,,,,,,,,,,,,,,,,,,,,,,,,,,,,,,,,,,,,0,4,4,3,1,,,,,,,,,,,,,,,,,,,,,,,,,,,,,,,,,,,,,,,,,,,,,,
456510,001,2022-11-21_01h11.56.817,Info_measure_main_exp,2022.2.2,Win32,144.092219,,,,,,,,,,,,,,,,,,masks/mask_002.jpg,,,,,,,,,,,,,,,,,,,,,,,,,,,,,,,,,,,,,,,,,,,,,,,,0,0,0,1,1,,,,,,,,,,,,,,,,,,,,,,,,,,,,,,,,,,,,,,,,,
456510,001,2022-11-21_01h11.56.817,Info_measure_main_exp,2022.2.2,Win32,144.092219,,,,,,,,,,,,,,,,,,masks/mask_001.jpg,,,,,,,,,,,,,,,,,,,,,,,,,,,,,,,,,,,,,,,,,,,,,,,,0,1,1,0,1,,,,,,,,,,,,,,,,,,,,,,,,,,,,,,,,,,,,,,,,,
456510,001,2022-11-21_01h11.56.817,Info_measure_main_exp,2022.2.2,Win32,144.092219,,,,,,,,,,,,,,,,,,masks/mask_003.jpg,,,,,,,,,,,,,,,,,,,,,,,,,,,,,,,,,,,,,,,,,,,,,,,,0,2,2,2,1,,,,,,,,,,,,,,,,,,,,,,,,,,,,,,,,,,,,,,,,,
456510,001,2022-11-21_01h11.56.817,Info_measure_main_exp,2022.2.2,Win32,144.092219,,,,,,,,,,,,,,,,,,masks/mask_005.jpg,,,,,,,,,,,,,,,,,,,,,,,,,,,,,,,,,,,,,,,,,,,,,,,,0,3,3,4,1,,,,,,,,,,,,,,,,,,,,,,,,,,,,,,,,,,,,,,,,,
456510,001,2022-11-21_01h11.56.817,Info_measure_main_exp,2022.2.2,Win32,144.092219,,,,,,,,,,,,,,,,,,masks/mask_004.jpg,,,,,,,,,,,,,,,,,,,,,,,,,,,,,,,,,,,,,,,,,,,,,,,,0,4,4,3,1,,,,,,,,,,,,,,,,,,,,,,,,,,,,,,,,,,,,,,,,,
456510,001,2022-11-21_01h11.56.817,Info_measure_main_exp,2022.2.2,Win32,144.092219,,,,,,,,,,,,,,,,,,,,,,,,,,,,,,7,0.361,1,,,,,,,,,,,,0,131,5,5,2190,2178,absent_patch/patch0002190.jpg,absent_patch/patch0002178.jpg,,,,,,,,,,,,,,,,,,,,0.024074074,0.133333333,1,0,0,response1disk,33,-0.002777778,-0.000925926,1,0,0,center_square,0,32,32,14,1,,,,,,,,,,,,,,,,,,,,,,,
456510,001,2022-11-21_01h11.56.817,Info_measure_main_exp,2022.2.2,Win32,144.092219,,,,,,,,,,,,,,,,,,masks/mask_004.jpg,,,,,,,,,,,,,,,,,,,,,,,,,,,,,,,,,,,,,,,,,,,0,0,0,3,1,,,,,,,,,,,,,,,,,,,,,,,,,,,,,,,,,,,,,,,,,,,,,,
456510,001,2022-11-21_01h11.56.817,Info_measure_main_exp,2022.2.2,Win32,144.092219,,,,,,,,,,,,,,,,,,masks/mask_005.jpg,,,,,,,,,,,,,,,,,,,,,,,,,,,,,,,,,,,,,,,,,,,0,1,1,4,1,,,,,,,,,,,,,,,,,,,,,,,,,,,,,,,,,,,,,,,,,,,,,,
456510,001,2022-11-21_01h11.56.817,Info_measure_main_exp,2022.2.2,Win32,144.092219,,,,,,,,,,,,,,,,,,masks/mask_001.jpg,,,,,,,,,,,,,,,,,,,,,,,,,,,,,,,,,,,,,,,,,,,0,2,2,0,1,,,,,,,,,,,,,,,,,,,,,,,,,,,,,,,,,,,,,,,,,,,,,,
456510,001,2022-11-21_01h11.56.817,Info_measure_main_exp,2022.2.2,Win32,144.092219,,,,,,,,,,,,,,,,,,masks/mask_002.jpg,,,,,,,,,,,,,,,,,,,,,,,,,,,,,,,,,,,,,,,,,,,0,3,3,1,1,,,,,,,,,,,,,,,,,,,,,,,,,,,,,,,,,,,,,,,,,,,,,,
456510,001,2022-11-21_01h11.56.817,Info_measure_main_exp,2022.2.2,Win32,144.092219,,,,,,,,,,,,,,,,,,masks/mask_003.jpg,,,,,,,,,,,,,,,,,,,,,,,,,,,,,,,,,,,,,,,,,,,0,4,4,2,1,,,,,,,,,,,,,,,,,,,,,,,,,,,,,,,,,,,,,,,,,,,,,,
456510,001,2022-11-21_01h11.56.817,Info_measure_main_exp,2022.2.2,Win32,144.092219,,,,,,,,,,,,,,,,,,masks/mask_005.jpg,,,,,,,,,,,,,,,,,,,,,,,,,,,,,,,,,,,,,,,,,,,,,,,,0,0,0,4,1,,,,,,,,,,,,,,,,,,,,,,,,,,,,,,,,,,,,,,,,,
456510,001,2022-11-21_01h11.56.817,Info_measure_main_exp,2022.2.2,Win32,144.092219,,,,,,,,,,,,,,,,,,masks/mask_004.jpg,,,,,,,,,,,,,,,,,,,,,,,,,,,,,,,,,,,,,,,,,,,,,,,,0,1,1,3,1,,,,,,,,,,,,,,,,,,,,,,,,,,,,,,,,,,,,,,,,,
456510,001,2022-11-21_01h11.56.817,Info_measure_main_exp,2022.2.2,Win32,144.092219,,,,,,,,,,,,,,,,,,masks/mask_002.jpg,,,,,,,,,,,,,,,,,,,,,,,,,,,,,,,,,,,,,,,,,,,,,,,,0,2,2,1,1,,,,,,,,,,,,,,,,,,,,,,,,,,,,,,,,,,,,,,,,,
456510,001,2022-11-21_01h11.56.817,Info_measure_main_exp,2022.2.2,Win32,144.092219,,,,,,,,,,,,,,,,,,masks/mask_001.jpg,,,,,,,,,,,,,,,,,,,,,,,,,,,,,,,,,,,,,,,,,,,,,,,,0,3,3,0,1,,,,,,,,,,,,,,,,,,,,,,,,,,,,,,,,,,,,,,,,,
456510,001,2022-11-21_01h11.56.817,Info_measure_main_exp,2022.2.2,Win32,144.092219,,,,,,,,,,,,,,,,,,masks/mask_003.jpg,,,,,,,,,,,,,,,,,,,,,,,,,,,,,,,,,,,,,,,,,,,,,,,,0,4,4,2,1,,,,,,,,,,,,,,,,,,,,,,,,,,,,,,,,,,,,,,,,,
456510,001,2022-11-21_01h11.56.817,Info_measure_main_exp,2022.2.2,Win32,144.092219,,,,,,,,,,,,,,,,,,,,,,,,,,,,,,7,0.319,1,,,,,,,,,,,,0,131,5,5,2154,1950,absent_patch/patch0002154.jpg,absent_patch/patch0001950.jpg,,,,,,,,,,,,,,,,,,,,0.036111111,0.111111111,1,0,0,response1disk,34,0.002777778,-0.005555556,1,0,0,center_square,0,33,33,96,1,,,,,,,,,,,,,,,,,,,,,,,
456510,001,2022-11-21_01h11.56.817,Info_measure_main_exp,2022.2.2,Win32,144.092219,,,,,,,,,,,,,,,,,,masks/mask_003.jpg,,,,,,,,,,,,,,,,,,,,,,,,,,,,,,,,,,,,,,,,,,,0,0,0,2,1,,,,,,,,,,,,,,,,,,,,,,,,,,,,,,,,,,,,,,,,,,,,,,
456510,001,2022-11-21_01h11.56.817,Info_measure_main_exp,2022.2.2,Win32,144.092219,,,,,,,,,,,,,,,,,,masks/mask_004.jpg,,,,,,,,,,,,,,,,,,,,,,,,,,,,,,,,,,,,,,,,,,,0,1,1,3,1,,,,,,,,,,,,,,,,,,,,,,,,,,,,,,,,,,,,,,,,,,,,,,
456510,001,2022-11-21_01h11.56.817,Info_measure_main_exp,2022.2.2,Win32,144.092219,,,,,,,,,,,,,,,,,,masks/mask_005.jpg,,,,,,,,,,,,,,,,,,,,,,,,,,,,,,,,,,,,,,,,,,,0,2,2,4,1,,,,,,,,,,,,,,,,,,,,,,,,,,,,,,,,,,,,,,,,,,,,,,
456510,001,2022-11-21_01h11.56.817,Info_measure_main_exp,2022.2.2,Win32,144.092219,,,,,,,,,,,,,,,,,,masks/mask_001.jpg,,,,,,,,,,,,,,,,,,,,,,,,,,,,,,,,,,,,,,,,,,,0,3,3,0,1,,,,,,,,,,,,,,,,,,,,,,,,,,,,,,,,,,,,,,,,,,,,,,
456510,001,2022-11-21_01h11.56.817,Info_measure_main_exp,2022.2.2,Win32,144.092219,,,,,,,,,,,,,,,,,,masks/mask_002.jpg,,,,,,,,,,,,,,,,,,,,,,,,,,,,,,,,,,,,,,,,,,,0,4,4,1,1,,,,,,,,,,,,,,,,,,,,,,,,,,,,,,,,,,,,,,,,,,,,,,
456510,001,2022-11-21_01h11.56.817,Info_measure_main_exp,2022.2.2,Win32,144.092219,,,,,,,,,,,,,,,,,,masks/mask_004.jpg,,,,,,,,,,,,,,,,,,,,,,,,,,,,,,,,,,,,,,,,,,,,,,,,0,0,0,3,1,,,,,,,,,,,,,,,,,,,,,,,,,,,,,,,,,,,,,,,,,
456510,001,2022-11-21_01h11.56.817,Info_measure_main_exp,2022.2.2,Win32,144.092219,,,,,,,,,,,,,,,,,,masks/mask_001.jpg,,,,,,,,,,,,,,,,,,,,,,,,,,,,,,,,,,,,,,,,,,,,,,,,0,1,1,0,1,,,,,,,,,,,,,,,,,,,,,,,,,,,,,,,,,,,,,,,,,
456510,001,2022-11-21_01h11.56.817,Info_measure_main_exp,2022.2.2,Win32,144.092219,,,,,,,,,,,,,,,,,,masks/mask_002.jpg,,,,,,,,,,,,,,,,,,,,,,,,,,,,,,,,,,,,,,,,,,,,,,,,0,2,2,1,1,,,,,,,,,,,,,,,,,,,,,,,,,,,,,,,,,,,,,,,,,
456510,001,2022-11-21_01h11.56.817,Info_measure_main_exp,2022.2.2,Win32,144.092219,,,,,,,,,,,,,,,,,,masks/mask_005.jpg,,,,,,,,,,,,,,,,,,,,,,,,,,,,,,,,,,,,,,,,,,,,,,,,0,3,3,4,1,,,,,,,,,,,,,,,,,,,,,,,,,,,,,,,,,,,,,,,,,
456510,001,2022-11-21_01h11.56.817,Info_measure_main_exp,2022.2.2,Win32,144.092219,,,,,,,,,,,,,,,,,,masks/mask_003.jpg,,,,,,,,,,,,,,,,,,,,,,,,,,,,,,,,,,,,,,,,,,,,,,,,0,4,4,2,1,,,,,,,,,,,,,,,,,,,,,,,,,,,,,,,,,,,,,,,,,
